Voltage_01 Voltage_02 Acc_x Acc_y Acc_z Gyro_x Gyro_y Gyro_z Time
5000
0.04 0.44 1.28 -0.18 9.91 0.36 -0.21 -0.03 17
0.04 0.46 1.26 -0.17 9.84 0.37 -0.22 -0.03 23
0.06 0.45 1.20 -0.21 9.68 0.39 -0.23 -0.04 29
0.05 0.45 1.15 -0.18 9.59 0.41 -0.26 -0.05 35
0.05 0.43 1.18 -0.15 9.52 0.44 -0.29 -0.06 41
0.03 0.46 1.28 -0.15 9.66 0.50 -0.30 -0.07 48
0.04 0.44 1.35 -0.32 10.07 0.49 -0.30 -0.06 54
0.05 0.50 1.38 -0.46 10.26 0.48 -0.30 -0.04 60
0.04 0.50 1.30 -0.56 10.33 0.47 -0.29 -0.03 66
0.04 0.51 1.21 -0.63 10.34 0.47 -0.28 -0.03 72
0.04 0.52 1.10 -0.64 10.29 0.46 -0.28 -0.02 78
0.05 0.53 1.03 -0.63 10.24 0.45 -0.28 -0.02 86
0.05 0.53 1.01 -0.66 10.17 0.44 -0.29 -0.02 92
0.03 0.53 1.01 -0.63 10.07 0.44 -0.30 -0.03 98
0.04 0.51 1.00 -0.63 9.98 0.45 -0.31 -0.07 104
0.05 0.52 0.94 -0.65 9.94 0.46 -0.33 -0.04 110
0.04 0.48 0.94 -0.70 9.86 0.47 -0.35 -0.05 116
0.04 0.49 0.95 -0.72 9.84 0.49 -0.36 -0.06 122
0.05 0.50 0.96 -0.72 9.73 0.52 -0.38 -0.06 129
0.05 0.52 0.91 -0.78 9.75 0.54 -0.43 -0.07 135
0.05 0.49 0.90 -0.83 9.90 0.57 -0.41 -0.07 141
0.05 0.44 0.87 -0.87 9.87 0.60 -0.43 -0.07 148
0.04 0.47 0.89 -0.98 10.00 0.63 -0.45 -0.08 154
0.06 0.43 0.86 -1.27 9.86 0.65 -0.48 -0.08 160
0.05 0.42 0.46 -1.16 12.41 0.25 -0.61 -0.07 166
0.05 0.40 0.67 -1.29 10.93 0.16 -0.35 -0.01 173
0.05 0.45 0.74 -1.41 10.62 0.09 -0.23 -0.00 179
0.06 0.45 0.60 -1.32 10.26 0.05 -0.15 0.01 185
0.06 0.41 0.61 -1.25 10.21 0.03 -0.11 0.01 192
0.05 0.42 0.56 -1.16 10.13 0.02 -0.09 0.02 198
0.06 0.44 0.58 -1.16 10.06 0.02 -0.05 0.02 204
0.04 0.44 0.61 -1.10 10.03 0.01 -0.04 0.02 210
0.05 0.46 0.61 -1.12 10.04 0.01 -0.04 0.02 217
0.05 0.44 0.65 -1.10 10.02 0.01 -0.03 0.02 223
0.07 0.43 0.63 -1.13 10.03 0.01 -0.03 0.02 229
0.06 0.41 0.64 -1.08 10.04 0.00 -0.03 0.02 235
0.06 0.40 0.67 -1.14 9.99 0.00 -0.03 0.02 241
0.06 0.40 0.69 -1.10 9.92 0.01 -0.03 0.02 248
0.06 0.40 0.65 -1.08 9.98 0.01 -0.03 0.02 254
0.07 0.40 0.67 -1.08 9.97 0.01 -0.03 0.02 261
0.08 0.39 0.72 -1.08 10.03 0.01 -0.03 0.03 267
0.07 0.39 0.65 -1.06 10.05 0.01 -0.03 0.03 273
0.08 0.41 0.67 -1.08 10.06 0.01 -0.03 0.03 279
0.06 0.38 0.65 -1.05 10.10 0.00 -0.02 0.03 285
0.06 0.37 0.65 -1.14 10.06 -0.00 -0.03 0.03 291
0.06 0.40 0.66 -1.16 10.09 0.03 -0.03 0.03 297
0.06 0.39 0.67 -1.13 10.10 -0.00 -0.03 0.02 305
0.05 0.38 0.69 -1.14 9.99 -0.00 -0.03 0.02 311
0.04 0.38 0.71 -1.12 9.99 0.00 -0.03 0.02 317
0.05 0.38 0.73 -1.08 9.98 0.01 -0.03 0.02 323
0.06 0.37 0.72 -1.07 9.99 0.01 -0.03 0.02 329
0.06 0.37 0.67 -1.11 10.05 0.01 -0.03 0.02 335
0.05 0.36 -1.35 -2.00 12.04 0.02 0.01 0.01 342
0.07 0.37 0.66 -1.12 10.00 0.01 -0.02 0.02 348
0.08 0.36 0.65 -1.13 10.06 0.00 -0.02 0.02 354
0.07 0.36 0.66 -1.18 10.07 0.00 -0.03 0.02 360
0.05 0.36 0.63 -1.17 10.04 0.00 -0.02 0.02 367
0.07 0.38 0.69 -1.18 9.98 0.00 -0.02 0.02 373
0.06 0.37 0.69 -1.11 10.03 -0.00 -0.02 0.02 379
0.06 0.38 0.69 -1.15 10.10 0.00 -0.02 0.02 386
0.05 0.38 0.71 -1.12 10.04 0.00 -0.02 0.01 392
0.06 0.38 0.66 -1.15 10.03 0.00 -0.02 0.02 398
0.05 0.36 0.69 -1.19 10.01 0.00 -0.02 0.02 404
0.05 0.34 0.67 -1.15 10.03 -0.00 -0.02 0.02 410
0.05 0.35 0.68 -1.13 10.07 0.00 -0.02 0.02 417
0.05 0.34 0.67 -1.14 10.02 -0.03 -0.02 0.02 423
0.05 0.34 0.70 -1.20 10.03 0.00 -0.02 0.02 430
0.05 0.33 0.71 -1.20 10.03 -0.00 -0.02 0.02 436
0.06 0.35 0.71 -1.18 10.03 0.00 -0.02 0.02 442
0.07 0.35 0.74 -1.14 9.99 -0.00 -0.02 0.02 448
0.05 0.33 0.71 -1.15 10.03 0.00 -0.02 0.02 454
0.06 0.31 0.68 -1.15 9.97 0.01 -0.02 0.02 460
0.07 0.31 0.72 -1.19 9.97 0.01 -0.01 0.02 466
0.09 0.30 0.73 -1.17 9.95 0.00 -0.02 0.02 473
0.08 0.30 0.70 -1.13 9.98 0.00 -0.02 0.02 480
0.07 0.32 0.70 -1.16 10.09 0.01 -0.02 0.02 486
0.06 0.33 0.68 -1.16 10.03 0.01 -0.01 0.03 492
0.06 0.33 0.69 -1.19 10.06 0.01 -0.01 0.03 498
0.06 0.30 0.74 -1.15 9.99 0.01 -0.01 0.03 504
0.06 0.29 0.71 -1.11 10.03 0.01 -0.01 0.03 510
0.05 0.28 0.73 -1.13 10.03 0.01 -0.01 0.03 517
0.07 0.27 0.75 -1.11 9.96 0.01 -0.01 0.03 523
0.08 0.26 0.74 -1.18 9.97 0.01 -0.01 0.03 529
0.08 0.25 0.68 -1.13 10.02 0.01 -0.02 0.03 536
0.08 0.25 0.73 -1.20 9.98 0.01 -0.02 0.04 542
0.10 0.24 0.72 -1.14 10.02 0.01 -0.02 0.04 548
0.09 0.25 0.74 -1.12 9.96 0.01 -0.02 0.04 555
0.09 0.25 0.72 -1.12 10.07 0.01 -0.02 0.04 561
0.08 0.24 0.73 -1.17 10.03 0.00 -0.02 0.04 567
0.09 0.25 0.70 -1.12 10.05 0.01 -0.02 0.04 573
0.08 0.22 0.73 -1.12 10.04 0.00 -0.02 0.04 579
0.06 0.21 0.70 -1.19 10.09 0.00 -0.02 0.05 585
0.07 0.19 0.75 -1.15 10.04 0.01 -0.02 0.05 592
0.08 0.21 0.74 -1.17 9.94 0.01 -0.03 0.06 599
0.07 0.22 0.70 -1.13 10.03 0.01 -0.03 0.06 605
0.06 0.23 0.68 -1.20 10.03 0.01 -0.03 0.07 611
0.07 0.22 0.65 -1.13 10.04 0.01 -0.04 0.08 617
0.10 0.22 0.59 -1.11 10.00 0.02 -0.04 0.09 623
0.09 0.20 0.54 -1.10 10.03 0.02 -0.05 0.11 629
0.10 0.20 0.61 -1.11 10.00 0.02 -0.06 0.13 635
0.12 0.17 0.51 -1.06 10.00 0.03 -0.07 0.15 643
0.10 0.14 0.44 -0.99 10.10 0.03 -0.09 0.20 649
0.09 0.14 0.46 -1.01 10.00 0.03 -0.09 0.19 655
0.11 0.13 0.46 -1.01 9.99 0.04 -0.09 0.22 661
0.12 0.13 0.47 -1.01 10.16 0.04 -0.09 0.25 667
0.11 0.10 0.42 -1.06 10.02 0.05 -0.09 0.27 673
0.11 0.11 0.54 -1.11 10.20 0.05 -0.10 0.30 679
0.13 0.09 0.61 -1.05 10.27 0.07 -0.10 0.32 686
0.12 0.09 0.92 -1.19 10.38 0.10 -0.08 0.32 693
0.12 0.07 1.05 -1.36 10.36 0.15 -0.07 0.29 699
0.13 0.09 1.06 -1.34 10.38 0.19 -0.05 0.26 705
0.16 0.08 0.88 -1.26 10.31 0.23 -0.04 0.23 711
0.13 0.08 0.84 -1.34 10.25 0.26 -0.05 0.22 717
0.12 0.08 0.71 -1.27 10.27 0.29 -0.05 0.20 723
0.12 0.08 0.73 -1.28 10.20 0.32 -0.05 0.20 730
0.17 0.08 0.68 -1.31 10.21 0.34 -0.05 0.19 737
0.18 0.06 0.73 -1.38 10.16 0.36 -0.05 0.19 743
0.17 0.07 0.76 -1.32 10.16 0.38 -0.05 0.19 749
0.16 0.07 0.78 -1.39 10.06 0.39 -0.04 0.18 755
0.19 0.05 0.77 -1.47 9.96 0.39 -0.04 0.18 761
0.18 0.06 0.63 -1.47 9.87 0.39 -0.05 0.18 768
0.16 0.07 0.64 -1.54 9.81 0.38 -0.06 0.19 774
0.17 0.06 0.01 -1.48 9.79 0.35 -0.06 0.19 780
0.15 0.05 0.57 -1.54 9.58 0.31 -0.06 0.20 787
0.15 0.04 0.60 -1.48 9.48 0.27 -0.06 0.22 793
0.19 0.06 0.63 -1.59 9.39 0.21 -0.07 0.23 799
0.18 0.05 0.63 -1.56 9.18 0.15 -0.06 0.24 805
0.17 0.06 0.58 -1.62 9.03 0.08 -0.06 0.26 812
0.15 0.05 0.49 -1.57 8.72 -0.02 -0.06 0.29 818
0.13 0.05 0.31 -1.46 8.38 -0.15 -0.05 0.33 824
0.13 0.05 0.09 -1.48 8.05 -0.32 -0.05 0.38 830
0.10 0.05 -0.14 -1.38 7.76 -0.54 -0.06 0.48 836
0.09 0.03 -0.17 -1.13 7.47 -0.81 -0.10 0.59 842
0.09 0.06 -0.00 -1.08 7.74 -1.14 -0.19 0.73 848
0.08 0.08 0.32 -0.66 8.22 -1.44 -0.37 0.89 856
0.07 0.20 22.85 -12.47 34.56 -1.49 -0.64 0.51 862
0.04 0.37 2.54 -5.93 10.02 -0.23 -0.38 0.04 868
0.05 0.39 0.34 0.09 7.99 -0.02 0.06 0.03 874
0.06 0.32 0.34 -1.29 10.39 -0.03 -0.00 -0.02 880
0.06 0.28 1.05 -1.31 8.89 -0.01 -0.01 0.01 886
0.06 0.29 0.55 -1.64 10.00 -0.03 -0.10 0.01 892
0.06 0.32 0.52 -1.23 10.21 -0.03 -0.09 0.02 900
0.05 0.32 0.63 -1.32 10.43 -0.03 -0.08 0.01 906
0.04 0.31 0.74 -1.19 10.07 -0.02 -0.05 0.00 912
0.04 0.32 0.70 -1.15 10.02 -0.02 -0.05 0.00 918
0.04 0.32 0.64 -1.13 9.98 -0.02 -0.05 0.00 924
0.05 0.31 0.63 -1.11 10.00 -0.02 -0.05 0.00 930
0.05 0.31 0.65 -1.13 10.00 -0.02 -0.04 0.00 936
0.06 0.32 0.64 -1.11 9.99 -0.02 -0.04 0.00 943
0.06 0.30 0.64 -1.16 9.98 -0.02 -0.04 0.00 949
0.06 0.31 0.69 -1.17 10.03 -0.02 -0.04 0.00 956
0.05 0.30 0.63 -1.17 10.00 -0.02 -0.03 0.00 962
0.06 0.31 0.63 -1.14 10.02 -0.01 -0.04 0.01 968
0.05 0.31 0.64 -1.11 10.03 -0.02 -0.03 0.01 974
0.04 0.31 0.67 -1.11 10.05 -0.02 -0.03 0.01 980
0.03 0.31 0.67 -1.12 10.01 -0.02 -0.03 0.01 987
0.04 0.33 0.66 -1.14 10.03 -0.02 -0.07 0.01 993
0.04 0.35 0.67 -1.16 9.99 -0.02 -0.04 0.01 999
0.06 0.36 0.63 -1.11 9.99 -0.03 -0.03 0.01 1005
0.04 0.39 0.64 -1.08 10.01 -0.04 -0.04 0.01 1012
0.06 0.41 0.70 -1.09 10.06 -0.04 -0.04 0.01 1018
0.05 0.43 0.64 -1.08 10.01 -0.04 -0.04 0.01 1025
0.05 0.43 0.60 -1.15 10.09 -0.05 -0.03 0.00 1031
0.06 0.46 0.59 -1.14 10.10 -0.05 -0.02 0.01 1037
0.05 0.46 0.62 -1.12 10.12 -0.04 0.01 0.00 1044
0.04 0.49 0.69 -1.08 10.01 -0.05 0.03 0.01 1050
0.04 0.48 0.62 -1.09 10.13 -0.05 0.04 0.01 1056
0.04 0.50 0.66 -1.11 10.26 -0.06 0.07 0.01 1062
0.04 0.50 0.64 -1.17 10.35 -0.07 0.10 0.00 1069
0.05 0.52 0.60 -1.17 10.32 -0.09 0.15 0.01 1076
0.04 0.55 0.59 -1.20 10.38 -0.11 0.19 0.00 1082
0.02 0.57 0.42 -1.06 10.19 -0.13 0.22 -0.00 1088
0.04 0.62 0.35 -1.29 10.78 -0.17 0.25 -0.04 1094
0.02 0.64 0.66 -1.19 11.24 -0.30 0.18 -0.06 1100
0.03 0.62 0.86 -1.10 10.49 -0.37 0.22 -0.06 1107
0.02 0.67 1.06 -1.17 10.70 -0.41 0.24 -0.05 1114
0.03 0.68 1.14 -1.24 10.68 -0.47 0.25 -0.02 1120
0.03 0.70 1.19 -1.13 10.64 -0.51 0.27 0.01 1126
0.04 0.66 1.18 -1.08 10.58 -0.54 0.29 0.03 1132
0.03 0.65 1.09 -1.01 10.43 -0.58 0.29 0.05 1139
0.03 0.72 1.00 -0.94 10.33 -0.60 0.29 0.06 1145
0.03 0.62 0.98 -0.83 10.13 -0.61 0.29 0.06 1152
0.03 0.63 0.97 -0.67 9.92 -0.61 0.29 0.06 1158
0.04 0.68 0.94 -0.71 9.90 -0.59 0.28 0.06 1164
0.03 0.67 0.90 -0.55 9.83 -0.57 0.26 0.05 1170
0.03 0.63 1.00 -0.48 9.81 -0.55 0.24 0.04 1177
0.04 0.62 1.03 -0.47 9.74 -0.52 0.23 0.04 1183
0.04 0.59 1.01 -0.42 9.64 -0.50 0.21 0.03 1189
0.04 0.57 1.14 -0.40 9.55 -0.46 0.19 0.02 1196
0.04 0.58 1.12 -0.34 9.54 -0.43 0.17 0.02 1202
0.05 0.59 1.17 -0.27 9.53 -0.39 0.15 0.02 1208
0.04 0.63 1.18 -0.26 9.47 -0.36 0.10 0.02 1214
0.03 0.60 1.21 -0.24 9.47 -0.32 0.12 0.02 1221
0.04 0.65 1.21 -0.25 9.52 -0.28 0.10 0.01 1227
0.04 0.63 1.19 -0.20 9.52 -0.24 0.08 0.01 1233
0.04 0.60 1.25 -0.19 9.57 -0.21 0.07 0.01 1240
0.04 0.61 1.25 -0.21 9.52 -0.17 0.05 0.01 1246
0.05 0.61 1.21 -0.17 9.49 -0.13 0.04 0.01 1252
0.03 0.58 1.21 -0.14 9.52 -0.11 0.03 0.01 1259
0.03 0.59 1.16 -0.14 9.54 -0.07 0.02 0.01 1265
0.04 0.59 1.21 -0.15 9.55 -0.03 0.01 0.01 1271
0.03 0.58 1.16 -0.15 9.56 0.01 -0.00 0.00 1277
0.04 0.56 1.20 -0.14 9.50 0.04 -0.02 -0.00 1284
0.03 0.57 1.20 -0.15 9.44 0.08 -0.03 -0.01 1290
0.05 0.57 1.20 -0.15 9.39 0.12 -0.05 -0.01 1296
0.04 0.56 1.20 -0.13 9.40 0.17 -0.07 -0.02 1302
0.03 0.56 1.21 -0.15 9.38 0.20 -0.09 -0.02 1309
0.03 0.59 1.19 -0.17 9.40 0.25 -0.12 -0.03 1315
0.04 0.57 1.09 -0.15 9.27 0.30 -0.15 -0.04 1321
0.04 0.56 1.13 -0.19 9.30 0.35 -0.19 -0.06 1328
0.04 0.57 1.14 -0.16 9.23 0.40 -0.23 -0.07 1334
0.04 0.59 1.14 -0.20 9.20 0.46 -0.27 -0.09 1340
0.04 0.61 1.11 -0.22 9.18 0.52 -0.31 -0.10 1347
0.04 0.58 1.09 -0.26 9.13 0.59 -0.35 -0.11 1353
0.05 0.61 1.06 -0.29 9.15 0.66 -0.40 -0.12 1359
0.04 0.57 1.04 -0.35 9.18 0.76 -0.47 -0.14 1366
0.03 0.57 1.00 -0.45 9.19 0.80 -0.53 -0.15 1372
0.05 0.57 1.04 -0.57 9.21 0.88 -0.57 -0.16 1378
0.05 0.56 1.09 -0.56 9.28 0.96 -0.62 -0.18 1385
0.03 0.55 1.01 -0.79 9.69 1.05 -0.67 -0.18 1391
0.04 0.52 1.14 -1.00 10.24 1.12 -0.71 -0.18 1397
0.04 0.48 -2.79 -4.58 38.70 0.79 -1.42 -0.20 1403
0.05 0.49 1.50 -1.84 11.61 0.17 -0.48 -0.02 1410
0.06 0.51 0.66 -1.84 11.40 0.08 -0.24 0.00 1417
0.05 0.53 0.35 -2.08 10.79 0.02 -0.11 0.01 1423
0.04 0.54 0.36 -1.56 10.29 -0.00 -0.05 0.01 1429
0.06 0.54 0.57 -1.14 10.06 -0.01 -0.03 0.02 1435
0.06 0.50 0.52 -1.05 10.13 -0.02 -0.00 0.02 1441
0.05 0.51 0.60 -1.05 9.97 -0.03 0.00 0.01 1447
0.06 0.51 0.71 -1.05 10.02 -0.02 -0.00 0.01 1455
0.05 0.49 0.78 -1.10 9.99 -0.02 -0.00 0.01 1461
0.05 0.46 0.77 -1.09 9.95 -0.02 -0.01 0.01 1467
0.05 0.43 0.74 -1.08 9.97 -0.01 -0.02 0.02 1473
0.06 0.43 0.69 -1.06 9.96 -0.01 -0.03 0.01 1479
0.06 0.42 0.68 -1.06 9.97 -0.00 -0.04 0.01 1485
0.04 0.44 0.67 -1.06 9.99 0.03 -0.04 0.01 1491
0.05 0.43 0.69 -1.03 10.02 0.00 -0.05 0.01 1499
0.06 0.41 0.68 -1.03 9.95 0.00 -0.05 0.01 1505
0.06 0.40 0.65 -1.07 9.99 0.00 -0.05 0.01 1511
0.06 0.41 0.69 -1.06 10.03 0.01 -0.05 0.01 1517
0.06 0.43 0.67 -1.14 10.09 -0.00 -0.04 0.01 1523
0.05 0.43 0.59 -1.21 10.16 -0.02 -0.02 0.01 1529
0.05 0.46 0.59 -1.18 10.24 -0.04 0.01 0.01 1536
0.06 0.50 0.65 -1.14 10.41 -0.06 0.05 0.02 1543
0.04 0.50 0.61 -1.10 10.47 -0.09 0.11 0.02 1549
0.03 0.60 0.30 -1.03 10.94 -0.16 0.20 0.02 1555
0.04 0.64 0.34 -1.66 12.09 -0.20 0.33 0.01 1561
0.03 0.66 0.12 -1.78 15.34 -0.43 0.29 -0.02 1567
0.04 0.66 0.46 -1.58 13.04 -0.77 0.41 -0.02 1574
0.04 0.72 0.70 -1.50 12.34 -0.96 0.51 -0.01 1581
0.04 0.69 0.95 -1.38 12.09 -1.10 0.56 0.01 1587
0.03 0.74 1.11 -1.24 11.41 -1.21 0.60 0.04 1593
0.03 0.71 1.15 -1.20 10.97 -1.25 0.62 0.06 1599
0.02 0.76 1.08 -0.86 10.68 -1.26 0.58 0.06 1606
0.02 0.77 1.24 -0.67 10.28 -1.26 0.54 0.06 1612
0.03 0.67 1.32 -0.63 9.88 -1.24 0.49 0.07 1618
0.02 0.64 1.33 -0.31 9.74 -1.19 0.43 0.07 1625
0.04 0.57 1.34 -0.26 9.32 -1.14 0.39 0.08 1631
0.04 0.60 1.29 -0.11 9.11 -1.07 0.34 0.07 1638
0.03 0.57 1.23 0.06 9.06 -1.02 0.30 0.07 1644
0.04 0.52 1.27 0.15 9.04 -0.95 0.26 0.06 1650
0.03 0.54 1.31 0.27 9.01 -0.89 0.24 0.06 1656
0.03 0.50 1.37 0.29 9.02 -0.84 0.22 0.06 1662
0.02 0.49 1.32 0.35 9.04 -0.77 0.20 0.05 1669
0.02 0.54 1.33 0.43 8.88 -0.70 0.17 0.05 1675
0.04 0.44 1.30 0.51 8.77 -0.62 0.15 0.05 1682
0.03 0.47 1.31 0.55 8.65 -0.55 0.13 0.05 1688
0.02 0.50 1.38 0.54 8.66 -0.48 0.10 0.04 1694
0.04 0.43 1.30 0.62 8.78 -0.41 0.08 0.03 1700
0.03 0.44 1.36 0.63 8.84 -0.34 0.06 0.03 1707
0.02 0.45 1.37 1.22 8.97 -0.28 0.04 0.02 1713
0.03 0.48 1.35 0.65 9.05 -0.21 0.02 0.02 1719
0.03 0.46 1.31 0.63 9.05 -0.15 0.01 0.02 1726
0.03 0.45 1.32 0.63 9.02 -0.08 -0.00 0.01 1732
0.03 0.47 1.33 0.66 8.86 -0.02 -0.02 0.00 1738
0.04 0.48 1.33 0.68 8.75 0.09 -0.03 -0.00 1744
0.03 0.48 1.35 0.71 8.44 0.15 -0.04 -0.01 1751
0.02 0.49 1.29 0.79 8.39 0.24 -0.06 -0.01 1757
0.03 0.49 1.19 0.75 8.27 0.34 -0.08 -0.02 1763
0.02 0.49 1.15 0.75 8.21 0.44 -0.11 -0.04 1770
0.02 0.50 1.01 0.75 8.08 0.55 -0.17 -0.06 1776
0.03 0.48 1.02 0.76 7.75 0.69 -0.23 -0.09 1782
0.03 0.48 1.08 0.81 7.38 0.84 -0.29 -0.12 1788
0.03 0.48 1.10 0.75 7.14 1.00 -0.34 -0.14 1795
0.03 0.49 1.20 0.73 6.92 1.18 -0.40 -0.17 1801
0.04 0.51 1.16 0.52 6.96 1.34 -0.47 -0.18 1807
0.03 0.54 0.62 0.37 7.26 1.55 -0.54 -0.20 1814
0.03 0.51 0.92 0.23 7.81 1.74 -0.66 -0.24 1820
0.04 0.56 0.55 0.07 8.80 1.90 -0.84 -0.33 1826
0.02 0.58 0.51 -0.38 10.13 2.00 -1.03 -0.38 1832
0.02 0.58 0.66 -0.93 11.81 2.07 -1.20 -0.46 1839
0.04 0.54 1.09 -1.43 12.30 2.10 -1.24 -0.50 1846
0.04 0.52 1.56 -2.39 13.75 2.10 -1.22 -0.47 1852
0.04 0.49 1.42 -2.57 21.44 0.51 -0.99 -0.18 1858
0.04 0.53 1.43 -0.91 9.07 0.07 -0.07 0.02 1864
0.05 0.51 -0.06 -3.64 10.44 0.05 -0.06 -0.00 1870
0.05 0.54 0.16 -2.36 10.67 -0.01 -0.03 0.02 1878
0.05 0.57 0.26 -1.44 10.08 -0.03 -0.02 0.02 1884
0.05 0.52 0.40 -0.90 9.92 -0.04 -0.01 0.03 1890
0.05 0.52 0.40 -1.07 10.01 -0.06 -0.01 0.02 1896
0.07 0.51 0.42 -1.20 10.22 -0.07 0.01 0.01 1902
0.05 0.50 0.73 -1.05 10.26 -0.08 0.06 0.01 1908
0.04 0.49 0.74 -1.14 10.28 -0.08 0.10 0.01 1915
0.06 0.52 0.70 -1.18 10.17 -0.08 0.12 0.02 1922
0.04 0.51 0.75 -1.14 9.97 -0.08 0.13 0.02 1928
0.04 0.51 0.71 -1.13 10.01 -0.08 0.13 0.01 1934
0.05 0.50 0.74 -1.03 9.92 -0.07 0.11 0.00 1940
0.02 0.50 0.74 -0.97 9.84 -0.06 0.09 -0.00 1946
0.02 0.48 0.84 -0.95 9.81 -0.06 0.06 -0.01 1953
0.03 0.50 0.87 -0.98 9.70 -0.04 0.00 -0.00 1959
0.04 0.49 0.89 -0.96 9.68 -0.02 0.01 0.00 1966
0.04 0.48 0.86 -0.93 9.75 0.00 -0.03 0.01 1972
0.03 0.48 0.84 -0.98 9.80 0.02 -0.07 0.00 1978
0.04 0.49 0.82 -0.99 9.86 0.04 -0.10 0.00 1984
0.04 0.47 0.83 -1.03 9.91 0.04 -0.13 -0.00 1990
0.04 0.48 0.78 -1.07 9.99 0.05 -0.14 -0.00 1996
0.04 0.48 0.74 -1.07 10.09 0.05 -0.15 0.00 2003
0.04 0.48 0.74 -1.09 10.09 0.05 -0.15 0.00 2010
0.03 0.48 0.72 -1.07 10.11 0.05 -0.14 0.00 2016
0.03 0.48 0.71 -1.11 10.14 0.03 -0.13 0.01 2022
0.04 0.46 0.69 -1.07 10.08 0.04 -0.11 0.01 2028
0.03 0.46 0.68 -1.12 10.13 0.03 -0.10 0.01 2035
0.03 0.48 0.67 -1.04 10.04 0.02 -0.10 0.01 2041
0.04 0.44 0.67 -1.13 10.03 0.02 -0.09 0.01 2048
0.04 0.39 0.67 -1.09 10.12 0.02 -0.08 0.01 2054
0.04 0.39 0.67 -1.09 10.07 0.02 -0.07 0.01 2060
0.04 0.38 0.71 -1.06 10.03 0.01 -0.07 0.01 2066
0.04 0.36 0.66 -1.09 10.08 0.01 -0.06 0.02 2073
0.04 0.33 0.66 -1.15 9.98 0.01 -0.05 0.01 2079
0.05 0.37 0.68 -1.13 10.00 0.01 -0.04 0.01 2085
0.04 0.32 0.62 -1.10 10.02 0.01 -0.04 0.01 2092
0.04 0.31 0.64 -1.14 10.02 0.00 -0.04 0.01 2098
0.05 0.30 0.65 -1.11 9.99 0.01 -0.04 0.01 2104
0.04 0.31 0.66 -1.12 9.97 0.00 -0.03 0.01 2111
0.02 0.33 0.65 -1.14 10.03 -0.00 -0.04 0.01 2117
0.05 0.31 0.64 -1.10 10.02 0.00 -0.04 0.01 2123
0.05 0.31 0.69 -1.12 10.00 0.00 -0.03 0.01 2129
0.04 0.29 0.69 -1.11 10.03 0.03 -0.04 0.01 2136
0.05 0.30 0.71 -1.11 10.01 0.00 -0.03 0.01 2142
0.05 0.31 0.66 -1.13 10.00 -0.00 -0.04 0.01 2149
0.04 0.30 0.65 -1.10 10.05 -0.00 -0.03 0.01 2155
0.05 0.28 0.66 -1.09 10.04 -0.00 -0.04 0.01 2161
0.05 0.29 0.67 -1.12 10.04 -0.00 -0.03 0.01 2167
0.04 0.27 0.68 -1.09 9.99 -0.01 -0.03 0.01 2173
0.04 0.29 0.65 -1.11 10.04 -0.01 -0.03 0.01 2181
0.04 0.28 0.67 -1.11 10.01 -0.00 -0.03 0.01 2187
0.04 0.26 0.64 -1.12 10.05 -0.00 -0.03 0.01 2193
0.04 0.27 0.66 -1.14 10.03 -0.01 -0.03 0.01 2199
0.04 0.30 0.67 -1.13 10.06 -0.01 -0.03 0.01 2205
0.04 0.28 0.71 -1.11 10.00 -0.01 -0.03 0.01 2211
0.04 0.30 0.68 -1.10 10.00 -0.01 -0.03 0.01 2219
0.04 0.30 0.68 -1.11 10.04 -0.01 -0.04 0.01 2225
0.04 0.28 0.63 -1.11 10.03 -0.01 -0.03 0.01 2231
0.05 0.30 0.67 -1.12 10.00 -0.00 -0.04 0.01 2237
0.05 0.30 0.64 -1.10 9.99 -0.01 -0.04 0.01 2243
0.04 0.29 0.66 -1.13 9.99 -0.01 -0.04 0.01 2249
0.04 0.29 0.65 -1.12 10.03 -0.01 -0.03 0.01 2256
0.06 0.29 0.64 -1.13 10.00 -0.02 -0.03 0.01 2263
0.04 0.31 0.66 -1.12 10.01 -0.02 -0.03 0.01 2269
0.05 0.31 0.66 -1.14 10.01 -0.02 -0.03 0.01 2275
0.06 0.30 0.63 -1.09 10.05 -0.03 -0.03 0.01 2281
0.04 0.31 0.65 -1.11 10.03 -0.02 -0.03 0.01 2288
0.04 0.30 0.64 -1.09 10.00 -0.02 -0.03 0.01 2294
0.05 0.31 0.67 -1.10 9.99 -0.02 -0.03 0.01 2300
0.04 0.32 0.65 -1.10 10.03 -0.02 -0.03 0.01 2307
0.04 0.33 0.64 -1.05 10.02 -0.02 -0.03 0.01 2313
0.06 0.33 0.63 -1.08 10.02 -0.03 -0.02 0.01 2319
0.04 0.35 0.64 -1.09 10.03 -0.04 -0.02 0.01 2326
0.04 0.37 0.64 -1.09 10.12 -0.04 -0.00 0.01 2332
0.05 0.40 0.64 -1.11 10.10 -0.04 0.01 0.01 2338
0.04 0.38 0.68 -1.08 10.04 -0.04 0.02 0.00 2344
0.04 0.40 0.63 -1.14 10.10 -0.05 0.03 0.00 2351
0.05 0.41 0.67 -1.14 10.12 -0.05 0.04 0.00 2358
0.05 0.41 0.64 -1.11 10.12 -0.06 0.06 -0.00 2364
0.04 0.44 0.64 -1.14 10.09 -0.06 0.10 -0.00 2370
0.07 0.44 0.64 -1.06 10.11 -0.07 0.08 -0.01 2376
0.05 0.45 0.65 -1.14 10.27 -0.08 0.09 -0.01 2382
0.05 0.45 0.55 -1.08 10.19 -0.09 0.12 -0.02 2390
0.06 0.50 0.28 -1.02 10.16 -0.09 0.14 -0.04 2396
0.04 0.51 0.49 -1.06 10.30 -0.10 0.15 -0.07 2402
0.04 0.50 0.53 -1.13 10.49 -0.15 0.17 -0.09 2408
0.06 0.54 0.80 -1.05 10.49 -0.17 0.20 -0.11 2414
0.05 0.54 0.85 -1.18 11.01 -0.25 0.17 -0.10 2421
0.05 0.50 1.04 -1.23 10.85 -0.33 0.19 -0.08 2427
0.05 0.55 1.19 -1.27 10.77 -0.38 0.22 -0.05 2434
0.04 0.53 1.18 -1.25 10.72 -0.43 0.24 -0.02 2440
0.04 0.58 1.14 -1.15 10.57 -0.48 0.25 0.01 2446
0.05 0.56 1.02 -1.08 10.54 -0.51 0.27 0.03 2453
0.03 0.58 0.95 -0.99 10.53 -0.54 0.28 0.04 2459
0.05 0.61 0.89 -0.89 10.48 -0.57 0.30 0.04 2465
0.04 0.51 0.85 -0.81 10.44 -0.59 0.31 0.04 2471
0.04 0.53 0.80 -0.80 10.40 -0.61 0.33 0.03 2478
0.06 0.55 0.76 -0.76 10.51 -0.62 0.34 0.02 2485
0.04 0.52 0.79 -0.70 10.52 -0.63 0.35 0.00 2491
0.03 0.49 0.79 -0.66 10.48 -0.66 0.36 -0.01 2497
0.05 0.47 0.93 -0.52 10.56 -0.68 0.38 -0.02 2503
0.04 0.43 0.98 -0.57 10.47 -0.70 0.37 -0.03 2509
0.04 0.46 1.01 -0.50 10.32 -0.70 0.36 -0.04 2516
0.06 0.37 1.25 -0.39 10.38 -0.71 0.35 -0.04 2523
0.04 0.37 1.13 -0.50 10.38 -0.72 0.34 -0.05 2529
0.04 0.33 1.26 -0.42 10.37 -0.73 0.34 -0.04 2535
0.05 0.34 1.23 -0.44 10.44 -0.73 0.33 -0.05 2541
0.04 0.26 1.28 -0.31 10.57 -0.74 0.31 -0.05 2548
0.05 0.26 1.22 -0.36 10.66 -0.75 0.30 -0.06 2554
0.04 0.23 1.20 -0.26 10.94 -0.76 0.30 -0.07 2561
0.04 0.22 1.25 -0.30 11.08 -0.79 0.30 -0.07 2567
0.06 0.20 1.19 -0.29 11.29 -0.83 0.30 -0.08 2574
0.05 0.17 1.11 -0.21 11.43 -0.87 0.30 -0.09 2580
0.05 0.16 1.16 -0.06 11.39 -0.92 0.30 -0.10 2586
0.06 0.14 1.09 -0.21 11.33 -0.97 0.30 -0.12 2592
0.05 0.10 1.15 -0.04 11.46 -1.01 0.31 -0.13 2598
0.05 0.09 1.15 -0.18 11.53 -1.05 0.31 -0.14 2606
0.07 0.09 1.01 0.03 11.38 -1.09 0.31 -0.16 2612
0.06 0.08 0.89 0.03 11.34 -1.13 0.31 -0.18 2618
0.04 0.07 0.77 0.00 11.25 -1.16 0.32 -0.21 2624
0.07 0.07 0.78 0.20 11.10 -1.19 0.33 -0.25 2630
0.06 0.04 0.81 0.39 10.84 -1.22 0.33 -0.29 2636
0.05 0.07 0.62 0.36 10.99 -1.24 0.33 -0.33 2643
0.05 0.02 0.51 0.22 11.01 -1.27 0.36 -0.36 2650
0.05 0.00 0.72 0.55 11.14 -1.29 0.38 -0.41 2656
0.04 0.00 0.59 0.26 10.80 -1.33 0.40 -0.46 2662
0.05 0.02 0.57 -0.42 10.53 -1.35 0.44 -0.52 2668
0.04 -0.00 0.08 -2.42 10.07 -1.36 0.51 -0.58 2675
0.05 0.01 0.01 -3.10 9.09 -1.32 0.57 -0.63 2681
0.06 0.01 -0.49 -4.46 7.91 -1.23 0.60 -0.69 2688
0.05 0.01 -0.99 -5.42 6.75 -1.08 0.59 -0.75 2694
0.05 0.02 -1.51 -5.91 6.33 -0.84 0.50 -0.82 2700
0.07 0.01 -1.23 -4.47 6.69 -0.50 0.30 -0.88 2706
0.05 0.01 -1.49 -4.79 6.18 -0.14 0.08 -0.91 2713
0.05 0.01 -1.31 -4.55 5.46 0.17 -0.13 -0.91 2719
0.06 0.01 -0.68 -4.14 5.74 0.44 -0.32 -0.89 2725
0.05 0.00 -0.23 -3.98 6.13 0.66 -0.47 -0.86 2732
0.05 0.00 0.32 -3.79 6.39 0.90 -0.55 -0.81 2738
0.05 0.01 0.79 -3.68 6.70 1.13 -0.60 -0.75 2744
0.06 0.00 1.11 -3.43 6.98 1.32 -0.60 -0.68 2751
0.05 -0.00 1.38 -3.26 7.58 1.46 -0.57 -0.59 2757
0.05 -0.00 1.34 -2.60 8.42 1.56 -0.52 -0.49 2763
0.06 -0.00 1.18 -2.40 8.73 1.61 -0.48 -0.39 2769
0.06 0.00 1.20 -2.13 9.01 1.60 -0.51 -0.29 2776
0.05 0.00 1.20 -1.60 9.41 1.58 -0.57 -0.20 2782
0.06 0.02 1.06 -1.24 9.64 1.53 -0.59 -0.11 2788
0.05 0.00 1.08 -0.97 10.07 1.45 -0.66 -0.02 2795
0.05 0.00 1.02 -0.76 10.35 1.37 -0.75 0.05 2801
0.06 0.01 0.94 -0.24 10.88 1.28 -0.81 0.10 2807
0.06 -0.00 1.18 -0.16 10.78 1.20 -0.81 0.16 2813
0.05 0.01 1.56 -0.11 10.53 1.12 -0.82 0.18 2820
0.06 0.01 1.44 0.08 10.99 1.05 -0.86 0.18 2827
0.06 -0.00 1.50 0.08 11.37 0.98 -0.87 0.16 2833
0.04 0.00 1.52 0.16 11.54 0.93 -0.89 0.11 2839
0.05 0.01 0.23 62.27 28.76 1.09 -0.99 -0.01 2845
0.05 -0.00 1.51 -13.60 7.29 0.35 -1.25 0.04 2851
0.04 0.00 3.16 -0.22 18.03 0.46 -1.31 0.03 2859
0.05 -0.00 3.25 1.94 11.90 0.62 -1.10 -0.09 2865
0.05 -0.01 3.29 1.94 8.46 0.60 -0.87 -0.23 2871
0.04 -0.00 4.10 1.81 9.89 0.58 -0.72 -0.28 2877
0.05 0.00 4.18 0.41 11.17 0.65 -0.49 -0.31 2883
0.06 -0.01 3.68 0.86 11.27 0.74 -0.27 -0.35 2889
0.05 -0.00 3.65 1.65 10.21 0.79 -0.15 -0.38 2895
0.05 -0.00 3.57 2.04 9.56 0.79 -0.11 -0.38 2903
0.06 -0.01 3.31 2.05 9.84 0.77 -0.10 -0.35 2909
0.05 -0.01 3.23 1.63 10.24 0.76 -0.10 -0.28 2915
0.04 -0.00 2.94 1.27 10.39 0.74 -0.11 -0.17 2921
0.05 -0.00 2.81 1.18 10.25 0.72 -0.13 -0.03 2927
0.05 -0.01 2.65 1.35 10.08 0.70 -0.17 0.12 2933
0.05 -0.00 2.53 1.53 9.20 0.68 -0.17 0.24 2939
0.05 -0.00 2.22 1.63 9.49 0.67 -0.15 0.37 2947
0.06 -0.01 2.01 1.51 9.24 0.67 -0.09 0.50 2953
0.05 -0.00 1.45 1.53 8.95 0.67 -0.02 0.59 2959
0.05 -0.01 1.04 1.58 8.39 0.68 0.03 0.66 2965
0.05 -0.01 0.56 1.63 7.79 0.67 0.06 0.71 2971
0.05 -0.00 -0.07 5.83 24.80 0.61 0.01 0.75 2977
0.05 -0.01 -4.66 11.36 11.56 -0.59 -1.44 1.07 2983
0.03 -0.00 9.82 10.36 16.76 -0.66 -0.37 1.36 2990
0.05 -0.00 10.69 5.96 2.26 -0.31 0.03 0.72 2997
0.04 0.03 4.36 5.22 14.89 -0.41 0.21 0.42 3003
0.03 0.10 -1.49 0.17 8.44 -0.62 0.43 0.20 3009
0.04 0.14 -1.95 1.63 6.06 -0.37 0.24 -0.11 3015
0.04 0.11 -0.46 0.62 4.55 -0.04 -0.06 -0.34 3021
0.04 0.12 0.67 0.45 5.53 0.31 -0.27 -0.46 3027
0.05 0.13 1.07 -0.70 5.98 0.70 -0.43 -0.52 3035
0.05 0.14 1.55 -4.35 22.92 0.34 -0.98 -0.27 3041
0.03 0.15 -0.00 -1.45 8.60 0.02 -0.08 0.09 3047
0.04 0.19 0.56 -1.80 10.34 -0.04 -0.09 0.01 3053
0.05 0.22 0.86 -0.57 9.47 -0.01 -0.06 0.04 3059
0.03 0.26 0.58 -1.04 10.37 0.00 -0.12 0.01 3065
0.03 0.30 0.67 -1.47 10.38 0.01 -0.10 0.01 3073
0.05 0.33 0.46 -1.44 10.56 0.00 -0.07 0.02 3079
0.04 0.31 0.47 -1.25 10.18 -0.01 -0.04 0.02 3085
0.03 0.35 0.56 -1.18 10.34 -0.03 -0.03 0.02 3091
0.04 0.34 0.53 -1.08 10.15 -0.03 -0.03 0.02 3097
0.03 0.33 0.62 -1.15 10.09 -0.03 -0.02 0.02 3104
0.03 0.33 0.60 -1.14 10.04 -0.04 -0.02 0.02 3110
0.05 0.32 0.66 -1.11 9.98 -0.05 -0.02 0.02 3117
0.04 0.31 0.68 -1.09 9.98 -0.04 -0.02 0.02 3123
0.03 0.30 0.68 -1.06 9.96 -0.03 -0.02 0.02 3129
0.03 0.31 0.70 -1.06 9.94 -0.03 -0.02 0.02 3135
0.03 0.29 0.70 -1.04 9.93 -0.03 -0.02 0.02 3141
0.04 0.27 0.66 -1.04 9.95 -0.02 -0.03 0.02 3148
0.03 0.29 0.70 -1.06 9.98 -0.02 -0.03 0.02 3154
0.04 0.29 0.70 -1.07 9.97 -0.01 -0.03 0.01 3161
0.04 0.28 0.70 -1.05 9.95 -0.01 -0.04 0.02 3167
0.03 0.27 0.65 -1.04 9.95 0.00 -0.04 0.02 3173
0.04 0.28 0.65 -1.08 9.95 0.01 -0.04 0.01 3179
0.05 0.27 0.63 -1.05 9.98 0.01 -0.05 0.02 3185
0.04 0.26 0.66 -1.08 9.98 0.01 -0.05 0.01 3192
0.04 0.27 0.61 -1.08 10.05 0.00 -0.04 0.01 3198
0.06 0.27 0.66 -1.09 10.08 0.01 -0.04 0.01 3205
0.04 0.28 0.66 -1.09 10.06 0.00 -0.04 0.01 3211
0.04 0.30 0.66 -1.11 10.05 0.00 -0.04 0.01 3217
0.04 0.31 0.63 -1.11 10.06 -0.00 -0.04 0.01 3223
0.04 0.30 0.63 -1.15 10.05 -0.00 -0.03 0.01 3230
0.03 0.31 0.61 -1.09 10.07 -0.01 -0.03 0.01 3236
0.05 0.32 0.62 -1.10 9.99 -0.01 -0.03 0.01 3243
0.04 0.31 0.61 -1.10 10.02 -0.01 -0.03 0.02 3249
0.03 0.31 0.60 -1.08 10.02 -0.02 -0.03 0.02 3255
0.03 0.33 0.64 -1.08 10.03 -0.02 -0.02 0.02 3261
0.03 0.32 0.67 -1.08 9.94 -0.02 -0.03 0.02 3268
0.04 0.31 0.67 -1.07 10.00 -0.02 -0.03 0.02 3274
0.03 0.32 0.66 -1.09 9.98 -0.02 -0.03 0.02 3280
0.05 0.31 0.63 -1.06 10.00 -0.02 -0.02 0.02 3287
0.03 0.31 0.61 -1.11 10.01 -0.02 -0.02 0.02 3293
0.04 0.33 0.65 -1.08 10.05 -0.02 -0.02 0.02 3299
0.04 0.33 0.64 -1.10 10.05 -0.03 -0.01 0.02 3306
0.02 0.33 0.68 -1.12 10.07 -0.04 -0.01 0.02 3312
0.01 0.34 0.68 -1.08 10.03 -0.04 -0.00 0.02 3318
0.02 0.33 0.70 -1.08 10.02 -0.04 -0.00 0.02 3324
0.01 0.35 0.65 -1.06 10.01 -0.04 -0.00 0.02 3331
0.02 0.33 0.66 -1.01 9.94 -0.00 -0.02 0.02 3337
0.02 0.33 0.69 -1.05 9.98 -0.03 -0.02 0.02 3344
0.02 0.32 0.68 -1.05 9.92 -0.02 -0.02 0.02 3350
0.01 0.31 0.67 -1.05 9.94 -0.02 -0.03 0.02 3356
0.02 0.32 0.68 -1.09 10.02 -0.01 -0.02 0.02 3362
0.02 0.33 0.69 -1.10 10.09 -0.02 -0.01 0.02 3368
0.01 0.34 0.68 -1.08 10.21 -0.04 0.01 0.03 3375
0.01 0.41 0.69 -1.06 10.11 -0.05 0.03 0.03 3382
0.01 0.41 0.66 -1.05 10.05 -0.05 0.04 0.02 3388
-0.00 0.39 0.68 -1.00 9.95 -0.04 0.02 0.02 3394
0.01 0.41 0.69 -1.00 9.95 -0.04 0.02 0.02 3400
0.02 0.45 0.68 -1.04 9.91 -0.03 0.01 0.02 3406
0.01 0.45 0.68 -1.00 9.96 -0.03 -0.00 0.01 3412
0.01 0.45 0.74 -1.08 10.01 -0.03 -0.01 0.02 3420
0.02 0.46 0.72 -1.05 10.10 -0.03 0.01 0.02 3426
0.01 0.44 0.71 -1.02 10.16 -0.04 0.02 0.02 3432
0.00 0.50 0.67 -1.04 10.10 -0.04 0.03 0.02 3438
0.02 0.51 0.71 -1.00 9.98 -0.05 0.03 0.02 3444
0.01 0.46 0.75 -1.00 9.94 -0.04 0.02 0.01 3450
0.00 0.48 0.68 -1.02 10.06 -0.04 0.02 0.01 3457
0.01 0.55 0.73 -1.08 10.25 -0.05 0.04 0.02 3464
0.01 0.62 0.66 -1.08 10.25 -0.08 0.08 0.02 3470
0.00 0.57 0.63 -1.08 10.34 -0.10 0.11 0.02 3476
0.01 0.58 0.69 -1.05 10.29 -0.13 0.16 0.02 3482
0.01 0.55 0.65 -1.07 10.29 -0.15 0.19 0.02 3488
-0.00 0.56 0.63 -0.95 10.27 -0.17 0.23 0.02 3495
0.01 0.62 0.69 -0.98 10.27 -0.19 0.26 0.01 3502
0.01 0.63 0.74 -1.02 10.32 -0.20 0.29 0.00 3508
0.01 0.60 0.85 -1.07 10.44 -0.22 0.29 -0.00 3514
0.02 0.63 0.95 -1.05 10.48 -0.26 0.29 -0.00 3520
0.02 0.67 1.01 -1.02 10.22 -0.28 0.31 0.00 3527
0.02 0.67 1.09 -0.95 10.07 -0.30 0.31 0.02 3533
0.03 0.69 1.16 -0.87 9.83 -0.30 0.29 0.03 3539
0.02 0.71 1.23 -0.86 9.73 -0.28 0.26 0.03 3546
0.01 0.72 1.26 -0.81 9.74 -0.27 0.23 0.05 3552
0.01 0.76 1.28 -0.83 9.87 -0.26 0.20 0.06 3558
0.03 0.76 1.23 -0.82 9.86 -0.26 0.17 0.07 3565
0.01 0.74 1.08 -0.70 10.41 -0.25 0.15 0.07 3571
0.02 0.74 1.07 -0.68 9.82 -0.24 0.13 0.06 3577
0.03 0.79 0.98 -0.68 9.80 -0.23 0.12 0.05 3584
0.03 0.71 0.94 -0.59 9.80 -0.22 0.11 0.04 3590
0.02 0.82 0.95 -0.64 9.92 -0.21 0.12 0.03 3596
0.03 0.82 1.01 -0.69 10.22 -0.22 0.13 0.03 3603
0.03 0.76 1.06 -0.70 10.58 -0.24 0.15 0.02 3609
0.03 0.85 1.20 -0.80 10.84 -0.30 0.20 0.02 3615
0.03 0.88 1.35 -0.88 11.24 -0.38 0.24 0.04 3621
0.03 0.87 1.42 -0.92 11.40 -0.48 0.30 0.06 3628
0.03 0.91 1.37 -0.75 10.86 -0.57 0.35 0.08 3635
0.03 0.96 1.25 -0.58 10.39 -0.63 0.38 0.09 3641
0.02 0.95 1.17 -0.41 9.98 -0.65 0.39 0.09 3647
0.02 0.96 0.97 -0.22 9.49 -0.63 0.37 0.07 3653
0.01 0.94 0.92 -0.05 9.01 -0.57 0.34 0.04 3659
-0.00 0.96 1.01 0.03 8.65 -0.48 0.31 0.01 3665
-0.00 0.97 1.10 0.07 8.57 -0.38 0.29 -0.02 3673
0.01 1.02 1.36 -0.06 9.15 -0.31 0.27 -0.03 3679
0.01 0.98 1.57 -0.26 9.60 -0.25 0.27 -0.03 3685
-0.01 1.05 1.65 -0.26 9.70 -0.23 0.23 -0.02 3691
-0.00 1.16 1.75 -0.19 9.52 -0.20 0.19 -0.02 3697
0.01 1.15 1.75 -0.14 9.24 -0.15 0.14 -0.01 3703
-0.00 1.18 1.61 -0.01 9.17 -0.09 0.09 -0.01 3710
0.01 1.20 1.57 0.00 9.22 -0.02 0.04 -0.01 3717
0.02 1.18 1.47 -0.02 9.30 0.05 -0.00 -0.02 3723
0.01 1.24 1.44 -0.13 9.66 0.08 -0.02 -0.02 3729
0.00 1.27 1.54 -0.30 9.96 0.10 -0.02 -0.02 3735
0.02 1.26 1.50 -0.26 9.94 0.10 -0.03 -0.02 3741
0.02 1.26 1.44 -0.15 9.47 0.12 -0.04 -0.03 3747
0.01 1.30 1.52 -0.05 9.09 0.18 -0.06 -0.03 3755
0.00 1.31 1.62 -0.06 9.02 0.25 -0.08 -0.03 3761
-0.01 1.28 1.63 -0.23 9.33 0.33 -0.09 -0.02 3767
0.01 1.30 1.53 -0.27 9.57 0.39 -0.12 -0.02 3773
0.00 1.35 1.46 -0.18 9.56 0.44 -0.15 -0.03 3779
0.01 1.30 1.38 -0.23 9.64 0.48 -0.19 -0.05 3785
-0.00 1.32 1.37 -0.40 9.90 0.51 -0.22 -0.07 3791
-0.00 1.35 1.41 -0.52 10.04 0.54 -0.24 -0.08 3799
0.01 1.38 1.44 -0.02 9.80 0.55 -0.26 -0.09 3805
0.00 1.41 1.51 -0.43 9.84 0.58 -0.30 -0.13 3811
-0.01 1.39 1.37 -0.57 10.19 0.59 -0.38 -0.11 3817
0.01 1.41 1.32 -0.94 11.77 0.54 -0.48 -0.11 3823
-0.01 1.44 1.73 -0.98 10.77 0.43 -0.48 -0.09 3830
-0.01 1.46 1.22 -0.85 10.92 0.37 -0.52 -0.07 3836
-0.00 1.45 1.13 -0.73 10.15 0.32 -0.57 -0.07 3843
-0.01 1.41 1.15 -0.76 10.18 0.31 -0.58 -0.07 3849
-0.00 1.43 1.15 -0.81 10.15 0.24 -0.56 -0.07 3856
-0.00 1.45 1.17 -0.88 10.24 0.20 -0.51 -0.06 3862
-0.00 1.41 1.03 -0.88 10.13 0.17 -0.47 -0.04 3868
0.00 1.38 1.07 -0.81 10.05 0.16 -0.43 -0.04 3874
0.00 1.37 0.98 -0.85 10.11 0.16 -0.41 -0.03 3880
0.01 1.36 0.93 -0.86 10.07 0.15 -0.37 -0.02 3888
0.01 1.41 0.89 -0.85 10.08 0.13 -0.33 -0.01 3894
0.00 1.37 0.78 -0.88 10.13 0.12 -0.28 0.00 3900
0.00 1.40 0.75 -0.90 10.07 0.09 -0.24 0.02 3906
0.01 1.39 0.74 -0.83 10.09 0.07 -0.20 0.02 3912
-0.01 1.39 0.77 -0.84 10.08 0.05 -0.15 0.03 3919
-0.01 1.37 0.76 -0.84 10.13 0.03 -0.11 0.04 3926
0.01 1.38 0.80 -0.79 9.97 0.02 -0.09 0.04 3932
-0.01 1.36 0.82 -0.82 9.99 0.02 -0.08 0.04 3938
-0.01 1.37 0.72 -0.91 10.11 0.01 -0.06 0.04 3944
0.01 1.36 0.74 -0.74 10.03 -0.00 -0.03 0.05 3950
0.00 1.35 0.85 -0.80 9.88 -0.00 -0.03 0.05 3957
-0.00 1.34 0.77 -0.79 9.84 0.01 -0.05 0.05 3963
0.00 1.34 0.86 -0.78 9.85 0.02 -0.07 0.04 3970
0.01 1.30 0.84 -0.78 9.96 0.03 -0.09 0.05 3976
0.02 1.28 0.78 -0.68 9.95 0.04 -0.10 0.05 3982
0.03 1.29 0.73 -0.82 9.91 0.04 -0.09 0.04 3988
0.04 1.29 0.78 -0.78 9.95 0.04 -0.09 0.04 3994
0.03 1.28 0.83 -0.76 9.89 0.04 -0.09 0.04 4001
0.03 1.26 0.77 -0.81 9.94 0.04 -0.10 0.04 4007
0.04 1.26 0.79 -0.78 9.89 0.04 -0.11 0.03 4014
0.04 1.24 0.80 -0.86 9.96 0.04 -0.10 0.05 4020
0.04 1.24 0.77 -0.77 9.98 0.04 -0.09 0.05 4026
0.04 1.21 0.68 -0.80 9.92 0.03 -0.08 0.05 4032
0.05 1.21 0.74 -0.83 9.91 0.04 -0.07 0.05 4038
0.04 1.21 0.77 -0.80 9.91 0.04 -0.08 0.06 4045
0.04 1.19 0.76 -0.82 9.90 0.05 -0.09 0.05 4051
0.04 1.14 0.75 -0.77 9.94 0.06 -0.10 0.06 4058
0.04 1.12 0.76 -0.81 9.95 0.05 -0.09 0.06 4064
0.03 1.12 0.73 -0.86 9.97 0.05 -0.09 0.06 4070
0.03 1.11 0.72 -0.83 9.93 0.05 -0.09 0.07 4076
0.04 1.11 0.73 -0.83 9.97 0.04 -0.09 0.07 4082
0.04 1.08 0.73 -0.85 9.94 0.04 -0.09 0.03 4089
0.04 1.08 0.66 -0.85 9.97 0.03 -0.08 0.07 4096
0.04 1.07 0.66 -0.85 9.98 0.02 -0.06 0.07 4102
0.03 1.07 0.68 -0.87 9.95 0.02 -0.06 0.07 4108
0.03 1.07 0.70 -0.84 9.94 0.01 -0.06 0.07 4114
0.03 1.07 0.71 -0.84 9.92 0.01 -0.06 0.06 4120
0.03 1.07 0.68 -0.85 9.95 0.01 -0.06 0.06 4126
0.01 1.03 0.69 -0.91 9.98 0.01 -0.05 0.06 4133
0.02 1.04 0.67 -0.91 9.98 0.00 -0.06 0.06 4140
0.02 1.06 0.74 -0.86 9.97 -0.00 -0.05 0.07 4146
0.02 1.02 0.67 -0.88 9.95 -0.00 -0.05 0.07 4152
0.02 1.04 0.69 -0.83 9.94 0.00 -0.06 0.06 4158
0.01 1.04 0.71 -0.82 9.90 0.01 -0.06 0.07 4164
0.03 1.05 0.70 -0.82 9.90 0.01 -0.07 0.06 4170
0.02 1.02 0.71 -0.85 9.89 0.01 -0.08 0.06 4176
0.01 1.02 0.74 -0.80 9.90 0.02 -0.09 0.06 4184
0.02 1.01 0.69 -0.82 9.92 0.02 -0.10 0.06 4190
0.02 1.00 0.68 -0.84 9.96 0.03 -0.10 0.06 4196
0.02 0.98 0.68 -0.84 9.95 0.03 -0.09 0.06 4202
0.01 0.99 0.65 -0.87 9.99 0.03 -0.08 0.06 4208
0.02 0.96 0.59 -0.91 9.95 0.02 -0.08 0.07 4214
0.02 0.98 0.01 -0.94 9.94 0.02 -0.07 0.06 4220
0.02 0.94 0.61 -0.89 9.96 0.02 -0.06 0.07 4228
0.04 0.90 0.58 -0.89 9.91 0.02 -0.05 0.07 4234
0.03 0.88 0.62 -0.92 9.95 0.01 -0.04 0.07 4240
0.03 0.89 0.69 -0.90 9.95 0.01 -0.04 0.08 4246
0.03 0.88 0.63 -0.91 9.94 0.01 -0.04 0.08 4252
0.04 0.90 0.64 -0.87 9.92 0.01 -0.04 0.07 4258
0.03 0.89 0.64 -0.91 10.04 0.00 -0.04 0.08 4264
0.03 0.90 0.65 -0.89 9.98 0.00 -0.04 0.07 4271
0.04 0.91 0.64 -0.91 9.92 -0.00 -0.04 0.07 4278
0.04 0.91 0.66 -0.90 9.96 0.00 -0.03 0.07 4284
0.04 0.89 0.60 -0.93 9.94 0.00 -0.03 0.06 4290
0.04 0.90 0.63 -0.90 9.94 0.00 -0.03 0.07 4296
0.04 0.91 0.66 -0.87 9.94 -0.00 -0.03 0.07 4302
0.05 0.90 0.66 -0.91 9.96 0.00 -0.03 0.07 4308
0.06 0.88 0.66 -0.89 9.90 -0.00 -0.03 0.06 4315
0.04 0.90 0.64 -0.86 9.98 -0.00 -0.03 0.06 4321
0.05 0.88 0.66 -0.88 9.91 0.00 -0.03 0.07 4328
0.04 0.87 0.68 -0.90 9.95 -0.00 -0.03 0.06 4334
0.03 0.86 0.68 -0.86 9.95 -0.00 -0.03 0.06 4340
0.02 0.86 0.65 -0.89 9.95 0.00 -0.03 0.06 4346
0.03 0.81 0.64 -0.92 9.96 0.00 -0.03 0.06 4353
0.02 0.80 0.66 -0.94 9.92 -0.00 -0.03 0.06 4359
0.02 0.80 0.64 -0.87 9.96 -0.00 -0.03 0.06 4365
0.02 0.79 0.63 -0.91 9.96 -0.00 -0.03 0.06 4371
0.03 0.78 0.63 -0.94 10.00 -0.00 -0.02 0.06 4378
0.03 0.79 0.63 -0.89 9.95 0.00 -0.02 0.07 4384
0.03 0.79 0.64 -0.91 9.96 0.00 -0.01 0.06 4390
0.04 0.75 0.67 -0.87 9.92 0.00 -0.01 0.07 4397
0.03 0.73 0.67 -0.89 9.92 0.00 -0.01 0.06 4403
0.03 0.70 0.65 -0.89 9.92 -0.00 -0.01 0.07 4409
0.03 0.71 0.66 -0.89 9.90 -0.00 -0.01 0.07 4415
0.04 0.68 0.67 -0.90 9.94 -0.00 -0.01 0.07 4422
0.03 0.64 0.68 -0.93 9.97 0.00 -0.01 0.03 4428
0.03 0.66 0.69 -0.90 9.97 0.00 -0.01 0.07 4434
0.04 0.67 0.68 -0.92 9.94 0.00 -0.01 0.07 4441
0.03 0.64 0.68 -0.90 9.92 0.00 -0.01 0.07 4447
0.03 0.60 0.67 -0.89 9.95 0.00 -0.01 0.06 4453
0.02 0.64 0.66 -0.89 9.95 0.00 -0.01 0.07 4459
0.03 0.62 0.67 -0.86 9.94 0.01 -0.01 0.07 4465
0.02 0.57 0.70 -0.90 9.92 0.00 -0.02 0.06 4472
0.02 0.56 0.69 -0.96 9.92 -0.00 -0.02 0.06 4478
0.03 0.58 0.66 -0.93 9.95 -0.01 -0.02 0.07 4485
0.03 0.59 0.65 -0.94 9.90 -0.01 -0.02 0.07 4491
0.03 0.59 0.72 -0.89 9.93 -0.01 -0.02 0.07 4497
0.03 0.62 0.69 -0.85 9.93 -0.01 -0.02 0.07 4503
0.04 0.62 0.65 -0.92 9.94 -0.01 -0.03 0.07 4509
0.04 0.62 0.69 -0.91 9.97 -0.01 -0.03 0.07 4516
0.02 0.62 0.69 -0.92 9.91 -0.01 -0.04 0.07 4523
0.03 0.64 0.71 -0.87 9.94 -0.01 -0.03 0.07 4529
0.03 0.63 0.69 -0.86 9.92 -0.01 -0.03 0.07 4535
0.04 0.61 0.66 -0.81 9.88 -0.01 -0.03 0.07 4541
0.02 0.61 0.71 -0.82 9.86 -0.00 -0.04 0.07 4547
0.03 0.61 0.75 -0.86 9.91 -0.01 -0.05 0.07 4553
0.08 0.61 0.68 -0.87 9.88 -0.01 -0.06 0.07 4560
0.04 0.57 0.66 -0.88 9.89 -0.01 -0.06 0.07 4567
0.08 0.58 0.66 -0.89 9.95 -0.01 -0.06 0.07 4573
0.11 0.56 0.62 -0.91 9.99 -0.01 -0.05 0.08 4579
0.08 0.58 0.62 -0.88 9.96 -0.00 -0.04 0.08 4585
0.08 0.57 0.59 -0.91 9.95 -0.01 -0.03 0.08 4591
0.08 0.57 0.64 -0.87 9.99 -0.00 -0.03 0.09 4597
0.06 0.50 0.61 -0.88 9.95 0.00 -0.02 0.08 4603
0.05 0.54 0.67 -0.85 9.96 0.00 -0.02 0.08 4611
0.07 0.48 0.64 -0.84 9.95 0.01 -0.02 0.08 4617
0.07 0.48 0.66 -0.84 10.02 0.02 -0.02 0.08 4623
0.09 0.38 0.66 -0.91 9.95 0.02 -0.02 0.08 4629
0.10 0.38 0.67 -0.84 9.90 0.02 -0.02 0.08 4635
0.11 0.33 0.68 -0.88 9.93 0.02 -0.02 0.07 4641
0.10 0.31 0.65 -0.91 9.91 0.02 -0.03 0.07 4647
0.13 0.29 0.68 -0.92 9.86 0.01 -0.03 0.07 4655
0.14 0.29 0.67 -0.88 9.84 0.01 -0.03 0.07 4661
0.19 0.28 0.67 -0.86 9.82 0.00 -0.03 0.07 4667
0.17 0.26 0.66 -0.87 9.86 -0.00 -0.03 0.07 4673
0.20 0.26 0.65 -0.90 9.92 -0.00 -0.03 0.08 4679
0.18 0.25 0.68 -0.92 9.96 -0.00 -0.04 0.07 4685
0.16 0.23 0.66 -0.88 9.99 -0.01 -0.04 0.07 4691
0.17 0.24 0.65 -0.90 9.90 -0.01 -0.05 0.08 4699
0.19 0.24 0.64 -0.90 9.92 -0.01 -0.05 0.07 4705
0.18 0.24 0.69 -0.90 9.94 -0.01 -0.05 0.08 4711
0.20 0.21 0.67 -0.93 9.93 -0.01 -0.05 0.07 4717
0.19 0.21 0.63 -0.87 9.92 -0.01 -0.06 0.07 4723
0.19 0.23 0.70 -0.87 9.92 -0.01 -0.05 0.08 4729
0.19 0.19 0.67 -0.91 9.95 -0.01 -0.06 0.08 4736
0.19 0.21 0.60 -0.89 9.95 -0.01 -0.06 0.07 4743
0.21 0.22 0.65 -0.90 9.94 -0.01 -0.06 0.07 4749
0.20 0.22 0.65 -0.92 9.94 -0.01 -0.06 0.07 4755
0.21 0.18 0.65 -0.90 9.91 -0.01 -0.06 0.08 4761
0.20 0.19 0.66 -0.92 9.90 -0.01 -0.06 0.07 4767
0.22 0.19 0.64 -0.93 9.89 -0.01 -0.06 0.07 4773
0.21 0.19 0.67 -0.86 9.91 -0.01 -0.06 0.08 4780
0.24 0.19 0.68 -0.93 9.92 -0.02 -0.06 0.07 4787
0.29 0.19 0.64 -0.89 9.91 -0.02 -0.06 0.07 4793
0.29 0.19 0.61 -0.87 9.95 -0.02 -0.06 0.07 4799
0.27 0.20 0.65 -0.89 9.96 -0.02 -0.06 0.07 4805
0.29 0.23 0.66 -0.90 9.95 -0.02 -0.06 0.07 4811
0.29 0.22 0.66 -0.90 9.96 -0.02 -0.05 0.07 4817
0.30 0.22 0.61 -0.86 9.92 -0.02 -0.05 0.07 4825
0.28 0.23 0.63 -0.88 9.96 -0.02 -0.05 0.07 4831
0.30 0.24 0.63 -0.91 9.97 -0.02 -0.04 0.07 4837
0.30 0.25 0.66 -0.92 9.96 -0.01 -0.04 0.07 4843
0.29 0.26 0.63 -0.89 9.96 -0.01 -0.04 0.07 4849
0.28 0.28 0.64 -0.87 9.95 -0.02 -0.04 0.06 4855
0.27 0.28 0.67 -0.89 9.94 -0.02 -0.04 0.07 4861
0.27 0.31 0.65 -0.90 9.95 -0.01 -0.04 0.08 4869
0.27 0.32 0.64 -0.89 9.90 -0.02 -0.04 0.07 4875
0.27 0.31 0.67 -0.90 9.88 -0.02 -0.04 0.07 4881
0.27 0.32 0.67 -0.87 9.95 -0.02 -0.04 0.07 4887
0.27 0.33 0.63 -0.88 9.95 -0.02 -0.04 0.08 4893
0.28 0.35 0.66 -0.91 9.92 -0.02 -0.04 0.07 4899
0.25 0.41 0.69 -0.88 9.97 -0.02 -0.04 0.07 4905
0.24 0.40 0.64 -0.88 9.98 -0.02 -0.04 0.08 4913
0.24 0.43 0.66 -0.89 9.99 -0.02 -0.04 0.07 4919
0.25 0.43 0.63 -0.87 9.98 -0.02 -0.04 0.07 4925
0.23 0.48 0.65 -0.88 9.94 -0.02 -0.04 0.08 4931
0.22 0.51 0.63 -0.86 9.98 -0.02 -0.04 0.07 4937
0.23 0.53 0.64 -0.87 9.93 -0.02 -0.04 0.08 4943
0.20 0.53 0.63 -0.87 9.96 -0.02 -0.04 0.08 4951
0.20 0.54 0.66 -0.90 9.97 -0.01 -0.04 0.08 4957
0.19 0.56 0.67 -0.89 9.94 -0.01 -0.04 0.08 4963
0.16 0.61 0.66 -0.87 9.97 -0.02 -0.04 0.08 4969
0.16 0.63 0.64 -0.85 9.92 -0.02 -0.04 0.08 4975
0.17 0.66 0.68 -0.86 9.97 -0.02 -0.04 0.08 4981
0.15 0.69 0.66 -0.87 9.93 -0.02 -0.04 0.09 4987
0.13 0.68 0.62 -0.86 9.95 -0.02 -0.04 0.08 4995
0.12 0.76 0.64 -0.90 9.98 -0.02 -0.04 0.08 5001
0.13 0.76 0.63 -0.87 9.91 -0.01 -0.04 0.09 5007
0.13 0.72 0.60 -0.89 9.95 -0.01 -0.04 0.09 5013
0.11 0.77 0.65 -0.86 9.97 -0.01 -0.04 0.09 5019
0.12 0.77 0.62 -0.87 9.96 -0.01 -0.04 0.08 5025
0.12 0.88 0.64 -0.88 9.94 -0.01 -0.04 0.09 5031
0.09 0.85 0.64 -0.87 10.03 -0.01 -0.04 0.09 5039
0.10 0.82 1.22 -0.84 9.92 -0.01 -0.04 0.09 5045
0.10 0.82 0.65 -0.85 9.97 -0.01 -0.04 0.09 5051
0.09 0.82 0.61 -0.80 9.96 -0.01 -0.04 0.09 5057
0.08 0.87 0.61 -0.89 9.96 -0.01 -0.04 0.09 5063
0.09 0.90 0.64 -0.85 9.94 0.00 -0.04 0.08 5069
0.06 0.95 0.65 -0.83 9.96 -0.00 -0.04 0.09 5075
0.07 0.95 0.63 -0.86 9.94 0.00 -0.04 0.08 5083
0.06 0.93 0.62 -0.82 9.96 0.00 -0.04 0.08 5089
0.05 0.94 0.04 -0.88 10.04 0.01 -0.04 0.08 5095
0.04 0.92 0.63 -0.87 10.04 0.01 -0.04 0.08 5101
0.05 0.90 0.69 -0.87 10.00 0.02 -0.05 0.08 5107
0.05 0.88 0.63 -0.90 9.97 0.03 -0.05 0.08 5113
0.04 0.88 0.65 -0.86 10.01 0.03 -0.06 0.08 5121
0.03 0.89 0.63 -0.86 9.99 0.03 -0.06 0.08 5127
0.05 0.87 0.63 -0.88 9.98 0.03 -0.06 0.08 5133
0.06 0.83 0.60 -0.88 10.03 0.04 -0.07 0.07 5139
0.05 0.79 0.64 -0.94 9.95 0.04 -0.07 0.07 5145
0.05 0.77 0.59 -0.97 9.96 0.04 -0.07 0.07 5151
0.04 0.74 0.64 -0.96 9.95 0.03 -0.07 0.07 5157
0.05 0.69 0.63 -0.95 9.97 0.04 -0.07 0.07 5165
0.03 0.67 0.64 -0.90 10.03 0.04 -0.08 0.07 5171
0.03 0.67 0.64 -1.02 10.01 0.03 -0.09 0.06 5177
0.04 0.58 0.63 -1.00 9.99 0.03 -0.09 0.06 5183
0.02 0.53 0.73 -0.96 10.02 0.04 -0.11 0.05 5189
0.04 0.48 0.57 -1.17 10.08 0.05 -0.11 0.05 5195
0.05 0.39 0.64 -1.18 10.09 0.05 -0.12 0.03 5202
0.02 0.31 0.74 -1.07 10.03 0.06 -0.12 0.02 5209
0.03 0.26 0.61 -1.21 10.16 0.07 -0.12 0.02 5215
0.04 0.23 0.72 -1.37 10.24 0.06 -0.12 0.01 5221
0.04 0.18 0.51 -1.32 10.32 0.05 -0.12 -0.00 5227
0.05 0.16 0.60 -1.50 10.28 0.05 -0.09 -0.02 5234
0.05 0.13 0.61 -1.30 10.26 0.02 -0.05 -0.02 5240
0.04 0.09 0.28 -1.44 11.11 0.00 0.05 -0.04 5246
0.06 0.10 0.08 -1.93 11.07 -0.05 0.22 -0.05 5253
0.05 0.02 0.62 -1.51 13.28 -0.18 0.25 -0.08 5259
0.05 0.03 0.79 -3.35 12.19 -0.44 0.25 -0.12 5266
0.05 -0.00 0.56 -3.09 11.45 -0.56 0.27 -0.17 5272
0.05 -0.00 1.50 -4.13 11.15 -0.64 0.22 -0.24 5278
0.05 0.01 1.67 -4.71 10.75 -0.68 0.11 -0.35 5284
0.06 -0.01 1.40 -4.91 9.19 -0.68 0.01 -0.46 5291
0.06 -0.00 1.60 -5.34 8.20 -0.65 0.03 -0.58 5297
0.06 0.01 1.94 -5.49 7.84 -0.57 0.08 -0.67 5304
0.08 0.01 2.03 -5.62 7.65 -0.48 0.17 -0.73 5310
0.06 0.01 1.34 -5.73 8.61 -0.38 0.31 -0.80 5316
0.05 0.00 0.82 -5.52 9.28 -0.17 0.37 -0.76 5322
0.07 0.01 0.01 -5.64 10.15 0.05 0.38 -0.67 5328
0.07 0.00 -0.48 -5.18 9.71 0.23 0.29 -0.57 5335
0.06 -0.01 -0.70 -4.34 9.16 0.33 0.10 -0.45 5341
0.07 -0.01 -1.17 -3.54 8.91 0.35 -0.17 -0.33 5348
0.07 -0.01 -1.00 -3.34 9.43 0.32 -0.41 -0.20 5354
0.06 -0.01 -0.46 -3.39 9.69 0.27 -0.59 -0.08 5360
0.05 0.00 0.27 -3.40 10.31 0.23 -0.71 0.01 5366
0.06 0.02 0.59 -3.45 9.86 0.20 -0.76 0.09 5372
0.06 -0.01 1.31 -3.56 9.61 0.17 -0.74 0.14 5379
0.06 -0.01 1.39 -3.24 9.44 0.17 -0.66 0.15 5385
0.05 -0.00 1.49 -3.34 9.37 0.20 -0.57 0.13 5391
0.07 -0.00 1.68 -3.30 9.36 0.18 -0.39 0.10 5398
0.06 -0.01 1.82 -3.20 9.28 0.22 -0.23 0.05 5404
0.06 -0.01 1.66 -3.06 9.46 0.23 -0.12 -0.03 5410
0.06 0.00 1.46 -2.77 9.57 0.21 0.03 -0.05 5416
0.06 -0.01 1.33 -2.56 9.91 0.18 0.16 -0.07 5423
0.05 0.00 1.08 -2.43 10.14 0.14 0.22 -0.09 5429
0.05 0.00 0.95 -2.28 9.98 0.10 0.26 -0.09 5435
0.05 0.00 0.71 -2.23 9.81 0.10 0.29 -0.07 5442
0.05 -0.00 0.60 -2.10 9.56 0.12 0.27 -0.04 5448
0.06 -0.01 0.23 -1.88 9.26 0.16 0.23 -0.01 5454
0.05 -0.00 -12.70 24.98 21.90 0.21 0.29 0.22 5460
0.06 -0.01 6.52 -9.01 9.39 0.02 -0.45 0.33 5467
0.05 -0.00 1.54 -1.48 11.79 0.14 -0.69 0.19 5473
0.05 -0.00 2.08 -1.13 10.26 0.33 -0.32 0.22 5480
0.07 -0.00 2.38 -1.34 8.29 0.30 -0.01 0.20 5486
0.06 -0.01 2.17 -0.72 9.41 0.22 0.19 0.16 5492
0.05 -0.01 1.61 -0.68 10.58 0.15 0.33 0.13 5498
0.07 0.01 1.34 -0.74 11.13 0.09 0.45 0.12 5505
0.06 -0.01 1.08 -0.57 10.92 0.05 0.49 0.14 5511
0.04 -0.00 0.18 1.20 11.52 0.00 0.44 0.19 5517
0.05 -0.00 5.26 -2.75 9.74 -0.09 0.21 0.30 5523
0.07 -0.00 0.64 -0.01 10.24 -0.08 -0.06 0.26 5530
0.05 -0.01 0.87 -0.16 9.58 -0.00 -0.09 0.27 5536
0.05 -0.00 1.29 -0.19 8.96 0.04 -0.09 0.27 5542
0.05 -0.00 1.24 0.08 9.13 0.10 -0.10 0.25 5549
0.05 -0.01 1.10 0.40 8.81 0.16 -0.04 0.25 5555
0.05 -0.00 1.09 0.92 8.72 0.21 0.06 0.27 5561
0.04 -0.00 0.96 1.21 8.92 0.25 0.15 0.29 5567
0.04 -0.00 0.70 1.41 8.94 0.29 0.19 0.31 5573
0.06 -0.01 0.51 1.66 9.07 0.32 0.19 0.33 5579
0.05 0.00 0.45 1.88 9.02 0.33 0.15 0.35 5585
0.04 -0.00 0.47 1.96 8.86 0.35 0.12 0.37 5593
0.05 -0.00 0.66 2.04 8.63 0.36 0.08 0.38 5599
0.05 -0.00 0.81 1.96 8.50 0.38 0.05 0.39 5605
0.05 -0.01 1.01 1.89 8.38 0.41 0.03 0.38 5611
0.05 -0.00 1.94 1.08 8.65 0.46 -0.07 0.46 5617
0.05 -0.00 -4.75 16.70 24.80 0.27 -0.54 0.38 5623
0.06 -0.00 -7.19 15.17 10.19 -0.74 -1.26 0.42 5629
0.04 -0.00 0.46 6.60 14.28 -0.82 -0.22 0.49 5637
0.04 -0.00 2.85 5.02 9.77 -0.88 0.07 0.33 5643
0.05 -0.01 1.04 2.05 13.57 -0.81 -0.02 0.06 5649
0.05 -0.00 -2.32 -1.21 16.18 -0.24 -0.28 -0.12 5655
0.05 -0.00 1.31 -3.57 9.42 0.03 -0.11 -0.04 5661
0.06 -0.00 1.03 -1.43 10.13 -0.08 -0.14 -0.02 5667
0.06 0.01 0.38 -1.21 9.97 -0.11 -0.11 0.02 5673
0.04 0.02 0.58 -1.09 10.13 -0.13 -0.06 0.03 5681
0.04 0.17 0.55 -1.17 10.24 -0.13 -0.06 0.03 5687
0.05 0.19 0.50 -1.19 10.36 -0.12 -0.02 0.02 5693
0.05 0.26 0.59 -1.09 10.24 -0.09 -0.03 0.02 5699
0.04 0.28 0.67 -1.07 10.21 -0.06 -0.00 0.02 5705
0.06 0.29 0.68 -0.98 10.14 -0.04 -0.00 0.07 5712
0.05 0.28 0.65 -0.93 10.06 -0.02 -0.01 0.04 5719
0.05 0.32 0.57 -0.92 10.04 -0.01 -0.01 0.04 5725
0.05 0.32 0.60 -1.02 10.05 -0.01 -0.01 0.04 5731
0.05 0.29 0.62 -1.04 9.99 -0.01 -0.01 0.04 5737
0.06 0.27 0.67 -1.00 9.95 -0.01 -0.01 0.04 5743
0.07 0.31 0.64 -1.01 9.93 -0.01 -0.01 0.05 5749
0.05 0.34 0.67 -1.01 9.97 -0.01 -0.01 0.05 5756
0.04 0.32 0.70 -0.99 9.98 -0.02 -0.01 0.05 5763
0.04 0.36 0.63 -1.01 9.96 -0.02 -0.01 0.05 5769
0.04 0.38 0.65 -0.97 9.95 -0.03 -0.01 0.05 5775
0.04 0.35 0.65 -1.02 9.94 -0.03 -0.01 0.04 5781
0.05 0.37 0.69 -0.97 9.96 -0.03 -0.01 0.04 5787
0.06 0.41 0.69 -0.98 9.99 -0.03 -0.01 0.05 5793
0.04 0.42 0.65 -0.92 10.01 -0.03 -0.02 0.05 5800
0.03 0.43 0.63 -0.98 9.97 -0.03 -0.02 0.05 5807
0.04 0.46 0.64 -0.91 9.88 -0.03 -0.02 0.05 5813
0.04 0.48 0.62 -0.94 9.91 -0.03 -0.01 0.05 5819
0.04 0.53 0.63 -0.94 9.92 -0.03 -0.01 0.04 5825
0.05 0.58 0.66 -0.97 9.95 -0.03 -0.02 0.04 5831
0.05 0.53 0.64 -0.93 9.99 -0.03 -0.02 0.05 5837
0.04 0.54 0.61 -0.99 10.00 -0.03 -0.02 0.05 5844
0.04 0.56 0.65 -0.99 9.94 -0.03 -0.02 0.05 5851
0.03 0.52 0.62 -0.95 10.02 -0.03 -0.03 0.06 5857
0.03 0.54 0.01 -0.93 9.98 -0.03 -0.03 0.06 5863
0.02 0.57 0.60 -0.90 9.99 -0.03 -0.03 0.06 5869
0.03 0.58 0.63 -0.93 9.98 -0.03 -0.03 0.06 5875
0.04 0.57 0.66 -0.92 9.96 -0.03 -0.03 0.06 5881
0.02 0.63 0.63 -0.94 9.97 -0.03 -0.03 0.06 5889
0.02 0.60 0.62 -0.91 9.95 -0.03 -0.02 0.06 5895
0.03 0.63 0.63 -0.94 9.96 -0.03 -0.03 0.06 5901
0.03 0.60 0.64 -0.92 9.95 -0.02 -0.03 0.06 5907
0.02 0.61 0.62 -0.94 9.96 -0.02 -0.03 0.06 5913
0.02 0.69 0.62 -0.91 9.99 -0.02 -0.02 0.06 5919
0.03 0.66 0.64 -0.91 9.94 -0.02 -0.03 0.06 5925
0.03 0.68 0.62 -0.94 9.97 -0.02 -0.03 0.06 5933
0.01 0.72 0.62 -0.93 9.96 -0.03 -0.03 0.06 5939
0.03 0.69 0.64 -0.89 9.95 -0.02 -0.03 0.06 5945
0.03 0.71 0.66 -0.90 9.98 -0.02 -0.03 0.06 5951
0.02 0.67 0.63 -0.90 9.97 -0.02 -0.03 0.07 5957
0.03 0.65 0.63 -0.88 9.95 -0.02 -0.03 0.06 5963
0.03 0.72 0.60 -0.88 9.96 -0.02 -0.03 0.06 5969
0.03 0.70 0.58 -0.92 9.94 -0.01 -0.03 0.07 5977
0.02 0.70 0.61 -0.91 9.93 -0.01 -0.03 0.06 5983
0.03 0.71 0.64 -0.90 9.96 -0.01 -0.03 0.06 5989
0.01 0.70 0.62 -0.90 9.94 -0.01 -0.03 0.06 5995
0.01 0.69 0.60 -0.89 9.97 -0.01 -0.03 0.06 6001
0.01 0.70 0.59 -0.88 9.96 -0.01 -0.03 0.06 6007
0.03 0.72 0.64 -0.90 9.93 -0.02 -0.07 0.06 6013
0.03 0.71 0.63 -0.88 9.96 -0.01 -0.03 0.07 6020
0.02 0.71 0.62 -0.89 9.96 -0.02 -0.03 0.03 6027
0.02 0.72 0.61 -0.90 9.95 -0.01 -0.03 0.07 6033
0.04 0.73 0.60 -0.91 9.97 -0.02 -0.03 0.07 6039
0.04 0.73 0.63 -0.89 9.93 -0.01 -0.03 0.06 6045
0.03 0.77 0.62 -0.90 9.97 -0.01 -0.03 0.07 6051
0.05 0.80 0.64 -0.88 9.91 -0.01 -0.03 0.07 6057
0.04 0.80 0.64 -0.90 9.93 -0.01 -0.03 0.07 6064
0.03 0.80 0.62 -0.92 10.00 -0.01 -0.03 0.07 6071
0.05 0.81 0.63 -0.87 9.95 -0.02 -0.03 0.07 6077
0.03 0.79 0.62 -0.87 9.95 -0.01 -0.03 0.07 6083
0.03 0.79 0.63 -0.91 9.98 -0.01 -0.03 0.07 6089
0.04 0.80 0.61 -0.90 9.98 -0.01 -0.03 0.07 6095
0.05 0.80 0.60 -0.87 9.93 -0.01 -0.03 0.07 6102
0.04 0.81 0.62 -0.86 9.98 -0.01 -0.03 0.07 6108
0.03 0.82 0.61 -0.87 9.95 -0.01 -0.03 0.07 6115
0.04 0.83 0.64 -0.91 9.96 -0.01 -0.03 0.07 6121
0.04 0.82 0.63 -0.86 9.96 -0.01 -0.03 0.07 6127
0.01 0.83 0.62 -0.88 9.94 -0.01 -0.03 0.06 6133
0.02 0.84 0.62 -0.90 9.98 -0.01 -0.03 0.07 6139
0.03 0.82 0.61 -0.86 9.94 -0.01 -0.03 0.07 6146
0.03 0.82 0.64 -0.90 9.95 -0.01 -0.03 0.07 6152
0.02 0.84 0.65 -0.88 9.97 -0.01 -0.04 0.07 6159
0.03 0.86 0.62 -0.88 9.93 -0.01 -0.03 0.07 6165
0.02 0.85 0.04 -0.87 9.98 -0.01 -0.00 0.06 6171
0.01 0.84 0.58 -0.89 9.92 -0.01 -0.03 0.07 6177
0.01 0.85 0.63 -0.88 10.00 -0.01 -0.03 0.07 6183
0.00 0.83 0.59 -0.87 9.93 -0.01 -0.03 0.07 6190
0.00 0.86 0.65 -0.86 9.96 -0.01 -0.03 0.06 6196
-0.00 0.83 0.63 -0.86 9.94 -0.01 -0.03 0.07 6203
0.02 0.84 0.63 -0.87 9.96 -0.01 -0.04 0.07 6209
0.01 0.82 0.64 -0.87 9.92 -0.02 -0.03 0.07 6215
-0.00 0.83 1.21 -0.86 9.94 -0.01 -0.03 0.06 6221
0.02 0.85 0.63 -0.86 9.96 -0.01 -0.03 0.07 6227
0.02 0.83 0.61 -0.86 9.94 -0.01 -0.04 0.06 6234
0.00 0.83 0.60 -0.83 9.93 -0.01 -0.03 0.07 6240
0.01 0.86 0.61 -0.85 9.94 -0.01 -0.03 0.06 6247
0.02 0.86 0.66 -0.88 9.91 -0.01 -0.04 0.07 6253
0.00 0.85 0.63 -0.86 9.96 -0.01 -0.04 0.06 6259
-0.00 0.85 0.57 -0.87 9.93 -0.01 -0.03 0.07 6265
0.01 0.86 0.01 -0.86 9.89 -0.01 -0.03 0.07 6272
0.02 0.86 0.65 -0.85 9.95 -0.01 -0.03 0.06 6278
0.03 0.86 0.60 -0.85 10.02 -0.01 -0.03 0.07 6284
0.02 0.87 0.63 -0.87 9.95 -0.01 -0.03 0.07 6291
0.03 0.85 0.60 -0.85 9.97 -0.01 -0.04 0.07 6297
0.03 0.83 0.61 -0.87 9.94 -0.01 -0.04 0.07 6303
0.02 0.83 0.66 -0.86 9.96 -0.01 -0.03 0.07 6309
0.03 0.82 0.61 -0.86 9.95 -0.01 -0.04 0.07 6316
0.03 0.83 0.64 -0.87 9.96 -0.01 -0.04 0.07 6322
0.03 0.83 0.63 -0.88 9.94 -0.01 -0.04 0.07 6328
0.02 0.84 0.61 -0.86 9.94 -0.01 -0.04 0.07 6335
0.03 0.84 0.62 -0.83 9.92 -0.01 -0.04 0.07 6341
0.02 0.85 0.64 -0.85 9.96 -0.00 -0.03 0.07 6347
0.02 0.85 0.61 -0.86 9.93 -0.01 -0.04 0.07 6353
0.04 0.87 0.74 -0.99 9.92 -0.01 -0.04 0.07 6360
0.03 0.86 0.60 -0.85 9.96 -0.01 -0.04 0.07 6366
0.03 0.86 0.63 -0.83 9.92 -0.00 -0.04 0.07 6372
0.04 0.87 1.21 -0.87 9.93 -0.01 -0.04 0.08 6379
0.04 0.87 0.63 -0.87 9.98 -0.01 -0.03 0.07 6385
0.04 0.86 0.61 -0.86 9.98 -0.01 -0.04 0.07 6391
0.02 0.86 0.64 -0.88 9.97 -0.01 -0.04 0.07 6397
0.05 0.89 0.62 -0.88 9.96 -0.01 -0.04 0.07 6404
0.03 0.89 0.59 -0.86 9.96 -0.01 -0.03 0.07 6410
0.02 0.90 0.63 -0.86 9.93 -0.01 -0.04 0.07 6416
0.03 0.91 0.62 -0.84 9.94 -0.01 -0.04 0.07 6423
0.03 0.90 0.58 -0.87 10.00 -0.01 -0.04 0.07 6429
0.04 0.90 0.64 -0.87 9.93 -0.01 -0.04 0.07 6435
0.03 0.91 0.64 -0.87 9.97 -0.01 -0.03 0.07 6441
0.04 0.91 0.59 -0.87 9.98 -0.01 -0.03 0.07 6448
0.04 0.91 0.61 -0.84 9.97 -0.01 -0.04 0.07 6454
0.03 0.89 0.63 -0.86 9.96 -0.01 -0.03 0.07 6460
0.04 0.89 0.62 -0.87 9.96 -0.01 -0.03 0.07 6467
0.04 0.88 0.60 -0.87 9.95 -0.01 -0.04 0.07 6473
0.04 0.86 0.61 -0.87 9.98 -0.01 -0.03 0.07 6479
0.02 0.87 0.63 -0.85 10.01 -0.00 -0.03 0.07 6486
0.04 0.87 0.60 -0.86 9.95 -0.00 -0.03 0.07 6492
0.04 0.87 0.63 -0.86 9.95 -0.00 -0.04 0.07 6498
0.02 0.87 0.62 -0.86 9.97 -0.00 -0.04 0.07 6504
0.03 0.88 0.59 -0.85 9.95 -0.00 -0.04 0.07 6511
0.04 0.87 0.63 -0.84 9.97 -0.00 -0.03 0.07 6517
0.04 0.85 0.61 -0.85 9.97 -0.00 -0.03 0.07 6523
0.03 0.86 0.64 -0.85 9.96 -0.00 -0.03 0.07 6530
0.04 0.86 0.01 -0.86 9.93 -0.01 -0.03 0.07 6536
0.03 0.86 0.63 -0.83 9.95 -0.01 -0.04 0.07 6542
0.03 0.87 0.62 -0.87 9.96 -0.00 -0.04 0.07 6548
0.05 0.87 0.63 -0.88 9.96 -0.00 -0.04 0.07 6555
0.05 0.87 0.61 -0.83 9.96 -0.00 -0.03 0.07 6561
0.05 0.86 0.60 -0.87 9.97 -0.01 -0.04 0.07 6567
0.05 0.87 0.62 -0.86 9.94 -0.00 -0.03 0.07 6574
0.07 0.88 0.63 -0.86 9.93 -0.01 -0.04 0.07 6580
0.05 0.88 0.61 -0.87 9.93 -0.01 -0.00 0.07 6586
0.04 0.88 0.60 -0.85 9.94 -0.01 -0.03 0.07 6592
0.06 0.88 0.62 -0.87 9.96 -0.01 -0.03 0.06 6599
0.05 0.88 0.58 -0.87 9.96 -0.01 -0.04 0.07 6605
0.05 0.87 0.60 -0.85 9.98 -0.00 -0.03 0.07 6611
0.04 0.87 0.63 -0.90 9.99 -0.01 -0.03 0.07 6618
0.05 0.88 0.63 -0.88 9.95 -0.00 -0.04 0.07 6624
0.03 0.88 0.62 -0.87 9.91 -0.01 -0.03 0.07 6630
0.02 0.87 0.61 -0.86 9.92 -0.01 -0.03 0.07 6636
0.03 0.88 0.61 -0.86 9.94 -0.01 -0.03 0.07 6642
0.03 0.88 0.61 -0.85 9.96 -0.01 -0.03 0.07 6649
0.03 0.87 0.60 -0.86 9.95 -0.01 -0.03 0.07 6656
0.02 0.88 0.63 -0.85 9.95 -0.01 -0.03 0.07 6662
0.03 0.87 0.64 -0.85 9.98 -0.01 -0.03 0.07 6668
0.02 0.87 0.63 -0.84 9.93 -0.01 -0.03 0.07 6674
0.01 0.87 0.64 -0.85 9.94 -0.01 -0.03 0.07 6680
0.02 0.87 0.63 -0.85 10.00 -0.01 -0.07 0.07 6687
0.03 0.86 0.62 -0.84 10.00 -0.01 -0.03 0.07 6693
0.01 0.86 0.64 -0.82 9.96 -0.01 -0.03 0.07 6700
0.02 0.87 0.64 -0.87 9.96 -0.01 -0.03 0.07 6706
0.03 0.85 0.63 -0.87 9.96 -0.01 -0.03 0.07 6712
0.03 0.85 0.61 -0.86 9.97 -0.01 -0.03 0.07 6718
0.03 0.85 0.63 -0.86 9.94 -0.01 -0.03 0.07 6724
0.05 0.85 0.64 -0.86 9.93 -0.01 -0.03 0.07 6731
0.04 0.85 0.62 -0.82 9.98 -0.01 -0.03 0.07 6737
0.02 0.84 0.59 -0.86 9.94 -0.01 -0.03 0.06 6744
0.03 0.85 0.63 -0.86 9.97 -0.01 -0.03 0.07 6750
0.04 0.86 0.62 -0.84 9.96 -0.01 -0.03 0.07 6756
0.04 0.84 0.61 -0.87 9.95 -0.00 -0.03 0.06 6762
0.04 0.85 0.63 -0.87 9.96 -0.01 -0.03 0.07 6768
0.06 0.85 0.64 -0.86 9.92 -0.01 -0.03 0.07 6775
0.05 0.85 0.63 -0.87 9.95 -0.01 -0.03 0.07 6781
0.04 0.84 0.60 -0.85 9.96 -0.01 -0.03 0.07 6788
0.05 0.85 0.60 -0.84 9.90 -0.01 -0.03 0.06 6794
0.05 0.85 0.61 -0.86 9.96 -0.01 -0.03 0.07 6800
0.05 0.84 0.59 -0.86 9.91 -0.01 -0.03 0.07 6806
0.04 0.85 0.60 -0.85 9.98 -0.01 -0.04 0.07 6812
0.07 0.84 0.62 -0.85 9.95 -0.01 -0.03 0.07 6819
0.06 0.83 0.63 -0.82 9.95 -0.01 -0.04 0.07 6825
0.05 0.80 0.60 -0.83 9.98 -0.01 -0.04 0.07 6832
0.06 0.80 0.59 -0.83 9.98 -0.01 -0.04 0.07 6838
0.07 0.79 0.67 -0.85 9.93 -0.01 -0.03 0.06 6844
0.08 0.76 0.61 -0.83 9.96 -0.01 -0.04 0.07 6850
0.06 0.76 0.60 -0.86 9.95 -0.00 -0.04 0.07 6856
0.09 0.76 0.63 -0.86 9.97 -0.00 -0.03 0.07 6862
0.08 0.76 0.60 -0.84 9.93 -0.00 -0.04 0.06 6870
0.04 0.73 0.59 -0.81 9.96 -0.00 -0.04 0.07 6876
0.05 0.71 0.60 -0.81 9.95 -0.00 -0.04 0.07 6882
0.08 0.73 0.61 -0.82 9.92 0.00 -0.04 0.07 6888
0.09 0.73 1.22 -0.83 9.95 0.00 -0.04 0.07 6894
0.08 0.67 0.60 -0.83 9.94 0.00 -0.04 0.07 6900
0.10 0.66 0.62 -0.86 9.98 0.00 -0.04 0.07 6906
0.11 0.61 0.63 -0.87 9.97 0.00 -0.04 0.07 6914
0.10 0.59 0.58 -0.86 9.95 0.01 -0.04 0.07 6920
0.12 0.57 0.60 -0.89 9.97 0.00 -0.04 0.07 6926
0.15 0.49 0.62 -0.84 9.98 0.00 -0.04 0.08 6932
0.14 0.46 0.61 -0.86 9.97 0.01 -0.04 0.07 6938
0.16 0.47 0.01 -0.86 9.99 0.01 -0.04 0.07 6944
0.18 0.44 0.63 -0.85 9.98 0.01 -0.04 0.07 6950
0.18 0.45 0.60 -0.85 9.96 0.01 -0.04 0.07 6958
0.19 0.42 0.59 -0.87 9.93 0.01 -0.04 0.08 6964
0.22 0.38 0.60 -0.87 9.96 0.01 -0.04 0.07 6970
0.25 0.33 0.60 -0.86 9.91 0.01 -0.04 0.08 6976
0.24 0.31 0.59 -0.84 9.98 0.01 -0.04 0.08 6982
0.25 0.27 0.59 -0.86 9.98 0.01 -0.04 0.08 6988
0.29 0.28 0.61 -0.87 9.99 0.02 -0.04 0.08 6994
0.30 0.19 0.60 -0.86 9.96 0.02 -0.03 0.08 7001
0.29 0.19 0.60 -0.89 9.95 0.02 -0.04 0.08 7008
0.30 0.14 0.61 -0.84 9.94 0.02 -0.04 0.08 7014
0.33 0.13 0.66 -0.88 9.96 0.03 -0.03 0.07 7020
0.33 0.08 0.63 -0.96 9.97 0.03 -0.03 0.08 7026
0.33 0.08 0.60 -0.89 9.92 0.03 -0.04 0.08 7032
0.36 0.10 0.58 -0.88 10.03 0.03 -0.04 0.08 7038
0.39 0.05 0.59 -0.88 10.01 0.03 -0.03 0.07 7046
0.40 0.01 0.51 -0.73 10.11 0.04 -0.03 0.08 7052
0.41 0.00 0.67 -0.87 9.98 0.05 -0.03 0.08 7058
0.42 0.01 0.57 -0.88 10.02 0.05 -0.03 0.09 7064
0.45 -0.01 0.61 -0.95 9.97 0.06 -0.03 0.08 7070
0.42 0.01 0.52 -0.90 10.03 0.06 -0.03 0.09 7076
0.42 -0.02 0.62 -0.98 10.01 0.07 -0.04 0.09 7084
0.44 -0.03 0.49 -0.85 10.03 0.08 -0.04 0.10 7090
0.47 -0.01 0.50 -0.95 9.99 0.10 -0.05 0.12 7096
0.50 -0.03 0.67 -1.04 10.04 0.10 -0.05 0.11 7102
0.50 -0.04 0.58 -0.99 10.06 0.12 -0.06 0.10 7108
0.52 -0.02 1.17 -0.94 10.30 0.15 -0.06 0.11 7114
0.55 -0.03 0.00 -1.08 10.09 0.22 -0.05 0.09 7121
0.55 -0.04 0.77 -0.93 10.22 0.35 -0.02 0.09 7128
0.54 -0.02 0.64 -1.14 10.12 0.43 -0.01 0.08 7134
0.55 -0.02 0.54 -1.12 10.13 0.49 -0.02 0.08 7140
0.55 -0.03 0.66 -1.17 10.11 0.52 -0.02 0.08 7146
0.56 -0.01 0.70 -1.35 10.28 0.55 -0.01 0.08 7153
0.55 -0.03 0.78 -1.22 10.40 0.56 -0.03 0.08 7159
0.55 -0.03 0.78 -1.26 10.39 0.53 -0.03 0.07 7165
0.56 -0.03 0.72 -1.35 10.03 0.49 -0.03 0.07 7172
0.56 -0.02 0.66 -1.38 9.84 0.46 -0.03 0.07 7178
0.55 -0.03 0.63 -1.42 9.75 0.41 -0.02 0.07 7185
0.57 -0.02 0.62 -1.43 9.64 0.37 -0.02 0.07 7191
0.57 -0.03 0.64 -1.47 9.63 0.32 -0.02 0.08 7197
0.56 -0.03 0.67 -1.52 9.52 0.26 -0.02 0.08 7203
0.55 -0.02 0.66 -1.53 9.46 0.21 -0.02 0.08 7209
0.56 -0.02 0.70 -1.53 9.43 0.14 -0.02 0.08 7216
0.55 -0.03 0.75 -1.57 9.38 0.07 -0.02 0.07 7223
0.53 -0.02 0.73 -1.55 9.33 -0.00 -0.03 0.07 7229
0.54 -0.03 0.74 -1.52 9.27 -0.08 -0.04 0.07 7235
0.52 -0.03 0.77 -1.55 9.26 -0.17 -0.04 0.06 7241
0.50 -0.03 0.71 -1.53 9.23 -0.25 -0.04 0.06 7247
0.48 -0.01 0.66 -1.49 9.26 -0.34 -0.05 0.05 7254
0.47 -0.01 0.68 -1.46 9.30 -0.44 -0.06 0.05 7260
0.45 -0.02 0.72 -1.47 9.52 -0.55 -0.06 0.06 7267
0.42 -0.02 0.76 -1.43 10.67 -0.68 -0.07 0.06 7273
0.40 -0.03 0.90 -1.51 10.69 -0.82 -0.12 0.05 7279
0.37 -0.03 0.73 -1.30 10.08 -0.88 -0.13 0.04 7285
0.36 -0.02 0.68 -1.15 10.16 -0.89 -0.11 0.03 7291
0.35 -0.02 0.51 -0.84 11.95 -0.80 -0.10 0.03 7299
0.32 -0.02 1.10 -0.47 12.15 -0.36 -0.05 0.00 7305
0.34 -0.02 0.51 -0.71 10.22 -0.20 -0.04 0.01 7311
0.32 -0.01 0.54 -0.96 10.07 -0.16 -0.03 0.01 7317
0.29 0.00 0.50 -1.02 10.16 -0.15 -0.03 0.04 7323
0.28 0.02 0.50 -0.92 10.14 -0.13 -0.03 0.05 7330
0.24 0.09 0.54 -0.93 10.10 -0.11 -0.03 0.06 7336
0.21 0.12 0.58 -0.90 10.14 -0.09 -0.03 0.07 7343
0.22 0.20 0.52 -0.91 10.14 -0.07 -0.03 0.07 7349
0.22 0.27 0.56 -0.91 10.05 -0.05 -0.03 0.08 7355
0.20 0.28 0.57 -0.89 9.96 -0.04 -0.03 0.08 7362
0.20 0.31 0.56 -0.88 10.05 -0.03 -0.02 0.09 7368
0.18 0.37 0.58 -0.88 9.96 -0.02 -0.02 0.08 7374
0.17 0.39 0.61 -0.89 9.95 -0.02 -0.02 0.08 7380
0.15 0.38 0.61 -0.88 9.97 -0.02 -0.02 0.08 7387
0.14 0.38 0.61 -0.88 9.92 -0.01 -0.02 0.08 7393
0.12 0.38 0.58 -0.88 9.92 -0.02 -0.02 0.08 7400
0.09 0.45 0.55 -0.92 9.95 -0.02 -0.03 0.08 7406
0.12 0.49 0.63 -0.91 9.91 -0.02 -0.03 0.08 7412
0.10 0.46 0.63 -0.90 10.00 -0.01 -0.02 0.08 7418
0.07 0.52 0.63 -0.90 9.97 -0.02 -0.03 0.07 7425
0.10 0.57 0.62 -0.91 9.95 -0.02 -0.03 0.07 7431
0.07 0.52 0.60 -0.88 9.95 -0.02 -0.03 0.07 7437
0.05 0.53 0.63 -0.90 9.92 -0.02 -0.03 0.07 7444
0.06 0.56 0.60 -0.89 9.92 -0.02 -0.03 0.07 7450
0.06 0.54 0.59 -0.90 9.96 -0.02 -0.03 0.07 7456
0.06 0.51 0.60 -0.88 9.91 -0.02 -0.03 0.07 7462
0.04 0.59 0.58 -0.86 9.96 -0.02 -0.03 0.07 7469
0.06 0.63 0.61 -0.87 9.90 -0.02 -0.03 0.10 7475
0.05 0.63 0.61 -0.85 9.95 -0.02 -0.03 0.08 7481
0.05 0.61 0.58 -0.88 9.95 -0.02 -0.03 0.07 7487
0.05 0.65 0.63 -0.90 9.96 -0.02 -0.03 0.07 7494
0.06 0.65 0.59 -0.88 9.90 -0.02 -0.03 0.07 7500
0.05 0.63 0.62 -0.88 9.95 -0.02 -0.03 0.07 7506
0.05 0.67 0.64 -0.92 9.93 -0.01 -0.03 0.07 7513
0.05 0.69 0.63 -0.85 9.95 -0.01 -0.03 0.07 7519
0.06 0.66 0.62 -0.86 9.93 -0.01 -0.03 0.07 7525
0.04 0.66 0.62 -0.86 9.96 -0.01 -0.04 0.07 7531
0.06 0.71 0.61 -0.88 9.98 -0.00 -0.03 0.06 7538
0.07 0.69 0.59 -0.87 9.94 -0.00 -0.04 0.07 7544
0.06 0.68 0.60 -0.86 9.98 -0.00 -0.03 0.07 7550
0.06 0.67 0.60 -0.85 9.91 -0.00 -0.03 0.06 7557
0.08 0.68 1.22 -0.89 9.94 -0.00 -0.03 0.07 7563
0.07 0.67 0.59 -0.93 9.95 -0.00 -0.03 0.07 7569
0.06 0.65 0.61 -0.88 9.97 -0.00 -0.03 0.07 7575
0.06 0.67 0.61 -0.90 9.96 -0.00 -0.03 0.07 7582
0.06 0.66 0.60 -0.91 9.94 -0.00 -0.03 0.07 7588
0.07 0.65 0.63 -0.88 9.94 -0.00 -0.03 0.07 7595
0.06 0.65 0.61 -0.88 9.96 -0.00 -0.04 0.07 7601
0.07 0.65 0.58 -0.92 9.92 -0.00 -0.03 0.07 7607
0.07 0.64 1.21 -0.89 9.92 -0.00 -0.04 0.07 7613
0.06 0.62 0.60 -0.90 9.95 -0.00 -0.04 0.07 7619
0.06 0.64 0.60 -0.86 9.97 -0.00 -0.04 0.07 7625
0.07 0.61 0.58 -0.88 9.92 -0.01 -0.04 0.07 7632
0.06 0.59 0.58 -0.91 9.96 -0.00 -0.04 0.07 7639
0.05 0.59 0.61 -0.89 9.95 -0.01 -0.04 0.07 7645
0.07 0.61 0.58 -0.90 9.93 -0.01 -0.03 0.07 7651
0.07 0.60 0.64 -0.84 9.93 -0.01 -0.03 0.07 7657
0.07 0.61 0.59 -0.89 9.95 -0.01 -0.03 0.07 7663
0.06 0.62 0.62 -0.88 9.96 -0.01 -0.03 0.07 7669
0.06 0.63 0.59 -0.89 9.98 -0.01 -0.03 0.07 7676
0.05 0.63 0.61 -0.89 9.97 -0.01 -0.03 0.07 7683
0.05 0.64 0.59 -0.86 9.94 -0.01 -0.04 0.08 7689
0.05 0.65 0.58 -0.87 9.95 -0.01 -0.03 0.07 7695
0.05 0.65 0.63 -0.86 9.93 -0.01 -0.03 0.07 7701
0.06 0.65 0.59 -0.87 9.91 -0.01 -0.03 0.07 7707
0.05 0.66 1.20 -0.85 9.94 -0.01 -0.03 0.07 7713
0.06 0.67 0.61 -0.89 10.02 -0.01 -0.03 0.07 7720
0.06 0.66 0.57 -0.86 9.94 -0.01 -0.03 0.08 7727
0.05 0.66 0.61 -0.89 9.97 -0.01 -0.03 0.07 7733
0.07 0.68 0.58 -0.88 9.95 -0.01 -0.03 0.07 7739
0.05 0.68 0.59 -0.90 9.98 -0.01 -0.03 0.08 7745
0.05 0.68 0.62 -0.87 9.96 -0.01 -0.03 0.08 7751
0.05 0.68 0.59 -0.85 10.00 -0.01 -0.03 0.07 7757
0.06 0.69 0.58 -0.87 9.96 -0.01 -0.03 0.07 7764
0.06 0.72 0.61 -0.86 9.96 -0.01 -0.03 0.07 7771
0.06 0.72 0.61 -0.86 9.98 -0.01 -0.03 0.07 7777
0.07 0.73 0.61 -0.86 9.96 -0.01 -0.03 0.07 7783
0.06 0.72 0.59 -0.87 9.95 -0.01 -0.03 0.07 7789
0.05 0.70 0.60 -0.86 9.94 -0.01 -0.03 0.07 7795
0.05 0.69 0.58 -0.84 9.96 -0.01 -0.03 0.07 7801
0.05 0.73 0.58 -0.86 9.95 -0.01 -0.03 0.08 7809
0.05 0.72 0.64 -0.86 9.95 -0.01 -0.03 0.07 7815
0.05 0.73 0.58 -0.82 9.93 -0.01 -0.03 0.07 7821
0.06 0.74 0.60 -0.83 9.94 -0.01 -0.03 0.07 7827
0.05 0.74 0.59 -0.83 9.96 -0.00 -0.03 0.07 7833
0.04 0.72 0.58 -0.85 9.92 -0.00 -0.03 0.08 7839
0.05 0.72 0.60 -0.86 9.95 -0.01 -0.03 0.07 7845
0.06 0.72 0.65 -0.84 9.96 -0.01 -0.03 0.07 7853
0.05 0.71 0.59 -0.86 9.95 -0.00 -0.03 0.07 7859
0.05 0.69 0.59 -0.86 9.94 -0.01 -0.03 0.07 7865
0.06 0.71 0.61 -0.89 9.91 -0.01 -0.03 0.07 7871
0.05 0.70 0.62 -0.86 9.96 -0.01 -0.03 0.07 7877
0.05 0.70 0.58 -0.86 9.98 -0.00 -0.03 0.07 7883
0.06 0.71 0.61 -0.85 9.95 -0.01 -0.03 0.07 7889
0.05 0.71 0.57 -0.86 9.94 -0.00 -0.03 0.07 7897
0.05 0.69 0.60 -0.90 9.93 -0.00 -0.03 0.07 7903
0.05 0.69 0.60 -0.84 9.93 -0.00 -0.03 0.07 7909
0.06 0.71 1.20 -0.83 9.98 -0.00 -0.03 0.07 7915
0.05 0.70 0.61 -0.86 9.94 -0.00 -0.04 0.08 7921
0.06 0.69 0.56 -0.90 9.94 0.00 -0.03 0.08 7927
0.05 0.70 0.62 -0.87 9.96 -0.00 -0.03 0.07 7933
0.06 0.71 0.61 -0.88 9.95 -0.00 -0.03 0.07 7940
0.05 0.71 0.66 -0.88 9.95 -0.01 -0.03 0.07 7946
0.05 0.70 0.57 -0.88 9.96 -0.01 -0.03 0.08 7953
0.05 0.70 0.59 -0.83 9.98 -0.01 -0.03 0.07 7959
0.06 0.70 0.61 -0.84 9.88 -0.01 -0.04 0.07 7965
0.05 0.70 0.59 -0.87 9.92 -0.00 -0.03 0.07 7971
0.04 0.71 0.61 -0.87 9.96 -0.00 -0.03 0.07 7977
0.05 0.72 0.60 -0.83 9.97 -0.01 -0.03 0.07 7984
0.06 0.71 0.59 -0.85 9.96 -0.00 -0.04 0.07 7990
0.05 0.70 0.60 -0.88 9.96 -0.00 -0.03 0.08 7997
0.05 0.72 0.62 -0.87 9.95 -0.01 -0.03 0.07 8003
0.06 0.71 0.59 -0.87 9.98 -0.01 -0.03 0.07 8009
0.06 0.70 0.61 -0.86 10.02 -0.01 -0.03 0.07 8015
0.05 0.71 0.59 -0.85 9.97 -0.01 -0.04 0.07 8022
0.07 0.72 0.64 -0.86 9.97 -0.00 -0.03 0.07 8028
0.05 0.72 0.61 -0.83 9.97 -0.00 -0.04 0.07 8034
0.05 0.71 0.63 -0.88 9.97 -0.00 -0.04 0.07 8041
0.05 0.72 0.62 -0.90 9.95 -0.01 -0.04 0.07 8047
0.06 0.71 0.60 -0.87 9.98 -0.00 -0.04 0.07 8053
0.05 0.70 0.59 -0.87 9.98 -0.00 -0.04 0.07 8059
0.05 0.69 0.61 -0.87 9.98 -0.00 -0.04 0.08 8066
0.06 0.71 0.58 -0.85 10.00 -0.00 -0.04 0.07 8072
0.06 0.68 0.62 -0.88 9.96 0.00 -0.04 0.07 8078
0.05 0.68 0.64 -0.86 9.96 -0.00 -0.04 0.07 8085
0.05 0.68 0.59 -0.85 9.94 -0.00 -0.04 0.06 8091
0.06 0.68 0.59 -0.88 9.97 -0.00 -0.03 0.07 8097
0.06 0.68 0.56 -0.86 9.92 -0.00 -0.04 0.07 8103
0.05 0.68 0.64 -0.87 9.95 -0.01 -0.04 0.07 8110
0.05 0.69 0.60 -0.90 9.97 -0.00 -0.03 0.06 8116
0.05 0.68 0.61 -0.85 9.93 -0.00 -0.03 0.07 8122
0.05 0.67 0.64 -0.87 9.94 -0.01 -0.04 0.07 8128
0.05 0.69 0.60 -0.86 9.97 -0.01 -0.04 0.07 8135
0.06 0.68 0.58 -0.90 9.97 -0.00 -0.04 0.06 8141
0.06 0.68 0.60 -0.87 9.94 -0.00 -0.04 0.06 8147
0.04 0.68 0.58 -0.87 10.02 -0.00 -0.03 0.06 8154
0.05 0.68 0.60 -0.87 9.96 -0.00 -0.03 0.06 8160
0.05 0.68 0.62 -0.87 9.99 -0.01 -0.03 0.07 8166
0.05 0.67 0.62 -0.86 9.95 -0.00 -0.03 0.06 8172
0.05 0.68 0.58 -0.88 9.96 -0.01 -0.04 0.07 8179
0.06 0.68 0.64 -0.89 9.95 -0.00 -0.03 0.06 8185
0.05 0.68 0.56 -0.86 9.95 -0.00 -0.04 0.07 8192
0.04 0.67 0.60 -0.86 9.96 -0.00 -0.04 0.07 8198
0.06 0.70 0.62 -0.85 9.94 -0.01 -0.03 0.07 8204
0.06 0.68 0.01 -0.87 9.95 -0.01 -0.03 0.07 8210
0.06 0.68 0.61 -0.86 9.94 -0.01 -0.03 0.06 8216
0.06 0.69 0.59 -0.87 9.94 -0.00 -0.04 0.06 8223
0.07 0.69 0.62 -0.88 9.96 -0.01 -0.04 0.07 8229
0.06 0.69 0.65 -0.84 9.98 -0.00 -0.04 0.07 8236
0.05 0.69 0.62 -0.85 9.96 -0.00 -0.03 0.06 8242
0.06 0.70 0.61 -0.89 9.99 -0.01 -0.03 0.06 8248
0.06 0.68 0.63 -0.85 9.96 -0.00 -0.03 0.07 8254
0.06 0.68 0.00 -0.82 9.95 -0.00 -0.04 0.07 8260
0.05 0.68 0.60 -0.86 10.00 -0.01 -0.03 0.07 8266
0.07 0.68 0.60 -0.90 9.95 -0.00 -0.04 0.06 8273
0.05 0.68 0.60 -0.87 9.96 -0.01 -0.03 0.07 8280
0.05 0.68 0.63 -0.89 9.96 0.00 -0.03 0.06 8286
0.06 0.69 0.61 -0.90 9.94 -0.00 -0.03 0.06 8292
0.06 0.69 0.59 -0.86 9.96 -0.00 -0.04 0.07 8298
0.06 0.68 0.58 -0.89 9.93 -0.00 -0.03 0.06 8304
0.05 0.68 0.62 -0.88 9.97 -0.01 -0.00 0.06 8310
0.06 0.69 0.62 -0.90 9.96 -0.00 -0.04 0.06 8317
0.05 0.68 0.61 -0.87 9.95 -0.00 -0.04 0.06 8324
0.06 0.68 0.64 -0.88 9.97 -0.01 -0.03 0.06 8330
0.05 0.68 0.62 -0.87 9.97 -0.00 -0.03 0.06 8336
0.07 0.68 0.62 -0.87 9.97 -0.01 -0.04 0.07 8342
0.06 0.68 0.63 -0.88 9.92 -0.00 -0.03 0.06 8348
0.05 0.68 0.60 -0.84 9.97 -0.00 -0.04 0.07 8354
0.06 0.70 0.62 -0.88 9.94 -0.01 -0.03 0.06 8360
0.06 0.68 0.61 -0.89 9.94 -0.01 -0.04 0.06 8368
0.06 0.68 0.64 -0.89 9.96 -0.01 -0.03 0.06 8374
0.06 0.69 0.58 -0.89 9.93 -0.00 -0.03 0.06 8380
0.07 0.68 0.61 -0.87 9.97 -0.00 -0.03 0.07 8386
0.06 0.69 0.59 -0.89 9.98 -0.01 -0.03 0.07 8392
0.05 0.69 0.60 -0.90 9.95 -0.01 -0.03 0.06 8398
0.06 0.69 0.01 -0.87 9.97 -0.01 -0.04 0.06 8404
0.06 0.69 0.59 -0.86 9.92 -0.01 -0.03 0.07 8412
0.06 0.68 0.61 -0.86 9.98 -0.01 -0.03 0.06 8418
0.06 0.69 0.61 -0.89 9.98 -0.00 -0.03 0.06 8424
0.07 0.70 0.62 -0.88 9.94 -0.00 -0.03 0.06 8430
0.06 0.69 0.62 -0.90 9.98 -0.01 -0.03 0.06 8436
0.05 0.68 0.63 -0.89 9.98 -0.01 -0.03 0.06 8442
0.06 0.70 0.63 -0.89 9.96 -0.01 -0.04 0.06 8449
0.07 0.69 0.01 -0.90 9.96 -0.01 -0.07 0.06 8455
0.07 0.69 0.63 -0.88 9.94 -0.00 -0.04 0.07 8462
0.06 0.69 0.63 -0.89 9.97 -0.00 -0.03 0.06 8468
0.07 0.69 0.61 -0.88 9.94 -0.01 -0.03 0.06 8474
0.06 0.68 0.62 -0.88 9.98 -0.00 -0.04 0.06 8480
0.06 0.68 0.64 -0.88 9.96 -0.01 -0.04 0.06 8486
0.06 0.69 0.63 -0.87 9.94 -0.00 -0.03 0.06 8493
0.08 0.69 0.61 -0.88 9.97 -0.01 -0.03 0.06 8499
0.06 0.69 0.65 -0.85 10.01 -0.00 -0.03 0.06 8506
0.06 0.70 0.63 -0.87 9.94 -0.00 -0.03 0.06 8512
0.06 0.70 0.63 -0.89 9.98 -0.01 -0.03 0.06 8518
0.05 0.69 0.58 -0.89 9.93 -0.01 -0.03 0.06 8524
0.05 0.68 0.61 -0.89 9.95 -0.01 -0.03 0.06 8530
0.06 0.69 0.63 -0.88 9.96 -0.01 -0.04 0.06 8537
0.06 0.69 0.63 -0.89 9.94 -0.01 -0.03 0.06 8543
0.06 0.68 0.63 -0.90 9.96 -0.01 -0.03 0.06 8550
0.04 0.68 0.61 -0.88 9.97 -0.01 -0.04 0.06 8556
0.05 0.69 0.61 -0.88 9.98 -0.01 -0.03 0.06 8562
0.05 0.69 0.64 -0.90 9.96 -0.00 -0.03 0.06 8568
0.05 0.68 0.60 -0.90 9.95 -0.01 -0.03 0.06 8574
0.05 0.69 0.59 -0.88 9.97 -0.01 -0.03 0.06 8581
0.06 0.70 0.61 -0.90 9.96 -0.01 -0.03 0.06 8587
0.05 0.69 0.63 -0.90 9.97 -0.01 -0.04 0.06 8593
0.04 0.70 0.60 -0.86 9.96 -0.00 -0.03 0.06 8600
0.05 0.69 0.63 -0.88 9.96 -0.01 -0.03 0.06 8606
0.05 0.69 0.59 -0.87 9.98 -0.01 -0.03 0.06 8612
0.05 0.69 0.62 -0.87 9.97 -0.00 -0.03 0.06 8619
0.04 0.69 0.64 -0.89 9.95 -0.00 -0.04 0.06 8625
0.06 0.69 0.57 -0.90 9.95 -0.00 -0.03 0.06 8631
0.05 0.69 0.61 -0.90 9.95 -0.00 -0.03 0.06 8637
0.05 0.68 0.59 -0.86 10.04 -0.00 -0.04 0.06 8644
0.05 0.69 0.63 -0.89 10.00 -0.00 -0.04 0.06 8650
0.06 0.68 0.61 -0.88 9.99 -0.01 -0.03 0.06 8656
0.05 0.66 0.61 -0.89 9.95 -0.00 -0.03 0.06 8663
0.05 0.66 0.61 -0.87 9.98 -0.00 -0.04 0.06 8669
0.07 0.67 0.61 -0.86 9.96 -0.01 -0.04 0.06 8675
0.06 0.67 0.60 -0.87 10.00 -0.01 -0.03 0.06 8681
0.05 0.67 0.62 -0.92 9.95 -0.00 -0.04 0.06 8688
0.06 0.68 0.60 -0.89 9.95 -0.00 -0.04 0.06 8694
0.06 0.67 0.61 -0.90 9.96 -0.00 -0.04 0.06 8700
0.07 0.66 0.01 -0.87 9.97 -0.01 -0.04 0.06 8707
0.06 0.67 0.61 -0.88 9.94 -0.00 -0.03 0.06 8713
0.07 0.67 0.60 -0.90 9.95 -0.01 -0.04 0.06 8719
0.06 0.68 0.59 -0.88 9.96 -0.01 -0.03 0.06 8725
0.05 0.67 0.60 -0.88 9.96 -0.01 -0.04 0.05 8731
0.06 0.69 0.63 -0.89 9.96 -0.00 -0.04 0.06 8738
0.06 0.68 0.63 -0.88 9.98 -0.01 -0.04 0.06 8744
0.06 0.67 0.62 -0.91 9.96 -0.01 -0.03 0.06 8751
0.06 0.68 0.03 -0.90 9.98 -0.01 -0.07 0.06 8757
0.07 0.69 0.63 -0.87 9.96 -0.01 -0.04 0.06 8763
0.06 0.68 0.64 -0.88 9.95 -0.00 -0.04 0.06 8769
0.05 0.68 0.62 -0.87 9.97 -0.00 -0.04 0.06 8775
0.06 0.70 0.62 -0.89 10.00 -0.00 -0.04 0.06 8782
0.05 0.67 0.63 -0.93 9.94 -0.00 -0.03 0.06 8788
0.06 0.67 0.60 -0.89 9.95 -0.00 -0.04 0.06 8795
0.05 0.68 0.65 -0.87 9.97 -0.00 -0.03 0.06 8801
0.07 0.67 1.22 -0.91 9.95 -0.01 -0.03 0.06 8807
0.06 0.67 0.60 -0.86 9.93 -0.00 -0.04 0.06 8813
0.04 0.67 0.65 -0.87 9.98 -0.01 -0.03 0.06 8819
0.05 0.68 0.60 -0.88 9.92 -0.01 -0.03 0.06 8826
0.06 0.67 0.61 -0.90 9.95 -0.00 -0.03 0.06 8833
0.05 0.66 0.63 -0.87 9.97 -0.00 -0.03 0.06 8839
0.06 0.67 0.62 -0.86 9.94 -0.00 -0.03 0.06 8845
0.07 0.67 0.60 -0.91 9.98 -0.00 -0.03 0.06 8851
0.06 0.67 0.60 -0.86 10.01 -0.01 -0.03 0.06 8857
0.05 0.67 0.64 -0.88 9.95 -0.01 -0.03 0.06 8863
0.07 0.68 0.63 -0.90 9.94 -0.01 -0.03 0.06 8870
0.06 0.67 0.63 -0.88 9.99 -0.00 -0.03 0.06 8877
0.06 0.67 0.61 -0.90 9.98 -0.01 -0.03 0.06 8883
0.06 0.68 0.60 -0.86 9.98 -0.00 -0.03 0.06 8889
0.08 0.68 0.62 -0.88 9.95 -0.01 -0.03 0.07 8895
0.06 0.69 0.61 -0.85 9.95 -0.00 -0.03 0.06 8901
0.06 0.69 0.03 -0.91 9.99 -0.01 -0.03 0.06 8907
0.06 0.71 0.63 -0.87 9.98 -0.00 -0.03 0.06 8914
0.06 0.69 0.59 -0.87 9.99 -0.00 -0.03 0.06 8921
0.06 0.68 0.58 -0.89 9.94 -0.00 -0.03 0.06 8927
0.06 0.69 0.60 -0.84 9.97 -0.01 -0.03 0.06 8933
0.07 0.69 0.61 -0.88 9.98 -0.00 -0.04 0.06 8939
0.06 0.69 0.62 -0.87 9.93 -0.01 -0.03 0.06 8945
0.05 0.69 0.59 -0.91 9.92 -0.00 -0.03 0.06 8951
0.06 0.70 0.02 -0.88 9.93 -0.01 -0.03 0.06 8957
0.06 0.69 0.60 -0.89 10.01 -0.01 -0.03 0.06 8965
0.06 0.68 0.59 -0.87 9.96 -0.00 -0.04 0.06 8971
0.06 0.69 0.61 -0.88 9.94 -0.00 -0.03 0.06 8977
0.07 0.69 0.60 -0.88 9.96 -0.00 -0.03 0.06 8983
0.06 0.68 0.65 -0.89 9.99 -0.00 -0.03 0.06 8989
0.05 0.68 0.58 -0.86 9.95 -0.00 -0.03 0.06 8995
0.06 0.69 0.63 -0.87 9.98 -0.00 -0.03 0.06 9001
0.06 0.69 0.62 -0.84 9.99 -0.00 -0.03 0.06 9009
0.06 0.68 0.64 -0.87 9.98 -0.00 -0.03 0.06 9015
0.05 0.68 0.62 -0.91 9.96 -0.00 -0.03 0.06 9021
0.06 0.68 0.63 -0.91 9.98 -0.00 -0.03 0.06 9027
0.06 0.67 0.59 -0.91 9.93 0.00 -0.03 0.06 9033
0.05 0.66 0.64 -0.91 9.98 -0.00 -0.04 0.06 9039
0.06 0.67 0.64 -0.86 9.98 -0.00 -0.03 0.06 9046
0.07 0.65 0.65 -0.88 9.90 -0.00 -0.03 0.06 9053
0.06 0.65 0.59 -0.86 9.99 -0.00 -0.04 0.06 9059
0.06 0.66 0.60 -0.89 9.93 -0.01 -0.03 0.06 9065
0.06 0.68 0.64 -0.91 9.97 -0.00 -0.03 0.06 9071
0.07 0.66 0.62 -0.85 9.92 -0.00 -0.03 0.06 9077
0.06 0.64 0.63 -0.87 9.97 -0.00 -0.03 0.06 9083
0.06 0.64 0.60 -0.87 9.95 -0.00 -0.03 0.05 9090
0.07 0.63 0.60 -0.88 10.01 -0.00 -0.03 0.06 9096
0.06 0.62 0.62 -0.89 9.96 -0.01 -0.03 0.06 9103
0.05 0.61 0.63 -0.89 10.01 -0.01 -0.03 0.06 9109
0.07 0.62 0.61 -0.87 9.97 -0.00 -0.03 0.06 9115
0.05 0.62 0.63 -0.89 9.96 -0.00 -0.03 0.06 9121
0.05 0.61 0.61 -0.87 9.93 -0.00 -0.03 0.06 9127
0.07 0.60 0.62 -0.86 9.97 -0.01 -0.03 0.06 9134
0.07 0.59 0.58 -0.88 9.95 -0.00 -0.03 0.06 9140
0.07 0.57 0.61 -0.86 9.95 -0.00 -0.03 0.06 9147
0.06 0.58 0.63 -0.88 9.93 -0.00 -0.03 0.06 9153
0.07 0.56 0.63 -0.90 9.92 -0.00 -0.07 0.06 9159
0.08 0.55 0.61 -0.87 9.96 -0.00 -0.03 0.06 9165
0.07 0.53 0.61 -0.88 9.95 -0.00 -0.03 0.06 9171
0.07 0.53 0.63 -0.88 9.96 -0.00 -0.03 0.06 9178
0.09 0.52 0.61 -0.88 9.94 -0.00 -0.03 0.06 9184
0.07 0.53 0.61 -0.90 9.95 -0.00 -0.03 0.06 9191
0.07 0.52 0.63 -0.88 9.97 -0.00 -0.03 0.06 9197
0.08 0.51 0.62 -0.86 9.97 -0.00 -0.03 0.06 9203
0.08 0.48 0.62 -0.86 9.95 -0.00 -0.03 0.06 9209
0.08 0.48 0.60 -0.88 9.93 -0.00 -0.03 0.06 9216
0.09 0.48 0.60 -0.88 9.95 -0.00 -0.03 0.06 9222
0.10 0.46 0.61 -0.85 9.98 0.00 -0.03 0.06 9228
0.09 0.46 0.63 -0.87 9.95 0.00 -0.03 0.06 9234
0.09 0.46 0.61 -0.89 9.98 -0.00 -0.03 0.06 9241
0.09 0.46 0.61 -0.88 9.95 -0.00 -0.03 0.06 9247
0.10 0.46 1.22 -0.88 9.91 -0.00 -0.03 0.06 9253
0.10 0.45 0.62 -0.87 9.94 0.00 -0.03 0.06 9260
0.09 0.46 0.59 -0.87 9.96 -0.00 -0.03 0.07 9266
0.10 0.46 0.60 -0.88 9.95 -0.00 -0.04 0.06 9272
0.09 0.46 0.62 -0.87 9.95 -0.00 -0.03 0.06 9278
0.09 0.43 0.59 -0.90 9.96 -0.00 -0.03 0.06 9285
0.09 0.44 0.63 -0.90 9.95 -0.00 -0.03 0.06 9291
0.11 0.43 0.65 -0.87 10.00 0.00 -0.03 0.07 9297
0.10 0.44 0.02 -0.87 9.96 0.00 -0.04 0.06 9304
0.09 0.44 0.63 -0.87 9.98 -0.00 -0.03 0.06 9310
0.10 0.43 0.64 -0.89 9.99 -0.00 -0.03 0.06 9316
0.09 0.44 0.58 -0.91 9.95 -0.00 -0.03 0.06 9322
0.08 0.42 0.64 -0.89 9.95 0.00 -0.03 0.07 9329
0.09 0.45 0.62 -0.90 9.95 -0.00 -0.04 0.06 9335
0.09 0.45 0.59 -0.87 9.96 -0.00 -0.03 0.06 9341
0.08 0.42 0.60 -0.88 9.96 -0.00 -0.03 0.06 9348
0.08 0.42 0.61 -0.90 9.93 -0.00 -0.03 0.06 9354
0.09 0.44 0.59 -0.91 10.04 -0.00 -0.04 0.06 9360
0.08 0.42 0.61 -0.88 10.00 -0.01 -0.03 0.06 9366
0.07 0.41 0.64 -0.87 9.95 -0.00 -0.04 0.06 9373
0.08 0.44 0.62 -0.88 9.98 -0.00 -0.03 0.06 9379
0.08 0.43 0.63 -0.88 9.94 -0.00 -0.04 0.06 9385
0.09 0.41 0.60 -0.90 9.96 -0.00 -0.04 0.06 9392
0.08 0.42 0.60 -0.89 9.99 0.03 -0.03 0.06 9398
0.10 0.42 0.60 -0.89 9.92 -0.00 -0.03 0.06 9404
0.10 0.42 0.62 -0.89 9.96 -0.00 -0.04 0.07 9410
0.09 0.42 0.60 -0.90 9.91 -0.00 -0.03 0.06 9416
0.11 0.42 0.61 -0.91 9.96 -0.01 -0.03 0.06 9423
0.11 0.43 0.60 -0.87 9.94 -0.00 -0.04 0.06 9430
0.11 0.42 0.61 -0.87 9.94 -0.00 -0.03 0.06 9436
0.10 0.43 0.65 -0.86 9.97 -0.00 -0.04 0.06 9442
0.10 0.42 0.61 -0.89 9.99 -0.00 -0.03 0.06 9448
0.11 0.42 0.59 -0.88 9.97 -0.00 -0.03 0.06 9454
0.10 0.42 0.63 -0.89 10.01 -0.00 -0.03 0.06 9461
0.11 0.44 0.59 -0.88 9.98 -0.01 -0.03 0.07 9467
0.10 0.43 0.62 -0.91 9.96 -0.00 -0.04 0.06 9474
0.11 0.43 0.62 -0.92 9.98 -0.01 -0.04 0.06 9480
0.11 0.43 0.60 -0.92 9.94 -0.00 -0.03 0.06 9486
0.11 0.43 0.61 -0.88 9.95 -0.00 -0.03 0.06 9492
0.11 0.44 0.61 -0.89 9.98 -0.01 -0.03 0.07 9498
0.09 0.44 0.63 -0.88 10.01 -0.00 -0.03 0.06 9505
0.11 0.44 0.62 -0.89 9.99 -0.00 -0.03 0.06 9511
0.11 0.43 0.62 -0.89 9.96 -0.00 -0.04 0.07 9518
0.10 0.43 0.65 -0.89 9.95 -0.00 -0.03 0.07 9524
0.11 0.44 0.59 -0.91 9.94 -0.00 -0.03 0.06 9530
0.12 0.44 0.61 -0.88 9.97 -0.00 -0.03 0.06 9536
0.11 0.43 0.61 -0.87 9.93 -0.00 -0.04 0.06 9542
0.11 0.42 0.61 -0.90 9.94 -0.00 -0.03 0.06 9549
0.12 0.43 0.62 -0.86 9.98 -0.00 -0.03 0.06 9555
0.10 0.42 0.59 -0.86 9.97 -0.01 -0.03 0.07 9562
0.09 0.41 0.61 -0.89 9.96 -0.00 -0.00 0.06 9568
0.11 0.41 0.60 -0.91 9.93 -0.00 -0.03 0.07 9574
0.12 0.42 0.63 -0.91 9.97 -0.00 -0.03 0.06 9580
0.11 0.40 0.60 -0.88 9.94 -0.01 -0.03 0.07 9586
0.10 0.41 0.62 -0.88 9.97 -0.00 -0.03 0.06 9593
0.12 0.42 0.62 -0.90 9.96 -0.01 -0.03 0.06 9600
0.11 0.41 0.62 -0.92 9.93 -0.00 -0.03 0.07 9606
0.10 0.41 0.63 -0.91 9.95 -0.00 -0.03 0.06 9612
0.11 0.42 1.20 -0.91 9.93 -0.00 -0.03 0.07 9618
0.11 0.40 0.62 -0.90 9.96 -0.00 -0.03 0.06 9624
0.11 0.41 0.63 -0.88 9.93 -0.00 -0.04 0.06 9630
0.11 0.43 0.59 -0.89 9.97 -0.01 -0.03 0.06 9637
0.12 0.44 0.59 -0.91 9.97 -0.01 -0.03 0.06 9644
0.11 0.42 0.62 -0.87 9.95 -0.01 -0.04 0.06 9650
0.10 0.42 0.58 -0.85 9.95 -0.00 -0.03 0.06 9656
0.11 0.42 0.58 -0.88 9.96 -0.01 -0.03 0.06 9662
0.11 0.40 0.61 -0.88 9.97 -0.01 -0.03 0.06 9668
0.11 0.40 0.63 -0.92 9.94 -0.01 -0.03 0.06 9674
0.11 0.41 0.64 -0.90 10.00 -0.00 -0.03 0.06 9681
0.12 0.40 0.61 -0.87 9.91 -0.01 -0.03 0.06 9688
0.10 0.40 0.62 -0.91 9.96 -0.00 -0.03 0.06 9694
0.11 0.39 0.65 -0.89 9.97 -0.00 -0.04 0.06 9700
0.11 0.40 0.59 -0.92 9.94 -0.00 -0.03 0.06 9706
0.11 0.39 0.63 -0.91 9.99 -0.01 -0.03 0.06 9712
0.10 0.39 0.65 -0.89 9.92 -0.00 -0.03 0.06 9718
0.10 0.39 0.62 -0.90 9.95 -0.01 -0.03 0.06 9725
0.11 0.39 0.63 -0.88 9.92 -0.01 -0.04 0.06 9732
0.11 0.37 0.61 -0.89 9.96 -0.00 -0.04 0.06 9738
0.10 0.37 0.60 -0.89 9.98 -0.00 -0.03 0.06 9744
0.11 0.37 0.60 -0.89 9.97 -0.01 -0.03 0.06 9750
0.11 0.36 0.61 -0.90 9.98 -0.00 -0.03 0.06 9756
0.11 0.35 0.62 -0.91 9.94 -0.00 -0.03 0.06 9762
0.11 0.37 0.64 -0.88 9.93 -0.00 -0.03 0.06 9769
0.10 0.35 0.59 -0.88 9.99 -0.00 -0.03 0.07 9776
0.10 0.35 0.62 -0.90 9.97 -0.00 -0.04 0.06 9782
0.10 0.36 0.59 -0.90 9.97 -0.01 -0.04 0.06 9788
0.10 0.39 0.62 -0.89 9.95 -0.01 -0.03 0.06 9794
0.11 0.38 0.60 -0.93 9.95 -0.00 -0.03 0.06 9800
0.11 0.36 0.59 -0.88 9.94 -0.00 -0.03 0.07 9806
0.11 0.37 0.64 -0.89 9.96 -0.00 -0.03 0.06 9814
0.12 0.37 0.57 -0.90 9.96 -0.00 -0.03 0.06 9820
0.11 0.36 0.61 -0.90 9.95 -0.01 -0.04 0.06 9826
0.11 0.36 0.62 -0.89 9.93 -0.01 -0.03 0.06 9832
0.11 0.37 0.63 -0.89 9.96 -0.00 -0.03 0.07 9838
0.11 0.38 0.63 -0.92 9.96 -0.00 -0.03 0.06 9844
0.10 0.36 0.61 -0.93 9.97 -0.00 -0.03 0.06 9850
0.12 0.37 0.63 -0.90 9.98 -0.00 -0.04 0.06 9858
0.13 0.36 0.61 -0.88 9.97 -0.00 -0.03 0.07 9864
0.13 0.35 0.63 -0.90 9.95 -0.01 -0.03 0.06 9870
0.12 0.35 1.19 -0.90 9.96 -0.00 -0.04 0.06 9876
0.14 0.34 0.61 -0.88 9.99 -0.01 -0.04 0.06 9882
0.13 0.35 0.61 -0.91 9.96 -0.00 -0.03 0.06 9888
0.12 0.35 0.59 -0.92 9.94 -0.00 -0.03 0.06 9894
0.13 0.36 0.62 -0.89 9.97 -0.00 -0.04 0.06 9902
0.14 0.36 0.60 -0.89 10.01 -0.00 -0.03 0.06 9908
0.14 0.35 0.61 -0.89 9.95 -0.00 -0.03 0.06 9914
0.14 0.36 0.58 -0.91 9.94 -0.00 -0.03 0.06 9920
0.15 0.36 0.61 -0.92 9.92 -0.01 -0.03 0.06 9926
0.14 0.34 0.59 -0.88 9.93 -0.00 -0.03 0.06 9932
0.14 0.33 0.64 -0.89 9.99 -0.00 -0.03 0.06 9938
0.15 0.34 0.63 -0.90 9.94 -0.00 -0.03 0.06 9946
0.14 0.33 0.61 -0.93 9.98 -0.01 -0.03 0.06 9952
0.14 0.33 0.61 -0.91 9.95 -0.00 -0.03 0.06 9958
0.15 0.34 0.62 -0.88 9.98 -0.00 -0.03 0.06 9964
0.16 0.33 0.59 -0.89 9.99 -0.00 -0.03 0.06 9970
0.14 0.33 0.60 -0.91 9.98 -0.01 -0.03 0.06 9976
0.14 0.33 0.63 -0.92 9.92 -0.00 -0.07 0.06 9982
0.15 0.34 0.63 -0.90 9.98 -0.00 -0.03 0.06 9990
0.15 0.32 0.64 -0.88 9.98 -0.00 -0.03 0.06 9996
0.14 0.33 0.61 -0.89 9.96 -0.00 -0.04 0.06 10002
0.14 0.35 0.61 -0.92 9.93 -0.01 -0.03 0.06 10008
0.15 0.34 0.60 -0.93 9.93 -0.00 -0.03 0.06 10014
0.14 0.33 0.64 -0.88 9.93 -0.00 -0.03 0.06 10020
0.14 0.35 0.63 -0.89 9.98 -0.01 -0.03 0.06 10028
0.14 0.34 0.63 -0.89 9.93 -0.01 -0.03 0.06 10034
0.13 0.34 0.61 -0.94 9.96 -0.00 -0.03 0.06 10040
0.14 0.36 0.61 -0.89 9.97 -0.01 -0.04 0.06 10046
0.14 0.34 0.02 -0.91 9.92 -0.00 -0.03 0.06 10052
0.13 0.35 0.01 -0.92 9.95 -0.01 -0.03 0.06 10059
0.14 0.37 0.61 -0.89 9.97 -0.00 -0.03 0.06 10065
0.14 0.36 0.59 -0.90 9.97 -0.01 -0.03 0.06 10072
0.13 0.35 0.61 -0.89 9.94 -0.01 -0.03 0.06 10078
0.14 0.37 0.65 -0.88 9.98 -0.01 -0.03 0.06 10084
0.13 0.37 0.65 -0.88 9.97 -0.00 -0.03 0.06 10090
0.13 0.36 0.60 -0.90 9.96 -0.01 -0.03 0.06 10097
0.14 0.38 0.60 -0.90 9.98 -0.00 -0.04 0.07 10103
0.13 0.37 0.64 -0.89 9.94 -0.01 -0.03 0.06 10109
0.12 0.38 0.62 -0.90 9.97 -0.00 -0.03 0.07 10116
0.13 0.40 0.59 -0.90 9.94 -0.01 -0.03 0.06 10122
0.13 0.39 0.60 -0.90 9.99 -0.00 -0.03 0.06 10129
0.13 0.38 1.22 -0.88 9.98 -0.01 -0.06 0.06 10135
0.12 0.40 0.60 -0.88 9.92 -0.01 -0.03 0.06 10141
0.13 0.39 0.62 -0.90 9.94 -0.01 -0.04 0.06 10147
0.12 0.38 0.61 -0.91 9.93 -0.01 -0.03 0.06 10153
0.12 0.40 0.60 -0.91 9.95 -0.01 -0.03 0.06 10161
0.13 0.39 0.59 -0.90 9.94 -0.00 -0.04 0.06 10167
0.12 0.39 0.59 -0.93 9.97 -0.00 -0.03 0.06 10173
0.12 0.41 0.60 -0.91 9.94 -0.01 -0.03 0.06 10179
0.13 0.39 0.59 -0.90 9.97 -0.00 -0.03 0.06 10185
0.12 0.39 0.64 -0.87 9.95 -0.00 -0.04 0.06 10191
0.12 0.40 0.59 -0.93 9.95 -0.00 -0.03 0.06 10199
0.13 0.38 0.61 -0.93 9.98 -0.00 -0.03 0.06 10205
0.12 0.38 0.63 -0.90 9.91 -0.00 -0.03 0.06 10211
0.12 0.41 0.00 -0.91 9.96 -0.00 -0.04 0.06 10217
0.12 0.38 0.63 -0.91 9.97 -0.01 -0.03 0.06 10223
0.12 0.39 0.62 -0.90 9.96 -0.00 -0.03 0.06 10230
0.12 0.40 0.64 -0.90 9.95 -0.00 -0.04 0.06 10236
0.13 0.39 0.62 -0.88 9.95 -0.01 -0.03 0.06 10243
0.12 0.38 0.64 -0.92 9.97 -0.01 -0.04 0.06 10249
0.13 0.40 0.63 -0.90 9.98 -0.00 -0.03 0.06 10255
0.13 0.39 0.62 -0.91 9.99 -0.00 -0.03 0.06 10261
0.12 0.39 0.61 -0.90 9.96 -0.01 -0.03 0.06 10268
0.12 0.40 0.61 -0.89 9.96 -0.01 -0.03 0.06 10274
0.11 0.40 0.60 -0.93 9.97 -0.01 -0.03 0.06 10280
0.12 0.39 0.61 -0.90 10.00 -0.01 -0.03 0.06 10287
0.13 0.40 0.60 -0.92 9.95 -0.01 -0.03 0.06 10293
0.13 0.40 1.22 -0.90 10.00 -0.01 -0.07 0.06 10300
0.12 0.41 0.62 -0.87 9.98 -0.01 -0.03 0.06 10306
0.13 0.41 0.62 -0.89 9.92 -0.01 -0.03 0.06 10312
0.12 0.41 0.63 -0.87 9.97 -0.01 -0.04 0.06 10318
0.12 0.41 0.63 -0.89 9.96 -0.01 -0.03 0.07 10324
0.14 0.41 0.59 -0.89 9.99 -0.00 -0.03 0.06 10332
0.13 0.40 0.63 -0.88 9.97 -0.01 -0.04 0.06 10338
0.12 0.41 0.61 -0.88 9.96 -0.01 -0.03 0.06 10344
0.13 0.42 0.61 -0.91 9.97 -0.01 -0.03 0.06 10350
0.12 0.41 0.59 -0.90 9.96 -0.00 -0.04 0.06 10356
0.12 0.42 0.62 -0.89 9.96 -0.00 -0.03 0.06 10363
0.13 0.42 0.60 -0.89 9.96 -0.00 -0.03 0.06 10370
0.12 0.42 0.63 -0.90 9.97 -0.00 -0.03 0.06 10376
0.12 0.43 0.61 -0.88 10.00 -0.00 -0.03 0.06 10382
0.13 0.43 0.62 -0.91 9.98 -0.01 -0.03 0.06 10388
0.12 0.42 0.62 -0.92 9.94 -0.01 -0.04 0.06 10395
0.12 0.45 0.63 -0.89 9.93 -0.01 -0.03 0.06 10401
0.12 0.46 0.59 -0.90 9.91 -0.01 -0.03 0.06 10407
0.12 0.44 0.63 -0.86 9.99 -0.01 -0.04 0.06 10414
0.12 0.46 0.59 -0.87 9.95 -0.01 -0.03 0.06 10420
0.13 0.46 0.61 -0.89 9.98 -0.01 -0.04 0.06 10427
0.12 0.45 0.62 -0.91 9.95 -0.01 -0.03 0.06 10433
0.12 0.45 0.62 -0.88 9.98 -0.01 -0.04 0.06 10439
0.12 0.47 0.57 -0.92 9.96 -0.01 -0.03 0.06 10445
0.12 0.47 0.60 -0.84 9.94 -0.01 -0.03 0.06 10451
0.11 0.49 0.63 -0.88 9.96 -0.01 -0.03 0.07 10459
0.12 0.49 0.62 -0.89 9.99 -0.01 -0.03 0.06 10465
0.12 0.49 0.60 -0.86 9.98 -0.01 -0.03 0.06 10471
0.12 0.50 1.20 -0.89 9.91 -0.01 -0.03 0.06 10477
0.12 0.50 0.60 -0.87 9.89 -0.01 -0.03 0.07 10483
0.11 0.50 0.57 -0.92 9.96 -0.01 -0.03 0.06 10489
0.12 0.52 0.61 -0.89 9.93 -0.01 -0.03 0.06 10497
0.11 0.51 0.64 -0.90 9.96 -0.01 -0.03 0.06 10503
0.11 0.50 0.62 -0.90 9.94 -0.01 -0.03 0.06 10509
0.12 0.53 0.62 -0.86 9.96 -0.01 -0.03 0.06 10515
0.12 0.53 0.62 -0.91 9.96 -0.01 -0.03 0.06 10521
0.10 0.52 0.64 -0.88 9.93 -0.01 -0.04 0.06 10528
0.12 0.53 0.63 -0.89 9.94 -0.01 -0.03 0.06 10534
0.12 0.51 0.62 -0.86 9.94 -0.01 -0.03 0.06 10541
0.11 0.52 0.61 -0.87 9.95 -0.01 -0.03 0.06 10547
0.12 0.54 0.62 -0.89 9.94 -0.01 -0.03 0.06 10553
0.12 0.54 0.60 -0.92 9.94 -0.00 -0.03 0.06 10560
0.11 0.55 0.59 -0.88 10.00 -0.01 -0.04 0.07 10566
0.12 0.55 0.61 -0.89 9.93 -0.00 -0.03 0.06 10572
0.12 0.55 0.61 -0.88 9.95 -0.00 -0.03 0.06 10578
0.11 0.55 0.63 -0.89 9.94 -0.01 -0.03 0.06 10585
0.12 0.55 0.59 -0.91 9.95 -0.00 -0.03 0.06 10592
0.11 0.55 0.61 -0.90 9.97 -0.00 -0.03 0.06 10598
0.10 0.55 0.61 -0.88 9.94 -0.00 -0.03 0.06 10604
0.12 0.55 0.60 -0.89 9.97 -0.00 -0.03 0.06 10610
0.12 0.54 0.59 -0.86 9.95 -0.01 -0.03 0.06 10616
0.11 0.55 0.57 -0.88 9.97 -0.00 -0.04 0.06 10622
0.13 0.55 0.57 -0.90 9.93 -0.00 -0.03 0.07 10630
0.12 0.54 0.60 -0.88 9.99 -0.01 -0.03 0.07 10636
0.11 0.55 0.62 -0.92 9.96 -0.00 -0.03 0.06 10642
0.13 0.56 0.61 -0.88 10.01 -0.01 -0.07 0.07 10648
0.12 0.54 0.00 -0.91 9.92 -0.00 -0.03 0.06 10654
0.12 0.55 0.64 -0.86 10.00 -0.00 -0.03 0.06 10661
0.13 0.55 0.61 -0.89 9.92 -0.00 -0.03 0.06 10668
0.12 0.54 0.63 -0.91 9.94 -0.01 -0.03 0.07 10674
0.12 0.55 0.61 -0.86 9.97 -0.00 -0.04 0.06 10680
0.12 0.53 0.60 -0.85 9.95 -0.00 -0.03 0.06 10686
0.12 0.52 0.61 -0.91 9.91 -0.00 -0.04 0.07 10693
0.12 0.54 0.63 -0.92 9.95 -0.00 -0.04 0.06 10699
0.12 0.53 0.58 -0.89 9.96 -0.00 -0.03 0.06 10705
0.12 0.52 0.62 -0.86 9.93 -0.01 -0.04 0.07 10712
0.12 0.54 0.59 -0.88 9.98 -0.00 -0.03 0.06 10718
0.12 0.53 0.60 -0.89 9.96 -0.00 -0.03 0.06 10725
0.13 0.52 0.62 -0.86 9.96 -0.01 -0.04 0.07 10731
0.13 0.53 0.58 -0.87 9.97 -0.01 -0.04 0.06 10737
0.13 0.53 0.59 -0.83 9.95 -0.01 -0.04 0.06 10743
0.12 0.52 0.59 -0.87 9.98 -0.00 -0.04 0.06 10749
0.13 0.53 0.58 -0.86 9.92 -0.01 -0.04 0.07 10757
0.13 0.53 0.61 -0.90 9.98 -0.00 -0.03 0.06 10763
0.13 0.52 0.60 -0.89 9.98 -0.00 -0.04 0.06 10769
0.13 0.53 0.62 -0.87 9.95 -0.00 -0.03 0.06 10775
0.14 0.52 0.59 -0.88 9.97 -0.01 -0.03 0.06 10781
0.12 0.53 0.59 -0.88 9.95 -0.01 -0.03 0.07 10788
0.14 0.53 0.59 -0.89 9.93 -0.01 -0.04 0.07 10795
0.14 0.52 0.58 -0.90 9.94 -0.00 -0.03 0.06 10801
0.13 0.51 0.56 -0.92 9.96 -0.00 -0.03 0.06 10807
0.14 0.53 0.59 -0.88 9.94 -0.01 -0.03 0.07 10813
0.13 0.51 0.61 -0.87 9.93 -0.00 -0.03 0.06 10819
0.12 0.52 0.60 -0.89 9.95 -0.01 -0.03 0.07 10826
0.14 0.52 0.64 -0.88 9.95 -0.01 -0.03 0.07 10832
0.14 0.52 0.60 -0.89 9.97 -0.00 -0.03 0.06 10839
0.13 0.53 0.60 -0.89 9.93 -0.00 -0.03 0.10 10845
0.14 0.53 0.62 -0.87 9.98 -0.01 -0.03 0.07 10851
0.13 0.52 0.59 -0.85 9.94 -0.00 -0.03 0.07 10858
0.12 0.52 0.59 -0.88 9.96 -0.01 -0.03 0.06 10864
0.13 0.52 0.62 -0.90 9.94 -0.00 -0.03 0.06 10870
0.13 0.52 0.61 -0.91 9.95 -0.01 -0.03 0.07 10876
0.12 0.52 0.62 -0.87 9.94 -0.00 -0.03 0.07 10883
0.13 0.52 0.59 -0.89 9.96 -0.00 -0.03 0.06 10890
0.13 0.51 0.65 -0.90 9.96 -0.00 -0.04 0.06 10896
0.12 0.51 0.60 -0.91 9.91 -0.00 -0.03 0.06 10902
0.13 0.51 0.63 -0.89 9.91 -0.00 -0.03 0.07 10908
0.12 0.51 0.60 -0.89 9.94 -0.00 -0.06 0.06 10914
0.11 0.51 0.61 -0.86 9.94 -0.01 -0.03 0.07 10921
0.14 0.51 0.60 -0.90 9.97 -0.00 -0.03 0.07 10928
0.12 0.51 0.61 -0.91 9.97 -0.00 -0.03 0.06 10934
0.11 0.50 0.62 -0.91 9.96 -0.01 -0.03 0.06 10940
0.13 0.51 0.64 -0.90 9.96 -0.00 -0.03 0.07 10946
0.12 0.50 0.61 -0.89 9.98 -0.01 -0.03 0.07 10952
0.12 0.51 0.62 -0.89 9.96 -0.00 -0.03 0.07 10959
0.14 0.51 0.59 -0.89 9.98 -0.00 -0.03 0.07 10966
0.13 0.49 0.60 -0.88 9.97 -0.00 -0.03 0.07 10972
0.13 0.50 0.63 -0.92 9.97 -0.01 -0.03 0.06 10978
0.14 0.51 0.62 -0.87 9.92 -0.00 -0.03 0.06 10984
0.13 0.50 0.00 -0.87 10.02 -0.00 -0.04 0.06 10991
0.12 0.51 1.20 -0.88 9.98 -0.00 -0.03 0.06 10997
0.14 0.50 0.62 -0.89 9.96 -0.01 -0.03 0.06 11003
0.13 0.50 0.57 -0.90 9.95 -0.00 -0.03 0.06 11010
0.13 0.50 0.63 -0.91 9.96 -0.00 -0.03 0.06 11016
0.14 0.50 0.61 -0.89 9.96 -0.00 -0.03 0.06 11023
0.13 0.50 0.58 -0.89 9.97 -0.00 -0.03 0.06 11029
0.12 0.50 0.61 -0.90 9.96 -0.00 -0.04 0.06 11035
0.14 0.49 0.62 -0.89 9.97 -0.00 -0.04 0.07 11041
0.13 0.49 0.61 -0.86 9.95 -0.00 -0.04 0.07 11047
0.13 0.50 0.60 -0.88 9.92 -0.00 -0.04 0.06 11054
0.13 0.50 0.60 -0.90 9.99 -0.00 -0.03 0.06 11061
0.13 0.49 0.64 -0.87 9.97 -0.00 -0.04 0.06 11067
0.13 0.49 0.01 -0.89 9.95 -0.00 -0.03 0.06 11073
0.14 0.50 0.62 -0.87 9.90 -0.00 -0.03 0.06 11079
0.13 0.49 0.62 -0.89 9.97 -0.00 -0.04 0.06 11085
0.13 0.49 0.62 -0.88 9.97 -0.00 -0.03 0.06 11092
0.14 0.49 0.60 -0.87 9.98 -0.00 -0.04 0.06 11099
0.13 0.50 0.62 -0.88 9.97 -0.01 -0.03 0.07 11105
0.13 0.49 0.63 -0.91 9.96 -0.01 -0.03 0.07 11111
0.14 0.49 0.61 -0.91 9.96 -0.01 -0.03 0.06 11117
0.13 0.49 0.61 -0.88 9.96 -0.01 -0.03 0.06 11124
0.12 0.50 0.62 -0.89 9.96 -0.00 -0.03 0.06 11130
0.13 0.50 0.59 -0.92 9.97 -0.00 -0.03 0.06 11137
0.12 0.50 0.59 -0.86 9.95 -0.00 -0.03 0.06 11143
0.12 0.50 0.62 -0.91 9.92 -0.00 -0.03 0.06 11149
0.14 0.50 0.63 -0.88 9.95 -0.01 -0.03 0.06 11155
0.12 0.50 0.61 -0.87 9.89 -0.00 -0.03 0.06 11162
0.10 0.50 0.62 -0.90 10.02 -0.00 -0.03 0.06 11168
0.11 0.51 0.61 -0.87 9.92 -0.01 -0.03 0.06 11174
0.11 0.50 0.60 -0.91 9.95 -0.00 -0.03 0.06 11181
0.10 0.51 0.61 -0.87 9.95 -0.00 -0.03 0.06 11187
0.11 0.52 0.60 -0.86 9.96 -0.00 -0.03 0.06 11194
0.11 0.51 0.62 -0.88 9.98 -0.01 -0.03 0.06 11200
0.10 0.52 0.62 -0.90 9.97 -0.01 -0.03 0.06 11206
0.10 0.53 0.61 -0.89 9.96 -0.01 -0.03 0.06 11212
0.10 0.52 0.62 -0.88 9.98 -0.00 -0.03 0.06 11218
0.10 0.53 0.61 -0.88 9.99 -0.01 -0.03 0.06 11226
0.10 0.54 0.66 -0.89 9.92 -0.01 -0.03 0.06 11232
0.10 0.53 0.63 -0.90 9.97 -0.01 -0.03 0.06 11238
0.10 0.54 0.61 -0.91 9.88 -0.01 -0.03 0.06 11244
0.11 0.54 0.64 -0.88 9.99 -0.00 -0.03 0.06 11250
0.10 0.55 0.63 -0.89 9.96 -0.01 -0.03 0.06 11256
0.09 0.57 0.60 -0.91 9.95 -0.01 -0.03 0.06 11264
0.10 0.56 0.62 -0.89 9.94 -0.01 -0.03 0.07 11270
0.10 0.54 0.61 -0.89 9.97 -0.01 -0.03 0.06 11276
0.09 0.55 0.62 -0.91 9.97 -0.01 -0.04 0.07 11282
0.10 0.57 0.59 -0.86 9.96 -0.01 -0.03 0.06 11288
0.10 0.54 0.65 -0.89 9.95 -0.01 -0.03 0.06 11295
0.10 0.54 0.62 -0.89 9.93 -0.01 -0.03 0.06 11301
0.10 0.56 0.58 -0.87 9.94 -0.01 -0.03 0.06 11308
0.10 0.54 0.61 -0.90 9.97 -0.01 -0.03 0.06 11314
0.10 0.56 0.63 -0.88 9.93 -0.01 -0.03 0.06 11320
0.10 0.55 0.62 -0.91 9.95 -0.00 -0.07 0.06 11327
0.10 0.55 0.61 -0.89 9.98 -0.01 -0.03 0.06 11333
0.09 0.57 0.61 -0.88 9.99 -0.00 -0.03 0.06 11339
0.10 0.57 0.60 -0.91 9.98 -0.01 -0.03 0.06 11345
0.09 0.56 0.64 -0.87 9.96 -0.01 -0.03 0.07 11352
0.09 0.57 0.59 -0.90 9.97 -0.00 -0.03 0.06 11358
0.10 0.56 0.62 -0.92 9.96 -0.01 -0.04 0.06 11365
0.10 0.55 0.62 -0.86 9.96 -0.00 -0.04 0.06 11371
0.10 0.56 0.59 -0.86 9.92 -0.00 -0.03 0.06 11377
0.11 0.56 0.60 -0.89 9.93 -0.00 -0.03 0.06 11383
0.11 0.54 0.62 -0.90 9.98 0.00 -0.03 0.06 11389
0.10 0.55 0.58 -0.92 10.00 -0.00 -0.04 0.07 11397
0.11 0.55 0.02 -0.87 9.98 0.00 -0.04 0.06 11403
0.10 0.53 0.63 -0.92 9.95 -0.00 -0.03 0.06 11409
0.11 0.55 0.61 -0.85 9.95 -0.00 -0.03 0.07 11415
0.11 0.53 0.66 -0.91 9.98 -0.00 -0.03 0.07 11421
0.11 0.53 0.61 -0.87 9.97 -0.00 -0.03 0.06 11428
0.11 0.54 0.59 -0.87 9.94 -0.00 -0.03 0.07 11435
0.11 0.54 0.60 -0.91 9.97 -0.00 -0.03 0.07 11441
0.12 0.53 0.62 -0.90 9.91 -0.00 -0.03 0.06 11447
0.11 0.54 0.59 -0.90 9.97 -0.00 -0.03 0.06 11453
0.13 0.53 0.59 -0.87 9.96 -0.00 -0.03 0.06 11459
0.11 0.52 0.61 -0.87 9.92 -0.00 -0.03 0.06 11466
0.12 0.54 0.62 -0.86 9.94 -0.01 -0.03 0.07 11472
0.13 0.53 0.59 -0.86 9.95 -0.01 -0.03 0.07 11479
0.12 0.52 0.60 -0.89 9.92 -0.00 -0.03 0.07 11485
0.12 0.53 0.63 -0.87 9.88 -0.01 -0.03 0.06 11491
0.13 0.53 0.61 -0.88 9.88 -0.01 -0.03 0.07 11498
0.12 0.52 0.61 -0.89 9.93 -0.01 -0.03 0.07 11504
0.13 0.53 0.65 -0.89 9.94 -0.01 -0.03 0.07 11510
0.13 0.53 0.63 -0.87 9.97 -0.01 -0.03 0.07 11516
0.11 0.53 0.61 -0.85 9.98 -0.01 -0.03 0.07 11523
0.13 0.54 0.61 -0.86 9.96 -0.01 -0.03 0.07 11530
0.13 0.53 0.59 -0.89 9.96 -0.01 -0.03 0.07 11536
0.11 0.53 0.61 -0.86 9.94 -0.01 -0.03 0.07 11542
0.13 0.54 0.60 -0.86 9.98 -0.00 -0.03 0.07 11548
0.13 0.53 0.62 -0.86 9.98 -0.01 -0.03 0.07 11554
0.12 0.54 0.59 -0.89 9.99 -0.01 -0.02 0.07 11561
0.14 0.54 0.60 -0.85 9.91 -0.01 -0.02 0.07 11568
0.13 0.54 0.01 -0.87 9.98 -0.01 -0.03 0.08 11574
0.13 0.54 0.61 -0.87 9.93 -0.00 -0.03 0.08 11580
0.13 0.55 0.60 -0.85 9.93 -0.01 -0.03 0.08 11586
0.14 0.53 0.62 -0.86 9.96 -0.00 -0.03 0.08 11593
0.14 0.53 0.60 -0.84 9.97 -0.00 -0.03 0.07 11599
0.15 0.54 0.64 -0.84 9.94 -0.00 -0.03 0.07 11606
0.15 0.53 0.62 -0.88 9.95 -0.00 -0.03 0.07 11612
0.14 0.51 0.59 -0.86 9.93 -0.01 -0.03 0.07 11618
0.16 0.53 0.62 -0.84 9.92 -0.00 -0.03 0.07 11624
0.15 0.52 0.64 -0.89 9.95 -0.00 -0.03 0.07 11631
0.15 0.52 0.61 -0.89 9.94 -0.01 -0.02 0.08 11637
0.17 0.52 0.59 -0.90 9.95 -0.01 -0.03 0.08 11643
0.17 0.51 0.60 -0.85 9.96 -0.00 -0.03 0.08 11650
0.15 0.50 0.65 -0.87 9.93 -0.00 -0.03 0.07 11656
0.17 0.50 0.60 -0.89 9.94 -0.00 -0.03 0.07 11663
0.17 0.48 0.62 -0.84 9.94 -0.00 -0.03 0.07 11669
0.16 0.48 0.61 -0.84 9.92 0.00 -0.03 0.08 11675
0.17 0.48 0.66 -0.87 9.96 -0.01 -0.03 0.08 11681
0.17 0.48 0.60 -0.90 9.94 -0.01 -0.03 0.08 11687
0.16 0.48 0.62 -0.87 9.92 -0.00 -0.03 0.08 11695
0.18 0.48 0.61 -0.86 9.93 -0.00 -0.03 0.07 11701
0.18 0.47 0.59 -0.87 9.93 -0.00 -0.03 0.08 11707
0.17 0.47 0.62 -0.87 9.95 -0.00 -0.03 0.08 11713
0.18 0.47 0.63 -0.86 9.95 -0.01 -0.03 0.07 11719
0.18 0.47 0.65 -0.84 9.96 -0.00 -0.03 0.08 11725
0.18 0.47 0.58 -0.88 9.97 -0.00 -0.03 0.08 11732
0.19 0.46 1.20 -0.86 9.92 -0.00 -0.03 0.08 11739
0.18 0.47 0.59 -0.85 9.98 0.00 -0.03 0.08 11745
0.18 0.44 0.60 -0.86 9.96 -0.00 -0.03 0.07 11751
0.20 0.45 0.62 -0.86 9.96 -0.00 -0.03 0.07 11757
0.18 0.46 0.59 -0.85 9.91 -0.00 -0.03 0.08 11764
0.18 0.45 0.60 -0.86 9.96 -0.00 -0.03 0.08 11770
0.20 0.46 0.63 -0.87 9.95 0.00 -0.03 0.07 11777
0.19 0.44 0.63 -0.89 9.93 0.00 -0.03 0.08 11783
0.20 0.43 0.59 -0.85 9.96 0.00 -0.03 0.08 11789
0.22 0.41 0.62 -0.86 9.95 -0.00 -0.03 0.08 11795
0.21 0.39 0.62 -0.89 9.98 0.00 -0.03 0.07 11802
0.20 0.38 0.64 -0.86 9.93 0.01 -0.04 0.08 11808
0.21 0.38 0.61 -0.86 10.00 0.00 -0.04 0.07 11814
0.21 0.37 0.62 -0.86 9.93 0.00 -0.04 0.07 11821
0.19 0.36 0.63 -0.88 9.92 0.00 -0.03 0.07 11827
0.22 0.32 0.62 -0.89 9.96 -0.00 -0.04 0.07 11834
0.21 0.29 0.63 -0.89 9.97 0.00 -0.04 0.08 11840
0.21 0.29 0.61 -0.87 9.96 0.01 -0.04 0.07 11846
0.22 0.27 0.64 -0.86 9.97 0.01 -0.04 0.07 11852
0.21 0.23 0.64 -0.90 9.93 0.00 -0.04 0.07 11858
0.21 0.22 0.62 -0.86 9.95 0.01 -0.04 0.07 11866
0.22 0.25 0.63 -0.90 9.94 0.01 -0.04 0.07 11872
0.20 0.23 0.64 -0.90 9.92 0.01 -0.04 0.07 11878
0.20 0.20 0.63 -0.89 9.94 0.01 -0.04 0.07 11884
0.21 0.19 0.00 -0.89 9.92 0.01 -0.04 0.07 11890
0.21 0.17 0.63 -0.90 9.93 0.01 -0.04 0.07 11896
0.19 0.16 0.62 -0.90 9.97 0.01 -0.04 0.06 11904
0.21 0.11 0.64 -0.91 9.91 0.01 -0.04 0.07 11910
0.20 0.13 0.65 -0.88 9.99 0.01 -0.04 0.03 11916
0.19 0.16 0.64 -0.93 9.98 0.02 -0.05 0.06 11922
0.19 0.12 0.63 -0.95 9.93 0.01 -0.04 0.06 11928
0.19 0.09 0.65 -0.91 9.96 0.02 -0.05 0.06 11935
0.18 0.10 0.63 -0.90 9.96 0.01 -0.04 0.06 11941
0.19 0.06 0.64 -0.92 9.96 0.02 -0.05 0.06 11948
0.18 0.06 0.62 -0.97 9.96 0.01 -0.05 0.05 11954
0.16 0.06 0.64 -0.93 9.93 0.01 -0.05 0.06 11960
0.16 0.06 0.65 -0.91 9.98 0.01 -0.05 0.06 11966
0.16 0.05 0.66 -0.93 9.98 0.01 -0.05 0.05 11973
0.16 0.05 0.69 -0.93 9.96 0.01 -0.05 0.05 11979
0.16 0.05 0.65 -0.97 9.98 0.02 -0.05 0.05 11985
0.17 0.04 0.68 -0.96 9.97 0.02 -0.05 0.05 11992
0.16 0.02 0.63 -0.96 9.98 0.02 -0.05 0.05 11998
0.17 0.03 0.67 -0.95 10.14 0.02 -0.05 0.05 12005
0.16 0.02 0.71 -0.97 9.96 0.02 -0.06 0.05 12011
0.16 0.02 0.65 -0.97 9.96 0.02 -0.05 0.05 12017
0.17 0.03 0.63 -0.98 9.96 0.02 -0.06 0.05 12023
0.17 -0.00 0.62 -0.97 9.93 0.03 -0.06 0.04 12029
0.16 -0.02 0.65 -0.94 9.94 0.02 -0.05 0.04 12036
0.16 -0.00 0.62 -0.93 10.00 0.02 -0.05 0.04 12043
0.16 -0.01 0.67 -0.98 10.00 0.02 -0.05 0.04 12049
0.14 0.01 0.64 -0.99 9.99 0.02 -0.05 0.04 12055
0.16 -0.01 0.70 -1.04 9.93 0.02 -0.05 0.04 12061
0.16 -0.02 0.63 -1.01 10.01 0.02 -0.05 0.04 12067
0.15 -0.01 0.65 -1.06 9.98 0.02 -0.05 0.04 12073
0.15 -0.01 0.69 -0.94 10.03 0.03 -0.05 0.03 12081
0.16 -0.02 0.68 -0.96 9.98 0.03 -0.05 0.03 12087
0.16 -0.02 0.70 -1.08 9.97 0.03 -0.05 0.02 12093
0.15 -0.02 0.68 -0.87 10.15 0.04 -0.04 0.01 12099
0.16 -0.01 0.85 -1.03 9.94 0.05 -0.03 0.01 12105
0.15 -0.02 0.03 -0.79 10.10 0.08 -0.02 0.00 12112
0.16 -0.01 1.17 -1.04 10.06 0.10 -0.02 0.01 12119
0.16 -0.02 0.64 -1.09 10.09 0.13 -0.03 0.02 12125
0.15 -0.01 0.67 -1.01 10.12 0.16 -0.03 0.02 12131
0.16 -0.01 0.68 -1.09 10.11 0.18 -0.03 0.02 12137
0.16 -0.02 0.86 -1.19 10.31 0.18 -0.03 0.02 12144
0.16 -0.02 0.72 -1.09 10.09 0.19 -0.03 0.02 12150
0.15 -0.01 0.59 -1.15 10.14 0.20 -0.02 0.02 12156
0.15 -0.02 0.61 -1.15 10.19 0.21 -0.04 0.02 12163
0.15 -0.01 0.61 -1.31 10.65 0.21 -0.04 0.02 12169
0.15 -0.01 0.68 -1.35 10.34 0.24 -0.02 0.01 12176
0.14 -0.01 0.52 -1.14 10.23 0.26 -0.01 0.02 12182
0.13 -0.01 0.71 -1.24 10.24 0.28 0.00 0.02 12188
0.13 -0.01 0.67 -1.24 10.16 0.29 -0.00 0.02 12194
0.12 -0.01 0.64 -1.26 10.31 0.30 0.00 0.02 12200
0.11 -0.01 0.47 -1.35 10.06 0.30 0.00 0.02 12208
0.11 -0.01 0.70 -1.31 10.15 0.31 -0.01 0.02 12214
0.10 -0.01 0.73 -1.43 9.94 0.30 -0.00 0.02 12220
0.09 -0.01 0.71 -1.43 9.92 0.28 0.01 0.02 12226
0.10 -0.00 0.67 -1.44 9.81 0.24 0.03 0.03 12232
0.09 -0.01 0.71 -1.47 9.78 0.19 0.05 0.03 12238
0.08 -0.01 0.62 -1.54 9.85 0.14 0.07 0.04 12244
0.08 -0.01 0.19 -1.69 10.02 0.09 0.09 0.07 12252
0.06 -0.01 -0.53 -1.58 9.67 0.04 0.06 0.15 12258
0.08 -0.01 -0.72 -1.81 10.02 -0.01 -0.02 0.29 12264
0.06 -0.01 -0.56 -3.19 10.26 -0.07 -0.23 0.48 12270
0.07 -0.01 -0.59 -5.05 10.91 -0.17 -0.48 0.65 12276
0.06 -0.01 -0.44 -5.42 13.15 -0.26 -0.81 0.75 12283
0.04 -0.00 -0.14 -4.05 12.25 -0.33 -1.06 0.86 12290
0.05 -0.01 -0.14 -3.62 10.89 -0.36 -1.11 0.91 12296
0.04 -0.00 0.30 -3.36 9.98 -0.43 -1.05 0.95 12302
0.04 -0.00 0.41 -3.28 9.56 -0.47 -0.96 0.93 12308
0.05 -0.01 0.29 -3.47 9.45 -0.43 -0.84 0.87 12314
0.05 -0.00 0.24 -3.68 9.48 -0.35 -0.70 0.77 12321
0.04 -0.00 0.03 -3.71 9.46 -0.25 -0.57 0.63 12327
0.05 -0.00 -0.20 -3.42 9.36 -0.11 -0.45 0.49 12334
0.05 0.00 -0.52 -3.12 9.36 -0.05 -0.35 0.34 12340
0.04 0.00 -0.70 -2.84 9.37 0.02 -0.24 0.20 12346
0.03 0.00 -0.92 -2.66 9.59 0.07 -0.22 0.06 12352
0.03 -0.00 -1.17 -2.46 9.86 0.10 -0.19 -0.03 12359
0.03 -0.00 -1.32 -2.25 10.04 0.13 -0.20 -0.15 12365
0.04 -0.00 -1.31 -2.01 10.09 0.14 -0.24 -0.25 12371
0.04 -0.00 -1.20 -1.79 10.12 0.13 -0.29 -0.34 12378
0.02 -0.00 -1.02 -1.68 10.09 0.12 -0.32 -0.42 12384
0.04 -0.00 -0.81 -1.65 10.13 0.10 -0.31 -0.49 12391
0.03 -0.00 -0.62 -1.58 10.23 0.09 -0.28 -0.56 12397
0.03 -0.00 -0.51 -1.49 10.30 0.08 -0.22 -0.61 12403
0.05 -0.00 -0.51 -1.39 10.23 0.07 -0.18 -0.66 12409
0.03 -0.00 -0.55 -1.26 10.09 0.06 -0.15 -0.70 12416
0.04 -0.00 -0.58 -1.20 9.93 0.04 -0.15 -0.73 12423
0.06 -0.01 -0.61 -1.17 9.85 0.03 -0.20 -0.75 12429
0.05 -0.00 -0.59 -1.19 9.69 0.02 -0.20 -0.77 12435
0.03 -0.00 -0.46 -1.17 9.62 0.02 -0.23 -0.78 12441
0.04 0.00 -0.34 -1.16 9.43 0.03 -0.27 -0.79 12447
0.05 -0.00 -0.14 -1.18 9.31 0.05 -0.29 -0.80 12453
0.05 -0.00 0.03 -1.20 9.19 0.07 -0.30 -0.82 12460
0.04 0.00 0.20 -1.19 9.03 0.10 -0.30 -0.83 12467
0.05 -0.00 0.45 -1.13 9.06 0.12 -0.28 -0.84 12473
0.05 -0.00 1.19 -1.08 9.32 0.13 -0.22 -0.85 12479
0.04 -0.00 0.82 -0.98 9.65 0.14 -0.15 -0.86 12485
0.05 -0.01 0.91 -0.91 9.95 0.11 -0.05 -0.86 12491
0.05 -0.01 0.98 -0.79 10.12 0.06 0.06 -0.87 12497
0.05 -0.00 0.92 -0.66 10.28 -0.01 0.17 -0.87 12505
0.06 -0.01 0.70 -0.66 10.23 -0.10 0.26 -0.86 12511
0.06 -0.01 0.30 -0.65 10.13 -0.17 0.31 -0.86 12517
0.05 -0.00 -0.06 -0.76 9.99 -0.23 0.32 -0.84 12523
0.06 -0.01 -0.38 -0.79 9.91 -0.28 0.29 -0.82 12529
0.06 -0.01 -0.68 -0.83 9.95 -0.30 0.22 -0.80 12535
0.05 -0.01 -0.85 -0.85 9.96 -0.33 0.12 -0.78 12542
0.06 -0.00 -0.87 -0.97 10.02 -0.36 0.02 -0.77 12549
0.06 -0.01 -0.70 -1.01 9.93 -0.38 -0.08 -0.75 12555
0.05 -0.00 -0.48 -1.08 9.87 -0.40 -0.16 -0.75 12561
0.06 -0.01 -0.23 -1.19 9.75 -0.40 -0.21 -0.74 12567
0.06 -0.01 0.10 -1.23 9.58 -0.39 -0.20 -0.75 12573
0.06 -0.01 0.26 -1.32 9.57 -0.37 -0.15 -0.76 12580
0.05 -0.01 0.35 -1.37 9.55 -0.34 -0.08 -0.76 12587
0.06 -0.01 0.30 -1.36 9.73 -0.32 -0.01 -0.76 12593
0.05 -0.00 0.20 -1.27 9.88 -0.30 0.04 -0.76 12599
0.03 -0.00 0.11 -1.21 9.83 -0.30 0.05 -0.76 12605
0.04 0.00 0.09 -1.22 9.82 -0.30 0.03 -0.75 12611
0.04 -0.00 0.10 -1.29 9.70 -0.31 -0.01 -0.75 12617
0.04 -0.00 0.21 -1.41 9.54 -0.30 -0.05 -0.75 12624
0.04 -0.00 0.44 -1.53 9.39 -0.28 -0.08 -0.76 12631
0.05 -0.00 0.60 -1.64 9.22 -0.23 -0.07 -0.77 12637
0.04 -0.00 0.75 -1.74 9.13 -0.18 -0.04 -0.78 12643
0.03 -0.00 0.76 -1.78 8.96 -0.11 0.02 -0.80 12649
0.05 -0.00 0.70 -1.80 8.92 -0.03 0.09 -0.81 12655
0.05 -0.00 0.60 -1.83 8.87 0.05 0.14 -0.81 12661
0.05 -0.00 0.45 -1.86 8.98 0.14 0.18 -0.80 12668
0.05 -0.00 0.34 -1.85 9.04 0.23 0.19 -0.79 12675
0.06 -0.01 0.28 -1.84 9.02 0.31 0.18 -0.76 12681
0.05 -0.01 0.25 -1.84 8.98 0.40 0.15 -0.73 12687
0.04 -0.00 0.31 -1.92 8.86 0.50 0.10 -0.69 12693
0.05 -0.01 0.34 -1.90 8.66 0.62 0.04 -0.65 12699
0.06 -0.01 0.44 -2.05 8.45 0.71 -0.03 -0.61 12705
0.06 -0.01 0.56 -1.96 8.53 0.84 -0.08 -0.56 12712
0.06 -0.01 0.93 -1.73 8.84 0.96 -0.20 -0.50 12719
0.07 -0.01 0.84 -0.98 9.55 1.05 -0.41 -0.42 12725
0.06 -0.01 0.98 0.57 11.28 1.02 -0.81 -0.25 12731
0.05 -0.00 0.38 2.65 13.10 0.82 -1.44 0.05 12737
0.06 -0.01 18.06 15.76 2.57 0.45 -2.11 0.49 12743
0.06 -0.01 8.07 9.04 14.40 -0.40 0.04 0.58 12750
0.06 -0.01 3.16 0.56 9.93 -0.65 0.24 0.51 12756
0.06 -0.01 -1.34 0.40 9.60 -0.40 -0.29 0.51 12763
0.05 -0.01 -2.01 2.09 9.15 -0.12 -0.20 0.43 12769
0.04 -0.00 0.42 1.26 11.10 0.07 0.03 0.21 12775
0.05 -0.00 0.33 -0.53 11.55 0.01 0.14 0.05 12781
0.05 -0.00 -0.59 -1.78 10.81 0.00 0.13 -0.01 12788
0.04 -0.00 -1.03 -1.24 10.27 0.08 0.06 0.02 12794
0.05 0.00 -0.91 -1.33 10.47 0.16 0.04 0.08 12801
0.05 -0.01 -0.91 -1.44 10.87 0.15 0.00 0.15 12807
0.05 -0.01 -0.73 -1.54 10.71 0.09 -0.04 0.18 12813
0.05 -0.00 -0.52 -1.84 10.31 0.06 -0.04 0.18 12820
0.05 -0.00 -0.15 -2.08 10.04 0.07 -0.01 0.15 12826
0.04 -0.00 0.00 -1.82 10.39 0.07 0.01 0.11 12832
0.05 0.00 -0.14 -1.56 10.54 0.07 0.03 0.07 12838
0.04 -0.00 -0.34 -1.46 10.51 0.07 0.03 0.06 12845
0.05 -0.00 -0.35 -1.30 10.51 0.09 -0.02 0.07 12851
0.04 0.00 -0.25 -1.54 11.00 0.09 -0.05 0.09 12858
0.04 -0.00 -0.00 -1.54 11.49 0.09 0.07 0.13 12864
0.03 -0.00 0.52 -0.89 11.37 0.08 0.20 0.14 12870
0.04 -0.00 0.38 -0.48 11.02 0.05 0.29 0.14 12876
0.04 -0.00 0.07 -0.38 10.54 0.04 0.34 0.14 12882
0.03 -0.00 -0.03 -0.25 10.42 0.04 0.35 0.14 12890
0.05 -0.00 -0.17 -0.08 10.43 0.07 0.29 0.14 12896
0.04 -0.00 -0.21 0.15 10.41 0.11 0.21 0.15 12902
0.03 -0.00 -0.16 0.50 10.36 0.17 0.11 0.16 12908
0.04 -0.00 -0.00 0.84 10.40 0.15 0.03 0.18 12914
0.04 -0.00 0.10 1.16 10.44 0.15 -0.02 0.20 12920
0.03 -0.00 0.28 1.41 10.45 0.14 -0.06 0.21 12928
0.03 -0.00 0.44 1.64 10.35 0.12 -0.08 0.23 12934
0.04 -0.00 0.56 1.86 10.22 0.10 -0.08 0.23 12940
0.03 -0.00 0.58 2.05 10.14 0.08 -0.08 0.22 12946
0.04 -0.00 0.61 2.17 10.00 0.08 -0.06 0.20 12952
0.04 -0.00 0.51 2.26 9.88 0.07 -0.03 0.17 12958
0.04 -0.00 0.40 2.36 9.81 0.07 0.00 0.14 12964
0.03 -0.00 0.25 2.43 9.80 0.08 0.02 0.10 12972
0.04 -0.00 0.22 2.49 9.81 0.08 0.04 0.07 12978
0.04 -0.00 0.12 2.57 9.96 0.08 0.05 0.03 12984
0.04 -0.00 0.06 2.57 10.06 0.07 0.06 0.01 12990
0.03 -0.00 0.17 2.46 10.27 0.04 0.08 -0.03 12996
0.05 -0.00 0.28 2.38 10.50 -0.00 0.10 -0.06 13002
0.04 -0.00 0.37 2.34 10.72 -0.06 0.13 -0.08 13008
0.04 -0.00 0.42 2.25 10.89 -0.13 0.18 -0.11 13016
0.04 -0.00 0.37 2.18 10.93 -0.19 0.20 -0.13 13022
0.04 -0.00 0.38 2.00 10.82 -0.26 0.21 -0.15 13028
0.03 -0.00 0.38 1.88 10.67 -0.33 0.21 -0.16 13034
0.04 -0.00 0.47 1.65 10.50 -0.39 0.19 -0.17 13040
0.05 -0.00 0.51 1.48 10.35 -0.42 0.16 -0.18 13047
0.03 -0.00 0.61 1.28 10.28 -0.44 0.15 -0.19 13053
0.04 -0.00 0.67 1.05 10.26 -0.46 0.14 -0.21 13060
0.04 -0.00 0.64 0.85 10.20 -0.47 0.13 -0.22 13066
0.03 -0.00 0.68 0.68 10.25 -0.47 0.13 -0.23 13072
0.04 -0.00 0.57 0.51 10.25 -0.48 0.13 -0.25 13079
0.04 -0.00 0.49 0.37 10.27 -0.48 0.13 -0.27 13085
0.04 -0.00 0.41 0.18 10.16 -0.48 0.11 -0.28 13091
0.05 -0.01 0.34 0.10 10.06 -0.47 0.08 -0.29 13097
0.05 -0.00 0.25 0.05 9.88 -0.45 0.03 -0.31 13104
0.05 -0.00 0.29 -0.01 9.89 -0.43 -0.02 -0.32 13110
0.06 -0.00 0.32 -0.03 9.82 -0.40 -0.05 -0.33 13116
0.06 -0.01 0.31 -0.12 9.83 -0.36 -0.07 -0.35 13123
0.06 -0.01 0.40 -0.22 9.89 -0.32 -0.09 -0.36 13129
0.06 -0.01 0.40 -0.33 9.99 -0.28 -0.09 -0.37 13135
0.07 -0.01 0.46 -0.43 10.14 -0.26 -0.07 -0.39 13142
0.05 -0.01 0.61 -0.55 10.25 -0.25 -0.04 -0.41 13148
0.05 -0.01 0.80 -0.64 10.34 -0.25 -0.00 -0.44 13155
0.06 -0.01 1.04 -0.76 10.31 -0.26 0.07 -0.47 13161
0.05 -0.01 1.27 -0.83 10.44 -0.28 0.17 -0.50 13167
0.06 -0.01 1.40 -0.94 10.50 -0.33 0.29 -0.54 13173
0.07 -0.01 1.41 -1.04 10.51 -0.34 0.41 -0.57 13179
0.06 -0.01 1.43 -1.04 10.40 -0.37 0.53 -0.60 13187
0.06 -0.00 1.34 -1.10 10.23 -0.41 0.64 -0.62 13193
0.05 -0.01 0.62 -1.25 10.10 -0.43 0.74 -0.63 13199
0.05 -0.00 1.03 -1.43 9.96 -0.44 0.81 -0.64 13205
0.06 -0.01 0.76 -1.49 9.86 -0.43 0.85 -0.65 13211
0.06 -0.01 0.45 -1.61 9.89 -0.42 0.87 -0.65 13217
0.05 -0.01 0.07 -1.72 10.03 -0.42 0.85 -0.64 13224
0.06 -0.00 -0.31 -1.77 10.08 -0.43 0.80 -0.63 13231
0.06 -0.01 -0.61 -1.82 10.02 -0.45 0.71 -0.63 13237
0.04 -0.00 -0.68 -1.92 9.94 -0.48 0.60 -0.62 13243
0.06 -0.01 -0.69 -2.12 9.83 -0.51 0.48 -0.62 13249
0.06 -0.01 -0.62 -2.38 9.73 -0.52 0.38 -0.63 13256
0.05 -0.01 -0.35 -2.58 9.54 -0.53 0.32 -0.65 13262
0.06 -0.00 -0.02 -2.81 9.38 -0.53 0.28 -0.67 13268
0.06 -0.01 0.19 -3.07 9.31 -0.51 0.30 -0.72 13275
0.06 -0.01 0.41 -3.20 9.09 -0.50 0.34 -0.77 13281
0.06 -0.01 0.59 -3.31 9.05 -0.48 0.43 -0.81 13287
0.06 -0.01 0.64 -3.31 8.99 -0.46 0.55 -0.87 13294
0.06 -0.01 0.49 -3.27 8.97 -0.46 0.71 -0.92 13300
0.05 -0.01 0.12 -3.26 8.96 -0.46 0.87 -0.96 13306
0.07 -0.01 -0.29 -3.31 8.95 -0.46 0.97 -0.99 13313
0.06 -0.01 -0.63 -3.46 8.90 -0.47 0.99 -1.02 13319
0.05 -0.01 -0.84 -3.70 8.78 -0.46 0.97 -1.03 13325
0.06 -0.01 -0.97 -4.01 8.61 -0.43 0.89 -1.03 13332
0.06 -0.01 -1.06 -4.37 8.43 -0.39 0.78 -1.03 13338
0.05 -0.01 -1.05 -4.64 8.14 -0.34 0.70 -1.02 13344
0.06 -0.00 -0.98 -4.91 7.96 -0.27 0.61 -1.00 13350
0.06 -0.01 -0.88 -5.15 7.79 -0.19 0.54 -0.97 13357
0.06 -0.01 -0.74 -5.46 7.77 -0.11 0.50 -0.93 13363
0.06 -0.01 -0.58 -5.70 7.81 -0.04 0.48 -0.88 13370
0.07 -0.01 -0.39 -5.91 7.95 0.03 0.47 -0.82 13376
0.06 -0.01 -0.12 -6.12 8.10 0.09 0.48 -0.76 13382
0.06 -0.01 0.10 -6.24 8.24 0.12 0.53 -0.68 13388
0.07 -0.01 -3.13 -7.50 17.61 0.72 -1.32 -0.18 13394
0.05 -0.01 0.59 0.05 11.40 0.85 -1.71 0.14 13401
0.04 -0.00 0.78 0.93 7.74 0.96 -1.58 0.15 13408
0.03 0.00 4.08 -0.39 8.83 1.14 -1.05 0.37 13414
0.03 0.03 0.88 0.07 11.85 1.26 -0.83 0.47 13420
0.02 0.14 -2.90 0.70 12.07 1.28 -0.85 0.42 13426
0.02 0.40 -4.26 -0.26 10.47 1.25 -1.17 0.14 13432
0.02 0.50 -2.34 -0.11 9.59 1.42 -1.34 -0.18 13440
0.02 0.66 0.73 -2.43 15.77 1.95 -1.09 -0.33 13446
0.01 0.69 0.45 -3.34 18.13 0.41 -0.67 -0.08 13452
-0.00 0.71 0.86 -1.13 11.23 0.03 -0.04 0.05 13458
0.03 0.76 0.76 -1.23 10.36 -0.05 -0.06 0.04 13465
0.02 0.79 0.51 -1.55 10.44 -0.07 -0.04 0.05 13471
0.03 0.81 0.74 -1.23 10.34 -0.05 -0.02 0.06 13477
0.03 0.83 0.48 -0.92 10.15 -0.03 -0.01 0.08 13484
0.04 0.86 0.57 -0.93 9.77 -0.04 -0.01 0.07 13491
0.07 0.91 0.64 -0.93 9.92 -0.03 -0.01 0.07 13497
0.06 0.87 0.57 -0.86 9.93 -0.03 -0.01 0.08 13503
0.04 0.89 0.52 -0.95 9.97 -0.04 -0.01 0.09 13509
0.07 0.91 0.53 -0.97 9.98 -0.05 -0.00 0.09 13515
0.04 0.95 0.59 -1.01 9.93 -0.05 -0.00 0.09 13522
0.04 0.98 0.59 -0.90 9.98 -0.05 -0.01 0.08 13529
0.05 1.05 0.60 -0.95 10.02 -0.05 -0.01 0.08 13535
0.03 1.04 0.60 -0.94 9.94 -0.05 -0.02 0.08 13541
0.03 1.05 0.62 -0.92 9.96 -0.04 -0.02 0.08 13547
0.04 1.08 0.60 -0.78 9.99 -0.04 -0.02 0.08 13554
0.04 1.10 0.59 -0.91 9.95 -0.03 -0.02 0.07 13560
0.04 1.10 0.56 -0.87 9.96 -0.03 -0.02 0.07 13566
0.06 1.09 0.58 -0.85 9.94 -0.03 -0.03 0.07 13573
0.05 1.10 0.60 -0.86 9.92 -0.03 -0.03 0.07 13579
0.06 1.10 0.55 -0.85 9.92 -0.03 -0.03 0.07 13585
0.08 1.06 0.55 -0.86 9.91 -0.03 -0.03 0.07 13592
0.06 1.12 0.54 -0.90 9.97 -0.03 -0.03 0.08 13598
0.05 1.19 0.51 -0.86 9.93 -0.03 -0.03 0.08 13604
0.08 1.18 0.55 -0.83 9.97 -0.03 -0.03 0.08 13611
0.08 1.18 0.56 -0.86 9.93 -0.03 -0.02 0.08 13617
0.08 1.18 0.55 -0.86 9.97 -0.02 -0.02 0.08 13624
0.11 1.18 0.55 -0.83 9.93 -0.02 -0.03 0.09 13630
0.11 1.18 0.57 -0.85 9.97 -0.02 -0.03 0.09 13636
0.11 1.17 0.56 -0.82 9.93 -0.02 -0.03 0.09 13642
0.10 1.18 0.57 -0.84 9.94 -0.02 -0.04 0.09 13648
0.08 1.16 0.53 -0.84 9.95 -0.02 -0.04 0.09 13656
0.09 1.16 0.56 -0.86 10.00 -0.02 -0.04 0.09 13662
0.08 1.15 0.56 -0.85 9.95 -0.02 -0.04 0.08 13668
0.09 1.14 0.59 -0.81 9.92 -0.02 -0.04 0.08 13674
0.13 1.13 0.51 -0.82 9.90 -0.02 -0.05 0.08 13680
0.14 1.13 0.53 -0.84 9.92 -0.02 -0.04 0.08 13687
0.13 1.11 0.56 -0.82 9.96 -0.01 -0.04 0.08 13693
0.15 1.09 0.55 -0.82 9.96 -0.01 -0.04 0.08 13700
0.16 1.07 0.53 -0.85 9.91 -0.01 -0.04 0.08 13706
0.15 1.05 0.56 -0.85 10.00 -0.01 -0.04 0.08 13712
0.13 1.05 0.61 -0.87 10.04 0.00 -0.03 0.08 13719
0.11 1.00 0.55 -0.85 9.98 0.00 -0.03 0.08 13725
0.10 0.94 0.53 -0.84 9.97 0.01 -0.03 0.08 13731
0.15 0.92 0.54 -0.84 9.99 0.01 -0.03 0.08 13737
0.16 0.88 0.55 -0.82 9.96 0.01 -0.03 0.08 13744
0.15 0.87 0.57 -0.86 9.96 0.01 -0.03 0.08 13751
0.20 0.85 0.56 -0.87 9.96 0.01 -0.03 0.08 13757
0.22 0.81 0.58 -0.85 9.95 0.00 -0.03 0.08 13763
0.22 0.80 0.57 -0.85 9.96 0.00 -0.03 0.08 13769
0.22 0.79 0.57 -0.86 9.92 0.00 -0.03 0.08 13775
0.22 0.75 0.54 -0.83 9.97 0.00 -0.03 0.08 13782
0.21 0.71 0.55 -0.86 9.94 0.00 -0.03 0.08 13789
0.23 0.71 0.57 -0.86 9.94 0.00 -0.03 0.07 13795
0.24 0.71 0.55 -0.83 9.94 0.00 -0.03 0.07 13801
0.25 0.68 0.58 -0.86 9.91 0.00 -0.03 0.07 13807
0.26 0.67 0.58 -0.87 9.92 -0.00 -0.03 0.08 13813
0.26 0.69 0.56 -0.84 9.96 0.00 -0.02 0.08 13820
0.28 0.68 0.57 -0.84 9.91 0.00 -0.03 0.08 13827
0.31 0.65 0.54 -0.86 9.97 0.00 -0.03 0.08 13833
0.31 0.61 0.57 -0.83 9.98 0.01 -0.03 0.08 13839
0.29 0.60 0.58 -0.84 9.95 0.00 -0.03 0.08 13845
0.33 0.55 0.59 -0.84 9.98 0.00 -0.02 0.08 13851
0.33 0.56 0.60 -0.87 9.97 0.01 -0.02 0.08 13858
0.32 0.52 0.61 -0.87 9.90 0.00 -0.03 0.08 13864
0.32 0.48 0.58 -0.87 9.95 0.01 -0.03 0.07 13871
0.34 0.46 0.58 -0.85 9.96 0.00 -0.03 0.08 13877
0.33 0.44 0.59 -0.87 9.97 0.01 -0.03 0.07 13883
0.33 0.47 0.59 -0.85 9.94 0.00 -0.03 0.08 13890
0.34 0.43 0.57 -0.87 9.94 0.00 -0.03 0.07 13896
0.35 0.44 0.58 -0.84 9.94 0.00 -0.02 0.07 13902
0.37 0.43 0.57 -0.87 9.97 0.00 -0.02 0.07 13908
0.39 0.38 0.59 -0.88 9.97 0.01 -0.03 0.08 13915
0.40 0.34 0.56 -0.85 9.96 0.00 -0.03 0.07 13921
0.41 0.31 0.55 -0.84 9.96 0.00 -0.03 0.07 13928
0.42 0.30 0.58 -0.84 9.97 0.01 -0.03 0.08 13934
0.40 0.33 0.58 -0.88 9.93 0.00 -0.03 0.07 13940
0.39 0.31 0.60 -0.85 9.98 0.00 -0.03 0.07 13946
0.42 0.27 0.60 -0.89 9.93 0.01 -0.03 0.08 13953
0.44 0.22 0.62 -0.86 9.90 0.01 -0.03 0.07 13960
0.45 0.22 0.62 -0.89 9.96 0.01 -0.03 0.07 13966
0.45 0.22 0.63 -0.87 9.97 0.01 -0.03 0.07 13972
0.46 0.22 0.62 -0.88 9.97 0.01 -0.03 0.07 13978
0.49 0.23 0.62 -0.86 9.94 0.01 -0.03 0.08 13984
0.50 0.16 0.61 -0.85 9.96 0.01 -0.03 0.07 13990
0.48 0.19 0.58 -0.90 9.95 0.01 -0.03 0.07 13998
0.49 0.16 0.59 -0.92 9.98 0.01 -0.03 0.07 14004
0.50 0.14 0.57 -0.89 9.96 0.01 -0.03 0.07 14010
0.51 0.14 0.64 -0.89 9.94 0.01 -0.03 0.07 14016
0.54 0.12 0.59 -0.88 9.95 0.01 -0.03 0.07 14022
0.55 0.10 0.65 -0.89 9.97 0.01 -0.03 0.08 14029
0.57 0.05 0.61 -0.90 9.95 0.00 -0.03 0.07 14035
0.56 0.08 0.61 -0.86 9.95 0.01 -0.03 0.07 14042
0.59 0.05 0.60 -0.86 9.94 0.01 -0.03 0.07 14048
0.58 0.06 0.61 -0.92 9.96 0.01 -0.03 0.08 14054
0.59 0.07 0.59 -0.90 9.96 0.01 -0.03 0.08 14060
0.61 0.02 0.63 -0.89 9.99 0.00 -0.03 0.07 14067
0.60 0.01 0.62 -0.92 9.97 0.00 -0.03 0.07 14073
0.61 0.01 0.59 -0.92 9.94 0.01 -0.03 0.07 14080
0.61 -0.00 0.61 -0.88 9.94 0.01 -0.03 0.07 14086
0.60 -0.00 0.00 -0.90 9.92 0.01 -0.03 0.07 14092
0.61 -0.01 0.58 -0.90 10.04 0.01 -0.03 0.07 14099
0.64 0.00 0.62 -0.91 9.98 0.01 -0.03 0.07 14105
0.63 -0.02 0.60 -0.93 9.95 0.01 -0.02 0.07 14111
0.63 -0.02 0.59 -0.90 9.93 0.01 -0.02 0.07 14117
0.67 -0.03 0.60 -0.92 9.94 0.02 -0.02 0.07 14124
0.66 -0.04 0.58 -0.92 9.94 0.02 -0.03 0.07 14130
0.65 -0.03 0.57 -0.89 9.97 0.02 -0.02 0.07 14137
0.68 -0.04 0.61 -0.93 9.93 0.02 -0.02 0.07 14143
0.68 -0.04 0.59 -0.88 9.93 0.02 -0.02 0.07 14149
0.69 -0.04 0.65 -0.94 9.92 0.02 -0.03 0.07 14155
0.71 -0.04 0.60 -0.88 9.91 0.02 -0.02 0.07 14161
0.68 -0.03 0.64 -0.98 9.83 0.02 -0.02 0.07 14168
0.70 -0.03 0.61 -0.73 9.82 0.02 -0.02 0.07 14175
0.70 -0.01 0.61 -0.95 9.90 0.02 -0.02 0.07 14181
0.70 -0.02 0.54 -0.81 10.00 0.02 -0.03 0.07 14187
0.68 -0.02 0.61 -0.92 9.96 0.02 -0.02 0.06 14193
0.71 -0.03 0.62 -0.95 9.98 0.03 -0.02 0.06 14199
0.70 -0.04 0.65 -0.93 9.94 0.03 -0.02 0.06 14206
0.72 -0.04 0.63 -0.96 9.95 0.03 -0.02 0.06 14213
0.73 -0.04 0.66 -0.95 9.97 0.03 -0.02 0.05 14219
0.72 -0.05 0.60 -0.92 9.94 0.03 -0.02 0.05 14225
0.73 -0.04 0.60 -0.96 9.89 0.03 -0.01 0.05 14231
0.74 -0.04 0.64 -0.99 9.99 0.03 -0.01 0.04 14238
0.73 -0.04 0.64 -0.95 9.96 0.03 -0.01 0.04 14244
0.72 -0.03 0.62 -0.99 9.96 0.03 -0.01 0.04 14251
0.74 -0.04 0.65 -0.98 9.96 0.04 -0.01 0.04 14257
0.74 -0.04 0.63 -0.99 9.97 0.04 -0.01 0.03 14263
0.73 -0.03 0.64 -0.99 9.96 0.04 -0.01 0.03 14269
0.74 -0.04 0.65 -0.97 9.96 0.05 -0.01 0.03 14276
0.72 -0.03 0.72 -0.99 9.98 0.05 -0.01 0.02 14282
0.75 -0.04 0.65 -1.01 9.97 0.05 -0.01 0.01 14288
0.75 -0.03 0.65 -1.06 10.00 0.06 -0.01 0.01 14295
0.74 -0.04 0.87 -1.00 10.00 0.07 -0.01 0.00 14301
0.73 -0.03 0.82 -1.04 10.10 0.08 -0.01 -0.01 14308
0.73 -0.04 0.54 -1.06 10.30 0.13 0.00 -0.01 14314
0.72 -0.04 0.76 -1.11 10.24 0.21 0.02 -0.01 14320
0.71 -0.03 0.75 -1.12 10.49 0.30 0.07 -0.02 14326
0.71 -0.04 0.86 -1.12 10.61 0.46 0.13 -0.04 14333
0.69 -0.04 0.91 -1.25 10.76 0.63 0.18 -0.06 14340
0.67 -0.04 0.82 -1.23 10.95 0.73 0.20 -0.09 14346
0.65 -0.04 0.84 -1.36 11.04 0.78 0.12 -0.13 14352
0.62 -0.03 0.90 -1.31 10.70 0.80 0.03 -0.15 14359
0.60 -0.04 1.15 -1.51 10.71 0.81 -0.04 -0.18 14365
0.59 -0.03 0.95 -1.60 10.72 0.83 -0.09 -0.19 14371
0.55 -0.03 1.07 -1.60 10.73 0.84 -0.15 -0.20 14379
0.52 -0.03 0.93 -1.71 10.59 0.86 -0.16 -0.20 14385
0.47 -0.02 0.88 -1.58 10.70 0.89 -0.19 -0.21 14391
0.43 -0.04 1.05 -1.76 10.92 0.97 -0.22 -0.22 14397
0.41 -0.02 1.32 -1.95 11.07 0.99 -0.24 -0.24 14404
0.39 -0.02 1.62 -1.98 10.96 1.05 -0.27 -0.28 14410
0.37 -0.02 1.62 -1.99 10.91 1.09 -0.27 -0.33 14416
0.35 -0.03 1.77 -2.06 10.72 1.13 -0.28 -0.38 14423
0.33 -0.02 1.97 -2.32 10.84 1.16 -0.30 -0.44 14430
0.27 -0.01 2.60 -2.66 10.56 1.17 -0.29 -0.51 14436
0.25 -0.02 2.66 -2.50 10.80 1.19 -0.27 -0.61 14442
0.18 -0.01 2.97 -2.79 10.45 1.18 -0.27 -0.72 14448
0.18 -0.02 3.73 -2.85 10.54 1.19 -0.25 -0.85 14455
0.13 -0.01 4.13 -3.08 10.22 1.18 -0.19 -1.02 14461
0.13 0.00 4.94 -3.30 10.55 1.18 -0.05 -1.20 14468
0.13 -0.01 6.00 -3.37 10.32 1.16 0.12 -1.39 14474
0.08 -0.01 6.06 -3.60 10.52 1.12 0.32 -1.58 14481
0.08 -0.01 5.40 -3.30 10.88 1.07 0.48 -1.76 14487
0.11 -0.01 4.73 -3.25 10.81 0.98 0.56 -1.91 14493
0.11 -0.00 3.71 -2.98 10.37 0.86 0.55 -2.02 14499
0.09 -0.01 3.82 -2.25 10.24 0.73 0.48 -2.10 14507
0.05 -0.01 3.34 -1.36 9.82 0.58 0.41 -2.15 14513
0.08 -0.01 3.35 0.03 9.66 0.39 0.29 -2.22 14519
0.07 -0.01 2.97 0.91 9.43 0.14 0.15 -2.29 14525
0.08 -0.01 2.91 1.39 9.18 -0.12 0.04 -2.35 14531
0.07 -0.00 2.57 1.89 8.90 -0.31 -0.04 -2.42 14537
0.05 -0.00 2.89 2.15 8.66 -0.51 -0.09 -2.53 14543
0.04 -0.00 3.15 0.62 7.59 -0.64 -0.16 -2.61 14551
0.06 -0.01 3.30 0.44 8.74 -0.73 -0.11 -2.59 14557
0.06 -0.01 3.73 0.99 9.57 -0.96 0.08 -2.53 14563
0.05 -0.00 3.93 0.65 8.92 -1.20 0.24 -2.48 14569
0.04 -0.00 3.85 0.57 8.45 -1.30 0.35 -2.37 14575
0.05 -0.00 3.48 -0.20 8.04 -1.35 0.42 -2.29 14581
0.04 -0.00 3.20 -0.52 7.60 -1.35 0.48 -2.14 14588
0.04 -0.00 3.07 -0.67 7.25 -1.29 0.52 -1.96 14595
0.05 0.00 2.85 -0.72 7.00 -1.22 0.55 -1.76 14601
0.05 -0.00 2.64 -0.57 7.17 -1.13 0.64 -1.54 14607
0.04 -0.00 2.48 -0.51 7.65 -1.06 0.77 -1.30 14613
0.05 0.00 2.14 -0.55 8.41 -1.00 0.91 -1.09 14619
0.06 -0.01 1.63 -0.51 8.83 -0.97 0.99 -0.92 14626
0.06 -0.01 1.09 -0.42 9.29 -0.97 1.03 -0.77 14632
0.06 -0.00 0.55 -0.39 9.54 -0.99 1.03 -0.66 14639
0.06 -0.01 0.10 -0.42 9.73 -1.03 0.99 -0.55 14645
0.05 -0.01 -0.06 -0.39 9.83 -1.07 0.93 -0.45 14651
0.05 -0.01 -0.19 -0.38 9.87 -1.10 0.89 -0.35 14657
0.07 -0.01 -0.24 -0.35 9.94 -1.15 0.86 -0.27 14664
0.06 -0.01 -0.27 -0.32 10.00 -1.17 0.87 -0.19 14670
0.05 -0.00 -0.43 -0.30 9.94 -1.23 0.89 -0.14 14676
0.06 -0.01 -0.01 -0.37 9.88 -1.22 0.93 -0.11 14683
0.05 -0.01 -0.72 -0.48 9.84 -1.23 0.95 -0.11 14689
0.04 -0.00 -0.91 -0.57 9.87 -1.22 0.98 -0.13 14695
0.05 0.00 -1.12 -0.61 9.91 -1.20 1.01 -0.15 14702
0.05 -0.00 -1.38 -0.70 9.98 -1.17 1.04 -0.19 14708
0.05 -0.01 -1.70 -0.68 10.20 -1.14 1.08 -0.23 14714
0.06 0.00 -2.01 -0.68 10.44 -1.12 1.09 -0.26 14721
0.05 -0.01 -2.23 -0.61 10.79 -1.10 1.08 -0.29 14727
0.05 -0.00 -2.37 -0.62 11.02 -1.09 1.03 -0.32 14734
0.06 -0.01 -2.35 -0.74 11.21 -1.09 0.96 -0.35 14740
0.05 -0.00 -2.34 -0.85 11.31 -1.09 0.89 -0.36 14746
0.05 -0.00 -2.30 -1.01 11.33 -1.09 0.84 -0.37 14752
0.06 -0.01 -2.22 -1.20 11.32 -1.08 0.78 -0.37 14758
0.05 -0.01 -2.10 -1.43 11.28 -1.06 0.73 -0.37 14766
0.05 0.00 -2.01 -1.64 11.10 -1.03 0.65 -0.36 14772
0.05 -0.00 -1.95 -1.92 10.92 -0.99 0.58 -0.34 14778
0.04 -0.00 -1.74 -2.18 10.76 -0.94 0.48 -0.31 14784
0.05 0.00 -1.46 -2.46 10.48 -0.87 0.43 -0.29 14791
0.05 -0.00 -1.13 -2.69 10.13 -0.78 0.35 -0.27 14797
0.05 -0.01 -0.75 -2.87 9.96 -0.68 0.29 -0.25 14803
0.07 -0.01 -11.28 -9.04 10.48 -0.49 0.06 -0.07 14810
0.06 -0.01 -8.12 -4.76 7.76 -0.03 -1.04 0.01 14816
0.06 -0.01 -4.39 -3.99 6.32 -0.00 -1.57 0.13 14823
0.06 -0.01 -2.39 -6.91 9.30 0.27 -1.41 0.35 14829
0.05 -0.00 -0.35 -5.07 9.82 0.64 -1.05 0.61 14835
0.04 -0.00 -0.30 -1.82 7.16 0.79 -0.71 0.74 14841
0.05 -0.01 -1.17 -1.49 7.70 0.92 -0.60 0.73 14848
0.06 -0.01 -0.95 -1.28 8.53 1.06 -0.44 0.72 14854
0.05 -0.00 -1.78 -0.33 8.29 1.19 -0.38 0.69 14861
0.05 0.01 -2.16 0.24 8.31 1.31 -0.38 0.62 14867
0.05 -0.00 -1.98 0.44 9.79 1.55 -0.85 0.47 14873
0.05 -0.00 -4.17 0.69 10.31 1.58 -1.19 0.18 14879
0.05 0.00 -2.80 0.38 9.54 1.66 -1.37 -0.06 14885
0.05 -0.01 -0.93 -1.05 11.92 1.77 -1.44 -0.24 14892
0.05 -0.00 -6.93 -3.74 35.53 0.20 -0.84 -0.18 14899
0.05 0.00 -0.68 -0.58 3.91 0.00 0.01 0.05 14905
0.05 -0.01 0.33 -1.08 11.74 -0.02 -0.11 -0.01 14911
0.06 -0.00 0.35 -0.82 10.17 -0.06 -0.12 0.01 14917
0.06 0.04 0.89 -1.48 10.55 -0.07 -0.07 0.02 14923
0.06 0.06 0.81 -1.08 9.83 -0.02 -0.04 0.05 14930
0.06 0.07 0.61 -1.13 9.99 -0.01 -0.05 0.05 14937
0.07 0.09 0.60 -0.95 10.19 -0.04 -0.02 0.05 14943
0.07 0.11 0.69 -0.79 10.18 -0.03 -0.02 0.04 14949
0.06 0.14 0.67 -0.93 10.09 -0.01 -0.03 0.03 14956
0.07 0.16 0.69 -0.99 10.07 -0.00 -0.02 0.04 14962
0.06 0.17 0.66 -1.03 10.09 -0.01 -0.02 0.04 14968
0.05 0.18 0.60 -1.00 10.11 -0.01 -0.03 0.03 14974
0.06 0.20 0.59 -1.01 10.05 -0.01 -0.03 0.03 14981
0.04 0.17 0.61 -1.01 10.03 -0.01 -0.03 0.03 14988
0.05 0.19 0.60 -1.00 9.98 -0.01 -0.02 0.03 14994
0.05 0.20 0.59 -1.02 10.00 -0.02 -0.02 0.03 15000
0.03 0.20 0.70 -0.98 10.01 -0.02 -0.02 0.03 15006
0.05 0.24 0.58 -1.00 9.97 -0.02 -0.02 0.03 15012
0.05 0.25 0.60 -1.00 9.98 -0.02 -0.02 0.03 15020
0.04 0.26 0.58 -1.00 9.97 -0.02 -0.02 0.03 15026
0.06 0.26 0.60 -0.98 9.98 -0.02 -0.02 0.03 15032
0.06 0.27 0.63 -0.98 9.98 -0.02 -0.02 0.04 15038
0.05 0.28 0.57 -0.99 9.94 -0.02 -0.02 0.03 15044
0.05 0.31 0.59 -0.99 9.96 -0.02 -0.01 0.04 15051
0.05 0.30 0.58 -0.97 9.93 -0.02 -0.02 0.04 15057
0.04 0.30 0.56 -0.97 9.92 -0.03 -0.01 0.04 15064
0.05 0.31 0.58 -0.95 9.92 -0.03 -0.01 0.04 15070
0.05 0.31 0.56 -0.99 10.09 -0.03 -0.00 0.04 15076
0.05 0.34 0.63 -0.94 9.97 -0.03 0.00 0.04 15082
0.06 0.37 0.62 -0.93 9.98 -0.03 0.00 0.05 15089
0.06 0.34 0.61 -0.94 9.99 -0.03 -0.00 0.05 15095
0.04 0.34 0.61 -0.96 9.99 -0.03 -0.01 0.05 15101
0.06 0.36 0.61 -0.96 9.96 -0.03 -0.01 0.05 15108
0.07 0.34 0.60 -0.94 9.97 -0.02 -0.01 0.05 15114
0.05 0.34 0.62 -0.91 9.97 -0.03 -0.01 0.05 15121
0.05 0.35 0.60 -0.96 9.92 -0.03 -0.01 0.05 15127
0.05 0.34 0.59 -0.91 9.93 -0.03 -0.01 0.04 15133
0.05 0.31 0.60 -0.88 9.91 -0.03 -0.01 0.05 15139
0.05 0.33 0.61 -0.91 9.93 -0.03 -0.02 0.05 15145
0.04 0.32 0.57 -0.91 9.96 -0.03 -0.02 0.05 15152
0.05 0.30 0.58 -0.93 9.99 -0.03 -0.01 0.05 15159
0.07 0.31 0.60 -0.92 9.98 -0.02 -0.01 0.05 15165
0.07 0.31 0.56 -0.94 10.00 -0.02 -0.01 0.06 15171
0.06 0.29 0.59 -0.90 10.04 -0.02 -0.01 0.06 15177
0.06 0.28 0.58 -0.90 9.98 -0.02 -0.01 0.07 15183
0.07 0.25 0.58 -0.90 9.95 -0.01 -0.01 0.07 15191
0.06 0.26 0.58 -0.86 9.95 -0.01 -0.02 0.06 15197
0.08 0.25 0.60 -0.87 9.94 -0.00 -0.02 0.07 15203
0.09 0.26 0.61 -0.87 9.97 -0.01 -0.02 0.07 15209
0.09 0.24 0.00 -0.89 9.98 -0.00 -0.03 0.07 15215
0.08 0.22 0.59 -0.87 9.99 0.00 -0.03 0.07 15221
0.13 0.19 0.59 -0.86 9.98 0.00 -0.03 0.07 15228
0.11 0.16 0.67 -0.91 10.03 0.00 -0.03 0.06 15235
0.13 0.16 0.60 -0.89 9.97 0.01 -0.03 0.07 15241
0.14 0.11 0.60 -0.91 9.97 0.00 -0.04 0.06 15247
0.13 0.12 0.41 -0.72 9.95 0.01 -0.04 0.07 15253
0.15 0.13 0.62 -0.90 9.98 0.01 -0.04 0.06 15260
0.15 0.10 0.63 -0.90 9.98 0.01 -0.04 0.07 15266
0.15 0.07 0.60 -0.89 9.99 0.00 -0.04 0.07 15272
0.17 0.07 0.58 -0.86 10.00 0.01 -0.04 0.06 15279
0.22 0.06 0.61 -0.91 10.02 0.01 -0.04 0.07 15285
0.20 0.03 0.56 -0.91 10.02 0.01 -0.05 0.07 15292
0.23 0.04 1.21 -0.92 10.05 0.01 -0.05 0.07 15298
0.24 0.02 0.04 -0.90 10.08 0.01 -0.05 0.07 15304
0.26 -0.01 0.59 -0.91 10.04 0.02 -0.05 0.07 15310
0.28 -0.01 0.58 -0.91 9.98 0.02 -0.05 0.07 15316
0.27 -0.03 0.60 -0.89 9.95 0.02 -0.05 0.06 15324
0.27 -0.01 0.59 -0.90 9.98 0.03 -0.05 0.06 15330
0.33 -0.02 0.61 -0.95 9.98 0.03 -0.05 0.06 15336
0.33 -0.03 0.59 -0.95 10.00 0.04 -0.05 0.06 15342
0.35 -0.02 0.63 -0.92 10.01 0.04 -0.05 0.05 15348
0.38 -0.03 0.62 -0.95 9.95 0.05 -0.05 0.05 15355
0.39 -0.04 0.68 -0.92 10.06 0.06 -0.05 0.04 15362
0.42 -0.03 0.62 -0.97 10.01 0.07 -0.05 0.04 15368
0.44 -0.03 0.65 -1.02 9.98 0.07 -0.05 0.03 15374
0.44 -0.04 0.54 -1.03 10.05 0.08 -0.05 0.03 15380
0.50 -0.03 1.20 -1.05 10.03 0.10 -0.05 0.03 15387
0.49 -0.03 0.52 -1.02 10.09 0.12 -0.04 0.03 15393
0.47 -0.03 0.59 -1.00 10.23 0.20 -0.05 0.05 15399
0.51 -0.03 0.67 -1.06 10.19 0.33 0.03 0.04 15406
0.52 -0.03 0.53 -1.10 10.26 0.41 0.02 0.04 15413
0.52 -0.03 0.42 -1.10 10.39 0.46 0.03 0.04 15419
0.54 -0.03 0.61 -1.19 10.66 0.50 0.02 0.04 15425
0.57 -0.04 0.62 -1.23 10.48 0.52 0.00 0.05 15431
0.58 -0.02 0.66 -1.22 10.64 0.54 -0.01 0.05 15437
0.60 -0.03 0.74 -1.31 10.45 0.55 0.01 0.05 15444
0.61 -0.04 0.65 -1.31 10.37 0.55 0.02 0.05 15451
0.63 -0.03 0.65 -1.38 10.13 0.56 0.03 0.06 15457
0.65 -0.05 0.54 -1.41 9.96 0.56 0.02 0.07 15463
0.64 -0.03 0.57 -1.42 10.07 0.54 0.02 0.09 15470
0.64 -0.04 0.50 -1.52 9.94 0.52 0.02 0.11 15476
0.64 -0.04 0.58 -1.49 9.89 0.50 0.02 0.12 15482
0.65 -0.01 0.67 -1.55 9.82 0.46 0.02 0.12 15489
0.65 -0.02 0.73 -1.57 9.68 0.43 0.01 0.13 15495
0.65 -0.03 0.77 -1.66 9.56 0.39 0.01 0.13 15502
0.64 -0.02 0.83 -1.69 9.40 0.35 0.00 0.12 15508
0.64 -0.03 0.84 -1.76 9.30 0.29 0.00 0.11 15514
0.62 -0.03 0.79 -1.77 9.17 0.25 -0.01 0.10 15520
0.63 -0.02 0.74 -1.77 9.20 0.18 -0.00 0.10 15526
0.62 -0.03 0.76 -1.81 9.22 0.11 0.00 0.09 15534
0.63 -0.03 0.80 -1.78 9.15 0.05 0.01 0.08 15540
0.63 -0.03 0.82 -1.80 9.19 -0.01 0.02 0.08 15546
0.63 -0.03 0.78 -1.78 9.25 -0.08 0.02 0.07 15552
0.60 -0.03 0.81 -1.76 9.24 -0.14 0.02 0.07 15558
0.61 -0.02 0.78 -1.76 9.24 -0.21 0.02 0.06 15565
0.58 -0.02 0.76 -1.73 9.23 -0.28 0.02 0.05 15571
0.54 -0.03 0.73 -1.68 9.17 -0.35 0.00 0.05 15578
0.53 -0.02 0.74 -1.68 9.21 -0.42 -0.01 0.05 15584
0.51 -0.03 0.72 -1.58 9.24 -0.49 -0.02 0.06 15590
0.50 -0.02 0.72 -1.59 9.54 -0.57 -0.04 0.06 15597
0.49 -0.03 0.77 -1.50 9.56 -0.62 -0.06 0.06 15603
0.45 -0.04 0.80 -1.45 9.80 -0.70 -0.09 0.07 15609
0.43 -0.02 0.73 -1.45 9.86 -0.71 -0.13 0.07 15616
0.43 -0.01 0.69 -1.36 10.03 -0.76 -0.13 0.07 15622
0.39 -0.02 0.72 -1.33 10.35 -0.83 -0.17 0.07 15629
