Voltage_01 Voltage_02 Acc_x Acc_y Acc_z Gyro_x Gyro_y Gyro_z Time
5000
0.00 0.00 1.62 0.03 9.73 -0.41 0.26 -0.88 17
0.00 0.00 1.21 -0.32 9.45 -0.36 0.39 -0.92 29
0.00 0.00 0.55 -0.76 9.51 -0.29 0.45 -0.96 41
0.00 0.00 -0.00 -0.84 10.02 -0.26 0.42 -1.03 54
0.00 0.00 -0.36 -0.81 10.23 -0.36 0.39 -1.13 67
0.00 0.00 -0.89 -1.18 10.06 -0.53 0.36 -1.25 81
0.00 0.00 -0.93 -1.64 9.46 -0.62 0.33 -1.40 95
0.00 0.00 -0.69 -2.12 8.94 -0.61 0.27 -1.58 108
0.00 0.00 -0.86 -2.49 8.80 -0.54 0.33 -1.76 121
0.00 0.00 -1.30 -3.11 8.62 -0.48 0.40 -1.95 135
0.00 0.00 -1.60 -3.91 8.49 -0.40 0.34 -2.18 147
0.00 0.00 -1.57 -4.41 8.07 -0.38 0.25 -2.42 160
0.00 0.00 -0.98 -4.66 7.93 -0.31 0.24 -2.63 174
0.00 0.00 -0.52 -4.72 8.07 -0.22 0.28 -2.76 187
-0.00 0.00 -0.46 -4.72 8.16 -0.14 0.32 -2.75 199
0.00 0.00 3.74 -8.52 2.67 0.50 0.69 -2.41 214
0.00 0.00 1.86 -2.43 7.65 0.66 0.94 -2.17 226
0.00 0.00 1.75 0.21 9.91 0.61 1.51 -1.97 238
-0.00 0.01 3.32 0.70 10.43 0.54 1.16 -1.87 251
-0.01 0.12 11.50 3.28 10.67 0.72 0.51 -1.57 267
-0.02 0.23 8.13 -1.24 9.23 1.05 -0.25 -0.78 280
-0.02 0.28 4.41 -1.61 10.46 1.43 -0.77 0.14 295
-0.03 0.29 -15.22 -8.12 44.03 1.18 -1.58 0.29 310
-0.02 0.34 -0.88 -1.56 9.75 -0.13 0.11 -0.09 323
-0.00 0.34 0.51 -0.90 9.91 -0.05 0.14 -0.05 337
-0.01 0.38 0.37 -0.81 9.80 -0.06 0.11 -0.03 352
-0.01 0.46 0.32 -0.90 9.81 -0.05 0.10 -0.04 366
0.00 0.48 0.40 -0.92 9.81 -0.07 0.07 -0.04 380
0.00 0.57 0.39 -0.85 9.82 -0.07 0.06 -0.04 395
0.00 0.70 0.35 -0.83 9.83 -0.07 0.06 -0.04 409
-0.00 0.76 0.36 -0.82 9.83 -0.06 0.06 -0.05 423
-0.01 0.79 0.39 -0.81 9.83 -0.04 0.07 -0.05 438
-0.01 0.88 0.38 -0.78 9.82 -0.03 0.07 -0.05 452
-0.02 0.90 0.34 -0.79 9.81 -0.02 0.07 -0.04 466
-0.03 0.97 0.36 -0.78 9.79 -0.01 0.08 -0.04 481
-0.01 0.94 0.37 -0.79 9.80 -0.01 0.08 -0.04 495
-0.02 0.87 0.40 -0.78 9.78 -0.00 0.08 -0.04 509
-0.05 0.86 0.42 -0.78 9.79 -0.00 0.07 -0.04 524
-0.04 0.88 0.39 -0.76 9.75 -0.00 0.09 -0.04 538
-0.06 0.82 0.40 -0.78 9.79 -0.01 0.10 -0.04 552
-0.04 0.77 0.40 -0.74 9.80 -0.01 0.11 -0.04 567
-0.04 0.74 0.43 -0.74 9.78 -0.01 0.11 -0.04 581
-0.04 0.70 0.39 -0.68 9.69 -0.00 0.11 -0.03 595
-0.05 0.71 0.50 -0.68 9.70 0.01 0.08 -0.05 610
-0.04 0.65 0.48 -0.70 9.77 0.02 0.06 -0.05 624
-0.04 0.57 0.46 -0.78 10.42 0.03 0.05 -0.05 638
-0.03 0.54 0.47 -0.80 9.77 0.03 0.04 -0.05 653
-0.01 0.49 0.45 -0.79 9.80 0.02 0.04 -0.04 667
-0.01 0.50 0.45 -0.83 9.77 0.02 0.05 -0.04 681
-0.01 0.44 0.50 -0.82 9.79 0.01 0.05 -0.04 696
0.00 0.42 0.47 -0.80 9.78 0.01 0.05 -0.04 710
-0.02 0.36 0.45 -0.81 9.80 0.01 0.05 -0.05 724
0.01 0.38 0.44 -0.82 9.80 -0.00 0.05 -0.05 739
0.01 0.38 0.49 -0.83 9.79 -0.01 0.04 -0.05 753
-0.00 0.38 0.45 -0.81 9.82 -0.01 0.04 -0.05 768
-0.01 0.41 0.50 -0.82 9.80 -0.01 0.05 -0.04 782
-0.01 0.39 0.49 -0.78 9.81 -0.00 0.04 -0.04 796
-0.01 0.40 0.48 -0.75 9.76 -0.00 0.05 -0.05 811
0.01 0.36 0.50 -0.83 9.76 0.00 0.06 -0.05 825
0.00 0.32 0.47 -0.79 9.81 0.01 0.06 -0.05 839
0.01 0.31 0.48 -0.83 9.75 0.00 0.06 -0.05 854
0.02 0.26 0.51 -0.79 9.80 0.01 0.05 -0.05 868
0.01 0.25 0.53 -0.82 9.79 0.01 0.03 -0.05 882
0.02 0.27 0.50 -0.80 9.78 0.00 0.01 -0.06 897
0.01 0.26 0.48 -0.82 9.72 -0.00 0.01 -0.06 911
0.03 0.26 0.44 -0.81 9.76 -0.01 0.03 -0.06 925
-0.00 0.26 0.48 -0.80 9.76 -0.00 0.04 -0.05 940
0.05 0.25 0.47 -0.84 9.78 -0.00 0.04 -0.05 954
0.00 0.24 0.47 -0.79 9.75 0.00 0.05 -0.05 968
0.01 0.21 0.51 -0.83 9.80 0.01 0.04 -0.05 983
0.03 0.15 0.51 -0.84 9.78 0.01 0.03 -0.05 997
0.04 0.11 0.51 -0.83 9.80 0.02 0.01 -0.05 1011
0.05 0.12 0.54 -0.84 9.77 0.02 0.00 -0.06 1026
0.11 0.05 0.51 -0.87 9.81 0.03 -0.01 -0.06 1040
0.11 0.03 0.54 -0.90 9.83 0.04 0.00 -0.07 1054
0.21 0.02 0.51 -0.94 9.77 0.05 0.02 -0.07 1069
0.23 -0.01 0.41 -1.01 9.83 0.06 0.05 -0.07 1083
0.32 -0.02 0.52 -0.91 9.89 0.08 0.08 -0.08 1097
0.35 -0.02 0.53 -0.89 9.88 0.12 0.13 -0.10 1112
0.38 -0.02 0.49 -1.09 9.98 0.19 0.25 -0.11 1126
0.45 -0.02 0.50 -0.92 10.45 0.39 0.41 -0.14 1141
0.44 -0.01 0.65 -1.14 10.87 1.09 0.57 -0.12 1156
0.47 -0.03 0.83 -1.49 11.47 1.61 0.69 -0.16 1170
0.47 -0.02 0.86 -1.82 11.69 1.78 0.41 -0.21 1184
0.51 -0.03 0.86 -1.75 11.73 1.95 0.22 -0.23 1199
0.51 -0.03 1.05 -2.05 11.77 2.15 0.17 -0.23 1213
0.49 -0.03 0.79 -2.30 11.83 2.39 0.17 -0.23 1227
0.45 -0.02 0.70 -2.68 12.17 2.69 0.21 -0.19 1242
0.31 -0.02 0.82 -3.07 12.63 3.06 0.28 -0.18 1256
0.20 -0.01 0.72 -3.60 13.28 3.47 0.37 -0.15 1270
0.14 -0.01 0.83 -4.87 15.78 3.95 0.43 -0.12 1284
0.11 -0.01 1.92 -6.60 18.04 4.25 0.46 -0.10 1298
0.10 -0.01 1.67 -6.96 17.91 4.28 0.57 -0.15 1312
0.07 -0.01 1.27 -7.03 19.38 4.28 0.59 -0.21 1327
0.06 -0.01 0.01 -6.10 19.13 4.28 0.47 -0.24 1341
0.06 -0.01 -0.48 -6.92 22.23 4.28 0.15 -0.22 1355
0.03 -0.00 3.16 -5.85 24.63 4.28 -0.26 -0.20 1370
0.00 0.00 3.66 1.57 14.59 4.28 -0.13 -0.21 1384
0.00 0.00 7.23 9.79 8.11 3.65 0.72 -0.30 1398
0.00 0.00 0.10 17.70 -4.09 2.33 2.39 -1.41 1413
0.00 0.00 -0.92 6.62 23.96 -0.06 2.49 -2.43 1427
0.00 0.00 -3.67 11.39 13.36 -2.02 1.41 -2.57 1441
0.00 0.00 -0.40 7.64 9.82 -3.15 -0.09 -2.41 1456
0.00 0.00 1.69 4.88 8.92 -3.44 -0.54 -2.23 1470
0.00 0.00 3.28 4.78 7.52 -3.63 -0.46 -2.02 1484
0.00 0.00 3.49 4.40 7.13 -3.90 -0.23 -1.77 1499
0.00 0.00 3.57 3.15 7.47 -4.10 -0.02 -1.48 1513
-0.00 0.00 3.66 1.91 8.25 -4.14 0.17 -1.07 1527
0.00 0.00 3.61 1.84 8.73 -4.13 0.30 -0.51 1542
0.00 0.00 3.58 1.79 9.93 -4.13 0.41 0.10 1556
0.00 0.00 3.81 1.12 11.34 -4.18 0.72 0.53 1570
0.00 0.00 3.42 0.04 13.30 -4.26 1.19 0.80 1585
0.00 0.00 2.36 -1.38 15.08 -4.28 1.61 0.92 1599
0.00 0.00 1.12 -3.03 16.27 -4.28 1.84 0.95 1613
0.00 0.00 0.12 -4.33 16.83 -4.26 1.79 0.93 1628
0.00 0.00 -0.32 -5.36 17.50 -4.21 1.44 0.94 1642
0.00 -0.00 -0.07 -7.26 17.40 -3.96 1.00 0.95 1656
0.00 0.00 1.04 -9.19 17.22 -3.49 0.64 1.01 1671
0.00 0.00 2.38 -10.52 18.03 -3.06 0.49 1.07 1685
0.00 -0.00 4.17 -11.35 18.16 -2.75 0.71 1.05 1699
0.00 0.00 4.64 -13.41 18.27 -2.53 1.23 1.01 1714
-0.00 0.01 2.51 -14.60 17.95 -2.42 1.76 1.16 1729
-0.00 0.01 -1.39 -15.87 16.18 -2.45 2.26 1.62 1743
0.00 0.00 -4.57 -18.52 15.74 -2.44 1.79 2.06 1757
-0.00 0.01 -4.27 -21.44 10.42 -2.38 0.09 2.22 1772
-0.00 0.01 -0.00 -23.58 5.26 -2.06 -1.12 1.85 1785
0.00 0.00 2.12 -25.21 2.60 -1.23 -0.57 1.30 1800
-0.00 0.01 0.52 -23.75 2.81 -0.24 0.42 0.75 1814
-0.00 0.01 -1.88 -20.03 5.88 0.63 0.35 0.45 1828
0.00 0.00 -1.77 -14.96 8.43 0.96 -0.43 0.42 1843
-0.00 0.02 -0.25 -10.32 -1.26 0.94 -1.16 0.51 1857
-0.00 0.01 2.94 5.14 -1.64 2.44 0.36 0.25 1871
-0.01 0.06 1.31 7.07 2.35 2.19 -0.61 0.16 1886
-0.02 0.28 -1.84 -3.85 16.75 3.66 -0.55 -0.05 1901
-0.04 0.70 -2.51 -3.66 20.36 4.17 -0.84 -0.39 1915
-0.05 0.79 -1.13 -2.30 17.13 3.65 -0.56 -0.79 1930
-0.04 0.79 8.35 -4.00 35.61 2.65 -2.55 -0.68 1944
-0.04 0.84 0.15 -2.64 11.27 0.16 -0.46 -0.02 1958
-0.05 0.87 0.07 -0.43 9.80 0.07 -0.13 -0.07 1972
-0.04 0.86 0.68 -1.25 9.88 0.02 -0.06 -0.03 1986
-0.04 0.87 0.33 -0.85 9.82 -0.01 0.01 -0.04 2000
-0.05 0.90 0.43 -0.98 9.81 -0.01 0.00 -0.06 2015
-0.03 0.90 0.46 -0.87 9.82 -0.00 0.01 -0.06 2029
-0.02 0.74 0.46 -0.78 9.78 0.01 0.02 -0.06 2043
-0.03 0.67 0.44 -0.85 9.81 0.02 0.04 -0.06 2058
-0.00 0.59 0.40 -0.85 9.79 0.03 0.06 -0.06 2072
-0.00 0.51 0.44 -0.90 9.78 0.03 0.08 -0.06 2086
0.02 0.48 0.46 -0.83 9.78 0.03 0.09 -0.07 2101
0.05 0.34 0.49 -0.84 9.72 0.04 0.10 -0.07 2115
0.03 0.30 0.53 -0.86 9.72 0.03 0.09 -0.07 2129
0.05 0.27 0.51 -0.86 9.71 0.03 0.08 -0.08 2144
0.02 0.20 0.49 -0.94 9.81 0.02 0.08 -0.08 2158
0.04 0.15 0.46 -0.87 9.77 0.02 0.08 -0.08 2172
0.06 0.11 0.52 -1.00 9.78 0.02 0.08 -0.07 2187
0.05 0.08 0.55 -0.89 9.78 0.02 0.07 -0.08 2201
0.05 0.06 0.55 -0.95 9.79 0.02 0.06 -0.07 2215
0.04 0.05 0.55 -0.96 9.75 0.01 0.05 -0.08 2230
0.07 0.04 0.56 -0.90 9.77 0.01 0.05 -0.08 2244
0.07 0.05 0.56 -0.92 9.76 0.01 0.04 -0.08 2258
0.08 0.03 0.58 -0.96 9.79 0.00 0.03 -0.08 2273
0.07 0.05 0.55 -0.92 9.77 -0.01 0.01 -0.09 2287
0.07 0.04 0.50 -0.92 9.72 -0.00 -0.00 -0.09 2301
0.10 0.05 0.54 -0.95 9.75 -0.00 -0.00 -0.09 2316
0.12 0.01 0.49 -0.92 9.79 0.02 0.03 -0.09 2330
0.12 0.00 0.54 -0.96 9.80 0.03 0.06 -0.09 2344
0.18 -0.00 0.52 -0.92 9.80 0.05 0.07 -0.09 2359
0.16 -0.00 0.54 -0.97 9.80 0.06 0.08 -0.09 2373
0.27 -0.01 0.01 -1.06 9.88 0.08 0.09 -0.09 2387
0.36 -0.02 0.58 -1.03 9.97 0.16 0.13 -0.09 2402
0.37 -0.02 0.57 -1.06 10.18 0.29 0.29 -0.09 2416
0.47 -0.03 0.62 -0.99 11.48 0.88 0.59 -0.12 2432
0.59 -0.03 0.97 -1.71 12.42 1.75 0.62 -0.13 2446
0.65 -0.03 0.65 -1.84 12.21 1.94 0.21 -0.22 2460
0.70 -0.03 0.94 -1.94 13.22 2.29 -0.05 -0.25 2475
0.76 -0.03 0.88 -1.95 13.02 2.68 -0.11 -0.26 2489
0.70 -0.03 0.36 -2.07 13.91 3.16 -0.06 -0.22 2503
0.69 -0.03 1.02 -2.63 14.39 3.74 0.10 -0.18 2518
0.47 -0.01 0.78 -3.22 15.79 4.27 0.22 -0.20 2532
0.25 -0.01 0.76 -4.70 18.05 4.28 0.18 -0.16 2546
0.28 -0.00 1.49 -7.85 22.21 4.28 0.19 -0.18 2561
0.17 -0.01 1.21 -8.92 24.45 4.28 0.39 -0.16 2575
0.09 -0.01 -0.04 -5.75 21.38 4.28 0.36 -0.20 2588
0.06 -0.01 -1.76 -6.72 26.52 4.28 0.07 -0.15 2603
0.03 -0.00 2.39 -4.76 28.50 4.28 -0.62 -0.12 2617
0.01 -0.00 2.99 5.77 15.85 4.28 -0.79 -0.08 2631
0.01 -0.00 8.35 18.56 6.05 3.58 0.00 -0.16 2646
0.01 -0.00 2.55 12.85 18.49 1.96 0.57 -1.54 2660
0.00 0.00 -0.18 10.43 18.93 -1.18 0.94 -1.72 2674
0.00 0.00 -1.78 11.85 9.76 -2.31 -0.18 -1.71 2690
0.00 -0.00 0.56 8.41 8.18 -2.93 -1.15 -1.61 2703
0.00 -0.00 2.57 6.29 7.39 -3.16 -1.46 -1.48 2717
0.00 -0.00 4.12 5.72 7.04 -3.41 -1.45 -1.34 2732
0.00 0.00 5.08 5.01 8.00 -3.75 -1.30 -1.14 2746
0.00 0.00 5.83 3.82 9.62 -4.13 -1.10 -0.88 2760
0.00 -0.00 6.28 2.51 10.25 -4.28 -0.84 -0.51 2775
0.00 0.00 6.42 1.33 10.60 -4.28 -0.60 -0.14 2789
0.00 0.00 6.52 -0.42 11.21 -4.28 -0.35 0.18 2803
0.00 0.00 7.00 -2.53 12.28 -4.28 0.00 0.39 2818
0.00 0.00 7.03 -3.86 13.93 -4.28 0.45 0.48 2832
0.00 0.00 6.98 -5.44 15.52 -4.28 1.02 0.50 2846
0.00 0.00 6.78 -6.07 17.58 -4.26 1.39 0.57 2861
0.00 0.00 6.09 -6.72 17.81 -4.20 1.55 0.81 2875
0.00 0.00 5.49 -7.78 18.82 -4.01 1.63 1.15 2889
0.00 0.00 4.64 -9.95 19.51 -3.70 1.89 1.44 2904
0.00 0.00 3.51 -11.46 19.11 -3.35 1.86 1.72 2918
0.00 0.00 2.98 -13.18 18.71 -3.01 1.34 1.97 2932
0.00 0.00 3.58 -13.80 17.73 -2.65 0.74 2.10 2947
0.00 0.00 3.81 -15.28 17.56 -2.36 0.36 2.06 2961
0.00 0.00 5.47 -15.77 18.68 -2.40 0.45 1.93 2975
0.00 0.00 5.68 -17.02 15.81 -2.97 1.05 1.82 2990
0.00 0.00 2.34 -18.63 9.24 -3.07 1.79 1.84 3004
0.00 0.00 -3.97 -21.57 6.67 -2.23 3.01 2.55 3018
0.00 0.00 -8.18 -26.61 5.80 -1.19 1.78 2.77 3033
0.00 0.00 -5.10 -24.59 2.97 -0.55 -0.40 2.07 3047
0.00 0.00 -2.05 -22.80 5.48 0.04 -0.63 1.18 3061
0.00 0.00 -2.87 -42.91 -17.13 0.51 -0.07 0.32 3076
0.00 0.00 -4.49 -17.04 -4.26 2.68 0.40 0.53 3090
-0.00 0.08 -0.54 4.56 4.42 2.81 0.17 0.65 3104
-0.01 0.27 -4.24 0.17 18.76 3.93 0.11 0.47 3120
-0.04 0.79 -3.99 -4.58 19.70 4.12 -0.94 -0.55 3134
-0.04 0.87 -0.97 -2.71 19.15 3.75 0.03 -0.71 3148
-0.05 0.89 4.56 -2.77 20.45 3.21 -0.55 -0.87 3163
-0.05 0.81 1.16 -3.47 13.29 0.83 -1.70 -0.09 3177
-0.03 0.78 -0.44 -0.99 10.35 0.08 -0.27 -0.02 3191
-0.04 0.75 0.53 -1.31 9.85 -0.01 -0.05 -0.03 3205
-0.01 0.77 0.25 -0.98 9.87 -0.02 -0.04 -0.04 3219
-0.03 0.77 0.45 -0.94 9.82 -0.02 -0.02 -0.05 3233
-0.00 0.66 0.38 -0.94 9.80 0.00 -0.01 -0.06 3248
0.00 0.63 0.34 -0.90 9.81 0.01 0.01 -0.06 3262
0.03 0.56 0.37 -0.95 9.81 0.03 0.02 -0.07 3276
0.05 0.41 0.29 -0.91 9.81 0.03 0.04 -0.06 3291
0.06 0.35 0.35 -0.90 9.79 0.04 0.05 -0.06 3305
0.07 0.28 0.42 -0.93 9.79 0.05 0.05 -0.07 3319
0.09 0.19 0.40 -0.96 9.80 0.05 0.05 -0.07 3334
0.13 0.10 0.38 -1.03 9.74 0.04 0.05 -0.08 3348
0.14 0.05 0.37 -1.00 9.79 0.04 0.05 -0.08 3362
0.16 0.02 0.38 -0.98 9.75 0.03 0.05 -0.07 3377
0.17 0.02 0.34 -0.99 9.20 0.02 0.05 -0.07 3391
0.18 0.02 0.40 -1.04 9.77 0.02 0.05 -0.07 3405
0.16 -0.01 0.42 -1.01 9.69 0.01 0.04 -0.07 3420
0.19 0.01 0.40 -1.02 9.75 0.01 0.03 -0.07 3434
0.22 0.00 0.40 -1.05 9.77 0.01 0.03 -0.08 3448
0.24 -0.01 0.38 -1.00 9.76 0.00 0.02 -0.08 3463
0.25 -0.00 0.36 -1.01 9.77 -0.00 0.03 -0.08 3477
0.28 -0.01 0.37 -1.05 9.77 -0.00 0.03 -0.08 3491
0.28 -0.01 0.40 -0.98 9.79 -0.00 0.03 -0.07 3506
0.29 -0.00 0.36 -0.97 10.37 0.01 0.04 -0.07 3520
0.33 -0.02 0.36 -1.00 9.77 0.02 0.05 -0.07 3534
0.38 -0.01 0.34 -1.03 9.78 0.03 0.05 -0.07 3549
0.50 -0.02 0.37 -1.01 9.89 0.07 0.06 -0.07 3563
0.59 -0.02 0.30 -1.10 9.93 0.12 0.11 -0.08 3577
0.69 -0.03 0.34 -1.66 10.01 0.33 0.28 -0.13 3593
0.78 -0.03 0.35 -1.29 10.99 1.24 0.57 -0.10 3607
0.89 -0.04 0.45 -1.72 11.87 1.62 0.46 -0.16 3621
0.89 -0.04 0.88 -1.76 12.21 1.72 0.12 -0.21 3636
1.01 -0.04 0.53 -1.73 13.49 2.06 -0.12 -0.21 3650
1.13 -0.05 0.59 -2.10 12.96 2.48 -0.26 -0.19 3664
1.13 -0.04 0.50 -2.42 12.94 2.90 -0.30 -0.20 3679
1.08 -0.04 0.47 -2.82 13.89 3.48 -0.33 -0.21 3693
1.00 -0.05 1.03 -3.19 15.27 4.12 -0.41 -0.23 3707
0.73 -0.04 2.10 -3.70 16.98 4.28 -0.75 -0.46 3722
0.39 -0.02 2.39 -6.68 19.16 4.28 -1.28 -0.70 3736
0.21 -0.02 2.15 -10.25 25.39 4.28 -1.59 -0.96 3750
0.16 -0.01 4.94 -10.85 25.55 4.28 -1.35 -1.12 3765
0.13 -0.01 4.31 -7.67 23.05 4.28 -0.66 -1.38 3778
0.07 -0.01 1.54 -2.74 27.29 4.28 -0.44 -1.51 3792
0.05 -0.00 3.18 2.65 28.59 4.28 -1.69 -1.62 3807
0.00 0.00 9.75 12.43 12.99 4.28 -1.68 -1.57 3821
0.00 0.00 8.93 23.15 -5.66 2.88 -0.89 -2.08 3835
0.00 0.00 8.55 10.05 30.84 0.46 0.98 -2.37 3850
0.00 0.00 1.98 14.57 15.21 -2.34 1.25 -1.61 3864
0.00 0.00 2.18 9.76 9.87 -3.91 0.33 -0.91 3878
0.00 -0.00 3.24 5.49 7.61 -4.04 -0.17 -0.41 3893
0.00 0.00 4.51 4.32 6.39 -3.80 0.01 -0.14 3907
0.00 0.00 4.33 4.01 6.96 -3.79 0.58 -0.08 3921
0.01 0.01 3.25 3.65 8.61 -4.01 1.29 0.01 3936
0.00 0.00 2.08 2.68 10.07 -4.19 1.66 0.14 3950
0.00 0.00 1.13 1.62 10.79 -4.28 1.76 0.32 3964
0.00 -0.00 0.70 0.69 11.92 -4.28 1.63 0.49 3979
0.00 -0.00 0.77 -0.69 13.44 -4.28 1.70 0.62 3993
0.00 -0.00 0.74 -1.99 15.32 -4.28 2.00 0.65 4007
0.01 -0.00 0.03 -3.63 17.45 -4.28 2.45 0.61 4022
0.00 0.00 -0.14 -6.40 18.57 -4.28 3.02 0.60 4036
0.00 0.00 -1.28 -8.42 19.48 -4.26 3.11 0.63 4050
0.02 -0.00 -2.77 -8.95 20.47 -4.03 2.60 0.72 4065
0.00 -0.00 -2.19 -8.63 20.78 -3.65 1.76 0.89 4079
0.00 -0.00 -0.18 -9.75 22.13 -3.59 1.10 0.99 4093
0.01 -0.00 0.71 -11.92 21.82 -3.66 0.94 1.05 4108
0.00 -0.00 0.78 -13.33 20.34 -3.82 1.04 1.11 4122
0.00 0.00 0.28 -15.63 18.66 -3.74 1.36 1.28 4136
0.01 -0.00 -1.17 -18.25 16.15 -3.32 1.29 1.55 4152
0.00 0.00 -1.70 -22.41 12.79 -2.81 0.85 1.78 4165
0.00 -0.00 -2.20 -25.71 7.62 -2.22 0.75 1.99 4179
0.01 -0.00 -3.76 -29.37 4.78 -1.49 0.96 1.93 4194
0.00 0.00 -4.94 -28.97 3.87 -0.49 1.02 1.48 4208
0.00 0.00 -5.99 -23.80 4.92 0.37 0.63 0.86 4222
0.00 0.00 -9.55 -23.58 -0.18 2.77 -0.57 0.55 4237
0.00 0.00 -2.47 -16.36 0.74 2.91 -1.72 0.42 4251
-0.01 0.09 2.35 -0.28 7.57 2.95 -0.95 0.73 4265
-0.01 0.31 -4.58 -0.80 16.84 3.60 0.02 0.96 4280
-0.03 0.66 -5.24 -4.53 18.83 3.68 -0.77 0.01 4295
-0.03 0.83 -1.17 -2.05 18.83 3.27 -0.29 -0.29 4310
-0.05 0.89 1.91 -1.43 12.47 2.63 -0.39 -0.48 4324
-0.05 0.91 2.93 -1.66 14.85 2.87 -0.73 -0.27 4338
-0.04 0.93 -0.37 -2.38 12.74 0.54 -1.25 -0.07 4353
-0.04 0.90 0.16 -1.12 10.10 0.11 -0.38 -0.06 4367
-0.06 0.94 0.37 -1.16 9.82 -0.00 -0.08 -0.04 4380
-0.02 0.88 0.42 -0.87 9.80 -0.00 -0.02 -0.06 4395
-0.02 0.79 -0.59 -0.83 9.05 0.02 -0.02 -0.07 4409
-0.03 0.74 0.33 -0.93 9.82 0.02 -0.00 -0.07 4423
0.04 0.60 0.35 -0.92 9.83 0.03 0.00 -0.07 4438
0.03 0.52 0.29 -0.86 9.82 0.04 0.02 -0.07 4452
0.04 0.38 0.34 -0.89 9.82 0.05 0.02 -0.07 4466
0.09 0.24 0.35 -0.83 9.81 0.05 0.02 -0.07 4481
0.11 0.15 0.36 -0.96 9.82 0.05 0.01 -0.08 4495
0.15 0.13 0.34 -0.97 9.80 0.04 0.01 -0.09 4509
0.22 0.04 0.28 -1.03 9.72 0.04 0.02 -0.08 4524
0.19 0.04 0.32 -0.97 9.78 0.04 0.03 -0.08 4538
0.21 0.01 0.34 -0.98 9.78 0.04 0.03 -0.07 4552
0.25 -0.01 0.39 -1.00 9.82 0.04 0.04 -0.07 4567
0.27 -0.02 0.40 -1.04 9.80 0.04 0.03 -0.07 4581
0.31 -0.01 0.36 -1.05 9.74 0.03 0.03 -0.08 4595
0.36 -0.02 0.35 -1.02 10.38 0.02 0.02 -0.08 4610
0.37 -0.03 0.34 -1.03 9.77 0.02 0.03 -0.09 4624
0.43 -0.01 0.31 -1.00 9.80 0.03 0.03 -0.08 4638
0.49 -0.02 0.31 -1.02 9.81 0.04 0.04 -0.09 4653
0.58 -0.02 0.31 -1.03 9.81 0.06 0.04 -0.08 4667
0.64 -0.02 0.32 -1.03 9.83 0.07 0.05 -0.08 4681
0.70 -0.04 0.34 -1.08 9.83 0.12 0.08 -0.08 4696
0.78 -0.04 0.35 -1.25 9.92 0.22 0.13 -0.10 4710
0.90 -0.03 0.42 -1.27 10.16 0.65 0.21 -0.11 4725
1.01 -0.05 0.45 -1.28 10.43 1.03 0.22 -0.13 4740
1.12 -0.04 0.35 -1.46 12.25 1.19 0.06 -0.14 4754
1.23 -0.04 0.32 -1.72 11.55 1.39 -0.03 -0.14 4768
1.32 -0.04 0.36 -1.85 11.32 1.58 -0.19 -0.15 4783
1.34 -0.05 0.26 -1.99 11.77 1.81 -0.29 -0.15 4797
1.36 -0.04 0.47 -2.32 11.87 2.18 -0.37 -0.17 4811
1.38 -0.05 0.46 -2.52 12.92 2.63 -0.42 -0.20 4826
1.34 -0.04 0.13 -2.94 13.66 3.23 -0.47 -0.23 4840
1.20 -0.04 1.09 -3.32 14.52 3.90 -0.58 -0.27 4854
0.97 -0.04 1.54 -4.25 17.16 4.28 -0.87 -0.46 4869
0.41 -0.02 2.00 -6.59 20.80 4.28 -1.28 -0.72 4883
0.34 -0.02 1.72 -10.83 24.61 4.28 -1.37 -0.96 4897
0.22 -0.02 3.74 -10.42 26.32 4.28 -0.98 -1.12 4912
0.10 -0.01 3.77 -6.63 24.51 4.28 -0.42 -1.27 4925
0.12 -0.01 1.85 -1.88 26.72 4.28 -0.23 -1.36 4939
0.03 -0.00 4.39 3.60 27.85 4.28 -1.01 -1.49 4954
0.03 -0.00 10.22 13.40 13.24 4.28 -0.37 -1.62 4969
0.00 0.00 10.10 23.01 -7.56 2.84 0.70 -2.38 4982
0.00 0.00 6.03 11.73 28.41 -0.02 2.11 -2.41 4997
0.00 0.00 0.83 12.91 11.95 -2.32 1.57 -1.61 5011
0.00 0.00 1.99 9.34 8.14 -3.50 0.71 -0.95 5025
0.00 0.00 2.62 5.63 7.03 -3.68 0.61 -0.46 5040
0.00 0.00 2.99 4.45 6.52 -3.66 0.88 -0.12 5054
0.00 -0.00 1.89 4.10 7.15 -3.68 1.22 0.13 5068
0.00 0.00 1.16 3.55 8.79 -3.78 1.41 0.37 5083
0.00 0.00 0.60 2.78 10.41 -3.98 1.64 0.53 5097
0.00 -0.00 -0.02 2.08 11.83 -4.22 1.90 0.64 5111
0.00 0.00 -0.94 0.91 13.15 -4.28 2.02 0.69 5126
0.00 -0.00 -1.74 -1.00 14.30 -4.28 2.13 0.65 5140
0.00 0.00 -2.33 -2.94 15.29 -4.28 2.23 0.52 5154
0.00 0.00 -3.43 -4.90 16.26 -4.28 2.29 0.30 5169
0.01 -0.00 -3.71 -5.80 18.03 -4.24 2.19 0.07 5183
0.00 -0.00 -4.02 -6.10 17.79 -4.08 1.88 -0.10 5197
0.00 0.00 -3.48 -5.94 17.85 -3.77 1.45 -0.23 5212
0.01 -0.00 -1.99 -6.88 19.53 -3.47 1.13 -0.25 5226
0.00 -0.00 -0.36 -8.14 20.82 -3.35 1.10 -0.19 5240
0.00 0.00 0.31 -9.09 21.29 -3.43 1.15 0.02 5255
0.01 -0.00 0.25 -10.94 20.52 -3.45 1.04 0.45 5269
0.00 -0.00 1.13 -14.91 21.03 -3.33 0.91 0.98 5283
0.00 0.00 1.02 -19.32 18.23 -3.18 1.21 1.55 5298
0.01 -0.00 -2.47 -21.57 12.40 -3.09 2.06 2.18 5313
0.00 0.00 -5.41 -29.90 7.54 -2.67 1.90 2.43 5326
0.00 0.00 -5.42 -31.97 1.57 -1.84 1.11 2.04 5341
0.01 -0.00 -4.73 -30.67 0.90 -0.42 0.91 1.27 5355
0.00 0.00 -4.62 -23.86 4.53 0.72 0.78 0.53 5369
0.00 -0.00 -3.43 -16.59 9.03 1.21 0.15 0.11 5384
0.00 -0.00 -8.12 -7.41 16.21 2.89 -2.26 1.01 5398
0.00 0.02 6.05 -1.60 1.53 2.58 -1.80 1.25 5412
0.00 0.15 -0.78 3.76 8.16 2.82 0.41 2.22 5427
-0.02 0.46 -12.90 -5.43 20.74 3.73 -0.66 1.33 5442
-0.04 0.62 -4.62 -4.41 20.88 3.73 -0.91 0.14 5456
-0.04 0.77 -1.89 -1.61 14.55 2.98 -0.59 -0.58 5471
-0.04 0.87 0.89 -5.55 41.04 2.31 -2.39 -0.56 5485
-0.05 0.88 -0.18 -2.68 11.70 0.30 -0.60 0.01 5498
-0.05 0.90 0.07 -1.07 9.83 0.02 0.01 -0.06 5513
0.01 0.81 0.57 -1.01 9.84 0.00 0.02 -0.04 5527
-0.03 0.80 0.43 -0.88 9.85 0.01 0.03 -0.06 5541
-0.01 0.75 0.39 -0.84 9.87 0.02 0.01 -0.06 5556
0.07 0.59 0.34 -0.85 9.84 0.03 0.03 -0.07 5570
0.10 0.52 0.41 -0.86 9.83 0.05 0.04 -0.07 5584
0.09 0.47 0.40 -0.86 9.80 0.05 0.04 -0.06 5599
0.12 0.34 0.43 -0.87 9.81 0.06 0.04 -0.06 5613
0.10 0.19 0.45 -0.89 9.82 0.06 0.03 -0.07 5627
0.15 0.10 0.46 -0.90 9.80 0.07 0.03 -0.08 5642
0.20 0.06 0.41 -0.94 9.79 0.06 0.03 -0.09 5656
0.21 0.01 0.41 -0.94 9.77 0.06 0.04 -0.08 5670
0.24 -0.01 0.39 -0.97 9.76 0.06 0.04 -0.07 5685
0.28 -0.02 0.43 -0.94 9.81 0.06 0.05 -0.07 5699
0.31 -0.02 0.46 -0.97 9.80 0.06 0.05 -0.07 5713
0.32 -0.01 0.45 -1.04 9.79 0.06 0.05 -0.08 5728
0.35 -0.04 0.46 -0.97 9.81 0.06 0.05 -0.08 5742
0.37 -0.03 0.44 -1.03 9.77 0.07 0.06 -0.09 5756
0.43 -0.02 0.41 -1.03 9.80 0.10 0.06 -0.10 5771
0.44 -0.03 0.35 -1.02 9.81 0.11 0.07 -0.10 5785
0.49 -0.02 0.38 -1.03 9.82 0.13 0.07 -0.08 5799
0.54 -0.03 0.38 -1.08 9.80 0.23 0.09 -0.07 5814
0.58 -0.03 0.46 -1.15 9.82 0.28 0.10 -0.07 5828
0.66 -0.02 0.43 -1.18 9.88 0.37 0.12 -0.07 5842
0.68 -0.03 0.52 -1.23 10.14 0.47 0.13 -0.09 5858
0.72 -0.03 0.63 -1.43 10.35 0.63 0.12 -0.11 5872
0.76 -0.02 0.58 -1.51 10.47 0.74 0.07 -0.13 5886
0.84 -0.03 0.50 -1.66 10.70 0.89 0.03 -0.14 5900
0.89 -0.03 0.42 -1.83 10.75 1.04 -0.07 -0.13 5915
0.96 -0.01 0.43 -1.88 11.08 1.23 -0.07 -0.11 5929
1.00 -0.03 0.42 -2.05 11.20 1.44 -0.11 -0.11 5943
1.02 -0.03 0.46 -2.26 11.58 1.68 -0.16 -0.12 5958
1.04 -0.03 0.59 -2.46 11.77 2.00 -0.15 -0.12 5972
1.04 -0.04 0.48 -2.79 11.76 2.37 -0.09 -0.13 5987
1.01 -0.04 0.45 -3.22 12.78 2.80 -0.03 -0.16 6001
0.90 -0.03 0.68 -3.65 14.16 3.40 0.03 -0.18 6016
0.65 -0.03 1.47 -4.87 15.00 4.09 0.05 -0.33 6029
0.29 -0.02 1.55 -6.09 17.87 4.28 -0.02 -0.43 6044
0.16 -0.02 0.94 -8.21 20.48 4.28 -0.03 -0.44 6057
0.09 -0.01 1.22 -9.49 21.49 4.28 0.21 -0.32 6072
0.06 -0.01 1.66 -8.16 19.66 4.28 0.53 -0.33 6086
0.09 -0.01 0.07 -7.72 23.14 4.28 0.59 -0.45 6100
0.06 -0.01 1.74 -5.22 22.60 4.28 0.17 -0.58 6115
0.00 -0.00 3.21 1.71 14.77 4.28 0.13 -0.67 6129
0.00 0.00 6.15 8.72 9.41 3.52 0.95 -0.80 6144
0.00 0.00 4.44 17.32 -2.10 1.57 1.47 -1.68 6158
0.00 0.00 -0.43 6.52 20.01 -0.94 1.23 -1.88 6172
0.00 0.00 -2.37 8.31 8.44 -2.37 0.36 -1.76 6187
0.00 0.00 -1.04 5.43 4.91 -2.82 -0.65 -1.63 6201
0.00 0.00 0.35 3.30 5.13 -2.71 -1.07 -1.46 6215
0.00 0.00 1.62 3.92 4.72 -2.65 -0.92 -1.16 6230
0.00 0.00 2.00 4.93 5.44 -2.88 -0.48 -0.83 6244
0.00 0.00 1.75 4.23 7.16 -3.33 -0.09 -0.45 6258
0.00 0.00 1.52 2.80 8.34 -3.78 0.18 -0.10 6273
0.00 0.00 1.15 1.69 9.43 -4.15 0.35 0.22 6287
0.00 0.00 0.78 -0.02 10.69 -4.28 0.39 0.48 6301
0.00 0.00 0.55 -2.22 11.91 -4.28 0.38 0.67 6316
0.00 0.00 0.61 -4.39 12.69 -4.28 0.32 0.80 6330
0.00 0.00 0.94 -6.05 13.51 -4.24 0.24 0.93 6344
0.00 0.00 1.69 -6.81 14.26 -4.12 0.13 1.16 6359
0.00 0.00 3.03 -7.17 15.02 -3.95 0.06 1.50 6373
0.00 0.00 3.83 -8.61 16.11 -3.78 0.08 1.93 6387
0.00 0.00 3.90 -10.32 16.58 -3.56 0.03 2.57 6402
0.00 0.00 4.24 -12.81 16.20 -3.29 -0.44 3.32 6416
0.00 0.00 5.85 -14.42 15.10 -2.98 -1.06 3.91 6430
0.00 0.00 7.34 -14.89 13.49 -2.58 -1.36 4.22 6445
0.00 0.00 7.91 -14.18 12.35 -2.10 -1.20 4.28 6459
0.00 0.00 7.49 -12.82 11.55 -1.67 -0.58 4.28 6473
0.00 0.00 6.63 -11.78 11.81 -1.39 -0.02 4.28 6488
0.00 0.00 6.81 -11.28 12.89 -1.25 0.27 4.28 6502
0.00 0.00 7.65 -11.36 12.72 -1.28 0.21 4.28 6516
0.00 0.00 8.44 -11.28 11.72 -1.46 0.09 4.28 6531
0.00 0.00 9.19 -11.57 9.81 -1.58 0.03 4.28 6545
0.00 0.00 9.57 -12.28 7.98 -1.52 0.38 4.27 6559
0.00 0.00 8.62 -12.92 6.87 -1.37 1.04 3.68 6574
0.00 0.00 9.35 -19.95 6.54 -0.93 1.70 3.01 6588
0.00 0.00 3.76 -14.23 4.58 -0.08 2.58 2.44 6602
0.00 0.00 -0.29 -15.88 7.47 0.44 2.39 1.87 6617
0.00 0.00 -1.20 -16.30 5.35 0.95 1.48 1.31 6631
-0.00 0.01 -2.84 1.94 6.08 1.54 1.07 0.88 6645
-0.02 0.16 -3.09 -0.13 12.43 1.96 0.09 0.41 6660
-0.03 0.48 -5.53 -1.73 13.19 2.71 -0.79 -0.69 6675
-0.02 0.60 -0.76 -5.10 31.34 2.07 -1.61 -1.00 6689
0.00 0.62 -0.21 -3.71 10.97 -0.14 0.09 -0.09 6703
0.00 0.68 0.21 -0.05 9.85 -0.02 0.13 -0.09 6717
0.02 0.61 0.44 -1.16 9.82 -0.02 0.12 -0.06 6731
0.01 0.57 0.51 -0.75 9.80 -0.01 0.11 -0.05 6746
0.02 0.58 0.51 -0.98 9.79 -0.01 0.06 -0.06 6760
0.04 0.56 0.44 -0.91 9.82 -0.01 0.05 -0.07 6774
-0.01 0.55 0.42 -0.84 9.81 -0.01 0.02 -0.08 6789
0.01 0.56 0.42 -0.87 9.80 -0.02 0.00 -0.08 6803
-0.00 0.58 0.43 -0.89 9.80 -0.02 -0.01 -0.08 6817
0.00 0.58 0.34 -0.84 9.82 -0.01 -0.00 -0.08 6832
0.02 0.59 0.31 -0.82 9.79 -0.00 0.01 -0.07 6846
0.01 0.58 0.34 -0.83 9.79 -0.00 0.02 -0.06 6860
0.02 0.56 0.36 -0.85 9.77 -0.00 0.03 -0.06 6875
0.06 0.59 0.37 -0.82 9.79 -0.00 0.03 -0.07 6889
0.04 0.58 0.38 -0.86 9.78 -0.00 0.02 -0.07 6903
0.03 0.54 0.36 -0.83 9.79 -0.00 0.02 -0.07 6918
0.03 0.51 0.35 -0.85 9.80 -0.00 0.02 -0.07 6932
0.02 0.51 0.33 -0.86 9.80 -0.01 0.03 -0.06 6946
0.03 0.51 0.34 -0.82 9.79 -0.00 0.04 -0.06 6961
0.04 0.49 0.38 -0.80 9.78 -0.00 0.03 -0.06 6975
0.04 0.47 0.39 -0.86 9.75 -0.00 0.03 -0.03 6989
0.05 0.47 0.33 -0.84 9.81 0.00 0.03 -0.07 7004
0.11 0.41 0.31 -0.87 9.80 0.00 0.04 -0.07 7018
0.10 0.40 0.32 -0.85 9.80 0.01 0.04 -0.07 7032
0.12 0.38 0.38 -0.85 9.80 0.01 0.03 -0.07 7047
0.14 0.40 0.39 -0.83 9.77 0.01 0.03 -0.08 7061
0.17 0.33 0.33 -0.87 9.78 0.01 0.03 -0.07 7075
0.18 0.35 0.30 -0.86 9.79 0.01 0.03 -0.07 7090
0.20 0.34 0.33 -0.87 10.42 0.00 0.03 -0.07 7104
0.18 0.29 0.35 -0.87 9.79 0.00 0.04 -0.07 7118
0.22 0.29 0.35 -0.89 9.76 0.00 0.04 -0.07 7133
0.25 0.22 0.36 -0.87 9.78 0.00 0.04 -0.07 7147
0.24 0.18 0.34 -0.90 9.82 -0.00 0.04 -0.07 7161
0.26 0.21 0.32 -0.89 9.79 0.00 0.04 -0.07 7176
0.29 0.20 0.29 -0.88 9.73 0.01 0.04 -0.07 7190
0.29 0.17 0.37 -0.88 9.80 0.00 0.04 -0.07 7204
0.30 0.15 0.34 -0.88 9.79 0.00 0.04 -0.07 7219
0.31 0.17 0.36 -0.87 9.79 0.01 0.04 -0.08 7233
0.30 0.10 0.34 -0.85 9.81 0.02 0.04 -0.08 7247
0.35 0.09 0.34 -0.92 9.78 0.02 0.04 -0.07 7262
0.38 0.02 0.35 -0.89 9.82 0.03 0.05 -0.07 7276
0.38 0.01 0.35 -0.94 9.82 0.04 0.05 -0.07 7290
0.38 -0.00 0.34 -0.81 9.91 0.06 0.06 -0.07 7305
0.41 -0.03 0.28 -0.83 9.97 0.09 0.08 -0.04 7319
0.42 -0.02 0.42 -0.74 10.15 0.15 0.10 -0.01 7333
0.46 -0.02 0.97 -0.93 11.51 0.65 0.22 -0.06 7349
0.48 -0.03 0.80 -1.41 12.76 1.23 0.11 -0.08 7363
0.51 -0.03 0.47 -1.31 11.39 1.17 -0.13 -0.14 7377
0.52 -0.03 0.26 -1.58 11.14 1.25 -0.32 -0.14 7392
0.48 -0.02 0.32 -1.65 11.03 1.39 -0.41 -0.13 7406
0.42 -0.01 0.26 -1.90 11.15 1.47 -0.67 -0.10 7420
0.31 -0.02 0.30 -2.20 11.93 1.47 -1.21 -0.09 7435
0.14 -0.01 1.83 -2.91 12.54 1.10 -2.39 -0.28 7449
0.13 0.01 0.11 -2.37 15.58 0.29 -3.44 -0.40 7463
0.06 0.00 1.49 -2.16 17.90 -0.64 -4.28 -0.07 7477
0.01 -0.00 13.03 -6.67 11.37 -1.70 -4.28 1.35 7492
0.00 0.00 20.73 -4.58 13.07 -1.89 -4.28 4.23 7505
0.00 0.00 16.84 -6.07 5.03 -2.33 -2.26 4.28 7520
0.00 0.00 10.60 -6.35 6.06 -1.95 -0.39 4.28 7534
0.00 0.00 6.43 -5.08 6.35 -1.30 0.03 4.28 7548
0.00 0.00 4.81 -3.12 7.33 -0.82 -0.04 4.28 7563
0.00 0.00 4.19 -1.59 8.03 -0.57 -0.02 4.28 7577
0.00 -0.00 3.63 -0.14 9.60 -0.54 0.24 4.28 7591
0.00 0.00 2.99 0.75 10.50 -0.72 0.56 4.28 7606
0.00 0.00 2.22 1.26 10.39 -0.94 0.63 4.15 7620
0.00 -0.00 2.05 1.08 10.15 -1.13 0.51 3.63 7634
0.00 0.00 2.57 0.47 9.77 -1.20 0.41 3.10 7649
-0.00 0.00 3.35 0.13 9.74 -1.19 0.47 2.61 7663
0.01 -0.00 3.73 -0.02 9.71 -1.17 0.59 2.23 7677
0.00 0.00 3.66 -0.35 10.02 -1.14 0.59 2.03 7692
0.00 0.00 3.80 -0.71 11.19 -1.15 0.48 1.95 7706
0.00 -0.00 4.43 -0.80 12.13 -1.28 0.44 1.94 7720
0.00 0.00 4.92 -1.18 12.85 -1.54 0.61 1.95 7735
0.00 0.00 4.74 -2.03 12.59 -1.75 0.84 1.99 7749
0.00 0.00 4.34 -3.13 11.87 -1.78 0.93 2.04 7763
0.00 0.00 4.09 -4.06 11.22 -1.63 0.96 2.09 7778
0.00 0.00 3.49 -4.51 10.42 -1.34 1.00 2.14 7792
0.00 0.00 2.45 -4.65 10.03 -0.88 0.96 2.19 7806
0.00 0.00 1.70 -4.35 11.59 -0.46 0.87 2.27 7821
0.00 0.00 1.89 -3.64 13.89 -0.44 0.96 2.30 7835
0.00 0.00 1.56 -3.35 14.66 -0.89 1.29 2.31 7849
0.00 0.00 0.56 -3.94 13.21 -1.42 1.34 2.35 7864
-0.00 0.00 0.05 -4.76 10.67 -1.53 1.14 2.40 7878
0.00 0.00 -1.06 -4.80 8.75 -1.30 1.17 2.58 7892
0.00 0.00 -2.72 -5.52 9.16 -0.95 0.98 2.80 7907
0.01 -0.00 -3.41 -6.18 9.72 -0.58 0.40 2.89 7921
0.02 -0.00 -2.86 -6.77 10.36 -0.46 -0.22 2.81 7936
0.00 -0.00 -1.37 -7.66 10.30 -0.66 -0.44 2.54 7950
0.02 -0.00 -0.34 -9.63 8.49 -0.89 -0.06 2.11 7964
0.01 -0.00 -1.96 -11.61 6.34 -0.80 0.53 1.73 7979
0.01 -0.00 -4.35 -12.92 5.87 -0.36 0.73 1.45 7993
0.03 -0.00 -6.02 -12.87 7.33 0.22 0.34 1.20 8007
0.03 -0.00 -10.39 -11.09 51.36 1.79 -0.38 0.94 8023
0.01 -0.00 -3.61 -14.66 4.15 1.89 -0.64 0.49 8036
0.03 0.05 -3.14 -4.07 8.09 2.29 -0.57 0.25 8050
0.02 0.08 -0.17 2.67 14.92 2.47 -0.16 0.06 8065
0.00 0.36 -3.04 -0.32 13.05 2.68 -0.81 -0.47 8080
0.01 0.57 0.89 -2.79 15.97 2.93 -0.96 -0.73 8094
0.01 0.48 1.49 -2.31 15.43 2.38 -0.74 -0.61 8109
0.03 0.50 0.94 -1.73 10.07 0.18 -0.27 -0.02 8122
0.03 0.55 -0.41 -1.10 9.92 -0.03 0.13 0.01 8136
-0.01 0.53 0.47 -0.84 9.78 -0.01 0.10 -0.02 8151
-0.01 0.54 0.30 -0.85 9.79 -0.04 0.05 -0.03 8165
0.02 0.57 0.43 -0.84 9.74 -0.06 0.04 -0.04 8179
0.02 0.66 0.33 -0.81 9.81 -0.06 0.02 -0.04 8194
-0.01 0.79 0.32 -0.75 9.84 -0.05 0.03 -0.05 8208
0.01 0.80 0.39 -0.72 9.81 -0.03 0.03 -0.05 8222
-0.01 0.78 0.39 -0.74 9.81 -0.02 0.03 -0.05 8237
-0.01 0.79 0.35 -0.72 9.81 -0.02 0.02 -0.06 8251
-0.00 0.80 0.32 -0.74 9.81 -0.02 0.02 -0.06 8265
-0.02 0.75 0.34 -0.73 9.79 -0.01 0.02 -0.06 8280
-0.00 0.75 0.38 -0.71 9.80 -0.01 0.01 -0.06 8294
-0.01 0.71 0.35 -0.75 9.77 -0.01 0.01 -0.07 8308
-0.01 0.68 0.34 -0.73 9.20 -0.01 0.01 -0.07 8323
0.02 0.68 0.34 -0.72 9.78 -0.00 0.01 -0.07 8337
-0.00 0.63 0.28 -0.70 9.80 -0.01 0.02 -0.08 8351
0.00 0.61 0.31 -0.73 9.79 -0.00 0.03 -0.07 8366
0.01 0.60 0.31 -0.72 9.80 -0.00 0.04 -0.07 8380
0.00 0.58 0.34 -0.73 9.80 -0.00 0.04 -0.07 8394
-0.00 0.60 0.35 -0.71 9.76 0.00 0.05 -0.07 8409
0.01 0.61 0.33 -0.75 9.81 0.03 0.04 -0.07 8423
0.01 0.58 0.32 -0.75 9.78 -0.00 0.04 -0.07 8437
0.00 0.59 0.31 -0.74 9.75 -0.01 0.04 -0.07 8452
0.01 0.59 0.33 -0.71 9.75 -0.00 0.04 -0.08 8466
0.00 0.51 0.31 -0.72 9.81 0.00 0.04 -0.07 8480
0.02 0.48 0.34 -0.72 9.81 0.01 0.04 -0.07 8495
0.06 0.44 0.34 -0.72 9.80 0.01 0.04 -0.08 8509
0.06 0.43 0.34 -0.76 9.81 0.03 0.04 -0.08 8523
0.11 0.28 0.33 -0.75 9.81 0.03 0.04 -0.08 8538
0.17 0.21 0.32 -0.77 9.77 0.05 0.05 -0.09 8552
0.22 0.10 0.32 -0.76 9.81 0.06 0.05 -0.08 8566
0.34 0.02 0.31 -0.81 9.83 0.07 0.06 -0.08 8581
0.43 -0.02 0.34 -0.88 9.90 0.10 0.07 -0.07 8595
0.56 -0.04 0.31 -0.90 9.96 0.15 0.09 -0.07 8609
0.69 -0.03 0.36 -1.01 10.14 0.25 0.12 -0.07 8625
0.88 -0.04 0.36 -0.65 12.79 1.11 0.30 -0.12 8639
1.05 -0.06 0.62 -1.24 13.65 1.92 0.04 -0.19 8653
1.24 -0.04 0.80 -1.32 12.63 2.11 -0.35 -0.23 8668
1.29 -0.04 0.60 -1.58 12.53 2.52 -0.47 -0.25 8682
1.35 -0.04 0.33 -1.81 12.74 2.82 -0.58 -0.28 8696
1.37 -0.04 0.18 -2.18 13.97 3.28 -0.73 -0.28 8711
1.30 -0.05 0.93 -2.89 15.25 3.91 -0.90 -0.29 8725
1.04 -0.05 1.19 -3.52 16.62 4.28 -1.15 -0.48 8739
0.61 -0.02 1.15 -4.83 19.22 4.28 -1.46 -0.66 8754
0.35 -0.02 -0.05 -8.29 23.15 4.28 -1.80 -0.88 8768
0.24 -0.01 2.72 -9.13 25.46 4.28 -1.56 -0.88 8782
0.16 -0.01 2.49 -6.88 22.75 4.28 -0.74 -1.01 8797
0.10 -0.01 0.88 -2.11 24.81 4.28 -0.60 -1.06 8810
0.01 -0.00 1.40 1.81 24.47 4.28 -1.28 -1.14 8824
0.02 -0.00 6.68 9.16 18.79 4.28 -1.64 -1.13 8839
0.00 0.00 4.10 13.09 3.55 3.69 -0.94 -1.56 8853
0.00 0.00 7.51 12.25 25.82 1.86 0.33 -1.96 8867
0.01 -0.00 3.44 12.52 16.77 -1.35 1.07 -1.45 8883
0.01 -0.00 1.95 10.16 8.63 -2.92 0.50 -0.78 8896
0.00 0.00 3.12 6.48 6.19 -3.25 -0.02 -0.29 8910
0.01 -0.00 4.11 4.95 5.23 -3.21 0.14 0.03 8925
0.00 0.00 3.99 4.20 5.67 -3.22 0.64 0.10 8939
-0.00 0.01 3.16 3.89 7.52 -3.40 1.17 0.14 8953
0.00 0.00 2.19 3.27 9.44 -3.68 1.44 0.19 8968
0.00 0.00 1.42 2.58 10.88 -4.05 1.52 0.32 8982
0.00 0.00 1.04 1.48 11.68 -4.26 1.41 0.48 8996
0.00 0.00 1.04 0.09 12.72 -4.28 1.47 0.60 9011
0.00 0.00 0.91 -1.40 13.75 -4.28 1.69 0.65 9025
0.00 0.00 0.19 -2.75 15.37 -4.28 1.98 0.59 9039
0.00 0.00 -0.67 -4.50 16.09 -4.27 2.29 0.52 9054
0.00 0.00 -1.31 -5.07 17.64 -4.25 2.34 0.54 9068
-0.00 0.00 -2.75 -5.79 18.75 -4.12 2.04 0.67 9082
0.00 0.00 -2.93 -6.65 19.28 -3.88 1.71 0.82 9097
0.00 0.00 -2.58 -6.97 19.69 -3.64 1.25 0.86 9111
-0.00 0.00 -1.53 -8.52 19.65 -3.39 0.88 0.78 9125
0.00 0.00 -0.54 -10.01 20.30 -3.11 0.75 0.66 9140
0.00 0.00 0.14 -11.23 20.02 -2.93 0.86 0.63 9154
0.00 0.00 -0.36 -12.30 19.64 -2.73 1.01 0.76 9168
0.00 0.00 -1.08 -14.33 17.40 -2.58 1.08 1.04 9183
0.00 0.00 -2.91 -16.04 12.95 -2.56 1.49 1.36 9197
0.00 -0.00 -6.02 -22.13 10.52 -2.54 2.29 1.69 9212
0.00 0.00 -10.08 -29.30 6.29 -2.39 1.59 1.58 9226
0.00 0.00 -9.79 -31.11 -0.37 -1.56 0.58 1.15 9240
0.00 0.00 -6.44 -26.86 0.16 -0.09 -0.33 0.28 9254
0.00 0.00 -12.17 -23.83 61.06 3.08 -1.28 -0.58 9269
0.00 0.00 -2.40 -18.47 2.43 3.38 -1.74 -0.97 9283
-0.00 0.09 2.25 1.80 9.79 3.34 -1.63 -0.77 9297
-0.01 0.18 4.23 0.54 18.50 3.22 -0.29 -0.02 9313
-0.03 0.48 -2.86 -4.02 19.25 3.12 -1.07 -0.15 9327
-0.03 0.59 0.48 -2.65 17.34 2.80 -1.08 -0.25 9341
-0.03 0.54 0.44 -1.37 13.73 2.08 -0.78 -0.18 9356
-0.02 0.53 1.45 -2.98 15.10 1.20 -1.05 -0.10 9370
-0.03 0.61 0.28 -1.52 9.86 -0.06 0.07 -0.03 9383
0.02 0.64 0.16 -0.63 9.84 -0.03 0.00 -0.04 9398
0.00 0.69 0.25 -0.89 9.98 -0.04 0.02 -0.06 9412
0.01 0.75 0.25 -0.70 9.84 -0.03 0.03 -0.05 9426
0.03 0.75 0.28 -0.68 9.85 -0.02 0.04 -0.05 9441
0.05 0.76 0.28 -0.64 9.80 -0.01 0.05 -0.06 9455
0.06 0.71 0.33 -0.65 9.80 0.00 0.05 -0.06 9469
0.00 0.67 0.27 -0.64 9.76 0.01 0.04 -0.06 9484
0.03 0.63 0.29 -0.65 9.83 0.01 0.04 -0.06 9498
0.05 0.57 0.23 -0.64 9.81 0.01 0.05 -0.06 9512
0.04 0.49 0.28 -0.63 9.80 0.03 0.06 -0.06 9527
0.06 0.41 0.33 -0.63 10.41 0.03 0.06 -0.07 9541
0.09 0.39 0.31 -0.69 9.82 0.03 0.05 -0.07 9555
0.11 0.22 0.30 -0.69 9.80 0.03 0.05 -0.08 9570
0.11 0.16 0.30 -0.68 9.81 0.03 0.06 -0.08 9584
0.13 0.14 0.27 -0.69 9.80 0.03 0.06 -0.07 9598
0.13 0.06 0.31 -0.70 9.80 0.03 0.07 -0.07 9613
0.18 0.02 0.35 -0.69 9.80 0.04 0.07 -0.07 9627
0.19 0.01 0.32 -0.72 9.79 0.04 0.07 -0.08 9641
0.19 0.01 0.32 -0.74 9.81 0.04 0.07 -0.08 9656
0.25 0.01 0.36 -0.75 10.40 0.04 0.07 -0.08 9670
0.33 -0.02 0.34 -0.73 9.80 0.04 0.07 -0.08 9684
0.31 -0.02 0.36 -0.71 9.82 0.04 0.07 -0.08 9699
0.43 -0.02 0.37 -0.75 9.82 0.05 0.06 -0.08 9713
0.46 -0.03 0.41 -0.79 9.87 0.06 0.06 -0.10 9728
0.51 -0.03 0.43 -0.82 9.81 0.08 0.07 -0.11 9742
0.60 -0.03 0.45 -0.88 9.88 0.12 0.10 -0.11 9756
0.70 -0.05 0.33 -0.81 9.98 0.25 0.15 -0.10 9771
0.85 -0.03 0.40 -0.87 10.38 0.63 0.26 -0.09 9786
0.98 -0.04 0.58 -1.17 10.83 1.07 0.32 -0.12 9800
1.10 -0.05 0.63 -1.41 11.30 1.24 0.17 -0.15 9815
1.16 -0.04 0.47 -1.30 11.67 1.37 -0.00 -0.15 9829
1.24 -0.05 0.39 -1.69 12.30 1.71 -0.09 -0.14 9843
1.28 -0.05 0.63 -1.95 12.07 2.09 -0.13 -0.14 9858
1.33 -0.04 0.59 -2.13 12.60 2.49 -0.21 -0.16 9872
1.34 -0.04 0.80 -2.34 13.06 2.92 -0.25 -0.20 9886
1.29 -0.05 0.65 -2.71 13.70 3.47 -0.29 -0.27 9901
1.21 -0.03 0.49 -3.31 15.90 4.11 -0.36 -0.28 9915
0.98 -0.03 1.32 -4.06 16.09 4.28 -0.45 -0.35 9929
0.59 -0.02 0.80 -6.07 20.06 4.28 -0.58 -0.53 9944
0.43 -0.01 0.88 -9.74 23.97 4.28 -0.68 -0.61 9958
0.27 -0.01 3.18 -14.15 28.39 4.28 -0.24 -0.56 9972
0.15 -0.00 1.78 -8.61 24.65 4.28 0.54 -0.63 9987
0.12 0.00 -1.23 -4.40 30.26 4.28 0.52 -0.72 10001
0.09 -0.00 2.67 2.62 30.01 4.28 -0.61 -0.82 10015
0.01 -0.00 7.89 14.79 17.03 4.28 -0.68 -0.79 10029
-0.00 0.00 5.41 16.18 -4.16 3.36 0.46 -1.70 10043
0.00 -0.00 6.47 16.73 27.07 0.44 1.25 -2.25 10057
0.00 0.00 -0.06 13.47 15.58 -2.41 1.39 -1.92 10072
0.01 -0.00 -0.10 9.89 9.36 -3.80 0.33 -1.35 10086
0.00 0.00 1.49 5.83 6.54 -4.05 -0.14 -1.01 10100
0.00 -0.00 2.44 3.82 6.46 -3.87 -0.23 -0.75 10115
0.00 -0.00 3.22 3.86 6.52 -3.83 -0.01 -0.63 10129
0.00 -0.00 3.19 3.65 8.41 -4.06 0.43 -0.50 10143
0.00 0.00 2.84 2.69 9.90 -4.25 0.79 -0.33 10158
0.01 -0.00 2.25 2.00 10.57 -4.28 1.01 -0.05 10172
0.00 0.00 1.97 1.14 11.57 -4.28 1.01 0.22 10186
0.00 0.00 2.10 -1.09 12.97 -4.28 1.01 0.39 10201
0.01 -0.00 2.48 -2.54 14.43 -4.28 1.29 0.36 10215
0.01 -0.00 2.02 -5.07 15.43 -4.28 1.75 0.14 10229
0.01 0.01 1.42 -6.67 16.20 -4.28 2.14 -0.12 10245
0.00 -0.00 0.43 -8.12 18.29 -4.25 2.33 -0.27 10258
0.00 0.00 -0.50 -8.40 18.78 -4.00 2.10 -0.24 10272
0.01 0.00 -0.06 -8.39 20.19 -3.63 1.62 -0.04 10287
0.00 -0.00 0.82 -8.80 20.41 -3.46 1.36 0.11 10301
0.00 0.00 0.92 -10.60 20.09 -3.29 1.50 0.20 10315
0.00 -0.00 -0.07 -13.02 19.62 -2.95 1.75 0.18 10330
0.00 0.00 -0.04 -14.74 20.07 -2.60 2.09 0.16 10344
0.00 0.00 -1.41 -17.11 20.19 -2.51 2.42 0.19 10358
0.01 -0.00 -4.30 -19.19 16.20 -2.78 2.46 0.30 10373
0.00 0.00 -7.21 -23.31 11.45 -2.84 2.27 0.77 10387
0.00 0.00 -10.35 -28.81 4.75 -2.36 1.65 1.43 10401
0.01 -0.00 -10.29 -33.02 1.24 -1.59 0.44 1.74 10417
0.00 -0.00 -7.00 -30.90 0.03 -0.51 -0.39 1.58 10430
0.00 0.00 -3.88 -30.96 6.58 2.42 -1.70 1.47 10444
0.02 0.02 -4.47 -15.34 1.43 3.38 -3.11 1.17 10460
0.01 0.12 -1.23 0.21 19.76 3.72 -1.02 1.52 10474
-0.01 0.49 -10.63 -4.01 22.30 3.84 -0.89 0.98 10488
-0.01 0.66 -6.03 -4.86 20.90 3.62 -1.10 -0.30 10503
-0.03 0.74 1.37 -1.58 16.50 2.60 -0.81 -0.73 10517
-0.03 0.73 -0.97 -3.48 22.21 1.91 -1.81 -0.22 10531
-0.02 0.72 -0.17 -1.36 11.03 0.18 -0.43 0.05 10546
-0.04 0.77 0.02 -0.99 9.93 -0.01 -0.08 -0.04 10559
-0.01 0.77 0.43 -0.94 9.93 -0.01 -0.03 -0.05 10573
0.01 0.72 0.28 -0.80 9.81 -0.01 -0.01 -0.05 10588
0.01 0.69 0.37 -0.71 9.82 -0.00 0.00 -0.06 10602
0.02 0.61 0.29 -0.76 9.83 0.01 0.02 -0.06 10616
0.07 0.59 0.35 -0.69 9.81 0.02 0.04 -0.06 10631
0.08 0.51 0.34 -0.74 9.83 0.02 0.04 -0.06 10645
0.08 0.43 0.31 -0.73 9.78 0.03 0.04 -0.06 10659
0.08 0.35 0.34 -0.72 9.81 0.03 0.04 -0.06 10674
0.11 0.29 0.37 -0.76 9.81 0.04 0.05 -0.07 10688
0.14 0.13 0.39 -0.77 9.79 0.04 0.04 -0.07 10702
0.17 0.09 0.38 -0.78 9.81 0.05 0.04 -0.08 10717
0.24 0.02 0.29 -0.77 9.81 0.05 0.04 -0.08 10731
0.29 0.00 0.32 -0.75 9.82 0.04 0.04 -0.07 10745
0.33 0.00 0.36 -0.76 9.80 0.05 0.05 -0.06 10760
0.35 -0.01 0.36 -0.87 9.72 0.04 0.05 -0.06 10774
0.42 -0.02 0.38 -0.80 9.80 0.04 0.06 -0.07 10788
0.39 -0.02 0.36 -0.83 9.79 0.04 0.06 -0.08 10803
0.42 -0.02 0.38 -0.83 9.77 0.04 0.06 -0.08 10817
0.51 -0.01 0.41 -0.82 9.77 0.04 0.06 -0.08 10831
0.53 -0.03 0.43 -0.85 9.80 0.05 0.05 -0.08 10846
0.54 -0.02 0.39 -0.83 9.81 0.10 0.06 -0.10 10860
0.56 -0.03 0.43 -0.88 9.83 0.11 0.08 -0.11 10874
0.65 -0.03 0.30 -0.95 9.93 0.19 0.11 -0.11 10889
0.79 -0.04 0.35 -0.90 10.12 0.43 0.17 -0.11 10904
0.86 -0.03 0.49 -1.14 10.17 0.66 0.20 -0.12 10918
0.99 -0.04 0.55 -1.10 10.93 0.88 0.20 -0.14 10932
1.09 -0.04 0.71 -1.40 11.45 1.05 0.07 -0.16 10946
1.19 -0.05 0.48 -1.43 11.66 1.29 -0.06 -0.16 10961
1.26 -0.06 0.58 -1.74 12.02 1.57 -0.14 -0.14 10976
1.34 -0.04 0.29 -1.87 12.29 1.99 -0.14 -0.14 10990
1.38 -0.05 0.41 -2.22 11.95 2.37 -0.16 -0.15 11004
1.35 -0.05 0.85 -2.57 12.26 2.75 -0.16 -0.16 11019
1.32 -0.04 0.39 -2.80 13.08 3.16 -0.17 -0.19 11033
1.25 -0.04 0.95 -3.28 13.64 3.71 -0.21 -0.19 11047
0.97 -0.01 1.32 -3.90 16.61 4.28 -0.27 -0.32 11062
0.55 0.00 1.48 -5.62 19.45 4.28 -0.33 -0.47 11076
0.37 -0.00 2.33 -10.49 25.01 4.28 -0.37 -0.57 11090
0.25 0.00 4.34 -12.06 28.42 4.28 0.29 -0.55 11105
0.13 0.01 3.82 -6.85 22.96 4.28 1.48 -0.63 11119
0.11 -0.00 -0.48 -4.58 29.89 4.28 2.03 -0.75 11133
0.05 -0.00 0.97 -0.94 30.24 4.28 0.94 -1.11 11147
0.00 -0.00 4.90 16.65 23.84 4.28 0.50 -1.31 11161
0.00 0.00 2.50 25.49 2.67 2.97 1.34 -2.10 11175
0.00 0.00 5.24 15.56 28.24 0.21 1.32 -2.94 11190
0.00 -0.00 0.61 14.70 15.78 -2.56 1.45 -2.63 11204
0.00 0.00 0.49 11.79 8.82 -3.71 0.82 -2.20 11218
0.00 0.00 1.51 7.06 8.08 -3.83 0.68 -1.81 11233
-0.00 0.00 1.44 5.48 7.38 -3.68 1.00 -1.41 11247
0.00 0.00 0.75 5.22 7.80 -3.76 1.29 -1.07 11261
-0.00 0.00 -0.16 4.89 9.36 -3.96 1.52 -0.70 11276
0.01 0.00 -1.30 3.85 11.06 -4.15 1.64 -0.31 11290
-0.00 0.00 -2.22 2.72 12.10 -4.27 1.70 -0.01 11304
-0.00 0.00 -2.69 1.54 13.28 -4.28 1.59 0.16 11319
0.00 -0.00 -2.67 0.02 14.64 -4.28 1.68 0.18 11333
0.00 0.00 -3.54 -1.40 16.07 -4.28 2.02 0.03 11347
0.00 0.00 -5.15 -3.10 17.38 -4.28 2.21 -0.31 11362
0.01 0.00 -6.47 -4.32 18.14 -4.28 2.12 -0.62 11377
0.00 0.00 -6.43 -4.80 18.38 -4.28 1.85 -0.75 11390
0.00 0.00 -5.67 -5.71 18.79 -4.15 1.62 -0.66 11405
0.00 -0.00 -4.58 -6.04 19.46 -3.84 1.43 -0.42 11419
0.00 -0.00 -3.67 -6.90 21.14 -3.63 1.18 -0.22 11433
0.00 0.00 -2.55 -9.09 22.76 -3.62 0.82 -0.04 11448
0.00 0.00 -1.58 -12.32 22.40 -3.63 0.39 0.20 11462
0.00 0.00 -0.99 -15.28 20.12 -3.41 0.41 0.59 11476
0.00 0.00 -2.27 -20.21 17.84 -3.13 1.36 1.10 11491
0.00 0.00 -4.61 -25.89 13.61 -2.98 1.78 1.44 11505
0.00 0.00 -6.56 -32.93 7.30 -2.69 1.85 1.64 11520
-0.00 0.00 -7.83 -38.18 0.34 -2.03 1.52 1.50 11534
0.00 -0.00 -7.04 -36.08 -1.88 -0.66 0.89 0.78 11548
0.00 0.00 -5.84 -31.49 3.42 2.75 -0.22 0.14 11563
-0.00 0.03 -2.06 -10.60 0.48 3.93 -2.37 -0.27 11577
0.00 0.10 6.76 3.33 20.63 3.89 -1.77 0.11 11591
-0.02 0.46 -1.19 -3.27 24.70 3.85 -0.28 0.92 11607
-0.01 0.68 -4.59 -5.18 20.79 3.65 -1.08 0.30 11621
-0.03 0.69 -3.40 -1.95 18.71 2.72 -0.82 -0.18 11635
-0.04 0.65 1.60 -1.88 15.90 2.35 -0.60 -0.48 11650
-0.02 0.67 1.04 -2.08 12.46 0.50 -1.09 -0.04 11664
-0.05 0.74 -0.17 -0.97 9.86 -0.02 -0.08 -0.02 11677
-0.03 0.75 0.43 -0.98 9.88 -0.03 -0.06 -0.08 11692
0.01 0.77 0.14 -0.79 9.83 -0.03 -0.04 -0.07 11706
-0.01 0.76 0.27 -0.75 9.82 -0.02 -0.00 -0.07 11720
-0.01 0.73 0.23 -0.74 9.82 0.00 0.01 -0.07 11735
0.03 0.70 0.22 -0.77 9.81 0.01 0.03 -0.07 11749
0.02 0.57 0.24 -0.74 9.81 0.01 0.04 -0.06 11763
0.04 0.49 0.31 -0.74 9.83 0.02 0.04 -0.06 11778
0.08 0.38 0.29 -0.77 9.81 0.02 0.04 -0.06 11792
0.12 0.37 0.23 -0.70 9.82 0.03 0.05 -0.06 11806
0.11 0.33 0.29 -0.74 9.78 0.04 0.05 -0.07 11821
0.14 0.15 0.36 -0.81 9.77 0.04 0.04 -0.08 11835
0.17 0.12 0.29 -0.79 9.79 0.04 0.04 -0.08 11849
0.18 0.14 0.25 -0.78 9.78 0.03 0.04 -0.08 11864
0.21 0.06 0.27 -0.78 9.82 0.03 0.04 -0.07 11878
0.24 0.00 0.29 -0.81 9.80 0.03 0.04 -0.07 11892
0.25 0.02 0.28 -0.80 9.78 0.02 0.04 -0.07 11907
0.29 0.01 0.29 -0.81 9.80 0.02 0.05 -0.07 11921
0.31 -0.01 0.29 -0.81 9.82 0.02 0.05 -0.07 11935
0.34 0.00 0.28 -0.80 9.79 0.02 0.05 -0.07 11950
0.38 -0.02 0.27 -0.89 9.78 0.02 0.05 -0.08 11964
0.39 -0.02 0.28 -0.83 9.82 0.03 0.06 -0.08 11978
0.46 -0.01 0.30 -0.84 9.79 0.04 0.07 -0.09 11993
0.49 -0.02 0.20 -0.86 9.85 0.05 0.07 -0.09 12007
0.53 -0.03 0.37 -0.80 9.83 0.08 0.08 -0.11 12021
0.66 -0.03 0.33 -1.00 9.83 0.11 0.08 -0.14 12036
0.70 -0.03 0.42 -1.01 10.04 0.24 0.14 -0.14 12051
0.84 -0.04 0.24 -0.94 10.81 0.80 0.29 -0.14 12064
1.02 -0.04 0.52 -1.30 11.53 1.39 0.36 -0.19 12080
1.12 -0.04 0.57 -1.44 12.04 1.56 0.11 -0.20 12094
1.24 -0.04 0.59 -1.64 11.81 1.79 -0.10 -0.19 12108
1.37 -0.05 0.29 -1.68 12.57 2.14 -0.13 -0.18 12123
1.41 -0.05 0.36 -2.14 12.67 2.57 -0.16 -0.19 12137
1.40 -0.05 0.50 -2.37 12.54 3.01 -0.20 -0.21 12151
1.35 -0.05 0.20 -2.72 13.51 3.48 -0.18 -0.23 12166
1.27 -0.05 0.50 -3.09 14.67 4.14 -0.05 -0.21 12180
0.87 -0.03 1.51 -3.78 16.94 4.28 0.02 -0.35 12194
0.49 -0.01 0.77 -6.04 20.35 4.28 0.02 -0.45 12209
0.28 -0.01 0.88 -10.95 26.04 4.28 0.06 -0.40 12223
0.16 -0.00 3.88 -12.88 28.51 4.28 0.75 -0.25 12237
0.13 -0.00 1.06 -6.79 24.72 4.28 1.40 -0.26 12252
0.06 -0.01 -1.89 -5.32 31.51 4.28 0.91 -0.52 12265
0.05 0.00 2.05 3.75 29.85 4.28 -0.52 -0.75 12279
0.01 -0.00 7.63 18.21 16.77 4.28 -0.56 -0.74 12295
0.00 0.00 7.87 21.26 -2.66 2.84 0.28 -1.98 12308
0.00 0.00 5.32 11.83 24.09 -0.33 1.34 -2.64 12322
0.00 0.00 0.26 12.67 12.18 -2.51 1.53 -2.62 12337
0.00 0.00 0.23 9.78 8.31 -3.56 0.61 -2.34 12351
0.00 0.00 0.88 5.49 7.24 -3.83 -0.05 -1.98 12365
0.00 0.00 2.33 4.10 6.59 -3.89 -0.39 -1.60 12380
0.00 0.00 3.66 3.61 6.67 -3.98 -0.36 -1.28 12394
0.00 -0.00 4.38 3.15 8.05 -4.15 -0.03 -0.96 12408
0.00 0.00 4.51 2.30 9.31 -4.26 0.50 -0.62 12423
0.00 0.00 3.69 1.59 10.39 -4.28 1.00 -0.24 12437
-0.00 0.00 2.89 -0.09 11.70 -4.28 1.16 0.13 12451
0.00 0.00 2.52 -2.06 13.67 -4.28 1.09 0.38 12466
0.00 0.00 2.59 -3.74 14.73 -4.28 1.11 0.52 12480
0.00 0.00 2.89 -5.92 15.65 -4.28 1.40 0.42 12494
0.00 0.00 2.64 -7.85 16.22 -4.28 1.89 0.16 12509
0.00 0.00 1.90 -9.84 17.94 -4.17 2.30 0.03 12523
0.00 0.00 0.44 -9.19 18.88 -3.75 2.37 0.13 12537
0.00 0.00 -0.09 -8.46 20.70 -3.59 2.23 0.47 12552
0.00 0.00 -0.61 -8.97 22.21 -3.72 1.89 0.82 12566
0.00 0.00 -0.44 -10.47 21.82 -3.85 1.60 0.96 12580
0.00 0.00 -0.57 -12.26 20.06 -3.74 1.44 0.96 12595
0.00 0.00 -0.19 -14.81 19.87 -3.37 1.35 0.87 12609
0.00 0.00 0.03 -17.59 19.39 -3.15 1.33 0.72 12623
0.00 0.00 -0.09 -20.56 14.96 -3.16 1.44 0.52 12638
0.00 0.00 -4.30 -20.76 6.48 -2.81 2.59 0.64 12652
0.00 0.00 -11.08 -29.90 5.35 -1.93 3.70 1.37 12666
0.00 0.00 -14.62 -33.13 1.20 -0.97 1.61 1.37 12681
0.00 -0.00 -9.71 -27.57 1.73 0.10 -0.29 0.89 12695
0.00 0.00 -4.74 -20.57 5.93 1.17 -1.03 0.18 12709
0.00 0.00 -9.45 -11.87 15.40 3.50 -3.12 0.61 12724
0.00 0.04 1.49 2.48 7.46 3.21 -3.05 0.71 12738
-0.00 0.18 3.69 2.10 9.41 3.25 0.08 2.00 12752
-0.04 0.54 -12.65 -6.24 21.02 4.02 -0.57 1.32 12768
-0.03 0.67 -4.67 -4.11 21.73 3.50 -1.01 -0.04 12782
-0.04 0.70 0.39 -1.58 14.07 2.35 -0.59 -0.55 12796
-0.04 0.71 0.84 -0.71 15.44 1.18 -1.94 -0.28 12811
-0.03 0.73 -0.03 -1.34 10.34 0.08 -0.30 0.04 12825
-0.01 0.76 0.06 -1.02 9.85 -0.03 -0.04 -0.04 12838
-0.03 0.83 0.41 -0.97 9.91 -0.03 -0.03 -0.04 12853
0.01 0.83 0.30 -0.81 9.82 -0.02 -0.00 -0.06 12867
-0.00 0.79 0.51 -1.83 8.36 -0.01 0.01 -0.06 12881
0.04 0.66 0.33 -0.74 9.81 0.00 0.02 -0.06 12896
0.04 0.63 0.32 -0.79 9.80 0.01 0.04 -0.05 12910
0.04 0.56 0.31 -0.77 9.78 0.02 0.04 -0.05 12924
0.07 0.45 0.31 -0.76 9.79 0.03 0.05 -0.05 12939
0.11 0.41 0.33 -0.75 9.79 0.03 0.05 -0.06 12953
0.12 0.34 0.37 -0.77 9.79 0.03 0.05 -0.06 12967
0.11 0.25 0.39 -0.80 9.81 0.04 0.05 -0.07 12982
0.15 0.18 0.34 -0.82 9.76 0.04 0.05 -0.08 12996
0.17 0.10 0.37 -0.83 9.81 0.03 0.05 -0.08 13010
0.20 0.04 0.30 -0.81 9.81 0.04 0.05 -0.07 13025
0.18 0.02 0.34 -0.82 9.80 0.04 0.05 -0.07 13039
0.21 0.04 0.36 -0.85 9.78 0.04 0.05 -0.06 13053
0.28 0.03 0.39 -0.84 9.72 0.04 0.05 -0.07 13068
0.30 -0.00 0.36 -0.88 9.81 0.03 0.04 -0.08 13082
0.28 -0.02 0.35 -0.87 9.79 0.02 0.04 -0.07 13096
0.36 -0.00 0.33 -0.86 9.79 0.03 0.04 -0.08 13111
0.39 -0.02 0.43 -0.87 9.81 0.03 0.05 -0.08 13125
0.44 -0.03 0.39 -0.90 9.81 0.04 0.05 -0.08 13139
0.50 -0.02 0.32 -0.85 9.82 0.05 0.05 -0.09 13154
0.59 -0.03 0.39 -0.93 9.80 0.07 0.06 -0.10 13168
0.64 -0.02 0.41 -0.94 9.81 0.10 0.07 -0.11 13182
0.73 -0.03 0.31 -0.97 9.85 0.15 0.10 -0.12 13197
0.85 -0.03 0.21 -0.94 10.34 0.40 0.19 -0.11 13212
0.90 -0.03 0.49 -1.05 10.37 0.79 0.26 -0.11 13227
1.04 -0.05 0.65 -1.38 11.13 1.10 0.26 -0.13 13241
1.14 -0.04 0.49 -1.47 11.43 1.28 0.09 -0.15 13255
1.20 -0.04 0.64 -1.74 11.78 1.51 -0.06 -0.15 13270
1.27 -0.05 0.43 -1.79 12.61 1.85 -0.10 -0.16 13284
1.33 -0.05 0.47 -2.09 11.96 2.29 -0.14 -0.18 13298
1.35 -0.05 0.61 -2.27 11.92 2.63 -0.18 -0.20 13313
1.36 -0.05 0.49 -2.62 13.06 3.03 -0.17 -0.21 13327
1.29 -0.05 0.68 -3.14 14.11 3.64 -0.13 -0.22 13341
1.01 -0.03 1.80 -3.56 15.01 4.25 -0.22 -0.36 13356
0.69 -0.02 1.08 -4.44 17.72 4.28 -0.27 -0.53 13370
0.41 -0.02 1.55 -7.08 21.29 4.28 -0.30 -0.60 13384
0.31 -0.01 1.39 -12.41 27.49 4.28 -0.02 -0.49 13399
0.17 -0.00 3.52 -10.86 24.37 4.28 1.05 -0.38 13413
0.09 -0.01 0.16 -5.54 26.81 4.28 1.96 -0.46 13426
0.06 -0.00 -1.78 -4.23 28.13 4.28 0.99 -0.83 13442
0.05 -0.01 1.44 5.13 27.75 4.28 -0.32 -1.09 13455
0.01 -0.00 7.25 16.23 15.69 4.27 -0.56 -1.19 13470
-0.00 0.01 5.42 23.21 1.58 2.60 -0.40 -2.27 13484
0.00 0.00 6.15 13.21 24.80 -1.20 1.15 -2.51 13498
0.00 0.00 1.42 13.91 12.18 -3.20 1.71 -2.33 13512
-0.00 0.00 0.77 9.30 9.46 -4.14 1.39 -1.92 13527
0.00 0.00 1.02 5.51 8.05 -4.24 1.08 -1.44 13541
0.00 0.00 0.97 3.82 8.04 -4.24 0.66 -1.03 13555
0.00 -0.00 1.42 3.05 8.58 -4.26 0.38 -0.70 13570
0.00 0.00 2.00 2.39 9.43 -4.28 0.38 -0.44 13584
0.00 0.00 2.33 0.62 10.68 -4.28 0.66 -0.23 13598
0.00 -0.00 1.92 -0.25 12.06 -4.28 1.09 -0.03 13613
0.00 -0.00 1.10 -1.00 13.64 -4.28 1.38 0.18 13627
0.00 0.00 0.59 -2.90 14.85 -4.28 1.61 0.34 13641
0.01 -0.00 -0.08 -5.25 15.83 -4.28 1.76 0.37 13656
0.00 -0.00 -0.47 -6.64 16.76 -4.28 1.78 0.35 13670
0.00 0.00 -0.32 -7.19 16.83 -4.27 1.71 0.36 13684
0.01 -0.00 -0.81 -8.18 17.28 -4.01 1.53 0.40 13699
0.00 0.00 -0.56 -8.19 18.97 -3.55 1.38 0.59 13713
0.00 0.00 -0.16 -8.34 20.95 -3.34 1.30 0.80 13727
0.01 -0.00 0.50 -9.55 22.97 -3.53 1.33 0.96 13742
0.00 0.00 0.24 -11.25 21.75 -3.82 1.33 1.09 13756
0.00 0.00 -0.24 -13.37 19.48 -3.83 1.23 1.24 13770
0.00 0.00 -0.88 -17.24 18.35 -3.46 1.07 1.53 13785
0.00 0.00 -2.02 -20.24 13.60 -2.96 0.95 1.70 13799
0.00 0.00 -3.50 -25.73 10.29 -2.53 0.98 1.77 13813
0.00 0.00 -4.91 -30.38 4.77 -2.04 0.80 1.61 13828
0.00 0.00 -5.23 -33.39 1.13 -1.23 0.80 1.27 13842
0.00 0.00 -5.03 -28.61 1.38 -0.03 0.68 0.65 13856
0.00 0.00 -2.45 -31.75 -6.59 0.99 0.00 -0.01 13871
-0.00 0.01 -4.34 -12.40 -0.28 3.30 -0.92 0.25 13885
-0.01 0.05 2.06 3.64 5.28 2.86 -1.22 0.42 13899
-0.02 0.20 4.17 1.16 13.24 3.24 0.52 1.31 13915
-0.03 0.52 -8.54 -5.88 20.82 3.96 -0.64 0.49 13929
-0.03 0.69 -0.03 -3.09 20.43 3.49 -0.88 -0.24 13943
-0.03 0.71 -1.08 -1.67 13.84 2.68 -0.42 -0.35 13958
-0.05 0.71 0.31 -1.17 16.28 1.46 -2.22 -0.36 13972
-0.04 0.75 -0.02 -1.99 10.30 0.02 -0.18 0.02 13985
-0.05 0.79 0.30 -0.82 9.81 -0.02 -0.01 -0.05 14000
-0.05 0.83 0.59 -1.15 9.84 -0.03 -0.02 -0.04 14014
0.01 0.77 0.41 -0.83 9.20 -0.02 0.00 -0.06 14028
-0.00 0.74 0.46 -0.86 9.82 -0.01 0.01 -0.06 14043
0.00 0.71 0.45 -0.80 9.81 0.01 0.03 -0.06 14057
0.02 0.64 0.44 -0.83 9.77 0.02 0.05 -0.07 14071
0.01 0.49 0.47 -0.85 9.80 0.03 0.04 -0.06 14086
0.07 0.41 0.45 -0.84 9.85 0.04 0.05 -0.07 14100
0.08 0.32 0.44 -0.85 9.81 0.05 0.05 -0.06 14114
0.10 0.21 0.51 -0.89 9.80 0.05 0.06 -0.07 14129
0.13 0.10 0.51 -0.87 9.75 0.05 0.06 -0.08 14143
0.14 0.09 0.48 -0.86 9.81 0.05 0.06 -0.08 14157
0.19 0.04 0.45 -0.91 9.78 0.05 0.06 -0.08 14172
0.25 0.01 0.45 -0.88 9.77 0.05 0.07 -0.08 14186
0.23 0.01 0.59 -0.86 9.78 0.04 0.07 -0.07 14200
0.22 -0.00 0.51 -0.94 9.76 0.05 0.08 -0.07 14215
0.22 -0.01 0.51 -0.96 9.75 0.04 0.07 -0.07 14229
0.23 -0.01 0.53 -0.96 9.74 0.04 0.07 -0.08 14243
0.24 -0.02 0.54 -0.92 9.82 0.03 0.06 -0.08 14258
0.28 -0.01 0.58 -0.96 9.79 0.03 0.05 -0.09 14272
0.33 -0.01 0.51 -0.98 9.79 0.04 0.04 -0.08 14286
0.37 -0.03 0.50 -1.00 9.72 0.03 0.03 -0.08 14301
0.44 -0.01 0.47 -1.01 9.67 0.03 0.03 -0.08 14315
0.48 -0.02 0.51 -1.00 9.77 0.03 0.03 -0.08 14329
0.54 -0.03 0.57 -0.99 9.21 0.05 0.05 -0.09 14344
0.61 -0.02 0.47 -1.01 9.89 0.09 0.08 -0.11 14358
0.67 -0.03 0.59 -1.05 9.94 0.22 0.17 -0.11 14372
0.71 -0.03 0.65 -1.14 10.25 0.68 0.28 -0.11 14388
0.82 -0.03 0.53 -1.35 10.53 1.05 0.30 -0.11 14402
0.97 -0.03 0.86 -1.76 11.25 1.25 0.23 -0.14 14416
0.96 -0.04 0.85 -1.57 11.59 1.40 0.05 -0.15 14431
1.02 -0.04 0.57 -1.60 12.06 1.68 -0.01 -0.16 14444
1.08 -0.04 0.71 -2.05 12.61 2.11 -0.07 -0.15 14459
1.09 -0.05 0.82 -2.33 12.50 2.53 -0.08 -0.18 14474
1.01 -0.03 0.37 -2.62 13.69 3.04 -0.02 -0.18 14488
0.90 -0.03 1.24 -3.05 14.55 3.76 0.08 -0.18 14502
0.64 -0.01 1.54 -3.83 15.89 4.28 0.06 -0.30 14517
0.35 -0.02 1.36 -5.30 19.29 4.28 -0.04 -0.39 14531
0.25 -0.02 1.31 -8.32 25.40 4.28 -0.18 -0.44 14545
0.16 -0.00 2.37 -10.99 27.09 4.28 -0.06 -0.39 14560
0.09 -0.00 0.61 -7.02 24.01 4.28 0.22 -0.41 14573
0.04 -0.00 1.37 -7.03 31.25 4.28 -0.25 -0.52 14587
0.02 -0.00 5.96 0.77 29.46 4.28 -1.07 -0.73 14602
0.02 -0.00 7.55 16.81 15.20 4.28 -0.60 -0.69 14616
0.00 0.00 7.35 22.39 -6.85 3.07 -0.01 -1.37 14630
0.00 0.00 4.90 11.16 24.08 0.39 -0.02 -1.51 14645
0.00 -0.00 1.09 12.96 12.47 -1.66 0.13 -1.23 14659
0.00 0.00 1.05 11.23 7.15 -2.73 -0.58 -1.04 14673
-0.00 0.00 2.27 6.92 6.67 -3.04 -1.05 -0.97 14688
0.00 0.00 3.60 5.92 6.50 -3.17 -1.04 -0.85 14702
0.00 0.00 4.47 5.76 6.72 -3.51 -0.75 -0.65 14716
0.00 0.00 4.83 4.88 8.25 -3.99 -0.51 -0.36 14731
0.00 -0.00 5.08 2.49 9.33 -4.26 -0.29 0.01 14745
0.00 0.00 5.20 1.27 9.83 -4.28 -0.26 0.35 14759
0.00 -0.00 5.54 -0.49 11.18 -4.28 -0.50 0.58 14774
0.00 0.00 6.70 -2.25 13.44 -4.28 -0.52 0.76 14788
0.00 0.00 7.51 -4.38 14.74 -4.28 -0.24 0.85 14802
0.00 -0.00 8.17 -6.80 16.20 -4.28 0.19 0.84 14817
0.00 0.00 8.33 -9.10 17.67 -4.28 0.55 0.88 14831
0.00 0.00 7.80 -9.69 17.28 -4.28 0.57 1.13 14845
0.01 -0.00 8.65 -10.13 17.04 -4.16 0.59 1.54 14860
0.00 0.00 9.19 -11.60 16.94 -3.74 0.76 1.94 14874
0.00 0.00 8.85 -12.19 17.43 -3.30 1.04 2.16 14888
0.01 -0.00 7.15 -12.58 17.51 -2.95 1.14 2.26 14904
0.00 0.00 5.99 -12.77 17.80 -2.63 1.26 2.25 14917
0.00 0.00 1.88 -26.89 48.76 -2.27 1.55 2.30 14931
0.00 0.00 0.60 -12.90 13.85 -1.73 1.37 2.35 14946
0.00 0.00 1.74 -15.26 15.98 -1.84 0.84 2.31 14960
0.00 0.00 1.56 -18.66 17.79 -2.05 0.74 2.20 14974
0.00 0.00 2.15 -18.63 11.36 -2.45 1.07 2.05 14989
0.00 0.00 -0.79 -20.84 5.23 -2.43 1.90 2.09 15003
0.00 0.00 -5.72 -25.91 5.56 -1.62 3.10 2.62 15017
0.00 0.00 -9.85 -25.29 3.88 -0.58 1.33 2.36 15032
0.00 0.00 -6.64 -24.84 4.51 1.16 0.05 1.57 15046
-0.00 0.01 -3.29 -25.01 3.37 2.16 -0.33 0.67 15060
-0.00 0.04 -3.26 -1.65 3.53 2.77 -0.62 0.29 15075
-0.02 0.21 0.34 0.95 23.32 3.86 -0.71 0.08 15089
-0.02 0.60 -1.83 -2.77 21.94 3.50 -0.68 -0.16 15105
-0.03 0.69 -1.62 -3.25 17.48 2.77 -0.37 -0.44 15119
-0.04 0.71 1.01 -1.02 13.51 2.17 -0.12 -0.66 15133
-0.05 0.66 0.21 -2.77 16.66 1.70 -1.54 -0.52 15148
-0.04 0.62 0.53 -2.21 10.95 0.45 -0.97 -0.03 15162
-0.05 0.70 0.11 -1.14 10.10 0.05 -0.18 -0.04 15175
-0.05 0.71 0.49 -0.62 9.77 -0.03 -0.05 -0.00 15190
-0.02 0.70 0.31 -0.98 9.85 -0.03 -0.01 -0.04 15204
-0.02 0.69 0.41 -0.94 9.59 -0.01 0.01 -0.06 15218
0.01 0.65 0.39 -0.93 9.80 -0.00 0.02 -0.06 15233
0.01 0.62 0.35 -0.92 9.81 0.01 0.03 -0.06 15247
0.03 0.59 0.41 -0.88 9.81 0.01 0.05 -0.06 15261
0.03 0.50 0.44 -0.90 9.77 0.01 0.05 -0.07 15276
0.04 0.43 0.41 -0.93 9.80 0.02 0.06 -0.06 15290
0.05 0.32 0.47 -0.91 9.79 0.03 0.06 -0.07 15304
0.11 0.26 0.43 -0.93 9.76 0.03 0.07 -0.08 15319
0.12 0.18 0.46 -0.92 9.77 0.02 0.07 -0.08 15333
0.13 0.11 0.45 -0.96 9.76 0.03 0.06 -0.08 15347
0.15 0.05 0.41 -0.97 9.76 0.03 0.07 -0.08 15362
0.16 0.05 0.47 -0.98 9.74 0.03 0.07 -0.08 15376
0.12 0.02 0.49 -1.00 9.72 0.03 0.07 -0.08 15390
0.17 0.01 0.49 -0.99 9.77 0.02 0.06 -0.08 15405
0.16 0.01 0.47 -0.98 9.77 0.03 0.06 -0.08 15419
0.19 0.01 0.49 -1.02 9.80 0.02 0.05 -0.07 15433
0.19 -0.01 0.51 -1.00 9.78 0.03 0.06 -0.08 15448
0.18 -0.01 0.50 -1.01 9.76 0.02 0.06 -0.07 15462
0.22 0.00 0.52 -1.03 9.76 0.02 0.06 -0.07 15476
0.27 -0.02 0.50 -1.03 9.81 0.02 0.05 -0.06 15491
0.27 -0.01 0.55 -1.01 9.78 0.03 0.04 -0.06 15505
0.31 -0.01 0.49 -1.02 9.79 0.03 0.03 -0.06 15519
0.35 -0.02 0.48 -1.02 9.82 0.04 0.04 -0.07 15534
0.40 -0.02 0.43 -1.04 9.81 0.06 0.06 -0.06 15548
0.41 -0.01 0.47 -1.09 10.42 0.09 0.11 -0.06 15562
0.47 -0.03 0.64 -1.04 9.84 0.17 0.18 -0.06 15577
0.49 -0.02 0.42 -1.14 9.99 0.45 0.27 -0.07 15591
0.60 -0.02 0.52 -1.12 10.38 0.84 0.33 -0.08 15605
0.69 -0.03 0.63 -1.43 11.24 1.14 0.38 -0.10 15621
0.71 -0.03 0.70 -1.56 11.68 1.26 0.15 -0.12 15635
0.77 -0.03 0.68 -1.64 11.34 1.44 0.01 -0.12 15649
0.83 -0.03 0.53 -1.95 11.70 1.68 -0.05 -0.11 15664
0.87 -0.03 0.68 -2.17 11.33 1.99 -0.08 -0.11 15678
0.84 -0.04 0.65 -2.50 12.59 2.30 0.07 -0.12 15692
0.81 -0.04 0.70 -2.77 13.54 2.80 0.18 -0.14 15707
0.63 -0.03 1.43 -3.20 14.42 3.50 0.28 -0.17 15721
0.40 -0.02 1.68 -3.71 16.02 4.23 0.28 -0.30 15734
0.19 -0.02 1.41 -5.34 18.77 4.28 0.15 -0.38 15749
0.15 -0.01 0.93 -7.85 23.49 4.28 0.06 -0.32 15764
0.11 -0.01 -0.54 -8.67 22.54 4.28 0.15 -0.24 15777
0.08 -0.01 -1.46 -7.55 21.19 4.28 0.14 -0.17 15792
0.05 -0.01 -0.14 -6.40 25.85 4.28 -0.70 -0.21 15806
0.02 -0.00 2.86 -0.50 23.02 4.28 -1.59 -0.28 15820
0.00 -0.00 4.57 10.65 12.59 4.28 -1.53 -0.08 15835
0.00 0.00 2.17 22.35 -0.09 3.14 -0.97 -0.35 15849
0.01 -0.00 3.53 7.96 17.82 1.35 -1.01 -0.87 15863
0.00 0.00 1.45 9.35 13.90 -0.68 -0.37 -0.88 15878
0.00 0.00 0.78 10.57 7.74 -1.96 -0.57 -0.87 15892
0.00 0.00 0.68 6.73 7.39 -2.74 -0.86 -0.80 15906
0.00 0.00 1.00 4.95 6.92 -3.10 -1.35 -0.69 15921
0.00 0.00 2.11 4.25 6.60 -3.29 -1.74 -0.52 15935
0.00 0.00 3.37 3.81 7.79 -3.52 -1.88 -0.29 15949
0.00 0.00 4.70 3.37 9.74 -3.89 -1.71 -0.01 15964
0.00 0.00 5.62 1.80 10.55 -4.26 -1.36 0.22 15978
0.00 0.00 5.94 -0.45 11.60 -4.28 -1.24 0.30 15992
0.00 0.00 6.08 -2.96 12.55 -4.28 -1.32 0.36 16007
0.00 0.00 7.51 -5.21 13.18 -4.28 -1.40 0.45 16021
0.00 0.00 9.41 -6.69 14.12 -4.28 -1.27 0.53 16035
0.00 0.00 11.01 -7.37 14.94 -4.28 -0.87 0.70 16050
0.00 0.00 12.12 -8.04 16.02 -4.27 -0.46 1.07 16064
0.00 0.00 12.77 -9.01 17.13 -4.21 0.05 1.66 16078
0.00 0.00 12.63 -9.66 16.66 -4.02 0.65 2.38 16093
0.00 0.00 11.40 -12.32 16.80 -3.62 1.19 3.01 16107
0.00 0.00 9.84 -14.15 16.60 -3.10 1.26 3.37 16121
0.00 0.00 9.06 -14.43 14.72 -2.55 1.12 3.55 16136
0.00 -0.00 8.08 -14.35 12.65 -1.92 0.78 3.47 16150
0.00 0.00 7.25 -13.43 11.85 -1.18 0.58 3.14 16164
0.00 0.00 6.88 -19.08 9.87 -0.54 0.83 2.79 16179
0.00 0.00 4.20 -12.55 8.84 -0.07 1.30 2.55 16193
0.00 0.00 3.49 -14.03 13.30 0.00 1.72 2.43 16207
0.00 0.00 2.55 -13.68 13.29 -0.24 1.90 2.31 16222
0.00 0.00 1.63 -12.36 13.11 -0.97 1.54 2.37 16236
0.00 0.00 1.19 -12.08 10.71 -1.83 0.81 2.53 16250
0.00 0.00 1.41 -13.12 8.08 -2.13 0.19 2.68 16265
0.00 0.00 1.37 -14.27 2.08 -1.78 0.11 2.76 16279
0.00 0.00 0.24 -14.76 -2.51 -0.28 1.05 3.16 16293
0.00 0.00 -1.13 -17.93 3.77 0.47 0.60 3.04 16308
0.00 0.00 -0.08 -20.35 2.97 1.16 0.40 2.68 16322
-0.00 0.01 -2.07 -24.04 2.38 1.66 0.39 2.55 16336
-0.01 0.14 -11.58 -5.03 11.41 2.67 -0.22 2.01 16352
-0.03 0.39 -8.18 -0.54 16.15 2.85 -1.43 0.46 16366
-0.04 0.38 -5.67 -2.33 16.67 2.29 -0.64 -0.66 16379
-0.03 0.41 3.75 -1.51 9.38 0.12 -0.14 -0.26 16394
-0.03 0.43 0.60 -1.05 9.86 0.07 0.01 0.00 16408
-0.05 0.46 0.14 -0.71 9.87 0.06 0.04 -0.06 16422
0.01 0.43 0.48 -0.81 9.82 0.02 0.02 -0.04 16437
0.00 0.43 0.25 -0.83 9.77 0.00 0.02 -0.05 16451
-0.02 0.43 0.27 -0.79 9.80 -0.02 0.02 -0.04 16465
0.01 0.44 0.34 -0.69 9.82 -0.03 0.03 -0.05 16480
0.01 0.42 0.33 -0.78 9.82 -0.04 0.05 -0.06 16494
0.00 0.43 0.33 -0.75 9.81 -0.02 0.06 -0.05 16508
0.02 0.46 0.30 -0.76 9.84 -0.00 0.07 -0.05 16523
-0.01 0.39 0.35 -0.73 9.81 0.01 0.06 -0.05 16537
0.02 0.39 0.37 -0.76 9.80 0.01 0.05 -0.05 16551
0.03 0.37 0.38 -0.75 9.78 0.00 0.05 -0.06 16566
0.02 0.31 0.35 -0.74 9.79 0.00 0.05 -0.06 16580
0.02 0.30 0.34 -0.74 9.82 0.00 0.05 -0.06 16594
0.03 0.27 0.38 -0.69 9.75 0.01 0.05 -0.07 16609
0.03 0.29 0.33 -0.75 9.76 0.01 0.05 -0.06 16623
0.04 0.28 0.32 -0.78 9.78 0.01 0.06 -0.06 16637
0.06 0.17 0.31 -0.74 9.75 0.01 0.05 -0.06 16652
0.05 0.18 0.44 -0.73 9.70 0.01 0.05 -0.06 16666
0.04 0.18 0.36 -0.76 9.75 0.01 0.03 -0.07 16680
0.05 0.13 0.36 -0.77 9.77 0.01 0.02 -0.07 16695
0.07 0.10 0.33 -0.81 9.80 0.02 0.02 -0.06 16709
0.08 0.06 0.38 -0.77 9.80 0.02 0.01 -0.06 16723
0.19 0.03 0.36 -0.81 9.84 0.02 0.00 -0.07 16738
0.15 0.04 0.36 -0.81 9.79 0.02 -0.00 -0.07 16752
0.18 0.02 0.36 -0.81 9.79 0.01 -0.00 -0.07 16766
0.22 -0.01 0.32 -0.83 9.80 0.02 0.00 -0.08 16781
0.24 0.00 0.31 -0.80 9.79 0.01 0.01 -0.08 16795
0.30 0.01 0.31 -0.82 9.74 0.01 0.02 -0.08 16809
0.33 -0.01 0.32 -0.82 9.80 0.01 0.03 -0.07 16824
0.33 -0.01 0.29 -0.84 9.81 0.01 0.04 -0.08 16838
0.40 -0.00 0.29 -0.82 9.80 0.01 0.04 -0.07 16852
0.40 -0.01 0.34 -0.81 9.78 0.00 0.00 -0.07 16867
0.41 -0.03 0.32 -0.82 9.79 0.00 0.04 -0.07 16881
0.42 -0.02 0.33 -0.82 9.77 -0.00 0.03 -0.07 16896
0.40 -0.02 0.33 -0.84 9.79 -0.01 0.03 -0.06 16910
0.40 -0.02 0.32 -0.81 9.81 -0.01 0.04 -0.06 16924
0.43 -0.01 0.30 -0.89 9.81 -0.00 0.04 -0.07 16939
0.40 -0.03 0.31 -0.82 9.79 -0.00 0.04 -0.06 16953
0.40 -0.02 0.33 -0.83 9.81 0.01 0.04 -0.07 16967
0.42 -0.01 0.33 -0.81 9.81 0.01 0.05 -0.07 16982
0.42 -0.02 0.29 -0.84 9.80 0.02 0.05 -0.07 16996
0.44 -0.01 0.33 -0.83 9.80 0.02 0.06 -0.06 17010
0.47 -0.01 0.28 -0.86 9.82 0.04 0.07 -0.06 17025
0.47 -0.03 0.36 -0.92 9.25 0.06 0.10 -0.06 17039
0.50 -0.02 0.20 -0.78 9.92 0.12 0.16 -0.07 17053
0.55 -0.04 0.34 -0.81 9.96 0.26 0.29 -0.04 17068
0.59 -0.03 0.56 -0.95 10.68 0.75 0.40 -0.06 17082
0.63 -0.02 0.74 -1.14 11.37 1.17 0.41 -0.09 17097
0.71 -0.03 0.66 -1.31 11.77 1.29 0.19 -0.14 17112
0.75 -0.04 0.54 -1.63 11.91 1.50 -0.01 -0.18 17126
0.78 -0.02 1.15 -1.61 11.55 1.76 -0.23 -0.20 17140
0.83 -0.03 0.71 -1.85 11.08 1.95 -0.33 -0.22 17155
0.76 -0.03 0.95 -2.16 11.92 2.20 -0.38 -0.26 17169
0.71 -0.02 0.97 -2.65 12.77 2.48 -0.65 -0.31 17183
0.67 -0.03 1.01 -3.20 12.54 2.78 -1.02 -0.39 17198
0.43 -0.02 1.13 -3.87 12.78 2.97 -1.48 -0.48 17212
0.30 -0.02 0.36 -4.59 12.51 3.08 -1.80 -0.59 17226
0.16 -0.01 -1.24 -5.69 14.82 3.07 -2.07 -0.65 17241
0.14 -0.01 0.45 -6.90 16.80 2.78 -3.02 -0.79 17255
0.10 -0.01 3.39 -6.57 16.70 2.37 -3.57 -1.11 17268
0.11 -0.01 4.23 -6.93 17.41 2.03 -3.79 -1.29 17283
0.06 0.00 4.16 -4.87 15.70 1.93 -4.28 -1.41 17298
0.03 -0.00 3.98 -0.61 12.51 1.35 -4.28 -1.42 17311
0.00 0.00 15.61 6.89 6.71 0.19 -4.28 -0.30 17326
0.00 0.00 14.69 3.36 14.79 -1.36 -4.28 1.79 17340
0.00 0.00 10.79 0.45 10.92 -2.35 -2.95 2.82 17354
0.00 0.00 8.78 1.07 6.53 -2.32 -1.82 3.38 17369
0.00 0.00 6.13 0.74 6.48 -2.05 -1.35 3.56 17383
0.00 0.00 5.64 1.52 6.89 -1.91 -0.97 3.56 17397
0.00 0.00 4.85 2.24 7.62 -2.08 -0.66 3.44 17412
0.00 0.00 4.31 2.30 8.86 -2.41 -0.48 3.28 17426
0.00 -0.00 4.27 2.14 9.35 -2.74 -0.38 3.11 17440
0.00 0.00 4.24 1.49 9.85 -3.01 -0.28 2.94 17455
0.00 0.00 4.35 0.39 10.99 -3.28 -0.23 2.73 17469
0.00 0.00 4.65 -0.88 11.60 -3.48 -0.25 2.50 17483
0.00 0.00 5.43 -2.19 11.95 -3.58 -0.26 2.27 17498
0.00 0.00 7.05 -3.40 10.86 -3.62 -0.21 2.14 17512
0.00 0.00 7.67 -3.81 13.50 -3.64 -0.15 2.16 17526
0.00 0.00 8.88 -4.63 14.00 -3.65 -0.04 2.29 17541
0.00 0.00 10.14 -6.36 15.23 -3.57 0.16 2.49 17555
0.00 0.00 10.58 -7.08 13.51 -3.39 0.44 2.77 17569
0.00 0.00 9.94 -8.50 13.69 -3.15 0.77 3.03 17584
0.00 0.00 8.95 -9.45 14.04 -2.82 0.90 3.15 17598
0.00 -0.00 8.59 -10.10 14.35 -2.47 1.01 3.14 17612
0.00 0.00 8.07 -9.70 13.51 -2.13 1.17 3.00 17627
0.00 -0.00 7.46 -9.01 12.98 -1.84 1.43 2.79 17641
0.00 0.00 6.06 -8.48 13.42 -1.51 1.55 2.56 17655
0.00 0.00 4.45 -7.85 14.34 -1.36 1.58 2.33 17670
0.00 0.00 3.58 -7.64 15.22 -1.40 1.72 2.14 17684
0.00 0.00 2.26 -7.62 14.58 -1.60 1.78 1.92 17698
0.00 0.00 1.43 -8.83 14.45 -1.81 1.56 1.68 17713
0.00 -0.00 1.00 -9.73 13.70 -1.91 1.21 1.40 17727
0.00 0.00 1.16 -10.79 11.83 -1.93 0.85 1.07 17741
0.00 0.00 -0.11 -10.75 7.92 -1.76 1.02 0.92 17756
0.00 0.00 -4.71 -13.06 9.50 -1.46 2.39 1.43 17770
0.00 0.00 -7.19 -17.02 10.37 -1.30 1.58 1.52 17784
0.00 0.00 -6.07 -19.00 6.48 -1.29 0.22 1.41 17799
0.00 0.00 -4.01 -20.32 3.85 -0.82 -0.22 1.16 17813
0.00 0.00 -7.23 -21.31 0.99 1.26 -0.70 0.90 17827
-0.00 0.00 -7.36 -24.59 5.59 2.45 -1.51 0.78 17842
-0.00 0.02 -2.49 3.43 4.47 2.95 -1.15 0.95 17856
-0.01 0.11 -2.18 0.45 19.80 3.00 -0.45 0.97 17870
-0.03 0.45 -7.47 -3.75 16.83 2.98 -0.89 -0.07 17886
-0.04 0.59 -1.84 -2.86 16.60 2.93 -0.65 -0.69 17900
-0.05 0.57 2.42 -1.78 14.86 2.18 -0.49 -0.75 17914
-0.04 0.64 1.98 -2.09 13.65 0.67 -0.99 -0.15 17929
-0.04 0.63 -0.19 -1.16 10.08 0.02 -0.06 0.04 17942
-0.05 0.63 0.47 -1.04 9.80 -0.04 -0.01 -0.04 17956
0.02 0.72 0.27 -0.89 9.83 -0.04 -0.03 -0.05 17971
0.01 0.76 0.31 -0.85 9.83 -0.03 -0.00 -0.06 17985
-0.04 0.80 0.30 -0.80 9.82 -0.02 0.01 -0.06 17999
-0.01 0.80 0.29 -0.80 9.86 -0.02 0.03 -0.06 18014
0.00 0.73 0.27 -0.77 9.81 -0.01 0.04 -0.06 18028
0.02 0.70 0.30 -0.82 9.81 -0.00 0.04 -0.05 18042
0.08 0.65 0.35 -0.81 9.81 -0.00 0.04 -0.05 18057
0.06 0.61 0.35 -0.81 9.82 0.00 0.04 -0.06 18071
0.06 0.57 0.34 -0.78 9.83 0.00 0.04 -0.07 18085
0.06 0.53 0.36 -0.79 9.80 0.01 0.03 -0.07 18100
0.04 0.51 0.35 -0.76 9.78 0.01 0.03 -0.08 18114
0.05 0.38 0.28 -0.78 9.81 0.01 0.03 -0.08 18128
0.08 0.35 0.29 -0.79 9.79 0.01 0.04 -0.07 18143
0.11 0.22 0.32 -0.78 9.79 0.02 0.04 -0.07 18157
0.15 0.14 0.36 -0.79 9.81 0.03 0.04 -0.07 18171
0.19 0.12 0.33 -0.79 9.80 0.03 0.04 -0.07 18186
0.18 0.05 0.34 -0.88 9.79 0.03 0.04 -0.08 18200
0.21 0.01 0.33 -0.83 9.80 0.03 0.04 -0.07 18214
0.30 0.03 0.31 -0.83 9.81 0.03 0.05 -0.08 18229
0.35 0.01 0.36 -0.85 9.82 0.03 0.04 -0.07 18243
0.44 -0.00 0.31 -0.85 9.83 0.03 0.05 -0.07 18257
0.49 -0.02 0.35 -0.84 9.81 0.04 0.05 -0.06 18272
0.52 -0.04 0.32 -0.89 9.78 0.04 0.06 -0.06 18286
0.56 -0.02 0.39 -0.81 9.79 0.05 0.07 -0.06 18300
0.63 -0.03 0.32 -0.93 9.81 0.06 0.08 -0.07 18315
0.70 -0.04 0.30 -0.90 9.92 0.09 0.10 -0.06 18329
0.74 -0.02 0.46 -0.94 9.85 0.19 0.15 -0.08 18343
0.83 -0.03 0.45 -1.05 10.14 0.65 0.27 -0.10 18359
0.91 -0.04 0.43 -1.20 10.39 1.03 0.28 -0.11 18373
1.02 -0.04 0.86 -1.45 11.11 1.15 0.12 -0.14 18387
1.11 -0.04 0.58 -1.63 11.32 1.26 -0.02 -0.15 18402
1.19 -0.05 0.53 -1.56 11.68 1.52 -0.11 -0.15 18416
1.27 -0.05 0.40 -2.00 11.95 1.79 -0.18 -0.16 18430
1.35 -0.05 0.33 -2.14 11.86 2.13 -0.28 -0.16 18445
1.39 -0.05 0.30 -1.86 12.16 2.45 -0.37 -0.15 18459
1.35 -0.04 0.59 -2.79 12.46 2.85 -0.44 -0.17 18473
1.32 -0.05 0.18 -3.19 12.98 3.34 -0.47 -0.20 18488
1.20 -0.05 0.97 -3.59 13.75 3.91 -0.54 -0.24 18502
0.92 -0.04 0.69 -4.60 16.22 4.28 -0.71 -0.37 18516
0.59 -0.03 1.17 -6.30 19.64 4.28 -1.01 -0.55 18531
0.39 -0.02 1.93 -8.96 24.92 4.28 -1.34 -0.78 18545
0.24 -0.02 3.74 -13.07 25.43 4.28 -0.96 -0.80 18560
0.12 -0.01 2.45 -9.01 23.06 4.28 -0.08 -0.90 18573
0.10 -0.01 0.79 -3.86 25.38 4.28 0.21 -0.97 18587
0.08 -0.01 1.41 1.58 25.46 4.28 -0.50 -1.09 18601
0.00 -0.00 5.29 9.61 16.09 4.28 -0.79 -1.12 18616
0.00 0.00 2.02 15.45 7.69 3.31 -0.12 -1.58 18630
0.00 0.00 5.92 14.03 22.86 1.39 0.17 -2.20 18644
0.00 0.00 3.15 12.24 17.40 -1.69 1.12 -1.78 18659
0.00 0.00 1.40 10.31 9.62 -3.38 0.81 -1.19 18673
0.00 0.00 2.66 5.99 5.40 -3.91 0.62 -0.73 18688
0.00 0.00 2.30 3.75 6.07 -3.77 0.74 -0.39 18702
0.00 0.00 2.00 3.11 5.55 -3.61 0.87 -0.18 18716
0.00 0.00 1.67 3.11 7.37 -3.63 1.09 -0.09 18731
0.00 0.00 1.16 2.89 9.36 -3.85 1.39 -0.02 18745
-0.00 0.00 0.37 2.42 10.53 -4.13 1.74 0.12 18759
0.00 0.00 -0.41 1.55 12.22 -4.27 1.84 0.26 18774
0.00 0.00 -1.00 0.08 13.13 -4.28 1.78 0.38 18788
0.00 0.00 -1.08 -1.48 14.29 -4.28 1.86 0.42 18802
0.00 0.00 -1.82 -2.65 15.30 -4.28 2.03 0.37 18817
0.00 0.00 -2.44 -4.07 16.09 -4.28 2.23 0.28 18831
0.00 0.00 -2.85 -5.04 17.74 -4.26 2.35 0.24 18845
0.00 0.00 -4.03 -5.88 18.40 -4.19 2.20 0.26 18860
0.00 0.00 -4.14 -6.80 18.65 -3.90 1.83 0.33 18874
0.00 -0.00 -3.67 -7.36 18.81 -3.54 1.30 0.32 18888
0.00 0.00 -2.10 -8.85 19.30 -3.24 1.01 0.25 18903
0.00 0.00 -1.65 -10.97 19.67 -3.02 0.79 0.23 18917
0.00 0.00 -1.45 -12.22 19.53 -2.81 0.38 0.32 18931
0.00 0.00 -0.83 -13.11 19.43 -2.60 0.22 0.53 18946
0.00 0.00 -0.82 -14.04 17.13 -2.67 0.60 0.84 18960
0.00 -0.00 -2.62 -16.73 14.27 -2.98 1.50 1.27 18975
0.00 0.00 -5.12 -23.37 10.31 -3.06 1.41 1.46 18989
0.00 0.00 -5.58 -27.43 3.53 -2.46 0.79 1.35 19003
0.00 0.00 -5.28 -29.22 0.07 -1.37 0.47 1.01 19017
0.00 0.00 -4.72 -26.29 1.60 -0.11 0.13 0.45 19032
0.00 0.00 -5.85 -22.31 3.37 2.22 -0.21 -0.03 19046
-0.00 0.01 -3.85 -23.85 4.45 3.10 -1.44 -0.34 19060
-0.00 0.04 4.76 -0.05 3.60 3.21 -1.11 -0.08 19075
-0.02 0.35 -1.38 -1.58 21.93 3.75 -0.65 0.27 19090
-0.03 0.66 -2.45 -4.64 19.61 3.52 -1.29 -0.08 19104
-0.04 0.70 -1.05 -3.08 18.78 3.05 -0.84 -0.31 19119
-0.04 0.73 0.93 -2.35 17.57 2.60 -0.57 -0.43 19133
-0.04 0.69 0.68 -2.31 11.99 0.37 -0.67 -0.05 19147
-0.03 0.69 0.06 -0.94 9.84 0.00 -0.01 -0.02 19161
-0.00 0.74 0.49 -1.05 9.83 -0.01 -0.02 -0.06 19175
0.01 0.71 0.21 -0.99 9.92 -0.02 0.00 -0.06 19189
0.01 0.77 0.28 -0.97 9.82 -0.02 0.02 -0.06 19204
0.01 0.81 0.36 -0.86 9.80 -0.01 0.03 -0.06 19218
-0.00 0.74 0.37 -0.83 9.77 -0.00 0.03 -0.07 19232
0.02 0.70 0.40 -0.83 9.78 0.00 0.03 -0.06 19247
0.01 0.62 0.34 -0.84 9.82 0.01 0.04 -0.07 19261
0.01 0.58 0.34 -0.85 9.82 0.01 0.04 -0.07 19275
0.02 0.54 0.36 -0.84 9.80 0.01 0.04 -0.10 19290
0.03 0.50 0.36 -0.86 9.80 0.01 0.05 -0.07 19304
0.02 0.41 0.40 -0.86 9.79 0.01 0.05 -0.07 19318
0.03 0.43 0.40 -0.85 9.78 0.01 0.04 -0.08 19333
0.05 0.32 0.40 -0.86 9.77 0.01 0.04 -0.08 19347
0.03 0.30 0.37 -0.87 9.82 0.01 0.04 -0.08 19361
0.06 0.26 0.36 -0.88 9.77 0.01 0.04 -0.08 19376
0.10 0.16 0.37 -0.86 9.79 0.00 0.05 -0.08 19390
0.08 0.15 0.38 -0.89 9.76 0.01 0.05 -0.07 19404
0.09 0.12 0.39 -0.85 9.78 0.01 0.05 -0.07 19419
0.09 0.14 0.39 -0.87 9.80 0.01 0.05 -0.08 19433
0.11 0.10 0.39 -0.89 9.78 0.01 0.05 -0.08 19447
0.13 0.06 0.40 -0.90 9.77 0.02 0.05 -0.08 19462
0.17 0.05 0.43 -0.91 9.76 0.02 0.05 -0.08 19476
0.19 0.01 0.40 -0.86 9.80 0.02 0.05 -0.09 19490
0.25 0.01 0.40 -0.91 9.80 0.03 0.05 -0.08 19505
0.31 0.01 0.44 -0.94 9.81 0.04 0.05 -0.08 19519
0.40 -0.03 0.39 -0.67 9.88 0.06 0.06 -0.08 19533
0.47 -0.01 0.39 -0.88 9.86 0.09 0.08 -0.09 19548
0.58 -0.03 0.46 -0.95 9.95 0.12 0.12 -0.11 19562
0.69 -0.03 0.58 -0.93 10.16 0.26 0.23 -0.15 19577
0.82 -0.03 0.44 -1.08 11.01 1.17 0.54 -0.15 19592
0.96 -0.04 0.53 -1.48 12.85 1.80 0.48 -0.17 19606
1.05 -0.04 0.13 -1.64 12.40 1.85 -0.00 -0.18 19619
1.14 -0.04 0.62 -1.78 13.18 2.15 -0.05 -0.17 19635
1.17 -0.04 0.45 -2.34 12.47 2.63 -0.19 -0.19 19649
1.14 -0.05 0.45 -2.06 12.67 3.03 -0.12 -0.22 19663
1.02 -0.04 0.28 -2.58 13.95 3.54 -0.01 -0.19 19678
0.89 -0.04 1.31 -3.17 15.16 4.18 -0.04 -0.25 19692
0.54 -0.03 1.07 -4.22 17.39 4.28 -0.16 -0.37 19706
0.25 -0.03 1.14 -6.55 20.07 4.28 -0.34 -0.45 19720
0.17 -0.02 1.70 -10.55 27.61 4.28 -0.26 -0.49 19735
0.11 -0.01 3.67 -7.64 23.54 4.28 0.11 -0.49 19748
0.17 -0.02 -0.53 -4.86 25.83 4.28 0.43 -0.56 19763
0.06 -0.01 1.54 -3.66 28.23 4.28 -0.33 -0.67 19777
0.00 -0.00 5.03 5.89 25.34 4.28 -0.92 -0.79 19791
0.00 0.00 9.07 14.46 8.82 4.21 -0.03 -0.98 19806
0.00 0.00 5.76 16.26 7.55 2.95 0.74 -2.28 19820
0.00 0.00 3.89 11.56 22.07 -0.25 1.74 -2.52 19834
0.00 0.00 -0.04 12.83 10.68 -1.99 1.27 -2.35 19849
0.00 -0.00 0.87 8.97 7.88 -3.03 0.34 -1.94 19863
0.00 0.00 1.71 5.32 6.78 -3.25 -0.11 -1.55 19877
0.00 0.00 3.04 4.22 6.11 -3.25 -0.23 -1.23 19892
-0.00 0.00 3.78 4.15 6.46 -3.41 -0.01 -0.96 19906
-0.00 0.01 4.09 3.75 8.08 -3.72 0.44 -0.67 19920
-0.00 0.00 3.51 2.47 9.48 -4.07 0.94 -0.29 19935
-0.00 0.00 2.49 1.99 10.30 -4.26 1.25 0.08 19949
0.00 0.00 1.87 0.33 11.80 -4.28 1.33 0.36 19963
0.00 0.00 1.45 -1.53 13.37 -4.28 1.35 0.51 19978
-0.00 0.00 1.27 -3.11 14.61 -4.28 1.47 0.52 19992
-0.00 0.00 0.72 -4.88 15.57 -4.28 1.71 0.37 20006
-0.00 0.00 0.03 -5.90 16.49 -4.27 1.91 0.16 20021
-0.00 0.00 -0.44 -6.62 17.11 -4.21 1.96 -0.01 20035
-0.00 0.00 -0.91 -7.30 17.60 -3.91 1.84 -0.04 20049
0.00 0.00 -1.07 -7.83 18.51 -3.48 1.60 0.02 20064
0.00 0.00 -1.10 -7.85 20.72 -3.29 1.26 0.06 20078
0.00 0.00 0.01 -8.85 21.91 -3.34 1.11 0.06 20092
0.00 0.00 0.59 -10.17 21.29 -3.46 1.23 0.04 20107
0.00 0.00 0.55 -11.87 20.46 -3.46 1.56 0.03 20121
0.00 0.00 0.11 -14.82 19.04 -3.35 1.88 0.09 20135
0.00 0.00 -2.20 -16.48 15.01 -3.15 2.22 0.29 20150
0.00 0.00 -6.82 -19.61 11.05 -2.76 2.68 1.01 20164
0.00 0.00 -10.19 -27.40 8.28 -2.19 2.11 1.66 20178
0.00 0.00 -9.76 -33.07 1.39 -1.55 0.73 1.85 20193
0.00 0.00 -6.71 -30.77 0.79 -0.45 0.16 1.59 20207
0.00 0.00 -11.84 -31.03 -1.99 2.32 -0.68 1.26 20221
-0.00 0.02 -7.36 -21.52 2.58 3.10 -1.80 1.01 20236
-0.01 0.06 -1.31 3.60 4.82 3.05 -1.53 1.22 20250
-0.02 0.38 -8.70 0.67 21.64 3.77 -0.53 1.07 20265
-0.04 0.74 -6.67 -6.10 19.70 4.05 -1.14 -0.09 20280
-0.05 0.86 -0.30 -2.83 21.45 3.40 -0.62 -0.68 20294
-0.04 0.85 4.50 -2.94 15.37 2.76 -0.66 -0.54 20308
-0.04 0.81 0.47 -2.07 12.64 0.87 -1.71 0.02 20323
-0.05 0.81 -0.56 -1.89 10.90 0.05 -0.20 -0.01 20336
-0.01 0.82 0.64 -1.19 9.89 -0.01 -0.07 -0.04 20350
0.01 0.83 0.41 -0.99 9.81 -0.01 -0.02 -0.05 20365
0.01 0.76 0.50 -0.91 9.84 -0.00 0.01 -0.05 20379
0.05 0.68 0.50 -0.91 9.80 0.01 0.03 -0.06 20393
0.10 0.54 0.49 -0.89 9.81 0.02 0.04 -0.05 20408
0.15 0.43 0.50 -0.91 9.82 0.03 0.05 -0.06 20422
0.15 0.37 0.51 -0.94 9.79 0.03 0.06 -0.05 20436
0.17 0.31 0.57 -0.93 9.73 0.04 0.06 -0.06 20451
0.19 0.19 0.59 -0.93 9.78 0.05 0.06 -0.07 20465
0.18 0.11 0.56 -0.96 9.78 0.06 0.06 -0.07 20480
0.20 0.07 0.59 -0.92 9.75 0.06 0.06 -0.08 20494
0.25 0.02 0.50 -0.95 9.71 0.05 0.06 -0.08 20508
0.27 0.01 0.51 -0.98 9.77 0.05 0.07 -0.07 20523
0.31 -0.01 0.58 -0.97 9.78 0.05 0.07 -0.06 20537
0.32 -0.01 0.55 -1.00 9.74 0.05 0.07 -0.06 20551
0.32 -0.01 0.63 -0.97 9.76 0.04 0.07 -0.07 20566
0.34 -0.02 1.20 -0.98 9.79 0.04 0.06 -0.07 20580
0.38 -0.02 0.63 -1.07 9.75 0.03 0.05 -0.07 20594
0.42 -0.02 0.61 -1.02 9.81 0.03 0.05 -0.08 20609
0.46 -0.02 0.57 -1.00 9.79 0.04 0.06 -0.08 20623
0.47 -0.03 0.56 -1.01 9.76 0.05 0.08 -0.08 20637
0.53 -0.03 0.63 -1.03 9.80 0.08 0.11 -0.09 20652
0.60 -0.03 0.51 -1.05 9.79 0.14 0.14 -0.08 20666
0.63 -0.03 0.50 -1.03 9.87 0.24 0.18 -0.07 20680
0.67 -0.02 0.57 -1.07 9.88 0.31 0.18 -0.05 20695
0.74 -0.02 0.67 -1.22 9.89 0.41 0.23 -0.05 20709
0.78 -0.03 0.89 -1.27 10.19 0.58 0.23 -0.06 20724
0.83 -0.03 0.74 -1.41 10.71 0.78 0.24 -0.09 20739
0.92 -0.03 0.73 -1.61 10.78 0.93 0.13 -0.11 20753
0.94 -0.04 0.76 -1.73 11.07 1.07 0.02 -0.11 20766
0.99 -0.03 0.80 -1.75 11.54 1.31 -0.05 -0.13 20782
1.06 -0.04 0.75 -1.96 11.66 1.61 -0.10 -0.14 20796
1.08 -0.04 0.72 -2.52 11.48 1.92 -0.14 -0.15 20810
1.02 -0.04 0.78 -2.51 11.50 2.22 -0.11 -0.15 20825
0.99 -0.03 0.76 -2.92 11.78 2.49 -0.06 -0.17 20839
0.94 -0.03 0.49 -3.26 12.72 2.89 0.04 -0.18 20853
0.80 -0.03 0.76 -3.32 14.83 3.49 0.08 -0.17 20868
0.51 -0.02 1.95 -4.50 15.75 4.16 -0.02 -0.32 20882
0.26 -0.01 1.67 -5.93 18.21 4.28 -0.06 -0.45 20896
0.24 -0.01 1.83 -9.36 23.01 4.28 0.13 -0.44 20911
0.12 -0.01 3.48 -9.94 22.35 4.28 0.76 -0.41 20925
0.10 -0.00 2.23 -7.72 20.73 4.28 1.40 -0.40 20939
0.06 -0.00 -1.28 -6.38 26.30 4.28 1.51 -0.49 20954
0.03 -0.00 0.69 -3.18 27.12 4.28 0.72 -0.66 20967
0.00 0.00 4.08 7.95 19.81 4.28 0.13 -0.81 20981
0.00 -0.00 7.22 15.17 9.83 3.71 1.07 -1.06 20996
0.00 0.00 3.45 14.88 14.72 1.92 1.59 -2.59 21010
0.00 0.00 1.10 11.81 18.54 -1.24 2.45 -2.98 21024
0.00 0.00 -1.90 11.64 9.95 -2.71 1.85 -2.90 21039
0.00 -0.00 -1.02 7.13 7.71 -3.48 1.04 -2.53 21053
0.00 0.00 -0.58 4.40 7.10 -3.58 0.52 -2.05 21067
0.00 0.00 0.38 3.62 6.61 -3.59 0.10 -1.56 21082
0.00 0.00 1.55 3.91 7.06 -3.72 -0.00 -1.10 21096
0.00 -0.00 2.26 3.39 8.05 -3.93 0.27 -0.73 21110
0.00 0.00 2.19 2.38 9.04 -4.15 0.75 -0.38 21125
0.00 0.00 1.25 1.48 10.40 -4.27 1.10 -0.04 21139
0.00 0.00 0.55 0.35 12.28 -4.28 1.23 0.21 21153
0.00 0.00 0.40 -1.33 13.36 -4.28 1.47 0.36 21168
0.00 -0.00 -0.09 -2.85 14.68 -4.28 1.85 0.40 21182
0.00 -0.00 -1.00 -4.52 15.70 -4.28 2.18 0.39 21196
0.00 0.00 -2.13 -5.39 17.77 -4.27 2.28 0.45 21211
0.00 0.00 -2.96 -6.41 18.20 -4.13 2.14 0.64 21225
0.00 0.00 -4.20 -6.79 18.93 -3.82 1.66 0.87 21239
0.00 -0.00 -4.23 -7.33 19.63 -3.56 0.86 1.07 21254
0.00 0.00 -2.70 -7.91 19.46 -3.41 0.09 1.12 21268
0.00 -0.00 -1.26 -9.27 19.05 -3.21 -0.43 1.04 21282
0.00 -0.00 0.24 -11.75 18.98 -2.94 -0.85 0.91 21297
0.00 0.00 1.60 -14.14 18.37 -2.55 -0.90 0.81 21311
0.00 0.00 2.33 -13.75 14.19 -2.28 -0.31 0.87 21325
0.00 0.00 1.66 -17.85 14.26 -2.49 0.98 1.10 21340
0.00 0.00 -1.34 -22.01 11.35 -2.72 1.95 1.41 21354
0.00 0.00 -4.42 -27.21 6.10 -2.67 1.90 1.62 21368
0.00 0.00 -5.30 -28.76 1.24 -1.77 1.22 1.54 21383
0.00 0.00 -0.79 -27.88 -11.86 0.57 1.04 0.81 21397
0.00 0.00 -1.09 -24.22 3.35 2.10 0.45 -0.05 21411
-0.00 0.01 -3.00 -22.73 6.81 2.93 -0.91 -0.32 21426
-0.01 0.06 4.72 -1.58 5.25 2.88 -0.65 -0.00 21440
-0.02 0.35 -1.20 -0.54 19.32 3.57 -0.52 0.39 21455
-0.04 0.62 -1.88 -3.93 18.54 3.46 -1.34 -0.12 21470
-0.03 0.59 -1.38 -2.41 16.76 2.84 -0.81 -0.23 21484
-0.03 0.59 10.37 -4.18 52.47 2.25 -1.01 -0.38 21498
-0.03 0.56 0.70 -2.27 10.94 0.05 -0.06 -0.03 21512
-0.04 0.61 0.09 -0.93 9.81 -0.02 0.05 -0.03 21526
-0.04 0.60 0.46 -1.10 9.81 -0.04 0.03 -0.04 21540
0.03 0.63 0.37 -0.87 9.79 -0.05 0.01 -0.04 21555
-0.00 0.67 0.40 -0.87 9.82 -0.03 0.03 -0.04 21569
-0.01 0.70 0.38 -0.83 9.82 -0.02 0.04 -0.05 21583
-0.01 0.63 0.40 -0.86 9.78 -0.00 0.04 -0.05 21598
0.03 0.57 0.39 -0.84 9.78 0.01 0.05 -0.06 21612
0.03 0.56 0.33 -0.86 9.80 0.01 0.04 -0.06 21626
0.04 0.54 0.37 -0.85 9.82 0.01 0.04 -0.06 21641
0.07 0.46 0.35 -0.84 9.83 0.02 0.05 -0.06 21655
0.08 0.37 0.40 -0.83 9.81 0.03 0.05 -0.06 21669
0.08 0.35 0.43 -0.86 9.77 0.03 0.05 -0.07 21684
0.07 0.22 0.41 -0.86 9.80 0.03 0.05 -0.07 21698
0.09 0.18 0.37 -0.90 9.80 0.03 0.05 -0.07 21712
0.14 0.15 0.36 -0.86 9.80 0.03 0.06 -0.07 21727
0.15 0.11 0.37 -0.90 9.77 0.03 0.06 -0.07 21741
0.15 0.05 0.43 -0.88 9.74 0.03 0.06 -0.07 21755
0.15 0.02 0.46 -0.89 9.79 0.03 0.06 -0.07 21770
0.17 0.01 0.42 -0.92 9.80 0.03 0.05 -0.07 21784
0.19 0.01 0.41 -0.90 9.80 0.03 0.05 -0.07 21798
0.20 -0.00 0.42 -0.93 9.78 0.03 0.05 -0.07 21813
0.21 0.03 0.39 -0.97 9.79 0.03 0.05 -0.07 21827
0.24 -0.01 0.43 -0.94 9.76 0.03 0.05 -0.07 21841
0.28 -0.01 0.43 -0.97 9.80 0.03 0.05 -0.07 21856
0.30 -0.02 0.37 -0.94 9.82 0.05 0.05 -0.07 21870
0.34 -0.01 0.47 -0.92 9.83 0.07 0.07 -0.08 21884
0.43 -0.03 0.32 -1.03 9.82 0.11 0.11 -0.08 21899
0.50 -0.03 0.43 -0.96 9.88 0.20 0.21 -0.08 21913
0.60 -0.03 0.34 -1.05 10.45 0.52 0.35 -0.09 21927
0.72 -0.03 0.59 -1.29 10.98 1.16 0.40 -0.11 21943
0.80 -0.04 0.70 -1.35 11.45 1.36 0.29 -0.16 21957
0.87 -0.03 0.75 -1.58 12.20 1.48 0.06 -0.19 21971
0.92 -0.04 0.66 -1.80 11.79 1.74 -0.08 -0.18 21986
0.95 -0.03 0.47 -2.04 12.13 2.11 -0.12 -0.16 22000
0.95 -0.04 0.69 -2.28 12.04 2.48 -0.11 -0.16 22014
1.01 -0.04 0.78 -2.48 12.99 2.95 -0.04 -0.20 22029
0.92 -0.04 0.44 -2.97 14.99 3.53 -0.03 -0.19 22043
0.71 -0.03 1.80 -3.68 15.23 4.21 -0.08 -0.26 22057
0.44 -0.02 1.61 -4.85 18.00 4.28 -0.40 -0.45 22072
0.26 -0.02 1.95 -7.56 21.07 4.28 -0.70 -0.57 22086
0.21 -0.02 1.94 -8.66 26.71 4.28 -0.88 -0.67 22100
0.14 -0.01 3.96 -8.10 22.10 4.28 -0.79 -0.76 22114
0.06 -0.01 0.65 -5.05 27.17 4.28 -0.54 -0.90 22128
0.07 -0.01 3.74 -3.07 28.67 4.28 -1.44 -0.97 22142
0.00 0.00 6.74 9.00 25.45 4.28 -1.87 -0.97 22157
0.01 -0.00 7.58 19.64 5.13 3.62 -0.80 -0.97 22171
0.00 0.00 5.73 15.22 18.21 1.90 -0.46 -1.75 22185
0.00 0.00 3.07 10.57 19.08 -1.22 0.44 -1.55 22200
0.00 0.00 0.61 11.63 8.43 -2.62 -0.13 -1.21 22214
0.00 0.00 1.66 7.40 7.00 -3.16 -0.82 -1.02 22228
0.00 0.00 2.47 4.76 7.31 -3.24 -1.14 -0.84 22243
0.00 0.00 4.43 4.70 6.73 -3.40 -1.06 -0.79 22257
0.00 0.00 4.92 4.41 7.47 -3.81 -0.61 -0.69 22272
0.00 0.00 4.93 2.98 8.72 -4.12 -0.16 -0.55 22286
0.00 0.00 4.79 1.60 9.01 -4.24 0.27 -0.32 22300
0.00 0.00 4.64 0.04 10.45 -4.28 0.49 -0.04 22315
0.00 0.00 4.64 -1.68 12.09 -4.28 0.64 0.21 22329
0.00 0.00 5.15 -3.29 13.34 -4.28 0.85 0.48 22343
0.00 0.00 5.22 -4.84 14.30 -4.28 1.14 0.70 22358
0.00 0.00 5.42 -7.43 13.98 -4.27 1.54 0.90 22372
0.00 0.00 5.11 -8.36 15.44 -4.12 1.90 1.09 22386
0.00 0.00 3.39 -9.05 15.92 -3.62 1.96 1.36 22401
0.00 0.00 2.59 -7.87 17.74 -3.30 1.80 1.68 22415
0.00 0.00 1.91 -7.60 19.02 -3.27 1.48 1.87 22429
0.00 0.00 1.42 -8.20 19.22 -3.36 1.15 1.93 22444
0.00 0.00 1.35 -9.22 19.01 -3.28 0.86 1.80 22458
0.00 0.00 1.20 -10.38 18.75 -3.05 0.74 1.59 22472
0.00 0.00 2.17 -12.35 19.71 -2.89 0.77 1.35 22487
0.00 0.00 3.21 -14.80 20.72 -2.79 1.15 1.13 22501
0.00 0.00 3.78 -18.20 17.45 -2.98 1.54 0.90 22515
0.00 0.00 2.77 -21.80 12.58 -3.04 1.88 0.73 22530
0.00 0.00 -3.61 -22.34 4.74 -2.47 3.19 1.22 22544
0.00 0.00 -9.82 -31.74 5.95 -1.49 3.34 2.12 22558
0.00 0.00 -9.29 -28.87 -0.03 -0.52 0.77 1.99 22573
0.00 0.00 -3.59 -42.18 -12.11 0.31 -0.79 1.42 22587
0.00 0.00 -1.14 -17.85 1.05 3.00 -0.87 1.15 22601
-0.00 0.03 -1.41 -7.58 9.95 3.24 -1.40 1.29 22616
-0.01 0.16 -1.18 0.11 17.91 3.57 -0.14 1.75 22631
-0.02 0.56 -10.79 -4.02 19.34 3.96 -0.87 0.83 22645
-0.03 0.69 -5.02 -4.02 21.28 3.57 -0.62 -0.31 22660
-0.03 0.74 1.58 -1.42 14.55 2.48 -0.42 -0.82 22674
-0.04 0.71 4.88 -3.13 25.06 1.72 -1.66 -0.29 22688
-0.04 0.73 -0.05 -1.74 10.84 0.28 -0.54 -0.01 22703
-0.04 0.73 0.07 -1.11 9.87 0.01 -0.08 -0.05 22716
-0.02 0.76 0.48 -1.07 9.84 -0.00 -0.04 -0.04 22730
-0.01 0.69 0.34 -0.86 9.75 -0.00 -0.02 -0.06 22745
0.01 0.68 0.38 -0.92 9.82 0.01 -0.01 -0.07 22759
0.03 0.62 0.20 -0.95 9.78 0.03 0.03 -0.07 22773
0.11 0.49 0.34 -0.93 9.80 0.04 0.04 -0.06 22788
0.10 0.44 0.36 -0.95 9.20 0.04 0.04 -0.06 22802
0.15 0.29 0.37 -0.97 9.81 0.05 0.05 -0.06 22816
0.15 0.18 0.36 -0.97 9.81 0.06 0.05 -0.07 22831
0.18 0.09 0.40 -1.01 9.77 0.06 0.04 -0.08 22845
0.21 0.03 0.39 -1.00 9.80 0.06 0.03 -0.08 22859
0.25 0.00 0.30 -1.01 9.81 0.05 0.04 -0.07 22874
0.32 0.01 0.30 -0.98 9.82 0.06 0.05 -0.07 22888
0.35 -0.02 0.35 -1.01 9.78 0.06 0.07 -0.06 22902
0.38 -0.02 0.39 -1.08 9.76 0.07 0.08 -0.05 22917
0.40 -0.03 0.32 -1.05 9.78 0.09 0.11 -0.04 22931
0.42 -0.02 0.32 -1.08 9.79 0.11 0.14 -0.05 22945
0.43 -0.02 0.37 -1.09 9.75 0.15 0.15 -0.06 22960
0.50 -0.03 0.43 -1.09 9.80 0.28 0.17 -0.06 22974
0.57 -0.03 0.42 -1.18 9.82 0.34 0.17 -0.07 22988
0.58 -0.02 0.50 -1.26 9.87 0.42 0.20 -0.08 23003
0.61 -0.03 0.52 -1.35 10.60 0.49 0.17 -0.09 23017
0.65 -0.03 0.49 -1.42 9.91 0.51 0.18 -0.09 23031
0.67 -0.03 0.56 -1.53 9.86 0.52 0.15 -0.09 23046
0.71 -0.03 0.54 -1.65 10.04 0.54 0.13 -0.09 23061
0.79 -0.03 0.59 -1.74 10.07 0.58 0.11 -0.10 23074
0.84 -0.03 0.82 -1.80 10.37 0.68 0.06 -0.12 23090
0.88 -0.03 0.69 -1.90 10.54 0.87 0.01 -0.14 23103
0.93 -0.04 0.56 -2.04 10.92 1.06 -0.05 -0.15 23117
1.02 -0.04 0.47 -2.10 11.42 1.34 -0.11 -0.16 23133
1.03 -0.04 0.19 -2.47 11.50 1.68 -0.14 -0.13 23147
1.11 -0.04 0.33 -2.63 11.61 2.06 -0.12 -0.11 23161
1.12 -0.04 0.49 -2.90 12.08 2.48 -0.06 -0.10 23175
1.05 -0.04 0.49 -3.33 13.43 2.93 0.00 -0.12 23189
1.00 -0.04 0.68 -3.79 14.48 3.56 -0.01 -0.12 23203
0.66 -0.03 1.84 -4.59 15.84 4.20 -0.16 -0.25 23219
0.30 -0.02 1.07 -7.04 19.62 4.28 -0.46 -0.42 23233
0.26 -0.02 2.53 -9.96 24.55 4.28 -0.73 -0.56 23247
0.18 -0.02 2.81 -15.40 26.38 4.28 -0.70 -0.66 23262
0.11 -0.01 2.16 -7.39 24.39 4.28 -0.23 -0.74 23275
0.08 -0.01 0.34 -5.27 28.10 4.28 -0.28 -0.82 23289
0.03 -0.00 3.37 -0.51 29.96 4.28 -1.14 -0.88 23304
0.02 -0.00 8.38 13.94 14.35 4.28 -1.08 -0.82 23318
0.00 0.00 0.76 21.59 2.68 3.25 0.01 -1.40 23332
0.00 0.00 6.50 12.19 25.41 1.42 0.91 -2.16 23347
0.00 0.00 1.10 12.63 16.16 -1.60 1.41 -1.98 23361
0.00 0.00 -0.11 11.12 8.15 -3.07 0.41 -1.60 23375
0.00 0.00 0.80 6.18 5.53 -3.38 -0.27 -1.33 23390
-0.00 0.00 2.19 4.37 6.49 -3.31 -0.47 -1.07 23404
0.00 0.00 3.75 4.82 6.16 -3.46 -0.13 -0.92 23418
-0.00 0.01 3.70 4.48 7.80 -3.91 0.55 -0.77 23433
0.00 0.00 2.75 3.08 8.76 -4.20 1.07 -0.56 23447
0.00 0.00 1.88 0.67 9.46 -4.28 1.23 -0.27 23461
0.00 0.00 1.17 -0.19 11.23 -4.28 1.10 -0.00 23476
0.00 0.00 1.66 -1.27 13.00 -4.28 1.11 0.20 23490
0.00 0.00 2.09 -2.55 14.19 -4.28 1.46 0.27 23504
0.00 0.00 1.54 -4.61 14.93 -4.28 1.99 0.24 23519
0.00 0.00 0.37 -6.90 15.68 -4.28 2.33 0.23 23533
0.00 0.00 -0.80 -7.58 16.30 -4.24 2.38 0.36 23547
0.00 0.00 -1.80 -8.54 16.52 -3.78 2.19 0.54 23562
0.00 0.00 -2.39 -8.60 17.29 -3.21 1.81 0.68 23576
0.00 0.00 -2.18 -7.77 18.81 -2.85 1.31 0.80 23590
0.00 0.00 -1.52 -8.48 19.96 -2.86 0.79 0.90 23605
0.00 0.00 -0.48 -9.65 19.89 -2.96 0.50 0.94 23619
0.00 0.00 -0.09 -10.71 18.66 -2.96 0.47 0.99 23633
0.00 0.00 -0.47 -12.38 18.66 -2.86 0.70 1.17 23648
0.00 0.00 -1.10 -15.43 18.06 -2.91 1.01 1.41 23662
0.00 0.00 -2.75 -18.87 14.42 -3.12 1.34 1.58 23676
0.00 -0.00 -4.56 -23.72 9.41 -3.06 1.43 1.56 23691
0.00 0.00 -5.79 -28.03 4.12 -2.37 1.11 1.29 23705
0.00 0.00 -5.69 -29.38 0.95 -1.31 0.80 0.66 23719
0.00 0.00 -4.37 -26.06 2.16 -0.26 0.59 -0.13 23734
0.00 0.00 -20.91 -48.69 8.90 1.22 -0.12 -0.57 23748
0.00 0.00 -4.37 -14.44 -1.58 2.84 -0.96 -0.30 23762
-0.00 0.04 3.87 6.33 6.87 2.79 -1.35 0.21 23777
-0.00 0.16 2.23 1.00 15.33 3.15 0.08 1.04 23791
-0.04 0.55 -7.03 -4.29 18.05 3.83 -1.16 0.32 23806
-0.03 0.67 -1.21 -3.77 20.67 3.45 -0.89 -0.12 23821
-0.04 0.70 -0.59 -1.85 14.71 2.53 -0.67 -0.54 23835
-0.03 0.63 3.56 -2.45 12.69 0.89 -1.57 -0.24 23849
-0.04 0.76 0.11 -1.37 10.22 0.04 -0.29 0.02 23863
-0.04 0.70 0.25 -0.88 9.74 -0.02 -0.08 -0.04 23877
0.00 0.74 0.43 -1.16 9.87 -0.03 -0.07 -0.05 23891
-0.03 0.75 0.31 -0.92 9.82 -0.02 -0.04 -0.06 23906
0.02 0.73 0.17 -0.96 9.78 -0.01 -0.03 -0.07 23920
0.04 0.66 0.29 -0.88 9.80 0.00 -0.01 -0.07 23934
0.08 0.54 0.27 -0.84 9.82 0.02 0.02 -0.07 23949
0.10 0.53 0.30 -0.79 9.82 0.03 0.03 -0.06 23963
0.15 0.39 0.34 -0.89 9.81 0.04 0.04 -0.06 23977
0.18 0.24 0.32 -0.88 9.81 0.05 0.04 -0.07 23992
0.20 0.13 0.36 -0.89 9.79 0.06 0.04 -0.07 24006
0.21 0.06 0.31 -0.93 10.42 0.06 0.04 -0.08 24020
0.23 0.02 0.31 -0.94 9.80 0.06 0.05 -0.08 24035
0.26 0.01 0.29 -0.93 9.82 0.05 0.05 -0.07 24049
0.27 0.01 0.29 -0.96 9.83 0.06 0.07 -0.06 24064
0.28 -0.01 0.38 -0.91 9.80 0.07 0.07 -0.07 24078
0.32 -0.01 0.40 -0.91 9.81 0.07 0.07 -0.06 24092
0.37 -0.03 0.37 -0.96 9.80 0.07 0.08 -0.07 24107
0.40 -0.03 0.31 -1.01 9.82 0.08 0.10 -0.07 24121
0.43 -0.02 0.36 -0.97 9.79 0.10 0.11 -0.07 24135
0.47 -0.03 0.37 -1.01 9.75 0.11 0.12 -0.07 24150
0.52 -0.03 0.38 -1.05 9.76 0.14 0.12 -0.07 24164
0.52 -0.03 0.39 -1.04 9.82 0.19 0.13 -0.08 24178
0.55 -0.02 0.38 -1.06 9.86 0.26 0.14 -0.07 24193
0.57 -0.03 0.42 -1.15 9.86 0.34 0.16 -0.07 24207
0.62 -0.03 0.49 -0.62 9.76 0.40 0.17 -0.08 24221
0.65 -0.03 0.45 -1.35 9.92 0.46 0.19 -0.08 24236
0.73 -0.03 0.62 -1.46 10.09 0.54 0.18 -0.10 24251
0.83 -0.03 0.65 -1.55 10.36 0.65 0.09 -0.11 24265
0.87 -0.03 0.57 -1.64 10.66 0.75 0.01 -0.13 24280
1.02 -0.04 0.55 -1.77 10.99 0.93 -0.09 -0.13 24294
1.09 -0.05 0.58 -1.89 11.19 1.14 -0.13 -0.14 24308
1.19 -0.05 0.53 -1.99 11.26 1.42 -0.15 -0.15 24323
1.23 -0.05 0.46 -2.27 11.72 1.72 -0.19 -0.15 24337
1.22 -0.04 0.49 -2.55 11.64 2.06 -0.21 -0.16 24351
1.19 -0.05 0.68 -2.85 12.39 2.46 -0.14 -0.20 24366
1.11 -0.04 0.13 -3.02 13.31 2.97 -0.12 -0.22 24380
1.01 -0.04 0.74 -3.60 14.70 3.63 -0.14 -0.22 24394
0.68 -0.03 1.61 -4.37 16.31 4.26 -0.22 -0.37 24409
0.36 -0.02 1.98 -6.65 19.46 4.28 -0.45 -0.55 24423
0.22 -0.02 2.46 -10.01 22.64 4.28 -0.55 -0.70 24437
0.17 -0.02 3.47 -10.42 23.73 4.28 0.01 -0.73 24452
0.15 -0.01 3.20 -7.91 22.62 4.28 0.50 -0.88 24465
0.05 -0.00 0.53 -4.84 25.00 4.28 0.28 -1.01 24479
0.02 -0.00 1.88 0.07 25.73 4.28 -0.75 -1.14 24494
0.01 -0.00 7.77 10.34 21.63 4.28 -0.92 -1.16 24509
0.00 0.00 0.92 18.25 4.98 3.19 0.06 -1.65 24522
0.01 -0.00 6.55 12.16 21.16 1.28 1.15 -2.46 24538
0.00 0.00 1.47 10.69 14.78 -1.48 1.76 -2.32 24551
0.00 0.00 -0.66 9.45 6.85 -2.87 0.75 -1.90 24565
0.00 0.00 0.75 5.13 5.61 -3.34 -0.01 -1.54 24580
0.00 0.00 1.86 3.28 4.98 -3.28 -0.32 -1.23 24594
0.00 0.00 2.98 3.12 4.45 -3.20 -0.24 -1.03 24608
0.00 0.00 3.41 3.37 5.93 -3.29 0.12 -0.83 24623
0.00 0.00 3.31 3.30 7.64 -3.54 0.65 -0.62 24637
0.00 0.00 2.70 2.65 8.98 -3.95 1.07 -0.37 24651
0.00 0.00 2.22 1.64 10.12 -4.23 1.27 -0.13 24666
0.00 0.00 1.99 -0.06 11.24 -4.28 1.46 0.04 24680
0.00 0.00 1.63 -2.16 12.21 -4.28 1.72 0.15 24694
0.00 0.00 0.99 -4.15 13.59 -4.26 1.95 0.15 24709
0.00 0.00 0.42 -5.94 14.89 -4.15 2.14 0.11 24723
0.00 0.00 -0.03 -7.55 16.38 -3.91 2.19 0.13 24737
0.00 0.00 -0.03 -7.12 17.26 -3.66 2.09 0.30 24752
0.00 0.00 -0.61 -6.63 18.59 -3.52 1.91 0.57 24766
0.00 0.00 -0.43 -7.34 19.61 -3.45 1.78 0.80 24780
0.00 0.00 -0.20 -9.59 19.34 -3.31 1.67 0.87 24795
0.00 0.00 -0.70 -11.18 17.01 -2.93 1.53 0.79 24809
0.00 0.00 -1.16 -11.73 16.05 -2.28 1.25 0.66 24823
0.00 0.00 -1.51 -11.75 17.08 -1.73 0.95 0.56 24838
0.00 0.00 -1.35 -12.47 17.60 -1.52 0.79 0.53 24852
0.00 0.00 0.25 -13.40 15.75 -1.66 1.13 0.52 24866
0.00 0.00 0.01 -14.87 12.84 -2.12 1.96 0.44 24881
0.00 0.00 -1.31 -17.30 10.17 -2.31 2.45 0.41 24895
0.00 0.00 -4.10 -19.26 5.53 -1.95 2.51 0.52 24909
0.00 0.00 -7.25 -20.22 3.83 -1.16 2.31 0.90 24924
0.00 0.00 -8.76 -19.02 4.53 -0.39 1.44 1.29 24938
0.00 0.00 -10.17 -25.36 0.21 0.08 -0.41 1.28 24952
0.00 0.00 -3.59 -12.95 4.57 1.59 -2.66 1.46 24967
-0.00 0.02 -4.88 -19.55 6.67 1.97 -3.57 1.46 24981
-0.01 0.07 0.47 -2.17 1.63 2.29 -0.80 2.22 24995
-0.02 0.38 -14.37 -0.28 17.97 3.34 -0.66 1.74 25011
-0.03 0.65 -8.78 -5.34 18.39 3.72 -1.10 0.16 25025
-0.04 0.71 -1.14 -2.39 17.25 3.21 -0.87 -0.81 25039
-0.04 0.72 3.32 -2.83 14.33 1.55 -2.55 -0.26 25054
-0.04 0.69 -0.30 -1.69 10.80 0.14 -0.35 0.10 25068
-0.00 0.76 0.41 -1.03 9.82 -0.03 -0.01 -0.02 25081
-0.00 0.68 0.28 -0.96 9.82 -0.02 -0.04 -0.02 25096
0.03 0.67 0.44 -0.96 9.20 -0.02 -0.00 -0.04 25110
0.03 0.61 0.36 -0.91 9.82 0.00 -0.01 -0.06 25124
0.05 0.57 0.37 -0.94 10.16 0.01 0.02 -0.05 25139
0.08 0.46 0.29 -0.90 9.82 0.03 0.03 -0.05 25153
0.13 0.38 0.30 -0.87 9.82 0.04 0.05 -0.04 25167
0.14 0.33 0.40 -0.91 9.81 0.05 0.06 -0.04 25182
0.17 0.20 0.44 -0.95 9.79 0.05 0.04 -0.06 25196
0.23 0.13 0.40 -0.93 9.78 0.05 0.03 -0.07 25210
0.22 0.09 0.32 -0.96 9.81 0.05 0.03 -0.07 25225
0.25 0.05 0.34 -0.96 9.80 0.04 0.04 -0.06 25239
0.30 0.01 0.35 -0.94 9.80 0.04 0.04 -0.06 25253
0.31 0.02 0.37 -0.93 9.72 0.03 0.04 -0.06 25268
0.33 -0.01 0.39 -0.99 9.75 0.02 0.04 -0.06 25282
0.33 0.01 0.38 -0.98 9.74 0.02 0.04 -0.06 25296
0.33 0.02 0.35 -0.98 9.80 0.02 0.04 -0.06 25311
0.33 0.00 0.35 -0.99 9.78 0.01 0.04 -0.06 25325
0.35 -0.02 0.37 -0.96 9.75 0.02 0.04 -0.06 25339
0.38 -0.02 0.37 -0.97 9.81 0.01 0.04 -0.06 25354
0.43 -0.01 0.39 -1.01 9.20 0.02 0.04 -0.06 25368
0.42 -0.01 0.35 -1.01 9.78 0.02 0.04 -0.06 25382
0.41 -0.01 0.36 -0.98 9.76 0.00 0.03 -0.06 25397
0.41 -0.01 0.34 -0.97 9.71 -0.01 0.03 -0.06 25411
0.40 -0.02 0.37 -0.98 9.77 -0.02 0.03 -0.06 25425
0.42 -0.02 0.39 -0.98 9.75 -0.01 0.03 -0.06 25440
0.44 -0.03 0.35 -0.99 9.78 -0.00 0.03 -0.06 25454
0.48 -0.03 0.30 -0.97 9.78 0.00 0.04 -0.06 25468
0.50 -0.03 0.33 -1.00 9.81 0.01 0.05 -0.06 25483
0.53 -0.03 0.38 -0.95 9.81 0.01 0.05 -0.07 25497
0.56 -0.02 0.38 -0.98 9.78 0.02 0.05 -0.06 25511
0.57 -0.02 0.41 -1.02 9.80 0.03 0.06 -0.06 25526
0.61 -0.03 0.34 -0.97 9.83 0.04 0.07 -0.07 25540
0.59 -0.04 0.34 -1.00 9.81 0.06 0.10 -0.06 25554
0.59 -0.03 0.40 -1.02 9.88 0.10 0.15 -0.10 25569
0.61 -0.03 0.33 -1.08 9.89 0.21 0.22 -0.07 25583
0.56 -0.03 0.62 -1.14 10.00 0.45 0.28 -0.06 25598
0.47 -0.02 0.48 -1.25 10.23 0.65 0.25 -0.08 25612
0.45 -0.03 0.89 -1.36 11.10 0.87 0.24 -0.14 25627
0.37 -0.02 1.30 -1.54 12.19 1.08 -0.11 -0.25 25641
0.33 -0.02 1.43 -1.82 11.94 1.38 -0.38 -0.39 25656
0.24 -0.02 2.45 -2.61 11.04 1.57 -0.59 -0.54 25670
0.17 -0.01 3.73 -2.98 10.54 1.64 -0.57 -0.88 25684
0.13 -0.01 4.00 -3.62 10.91 1.72 -0.28 -1.35 25698
0.12 -0.01 4.72 -3.07 10.88 1.82 0.05 -1.74 25712
0.07 -0.01 5.64 -2.99 11.51 1.82 0.47 -2.14 25726
0.04 -0.00 4.88 -3.54 12.13 1.74 0.76 -2.47 25741
0.02 -0.00 4.56 -2.55 10.47 1.67 0.82 -2.74 25755
0.03 -0.00 4.18 -1.11 9.76 1.42 0.87 -3.00 25769
0.01 -0.00 3.97 -0.71 8.79 1.09 1.02 -3.24 25784
0.01 -0.00 2.61 1.64 8.17 0.62 1.36 -3.64 25798
0.00 0.00 -0.04 2.64 7.44 0.19 1.54 -4.07 25812
0.00 0.00 -2.04 2.30 7.13 -0.10 1.44 -4.28 25827
0.00 0.00 -1.40 1.12 8.25 -0.34 1.30 -4.28 25841
0.00 0.00 -1.13 1.56 7.78 -0.64 1.10 -4.28 25856
0.00 0.00 -0.88 0.49 7.14 -0.73 0.94 -4.11 25870
0.00 0.00 -0.46 -0.28 7.52 -0.70 0.96 -3.77 25884
0.00 0.00 -0.30 -0.21 8.05 -0.68 1.09 -3.48 25899
0.00 0.00 -0.82 0.11 8.65 -0.69 1.30 -3.24 25913
0.00 0.00 -1.44 0.32 9.42 -0.75 1.42 -3.04 25927
0.00 0.00 -1.92 0.44 9.89 -0.81 1.46 -2.88 25942
0.00 0.00 -2.35 0.54 10.09 -0.87 1.49 -2.74 25956
0.00 0.00 -3.07 0.51 10.52 -0.89 1.55 -2.60 25970
0.00 0.00 -4.00 0.44 10.92 -0.91 1.52 -2.49 25985
0.00 0.00 -4.50 0.33 11.11 -0.92 1.37 -2.40 25999
0.00 0.00 -4.30 0.32 11.19 -0.94 1.18 -2.35 26013
0.00 0.00 -3.99 0.30 10.78 -0.95 1.12 -2.37 26028
0.00 0.00 -4.84 0.30 11.01 -0.93 1.34 -2.35 26042
0.00 0.00 -6.25 0.16 11.32 -0.92 1.31 -2.30 26056
0.00 0.00 -6.96 0.00 11.49 -0.90 1.03 -2.23 26071
0.00 0.00 -6.78 -0.06 11.37 -0.83 0.70 -2.16 26085
0.00 0.00 -6.31 -0.13 11.31 -0.76 0.43 -2.13 26099
0.00 0.00 -5.74 -0.47 11.02 -0.68 0.21 -2.16 26114
0.00 0.00 -4.74 -1.09 10.51 -0.62 -0.01 -2.33 26128
0.00 0.00 -2.75 -1.42 10.77 -0.59 -0.17 -2.67 26142
0.00 0.00 -1.96 -1.32 10.85 -0.63 0.22 -3.03 26157
0.00 0.00 -2.06 -1.60 10.61 -0.75 0.54 -3.31 26171
0.00 0.00 -2.14 -2.40 10.11 -0.79 0.52 -3.52 26185
0.00 0.00 -2.05 -3.02 9.65 -0.73 0.50 -3.65 26200
0.00 0.00 -1.96 -3.36 8.94 -0.62 0.52 -3.80 26214
0.00 0.00 -2.48 -3.35 8.71 -0.48 0.59 -3.86 26228
0.00 0.00 -2.84 -3.36 8.75 -0.35 0.48 -3.88 26243
0.00 0.00 -2.58 -3.60 8.85 -0.25 0.23 -3.81 26257
0.00 0.00 -1.51 -3.65 9.10 -0.24 0.05 -3.66 26271
0.00 0.00 -1.24 -3.33 8.29 -0.26 0.04 -3.32 26286
0.00 0.00 -1.08 -3.30 7.90 -0.16 -0.12 -2.79 26300
0.00 0.00 -3.49 -5.85 29.00 0.51 -0.09 -2.01 26314
0.00 0.00 4.33 -3.11 5.40 0.65 0.04 -1.45 26329
0.00 0.00 3.86 1.13 7.44 0.87 1.00 -0.83 26343
0.00 0.00 10.30 1.64 23.58 1.34 0.11 -0.35 26358
0.00 0.00 8.71 -1.22 36.11 1.08 -0.43 0.02 26372
-0.00 0.06 0.33 -2.50 15.61 -0.56 0.22 0.05 26386
0.02 0.15 0.32 -0.67 10.15 -0.23 0.13 -0.04 26400
0.00 0.32 0.33 -0.87 9.99 -0.15 0.02 -0.05 26415
-0.01 0.35 0.20 -0.76 9.89 -0.08 0.04 -0.06 26429
-0.00 0.39 0.34 -0.78 9.82 -0.05 0.05 -0.06 26443
-0.01 0.43 0.37 -0.80 9.78 -0.05 0.05 -0.06 26458
-0.00 0.45 0.35 -0.75 9.83 -0.06 0.05 -0.05 26472
-0.01 0.50 0.33 -0.78 9.80 -0.07 0.06 -0.04 26486
-0.01 0.55 0.37 -0.78 9.82 -0.07 0.06 -0.05 26501
-0.00 0.62 0.34 -0.76 9.81 -0.06 0.05 -0.06 26515
-0.00 0.62 0.35 -0.75 9.80 -0.05 0.05 -0.05 26529
-0.00 0.67 0.33 -0.72 9.81 -0.05 0.04 -0.06 26544
-0.01 0.78 0.34 -0.73 9.81 -0.04 0.03 -0.06 26558
-0.02 0.85 0.35 -0.70 9.82 -0.03 0.03 -0.06 26572
-0.01 0.78 0.31 -0.70 9.84 -0.02 0.03 -0.06 26587
-0.02 0.79 0.33 -0.70 9.80 -0.02 0.04 -0.06 26601
-0.01 0.77 0.35 -0.72 9.80 -0.01 0.04 -0.06 26615
-0.01 0.75 0.37 -0.75 9.83 -0.01 0.04 -0.06 26630
-0.02 0.76 0.39 -0.70 9.80 -0.01 0.04 -0.06 26644
-0.02 0.74 0.35 -0.70 9.80 -0.01 0.03 -0.06 26658
-0.02 0.74 0.33 -0.72 9.75 -0.01 0.04 -0.06 26673
-0.02 0.74 0.34 -0.70 9.81 -0.02 0.04 -0.06 26687
-0.02 0.73 0.34 -0.71 9.80 -0.01 0.04 -0.06 26701
-0.03 0.72 0.35 -0.70 9.77 -0.01 0.04 -0.06 26716
-0.03 0.69 0.34 -0.72 9.80 -0.01 0.05 -0.06 26730
-0.03 0.72 0.38 -0.71 9.80 -0.01 0.04 -0.06 26744
-0.02 0.71 0.35 -0.71 9.79 -0.00 0.04 -0.06 26759
-0.01 0.72 0.36 -0.69 10.41 -0.00 0.04 -0.06 26773
-0.02 0.71 0.32 -0.68 9.78 -0.01 0.05 -0.06 26787
-0.01 0.68 0.37 -0.71 9.79 -0.00 0.05 -0.06 26802
-0.01 0.67 0.38 -0.67 9.79 -0.00 0.05 -0.06 26816
-0.00 0.68 0.34 -0.70 9.77 0.00 0.04 -0.06 26830
0.01 0.66 0.34 -0.69 9.80 0.00 0.05 -0.06 26845
-0.00 0.63 0.37 -0.74 9.74 0.00 0.05 -0.06 26859
0.00 0.63 0.34 -0.78 9.82 0.00 0.06 -0.05 26873
0.01 0.61 0.35 -0.69 9.81 0.00 0.06 -0.06 26888
0.01 0.63 0.38 -0.70 9.73 0.00 0.06 -0.05 26902
0.02 0.59 0.34 -0.68 9.79 0.00 0.06 -0.06 26916
0.05 0.54 0.38 -0.69 9.73 0.01 0.06 -0.05 26931
0.08 0.47 0.38 -0.68 9.81 0.02 0.05 -0.06 26945
0.07 0.49 0.36 -0.72 9.79 0.02 0.05 -0.06 26959
0.09 0.43 0.36 -0.69 9.74 0.03 0.05 -0.06 26974
0.12 0.35 0.34 -0.74 9.81 0.04 0.05 -0.06 26988
0.15 0.29 0.40 -0.71 9.79 0.05 0.06 -0.06 27002
0.17 0.16 0.44 -0.78 9.79 0.06 0.06 -0.06 27017
0.20 0.05 0.48 -0.74 9.22 0.07 0.06 -0.06 27031
0.22 0.00 0.42 -0.75 9.87 0.08 0.06 -0.07 27045
0.29 -0.01 0.41 -0.75 9.86 0.11 0.08 -0.08 27060
0.36 -0.02 0.50 -0.92 9.97 0.16 0.15 -0.13 27074
0.39 -0.02 1.04 -0.86 10.16 0.31 0.38 -0.16 27089
0.48 -0.03 0.60 -1.00 11.09 1.04 0.61 -0.15 27103
0.47 -0.03 0.51 -1.04 12.27 1.60 0.70 -0.16 27117
0.42 -0.03 1.42 -1.74 13.35 1.85 0.38 -0.23 27132
0.31 -0.02 0.86 -1.75 12.91 2.27 0.36 -0.28 27147
0.21 -0.02 0.68 -1.86 13.30 2.63 0.54 -0.29 27161
0.12 -0.01 0.73 -2.31 13.82 3.01 0.86 -0.25 27174
0.06 -0.01 0.30 -2.90 14.80 3.42 1.34 -0.16 27189
0.08 -0.01 0.49 -4.11 15.74 3.74 1.62 0.01 27203
0.07 -0.01 0.94 -4.62 16.03 3.83 1.99 0.22 27217
0.02 -0.00 0.63 -4.87 15.93 3.93 1.96 0.27 27232
0.05 -0.00 4.49 -5.98 17.52 4.04 2.16 0.31 27246
0.04 -0.00 6.39 -4.69 19.32 3.98 3.47 0.20 27260
0.03 -0.00 1.86 -2.83 16.31 3.65 4.27 -0.10 27275
0.00 0.00 -1.36 4.34 11.11 2.97 4.27 -0.37 27289
0.00 0.00 -4.96 21.62 9.49 1.21 3.16 -1.10 27303
0.00 0.00 -7.80 9.15 18.12 -0.58 0.95 -3.16 27318
0.00 0.00 -4.92 10.60 11.82 -2.05 0.91 -3.93 27332
0.00 0.00 -4.52 9.17 8.09 -2.54 0.93 -4.28 27346
0.00 0.00 -4.62 7.27 8.69 -2.69 0.95 -4.28 27361
0.00 0.00 -5.00 6.74 9.51 -2.80 0.72 -4.26 27375
0.00 0.00 -5.28 5.91 9.98 -2.99 0.30 -3.67 27389
0.00 0.00 -4.75 5.02 10.66 -3.21 -0.07 -2.88 27404
0.00 0.00 -3.65 4.40 11.50 -3.41 -0.30 -2.12 27418
0.00 0.00 -2.74 3.77 12.42 -3.66 -0.26 -1.45 27432
0.00 0.00 -1.91 2.64 13.39 -3.96 -0.19 -1.06 27447
0.00 0.00 -2.51 0.65 14.39 -4.14 -0.10 -0.88 27461
-0.00 0.00 -2.17 -1.25 15.03 -4.15 0.06 -0.85 27475
0.00 0.00 -2.21 -2.79 15.63 -4.03 0.28 -0.90 27490
0.00 0.00 -2.75 -3.51 15.29 -3.81 0.43 -0.95 27504
0.00 0.00 -3.46 -4.49 15.26 -3.47 0.27 -0.92 27518
0.00 0.00 -3.70 -5.78 15.52 -2.94 -0.05 -0.81 27533
0.00 0.00 -3.27 -6.77 16.51 -2.55 -0.40 -0.67 27547
0.00 0.00 -1.57 -7.78 18.38 -2.49 -0.57 -0.65 27561
0.00 0.00 1.15 -9.29 18.21 -2.75 -0.29 -0.81 27576
0.00 0.00 2.79 -10.83 16.48 -3.03 0.36 -0.99 27590
0.00 0.00 2.54 -12.54 13.97 -2.96 0.95 -1.08 27604
0.00 0.00 0.54 -13.77 11.23 -2.70 1.26 -0.96 27619
0.00 0.00 -1.74 -15.27 9.81 -2.33 1.16 -0.60 27633
0.00 0.00 -3.05 -16.94 7.94 -1.96 0.70 -0.19 27648
0.00 0.00 -2.34 -18.44 6.49 -1.61 0.25 0.12 27662
0.00 0.00 -1.51 -19.64 5.32 -1.26 -0.11 0.16 27676
0.00 0.00 -0.91 -20.10 3.74 -0.70 -0.29 -0.06 27691
0.00 0.00 -1.41 -20.22 6.52 1.28 0.55 -0.25 27705
-0.00 0.01 -3.09 -22.64 4.70 2.46 0.08 -0.31 27719
-0.01 0.07 1.19 5.54 7.07 2.64 0.13 -0.30 27734
-0.01 0.14 5.51 0.43 15.44 2.71 0.06 -0.11 27748
-0.03 0.49 -1.70 -3.04 15.37 3.04 -0.73 -0.45 27763
-0.03 0.63 1.61 -3.08 17.81 2.90 -0.69 -0.51 27778
-0.03 0.61 0.87 -1.52 14.35 2.16 -0.52 -0.52 27792
-0.04 0.70 -0.61 -1.57 12.75 1.01 -1.26 -0.33 27806
-0.04 0.78 0.33 -1.40 10.02 -0.03 -0.13 0.01 27820
-0.03 0.80 0.15 -0.77 9.92 -0.03 -0.00 -0.05 27834
-0.02 0.82 0.45 -0.84 9.88 -0.04 -0.01 -0.05 27848
-0.01 0.86 0.39 -0.75 9.83 -0.03 0.02 -0.06 27863
-0.04 0.87 0.42 -0.74 9.84 -0.02 0.02 -0.06 27877
-0.01 0.83 0.41 -0.71 9.82 -0.01 0.03 -0.06 27891
-0.01 0.80 0.38 -0.68 9.81 -0.01 0.03 -0.06 27906
0.01 0.80 0.41 -0.66 9.81 -0.00 0.04 -0.07 27920
0.01 0.76 0.32 -0.68 9.79 -0.00 0.04 -0.07 27934
0.01 0.70 0.35 -0.67 9.78 0.00 0.04 -0.06 27949
-0.00 0.66 0.41 -0.68 9.78 0.00 0.04 -0.06 27963
-0.00 0.61 0.38 -0.66 9.77 0.01 0.04 -0.07 27977
-0.02 0.56 0.40 -0.71 9.76 0.00 0.03 -0.07 27992
-0.00 0.52 0.40 -0.71 9.81 0.00 0.03 -0.07 28006
-0.00 0.54 0.39 -0.69 9.79 -0.00 0.03 -0.08 28020
0.00 0.48 0.35 -0.72 9.81 -0.00 0.04 -0.07 28035
-0.01 0.45 0.36 -0.68 9.82 -0.00 0.04 -0.08 28049
0.03 0.41 0.37 -0.68 9.74 0.01 0.04 -0.07 28063
0.02 0.37 0.37 -0.72 9.76 0.01 0.04 -0.08 28078
0.03 0.39 0.36 -0.69 9.81 0.01 0.04 -0.08 28092
0.04 0.28 0.39 -0.71 9.81 0.01 0.03 -0.08 28106
0.05 0.23 0.35 -0.74 9.80 0.01 0.04 -0.08 28121
0.06 0.22 0.40 -0.74 9.77 0.01 0.04 -0.08 28135
0.11 0.16 0.37 -0.72 9.76 0.02 0.04 -0.08 28149
0.16 0.13 0.37 -0.70 9.78 0.03 0.05 -0.09 28164
0.15 0.06 0.42 -0.72 9.81 0.03 0.05 -0.09 28178
0.19 0.03 0.39 -0.70 9.81 0.04 0.05 -0.09 28192
0.20 0.01 0.44 -0.76 9.78 0.05 0.05 -0.09 28207
0.25 -0.00 0.37 -0.77 9.83 0.07 0.05 -0.09 28221
0.40 -0.03 0.38 -0.77 9.97 0.10 0.07 -0.10 28235
0.54 -0.03 0.33 -0.85 9.96 0.16 0.12 -0.11 28250
0.60 -0.04 0.76 -0.76 10.21 0.24 0.19 -0.16 28265
0.80 -0.04 0.29 -1.00 11.25 1.14 0.55 -0.17 28279
0.98 -0.04 1.01 -1.36 12.65 1.86 0.39 -0.21 28294
1.13 -0.05 0.96 -1.32 13.00 2.00 0.00 -0.26 28307
1.15 -0.04 0.40 -1.48 13.78 2.42 -0.13 -0.25 28322
1.23 -0.05 0.50 -2.04 12.72 2.86 -0.28 -0.25 28337
1.23 -0.05 0.70 -2.28 12.99 3.23 -0.33 -0.24 28351
1.18 -0.04 0.13 -2.62 13.54 3.73 -0.24 -0.24 28365
0.98 -0.03 0.51 -3.41 15.10 4.25 -0.24 -0.20 28380
0.63 -0.03 1.55 -4.34 17.73 4.28 -0.43 -0.31 28394
0.25 -0.02 1.31 -7.80 21.43 4.28 -0.74 -0.44 28408
0.20 -0.01 1.71 -10.47 26.51 4.28 -0.81 -0.50 28423
0.11 -0.01 3.50 -11.11 23.12 4.28 -0.46 -0.55 28437
0.03 -0.00 -0.20 -4.74 24.98 4.28 -0.17 -0.64 28450
0.05 -0.01 -0.54 -3.77 29.14 4.28 -0.79 -0.67 28465
0.02 -0.00 4.14 4.37 28.93 4.28 -1.68 -0.70 28479
0.00 0.00 10.35 14.74 10.68 4.26 -0.96 -0.70 28493
0.00 0.00 6.03 21.66 2.47 2.64 -0.40 -1.77 28508
0.00 0.00 4.54 12.25 24.19 -0.56 1.08 -1.84 28522
0.00 0.00 0.46 14.18 11.87 -2.42 0.78 -1.60 28536
0.00 0.00 1.59 9.34 6.96 -3.52 0.01 -1.34 28551
0.00 0.00 2.28 5.82 8.56 -3.72 -0.27 -1.14 28565
0.00 0.00 3.56 4.83 8.27 -3.80 -0.19 -1.02 28579
0.00 0.00 3.94 3.96 8.50 -4.04 0.14 -0.96 28594
0.00 0.00 3.73 3.02 9.61 -4.23 0.56 -0.83 28608
0.00 0.00 3.56 1.32 10.36 -4.28 0.89 -0.62 28622
-0.00 0.00 3.23 -0.19 11.20 -4.28 1.06 -0.34 28637
0.00 0.00 3.17 -1.24 12.77 -4.28 1.09 -0.06 28651
0.00 0.00 3.62 -2.70 13.89 -4.28 1.30 0.18 28665
0.00 0.00 3.56 -4.31 15.19 -4.28 1.62 0.30 28680
0.00 0.00 2.91 -6.85 17.13 -4.28 2.04 0.37 28694
0.00 0.00 2.40 -7.70 16.56 -4.23 2.23 0.47 28708
0.00 0.00 1.25 -9.20 16.67 -3.86 2.25 0.67 28723
0.00 0.00 0.36 -8.46 17.47 -3.32 1.97 0.83 28737
-0.00 0.01 1.10 -7.43 19.92 -3.12 1.72 0.93 28751
0.00 0.00 1.77 -8.32 20.41 -3.30 1.71 0.91 28766
-0.00 0.00 1.43 -9.90 20.11 -3.42 1.73 0.86 28780
0.00 0.00 0.57 -10.92 20.21 -3.40 1.54 0.87 28794
0.00 0.00 -0.05 -11.68 20.21 -3.39 1.59 1.03 28809
0.00 0.00 -1.44 -14.72 18.94 -3.40 1.76 1.35 28823
0.00 0.00 -3.86 -18.24 14.58 -3.24 1.79 1.69 28837
0.00 0.00 -6.08 -24.09 11.18 -2.83 1.70 1.90 28852
0.00 0.00 -5.48 -28.99 5.61 -2.15 1.06 1.60 28866
0.00 0.00 -5.42 -31.85 1.63 -1.17 1.06 1.04 28880
0.00 0.00 -6.68 -30.33 2.22 -0.04 1.06 0.43 28895
0.00 0.00 -6.45 -23.83 5.62 0.92 0.22 -0.11 28909
0.00 0.00 -9.18 -22.08 10.67 3.26 -2.51 0.38 28923
-0.00 0.03 3.81 -2.04 1.22 3.42 -3.35 0.44 28938
-0.01 0.11 5.76 6.60 14.46 3.13 -0.84 1.51 28952
-0.03 0.42 -9.19 -5.41 20.19 3.69 -0.20 1.56 28967
-0.04 0.65 -6.55 -5.32 20.36 3.96 -0.98 0.28 28982
-0.04 0.81 -3.02 -2.34 19.83 2.84 -0.77 -0.59 28996
-0.04 0.80 3.85 -2.38 15.36 2.52 -0.30 -0.58 29010
-0.04 0.90 1.21 -2.46 11.82 0.24 -0.74 -0.02 29025
-0.05 0.89 -0.15 -0.92 9.94 -0.02 -0.09 -0.03 29038
-0.05 0.93 0.56 -1.03 9.87 -0.02 -0.02 -0.06 29052
-0.01 0.92 0.19 -0.80 9.88 -0.03 -0.00 -0.06 29067
-0.03 0.89 2.86 -1.40 9.00 -0.03 0.02 -0.07 29081
-0.03 0.90 0.33 -0.65 9.80 -0.01 0.02 -0.06 29095
-0.03 0.82 0.33 -0.68 9.80 0.00 0.02 -0.07 29110
-0.01 0.73 0.28 -0.68 9.82 0.02 0.02 -0.07 29124
0.00 0.65 0.31 -0.73 9.81 0.02 0.03 -0.07 29138
0.02 0.53 0.30 -0.70 9.82 0.03 0.04 -0.06 29153
0.01 0.44 0.29 -0.69 9.80 0.03 0.04 -0.06 29167
0.02 0.39 0.30 -0.76 9.78 0.03 0.05 -0.07 29181
0.07 0.32 0.41 -0.71 9.74 0.03 0.04 -0.08 29196
0.08 0.27 0.37 -0.75 9.79 0.04 0.03 -0.09 29210
0.13 0.20 0.28 -0.72 9.78 0.03 0.03 -0.08 29224
0.12 0.10 0.30 -0.78 9.79 0.03 0.03 -0.08 29239
0.15 0.07 0.31 -0.74 9.80 0.03 0.04 -0.08 29253
0.18 0.04 0.29 -0.79 9.80 0.03 0.03 -0.08 29267
0.18 0.01 0.34 -0.84 9.81 0.04 0.03 -0.08 29282
0.19 0.02 0.30 -0.78 9.79 0.04 0.03 -0.08 29296
0.24 0.04 0.31 -0.81 9.81 0.04 0.04 -0.09 29310
0.30 -0.02 0.30 -0.81 9.83 0.05 0.05 -0.08 29325
0.41 -0.03 0.30 -0.76 9.84 0.06 0.06 -0.09 29339
0.46 -0.01 0.29 -0.86 9.83 0.09 0.07 -0.09 29353
0.57 -0.04 0.43 -0.95 9.90 0.11 0.09 -0.09 29368
0.66 -0.03 0.30 -0.82 10.05 0.20 0.14 -0.10 29382
0.76 -0.03 0.15 -0.72 11.12 0.64 0.31 -0.09 29398
0.92 -0.04 0.77 -1.20 11.05 1.29 0.42 -0.11 29412
0.95 -0.03 0.42 -1.45 12.05 1.44 0.15 -0.18 29426
1.07 -0.04 0.67 -1.59 12.22 1.73 -0.06 -0.21 29441
1.15 -0.04 0.44 -1.68 12.62 2.09 -0.13 -0.20 29455
1.18 -0.04 0.19 -1.92 12.82 2.58 -0.20 -0.19 29469
1.19 -0.04 0.43 -2.13 13.12 3.00 -0.21 -0.20 29484
1.13 -0.04 0.05 -2.55 13.87 3.51 -0.11 -0.18 29498
0.97 -0.04 0.84 -3.03 15.90 4.22 -0.06 -0.17 29512
0.57 -0.02 1.62 -3.87 17.60 4.28 -0.14 -0.34 29527
0.35 -0.02 0.72 -7.28 22.41 4.28 -0.25 -0.43 29541
0.26 -0.02 1.76 -10.98 29.27 4.28 -0.08 -0.41 29555
0.12 -0.01 2.91 -9.71 26.36 4.28 0.78 -0.33 29570
0.07 -0.01 -0.50 -5.70 31.65 4.28 1.22 -0.44 29583
0.05 -0.00 2.27 -1.77 31.92 4.28 -0.04 -0.77 29597
0.01 -0.00 6.49 18.58 22.75 4.28 -0.70 -0.87 29612
0.00 0.00 5.70 22.85 -4.87 3.31 0.16 -1.59 29626
0.00 0.00 7.56 15.48 24.85 0.87 0.49 -2.21 29640
0.00 0.00 2.73 13.77 15.29 -1.44 1.24 -2.04 29655
0.00 0.00 1.28 13.37 7.65 -2.49 0.58 -1.81 29669
0.00 0.00 1.77 8.36 7.54 -2.87 -0.02 -1.72 29683
0.00 0.00 2.69 6.69 7.40 -3.09 -0.02 -1.58 29698
0.00 0.00 3.09 6.00 7.30 -3.44 0.41 -1.42 29712
0.00 0.00 2.36 5.05 8.31 -3.79 0.83 -1.21 29726
0.00 0.00 1.65 3.55 9.96 -4.06 1.17 -0.95 29741
0.00 0.00 0.91 2.31 10.62 -4.21 1.50 -0.68 29755
0.00 0.00 0.30 1.21 11.91 -4.28 1.57 -0.44 29769
0.00 -0.00 -0.12 -0.15 13.55 -4.28 1.71 -0.25 29784
0.00 0.00 -0.77 -1.62 15.15 -4.28 1.92 -0.16 29798
0.00 0.00 -1.63 -3.18 16.58 -4.28 2.15 -0.26 29812
0.00 0.00 -2.26 -4.36 17.57 -4.28 2.34 -0.44 29827
0.00 -0.00 -2.94 -5.26 18.71 -4.27 2.42 -0.55 29841
0.00 0.00 -3.99 -5.87 19.34 -4.17 2.51 -0.52 29855
0.00 -0.00 -4.91 -6.02 19.63 -3.90 2.44 -0.33 29870
0.00 0.00 -5.30 -6.21 20.48 -3.59 2.24 -0.07 29884
0.00 0.00 -5.41 -6.62 21.36 -3.45 1.99 0.14 29898
0.00 -0.00 -4.98 -8.34 21.48 -3.45 1.50 0.36 29913
0.00 -0.00 -4.18 -10.85 21.16 -3.32 0.99 0.67 29928
0.00 -0.00 -3.93 -14.70 20.14 -3.15 0.89 0.97 29941
0.00 -0.00 -4.56 -19.62 17.87 -3.09 1.21 1.17 29957
0.01 -0.00 -5.23 -25.57 13.06 -3.11 1.25 1.12 29971
0.00 0.00 -6.05 -31.36 5.16 -2.74 1.23 0.82 29984
0.00 0.00 -7.27 -35.28 -0.15 -1.63 1.23 0.42 29999
0.00 0.00 -12.21 -48.18 -14.54 -0.19 0.46 -0.02 30013
0.00 0.00 -8.11 -25.93 1.17 2.61 -1.89 -0.30 30027
-0.01 0.06 -2.22 -17.31 6.17 3.32 -3.75 -0.53 30042
-0.02 0.15 6.77 2.29 21.53 3.62 -1.23 0.45 30056
-0.03 0.56 -5.74 -2.97 21.52 3.85 -1.05 0.56 30071
-0.05 0.77 -2.78 -5.22 22.66 3.64 -1.09 0.03 30086
-0.04 0.75 -0.21 -1.74 16.77 2.48 -0.93 -0.42 30100
-0.04 0.76 3.73 -1.67 21.50 2.52 -0.64 -0.21 30114
-0.04 0.78 -0.00 -2.31 12.58 0.34 -0.64 -0.00 30128
-0.05 0.82 -0.08 -1.04 9.88 -0.02 -0.09 -0.03 30142
-0.05 0.88 0.43 -0.97 9.87 -0.02 -0.04 -0.05 30156
0.00 0.86 0.28 -0.76 9.87 -0.02 -0.01 -0.05 30171
0.01 0.91 0.35 -0.69 9.81 -0.01 0.02 -0.05 30185
-0.01 0.85 0.31 -0.67 9.81 0.01 0.03 -0.05 30199
-0.00 0.75 0.78 -0.21 12.63 0.02 0.04 -0.05 30214
0.01 0.65 0.31 -0.69 9.82 0.02 0.04 -0.05 30228
0.02 0.55 0.34 -0.73 9.81 0.03 0.04 -0.05 30242
0.07 0.47 0.32 -0.70 9.78 0.03 0.05 -0.05 30257
0.08 0.41 0.35 -0.75 9.80 0.03 0.05 -0.06 30271
0.10 0.30 0.33 -0.73 9.79 0.03 0.05 -0.06 30285
0.11 0.25 0.40 -0.75 9.79 0.04 0.05 -0.06 30300
0.09 0.14 0.35 -0.74 9.80 0.04 0.04 -0.06 30314
0.08 0.07 0.34 -0.76 9.80 0.04 0.04 -0.06 30328
0.11 0.07 0.35 -0.75 9.80 0.04 0.05 -0.06 30343
0.14 0.04 0.38 -0.78 9.78 0.03 0.04 -0.06 30357
0.15 0.01 0.35 -0.79 9.79 0.03 0.04 -0.06 30371
0.15 0.00 0.36 -0.77 9.78 0.03 0.04 -0.06 30386
0.22 -0.01 0.40 -0.80 9.81 0.03 0.04 -0.07 30400
0.23 0.00 0.34 -0.79 9.79 0.03 0.04 -0.07 30414
0.28 -0.02 0.37 -0.80 9.20 0.04 0.05 -0.07 30429
0.36 -0.02 0.31 -0.82 9.80 0.04 0.06 -0.07 30443
0.37 -0.02 0.34 -0.83 9.78 0.06 0.06 -0.07 30457
0.40 -0.02 0.46 -0.86 9.93 0.07 0.07 -0.07 30472
0.51 -0.02 0.39 -0.82 9.86 0.11 0.08 -0.08 30486
0.61 -0.03 0.43 -0.94 9.96 0.17 0.11 -0.11 30500
0.74 -0.04 0.32 -0.94 10.49 0.43 0.21 -0.12 30516
0.82 -0.03 0.57 -1.18 10.80 1.25 0.35 -0.13 30530
1.01 -0.05 1.05 -1.32 12.12 1.49 0.06 -0.18 30544
1.13 -0.05 0.55 -1.45 12.59 1.77 -0.10 -0.21 30559
1.20 -0.05 0.52 -1.63 12.98 2.18 -0.14 -0.21 30573
1.22 -0.04 0.45 -1.98 12.89 2.69 -0.21 -0.20 30587
1.18 -0.04 0.36 -2.14 12.87 3.17 -0.21 -0.20 30602
1.14 -0.05 0.26 -2.67 13.52 3.66 -0.06 -0.21 30616
0.97 -0.02 0.38 -3.23 15.93 4.24 0.03 -0.17 30630
0.67 -0.03 1.88 -3.94 17.85 4.28 -0.02 -0.31 30645
0.34 -0.02 1.49 -7.14 21.50 4.28 -0.19 -0.46 30659
0.22 -0.01 1.70 -11.98 29.56 4.28 -0.08 -0.44 30673
0.14 -0.01 1.99 -10.88 27.99 4.28 0.60 -0.46 30688
0.03 -0.00 0.40 -4.56 29.25 4.28 1.10 -0.53 30701
0.05 -0.00 0.72 -2.00 31.67 4.28 0.32 -0.76 30715
0.04 -0.00 4.55 9.25 29.97 4.28 -0.41 -0.84 30730
0.00 0.00 8.82 20.30 8.07 3.99 0.59 -1.06 30744
0.00 0.00 3.46 19.43 21.26 2.20 1.25 -2.55 30758
0.00 0.00 1.74 15.14 21.52 -1.48 1.90 -2.64 30773
0.00 0.00 -1.16 13.84 10.44 -3.15 0.85 -2.22 30787
0.00 0.00 0.47 7.86 9.15 -3.90 -0.05 -1.89 30801
0.00 0.00 1.61 5.06 7.34 -3.91 -0.25 -1.59 30816
0.00 0.00 2.68 4.56 6.98 -3.94 0.02 -1.34 30830
0.00 0.00 2.45 4.29 8.41 -4.14 0.52 -1.14 30844
0.00 0.00 1.85 3.12 9.82 -4.27 0.91 -0.91 30859
0.00 0.00 1.06 1.74 10.53 -4.28 1.21 -0.62 30873
0.00 0.00 0.59 0.69 11.73 -4.28 1.37 -0.35 30887
0.00 0.00 0.43 -0.52 13.62 -4.28 1.52 -0.16 30902
0.00 0.00 -0.00 -1.83 14.88 -4.28 1.77 -0.15 30916
0.00 0.00 -0.92 -3.64 15.92 -4.28 2.00 -0.29 30930
0.00 0.00 -1.23 -5.09 16.69 -4.28 2.32 -0.49 30945
0.00 0.00 -1.68 -6.23 17.79 -4.24 2.64 -0.70 30959
0.00 0.00 -3.10 -6.72 19.03 -3.94 2.83 -0.64 30973
0.00 0.00 -4.08 -6.43 21.68 -3.67 2.64 -0.41 30988
0.00 0.00 -3.82 -6.85 22.93 -3.79 2.14 -0.11 31002
0.00 0.00 -2.53 -8.03 22.30 -4.03 1.65 0.17 31016
0.00 0.00 -1.12 -10.09 21.02 -4.07 1.36 0.43 31031
0.00 0.00 -0.10 -12.38 20.35 -3.83 1.28 0.68 31045
0.00 0.00 -0.25 -15.20 19.37 -3.38 1.36 1.04 31059
0.00 0.00 -1.39 -19.29 16.33 -2.95 1.48 1.47 31074
0.00 0.00 -3.50 -23.99 12.23 -2.61 1.88 1.92 31088
0.00 0.00 -6.32 -31.56 6.25 -2.24 1.77 1.93 31102
0.00 0.00 -7.70 -35.88 0.74 -1.44 1.49 1.61 31117
0.01 -0.00 -7.59 -32.01 0.40 0.00 0.88 0.93 31131
0.00 -0.00 -6.09 -23.19 6.07 1.26 -0.17 0.13 31145
0.00 0.00 -11.91 -17.80 13.88 3.53 -2.69 0.49 31160
-0.00 0.02 4.22 2.71 1.38 3.07 -3.27 0.53 31174
0.01 0.18 3.97 5.70 11.91 2.97 -0.03 1.83 31190
-0.03 0.55 -13.97 -6.59 20.62 3.85 -0.56 1.38 31204
-0.05 0.82 -6.12 -3.61 24.07 3.85 -0.75 -0.02 31218
-0.05 0.83 -0.07 -1.20 14.63 2.33 -0.57 -0.75 31233
-0.05 0.83 3.37 -1.34 13.82 2.45 -0.49 -0.44 31247
-0.05 0.87 0.80 -1.69 12.39 0.83 -1.69 -0.07 31261
-0.05 0.84 -0.37 -1.01 10.15 0.07 -0.35 -0.03 31276
-0.05 0.90 0.37 -0.96 9.92 -0.01 -0.06 -0.05 31289
-0.06 0.91 0.19 -0.77 9.86 -0.01 -0.03 -0.05 31303
-0.05 0.90 -0.97 -0.34 9.04 0.00 0.00 -0.06 31318
0.01 0.79 0.26 -0.61 9.82 0.01 0.02 -0.06 31332
-0.03 0.70 0.23 -0.68 9.81 0.01 0.03 -0.05 31346
-0.00 0.60 0.21 -0.66 9.82 0.02 0.03 -0.05 31361
0.00 0.53 0.19 -0.67 9.79 0.03 0.04 -0.05 31375
0.03 0.43 0.23 -0.63 9.80 0.04 0.04 -0.05 31389
0.07 0.37 0.26 -0.65 9.82 0.04 0.04 -0.06 31404
0.08 0.29 0.26 -0.68 9.76 0.04 0.04 -0.07 31418
0.13 0.17 0.21 -0.71 9.80 0.03 0.05 -0.07 31432
0.13 0.13 0.23 -0.72 9.78 0.03 0.05 -0.07 31447
0.15 0.08 0.23 -0.70 9.80 0.04 0.05 -0.07 31461
0.18 0.07 0.22 -0.72 9.79 0.04 0.05 -0.07 31475
0.19 0.05 0.26 -0.77 9.79 0.00 0.05 -0.06 31490
0.21 0.01 0.27 -0.72 9.78 0.02 0.05 -0.07 31504
0.23 0.01 0.26 -0.76 9.79 0.02 0.04 -0.07 31518
0.25 -0.01 0.22 -0.74 9.74 0.01 0.04 -0.07 31533
0.26 -0.02 0.25 -0.74 9.78 0.02 0.04 -0.07 31547
0.35 -0.02 0.26 -0.73 9.82 0.03 0.05 -0.07 31561
0.39 -0.02 0.24 -0.72 9.82 0.04 0.05 -0.07 31576
0.43 -0.02 0.32 -0.76 9.82 0.05 0.06 -0.07 31590
0.50 -0.03 0.32 -0.74 9.88 0.08 0.07 -0.09 31604
0.63 -0.03 0.54 -0.91 9.81 0.12 0.09 -0.11 31619
0.74 -0.04 0.26 -0.81 10.08 0.26 0.17 -0.10 31633
0.85 -0.03 0.34 -1.03 10.72 0.87 0.37 -0.11 31648
0.95 -0.04 0.52 -1.31 12.08 1.42 0.39 -0.16 31663
1.04 -0.05 0.51 -1.32 12.21 1.59 0.05 -0.21 31677
1.12 -0.04 0.40 -1.47 12.24 1.87 -0.15 -0.20 31691
1.20 -0.05 0.28 -1.95 13.02 2.30 -0.21 -0.19 31706
1.25 -0.05 0.44 -1.96 12.70 2.79 -0.26 -0.19 31720
1.24 -0.05 0.17 -2.45 13.13 3.20 -0.21 -0.20 31734
1.22 -0.05 -0.03 -2.59 14.84 3.90 -0.12 -0.18 31749
0.99 -0.04 1.23 -3.37 15.52 4.28 -0.11 -0.21 31763
0.56 -0.03 1.37 -4.62 18.76 4.28 -0.19 -0.43 31777
0.27 -0.02 1.18 -8.78 24.33 4.28 -0.30 -0.52 31792
0.15 -0.01 3.59 -12.16 30.30 4.28 -0.03 -0.48 31806
0.11 -0.01 0.69 -7.00 23.55 4.28 0.56 -0.51 31819
0.06 -0.01 -2.87 -6.01 32.23 4.28 0.31 -0.61 31834
0.05 -0.01 2.91 -1.05 33.48 4.28 -1.35 -0.84 31848
0.00 0.00 7.84 18.83 25.89 4.28 -1.87 -0.70 31862
0.00 0.00 4.77 25.42 0.43 3.33 -0.97 -1.13 31877
0.00 0.00 8.42 13.89 25.87 1.38 -0.06 -1.83 31891
0.00 0.00 2.79 15.13 17.14 -1.33 0.89 -1.67 31905
0.00 0.00 1.12 13.68 10.01 -2.95 0.27 -1.32 31920
0.00 0.00 2.10 8.32 8.15 -3.60 -0.17 -1.11 31934
0.00 0.00 2.98 6.21 7.56 -3.83 -0.16 -0.93 31948
0.00 0.00 3.85 4.91 7.74 -4.05 0.11 -0.90 31963
0.00 0.00 3.79 4.28 9.52 -4.26 0.62 -0.86 31977
0.00 0.01 3.05 3.10 11.43 -4.28 1.13 -0.76 31991
0.00 0.00 2.13 1.58 12.09 -4.28 1.32 -0.57 32006
0.00 0.00 2.04 -0.75 12.71 -4.28 1.17 -0.39 32020
0.00 0.00 2.24 -3.28 13.93 -4.28 1.05 -0.24 32034
0.00 -0.00 3.13 -5.17 14.61 -4.28 1.16 -0.17 32049
0.00 0.00 3.79 -6.78 15.38 -4.28 1.51 -0.23 32063
0.00 -0.00 3.67 -7.70 16.30 -4.25 1.92 -0.28 32077
0.01 -0.00 2.90 -8.72 17.08 -3.88 2.23 -0.18 32092
0.00 0.00 1.66 -9.08 19.65 -3.34 2.33 0.10 32106
0.00 -0.00 0.11 -8.76 20.86 -3.15 2.11 0.43 32120
0.00 0.00 0.31 -8.99 21.12 -3.34 1.77 0.65 32135
0.00 0.00 0.31 -9.25 20.22 -3.51 1.67 0.81 32149
0.00 0.00 0.03 -10.01 19.93 -3.48 1.62 0.93 32163
0.00 0.00 0.05 -11.66 20.46 -3.34 1.47 1.20 32178
0.00 0.00 0.14 -14.85 20.26 -3.31 1.41 1.55 32192
0.00 0.00 0.26 -19.40 17.22 -3.46 1.52 1.90 32206
0.00 0.00 -1.33 -24.45 11.14 -3.28 1.95 2.25 32221
0.00 -0.00 -5.01 -32.12 5.26 -2.44 2.41 2.60 32235
0.01 -0.00 -8.42 -36.42 0.87 -1.21 1.57 2.32 32249
0.01 -0.00 -7.86 -31.67 1.58 0.16 0.65 1.60 32264
0.00 -0.00 -3.33 -30.20 -3.86 2.81 -0.81 1.37 32278
0.01 0.01 -5.09 -23.52 1.44 3.49 -2.12 1.25 32293
0.01 0.11 1.36 -3.12 10.17 3.55 -0.85 1.90 32308
-0.00 0.40 -11.04 -2.15 25.31 4.20 -0.01 1.85 32322
-0.04 0.70 -9.07 -5.32 20.16 3.95 -0.76 0.32 32336
-0.04 0.83 -1.76 -2.14 17.42 3.27 -0.28 -0.56 32351
-0.04 0.79 4.00 -1.44 11.72 2.73 -0.50 -0.60 32365
-0.05 0.81 0.57 -2.90 12.20 1.25 -2.24 -0.07 32379
-0.06 0.96 -0.65 -1.39 10.83 0.12 -0.41 -0.01 32394
-0.06 0.97 0.51 -1.12 9.84 -0.00 -0.05 -0.04 32407
0.00 0.91 0.38 -0.80 9.84 -0.01 -0.03 -0.05 32421
-0.02 0.82 0.37 -0.82 9.84 -0.00 -0.00 -0.07 32436
0.00 0.76 0.29 -0.79 9.80 0.02 0.02 -0.07 32450
0.01 0.59 0.31 -0.75 9.82 0.04 0.04 -0.06 32464
0.04 0.47 0.33 -0.75 9.82 0.05 0.05 -0.06 32479
0.05 0.36 0.37 -0.78 9.83 0.06 0.06 -0.06 32493
0.16 0.21 0.40 -0.82 9.81 0.07 0.06 -0.07 32507
0.19 0.09 0.42 -0.83 9.81 0.07 0.05 -0.09 32522
0.17 0.02 0.45 -0.91 9.80 0.07 0.03 -0.10 32536
0.22 0.02 0.37 -0.83 9.82 0.06 0.02 -0.09 32550
0.22 -0.02 0.36 -0.93 9.80 0.05 0.02 -0.07 32565
0.30 -0.02 0.36 -0.90 9.78 0.06 0.04 -0.06 32579
0.31 -0.02 0.38 -0.92 9.79 0.07 0.06 -0.06 32593
0.35 -0.03 0.34 -0.91 9.83 0.09 0.09 -0.07 32608
0.42 -0.03 0.35 -0.91 9.75 0.14 0.11 -0.09 32622
0.49 -0.02 0.34 -0.98 9.79 0.20 0.15 -0.09 32636
0.53 -0.03 0.38 -1.02 9.71 0.27 0.16 -0.09 32651
0.54 -0.03 0.41 -1.08 9.72 0.26 0.14 -0.09 32665
0.56 -0.03 0.46 -1.13 9.75 0.24 0.12 -0.09 32679
0.61 -0.03 0.44 -1.13 9.85 0.28 0.12 -0.09 32694
0.61 -0.03 0.43 -1.20 9.86 0.34 0.14 -0.09 32708
0.74 -0.03 0.49 -1.23 9.93 0.41 0.14 -0.09 32722
0.82 -0.03 0.41 -1.39 10.16 0.48 0.11 -0.08 32738
0.93 -0.04 0.56 -1.60 10.44 0.59 0.09 -0.10 32751
1.04 -0.04 0.69 -1.68 11.09 0.78 0.05 -0.12 32765
1.16 -0.04 0.70 -1.65 11.22 1.03 -0.04 -0.16 32781
1.26 -0.05 0.56 -1.87 11.67 1.30 -0.12 -0.19 32795
1.36 -0.05 0.47 -2.04 11.96 1.63 -0.18 -0.19 32809
1.42 -0.05 0.31 -2.11 12.18 2.05 -0.21 -0.17 32824
1.48 -0.06 0.29 -2.45 12.47 2.50 -0.17 -0.14 32838
1.36 -0.04 0.50 -2.65 13.52 3.04 -0.08 -0.15 32852
1.32 -0.05 0.68 -2.95 13.47 3.69 0.04 -0.20 32867
1.10 -0.05 0.01 -3.38 15.62 4.26 0.13 -0.22 32881
0.67 -0.03 1.42 -4.95 18.54 4.28 0.16 -0.26 32896
0.38 -0.03 2.44 -8.25 22.96 4.28 -0.06 -0.43 32910
0.31 -0.02 2.32 -12.62 29.42 4.28 0.04 -0.42 32924
0.09 -0.01 2.63 -10.06 25.61 4.28 0.42 -0.46 32939
0.09 -0.01 -0.55 -6.36 29.10 4.28 0.45 -0.60 32952
0.05 -0.00 1.67 -2.45 31.61 4.28 -0.68 -0.80 32966
0.01 -0.00 6.14 14.73 29.32 4.28 -1.48 -0.81 32982
0.00 0.00 10.08 21.40 8.30 3.78 -0.51 -0.89 32995
0.00 0.00 6.63 15.04 18.56 2.29 0.34 -2.07 33009
0.00 0.00 3.37 12.84 20.18 -1.29 1.40 -2.03 33024
0.00 0.00 -0.82 12.69 10.23 -3.14 0.39 -1.68 33038
0.00 0.00 0.76 7.33 8.27 -3.95 -0.60 -1.27 33052
0.00 0.00 2.17 4.47 7.01 -4.08 -0.93 -0.95 33067
0.00 0.00 3.89 3.31 6.59 -4.09 -1.04 -0.79 33081
0.00 0.00 4.96 3.20 7.17 -4.19 -0.74 -0.69 33095
0.00 0.00 4.95 2.68 8.71 -4.28 -0.30 -0.54 33110
0.00 0.00 4.66 1.55 10.04 -4.28 0.10 -0.29 33124
0.00 0.00 4.50 0.33 10.83 -4.28 0.27 -0.01 33138
0.00 0.00 4.48 -1.70 12.56 -4.28 0.41 0.17 33153
0.00 0.00 5.00 -3.71 14.41 -4.28 0.66 0.30 33167
0.00 0.00 5.22 -5.35 15.74 -4.28 1.01 0.36 33181
0.00 0.00 5.30 -7.30 16.67 -4.28 1.47 0.37 33196
0.00 0.00 5.05 -8.49 17.85 -4.28 1.82 0.48 33210
0.00 0.00 3.83 -8.90 18.60 -4.28 2.06 0.74 33224
0.00 0.00 2.21 -8.52 18.46 -4.13 2.10 1.10 33239
0.00 0.00 1.24 -9.20 19.25 -3.72 1.88 1.41 33253
0.00 0.00 0.51 -10.21 19.91 -3.29 1.49 1.57 33267
0.00 0.00 -0.08 -11.05 20.54 -2.96 1.02 1.60 33282
0.00 0.00 -3.02 -23.21 4.75 -2.73 0.51 1.65 33296
0.00 0.00 0.72 -12.01 15.74 -2.61 0.08 1.53 33310
0.00 0.00 4.02 -18.56 21.39 -3.25 0.18 1.29 33325
0.00 0.00 5.37 -22.30 13.57 -3.33 1.46 0.97 33339
0.00 0.00 -1.94 -22.71 3.37 -2.98 3.73 1.25 33353
0.00 0.00 -10.68 -33.80 8.01 -1.91 4.28 2.15 33368
0.00 0.00 -14.46 -30.68 0.24 -0.53 1.65 1.91 33382
0.00 0.00 -8.04 -24.07 4.03 0.27 -0.90 1.16 33396
0.00 0.00 -1.67 -20.32 13.50 2.68 -0.96 0.60 33411
-0.00 0.01 -0.40 -23.52 -2.77 2.79 -1.07 0.55 33425
-0.01 0.12 2.75 -3.10 5.76 3.41 -0.45 1.20 33439
-0.03 0.47 -7.40 -2.74 23.02 4.28 -0.45 1.00 33455
-0.04 0.76 -4.35 -5.59 21.44 4.11 -0.72 0.12 33469
-0.05 0.82 -3.05 -2.08 16.31 3.42 -0.31 -0.51 33483
-0.05 0.72 0.92 -3.02 29.53 2.56 -2.26 -0.69 33498
-0.05 0.82 0.37 -2.98 11.14 0.33 -0.92 -0.01 33512
-0.05 0.82 0.21 -0.91 9.95 0.04 -0.14 -0.05 33525
-0.05 0.82 0.47 -1.27 9.82 -0.02 -0.07 -0.04 33540
0.02 0.79 0.37 -0.87 9.81 -0.02 -0.02 -0.05 33554
-0.02 0.74 0.40 -0.93 9.20 -0.00 -0.01 -0.06 33568
-0.00 0.73 0.39 -0.87 9.82 0.01 0.01 -0.07 33583
0.01 0.55 0.37 -0.86 9.84 0.03 0.03 -0.07 33597
0.07 0.42 0.39 -0.86 9.81 0.04 0.03 -0.06 33611
0.06 0.38 0.33 -0.94 9.80 0.05 0.04 -0.06 33626
0.11 0.24 0.36 -0.89 9.81 0.05 0.05 -0.07 33640
0.11 0.13 0.40 -0.92 9.78 0.06 0.06 -0.07 33654
0.16 0.05 0.42 -0.93 9.74 0.05 0.06 -0.08 33669
0.14 0.02 0.43 -0.96 9.79 0.05 0.06 -0.09 33683
0.13 0.02 0.34 -0.96 9.76 0.05 0.06 -0.08 33697
0.13 0.01 0.35 -0.97 9.72 0.04 0.07 -0.07 33712
0.16 -0.02 0.43 -0.97 9.75 0.04 0.08 -0.07 33726
0.20 -0.01 0.45 -0.98 9.75 0.04 0.08 -0.07 33740
0.18 -0.02 0.45 -1.00 9.73 0.04 0.08 -0.07 33755
0.21 -0.01 0.46 -0.99 9.77 0.03 0.07 -0.07 33769
0.20 -0.01 0.44 -0.98 9.75 0.02 0.07 -0.08 33783
0.21 -0.01 0.42 -1.03 9.73 0.02 0.05 -0.08 33798
0.20 -0.02 0.43 -1.00 9.72 0.01 0.04 -0.08 33812
0.20 -0.02 0.43 -1.00 9.75 0.00 0.02 -0.07 33826
0.28 -0.02 0.45 -1.01 9.80 0.01 0.01 -0.07 33841
0.35 -0.02 0.35 -1.03 9.81 0.02 0.02 -0.07 33855
0.40 -0.03 0.36 -1.00 9.81 0.04 0.04 -0.07 33869
0.49 -0.01 0.40 -1.02 9.83 0.08 0.08 -0.06 33884
0.56 -0.02 0.44 -1.03 9.92 0.18 0.15 -0.08 33898
0.65 -0.03 0.42 -1.12 10.29 0.52 0.29 -0.07 33913
0.75 -0.04 0.78 -1.20 10.75 0.99 0.34 -0.09 33927
0.80 -0.04 0.87 -1.43 10.73 1.24 0.34 -0.12 33942
0.87 -0.03 0.61 -1.51 11.58 1.34 0.10 -0.14 33956
0.94 -0.04 0.85 -1.85 11.54 1.58 -0.03 -0.16 33971
1.00 -0.04 0.68 -1.92 11.73 1.87 -0.06 -0.16 33985
1.08 -0.04 0.73 -2.51 12.54 2.26 -0.07 -0.15 33999
1.03 -0.04 0.23 -2.48 13.26 2.72 -0.00 -0.16 34014
0.92 -0.04 0.91 -3.05 14.94 3.40 0.06 -0.13 34028
0.80 -0.03 1.64 -3.46 15.55 4.12 -0.06 -0.28 34042
0.43 -0.02 1.92 -4.48 18.10 4.28 -0.34 -0.40 34057
0.27 -0.02 2.08 -7.77 21.20 4.28 -0.62 -0.58 34071
0.17 -0.02 2.16 -10.72 26.57 4.28 -0.52 -0.61 34085
0.14 -0.01 4.66 -7.35 22.27 4.28 -0.08 -0.64 34099
0.07 -0.01 1.30 -4.19 25.50 4.28 0.29 -0.78 34113
0.03 -0.00 2.88 -2.07 26.25 4.28 -0.29 -0.92 34127
0.02 -0.00 4.11 15.45 26.37 4.28 -0.89 -1.07 34143
0.00 0.00 3.15 24.43 7.69 3.41 -0.37 -1.24 34156
0.00 0.00 5.25 15.71 19.04 0.99 -0.66 -1.99 34170
0.00 0.00 2.02 10.14 15.93 -1.62 -0.30 -1.82 34185
0.00 0.00 0.63 9.81 7.31 -2.48 -0.81 -1.61 34199
0.00 0.00 1.88 7.01 6.06 -2.72 -1.29 -1.48 34213
0.00 0.00 3.54 5.29 6.75 -2.84 -1.34 -1.27 34228
0.00 0.00 4.53 5.58 6.70 -3.18 -1.00 -1.01 34242
0.00 0.00 4.71 5.00 7.68 -3.68 -0.63 -0.66 34256
0.00 0.00 4.64 3.58 8.73 -4.05 -0.24 -0.26 34271
0.00 0.00 4.40 1.83 9.49 -4.23 0.07 0.16 34285
0.00 0.00 4.50 0.00 10.93 -4.28 0.08 0.51 34299
-0.00 0.00 4.76 -1.94 12.20 -4.28 -0.01 0.74 34314
0.00 0.00 5.79 -3.67 13.40 -4.28 0.01 0.91 34328
0.00 0.00 6.67 -5.36 14.58 -4.28 0.26 1.01 34342
0.00 0.00 7.10 -6.84 15.95 -4.28 0.71 1.14 34357
0.00 0.00 7.08 -8.92 16.30 -4.28 1.15 1.44 34371
0.00 0.00 6.87 -8.00 15.92 -4.16 1.21 1.87 34385
0.00 0.00 6.84 -9.77 16.20 -3.72 1.31 2.29 34400
0.00 0.00 5.42 -10.29 17.19 -3.27 1.24 2.53 34414
0.00 0.00 4.56 -11.32 17.93 -2.88 1.00 2.72 34428
0.00 0.00 4.16 -12.63 18.19 -2.48 0.54 2.85 34443
0.00 0.00 4.35 -14.06 17.71 -2.16 0.03 2.91 34457
0.00 0.00 5.23 -30.40 24.54 -2.04 -0.14 3.03 34471
0.00 0.00 8.17 -11.41 10.74 -1.72 0.39 3.01 34486
0.00 0.00 9.41 -17.20 16.42 -2.73 1.97 2.95 34500
0.00 0.00 4.15 -20.02 14.39 -3.31 3.12 2.86 34514
0.00 0.00 -0.74 -22.68 8.37 -2.88 2.91 2.79 34529
0.00 0.00 -3.31 -23.53 3.18 -1.93 2.05 2.48 34543
0.00 0.00 -4.08 -26.19 2.38 -0.51 1.94 2.12 34557
0.00 0.00 -5.66 -28.59 5.69 0.95 1.82 1.90 34572
-0.00 0.02 -5.18 -25.82 4.84 1.89 0.30 1.51 34586
-0.00 0.04 -2.47 -6.12 2.13 2.59 -0.42 1.35 34600
-0.02 0.18 -6.26 1.23 23.95 3.87 -0.51 1.04 34615
-0.02 0.56 -4.56 -3.44 20.87 3.79 -1.03 0.16 34630
-0.03 0.69 -3.47 -3.50 18.42 2.91 -0.75 -0.59 34644
-0.03 0.59 2.27 -1.93 19.42 2.53 -0.51 -0.92 34659
-0.03 0.58 2.11 -2.44 12.07 0.57 -1.03 -0.19 34673
-0.03 0.56 0.12 -0.69 10.25 0.16 -0.34 -0.02 34688
-0.04 0.53 0.14 -0.74 9.83 -0.00 -0.13 -0.04 34701
-0.02 0.54 0.23 -0.90 9.82 -0.03 -0.05 -0.04 34715
-0.02 0.54 0.28 -0.80 9.83 -0.03 0.01 -0.04 34729
0.04 0.55 0.30 -0.80 9.83 -0.02 0.02 -0.05 34744
0.04 0.58 0.32 -0.75 9.82 -0.01 0.04 -0.04 34758
0.03 0.55 0.31 -0.72 9.81 -0.00 0.04 -0.05 34772
0.04 0.48 0.27 -0.72 9.82 0.01 0.04 -0.05 34787
