Voltage_01 Voltage_02 Acc_x Acc_y Acc_z Gyro_x Gyro_y Gyro_z Time
5000
0.01 1.20 0.83 -0.63 9.93 -0.00 -0.03 0.06 17
-0.01 1.19 0.81 -0.66 9.96 0.00 -0.04 0.06 23
-0.00 1.20 0.85 -0.64 9.94 0.01 -0.05 0.06 29
0.00 1.16 0.80 -0.61 9.97 0.00 -0.05 0.06 35
-0.01 1.13 0.74 -0.62 9.98 0.01 -0.06 0.05 41
-0.01 1.10 0.74 -0.62 9.96 0.01 -0.06 0.06 48
-0.00 1.07 0.75 -0.63 10.02 0.01 -0.06 0.06 54
0.03 1.06 0.74 -0.66 10.01 0.01 -0.06 0.06 60
0.05 1.03 0.75 -0.62 10.04 0.01 -0.06 0.06 66
0.03 0.98 0.73 -0.65 10.00 0.01 -0.06 0.06 72
0.04 0.95 0.74 -0.64 10.02 0.01 -0.06 0.06 78
0.04 0.94 0.74 -0.67 9.93 0.00 -0.06 0.06 84
0.04 0.93 0.74 -0.65 9.99 0.01 -0.06 0.06 91
0.06 0.87 0.75 -0.67 9.97 0.00 -0.07 0.06 97
0.04 0.88 0.75 -0.61 9.95 0.00 -0.07 0.05 103
0.04 0.83 0.72 -0.64 9.98 -0.00 -0.06 0.05 110
0.04 0.81 0.72 -0.63 10.02 -0.00 -0.06 0.05 116
0.05 0.79 0.73 -0.63 9.97 0.00 -0.06 0.06 122
0.05 0.76 0.66 -0.64 10.02 0.00 -0.05 0.05 129
0.05 0.70 0.70 -0.64 9.93 0.00 -0.04 0.06 135
0.05 0.70 0.73 -0.64 9.97 0.00 -0.04 0.06 141
0.05 0.72 0.75 -0.62 9.96 0.01 -0.03 0.06 147
0.06 0.70 0.72 -0.67 9.98 0.01 -0.03 0.06 153
0.06 0.66 0.70 -0.69 9.97 -0.00 -0.03 0.06 159
0.06 0.60 0.71 -0.64 9.93 0.00 -0.03 0.06 165
0.06 0.59 0.70 -0.66 9.92 0.00 -0.03 0.05 172
0.08 0.62 0.72 -0.67 9.96 0.00 -0.03 0.05 178
0.07 0.60 0.75 -0.68 9.93 -0.00 -0.03 0.06 185
0.07 0.58 0.69 -0.67 9.96 -0.01 -0.03 0.06 191
0.07 0.59 0.78 -0.68 9.90 -0.01 -0.03 0.05 197
0.09 0.58 0.71 -0.64 9.98 -0.01 -0.03 0.06 203
0.08 0.58 0.77 -0.66 10.00 -0.01 -0.03 0.05 209
0.08 0.56 0.73 -0.64 9.99 -0.01 -0.03 0.05 216
0.09 0.54 0.72 -0.62 10.08 -0.01 -0.03 0.06 222
0.11 0.53 0.76 -0.64 9.95 -0.01 -0.03 0.05 228
0.10 0.50 0.79 -0.66 10.00 -0.00 -0.04 0.04 234
0.09 0.49 0.76 -0.65 9.96 0.00 -0.05 0.05 240
0.11 0.48 0.74 -0.64 10.01 -0.00 -0.04 0.04 247
0.11 0.45 0.75 -0.67 9.97 0.00 -0.05 0.04 253
0.11 0.46 0.75 -0.66 9.96 0.00 -0.05 0.05 260
0.12 0.42 0.73 -0.66 9.96 0.00 -0.05 0.04 266
0.11 0.36 0.74 -0.69 10.00 0.01 -0.05 0.04 272
0.15 0.36 0.74 -0.72 10.00 0.01 -0.04 0.04 278
0.16 0.27 0.69 -0.70 9.92 0.01 -0.03 0.03 284
0.20 0.26 0.73 -0.68 10.00 0.02 -0.02 0.03 290
0.20 0.26 0.74 -0.66 10.14 0.02 -0.02 0.03 296
0.23 0.19 0.74 -0.71 10.01 0.03 -0.01 0.03 304
0.24 0.19 0.71 -0.65 9.94 0.03 -0.01 0.03 310
0.27 0.14 0.78 -0.68 10.03 0.03 -0.00 0.03 316
0.31 0.07 0.77 -0.68 10.14 0.04 -0.00 0.02 322
0.33 0.06 0.80 -0.68 10.07 0.04 0.00 0.02 328
0.38 0.04 0.80 -0.69 10.04 0.04 0.00 0.02 334
0.38 0.02 0.74 -0.66 10.16 0.05 0.01 0.03 340
0.43 0.02 0.73 -0.82 10.02 0.06 0.03 0.03 347
0.48 0.01 0.79 -0.74 10.13 0.07 0.03 0.03 353
0.50 -0.01 0.75 -0.76 10.13 0.10 0.05 0.03 360
0.49 -0.01 1.07 -1.31 10.64 0.11 0.07 0.03 366
0.54 -0.02 0.86 -1.12 10.15 0.15 0.07 0.03 372
0.63 -0.04 0.98 -0.93 10.21 0.19 0.09 0.03 378
0.67 -0.05 1.07 -0.91 10.42 0.24 0.12 0.01 385
0.71 -0.03 1.13 -1.01 10.55 0.34 0.18 -0.01 391
0.78 -0.03 0.95 -1.10 10.80 0.51 0.28 -0.04 397
0.79 -0.04 1.00 -0.84 11.41 0.80 0.44 -0.06 404
0.80 -0.04 1.11 -1.02 11.84 1.16 0.59 -0.09 410
0.83 -0.04 1.35 -0.98 12.22 1.49 0.63 -0.14 416
0.81 -0.04 1.18 -1.07 12.87 1.73 0.56 -0.17 422
0.81 -0.04 1.18 -1.43 13.32 1.87 0.41 -0.18 429
0.80 -0.02 0.83 -1.13 13.41 2.00 0.24 -0.18 435
0.75 -0.03 1.47 -1.56 14.05 2.21 0.08 -0.19 442
0.70 -0.03 1.92 -1.60 14.63 2.46 -0.03 -0.23 448
0.66 -0.03 2.15 -1.73 14.80 2.74 -0.06 -0.29 454
0.60 -0.03 1.97 -1.52 14.26 2.98 -0.09 -0.35 460
0.55 -0.04 1.13 -1.68 14.97 3.27 -0.18 -0.37 466
0.47 -0.01 1.70 -2.22 16.50 3.55 -0.23 -0.41 473
0.43 -0.01 2.28 -2.42 15.07 3.77 -0.29 -0.37 480
0.32 -0.01 3.03 -2.78 16.60 3.97 -0.34 -0.43 486
0.27 -0.00 2.97 -3.34 17.64 4.12 -0.45 -0.49 492
0.23 0.01 3.45 -3.98 20.55 4.27 -0.57 -0.55 498
0.16 0.01 2.79 -4.91 15.29 4.28 -0.69 -0.63 504
0.14 0.00 2.45 -5.53 17.73 4.28 -0.54 -0.62 510
0.17 0.00 2.48 -6.47 19.69 4.26 -0.31 -0.59 518
0.15 -0.00 3.16 -6.24 21.57 4.21 -0.37 -0.60 524
0.13 -0.00 3.21 -5.30 23.70 4.17 -0.59 -0.66 530
0.13 0.00 3.21 -4.11 24.98 4.02 -0.81 -0.74 536
0.13 -0.00 3.57 -3.52 23.92 3.68 -1.11 -0.79 542
0.11 -0.01 4.44 -2.07 21.83 3.34 -1.42 -0.82 548
0.08 -0.00 5.00 0.03 17.81 3.13 -1.64 -0.84 556
0.07 -0.01 5.46 3.92 17.20 2.95 -1.63 -0.81 562
0.06 -0.01 5.93 8.38 13.79 2.92 -1.29 -0.83 568
0.06 -0.01 8.02 17.28 12.60 2.56 -1.11 -0.85 574
0.05 -0.01 7.16 21.03 9.74 1.83 -0.91 -0.93 580
0.06 -0.01 7.18 14.39 9.04 0.95 -0.47 -0.93 586
0.06 -0.01 7.30 16.46 11.64 0.10 -0.08 -0.86 592
0.06 -0.01 5.18 15.05 10.28 -0.34 0.18 -0.87 599
0.06 -0.01 4.07 11.53 8.19 -0.53 0.17 -0.92 605
0.07 -0.00 2.94 9.67 6.41 -0.58 0.10 -0.96 612
0.05 -0.01 2.07 9.62 5.20 -0.63 -0.04 -0.96 618
0.05 -0.01 2.20 9.42 4.62 -0.68 -0.16 -0.96 624
0.05 0.01 2.86 8.89 4.91 -0.76 -0.22 -0.97 630
0.05 -0.01 3.53 8.45 5.48 -0.85 -0.24 -0.96 636
0.05 -0.01 4.00 8.12 5.91 -0.96 -0.19 -0.95 643
0.05 -0.01 4.33 7.87 6.72 -1.08 -0.08 -0.92 649
0.05 -0.01 4.33 7.60 6.33 -1.21 0.06 -0.87 655
0.05 0.00 4.15 7.19 6.64 -1.35 0.20 -0.78 661
0.06 -0.01 4.02 6.60 7.12 -1.45 0.32 -0.68 667
0.05 -0.00 3.89 5.84 7.97 -1.57 0.40 -0.57 673
0.05 -0.01 3.85 5.38 8.63 -1.69 0.48 -0.48 679
0.06 -0.01 3.88 4.99 9.44 -1.82 0.56 -0.37 686
0.05 -0.01 3.77 4.56 9.97 -1.97 0.65 -0.25 692
0.05 -0.01 3.63 4.09 10.40 -2.11 0.73 -0.14 698
0.05 -0.00 3.48 3.47 10.77 -2.27 0.81 -0.03 705
0.04 -0.00 3.20 2.74 11.13 -2.41 0.89 0.04 711
0.05 0.00 2.91 1.78 11.35 -2.53 0.96 0.11 717
0.05 -0.01 2.62 0.86 11.56 -2.62 1.01 0.17 723
0.05 -0.01 2.32 0.01 11.73 -2.68 1.05 0.21 730
0.04 -0.00 2.05 -0.68 11.83 -2.71 1.06 0.25 736
0.05 0.00 1.81 -1.36 12.05 -2.72 1.06 0.29 742
0.05 -0.01 1.59 -1.68 12.38 -2.71 1.06 0.33 748
0.04 -0.00 1.32 -1.96 12.67 -2.69 1.05 0.37 754
0.04 -0.00 1.16 -2.09 13.23 -2.68 1.05 0.41 761
0.05 -0.00 0.94 -2.24 13.81 -2.69 1.06 0.44 768
0.05 -0.01 0.74 -2.43 14.21 -2.70 1.09 0.47 774
0.05 -0.01 0.51 -2.83 14.56 -2.72 1.10 0.47 780
0.04 -0.00 0.35 -3.16 14.70 -2.73 1.12 0.47 786
0.05 -0.01 0.17 -3.53 14.72 -2.74 1.13 0.46 792
0.05 -0.00 0.00 -3.97 14.68 -2.74 1.12 0.43 798
0.05 -0.00 -0.01 -4.49 14.64 -2.71 1.10 0.39 804
0.04 -0.00 0.06 -4.87 14.71 -2.67 1.06 0.33 811
0.06 0.00 0.14 -5.09 14.66 -2.61 1.03 0.28 817
0.05 -0.01 0.31 -5.41 14.51 -2.55 1.02 0.23 824
0.05 -0.00 0.51 -5.53 14.51 -2.48 1.00 0.20 830
0.05 -0.00 0.53 -5.73 14.45 -2.40 0.99 0.19 836
0.05 0.00 0.55 -5.87 14.32 -2.32 0.97 0.19 842
0.05 -0.00 0.47 -6.25 14.03 -2.22 0.92 0.21 848
0.05 -0.00 0.46 -6.57 13.75 -2.09 0.84 0.25 855
0.05 -0.00 0.44 -6.93 13.43 -1.97 0.72 0.29 861
0.06 0.00 0.38 -7.21 13.29 -1.82 0.65 0.36 867
0.05 -0.01 0.52 -7.23 13.12 -1.66 0.56 0.42 873
0.05 -0.01 0.72 -7.27 12.92 -1.50 0.47 0.50 880
0.05 -0.01 0.96 -7.24 13.04 -1.36 0.41 0.57 886
0.06 -0.01 1.35 -7.27 13.64 -1.27 0.42 0.65 892
0.05 -0.00 1.83 -7.32 14.08 -1.23 0.49 0.72 899
0.05 -0.01 2.01 -7.41 14.11 -1.24 0.62 0.78 905
0.05 0.00 1.98 -7.53 14.08 -1.28 0.71 0.84 911
0.06 -0.01 1.14 -9.09 14.43 -1.31 0.77 0.88 917
0.05 -0.01 -1.63 -10.49 18.81 -1.14 0.31 0.85 923
0.04 0.00 0.77 -6.62 9.30 -1.26 0.54 0.89 929
0.05 0.01 1.19 -7.98 10.32 -1.39 0.68 0.99 936
0.05 -0.00 0.05 -11.58 16.68 -1.36 0.53 1.01 943
0.05 -0.01 0.08 -8.89 9.65 -1.43 0.65 0.99 949
0.04 -0.00 -0.64 -10.43 10.18 -1.32 0.67 1.03 955
0.05 -0.01 -1.05 -12.09 11.51 -1.23 0.68 1.06 961
0.05 -0.00 -1.02 -11.21 8.19 -1.15 0.70 1.07 967
0.05 -0.00 -0.67 -11.55 7.76 -1.07 0.76 1.08 973
0.05 0.00 -2.36 -12.40 10.82 -0.92 0.62 1.07 980
0.06 -0.01 -1.25 -11.21 7.71 -0.95 0.71 1.06 987
0.05 -0.00 -2.77 -13.84 10.83 -0.83 0.55 1.01 993
0.04 0.00 -1.97 -12.19 7.57 -0.81 0.49 0.96 999
0.05 -0.00 -3.25 -14.30 9.36 -0.66 0.32 0.88 1005
0.05 -0.00 -1.72 -11.98 5.48 -0.57 0.21 0.79 1011
0.05 -0.00 -2.56 -18.38 12.38 -0.52 0.13 0.67 1018
0.06 -0.01 -3.29 -17.17 8.36 -0.23 -0.09 0.56 1025
0.05 -0.01 -1.19 -14.04 2.73 -0.05 -0.16 0.40 1031
0.04 -0.00 -1.81 -16.47 7.97 0.14 -0.30 0.26 1037
0.06 -0.01 -0.67 -16.33 5.87 0.23 -0.32 0.16 1043
0.05 -0.00 -0.95 -16.35 8.86 0.58 -0.57 0.04 1049
0.04 -0.00 -1.23 -16.01 7.93 0.78 -0.80 -0.00 1056
0.05 0.00 -3.28 -17.68 5.50 0.89 -1.11 -0.03 1062
0.05 -0.00 -2.41 -17.13 5.38 1.19 -1.37 -0.02 1069
0.05 -0.00 -3.73 -18.61 5.78 1.36 -1.71 0.10 1075
0.05 0.02 -2.13 -18.10 4.25 1.66 -1.95 0.30 1081
0.05 0.08 -1.73 -13.15 4.74 1.91 -1.99 0.63 1087
0.03 0.18 1.42 -1.26 11.15 2.35 -1.78 0.85 1094
0.03 0.47 -2.66 -1.32 17.81 2.81 -1.49 0.94 1100
0.02 0.64 -5.13 -0.04 23.58 2.93 -1.60 0.79 1106
0.01 0.82 -4.78 0.62 17.27 2.61 -1.54 0.44 1113
0.02 0.97 -4.77 -1.47 15.74 2.63 -1.22 0.04 1120
0.01 0.98 -2.29 -3.92 23.60 2.82 -0.93 -0.31 1126
0.01 0.99 1.88 -2.28 22.10 1.05 -1.34 -0.41 1132
0.00 1.00 2.74 -2.44 11.12 0.13 -0.49 -0.04 1138
-0.00 1.02 1.26 -2.75 11.01 0.02 -0.21 0.08 1144
0.01 1.02 0.93 -1.35 10.00 0.02 -0.11 0.15 1152
0.01 0.98 0.46 -0.41 9.93 0.06 -0.13 0.12 1158
0.01 0.97 0.35 -0.34 9.96 0.04 -0.10 0.09 1164
0.01 1.00 0.58 -0.76 10.10 0.00 -0.06 0.08 1170
0.02 1.03 0.87 -1.34 10.01 -0.02 -0.03 0.09 1176
0.03 1.04 0.81 -1.13 10.00 -0.03 -0.02 0.10 1183
0.02 1.08 0.52 -0.91 10.25 -0.03 -0.01 0.09 1189
0.02 1.13 0.53 -0.81 10.06 -0.03 -0.00 0.08 1196
0.03 1.12 0.72 -0.84 10.08 -0.03 0.00 0.07 1202
0.03 1.11 0.70 -0.85 9.90 -0.03 0.00 0.07 1208
0.04 1.10 0.70 -0.80 10.06 -0.03 0.01 0.07 1214
0.02 1.15 0.60 -0.78 9.92 -0.03 0.02 0.07 1221
0.01 1.12 0.70 -0.80 10.04 -0.02 0.03 0.06 1227
0.03 1.08 0.83 -0.77 10.10 -0.01 0.02 0.07 1233
0.03 1.06 0.74 -0.81 10.04 -0.01 0.02 0.07 1240
0.02 1.05 0.83 -0.82 9.88 -0.00 0.01 0.07 1246
0.03 1.03 0.71 -0.76 10.03 0.00 0.01 0.07 1252
0.02 1.00 0.75 -0.81 10.00 0.00 0.01 0.07 1259
0.02 0.96 0.74 -0.78 10.03 0.01 -0.00 0.07 1265
0.02 0.88 0.72 -0.84 10.01 0.01 -0.01 0.08 1271
0.03 0.85 0.75 -0.80 9.94 0.01 -0.01 0.08 1277
0.05 0.80 0.75 -0.79 9.98 0.02 -0.01 0.08 1284
0.06 0.75 0.68 -0.75 10.04 0.02 -0.01 0.07 1290
0.06 0.77 0.71 -0.77 10.02 0.02 -0.01 0.08 1297
0.07 0.67 0.73 -0.79 10.01 0.02 -0.01 0.07 1303
0.07 0.66 0.73 -0.81 9.96 0.03 -0.01 0.07 1309
0.09 0.61 0.74 -0.80 9.94 0.03 -0.01 0.07 1315
0.09 0.61 0.74 -0.80 9.96 0.03 -0.01 0.07 1321
0.09 0.50 0.77 -0.83 9.95 0.03 -0.01 0.07 1328
0.10 0.50 0.78 -0.85 9.94 0.03 -0.01 0.06 1334
0.10 0.46 0.73 -0.81 9.91 0.02 -0.01 0.06 1341
0.10 0.38 0.70 -0.81 9.95 0.03 -0.01 0.06 1347
0.12 0.38 0.74 -0.80 9.97 0.02 -0.01 0.06 1353
0.12 0.37 0.75 -0.80 9.93 0.02 -0.01 0.06 1359
0.11 0.33 0.76 -0.80 10.04 0.02 -0.01 0.06 1366
0.11 0.34 0.73 -0.83 9.98 0.02 -0.01 0.06 1372
0.12 0.29 0.80 -0.83 10.05 0.02 -0.01 0.06 1378
0.12 0.28 0.73 -0.80 9.91 0.02 -0.01 0.06 1385
0.11 0.28 0.76 -0.86 9.93 0.02 -0.01 0.06 1391
0.12 0.24 0.74 -0.83 9.93 0.02 -0.01 0.06 1397
0.13 0.22 0.75 -0.86 9.92 0.01 -0.01 0.06 1403
0.12 0.22 0.75 -0.85 9.98 0.01 -0.01 0.06 1410
0.12 0.23 0.78 -0.84 9.97 0.01 -0.01 0.06 1416
0.13 0.20 0.81 -0.89 9.98 0.01 -0.01 0.06 1422
0.14 0.18 0.81 -0.88 9.94 0.00 -0.02 0.05 1428
0.15 0.13 0.77 -0.83 9.98 0.00 -0.02 0.05 1435
0.15 0.13 0.75 -0.83 10.03 -0.00 -0.02 0.05 1441
0.17 0.14 0.79 -0.87 9.96 0.00 -0.02 0.05 1447
0.18 0.14 0.77 -0.84 9.93 0.00 -0.02 0.05 1454
0.17 0.07 0.81 -0.89 9.97 0.00 -0.02 0.05 1460
0.19 0.10 0.76 -0.87 9.94 0.01 -0.02 0.05 1466
0.19 0.08 0.82 -0.88 9.95 0.00 -0.02 0.05 1472
0.20 0.02 0.80 -0.90 9.95 0.01 -0.02 0.04 1479
0.20 0.03 0.83 -0.90 9.97 0.01 -0.03 0.04 1485
0.20 0.02 0.75 -0.90 9.98 0.01 -0.03 0.04 1491
0.23 0.02 0.81 -0.91 10.00 0.01 -0.03 0.05 1498
0.21 -0.00 0.82 -0.90 10.02 0.00 -0.03 0.04 1504
0.23 0.03 0.78 -0.89 9.95 0.01 -0.03 0.04 1510
0.23 -0.01 0.78 -0.87 9.93 0.01 -0.02 0.04 1516
0.22 -0.02 0.79 -0.87 9.98 0.01 -0.01 0.04 1522
0.26 -0.01 0.83 -0.88 9.99 0.01 0.00 0.03 1529
0.31 -0.01 0.73 -0.70 10.04 0.02 0.00 0.03 1536
0.29 -0.01 0.85 -0.90 9.99 0.02 0.01 0.03 1542
0.31 -0.03 0.79 -0.90 10.01 0.03 0.02 0.03 1548
0.35 -0.00 0.81 -0.95 10.01 0.04 0.02 0.03 1554
0.37 -0.01 0.77 -0.86 10.07 0.04 0.03 0.03 1560
0.38 -0.03 0.84 -0.93 10.06 0.06 0.04 0.03 1567
0.40 -0.02 0.87 -0.98 10.04 0.07 0.04 0.02 1573
0.47 -0.03 0.89 -0.95 10.10 0.09 0.05 0.02 1580
0.49 -0.04 0.87 -0.88 10.16 0.13 0.06 0.02 1586
0.50 -0.03 0.95 -0.96 10.23 0.16 0.09 0.01 1592
0.53 -0.03 0.86 -1.00 10.32 0.23 0.12 0.01 1599
0.53 -0.04 0.90 -1.02 10.40 0.32 0.18 0.01 1605
0.57 -0.02 0.96 -0.96 10.66 0.47 0.25 0.00 1611
0.62 -0.03 1.09 -1.13 10.85 0.65 0.33 -0.02 1617
0.62 -0.04 1.21 -1.21 11.37 0.89 0.43 -0.05 1624
0.64 -0.03 1.24 -1.19 11.64 1.13 0.49 -0.08 1631
0.63 -0.03 1.07 -1.15 12.63 1.41 0.48 -0.11 1637
0.64 -0.03 1.15 -1.42 12.52 1.62 0.42 -0.14 1643
0.66 -0.03 1.14 -1.60 13.43 1.79 0.30 -0.15 1649
0.64 -0.03 1.62 -1.70 13.46 1.93 0.13 -0.27 1656
0.62 -0.01 1.55 -1.32 14.72 2.19 -0.04 -0.27 1662
0.57 -0.02 2.18 -1.95 14.87 2.44 -0.04 -0.30 1669
0.50 -0.02 2.09 -1.94 15.12 2.72 -0.08 -0.37 1675
0.47 -0.01 1.83 -2.03 15.26 3.02 -0.14 -0.40 1681
0.39 -0.02 1.78 -2.13 15.71 3.33 -0.12 -0.42 1688
0.35 -0.01 2.06 -1.85 17.02 3.67 -0.12 -0.43 1694
0.28 -0.01 2.53 -2.80 17.16 4.06 -0.11 -0.46 1700
0.21 -0.01 2.93 -2.82 19.09 4.26 -0.18 -0.50 1707
0.17 0.01 2.45 -3.33 18.53 4.28 -0.25 -0.57 1714
0.16 -0.00 2.46 -4.42 15.63 4.28 -0.31 -0.57 1720
0.16 -0.01 3.59 -6.06 15.79 4.28 -0.20 -0.56 1726
0.18 -0.00 3.09 -6.79 18.87 4.28 -0.02 -0.53 1732
0.12 -0.01 3.58 -6.48 20.76 4.27 0.27 -0.48 1738
0.09 -0.01 3.58 -5.16 22.13 4.16 0.49 -0.45 1745
0.08 -0.01 2.89 -3.31 23.59 3.93 0.51 -0.46 1752
0.07 -0.01 2.02 -0.85 24.54 3.59 0.23 -0.50 1758
0.05 -0.00 1.22 1.59 22.50 3.33 -0.17 -0.52 1764
0.06 -0.01 1.01 4.41 21.19 3.01 -0.45 -0.53 1770
0.07 -0.01 1.23 3.57 13.68 2.91 -0.42 -0.53 1776
0.07 -0.01 2.59 10.27 11.81 2.71 -0.63 -0.47 1783
0.05 -0.01 1.43 13.85 9.82 2.18 -0.57 -0.58 1789
0.06 -0.01 1.45 23.03 11.46 1.36 -0.41 -0.71 1796
0.05 -0.00 4.14 15.52 9.62 0.37 -0.16 -1.01 1802
0.05 -0.00 3.70 14.98 11.94 -0.48 0.06 -1.21 1808
0.05 -0.00 1.83 13.86 10.08 -0.93 0.26 -1.44 1815
0.04 -0.00 0.86 10.79 7.24 -1.06 0.22 -1.69 1821
0.04 -0.00 0.00 8.70 5.26 -1.01 0.04 -1.84 1827
0.06 -0.01 -0.34 8.48 4.46 -1.01 -0.17 -1.90 1833
0.05 -0.01 0.05 8.77 4.59 -1.02 -0.37 -1.89 1840
0.05 -0.01 1.33 8.71 5.35 -1.08 -0.56 -1.86 1846
0.06 -0.01 2.51 8.56 5.96 -1.18 -0.66 -1.79 1852
0.07 -0.01 3.06 8.20 6.46 -1.31 -0.66 -1.69 1858
0.06 -0.01 3.99 7.97 6.89 -1.48 -0.57 -1.57 1865
0.05 -0.00 4.18 7.50 7.17 -1.63 -0.45 -1.43 1871
0.06 -0.01 4.20 6.72 7.53 -1.81 -0.31 -1.27 1878
0.04 -0.00 4.10 5.95 8.15 -1.95 -0.23 -1.11 1884
0.05 -0.00 4.07 5.26 8.83 -2.06 -0.11 -0.98 1890
0.05 -0.00 4.21 4.39 9.43 -2.15 -0.00 -0.82 1896
0.07 -0.01 4.22 3.63 9.86 -2.25 0.12 -0.66 1902
0.06 -0.01 4.17 2.89 10.14 -2.34 0.24 -0.51 1908
0.05 -0.00 4.16 2.11 10.44 -2.41 0.37 -0.35 1915
0.05 -0.01 3.99 1.28 10.75 -2.48 0.47 -0.20 1922
0.05 -0.01 3.72 0.34 10.88 -2.53 0.54 -0.05 1928
0.05 -0.01 3.46 -0.23 11.10 -2.53 0.61 0.10 1934
0.05 -0.00 3.28 -0.95 11.11 -2.51 0.68 0.25 1940
0.06 -0.01 3.04 -1.50 11.30 -2.48 0.72 0.34 1946
0.05 -0.01 2.78 -1.89 11.53 -2.43 0.75 0.45 1953
0.06 -0.01 2.63 -2.12 11.85 -2.39 0.78 0.53 1959
0.06 -0.01 2.44 -2.25 12.25 -2.36 0.80 0.59 1966
0.06 -0.01 2.20 -2.39 12.82 -2.33 0.83 0.62 1972
0.06 -0.01 2.00 -2.50 13.54 -2.33 0.85 0.64 1978
0.07 -0.01 1.85 -2.58 14.01 -2.33 0.89 0.65 1984
0.06 -0.01 1.73 -2.76 14.58 -2.36 0.91 0.66 1991
0.05 -0.01 1.55 -2.98 14.71 -2.41 0.93 0.67 1997
0.07 -0.01 1.28 -3.17 14.90 -2.47 0.94 0.67 2003
0.06 -0.01 1.09 -3.57 14.85 -2.52 0.92 0.67 2010
0.05 -0.01 1.00 -4.09 14.75 -2.55 0.92 0.67 2016
0.06 -0.01 0.92 -4.55 14.62 -2.55 0.89 0.64 2022
0.06 -0.01 0.96 -4.89 14.17 -2.53 0.87 0.61 2029
0.06 -0.01 1.02 -5.27 13.75 -2.48 0.86 0.55 2035
0.06 0.00 1.27 -5.59 13.51 -2.42 0.86 0.49 2041
0.06 -0.01 1.36 -5.78 13.38 -2.33 0.86 0.42 2048
0.06 -0.01 1.36 -5.83 13.18 -2.23 0.84 0.36 2054
0.06 -0.01 1.23 -5.97 13.11 -2.13 0.82 0.31 2060
0.07 -0.01 1.09 -6.74 13.09 -2.03 0.78 0.29 2067
0.06 -0.01 0.96 -6.28 13.29 -1.92 0.71 0.27 2073
0.06 -0.01 1.01 -6.39 13.80 -1.82 0.65 0.26 2079
0.07 -0.01 1.30 -6.29 14.34 -1.75 0.64 0.26 2085
0.06 -0.01 1.77 -6.16 14.67 -1.75 0.70 0.26 2092
0.07 -0.01 2.04 -6.09 14.60 -1.79 0.82 0.28 2098
0.08 -0.01 2.09 -6.24 14.06 -1.85 0.98 0.30 2104
0.08 -0.01 1.80 -6.45 13.73 -1.91 1.11 0.35 2111
0.07 -0.01 1.43 -6.70 13.31 -1.93 1.17 0.40 2117
0.08 0.00 0.80 -6.83 12.69 -1.90 1.20 0.47 2123
0.08 -0.01 0.25 -7.00 12.16 -1.84 1.17 0.52 2129
0.08 -0.01 -0.18 -7.10 11.06 -1.74 1.12 0.59 2136
0.08 -0.00 -0.61 -7.04 11.25 -1.62 1.05 0.67 2143
0.08 -0.01 -0.97 -6.94 11.02 -1.50 0.98 0.74 2149
0.08 -0.01 -1.39 -6.89 10.75 -1.39 0.90 0.82 2155
0.07 -0.01 -1.75 -6.88 10.47 -1.28 0.79 0.90 2161
0.08 -0.01 -2.12 -6.99 10.26 -1.15 0.65 0.97 2167
0.08 -0.01 -2.47 -7.21 10.21 -1.07 0.44 1.03 2173
0.07 -0.01 -2.58 -7.33 10.11 -0.96 0.23 1.07 2181
0.10 -0.01 -2.77 -7.64 9.70 -0.84 0.01 1.10 2187
0.08 -0.00 -2.59 -8.54 9.38 -0.72 -0.22 1.10 2193
0.07 -0.00 -2.11 -8.44 9.23 -0.60 -0.39 1.07 2199
0.08 0.00 -1.19 -8.85 9.36 -0.49 -0.46 1.01 2205
0.08 -0.00 -0.08 -9.11 9.78 -0.45 -0.41 0.94 2211
0.08 -0.01 0.78 -9.42 9.83 -0.46 -0.23 0.84 2217
0.08 -0.00 1.10 -9.77 9.64 -0.52 0.01 0.73 2225
0.09 -0.01 0.76 -10.18 8.96 -0.59 0.25 0.64 2231
0.08 -0.01 -0.58 -10.89 8.38 -0.62 0.40 0.56 2237
0.08 -0.00 -1.02 -15.98 7.74 -0.56 0.46 0.50 2243
0.09 -0.01 -3.44 -14.16 14.02 0.09 0.24 0.38 2249
0.08 -0.01 -3.93 -12.24 1.04 0.17 0.20 0.37 2255
0.07 -0.01 -3.79 -15.28 5.99 0.47 -0.15 0.29 2263
0.09 -0.01 -3.26 -16.93 8.67 0.72 -0.55 0.19 2269
0.07 -0.01 -3.37 -17.63 7.50 0.98 -0.83 0.05 2275
0.06 -0.01 -2.73 -17.35 6.76 1.13 -0.98 -0.06 2281
0.06 -0.01 -2.95 -18.76 7.91 1.25 -1.22 -0.22 2287
0.05 -0.01 -3.42 -21.65 3.10 1.39 -1.16 -0.34 2293
0.04 0.03 -2.60 -26.99 0.51 1.52 -1.25 -0.42 2300
0.05 0.10 -2.48 -26.45 3.25 1.92 -1.46 -0.50 2307
0.03 0.35 0.56 -2.44 12.72 2.74 -1.63 -0.58 2313
0.02 0.60 1.77 -2.66 25.03 3.40 -1.89 -0.69 2319
0.01 0.83 4.46 -1.60 27.99 3.30 -1.93 -0.59 2326
0.01 0.91 5.21 -1.10 20.65 2.64 -1.41 -0.31 2332
-0.00 1.02 1.78 -2.01 19.56 2.34 -1.00 -0.12 2338
-0.01 1.05 -0.14 -3.41 19.45 2.18 -0.97 -0.05 2344
-0.01 1.02 -0.52 -2.55 17.26 1.28 -1.08 -0.06 2351
0.00 0.97 0.92 -1.47 12.22 0.42 -0.51 0.04 2358
0.01 0.94 0.27 -0.93 10.99 0.11 -0.16 0.08 2364
-0.00 0.92 0.61 -0.90 10.25 0.05 -0.10 0.07 2370
0.02 0.90 0.83 -0.74 9.90 0.05 -0.08 0.07 2376
0.04 0.89 0.66 -0.75 10.26 0.03 -0.05 0.09 2382
0.02 0.85 0.57 -0.96 10.16 0.01 -0.02 0.10 2390
0.04 0.88 0.63 -1.04 10.24 -0.01 -0.00 0.08 2396
0.03 0.92 0.64 -0.93 10.03 -0.03 0.00 0.07 2402
0.01 0.93 0.61 -0.74 9.94 -0.03 0.01 0.07 2408
0.03 0.96 0.05 -0.66 10.05 -0.04 0.01 0.07 2414
0.03 0.99 0.70 -0.74 9.90 -0.03 0.02 0.07 2420
0.03 0.99 0.68 -0.71 10.21 -0.03 0.01 0.07 2427
0.02 1.02 0.70 -0.71 10.06 -0.03 0.02 0.07 2434
0.04 1.02 0.63 -0.64 10.04 -0.03 0.02 0.08 2440
0.02 1.01 0.68 -0.68 10.20 -0.03 0.02 0.07 2446
0.04 1.00 0.65 -0.66 10.02 -0.03 0.02 0.07 2452
0.07 1.00 0.69 -0.67 10.31 -0.02 0.02 0.07 2458
0.07 0.96 0.64 -0.63 10.09 -0.01 0.03 0.07 2465
0.05 0.94 0.74 -0.67 10.09 -0.01 0.03 0.07 2471
0.06 0.93 0.76 -0.68 10.07 -0.00 0.02 0.08 2478
0.06 0.91 0.75 -0.67 9.94 0.00 0.02 0.08 2484
0.05 0.85 0.73 -0.62 10.01 0.01 0.02 0.07 2490
0.07 0.83 0.73 -0.68 9.99 0.01 0.01 0.07 2496
0.07 0.80 0.75 -0.66 9.96 0.01 0.01 0.07 2503
0.05 0.81 0.77 -0.64 10.01 0.01 0.01 0.07 2509
0.07 0.77 0.75 -0.66 10.03 0.02 0.00 0.07 2515
0.07 0.74 0.74 -0.66 9.98 0.02 0.00 0.07 2522
0.08 0.65 0.74 -0.64 10.00 0.02 -0.00 0.06 2528
0.08 0.60 0.79 -0.64 10.02 0.02 -0.01 0.06 2534
0.08 0.60 0.76 -0.67 9.99 0.02 -0.01 0.06 2541
0.08 0.51 0.79 -0.68 9.98 0.02 -0.01 0.06 2547
0.07 0.51 0.73 -0.68 9.99 0.02 -0.01 0.06 2553
0.09 0.46 0.71 -0.68 9.98 0.01 -0.01 0.06 2560
0.09 0.44 0.76 -0.70 9.94 0.01 -0.02 0.05 2566
0.08 0.43 0.75 -0.74 9.95 0.01 -0.02 0.06 2572
0.09 0.41 0.77 -0.71 10.01 0.01 -0.02 0.05 2578
0.10 0.37 0.75 -0.71 9.94 0.01 -0.02 0.06 2584
0.10 0.35 0.78 -0.66 9.99 0.01 -0.02 0.06 2591
0.10 0.36 0.74 -0.68 9.98 0.01 -0.03 0.06 2597
0.11 0.33 0.78 -0.67 9.95 0.01 -0.03 0.05 2604
0.11 0.26 0.75 -0.70 9.98 0.01 -0.04 0.05 2610
0.12 0.22 0.81 -0.70 9.96 0.01 -0.05 0.05 2616
0.14 0.23 0.78 -0.74 9.95 0.01 -0.05 0.05 2622
0.14 0.24 0.76 -0.71 9.92 0.01 -0.06 0.04 2628
0.16 0.19 0.75 -0.71 9.93 0.01 -0.06 0.04 2635
0.15 0.22 0.76 -0.71 9.92 0.00 -0.06 0.04 2641
0.17 0.20 0.77 -0.73 9.93 0.01 -0.07 0.04 2648
0.16 0.18 0.74 -0.74 9.98 0.00 -0.07 0.04 2654
0.15 0.15 0.72 -0.71 10.01 0.00 -0.07 0.04 2660
0.19 0.17 0.75 -0.74 9.98 -0.00 -0.07 0.04 2666
0.19 0.13 0.78 -0.76 9.97 0.00 -0.06 0.04 2673
0.20 0.12 0.72 -0.69 10.04 -0.00 -0.07 0.03 2679
0.22 0.11 0.72 -0.76 9.96 -0.00 -0.07 0.03 2685
0.23 0.12 0.75 -0.74 9.95 -0.01 -0.07 0.04 2692
0.22 0.07 0.72 -0.76 9.94 -0.01 -0.06 0.03 2698
0.23 0.07 0.72 -0.72 10.03 -0.01 -0.06 0.04 2704
0.24 0.09 0.68 -0.71 10.04 -0.00 -0.06 0.03 2710
0.27 0.06 0.78 -0.77 9.99 0.00 -0.05 0.03 2717
0.28 0.08 0.74 -0.71 10.01 0.00 -0.05 0.04 2723
0.33 0.07 0.77 -0.76 10.03 0.01 -0.05 0.03 2729
0.32 0.05 0.73 -0.73 9.99 0.01 -0.05 0.04 2736
0.34 0.04 0.73 -0.72 9.99 0.01 -0.04 0.03 2742
0.37 0.05 0.73 -0.75 9.98 0.01 -0.04 0.03 2748
0.37 0.04 0.72 -0.75 9.92 0.02 -0.03 0.03 2755
0.41 0.01 0.77 -0.78 10.03 0.02 -0.02 0.03 2761
0.41 0.03 0.77 -0.75 10.08 0.02 -0.02 0.03 2767
0.45 0.01 0.75 -0.74 10.10 0.03 -0.01 0.03 2774
0.47 -0.00 0.75 -0.76 10.04 0.04 -0.01 0.03 2780
0.53 0.01 0.71 -0.80 10.06 0.04 0.00 0.03 2786
0.58 -0.01 0.76 -0.82 10.10 0.05 0.01 0.02 2793
0.57 -0.03 0.77 -0.89 10.02 0.06 0.02 0.02 2799
0.58 -0.02 0.74 -0.88 10.08 0.08 0.03 0.02 2805
0.64 -0.04 0.72 -0.75 10.05 0.13 0.04 0.02 2811
0.69 -0.04 0.77 -0.85 10.12 0.12 0.06 0.02 2818
0.71 -0.04 0.80 -0.85 10.22 0.15 0.07 0.02 2825
0.74 -0.05 0.80 -0.87 10.22 0.20 0.08 0.02 2831
0.75 -0.05 0.85 -1.03 10.30 0.28 0.12 0.02 2837
0.77 -0.04 0.88 -0.91 10.66 0.39 0.18 0.01 2843
0.84 -0.05 1.02 -0.95 11.26 0.59 0.28 -0.01 2849
0.87 -0.06 1.07 -1.04 12.00 0.88 0.39 -0.03 2855
0.89 -0.05 1.12 -1.05 12.22 1.24 0.50 -0.05 2863
0.95 -0.05 1.20 -1.15 12.75 1.60 0.55 -0.09 2869
0.94 -0.06 1.25 -1.33 12.78 1.84 0.51 -0.12 2875
0.94 -0.04 1.11 -1.35 12.91 2.00 0.39 -0.15 2881
0.92 -0.05 1.08 -1.47 13.13 2.12 0.27 -0.15 2888
0.92 -0.04 0.92 -1.66 13.96 2.28 0.13 -0.14 2894
0.92 -0.05 1.22 -1.77 14.31 2.52 0.07 -0.14 2900
0.89 -0.05 1.83 -1.84 14.54 2.80 0.05 -0.17 2907
0.85 -0.04 1.75 -1.97 14.47 3.08 0.10 -0.23 2914
0.80 -0.04 1.53 -1.93 15.10 3.41 0.09 -0.25 2920
0.70 -0.04 1.62 -2.02 15.34 3.66 0.12 -0.24 2926
0.54 -0.01 1.42 -2.73 16.92 3.90 0.10 -0.29 2932
0.43 -0.01 1.25 -2.83 16.36 4.10 0.04 -0.46 2938
0.34 -0.01 2.55 -3.74 18.37 4.27 -0.16 -0.37 2946
0.29 0.01 2.72 -3.86 18.39 4.28 -0.28 -0.43 2952
0.23 -0.00 2.89 -5.06 15.84 4.28 -0.27 -0.47 2958
0.21 0.00 2.72 -6.53 18.79 4.28 -0.30 -0.48 2964
0.24 -0.00 2.84 -7.59 21.27 4.28 -0.25 -0.47 2971
0.16 -0.01 3.54 -8.23 23.79 4.28 -0.08 -0.44 2977
0.15 0.00 3.06 -7.05 25.26 4.27 -0.01 -0.43 2983
0.13 -0.01 2.77 -4.84 26.08 4.09 -0.21 -0.45 2990
0.11 -0.01 2.79 -2.86 26.48 3.64 -0.61 -0.51 2996
0.09 0.00 3.17 -0.22 23.50 3.38 -0.92 -0.54 3003
0.08 -0.01 3.88 2.74 17.11 3.27 -1.07 -0.54 3009
0.05 -0.00 5.73 8.62 15.37 3.13 -1.13 -0.65 3015
0.07 0.01 7.34 16.42 17.21 2.76 -1.10 -0.77 3021
0.07 -0.01 7.18 17.45 12.83 2.02 -0.86 -0.94 3027
0.07 -0.01 7.88 16.16 13.33 1.21 -0.76 -1.04 3035
0.08 -0.01 6.10 18.15 13.73 0.33 -0.57 -1.09 3041
0.06 -0.01 4.94 15.18 11.81 -0.12 -0.43 -1.15 3047
0.06 -0.01 4.09 12.83 9.26 -0.45 -0.50 -1.21 3053
0.06 -0.01 4.26 12.05 7.33 -0.65 -0.65 -1.27 3059
0.05 -0.01 3.72 11.30 5.86 -0.82 -0.74 -1.35 3066
0.06 -0.01 4.11 10.61 4.71 -0.98 -0.80 -1.40 3073
0.08 -0.01 4.62 10.01 4.00 -1.13 -0.77 -1.45 3079
0.06 -0.01 5.04 9.39 3.74 -1.26 -0.68 -1.47 3085
0.05 -0.00 5.33 8.87 4.19 -1.40 -0.53 -1.45 3091
0.05 -0.00 5.34 8.43 4.63 -1.56 -0.35 -1.40 3097
0.06 -0.01 5.30 8.07 5.04 -1.71 -0.18 -1.31 3103
0.05 -0.01 5.03 7.45 5.70 -1.83 -0.06 -1.17 3109
0.05 -0.01 4.88 6.73 6.31 -1.97 0.07 -1.00 3117
0.05 -0.01 4.76 6.06 7.03 -2.11 0.18 -0.85 3123
0.05 -0.01 4.98 5.08 7.36 -2.23 0.27 -0.66 3129
0.04 -0.00 4.94 4.17 7.63 -2.33 0.33 -0.48 3135
0.04 -0.00 4.93 3.26 7.91 -2.41 0.41 -0.31 3141
0.05 -0.00 4.94 2.28 8.16 -2.46 0.49 -0.15 3147
0.05 -0.00 4.90 1.43 8.72 -2.50 0.57 -0.01 3153
0.04 -0.00 4.81 0.83 9.27 -2.51 0.67 0.11 3160
0.04 -0.00 4.51 0.18 9.68 -2.52 0.77 0.25 3166
0.05 0.00 4.21 -0.38 10.14 -2.52 0.85 0.38 3173
0.04 -0.00 3.94 -0.83 10.74 -2.53 0.91 0.50 3179
0.04 -0.00 3.78 -1.34 11.45 -2.55 0.97 0.61 3185
0.05 0.00 3.56 -1.90 12.11 -2.57 1.03 0.72 3191
0.04 -0.00 3.36 -2.38 12.76 -2.59 1.07 0.80 3197
0.04 -0.00 3.18 -2.83 13.32 -2.61 1.09 0.88 3204
0.05 0.00 2.89 -3.27 13.85 -2.63 1.11 0.95 3211
0.05 -0.01 2.71 -3.57 14.26 -2.65 1.13 1.00 3217
0.04 -0.00 2.67 -3.90 14.68 -2.67 1.16 1.04 3223
0.05 -0.00 2.55 -4.14 14.93 -2.70 1.19 1.06 3229
0.05 -0.01 2.25 -4.59 15.09 -2.72 1.18 1.08 3235
0.04 -0.00 2.05 -5.02 15.18 -2.73 1.16 1.08 3241
0.05 -0.00 1.83 -5.55 15.01 -2.72 1.13 1.07 3249
0.06 -0.01 1.75 -5.96 14.94 -2.69 1.09 1.05 3255
0.05 -0.00 1.72 -6.35 14.64 -2.66 1.03 1.02 3261
0.03 0.00 1.49 -6.74 14.43 -2.61 0.91 0.97 3267
0.06 -0.01 2.40 -6.85 13.94 -2.53 0.88 0.95 3273
0.05 -0.00 2.11 -7.06 13.55 -2.43 0.87 0.92 3279
0.04 -0.00 2.22 -7.04 13.25 -2.31 0.85 0.88 3287
0.05 0.00 2.26 -7.33 13.12 -2.17 0.84 0.83 3293
0.05 -0.00 1.98 -7.53 12.84 -2.01 0.81 0.79 3299
0.04 -0.00 1.56 -7.59 12.89 -1.84 0.75 0.75 3305
0.05 0.00 1.23 -7.55 13.10 -1.69 0.65 0.72 3311
0.05 -0.01 1.10 -7.35 13.50 -1.54 0.55 0.69 3317
0.04 -0.00 1.31 -7.11 14.11 -1.45 0.48 0.67 3324
0.05 0.00 1.79 -6.85 14.63 -1.40 0.47 0.65 3331
0.05 -0.01 2.44 -6.52 14.99 -1.41 0.58 0.64 3337
0.05 -0.00 2.97 -6.15 15.26 -1.50 0.72 0.65 3343
0.05 0.00 3.21 -6.06 15.03 -1.63 0.95 0.67 3349
0.05 -0.01 2.86 -6.31 14.77 -1.76 1.17 0.73 3356
0.05 -0.00 2.03 -6.81 14.36 -1.87 1.32 0.75 3362
0.05 -0.00 0.95 -7.34 13.66 -1.91 1.35 0.82 3368
0.05 -0.01 -0.01 -7.77 12.75 -1.89 1.27 0.88 3375
0.05 -0.01 -0.88 -7.99 11.96 -1.83 1.16 0.96 3381
0.05 -0.00 -1.64 -8.23 11.46 -1.71 1.04 1.03 3387
0.06 -0.01 -2.10 -8.63 11.32 -1.63 0.89 1.08 3394
0.05 -0.01 -2.21 -9.27 11.00 -1.51 0.70 1.10 3400
0.04 -0.00 -2.01 -9.81 10.77 -1.37 0.54 1.08 3406
0.05 -0.01 -1.71 -10.10 10.28 -1.23 0.37 1.03 3412
0.05 -0.00 -1.62 -10.54 9.76 -1.10 0.23 0.94 3419
0.04 -0.00 -1.73 -11.12 9.25 -0.96 0.13 0.89 3425
0.05 -0.00 -1.88 -11.83 8.97 -0.83 0.00 0.79 3432
0.05 -0.00 -1.92 -12.58 8.70 -0.68 -0.13 0.66 3438
0.04 -0.00 -1.72 -13.18 8.46 -0.56 -0.24 0.54 3444
0.05 0.00 -1.23 -13.48 8.44 -0.46 -0.27 0.41 3450
0.05 -0.01 -0.57 -13.76 8.18 -0.37 -0.20 0.30 3457
0.05 -0.00 -0.22 -14.09 7.86 -0.37 -0.07 0.20 3463
0.05 -0.01 -0.16 -14.42 7.43 -0.35 0.09 0.11 3470
0.05 -0.01 -0.21 -14.74 7.21 -0.31 0.18 0.05 3476
0.05 -0.00 -0.40 -14.90 7.24 -0.25 0.26 0.02 3482
0.05 -0.00 -0.87 -14.79 7.14 -0.18 0.31 0.01 3488
0.06 -0.01 -1.47 -14.69 6.99 -0.11 0.28 0.03 3494
0.05 -0.00 -1.96 -14.60 6.76 -0.00 0.20 0.09 3501
0.04 -0.00 -4.07 -18.42 5.58 0.17 -0.01 0.17 3507
0.05 -0.00 -7.13 -15.68 14.83 1.15 -1.24 0.20 3514
0.05 -0.00 -3.69 -13.02 4.80 1.03 -1.11 0.32 3520
0.04 -0.00 -3.91 -16.38 4.68 1.31 -1.77 0.38 3526
0.05 -0.00 -2.01 -17.86 8.68 1.50 -1.94 0.39 3532
0.05 -0.00 -2.89 -16.45 7.02 1.65 -2.19 0.38 3538
0.04 -0.00 -1.83 -9.00 5.49 1.83 -2.33 0.41 3545
0.04 0.05 0.92 2.08 5.69 2.01 -2.06 0.46 3552
0.05 0.19 0.64 1.03 11.49 2.30 -1.68 0.54 3558
0.02 0.51 -2.64 1.19 21.01 2.53 -1.84 0.51 3564
0.01 0.73 -5.28 2.61 18.83 2.60 -1.93 0.25 3570
0.01 0.96 -3.67 -0.99 14.22 2.76 -1.83 -0.09 3576
-0.01 1.03 -1.14 -3.74 18.40 3.20 -1.35 -0.25 3584
0.00 1.03 -0.14 -4.16 31.86 3.39 -0.92 -0.30 3590
0.00 1.05 1.86 -1.47 18.14 0.60 -0.82 -0.16 3596
-0.01 1.03 1.56 -2.02 10.50 -0.03 -0.15 0.09 3602
0.00 1.02 0.70 -2.30 11.06 -0.03 -0.06 0.09 3609
0.01 1.01 0.89 -0.76 9.70 -0.02 -0.05 0.12 3615
-0.01 0.99 0.08 -0.19 9.98 0.01 -0.04 0.10 3621
0.01 0.99 0.41 -0.34 10.01 -0.00 -0.03 0.09 3628
0.01 1.01 0.67 -0.88 10.01 -0.03 -0.01 0.07 3634
0.03 1.03 0.69 -1.23 10.14 -0.04 -0.01 0.06 3640
0.03 1.05 0.59 -0.98 10.16 -0.05 -0.01 0.07 3647
0.03 1.07 0.54 -0.71 10.26 -0.04 -0.00 0.07 3653
0.02 1.07 0.67 -0.70 9.95 -0.04 0.00 0.06 3659
0.04 1.11 0.79 -0.70 10.04 -0.04 0.00 0.06 3665
0.07 1.12 0.60 -0.65 9.87 -0.04 0.01 0.07 3672
0.05 1.11 0.70 -0.71 10.02 -0.04 0.00 0.07 3678
0.06 1.09 0.65 -0.72 10.17 -0.04 0.00 0.06 3685
0.06 1.12 0.72 -0.70 10.11 -0.03 0.00 0.06 3691
0.07 1.08 0.74 -0.70 10.15 -0.03 0.00 0.06 3697
0.06 1.08 0.83 -0.08 10.10 -0.02 -0.00 0.06 3703
0.07 1.04 0.73 -0.65 10.09 -0.01 -0.01 0.06 3709
0.07 0.99 0.73 -0.67 10.08 0.00 -0.01 0.07 3716
0.08 0.94 0.76 -0.67 10.00 0.00 -0.02 0.06 3723
0.09 0.91 0.72 -0.69 9.99 0.01 -0.02 0.06 3729
0.08 0.88 0.73 -0.68 9.99 0.01 -0.02 0.07 3735
0.07 0.84 0.74 -0.67 10.05 0.01 -0.02 0.07 3741
0.10 0.80 0.75 -0.66 10.02 0.02 -0.02 0.06 3747
0.12 0.74 0.72 -0.67 9.99 0.02 -0.02 0.06 3753
0.11 0.71 0.72 -0.67 10.00 0.02 -0.02 0.06 3761
0.14 0.66 0.77 -0.66 10.01 0.02 -0.02 0.06 3767
0.15 0.60 0.81 -0.65 10.00 0.02 -0.02 0.06 3773
0.12 0.57 0.79 -0.69 9.98 0.02 -0.03 0.06 3779
0.15 0.53 0.79 -0.68 9.92 0.02 -0.03 0.06 3785
0.15 0.45 0.76 -0.71 9.95 0.02 -0.03 0.05 3791
0.15 0.40 0.74 -0.69 9.98 0.02 -0.03 0.05 3799
0.15 0.40 0.72 -0.70 9.93 0.02 -0.03 0.05 3805
0.17 0.34 0.78 -0.70 9.98 0.02 -0.03 0.04 3811
0.17 0.32 0.77 -0.68 9.94 0.02 -0.03 0.04 3817
0.17 0.27 0.74 -0.72 9.89 0.02 -0.03 0.05 3823
0.19 0.29 0.74 -0.72 9.97 0.02 -0.03 0.04 3829
0.20 0.23 0.74 -0.72 9.98 0.02 -0.03 0.05 3835
0.19 0.24 0.76 -0.73 10.00 0.02 -0.03 0.05 3843
0.20 0.21 0.74 -0.74 9.98 0.01 -0.03 0.05 3849
0.21 0.23 0.74 -0.74 9.98 0.01 -0.03 0.05 3855
0.21 0.21 0.78 -0.71 10.00 0.01 -0.03 0.05 3861
0.22 0.20 0.81 -0.74 9.99 0.01 -0.03 0.04 3867
0.24 0.14 0.79 -0.69 9.97 0.01 -0.04 0.04 3873
0.24 0.15 0.79 -0.78 10.02 0.01 -0.05 0.04 3879
0.25 0.11 0.77 -0.74 9.96 0.00 -0.05 0.04 3887
0.25 0.13 0.73 -0.73 9.97 -0.00 -0.05 0.03 3893
0.26 0.09 0.75 -0.74 9.95 -0.00 -0.05 0.03 3899
0.28 0.09 0.74 -0.74 10.00 -0.01 -0.06 0.03 3905
0.30 0.05 0.73 -0.78 9.97 -0.00 -0.05 0.03 3911
0.33 0.07 0.76 -0.73 10.01 0.00 -0.05 0.02 3917
0.34 0.06 0.80 -0.75 10.04 -0.00 -0.05 0.03 3924
0.36 0.07 0.81 -0.75 9.98 0.00 -0.05 0.03 3931
0.36 0.03 0.75 -0.77 9.98 0.01 -0.04 0.03 3937
0.40 0.04 0.74 -0.74 10.01 0.01 -0.04 0.03 3943
0.44 0.00 0.74 -0.75 10.02 0.01 -0.04 0.03 3949
0.46 0.01 0.78 -0.76 9.98 0.02 -0.03 0.02 3955
0.48 0.02 0.75 -0.80 10.03 0.02 -0.02 0.03 3961
0.51 0.00 0.76 -0.78 10.04 0.03 -0.02 0.02 3969
0.52 0.01 0.75 -0.75 10.04 0.03 -0.00 0.03 3975
0.56 0.01 0.78 -0.74 10.03 0.04 0.01 0.02 3981
0.62 -0.03 0.80 -0.79 10.10 0.05 0.02 0.02 3987
0.61 -0.02 0.69 -0.88 10.04 0.06 0.02 0.02 3993
0.64 -0.02 0.74 -0.84 10.03 0.07 0.04 0.02 4000
0.65 -0.04 0.78 -0.81 10.03 0.08 0.04 0.01 4006
0.66 -0.05 0.81 -0.82 10.04 0.09 0.05 0.01 4013
0.72 -0.04 0.90 -0.87 10.07 0.10 0.06 0.00 4019
0.74 -0.06 0.92 -0.88 10.10 0.11 0.06 -0.00 4025
0.77 -0.05 0.84 -0.86 10.13 0.14 0.07 -0.01 4031
0.82 -0.04 0.92 -0.84 10.20 0.19 0.09 -0.02 4038
0.85 -0.06 1.05 -0.91 10.31 0.25 0.12 -0.03 4044
0.86 -0.04 0.96 -0.93 10.60 0.35 0.17 -0.05 4050
0.90 -0.05 1.03 -1.02 10.67 0.52 0.24 -0.05 4057
0.92 -0.06 1.05 -1.02 11.09 0.73 0.33 -0.05 4063
0.92 -0.04 0.96 -1.15 11.42 0.98 0.37 -0.06 4070
0.92 -0.05 0.95 -1.18 11.46 1.24 0.42 -0.08 4076
0.91 -0.04 1.29 -1.24 11.94 1.41 0.41 -0.10 4082
0.91 -0.04 1.26 -1.32 12.55 1.55 0.39 -0.11 4088
0.87 -0.04 1.25 -1.36 12.98 1.68 0.33 -0.17 4096
0.82 -0.04 1.30 -1.67 13.01 1.83 0.25 -0.14 4102
0.77 -0.04 2.01 -1.77 13.14 2.03 0.10 -0.17 4108
0.70 -0.04 2.03 -1.75 14.54 2.29 -0.04 -0.25 4114
0.66 -0.03 1.89 -1.79 15.16 2.57 -0.11 -0.32 4120
0.58 -0.02 1.54 -1.92 15.37 2.87 -0.19 -0.37 4127
0.50 -0.02 1.91 -2.12 16.28 3.20 -0.24 -0.40 4133
0.41 -0.02 1.88 -2.30 17.00 3.57 -0.33 -0.45 4140
0.35 -0.01 2.84 -3.00 18.31 3.88 -0.43 -0.47 4146
0.27 -0.01 3.33 -3.21 17.71 4.10 -0.51 -0.53 4153
0.21 -0.00 3.37 -3.27 17.38 4.24 -0.61 -0.58 4159
0.14 -0.00 2.71 -3.93 16.93 4.28 -0.46 -0.65 4165
0.16 0.01 2.77 -4.96 17.21 4.28 -0.21 -0.67 4171
0.15 -0.00 4.32 -6.36 20.82 4.28 -0.12 -0.69 4178
0.12 -0.01 4.83 -6.47 22.77 4.28 -0.04 -0.73 4185
0.11 -0.00 5.21 -4.53 25.73 4.15 -0.09 -0.81 4191
0.11 -0.01 4.83 -1.80 27.38 3.81 -0.38 -0.91 4197
0.07 -0.01 3.15 0.25 25.82 3.48 -0.65 -0.97 4203
0.06 -0.01 3.98 5.89 20.63 3.11 -0.79 -1.00 4209
0.07 -0.01 3.72 6.87 14.43 2.72 -0.81 -1.02 4216
0.05 -0.00 5.11 11.54 11.13 2.35 -0.76 -1.05 4222
0.05 -0.01 3.54 18.52 10.34 1.81 -0.61 -1.23 4229
0.06 -0.01 5.58 11.61 7.41 1.17 -0.39 -1.41 4235
0.07 -0.01 4.65 14.63 11.53 0.46 -0.23 -1.48 4241
0.08 -0.01 2.97 12.94 10.32 -0.02 -0.02 -1.59 4248
0.07 -0.01 2.14 10.45 8.03 -0.27 -0.04 -1.67 4254
0.05 -0.01 1.56 9.60 5.77 -0.38 -0.19 -1.69 4260
0.04 -0.00 1.49 9.22 4.61 -0.47 -0.35 -1.66 4267
0.05 -0.00 1.97 9.11 3.94 -0.57 -0.46 -1.61 4273
0.04 -0.00 2.68 8.79 4.10 -0.65 -0.50 -1.51 4279
0.05 -0.00 3.26 8.46 3.78 -0.72 -0.51 -1.45 4285
0.05 -0.01 3.58 8.35 4.41 -0.81 -0.45 -1.34 4291
0.06 -0.01 3.84 8.21 4.25 -0.91 -0.35 -1.20 4298
0.05 -0.01 3.72 7.88 4.41 -1.03 -0.25 -1.04 4304
0.05 -0.01 3.65 7.40 4.68 -1.09 -0.16 -0.87 4311
0.07 -0.01 3.53 6.83 5.47 -1.16 -0.09 -0.70 4317
0.05 -0.01 3.44 6.44 6.49 -1.23 -0.04 -0.56 4323
0.05 -0.00 3.34 5.93 7.29 -1.29 -0.00 -0.41 4329
0.05 -0.00 3.29 5.55 8.30 -1.37 0.02 -0.28 4335
0.07 -0.01 3.33 5.40 9.15 -1.49 0.06 -0.16 4341
0.05 -0.01 3.44 5.10 9.80 -1.62 0.15 -0.05 4347
0.06 -0.01 3.47 4.65 10.19 -1.80 0.27 0.05 4355
0.06 -0.01 3.43 3.98 10.52 -1.99 0.43 0.15 4361
0.06 -0.01 3.21 3.12 10.79 -2.15 0.56 0.21 4367
0.05 -0.00 2.81 2.14 10.93 -2.27 0.66 0.26 4373
0.05 -0.01 2.51 1.28 11.09 -2.34 0.71 0.31 4379
0.07 -0.01 2.25 0.48 11.05 -2.38 0.74 0.36 4385
0.05 -0.01 2.01 -0.03 11.37 -2.38 0.76 0.41 4392
0.04 -0.00 1.88 -0.37 11.77 -2.37 0.75 0.45 4399
0.05 -0.00 1.78 -0.62 12.14 -2.36 0.75 0.50 4405
0.05 -0.01 1.73 -0.83 12.42 -2.34 0.75 0.54 4411
0.04 -0.00 1.64 -1.06 12.72 -2.32 0.74 0.57 4417
0.06 -0.00 1.43 -1.38 13.35 -2.29 0.73 0.60 4423
0.06 -0.01 1.20 -1.68 14.00 -2.28 0.71 0.61 4430
0.05 -0.00 1.24 -2.11 15.25 -2.28 0.69 0.61 4436
0.05 -0.01 1.37 -2.44 15.45 -2.31 0.68 0.58 4443
0.06 -0.01 1.65 -2.86 15.92 -2.37 0.67 0.55 4449
0.06 -0.01 1.95 -3.12 16.08 -2.45 0.68 0.49 4455
0.07 -0.00 2.32 -3.42 16.01 -2.55 0.70 0.43 4461
0.06 -0.01 2.64 -3.89 15.75 -2.62 0.74 0.37 4468
0.06 -0.01 2.87 -4.39 15.45 -2.67 0.81 0.32 4474
0.06 -0.01 3.03 -4.91 15.11 -2.70 0.90 0.29 4481
0.07 -0.01 3.14 -5.38 15.03 -2.68 0.94 0.26 4487
0.06 -0.01 3.09 -5.79 14.80 -2.64 1.01 0.25 4493
0.05 -0.01 3.07 -6.12 14.75 -2.57 1.04 0.24 4499
0.06 -0.01 2.97 -6.37 14.53 -2.49 1.05 0.25 4506
0.05 -0.01 2.87 -6.60 14.06 -2.41 1.06 0.27 4512
0.04 -0.00 2.84 -6.79 13.80 -2.31 1.06 0.30 4518
0.05 -0.00 2.64 -6.90 13.63 -2.21 1.05 0.33 4525
0.06 -0.01 2.34 -6.93 13.33 -2.09 1.03 0.37 4531
0.05 -0.00 2.06 -6.87 13.09 -2.01 1.01 0.41 4537
0.06 -0.01 1.28 -6.81 12.83 -1.90 0.99 0.46 4544
0.06 -0.01 1.73 -6.62 12.99 -1.79 0.97 0.50 4550
0.06 -0.01 1.49 -6.48 13.20 -1.70 0.96 0.54 4556
0.06 -0.01 1.31 -6.18 13.14 -1.64 0.98 0.59 4562
0.06 -0.01 1.12 -6.08 13.45 -1.60 0.99 0.64 4569
0.06 -0.01 0.75 -5.73 13.44 -1.61 1.00 0.69 4575
0.06 -0.01 0.51 -5.65 13.77 -1.65 1.03 0.74 4582
0.07 -0.01 0.42 -5.61 13.61 -1.71 1.05 0.78 4588
0.06 -0.01 0.33 -5.74 13.44 -1.77 1.05 0.81 4594
0.05 -0.01 0.20 -6.03 12.96 -1.84 1.05 0.84 4600
0.06 -0.01 0.05 -6.34 12.58 -1.88 1.05 0.85 4606
0.06 -0.01 -0.11 -7.34 11.94 -1.89 1.03 0.86 4613
0.05 -0.01 -0.17 -7.25 11.18 -1.84 1.00 0.85 4619
0.06 -0.00 -0.23 -7.87 10.61 -1.75 0.96 0.82 4626
0.06 -0.01 -0.21 -8.43 10.03 -1.61 0.93 0.78 4632
0.05 -0.01 -0.19 -9.01 9.61 -1.44 0.89 0.72 4638
0.06 -0.01 -0.10 -9.49 9.28 -1.25 0.85 0.65 4644
0.08 -0.01 -0.05 -9.88 9.14 -1.09 0.81 0.57 4651
0.06 -0.01 -0.10 -10.24 9.06 -0.90 0.79 0.49 4657
0.06 -0.01 -0.45 -11.02 9.18 -0.73 0.76 0.42 4663
0.06 -0.00 -0.96 -10.46 9.48 -0.61 0.73 0.38 4670
0.06 -0.01 -1.59 -10.68 9.68 -0.53 0.68 0.35 4676
0.05 -0.01 -1.86 -10.97 9.77 -0.49 0.59 0.33 4682
0.07 -0.00 -1.73 -11.28 9.77 -0.49 0.50 0.31 4688
0.07 -0.01 -1.70 -11.46 9.35 -0.51 0.45 0.31 4695
0.07 -0.01 -1.87 -11.89 8.64 -0.52 0.44 0.31 4702
0.07 0.00 -1.94 -12.49 7.83 -0.47 0.42 0.30 4708
0.07 -0.01 -2.06 -13.13 7.16 -0.35 0.38 0.28 4714
0.07 -0.01 -2.61 -14.41 6.71 -0.23 0.29 0.26 4720
0.07 0.01 -8.51 -20.50 22.16 0.43 -0.49 0.27 4726
0.07 -0.01 -3.33 -13.10 2.68 0.90 -0.70 0.30 4733
0.06 -0.01 -6.46 -16.89 4.73 1.21 -1.32 0.31 4740
0.06 0.00 -3.72 -16.34 7.30 1.58 -1.76 0.36 4746
0.06 -0.01 -4.44 -17.96 7.96 1.60 -1.90 0.41 4752
0.06 -0.01 -4.22 -18.95 5.21 1.87 -2.16 0.52 4758
0.07 0.07 -4.21 -16.81 2.81 2.02 -2.17 0.72 4764
0.05 0.13 0.52 -2.25 4.39 2.29 -1.99 0.88 4771
0.04 0.25 -0.04 1.30 8.18 2.69 -1.37 1.01 4777
0.04 0.59 -2.36 1.25 22.53 3.21 -1.18 1.04 4784
0.02 0.88 -5.21 3.35 20.03 3.30 -1.19 0.84 4790
0.00 1.09 -6.67 -0.91 17.15 3.36 -1.27 0.38 4796
0.01 1.18 -5.42 -3.93 19.88 3.52 -1.15 -0.03 4803
0.00 1.20 -3.42 -4.12 19.62 3.40 -0.94 -0.34 4809
0.01 1.18 -0.89 -3.47 22.35 3.13 -0.75 -0.61 4815
0.02 1.17 4.01 -2.98 24.01 2.66 -0.97 -0.68 4822
0.00 1.16 5.15 -2.13 19.11 1.34 -1.43 -0.38 4829
0.02 1.20 3.23 -2.00 10.92 0.54 -0.78 0.07 4835
0.02 1.16 0.82 -1.66 11.09 0.42 -0.59 0.21 4841
0.01 1.11 0.23 -0.61 10.94 0.30 -0.42 0.21 4847
0.03 1.10 -0.12 -0.51 10.73 0.12 -0.22 0.13 4854
0.01 1.13 0.18 -0.81 10.20 0.02 -0.10 0.07 4860
0.01 1.13 0.83 -1.18 10.28 -0.01 -0.06 0.06 4867
0.01 1.16 1.06 -1.10 10.01 -0.01 -0.04 0.08 4873
0.01 1.16 0.78 -0.83 10.07 -0.01 -0.03 0.09 4879
0.03 1.19 0.57 -0.68 9.97 -0.02 -0.03 0.07 4885
0.02 1.21 0.73 -0.80 10.00 -0.03 -0.03 0.06 4892
0.01 1.21 0.81 -0.81 9.99 -0.03 -0.03 0.06 4898
0.00 1.21 0.83 -0.72 10.08 -0.03 -0.03 0.06 4904
0.05 1.23 0.54 -0.73 9.79 -0.02 -0.03 0.06 4911
0.03 1.19 0.69 -0.72 10.17 -0.02 -0.03 0.05 4917
0.00 1.18 0.74 -0.70 9.98 -0.02 -0.07 0.05 4923
0.04 1.17 0.71 -0.75 10.06 -0.02 -0.03 0.06 4930
0.05 1.17 0.69 -0.71 10.07 -0.02 -0.02 0.06 4936
0.05 1.10 0.74 -0.71 10.04 -0.00 -0.01 0.07 4942
0.05 1.10 0.77 -0.71 10.01 0.00 -0.00 0.07 4948
0.05 1.02 0.78 -0.75 10.01 0.01 -0.00 0.07 4955
0.04 0.98 0.79 -0.69 9.97 0.01 -0.00 0.07 4961
0.06 0.96 0.76 -0.70 9.98 0.01 -0.01 0.07 4968
0.09 0.87 0.79 -0.67 9.98 0.01 -0.01 0.07 4974
0.08 0.76 0.74 -0.68 9.96 0.02 -0.01 0.07 4980
0.06 0.74 0.77 -0.71 9.95 0.02 -0.01 0.06 4986
0.10 0.69 0.80 -0.69 9.87 0.02 -0.01 0.06 4993
0.10 0.67 0.82 -0.73 9.93 0.02 -0.01 0.06 4999
0.10 0.61 0.84 -0.71 9.97 0.02 -0.01 0.06 5005
0.12 0.62 0.82 -0.77 9.93 0.02 -0.02 0.06 5012
0.14 0.54 0.84 -0.70 9.95 0.02 -0.02 0.05 5018
0.13 0.47 0.81 -0.74 9.96 0.02 -0.03 0.05 5024
0.11 0.45 0.80 -0.75 9.97 0.02 -0.03 0.05 5030
0.14 0.41 0.78 -0.78 9.98 0.02 -0.03 0.05 5037
0.16 0.40 0.77 -0.75 10.03 0.02 -0.03 0.05 5043
0.17 0.35 0.80 -0.75 10.00 0.02 -0.03 0.05 5049
0.16 0.31 0.77 -0.76 9.98 0.02 -0.03 0.05 5056
0.17 0.24 0.79 -0.79 10.01 0.02 -0.03 0.06 5062
0.18 0.29 0.82 -0.81 9.99 0.02 -0.02 0.06 5068
0.19 0.29 0.87 -0.73 9.95 0.02 -0.03 0.05 5074
0.21 0.27 0.86 -0.75 9.90 0.02 -0.03 0.04 5081
0.20 0.24 0.86 -0.74 9.97 0.01 -0.03 0.05 5087
0.19 0.22 0.83 -0.76 9.97 0.01 -0.05 0.04 5094
0.20 0.21 0.86 -0.77 9.93 0.01 -0.05 0.04 5100
0.22 0.19 0.81 -0.74 9.96 0.01 -0.06 0.04 5106
0.24 0.17 0.81 -0.79 9.92 0.01 -0.06 0.04 5112
0.26 0.12 0.80 -0.77 9.93 0.00 -0.06 0.03 5118
0.29 0.12 0.80 -0.77 10.03 0.00 -0.06 0.03 5125
0.29 0.05 0.79 -0.76 10.00 0.00 -0.05 0.03 5131
0.26 0.07 0.78 -0.78 10.04 0.01 -0.05 0.03 5138
0.31 0.08 0.81 -0.77 9.99 0.01 -0.04 0.03 5144
0.31 0.03 0.76 -0.76 10.01 0.01 -0.03 0.03 5150
0.33 0.04 0.79 -0.79 9.95 0.01 -0.02 0.03 5156
0.33 0.05 0.80 -0.81 10.02 0.02 -0.01 0.04 5163
0.38 0.02 0.80 -0.79 10.04 0.02 -0.00 0.04 5169
0.38 0.02 0.81 -0.81 10.02 0.02 0.00 0.04 5176
0.40 -0.00 0.77 -0.84 10.08 0.02 0.01 0.03 5182
0.44 -0.00 0.87 -0.81 10.05 0.03 0.01 0.03 5188
0.47 -0.02 0.83 -0.80 10.04 0.04 0.02 0.03 5194
0.47 0.00 0.84 -0.77 10.04 0.04 0.03 0.03 5200
0.49 -0.01 0.81 -1.07 9.93 0.04 0.03 0.03 5207
0.51 -0.00 0.94 -0.77 10.19 0.04 0.04 0.02 5214
0.54 -0.01 0.79 -0.92 10.16 0.06 0.04 0.02 5220
0.58 -0.04 0.88 -0.80 10.08 0.07 0.05 0.01 5226
0.59 -0.04 0.89 -0.82 10.06 0.09 0.06 0.01 5232
0.64 -0.04 0.82 -1.14 10.09 0.11 0.07 0.00 5238
0.68 -0.04 0.94 -0.85 10.13 0.12 0.06 -0.01 5245
0.73 -0.05 0.97 -0.93 10.19 0.16 0.08 -0.02 5252
0.77 -0.04 1.06 -0.95 10.21 0.21 0.09 -0.03 5258
0.80 -0.05 1.03 -1.08 10.35 0.27 0.12 -0.04 5264
0.81 -0.05 1.00 -1.03 10.58 0.38 0.17 -0.04 5270
0.87 -0.03 1.10 -1.05 10.67 0.55 0.23 -0.05 5277
0.89 -0.05 1.06 -1.04 11.35 0.80 0.29 -0.05 5283
0.90 -0.05 1.12 -1.12 11.68 1.00 0.35 -0.07 5289
0.94 -0.05 1.04 -1.22 11.82 1.24 0.35 -0.08 5296
0.97 -0.05 1.06 -1.38 12.15 1.43 0.31 -0.09 5302
1.00 -0.05 0.63 -1.37 11.97 1.56 0.24 -0.10 5309
1.00 -0.05 1.19 -1.36 12.42 1.67 0.18 -0.12 5315
1.00 -0.06 0.99 -1.54 12.48 1.78 0.10 -0.12 5321
0.98 -0.04 0.97 -1.82 12.90 1.92 0.04 -0.12 5327
0.98 -0.04 1.34 -1.38 13.60 2.10 -0.05 -0.12 5334
0.91 -0.04 1.83 -1.98 13.75 2.35 -0.09 -0.12 5341
0.84 -0.04 2.08 -2.11 14.39 2.63 -0.06 -0.21 5347
0.78 -0.04 1.81 -2.16 14.36 2.90 -0.02 -0.28 5353
0.68 -0.03 0.99 -3.75 14.69 3.18 -0.01 -0.40 5359
0.55 -0.02 1.80 -2.19 17.01 3.57 -0.02 -0.36 5366
0.44 -0.02 2.67 -2.74 17.34 3.87 0.02 -0.38 5372
0.34 -0.01 2.82 -3.09 18.82 4.16 -0.12 -0.45 5379
0.28 -0.01 3.60 -3.67 19.70 4.28 -0.29 -0.51 5385
0.23 -0.01 4.08 -4.74 21.13 4.28 -0.32 -0.62 5392
0.21 0.01 4.66 -6.00 20.94 4.28 -0.43 -0.72 5398
0.18 -0.00 4.25 -7.08 19.66 4.28 -0.49 -0.78 5404
0.15 -0.00 4.77 -7.13 20.35 4.28 -0.11 -0.75 5410
0.19 -0.02 4.57 -5.34 21.49 4.26 0.18 -0.75 5416
0.11 -0.01 4.13 -4.54 24.11 4.10 0.14 -0.82 5424
0.12 -0.01 2.84 -1.98 25.14 3.84 -0.30 -0.91 5430
0.11 -0.01 2.90 2.30 25.17 3.49 -0.61 -0.97 5436
0.09 -0.01 3.61 5.96 22.25 3.26 -0.82 -1.00 5442
0.09 -0.01 2.72 2.62 16.54 3.04 -0.92 -1.03 5448
0.09 -0.01 3.57 8.50 15.37 2.88 -1.07 -1.03 5454
0.09 -0.01 6.97 26.36 11.12 2.37 -0.90 -1.21 5462
0.06 -0.01 6.63 14.00 7.93 1.49 -0.61 -1.43 5468
0.07 -0.00 6.22 15.90 11.45 0.49 -0.37 -1.55 5474
0.08 -0.01 5.17 17.80 10.55 -0.25 -0.00 -1.68 5480
0.06 -0.01 3.91 13.56 8.97 -0.56 0.14 -1.82 5486
0.07 -0.01 2.50 11.26 6.50 -0.68 0.06 -1.90 5493
0.06 -0.01 1.60 11.02 5.04 -0.76 -0.05 -1.91 5499
0.05 -0.01 1.68 10.74 4.33 -0.85 -0.16 -1.88 5506
0.05 -0.01 2.28 10.28 4.50 -0.98 -0.33 -1.83 5512
0.06 -0.01 3.06 9.78 5.33 -1.10 -0.44 -1.77 5518
0.05 -0.01 3.84 9.23 5.60 -1.22 -0.48 -1.67 5524
0.05 -0.00 4.35 8.75 6.01 -1.36 -0.45 -1.55 5530
0.06 -0.01 4.51 8.40 6.31 -1.51 -0.37 -1.40 5536
0.07 -0.01 4.66 7.95 6.58 -1.65 -0.23 -1.23 5543
0.06 -0.01 4.84 7.44 6.92 -1.82 -0.10 -1.05 5550
0.05 -0.00 5.08 6.25 7.53 -1.99 0.07 -0.87 5556
0.07 -0.01 5.13 5.98 8.04 -2.15 0.28 -0.73 5562
0.05 -0.00 5.03 5.02 8.61 -2.29 0.49 -0.56 5568
0.05 -0.01 4.79 3.95 9.08 -2.41 0.68 -0.40 5574
0.05 -0.01 4.35 2.97 9.55 -2.49 0.83 -0.26 5580
0.07 -0.01 3.95 2.01 9.84 -2.55 0.94 -0.12 5586
0.05 -0.00 3.61 1.30 10.34 -2.59 1.01 0.01 5593
0.04 -0.00 3.28 0.58 10.81 -2.60 1.06 0.11 5600
0.04 -0.00 2.97 -0.09 11.15 -2.60 1.09 0.23 5606
0.04 -0.00 2.58 -0.68 11.74 -2.59 1.11 0.33 5612
0.04 -0.00 2.19 -1.23 12.30 -2.59 1.13 0.43 5618
0.05 -0.00 1.87 -1.80 12.91 -2.59 1.15 0.52 5624
0.05 -0.01 1.60 -2.51 13.42 -2.59 1.17 0.59 5630
0.04 -0.00 1.36 -3.13 13.77 -2.59 1.19 0.64 5638
0.04 -0.00 1.17 -3.78 14.02 -2.58 1.21 0.68 5644
0.05 -0.01 0.82 -4.14 14.20 -2.55 1.19 0.71 5650
0.04 -0.00 0.46 -4.24 14.40 -2.50 1.15 0.73 5656
0.03 -0.00 0.19 -4.26 14.55 -2.46 1.06 0.75 5662
0.05 -0.01 0.20 -3.97 14.87 -2.43 0.99 0.77 5668
0.05 -0.01 0.35 -3.79 15.13 -2.43 0.95 0.78 5676
0.05 -0.01 0.48 -3.69 15.37 -2.47 0.95 0.79 5682
0.04 -0.00 0.60 -3.80 15.56 -2.51 0.97 0.79 5688
0.05 -0.01 0.58 -4.19 15.57 -2.56 1.01 0.77 5694
0.05 -0.00 0.53 -4.78 15.56 -2.60 1.06 0.73 5700
0.04 -0.00 0.50 -5.27 15.19 -2.61 1.08 0.69 5706
0.06 -0.01 0.44 -5.61 14.77 -2.60 1.07 0.65 5712
0.05 -0.00 0.39 -5.86 14.47 -2.54 1.01 0.61 5720
0.04 -0.00 0.41 -6.22 14.26 -2.47 0.94 0.58 5726
0.05 0.00 0.36 -6.43 14.10 -2.37 0.87 0.58 5732
0.05 -0.01 0.40 -6.54 13.88 -2.27 0.79 0.60 5738
0.05 -0.00 0.29 -6.70 13.57 -2.15 0.72 0.65 5744
0.05 -0.01 0.20 -7.06 13.37 -2.03 0.65 0.72 5750
0.06 -0.01 0.13 -7.48 13.06 -1.88 0.58 0.80 5757
0.05 -0.01 0.14 -7.85 12.84 -1.72 0.52 0.88 5764
0.04 -0.00 0.17 -8.24 12.55 -1.53 0.44 0.96 5770
0.06 -0.01 0.16 -8.48 12.29 -1.34 0.37 1.02 5776
0.05 -0.01 0.33 -8.48 12.13 -1.16 0.33 1.09 5782
0.04 -0.00 0.75 -8.37 12.50 -1.02 0.35 1.16 5788
0.05 -0.01 1.25 -8.24 13.10 -0.94 0.44 1.21 5794
0.05 -0.01 1.39 -7.92 13.57 -0.94 0.56 1.24 5801
0.04 -0.00 1.09 -7.83 13.89 -1.01 0.68 1.27 5808
0.05 0.00 0.38 -7.88 14.39 -1.14 0.75 1.29 5814
0.05 -0.01 -0.57 -7.98 14.33 -1.31 0.74 1.32 5820
0.05 -0.01 -1.14 -8.16 13.48 -1.49 0.68 1.34 5826
0.05 0.01 -1.65 -8.66 12.24 -1.63 0.57 1.36 5833
0.06 -0.01 -1.99 -9.79 11.01 -1.69 0.47 1.37 5839
0.05 -0.00 -2.15 -9.80 10.11 -1.69 0.39 1.36 5846
0.05 -0.00 -2.14 -10.34 9.43 -1.64 0.31 1.32 5852
0.06 -0.01 -2.08 -11.02 8.40 -1.52 0.25 1.23 5858
0.05 -0.00 -1.86 -11.84 7.71 -1.35 0.22 1.12 5864
0.05 -0.00 -1.70 -12.54 7.24 -1.14 0.21 0.96 5871
0.05 -0.01 -1.60 -12.96 7.09 -0.93 0.21 0.77 5877
0.05 -0.00 -1.37 -13.27 7.00 -0.74 0.25 0.55 5883
0.06 -0.01 -1.17 -13.47 7.10 -0.63 0.32 0.31 5890
0.06 -0.01 -1.25 -13.51 7.33 -0.55 0.43 0.05 5896
0.06 -0.01 -1.45 -13.46 7.36 -0.51 0.49 -0.19 5902
0.05 -0.01 -1.68 -15.24 6.63 -0.50 0.57 -0.41 5909
0.06 -0.01 -3.72 -18.37 14.00 -0.14 0.38 -0.57 5915
0.05 -0.01 -3.11 -12.50 6.26 0.15 0.20 -0.74 5921
0.05 -0.01 -4.24 -16.42 6.51 0.23 -0.00 -0.83 5927
0.06 -0.01 -4.51 -18.13 7.99 0.62 -0.62 -0.90 5934
0.04 -0.00 -5.29 -17.36 6.53 0.81 -1.13 -0.95 5941
0.04 -0.00 -4.85 -18.03 4.23 0.95 -1.62 -0.98 5947
0.06 -0.00 -3.66 -20.47 3.50 1.13 -2.09 -0.96 5953
0.04 0.04 -2.18 -20.83 0.45 1.31 -2.04 -0.81 5959
0.04 0.11 -0.57 -17.54 0.26 1.59 -1.89 -0.54 5965
0.04 0.24 3.71 -0.19 6.92 2.26 -1.36 -0.26 5972
0.02 0.57 2.91 -1.90 19.98 3.16 -1.29 -0.11 5979
0.01 0.86 0.20 1.14 24.34 3.49 -1.41 -0.08 5985
0.01 1.08 0.61 -0.01 18.63 3.33 -1.33 -0.13 5991
-0.02 1.14 0.38 -2.84 18.37 3.26 -1.25 -0.19 5997
-0.01 1.17 0.58 -4.62 21.83 3.40 -0.98 -0.13 6004
-0.01 1.19 -1.33 -4.93 38.58 2.76 -1.63 -0.17 6010
-0.01 1.14 2.09 -2.63 12.01 0.36 -0.70 0.10 6017
0.00 1.21 -0.08 -2.99 11.77 0.04 -0.11 0.11 6023
0.00 1.23 0.37 -1.41 10.20 -0.01 -0.04 0.10 6030
-0.00 1.26 0.63 -0.61 9.85 0.03 -0.02 0.08 6036
0.01 1.22 0.77 -0.66 9.95 0.03 -0.02 0.08 6042
-0.00 1.21 0.74 -0.93 10.16 0.01 0.00 0.09 6048
0.00 1.20 0.73 -1.17 10.18 -0.01 0.01 0.10 6054
0.02 1.26 0.65 -1.10 10.14 -0.02 0.01 0.09 6061
0.00 1.26 0.71 -0.86 10.09 -0.03 0.01 0.08 6068
0.02 1.28 0.75 -0.85 10.01 -0.03 0.00 0.07 6074
0.04 1.25 0.81 -0.83 9.96 -0.03 -0.00 0.07 6080
0.02 1.26 0.74 -0.81 10.02 -0.03 -0.01 0.07 6086
0.00 1.26 0.74 -0.83 10.05 -0.02 -0.01 0.07 6092
0.02 1.25 0.71 -0.82 10.06 -0.02 -0.00 0.07 6098
0.00 1.26 0.75 -0.82 10.04 -0.02 -0.00 0.07 6106
0.00 1.21 0.71 -0.76 9.92 -0.01 -0.00 0.07 6112
0.01 1.20 0.72 -0.74 9.97 -0.00 -0.00 0.06 6118
0.01 1.15 0.77 -0.75 9.97 -0.00 -0.01 0.06 6124
0.00 1.13 0.80 -0.78 10.03 0.00 -0.01 0.06 6130
0.02 1.10 0.80 -0.79 10.01 0.01 -0.02 0.06 6136
0.03 1.07 0.81 -0.86 9.98 0.01 -0.03 0.06 6144
0.03 1.04 0.72 -0.78 9.98 0.01 -0.03 0.06 6150
0.03 1.00 0.72 -0.79 10.01 0.02 -0.03 0.06 6156
0.05 0.99 0.71 -0.77 10.00 0.02 -0.03 0.07 6162
0.04 0.92 0.76 -0.79 9.97 0.01 -0.02 0.07 6168
0.04 0.88 0.75 -0.78 9.99 0.01 -0.02 0.06 6174
0.06 0.79 0.72 -0.78 9.89 0.01 -0.02 0.07 6180
0.07 0.74 0.75 -0.80 9.98 0.01 -0.02 0.06 6188
0.08 0.71 0.77 -0.77 9.90 0.01 -0.02 0.06 6194
0.07 0.72 0.80 -0.83 9.90 0.01 -0.02 0.06 6200
0.08 0.66 0.76 -0.80 9.97 0.01 -0.02 0.06 6206
0.06 0.62 0.77 -0.79 9.91 0.00 -0.02 0.06 6212
0.05 0.56 0.75 -0.75 9.89 0.00 -0.02 0.05 6218
0.05 0.59 0.76 -0.80 9.92 0.00 -0.02 0.05 6224
0.06 0.54 0.73 -0.80 9.92 0.00 -0.02 0.05 6231
0.05 0.53 0.74 -0.81 9.96 -0.00 -0.02 0.05 6238
0.07 0.52 0.73 -0.81 9.99 -0.00 -0.03 0.05 6244
0.08 0.56 0.73 -0.81 9.93 -0.00 -0.02 0.05 6250
0.08 0.53 0.75 -0.78 10.02 -0.00 -0.02 0.06 6256
0.09 0.53 0.77 -0.80 10.02 -0.01 -0.02 0.06 6262
0.10 0.53 0.76 -0.82 9.92 -0.00 -0.02 0.05 6268
0.12 0.50 0.76 -0.80 9.91 -0.00 -0.02 0.05 6276
0.11 0.45 0.75 -0.80 9.92 -0.00 -0.02 0.05 6282
0.11 0.50 0.73 -0.82 9.90 -0.00 -0.02 0.05 6288
0.11 0.45 0.77 -0.82 9.91 -0.00 -0.02 0.05 6294
0.10 0.47 0.77 -0.80 9.95 -0.01 -0.02 0.05 6300
0.09 0.42 0.76 -0.83 9.93 -0.00 -0.02 0.05 6306
0.10 0.43 0.79 -0.81 9.94 -0.01 -0.03 0.05 6312
0.12 0.39 0.81 -0.81 9.90 -0.01 -0.03 0.04 6319
0.13 0.37 0.76 -0.84 9.98 -0.01 -0.04 0.05 6326
0.15 0.34 0.80 -0.85 9.94 -0.01 -0.05 0.05 6332
0.15 0.33 0.80 -0.82 9.99 -0.01 -0.05 0.04 6338
0.15 0.34 0.79 -0.81 9.94 -0.01 -0.05 0.04 6344
0.15 0.35 0.75 -0.81 9.95 -0.01 -0.05 0.05 6350
0.17 0.31 0.78 -0.81 9.95 -0.01 -0.05 0.04 6356
0.18 0.27 0.74 -0.78 10.00 -0.01 -0.05 0.04 6364
0.17 0.28 0.76 -0.83 9.96 -0.01 -0.05 0.04 6370
0.17 0.34 0.78 -0.80 9.98 -0.01 -0.04 0.04 6376
0.18 0.29 0.80 -0.80 10.02 -0.01 -0.04 0.04 6382
0.19 0.25 0.81 -0.83 9.93 -0.00 -0.05 0.03 6388
0.20 0.24 0.82 -0.81 9.94 -0.00 -0.06 0.03 6394
0.22 0.26 0.77 -0.77 9.94 0.00 -0.06 0.03 6401
0.22 0.22 0.85 -0.78 9.96 0.01 -0.06 0.03 6408
0.22 0.18 0.77 -0.80 9.92 0.01 -0.06 0.03 6414
0.23 0.18 0.80 -0.83 10.02 0.01 -0.06 0.02 6420
0.24 0.14 0.76 -0.84 10.01 0.02 -0.05 0.02 6426
0.24 0.08 0.77 -0.84 10.03 0.02 -0.04 0.02 6432
0.31 0.07 0.76 -0.86 10.04 0.03 -0.03 0.02 6438
0.34 0.05 0.80 -0.86 10.04 0.03 -0.02 0.03 6446
0.35 0.01 0.78 -0.84 10.05 0.03 -0.02 0.03 6452
0.42 0.04 0.78 -0.84 10.06 0.03 -0.01 0.03 6458
0.47 0.01 0.83 -0.90 10.09 0.05 -0.00 0.03 6464
0.49 -0.01 1.15 -0.74 10.35 0.05 0.00 0.02 6470
0.53 0.00 0.75 -0.88 10.06 0.07 0.02 0.02 6477
0.58 -0.02 0.83 -0.95 10.11 0.10 0.03 0.01 6483
0.60 -0.04 0.70 -0.73 9.94 0.14 0.06 0.01 6490
0.63 -0.04 1.11 -1.05 10.44 0.19 0.08 -0.01 6496
0.66 -0.05 1.17 -1.01 10.44 0.26 0.11 -0.04 6502
0.74 -0.05 1.44 -1.07 10.78 0.40 0.19 -0.08 6508
0.77 -0.03 1.25 -1.29 11.89 0.70 0.33 -0.12 6515
0.79 -0.05 1.33 -1.07 13.86 1.27 0.52 -0.17 6521
0.78 -0.04 1.62 -1.21 15.37 1.97 0.56 -0.22 6528
0.79 -0.04 2.05 -1.49 15.90 2.43 0.41 -0.30 6534
0.77 -0.04 1.89 -1.23 15.57 2.70 0.16 -0.37 6541
0.75 -0.03 1.91 -1.35 15.78 2.93 -0.04 -0.41 6547
0.69 -0.03 1.69 -1.44 16.48 3.16 -0.20 -0.45 6553
0.64 -0.02 2.28 -1.77 16.41 3.41 -0.32 -0.51 6559
0.52 -0.00 3.22 -2.40 15.95 3.73 -0.42 -0.55 6566
0.48 -0.01 3.05 -1.47 16.57 3.99 -0.54 -0.64 6573
0.39 -0.01 3.82 -3.36 16.53 4.14 -0.63 -0.71 6579
0.28 -0.01 3.84 -3.52 15.37 4.21 -0.63 -0.80 6585
0.21 -0.01 3.29 -3.48 15.21 4.27 -0.39 -0.87 6591
0.16 -0.00 2.49 -4.34 16.62 4.28 -0.11 -0.86 6598
0.15 -0.00 2.86 -4.91 21.06 4.28 -0.04 -0.81 6604
0.13 -0.01 3.62 -5.19 20.93 4.27 -0.04 -0.81 6610
0.10 0.00 6.09 -3.59 23.21 4.12 -0.03 -0.88 6617
0.11 -0.01 6.10 -1.13 26.29 3.78 -0.19 -1.00 6623
0.13 -0.01 4.56 1.10 24.54 3.31 -0.43 -1.07 6630
0.09 -0.00 3.91 2.59 20.68 2.86 -0.53 -1.06 6636
0.08 -0.01 2.34 5.43 16.48 2.57 -0.54 -1.08 6642
0.07 -0.01 2.84 6.57 13.30 2.26 -0.58 -1.11 6648
0.06 -0.00 5.22 17.55 11.94 1.83 -0.65 -1.14 6654
0.05 -0.01 4.66 11.09 9.31 1.21 -0.50 -1.16 6662
0.04 -0.00 6.04 12.25 11.26 0.76 -0.38 -1.18 6668
0.05 -0.01 5.67 12.40 10.47 0.31 -0.25 -1.23 6674
0.05 -0.01 4.73 10.62 7.69 0.01 -0.17 -1.28 6680
0.04 -0.00 4.03 10.22 5.82 -0.14 -0.13 -1.30 6686
0.05 -0.01 3.45 10.07 5.24 -0.32 -0.15 -1.28 6693
0.06 -0.01 3.19 9.56 4.99 -0.47 -0.15 -1.24 6700
0.05 -0.01 3.28 9.23 4.77 -0.64 -0.16 -1.18 6706
0.06 -0.01 3.32 8.89 4.92 -0.78 -0.17 -1.12 6712
0.07 -0.01 3.43 8.45 5.02 -0.91 -0.13 -1.03 6718
0.06 -0.01 3.52 8.21 4.78 -1.02 -0.06 -0.94 6724
0.05 -0.00 3.37 7.68 4.86 -1.13 0.03 -0.83 6730
0.05 -0.01 3.29 7.20 5.07 -1.23 0.08 -0.71 6736
0.07 -0.01 3.22 6.69 5.55 -1.33 0.17 -0.64 6743
0.06 -0.01 3.17 6.18 6.14 -1.42 0.27 -0.53 6750
0.04 -0.00 3.12 5.60 6.90 -1.51 0.36 -0.43 6756
0.05 -0.01 2.89 4.88 7.71 -1.63 0.44 -0.33 6762
0.06 -0.01 2.73 4.39 8.68 -1.70 0.49 -0.24 6768
0.05 -0.01 2.49 3.87 9.48 -1.82 0.53 -0.15 6774
0.04 -0.00 2.23 3.35 10.23 -1.95 0.57 -0.04 6780
0.05 0.00 2.01 2.67 10.61 -2.07 0.60 0.02 6787
0.05 -0.00 2.02 1.96 11.08 -2.19 0.61 0.11 6793
0.04 -0.00 2.08 1.27 11.47 -2.29 0.61 0.19 6800
0.05 -0.00 2.13 0.48 11.64 -2.37 0.62 0.25 6806
0.06 -0.01 2.28 -0.12 11.92 -2.41 0.62 0.31 6812
0.05 -0.00 2.48 -0.80 12.15 -2.44 0.64 0.36 6818
0.05 -0.00 2.54 -1.37 12.37 -2.45 0.65 0.40 6824
0.06 -0.01 2.74 -1.78 12.62 -2.45 0.67 0.44 6831
0.05 -0.00 2.79 -2.16 12.82 -2.43 0.70 0.50 6838
0.04 -0.00 2.96 -2.53 12.96 -2.40 0.72 0.50 6844
0.05 0.00 3.07 -2.78 13.24 -2.37 0.75 0.52 6850
0.05 -0.01 3.06 -3.01 13.56 -2.33 0.77 0.55 6856
0.04 -0.00 3.01 -3.23 13.84 -2.30 0.80 0.58 6862
0.06 -0.01 3.05 -3.49 14.08 -2.26 0.84 0.59 6868
0.06 -0.01 3.05 -3.79 14.32 -2.21 0.88 0.61 6876
0.06 -0.01 2.98 -3.99 14.48 -2.22 0.91 0.62 6882
0.07 -0.01 2.94 -4.20 14.62 -2.20 0.95 0.63 6888
0.07 -0.01 2.89 -4.46 14.64 -2.19 0.99 0.65 6894
0.07 -0.01 2.80 -4.58 14.44 -2.18 1.02 0.66 6900
0.07 -0.01 2.57 -4.86 14.33 -2.15 1.03 0.69 6906
0.08 -0.01 2.45 -5.08 14.19 -2.12 1.02 0.71 6914
0.06 -0.01 2.26 -5.14 14.15 -2.07 0.99 0.74 6920
0.06 -0.01 2.11 -5.16 14.14 -2.02 0.94 0.76 6926
0.07 -0.01 2.05 -5.11 14.06 -1.98 0.87 0.77 6932
0.07 -0.01 2.01 -5.15 13.88 -1.95 0.81 0.78 6938
0.06 -0.01 1.85 -5.06 13.79 -1.92 0.77 0.78 6944
0.07 -0.01 1.71 -5.07 13.59 -1.90 0.73 0.76 6951
0.07 -0.01 1.51 -5.08 13.32 -1.87 0.68 0.75 6958
0.06 -0.01 1.49 -5.19 13.03 -1.83 0.65 0.73 6964
0.07 -0.00 1.40 -5.27 12.80 -1.76 0.62 0.69 6970
0.06 -0.01 1.50 -5.41 12.66 -1.70 0.62 0.65 6976
0.07 -0.01 1.61 -5.55 12.59 -1.62 0.64 0.60 6982
0.07 0.00 1.65 -5.66 12.66 -1.56 0.72 0.55 6989
0.07 -0.00 1.85 -5.69 12.44 -1.50 0.83 0.49 6995
0.07 -0.01 1.74 -5.71 12.27 -1.47 0.96 0.43 7002
0.07 0.01 1.38 -5.78 12.33 -1.44 1.06 0.39 7008
0.07 -0.00 0.91 -5.80 12.50 -1.43 1.13 0.35 7014
0.06 -0.00 0.46 -5.84 12.44 -1.43 1.15 0.31 7021
0.07 -0.00 0.04 -5.97 12.19 -1.44 1.12 0.29 7027
0.07 -0.01 -0.21 -6.11 11.83 -1.45 1.07 0.26 7033
0.06 -0.01 -0.49 -6.27 11.19 -1.44 0.99 0.24 7040
0.07 -0.00 -0.80 -6.30 10.46 -1.41 0.93 0.23 7046
0.07 -0.01 -1.30 -6.39 9.86 -1.34 0.91 0.25 7052
0.07 -0.01 -1.84 -6.64 9.78 -1.25 0.92 0.29 7059
0.07 -0.00 -2.21 -6.96 9.87 -1.15 0.87 0.31 7065
0.08 -0.00 -2.22 -7.24 10.02 -1.04 0.76 0.29 7071
0.07 -0.01 -1.93 -7.59 9.90 -0.97 0.63 0.25 7077
0.06 -0.00 -1.54 -7.81 9.85 -0.91 0.53 0.20 7084
0.08 0.00 -1.16 -8.02 9.59 -0.88 0.48 0.14 7090
0.07 -0.01 -0.95 -8.38 9.10 -0.85 0.46 0.09 7096
0.06 -0.01 -0.79 -8.82 8.73 -0.80 0.46 0.04 7103
0.07 -0.00 -0.67 -9.56 8.14 -0.72 0.46 -0.02 7109
0.08 -0.00 -0.59 -10.17 7.76 -0.62 0.43 -0.08 7115
0.07 -0.01 -0.56 -10.69 7.58 -0.48 0.40 -0.14 7121
0.06 -0.01 -0.51 -10.90 7.56 -0.34 0.36 -0.18 7128
0.08 -0.00 -0.57 -10.86 7.57 -0.23 0.33 -0.20 7134
0.07 -0.01 -0.78 -10.73 7.66 -0.12 0.30 -0.19 7141
0.07 -0.00 -0.90 -10.67 7.80 -0.03 0.24 -0.15 7147
0.08 -0.00 -0.83 -10.55 7.90 0.05 0.19 -0.09 7153
0.07 -0.01 -0.85 -10.48 7.66 0.13 0.11 -0.02 7159
0.07 -0.00 -0.71 -10.47 7.66 0.23 0.04 0.05 7165
0.08 -0.01 -5.25 -17.02 17.34 0.57 -0.40 0.15 7173
0.06 -0.01 -3.99 -11.10 5.01 1.07 -1.12 0.24 7179
0.06 -0.01 -3.66 -10.58 7.62 1.28 -1.43 0.38 7185
0.07 -0.01 -3.48 -14.18 6.44 1.47 -2.08 0.51 7191
0.06 -0.01 -4.26 -14.26 7.65 1.59 -2.52 0.54 7197
0.05 -0.01 -3.48 -14.10 7.24 1.72 -2.81 0.61 7203
0.07 0.02 -0.89 -8.99 5.20 1.87 -2.87 0.69 7211
0.05 0.12 1.35 1.19 5.01 2.02 -2.36 0.79 7217
0.04 0.25 0.46 0.35 10.14 2.30 -1.78 0.96 7223
0.04 0.60 -3.70 0.56 19.67 2.63 -1.73 0.97 7229
0.02 0.92 -7.28 2.31 19.49 2.91 -1.84 0.71 7235
0.01 1.11 -6.05 -1.05 16.13 3.18 -1.92 0.26 7242
0.01 1.23 -3.65 -3.48 19.81 3.47 -1.70 -0.06 7248
-0.00 1.24 -3.26 -4.80 21.84 3.49 -1.33 -0.26 7255
-0.00 1.26 2.39 -5.70 39.42 2.95 -1.87 -0.39 7261
-0.01 1.24 2.30 -2.24 13.46 0.59 -1.24 0.01 7268
-0.01 1.29 0.88 -2.74 11.53 0.18 -0.38 0.17 7274
0.01 1.25 0.45 -1.54 9.97 0.08 -0.21 0.16 7280
0.00 1.21 0.29 -0.47 10.18 0.09 -0.15 0.15 7286
-0.00 1.23 0.48 -0.20 10.03 0.06 -0.11 0.12 7292
0.01 1.21 0.68 -0.62 9.98 0.03 -0.09 0.11 7300
0.01 1.17 0.89 -0.95 9.92 0.00 -0.06 0.10 7306
0.01 1.19 0.74 -1.10 10.12 -0.01 -0.04 0.11 7312
0.02 1.23 0.51 -0.93 10.26 -0.02 -0.02 0.10 7318
0.03 1.25 0.56 -0.74 10.01 -0.02 -0.02 0.08 7324
0.01 1.27 0.71 -0.72 9.96 -0.03 -0.02 0.07 7330
0.04 1.28 0.79 -0.72 9.93 -0.03 -0.02 0.07 7337
0.05 1.30 0.72 -0.76 10.04 -0.03 -0.02 0.08 7344
0.03 1.28 0.67 -0.69 10.02 -0.03 -0.02 0.07 7350
0.04 1.27 0.65 -0.75 9.91 -0.02 -0.01 0.07 7356
0.03 1.25 0.69 -0.69 10.03 -0.02 -0.01 0.07 7362
0.03 1.22 0.65 -0.67 10.06 -0.01 0.00 0.07 7368
0.04 1.18 0.67 -0.65 10.12 -0.01 0.00 0.08 7375
0.04 1.13 0.69 -0.68 10.05 -0.00 -0.00 0.08 7382
0.05 1.08 0.79 -0.68 10.08 0.00 0.00 0.08 7388
0.05 1.05 0.74 -0.69 10.03 0.01 -0.00 0.08 7394
0.05 1.01 0.71 -0.66 9.96 0.01 -0.00 0.08 7400
0.05 0.99 0.72 -0.70 10.03 0.01 -0.01 0.08 7406
0.06 0.95 0.74 -0.69 10.02 0.01 -0.01 0.08 7413
0.07 0.93 0.74 -0.68 9.99 0.01 -0.01 0.08 7419
0.07 0.87 0.74 -0.67 10.01 0.01 -0.02 0.08 7426
0.07 0.85 0.80 -0.66 9.97 0.01 -0.02 0.08 7432
0.08 0.81 0.75 -0.68 9.95 0.02 -0.02 0.08 7438
0.07 0.77 0.74 -0.72 9.97 0.02 -0.02 0.07 7444
0.06 0.70 0.75 -0.68 9.97 0.02 -0.02 0.07 7451
0.07 0.71 0.77 -0.69 9.94 0.01 -0.02 0.07 7457
0.08 0.61 0.73 -0.67 9.96 0.02 -0.02 0.06 7463
0.08 0.61 0.74 -0.71 9.98 0.01 -0.02 0.06 7470
0.08 0.50 0.74 -0.65 9.99 0.01 -0.02 0.06 7476
0.09 0.50 0.75 -0.68 10.00 0.01 -0.02 0.07 7482
0.08 0.53 0.76 -0.70 9.97 0.01 -0.02 0.07 7488
0.07 0.51 0.75 -0.68 9.99 0.01 -0.02 0.07 7494
0.09 0.46 0.76 -0.72 9.93 0.01 -0.02 0.07 7501
0.10 0.44 0.76 -0.68 9.97 0.01 -0.02 0.07 7507
0.10 0.44 0.78 -0.67 9.98 0.01 -0.02 0.07 7514
0.10 0.42 0.78 -0.71 10.02 0.01 -0.02 0.10 7520
0.13 0.39 0.76 -0.68 9.90 0.01 -0.01 0.06 7526
0.12 0.36 0.75 -0.74 9.88 0.01 -0.01 0.07 7532
0.12 0.35 0.77 -0.71 9.92 0.01 -0.01 0.06 7539
0.13 0.38 0.76 -0.75 9.92 0.01 -0.01 0.07 7545
0.13 0.34 0.75 -0.72 9.94 0.00 -0.01 0.06 7552
0.13 0.31 0.79 -0.71 9.98 -0.00 -0.02 0.06 7558
0.13 0.31 0.80 -0.74 9.92 -0.00 -0.01 0.06 7564
0.15 0.31 0.76 -0.74 10.02 -0.00 -0.01 0.06 7570
0.16 0.31 0.77 -0.70 9.96 -0.00 -0.01 0.06 7576
0.17 0.33 0.79 -0.71 9.98 -0.01 -0.01 0.05 7583
0.19 0.29 0.76 -0.68 10.02 -0.01 -0.01 0.05 7589
0.19 0.28 0.72 -0.71 9.98 -0.00 -0.02 0.06 7596
0.19 0.27 0.79 -0.72 10.02 -0.00 -0.01 0.05 7602
0.22 0.28 0.74 -0.71 9.97 -0.00 -0.01 0.05 7608
0.22 0.26 0.81 -0.71 9.96 0.00 -0.01 0.05 7614
0.23 0.23 0.81 -0.76 10.00 -0.00 -0.01 0.05 7621
0.24 0.24 0.84 -0.75 9.97 -0.00 -0.00 0.04 7627
0.25 0.19 0.81 -0.75 9.92 0.00 -0.01 0.04 7633
0.26 0.16 0.84 -0.72 10.02 -0.00 -0.00 0.04 7640
0.27 0.17 0.81 -0.72 10.03 0.00 -0.01 0.04 7646
0.28 0.15 0.85 -0.72 9.99 0.00 -0.01 0.04 7652
0.29 0.15 0.85 -0.74 9.99 0.00 -0.01 0.04 7658
0.27 0.13 0.86 -0.76 10.01 0.00 -0.00 0.04 7665
0.27 0.12 0.88 -0.76 10.03 0.01 0.00 0.03 7671
0.29 0.10 0.88 -0.76 9.98 0.01 0.00 0.03 7677
0.31 0.05 0.84 -0.78 10.08 0.01 0.01 0.03 7684
0.32 0.06 0.83 -0.75 10.05 0.02 0.01 0.02 7690
0.31 0.03 0.87 -0.70 10.10 0.03 0.02 0.02 7696
0.31 0.01 0.84 -0.73 10.11 0.04 0.02 0.02 7703
0.34 0.01 0.90 -0.81 10.05 0.05 0.03 0.01 7709
0.36 -0.01 0.94 -0.82 10.02 0.06 0.04 0.01 7715
0.38 -0.03 0.83 -0.74 10.03 0.08 0.05 -0.01 7721
0.43 -0.01 1.21 -0.77 10.09 0.11 0.07 -0.04 7728
0.46 -0.04 1.16 -0.86 10.15 0.15 0.11 -0.08 7735
0.47 -0.03 1.20 -0.87 10.36 0.21 0.17 -0.10 7741
0.45 -0.02 1.24 -0.74 10.60 0.33 0.26 -0.13 7747
0.44 -0.03 1.08 -0.90 11.23 0.52 0.36 -0.13 7753
0.43 -0.03 1.22 -0.86 11.46 0.81 0.48 -0.14 7759
0.43 -0.02 0.93 -1.12 12.19 1.20 0.61 -0.16 7767
0.40 -0.03 1.99 -1.10 13.87 1.67 0.65 -0.17 7773
0.39 -0.02 2.12 -1.14 13.92 2.03 0.58 -0.26 7779
0.37 -0.02 1.98 -1.02 15.14 2.28 0.45 -0.41 7785
0.32 -0.02 2.22 -1.59 15.30 2.59 0.25 -0.44 7792
0.29 0.00 2.07 -1.42 15.91 2.84 0.17 -0.48 7798
0.30 -0.01 1.63 -1.55 16.32 3.12 0.04 -0.49 7804
0.20 -0.01 2.06 -1.56 16.92 3.45 -0.07 -0.50 7811
0.18 -0.00 2.75 -1.94 17.34 3.77 -0.04 -0.54 7817
0.13 -0.00 3.14 -2.05 17.45 4.05 0.05 -0.61 7824
0.12 -0.01 4.02 -2.19 17.63 4.18 0.17 -0.69 7830
0.09 -0.00 4.13 -2.79 16.89 4.26 0.31 -0.76 7836
0.11 -0.01 5.78 -3.92 17.52 4.26 0.56 -0.79 7842
0.07 -0.01 5.53 -3.38 19.74 4.25 0.90 -0.85 7848
0.07 -0.00 5.77 -2.25 20.70 4.15 1.20 -0.92 7856
0.06 -0.01 5.06 -1.14 21.11 4.02 1.40 -1.02 7862
0.06 -0.01 4.07 1.20 22.99 3.76 1.44 -1.11 7868
0.08 -0.01 1.58 5.07 22.98 3.46 1.31 -1.20 7874
0.05 -0.01 0.11 4.68 19.57 3.12 1.06 -1.21 7880
0.05 -0.00 -0.93 10.08 19.56 2.87 0.63 -1.29 7886
0.07 -0.01 -0.83 13.77 13.58 2.52 0.37 -1.40 7894
0.07 -0.01 1.38 16.04 9.93 2.00 0.14 -1.58 7900
0.06 -0.01 -2.15 21.23 12.25 1.23 0.11 -1.99 7906
0.06 -0.01 0.23 19.08 6.13 0.48 0.17 -2.46 7912
0.04 -0.00 0.82 18.56 7.37 -0.15 0.36 -2.87 7918
0.03 -0.00 -0.38 17.30 8.35 -0.61 0.59 -3.19 7925
0.04 -0.00 -0.81 15.06 6.56 -1.05 0.68 -3.42 7931
0.04 -0.00 -0.93 13.00 5.48 -1.33 0.60 -3.55 7938
0.04 -0.00 -0.98 11.10 5.44 -1.49 0.44 -3.56 7944
0.05 0.00 -0.87 9.85 5.75 -1.61 0.30 -3.45 7950
0.07 -0.01 -0.55 9.67 5.88 -1.71 0.23 -3.31 7956
0.06 -0.01 -0.01 8.81 6.32 -1.79 0.21 -3.05 7962
0.05 -0.01 0.53 8.05 6.81 -1.88 0.23 -2.75 7968
0.06 -0.00 1.07 7.26 7.30 -1.95 0.26 -2.44 7975
0.05 -0.01 1.33 6.26 7.98 -2.03 0.31 -2.14 7982
0.06 -0.01 1.51 5.18 8.83 -2.08 0.37 -1.85 7988
0.06 -0.01 1.62 4.40 9.53 -2.10 0.47 -1.60 7994
0.07 -0.01 1.55 3.68 10.09 -2.12 0.59 -1.39 8000
0.06 -0.01 1.13 3.15 10.89 -2.14 0.70 -1.19 8006
0.05 -0.01 0.61 2.44 11.66 -2.16 0.80 -1.01 8012
0.06 -0.01 0.21 1.72 12.51 -2.20 0.88 -0.86 8019
0.06 -0.01 -0.01 1.16 13.14 -2.26 0.93 -0.73 8026
0.05 -0.01 -0.31 0.56 13.29 -2.32 0.96 -0.60 8032
0.06 -0.01 -0.41 -0.00 13.36 -2.37 0.99 -0.49 8038
0.06 -0.01 -0.51 -0.50 13.40 -2.40 1.03 -0.37 8044
0.05 -0.01 -0.70 -0.96 13.48 -2.41 1.09 -0.25 8050
0.06 -0.01 -1.03 -1.48 13.63 -2.41 1.14 -0.18 8057
0.06 -0.01 -1.41 -1.85 13.86 -2.40 1.19 -0.10 8064
0.06 -0.01 -1.79 -2.24 14.09 -2.38 1.22 -0.03 8070
0.06 -0.01 -2.19 -2.54 14.26 -2.35 1.21 0.02 8076
0.07 -0.01 -2.49 -2.73 14.41 -2.32 1.16 0.06 8082
0.06 -0.01 -2.80 -2.77 14.57 -2.29 1.08 0.08 8088
0.05 -0.01 -2.96 -2.82 14.52 -2.26 0.98 0.09 8095
0.07 -0.01 -2.97 -2.93 14.55 -2.23 0.85 0.07 8101
0.06 -0.01 -2.90 -3.07 14.69 -2.23 0.77 0.03 8108
0.05 -0.01 -2.85 -3.19 14.58 -2.22 0.67 -0.00 8114
0.07 -0.00 -2.80 -3.55 14.37 -2.21 0.59 -0.06 8120
0.07 -0.01 -2.76 -3.73 14.17 -2.19 0.51 -0.14 8126
0.06 -0.01 -2.68 -3.92 13.94 -2.16 0.43 -0.21 8133
0.06 -0.01 -2.64 -3.98 13.62 -2.11 0.36 -0.29 8139
0.06 -0.01 -2.51 -4.00 13.62 -2.05 0.28 -0.36 8145
0.06 -0.01 -2.31 -4.08 13.54 -1.99 0.21 -0.42 8152
0.06 0.00 -2.14 -4.17 13.49 -1.95 0.15 -0.47 8158
0.06 -0.01 -2.04 -4.21 13.50 -1.89 0.11 -0.52 8165
0.05 -0.01 -1.79 -4.23 13.65 -1.84 0.10 -0.57 8171
0.06 -0.00 -1.53 -4.22 13.79 -1.81 0.11 -0.61 8177
0.06 -0.01 -1.37 -4.24 14.00 -1.81 0.17 -0.64 8183
0.05 -0.01 -1.37 -4.36 13.98 -1.84 0.28 -0.69 8189
0.06 -0.00 -1.43 -4.62 13.76 -1.89 0.41 -0.73 8197
0.06 -0.01 -1.50 -4.99 13.39 -1.94 0.54 -0.78 8203
0.05 -0.00 -1.62 -5.39 13.11 -1.96 0.64 -0.83 8209
0.06 -0.00 -1.88 -5.73 12.73 -1.97 0.72 -0.89 8215
0.06 -0.01 -2.16 -5.96 12.18 -1.95 0.78 -0.94 8221
0.05 -0.01 -2.41 -6.19 11.55 -1.91 0.81 -0.98 8227
0.06 -0.00 -2.71 -6.46 11.03 -1.85 0.82 -1.02 8235
0.06 -0.01 -3.01 -6.68 10.60 -1.74 0.81 -1.06 8241
0.05 -0.00 -3.30 -6.88 10.34 -1.67 0.77 -1.11 8247
0.06 -0.00 -3.44 -7.09 9.90 -1.56 0.72 -1.16 8253
0.06 -0.01 -3.62 -7.29 9.47 -1.44 0.67 -1.21 8259
0.06 -0.01 -3.74 -7.50 9.10 -1.31 0.61 -1.26 8265
0.06 -0.01 -3.87 -7.64 9.06 -1.18 0.55 -1.30 8272
0.07 -0.01 -3.95 -7.71 9.21 -1.06 0.50 -1.33 8279
0.06 -0.01 -3.99 -7.78 9.34 -0.97 0.44 -1.33 8285
0.05 -0.01 -3.81 -7.93 9.37 -0.89 0.35 -1.31 8291
0.06 -0.00 -3.41 -8.22 9.36 -0.84 0.25 -1.28 8297
0.07 -0.01 -2.92 -8.59 9.37 -0.78 0.14 -1.25 8303
0.06 -0.01 -2.45 -8.99 9.17 -0.73 0.08 -1.21 8309
0.06 -0.01 -1.91 -9.29 8.89 -0.69 0.01 -1.17 8315
0.07 -0.01 -1.34 -9.80 8.46 -0.64 -0.01 -1.12 8323
0.07 -0.01 -0.95 -10.31 8.00 -0.58 0.01 -1.06 8329
0.06 -0.01 -0.74 -10.79 7.49 -0.50 0.06 -0.99 8335
0.07 -0.00 -0.72 -11.34 7.10 -0.39 0.11 -0.91 8341
0.07 -0.01 -2.27 -18.27 11.58 -0.15 -0.06 -0.84 8347
0.06 -0.01 -0.29 -10.81 4.78 0.53 -0.38 -0.77 8353
0.06 -0.01 -2.96 -15.15 6.83 0.48 -0.52 -0.65 8360
0.06 -0.01 -2.50 -16.53 5.13 0.93 -1.03 -0.59 8367
0.07 -0.01 -2.29 -15.98 6.61 1.11 -1.10 -0.48 8373
0.07 -0.01 -1.79 -16.99 7.01 1.33 -1.40 -0.40 8379
0.07 0.00 -1.95 -18.02 5.35 1.58 -1.69 -0.31 8385
0.06 0.05 -1.45 -18.94 3.24 1.77 -1.72 -0.16 8392
0.05 0.14 1.60 -9.28 5.31 2.08 -1.67 0.04 8398
0.05 0.29 2.69 1.65 11.69 2.53 -1.27 0.24 8404
0.03 0.57 0.77 -1.89 20.95 2.90 -1.31 0.35 8411
0.02 0.84 -1.31 1.21 23.74 2.83 -1.27 0.34 8417
0.02 1.02 -2.22 -0.38 16.85 2.59 -1.33 0.15 8424
0.02 1.06 -2.45 -2.36 16.71 2.60 -1.40 -0.07 8430
0.03 1.11 -0.50 -3.85 18.79 2.69 -1.22 -0.19 8436
0.02 1.11 1.03 -4.76 29.41 2.35 -1.22 -0.22 8442
0.01 1.15 1.35 -1.85 14.97 0.51 -0.86 -0.05 8450
0.00 1.13 1.12 -1.54 10.89 0.11 -0.28 0.10 8456
0.01 1.09 0.40 -1.23 10.87 0.05 -0.15 0.12 8462
0.01 1.16 0.37 -0.64 10.35 0.03 -0.08 0.12 8468
0.01 1.13 0.37 -0.60 10.04 0.02 -0.03 0.10 8474
0.00 1.16 0.37 -0.82 10.14 -0.01 -0.00 0.07 8481
0.01 1.21 0.67 -1.11 10.06 -0.03 0.00 0.06 8487
0.02 1.19 0.70 -1.06 10.21 -0.04 -0.00 0.06 8494
0.03 1.21 0.49 -0.83 10.44 -0.04 -0.01 0.07 8500
0.04 1.24 0.47 -0.77 10.18 -0.03 -0.00 0.06 8506
0.04 1.26 0.59 -0.70 9.97 -0.03 0.00 0.05 8512
0.03 1.26 0.66 -0.78 9.93 -0.03 0.00 0.05 8519
0.04 1.27 0.61 -0.69 10.01 -0.03 -0.00 0.06 8525
0.04 1.27 0.59 -0.73 10.13 -0.03 -0.00 0.05 8531
0.04 1.28 0.63 -0.69 10.10 -0.03 0.00 0.05 8538
0.06 1.28 0.68 -0.73 10.12 -0.02 0.00 0.05 8544
0.06 1.23 0.63 -0.66 10.11 -0.01 0.00 0.06 8551
0.05 1.20 0.68 -0.67 10.10 -0.00 0.01 0.06 8557
0.09 1.18 0.67 -0.70 10.02 0.00 -0.00 0.06 8563
0.11 1.15 0.67 -0.66 10.09 -0.00 0.00 0.06 8569
0.09 1.07 0.67 -0.68 10.00 0.01 -0.00 0.07 8576
0.10 1.06 0.68 -0.68 10.04 0.01 -0.01 0.07 8582
0.09 1.07 0.70 -0.69 10.03 0.01 -0.01 0.06 8589
0.09 1.01 0.72 -0.71 10.00 0.01 -0.01 0.07 8595
0.09 1.01 0.74 -0.65 10.04 0.01 -0.02 0.06 8601
0.10 0.97 0.69 -0.68 9.99 0.01 -0.02 0.07 8607
0.10 0.89 0.70 -0.63 9.99 0.02 -0.02 0.07 8613
0.10 0.85 0.73 -0.69 10.07 0.02 -0.02 0.06 8620
0.13 0.78 0.73 -0.70 10.01 0.02 -0.02 0.06 8627
0.12 0.67 0.70 -0.74 10.00 0.02 -0.02 0.05 8633
0.13 0.64 0.71 -0.71 10.00 0.01 -0.02 0.06 8639
0.15 0.64 0.70 -0.72 10.00 0.01 -0.03 0.05 8645
0.13 0.63 0.67 -0.73 10.01 0.01 -0.03 0.05 8651
0.14 0.52 0.68 -0.71 9.99 0.01 -0.03 0.06 8658
0.14 0.52 0.67 -0.72 9.97 0.01 -0.03 0.06 8665
0.14 0.44 0.70 -0.70 9.98 0.01 -0.03 0.05 8671
0.14 0.42 0.70 -0.70 10.01 0.02 -0.03 0.06 8677
0.16 0.43 0.68 -0.72 10.04 0.01 -0.03 0.05 8683
0.17 0.38 0.68 -0.75 9.98 0.01 -0.03 0.05 8689
0.17 0.41 0.71 -0.73 9.96 0.02 -0.04 0.05 8695
0.19 0.36 0.69 -0.74 9.98 0.02 -0.04 0.05 8702
0.20 0.32 0.73 -0.74 10.03 0.01 -0.04 0.05 8709
0.21 0.29 0.71 -0.74 9.92 0.01 -0.04 0.04 8715
0.21 0.34 0.76 -0.70 9.99 0.01 -0.05 0.04 8721
0.23 0.29 0.71 -0.78 9.96 0.01 -0.06 0.04 8727
0.23 0.27 0.72 -0.77 10.05 0.01 -0.05 0.04 8733
0.24 0.24 0.69 -0.79 9.93 0.00 -0.06 0.04 8740
0.26 0.24 0.70 -0.75 10.03 -0.00 -0.06 0.04 8747
0.29 0.19 0.69 -0.74 9.99 0.00 -0.06 0.04 8753
0.30 0.18 0.73 -0.77 9.99 0.00 -0.05 0.04 8759
0.34 0.16 0.71 -0.76 10.01 0.00 -0.05 0.04 8765
0.35 0.19 0.80 -0.76 9.78 0.00 -0.05 0.04 8771
0.35 0.12 0.68 -0.75 9.99 0.00 -0.04 0.04 8777
0.38 0.11 0.72 -0.75 10.07 0.01 -0.04 0.04 8784
0.40 0.07 0.69 -0.78 10.01 0.01 -0.03 0.03 8791
0.40 0.04 0.71 -0.82 10.02 0.01 -0.03 0.03 8797
0.40 0.02 0.72 -0.81 10.05 0.01 -0.03 0.03 8803
0.45 0.01 0.73 -0.79 9.94 0.01 -0.02 0.03 8809
0.44 0.00 0.69 -0.74 10.07 0.02 -0.02 0.03 8815
0.46 0.01 0.64 -0.82 10.08 0.02 -0.01 0.02 8822
0.49 -0.01 0.72 -0.76 10.04 0.02 -0.01 0.02 8828
0.52 -0.02 0.73 -0.78 10.08 0.03 -0.00 0.03 8835
0.55 -0.03 0.68 -1.40 10.14 0.03 0.00 0.02 8841
0.60 -0.02 0.73 -0.83 10.02 0.04 0.01 0.02 8847
0.60 -0.02 0.48 -0.55 9.98 0.05 0.02 0.02 8854
0.62 -0.03 0.69 -0.74 10.13 0.08 0.03 0.01 8860
0.65 -0.02 0.78 -0.87 10.07 0.11 0.05 0.01 8866
0.69 -0.05 0.97 -0.92 10.13 0.14 0.08 -0.02 8872
0.72 -0.04 0.81 -0.81 10.36 0.17 0.09 -0.05 8879
0.75 -0.04 1.19 -0.85 10.42 0.23 0.14 -0.10 8886
0.75 -0.05 1.28 -0.99 10.67 0.35 0.21 -0.15 8892
0.76 -0.05 1.38 -0.96 11.41 0.58 0.33 -0.22 8898
0.77 -0.05 1.48 -0.97 12.12 0.95 0.47 -0.24 8904
0.77 -0.06 1.52 -1.03 13.13 1.40 0.57 -0.30 8910
0.74 -0.04 0.99 -0.99 13.67 1.78 0.53 -0.31 8918
0.72 -0.04 0.84 -1.01 14.31 2.06 0.36 -0.32 8924
0.67 -0.04 1.58 -1.38 15.45 2.33 0.17 -0.32 8930
0.62 -0.02 2.20 -1.26 15.82 2.63 -0.01 -0.38 8936
0.53 -0.03 2.38 -1.17 15.98 2.96 -0.08 -0.47 8943
0.48 -0.02 2.07 -1.60 16.02 3.24 -0.14 -0.54 8949
0.37 -0.02 2.36 -2.04 16.61 3.55 -0.21 -0.57 8955
0.30 -0.03 2.67 -2.67 16.68 3.82 -0.25 -0.61 8962
0.23 -0.01 3.58 -2.84 16.78 4.01 -0.30 -0.64 8968
0.18 0.00 3.84 -3.24 16.60 4.12 -0.25 -0.70 8975
0.14 -0.00 4.24 -3.72 17.41 4.19 -0.10 -0.74 8981
0.15 0.01 5.43 -4.75 18.22 4.22 0.16 -0.76 8987
0.09 -0.00 6.09 -4.70 20.56 4.16 0.61 -0.83 8993
0.08 -0.00 6.21 -2.80 21.73 3.98 0.83 -0.94 9000
0.11 0.00 4.17 0.22 23.48 3.79 0.91 -1.02 9007
0.07 -0.01 1.69 3.18 25.68 3.48 0.83 -1.02 9013
0.07 -0.01 -0.77 6.73 23.44 3.09 0.52 -1.03 9019
0.07 -0.01 -0.38 10.52 19.00 2.63 0.04 -1.07 9025
0.07 -0.01 0.25 10.33 12.31 2.22 -0.24 -1.19 9031
0.06 -0.01 0.94 14.47 13.25 1.78 -0.48 -1.37 9038
0.06 -0.01 1.50 15.23 12.13 1.25 -0.45 -1.75 9044
0.05 -0.01 4.42 12.84 9.45 0.71 -0.36 -2.10 9051
0.07 -0.00 3.61 13.80 10.70 0.22 -0.15 -2.37 9057
0.08 -0.01 2.61 12.56 8.89 -0.18 0.06 -2.62 9063
0.06 -0.01 2.29 10.86 7.16 -0.46 0.08 -2.80 9070
0.06 -0.01 1.94 9.61 6.09 -0.60 -0.02 -2.88 9076
0.05 -0.00 1.99 8.93 5.51 -0.73 -0.10 -2.88 9082
0.05 -0.00 2.34 8.38 5.09 -0.84 -0.15 -2.82 9089
0.04 -0.00 2.72 7.86 5.49 -0.95 -0.19 -2.69 9095
0.05 -0.00 3.62 7.36 5.42 -1.03 -0.18 -2.56 9101
0.06 -0.01 3.97 6.78 4.79 -1.09 -0.14 -2.36 9107
0.05 -0.00 4.10 6.33 4.59 -1.15 -0.07 -2.13 9114
0.04 0.00 4.16 5.69 4.73 -1.18 0.03 -1.87 9120
0.05 -0.00 4.17 5.08 5.23 -1.19 0.12 -1.61 9126
0.04 -0.00 4.16 4.72 6.04 -1.18 0.23 -1.36 9133
0.05 -0.01 3.99 4.51 6.92 -1.19 0.26 -1.11 9139
0.05 -0.01 3.83 4.42 7.77 -1.21 0.32 -0.92 9145
0.07 -0.00 3.76 4.38 8.67 -1.28 0.39 -0.70 9151
0.06 -0.01 3.66 4.28 9.33 -1.40 0.51 -0.49 9157
0.05 -0.00 3.51 3.96 9.78 -1.55 0.69 -0.27 9164
0.06 -0.00 3.25 3.31 10.18 -1.73 0.91 -0.08 9170
0.06 -0.01 2.66 2.55 10.66 -1.85 1.08 0.09 9177
0.06 -0.01 1.98 1.87 10.77 -1.96 1.17 0.24 9183
0.05 0.00 1.31 1.20 10.92 -2.04 1.23 0.37 9189
0.05 -0.00 0.76 0.74 11.06 -2.09 1.23 0.47 9195
0.04 -0.00 0.42 0.43 11.43 -2.10 1.20 0.57 9202
0.04 -0.00 0.22 0.23 11.87 -2.11 1.16 0.65 9208
0.05 -0.01 0.11 0.09 12.29 -2.13 1.12 0.69 9214
0.04 -0.00 -0.04 -0.01 12.52 -2.16 1.11 0.71 9221
0.04 -0.00 -0.18 -0.37 12.64 -2.19 1.12 0.69 9227
0.04 0.01 -0.29 -0.95 12.87 -2.22 1.15 0.63 9233
0.05 -0.00 -0.57 -1.42 13.32 -2.24 1.15 0.55 9240
0.04 -0.00 -0.94 -1.86 13.63 -2.24 1.14 0.43 9246
0.05 0.00 -1.17 -2.32 14.13 -2.22 1.12 0.30 9252
0.05 -0.00 -1.27 -3.04 14.55 -2.20 1.08 0.19 9259
0.04 -0.00 -1.20 -2.58 14.88 -2.20 1.06 0.07 9265
0.05 -0.00 -1.06 -2.61 15.02 -2.22 1.04 -0.02 9271
0.05 -0.00 -0.86 -2.69 14.95 -2.26 1.04 -0.10 9278
0.04 -0.00 -0.65 -2.88 14.94 -2.29 1.05 -0.15 9284
0.05 0.00 -0.43 -3.09 15.19 -2.31 1.06 -0.18 9290
0.05 -0.01 -0.30 -3.21 15.07 -2.31 1.08 -0.18 9296
0.04 -0.00 -0.19 -3.36 15.02 -2.31 1.09 -0.16 9303
0.05 -0.01 -0.16 -3.61 14.89 -2.30 1.08 -0.13 9309
0.05 -0.01 -0.19 -3.84 14.82 -2.27 1.07 -0.08 9316
0.05 -0.01 -0.20 -4.14 14.56 -2.24 1.05 -0.04 9322
0.05 -0.01 -0.21 -4.40 14.10 -2.19 1.02 0.03 9328
0.07 -0.01 -0.23 -4.73 13.78 -2.13 0.98 0.03 9334
0.06 -0.00 -0.37 -5.09 13.31 -2.05 0.94 0.05 9340
0.05 -0.00 -0.74 -5.31 12.94 -1.95 0.88 0.07 9347
0.07 -0.00 -1.24 -5.61 12.61 -1.82 0.79 0.09 9354
0.06 -0.01 -1.62 -5.74 12.52 -1.68 0.67 0.11 9360
0.06 -0.01 -1.99 -5.80 12.55 -1.54 0.53 0.11 9366
0.07 -0.01 -2.07 -5.78 12.70 -1.44 0.40 0.10 9372
0.06 -0.01 -2.15 -5.65 12.83 -1.34 0.28 0.09 9378
0.05 -0.00 -2.17 -5.61 12.66 -1.28 0.21 0.08 9385
0.07 -0.01 -2.01 -5.60 12.45 -1.25 0.18 0.05 9392
0.06 -0.01 -1.87 -5.66 12.30 -1.23 0.18 0.00 9398
0.05 -0.01 -1.65 -5.68 12.05 -1.23 0.23 0.01 9404
0.06 0.00 -1.40 -5.66 11.52 -1.24 0.33 -0.01 9410
0.06 -0.00 -1.32 -5.86 10.92 -1.24 0.45 -0.04 9416
0.05 -0.01 -1.35 -6.19 10.45 -1.21 0.57 -0.05 9423
0.06 -0.01 -1.52 -6.50 10.28 -1.16 0.66 -0.07 9430
0.06 -0.00 -1.77 -6.75 10.07 -1.08 0.69 -0.09 9436
0.06 -0.01 -2.04 -6.97 9.95 -0.98 0.66 -0.11 9442
0.06 0.00 -2.08 -7.20 9.91 -0.92 0.58 -0.15 9448
0.06 -0.01 -2.15 -7.25 10.10 -0.84 0.49 -0.19 9454
0.06 -0.01 -2.19 -7.26 10.02 -0.79 0.39 -0.23 9461
0.06 -0.00 -2.17 -7.95 9.70 -0.76 0.30 -0.30 9467
0.07 -0.00 -1.95 -7.70 8.66 -0.74 0.23 -0.29 9474
0.06 -0.01 -1.65 -8.29 8.80 -0.69 0.17 -0.32 9480
0.06 -0.01 -1.43 -9.00 8.58 -0.61 0.12 -0.34 9486
0.06 -0.00 -0.96 -9.50 8.24 -0.53 0.08 -0.38 9492
0.06 -0.01 -0.55 -9.88 8.05 -0.47 0.07 -0.41 9498
0.06 -0.01 -0.31 -10.17 7.89 -0.40 0.09 -0.42 9505
0.07 -0.01 -0.25 -10.27 7.77 -0.34 0.12 -0.41 9511
0.07 -0.01 -0.34 -10.39 7.62 -0.28 0.15 -0.39 9518
0.06 -0.01 -0.42 -10.93 6.27 -0.21 0.17 -0.35 9524
0.06 -0.01 -4.78 -15.03 33.50 0.69 -0.46 -0.32 9530
0.07 -0.01 -2.69 -8.70 -2.15 0.59 -0.40 -0.25 9536
0.05 -0.00 -1.94 -14.57 9.29 0.94 -1.10 -0.14 9543
0.04 -0.00 -2.04 -15.55 5.65 1.19 -1.26 -0.07 9549
0.06 0.00 -1.33 -16.15 7.26 1.46 -1.56 0.01 9555
0.04 -0.00 -1.88 -16.62 4.97 1.55 -1.70 0.07 9562
0.04 0.04 -2.43 -19.57 4.87 1.67 -1.86 0.22 9568
0.05 0.10 0.16 -10.46 6.22 1.87 -1.77 0.49 9575
0.04 0.25 1.57 0.50 9.81 2.18 -1.34 0.67 9581
0.02 0.50 -0.48 -1.47 19.27 2.62 -1.08 0.77 9587
0.03 0.75 -3.15 0.80 23.56 2.78 -1.04 0.67 9593
0.01 0.98 -5.80 1.57 17.91 2.58 -1.26 0.30 9600
-0.00 1.04 -3.61 -1.61 16.04 2.52 -1.23 -0.05 9607
-0.01 1.12 -1.36 -2.68 15.83 2.59 -0.97 -0.29 9613
-0.01 1.11 -0.29 -2.52 18.08 2.57 -0.59 -0.40 9619
-0.00 1.13 2.93 -2.98 27.66 2.25 -0.57 -0.43 9625
-0.00 1.10 3.72 -1.29 14.76 0.50 -0.87 -0.20 9632
-0.01 1.13 2.09 -1.57 10.45 0.16 -0.37 0.07 9638
0.01 1.07 1.11 -1.22 10.46 0.08 -0.22 0.12 9645
-0.01 1.10 0.78 -0.61 10.21 0.08 -0.21 0.12 9651
-0.00 1.12 0.59 -0.49 10.20 0.05 -0.15 0.10 9657
-0.00 1.17 0.71 -0.69 10.30 0.01 -0.09 0.08 9664
0.01 1.15 0.89 -1.06 10.09 -0.02 -0.05 0.07 9670
0.00 1.16 0.93 -0.98 10.09 -0.07 -0.03 0.07 9676
0.01 1.19 0.82 -0.75 10.15 -0.03 -0.01 0.07 9682
-0.01 1.17 0.74 -0.64 10.09 -0.03 -0.00 0.06 9689
0.00 1.22 0.74 -0.62 10.01 -0.03 0.00 0.06 9696
0.01 1.23 0.91 -0.75 9.99 -0.03 0.01 0.05 9702
0.01 1.23 0.92 -0.74 10.11 -0.04 -0.00 0.05 9708
0.02 1.26 0.90 -0.69 10.07 -0.03 -0.01 0.06 9714
0.02 1.25 0.95 -0.67 9.95 -0.03 -0.01 0.05 9720
0.03 1.24 0.86 -0.69 10.06 -0.03 -0.01 0.05 9726
0.02 1.24 0.84 -0.64 10.07 -0.02 -0.00 0.05 9734
-0.00 1.23 0.84 -0.59 10.00 -0.02 0.00 0.06 9740
0.01 1.20 0.86 -0.65 9.98 -0.01 0.00 0.05 9746
0.01 1.17 0.92 -0.67 9.96 0.00 0.00 0.06 9752
0.01 1.18 0.97 -0.62 10.05 0.00 -0.00 0.07 9758
0.02 1.15 0.96 -0.62 9.96 0.01 -0.01 0.07 9764
0.00 1.11 0.93 -0.64 10.02 0.01 -0.01 0.07 9771
0.01 1.11 0.90 -0.61 9.94 0.01 -0.02 0.07 9778
0.02 1.04 0.90 -0.63 9.92 0.01 -0.02 0.07 9784
0.04 0.98 0.89 -0.61 9.92 0.01 -0.03 0.07 9790
0.04 0.96 0.90 -0.63 9.95 0.01 -0.03 0.06 9796
0.06 0.95 0.87 -0.53 9.98 0.01 -0.03 0.06 9802
0.05 0.90 0.93 -0.56 9.97 0.02 -0.03 0.07 9808
0.05 0.89 0.91 -0.65 9.99 0.01 -0.04 0.06 9815
0.07 0.85 0.92 -0.67 9.97 0.01 -0.04 0.06 9822
0.07 0.80 0.91 -0.65 9.97 0.01 -0.04 0.06 9828
0.08 0.77 0.93 -0.67 9.95 0.01 -0.04 0.06 9834
0.08 0.73 0.90 -0.68 9.95 0.01 -0.04 0.05 9840
0.10 0.74 0.88 -0.64 9.93 0.01 -0.04 0.06 9846
0.10 0.66 0.92 -0.65 10.03 0.00 -0.04 0.05 9852
0.11 0.57 0.88 -0.63 10.03 0.01 -0.04 0.06 9859
0.11 0.55 0.85 -0.63 9.99 0.01 -0.04 0.06 9866
0.10 0.55 0.89 -0.66 9.97 0.01 -0.03 0.05 9872
0.09 0.52 0.92 -0.66 9.95 0.01 -0.03 0.06 9878
0.11 0.48 0.91 -0.66 9.98 0.01 -0.03 0.06 9884
0.11 0.48 0.92 -0.69 9.94 0.01 -0.03 0.06 9890
0.11 0.43 0.93 -0.64 9.94 0.00 -0.03 0.06 9896
0.09 0.46 0.92 -0.68 9.99 0.01 -0.03 0.05 9903
0.12 0.42 0.93 -0.67 9.91 0.00 -0.03 0.06 9910
0.13 0.42 0.89 -0.70 9.94 0.00 -0.04 0.05 9916
0.13 0.41 0.89 -0.68 9.95 -0.00 -0.04 0.05 9922
0.13 0.38 0.91 -0.72 9.94 -0.01 -0.04 0.04 9928
0.13 0.39 0.93 -0.68 9.95 -0.00 -0.04 0.04 9934
0.14 0.35 0.90 -0.67 10.00 -0.01 -0.04 0.04 9940
0.14 0.34 0.96 -0.63 9.96 -0.00 -0.04 0.04 9947
0.17 0.35 0.91 -0.70 9.99 -0.00 -0.05 0.04 9954
0.19 0.33 0.91 -0.69 10.01 -0.01 -0.05 0.04 9960
0.19 0.35 0.88 -0.70 10.00 -0.01 -0.06 0.05 9966
0.22 0.32 0.88 -0.73 9.95 -0.01 -0.06 0.03 9972
0.21 0.33 0.91 -0.66 9.99 -0.01 -0.06 0.03 9978
0.21 0.26 0.92 -0.67 9.94 0.00 -0.05 0.04 9985
0.24 0.25 1.03 -0.76 9.94 -0.00 -0.04 0.03 9992
0.24 0.25 0.89 -0.70 10.02 -0.00 -0.04 0.03 9998
0.24 0.19 0.92 -0.70 9.97 -0.00 -0.03 0.03 10004
0.25 0.23 0.98 -0.71 10.09 0.00 -0.02 0.03 10010
0.26 0.18 0.96 -0.69 10.03 0.00 -0.02 0.03 10016
0.24 0.16 0.96 -0.71 10.02 0.01 -0.01 0.03 10023
0.26 0.20 0.91 -0.68 10.03 0.01 -0.01 0.03 10030
0.28 0.12 0.92 -0.68 10.03 0.01 -0.00 0.03 10036
0.34 0.09 0.93 -0.73 10.07 0.02 0.01 0.02 10042
0.35 0.06 0.94 -0.69 10.05 0.02 0.01 0.03 10049
0.35 0.01 0.96 -0.75 10.07 0.03 0.02 0.03 10055
0.38 -0.00 0.97 -0.74 10.09 0.03 0.02 0.02 10061
0.42 0.02 0.96 -0.41 10.05 0.04 0.03 0.02 10067
0.42 -0.01 1.02 -0.71 10.11 0.06 0.04 0.02 10074
0.45 0.00 0.98 -0.67 10.16 0.08 0.06 0.02 10081
0.46 -0.02 0.90 -0.57 9.90 0.10 0.08 0.01 10087
0.48 -0.02 1.07 -0.70 10.31 0.12 0.10 -0.03 10093
0.50 -0.03 1.20 -0.82 10.25 0.15 0.12 -0.02 10099
0.48 -0.03 1.47 -0.85 10.26 0.21 0.16 -0.05 10106
0.48 -0.02 1.42 -0.85 10.74 0.30 0.23 -0.10 10113
0.48 -0.03 1.64 -0.87 11.63 0.51 0.33 -0.14 10119
0.42 -0.03 1.68 -1.00 12.99 0.96 0.49 -0.16 10125
0.41 -0.03 2.05 -0.98 14.69 1.65 0.60 -0.23 10132
0.38 -0.04 2.34 -1.13 15.65 2.22 0.49 -0.34 10138
0.35 -0.01 2.01 -1.00 16.50 2.53 0.22 -0.43 10144
0.32 -0.02 1.75 -1.04 16.07 2.81 0.05 -0.45 10150
0.26 -0.01 2.10 -1.41 16.72 3.09 -0.13 -0.46 10158
0.25 -0.01 2.84 -1.44 16.35 3.40 -0.32 -0.51 10164
0.25 -0.02 3.43 -1.63 16.50 3.67 -0.40 -0.60 10170
0.21 -0.00 4.06 -2.04 17.04 3.86 -0.43 -0.69 10176
0.14 0.00 3.66 -2.37 16.58 3.96 -0.35 -0.78 10183
0.11 -0.00 3.53 -3.11 16.76 4.08 -0.22 -0.84 10189
0.11 -0.00 3.70 -3.85 17.64 4.16 -0.03 -0.84 10195
0.08 0.00 5.01 -3.36 18.66 4.14 0.32 -0.86 10202
0.10 -0.00 6.33 -2.38 21.06 4.05 0.59 -0.94 10209
0.08 0.00 5.65 -0.55 22.44 3.85 0.79 -1.04 10215
0.06 -0.00 3.69 3.31 23.32 3.58 0.75 -1.08 10221
0.07 -0.00 1.49 4.88 21.53 3.22 0.54 -1.04 10227
0.06 -0.01 -0.07 8.54 20.76 2.77 0.24 -0.99 10234
0.06 0.01 -0.93 9.75 14.25 2.31 -0.16 -0.94 10241
0.05 -0.01 0.94 15.28 13.53 1.87 -0.50 -0.99 10247
0.04 -0.00 1.96 13.68 10.10 1.46 -0.53 -1.09 10253
0.06 -0.01 3.52 12.59 8.99 1.09 -0.53 -1.23 10260
0.05 -0.00 3.65 14.49 9.99 0.64 -0.38 -1.37 10266
0.06 0.00 2.77 13.99 8.72 0.22 -0.20 -1.53 10272
0.05 -0.00 2.22 12.57 7.40 -0.10 -0.12 -1.65 10278
0.04 -0.00 1.60 11.81 6.71 -0.26 -0.15 -1.70 10285
0.04 -0.00 1.47 11.59 6.10 -0.46 -0.19 -1.69 10292
0.04 -0.00 1.70 11.12 5.61 -0.64 -0.24 -1.65 10298
0.04 -0.00 2.14 10.49 5.49 -0.81 -0.26 -1.57 10304
0.06 -0.01 2.53 9.77 5.23 -0.95 -0.24 -1.48 10310
0.04 -0.00 2.72 9.02 5.17 -1.07 -0.18 -1.40 10316
0.04 -0.00 2.67 8.36 5.51 -1.17 -0.09 -1.29 10323
0.05 0.00 2.69 7.69 5.29 -1.23 -0.00 -1.17 10330
0.05 -0.00 2.53 7.05 6.07 -1.29 0.07 -1.05 10336
0.05 -0.00 2.42 6.52 6.90 -1.35 0.11 -0.93 10342
0.05 -0.00 2.37 5.94 7.69 -1.42 0.14 -0.81 10348
0.05 -0.00 2.37 5.40 8.75 -1.53 0.17 -0.70 10354
0.05 -0.00 2.56 4.88 9.62 -1.61 0.24 -0.58 10361
0.04 -0.00 2.77 4.28 10.26 -1.75 0.36 -0.46 10368
0.05 -0.01 2.90 3.67 10.85 -1.90 0.43 -0.34 10374
0.05 -0.00 2.67 2.48 11.18 -2.05 0.53 -0.22 10380
0.04 0.00 2.34 2.36 11.26 -2.17 0.61 -0.09 10386
0.04 -0.00 1.98 1.50 11.27 -2.26 0.68 0.05 10393
0.03 -0.00 1.63 0.70 11.31 -2.30 0.72 0.14 10399
0.04 0.00 1.43 -0.01 11.35 -2.29 0.74 0.24 10405
0.04 -0.00 1.32 -0.51 11.56 -2.26 0.75 0.32 10412
0.03 -0.00 1.22 -0.98 11.81 -2.22 0.75 0.36 10418
0.03 -0.00 1.08 -1.37 12.06 -2.18 0.77 0.39 10425
0.04 -0.00 1.00 -1.74 12.45 -2.14 0.77 0.39 10431
0.04 -0.00 0.86 -2.06 12.72 -2.11 0.76 0.37 10437
0.05 -0.01 0.71 -2.29 13.10 -2.07 0.73 0.35 10443
0.04 -0.00 0.57 -2.44 13.46 -2.03 0.68 0.32 10449
0.04 -0.00 0.54 -2.59 13.86 -2.01 0.64 0.29 10457
0.06 -0.01 0.72 -2.59 14.06 -1.99 0.62 0.25 10463
0.04 -0.00 0.85 -2.68 14.21 -2.00 0.61 0.22 10469
0.04 -0.00 1.02 -2.89 14.55 -2.01 0.64 0.18 10475
0.06 -0.01 1.15 -3.08 15.07 -2.04 0.69 0.15 10481
0.05 -0.00 1.17 -3.21 15.14 -2.09 0.76 0.12 10488
0.04 -0.00 1.10 -3.46 15.19 -2.15 0.82 0.09 10494
0.04 -0.00 0.98 -3.72 15.04 -2.20 0.88 0.07 10501
0.04 -0.00 0.82 -4.11 14.73 -2.23 0.92 0.07 10507
0.04 -0.00 0.68 -4.44 14.37 -2.23 0.92 0.08 10513
0.05 -0.00 0.58 -4.70 13.84 -2.20 0.90 0.09 10520
0.04 -0.00 0.52 -4.95 13.35 -2.15 0.87 0.11 10526
0.04 0.00 0.36 -5.24 12.69 -2.07 0.82 0.13 10532
0.04 -0.00 0.33 -5.63 12.13 -1.97 0.79 0.13 10539
0.04 -0.00 0.22 -6.07 11.66 -1.79 0.74 0.12 10545
0.04 0.00 0.22 -6.37 11.60 -1.65 0.70 0.08 10552
0.04 -0.00 0.10 -6.47 11.69 -1.48 0.66 0.04 10558
0.03 -0.00 -0.09 -6.35 11.70 -1.32 0.62 -0.01 10564
0.05 -0.00 -0.45 -6.12 11.75 -1.20 0.57 -0.05 10570
0.05 -0.00 -0.78 -5.92 11.92 -1.12 0.52 -0.07 10576
0.03 -0.00 -0.90 -5.80 12.47 -1.07 0.48 -0.08 10584
0.05 -0.01 -0.45 -5.75 12.84 -1.07 0.48 -0.09 10590
0.04 -0.00 -0.21 -6.05 13.06 -1.10 0.50 -0.09 10596
0.04 -0.00 0.14 -6.27 12.67 -1.14 0.54 -0.10 10602
0.05 -0.01 0.31 -6.04 15.81 -1.05 0.44 -0.13 10608
0.04 -0.00 -0.63 -6.40 14.21 -1.02 0.42 -0.13 10615
0.04 0.00 -0.66 -6.87 9.82 -1.12 0.50 -0.12 10621
0.05 -0.00 -1.17 -10.10 11.50 -1.02 0.44 -0.11 10628
0.04 -0.00 -1.03 -6.20 13.78 -0.71 0.23 -0.14 10634
0.04 0.01 -0.51 -8.11 2.67 -1.02 0.44 -0.15 10640
0.05 -0.00 -1.68 -12.28 13.18 -0.66 0.29 -0.15 10647
0.03 -0.00 -0.79 -7.72 6.34 -0.68 0.25 -0.18 10653
0.05 0.01 -0.70 -10.54 10.81 -0.55 0.08 -0.23 10659
0.04 -0.00 -0.90 -11.15 10.85 -0.38 -0.11 -0.22 10665
0.04 0.00 -1.17 -7.82 3.62 -0.34 -0.13 -0.24 10673
0.04 -0.00 -0.43 -12.53 9.00 -0.36 -0.16 -0.21 10679
0.04 -0.00 -0.77 -9.97 13.69 -0.02 -0.41 -0.22 10685
0.04 0.01 -1.03 -10.98 4.45 -0.07 -0.24 -0.22 10691
0.04 -0.00 -0.91 -11.40 11.67 0.24 -0.39 -0.22 10698
0.04 -0.00 -0.37 -12.35 3.99 0.23 -0.19 -0.17 10704
0.05 -0.00 -1.77 -12.84 14.43 0.51 -0.45 -0.14 10711
0.04 -0.00 -2.40 -15.13 3.03 0.62 -0.44 -0.10 10717
0.04 -0.00 -3.07 -14.81 8.42 0.85 -1.00 -0.06 10723
0.05 -0.01 -2.85 -14.89 6.04 1.01 -1.00 -0.00 10730
0.05 -0.00 -2.17 -18.64 6.87 1.30 -1.29 0.07 10736
0.05 0.02 -4.06 -21.84 3.89 1.57 -1.36 0.24 10742
0.04 0.09 -5.21 -24.19 2.22 1.93 -1.54 0.46 10748
0.03 0.22 -4.54 -15.64 6.34 2.51 -1.75 0.76 10756
0.04 0.40 -3.67 -3.48 14.87 3.36 -1.78 0.81 10762
0.02 0.59 -6.64 -3.05 24.67 3.91 -1.99 0.55 10768
0.02 0.73 -5.49 -1.93 29.92 3.74 -1.78 0.15 10774
0.00 0.89 -2.92 -4.71 33.19 1.94 -2.02 -0.21 10781
-0.00 0.94 0.22 -1.80 11.22 -0.05 -0.20 -0.04 10787
0.01 0.96 0.02 -2.59 10.59 -0.12 -0.07 -0.08 10793
0.00 0.96 1.72 -2.81 11.02 -0.07 -0.05 0.01 10800
0.01 0.97 1.22 -1.14 10.11 -0.03 -0.01 0.10 10807
0.02 0.95 0.76 -0.38 9.94 -0.01 -0.02 0.11 10813
0.01 0.95 0.58 -0.35 9.87 -0.01 -0.01 0.08 10819
0.04 0.96 0.66 -0.41 10.06 -0.02 -0.02 0.05 10825
0.04 0.92 0.96 -1.10 10.03 -0.04 -0.02 0.06 10832
0.04 0.96 0.82 -1.13 9.99 -0.05 -0.01 0.09 10839
0.04 0.96 0.53 -0.83 10.07 -0.05 -0.01 0.08 10845
0.05 0.99 0.63 -0.74 10.11 -0.05 0.00 0.06 10851
0.05 1.05 0.76 -0.78 10.10 -0.04 0.02 0.06 10857
0.06 1.06 0.69 -0.76 10.13 -0.05 0.03 0.07 10864
0.05 1.07 0.77 -0.75 9.96 -0.04 0.03 0.07 10870
0.06 1.07 0.86 -0.75 10.01 -0.04 0.02 0.06 10876
0.05 1.05 0.92 -0.80 10.01 -0.04 0.02 0.06 10883
0.04 1.08 0.85 -0.75 9.99 -0.03 0.01 0.06 10890
0.06 1.07 0.80 -0.76 9.98 -0.02 0.00 0.06 10896
0.05 1.06 0.79 -0.70 10.10 -0.02 0.00 0.06 10902
0.04 1.06 0.80 -0.75 10.44 -0.01 -0.00 0.06 10908
0.04 1.03 0.76 -0.74 10.01 -0.00 -0.00 0.07 10914
0.04 0.96 0.80 -0.74 10.00 -0.00 -0.01 0.07 10921
0.04 0.93 0.83 -0.73 9.98 0.00 -0.02 0.08 10928
0.05 0.87 0.79 -0.75 9.96 0.00 -0.02 0.07 10934
0.06 0.81 0.84 -0.73 10.01 0.01 -0.02 0.07 10940
0.07 0.78 0.80 -0.75 10.00 0.01 -0.03 0.07 10946
0.08 0.76 0.83 -0.72 10.04 0.01 -0.03 0.06 10953
0.09 0.71 0.84 -0.72 10.02 0.02 -0.03 0.07 10959
0.11 0.66 0.81 -0.72 9.97 0.01 -0.03 0.07 10966
0.10 0.65 0.84 -0.75 9.98 0.02 -0.04 0.06 10972
0.12 0.63 0.82 -0.77 10.03 0.02 -0.04 0.06 10978
0.14 0.57 0.80 -0.77 9.95 0.01 -0.04 0.06 10985
0.13 0.55 0.81 -0.70 10.04 0.01 -0.04 0.06 10991
0.13 0.52 0.76 -0.73 9.98 0.01 -0.05 0.05 10997
0.14 0.48 0.78 -0.75 10.01 0.01 -0.04 0.06 11003
0.14 0.44 0.75 -0.74 9.96 0.01 -0.04 0.06 11011
0.17 0.42 0.81 -0.76 10.04 0.02 -0.04 0.06 11017
0.16 0.39 0.77 -0.77 10.01 0.02 -0.03 0.06 11023
0.15 0.36 0.78 -0.76 10.00 0.02 -0.03 0.06 11029
0.18 0.31 0.82 -0.77 9.94 0.01 -0.03 0.06 11035
0.19 0.26 0.84 -0.79 10.07 0.01 -0.03 0.05 11042
0.17 0.26 0.84 -0.82 9.98 0.01 -0.02 0.06 11048
0.19 0.27 0.83 -0.81 9.96 0.01 -0.02 0.05 11055
0.19 0.22 0.86 -0.79 9.98 0.01 -0.02 0.06 11061
0.19 0.25 0.81 -0.86 9.98 0.01 -0.03 0.05 11067
0.20 0.19 0.81 -0.79 9.97 0.01 -0.02 0.04 11074
0.20 0.16 0.80 -0.79 9.93 0.01 -0.02 0.05 11080
0.20 0.17 0.80 -0.77 9.99 0.01 -0.02 0.05 11086
0.22 0.16 0.80 -0.78 10.04 0.01 -0.02 0.05 11092
0.21 0.15 0.81 -0.82 10.05 0.01 -0.02 0.05 11099
0.21 0.13 0.85 -0.83 9.95 0.01 -0.02 0.05 11106
0.25 0.11 0.77 -0.83 9.99 0.01 -0.02 0.05 11112
0.26 0.06 0.82 -0.81 10.01 0.01 -0.02 0.05 11118
0.24 0.09 0.82 -0.84 9.99 0.00 -0.02 0.05 11124
0.24 0.06 0.78 -0.79 9.99 0.00 -0.02 0.05 11130
0.25 0.02 0.83 -0.82 9.96 -0.00 -0.01 0.04 11138
0.27 0.03 0.81 -0.78 10.00 0.00 -0.01 0.05 11144
0.29 0.05 0.85 -0.82 9.97 0.00 -0.01 0.04 11150
0.31 0.04 0.72 -0.74 10.01 -0.00 -0.00 0.05 11156
0.33 0.03 0.87 -0.85 9.96 0.00 0.00 0.04 11162
0.37 0.01 0.81 -0.81 9.93 0.00 0.01 0.04 11168
0.37 0.01 0.86 -0.83 9.97 0.01 0.01 0.04 11175
0.40 0.03 0.87 -0.85 9.98 0.01 0.02 0.04 11182
0.40 0.00 0.85 -0.80 10.02 0.01 0.03 0.03 11188
0.43 -0.02 0.85 -0.84 10.02 0.02 0.03 0.04 11194
0.44 0.00 0.89 -0.87 10.06 0.02 0.03 0.04 11200
0.45 -0.01 0.87 -0.79 10.09 0.03 0.04 0.04 11207
0.45 -0.03 0.87 -0.79 10.06 0.03 0.04 0.05 11213
0.46 -0.03 0.84 -0.85 10.09 0.05 0.05 0.04 11219
0.47 -0.04 0.88 -0.58 10.10 0.06 0.05 0.05 11226
0.50 -0.01 1.03 -0.56 9.68 0.06 0.06 0.05 11233
0.53 -0.03 0.96 -0.89 10.11 0.08 0.06 0.05 11239
0.55 -0.03 1.02 -0.92 10.15 0.11 0.07 0.04 11245
0.57 -0.02 0.98 -0.89 10.23 0.15 0.10 0.04 11251
0.62 -0.04 1.03 -0.92 10.35 0.22 0.14 0.03 11258
0.61 -0.04 1.05 -0.92 10.48 0.31 0.22 0.02 11265
0.63 -0.04 1.14 -1.05 10.71 0.45 0.32 0.01 11271
0.63 -0.05 1.18 -1.10 11.20 0.66 0.44 -0.02 11277
0.63 -0.03 1.16 -1.11 11.97 0.98 0.54 -0.04 11284
0.59 -0.04 1.07 -1.04 13.14 1.38 0.61 -0.06 11290
0.56 -0.04 1.58 -1.24 13.44 1.75 0.53 -0.08 11296
0.53 -0.04 2.11 -1.42 13.80 2.05 0.37 -0.15 11302
0.49 -0.03 2.09 -1.17 14.74 2.32 0.19 -0.25 11310
0.48 -0.02 1.74 -1.40 15.03 2.58 0.08 -0.33 11316
0.40 -0.03 1.18 -1.60 15.14 2.84 -0.02 -0.35 11322
0.36 -0.02 1.32 -1.53 15.97 3.11 -0.11 -0.33 11328
0.32 -0.02 1.69 -1.77 17.24 3.42 -0.23 -0.32 11335
0.24 -0.01 2.13 -2.00 18.29 3.77 -0.30 -0.32 11341
0.22 -0.01 2.79 -2.40 18.96 4.10 -0.29 -0.34 11347
0.19 -0.01 3.18 -2.41 18.00 4.24 -0.38 -0.37 11355
0.14 0.01 2.43 -2.13 20.20 4.28 -0.52 -0.52 11361
0.13 0.01 2.12 -4.85 18.37 4.28 -0.50 -0.45 11367
0.11 0.01 3.06 -4.61 24.25 4.28 -0.36 -0.47 11373
0.08 0.00 3.80 -4.50 23.45 4.28 -0.25 -0.48 11380
0.06 -0.00 3.76 -2.28 25.85 4.28 -0.27 -0.54 11386
0.09 -0.00 3.49 0.26 26.52 4.27 -0.44 -0.59 11393
0.08 -0.01 3.42 3.99 26.94 4.11 -0.68 -0.60 11399
0.09 -0.01 2.72 5.25 23.66 3.61 -0.74 -0.48 11406
0.08 -0.01 1.70 10.06 14.58 3.11 -0.84 -0.24 11412
0.06 -0.01 0.07 12.35 11.14 2.65 -0.82 -0.16 11418
0.05 -0.00 2.54 24.64 8.97 1.99 -0.82 -0.11 11424
0.04 -0.00 2.19 17.83 8.20 0.96 -0.51 -0.22 11431
0.04 -0.00 3.97 14.97 8.51 0.30 -0.35 -0.35 11438
0.06 -0.01 2.81 15.26 9.93 -0.21 -0.20 -0.51 11444
0.05 -0.00 1.21 12.73 6.58 -0.57 -0.13 -0.72 11450
0.05 -0.00 -0.61 10.56 4.06 -0.69 -0.23 -0.89 11456
0.06 -0.01 -0.61 9.87 3.48 -0.75 -0.38 -0.99 11463
0.06 -0.01 -0.26 9.81 3.89 -0.85 -0.52 -1.05 11469
0.05 0.00 0.65 9.46 4.70 -0.97 -0.62 -1.09 11475
0.05 -0.01 1.74 8.70 5.35 -1.12 -0.66 -1.11 11482
0.05 -0.01 2.45 8.38 5.76 -1.27 -0.62 -1.13 11488
0.05 -0.00 2.84 7.71 5.96 -1.44 -0.53 -1.12 11495
0.05 -0.00 2.79 6.95 6.47 -1.59 -0.45 -1.09 11501
0.05 -0.00 2.91 6.02 6.63 -1.70 -0.37 -1.05 11507
0.04 0.00 3.02 4.97 7.28 -1.79 -0.33 -1.00 11513
0.06 -0.01 3.23 4.27 8.01 -1.81 -0.29 -0.94 11520
0.06 -0.01 3.51 3.96 9.02 -1.84 -0.26 -0.87 11526
0.05 -0.00 3.89 3.73 9.83 -1.90 -0.19 -0.80 11533
0.07 -0.01 4.16 3.37 10.36 -2.00 -0.09 -0.73 11539
0.04 -0.00 4.26 2.89 10.79 -2.12 0.04 -0.65 11545
0.06 -0.01 4.36 2.21 11.07 -2.25 0.19 -0.55 11551
0.06 -0.01 4.36 1.26 11.21 -2.34 0.32 -0.43 11557
0.05 -0.01 4.08 0.31 11.41 -2.40 0.43 -0.30 11565
0.07 0.00 3.87 -0.42 11.46 -2.42 0.53 -0.16 11571
0.06 -0.01 3.61 -1.06 11.44 -2.40 0.60 -0.00 11577
0.05 -0.00 3.42 -1.46 11.52 -2.36 0.65 0.15 11583
0.05 -0.01 3.19 -1.66 11.75 -2.31 0.69 0.31 11589
0.06 -0.01 2.94 -1.75 12.07 -2.26 0.73 0.45 11596
0.04 -0.00 2.71 -1.86 12.29 -2.22 0.79 0.56 11602
0.06 -0.01 2.63 -2.16 12.44 -2.19 0.87 0.65 11609
0.04 -0.00 2.28 -2.55 12.85 -2.16 0.91 0.71 11615
0.05 -0.00 1.87 -2.85 13.07 -2.13 0.91 0.73 11621
0.06 -0.01 1.52 -3.14 13.25 -2.10 0.87 0.73 11628
0.05 -0.00 1.26 -3.48 13.36 -2.07 0.78 0.70 11634
0.05 -0.01 1.28 -3.60 13.59 -2.04 0.73 0.67 11640
0.06 -0.01 1.28 -3.59 13.86 -2.03 0.65 0.62 11646
0.05 -0.01 1.40 -3.55 13.99 -2.03 0.60 0.57 11654
0.06 -0.00 1.50 -3.35 13.98 -2.05 0.55 0.51 11660
0.06 -0.01 1.68 -3.47 13.81 -2.08 0.55 0.47 11666
0.04 -0.00 1.82 -3.65 13.84 -2.10 0.56 0.41 11672
0.06 -0.01 1.94 -3.93 13.78 -2.11 0.59 0.36 11678
0.06 -0.01 2.05 -4.19 13.58 -2.09 0.64 0.31 11685
0.05 -0.01 2.09 -4.47 13.47 -2.06 0.68 0.26 11692
0.07 -0.01 1.97 -4.76 13.29 -2.00 0.72 0.21 11698
0.05 -0.01 1.82 -5.00 13.06 -1.93 0.76 0.16 11704
0.05 -0.01 1.65 -5.19 12.83 -1.85 0.80 0.12 11710
0.06 -0.01 1.48 -5.34 12.89 -1.76 0.83 0.08 11717
0.05 -0.00 1.34 -5.25 13.19 -1.69 0.84 0.05 11723
0.06 -0.01 1.03 -5.33 13.27 -1.62 0.83 0.02 11729
0.06 -0.01 0.74 -5.23 13.41 -1.58 0.80 0.00 11736
0.06 -0.01 0.54 -5.16 13.63 -1.57 0.75 0.00 11742
0.05 -0.01 0.43 -5.11 13.70 -1.58 0.69 0.01 11749
0.06 -0.01 0.39 -5.12 13.46 -1.59 0.64 0.03 11755
0.05 -0.01 0.36 -5.17 12.93 -1.60 0.64 0.06 11761
0.05 -0.00 0.05 -5.36 12.33 -1.59 0.68 0.11 11767
0.06 -0.01 -0.38 -5.52 11.86 -1.55 0.75 0.17 11773
0.05 -0.00 -1.03 -5.78 11.26 -1.49 0.81 0.24 11781
0.06 -0.01 -1.71 -6.11 10.85 -1.39 0.85 0.32 11787
0.06 -0.01 -2.35 -6.56 10.66 -1.27 0.81 0.42 11793
0.05 -0.00 -2.90 -7.02 10.76 -1.13 0.70 0.51 11799
0.07 -0.01 -3.14 -7.40 10.87 -1.00 0.50 0.59 11805
0.06 -0.01 -3.09 -7.81 10.98 -0.90 0.27 0.65 11812
0.05 -0.01 -2.50 -8.33 10.95 -0.82 0.06 0.68 11819
0.07 -0.01 -1.68 -8.99 10.55 -0.78 -0.10 0.67 11825
0.05 -0.01 -1.09 -9.64 9.84 -0.76 -0.16 0.61 11831
0.06 -0.01 -0.44 -10.18 9.97 -0.76 -0.16 0.54 11837
0.06 -0.01 -0.22 -10.91 10.04 -0.81 -0.04 0.48 11844
0.06 -0.01 0.12 -11.60 9.72 -0.88 0.15 0.41 11850
0.05 -0.01 0.03 -12.02 9.12 -0.95 0.32 0.31 11856
0.06 -0.01 -0.55 -12.45 8.29 -1.00 0.49 0.21 11863
0.05 -0.01 -1.19 -13.02 8.00 -1.03 0.64 0.13 11870
0.06 -0.01 -1.55 -13.79 7.53 -1.01 0.73 0.06 11876
0.06 -0.01 -1.85 -14.32 7.11 -0.97 0.79 -0.00 11882
0.05 -0.01 -2.40 -17.05 6.73 -0.87 0.78 -0.04 11888
0.07 -0.01 -4.70 -19.39 22.07 -0.08 0.47 -0.07 11894
0.05 -0.01 -4.61 -14.63 1.71 0.18 0.20 -0.09 11901
0.05 -0.01 -5.36 -20.15 3.57 0.47 -0.42 -0.15 11908
0.06 -0.01 -4.46 -20.07 6.15 1.00 -0.98 -0.21 11914
0.06 -0.01 -3.10 -23.21 4.10 1.22 -1.37 -0.24 11920
0.06 0.01 -2.50 -24.63 1.06 1.56 -1.63 -0.24 11927
0.05 0.03 -1.89 -24.34 -3.60 1.89 -1.72 -0.12 11933
0.05 0.14 2.84 -0.15 4.80 2.64 -1.44 0.04 11939
0.04 0.49 1.59 -4.02 12.63 3.36 -1.40 0.16 11945
0.03 0.74 -0.37 -0.93 27.50 3.87 -1.65 0.14 11953
0.02 1.00 -1.68 0.50 21.98 3.60 -1.39 0.10 11959
0.01 1.08 -1.54 -2.68 18.79 3.36 -1.37 -0.09 11965
0.00 1.12 -0.93 -4.83 24.20 3.46 -0.97 -0.23 11971
0.01 1.08 -1.60 -6.68 36.79 2.08 -2.11 -0.27 11978
0.01 1.10 2.29 -2.69 12.36 0.32 -0.72 0.06 11984
-0.00 1.09 -0.09 -3.55 12.26 0.08 -0.18 0.16 11991
0.00 1.10 0.59 -1.10 10.27 0.03 -0.08 0.13 11997
0.00 1.04 0.67 -0.11 9.85 0.04 -0.07 0.09 12004
0.01 1.02 0.74 -0.29 9.76 0.00 -0.08 0.09 12010
0.01 1.01 0.80 -1.01 10.05 0.01 -0.05 0.10 12016
0.01 1.01 0.72 -1.46 10.15 -0.02 -0.03 0.09 12022
0.02 1.03 0.56 -1.19 10.25 -0.03 -0.01 0.09 12028
0.02 1.08 0.57 -0.86 10.11 -0.04 0.01 0.08 12036
0.02 1.05 0.69 -0.80 9.95 -0.04 0.01 0.07 12042
0.01 1.08 0.83 -0.86 9.96 -0.03 0.01 0.07 12048
-0.00 1.08 0.82 -0.76 9.90 -0.03 0.01 0.07 12054
0.01 1.13 0.79 -0.78 9.96 -0.03 0.01 0.07 12060
0.03 1.15 0.73 -0.72 9.97 -0.03 0.01 0.07 12067
0.03 1.12 0.80 -0.73 10.05 -0.02 0.01 0.07 12073
0.04 1.11 0.76 -0.77 10.03 -0.01 0.02 0.07 12080
0.05 1.08 0.78 -0.73 10.06 -0.01 0.02 0.07 12086
0.05 1.05 0.83 -0.75 10.01 0.00 0.02 0.07 12092
0.07 0.99 0.77 -0.77 10.00 0.00 0.01 0.07 12099
0.05 0.93 0.76 -0.73 10.03 0.01 0.00 0.07 12105
0.05 0.88 0.82 -0.75 9.98 0.01 0.00 0.07 12111
0.05 0.82 0.85 -0.74 9.96 0.01 -0.00 0.08 12118
0.06 0.76 0.80 -0.71 9.99 0.00 -0.00 0.08 12124
0.05 0.73 0.93 -0.83 9.92 0.01 0.00 0.08 12131
0.07 0.70 0.78 -0.74 9.98 0.01 -0.00 0.07 12137
0.08 0.66 0.86 -0.72 9.95 0.02 -0.00 0.07 12143
0.08 0.62 0.87 -0.73 9.93 0.01 -0.00 0.07 12149
0.11 0.56 0.86 -0.72 9.92 0.01 -0.01 0.06 12155
0.10 0.52 0.82 -0.72 9.97 0.02 -0.01 0.06 12163
0.09 0.51 0.84 -0.79 9.97 0.01 -0.01 0.06 12169
0.09 0.50 0.86 -0.76 9.91 0.01 -0.02 0.06 12175
0.09 0.46 0.83 -0.76 9.91 0.01 -0.02 0.06 12181
0.08 0.45 0.81 -0.76 9.94 0.01 -0.02 0.05 12187
0.09 0.42 0.80 -0.80 9.92 0.01 -0.02 0.06 12193
0.09 0.41 0.83 -0.76 9.98 0.01 -0.02 0.06 12200
0.08 0.40 0.82 -0.76 9.95 0.01 -0.02 0.06 12207
0.11 0.34 0.83 -0.77 9.95 0.01 -0.02 0.06 12213
0.11 0.37 0.81 -0.75 9.93 0.01 -0.02 0.06 12219
0.12 0.32 0.87 -0.74 9.90 0.02 -0.03 0.06 12225
0.16 0.32 0.84 -0.76 9.94 0.01 -0.03 0.06 12232
0.14 0.30 0.88 -0.80 9.94 0.01 -0.04 0.06 12238
0.14 0.28 0.86 -0.76 9.94 0.01 -0.04 0.06 12244
0.15 0.25 0.89 -0.80 10.04 0.01 -0.04 0.06 12251
0.15 0.22 0.84 -0.80 9.95 0.01 -0.04 0.05 12257
0.14 0.25 0.81 -0.78 9.92 0.00 -0.03 0.05 12264
0.17 0.23 0.79 -0.77 9.91 0.00 -0.03 0.05 12270
0.16 0.24 0.76 -0.79 9.98 -0.00 -0.03 0.06 12276
0.17 0.23 0.83 -0.77 9.98 -0.00 -0.02 0.06 12282
0.16 0.25 0.84 -0.81 9.88 -0.00 -0.02 0.06 12289
0.15 0.22 0.85 -0.79 9.97 -0.00 -0.02 0.05 12295
0.16 0.23 0.84 -0.77 9.92 -0.00 -0.02 0.06 12302
0.16 0.21 0.84 -0.80 9.98 -0.00 -0.02 0.06 12308
0.17 0.19 0.85 -0.77 9.98 -0.00 -0.02 0.06 12314
0.18 0.17 0.85 -0.82 9.95 -0.00 -0.02 0.06 12320
0.21 0.13 0.87 -0.76 9.96 -0.00 -0.02 0.06 12326
0.19 0.12 0.86 -0.81 9.92 -0.00 -0.02 0.05 12334
0.19 0.14 0.86 -0.81 9.99 -0.00 -0.02 0.05 12340
0.21 0.13 0.84 -0.78 9.98 -0.00 -0.02 0.05 12346
0.20 0.13 0.86 -0.76 9.98 -0.00 -0.02 0.05 12352
0.19 0.13 0.84 -0.81 9.92 -0.00 -0.01 0.05 12358
0.20 0.10 0.83 -0.83 9.97 -0.00 -0.00 0.05 12364
0.22 0.07 0.84 -0.81 9.98 -0.00 0.00 0.05 12371
0.20 0.06 0.84 -0.85 10.01 -0.00 0.02 0.05 12378
0.23 0.07 0.83 -0.77 10.05 -0.00 0.02 0.05 12384
0.22 0.05 0.89 -0.77 9.99 0.00 0.02 0.06 12390
0.22 0.04 0.85 -0.81 10.00 -0.00 0.02 0.06 12396
0.23 0.04 0.88 -0.81 10.00 0.01 0.02 0.06 12403
0.22 0.04 0.88 -0.75 10.00 0.01 0.02 0.06 12409
0.23 0.04 0.88 -0.79 10.00 0.01 0.02 0.06 12416
0.23 0.03 0.87 -0.81 10.04 0.02 0.01 0.07 12422
0.22 0.02 0.91 -0.80 9.99 0.02 0.01 0.07 12428
0.23 0.01 0.93 -0.81 10.03 0.03 0.02 0.07 12435
0.23 -0.00 0.92 -0.83 10.11 0.04 0.02 0.07 12441
0.22 -0.02 0.86 -1.34 10.02 0.05 0.02 0.08 12447
0.24 -0.00 0.99 -0.88 10.45 0.09 0.04 0.07 12453
0.23 -0.01 1.20 -0.83 10.63 0.18 0.08 0.05 12461
0.24 -0.02 1.55 -0.77 10.36 0.32 0.15 0.01 12467
0.27 -0.02 1.69 -0.76 12.22 0.58 0.31 -0.06 12473
0.26 -0.03 1.86 -0.78 14.39 1.15 0.57 -0.15 12479
0.29 -0.02 2.21 -0.87 17.70 2.03 0.71 -0.28 12485
0.27 -0.02 1.76 -1.08 17.13 2.68 0.43 -0.36 12492
0.25 -0.01 2.33 -0.55 17.29 3.10 0.08 -0.42 12498
0.30 -0.02 2.53 -0.95 16.83 3.43 -0.10 -0.51 12505
0.24 -0.02 2.79 -1.51 16.49 3.67 -0.18 -0.59 12512
0.24 0.01 2.59 -1.98 15.96 3.92 -0.23 -0.64 12518
0.15 0.00 3.04 -2.42 16.06 4.09 -0.30 -0.71 12524
0.15 -0.00 1.90 -1.84 17.11 4.17 -0.24 -0.79 12530
0.13 -0.00 2.32 -2.87 16.41 4.23 -0.16 -0.72 12537
0.09 -0.00 3.07 -1.83 18.87 4.25 -0.03 -0.72 12544
0.08 0.00 4.00 -3.81 20.57 4.26 -0.00 -0.72 12550
0.07 -0.01 5.38 -3.32 22.14 4.25 0.03 -0.75 12556
0.07 -0.01 5.39 -1.73 22.17 4.14 0.08 -0.82 12563
0.08 -0.01 4.80 -1.16 22.03 3.83 0.16 -0.89 12569
0.08 -0.01 4.03 1.21 22.39 3.51 0.05 -0.94 12575
0.09 -0.01 2.53 4.51 21.07 3.18 -0.24 -0.96 12581
0.09 -0.01 1.33 7.62 16.54 2.79 -0.54 -0.93 12588
0.07 -0.01 2.95 12.05 14.35 2.33 -0.80 -0.88 12595
0.08 -0.01 4.13 14.42 11.49 1.86 -0.92 -0.83 12601
0.07 -0.01 5.15 11.29 9.83 1.47 -0.88 -0.84 12607
0.05 -0.00 6.31 12.92 11.89 1.01 -0.77 -0.89 12613
0.07 -0.01 5.60 12.89 10.22 0.57 -0.50 -0.97 12620
0.06 -0.01 4.71 11.65 8.46 0.26 -0.34 -1.07 12626
0.06 -0.01 3.68 11.18 7.37 0.03 -0.32 -1.13 12633
0.07 -0.01 2.86 10.89 6.90 -0.18 -0.35 -1.15 12639
0.07 -0.01 2.68 10.59 6.36 -0.34 -0.39 -1.15 12645
0.07 -0.01 2.76 10.18 5.91 -0.51 -0.44 -1.11 12652
0.07 -0.01 2.94 9.68 5.76 -0.68 -0.47 -1.06 12658
0.06 -0.01 3.00 9.27 5.23 -0.83 -0.46 -0.99 12664
0.07 -0.01 3.23 8.83 5.17 -0.97 -0.41 -0.91 12670
0.07 -0.01 3.17 8.33 5.39 -1.09 -0.36 -0.83 12677
0.07 -0.01 3.14 7.75 6.09 -1.19 -0.31 -0.73 12684
0.07 -0.00 3.02 7.14 5.93 -1.28 -0.27 -0.62 12690
0.06 -0.01 2.98 6.57 6.28 -1.35 -0.26 -0.51 12696
0.07 -0.01 3.05 6.01 6.81 -1.43 -0.24 -0.40 12702
0.07 -0.01 3.15 5.60 7.41 -1.51 -0.24 -0.28 12708
0.08 -0.01 3.18 5.29 7.91 -1.58 -0.23 -0.17 12715
0.07 -0.01 3.35 4.86 8.50 -1.68 -0.19 -0.05 12722
0.08 -0.01 3.75 4.54 9.31 -1.79 -0.13 0.06 12728
0.09 -0.01 4.13 4.19 10.02 -1.91 -0.01 0.18 12734
0.07 -0.01 4.44 3.86 10.49 -2.06 0.14 0.29 12740
0.05 -0.01 4.49 3.32 11.02 -2.21 0.31 0.42 12746
0.05 -0.01 4.35 2.60 11.64 -2.35 0.45 0.51 12753
0.04 -0.00 4.03 1.67 12.06 -2.46 0.53 0.62 12760
0.04 -0.00 3.79 0.70 12.43 -2.54 0.55 0.74 12766
0.05 -0.01 3.84 -0.16 12.71 -2.59 0.55 0.84 12772
0.04 -0.00 3.95 -0.90 12.85 -2.60 0.53 0.92 12778
0.04 0.00 4.15 -1.43 13.10 -2.60 0.52 1.00 12785
0.05 -0.00 4.33 -2.02 13.35 -2.59 0.52 1.06 12791
0.04 -0.00 4.48 -2.52 13.86 -2.57 0.54 1.10 12797
0.05 -0.01 4.57 -3.00 14.26 -2.55 0.55 1.13 12804
0.05 -0.00 4.44 -3.36 14.68 -2.53 0.56 1.16 12810
0.04 -0.00 4.37 -3.75 15.01 -2.52 0.57 1.18 12817
0.06 -0.01 4.28 -4.22 15.35 -2.50 0.58 1.20 12823
0.05 -0.00 4.35 -4.72 15.58 -2.48 0.57 1.21 12829
0.05 -0.00 4.36 -5.16 15.62 -2.47 0.57 1.21 12835
0.05 -0.00 4.43 -5.63 15.46 -2.44 0.57 1.20 12841
0.05 -0.01 4.52 -5.92 15.25 -2.41 0.57 1.18 12849
0.05 0.00 4.52 -6.27 14.83 -2.35 0.58 1.17 12855
0.04 -0.00 4.56 -6.54 14.39 -2.28 0.61 1.15 12861
0.03 -0.00 4.46 -6.65 13.79 -2.19 0.62 1.14 12867
0.05 -0.01 4.30 -6.76 13.61 -2.09 0.63 1.12 12874
0.05 -0.01 4.09 -6.75 13.22 -1.97 0.64 1.10 12880
0.04 -0.00 3.79 -6.67 12.92 -1.83 0.64 1.08 12887
0.06 -0.01 3.42 -6.59 12.57 -1.69 0.64 1.06 12893
0.05 -0.00 3.18 -6.60 12.31 -1.54 0.65 1.03 12899
0.05 -0.00 2.99 -6.49 11.98 -1.38 0.67 1.00 12906
0.05 -0.00 2.68 -6.50 12.03 -1.22 0.69 0.96 12912
0.04 -0.00 2.34 -6.33 12.22 -1.09 0.70 0.92 12918
0.05 -0.01 1.57 -5.96 12.05 -0.95 0.72 0.88 12924
0.05 -0.00 1.17 -5.88 13.13 -0.92 0.68 0.85 12931
0.05 -0.00 0.72 -5.82 13.50 -0.88 0.69 0.83 12938
0.05 -0.00 0.23 -5.75 14.24 -0.90 0.67 0.82 12944
0.05 -0.01 -0.04 -5.50 14.66 -0.98 0.60 0.81 12950
0.04 -0.00 -0.25 -5.41 14.60 -1.14 0.58 0.78 12956
0.05 -0.01 -0.19 -6.13 13.84 -1.33 0.54 0.73 12962
0.04 -0.00 0.02 -5.98 12.88 -1.52 0.54 0.69 12969
0.04 -0.00 0.39 -6.55 13.55 -1.66 0.58 0.63 12976
0.06 -0.01 0.63 -7.25 11.54 -1.73 0.68 0.55 12982
0.05 -0.00 0.68 -8.01 10.63 -1.72 0.79 0.46 12988
0.05 -0.00 0.48 -8.68 9.83 -1.64 0.90 0.37 12994
0.05 0.00 0.01 -9.27 8.93 -1.50 1.00 0.27 13001
0.05 -0.01 -0.77 -9.80 8.27 -1.34 1.11 0.20 13007
0.05 0.00 -1.66 -10.49 8.19 -1.17 1.18 0.17 13014
0.06 -0.01 -2.53 -11.29 8.46 -1.06 1.15 0.13 13020
0.06 -0.01 -3.13 -12.12 8.73 -0.94 0.98 0.09 13026
0.05 -0.00 -3.49 -12.80 8.60 -0.84 0.73 0.05 13033
0.06 -0.01 -3.39 -13.44 8.22 -0.76 0.47 0.03 13039
0.06 -0.01 -3.06 -13.75 7.70 -0.70 0.25 0.02 13045
0.07 -0.00 -2.63 -14.16 7.22 -0.62 0.10 0.02 13051
0.06 -0.01 -2.15 -14.48 6.84 -0.53 0.07 0.02 13058
0.05 -0.00 -1.67 -14.64 6.75 -0.41 0.05 0.01 13065
0.06 -0.00 -1.37 -14.74 6.77 -0.27 0.08 -0.00 13071
0.06 -0.01 -1.17 -14.42 6.99 -0.14 0.11 -0.02 13077
0.05 -0.00 -1.22 -13.78 7.10 -0.04 0.14 -0.01 13083
0.06 -0.00 -1.42 -13.14 6.74 0.05 0.15 0.02 13090
0.05 -0.01 -1.61 -12.59 7.40 0.12 0.11 0.07 13096
0.06 -0.01 -8.28 -22.47 28.88 0.87 -0.74 0.18 13103
0.06 -0.01 -3.18 -12.56 2.96 1.55 -1.17 0.25 13109
0.05 -0.00 -3.54 -16.17 0.91 1.75 -1.95 0.30 13115
0.05 0.01 -2.88 -17.22 3.60 2.12 -2.21 0.33 13122
0.04 0.02 0.82 -5.31 4.81 2.44 -2.18 0.36 13128
0.04 0.11 -0.65 3.58 4.88 2.65 -1.80 0.44 13134
0.04 0.24 2.15 -0.69 9.69 2.87 -1.53 0.55 13140
0.03 0.52 -0.86 0.36 19.44 3.23 -1.65 0.57 13148
0.01 0.78 -2.94 0.05 19.49 3.44 -1.58 0.49 13154
0.00 1.01 -4.32 -2.85 17.68 3.69 -1.60 0.21 13160
-0.01 1.08 -2.11 -3.82 19.71 3.84 -1.38 -0.02 13166
0.01 1.11 -1.77 -5.18 25.24 3.95 -0.94 -0.14 13173
-0.01 1.12 -0.64 -4.28 35.47 1.61 -2.15 -0.26 13179
-0.00 1.10 1.91 -3.10 11.70 0.08 -0.47 0.08 13186
-0.01 1.17 0.00 -3.71 11.71 -0.05 -0.12 0.10 13193
-0.00 1.13 0.75 -1.16 10.30 -0.03 -0.04 0.11 13199
0.00 1.11 0.72 -0.21 9.90 0.03 -0.06 0.09 13205
-0.00 1.02 0.67 -0.22 9.81 0.00 -0.07 0.09 13211
-0.00 0.95 0.75 -0.68 9.89 0.01 -0.06 0.08 13217
0.05 1.01 0.73 -0.97 9.98 -0.02 -0.05 0.07 13224
0.03 1.01 0.70 -1.11 10.15 -0.03 -0.03 0.08 13231
0.02 1.02 0.04 -0.93 9.96 -0.03 -0.02 0.08 13237
0.04 1.05 0.67 -0.82 10.09 -0.05 -0.01 0.07 13243
0.02 1.09 0.83 -0.73 10.00 -0.04 -0.01 0.07 13249
0.01 1.11 0.87 -0.75 9.89 -0.04 -0.01 0.06 13256
0.00 1.11 0.81 -0.77 9.97 -0.04 -0.01 0.06 13262
-0.01 1.13 0.78 -0.82 9.86 -0.04 -0.01 0.06 13268
0.01 1.19 0.74 -0.76 9.98 -0.04 -0.01 0.06 13275
0.01 1.19 0.80 -0.73 10.00 -0.03 0.00 0.06 13281
0.01 1.19 0.83 -0.71 10.09 -0.02 0.00 0.06 13288
0.03 1.20 0.78 -0.75 10.11 -0.02 0.01 0.07 13294
0.03 1.15 0.82 -0.75 10.03 -0.01 0.00 0.07 13300
0.04 1.14 0.80 -0.71 9.91 -0.00 0.00 0.08 13306
0.04 1.08 0.82 -0.72 10.05 -0.00 -0.01 0.08 13314
0.02 1.02 0.82 -0.72 9.95 0.00 -0.01 0.08 13320
0.02 1.04 0.85 -0.71 9.98 0.00 -0.02 0.08 13326
0.04 1.00 0.81 -0.71 9.91 0.00 -0.03 0.07 13332
0.04 0.95 0.77 -0.69 9.96 0.00 -0.03 0.07 13338
0.04 0.93 0.84 -0.72 9.96 0.01 -0.04 0.08 13344
0.05 0.91 0.85 -0.70 10.00 0.01 -0.05 0.07 13351
0.08 0.86 0.83 -0.67 9.95 0.01 -0.05 0.07 13358
0.06 0.84 0.82 -0.68 9.92 0.01 -0.06 0.07 13364
0.07 0.81 0.79 -0.69 9.92 0.01 -0.06 0.06 13370
0.07 0.77 0.81 -0.72 9.91 0.01 -0.06 0.06 13376
0.08 0.75 0.79 -0.75 9.95 0.01 -0.06 0.06 13383
0.10 0.69 0.78 -0.70 9.92 0.01 -0.06 0.06 13389
0.08 0.68 0.80 -0.70 9.96 0.01 -0.06 0.05 13395
0.07 0.66 0.79 -0.69 9.97 0.01 -0.05 0.06 13402
0.08 0.58 0.77 -0.75 10.03 0.00 -0.05 0.06 13408
0.09 0.55 0.79 -0.72 10.02 0.01 -0.05 0.06 13415
0.10 0.54 0.77 -0.74 9.90 0.01 -0.05 0.06 13421
0.09 0.56 0.76 -0.72 9.98 0.00 -0.05 0.07 13427
0.07 0.54 0.79 -0.73 10.02 0.01 -0.04 0.07 13433
0.08 0.47 0.77 -0.74 9.98 0.01 -0.04 0.07 13440
0.09 0.49 0.79 -0.76 9.97 0.00 -0.04 0.07 13446
0.07 0.48 0.79 -0.70 9.96 0.00 -0.04 0.07 13453
0.09 0.49 0.80 -0.73 9.96 -0.00 -0.04 0.06 13459
0.09 0.48 0.77 -0.72 9.98 -0.00 -0.04 0.06 13465
0.08 0.48 0.78 -0.74 9.95 -0.01 -0.04 0.06 13471
0.10 0.44 0.80 -0.73 10.07 -0.01 -0.04 0.06 13477
0.12 0.42 0.77 -0.73 9.99 -0.01 -0.04 0.06 13485
0.11 0.40 0.79 -0.74 9.99 -0.01 -0.04 0.05 13491
0.14 0.45 0.77 -0.72 9.96 -0.01 -0.03 0.06 13497
0.14 0.42 0.78 -0.74 9.94 -0.01 -0.03 0.05 13503
0.13 0.44 0.78 -0.75 9.93 -0.01 -0.03 0.06 13509
0.14 0.44 0.76 -0.73 10.01 -0.01 -0.02 0.06 13516
0.14 0.34 0.78 -0.72 9.97 -0.01 -0.02 0.06 13522
0.11 0.38 0.74 -0.75 10.00 -0.01 -0.01 0.06 13529
0.12 0.35 0.72 -0.75 9.94 -0.01 0.00 0.06 13535
0.13 0.34 0.80 -0.74 9.95 -0.01 0.01 0.06 13541
0.13 0.36 0.80 -0.76 9.98 -0.01 0.01 0.06 13548
0.12 0.40 0.82 -0.71 10.00 -0.00 0.02 0.06 13554
0.13 0.37 0.81 -0.74 9.96 -0.01 0.03 0.05 13560
0.15 0.37 0.84 -0.73 10.01 -0.00 0.03 0.05 13566
0.14 0.32 0.87 -0.74 9.98 -0.00 0.03 0.04 13573
0.15 0.26 0.81 -0.72 10.00 -0.00 0.03 0.04 13580
0.14 0.28 0.85 -0.71 9.96 -0.00 0.03 0.05 13586
0.13 0.30 0.85 -0.70 9.94 0.00 0.04 0.05 13592
0.14 0.26 0.90 -0.69 9.96 0.01 0.03 0.05 13598
0.16 0.23 0.89 -0.69 9.99 0.01 0.04 0.05 13604
0.17 0.17 0.87 -0.69 10.03 0.02 0.04 0.06 13612
0.19 0.14 0.83 -0.70 10.00 0.03 0.04 0.07 13618
0.22 0.07 0.93 -0.66 10.05 0.04 0.04 0.06 13624
0.24 0.05 0.90 -0.65 10.15 0.05 0.05 0.07 13630
0.25 0.04 0.90 -0.72 10.15 0.07 0.06 0.07 13637
0.28 0.02 0.80 -0.66 10.20 0.07 0.06 0.06 13643
0.28 -0.02 0.96 -0.78 10.20 0.08 0.07 0.06 13649
0.29 -0.00 1.04 -0.54 10.19 0.10 0.08 0.05 13656
0.30 -0.01 1.04 -0.82 10.72 0.16 0.12 0.05 13662
0.26 -0.02 1.41 -0.94 10.66 0.28 0.19 0.02 13669
0.30 -0.02 1.41 -0.67 11.75 0.52 0.33 -0.03 13675
0.29 -0.03 2.05 -0.91 13.72 1.04 0.59 -0.11 13681
0.29 -0.02 2.59 -0.67 16.38 1.93 0.78 -0.27 13687
0.29 -0.02 2.58 -0.89 17.92 2.76 0.58 -0.46 13694
0.27 -0.01 2.68 -1.08 18.14 3.24 0.16 -0.60 13701
0.28 0.00 2.33 -0.70 18.11 3.58 -0.17 -0.68 13707
0.22 -0.02 2.84 -1.25 18.47 3.93 -0.37 -0.70 13714
0.18 0.02 3.78 -1.50 18.07 4.17 -0.48 -0.77 13720
0.19 -0.01 4.30 -1.68 17.56 4.27 -0.44 -0.86 13726
0.13 0.00 2.81 -1.22 17.64 4.28 -0.34 -1.01 13732
0.11 0.00 2.62 -2.82 18.35 4.28 -0.24 -0.93 13740
0.10 -0.00 4.19 -3.91 19.81 4.28 -0.17 -0.91 13746
0.08 0.01 5.88 -3.74 20.91 4.28 -0.10 -0.95 13752
0.06 -0.00 6.38 -2.72 24.38 4.28 -0.02 -1.04 13758
0.06 -0.01 6.53 -1.68 27.01 4.28 -0.08 -1.14 13765
0.08 -0.01 4.13 -0.46 26.79 4.24 -0.17 -1.20 13771
0.08 -0.01 3.83 2.14 25.79 3.93 -0.37 -1.26 13777
0.06 -0.01 3.61 5.99 21.48 3.50 -0.73 -1.27 13784
0.05 -0.00 2.36 11.37 16.96 3.17 -1.06 -1.24 13790
0.04 -0.00 3.79 18.54 13.64 2.69 -1.20 -1.21 13797
0.07 -0.01 4.95 15.94 9.40 2.02 -1.07 -1.20 13803
0.05 -0.01 6.29 14.26 7.38 1.48 -1.01 -1.18 13809
0.04 -0.00 6.40 16.69 8.91 0.90 -0.73 -1.17 13815
0.05 -0.01 5.22 14.86 6.44 0.37 -0.39 -1.19 13822
0.06 -0.01 4.48 12.39 4.81 0.08 -0.16 -1.21 13829
0.06 -0.01 3.64 11.37 3.60 -0.08 -0.11 -1.21 13835
0.07 -0.01 2.84 10.75 3.32 -0.22 -0.09 -1.16 13841
0.06 -0.01 2.56 10.13 3.28 -0.34 -0.09 -1.08 13847
0.06 -0.00 2.62 9.46 3.53 -0.45 -0.12 -0.95 13854
0.06 -0.01 2.66 8.91 3.84 -0.54 -0.16 -0.80 13860
0.05 -0.00 2.68 8.59 3.86 -0.61 -0.21 -0.65 13867
0.05 -0.01 2.52 7.99 4.13 -0.67 -0.26 -0.49 13873
0.06 -0.01 2.38 7.24 4.35 -0.71 -0.26 -0.33 13879
0.06 -0.01 2.29 6.61 4.91 -0.74 -0.21 -0.19 13885
0.06 -0.01 2.41 5.91 6.03 -0.76 -0.10 -0.07 13892
0.06 -0.01 2.80 5.54 7.20 -0.81 0.07 -0.01 13898
0.05 -0.00 3.01 5.25 8.36 -0.90 0.24 0.02 13904
0.04 -0.00 3.08 4.86 9.54 -1.05 0.47 0.02 13911
0.05 -0.00 2.96 4.20 10.52 -1.27 0.71 0.01 13917
0.05 -0.00 2.74 3.60 11.86 -1.54 0.89 -0.00 13923
0.04 -0.00 2.12 3.12 12.86 -1.84 1.01 -0.01 13930
0.05 -0.01 1.69 2.55 13.61 -2.15 1.05 0.01 13936
0.04 -0.00 1.22 1.92 13.95 -2.44 1.02 0.05 13942
0.04 -0.00 0.99 1.11 13.91 -2.70 0.95 0.10 13948
0.06 -0.01 0.91 0.24 13.60 -2.90 0.85 0.15 13955
0.04 -0.00 1.11 -0.64 13.15 -3.01 0.80 0.19 13962
0.04 -0.00 1.44 -1.64 12.88 -3.08 0.74 0.21 13968
0.05 -0.00 1.66 -2.52 12.79 -3.09 0.76 0.21 13974
0.04 -0.00 1.71 -3.29 12.79 -3.05 0.78 0.19 13980
0.05 -0.00 1.69 -3.80 12.87 -2.99 0.81 0.17 13986
0.05 -0.00 1.69 -4.07 13.04 -2.92 0.84 0.16 13993
0.04 -0.00 1.53 -4.11 13.26 -2.85 0.85 0.17 14000
0.05 -0.00 1.49 -4.10 14.05 -2.78 0.86 0.21 14006
0.04 -0.00 1.54 -4.06 13.76 -2.73 0.84 0.27 14012
0.05 -0.00 1.65 -4.06 14.12 -2.69 0.82 0.34 14018
0.05 -0.00 1.82 -4.04 14.41 -2.64 0.81 0.42 14025
0.05 -0.01 1.97 -4.07 14.56 -2.61 0.80 0.51 14031
0.04 -0.00 2.13 -4.15 14.70 -2.59 0.81 0.60 14038
0.05 0.00 2.24 -4.41 14.64 -2.58 0.81 0.68 14044
0.04 -0.00 2.46 -4.62 14.53 -2.56 0.81 0.75 14050
0.04 -0.00 2.52 -4.79 14.51 -2.51 0.79 0.80 14057
0.05 -0.01 2.59 -5.05 14.16 -2.50 0.79 0.85 14063
0.04 -0.00 2.58 -5.35 14.02 -2.45 0.80 0.89 14069
0.04 0.00 2.48 -5.64 13.84 -2.39 0.81 0.91 14075
0.05 0.00 2.36 -5.88 13.71 -2.30 0.81 0.94 14083
0.04 -0.00 2.16 -6.11 13.40 -2.20 0.79 0.96 14089
0.05 0.00 1.24 -6.33 13.19 -2.08 0.74 0.98 14095
0.04 -0.00 1.55 -6.51 12.87 -1.95 0.72 0.99 14101
0.04 -0.00 1.16 -6.61 12.70 -1.79 0.66 1.00 14107
0.05 0.00 0.97 -6.13 12.69 -1.62 0.57 1.02 14114
0.04 0.00 0.80 -6.68 12.94 -1.46 0.48 1.04 14120
0.05 0.00 0.86 -6.51 13.24 -1.32 0.42 1.05 14127
0.05 -0.00 1.03 -6.23 14.08 -1.22 0.39 1.08 14133
0.05 -0.00 1.18 -5.92 13.83 -1.18 0.40 1.10 14140
0.04 0.01 1.26 -5.62 13.92 -1.20 0.44 1.13 14146
0.04 -0.00 1.30 -5.48 13.76 -1.26 0.52 1.16 14152
0.03 -0.00 1.16 -5.47 13.47 -1.35 0.61 1.18 14158
0.04 0.00 0.84 -5.63 12.92 -1.44 0.69 1.22 14164
0.05 -0.00 0.39 -5.93 12.22 -1.51 0.77 1.25 14172
0.04 -0.00 -0.46 -5.90 10.42 -1.52 0.79 1.30 14178
0.06 -0.01 -1.41 -6.58 11.14 -1.50 0.77 1.36 14184
0.05 -0.00 -1.89 -7.34 10.56 -1.40 0.74 1.41 14190
0.04 -0.00 -2.16 -7.86 10.36 -1.33 0.57 1.43 14197
0.05 -0.01 -2.36 -8.27 9.95 -1.22 0.31 1.40 14203
0.05 -0.00 -2.20 -8.74 9.58 -1.11 0.04 1.34 14210
0.04 -0.00 -1.73 -9.19 9.03 -1.01 -0.15 1.23 14216
0.05 -0.00 -1.40 -9.50 8.32 -0.90 -0.30 1.10 14222
0.04 -0.00 -1.27 -9.82 7.90 -0.80 -0.42 0.96 14228
0.04 0.00 -0.96 -10.52 7.57 -0.67 -0.39 0.77 14235
0.06 -0.00 -0.59 -11.25 7.29 -0.52 -0.32 0.54 14241
0.04 -0.00 -0.01 -11.86 7.02 -0.37 -0.24 0.27 14247
0.05 -0.00 0.17 -12.29 7.16 -0.23 -0.15 0.01 14254
0.05 -0.00 0.45 -12.89 7.21 -0.16 -0.01 -0.26 14260
0.04 -0.00 0.75 -13.12 7.60 -0.12 0.15 -0.51 14267
0.05 0.01 0.71 -13.11 7.76 -0.10 0.31 -0.73 14273
0.04 -0.00 0.54 -12.93 7.68 -0.09 0.44 -0.92 14279
0.04 -0.00 0.24 -12.81 7.46 -0.08 0.49 -1.07 14285
0.06 -0.01 0.00 -12.81 7.17 -0.01 0.49 -1.16 14292
0.05 0.00 0.10 -12.70 7.20 0.06 0.44 -1.21 14299
0.04 0.00 0.52 -12.29 7.47 0.13 0.35 -1.21 14305
0.06 -0.01 -5.60 -23.32 12.68 0.39 -0.14 -1.11 14311
0.04 -0.00 0.31 -12.42 5.02 1.48 -0.84 -0.97 14317
0.05 0.00 -2.51 -12.49 3.50 1.54 -1.47 -0.82 14324
0.05 -0.00 -1.26 -14.87 5.00 1.77 -2.12 -0.63 14330
0.04 -0.00 3.57 -8.87 6.74 2.00 -2.28 -0.36 14337
0.04 0.04 6.17 2.17 5.00 2.14 -2.05 -0.13 14343
0.04 0.13 5.28 0.25 6.32 2.22 -1.59 0.20 14349
0.02 0.38 4.98 0.67 15.30 2.47 -1.28 0.51 14356
0.02 0.67 -1.13 1.62 16.93 2.78 -1.14 0.68 14362
0.01 0.86 -4.60 -0.74 13.45 3.19 -1.20 0.47 14368
0.00 1.04 -4.42 -2.66 17.64 3.66 -1.38 0.13 14375
-0.01 1.07 -2.67 -4.72 21.42 3.78 -1.33 -0.14 14382
0.00 1.09 -1.15 -4.44 27.46 3.74 -1.00 -0.31 14388
-0.00 1.07 0.40 -1.50 26.84 1.81 -2.07 -0.28 14394
-0.01 1.11 2.24 -3.52 11.63 0.20 -0.61 0.06 14401
0.01 1.14 0.32 -2.72 11.72 0.00 -0.15 0.09 14407
0.00 1.16 0.67 -0.65 10.21 -0.01 -0.06 0.11 14413
0.00 1.18 0.66 -0.27 9.81 0.02 -0.08 0.08 14419
-0.00 1.18 0.57 -0.34 9.96 0.03 -0.08 0.07 14427
0.00 1.15 0.74 -0.76 10.20 -0.00 -0.06 0.08 14433
0.00 1.16 0.85 -1.06 10.13 -0.01 -0.04 0.08 14439
0.00 1.18 0.69 -1.06 10.20 -0.02 -0.03 0.09 14445
-0.01 1.22 0.61 -0.86 10.15 -0.03 -0.01 0.09 14452
0.01 1.25 0.65 -0.82 10.03 -0.03 -0.01 0.08 14458
-0.01 1.22 0.79 -0.78 9.93 -0.03 -0.01 0.07 14465
-0.01 1.27 0.88 -0.79 9.94 -0.03 -0.01 0.07 14471
-0.01 1.26 0.78 -0.71 9.93 -0.03 -0.01 0.06 14477
-0.01 1.27 0.78 -0.69 10.00 -0.03 -0.01 0.06 14484
-0.02 1.32 0.70 -0.66 9.94 -0.02 -0.01 0.06 14490
-0.02 1.29 0.80 -0.67 9.98 -0.01 -0.02 0.06 14496
-0.01 1.27 0.75 -0.67 9.98 -0.01 -0.02 0.05 14502
0.00 1.26 0.78 -0.73 10.07 0.00 -0.02 0.06 14509
0.01 1.18 0.77 -0.72 10.09 0.00 -0.03 0.06 14516
0.00 1.18 0.80 -0.71 10.03 0.00 -0.03 0.06 14522
0.03 1.13 0.72 -0.72 10.02 0.01 -0.03 0.06 14528
0.02 1.08 0.74 -0.70 10.00 0.01 -0.04 0.07 14534
0.03 1.00 0.72 -0.67 10.03 0.01 -0.03 0.10 14541
0.03 0.99 0.73 -0.69 9.98 0.01 -0.03 0.07 14547
0.04 0.91 0.75 -0.68 10.01 0.01 -0.03 0.07 14554
0.04 0.88 0.72 -0.68 9.97 0.01 -0.03 0.07 14560
0.06 0.82 0.78 -0.70 10.01 0.02 -0.03 0.07 14566
0.06 0.76 0.77 -0.69 9.94 0.02 -0.03 0.07 14573
0.06 0.75 0.75 -0.71 9.95 0.01 -0.03 0.07 14579
0.07 0.71 0.81 -0.73 9.77 0.01 -0.03 0.07 14585
0.06 0.66 0.78 -0.70 9.96 0.01 -0.03 0.06 14592
0.07 0.63 0.74 -0.69 9.94 0.01 -0.03 0.06 14598
0.05 0.60 0.76 -0.73 9.96 0.01 -0.03 0.06 14604
0.04 0.56 0.76 -0.73 9.96 0.01 -0.02 0.05 14611
0.04 0.57 0.76 -0.72 9.98 0.01 -0.02 0.06 14617
0.06 0.55 0.72 -0.73 9.94 0.01 -0.02 0.05 14623
0.05 0.50 0.74 -0.72 10.00 0.00 -0.01 0.05 14629
0.05 0.49 0.73 -0.72 9.96 0.00 -0.01 0.05 14636
0.05 0.51 0.73 -0.75 10.03 0.00 -0.01 0.06 14643
0.05 0.46 0.74 -0.71 9.98 0.00 0.00 0.06 14649
0.05 0.47 0.75 -0.73 9.95 0.00 0.00 0.06 14655
0.06 0.47 0.75 -0.71 9.95 0.00 0.00 0.06 14661
0.07 0.44 0.78 -0.74 9.97 0.00 0.01 0.06 14667
0.07 0.41 0.78 -0.71 10.01 0.00 0.01 0.06 14673
0.08 0.41 0.80 -0.75 9.92 -0.00 0.02 0.05 14681
0.07 0.40 0.80 -0.76 9.94 -0.01 0.01 0.05 14687
0.07 0.41 0.77 -0.68 9.96 -0.01 0.02 0.05 14693
0.08 0.44 0.73 -0.73 10.00 -0.01 0.02 0.05 14699
0.07 0.45 0.79 -0.71 9.93 -0.01 0.02 0.05 14705
0.07 0.43 0.80 -0.71 9.96 -0.01 0.02 0.05 14712
0.08 0.40 0.85 -0.72 10.02 -0.00 0.02 0.05 14718
0.08 0.36 0.77 -0.70 9.84 -0.01 0.02 0.05 14725
0.09 0.44 0.78 -0.70 9.97 -0.01 0.03 0.05 14731
0.09 0.36 0.78 -0.67 9.89 -0.00 0.04 0.04 14737
0.09 0.33 0.80 -0.72 9.95 -0.00 0.04 0.04 14743
0.08 0.35 0.85 -0.73 9.94 -0.03 0.03 0.05 14750
0.10 0.32 0.82 -0.74 9.89 -0.01 0.03 0.04 14756
0.11 0.29 0.88 -0.74 9.89 -0.01 0.03 0.05 14763
0.12 0.31 0.85 -0.70 9.90 -0.01 0.03 0.04 14769
0.15 0.29 0.88 -0.68 9.99 -0.00 0.02 0.05 14775
0.13 0.26 0.89 -0.69 9.98 0.00 0.01 0.05 14782
0.14 0.21 0.86 -0.65 10.00 0.01 0.01 0.04 14788
0.14 0.21 0.86 -0.68 10.00 0.02 0.01 0.05 14794
0.16 0.15 0.89 -0.65 10.00 0.03 0.01 0.05 14800
0.18 0.12 0.85 -0.71 10.09 0.04 0.02 0.06 14807
0.21 0.07 0.85 -0.74 10.12 0.05 0.02 0.07 14814
0.23 0.06 0.89 -0.72 10.14 0.06 0.02 0.06 14820
0.25 0.03 0.87 -0.70 10.02 0.06 0.03 0.06 14826
0.25 -0.01 0.91 -0.79 10.14 0.07 0.04 0.06 14832
0.27 -0.01 1.00 -0.80 10.18 0.09 0.05 0.05 14839
0.29 -0.01 1.07 -0.81 10.42 0.12 0.07 0.04 14845
0.29 -0.03 1.18 -0.93 10.16 0.17 0.12 0.02 14852
0.32 -0.00 1.16 -0.71 10.46 0.28 0.21 0.00 14858
0.34 -0.02 1.33 -0.78 11.33 0.45 0.35 -0.02 14865
0.31 -0.01 1.44 -1.01 12.60 0.87 0.53 -0.06 14871
0.34 -0.02 1.94 -0.91 14.58 1.56 0.71 -0.14 14877
0.31 -0.02 2.45 -1.11 16.89 2.36 0.66 -0.27 14883
0.31 -0.01 2.60 -1.24 18.69 2.96 0.39 -0.42 14891
0.30 -0.02 2.35 -1.03 18.21 3.41 0.12 -0.55 14897
0.26 0.00 2.27 -1.09 18.16 3.73 -0.06 -0.61 14903
0.26 -0.01 2.41 -1.45 17.58 4.02 -0.15 -0.66 14909
0.18 -0.01 3.79 -1.13 17.79 4.24 -0.23 -0.69 14916
0.22 -0.00 3.65 -1.69 18.53 4.28 -0.29 -0.85 14922
0.16 -0.01 4.07 -2.21 17.34 4.28 -0.29 -0.83 14928
0.13 0.00 3.60 -3.07 18.88 4.28 -0.20 -0.92 14936
0.10 -0.00 3.85 -4.13 19.22 4.28 -0.12 -0.93 14942
0.11 -0.00 4.83 -4.27 19.26 4.28 -0.04 -0.93 14948
0.10 -0.01 6.75 -3.29 23.96 4.28 -0.08 -0.97 14954
0.07 -0.01 7.56 -3.08 26.29 4.28 -0.05 -1.07 14961
0.08 -0.00 6.01 -3.07 26.13 4.24 -0.03 -1.18 14967
0.06 -0.01 4.70 -1.36 24.88 3.90 -0.21 -1.25 14973
0.07 -0.01 2.83 1.99 21.72 3.61 -0.34 -1.31 14980
0.07 -0.01 2.09 4.68 17.17 3.37 -0.55 -1.32 14986
0.08 -0.01 3.02 13.30 14.25 3.03 -0.80 -1.27 14993
0.07 -0.01 3.35 16.97 11.75 2.46 -0.99 -1.21 14999
0.06 -0.01 5.17 13.07 7.84 1.88 -1.03 -1.12 15005
0.05 -0.01 6.11 15.88 11.37 1.33 -1.06 -1.03 15011
0.07 -0.01 5.54 15.49 9.17 0.77 -0.87 -0.98 15019
0.06 -0.01 4.76 12.97 7.24 0.44 -0.66 -0.97 15025
0.06 -0.01 4.08 12.45 6.07 0.22 -0.60 -0.96 15031
0.07 -0.01 3.27 12.07 5.51 0.02 -0.60 -0.96 15037
0.06 -0.01 2.84 11.34 4.85 -0.20 -0.61 -0.96 15043
0.06 -0.01 2.65 10.53 4.40 -0.41 -0.65 -0.96 15050
0.05 -0.01 2.60 9.81 4.33 -0.59 -0.68 -0.95 15056
0.05 -0.00 2.60 9.12 4.41 -0.74 -0.70 -0.93 15063
0.05 -0.00 2.71 8.56 4.45 -0.87 -0.70 -0.90 15069
0.06 -0.01 2.73 8.05 5.03 -1.00 -0.68 -0.85 15075
0.06 -0.01 3.18 7.75 5.95 -1.10 -0.58 -0.80 15081
0.06 -0.01 3.72 7.62 7.13 -1.27 -0.46 -0.74 15088
0.07 -0.01 4.18 7.53 8.14 -1.51 -0.26 -0.67 15094
0.07 -0.01 4.40 7.15 9.03 -1.80 -0.02 -0.61 15100
0.05 -0.01 4.44 6.55 9.41 -2.11 0.21 -0.53 15107
0.07 -0.01 4.31 5.46 9.92 -2.40 0.39 -0.43 15113
0.07 -0.01 4.03 4.08 10.04 -2.63 0.51 -0.30 15119
0.06 -0.01 3.67 2.92 9.85 -2.79 0.58 -0.17 15126
0.05 0.00 3.42 1.78 9.78 -2.87 0.58 -0.05 15132
0.05 -0.01 3.42 0.62 9.69 -2.89 0.56 0.07 15138
0.05 -0.00 3.64 -0.20 9.83 -2.87 0.55 0.18 15144
0.04 -0.00 3.78 -0.90 10.24 -2.83 0.56 0.27 15151
0.05 -0.01 4.12 -1.29 10.90 -2.79 0.59 0.34 15157
0.04 -0.00 4.31 -1.70 11.65 -2.76 0.65 0.40 15164
0.04 -0.00 4.34 -1.89 12.27 -2.75 0.71 0.48 15170
0.04 -0.00 4.33 -2.18 12.70 -2.75 0.78 0.56 15176
0.04 -0.00 4.11 -2.48 13.26 -2.76 0.84 0.64 15182
0.04 -0.00 3.97 -2.84 13.74 -2.77 0.90 0.72 15188
0.05 -0.00 3.76 -3.19 14.04 -2.76 0.95 0.80 15196
0.04 -0.00 3.65 -3.49 14.53 -2.74 0.99 0.87 15202
0.05 -0.00 3.56 -3.77 14.94 -2.73 1.04 0.93 15208
0.05 -0.00 3.52 -4.09 15.21 -2.71 1.09 0.98 15214
0.04 -0.00 3.29 -4.41 15.42 -2.71 1.15 1.02 15220
0.04 0.01 3.14 -4.78 15.59 -2.70 1.19 1.05 15227
0.05 -0.00 2.86 -5.07 15.53 -2.69 1.19 1.08 15234
0.05 -0.00 2.65 -5.38 15.43 -2.67 1.18 1.10 15240
0.05 -0.00 2.52 -5.62 15.14 -2.64 1.13 1.11 15246
0.04 -0.00 2.53 -5.82 14.91 -2.60 1.07 1.11 15253
0.05 0.00 2.64 -5.87 14.52 -2.54 1.01 1.10 15259
0.05 -0.00 2.75 -5.85 14.16 -2.47 0.96 1.08 15265
0.04 0.00 2.85 -5.97 13.91 -2.38 0.92 1.04 15271
0.06 -0.01 2.86 -5.91 13.82 -2.28 0.89 1.00 15279
0.04 -0.00 2.75 -5.94 13.78 -2.17 0.89 0.95 15285
0.04 0.00 2.71 -5.91 13.76 -2.07 0.91 0.91 15291
0.05 -0.01 2.66 -5.94 13.69 -1.96 0.94 0.87 15297
0.04 -0.00 2.49 -5.93 13.68 -1.86 0.95 0.81 15303
0.04 0.01 2.34 -5.94 13.60 -1.77 0.98 0.77 15310
0.04 -0.00 2.16 -5.87 13.66 -1.69 1.00 0.73 15316
0.03 0.00 2.02 -5.82 13.72 -1.61 1.04 0.71 15323
0.05 -0.00 1.76 -5.78 13.79 -1.55 1.06 0.70 15329
0.05 -0.00 1.46 -5.74 13.79 -1.51 1.06 0.70 15336
0.05 -0.00 1.25 -5.71 13.78 -1.48 1.05 0.71 15342
0.05 -0.00 1.04 -5.70 14.09 -1.47 1.02 0.72 15348
0.04 -0.00 0.82 -5.64 14.17 -1.48 0.98 0.73 15354
0.04 0.00 0.58 -5.45 13.93 -1.53 0.93 0.74 15361
0.04 -0.00 0.34 -5.41 13.03 -1.58 0.89 0.75 15368
0.04 -0.00 -0.28 -5.28 12.00 -1.60 0.90 0.78 15374
0.04 0.00 -1.25 -5.43 11.06 -1.59 1.01 0.87 15380
0.04 -0.00 -2.31 -5.85 10.90 -1.53 1.10 0.97 15386
0.03 -0.00 -3.07 -6.42 11.06 -1.44 1.02 1.01 15393
0.05 -0.00 -3.44 -7.21 11.06 -1.33 0.81 0.99 15399
0.04 -0.00 -3.31 -8.03 10.66 -1.21 0.53 0.91 15406
0.04 -0.00 -2.52 -8.54 9.91 -1.08 0.26 0.79 15412
0.05 -0.00 -1.59 -8.84 8.76 -0.96 -0.01 0.61 15418
0.04 -0.00 -0.92 -9.23 8.47 -0.84 -0.14 0.46 15424
0.04 -0.00 -0.10 -9.84 8.15 -0.68 -0.11 0.25 15431
0.06 -0.00 0.54 -10.45 8.11 -0.54 0.00 0.03 15437
0.05 -0.00 0.76 -10.84 8.12 -0.42 0.17 -0.20 15443
0.04 -0.00 0.50 -11.07 8.35 -0.34 0.36 -0.41 15450
0.06 -0.01 0.25 -11.04 8.10 -0.29 0.53 -0.60 15456
0.05 -0.00 -0.39 -11.01 8.43 -0.29 0.63 -0.74 15463
0.05 0.00 -0.98 -11.00 8.74 -0.31 0.68 -0.83 15469
0.05 -0.00 -1.41 -11.15 8.47 -0.32 0.64 -0.87 15475
0.04 -0.00 -1.73 -11.39 7.95 -0.33 0.53 -0.87 15481
0.05 0.00 -1.77 -11.74 7.42 -0.28 0.36 -0.84 15489
0.05 -0.00 -1.54 -12.13 7.02 -0.18 0.18 -0.78 15495
0.04 -0.00 -0.98 -12.48 6.95 -0.03 0.03 -0.71 15501
0.06 -0.00 -0.37 -13.00 6.85 0.16 -0.15 -0.65 15507
