Voltage_01 Voltage_02 Acc_x Acc_y Acc_z Gyro_x Gyro_y Gyro_z Time
5000
0.01 1.28 0.76 -0.69 9.94 -0.00 -0.03 0.06 17
0.00 1.31 0.74 -0.70 9.95 0.00 -0.03 0.06 23
-0.01 1.26 0.72 -0.73 9.99 0.00 -0.04 0.06 29
0.02 1.20 0.74 -0.71 9.93 0.00 -0.04 0.06 35
0.03 1.24 0.73 -0.68 9.99 0.00 -0.04 0.06 41
0.02 1.21 0.74 -0.71 9.99 0.00 -0.05 0.06 48
0.03 1.15 0.72 -0.67 9.95 0.01 -0.05 0.06 54
0.04 1.09 0.73 -0.75 10.03 0.01 -0.05 0.05 60
0.04 1.09 0.72 -0.69 9.96 0.01 -0.05 0.05 66
0.03 1.10 0.72 -0.74 9.92 0.00 -0.06 0.05 72
0.04 1.08 0.66 -0.72 9.92 0.00 -0.06 0.05 78
0.03 1.08 0.72 -0.77 9.94 0.00 -0.06 0.05 84
0.02 1.05 0.72 -0.76 9.95 -0.00 -0.05 0.04 91
0.01 1.03 0.70 -0.74 9.93 -0.00 -0.05 0.04 97
0.02 1.02 0.71 -0.72 9.97 -0.01 -0.05 0.05 103
0.02 1.02 0.70 -0.72 9.91 -0.00 -0.05 0.04 109
0.03 1.02 0.71 -0.68 9.96 0.00 -0.05 0.05 115
0.02 1.00 0.70 -0.69 9.95 0.00 -0.05 0.04 121
0.02 0.98 0.68 -0.72 9.92 0.00 -0.05 0.05 128
0.03 0.98 0.67 -0.73 9.97 0.00 -0.05 0.05 135
0.04 0.96 0.64 -0.72 9.98 0.00 -0.05 0.05 141
0.03 0.94 0.68 -0.72 9.97 -0.00 -0.05 0.05 147
0.03 0.95 0.64 -0.77 9.92 -0.00 -0.05 0.04 153
0.03 0.97 0.68 -0.70 9.96 -0.01 -0.04 0.05 159
0.02 0.98 0.69 -0.71 9.95 -0.01 -0.04 0.04 165
0.04 0.96 0.69 -0.73 9.97 -0.01 -0.04 0.04 172
0.06 0.95 0.73 -0.73 9.98 -0.01 -0.04 0.04 178
0.04 0.90 0.70 -0.74 9.95 -0.01 -0.04 0.04 184
0.05 0.84 0.71 -0.72 9.99 -0.01 -0.05 0.04 190
0.07 0.88 0.70 -0.72 9.97 -0.01 -0.04 0.04 196
0.06 0.84 0.70 -0.73 9.95 -0.01 -0.05 0.04 202
0.09 0.79 0.72 -0.73 9.98 -0.01 -0.05 0.03 208
0.11 0.76 0.69 -0.75 9.97 -0.01 -0.05 0.03 216
0.11 0.76 0.70 -0.70 9.92 -0.01 -0.05 0.03 222
0.14 0.72 0.68 -0.73 9.98 -0.00 -0.04 0.03 228
0.15 0.66 0.68 -0.76 9.94 0.00 -0.04 0.03 234
0.13 0.66 0.67 -0.69 9.96 -0.00 -0.04 0.03 240
0.15 0.59 0.68 -0.74 10.05 0.00 -0.04 0.02 246
0.15 0.56 0.70 -0.76 10.00 0.00 -0.04 0.02 252
0.15 0.56 0.69 -0.75 10.09 0.01 -0.03 0.02 259
0.18 0.48 0.70 -0.75 10.10 0.01 -0.03 0.01 265
0.21 0.42 0.73 -0.79 10.08 0.01 -0.02 0.02 272
0.24 0.40 0.59 -0.67 9.99 0.02 -0.02 0.01 278
0.25 0.36 0.72 -0.80 10.03 0.03 -0.01 0.02 284
0.27 0.32 0.70 -0.76 10.05 0.03 -0.00 0.02 290
0.32 0.23 0.73 -0.74 10.04 0.04 0.00 0.01 296
0.34 0.23 0.74 -0.75 10.04 0.04 0.00 0.02 303
0.34 0.20 0.80 -0.78 10.07 0.05 0.01 0.02 309
0.38 0.16 0.77 -0.79 10.11 0.05 0.01 0.02 315
0.42 0.09 0.75 -0.80 10.08 0.05 0.02 0.02 321
0.44 0.04 0.75 -0.82 10.07 0.07 0.03 0.02 328
0.45 0.01 0.77 -0.77 10.11 0.09 0.04 0.02 334
0.49 0.00 0.74 -0.78 10.23 0.11 0.06 0.01 340
0.51 -0.02 0.74 -1.07 10.17 0.16 0.09 0.01 347
0.53 -0.03 0.87 -0.79 10.53 0.22 0.13 -0.00 353
0.52 -0.03 0.91 -0.92 10.71 0.29 0.14 -0.00 359
0.54 -0.03 1.80 -1.51 11.58 0.41 0.18 -0.04 365
0.52 -0.03 1.89 -1.04 11.60 0.64 0.29 -0.11 372
0.49 -0.02 2.06 -0.86 13.95 1.12 0.49 -0.24 378
0.47 0.00 1.94 -1.11 15.17 1.85 0.62 -0.35 385
0.44 -0.01 1.51 -1.12 16.21 2.41 0.46 -0.42 391
0.41 -0.01 1.63 -1.03 17.00 2.72 0.18 -0.44 397
0.40 0.00 1.63 -1.25 16.94 2.96 -0.10 -0.43 403
0.38 -0.00 1.89 -1.61 16.56 3.25 -0.24 -0.45 410
0.29 -0.01 2.93 -1.74 16.26 3.52 -0.41 -0.52 416
0.23 -0.02 2.97 -1.93 17.00 3.76 -0.47 -0.58 422
0.22 0.00 3.48 -2.17 16.58 3.96 -0.49 -0.65 429
0.18 -0.01 2.42 -2.61 17.67 4.09 -0.48 -0.70 435
0.11 0.00 3.08 -3.29 16.86 4.18 -0.37 -0.69 441
0.14 0.00 3.88 -3.18 18.91 4.20 -0.12 -0.71 448
0.08 0.01 4.68 -2.51 21.64 4.15 0.09 -0.75 454
0.07 0.01 3.77 -1.86 21.56 4.06 0.07 -0.82 460
0.09 0.01 2.68 1.86 21.97 3.88 -0.11 -0.90 466
0.08 -0.00 1.98 5.67 21.73 3.61 -0.37 -0.89 473
0.06 -0.01 1.94 7.85 19.19 3.22 -0.67 -0.77 479
0.07 -0.01 1.69 8.41 14.31 2.77 -0.90 -0.63 485
0.08 -0.01 3.36 17.03 12.30 2.35 -1.05 -0.51 492
0.07 -0.01 5.38 18.88 10.03 1.77 -0.89 -0.44 498
0.05 -0.01 5.52 19.42 9.08 1.04 -0.61 -0.39 504
0.06 0.01 6.61 17.31 6.68 0.58 -0.26 -0.47 510
0.05 -0.00 6.03 15.21 7.98 0.22 -0.07 -0.57 517
0.06 -0.01 4.14 14.94 8.23 -0.18 0.09 -0.70 523
0.04 -0.00 2.66 13.56 6.89 -0.47 0.15 -0.76 529
0.05 0.00 1.92 11.82 6.05 -0.62 0.04 -0.79 535
0.05 -0.01 1.81 11.03 6.22 -0.76 -0.10 -0.78 541
0.05 -0.01 2.47 10.51 6.32 -0.88 -0.21 -0.75 548
0.04 -0.00 3.44 9.87 6.34 -1.04 -0.26 -0.72 555
0.05 0.00 4.11 9.46 7.14 -1.20 -0.23 -0.69 561
0.05 -0.01 4.52 8.75 7.92 -1.37 -0.12 -0.65 567
0.05 -0.01 4.44 7.99 7.67 -1.52 -0.01 -0.59 573
0.04 -0.00 4.16 7.08 8.08 -1.66 0.09 -0.52 579
0.05 -0.01 3.88 6.12 8.41 -1.73 0.15 -0.42 585
0.06 -0.00 3.71 5.28 8.81 -1.80 0.19 -0.32 591
0.06 -0.00 3.70 4.34 9.01 -1.85 0.21 -0.24 598
0.06 -0.01 3.79 3.64 9.28 -1.87 0.22 -0.14 604
0.05 -0.00 3.83 2.98 9.78 -1.88 0.26 -0.07 610
0.06 -0.00 3.88 2.57 10.36 -1.90 0.32 -0.00 616
0.06 -0.01 3.83 2.17 10.88 -1.92 0.38 0.05 622
0.06 -0.01 3.66 1.77 11.27 -1.94 0.46 0.10 629
0.05 -0.00 3.49 1.40 11.72 -1.96 0.55 0.16 635
0.06 -0.00 3.31 0.83 12.44 -1.99 0.63 0.23 642
0.06 -0.00 3.20 0.46 13.00 -2.03 0.71 0.30 648
0.05 -0.00 3.01 0.23 13.26 -2.10 0.75 0.36 654
0.05 -0.00 2.77 -0.11 13.36 -2.13 0.79 0.43 660
0.05 0.00 2.62 -0.46 13.59 -2.18 0.80 0.49 666
0.05 -0.01 2.52 -0.81 13.66 -2.22 0.82 0.54 672
0.05 -0.00 2.48 -1.23 13.71 -2.23 0.84 0.58 678
0.04 -0.00 2.42 -1.66 13.60 -2.23 0.85 0.62 686
0.04 0.01 2.29 -1.94 13.72 -2.22 0.87 0.65 692
0.04 -0.00 2.16 -2.28 13.86 -2.20 0.88 0.66 698
0.04 -0.00 2.06 -2.52 14.05 -2.16 0.89 0.66 704
0.04 -0.00 1.84 -2.66 14.24 -2.14 0.87 0.66 710
0.05 -0.01 1.74 -2.78 14.26 -2.13 0.86 0.65 716
0.04 -0.00 1.74 -2.98 14.18 -2.12 0.83 0.64 722
0.04 -0.00 1.76 -3.19 13.97 -2.11 0.80 0.61 729
0.04 -0.00 1.75 -3.45 13.71 -2.10 0.77 0.58 735
0.05 -0.01 1.74 -3.73 13.40 -2.07 0.74 0.55 742
0.05 -0.00 1.72 -3.96 13.07 -2.00 0.70 0.50 748
0.04 -0.00 1.69 -4.13 12.68 -1.91 0.67 0.47 754
0.04 -0.00 1.75 -4.38 12.88 -1.80 0.63 0.42 760
0.05 -0.00 1.63 -4.43 12.95 -1.69 0.61 0.38 766
0.05 -0.00 1.62 -4.35 13.26 -1.62 0.60 0.35 773
0.05 -0.00 1.57 -4.26 13.53 -1.56 0.59 0.34 779
0.04 -0.00 1.41 -4.33 13.56 -1.54 0.59 0.33 785
0.05 -0.00 1.25 -4.51 13.55 -1.53 0.59 0.33 791
0.05 -0.00 1.13 -4.83 13.40 -1.52 0.58 0.33 797
0.04 -0.00 1.02 -5.15 13.12 -1.50 0.56 0.34 804
0.04 -0.00 1.00 -5.45 12.75 -1.47 0.55 0.34 811
0.05 -0.00 0.98 -5.78 12.49 -1.42 0.56 0.35 817
0.05 -0.00 1.05 -5.98 12.21 -1.36 0.63 0.36 823
0.04 -0.00 1.17 -6.08 11.75 -1.30 0.68 0.36 829
0.04 -0.00 1.01 -6.16 11.42 -1.24 0.79 0.38 835
0.05 0.00 0.19 -6.21 11.26 -1.18 0.92 0.42 841
0.04 -0.00 -0.93 -6.20 11.37 -1.14 1.03 0.50 847
0.05 -0.00 -2.01 -6.61 11.55 -1.07 1.02 0.57 854
0.05 -0.00 -2.77 -7.06 11.80 -1.09 0.87 0.63 861
0.06 -0.00 -3.17 -7.57 12.00 -1.08 0.64 0.67 867
0.05 -0.00 -3.28 -8.58 11.85 -1.09 0.41 0.71 873
0.04 -0.00 -3.03 -8.49 11.47 -1.09 0.16 0.72 879
0.06 0.01 -2.51 -9.12 10.70 -1.09 -0.05 0.70 885
0.06 -0.00 -1.74 -9.85 9.82 -1.06 -0.20 0.64 891
0.05 -0.01 -1.14 -10.82 8.97 -1.00 -0.25 0.56 898
0.05 -0.00 -0.51 -11.86 8.27 -0.93 -0.21 0.45 904
0.06 0.00 -0.18 -12.57 7.63 -0.80 -0.13 0.32 911
0.06 -0.01 0.02 -13.09 7.24 -0.66 -0.00 0.18 917
0.06 -0.01 0.07 -13.49 7.00 -0.51 0.15 0.05 923
0.05 -0.01 -0.02 -13.68 6.87 -0.37 0.29 -0.09 929
0.06 0.00 -0.34 -13.70 6.88 -0.24 0.38 -0.22 935
0.06 -0.01 -0.65 -13.68 6.97 -0.13 0.39 -0.32 942
0.06 -0.01 -0.84 -13.52 7.12 0.00 0.30 -0.39 948
0.04 -0.00 -0.86 -13.36 7.31 0.12 0.22 -0.43 954
0.05 0.00 -0.87 -14.17 7.58 0.25 0.08 -0.45 960
0.07 -0.01 -2.80 -17.85 14.03 0.68 -0.41 -0.47 967
0.05 -0.01 -1.62 -13.30 6.71 1.00 -0.78 -0.49 973
0.04 -0.00 -1.52 -14.88 5.05 1.19 -1.16 -0.46 979
0.05 -0.00 -1.05 -14.80 10.53 1.45 -1.61 -0.40 986
0.04 -0.00 -1.02 -15.65 6.74 1.47 -1.78 -0.31 992
0.05 -0.00 -0.50 -16.44 8.28 1.68 -2.11 -0.18 998
0.04 0.01 -0.83 -15.20 4.51 1.86 -2.28 -0.03 1004
0.05 0.07 1.03 -9.01 3.68 2.07 -2.19 0.24 1010
0.03 0.15 2.62 0.38 7.34 2.46 -1.75 0.50 1017
0.02 0.41 0.17 -1.53 15.31 3.00 -1.53 0.69 1024
0.02 0.67 -2.62 0.53 21.96 3.26 -1.62 0.65 1030
0.00 0.80 -4.58 0.36 19.85 3.25 -1.75 0.38 1036
-0.00 0.94 -3.15 -2.95 19.13 3.24 -1.65 0.05 1042
-0.00 1.03 -1.81 -3.65 23.93 3.39 -1.13 -0.13 1049
-0.02 1.00 -1.77 -3.42 30.64 1.51 -1.24 -0.18 1055
-0.00 1.07 1.23 -3.14 11.35 0.06 -0.26 -0.03 1061
-0.00 1.11 0.55 -2.57 10.82 -0.07 -0.02 0.06 1068
0.01 1.14 1.01 -1.68 10.22 -0.05 -0.01 0.09 1075
0.02 1.18 0.74 -0.65 10.07 -0.01 -0.03 0.09 1081
0.01 1.15 0.75 -0.40 9.88 0.03 -0.04 0.08 1087
0.01 1.12 0.71 -0.64 10.02 0.02 -0.04 0.08 1093
0.01 1.13 0.64 -0.96 9.88 -0.01 -0.03 0.08 1099
0.00 1.13 0.70 -1.14 10.07 -0.02 -0.02 0.09 1105
-0.00 1.15 0.69 -0.94 10.07 -0.03 -0.00 0.09 1113
0.02 1.16 0.62 -0.90 10.05 -0.03 -0.00 0.09 1119
0.01 1.17 0.73 -0.90 10.01 -0.03 -0.00 0.07 1125
0.00 1.26 0.80 -0.79 9.93 -0.03 -0.00 0.07 1131
0.01 1.24 0.74 -0.85 9.98 -0.03 -0.01 0.07 1137
0.01 1.24 0.80 -0.84 10.09 -0.03 -0.01 0.07 1143
0.00 1.24 0.70 -0.81 10.00 -0.03 -0.00 0.07 1150
0.00 1.27 0.74 -0.80 10.11 -0.02 -0.00 0.07 1157
0.01 1.23 0.82 -0.71 9.86 -0.01 -0.00 0.07 1163
0.01 1.23 0.74 -0.78 10.09 -0.01 -0.00 0.06 1169
0.02 1.20 0.67 -0.78 9.99 -0.01 0.00 0.06 1175
0.03 1.17 0.72 -0.81 9.96 -0.00 -0.00 0.06 1181
0.03 1.15 0.74 -0.81 9.95 -0.00 -0.00 0.06 1187
0.02 1.13 0.76 -0.80 9.97 0.03 -0.00 0.07 1195
0.02 1.09 0.72 -0.81 9.95 0.00 -0.01 0.07 1201
0.02 1.06 0.69 -0.77 9.97 0.01 -0.00 0.07 1207
0.03 1.03 0.69 -0.77 9.99 0.01 -0.01 0.08 1213
0.03 0.99 0.67 -0.76 9.96 0.02 -0.00 0.07 1219
0.04 0.95 0.72 -0.78 9.93 0.02 -0.01 0.07 1225
0.04 0.90 0.73 -0.80 9.96 0.02 -0.01 0.07 1231
0.04 0.86 0.76 -0.76 9.92 0.02 -0.01 0.07 1239
0.05 0.85 0.78 -0.77 9.90 0.02 -0.02 0.07 1245
0.07 0.80 0.79 -0.76 9.92 0.02 -0.03 0.07 1251
0.07 0.74 0.76 -0.77 9.93 0.02 -0.03 0.06 1257
0.05 0.72 0.77 -0.80 9.93 0.03 -0.04 0.06 1263
0.06 0.68 0.71 -0.82 10.00 0.03 -0.04 0.06 1269
0.06 0.60 0.73 -0.83 9.89 0.02 -0.04 0.06 1275
0.05 0.59 0.72 -0.83 10.01 0.02 -0.05 0.06 1283
0.06 0.54 0.92 -0.87 10.03 0.02 -0.04 0.06 1289
0.08 0.50 0.67 -0.80 9.99 0.02 -0.04 0.06 1295
0.07 0.48 0.70 -0.81 10.00 0.02 -0.03 0.06 1301
0.07 0.48 0.72 -0.80 10.00 0.02 -0.03 0.06 1307
0.10 0.45 0.82 -0.81 9.93 0.02 -0.03 0.06 1313
0.11 0.40 0.76 -0.81 10.06 0.02 -0.03 0.06 1320
0.12 0.37 0.77 -0.82 9.92 0.02 -0.03 0.06 1327
0.15 0.39 0.72 -0.84 9.96 0.02 -0.03 0.06 1333
0.13 0.36 0.76 -0.86 9.93 0.02 -0.03 0.05 1339
0.12 0.32 0.77 -0.83 9.92 0.02 -0.03 0.05 1345
0.14 0.28 0.76 -0.86 10.00 0.01 -0.03 0.05 1351
0.13 0.30 0.76 -0.89 9.98 0.01 -0.04 0.05 1357
0.13 0.28 0.76 -0.86 9.97 0.01 -0.04 0.04 1364
0.14 0.21 0.79 -0.90 10.00 0.01 -0.04 0.04 1371
0.16 0.21 0.79 -0.86 10.03 0.01 -0.04 0.05 1377
0.15 0.25 0.75 -0.88 10.00 0.01 -0.04 0.05 1383
0.19 0.18 0.74 -0.87 10.01 0.01 -0.04 0.04 1389
0.22 0.17 0.82 -0.90 10.00 0.01 -0.05 0.04 1395
0.20 0.14 0.65 -0.68 9.95 0.01 -0.04 0.04 1402
0.22 0.10 0.73 -0.86 9.97 0.00 -0.05 0.04 1409
0.26 0.11 0.76 -0.88 10.02 0.01 -0.05 0.04 1415
0.25 0.04 0.79 -0.85 9.98 0.00 -0.05 0.04 1421
0.27 0.05 0.73 -0.86 9.99 0.00 -0.05 0.03 1427
0.26 0.05 0.81 -0.89 9.94 0.00 -0.04 0.03 1433
0.27 0.03 0.78 -0.92 10.03 0.01 -0.04 0.03 1439
0.32 0.02 0.79 -0.86 10.01 0.01 -0.03 0.03 1446
0.35 0.01 0.79 -0.89 10.05 0.01 -0.01 0.02 1453
0.39 -0.00 0.74 -0.95 10.04 0.02 -0.01 0.02 1459
0.40 -0.00 0.76 -0.86 9.99 0.02 0.01 0.02 1465
0.43 -0.02 0.73 -0.88 10.07 0.03 0.02 0.02 1471
0.48 -0.01 0.77 -0.94 10.02 0.04 0.03 0.02 1477
0.49 -0.02 0.84 -0.98 10.04 0.05 0.04 0.02 1484
0.50 -0.03 0.89 -0.92 10.08 0.06 0.05 0.01 1490
0.54 -0.04 0.89 -0.90 10.04 0.08 0.06 0.01 1497
0.53 -0.04 0.90 -0.91 10.12 0.11 0.08 -0.00 1503
0.52 -0.04 0.72 -0.83 10.14 0.13 0.09 -0.01 1509
0.54 -0.03 0.84 -0.92 10.35 0.18 0.12 -0.03 1516
0.55 -0.04 0.89 -1.02 10.50 0.25 0.16 -0.04 1522
0.55 -0.04 1.01 -0.98 10.44 0.37 0.24 -0.06 1528
0.54 -0.03 1.15 -1.07 10.97 0.54 0.33 -0.08 1534
0.52 -0.04 1.00 -1.16 11.62 0.79 0.46 -0.10 1541
0.48 -0.03 0.97 -0.96 12.01 1.08 0.55 -0.12 1548
0.46 -0.03 1.10 -1.12 13.35 1.46 0.58 -0.13 1554
0.41 -0.03 1.29 -1.36 15.80 1.86 0.47 -0.13 1560
0.38 -0.01 2.15 -1.52 15.63 2.24 0.31 -0.20 1566
0.34 -0.02 2.21 -1.14 15.37 2.59 0.09 -0.32 1573
0.27 -0.01 2.10 -1.52 15.37 2.86 -0.07 -0.38 1580
0.34 -0.02 1.56 -1.71 15.75 3.05 -0.22 -0.41 1586
0.20 -0.01 1.88 -2.00 16.53 3.30 -0.36 -0.41 1592
0.16 -0.00 2.58 -1.24 17.39 3.54 -0.40 -0.46 1598
0.19 -0.00 3.26 -2.42 17.65 3.81 -0.40 -0.46 1605
0.12 -0.00 3.57 -3.22 17.65 4.01 -0.45 -0.53 1611
0.11 0.01 3.73 -3.81 17.75 4.14 -0.46 -0.59 1617
0.12 0.00 4.42 -4.84 19.72 4.20 -0.37 -0.64 1624
0.08 0.00 5.62 -2.83 20.36 4.20 -0.19 -0.72 1631
0.09 0.00 5.29 -2.17 21.26 4.11 0.01 -0.77 1637
0.07 -0.01 4.97 1.45 21.65 3.90 0.21 -0.83 1643
0.05 -0.00 2.85 4.99 22.04 3.60 0.35 -0.81 1649
0.07 -0.01 -0.10 9.59 19.21 3.10 0.30 -0.68 1655
0.07 -0.01 -1.88 10.10 16.62 2.41 0.05 -0.46 1661
0.04 -0.00 0.36 15.26 13.14 1.87 -0.35 -0.39 1669
0.06 -0.00 0.99 18.01 9.54 1.30 -0.59 -0.37 1675
0.05 -0.01 0.70 16.74 8.44 0.79 -0.61 -0.39 1681
0.05 -0.00 2.86 12.22 6.76 0.34 -0.52 -0.57 1687
0.04 0.01 3.65 11.55 8.75 -0.06 -0.41 -0.75 1693
0.04 -0.00 2.03 10.92 7.66 -0.46 -0.29 -0.95 1700
0.04 -0.00 0.79 9.34 5.48 -0.68 -0.23 -1.11 1707
0.05 0.00 0.17 7.70 4.89 -0.77 -0.29 -1.23 1713
0.06 -0.01 0.19 7.06 5.02 -0.82 -0.41 -1.29 1719
0.05 -0.01 0.93 6.86 5.26 -0.87 -0.51 -1.32 1725
0.05 -0.00 2.09 6.52 5.64 -0.91 -0.57 -1.33 1731
0.05 0.00 2.97 6.11 5.99 -0.99 -0.59 -1.32 1737
0.06 -0.01 3.31 5.80 6.01 -1.07 -0.56 -1.29 1743
0.05 -0.01 3.53 5.44 6.08 -1.13 -0.50 -1.20 1751
0.06 -0.00 3.65 4.91 6.61 -1.17 -0.44 -1.16 1757
0.08 0.00 3.90 4.60 7.03 -1.18 -0.38 -1.06 1763
0.07 -0.00 4.20 4.38 7.79 -1.20 -0.34 -0.96 1769
0.04 0.00 4.45 4.28 8.68 -1.23 -0.28 -0.84 1775
0.06 0.00 4.78 4.23 9.50 -1.28 -0.19 -0.72 1781
0.07 -0.01 4.85 4.06 10.10 -1.39 -0.06 -0.56 1787
0.05 -0.00 4.86 3.71 10.72 -1.53 0.05 -0.39 1795
0.06 -0.00 4.66 3.08 11.19 -1.66 0.19 -0.20 1801
0.06 -0.01 4.47 2.43 11.50 -1.77 0.29 -0.00 1807
0.05 -0.00 4.22 1.55 11.33 -1.85 0.37 0.15 1813
0.04 -0.00 3.97 0.68 11.21 -1.89 0.41 0.32 1819
0.06 -0.01 3.71 0.06 11.10 -1.89 0.42 0.47 1825
0.04 -0.00 3.65 -0.35 10.99 -1.86 0.43 0.59 1832
0.03 -0.00 3.60 -0.50 11.07 -1.82 0.44 0.70 1839
0.04 -0.00 3.63 -0.46 11.13 -1.78 0.46 0.77 1845
0.05 -0.00 3.68 -0.44 11.20 -1.74 0.51 0.83 1851
0.04 -0.00 3.58 -0.44 11.51 -1.72 0.56 0.86 1857
0.05 -0.00 3.38 -0.43 11.81 -1.71 0.60 0.88 1863
0.04 -0.00 3.06 -0.48 12.03 -1.71 0.62 0.89 1869
0.05 -0.00 2.72 -0.66 12.24 -1.71 0.61 0.88 1876
0.04 -0.00 2.39 -0.91 12.43 -1.70 0.58 0.86 1883
0.06 -0.01 2.28 -1.08 12.90 -1.70 0.55 0.83 1889
0.04 -0.00 2.39 -1.18 13.43 -1.70 0.53 0.79 1895
0.04 -0.00 2.59 -1.13 13.92 -1.74 0.54 0.74 1901
0.05 0.00 2.83 -1.14 14.09 -1.81 0.59 0.68 1907
0.05 -0.00 2.98 -1.23 14.18 -1.90 0.66 0.63 1914
0.04 -0.00 2.97 -1.45 14.15 -1.99 0.74 0.60 1921
0.06 -0.00 2.86 -1.78 13.49 -2.06 0.81 0.56 1927
0.06 -0.01 2.87 -2.16 13.99 -2.12 0.86 0.53 1933
0.06 -0.01 2.74 -2.56 13.81 -2.15 0.88 0.50 1939
0.06 -0.00 2.71 -2.92 13.66 -2.16 0.88 0.48 1945
0.06 -0.01 2.76 -3.23 13.30 -2.15 0.88 0.45 1952
0.05 -0.00 2.82 -3.46 12.94 -2.13 0.88 0.41 1958
0.05 0.00 2.88 -3.71 12.65 -2.08 0.88 0.37 1965
0.05 -0.00 2.93 -3.91 12.36 -2.01 0.90 0.32 1971
0.04 -0.00 2.91 -4.13 12.04 -1.92 0.92 0.28 1977
0.04 0.00 2.74 -4.35 11.81 -1.81 0.93 0.23 1983
0.05 -0.00 2.30 -4.50 11.72 -1.68 0.93 0.19 1990
0.05 -0.01 1.70 -4.66 11.73 -1.55 0.88 0.14 1996
0.05 -0.00 1.13 -4.69 11.82 -1.41 0.78 0.11 2002
0.06 -0.00 0.69 -4.58 12.31 -1.29 0.65 0.08 2009
0.05 -0.01 0.69 -4.56 12.71 -1.19 0.53 0.06 2015
0.05 0.00 0.17 -6.16 13.90 -1.11 0.38 0.05 2021
0.06 -0.00 -0.50 -6.34 15.83 -0.96 0.11 0.02 2028
0.05 -0.01 2.22 -1.39 13.96 -0.95 0.15 0.03 2034
0.05 -0.00 2.32 -4.12 11.64 -1.23 0.43 0.07 2040
0.05 -0.00 2.40 -5.95 13.11 -1.34 0.59 0.11 2046
0.05 -0.00 1.18 -6.07 9.78 -1.36 0.76 0.17 2053
0.04 -0.00 -0.06 -5.42 11.75 -1.36 0.89 0.24 2059
0.06 -0.00 -0.80 -6.04 8.62 -1.30 1.03 0.38 2066
0.06 -0.01 -1.19 -5.85 13.21 -1.08 0.90 0.52 2072
0.05 -0.01 -2.69 -8.59 9.30 -1.09 0.86 0.63 2078
0.05 -0.00 -2.56 -8.76 7.26 -0.98 0.69 0.66 2084
0.07 -0.01 -2.02 -7.68 9.63 -0.83 0.48 0.66 2091
0.05 -0.01 -1.38 -9.04 8.75 -0.76 0.37 0.65 2097
0.04 -0.00 -0.63 -7.14 9.86 -0.57 0.21 0.61 2103
0.05 -0.01 -0.05 -7.96 9.19 -0.60 0.26 0.58 2109
0.07 -0.00 -0.75 -10.19 10.85 -0.44 0.13 0.52 2116
0.05 -0.01 -0.38 -10.32 10.53 -0.37 0.05 0.44 2122
0.06 0.00 -0.20 -10.39 9.85 -0.37 0.02 0.34 2128
0.06 -0.01 0.12 -10.67 8.82 -0.38 0.07 0.24 2135
0.05 -0.01 0.46 -11.24 8.14 -0.46 0.22 0.16 2141
0.05 -0.00 0.55 -12.56 8.10 -0.43 0.40 0.09 2148
0.07 -0.00 -0.81 -15.68 8.00 -0.31 0.47 0.05 2154
0.05 -0.01 -2.06 -16.58 8.62 0.12 0.30 0.02 2160
0.03 -0.00 -2.50 -13.57 6.69 0.42 0.14 0.04 2166
0.04 0.01 -4.87 -19.00 5.61 0.51 -0.01 0.10 2172
0.05 -0.00 -4.03 -17.64 5.62 0.93 -0.52 0.15 2179
0.04 -0.00 -5.22 -18.80 6.97 1.07 -0.89 0.17 2186
0.05 0.00 -4.02 -19.40 6.77 1.38 -1.32 0.20 2192
0.05 -0.01 -5.61 -21.58 2.97 1.52 -1.70 0.22 2198
0.06 0.02 -5.19 -24.64 1.62 1.79 -1.98 0.30 2204
0.05 0.12 -4.86 -22.69 0.97 2.16 -2.10 0.47 2210
0.04 0.24 -0.86 -4.91 5.94 2.70 -2.09 0.66 2216
0.03 0.52 -4.06 -2.28 17.90 3.47 -2.07 0.63 2224
0.02 0.79 -6.08 -1.25 29.39 3.99 -2.24 0.37 2230
0.00 0.93 -2.74 0.32 24.40 3.55 -1.98 0.05 2236
-0.00 1.13 -2.94 -2.68 26.86 3.30 -1.59 -0.19 2242
0.02 1.10 -2.91 -4.13 29.25 2.02 -1.92 -0.27 2249
-0.01 1.19 1.26 -2.99 11.84 0.18 -0.61 -0.04 2255
0.00 1.19 0.58 -3.41 11.28 -0.03 -0.15 0.04 2262
0.00 1.20 0.79 -1.90 10.43 -0.05 -0.06 0.10 2268
-0.00 1.19 0.58 -0.45 10.07 -0.01 -0.05 0.10 2274
0.01 1.17 0.52 -0.17 9.87 0.03 -0.04 0.08 2281
0.00 1.17 0.69 -0.56 9.85 0.01 -0.03 0.07 2287
0.02 1.15 0.89 -0.96 9.99 -0.02 -0.03 0.08 2293
0.01 1.17 0.69 -1.13 10.04 -0.02 -0.01 0.09 2299
0.02 1.20 0.59 -0.91 10.09 -0.03 -0.01 0.09 2306
0.01 1.19 0.63 -0.80 10.18 -0.03 -0.01 0.08 2312
0.02 1.20 0.73 -0.80 9.92 -0.03 -0.01 0.07 2319
0.01 1.22 0.79 -0.74 10.05 -0.03 -0.00 0.08 2325
-0.00 1.21 0.70 -0.74 10.00 -0.03 -0.00 0.07 2331
-0.00 1.25 0.70 -0.74 9.94 -0.03 -0.00 0.07 2337
-0.01 1.25 0.75 -0.68 9.91 -0.03 0.00 0.07 2343
-0.01 1.23 0.75 -0.70 9.96 -0.03 0.01 0.06 2350
-0.01 1.24 0.72 -0.69 10.00 -0.02 0.01 0.06 2357
0.00 1.21 0.62 -0.68 10.00 -0.01 0.01 0.06 2363
-0.00 1.15 0.77 -0.70 10.03 -0.01 0.01 0.06 2369
-0.00 1.13 0.77 -0.70 10.03 0.00 0.00 0.07 2375
0.02 1.10 0.75 -0.70 9.96 0.00 -0.01 0.07 2381
0.03 1.11 0.74 -0.70 10.07 0.00 -0.01 0.07 2387
0.02 1.08 0.78 -0.66 9.90 0.01 -0.01 0.07 2395
0.02 1.06 0.74 -0.71 9.98 0.01 -0.02 0.06 2401
0.03 1.03 0.75 -0.69 9.92 0.01 -0.02 0.07 2407
0.03 1.01 0.78 -0.69 9.98 0.01 -0.02 0.07 2413
0.03 0.95 0.74 -0.69 9.96 0.01 -0.02 0.07 2419
0.04 0.90 0.75 -0.69 9.96 0.01 -0.02 0.07 2425
0.05 0.87 0.74 -0.70 9.94 0.02 -0.03 0.07 2432
0.06 0.82 0.77 -0.70 9.91 0.02 -0.03 0.07 2438
0.06 0.76 0.78 -0.74 9.96 0.02 -0.03 0.06 2445
0.07 0.72 0.77 -0.68 10.00 0.01 -0.03 0.06 2451
0.05 0.71 0.78 -0.72 9.96 0.02 -0.03 0.06 2457
0.04 0.61 0.77 -0.74 9.95 0.01 -0.04 0.06 2463
0.08 0.65 0.73 -0.76 9.92 0.01 -0.03 0.05 2469
0.08 0.61 0.75 -0.69 9.96 0.01 -0.04 0.06 2476
0.07 0.56 0.74 -0.69 10.03 0.01 -0.04 0.06 2483
0.07 0.61 0.73 -0.73 9.96 0.01 -0.03 0.06 2489
0.09 0.58 0.74 -0.75 10.10 0.01 -0.03 0.06 2495
0.08 0.49 0.70 -0.71 10.06 0.01 -0.03 0.05 2501
0.08 0.49 0.77 -0.73 9.95 0.01 -0.02 0.06 2507
0.09 0.46 0.74 -0.76 10.01 0.01 -0.02 0.06 2513
0.10 0.43 0.79 -0.73 9.95 0.01 -0.02 0.05 2521
0.09 0.43 0.74 -0.71 9.98 0.01 -0.02 0.06 2527
0.10 0.40 0.80 -0.74 9.97 0.01 -0.02 0.05 2533
0.11 0.36 0.77 -0.78 9.98 0.01 -0.02 0.05 2539
0.12 0.31 0.78 -0.77 9.94 0.01 -0.03 0.05 2545
0.13 0.31 0.75 -0.73 9.97 0.01 -0.02 0.04 2551
0.15 0.31 0.78 -0.77 10.05 0.01 -0.03 0.04 2557
0.16 0.27 0.77 -0.75 10.00 0.01 -0.04 0.04 2565
0.17 0.25 0.79 -0.78 9.96 0.00 -0.03 0.04 2571
0.20 0.24 0.80 -0.76 10.01 0.00 -0.04 0.04 2577
0.21 0.22 0.79 -0.72 10.04 0.00 -0.05 0.04 2583
0.20 0.21 0.77 -0.80 9.99 -0.00 -0.06 0.04 2589
0.23 0.18 0.73 -0.74 9.93 -0.01 -0.07 0.03 2595
0.25 0.15 0.77 -0.78 10.03 0.00 -0.07 0.03 2603
0.23 0.13 0.80 -0.77 10.04 0.00 -0.06 0.03 2609
0.28 0.14 0.77 -0.79 10.09 0.00 -0.06 0.03 2615
0.30 0.07 0.78 -0.79 10.00 0.01 -0.06 0.03 2621
0.33 0.06 0.79 -0.79 9.99 0.01 -0.05 0.03 2627
0.37 0.06 0.79 -0.83 10.04 0.01 -0.04 0.02 2633
0.42 0.03 0.83 -0.79 10.05 0.02 -0.04 0.02 2640
0.44 0.01 0.80 -0.80 10.01 0.02 -0.03 0.02 2647
0.46 0.01 0.82 -0.81 10.01 0.02 -0.03 0.02 2653
0.49 -0.01 0.81 -0.76 10.01 0.03 -0.02 0.02 2659
0.53 -0.03 0.77 -0.85 10.07 0.04 -0.01 0.01 2665
0.55 -0.02 0.78 -0.81 10.00 0.05 0.00 0.01 2671
0.61 -0.03 0.80 -0.81 10.08 0.07 0.01 0.00 2678
0.64 -0.04 0.79 -0.82 10.14 0.08 0.02 0.00 2684
0.67 -0.04 1.08 -0.66 10.08 0.09 0.03 -0.03 2691
0.73 -0.05 0.83 -0.75 10.15 0.13 0.05 -0.00 2697
0.72 -0.05 0.90 -0.87 10.20 0.17 0.07 -0.01 2703
0.75 -0.04 0.91 -0.97 10.23 0.21 0.09 -0.02 2710
0.80 -0.05 1.08 -0.93 10.29 0.29 0.11 -0.03 2716
0.84 -0.05 0.96 -0.85 10.56 0.39 0.16 -0.05 2722
0.87 -0.04 1.03 -1.03 10.92 0.56 0.24 -0.06 2728
0.89 -0.05 0.99 -0.94 11.23 0.83 0.33 -0.08 2735
0.89 -0.05 1.06 -1.10 11.59 1.12 0.41 -0.10 2742
0.94 -0.04 0.99 -1.12 12.15 1.39 0.43 -0.12 2748
0.94 -0.05 1.05 -1.12 12.64 1.60 0.39 -0.14 2754
0.94 -0.05 1.15 -1.35 13.10 1.71 0.32 -0.15 2760
0.91 -0.04 1.18 -1.53 13.04 1.86 0.24 -0.14 2767
0.86 -0.05 1.49 -1.77 13.63 2.04 0.15 -0.16 2774
0.81 -0.03 1.97 -1.86 14.25 2.27 -0.00 -0.21 2780
0.77 -0.03 2.20 -1.84 14.92 2.53 -0.05 -0.28 2786
0.66 -0.03 2.08 -2.41 14.74 2.79 -0.09 -0.34 2792
0.60 -0.02 1.61 -1.93 15.74 3.09 -0.17 -0.35 2799
0.52 -0.02 1.42 -2.03 16.71 3.36 -0.22 -0.41 2805
0.38 -0.01 2.08 -1.89 16.40 3.71 -0.36 -0.36 2811
0.30 -0.01 2.66 -2.86 16.97 3.95 -0.44 -0.42 2818
0.24 -0.01 2.24 -3.06 16.85 4.14 -0.60 -0.48 2825
0.22 0.01 3.37 -3.82 18.21 4.28 -0.62 -0.54 2831
0.18 0.00 3.07 -4.66 16.95 4.28 -0.62 -0.57 2837
0.16 -0.00 3.36 -5.61 18.04 4.26 -0.42 -0.57 2843
0.14 0.00 4.46 -5.87 20.63 4.17 -0.27 -0.58 2849
0.16 -0.01 3.65 -3.95 21.25 4.05 -0.21 -0.62 2856
0.12 -0.00 3.31 -1.31 22.89 3.72 -0.17 -0.61 2863
0.13 -0.01 1.71 0.34 22.85 3.25 -0.31 -0.59 2869
0.09 -0.01 1.54 1.52 21.76 2.84 -0.66 -0.57 2875
0.08 -0.01 2.60 7.71 17.59 2.76 -0.76 -0.51 2881
0.07 -0.01 2.36 9.83 11.65 2.58 -0.76 -0.45 2888
0.05 -0.01 3.55 17.90 11.21 2.16 -0.88 -0.45 2894
0.04 -0.00 4.92 22.24 10.66 1.41 -0.76 -0.54 2900
0.07 -0.01 6.12 17.18 7.97 0.62 -0.48 -0.60 2907
0.06 -0.01 6.13 16.97 11.13 0.08 -0.24 -0.70 2913
0.05 -0.01 4.57 16.17 9.94 -0.44 -0.07 -0.86 2920
0.07 -0.00 3.04 14.53 7.05 -0.80 0.03 -0.99 2926
0.07 -0.01 2.06 12.59 5.80 -1.00 -0.00 -1.09 2932
0.06 -0.01 1.73 11.61 5.16 -1.14 -0.10 -1.14 2938
0.06 -0.01 1.94 11.03 5.31 -1.28 -0.19 -1.17 2945
0.05 -0.01 2.39 10.10 5.52 -1.40 -0.24 -1.17 2951
0.05 -0.01 2.65 9.27 5.94 -1.52 -0.25 -1.14 2958
0.06 0.01 3.57 8.77 6.17 -1.59 -0.21 -1.09 2964
0.07 -0.00 4.28 8.11 6.67 -1.70 -0.10 -1.01 2970
0.07 -0.01 3.81 6.85 7.07 -1.81 -0.04 -0.91 2976
0.06 -0.01 3.68 6.58 7.55 -1.90 0.06 -0.81 2982
0.08 -0.00 3.57 5.75 8.12 -1.97 0.12 -0.68 2989
0.06 -0.01 3.46 4.80 8.97 -2.01 0.17 -0.53 2995
0.06 -0.01 3.48 4.09 9.82 -2.04 0.22 -0.38 3001
0.05 -0.01 3.46 3.56 10.68 -2.09 0.27 -0.23 3008
0.06 -0.01 3.42 2.90 11.41 -2.15 0.30 -0.08 3014
0.05 -0.01 3.47 2.20 11.96 -2.22 0.35 0.07 3020
0.05 -0.00 3.47 1.53 12.17 -2.29 0.39 0.23 3026
0.06 -0.01 3.54 0.70 12.26 -2.35 0.43 0.34 3033
0.06 -0.01 3.57 -0.10 12.31 -2.38 0.46 0.47 3039
0.05 -0.00 3.57 -0.76 12.47 -2.37 0.51 0.59 3046
0.05 -0.01 3.58 -1.32 12.68 -2.35 0.54 0.70 3052
0.06 -0.01 3.54 -1.64 12.85 -2.32 0.58 0.78 3058
0.04 -0.00 3.43 -1.95 13.08 -2.28 0.62 0.85 3064
0.06 -0.00 3.31 -2.00 13.12 -2.25 0.65 0.90 3070
0.05 -0.01 3.24 -2.45 13.39 -2.20 0.69 0.93 3077
0.05 -0.00 3.11 -2.86 13.62 -2.16 0.72 0.94 3084
0.05 -0.00 2.91 -3.19 13.72 -2.12 0.75 0.92 3090
0.05 -0.00 2.71 -3.56 13.96 -2.07 0.76 0.89 3096
0.05 -0.00 2.56 -3.76 14.31 -2.03 0.77 0.85 3102
0.05 -0.00 2.40 -3.83 14.69 -2.02 0.78 0.80 3108
0.05 -0.01 2.38 -3.83 15.08 -2.04 0.80 0.76 3115
0.04 -0.00 2.38 -3.84 15.09 -2.07 0.82 0.72 3122
0.04 -0.00 2.22 -3.95 14.82 -2.13 0.82 0.69 3128
0.06 -0.00 2.13 -4.13 14.44 -2.17 0.80 0.66 3134
0.04 0.00 2.04 -4.39 13.93 -2.19 0.78 0.63 3140
0.04 -0.00 2.07 -4.64 13.50 -2.17 0.75 0.60 3146
0.06 0.00 1.95 -4.82 13.00 -2.13 0.72 0.57 3152
0.04 -0.00 1.80 -4.96 12.64 -2.06 0.70 0.55 3160
0.04 -0.00 1.60 -5.07 12.39 -1.97 0.68 0.52 3166
0.05 0.00 1.40 -5.24 12.19 -1.87 0.65 0.49 3172
0.05 -0.01 1.23 -5.27 12.23 -1.76 0.60 0.45 3178
0.04 0.01 0.96 -5.25 12.20 -1.65 0.54 0.41 3184
0.05 0.00 0.80 -5.24 12.43 -1.55 0.48 0.36 3191
0.05 -0.01 0.83 -5.16 12.78 -1.49 0.43 0.31 3197
0.04 -0.00 0.91 -5.04 13.00 -1.44 0.41 0.27 3204
0.05 0.01 1.11 -5.01 13.02 -1.44 0.41 0.22 3210
0.05 -0.00 1.15 -5.06 12.74 -1.44 0.46 0.19 3216
0.04 -0.00 1.11 -5.16 12.59 -1.45 0.51 0.16 3222
0.05 0.00 0.97 -5.17 12.27 -1.46 0.58 0.14 3229
0.05 -0.00 0.62 -5.13 11.98 -1.47 0.65 0.14 3235
0.03 0.00 -0.02 -5.01 11.09 -1.46 0.72 0.17 3241
0.04 0.01 -0.69 -5.07 11.45 -1.43 0.83 0.23 3248
0.05 -0.01 -1.32 -5.40 11.54 -1.38 0.93 0.31 3254
0.04 -0.00 -1.90 -5.93 11.70 -1.33 0.93 0.37 3260
0.05 0.01 -2.13 -6.64 11.68 -1.28 0.84 0.39 3267
0.05 -0.00 -2.09 -7.31 11.40 -1.21 0.69 0.39 3273
0.04 -0.00 -1.85 -8.00 10.83 -1.18 0.55 0.37 3279
0.05 0.01 -1.49 -8.64 9.97 -1.12 0.43 0.34 3286
0.05 -0.01 -1.33 -9.37 9.28 -1.03 0.38 0.30 3292
0.05 -0.00 -1.07 -9.90 8.60 -0.90 0.36 0.26 3298
0.04 0.00 -1.07 -10.53 8.60 -0.78 0.37 0.21 3305
0.06 -0.00 -1.16 -11.14 8.55 -0.67 0.41 0.14 3311
0.05 -0.00 -1.07 -11.56 8.92 -0.58 0.45 0.06 3317
0.04 0.00 -1.15 -11.93 9.14 -0.54 0.46 -0.04 3323
0.06 -0.00 -1.33 -12.21 9.07 -0.54 0.47 -0.14 3330
0.04 -0.00 -1.49 -12.51 8.42 -0.54 0.46 -0.24 3337
0.05 0.00 -1.45 -13.08 7.88 -0.55 0.44 -0.32 3343
0.06 -0.00 -1.30 -13.64 7.04 -0.50 0.42 -0.39 3349
0.05 -0.01 -1.56 -15.25 6.13 -0.41 0.35 -0.46 3355
0.05 -0.00 -4.27 -18.22 10.79 0.15 -0.13 -0.55 3361
0.05 -0.00 -1.47 -12.52 0.92 0.44 -0.21 -0.56 3368
0.05 -0.01 -4.23 -17.71 13.49 0.70 -0.65 -0.54 3375
0.05 0.00 -3.14 -14.11 5.88 1.03 -1.12 -0.53 3381
0.05 -0.01 -3.80 -16.16 6.81 1.13 -1.61 -0.51 3387
0.04 -0.00 -3.11 -17.70 7.29 1.35 -2.05 -0.49 3393
0.05 0.01 -2.00 -18.55 4.24 1.46 -2.17 -0.40 3400
0.05 0.04 -1.61 -21.57 3.00 1.70 -2.09 -0.19 3406
0.04 0.13 -0.67 -18.40 0.52 2.03 -1.88 0.17 3412
0.03 0.43 0.98 -1.29 11.47 2.89 -1.91 0.41 3419
0.01 0.67 -3.23 -2.66 22.06 3.73 -1.97 0.42 3425
0.00 0.93 -2.95 -0.04 27.46 3.81 -2.00 0.22 3432
0.01 1.13 -1.48 -0.88 24.19 3.37 -1.74 -0.04 3438
-0.01 1.19 -1.66 -5.10 36.30 2.89 -1.84 -0.28 3444
-0.01 1.24 0.55 -2.73 15.80 0.62 -1.28 -0.18 3450
-0.01 1.26 0.96 -3.38 12.70 0.13 -0.46 -0.00 3458
-0.02 1.27 0.81 -2.17 10.80 -0.01 -0.14 0.09 3464
-0.01 1.20 0.63 -0.67 10.17 -0.00 -0.08 0.11 3470
0.01 1.14 0.60 -0.28 9.97 0.03 -0.09 0.07 3476
-0.01 1.15 0.73 -0.52 9.91 0.04 -0.09 0.05 3482
-0.00 1.12 0.80 -0.73 9.86 0.02 -0.08 0.06 3488
0.01 1.12 0.71 -0.90 10.23 0.00 -0.06 0.08 3495
0.03 1.10 0.58 -0.91 10.07 -0.01 -0.04 0.09 3502
0.03 1.09 0.50 -0.78 10.10 -0.02 -0.03 0.08 3508
0.03 1.11 0.56 -0.77 10.06 -0.02 -0.02 0.07 3514
0.00 1.16 0.67 -0.68 9.94 -0.03 -0.02 0.07 3520
0.01 1.21 0.70 -0.72 9.98 -0.03 -0.02 0.07 3526
0.02 1.21 0.63 -0.71 10.02 -0.03 -0.02 0.07 3533
0.00 1.22 0.68 -0.70 10.00 -0.04 -0.02 0.07 3539
0.01 1.26 0.70 -0.69 9.93 -0.04 -0.02 0.06 3546
0.00 1.27 0.70 -0.65 9.97 -0.03 -0.02 0.06 3552
0.02 1.25 0.70 -0.65 10.05 -0.02 -0.02 0.06 3558
-0.00 1.23 0.65 -0.63 10.09 -0.02 -0.01 0.06 3565
0.01 1.26 0.69 -0.63 10.06 -0.01 -0.01 0.06 3571
-0.00 1.25 0.68 -0.64 9.94 -0.00 -0.01 0.06 3577
-0.01 1.23 0.68 -0.67 10.03 -0.00 -0.01 0.06 3584
0.01 1.18 0.68 -0.68 9.99 0.00 -0.02 0.07 3590
-0.00 1.16 0.67 -0.64 9.95 0.01 -0.02 0.07 3596
-0.00 1.13 0.65 -0.65 9.96 0.00 -0.03 0.06 3603
0.02 1.12 0.66 -0.63 9.97 0.01 -0.03 0.07 3609
0.02 1.07 0.68 -0.64 10.05 0.01 -0.03 0.07 3615
0.03 1.01 0.65 -0.63 10.04 0.01 -0.03 0.07 3621
0.04 0.98 0.66 -0.67 9.99 0.01 -0.03 0.07 3628
0.05 0.95 0.69 -0.65 9.90 0.01 -0.04 0.07 3634
0.05 0.90 0.68 -0.65 9.94 0.01 -0.05 0.07 3640
0.04 0.86 0.71 -0.70 9.97 0.01 -0.05 0.07 3647
0.07 0.81 0.71 -0.63 9.97 0.01 -0.05 0.07 3653
0.06 0.80 0.68 -0.71 9.96 0.01 -0.05 0.06 3659
0.06 0.77 0.63 -0.67 10.00 0.00 -0.05 0.06 3665
0.09 0.78 0.67 -0.69 10.00 0.01 -0.06 0.05 3672
0.09 0.70 0.64 -0.67 10.02 0.01 -0.06 0.05 3678
0.07 0.61 0.65 -0.70 9.98 0.01 -0.05 0.06 3684
0.09 0.59 0.63 -0.65 9.97 0.00 -0.06 0.05 3691
0.12 0.57 0.64 -0.63 9.96 0.01 -0.05 0.05 3697
0.11 0.55 0.64 -0.68 9.99 0.01 -0.05 0.05 3703
0.14 0.53 0.64 -0.69 9.98 0.01 -0.05 0.06 3709
0.14 0.53 0.68 -0.72 10.00 0.01 -0.05 0.05 3716
0.14 0.47 0.67 -0.70 9.96 0.00 -0.05 0.05 3722
0.13 0.48 0.70 -0.68 10.04 0.00 -0.05 0.05 3729
0.14 0.46 0.65 -0.71 10.04 0.01 -0.05 0.05 3735
0.15 0.43 0.69 -0.69 9.98 0.00 -0.05 0.05 3741
0.16 0.39 0.68 -0.68 9.97 0.00 -0.05 0.05 3747
0.17 0.37 0.66 -0.66 9.98 0.00 -0.06 0.04 3753
0.17 0.37 0.62 -0.71 9.89 0.00 -0.06 0.04 3760
0.18 0.37 0.63 -0.76 9.98 0.00 -0.05 0.03 3766
0.17 0.38 0.65 -0.71 10.00 -0.00 -0.05 0.03 3773
0.21 0.33 0.67 -0.72 10.02 0.00 -0.05 0.03 3779
0.22 0.31 0.64 -0.73 9.98 -0.00 -0.05 0.03 3785
0.19 0.29 0.65 -0.70 10.01 0.00 -0.04 0.03 3791
0.21 0.26 0.61 -0.73 9.97 0.00 -0.04 0.03 3798
0.24 0.26 0.66 -0.73 9.99 -0.00 -0.03 0.03 3804
0.27 0.21 0.65 -0.72 9.95 0.00 -0.04 0.03 3811
0.29 0.23 0.68 -0.69 10.03 0.01 -0.03 0.03 3817
0.32 0.21 0.65 -0.71 9.98 0.01 -0.03 0.03 3823
0.33 0.18 0.68 -0.71 9.99 0.01 -0.03 0.03 3829
0.36 0.16 0.68 -0.74 10.08 0.02 -0.02 0.02 3835
0.40 0.14 0.72 -0.69 10.01 0.01 -0.01 0.02 3842
0.42 0.08 0.76 -0.76 9.99 0.02 -0.01 0.02 3849
0.39 0.06 0.69 -0.75 9.98 0.02 -0.01 0.01 3855
0.43 0.06 0.76 -0.80 10.02 0.02 -0.01 0.01 3861
0.42 0.02 0.71 -0.78 10.05 0.02 -0.00 0.01 3867
0.49 -0.01 0.69 -0.71 10.04 0.03 0.00 0.01 3873
0.57 -0.00 0.65 -0.76 10.00 0.03 0.00 0.01 3879
0.61 -0.03 0.70 -0.73 10.15 0.05 0.01 0.01 3887
0.62 -0.03 0.71 -0.79 10.07 0.07 0.02 0.00 3893
0.65 -0.01 0.74 -0.55 10.16 0.09 0.03 0.00 3899
0.70 -0.03 0.93 -0.93 10.48 0.11 0.04 -0.00 3905
0.71 -0.05 0.68 -0.78 10.20 0.17 0.07 -0.00 3911
0.77 -0.03 0.78 -0.86 10.25 0.22 0.09 -0.01 3917
0.80 -0.04 0.80 -0.70 9.71 0.27 0.12 0.03 3924
0.81 -0.05 1.09 -0.96 10.44 0.34 0.15 -0.03 3931
0.86 -0.04 1.03 -0.92 10.62 0.46 0.21 -0.05 3937
0.89 -0.04 1.16 -1.09 11.17 0.66 0.30 -0.07 3943
0.89 -0.05 1.03 -1.08 11.67 0.99 0.43 -0.10 3949
0.89 -0.04 1.19 -1.22 12.65 1.39 0.57 -0.12 3956
0.88 -0.05 1.00 -1.17 13.42 1.74 0.61 -0.15 3962
0.85 -0.04 1.03 -1.14 14.14 1.99 0.53 -0.16 3969
0.82 -0.04 1.61 -1.41 14.42 2.20 0.35 -0.19 3975
0.75 -0.05 1.67 -1.00 14.22 2.42 0.18 -0.25 3982
0.66 -0.03 1.83 -1.65 14.25 2.65 -0.02 -0.30 3988
0.61 -0.03 1.65 -1.58 15.73 2.91 -0.14 -0.33 3994
0.50 -0.02 1.54 -1.81 16.46 3.17 -0.20 -0.36 4000
0.43 -0.01 1.71 -1.95 16.63 3.47 -0.29 -0.39 4007
0.37 -0.01 2.54 -2.56 17.28 3.77 -0.41 -0.41 4014
0.27 -0.01 3.12 -2.84 17.20 3.97 -0.53 -0.46 4020
0.25 -0.00 2.81 -2.82 16.24 4.13 -0.66 -0.51 4026
0.18 -0.01 2.91 -3.75 17.71 4.23 -0.63 -0.56 4032
0.14 0.02 2.82 -4.39 20.57 4.28 -0.64 -0.59 4039
0.16 0.01 3.23 -3.96 18.55 4.28 -0.67 -0.63 4045
0.14 0.00 3.96 -3.08 19.82 4.28 -0.68 -0.64 4051
0.13 0.00 4.43 -2.00 20.73 4.19 -0.73 -0.68 4058
0.10 -0.01 3.83 0.03 21.71 3.96 -0.76 -0.72 4065
0.12 -0.01 3.20 -0.03 21.02 3.53 -0.84 -0.71 4071
0.09 -0.01 2.88 1.35 21.15 3.12 -0.79 -0.67 4077
0.06 -0.01 2.79 6.97 15.97 2.75 -0.69 -0.55 4083
0.07 -0.01 2.29 11.13 12.72 2.33 -0.67 -0.44 4089
0.08 -0.01 3.61 17.14 12.46 1.68 -0.70 -0.38 4096
0.06 -0.01 5.41 24.23 11.98 0.92 -0.67 -0.35 4103
0.04 -0.00 4.65 14.04 7.63 0.25 -0.49 -0.33 4109
0.06 -0.01 5.71 12.85 10.71 -0.05 -0.46 -0.36 4115
0.06 -0.01 4.41 13.56 9.90 -0.45 -0.43 -0.43 4121
0.05 -0.00 3.31 11.52 6.97 -0.73 -0.40 -0.54 4127
0.06 -0.01 2.87 9.80 5.01 -0.85 -0.42 -0.63 4133
0.04 -0.00 2.86 8.91 4.68 -0.91 -0.48 -0.64 4141
0.03 -0.00 3.13 8.62 5.11 -0.99 -0.49 -0.69 4147
0.04 -0.00 3.67 8.18 5.41 -1.07 -0.46 -0.73 4153
0.06 -0.01 4.11 7.50 5.76 -1.14 -0.40 -0.77 4159
0.05 -0.00 4.28 7.00 6.67 -1.26 -0.33 -0.80 4165
0.04 -0.00 4.22 6.72 6.41 -1.37 -0.26 -0.80 4171
0.05 -0.01 4.04 6.20 6.67 -1.48 -0.18 -0.78 4177
0.06 -0.01 3.93 5.45 7.14 -1.55 -0.12 -0.74 4184
0.05 -0.00 4.05 4.86 7.93 -1.62 -0.07 -0.69 4190
0.05 -0.00 4.22 4.41 8.82 -1.68 -0.02 -0.63 4197
0.05 -0.00 4.33 4.08 9.47 -1.76 0.04 -0.55 4203
0.06 -0.01 4.43 3.61 9.98 -1.86 0.10 -0.46 4209
0.05 -0.00 4.47 3.25 10.42 -1.99 0.18 -0.36 4215
0.03 -0.00 4.49 2.66 10.57 -2.11 0.28 -0.22 4221
0.04 -0.00 4.39 1.78 10.70 -2.19 0.38 -0.08 4228
0.05 -0.00 4.38 0.98 10.60 -2.24 0.47 0.08 4234
0.04 -0.00 4.18 0.28 10.54 -2.26 0.56 0.23 4240
0.04 -0.00 4.07 -0.29 10.72 -2.24 0.64 0.38 4247
0.06 -0.01 3.94 -0.61 11.01 -2.21 0.71 0.52 4253
0.04 -0.00 3.09 -0.81 11.65 -2.18 0.77 0.63 4259
0.04 -0.00 3.25 -0.90 12.14 -2.15 0.83 0.74 4265
0.05 0.00 2.95 -1.12 12.61 -2.13 0.87 0.82 4272
0.05 -0.00 2.68 -1.38 13.48 -2.12 0.90 0.89 4278
0.03 -0.00 2.48 -1.77 13.41 -2.11 0.94 0.94 4285
0.04 0.00 2.32 -1.95 13.79 -2.11 0.96 0.98 4291
0.04 -0.00 2.05 -2.20 14.03 -2.12 0.96 1.00 4297
0.04 -0.00 1.86 -2.53 14.18 -2.14 0.96 1.00 4303
0.05 0.00 1.67 -2.80 14.13 -2.15 0.95 0.99 4310
0.06 -0.00 1.50 -3.06 14.21 -2.15 0.94 0.97 4317
0.04 -0.00 1.47 -3.26 14.34 -2.15 0.92 0.94 4323
0.05 0.00 1.41 -3.40 14.53 -2.14 0.92 0.91 4329
0.05 -0.01 1.41 -3.46 14.65 -2.13 0.92 0.87 4335
0.04 -0.00 1.35 -3.57 14.57 -2.14 0.92 0.80 4341
0.05 0.01 1.33 -3.79 14.49 -2.13 0.92 0.80 4347
0.05 0.00 1.26 -3.98 14.39 -2.14 0.90 0.76 4355
0.05 -0.00 1.17 -4.22 14.18 -2.13 0.87 0.73 4361
0.05 0.00 1.13 -4.53 13.77 -2.10 0.84 0.70 4367
0.05 -0.01 1.19 -4.75 13.56 -2.06 0.80 0.65 4373
0.05 -0.00 1.07 -5.02 13.37 -2.00 0.77 0.60 4379
0.05 0.00 1.16 -5.33 13.10 -1.93 0.73 0.55 4385
0.06 -0.01 1.25 -5.58 12.81 -1.84 0.71 0.50 4392
0.05 -0.01 1.29 -5.65 12.60 -1.75 0.70 0.44 4399
0.05 -0.00 1.25 -5.70 12.46 -1.65 0.69 0.40 4405
0.06 -0.01 1.02 -5.69 12.33 -1.56 0.66 0.37 4411
0.05 0.00 0.76 -5.68 11.69 -1.47 0.61 0.35 4417
0.04 -0.00 0.45 -5.57 12.87 -1.39 0.55 0.35 4423
0.06 -0.01 0.52 -5.29 13.26 -1.34 0.53 0.35 4430
0.05 -0.00 0.63 -5.10 13.54 -1.35 0.53 0.37 4436
0.04 -0.00 0.60 -4.87 13.51 -1.40 0.57 0.39 4443
0.05 0.01 0.61 -4.89 13.29 -1.50 0.66 0.42 4449
0.05 -0.00 0.62 -5.09 12.82 -1.54 0.77 0.46 4455
0.04 -0.00 0.44 -5.40 12.46 -1.61 0.84 0.48 4461
0.05 -0.00 0.00 -5.74 11.89 -1.65 0.88 0.50 4468
0.05 -0.01 -0.38 -5.99 11.37 -1.66 0.86 0.51 4474
0.05 -0.00 -0.59 -6.34 11.00 -1.63 0.78 0.51 4481
0.05 0.00 -0.57 -6.65 10.53 -1.57 0.66 0.50 4487
0.05 -0.01 -0.41 -6.94 9.97 -1.48 0.56 0.48 4493
0.05 -0.00 -0.05 -7.43 9.36 -1.36 0.49 0.43 4499
0.04 -0.00 0.34 -7.86 8.80 -1.23 0.47 0.35 4505
0.05 0.01 0.65 -8.22 8.50 -1.06 0.49 0.25 4512
0.05 -0.00 0.73 -8.43 8.30 -0.89 0.53 0.13 4518
0.05 -0.00 0.73 -8.44 8.68 -0.74 0.58 0.03 4525
0.04 -0.00 0.40 -8.24 9.26 -0.64 0.60 -0.08 4531
0.05 0.01 -0.14 -8.00 9.78 -0.61 0.58 -0.15 4537
0.05 -0.01 -0.40 -7.95 9.93 -0.62 0.51 -0.21 4543
0.05 -0.00 -0.43 -8.25 9.54 -0.65 0.41 -0.23 4549
0.04 -0.00 -0.35 -8.67 8.91 -0.67 0.30 -0.25 4555
0.05 0.01 -0.20 -9.75 8.13 -0.65 0.20 -0.26 4561
0.05 -0.00 0.07 -9.80 7.64 -0.57 0.15 -0.27 4569
0.05 -0.01 0.44 -10.23 7.30 -0.45 0.12 -0.28 4575
0.05 -0.00 0.60 -10.62 7.13 -0.31 0.11 -0.30 4581
0.05 -0.00 0.72 -10.73 7.33 -0.17 0.11 -0.31 4587
0.05 -0.00 0.94 -10.58 7.69 -0.07 0.12 -0.30 4593
0.05 0.00 1.03 -10.48 8.00 -0.01 0.13 -0.28 4600
0.06 -0.01 1.02 -10.54 7.98 0.01 0.12 -0.23 4606
0.05 -0.01 0.40 -11.80 7.49 0.05 0.09 -0.16 4613
0.05 -0.00 -2.53 -14.20 22.00 0.73 -0.63 -0.09 4619
0.06 -0.01 -2.62 -12.85 6.92 1.09 -1.03 0.09 4625
0.05 -0.00 -3.37 -13.47 4.38 1.43 -1.76 0.21 4631
0.04 0.00 -2.92 -15.53 5.35 1.54 -2.17 0.36 4638
0.06 0.00 -0.87 -15.81 7.60 1.79 -2.39 0.46 4644
0.05 0.01 -1.69 -14.69 5.87 1.92 -2.34 0.61 4651
0.04 0.11 0.10 -7.87 4.15 2.03 -2.13 0.84 4657
0.04 0.18 0.31 0.72 7.23 2.26 -1.62 1.01 4663
0.03 0.38 -0.62 -0.55 14.69 2.58 -1.35 1.12 4669
0.01 0.73 -4.81 2.38 22.54 2.89 -1.53 0.98 4676
0.01 0.96 -7.88 1.58 17.29 2.95 -1.65 0.57 4682
-0.00 1.10 -5.64 -1.41 17.53 3.13 -1.63 0.08 4688
-0.00 1.19 -4.94 -4.39 20.33 3.17 -1.25 -0.22 4695
0.00 1.16 -2.79 -3.34 19.78 3.08 -0.83 -0.46 4702
-0.01 1.24 1.19 -3.24 23.15 2.83 -0.64 -0.66 4708
0.01 1.22 4.05 -2.70 22.82 1.66 -1.42 -0.52 4714
-0.02 1.24 3.94 -2.10 11.23 0.45 -0.82 -0.06 4720
-0.00 1.29 1.63 -2.00 11.82 0.31 -0.53 0.14 4727
0.00 1.27 0.14 -0.97 10.53 0.24 -0.45 0.18 4733
-0.01 1.27 -0.12 -0.42 10.47 0.18 -0.35 0.13 4740
-0.01 1.24 0.05 -0.67 10.45 0.09 -0.24 0.08 4746
0.00 1.30 0.31 -0.98 10.11 0.01 -0.14 0.06 4752
-0.02 1.35 0.68 -1.26 10.22 -0.01 -0.08 0.07 4759
0.02 1.33 0.66 -1.15 10.25 -0.02 -0.05 0.08 4765
0.01 1.37 0.55 -0.79 10.16 -0.02 -0.03 0.09 4771
-0.00 1.41 0.52 -0.77 10.05 -0.03 -0.02 0.07 4777
0.01 1.40 0.65 -0.83 9.89 -0.03 -0.02 0.06 4784
0.01 1.44 0.68 -0.82 10.08 -0.03 -0.02 0.07 4791
-0.02 1.47 0.66 -0.75 10.01 -0.03 -0.02 0.07 4797
0.00 1.48 0.63 -0.72 10.08 -0.02 -0.02 0.06 4803
-0.01 1.46 0.68 -0.70 10.00 -0.02 -0.02 0.06 4809
-0.01 1.43 0.67 -0.69 9.98 -0.01 -0.02 0.06 4815
0.00 1.43 0.72 -0.74 9.92 -0.01 -0.02 0.06 4822
-0.00 1.36 0.68 -0.73 9.97 -0.00 -0.02 0.06 4829
-0.01 1.33 0.65 -0.75 9.97 0.00 -0.03 0.06 4835
-0.00 1.29 0.62 -0.75 10.01 0.01 -0.03 0.06 4841
0.03 1.26 0.65 -0.77 10.01 0.01 -0.03 0.06 4847
0.02 1.23 0.65 -0.72 9.97 0.01 -0.03 0.06 4853
0.01 1.16 0.63 -0.73 9.93 0.01 -0.03 0.06 4859
0.03 1.14 0.65 -0.71 9.98 0.02 -0.02 0.07 4867
0.02 1.09 0.65 -0.72 9.92 0.02 -0.02 0.07 4873
0.02 1.05 0.66 -0.74 9.93 0.02 -0.03 0.07 4879
0.02 1.01 0.74 -0.72 10.00 0.02 -0.03 0.07 4885
0.03 0.92 0.66 -0.70 9.92 0.03 -0.04 0.06 4891
0.03 0.88 0.68 -0.74 9.95 0.03 -0.04 0.06 4897
0.04 0.87 0.66 -0.73 9.92 0.03 -0.04 0.06 4903
0.05 0.83 0.65 -0.77 9.93 0.03 -0.04 0.06 4911
0.04 0.74 0.64 -0.80 9.95 0.03 -0.05 0.05 4917
0.05 0.69 0.69 -0.77 9.90 0.02 -0.05 0.05 4923
0.08 0.68 0.65 -0.76 9.93 0.01 -0.05 0.05 4929
0.09 0.61 0.62 -0.76 10.00 0.02 -0.05 0.06 4935
0.09 0.54 0.63 -0.78 10.00 0.02 -0.05 0.06 4941
0.09 0.55 0.62 -0.77 10.04 0.01 -0.04 0.06 4947
0.11 0.52 0.63 -0.80 10.02 0.01 -0.03 0.06 4955
0.12 0.53 0.61 -0.79 9.99 0.01 -0.04 0.06 4961
0.14 0.50 0.66 -0.76 9.99 0.02 -0.04 0.06 4967
0.15 0.42 0.66 -0.77 9.92 0.02 -0.03 0.06 4973
0.16 0.41 0.68 -0.79 9.92 0.02 -0.03 0.05 4979
0.14 0.37 0.71 -0.79 9.97 0.02 -0.04 0.05 4985
0.15 0.35 0.71 -0.77 10.07 0.01 -0.04 0.06 4993
0.15 0.37 0.74 -0.83 10.01 0.02 -0.03 0.04 4999
0.17 0.35 0.64 -0.81 9.98 0.02 -0.03 0.04 5005
0.21 0.32 0.62 -0.80 10.00 0.02 -0.03 0.05 5011
0.24 0.27 0.68 -0.84 10.01 0.02 -0.02 0.05 5017
0.22 0.25 0.68 -0.84 10.05 0.02 -0.02 0.04 5023
0.25 0.26 0.63 -0.81 9.96 0.02 -0.02 0.04 5030
0.26 0.22 0.63 -0.81 10.00 0.02 -0.02 0.04 5037
0.27 0.19 0.69 -0.80 10.04 0.03 -0.02 0.04 5043
0.30 0.15 0.79 -0.92 10.06 0.02 -0.01 0.04 5049
0.30 0.15 0.67 -0.79 10.01 0.02 -0.01 0.04 5055
0.30 0.12 0.69 -0.86 9.98 0.03 -0.01 0.04 5061
0.34 0.07 0.64 -0.80 9.94 0.03 -0.01 0.04 5068
0.38 0.06 0.69 -0.81 9.99 0.03 0.00 0.04 5074
0.37 0.03 0.72 -0.82 10.02 0.03 0.01 0.04 5081
0.39 0.03 0.70 -0.90 10.03 0.03 0.01 0.04 5087
0.46 0.01 0.69 -0.88 9.95 0.03 0.02 0.03 5093
0.47 0.00 0.73 -0.85 10.04 0.04 0.03 0.03 5099
0.47 -0.02 0.77 -0.88 10.06 0.05 0.03 0.03 5106
0.49 0.00 0.70 -0.86 10.04 0.05 0.03 0.02 5112
0.53 -0.03 0.79 -0.76 10.19 0.06 0.04 0.02 5118
0.54 -0.03 1.31 -0.91 10.31 0.06 0.05 0.02 5125
0.58 -0.02 0.68 -0.81 10.02 0.08 0.06 0.02 5131
0.60 -0.05 0.83 -0.90 10.07 0.10 0.07 0.02 5137
0.62 -0.05 0.78 -0.89 10.17 0.13 0.08 0.01 5144
0.64 -0.04 0.75 -0.93 10.21 0.16 0.10 0.01 5150
0.69 -0.04 0.74 -0.97 10.26 0.21 0.13 0.00 5156
0.71 -0.05 0.86 -1.00 10.40 0.29 0.18 -0.01 5163
0.72 -0.04 0.87 -1.05 10.69 0.43 0.25 -0.01 5169
0.72 -0.05 0.92 -1.07 11.05 0.62 0.35 -0.02 5176
0.71 -0.03 1.01 -1.11 11.32 0.85 0.45 -0.03 5182
0.73 -0.04 1.02 -1.03 11.68 1.09 0.54 -0.05 5188
0.73 -0.05 1.03 -1.26 11.85 1.33 0.56 -0.06 5194
0.71 -0.03 0.85 -1.40 12.03 1.51 0.55 -0.07 5200
0.71 -0.04 1.70 -1.40 12.00 1.62 0.48 -0.08 5208
0.67 -0.05 1.11 -1.49 12.54 1.72 0.40 -0.09 5214
0.64 -0.02 1.13 -1.73 13.01 1.86 0.30 -0.10 5220
0.58 -0.02 1.54 -1.25 14.57 2.07 0.13 -0.11 5226
0.49 -0.02 2.13 -1.99 14.88 2.37 0.05 -0.19 5233
0.44 -0.01 2.57 -1.88 14.61 2.69 -0.01 -0.26 5239
0.36 -0.01 2.17 -1.90 15.00 2.96 -0.07 -0.36 5245
0.30 -0.01 1.92 -2.28 15.59 3.23 -0.09 -0.40 5252
0.27 -0.00 2.18 -3.72 15.82 3.46 -0.16 -0.52 5258
0.25 -0.02 2.64 -2.55 18.19 3.83 -0.28 -0.48 5265
0.16 -0.00 3.97 -3.32 17.33 4.00 -0.37 -0.50 5271
0.16 -0.01 2.73 -3.83 18.34 4.16 -0.54 -0.57 5277
0.14 -0.01 3.59 -4.30 18.28 4.24 -0.54 -0.61 5283
0.13 0.00 4.58 -5.21 19.16 4.28 -0.47 -0.66 5291
0.12 -0.01 5.25 -4.88 21.23 4.28 -0.31 -0.72 5297
0.08 -0.01 5.27 -3.38 21.72 4.25 -0.13 -0.77 5303
0.09 -0.01 5.36 -1.77 24.19 4.09 -0.10 -0.81 5309
0.09 -0.01 3.98 0.93 26.67 3.84 -0.22 -0.85 5315
0.05 -0.01 3.04 2.90 24.55 3.52 -0.24 -0.89 5321
0.06 -0.01 1.89 4.41 19.19 3.09 -0.32 -0.82 5328
0.08 -0.01 2.80 9.94 14.43 2.71 -0.45 -0.75 5335
0.06 -0.01 1.64 13.93 12.67 2.25 -0.51 -0.75 5341
0.06 -0.01 3.36 15.26 8.83 1.70 -0.54 -0.81 5347
0.07 -0.01 3.16 14.80 9.63 1.06 -0.53 -0.93 5353
0.05 -0.01 4.35 12.09 9.95 0.44 -0.41 -1.03 5359
0.06 0.00 3.89 12.86 9.86 -0.04 -0.25 -1.10 5366
0.05 -0.01 2.74 10.82 7.42 -0.33 -0.19 -1.21 5372
0.05 -0.01 1.86 9.47 5.15 -0.48 -0.24 -1.27 5379
0.07 -0.01 1.71 8.89 4.08 -0.59 -0.31 -1.28 5385
0.09 -0.01 1.96 8.75 3.91 -0.70 -0.40 -1.28 5391
0.09 -0.01 2.61 8.09 4.32 -0.81 -0.45 -1.26 5397
0.08 -0.01 3.33 7.48 4.57 -0.90 -0.47 -1.23 5403
0.07 -0.01 3.84 7.14 4.76 -1.00 -0.43 -1.20 5410
0.08 -0.01 4.10 6.94 4.61 -1.07 -0.34 -1.15 5416
0.07 -0.01 4.23 6.59 4.78 -1.17 -0.24 -1.07 5423
0.06 -0.01 4.86 6.38 5.24 -1.27 -0.14 -0.97 5429
0.07 -0.00 4.28 6.17 5.84 -1.37 -0.03 -0.86 5435
0.06 -0.01 4.18 5.91 6.48 -1.46 0.07 -0.75 5441
0.07 -0.01 4.04 5.66 7.28 -1.57 0.15 -0.61 5447
0.07 -0.01 4.04 5.42 8.27 -1.68 0.23 -0.46 5453
0.07 -0.00 4.20 5.16 9.07 -1.82 0.33 -0.31 5460
0.07 -0.01 4.21 4.75 9.64 -1.95 0.44 -0.15 5467
0.07 -0.01 4.03 4.08 9.97 -2.11 0.53 0.01 5473
0.06 -0.01 3.63 2.66 10.21 -2.24 0.63 0.16 5479
0.08 -0.01 3.20 2.11 10.44 -2.33 0.71 0.26 5485
0.06 -0.01 2.99 0.91 10.57 -2.38 0.77 0.36 5491
0.06 -0.01 2.69 0.07 10.91 -2.39 0.82 0.44 5497
0.07 -0.01 2.46 -0.51 11.29 -2.38 0.84 0.49 5505
0.06 -0.01 2.22 -0.78 11.74 -2.36 0.86 0.54 5511
0.05 -0.01 1.95 -0.82 12.40 -2.37 0.88 0.58 5517
0.06 -0.00 1.70 -0.86 12.84 -2.38 0.90 0.63 5523
0.06 -0.01 1.66 -1.25 13.31 -2.40 0.91 0.67 5529
0.06 -0.01 1.63 -1.48 13.98 -2.43 0.91 0.70 5535
0.06 -0.00 1.49 -1.72 14.51 -2.47 0.90 0.73 5542
0.06 -0.01 1.35 -1.89 14.94 -2.51 0.88 0.73 5549
0.06 -0.01 1.27 -2.29 15.20 -2.57 0.86 0.73 5555
0.07 0.01 1.13 -2.69 15.50 -2.63 0.84 0.71 5561
0.07 -0.00 1.12 -3.14 15.58 -2.68 0.81 0.67 5567
0.06 -0.01 1.27 -3.65 15.47 -2.71 0.76 0.63 5574
0.06 0.01 1.35 -4.15 15.26 -2.71 0.71 0.58 5580
0.06 -0.00 1.49 -4.50 15.06 -2.69 0.66 0.53 5586
0.04 -0.00 1.55 -4.94 14.70 -2.66 0.61 0.48 5593
0.06 0.00 1.80 -5.42 14.39 -2.59 0.59 0.44 5599
0.07 -0.01 2.17 -5.80 14.20 -2.50 0.58 0.41 5605
0.06 -0.00 3.06 -6.00 14.21 -2.39 0.57 0.39 5612
0.06 0.01 2.59 -6.13 14.13 -2.28 0.58 0.38 5618
0.06 -0.00 2.74 -6.35 13.84 -2.17 0.60 0.39 5624
0.05 0.00 2.74 -6.37 13.62 -2.06 0.61 0.41 5630
0.06 0.00 2.64 -6.48 13.56 -1.94 0.60 0.44 5637
0.05 0.00 2.51 -6.68 13.43 -1.81 0.58 0.50 5644
0.05 0.00 2.57 -6.64 13.33 -1.68 0.56 0.56 5650
0.06 0.00 2.57 -6.51 13.45 -1.56 0.56 0.63 5656
0.05 -0.00 2.65 -6.36 13.68 -1.48 0.58 0.71 5662
0.05 -0.00 2.84 -6.26 13.94 -1.43 0.66 0.79 5669
0.06 -0.00 2.92 -6.27 13.86 -1.41 0.79 0.86 5676
0.05 -0.01 2.76 -6.44 13.79 -1.44 0.96 0.94 5682
0.06 0.00 2.25 -6.75 13.76 -1.50 1.12 1.01 5688
0.07 -0.00 1.35 -7.12 13.62 -1.50 1.20 1.07 5694
0.06 -0.01 0.52 -7.46 13.37 -1.52 1.21 1.13 5700
0.05 -0.01 -0.15 -7.74 12.95 -1.52 1.11 1.19 5707
0.06 -0.01 -0.73 -7.81 12.34 -1.51 1.02 1.23 5713
0.06 -0.01 -1.07 -7.89 11.58 -1.49 0.86 1.26 5720
0.05 -0.00 -1.14 -7.89 10.93 -1.44 0.70 1.27 5726
0.07 -0.00 -1.08 -7.91 10.57 -1.37 0.56 1.25 5732
0.05 -0.01 -1.08 -7.92 10.19 -1.29 0.45 1.22 5739
0.05 -0.00 -1.10 -7.93 9.68 -1.20 0.39 1.16 5745
0.06 -0.01 -1.27 -8.03 9.14 -1.09 0.35 1.09 5751
0.05 -0.01 -1.65 -8.07 8.63 -0.97 0.34 1.01 5757
0.05 0.00 -2.27 -8.11 8.58 -0.87 0.34 0.94 5764
0.06 0.00 -2.72 -8.36 8.66 -0.75 0.30 0.85 5770
0.05 -0.00 -2.97 -8.69 8.93 -0.64 0.21 0.75 5776
0.05 0.00 -2.86 -8.99 9.07 -0.57 0.06 0.63 5783
0.06 0.01 -2.28 -9.26 9.04 -0.51 -0.11 0.52 5789
0.06 -0.01 -1.47 -9.43 8.73 -0.46 -0.25 0.36 5795
0.05 -0.01 -0.51 -9.72 8.43 -0.41 -0.29 0.20 5801
0.05 -0.00 0.36 -10.01 8.10 -0.37 -0.22 0.02 5808
0.07 -0.00 0.97 -10.30 7.75 -0.33 -0.08 -0.16 5814
0.06 -0.01 1.06 -10.42 7.64 -0.29 0.10 -0.34 5821
0.05 -0.00 0.71 -10.41 7.43 -0.24 0.25 -0.51 5827
0.07 -0.01 0.25 -10.47 7.62 -0.19 0.32 -0.64 5833
0.06 -0.01 -0.11 -10.67 7.47 -0.12 0.35 -0.75 5839
0.05 -0.00 -0.35 -10.64 7.45 -0.04 0.29 -0.82 5846
0.07 -0.00 -4.89 -17.56 24.27 0.35 -0.07 -0.83 5853
0.05 -0.00 0.55 -10.10 0.99 0.92 -0.51 -0.82 5859
0.05 -0.00 -2.92 -14.39 6.67 1.02 -1.00 -0.79 5865
0.06 -0.01 -1.44 -14.79 6.68 1.34 -1.49 -0.73 5871
0.05 -0.00 -0.95 -15.88 5.70 1.49 -1.79 -0.61 5877
0.05 0.00 -1.36 -16.53 5.00 1.69 -2.06 -0.41 5883
0.06 0.05 -0.70 -14.06 2.69 1.84 -2.10 -0.13 5891
0.05 0.12 3.40 -1.75 4.87 2.10 -1.80 0.15 5897
0.04 0.31 3.23 -0.53 10.89 2.53 -1.42 0.41 5903
0.02 0.68 0.64 -1.80 21.71 3.02 -1.28 0.58 5909
0.01 0.89 -4.07 1.69 19.65 3.16 -1.31 0.51 5916
0.01 1.10 -4.70 -0.87 17.96 3.22 -1.28 0.20 5922
-0.00 1.14 -3.02 -3.36 20.12 3.22 -1.23 -0.10 5928
-0.01 1.17 -1.59 -3.71 20.92 3.17 -1.00 -0.26 5935
0.01 1.14 -0.23 -4.70 35.59 2.53 -1.78 -0.37 5941
-0.00 1.21 2.11 -2.62 13.10 0.39 -1.01 -0.07 5948
-0.02 1.27 1.21 -2.57 11.81 0.06 -0.29 0.08 5954
0.00 1.24 0.88 -1.22 10.20 0.01 -0.12 0.10 5960
-0.01 1.21 0.61 -0.39 10.07 0.05 -0.13 0.09 5966
-0.01 1.20 0.61 -0.23 9.94 0.06 -0.13 0.08 5972
0.01 1.20 0.73 -0.56 10.05 0.03 -0.10 0.08 5980
-0.00 1.13 0.68 -0.79 9.84 0.00 -0.06 0.08 5986
-0.01 1.17 0.71 -0.92 10.25 -0.01 -0.04 0.08 5992
0.00 1.20 0.65 -0.85 10.10 -0.02 -0.02 0.08 5998
-0.01 1.18 0.58 -0.73 9.98 -0.02 -0.02 0.07 6004
-0.00 1.21 0.69 -0.66 10.00 -0.03 -0.01 0.06 6011
0.02 1.22 0.77 -0.71 9.89 -0.03 -0.01 0.06 6018
-0.01 1.29 0.81 -0.61 10.03 -0.03 -0.02 0.06 6024
-0.02 1.32 0.74 -0.65 10.02 -0.03 -0.03 0.06 6030
0.02 1.33 0.69 -0.64 10.04 -0.03 -0.02 0.05 6036
-0.00 1.36 0.67 -0.64 10.03 -0.02 -0.02 0.06 6042
-0.00 1.35 0.73 -0.61 10.02 -0.02 -0.02 0.06 6049
0.01 1.34 0.69 -0.62 9.92 -0.01 -0.01 0.06 6055
0.01 1.32 0.73 -0.58 10.04 -0.01 -0.01 0.06 6062
0.01 1.30 0.77 -0.56 9.97 -0.00 -0.01 0.06 6068
0.04 1.24 0.76 -0.63 9.97 0.00 -0.02 0.06 6074
0.02 1.20 0.83 -0.63 10.04 0.01 -0.02 0.06 6080
0.01 1.19 0.74 -0.63 9.98 0.01 -0.03 0.07 6087
0.04 1.15 0.74 -0.63 9.97 0.01 -0.03 0.06 6093
0.04 1.15 0.71 -0.62 10.00 0.01 -0.03 0.06 6099
0.02 1.10 0.74 -0.64 10.03 0.01 -0.03 0.10 6106
0.02 1.04 0.77 -0.64 9.92 0.01 -0.03 0.07 6112
0.03 1.00 0.74 -0.60 9.97 0.01 -0.03 0.06 6118
0.02 0.98 0.75 -0.63 9.93 0.01 -0.03 0.07 6125
0.03 0.94 0.76 -0.58 9.92 0.01 -0.04 0.06 6131
0.04 0.95 0.77 -0.60 9.93 0.01 -0.04 0.06 6137
0.03 0.86 0.74 -0.60 9.98 0.01 -0.05 0.06 6144
0.02 0.83 0.75 -0.60 9.85 0.01 -0.05 0.05 6150
0.02 0.81 0.73 -0.63 10.00 0.01 -0.05 0.05 6156
0.05 0.77 0.72 -0.67 9.98 0.00 -0.05 0.05 6162
0.05 0.73 0.74 -0.63 10.04 0.00 -0.05 0.05 6169
0.03 0.74 0.74 -0.63 9.97 0.00 -0.04 0.06 6175
0.06 0.75 0.71 -0.67 10.01 0.01 -0.04 0.05 6181
0.09 0.66 0.70 -0.62 9.96 0.01 -0.04 0.06 6188
0.11 0.64 0.71 -0.59 9.98 0.01 -0.04 0.05 6194
0.12 0.65 0.66 -0.65 9.88 0.01 -0.04 0.05 6200
0.14 0.59 0.73 -0.62 9.88 0.01 -0.04 0.05 6206
0.14 0.55 0.70 -0.66 10.00 0.01 -0.04 0.06 6213
0.14 0.59 0.71 -0.65 9.96 0.01 -0.04 0.05 6219
0.16 0.52 0.68 -0.60 10.01 0.01 -0.04 0.05 6225
0.16 0.48 0.74 -0.63 9.97 0.00 -0.04 0.05 6232
0.16 0.47 0.77 -0.67 9.98 -0.00 -0.04 0.05 6238
0.18 0.47 0.78 -0.67 10.01 -0.00 -0.04 0.05 6244
0.15 0.49 0.75 -0.67 10.00 -0.00 -0.04 0.04 6251
0.13 0.45 0.75 -0.68 9.88 -0.00 -0.04 0.04 6257
0.14 0.45 0.79 -0.64 9.96 -0.00 -0.04 0.04 6263
0.17 0.37 0.77 -0.64 10.03 0.00 -0.04 0.04 6269
0.17 0.41 0.73 -0.63 9.99 0.00 -0.04 0.04 6276
0.19 0.38 0.73 -0.71 9.97 0.00 -0.03 0.04 6282
0.19 0.33 0.71 -0.66 10.03 0.01 -0.03 0.04 6289
0.19 0.33 0.74 -0.65 9.97 0.02 -0.03 0.04 6295
0.24 0.28 0.70 -0.65 10.01 0.01 -0.01 0.04 6301
0.26 0.29 0.75 -0.69 10.02 0.02 -0.01 0.04 6307
0.25 0.24 0.74 -0.70 10.03 0.02 0.00 0.03 6313
0.30 0.22 0.75 -0.70 10.06 0.03 0.00 0.03 6320
0.32 0.19 0.79 -0.68 9.99 0.03 0.01 0.03 6327
0.32 0.11 0.78 -0.70 10.03 0.03 0.01 0.04 6333
0.34 0.11 0.79 -0.72 9.98 0.03 0.01 0.07 6339
0.38 0.11 0.75 -0.70 9.98 0.03 0.02 0.04 6345
0.42 0.05 0.80 -0.72 10.04 0.04 0.02 0.03 6351
0.45 0.03 0.77 -0.75 10.03 0.04 0.02 0.03 6358
0.49 0.04 0.77 -0.79 10.04 0.05 0.03 0.04 6365
0.50 0.02 0.83 -0.74 10.14 0.04 0.03 0.03 6371
0.48 0.00 0.82 -0.70 10.04 0.05 0.03 0.04 6377
0.51 -0.01 0.78 -0.72 9.97 0.06 0.04 0.04 6383
0.54 -0.02 0.85 -0.66 10.11 0.08 0.05 0.04 6389
0.54 -0.01 0.85 -0.92 10.08 0.09 0.05 0.04 6395
0.59 -0.02 0.86 -0.77 10.15 0.11 0.05 0.04 6403
0.63 -0.04 0.86 -0.82 10.17 0.13 0.05 0.04 6409
0.67 -0.04 1.00 -0.88 10.14 0.17 0.07 0.04 6415
0.71 -0.03 0.99 -0.83 10.20 0.23 0.10 0.02 6421
0.73 -0.05 0.97 -0.87 10.56 0.32 0.16 0.00 6427
0.75 -0.05 1.00 -0.94 10.86 0.46 0.24 -0.01 6434
0.79 -0.04 0.89 -0.89 11.34 0.71 0.36 -0.01 6440
0.80 -0.05 0.90 -0.91 11.91 1.03 0.47 -0.03 6447
0.81 -0.04 1.02 -0.99 12.95 1.37 0.54 -0.04 6453
0.82 -0.04 1.01 -1.17 13.21 1.65 0.52 -0.04 6459
0.80 -0.05 1.48 -1.11 13.52 1.88 0.42 -0.07 6466
0.78 -0.03 1.72 -1.19 13.20 2.04 0.29 -0.14 6472
0.73 -0.04 1.77 -1.44 13.44 2.22 0.14 -0.19 6478
0.69 -0.04 1.20 -1.64 13.97 2.41 0.03 -0.22 6484
0.66 -0.02 1.22 -1.67 14.25 2.62 -0.02 -0.22 6492
0.59 -0.02 1.56 -1.72 14.67 2.84 -0.04 -0.22 6498
0.49 -0.02 1.83 -2.05 15.40 3.10 -0.07 -0.24 6504
0.42 -0.02 2.06 -1.78 15.18 3.39 -0.14 -0.28 6510
0.31 -0.03 2.43 -2.03 15.61 3.64 -0.20 -0.33 6516
0.31 -0.01 2.96 -0.94 15.98 3.76 -0.28 -0.57 6523
0.24 -0.00 2.93 -3.35 18.81 4.09 -0.43 -0.46 6530
0.16 -0.00 3.47 -3.89 18.70 4.28 -0.40 -0.53 6536
0.18 0.01 2.96 -4.25 14.88 4.27 -0.28 -0.55 6542
0.13 -0.00 3.08 -5.25 17.69 4.21 -0.03 -0.52 6549
0.11 -0.01 4.26 -4.81 20.10 4.14 0.12 -0.51 6555
0.12 -0.01 5.35 -3.71 22.57 4.03 0.13 -0.54 6561
0.13 -0.01 4.68 -0.81 22.84 3.79 0.08 -0.60 6567
0.10 -0.01 3.83 0.53 21.69 3.40 -0.03 -0.62 6574
0.10 -0.01 4.11 3.53 20.85 3.08 -0.18 -0.65 6580
0.08 -0.01 2.32 3.03 14.93 2.88 -0.25 -0.68 6587
0.07 -0.01 3.28 11.65 13.80 2.67 -0.45 -0.69 6593
0.09 -0.01 1.97 8.03 11.05 2.21 -0.35 -0.71 6599
0.08 -0.01 6.85 24.08 12.89 1.67 -0.22 -0.72 6605
0.07 -0.01 4.13 15.63 10.27 0.90 -0.03 -0.79 6611
0.08 -0.01 3.68 14.24 11.72 0.23 0.06 -0.86 6619
0.07 -0.01 2.71 14.55 11.13 -0.25 0.11 -0.92 6625
0.06 -0.01 0.95 11.81 9.11 -0.59 0.06 -1.02 6631
0.07 -0.01 0.42 9.77 7.64 -0.75 -0.09 -1.10 6637
0.06 -0.01 0.60 8.78 5.86 -0.83 -0.28 -1.15 6643
0.06 -0.01 1.17 8.56 5.71 -0.93 -0.42 -1.19 6649
0.06 -0.01 2.04 8.17 5.56 -0.97 -0.46 -1.22 6656
0.06 -0.01 2.65 7.68 5.75 -1.04 -0.44 -1.22 6663
0.06 -0.01 3.10 7.46 5.83 -1.12 -0.36 -1.20 6669
0.06 -0.01 3.22 7.11 6.51 -1.21 -0.27 -1.16 6675
0.07 0.00 3.30 6.95 7.03 -1.33 -0.17 -1.08 6681
0.08 -0.01 3.21 6.44 7.52 -1.45 -0.10 -0.98 6687
0.07 -0.01 3.26 5.86 8.11 -1.55 -0.06 -0.85 6693
0.05 -0.01 3.34 5.33 8.59 -1.65 -0.05 -0.71 6700
0.06 -0.00 3.50 4.79 9.13 -1.75 -0.03 -0.56 6706
0.05 -0.00 3.75 4.39 9.38 -1.85 0.00 -0.41 6713
0.05 -0.00 3.99 3.81 9.53 -1.94 0.06 -0.31 6719
0.05 -0.01 4.11 3.33 9.73 -2.05 0.15 -0.18 6725
0.06 -0.01 4.14 2.75 9.87 -2.14 0.26 -0.07 6731
0.06 -0.01 3.97 2.15 10.10 -2.24 0.36 0.05 6737
0.06 -0.01 3.70 1.54 10.36 -2.26 0.46 0.15 6744
0.06 -0.01 3.45 0.97 10.52 -2.31 0.52 0.26 6750
0.06 -0.01 3.24 0.43 10.90 -2.34 0.57 0.37 6757
0.06 -0.01 3.15 0.08 11.13 -2.36 0.61 0.49 6763
0.06 -0.01 3.06 -0.25 11.30 -2.36 0.65 0.55 6769
0.07 -0.01 2.99 -0.58 11.62 -2.36 0.70 0.63 6775
0.06 -0.01 2.76 -0.94 12.10 -2.35 0.75 0.70 6781
0.06 -0.00 2.61 -1.21 12.55 -2.34 0.81 0.76 6788
0.07 -0.00 2.51 -1.54 13.01 -2.33 0.90 0.80 6795
0.06 -0.01 2.20 -2.01 13.63 -2.34 0.97 0.82 6801
0.06 -0.01 1.75 -2.38 14.12 -2.36 1.00 0.83 6807
0.07 -0.00 1.36 -2.85 14.52 -2.38 0.99 0.84 6813
0.07 -0.01 1.12 -3.31 14.71 -2.41 0.91 0.83 6819
0.06 -0.01 1.02 -3.73 14.80 -2.43 0.85 0.82 6825
0.07 0.00 1.08 -3.98 14.72 -2.43 0.76 0.77 6833
0.06 -0.00 1.36 -4.28 14.67 -2.43 0.67 0.74 6839
0.06 -0.01 1.63 -4.61 14.53 -2.41 0.60 0.73 6845
0.07 0.00 1.79 -4.81 14.20 -2.39 0.55 0.69 6851
0.06 -0.00 1.88 -5.11 14.00 -2.35 0.50 0.65 6857
0.06 -0.01 1.83 -5.61 13.47 -2.29 0.48 0.61 6864
0.07 0.00 1.85 -6.09 13.06 -2.19 0.45 0.57 6871
0.06 -0.00 1.76 -6.46 12.51 -2.06 0.41 0.53 6877
0.06 -0.00 1.66 -6.89 12.21 -1.89 0.35 0.49 6883
0.08 -0.00 1.65 -7.08 12.28 -1.71 0.29 0.45 6889
0.06 -0.01 1.80 -7.05 12.19 -1.57 0.27 0.43 6896
0.06 -0.00 2.12 -6.86 12.37 -1.42 0.28 0.42 6902
0.07 -0.00 2.68 -6.73 12.49 -1.30 0.39 0.42 6908
0.07 -0.01 3.13 -6.63 12.65 -1.24 0.47 0.43 6915
0.06 -0.00 3.20 -6.63 12.64 -1.21 0.61 0.45 6921
0.07 -0.00 3.19 -6.79 12.71 -1.20 0.75 0.53 6928
0.06 -0.01 3.02 -7.07 13.46 -1.20 0.86 0.55 6934
0.07 -0.00 2.50 -7.45 13.13 -1.20 0.91 0.62 6940
0.07 -0.00 1.93 -7.65 13.23 -1.21 0.92 0.72 6946
0.07 -0.01 1.54 -7.83 13.17 -1.23 0.88 0.82 6952
0.07 0.00 1.07 -8.03 12.83 -1.26 0.76 0.92 6960
0.07 -0.00 0.53 -8.03 11.85 -1.28 0.65 1.03 6966
0.07 -0.01 -0.12 -8.02 10.72 -1.28 0.61 1.17 6972
0.07 0.00 -1.03 -8.27 10.21 -1.26 0.65 1.33 6978
0.07 -0.01 -1.86 -8.58 10.22 -1.21 0.66 1.46 6984
0.06 -0.01 -2.33 -9.09 10.51 -1.17 0.60 1.55 6990
0.07 -0.00 -2.64 -9.82 10.72 -1.14 0.49 1.56 6998
0.07 -0.01 -2.67 -10.31 10.22 -1.13 0.32 1.51 7004
0.06 -0.01 -2.37 -10.87 9.07 -1.10 0.09 1.38 7010
0.07 0.00 -1.79 -11.49 7.91 -1.03 -0.08 1.21 7016
0.07 -0.01 -1.21 -13.58 7.59 -0.87 -0.18 1.02 7022
0.06 -0.00 -1.34 -13.46 6.60 -0.58 -0.24 0.73 7029
0.07 -0.00 -0.40 -14.94 7.20 -0.29 -0.15 0.41 7035
0.07 -0.01 -0.20 -13.70 6.38 0.01 -0.06 0.07 7042
0.06 -0.01 -0.23 -13.29 4.80 0.05 0.11 -0.24 7048
0.06 0.00 -0.68 -13.74 9.89 0.21 0.09 -0.53 7054
0.07 -0.01 -1.03 -12.89 8.89 0.28 -0.01 -0.77 7061
0.06 -0.01 -2.53 -14.64 8.00 0.29 -0.24 -0.94 7067
0.07 -0.00 -3.00 -13.87 7.42 0.51 -0.63 -1.06 7073
0.07 -0.01 -3.39 -14.72 8.50 0.66 -0.92 -1.11 7079
0.06 -0.01 -2.40 -15.06 3.44 0.85 -1.22 -1.12 7086
0.07 -0.00 -2.15 -17.45 5.31 1.06 -1.42 -1.07 7092
0.07 0.00 -1.35 -18.58 5.27 1.32 -1.53 -0.94 7099
0.04 0.03 -1.36 -21.27 2.70 1.53 -1.60 -0.70 7105
0.06 0.13 -0.72 -17.13 6.75 1.91 -1.70 -0.35 7111
0.03 0.35 2.86 -2.58 12.17 2.56 -1.64 -0.12 7117
0.03 0.59 2.19 -4.13 19.86 3.01 -1.36 0.07 7124
0.03 0.73 -0.09 -1.13 25.21 2.93 -1.18 0.18 7131
0.01 0.84 -1.99 -0.05 19.63 2.37 -1.13 0.08 7137
0.01 0.92 -1.48 -1.78 17.99 2.10 -1.15 -0.17 7143
-0.00 0.98 1.49 -2.58 19.59 1.92 -1.24 -0.25 7150
-0.00 0.91 0.99 -2.35 17.08 1.01 -1.22 -0.07 7156
0.01 0.96 1.22 -1.53 11.97 0.40 -0.57 0.11 7162
-0.01 0.93 0.39 -1.69 11.24 0.18 -0.25 0.17 7169
0.00 0.90 0.34 -0.90 10.39 0.07 -0.15 0.14 7175
0.02 0.91 0.54 -0.64 9.93 0.06 -0.11 0.11 7182
0.01 0.90 0.58 -0.69 10.05 0.03 -0.09 0.09 7188
0.01 0.91 1.19 -0.96 10.06 0.01 -0.06 0.09 7194
0.03 0.94 0.68 -1.11 10.01 -0.02 -0.05 0.09 7200
0.03 0.95 0.55 -0.93 10.01 -0.03 -0.03 0.08 7206
0.04 0.96 0.61 -0.83 9.98 -0.04 -0.02 0.07 7213
0.04 1.03 0.56 -0.70 10.00 -0.04 -0.02 0.06 7220
0.04 1.04 0.67 -0.72 10.08 -0.04 -0.02 0.06 7226
0.01 1.07 0.67 -0.72 10.06 -0.04 -0.02 0.06 7232
0.02 1.12 0.68 -0.72 9.98 -0.03 -0.01 0.06 7238
0.01 1.12 0.62 -0.68 10.07 -0.03 -0.01 0.06 7244
0.01 1.14 0.62 -0.64 9.88 -0.03 -0.01 0.06 7250
0.04 1.14 0.75 -0.72 10.09 -0.03 -0.01 0.07 7258
0.04 1.12 0.75 -0.72 10.10 -0.02 -0.01 0.07 7264
0.04 1.10 0.73 -0.68 9.96 -0.02 -0.02 0.07 7270
0.06 1.08 0.75 -0.69 10.08 -0.01 -0.02 0.07 7276
0.08 1.03 0.70 -0.68 10.12 -0.00 -0.02 0.07 7282
0.06 1.00 0.68 -0.68 10.09 -0.00 -0.02 0.07 7289
0.08 1.00 0.68 -0.69 10.06 0.00 -0.03 0.07 7296
0.12 0.95 0.69 -0.71 9.98 0.01 -0.03 0.08 7302
0.11 0.88 0.68 -0.66 10.02 0.01 -0.03 0.07 7308
0.12 0.86 0.71 -0.69 9.98 0.01 -0.03 0.07 7314
0.14 0.83 0.72 -0.70 9.99 0.01 -0.03 0.06 7320
0.13 0.76 0.70 -0.71 9.95 0.02 -0.03 0.06 7326
0.16 0.72 0.74 -0.68 10.02 0.02 -0.03 0.07 7333
0.17 0.68 0.70 -0.70 10.04 0.02 -0.02 0.06 7340
0.18 0.64 0.74 -0.70 9.95 0.02 -0.03 0.06 7346
0.18 0.62 0.74 -0.68 9.99 0.02 -0.03 0.06 7352
0.20 0.60 0.73 -0.70 10.01 0.02 -0.02 0.05 7358
0.18 0.53 0.76 -0.69 9.98 0.02 -0.03 0.06 7365
0.18 0.52 0.76 -0.73 9.99 0.01 -0.03 0.05 7371
0.19 0.48 0.68 -0.76 9.98 0.01 -0.03 0.05 7377
0.20 0.44 0.69 -0.70 10.01 0.01 -0.03 0.05 7384
0.20 0.41 0.71 -0.73 9.96 0.01 -0.03 0.06 7390
0.20 0.39 0.73 -0.71 9.97 0.01 -0.02 0.05 7396
0.21 0.43 0.71 -0.72 9.98 0.01 -0.02 0.05 7402
0.20 0.35 0.70 -0.73 10.04 0.01 -0.02 0.06 7409
0.19 0.34 0.71 -0.72 9.97 0.01 -0.02 0.05 7415
0.23 0.33 0.74 -0.72 9.98 0.01 -0.02 0.05 7421
0.23 0.35 0.76 -0.72 9.95 0.01 -0.02 0.05 7428
0.21 0.29 0.77 -0.75 9.97 0.01 -0.02 0.05 7434
0.22 0.27 0.72 -0.73 9.99 0.00 -0.02 0.05 7440
0.23 0.30 0.75 -0.77 9.91 0.00 -0.02 0.04 7446
0.22 0.27 0.72 -0.74 9.93 -0.00 -0.02 0.04 7453
0.23 0.28 0.74 -0.73 9.92 -0.01 -0.02 0.04 7459
0.24 0.28 0.78 -0.73 10.00 -0.01 -0.02 0.04 7465
0.24 0.22 0.76 -0.74 9.94 -0.01 -0.02 0.04 7472
0.23 0.23 0.67 -0.73 9.99 -0.01 -0.03 0.04 7478
0.24 0.30 0.76 -0.74 9.98 -0.01 -0.02 0.04 7484
0.23 0.27 0.74 -0.76 10.03 -0.01 -0.02 0.04 7491
0.24 0.24 0.75 -0.77 9.98 -0.00 -0.02 0.04 7497
0.23 0.23 0.74 -0.71 9.95 -0.01 -0.02 0.04 7503
0.25 0.26 0.78 -0.76 9.91 -0.01 -0.02 0.03 7510
0.25 0.21 0.80 -0.74 10.00 -0.00 -0.02 0.03 7516
0.26 0.22 0.77 -0.70 9.97 0.00 -0.02 0.03 7522
0.28 0.16 0.79 -0.71 10.02 0.01 -0.02 0.03 7528
0.28 0.12 0.78 -0.75 10.00 0.01 -0.02 0.03 7535
0.31 0.12 0.78 -0.72 9.96 0.01 -0.02 0.03 7541
0.35 0.10 0.80 -0.76 9.98 0.01 -0.01 0.02 7547
0.34 0.08 0.74 -0.70 10.04 0.02 -0.01 0.03 7554
0.35 0.08 0.75 -0.73 10.01 0.02 -0.00 0.02 7560
0.37 0.05 0.75 -0.74 10.02 0.03 0.00 0.02 7566
0.40 0.04 0.79 -0.76 10.05 0.03 0.01 0.03 7573
0.41 0.01 0.78 -0.80 10.09 0.04 0.01 0.03 7579
0.44 0.01 0.73 -0.75 10.10 0.05 0.02 0.03 7585
0.49 -0.01 0.81 -0.93 10.10 0.06 0.02 0.02 7591
0.50 -0.01 0.35 -0.78 9.92 0.07 0.03 0.03 7598
0.51 -0.01 0.70 -0.68 10.18 0.10 0.05 0.03 7604
0.55 -0.02 0.80 -0.65 10.09 0.11 0.06 0.03 7611
0.59 -0.03 0.96 -0.83 10.13 0.13 0.07 0.02 7617
0.61 -0.03 1.03 -0.91 10.19 0.16 0.08 0.02 7623
0.67 -0.04 1.04 -0.84 10.27 0.20 0.13 0.01 7629
0.66 -0.05 0.94 -0.83 10.45 0.27 0.14 -0.01 7635
0.68 -0.03 0.89 -0.88 10.73 0.40 0.21 -0.03 7643
0.72 -0.04 1.00 -0.89 11.18 0.60 0.30 -0.05 7649
0.75 -0.05 1.04 -0.97 11.48 0.87 0.40 -0.07 7655
0.78 -0.04 1.00 -1.08 12.26 1.20 0.49 -0.09 7661
0.80 -0.04 0.84 -1.14 13.00 1.52 0.53 -0.10 7667
0.79 -0.04 0.95 -1.22 13.54 1.76 0.46 -0.10 7674
0.78 -0.04 1.31 -1.43 13.66 1.95 0.32 -0.10 7681
0.74 -0.04 1.88 -1.49 13.21 2.10 0.17 -0.15 7687
0.71 -0.04 1.67 -1.57 13.44 2.25 0.03 -0.21 7693
0.68 -0.03 1.20 -1.65 13.92 2.45 -0.08 -0.24 7700
0.59 -0.04 1.25 -1.79 14.41 2.68 -0.14 -0.23 7706
0.53 -0.01 1.67 -1.78 15.87 2.96 -0.15 -0.24 7712
0.45 -0.01 1.94 -2.81 16.71 3.29 -0.17 -0.30 7718
0.33 -0.00 3.71 -2.12 15.71 3.53 -0.25 -0.45 7726
0.32 -0.01 3.22 -2.52 18.08 3.95 -0.36 -0.43 7732
0.20 -0.01 2.98 -3.02 16.44 4.10 -0.41 -0.49 7738
0.18 0.00 3.46 -3.35 17.21 4.27 -0.44 -0.58 7744
0.16 -0.01 2.99 -4.07 15.91 4.28 -0.42 -0.65 7750
0.14 -0.01 3.72 -5.29 17.59 4.28 -0.18 -0.65 7757
0.16 -0.00 4.74 -5.28 21.58 4.21 0.07 -0.64 7763
0.13 -0.01 4.58 -4.46 23.49 4.09 0.01 -0.72 7770
0.09 -0.01 4.12 -3.48 23.26 3.92 -0.11 -0.79 7776
0.10 -0.01 3.27 -1.73 23.38 3.61 -0.31 -0.84 7782
0.07 -0.01 2.75 -2.12 21.62 3.24 -0.51 -0.89 7789
0.04 -0.00 2.05 -0.23 18.09 3.11 -0.65 -0.95 7795
0.06 -0.01 2.25 5.75 16.34 3.01 -0.75 -1.01 7801
0.06 -0.01 4.54 12.12 13.65 2.66 -0.79 -1.07 7808
0.04 -0.00 3.89 19.36 12.48 2.00 -0.72 -1.22 7814
0.05 -0.01 6.22 12.73 8.26 1.28 -0.47 -1.44 7821
0.06 -0.01 5.87 14.47 11.35 0.62 -0.31 -1.55 7827
0.05 -0.00 4.09 14.20 10.77 0.12 -0.02 -1.66 7833
0.06 -0.01 3.17 12.10 8.46 -0.15 0.05 -1.77 7839
0.05 -0.01 2.60 10.51 6.27 -0.32 -0.08 -1.82 7845
0.04 -0.00 2.34 10.00 5.17 -0.43 -0.20 -1.83 7852
0.06 -0.01 2.88 9.28 4.59 -0.55 -0.32 -1.78 7859
0.06 -0.01 3.76 9.44 4.56 -0.68 -0.39 -1.78 7865
0.07 -0.01 4.47 8.90 4.58 -0.79 -0.38 -1.72 7871
0.07 -0.01 4.88 8.60 4.30 -0.91 -0.30 -1.64 7877
0.07 -0.01 4.96 8.29 4.66 -1.01 -0.17 -1.52 7883
0.06 -0.01 4.91 7.98 4.91 -1.14 -0.03 -1.37 7889
0.06 -0.01 4.69 7.60 5.53 -1.28 0.08 -1.19 7896
0.06 -0.01 4.50 7.14 6.50 -1.41 0.19 -0.99 7902
0.07 -0.01 4.39 6.57 7.17 -1.55 0.27 -0.81 7908
0.07 -0.01 4.23 5.92 7.75 -1.68 0.33 -0.58 7915
0.06 -0.01 4.12 5.26 8.21 -1.80 0.38 -0.36 7921
0.06 -0.01 4.07 4.53 8.55 -1.92 0.44 -0.15 7927
0.07 -0.01 3.94 3.66 8.86 -1.99 0.53 0.03 7933
0.06 -0.01 3.91 2.87 9.35 -2.05 0.57 0.20 7940
0.05 -0.00 3.67 1.94 10.37 -2.11 0.64 0.31 7946
0.05 -0.01 3.42 1.19 10.19 -2.14 0.69 0.42 7952
0.05 -0.01 3.17 0.60 10.67 -2.16 0.73 0.53 7959
0.05 -0.01 2.94 0.12 11.21 -2.17 0.75 0.62 7965
0.05 -0.01 2.75 -0.28 11.71 -2.17 0.77 0.72 7971
0.06 -0.01 2.60 -0.74 12.29 -2.18 0.78 0.81 7977
0.05 -0.01 2.49 -1.09 12.75 -2.19 0.77 0.91 7984
0.05 -0.00 2.40 -1.51 13.13 -2.20 0.71 0.98 7990
0.06 -0.01 2.41 -1.87 13.54 -2.21 0.70 1.05 7996
0.05 -0.00 2.53 -2.21 13.91 -2.23 0.67 1.13 8003
0.04 -0.00 2.69 -2.41 14.21 -2.25 0.65 1.14 8009
0.05 -0.00 2.95 -2.52 14.55 -2.28 0.67 1.18 8015
0.04 -0.00 3.06 -2.62 14.82 -2.34 0.71 1.22 8022
0.04 -0.00 3.17 -2.84 15.06 -2.41 0.78 1.24 8028
0.05 -0.00 3.11 -3.22 15.19 -2.48 0.86 1.26 8035
0.04 -0.00 3.02 -3.78 15.28 -2.54 0.91 1.26 8041
0.05 -0.00 2.83 -4.22 15.24 -2.59 0.94 1.26 8047
0.05 0.00 2.65 -4.74 15.08 -2.63 0.96 1.25 8053
0.05 -0.00 2.44 -5.27 14.71 -2.62 0.95 1.24 8059
0.04 -0.00 2.36 -5.65 14.41 -2.57 0.92 1.22 8066
0.05 0.00 2.47 -6.01 14.19 -2.50 0.87 1.19 8073
0.05 -0.01 2.70 -6.23 13.97 -2.41 0.82 1.14 8079
0.04 -0.00 2.89 -6.37 13.73 -2.30 0.78 1.09 8085
0.05 0.00 3.07 -6.48 13.38 -2.20 0.76 1.04 8091
0.05 -0.01 2.99 -6.66 13.10 -2.08 0.74 1.00 8097
0.05 -0.01 2.67 -6.79 12.59 -1.95 0.72 0.98 8103
0.04 0.00 2.35 -6.83 12.37 -1.79 0.66 0.97 8111
0.05 -0.00 2.01 -6.84 12.22 -1.67 0.57 0.97 8117
0.05 -0.00 1.93 -6.79 12.39 -1.50 0.50 0.99 8123
0.04 0.00 2.12 -6.56 12.70 -1.36 0.44 1.00 8129
0.06 -0.00 2.44 -6.24 12.83 -1.26 0.45 1.03 8135
0.04 -0.00 2.75 -5.90 13.33 -1.21 0.50 1.05 8142
0.04 0.00 3.01 -5.63 13.62 -1.22 0.62 1.08 8148
0.05 0.00 3.21 -5.42 13.99 -1.30 0.80 1.11 8155
0.05 -0.00 3.09 -5.48 13.98 -1.41 0.97 1.14 8161
0.05 -0.00 2.41 -5.84 13.86 -1.52 1.08 1.17 8167
0.06 -0.01 1.90 -6.25 13.26 -1.61 1.10 1.20 8173
0.04 -0.00 1.48 -6.79 12.54 -1.64 1.05 1.21 8180
0.04 -0.00 1.10 -7.26 11.72 -1.63 0.95 1.21 8186
0.05 -0.00 0.89 -7.77 11.17 -1.58 0.84 1.19 8193
0.04 -0.00 0.91 -8.27 10.47 -1.49 0.76 1.15 8199
0.04 -0.00 0.85 -8.61 9.73 -1.39 0.67 1.10 8205
0.05 0.01 0.71 -8.94 8.87 -1.24 0.63 1.01 8211
0.05 -0.00 0.31 -9.24 8.46 -1.07 0.66 0.99 8217
0.05 -0.00 -0.51 -9.50 8.36 -0.90 0.70 0.94 8224
0.05 -0.00 -1.33 -9.89 8.60 -0.74 0.70 0.87 8230
0.05 0.00 -1.89 -10.17 8.96 -0.63 0.60 0.79 8237
0.05 -0.01 -2.14 -10.51 9.39 -0.54 0.47 0.67 8243
0.03 -0.00 -2.02 -10.99 9.67 -0.52 0.32 0.53 8249
0.05 0.01 -1.47 -11.39 9.31 -0.52 0.23 0.37 8255
0.05 0.00 -0.67 -11.68 8.49 -0.54 0.16 0.18 8262
0.04 0.00 -0.10 -12.28 8.04 -0.54 0.15 -0.02 8268
0.06 -0.00 0.35 -13.14 7.48 -0.52 0.23 -0.18 8274
0.05 -0.01 0.60 -13.65 7.21 -0.47 0.33 -0.35 8281
0.04 -0.00 0.29 -13.73 6.96 -0.39 0.40 -0.52 8287
0.05 0.00 -0.32 -13.58 6.82 -0.31 0.44 -0.64 8294
0.05 -0.00 -0.79 -13.59 6.79 -0.23 0.43 -0.71 8300
0.04 -0.00 -6.13 -21.00 8.66 0.07 0.03 -0.71 8306
0.05 -0.00 -5.05 -14.06 7.59 0.78 -0.81 -0.70 8312
0.05 -0.01 -4.27 -14.57 2.77 0.81 -1.07 -0.62 8318
0.05 -0.00 -5.69 -18.04 7.68 1.04 -1.72 -0.46 8325
0.05 -0.00 -3.81 -18.29 6.70 1.38 -2.23 -0.29 8331
0.05 -0.01 -2.96 -18.17 6.90 1.57 -2.62 -0.17 8338
0.05 0.00 -1.97 -16.61 4.33 1.75 -2.86 0.04 8344
0.05 0.06 2.18 -6.01 5.37 1.96 -2.67 0.33 8350
0.07 0.15 3.73 2.57 6.64 2.20 -1.91 0.63 8356
0.04 0.44 1.27 -2.24 17.77 2.58 -1.48 0.91 8363
0.02 0.77 -5.85 3.51 23.05 2.90 -1.59 0.91 8370
0.02 1.00 -7.88 0.51 16.27 2.94 -1.74 0.52 8376
0.00 1.12 -4.98 -2.37 17.98 3.22 -1.63 0.02 8382
-0.00 1.15 -4.01 -4.21 21.41 3.37 -1.03 -0.20 8388
-0.01 1.15 -0.60 -4.79 31.25 3.09 -1.08 -0.46 8395
-0.01 1.16 3.82 -1.92 18.11 0.73 -1.33 -0.35 8401
0.01 1.13 2.37 -2.17 11.30 0.15 -0.47 0.05 8408
-0.01 1.12 1.16 -1.66 10.57 0.09 -0.23 0.13 8414
-0.01 1.09 0.52 -0.70 10.03 0.11 -0.21 0.16 8420
-0.00 1.04 0.23 -0.30 10.27 0.09 -0.16 0.11 8427
0.01 1.03 0.16 -0.57 10.14 0.03 -0.10 0.09 8433
0.01 1.02 0.63 -0.95 10.15 -0.01 -0.05 0.07 8439
0.03 1.02 0.84 -0.62 10.04 -0.03 -0.03 0.07 8445
0.01 1.06 0.77 -1.02 10.10 -0.03 -0.02 0.09 8452
0.01 1.09 0.63 -0.71 10.10 -0.03 -0.02 0.08 8459
0.01 1.10 0.59 -0.74 10.08 -0.03 -0.02 0.06 8465
0.01 1.15 0.68 -0.75 9.97 -0.03 -0.01 0.06 8471
0.02 1.14 0.78 -0.74 9.89 -0.03 -0.01 0.05 8477
0.04 1.15 0.68 -0.70 10.01 -0.03 -0.01 0.06 8483
0.04 1.14 0.69 -0.67 10.02 -0.02 -0.01 0.06 8489
0.04 1.12 0.66 -0.70 10.11 -0.03 -0.01 0.05 8497
0.03 1.12 0.66 -0.68 10.04 -0.02 -0.00 0.05 8503
0.01 1.09 0.01 -0.60 10.12 -0.01 0.00 0.05 8509
0.00 1.07 0.69 -0.69 10.06 -0.00 0.00 0.06 8515
0.06 1.03 0.74 -0.73 10.04 -0.00 -0.01 0.06 8521
0.03 1.01 0.74 -0.72 10.03 0.00 -0.01 0.07 8528
0.05 1.00 0.70 -0.69 10.00 0.00 -0.01 0.07 8535
0.08 0.96 0.70 -0.70 10.00 0.00 -0.02 0.07 8541
0.09 0.88 0.75 -0.69 10.02 0.01 -0.02 0.07 8547
0.09 0.84 0.76 -0.72 9.94 0.01 -0.03 0.07 8553
0.11 0.83 0.75 -0.69 10.01 0.01 -0.03 0.07 8559
0.09 0.79 0.75 -0.69 10.05 0.02 -0.03 0.07 8566
0.09 0.79 0.74 -0.73 10.04 0.02 -0.03 0.07 8572
0.10 0.72 0.74 -0.71 9.94 0.02 -0.03 0.07 8579
0.10 0.66 0.73 -0.70 9.96 0.02 -0.03 0.06 8585
0.09 0.62 0.75 -0.71 9.98 0.02 -0.04 0.06 8591
0.10 0.58 0.77 -0.72 10.01 0.02 -0.03 0.05 8597
0.12 0.54 0.74 -0.72 9.93 0.02 -0.04 0.05 8603
0.11 0.53 0.72 -0.74 9.97 0.01 -0.04 0.05 8610
0.11 0.50 0.72 -0.74 10.00 0.01 -0.04 0.05 8616
0.14 0.46 0.74 -0.72 10.05 0.01 -0.04 0.06 8623
0.15 0.42 0.71 -0.75 9.98 0.01 -0.04 0.05 8629
0.14 0.42 0.68 -0.73 9.98 0.01 -0.04 0.05 8635
0.17 0.40 0.72 -0.74 10.01 0.01 -0.03 0.05 8641
0.18 0.37 0.70 -0.76 9.99 0.01 -0.04 0.05 8648
0.16 0.33 0.70 -0.75 9.98 0.01 -0.03 0.05 8654
0.17 0.35 0.72 -0.73 9.98 0.01 -0.03 0.05 8660
0.17 0.35 0.73 -0.75 9.96 0.01 -0.03 0.05 8667
0.18 0.31 0.76 -0.75 9.96 0.01 -0.02 0.05 8673
0.18 0.30 0.73 -0.76 10.04 0.01 -0.03 0.05 8679
0.19 0.29 0.75 -0.76 9.91 0.01 -0.03 0.04 8685
0.18 0.26 0.77 -0.74 9.99 0.00 -0.03 0.04 8692
0.18 0.24 0.72 -0.75 9.93 0.00 -0.03 0.04 8698
0.20 0.22 0.79 -0.76 9.96 0.00 -0.03 0.04 8705
0.19 0.23 0.75 -0.75 9.98 -0.00 -0.03 0.04 8711
0.20 0.21 0.73 -0.79 10.00 0.00 -0.03 0.03 8717
0.20 0.23 0.73 -0.73 10.04 -0.00 -0.02 0.04 8723
0.21 0.22 0.69 -0.75 10.00 0.00 -0.02 0.04 8730
0.21 0.18 0.72 -0.80 9.97 0.00 -0.02 0.03 8736
0.23 0.18 0.74 -0.78 10.01 -0.00 -0.02 0.03 8742
0.25 0.16 0.75 -0.80 9.95 0.00 -0.01 0.03 8749
0.25 0.13 0.71 -0.80 9.95 0.00 -0.01 0.04 8755
0.25 0.16 0.70 -0.74 9.91 0.00 -0.01 0.03 8761
0.26 0.13 0.76 -0.78 9.98 0.00 -0.01 0.03 8767
0.27 0.11 0.76 -0.82 9.97 0.00 -0.01 0.03 8774
0.28 0.08 0.79 -0.75 9.88 0.00 -0.01 0.03 8780
0.29 0.06 0.79 -0.81 10.04 0.00 -0.01 0.03 8786
0.32 0.05 0.78 -0.74 9.92 -0.00 -0.01 0.03 8793
0.30 0.07 0.80 -0.76 9.97 0.00 -0.01 0.02 8799
0.31 0.06 0.81 -0.80 10.08 0.00 -0.01 0.02 8805
0.35 0.05 0.80 -0.81 10.02 0.01 -0.01 0.02 8811
0.37 0.03 0.82 -0.86 9.96 0.01 -0.01 0.02 8818
0.38 0.01 0.86 -0.81 10.04 0.02 -0.02 0.02 8824
0.40 -0.00 0.77 -0.82 10.08 0.03 -0.01 0.01 8830
0.44 -0.00 0.81 -0.78 10.05 0.04 -0.01 0.01 8837
0.49 -0.01 0.75 -0.81 10.13 0.05 -0.01 0.02 8843
0.53 -0.02 0.83 -0.57 10.16 0.07 0.01 0.01 8849
0.59 -0.04 0.80 -0.77 10.09 0.09 0.02 0.01 8856
0.63 -0.05 0.87 -0.90 10.21 0.13 0.04 0.00 8862
0.64 -0.03 0.94 -0.83 10.35 0.18 0.06 -0.01 8868
0.70 -0.04 1.01 -0.93 10.33 0.23 0.08 -0.01 8875
0.75 -0.05 1.12 -0.90 10.51 0.33 0.13 -0.04 8881
0.76 -0.04 1.06 -0.93 10.67 0.49 0.20 -0.06 8888
0.81 -0.05 1.12 -1.00 11.25 0.76 0.32 -0.09 8894
0.83 -0.04 1.02 -0.97 12.33 1.15 0.46 -0.12 8900
0.83 -0.04 1.15 -0.99 12.93 1.57 0.55 -0.14 8906
0.85 -0.05 1.02 -1.16 13.25 1.88 0.48 -0.16 8913
0.84 -0.04 1.10 -1.09 14.13 2.12 0.35 -0.16 8920
0.85 -0.05 1.48 -1.38 14.26 2.30 0.20 -0.18 8926
0.80 -0.05 1.74 -1.66 13.76 2.49 0.06 -0.22 8932
0.75 -0.02 1.74 -2.06 14.25 2.71 -0.03 -0.29 8938
0.70 -0.03 1.46 -1.85 14.25 2.94 -0.06 -0.31 8945
0.63 -0.02 0.69 -1.73 15.48 3.24 -0.06 -0.31 8951
0.58 -0.01 1.20 -2.42 14.49 3.38 -0.03 -0.39 8957
0.50 -0.01 1.77 -2.03 16.67 3.71 -0.11 -0.33 8964
0.39 -0.01 2.63 -2.80 16.32 3.95 -0.08 -0.34 8971
0.34 0.00 2.44 -3.34 17.53 4.17 -0.23 -0.41 8977
0.26 -0.02 3.55 -4.12 16.70 4.28 -0.39 -0.46 8983
0.20 0.01 3.32 -4.26 17.71 4.28 -0.63 -0.54 8989
0.17 0.00 3.71 -5.99 17.21 4.28 -0.54 -0.58 8995
0.16 -0.01 3.85 -6.58 19.61 4.28 -0.36 -0.61 9003
0.14 0.00 3.04 -6.80 21.50 4.28 -0.14 -0.62 9009
0.15 -0.00 2.50 -6.62 22.43 4.24 -0.02 -0.61 9015
0.11 -0.01 2.45 -4.84 23.37 4.11 -0.10 -0.66 9021
0.12 -0.01 2.07 -3.21 24.57 3.79 -0.48 -0.70 9028
0.08 -0.01 2.28 -2.04 23.34 3.44 -0.98 -0.75 9034
0.07 -0.01 3.01 -0.57 18.93 3.21 -1.38 -0.77 9040
0.08 -0.01 2.79 5.53 17.43 3.11 -1.45 -0.79 9047
0.06 -0.01 3.07 8.23 13.18 3.11 -1.01 -0.85 9053
0.06 -0.01 5.36 21.66 11.97 2.76 -1.03 -0.94 9059
0.07 -0.01 4.21 22.51 9.84 2.07 -0.97 -1.33 9066
0.05 -0.01 5.13 16.35 9.94 1.06 -0.88 -1.60 9072
0.04 -0.00 3.60 18.38 12.37 0.15 -0.59 -1.72 9078
0.06 -0.01 2.58 17.38 10.67 -0.52 -0.19 -1.88 9084
0.06 -0.01 2.18 14.27 8.36 -0.90 -0.15 -2.05 9091
0.05 -0.01 1.46 11.66 6.75 -1.06 -0.29 -2.20 9098
0.07 -0.01 1.21 10.49 5.43 -1.19 -0.42 -2.23 9104
0.07 -0.01 1.69 10.43 4.53 -1.29 -0.51 -2.25 9110
0.08 -0.01 2.40 9.88 4.58 -1.39 -0.55 -2.21 9116
0.07 -0.01 3.24 9.30 4.99 -1.50 -0.52 -2.15 9122
0.07 -0.01 4.10 8.86 5.72 -1.63 -0.40 -2.06 9128
0.06 -0.01 4.61 8.50 6.30 -1.76 -0.21 -1.93 9135
0.06 -0.01 4.83 8.17 7.20 -1.95 -0.03 -1.76 9141
0.07 -0.01 4.91 7.80 7.88 -2.17 0.21 -1.60 9148
0.05 -0.01 4.73 7.22 8.27 -2.38 0.42 -1.38 9154
0.05 -0.01 4.56 5.95 8.75 -2.55 0.59 -1.13 9160
0.05 -0.01 4.21 4.67 9.20 -2.68 0.70 -0.87 9166
0.07 -0.01 3.92 3.56 9.44 -2.73 0.77 -0.59 9172
0.06 -0.01 3.81 2.39 9.82 -2.75 0.81 -0.33 9179
0.06 -0.01 3.73 1.54 10.15 -2.73 0.84 -0.09 9185
0.06 -0.01 3.64 0.67 10.54 -2.68 0.87 0.11 9191
0.06 -0.01 3.56 -0.22 11.54 -2.63 0.90 0.31 9198
0.06 -0.01 3.44 -0.88 11.65 -2.59 0.92 0.49 9204
0.06 -0.00 3.25 -1.22 12.29 -2.55 0.95 0.64 9210
0.06 -0.01 3.10 -1.50 12.95 -2.54 1.00 0.78 9217
0.05 -0.01 2.95 -1.69 13.57 -2.54 1.08 0.92 9223
0.05 -0.01 2.85 -2.04 14.00 -2.55 1.19 1.04 9229
0.07 -0.01 2.74 -2.44 14.66 -2.58 1.29 1.15 9236
0.06 -0.01 2.53 -2.76 15.00 -2.60 1.39 1.25 9242
0.05 -0.01 2.18 -3.05 15.29 -2.62 1.42 1.33 9248
0.06 0.01 1.82 -3.38 15.44 -2.63 1.46 1.39 9254
0.06 -0.01 1.60 -3.89 15.66 -2.63 1.48 1.44 9261
0.04 -0.00 1.38 -4.49 15.86 -2.61 1.46 1.45 9268
0.06 -0.01 1.05 -5.00 16.00 -2.59 1.41 1.44 9274
0.05 -0.01 0.75 -5.48 16.00 -2.56 1.33 1.40 9280
0.04 -0.00 0.44 -5.84 15.84 -2.53 1.23 1.34 9286
0.05 -0.00 0.40 -6.02 15.42 -2.49 1.13 1.26 9292
0.05 -0.01 0.43 -6.20 14.98 -2.45 1.05 1.18 9298
0.05 -0.00 0.61 -6.37 14.53 -2.39 0.97 1.09 9306
0.05 -0.00 0.80 -6.61 14.29 -2.31 0.94 1.00 9312
0.06 -0.01 0.78 -6.86 13.89 -2.21 0.90 0.91 9318
0.05 -0.01 0.78 -6.90 14.00 -2.09 0.84 0.81 9324
0.05 -0.00 0.75 -7.03 13.72 -1.97 0.76 0.76 9330
0.06 -0.01 0.86 -6.93 13.62 -1.85 0.70 0.71 9336
0.05 -0.00 1.07 -6.93 13.49 -1.74 0.67 0.67 9342
0.05 -0.01 1.35 -6.79 13.21 -1.65 0.67 0.64 9350
0.06 -0.01 1.49 -6.67 13.06 -1.59 0.70 0.64 9356
0.05 -0.00 1.47 -6.56 13.03 -1.52 0.74 0.66 9362
0.04 -0.00 1.27 -6.41 13.05 -1.47 0.78 0.69 9368
0.05 -0.00 0.92 -6.32 13.06 -1.43 0.80 0.74 9374
0.05 -0.01 0.59 -6.31 13.13 -1.41 0.81 0.79 9380
0.04 -0.00 0.19 -6.24 12.97 -1.40 0.83 0.84 9388
0.05 -0.01 -0.45 -6.29 12.62 -1.40 0.85 0.89 9394
0.05 -0.01 -1.09 -6.48 12.16 -1.40 0.86 0.93 9400
0.05 -0.00 -1.78 -6.77 11.95 -1.39 0.85 0.95 9406
0.05 -0.01 -2.24 -7.26 11.72 -1.37 0.79 0.94 9412
0.06 -0.01 -2.55 -7.84 11.49 -1.35 0.68 0.90 9418
0.05 -0.01 -2.57 -8.37 10.88 -1.31 0.55 0.85 9425
0.05 -0.00 -2.32 -8.92 10.29 -1.25 0.41 0.80 9432
0.06 -0.01 -1.93 -9.63 9.75 -1.14 0.34 0.74 9438
0.05 -0.01 -1.45 -10.08 9.11 -1.02 0.25 0.65 9444
0.04 -0.00 -0.84 -10.61 8.06 -0.88 0.19 0.59 9450
0.05 -0.00 -0.16 -11.07 8.19 -0.73 0.18 0.49 9456
0.05 -0.00 0.39 -11.50 8.02 -0.58 0.23 0.38 9463
0.04 -0.00 0.19 -11.56 8.24 -0.47 0.29 0.27 9469
0.06 -0.00 -0.27 -11.47 8.80 -0.40 0.33 0.17 9476
0.05 -0.00 -0.92 -11.30 9.21 -0.37 0.33 0.08 9482
0.04 -0.00 -1.55 -11.21 9.18 -0.38 0.28 -0.00 9488
0.05 -0.00 -1.72 -11.23 8.61 -0.41 0.25 -0.06 9494
0.05 -0.01 -1.79 -11.29 8.05 -0.43 0.22 -0.11 9501
0.04 -0.00 -1.86 -11.48 7.66 -0.44 0.19 -0.14 9507
0.05 0.00 -1.71 -12.24 7.65 -0.41 0.19 -0.20 9513
0.05 -0.01 -1.45 -11.69 7.63 -0.38 0.15 -0.19 9520
0.05 -0.00 -1.36 -11.57 7.70 -0.33 0.08 -0.22 9526
0.05 -0.01 -3.50 -23.49 21.62 0.24 -0.46 -0.28 9533
0.05 -0.01 -1.18 -9.68 -1.65 0.62 -0.62 -0.35 9539
0.05 -0.01 -1.77 -15.17 1.43 0.65 -1.07 -0.38 9545
0.05 -0.01 -1.60 -16.84 8.94 1.19 -1.48 -0.46 9551
0.05 -0.01 -1.97 -18.36 4.14 1.31 -1.62 -0.48 9558
0.05 -0.00 -2.55 -18.73 1.65 1.53 -1.68 -0.41 9564
0.05 0.04 -1.20 -19.83 0.20 1.77 -1.67 -0.22 9571
0.05 0.09 0.76 -9.34 4.72 2.17 -1.54 0.04 9577
0.03 0.38 2.51 -1.31 14.64 2.87 -1.49 0.17 9583
0.02 0.68 -1.46 -2.98 24.59 3.55 -1.52 0.14 9589
0.00 1.02 -2.95 0.21 24.61 3.62 -1.62 -0.02 9595
-0.01 1.07 -1.04 -0.92 21.33 3.37 -1.42 -0.17 9603
-0.01 1.18 -0.18 -3.46 31.13 3.42 -1.19 -0.32 9609
-0.01 1.17 0.11 -2.40 20.82 1.37 -1.51 -0.26 9615
-0.01 1.21 1.08 -3.29 11.54 0.11 -0.33 0.03 9621
0.01 1.22 0.42 -2.96 10.55 -0.04 -0.03 0.09 9628
0.00 1.26 0.70 -1.20 10.23 -0.06 0.02 0.10 9634
0.00 1.29 0.73 -0.29 9.83 -0.01 0.00 0.08 9640
0.02 1.28 0.87 -0.45 9.94 0.02 -0.01 0.07 9647
-0.00 1.26 0.79 -0.78 9.91 0.01 -0.00 0.09 9653
-0.01 1.23 0.67 -1.13 10.13 -0.01 0.01 0.09 9659
0.02 1.26 0.56 -1.14 10.19 -0.02 0.02 0.09 9666
0.01 1.28 0.01 -0.91 10.14 -0.02 0.02 0.08 9672
-0.01 1.26 0.73 -0.86 9.97 -0.03 0.02 0.08 9678
0.00 1.29 0.76 -0.84 10.01 -0.03 0.01 0.07 9684
0.00 1.29 0.73 -0.78 9.83 -0.03 0.00 0.07 9691
0.01 1.26 0.73 -0.79 9.85 -0.02 0.00 0.07 9697
0.00 1.26 0.75 -0.79 9.94 -0.02 0.00 0.06 9703
0.03 1.26 0.79 -0.73 10.01 -0.02 0.00 0.06 9710
0.04 1.24 0.74 -0.74 9.87 -0.01 0.00 0.06 9716
0.02 1.21 0.73 -0.76 9.92 -0.01 0.01 0.06 9722
0.03 1.20 0.74 -0.75 10.04 -0.00 0.01 0.06 9729
0.03 1.16 0.77 -0.81 10.05 -0.00 0.01 0.06 9735
0.03 1.12 0.73 -0.78 9.88 0.00 0.00 0.06 9741
0.03 1.08 0.76 -0.81 10.05 0.00 -0.00 0.07 9748
0.02 1.03 0.65 -0.74 10.03 0.01 -0.01 0.07 9754
-0.00 1.03 0.69 -0.79 10.04 0.01 -0.01 0.07 9760
0.01 0.99 0.68 -0.73 9.98 0.01 -0.01 0.07 9766
0.01 0.97 0.69 -0.78 10.00 0.01 0.00 0.07 9773
0.02 0.90 0.73 -0.78 9.91 0.01 -0.00 0.07 9779
0.03 0.86 0.70 -0.73 10.01 0.01 0.03 0.07 9786
0.05 0.79 0.74 -0.77 9.99 0.01 0.00 0.06 9792
0.04 0.76 0.74 -0.77 9.97 0.01 -0.00 0.03 9798
0.04 0.74 0.74 -0.76 9.94 0.01 0.00 0.06 9804
0.05 0.71 0.72 -0.77 9.95 0.02 0.00 0.06 9810
0.06 0.63 0.75 -0.83 9.97 0.01 -0.00 0.06 9817
0.05 0.58 0.80 -0.80 9.94 0.01 -0.00 0.06 9823
0.05 0.57 0.78 -0.78 9.94 0.01 -0.01 0.06 9829
0.05 0.59 0.82 -0.80 9.99 0.01 -0.01 0.05 9836
0.04 0.60 0.78 -0.80 9.97 0.00 -0.01 0.06 9842
0.06 0.53 0.77 -0.78 9.98 0.01 -0.01 0.05 9848
0.05 0.55 0.76 -0.77 9.94 0.00 -0.02 0.06 9854
0.08 0.51 0.76 -0.82 9.97 0.01 -0.02 0.06 9861
0.08 0.48 0.82 -0.77 9.95 0.00 -0.02 0.05 9867
0.07 0.48 0.74 -0.77 9.95 0.00 -0.03 0.06 9873
0.07 0.49 0.81 -0.77 9.84 0.00 -0.03 0.06 9879
0.09 0.42 0.80 -0.77 9.98 0.00 -0.03 0.05 9886
0.09 0.44 0.75 -0.79 9.93 0.00 -0.03 0.05 9892
0.10 0.38 0.79 -0.82 9.94 -0.00 -0.04 0.05 9899
0.12 0.40 0.80 -0.79 9.97 -0.00 -0.05 0.05 9905
0.12 0.35 0.82 -0.78 10.03 -0.00 -0.05 0.05 9911
0.10 0.36 0.77 -0.80 9.95 -0.01 -0.06 0.05 9917
0.12 0.34 0.78 -0.80 9.97 -0.01 -0.06 0.05 9923
0.12 0.36 0.77 -0.80 9.99 -0.01 -0.06 0.04 9930
0.11 0.32 0.76 -0.83 9.94 -0.01 -0.06 0.04 9936
0.13 0.34 0.77 -0.82 9.99 -0.01 -0.06 0.05 9943
0.15 0.28 0.72 -0.80 10.01 -0.01 -0.06 0.04 9949
0.16 0.24 0.75 -0.82 9.96 -0.01 -0.05 0.04 9955
0.18 0.22 0.75 -0.80 9.97 -0.01 -0.04 0.04 9961
0.19 0.23 0.80 -0.83 10.10 -0.01 -0.03 0.05 9968
0.18 0.23 0.76 -0.82 9.94 0.00 -0.03 0.05 9974
0.19 0.20 0.78 -0.79 10.02 0.00 -0.02 0.05 9980
0.20 0.24 0.77 -0.80 9.94 0.00 -0.01 0.05 9987
0.20 0.19 0.77 -0.79 9.94 0.01 -0.01 0.04 9993
0.20 0.16 0.79 -0.81 9.97 0.01 -0.01 0.04 9999
0.20 0.16 0.74 -0.79 9.96 0.01 -0.01 0.04 10005
0.24 0.15 0.79 -0.85 9.96 0.01 -0.00 0.04 10012
0.26 0.09 0.79 -0.80 9.95 0.00 -0.00 0.04 10018
0.25 0.13 0.80 -0.83 9.88 0.01 -0.00 0.04 10024
0.27 0.07 0.78 -0.80 9.94 0.01 0.00 0.03 10031
0.28 0.05 0.81 -0.85 9.94 0.01 0.00 0.04 10037
0.27 0.05 0.80 -0.82 9.89 0.01 0.00 0.04 10043
0.30 0.04 0.81 -0.88 9.98 0.02 0.00 0.04 10050
0.31 0.02 0.78 -0.84 9.97 0.02 0.01 0.03 10056
0.32 0.00 0.77 -0.82 9.91 0.02 0.00 0.04 10062
0.32 0.01 0.79 -0.82 9.96 0.03 0.01 0.03 10068
0.35 0.00 0.76 -0.82 10.03 0.03 0.01 0.03 10075
0.36 -0.00 0.80 -0.85 10.05 0.04 0.01 0.04 10081
0.40 -0.01 1.13 -0.63 10.12 0.04 0.02 0.03 10088
0.47 -0.02 0.87 -0.80 10.33 0.06 0.02 0.03 10094
0.48 -0.02 0.91 -0.84 9.93 0.08 0.03 0.03 10100
0.53 -0.04 0.88 -0.86 10.12 0.11 0.04 0.02 10106
0.54 -0.04 0.95 -0.95 10.17 0.14 0.06 0.01 10114
0.60 -0.03 0.95 -0.90 10.28 0.20 0.09 -0.00 10120
0.62 -0.04 1.04 -0.93 10.29 0.28 0.15 -0.02 10126
0.68 -0.04 1.13 -1.04 10.58 0.45 0.24 -0.04 10132
0.72 -0.04 1.13 -1.14 11.33 0.72 0.38 -0.06 10139
0.77 -0.05 1.19 -1.14 11.72 1.06 0.54 -0.09 10145
0.80 -0.04 1.45 -1.15 12.04 1.42 0.63 -0.13 10151
0.82 -0.04 1.14 -1.22 12.71 1.71 0.65 -0.17 10158
0.79 -0.03 1.08 -1.46 13.34 1.91 0.55 -0.18 10165
0.81 -0.04 1.38 -1.42 13.63 2.08 0.41 -0.17 10171
0.80 -0.04 1.87 -1.81 13.26 2.21 0.24 -0.21 10177
0.78 -0.03 1.83 -1.82 13.91 2.44 0.07 -0.23 10184
0.73 -0.04 1.30 -1.72 14.74 2.70 -0.02 -0.29 10190
0.68 -0.02 2.04 -4.12 13.61 2.92 -0.02 -0.35 10196
0.65 -0.03 0.72 -1.67 15.93 3.25 -0.11 -0.37 10203
0.59 -0.02 1.67 -1.97 15.13 3.54 -0.05 -0.30 10210
0.48 -0.02 1.49 -2.55 15.99 3.82 -0.00 -0.31 10216
0.40 -0.02 1.60 -3.71 17.75 4.17 -0.07 -0.32 10222
0.33 0.00 2.77 -2.89 18.21 4.28 -0.04 -0.37 10228
0.29 -0.00 2.58 -3.40 15.69 4.28 -0.22 -0.41 10235
0.22 -0.01 2.84 -4.39 16.55 4.28 -0.24 -0.45 10242
0.22 -0.01 3.21 -5.90 17.00 4.28 -0.27 -0.51 10248
0.23 -0.01 3.83 -7.10 18.75 4.28 -0.26 -0.55 10254
0.20 -0.01 4.04 -8.16 20.62 4.28 -0.09 -0.58 10261
0.14 -0.01 4.06 -7.76 22.00 4.28 0.16 -0.56 10267
0.11 -0.01 3.66 -5.44 22.89 4.18 0.25 -0.56 10273
0.13 -0.01 3.19 -3.76 24.16 3.96 0.03 -0.63 10279
0.10 -0.01 2.53 -2.85 23.65 3.59 -0.34 -0.69 10287
0.08 -0.01 2.91 -1.08 18.61 3.33 -0.63 -0.74 10293
0.08 -0.01 4.13 4.94 15.06 3.11 -0.75 -0.74 10299
0.05 -0.01 3.25 4.70 13.43 3.09 -0.37 -0.74 10305
0.07 -0.01 5.24 12.61 12.48 2.89 -0.19 -0.74 10312
0.05 -0.01 5.48 30.29 10.71 2.24 -0.19 -1.01 10318
0.05 0.00 3.19 17.74 13.21 1.01 -0.07 -1.39 10324
0.05 -0.00 3.95 17.48 15.11 -0.34 0.06 -1.53 10331
0.04 -0.00 1.67 18.68 12.52 -1.22 0.28 -1.67 10338
0.04 -0.00 0.42 15.32 9.57 -1.54 0.19 -1.89 10344
0.04 -0.00 0.03 12.45 6.81 -1.50 -0.10 -2.06 10350
0.05 -0.00 0.21 9.81 5.11 -1.40 -0.28 -2.10 10356
0.08 -0.01 1.23 9.98 4.64 -1.40 -0.44 -2.13 10362
0.06 -0.01 2.28 10.35 4.32 -1.43 -0.56 -2.16 10370
0.05 -0.00 3.56 9.73 4.92 -1.50 -0.62 -2.16 10376
0.07 -0.00 4.26 9.27 5.27 -1.63 -0.58 -2.11 10382
0.07 -0.01 4.76 8.79 6.46 -1.79 -0.48 -2.01 10388
0.07 -0.01 5.02 7.87 7.72 -1.98 -0.36 -1.87 10394
0.08 -0.01 5.11 8.84 7.54 -2.15 -0.20 -1.67 10400
0.06 -0.01 5.05 7.17 8.47 -2.27 0.02 -1.43 10407
0.06 -0.01 5.40 5.99 8.83 -2.42 0.14 -1.18 10414
0.07 -0.01 5.57 5.30 9.15 -2.54 0.25 -0.90 10420
0.06 -0.01 5.69 4.38 9.67 -2.61 0.34 -0.71 10426
0.04 -0.00 5.63 3.50 10.11 -2.68 0.44 -0.45 10432
0.05 -0.00 5.62 2.76 10.80 -2.75 0.55 -0.19 10438
0.05 -0.00 5.57 1.96 11.42 -2.82 0.66 0.06 10445
0.03 -0.00 5.38 1.30 12.08 -2.89 0.76 0.30 10451
0.05 0.00 5.09 0.46 12.50 -2.95 0.86 0.52 10458
0.04 -0.00 4.75 -0.33 12.90 -2.99 0.94 0.71 10464
0.04 -0.00 4.39 -1.10 13.18 -3.02 1.01 0.87 10470
0.06 -0.01 4.00 -2.00 13.35 -3.03 1.05 1.01 10477
0.04 -0.00 3.77 -2.85 13.74 -3.01 1.10 1.12 10483
0.04 -0.00 3.63 -3.68 14.01 -2.97 1.10 1.21 10489
0.05 -0.01 3.41 -4.26 14.28 -2.91 1.11 1.27 10496
0.04 -0.00 3.25 -4.68 14.36 -2.84 1.12 1.31 10503
0.05 0.00 3.05 -5.00 14.77 -2.76 1.11 1.33 10509
0.06 -0.01 3.02 -5.22 15.21 -2.68 1.11 1.33 10515
0.04 -0.00 3.01 -5.36 15.74 -2.61 1.07 1.32 10521
0.05 -0.01 3.02 -5.21 16.15 -2.57 1.05 1.30 10527
0.05 -0.00 3.10 -5.21 16.40 -2.55 1.03 1.29 10534
0.05 -0.00 3.18 -5.27 16.35 -2.56 1.03 1.28 10541
0.06 -0.01 3.27 -5.55 16.20 -2.57 1.04 1.26 10547
0.06 -0.01 3.36 -5.90 16.05 -2.57 1.06 1.23 10553
0.06 -0.01 3.25 -6.17 15.74 -2.55 1.06 1.20 10559
0.07 -0.00 3.08 -6.33 15.37 -2.52 1.03 1.17 10566
0.06 -0.01 2.68 -6.44 15.24 -2.47 0.98 1.12 10572
0.06 0.00 2.31 -6.63 15.00 -2.40 0.89 1.08 10578
0.06 -0.01 2.05 -6.71 14.58 -2.33 0.80 1.03 10585
0.06 -0.01 1.88 -6.76 14.40 -2.24 0.70 0.96 10592
0.07 0.00 1.88 -6.83 14.14 -2.19 0.63 0.89 10598
0.06 -0.01 1.84 -6.88 13.88 -2.11 0.57 0.81 10604
0.06 -0.00 1.68 -7.01 13.78 -2.01 0.52 0.74 10610
0.07 -0.00 1.51 -7.10 13.59 -1.89 0.47 0.67 10617
0.07 -0.01 1.32 -7.25 13.31 -1.76 0.43 0.60 10624
0.07 0.00 1.12 -7.45 12.94 -1.62 0.35 0.55 10630
0.07 -0.01 1.07 -7.65 12.60 -1.46 0.33 0.51 10636
0.06 -0.01 1.03 -7.70 12.36 -1.32 0.33 0.48 10642
0.09 -0.00 0.84 -7.50 12.06 -1.20 0.43 0.49 10649
0.07 -0.01 0.50 -7.30 12.07 -1.14 0.64 0.56 10655
0.08 -0.01 0.01 -7.22 12.18 -1.12 0.89 0.63 10661
0.09 -0.00 -0.65 -7.42 12.24 -1.13 1.10 0.69 10668
0.08 -0.01 -1.56 -7.86 12.06 -1.16 1.22 0.79 10675
0.08 0.00 -2.47 -8.42 11.57 -1.17 1.26 0.91 10681
0.07 -0.01 -2.98 -9.21 11.08 -1.16 1.18 1.02 10687
0.07 -0.01 -3.12 -10.01 10.77 -1.11 1.02 1.10 10693
0.09 -0.00 -2.80 -10.78 10.46 -1.05 0.82 1.13 10700
0.07 -0.01 -2.20 -11.38 9.81 -0.97 0.66 1.13 10706
0.08 0.00 -1.84 -11.84 9.18 -0.92 0.57 1.09 10713
0.07 -0.01 -1.92 -12.21 8.84 -0.88 0.54 1.02 10719
0.07 -0.01 -2.40 -12.50 8.56 -0.84 0.55 0.94 10725
0.08 -0.00 -3.02 -12.99 8.20 -0.79 0.55 0.85 10732
0.08 -0.01 -3.81 -13.54 7.52 -0.72 0.50 0.74 10738
0.07 -0.01 -4.23 -13.97 6.93 -0.61 0.39 0.62 10744
0.08 -0.01 -4.49 -14.33 6.63 -0.45 0.22 0.50 10750
0.07 -0.01 -4.62 -14.23 6.61 -0.28 0.02 0.37 10758
0.08 0.01 -4.12 -13.92 6.75 -0.12 -0.18 0.26 10764
0.07 -0.00 -3.27 -13.42 7.14 -0.02 -0.34 0.15 10770
0.07 -0.01 -2.67 -14.07 7.16 0.10 -0.45 0.05 10776
0.09 -0.00 -2.16 -17.03 25.28 0.68 -0.83 -0.15 10783
0.07 -0.01 -1.98 -10.99 2.13 0.88 -0.65 -0.24 10789
0.07 0.00 -1.09 -16.66 6.41 1.15 -1.09 -0.41 10796
0.06 -0.01 -2.27 -18.43 7.95 1.41 -1.32 -0.59 10802
0.06 -0.01 -2.90 -18.06 3.90 1.62 -1.59 -0.73 10809
0.07 0.01 -2.11 -17.67 1.99 1.78 -1.80 -0.79 10815
0.06 0.04 -0.76 -16.38 0.57 2.02 -1.81 -0.76 10821
0.05 0.17 3.87 -2.95 5.71 2.46 -1.70 -0.66 10827
0.03 0.48 5.10 -2.97 17.34 3.13 -1.67 -0.52 10834
0.01 0.79 3.48 -1.25 25.76 3.73 -1.74 -0.40 10841
0.03 0.98 1.86 -0.81 20.51 3.70 -1.60 -0.31 10847
0.02 1.07 2.39 -2.96 21.41 3.64 -1.36 -0.20 10853
0.01 1.09 0.56 -6.40 36.82 3.73 -1.75 -0.14 10860
0.01 1.18 1.04 -1.20 18.50 1.34 -1.75 -0.03 10866
-0.00 1.14 0.25 -3.51 13.48 0.27 -0.40 0.17 10872
-0.01 1.13 -0.06 -1.93 11.13 0.01 -0.07 0.13 10878
0.00 1.08 0.46 -0.87 10.13 -0.02 -0.02 0.09 10886
0.00 1.11 0.75 -0.35 9.99 0.01 -0.02 0.07 10892
0.00 1.06 0.97 -0.57 10.00 0.03 -0.02 0.09 10898
0.01 1.01 0.88 -0.80 9.97 0.00 -0.00 0.10 10904
0.08 1.00 0.72 -1.07 10.05 -0.02 0.01 0.09 10910
0.07 1.00 0.68 -1.03 10.08 -0.02 0.02 0.09 10917
0.07 1.04 0.65 -0.86 9.95 -0.03 0.03 0.08 10924
0.03 1.06 0.80 -0.78 10.04 -0.03 0.03 0.08 10930
0.01 1.06 0.82 -0.73 9.98 -0.03 0.03 0.08 10936
0.02 1.03 0.86 -0.72 9.92 -0.02 0.03 0.08 10942
0.03 1.07 0.86 -0.76 10.03 -0.02 0.03 0.08 10949
0.01 1.05 0.81 -0.75 9.99 -0.02 0.04 0.07 10955
0.01 1.03 0.82 -0.72 10.00 -0.02 0.04 0.07 10961
0.03 1.00 0.80 -0.69 10.17 -0.01 0.05 0.07 10968
0.02 0.97 0.85 -0.74 9.99 -0.01 0.05 0.06 10974
0.02 0.98 0.91 -0.72 10.03 -0.00 0.05 0.06 10981
0.06 0.91 0.86 -0.71 10.02 0.00 0.04 0.07 10987
0.06 0.87 0.83 -0.77 9.96 0.01 0.04 0.07 10993
0.04 0.87 0.90 -0.69 9.92 0.01 0.03 0.07 10999
0.06 0.80 0.88 -0.74 10.02 0.01 0.02 0.07 11006
0.05 0.78 0.86 -0.70 10.00 0.01 0.02 0.07 11013
0.07 0.75 0.88 -0.68 9.98 0.02 0.01 0.07 11019
0.08 0.73 0.91 -0.69 9.96 0.02 0.01 0.07 11025
0.07 0.69 0.89 -0.74 9.94 0.03 -0.00 0.07 11031
0.07 0.64 0.91 -0.72 9.92 0.03 -0.01 0.06 11037
0.08 0.57 0.94 -0.76 9.97 0.03 -0.01 0.06 11044
0.08 0.57 0.89 -0.73 9.94 0.03 -0.02 0.06 11051
0.06 0.52 0.92 -0.73 9.93 0.03 -0.03 0.06 11057
0.07 0.48 0.92 -0.74 9.92 0.02 -0.03 0.05 11063
0.05 0.46 0.90 -0.77 9.96 0.02 -0.03 0.05 11069
0.08 0.45 0.89 -0.79 10.01 0.02 -0.04 0.05 11076
0.08 0.40 0.88 -0.76 9.98 0.02 -0.03 0.05 11082
0.08 0.38 0.90 -0.80 9.94 0.01 -0.03 0.05 11088
0.10 0.34 0.87 -0.75 9.92 0.01 -0.03 0.05 11095
0.12 0.33 0.89 -0.77 9.98 0.01 -0.03 0.06 11101
0.11 0.31 0.91 -0.74 9.93 0.01 -0.03 0.05 11107
0.11 0.32 0.88 -0.77 9.93 0.01 -0.03 0.05 11114
0.10 0.32 0.88 -0.78 9.96 0.01 -0.03 0.05 11120
0.10 0.29 0.91 -0.79 9.93 0.00 -0.03 0.05 11126
0.10 0.28 0.89 -0.76 9.97 0.00 -0.04 0.05 11132
0.12 0.26 0.95 -0.78 9.97 0.00 -0.04 0.05 11139
0.12 0.25 0.91 -0.80 9.90 -0.00 -0.04 0.06 11146
0.13 0.29 0.92 -0.76 9.94 -0.00 -0.04 0.05 11152
0.13 0.33 0.93 -0.75 9.95 -0.01 -0.05 0.05 11158
0.13 0.31 0.93 -0.74 9.95 -0.00 -0.05 0.05 11164
0.16 0.29 0.92 -0.78 9.96 -0.01 -0.05 0.04 11170
0.16 0.29 0.87 -0.74 9.96 -0.01 -0.05 0.05 11177
0.16 0.28 0.91 -0.79 10.03 -0.01 -0.05 0.04 11184
0.16 0.27 0.91 -0.80 9.98 -0.01 -0.06 0.04 11190
0.16 0.25 0.89 -0.78 9.99 -0.00 -0.05 0.04 11196
0.16 0.22 0.92 -0.81 9.98 -0.01 -0.05 0.04 11202
0.16 0.20 0.95 -0.78 9.98 -0.01 -0.05 0.04 11209
0.16 0.17 0.92 -0.81 10.00 -0.01 -0.06 0.04 11215
0.16 0.18 0.86 -0.80 9.98 -0.01 -0.06 0.04 11222
0.19 0.19 0.95 -0.81 9.94 -0.01 -0.06 0.04 11228
0.18 0.18 0.95 -0.78 10.01 -0.01 -0.06 0.03 11234
0.17 0.16 0.84 -0.80 9.92 -0.01 -0.06 0.04 11241
0.19 0.14 0.87 -0.78 9.95 -0.02 -0.05 0.03 11247
0.19 0.13 0.88 -0.79 9.90 -0.02 -0.04 0.04 11253
0.19 0.16 0.86 -0.78 10.02 -0.02 -0.04 0.04 11259
0.21 0.16 0.85 -0.79 9.91 -0.01 -0.02 0.04 11266
0.21 0.12 0.91 -0.77 9.96 -0.01 -0.01 0.04 11273
0.20 0.14 0.90 -0.77 9.97 -0.01 -0.01 0.04 11279
0.24 0.11 0.88 -0.77 9.90 -0.00 0.00 0.04 11285
0.23 0.09 0.91 -0.76 9.97 0.00 0.00 0.03 11291
0.26 0.06 0.94 -0.78 10.01 0.01 0.01 0.03 11297
0.28 0.04 0.94 -0.80 9.99 0.01 0.01 0.04 11303
0.30 0.04 0.90 -0.82 10.03 0.02 0.01 0.04 11311
0.30 0.02 0.97 -0.77 10.09 0.03 0.02 0.04 11317
0.31 0.02 0.90 -0.81 10.04 0.04 0.02 0.04 11323
0.31 0.01 0.91 -0.76 10.10 0.05 0.02 0.04 11329
0.35 0.02 0.90 -0.80 10.08 0.07 0.03 0.04 11336
0.38 -0.00 0.91 -0.78 10.18 0.08 0.04 0.05 11342
0.41 -0.00 1.02 -0.62 10.05 0.12 0.05 0.05 11348
0.47 -0.02 0.98 -0.87 10.21 0.15 0.07 0.05 11355
0.50 -0.04 1.22 -0.91 10.43 0.19 0.09 0.05 11362
0.50 -0.03 1.13 -1.02 10.37 0.27 0.15 0.03 11368
0.50 -0.04 1.13 -0.94 10.87 0.41 0.24 0.02 11374
0.51 -0.03 1.26 -1.01 11.74 0.65 0.38 -0.00 11380
0.56 -0.03 1.37 -0.95 12.69 1.05 0.54 -0.02 11386
0.57 -0.04 1.44 -1.15 13.59 1.57 0.64 -0.09 11394
0.58 -0.02 1.78 -1.45 13.71 2.03 0.61 -0.16 11400
0.57 -0.03 1.77 -1.27 13.80 2.28 0.44 -0.26 11406
0.54 -0.03 1.79 -1.60 14.29 2.47 0.21 -0.28 11413
0.52 -0.03 1.40 -1.41 14.75 2.65 0.02 -0.31 11419
0.49 -0.02 1.49 -1.65 15.66 2.88 -0.07 -0.31 11425
0.43 -0.01 1.72 -2.30 15.73 3.16 -0.14 -0.36 11431
0.37 -0.02 2.67 -1.98 15.59 3.41 -0.21 -0.47 11439
0.30 -0.01 1.98 -2.35 16.76 3.79 -0.30 -0.44 11445
0.28 -0.00 2.82 -2.21 16.77 4.06 -0.31 -0.47 11451
0.20 -0.01 2.68 -3.11 16.64 4.22 -0.31 -0.48 11457
0.20 -0.00 1.54 -3.59 15.27 4.28 -0.34 -0.54 11464
0.26 -0.01 3.10 -4.26 16.16 4.28 -0.36 -0.67 11470
0.17 0.01 2.36 -5.82 18.34 4.28 -0.26 -0.57 11476
0.15 -0.01 3.43 -6.86 21.80 4.28 -0.12 -0.56 11484
0.11 -0.01 4.87 -6.40 22.45 4.28 -0.20 -0.63 11490
0.13 -0.01 4.94 -4.85 23.20 4.25 -0.32 -0.73 11496
0.09 -0.01 4.83 -2.70 24.77 4.15 -0.44 -0.81 11502
0.10 -0.01 4.15 -3.42 24.11 3.84 -0.70 -0.89 11509
0.07 -0.01 4.36 -0.81 21.75 3.45 -1.04 -0.94 11515
0.07 -0.01 4.71 4.08 19.24 3.11 -1.12 -0.99 11522
0.08 -0.01 4.66 4.85 15.52 2.95 -0.71 -1.05 11528
0.05 -0.00 4.46 16.62 14.08 2.58 -0.63 -1.03 11534
0.08 -0.01 4.30 24.57 13.75 1.81 -0.61 -1.19 11541
0.08 -0.01 5.72 15.68 9.46 0.85 -0.53 -1.37 11547
0.05 -0.00 5.64 17.94 12.93 -0.01 -0.36 -1.38 11553
0.07 -0.01 4.03 16.81 11.31 -0.59 -0.13 -1.42 11559
0.05 -0.01 3.27 13.20 8.18 -0.84 -0.09 -1.49 11567
0.05 -0.01 2.59 11.20 5.61 -0.91 -0.22 -1.54 11573
0.06 -0.01 2.23 10.93 4.29 -0.93 -0.33 -1.57 11579
0.05 -0.00 2.68 10.51 3.76 -0.98 -0.37 -1.59 11585
0.05 -0.00 3.45 10.11 4.18 -1.06 -0.39 -1.60 11592
0.06 -0.01 3.93 9.79 4.70 -1.16 -0.36 -1.59 11598
0.04 -0.00 4.18 9.56 5.34 -1.25 -0.28 -1.55 11604
0.05 -0.01 4.02 9.21 5.49 -1.40 -0.19 -1.48 11611
0.06 -0.01 3.77 8.71 5.62 -1.55 -0.07 -1.37 11617
0.05 -0.01 3.59 7.47 6.02 -1.68 0.03 -1.24 11623
0.06 -0.01 3.48 7.16 6.44 -1.79 0.11 -1.15 11630
0.07 -0.01 3.50 6.37 7.15 -1.88 0.18 -1.03 11636
0.06 -0.01 3.63 5.79 7.99 -1.96 0.25 -0.92 11642
0.05 -0.01 3.77 5.48 8.84 -2.05 0.34 -0.82 11649
0.07 -0.01 3.90 5.15 9.80 -2.18 0.46 -0.71 11655
0.06 -0.01 4.05 4.86 10.53 -2.31 0.62 -0.59 11661
0.04 -0.00 3.94 4.51 11.20 -2.50 0.80 -0.46 11668
0.06 -0.01 3.73 3.83 11.93 -2.68 0.98 -0.32 11674
0.04 -0.00 3.38 2.96 12.64 -2.85 1.07 -0.18 11680
0.04 -0.00 2.86 2.07 13.03 -2.97 1.16 -0.04 11686
0.05 -0.01 2.51 1.17 13.33 -3.07 1.20 0.11 11693
0.04 -0.00 2.21 0.21 13.78 -3.12 1.21 0.25 11700
0.04 -0.00 1.98 -0.50 14.70 -3.14 1.22 0.34 11706
0.05 -0.00 1.83 -1.20 14.39 -3.14 1.23 0.46 11712
0.04 -0.00 1.65 -1.86 14.69 -3.14 1.26 0.55 11718
0.05 -0.00 1.50 -2.38 15.07 -3.12 1.30 0.63 11724
0.05 -0.00 1.29 -2.80 15.52 -3.11 1.32 0.70 11731
0.03 -0.00 1.03 -3.27 15.80 -3.07 1.34 0.76 11738
0.05 -0.01 0.82 -3.79 16.12 -3.01 1.34 0.82 11744
0.05 -0.01 0.68 -4.12 16.27 -2.95 1.31 0.88 11750
0.05 -0.00 0.60 -4.44 16.40 -2.89 1.25 0.93 11756
0.06 -0.01 0.65 -4.73 16.42 -2.78 1.17 0.95 11763
0.05 -0.01 0.88 -4.99 16.41 -2.73 1.09 0.96 11769
0.05 -0.00 0.98 -5.27 16.34 -2.66 1.00 0.97 11776
0.06 -0.01 1.12 -5.67 16.21 -2.58 0.95 0.96 11782
0.05 -0.01 1.46 -6.11 16.02 -2.50 0.90 0.94 11788
0.06 -0.01 1.70 -6.37 15.53 -2.40 0.87 0.92 11795
0.06 -0.01 1.78 -6.62 15.25 -2.30 0.84 0.90 11801
0.05 -0.01 1.90 -7.00 14.77 -2.18 0.86 0.89 11807
0.05 -0.00 1.97 -7.23 14.45 -2.06 0.91 0.89 11813
0.05 -0.01 1.96 -7.40 14.23 -1.93 0.97 0.91 11821
0.04 -0.00 1.87 -7.50 13.92 -1.78 1.02 0.94 11827
0.05 -0.00 1.77 -7.66 13.58 -1.62 1.07 0.98 11833
0.05 -0.00 1.62 -7.91 13.47 -1.46 1.11 1.04 11839
0.04 -0.00 1.06 -8.05 13.55 -1.31 1.14 1.11 11845
0.06 -0.01 0.24 -8.04 13.70 -1.17 1.12 1.19 11852
0.05 -0.00 -0.34 -8.21 13.75 -1.07 1.06 1.29 11858
0.04 -0.00 -0.84 -8.39 14.02 -0.97 0.96 1.36 11865
0.07 -0.01 -1.31 -8.49 14.20 -0.98 0.80 1.41 11871
0.05 -0.00 -1.52 -8.53 14.01 -1.01 0.63 1.43 11877
0.04 -0.00 -1.35 -8.70 13.80 -1.08 0.49 1.41 11884
0.05 -0.00 -1.24 -8.76 13.09 -1.19 0.37 1.36 11890
0.04 -0.00 -0.66 -9.12 12.60 -1.33 0.27 1.26 11896
0.05 0.01 -0.98 -9.68 11.80 -1.44 0.28 1.12 11902
0.05 -0.00 -0.57 -10.48 10.80 -1.49 0.30 0.96 11910
0.04 -0.00 -0.34 -11.33 9.87 -1.50 0.36 0.77 11916
0.05 -0.01 -0.24 -12.01 8.99 -1.43 0.43 0.57 11922
0.04 -0.00 -0.26 -12.73 8.10 -1.32 0.51 0.36 11928
0.04 0.00 -0.42 -13.25 7.34 -1.16 0.58 0.20 11934
0.05 -0.00 -0.68 -13.52 6.15 -0.97 0.65 0.04 11941
0.04 -0.00 -1.17 -13.35 6.08 -0.78 0.75 -0.08 11948
0.05 0.00 -1.98 -13.18 6.00 -0.59 0.87 -0.12 11954
0.04 -0.00 -2.88 -13.18 6.69 -0.42 0.94 -0.10 11960
0.04 -0.00 -3.60 -13.10 7.31 -0.28 0.83 -0.07 11966
0.05 0.01 -4.04 -12.98 7.66 -0.18 0.55 -0.03 11973
0.04 -0.00 -3.98 -12.91 7.71 -0.12 0.21 0.02 11979
0.03 -0.00 -3.23 -12.80 7.48 -0.07 -0.12 0.08 11985
0.06 -0.01 -2.33 -13.75 6.81 -0.03 -0.38 0.13 11992
0.05 -0.00 -0.91 -17.87 24.75 0.73 -0.99 0.07 11999
0.04 -0.00 -1.90 -12.63 2.43 0.85 -0.97 0.04 12005
0.05 -0.00 -1.09 -16.34 5.20 1.17 -1.43 -0.03 12011
0.04 -0.00 -2.02 -18.16 6.20 1.46 -1.71 -0.17 12017
0.04 0.00 -1.94 -18.12 5.33 1.65 -1.86 -0.23 12023
0.05 0.02 -1.43 -16.84 1.77 1.80 -1.92 -0.21 12030
0.04 0.08 0.55 -7.25 1.84 2.00 -1.87 -0.10 12037
0.04 0.19 1.96 -0.42 7.12 2.37 -1.54 0.04 12043
0.02 0.47 3.26 -0.36 18.53 2.93 -1.51 0.16 12049
0.02 0.75 0.91 1.18 22.57 3.32 -1.56 0.20 12056
0.00 0.96 -1.36 -0.84 18.86 3.40 -1.61 0.08 12062
-0.01 1.07 -0.76 -2.22 19.19 3.46 -1.50 -0.02 12068
0.01 1.04 -0.92 -3.88 20.48 3.37 -1.26 -0.04 12075
-0.00 1.07 -1.71 -4.00 22.77 3.20 -0.84 -0.13 12082
0.01 1.06 -0.52 -4.20 27.91 2.19 -1.08 -0.23 12088
0.00 1.04 1.89 -2.24 12.00 0.31 -0.58 -0.05 12094
-0.00 1.07 1.07 -2.28 11.29 0.03 -0.17 0.04 12101
0.01 1.08 1.26 -0.74 10.04 0.02 -0.12 0.08 12107
0.00 1.06 0.93 -0.08 9.72 0.06 -0.12 0.09 12113
-0.01 1.03 0.68 -0.46 10.08 0.06 -0.11 0.08 12120
-0.00 1.03 0.64 -0.69 10.09 0.02 -0.08 0.07 12126
0.00 1.02 0.96 -1.00 10.02 -0.00 -0.05 0.06 12133
0.02 1.01 0.81 -1.06 9.96 -0.02 -0.03 0.07 12139
0.00 1.04 0.79 -0.98 9.87 -0.03 -0.02 0.08 12145
0.00 1.04 0.73 -0.80 10.15 -0.04 -0.01 0.06 12151
0.04 1.06 0.80 -0.79 9.87 -0.04 -0.01 0.06 12157
0.03 1.12 0.79 -0.78 9.89 -0.05 -0.01 0.06 12165
0.02 1.16 0.75 -0.83 9.98 -0.04 -0.00 0.06 12171
0.05 1.17 0.78 -0.83 10.02 -0.05 -0.01 0.06 12177
0.04 1.20 0.75 -0.77 10.09 -0.04 -0.01 0.07 12183
0.01 1.18 0.76 -0.74 9.98 -0.03 -0.00 0.06 12189
0.07 1.18 0.75 -0.74 10.14 -0.03 0.00 0.06 12196
0.06 1.14 0.78 -0.71 10.07 -0.02 -0.00 0.07 12203
0.05 1.14 0.84 -0.73 9.92 -0.01 0.00 0.07 12209
0.04 1.13 0.81 -0.76 9.97 -0.01 -0.01 0.08 12215
0.04 1.11 0.88 -0.71 9.96 -0.00 -0.01 0.08 12221
0.05 1.08 0.81 -0.76 9.96 -0.00 -0.02 0.07 12228
0.05 1.06 0.82 -0.74 9.99 0.00 -0.03 0.07 12234
0.06 1.01 0.83 -0.74 9.98 0.00 -0.02 0.07 12240
0.07 0.95 0.77 -0.74 9.94 0.00 -0.03 0.07 12247
0.07 0.94 0.77 -0.72 9.97 0.00 -0.03 0.08 12253
0.08 0.92 0.81 -0.71 9.95 0.01 -0.03 0.07 12260
0.11 0.87 0.79 -0.74 9.92 0.01 -0.02 0.07 12266
0.10 0.84 0.87 -0.73 9.98 0.01 -0.02 0.07 12272
0.10 0.79 0.83 -0.72 9.96 0.01 -0.02 0.07 12278
0.09 0.78 0.81 -0.75 9.98 0.01 -0.03 0.07 12284
0.09 0.73 0.83 -0.74 9.96 0.01 -0.02 0.07 12292
0.09 0.69 0.83 -0.73 9.94 0.01 -0.02 0.06 12298
0.09 0.67 0.84 -0.72 9.90 0.01 -0.03 0.10 12304
0.09 0.65 0.82 -0.73 9.96 0.01 -0.02 0.06 12310
0.10 0.59 0.81 -0.76 9.94 0.01 -0.02 0.06 12316
0.10 0.63 0.81 -0.69 9.91 0.01 -0.02 0.06 12322
0.12 0.58 0.78 -0.71 9.95 0.01 -0.02 0.06 12329
0.14 0.50 0.77 -0.75 9.95 0.01 -0.02 0.07 12336
0.13 0.51 0.80 -0.77 9.93 0.02 -0.01 0.07 12342
0.13 0.52 0.80 -0.76 9.97 0.02 -0.01 0.06 12348
0.12 0.45 0.83 -0.77 9.89 0.01 -0.01 0.07 12354
0.13 0.44 0.80 -0.77 9.98 0.02 -0.01 0.07 12361
0.13 0.44 0.81 -0.80 9.89 0.01 -0.00 0.07 12367
0.12 0.37 0.83 -0.80 9.93 0.01 -0.01 0.06 12374
0.13 0.34 0.81 -0.77 9.97 0.01 -0.01 0.06 12380
0.14 0.36 0.86 -0.80 9.93 0.01 -0.01 0.06 12386
0.14 0.34 0.81 -0.77 9.96 0.00 -0.01 0.06 12392
0.14 0.35 0.86 -0.75 9.98 0.00 -0.01 0.06 12399
0.14 0.35 0.82 -0.79 9.97 0.00 -0.01 0.05 12405
0.13 0.32 0.87 -0.77 9.98 0.00 -0.01 0.06 12411
0.11 0.32 0.86 -0.75 9.96 0.00 -0.01 0.06 12418
0.13 0.32 0.84 -0.77 9.99 0.01 -0.01 0.06 12424
0.13 0.24 0.81 -0.81 10.00 -0.00 -0.01 0.05 12431
0.13 0.27 0.88 -0.80 9.90 0.00 -0.01 0.05 12437
0.16 0.22 0.84 -0.81 9.97 0.00 -0.01 0.05 12443
0.16 0.19 0.85 -0.81 9.98 -0.00 -0.02 0.05 12449
0.16 0.23 0.90 -0.79 9.99 0.01 -0.02 0.05 12455
0.18 0.17 0.85 -0.76 9.93 0.00 -0.02 0.04 12462
0.18 0.18 0.88 -0.80 9.95 0.01 -0.02 0.04 12469
0.19 0.18 0.87 -0.82 9.97 0.01 -0.02 0.04 12475
0.21 0.16 0.88 -0.76 9.94 0.01 -0.02 0.04 12481
0.20 0.14 0.88 -0.82 10.07 0.01 -0.02 0.04 12487
0.23 0.11 0.83 -0.78 9.94 0.01 -0.02 0.04 12493
0.23 0.10 0.89 -0.79 9.93 0.02 -0.01 0.04 12500
0.25 0.05 0.90 -0.82 9.99 0.01 -0.02 0.04 12507
0.26 0.04 0.88 -0.81 10.00 0.02 -0.02 0.04 12513
0.31 0.04 0.96 -0.80 10.05 0.02 -0.02 0.04 12519
0.34 0.03 0.91 -0.78 10.06 0.03 -0.02 0.04 12525
0.35 0.03 0.85 -0.82 10.04 0.04 -0.02 0.04 12532
0.38 0.02 0.89 -0.84 10.03 0.05 -0.01 0.04 12538
0.40 0.00 0.84 -0.82 10.12 0.06 -0.00 0.04 12545
0.49 -0.01 0.72 -0.23 10.38 0.07 0.00 0.04 12551
0.52 -0.03 0.97 -0.16 10.13 0.11 0.03 0.05 12558
0.55 -0.03 0.89 -0.87 10.27 0.15 0.05 0.04 12564
0.58 -0.04 1.04 -0.89 10.32 0.19 0.07 0.05 12570
0.62 -0.04 1.20 -1.00 10.60 0.27 0.11 0.04 12576
0.69 -0.04 1.13 -0.94 10.88 0.41 0.20 0.02 12583
0.70 -0.05 1.02 -0.84 11.46 0.63 0.33 -0.00 12590
0.71 -0.04 1.12 -0.95 12.79 1.00 0.51 -0.02 12596
0.72 -0.04 1.12 -0.98 12.89 1.44 0.62 -0.04 12602
0.70 -0.04 1.41 -1.16 13.93 1.87 0.61 -0.06 12609
0.71 -0.04 1.83 -1.41 13.66 2.15 0.48 -0.11 12615
0.69 -0.05 2.05 -1.30 13.72 2.33 0.27 -0.19 12621
0.63 -0.02 1.59 -1.53 15.19 2.53 0.07 -0.25 12627
0.57 -0.04 1.45 -1.58 15.10 2.76 -0.03 -0.27 12635
0.51 -0.03 1.44 -1.69 15.81 3.03 -0.07 -0.27 12641
0.46 -0.03 2.02 -1.82 16.56 3.36 -0.10 -0.30 12647
0.31 -0.02 2.72 -1.94 16.69 3.75 -0.12 -0.33 12654
0.32 -0.01 3.12 -3.04 15.94 4.05 -0.24 -0.42 12660
0.22 -0.01 2.33 -3.39 18.81 4.24 -0.38 -0.55 12666
0.25 0.01 2.76 -3.16 17.96 4.28 -0.51 -0.55 12673
0.22 0.00 3.76 -3.07 20.02 4.28 -0.43 -0.67 12680
0.15 0.00 2.46 -4.50 15.75 4.28 -0.46 -0.71 12686
0.15 -0.00 3.08 -5.54 20.24 4.28 -0.23 -0.64 12692
0.13 -0.01 5.23 -5.52 22.35 4.28 -0.15 -0.65 12698
0.13 0.00 6.15 -4.23 23.73 4.28 -0.22 -0.73 12705
0.12 -0.01 5.63 -2.09 26.32 4.21 -0.30 -0.83 12711
0.09 -0.01 4.57 -0.56 24.01 3.86 -0.43 -0.90 12718
0.09 -0.01 4.37 1.27 23.00 3.31 -0.56 -0.94 12724
0.08 -0.01 3.38 4.97 18.61 3.05 -0.49 -0.96 12730
0.09 -0.01 2.92 7.36 13.30 2.77 -0.53 -1.01 12737
0.08 -0.01 3.95 20.77 14.14 2.28 -0.64 -1.11 12743
0.06 -0.01 4.14 19.28 10.95 1.45 -0.48 -1.24 12749
0.04 0.00 5.01 15.35 9.78 0.69 -0.36 -1.35 12755
0.05 -0.01 4.71 17.41 12.78 -0.01 -0.22 -1.44 12763
0.05 -0.01 3.48 14.85 10.53 -0.53 -0.10 -1.55 12769
0.06 -0.01 2.72 12.22 8.05 -0.76 -0.12 -1.65 12775
0.04 -0.00 2.37 10.97 5.87 -0.82 -0.25 -1.71 12781
0.05 -0.00 2.36 10.50 5.08 -0.87 -0.38 -1.72 12788
0.06 -0.01 2.89 10.39 4.72 -0.94 -0.47 -1.71 12794
0.04 -0.00 3.49 10.06 4.90 -1.01 -0.52 -1.68 12801
0.07 -0.01 4.12 9.62 5.42 -1.08 -0.50 -1.61 12807
0.07 -0.01 4.33 9.23 5.80 -1.18 -0.45 -1.52 12813
0.04 -0.00 4.37 9.11 5.77 -1.32 -0.35 -1.39 12820
0.05 0.00 4.23 8.05 6.28 -1.46 -0.23 -1.27 12826
0.05 -0.01 4.20 7.94 6.89 -1.60 -0.11 -1.11 12832
0.04 -0.00 4.33 7.23 7.80 -1.75 0.00 -0.95 12838
0.05 -0.01 4.45 6.64 8.62 -1.90 0.13 -0.78 12845
0.06 -0.01 4.43 6.05 9.41 -2.07 0.26 -0.62 12851
0.06 -0.01 4.28 5.39 9.93 -2.25 0.41 -0.47 12858
0.05 -0.01 4.17 4.43 10.46 -2.40 0.56 -0.32 12864
0.06 -0.01 3.90 3.37 10.92 -2.56 0.68 -0.20 12870
0.05 -0.00 3.42 2.31 11.26 -2.69 0.79 -0.08 12876
0.05 -0.00 3.17 1.21 11.46 -2.78 0.84 0.02 12882
0.05 -0.00 2.90 0.18 11.71 -2.83 0.89 0.11 12890
0.04 -0.00 2.62 -0.63 11.99 -2.85 0.91 0.19 12896
0.04 0.00 2.47 -1.60 12.34 -2.84 0.90 0.24 12902
0.05 -0.00 2.43 -2.43 12.57 -2.81 0.88 0.33 12908
0.04 -0.00 2.49 -2.97 12.84 -2.77 0.86 0.35 12914
0.06 -0.01 2.55 -3.42 13.16 -2.73 0.86 0.40 12921
0.04 -0.00 2.62 -3.79 13.65 -2.68 0.88 0.45 12928
0.04 -0.00 2.67 -4.04 14.06 -2.65 0.92 0.50 12934
0.05 -0.01 2.73 -4.16 14.25 -2.61 0.95 0.55 12940
0.04 -0.00 2.65 -4.22 14.43 -2.58 0.97 0.62 12946
0.05 -0.00 2.54 -4.26 14.74 -2.56 0.99 0.70 12953
0.06 -0.01 2.45 -4.37 14.82 -2.55 1.01 0.77 12959
0.05 -0.00 2.37 -4.47 15.01 -2.54 1.03 0.84 12965
0.05 0.00 2.22 -4.79 15.11 -2.54 1.04 0.89 12972
0.05 -0.01 2.17 -5.00 15.13 -2.55 1.07 0.92 12979
0.04 -0.00 2.12 -5.24 14.95 -2.54 1.08 0.94 12985
0.05 -0.01 2.12 -5.50 14.82 -2.53 1.08 0.94 12991
0.05 -0.00 2.03 -5.73 14.76 -2.50 1.08 0.93 12997
0.04 -0.00 2.00 -5.93 14.53 -2.47 1.07 0.91 13003
0.06 -0.00 1.95 -5.95 14.22 -2.41 1.05 0.90 13010
0.05 -0.00 1.94 -6.04 13.95 -2.34 1.03 0.91 13017
0.05 -0.00 1.86 -6.29 13.63 -2.26 1.01 0.91 13023
0.06 -0.00 1.83 -6.61 13.30 -2.15 0.99 0.91 13029
0.05 -0.00 1.79 -6.93 13.04 -2.02 0.95 0.91 13035
0.04 0.01 1.57 -7.22 12.84 -1.86 0.89 0.92 13042
0.04 -0.00 1.21 -7.38 12.95 -1.70 0.80 0.94 13048
0.04 0.00 0.98 -7.32 13.14 -1.56 0.70 0.96 13054
0.04 0.01 0.77 -7.20 13.40 -1.45 0.59 0.98 13061
0.05 -0.01 0.80 -7.13 13.63 -1.37 0.50 1.01 13068
0.05 -0.00 1.02 -7.18 13.66 -1.33 0.46 1.02 13074
0.06 -0.00 1.43 -7.25 13.56 -1.32 0.49 1.03 13080
0.04 -0.00 1.57 -7.30 13.40 -1.33 0.58 1.02 13086
0.05 0.00 1.57 -7.54 13.22 -1.35 0.70 1.02 13093
0.05 -0.00 1.48 -7.80 12.90 -1.38 0.82 1.00 13100
0.04 -0.00 1.30 -8.06 12.78 -1.43 0.93 0.99 13106
0.05 0.00 1.02 -8.35 12.62 -1.49 1.00 0.97 13112
0.05 0.00 0.58 -8.68 12.16 -1.53 1.04 0.95 13118
0.04 -0.00 0.13 -9.18 11.23 -1.55 1.06 0.93 13125
0.05 -0.00 -0.36 -9.71 10.06 -1.52 1.13 0.92 13131
0.04 -0.00 -1.76 -10.33 9.30 -1.43 1.16 0.92 13137
0.04 -0.00 -2.05 -11.16 8.88 -1.29 1.23 0.93 13144
0.05 -0.01 -2.81 -11.78 8.67 -1.12 1.20 0.87 13150
0.04 -0.00 -3.41 -12.72 8.62 -0.94 1.04 0.81 13157
0.04 0.00 -3.71 -13.35 8.33 -0.77 0.82 0.75 13163
0.04 -0.00 -3.65 -13.69 7.98 -0.61 0.57 0.65 13169
0.03 -0.00 -3.22 -14.04 7.59 -0.46 0.34 0.53 13175
0.05 -0.00 -2.46 -14.21 7.16 -0.32 0.17 0.40 13182
0.05 -0.00 -1.71 -14.20 7.50 -0.18 0.04 0.26 13189
0.04 -0.00 -0.79 -14.52 7.49 -0.08 0.04 0.12 13195
0.05 -0.01 -0.01 -14.15 7.60 0.00 0.12 0.01 13201
0.04 -0.00 0.33 -13.62 7.70 0.07 0.23 -0.09 13207
0.04 0.00 0.26 -13.26 7.72 0.11 0.32 -0.15 13214
0.05 -0.00 0.24 -13.02 7.84 0.14 0.36 -0.17 13220
0.04 -0.00 0.05 -13.20 7.64 0.21 0.33 -0.15 13227
0.04 -0.00 -6.61 -16.70 36.30 1.03 -0.92 -0.01 13233
0.04 -0.00 -1.87 -11.79 3.82 1.32 -0.88 0.24 13239
0.04 -0.00 -2.65 -15.08 2.41 1.57 -1.83 0.40 13246
0.04 0.01 -2.38 -17.10 7.24 1.81 -2.19 0.63 13252
0.04 -0.00 0.63 -11.27 7.65 2.03 -2.26 0.84 13258
0.03 0.04 3.07 3.30 5.36 2.09 -2.12 0.99 13264
0.04 0.13 2.35 -0.34 7.02 2.13 -1.59 1.20 13272
0.02 0.31 1.14 2.24 14.59 2.24 -1.21 1.37 13278
0.01 0.60 -4.36 3.41 17.98 2.43 -1.21 1.33 13284
0.00 0.90 -8.71 1.28 14.53 2.65 -1.44 0.90 13290
-0.01 1.04 -7.54 -1.44 15.52 3.12 -1.54 0.40 13297
0.01 1.15 -6.14 -3.75 18.57 3.42 -1.41 -0.04 13303
-0.01 1.21 -4.65 -3.16 21.73 3.34 -0.80 -0.37 13309
0.00 1.23 -0.57 -3.30 23.03 2.89 -0.47 -0.62 13316
-0.01 1.25 3.84 -3.12 26.25 1.99 -1.09 -0.60 13323
-0.01 1.23 4.83 -2.34 12.58 0.61 -1.06 -0.18 13329
0.00 1.27 2.48 -1.88 11.53 0.39 -0.66 0.11 13335
-0.01 1.25 1.14 -0.99 10.53 0.31 -0.57 0.17 13342
0.01 1.21 0.21 -0.29 11.01 0.26 -0.48 0.15 13348
0.01 1.19 0.07 -0.35 10.35 0.15 -0.35 0.09 13355
0.00 1.25 0.35 -0.99 10.57 0.07 -0.22 0.07 13361
-0.01 1.22 0.80 -1.25 10.16 0.02 -0.15 0.07 13368
-0.00 1.26 0.81 -1.13 10.17 0.01 -0.10 0.08 13374
0.02 1.24 0.72 -0.92 10.05 -0.00 -0.07 0.08 13380
-0.00 1.25 0.62 -0.77 9.88 -0.02 -0.05 0.07 13386
-0.02 1.27 0.75 -0.82 10.09 -0.03 -0.03 0.06 13393
-0.01 1.30 0.78 -0.83 9.85 -0.03 -0.03 0.06 13400
0.00 1.34 0.74 -0.84 9.81 -0.03 -0.03 0.07 13406
0.00 1.35 0.75 -0.74 10.07 -0.02 -0.03 0.07 13412
0.03 1.34 0.80 -0.74 10.24 -0.01 -0.03 0.06 13418
0.01 1.32 0.79 -0.76 9.99 -0.01 -0.03 0.06 13425
0.05 1.26 0.81 -0.75 10.02 -0.01 -0.03 0.06 13431
0.03 1.24 0.75 -0.72 10.07 -0.00 -0.03 0.07 13437
0.03 1.21 0.76 -0.71 10.01 -0.00 -0.03 0.07 13444
0.01 1.19 0.76 -0.72 10.01 0.00 -0.03 0.06 13451
0.03 1.12 0.76 -0.73 9.98 0.01 -0.03 0.07 13457
0.04 1.10 0.77 -0.73 10.00 0.01 -0.03 0.07 13463
0.05 1.05 0.76 -0.67 9.98 0.01 -0.03 0.07 13469
0.02 1.01 0.77 -0.71 9.96 0.01 -0.04 0.07 13475
0.05 0.97 0.78 -0.70 9.92 0.02 -0.04 0.06 13483
0.04 0.93 0.79 -0.71 10.01 0.01 -0.04 0.07 13489
0.05 0.90 0.75 -0.68 9.98 0.01 -0.04 0.06 13495
0.06 0.86 0.78 -0.73 9.98 0.02 -0.05 0.07 13501
0.05 0.78 0.80 -0.72 9.92 0.02 -0.04 0.06 13507
0.04 0.72 0.78 -0.71 9.91 0.01 -0.05 0.06 13513
0.07 0.71 0.73 -0.78 9.92 0.01 -0.05 0.05 13520
0.07 0.63 0.75 -0.73 9.97 0.01 -0.05 0.05 13527
0.06 0.62 0.74 -0.75 9.98 0.01 -0.05 0.05 13533
0.07 0.65 0.72 -0.72 9.95 0.00 -0.05 0.05 13539
0.08 0.58 0.76 -0.75 9.94 0.00 -0.04 0.05 13545
0.07 0.54 0.73 -0.76 9.94 0.00 -0.04 0.05 13552
0.12 0.53 0.71 -0.71 9.97 -0.00 -0.04 0.05 13558
0.12 0.50 0.73 -0.72 9.92 -0.00 -0.05 0.05 13564
0.09 0.54 0.73 -0.75 10.04 -0.00 -0.05 0.05 13571
0.12 0.54 0.75 -0.75 9.98 0.00 -0.04 0.06 13577
0.10 0.52 0.75 -0.74 9.97 0.00 -0.04 0.05 13584
0.10 0.53 0.75 -0.74 9.94 -0.00 -0.04 0.05 13590
0.13 0.50 0.75 -0.75 9.93 -0.00 -0.04 0.05 13596
0.13 0.47 0.77 -0.76 10.04 -0.01 -0.05 0.04 13602
0.11 0.45 0.75 -0.74 9.90 -0.01 -0.05 0.04 13608
0.13 0.41 0.75 -0.74 9.92 -0.01 -0.06 0.05 13616
0.14 0.44 0.78 -0.74 9.95 -0.01 -0.06 0.04 13622
0.14 0.43 0.75 -0.74 9.99 -0.01 -0.05 0.04 13628
0.16 0.44 0.73 -0.77 10.00 -0.00 -0.05 0.03 13634
0.14 0.37 0.76 -0.84 9.99 0.03 -0.05 0.04 13640
0.16 0.38 0.76 -0.76 9.96 -0.00 -0.05 0.04 13647
0.17 0.33 0.73 -0.77 9.92 -0.00 -0.04 0.04 13654
0.17 0.28 0.73 -0.79 9.95 -0.00 -0.04 0.03 13660
0.15 0.31 0.71 -0.78 9.95 -0.00 -0.03 0.03 13666
0.19 0.30 0.68 -0.80 9.96 -0.00 -0.02 0.03 13672
0.20 0.26 0.77 -0.76 9.91 -0.00 -0.01 0.03 13678
0.22 0.27 0.76 -0.79 9.94 -0.00 -0.01 0.03 13685
0.23 0.24 0.75 -0.78 9.94 -0.00 -0.00 0.03 13691
0.24 0.26 0.77 -0.77 9.92 -0.00 -0.01 0.03 13698
0.26 0.21 0.75 -0.75 9.85 0.00 -0.01 0.03 13704
0.27 0.20 0.80 -0.78 9.95 0.00 -0.02 0.02 13710
0.26 0.19 0.86 -0.76 10.13 0.01 -0.01 0.02 13717
0.26 0.15 0.77 -0.71 10.02 0.02 -0.01 0.02 13723
0.30 0.14 0.80 -0.77 10.09 0.03 -0.01 0.02 13729
0.38 0.08 0.79 -0.80 10.11 0.04 -0.01 0.02 13735
0.41 0.06 0.82 -0.80 10.09 0.04 -0.01 0.02 13742
0.44 0.03 0.81 -0.82 10.08 0.05 -0.00 0.03 13749
0.49 0.02 0.78 -0.90 10.09 0.06 0.01 0.03 13755
0.53 0.02 0.87 -0.83 10.12 0.08 0.02 0.03 13761
0.55 -0.02 0.79 -0.96 10.19 0.10 0.03 0.03 13767
0.58 -0.02 0.67 -0.92 10.32 0.13 0.05 0.02 13774
0.66 -0.03 0.79 -0.84 10.19 0.17 0.07 0.02 13780
0.69 -0.03 0.92 -0.92 10.28 0.22 0.09 0.01 13787
0.70 -0.03 1.20 -0.98 10.50 0.28 0.12 -0.01 13793
0.74 -0.05 1.21 -1.16 10.65 0.40 0.19 -0.04 13800
0.79 -0.04 1.10 -0.99 11.17 0.61 0.30 -0.06 13806
0.80 -0.04 0.88 -1.05 12.25 0.98 0.45 -0.07 13812
0.80 -0.05 1.05 -1.09 13.47 1.47 0.58 -0.09 13818
0.84 -0.04 1.33 -1.09 13.98 1.93 0.58 -0.11 13826
0.81 -0.05 1.87 -1.19 14.60 2.22 0.49 -0.18 13832
0.77 -0.03 1.81 -1.30 14.45 2.40 0.35 -0.25 13838
0.76 -0.04 1.26 -1.53 14.13 2.57 0.16 -0.29 13844
0.71 -0.04 1.38 -1.66 14.86 2.76 0.06 -0.32 13851
0.61 -0.03 1.34 -1.60 13.92 2.98 -0.04 -0.32 13857
0.50 -0.03 1.50 -1.69 15.51 3.24 -0.14 -0.35 13863
0.45 -0.01 1.82 -2.05 17.03 3.51 -0.17 -0.46 13871
0.33 -0.01 2.90 -2.30 16.59 3.89 -0.25 -0.41 13877
0.26 -0.01 2.99 -2.90 18.02 4.12 -0.25 -0.48 13883
0.25 -0.01 3.35 -3.55 17.95 4.24 -0.33 -0.54 13889
0.16 -0.01 2.99 -3.38 17.82 4.28 -0.33 -0.60 13896
0.19 -0.00 3.21 -4.56 15.91 4.28 -0.19 -0.67 13902
0.18 -0.01 3.77 -5.77 18.26 4.28 0.18 -0.63 13908
0.17 0.00 4.93 -6.10 21.41 4.25 0.42 -0.63 13915
0.15 -0.02 5.53 -5.33 22.98 4.16 0.48 -0.70 13922
0.10 -0.01 5.01 -3.15 24.58 3.96 0.38 -0.81 13928
0.12 -0.01 3.24 -1.26 25.79 3.60 0.19 -0.92 13934
0.07 -0.01 2.56 1.75 23.17 3.32 -0.04 -0.98 13940
0.07 -0.01 1.92 3.85 18.35 3.08 -0.33 -1.00 13947
0.07 -0.01 1.85 5.46 16.00 2.86 -0.70 -1.04 13954
0.07 -0.01 4.59 13.90 13.54 2.49 -0.87 -1.13 13960
0.06 -0.01 4.80 20.37 13.24 1.89 -0.84 -1.28 13966
0.05 -0.01 6.21 14.50 9.84 1.07 -0.63 -1.42 13973
0.05 -0.01 5.64 16.78 11.59 0.23 -0.30 -1.50 13979
0.06 -0.01 4.50 15.04 9.91 -0.33 0.01 -1.60 13985
0.05 -0.00 3.28 12.18 7.37 -0.61 0.08 -1.70 13991
0.04 -0.00 2.22 10.75 4.92 -0.74 0.01 -1.75 13998
0.06 -0.01 1.83 10.03 4.01 -0.84 -0.09 -1.76 14005
0.05 -0.01 2.15 9.58 3.72 -0.93 -0.17 -1.75 14011
0.06 -0.01 2.67 8.90 3.91 -1.01 -0.25 -1.70 14017
0.05 -0.01 3.22 8.50 3.85 -1.08 -0.25 -1.62 14023
0.04 -0.00 3.47 8.14 4.47 -1.18 -0.20 -1.54 14029
0.04 -0.00 3.71 8.06 4.55 -1.29 -0.10 -1.41 14035
0.06 -0.01 3.65 7.78 4.91 -1.41 0.02 -1.25 14043
0.05 -0.00 3.63 7.31 5.54 -1.54 0.14 -1.06 14049
0.04 -0.00 3.67 6.80 6.46 -1.68 0.26 -0.85 14055
0.05 0.00 3.72 6.20 7.31 -1.82 0.37 -0.64 14061
0.04 -0.00 3.63 5.57 8.08 -1.93 0.45 -0.43 14067
0.04 -0.00 3.47 4.85 8.75 -2.06 0.50 -0.23 14073
0.05 -0.00 3.36 3.93 9.41 -2.19 0.56 -0.03 14080
0.05 -0.01 3.19 3.32 9.77 -2.31 0.60 0.15 14087
0.05 -0.00 3.14 2.48 10.06 -2.40 0.65 0.28 14093
0.05 -0.00 3.08 1.61 10.96 -2.47 0.70 0.41 14099
0.05 -0.00 2.93 0.81 10.78 -2.52 0.75 0.51 14105
0.04 -0.00 2.60 0.04 11.36 -2.53 0.79 0.59 14111
0.04 0.00 2.24 -0.52 11.81 -2.54 0.81 0.66 14118
0.04 -0.00 1.89 -1.02 12.28 -2.54 0.81 0.73 14125
0.05 -0.01 1.70 -1.43 12.69 -2.55 0.78 0.79 14131
0.06 -0.01 1.63 -1.93 13.03 -2.55 0.76 0.84 14137
0.06 -0.01 1.68 -2.20 13.36 -2.55 0.74 0.87 14143
0.05 -0.01 1.76 -2.62 13.52 -2.53 0.74 0.88 14150
0.07 -0.01 1.92 -2.96 13.74 -2.50 0.76 0.89 14156
0.06 -0.01 1.96 -2.93 14.25 -2.47 0.78 0.89 14162
0.06 -0.01 1.99 -3.04 14.69 -2.45 0.82 0.89 14169
0.07 -0.01 1.80 -3.08 15.01 -2.47 0.88 0.90 14176
0.06 -0.01 1.59 -3.30 15.40 -2.50 0.92 0.91 14182
0.06 -0.01 1.40 -3.71 15.51 -2.54 0.93 0.91 14188
0.06 -0.01 1.28 -4.20 15.42 -2.57 0.91 0.91 14194
0.06 -0.01 1.28 -4.81 15.11 -2.58 0.88 0.90 14200
0.06 -0.00 1.48 -5.45 14.71 -2.55 0.85 0.88 14208
0.06 -0.01 1.72 -5.86 14.18 -2.49 0.84 0.84 14214
0.05 -0.00 1.91 -6.22 13.91 -2.41 0.84 0.80 14220
0.07 -0.01 2.18 -6.44 13.59 -2.30 0.85 0.75 14226
0.06 -0.01 2.35 -6.52 13.68 -2.18 0.84 0.71 14232
0.05 -0.01 2.28 -6.44 13.64 -2.06 0.83 0.67 14239
0.08 -0.00 2.12 -6.32 13.70 -1.95 0.80 0.65 14245
0.06 -0.01 2.05 -6.15 13.79 -1.87 0.74 0.63 14252
0.07 -0.00 2.15 -5.93 14.10 -1.81 0.69 0.63 14258
0.07 -0.00 2.21 -5.67 14.21 -1.79 0.66 0.63 14265
0.06 -0.00 2.12 -5.72 14.09 -1.78 0.64 0.65 14271
0.08 0.00 1.86 -5.71 13.71 -1.78 0.64 0.67 14277
0.07 -0.01 1.65 -5.82 13.15 -1.76 0.63 0.70 14283
0.07 -0.01 1.22 -5.89 12.73 -1.72 0.61 0.73 14290
0.07 -0.01 0.77 -5.81 12.33 -1.65 0.60 0.77 14297
0.06 -0.01 0.25 -5.73 12.17 -1.57 0.60 0.81 14303
0.06 -0.00 -0.22 -5.63 12.21 -1.51 0.59 0.86 14309
0.06 -0.01 -0.73 -5.62 12.32 -1.45 0.51 0.90 14315
0.06 -0.01 -1.14 -5.67 12.36 -1.43 0.45 0.93 14322
0.08 -0.00 -1.44 -5.77 12.33 -1.42 0.35 0.94 14328
0.07 -0.01 -1.44 -5.94 12.10 -1.42 0.24 0.95 14334
0.07 -0.00 -1.15 -6.14 11.69 -1.42 0.17 0.93 14341
0.07 -0.00 -0.79 -6.48 11.11 -1.41 0.13 0.91 14348
0.06 -0.01 -0.55 -6.89 10.76 -1.38 0.15 0.87 14354
0.07 -0.00 -0.30 -7.48 10.39 -1.35 0.20 0.79 14360
0.07 -0.01 -0.07 -8.16 9.90 -1.29 0.26 0.69 14366
0.07 -0.00 -0.04 -8.81 8.73 -1.22 0.31 0.55 14373
0.08 -0.00 -0.20 -9.55 9.17 -1.12 0.32 0.40 14380
0.07 -0.01 -0.31 -10.26 8.78 -1.01 0.36 0.23 14386
0.07 -0.01 -0.52 -10.74 8.31 -0.88 0.38 0.06 14392
0.07 -0.00 -0.89 -11.07 8.06 -0.74 0.38 -0.11 14398
0.07 -0.01 -1.20 -11.36 7.99 -0.62 0.36 -0.27 14405
0.07 0.01 -1.30 -11.63 8.03 -0.51 0.33 -0.40 14411
0.07 -0.00 -1.26 -11.68 8.10 -0.41 0.29 -0.51 14417
0.07 -0.01 -1.14 -11.69 8.03 -0.31 0.23 -0.58 14424
0.08 0.00 -0.87 -11.70 7.87 -0.23 0.17 -0.62 14431
0.07 -0.01 -0.34 -11.68 7.94 -0.16 0.10 -0.63 14437
0.07 -0.00 0.21 -11.55 8.02 -0.09 0.04 -0.63 14443
0.08 -0.00 0.65 -11.41 8.10 -0.02 -0.03 -0.63 14449
0.06 -0.00 1.06 -11.71 7.89 0.05 -0.08 -0.60 14456
0.07 0.00 -1.99 -18.70 24.90 0.51 -0.63 -0.55 14462
0.07 -0.01 1.10 -9.56 4.90 1.02 -0.78 -0.49 14469
0.06 -0.00 -0.17 -12.82 2.52 1.07 -1.10 -0.39 14475
0.07 -0.00 -0.32 -15.62 8.85 1.41 -1.43 -0.23 14481
0.06 -0.01 -0.50 -14.86 8.44 1.65 -1.62 -0.05 14488
0.07 0.01 0.55 -13.58 6.03 1.85 -1.77 0.16 14494
0.07 0.01 1.28 -7.70 7.02 2.03 -1.81 0.39 14500
0.04 0.06 3.76 -1.02 7.39 2.15 -1.57 0.59 14507
0.06 0.16 3.84 1.69 11.06 2.32 -1.07 0.84 14514
0.04 0.33 2.67 0.42 17.33 2.44 -0.89 1.04 14520
0.03 0.60 -2.23 2.29 16.51 2.52 -0.98 1.04 14526
0.02 0.84 -5.29 -0.51 14.55 2.67 -1.13 0.76 14532
0.00 0.96 -4.78 -2.16 15.70 2.92 -1.22 0.38 14539
0.01 0.98 -4.69 -1.87 17.18 3.03 -1.00 0.08 14545
0.00 1.02 -3.54 -3.01 19.32 2.90 -0.67 -0.22 14552
0.00 1.03 -0.70 -2.90 19.65 2.58 -0.53 -0.44 14558
0.00 0.94 2.84 -2.77 21.96 2.08 -0.69 -0.49 14565
0.01 0.97 3.37 -1.93 14.96 0.87 -0.97 -0.24 14571
0.02 0.94 2.54 -1.75 11.18 0.33 -0.60 0.02 14577
0.01 0.92 1.17 -1.63 10.81 0.20 -0.41 0.13 14584
0.01 0.96 0.67 -1.09 10.48 0.15 -0.33 0.11 14590
0.01 0.92 0.33 -0.71 10.28 0.09 -0.21 0.09 14597
0.02 0.94 0.30 -0.78 10.21 0.04 -0.13 0.06 14603
0.03 0.96 0.67 -1.10 10.19 0.00 -0.08 0.04 14610
0.01 0.98 0.88 -1.17 9.98 -0.01 -0.06 0.05 14616
0.01 1.08 0.91 -1.10 10.09 -0.02 -0.05 0.06 14622
0.02 1.12 0.74 -0.90 10.08 -0.02 -0.05 0.06 14628
0.00 1.14 0.72 -0.90 10.13 -0.03 -0.04 0.05 14635
0.00 1.14 0.75 -0.92 10.07 -0.03 -0.04 0.05 14642
-0.01 1.13 0.83 -0.92 10.04 -0.03 -0.03 0.06 14648
0.02 1.17 0.77 -0.89 10.17 -0.03 -0.02 0.05 14654
0.02 1.20 0.74 -0.77 10.00 -0.02 -0.01 0.06 14660
-0.00 1.17 0.76 -0.79 9.97 -0.02 -0.01 0.05 14667
0.02 1.19 0.79 -0.85 10.00 -0.01 -0.00 0.05 14673
0.02 1.16 0.83 -0.84 9.91 -0.01 -0.00 0.06 14680
0.01 1.13 0.80 -0.86 9.94 -0.00 -0.01 0.06 14686
0.03 1.10 0.79 -0.83 9.98 -0.00 -0.01 0.07 14692
0.01 1.08 0.82 -0.82 10.03 0.00 -0.02 0.07 14699
0.01 1.03 0.84 -0.82 9.93 0.00 -0.06 0.07 14705
0.02 1.00 0.81 -0.83 10.04 0.00 -0.04 0.07 14711
0.03 0.95 0.78 -0.83 9.99 0.00 -0.05 0.07 14717
0.05 0.90 0.79 -0.80 10.01 0.00 -0.05 0.07 14724
0.07 0.83 0.75 -0.83 10.07 0.01 -0.05 0.06 14731
0.07 0.78 0.81 -0.83 9.93 0.01 -0.06 0.06 14737
0.06 0.74 0.83 -0.81 9.94 0.01 -0.06 0.06 14743
0.11 0.69 0.82 -0.83 9.97 0.01 -0.07 0.06 14749
0.10 0.66 0.83 -0.87 9.93 0.01 -0.08 0.05 14755
0.13 0.63 0.80 -0.82 9.93 0.01 -0.08 0.04 14763
0.14 0.56 0.77 -0.87 9.94 0.00 -0.09 0.04 14769
0.14 0.54 0.80 -0.87 10.00 0.01 -0.10 0.04 14775
0.14 0.48 0.80 -0.88 9.99 0.00 -0.09 0.04 14781
0.16 0.46 0.75 -0.87 9.97 0.00 -0.09 0.04 14787
0.16 0.44 0.74 -0.84 10.04 0.00 -0.08 0.04 14794
0.15 0.44 0.71 -0.91 10.09 0.00 -0.08 0.04 14800
0.15 0.38 0.72 -0.92 10.01 0.00 -0.07 0.04 14807
0.15 0.35 0.74 -0.86 9.93 0.01 -0.06 0.04 14813
0.18 0.34 0.76 -0.86 9.92 0.01 -0.06 0.04 14819
0.20 0.33 0.74 -0.92 9.94 0.01 -0.06 0.04 14826
0.18 0.33 0.75 -0.86 9.98 0.01 -0.05 0.04 14832
0.22 0.25 0.72 -0.92 9.95 0.01 -0.05 0.04 14838
0.22 0.25 0.75 -0.90 9.97 0.01 -0.05 0.04 14844
0.20 0.26 0.79 -0.91 9.95 0.00 -0.05 0.03 14851
0.22 0.26 0.78 -0.88 9.93 -0.00 -0.05 0.03 14858
0.23 0.25 0.77 -0.92 9.91 -0.00 -0.05 0.03 14864
0.21 0.24 0.77 -0.91 9.98 -0.00 -0.05 0.03 14870
0.23 0.29 0.78 -0.93 9.99 -0.00 -0.04 0.03 14876
0.23 0.25 0.78 -0.88 10.01 -0.00 -0.04 0.03 14882
0.24 0.18 0.80 -0.92 10.11 0.00 -0.04 0.03 14889
0.26 0.19 0.72 -0.91 10.01 0.00 -0.04 0.02 14896
0.26 0.16 0.76 -0.90 10.00 0.01 -0.03 0.02 14902
0.30 0.16 0.77 -0.87 10.01 0.01 -0.02 0.02 14908
0.31 0.15 0.79 -0.90 9.93 0.01 -0.01 0.02 14914
0.33 0.09 0.74 -0.93 10.00 0.01 -0.00 0.02 14921
0.34 0.08 0.76 -0.94 9.99 0.01 0.01 0.02 14927
0.35 0.09 0.75 -0.90 9.97 0.02 0.02 0.02 14934
0.36 0.08 0.77 -0.94 9.95 0.02 0.03 0.02 14940
0.38 0.07 0.80 -0.96 10.06 0.02 0.03 0.02 14946
0.41 0.05 0.74 -0.97 9.98 0.02 0.03 0.02 14953
0.41 0.03 0.83 -0.96 9.98 0.02 0.04 0.02 14959
0.43 0.02 0.81 -0.94 9.99 0.02 0.04 0.02 14965
0.44 0.02 0.79 -0.95 9.99 0.03 0.05 0.03 14971
0.45 0.01 0.78 -0.94 10.04 0.03 0.05 0.02 14978
0.46 0.02 0.86 -0.98 10.16 0.04 0.06 0.02 14984
0.49 0.01 0.84 -0.95 10.06 0.06 0.06 0.03 14991
0.53 -0.01 0.84 -0.76 10.21 0.07 0.08 0.02 14997
0.56 -0.02 0.72 -0.82 10.20 0.10 0.09 0.03 15003
0.57 -0.04 0.86 -1.01 10.23 0.14 0.12 0.02 15009
0.59 -0.03 0.82 -0.96 10.22 0.18 0.15 0.04 15016
0.61 -0.03 0.94 -1.03 10.32 0.24 0.19 0.04 15023
0.62 -0.04 0.98 -1.12 10.66 0.35 0.27 0.04 15029
0.64 -0.03 0.92 -0.92 10.96 0.53 0.40 0.03 15035
0.66 -0.04 1.16 -1.25 11.40 0.78 0.56 0.02 15042
0.69 -0.04 1.20 -1.18 11.47 1.07 0.69 -0.00 15048
0.71 -0.04 1.24 -1.24 11.82 1.37 0.78 -0.03 15054
0.70 -0.03 1.33 -1.38 12.41 1.64 0.75 -0.07 15060
0.66 -0.03 1.15 -1.45 13.52 1.86 0.60 -0.10 15068
0.63 -0.04 1.41 -1.63 15.23 2.11 0.43 -0.11 15074
0.65 -0.03 2.13 -1.65 15.15 2.42 0.32 -0.16 15080
0.60 -0.04 2.15 -1.83 14.88 2.74 0.21 -0.24 15087
0.54 -0.03 1.93 -1.80 15.46 3.02 0.14 -0.31 15093
0.52 -0.03 1.69 -1.98 15.30 3.30 0.08 -0.33 15099
0.46 -0.03 1.74 -1.39 14.95 3.62 0.02 -0.33 15106
0.40 -0.01 3.41 -3.22 15.66 3.89 -0.01 -0.38 15113
0.34 -0.01 0.81 -3.36 17.68 4.15 -0.11 -0.45 15119
0.22 -0.00 2.56 -2.73 17.32 4.26 -0.20 -0.44 15125
0.17 -0.01 3.45 -3.66 18.32 4.28 -0.37 -0.53 15131
0.18 0.00 3.59 -4.84 15.99 4.28 -0.38 -0.59 15138
0.17 -0.00 3.58 -6.10 17.53 4.28 -0.31 -0.60 15144
0.15 -0.01 3.69 -7.03 21.02 4.28 -0.07 -0.57 15151
0.13 0.00 4.30 -6.88 23.25 4.28 -0.01 -0.60 15157
0.12 -0.01 5.25 -5.60 24.69 4.24 -0.13 -0.69 15164
0.11 -0.01 5.39 -4.23 26.01 4.11 -0.36 -0.80 15170
0.12 -0.01 5.15 -3.53 23.41 3.76 -0.64 -0.91 15176
0.07 -0.01 5.36 -1.59 21.21 3.42 -0.88 -0.99 15182
0.08 -0.01 5.36 3.15 17.98 3.35 -0.90 -1.02 15190
0.07 -0.01 4.60 3.22 14.05 3.22 -0.87 -0.98 15196
0.05 -0.00 5.68 12.84 14.46 2.95 -0.98 -0.99 15202
0.06 -0.01 6.42 23.58 11.73 2.33 -1.02 -1.06 15208
0.06 -0.01 5.65 15.96 9.98 1.43 -0.79 -1.03 15215
0.06 -0.01 6.50 16.32 12.71 0.38 -0.59 -0.92 15221
0.06 -0.01 5.75 16.45 11.01 -0.34 -0.39 -0.88 15227
0.05 -0.01 4.65 11.99 8.10 -0.58 -0.31 -0.95 15234
0.05 0.00 3.88 9.00 5.25 -0.65 -0.37 -1.03 15240
0.04 -0.00 3.42 8.50 3.70 -0.66 -0.40 -1.11 15247
0.05 -0.00 3.69 8.28 2.81 -0.67 -0.42 -1.18 15253
0.06 -0.00 3.99 8.04 3.10 -0.68 -0.41 -1.25 15259
0.07 -0.01 4.54 7.60 3.30 -0.72 -0.34 -1.28 15265
0.05 -0.01 4.63 7.34 4.35 -0.81 -0.24 -1.24 15271
0.05 -0.01 4.63 7.32 4.74 -0.94 -0.12 -1.23 15279
0.06 -0.01 4.46 7.18 5.09 -1.09 -0.01 -1.14 15285
0.05 -0.01 4.24 6.81 5.60 -1.26 0.10 -1.02 15291
0.05 -0.01 4.21 6.27 6.20 -1.42 0.19 -0.87 15297
0.06 -0.01 4.09 5.66 6.91 -1.57 0.26 -0.71 15303
0.05 -0.01 4.10 5.14 7.74 -1.69 0.34 -0.54 15309
0.05 -0.00 4.09 4.64 8.37 -1.84 0.43 -0.37 15315
0.06 -0.01 4.05 4.14 8.99 -1.99 0.52 -0.19 15323
0.06 -0.01 3.85 3.08 9.45 -2.15 0.62 -0.02 15329
0.07 -0.01 3.54 2.91 9.97 -2.31 0.70 0.12 15335
0.07 -0.01 3.04 2.07 11.03 -2.46 0.75 0.28 15341
0.08 -0.01 2.55 1.32 10.98 -2.58 0.77 0.42 15347
0.06 -0.01 2.16 0.57 11.37 -2.68 0.77 0.54 15354
0.06 -0.00 1.83 -0.15 11.70 -2.76 0.77 0.64 15361
0.06 -0.01 1.59 -0.81 11.89 -2.81 0.76 0.70 15367
0.06 -0.01 1.47 -1.37 12.19 -2.84 0.75 0.74 15373
0.07 -0.01 1.46 -1.78 12.38 -2.84 0.76 0.76 15379
0.06 -0.01 1.48 -2.10 12.70 -2.85 0.79 0.77 15386
0.05 -0.01 1.43 -2.30 13.14 -2.84 0.83 0.75 15392
0.06 -0.01 1.26 -2.59 13.63 -2.84 0.89 0.73 15398
0.05 -0.01 1.14 -2.89 13.89 -2.85 0.94 0.69 15405
0.05 -0.00 0.98 -3.11 14.20 -2.87 1.00 0.66 15411
0.05 -0.01 0.76 -3.32 14.31 -2.87 0.98 0.63 15418
0.05 -0.00 0.75 -3.57 14.47 -2.87 0.97 0.60 15424
0.05 -0.00 0.77 -3.81 14.54 -2.86 0.94 0.54 15430
0.05 -0.01 1.03 -4.25 14.67 -2.82 0.93 0.54 15436
0.04 -0.00 1.23 -4.73 14.86 -2.79 0.91 0.50 15442
0.04 -0.00 1.47 -5.06 14.94 -2.76 0.90 0.47 15450
0.05 -0.00 1.67 -5.32 14.98 -2.73 0.90 0.45 15456
0.04 -0.00 1.79 -5.44 14.97 -2.71 0.88 0.45 15462
0.05 0.00 1.96 -5.67 15.00 -2.67 0.85 0.48 15468
0.05 -0.00 2.12 -5.78 14.83 -2.62 0.81 0.52 15474
0.04 -0.00 2.43 -6.01 14.66 -2.57 0.76 0.56 15481
0.06 -0.00 2.74 -6.25 14.33 -2.50 0.72 0.61 15488
0.05 -0.00 3.01 -6.39 13.88 -2.43 0.68 0.66 15494
0.04 -0.00 3.09 -6.49 13.40 -2.33 0.65 0.70 15500
0.05 -0.00 3.04 -6.53 13.16 -2.20 0.62 0.74 15507
0.04 -0.00 2.91 -6.62 13.04 -2.07 0.61 0.77 15513
0.05 0.00 2.79 -6.51 12.93 -1.92 0.60 0.78 15519
0.05 0.00 2.61 -6.49 12.85 -1.79 0.63 0.80 15525
0.04 -0.00 2.42 -6.40 13.22 -1.67 0.62 0.80 15532
