Voltage_01 Voltage_02 Acc_x Acc_y Acc_z Gyro_x Gyro_y Gyro_z Time
5000
0.06 -0.01 -1.21 -13.98 7.43 -0.52 0.17 0.38 23
0.06 -0.01 -1.04 -14.50 7.23 -0.40 0.26 0.21 29
0.07 -0.01 -1.00 -14.73 7.02 -0.30 0.29 0.05 35
0.07 -0.01 -1.06 -14.83 6.82 -0.22 0.29 -0.13 41
0.06 -0.01 -0.86 -14.91 6.81 -0.13 0.28 -0.29 48
0.04 -0.00 -0.70 -14.89 6.74 -0.02 0.25 -0.43 54
0.05 -0.01 -0.56 -14.81 6.65 0.11 0.22 -0.56 60
0.06 -0.00 -0.43 -15.51 5.01 0.27 0.15 -0.62 66
0.06 -0.01 -9.27 -20.58 29.64 1.34 -0.92 -0.58 72
0.05 -0.00 -2.60 -12.25 5.91 1.47 -1.17 -0.46 78
0.05 -0.00 -3.16 -14.13 3.98 1.79 -1.90 -0.41 84
0.06 -0.00 -2.28 -15.05 7.93 1.98 -2.30 -0.20 92
0.04 -0.00 3.00 -8.76 8.66 2.15 -2.48 -0.03 98
0.05 0.00 5.02 -0.15 10.30 2.15 -2.23 0.09 104
0.04 0.06 5.66 3.57 10.95 2.12 -1.73 0.34 110
0.03 0.20 4.89 3.19 14.58 2.07 -1.23 0.74 116
0.03 0.40 1.43 4.79 13.10 2.07 -0.81 1.11 122
0.01 0.65 -3.56 1.50 10.68 2.20 -0.78 1.14 129
0.01 0.80 -6.47 -1.30 12.68 2.71 -0.95 0.85 135
0.01 0.90 -6.34 -2.84 14.43 3.19 -1.11 0.42 142
0.01 0.88 -5.39 -2.96 18.05 3.42 -1.28 -0.00 148
0.01 0.90 -3.10 -3.16 23.07 3.37 -1.11 -0.30 154
0.02 0.96 0.63 -4.97 39.59 2.57 -1.65 -0.53 160
-0.00 0.97 3.82 -2.67 15.41 0.36 -1.03 -0.25 166
-0.00 1.01 1.93 -2.58 11.83 0.04 -0.30 0.03 173
0.02 1.15 1.26 -2.17 10.42 -0.05 -0.10 0.07 180
0.00 1.11 0.64 -0.82 9.94 0.01 -0.12 0.12 186
0.01 1.13 0.44 -0.36 10.27 0.04 -0.13 0.09 192
0.00 1.10 0.35 -0.41 10.16 0.00 -0.07 0.08 198
0.02 1.12 0.57 -0.76 10.20 -0.02 -0.05 0.06 204
0.01 1.19 0.86 -1.06 10.11 -0.03 -0.04 0.06 210
-0.01 1.16 0.74 -1.14 9.98 -0.04 -0.04 0.07 217
0.01 1.24 0.63 -0.90 10.22 -0.04 -0.03 0.08 224
0.01 1.24 0.58 -0.77 10.19 -0.04 -0.02 0.07 230
0.00 1.25 0.69 -0.78 9.99 -0.04 -0.02 0.05 236
0.00 1.28 0.10 -0.84 9.82 -0.04 -0.01 0.05 242
0.02 1.30 0.71 -0.74 10.08 -0.03 -0.01 0.06 248
0.01 1.26 0.68 -0.69 10.04 -0.03 0.00 0.05 254
0.01 1.26 0.73 -0.65 10.01 -0.02 0.00 0.05 261
0.02 1.28 0.77 -0.71 10.10 -0.01 0.01 0.05 267
0.02 1.28 0.73 -0.75 9.97 -0.01 -0.01 0.05 273
0.02 1.26 0.75 -0.73 9.97 -0.00 -0.01 0.05 279
0.01 1.23 0.72 -0.72 10.07 -0.00 -0.01 0.06 286
0.00 1.22 0.70 -0.73 9.98 0.00 -0.02 0.06 292
0.03 1.18 0.77 -0.73 10.04 0.00 -0.02 0.06 299
0.02 1.13 0.69 -0.73 10.05 0.01 -0.03 0.07 305
0.02 1.09 0.73 -0.71 9.97 0.01 -0.03 0.06 311
0.01 1.01 0.70 -0.70 10.02 0.01 -0.04 0.06 317
0.03 0.96 0.67 -0.71 10.08 0.02 -0.03 0.07 323
0.03 0.95 0.69 -0.72 10.03 0.02 -0.03 0.06 329
0.03 0.88 0.70 -0.73 10.00 0.03 -0.03 0.07 336
0.04 0.85 0.71 -0.73 9.97 0.02 -0.04 0.06 343
0.08 0.78 0.71 -0.72 9.97 0.02 -0.04 0.06 349
0.09 0.71 0.73 -0.72 9.98 0.03 -0.04 0.06 355
0.10 0.68 0.73 -0.79 10.00 0.03 -0.04 0.06 361
0.10 0.60 0.73 -0.77 9.98 0.02 -0.04 0.06 367
0.12 0.56 0.72 -0.76 9.97 0.02 -0.04 0.05 373
0.12 0.47 0.69 -0.76 9.95 0.02 -0.04 0.05 379
0.12 0.47 0.70 -0.78 9.99 0.02 -0.04 0.05 386
0.11 0.46 0.65 -0.74 10.03 0.02 -0.03 0.06 392
0.12 0.45 0.69 -0.76 10.06 0.02 -0.03 0.06 398
0.11 0.46 0.69 -0.77 9.95 0.02 -0.03 0.06 405
0.11 0.44 0.69 -0.78 9.99 0.02 -0.02 0.06 411
0.10 0.37 0.70 -0.78 9.97 0.02 -0.02 0.06 417
0.12 0.35 0.65 -0.78 9.99 0.01 -0.02 0.06 423
0.12 0.34 0.68 -0.78 9.99 0.01 -0.02 0.06 430
0.14 0.31 0.77 -0.78 9.98 0.02 -0.01 0.05 436
0.13 0.29 0.65 -0.76 9.95 0.01 -0.02 0.05 442
0.14 0.29 0.76 -0.80 9.92 0.01 -0.01 0.05 448
0.15 0.29 0.72 -0.82 9.98 0.00 -0.01 0.05 454
0.14 0.24 0.73 -0.83 9.99 0.00 -0.01 0.05 460
0.15 0.24 0.71 -0.79 9.93 -0.00 -0.02 0.04 466
0.15 0.22 0.71 -0.78 9.96 -0.00 -0.02 0.04 473
0.17 0.23 0.74 -0.79 9.94 -0.01 -0.02 0.04 480
0.15 0.21 0.73 -0.80 9.95 -0.01 -0.02 0.04 486
0.16 0.21 0.73 -0.80 9.92 -0.01 -0.03 0.04 492
0.18 0.20 0.76 -0.78 9.99 -0.01 -0.03 0.04 498
0.18 0.20 0.69 -0.82 9.95 -0.01 -0.03 0.04 504
0.18 0.19 0.74 -0.80 10.03 -0.00 -0.02 0.04 510
0.19 0.12 0.74 -0.81 10.00 -0.00 -0.02 0.04 517
0.20 0.11 0.79 -0.79 10.07 -0.00 -0.01 0.03 523
0.24 0.12 0.73 -0.80 10.09 0.00 -0.00 0.03 529
0.29 0.08 0.76 -0.80 10.03 0.01 0.00 0.03 535
0.32 0.04 0.77 -0.77 10.01 0.01 0.01 0.03 542
0.27 0.03 0.79 -0.85 10.09 0.02 0.01 0.03 548
0.33 0.02 0.79 -0.83 10.10 0.03 0.01 0.03 555
0.35 0.01 0.76 -0.80 9.98 0.04 0.02 0.03 561
0.36 0.00 0.79 -0.83 10.06 0.06 0.03 0.03 567
0.39 -0.02 0.81 -0.85 10.12 0.07 0.03 0.02 573
0.43 -0.01 0.86 -1.02 10.05 0.09 0.04 0.02 579
0.50 -0.04 1.54 -0.90 10.20 0.11 0.05 0.02 585
0.54 -0.04 0.84 -0.87 10.19 0.14 0.06 0.03 592
0.61 -0.03 0.91 -0.88 10.26 0.19 0.07 0.02 599
0.64 -0.04 0.82 -0.92 10.47 0.27 0.11 0.01 605
0.67 -0.04 0.83 -0.99 10.61 0.38 0.17 0.00 611
0.71 -0.04 0.90 -0.96 11.21 0.58 0.28 -0.01 617
0.73 -0.03 0.90 -1.00 11.74 0.87 0.41 -0.03 623
0.78 -0.05 1.12 -0.96 12.46 1.24 0.54 -0.05 629
0.82 -0.04 1.28 -1.14 12.89 1.59 0.57 -0.10 636
0.84 -0.04 1.17 -1.31 13.02 1.90 0.46 -0.13 643
0.85 -0.04 1.37 -1.44 13.36 2.09 0.34 -0.18 649
0.86 -0.05 1.28 -1.73 13.28 2.23 0.20 -0.20 655
0.86 -0.03 0.90 -1.66 14.32 2.42 0.07 -0.20 661
0.87 -0.04 1.27 -1.90 14.77 2.64 -0.06 -0.19 667
0.87 -0.04 1.73 -1.79 14.68 2.91 -0.10 -0.21 674
0.79 -0.03 1.96 -1.42 14.39 3.18 -0.13 -0.26 680
0.74 -0.03 1.53 -1.98 14.81 3.46 -0.16 -0.28 687
0.72 -0.04 1.47 -2.15 15.31 3.73 -0.21 -0.29 693
0.57 -0.01 2.36 -3.04 16.07 3.96 -0.30 -0.38 699
0.45 -0.01 3.68 -2.14 17.59 4.17 -0.43 -0.41 705
0.37 -0.01 3.06 -3.40 20.59 4.28 -0.56 -0.46 712
0.30 -0.00 2.88 -4.34 20.44 4.28 -0.47 -0.55 718
0.24 -0.00 3.30 -5.15 18.04 4.28 -0.33 -0.61 724
0.20 -0.01 2.28 -5.76 17.90 4.28 -0.20 -0.64 731
0.16 0.00 1.94 -7.47 21.74 4.28 -0.02 -0.58 737
0.20 -0.01 2.71 -8.49 24.34 4.28 0.05 -0.50 743
0.18 -0.02 3.61 -9.05 23.92 4.28 0.02 -0.50 750
0.11 -0.01 4.43 -7.58 25.27 4.28 -0.12 -0.59 756
0.13 -0.01 4.75 -6.62 25.82 4.28 -0.34 -0.70 762
0.12 -0.01 4.67 -5.07 26.25 4.21 -0.57 -0.83 769
0.08 -0.01 4.73 -2.56 23.84 4.02 -0.79 -0.87 775
0.08 -0.01 4.89 0.85 25.23 3.84 -0.89 -0.92 781
0.06 -0.01 4.94 4.77 19.05 3.83 -0.72 -0.92 787
0.06 -0.01 4.39 12.03 14.21 3.67 -0.91 -0.95 793
0.05 -0.01 4.97 18.42 12.33 3.29 -1.02 -1.07 800
0.04 -0.00 3.34 21.03 7.33 2.66 -0.86 -1.26 806
0.04 -0.00 6.07 15.64 9.92 1.67 -0.85 -1.33 813
0.04 -0.00 6.84 16.60 12.90 0.38 -0.46 -1.26 819
0.05 -0.00 5.97 17.62 11.83 -0.57 0.08 -1.24 825
0.04 -0.00 5.07 14.99 9.42 -1.01 0.38 -1.32 831
0.06 -0.01 4.00 12.10 7.77 -1.22 0.46 -1.41 837
0.04 -0.00 2.99 10.57 5.74 -1.31 0.50 -1.45 843
0.05 -0.00 2.37 9.93 4.05 -1.34 0.48 -1.44 849
0.05 -0.00 1.83 9.66 3.01 -1.34 0.42 -1.40 856
0.06 -0.00 1.61 9.02 3.79 -1.36 0.29 -1.32 863
0.07 -0.01 1.73 8.42 4.56 -1.38 0.16 -1.21 869
0.06 -0.01 2.15 8.02 5.41 -1.43 0.03 -1.08 875
0.04 -0.00 2.47 7.85 6.07 -1.50 -0.06 -0.91 881
0.04 -0.00 2.60 7.70 6.57 -1.62 -0.10 -0.73 887
0.05 -0.00 2.70 7.37 6.96 -1.78 -0.12 -0.57 893
0.06 -0.01 2.88 6.78 7.40 -1.96 -0.11 -0.39 900
0.05 -0.01 3.02 6.10 7.93 -2.11 -0.06 -0.23 906
0.05 -0.00 3.68 5.29 8.51 -2.28 0.03 -0.08 912
0.05 -0.00 3.19 4.64 9.09 -2.44 0.09 0.06 918
0.05 -0.00 3.38 3.94 9.64 -2.59 0.22 0.15 924
0.06 -0.01 3.54 3.34 10.15 -2.73 0.37 0.25 930
0.05 -0.01 3.52 2.83 10.71 -2.85 0.55 0.33 936
0.04 -0.00 3.32 2.24 11.42 -2.97 0.73 0.40 943
0.05 -0.00 3.00 1.50 12.24 -3.11 0.88 0.46 950
0.05 -0.01 2.60 0.89 13.10 -3.23 1.03 0.49 956
0.05 -0.01 2.08 -0.03 13.68 -3.36 1.13 0.52 962
0.04 -0.00 1.73 -0.82 14.37 -3.47 1.19 0.54 968
0.06 -0.01 1.39 -1.71 14.85 -3.55 1.19 0.56 974
0.05 -0.01 1.20 -2.52 15.20 -3.61 1.15 0.57 980
0.05 -0.01 1.09 -3.35 15.30 -3.64 1.10 0.56 987
0.04 -0.00 1.19 -4.04 15.31 -3.65 1.03 0.56 993
0.05 -0.00 1.30 -4.57 15.38 -3.62 0.97 0.55 999
0.05 -0.00 1.44 -5.00 15.44 -3.57 0.94 0.55 1005
0.05 -0.01 1.59 -5.37 15.59 -3.50 0.92 0.53 1012
0.04 0.00 1.74 -5.73 15.69 -3.44 0.93 0.51 1018
0.05 -0.01 1.95 -5.95 15.77 -3.37 0.94 0.48 1025
0.04 -0.00 2.18 -6.12 15.90 -3.32 0.96 0.47 1031
0.04 -0.00 2.28 -6.19 16.00 -3.25 0.98 0.47 1037
0.06 -0.01 2.33 -6.23 16.14 -3.18 1.00 0.47 1043
0.04 -0.00 2.35 -6.33 16.10 -3.10 1.03 0.49 1050
0.04 -0.00 2.43 -6.52 16.19 -3.02 1.05 0.51 1056
0.05 -0.01 2.55 -6.80 16.21 -2.93 1.06 0.53 1062
0.05 -0.00 2.60 -7.19 16.19 -2.85 1.07 0.54 1069
0.04 -0.00 2.58 -7.68 16.29 -2.77 1.06 0.54 1075
0.05 0.00 2.57 -8.18 16.20 -2.70 1.07 0.54 1081
0.05 -0.00 2.58 -8.80 16.08 -2.64 1.06 0.52 1088
0.04 -0.00 2.39 -9.27 15.85 -2.57 1.03 0.51 1094
0.05 0.00 2.20 -9.80 15.69 -2.49 0.99 0.51 1100
0.05 -0.00 2.11 -10.19 15.52 -2.40 0.93 0.51 1106
0.05 -0.00 2.06 -10.50 15.15 -2.31 0.86 0.51 1113
0.05 0.01 2.04 -10.75 14.76 -2.19 0.79 0.52 1120
0.05 -0.00 2.27 -10.96 14.15 -2.06 0.73 0.52 1126
0.05 -0.00 1.88 -10.44 14.01 -1.92 0.68 0.57 1132
0.07 -0.01 1.82 -11.40 13.73 -1.81 0.70 0.56 1138
0.05 -0.01 1.52 -11.60 12.56 -1.69 0.85 0.62 1145
0.05 -0.00 1.08 -11.87 11.92 -1.56 1.10 0.73 1152
0.06 -0.01 0.45 -11.95 11.50 -1.44 1.41 0.87 1158
0.05 -0.01 -0.69 -12.50 11.52 -1.35 1.63 0.98 1164
0.05 0.00 -1.83 -13.11 12.03 -1.30 1.74 1.08 1170
0.05 -0.01 -2.90 -14.19 12.06 -1.27 1.71 1.16 1177
0.04 -0.00 -3.83 -15.29 12.09 -1.27 1.46 1.19 1183
0.06 -0.01 -4.50 -16.02 11.58 -1.30 1.02 1.19 1189
0.05 -0.01 -4.96 -16.15 11.22 -1.24 0.47 1.15 1196
0.05 -0.00 -3.52 -16.28 7.97 -1.34 0.17 1.08 1203
0.06 -0.01 -2.47 -17.70 7.58 -1.30 -0.03 1.00 1209
0.05 -0.01 -2.34 -20.02 6.30 -1.21 -0.15 0.86 1215
0.05 -0.00 -3.53 -22.70 8.41 -0.83 -0.47 0.67 1221
0.06 -0.00 -1.46 -18.71 0.77 -0.61 -0.33 0.44 1227
0.04 -0.00 -3.93 -22.75 6.41 -0.16 -0.46 0.25 1233
0.05 -0.00 -3.65 -20.57 5.45 0.36 -0.72 0.11 1241
0.06 -0.00 -3.04 -18.45 4.45 0.80 -0.95 0.00 1247
0.05 -0.01 -5.58 -21.04 2.37 1.01 -1.13 -0.07 1253
0.05 -0.00 -3.49 -20.37 6.96 1.58 -1.59 -0.06 1259
0.05 -0.01 -5.13 -19.83 6.03 1.72 -1.89 0.02 1265
0.06 -0.01 -4.73 -17.62 6.96 2.04 -2.27 0.23 1271
0.04 0.03 -1.94 -12.70 5.45 2.16 -2.51 0.50 1278
0.04 0.11 2.11 -1.09 7.43 2.36 -2.23 0.71 1285
0.04 0.19 1.15 0.36 12.03 2.59 -1.43 1.00 1291
0.02 0.48 0.31 -0.06 21.29 2.94 -0.95 1.19 1297
0.02 0.72 -5.59 1.63 19.62 2.88 -0.90 1.11 1303
0.00 0.83 -8.70 -0.75 16.55 2.84 -1.07 0.66 1310
0.01 0.87 -7.11 -2.21 16.27 2.93 -1.16 0.12 1316
0.01 0.87 -3.68 -3.68 16.87 3.02 -1.02 -0.24 1323
0.00 0.93 -1.60 -3.29 21.81 3.06 -0.62 -0.46 1329
0.01 0.86 2.72 -5.08 32.48 2.08 -1.28 -0.52 1336
0.01 0.88 4.09 -2.14 11.06 0.21 -0.70 -0.14 1342
0.00 0.85 1.56 -2.71 11.26 0.08 -0.24 0.10 1348
0.01 0.91 0.98 -1.63 9.92 0.02 -0.11 0.14 1354
0.00 0.90 0.36 -0.42 9.91 0.06 -0.14 0.14 1360
0.01 0.92 0.26 -0.33 10.15 0.03 -0.13 0.09 1367
0.02 0.94 0.45 -0.62 10.16 -0.02 -0.09 0.07 1374
0.01 0.98 0.74 -1.01 10.02 -0.04 -0.05 0.06 1380
0.04 0.98 0.86 -1.16 9.98 -0.04 -0.03 0.07 1386
0.02 1.06 0.60 -1.07 10.32 -0.04 -0.02 0.07 1392
0.04 1.10 0.42 -0.78 10.20 -0.04 -0.02 0.06 1398
0.03 1.09 0.59 -0.81 9.98 -0.05 -0.01 0.05 1405
0.01 1.12 0.68 -0.84 10.03 -0.05 -0.02 0.05 1412
0.00 1.12 0.61 -0.78 10.06 -0.05 -0.01 0.06 1418
0.01 1.19 0.57 -0.69 10.06 -0.05 0.00 0.05 1424
0.01 1.20 0.40 -0.70 10.14 -0.04 0.02 0.05 1430
0.03 1.25 0.62 -0.68 10.15 -0.03 0.03 0.06 1436
0.02 1.25 0.69 -0.66 10.03 -0.02 0.03 0.06 1443
0.01 1.22 0.71 -0.68 10.03 -0.01 0.03 0.06 1449
0.01 1.19 0.78 -0.71 9.98 -0.01 0.02 0.07 1456
0.02 1.13 0.79 -0.72 9.99 0.00 0.01 0.07 1462
0.00 1.11 0.75 -0.71 9.98 0.00 0.00 0.07 1468
0.02 1.08 0.71 -0.71 9.97 0.00 -0.01 0.07 1474
0.01 1.05 0.70 -0.72 10.00 0.01 -0.02 0.07 1481
0.02 1.00 0.68 -0.69 10.08 0.01 -0.02 0.06 1487
0.05 0.97 0.73 -0.70 10.01 0.01 -0.02 0.07 1494
0.05 0.93 0.74 -0.71 10.02 0.01 -0.02 0.07 1500
0.06 0.85 0.70 -0.68 10.02 0.01 -0.02 0.07 1506
0.06 0.82 0.72 -0.70 9.98 0.01 -0.03 0.07 1512
0.07 0.78 0.76 -0.68 9.97 0.02 -0.03 0.06 1519
0.08 0.74 0.74 -0.70 9.97 0.01 -0.07 0.06 1525
0.08 0.70 0.73 -0.69 9.96 0.02 -0.04 0.06 1531
0.11 0.63 0.72 -0.73 9.97 0.01 -0.04 0.05 1538
0.07 0.62 0.76 -0.72 10.00 0.02 -0.05 0.05 1544
0.06 0.56 0.74 -0.68 9.97 0.01 -0.05 0.05 1550
0.08 0.56 0.74 -0.72 9.97 0.01 -0.06 0.05 1556
0.09 0.53 0.69 -0.73 9.97 0.01 -0.06 0.05 1563
0.09 0.48 0.71 -0.71 10.04 0.01 -0.05 0.04 1569
0.09 0.44 0.69 -0.73 9.99 0.01 -0.05 0.05 1575
0.11 0.38 0.67 -0.73 10.02 0.01 -0.05 0.05 1582
0.10 0.36 0.68 -0.68 9.96 0.01 -0.04 0.05 1588
0.10 0.31 0.69 -0.72 10.04 0.01 -0.04 0.05 1594
0.13 0.37 0.73 -0.70 10.01 0.01 -0.04 0.05 1601
0.13 0.30 0.71 -0.71 9.91 0.01 -0.03 0.04 1607
0.13 0.26 0.73 -0.75 9.97 0.01 -0.03 0.05 1613
0.13 0.31 0.69 -0.76 9.90 0.01 -0.02 0.04 1619
0.15 0.29 0.69 -0.77 9.96 0.01 -0.02 0.04 1626
0.16 0.25 0.68 -0.76 10.00 0.01 -0.01 0.04 1632
0.17 0.23 0.76 -0.74 9.95 0.01 -0.01 0.04 1638
0.19 0.25 0.72 -0.76 9.93 0.01 -0.01 0.04 1645
0.18 0.22 0.71 -0.73 9.93 0.01 -0.00 0.03 1651
0.18 0.20 0.75 -0.77 9.98 0.01 0.00 0.03 1657
0.19 0.17 0.72 -0.77 10.01 0.01 -0.00 0.03 1664
0.19 0.18 0.70 -0.78 10.00 0.01 0.01 0.03 1670
0.19 0.14 0.70 -0.79 9.93 0.01 0.01 0.04 1676
0.23 0.15 0.73 -0.82 9.98 0.02 0.01 0.03 1682
0.22 0.08 0.73 -0.75 10.04 0.02 0.02 0.03 1689
0.22 0.06 0.78 -0.80 10.05 0.02 0.03 0.03 1695
0.24 0.07 0.86 -0.82 10.04 0.02 0.02 0.03 1701
0.28 0.05 0.86 -0.81 10.04 0.02 0.02 0.03 1708
0.28 0.02 0.83 -0.82 10.04 0.02 0.02 0.03 1714
0.29 0.03 0.82 -0.72 10.03 0.02 0.02 0.02 1720
0.33 0.02 0.78 -0.74 10.05 0.03 0.02 0.02 1727
0.34 0.01 0.81 -0.77 10.04 0.04 0.02 0.02 1733
0.36 -0.01 0.16 -0.51 9.90 0.05 0.03 0.03 1739
0.40 0.01 0.75 -0.83 10.15 0.06 0.04 0.02 1745
0.44 -0.01 0.69 -0.91 10.05 0.08 0.05 0.02 1752
0.43 -0.02 0.80 -0.85 10.12 0.10 0.06 0.02 1758
0.49 -0.02 0.82 -0.81 10.15 0.13 0.07 0.02 1765
0.52 -0.03 1.03 -0.91 10.34 0.17 0.09 0.02 1771
0.52 -0.03 0.99 -0.99 10.44 0.23 0.12 0.01 1777
0.54 -0.03 1.08 -0.97 10.68 0.33 0.19 -0.01 1783
0.53 -0.04 1.07 -0.87 10.99 0.51 0.29 -0.04 1789
0.58 -0.03 1.07 -1.00 11.53 0.80 0.44 -0.06 1797
0.60 -0.04 1.05 -0.99 12.29 1.17 0.58 -0.10 1803
0.58 -0.04 1.38 -1.04 13.07 1.56 0.61 -0.13 1809
0.53 -0.03 1.24 -1.07 13.71 1.88 0.54 -0.16 1815
0.51 -0.03 1.42 -1.27 14.82 2.15 0.36 -0.20 1821
0.47 -0.03 1.80 -1.51 15.46 2.49 0.10 -0.24 1828
0.43 -0.01 2.41 -1.45 16.88 2.89 -0.13 -0.31 1835
0.36 -0.02 2.76 -1.45 17.00 3.27 -0.27 -0.42 1841
0.33 -0.01 2.60 -1.55 16.96 3.56 -0.39 -0.50 1847
0.35 -0.01 2.35 -2.08 17.67 3.90 -0.55 -0.53 1854
0.26 -0.02 2.61 -2.59 18.37 4.14 -0.65 -0.55 1860
0.24 -0.01 3.25 -2.85 17.51 4.27 -0.63 -0.58 1866
0.16 -0.00 2.56 -3.21 18.24 4.28 -0.69 -0.63 1872
0.12 0.01 1.13 -3.05 17.10 4.28 -0.67 -0.60 1880
0.14 0.02 2.15 -4.01 22.34 4.28 -0.56 -0.58 1886
0.13 0.01 3.89 -4.62 22.55 4.28 -0.61 -0.63 1892
0.12 0.00 4.38 -3.78 24.16 4.28 -0.64 -0.65 1898
0.13 -0.00 4.84 -2.04 25.18 4.28 -0.61 -0.68 1904
0.11 -0.01 4.10 0.71 25.37 4.28 -0.67 -0.71 1911
0.09 0.00 3.89 1.69 27.44 4.11 -0.83 -0.72 1917
0.08 -0.00 2.04 -1.01 23.41 3.59 -0.94 -0.69 1924
0.06 -0.01 1.70 4.66 17.75 3.24 -1.06 -0.61 1930
0.05 -0.00 2.31 13.01 14.43 2.84 -1.15 -0.52 1936
0.07 -0.01 2.86 8.28 7.47 2.26 -1.15 -0.42 1943
0.04 -0.00 4.44 27.24 12.35 1.42 -0.98 -0.51 1949
0.06 -0.01 5.74 10.64 6.63 0.61 -0.55 -0.62 1955
0.06 -0.00 6.25 11.77 10.64 -0.15 -0.21 -0.62 1961
0.05 -0.01 3.37 10.96 8.08 -0.56 0.05 -0.71 1968
0.06 -0.01 1.72 7.62 5.02 -0.63 0.09 -0.86 1974
0.07 -0.01 0.47 5.75 3.06 -0.53 -0.01 -0.97 1981
0.06 -0.01 -0.08 5.49 2.45 -0.47 -0.18 -0.97 1987
0.06 -0.01 0.34 6.10 3.07 -0.47 -0.32 -1.00 1993
0.05 -0.01 1.46 6.11 3.93 -0.50 -0.40 -1.03 1999
0.07 -0.00 2.34 6.10 4.58 -0.58 -0.40 -1.04 2006
0.06 -0.01 2.53 6.29 4.81 -0.70 -0.31 -1.02 2012
0.06 -0.01 2.59 6.32 4.88 -0.85 -0.24 -0.99 2018
0.06 -0.00 2.43 6.14 5.03 -1.00 -0.13 -0.95 2024
0.06 -0.01 2.33 5.72 5.29 -1.13 -0.05 -0.89 2030
0.06 -0.01 2.09 5.26 5.69 -1.22 -0.01 -0.82 2037
0.05 -0.00 1.67 4.85 6.12 -1.29 -0.02 -0.76 2043
0.06 0.00 1.52 4.56 6.77 -1.35 -0.03 -0.70 2050
0.06 -0.00 1.76 4.24 7.70 -1.42 -0.03 -0.65 2056
0.06 -0.01 2.18 3.93 8.61 -1.53 0.04 -0.61 2062
0.05 -0.00 2.67 3.07 9.12 -1.68 0.15 -0.58 2068
0.06 -0.00 2.77 3.35 9.58 -1.86 0.29 -0.57 2074
0.05 -0.01 2.81 2.96 9.83 -2.04 0.43 -0.53 2081
0.05 0.00 2.62 2.31 10.17 -2.20 0.55 -0.49 2087
0.07 -0.01 2.27 1.62 10.44 -2.33 0.64 -0.43 2094
0.06 -0.01 2.10 0.88 10.61 -2.41 0.70 -0.35 2100
0.04 -0.00 1.96 0.21 10.81 -2.45 0.74 -0.27 2106
0.05 0.00 1.94 -0.32 10.95 -2.47 0.77 -0.19 2112
0.05 -0.00 2.03 -0.79 11.23 -2.49 0.79 -0.11 2119
0.04 -0.00 2.06 -1.12 11.58 -2.49 0.83 -0.04 2125
0.04 0.00 2.09 -1.32 12.04 -2.50 0.86 0.03 2131
0.05 -0.00 2.06 -1.58 12.40 -2.51 0.90 0.07 2138
0.05 -0.00 2.06 -1.85 12.67 -2.52 0.94 0.13 2144
0.04 -0.00 1.96 -2.09 13.03 -2.52 0.95 0.18 2150
0.05 -0.00 1.85 -2.33 13.41 -2.51 0.96 0.23 2157
0.04 -0.00 1.77 -2.48 13.84 -2.51 0.98 0.29 2163
0.04 -0.00 1.57 -2.69 14.41 -2.50 1.01 0.33 2169
0.06 -0.01 1.49 -2.85 15.08 -2.50 1.05 0.38 2176
0.04 -0.00 1.42 -3.08 15.61 -2.52 1.09 0.41 2182
0.04 -0.00 1.31 -3.32 15.77 -2.56 1.12 0.44 2188
0.04 0.00 1.14 -3.59 15.69 -2.61 1.14 0.45 2195
0.04 -0.00 1.02 -3.93 15.47 -2.64 1.14 0.46 2201
0.04 -0.00 0.97 -4.26 15.16 -2.66 1.14 0.47 2207
0.05 0.00 1.07 -4.62 14.76 -2.63 1.12 0.47 2213
0.04 -0.00 1.12 -4.90 14.50 -2.58 1.11 0.46 2220
0.04 -0.00 1.29 -5.11 13.90 -2.49 1.09 0.46 2226
0.04 0.00 1.39 -5.50 13.68 -2.38 1.07 0.45 2233
0.05 -0.00 1.41 -5.70 13.54 -2.30 1.06 0.45 2239
0.04 -0.00 1.36 -5.82 13.36 -2.16 1.02 0.45 2245
0.05 -0.00 1.12 -5.79 13.06 -2.03 0.95 0.46 2251
0.06 -0.01 0.85 -5.80 13.12 -1.89 0.85 0.47 2257
0.04 -0.00 0.67 -5.75 13.08 -1.74 0.75 0.49 2264
0.04 -0.00 0.57 -5.67 13.11 -1.60 0.63 0.52 2271
0.05 -0.01 0.61 -5.57 13.14 -1.48 0.54 0.54 2277
0.05 -0.00 0.53 -5.53 13.40 -1.37 0.48 0.57 2283
0.04 -0.00 0.54 -5.56 13.46 -1.30 0.47 0.59 2289
0.05 0.00 0.60 -5.76 13.84 -1.24 0.50 0.60 2295
0.05 -0.01 0.97 -5.93 14.63 -1.21 0.59 0.62 2301
0.04 -0.00 0.72 -5.84 14.90 -1.23 0.68 0.62 2308
0.04 0.00 0.76 -5.88 14.84 -1.30 0.83 0.60 2315
0.04 -0.00 0.67 -6.03 14.23 -1.40 1.01 0.59 2321
0.04 -0.00 0.35 -6.27 13.71 -1.53 1.19 0.58 2327
0.04 -0.00 -0.32 -6.61 13.26 -1.63 1.35 0.59 2333
0.05 -0.00 -1.27 -7.08 12.68 -1.71 1.43 0.62 2339
0.04 -0.00 -2.16 -7.63 11.94 -1.76 1.42 0.66 2345
0.04 -0.00 -2.94 -8.38 11.50 -1.76 1.32 0.73 2353
0.06 -0.01 -3.45 -9.30 11.12 -1.73 1.11 0.80 2359
0.04 -0.00 -3.53 -10.09 10.66 -1.66 0.83 0.85 2365
0.04 -0.00 -3.35 -10.98 9.97 -1.56 0.50 0.89 2371
0.05 -0.01 -2.75 -11.68 9.30 -1.45 0.23 0.90 2377
0.04 -0.00 -1.97 -12.22 8.37 -1.32 0.02 0.90 2384
0.03 -0.00 -1.23 -12.89 7.81 -1.16 -0.07 0.88 2391
0.05 -0.00 -0.68 -13.57 7.29 -0.99 -0.05 0.83 2397
0.05 -0.00 -0.47 -14.12 7.06 -0.81 0.04 0.77 2403
0.05 -0.00 -0.39 -14.73 6.56 -0.63 0.17 0.67 2409
0.05 -0.00 -0.44 -15.29 6.32 -0.45 0.27 0.55 2415
0.05 -0.01 -0.61 -15.57 6.20 -0.30 0.33 0.42 2421
0.04 -0.00 -0.70 -15.61 6.37 -0.14 0.36 0.28 2428
0.04 -0.00 -1.23 -20.60 6.45 0.05 0.34 0.16 2435
0.05 -0.01 -4.12 -18.36 12.84 0.89 -0.09 0.04 2441
0.04 -0.00 -2.07 -12.50 1.77 1.11 -0.31 -0.01 2447
0.04 -0.00 -4.16 -16.72 7.03 1.30 -0.85 -0.07 2453
0.05 -0.01 -3.40 -17.77 7.47 1.55 -1.26 -0.07 2459
0.05 -0.00 -2.90 -16.85 6.62 1.75 -1.74 -0.04 2466
0.03 -0.00 -1.80 -15.21 5.75 1.95 -2.03 0.01 2472
0.04 0.06 0.25 -10.68 4.55 2.13 -2.10 0.18 2479
0.04 0.10 3.80 -1.23 6.16 2.34 -1.78 0.40 2485
0.03 0.20 3.61 0.56 12.18 2.66 -1.30 0.71 2491
0.01 0.50 1.66 -0.98 19.80 2.98 -1.12 0.94 2498
0.01 0.69 -3.45 1.82 19.81 3.05 -1.12 0.94 2504
-0.00 0.86 -6.71 -0.67 16.31 3.04 -1.11 0.64 2510
0.01 0.88 -5.63 -2.33 16.14 3.09 -1.20 0.17 2516
0.00 0.92 -4.23 -3.39 19.24 3.20 -1.06 -0.20 2523
0.00 0.88 -0.99 -4.11 27.17 3.21 -0.83 -0.42 2530
0.01 0.93 1.59 -2.66 20.30 1.23 -1.51 -0.30 2536
-0.00 0.91 2.49 -1.87 10.36 0.06 -0.34 0.05 2542
-0.01 0.95 0.57 -2.94 11.22 -0.04 -0.08 0.10 2548
-0.01 0.94 0.57 -1.29 10.14 -0.03 -0.04 0.12 2554
-0.01 0.93 0.59 -0.32 10.00 0.00 -0.06 0.09 2562
0.01 0.98 0.49 -0.19 9.98 -0.00 -0.06 0.07 2568
0.02 0.95 0.71 -0.73 9.92 -0.03 -0.04 0.07 2574
0.01 0.95 0.79 -0.99 10.14 -0.04 -0.02 0.08 2580
0.00 1.00 0.71 -0.99 10.16 -0.04 -0.02 0.09 2586
0.00 1.04 0.65 -0.86 10.15 -0.04 -0.00 0.08 2593
0.02 1.00 0.60 -0.78 10.10 -0.05 0.00 0.07 2599
-0.00 1.08 0.71 -0.78 10.01 -0.05 0.01 0.07 2606
0.02 1.11 0.80 -0.75 10.02 -0.05 0.01 0.07 2612
0.01 1.09 0.75 -0.74 9.95 -0.04 0.02 0.07 2618
0.00 1.12 0.68 -0.66 9.93 -0.04 0.01 0.07 2624
0.01 1.13 0.76 -0.63 10.03 -0.04 0.02 0.06 2631
-0.00 1.15 0.81 -0.68 10.06 -0.04 0.01 0.06 2637
-0.00 1.12 0.87 -0.77 10.08 -0.02 0.01 0.07 2643
0.02 1.13 0.79 -0.66 10.02 -0.02 0.01 0.07 2650
0.03 1.09 0.81 -0.70 10.03 -0.01 0.00 0.06 2656
0.03 1.07 0.77 -0.69 10.04 -0.01 -0.00 0.07 2662
0.06 1.09 0.79 -0.68 10.03 -0.00 -0.01 0.07 2669
0.04 1.04 0.79 -0.67 10.05 -0.00 -0.02 0.07 2675
0.02 1.04 0.77 -0.70 10.01 0.00 -0.02 0.07 2681
0.05 1.03 0.75 -0.62 10.01 0.00 -0.02 0.07 2688
0.04 0.98 0.79 -0.67 10.04 0.00 -0.02 0.07 2694
0.03 0.95 0.74 -0.64 10.03 0.01 -0.02 0.07 2701
0.04 0.91 0.78 -0.67 9.98 0.01 -0.02 0.07 2707
0.03 0.87 0.77 -0.69 10.02 0.01 -0.02 0.07 2713
0.02 0.83 0.77 -0.65 9.92 0.01 -0.02 0.07 2719
0.04 0.82 0.78 -0.66 9.95 0.01 -0.03 0.07 2725
0.05 0.79 0.77 -0.65 9.92 0.01 -0.02 0.07 2732
0.05 0.70 0.75 -0.69 9.94 0.01 -0.03 0.06 2738
0.04 0.69 0.77 -0.68 9.96 0.01 -0.03 0.06 2745
0.05 0.65 0.79 -0.70 9.94 0.01 -0.03 0.06 2751
0.02 0.62 0.81 -0.66 9.96 0.00 -0.02 0.06 2757
0.03 0.60 0.75 -0.70 9.94 0.00 -0.02 0.05 2763
0.04 0.61 0.75 -0.69 9.93 0.00 -0.03 0.05 2769
0.05 0.60 0.80 -0.67 9.93 0.00 -0.02 0.06 2776
0.05 0.54 0.76 -0.69 9.90 0.00 -0.03 0.06 2782
0.04 0.51 0.78 -0.67 9.95 0.00 -0.02 0.06 2788
0.06 0.51 0.75 -0.68 9.97 0.00 -0.02 0.06 2795
0.05 0.50 0.75 -0.69 9.98 0.00 -0.02 0.06 2801
0.05 0.49 0.77 -0.69 9.93 0.00 -0.02 0.06 2807
0.04 0.47 0.77 -0.69 9.92 0.00 -0.01 0.06 2813
0.06 0.50 0.73 -0.69 9.94 0.00 -0.01 0.06 2820
0.05 0.51 0.81 -0.73 9.93 -0.00 -0.01 0.06 2826
0.05 0.51 0.80 -0.69 9.96 -0.00 -0.01 0.06 2832
0.05 0.50 0.80 -0.66 9.96 -0.01 -0.01 0.05 2838
0.06 0.49 0.80 -0.71 9.94 -0.01 -0.01 0.05 2845
0.06 0.46 0.80 -0.68 9.96 -0.01 -0.01 0.05 2851
0.05 0.46 0.80 -0.68 9.95 -0.01 -0.02 0.05 2857
0.06 0.48 0.79 -0.65 9.93 -0.01 -0.02 0.05 2864
0.08 0.44 0.84 -0.70 9.90 -0.01 -0.02 0.05 2870
0.09 0.41 0.78 -0.69 9.84 -0.01 -0.03 0.05 2876
0.09 0.37 0.80 -0.68 9.90 -0.01 -0.04 0.05 2882
0.11 0.37 0.79 -0.68 9.90 -0.01 -0.03 0.05 2888
0.09 0.39 0.77 -0.71 9.97 -0.01 -0.03 0.05 2895
0.10 0.33 0.80 -0.70 9.90 -0.00 -0.02 0.05 2902
0.10 0.35 0.80 -0.67 10.05 0.00 -0.01 0.05 2908
0.12 0.29 0.85 -0.67 10.03 0.01 -0.00 0.05 2914
0.13 0.26 0.84 -0.67 9.95 0.01 0.00 0.05 2920
0.17 0.25 0.84 -0.67 10.10 0.02 0.01 0.04 2926
0.20 0.24 0.84 -0.65 9.99 0.02 0.01 0.04 2933
0.21 0.16 0.87 -0.72 10.06 0.03 0.01 0.04 2939
0.20 0.14 0.85 -0.74 9.94 0.04 0.02 0.04 2946
0.23 0.11 0.86 -0.73 10.06 0.04 0.03 0.03 2952
0.22 0.07 0.86 -0.73 10.08 0.05 0.03 0.04 2958
0.27 0.03 0.88 -0.68 10.07 0.05 0.03 0.04 2964
0.30 0.04 0.88 -0.82 10.09 0.06 0.04 0.03 2971
0.31 0.01 0.84 -0.34 10.16 0.07 0.05 0.04 2977
0.28 0.02 0.89 -0.76 10.14 0.09 0.06 0.03 2983
0.34 -0.01 0.83 -0.63 10.06 0.12 0.07 0.02 2990
0.37 -0.03 1.65 -1.07 10.35 0.15 0.09 0.02 2996
0.39 -0.03 1.17 -0.87 10.60 0.22 0.14 -0.01 3003
0.43 -0.02 1.10 -0.75 10.78 0.33 0.24 -0.04 3009
0.46 -0.04 1.08 -0.81 11.53 0.54 0.38 -0.07 3015
0.43 -0.02 1.54 -0.81 12.46 0.90 0.58 -0.10 3021
0.45 -0.02 1.55 -0.91 13.88 1.48 0.77 -0.16 3027
0.43 -0.03 1.56 -1.13 15.09 2.11 0.79 -0.22 3035
0.43 -0.01 1.82 -1.28 16.03 2.56 0.50 -0.28 3041
0.41 -0.01 2.39 -1.21 17.41 2.93 0.19 -0.39 3047
0.38 -0.01 2.29 -1.16 17.38 3.26 -0.01 -0.48 3053
0.36 -0.00 2.17 -1.14 17.16 3.59 -0.13 -0.54 3060
0.33 -0.02 2.42 -1.58 17.62 3.95 -0.17 -0.57 3066
0.29 -0.01 2.51 -1.71 17.96 4.20 -0.32 -0.58 3073
0.22 -0.01 2.49 -3.26 19.59 4.28 -0.44 -0.67 3079
0.18 -0.00 3.77 -2.89 17.63 4.28 -0.50 -0.65 3085
0.12 0.01 4.21 -3.28 18.02 4.28 -0.40 -0.72 3092
0.15 -0.00 2.99 -4.04 17.07 4.28 -0.17 -0.78 3098
0.11 0.00 3.02 -4.77 18.93 4.28 -0.11 -0.78 3104
0.13 -0.00 3.04 -5.47 21.71 4.28 -0.23 -0.79 3110
0.10 -0.01 2.76 -5.94 22.41 4.28 -0.22 -0.79 3118
0.09 -0.01 2.73 -4.94 23.91 4.28 -0.30 -0.84 3124
0.11 -0.01 1.90 -3.98 25.52 4.28 -0.64 -0.93 3130
0.10 -0.01 1.35 -4.06 25.32 4.21 -1.16 -0.96 3136
0.07 -0.01 1.61 -3.31 22.96 4.04 -1.70 -0.96 3142
0.08 -0.01 3.13 -1.02 19.68 3.75 -2.05 -0.93 3148
0.06 -0.01 3.74 2.00 18.55 3.67 -1.91 -0.85 3155
0.04 -0.00 4.00 10.13 13.01 3.56 -1.68 -0.84 3162
0.07 -0.01 4.22 17.43 10.71 3.20 -1.71 -1.20 3168
0.05 -0.01 4.76 11.91 6.59 2.52 -1.35 -1.85 3174
0.05 -0.01 5.50 9.80 9.21 1.65 -0.96 -2.23 3180
0.08 -0.01 4.23 11.63 10.97 0.97 -0.18 -2.46 3186
0.07 -0.01 3.15 11.95 9.90 0.27 0.55 -2.71 3193
0.04 -0.00 2.85 9.82 8.60 -0.17 0.77 -2.94 3200
0.05 -0.00 2.13 8.27 6.90 -0.42 0.79 -3.08 3206
0.05 -0.01 1.15 7.20 5.51 -0.57 0.70 -3.18 3212
0.05 -0.00 0.59 6.76 4.19 -0.68 0.57 -3.20 3218
0.05 -0.00 0.35 6.26 3.39 -0.73 0.40 -3.13 3224
0.05 -0.00 0.35 5.73 3.46 -0.76 0.21 -2.98 3230
0.05 -0.01 0.83 5.31 3.67 -0.78 0.05 -2.78 3236
0.05 -0.01 1.44 5.18 4.51 -0.82 -0.14 -2.54 3244
0.04 -0.00 2.61 5.27 4.44 -0.86 -0.29 -2.38 3250
0.06 -0.01 3.54 5.33 4.93 -0.95 -0.36 -2.13 3256
0.06 -0.01 4.39 5.37 5.21 -1.07 -0.35 -1.87 3262
0.06 -0.01 4.99 5.40 5.55 -1.22 -0.24 -1.59 3268
0.05 -0.00 5.29 5.38 5.82 -1.36 -0.07 -1.28 3274
0.05 -0.01 5.53 5.17 6.23 -1.54 0.10 -0.96 3280
0.05 -0.01 5.53 4.87 6.72 -1.72 0.31 -0.61 3287
0.04 -0.00 5.63 4.45 7.08 -1.88 0.52 -0.35 3293
0.05 -0.00 5.49 3.88 7.46 -2.02 0.69 -0.04 3300
0.05 -0.01 5.22 3.31 7.69 -2.13 0.85 0.25 3306
0.05 -0.00 4.86 2.76 8.09 -2.21 0.99 0.52 3312
0.04 -0.00 4.59 2.25 8.58 -2.29 1.12 0.75 3318
0.04 -0.00 4.24 1.23 9.18 -2.37 1.19 0.94 3324
0.05 -0.01 3.89 1.36 10.38 -2.44 1.28 1.07 3331
0.05 -0.00 3.58 0.76 10.44 -2.52 1.36 1.19 3337
0.04 -0.00 3.25 0.14 11.10 -2.59 1.44 1.28 3343
0.05 -0.00 2.97 -0.40 11.86 -2.67 1.50 1.35 3350
0.04 -0.00 2.68 -1.01 12.65 -2.76 1.55 1.40 3356
0.04 -0.00 2.38 -1.65 13.23 -2.86 1.59 1.43 3362
0.05 -0.01 2.12 -2.18 13.69 -2.90 1.63 1.45 3368
0.05 -0.01 1.83 -2.76 14.16 -2.97 1.64 1.46 3375
0.05 -0.00 1.53 -3.18 14.27 -3.01 1.62 1.47 3381
0.05 -0.01 1.30 -3.45 14.42 -3.03 1.56 1.47 3388
0.05 -0.01 0.98 -3.70 14.65 -3.01 1.49 1.49 3394
0.05 -0.01 0.68 -3.89 14.40 -2.97 1.43 1.52 3400
0.05 -0.00 0.53 -4.29 14.54 -2.91 1.37 1.53 3406
0.06 -0.01 0.53 -4.70 14.81 -2.84 1.33 1.53 3412
0.05 -0.00 0.67 -5.14 15.27 -2.76 1.30 1.51 3419
0.04 -0.00 0.73 -5.64 15.71 -2.65 1.27 1.46 3426
0.05 -0.01 0.82 -5.97 16.03 -2.60 1.25 1.39 3432
0.04 -0.00 0.94 -6.20 16.17 -2.53 1.23 1.29 3438
0.03 -0.00 1.08 -6.40 16.33 -2.46 1.22 1.19 3444
0.04 -0.00 1.26 -6.64 16.56 -2.41 1.21 1.10 3450
0.04 -0.00 1.50 -6.97 16.54 -2.37 1.20 1.00 3457
0.04 -0.00 1.77 -7.27 16.39 -2.34 1.18 0.91 3464
0.05 0.00 1.96 -7.63 16.12 -2.30 1.15 0.84 3470
0.04 -0.00 2.03 -7.83 15.90 -2.25 1.11 0.80 3476
0.04 -0.00 1.96 -7.99 15.68 -2.19 1.04 0.78 3482
0.04 0.00 1.83 -8.11 15.51 -2.11 0.96 0.78 3488
0.04 -0.00 1.69 -8.07 15.19 -2.08 0.87 0.81 3494
0.05 -0.00 1.53 -8.10 14.98 -2.02 0.77 0.86 3502
0.05 0.00 1.41 -8.09 14.65 -1.95 0.75 0.94 3508
0.05 0.00 1.30 -8.13 14.27 -1.88 0.73 1.04 3514
0.05 -0.00 1.11 -8.18 13.90 -1.81 0.72 1.15 3520
0.04 0.00 0.89 -8.41 13.59 -1.74 0.71 1.23 3526
0.05 -0.00 0.59 -8.58 13.29 -1.66 0.72 1.34 3533
0.04 -0.00 0.03 -8.74 13.08 -1.60 0.68 1.43 3539
0.03 -0.00 -0.04 -9.13 12.56 -1.52 0.69 1.52 3546
0.05 -0.00 -0.47 -9.55 12.85 -1.47 0.67 1.58 3552
0.04 -0.00 -0.69 -9.83 12.76 -1.44 0.65 1.60 3558
0.03 -0.00 -0.85 -10.21 12.30 -1.45 0.62 1.58 3564
0.06 -0.01 -0.89 -10.70 11.46 -1.47 0.61 1.51 3571
0.04 -0.00 -0.91 -11.36 10.58 -1.50 0.59 1.40 3577
0.04 0.00 -1.09 -12.07 9.75 -1.50 0.63 1.26 3584
0.05 -0.01 -1.43 -12.72 8.76 -1.46 0.63 1.10 3590
0.04 -0.00 -1.84 -13.24 7.61 -1.37 0.66 0.93 3596
0.04 -0.00 -2.14 -14.09 6.21 -1.22 0.68 0.77 3603
0.06 -0.01 -2.38 -15.03 6.16 -1.01 0.68 0.56 3609
0.05 -0.00 -2.71 -15.61 5.99 -0.77 0.63 0.31 3615
0.04 -0.00 -3.42 -15.74 5.77 -0.52 0.55 0.06 3621
0.05 0.00 -3.64 -15.83 6.01 -0.27 0.47 -0.19 3628
0.05 -0.00 -3.59 -15.58 6.13 -0.07 0.38 -0.42 3634
0.03 -0.00 -3.78 -16.05 6.75 0.05 0.26 -0.62 3641
0.04 0.00 -5.98 -19.16 11.82 0.39 -0.21 -0.79 3647
0.05 -0.00 -4.77 -15.39 9.56 0.76 -0.62 -0.88 3653
0.03 -0.00 -3.69 -13.36 6.41 0.92 -0.85 -0.95 3659
0.04 -0.00 -5.24 -15.46 8.19 1.07 -1.38 -0.96 3665
0.04 0.00 -4.22 -16.37 9.00 1.28 -1.88 -0.90 3672
0.03 -0.00 -3.48 -16.26 6.91 1.45 -2.17 -0.79 3679
0.05 0.00 -1.61 -15.51 5.85 1.60 -2.39 -0.61 3685
0.05 0.03 0.84 -8.18 5.66 1.76 -2.37 -0.33 3691
0.03 0.12 4.35 0.59 7.50 1.98 -1.92 -0.08 3697
0.03 0.28 4.42 0.33 13.48 2.31 -1.38 0.27 3703
0.02 0.56 2.01 0.60 19.77 2.58 -1.13 0.55 3710
0.00 0.77 -2.81 0.48 16.72 2.58 -1.10 0.57 3717
0.02 0.89 -4.49 -1.02 14.09 2.80 -1.19 0.30 3723
0.01 0.94 -1.78 -2.99 15.09 3.00 -1.26 0.02 3729
-0.01 0.94 -0.88 -3.48 19.13 3.26 -1.04 -0.10 3736
0.01 1.01 -0.53 -5.37 38.40 2.94 -1.68 -0.22 3742
-0.01 1.04 1.44 -1.88 12.86 0.44 -0.79 0.04 3748
-0.01 1.06 0.07 -3.05 11.50 0.04 -0.15 0.17 3755
-0.00 1.07 0.21 -1.76 10.67 -0.03 -0.03 0.13 3761
-0.01 1.08 0.49 -0.85 9.97 -0.02 -0.01 0.10 3768
0.00 1.09 0.54 -0.42 9.98 -0.02 0.01 0.09 3774
0.01 1.08 0.92 -1.09 10.07 -0.03 0.01 0.09 3780
0.00 1.08 0.79 -1.09 10.05 -0.04 0.02 0.09 3786
-0.00 1.08 0.73 -1.16 10.05 -0.04 0.01 0.10 3792
0.02 1.08 0.63 -0.98 10.10 -0.04 0.01 0.08 3799
0.02 1.08 0.65 -0.82 10.11 -0.04 0.01 0.08 3806
0.01 1.11 0.72 -0.86 10.01 -0.04 0.01 0.06 3812
0.02 1.23 0.79 -0.84 9.91 -0.04 0.00 0.06 3818
0.02 1.18 0.72 -0.83 10.10 -0.04 0.00 0.06 3824
0.02 1.24 0.88 -0.73 9.95 -0.04 0.00 0.06 3830
0.04 1.23 0.66 -0.70 10.01 -0.03 0.00 0.06 3836
0.03 1.24 0.67 -0.73 10.04 -0.03 0.00 0.05 3844
0.02 1.24 0.71 -0.73 10.00 -0.02 -0.00 0.06 3850
0.03 1.20 0.79 -0.79 10.04 -0.01 -0.01 0.06 3856
0.03 1.14 0.74 -0.79 10.04 -0.01 -0.02 0.06 3862
0.04 1.11 0.74 -0.76 10.05 -0.00 -0.02 0.06 3868
0.05 1.07 0.76 -0.77 10.07 -0.00 -0.03 0.06 3875
0.04 1.03 0.72 -0.77 9.98 0.01 -0.04 0.07 3881
0.05 1.00 0.71 -0.75 10.06 0.00 -0.04 0.07 3888
0.06 1.00 0.69 -0.76 10.07 0.01 -0.03 0.07 3894
0.08 0.96 0.71 -0.74 10.01 0.01 -0.03 0.07 3900
0.07 0.92 0.72 -0.77 9.99 0.01 -0.03 0.06 3906
0.09 0.87 0.69 -0.79 9.99 0.01 -0.03 0.07 3913
0.10 0.81 0.74 -0.76 10.00 0.02 -0.03 0.07 3919
0.10 0.78 0.73 -0.75 9.96 0.01 -0.03 0.07 3926
0.10 0.74 0.71 -0.78 9.94 0.01 -0.03 0.06 3932
0.13 0.71 0.76 -0.79 9.95 0.01 -0.03 0.06 3938
0.12 0.65 0.74 -0.79 9.92 0.01 -0.03 0.06 3944
0.10 0.65 0.78 -0.77 10.00 0.01 -0.03 0.05 3950
0.12 0.65 0.73 -0.80 9.99 0.00 -0.03 0.06 3957
0.11 0.57 0.73 -0.77 9.94 0.00 -0.03 0.05 3963
0.09 0.58 0.74 -0.79 9.98 0.00 -0.03 0.05 3970
0.11 0.57 0.69 -0.79 9.97 0.00 -0.03 0.06 3976
0.11 0.54 0.70 -0.79 9.98 -0.00 -0.03 0.06 3982
0.10 0.57 0.74 -0.80 9.98 -0.00 -0.02 0.06 3988
0.10 0.58 0.72 -0.78 9.92 -0.01 -0.02 0.05 3994
0.11 0.56 0.71 -0.77 9.96 -0.00 -0.02 0.06 4001
0.10 0.55 0.73 -0.76 9.97 -0.00 -0.01 0.06 4007
0.09 0.52 0.75 -0.77 9.92 -0.00 -0.01 0.06 4014
0.11 0.50 0.74 -0.78 10.00 0.00 -0.01 0.06 4020
0.12 0.46 0.75 -0.78 10.01 0.00 -0.00 0.05 4026
0.12 0.49 0.73 -0.77 9.95 0.00 -0.01 0.05 4032
0.11 0.50 0.77 -0.79 9.95 -0.00 -0.00 0.05 4038
0.13 0.48 0.74 -0.77 9.89 -0.00 -0.00 0.05 4045
0.12 0.50 0.75 -0.78 9.93 -0.01 0.00 0.05 4051
0.11 0.49 0.80 -0.80 9.93 -0.00 -0.00 0.05 4058
0.14 0.43 0.76 -0.79 9.90 -0.00 -0.00 0.05 4064
0.14 0.40 0.76 -0.78 10.02 -0.00 -0.01 0.05 4070
0.14 0.37 0.74 -0.75 10.00 0.00 -0.00 0.05 4076
0.13 0.33 0.72 -0.79 9.81 0.00 0.00 0.05 4082
0.15 0.34 0.75 -0.75 10.02 0.00 0.01 0.04 4089
0.12 0.31 0.76 -0.76 9.97 0.00 0.02 0.05 4096
0.13 0.30 0.79 -0.81 9.97 0.00 0.02 0.05 4102
0.14 0.30 0.81 -0.79 9.96 0.00 0.02 0.04 4108
0.15 0.28 0.82 -0.79 9.96 -0.00 0.03 0.04 4114
0.16 0.24 0.80 -0.80 9.93 0.00 0.03 0.04 4120
0.14 0.22 0.86 -0.79 9.98 0.00 0.02 0.04 4126
0.17 0.23 0.83 -0.77 9.95 0.01 0.02 0.04 4132
0.17 0.16 0.83 -0.72 10.10 0.01 0.02 0.04 4140
0.18 0.15 0.78 -0.82 10.02 0.02 0.02 0.04 4146
0.19 0.14 0.78 -0.87 10.10 0.03 0.02 0.04 4152
0.21 0.06 0.84 -0.78 10.10 0.03 0.02 0.05 4158
0.23 0.05 0.84 -0.85 10.10 0.03 0.03 0.05 4164
0.26 0.04 0.80 -0.84 10.01 0.04 0.03 0.05 4171
0.26 0.02 0.82 -0.85 9.88 0.05 0.03 0.05 4177
0.27 0.00 0.81 -0.84 10.11 0.05 0.03 0.05 4184
0.30 -0.01 0.85 -0.81 10.08 0.06 0.04 0.05 4190
0.31 -0.01 1.02 -1.23 10.07 0.07 0.04 0.05 4196
0.34 -0.02 0.99 -0.62 10.23 0.09 0.04 0.05 4202
0.38 -0.02 0.95 -0.99 10.26 0.12 0.05 0.04 4209
0.41 -0.03 1.12 -0.99 10.26 0.17 0.09 0.03 4215
0.45 -0.04 1.31 -1.00 10.27 0.23 0.15 0.00 4221
0.47 -0.03 0.97 -1.01 10.88 0.36 0.24 -0.02 4228
0.46 -0.03 0.96 -0.94 11.74 0.61 0.40 -0.03 4234
0.44 -0.03 1.11 -1.10 12.77 1.02 0.57 -0.05 4241
0.42 -0.01 1.42 -1.38 13.80 1.56 0.70 -0.10 4247
0.41 -0.03 1.96 -1.03 14.27 2.04 0.63 -0.19 4253
0.39 -0.02 2.22 -1.18 15.20 2.37 0.41 -0.30 4259
0.38 -0.01 2.02 -1.81 15.66 2.71 0.17 -0.39 4267
0.36 -0.03 1.86 -1.58 16.37 3.04 0.03 -0.47 4273
0.32 -0.01 1.71 -1.63 17.05 3.33 -0.09 -0.46 4279
0.29 -0.01 2.25 -1.37 17.90 3.68 -0.18 -0.49 4285
0.24 -0.01 3.40 -1.09 18.15 4.04 -0.15 -0.57 4291
0.23 -0.00 3.36 -2.05 17.79 4.27 -0.26 -0.57 4298
0.17 -0.01 3.64 -2.53 16.80 4.28 -0.24 -0.61 4304
0.11 -0.00 2.97 -3.60 16.75 4.28 -0.21 -0.69 4311
0.12 -0.00 2.78 -3.91 19.36 4.28 -0.06 -0.71 4317
0.12 -0.01 3.11 -5.01 19.20 4.28 0.05 -0.67 4323
0.09 0.00 3.84 -5.12 21.29 4.28 0.11 -0.65 4330
0.09 -0.01 6.50 -5.25 23.13 4.28 0.34 -0.67 4336
0.08 -0.01 8.08 -4.86 23.99 4.27 0.36 -0.79 4342
0.08 -0.01 7.19 -4.08 22.82 4.17 0.35 -0.93 4348
0.07 -0.01 5.69 -2.76 21.49 3.95 0.43 -1.08 4355
0.05 -0.01 4.16 0.15 19.66 3.57 0.37 -1.18 4361
0.05 -0.01 2.22 0.23 14.26 3.32 0.20 -1.22 4368
0.06 -0.01 0.71 3.38 10.85 3.17 -0.15 -1.26 4374
0.04 -0.00 1.08 11.90 9.23 2.95 -0.50 -1.28 4380
0.03 -0.00 3.46 18.34 9.02 2.31 -0.59 -1.26 4386
0.05 -0.00 2.56 10.65 6.32 1.49 -0.58 -1.18 4392
0.05 -0.00 4.90 10.11 9.82 0.82 -0.59 -1.08 4399
0.04 -0.00 4.88 11.64 9.63 0.35 -0.43 -1.01 4406
0.04 0.01 3.61 10.22 7.45 -0.01 -0.24 -1.06 4412
0.05 -0.00 2.96 7.81 5.75 -0.16 -0.16 -1.14 4418
0.04 -0.00 2.29 6.91 4.90 -0.28 -0.17 -1.18 4424
0.05 -0.00 1.81 7.09 4.71 -0.37 -0.19 -1.19 4430
0.06 0.00 1.55 7.27 4.72 -0.46 -0.23 -1.19 4436
0.05 -0.01 1.60 6.91 5.10 -0.56 -0.28 -1.16 4443
0.05 -0.00 1.77 6.64 5.45 -0.64 -0.34 -1.11 4450
0.05 -0.00 1.89 6.50 5.76 -0.75 -0.38 -1.04 4456
0.06 -0.01 2.01 6.47 6.05 -0.88 -0.40 -0.95 4462
0.05 -0.00 2.13 6.28 6.27 -1.02 -0.39 -0.87 4468
0.05 -0.00 2.28 6.22 6.46 -1.17 -0.35 -0.76 4474
0.04 0.00 2.46 6.02 6.95 -1.32 -0.26 -0.65 4481
0.06 -0.01 2.65 5.67 7.57 -1.48 -0.17 -0.54 4487
0.05 -0.01 2.78 5.23 8.38 -1.65 -0.07 -0.44 4493
0.04 -0.00 2.97 4.98 9.13 -1.78 0.04 -0.35 4499
0.05 0.00 3.04 4.57 9.63 -1.96 0.13 -0.26 4506
0.04 -0.00 3.00 4.17 9.94 -2.13 0.22 -0.20 4512
0.04 -0.00 2.94 3.58 10.22 -2.30 0.29 -0.12 4518
0.03 -0.00 2.92 2.91 10.49 -2.44 0.35 -0.06 4525
0.05 -0.00 2.87 2.25 10.65 -2.56 0.39 -0.00 4531
0.04 -0.00 2.85 1.60 10.80 -2.65 0.43 0.04 4537
0.02 -0.00 2.86 0.99 11.07 -2.70 0.46 0.08 4543
0.04 -0.00 2.90 0.49 11.26 -2.75 0.49 0.10 4550
0.05 -0.00 2.92 0.10 11.55 -2.79 0.53 0.12 4556
0.04 -0.00 3.01 -0.19 11.73 -2.81 0.58 0.14 4562
0.04 -0.00 3.08 -0.58 11.96 -2.83 0.64 0.16 4569
0.05 -0.01 3.03 -0.99 12.37 -2.83 0.71 0.19 4575
0.05 -0.00 2.90 -1.41 12.83 -2.83 0.77 0.22 4581
0.04 -0.00 2.75 -1.72 13.28 -2.82 0.82 0.26 4587
0.05 -0.00 2.61 -2.00 13.76 -2.81 0.88 0.30 4594
0.05 -0.00 2.49 -2.23 14.14 -2.80 0.94 0.36 4600
0.05 -0.00 2.39 -2.47 14.62 -2.79 0.98 0.42 4606
0.05 -0.00 2.22 -2.68 14.84 -2.79 1.01 0.47 4613
0.05 -0.00 2.16 -2.99 14.94 -2.78 1.04 0.53 4619
0.04 -0.00 2.11 -3.35 15.10 -2.76 1.07 0.57 4625
0.04 -0.00 2.16 -3.64 15.24 -2.73 1.09 0.61 4632
0.05 -0.01 2.13 -3.86 15.40 -2.71 1.11 0.64 4638
0.05 -0.00 2.03 -4.08 15.61 -2.67 1.13 0.67 4644
0.05 -0.00 1.86 -4.23 15.79 -2.64 1.14 0.69 4651
0.06 -0.01 1.65 -4.40 15.85 -2.62 1.14 0.71 4657
0.05 -0.00 1.49 -4.67 15.72 -2.60 1.14 0.72 4663
0.05 -0.00 1.31 -5.03 15.63 -2.57 1.11 0.73 4670
0.06 -0.01 1.25 -5.36 15.50 -2.52 1.07 0.73 4676
0.05 -0.00 1.15 -5.62 15.30 -2.46 1.01 0.73 4682
0.04 -0.00 1.03 -5.81 15.00 -2.38 0.94 0.73 4688
0.05 -0.00 0.90 -6.08 14.13 -2.27 0.89 0.73 4695
0.04 -0.00 0.87 -6.27 14.62 -2.16 0.81 0.74 4701
0.04 -0.00 0.82 -6.36 14.66 -2.04 0.75 0.76 4708
0.05 -0.00 0.78 -6.24 14.54 -1.94 0.70 0.77 4714
0.05 -0.01 0.66 -6.27 14.76 -1.86 0.64 0.80 4720
0.05 -0.00 0.61 -6.39 14.85 -1.83 0.64 0.85 4726
0.05 -0.00 0.56 -6.44 14.70 -1.79 0.67 0.91 4732
0.06 -0.01 0.33 -6.57 14.36 -1.78 0.70 0.97 4739
0.05 -0.01 -0.11 -6.81 13.97 -1.77 0.74 1.03 4746
0.05 -0.01 -0.54 -7.45 13.92 -1.74 0.76 1.08 4752
0.06 -0.01 -1.49 -9.68 13.84 -1.67 0.68 1.12 4758
0.05 -0.00 -1.78 -8.73 17.44 -1.39 0.43 1.11 4764
0.05 -0.00 -2.07 -8.24 8.78 -1.51 0.48 1.14 4770
0.05 -0.01 -1.65 -11.17 9.52 -1.43 0.42 1.15 4776
0.06 -0.01 -1.02 -10.83 9.59 -1.38 0.34 1.11 4784
0.05 -0.00 -0.99 -12.38 10.42 -1.34 0.40 1.04 4790
0.06 -0.01 -1.40 -11.61 9.88 -1.24 0.43 0.95 4796
0.06 -0.01 -1.80 -13.05 8.63 -1.27 0.44 0.85 4802
0.05 -0.01 -2.05 -14.39 7.77 -1.18 0.41 0.71 4808
0.07 -0.00 -2.43 -15.33 7.27 -1.09 0.31 0.55 4815
0.07 -0.01 -2.22 -15.29 6.80 -0.85 0.19 0.40 4822
0.06 -0.01 -2.33 -16.83 10.28 -0.59 0.17 0.23 4828
0.07 -0.01 -2.34 -17.31 3.72 -0.35 0.12 0.05 4834
0.06 -0.01 -2.69 -18.17 4.11 0.01 -0.02 -0.12 4840
0.06 -0.01 -3.11 -16.92 8.44 0.53 -0.33 -0.29 4846
0.07 -0.00 -4.02 -18.34 1.11 0.50 -0.34 -0.41 4853
0.07 -0.01 -3.03 -20.81 11.39 1.10 -0.82 -0.51 4859
0.06 -0.01 -4.37 -19.51 5.19 1.24 -1.06 -0.55 4866
0.06 -0.01 -3.94 -20.39 4.89 1.48 -1.36 -0.56 4872
0.05 -0.01 -3.46 -21.61 5.00 1.75 -1.62 -0.52 4878
0.04 0.02 -2.96 -22.27 2.31 1.96 -1.76 -0.40 4885
0.05 0.07 0.91 -10.40 4.27 2.30 -1.66 -0.19 4891
0.04 0.20 3.08 -0.31 8.61 2.77 -1.38 -0.02 4897
0.02 0.47 2.19 -2.93 21.80 3.29 -1.44 0.05 4903
0.02 0.70 0.47 0.09 26.10 3.43 -1.63 0.07 4910
0.01 0.83 -0.49 -0.58 19.26 3.10 -1.53 0.03 4917
-0.00 0.92 0.15 -1.81 17.60 2.88 -1.47 -0.04 4923
0.02 0.88 -0.53 -4.05 19.65 2.94 -1.08 -0.02 4929
0.02 0.87 -1.76 -4.20 25.38 2.78 -0.81 -0.09 4935
0.01 0.85 1.51 -1.15 15.47 0.64 -0.95 -0.10 4941
0.01 0.83 0.94 -1.94 11.62 0.12 -0.22 0.08 4948
0.00 0.81 0.68 -1.40 10.53 -0.02 -0.02 0.07 4955
0.02 0.81 0.76 -0.63 9.58 0.01 -0.04 0.08 4961
0.02 0.79 0.98 -0.46 9.73 0.04 -0.06 0.08 4967
0.02 0.78 0.87 -0.43 10.22 0.03 -0.06 0.08 4973
0.01 0.83 0.83 -0.88 10.01 0.00 -0.05 0.08 4979
0.02 0.82 0.83 -1.12 10.12 -0.02 -0.04 0.07 4986
0.06 0.87 0.62 -1.11 10.04 -0.03 -0.02 0.06 4993
0.06 0.91 0.56 -0.92 10.05 -0.04 -0.01 0.06 4999
0.03 0.96 0.66 -0.74 9.82 -0.05 0.00 0.06 5005
0.02 0.96 0.82 -0.73 10.03 -0.05 0.01 0.05 5011
0.02 1.04 0.80 -0.76 9.99 -0.04 0.00 0.06 5018
0.03 1.09 0.73 -0.74 10.02 -0.04 0.02 0.06 5024
0.00 1.13 0.70 -0.75 10.07 -0.04 0.01 0.06 5030
-0.01 1.17 0.86 -0.73 10.23 -0.03 0.01 0.06 5037
0.02 1.15 0.74 -0.69 10.00 -0.03 0.02 0.06 5043
0.02 1.13 0.80 -0.69 10.06 -0.02 0.02 0.07 5049
0.02 1.10 0.81 -0.67 10.14 -0.01 0.02 0.06 5056
0.03 1.05 0.80 -0.71 10.03 -0.01 0.01 0.07 5062
0.02 1.02 0.80 -0.68 10.02 -0.00 0.01 0.07 5068
0.01 1.01 0.86 -0.74 10.02 -0.00 -0.00 0.07 5074
0.03 0.99 0.96 -0.85 10.13 -0.00 -0.01 0.07 5081
0.02 0.98 0.85 -0.69 9.97 -0.00 -0.01 0.08 5088
0.01 0.96 0.82 -0.70 10.03 -0.00 -0.02 0.07 5094
0.02 0.95 0.80 -0.70 10.02 0.00 -0.02 0.07 5100
0.03 0.92 0.82 -0.68 10.03 -0.00 -0.02 0.07 5106
0.03 0.90 0.82 -0.69 9.98 0.00 -0.03 0.07 5112
0.04 0.90 0.87 -0.67 9.94 0.00 -0.03 0.06 5118
0.06 0.85 0.87 -0.68 9.98 0.00 -0.03 0.07 5125
0.05 0.82 0.84 -0.68 9.96 -0.00 -0.04 0.07 5132
0.05 0.80 0.86 -0.69 9.96 -0.00 -0.04 0.06 5138
0.06 0.77 0.83 -0.70 9.95 0.00 -0.04 0.06 5144
0.06 0.75 0.85 -0.76 9.98 -0.00 -0.05 0.06 5150
0.05 0.73 0.80 -0.68 9.95 -0.00 -0.05 0.05 5156
0.05 0.74 0.80 -0.69 10.03 -0.00 -0.05 0.06 5163
0.06 0.71 0.78 -0.71 10.03 -0.00 -0.05 0.06 5169
0.05 0.69 0.78 -0.68 9.98 -0.00 -0.05 0.06 5176
0.06 0.69 0.80 -0.68 9.97 -0.00 -0.05 0.06 5182
0.07 0.67 0.75 -0.67 10.02 -0.00 -0.05 0.06 5188
0.07 0.65 0.79 -0.67 9.98 -0.00 -0.04 0.06 5194
0.06 0.64 0.81 -0.68 9.98 -0.00 -0.04 0.06 5200
0.07 0.64 0.79 -0.68 9.92 -0.00 -0.04 0.06 5207
0.08 0.64 0.79 -0.70 9.92 -0.00 -0.03 0.06 5213
0.07 0.60 0.79 -0.69 9.97 -0.00 -0.03 0.06 5220
0.07 0.59 0.79 -0.68 9.99 -0.00 -0.03 0.06 5226
0.08 0.57 0.79 -0.68 9.94 -0.00 -0.03 0.06 5232
0.08 0.56 0.79 -0.70 9.96 -0.00 -0.03 0.06 5238
0.07 0.55 0.82 -0.68 9.95 -0.01 -0.03 0.06 5244
0.09 0.55 0.75 -0.68 9.87 -0.01 -0.03 0.05 5251
0.08 0.51 0.79 -0.70 9.93 -0.01 -0.03 0.05 5257
0.07 0.52 0.80 -0.70 9.95 -0.01 -0.04 0.05 5263
0.07 0.54 0.81 -0.70 10.00 -0.01 -0.03 0.06 5270
0.09 0.54 0.79 -0.70 9.97 -0.01 -0.03 0.05 5276
0.08 0.50 0.79 -0.72 9.99 -0.01 -0.03 0.06 5282
0.06 0.49 0.79 -0.71 9.97 -0.01 -0.02 0.05 5288
0.06 0.46 0.79 -0.68 9.95 -0.01 -0.01 0.05 5295
0.06 0.49 0.79 -0.70 9.97 -0.01 -0.01 0.06 5301
0.05 0.46 0.77 -0.71 9.91 -0.01 -0.01 0.05 5308
0.04 0.47 0.78 -0.68 9.92 -0.02 -0.01 0.05 5314
0.08 0.44 0.83 -0.72 9.88 -0.01 -0.00 0.05 5320
0.08 0.42 0.81 -0.74 9.85 -0.02 -0.01 0.05 5326
0.07 0.43 0.86 -0.72 9.87 -0.02 -0.01 0.04 5332
0.09 0.42 0.84 -0.68 9.89 -0.01 -0.01 0.04 5339
0.12 0.36 0.83 -0.65 9.89 -0.01 -0.01 0.04 5345
0.14 0.35 0.92 -0.63 9.89 -0.00 -0.01 0.03 5352
0.13 0.31 0.85 -0.69 9.98 0.00 -0.01 0.04 5358
0.14 0.29 0.81 -0.65 10.06 0.01 -0.01 0.04 5364
0.13 0.24 0.85 -0.66 10.24 0.02 -0.01 0.04 5370
0.11 0.25 0.86 -0.67 10.07 0.03 -0.00 0.04 5377
0.18 0.18 0.92 -0.70 10.03 0.05 -0.00 0.04 5383
0.20 0.13 0.89 -0.73 10.08 0.05 0.00 0.04 5390
0.22 0.10 0.88 -0.86 10.10 0.06 0.00 0.04 5396
0.26 0.08 0.92 -0.76 10.12 0.06 0.01 0.05 5402
0.30 0.03 1.01 -0.79 10.19 0.07 0.01 0.04 5408
0.29 0.02 0.62 -0.29 10.05 0.08 0.02 0.04 5414
0.37 0.02 0.87 -0.80 10.20 0.11 0.04 0.05 5421
0.38 -0.01 0.70 -0.68 10.17 0.15 0.07 0.04 5428
0.39 -0.02 0.97 -1.11 10.36 0.23 0.09 0.04 5434
0.43 -0.03 0.99 -0.83 10.36 0.26 0.12 0.04 5440
0.48 -0.02 1.02 -0.86 10.96 0.39 0.21 0.02 5446
0.51 -0.03 1.25 -0.97 11.77 0.62 0.39 -0.01 5452
0.52 -0.03 1.34 -0.77 13.14 1.07 0.61 -0.05 5459
0.54 -0.03 1.60 -0.93 14.94 1.73 0.75 -0.12 5466
0.57 -0.03 1.82 -1.17 15.10 2.34 0.65 -0.20 5472
0.57 -0.04 1.71 -0.91 14.13 2.62 0.37 -0.27 5478
0.54 -0.03 1.54 -1.42 15.14 2.83 0.13 -0.32 5485
0.51 -0.01 1.26 -1.52 15.56 3.05 -0.00 -0.33 5491
0.47 -0.02 1.47 -1.38 15.66 3.31 -0.03 -0.32 5497
0.44 -0.01 1.74 -1.75 15.64 3.61 -0.04 -0.33 5504
0.39 -0.01 2.76 -1.79 16.36 3.92 -0.10 -0.37 5510
0.32 -0.01 3.49 -2.68 16.43 4.08 -0.13 -0.54 5517
0.20 -0.00 2.79 -2.93 17.77 4.26 -0.27 -0.46 5523
0.21 -0.00 3.43 -3.04 16.90 4.28 -0.26 -0.50 5529
0.18 -0.01 2.11 -3.70 15.98 4.28 -0.26 -0.56 5535
0.17 0.00 1.79 -5.00 17.55 4.28 -0.18 -0.50 5542
0.12 -0.01 3.28 -6.46 20.65 4.28 -0.09 -0.43 5549
0.10 -0.01 4.96 -6.60 22.51 4.28 -0.07 -0.46 5555
0.11 -0.01 6.10 -5.36 24.14 4.27 -0.10 -0.57 5561
0.08 -0.01 6.87 -5.14 25.47 4.18 -0.19 -0.69 5567
0.06 -0.00 4.98 -4.11 23.63 3.96 -0.26 -0.77 5574
0.09 -0.01 4.46 -3.71 22.95 3.50 -0.39 -0.84 5580
0.05 -0.01 3.54 -2.10 18.68 3.33 -0.48 -0.89 5586
0.05 -0.00 2.59 1.01 16.38 3.33 -0.63 -0.94 5593
0.05 -0.01 3.18 7.08 14.72 3.25 -0.92 -0.93 5599
0.04 -0.00 4.50 16.60 13.82 2.81 -1.22 -0.96 5605
0.04 -0.00 4.91 16.86 10.41 2.10 -1.23 -0.98 5612
0.05 -0.01 6.75 12.41 9.27 1.42 -1.12 -0.96 5618
0.04 -0.00 7.82 14.41 11.34 0.67 -0.80 -0.90 5624
0.03 -0.00 6.77 15.26 9.78 0.06 -0.32 -0.89 5630
0.04 0.00 5.22 12.82 7.69 -0.24 -0.02 -0.95 5637
0.04 -0.00 3.72 10.91 5.85 -0.37 0.04 -1.02 5644
0.04 -0.00 2.52 10.55 4.56 -0.49 0.03 -1.04 5650
0.05 0.00 2.00 10.49 4.01 -0.59 -0.03 -1.04 5656
0.05 -0.01 1.98 10.19 4.17 -0.69 -0.10 -1.00 5662
0.04 -0.00 2.32 9.88 4.51 -0.82 -0.17 -1.01 5668
0.04 -0.00 2.53 9.56 5.59 -0.95 -0.21 -0.96 5675
0.05 -0.01 3.02 9.24 5.24 -1.10 -0.21 -0.91 5681
0.04 -0.00 3.22 8.76 5.55 -1.27 -0.16 -0.84 5687
0.04 -0.00 3.25 8.33 5.95 -1.42 -0.10 -0.76 5694
0.04 -0.00 3.29 7.69 6.67 -1.60 -0.00 -0.68 5700
0.05 -0.01 3.43 7.00 7.41 -1.77 0.05 -0.58 5706
0.05 -0.00 3.54 6.10 8.55 -1.94 0.13 -0.52 5712
0.04 -0.00 3.50 5.15 8.44 -2.09 0.19 -0.45 5719
0.04 -0.00 3.51 4.31 8.98 -2.24 0.25 -0.36 5725
0.06 -0.01 3.65 3.44 9.38 -2.34 0.30 -0.28 5731
0.04 -0.00 3.75 2.77 9.79 -2.45 0.34 -0.19 5737
0.04 -0.00 3.90 2.18 10.00 -2.54 0.40 -0.13 5743
0.04 0.00 3.99 1.41 10.32 -2.61 0.49 -0.05 5750
0.04 -0.00 3.97 0.63 10.59 -2.67 0.60 0.01 5756
0.04 -0.00 3.94 -0.19 10.95 -2.72 0.72 0.07 5763
0.04 -0.00 3.72 -0.85 11.36 -2.74 0.82 0.12 5769
0.06 -0.01 3.47 -1.40 11.75 -2.74 0.90 0.18 5775
0.04 -0.00 3.23 -1.99 12.23 -2.73 0.97 0.25 5781
0.03 -0.00 3.08 -2.52 12.74 -2.72 1.02 0.32 5788
0.05 -0.01 2.92 -3.10 13.29 -2.71 1.04 0.38 5794
0.04 -0.00 2.77 -3.65 13.65 -2.69 1.04 0.45 5800
0.03 -0.00 2.64 -3.90 14.00 -2.67 1.02 0.53 5807
0.05 0.00 2.48 -4.24 14.40 -2.65 0.99 0.55 5813
0.05 -0.00 2.34 -4.43 14.76 -2.63 0.97 0.59 5819
0.04 -0.00 2.24 -4.69 15.05 -2.62 0.95 0.62 5826
0.05 -0.00 2.11 -4.96 15.37 -2.62 0.96 0.65 5832
0.05 -0.00 2.15 -5.18 15.62 -2.64 0.99 0.66 5838
0.04 -0.00 2.16 -5.36 15.85 -2.67 1.04 0.67 5844
0.04 -0.00 2.08 -5.43 15.76 -2.70 1.10 0.67 5851
0.06 -0.01 1.26 -5.68 15.57 -2.74 1.17 0.67 5857
0.04 -0.00 1.61 -5.93 15.25 -2.75 1.17 0.68 5864
0.04 -0.00 1.41 -6.23 14.77 -2.73 1.17 0.68 5870
0.06 -0.01 1.35 -6.59 14.52 -2.68 1.14 0.68 5876
0.04 -0.00 1.33 -6.89 14.08 -2.59 1.10 0.68 5882
0.04 -0.00 1.37 -7.14 13.69 -2.46 1.05 0.69 5889
0.05 -0.00 1.42 -7.36 13.32 -2.30 1.00 0.69 5895
0.05 0.00 1.48 -7.59 13.03 -2.12 0.95 0.69 5902
0.03 -0.00 1.40 -7.62 12.86 -1.94 0.88 0.70 5908
0.05 -0.00 1.26 -7.58 12.65 -1.79 0.81 0.72 5914
0.05 -0.00 1.09 -7.48 12.91 -1.62 0.73 0.75 5920
0.04 -0.00 0.90 -7.51 13.21 -1.47 0.63 0.78 5926
0.05 0.00 0.78 -6.77 13.74 -1.36 0.55 0.82 5933
0.05 -0.01 0.77 -7.13 13.88 -1.29 0.47 0.88 5940
0.04 -0.00 0.71 -7.01 13.86 -1.25 0.42 0.94 5946
0.04 -0.00 0.67 -7.14 13.57 -1.24 0.40 1.01 5952
0.05 -0.01 0.67 -7.25 13.51 -1.23 0.42 1.07 5958
0.04 -0.00 0.97 -7.38 13.07 -1.24 0.48 1.13 5964
0.04 -0.00 1.29 -7.49 12.47 -1.26 0.58 1.17 5970
0.05 -0.01 1.01 -7.92 13.16 -1.27 0.71 1.21 5978
0.04 -0.00 0.80 -8.07 11.61 -1.29 0.87 1.25 5984
0.04 0.00 0.20 -8.29 11.47 -1.30 0.95 1.28 5990
0.06 -0.00 -0.45 -8.60 11.28 -1.31 0.97 1.29 5996
0.04 -0.00 -1.17 -9.03 11.09 -1.31 0.91 1.29 6002
0.04 -0.00 -1.84 -9.52 10.83 -1.32 0.76 1.26 6008
0.06 -0.00 -2.27 -10.04 10.27 -1.30 0.58 1.22 6016
0.04 -0.00 -2.28 -10.71 9.46 -1.25 0.41 1.14 6022
0.05 0.00 -2.00 -11.49 8.50 -1.17 0.27 1.03 6028
0.05 -0.00 -1.54 -12.24 7.78 -1.07 0.20 0.87 6034
0.04 -0.00 -1.18 -12.88 7.21 -0.95 0.19 0.68 6040
0.04 -0.00 -1.06 -13.28 6.73 -0.80 0.23 0.47 6047
0.06 -0.01 -1.16 -13.56 6.39 -0.71 0.30 0.25 6053
0.04 -0.00 -1.36 -13.63 6.35 -0.58 0.36 0.05 6060
0.03 -0.00 -1.58 -13.59 6.44 -0.46 0.39 -0.13 6066
0.05 0.01 -1.74 -13.57 6.54 -0.33 0.37 -0.29 6072
0.04 -0.00 -1.75 -13.40 6.65 -0.21 0.31 -0.45 6078
0.03 -0.00 -1.34 -13.20 6.82 -0.09 0.21 -0.52 6085
0.04 0.01 -0.93 -13.31 6.78 0.01 0.13 -0.60 6091
0.05 -0.00 -6.45 -20.83 22.27 0.65 -0.62 -0.62 6097
0.03 -0.00 -1.52 -12.59 7.14 1.15 -1.12 -0.57 6104
0.04 0.00 -3.18 -13.14 2.94 1.30 -1.61 -0.53 6110
0.04 -0.00 -3.13 -17.39 4.54 1.53 -2.07 -0.41 6117
0.04 -0.00 -1.60 -17.94 5.81 1.67 -2.42 -0.24 6123
0.05 0.03 1.04 -8.63 4.62 1.83 -2.61 -0.08 6129
0.04 0.10 3.53 0.91 4.16 1.91 -2.24 0.10 6135
0.03 0.28 3.68 -1.08 10.65 2.22 -1.69 0.39 6141
0.01 0.62 -0.39 1.08 20.63 2.72 -1.46 0.60 6149
0.01 0.82 -4.29 1.29 17.66 3.07 -1.35 0.51 6155
-0.00 1.07 -3.84 -1.79 15.88 3.39 -1.47 0.20 6161
0.00 1.12 -2.16 -4.18 20.57 3.60 -1.46 -0.03 6167
0.00 1.09 -2.49 -5.82 24.01 3.59 -1.13 -0.16 6173
-0.01 1.04 -1.56 -5.15 32.66 2.61 -2.18 -0.29 6180
0.00 1.08 2.34 -2.61 13.65 0.66 -1.58 -0.12 6187
-0.01 1.09 0.66 -2.77 12.37 0.22 -0.66 0.08 6193
0.00 1.08 0.74 -1.61 10.41 0.04 -0.18 0.11 6199
-0.01 1.05 0.46 -0.53 10.18 0.06 -0.16 0.10 6206
-0.00 1.02 0.50 -0.51 10.09 0.08 -0.19 0.07 6212
0.01 1.03 0.57 -0.66 10.15 0.05 -0.15 0.07 6218
0.01 1.00 0.67 -0.92 10.19 0.02 -0.11 0.07 6224
-0.00 1.03 0.69 -1.07 10.11 0.00 -0.08 0.08 6231
0.01 1.05 0.65 -0.97 10.19 -0.00 -0.06 0.08 6237
-0.00 1.06 0.61 -0.83 10.18 -0.01 -0.04 0.07 6244
0.01 1.04 0.62 -0.79 10.08 -0.02 -0.04 0.07 6250
0.01 1.06 0.68 -0.87 10.03 -0.03 -0.03 0.07 6256
0.02 1.11 0.70 -0.79 10.05 -0.03 -0.03 0.07 6262
0.01 1.14 0.70 -0.77 9.96 -0.03 -0.02 0.07 6268
0.03 1.12 0.64 -0.79 10.02 -0.03 -0.02 0.06 6276
0.02 1.16 0.71 -0.72 10.02 -0.02 -0.01 0.07 6282
0.01 1.15 0.75 -0.72 10.05 -0.02 -0.01 0.07 6288
0.04 1.13 0.67 -0.72 10.00 -0.01 -0.01 0.07 6294
0.03 1.09 0.73 -0.75 10.03 -0.01 -0.01 0.07 6300
0.03 1.07 0.73 -0.74 10.02 -0.00 -0.01 0.07 6307
0.05 1.04 0.76 -0.76 10.01 0.00 -0.01 0.07 6313
0.03 1.02 0.71 -0.79 10.01 0.00 -0.02 0.08 6320
0.03 0.98 0.71 -0.75 9.99 0.01 -0.02 0.08 6326
0.04 0.96 0.70 -0.74 9.94 0.00 -0.02 0.07 6332
0.04 0.92 0.65 -0.75 9.98 0.01 -0.01 0.07 6338
0.03 0.89 0.72 -0.75 9.99 0.01 -0.02 0.08 6344
0.05 0.84 0.70 -0.72 9.96 0.01 -0.02 0.08 6351
0.05 0.82 0.71 -0.76 9.99 0.01 -0.02 0.07 6358
0.05 0.77 0.75 -0.75 9.92 0.01 -0.02 0.07 6364
0.06 0.72 0.73 -0.79 9.92 0.01 -0.02 0.07 6370
0.07 0.68 0.77 -0.74 9.95 0.01 -0.02 0.07 6376
0.06 0.64 0.80 -0.72 9.91 0.01 -0.02 0.06 6382
0.06 0.60 0.74 -0.76 9.89 0.01 -0.02 0.06 6388
0.06 0.57 0.73 -0.75 9.96 0.01 -0.02 0.06 6395
0.07 0.62 0.70 -0.75 10.04 0.01 -0.02 0.06 6402
0.07 0.54 0.69 -0.76 10.01 0.00 -0.03 0.06 6408
0.06 0.52 0.71 -0.77 9.98 0.00 -0.02 0.06 6414
0.08 0.51 0.70 -0.75 9.94 0.01 -0.02 0.06 6420
0.06 0.52 0.69 -0.75 9.98 0.00 -0.02 0.06 6426
0.07 0.48 0.68 -0.76 10.03 0.00 -0.02 0.06 6432
0.09 0.46 0.73 -0.71 9.95 0.00 -0.02 0.06 6439
0.10 0.45 0.72 -0.76 9.96 0.00 -0.01 0.10 6446
0.09 0.44 0.73 -0.79 9.99 -0.00 -0.01 0.06 6452
0.07 0.43 0.74 -0.78 9.98 0.00 -0.01 0.06 6458
0.09 0.40 0.80 -0.78 9.94 -0.00 -0.02 0.06 6464
0.08 0.40 0.79 -0.73 9.94 -0.00 -0.02 0.06 6470
0.08 0.39 0.74 -0.77 9.96 -0.00 -0.02 0.06 6476
0.08 0.39 0.75 -0.77 9.93 -0.01 -0.02 0.06 6483
0.09 0.38 0.79 -0.79 9.94 -0.01 -0.03 0.06 6490
0.09 0.38 0.74 -0.78 9.94 -0.01 -0.03 0.06 6496
0.09 0.37 0.74 -0.80 9.99 -0.01 -0.04 0.05 6502
0.10 0.37 0.73 -0.77 9.91 -0.01 -0.04 0.06 6508
0.12 0.33 0.70 -0.78 9.94 -0.02 -0.04 0.05 6514
0.09 0.34 0.71 -0.76 9.96 -0.02 -0.04 0.05 6520
0.12 0.39 0.71 -0.76 9.93 -0.02 -0.03 0.05 6526
0.11 0.38 0.70 -0.76 9.99 -0.02 -0.03 0.05 6534
0.09 0.39 0.72 -0.75 9.89 -0.02 -0.03 0.06 6540
0.09 0.38 0.73 -0.75 9.91 -0.02 -0.02 0.06 6546
0.12 0.34 0.75 -0.77 10.00 -0.01 -0.01 0.05 6552
0.10 0.34 0.64 -0.72 9.96 -0.01 -0.00 0.05 6558
0.09 0.33 0.78 -0.76 9.96 -0.01 0.00 0.05 6564
0.11 0.33 0.70 -0.72 10.07 -0.00 0.01 0.05 6572
0.11 0.28 0.74 -0.79 9.92 -0.00 0.02 0.05 6578
0.13 0.24 0.76 -0.80 9.95 -0.00 0.02 0.04 6584
0.12 0.28 0.79 -0.75 10.01 0.00 0.01 0.06 6590
0.15 0.23 0.79 -0.76 9.92 0.01 0.01 0.05 6596
0.16 0.21 0.84 -0.76 9.93 0.01 0.01 0.05 6602
0.17 0.18 0.80 -0.74 10.01 0.01 0.00 0.04 6608
0.17 0.16 0.80 -0.77 9.94 0.02 -0.00 0.05 6616
0.18 0.14 0.82 -0.78 9.95 0.02 -0.01 0.05 6622
0.21 0.10 0.81 -0.74 10.03 0.03 -0.01 0.05 6628
0.24 0.09 0.80 -0.80 10.11 0.04 -0.01 0.05 6634
0.26 0.06 0.79 -0.79 10.08 0.04 -0.01 0.05 6640
0.26 0.02 0.81 -0.71 10.05 0.06 -0.01 0.05 6646
0.27 0.01 0.80 -0.90 10.10 0.06 -0.01 0.06 6653
0.29 -0.00 0.83 -0.78 10.14 0.08 0.01 0.05 6660
0.35 -0.01 0.87 -0.84 10.25 0.10 0.02 0.05 6666
0.36 -0.02 0.87 -0.73 10.11 0.13 0.03 0.05 6672
0.39 -0.03 0.68 -0.78 10.01 0.17 0.06 0.04 6678
0.40 -0.03 0.86 -0.95 10.67 0.25 0.11 0.02 6685
0.44 -0.02 1.08 -0.96 10.87 0.38 0.21 -0.00 6691
0.43 -0.03 0.90 -1.02 11.64 0.65 0.35 -0.02 6697
0.45 -0.03 1.03 -1.07 12.71 1.10 0.53 -0.05 6704
0.46 -0.02 1.52 -1.22 13.93 1.69 0.68 -0.12 6710
0.46 -0.03 1.75 -1.20 14.17 2.19 0.63 -0.22 6717
0.45 -0.03 1.69 -1.20 15.88 2.50 0.40 -0.30 6723
0.44 -0.02 1.45 -1.43 15.41 2.73 0.17 -0.36 6729
0.41 -0.03 1.26 -1.11 15.76 2.94 0.02 -0.37 6735
0.39 -0.01 1.49 -1.53 16.37 3.19 -0.08 -0.37 6743
0.36 -0.01 1.81 -2.11 17.01 3.50 -0.10 -0.39 6749
0.26 -0.02 1.70 -1.68 16.61 3.85 -0.19 -0.41 6755
0.24 -0.00 3.31 -1.49 17.25 4.09 -0.23 -0.53 6761
0.17 -0.01 2.22 -2.05 17.07 4.26 -0.32 -0.46 6767
0.14 0.00 3.19 -3.21 18.08 4.28 -0.36 -0.49 6774
0.12 -0.00 2.74 -4.02 19.37 4.28 -0.38 -0.54 6780
0.12 -0.01 2.88 -4.62 21.89 4.28 -0.33 -0.59 6787
0.11 0.01 2.51 -5.71 20.06 4.28 -0.35 -0.60 6793
0.08 -0.01 2.84 -6.02 20.95 4.28 -0.23 -0.57 6800
0.08 -0.01 2.62 -4.38 22.11 4.20 -0.33 -0.59 6806
0.07 -0.00 1.20 -1.96 23.70 4.05 -0.64 -0.64 6812
0.06 -0.01 1.03 -0.80 24.02 3.76 -1.13 -0.66 6818
0.08 -0.01 2.17 1.32 21.71 3.36 -1.61 -0.64 6824
0.07 -0.01 3.41 5.37 17.62 3.05 -1.73 -0.60 6831
0.06 -0.01 4.13 14.82 12.92 2.99 -1.33 -0.54 6838
0.04 -0.00 5.06 16.92 8.95 2.60 -0.93 -0.52 6844
0.04 -0.00 3.78 30.42 8.68 1.89 -0.86 -0.79 6850
0.06 -0.01 3.99 19.66 6.26 0.71 -0.47 -1.19 6856
0.06 -0.01 4.36 20.06 10.21 -0.36 -0.19 -1.39 6862
0.05 -0.01 2.58 19.92 9.91 -1.08 0.14 -1.58 6870
0.06 -0.01 1.20 15.88 7.77 -1.49 0.23 -1.78 6876
0.05 -0.01 0.38 12.58 4.71 -1.65 0.05 -1.91 6882
0.05 -0.01 0.03 10.85 3.30 -1.69 -0.20 -1.96 6888
0.06 -0.01 0.33 10.10 3.23 -1.70 -0.42 -1.95 6894
0.05 -0.00 1.41 9.49 3.64 -1.72 -0.55 -1.90 6900
0.04 -0.00 2.96 8.54 4.60 -1.76 -0.59 -1.83 6906
0.05 -0.01 3.53 7.44 5.26 -1.83 -0.56 -1.77 6913
0.06 -0.01 4.26 7.46 5.83 -1.93 -0.46 -1.69 6920
0.05 -0.00 4.56 6.78 6.43 -2.05 -0.29 -1.60 6926
0.04 -0.00 4.88 5.91 7.38 -2.16 -0.09 -1.49 6932
0.05 -0.00 5.00 4.89 8.41 -2.26 0.14 -1.38 6938
0.04 -0.00 5.03 3.92 9.46 -2.33 0.35 -1.24 6944
0.05 -0.00 5.02 2.81 10.35 -2.40 0.54 -1.10 6950
0.05 -0.00 4.91 1.31 11.24 -2.47 0.68 -0.94 6957
0.06 -0.01 4.73 0.91 12.02 -2.54 0.81 -0.76 6964
0.05 -0.00 4.52 -0.04 12.57 -2.59 0.91 -0.59 6970
0.04 -0.00 4.29 -0.92 12.97 -2.62 0.97 -0.36 6976
0.05 -0.00 4.10 -1.86 13.18 -2.63 1.01 -0.11 6982
0.04 -0.00 4.06 -2.60 13.25 -2.61 1.03 0.13 6988
0.04 -0.00 3.97 -3.37 13.33 -2.59 1.05 0.37 6994
0.04 0.00 3.91 -3.92 13.42 -2.51 1.07 0.59 7002
0.04 -0.00 3.74 -4.34 13.46 -2.48 1.11 0.79 7008
0.03 -0.00 3.59 -4.65 13.44 -2.41 1.14 0.95 7014
0.04 0.00 3.28 -4.82 13.57 -2.33 1.16 1.10 7020
0.05 -0.00 3.02 -4.30 13.62 -2.23 1.19 1.24 7026
0.05 -0.00 2.68 -4.95 13.62 -2.15 1.19 1.31 7032
0.04 -0.00 2.41 -4.99 13.55 -2.05 1.17 1.38 7040
0.04 0.00 2.34 -5.15 14.24 -1.96 1.14 1.44 7046
0.04 -0.00 1.99 -5.24 13.54 -1.86 1.10 1.46 7052
0.04 0.01 1.92 -5.15 13.66 -1.78 1.07 1.46 7058
0.05 -0.00 1.96 -5.05 13.81 -1.73 1.03 1.43 7064
0.04 -0.00 1.85 -4.91 14.11 -1.70 0.99 1.39 7071
0.05 0.00 1.76 -4.70 14.20 -1.69 0.97 1.33 7077
0.05 0.00 1.72 -4.49 14.27 -1.71 0.95 1.27 7084
0.04 -0.00 1.71 -4.43 14.26 -1.75 0.96 1.21 7090
0.04 0.01 1.68 -4.56 14.16 -1.80 0.97 1.13 7096
0.04 0.00 1.56 -4.80 14.01 -1.84 0.98 1.06 7102
0.04 0.00 1.33 -4.97 13.83 -1.87 1.00 1.00 7109
0.05 0.01 1.06 -5.24 13.58 -1.87 1.00 0.93 7115
0.05 -0.01 0.89 -5.53 13.38 -1.86 0.98 0.87 7121
0.04 -0.00 0.75 -5.82 13.04 -1.81 0.92 0.81 7128
0.05 0.01 0.74 -5.99 12.72 -1.73 0.86 0.76 7134
0.05 -0.00 0.76 -6.12 12.30 -1.64 0.80 0.72 7141
0.05 -0.00 0.80 -6.20 11.99 -1.55 0.75 0.69 7147
0.05 -0.00 0.85 -6.24 11.86 -1.46 0.68 0.67 7153
0.05 -0.00 0.69 -6.13 11.87 -1.37 0.60 0.65 7159
0.05 -0.00 0.45 -6.00 11.78 -1.28 0.50 0.63 7165
0.05 0.01 0.42 -5.89 11.94 -1.22 0.42 0.63 7173
0.05 -0.00 0.48 -5.82 11.91 -1.16 0.32 0.63 7179
0.04 -0.00 0.53 -5.72 11.89 -1.12 0.23 0.62 7185
0.05 0.01 0.66 -5.53 11.84 -1.09 0.18 0.62 7191
0.05 0.00 0.89 -5.49 11.83 -1.08 0.20 0.62 7197
0.05 -0.00 1.26 -5.36 11.75 -1.09 0.27 0.62 7203
0.05 0.00 1.54 -5.23 11.51 -1.11 0.38 0.60 7211
0.05 0.00 1.56 -5.17 11.11 -1.15 0.53 0.59 7217
0.04 -0.00 1.32 -5.13 10.59 -1.19 0.69 0.58 7223
0.05 0.00 0.81 -5.17 10.07 -1.22 0.83 0.58 7229
0.05 -0.00 -0.16 -5.17 9.72 -1.23 0.96 0.60 7235
0.04 -0.00 -1.38 -5.29 9.44 -1.20 1.05 0.66 7241
0.04 -0.00 -2.25 -5.60 9.44 -1.14 1.07 0.72 7248
0.06 -0.00 -3.05 -6.04 9.42 -1.06 0.95 0.75 7255
0.05 -0.01 -3.31 -6.68 9.41 -0.97 0.71 0.75 7261
0.04 -0.00 -2.92 -7.21 9.18 -0.87 0.41 0.72 7267
0.05 -0.00 -2.24 -7.51 8.73 -0.75 0.12 0.65 7273
0.06 -0.01 -1.46 -7.60 8.32 -0.66 -0.06 0.57 7279
0.05 -0.01 -0.82 -7.81 7.95 -0.57 -0.11 0.47 7285
0.04 -0.00 -0.44 -8.15 7.85 -0.49 -0.09 0.36 7291
0.05 0.01 -0.28 -8.41 8.15 -0.43 -0.03 0.22 7299
0.06 -0.01 -0.37 -8.85 8.24 -0.38 0.05 0.11 7305
0.05 -0.00 -0.61 -9.33 8.31 -0.35 0.15 -0.04 7311
0.04 0.00 -0.76 -9.89 8.20 -0.32 0.23 -0.18 7317
0.06 -0.00 -0.80 -10.52 7.90 -0.28 0.28 -0.32 7323
0.06 -0.01 -1.04 -11.90 7.63 -0.23 0.30 -0.45 7329
0.04 -0.00 -4.29 -17.64 24.91 0.30 -0.21 -0.57 7335
0.05 -0.01 -2.91 -10.86 2.69 0.75 -0.31 -0.61 7343
0.05 -0.01 -3.82 -15.24 3.03 0.84 -0.61 -0.65 7349
0.04 -0.00 -3.74 -17.36 9.16 1.18 -1.14 -0.69 7355
0.05 -0.00 -3.85 -17.57 5.50 1.37 -1.52 -0.69 7361
0.05 -0.00 -3.98 -17.63 7.31 1.58 -1.95 -0.66 7367
0.04 0.00 -2.60 -18.34 5.07 1.77 -2.17 -0.55 7374
0.06 0.06 0.18 -14.44 5.15 1.96 -2.18 -0.33 7380
0.05 0.16 4.65 -0.30 6.81 2.25 -1.80 -0.06 7387
0.02 0.35 4.94 0.29 13.66 2.64 -1.40 0.23 7393
0.03 0.63 1.55 -0.08 22.69 2.91 -1.35 0.46 7399
0.01 0.81 -1.49 1.09 18.29 2.81 -1.25 0.49 7406
-0.01 1.00 -2.85 -0.74 15.01 2.88 -1.17 0.29 7412
0.01 1.05 -2.46 -3.42 18.28 3.15 -1.03 0.08 7418
0.00 1.09 -2.71 -4.79 24.57 3.28 -0.84 -0.13 7425
0.01 1.07 0.75 -1.90 26.16 1.87 -1.65 -0.28 7432
0.00 1.15 1.83 -2.89 12.04 0.24 -0.50 0.04 7438
-0.01 1.14 0.66 -2.43 11.36 0.03 -0.10 0.10 7444
0.00 1.20 0.75 -0.98 10.25 0.00 -0.05 0.12 7450
0.00 1.14 0.63 -0.17 9.84 0.05 -0.06 0.10 7456
-0.01 1.16 0.67 -0.37 10.29 0.05 -0.07 0.08 7462
0.01 1.19 0.85 -1.02 10.39 0.00 -0.04 0.08 7470
0.00 1.22 0.86 -1.12 10.11 -0.02 -0.01 0.08 7476
-0.00 1.20 0.74 -0.99 10.16 -0.03 0.00 0.08 7482
0.01 1.25 0.75 -0.72 10.05 -0.03 0.01 0.07 7488
-0.00 1.26 0.69 -0.64 10.05 -0.03 0.01 0.05 7494
-0.01 1.29 0.76 -0.79 10.06 -0.04 0.01 0.05 7501
-0.00 1.29 0.76 -0.77 10.04 -0.04 0.02 0.05 7507
-0.00 1.32 0.74 -0.76 10.06 -0.04 0.02 0.06 7514
-0.02 1.29 0.71 -0.72 10.16 -0.03 0.03 0.06 7520
0.00 1.30 0.80 -0.68 9.99 -0.03 0.03 0.06 7526
-0.00 1.30 0.77 -0.70 10.06 -0.03 0.03 0.05 7532
-0.02 1.27 0.80 -0.66 10.05 -0.03 0.03 0.05 7539
-0.00 1.29 0.80 -0.69 10.04 -0.02 0.04 0.06 7545
0.00 1.27 0.75 -0.69 10.00 -0.02 0.04 0.05 7552
-0.00 1.25 0.81 -0.68 10.03 -0.02 0.04 0.05 7558
0.00 1.25 0.83 -0.70 10.00 -0.02 0.04 0.06 7564
-0.00 1.23 0.86 -0.70 10.00 -0.02 0.04 0.06 7571
-0.01 1.19 0.87 -0.72 10.01 -0.02 0.03 0.06 7577
-0.00 1.18 0.85 -0.69 9.95 -0.01 0.02 0.06 7583
-0.00 1.12 0.91 -0.69 9.97 -0.02 0.01 0.06 7589
0.00 1.11 0.89 -0.65 9.91 -0.01 0.01 0.06 7596
0.00 1.08 0.92 -0.69 9.93 -0.00 -0.01 0.05 7602
0.01 1.10 0.92 -0.67 9.94 -0.00 -0.02 0.05 7608
0.01 1.06 0.88 -0.70 9.96 0.00 -0.03 0.05 7615
0.00 1.08 0.90 -0.70 9.93 0.00 -0.04 0.04 7621
0.01 1.06 0.87 -0.68 9.96 0.00 -0.05 0.03 7627
0.02 1.06 0.81 -0.68 9.93 0.00 -0.05 0.03 7633
0.01 1.04 0.83 -0.69 10.04 -0.00 -0.05 0.03 7640
0.01 1.04 0.88 -0.69 9.96 -0.00 -0.06 0.03 7646
0.01 1.03 0.86 -0.71 9.98 0.00 -0.05 0.03 7652
0.01 1.03 0.84 -0.69 10.02 -0.00 -0.06 0.03 7659
-0.00 1.02 0.80 -0.69 9.97 -0.00 -0.05 0.03 7665
0.01 1.02 0.81 -0.69 10.01 -0.00 -0.05 0.04 7671
0.02 1.00 0.77 -0.71 9.99 -0.00 -0.04 0.04 7677
0.01 0.98 0.81 -0.69 9.99 -0.00 -0.04 0.04 7684
0.01 0.99 0.84 -0.70 10.00 -0.00 -0.03 0.05 7690
0.03 0.98 0.82 -0.71 10.00 -0.00 -0.04 0.05 7697
0.01 0.98 0.80 -0.67 9.99 -0.00 -0.07 0.05 7703
0.01 0.98 0.85 -0.69 9.87 -0.00 -0.03 0.05 7709
0.01 0.97 0.81 -0.68 9.96 -0.00 -0.04 0.04 7715
0.02 0.95 0.82 -0.71 9.91 -0.00 -0.03 0.04 7721
0.02 0.93 0.85 -0.71 9.96 -0.00 -0.03 0.04 7728
0.02 0.93 0.84 -0.72 9.96 -0.00 -0.03 0.04 7734
0.03 0.91 0.81 -0.68 10.02 -0.00 -0.03 0.04 7741
0.03 0.88 0.80 -0.70 9.82 -0.00 -0.02 0.04 7747
0.02 0.88 0.83 -0.68 9.98 -0.00 -0.02 0.05 7753
0.02 0.87 0.80 -0.71 9.96 0.00 -0.02 0.05 7759
0.02 0.85 0.80 -0.70 9.96 0.00 -0.02 0.05 7766
0.02 0.83 0.83 -0.66 9.95 -0.00 -0.01 0.05 7772
0.02 0.83 0.81 -0.70 10.04 -0.00 -0.01 0.06 7778
0.03 0.83 0.80 -0.67 9.95 -0.00 -0.01 0.05 7784
0.03 0.81 0.78 -0.72 9.93 0.00 0.00 0.05 7791
0.04 0.77 0.81 -0.65 9.92 0.00 0.00 0.06 7797
0.05 0.76 0.83 -0.64 9.91 0.01 0.00 0.06 7803
0.05 0.74 0.80 -0.65 9.96 0.01 0.00 0.05 7810
0.04 0.72 0.84 -0.65 9.89 0.01 -0.00 0.05 7816
0.06 0.71 0.86 -0.67 9.85 0.01 -0.00 0.05 7822
0.06 0.67 0.92 -0.64 9.99 0.02 -0.01 0.05 7828
0.05 0.59 0.88 -0.68 9.99 0.02 -0.01 0.05 7834
0.04 0.53 0.80 -0.65 9.93 0.02 -0.01 0.05 7841
0.07 0.49 0.87 -0.67 9.96 0.03 -0.01 0.05 7847
0.10 0.45 0.86 -0.68 10.00 0.03 -0.01 0.05 7854
0.08 0.43 0.87 -0.64 10.00 0.03 -0.01 0.05 7860
0.11 0.33 0.82 -0.66 9.98 0.03 -0.00 0.05 7866
0.15 0.28 0.82 -0.69 10.04 0.04 -0.00 0.05 7872
0.13 0.28 0.85 -0.72 10.00 0.05 0.00 0.05 7879
0.14 0.23 0.94 -0.74 10.07 0.05 0.01 0.06 7885
0.16 0.17 0.94 -0.70 10.04 0.06 0.01 0.06 7891
0.20 0.13 0.89 -0.75 10.11 0.06 0.01 0.06 7898
0.21 0.07 0.87 -0.71 10.10 0.07 0.02 0.06 7904
0.24 0.04 1.11 -0.84 10.27 0.07 0.02 0.05 7911
0.24 0.01 0.89 -0.69 10.20 0.08 0.03 0.06 7917
0.26 0.01 0.93 -0.70 10.19 0.09 0.04 0.05 7923
0.29 -0.02 0.94 -0.51 10.31 0.11 0.06 0.04 7929
0.32 -0.03 1.10 -0.78 10.24 0.15 0.08 0.03 7936
0.35 -0.01 1.20 -0.93 9.86 0.22 0.15 0.00 7942
0.42 -0.02 1.24 -0.84 10.90 0.37 0.27 -0.03 7949
0.44 -0.02 1.11 -0.94 11.95 0.64 0.45 -0.05 7955
0.46 -0.02 1.47 -0.90 12.99 1.15 0.68 -0.09 7961
0.52 -0.03 1.96 -1.12 14.00 1.81 0.83 -0.17 7967
0.48 -0.03 2.11 -1.23 14.72 2.35 0.72 -0.26 7973
0.46 -0.02 1.70 -1.29 15.76 2.71 0.39 -0.34 7981
0.45 -0.03 1.61 -1.33 15.84 3.01 0.16 -0.39 7987
0.41 -0.02 1.51 -1.54 16.43 3.27 0.01 -0.40 7993
0.40 -0.02 1.59 -1.47 16.69 3.50 -0.04 -0.40 7999
0.36 -0.02 1.69 -2.09 17.43 3.87 -0.04 -0.41 8006
0.29 -0.01 2.06 -2.70 16.73 4.13 -0.10 -0.44 8012
0.30 -0.00 3.38 -0.46 15.74 4.19 -0.10 -0.66 8018
0.18 -0.01 2.25 -3.00 14.63 4.28 -0.22 -0.51 8025
0.17 -0.00 2.23 -3.87 17.11 4.28 -0.18 -0.57 8031
0.13 0.00 3.59 -3.92 15.76 4.28 -0.19 -0.66 8038
0.12 -0.00 2.35 -4.53 17.16 4.28 -0.29 -0.64 8044
0.12 0.00 2.99 -6.51 19.68 4.28 -0.06 -0.58 8050
0.09 -0.00 4.58 -6.54 22.02 4.28 0.07 -0.55 8056
0.08 -0.01 4.88 -5.34 22.80 4.28 0.09 -0.60 8064
0.07 -0.00 4.79 -3.42 23.77 4.19 0.07 -0.67 8070
0.07 -0.01 4.16 -1.57 24.35 3.91 -0.12 -0.77 8076
0.05 -0.00 4.38 -0.13 23.04 3.53 -0.46 -0.85 8082
0.07 -0.00 4.43 1.85 19.77 3.28 -0.75 -0.88 8088
0.06 -0.01 3.80 1.65 14.55 3.30 -0.61 -0.88 8094
0.04 -0.00 4.87 14.03 13.01 3.24 -0.71 -0.87 8101
0.05 -0.00 3.18 15.76 9.35 2.74 -0.83 -0.92 8108
0.05 -0.01 4.89 28.30 10.45 1.99 -0.73 -0.94 8114
0.04 -0.00 3.57 18.20 7.37 0.95 -0.41 -0.91 8120
0.04 0.00 4.67 17.30 11.17 0.04 -0.21 -0.80 8126
0.04 -0.00 3.59 17.94 10.21 -0.67 -0.04 -0.83 8133
0.03 -0.00 2.38 14.77 7.57 -1.05 0.01 -0.93 8139
0.04 0.00 1.85 11.00 6.39 -1.19 -0.08 -1.03 8145
0.05 -0.00 1.33 9.64 4.68 -1.25 -0.21 -1.09 8152
0.05 -0.00 1.37 9.31 3.91 -1.29 -0.30 -1.14 8158
0.05 -0.01 1.72 8.73 4.12 -1.33 -0.37 -1.17 8164
0.06 -0.01 2.43 7.96 4.70 -1.40 -0.38 -1.19 8170
0.05 -0.01 2.74 7.38 5.62 -1.49 -0.37 -1.18 8176
0.04 -0.00 3.02 7.03 6.33 -1.61 -0.33 -1.16 8183
0.06 -0.01 3.05 6.55 6.82 -1.77 -0.27 -1.13 8189
0.06 -0.01 3.00 5.91 7.43 -1.94 -0.20 -1.08 8196
0.05 -0.01 3.14 5.02 8.02 -2.12 -0.14 -1.02 8202
0.05 -0.00 3.23 4.20 8.36 -2.26 -0.09 -0.97 8208
0.04 0.00 3.42 3.40 8.89 -2.40 -0.00 -0.90 8214
0.05 -0.01 3.76 2.73 9.33 -2.52 0.06 -0.83 8220
0.04 -0.00 4.07 2.01 9.71 -2.61 0.18 -0.77 8226
0.03 -0.00 4.14 1.43 10.07 -2.69 0.32 -0.69 8233
0.04 0.00 4.16 0.89 10.64 -2.74 0.46 -0.59 8240
0.04 -0.00 4.05 0.31 11.35 -2.78 0.61 -0.48 8246
0.03 -0.00 3.82 -0.23 12.15 -2.81 0.75 -0.36 8252
0.04 0.00 3.49 -0.79 12.89 -2.85 0.86 -0.23 8258
0.05 -0.00 3.16 -1.55 13.53 -2.88 0.93 -0.09 8264
0.04 -0.00 2.93 -2.20 14.07 -2.91 0.97 0.06 8271
0.04 -0.00 2.62 -2.69 14.51 -2.92 0.97 0.22 8278
0.05 -0.00 2.44 -3.18 14.83 -2.93 0.96 0.34 8284
0.04 -0.00 2.38 -3.60 15.03 -2.92 0.94 0.48 8290
0.04 -0.00 2.35 -3.95 15.08 -2.90 0.92 0.62 8296
0.05 -0.01 2.29 -4.14 15.19 -2.88 0.92 0.76 8302
0.05 -0.00 2.32 -4.22 15.24 -2.84 0.94 0.88 8308
0.04 -0.00 2.27 -4.32 15.28 -2.80 0.97 0.99 8315
0.05 -0.01 2.11 -4.43 15.29 -2.77 0.99 1.08 8322
0.05 -0.01 1.92 -4.49 15.37 -2.72 1.02 1.15 8328
0.04 -0.00 1.65 -4.61 15.60 -2.68 1.02 1.20 8334
0.05 -0.00 1.45 -4.70 15.42 -2.64 1.01 1.24 8340
0.05 -0.01 1.28 -4.83 15.30 -2.60 0.98 1.25 8347
0.04 -0.00 1.29 -4.95 15.20 -2.56 0.93 1.24 8353
0.06 0.00 1.36 -5.03 15.07 -2.50 0.88 1.20 8359
0.05 -0.00 1.42 -5.08 14.88 -2.44 0.86 1.15 8366
0.05 -0.00 1.28 -5.20 14.79 -2.39 0.86 1.08 8372
0.05 -0.00 1.11 -5.46 14.54 -2.34 0.87 1.00 8378
0.05 -0.01 0.85 -5.74 14.31 -2.27 0.88 0.91 8385
0.05 -0.00 0.52 -6.07 13.93 -2.19 0.86 0.81 8391
0.04 -0.00 0.29 -6.35 13.59 -2.09 0.82 0.70 8397
0.06 -0.01 -0.09 -6.55 13.25 -1.96 0.73 0.62 8403
0.05 -0.00 -0.43 -6.67 12.95 -1.82 0.62 0.54 8410
0.04 -0.00 -0.75 -6.68 12.77 -1.67 0.49 0.47 8416
0.06 -0.01 -0.85 -6.72 12.71 -1.51 0.35 0.42 8422
0.06 -0.01 -0.70 -6.69 12.57 -1.37 0.22 0.38 8429
0.04 -0.00 -0.49 -6.55 12.44 -1.25 0.11 0.33 8435
0.05 0.00 -0.37 -6.71 12.40 -1.14 0.08 0.30 8441
0.06 -0.01 -0.10 -7.09 12.11 -1.11 0.14 0.28 8448
0.05 -0.01 0.08 -7.33 12.08 -1.08 0.24 0.25 8454
0.05 -0.01 0.14 -7.64 11.88 -1.07 0.40 0.22 8460
0.06 -0.01 0.18 -7.87 11.72 -1.10 0.58 0.19 8467
0.05 -0.01 0.21 -8.09 11.65 -1.17 0.77 0.16 8473
0.06 -0.01 -0.18 -8.20 11.50 -1.27 0.94 0.14 8479
0.07 -0.01 -0.92 -8.34 11.01 -1.35 1.05 0.14 8485
0.06 -0.01 -1.52 -8.74 10.51 -1.42 1.06 0.16 8492
0.05 -0.00 -2.08 -9.27 9.93 -1.45 0.98 0.20 8498
0.06 -0.00 -2.42 -9.83 9.34 -1.44 0.83 0.25 8504
0.06 -0.01 -2.47 -10.49 8.55 -1.37 0.64 0.27 8511
0.05 -0.00 -2.28 -11.16 7.70 -1.26 0.48 0.29 8517
0.06 -0.00 -2.02 -12.18 6.86 -1.12 0.32 0.29 8523
0.06 -0.01 -1.56 -12.03 6.30 -0.95 0.22 0.29 8529
0.05 -0.01 -1.01 -12.42 6.44 -0.78 0.16 0.25 8536
0.05 -0.00 -0.48 -12.73 6.84 -0.60 0.12 0.19 8543
0.06 -0.01 0.00 -12.84 7.12 -0.45 0.10 0.11 8549
0.06 -0.01 0.45 -12.81 7.15 -0.32 0.12 0.02 8555
0.05 -0.01 1.05 -12.79 7.12 -0.22 0.16 -0.06 8561
0.06 -0.01 1.48 -12.65 6.90 -0.14 0.22 -0.15 8567
0.04 -0.00 1.78 -12.40 6.85 -0.05 0.27 -0.22 8573
0.04 -0.00 1.85 -12.44 6.74 0.03 0.35 -0.27 8580
0.05 -0.01 -6.83 -18.17 33.65 0.62 -0.18 -0.21 8587
0.04 -0.00 1.48 -10.95 1.45 1.07 -0.29 -0.10 8593
0.04 -0.00 -1.49 -11.74 1.89 1.37 -1.05 -0.05 8599
0.05 -0.00 -3.08 -16.47 8.88 1.56 -1.71 0.10 8605
0.05 -0.00 -1.78 -16.20 5.66 1.72 -2.02 0.32 8611
0.03 0.03 -0.52 -15.23 2.15 1.86 -2.21 0.58 8619
0.04 0.11 2.63 -4.33 1.26 2.12 -2.02 0.90 8625
0.03 0.21 2.20 0.66 7.49 2.62 -1.35 1.22 8631
0.01 0.55 -1.89 -1.72 18.06 3.20 -1.04 1.41 8637
0.01 0.89 -7.56 0.45 20.53 3.64 -1.08 1.27 8643
-0.00 1.09 -9.42 -1.56 21.97 3.84 -1.07 0.74 8650
-0.02 1.19 -7.83 -3.92 23.51 3.77 -0.94 0.09 8656
-0.00 1.23 -4.33 -4.27 27.22 3.63 -0.63 -0.51 8663
-0.01 1.26 2.57 -3.89 33.03 2.58 -1.67 -0.80 8669
-0.01 1.26 5.22 -4.12 12.65 0.40 -1.17 -0.25 8676
-0.01 1.27 2.29 -2.70 12.25 0.16 -0.44 0.10 8682
-0.00 1.24 1.51 -1.32 9.59 0.10 -0.19 0.16 8688
-0.00 1.19 0.41 -0.58 10.00 0.17 -0.28 0.11 8694
-0.01 1.22 0.17 -0.16 10.19 0.15 -0.29 0.08 8700
-0.01 1.15 0.44 -0.78 10.95 0.06 -0.17 0.06 8708
-0.00 1.15 0.97 -1.34 10.30 0.01 -0.08 0.07 8714
-0.01 1.15 0.95 -1.24 10.13 -0.00 -0.04 0.08 8720
0.00 1.21 0.77 -0.86 10.17 -0.00 -0.04 0.08 8726
0.02 1.23 0.71 -0.66 10.04 -0.01 -0.03 0.06 8732
0.01 1.25 0.77 -0.83 10.04 -0.02 -0.02 0.05 8739
0.01 1.24 0.84 -0.91 10.07 -0.02 -0.02 0.05 8745
0.02 1.32 0.82 -0.81 10.07 -0.02 -0.01 0.06 8752
-0.01 1.31 0.94 -0.75 10.04 -0.02 -0.01 0.06 8758
-0.02 1.27 0.80 -0.74 10.08 -0.02 -0.00 0.06 8764
-0.01 1.27 0.83 -0.72 10.06 -0.02 -0.01 0.06 8770
-0.02 1.27 0.83 -0.72 10.01 -0.01 -0.01 0.06 8777
-0.01 1.24 0.89 -0.72 9.97 -0.01 -0.01 0.05 8783
-0.00 1.22 0.89 -0.73 9.98 -0.00 -0.02 0.05 8790
-0.01 1.18 0.88 -0.73 9.97 0.00 -0.03 0.05 8796
-0.03 1.16 0.90 -0.72 9.92 0.01 -0.04 0.06 8802
-0.01 1.12 0.85 -0.74 9.98 0.01 -0.05 0.05 8808
-0.01 1.05 0.83 -0.77 9.99 0.01 -0.06 0.05 8815
-0.01 0.98 0.81 -0.74 9.97 0.01 -0.06 0.06 8821
-0.00 1.01 0.83 -0.74 9.90 0.02 -0.07 0.06 8827
0.02 0.96 0.85 -0.74 9.94 0.02 -0.08 0.06 8834
0.02 0.96 0.85 -0.71 9.95 0.02 -0.08 0.06 8840
0.02 0.90 0.86 -0.71 9.92 0.02 -0.09 0.06 8846
0.03 0.91 0.83 -0.73 9.95 0.02 -0.09 0.05 8852
0.04 0.85 0.84 -0.73 9.87 0.02 -0.08 0.05 8859
0.04 0.79 0.80 -0.74 9.92 0.02 -0.09 0.05 8865
0.03 0.78 0.76 -0.77 9.90 0.01 -0.09 0.05 8871
0.05 0.77 0.78 -0.76 10.00 0.00 -0.09 0.05 8878
0.03 0.77 0.82 -0.75 9.95 0.00 -0.09 0.04 8884
0.01 0.73 0.84 -0.72 9.90 -0.00 -0.09 0.04 8890
0.04 0.72 0.79 -0.74 9.97 -0.00 -0.10 0.04 8896
0.04 0.70 0.76 -0.76 9.97 -0.00 -0.10 0.04 8902
0.04 0.68 0.78 -0.73 10.01 -0.01 -0.09 0.04 8909
0.04 0.70 0.71 -0.74 10.00 -0.00 -0.08 0.04 8915
0.04 0.68 0.69 -0.80 10.05 -0.00 -0.06 0.05 8922
0.04 0.63 0.74 -0.74 10.05 -0.01 -0.06 0.05 8928
0.04 0.63 0.73 -0.75 9.92 -0.00 -0.05 0.06 8934
0.07 0.63 0.68 -0.76 9.97 -0.00 -0.05 0.06 8940
0.06 0.61 0.71 -0.73 9.95 -0.01 -0.04 0.05 8947
0.06 0.62 0.71 -0.76 9.99 -0.01 -0.03 0.05 8953
0.08 0.60 0.74 -0.76 9.99 -0.01 -0.02 0.05 8960
0.08 0.57 0.73 -0.72 9.92 -0.01 -0.02 0.06 8966
0.08 0.58 0.71 -0.77 9.97 -0.01 -0.02 0.05 8972
0.08 0.59 0.74 -0.76 9.99 -0.01 -0.02 0.05 8978
0.10 0.57 0.77 -0.73 10.00 -0.00 -0.02 0.06 8985
0.09 0.54 0.75 -0.73 9.95 -0.00 -0.02 0.05 8991
0.07 0.52 0.74 -0.74 10.03 -0.00 -0.02 0.05 8997
0.10 0.54 0.75 -0.76 9.90 -0.00 -0.02 0.05 9004
0.09 0.48 0.75 -0.76 9.97 -0.00 -0.01 0.04 9010
0.08 0.45 0.78 -0.80 9.94 -0.00 -0.01 0.04 9016
0.09 0.45 0.78 -0.81 9.94 0.00 -0.00 0.04 9022
0.10 0.43 0.76 -0.78 9.92 -0.00 -0.00 0.04 9028
0.10 0.42 0.79 -0.76 9.93 -0.00 0.00 0.04 9035
0.10 0.40 0.76 -0.77 10.01 0.00 0.01 0.03 9041
0.14 0.37 0.76 -0.77 10.04 0.00 0.01 0.03 9048
0.14 0.33 0.79 -0.73 10.04 0.01 0.01 0.03 9054
0.11 0.35 0.81 -0.74 10.04 0.01 0.01 0.04 9060
0.18 0.32 0.81 -0.75 9.96 0.02 0.01 0.04 9066
0.16 0.26 0.80 -0.73 10.02 0.03 0.01 0.04 9073
0.15 0.26 0.80 -0.78 9.99 0.03 0.01 0.05 9079
0.18 0.22 0.78 -0.79 10.00 0.04 0.01 0.04 9085
0.21 0.16 0.85 -0.77 10.05 0.04 0.01 0.05 9092
0.24 0.10 0.83 -0.80 10.03 0.05 0.01 0.05 9098
0.24 0.07 0.83 -0.79 10.07 0.06 0.01 0.04 9105
0.30 0.04 0.84 -0.86 10.09 0.06 0.02 0.04 9111
0.35 0.03 0.79 -0.86 10.11 0.08 0.02 0.04 9117
0.39 0.02 1.07 -0.93 10.29 0.08 0.04 0.04 9123
0.42 -0.01 0.90 -0.86 10.22 0.13 0.06 0.04 9129
0.45 -0.03 0.12 -0.01 10.08 0.15 0.08 0.04 9136
0.46 -0.02 0.98 -0.91 10.60 0.22 0.10 0.04 9143
0.50 -0.03 1.11 -0.87 10.95 0.34 0.17 0.03 9149
0.53 -0.03 1.16 -0.97 11.63 0.60 0.31 -0.01 9155
0.55 -0.03 1.40 -1.00 12.86 1.08 0.57 -0.06 9161
0.57 -0.04 1.56 -0.95 14.83 1.76 0.74 -0.15 9167
0.54 -0.03 1.67 -1.28 15.79 2.31 0.65 -0.24 9175
0.52 -0.02 1.86 -1.31 15.63 2.63 0.37 -0.33 9181
0.52 -0.03 1.89 -1.35 15.37 2.86 0.05 -0.39 9187
0.45 -0.01 2.11 -1.65 15.84 3.12 -0.20 -0.42 9193
0.39 -0.02 2.49 -1.36 16.11 3.40 -0.32 -0.47 9200
0.35 -0.02 2.67 -1.69 16.67 3.71 -0.37 -0.56 9206
0.25 -0.00 3.10 -1.43 16.83 3.96 -0.47 -0.64 9212
0.21 0.00 2.94 -2.91 17.17 4.17 -0.56 -0.64 9219
0.19 -0.00 3.12 -2.99 15.51 4.25 -0.55 -0.71 9226
0.16 -0.01 2.89 -3.78 16.94 4.27 -0.42 -0.75 9232
0.10 -0.01 3.22 -5.49 18.66 4.28 -0.21 -0.74 9238
0.12 -0.00 3.44 -5.58 20.57 4.28 -0.19 -0.74 9244
0.11 -0.00 5.18 -4.39 22.85 4.28 -0.24 -0.78 9250
0.09 -0.01 5.68 -4.49 24.53 4.20 -0.38 -0.90 9257
0.09 -0.01 4.15 -3.22 24.27 3.94 -0.66 -1.04 9264
0.08 -0.01 4.33 -1.59 23.26 3.55 -0.96 -1.09 9270
0.06 -0.01 4.60 1.36 20.66 3.23 -1.17 -1.09 9276
0.05 -0.00 4.07 1.79 15.70 3.02 -1.13 -1.09 9282
0.08 -0.01 5.87 9.22 12.64 2.89 -1.10 -1.04 9288
0.05 -0.01 5.55 14.55 11.33 2.55 -1.06 -1.03 9295
0.05 -0.00 5.81 14.36 9.31 1.95 -0.88 -1.08 9302
0.06 -0.01 6.46 11.12 8.25 1.38 -0.70 -1.10 9308
0.05 -0.01 7.12 13.30 10.74 0.76 -0.44 -1.06 9314
0.04 -0.00 5.63 12.80 9.38 0.26 -0.15 -1.05 9320
0.05 -0.01 4.37 10.92 7.90 -0.03 0.00 -1.06 9326
0.05 -0.00 3.26 9.60 6.30 -0.20 0.02 -1.05 9333
0.04 -0.00 2.49 9.13 5.16 -0.32 -0.01 -1.01 9339
0.05 -0.00 2.31 8.74 4.79 -0.40 -0.05 -0.97 9346
0.06 -0.01 3.02 8.30 4.73 -0.50 -0.07 -0.92 9352
0.05 -0.01 2.65 7.96 4.93 -0.58 -0.09 -0.88 9358
0.05 -0.00 2.61 7.76 5.44 -0.68 -0.07 -0.82 9364
0.05 -0.00 2.75 7.61 5.29 -0.79 -0.01 -0.76 9370
0.06 -0.01 2.68 7.29 5.58 -0.91 0.06 -0.68 9376
0.05 -0.01 2.48 6.96 5.87 -1.03 0.11 -0.59 9382
0.05 -0.00 2.34 6.54 6.28 -1.16 0.14 -0.50 9389
0.05 -0.00 2.22 6.13 6.71 -1.28 0.17 -0.42 9396
0.06 -0.01 2.30 5.54 7.20 -1.39 0.21 -0.34 9402
0.04 -0.00 2.41 5.01 7.77 -1.50 0.26 -0.27 9408
0.04 -0.00 2.60 4.59 8.43 -1.63 0.34 -0.19 9414
0.04 -0.00 2.72 4.22 9.12 -1.78 0.44 -0.13 9420
0.05 -0.01 2.58 3.66 9.80 -1.91 0.52 -0.06 9426
0.04 -0.00 2.42 3.15 10.17 -2.07 0.59 0.00 9433
0.04 -0.00 2.23 2.67 10.55 -2.24 0.64 0.05 9439
0.04 -0.00 2.02 2.06 10.77 -2.37 0.68 0.12 9446
0.05 -0.00 1.86 1.20 10.96 -2.47 0.69 0.18 9452
0.04 -0.00 1.83 0.41 11.08 -2.53 0.69 0.23 9458
0.04 -0.00 1.88 -0.13 11.43 -2.56 0.68 0.28 9464
0.06 -0.01 1.98 -0.63 11.72 -2.56 0.67 0.32 9470
0.04 -0.00 2.15 -0.98 12.04 -2.55 0.68 0.37 9477
0.04 -0.00 2.25 -1.18 12.35 -2.54 0.69 0.42 9483
0.05 -0.01 2.35 -1.51 12.57 -2.52 0.73 0.46 9490
0.04 -0.00 2.41 -2.03 12.95 -2.50 0.80 0.53 9496
0.03 -0.00 2.42 -2.38 13.19 -2.47 0.84 0.54 9502
0.05 0.00 2.29 -2.78 13.51 -2.44 0.87 0.58 9508
0.04 -0.00 2.04 -3.15 13.75 -2.41 0.86 0.62 9515
0.04 -0.00 1.89 -3.48 14.11 -2.38 0.83 0.66 9521
0.05 0.00 1.78 -3.74 14.45 -2.34 0.79 0.70 9528
0.05 -0.00 1.91 -4.05 14.73 -2.32 0.74 0.73 9534
0.05 -0.00 2.07 -4.28 14.93 -2.31 0.72 0.75 9540
0.05 0.01 2.26 -4.47 15.17 -2.31 0.71 0.77 9546
0.05 -0.00 2.35 -4.64 15.25 -2.32 0.72 0.77 9552
0.05 -0.00 2.48 -4.79 15.05 -2.34 0.73 0.78 9560
0.05 -0.00 2.53 -4.96 14.96 -2.36 0.76 0.78 9566
0.05 -0.00 2.75 -5.22 14.91 -2.36 0.79 0.78 9572
0.04 -0.00 2.92 -5.43 14.81 -2.36 0.83 0.78 9578
0.04 -0.00 2.98 -5.56 14.57 -2.33 0.90 0.79 9584
0.05 -0.01 2.98 -5.77 14.37 -2.30 0.98 0.79 9590
0.04 -0.00 2.89 -5.98 14.11 -2.26 1.06 0.81 9596
0.04 -0.00 2.70 -6.21 13.83 -2.20 1.12 0.83 9604
0.05 0.00 2.49 -6.37 13.73 -2.13 1.16 0.86 9610
0.04 -0.00 2.23 -6.46 13.55 -2.04 1.17 0.89 9616
0.04 -0.00 1.97 -6.48 13.37 -1.94 1.15 0.93 9622
0.05 -0.00 1.66 -6.60 13.02 -1.83 1.13 0.98 9628
0.05 -0.00 1.39 -7.36 12.73 -1.72 1.09 1.02 9635
0.04 -0.00 1.07 -6.83 12.38 -1.59 1.03 1.07 9641
0.04 0.01 0.59 -6.91 12.11 -1.47 0.96 1.11 9648
0.04 -0.00 0.11 -7.07 11.95 -1.34 0.89 1.14 9654
0.04 -0.00 -0.42 -7.08 11.77 -1.22 0.78 1.17 9660
0.04 -0.00 -1.00 -7.08 11.79 -1.12 0.69 1.18 9666
0.04 -0.00 -1.55 -7.01 11.81 -1.06 0.63 1.20 9673
0.04 -0.00 -1.95 -7.09 12.22 -1.04 0.60 1.23 9679
0.05 -0.00 -1.94 -7.37 12.70 -1.07 0.59 1.23 9686
0.05 -0.00 -1.63 -7.96 12.44 -1.15 0.53 1.18 9692
0.05 -0.00 -1.46 -8.61 11.69 -1.25 0.47 1.12 9698
0.04 -0.00 -1.39 -9.43 10.43 -1.31 0.44 1.03 9704
0.05 -0.00 -1.24 -10.49 8.73 -1.32 0.45 0.91 9711
0.05 -0.00 -1.31 -11.63 7.99 -1.27 0.41 0.76 9717
0.04 -0.00 -1.00 -12.87 7.39 -1.12 0.45 0.57 9723
0.05 -0.01 -0.84 -13.73 6.60 -0.91 0.49 0.35 9730
0.05 -0.00 -1.32 -14.14 6.60 -0.68 0.52 0.11 9736
0.04 -0.00 -2.15 -15.03 7.25 -0.48 0.54 -0.10 9742
0.05 -0.01 -3.99 -18.23 9.80 -0.18 0.35 -0.30 9749
0.04 -0.00 -3.71 -14.26 2.20 0.24 0.23 -0.45 9755
0.03 -0.00 -4.55 -12.32 10.42 0.46 -0.08 -0.55 9761
0.05 -0.00 -3.92 -14.99 4.51 0.41 -0.14 -0.61 9767
0.05 -0.00 -3.62 -17.30 11.50 0.82 -0.80 -0.66 9774
0.03 -0.00 -2.99 -16.29 7.10 1.08 -1.05 -0.67 9780
0.05 0.00 -2.91 -16.87 4.17 1.25 -1.38 -0.67 9787
0.05 -0.00 -2.81 -19.60 4.02 1.45 -1.77 -0.62 9793
0.03 -0.00 -1.48 -20.96 4.04 1.70 -1.97 -0.47 9799
0.05 0.04 -1.09 -21.00 1.38 1.95 -2.07 -0.20 9805
0.04 0.11 0.97 -13.71 3.89 2.36 -1.96 0.18 9811
0.02 0.37 2.33 -2.12 12.93 3.07 -1.69 0.47 9819
0.03 0.62 -2.44 -3.49 25.63 3.67 -1.72 0.54 9825
0.00 0.85 -3.68 0.80 25.71 3.67 -1.62 0.37 9831
0.00 1.00 -1.64 -1.13 21.66 3.31 -1.41 0.11 9837
-0.00 1.09 -2.01 -4.45 26.90 3.15 -1.16 -0.10 9844
0.00 1.06 -0.26 -2.61 24.91 1.81 -1.84 -0.20 9850
0.00 1.01 2.11 -3.08 12.35 0.45 -0.99 0.03 9857
-0.00 1.03 0.47 -2.35 11.39 0.13 -0.31 0.15 9863
-0.01 1.03 0.73 -1.03 10.44 0.03 -0.11 0.14 9869
0.01 0.96 0.75 -0.19 9.74 0.04 -0.09 0.11 9876
0.01 0.96 0.80 -0.25 10.40 0.05 -0.13 0.09 9882
-0.01 0.94 0.97 -0.87 10.05 0.01 -0.11 0.09 9888
0.02 0.96 1.26 -1.27 9.77 -0.02 -0.06 0.10 9894
0.02 0.99 0.77 -1.33 10.21 -0.04 -0.03 0.10 9901
0.00 1.00 0.70 -0.95 10.24 -0.05 -0.02 0.09 9908
0.02 1.04 0.85 -0.76 10.08 -0.05 -0.01 0.07 9914
0.00 1.03 0.89 -0.72 9.98 -0.05 -0.01 0.06 9920
0.00 1.10 0.84 -0.81 9.93 -0.05 -0.01 0.06 9926
-0.00 1.12 0.83 -0.81 9.99 -0.05 -0.00 0.06 9932
0.01 1.15 0.81 -0.73 9.97 -0.05 0.00 0.06 9938
-0.00 1.14 0.84 -0.73 10.01 -0.05 0.01 0.06 9945
-0.01 1.15 0.97 -0.70 10.02 -0.04 0.01 0.06 9952
-0.00 1.15 0.92 -0.72 10.05 -0.03 0.01 0.06 9958
-0.00 1.14 0.92 -0.75 10.05 -0.03 -0.00 0.06 9964
-0.01 1.13 0.91 -0.68 10.04 -0.02 -0.00 0.06 9970
0.00 1.14 0.90 -0.71 10.06 -0.01 -0.01 0.06 9976
-0.01 1.13 0.93 -0.69 9.94 -0.01 -0.01 0.06 9984
-0.01 1.15 0.93 -0.71 10.00 -0.00 -0.02 0.07 9990
0.00 1.11 0.91 -0.71 10.06 -0.00 -0.02 0.06 9996
-0.01 1.07 0.92 -0.72 9.99 0.00 -0.03 0.07 10002
-0.00 1.04 0.92 -0.69 9.98 0.00 -0.03 0.07 10008
0.02 1.01 0.93 -0.73 9.99 0.00 -0.03 0.07 10014
0.01 0.95 0.89 -0.73 10.01 0.00 -0.03 0.06 10021
0.01 0.93 0.90 -0.70 9.95 0.00 -0.03 0.06 10028
0.02 0.91 0.91 -0.71 9.97 0.00 -0.03 0.06 10034
0.02 0.87 0.88 -0.72 9.94 0.00 -0.04 0.06 10040
0.02 0.86 0.92 -0.73 9.95 0.00 -0.04 0.06 10046
0.03 0.82 0.92 -0.72 9.93 -0.00 -0.04 0.05 10053
0.02 0.83 0.90 -0.75 9.97 -0.00 -0.04 0.05 10059
0.01 0.84 0.91 -0.69 9.94 -0.00 -0.04 0.05 10065
0.03 0.80 0.89 -0.74 9.95 -0.01 -0.04 0.05 10072
0.01 0.80 0.91 -0.70 9.94 -0.01 -0.03 0.05 10078
0.01 0.79 0.89 -0.71 9.93 -0.01 -0.04 0.05 10085
0.02 0.76 0.88 -0.71 9.97 -0.00 -0.03 0.05 10091
0.02 0.74 0.89 -0.71 9.99 -0.01 -0.03 0.05 10097
0.02 0.70 0.86 -0.72 9.95 -0.01 -0.03 0.06 10103
0.05 0.70 0.89 -0.72 9.92 -0.01 -0.03 0.05 10109
0.03 0.69 0.89 -0.72 9.92 -0.00 -0.03 0.06 10116
0.03 0.65 0.93 -0.70 9.95 -0.00 -0.02 0.05 10123
0.05 0.66 0.92 -0.68 9.97 0.00 -0.02 0.05 10129
0.04 0.67 0.89 -0.70 9.95 -0.00 -0.02 0.05 10135
0.04 0.66 0.87 -0.74 9.99 -0.00 -0.02 0.05 10141
0.06 0.66 0.87 -0.75 9.97 -0.01 -0.02 0.05 10147
0.06 0.63 0.90 -0.76 9.97 -0.01 -0.03 0.05 10153
0.04 0.62 0.90 -0.74 9.93 -0.01 -0.03 0.05 10161
0.06 0.63 0.95 -0.74 9.96 -0.02 -0.03 0.05 10167
0.05 0.64 0.92 -0.75 9.95 -0.02 -0.04 0.05 10173
0.03 0.63 0.88 -0.74 9.93 -0.02 -0.04 0.04 10179
0.05 0.65 0.93 -0.69 9.89 -0.02 -0.04 0.04 10185
0.05 0.64 0.86 -0.70 9.90 -0.02 -0.04 0.05 10192
0.03 0.62 0.83 -0.72 9.90 -0.03 -0.04 0.04 10199
0.04 0.64 0.86 -0.69 9.99 -0.02 -0.03 0.05 10205
0.05 0.63 0.86 -0.68 9.93 -0.02 -0.01 0.05 10211
0.03 0.62 0.87 -0.68 9.90 -0.01 0.01 0.05 10217
0.05 0.63 0.86 -0.70 9.97 -0.01 0.02 0.05 10223
0.05 0.60 0.90 -0.66 10.11 -0.00 0.04 0.06 10230
0.05 0.55 0.92 -0.70 9.97 -0.00 0.05 0.05 10236
0.07 0.57 0.92 -0.73 10.00 0.00 0.05 0.05 10243
0.07 0.52 0.91 -0.67 9.86 0.00 0.05 0.05 10249
0.07 0.41 0.96 -0.71 9.93 0.00 0.05 0.05 10255
0.07 0.46 0.99 -0.61 9.95 0.01 0.05 0.05 10262
0.10 0.40 1.00 -0.63 9.89 0.01 0.03 0.05 10268
0.06 0.40 0.99 -0.66 9.93 0.01 0.02 0.05 10274
0.10 0.34 1.00 -0.65 9.98 0.02 0.01 0.05 10280
0.11 0.30 1.01 -0.67 10.04 0.03 0.00 0.06 10287
0.11 0.25 1.04 -0.66 9.98 0.04 -0.00 0.06 10293
0.13 0.24 1.00 -0.71 9.98 0.05 -0.01 0.06 10300
0.15 0.20 0.97 -0.74 10.07 0.06 -0.01 0.06 10306
0.15 0.12 0.97 -0.77 10.16 0.07 -0.00 0.07 10312
0.20 0.05 0.97 -0.80 10.07 0.07 0.00 0.06 10318
0.21 0.05 0.92 -0.75 10.09 0.08 0.01 0.07 10326
0.24 0.01 0.95 -1.14 9.99 0.08 0.02 0.07 10332
0.29 -0.00 1.04 -0.74 10.06 0.10 0.03 0.07 10338
0.28 -0.02 1.32 -0.19 9.89 0.11 0.04 0.07 10344
0.28 -0.01 0.90 -0.77 10.24 0.15 0.06 0.08 10350
0.32 -0.03 1.17 -0.96 10.27 0.21 0.10 0.07 10357
0.33 -0.02 0.92 -0.62 10.65 0.32 0.18 0.06 10363
0.31 -0.00 1.06 -0.85 11.19 0.49 0.30 0.05 10370
0.34 -0.02 1.36 -0.98 11.78 0.79 0.47 0.03 10376
0.33 -0.02 1.57 -1.37 12.49 1.24 0.61 -0.02 10383
0.36 -0.03 2.06 -0.88 13.74 1.76 0.65 -0.11 10389
0.35 -0.03 1.99 -1.13 14.06 2.20 0.51 -0.22 10395
0.33 -0.01 1.88 -1.38 15.05 2.50 0.32 -0.31 10401
0.32 -0.02 2.02 -1.41 14.95 2.75 0.16 -0.38 10408
0.31 -0.01 2.26 -1.32 15.80 3.01 0.00 -0.44 10415
0.26 -0.01 2.90 -1.14 17.09 3.30 -0.09 -0.49 10421
0.24 -0.00 2.65 -2.11 16.23 3.59 -0.21 -0.53 10427
0.19 -0.00 1.82 -3.19 16.39 3.84 -0.33 -0.67 10434
0.17 -0.01 2.77 -2.91 18.57 4.16 -0.48 -0.70 10440
0.15 0.01 3.68 -2.52 16.18 4.24 -0.57 -0.71 10446
0.11 0.00 3.43 -3.45 15.67 4.27 -0.61 -0.80 10454
0.11 0.00 3.04 -4.54 18.02 4.28 -0.57 -0.83 10460
0.13 0.01 3.50 -4.79 18.99 4.28 -0.58 -0.84 10466
0.10 0.00 3.99 -5.72 20.57 4.28 -0.54 -0.83 10472
0.11 -0.00 5.85 -5.19 22.21 4.28 -0.30 -0.84 10479
0.09 -0.01 6.41 -4.78 22.86 4.26 -0.26 -0.94 10485
0.08 -0.00 5.52 -3.27 23.50 4.13 -0.31 -1.04 10491
0.09 -0.00 4.34 -3.67 22.20 3.79 -0.35 -1.08 10498
0.05 -0.01 4.93 0.12 20.56 3.37 -0.57 -1.15 10505
0.07 -0.01 4.11 3.49 19.17 3.18 -0.70 -1.18 10511
0.06 -0.01 4.45 8.33 10.73 3.20 -0.50 -1.16 10517
0.04 -0.00 3.71 15.95 6.90 2.91 -0.47 -1.03 10523
0.06 -0.01 3.89 24.22 6.61 2.41 -0.29 -0.83 10529
0.04 -0.00 3.30 21.60 6.34 1.49 0.02 -0.50 10536
0.05 -0.00 3.89 18.49 6.44 0.58 0.00 -0.19 10543
0.05 -0.01 4.18 18.73 9.29 -0.06 -0.03 0.00 10549
0.04 -0.00 2.78 16.50 6.95 -0.52 0.02 0.09 10555
0.04 -0.00 1.68 13.41 4.84 -0.77 0.07 0.12 10561
0.06 -0.00 1.08 11.98 3.93 -0.88 -0.00 0.12 10568
0.05 -0.01 0.49 11.50 4.28 -1.00 -0.11 0.08 10574
0.05 -0.00 0.33 11.05 5.39 -1.14 -0.19 0.04 10580
0.06 -0.01 0.70 10.37 6.69 -1.32 -0.24 0.00 10587
0.05 -0.00 1.31 9.92 8.06 -1.55 -0.28 -0.03 10593
0.05 -0.00 1.86 9.52 9.50 -1.83 -0.26 -0.06 10599
0.06 -0.00 2.01 9.09 10.55 -2.17 -0.20 -0.07 10606
0.05 -0.01 2.04 8.23 10.95 -2.43 -0.10 -0.08 10612
0.05 -0.00 1.97 6.98 11.45 -2.73 -0.01 -0.09 10618
0.05 -0.01 1.92 5.42 11.45 -2.97 0.05 -0.13 10625
0.04 -0.00 1.77 3.79 11.60 -3.14 0.10 -0.20 10631
0.05 -0.01 1.74 2.39 11.88 -3.25 0.14 -0.29 10638
0.05 -0.00 1.89 0.90 12.08 -3.30 0.16 -0.42 10644
0.04 -0.00 2.04 -0.12 12.53 -3.29 0.14 -0.50 10650
0.05 0.00 2.20 -0.72 12.81 -3.25 0.14 -0.61 10656
0.04 -0.00 2.30 -0.97 13.06 -3.20 0.19 -0.68 10663
0.04 -0.00 2.44 -1.10 13.59 -3.17 0.27 -0.73 10670
0.04 -0.00 2.64 -1.47 14.32 -3.17 0.34 -0.75 10676
0.04 -0.00 2.87 -2.03 14.91 -3.18 0.38 -0.75 10682
0.03 -0.00 3.13 -2.74 15.12 -3.20 0.38 -0.72 10688
0.05 -0.01 3.47 -3.36 15.26 -3.21 0.38 -0.66 10695
0.04 -0.00 3.81 -3.89 15.06 -3.18 0.38 -0.58 10701
0.04 -0.00 4.12 -4.48 14.69 -3.14 0.42 -0.48 10707
0.06 -0.01 4.41 -5.07 14.41 -3.06 0.47 -0.38 10714
0.04 -0.00 4.61 -5.42 14.09 -2.94 0.54 -0.27 10720
0.05 -0.00 4.77 -5.46 13.90 -2.79 0.61 -0.15 10727
0.05 -0.01 4.82 -5.44 13.85 -2.63 0.77 -0.04 10733
0.05 -0.00 4.70 -5.32 13.92 -2.51 0.86 0.08 10739
0.04 0.01 4.37 -5.19 13.93 -2.38 0.99 0.21 10745
0.05 -0.00 3.94 -5.18 13.90 -2.28 1.10 0.32 10752
0.03 -0.00 3.41 -5.13 13.74 -2.18 1.19 0.41 10759
0.05 -0.01 2.98 -5.25 13.45 -2.07 1.28 0.51 10765
0.04 -0.00 2.57 -5.31 13.27 -1.96 1.32 0.58 10771
0.04 -0.00 1.85 -5.23 12.82 -1.85 1.34 0.65 10777
0.06 -0.01 1.29 -5.14 12.49 -1.72 1.32 0.70 10784
0.05 -0.00 0.82 -5.07 12.15 -1.58 1.27 0.73 10790
0.05 -0.00 0.50 -5.10 12.01 -1.42 1.20 0.74 10797
0.05 -0.01 0.18 -5.16 11.85 -1.24 1.11 0.75 10803
0.04 -0.00 -0.08 -5.12 11.82 -1.06 1.01 0.74 10809
0.05 -0.00 -0.40 -5.17 11.84 -0.88 0.87 0.72 10816
0.05 -0.00 -0.68 -5.15 12.01 -0.72 0.73 0.71 10822
0.05 -0.00 -0.98 -4.97 12.08 -0.62 0.58 0.70 10828
0.05 0.00 -1.31 -4.79 12.43 -0.51 0.43 0.72 10834
0.04 -0.00 -1.32 -4.56 12.59 -0.45 0.32 0.75 10841
0.03 -0.00 -1.65 -4.28 13.07 -0.43 0.23 0.81 10848
0.05 -0.00 -1.79 -4.11 13.25 -0.46 0.17 0.90 10854
0.04 -0.00 -1.91 -4.06 13.38 -0.51 0.13 0.97 10860
0.04 -0.00 -1.92 -4.21 13.24 -0.58 0.09 1.10 10866
0.05 -0.01 -1.89 -4.56 13.41 -0.68 0.03 1.15 10872
0.05 -0.00 -1.80 -4.93 13.34 -0.80 -0.05 1.21 10880
0.04 -0.00 -1.47 -5.43 13.11 -0.91 -0.13 1.25 10886
0.06 -0.01 -1.05 -5.93 12.88 -1.05 -0.18 1.26 10892
0.05 -0.00 -0.45 -6.58 10.54 -1.19 -0.21 1.25 10898
0.05 -0.00 -0.41 -7.18 10.60 -1.32 -0.20 1.23 10904
0.05 -0.01 -0.12 -8.08 9.91 -1.36 -0.09 1.20 10911
0.04 -0.00 -0.01 -9.02 9.18 -1.37 0.03 1.15 10917
0.04 -0.00 -0.18 -9.82 8.47 -1.33 0.14 1.10 10924
0.06 -0.01 -0.49 -10.38 7.90 -1.24 0.26 1.03 10930
0.04 -0.00 -0.83 -10.97 7.43 -1.12 0.29 0.96 10936
0.05 -0.00 -1.29 -11.48 7.31 -0.99 0.30 0.88 10943
0.06 -0.01 -1.81 -11.83 7.17 -0.83 0.28 0.79 10949
0.05 -0.00 -2.10 -12.04 6.64 -0.67 0.24 0.68 10955
0.05 -0.00 -2.35 -12.25 6.42 -0.52 0.18 0.63 10961
0.05 -0.01 -2.30 -12.33 6.44 -0.38 0.12 0.54 10968
0.05 -0.01 -2.05 -12.39 6.75 -0.29 0.06 0.44 10975
0.06 -0.00 -1.65 -12.24 7.09 -0.24 -0.00 0.32 10981
0.05 -0.00 -1.12 -12.02 7.12 -0.22 -0.06 0.19 10987
0.03 -0.00 -0.63 -12.20 6.89 -0.20 -0.08 0.06 10993
0.05 -0.00 0.40 -17.00 31.10 0.57 -0.01 -0.19 10999
0.05 -0.00 -0.51 -12.44 0.90 0.69 -0.28 -0.31 11006
0.04 -0.00 -0.45 -16.03 7.77 1.22 -0.51 -0.52 11013
0.05 -0.01 -0.62 -17.00 3.25 1.38 -0.71 -0.65 11019
0.04 -0.00 -1.14 -19.24 3.00 1.54 -0.84 -0.69 11025
0.04 0.02 -1.48 -23.29 0.85 1.70 -1.05 -0.64 11032
0.04 0.09 -0.99 -17.68 -0.75 1.93 -1.14 -0.50 11038
0.02 0.24 4.84 -1.69 7.39 2.67 -1.04 -0.36 11044
0.02 0.55 1.43 -6.02 21.31 3.72 -1.39 -0.35 11051
0.00 0.78 1.88 -0.62 25.63 4.17 -1.56 -0.34 11058
0.00 0.88 2.75 -1.08 22.31 3.93 -1.45 -0.32 11064
0.01 0.99 2.12 -6.99 44.60 3.74 -2.00 -0.34 11070
-0.01 0.97 1.34 -2.70 18.20 1.06 -1.58 -0.08 11076
0.02 0.95 0.14 -4.75 13.12 0.16 -0.37 0.08 11083
-0.00 1.01 0.11 -2.39 10.99 -0.06 -0.03 0.10 11089
0.00 1.03 0.83 -0.96 10.14 -0.04 -0.01 0.08 11096
0.01 0.96 0.75 -0.19 9.65 0.01 -0.03 0.06 11102
0.01 0.92 0.90 -0.53 9.91 0.03 -0.04 0.06 11108
0.00 0.92 1.01 -0.85 9.84 0.01 -0.05 0.07 11115
0.01 0.94 0.78 -0.99 9.93 -0.00 -0.05 0.08 11121
0.00 0.94 0.58 -0.96 10.18 -0.01 -0.03 0.08 11127
0.03 0.95 0.52 -0.84 10.04 -0.02 -0.01 0.07 11133
0.03 0.96 0.76 -0.90 10.00 -0.03 0.00 0.07 11141
0.04 0.99 0.79 -0.87 9.99 -0.04 -0.00 0.07 11147
0.04 1.01 0.72 -0.83 10.01 -0.03 0.00 0.06 11153
0.02 1.07 0.72 -0.84 10.06 -0.04 0.00 0.06 11159
0.01 1.08 0.76 -0.83 10.06 -0.04 0.00 0.06 11165
0.01 1.12 0.81 -0.79 10.07 -0.04 0.00 0.07 11172
0.00 1.15 0.78 -0.77 10.00 -0.03 0.00 0.07 11179
0.01 1.18 0.76 -0.75 10.04 -0.03 0.00 0.06 11185
0.01 1.18 0.75 -0.77 10.02 -0.02 0.01 0.06 11191
-0.01 1.22 0.82 -0.74 10.01 -0.02 0.01 0.06 11198
0.02 1.21 0.75 -0.75 9.99 -0.01 0.00 0.06 11204
0.00 1.16 0.83 -0.72 9.92 -0.01 0.00 0.06 11210
0.01 1.11 0.87 -0.76 9.95 -0.00 -0.00 0.06 11216
0.03 1.09 0.90 -0.73 9.97 -0.00 -0.01 0.06 11223
0.01 1.10 0.86 -0.76 9.98 0.00 -0.02 0.06 11229
0.00 1.08 0.80 -0.74 9.98 0.00 -0.03 0.06 11236
0.02 1.06 0.79 -0.74 10.01 -0.00 -0.03 0.06 11242
0.02 1.03 0.81 -0.74 9.98 0.00 -0.04 0.06 11248
0.02 1.00 0.79 -0.72 9.97 0.01 -0.04 0.06 11254
0.03 0.98 0.85 -0.75 9.94 0.00 -0.04 0.06 11260
0.02 0.97 0.87 -0.72 9.96 0.00 -0.04 0.05 11268
0.02 0.95 0.81 -0.76 9.96 -0.00 -0.04 0.05 11274
0.03 0.92 0.78 -0.78 9.96 0.03 -0.05 0.05 11280
0.02 0.91 0.80 -0.77 9.94 0.00 -0.04 0.05 11286
0.01 0.88 0.82 -0.77 10.01 -0.00 -0.04 0.05 11292
0.02 0.84 0.79 -0.75 9.90 0.00 -0.04 0.05 11298
0.01 0.84 0.79 -0.74 9.96 -0.00 -0.04 0.05 11305
0.00 0.84 0.80 -0.78 9.94 -0.00 -0.04 0.05 11312
0.02 0.83 0.76 -0.77 9.97 -0.00 -0.04 0.05 11318
0.01 0.79 0.75 -0.78 9.97 -0.00 -0.04 0.06 11324
-0.01 0.78 0.78 -0.77 9.99 0.00 -0.03 0.05 11330
0.00 0.76 0.74 -0.79 9.99 -0.00 -0.03 0.05 11337
0.01 0.72 0.78 -0.78 9.99 -0.00 -0.03 0.05 11343
0.02 0.71 0.75 -0.76 9.94 -0.00 -0.02 0.05 11350
0.03 0.70 0.79 -0.74 9.93 -0.01 -0.02 0.05 11356
0.03 0.70 0.76 -0.74 9.96 -0.00 -0.02 0.06 11362
0.03 0.69 0.81 -0.77 10.00 -0.00 -0.02 0.05 11368
0.04 0.70 0.82 -0.79 9.98 -0.00 -0.01 0.05 11375
0.04 0.68 0.74 -0.78 9.95 -0.00 -0.01 0.05 11381
0.03 0.65 0.78 -0.78 9.89 -0.01 -0.01 0.05 11387
0.04 0.67 0.79 -0.77 9.98 -0.01 -0.01 0.05 11394
0.04 0.63 0.83 -0.77 9.99 -0.01 -0.01 0.05 11400
0.04 0.63 0.79 -0.77 9.96 -0.01 -0.01 0.06 11407
0.03 0.63 0.82 -0.77 9.97 -0.01 -0.01 0.05 11413
0.03 0.64 0.80 -0.77 9.93 -0.01 -0.01 0.05 11419
0.03 0.62 0.77 -0.76 10.03 -0.01 -0.01 0.05 11425
0.04 0.61 0.79 -0.79 9.93 -0.00 -0.00 0.05 11431
0.04 0.58 0.78 -0.77 9.98 -0.01 0.00 0.05 11438
0.04 0.57 0.77 -0.79 9.98 -0.01 0.01 0.05 11445
0.05 0.58 0.77 -0.76 9.88 -0.01 0.02 0.05 11451
0.06 0.54 0.75 -0.79 9.84 -0.01 0.03 0.04 11457
0.06 0.53 0.79 -0.77 9.93 -0.01 0.04 0.05 11463
0.07 0.52 0.87 -0.80 9.85 -0.01 0.03 0.04 11469
0.07 0.52 0.84 -0.79 9.84 -0.01 0.03 0.04 11476
0.05 0.49 0.84 -0.75 9.81 -0.01 0.03 0.04 11483
0.05 0.49 0.88 -0.72 9.95 -0.01 0.02 0.04 11489
0.05 0.48 0.85 -0.70 9.91 0.00 0.01 0.05 11495
0.08 0.40 0.87 -0.70 10.12 0.01 0.01 0.05 11501
0.10 0.36 0.83 -0.73 9.94 0.02 0.00 0.05 11507
0.11 0.34 0.89 -0.69 9.98 0.02 -0.01 0.05 11514
0.13 0.31 0.88 -0.75 9.99 0.03 -0.01 0.04 11521
0.18 0.26 0.90 -0.72 10.03 0.04 -0.02 0.05 11527
0.18 0.19 0.91 -0.75 10.07 0.05 -0.02 0.05 11533
0.19 0.18 0.96 -0.81 10.09 0.05 -0.03 0.05 11540
0.23 0.14 0.88 -0.74 10.06 0.06 -0.02 0.04 11546
0.24 0.05 0.93 -0.79 10.13 0.07 -0.01 0.04 11552
0.22 0.04 0.89 -0.86 10.20 0.08 0.01 0.04 11558
0.28 0.03 0.81 -0.52 10.16 0.09 0.02 0.04 11565
0.30 -0.01 0.98 -0.56 10.38 0.13 0.05 0.04 11572
0.35 0.00 1.08 -1.30 9.82 0.18 0.07 0.05 11578
0.38 -0.03 1.17 -1.38 10.66 0.27 0.12 0.04 11584
0.38 -0.03 1.27 -1.07 11.08 0.46 0.23 0.02 11590
0.43 -0.01 1.54 -0.89 12.35 0.84 0.46 -0.04 11597
0.42 -0.03 1.63 -1.03 14.25 1.50 0.74 -0.14 11603
0.47 -0.02 1.76 -1.00 15.83 2.28 0.78 -0.24 11610
0.46 -0.03 1.82 -1.83 15.96 2.70 0.54 -0.32 11616
0.43 -0.02 1.47 -1.27 15.15 2.97 0.16 -0.35 11623
0.39 -0.02 1.81 -1.45 16.43 3.20 -0.09 -0.38 11629
0.35 -0.03 1.84 -1.29 16.17 3.44 -0.16 -0.42 11635
0.31 -0.01 1.89 -1.49 15.85 3.72 -0.19 -0.44 11642
0.29 -0.01 2.05 -1.97 14.71 3.97 -0.25 -0.47 11649
0.22 0.01 2.13 -1.22 16.24 4.07 -0.25 -0.66 11655
0.18 0.01 2.55 -3.19 16.00 4.25 -0.37 -0.54 11661
0.14 0.01 2.79 -3.30 17.44 4.28 -0.18 -0.59 11668
0.17 0.01 2.74 -3.76 15.98 4.28 -0.09 -0.63 11674
0.14 0.00 2.56 -4.96 17.53 4.28 -0.18 -0.59 11680
0.09 0.01 4.12 -5.26 19.54 4.27 -0.10 -0.57 11686
0.09 0.00 5.67 -5.81 20.90 4.22 -0.13 -0.65 11694
0.07 -0.00 5.65 -5.49 20.65 4.13 -0.16 -0.77 11700
0.09 -0.01 4.53 -3.48 20.48 3.85 -0.15 -0.85 11706
0.08 -0.01 3.54 -3.85 19.35 3.42 -0.20 -0.90 11712
0.07 0.01 2.73 -3.08 17.59 3.07 -0.41 -0.93 11719
0.05 -0.00 1.74 -0.68 17.28 2.95 -0.59 -0.96 11725
0.04 -0.00 1.41 -0.02 13.31 2.94 -0.63 -0.96 11731
0.06 -0.01 2.00 5.82 11.84 2.80 -0.90 -0.98 11738
0.05 -0.00 3.62 13.12 11.51 2.43 -1.11 -1.05 11744
0.04 -0.00 2.87 9.75 9.35 1.90 -1.06 -1.14 11751
0.05 -0.00 4.56 7.05 9.45 1.52 -0.99 -1.17 11757
0.04 -0.00 4.62 8.64 10.72 1.08 -0.87 -1.16 11763
0.03 -0.00 3.84 9.03 9.65 0.72 -0.71 -1.22 11769
0.05 -0.00 3.32 7.53 7.81 0.53 -0.56 -1.27 11776
0.05 -0.00 2.84 6.96 6.68 0.45 -0.50 -1.31 11783
0.05 -0.00 2.38 6.49 5.54 0.38 -0.45 -1.31 11789
0.05 0.01 2.15 6.59 5.54 0.31 -0.41 -1.30 11795
0.05 -0.00 2.13 6.63 5.29 0.25 -0.41 -1.28 11801
0.04 -0.00 2.18 6.46 5.46 0.19 -0.42 -1.25 11807
0.05 -0.00 2.57 6.31 6.13 0.11 -0.38 -1.19 11813
0.05 -0.00 3.19 6.50 7.12 -0.04 -0.27 -1.12 11821
0.04 -0.00 3.87 6.96 8.20 -0.22 -0.09 -1.03 11827
0.05 -0.00 4.14 7.49 8.82 -0.51 0.12 -0.90 11833
0.05 -0.00 3.96 7.61 9.81 -0.90 0.30 -0.74 11839
0.05 -0.00 3.45 7.52 10.01 -1.32 0.48 -0.58 11845
0.05 -0.00 2.92 6.87 10.19 -1.70 0.55 -0.38 11851
0.05 -0.01 2.48 5.76 10.02 -2.03 0.53 -0.18 11858
0.04 -0.00 2.09 4.64 9.59 -2.25 0.47 0.00 11865
0.04 -0.00 1.90 3.59 9.01 -2.37 0.37 0.18 11871
0.05 -0.00 1.90 2.74 8.49 -2.42 0.26 0.31 11877
0.04 -0.00 2.08 2.04 8.14 -2.43 0.18 0.42 11883
0.03 -0.00 2.29 1.60 8.07 -2.41 0.14 0.49 11889
0.04 -0.00 2.52 1.27 8.25 -2.37 0.14 0.53 11895
0.04 -0.00 2.66 1.08 8.70 -2.34 0.18 0.54 11902
0.04 -0.00 2.79 0.88 9.79 -2.34 0.26 0.55 11909
0.04 -0.00 2.78 0.67 9.83 -2.35 0.35 0.53 11915
0.05 -0.00 2.71 0.50 10.77 -2.39 0.45 0.51 11921
0.04 -0.00 2.62 0.30 11.68 -2.45 0.55 0.48 11927
0.04 -0.00 2.55 0.12 12.58 -2.54 0.66 0.46 11933
0.05 -0.01 2.48 -0.05 13.29 -2.64 0.76 0.44 11940
0.04 -0.00 2.26 -0.38 13.67 -2.78 0.85 0.44 11947
0.04 -0.00 2.09 -0.87 13.84 -2.92 0.92 0.43 11953
0.05 -0.01 1.95 -1.52 14.06 -3.03 0.97 0.43 11959
0.04 -0.00 1.74 -2.32 14.00 -3.10 1.02 0.44 11965
0.04 -0.00 1.56 -2.93 14.06 -3.13 1.04 0.44 11972
0.04 -0.00 1.46 -4.26 14.13 -3.12 1.03 0.44 11978
0.04 -0.00 1.37 -4.08 14.17 -3.08 0.98 0.44 11984
0.04 0.00 1.36 -4.53 14.09 -3.00 0.91 0.44 11991
0.04 -0.00 1.56 -4.72 13.92 -2.92 0.85 0.45 11997
0.03 -0.00 1.83 -4.95 13.83 -2.81 0.82 0.46 12004
0.04 -0.00 2.07 -5.17 13.80 -2.71 0.81 0.46 12010
0.04 -0.00 2.25 -5.41 13.96 -2.61 0.82 0.46 12016
0.03 -0.00 2.31 -5.73 14.06 -2.51 0.83 0.46 12022
0.05 -0.00 2.12 -5.98 13.91 -2.40 0.82 0.45 12028
0.04 -0.00 1.82 -6.13 13.80 -2.30 0.77 0.46 12036
0.04 -0.00 1.45 -6.35 13.89 -2.18 0.69 0.47 12042
0.05 -0.01 1.29 -6.43 13.93 -2.06 0.60 0.50 12048
0.04 -0.00 1.30 -6.43 14.05 -1.94 0.48 0.53 12054
0.04 -0.00 1.39 -6.27 14.18 -1.84 0.43 0.56 12060
0.05 -0.00 1.54 -6.22 14.28 -1.76 0.38 0.60 12067
0.04 -0.00 1.81 -6.73 14.36 -1.70 0.37 0.64 12073
0.04 -0.00 1.90 -6.11 14.32 -1.67 0.41 0.70 12080
0.05 -0.00 1.98 -6.04 14.42 -1.65 0.47 0.71 12086
0.05 -0.00 1.95 -6.08 14.37 -1.64 0.56 0.77 12092
0.04 -0.00 1.93 -6.11 14.32 -1.65 0.67 0.83 12099
0.05 -0.00 1.86 -6.23 14.12 -1.66 0.77 0.90 12105
0.04 -0.00 1.56 -6.45 13.90 -1.66 0.85 0.98 12111
0.04 0.00 1.13 -6.77 13.76 -1.67 0.90 1.07 12118
0.04 -0.00 0.44 -6.77 13.57 -1.66 0.89 1.15 12125
0.03 -0.00 0.01 -7.34 14.00 -1.70 0.75 1.22 12131
0.04 -0.00 -0.22 -7.94 13.40 -1.71 0.68 1.27 12137
0.04 -0.00 -0.02 -8.50 12.84 -1.71 0.59 1.30 12143
0.03 -0.00 0.05 -8.94 12.04 -1.73 0.51 1.29 12149
0.05 -0.01 0.04 -9.52 11.07 -1.74 0.48 1.24 12156
0.04 -0.00 -0.60 -9.94 10.19 -1.74 0.51 1.17 12163
0.04 -0.00 -0.29 -10.46 9.65 -1.72 0.65 1.09 12169
0.06 -0.01 -0.72 -11.18 8.96 -1.68 0.87 0.98 12175
0.04 -0.00 -1.28 -12.28 8.47 -1.63 1.03 0.85 12181
0.04 -0.00 -1.59 -13.40 8.04 -1.54 1.03 0.69 12188
0.05 -0.00 -1.77 -14.45 7.51 -1.41 0.92 0.45 12194
0.04 -0.00 -1.57 -15.14 6.72 -1.22 0.78 0.18 12200
0.05 0.00 -1.21 -15.42 6.51 -1.01 0.63 -0.11 12207
0.04 -0.00 -0.47 -15.81 6.30 -0.80 0.59 -0.39 12213
0.04 -0.00 0.18 -15.79 6.05 -0.63 0.62 -0.65 12220
0.04 0.00 0.85 -15.58 6.01 -0.49 0.67 -0.87 12226
0.04 -0.00 0.46 -17.11 5.17 -0.34 0.70 -1.03 12232
0.04 -0.00 -3.33 -17.44 22.72 0.62 -0.05 -1.01 12238
0.04 -0.00 -2.95 -14.00 5.53 0.69 -0.24 -0.89 12246
0.03 -0.00 -2.98 -16.39 3.65 0.96 -1.04 -0.74 12252
0.04 -0.00 -3.00 -18.30 8.55 1.20 -1.72 -0.41 12258
0.04 -0.00 -0.26 -18.54 7.15 1.38 -2.17 0.06 12264
0.04 0.00 1.58 -17.99 2.81 1.56 -2.40 0.62 12270
0.04 0.12 5.73 -9.58 1.27 1.70 -2.38 1.21 12277
0.03 0.24 5.98 0.94 6.03 2.07 -1.57 1.76 12283
0.01 0.43 2.47 -1.48 14.15 2.58 -0.51 2.28 12290
0.02 0.74 -6.51 2.66 19.36 3.12 -0.50 2.42 12296
-0.00 1.01 -12.96 0.56 18.86 3.31 -0.93 1.93 12303
-0.01 1.19 -11.51 -1.76 20.18 3.40 -1.19 1.15 12309
-0.00 1.15 -10.66 -3.88 19.35 3.22 -1.01 0.44 12315
-0.01 1.19 -7.99 -3.29 21.12 2.90 -0.32 -0.22 12322
-0.02 1.25 -2.17 -2.21 20.46 2.44 0.01 -0.70 12328
-0.02 1.26 4.04 -2.08 20.55 1.89 -0.15 -0.87 12335
-0.02 1.25 5.92 -1.58 17.07 0.75 -0.82 -0.61 12342
-0.02 1.23 5.40 -2.12 9.99 0.35 -0.60 -0.12 12348
-0.01 1.18 2.44 -1.86 10.11 0.35 -0.53 0.11 12354
-0.02 1.24 0.99 -0.99 9.99 0.37 -0.62 0.17 12360
-0.01 1.23 0.29 -0.24 11.31 0.28 -0.60 0.12 12367
-0.02 1.24 0.54 -0.58 11.06 0.14 -0.41 0.05 12374
-0.02 1.24 0.80 -1.13 10.76 0.08 -0.28 0.02 12380
-0.00 1.24 1.07 -1.21 10.31 0.05 -0.21 0.03 12386
-0.02 1.26 0.89 -0.93 10.19 0.04 -0.16 0.06 12393
-0.02 1.27 1.14 -0.47 10.01 0.03 -0.13 0.06 12399
-0.03 1.34 0.85 -0.66 9.94 0.02 -0.11 0.05 12405
-0.03 1.34 0.89 -0.71 9.98 0.01 -0.10 0.05 12411
-0.02 1.32 0.91 -0.71 9.95 0.01 -0.10 0.05 12418
-0.02 1.28 0.87 -0.73 10.14 0.02 -0.09 0.05 12425
-0.03 1.28 0.74 -0.72 9.95 0.01 -0.07 0.05 12431
0.00 1.26 0.82 -0.69 9.95 0.01 -0.06 0.05 12437
0.00 1.24 0.77 -0.69 9.98 0.01 -0.06 0.06 12443
0.00 1.21 0.78 -0.72 10.03 0.02 -0.05 0.06 12449
-0.01 1.18 0.79 -0.73 10.00 0.02 -0.03 0.06 12456
-0.01 1.12 0.77 -0.70 9.99 0.02 -0.03 0.07 12463
-0.00 1.08 0.79 -0.68 9.95 0.02 -0.03 0.07 12469
0.01 1.02 0.79 -0.75 10.02 0.02 -0.02 0.07 12475
-0.02 0.97 0.81 -0.69 9.91 0.03 -0.02 0.07 12481
0.00 0.91 0.83 -0.71 9.99 0.03 -0.02 0.08 12488
0.02 0.84 0.81 -0.68 9.92 0.03 -0.02 0.07 12494
0.01 0.80 0.88 -0.70 9.95 0.03 -0.02 0.07 12500
0.03 0.79 0.84 -0.63 9.90 0.03 -0.03 0.07 12507
0.04 0.71 0.91 -0.71 9.90 0.03 -0.04 0.06 12513
0.03 0.66 0.88 -0.73 9.95 0.03 -0.05 0.05 12520
0.05 0.66 0.87 -0.73 9.95 0.03 -0.06 0.05 12526
0.06 0.65 0.84 -0.73 9.93 0.02 -0.07 0.04 12532
0.04 0.61 0.79 -0.75 9.96 0.02 -0.07 0.05 12538
0.05 0.60 0.80 -0.74 10.00 0.02 -0.06 0.04 12545
0.06 0.53 0.77 -0.73 9.93 0.01 -0.06 0.05 12552
0.04 0.49 0.75 -0.76 10.04 0.01 -0.05 0.05 12558
0.07 0.48 0.73 -0.74 9.99 0.01 -0.04 0.06 12564
0.08 0.47 0.74 -0.72 10.02 0.02 -0.03 0.06 12570
0.06 0.45 0.77 -0.72 9.98 0.01 -0.03 0.06 12576
0.08 0.47 0.81 -0.78 9.99 0.01 -0.02 0.06 12583
0.09 0.42 0.82 -0.78 9.90 0.01 -0.01 0.06 12590
0.08 0.41 0.82 -0.75 9.92 0.01 -0.01 0.06 12596
0.09 0.40 0.81 -0.77 9.92 0.00 -0.01 0.06 12602
0.10 0.35 0.86 -0.74 9.86 0.00 -0.01 0.06 12608
0.09 0.37 0.81 -0.74 9.93 0.00 -0.01 0.05 12614
0.10 0.34 0.84 -0.75 9.96 0.00 -0.02 0.05 12621
0.11 0.33 0.87 -0.74 9.92 -0.01 -0.02 0.05 12627
0.09 0.35 0.86 -0.76 10.01 -0.01 -0.03 0.05 12634
0.10 0.34 0.80 -0.74 9.97 -0.01 -0.03 0.05 12640
0.09 0.35 0.81 -0.73 9.90 -0.01 -0.02 0.05 12646
0.09 0.35 0.80 -0.78 9.93 -0.00 -0.02 0.05 12653
0.10 0.32 0.84 -0.74 9.94 -0.00 -0.02 0.05 12659
0.10 0.30 0.81 -0.78 9.95 -0.00 -0.02 0.05 12665
0.09 0.30 0.80 -0.77 9.95 -0.00 -0.02 0.05 12672
0.11 0.30 0.82 -0.75 9.90 -0.01 -0.02 0.04 12678
0.12 0.26 0.86 -0.74 10.01 -0.01 -0.02 0.05 12685
0.14 0.25 0.86 -0.76 9.95 -0.01 -0.01 0.04 12691
0.15 0.23 0.89 -0.76 9.95 -0.00 -0.00 0.04 12697
0.14 0.24 0.81 -0.73 9.94 -0.00 0.01 0.03 12703
0.13 0.21 0.87 -0.73 10.00 -0.00 0.01 0.03 12709
0.16 0.19 0.91 -0.77 9.99 0.00 0.01 0.03 12717
0.16 0.16 0.86 -0.73 10.03 0.01 0.02 0.03 12723
0.18 0.14 0.85 -0.75 10.08 0.02 0.02 0.03 12729
0.21 0.09 0.91 -0.73 10.08 0.02 0.02 0.03 12735
0.24 0.06 0.89 -0.76 10.04 0.03 0.01 0.04 12741
0.25 0.05 0.84 -0.80 9.98 0.03 0.01 0.04 12748
0.25 0.03 0.86 -0.83 10.05 0.05 0.01 0.04 12754
0.28 0.01 1.28 -1.17 10.23 0.05 0.03 0.04 12761
0.31 0.00 0.88 -0.82 10.12 0.07 0.04 0.03 12767
0.34 -0.01 0.89 -0.44 10.22 0.09 0.05 0.03 12774
0.33 -0.02 0.92 -0.50 10.20 0.11 0.07 0.03 12780
0.40 -0.03 0.94 -0.61 10.42 0.15 0.09 0.03 12786
0.44 -0.03 0.88 -0.83 10.88 0.22 0.13 0.02 12792
0.46 -0.02 1.05 -0.94 10.95 0.36 0.27 0.02 12798
0.46 -0.03 1.07 -0.90 11.67 0.63 0.42 0.00 12806
0.43 -0.03 1.25 -0.95 12.81 1.05 0.61 -0.03 12812
0.44 -0.03 1.37 -0.83 14.20 1.64 0.71 -0.10 12818
0.45 -0.04 1.73 -1.10 15.20 2.16 0.69 -0.17 12824
0.43 -0.01 1.76 -1.04 14.94 2.46 0.47 -0.24 12831
0.43 -0.02 1.48 -1.19 15.02 2.67 0.13 -0.27 12837
0.38 -0.03 1.88 -1.40 16.24 2.92 -0.07 -0.30 12844
0.31 -0.01 2.31 -1.50 16.41 3.22 -0.08 -0.35 12851
0.23 -0.02 2.86 -1.67 16.11 3.54 -0.05 -0.44 12857
0.21 -0.01 3.75 -3.37 14.70 3.83 -0.02 -0.55 12863
0.18 -0.01 2.30 -1.84 17.64 4.06 -0.09 -0.59 12869
0.14 -0.00 2.84 -3.03 16.46 4.15 -0.12 -0.58 12876
0.10 -0.00 4.49 -3.52 15.37 4.21 -0.00 -0.68 12882
0.06 -0.00 4.46 -3.54 17.62 4.22 0.18 -0.74 12889
0.08 -0.00 3.37 -4.39 19.69 4.21 0.37 -0.72 12895
0.08 -0.01 5.63 -3.69 20.23 4.19 0.47 -0.73 12902
0.08 -0.01 7.51 -3.86 21.49 4.02 0.66 -0.81 12908
0.08 -0.01 5.92 -0.89 21.73 3.73 0.72 -0.92 12914
0.06 -0.01 4.04 1.15 21.41 3.41 0.63 -1.04 12920
0.04 -0.00 2.09 4.63 19.53 3.11 0.32 -1.06 12926
0.04 -0.00 0.95 6.29 14.40 2.80 -0.11 -1.02 12934
0.04 -0.00 2.39 13.42 13.00 2.38 -0.52 -0.95 12940
0.07 -0.01 3.57 13.04 10.70 1.83 -0.75 -0.86 12946
0.05 -0.01 4.63 19.44 10.60 1.26 -0.71 -0.72 12952
0.04 -0.00 4.88 14.57 8.04 0.68 -0.47 -0.62 12959
0.05 -0.00 4.97 15.24 10.03 0.14 -0.31 -0.56 12965
0.03 -0.00 3.47 13.67 9.21 -0.29 -0.16 -0.58 12972
0.03 -0.00 2.28 11.71 7.17 -0.57 -0.13 -0.65 12978
0.04 -0.00 1.49 10.50 6.11 -0.75 -0.17 -0.69 12984
0.04 -0.00 1.00 9.90 5.86 -0.87 -0.21 -0.72 12991
0.05 0.00 1.00 9.35 5.85 -0.97 -0.24 -0.75 12997
0.05 -0.01 1.14 8.73 6.02 -1.07 -0.25 -0.77 13003
0.06 -0.01 1.25 8.30 6.08 -1.18 -0.25 -0.79 13009
0.05 -0.00 1.28 7.74 6.35 -1.29 -0.21 -0.80 13016
0.06 -0.01 1.22 7.31 6.77 -1.41 -0.16 -0.80 13022
0.05 -0.01 1.18 6.55 6.86 -1.51 -0.12 -0.79 13029
0.05 -0.00 1.19 5.72 7.21 -1.59 -0.10 -0.77 13035
0.06 -0.01 1.22 5.01 7.66 -1.64 -0.10 -0.75 13041
0.06 -0.01 1.42 4.41 8.06 -1.70 -0.11 -0.74 13047
0.05 -0.01 1.64 3.95 8.59 -1.70 -0.11 -0.72 13053
0.06 -0.01 1.90 3.59 9.38 -1.73 -0.11 -0.71 13060
0.05 -0.01 2.15 3.36 10.07 -1.78 -0.10 -0.69 13067
0.04 -0.00 2.38 3.15 10.72 -1.86 -0.05 -0.67 13073
0.05 -0.00 2.60 2.77 11.20 -1.97 0.05 -0.64 13079
0.04 -0.00 2.79 2.21 11.72 -2.08 0.16 -0.59 13085
0.03 -0.00 2.86 1.56 12.25 -2.20 0.27 -0.54 13091
0.05 -0.00 2.83 0.89 12.66 -2.30 0.35 -0.48 13099
0.05 -0.01 2.82 0.13 12.84 -2.38 0.39 -0.42 13105
0.05 -0.00 2.84 -0.52 12.90 -2.42 0.40 -0.35 13111
0.06 -0.00 2.91 -1.11 12.76 -2.43 0.40 -0.28 13117
0.05 -0.00 2.95 -1.57 12.77 -2.42 0.40 -0.18 13124
0.05 0.01 3.00 -1.88 12.76 -2.37 0.41 -0.08 13130
0.05 -0.00 3.08 -2.13 12.84 -2.32 0.42 0.02 13136
0.05 -0.00 3.14 -2.44 13.11 -2.27 0.44 0.12 13143
0.06 -0.01 3.31 -2.66 13.43 -2.21 0.47 0.22 13149
0.05 -0.00 3.42 -2.82 13.62 -2.14 0.53 0.31 13156
0.04 -0.00 3.56 -2.94 13.79 -2.14 0.60 0.39 13162
0.05 -0.00 3.54 -3.01 13.77 -2.12 0.67 0.48 13168
0.04 -0.00 3.44 -3.18 13.71 -2.10 0.76 0.56 13174
0.04 0.00 3.24 -3.44 13.58 -2.07 0.83 0.64 13181
0.05 -0.00 2.46 -3.63 13.46 -2.03 0.89 0.71 13188
0.04 -0.00 2.88 -3.90 13.34 -1.97 0.91 0.78 13194
0.05 0.00 2.58 -4.16 13.28 -1.90 0.94 0.82 13200
0.04 -0.00 2.30 -4.34 13.35 -1.82 0.95 0.86 13206
0.04 -0.00 2.07 -4.37 13.44 -1.75 0.94 0.88 13213
0.06 -0.00 1.70 -4.45 13.59 -1.69 0.91 0.90 13219
0.04 -0.00 1.41 -4.44 12.89 -1.64 0.86 0.90 13225
0.05 -0.00 1.17 -4.54 13.33 -1.60 0.79 0.91 13232
0.05 -0.01 0.98 -4.60 12.95 -1.55 0.70 0.91 13238
0.04 -0.00 0.84 -4.79 12.81 -1.48 0.62 0.91 13245
0.05 -0.00 0.75 -4.90 12.66 -1.40 0.54 0.91 13251
0.05 -0.01 0.77 -5.06 12.70 -1.31 0.46 0.90 13257
0.04 -0.00 0.85 -5.11 12.75 -1.24 0.40 0.89 13263
0.05 0.00 1.02 -5.23 12.90 -1.16 0.37 0.88 13270
0.05 -0.00 1.31 -5.25 13.04 -1.11 0.37 0.87 13277
0.03 -0.00 1.60 -5.26 13.19 -1.08 0.39 0.87 13283
0.05 0.00 1.88 -5.30 13.81 -1.09 0.44 0.86 13289
0.05 -0.00 2.05 -5.33 14.53 -1.17 0.50 0.86 13295
0.03 -0.00 2.03 -5.24 14.96 -1.32 0.57 0.87 13301
0.05 -0.00 1.93 -5.46 14.60 -1.54 0.64 0.88 13308
0.04 -0.00 1.82 -5.77 13.93 -1.79 0.69 0.89 13315
0.05 -0.00 1.47 -6.51 12.76 -2.00 0.74 0.91 13321
0.07 -0.01 1.17 -7.49 11.09 -2.14 0.77 0.93 13327
0.05 -0.00 0.78 -8.55 10.28 -2.17 0.79 0.92 13334
0.05 0.00 0.38 -9.48 8.88 -2.09 0.79 0.89 13340
0.05 -0.01 0.01 -10.33 7.86 -1.91 0.77 0.85 13346
0.05 -0.01 -0.34 -11.20 7.00 -1.68 0.76 0.79 13352
0.05 0.00 -0.76 -11.83 6.46 -1.40 0.73 0.71 13359
0.05 -0.00 -0.97 -12.21 6.51 -1.13 0.66 0.60 13366
0.04 0.00 -1.21 -12.33 6.94 -0.90 0.55 0.45 13372
0.06 -0.01 -1.30 -12.39 7.26 -0.74 0.43 0.30 13378
0.05 0.00 -1.07 -12.36 7.48 -0.65 0.35 0.15 13384
0.05 -0.00 -0.76 -12.52 7.48 -0.63 0.32 0.01 13390
0.06 -0.00 -0.49 -12.88 7.24 -0.63 0.33 -0.11 13398
0.04 -0.00 -0.28 -13.20 6.81 -0.63 0.37 -0.22 13404
0.05 0.00 -0.29 -13.29 6.43 -0.60 0.42 -0.29 13410
0.05 -0.01 -0.48 -13.25 6.33 -0.54 0.43 -0.34 13416
0.04 -0.00 -1.20 -12.96 6.38 -0.44 0.37 -0.36 13423
0.05 -0.01 -5.58 -20.60 36.11 0.16 -0.23 -0.33 13429
0.05 -0.01 -1.57 -10.41 -0.29 0.93 -0.63 -0.27 13435
0.05 -0.00 -4.36 -16.20 4.07 1.05 -1.38 -0.23 13442
0.05 -0.00 -3.47 -18.43 5.28 1.37 -1.73 -0.12 13449
0.05 -0.00 -0.30 -20.37 3.05 1.60 -1.91 -0.03 13455
0.05 0.07 -2.43 -19.68 -1.97 1.68 -1.90 0.23 13461
0.04 0.15 0.56 -9.01 1.08 2.10 -1.83 0.48 13467
0.02 0.43 0.62 -1.46 12.05 2.87 -1.34 0.61 13473
0.01 0.83 -2.62 -0.40 27.86 3.88 -1.38 0.57 13480
-0.01 1.18 -4.82 1.61 22.38 4.11 -1.40 0.34 13487
-0.01 1.35 -3.67 -1.77 21.94 4.12 -1.15 0.00 13493
-0.01 1.38 -3.84 -4.19 22.34 3.96 -0.84 -0.29 13500
-0.01 1.36 -1.42 -4.55 24.52 3.77 -0.64 -0.64 13506
-0.00 1.32 2.75 -1.47 31.02 2.53 -2.18 -0.68 13512
-0.02 1.27 5.75 -3.82 12.60 0.68 -1.43 -0.08 13518
0.01 1.29 1.69 -2.46 12.18 0.35 -0.68 0.11 13526
-0.00 1.24 0.71 -1.20 10.48 0.25 -0.49 0.15 13532
-0.01 1.24 0.40 -0.20 10.29 0.21 -0.42 0.07 13538
-0.01 1.23 0.40 -0.35 10.17 0.14 -0.31 0.06 13544
-0.02 1.20 0.85 -1.08 10.16 0.07 -0.20 0.06 13551
0.00 1.21 1.03 -1.33 10.23 0.03 -0.13 0.07 13557
-0.00 1.20 0.86 -1.17 10.15 0.02 -0.09 0.09 13563
0.00 1.23 0.69 -0.80 10.13 -0.00 -0.06 0.08 13570
-0.00 1.25 0.75 -0.81 10.08 -0.01 -0.04 0.06 13577
-0.02 1.26 0.90 -0.86 10.02 -0.02 -0.04 0.06 13583
-0.02 1.29 0.93 -0.87 9.96 -0.02 -0.03 0.06 13589
-0.02 1.28 0.87 -0.80 9.98 -0.02 -0.03 0.07 13595
-0.03 1.27 0.77 -0.72 10.01 -0.01 -0.03 0.06 13602
-0.00 1.21 0.82 -0.79 10.09 -0.01 -0.02 0.06 13608
-0.01 1.21 0.86 -0.80 9.99 -0.00 -0.02 0.06 13615
-0.01 1.17 0.89 -0.78 10.00 0.00 -0.03 0.06 13621
-0.01 1.09 0.80 -0.76 9.92 0.00 -0.03 0.06 13627
-0.00 1.04 0.86 -0.76 9.98 0.01 -0.04 0.05 13634
-0.00 1.06 0.87 -0.79 9.97 0.01 -0.04 0.06 13640
-0.00 0.98 0.82 -0.76 9.96 0.01 -0.04 0.05 13646
0.00 0.93 0.80 -0.75 10.00 0.01 -0.04 0.06 13652
0.02 0.90 0.81 -0.77 9.99 0.01 -0.04 0.06 13659
0.03 0.86 0.84 -0.78 9.96 0.01 -0.04 0.06 13666
0.02 0.81 0.85 -0.80 9.97 0.02 -0.04 0.06 13672
0.03 0.79 0.88 -0.82 9.94 0.01 -0.04 0.06 13678
0.04 0.76 0.85 -0.74 9.95 0.01 -0.05 0.05 13684
0.03 0.69 0.89 -0.77 9.87 0.01 -0.05 0.05 13690
0.04 0.67 0.87 -0.75 9.89 0.00 -0.05 0.05 13697
0.03 0.61 0.86 -0.76 9.92 0.01 -0.05 0.04 13704
0.02 0.60 0.86 -0.80 9.94 0.01 -0.06 0.04 13710
0.02 0.64 0.85 -0.81 9.99 0.00 -0.06 0.04 13716
0.03 0.61 0.85 -0.81 9.99 0.00 -0.06 0.04 13722
0.04 0.60 0.83 -0.78 9.95 -0.00 -0.06 0.04 13728
0.03 0.54 0.85 -0.80 9.94 0.00 -0.06 0.04 13735
0.04 0.57 0.83 -0.81 9.95 -0.00 -0.05 0.04 13742
0.04 0.56 0.81 -0.81 9.94 -0.00 -0.05 0.04 13748
0.04 0.58 0.79 -0.78 9.93 -0.00 -0.05 0.04 13754
0.04 0.57 0.76 -0.80 9.93 -0.00 -0.04 0.04 13760
0.05 0.56 0.79 -0.81 9.99 -0.01 -0.04 0.04 13766
0.05 0.57 0.79 -0.84 9.98 -0.01 -0.04 0.04 13773
0.06 0.57 0.80 -0.81 9.94 -0.01 -0.03 0.05 13779
0.05 0.57 0.79 -0.77 9.96 -0.01 -0.03 0.05 13786
0.05 0.57 0.81 -0.80 9.92 -0.01 -0.02 0.05 13792
0.06 0.57 0.83 -0.78 9.97 -0.01 -0.03 0.05 13798
0.06 0.56 0.81 -0.82 9.89 -0.01 -0.02 0.04 13805
0.04 0.58 0.84 -0.77 9.95 -0.01 -0.02 0.05 13811
0.06 0.59 0.82 -0.79 9.96 -0.01 -0.02 0.05 13817
0.05 0.60 0.80 -0.81 9.93 -0.02 -0.02 0.05 13824
0.05 0.61 0.82 -0.78 9.91 -0.01 -0.02 0.04 13830
0.06 0.59 0.86 -0.80 9.94 -0.01 -0.02 0.04 13836
0.03 0.59 0.82 -0.81 9.90 -0.01 -0.03 0.04 13843
0.04 0.60 0.81 -0.78 9.91 -0.01 -0.02 0.04 13849
0.03 0.58 0.78 -0.74 9.90 -0.00 -0.02 0.05 13855
0.02 0.58 0.75 -0.76 9.91 0.00 -0.02 0.05 13861
0.04 0.57 0.81 -0.75 9.89 0.00 -0.01 0.04 13868
0.07 0.56 0.80 -0.73 9.96 0.01 -0.01 0.04 13875
0.04 0.52 0.82 -0.77 9.93 0.01 0.03 0.04 13881
0.06 0.51 0.82 -0.76 9.96 0.01 0.01 0.04 13887
0.09 0.45 0.84 -0.81 9.93 0.01 0.01 0.05 13893
0.07 0.40 0.84 -0.80 10.07 0.02 0.02 0.05 13899
0.11 0.35 0.87 -0.81 9.98 0.03 0.03 0.05 13905
0.13 0.32 0.89 -0.81 9.95 0.03 0.03 0.05 13913
0.14 0.32 0.91 -0.80 9.97 0.03 0.03 0.04 13919
0.15 0.26 0.90 -0.81 10.02 0.03 0.03 0.04 13925
0.17 0.19 0.94 -0.80 10.08 0.04 0.03 0.05 13931
0.18 0.18 0.93 -0.80 10.03 0.05 0.03 0.05 13937
0.19 0.16 0.95 -0.69 10.07 0.05 0.03 0.05 13944
0.21 0.11 0.90 -0.80 10.14 0.05 0.03 0.04 13950
0.21 0.06 0.94 -0.89 10.10 0.06 0.03 0.05 13957
0.25 0.04 0.83 -0.84 10.12 0.07 0.04 0.05 13963
0.25 0.01 1.23 -1.15 10.32 0.08 0.05 0.05 13970
0.26 -0.01 0.87 -0.97 10.15 0.09 0.05 0.04 13976
0.28 -0.02 1.05 -0.87 10.17 0.11 0.07 0.04 13982
0.30 -0.03 1.21 -0.63 10.36 0.15 0.10 0.04 13988
0.33 -0.01 0.76 -0.97 11.15 0.26 0.20 0.01 13996
0.33 -0.02 1.80 -1.08 11.46 0.44 0.27 -0.02 14002
0.30 -0.03 1.60 -0.92 13.33 0.83 0.48 -0.08 14008
0.32 -0.02 2.26 -0.89 15.37 1.51 0.74 -0.21 14014
0.29 -0.03 2.34 -1.21 17.12 2.21 0.81 -0.38 14021
0.29 -0.01 2.47 -1.25 17.09 2.78 0.42 -0.52 14027
0.26 -0.02 2.62 -1.59 16.88 3.15 0.04 -0.60 14033
0.25 -0.02 2.45 -1.36 17.13 3.40 -0.20 -0.67 14040
0.22 -0.01 2.78 -1.47 17.39 3.71 -0.44 -0.72 14047
0.17 -0.01 3.84 -2.59 18.38 4.00 -0.52 -0.78 14053
0.19 0.00 4.15 -3.39 17.53 4.18 -0.61 -0.86 14059
0.14 -0.00 4.02 -2.39 17.40 4.26 -0.72 -0.92 14065
0.10 0.00 3.67 -3.19 16.32 4.28 -0.80 -0.94 14072
0.08 -0.00 4.15 -4.21 17.88 4.28 -0.67 -0.99 14078
0.08 0.00 4.50 -4.37 19.99 4.28 -0.36 -1.01 14085
0.09 0.00 4.59 -3.25 23.16 4.28 -0.31 -1.04 14091
0.08 -0.01 3.61 -2.19 26.22 4.17 -0.44 -1.14 14098
0.08 -0.01 2.13 -0.33 26.46 3.85 -0.77 -1.17 14104
0.08 -0.01 2.61 2.10 24.45 3.41 -1.14 -1.15 14110
0.05 -0.01 3.15 5.21 19.18 3.04 -1.33 -1.11 14116
0.07 -0.01 5.19 7.46 12.69 2.74 -1.39 -1.04 14124
0.05 -0.01 5.76 11.04 9.62 2.42 -1.25 -1.00 14130
0.03 -0.00 7.02 21.33 10.10 1.86 -0.97 -1.04 14136
0.05 -0.00 5.62 15.29 4.94 1.06 -0.53 -1.15 14142
0.05 -0.00 6.44 14.37 5.95 0.43 -0.13 -1.25 14148
0.05 -0.00 4.76 14.81 8.26 -0.10 0.23 -1.27 14155
0.07 -0.01 2.57 12.26 6.65 -0.52 0.44 -1.28 14161
0.05 -0.00 1.43 9.87 4.84 -0.73 0.35 -1.27 14168
0.04 -0.00 0.53 8.72 4.09 -0.79 0.10 -1.21 14174
0.06 -0.01 0.38 8.42 3.61 -0.88 -0.16 -1.11 14180
0.05 -0.00 1.17 8.07 3.67 -0.97 -0.27 -1.01 14186
0.04 -0.00 2.30 7.55 3.99 -1.05 -0.33 -0.88 14193
0.05 0.00 3.14 7.09 4.32 -1.15 -0.29 -0.81 14199
0.05 -0.00 3.57 6.82 4.58 -1.25 -0.14 -0.71 14205
0.04 -0.00 3.49 6.43 4.88 -1.34 0.03 -0.61 14212
0.05 0.01 3.11 5.88 5.52 -1.43 0.18 -0.50 14218
0.04 -0.00 2.73 5.22 6.09 -1.49 0.28 -0.37 14224
0.04 -0.00 2.43 4.65 6.90 -1.57 0.32 -0.24 14231
0.05 0.00 2.19 4.13 7.51 -1.57 0.34 -0.11 14237
0.05 -0.00 2.09 3.64 8.31 -1.62 0.35 0.00 14243
0.04 -0.00 2.06 3.31 9.14 -1.67 0.37 0.08 14249
0.04 -0.00 1.90 2.78 10.42 -1.73 0.40 0.13 14256
0.05 -0.00 1.92 2.29 10.50 -1.80 0.45 0.18 14263
0.05 -0.00 1.86 1.61 11.04 -1.88 0.52 0.21 14269
0.04 -0.00 1.70 1.03 11.46 -1.96 0.59 0.25 14275
0.05 -0.01 1.58 0.52 11.92 -2.04 0.62 0.28 14281
0.04 -0.00 1.47 -0.03 12.20 -2.09 0.63 0.30 14287
0.04 -0.00 1.48 -0.55 12.50 -2.12 0.62 0.33 14294
0.05 -0.01 1.57 -1.06 12.72 -2.17 0.61 0.37 14301
0.04 -0.00 1.73 -1.55 12.89 -2.14 0.59 0.40 14307
0.04 0.00 1.84 -1.91 12.98 -2.14 0.58 0.43 14313
0.05 -0.00 1.90 -2.33 13.09 -2.12 0.56 0.47 14319
0.04 -0.00 1.98 -2.66 13.29 -2.09 0.50 0.49 14326
0.05 0.00 2.10 -2.84 13.48 -2.06 0.50 0.51 14332
0.04 -0.00 2.21 -3.03 13.71 -2.03 0.47 0.53 14339
0.04 -0.00 2.38 -3.10 13.82 -1.99 0.45 0.54 14345
0.05 -0.01 2.44 -3.31 14.10 -1.97 0.45 0.55 14351
0.05 -0.00 2.64 -3.43 14.45 -1.94 0.48 0.56 14358
0.05 -0.00 2.91 -3.50 14.82 -1.95 0.54 0.57 14364
0.06 -0.01 3.20 -3.59 15.01 -1.99 0.65 0.56 14370
0.04 -0.00 3.33 -3.63 15.04 -2.05 0.77 0.56 14376
0.04 -0.00 3.32 -3.81 14.91 -2.12 0.91 0.57 14383
0.05 -0.01 3.11 -3.94 14.77 -2.18 1.02 0.59 14390
0.05 -0.00 2.74 -4.16 14.54 -2.22 1.10 0.64 14396
0.05 0.00 2.42 -4.39 14.17 -2.23 1.12 0.70 14402
0.04 -0.00 2.09 -4.63 13.75 -2.20 1.10 0.76 14408
0.04 -0.00 1.95 -4.91 13.34 -2.16 1.07 0.83 14414
0.05 0.00 1.86 -5.05 13.10 -2.10 1.03 0.89 14422
0.05 -0.00 1.73 -5.12 12.86 -2.00 1.00 0.93 14428
0.04 -0.00 1.66 -5.16 12.66 -1.91 0.98 0.97 14434
0.05 -0.01 1.56 -5.16 12.40 -1.81 0.94 1.00 14440
0.05 -0.00 1.48 -5.19 12.17 -1.70 0.96 1.01 14446
0.04 -0.00 1.27 -5.15 11.93 -1.59 0.93 1.03 14453
0.06 -0.01 1.03 -5.29 11.64 -1.47 0.89 1.04 14459
0.04 -0.00 0.62 -5.23 11.44 -1.34 0.81 1.06 14466
0.04 -0.00 0.33 -5.25 11.27 -1.20 0.70 1.07 14472
0.05 -0.01 -0.09 -5.09 11.27 -1.06 0.56 1.08 14479
0.04 -0.00 -0.33 -5.05 11.44 -0.93 0.43 1.09 14485
0.04 -0.00 -0.41 -4.88 11.93 -0.84 0.31 1.11 14491
0.04 -0.00 -0.31 -4.47 12.11 -0.80 0.24 1.12 14497
0.04 -0.00 -0.36 -4.06 12.11 -0.80 0.24 1.14 14503
0.04 0.01 -0.45 -3.83 12.37 -0.87 0.32 1.19 14511
0.05 -0.00 -0.51 -3.79 12.55 -0.97 0.47 1.24 14517
0.03 -0.00 -0.51 -4.08 12.52 -1.11 0.57 1.26 14523
0.05 -0.01 -0.74 -4.45 12.23 -1.24 0.60 1.25 14529
0.04 -0.00 -0.93 -5.09 11.76 -1.28 0.59 1.23 14535
0.04 0.00 -1.04 -5.73 11.10 -1.32 0.52 1.18 14542
0.05 -0.01 -0.99 -6.29 10.38 -1.30 0.43 1.11 14548
0.05 -0.00 -0.82 -6.81 9.55 -1.24 0.28 1.00 14555
0.04 0.00 -0.52 -7.33 8.94 -1.16 0.23 0.87 14561
0.05 -0.01 -0.16 -7.74 8.43 -1.05 0.17 0.71 14567
0.05 -0.00 0.05 -8.17 8.27 -0.93 0.16 0.57 14574
0.06 -0.01 0.22 -8.50 8.16 -0.83 0.19 0.39 14580
0.06 -0.00 0.11 -8.73 8.16 -0.74 0.24 0.21 14586
0.05 0.00 -0.11 -8.87 8.17 -0.67 0.29 0.05 14593
0.03 -0.00 -0.44 -8.97 8.24 -0.62 0.33 -0.08 14599
0.05 0.00 -0.54 -9.06 8.40 -0.59 0.34 -0.19 14605
0.04 -0.00 -0.44 -9.09 8.51 -0.59 0.33 -0.27 14612
0.04 -0.00 -0.33 -9.04 8.67 -0.59 0.27 -0.33 14618
0.05 0.00 0.05 -9.11 8.62 -0.60 0.27 -0.38 14624
0.04 -0.00 0.65 -8.78 7.54 -0.62 0.22 -0.46 14630
0.04 -0.00 0.64 -9.16 8.30 -0.63 0.09 -0.48 14637
0.05 -0.00 -0.21 -19.72 11.97 -0.30 -0.13 -0.52 14643
0.04 -0.00 2.09 -10.92 2.34 0.42 -0.28 -0.58 14650
0.04 -0.00 0.03 -14.14 5.18 0.58 -0.83 -0.59 14656
0.04 0.00 -0.50 -14.26 3.35 0.75 -1.07 -0.60 14662
0.05 -0.00 -0.63 -18.47 4.91 0.99 -1.33 -0.49 14668
0.04 0.01 -0.87 -20.30 1.45 1.17 -1.70 -0.31 14675
0.05 0.08 -1.77 -22.67 -2.83 1.33 -1.88 -0.07 14682
0.04 0.14 1.72 -8.43 2.11 2.01 -1.72 0.23 14688
0.02 0.36 2.76 -0.50 8.92 2.73 -1.10 0.43 14694
0.01 0.67 0.42 -1.12 23.44 3.62 -0.92 0.53 14701
-0.01 0.95 -3.21 2.52 22.28 3.75 -1.01 0.40 14707
0.00 1.08 -4.24 -0.85 21.11 3.59 -0.98 0.09 14713
-0.00 1.15 -2.68 -3.20 19.78 3.30 -0.83 -0.19 14720
-0.01 1.19 -2.11 -4.24 17.60 3.13 -0.33 -0.38 14727
-0.01 1.12 -0.08 -3.59 20.30 2.89 -0.11 -0.57 14733
-0.01 1.16 4.08 -2.37 21.77 2.33 -0.26 -0.62 14739
-0.01 1.15 4.79 -1.72 20.13 1.02 -0.93 -0.44 14745
-0.01 1.07 4.07 -2.34 10.77 0.49 -0.60 -0.06 14752
0.01 1.02 1.96 -1.52 10.10 0.45 -0.60 0.10 14758
-0.00 0.98 0.94 -0.67 10.27 0.48 -0.75 0.11 14765
0.01 0.99 0.54 -0.47 10.82 0.40 -0.71 0.08 14771
0.01 1.00 0.62 -0.71 10.96 0.25 -0.56 0.05 14778
-0.00 1.02 0.85 -1.23 10.80 0.12 -0.36 0.04 14784
0.01 1.06 0.83 -1.30 10.46 0.06 -0.20 0.05 14790
-0.01 1.04 0.86 -1.12 10.20 0.03 -0.12 0.06 14796
0.00 1.06 0.86 -0.81 10.13 0.01 -0.08 0.06 14803
-0.01 1.12 0.83 -0.80 10.09 -0.01 -0.06 0.05 14810
-0.02 1.12 0.84 -0.88 10.04 -0.02 -0.05 0.04 14816
-0.00 1.13 0.89 -0.83 10.02 -0.02 -0.04 0.05 14822
-0.00 1.14 0.85 -0.79 10.05 -0.03 -0.03 0.05 14829
-0.00 1.16 0.84 -0.74 10.09 -0.02 -0.01 0.05 14835
0.01 1.16 0.86 -0.76 10.02 -0.02 -0.00 0.05 14841
-0.01 1.17 0.88 -0.74 10.11 -0.01 0.00 0.05 14848
0.01 1.15 0.93 -0.80 9.99 -0.00 0.01 0.05 14855
0.00 1.11 0.93 -0.81 9.99 -0.00 0.01 0.05 14861
0.00 1.08 0.94 -0.80 9.98 0.00 0.00 0.05 14867
-0.01 1.09 0.94 -0.80 9.99 0.01 -0.01 0.06 14873
-0.02 1.03 0.90 -0.80 10.00 0.01 -0.01 0.06 14879
-0.01 0.98 0.90 -0.77 9.94 0.01 -0.01 0.06 14885
-0.00 0.97 0.87 -0.75 10.01 0.01 -0.01 0.06 14893
0.01 0.88 0.90 -0.78 9.94 0.01 -0.01 0.06 14899
0.01 0.86 0.91 -0.76 9.95 0.01 -0.01 0.06 14905
0.02 0.85 0.91 -0.74 9.95 0.01 -0.01 0.06 14911
0.01 0.83 0.91 -0.75 9.96 0.01 -0.01 0.06 14917
0.01 0.79 0.94 -0.78 9.88 0.01 -0.02 0.06 14924
0.02 0.80 0.97 -0.77 9.90 0.01 -0.02 0.05 14930
0.03 0.72 0.94 -0.81 9.90 0.01 -0.03 0.05 14937
0.01 0.71 0.99 -0.80 9.84 0.01 -0.03 0.04 14943
0.02 0.70 0.96 -0.82 9.87 0.01 -0.04 0.04 14949
0.02 0.69 0.95 -0.81 9.92 0.01 -0.05 0.04 14955
0.01 0.66 0.92 -0.81 9.98 0.01 -0.06 0.04 14962
0.01 0.69 0.86 -0.78 9.98 0.01 -0.05 0.04 14968
0.02 0.70 0.89 -0.81 9.95 -0.00 -0.05 0.04 14974
0.02 0.67 0.86 -0.78 10.00 -0.00 -0.04 0.04 14981
0.03 0.64 0.90 -0.81 10.02 -0.00 -0.04 0.04 14987
0.03 0.62 0.88 -0.81 10.02 0.00 -0.03 0.04 14994
0.02 0.55 0.91 -0.78 9.98 -0.00 -0.03 0.05 15000
0.03 0.58 0.91 -0.79 9.95 -0.00 -0.03 0.05 15006
0.02 0.55 0.92 -0.83 9.94 -0.00 -0.02 0.05 15012
0.02 0.55 0.92 -0.76 9.97 -0.00 -0.02 0.04 15019
0.03 0.57 0.91 -0.80 9.97 -0.01 -0.02 0.04 15026
0.03 0.53 0.93 -0.79 9.94 -0.01 -0.02 0.04 15032
0.02 0.53 0.89 -0.82 9.93 -0.01 -0.01 0.04 15038
0.03 0.52 0.91 -0.79 9.93 -0.02 -0.02 0.04 15044
0.03 0.55 0.90 -0.77 9.90 -0.02 -0.02 0.04 15050
0.01 0.55 0.88 -0.78 9.93 -0.02 -0.02 0.04 15057
0.02 0.59 0.90 -0.75 9.94 -0.01 -0.02 0.04 15064
0.02 0.53 0.88 -0.74 9.92 -0.01 -0.02 0.04 15070
0.02 0.53 0.94 -0.74 9.94 -0.01 -0.02 0.04 15076
0.03 0.54 0.91 -0.77 9.93 -0.01 -0.02 0.04 15082
0.04 0.50 0.93 -0.74 9.91 -0.00 -0.02 0.04 15088
0.04 0.51 0.93 -0.78 9.91 0.00 -0.02 0.05 15095
0.06 0.51 0.89 -0.75 9.92 0.00 -0.01 0.04 15101
0.08 0.47 0.94 -0.76 9.94 0.01 -0.01 0.05 15108
0.08 0.43 0.92 -0.77 9.96 0.01 -0.00 0.05 15114
0.08 0.40 0.91 -0.75 9.92 0.01 0.00 0.05 15120
0.07 0.38 0.90 -0.76 9.92 0.02 0.00 0.04 15126
0.08 0.33 0.93 -0.78 9.93 0.02 0.01 0.04 15133
0.11 0.33 0.97 -0.76 10.03 0.01 0.00 0.04 15139
0.08 0.29 0.94 -0.79 10.01 0.02 0.01 0.04 15145
0.08 0.25 0.94 -0.78 10.01 0.02 0.00 0.05 15152
0.08 0.27 0.94 -0.77 9.95 0.02 0.01 0.05 15158
0.10 0.19 0.98 -0.73 9.98 0.02 0.00 0.05 15165
0.10 0.21 0.93 -0.77 9.99 0.03 0.00 0.05 15171
0.12 0.22 0.97 -0.75 9.98 0.03 -0.00 0.05 15177
0.15 0.13 0.97 -0.78 10.02 0.03 -0.01 0.05 15183
0.15 0.09 0.95 -0.77 10.05 0.04 -0.01 0.05 15190
0.18 0.06 0.96 -0.68 10.06 0.04 -0.01 0.05 15197
0.18 0.01 0.98 -0.83 10.02 0.05 -0.01 0.05 15203
0.20 0.01 0.97 -0.80 10.04 0.05 -0.01 0.05 15209
0.23 0.00 0.91 -0.87 10.00 0.06 -0.00 0.04 15215
0.25 -0.02 1.07 -0.80 10.19 0.07 0.01 0.04 15222
0.24 -0.01 1.36 -1.67 10.41 0.09 0.02 0.04 15228
0.25 -0.02 1.15 -0.91 10.46 0.15 0.07 0.02 15235
0.27 -0.02 1.20 -1.05 10.88 0.23 0.12 0.01 15241
0.29 -0.01 1.21 -0.99 11.11 0.41 0.22 -0.01 15248
0.29 -0.02 1.51 -1.00 12.87 0.82 0.44 -0.06 15254
0.31 -0.02 1.65 -0.98 14.85 1.55 0.78 -0.18 15260
0.30 -0.01 2.28 -0.99 17.13 2.23 0.79 -0.31 15266
0.25 -0.01 1.96 -1.16 16.30 2.68 0.34 -0.40 15273
0.28 -0.00 2.21 -1.10 16.35 3.01 -0.01 -0.44 15280
0.24 -0.01 2.27 -1.22 16.45 3.31 -0.18 -0.49 15286
0.19 0.00 2.93 -1.92 16.84 3.59 -0.29 -0.61 15292
0.19 0.00 3.57 -0.51 17.63 3.86 -0.31 -0.71 15299
0.16 0.00 3.70 -2.03 17.32 4.13 -0.26 -0.69 15305
0.13 0.00 4.13 -3.26 17.02 4.23 -0.25 -0.79 15311
0.11 -0.01 3.22 -2.98 17.36 4.27 -0.33 -0.84 15318
0.11 0.00 3.61 -3.93 18.03 4.28 -0.22 -0.83 15325
0.09 0.00 3.83 -3.48 21.27 4.28 -0.03 -0.84 15331
0.07 0.00 5.46 -4.20 21.69 4.28 0.19 -0.86 15337
0.08 -0.00 5.14 -4.04 21.42 4.28 0.32 -0.93 15343
0.05 -0.01 5.19 -2.97 23.34 4.23 0.46 -1.00 15350
0.06 -0.00 4.17 -1.14 25.12 4.09 0.46 -1.06 15356
0.08 -0.01 2.73 2.16 24.92 3.76 0.27 -1.11 15363
0.07 -0.01 1.84 3.16 20.76 3.44 -0.12 -1.12 15369
0.08 -0.01 1.13 6.82 16.56 3.03 -0.54 -1.08 15376
0.05 -0.01 1.76 16.96 15.93 2.56 -0.77 -1.14 15382
0.05 0.00 3.10 10.10 7.19 1.93 -0.69 -1.26 15388
0.05 -0.00 4.48 9.21 8.95 1.50 -0.73 -1.32 15394
0.04 -0.00 4.64 11.67 11.02 0.94 -0.57 -1.39 15401
0.07 -0.01 4.05 9.94 8.89 0.45 -0.26 -1.51 15408
0.06 -0.01 3.28 7.92 6.84 0.21 -0.14 -1.60 15414
0.04 -0.00 2.32 7.21 5.58 0.06 -0.15 -1.65 15420
0.05 0.00 1.68 7.32 4.87 -0.05 -0.21 -1.66 15426
0.05 -0.00 1.59 6.99 4.44 -0.16 -0.29 -1.63 15432
0.04 -0.00 1.79 6.60 4.35 -0.24 -0.37 -1.56 15439
0.05 0.00 2.14 6.30 4.43 -0.33 -0.43 -1.45 15446
0.05 -0.01 2.45 6.23 4.35 -0.42 -0.44 -1.32 15452
0.04 -0.00 2.60 6.24 4.20 -0.53 -0.42 -1.17 15458
0.05 0.00 2.54 6.16 4.30 -0.59 -0.37 -1.00 15464
0.05 -0.00 2.57 5.98 4.33 -0.69 -0.32 -0.81 15470
0.05 -0.01 2.52 5.76 4.78 -0.79 -0.26 -0.62 15477
0.05 -0.00 2.41 5.64 5.43 -0.88 -0.21 -0.44 15483
0.05 -0.01 2.28 5.49 6.07 -0.98 -0.17 -0.29 15490
0.06 -0.01 2.32 5.30 6.76 -1.09 -0.13 -0.13 15496
0.04 -0.00 2.49 5.15 7.32 -1.23 -0.07 0.02 15502
0.05 -0.01 2.62 4.84 7.91 -1.38 0.04 0.15 15508
0.04 -0.00 2.72 4.49 8.42 -1.57 0.17 0.26 15515
0.04 -0.00 2.63 3.94 8.88 -1.77 0.30 0.33 15521
0.05 -0.00 2.35 3.27 9.29 -1.93 0.42 0.36 15527
