Voltage_01 Voltage_02 Acc_x Acc_y Acc_z Gyro_x Gyro_y Gyro_z Time
5000
0.07 0.68 0.76 -0.74 9.90 0.00 -0.02 0.06 23
0.07 0.68 0.76 -0.74 9.91 0.00 -0.02 0.05 29
0.09 0.62 0.77 -0.74 9.90 0.00 -0.03 0.05 35
0.10 0.63 0.74 -0.71 9.87 0.00 -0.02 0.05 41
0.10 0.62 0.75 -0.80 9.93 -0.01 -0.03 0.05 48
0.10 0.62 0.74 -0.79 9.96 -0.00 -0.03 0.05 54
0.10 0.61 0.73 -0.76 9.89 -0.01 -0.03 0.05 60
0.09 0.65 0.75 -0.77 9.96 -0.01 -0.03 0.05 66
0.08 0.65 0.74 -0.77 9.93 -0.01 -0.03 0.05 72
0.11 0.63 0.75 -0.76 9.97 -0.01 -0.02 0.05 78
0.08 0.62 0.73 -0.75 9.98 -0.01 -0.02 0.05 84
0.09 0.62 0.75 -0.77 9.96 -0.01 -0.01 0.05 91
0.10 0.59 0.77 -0.77 9.96 -0.01 -0.00 0.05 97
0.10 0.55 0.75 -0.74 9.87 -0.01 -0.00 0.05 103
0.11 0.55 0.75 -0.76 9.95 -0.01 -0.00 0.06 109
0.12 0.51 0.76 -0.77 10.01 -0.01 -0.00 0.06 115
0.11 0.51 0.74 -0.77 9.95 -0.01 -0.00 0.06 121
0.10 0.46 0.78 -0.78 9.95 -0.01 -0.01 0.05 128
0.11 0.46 0.76 -0.75 9.85 -0.01 -0.01 0.04 135
0.12 0.44 0.79 -0.79 9.91 -0.01 -0.01 0.04 141
0.11 0.39 0.82 -0.74 9.92 -0.01 -0.01 0.04 147
0.11 0.40 0.78 -0.71 10.00 -0.01 -0.01 0.04 153
0.14 0.36 0.79 -0.73 10.01 0.00 -0.01 0.04 159
0.16 0.29 0.79 -0.77 10.17 0.01 -0.01 0.04 165
0.18 0.25 0.82 -0.77 10.01 0.02 -0.00 0.05 172
0.19 0.23 0.99 -0.76 10.03 0.03 0.00 0.05 178
0.22 0.18 0.75 -0.74 10.10 0.04 0.01 0.05 185
0.24 0.14 0.78 -0.78 10.10 0.04 0.01 0.05 191
0.25 0.09 0.79 -0.82 10.10 0.05 0.02 0.05 197
0.29 0.05 0.87 -0.69 10.05 0.06 0.03 0.06 203
0.32 0.04 0.81 -0.82 10.11 0.07 0.04 0.06 209
0.32 0.01 0.90 -0.62 10.41 0.08 0.05 0.05 216
0.34 -0.02 0.97 -0.66 10.25 0.10 0.06 0.06 222
0.35 -0.01 0.79 -0.68 10.05 0.13 0.08 0.07 228
0.35 -0.02 0.86 -0.85 10.51 0.19 0.12 0.06 235
0.38 -0.02 0.93 -0.89 10.03 0.27 0.18 0.05 241
0.37 -0.02 1.14 -0.87 10.95 0.39 0.26 0.03 247
0.37 -0.02 1.31 -1.12 11.71 0.62 0.39 0.00 253
0.34 -0.02 1.31 -0.60 13.60 1.07 0.54 -0.03 260
0.31 -0.03 2.11 -0.78 15.13 1.58 0.65 -0.14 266
0.32 -0.00 2.35 -0.91 16.42 2.19 0.47 -0.28 272
0.29 -0.01 2.29 -0.95 17.45 2.72 0.16 -0.41 279
0.26 -0.02 2.50 -1.17 18.03 3.17 -0.13 -0.48 285
0.24 -0.00 2.38 -1.27 17.73 3.58 -0.30 -0.54 291
0.21 -0.01 2.99 -1.19 18.24 3.94 -0.47 -0.59 297
0.19 -0.01 3.08 -1.31 17.77 4.17 -0.58 -0.65 304
0.16 -0.01 3.60 -2.06 18.53 4.26 -0.58 -0.70 310
0.13 0.00 2.84 -2.43 18.11 4.28 -0.60 -0.81 317
0.13 -0.01 2.37 -2.91 18.56 4.28 -0.53 -0.76 323
0.10 0.01 2.60 -3.50 19.88 4.28 -0.23 -0.74 329
0.12 0.01 4.03 -3.72 22.81 4.28 -0.06 -0.77 335
0.12 0.01 3.92 -3.91 22.29 4.28 0.06 -0.78 342
0.12 -0.00 4.10 -2.96 23.57 4.28 0.14 -0.80 348
0.11 -0.01 3.49 -1.09 24.86 4.28 -0.01 -0.86 355
0.07 -0.01 2.78 -1.37 24.47 4.20 -0.35 -0.91 361
0.06 -0.01 2.65 0.86 25.63 3.97 -0.84 -0.94 367
0.05 -0.00 2.70 5.31 21.59 3.76 -1.13 -0.96 373
0.07 -0.01 4.02 10.28 15.74 3.52 -1.42 -0.93 379
0.05 -0.01 4.06 14.64 13.86 3.06 -1.54 -0.87 386
0.05 -0.00 6.39 26.22 12.04 2.38 -1.37 -0.83 392
0.05 -0.01 6.99 17.48 6.41 1.45 -0.82 -0.77 398
0.05 -0.01 7.74 17.58 10.67 0.63 -0.43 -0.78 405
0.05 -0.00 6.90 19.33 10.96 -0.09 0.01 -0.83 411
0.04 -0.00 4.89 15.91 8.00 -0.53 0.34 -0.92 417
0.06 -0.01 3.26 13.11 5.78 -0.73 0.42 -0.98 423
0.05 -0.00 1.70 11.93 4.58 -0.79 0.33 -1.00 430
0.05 -0.01 0.92 11.30 4.11 -0.86 0.20 -0.97 436
0.05 -0.00 0.91 10.61 4.51 -0.90 0.02 -0.91 442
0.05 -0.01 1.50 9.93 5.51 -0.96 -0.13 -0.82 448
0.05 -0.01 2.56 9.51 5.98 -1.06 -0.20 -0.71 454
0.04 -0.00 3.17 9.14 6.48 -1.17 -0.18 -0.60 460
0.04 -0.00 3.37 8.51 6.82 -1.33 -0.12 -0.50 466
0.05 -0.01 3.30 7.84 7.16 -1.48 -0.04 -0.41 473
0.05 -0.01 3.02 6.85 7.59 -1.61 0.02 -0.30 480
0.06 -0.01 2.66 5.74 8.04 -1.71 0.05 -0.19 486
0.06 -0.01 2.49 4.74 8.67 -1.78 0.06 -0.08 492
0.06 -0.01 2.45 3.87 9.38 -1.84 0.08 0.02 498
0.05 -0.01 2.60 3.25 9.96 -1.91 0.12 0.09 504
0.06 -0.01 3.04 2.70 10.55 -2.01 0.21 0.17 510
0.05 -0.01 3.23 2.18 11.21 -2.12 0.31 0.23 517
0.05 -0.01 3.33 1.84 11.68 -2.22 0.45 0.29 523
0.04 -0.00 3.29 1.34 12.12 -2.35 0.61 0.34 529
0.05 -0.00 3.03 0.92 12.62 -2.48 0.74 0.39 535
0.05 -0.01 2.67 0.30 12.75 -2.59 0.86 0.44 541
0.05 -0.00 2.29 -0.33 13.02 -2.69 0.94 0.49 547
0.03 -0.00 2.02 -0.85 13.29 -2.76 0.98 0.55 555
0.04 0.00 1.75 -1.42 13.48 -2.81 1.00 0.60 561
0.04 -0.00 1.54 -1.96 13.60 -2.85 0.99 0.65 567
0.05 -0.00 1.42 -2.27 13.71 -2.87 0.97 0.69 573
0.04 -0.00 1.26 -2.53 13.82 -2.89 0.96 0.72 579
0.05 0.00 1.06 -2.75 13.98 -2.88 0.93 0.74 585
0.04 -0.00 0.85 -2.95 14.06 -2.86 0.91 0.75 591
0.05 -0.01 0.64 -3.29 14.09 -2.84 0.89 0.75 598
0.04 -0.00 0.46 -3.48 14.28 -2.80 0.85 0.73 604
0.05 0.01 0.34 -3.82 14.37 -2.74 0.80 0.70 611
0.05 -0.00 0.23 -4.14 14.59 -2.67 0.72 0.64 617
0.04 -0.00 0.24 -4.56 14.85 -2.60 0.63 0.63 623
0.04 0.00 0.36 -5.05 15.09 -2.53 0.54 0.58 629
0.05 0.00 0.63 -5.64 15.13 -2.46 0.46 0.54 635
0.04 -0.00 1.13 -6.40 15.13 -2.39 0.36 0.49 642
0.04 -0.00 1.54 -7.30 15.00 -2.31 0.26 0.44 648
0.04 -0.00 2.09 -8.23 14.88 -2.24 0.21 0.40 654
0.05 -0.01 2.81 -8.84 14.50 -2.15 0.17 0.36 660
0.04 -0.00 3.39 -9.38 14.03 -2.06 0.19 0.32 666
0.04 -0.00 3.57 -9.75 13.41 -1.96 0.28 0.31 673
0.05 -0.00 3.59 -9.81 12.79 -1.84 0.49 0.32 679
0.07 -0.00 3.28 -9.78 12.72 -1.71 0.79 0.37 686
0.06 -0.00 2.69 -9.79 12.86 -1.64 1.10 0.42 692
0.05 0.00 1.33 -10.03 13.41 -1.55 1.31 0.48 698
0.06 -0.00 1.12 -10.45 13.50 -1.49 1.50 0.56 704
0.06 -0.01 0.19 -10.81 13.69 -1.46 1.60 0.66 711
0.04 -0.00 -0.65 -11.42 13.59 -1.45 1.63 0.73 717
0.05 0.00 -1.52 -12.15 13.63 -1.46 1.56 0.85 723
0.05 -0.00 -2.37 -12.94 13.62 -1.48 1.39 0.97 730
0.03 0.00 -3.06 -13.67 13.08 -1.53 1.14 1.08 736
0.05 0.00 -3.27 -14.30 12.18 -1.58 0.82 1.16 743
0.04 -0.00 -3.23 -14.97 10.84 -1.61 0.48 1.21 749
0.04 -0.00 -2.84 -15.72 9.60 -1.62 0.16 1.21 755
0.05 0.00 -2.41 -16.64 8.46 -1.59 -0.09 1.17 761
0.04 -0.00 -1.91 -17.42 7.59 -1.51 -0.27 1.09 768
0.04 -0.00 -1.36 -18.89 6.80 -1.36 -0.40 0.94 774
0.04 -0.00 -1.63 -21.09 10.63 -0.99 -0.58 0.76 780
0.04 0.00 -0.75 -19.46 4.36 -0.70 -0.55 0.56 786
0.05 -0.00 -0.21 -19.98 3.72 -0.35 -0.42 0.35 793
0.04 -0.00 -0.84 -21.86 5.35 0.05 -0.34 0.14 799
0.04 -0.00 0.09 -19.84 4.39 0.48 -0.39 -0.05 805
0.04 -0.00 -1.11 -21.42 2.68 0.80 -0.40 -0.20 812
0.05 -0.01 -2.83 -21.17 4.38 1.17 -0.65 -0.28 818
0.05 -0.01 -3.31 -21.78 4.52 1.50 -0.90 -0.30 824
0.05 -0.00 -3.26 -21.69 4.29 1.79 -1.32 -0.25 830
0.06 0.02 -3.57 -21.49 4.22 1.99 -1.75 -0.08 836
0.05 0.07 -1.38 -14.47 5.41 2.27 -1.94 0.18 843
0.02 0.24 1.99 1.34 10.75 2.68 -1.60 0.37 849
0.02 0.41 0.25 -4.87 18.70 3.07 -1.38 0.49 856
0.02 0.65 -2.28 -1.90 23.78 3.19 -1.52 0.45 862
0.01 0.74 -2.94 -1.08 18.15 2.89 -1.34 0.30 868
0.01 0.79 -2.66 -1.64 20.44 2.76 -1.15 0.07 874
0.01 0.85 -1.45 -4.87 38.95 2.36 -1.48 -0.19 881
0.00 0.85 0.52 -1.94 12.09 0.17 -0.61 -0.06 887
0.01 0.92 0.63 -3.40 12.18 -0.04 -0.14 0.04 893
0.02 0.96 0.94 -2.35 10.53 -0.06 -0.01 0.06 900
0.02 0.97 0.95 -1.05 10.10 -0.02 -0.00 0.09 906
0.00 0.93 0.73 -0.30 9.82 0.01 -0.01 0.09 912
0.01 0.95 0.68 -0.45 9.98 0.00 -0.02 0.09 918
0.04 0.93 0.66 -0.94 9.97 -0.01 -0.02 0.07 924
0.02 0.99 0.73 -1.22 10.18 -0.01 -0.01 0.07 930
0.00 0.96 0.75 -1.13 10.16 -0.02 -0.00 0.08 937
0.00 1.04 0.66 -0.85 10.05 -0.03 0.01 0.08 944
0.02 1.06 0.66 -0.80 10.03 -0.03 0.01 0.07 950
0.01 1.06 0.76 -0.79 9.94 -0.03 0.01 0.07 956
0.01 1.12 0.78 -0.78 9.92 -0.03 0.01 0.07 962
0.02 1.11 0.73 -0.78 10.05 -0.02 0.02 0.07 968
0.02 1.07 0.75 -0.80 10.00 -0.02 0.02 0.07 974
0.01 1.09 0.79 -0.77 10.01 -0.02 0.03 0.07 980
0.00 1.09 2.06 -0.73 13.79 -0.01 0.02 0.07 987
0.01 1.12 0.82 -0.80 10.04 -0.01 0.02 0.07 994
0.03 1.08 0.79 -0.78 10.09 -0.00 0.02 0.07 1000
0.03 1.03 0.81 -0.80 10.03 0.00 0.02 0.07 1006
0.02 1.02 0.75 -0.77 10.07 0.01 0.01 0.08 1012
0.02 1.00 0.76 -0.81 10.10 0.01 0.01 0.08 1018
0.02 0.97 0.75 -0.78 9.98 0.01 0.02 0.08 1025
0.02 0.94 0.84 -0.79 10.01 0.01 0.01 0.08 1032
0.03 0.89 0.82 -0.76 9.97 0.01 0.00 0.08 1038
0.03 0.84 0.83 -0.77 9.96 0.01 -0.00 0.08 1044
0.02 0.82 0.83 -0.78 9.98 0.01 -0.01 0.07 1050
0.03 0.78 0.82 -0.76 9.95 0.01 -0.01 0.07 1056
0.03 0.78 0.83 -0.79 9.97 0.01 -0.01 0.07 1062
0.04 0.74 0.86 -0.74 9.95 0.01 -0.02 0.07 1069
0.03 0.72 0.84 -0.78 9.94 0.01 -0.02 0.06 1075
0.05 0.71 0.87 -0.77 9.91 0.01 -0.03 0.06 1082
0.04 0.65 0.80 -0.78 9.91 0.01 -0.03 0.06 1088
0.04 0.64 0.84 -0.77 9.95 0.01 -0.03 0.05 1094
0.04 0.62 0.78 -0.78 9.87 0.01 -0.04 0.06 1100
0.05 0.60 0.85 -0.83 10.01 0.00 -0.04 0.06 1106
0.05 0.59 0.77 -0.80 9.96 0.00 -0.04 0.05 1113
0.06 0.56 0.80 -0.80 9.96 0.00 -0.05 0.05 1119
0.07 0.53 0.79 -0.78 9.96 0.00 -0.05 0.05 1126
0.07 0.50 0.86 -0.80 9.95 -0.00 -0.06 0.05 1132
0.07 0.46 0.78 -0.78 9.91 -0.00 -0.06 0.05 1138
0.07 0.51 0.82 -0.80 9.91 -0.00 -0.07 0.05 1144
0.07 0.46 0.79 -0.78 9.89 -0.01 -0.07 0.05 1150
0.09 0.44 0.84 -0.76 9.99 -0.01 -0.08 0.05 1157
0.08 0.46 0.81 -0.77 9.88 -0.01 -0.09 0.04 1163
0.11 0.45 0.81 -0.84 9.93 -0.02 -0.10 0.04 1170
0.09 0.44 0.76 -0.82 9.95 -0.02 -0.09 0.04 1176
0.10 0.45 0.70 -0.79 9.96 -0.02 -0.08 0.04 1182
0.10 0.44 0.69 -0.79 10.02 -0.01 -0.07 0.04 1188
0.13 0.43 0.32 -1.15 10.06 -0.02 -0.05 0.04 1195
0.14 0.38 0.75 -0.80 10.00 -0.01 -0.05 0.04 1201
0.14 0.41 0.73 -0.79 9.96 -0.01 -0.04 0.04 1208
0.14 0.38 0.74 -0.80 9.98 -0.01 -0.03 0.04 1214
0.13 0.37 0.70 -0.79 9.97 -0.01 -0.02 0.05 1220
0.13 0.35 0.75 -0.80 9.95 0.00 -0.00 0.05 1226
0.16 0.33 0.76 -0.79 9.98 0.01 0.01 0.04 1232
0.14 0.30 0.81 -0.82 10.02 0.01 0.01 0.04 1239
0.13 0.25 0.83 -0.80 9.96 0.02 0.01 0.04 1245
0.16 0.28 0.84 -0.79 10.03 0.02 0.02 0.04 1252
0.17 0.23 0.88 -0.82 10.01 0.02 0.02 0.04 1258
0.19 0.16 0.88 -0.80 9.96 0.02 0.02 0.03 1264
0.22 0.13 0.84 -0.76 10.00 0.02 0.02 0.03 1270
0.24 0.10 0.84 -0.90 10.05 0.03 0.03 0.03 1276
0.24 0.07 0.80 -0.78 10.06 0.03 0.02 0.03 1283
0.26 0.03 0.76 -0.81 10.02 0.04 0.04 0.03 1290
0.27 0.02 0.85 -0.78 10.07 0.04 0.04 0.04 1296
0.32 0.01 0.85 -0.78 10.10 0.05 0.06 0.03 1302
0.34 0.01 0.85 -0.89 9.97 0.07 0.07 0.03 1308
0.36 -0.00 0.94 -0.51 10.01 0.08 0.09 0.03 1314
0.39 -0.02 0.97 -0.91 10.18 0.10 0.09 0.02 1320
0.37 -0.02 0.86 -0.79 10.44 0.12 0.12 0.01 1328
0.38 -0.03 0.88 -0.86 10.34 0.20 0.17 -0.01 1334
0.39 -0.04 0.99 -0.87 10.50 0.30 0.26 -0.03 1340
0.39 -0.03 1.36 -1.02 11.20 0.47 0.38 -0.06 1346
0.38 -0.02 1.39 -1.00 12.12 0.74 0.55 -0.08 1352
0.39 -0.03 1.22 -0.98 13.23 1.15 0.71 -0.12 1359
0.39 -0.02 1.17 -0.94 14.32 1.65 0.79 -0.16 1366
0.38 -0.02 1.60 -1.31 15.21 2.11 0.63 -0.19 1372
0.35 -0.01 1.96 -1.20 16.02 2.51 0.32 -0.26 1378
0.32 -0.01 2.78 -1.04 16.69 2.91 0.11 -0.38 1384
0.29 -0.02 2.66 -0.59 17.21 3.23 -0.04 -0.55 1391
0.22 -0.01 2.21 -1.17 18.19 3.60 -0.15 -0.57 1397
0.18 -0.01 2.71 -1.59 18.07 3.98 -0.19 -0.57 1403
0.18 -0.01 3.18 -2.05 19.18 4.22 -0.22 -0.61 1410
0.15 0.00 3.87 -2.74 19.11 4.28 -0.33 -0.67 1417
0.13 0.01 3.47 -3.20 18.07 4.28 -0.31 -0.73 1423
0.09 -0.01 3.22 -3.19 18.65 4.28 -0.04 -0.74 1429
0.07 0.01 3.74 -4.22 24.31 4.28 0.12 -0.70 1435
0.08 -0.01 5.75 -4.56 26.26 4.28 0.10 -0.76 1441
0.09 -0.01 7.00 -3.87 26.04 4.28 0.07 -0.86 1448
0.09 -0.01 7.56 -3.00 25.99 4.28 0.07 -1.00 1455
0.09 -0.01 6.68 -0.86 25.07 4.20 -0.01 -1.10 1461
0.07 -0.01 6.76 3.95 24.26 4.01 -0.19 -1.21 1467
0.06 -0.01 4.98 8.44 19.48 3.70 -0.36 -1.21 1473
0.06 -0.01 5.01 14.66 15.50 3.23 -0.51 -1.08 1479
0.07 -0.01 5.37 19.40 12.15 2.50 -0.54 -0.83 1486
0.06 -0.01 5.98 17.12 7.04 1.74 -0.52 -0.51 1492
0.08 -0.01 6.70 15.97 9.02 1.23 -0.55 -0.22 1499
0.07 -0.01 6.78 16.76 9.92 0.51 -0.42 -0.02 1505
0.06 -0.01 5.63 13.10 7.16 -0.01 -0.29 0.07 1511
0.06 -0.01 4.93 11.29 4.91 -0.24 -0.26 0.08 1517
0.07 -0.01 3.91 10.67 3.19 -0.39 -0.24 0.10 1524
0.05 -0.00 3.03 10.42 3.11 -0.52 -0.17 0.11 1530
0.06 0.00 2.50 9.73 3.37 -0.64 -0.14 0.12 1537
0.06 -0.01 2.07 9.02 3.99 -0.75 -0.13 0.13 1543
0.06 -0.01 1.80 8.64 4.61 -0.88 -0.13 0.14 1549
0.06 -0.01 1.68 8.26 4.90 -0.98 -0.12 0.14 1555
0.06 -0.00 1.54 7.77 5.44 -1.13 -0.11 0.14 1561
0.06 -0.01 1.52 6.77 5.72 -1.28 -0.09 0.13 1567
0.06 -0.01 1.42 6.78 6.02 -1.42 -0.06 0.11 1574
0.05 -0.01 1.23 6.11 6.38 -1.54 -0.04 0.07 1581
0.06 -0.01 1.11 5.53 6.97 -1.65 -0.04 0.01 1587
0.05 -0.00 1.01 4.88 7.51 -1.76 -0.04 -0.05 1593
0.04 -0.00 1.08 4.35 8.32 -1.81 -0.06 -0.12 1599
0.04 -0.00 1.09 4.04 9.20 -1.89 -0.08 -0.20 1605
0.05 0.00 1.45 3.61 9.83 -1.97 -0.08 -0.26 1611
0.05 -0.00 1.90 3.25 10.56 -2.08 -0.05 -0.32 1617
0.03 -0.00 2.38 2.90 11.26 -2.20 0.00 -0.37 1624
0.04 -0.00 2.76 2.45 11.76 -2.34 0.10 -0.40 1631
0.05 -0.01 3.00 1.93 12.09 -2.49 0.20 -0.41 1637
0.05 -0.00 3.15 1.28 12.37 -2.60 0.31 -0.40 1643
0.04 -0.00 3.21 0.60 12.65 -2.70 0.39 -0.37 1649
0.05 -0.00 3.27 -0.01 12.87 -2.78 0.46 -0.34 1655
0.04 -0.00 3.33 -0.74 13.02 -2.82 0.52 -0.30 1661
0.03 -0.00 3.37 -1.23 13.03 -2.82 0.57 -0.24 1668
0.04 0.00 3.38 -1.76 13.13 -2.80 0.60 -0.18 1675
0.04 -0.00 3.37 -2.13 13.29 -2.77 0.63 -0.11 1681
0.04 -0.00 3.22 -2.42 13.58 -2.73 0.65 -0.04 1687
0.04 -0.00 3.07 -2.70 13.72 -2.65 0.66 0.03 1693
0.05 -0.01 2.90 -2.96 13.99 -2.62 0.64 0.10 1699
0.05 -0.00 2.67 -3.19 14.25 -2.56 0.60 0.16 1705
0.04 -0.00 2.36 -3.29 14.42 -2.49 0.54 0.23 1713
0.05 -0.01 2.15 -3.52 14.50 -2.42 0.49 0.27 1719
0.04 -0.00 2.07 -3.77 14.59 -2.35 0.43 0.32 1725
0.03 -0.00 1.99 -4.07 14.52 -2.29 0.38 0.34 1731
0.05 -0.01 1.90 -4.38 14.35 -2.22 0.33 0.35 1737
0.04 -0.00 1.73 -4.81 14.39 -2.13 0.30 0.33 1743
0.03 -0.00 1.90 -5.00 14.29 -2.06 0.26 0.29 1751
0.05 0.00 1.35 -5.30 14.53 -1.96 0.22 0.25 1757
0.04 -0.00 1.31 -5.78 14.48 -1.89 0.21 0.20 1763
0.04 -0.00 1.26 -5.88 14.93 -1.81 0.21 0.14 1769
0.04 0.00 1.18 -5.97 15.03 -1.74 0.22 0.08 1775
0.05 -0.00 1.15 -6.02 14.89 -1.70 0.26 0.03 1781
0.04 -0.00 1.11 -5.99 14.79 -1.70 0.32 -0.02 1788
0.05 -0.00 1.02 -6.11 14.50 -1.69 0.40 -0.06 1795
0.06 -0.01 0.54 -6.02 11.18 -1.71 0.43 -0.08 1801
0.05 -0.00 0.30 -6.28 13.96 -1.70 0.47 -0.07 1807
0.03 -0.00 0.06 -6.45 12.66 -1.65 0.61 -0.02 1813
0.05 -0.00 -0.27 -6.75 12.22 -1.56 0.75 0.07 1819
0.05 -0.01 -0.71 -7.05 12.02 -1.44 0.81 0.18 1825
0.05 -0.00 -1.34 -7.94 12.02 -1.32 0.82 0.27 1832
0.04 -0.00 -1.81 -7.78 12.08 -1.20 0.75 0.38 1839
0.05 -0.01 -2.11 -8.26 12.00 -1.09 0.62 0.48 1845
0.05 -0.00 -2.29 -8.71 11.92 -0.99 0.48 0.59 1851
0.04 -0.00 -2.47 -9.18 11.67 -0.93 0.30 0.70 1857
0.06 -0.01 -2.54 -9.61 11.56 -0.90 0.16 0.82 1863
0.04 -0.00 -2.62 -10.05 11.37 -0.89 0.08 0.93 1870
0.04 -0.00 -2.57 -10.51 11.43 -0.92 0.07 1.03 1876
0.06 -0.00 -2.35 -11.19 10.99 -1.02 0.11 1.09 1883
0.04 -0.00 -2.14 -11.95 10.70 -1.15 0.19 1.10 1889
0.04 -0.00 -1.98 -12.87 9.87 -1.28 0.26 1.08 1895
0.06 -0.01 -1.96 -13.86 8.68 -1.37 0.33 1.03 1902
0.04 -0.00 -2.01 -15.30 7.34 -1.36 0.45 0.94 1908
0.04 0.00 -2.16 -15.61 6.08 -1.26 0.56 0.89 1914
0.06 -0.01 -2.47 -16.42 5.27 -1.07 0.63 0.79 1921
0.04 -0.00 -2.70 -17.02 4.57 -0.81 0.64 0.65 1927
0.04 0.00 -2.87 -17.30 4.43 -0.50 0.61 0.49 1933
0.06 -0.00 -3.51 -20.26 4.85 -0.14 0.46 0.30 1940
0.05 -0.00 -4.06 -21.05 10.56 0.47 0.18 0.07 1946
0.04 -0.00 -3.63 -16.01 4.00 0.89 0.02 -0.13 1952
0.06 -0.01 -4.57 -17.82 2.33 1.07 -0.30 -0.35 1958
0.05 -0.01 -4.43 -19.35 7.10 1.40 -0.78 -0.52 1965
0.04 -0.00 -4.32 -19.05 7.12 1.61 -1.14 -0.65 1972
0.05 -0.01 -4.79 -20.19 4.72 1.77 -1.57 -0.77 1978
0.04 0.02 -2.95 -20.94 2.24 1.91 -1.93 -0.78 1984
0.03 0.15 -1.08 -13.73 5.36 2.21 -2.13 -0.66 1990
0.03 0.43 3.18 -0.35 9.98 2.84 -1.76 -0.44 1996
0.01 0.72 1.53 -5.20 22.11 3.65 -1.82 -0.31 2003
-0.00 0.90 0.39 -1.71 24.49 3.79 -1.71 -0.23 2010
0.00 1.02 0.44 -2.23 24.21 3.71 -1.61 -0.28 2016
-0.01 1.11 0.28 -4.44 39.57 1.38 -2.13 -0.20 2022
0.01 1.14 0.40 -4.79 11.71 -0.03 -0.19 0.13 2028
0.01 1.21 -0.62 -4.87 11.64 -0.11 -0.04 0.04 2035
-0.01 1.25 0.87 -1.67 10.71 -0.06 -0.00 0.09 2041
0.01 1.26 0.56 -0.44 10.31 -0.01 -0.00 0.08 2048
0.01 1.28 0.68 -0.39 9.80 0.02 0.00 0.07 2054
0.01 1.23 0.77 -0.75 9.92 0.01 -0.00 0.07 2060
0.02 1.25 0.85 -0.86 9.94 0.00 -0.00 0.08 2066
0.02 1.20 0.78 -0.96 9.99 -0.00 -0.01 0.09 2073
0.00 1.18 0.72 -0.90 10.07 -0.01 -0.00 0.09 2079
0.00 1.18 0.70 -0.85 10.04 -0.02 0.00 0.08 2085
0.02 1.18 0.76 -0.89 10.04 -0.02 0.01 0.08 2092
0.01 1.16 0.74 -0.85 10.00 -0.01 0.01 0.08 2098
0.00 1.22 0.72 -0.86 9.97 -0.02 0.01 0.07 2104
0.02 1.19 0.78 -0.84 9.91 -0.02 0.01 0.07 2111
0.00 1.25 0.80 -0.78 9.93 -0.03 0.01 0.07 2117
-0.01 1.24 0.82 -0.79 10.00 -0.02 0.01 0.06 2123
-0.01 1.24 0.79 -0.77 10.11 -0.02 0.01 0.07 2129
0.01 1.24 0.78 -0.74 10.04 -0.01 0.01 0.06 2136
-0.00 1.22 0.80 -0.75 10.00 -0.01 0.00 0.06 2142
0.02 1.23 0.80 -0.74 9.96 -0.01 -0.01 0.06 2149
0.02 1.20 0.82 -0.77 9.99 -0.00 -0.01 0.06 2155
0.02 1.19 0.81 -0.80 10.03 -0.00 -0.02 0.06 2161
0.00 1.17 0.83 -0.78 9.97 0.00 -0.02 0.06 2167
0.01 1.15 0.83 -0.80 9.88 0.00 -0.03 0.06 2173
0.01 1.10 0.81 -0.84 10.04 0.00 -0.03 0.06 2180
0.00 1.07 0.74 -0.78 10.03 0.00 -0.03 0.06 2186
0.03 1.04 0.80 -0.77 10.01 0.01 -0.03 0.07 2193
0.04 1.02 0.78 -0.78 9.96 0.00 -0.03 0.06 2199
0.04 0.95 0.81 -0.76 9.92 0.00 -0.03 0.06 2205
0.04 0.96 0.76 -0.75 9.91 0.01 -0.04 0.06 2211
0.07 0.87 0.76 -0.77 9.93 0.01 -0.03 0.06 2217
0.06 0.85 0.80 -0.75 9.99 0.00 -0.03 0.06 2224
0.06 0.83 0.75 -0.79 9.97 0.00 -0.03 0.06 2230
0.06 0.83 0.79 -0.78 9.95 0.01 -0.03 0.06 2237
0.06 0.83 0.77 -0.79 9.99 0.01 -0.02 0.06 2243
0.07 0.80 0.81 -0.80 9.95 0.01 -0.02 0.05 2249
0.06 0.78 0.80 -0.79 9.96 0.00 -0.02 0.06 2255
0.08 0.76 0.81 -0.81 9.97 0.00 -0.02 0.06 2262
0.06 0.72 0.82 -0.75 9.99 0.00 -0.02 0.06 2268
0.06 0.72 0.78 -0.79 9.95 0.00 -0.02 0.06 2274
0.07 0.72 0.76 -0.80 9.87 0.00 -0.02 0.05 2280
0.08 0.70 0.79 -0.79 9.96 0.00 -0.02 0.06 2287
0.08 0.64 0.76 -0.80 9.94 0.01 -0.01 0.05 2293
0.08 0.61 0.80 -0.80 9.93 0.01 -0.02 0.06 2299
0.09 0.61 0.80 -0.81 9.98 0.01 -0.02 0.05 2306
0.10 0.61 0.79 -0.77 9.97 0.00 -0.01 0.06 2312
0.09 0.59 0.79 -0.75 9.96 0.01 -0.01 0.06 2318
0.11 0.58 0.84 -0.82 9.93 0.01 -0.02 0.05 2324
0.13 0.58 0.83 -0.79 10.00 0.00 -0.02 0.05 2331
0.12 0.53 0.81 -0.81 9.95 0.01 -0.02 0.05 2337
0.09 0.50 0.82 -0.80 9.94 0.01 -0.02 0.05 2343
0.11 0.46 0.79 -0.80 9.91 0.00 -0.02 0.04 2350
0.11 0.46 0.79 -0.80 9.89 0.00 -0.02 0.05 2356
0.11 0.41 0.80 -0.82 9.89 0.00 -0.02 0.05 2362
0.10 0.42 0.75 -0.79 9.98 0.00 -0.01 0.05 2368
0.13 0.42 0.80 -0.81 9.96 0.00 -0.01 0.05 2374
0.13 0.40 0.80 -0.80 9.93 0.00 -0.00 0.05 2381
0.12 0.36 0.77 -0.82 9.94 0.00 0.01 0.04 2387
0.14 0.37 0.85 -0.82 9.95 -0.00 0.01 0.05 2394
0.15 0.32 1.09 -0.80 9.92 -0.00 0.00 0.04 2400
0.14 0.30 0.84 -0.79 9.91 -0.00 0.00 0.04 2406
0.14 0.27 0.88 -0.81 9.95 -0.00 -0.00 0.04 2412
0.13 0.34 0.88 -0.75 9.77 -0.01 -0.01 0.03 2418
0.14 0.26 0.83 -0.79 9.99 0.00 -0.00 0.04 2424
0.17 0.19 0.81 -0.78 10.07 0.00 -0.00 0.04 2432
0.19 0.17 0.86 -0.78 10.01 0.01 -0.01 0.04 2438
0.21 0.10 0.88 -0.86 10.02 0.02 0.00 0.05 2444
0.21 0.10 0.93 -0.84 10.07 0.03 0.00 0.05 2450
0.23 0.07 0.87 -0.88 10.09 0.04 0.00 0.04 2456
0.25 0.05 0.83 -0.69 10.11 0.05 0.01 0.05 2463
0.26 0.01 0.93 -0.80 10.12 0.06 0.02 0.05 2469
0.27 -0.00 0.88 -0.89 10.04 0.07 0.03 0.04 2476
0.32 -0.02 1.05 -0.97 10.11 0.10 0.05 0.05 2482
0.35 -0.04 0.77 -0.92 10.29 0.13 0.08 0.04 2488
0.38 -0.02 0.86 -1.16 10.46 0.19 0.12 0.03 2494
0.39 -0.02 1.01 -0.87 10.67 0.30 0.21 0.01 2501
0.42 -0.04 1.05 -0.90 11.09 0.46 0.33 -0.00 2507
0.42 -0.03 1.16 -1.03 11.78 0.75 0.51 -0.02 2513
0.45 -0.03 1.24 -1.04 12.38 1.21 0.70 -0.04 2520
0.42 -0.03 2.09 -1.05 13.81 1.75 0.77 -0.09 2526
0.44 -0.02 1.92 -1.13 15.40 2.21 0.65 -0.16 2533
0.42 -0.03 2.20 -1.45 16.11 2.59 0.43 -0.27 2539
0.37 -0.01 2.21 -1.52 16.51 2.95 0.22 -0.36 2545
0.36 -0.01 1.66 -1.22 17.47 3.34 0.11 -0.42 2551
0.33 -0.02 2.36 -1.34 18.51 3.73 0.04 -0.46 2558
0.27 -0.01 3.48 -2.64 18.30 4.12 -0.03 -0.56 2565
0.19 -0.00 3.01 -1.59 19.91 4.28 -0.19 -0.62 2571
0.18 0.00 4.11 -2.58 18.41 4.28 -0.26 -0.63 2577
0.13 0.01 4.42 -3.44 19.50 4.28 -0.25 -0.74 2584
0.11 -0.00 3.59 -3.27 23.57 4.28 -0.04 -0.80 2590
0.12 0.00 3.67 -4.76 24.03 4.28 0.04 -0.73 2596
0.11 -0.00 3.53 -5.81 22.76 4.28 0.12 -0.67 2603
0.12 -0.01 3.87 -5.27 24.96 4.28 0.23 -0.68 2609
0.08 -0.01 4.68 -3.84 25.33 4.28 0.10 -0.75 2615
0.08 -0.00 3.51 -2.15 26.41 4.26 -0.20 -0.86 2622
0.08 -0.01 3.26 -1.80 26.44 4.11 -0.60 -0.90 2628
0.06 -0.01 3.30 0.92 23.75 3.89 -0.82 -0.91 2634
0.06 -0.01 3.25 5.74 19.77 3.69 -0.88 -0.90 2640
0.06 -0.01 4.64 12.84 14.43 3.37 -1.08 -0.87 2647
0.03 -0.00 6.00 22.25 13.56 2.74 -1.12 -0.97 2654
0.06 -0.01 6.00 17.76 9.59 1.92 -0.84 -1.15 2660
0.06 -0.01 7.97 15.22 11.92 1.07 -0.62 -1.26 2666
0.05 -0.01 7.25 18.07 13.02 0.40 -0.31 -1.35 2672
0.07 -0.01 5.45 16.02 9.90 -0.13 -0.06 -1.50 2678
0.06 -0.01 3.80 13.45 7.12 -0.39 -0.02 -1.62 2684
0.05 -0.00 3.35 12.50 5.13 -0.54 -0.06 -1.65 2692
0.06 -0.01 2.62 12.26 4.42 -0.66 -0.14 -1.63 2698
0.05 -0.01 2.83 11.92 4.35 -0.77 -0.21 -1.58 2704
0.05 -0.00 3.30 11.24 4.51 -0.88 -0.24 -1.50 2710
0.05 -0.01 3.79 10.74 4.97 -1.00 -0.26 -1.39 2716
0.05 -0.01 4.12 10.22 5.03 -1.14 -0.21 -1.26 2723
0.05 -0.00 4.28 9.82 5.01 -1.29 -0.12 -1.12 2729
0.04 -0.00 4.30 9.18 5.05 -1.41 -0.02 -0.98 2736
0.06 -0.01 4.25 8.48 5.44 -1.54 0.07 -0.82 2742
0.05 -0.00 4.20 7.79 6.20 -1.64 0.19 -0.70 2748
0.04 -0.00 4.13 7.06 7.87 -1.75 0.33 -0.55 2754
0.04 -0.00 4.05 6.50 8.48 -1.88 0.50 -0.39 2760
0.05 -0.01 3.99 6.02 9.43 -2.05 0.65 -0.24 2766
0.06 -0.01 3.66 5.51 10.23 -2.22 0.78 -0.08 2772
0.05 -0.00 3.34 4.77 10.80 -2.46 0.85 0.07 2780
0.06 -0.01 3.01 3.78 11.31 -2.68 0.87 0.22 2786
0.05 -0.01 2.70 2.88 11.52 -2.86 0.88 0.36 2792
0.05 -0.00 2.56 1.61 11.48 -2.97 0.91 0.45 2798
0.05 -0.01 2.56 0.34 11.68 -3.03 0.93 0.54 2804
0.06 -0.01 2.61 -0.77 11.83 -3.04 0.96 0.60 2810
0.05 -0.00 2.58 -1.60 12.00 -3.00 1.01 0.63 2817
0.03 -0.00 2.57 -2.40 12.43 -2.94 1.06 0.64 2824
0.04 0.00 2.35 -3.08 12.96 -2.84 1.11 0.63 2830
0.04 -0.00 2.10 -3.63 13.54 -2.80 1.13 0.64 2836
0.03 -0.00 1.70 -3.99 14.04 -2.73 1.08 0.65 2842
0.04 0.01 1.02 -4.18 14.46 -2.66 1.02 0.66 2848
0.04 -0.00 0.49 -4.45 14.80 -2.60 0.85 0.67 2854
0.04 -0.00 0.24 -4.72 15.04 -2.53 0.63 0.69 2862
0.04 0.00 0.24 -4.96 15.41 -2.47 0.40 0.70 2868
0.05 -0.00 0.50 -5.00 15.68 -2.43 0.17 0.70 2874
0.04 -0.00 1.08 -4.93 16.14 -2.41 0.01 0.70 2880
0.04 -0.00 1.98 -4.76 16.23 -2.42 -0.04 0.69 2886
0.06 -0.00 2.70 -4.72 16.61 -2.48 -0.02 0.68 2892
0.04 -0.00 3.45 -5.03 16.64 -2.58 0.12 0.67 2899
0.03 -0.00 3.93 -5.46 16.76 -2.69 0.31 0.67 2906
0.05 -0.00 4.46 -5.99 16.56 -2.78 0.50 0.67 2912
0.04 -0.00 4.67 -6.48 16.19 -2.86 0.71 0.68 2918
0.03 -0.00 4.58 -7.24 15.40 -2.88 0.93 0.73 2924
0.04 0.01 4.44 -7.97 15.50 -2.84 1.13 0.80 2930
0.04 -0.00 4.04 -8.72 15.22 -2.74 1.29 0.89 2937
0.03 -0.00 3.57 -9.38 14.81 -2.60 1.36 1.00 2944
0.04 0.01 3.00 -10.09 14.37 -2.40 1.37 1.10 2950
0.04 -0.00 2.79 -10.89 13.80 -2.18 1.31 1.21 2956
0.04 0.00 2.42 -11.50 13.34 -1.94 1.18 1.30 2962
0.06 -0.00 1.57 -11.59 13.93 -1.68 0.99 1.38 2969
0.04 -0.00 0.85 -12.11 13.76 -1.50 0.81 1.45 2975
0.05 0.00 0.25 -12.28 13.32 -1.32 0.62 1.51 2981
0.04 -0.00 -0.07 -12.22 13.38 -1.25 0.39 1.53 2988
0.03 0.00 0.13 -12.53 12.60 -1.18 0.25 1.51 2995
0.05 -0.01 0.36 -12.75 12.33 -1.19 0.16 1.46 3001
0.05 -0.00 0.56 -13.02 11.80 -1.24 0.19 1.38 3007
0.05 0.00 0.75 -13.18 10.62 -1.32 0.33 1.28 3013
0.05 -0.01 0.57 -13.10 9.13 -1.40 0.57 1.19 3020
0.04 -0.00 -0.35 -13.33 8.39 -1.45 0.95 1.16 3026
0.05 0.00 -1.97 -13.66 8.13 -1.45 1.39 1.18 3033
0.05 -0.01 -3.97 -14.20 8.67 -1.44 1.58 1.17 3039
0.05 -0.00 -5.65 -14.84 8.03 -1.38 1.45 1.12 3045
0.05 0.00 -6.61 -15.70 8.02 -1.29 1.07 1.05 3051
0.06 -0.01 -6.70 -16.17 7.01 -1.16 0.58 0.94 3058
0.05 -0.00 -6.09 -16.35 5.99 -0.99 0.12 0.84 3064
0.05 -0.00 -5.07 -16.54 5.06 -0.77 -0.22 0.72 3070
0.06 -0.01 -3.87 -16.78 4.47 -0.52 -0.43 0.56 3077
0.04 -0.00 -2.28 -16.94 4.60 -0.28 -0.52 0.35 3083
0.04 0.00 -0.07 -16.79 5.23 -0.03 -0.50 0.08 3089
0.05 0.00 0.90 -16.41 5.93 0.15 -0.37 -0.22 3096
0.04 -0.00 -3.25 -23.71 29.06 0.74 -0.55 -0.51 3102
0.03 -0.00 1.61 -12.56 2.39 1.29 -0.51 -0.66 3108
0.05 -0.00 -3.56 -15.71 5.94 1.61 -0.84 -0.80 3115
0.04 -0.00 -5.16 -18.95 5.67 1.93 -1.53 -0.82 3121
0.03 -0.00 -4.60 -19.05 6.04 2.17 -2.13 -0.73 3128
0.05 0.04 -0.69 -10.70 4.02 2.40 -2.55 -0.58 3134
0.04 0.13 4.03 1.70 3.98 2.65 -2.28 -0.42 3140
0.02 0.28 5.95 -1.83 11.75 3.06 -1.71 -0.09 3146
0.03 0.63 3.40 -1.57 22.98 3.58 -1.46 0.21 3152
0.02 0.75 -1.99 -1.69 22.03 3.68 -1.29 0.36 3160
0.01 0.91 -3.34 -2.03 18.78 3.72 -1.38 0.14 3166
0.02 1.00 -0.17 -6.10 34.90 4.03 -1.39 -0.12 3172
0.00 0.99 0.71 -1.34 23.06 1.47 -1.74 -0.04 3178
0.01 1.02 0.89 -5.37 11.98 0.03 -0.33 0.11 3184
0.01 1.09 -0.37 -3.64 11.34 -0.11 0.02 0.09 3191
0.00 1.07 0.70 -1.31 10.29 -0.06 0.00 0.11 3197
0.00 1.06 0.54 -0.33 9.98 -0.03 0.01 0.08 3204
0.03 1.04 0.85 -0.14 9.71 -0.00 0.01 0.09 3210
0.02 1.02 0.92 -0.74 9.82 -0.01 -0.00 0.09 3216
0.01 1.03 0.97 -1.08 10.08 -0.03 -0.01 0.09 3222
0.02 1.06 0.83 -1.12 10.11 -0.04 -0.01 0.09 3229
0.02 1.05 0.69 -0.86 10.03 -0.04 0.00 0.09 3235
0.02 1.11 0.70 -0.87 10.25 -0.05 0.01 0.08 3241
0.03 1.14 0.83 -0.83 10.01 -0.04 0.01 0.07 3248
0.01 1.15 0.75 -0.75 9.91 -0.04 0.01 0.07 3254
0.00 1.19 0.74 -0.75 9.92 -0.04 0.02 0.07 3260
0.00 1.19 0.76 -0.73 9.92 -0.04 0.02 0.07 3267
-0.01 1.20 0.82 -0.72 9.94 -0.03 0.02 0.06 3273
-0.01 1.22 0.91 -0.70 9.99 -0.03 0.02 0.06 3279
-0.01 1.22 0.91 -0.68 10.20 -0.01 0.01 0.05 3286
-0.01 1.19 0.88 -0.71 10.00 -0.00 0.00 0.06 3292
-0.00 1.13 0.85 -0.75 9.93 0.00 -0.01 0.06 3298
0.00 1.10 0.88 -0.76 10.03 0.01 -0.01 0.06 3305
0.02 1.06 0.82 -0.70 9.98 0.01 -0.02 0.07 3311
0.02 1.01 0.81 -0.74 10.02 0.02 -0.03 0.06 3317
0.02 0.97 0.77 -0.71 10.06 0.02 -0.03 0.07 3323
0.04 0.95 0.79 -0.80 9.97 0.02 -0.03 0.07 3330
0.03 0.87 0.80 -0.71 9.98 0.02 -0.02 0.07 3336
0.03 0.82 0.82 -0.72 9.94 0.02 -0.02 0.07 3342
0.05 0.79 0.82 -0.71 9.92 0.02 -0.02 0.07 3349
0.06 0.73 0.86 -0.71 9.96 0.03 -0.02 0.07 3355
0.07 0.70 0.83 -0.72 9.95 0.03 -0.02 0.06 3361
0.06 0.65 0.90 -0.74 9.89 0.03 -0.03 0.06 3367
0.08 0.63 0.88 -0.73 9.94 0.03 -0.04 0.06 3374
0.07 0.55 0.85 -0.77 9.95 0.03 -0.04 0.05 3380
0.08 0.55 0.85 -0.75 9.94 0.02 -0.04 0.05 3386
0.11 0.53 0.87 -0.77 9.97 0.02 -0.05 0.05 3393
0.12 0.49 0.79 -0.77 9.95 0.02 -0.05 0.05 3399
0.10 0.47 0.83 -0.74 10.03 0.02 -0.05 0.05 3405
0.12 0.48 0.79 -0.77 9.90 0.02 -0.05 0.05 3411
0.13 0.42 0.77 -0.73 9.94 0.02 -0.05 0.05 3418
0.11 0.38 0.80 -0.79 9.94 0.02 -0.05 0.05 3424
0.10 0.40 0.81 -0.79 9.99 0.02 -0.05 0.05 3430
0.12 0.40 0.78 -0.80 9.93 0.02 -0.05 0.05 3437
0.12 0.37 0.85 -0.74 9.94 0.02 -0.06 0.05 3443
0.12 0.29 0.82 -0.74 9.94 0.01 -0.05 0.05 3449
0.14 0.29 0.84 -0.78 9.91 0.02 -0.05 0.05 3456
0.18 0.28 0.81 -0.79 9.87 0.02 -0.05 0.05 3462
0.18 0.26 0.84 -0.80 9.93 0.02 -0.05 0.04 3468
0.20 0.24 0.81 -0.76 9.94 0.01 -0.04 0.04 3474
0.22 0.22 0.83 -0.76 9.98 0.01 -0.04 0.04 3481
0.23 0.21 0.85 -0.86 9.95 0.01 -0.03 0.04 3487
0.22 0.12 0.77 -0.78 9.94 0.02 -0.03 0.04 3493
0.22 0.13 0.82 -0.85 9.96 0.02 -0.02 0.04 3500
0.24 0.12 0.80 -0.84 10.02 0.02 -0.02 0.04 3506
0.23 0.08 0.78 -0.81 10.05 0.02 -0.01 0.04 3512
0.25 0.05 0.85 -0.81 10.00 0.02 -0.01 0.04 3518
0.29 0.06 0.86 -0.84 10.04 0.02 -0.00 0.04 3525
0.31 0.02 0.85 -0.85 10.03 0.02 0.00 0.03 3531
0.31 0.03 0.89 -0.76 10.02 0.03 0.00 0.04 3537
0.36 0.03 0.85 -0.78 10.00 0.03 0.01 0.04 3544
0.37 0.01 0.87 -0.83 10.02 0.03 0.01 0.03 3550
0.34 -0.01 0.88 -0.86 10.00 0.04 0.01 0.03 3557
0.36 0.02 0.91 -0.81 10.10 0.04 0.02 0.03 3563
0.37 -0.02 0.97 -0.26 10.05 0.05 0.02 0.03 3569
0.39 -0.02 0.96 -1.36 10.04 0.06 0.03 0.02 3575
0.44 -0.02 0.92 -0.80 10.10 0.10 0.03 0.01 3581
0.46 -0.03 0.90 -0.98 9.92 0.08 0.04 0.01 3588
0.47 -0.03 0.91 -0.90 10.07 0.10 0.06 0.01 3595
0.50 -0.03 0.93 -0.88 10.10 0.13 0.07 -0.00 3601
0.55 -0.04 1.00 -0.94 10.16 0.16 0.10 -0.01 3607
0.56 -0.04 1.04 -0.91 10.23 0.21 0.14 -0.02 3613
0.59 -0.03 1.05 -0.92 10.34 0.29 0.20 -0.03 3619
0.61 -0.04 1.10 -0.96 10.58 0.39 0.26 -0.04 3627
0.60 -0.03 1.02 -0.99 10.86 0.55 0.34 -0.05 3633
0.62 -0.03 1.16 -1.09 11.21 0.76 0.43 -0.07 3639
0.63 -0.03 1.38 -1.15 11.57 1.02 0.54 -0.09 3645
0.62 -0.04 1.48 -1.41 12.00 1.30 0.59 -0.11 3651
0.64 -0.03 1.49 -1.57 12.15 1.51 0.57 -0.13 3658
0.61 -0.04 1.25 -1.24 12.59 1.66 0.50 -0.17 3664
0.55 -0.03 1.35 -1.25 12.60 1.80 0.40 -0.17 3671
0.53 -0.02 1.26 -1.73 13.91 1.94 0.26 -0.15 3677
0.47 -0.02 1.77 -1.98 14.75 2.23 0.17 -0.17 3684
0.42 -0.01 2.17 -1.54 15.27 2.52 0.14 -0.22 3690
0.39 -0.01 2.37 -1.71 15.12 2.89 0.13 -0.30 3696
0.33 -0.01 2.09 -1.83 14.76 3.17 0.15 -0.35 3702
0.27 -0.01 1.85 -2.08 15.57 3.47 0.15 -0.37 3708
0.23 -0.01 2.32 -2.33 16.79 3.80 0.13 -0.38 3716
0.17 -0.00 2.46 -2.63 17.85 4.08 0.06 -0.42 3722
0.16 -0.01 3.34 -3.34 18.82 4.23 -0.03 -0.48 3728
0.16 -0.00 3.91 -3.91 18.94 4.28 -0.11 -0.56 3734
0.10 0.01 3.65 -4.76 19.01 4.28 -0.08 -0.58 3741
0.10 -0.00 2.83 -5.08 22.11 4.28 -0.11 -0.56 3747
0.09 -0.00 3.66 -5.97 20.47 4.28 0.00 -0.54 3753
0.07 -0.00 4.59 -5.52 22.54 4.28 0.15 -0.55 3760
0.05 -0.00 6.42 -4.28 25.16 4.27 0.08 -0.63 3766
0.06 -0.01 6.40 -4.88 26.94 4.24 -0.10 -0.79 3772
0.06 -0.01 4.85 -5.35 25.22 4.11 -0.30 -0.92 3779
0.08 -0.01 5.16 -4.42 23.83 4.00 -0.37 -1.02 3785
0.05 -0.00 4.22 -1.21 19.42 3.95 -0.37 -1.09 3791
0.06 -0.01 3.86 4.36 14.57 3.84 -0.48 -1.07 3798
0.06 -0.01 3.51 7.30 10.38 3.54 -0.62 -1.14 3804
0.05 -0.00 5.30 20.41 11.32 3.05 -0.68 -1.18 3811
0.05 -0.01 3.52 20.28 7.84 2.27 -0.57 -1.30 3817
0.04 -0.00 5.70 12.09 11.02 1.49 -0.52 -1.40 3823
0.04 -0.00 5.98 13.06 11.47 0.59 -0.31 -1.41 3829
0.06 -0.00 4.77 14.88 9.46 -0.06 0.05 -1.42 3835
0.04 -0.00 3.78 12.74 7.31 -0.32 0.22 -1.52 3842
0.04 -0.00 3.29 9.94 6.23 -0.40 0.13 -1.60 3849
0.05 -0.01 2.63 9.08 5.07 -0.44 -0.04 -1.63 3855
0.07 -0.01 2.28 9.36 4.65 -0.50 -0.23 -1.59 3861
0.06 -0.01 2.34 9.47 4.55 -0.57 -0.35 -1.51 3867
0.05 -0.01 2.79 9.10 5.61 -0.68 -0.49 -1.39 3873
0.05 -0.00 3.39 8.67 5.91 -0.80 -0.59 -1.31 3879
0.06 -0.01 3.76 8.22 5.79 -0.96 -0.67 -1.18 3886
0.05 -0.00 4.02 7.85 6.15 -1.14 -0.67 -1.05 3892
0.04 -0.00 4.31 7.45 6.66 -1.33 -0.60 -0.91 3899
0.05 -0.00 4.63 7.09 7.19 -1.52 -0.46 -0.77 3905
0.05 -0.01 4.88 6.69 7.92 -1.75 -0.29 -0.62 3911
0.04 -0.00 5.00 6.25 8.44 -2.00 -0.05 -0.46 3917
0.04 -0.00 4.91 5.63 8.81 -2.26 0.20 -0.34 3923
0.05 -0.00 4.69 4.89 9.21 -2.50 0.41 -0.19 3930
0.05 -0.01 4.36 4.00 9.57 -2.70 0.57 -0.06 3936
0.06 -0.01 4.00 3.14 9.88 -2.83 0.68 0.07 3942
0.05 -0.01 3.08 2.31 10.06 -2.95 0.75 0.18 3948
0.06 -0.01 3.30 1.50 10.45 -3.02 0.80 0.27 3955
0.04 -0.00 3.04 0.85 10.71 -3.07 0.82 0.33 3961
0.03 -0.00 2.91 0.14 11.07 -3.10 0.84 0.40 3968
0.04 -0.00 2.79 -0.42 11.40 -3.11 0.86 0.45 3974
0.04 -0.00 2.76 -0.97 11.74 -3.12 0.88 0.48 3980
0.04 -0.00 2.68 -1.58 12.01 -3.12 0.91 0.51 3986
0.04 -0.00 2.66 -2.17 12.27 -3.12 0.95 0.52 3992
0.06 -0.01 2.51 -2.84 12.58 -3.10 1.01 0.53 3999
0.04 -0.00 2.41 -3.41 12.95 -3.07 1.10 0.55 4005
0.04 -0.00 2.21 -3.69 13.43 -3.03 1.14 0.59 4012
0.06 -0.01 1.96 -3.89 13.88 -2.99 1.21 0.63 4018
0.05 -0.00 1.63 -4.01 14.23 -2.94 1.27 0.68 4024
0.04 -0.00 1.39 -4.26 14.69 -2.89 1.32 0.74 4030
0.05 0.00 1.14 -4.58 15.11 -2.85 1.33 0.80 4037
0.05 -0.00 1.08 -4.89 15.47 -2.82 1.30 0.85 4043
0.04 -0.00 1.08 -5.23 16.00 -2.78 1.22 0.89 4049
0.05 -0.00 1.24 -5.56 16.34 -2.76 1.11 0.90 4056
0.05 -0.01 1.56 -5.94 16.39 -2.73 0.97 0.90 4062
0.04 -0.00 1.90 -6.44 16.21 -2.69 0.89 0.90 4068
0.04 0.01 2.40 -6.93 15.93 -2.66 0.80 0.88 4075
0.05 -0.00 2.80 -7.93 15.62 -2.61 0.75 0.85 4081
0.05 -0.00 3.07 -7.74 15.32 -2.54 0.71 0.83 4087
0.04 0.01 3.06 -8.10 15.09 -2.45 0.69 0.81 4093
0.05 0.00 2.81 -8.29 14.77 -2.35 0.67 0.79 4100
0.05 -0.00 2.42 -8.40 14.68 -2.24 0.60 0.78 4107
0.05 0.00 2.21 -8.64 14.48 -2.09 0.57 0.78 4113
0.05 -0.01 2.10 -8.70 14.04 -1.95 0.51 0.78 4119
0.05 -0.00 1.87 -8.79 14.03 -1.83 0.45 0.78 4125
0.05 -0.00 1.79 -8.92 13.61 -1.70 0.43 0.79 4131
0.06 -0.00 1.71 -8.95 13.31 -1.57 0.42 0.80 4137
0.05 -0.01 1.67 -8.93 12.81 -1.44 0.41 0.80 4145
0.05 0.00 1.31 -8.95 13.28 -1.34 0.44 0.80 4151
0.06 -0.00 1.00 -9.03 13.54 -1.27 0.50 0.79 4157
0.05 -0.00 0.93 -9.07 13.84 -1.25 0.58 0.77 4163
0.04 0.00 1.02 -9.04 13.84 -1.29 0.67 0.73 4169
0.06 -0.00 1.10 -9.12 13.69 -1.37 0.83 0.68 4176
0.05 -0.00 1.15 -9.27 12.98 -1.50 1.01 0.63 4183
0.04 0.00 0.74 -9.41 11.83 -1.62 1.22 0.60 4189
0.05 -0.00 -0.36 -10.46 10.97 -1.71 1.43 0.60 4195
0.05 -0.00 -2.14 -12.10 11.03 -1.67 1.48 0.62 4201
0.04 0.01 -3.27 -12.65 10.23 -1.54 1.34 0.63 4208
0.05 -0.00 -4.32 -13.32 7.92 -1.38 1.10 0.63 4214
0.04 -0.00 -4.87 -15.32 9.89 -1.17 0.71 0.62 4220
0.05 0.01 -4.84 -15.69 7.23 -0.89 0.33 0.60 4227
0.05 -0.01 -4.70 -15.83 3.15 -0.69 0.15 0.55 4233
0.04 -0.00 -5.57 -17.22 8.67 -0.34 -0.21 0.49 4240
0.05 0.01 -4.34 -16.96 5.46 -0.13 -0.34 0.42 4246
0.05 -0.01 -4.92 -17.22 4.32 0.14 -0.54 0.31 4252
0.04 -0.00 -4.11 -18.36 6.47 0.39 -0.80 0.18 4258
0.05 0.01 -4.71 -18.60 6.32 0.70 -1.07 0.01 4264
0.05 -0.00 -3.58 -17.65 6.30 0.95 -1.21 -0.16 4271
0.05 -0.00 -3.83 -18.38 5.80 1.13 -1.43 -0.31 4278
0.05 0.00 -4.54 -18.64 7.11 1.33 -1.74 -0.38 4284
0.05 0.01 -5.72 -20.82 4.42 1.51 -2.01 -0.44 4290
0.03 0.05 -6.62 -23.09 2.18 1.71 -2.38 -0.43 4296
0.04 0.15 -5.29 -17.91 1.89 2.14 -2.55 -0.34 4303
0.03 0.44 -1.06 -0.66 11.59 2.90 -2.41 -0.31 4310
0.02 0.64 -3.43 -5.08 22.85 3.86 -2.37 -0.43 4316
0.02 0.78 0.83 -1.99 26.86 4.10 -2.33 -0.58 4322
0.01 0.89 2.38 -7.20 63.68 3.60 -3.70 -0.59 4328
0.00 1.00 0.28 -2.69 12.65 0.32 -0.89 0.10 4335
0.01 1.05 -0.87 -6.29 12.58 -0.04 -0.20 0.09 4341
0.00 1.11 -0.44 -2.85 11.24 -0.06 -0.08 0.09 4347
0.01 1.17 0.39 -0.88 10.46 -0.03 -0.01 0.08 4354
0.02 1.12 0.60 -0.22 10.00 0.01 -0.01 0.08 4360
0.01 1.11 0.68 -0.39 9.23 0.02 0.01 0.09 4367
0.02 1.11 0.88 -0.64 9.81 0.01 0.00 0.08 4373
0.04 1.15 0.93 -0.75 9.78 0.00 0.01 0.09 4379
0.02 1.12 0.74 -0.83 9.95 -0.01 0.01 0.09 4385
0.02 1.09 0.54 -0.77 9.88 -0.02 0.01 0.09 4391
0.04 1.13 0.64 -0.74 10.02 -0.02 0.02 0.08 4398
0.03 1.15 0.68 -0.69 10.10 -0.02 0.02 0.07 4404
0.02 1.15 0.68 -0.71 10.21 -0.02 0.02 0.07 4411
0.06 1.14 0.66 -0.70 10.07 -0.02 0.03 0.07 4417
0.05 1.13 0.62 -0.70 9.82 -0.02 0.04 0.07 4423
0.04 1.16 0.72 -0.66 9.97 -0.02 0.04 0.07 4429
0.05 1.14 0.72 -0.71 10.11 -0.02 0.04 0.06 4435
0.06 1.13 0.70 -0.63 10.08 -0.01 0.05 0.06 4442
0.04 1.10 0.89 -0.25 8.33 -0.01 0.05 0.06 4449
0.06 1.09 0.68 -0.65 10.06 -0.00 0.05 0.07 4455
0.06 1.06 0.70 -0.63 10.11 0.00 0.06 0.07 4461
0.06 1.02 0.72 -0.69 10.06 0.01 0.06 0.07 4467
0.06 0.97 0.77 -0.70 10.07 0.01 0.06 0.08 4473
0.07 0.90 0.76 -0.66 9.96 0.02 0.05 0.08 4480
0.06 0.86 0.81 -0.67 9.96 0.02 0.05 0.08 4487
0.07 0.81 0.72 -0.59 9.93 0.02 0.05 0.08 4493
0.08 0.77 0.86 -0.65 10.04 0.02 0.04 0.08 4499
0.08 0.74 0.85 -0.64 9.97 0.03 0.03 0.07 4505
0.08 0.68 0.77 -0.65 10.00 0.03 0.03 0.07 4511
0.09 0.66 0.85 -0.66 9.95 0.03 0.03 0.06 4517
0.11 0.62 0.83 -0.69 10.01 0.03 0.02 0.06 4525
0.12 0.54 0.85 -0.68 9.97 0.03 0.02 0.06 4531
0.12 0.53 0.83 -0.66 9.90 0.03 0.02 0.05 4537
0.13 0.44 0.82 -0.66 9.95 0.03 0.02 0.06 4543
0.13 0.43 0.84 -0.68 9.95 0.03 0.02 0.06 4549
0.12 0.39 0.88 -0.71 10.02 0.03 0.01 0.06 4555
0.13 0.41 0.83 -0.69 9.96 0.02 0.03 0.06 4561
0.13 0.35 0.81 -0.67 9.97 0.03 0.02 0.06 4569
0.12 0.28 0.85 -0.64 9.99 0.03 0.02 0.06 4575
0.12 0.32 0.82 -0.70 10.02 0.03 0.02 0.06 4581
0.13 0.27 0.88 -0.70 9.95 0.03 0.02 0.06 4587
0.14 0.22 0.87 -0.70 9.93 0.03 0.01 0.06 4593
0.13 0.20 0.89 -0.72 9.98 0.02 0.02 0.05 4599
0.13 0.18 0.89 -0.73 9.94 0.02 0.01 0.05 4605
0.14 0.18 0.83 -0.72 9.97 0.02 0.00 0.05 4613
0.13 0.15 0.92 -0.68 9.97 0.01 -0.00 0.05 4619
0.14 0.14 0.86 -0.74 9.99 0.01 -0.01 0.05 4625
0.16 0.14 0.92 -0.68 9.92 0.01 -0.01 0.04 4631
0.17 0.11 0.87 -0.78 9.94 0.01 -0.02 0.04 4637
0.17 0.12 0.89 -0.73 9.96 0.01 -0.02 0.04 4643
0.20 0.11 0.85 -0.70 9.98 0.00 -0.02 0.04 4649
0.20 0.11 0.87 -0.70 9.91 0.01 -0.03 0.05 4656
0.19 0.10 0.88 -0.71 10.00 0.00 -0.03 0.04 4663
0.20 0.08 0.86 -0.72 9.95 -0.00 -0.03 0.04 4669
0.22 0.08 0.91 -0.74 9.98 0.00 -0.02 0.05 4675
0.22 0.07 0.85 -0.71 9.93 0.00 -0.02 0.05 4681
0.20 0.06 0.86 -0.72 9.98 0.00 -0.02 0.05 4687
0.21 0.06 0.86 -0.73 10.00 0.00 -0.02 0.05 4694
0.21 0.04 0.90 -0.71 10.00 0.00 -0.02 0.05 4700
0.21 0.03 0.88 -0.72 9.97 0.00 -0.01 0.05 4707
0.21 0.03 0.85 -0.72 10.00 0.00 -0.01 0.05 4713
0.23 0.02 0.70 -0.69 9.89 0.00 -0.00 0.04 4719
0.21 0.02 0.90 -0.74 9.96 -0.00 -0.01 0.05 4725
0.20 0.02 0.87 -0.74 9.96 -0.00 -0.01 0.04 4731
0.20 0.03 0.93 -0.74 9.91 -0.01 -0.00 0.04 4738
0.21 0.00 0.89 -0.72 9.95 -0.01 -0.00 0.04 4744
0.21 -0.01 0.95 -0.74 9.96 -0.01 0.00 0.04 4750
0.20 0.01 0.92 -0.73 9.95 -0.00 0.00 0.04 4757
0.22 0.01 0.97 -0.74 10.04 0.00 0.00 0.04 4763
0.22 0.01 0.92 -0.72 10.03 0.00 0.00 0.03 4769
0.22 0.00 0.92 -0.71 10.00 0.01 -0.00 0.03 4775
0.24 0.00 1.26 -0.11 10.09 0.02 -0.00 0.03 4782
0.26 -0.01 0.96 -0.97 10.17 0.03 -0.00 0.03 4788
0.26 -0.01 1.04 -0.74 10.13 0.04 0.00 0.02 4795
0.26 -0.01 1.04 -0.75 10.11 0.06 0.01 0.02 4801
0.29 -0.01 1.09 -0.76 10.11 0.08 0.02 0.01 4807
0.27 -0.02 1.08 -0.74 10.21 0.12 0.04 -0.00 4813
0.29 -0.01 1.02 -0.78 10.29 0.16 0.07 -0.02 4819
0.31 -0.02 1.03 -0.87 10.44 0.22 0.11 -0.03 4827
0.32 -0.02 1.10 -0.96 10.97 0.36 0.17 -0.03 4833
0.34 -0.01 1.02 -0.91 11.59 0.58 0.25 -0.04 4839
0.34 -0.02 1.56 -0.98 12.33 0.94 0.35 -0.07 4845
0.32 -0.02 1.97 -0.71 13.53 1.35 0.44 -0.17 4851
0.34 -0.01 1.91 -0.83 14.98 1.84 0.32 -0.31 4858
0.29 -0.02 2.30 -1.00 16.13 2.26 0.12 -0.38 4865
0.29 -0.01 2.40 -1.21 16.56 2.64 -0.14 -0.44 4871
0.30 -0.02 2.59 0.46 16.20 2.99 -0.35 -0.54 4877
0.26 -0.02 3.28 -1.40 17.81 3.38 -0.47 -0.61 4884
0.24 0.01 4.61 -1.66 17.73 3.74 -0.50 -0.74 4890
0.24 -0.00 4.75 -2.26 17.85 4.03 -0.56 -0.89 4896
0.15 -0.01 4.81 -2.68 17.88 4.18 -0.54 -0.98 4902
0.13 -0.00 4.32 -3.12 17.34 4.26 -0.48 -1.07 4909
0.11 -0.01 4.19 -3.29 18.14 4.28 -0.35 -1.10 4916
0.10 0.00 3.72 -3.20 18.94 4.28 0.04 -1.12 4922
0.08 -0.00 4.67 -3.18 19.73 4.28 0.25 -1.15 4928
0.08 -0.01 4.42 -2.83 23.00 4.28 0.41 -1.18 4934
0.06 -0.01 3.13 -1.44 24.09 4.18 0.32 -1.18 4940
0.07 -0.01 1.65 0.50 25.90 3.97 -0.00 -1.20 4947
0.06 -0.01 0.55 2.80 25.72 3.64 -0.40 -1.19 4954
0.05 -0.01 1.22 7.18 21.54 3.27 -0.62 -1.18 4960
0.06 -0.01 1.57 13.10 16.17 2.82 -0.84 -1.15 4966
0.06 -0.01 2.75 18.97 12.54 2.27 -0.99 -1.19 4972
0.07 -0.01 3.52 17.99 8.46 1.60 -0.96 -1.28 4978
0.09 -0.01 5.77 16.74 7.36 1.00 -0.76 -1.34 4985
0.06 -0.01 5.41 18.38 9.19 0.35 -0.42 -1.37 4992
0.05 -0.01 4.42 16.65 7.43 -0.19 -0.03 -1.43 4998
0.07 -0.01 3.77 14.38 5.70 -0.48 0.10 -1.50 5004
0.06 -0.01 2.87 13.05 4.68 -0.66 0.04 -1.53 5010
0.06 -0.01 2.34 12.15 4.16 -0.79 -0.05 -1.52 5016
0.05 -0.01 2.42 11.44 4.02 -0.93 -0.11 -1.46 5023
0.07 -0.01 2.83 10.76 4.33 -1.05 -0.16 -1.35 5029
0.06 -0.01 3.33 10.16 4.74 -1.17 -0.17 -1.22 5036
0.07 -0.00 3.71 9.93 4.90 -1.31 -0.13 -1.07 5042
0.07 -0.01 3.86 9.15 5.34 -1.45 -0.04 -0.94 5048
0.06 -0.01 3.88 8.25 5.72 -1.58 0.06 -0.78 5054
0.05 -0.00 3.81 7.37 6.58 -1.70 0.17 -0.62 5060
0.06 0.01 3.72 6.65 7.70 -1.81 0.26 -0.46 5067
0.05 -0.01 3.64 5.87 8.67 -1.90 0.35 -0.31 5073
0.06 -0.01 3.51 5.05 9.45 -2.02 0.42 -0.18 5080
0.07 -0.01 3.43 3.76 10.23 -2.14 0.49 -0.03 5086
0.08 -0.01 3.38 3.47 11.03 -2.27 0.55 0.04 5092
0.06 -0.01 3.25 2.51 11.42 -2.38 0.60 0.14 5098
0.05 -0.01 3.27 1.64 11.92 -2.48 0.65 0.22 5104
0.06 0.00 3.16 0.71 12.28 -2.55 0.70 0.29 5111
0.05 -0.01 3.12 -0.01 12.50 -2.60 0.74 0.37 5117
0.04 -0.00 3.00 -0.73 12.57 -2.62 0.78 0.44 5124
0.04 0.01 3.02 -1.40 12.80 -2.63 0.80 0.50 5130
0.05 -0.00 3.04 -2.07 12.98 -2.61 0.83 0.57 5136
0.05 -0.00 3.03 -2.59 13.25 -2.57 0.84 0.63 5142
0.05 -0.00 2.92 -2.98 13.35 -2.53 0.84 0.68 5149
0.06 -0.01 2.97 -3.41 13.31 -2.47 0.83 0.73 5155
0.05 -0.00 2.87 -3.76 13.43 -2.39 0.79 0.79 5161
0.05 -0.01 2.71 -4.07 13.47 -2.30 0.73 0.84 5168
0.07 -0.01 2.64 -4.34 13.77 -2.20 0.66 0.88 5174
0.06 -0.01 2.57 -4.63 14.07 -2.09 0.56 0.91 5180
0.04 0.00 2.70 -4.84 14.29 -2.00 0.50 0.93 5187
0.06 -0.01 2.93 -5.17 14.26 -1.92 0.46 0.93 5193
0.05 -0.01 3.08 -5.32 14.40 -1.84 0.43 0.92 5199
0.05 -0.00 3.29 -5.45 14.19 -1.78 0.45 0.90 5206
0.05 -0.00 3.53 -5.67 14.09 -1.72 0.50 0.88 5212
0.06 -0.01 3.65 -5.88 13.82 -1.68 0.56 0.86 5218
0.05 -0.01 3.77 -6.06 13.64 -1.62 0.66 0.84 5225
0.05 -0.00 3.88 -6.32 13.29 -1.57 0.75 0.83 5231
0.06 -0.01 3.96 -6.44 12.90 -1.50 0.83 0.82 5237
0.05 -0.00 3.71 -6.55 12.38 -1.41 0.90 0.81 5243
0.05 -0.00 3.37 -6.70 12.65 -1.31 0.97 0.82 5250
0.06 -0.01 2.94 -6.81 12.72 -1.19 0.98 0.83 5256
0.05 -0.01 2.31 -6.75 12.88 -1.13 0.90 0.85 5263
0.06 -0.00 1.51 -6.78 13.43 -1.05 0.77 0.88 5269
0.06 -0.01 0.83 -6.62 13.72 -1.01 0.62 0.91 5275
0.05 -0.01 0.19 -6.41 13.72 -0.99 0.41 0.95 5281
0.05 -0.01 -0.10 -6.21 13.59 -1.01 0.20 0.99 5287
0.06 -0.01 -0.13 -6.20 13.33 -1.04 0.00 1.02 5294
0.05 -0.00 -0.11 -6.29 12.84 -1.07 -0.15 1.05 5301
0.05 -0.00 0.06 -6.86 13.06 -1.10 -0.25 1.06 5307
0.07 -0.01 0.30 -6.57 11.85 -1.12 -0.28 1.05 5313
0.05 -0.00 0.55 -6.79 11.34 -1.12 -0.26 1.02 5319
0.04 -0.00 0.71 -7.12 10.85 -1.11 -0.19 0.98 5325
0.05 -0.01 0.85 -7.23 10.00 -1.12 -0.14 0.92 5331
0.06 -0.01 0.66 -7.50 9.93 -1.10 -0.04 0.86 5339
0.05 -0.01 0.85 -7.94 9.72 -1.05 0.14 0.81 5345
0.05 -0.01 1.03 -8.46 9.54 -0.99 0.32 0.73 5351
0.06 -0.01 1.06 -8.83 9.33 -0.93 0.52 0.65 5357
0.05 -0.01 0.80 -9.21 9.22 -0.89 0.72 0.56 5363
0.05 -0.01 0.37 -9.52 8.80 -0.86 0.93 0.47 5369
0.05 -0.01 -0.15 -9.73 8.59 -0.84 1.08 0.39 5376
0.07 -0.01 -1.22 -9.86 8.43 -0.84 1.25 0.36 5382
0.05 -0.01 -2.42 -10.17 8.40 -0.85 1.38 0.35 5388
0.04 -0.00 -3.39 -10.61 8.45 -0.87 1.40 0.35 5395
0.06 -0.00 -4.15 -11.32 8.36 -0.90 1.29 0.34 5401
0.05 -0.01 -4.48 -12.16 8.03 -0.90 1.05 0.33 5407
0.05 -0.01 -4.41 -12.98 7.79 -0.87 0.76 0.30 5413
0.05 0.00 -4.12 -13.41 7.35 -0.83 0.50 0.29 5420
0.06 -0.01 -3.81 -13.60 6.56 -0.74 0.31 0.28 5426
0.05 -0.01 -3.43 -13.70 6.01 -0.62 0.20 0.27 5433
0.05 0.00 -2.91 -13.87 5.67 -0.46 0.11 0.27 5439
0.05 -0.01 -6.08 -25.44 16.41 -0.03 -0.31 0.25 5445
0.05 -0.00 -4.19 -15.91 2.68 0.87 -0.91 0.17 5451
0.05 -0.00 -4.53 -14.97 1.24 1.14 -1.13 0.13 5457
0.05 -0.00 -4.79 -17.51 3.54 1.52 -1.59 0.08 5465
0.04 -0.00 -3.42 -19.08 5.51 1.86 -1.81 0.05 5471
0.05 0.03 -3.15 -18.39 3.27 2.10 -1.87 0.02 5477
0.05 0.09 -2.63 -10.48 2.85 2.36 -1.95 0.03 5483
0.03 0.25 -1.10 0.96 9.25 2.88 -1.80 0.02 5489
0.02 0.57 -1.64 -3.97 20.14 3.50 -1.90 -0.08 5496
0.01 0.76 -1.21 -1.10 27.08 3.76 -1.87 -0.22 5502
-0.01 0.93 0.12 -2.26 23.31 3.65 -1.59 -0.29 5509
0.01 1.05 1.63 -6.05 45.31 3.66 -2.08 -0.34 5515
-0.01 1.12 0.05 -2.44 14.26 0.55 -0.84 0.02 5521
-0.01 1.14 -0.31 -6.35 12.56 0.02 -0.15 0.09 5528
0.01 1.20 0.10 -2.93 10.89 -0.06 -0.05 0.09 5534
0.00 1.22 0.61 -0.50 10.27 -0.03 -0.02 0.09 5540
-0.00 1.20 0.57 -0.12 9.93 0.02 -0.02 0.08 5547
0.01 1.13 0.72 -0.46 9.83 0.03 -0.02 0.06 5553
0.02 1.07 0.98 -0.80 9.87 0.01 -0.03 0.07 5559
0.00 1.06 0.82 -1.06 9.92 0.00 -0.02 0.08 5566
-0.00 1.08 0.59 -1.05 9.93 -0.02 -0.02 0.08 5572
0.02 1.09 0.63 -0.88 10.06 -0.03 -0.01 0.07 5578
0.03 1.10 0.75 -0.85 10.03 -0.03 -0.01 0.06 5584
0.03 1.14 0.76 -0.81 9.99 -0.04 -0.01 0.06 5591
0.02 1.18 0.72 -0.85 10.02 -0.03 -0.01 0.06 5597
0.03 1.22 0.68 -0.75 9.98 -0.04 -0.00 0.06 5604
0.01 1.26 0.70 -0.80 10.01 -0.04 0.00 0.06 5610
0.03 1.26 0.73 -0.80 10.04 -0.04 0.01 0.06 5616
0.02 1.25 0.81 -0.68 9.88 -0.03 0.01 0.06 5622
0.01 1.25 0.70 -0.73 10.01 -0.03 0.01 0.06 5628
0.02 1.26 0.71 -0.71 10.02 -0.02 0.02 0.06 5635
0.03 1.25 0.74 -0.73 10.05 -0.01 0.02 0.06 5642
0.02 1.23 0.77 -0.70 9.99 -0.01 0.03 0.06 5648
0.02 1.22 0.80 -0.75 10.05 -0.01 0.02 0.06 5654
0.03 1.21 0.80 -0.75 10.00 -0.01 0.02 0.06 5660
0.02 1.20 0.79 -0.76 9.95 -0.00 0.01 0.06 5666
0.03 1.18 0.80 -0.75 9.96 -0.00 0.01 0.06 5672
0.03 1.16 0.83 -0.72 9.92 -0.00 0.00 0.06 5680
0.04 1.14 0.82 -0.70 9.97 -0.00 -0.00 0.07 5686
0.04 1.12 0.83 -0.70 9.97 -0.00 -0.01 0.06 5692
0.04 1.10 0.82 -0.72 9.96 0.03 -0.01 0.06 5698
0.04 1.05 0.84 -0.69 9.95 -0.00 -0.01 0.06 5704
0.03 1.02 0.82 -0.70 9.92 0.00 -0.02 0.06 5710
0.04 1.00 0.79 -0.68 10.03 0.00 -0.02 0.06 5716
0.04 0.96 0.76 -0.73 9.97 0.00 -0.02 0.05 5723
0.03 0.93 0.78 -0.74 9.98 0.00 -0.01 0.05 5730
0.03 0.89 0.79 -0.73 9.94 0.01 -0.01 0.05 5736
0.04 0.89 0.81 -0.75 9.96 0.01 -0.01 0.05 5742
0.05 0.85 0.86 -0.74 9.95 0.01 -0.01 0.06 5748
0.04 0.77 0.78 -0.71 9.94 0.01 -0.01 0.05 5754
0.03 0.79 0.80 -0.71 9.97 0.01 -0.01 0.06 5761
0.06 0.75 0.77 -0.75 9.99 0.01 -0.00 0.06 5767
0.05 0.71 0.82 -0.73 9.96 0.01 -0.00 0.06 5774
0.04 0.70 0.81 -0.73 9.95 0.01 0.00 0.06 5780
0.05 0.68 0.80 -0.75 9.91 0.01 0.01 0.06 5786
0.07 0.67 0.83 -0.77 9.94 0.01 0.00 0.06 5792
0.07 0.60 0.84 -0.73 9.93 0.01 -0.00 0.06 5798
0.07 0.60 0.85 -0.74 9.94 0.01 0.00 0.06 5805
0.07 0.58 0.77 -0.72 9.84 0.01 -0.00 0.06 5811
0.07 0.55 0.80 -0.73 9.92 0.01 -0.00 0.06 5817
0.09 0.55 0.81 -0.72 9.98 0.01 -0.01 0.06 5824
0.10 0.52 0.79 -0.71 9.85 0.01 -0.01 0.06 5830
0.14 0.51 0.80 -0.73 9.92 0.01 -0.01 0.05 5836
0.11 0.47 0.79 -0.71 9.94 0.01 -0.01 0.06 5842
0.13 0.44 0.78 -0.73 9.98 0.01 -0.01 0.05 5849
0.12 0.40 0.85 -0.74 9.97 0.01 -0.01 0.05 5855
0.12 0.40 0.83 -0.74 9.99 0.02 -0.01 0.06 5861
0.13 0.36 0.85 -0.74 9.97 0.02 -0.02 0.06 5867
0.13 0.31 0.84 -0.76 9.91 0.02 -0.02 0.06 5874
0.13 0.34 0.84 -0.75 9.94 0.02 -0.03 0.06 5880
0.14 0.30 0.86 -0.79 10.00 0.01 -0.02 0.06 5886
0.13 0.29 0.80 -0.80 9.92 0.01 -0.03 0.06 5893
0.13 0.30 0.80 -0.78 10.04 0.01 -0.03 0.05 5899
0.13 0.27 0.81 -0.80 9.97 0.01 -0.02 0.06 5905
0.13 0.22 0.85 -0.80 9.95 0.01 -0.02 0.06 5911
0.15 0.21 0.86 -0.80 9.94 0.01 -0.02 0.05 5918
0.17 0.16 0.84 -0.79 9.94 0.01 -0.02 0.05 5924
0.17 0.14 0.91 -0.82 9.97 0.01 -0.01 0.05 5931
0.18 0.13 0.90 -0.75 10.00 0.01 -0.01 0.05 5937
0.20 0.11 0.87 -0.77 9.99 0.01 -0.01 0.05 5943
0.20 0.08 0.86 -0.77 10.02 0.01 -0.01 0.04 5949
0.19 0.06 0.91 -0.77 10.04 0.01 -0.01 0.04 5956
0.21 0.05 0.92 -0.26 9.86 0.02 -0.01 0.04 5962
0.25 0.01 0.89 -0.83 10.02 0.02 -0.00 0.04 5968
0.24 0.00 0.89 -0.76 10.02 0.03 -0.00 0.04 5975
0.25 0.02 0.87 -0.83 10.01 0.03 -0.00 0.05 5981
0.30 -0.00 0.89 -0.85 9.98 0.04 0.00 0.05 5987
0.34 -0.01 0.90 -0.76 10.07 0.05 0.01 0.04 5993
0.32 -0.01 0.62 -0.67 9.85 0.06 0.02 0.04 6000
0.33 -0.02 0.92 -0.50 10.24 0.08 0.03 0.05 6006
0.35 -0.02 0.96 -0.81 10.26 0.11 0.06 0.04 6012
0.36 -0.02 1.01 -0.89 10.21 0.16 0.13 0.03 6019
0.39 -0.03 1.07 -0.83 10.56 0.24 0.19 0.01 6025
0.38 -0.04 1.01 -0.89 11.08 0.39 0.26 0.00 6032
0.38 -0.02 1.18 -1.06 12.07 0.66 0.42 -0.01 6038
0.41 -0.02 1.48 -1.00 13.48 1.12 0.60 -0.04 6044
0.41 -0.04 2.38 -0.97 13.67 1.72 0.74 -0.14 6050
0.41 -0.02 2.17 -1.61 15.56 2.26 0.61 -0.29 6056
0.40 -0.02 2.29 -1.77 16.49 2.63 0.31 -0.39 6064
0.36 -0.03 1.86 -1.46 16.98 2.97 0.06 -0.46 6070
0.37 -0.00 2.02 -1.85 17.68 3.24 -0.13 -0.58 6076
0.32 -0.02 2.43 -0.97 18.52 3.65 -0.28 -0.55 6082
0.23 -0.01 3.22 -1.92 17.88 4.02 -0.26 -0.57 6089
0.20 -0.01 4.00 -2.16 17.93 4.23 -0.36 -0.67 6095
0.18 -0.01 3.82 -2.64 17.73 4.28 -0.42 -0.72 6102
0.11 -0.00 3.43 -2.95 17.46 4.28 -0.47 -0.79 6108
0.08 -0.00 3.72 -3.29 16.75 4.28 -0.29 -0.80 6114
0.08 -0.01 4.10 -3.92 21.10 4.28 -0.07 -0.82 6121
0.06 -0.00 5.34 -2.95 22.50 4.28 0.15 -0.86 6127
0.07 -0.01 4.75 -0.08 24.68 4.22 0.09 -0.93 6133
0.07 -0.01 3.56 4.15 26.56 4.06 -0.09 -1.02 6139
0.07 -0.01 2.12 5.15 25.83 3.65 -0.43 -1.06 6146
0.09 -0.01 3.35 11.16 22.53 3.15 -0.77 -1.06 6152
0.05 -0.01 2.85 15.84 15.25 2.59 -0.84 -1.04 6159
0.04 -0.00 3.33 16.45 11.40 1.95 -0.77 -1.08 6165
0.04 -0.00 3.84 14.85 7.65 1.38 -0.65 -1.25 6171
0.04 -0.00 4.39 14.54 9.69 0.84 -0.54 -1.41 6177
0.04 -0.00 3.27 14.36 8.87 0.35 -0.36 -1.54 6183
0.05 -0.01 2.58 12.14 6.66 0.12 -0.24 -1.65 6191
0.05 -0.01 1.95 11.22 5.49 -0.05 -0.32 -1.70 6197
0.05 -0.00 1.53 11.23 5.25 -0.20 -0.48 -1.69 6203
0.06 -0.01 1.76 10.92 5.26 -0.37 -0.60 -1.65 6209
0.05 -0.01 2.40 9.87 5.19 -0.56 -0.72 -1.59 6215
0.05 -0.00 2.94 9.85 4.32 -0.72 -0.79 -1.49 6221
0.06 -0.00 3.19 9.33 4.76 -0.87 -0.82 -1.37 6228
0.06 -0.01 3.58 8.43 4.15 -1.00 -0.81 -1.24 6235
0.06 -0.01 3.69 7.69 4.24 -1.09 -0.75 -1.12 6241
0.06 -0.01 3.68 7.04 4.84 -1.15 -0.70 -0.99 6247
0.07 -0.01 3.57 6.63 5.88 -1.24 -0.66 -0.87 6253
0.06 -0.01 3.29 6.37 7.04 -1.33 -0.64 -0.76 6259
0.06 -0.01 3.24 5.97 8.49 -1.45 -0.58 -0.66 6265
0.06 -0.01 3.34 5.45 9.00 -1.60 -0.48 -0.54 6272
0.07 -0.01 3.63 5.05 10.19 -1.77 -0.35 -0.42 6278
0.06 -0.01 3.99 4.61 11.25 -1.97 -0.18 -0.33 6285
0.05 -0.01 4.32 4.02 11.98 -2.19 0.04 -0.25 6291
0.06 -0.01 4.46 3.29 12.66 -2.39 0.30 -0.19 6297
0.05 -0.01 4.44 2.51 13.12 -2.63 0.60 -0.14 6303
0.04 0.00 4.01 1.56 13.42 -2.84 0.77 -0.09 6309
0.06 -0.00 3.36 0.38 13.40 -3.00 0.95 -0.03 6317
0.05 -0.01 2.79 -0.59 13.31 -3.10 1.08 0.06 6323
0.04 -0.00 2.32 -1.69 13.19 -3.14 1.13 0.11 6329
0.06 -0.00 1.88 -2.52 13.18 -3.13 1.11 0.19 6335
0.06 -0.01 1.58 -3.26 13.29 -3.07 1.04 0.27 6341
0.04 -0.00 1.52 -3.72 13.34 -2.99 0.96 0.34 6347
0.06 -0.00 1.69 -4.01 13.39 -2.91 0.90 0.42 6354
0.06 -0.01 1.97 -4.11 13.31 -2.83 0.88 0.50 6361
0.05 -0.00 2.24 -4.03 13.25 -2.74 0.91 0.57 6367
0.06 0.00 2.37 -4.21 13.40 -2.65 0.97 0.64 6373
0.06 -0.01 2.35 -4.51 13.66 -2.54 1.01 0.70 6379
0.05 -0.00 2.18 -4.75 13.89 -2.43 1.03 0.76 6385
0.06 -0.00 1.89 -5.00 14.01 -2.32 1.01 0.81 6392
0.05 -0.01 1.52 -5.37 13.78 -2.20 0.94 0.87 6398
0.06 -0.01 1.30 -5.79 13.52 -2.06 0.81 0.93 6405
0.06 -0.00 1.33 -6.10 13.39 -1.91 0.67 0.98 6411
0.06 -0.01 1.36 -6.16 13.49 -1.77 0.55 1.03 6417
0.06 -0.01 1.51 -6.17 13.27 -1.64 0.47 1.08 6424
0.06 -0.00 1.67 -6.18 13.20 -1.53 0.41 1.10 6430
0.06 -0.00 1.77 -6.15 13.40 -1.41 0.41 1.11 6436
0.05 -0.01 1.90 -6.21 13.49 -1.37 0.46 1.12 6443
0.06 0.00 1.90 -6.33 13.89 -1.30 0.54 1.11 6449
0.05 -0.01 1.86 -6.54 13.40 -1.23 0.65 1.10 6456
0.06 -0.01 1.93 -6.88 13.13 -1.17 0.73 1.07 6462
0.05 -0.00 1.95 -7.13 12.74 -1.11 0.83 1.04 6468
0.06 -0.00 1.74 -7.33 12.91 -1.05 0.92 1.01 6474
0.04 -0.00 1.27 -7.43 13.46 -0.99 0.99 0.99 6480
0.06 0.01 0.62 -7.50 13.03 -0.95 1.01 0.97 6487
0.05 -0.01 0.04 -7.55 13.05 -0.94 0.98 0.97 6494
0.05 -0.01 -0.23 -7.59 13.20 -0.97 0.91 0.96 6500
0.05 -0.00 -0.52 -7.63 13.48 -1.03 0.80 0.94 6506
0.05 -0.00 -0.65 -7.61 13.22 -1.11 0.69 0.91 6512
0.05 -0.00 -0.54 -7.78 12.85 -1.21 0.58 0.88 6518
0.05 -0.00 -0.47 -7.81 12.76 -1.31 0.44 0.82 6524
0.06 -0.01 -0.23 -8.53 10.94 -1.35 0.42 0.75 6532
0.05 -0.00 0.02 -9.20 10.08 -1.34 0.46 0.69 6538
0.04 -0.00 0.35 -9.83 8.69 -1.26 0.52 0.60 6544
0.05 0.00 0.41 -10.33 8.57 -1.14 0.62 0.49 6550
0.05 -0.00 0.23 -10.76 7.99 -1.00 0.74 0.37 6556
0.05 -0.00 -0.04 -11.01 7.49 -0.85 0.88 0.23 6562
0.05 -0.00 -0.45 -10.97 6.87 -0.73 1.03 0.11 6569
0.06 -0.01 -1.08 -11.00 6.73 -0.59 1.23 0.03 6576
0.05 -0.01 -1.92 -11.10 7.04 -0.47 1.42 -0.02 6582
0.05 -0.01 -2.61 -11.38 7.41 -0.36 1.46 -0.07 6588
0.06 -0.01 -3.30 -12.21 7.50 -0.29 1.32 -0.12 6594
0.05 -0.01 -3.65 -12.04 7.41 -0.22 1.05 -0.18 6600
0.05 -0.00 -3.75 -12.21 7.29 -0.15 0.74 -0.21 6607
0.06 -0.01 -3.47 -12.23 7.12 -0.07 0.48 -0.21 6614
0.05 -0.01 -2.98 -12.23 7.03 0.01 0.26 -0.20 6620
0.05 -0.00 -2.25 -12.12 7.05 0.08 0.11 -0.19 6626
0.06 -0.00 -1.44 -12.14 6.87 0.17 0.03 -0.19 6632
0.06 -0.01 -1.43 -13.30 6.44 0.26 -0.02 -0.20 6638
0.05 -0.00 -5.70 -16.80 24.17 0.79 -0.97 -0.17 6645
0.06 -0.00 -3.15 -12.32 5.17 1.14 -1.08 -0.09 6651
0.04 -0.00 -3.42 -13.60 2.46 1.47 -1.70 -0.01 6658
0.04 -0.00 -4.22 -16.73 8.16 1.67 -2.08 0.14 6664
0.07 -0.00 -3.18 -15.96 6.77 1.92 -2.30 0.33 6670
0.06 0.00 -1.29 -6.80 7.31 2.18 -2.36 0.54 6677
0.05 0.15 1.23 1.58 7.64 2.45 -2.16 0.70 6683
0.05 0.42 -1.91 -2.06 18.00 2.80 -2.10 0.77 6689
0.03 0.68 -5.59 -1.51 23.06 3.08 -2.06 0.73 6695
0.02 0.90 -5.56 -1.74 19.17 3.08 -1.77 0.46 6702
0.02 0.99 -4.08 -4.64 37.31 3.49 -1.50 -0.00 6709
0.00 1.03 0.05 -1.30 15.14 0.20 -0.70 -0.03 6715
0.00 1.17 0.03 -3.55 11.02 -0.15 -0.13 -0.00 6721
0.02 1.23 0.50 -5.18 11.73 -0.13 -0.04 -0.01 6727
0.02 1.24 1.21 -1.73 10.32 -0.08 0.02 0.10 6733
0.02 1.26 0.71 -0.25 10.24 -0.03 0.03 0.12 6740
0.01 1.24 0.48 -0.37 9.96 -0.00 0.02 0.09 6747
0.00 1.26 1.21 -0.63 9.88 -0.01 -0.01 0.06 6753
0.00 1.21 1.00 -0.95 9.84 -0.02 -0.01 0.08 6759
0.02 1.23 0.79 -1.00 9.92 -0.03 0.01 0.09 6765
0.02 1.24 0.54 -0.81 10.10 -0.03 0.01 0.09 6771
0.01 1.26 0.57 -0.71 10.07 -0.03 0.00 0.08 6778
0.02 1.31 0.77 -0.78 10.03 -0.03 0.01 0.07 6785
0.01 1.32 0.72 -0.79 10.01 -0.03 0.01 0.08 6791
0.02 1.38 0.68 -0.75 10.05 -0.03 0.00 0.07 6797
0.03 1.37 0.66 -0.73 9.89 -0.03 0.00 0.07 6803
0.01 1.39 0.72 -0.73 9.80 -0.03 0.00 0.07 6809
0.01 1.35 0.79 -0.73 9.97 -0.03 0.00 0.07 6816
0.01 1.38 1.33 -0.82 9.66 -0.03 0.00 0.07 6822
0.02 1.38 0.79 -0.69 9.98 -0.02 -0.00 0.06 6829
0.02 1.39 0.75 -0.70 10.03 -0.02 -0.00 0.07 6835
0.02 1.40 0.74 -0.65 9.96 -0.01 -0.00 0.07 6841
0.03 1.37 0.73 -0.73 9.99 -0.00 -0.00 0.07 6847
0.02 1.35 0.79 -0.69 9.98 -0.00 -0.01 0.07 6853
0.01 1.30 0.74 -0.70 10.04 0.00 -0.01 0.07 6860
0.03 1.28 0.78 -0.69 10.01 0.00 -0.02 0.08 6866
0.01 1.23 0.75 -0.74 10.05 -0.00 -0.02 0.07 6873
0.01 1.21 0.75 -0.75 10.00 0.00 -0.02 0.08 6879
0.03 1.24 0.76 -0.68 9.83 0.00 -0.02 0.07 6885
0.02 1.20 0.74 -0.68 9.97 0.00 -0.02 0.08 6891
0.02 1.15 0.74 -0.70 9.98 0.01 -0.03 0.07 6897
0.03 1.10 0.74 -0.68 9.96 0.01 -0.03 0.07 6904
0.04 1.11 0.78 -0.71 10.01 0.01 -0.03 0.06 6910
0.04 1.04 0.72 -0.71 9.97 0.01 -0.03 0.06 6917
0.07 1.03 0.76 -0.69 9.97 0.00 -0.03 0.06 6923
0.07 0.98 0.78 -0.73 9.93 0.00 -0.03 0.06 6929
0.07 0.98 0.74 -0.70 9.89 0.00 -0.02 0.06 6935
0.06 0.95 0.73 -0.72 9.94 0.00 -0.02 0.06 6941
0.06 0.93 0.75 -0.69 9.99 0.01 -0.02 0.06 6948
0.06 0.90 0.77 -0.71 9.97 0.01 -0.01 0.06 6955
0.05 0.86 0.73 -0.68 10.01 0.01 -0.01 0.07 6961
0.05 0.82 0.80 -0.72 10.05 0.01 -0.01 0.07 6967
0.06 0.83 0.73 -0.70 9.88 0.01 -0.01 0.07 6973
0.05 0.76 0.77 -0.72 9.93 0.01 -0.00 0.06 6979
0.04 0.73 0.76 -0.69 9.93 0.01 0.00 0.06 6985
0.07 0.69 0.76 -0.71 9.95 0.01 0.00 0.07 6992
0.08 0.67 0.80 -0.68 9.91 0.01 0.00 0.07 6999
0.07 0.63 0.81 -0.69 9.99 0.01 0.00 0.06 7005
0.08 0.62 0.81 -0.71 10.01 0.01 0.00 0.06 7011
0.10 0.59 0.80 -0.70 9.98 0.01 -0.00 0.06 7017
0.11 0.58 0.85 -0.72 9.95 0.01 -0.01 0.06 7023
0.11 0.56 0.75 -0.75 9.97 0.00 -0.01 0.06 7029
0.10 0.59 0.71 -0.74 9.84 0.00 -0.01 0.06 7036
0.11 0.54 0.74 -0.73 9.98 -0.00 -0.01 0.06 7043
0.13 0.46 0.76 -0.70 9.99 -0.00 -0.01 0.05 7049
0.13 0.49 0.79 -0.70 10.01 -0.00 -0.01 0.06 7055
0.15 0.47 0.71 -0.71 9.98 0.01 -0.00 0.06 7061
0.12 0.45 0.79 -0.74 10.01 0.01 0.00 0.06 7067
0.11 0.42 0.84 -0.73 9.99 0.01 0.00 0.06 7073
0.14 0.41 0.83 -0.72 9.95 0.01 0.00 0.05 7080
0.17 0.36 0.88 -0.71 9.88 0.01 -0.00 0.05 7087
0.17 0.35 0.85 -0.70 9.99 0.01 -0.00 0.05 7093
0.20 0.31 0.80 -0.68 10.01 0.01 0.00 0.05 7099
0.21 0.27 0.76 -0.72 10.00 0.02 0.01 0.04 7105
0.21 0.21 0.74 -0.73 9.89 0.03 0.02 0.05 7111
0.20 0.16 0.80 -0.76 10.15 0.03 0.03 0.05 7118
0.22 0.15 0.84 -0.78 10.04 0.03 0.04 0.05 7124
0.22 0.10 0.68 -0.90 9.92 0.04 0.04 0.05 7131
0.21 0.09 0.81 -0.81 10.03 0.04 0.05 0.06 7137
0.24 0.06 0.83 -0.79 10.09 0.05 0.05 0.06 7143
0.24 0.03 0.89 -0.57 9.86 0.05 0.05 0.06 7149
0.26 0.01 0.83 -0.74 10.15 0.06 0.05 0.06 7156
0.30 0.01 0.93 -0.75 10.16 0.07 0.05 0.06 7162
0.32 -0.01 0.87 -0.64 10.29 0.08 0.06 0.06 7169
0.33 -0.03 1.02 -0.82 10.18 0.12 0.08 0.04 7175
0.33 -0.02 0.90 -0.82 10.40 0.17 0.13 0.03 7181
0.32 -0.03 0.90 -0.79 10.48 0.23 0.19 0.01 7188
0.31 -0.02 0.89 -0.77 10.66 0.33 0.27 -0.00 7194
0.33 -0.01 0.92 -0.94 10.97 0.48 0.36 -0.00 7200
0.37 -0.02 0.98 -1.09 12.08 0.68 0.46 -0.02 7206
0.32 -0.01 1.30 -1.00 13.09 1.08 0.54 -0.03 7213
0.33 -0.01 2.28 -1.13 13.73 1.56 0.51 -0.09 7220
0.33 -0.02 1.75 -1.11 15.58 2.04 0.36 -0.22 7226
0.33 -0.01 2.57 -0.93 16.81 2.46 0.20 -0.36 7232
0.32 -0.02 2.28 -1.13 17.23 2.89 -0.01 -0.47 7238
0.28 -0.03 2.57 -1.07 17.91 3.29 -0.15 -0.52 7244
0.21 -0.01 2.89 -1.11 17.86 3.70 -0.29 -0.58 7251
0.18 -0.01 3.99 -2.40 18.27 4.03 -0.43 -0.68 7258
0.14 -0.01 4.04 -1.85 19.49 4.22 -0.50 -0.78 7264
0.11 0.01 4.34 -2.84 18.59 4.28 -0.56 -0.82 7270
0.09 -0.00 3.94 -3.20 18.01 4.28 -0.56 -0.88 7276
0.08 -0.00 4.62 -3.57 18.94 4.28 -0.46 -0.92 7283
0.08 -0.00 4.75 -2.47 18.98 4.28 -0.16 -0.89 7289
0.05 -0.01 5.30 -1.60 23.71 4.28 -0.01 -0.91 7296
0.05 -0.00 3.13 -0.38 25.19 4.23 0.02 -0.97 7302
0.09 -0.01 2.05 2.60 26.40 4.08 -0.29 -1.00 7308
0.06 -0.01 1.32 6.68 24.73 3.85 -0.70 -1.00 7315
0.05 -0.00 1.11 9.09 19.85 3.42 -1.05 -0.91 7321
0.07 -0.01 3.41 15.81 15.94 2.89 -1.35 -0.83 7327
0.05 -0.01 4.68 20.12 11.28 2.28 -1.39 -0.68 7333
0.04 -0.00 4.68 22.45 9.66 1.51 -1.12 -0.62 7340
0.05 -0.01 5.92 17.74 6.03 0.82 -0.82 -0.60 7346
0.06 -0.01 6.37 18.66 8.60 0.25 -0.50 -0.63 7353
0.04 -0.00 4.87 16.59 7.86 -0.30 -0.15 -0.73 7359
0.05 -0.00 3.54 13.50 5.34 -0.64 -0.04 -0.85 7365
0.06 -0.01 2.30 11.71 4.40 -0.82 -0.11 -0.94 7371
0.05 -0.00 1.52 10.75 4.28 -0.90 -0.20 -0.97 7377
0.05 -0.00 1.58 9.89 4.35 -1.02 -0.27 -0.96 7384
0.06 -0.01 2.36 9.38 4.78 -1.14 -0.34 -0.91 7390
0.06 -0.01 3.12 8.72 5.45 -1.26 -0.36 -0.91 7397
0.05 -0.00 3.66 7.95 5.59 -1.39 -0.30 -0.88 7403
0.06 -0.01 3.91 7.24 5.83 -1.52 -0.19 -0.84 7409
0.07 -0.01 3.76 6.43 6.01 -1.63 -0.05 -0.79 7415
0.05 -0.01 3.47 5.59 6.41 -1.66 0.08 -0.72 7421
0.04 -0.00 3.10 4.78 6.87 -1.71 0.15 -0.63 7428
0.06 -0.01 2.70 4.32 7.50 -1.73 0.20 -0.55 7434
0.07 -0.01 2.31 3.83 8.28 -1.73 0.18 -0.45 7440
0.06 -0.01 2.07 3.62 9.73 -1.76 0.16 -0.36 7446
0.05 -0.00 2.26 3.27 11.18 -1.82 0.18 -0.26 7453
0.05 -0.00 2.61 3.02 12.03 -1.95 0.25 -0.16 7459
0.05 -0.01 2.83 2.74 12.55 -2.09 0.34 -0.06 7465
0.05 -0.00 2.86 2.03 12.77 -2.28 0.42 0.03 7472
0.05 -0.00 2.78 1.27 12.91 -2.45 0.50 0.12 7478
0.05 -0.01 2.63 0.44 12.77 -2.55 0.58 0.20 7484
0.05 -0.01 2.37 -0.28 12.70 -2.60 0.64 0.30 7491
0.05 -0.01 2.17 -1.05 12.64 -2.59 0.69 0.40 7497
0.07 -0.01 1.96 -1.59 12.83 -2.55 0.71 0.49 7503
0.05 -0.01 1.89 -2.00 13.20 -2.50 0.72 0.58 7510
0.05 -0.00 1.71 -2.24 13.63 -2.44 0.72 0.66 7516
0.06 -0.00 1.52 -2.47 13.90 -2.40 0.72 0.72 7522
0.05 -0.00 1.39 -2.73 14.16 -2.37 0.71 0.78 7529
0.05 -0.00 1.27 -3.06 14.43 -2.34 0.68 0.83 7535
0.05 -0.01 1.19 -3.37 14.69 -2.32 0.64 0.85 7541
0.06 -0.01 1.15 -3.61 14.80 -2.30 0.60 0.86 7547
0.05 -0.00 1.07 -3.87 14.80 -2.27 0.56 0.87 7554
0.06 0.01 1.10 -4.38 14.55 -2.25 0.50 0.87 7560
0.06 -0.00 1.19 -4.77 14.39 -2.21 0.45 0.84 7567
0.05 -0.00 1.33 -5.16 14.07 -2.14 0.38 0.82 7573
0.06 0.01 1.44 -5.37 13.71 -2.06 0.33 0.81 7579
0.06 -0.00 1.58 -5.62 13.58 -1.95 0.29 0.80 7585
0.05 -0.00 1.77 -5.90 13.18 -1.81 0.26 0.79 7591
0.06 -0.00 1.90 -6.10 12.87 -1.68 0.23 0.79 7599
0.06 -0.01 1.94 -6.23 13.02 -1.57 0.20 0.78 7605
0.05 -0.00 1.91 -6.30 12.82 -1.44 0.19 0.79 7611
0.06 -0.00 1.80 -6.34 12.89 -1.33 0.19 0.82 7617
0.06 -0.01 1.72 -6.48 12.83 -1.25 0.18 0.83 7623
0.06 -0.01 1.77 -6.66 12.69 -1.17 0.18 0.85 7629
0.06 0.00 1.88 -6.92 12.36 -1.11 0.21 0.87 7636
0.06 -0.01 2.01 -7.13 11.89 -1.05 0.27 0.89 7643
0.06 -0.01 2.20 -7.41 11.67 -0.99 0.39 0.91 7649
0.06 0.00 2.04 -7.67 11.95 -0.93 0.49 0.91 7655
0.06 -0.01 1.49 -7.72 12.09 -0.89 0.54 0.92 7661
0.05 -0.01 0.73 -7.64 12.62 -0.89 0.55 0.92 7667
0.05 -0.00 0.22 -7.52 12.61 -0.89 0.51 0.92 7674
0.06 -0.01 -0.06 -7.42 12.68 -0.94 0.41 0.92 7681
0.06 -0.01 -0.38 -7.27 12.35 -1.02 0.33 0.91 7687
0.06 -0.00 -0.52 -7.22 11.95 -1.12 0.22 0.89 7693
0.06 -0.00 -0.46 -7.33 11.21 -1.21 0.16 0.87 7699
0.06 -0.01 -0.16 -7.44 9.99 -1.27 0.12 0.82 7706
0.05 -0.00 0.11 -7.60 9.81 -1.30 0.14 0.77 7712
0.07 -0.00 0.29 -7.98 9.12 -1.29 0.20 0.70 7718
0.05 -0.01 0.34 -8.44 8.59 -1.23 0.31 0.62 7725
0.05 -0.00 0.17 -8.88 7.95 -1.15 0.42 0.53 7731
0.06 -0.00 -0.32 -8.79 7.92 -1.02 0.52 0.45 7737
0.07 -0.01 -0.83 -9.24 6.65 -0.84 0.65 0.39 7743
0.06 -0.01 -1.71 -9.44 6.44 -0.64 0.82 0.36 7749
0.05 -0.00 -2.35 -9.81 6.69 -0.44 0.92 0.32 7756
0.06 0.00 -2.51 -10.41 7.16 -0.26 0.86 0.23 7762
0.06 -0.00 -2.18 -11.26 7.76 -0.11 0.64 0.11 7769
0.05 0.00 -1.54 -11.81 8.32 -0.01 0.38 -0.04 7775
0.06 0.01 -0.97 -11.67 8.43 0.03 0.17 -0.19 7781
0.06 -0.01 -0.22 -11.52 8.20 0.02 0.06 -0.31 7788
0.05 -0.00 0.69 -11.70 7.86 -0.01 0.05 -0.43 7794
0.06 0.01 1.42 -12.07 7.57 -0.02 0.11 -0.53 7800
0.05 -0.00 1.86 -12.78 6.94 -0.01 0.21 -0.62 7806
0.05 -0.00 -0.28 -18.26 14.11 0.28 0.25 -0.65 7813
0.07 -0.00 1.62 -12.92 5.76 0.90 0.19 -0.61 7820
0.05 -0.01 -1.33 -13.60 3.21 1.06 -0.02 -0.60 7826
0.05 0.00 -1.84 -15.21 4.24 1.36 -0.30 -0.48 7832
0.05 -0.01 -1.73 -15.74 5.55 1.67 -0.77 -0.30 7838
0.05 -0.00 -2.75 -16.85 7.83 1.87 -1.15 -0.02 7844
0.04 0.02 -3.60 -17.65 4.24 2.07 -1.58 0.28 7852
0.05 0.10 -2.91 -16.14 5.13 2.40 -1.92 0.66 7858
0.03 0.33 0.80 -1.29 11.36 3.03 -1.90 0.89 7864
0.03 0.54 -5.06 -6.25 17.44 3.59 -1.92 0.94 7870
0.03 0.63 -5.52 -3.52 26.86 3.88 -1.80 0.80 7876
0.01 0.81 -8.96 -5.91 53.30 3.44 -2.03 0.37 7883
0.00 0.97 -3.90 0.31 8.87 -0.17 0.07 0.18 7889
0.00 1.04 -2.10 -3.16 12.93 -0.22 -0.05 -0.03 7896
0.00 1.12 0.91 -3.41 11.62 -0.16 -0.06 -0.10 7902
0.02 1.10 1.85 -2.41 10.62 -0.08 0.00 0.04 7908
0.02 1.02 0.65 -0.46 9.86 -0.03 0.07 0.15 7915
-0.00 0.93 0.74 -0.42 10.02 -0.02 0.05 0.13 7921
0.02 1.00 0.28 -0.37 9.92 -0.02 0.02 0.09 7927
0.03 0.98 0.83 -1.03 9.91 -0.04 -0.00 0.07 7933
0.02 1.01 1.06 -1.43 10.06 -0.04 0.02 0.10 7940
0.02 1.12 0.59 -1.06 10.15 -0.05 0.03 0.11 7946
0.03 1.11 0.56 -0.84 10.02 -0.05 0.02 0.09 7953
0.02 1.18 0.78 -0.83 9.96 -0.05 0.02 0.09 7959
0.03 1.17 0.72 -0.85 9.97 -0.05 0.02 0.09 7965
0.03 1.25 0.64 -0.82 9.93 -0.05 0.02 0.09 7971
0.01 1.31 0.74 -0.82 9.98 -0.05 0.02 0.08 7977
0.01 1.34 0.73 -0.78 9.93 -0.04 0.02 0.07 7984
0.02 1.31 0.70 -0.79 10.02 -0.04 0.02 0.07 7991
0.01 1.30 0.78 -0.74 10.07 -0.03 0.02 0.07 7997
0.00 1.29 0.83 -0.74 10.20 -0.02 0.02 0.07 8003
0.02 1.29 0.79 -0.75 9.97 -0.01 0.01 0.06 8009
0.01 1.27 0.80 -0.78 10.01 -0.00 0.00 0.06 8015
0.00 1.25 0.75 -0.78 9.99 -0.01 -0.00 0.06 8022
0.01 1.22 0.70 -0.76 9.97 0.00 -0.02 0.07 8028
0.02 1.18 0.78 -0.77 9.97 0.00 -0.02 0.06 8035
0.02 1.14 0.81 -0.79 10.03 0.00 -0.03 0.06 8041
0.01 1.12 0.75 -0.76 9.96 0.00 -0.03 0.06 8047
0.03 1.10 0.73 -0.73 9.96 0.01 -0.03 0.06 8053
0.03 1.04 0.73 -0.75 9.99 0.01 -0.03 0.06 8059
0.03 1.00 0.76 -0.72 9.95 0.00 -0.03 0.06 8066
0.05 0.95 0.78 -0.74 9.95 0.01 -0.03 0.06 8072
0.05 0.93 0.74 -0.75 9.99 0.01 -0.03 0.06 8079
0.04 0.86 0.78 -0.75 9.92 0.01 -0.04 0.06 8085
0.04 0.83 0.77 -0.73 9.92 0.01 -0.04 0.05 8091
0.06 0.82 0.77 -0.74 9.90 0.01 -0.05 0.05 8097
0.05 0.77 0.78 -0.78 9.94 0.01 -0.05 0.05 8103
0.04 0.73 0.75 -0.77 9.92 0.01 -0.06 0.05 8110
0.05 0.70 0.76 -0.76 9.93 0.00 -0.06 0.04 8116
0.06 0.68 0.73 -0.81 9.95 0.00 -0.05 0.05 8122
0.05 0.69 0.74 -0.77 9.96 0.00 -0.05 0.04 8129
0.06 0.65 0.70 -0.79 9.91 0.00 -0.04 0.04 8135
0.07 0.64 0.70 -0.78 9.95 0.00 -0.03 0.05 8141
0.08 0.63 0.74 -0.76 10.01 0.01 -0.02 0.05 8147
0.09 0.58 0.74 -0.76 10.03 0.01 -0.02 0.05 8154
0.09 0.57 0.74 -0.77 9.98 0.00 -0.01 0.05 8160
0.11 0.52 0.75 -0.78 9.93 0.00 -0.01 0.05 8166
0.11 0.52 0.76 -0.79 9.96 0.00 -0.01 0.05 8173
0.09 0.48 0.76 -0.79 10.06 -0.00 -0.01 0.05 8179
0.09 0.53 0.78 -0.76 9.95 -0.00 -0.01 0.04 8185
0.10 0.51 0.79 -0.76 9.89 0.00 -0.02 0.05 8192
0.11 0.44 0.78 -0.81 10.00 -0.00 -0.02 0.04 8198
0.13 0.44 0.76 -0.80 9.89 0.00 -0.02 0.05 8204
0.13 0.40 0.81 -0.78 10.02 0.00 -0.03 0.04 8211
0.12 0.37 0.79 -0.77 10.06 0.01 -0.03 0.04 8217
0.14 0.36 0.83 -0.79 10.00 0.00 -0.03 0.04 8223
0.18 0.33 0.80 -0.80 10.05 0.01 -0.03 0.04 8229
0.19 0.26 0.79 -0.82 10.06 0.01 -0.02 0.04 8236
0.23 0.25 0.80 -0.84 10.01 0.02 -0.02 0.03 8242
0.24 0.17 0.80 -0.82 10.07 0.02 -0.01 0.03 8249
0.25 0.14 0.80 -0.84 10.01 0.02 0.00 0.03 8255
0.25 0.11 0.76 -0.85 10.05 0.02 0.01 0.03 8261
0.26 0.09 0.79 -0.85 10.05 0.03 0.02 0.03 8267
0.29 0.07 0.79 -0.83 10.02 0.03 0.03 0.03 8273
0.32 0.05 0.79 -0.81 10.04 0.04 0.03 0.03 8281
0.33 0.03 0.97 -0.74 10.15 0.04 0.04 0.04 8287
0.33 0.01 0.85 -0.84 10.04 0.05 0.04 0.04 8293
0.34 -0.00 0.80 -0.81 10.08 0.06 0.05 0.04 8299
0.36 -0.02 0.83 -0.83 10.11 0.08 0.06 0.04 8305
0.38 -0.02 0.83 -0.78 10.05 0.09 0.07 0.04 8311
0.40 -0.02 0.80 -0.81 9.94 0.10 0.08 0.04 8318
0.46 -0.03 0.96 -0.86 10.23 0.15 0.11 0.03 8325
0.44 -0.04 0.96 -0.88 10.27 0.22 0.15 0.01 8331
0.46 -0.03 1.02 -0.99 10.13 0.32 0.23 -0.01 8337
0.46 -0.04 1.06 -0.99 10.96 0.46 0.33 -0.03 8343
0.47 -0.03 1.06 -1.07 11.45 0.67 0.46 -0.04 8350
0.47 -0.01 1.23 -1.07 12.60 0.98 0.58 -0.05 8356
0.47 -0.02 1.22 -1.09 14.04 1.41 0.66 -0.08 8363
0.45 -0.03 1.50 -1.13 14.76 1.88 0.60 -0.11 8369
0.43 -0.01 2.14 -1.26 15.10 2.28 0.36 -0.18 8375
0.38 -0.01 2.37 -1.38 16.52 2.65 0.15 -0.30 8382
0.37 -0.02 2.22 -1.36 16.53 3.01 0.03 -0.40 8388
0.33 -0.02 2.43 -1.62 16.53 3.37 -0.06 -0.47 8394
0.30 -0.02 2.40 -1.77 17.71 3.71 -0.07 -0.47 8400
0.26 -0.01 2.07 -6.41 17.66 4.01 -0.15 -0.61 8408
0.21 0.00 3.33 -1.94 19.30 4.26 -0.34 -0.62 8414
0.19 -0.01 4.62 -2.74 17.66 4.28 -0.37 -0.68 8420
0.15 0.00 3.43 -3.30 17.12 4.28 -0.35 -0.80 8426
0.14 0.00 0.86 -4.09 19.04 4.28 -0.11 -0.79 8432
0.10 0.00 2.59 -4.51 20.53 4.28 -0.16 -0.73 8439
0.11 -0.00 4.26 -4.88 23.64 4.28 -0.12 -0.69 8445
0.09 -0.01 5.16 -3.28 24.80 4.28 -0.19 -0.76 8452
0.07 -0.01 5.20 -0.64 25.64 4.22 -0.35 -0.88 8458
0.09 -0.01 4.63 1.30 25.12 4.02 -0.63 -0.94 8464
0.09 -0.01 4.40 2.67 22.87 3.59 -0.84 -0.96 8471
0.07 -0.01 4.12 6.65 18.95 3.30 -0.84 -0.93 8477
0.09 -0.01 3.40 12.28 13.77 2.92 -0.86 -0.87 8483
0.08 -0.01 4.25 17.87 11.56 2.26 -0.83 -0.85 8489
0.08 -0.01 3.94 17.89 10.13 1.36 -0.60 -0.87 8496
0.07 -0.01 5.26 13.42 7.98 0.66 -0.44 -0.91 8503
0.07 -0.01 5.02 14.16 11.35 0.12 -0.24 -0.97 8509
0.08 -0.01 3.37 11.81 8.90 -0.41 -0.05 -1.09 8515
0.07 -0.01 1.84 9.21 6.54 -0.64 -0.04 -1.23 8521
0.07 -0.01 1.46 7.89 5.00 -0.68 -0.13 -1.32 8527
0.06 -0.01 0.95 7.31 4.73 -0.72 -0.24 -1.35 8534
0.07 0.00 1.16 7.30 4.61 -0.77 -0.34 -1.36 8540
0.08 -0.01 1.73 7.05 4.74 -0.83 -0.42 -1.33 8547
0.07 -0.01 2.38 6.69 5.06 -0.89 -0.44 -1.28 8553
0.05 -0.01 3.24 6.45 4.73 -0.95 -0.40 -1.20 8559
0.06 0.00 3.73 6.41 4.53 -1.02 -0.27 -1.09 8565
0.06 -0.01 4.09 5.96 4.50 -1.07 -0.15 -0.93 8571
0.05 -0.01 4.42 5.49 4.68 -1.10 0.04 -0.76 8578
0.05 -0.01 4.57 4.85 5.10 -1.09 0.19 -0.54 8584
0.06 -0.01 4.18 4.47 5.74 -1.08 0.22 -0.32 8590
0.06 -0.01 3.88 4.09 6.24 -1.05 0.24 -0.09 8596
0.05 -0.01 3.52 3.51 7.03 -1.02 0.27 0.14 8603
0.04 -0.00 3.36 3.08 8.05 -1.04 0.29 0.34 8609
0.05 -0.00 3.30 3.10 9.13 -1.10 0.30 0.52 8615
0.05 -0.00 3.42 2.98 9.82 -1.22 0.32 0.61 8622
0.05 -0.00 3.55 2.85 10.62 -1.39 0.36 0.69 8628
0.05 -0.00 3.64 2.62 11.12 -1.60 0.43 0.74 8634
0.07 -0.01 3.67 2.06 11.26 -1.82 0.55 0.75 8640
0.06 -0.01 3.47 1.44 11.43 -2.02 0.68 0.75 8647
0.05 -0.00 3.05 0.70 11.63 -2.15 0.79 0.73 8653
0.06 -0.00 2.62 -0.03 11.80 -2.27 0.88 0.70 8659
0.06 -0.01 2.14 -0.81 11.99 -2.34 0.94 0.68 8666
0.05 -0.00 1.66 -1.31 12.30 -2.39 0.96 0.66 8672
0.06 -0.00 1.29 -1.84 12.62 -2.40 0.95 0.64 8678
0.06 -0.01 0.99 -2.30 12.73 -2.40 0.90 0.63 8685
0.05 -0.01 0.83 -2.71 12.97 -2.38 0.83 0.61 8691
0.06 -0.01 0.86 -3.01 13.07 -2.37 0.76 0.59 8697
0.06 -0.01 0.98 -3.33 13.16 -2.35 0.68 0.56 8704
0.06 -0.01 1.24 -3.67 13.29 -2.33 0.62 0.52 8710
0.06 -0.01 1.34 -4.09 13.54 -2.32 0.58 0.47 8716
0.07 -0.01 1.45 -4.41 13.57 -2.30 0.58 0.41 8723
0.06 -0.01 1.54 -4.63 13.44 -2.28 0.58 0.35 8729
0.06 -0.01 1.63 -4.85 13.32 -2.24 0.60 0.27 8735
0.08 -0.01 1.72 -5.05 13.46 -2.19 0.60 0.26 8741
0.07 -0.01 1.86 -5.24 13.64 -2.13 0.62 0.23 8748
0.06 -0.01 2.10 -5.47 13.75 -2.06 0.64 0.20 8754
0.07 -0.01 2.36 -5.80 13.75 -2.01 0.68 0.18 8761
0.08 -0.01 2.39 -6.11 14.06 -1.98 0.72 0.17 8767
0.06 -0.01 2.57 -6.49 13.97 -1.96 0.79 0.18 8773
0.07 0.01 2.59 -6.76 14.12 -1.94 0.83 0.20 8779
0.07 -0.01 2.43 -6.89 14.10 -1.93 0.84 0.23 8785
0.07 -0.01 2.09 -6.89 14.12 -1.94 0.84 0.30 8792
0.07 0.01 1.74 -6.92 13.63 -1.93 0.84 0.39 8799
0.07 -0.00 1.42 -6.95 13.23 -1.92 0.81 0.47 8805
0.05 -0.00 1.18 -7.07 12.52 -1.89 0.74 0.57 8811
0.06 0.01 0.97 -7.18 12.26 -1.85 0.66 0.68 8817
0.06 -0.01 0.92 -7.53 11.58 -1.76 0.59 0.77 8823
0.05 -0.00 0.80 -7.77 11.13 -1.65 0.51 0.85 8830
0.06 0.00 0.62 -7.88 10.99 -1.52 0.42 0.89 8837
0.07 -0.00 0.44 -7.93 11.08 -1.38 0.32 0.92 8843
0.06 -0.00 0.32 -7.97 11.07 -1.25 0.21 0.93 8849
0.07 -0.00 0.05 -7.87 11.31 -1.14 0.11 0.92 8855
0.06 -0.01 0.17 -7.96 11.33 -1.04 0.02 0.89 8862
0.05 -0.00 0.13 -7.98 11.35 -1.01 -0.07 0.85 8868
0.07 -0.01 0.30 -8.05 11.22 -0.97 -0.11 0.79 8875
0.06 -0.01 0.45 -8.23 11.01 -0.95 -0.13 0.72 8881
0.06 -0.01 0.73 -8.40 10.58 -0.95 -0.10 0.66 8887
0.07 -0.00 0.74 -8.48 10.48 -0.98 -0.13 0.56 8893
0.07 -0.01 0.99 -8.83 10.22 -0.95 0.04 0.47 8900
0.06 -0.01 1.24 -9.28 9.75 -0.93 0.27 0.39 8906
0.07 -0.00 1.00 -9.41 9.46 -0.94 0.54 0.30 8912
0.07 -0.01 0.17 -9.54 9.10 -0.95 0.83 0.24 8919
0.07 -0.01 -0.82 -9.99 9.14 -0.98 1.04 0.18 8925
0.05 -0.01 -1.53 -10.86 9.06 -1.00 1.10 0.11 8931
0.07 0.00 -2.16 -11.65 8.67 -0.99 1.03 0.03 8937
0.07 -0.01 -2.43 -12.47 7.93 -0.94 0.88 -0.04 8944
0.06 -0.01 -2.32 -13.32 7.28 -0.85 0.71 -0.11 8950
0.07 0.00 -2.15 -14.59 6.88 -0.70 0.55 -0.19 8956
0.07 -0.01 -3.27 -18.13 8.56 -0.41 0.27 -0.28 8963
0.05 -0.01 -3.10 -16.19 9.50 0.06 -0.13 -0.37 8969
0.07 -0.00 -2.32 -15.90 3.02 0.25 -0.14 -0.43 8975
0.07 -0.01 -3.85 -18.66 5.26 0.59 -0.54 -0.45 8982
0.05 -0.01 -3.86 -17.73 6.32 0.90 -1.00 -0.46 8988
0.06 -0.01 -4.35 -18.52 4.32 1.01 -1.38 -0.42 8994
0.06 -0.01 -5.35 -20.00 4.29 1.22 -1.92 -0.30 9000
0.05 -0.01 -4.50 -22.13 3.50 1.55 -2.28 -0.10 9007
0.05 0.06 -2.81 -19.19 1.86 1.93 -2.54 0.17 9014
0.05 0.22 2.20 -0.33 6.48 2.55 -2.46 0.44 9020
0.03 0.46 -3.51 -3.29 17.75 3.24 -2.38 0.54 9026
0.02 0.76 -6.56 -2.28 26.84 3.76 -2.35 0.43 9032
0.01 0.96 -1.38 -2.01 37.49 3.79 -2.14 0.15 9038
-0.01 1.08 -1.57 -2.70 31.59 1.15 -1.58 0.10 9046
-0.00 1.19 -0.59 -2.69 11.77 -0.08 -0.05 0.16 9052
0.00 1.27 -1.39 -5.57 11.84 -0.11 -0.09 -0.01 9058
0.00 1.31 1.37 -3.04 10.86 -0.08 0.00 0.08 9064
0.02 1.31 0.68 -0.55 10.43 -0.04 0.02 0.11 9070
0.02 1.29 0.64 -0.29 10.08 0.00 0.02 0.10 9077
0.03 1.27 0.68 -0.39 9.87 0.00 0.01 0.08 9083
0.03 1.23 0.97 -0.66 9.81 0.00 0.01 0.07 9090
0.03 1.20 1.05 -0.91 9.95 -0.01 0.02 0.10 9096
0.03 1.23 0.75 -0.86 9.97 -0.02 0.03 0.10 9102
0.02 1.26 0.67 -0.77 10.01 -0.03 0.03 0.09 9108
0.03 1.24 0.81 -0.72 9.99 -0.03 0.02 0.08 9115
0.01 1.28 0.87 -0.81 9.99 -0.03 0.02 0.08 9121
0.01 1.29 0.83 -0.79 9.99 -0.04 0.02 0.08 9127
0.01 1.27 0.81 -0.74 10.03 -0.04 0.02 0.07 9134
0.00 1.26 0.86 -0.76 10.05 -0.04 0.02 0.08 9140
-0.01 1.32 0.88 -0.74 10.02 -0.04 0.02 0.08 9146
-0.01 1.35 0.87 -0.71 10.00 -0.03 0.01 0.07 9153
-0.01 1.36 0.82 -0.70 10.10 -0.02 0.01 0.06 9159
-0.01 1.38 0.89 -0.73 9.96 -0.02 0.01 0.06 9165
0.00 1.35 0.88 -0.68 9.99 -0.01 0.00 0.06 9171
-0.01 1.34 0.91 -0.66 9.99 -0.01 -0.00 0.06 9178
-0.01 1.33 0.93 -0.68 9.98 -0.01 -0.01 0.06 9184
0.00 1.30 0.91 -0.68 10.00 -0.00 -0.01 0.06 9191
-0.01 1.28 0.89 -0.66 10.00 -0.00 -0.01 0.06 9197
-0.02 1.27 0.87 -0.65 9.95 0.00 -0.03 0.06 9203
-0.01 1.24 0.86 -0.68 9.97 0.00 -0.03 0.06 9209
-0.01 1.21 0.94 -0.68 9.94 0.01 -0.03 0.06 9216
-0.00 1.19 0.90 -0.68 9.91 0.00 -0.04 0.06 9222
0.00 1.15 0.89 -0.63 9.98 0.01 -0.03 0.06 9228
0.03 1.12 0.89 -0.68 9.95 0.00 -0.03 0.06 9235
0.02 1.09 0.88 -0.68 9.96 0.01 -0.03 0.05 9241
0.01 1.06 0.88 -0.69 10.02 0.01 -0.02 0.06 9247
0.02 1.04 0.90 -0.68 9.95 0.01 -0.02 0.05 9253
0.01 1.01 0.87 -0.71 9.90 0.00 -0.02 0.05 9260
0.01 1.00 0.83 -0.69 10.02 0.00 -0.02 0.05 9266
0.01 0.98 0.88 -0.69 9.98 0.00 -0.01 0.05 9272
0.02 0.93 0.90 -0.70 9.92 0.00 -0.01 0.05 9279
0.01 0.90 0.86 -0.70 9.94 -0.00 -0.01 0.04 9285
0.00 0.89 0.89 -0.69 9.98 -0.00 -0.01 0.05 9291
0.02 0.91 0.86 -0.70 9.96 -0.01 -0.01 0.05 9297
0.02 0.86 0.87 -0.71 9.95 -0.01 -0.01 0.05 9304
0.03 0.84 0.89 -0.69 9.98 -0.01 -0.01 0.05 9310
0.02 0.82 0.86 -0.69 9.97 -0.00 -0.01 0.06 9316
0.03 0.84 0.89 -0.69 9.97 -0.01 -0.00 0.06 9322
0.02 0.81 0.86 -0.68 9.91 -0.01 -0.01 0.05 9329
0.01 0.81 0.89 -0.67 9.96 -0.01 -0.00 0.05 9335
0.03 0.81 0.93 -0.63 9.90 -0.01 -0.00 0.05 9341
0.03 0.78 0.96 -0.69 9.94 -0.00 -0.01 0.05 9348
0.03 0.75 0.92 -0.69 9.92 -0.00 -0.02 0.05 9354
0.02 0.77 0.92 -0.69 9.87 -0.01 -0.03 0.04 9360
0.04 0.76 0.94 -0.70 9.93 -0.01 -0.04 0.04 9366
0.03 0.73 0.93 -0.67 9.93 -0.01 -0.05 0.03 9373
0.02 0.74 0.89 -0.70 9.93 -0.01 -0.06 0.04 9379
0.05 0.74 0.89 -0.70 9.93 -0.01 -0.06 0.03 9385
0.06 0.72 0.86 -0.69 9.94 -0.01 -0.06 0.03 9392
0.04 0.69 0.87 -0.72 9.96 -0.01 -0.05 0.03 9398
0.04 0.73 0.85 -0.70 9.95 -0.01 -0.05 0.04 9404
0.06 0.69 0.86 -0.70 9.95 -0.01 -0.05 0.04 9410
0.05 0.64 0.86 -0.68 9.96 -0.01 -0.05 0.04 9417
0.06 0.62 0.84 -0.65 9.98 -0.01 -0.04 0.04 9423
0.06 0.59 0.86 -0.65 9.91 -0.01 -0.05 0.00 9430
0.07 0.63 0.94 -0.64 9.90 -0.00 -0.04 0.03 9436
0.09 0.58 0.94 -0.68 9.92 0.00 -0.03 0.02 9442
0.10 0.52 0.95 -0.68 9.96 0.01 -0.03 0.03 9448
0.14 0.53 0.89 -0.67 9.90 0.01 -0.02 0.03 9454
0.13 0.46 0.89 -0.69 9.94 0.01 -0.00 0.03 9460
0.12 0.42 0.86 -0.64 9.98 0.02 0.01 0.03 9467
0.12 0.37 0.89 -0.66 10.03 0.03 0.02 0.03 9474
0.16 0.37 0.90 -0.69 10.00 0.03 0.03 0.04 9480
0.17 0.28 0.90 -0.72 10.05 0.04 0.03 0.05 9486
0.17 0.27 1.08 -0.70 10.08 0.05 0.04 0.05 9492
0.21 0.17 0.95 -0.78 10.13 0.06 0.04 0.05 9499
0.25 0.11 0.97 -0.74 10.08 0.07 0.05 0.05 9505
0.29 0.10 0.96 -0.67 10.15 0.07 0.05 0.05 9511
0.26 0.08 0.93 -0.73 10.13 0.08 0.06 0.05 9518
0.28 0.02 1.12 -0.50 10.25 0.10 0.07 0.05 9524
0.32 0.00 0.97 -1.04 10.24 0.12 0.09 0.03 9530
0.32 -0.02 1.41 -0.89 10.32 0.17 0.12 0.01 9537
0.34 -0.03 1.48 -0.72 11.26 0.28 0.20 -0.03 9543
0.37 -0.00 1.30 -0.88 11.55 0.47 0.32 -0.06 9549
0.40 -0.03 1.79 -0.83 13.42 0.89 0.53 -0.10 9555
0.37 -0.02 2.10 -0.61 15.14 1.58 0.77 -0.22 9563
0.40 -0.02 2.40 -0.96 16.70 2.35 0.80 -0.34 9569
0.36 -0.02 2.27 -1.13 17.12 2.86 0.50 -0.49 9575
0.30 -0.02 2.36 -1.12 17.69 3.26 0.18 -0.58 9581
0.32 -0.02 2.61 -1.19 18.06 3.60 0.05 -0.63 9587
0.23 -0.02 2.44 -1.10 18.08 3.95 -0.03 -0.67 9594
0.19 0.00 4.11 0.38 17.41 4.17 -0.14 -0.82 9601
0.18 0.00 4.28 -1.34 18.68 4.28 -0.27 -0.79 9607
0.12 -0.01 4.96 -2.51 18.34 4.28 -0.33 -0.88 9613
0.11 0.02 4.14 -3.16 17.67 4.28 -0.34 -0.98 9619
0.11 0.00 5.08 -3.51 16.36 4.28 -0.20 -1.02 9626
0.10 0.00 5.82 -3.35 20.58 4.28 0.13 -1.03 9632
0.11 0.00 6.53 -2.69 21.46 4.28 0.51 -1.02 9638
0.08 -0.01 7.26 -1.65 23.23 4.20 0.76 -1.07 9645
0.06 -0.01 7.73 1.41 27.09 3.96 0.73 -1.20 9651
0.06 -0.01 5.40 4.75 26.02 3.74 0.60 -1.36 9658
0.06 -0.01 3.37 7.48 20.90 3.33 0.31 -1.42 9664
0.05 -0.01 2.60 12.37 15.20 2.87 -0.01 -1.37 9670
0.06 -0.00 2.96 19.32 12.17 2.27 -0.35 -1.28 9676
0.08 -0.01 4.18 21.19 8.72 1.56 -0.51 -1.12 9682
0.05 -0.00 5.45 18.44 6.62 0.96 -0.58 -0.96 9690
0.07 -0.00 7.06 20.34 8.12 0.38 -0.54 -0.82 9696
0.06 -0.01 6.10 19.12 6.61 -0.19 -0.29 -0.74 9702
0.04 -0.00 5.57 16.65 4.77 -0.59 -0.09 -0.75 9708
0.06 -0.00 4.68 15.25 4.29 -0.88 -0.04 -0.77 9714
0.06 -0.00 3.63 14.20 4.20 -1.10 0.03 -0.77 9720
0.05 -0.01 3.04 12.87 4.51 -1.32 0.05 -0.74 9728
0.07 -0.00 2.50 11.63 5.29 -1.51 0.03 -0.68 9734
0.06 -0.01 2.47 10.79 5.57 -1.67 0.02 -0.59 9740
0.06 -0.01 2.54 9.72 5.95 -1.81 0.01 -0.52 9746
0.07 -0.00 2.65 8.66 6.40 -1.95 0.03 -0.43 9752
0.07 -0.01 2.75 7.45 7.13 -2.08 0.07 -0.34 9758
0.07 -0.01 2.82 6.16 7.99 -2.17 0.11 -0.27 9764
0.07 -0.01 2.82 5.02 8.70 -2.23 0.15 -0.20 9772
0.08 0.01 2.72 3.96 9.27 -2.29 0.18 -0.13 9778
0.08 -0.01 2.69 3.15 9.88 -2.33 0.23 -0.08 9784
0.07 -0.01 2.59 2.45 10.57 -2.36 0.28 -0.04 9790
0.06 -0.01 2.43 1.67 11.16 -2.39 0.30 0.00 9796
0.08 -0.01 2.28 1.02 11.80 -2.40 0.32 0.04 9802
0.07 -0.01 2.25 0.46 12.21 -2.41 0.33 0.08 9808
0.06 -0.01 2.18 -0.07 12.59 -2.41 0.30 0.11 9816
0.07 -0.00 2.29 -0.60 12.80 -2.42 0.28 0.14 9822
0.07 -0.01 2.45 -1.30 13.01 -2.40 0.27 0.17 9828
0.05 -0.01 2.60 -1.92 13.16 -2.38 0.26 0.20 9834
0.06 -0.00 2.71 -2.51 13.23 -2.34 0.27 0.22 9840
0.06 -0.01 2.79 -2.98 13.17 -2.28 0.29 0.24 9846
0.06 -0.01 2.74 -3.35 13.19 -2.21 0.28 0.24 9853
0.06 -0.00 2.64 -3.57 13.36 -2.13 0.25 0.26 9860
0.06 -0.01 2.58 -3.73 13.57 -2.05 0.22 0.27 9866
0.05 -0.01 2.58 -4.01 13.69 -1.98 0.18 0.30 9872
0.06 0.00 2.53 -4.11 13.76 -1.91 0.15 0.34 9878
0.07 -0.01 2.65 -4.18 13.92 -1.85 0.13 0.37 9885
0.06 -0.01 2.90 -4.22 14.41 -1.77 0.14 0.40 9891
0.06 0.01 3.35 -4.37 14.71 -1.78 0.19 0.43 9897
0.06 -0.01 3.73 -4.41 14.86 -1.80 0.29 0.45 9904
0.05 -0.01 3.78 -4.49 14.64 -1.84 0.37 0.48 9910
0.05 -0.00 3.81 -4.69 14.28 -1.88 0.50 0.51 9916
0.05 -0.01 3.74 -4.98 14.05 -1.92 0.62 0.57 9923
0.05 -0.00 3.56 -5.21 13.64 -1.93 0.72 0.57 9929
0.05 0.00 3.31 -5.47 13.22 -1.92 0.80 0.60 9935
0.05 -0.00 3.01 -5.63 12.76 -1.87 0.87 0.65 9942
0.05 -0.00 2.70 -5.86 12.60 -1.80 0.92 0.69 9948
0.05 -0.00 2.33 -6.01 12.37 -1.71 0.94 0.73 9954
0.06 -0.01 1.77 -6.01 12.38 -1.63 0.92 0.75 9961
0.04 -0.00 1.19 -6.05 12.22 -1.55 0.86 0.77 9967
0.04 0.00 0.82 -6.21 12.34 -1.46 0.77 0.77 9973
0.06 -0.01 0.69 -6.29 12.18 -1.38 0.69 0.76 9979
0.05 -0.01 0.63 -6.23 12.10 -1.30 0.59 0.73 9986
0.04 -0.00 0.57 -6.27 11.89 -1.23 0.51 0.70 9992
0.05 0.00 0.57 -6.34 11.63 -1.17 0.45 0.66 9999
0.04 -0.00 0.43 -6.33 11.48 -1.12 0.42 0.62 10005
0.04 -0.00 0.41 -6.35 11.30 -1.05 0.45 0.59 10011
0.05 -0.01 0.26 -6.25 11.39 -1.03 0.53 0.59 10017
0.04 -0.00 -0.16 -5.98 11.58 -1.04 0.68 0.61 10023
0.04 -0.00 -0.77 -5.72 11.62 -1.10 0.84 0.67 10031
0.06 -0.01 -1.37 -6.23 12.10 -1.18 0.89 0.73 10037
0.04 -0.00 -1.74 -7.01 12.22 -1.27 0.81 0.75 10043
0.04 -0.00 -1.80 -7.81 11.81 -1.35 0.63 0.75 10049
0.05 -0.01 -1.49 -8.56 10.93 -1.39 0.44 0.73 10055
0.05 -0.00 -1.13 -9.25 9.81 -1.37 0.33 0.69 10062
0.05 -0.00 -0.65 -9.95 8.73 -1.34 0.18 0.62 10068
0.05 -0.01 -0.24 -10.85 8.26 -1.22 0.19 0.51 10075
0.05 -0.00 0.10 -11.70 7.64 -1.04 0.26 0.41 10081
0.04 -0.00 0.35 -12.26 7.04 -0.86 0.34 0.33 10087
0.05 -0.01 0.23 -12.61 6.65 -0.67 0.43 0.21 10094
0.05 -0.00 0.00 -12.86 6.37 -0.48 0.50 0.10 10100
0.05 -0.00 -0.36 -13.05 6.53 -0.29 0.52 0.02 10106
0.06 -0.01 -0.75 -13.11 7.00 -0.13 0.48 -0.05 10113
0.05 -0.01 -1.08 -12.86 7.59 -0.01 0.38 -0.09 10119
0.05 -0.01 -1.16 -12.44 7.90 0.10 0.26 -0.10 10126
0.05 -0.00 -0.94 -12.14 8.06 0.11 0.16 -0.08 10132
0.05 -0.00 -0.75 -12.25 7.91 0.12 0.07 -0.06 10138
0.05 -0.00 -3.53 -17.71 10.91 0.26 -0.23 -0.02 10144
0.05 -0.00 -3.49 -14.07 10.70 0.79 -0.76 -0.02 10150
0.04 -0.00 -1.80 -13.06 3.71 0.97 -0.78 0.03 10158
0.06 -0.01 -2.71 -16.15 4.39 1.18 -1.09 0.09 10164
0.04 -0.00 -2.34 -17.63 6.60 1.52 -1.49 0.12 10170
0.04 -0.00 -4.23 -17.52 6.03 1.67 -1.80 0.19 10176
0.06 0.00 -4.74 -16.92 3.42 1.89 -2.11 0.30 10182
0.05 0.07 -1.79 -11.15 3.79 2.14 -2.20 0.44 10189
0.03 0.29 -0.52 1.11 8.65 2.56 -2.11 0.56 10195
0.01 0.68 -3.76 -3.57 21.63 3.23 -2.08 0.52 10202
-0.00 0.91 -5.33 -0.14 22.89 3.56 -2.00 0.28 10209
0.01 1.11 -3.03 -1.30 20.79 3.59 -1.73 -0.06 10215
-0.01 1.21 -0.72 -7.08 52.72 3.58 -2.26 -0.34 10221
-0.02 1.30 0.89 -2.41 13.11 0.36 -1.12 -0.02 10227
-0.02 1.34 0.48 -5.44 12.42 -0.03 -0.20 0.09 10234
0.01 1.34 0.61 -2.79 11.36 -0.08 -0.01 0.11 10241
0.01 1.42 0.81 -0.88 10.27 -0.04 0.02 0.13 10247
-0.01 1.38 0.71 -0.02 9.96 0.01 0.01 0.07 10253
0.02 1.35 0.74 -0.40 9.86 0.02 0.01 0.09 10260
0.01 1.28 1.03 -0.77 9.91 0.00 0.01 0.09 10266
-0.00 1.29 0.89 -1.01 9.99 -0.02 0.02 0.11 10272
0.01 1.32 0.66 -0.90 10.09 -0.02 0.02 0.10 10278
0.01 1.33 0.71 -0.77 10.08 -0.03 0.03 0.09 10285
0.01 1.33 0.84 -0.72 10.01 -0.03 0.03 0.09 10292
0.02 1.32 0.94 -0.76 9.97 -0.03 0.03 0.08 10298
0.00 1.34 0.88 -0.72 10.02 -0.03 0.02 0.09 10304
0.00 1.33 0.84 -0.71 10.04 -0.03 0.01 0.07 10310
0.01 1.35 0.90 -0.70 10.05 -0.03 0.01 0.07 10316
-0.01 1.34 0.89 -0.73 10.00 -0.03 0.01 0.07 10323
-0.01 1.38 0.83 -0.69 9.95 -0.03 0.01 0.07 10330
-0.00 1.36 0.88 -0.68 10.04 -0.02 0.01 0.06 10336
-0.02 1.38 0.83 -0.66 10.01 -0.02 0.01 0.06 10342
-0.01 1.37 0.88 -0.66 9.92 -0.02 0.01 0.06 10349
-0.02 1.32 0.88 -0.67 10.05 -0.01 0.01 0.06 10355
-0.01 1.33 0.89 -0.65 9.99 -0.01 0.00 0.06 10361
0.00 1.29 0.90 -0.71 9.97 -0.00 0.00 0.06 10368
-0.02 1.27 0.83 -0.66 9.98 -0.01 -0.00 0.06 10374
-0.00 1.27 0.84 -0.68 10.00 -0.01 0.00 0.06 10381
0.01 1.19 0.89 -0.66 9.97 -0.00 0.00 0.06 10387
0.01 1.17 0.89 -0.65 9.95 0.00 0.00 0.06 10393
-0.00 1.17 0.92 -0.65 9.92 0.00 -0.00 0.06 10399
0.01 1.12 0.93 -0.67 9.94 0.00 -0.01 0.06 10405
0.01 1.10 0.90 -0.64 9.99 0.00 -0.01 0.06 10412
0.00 1.07 0.88 -0.69 9.91 0.00 -0.01 0.06 10419
0.01 1.04 0.92 -0.67 9.96 0.00 -0.02 0.05 10425
0.01 1.02 0.91 -0.68 9.92 -0.00 -0.02 0.05 10431
0.01 1.01 0.91 -0.64 9.88 -0.00 -0.02 0.04 10437
0.02 0.99 0.92 -0.63 9.88 -0.00 -0.02 0.04 10443
0.01 0.97 0.92 -0.65 9.90 -0.00 -0.03 0.04 10450
0.00 0.97 0.93 -0.70 9.92 -0.00 -0.03 0.03 10457
0.01 0.95 0.90 -0.67 9.93 0.00 -0.03 0.04 10463
0.01 0.91 0.88 -0.67 9.94 -0.00 -0.03 0.04 10469
0.01 0.87 0.90 -0.66 9.98 0.00 -0.02 0.04 10475
0.03 0.89 0.86 -0.68 9.98 0.03 -0.02 0.04 10481
0.03 0.87 0.88 -0.68 10.02 -0.00 -0.02 0.05 10488
0.03 0.84 0.89 -0.68 9.96 -0.00 -0.02 0.05 10494
0.04 0.85 0.89 -0.70 9.96 -0.00 -0.02 0.04 10501
0.02 0.85 0.90 -0.66 9.99 0.00 -0.02 0.05 10507
0.03 0.88 0.88 -0.69 9.89 -0.00 -0.03 0.05 10513
0.05 0.85 0.91 -0.65 9.92 -0.01 -0.04 0.05 10519
0.03 0.83 0.91 -0.68 9.92 -0.01 -0.04 0.04 10526
0.02 0.82 0.90 -0.62 10.08 -0.01 -0.05 0.04 10532
0.05 0.78 0.92 -0.66 9.96 -0.00 -0.06 0.04 10539
0.03 0.80 0.92 -0.68 9.90 -0.00 -0.06 0.04 10545
0.02 0.79 0.88 -0.63 9.98 -0.00 -0.07 0.04 10551
0.04 0.77 0.87 -0.65 9.98 -0.00 -0.07 0.04 10558
0.04 0.73 0.86 -0.66 9.98 -0.00 -0.07 0.04 10564
0.04 0.71 0.90 -0.70 9.94 -0.00 -0.07 0.04 10570
0.05 0.69 0.83 -0.65 9.86 -0.00 -0.07 0.04 10576
0.05 0.67 0.79 -0.67 9.99 0.00 -0.05 0.04 10583
0.06 0.67 0.82 -0.66 10.01 0.01 -0.03 0.05 10590
0.08 0.68 0.74 -0.68 9.96 0.01 -0.01 0.05 10596
0.07 0.64 0.82 -0.68 9.93 0.01 0.01 0.05 10602
0.07 0.61 0.88 -0.66 9.97 0.01 0.02 0.05 10608
0.07 0.59 0.87 -0.62 9.92 0.02 0.02 0.05 10614
0.06 0.56 0.90 -0.64 9.91 0.01 0.02 0.05 10620
0.08 0.51 0.91 -0.66 9.99 0.02 0.03 0.05 10628
0.09 0.46 0.93 -0.65 10.06 0.02 0.03 0.05 10634
0.07 0.46 0.94 -0.66 9.93 0.02 0.02 0.05 10640
0.09 0.41 0.94 -0.68 9.94 0.03 0.02 0.05 10646
0.12 0.32 0.92 -0.63 9.92 0.03 0.01 0.05 10652
0.14 0.27 0.97 -0.69 10.03 0.04 0.01 0.05 10659
0.14 0.28 0.93 -0.66 9.95 0.04 0.01 0.05 10665
0.16 0.22 0.99 -0.69 10.04 0.05 0.00 0.05 10672
0.17 0.18 1.01 -0.76 10.15 0.05 0.01 0.05 10678
0.17 0.09 0.93 -0.68 10.08 0.06 0.01 0.05 10684
0.17 0.10 0.96 -0.74 10.14 0.06 0.02 0.06 10691
0.20 0.05 0.92 -0.73 10.11 0.07 0.02 0.06 10697
0.24 0.04 0.97 -0.93 10.02 0.08 0.03 0.05 10703
0.27 0.01 1.13 -0.56 10.07 0.10 0.04 0.05 10710
0.27 -0.02 0.92 -0.63 10.48 0.13 0.06 0.04 10717
0.29 -0.01 1.35 -0.92 10.26 0.19 0.11 0.03 10723
0.30 -0.03 1.28 -1.33 11.43 0.29 0.17 0.01 10729
0.28 -0.01 1.25 -0.93 11.58 0.50 0.28 -0.00 10735
0.29 -0.02 1.73 -0.79 12.59 0.87 0.43 -0.04 10742
0.28 -0.01 2.36 -0.90 13.92 1.47 0.63 -0.15 10748
0.31 -0.02 2.77 -0.81 15.78 2.14 0.64 -0.29 10755
0.29 -0.03 2.06 -0.99 17.11 2.66 0.39 -0.41 10761
0.29 -0.00 2.02 -1.22 17.06 3.05 0.09 -0.48 10768
0.26 -0.02 2.21 -1.21 17.55 3.36 -0.12 -0.51 10774
0.24 -0.01 2.93 -1.13 17.53 3.68 -0.24 -0.55 10780
0.20 -0.01 4.55 -1.49 17.00 4.01 -0.28 -0.66 10786
0.19 -0.00 3.61 -1.87 18.20 4.20 -0.39 -0.83 10793
0.11 0.01 4.33 -2.45 17.21 4.27 -0.42 -0.84 10800
0.10 0.00 3.25 -3.08 17.81 4.28 -0.39 -0.90 10806
0.11 0.00 3.87 -3.43 17.73 4.28 -0.22 -0.89 10812
0.10 0.00 4.14 -3.08 21.06 4.28 0.09 -0.91 10819
0.08 0.00 5.81 -2.48 22.64 4.28 0.24 -0.94 10825
0.08 0.01 6.48 -1.05 24.22 4.25 0.21 -1.01 10831
0.08 -0.00 5.90 1.27 24.70 4.10 0.16 -1.08 10838
0.07 -0.00 4.38 2.71 24.39 3.69 0.16 -1.14 10845
0.08 -0.01 3.29 7.61 21.89 3.24 0.02 -1.16 10851
0.06 -0.01 2.76 14.88 17.24 2.85 -0.21 -1.12 10857
0.05 -0.00 3.42 15.55 11.98 2.18 -0.44 -1.06 10863
0.05 -0.01 3.27 18.40 10.06 1.54 -0.53 -1.00 10870
0.06 -0.01 4.51 14.41 7.57 0.98 -0.54 -0.97 10876
0.08 -0.01 5.35 16.59 10.06 0.55 -0.45 -0.95 10883
0.06 -0.01 4.39 14.99 8.37 0.09 -0.26 -0.96 10889
0.07 0.00 3.77 13.28 5.78 -0.21 -0.18 -0.99 10896
0.06 -0.01 3.19 12.38 4.70 -0.40 -0.19 -1.01 10902
0.05 -0.00 2.76 11.60 4.31 -0.55 -0.20 -1.01 10908
0.07 -0.00 2.64 11.01 4.41 -0.71 -0.20 -0.97 10914
0.07 -0.01 2.73 10.39 4.67 -0.84 -0.21 -0.91 10921
0.06 -0.01 2.93 9.30 4.85 -0.97 -0.20 -0.83 10928
0.08 -0.01 2.97 9.45 5.10 -1.10 -0.17 -0.74 10934
0.07 -0.01 2.98 8.71 5.28 -1.23 -0.13 -0.63 10940
0.06 -0.01 2.94 8.03 5.73 -1.35 -0.09 -0.53 10946
0.07 -0.01 2.87 7.25 6.54 -1.46 -0.04 -0.42 10952
0.06 -0.01 2.86 6.39 7.36 -1.57 0.02 -0.33 10959
0.06 -0.01 2.81 5.71 8.24 -1.69 0.06 -0.25 10966
0.07 0.00 2.82 5.03 9.13 -1.77 0.11 -0.19 10972
0.06 -0.01 2.75 4.45 9.95 -1.90 0.15 -0.14 10978
0.06 -0.01 2.68 3.75 10.48 -2.04 0.20 -0.09 10984
0.06 -0.00 2.69 2.92 10.75 -2.17 0.24 -0.05 10990
0.06 -0.01 2.76 2.10 11.02 -2.29 0.29 -0.02 10997
0.05 -0.00 2.84 1.19 11.26 -2.36 0.32 0.01 11003
0.06 0.00 2.97 0.44 11.30 -2.39 0.35 0.04 11010
0.06 -0.00 2.98 -0.23 11.34 -2.40 0.38 0.07 11016
0.06 -0.01 3.03 -0.89 11.31 -2.38 0.41 0.10 11023
0.07 -0.01 3.05 -1.53 11.43 -2.33 0.44 0.15 11029
0.05 -0.00 2.98 -2.05 11.53 -2.27 0.47 0.20 11035
0.05 0.00 2.87 -2.52 11.79 -2.18 0.48 0.25 11041
0.06 -0.01 2.67 -2.83 12.29 -2.09 0.46 0.31 11047
0.05 -0.01 2.54 -3.09 12.82 -2.00 0.44 0.37 11055
0.05 0.01 2.47 -3.10 13.42 -1.92 0.42 0.44 11061
0.05 -0.00 2.48 -3.02 14.41 -1.88 0.43 0.51 11067
0.04 -0.00 2.55 -3.06 15.10 -1.88 0.47 0.57 11073
0.05 -0.00 2.58 -3.09 15.83 -1.96 0.55 0.63 11079
0.05 -0.00 2.55 -3.12 15.90 -2.04 0.65 0.67 11086
0.04 0.00 2.37 -3.40 15.86 -2.17 0.74 0.68 11092
0.05 -0.01 2.07 -4.01 15.48 -2.29 0.80 0.68 11099
0.05 -0.00 1.83 -4.78 14.77 -2.37 0.90 0.65 11105
0.05 0.01 1.65 -5.46 14.01 -2.39 0.89 0.59 11112
0.05 -0.00 1.47 -6.02 13.56 -2.34 0.88 0.52 11118
0.05 0.00 1.36 -6.62 13.18 -2.25 0.88 0.45 11124
0.06 0.00 1.35 -7.01 12.78 -2.11 0.87 0.35 11130
0.05 -0.01 1.23 -7.12 12.53 -1.95 0.84 0.27 11138
0.05 0.00 1.07 -7.20 12.33 -1.78 0.80 0.19 11144
0.05 -0.00 0.91 -7.20 12.15 -1.62 0.77 0.14 11150
0.04 -0.00 0.80 -7.24 11.83 -1.46 0.72 0.11 11156
0.05 0.01 0.69 -7.22 11.77 -1.29 0.66 0.11 11162
0.05 -0.01 0.59 -7.06 11.80 -1.13 0.61 0.13 11169
0.04 0.00 0.40 -6.84 12.80 -0.99 0.56 0.18 11175
0.06 -0.01 0.09 -6.55 12.48 -0.89 0.52 0.26 11182
0.04 -0.00 -0.06 -6.19 12.85 -0.84 0.50 0.35 11188
0.04 0.00 -0.06 -5.87 13.23 -0.84 0.49 0.47 11195
0.05 -0.00 -0.12 -5.77 13.32 -0.89 0.51 0.60 11201
0.05 -0.00 -0.21 -5.62 13.37 -0.96 0.52 0.74 11207
0.05 0.00 -0.12 -5.78 12.95 -1.07 0.58 0.89 11213
0.04 -0.00 -0.19 -6.39 12.34 -1.14 0.63 1.02 11219
0.04 -0.00 0.58 -7.28 11.88 -1.24 0.59 1.13 11227
0.05 -0.01 -0.48 -7.43 12.50 -1.28 0.58 1.22 11233
0.05 -0.01 -0.71 -8.45 10.78 -1.28 0.61 1.30 11239
0.04 -0.00 -0.77 -9.15 10.48 -1.26 0.61 1.35 11245
0.06 -0.01 -1.28 -9.98 9.30 -1.20 0.62 1.38 11251
0.05 -0.00 -1.66 -11.10 8.73 -1.09 0.61 1.38 11258
0.04 -0.00 -2.16 -11.74 8.07 -0.92 0.57 1.34 11265
0.06 -0.01 -2.81 -13.92 8.06 -0.70 0.48 1.31 11271
0.04 -0.00 -3.44 -12.91 6.11 -0.47 0.38 1.28 11277
0.05 -0.00 -3.83 -14.14 6.63 -0.30 0.25 1.21 11283
0.05 -0.01 -3.96 -15.06 7.77 -0.06 0.03 1.10 11290
0.05 -0.00 -4.32 -14.18 5.59 0.07 -0.09 0.99 11296
0.05 0.00 -4.02 -15.01 7.77 0.20 -0.20 0.87 11302
0.05 -0.00 -3.19 -16.48 8.49 0.34 -0.31 0.71 11309
0.03 -0.00 -2.90 -15.53 7.93 0.53 -0.31 0.50 11316
0.05 -0.00 -2.86 -15.58 6.35 0.62 -0.35 0.28 11322
0.04 -0.00 -3.25 -16.90 7.33 0.82 -0.52 -0.02 11328
0.04 -0.00 -3.18 -18.53 4.93 0.92 -0.68 -0.38 11334
0.05 -0.01 -3.01 -20.47 4.16 1.16 -0.85 -0.78 11340
0.04 -0.00 -5.28 -22.80 2.66 1.46 -1.20 -1.17 11347
0.04 0.05 -5.43 -24.43 0.17 1.75 -1.71 -1.55 11354
0.05 0.12 -2.03 -16.34 2.93 2.16 -2.43 -1.88 11360
0.02 0.39 4.54 -4.33 12.79 2.90 -2.73 -1.94 11366
0.02 0.58 8.07 -7.10 26.92 3.78 -2.86 -1.75 11373
0.00 0.77 9.49 -7.55 58.48 2.77 -4.14 -0.95 11379
0.00 0.90 3.90 0.11 4.95 0.08 -0.39 0.19 11385
0.01 1.03 -0.37 -3.48 13.73 -0.03 -0.07 0.14 11392
0.00 1.11 -1.76 -3.77 12.17 -0.03 -0.08 0.16 11399
0.03 1.18 -0.75 -1.11 11.33 -0.05 -0.08 -0.02 11405
0.03 1.13 0.72 -0.31 10.08 -0.03 -0.02 0.03 11411
0.03 1.13 1.19 -0.82 10.15 -0.00 0.02 0.09 11417
0.02 1.16 0.09 -0.59 10.04 -0.01 0.07 0.11 11424
0.02 1.10 0.60 -0.54 10.00 0.00 0.03 0.10 11430
0.03 1.11 0.73 -0.84 9.93 -0.01 0.03 0.09 11437
0.02 1.05 0.86 -0.93 9.96 -0.03 0.04 0.09 11443
0.01 1.07 0.68 -0.78 9.94 -0.04 0.04 0.10 11449
0.02 1.09 0.63 -0.67 9.89 -0.04 0.05 0.09 11456
0.03 1.13 0.70 -0.72 9.98 -0.04 0.06 0.09 11462
0.01 1.17 0.74 -0.71 9.96 -0.03 0.07 0.09 11468
0.04 1.18 0.86 -0.70 10.03 -0.03 0.08 0.10 11474
0.03 1.17 0.81 -0.69 10.02 -0.03 0.08 0.10 11481
0.02 1.22 0.84 -0.68 9.99 -0.03 0.08 0.10 11488
0.03 1.24 0.90 -0.66 10.00 -0.02 0.08 0.09 11494
0.01 1.24 0.90 -0.61 10.04 -0.02 0.07 0.08 11500
0.01 1.21 0.88 -0.69 10.05 -0.01 0.06 0.08 11506
0.01 1.15 0.86 -0.67 9.98 -0.01 0.05 0.08 11513
0.01 1.13 0.83 -0.68 10.03 -0.00 0.05 0.08 11520
0.02 1.10 0.89 -0.68 9.94 -0.00 0.03 0.07 11526
0.03 1.05 0.91 -0.67 9.86 -0.00 0.02 0.07 11532
0.03 1.00 0.87 -0.65 9.96 0.00 0.02 0.07 11538
0.03 1.00 0.87 -0.64 10.03 0.00 0.01 0.07 11545
0.03 0.95 0.86 -0.70 9.95 0.00 0.01 0.06 11551
0.03 0.95 0.91 -0.56 9.98 0.00 0.01 0.06 11557
0.04 0.93 0.84 -0.63 10.00 0.00 0.01 0.06 11564
0.05 0.93 0.83 -0.66 9.99 0.01 0.00 0.07 11570
0.03 0.91 0.83 -0.71 9.98 0.01 0.01 0.07 11576
0.04 0.87 0.83 -0.65 9.98 0.00 0.01 0.07 11583
0.04 0.86 0.87 -0.68 9.92 0.01 0.02 0.07 11589
0.05 0.80 0.91 -0.66 9.91 0.01 0.02 0.07 11595
0.04 0.83 0.88 -0.63 9.91 0.01 0.02 0.06 11601
0.04 0.77 0.90 -0.62 9.92 0.01 0.02 0.06 11608
0.04 0.75 0.89 -0.65 9.97 0.01 0.02 0.06 11614
0.04 0.70 0.93 -0.68 9.98 0.01 0.03 0.05 11621
0.05 0.68 0.84 -0.66 10.05 0.01 0.02 0.05 11627
0.04 0.63 0.92 -0.68 9.92 0.01 0.02 0.05 11633
0.04 0.62 0.92 -0.67 9.94 0.01 0.02 0.06 11639
0.05 0.60 0.92 -0.67 9.96 0.01 0.01 0.05 11645
0.05 0.56 0.91 -0.65 9.94 0.01 0.00 0.05 11653
0.03 0.62 0.96 -0.70 10.03 0.01 -0.00 0.06 11659
0.04 0.62 0.84 -0.64 10.04 0.01 -0.00 0.06 11665
0.04 0.58 0.92 -0.69 9.93 0.00 0.00 0.05 11671
0.04 0.60 0.96 -0.72 9.96 0.00 0.00 0.06 11677
0.05 0.56 0.94 -0.68 9.96 0.00 0.00 0.05 11683
0.06 0.51 0.83 -1.14 9.93 -0.00 0.00 0.05 11691
0.06 0.51 0.92 -0.72 10.02 0.00 0.00 0.05 11697
0.06 0.52 0.91 -0.68 9.98 -0.00 -0.00 0.05 11703
0.06 0.50 0.96 -0.68 9.96 -0.00 -0.00 0.05 11709
0.06 0.51 0.92 -0.68 9.95 -0.01 -0.01 0.05 11715
0.07 0.51 0.94 -0.68 9.95 -0.01 -0.00 0.06 11722
0.06 0.49 0.91 -0.67 9.94 -0.01 -0.01 0.05 11728
0.06 0.49 0.93 -0.71 9.97 -0.01 -0.01 0.05 11735
0.08 0.48 0.90 -0.70 9.94 -0.01 -0.00 0.05 11741
0.08 0.46 0.93 -0.69 9.97 -0.00 0.00 0.05 11747
0.07 0.45 0.92 -0.66 9.99 -0.00 -0.00 0.06 11753
0.09 0.47 0.90 -0.68 10.02 -0.00 0.00 0.05 11760
0.08 0.44 0.98 -0.70 9.98 -0.00 -0.00 0.05 11766
0.08 0.45 0.93 -0.69 9.98 -0.00 -0.00 0.05 11772
0.10 0.42 0.98 -0.68 9.92 -0.00 -0.00 0.05 11779
0.09 0.40 0.98 -0.66 9.92 0.00 -0.00 0.05 11785
0.09 0.39 0.98 -0.66 9.93 -0.00 0.00 0.04 11791
0.11 0.36 0.97 -0.73 9.94 -0.00 0.00 0.05 11798
0.10 0.37 1.02 -0.65 9.94 0.00 0.01 0.04 11804
0.10 0.33 1.03 -0.68 9.92 0.00 0.01 0.04 11810
0.12 0.32 1.01 -0.65 9.87 0.00 0.00 0.04 11816
0.12 0.31 1.05 -0.65 9.95 0.00 0.00 0.04 11823
0.11 0.27 1.00 -0.66 9.89 0.00 0.00 0.04 11829
0.13 0.24 1.02 -0.66 9.96 0.01 0.00 0.04 11836
0.14 0.23 1.07 -0.67 9.97 0.01 0.01 0.04 11842
0.14 0.18 1.04 -0.65 10.02 0.02 0.01 0.05 11848
0.14 0.15 1.08 -0.72 10.07 0.03 0.01 0.04 11854
0.14 0.08 1.06 -0.73 10.09 0.03 0.01 0.04 11862
0.15 0.08 1.05 -0.67 10.08 0.04 0.01 0.04 11868
0.17 0.06 1.09 -0.77 10.05 0.04 0.02 0.04 11874
0.17 0.03 1.11 -0.81 10.18 0.05 0.03 0.04 11880
0.16 0.01 1.10 -0.75 10.19 0.07 0.04 0.02 11886
0.19 -0.01 1.14 -1.38 10.07 0.09 0.06 0.02 11893
0.21 -0.02 1.06 -0.63 10.32 0.12 0.09 -0.00 11899
0.20 -0.01 1.08 -0.69 10.34 0.20 0.13 -0.01 11906
0.22 -0.01 1.21 -0.79 10.63 0.24 0.18 -0.02 11912
0.22 -0.02 1.22 -0.88 11.35 0.40 0.27 -0.02 11919
0.22 -0.01 1.22 -1.06 11.89 0.73 0.41 -0.04 11925
0.20 -0.02 2.00 -1.03 13.11 1.24 0.58 -0.10 11931
0.20 -0.01 1.96 -0.78 15.45 1.90 0.73 -0.21 11937
0.19 -0.01 2.01 -0.81 16.60 2.48 0.64 -0.32 11944
0.16 -0.00 1.99 -1.26 17.72 2.87 0.46 -0.39 11951
0.20 0.00 1.65 -1.24 17.44 3.19 0.24 -0.42 11957
0.15 -0.02 2.13 -1.06 17.62 3.48 0.21 -0.43 11963
0.15 -0.00 3.31 -0.22 16.34 3.74 0.23 -0.60 11970
0.12 -0.00 3.25 -0.99 18.93 4.10 0.13 -0.60 11976
0.08 -0.00 3.59 -2.16 18.03 4.24 0.17 -0.59 11982
0.08 0.00 4.14 -2.50 18.49 4.28 0.19 -0.64 11988
0.07 -0.01 4.28 -3.11 18.73 4.28 0.22 -0.67 11996
0.06 -0.00 5.90 -3.10 19.49 4.28 0.35 -0.68 12002
0.07 -0.00 6.12 -3.48 21.24 4.28 0.56 -0.76 12008
0.06 -0.01 5.06 -1.59 22.77 4.21 0.81 -0.83 12014
0.06 -0.00 3.74 0.63 22.09 4.02 0.95 -0.81 12020
0.07 -0.01 0.92 4.68 23.95 3.66 1.00 -0.81 12027
0.07 -0.01 -1.33 8.28 19.96 3.25 0.78 -0.74 12034
0.07 -0.01 -3.58 10.48 15.97 2.73 0.26 -0.65 12040
0.06 -0.01 -4.10 16.61 12.79 2.24 -0.28 -0.59 12046
0.07 -0.01 -4.70 19.55 12.78 1.59 -0.65 -0.76 12053
0.06 -0.01 -1.44 15.39 9.28 0.95 -0.75 -1.02 12059
0.04 -0.00 0.58 16.35 10.88 0.45 -0.78 -1.15 12065
0.07 -0.01 -0.53 15.41 9.28 -0.00 -0.64 -1.34 12071
0.06 -0.01 -0.58 13.88 7.01 -0.32 -0.65 -1.57 12079
0.06 -0.01 -0.48 13.20 6.50 -0.54 -0.77 -1.72 12085
0.05 -0.01 -0.26 12.49 6.54 -0.76 -0.90 -1.80 12091
0.05 -0.01 0.51 11.97 6.40 -0.97 -1.01 -1.83 12097
0.05 -0.01 1.60 11.41 6.15 -1.17 -1.07 -1.83 12103
0.05 -0.01 2.55 10.62 6.06 -1.34 -1.07 -1.81 12110
0.06 -0.01 3.26 9.82 5.74 -1.53 -0.99 -1.78 12116
0.07 0.00 3.65 8.76 5.85 -1.69 -0.89 -1.74 12123
0.07 -0.01 3.95 7.68 6.32 -1.80 -0.80 -1.68 12129
0.07 -0.01 4.29 6.93 7.19 -1.88 -0.69 -1.60 12135
0.06 -0.00 4.64 6.10 7.82 -1.94 -0.60 -1.52 12142
0.06 -0.01 5.04 5.44 8.70 -2.01 -0.51 -1.42 12148
0.06 -0.01 5.43 4.77 9.47 -2.09 -0.40 -1.29 12154
0.05 -0.00 5.85 4.05 10.15 -2.19 -0.26 -1.14 12161
0.05 -0.00 6.01 3.14 10.70 -2.29 -0.11 -0.97 12167
0.04 -0.00 6.09 2.14 10.91 -2.37 0.05 -0.78 12173
0.06 -0.00 5.98 0.99 11.19 -2.41 0.20 -0.57 12180
0.06 -0.01 5.76 -0.01 11.31 -2.41 0.32 -0.35 12186
0.05 -0.00 5.53 -0.91 11.37 -2.34 0.43 -0.13 12192
0.07 -0.01 5.36 -1.54 11.61 -2.30 0.52 0.09 12198
0.05 -0.01 5.12 -1.97 11.88 -2.20 0.59 0.31 12206
0.06 -0.01 4.89 -2.19 12.26 -2.11 0.66 0.51 12212
0.06 -0.01 4.68 -2.27 12.52 -2.03 0.77 0.69 12218
0.06 -0.01 4.49 -2.38 12.88 -1.95 0.80 0.85 12224
0.06 -0.00 4.17 -2.73 13.02 -1.88 0.85 0.97 12230
0.06 -0.00 3.86 -2.87 13.17 -1.82 0.87 1.07 12237
0.05 -0.00 3.61 -3.64 13.33 -1.76 0.87 1.14 12243
0.06 -0.00 3.35 -3.12 13.35 -1.70 0.85 1.19 12250
0.06 -0.01 3.13 -3.14 13.22 -1.66 0.84 1.21 12256
0.06 -0.01 2.91 -3.01 13.35 -1.62 0.83 1.22 12263
0.06 -0.00 2.82 -2.86 13.50 -1.60 0.83 1.23 12269
0.05 -0.01 2.77 -2.71 13.62 -1.59 0.87 1.22 12275
0.06 0.01 2.71 -2.67 13.75 -1.60 0.91 1.21 12281
0.05 -0.01 2.52 -2.73 13.68 -1.62 0.94 1.19 12289
0.04 0.00 2.34 -2.82 13.89 -1.65 0.97 1.17 12295
0.05 -0.01 2.11 -3.08 13.93 -1.69 0.95 1.13 12301
0.04 -0.00 1.87 -3.34 13.86 -1.72 0.90 1.08 12307
0.04 -0.00 1.67 -3.57 13.83 -1.75 0.83 1.02 12313
0.04 -0.00 1.43 -3.70 13.82 -1.77 0.72 0.95 12320
0.03 -0.00 1.35 -3.80 13.55 -1.79 0.60 0.88 12326
0.04 0.01 1.36 -4.08 13.16 -1.80 0.47 0.79 12333
0.04 -0.00 1.34 -4.37 12.80 -1.78 0.38 0.69 12339
0.03 -0.00 1.29 -4.70 12.44 -1.71 0.26 0.58 12346
0.04 0.01 1.30 -5.08 12.18 -1.64 0.15 0.45 12352
0.04 -0.00 1.46 -5.39 11.74 -1.59 0.05 0.32 12358
0.03 -0.00 1.63 -5.81 11.81 -1.47 0.01 0.19 12364
0.06 -0.00 1.99 -6.13 11.95 -1.35 0.01 0.08 12370
0.05 -0.00 2.24 -6.24 11.96 -1.25 0.08 -0.03 12378
0.04 0.00 2.64 -6.10 11.89 -1.16 0.22 -0.11 12384
0.03 -0.00 2.68 -5.93 11.80 -1.11 0.46 -0.14 12390
0.04 -0.00 2.45 -5.98 11.17 -1.08 0.83 -0.12 12396
0.04 0.01 1.94 -6.26 11.09 -1.04 1.16 -0.01 12403
0.04 -0.00 1.18 -6.71 11.01 -1.00 1.36 0.04 12409
0.03 -0.00 0.62 -7.32 11.60 -0.94 1.43 0.14 12416
0.05 -0.01 0.07 -8.07 10.90 -0.85 1.39 0.26 12422
0.04 -0.00 -0.15 -8.72 10.85 -0.76 1.28 0.37 12428
0.04 -0.00 -0.32 -9.42 10.89 -0.68 1.13 0.48 12435
0.06 -0.01 -0.36 -9.87 11.18 -0.63 0.94 0.56 12441
0.04 -0.00 -0.58 -10.34 11.41 -0.63 0.73 0.64 12447
0.04 0.00 -0.91 -10.73 11.20 -0.68 0.55 0.70 12453
0.04 -0.00 -1.11 -11.17 10.66 -0.77 0.35 0.75 12461
0.03 -0.00 -0.98 -11.82 9.93 -0.85 0.22 0.77 12467
0.06 -0.00 -0.86 -12.51 8.90 -0.92 0.08 0.76 12473
0.04 -0.00 -0.67 -13.23 7.96 -0.94 -0.02 0.72 12479
0.04 0.00 -0.49 -13.79 6.92 -0.92 -0.09 0.65 12485
0.05 -0.01 -0.13 -14.44 6.31 -0.83 -0.09 0.57 12492
0.04 -0.00 -0.13 -14.87 5.79 -0.70 -0.06 0.47 12498
0.04 0.01 0.03 -15.21 5.49 -0.54 -0.00 0.38 12505
0.04 0.00 0.20 -15.30 5.23 -0.35 0.04 0.28 12511
0.04 -0.00 0.38 -15.28 5.40 -0.16 0.09 0.18 12517
0.04 0.01 0.68 -15.00 5.75 0.02 0.15 0.08 12524
0.04 -0.00 -0.12 -19.36 6.49 0.21 0.15 0.01 12530
0.04 -0.00 -4.29 -18.56 13.74 0.96 -0.42 -0.05 12536
0.05 -0.01 -1.77 -12.77 4.46 1.18 -0.57 -0.04 12542
0.04 -0.00 -2.71 -15.13 4.62 1.38 -1.03 -0.02 12550
0.04 -0.00 -2.75 -17.16 7.24 1.62 -1.43 0.08 12556
0.05 -0.01 -2.38 -17.15 7.19 1.80 -1.88 0.22 12562
0.05 -0.00 -2.62 -15.47 6.43 1.98 -2.21 0.43 12568
0.04 0.07 0.86 -5.78 5.76 2.14 -2.29 0.69 12574
0.04 0.21 2.26 0.60 8.73 2.45 -2.06 0.90 12581
0.02 0.48 -1.82 -2.59 18.52 2.92 -1.86 1.08 12588
0.01 0.70 -4.40 -0.53 20.74 3.11 -1.73 1.06 12594
0.00 0.84 -6.01 -0.44 16.04 3.21 -1.45 0.80 12600
-0.00 0.98 -6.27 -3.37 26.15 3.62 -1.26 0.32 12607
-0.00 0.97 -3.13 -4.41 30.45 1.17 -1.34 -0.04 12613
-0.01 0.98 0.55 -3.92 11.13 -0.10 -0.23 -0.04 12619
0.03 1.10 0.22 -3.46 11.36 -0.17 -0.06 -0.02 12625
-0.00 1.11 1.32 -2.38 10.33 -0.09 -0.02 0.05 12633
-0.00 1.15 1.10 -0.38 9.84 -0.03 0.01 0.11 12639
0.00 1.16 0.66 -0.09 9.82 0.00 -0.01 0.10 12645
0.00 1.18 0.41 -0.55 9.99 -0.01 -0.03 0.06 12651
0.01 1.22 0.76 -0.90 9.89 -0.03 -0.03 0.06 12657
0.02 1.19 0.81 -1.04 10.21 -0.04 -0.01 0.08 12664
0.01 1.20 0.66 -0.91 10.11 -0.04 0.01 0.09 12670
0.02 1.27 0.60 -0.76 10.21 -0.05 0.01 0.08 12677
0.02 1.28 0.68 -0.85 10.04 -0.04 0.01 0.08 12683
0.01 1.28 0.85 -0.82 10.05 -0.04 0.01 0.08 12690
0.01 1.24 0.80 -0.79 10.00 -0.04 0.01 0.08 12696
0.01 1.28 0.76 -0.80 10.00 -0.04 0.00 0.07 12702
0.00 1.29 0.78 -0.75 10.07 -0.04 0.00 0.07 12708
-0.00 1.37 0.56 -1.22 10.12 -0.04 -0.01 0.07 12716
-0.02 1.37 0.81 -0.68 10.05 -0.03 -0.01 0.07 12722
0.00 1.35 0.81 -0.66 9.98 -0.02 -0.01 0.04 12728
-0.02 1.32 0.80 -0.69 9.98 -0.01 -0.02 0.07 12734
-0.03 1.34 0.78 -0.69 9.95 -0.01 -0.02 0.06 12740
0.01 1.30 0.79 -0.67 10.01 -0.00 -0.03 0.06 12747
-0.00 1.27 0.78 -0.70 9.97 0.00 -0.04 0.06 12753
-0.01 1.26 0.76 -0.71 10.03 0.00 -0.04 0.06 12760
0.00 1.22 0.74 -0.71 9.98 0.00 -0.05 0.06 12766
0.01 1.18 0.73 -0.72 10.01 0.01 -0.05 0.06 12772
0.02 1.17 0.71 -0.68 9.98 0.01 -0.04 0.06 12779
0.02 1.13 0.76 -0.65 10.00 0.01 -0.05 0.06 12785
0.01 1.09 0.77 -0.68 9.95 0.01 -0.05 0.06 12791
0.03 1.06 0.73 -0.69 9.97 0.01 -0.05 0.06 12797
0.03 1.02 0.74 -0.70 9.97 0.01 -0.05 0.06 12804
0.02 0.98 0.73 -0.70 9.97 0.01 -0.05 0.06 12811
0.01 0.98 0.76 -0.75 9.98 0.01 -0.04 0.06 12817
0.02 0.93 0.74 -0.72 9.97 0.01 -0.04 0.06 12823
0.01 0.88 0.73 -0.71 9.98 0.01 -0.04 0.05 12829
0.01 0.89 0.76 -0.75 9.99 0.01 -0.04 0.05 12835
0.02 0.89 0.75 -0.72 9.92 0.01 -0.03 0.05 12843
0.01 0.84 0.73 -0.72 9.91 0.00 -0.04 0.05 12849
0.01 0.85 0.73 -0.69 9.93 0.00 -0.03 0.05 12855
0.02 0.84 0.72 -0.73 9.92 0.00 -0.03 0.04 12861
0.01 0.82 0.69 -0.72 9.94 0.00 -0.03 0.05 12867
0.02 0.80 0.74 -0.70 9.94 0.00 -0.03 0.05 12873
0.02 0.81 0.72 -0.71 9.92 0.00 -0.03 0.05 12880
0.02 0.79 0.70 -0.66 9.97 0.00 -0.02 0.05 12887
0.02 0.74 0.75 -0.68 9.88 0.01 -0.02 0.05 12893
0.03 0.76 0.73 -0.71 9.89 0.01 -0.02 0.05 12899
0.01 0.72 0.72 -0.73 9.90 0.00 -0.03 0.05 12905
0.04 0.69 0.74 -0.70 10.08 0.00 -0.04 0.05 12912
0.04 0.71 0.74 -0.73 9.97 0.00 -0.04 0.05 12918
0.06 0.67 0.73 -0.74 9.99 -0.00 -0.04 0.04 12924
0.04 0.67 0.66 -0.72 9.83 -0.00 -0.04 0.04 12931
0.05 0.68 0.72 -0.76 9.89 -0.00 -0.04 0.04 12937
0.07 0.65 0.76 -0.73 9.90 -0.00 -0.03 0.04 12943
0.07 0.62 0.74 -0.70 9.95 -0.00 -0.02 0.04 12950
0.09 0.57 0.74 -0.70 9.99 -0.00 -0.02 0.04 12956
0.11 0.54 0.72 -0.67 9.94 0.00 -0.01 0.03 12962
0.11 0.52 0.81 -0.71 9.87 0.01 -0.00 0.03 12968
0.13 0.47 0.76 -0.69 10.04 0.02 0.00 0.03 12975
0.16 0.45 0.80 -0.70 10.01 0.03 0.01 0.03 12982
0.15 0.40 0.78 -0.70 10.09 0.04 0.01 0.03 12988
0.17 0.33 0.79 -0.78 9.98 0.04 0.02 0.03 12994
0.18 0.29 0.73 -0.73 10.27 0.05 0.04 0.03 13000
0.20 0.26 0.93 -0.82 10.08 0.06 0.04 0.03 13006
0.21 0.24 0.87 -0.78 10.07 0.06 0.05 0.03 13014
0.22 0.16 0.81 -0.79 10.07 0.06 0.05 0.03 13020
0.26 0.10 0.84 -0.83 10.10 0.06 0.05 0.03 13026
0.27 0.04 0.80 -0.75 10.09 0.07 0.05 0.04 13032
0.28 0.03 0.77 -0.74 10.14 0.08 0.06 0.04 13039
0.30 -0.00 0.82 -0.78 10.12 0.09 0.06 0.04 13045
0.32 -0.01 0.89 -0.77 10.16 0.11 0.07 0.03 13051
0.35 0.00 0.90 -0.62 10.29 0.13 0.09 0.03 13058
0.40 -0.03 1.03 -0.89 10.33 0.18 0.11 0.03 13065
0.41 -0.02 1.00 -0.86 10.43 0.25 0.16 0.00 13071
0.43 -0.03 0.99 -0.79 10.89 0.36 0.25 -0.03 13077
0.45 -0.04 1.11 -0.85 11.41 0.53 0.34 -0.04 13083
0.48 -0.01 1.22 -1.02 12.52 0.81 0.53 -0.07 13090
0.48 -0.03 1.78 -1.12 13.61 1.28 0.69 -0.09 13096
0.47 -0.03 1.71 -1.08 14.97 1.86 0.70 -0.15 13103
0.45 -0.03 2.13 -1.35 15.57 2.36 0.41 -0.25 13109
0.43 -0.02 2.30 -1.17 16.56 2.73 0.16 -0.36 13116
0.42 -0.02 2.03 -1.35 16.55 3.06 -0.02 -0.44 13122
0.34 -0.02 1.23 -1.51 17.36 3.40 -0.09 -0.47 13128
0.34 -0.01 2.77 -2.32 16.65 3.72 -0.11 -0.50 13134
0.27 -0.00 4.15 -2.26 16.75 3.95 -0.30 -0.64 13142
0.18 0.01 3.28 -2.30 18.28 4.23 -0.43 -0.61 13148
0.17 0.00 4.12 -2.99 17.45 4.27 -0.48 -0.70 13154
0.15 -0.01 3.24 -3.05 16.35 4.28 -0.51 -0.78 13160
0.13 0.02 3.04 -3.39 19.99 4.28 -0.49 -0.79 13167
0.09 0.01 2.69 -4.14 19.65 4.28 -0.31 -0.74 13173
0.10 0.00 3.79 -4.17 22.48 4.28 -0.18 -0.72 13179
0.11 -0.00 3.76 -2.06 23.27 4.24 -0.38 -0.79 13187
0.09 -0.01 4.41 0.47 25.95 4.18 -0.68 -0.89 13193
0.11 0.00 4.27 0.00 24.90 4.01 -1.12 -0.96 13199
0.08 -0.01 4.55 1.21 22.96 3.63 -1.48 -0.96 13205
0.08 -0.01 4.41 3.16 16.99 3.35 -1.31 -0.92 13211
0.08 -0.01 4.11 9.09 13.10 3.05 -1.09 -0.84 13218
0.07 -0.01 6.38 16.04 11.07 2.48 -0.88 -0.83 13224
0.06 -0.01 5.08 20.30 10.52 1.57 -0.55 -0.83 13231
0.07 -0.01 6.26 12.32 8.02 0.78 -0.24 -0.85 13237
0.06 -0.01 5.95 13.61 11.19 0.25 -0.20 -0.85 13244
0.07 -0.01 3.59 12.28 9.91 -0.14 -0.11 -0.92 13250
0.06 -0.01 2.55 9.87 7.39 -0.34 -0.19 -1.03 13256
0.05 -0.00 2.01 9.00 5.62 -0.41 -0.39 -1.07 13262
0.06 0.00 2.23 9.02 5.18 -0.53 -0.55 -1.08 13268
0.06 -0.01 2.89 8.95 5.28 -0.69 -0.64 -1.08 13275
0.04 -0.00 3.64 8.42 5.32 -0.83 -0.66 -1.07 13282
0.07 0.00 4.11 7.84 5.64 -0.99 -0.61 -1.04 13288
0.07 -0.01 4.90 7.47 5.61 -1.14 -0.54 -0.99 13294
0.05 -0.00 4.42 7.15 5.22 -1.29 -0.42 -0.91 13300
0.06 -0.00 4.36 6.52 5.22 -1.41 -0.29 -0.86 13306
0.07 -0.01 4.25 6.11 5.19 -1.51 -0.17 -0.77 13314
0.06 -0.01 4.15 5.44 5.44 -1.58 -0.08 -0.66 13320
0.06 -0.00 4.09 4.81 5.88 -1.63 -0.01 -0.55 13326
0.06 -0.01 4.12 4.32 6.54 -1.66 0.06 -0.45 13332
0.05 -0.01 4.17 3.96 7.24 -1.70 0.12 -0.34 13338
0.05 -0.01 4.36 3.80 8.11 -1.75 0.19 -0.23 13344
0.06 -0.01 4.48 3.57 8.71 -1.84 0.27 -0.12 13351
0.05 -0.01 4.50 3.19 9.25 -1.95 0.40 -0.00 13358
0.04 -0.00 4.47 2.66 9.82 -2.08 0.50 0.12 13364
0.05 -0.01 4.44 1.89 10.30 -2.19 0.63 0.21 13370
0.05 -0.00 4.17 1.12 10.46 -2.29 0.73 0.31 13376
0.04 -0.00 3.84 0.23 10.71 -2.36 0.81 0.40 13382
0.06 -0.01 3.63 -0.35 10.93 -2.40 0.84 0.48 13389
0.05 -0.01 3.44 -0.82 11.21 -2.41 0.86 0.55 13395
0.06 -0.01 3.36 -1.27 11.56 -2.40 0.88 0.61 13402
0.07 -0.01 3.28 -1.62 11.98 -2.39 0.90 0.67 13408
0.05 -0.00 3.25 -1.98 12.35 -2.37 0.94 0.72 13414
0.04 -0.00 3.14 -2.25 12.70 -2.36 0.97 0.76 13421
0.06 -0.01 2.98 -2.53 13.12 -2.35 0.99 0.80 13427
0.06 -0.01 2.81 -2.88 13.41 -2.33 1.00 0.83 13433
0.05 -0.01 2.68 -3.26 13.94 -2.31 1.00 0.85 13440
0.05 -0.00 2.67 -3.71 14.57 -2.29 0.99 0.86 13446
0.05 -0.01 2.61 -3.94 15.27 -2.29 0.97 0.87 13453
0.05 0.00 2.56 -4.08 15.59 -2.33 0.95 0.87 13459
0.04 -0.00 2.57 -4.20 15.61 -2.38 0.93 0.88 13465
0.03 -0.00 2.50 -4.30 15.61 -2.45 0.90 0.89 13471
0.04 0.01 2.49 -4.56 15.23 -2.50 0.87 0.90 13478
0.04 -0.00 2.65 -4.85 15.04 -2.53 0.84 0.91 13485
0.04 0.00 2.79 -5.14 14.60 -2.52 0.82 0.91 13491
0.05 -0.00 2.89 -5.38 14.27 -2.48 0.82 0.92 13497
0.05 -0.00 2.87 -5.51 14.00 -2.41 0.84 0.93 13503
0.05 0.00 2.81 -5.54 14.02 -2.32 0.86 0.94 13510
0.04 -0.00 2.58 -5.60 14.07 -2.22 0.89 0.97 13516
0.04 -0.00 2.31 -5.60 14.04 -2.13 0.90 1.00 13522
0.05 -0.00 1.98 -5.66 14.02 -2.03 0.89 1.04 13529
0.05 -0.00 1.69 -5.73 13.92 -1.96 0.84 1.08 13535
0.04 -0.00 1.36 -5.96 13.89 -1.86 0.76 1.13 13542
0.06 -0.01 1.29 -6.13 14.04 -1.76 0.70 1.18 13548
0.05 -0.00 1.57 -6.17 14.08 -1.67 0.66 1.23 13554
0.05 -0.00 1.86 -6.17 13.86 -1.61 0.65 1.27 13560
0.07 -0.01 2.09 -6.17 13.55 -1.56 0.68 1.30 13568
0.05 -0.01 2.28 -6.31 13.15 -1.51 0.74 1.33 13574
0.05 -0.01 1.87 -6.75 13.18 -1.46 0.81 1.35 13580
0.06 -0.01 1.64 -6.49 12.65 -1.38 0.84 1.36 13586
0.05 -0.01 1.09 -6.61 12.58 -1.36 0.85 1.35 13592
0.06 -0.00 0.53 -6.66 12.60 -1.32 0.81 1.34 13599
0.06 -0.00 -0.10 -6.75 12.01 -1.28 0.74 1.32 13605
0.05 -0.01 -1.00 -6.36 10.96 -1.23 0.71 1.31 13612
0.07 -0.01 -2.34 -5.96 11.03 -1.17 0.78 1.33 13618
0.06 -0.01 -3.53 -6.30 10.72 -1.10 0.91 1.36 13625
0.06 -0.01 -4.11 -7.10 11.21 -1.04 0.84 1.32 13631
0.06 -0.01 -3.97 -7.90 11.27 -0.98 0.54 1.18 13637
0.06 -0.01 -3.43 -8.19 10.44 -0.90 0.16 0.98 13643
0.06 0.01 -2.62 -8.07 9.26 -0.81 -0.12 0.77 13649
0.06 -0.01 -1.83 -8.19 8.45 -0.71 -0.26 0.55 13657
0.05 -0.00 -1.09 -8.63 8.16 -0.62 -0.28 0.32 13663
0.06 0.01 -0.16 -9.02 8.19 -0.48 -0.23 0.06 13669
0.06 -0.01 0.57 -9.56 8.49 -0.43 -0.12 -0.20 13675
0.06 -0.01 0.97 -9.94 8.17 -0.37 0.08 -0.46 13681
0.06 0.00 1.48 -10.17 7.08 -0.35 0.23 -0.71 13688
0.06 -0.01 0.42 -10.22 8.28 -0.36 0.40 -0.91 13694
0.03 -0.00 0.05 -10.53 8.34 -0.38 0.64 -1.05 13701
0.06 0.00 -0.26 -10.90 8.15 -0.40 0.77 -1.11 13707
0.06 -0.00 -0.86 -11.37 7.82 -0.42 0.76 -1.17 13713
0.06 -0.00 -1.22 -12.26 7.52 -0.41 0.67 -1.18 13720
0.06 -0.01 -1.05 -13.28 7.10 -0.36 0.55 -1.15 13726
0.06 -0.01 -0.73 -14.44 6.64 -0.26 0.42 -1.07 13732
0.06 0.00 -7.57 -24.43 23.14 0.36 -0.39 -0.91 13739
0.05 -0.00 -1.99 -15.92 2.63 1.00 -0.96 -0.70 13746
0.04 -0.00 -5.34 -18.54 1.15 1.30 -1.63 -0.49 13752
0.06 -0.01 -5.26 -22.02 3.42 1.75 -2.22 -0.19 13758
0.05 -0.01 -2.65 -21.99 3.14 2.19 -2.63 0.06 13764
0.05 0.06 1.98 -6.78 4.39 2.63 -2.66 0.28 13771
0.05 0.16 3.63 1.62 3.62 2.91 -2.11 0.49 13777
0.04 0.32 2.84 -0.47 15.93 3.28 -1.75 0.73 13784
0.02 0.72 -4.17 3.12 24.63 3.46 -1.82 0.77 13790
0.02 0.92 -6.61 1.02 18.67 3.40 -1.88 0.48 13797
0.01 1.07 -4.47 -2.18 18.33 3.54 -1.90 0.05 13803
0.01 1.21 -2.61 -5.95 23.39 3.85 -1.46 -0.18 13809
-0.00 1.20 -0.47 -7.31 43.70 3.68 -1.91 -0.38 13815
0.00 1.26 2.92 -3.32 15.11 0.43 -1.45 -0.18 13822
-0.01 1.30 1.42 -4.69 12.72 0.04 -0.36 0.12 13829
-0.01 1.40 0.67 -2.32 11.02 -0.01 -0.10 0.14 13835
-0.02 1.31 0.43 -0.68 10.40 0.04 -0.11 0.15 13841
-0.00 1.31 0.52 -0.13 10.15 0.06 -0.11 0.11 13848
0.03 1.26 0.58 -0.53 10.02 0.04 -0.10 0.09 13854
0.03 1.20 0.92 -1.27 9.82 0.02 -0.09 0.08 13860
0.02 1.25 0.59 -1.20 10.13 -0.00 -0.07 0.08 13867
0.04 1.24 0.36 -0.87 10.26 -0.02 -0.05 0.08 13874
0.01 1.28 0.57 -0.78 10.18 -0.02 -0.04 0.06 13880
0.04 1.27 0.76 -0.81 10.05 -0.03 -0.03 0.06 13886
0.01 1.32 0.70 -0.76 9.97 -0.03 -0.04 0.06 13892
-0.00 1.36 0.64 -0.71 9.97 -0.03 -0.04 0.06 13898
0.01 1.37 0.67 -0.74 10.02 -0.03 -0.03 0.06 13905
-0.00 1.38 0.65 -0.67 10.04 -0.03 -0.02 0.06 13912
-0.00 1.39 0.66 -0.64 9.97 -0.02 -0.01 0.06 13918
-0.01 1.37 0.58 -0.64 10.03 -0.02 -0.00 0.06 13924
-0.01 1.33 0.68 -0.61 10.00 -0.01 0.01 0.06 13931
0.01 1.30 0.67 -0.68 10.07 -0.00 0.01 0.06 13937
0.00 1.26 0.67 -0.71 10.03 0.00 0.02 0.06 13943
0.01 1.21 0.74 -0.66 9.99 0.01 0.01 0.07 13949
0.03 1.17 0.73 -0.70 9.97 0.01 0.01 0.07 13956
0.03 1.10 0.75 -0.71 10.02 0.01 0.01 0.07 13963
0.01 1.07 0.72 -0.70 9.98 0.01 0.00 0.07 13969
0.04 1.05 0.73 -0.68 10.00 0.01 -0.00 0.06 13975
0.02 0.97 0.73 -0.71 9.94 0.01 -0.00 0.07 13981
0.02 0.98 0.75 -0.66 9.98 0.01 -0.00 0.06 13987
0.03 0.93 0.79 -0.66 9.91 0.01 -0.01 0.06 13995
0.04 0.91 0.77 -0.68 9.91 0.01 -0.02 0.06 14001
0.04 0.86 0.74 -0.65 9.93 0.00 -0.03 0.05 14007
0.04 0.87 0.76 -0.68 9.91 0.01 -0.03 0.05 14013
0.04 0.85 0.75 -0.68 9.87 0.00 -0.03 0.04 14019
0.04 0.87 0.75 -0.66 9.92 0.00 -0.03 0.04 14026
0.05 0.81 0.76 -0.68 9.95 -0.00 -0.04 0.04 14032
0.04 0.81 0.72 -0.71 9.95 -0.00 -0.03 0.04 14039
0.04 0.81 0.68 -0.68 9.97 0.00 -0.03 0.04 14045
0.05 0.78 0.68 -0.68 9.95 0.00 -0.03 0.04 14051
0.05 0.74 0.72 -0.73 9.92 0.01 -0.03 0.04 14057
0.04 0.71 0.70 -0.68 9.95 0.01 -0.03 0.06 14064
0.04 0.71 0.77 -0.71 9.89 0.01 -0.02 0.05 14070
0.04 0.67 0.71 -0.70 9.98 0.00 -0.02 0.05 14076
0.05 0.66 0.73 -0.74 9.95 0.01 -0.02 0.05 14083
0.08 0.64 0.73 -0.67 9.94 0.01 -0.02 0.05 14089
0.06 0.61 0.75 -0.71 9.88 0.01 -0.02 0.05 14095
0.07 0.62 0.72 -0.71 9.97 0.00 -0.02 0.05 14102
0.07 0.62 0.74 -0.71 9.95 0.00 -0.02 0.05 14108
0.06 0.61 0.70 -0.70 9.92 0.00 -0.02 0.04 14114
0.07 0.59 0.74 -0.71 10.03 -0.00 -0.02 0.04 14120
0.10 0.54 0.74 -0.71 9.98 -0.00 -0.02 0.05 14127
0.08 0.53 0.74 -0.74 9.92 0.00 -0.01 0.03 14134
0.08 0.55 0.73 -0.68 9.93 0.00 -0.01 0.05 14140
0.09 0.51 0.67 -0.73 10.01 0.00 -0.01 0.04 14146
0.07 0.47 0.72 -0.69 9.97 0.00 -0.00 0.04 14152
0.08 0.47 0.74 -0.66 9.92 0.01 0.00 0.04 14158
0.09 0.46 0.82 -0.70 10.05 0.01 0.01 0.03 14166
0.10 0.42 0.76 -0.71 9.96 0.01 0.01 0.03 14172
0.12 0.36 0.77 -0.73 9.96 0.02 0.01 0.03 14178
0.14 0.36 0.78 -0.75 10.04 0.02 0.02 0.03 14184
0.17 0.29 0.84 -0.75 9.91 0.02 0.03 0.02 14190
0.18 0.26 0.84 -0.72 10.03 0.02 0.02 0.02 14197
0.21 0.25 0.81 -0.72 10.00 0.03 0.02 0.02 14203
0.20 0.22 0.82 -0.76 10.02 0.02 0.02 0.02 14210
0.22 0.20 0.83 -0.78 10.02 0.03 0.02 0.02 14216
0.24 0.14 0.83 -0.73 10.04 0.03 0.02 0.03 14222
0.24 0.10 0.80 -0.78 10.02 0.03 0.02 0.03 14229
0.26 0.09 0.85 -0.71 10.00 0.04 0.02 0.03 14235
0.28 0.08 0.80 -0.72 10.11 0.05 0.02 0.03 14241
0.27 0.04 0.82 -0.76 10.06 0.06 0.02 0.03 14247
0.33 0.03 0.77 -1.05 10.15 0.08 0.03 0.03 14255
0.33 -0.01 0.85 -0.80 10.20 0.13 0.05 0.02 14261
0.35 -0.01 0.84 -0.89 10.19 0.12 0.06 0.02 14267
0.39 -0.03 0.95 -0.73 10.41 0.15 0.10 0.01 14273
0.40 -0.02 1.15 -0.87 10.46 0.24 0.17 -0.00 14279
0.42 -0.02 1.19 -1.08 10.78 0.37 0.27 -0.02 14286
0.42 -0.02 0.92 -0.93 11.86 0.60 0.41 -0.02 14292
0.42 -0.02 1.20 -0.97 13.00 0.95 0.56 -0.03 14299
0.39 -0.03 1.71 -1.13 14.09 1.48 0.70 -0.08 14305
0.37 -0.03 2.42 -1.04 15.21 2.02 0.63 -0.17 14312
0.37 -0.02 1.72 -0.69 15.33 2.44 0.39 -0.28 14318
0.35 -0.03 1.88 -1.29 15.84 2.78 0.07 -0.34 14324
0.30 -0.01 1.83 -1.35 16.75 3.08 -0.15 -0.37 14331
0.26 -0.01 2.04 -1.47 17.28 3.37 -0.22 -0.39 14338
0.19 -0.01 2.67 -1.33 17.59 3.69 -0.24 -0.45 14344
0.20 -0.01 4.23 -1.82 16.86 3.99 -0.30 -0.54 14350
0.15 0.00 3.14 -1.66 16.58 4.11 -0.38 -0.78 14357
0.12 -0.00 4.22 -2.78 17.39 4.23 -0.43 -0.70 14363
0.09 -0.01 3.82 -2.77 16.20 4.28 -0.33 -0.77 14369
0.09 -0.00 4.34 -2.95 18.68 4.28 -0.09 -0.80 14375
0.09 -0.00 6.59 -2.53 21.79 4.26 0.05 -0.84 14383
0.06 -0.01 6.31 -1.36 23.46 4.21 -0.15 -0.95 14389
0.08 -0.01 5.74 1.49 23.04 4.10 -0.41 -1.04 14395
0.07 -0.01 4.84 2.28 21.36 3.77 -0.53 -1.07 14401
0.07 -0.01 3.68 3.70 18.29 3.31 -0.49 -1.04 14408
0.07 -0.01 3.09 9.78 14.76 2.79 -0.44 -0.99 14414
0.06 -0.01 1.51 7.71 10.16 2.29 -0.31 -0.91 14420
0.06 -0.01 2.65 16.12 11.27 1.72 -0.32 -0.87 14427
0.06 -0.01 1.69 15.18 10.79 1.03 -0.22 -0.88 14434
0.05 -0.01 1.98 11.60 8.94 0.47 -0.19 -0.97 14440
0.05 -0.01 2.43 10.39 9.09 0.16 -0.27 -1.02 14446
0.05 -0.01 1.43 9.85 9.56 -0.16 -0.22 -1.06 14452
0.03 -0.00 0.90 8.53 7.34 -0.41 -0.25 -1.13 14458
0.05 0.00 0.90 7.07 6.14 -0.49 -0.36 -1.17 14465
0.05 -0.00 1.06 6.25 5.79 -0.54 -0.47 -1.17 14472
0.05 -0.00 1.69 6.05 5.98 -0.59 -0.52 -1.16 14478
0.04 -0.00 2.36 5.81 6.29 -0.64 -0.54 -1.15 14484
0.05 -0.01 2.97 5.62 6.36 -0.70 -0.54 -1.13 14490
0.05 -0.01 3.40 5.42 6.35 -0.76 -0.50 -1.10 14496
0.06 -0.01 3.62 5.29 6.28 -0.84 -0.42 -1.06 14502
0.07 -0.01 3.80 5.03 6.25 -0.91 -0.33 -1.00 14509
0.05 -0.01 3.86 4.68 6.37 -0.97 -0.23 -0.93 14516
0.05 -0.01 3.81 4.41 6.65 -1.02 -0.14 -0.85 14522
0.07 -0.01 3.75 4.27 7.27 -1.06 -0.09 -0.77 14528
0.06 -0.01 3.65 4.15 8.04 -1.10 -0.05 -0.68 14534
0.04 -0.00 3.70 4.08 9.03 -1.18 0.03 -0.58 14540
0.06 -0.00 3.91 4.00 9.72 -1.29 0.09 -0.47 14546
0.05 -0.01 3.97 3.91 9.99 -1.43 0.19 -0.37 14554
0.05 -0.00 3.85 3.51 10.01 -1.60 0.31 -0.22 14560
0.05 -0.00 3.71 2.98 10.10 -1.75 0.43 -0.07 14566
0.05 -0.00 3.44 2.36 10.28 -1.87 0.49 0.08 14572
0.04 -0.00 3.23 1.67 10.30 -1.94 0.53 0.23 14578
0.04 -0.00 3.12 1.26 10.43 -1.98 0.55 0.37 14585
0.05 -0.00 3.12 1.02 10.57 -2.01 0.56 0.50 14592
0.04 -0.00 3.07 0.85 10.80 -2.03 0.58 0.61 14598
0.05 -0.01 3.07 0.71 11.22 -2.05 0.61 0.71 14604
0.04 -0.00 2.97 0.61 11.80 -2.08 0.66 0.78 14610
0.04 -0.00 2.81 0.44 12.43 -2.12 0.70 0.85 14617
0.06 -0.01 2.68 0.19 13.07 -2.17 0.72 0.89 14623
0.05 -0.00 2.58 -0.05 13.48 -2.23 0.73 0.93 14629
0.04 -0.00 2.43 -0.31 13.91 -2.30 0.71 0.96 14636
0.06 -0.01 2.44 -1.18 14.19 -2.37 0.71 0.96 14642
0.05 -0.00 2.52 -0.97 14.31 -2.43 0.70 0.96 14649
0.04 -0.00 2.63 -1.41 14.36 -2.49 0.72 0.93 14655
0.06 -0.01 2.66 -1.94 14.33 -2.53 0.73 0.89 14661
0.05 -0.00 2.73 -2.33 14.31 -2.55 0.74 0.84 14667
0.05 -0.00 2.73 -2.79 14.15 -2.54 0.76 0.77 14673
0.05 -0.00 2.75 -3.18 14.00 -2.52 0.77 0.71 14681
0.04 -0.00 2.84 -3.48 13.88 -2.47 0.79 0.64 14687
0.05 -0.00 2.85 -3.71 13.70 -2.40 0.80 0.57 14693
0.05 -0.00 2.93 -3.95 13.52 -2.34 0.81 0.50 14699
0.03 -0.00 2.80 -4.13 13.48 -2.25 0.81 0.45 14706
0.04 -0.00 2.62 -4.17 13.54 -2.14 0.82 0.41 14712
0.05 -0.00 2.48 -4.28 13.63 -2.10 0.83 0.38 14718
0.04 -0.00 2.44 -4.34 13.77 -2.02 0.83 0.36 14725
0.06 -0.01 2.47 -4.35 13.70 -1.96 0.83 0.34 14731
0.05 -0.00 2.59 -4.42 13.66 -1.91 0.84 0.32 14738
0.04 0.00 2.70 -4.50 13.55 -1.87 0.87 0.31 14744
0.05 -0.00 2.78 -4.62 13.39 -1.83 0.93 0.31 14750
0.05 -0.00 2.77 -4.65 13.09 -1.79 0.97 0.31 14756
0.05 0.01 2.47 -4.80 13.09 -1.74 1.02 0.33 14763
0.05 -0.00 2.08 -4.93 12.97 -1.69 1.03 0.34 14770
0.03 -0.00 1.37 -5.77 13.39 -1.60 0.98 0.37 14776
0.05 -0.01 -1.12 -9.93 16.03 -1.34 0.65 0.38 14782
0.05 -0.01 -0.69 -4.19 11.32 -1.07 0.32 0.36 14788
0.04 -0.00 0.53 -5.77 7.18 -1.13 0.44 0.44 14794
0.06 -0.00 0.92 -6.92 13.11 -1.01 0.37 0.48 14801
0.05 -0.00 1.62 -5.70 12.50 -0.99 0.40 0.48 14808
0.04 -0.00 1.81 -4.84 11.60 -0.97 0.57 0.46 14814
0.06 -0.00 1.53 -5.92 12.37 -0.88 0.74 0.47 14820
0.05 -0.00 1.38 -6.34 11.06 -0.86 0.90 0.49 14827
0.05 -0.01 0.83 -5.10 11.22 -0.81 1.02 0.51 14833
0.05 -0.01 0.30 -5.76 11.31 -0.86 1.16 0.56 14839
0.05 -0.00 -0.21 -6.50 12.35 -0.86 1.20 0.60 14845
0.05 -0.00 -1.22 -6.76 12.58 -0.90 1.09 0.61 14852
0.05 -0.01 -0.79 -7.06 12.25 -0.98 0.90 0.59 14859
0.04 -0.00 -0.70 -7.51 11.21 -1.05 0.69 0.58 14865
0.05 0.00 -0.33 -8.01 10.10 -1.11 0.49 0.55 14871
0.04 -0.00 0.10 -8.64 9.17 -1.13 0.35 0.50 14877
0.04 0.00 0.57 -9.43 8.52 -1.10 0.27 0.41 14883
0.05 0.00 1.03 -10.25 7.77 -1.02 0.26 0.30 14891
0.05 -0.01 1.32 -11.19 7.04 -0.89 0.30 0.16 14897
0.04 0.00 1.34 -11.99 6.50 -0.74 0.39 0.01 14903
0.06 -0.00 1.03 -12.66 6.13 -0.58 0.49 -0.13 14909
0.05 -0.00 0.69 -13.17 5.96 -0.41 0.61 -0.25 14915
0.05 -0.00 0.19 -13.43 6.12 -0.25 0.69 -0.32 14922
0.05 -0.00 -0.17 -13.63 6.56 -0.11 0.73 -0.36 14928
0.04 -0.00 -1.13 -14.93 8.84 0.07 0.60 -0.36 14935
0.05 0.01 -5.79 -19.27 12.55 0.40 0.15 -0.26 14941
0.05 -0.00 -4.47 -14.93 9.44 1.07 -0.76 -0.06 14948
0.05 0.00 -4.68 -14.77 3.68 1.13 -1.34 0.10 14954
0.06 -0.01 -6.05 -18.20 5.79 1.33 -2.08 0.37 14960
0.05 -0.00 -2.93 -19.13 5.88 1.64 -2.63 0.70 14966
0.05 0.01 -2.64 -19.74 4.18 1.85 -3.08 0.97 14973
0.04 0.04 -1.51 -14.34 2.48 2.12 -3.24 1.31 14980
0.04 0.18 2.02 0.06 4.14 2.49 -2.75 1.64 14986
0.04 0.35 0.55 -1.25 8.34 2.94 -1.90 1.96 14992
0.01 0.63 -4.09 -0.11 21.32 3.57 -1.64 2.08 14999
0.01 0.87 -8.17 2.51 20.40 3.78 -1.48 1.88 15005
0.01 1.06 -10.99 -2.01 17.87 3.77 -1.44 1.34 15011
-0.01 1.07 -11.21 -5.14 21.38 3.80 -1.33 0.73 15017
-0.01 1.10 -10.45 -4.84 22.36 3.94 -0.88 0.04 15025
-0.02 1.17 -1.71 -6.98 50.49 3.01 -1.51 -0.69 15031
0.00 1.16 4.49 -2.54 12.47 -0.01 -0.59 -0.32 15037
-0.01 1.27 2.34 -3.34 11.67 -0.10 -0.09 0.02 15044
0.01 1.25 1.31 -2.75 10.80 -0.04 -0.02 0.11 15050
0.01 1.28 0.71 -0.71 10.15 0.00 -0.04 0.13 15056
0.00 1.29 0.43 -0.15 10.04 0.04 -0.04 0.10 15063
0.03 1.28 0.43 -0.66 10.04 0.01 -0.03 0.08 15070
0.01 1.24 0.89 -1.04 9.95 -0.01 -0.02 0.08 15076
0.02 1.22 0.80 -0.98 9.57 -0.02 0.00 0.09 15082
0.01 1.23 0.79 -0.87 10.14 -0.01 0.00 0.09 15088
0.01 1.27 0.66 -0.82 9.96 -0.01 0.00 0.09 15094
0.02 1.27 0.84 -0.87 10.07 -0.02 -0.01 0.08 15101
0.00 1.24 0.86 -0.79 9.91 -0.02 -0.01 0.07 15108
-0.01 1.27 0.85 -0.78 10.02 -0.02 -0.02 0.07 15114
0.00 1.29 0.80 -0.85 10.01 -0.02 -0.03 0.06 15120
-0.00 1.33 0.81 -0.75 10.00 -0.02 -0.04 0.06 15127
-0.00 1.34 0.94 -0.78 10.17 -0.02 -0.03 0.06 15133
-0.02 1.36 0.75 -0.74 10.02 -0.02 -0.04 0.06 15139
-0.02 1.35 0.72 -0.74 10.01 -0.01 -0.03 0.06 15145
0.00 1.34 0.74 -0.73 9.95 -0.00 -0.03 0.06 15152
-0.01 1.31 0.74 -0.76 9.99 -0.00 -0.02 0.06 15159
0.00 1.28 0.79 -0.72 9.96 0.01 -0.03 0.06 15165
0.02 1.29 0.81 -0.72 9.97 0.00 -0.03 0.06 15171
0.03 1.25 0.76 -0.73 9.98 0.00 -0.03 0.06 15177
0.01 1.23 0.77 -0.74 9.93 0.01 -0.03 0.06 15183
0.02 1.24 0.74 -0.76 10.02 0.01 -0.03 0.06 15191
0.02 1.21 0.75 -0.76 9.99 0.00 -0.03 0.07 15197
0.03 1.19 0.75 -0.71 9.98 0.00 -0.03 0.07 15203
0.04 1.18 0.76 -0.69 9.96 0.01 -0.03 0.06 15209
0.02 1.15 0.76 -0.72 9.93 0.01 -0.03 0.10 15215
0.02 1.12 0.78 -0.71 9.96 0.00 -0.03 0.10 15222
0.04 1.07 0.79 -0.74 9.92 0.01 -0.03 0.06 15228
0.04 1.04 0.80 -0.71 9.96 -0.00 -0.03 0.06 15235
0.02 1.04 0.78 -0.74 9.95 0.00 -0.03 0.06 15241
0.03 1.02 0.80 -0.78 9.96 -0.00 -0.03 0.06 15247
0.03 0.99 0.78 -0.72 9.94 -0.00 -0.03 0.05 15253
0.01 1.00 0.77 -0.75 9.98 -0.00 -0.03 0.05 15260
0.03 1.01 0.73 -0.74 9.99 -0.01 -0.03 0.05 15266
0.01 1.03 0.77 -0.73 9.99 -0.01 -0.03 0.04 15272
0.01 1.02 0.75 -0.86 9.94 -0.01 -0.03 0.05 15279
0.01 1.02 0.79 -0.70 9.94 -0.01 -0.02 0.05 15285
0.02 0.99 0.74 -0.72 9.93 -0.01 -0.02 0.05 15292
0.01 0.99 0.77 -0.71 9.98 -0.01 -0.02 0.05 15298
0.02 0.97 0.78 -0.73 9.93 -0.01 -0.02 0.04 15304
0.03 0.94 0.80 -0.69 9.91 -0.01 -0.02 0.05 15310
0.01 0.90 0.74 -0.70 9.95 -0.00 -0.02 0.05 15316
0.03 0.90 0.79 -0.73 9.94 -0.00 -0.02 0.05 15323
0.06 0.87 0.78 -0.74 9.92 -0.01 -0.03 0.05 15330
0.05 0.86 0.79 -0.72 9.93 -0.01 -0.03 0.05 15336
0.03 0.84 0.74 -0.75 9.97 -0.01 -0.03 0.04 15342
0.05 0.81 0.79 -0.73 10.02 -0.01 -0.03 0.04 15348
0.04 0.78 0.77 -0.75 9.94 -0.01 -0.03 0.05 15354
0.05 0.79 0.76 -0.75 9.92 -0.01 -0.03 0.04 15362
0.05 0.81 0.81 -0.70 9.93 -0.01 -0.03 0.03 15368
0.04 0.78 0.78 -0.76 9.88 -0.01 -0.03 0.07 15374
0.07 0.77 0.80 -0.73 9.85 -0.01 -0.03 0.03 15380
0.06 0.75 0.81 -0.72 9.91 -0.01 -0.03 0.03 15386
0.05 0.73 0.77 -0.68 9.96 -0.01 -0.03 0.02 15393
0.09 0.69 0.78 -0.79 9.88 -0.00 -0.03 0.02 15399
0.09 0.61 0.83 -0.73 9.87 -0.01 -0.04 0.02 15406
0.10 0.60 0.79 -0.74 9.94 -0.01 -0.04 0.02 15412
0.12 0.54 0.82 -0.70 10.05 0.03 -0.04 0.01 15418
0.17 0.52 0.81 -0.68 9.99 0.00 -0.04 0.01 15424
0.15 0.48 0.84 -0.77 9.94 0.01 -0.05 0.01 15431
0.18 0.44 0.86 -0.74 10.03 0.02 -0.04 0.01 15437
0.18 0.39 0.81 -0.73 10.10 0.03 -0.04 0.01 15443
0.23 0.35 0.86 -0.74 10.06 0.04 -0.03 0.01 15450
0.29 0.31 0.84 -0.69 10.12 0.05 -0.02 0.01 15457
0.33 0.23 0.92 -0.80 10.05 0.07 -0.02 0.02 15463
0.42 0.21 0.78 -0.77 10.20 0.08 -0.01 0.02 15469
0.45 0.10 0.83 -0.84 10.14 0.08 0.00 0.02 15475
0.49 0.04 0.81 -0.86 10.33 0.10 0.01 0.02 15482
0.53 -0.00 0.84 -0.82 10.24 0.12 0.04 0.02 15489
0.57 -0.01 0.87 -0.75 10.37 0.17 0.07 0.01 15495
0.59 -0.01 0.91 -0.64 10.52 0.24 0.12 0.01 15501
0.62 -0.03 0.98 -0.91 10.62 0.31 0.16 -0.02 15508
0.64 -0.03 1.49 -0.94 10.48 0.45 0.22 -0.07 15514
0.67 -0.04 1.67 -1.07 12.26 0.72 0.37 -0.13 15520
0.66 -0.04 1.49 -1.03 15.25 1.29 0.56 -0.19 15526
0.67 -0.03 1.97 -1.28 16.72 2.10 0.59 -0.27 15534
0.65 -0.04 2.76 -1.22 17.67 2.72 0.37 -0.40 15540
0.59 -0.02 3.12 -1.11 16.82 3.09 0.08 -0.54 15546
0.56 -0.02 2.53 -1.37 17.27 3.38 -0.17 -0.65 15552
0.51 -0.03 2.21 -1.45 18.02 3.68 -0.41 -0.70 15559
0.46 -0.02 3.09 -1.06 18.27 4.04 -0.61 -0.73 15565
