Voltage_01 Voltage_02 Acc_x Acc_y Acc_z Gyro_x Gyro_y Gyro_z Time
5000
0.04 -0.00 3.93 3.58 7.43 -1.41 -0.38 -0.40 23
0.04 -0.00 4.47 3.31 8.50 -1.43 -0.32 -0.29 29
0.02 -0.00 5.51 3.21 9.35 -1.49 -0.18 -0.18 35
0.03 -0.00 5.08 3.06 9.81 -1.62 -0.03 -0.10 41
0.04 0.01 5.01 2.71 10.15 -1.79 0.20 0.01 48
0.04 -0.00 4.95 2.29 10.82 -1.98 0.45 0.13 54
0.04 -0.00 4.76 1.70 11.66 -2.13 0.66 0.26 60
0.04 -0.00 4.40 0.90 12.40 -2.28 0.81 0.37 66
0.04 -0.00 3.83 0.34 13.40 -2.42 0.92 0.47 72
0.04 0.00 3.22 -0.29 13.23 -2.52 0.99 0.58 78
0.04 -0.00 2.75 -0.97 13.51 -2.62 1.01 0.68 84
0.04 -0.00 2.40 -1.64 13.73 -2.69 0.99 0.76 91
0.04 -0.00 2.26 -2.13 13.86 -2.75 0.97 0.82 97
0.04 0.00 2.09 -2.62 13.93 -2.78 0.94 0.86 103
0.05 0.00 1.96 -3.08 13.97 -2.80 0.92 0.89 109
0.04 -0.00 1.88 -3.54 13.99 -2.79 0.90 0.90 116
0.05 -0.00 1.78 -3.94 14.00 -2.77 0.89 0.90 122
0.05 0.00 1.74 -4.22 13.97 -2.74 0.88 0.87 129
0.07 -0.01 1.67 -4.53 13.84 -2.69 0.86 0.84 135
0.05 -0.01 1.64 -4.75 13.79 -2.63 0.83 0.81 141
0.05 -0.00 1.55 -5.02 13.71 -2.55 0.79 0.76 147
0.05 -0.01 1.47 -5.15 13.53 -2.47 0.75 0.71 153
0.07 -0.01 1.38 -5.26 13.38 -2.37 0.69 0.66 159
0.06 -0.00 1.36 -5.48 13.37 -2.25 0.62 0.61 165
0.04 0.00 1.37 -5.70 13.34 -2.18 0.56 0.56 173
0.06 0.00 1.44 -5.88 13.34 -2.06 0.52 0.50 179
0.06 -0.01 1.52 -6.05 13.21 -1.94 0.50 0.44 185
0.06 -0.01 1.61 -6.41 13.02 -1.83 0.52 0.38 191
0.06 -0.01 1.66 -6.69 13.19 -1.72 0.56 0.32 197
0.06 0.00 1.47 -7.07 13.25 -1.61 0.61 0.26 203
0.05 -0.01 1.21 -7.26 13.46 -1.51 0.65 0.22 209
0.05 -0.01 0.99 -7.28 13.46 -1.44 0.69 0.19 216
0.05 -0.01 0.77 -7.35 13.55 -1.36 0.70 0.17 223
0.06 -0.01 0.42 -7.37 13.58 -1.30 0.69 0.17 229
0.05 -0.01 0.16 -7.31 13.53 -1.27 0.67 0.19 235
0.05 -0.00 -0.01 -7.24 13.38 -1.25 0.62 0.22 241
0.06 -0.01 -0.08 -7.27 13.15 -1.25 0.57 0.27 247
0.07 -0.01 -0.21 -7.38 12.89 -1.24 0.53 0.33 253
0.05 -0.00 -0.33 -7.59 12.63 -1.23 0.47 0.42 260
0.04 -0.00 -0.43 -8.51 12.49 -1.22 0.49 0.53 266
0.05 -0.01 -0.52 -8.50 11.70 -1.21 0.48 0.63 272
0.07 -0.01 -0.57 -9.20 11.87 -1.19 0.47 0.75 278
0.06 -0.01 -0.65 -9.98 11.45 -1.19 0.45 0.88 285
0.06 -0.01 -0.81 -10.69 10.78 -1.19 0.45 1.01 291
0.06 -0.00 -0.96 -11.55 10.11 -1.19 0.46 1.14 297
0.06 -0.01 -0.82 -12.52 8.23 -1.20 0.46 1.27 304
0.06 -0.01 -1.66 -13.19 9.09 -1.22 0.46 1.39 310
0.06 -0.01 -1.73 -14.69 8.69 -1.20 0.55 1.48 316
0.06 -0.01 -1.72 -15.06 8.30 -1.17 0.62 1.55 322
0.06 -0.01 -1.91 -15.81 7.50 -1.13 0.59 1.56 329
0.06 -0.01 -2.06 -16.56 6.77 -1.06 0.49 1.53 335
0.06 -0.00 -1.98 -17.18 5.97 -0.93 0.38 1.44 342
0.07 -0.01 -1.79 -17.64 5.02 -0.79 0.30 1.34 348
0.06 -0.00 -3.58 -25.95 4.23 -0.50 0.04 1.17 354
0.04 -0.00 -6.19 -19.75 6.16 0.49 -0.63 0.93 360
0.06 -0.00 -4.35 -18.19 1.15 0.85 -0.72 0.77 366
0.06 -0.01 -5.48 -20.03 0.98 1.38 -1.13 0.55 372
0.06 -0.01 -3.70 -21.78 2.81 1.80 -1.31 0.40 379
0.06 -0.01 -4.10 -22.24 4.30 2.20 -1.54 0.29 386
0.05 0.01 -4.45 -17.51 5.30 2.48 -1.77 0.30 392
0.05 0.08 0.21 -1.81 7.58 2.74 -1.86 0.32 398
0.05 0.20 -0.53 0.50 12.85 2.95 -1.82 0.32 404
0.02 0.42 -2.65 -3.23 23.77 3.16 -1.94 0.30 410
0.02 0.62 -4.30 0.23 21.10 3.11 -1.91 0.15 416
0.02 0.72 -2.17 -1.29 18.27 3.00 -1.59 -0.07 423
0.01 0.84 -1.07 -7.64 56.01 2.32 -2.31 -0.26 430
0.01 0.86 -0.34 -2.94 12.06 0.06 -0.56 0.01 436
-0.00 0.92 0.22 -4.97 10.71 -0.10 -0.16 -0.02 442
0.01 1.01 0.38 -2.76 11.10 -0.08 -0.11 0.01 448
0.03 0.96 0.78 -0.74 10.23 -0.03 -0.07 0.08 454
0.02 0.97 0.68 -0.22 9.86 0.02 -0.04 0.09 460
0.02 0.94 0.24 -0.52 9.95 0.03 -0.02 0.08 467
0.01 0.88 0.44 -0.79 9.98 0.00 -0.02 0.07 474
0.01 0.91 0.80 -0.93 9.85 -0.02 -0.02 0.07 480
0.01 0.92 0.62 -0.91 9.90 -0.02 -0.01 0.10 486
0.01 0.92 0.49 -0.90 10.21 -0.03 -0.00 0.09 492
0.01 0.97 0.55 -0.81 9.98 -0.04 -0.00 0.08 498
0.02 1.04 0.62 -0.81 9.91 -0.05 0.00 0.07 504
0.03 1.04 0.57 -0.76 9.95 -0.04 0.00 0.07 510
0.02 1.08 0.51 -0.78 10.06 -0.05 0.00 0.07 517
0.00 1.12 0.50 -0.77 10.22 -0.05 0.01 0.07 523
0.01 1.19 0.59 -0.78 10.01 -0.05 0.02 0.07 530
0.01 1.23 0.63 -0.71 9.99 -0.04 0.01 0.08 536
0.00 1.28 0.24 -0.85 9.51 -0.04 0.02 0.08 542
-0.01 1.25 0.62 -0.66 10.06 -0.03 0.01 0.08 548
-0.01 1.28 0.62 -0.68 10.06 -0.02 0.01 0.08 555
-0.01 1.33 0.61 -0.70 10.00 -0.01 0.01 0.07 561
-0.00 1.26 0.62 -0.71 10.00 -0.01 0.01 0.07 567
-0.01 1.26 0.63 -0.69 10.10 -0.01 0.01 0.08 573
0.00 1.26 0.67 -0.71 9.97 -0.01 -0.03 0.07 579
-0.00 1.22 0.68 -0.72 9.99 -0.01 -0.00 0.08 586
-0.00 1.17 0.67 -0.68 9.97 0.00 -0.01 0.08 592
-0.00 1.16 0.68 -0.69 9.91 0.00 -0.02 0.07 599
0.00 1.16 0.67 -0.69 9.95 0.01 -0.03 0.08 605
0.00 1.16 0.63 -0.71 9.98 0.01 -0.03 0.08 611
0.00 1.14 0.64 -0.67 10.00 0.01 -0.04 0.08 617
-0.00 1.12 0.71 -0.67 9.90 0.01 -0.05 0.07 623
0.01 1.11 0.62 -0.71 9.98 0.01 -0.05 0.07 629
0.01 1.09 0.63 -0.72 9.95 0.01 -0.05 0.07 635
0.01 1.08 0.61 -0.73 9.96 0.01 -0.05 0.07 642
0.01 1.06 0.60 -0.70 10.03 0.01 -0.05 0.07 648
0.03 1.05 0.60 -0.71 9.99 0.00 -0.05 0.07 655
0.04 1.04 0.59 -0.72 10.01 0.00 -0.04 0.06 661
0.02 1.02 0.61 -0.72 9.98 -0.00 -0.04 0.07 667
0.02 1.00 0.59 -0.76 9.98 -0.00 -0.03 0.06 673
0.02 0.97 0.62 -0.73 9.96 -0.01 -0.03 0.07 679
0.03 0.98 0.59 -0.74 9.98 -0.00 -0.03 0.06 686
0.02 0.97 0.57 -0.70 9.96 -0.00 -0.03 0.07 692
0.02 0.94 0.57 -0.72 9.96 -0.00 -0.03 0.07 698
0.02 0.91 0.61 -0.68 10.03 -0.00 -0.02 0.07 704
0.04 0.92 0.59 -0.68 9.96 -0.00 -0.02 0.07 710
0.03 0.90 0.62 -0.70 9.94 -0.00 -0.02 0.06 716
0.03 0.90 0.59 -0.74 9.94 0.00 -0.02 0.06 723
0.02 0.87 0.63 -0.73 9.89 -0.00 -0.01 0.05 730
0.04 0.86 0.60 -0.71 9.90 -0.00 -0.01 0.06 736
0.04 0.86 0.65 -0.72 9.93 -0.00 -0.01 0.06 742
0.03 0.85 0.62 -0.71 9.91 -0.00 -0.01 0.06 748
0.03 0.84 0.62 -0.73 9.98 -0.01 -0.01 0.06 754
0.03 0.84 0.63 -0.71 9.93 -0.00 -0.01 0.06 760
0.05 0.84 0.62 -0.69 10.04 -0.01 -0.00 0.05 766
0.03 0.83 0.66 -0.74 9.89 -0.01 -0.00 0.06 773
0.04 0.80 0.59 -0.71 9.95 -0.01 -0.00 0.06 779
0.04 0.80 0.63 -0.71 9.95 -0.00 -0.00 0.06 785
0.04 0.76 0.59 -0.69 9.93 -0.00 0.03 0.06 791
0.04 0.77 0.63 -0.70 9.94 -0.00 0.01 0.05 797
0.04 0.74 0.63 -0.71 10.03 0.00 0.01 0.05 804
0.04 0.73 0.64 -0.69 9.92 0.00 0.01 0.05 811
0.04 0.71 0.72 -0.72 9.90 0.01 0.01 0.05 817
0.05 0.70 0.69 -0.68 10.07 0.01 0.01 0.05 823
0.04 0.61 1.22 -0.70 9.93 0.01 0.02 0.05 829
0.05 0.54 0.71 -0.71 9.90 0.01 0.01 0.05 835
0.05 0.56 0.64 -0.73 9.96 0.01 0.01 0.05 841
0.07 0.51 0.69 -0.68 9.94 0.01 0.01 0.05 847
0.07 0.46 0.67 -0.67 10.14 0.01 0.01 0.05 854
0.07 0.42 0.70 -0.70 10.11 0.02 -0.00 0.06 860
0.08 0.36 0.66 -0.70 10.13 0.03 0.00 0.06 866
0.11 0.32 0.71 -0.71 10.08 0.03 0.00 0.06 873
0.12 0.28 0.69 -0.78 10.13 0.03 0.00 0.06 879
0.13 0.18 0.69 -0.81 10.06 0.04 0.00 0.06 885
0.15 0.13 0.73 -0.72 10.09 0.05 0.01 0.06 891
0.19 0.10 0.80 -0.82 10.10 0.05 0.01 0.06 898
0.23 0.05 0.74 -1.02 10.08 0.06 0.01 0.06 904
0.24 0.02 0.76 -0.75 10.23 0.08 0.02 0.06 910
0.26 0.01 0.86 -1.15 10.29 0.10 0.03 0.05 916
0.28 -0.02 0.90 -1.32 9.82 0.16 0.05 0.05 923
0.26 -0.02 0.76 -0.85 10.24 0.24 0.10 0.01 929
0.30 -0.02 1.18 -0.81 11.32 0.44 0.20 -0.03 935
0.32 -0.02 1.55 -0.97 13.29 0.88 0.39 -0.09 942
0.32 -0.02 2.20 -1.10 16.37 1.77 0.67 -0.21 948
0.32 -0.03 2.64 -1.15 18.78 2.56 0.62 -0.41 954
0.30 -0.00 2.31 -1.20 19.39 3.14 0.20 -0.59 960
0.29 -0.02 2.08 -0.93 18.71 3.55 -0.01 -0.61 967
0.29 -0.02 2.78 -1.62 18.60 3.88 -0.13 -0.65 973
0.23 -0.01 2.64 -1.10 18.92 4.18 -0.23 -0.71 979
0.24 -0.01 3.32 -1.02 19.19 4.28 -0.31 -0.73 986
0.16 -0.02 4.25 -2.61 17.51 4.28 -0.27 -0.79 992
0.12 -0.00 3.20 -3.02 18.11 4.28 -0.09 -0.84 998
0.12 -0.01 2.48 -3.84 19.30 4.28 0.18 -0.79 1005
0.07 -0.01 3.99 -4.34 22.32 4.28 0.36 -0.75 1011
0.06 -0.00 4.60 -5.02 23.64 4.28 0.49 -0.79 1017
0.10 -0.01 5.11 -4.23 25.78 4.28 0.36 -0.89 1024
0.08 -0.01 4.55 -3.20 25.26 4.28 0.10 -1.02 1030
0.06 -0.01 2.93 -3.02 23.90 4.20 -0.21 -1.08 1036
0.08 -0.01 3.04 -1.82 23.73 3.98 -0.53 -1.14 1043
0.07 -0.01 3.55 0.68 21.44 3.72 -0.85 -1.22 1049
0.07 -0.01 3.88 2.42 18.17 3.58 -1.05 -1.27 1055
0.08 -0.01 4.06 6.91 14.53 3.49 -1.09 -1.23 1061
0.04 -0.00 6.46 19.64 12.59 3.17 -1.08 -1.26 1068
0.04 -0.00 5.18 16.37 7.93 2.47 -0.80 -1.42 1074
0.06 0.00 7.47 12.19 9.10 1.79 -0.60 -1.51 1081
0.05 -0.00 8.27 14.47 11.75 0.91 -0.29 -1.51 1087
0.03 -0.00 6.95 14.77 10.41 0.27 0.08 -1.55 1093
0.05 -0.01 5.84 12.31 8.09 -0.06 0.33 -1.60 1099
0.05 -0.01 4.67 10.67 5.38 -0.23 0.40 -1.57 1105
0.04 -0.00 3.37 10.32 3.58 -0.33 0.39 -1.45 1113
0.05 0.00 2.54 10.07 3.18 -0.40 0.34 -1.35 1119
0.04 0.00 2.61 9.59 3.71 -0.45 0.24 -1.22 1125
0.03 -0.00 3.06 9.09 4.06 -0.49 0.16 -1.07 1131
0.04 -0.00 3.58 8.99 4.27 -0.55 0.11 -0.90 1137
0.05 -0.01 3.80 9.22 4.57 -0.63 0.12 -0.73 1143
0.04 -0.00 3.72 9.11 4.97 -0.75 0.16 -0.57 1149
0.04 -0.00 3.54 8.69 5.56 -0.88 0.22 -0.39 1156
0.04 0.00 3.41 8.25 6.18 -1.03 0.28 -0.24 1163
0.05 -0.01 3.23 7.73 6.78 -1.17 0.34 -0.07 1169
0.04 -0.00 3.13 7.14 7.69 -1.32 0.40 0.08 1175
0.03 -0.00 3.19 6.55 8.59 -1.49 0.47 0.22 1181
0.04 0.01 3.26 6.06 9.37 -1.66 0.55 0.34 1187
0.05 -0.00 3.16 5.61 9.74 -1.90 0.61 0.46 1193
0.05 -0.00 2.99 5.11 9.99 -2.14 0.68 0.54 1200
0.04 -0.00 2.84 4.43 10.23 -2.37 0.74 0.62 1206
0.05 -0.01 2.62 3.61 10.56 -2.57 0.79 0.68 1213
0.05 -0.01 2.52 2.68 10.90 -2.72 0.84 0.72 1219
0.04 -0.00 2.32 1.76 11.26 -2.85 0.89 0.72 1225
0.05 -0.00 2.11 0.84 11.75 -2.97 0.93 0.71 1231
0.05 -0.00 2.00 0.00 12.23 -3.02 0.94 0.68 1238
0.05 -0.01 1.87 -0.72 12.64 -3.08 0.95 0.64 1244
0.05 -0.00 1.75 -1.25 13.01 -3.12 0.94 0.60 1250
0.06 -0.01 1.71 -1.80 13.40 -3.15 0.93 0.58 1257
0.05 -0.01 1.71 -2.33 13.60 -3.16 0.92 0.55 1263
0.04 -0.00 1.85 -2.76 13.96 -3.16 0.91 0.53 1269
0.06 -0.01 1.94 -3.13 14.20 -3.14 0.89 0.52 1275
0.05 -0.01 1.99 -3.56 14.47 -3.11 0.88 0.51 1282
0.04 -0.00 1.92 -3.96 14.73 -3.07 0.86 0.51 1288
0.04 0.00 1.87 -4.42 14.86 -2.98 0.85 0.52 1295
0.04 -0.00 1.76 -4.80 15.14 -2.95 0.81 0.53 1301
0.04 -0.00 1.67 -5.05 15.31 -2.88 0.77 0.54 1307
0.04 0.00 1.75 -5.31 15.44 -2.79 0.68 0.55 1313
0.04 -0.00 1.83 -5.54 15.52 -2.70 0.59 0.54 1319
0.04 -0.00 1.99 -5.98 15.49 -2.60 0.50 0.53 1326
0.04 0.00 2.20 -6.28 15.37 -2.51 0.44 0.51 1333
0.05 -0.00 2.43 -6.73 15.19 -2.41 0.41 0.47 1339
0.04 -0.00 2.51 -7.24 15.01 -2.32 0.42 0.43 1345
0.04 -0.00 2.70 -7.63 14.90 -2.22 0.46 0.40 1351
0.05 -0.01 2.77 -7.91 14.62 -2.09 0.52 0.37 1357
0.04 -0.00 2.75 -8.11 14.43 -1.99 0.59 0.36 1363
0.03 -0.00 2.64 -8.35 14.23 -1.85 0.64 0.36 1371
0.04 0.00 2.48 -8.49 14.25 -1.70 0.69 0.38 1377
0.04 -0.00 2.12 -8.68 14.37 -1.56 0.72 0.42 1383
0.03 -0.00 1.73 -8.83 14.37 -1.42 0.76 0.49 1389
0.04 0.01 1.33 -9.27 15.28 -1.30 0.78 0.56 1395
0.04 -0.00 0.68 -9.72 14.99 -1.23 0.79 0.65 1402
0.04 -0.00 -0.08 -10.01 15.12 -1.22 0.76 0.76 1409
0.04 -0.00 -0.71 -10.16 15.05 -1.26 0.71 0.86 1415
0.05 -0.01 -1.09 -10.34 14.61 -1.34 0.60 0.96 1421
0.04 -0.00 -1.13 -10.71 13.93 -1.43 0.49 1.06 1427
0.06 -0.01 -0.92 -11.18 12.92 -1.53 0.39 1.15 1434
0.05 -0.00 -0.94 -11.49 11.58 -1.59 0.25 1.21 1440
0.05 -0.00 -0.62 -11.82 10.62 -1.61 0.28 1.29 1446
0.05 -0.01 -0.67 -12.42 9.51 -1.58 0.39 1.39 1453
0.05 -0.00 -0.94 -12.96 8.76 -1.51 0.55 1.50 1459
0.05 -0.00 -1.50 -13.57 8.16 -1.40 0.64 1.59 1466
0.06 -0.01 -2.38 -14.68 7.86 -1.28 0.68 1.65 1472
0.04 -0.00 -3.11 -14.86 7.65 -1.14 0.68 1.69 1478
0.05 -0.00 -3.62 -15.65 7.40 -1.00 0.60 1.70 1484
0.06 -0.00 -3.88 -16.26 7.04 -0.85 0.44 1.66 1490
0.05 -0.01 -3.85 -16.73 6.56 -0.71 0.25 1.57 1497
0.04 -0.00 -3.56 -17.00 5.98 -0.54 0.10 1.45 1504
0.05 -0.00 -3.04 -16.94 5.50 -0.36 0.01 1.29 1510
0.05 0.00 -2.47 -16.74 5.33 -0.16 -0.01 1.09 1516
0.04 -0.00 -1.94 -16.34 5.54 0.02 -0.01 0.86 1522
0.05 0.00 -1.51 -15.72 6.14 0.23 -0.01 0.60 1528
0.05 -0.01 -1.05 -15.72 6.47 0.42 -0.00 0.32 1534
0.05 -0.00 -3.25 -26.33 22.93 1.00 -0.22 0.06 1542
0.05 0.00 -0.44 -13.48 4.76 1.65 -0.47 -0.12 1548
0.05 -0.00 -4.22 -12.50 5.23 2.00 -1.00 -0.32 1554
0.04 -0.00 -4.05 -13.49 6.39 2.17 -1.40 -0.40 1560
0.04 -0.00 -1.36 -11.03 7.98 2.35 -1.85 -0.39 1566
0.04 -0.00 2.28 -0.85 8.56 2.40 -1.94 -0.40 1572
0.04 0.07 2.50 2.56 10.35 2.50 -1.76 -0.35 1580
0.03 0.13 3.87 0.71 13.55 2.51 -1.46 -0.18 1586
0.03 0.31 3.54 0.68 16.48 2.56 -1.23 0.03 1592
0.02 0.48 0.07 -0.47 13.73 2.63 -1.15 0.17 1598
0.01 0.61 -2.43 -1.51 13.68 2.85 -1.24 0.09 1604
0.01 0.63 -1.97 -2.43 16.09 3.17 -1.34 -0.10 1611
-0.00 0.69 -0.02 -3.65 19.59 3.39 -1.27 -0.21 1617
0.02 0.67 -1.33 -5.04 48.08 2.35 -2.46 -0.16 1624
0.00 0.68 0.16 -3.59 9.71 -0.06 -0.31 0.15 1630
-0.00 0.78 -0.24 -4.02 11.21 -0.16 0.01 0.11 1637
0.01 0.89 -0.41 -2.77 12.07 -0.10 -0.06 0.04 1643
0.01 0.91 1.14 -1.02 10.02 -0.10 0.03 0.06 1649
0.00 0.90 0.97 -0.42 9.80 -0.04 0.02 0.09 1655
0.01 0.89 0.59 -0.37 10.09 -0.03 0.02 0.09 1661
0.01 0.89 0.61 -0.96 10.08 -0.05 0.01 0.08 1668
-0.01 0.93 0.88 -0.88 9.90 -0.06 0.01 0.08 1675
0.01 0.96 0.84 -0.91 9.90 -0.06 0.02 0.09 1681
0.01 0.98 0.83 -0.88 10.05 -0.06 0.02 0.09 1687
-0.00 0.98 0.74 -0.92 10.04 -0.07 0.02 0.08 1693
0.00 1.06 1.09 -1.01 9.78 -0.06 0.02 0.07 1699
-0.00 1.10 0.91 -0.85 10.03 -0.06 0.01 0.07 1705
-0.00 1.13 0.85 -0.82 10.06 -0.05 0.00 0.07 1713
-0.01 1.13 0.78 -0.86 10.03 -0.04 -0.00 0.07 1719
-0.00 1.14 0.79 -0.83 9.93 -0.05 0.00 0.06 1725
-0.01 1.15 0.78 -0.80 10.07 -0.04 0.00 0.07 1731
-0.01 1.20 0.81 -0.77 9.98 -0.04 0.01 0.06 1737
-0.00 1.21 0.82 -0.78 9.93 -0.03 0.01 0.06 1743
-0.02 1.16 0.86 -0.75 9.99 -0.02 0.01 0.06 1751
-0.02 1.17 0.87 -0.80 9.94 -0.02 0.01 0.06 1757
0.00 1.20 0.90 -0.80 9.98 -0.01 0.01 0.06 1763
-0.02 1.19 0.85 -0.79 9.96 -0.01 0.00 0.05 1769
-0.01 1.17 0.89 -0.82 9.92 -0.00 -0.01 0.06 1775
-0.01 1.13 0.83 -0.81 9.98 -0.00 -0.01 0.06 1781
-0.00 1.12 0.90 -0.78 9.95 0.00 -0.02 0.06 1787
-0.00 1.10 0.86 -0.79 10.01 0.00 -0.02 0.06 1795
-0.00 1.09 0.82 -0.79 9.99 0.01 -0.03 0.07 1801
0.00 1.07 0.83 -0.79 10.00 0.00 -0.02 0.07 1807
0.00 1.02 0.81 -0.73 9.97 0.01 -0.02 0.06 1813
-0.01 1.01 0.86 -0.80 9.92 0.01 -0.03 0.07 1819
0.00 0.97 0.84 -0.72 9.92 0.01 -0.03 0.06 1825
0.01 0.95 0.90 -0.77 9.93 0.01 -0.02 0.06 1831
0.01 0.93 0.87 -0.80 9.92 0.01 -0.02 0.06 1838
-0.00 0.89 0.90 -0.81 9.89 0.01 -0.02 0.06 1845
0.01 0.87 0.86 -0.80 9.89 0.01 -0.02 0.05 1851
0.02 0.85 0.87 -0.80 9.91 0.01 -0.02 0.05 1857
0.01 0.79 0.86 -0.81 9.97 0.01 -0.02 0.05 1863
0.01 0.77 0.84 -0.80 9.92 0.01 -0.02 0.05 1869
0.03 0.76 0.82 -0.81 9.95 0.01 -0.02 0.05 1875
0.01 0.74 0.87 -0.81 9.95 0.00 -0.02 0.05 1882
0.01 0.71 0.83 -0.83 9.93 0.01 -0.02 0.05 1888
0.02 0.70 0.86 -0.78 9.92 0.00 -0.01 0.06 1895
0.03 0.69 0.84 -0.79 9.94 0.01 -0.01 0.05 1901
0.03 0.65 0.87 -0.79 9.89 0.01 -0.01 0.06 1907
0.02 0.69 0.87 -0.78 9.91 0.01 -0.01 0.05 1913
0.03 0.68 0.89 -0.78 10.02 0.00 -0.01 0.05 1920
0.03 0.65 0.90 -0.79 9.90 0.00 -0.01 0.05 1926
0.03 0.64 0.90 -0.81 9.85 -0.00 -0.01 0.05 1932
0.03 0.65 0.90 -0.80 9.87 -0.00 -0.01 0.05 1939
0.04 0.60 0.96 -0.83 9.91 -0.00 -0.01 0.05 1945
0.03 0.62 0.90 -0.78 10.06 0.00 -0.01 0.05 1951
0.02 0.58 0.89 -0.81 9.98 0.00 -0.01 0.05 1957
0.06 0.56 0.84 -0.83 9.99 0.00 -0.01 0.05 1964
0.07 0.54 0.86 -0.79 9.93 0.01 -0.01 0.06 1970
0.06 0.52 0.91 -0.77 9.90 0.01 -0.01 0.05 1976
0.09 0.48 0.95 -0.81 9.99 0.01 -0.01 0.05 1982
0.10 0.46 0.88 -0.79 9.87 0.01 -0.01 0.05 1989
0.10 0.41 0.79 -0.81 9.88 0.01 -0.01 0.05 1995
0.08 0.38 0.87 -0.80 9.98 0.01 -0.02 0.05 2001
0.09 0.37 0.92 -0.82 10.03 0.01 -0.02 0.05 2008
0.10 0.36 0.94 -0.76 9.87 0.01 -0.03 0.05 2014
0.15 0.27 0.93 -0.84 9.97 0.01 -0.03 0.05 2020
0.16 0.26 0.96 -0.77 9.91 0.02 -0.04 0.05 2026
0.20 0.20 0.90 -0.86 9.95 0.02 -0.04 0.05 2033
0.15 0.17 0.91 -0.83 9.98 0.02 -0.05 0.04 2039
0.16 0.11 0.89 -0.82 10.04 0.03 -0.03 0.04 2045
0.22 0.07 0.89 -0.78 10.12 0.04 -0.02 0.04 2052
0.22 0.07 0.86 -0.81 10.12 0.05 -0.01 0.04 2058
0.28 0.02 0.94 -0.82 10.09 0.06 0.00 0.04 2064
0.30 0.02 1.10 -0.93 10.24 0.07 0.03 0.04 2071
0.34 -0.01 0.97 -0.89 10.09 0.09 0.03 0.05 2077
0.37 -0.02 1.07 -1.32 10.25 0.12 0.05 0.04 2083
0.41 -0.02 1.02 -0.89 10.29 0.16 0.08 0.03 2089
0.46 -0.03 1.06 -1.03 10.31 0.22 0.13 0.02 2096
0.43 -0.02 1.03 -0.97 10.59 0.34 0.23 0.00 2103
0.47 -0.02 0.95 -0.93 10.96 0.54 0.36 -0.00 2109
0.51 -0.03 1.05 -0.87 11.67 0.83 0.54 -0.02 2115
0.54 -0.03 1.01 -1.29 11.30 1.08 0.70 -0.04 2121
0.57 -0.03 1.61 -1.26 12.16 1.47 0.82 -0.04 2127
0.53 -0.04 2.24 -1.69 11.95 1.76 0.82 -0.17 2135
0.52 -0.02 1.06 -1.09 14.70 2.05 0.66 -0.21 2141
0.52 -0.02 1.51 -1.64 14.26 2.26 0.63 -0.22 2147
0.47 -0.02 1.45 -1.87 14.95 2.48 0.51 -0.22 2153
0.47 -0.02 2.36 -2.39 15.04 2.76 0.44 -0.26 2160
0.40 -0.02 2.20 -1.78 14.93 3.03 0.43 -0.32 2166
0.32 -0.02 2.09 -1.94 15.36 3.31 0.39 -0.36 2172
0.26 -0.02 1.59 -1.99 16.43 3.62 0.36 -0.36 2179
0.20 -0.02 1.82 -1.92 16.94 4.01 0.42 -0.34 2185
0.18 -0.01 2.53 -2.45 17.82 4.24 0.43 -0.34 2192
0.14 -0.01 3.11 -2.83 18.50 4.28 0.40 -0.35 2198
0.12 -0.01 3.29 -3.96 20.08 4.28 0.39 -0.40 2204
0.15 -0.01 3.69 -5.19 19.42 4.28 0.44 -0.44 2210
0.13 -0.01 4.24 -6.14 19.30 4.28 0.45 -0.46 2216
0.12 -0.01 4.19 -6.96 21.70 4.28 0.69 -0.40 2224
0.12 -0.00 4.56 -7.47 22.57 4.28 0.94 -0.36 2230
0.07 -0.01 5.66 -6.67 24.25 4.28 0.93 -0.40 2236
0.07 -0.01 6.09 -5.62 26.29 4.27 0.82 -0.51 2242
0.06 -0.00 4.36 -4.10 25.64 4.22 0.71 -0.64 2248
0.07 -0.01 3.44 -2.42 23.76 4.11 0.60 -0.74 2255
0.08 -0.01 2.64 -0.04 21.29 3.99 0.40 -0.78 2262
0.07 -0.01 2.33 3.60 17.63 3.91 0.09 -0.81 2268
0.07 -0.01 2.20 9.75 16.78 3.71 -0.15 -0.85 2274
0.06 -0.01 2.85 22.67 15.70 3.21 -0.34 -0.97 2280
0.05 -0.01 2.41 22.18 11.91 2.34 -0.45 -1.29 2286
0.05 -0.01 5.27 18.34 13.60 1.35 -0.74 -1.48 2293
0.06 -0.01 4.79 20.11 14.00 0.26 -0.55 -1.51 2299
0.06 -0.01 4.34 19.73 11.47 -0.53 -0.13 -1.58 2306
0.06 -0.01 3.76 17.29 8.63 -0.87 0.07 -1.70 2312
0.04 -0.00 2.99 13.83 6.96 -1.05 0.14 -1.79 2318
0.04 0.00 2.34 13.01 5.07 -1.19 0.14 -1.81 2325
0.05 -0.00 1.46 12.43 5.03 -1.27 0.11 -1.79 2331
0.04 -0.00 1.70 11.84 4.60 -1.32 0.07 -1.71 2337
0.06 -0.01 1.95 10.98 5.13 -1.41 -0.01 -1.65 2343
0.04 -0.00 2.38 10.50 5.95 -1.52 -0.07 -1.51 2350
0.05 -0.00 2.83 10.17 6.77 -1.67 -0.12 -1.34 2356
0.04 -0.00 3.14 9.79 7.50 -1.86 -0.14 -1.15 2363
0.06 -0.01 3.33 9.13 7.81 -2.07 -0.13 -0.95 2369
0.04 -0.00 3.53 8.35 8.30 -2.27 -0.07 -0.75 2375
0.04 -0.00 3.76 7.39 8.80 -2.48 0.00 -0.56 2381
0.04 -0.00 3.83 6.51 9.43 -2.68 0.13 -0.38 2387
0.06 -0.01 3.78 5.30 9.82 -2.85 0.27 -0.26 2394
0.05 -0.00 3.52 4.12 10.12 -2.99 0.42 -0.13 2400
0.04 -0.00 3.15 3.04 10.54 -3.12 0.55 -0.02 2406
0.04 -0.00 2.72 1.84 11.01 -3.23 0.65 0.05 2413
0.05 -0.00 2.39 0.73 11.61 -3.27 0.72 0.09 2419
0.05 -0.00 2.05 -0.12 12.14 -3.31 0.75 0.13 2425
0.04 -0.00 1.65 -0.89 12.75 -3.33 0.76 0.15 2432
0.05 -0.00 1.38 -1.40 13.07 -3.35 0.75 0.16 2438
0.04 -0.00 1.27 -1.93 13.40 -3.36 0.74 0.17 2444
0.03 -0.00 1.19 -2.33 13.82 -3.36 0.72 0.18 2450
0.04 -0.00 1.15 -2.75 14.20 -3.36 0.71 0.17 2457
0.04 -0.00 1.15 -3.22 14.38 -3.37 0.73 0.16 2463
0.03 -0.00 1.10 -3.76 14.63 -3.37 0.76 0.12 2469
0.04 0.00 0.92 -4.10 14.79 -3.36 0.78 0.08 2476
0.04 -0.00 0.73 -4.30 15.22 -3.33 0.79 0.04 2482
0.04 -0.00 0.71 -4.54 15.75 -3.30 0.80 -0.00 2488
0.04 -0.00 0.71 -4.72 16.19 -3.27 0.83 -0.03 2495
0.05 -0.00 0.68 -4.90 16.48 -3.28 0.84 -0.06 2501
0.03 -0.00 0.60 -5.12 16.78 -3.28 0.83 -0.08 2507
0.03 -0.00 0.57 -5.52 17.07 -3.30 0.81 -0.09 2513
0.04 -0.00 0.64 -6.01 17.06 -3.31 0.76 -0.07 2520
0.04 -0.00 0.72 -6.58 16.79 -3.30 0.70 -0.05 2526
0.04 -0.00 0.92 -7.20 16.30 -3.28 0.63 -0.02 2532
0.04 0.00 1.74 -7.79 15.69 -3.23 0.56 0.01 2539
0.04 0.00 1.40 -8.18 15.10 -3.14 0.48 0.03 2545
0.04 -0.00 1.64 -8.40 14.59 -3.01 0.41 0.05 2551
0.03 -0.00 1.84 -8.53 14.08 -2.86 0.34 0.05 2557
0.05 -0.00 1.80 -8.94 14.16 -2.67 0.27 0.05 2564
0.04 -0.00 1.98 -9.47 14.11 -2.47 0.23 0.06 2570
0.03 -0.00 2.00 -9.82 13.96 -2.25 0.20 0.06 2577
0.04 -0.00 2.01 -10.06 13.62 -2.01 0.19 0.07 2583
0.04 -0.00 2.21 -10.25 12.61 -1.80 0.22 0.11 2589
0.04 -0.00 1.85 -10.72 13.14 -1.57 0.31 0.19 2595
0.05 -0.01 1.82 -11.43 12.49 -1.31 0.47 0.31 2601
0.04 -0.00 1.64 -12.32 12.46 -1.08 0.63 0.44 2609
0.04 -0.00 0.97 -12.70 12.72 -0.91 0.74 0.58 2615
0.05 -0.01 -0.22 -13.03 12.74 -0.81 0.86 0.74 2621
0.05 -0.00 -1.82 -13.17 12.94 -0.80 0.94 0.92 2627
0.05 -0.00 -2.97 -13.75 13.39 -0.88 0.96 1.09 2633
0.05 -0.00 -3.46 -14.61 13.34 -1.04 0.84 1.19 2640
0.04 -0.00 -3.50 -15.46 12.85 -1.27 0.62 1.27 2647
0.04 0.00 -3.17 -16.06 10.77 -1.50 0.40 1.31 2653
0.04 -0.00 -2.49 -16.68 9.58 -1.68 0.27 1.30 2659
0.03 -0.00 -2.05 -17.70 7.39 -1.77 0.26 1.26 2665
0.05 0.00 -1.94 -20.71 4.86 -1.70 0.34 1.18 2672
0.04 -0.00 -4.15 -24.19 21.14 -0.79 0.04 0.99 2678
0.03 -0.00 -3.24 -22.36 -1.46 -0.53 0.15 0.86 2684
0.04 -0.00 -3.10 -20.99 -4.72 0.15 -0.02 0.61 2691
0.04 -0.00 -4.93 -26.82 2.31 0.72 -0.28 0.39 2697
0.04 -0.00 -6.09 -26.20 0.57 1.43 -0.69 0.20 2703
0.04 0.00 -6.70 -25.04 4.49 2.01 -1.19 0.03 2710
0.05 0.00 -5.56 -24.64 2.08 2.41 -1.60 -0.12 2716
0.04 0.05 -5.90 -25.67 -0.00 2.67 -2.13 -0.14 2722
0.03 0.20 -2.09 -12.08 3.83 3.10 -2.21 -0.04 2728
0.02 0.39 1.47 -1.26 11.94 3.91 -1.83 0.04 2735
0.01 0.62 -1.71 -6.00 29.45 4.28 -2.00 -0.02 2742
0.01 0.82 -2.96 -0.60 29.14 4.28 -2.12 -0.19 2748
0.01 0.95 1.44 -3.66 29.59 4.13 -1.96 -0.34 2754
0.01 0.96 -0.23 -1.60 30.22 1.06 -1.94 -0.01 2760
-0.00 1.10 -0.64 -5.53 12.11 -0.01 -0.32 0.13 2767
-0.00 1.18 0.14 -3.65 10.77 -0.10 -0.09 0.05 2774
0.00 1.15 0.48 -1.16 10.75 -0.03 -0.07 0.08 2780
0.01 1.10 0.70 -0.11 10.00 0.02 -0.04 0.09 2786
0.01 1.05 0.69 -0.45 9.85 0.03 -0.03 0.08 2792
0.02 1.01 0.71 -0.74 9.92 0.02 -0.03 0.08 2798
0.03 1.07 0.83 -0.86 9.90 0.00 -0.02 0.09 2805
0.02 1.10 0.61 -1.02 10.00 -0.01 -0.02 0.10 2811
0.01 1.10 0.58 -1.00 10.08 -0.02 -0.01 0.08 2818
0.02 1.09 0.71 -0.92 10.01 -0.03 -0.01 0.08 2824
0.01 1.08 0.76 -0.81 9.97 -0.03 -0.01 0.07 2830
0.01 1.11 0.71 -0.80 10.05 -0.03 -0.02 0.07 2836
0.03 1.19 0.66 -0.84 10.01 -0.03 -0.02 0.06 2843
0.01 1.21 0.63 -0.80 10.00 -0.03 -0.01 0.07 2849
0.00 1.22 0.66 -0.77 10.02 -0.03 -0.00 0.07 2855
0.02 1.22 0.73 -0.74 10.04 -0.02 0.00 0.07 2862
0.01 1.23 0.70 -0.71 9.90 -0.02 0.00 0.06 2868
0.00 1.25 0.67 -0.72 10.03 -0.02 0.01 0.07 2875
0.01 1.23 1.05 -0.65 9.91 -0.01 0.01 0.06 2881
0.02 1.19 0.74 -0.70 9.99 -0.01 0.01 0.06 2887
0.02 1.15 0.74 -0.72 10.03 -0.01 0.00 0.06 2893
0.03 1.16 0.76 -0.71 10.00 -0.00 -0.00 0.06 2899
0.03 1.11 0.76 -0.76 9.99 -0.00 -0.01 0.07 2906
0.02 1.07 0.74 -0.74 9.98 -0.00 -0.02 0.06 2912
0.02 1.04 0.74 -0.74 10.00 -0.00 -0.02 0.07 2919
0.04 1.01 0.60 -0.78 9.99 -0.00 -0.02 0.07 2925
0.03 1.01 0.70 -0.74 10.01 0.00 -0.03 0.07 2931
0.03 0.99 0.74 -0.73 9.99 0.00 -0.03 0.06 2937
0.04 0.97 0.72 -0.75 9.97 0.00 -0.03 0.07 2944
0.05 0.93 0.77 -0.74 10.01 0.01 -0.03 0.07 2950
0.05 0.90 0.71 -0.72 9.94 0.01 -0.03 0.06 2957
0.05 0.88 0.76 -0.73 9.96 0.01 -0.03 0.06 2963
0.06 0.83 0.75 -0.76 9.91 0.00 -0.03 0.06 2969
0.04 0.84 0.76 -0.75 9.95 0.00 -0.03 0.06 2975
0.04 0.82 0.74 -0.74 9.96 0.00 -0.03 0.06 2981
0.06 0.77 0.73 -0.77 9.98 0.00 -0.03 0.06 2988
0.06 0.72 0.73 -0.73 9.92 -0.00 -0.03 0.05 2994
0.05 0.67 0.72 -0.77 9.96 -0.00 -0.03 0.06 3000
0.04 0.69 0.69 -0.75 9.98 -0.00 -0.03 0.06 3007
0.06 0.64 0.74 -0.73 9.96 0.00 -0.03 0.06 3013
0.07 0.64 0.69 -0.76 9.92 -0.03 -0.02 0.06 3019
0.07 0.64 0.73 -0.77 9.92 0.00 -0.02 0.06 3025
0.07 0.66 0.69 -0.77 9.91 0.00 -0.02 0.06 3032
0.07 0.64 0.70 -0.76 10.00 0.00 -0.01 0.06 3038
0.07 0.59 0.74 -0.73 9.97 0.01 -0.02 0.06 3044
0.07 0.56 0.69 -0.83 9.92 0.01 -0.01 0.06 3051
0.09 0.52 0.74 -0.78 9.92 0.01 -0.01 0.06 3057
0.08 0.54 0.78 -0.73 9.99 0.01 -0.01 0.05 3063
0.07 0.53 0.77 -0.76 9.95 0.01 -0.01 0.06 3069
0.09 0.48 0.78 -0.74 9.96 0.01 -0.01 0.05 3076
0.09 0.46 0.74 -0.76 9.94 0.00 -0.01 0.05 3082
0.09 0.40 0.70 -0.76 9.94 0.00 -0.01 0.05 3088
0.09 0.35 0.70 -0.80 9.98 0.00 -0.02 0.05 3095
0.10 0.38 0.99 -0.81 9.99 0.00 -0.01 0.05 3101
0.09 0.35 0.71 -0.78 9.99 0.00 -0.01 0.05 3107
0.08 0.35 0.75 -0.77 9.96 -0.00 -0.01 0.06 3113
0.09 0.34 0.75 -0.80 9.91 -0.00 -0.01 0.05 3120
0.12 0.34 0.76 -0.81 10.01 -0.01 -0.00 0.05 3126
0.11 0.32 0.75 -0.73 9.86 -0.00 -0.00 0.05 3132
0.12 0.28 0.76 -0.80 9.92 -0.01 -0.00 0.05 3138
0.15 0.27 0.73 -0.76 9.98 -0.00 0.00 0.04 3145
0.15 0.24 0.77 -0.78 9.98 -0.00 0.00 0.05 3151
0.15 0.24 0.81 -0.72 9.95 0.00 0.01 0.05 3158
0.15 0.22 0.79 -0.76 9.96 -0.00 0.00 0.05 3164
0.17 0.21 0.82 -0.75 10.00 0.00 0.00 0.05 3170
0.21 0.15 0.83 -0.78 9.95 0.01 0.00 0.05 3176
0.21 0.10 0.72 -0.78 10.12 0.01 0.00 0.05 3182
0.24 0.08 0.81 -0.78 10.07 0.02 0.01 0.05 3189
0.23 0.03 0.77 -0.80 10.10 0.03 0.01 0.05 3195
0.24 0.03 0.85 -0.84 10.04 0.03 0.02 0.05 3202
0.25 0.06 0.73 -0.60 9.91 0.04 0.03 0.06 3208
0.26 0.02 0.85 -0.74 10.13 0.05 0.03 0.07 3214
0.28 0.00 0.83 -0.92 10.08 0.07 0.04 0.06 3220
0.32 -0.01 0.74 -0.80 10.73 0.08 0.05 0.06 3227
0.35 -0.03 1.05 -0.73 10.18 0.11 0.06 0.08 3233
0.39 -0.03 1.10 -0.99 10.12 0.15 0.09 0.07 3239
0.42 -0.02 0.83 -0.83 10.37 0.22 0.16 0.07 3246
0.45 -0.04 0.88 -0.94 10.55 0.31 0.21 0.06 3252
0.50 -0.04 1.01 -0.84 10.75 0.48 0.32 0.05 3259
0.51 -0.03 1.01 -0.91 11.38 0.74 0.47 0.03 3265
0.51 -0.04 0.90 -0.97 11.46 1.09 0.62 -0.03 3271
0.48 -0.03 1.23 -1.12 13.10 1.50 0.69 -0.04 3277
0.49 -0.02 1.40 -1.15 14.77 1.94 0.67 -0.08 3283
0.46 -0.03 1.44 -1.32 15.76 2.31 0.56 -0.12 3291
0.46 -0.02 1.99 -1.61 16.00 2.67 0.42 -0.18 3297
0.43 -0.02 2.60 -1.51 16.18 2.99 0.27 -0.30 3303
0.41 -0.03 2.30 -1.42 16.46 3.31 0.17 -0.40 3309
0.35 -0.00 2.11 -2.03 16.78 3.63 0.10 -0.46 3316
0.26 -0.01 2.23 -1.77 17.75 4.00 0.03 -0.49 3322
0.19 -0.00 3.30 -2.01 17.73 4.24 -0.08 -0.52 3329
0.18 -0.00 3.07 -2.36 20.33 4.28 -0.30 -0.69 3335
0.16 -0.01 2.41 -3.11 18.41 4.28 -0.34 -0.57 3341
0.11 0.00 2.82 -4.06 19.78 4.28 -0.06 -0.56 3348
0.11 -0.00 2.27 -5.74 25.56 4.28 0.08 -0.52 3354
0.07 -0.01 1.51 -6.45 22.82 4.28 0.12 -0.45 3360
0.06 -0.01 4.86 -7.37 27.09 4.28 -0.01 -0.47 3366
0.07 -0.01 6.18 -6.83 26.52 4.28 -0.29 -0.63 3373
0.05 -0.01 5.36 -4.41 26.01 4.28 -0.63 -0.80 3380
0.08 -0.01 4.22 -3.67 25.62 4.28 -0.90 -0.93 3386
0.09 -0.01 4.83 -3.25 25.56 4.26 -1.23 -0.97 3392
0.07 -0.01 5.49 -1.49 22.91 4.16 -1.63 -1.01 3398
0.05 -0.01 5.83 3.06 20.47 4.18 -1.51 -1.00 3404
0.06 -0.01 6.01 10.14 14.26 4.08 -1.40 -0.91 3410
0.05 -0.00 6.04 16.56 10.86 3.70 -1.47 -0.96 3418
0.06 -0.01 6.07 28.49 7.87 3.06 -1.27 -1.05 3424
0.06 -0.01 7.02 15.55 5.88 2.04 -0.96 -1.12 3430
0.07 -0.01 8.01 15.53 12.94 1.01 -0.80 -1.08 3436
0.05 -0.01 6.99 17.82 11.26 0.08 -0.38 -1.02 3442
0.06 -0.01 5.34 15.81 8.56 -0.41 0.03 -1.07 3449
0.04 -0.00 4.26 13.25 6.27 -0.66 0.22 -1.07 3456
0.05 -0.00 3.31 11.20 5.20 -0.82 0.28 -1.06 3462
0.05 -0.00 2.32 10.62 3.95 -0.92 0.24 -1.02 3468
0.05 -0.01 1.76 10.27 3.51 -0.99 0.15 -0.96 3474
0.05 -0.00 1.62 9.68 4.12 -1.06 0.05 -0.89 3480
0.06 -0.01 1.84 8.88 4.83 -1.12 -0.03 -0.79 3486
0.07 -0.01 2.13 8.51 5.53 -1.21 -0.07 -0.68 3493
0.05 -0.01 2.54 8.35 6.06 -1.33 -0.07 -0.55 3500
0.05 -0.00 2.85 8.20 6.39 -1.50 -0.02 -0.47 3506
0.05 -0.00 3.07 7.73 6.79 -1.71 0.09 -0.36 3512
0.05 -0.01 3.13 7.12 7.24 -1.95 0.24 -0.25 3518
0.05 -0.00 3.10 6.38 7.66 -2.18 0.40 -0.14 3524
0.03 -0.00 2.89 5.67 8.22 -2.36 0.55 -0.05 3530
0.04 -0.00 2.66 4.98 8.82 -2.56 0.66 0.02 3536
0.05 -0.01 2.38 4.44 9.36 -2.73 0.79 0.08 3543
0.04 -0.00 2.08 3.78 9.85 -2.90 0.89 0.12 3549
0.03 -0.00 1.81 3.09 10.53 -3.06 0.98 0.13 3556
0.04 -0.00 1.75 2.25 11.38 -3.21 1.06 0.12 3562
0.04 -0.00 1.60 1.38 12.05 -3.37 1.13 0.10 3568
0.04 -0.00 1.38 0.62 12.76 -3.47 1.18 0.06 3574
0.05 -0.00 1.12 -0.06 13.41 -3.59 1.22 0.02 3580
0.05 -0.01 0.87 -1.21 13.93 -3.67 1.23 -0.01 3587
0.04 -0.00 0.62 -1.23 14.19 -3.72 1.23 -0.02 3594
0.04 -0.00 0.45 -2.04 14.45 -3.74 1.21 -0.03 3600
0.06 -0.01 0.39 -2.87 14.79 -3.75 1.19 -0.02 3606
0.04 -0.00 0.52 -3.44 15.07 -3.74 1.18 -0.01 3612
0.03 -0.00 0.60 -4.05 15.42 -3.73 1.16 0.02 3618
0.04 -0.00 0.67 -4.46 15.81 -3.72 1.15 0.05 3624
0.04 -0.00 0.73 -4.81 16.02 -3.69 1.15 0.10 3631
0.04 -0.00 0.74 -5.12 16.16 -3.64 1.14 0.16 3638
0.04 0.00 0.76 -5.30 16.30 -3.57 1.12 0.24 3644
0.05 -0.00 0.87 -5.53 16.38 -3.49 1.09 0.30 3650
0.04 -0.00 1.00 -5.83 17.16 -3.39 1.05 0.39 3656
0.04 -0.00 1.18 -6.16 16.72 -3.30 1.00 0.48 3662
0.06 -0.01 1.42 -6.50 16.87 -3.20 0.93 0.55 3668
0.04 -0.00 1.46 -6.98 16.83 -3.09 0.86 0.62 3676
0.04 -0.00 1.52 -7.68 16.62 -2.99 0.76 0.66 3682
0.05 -0.01 1.63 -8.42 16.31 -2.89 0.66 0.70 3688
0.04 -0.00 1.87 -9.25 15.80 -2.78 0.55 0.72 3694
0.04 -0.00 2.06 -9.82 15.11 -2.61 0.47 0.72 3700
0.05 0.01 2.21 -10.30 14.61 -2.41 0.38 0.72 3706
0.05 -0.01 2.49 -10.75 14.09 -2.19 0.36 0.72 3714
0.04 -0.00 2.61 -11.01 13.67 -1.96 0.39 0.72 3720
0.06 -0.01 2.52 -11.05 13.40 -1.71 0.46 0.74 3726
0.05 -0.00 2.29 -10.98 13.36 -1.47 0.52 0.79 3732
0.04 0.00 1.95 -11.02 14.09 -1.25 0.56 0.85 3739
0.05 -0.01 1.47 -11.21 13.65 -1.07 0.56 0.93 3745
0.05 -0.00 0.88 -11.51 13.83 -0.93 0.48 1.03 3751
0.05 -0.00 0.63 -11.60 13.72 -0.84 0.35 1.14 3758
0.05 -0.00 0.42 -11.87 13.29 -0.80 0.21 1.24 3764
0.04 -0.00 0.44 -12.00 12.27 -0.78 0.10 1.34 3771
0.05 0.00 0.15 -11.83 10.76 -0.77 0.13 1.45 3777
0.05 -0.00 -0.21 -11.71 9.45 -0.78 0.41 1.62 3783
0.04 -0.00 -0.80 -12.18 9.24 -0.78 0.90 1.83 3789
0.05 0.00 -1.22 -13.55 9.73 -0.79 1.30 1.97 3795
0.05 -0.01 -2.38 -14.87 10.11 -0.84 1.34 2.00 3803
0.04 -0.00 -2.71 -15.70 9.77 -0.90 1.15 1.93 3809
0.05 -0.00 -3.33 -16.14 8.80 -0.94 0.87 1.80 3815
0.05 -0.01 -3.42 -16.22 7.41 -0.97 0.55 1.64 3821
0.04 -0.00 -3.25 -16.29 5.62 -0.94 0.31 1.51 3827
0.05 0.01 -3.31 -18.24 4.43 -0.83 0.15 1.31 3833
0.05 -0.00 -4.46 -21.31 21.48 0.06 -0.27 0.95 3841
0.04 -0.00 -3.64 -16.57 0.33 0.20 -0.36 0.69 3847
0.04 -0.00 -4.62 -19.11 6.00 0.98 -0.71 0.29 3853
0.04 -0.00 -3.12 -19.74 0.36 1.28 -0.87 -0.08 3859
0.04 -0.00 -2.59 -20.99 3.76 1.62 -1.18 -0.45 3865
0.04 -0.00 -2.74 -19.17 5.62 2.01 -1.46 -0.72 3871
0.05 -0.00 -3.28 -18.61 3.34 2.27 -1.74 -0.87 3878
0.05 0.00 -4.01 -18.81 3.80 2.51 -2.05 -0.83 3885
0.04 0.06 -1.31 -11.69 5.92 2.80 -2.19 -0.57 3891
0.04 0.17 4.18 1.49 14.57 3.32 -1.93 -0.38 3897
0.01 0.44 0.77 -5.74 23.85 3.87 -1.92 -0.25 3904
0.02 0.58 -1.04 -1.90 30.07 3.94 -1.81 -0.15 3910
0.01 0.70 1.15 -4.75 58.35 3.46 -2.12 -0.20 3916
0.00 0.77 0.07 0.99 11.06 -0.03 -0.52 0.11 3922
0.01 0.84 -1.20 -2.57 11.78 -0.15 -0.08 0.10 3929
-0.01 0.93 -1.18 -3.65 12.16 -0.10 -0.11 -0.05 3936
0.00 0.97 1.22 -1.61 10.72 -0.06 -0.04 0.00 3942
0.02 0.95 1.10 -0.39 10.00 0.01 -0.00 0.11 3948
0.02 0.97 0.49 -0.44 10.00 0.02 0.00 0.11 3954
0.02 0.92 0.36 -0.56 9.88 -0.03 -0.01 0.08 3960
0.03 0.92 0.85 -0.71 9.84 -0.01 -0.01 0.07 3966
0.01 0.92 0.97 -0.90 9.93 -0.02 -0.00 0.09 3974
0.02 0.96 0.73 -0.97 10.16 -0.03 0.00 0.10 3980
0.02 0.99 0.60 -0.83 10.06 -0.03 -0.00 0.08 3986
0.03 0.98 0.69 -0.76 9.97 -0.04 -0.00 0.07 3992
0.04 0.95 0.69 -0.79 9.97 -0.04 -0.00 0.07 3998
0.03 1.03 0.67 -0.75 10.01 -0.04 -0.01 0.08 4004
0.03 1.06 0.60 -0.71 9.93 -0.04 -0.00 0.07 4012
0.01 1.14 0.63 -0.70 10.03 -0.04 0.00 0.07 4018
0.01 1.18 0.63 -0.70 10.08 -0.04 0.02 0.07 4024
0.03 1.19 0.74 -0.68 10.15 -0.04 0.01 0.07 4030
0.02 1.20 0.74 -0.66 10.02 -0.03 0.02 0.07 4036
0.01 1.21 0.72 -0.63 10.03 -0.03 0.03 0.07 4042
0.02 1.25 0.70 -1.22 10.05 -0.02 0.03 0.07 4049
0.01 1.24 0.67 -0.64 10.03 -0.01 0.02 0.07 4056
0.01 1.22 0.75 -0.61 10.07 -0.01 0.02 0.07 4062
0.03 1.19 0.77 -0.63 9.96 -0.00 0.01 0.07 4068
0.02 1.16 0.80 -0.66 10.00 -0.00 0.01 0.06 4074
0.01 1.18 0.77 -0.68 9.98 -0.00 -0.00 0.07 4080
0.02 1.14 0.78 -0.69 10.03 0.00 -0.00 0.07 4087
0.02 1.12 0.63 -0.61 9.90 0.01 -0.01 0.07 4093
0.01 1.10 0.76 -0.66 9.98 0.01 -0.01 0.07 4100
0.03 1.07 0.76 -0.67 10.06 0.00 -0.01 0.07 4106
0.02 1.06 0.75 -0.62 10.02 0.01 -0.01 0.07 4112
0.03 1.00 0.77 -0.63 9.99 0.01 -0.01 0.07 4118
0.02 0.96 0.76 -0.63 9.94 0.01 -0.02 0.07 4125
0.03 0.94 0.80 -0.65 9.90 0.01 -0.02 0.06 4131
0.03 0.90 0.79 -0.65 9.95 0.01 -0.02 0.06 4137
0.02 0.89 0.77 -0.64 9.96 0.01 -0.01 0.06 4144
0.04 0.89 0.82 -0.65 9.97 0.01 -0.02 0.06 4150
0.03 0.87 0.72 -0.68 10.01 0.01 -0.02 0.06 4156
0.03 0.81 0.73 -0.65 10.04 0.00 -0.02 0.05 4162
0.04 0.82 0.72 -0.69 10.01 0.00 -0.02 0.05 4169
0.04 0.76 0.72 -0.66 9.90 0.00 -0.02 0.06 4175
0.04 0.73 0.73 -0.67 9.98 -0.00 -0.02 0.05 4182
0.04 0.74 0.71 -0.67 9.98 0.00 -0.02 0.06 4188
0.05 0.74 0.78 -0.65 9.95 0.00 -0.02 0.06 4194
0.04 0.68 0.76 -0.69 9.98 0.00 -0.02 0.06 4200
0.04 0.66 0.75 -0.66 9.93 0.00 -0.02 0.06 4206
0.05 0.66 0.74 -0.62 9.93 0.00 -0.02 0.06 4212
0.05 0.68 0.72 -0.64 9.93 0.00 -0.01 0.06 4219
0.05 0.63 0.76 -0.64 9.97 -0.00 -0.01 0.06 4226
0.05 0.61 0.76 -0.67 9.93 0.00 -0.01 0.06 4232
0.06 0.60 0.79 -0.68 9.93 0.00 -0.01 0.05 4238
0.06 0.60 0.80 -0.64 9.98 -0.03 -0.01 0.06 4244
0.05 0.56 0.77 -0.66 9.88 -0.00 -0.01 0.05 4250
0.05 0.58 0.76 -0.68 9.95 0.00 -0.02 0.05 4256
0.07 0.54 0.83 -0.65 9.97 -0.01 -0.03 0.05 4263
0.05 0.53 0.76 -0.69 9.97 -0.01 -0.03 0.05 4270
0.04 0.52 0.77 -0.70 9.91 -0.01 -0.03 0.05 4276
0.06 0.55 0.76 -0.63 9.94 -0.01 -0.03 0.05 4282
0.07 0.50 0.75 -0.68 9.94 -0.01 -0.03 0.06 4288
0.07 0.45 0.78 -0.66 10.00 -0.01 -0.03 0.06 4294
0.08 0.43 0.77 -0.67 9.96 -0.00 -0.03 0.06 4300
0.09 0.45 0.85 -0.67 9.98 -0.00 -0.03 0.06 4307
0.07 0.45 0.76 -0.66 9.93 0.00 -0.03 0.05 4314
0.08 0.35 0.81 -0.67 9.90 0.00 -0.03 0.05 4320
0.12 0.35 0.78 -0.64 9.89 0.00 -0.02 0.04 4326
0.12 0.34 0.76 -0.64 9.90 0.00 -0.02 0.04 4332
0.14 0.31 0.76 -0.67 10.09 0.01 -0.01 0.04 4338
0.13 0.28 0.81 -0.70 9.97 0.01 -0.00 0.04 4344
0.14 0.25 0.73 -0.67 9.95 0.00 0.00 0.04 4352
0.14 0.23 0.85 -0.66 10.06 0.01 0.01 0.04 4358
0.14 0.21 0.83 -0.83 10.12 0.01 0.02 0.04 4364
0.19 0.18 0.80 -0.69 9.98 0.02 0.02 0.04 4370
0.18 0.15 0.84 -0.70 10.06 0.03 0.02 0.04 4376
0.18 0.11 0.92 -0.68 10.09 0.03 0.02 0.05 4382
0.21 0.08 0.88 -0.68 10.09 0.04 0.02 0.05 4389
0.21 0.06 0.84 -0.65 10.05 0.05 0.03 0.05 4396
0.25 0.03 0.82 -0.67 10.12 0.06 0.03 0.04 4402
0.27 0.04 0.89 -0.83 10.14 0.07 0.04 0.05 4408
0.31 -0.02 0.76 -1.00 10.19 0.10 0.06 0.05 4414
0.31 -0.02 0.77 -0.88 10.20 0.13 0.08 0.04 4420
0.33 0.00 0.82 -0.80 10.23 0.18 0.11 0.03 4427
0.37 -0.03 0.95 -0.91 10.60 0.26 0.18 0.01 4433
0.40 -0.03 1.00 -0.92 11.02 0.42 0.30 -0.00 4440
0.43 -0.02 1.15 -0.83 11.56 0.72 0.49 -0.02 4446
0.43 -0.02 1.25 -0.97 13.30 1.16 0.71 -0.05 4452
0.42 -0.02 1.44 -1.13 13.52 1.74 0.86 -0.11 4459
0.48 -0.03 1.59 -1.20 15.47 2.27 0.81 -0.16 4465
0.47 -0.03 2.07 -1.41 17.04 2.68 0.60 -0.26 4471
0.45 -0.03 2.03 -1.30 15.85 3.00 0.39 -0.36 4477
0.41 -0.03 1.65 -1.26 16.59 3.33 0.25 -0.41 4485
0.36 -0.03 1.78 -1.46 17.74 3.65 0.16 -0.43 4491
0.27 -0.01 1.85 -1.08 17.43 4.05 0.10 -0.43 4497
0.27 -0.02 3.39 -1.41 17.62 4.26 -0.05 -0.46 4503
0.20 -0.01 3.43 -1.72 18.92 4.28 -0.11 -0.68 4509
0.20 -0.01 2.90 -2.75 17.74 4.28 -0.20 -0.55 4516
0.11 -0.01 3.62 -3.08 19.12 4.28 -0.12 -0.58 4523
0.14 -0.00 3.20 -3.85 22.23 4.28 -0.03 -0.62 4529
0.12 -0.00 1.95 -6.05 20.86 4.28 -0.00 -0.57 4535
0.10 -0.01 3.36 -7.28 22.74 4.28 0.19 -0.47 4542
0.09 -0.01 4.19 -7.14 24.17 4.28 0.18 -0.47 4548
0.10 -0.01 5.12 -5.81 24.93 4.28 0.01 -0.60 4554
0.08 -0.01 3.90 -3.95 26.43 4.28 -0.31 -0.76 4560
0.07 -0.01 3.25 -3.12 24.85 4.27 -0.70 -0.83 4567
0.08 -0.00 3.73 -1.05 23.72 4.10 -1.01 -0.82 4573
0.06 -0.01 4.77 1.23 21.35 3.82 -1.31 -0.84 4580
0.07 -0.01 4.67 0.56 17.08 3.82 -1.27 -0.79 4586
0.08 -0.01 4.39 3.47 12.99 3.88 -1.25 -0.72 4592
0.05 -0.01 5.77 14.66 10.80 3.84 -1.47 -0.76 4598
0.09 -0.01 5.17 29.32 8.13 3.47 -1.37 -0.88 4604
0.06 -0.01 4.41 19.68 6.91 2.40 -1.10 -0.97 4611
0.06 -0.01 6.81 15.17 11.34 1.07 -0.88 -0.92 4618
0.05 -0.01 7.51 17.46 12.06 -0.01 -0.50 -0.80 4624
0.06 -0.01 5.66 17.64 10.38 -0.64 -0.01 -0.80 4630
0.05 -0.01 4.37 14.51 8.14 -1.02 0.27 -0.88 4636
0.05 -0.01 3.57 11.47 6.12 -1.20 0.34 -0.95 4642
0.06 -0.01 2.52 9.91 4.43 -1.26 0.28 -0.96 4649
0.04 -0.00 1.66 9.35 3.63 -1.28 0.18 -0.96 4656
0.04 -0.00 1.44 9.12 4.03 -1.31 0.06 -0.94 4662
0.05 -0.00 1.77 8.36 4.70 -1.33 -0.05 -0.91 4668
0.06 -0.01 2.32 7.73 5.68 -1.39 -0.14 -0.85 4674
0.05 -0.01 2.91 7.47 6.59 -1.49 -0.20 -0.79 4680
0.05 -0.01 3.35 7.14 7.15 -1.63 -0.19 -0.71 4686
0.05 -0.00 3.66 6.69 7.72 -1.84 -0.13 -0.61 4692
0.06 -0.01 3.80 6.04 8.11 -2.07 -0.03 -0.51 4699
0.05 -0.00 3.90 5.24 8.61 -2.31 0.07 -0.40 4706
0.04 -0.00 3.92 4.39 8.97 -2.49 0.16 -0.30 4712
0.04 -0.00 3.88 3.57 9.36 -2.67 0.23 -0.22 4718
0.05 -0.00 3.87 2.82 9.65 -2.81 0.32 -0.16 4724
0.04 -0.00 3.92 2.09 9.87 -2.92 0.41 -0.10 4730
0.04 -0.00 3.90 1.34 10.36 -2.99 0.52 -0.05 4737
0.04 -0.00 3.97 0.70 11.09 -3.06 0.64 -0.01 4743
0.04 -0.00 3.95 0.16 11.78 -3.11 0.75 0.03 4749
0.03 -0.00 3.88 -0.28 12.40 -3.18 0.86 0.06 4756
0.05 0.00 3.66 -0.72 12.82 -3.25 0.94 0.10 4762
0.05 -0.01 3.51 -1.28 13.26 -3.33 1.01 0.15 4768
0.05 -0.00 3.40 -2.41 13.60 -3.39 1.06 0.23 4774
0.05 0.00 3.30 -2.45 13.83 -3.43 1.09 0.26 4781
0.06 -0.01 3.20 -3.13 14.12 -3.44 1.13 0.32 4787
0.05 -0.00 3.12 -3.74 14.42 -3.43 1.15 0.38 4794
0.05 -0.01 2.96 -4.19 14.66 -3.41 1.17 0.44 4800
0.05 -0.01 2.86 -4.51 14.88 -3.37 1.19 0.51 4806
0.05 -0.00 2.67 -4.67 15.19 -3.32 1.22 0.58 4812
0.05 -0.00 2.37 -4.82 15.50 -3.28 1.27 0.67 4818
0.06 -0.01 2.08 -4.94 15.64 -3.23 1.31 0.75 4825
0.05 -0.00 1.30 -5.06 15.86 -3.17 1.33 0.84 4832
0.04 -0.00 1.61 -5.26 16.11 -3.10 1.33 0.92 4838
0.06 -0.01 1.26 -5.40 16.38 -3.03 1.30 0.98 4844
0.05 -0.00 1.06 -5.65 16.47 -2.96 1.24 1.04 4850
0.05 -0.01 0.93 -5.96 16.38 -2.88 1.17 1.08 4856
0.06 0.00 0.95 -6.27 16.02 -2.81 1.07 1.11 4862
0.06 -0.01 0.97 -6.57 15.64 -2.71 0.96 1.10 4870
0.05 -0.01 1.07 -6.90 15.13 -2.59 0.85 1.08 4876
0.06 -0.00 1.11 -7.26 14.66 -2.47 0.75 1.05 4882
0.06 -0.01 1.19 -7.63 14.32 -2.30 0.67 0.99 4888
0.06 -0.01 1.40 -8.06 13.98 -2.11 0.61 0.93 4894
0.06 0.00 1.48 -8.49 13.73 -1.90 0.56 0.86 4901
0.06 -0.01 1.49 -8.84 13.71 -1.70 0.50 0.80 4908
0.06 -0.01 0.40 -11.37 14.97 -1.46 0.37 0.76 4914
0.05 -0.01 -1.33 -13.81 18.07 -1.03 -0.15 0.67 4920
0.06 -0.01 -0.30 -9.21 10.52 -0.92 -0.19 0.65 4926
0.06 -0.01 0.44 -9.49 12.22 -0.77 -0.19 0.66 4932
0.06 0.00 0.95 -10.85 10.73 -0.81 -0.01 0.72 4939
0.06 -0.01 0.89 -10.38 13.29 -0.76 0.03 0.76 4945
0.05 -0.00 1.17 -10.23 12.19 -0.83 0.34 0.84 4952
0.06 -0.00 0.40 -11.84 13.06 -0.84 0.59 0.92 4958
0.05 -0.01 -0.32 -12.81 13.25 -0.90 0.71 0.98 4965
0.06 -0.01 -1.29 -13.00 12.55 -1.00 0.79 1.03 4971
0.07 -0.01 -2.13 -13.29 11.72 -1.12 0.84 1.07 4977
0.06 -0.01 -2.47 -14.07 10.88 -1.24 0.80 1.08 4983
0.06 -0.01 -2.56 -15.00 9.83 -1.38 0.65 1.05 4989
0.06 -0.01 -2.41 -15.93 8.82 -1.49 0.48 0.98 4997
0.06 -0.01 -2.21 -16.87 7.51 -1.54 0.38 0.87 5003
0.06 -0.01 -2.81 -21.91 9.31 -1.42 0.19 0.67 5009
0.07 -0.01 -3.53 -22.72 6.94 -1.03 -0.15 0.50 5015
0.05 -0.00 -3.41 -20.77 3.52 -0.65 -0.36 0.22 5021
0.04 -0.00 -2.89 -20.22 2.03 -0.24 -0.49 -0.03 5027
0.05 -0.01 -3.65 -22.58 2.39 0.27 -0.70 -0.27 5035
0.04 -0.00 -4.35 -24.00 2.32 0.74 -1.03 -0.49 5041
0.03 -0.00 -3.90 -23.58 3.06 1.19 -1.41 -0.67 5047
0.04 -0.00 -4.48 -21.92 2.21 1.54 -1.84 -0.81 5053
0.04 0.00 -4.41 -23.92 2.13 1.88 -2.30 -0.81 5059
0.03 0.05 -4.45 -22.13 3.21 2.27 -2.72 -0.57 5066
0.05 0.16 2.54 -2.92 7.94 2.87 -2.49 -0.22 5072
0.03 0.34 1.65 -3.03 15.27 3.59 -2.14 -0.01 5079
0.00 0.58 0.27 -2.15 26.59 4.08 -2.09 0.07 5085
0.02 0.67 -1.24 -1.89 27.01 3.90 -1.92 0.09 5091
0.00 0.72 -1.82 -5.71 61.47 3.61 -1.94 -0.02 5098
0.00 0.77 -1.74 1.70 7.37 0.01 -0.28 0.20 5104
0.02 0.82 -2.03 -2.99 10.93 -0.14 -0.05 0.11 5110
0.01 0.88 -0.88 -3.12 11.67 -0.12 -0.08 -0.04 5116
0.01 0.97 1.12 -1.37 10.43 -0.06 0.01 0.01 5123
0.02 0.92 1.10 -0.25 9.93 -0.01 0.02 0.10 5129
0.02 0.90 0.63 -0.40 9.97 -0.00 0.03 0.11 5136
0.00 0.89 0.24 -0.52 9.91 -0.02 0.01 0.08 5142
0.03 0.87 0.72 -0.74 9.96 -0.03 0.01 0.06 5148
0.02 0.88 1.03 -0.89 9.99 -0.04 0.00 0.08 5154
0.02 0.92 0.78 -0.93 10.14 -0.05 0.00 0.09 5160
0.01 0.99 0.62 -0.81 10.10 -0.05 -0.00 0.09 5167
0.02 0.98 0.74 -0.70 10.13 -0.05 -0.01 0.07 5174
0.00 1.02 0.68 -0.67 10.00 -0.05 -0.00 0.07 5180
0.01 1.07 0.63 -0.69 10.01 -0.05 -0.01 0.07 5186
0.01 1.08 0.56 -0.67 9.93 -0.04 -0.01 0.07 5192
0.00 1.14 0.55 -0.63 10.05 -0.04 0.00 0.07 5198
0.01 1.14 0.67 -0.62 10.05 -0.04 0.01 0.07 5204
0.01 1.13 0.68 -0.58 9.99 -0.03 0.01 0.07 5212
0.00 1.17 -0.01 -0.98 5.87 -0.03 0.01 0.06 5218
-0.01 1.18 0.72 -0.57 10.03 -0.02 0.01 0.06 5224
0.02 1.14 0.71 -0.65 10.02 -0.02 0.02 0.06 5230
0.01 1.11 0.63 -0.64 10.07 -0.01 0.02 0.06 5236
0.01 1.13 0.63 -0.63 10.09 -0.00 0.01 0.07 5242
0.03 1.10 0.67 -0.58 10.02 -0.00 0.00 0.07 5250
0.02 1.10 0.67 -0.62 10.04 0.00 0.01 0.07 5256
0.01 1.08 0.73 -0.50 10.03 0.00 -0.00 0.07 5262
0.03 1.06 0.72 -0.63 10.02 0.03 -0.01 0.08 5268
0.02 1.02 0.69 -0.60 9.95 0.00 -0.01 0.07 5274
0.01 0.99 0.72 -0.63 9.98 -0.00 -0.02 0.08 5280
0.02 0.98 0.70 -0.60 9.96 0.00 -0.03 0.07 5286
0.03 0.97 0.73 -0.59 9.92 0.00 -0.03 0.07 5294
0.03 0.95 0.71 -0.62 9.98 0.00 -0.04 0.07 5300
0.03 0.94 0.75 -0.58 9.93 0.00 -0.04 0.07 5306
0.04 0.92 0.69 -0.60 9.97 0.00 -0.05 0.06 5312
0.03 0.89 0.70 -0.62 9.92 0.00 -0.05 0.06 5318
0.03 0.88 0.68 -0.59 10.00 0.00 -0.05 0.06 5324
0.04 0.84 0.67 -0.62 9.98 -0.00 -0.05 0.05 5330
0.04 0.81 0.60 -0.62 9.96 -0.00 -0.05 0.05 5338
0.03 0.81 0.65 -0.61 9.97 -0.00 -0.04 0.06 5344
0.03 0.79 0.64 -0.62 9.97 -0.00 -0.04 0.06 5350
0.04 0.77 0.68 -0.62 9.99 0.00 -0.03 0.06 5356
0.04 0.78 0.66 -0.61 10.00 0.00 -0.04 0.06 5362
0.03 0.71 0.67 -0.60 9.99 -0.03 -0.04 0.06 5368
0.04 0.69 0.65 -0.62 9.99 0.00 -0.04 0.06 5374
0.05 0.66 0.67 -0.63 9.97 -0.00 -0.04 0.06 5382
0.05 0.68 0.70 -0.06 9.93 0.00 -0.04 0.06 5388
0.03 0.67 0.67 -0.64 9.95 -0.00 -0.03 0.06 5394
0.05 0.67 0.70 -0.60 9.98 -0.00 -0.03 0.06 5400
0.06 0.68 0.66 -0.62 9.94 -0.01 -0.03 0.06 5406
0.05 0.63 0.67 -0.60 9.99 -0.01 -0.02 0.06 5412
0.06 0.63 0.66 -0.60 9.92 -0.01 -0.03 0.06 5419
0.07 0.63 0.70 -0.63 9.95 -0.01 -0.03 0.06 5425
0.05 0.62 0.73 -0.62 9.94 -0.01 -0.03 0.06 5432
0.05 0.62 0.68 -0.63 9.96 -0.01 -0.03 0.06 5438
0.06 0.63 0.61 -0.61 10.02 -0.01 -0.02 0.06 5444
0.06 0.60 0.63 -0.62 9.95 -0.01 -0.02 0.06 5450
0.04 0.58 0.66 -0.61 9.92 -0.01 -0.01 0.06 5456
0.05 0.59 0.61 -0.61 9.99 -0.01 0.00 0.05 5463
0.07 0.60 0.67 -0.61 9.95 -0.00 0.01 0.06 5469
0.06 0.57 0.63 -0.61 9.90 -0.00 0.01 0.06 5476
0.05 0.54 0.66 -0.66 9.92 -0.00 0.02 0.05 5482
0.06 0.51 0.67 -0.66 9.91 -0.00 0.03 0.05 5488
0.07 0.47 0.70 -0.63 9.93 -0.01 0.03 0.05 5494
0.07 0.43 0.66 -0.63 9.94 -0.01 0.03 0.05 5500
0.06 0.42 0.76 -0.60 9.91 -0.01 0.03 0.05 5507
0.08 0.39 0.73 -0.59 10.02 -0.01 0.02 0.05 5513
0.08 0.37 0.69 -0.55 9.93 -0.01 0.02 0.05 5520
0.11 0.33 0.86 -0.61 9.99 -0.00 0.01 0.05 5526
0.13 0.35 0.79 -0.56 10.06 0.00 0.00 0.05 5532
0.15 0.32 0.77 -0.58 10.04 0.01 -0.00 0.05 5538
0.15 0.27 0.77 -0.55 10.12 0.02 -0.00 0.06 5544
0.15 0.20 0.77 -0.68 10.21 0.03 0.00 0.06 5551
0.19 0.13 0.70 -0.63 10.08 0.04 0.01 0.06 5558
0.21 0.07 0.70 -0.59 10.07 0.05 0.01 0.07 5564
0.22 0.05 0.77 -0.66 10.15 0.06 0.02 0.06 5570
0.23 0.03 0.80 -0.76 10.13 0.09 0.04 0.06 5576
0.26 -0.01 0.69 -0.73 10.20 0.11 0.05 0.07 5582
0.27 0.01 1.01 -1.03 10.21 0.15 0.08 0.06 5590
0.30 -0.02 0.84 -0.93 10.22 0.24 0.13 0.06 5596
0.32 -0.02 0.74 -0.66 11.10 0.36 0.25 0.04 5602
0.34 -0.01 0.87 -0.69 11.58 0.61 0.39 0.02 5608
0.34 -0.02 1.08 -1.08 12.64 1.06 0.57 -0.02 5614
0.30 -0.02 1.71 -0.96 14.51 1.70 0.74 -0.08 5621
0.31 -0.02 2.06 -0.91 17.49 2.39 0.72 -0.23 5627
0.29 -0.02 2.64 -1.03 18.39 2.93 0.44 -0.36 5634
0.27 -0.02 2.01 -1.00 18.02 3.37 0.12 -0.48 5640
0.25 -0.02 2.44 -1.04 18.67 3.75 -0.05 -0.52 5646
0.23 -0.02 2.74 -1.14 18.80 4.11 -0.12 -0.57 5653
0.17 -0.01 3.54 -1.62 19.26 4.27 -0.25 -0.62 5659
0.16 0.00 3.27 -3.00 17.45 4.28 -0.35 -0.79 5665
0.15 -0.00 2.83 -2.28 18.10 4.28 -0.44 -0.79 5671
0.12 0.01 2.00 -3.43 19.30 4.28 -0.22 -0.76 5678
0.13 -0.01 2.29 -4.56 19.41 4.28 -0.14 -0.74 5685
0.09 0.00 4.83 -5.39 24.25 4.28 -0.16 -0.77 5691
0.11 0.01 6.46 -5.48 26.19 4.28 -0.26 -0.84 5697
0.11 0.00 7.18 -6.43 27.29 4.28 -0.39 -1.00 5703
0.09 0.01 5.80 -3.97 27.01 4.28 -0.56 -1.17 5710
0.12 0.00 4.28 -2.94 26.26 4.28 -0.76 -1.26 5716
0.08 -0.01 5.32 -0.63 25.83 4.13 -1.08 -1.31 5723
0.06 -0.01 5.14 2.17 22.92 3.81 -1.38 -1.35 5729
0.07 -0.01 4.71 6.46 18.71 3.84 -1.37 -1.37 5735
0.05 -0.00 6.82 14.20 12.97 3.69 -1.41 -1.25 5742
0.04 -0.00 5.77 19.47 7.71 3.21 -1.51 -1.20 5748
0.04 -0.00 5.67 24.45 6.27 2.41 -1.32 -1.16 5754
0.04 -0.00 8.53 16.09 4.57 1.48 -0.94 -1.08 5761
0.04 -0.00 9.66 16.19 11.24 0.46 -0.42 -0.96 5767
0.04 -0.00 7.87 17.39 9.68 -0.34 0.18 -0.87 5773
0.04 -0.00 5.75 14.72 6.85 -0.73 0.61 -0.89 5780
0.03 -0.00 4.25 11.37 4.47 -0.85 0.77 -0.90 5786
0.06 -0.01 2.82 10.00 2.62 -0.95 0.70 -0.86 5792
0.05 -0.00 1.25 9.61 2.17 -0.97 0.60 -0.79 5798
0.04 -0.00 0.46 8.85 2.98 -0.93 0.40 -0.70 5805
0.05 -0.01 0.74 8.15 3.49 -0.89 0.19 -0.59 5811
0.06 -0.01 1.57 7.78 4.42 -0.90 0.03 -0.47 5817
0.04 -0.00 2.30 8.31 5.19 -0.98 -0.05 -0.35 5823
0.04 -0.00 2.61 8.27 5.97 -1.12 -0.04 -0.25 5829
0.04 -0.00 2.85 7.40 6.72 -1.32 -0.02 -0.14 5836
0.06 -0.01 3.06 7.47 7.39 -1.55 0.08 -0.06 5842
0.06 -0.01 3.06 6.74 7.99 -1.77 0.17 0.02 5849
0.06 -0.01 2.88 5.84 8.41 -1.96 0.27 0.09 5855
0.05 -0.00 2.76 5.04 8.82 -2.14 0.34 0.15 5861
0.05 -0.00 2.69 4.35 9.21 -2.25 0.41 0.19 5867
0.04 -0.00 2.71 3.70 9.71 -2.38 0.47 0.22 5873
0.05 -0.00 2.79 3.14 10.16 -2.50 0.54 0.23 5879
0.04 -0.00 2.84 2.54 10.58 -2.62 0.63 0.22 5885
0.05 -0.00 2.80 1.85 11.06 -2.72 0.73 0.21 5893
0.05 -0.01 2.78 1.10 11.54 -2.82 0.85 0.19 5899
0.04 -0.00 2.60 0.43 12.02 -2.90 0.95 0.17 5905
0.06 -0.01 2.46 -0.03 13.04 -2.96 1.00 0.16 5911
0.05 -0.00 2.27 -0.77 12.91 -3.01 1.03 0.17 5917
0.04 -0.00 2.22 -1.39 13.39 -3.05 1.03 0.18 5923
0.05 -0.00 2.27 -1.93 13.80 -3.07 1.03 0.21 5931
0.05 -0.00 2.32 -3.02 14.23 -3.08 1.02 0.24 5937
0.04 -0.00 2.26 -2.84 14.72 -3.09 1.02 0.30 5943
0.05 -0.00 2.22 -3.19 15.31 -3.10 1.04 0.36 5949
0.05 -0.00 2.10 -3.57 15.84 -3.11 1.08 0.43 5955
0.04 -0.00 1.98 -4.01 16.18 -3.14 1.11 0.49 5961
0.03 -0.00 1.86 -4.50 16.39 -3.16 1.12 0.55 5967
0.05 -0.00 1.77 -4.84 16.54 -3.17 1.11 0.61 5975
0.04 -0.00 1.65 -5.24 16.49 -3.15 1.09 0.67 5981
0.03 -0.00 1.66 -5.60 16.38 -3.11 1.04 0.72 5987
0.04 -0.00 1.74 -5.92 16.08 -3.06 0.98 0.76 5993
0.04 -0.00 1.88 -6.27 15.75 -2.98 0.92 0.78 5999
0.04 -0.00 2.02 -6.60 15.42 -2.89 0.86 0.80 6005
0.04 -0.00 2.10 -6.88 15.14 -2.77 0.79 0.80 6012
0.05 -0.00 2.03 -7.17 14.74 -2.64 0.74 0.79 6019
0.04 -0.00 2.00 -7.55 14.42 -2.49 0.69 0.77 6025
0.04 -0.00 1.97 -7.81 14.14 -2.37 0.64 0.75 6031
0.05 -0.01 1.94 -7.94 13.98 -2.19 0.61 0.74 6037
0.04 -0.00 1.95 -8.04 13.61 -2.00 0.58 0.72 6043
0.04 -0.00 1.96 -8.07 13.53 -1.80 0.59 0.71 6049
0.05 0.00 1.93 -8.21 13.56 -1.60 0.62 0.72 6056
0.05 -0.00 1.62 -8.34 13.37 -1.43 0.66 0.74 6063
0.04 -0.00 1.58 -8.63 13.32 -1.26 0.71 0.77 6069
0.04 0.00 1.47 -8.93 13.35 -1.13 0.76 0.80 6075
0.04 -0.00 1.23 -9.12 13.29 -1.03 0.82 0.84 6081
0.04 -0.00 1.11 -9.30 13.35 -0.96 0.85 0.87 6087
0.04 0.00 0.92 -9.47 13.79 -0.92 0.88 0.91 6094
0.04 -0.00 0.63 -9.51 14.20 -0.94 0.88 0.94 6100
0.04 -0.00 0.46 -9.53 14.50 -1.04 0.86 0.96 6107
0.04 -0.00 0.30 -9.55 14.31 -1.21 0.81 0.98 6113
0.06 -0.01 0.29 -9.84 13.63 -1.42 0.73 0.98 6119
0.04 -0.00 0.42 -10.34 12.46 -1.62 0.66 0.98 6125
0.04 -0.00 0.37 -10.91 10.90 -1.75 0.64 0.98 6132
0.06 -0.01 0.00 -11.51 9.25 -1.81 0.71 0.98 6138
0.04 -0.00 -1.25 -12.25 8.12 -1.79 0.82 1.01 6145
0.03 -0.00 -2.01 -13.36 7.42 -1.64 1.04 1.06 6151
0.05 0.00 -3.03 -14.54 6.94 -1.42 1.12 1.07 6157
0.04 -0.00 -3.69 -15.49 6.62 -1.22 1.01 1.02 6164
0.03 -0.00 -4.05 -16.32 6.31 -0.98 0.73 0.89 6170
0.05 0.00 -3.93 -16.84 5.98 -0.73 0.39 0.71 6176
0.05 -0.00 -3.13 -17.05 5.43 -0.49 0.04 0.50 6182
0.04 -0.00 -1.88 -17.09 5.22 -0.28 -0.19 0.30 6189
0.05 0.01 -0.78 -17.01 5.17 -0.09 -0.30 0.06 6195
0.05 -0.00 0.37 -17.05 5.21 0.08 -0.29 -0.21 6202
0.04 -0.00 -4.36 -24.65 8.37 0.44 -0.60 -0.43 6208
0.04 0.00 -3.65 -19.07 8.05 1.31 -1.39 -0.51 6214
0.05 -0.00 -3.26 -14.66 5.45 1.54 -1.72 -0.58 6220
0.04 -0.00 -4.16 -16.03 5.00 1.76 -2.12 -0.56 6226
0.04 -0.00 -3.43 -17.86 7.41 1.96 -2.63 -0.34 6233
0.04 -0.00 -3.62 -14.83 7.51 2.14 -2.98 -0.03 6240
0.04 0.07 1.75 -3.17 8.56 2.27 -3.07 0.27 6246
0.03 0.17 3.83 3.62 9.69 2.45 -2.32 0.51 6252
0.03 0.31 2.46 -0.23 15.91 2.69 -1.39 0.89 6258
0.00 0.59 1.85 2.91 16.35 2.93 -0.95 1.23 6264
0.00 0.79 -4.94 0.39 15.02 3.08 -1.02 1.20 6272
0.00 0.92 -8.64 -2.35 15.50 3.38 -1.15 0.82 6278
-0.00 0.91 -6.49 -3.61 16.83 3.54 -1.21 0.33 6284
0.01 0.91 -4.42 -4.32 21.87 3.70 -1.10 -0.10 6290
0.00 0.93 -0.26 -4.19 44.37 1.66 -2.19 -0.37 6296
-0.01 0.99 1.25 -3.06 9.96 -0.07 -0.31 0.04 6303
0.00 1.02 0.97 -2.72 11.13 -0.12 -0.06 0.06 6309
-0.00 1.03 0.39 -1.98 10.31 -0.04 -0.06 0.07 6316
-0.01 1.05 0.95 -0.59 9.95 -0.02 -0.06 0.09 6322
0.02 1.03 0.57 -0.34 9.92 0.03 -0.05 0.09 6328
0.02 1.04 0.53 -0.54 9.99 0.01 -0.04 0.09 6334
-0.00 1.04 0.42 -0.85 10.03 -0.02 -0.04 0.08 6341
0.01 1.08 0.85 -0.91 9.98 -0.02 -0.03 0.08 6347
0.01 1.06 0.73 -0.81 9.90 -0.02 -0.03 0.09 6353
0.03 1.09 0.63 -0.77 10.05 -0.03 -0.02 0.08 6360
0.02 1.11 0.66 -0.85 10.01 -0.04 -0.03 0.07 6366
0.03 1.14 0.74 -0.89 10.03 -0.04 -0.03 0.06 6372
0.00 1.20 0.67 -0.77 10.00 -0.04 -0.03 0.06 6379
0.00 1.21 0.35 -0.79 9.95 -0.04 -0.03 0.06 6385
0.02 1.26 0.65 -0.76 10.10 -0.04 -0.02 0.06 6391
0.01 1.35 0.63 -0.52 9.98 -0.04 -0.01 0.06 6397
0.02 1.31 0.60 -0.71 10.06 -0.03 -0.01 0.06 6404
0.03 1.34 0.68 -0.68 10.07 -0.02 -0.00 0.06 6411
0.01 1.32 0.71 -0.68 10.09 -0.01 -0.00 0.07 6417
0.01 1.29 0.73 -0.71 10.01 -0.01 -0.00 0.06 6423
0.03 1.28 0.72 -0.69 9.97 -0.00 -0.01 0.07 6429
0.02 1.25 0.73 -0.70 9.90 -0.00 -0.01 0.07 6435
0.01 1.23 0.72 -0.73 9.99 0.00 -0.02 0.07 6441
0.01 1.21 0.72 -0.68 9.98 -0.00 -0.03 0.07 6448
0.02 1.17 0.73 -0.68 9.99 0.00 -0.02 0.07 6455
0.01 1.18 0.67 -0.71 10.04 0.00 -0.03 0.07 6461
0.01 1.16 0.69 -0.68 10.01 0.01 -0.03 0.07 6467
0.02 1.13 0.71 -0.69 10.02 0.01 -0.03 0.07 6473
0.02 1.11 0.68 -0.72 9.98 0.01 -0.03 0.07 6479
0.03 1.08 0.71 -0.68 9.93 0.01 -0.03 0.07 6486
0.03 1.02 0.73 -0.71 9.97 0.01 -0.03 0.07 6493
0.03 1.02 0.71 -0.69 9.98 0.01 -0.03 0.06 6499
0.03 0.95 0.70 -0.72 9.94 0.01 -0.03 0.06 6505
0.03 0.92 0.70 -0.70 9.92 0.01 -0.03 0.06 6511
0.04 0.87 0.71 -0.69 9.97 0.00 -0.03 0.05 6517
0.04 0.85 0.73 -0.73 9.95 0.00 -0.03 0.05 6523
0.05 0.84 0.66 -0.73 9.97 0.00 -0.03 0.06 6530
0.06 0.83 0.64 -0.72 10.01 0.00 -0.03 0.05 6537
0.04 0.80 0.66 -0.69 9.95 0.00 -0.02 0.05 6543
0.03 0.79 0.69 -0.68 9.96 0.01 -0.02 0.05 6549
0.03 0.81 0.68 -0.72 10.00 0.01 -0.02 0.06 6555
0.04 0.78 0.68 -0.71 10.02 0.01 -0.02 0.06 6561
0.03 0.76 0.65 -0.73 9.95 0.00 -0.01 0.06 6567
0.03 0.75 0.67 -0.71 9.94 0.01 -0.01 0.06 6574
0.05 0.70 0.69 -0.72 9.95 0.00 -0.01 0.06 6581
0.04 0.69 0.65 -0.72 9.97 0.00 -0.01 0.07 6587
0.04 0.71 0.67 -0.74 9.95 0.00 -0.01 0.06 6593
0.04 0.66 0.69 -0.73 9.99 -0.00 -0.01 0.06 6599
0.04 0.66 0.68 -0.70 9.92 -0.00 -0.01 0.06 6605
0.04 0.63 0.75 -0.73 9.97 -0.01 -0.01 0.06 6611
0.04 0.60 0.77 -0.73 9.99 -0.01 -0.01 0.06 6618
0.06 0.60 0.74 -0.68 9.86 -0.01 -0.02 0.06 6625
0.05 0.61 0.70 -0.70 10.04 -0.01 -0.02 0.06 6631
0.05 0.58 0.70 -0.68 10.04 -0.00 -0.01 0.05 6637
0.07 0.56 0.68 -0.72 9.99 -0.00 -0.01 0.05 6643
0.06 0.53 0.70 -0.72 9.96 -0.00 -0.00 0.05 6649
0.07 0.54 0.68 -0.72 9.97 0.00 0.01 0.05 6656
0.09 0.50 0.68 -0.72 9.89 0.00 0.01 0.05 6662
0.11 0.46 0.74 -0.75 10.00 0.00 0.02 0.05 6669
0.12 0.38 0.71 -0.70 9.93 0.01 0.03 0.05 6675
0.11 0.39 0.76 -0.77 9.92 0.00 0.03 0.04 6681
0.13 0.40 0.73 -0.75 9.86 0.00 0.03 0.04 6687
0.13 0.38 0.76 -0.75 9.84 -0.00 0.03 0.04 6693
0.16 0.34 0.77 -0.73 9.92 0.00 0.03 0.04 6700
0.18 0.33 0.82 -0.71 10.01 -0.00 0.03 0.04 6706
0.20 0.33 0.83 -0.71 10.01 0.00 0.02 0.04 6713
0.19 0.27 0.77 -0.70 10.08 0.01 0.02 0.04 6719
0.19 0.26 0.76 -0.71 10.11 0.01 0.02 0.05 6725
0.20 0.18 0.77 -0.68 10.02 0.02 0.02 0.05 6731
0.22 0.14 0.87 -0.72 10.05 0.03 0.02 0.05 6737
0.23 0.08 0.82 -0.73 10.09 0.04 0.02 0.05 6744
0.27 0.05 0.77 -0.82 10.19 0.05 0.03 0.05 6751
0.27 0.01 0.82 -0.86 10.14 0.08 0.05 0.05 6757
0.27 -0.00 0.80 -0.78 10.01 0.10 0.06 0.05 6763
0.29 -0.02 0.95 -0.93 10.21 0.17 0.08 0.04 6769
0.30 -0.03 0.97 -0.73 10.75 0.29 0.15 0.02 6775
0.30 -0.02 1.35 -1.05 12.05 0.52 0.28 -0.02 6782
0.34 -0.02 1.58 -1.10 13.42 0.90 0.51 -0.05 6789
0.32 -0.03 1.94 -0.77 15.93 1.73 0.79 -0.16 6795
0.33 -0.02 2.34 -0.72 17.46 2.57 0.73 -0.33 6801
0.31 -0.02 1.92 -1.35 18.17 3.09 0.36 -0.43 6807
0.29 -0.02 1.77 -1.22 18.17 3.50 0.02 -0.49 6814
0.27 0.00 2.18 -1.42 19.20 3.88 -0.11 -0.55 6820
0.23 -0.00 3.32 -2.77 18.83 4.16 -0.13 -0.66 6827
0.17 0.00 4.05 -1.09 19.33 4.28 -0.26 -0.73 6833
0.17 0.00 3.76 -2.43 16.69 4.28 -0.31 -0.74 6839
0.11 0.00 2.35 -2.30 18.61 4.28 -0.15 -0.80 6846
0.08 -0.01 2.01 -3.68 19.48 4.28 0.01 -0.75 6852
0.10 -0.01 3.99 -4.78 20.51 4.28 0.09 -0.70 6858
0.08 -0.00 5.55 -5.31 24.84 4.28 0.14 -0.74 6864
0.07 -0.01 7.21 -4.35 25.36 4.28 0.13 -0.85 6871
0.08 -0.00 6.26 -2.75 28.23 4.28 -0.04 -1.04 6878
0.08 -0.01 4.59 0.19 26.47 4.18 -0.28 -1.14 6884
0.05 -0.01 4.58 2.13 25.21 3.90 -0.51 -1.18 6890
0.07 -0.01 4.08 1.90 19.55 3.50 -0.74 -1.19 6896
0.05 -0.01 4.77 6.85 16.59 3.37 -0.92 -1.18 6902
0.04 -0.00 4.81 12.01 12.83 3.26 -0.95 -1.20 6908
0.06 -0.01 6.96 21.08 10.58 2.84 -1.01 -1.22 6916
0.05 -0.01 6.44 16.97 7.02 2.07 -0.83 -1.27 6922
0.04 -0.00 7.89 15.22 9.42 1.24 -0.60 -1.27 6928
0.05 -0.00 8.09 17.01 9.98 0.49 -0.28 -1.22 6934
0.05 -0.01 6.56 14.85 9.02 0.06 0.02 -1.22 6940
0.05 -0.00 4.96 12.56 6.92 -0.20 0.14 -1.19 6946
0.04 0.00 3.59 11.51 5.11 -0.32 0.15 -1.11 6953
0.04 -0.00 2.71 11.19 4.45 -0.45 0.10 -1.01 6960
0.04 -0.00 2.60 10.68 4.15 -0.59 0.02 -0.90 6966
0.05 -0.00 3.03 10.14 4.74 -0.70 -0.03 -0.78 6972
0.06 -0.01 3.31 9.53 4.97 -0.81 -0.05 -0.71 6978
0.05 -0.00 3.42 9.10 5.15 -0.93 -0.02 -0.60 6984
0.04 -0.00 3.35 8.79 5.25 -1.06 0.04 -0.49 6990
0.04 -0.00 3.08 8.33 5.58 -1.18 0.10 -0.38 6996
0.05 -0.01 2.83 7.77 6.19 -1.31 0.15 -0.27 7004
0.04 -0.00 2.70 7.17 7.04 -1.42 0.19 -0.17 7010
0.04 -0.00 2.62 6.67 7.82 -1.54 0.24 -0.09 7016
0.04 -0.00 2.76 6.20 8.41 -1.67 0.32 0.01 7022
0.06 -0.01 2.83 5.75 9.02 -1.83 0.40 0.10 7028
0.05 -0.00 2.95 5.28 9.56 -2.02 0.52 0.18 7034
0.04 -0.00 2.96 4.78 10.02 -2.18 0.62 0.25 7041
0.04 -0.00 2.79 4.16 10.49 -2.36 0.70 0.31 7047
0.04 -0.00 2.48 3.61 10.96 -2.52 0.78 0.36 7054
0.04 -0.00 2.21 2.88 11.31 -2.65 0.85 0.40 7060
0.04 -0.00 2.04 2.05 11.67 -2.76 0.90 0.43 7066
0.05 -0.01 1.89 1.26 12.18 -2.85 0.93 0.45 7072
0.04 -0.00 1.72 0.59 12.58 -2.92 0.95 0.45 7078
0.03 -0.00 1.65 -0.01 12.98 -3.00 0.96 0.45 7085
0.04 -0.00 1.62 -0.49 13.43 -3.01 0.96 0.44 7091
0.04 -0.00 1.50 -1.09 13.87 -3.04 0.97 0.44 7098
0.04 -0.00 1.36 -1.49 14.28 -3.05 0.97 0.44 7104
0.04 -0.00 1.16 -1.90 14.60 -3.06 0.97 0.44 7110
0.05 -0.01 1.06 -2.17 14.90 -3.06 0.96 0.45 7116
0.04 -0.00 0.90 -2.57 15.16 -3.04 0.96 0.47 7122
0.03 -0.00 0.86 -2.98 15.40 -3.02 0.94 0.47 7129
0.04 -0.00 0.80 -3.36 15.56 -3.00 0.92 0.47 7135
0.04 -0.00 0.85 -3.61 15.78 -2.97 0.89 0.46 7142
0.04 -0.00 0.94 -3.73 15.95 -2.93 0.87 0.44 7148
0.04 -0.00 1.07 -3.91 16.20 -2.89 0.85 0.42 7154
0.05 -0.00 1.33 -4.07 16.29 -2.86 0.84 0.39 7160
0.04 -0.00 1.61 -4.33 16.27 -2.83 0.85 0.35 7166
0.03 -0.00 1.85 -4.68 16.12 -2.79 0.87 0.30 7173
0.05 -0.01 2.09 -5.17 15.91 -2.74 0.91 0.26 7179
0.03 -0.00 2.25 -5.70 15.53 -2.65 0.96 0.22 7186
0.03 -0.00 2.22 -6.26 15.08 -2.54 1.02 0.18 7192
0.04 0.01 2.11 -6.72 14.62 -2.39 1.07 0.16 7198
0.04 -0.00 2.01 -7.16 14.05 -2.27 1.08 0.16 7204
0.03 -0.00 1.91 -7.56 13.63 -2.08 1.07 0.17 7211
0.04 0.00 2.44 -7.92 13.40 -1.88 1.04 0.20 7218
0.04 -0.00 1.82 -8.22 13.29 -1.66 1.01 0.24 7224
0.04 -0.00 1.96 -8.54 13.24 -1.44 0.98 0.30 7230
0.04 0.00 1.79 -8.61 13.56 -1.24 0.96 0.38 7236
0.04 -0.00 1.41 -8.67 13.95 -1.07 0.97 0.50 7242
0.04 -0.00 0.93 -8.94 14.56 -0.95 0.96 0.65 7248
0.04 -0.00 0.48 -9.23 15.27 -0.91 0.92 0.81 7255
0.05 -0.00 0.18 -9.55 15.77 -0.95 0.86 0.99 7262
0.04 -0.00 -0.06 -9.96 15.24 -1.06 0.79 1.17 7268
0.03 -0.00 -0.04 -10.69 14.36 -1.23 0.71 1.34 7274
0.05 -0.00 -0.16 -11.57 13.28 -1.41 0.69 1.47 7280
0.04 -0.00 -0.55 -12.58 12.04 -1.55 0.68 1.58 7286
0.04 0.00 -1.15 -13.52 10.89 -1.63 0.69 1.66 7293
0.04 -0.00 -1.69 -14.38 9.81 -1.64 0.68 1.68 7300
0.04 -0.00 -2.06 -15.55 8.72 -1.58 0.57 1.65 7306
0.04 -0.00 -2.24 -16.72 7.81 -1.46 0.38 1.54 7312
0.05 -0.00 -2.03 -17.68 6.74 -1.31 0.19 1.38 7318
0.04 -0.00 -1.69 -18.39 5.58 -1.13 0.08 1.18 7325
0.03 0.00 -1.16 -18.76 4.46 -0.95 0.08 0.95 7331
0.05 -0.01 -1.30 -19.22 4.45 -0.72 0.11 0.71 7337
0.04 -0.00 -1.51 -19.69 4.58 -0.52 0.19 0.46 7344
0.04 -0.00 -4.01 -26.67 20.43 -0.07 -0.25 0.17 7350
0.05 -0.00 -2.28 -20.39 0.92 0.42 -0.30 -0.07 7356
0.04 -0.00 -6.18 -19.27 5.27 0.98 -0.88 -0.36 7363
0.03 -0.00 -5.34 -21.04 5.49 1.35 -1.35 -0.55 7369
0.05 -0.00 -6.05 -21.88 4.73 1.71 -1.96 -0.68 7375
0.04 -0.00 -6.12 -22.93 5.01 1.97 -2.42 -0.77 7382
0.04 0.01 -4.72 -19.97 3.74 2.21 -2.92 -0.80 7388
0.04 0.08 0.11 -3.25 4.09 2.41 -3.25 -0.73 7394
0.03 0.22 2.26 1.85 8.25 2.75 -2.55 -0.55 7401
0.01 0.55 3.44 -3.29 21.36 3.26 -2.21 -0.35 7407
0.02 0.79 0.59 2.49 24.16 3.49 -1.89 -0.25 7413
0.01 0.91 -0.65 -1.77 16.11 3.44 -1.69 -0.33 7419
-0.00 1.07 0.78 -3.22 20.15 3.61 -1.60 -0.41 7427
0.01 0.93 -0.37 -5.76 26.18 3.65 -1.29 -0.35 7433
0.01 0.99 2.33 -3.23 30.42 2.09 -2.39 -0.40 7439
0.01 1.06 2.20 -4.91 12.06 0.29 -0.80 -0.03 7445
-0.00 1.11 0.76 -2.71 11.49 -0.01 -0.11 0.12 7451
-0.01 1.14 0.48 -1.02 10.45 -0.02 -0.04 0.13 7458
0.01 1.16 0.37 -0.39 9.97 0.02 -0.04 0.10 7464
0.03 1.12 0.46 -0.32 9.96 0.05 -0.06 0.08 7471
0.01 1.08 0.56 -0.67 9.95 0.03 -0.02 0.10 7477
0.02 1.09 0.73 -1.02 10.05 0.00 0.02 0.10 7483
0.02 1.06 0.66 -1.02 10.11 -0.01 0.03 0.10 7489
0.01 1.05 0.64 -0.87 10.08 -0.02 0.03 0.09 7496
0.00 1.08 0.63 -0.77 10.00 -0.03 0.03 0.08 7502
0.01 1.12 0.68 -0.75 10.04 -0.03 0.03 0.07 7508
0.00 1.11 0.68 -0.78 10.00 -0.04 0.03 0.07 7515
-0.00 1.16 0.68 -0.82 10.07 -0.03 0.03 0.07 7521
-0.01 1.19 0.69 -0.74 10.01 -0.03 0.03 0.07 7528
-0.00 1.22 0.67 -0.52 9.11 -0.03 0.03 0.06 7534
-0.00 1.25 0.77 -0.71 10.04 -0.03 0.03 0.06 7540
-0.00 1.32 0.72 -0.71 9.97 -0.02 0.03 0.06 7546
-0.01 1.26 0.69 -0.66 9.98 -0.02 0.04 0.05 7553
-0.01 1.28 0.66 -0.70 10.04 -0.02 0.05 0.06 7559
-0.00 1.30 0.68 -0.68 10.03 -0.01 0.05 0.05 7566
-0.01 1.28 0.74 -0.75 10.01 -0.01 0.05 0.06 7572
-0.01 1.23 0.75 -0.75 9.96 -0.01 0.05 0.06 7578
-0.00 1.23 0.79 -0.75 9.97 -0.01 0.04 0.06 7584
-0.00 1.18 0.81 -0.74 9.96 -0.01 0.04 0.06 7590
-0.01 1.16 0.80 -0.71 10.04 -0.01 0.03 0.06 7597
-0.00 1.14 0.79 -0.67 9.91 -0.00 0.02 0.06 7603
0.00 1.13 0.81 -0.71 9.98 -0.00 0.01 0.06 7610
0.01 1.08 0.84 -0.69 10.04 0.00 0.00 0.06 7616
0.01 1.09 0.78 -0.69 9.99 0.00 -0.00 0.05 7622
0.03 1.03 0.80 -0.72 9.96 0.00 -0.01 0.05 7628
0.02 1.00 0.80 -0.68 10.01 0.00 -0.01 0.05 7634
0.01 0.97 0.81 -0.69 9.98 0.01 -0.02 0.04 7641
0.02 0.97 0.80 -0.69 10.02 0.00 -0.02 0.05 7647
0.02 0.94 0.80 -0.74 9.94 0.00 -0.03 0.04 7654
0.02 0.90 0.82 -0.71 10.00 0.00 -0.04 0.04 7660
0.02 0.89 0.82 -0.68 9.94 0.01 -0.04 0.04 7666
0.04 0.87 0.77 -0.70 9.96 0.01 -0.05 0.04 7672
0.02 0.86 0.75 -0.70 9.99 0.01 -0.05 0.04 7678
0.02 0.85 0.75 -0.71 9.99 0.01 -0.05 0.04 7685
0.03 0.83 0.73 -0.73 9.97 0.01 -0.05 0.04 7691
0.03 0.80 0.78 -0.72 10.01 0.01 -0.05 0.04 7698
0.02 0.82 0.77 -0.73 9.98 0.01 -0.04 0.04 7704
0.02 0.78 0.77 -0.72 9.98 0.02 -0.04 0.05 7710
0.04 0.72 0.72 -0.76 9.97 0.01 -0.04 0.05 7716
0.04 0.72 0.77 -0.70 9.95 0.01 -0.04 0.04 7723
0.04 0.65 0.77 -0.71 9.96 0.01 -0.05 0.04 7729
0.03 0.68 0.80 -0.73 9.96 0.00 -0.05 0.04 7735
0.03 0.65 0.78 -0.72 9.92 0.01 -0.06 0.04 7742
0.03 0.64 0.75 -0.74 9.95 0.00 -0.06 0.04 7748
0.04 0.66 0.73 -0.69 10.00 0.00 -0.06 0.03 7754
0.04 0.68 0.72 -0.75 9.95 -0.00 -0.05 0.05 7760
0.04 0.66 0.75 -0.76 10.00 -0.00 -0.05 0.04 7767
0.04 0.68 0.74 -0.74 10.00 -0.00 -0.05 0.04 7773
0.04 0.64 0.72 -0.74 10.00 -0.00 -0.04 0.04 7780
0.04 0.61 0.73 -0.72 9.97 -0.00 -0.04 0.05 7786
0.03 0.63 0.72 -0.70 9.93 -0.00 -0.03 0.04 7792
0.04 0.63 0.72 -0.76 9.92 -0.00 -0.01 0.04 7798
0.05 0.59 0.67 -0.70 9.95 -0.00 0.03 0.04 7804
0.06 0.53 0.73 -0.75 9.97 -0.00 0.01 0.04 7811
0.05 0.50 0.73 -0.73 9.93 -0.00 0.03 0.04 7817
0.06 0.51 0.73 -0.74 9.97 -0.00 0.03 0.04 7824
0.05 0.50 0.80 -0.77 9.92 -0.01 0.04 0.04 7830
0.05 0.50 0.78 -0.75 9.89 -0.00 0.05 0.04 7836
0.06 0.50 0.75 -0.70 9.95 -0.01 0.05 0.04 7842
0.07 0.44 0.98 -0.79 9.99 -0.00 0.05 0.04 7848
0.06 0.43 0.77 -0.72 9.90 -0.01 0.04 0.04 7855
0.06 0.41 0.80 -0.65 9.91 -0.00 0.03 0.04 7861
0.08 0.41 0.85 -0.67 9.98 0.00 0.02 0.04 7867
0.07 0.40 0.84 -0.69 9.95 0.01 0.01 0.04 7874
0.08 0.36 0.83 -0.66 9.91 0.01 0.01 0.04 7880
0.09 0.32 0.85 -0.66 10.01 0.02 0.00 0.04 7886
0.12 0.27 0.84 -0.72 10.06 0.06 -0.00 0.05 7892
0.10 0.19 0.80 -0.84 10.11 0.04 -0.00 0.06 7899
0.12 0.18 0.83 -0.72 10.08 0.05 0.00 0.05 7905
0.15 0.13 0.86 -0.90 10.04 0.06 0.01 0.05 7912
0.17 0.06 0.85 -0.74 10.14 0.06 0.02 0.05 7918
0.20 0.03 0.81 -0.81 10.01 0.08 0.03 0.05 7924
0.27 0.00 0.87 -0.78 10.30 0.09 0.04 0.04 7930
0.26 -0.02 1.07 -1.67 10.41 0.13 0.07 0.03 7937
0.28 -0.00 0.86 -0.74 10.63 0.20 0.14 0.02 7943
0.31 -0.03 1.02 -0.78 10.81 0.32 0.23 0.00 7950
0.30 -0.03 1.14 -0.91 11.50 0.55 0.40 -0.01 7956
0.32 -0.02 1.13 -0.82 12.43 1.00 0.64 -0.04 7962
0.34 -0.02 1.60 -0.85 13.89 1.62 0.86 -0.12 7968
0.33 -0.03 1.46 -0.95 15.64 2.34 0.87 -0.21 7975
0.33 -0.02 1.60 -1.18 16.80 2.76 0.69 -0.28 7982
0.32 -0.01 1.61 -1.47 17.10 3.16 0.52 -0.35 7988
0.33 -0.02 1.43 -1.64 17.49 3.47 0.41 -0.38 7994
0.30 -0.02 1.80 -1.86 17.73 3.79 0.38 -0.40 8000
0.24 -0.01 1.99 -1.30 17.52 4.11 0.27 -0.39 8007
0.14 0.01 3.63 -0.61 15.85 4.25 0.22 -0.73 8013
0.14 0.00 3.04 -1.88 18.04 4.28 0.03 -0.54 8019
0.11 -0.01 3.36 -2.69 19.48 4.28 0.07 -0.53 8026
0.10 0.01 3.50 -2.96 19.20 4.28 0.20 -0.58 8032
0.12 0.01 2.41 -4.43 19.74 4.28 0.22 -0.57 8039
0.12 0.00 2.65 -6.48 23.10 4.28 0.23 -0.48 8045
0.10 0.01 4.64 -6.78 24.20 4.28 0.25 -0.44 8051
0.09 0.01 6.33 -5.42 25.80 4.28 0.24 -0.51 8057
0.05 -0.00 6.57 -3.78 28.12 4.28 0.18 -0.62 8065
0.06 0.00 5.12 -3.57 25.87 4.17 0.09 -0.69 8071
0.07 -0.00 4.08 -1.36 25.53 3.92 -0.07 -0.73 8077
0.04 0.01 3.78 3.42 20.62 3.83 -0.23 -0.78 8083
0.06 -0.00 3.74 3.52 15.89 3.75 -0.40 -0.78 8089
0.06 -0.01 4.32 11.98 14.91 3.60 -0.74 -0.79 8096
0.04 -0.00 5.10 28.17 15.33 3.12 -0.95 -0.82 8102
0.06 -0.01 5.51 20.29 10.10 2.27 -0.91 -0.86 8109
0.06 -0.01 7.07 20.31 13.10 1.31 -0.94 -0.77 8115
0.06 -0.01 6.54 22.00 11.79 0.37 -0.72 -0.64 8121
0.05 -0.01 5.34 19.22 9.99 -0.26 -0.35 -0.63 8128
0.05 -0.01 4.52 16.60 7.78 -0.62 -0.19 -0.68 8134
0.06 -0.01 3.54 14.54 5.67 -0.79 -0.17 -0.77 8140
0.05 -0.00 2.72 13.91 5.23 -0.90 -0.21 -0.83 8146
0.04 -0.00 2.58 13.23 5.02 -0.98 -0.25 -0.87 8153
0.05 -0.01 2.85 12.89 5.11 -1.06 -0.28 -0.87 8159
0.06 -0.01 3.49 12.29 5.50 -1.16 -0.30 -0.83 8166
0.04 -0.00 4.15 11.86 6.19 -1.26 -0.24 -0.75 8172
0.04 -0.00 4.57 11.48 6.74 -1.42 -0.14 -0.63 8178
0.06 -0.01 4.81 10.99 7.41 -1.63 0.02 -0.49 8184
0.05 -0.00 4.81 10.35 8.00 -1.87 0.15 -0.32 8190
0.04 -0.00 4.72 9.53 8.53 -2.10 0.29 -0.18 8197
0.05 -0.00 4.52 8.46 9.00 -2.31 0.40 -0.01 8203
0.05 -0.00 4.24 7.37 9.64 -2.49 0.48 0.16 8210
0.04 -0.00 4.08 6.32 10.01 -2.65 0.55 0.31 8216
0.04 -0.00 3.89 5.41 10.56 -2.79 0.60 0.45 8222
0.05 -0.01 3.68 4.58 11.29 -2.89 0.65 0.57 8228
0.05 -0.00 3.47 3.72 12.15 -3.01 0.69 0.66 8235
0.04 -0.00 3.16 2.91 12.86 -3.13 0.73 0.72 8241
0.05 0.00 2.77 1.36 13.71 -3.24 0.74 0.75 8248
0.04 -0.00 2.37 1.01 14.24 -3.35 0.72 0.77 8254
0.03 -0.00 2.11 0.16 14.81 -3.43 0.68 0.77 8260
0.04 0.00 1.93 -0.68 15.43 -3.48 0.62 0.75 8266
0.05 -0.01 1.87 -1.55 15.80 -3.53 0.56 0.73 8272
0.05 -0.01 1.93 -2.28 16.06 -3.56 0.52 0.70 8279
0.05 -0.00 2.10 -2.94 16.30 -3.61 0.49 0.66 8286
0.05 -0.01 2.41 -3.37 16.32 -3.59 0.49 0.61 8292
0.04 -0.00 3.04 -3.80 16.52 -3.59 0.48 0.56 8298
0.04 -0.00 2.60 -4.11 16.68 -3.58 0.49 0.52 8304
0.05 -0.01 2.71 -4.29 16.73 -3.54 0.50 0.49 8310
0.04 -0.00 2.87 -4.45 16.72 -3.49 0.50 0.47 8316
0.03 -0.00 3.00 -4.73 16.65 -3.44 0.51 0.46 8323
0.05 0.00 2.95 -5.14 16.70 -3.36 0.49 0.45 8330
0.04 -0.00 2.91 -5.73 16.58 -3.27 0.45 0.44 8336
0.04 -0.00 2.88 -6.33 16.48 -3.16 0.38 0.43 8342
0.04 0.00 2.83 -6.88 16.30 -3.07 0.27 0.41 8348
0.04 -0.00 2.73 -7.72 15.96 -2.93 0.16 0.40 8354
0.04 -0.00 2.78 -8.37 15.62 -2.77 0.07 0.37 8360
0.05 -0.01 2.87 -8.96 15.25 -2.59 -0.03 0.33 8368
0.05 -0.01 3.11 -9.65 14.65 -2.39 -0.10 0.24 8374
0.04 -0.00 3.08 -10.34 14.97 -2.16 -0.16 0.19 8380
0.04 -0.00 3.31 -11.32 14.92 -1.95 -0.12 0.11 8386
0.05 -0.00 2.33 -14.64 15.55 -1.70 -0.08 0.02 8392
0.05 -0.00 0.45 -17.88 13.44 -1.40 -0.20 -0.10 8399
0.05 0.00 1.36 -9.81 10.58 -1.20 0.04 -0.13 8406
0.05 -0.01 1.64 -10.46 9.25 -1.16 0.65 -0.03 8412
0.04 -0.00 1.03 -14.73 12.55 -1.12 1.28 0.14 8418
0.05 0.00 -0.72 -13.59 16.15 -1.03 1.63 0.31 8424
0.04 -0.00 -3.33 -14.97 14.21 -1.10 1.96 0.43 8431
0.04 -0.00 -4.22 -15.21 15.80 -1.09 1.95 0.51 8437
0.06 -0.00 -6.31 -16.92 11.30 -1.20 1.65 0.60 8443
0.05 -0.00 -7.47 -17.90 11.39 -1.27 1.06 0.65 8450
0.05 0.00 -6.57 -20.73 7.80 -1.41 0.56 0.68 8457
0.05 0.00 -4.14 -19.59 5.66 -1.46 0.20 0.69 8463
0.04 -0.00 -3.62 -21.51 4.56 -1.43 -0.08 0.64 8469
0.05 0.01 -3.11 -24.12 6.27 -1.25 -0.36 0.52 8475
0.05 -0.00 -3.86 -21.97 7.05 -0.77 -0.65 0.31 8481
0.04 -0.00 -2.56 -21.86 -0.27 -0.58 -0.61 0.14 8488
0.04 0.01 -4.18 -21.79 3.82 0.06 -0.74 -0.13 8495
0.05 -0.01 -2.21 -23.94 2.51 0.23 -0.64 -0.29 8501
0.05 -0.00 -3.36 -24.29 5.29 0.83 -0.91 -0.51 8507
0.04 -0.00 -3.86 -22.68 2.56 1.07 -1.01 -0.62 8513
0.05 -0.00 -3.94 -23.64 3.76 1.45 -1.51 -0.74 8519
0.04 0.00 -4.99 -25.95 3.12 1.69 -2.02 -0.78 8526
0.04 0.11 -5.39 -26.65 -2.44 2.01 -2.46 -0.67 8532
0.04 0.20 -0.75 -17.63 -0.26 2.47 -2.47 -0.29 8539
0.02 0.43 4.11 -0.49 12.54 3.68 -1.86 0.03 8545
0.01 0.73 -1.22 -6.06 24.98 4.28 -2.11 0.08 8552
0.01 0.86 -1.94 -2.10 31.13 4.28 -2.05 0.00 8558
0.00 0.95 -5.22 -10.94 78.47 3.97 -3.39 -0.13 8564
0.02 1.00 -0.52 -2.34 9.18 -0.16 -0.03 0.34 8570
-0.01 1.17 -1.18 -5.03 11.46 -0.16 -0.16 0.03 8577
-0.00 1.21 -0.09 -3.64 11.03 -0.09 -0.15 -0.03 8584
0.00 1.21 1.28 -0.57 10.21 -0.05 -0.03 0.10 8590
-0.00 1.21 0.89 -0.06 10.01 0.01 0.00 0.12 8596
0.00 1.20 0.18 -0.68 10.00 0.01 -0.02 0.09 8602
0.00 1.20 0.58 -0.69 9.93 -0.00 -0.02 0.06 8608
0.02 1.17 0.94 -0.89 9.84 -0.01 -0.01 0.08 8614
0.01 1.18 0.66 -1.01 9.99 -0.03 -0.01 0.09 8622
0.02 1.19 0.50 -0.73 9.99 -0.04 -0.02 0.07 8628
0.02 1.26 0.57 -0.69 10.01 -0.04 -0.01 0.07 8634
0.01 1.29 0.05 -0.81 10.04 -0.04 -0.00 0.07 8640
0.03 1.30 0.64 -0.80 9.99 -0.04 0.00 0.07 8646
0.03 1.32 0.69 -0.74 9.98 -0.04 -0.00 0.08 8652
0.01 1.34 0.65 -0.75 10.02 -0.04 0.00 0.07 8659
0.02 1.30 0.56 -0.73 10.04 -0.03 0.01 0.08 8666
0.00 1.33 0.63 -0.78 10.03 -0.03 0.02 0.07 8672
-0.01 1.33 0.68 -0.67 10.12 -0.02 0.03 0.07 8678
-0.00 1.34 0.66 -0.65 10.10 -0.02 0.03 0.07 8684
0.00 1.28 0.74 -0.66 10.03 -0.01 0.03 0.07 8691
-0.01 1.30 0.76 -0.65 9.89 -0.01 0.02 0.06 8697
0.01 1.30 0.85 -0.81 10.01 -0.00 0.01 0.07 8704
-0.00 1.27 0.80 -0.71 9.97 -0.00 -0.01 0.07 8710
-0.00 1.22 0.76 -0.66 9.95 0.00 -0.02 0.06 8716
0.01 1.19 0.73 -0.71 9.95 0.00 -0.03 0.06 8722
0.01 1.18 0.68 -0.69 9.98 0.00 -0.04 0.06 8728
0.01 1.13 0.66 -0.73 10.01 0.01 -0.04 0.06 8735
0.01 1.09 0.63 -0.71 10.00 0.01 -0.04 0.06 8741
0.02 1.06 0.69 -0.72 9.98 0.01 -0.04 0.07 8748
0.02 1.02 0.67 -0.70 9.98 0.01 -0.03 0.07 8754
0.02 1.00 0.68 -0.70 10.00 0.01 -0.03 0.06 8760
0.02 0.98 0.65 -0.70 9.99 0.01 -0.03 0.07 8766
0.03 0.93 0.69 -0.71 9.98 0.01 -0.03 0.06 8773
0.02 0.87 0.68 -0.68 9.96 0.01 -0.03 0.06 8779
0.02 0.93 0.73 -0.72 9.92 0.00 -0.03 0.06 8785
0.04 0.88 0.71 -0.71 9.98 0.00 -0.03 0.05 8792
0.03 0.84 0.71 -0.74 9.92 0.00 -0.03 0.05 8798
0.02 0.80 0.66 -0.73 9.97 -0.00 -0.03 0.05 8804
0.03 0.79 0.71 -0.71 9.93 -0.00 -0.03 0.04 8810
0.03 0.77 0.71 -0.72 9.90 -0.00 -0.02 0.04 8816
0.03 0.77 0.66 -0.71 9.94 -0.01 -0.02 0.05 8823
0.03 0.75 0.65 -0.73 10.00 -0.00 -0.02 0.05 8829
0.05 0.74 0.68 -0.71 9.99 -0.01 -0.01 0.05 8836
0.04 0.74 0.67 -0.72 9.96 -0.00 -0.01 0.05 8842
0.03 0.75 0.69 -0.73 10.04 -0.00 -0.00 0.05 8848
0.04 0.76 0.68 -0.71 9.97 -0.00 -0.00 0.06 8854
0.05 0.76 0.70 -0.73 9.96 -0.00 0.00 0.06 8860
0.05 0.75 0.66 -0.72 9.96 -0.00 0.00 0.05 8867
0.04 0.74 0.67 -0.69 9.95 -0.01 0.01 0.05 8873
0.06 0.72 0.71 -0.70 10.02 -0.00 0.01 0.05 8880
0.04 0.73 0.71 -0.69 9.97 -0.00 0.01 0.05 8886
0.03 0.73 0.67 -0.70 9.95 -0.01 0.01 0.06 8892
0.04 0.72 0.72 -0.74 9.95 -0.01 0.02 0.05 8898
0.06 0.71 0.68 -0.70 9.93 -0.01 0.02 0.04 8904
0.06 0.69 0.73 -0.71 9.91 -0.00 0.02 0.05 8911
0.05 0.69 0.72 -0.72 9.96 -0.00 0.02 0.05 8918
0.07 0.67 0.78 -0.75 9.90 -0.00 0.02 0.05 8924
0.06 0.63 0.73 -0.69 9.96 -0.00 0.02 0.05 8930
0.05 0.60 0.67 -0.68 9.91 -0.00 0.02 0.05 8936
0.06 0.61 0.75 -0.70 9.87 -0.01 0.02 0.05 8942
0.08 0.59 0.81 -0.69 9.95 -0.01 0.01 0.05 8948
0.07 0.52 0.77 -0.65 9.95 -0.00 0.00 0.06 8954
0.07 0.51 0.84 -0.65 9.97 0.01 -0.00 0.06 8962
0.09 0.50 0.84 -0.68 10.06 0.02 -0.01 0.06 8968
0.10 0.41 0.76 -0.69 10.00 0.03 -0.01 0.06 8974
0.10 0.35 0.80 -0.71 10.05 0.03 -0.01 0.06 8980
0.12 0.34 0.77 -0.74 10.10 0.04 -0.01 0.06 8986
0.13 0.26 0.81 -0.77 10.11 0.04 -0.02 0.06 8993
0.15 0.16 0.78 -0.76 10.08 0.05 -0.01 0.06 8999
0.15 0.15 0.81 -0.92 10.08 0.05 -0.01 0.07 9006
0.17 0.06 0.80 -0.72 10.08 0.06 -0.00 0.07 9012
0.20 0.02 0.79 -0.82 10.14 0.07 0.01 0.07 9018
0.22 0.02 0.77 -0.61 10.24 0.08 0.01 0.07 9024
0.23 -0.00 0.87 -1.68 10.36 0.11 0.03 0.07 9031
0.23 -0.02 1.01 -1.12 10.33 0.15 0.05 0.08 9037
0.25 -0.02 0.80 -0.76 10.58 0.24 0.09 0.07 9043
0.25 -0.02 1.06 -1.18 11.34 0.36 0.15 0.05 9050
0.25 -0.02 1.13 -0.80 12.04 0.63 0.26 0.02 9056
0.26 -0.01 1.63 -0.68 13.50 1.10 0.42 -0.05 9063
0.27 -0.03 2.36 -0.79 15.41 1.86 0.54 -0.20 9069
0.26 -0.02 2.28 -0.98 17.23 2.54 0.39 -0.37 9075
0.26 -0.02 2.44 -1.11 17.46 3.01 0.08 -0.50 9081
0.25 -0.02 2.32 -1.15 17.75 3.34 -0.16 -0.58 9088
0.22 -0.02 2.40 -1.17 17.56 3.66 -0.34 -0.61 9095
0.20 -0.02 2.92 -1.93 18.54 4.00 -0.51 -0.68 9101
0.15 -0.02 3.47 -1.81 17.68 4.18 -0.49 -0.81 9107
0.14 0.00 1.93 -1.71 18.74 4.27 -0.49 -0.80 9113
0.13 -0.00 1.96 -2.71 18.82 4.28 -0.44 -0.74 9119
0.10 -0.01 3.52 -4.08 21.29 4.28 -0.64 -0.73 9126
0.11 0.01 5.64 -4.82 24.37 4.28 -0.72 -0.78 9133
0.09 -0.01 6.56 -3.95 22.70 4.28 -0.38 -0.88 9139
0.08 -0.01 6.93 -3.90 24.34 4.28 -0.24 -1.03 9145
0.08 -0.00 5.60 -1.42 24.51 4.23 -0.29 -1.11 9151
0.07 -0.01 4.00 -0.56 24.98 4.00 -0.47 -1.19 9158
0.06 -0.01 4.21 0.58 24.42 3.61 -0.74 -1.22 9164
0.07 -0.01 4.42 6.19 19.97 3.27 -0.94 -1.20 9170
0.06 -0.01 4.01 8.96 14.92 2.92 -1.01 -1.13 9177
0.04 -0.00 5.71 17.22 9.67 2.42 -1.01 -1.06 9183
0.04 -0.00 5.73 17.01 7.59 1.73 -0.83 -0.99 9189
0.06 -0.01 6.25 11.79 6.44 1.16 -0.53 -0.90 9196
0.04 -0.00 6.93 13.57 10.80 0.49 -0.31 -0.80 9202
0.05 -0.01 5.48 11.99 8.91 0.05 -0.03 -0.72 9208
0.06 -0.01 3.70 9.23 5.52 -0.13 0.05 -0.67 9214
0.04 -0.00 2.45 8.48 3.91 -0.18 -0.02 -0.61 9221
0.04 -0.00 1.88 8.21 2.91 -0.23 -0.12 -0.51 9227
0.04 -0.00 2.01 8.19 3.04 -0.26 -0.21 -0.40 9233
0.05 -0.00 2.60 7.98 3.54 -0.27 -0.23 -0.32 9239
0.04 -0.00 3.05 7.96 3.98 -0.33 -0.17 -0.23 9246
0.03 -0.00 3.09 8.07 4.30 -0.44 -0.09 -0.16 9252
0.05 0.00 2.76 7.46 4.53 -0.58 0.00 -0.09 9259
0.06 -0.00 2.32 7.75 5.43 -0.72 0.08 -0.01 9265
0.05 -0.01 1.94 7.24 5.26 -0.84 0.10 0.05 9271
0.05 -0.00 1.56 6.72 5.57 -0.94 0.08 0.11 9277
0.06 0.00 1.14 6.04 5.85 -1.01 -0.01 0.15 9283
0.06 -0.01 1.02 5.43 6.18 -1.06 -0.08 0.19 9289
0.06 -0.01 1.19 4.94 7.09 -1.11 -0.12 0.21 9296
0.06 -0.01 1.54 4.80 8.17 -1.17 -0.14 0.22 9303
0.06 -0.01 1.98 4.75 8.95 -1.28 -0.13 0.20 9309
0.06 -0.01 2.36 4.68 9.77 -1.45 -0.07 0.18 9315
0.05 -0.01 2.61 4.48 10.31 -1.67 0.02 0.16 9321
0.05 -0.01 2.78 4.05 10.88 -1.89 0.14 0.14 9327
0.06 -0.01 2.97 3.54 11.42 -2.08 0.26 0.13 9333
0.05 -0.00 3.02 2.89 11.88 -2.28 0.38 0.13 9339
0.04 -0.00 2.93 2.23 12.17 -2.44 0.49 0.14 9347
0.05 -0.01 2.82 1.51 12.38 -2.58 0.60 0.15 9353
0.04 -0.00 2.73 0.87 12.66 -2.69 0.67 0.16 9359
0.03 -0.00 2.66 0.25 13.02 -2.78 0.72 0.18 9365
0.05 0.00 2.61 -0.24 13.35 -2.85 0.74 0.19 9371
0.05 -0.00 2.66 -0.78 13.59 -2.91 0.76 0.20 9377
0.05 -0.00 2.80 -1.37 13.72 -2.95 0.79 0.22 9384
0.05 -0.00 2.89 -1.89 13.86 -2.97 0.81 0.22 9391
0.06 -0.01 2.98 -2.38 13.98 -2.97 0.83 0.22 9397
0.05 -0.01 3.02 -2.78 14.19 -2.95 0.86 0.22 9403
0.04 -0.00 3.01 -3.03 14.02 -2.92 0.88 0.22 9409
0.05 -0.01 2.98 -3.25 14.00 -2.86 0.91 0.23 9415
0.04 -0.00 2.84 -3.54 13.89 -2.78 0.91 0.25 9422
0.03 -0.00 2.68 -3.83 13.77 -2.67 0.91 0.27 9428
0.04 -0.00 2.56 -4.20 13.66 -2.54 0.90 0.28 9435
0.04 -0.00 2.57 -4.68 13.64 -2.40 0.88 0.29 9441
0.02 -0.00 2.45 -5.10 13.92 -2.27 0.87 0.29 9447
0.04 0.00 2.35 -5.52 14.29 -2.12 0.85 0.28 9453
0.04 -0.00 2.19 -5.74 14.64 -2.00 0.82 0.26 9460
0.04 -0.00 2.16 -5.94 14.86 -1.90 0.79 0.26 9466
0.04 0.00 2.29 -6.10 14.88 -1.83 0.76 0.25 9473
0.04 -0.00 2.44 -6.17 14.71 -1.77 0.74 0.26 9479
0.04 -0.00 2.53 -6.38 14.42 -1.71 0.73 0.28 9485
0.04 -0.00 2.44 -6.48 14.43 -1.65 0.74 0.31 9491
0.05 -0.00 2.50 -6.55 14.42 -1.58 0.78 0.35 9498
0.04 -0.00 2.45 -6.58 14.35 -1.52 0.85 0.42 9504
0.04 -0.00 2.31 -6.58 14.19 -1.46 0.92 0.49 9510
0.05 -0.01 2.09 -6.62 13.81 -1.41 0.99 0.58 9517
0.04 -0.00 1.84 -6.79 13.28 -1.35 1.05 0.69 9523
0.04 -0.00 1.58 -6.78 12.56 -1.29 1.10 0.79 9529
0.04 -0.00 0.72 -7.02 13.76 -1.26 0.98 0.88 9535
0.05 -0.00 0.40 -7.41 13.16 -1.21 0.96 1.00 9542
0.04 -0.00 0.05 -7.81 13.37 -1.15 0.87 1.11 9548
0.04 0.01 -0.49 -8.00 13.56 -1.12 0.72 1.21 9554
0.04 -0.00 -0.98 -7.99 13.25 -1.14 0.53 1.30 9561
0.04 -0.00 -1.01 -8.13 12.64 -1.18 0.35 1.37 9567
0.04 0.00 -1.10 -8.34 11.69 -1.26 0.19 1.43 9574
0.05 -0.00 -1.24 -8.73 10.86 -1.27 0.16 1.49 9580
0.04 -0.00 -1.48 -9.44 10.34 -1.28 0.26 1.57 9586
0.05 0.00 -2.42 -10.29 9.91 -1.25 0.42 1.64 9592
0.05 -0.01 -2.27 -11.57 9.77 -1.22 0.50 1.64 9598
0.05 -0.01 -2.41 -13.45 9.45 -1.18 0.49 1.55 9605
0.05 -0.00 -2.17 -14.21 9.04 -1.15 0.38 1.44 9612
0.05 -0.01 -1.85 -15.26 7.45 -1.11 0.24 1.24 9618
0.05 -0.00 -1.46 -16.05 6.69 -1.05 0.17 1.01 9624
0.04 -0.00 -1.09 -16.76 6.10 -0.95 0.19 0.75 9630
0.06 -0.00 -0.42 -17.39 5.43 -0.79 0.32 0.47 9636
0.05 -0.00 -0.05 -17.73 4.91 -0.58 0.49 0.18 9643
0.04 -0.00 -1.53 -22.20 3.95 -0.34 0.53 -0.13 9650
0.05 -0.01 -3.95 -19.93 7.31 0.58 0.09 -0.38 9656
0.05 -0.00 -3.95 -15.40 3.97 0.85 -0.13 -0.59 9662
0.04 -0.00 -6.75 -17.51 9.96 1.29 -0.64 -0.71 9668
0.05 0.00 -2.19 -16.54 3.66 1.60 -1.03 -0.78 9674
0.04 -0.00 -3.67 -17.90 8.66 1.70 -1.52 -0.78 9680
0.03 -0.00 -2.54 -16.24 10.02 1.97 -1.94 -0.69 9688
0.05 -0.00 -3.69 -16.03 8.48 1.99 -2.33 -0.42 9694
0.04 0.05 -1.15 -13.58 7.71 2.11 -2.54 0.04 9700
0.03 0.19 4.44 -2.37 8.35 2.24 -2.25 0.56 9706
0.04 0.34 3.18 -0.75 12.43 2.62 -1.52 1.02 9713
0.01 0.62 -1.31 -1.85 19.54 3.03 -1.14 1.33 9719
0.01 0.83 -6.73 0.18 18.57 3.11 -1.10 1.28 9725
0.01 0.96 -8.56 -0.87 16.24 3.13 -1.16 0.80 9732
-0.01 0.94 -6.49 -3.10 24.66 3.33 -1.35 0.15 9738
0.00 1.01 -1.95 -2.28 31.54 1.24 -1.87 -0.24 9745
0.00 1.04 0.57 -2.99 10.72 -0.08 -0.24 -0.03 9751
0.01 1.07 0.78 -2.77 10.77 -0.17 -0.05 0.00 9757
0.02 1.10 1.04 -2.18 9.92 -0.11 -0.04 0.07 9763
0.01 1.11 0.91 -0.65 9.94 -0.06 -0.07 0.10 9769
-0.01 1.18 0.72 -0.21 10.09 -0.01 -0.05 0.10 9777
0.01 1.19 0.50 -0.49 10.15 -0.04 -0.03 0.09 9783
0.00 1.18 0.49 -0.88 10.22 -0.05 -0.03 0.07 9789
-0.01 1.18 0.83 -1.18 10.07 -0.05 -0.02 0.08 9795
0.02 1.27 0.67 -0.87 10.19 -0.04 -0.01 0.09 9801
0.01 1.27 0.48 -0.72 10.12 -0.04 -0.00 0.09 9808
-0.00 1.34 0.56 -0.71 9.96 -0.04 0.00 0.07 9815
0.02 1.37 0.78 -0.66 9.96 -0.03 -0.00 0.07 9821
0.01 1.34 0.73 -0.67 9.87 -0.03 -0.00 0.07 9827
0.00 1.30 0.73 -0.68 9.95 -0.03 -0.00 0.07 9833
0.01 1.32 0.78 -0.63 10.04 -0.03 -0.01 0.06 9839
0.02 1.34 0.82 -0.64 10.03 -0.02 -0.01 0.06 9846
0.00 1.32 0.79 -0.62 10.02 -0.01 -0.02 0.06 9852
0.02 1.30 0.74 -0.67 9.96 -0.01 -0.03 0.06 9859
0.02 1.28 0.74 -0.56 9.83 -0.00 -0.03 0.06 9865
0.03 1.25 0.74 -0.70 9.99 0.00 -0.04 0.06 9871
0.02 1.22 0.77 -0.68 10.04 0.00 -0.05 0.07 9877
0.03 1.23 0.67 -0.66 9.93 0.00 -0.05 0.06 9883
0.02 1.18 0.69 -0.66 10.02 0.00 -0.05 0.06 9890
0.02 1.14 0.62 -0.70 10.06 0.01 -0.05 0.07 9896
0.05 1.12 0.66 -0.66 10.04 0.01 -0.04 0.07 9903
0.04 1.09 0.65 -0.66 10.04 0.01 -0.04 0.07 9909
0.04 1.04 0.65 -0.68 9.99 0.01 -0.03 0.07 9915
0.05 1.03 0.67 -0.68 10.02 0.01 -0.03 0.07 9922
0.04 0.95 0.66 -0.66 9.99 0.01 -0.03 0.07 9928
0.03 0.90 0.68 -0.68 10.00 0.01 -0.03 0.07 9934
0.04 0.92 0.68 -0.68 9.96 0.01 -0.03 0.07 9940
0.05 0.87 0.71 -0.68 9.99 0.01 -0.03 0.06 9947
0.05 0.84 0.70 -0.66 9.98 0.00 -0.03 0.06 9953
0.05 0.80 0.66 -0.68 10.00 0.01 -0.03 0.06 9959
0.06 0.77 0.73 -0.68 9.93 0.00 -0.03 0.06 9966
0.06 0.74 0.67 -0.71 9.98 0.00 -0.02 0.06 9972
0.05 0.74 0.70 -0.70 9.97 0.00 -0.02 0.05 9978
0.05 0.72 0.66 -0.69 9.98 0.00 -0.02 0.05 9985
0.06 0.72 0.69 -0.69 9.95 0.00 -0.02 0.06 9991
0.06 0.69 0.68 -0.71 9.98 0.00 -0.01 0.06 9997
0.05 0.68 0.65 -0.67 9.95 -0.00 -0.01 0.06 10003
0.06 0.66 0.69 -0.68 9.96 0.00 -0.01 0.06 10010
0.06 0.64 0.67 -0.68 9.96 0.00 -0.01 0.06 10016
0.05 0.61 0.70 -0.69 9.93 -0.00 -0.01 0.06 10022
0.07 0.63 0.67 -0.70 9.93 -0.00 -0.01 0.06 10029
0.05 0.61 0.69 -0.70 9.89 -0.00 -0.00 0.06 10035
0.05 0.58 0.71 -0.66 9.96 -0.01 0.00 0.06 10041
0.07 0.54 0.66 -0.68 9.93 -0.01 0.01 0.06 10048
0.06 0.56 0.70 -0.66 9.96 -0.01 0.01 0.06 10054
0.05 0.57 0.71 -0.67 9.98 -0.01 0.01 0.05 10060
0.07 0.60 0.66 -0.70 9.98 -0.01 0.02 0.05 10066
0.06 0.59 0.69 -0.70 9.99 -0.01 0.02 0.05 10073
0.05 0.63 0.67 -0.67 9.94 -0.01 0.03 0.05 10079
0.05 0.62 0.74 -0.71 10.02 -0.01 0.03 0.05 10086
0.06 0.57 0.67 -0.71 9.90 -0.01 0.03 0.05 10092
0.05 0.55 0.76 -0.69 9.92 -0.01 0.03 0.05 10098
0.07 0.55 0.80 -0.68 9.94 -0.02 0.03 0.05 10104
0.07 0.54 0.79 -0.68 9.98 -0.02 0.03 0.05 10110
0.06 0.51 0.76 -0.64 9.95 -0.02 0.03 0.05 10118
0.08 0.53 0.80 -0.65 10.00 -0.02 0.03 0.05 10124
0.09 0.49 0.84 -0.67 10.06 -0.01 0.02 0.05 10130
0.07 0.43 0.81 -0.61 9.95 0.00 0.02 0.05 10136
0.11 0.45 0.82 -0.65 10.03 0.01 0.01 0.06 10142
0.13 0.35 0.85 -0.65 10.05 0.02 0.01 0.06 10149
0.14 0.30 0.81 -0.62 10.04 0.03 0.02 0.07 10156
0.16 0.24 0.84 -0.68 10.10 0.04 0.01 0.07 10162
0.17 0.19 0.82 -0.70 10.07 0.05 0.01 0.08 10168
0.19 0.16 0.80 -0.78 10.09 0.05 0.01 0.08 10175
0.20 0.08 0.79 -0.78 10.17 0.06 0.01 0.07 10181
0.20 0.05 0.68 -1.15 10.22 0.08 0.01 0.09 10187
0.23 0.02 0.84 -0.86 10.53 0.10 0.01 0.10 10193
0.24 -0.01 1.61 -0.82 10.74 0.16 0.01 0.10 10200
0.25 -0.00 1.10 -0.70 11.36 0.30 0.05 0.09 10207
0.24 -0.02 1.37 -1.05 12.61 0.51 0.11 0.03 10213
0.25 -0.02 1.94 -1.19 14.54 1.00 0.32 -0.11 10219
0.25 -0.02 2.27 -0.64 18.06 1.94 0.55 -0.28 10225
0.24 -0.02 2.49 -1.01 19.03 2.92 0.43 -0.44 10232
0.24 -0.02 2.80 -1.73 18.71 3.48 0.02 -0.57 10238
0.23 -0.02 3.21 -1.00 18.74 3.84 -0.30 -0.67 10245
0.16 -0.01 3.47 -0.86 18.02 4.09 -0.44 -0.80 10251
0.18 0.00 3.45 -1.59 16.82 4.23 -0.43 -0.99 10258
0.14 -0.01 2.06 -2.05 18.71 4.28 -0.38 -0.98 10264
0.10 -0.00 3.09 -2.73 19.71 4.28 -0.27 -0.91 10270
0.09 -0.01 4.33 -3.93 20.99 4.28 -0.28 -0.91 10276
0.10 -0.01 7.05 -3.82 23.42 4.28 -0.27 -0.98 10284
0.08 0.01 7.57 -3.69 25.12 4.28 -0.22 -1.10 10290
0.09 -0.01 6.99 -1.16 24.74 4.28 -0.22 -1.25 10296
0.06 -0.01 5.02 1.77 25.19 4.11 -0.30 -1.38 10302
0.07 -0.01 4.84 4.35 24.86 3.67 -0.57 -1.39 10309
0.05 -0.00 4.47 9.08 21.28 3.23 -0.81 -1.32 10315
0.05 -0.00 5.02 10.52 15.49 2.82 -0.96 -1.24 10321
0.06 -0.01 7.21 20.59 13.10 2.33 -0.96 -1.19 10328
0.04 -0.00 6.38 15.50 7.39 1.76 -0.79 -1.16 10334
0.04 -0.00 7.88 15.75 7.48 1.35 -0.65 -1.18 10341
0.04 -0.00 8.08 17.68 9.21 0.77 -0.39 -1.18 10347
0.04 -0.00 6.75 16.49 7.04 0.34 -0.01 -1.16 10353
0.04 -0.00 5.56 14.49 5.45 0.04 0.16 -1.12 10359
0.04 -0.00 4.60 13.69 4.18 -0.17 0.19 -1.06 10365
0.03 -0.00 3.77 13.12 3.71 -0.36 0.20 -0.97 10373
0.05 -0.01 3.53 12.36 3.52 -0.52 0.19 -0.87 10379
0.05 -0.01 3.45 11.59 3.74 -0.66 0.19 -0.79 10385
0.05 -0.00 3.35 10.85 4.19 -0.79 0.20 -0.69 10391
0.07 -0.01 3.07 10.11 4.38 -0.91 0.23 -0.60 10398
0.05 -0.01 2.64 9.62 4.83 -1.02 0.25 -0.51 10404
0.05 -0.01 2.25 8.78 5.59 -1.12 0.25 -0.44 10411
0.07 -0.01 1.98 8.19 6.79 -1.22 0.24 -0.39 10417
0.05 -0.00 2.19 7.44 8.12 -1.33 0.28 -0.33 10423
0.05 -0.01 2.52 6.72 9.19 -1.49 0.36 -0.27 10429
0.05 -0.01 2.66 6.11 9.87 -1.64 0.46 -0.21 10435
0.06 -0.01 2.67 5.45 10.53 -1.87 0.60 -0.15 10442
0.04 -0.00 2.63 4.65 11.27 -2.10 0.69 -0.09 10448
0.05 -0.01 2.51 3.78 11.82 -2.31 0.78 -0.04 10455
0.04 -0.00 2.17 3.02 12.04 -2.49 0.84 0.02 10461
0.04 -0.00 1.94 2.03 12.05 -2.63 0.88 0.07 10467
0.07 -0.01 1.80 1.09 11.98 -2.73 0.91 0.13 10474
0.04 -0.00 1.77 0.23 12.10 -2.78 0.92 0.18 10480
0.04 -0.00 1.79 -0.46 12.33 -2.80 0.92 0.22 10486
0.05 -0.01 1.84 -1.14 12.62 -2.78 0.93 0.25 10492
0.04 -0.00 1.87 -1.69 12.89 -2.76 0.94 0.28 10499
0.04 -0.00 1.74 -2.16 13.19 -2.72 0.96 0.31 10506
0.05 -0.01 1.49 -2.53 13.58 -2.69 0.98 0.35 10512
0.04 -0.00 1.15 -2.98 13.90 -2.66 0.96 0.39 10518
0.04 -0.00 0.72 -3.42 14.20 -2.62 0.90 0.43 10524
0.05 -0.01 0.51 -3.88 14.59 -2.57 0.81 0.47 10530
0.04 -0.00 0.47 -4.30 14.85 -2.50 0.73 0.50 10537
0.04 0.00 0.63 -4.66 14.95 -2.43 0.63 0.52 10544
0.04 -0.00 0.93 -4.73 15.35 -2.36 0.57 0.54 10550
0.03 -0.00 1.37 -4.88 15.44 -2.33 0.56 0.54 10556
0.05 -0.00 1.90 -4.99 15.48 -2.31 0.62 0.54 10563
0.04 -0.00 2.41 -5.13 15.31 -2.31 0.71 0.54 10569
0.04 -0.00 2.62 -5.33 15.12 -2.31 0.82 0.55 10575
0.05 -0.01 2.69 -5.56 14.69 -2.28 0.95 0.57 10582
0.04 -0.00 2.67 -5.78 14.27 -2.23 1.07 0.60 10588
0.04 -0.00 2.52 -5.99 13.75 -2.15 1.16 0.67 10595
0.05 -0.01 2.28 -6.20 13.29 -2.03 1.23 0.75 10601
0.04 -0.00 1.95 -6.43 12.80 -1.88 1.26 0.86 10607
0.05 -0.00 1.57 -6.84 12.60 -1.70 1.28 0.99 10613
0.05 -0.01 1.18 -7.39 12.54 -1.51 1.28 1.11 10619
0.05 -0.00 0.86 -8.03 12.58 -1.31 1.22 1.22 10627
0.05 0.00 -1.54 -13.28 13.00 -1.04 0.98 1.31 10633
0.05 -0.00 -3.21 -7.93 15.50 -0.47 0.16 1.30 10639
0.04 -0.00 -1.50 -7.67 10.62 -0.45 0.04 1.40 10645
0.06 -0.01 -0.44 -6.90 8.92 -0.45 0.08 1.53 10651
0.04 -0.00 0.32 -7.98 11.62 -0.53 0.03 1.64 10658
0.04 -0.00 0.00 -9.17 13.77 -0.59 -0.02 1.70 10664
0.05 -0.01 -0.75 -8.67 15.04 -0.64 -0.23 1.71 10671
0.04 -0.00 -1.00 -8.93 14.56 -0.67 -0.26 1.71 10677
0.04 -0.00 -1.15 -9.07 13.02 -0.73 -0.24 1.72 10683
0.06 -0.01 -1.43 -8.81 11.21 -0.83 -0.11 1.74 10690
0.04 -0.00 -2.18 -8.44 10.74 -0.97 0.19 1.80 10696
0.04 -0.00 -3.23 -9.14 10.75 -1.13 0.55 1.85 10702
0.05 -0.01 -3.76 -10.65 10.60 -1.28 0.69 1.81 10708
0.04 -0.00 -3.99 -12.14 10.12 -1.37 0.53 1.66 10716
0.06 -0.01 -3.91 -13.16 9.01 -1.39 0.23 1.45 10722
0.05 -0.00 -3.54 -13.67 7.55 -1.31 -0.06 1.21 10728
0.05 -0.00 -2.81 -14.60 6.13 -1.14 -0.23 0.95 10734
0.05 -0.01 -1.98 -21.62 3.78 -0.84 -0.38 0.66 10741
0.05 -0.00 -2.42 -17.38 4.77 -0.12 -0.44 0.23 10747
0.04 0.00 -1.08 -16.20 0.89 0.09 -0.34 -0.09 10754
0.04 -0.00 -0.23 -17.12 3.93 0.49 -0.28 -0.47 10760
0.05 -0.00 0.15 -18.07 8.44 0.73 -0.31 -0.80 10766
0.04 0.00 -0.23 -16.84 6.40 1.00 -0.39 -1.10 10773
0.04 -0.00 -1.78 -15.23 6.90 1.17 -0.58 -1.29 10779
0.04 -0.00 -2.08 -15.92 3.89 1.30 -0.78 -1.35 10785
0.05 -0.00 -1.73 -18.33 5.83 1.53 -1.10 -1.31 10791
0.04 0.01 -1.04 -17.79 4.24 1.76 -1.43 -1.17 10799
0.04 0.08 0.03 -16.12 2.85 1.91 -1.66 -0.88 10805
0.05 0.18 4.16 -4.95 6.80 2.24 -1.67 -0.50 10811
0.02 0.34 6.24 -1.70 13.82 2.81 -1.51 -0.18 10817
0.03 0.62 2.48 -3.21 21.60 3.21 -1.28 0.12 10824
0.02 0.68 -0.99 -0.84 22.23 3.20 -1.26 0.23 10830
0.01 0.85 -0.96 -1.55 20.72 3.04 -1.18 0.12 10836
0.01 0.91 -2.31 -3.09 36.05 2.14 -2.27 -0.05 10843
0.00 0.96 0.24 -3.15 11.74 0.16 -0.53 0.13 10850
0.02 1.02 -1.17 -2.89 11.68 -0.09 -0.06 0.07 10856
0.02 1.00 0.46 -1.80 10.65 -0.09 -0.01 0.06 10862
0.02 1.05 0.74 -1.08 10.18 -0.06 0.02 0.06 10868
0.01 1.04 0.96 -0.35 9.76 -0.03 0.02 0.09 10875
0.00 1.08 0.78 -0.58 10.19 -0.03 0.01 0.09 10882
0.02 1.09 0.64 -0.76 10.07 -0.04 0.00 0.07 10888
0.01 1.16 0.69 -0.87 10.00 -0.04 0.01 0.07 10894
0.00 1.20 0.77 -0.86 10.12 -0.05 0.02 0.08 10900
0.01 1.27 0.56 -0.80 10.28 -0.05 0.02 0.08 10907
0.00 1.29 0.64 -0.73 10.00 -0.05 0.03 0.07 10913
0.00 1.28 0.74 -0.72 10.03 -0.06 0.02 0.07 10919
-0.00 1.31 0.80 -0.72 10.09 -0.05 0.02 0.07 10926
-0.02 1.37 0.71 -0.72 10.06 -0.04 0.01 0.07 10933
-0.00 1.42 0.72 -0.67 9.99 -0.04 0.01 0.06 10939
-0.01 1.44 0.73 -0.63 10.03 -0.04 0.01 0.05 10945
0.00 1.40 0.82 -0.63 10.10 -0.03 0.00 0.05 10951
0.01 1.41 0.80 -0.62 10.04 -0.02 0.00 0.06 10958
-0.01 1.39 0.82 -0.64 10.09 -0.02 -0.00 0.05 10964
-0.01 1.43 0.85 -0.61 10.06 -0.01 -0.01 0.05 10971
-0.01 1.44 0.83 -0.63 9.97 -0.01 -0.02 0.06 10977
-0.02 1.41 0.79 -0.64 9.96 -0.00 -0.03 0.05 10983
-0.00 1.38 0.71 -0.66 10.00 0.00 -0.03 0.05 10990
-0.00 1.34 0.77 -0.66 9.99 0.00 -0.03 0.05 10996
-0.02 1.31 0.71 -0.61 10.02 0.00 -0.03 0.06 11002
0.01 1.24 0.73 -0.64 9.98 0.00 -0.02 0.06 11009
-0.00 1.21 0.76 -0.62 10.03 0.00 -0.02 0.06 11015
0.00 1.19 0.74 -0.61 9.98 0.01 -0.02 0.06 11022
0.01 1.18 0.79 -0.63 9.98 0.00 -0.02 0.06 11028
0.01 1.12 0.79 -0.62 9.95 0.01 -0.02 0.05 11034
0.01 1.09 0.77 -0.65 9.94 0.01 -0.02 0.05 11040
0.02 1.07 0.79 -0.65 9.91 0.00 -0.02 0.05 11046
0.02 1.03 0.82 -0.66 9.92 0.00 -0.03 0.04 11054
0.01 1.01 0.75 -0.66 9.95 0.00 -0.03 0.05 11060
0.03 1.05 0.77 -0.65 9.94 0.00 -0.03 0.04 11066
0.02 1.01 0.78 -0.67 9.92 -0.00 -0.03 0.04 11072
0.01 1.01 0.76 -0.61 9.95 0.00 -0.03 0.04 11078
0.02 1.00 0.74 -0.67 9.90 0.00 -0.02 0.04 11084
0.01 0.98 0.74 -0.68 9.98 0.00 -0.02 0.04 11091
0.01 0.96 0.75 -0.64 9.97 0.00 -0.02 0.04 11098
0.02 0.93 0.68 -0.67 9.97 0.00 -0.02 0.04 11104
0.02 0.92 0.76 -0.66 9.98 0.00 -0.01 0.04 11110
0.01 0.90 0.78 -0.66 10.00 0.00 -0.01 0.04 11116
0.02 0.87 0.74 -0.66 10.00 0.00 -0.01 0.04 11122
0.03 0.90 0.76 -0.68 9.97 -0.00 -0.01 0.05 11129
0.02 0.91 0.79 -0.67 9.95 -0.00 -0.00 0.05 11136
0.02 0.91 0.77 -0.67 10.03 -0.01 -0.00 0.05 11142
0.02 0.90 0.76 -0.65 10.00 -0.01 -0.00 0.05 11148
0.02 0.90 0.79 -0.65 9.98 -0.01 -0.00 0.05 11154
0.03 0.90 0.79 -0.64 9.91 -0.00 -0.00 0.05 11161
0.02 0.90 0.81 -0.63 9.92 -0.01 -0.00 0.05 11167
0.02 0.89 0.78 -0.67 9.95 -0.01 -0.00 0.05 11173
0.03 0.90 0.69 -0.66 9.89 -0.01 -0.00 0.05 11180
0.03 0.89 0.75 -0.65 9.89 -0.01 0.01 0.05 11186
0.01 0.89 0.72 -0.66 9.99 -0.02 0.01 0.04 11193
0.03 0.90 0.75 -0.64 9.94 -0.02 0.02 0.04 11199
0.03 0.90 0.77 -0.66 10.00 -0.02 0.03 0.04 11205
0.01 0.89 0.77 -0.66 9.94 -0.03 0.02 0.03 11211
0.03 0.91 0.83 -0.66 9.93 -0.02 0.02 0.04 11217
0.03 0.90 0.87 -0.66 9.89 -0.02 0.02 0.03 11224
0.02 0.91 0.80 -0.59 9.82 -0.01 0.01 0.04 11231
0.03 0.91 0.89 -0.59 9.93 -0.01 0.01 0.04 11237
0.04 0.90 0.88 -0.58 9.95 -0.00 0.01 0.04 11243
0.03 0.84 0.87 -0.55 10.00 0.00 0.01 0.04 11249
0.04 0.83 0.85 -0.58 9.94 0.02 0.01 0.05 11255
0.06 0.70 0.85 -0.58 9.92 0.02 0.00 0.04 11261
0.06 0.69 0.85 -0.56 9.98 0.03 -0.00 0.05 11269
0.05 0.64 0.88 -0.59 10.02 0.04 -0.01 0.05 11275
0.06 0.54 0.92 -0.62 10.06 0.05 -0.02 0.05 11281
0.09 0.43 0.90 -0.62 10.04 0.06 -0.02 0.06 11287
0.09 0.38 0.91 -0.64 10.10 0.06 -0.02 0.06 11294
0.09 0.27 0.86 -0.50 10.13 0.06 -0.02 0.05 11300
0.11 0.21 0.82 -0.71 10.13 0.10 -0.01 0.06 11307
0.13 0.16 0.84 -0.78 10.17 0.07 -0.00 0.05 11313
0.12 0.06 0.91 -0.42 10.32 0.08 -0.01 0.06 11320
0.16 0.05 0.89 -0.81 10.35 0.11 0.00 0.06 11326
0.17 0.01 1.50 -1.55 10.81 0.16 0.01 0.06 11332
0.17 0.00 0.87 -0.80 10.74 0.27 0.02 0.05 11338
0.20 -0.01 1.51 -0.75 11.58 0.45 0.08 -0.02 11344
0.19 -0.02 2.11 -0.63 13.43 0.84 0.25 -0.15 11352
0.21 -0.02 2.37 -0.88 16.70 1.69 0.58 -0.34 11358
0.21 -0.02 2.29 -1.03 19.11 2.70 0.57 -0.52 11364
0.19 -0.00 2.47 -0.88 17.98 3.25 0.21 -0.61 11370
0.21 -0.00 2.59 -1.08 17.72 3.57 -0.09 -0.67 11377
0.20 -0.01 3.19 -1.24 18.05 3.86 -0.26 -0.74 11383
0.17 0.01 3.26 -1.62 17.79 4.11 -0.31 -0.81 11389
0.17 0.00 4.36 -2.51 16.70 4.21 -0.29 -0.90 11397
0.12 0.01 2.93 -2.31 16.67 4.24 -0.24 -1.03 11403
0.09 0.01 1.94 -3.14 19.07 4.28 -0.15 -0.85 11409
0.08 -0.00 2.82 -3.54 19.87 4.28 -0.08 -0.81 11415
0.08 0.01 5.73 -3.21 22.97 4.28 -0.03 -0.85 11422
0.08 -0.00 6.69 -3.42 23.95 4.28 0.01 -0.97 11428
0.07 -0.00 5.88 -2.12 23.22 4.25 0.04 -1.09 11435
0.07 -0.01 4.29 0.28 23.64 4.10 0.06 -1.16 11441
0.07 -0.01 3.36 1.26 23.34 3.73 -0.12 -1.18 11447
0.07 0.00 3.03 4.40 20.95 3.30 -0.46 -1.16 11454
0.07 -0.00 3.27 5.55 16.11 3.06 -0.71 -1.11 11460
0.06 -0.01 4.59 16.70 14.75 2.75 -0.93 -1.05 11466
0.07 -0.01 4.92 17.40 11.27 2.13 -0.86 -1.08 11473
0.05 -0.00 6.01 14.54 7.23 1.53 -0.75 -1.10 11480
0.05 -0.00 7.40 15.78 9.40 1.03 -0.67 -1.09 11486
0.04 -0.00 6.44 16.77 9.81 0.49 -0.36 -1.05 11492
0.04 -0.00 5.32 14.55 7.72 0.12 -0.07 -1.03 11498
0.04 0.00 4.44 12.97 5.96 -0.10 -0.03 -0.98 11505
0.04 -0.00 3.60 12.30 5.14 -0.28 -0.07 -0.91 11511
0.03 -0.00 3.41 12.06 4.84 -0.46 -0.13 -0.81 11517
0.04 -0.00 3.66 11.42 4.90 -0.57 -0.15 -0.71 11524
0.04 -0.00 3.86 10.90 5.32 -0.72 -0.13 -0.59 11530
0.04 -0.00 3.93 10.45 5.05 -0.86 -0.04 -0.46 11537
0.06 -0.01 3.66 9.90 5.28 -1.01 0.05 -0.33 11543
0.05 -0.00 3.28 8.70 5.79 -1.16 0.11 -0.21 11549
0.03 -0.00 2.86 8.44 6.37 -1.28 0.17 -0.12 11555
0.05 0.00 2.37 7.59 6.89 -1.39 0.20 -0.02 11561
0.04 -0.00 2.03 6.89 7.56 -1.49 0.20 0.05 11568
0.04 -0.00 1.78 6.14 8.21 -1.57 0.16 0.11 11574
0.04 -0.00 1.79 5.48 8.91 -1.67 0.15 0.15 11581
0.05 -0.00 2.02 4.83 9.53 -1.80 0.20 0.16 11587
0.04 -0.00 2.11 4.16 10.21 -1.90 0.26 0.15 11593
0.03 -0.00 2.10 3.52 10.81 -2.05 0.36 0.12 11599
0.05 -0.00 1.99 2.77 11.29 -2.20 0.42 0.06 11606
0.04 -0.00 1.69 2.18 11.81 -2.34 0.51 -0.00 11613
0.04 0.00 1.44 1.50 12.17 -2.47 0.58 -0.05 11619
0.05 0.00 1.13 0.09 12.41 -2.56 0.62 -0.13 11625
0.04 -0.00 1.02 -0.06 12.47 -2.62 0.62 -0.13 11631
0.04 0.01 0.94 -0.72 12.56 -2.66 0.59 -0.14 11637
0.04 0.00 0.92 -1.35 12.60 -2.66 0.54 -0.14 11644
0.04 -0.00 0.89 -1.86 12.60 -2.64 0.49 -0.13 11651
0.05 -0.00 0.74 -2.31 12.68 -2.59 0.43 -0.11 11657
0.04 -0.00 0.48 -2.72 12.72 -2.53 0.37 -0.08 11663
0.04 -0.00 0.31 -3.22 12.83 -2.44 0.31 -0.06 11670
0.05 -0.00 0.20 -3.55 13.22 -2.34 0.24 -0.04 11676
0.04 -0.00 0.11 -3.93 13.62 -2.24 0.17 -0.03 11682
0.04 0.00 0.25 -4.16 13.92 -2.15 0.13 -0.02 11688
0.04 -0.00 0.46 -4.24 14.02 -2.04 0.11 -0.03 11695
0.04 -0.00 0.92 -4.42 14.15 -2.01 0.13 -0.05 11702
0.04 0.01 1.60 -4.55 14.12 -1.95 0.20 -0.08 11708
0.04 -0.00 2.31 -4.66 14.29 -1.91 0.36 -0.10 11714
0.04 -0.00 2.87 -4.74 14.68 -1.89 0.56 -0.11 11720
0.05 -0.00 3.61 -4.76 15.15 -1.91 0.77 -0.11 11726
0.04 -0.00 3.14 -4.94 15.43 -1.98 1.06 -0.08 11734
0.04 -0.00 3.09 -5.20 15.80 -2.08 1.33 -0.04 11740
0.05 -0.01 2.83 -5.70 16.23 -2.19 1.51 0.06 11746
0.04 -0.00 2.15 -6.11 16.26 -2.31 1.58 0.12 11752
0.04 -0.00 1.58 -6.50 15.36 -2.40 1.55 0.23 11758
0.05 -0.00 1.48 -6.96 14.97 -2.46 1.45 0.35 11765
0.04 -0.00 1.36 -7.30 14.13 -2.45 1.33 0.48 11771
0.04 0.01 1.05 -7.78 13.79 -2.43 1.09 0.59 11778
0.04 -0.00 1.40 -8.39 12.76 -2.29 1.06 0.70 11784
0.03 -0.00 1.70 -8.88 12.08 -2.10 1.02 0.80 11791
0.04 0.00 1.66 -9.07 11.39 -1.88 0.99 0.88 11797
0.04 -0.00 1.39 -9.37 11.02 -1.65 0.98 0.94 11803
0.03 -0.00 1.13 -9.62 11.07 -1.43 0.96 0.98 11809
0.05 -0.01 0.47 -9.61 11.05 -1.24 0.91 1.03 11815
0.04 -0.00 -0.49 -9.44 10.78 -1.04 0.87 1.09 11823
0.03 -0.00 -1.34 -9.11 10.50 -0.87 0.86 1.18 11829
0.05 -0.01 -1.99 -9.37 10.59 -0.74 0.85 1.30 11835
0.04 -0.00 -2.38 -9.82 10.75 -0.66 0.80 1.39 11841
0.04 -0.00 -2.65 -10.98 10.97 -0.62 0.69 1.44 11847
0.04 -0.00 -2.79 -10.95 11.04 -0.62 0.55 1.48 11854
0.03 -0.00 -2.84 -11.51 10.57 -0.65 0.43 1.48 11860
0.05 -0.01 -2.77 -12.09 9.77 -0.70 0.34 1.45 11867
0.04 -0.00 -2.48 -13.06 9.04 -0.75 0.30 1.38 11873
0.04 0.00 -2.12 -14.20 8.25 -0.76 0.30 1.27 11880
0.05 -0.01 -1.94 -15.22 6.89 -0.73 0.33 1.11 11886
0.04 -0.00 -1.88 -16.19 6.62 -0.66 0.40 0.90 11892
0.04 -0.00 -1.89 -16.88 5.93 -0.55 0.48 0.66 11898
0.05 -0.00 -2.05 -17.55 5.34 -0.42 0.54 0.39 11905
0.04 -0.00 -2.17 -17.79 4.98 -0.27 0.57 0.11 11912
0.05 0.00 -2.37 -17.76 4.96 -0.09 0.56 -0.16 11918
0.04 -0.00 -2.63 -17.68 5.07 0.10 0.48 -0.41 11924
0.03 -0.00 -10.79 -23.51 29.22 1.19 -0.79 -0.60 11930
0.05 -0.01 -3.03 -14.49 3.44 1.57 -0.97 -0.64 11937
0.04 -0.00 -7.09 -16.84 1.10 1.77 -1.86 -0.74 11943
0.04 -0.00 -5.67 -18.79 6.51 2.12 -2.50 -0.63 11950
0.04 -0.00 -2.22 -15.70 6.95 2.27 -3.00 -0.52 11956
0.04 0.05 2.41 -3.35 7.20 2.29 -3.07 -0.45 11962
0.03 0.17 3.33 5.48 9.51 2.44 -2.32 -0.25 11969
0.02 0.42 4.36 -3.33 17.66 2.65 -1.81 0.09 11975
-0.00 0.79 -0.28 2.64 21.24 2.98 -1.61 0.30 11981
0.01 0.99 -4.07 -1.35 14.12 3.11 -1.55 0.18 11987
-0.01 1.08 -3.01 -2.93 17.17 3.59 -1.48 -0.15 11995
-0.02 1.15 0.89 -8.24 48.60 4.19 -1.46 -0.32 12001
-0.01 1.17 -1.34 -1.41 15.75 0.64 -0.89 -0.07 12007
0.00 1.26 1.60 -4.35 10.96 -0.09 -0.04 0.04 12014
0.01 1.34 0.28 -3.13 11.29 -0.11 -0.02 0.07 12020
-0.00 1.36 0.51 -0.88 10.52 -0.06 -0.03 0.10 12026
0.02 1.37 0.46 -0.25 10.04 -0.01 0.00 0.08 12033
0.00 1.31 0.47 -0.85 9.86 -0.00 0.02 0.06 12040
0.02 1.32 0.70 -0.99 9.93 -0.02 0.02 0.08 12046
0.03 1.31 0.72 -0.97 9.96 -0.02 0.02 0.10 12052
0.01 1.33 0.57 -0.88 10.14 -0.02 0.02 0.11 12058
0.02 1.30 0.51 -0.89 10.02 -0.02 0.02 0.10 12064
0.03 1.30 0.68 -0.97 10.04 -0.02 0.02 0.09 12071
0.02 1.30 0.74 -0.96 9.94 -0.02 0.01 0.09 12078
0.01 1.33 0.60 -0.87 9.97 -0.03 0.01 0.08 12084
0.02 1.32 0.60 -0.89 10.00 -0.02 0.02 0.08 12090
-0.01 1.35 0.66 -0.88 10.00 -0.02 0.02 0.06 12096
-0.01 1.37 0.66 -0.84 9.98 -0.02 0.02 0.07 12103
-0.01 1.36 0.68 -0.82 9.95 -0.02 0.02 0.07 12109
-0.02 1.33 0.73 -0.79 9.98 -0.01 0.02 0.06 12115
-0.01 1.34 0.77 -0.78 9.96 -0.00 0.02 0.06 12122
-0.00 1.33 0.79 -0.83 9.91 0.00 0.01 0.06 12128
-0.00 1.28 0.75 -0.86 9.92 0.01 0.00 0.06 12135
0.01 1.25 0.68 -0.91 9.98 0.01 -0.00 0.06 12141
0.01 1.16 0.69 -0.88 9.91 0.01 -0.01 0.07 12147
0.00 1.16 0.69 -0.86 10.04 0.01 -0.01 0.07 12153
0.00 1.10 0.68 -0.86 9.96 0.01 -0.02 0.07 12160
0.02 1.06 0.71 -0.84 9.98 0.01 -0.02 0.07 12166
0.01 1.02 0.68 -0.87 9.96 0.02 -0.02 0.07 12173
0.03 1.02 0.67 -0.84 9.97 0.01 -0.02 0.07 12179
0.04 0.94 0.66 -0.85 9.96 0.02 -0.01 0.08 12185
0.04 0.90 0.72 -0.86 9.92 0.02 -0.01 0.07 12191
0.04 0.89 0.70 -0.86 9.97 0.02 -0.01 0.07 12197
0.04 0.88 0.68 -0.92 9.98 0.02 -0.01 0.07 12205
0.03 0.79 0.67 -0.86 9.95 0.01 -0.01 0.06 12211
0.05 0.80 0.70 -0.89 9.99 0.01 -0.01 0.06 12217
0.06 0.75 0.68 -0.88 9.95 0.01 -0.01 0.06 12223
0.05 0.71 0.69 -0.88 9.97 0.01 -0.01 0.06 12229
0.06 0.74 0.70 -0.89 9.96 0.00 -0.01 0.06 12235
0.05 0.72 0.69 -0.86 9.96 0.00 -0.01 0.06 12242
0.06 0.69 0.68 -0.88 10.00 0.00 -0.01 0.06 12249
0.06 0.69 0.66 -0.90 9.97 -0.00 -0.01 0.06 12255
0.07 0.65 0.69 -0.86 9.99 0.00 -0.01 0.06 12261
0.06 0.66 0.69 -0.86 9.96 -0.00 -0.01 0.06 12267
0.07 0.64 0.72 -0.89 9.98 -0.00 -0.00 0.06 12274
0.07 0.65 0.71 -0.89 9.95 -0.00 -0.00 0.06 12280
0.06 0.63 0.72 -0.90 9.91 0.00 -0.00 0.06 12286
0.07 0.61 0.73 -0.90 9.92 -0.00 0.00 0.06 12293
0.07 0.62 0.74 -0.87 9.92 -0.00 0.00 0.06 12299
0.07 0.60 0.77 -0.87 9.99 -0.00 0.00 0.06 12305
0.06 0.59 0.75 -0.86 9.90 -0.00 -0.00 0.06 12312
0.07 0.55 0.76 -0.88 9.93 0.00 0.00 0.06 12318
0.07 0.54 0.75 -0.88 9.91 -0.01 0.00 0.05 12324
0.06 0.56 0.76 -0.86 9.89 -0.00 0.00 0.05 12331
0.08 0.56 0.74 -0.95 9.90 -0.00 0.01 0.06 12337
0.07 0.55 0.74 -0.90 9.90 -0.01 0.01 0.05 12343
0.07 0.53 0.70 -0.93 9.89 -0.01 0.01 0.05 12350
0.07 0.57 0.69 -0.88 9.84 -0.02 0.02 0.06 12356
0.06 0.56 0.72 -0.88 9.90 -0.02 0.02 0.05 12362
0.06 0.57 0.73 -0.89 9.90 -0.02 0.02 0.06 12368
0.08 0.57 0.74 -0.85 9.90 -0.02 0.03 0.06 12375
0.06 0.56 0.78 -0.82 9.89 -0.02 0.02 0.06 12381
0.06 0.59 0.82 -0.84 9.86 -0.01 0.02 0.06 12388
0.08 0.59 0.82 -0.83 9.94 -0.02 0.01 0.06 12394
0.07 0.51 0.82 -0.85 9.93 -0.01 0.00 0.06 12400
0.07 0.45 0.84 -0.83 9.97 -0.01 -0.01 0.07 12406
0.07 0.47 0.78 -0.82 9.98 0.00 -0.02 0.06 12412
0.08 0.40 0.83 -0.87 10.07 0.01 -0.02 0.06 12420
0.09 0.36 0.82 -0.86 10.06 0.02 -0.02 0.06 12426
0.11 0.31 0.80 -0.89 10.09 0.03 -0.01 0.07 12432
0.12 0.21 0.81 -0.88 10.10 0.03 -0.01 0.07 12438
0.14 0.17 0.80 -0.91 10.10 0.04 -0.01 0.07 12445
0.14 0.16 0.87 -0.91 9.98 0.05 -0.03 0.07 12451
0.16 0.10 0.83 -1.00 10.06 0.05 -0.01 0.08 12457
0.17 0.07 0.91 -1.00 9.97 0.06 -0.00 0.08 12464
0.17 0.02 1.10 -1.22 9.90 0.09 0.01 0.08 12470
0.16 -0.02 1.04 -1.11 10.20 0.16 0.03 0.08 12476
0.17 -0.00 1.05 -1.41 10.46 0.24 0.06 0.08 12483
0.17 -0.02 1.30 -1.11 11.15 0.43 0.12 0.06 12489
0.17 -0.02 1.42 -0.63 12.83 0.85 0.33 -0.01 12495
0.19 -0.01 2.13 -1.26 16.24 1.68 0.67 -0.14 12502
0.18 -0.02 2.29 -0.81 19.94 2.71 0.68 -0.30 12509
0.17 -0.01 2.43 -0.96 19.92 3.42 0.33 -0.46 12515
0.17 -0.01 2.72 -0.86 18.55 3.82 0.07 -0.58 12521
0.14 -0.01 3.60 -1.04 18.48 4.11 0.01 -0.68 12527
0.14 -0.00 4.06 -1.42 19.53 4.27 -0.06 -0.82 12534
0.09 -0.01 6.57 -3.48 17.25 4.28 -0.05 -1.04 12540
0.07 -0.00 3.40 -2.08 20.94 4.28 -0.01 -1.14 12547
0.08 -0.00 4.96 -3.65 19.82 4.28 0.25 -1.11 12553
0.06 -0.01 6.36 -3.41 23.05 4.28 0.38 -1.14 12560
0.07 -0.01 7.82 -1.50 25.93 4.28 0.38 -1.24 12566
0.07 -0.01 6.62 0.43 25.48 4.28 0.28 -1.36 12572
0.08 -0.01 4.91 4.56 25.01 4.18 0.18 -1.41 12578
0.10 -0.01 3.65 7.31 23.61 3.74 0.05 -1.39 12584
0.08 -0.01 2.32 12.38 18.47 3.16 -0.21 -1.40 12592
0.08 -0.01 3.25 15.95 13.74 2.62 -0.47 -1.41 12598
0.06 -0.01 1.52 17.53 11.00 2.08 -0.54 -1.43 12604
0.04 -0.00 3.22 15.11 8.83 1.51 -0.46 -1.58 12610
0.07 -0.01 4.97 14.81 10.03 0.97 -0.46 -1.66 12617
0.06 -0.01 3.87 15.20 9.27 0.47 -0.29 -1.71 12623
0.05 -0.01 2.88 12.59 7.64 0.14 -0.11 -1.80 12630
0.05 -0.00 2.55 11.41 6.19 -0.06 -0.11 -1.83 12636
0.05 -0.00 1.97 10.95 5.96 -0.21 -0.20 -1.80 12643
0.04 -0.00 1.93 10.81 5.76 -0.36 -0.27 -1.72 12649
0.05 -0.00 2.27 10.36 5.92 -0.51 -0.33 -1.59 12655
0.04 -0.00 2.80 9.92 5.87 -0.66 -0.37 -1.45 12661
0.06 -0.01 3.13 9.30 5.80 -0.80 -0.36 -1.29 12667
0.06 -0.01 3.27 8.71 5.43 -0.91 -0.30 -1.13 12674
0.06 -0.01 3.30 8.06 5.36 -1.03 -0.24 -0.98 12681
0.06 -0.01 3.24 7.36 5.56 -1.08 -0.16 -0.84 12687
0.07 -0.01 3.18 6.68 6.19 -1.14 -0.07 -0.71 12693
0.06 -0.01 3.03 6.17 6.84 -1.20 -0.07 -0.59 12699
0.05 -0.01 2.88 5.76 7.55 -1.26 -0.04 -0.49 12705
0.07 -0.01 3.10 5.46 8.23 -1.32 -0.01 -0.38 12711
0.06 -0.01 3.44 5.14 9.36 -1.42 0.06 -0.27 12719
0.05 -0.00 3.96 4.89 10.28 -1.57 0.18 -0.17 12725
0.06 -0.01 4.27 4.57 10.86 -1.77 0.33 -0.05 12731
0.06 -0.01 4.28 4.04 11.14 -2.00 0.49 0.07 12737
0.04 -0.00 4.21 3.29 11.44 -2.22 0.63 0.19 12743
0.06 -0.01 3.87 2.34 11.59 -2.39 0.72 0.32 12750
0.05 -0.00 3.47 1.37 11.52 -2.49 0.78 0.46 12756
0.04 -0.00 3.22 0.62 11.45 -2.56 0.80 0.58 12763
0.06 -0.01 3.10 -0.07 11.42 -2.59 0.82 0.71 12769
0.05 -0.00 2.49 -0.62 11.57 -2.58 0.87 0.81 12775
0.04 -0.00 3.04 -1.08 11.94 -2.56 0.86 0.90 12782
0.05 -0.00 3.02 -1.33 12.22 -2.53 0.88 0.99 12788
0.05 -0.00 2.90 -1.70 12.56 -2.49 0.91 1.01 12794
0.04 -0.00 2.75 -2.07 12.78 -2.46 0.92 1.05 12801
0.05 -0.00 2.56 -2.55 12.87 -2.42 0.91 1.07 12807
0.05 -0.01 2.35 -3.10 12.97 -2.36 0.87 1.06 12814
0.05 0.00 2.29 -3.58 12.92 -2.28 0.79 1.04 12820
0.05 -0.00 2.28 -4.00 13.29 -2.17 0.68 1.01 12826
0.04 -0.00 2.42 -4.22 13.96 -2.07 0.59 0.97 12832
0.05 0.00 2.85 -4.34 14.74 -1.98 0.54 0.92 12838
0.05 -0.00 3.35 -4.40 15.40 -1.95 0.56 0.87 12846
0.04 -0.00 3.99 -4.52 15.67 -1.96 0.64 0.83 12852
0.06 -0.01 4.45 -4.78 15.96 -2.01 0.76 0.79 12858
0.05 -0.00 4.52 -5.27 15.85 -2.08 0.90 0.78 12864
0.05 -0.00 4.38 -5.93 15.63 -2.14 1.03 0.78 12870
0.06 -0.01 4.23 -6.76 15.24 -2.18 1.08 0.80 12877
0.05 -0.00 4.03 -7.50 14.63 -2.18 1.09 0.82 12883
0.05 -0.01 3.73 -8.10 13.94 -2.14 1.07 0.86 12890
0.06 -0.01 3.60 -8.62 13.33 -2.05 1.02 0.88 12896
0.05 -0.01 3.48 -8.96 12.68 -1.92 0.97 0.92 12902
0.05 -0.00 3.30 -9.32 12.32 -1.77 0.90 0.95 12909
0.05 -0.01 3.09 -9.48 12.12 -1.61 0.81 0.97 12915
0.05 -0.00 2.74 -9.58 11.76 -1.45 0.73 1.00 12921
0.06 -0.01 2.36 -9.67 11.19 -1.30 0.62 1.01 12928
0.05 -0.01 1.68 -9.34 11.88 -1.20 0.41 1.02 12935
0.04 -0.00 1.84 -9.60 11.35 -1.07 0.34 1.02 12941
0.05 -0.01 1.72 -9.68 10.69 -0.93 0.28 1.02 12947
0.05 -0.00 1.10 -9.09 10.08 -0.81 0.28 1.04 12953
0.05 -0.00 0.48 -8.52 9.97 -0.68 0.45 1.11 12959
0.06 -0.01 0.04 -8.38 10.66 -0.65 0.68 1.22 12966
0.05 -0.01 -0.07 -8.36 11.61 -0.66 0.87 1.31 12973
0.05 -0.01 -0.77 -8.42 12.28 -0.75 0.94 1.38 12979
0.06 -0.01 -1.41 -8.69 12.55 -0.89 0.95 1.44 12985
0.05 -0.01 -2.00 -9.51 12.10 -1.05 0.88 1.49 12991
0.05 -0.00 -2.12 -10.99 11.13 -1.16 0.70 1.50 12998
0.05 -0.01 -1.92 -11.69 9.81 -1.20 0.45 1.46 13004
0.04 -0.00 -1.93 -12.27 7.47 -1.14 0.22 1.34 13010
0.06 -0.01 -0.97 -13.50 7.02 -1.00 0.04 1.23 13017
0.06 -0.01 -0.29 -14.36 6.45 -0.79 0.00 1.04 13023
0.05 -0.00 0.19 -14.95 6.06 -0.54 0.05 0.81 13030
0.06 -0.00 0.27 -15.05 6.32 -0.29 0.16 0.56 13036
0.06 -0.00 -0.19 -14.63 6.74 -0.12 0.29 0.32 13042
0.06 -0.00 -0.80 -14.03 7.19 0.00 0.38 0.11 13048
0.06 -0.01 -1.28 -13.61 7.74 0.05 0.41 -0.07 13056
0.06 -0.01 -1.65 -13.21 7.98 0.07 0.39 -0.20 13062
0.06 0.00 -3.12 -16.04 8.14 0.13 0.25 -0.28 13068
0.06 -0.01 -8.53 -19.79 17.11 0.72 -0.59 -0.34 13074
0.05 0.00 -3.27 -11.73 5.57 1.06 -0.96 -0.33 13081
0.06 -0.01 -5.37 -15.94 4.96 1.24 -1.52 -0.31 13087
0.05 -0.01 -4.21 -19.30 4.70 1.43 -1.85 -0.23 13093
0.05 0.00 -3.65 -19.09 4.94 1.71 -2.27 -0.17 13100
0.05 0.03 -3.71 -17.13 3.69 1.88 -2.51 -0.07 13107
0.04 0.11 -1.57 -9.59 4.19 2.11 -2.54 0.14 13113
0.05 0.26 1.03 1.20 9.82 2.56 -2.09 0.36 13119
0.03 0.57 -2.76 -3.16 20.56 3.21 -2.01 0.42 13125
0.02 0.85 -4.32 0.91 23.72 3.46 -1.92 0.24 13132
0.01 0.96 -2.87 -1.26 20.53 3.45 -1.60 -0.02 13138
-0.02 1.05 -2.40 -7.61 54.84 3.11 -2.05 -0.28 13145
-0.01 1.13 -0.02 -2.57 14.57 0.20 -0.74 -0.04 13151
0.00 1.12 0.24 -3.59 12.44 -0.04 -0.16 0.01 13158
-0.00 1.24 0.90 -2.50 10.90 -0.08 -0.04 0.07 13164
0.00 1.19 0.73 -0.78 10.31 -0.03 -0.02 0.11 13170
-0.00 1.19 0.60 -0.05 9.97 0.01 -0.02 0.10 13176
0.02 1.17 0.57 -0.36 9.88 0.02 -0.01 0.07 13182
0.01 1.16 0.68 -0.74 9.89 -0.00 -0.01 0.06 13190
0.01 1.17 0.83 -1.01 10.01 -0.02 -0.01 0.08 13196
0.02 1.20 0.62 -0.85 10.11 -0.03 0.00 0.09 13202
0.00 1.23 0.61 -0.66 10.03 -0.03 0.01 0.09 13208
-0.01 1.25 0.61 -0.64 9.96 -0.04 0.01 0.07 13215
-0.01 1.28 0.76 -0.73 9.97 -0.04 0.01 0.07 13221
-0.01 1.29 0.67 -0.66 10.06 -0.04 0.01 0.08 13228
-0.00 1.33 0.68 -0.71 10.06 -0.04 0.01 0.07 13234
-0.01 1.37 0.68 -0.67 10.01 -0.03 0.01 0.07 13240
-0.01 1.39 0.63 -0.66 10.12 -0.03 0.01 0.07 13247
-0.00 1.42 0.64 -0.61 10.07 -0.03 0.02 0.07 13253
-0.02 1.41 0.70 -0.60 10.10 -0.02 0.03 0.06 13259
-0.02 1.39 0.66 -0.61 10.04 -0.01 0.03 0.07 13265
-0.02 1.36 0.71 -0.60 10.02 -0.01 0.03 0.06 13273
-0.03 1.35 0.77 -0.62 10.01 -0.00 0.03 0.07 13279
-0.00 1.34 0.84 -0.60 10.01 -0.00 0.03 0.07 13285
-0.02 1.30 0.76 -0.59 9.96 0.00 0.02 0.07 13291
-0.02 1.29 0.79 -0.60 9.95 0.00 0.01 0.07 13297
0.00 1.24 0.80 -0.64 9.93 0.00 0.00 0.07 13304
-0.01 1.25 0.78 -0.62 9.94 0.00 -0.00 0.07 13310
-0.00 1.22 0.76 -0.63 9.92 0.00 -0.01 0.07 13317
0.01 1.19 0.81 -0.60 10.03 0.01 -0.02 0.07 13323
-0.00 1.17 0.78 -0.60 9.94 0.01 -0.02 0.07 13329
0.00 1.13 0.77 -0.63 9.95 0.01 -0.03 0.06 13336
0.02 1.11 0.73 -0.62 9.96 0.01 -0.02 0.06 13342
0.01 1.04 0.75 -0.68 9.96 0.01 -0.02 0.06 13348
0.01 1.01 0.70 -0.60 9.98 0.01 -0.02 0.06 13355
0.02 0.98 0.73 -0.65 9.97 0.01 -0.02 0.05 13361
0.02 0.94 0.75 -0.64 9.97 0.01 -0.01 0.05 13367
0.02 0.91 0.72 -0.63 9.95 0.01 -0.01 0.06 13374
0.03 0.88 0.71 -0.63 9.97 0.02 -0.01 0.06 13380
0.03 0.84 0.73 -0.62 9.96 0.01 -0.01 0.06 13386
0.03 0.80 0.68 -0.65 9.99 0.01 -0.01 0.06 13392
0.04 0.81 0.67 -0.65 9.98 0.01 -0.00 0.06 13399
0.03 0.83 0.70 -0.64 9.97 0.01 0.00 0.06 13406
0.02 0.82 0.74 -0.63 9.94 0.01 -0.00 0.06 13412
0.04 0.78 0.80 -0.62 9.99 0.00 -0.00 0.06 13418
0.04 0.76 0.82 -0.61 9.93 0.01 -0.01 0.06 13424
0.03 0.74 0.79 -0.66 9.99 0.01 -0.01 0.06 13430
0.03 0.77 0.81 -0.63 9.94 0.00 -0.02 0.06 13436
0.03 0.71 0.77 -0.66 9.92 0.01 -0.02 0.06 13444
0.04 0.69 0.75 -0.62 9.98 0.00 -0.03 0.05 13450
0.05 0.69 0.82 -0.65 9.97 0.00 -0.03 0.05 13456
0.07 0.66 0.77 -0.65 9.98 -0.00 -0.03 0.05 13462
0.07 0.67 0.73 -0.64 9.96 -0.01 -0.04 0.05 13468
0.08 0.64 0.76 -0.64 9.97 -0.01 -0.04 0.05 13475
0.07 0.61 0.76 -0.65 10.04 -0.01 -0.04 0.05 13481
0.06 0.59 0.73 -0.62 9.99 -0.01 -0.04 0.05 13488
0.08 0.58 0.71 -0.62 9.98 -0.01 -0.03 0.05 13494
0.07 0.56 0.71 -0.61 9.95 -0.01 -0.03 0.05 13500
0.06 0.57 0.72 -0.67 9.98 -0.01 -0.01 0.04 13507
0.06 0.58 0.72 -0.69 9.98 -0.01 0.01 0.05 13513
0.06 0.52 0.74 -0.63 9.99 -0.00 0.03 0.04 13519
0.05 0.48 0.76 -0.65 9.96 -0.01 0.04 0.04 13526
0.06 0.49 0.80 -0.67 9.97 -0.00 0.04 0.04 13532
0.06 0.47 0.78 -0.63 9.95 -0.00 0.05 0.04 13538
0.06 0.45 0.78 -0.64 9.97 0.00 0.05 0.05 13545
0.07 0.43 0.82 -0.66 9.96 0.00 0.05 0.06 13551
0.07 0.45 0.81 -0.63 10.01 0.00 0.04 0.05 13557
0.06 0.38 0.79 -0.63 9.97 0.01 0.04 0.06 13563
0.07 0.33 0.84 -0.58 9.97 0.02 0.04 0.06 13570
0.09 0.28 0.88 -0.59 10.02 0.02 0.03 0.06 13577
0.08 0.24 0.90 -0.64 10.04 0.03 0.03 0.07 13583
0.10 0.23 0.84 -0.63 10.12 0.04 0.03 0.07 13589
0.12 0.15 0.88 -0.70 10.01 0.04 0.03 0.07 13595
0.12 0.10 0.88 -0.73 10.12 0.05 0.03 0.07 13601
0.16 0.05 1.03 -0.87 10.27 0.06 0.03 0.07 13608
0.16 -0.01 1.01 -0.76 10.22 0.08 0.04 0.08 13615
0.16 0.00 1.01 -1.08 10.27 0.14 0.07 0.07 13621
0.17 -0.00 1.12 -0.94 10.53 0.23 0.12 0.06 13627
0.18 -0.01 1.17 -0.65 11.10 0.40 0.21 0.04 13634
0.22 -0.02 1.57 -0.34 12.04 0.74 0.38 -0.02 13640
0.21 -0.02 1.68 -0.86 14.72 1.41 0.67 -0.12 13646
0.20 -0.01 1.52 -0.46 17.46 2.37 0.81 -0.26 13652
0.20 -0.02 1.85 -0.84 18.94 3.04 0.56 -0.35 13660
0.20 -0.01 2.38 -0.95 18.13 3.47 0.31 -0.43 13666
0.21 -0.01 2.73 -1.12 17.83 3.75 0.20 -0.52 13672
0.15 -0.01 3.22 -1.71 17.06 3.99 0.13 -0.63 13678
0.14 0.01 4.17 -3.06 16.11 4.16 0.02 -0.80 13685
0.11 0.00 3.46 -1.57 19.45 4.27 -0.13 -0.79 13691
0.10 0.00 2.98 -2.33 16.72 4.28 -0.02 -0.79 13698
0.11 -0.00 3.80 -2.87 18.04 4.28 0.06 -0.81 13704
0.06 -0.01 4.64 -3.78 20.32 4.28 0.15 -0.81 13711
0.06 0.00 6.33 -2.68 23.02 4.28 0.16 -0.86 13717
0.07 -0.01 6.72 -1.88 23.44 4.25 0.12 -0.95 13723
0.06 -0.01 5.02 1.86 24.29 4.12 0.05 -1.02 13729
0.07 -0.01 4.48 5.50 23.38 3.71 0.02 -1.03 13736
0.07 -0.01 3.28 4.67 19.43 3.16 -0.08 -1.00 13743
0.07 -0.01 2.25 7.64 15.18 2.81 -0.26 -0.97 13749
0.09 -0.01 3.42 14.81 11.66 2.53 -0.52 -0.95 13755
0.05 -0.01 3.32 14.39 10.27 2.02 -0.71 -0.95 13761
0.06 -0.01 4.70 19.78 11.50 1.47 -0.83 -0.99 13768
0.05 -0.01 5.86 16.58 6.85 0.97 -0.70 -1.04 13774
0.05 -0.01 5.66 17.56 9.29 0.48 -0.51 -1.03 13780
0.06 -0.01 4.49 16.78 8.44 0.02 -0.27 -1.02 13787
0.04 -0.00 3.64 14.96 7.75 -0.30 -0.18 -1.02 13794
0.05 -0.00 2.78 13.83 7.26 -0.55 -0.23 -1.00 13800
0.06 -0.01 2.37 13.12 7.03 -0.77 -0.30 -0.94 13806
0.05 -0.01 2.47 12.14 6.78 -0.98 -0.38 -0.88 13812
0.04 -0.00 2.84 11.24 6.69 -1.16 -0.42 -0.82 13818
0.05 -0.00 3.15 10.38 6.51 -1.32 -0.42 -0.76 13826
0.05 -0.01 3.35 9.47 6.47 -1.42 -0.37 -0.72 13832
0.05 -0.00 3.39 8.73 6.51 -1.54 -0.29 -0.67 13838
0.06 -0.01 3.37 7.82 6.89 -1.65 -0.19 -0.63 13844
0.05 -0.00 3.21 7.14 7.60 -1.74 -0.11 -0.59 13850
0.04 -0.00 3.10 6.34 8.26 -1.81 -0.04 -0.53 13856
0.05 -0.01 2.95 5.55 8.80 -1.89 0.01 -0.47 13863
0.04 -0.00 2.97 4.88 9.54 -1.96 0.05 -0.41 13870
0.04 -0.00 3.09 4.19 10.00 -2.04 0.07 -0.35 13876
0.05 -0.01 3.24 3.44 10.39 -2.12 0.11 -0.28 13882
0.05 -0.01 3.38 2.69 10.83 -2.19 0.18 -0.21 13888
0.04 -0.00 3.58 1.97 11.24 -2.25 0.27 -0.13 13895
0.06 -0.01 3.71 1.31 11.67 -2.33 0.36 -0.05 13901
0.05 -0.00 3.76 0.73 12.00 -2.35 0.44 0.04 13907
0.04 -0.00 3.77 0.15 12.34 -2.38 0.50 0.13 13914
0.06 -0.01 3.16 -0.32 12.52 -2.41 0.57 0.23 13920
0.04 -0.00 3.64 -0.70 12.79 -2.41 0.62 0.35 13927
0.04 -0.00 3.52 -1.09 13.02 -2.41 0.66 0.45 13933
0.05 -0.01 3.44 -1.62 13.17 -2.39 0.68 0.54 13939
0.04 -0.00 3.34 -2.10 13.36 -2.37 0.68 0.63 13945
0.04 0.00 3.28 -2.51 13.75 -2.33 0.67 0.70 13952
0.04 -0.00 3.28 -2.76 14.69 -2.29 0.66 0.76 13959
0.03 -0.00 3.34 -2.89 14.55 -2.27 0.66 0.80 13965
0.04 -0.00 3.53 -3.02 14.84 -2.27 0.69 0.82 13971
0.04 -0.00 3.60 -3.22 15.01 -2.30 0.73 0.82 13977
0.03 -0.00 3.52 -3.51 14.97 -2.33 0.79 0.81 13983
0.05 -0.01 3.44 -3.94 14.69 -2.36 0.85 0.78 13990
0.04 -0.00 3.37 -4.51 14.34 -2.36 0.91 0.75 13997
0.04 -0.00 3.25 -4.98 13.90 -2.34 0.95 0.70 14003
0.06 -0.01 3.12 -5.43 13.35 -2.30 0.96 0.64 14009
0.04 -0.00 3.09 -5.74 12.78 -2.21 0.98 0.59 14015
0.04 -0.00 2.46 -6.05 12.44 -2.10 0.98 0.53 14022
0.05 -0.01 2.96 -6.34 12.29 -1.97 0.94 0.48 14028
0.03 -0.00 2.68 -6.37 12.27 -1.82 0.95 0.44 14034
0.04 -0.00 2.20 -6.30 11.99 -1.68 0.91 0.41 14041
0.05 -0.00 1.80 -6.43 12.01 -1.54 0.86 0.39 14047
0.04 -0.00 1.62 -6.49 11.66 -1.40 0.78 0.37 14054
0.05 0.00 1.48 -6.49 11.50 -1.27 0.70 0.35 14060
0.04 -0.00 1.35 -6.59 11.18 -1.14 0.63 0.34 14066
0.03 -0.00 1.24 -6.52 11.05 -1.03 0.58 0.33 14072
0.04 0.00 1.20 -6.54 11.16 -0.93 0.58 0.33 14080
0.04 -0.00 1.27 -6.69 11.54 -0.85 0.61 0.35 14086
0.04 -0.00 1.34 -6.87 11.96 -0.80 0.66 0.38 14092
0.05 -0.01 1.31 -7.07 12.09 -0.78 0.72 0.42 14098
0.04 -0.00 1.05 -7.25 10.60 -0.77 0.74 0.45 14104
0.03 -0.00 0.97 -7.89 13.07 -0.82 0.72 0.50 14111
0.06 -0.01 1.33 -8.62 13.10 -0.86 0.84 0.56 14117
0.04 -0.00 1.42 -9.12 13.02 -0.92 0.92 0.63 14124
0.04 -0.00 0.93 -9.50 12.77 -1.02 0.99 0.70 14130
0.05 -0.01 -0.09 -10.78 12.59 -1.13 0.98 0.76 14136
0.04 -0.00 -1.66 -10.69 11.38 -1.18 0.86 0.82 14143
0.04 0.01 -2.88 -14.89 10.02 -1.27 0.78 0.86 14149
0.04 -0.00 -4.35 -14.26 9.57 -1.00 0.32 0.85 14155
0.03 -0.00 -3.02 -14.71 5.23 -0.98 0.18 0.80 14161
0.05 -0.01 -2.79 -15.46 8.31 -0.64 -0.18 0.67 14169
0.04 -0.00 -1.85 -18.24 5.32 -0.64 -0.15 0.58 14175
0.04 -0.00 -2.66 -16.39 8.47 -0.19 -0.51 0.39 14181
0.05 -0.00 -2.47 -19.08 6.78 -0.01 -0.45 0.21 14187
0.04 -0.00 -1.57 -17.95 5.03 0.32 -0.51 0.03 14193
0.05 -0.00 -2.24 -19.65 8.01 0.58 -0.63 -0.11 14200
0.04 -0.00 -2.66 -18.91 5.71 0.80 -0.83 -0.20 14206
0.05 -0.00 -4.75 -20.03 9.04 1.12 -1.30 -0.18 14213
0.05 -0.00 -6.37 -20.82 6.08 1.31 -1.80 -0.06 14219
0.04 0.05 -5.37 -21.92 3.61 1.50 -2.17 0.14 14225
0.03 0.10 -6.43 -25.70 -0.05 1.80 -2.25 0.61 14232
0.05 0.28 -4.19 -20.99 2.80 2.48 -2.20 1.27 14238
0.03 0.55 -4.27 0.07 17.00 3.54 -1.93 1.53 14244
0.02 0.78 -10.76 -5.80 24.13 4.14 -1.80 1.31 14252
0.01 0.98 -8.94 0.02 26.47 4.07 -1.91 0.75 14258
0.00 1.10 -5.47 -1.60 29.31 3.71 -1.64 0.19 14264
-0.01 1.08 -2.77 -3.55 29.90 1.31 -1.23 -0.18 14270
-0.01 1.23 0.58 -2.65 10.77 -0.06 -0.19 -0.17 14277
0.00 1.28 1.39 -3.17 11.17 -0.11 -0.08 -0.06 14283
0.01 1.31 1.82 -2.19 10.21 -0.04 -0.04 0.09 14289
0.01 1.27 1.02 -0.42 9.87 0.03 -0.05 0.14 14296
0.01 1.25 0.47 -0.23 10.12 0.05 -0.06 0.12 14303
-0.01 1.23 0.42 -0.41 10.05 0.02 -0.04 0.09 14309
0.03 1.24 0.68 -0.91 9.96 0.00 -0.04 0.07 14315
0.01 1.25 0.91 -1.15 9.96 -0.01 -0.02 0.10 14321
0.02 1.26 0.73 -0.93 10.07 -0.01 -0.01 0.11 14328
0.02 1.23 0.58 -0.73 10.20 -0.02 0.00 0.09 14334
0.03 1.26 0.68 -0.70 10.04 -0.02 0.01 0.08 14341
0.01 1.26 0.80 -0.77 9.97 -0.02 0.01 0.07 14347
0.02 1.25 0.81 -0.72 9.96 -0.02 0.00 0.08 14353
0.00 1.26 0.72 -0.75 9.99 -0.03 0.00 0.07 14360
0.01 1.30 0.72 -0.69 10.13 -0.02 0.01 0.06 14366
0.01 1.33 0.75 -0.70 10.05 -0.03 0.01 0.06 14372
0.01 1.31 0.76 -0.71 10.10 -0.01 0.01 0.06 14379
0.02 1.30 0.70 -0.67 10.02 -0.01 0.02 0.06 14385
0.01 1.27 1.22 -0.54 9.85 -0.00 0.02 0.07 14392
0.01 1.22 0.78 -0.68 10.02 0.00 0.02 0.06 14398
0.02 1.18 0.81 -0.74 10.05 0.01 0.01 0.07 14404
0.01 1.14 0.78 -0.71 9.92 0.01 0.00 0.07 14410
0.02 1.13 0.77 -0.81 9.91 0.01 0.00 0.08 14417
0.02 1.11 0.80 -0.71 9.96 0.01 -0.01 0.08 14424
0.02 1.06 0.78 -0.68 9.98 0.01 -0.01 0.08 14430
0.02 1.07 0.78 -0.67 9.93 0.01 -0.01 0.08 14436
0.03 1.04 0.76 -0.69 9.98 0.01 -0.02 0.07 14442
0.03 0.99 0.80 -0.65 9.90 0.01 -0.02 0.07 14448
0.03 0.96 0.79 -0.70 9.95 0.01 -0.03 0.07 14455
0.05 0.90 0.83 -0.69 9.98 0.01 -0.02 0.06 14461
0.03 0.86 0.81 -0.72 9.93 0.01 -0.03 0.06 14468
0.04 0.83 0.80 -0.73 9.95 0.01 -0.03 0.05 14474
0.05 0.80 0.78 -0.73 9.96 0.01 -0.04 0.06 14480
0.04 0.76 0.82 -0.69 9.93 0.01 -0.04 0.06 14486
0.05 0.75 0.78 -0.69 9.92 0.01 -0.04 0.06 14493
0.07 0.70 0.77 -0.69 9.95 0.01 -0.04 0.06 14499
0.04 0.71 0.70 -0.74 9.98 0.01 -0.04 0.06 14505
0.05 0.67 0.74 -0.75 9.95 0.01 -0.03 0.06 14512
0.06 0.65 0.75 -0.75 9.97 0.01 -0.03 0.06 14518
0.06 0.63 0.74 -0.72 9.92 0.01 -0.02 0.07 14525
0.05 0.62 0.79 -0.76 9.95 0.01 -0.02 0.07 14531
0.07 0.59 0.81 -0.76 9.95 0.01 -0.02 0.06 14537
0.06 0.57 0.77 -0.75 9.97 0.01 -0.02 0.07 14543
0.05 0.59 0.78 -0.78 9.93 0.00 -0.02 0.06 14550
0.07 0.58 0.78 -0.75 9.98 -0.00 -0.02 0.06 14556
0.07 0.54 0.78 -0.73 9.96 -0.00 -0.01 0.06 14563
0.06 0.56 0.78 -0.75 9.94 -0.00 -0.01 0.06 14569
0.08 0.57 0.80 -0.73 9.97 -0.01 -0.01 0.07 14575
0.06 0.57 0.79 -0.72 9.94 -0.01 -0.01 0.06 14581
0.05 0.57 0.70 -0.72 9.86 -0.01 -0.01 0.06 14587
0.07 0.55 0.78 -0.75 9.89 -0.01 -0.00 0.06 14595
0.07 0.59 0.78 -0.76 9.96 -0.01 0.00 0.06 14601
0.04 0.57 0.76 -0.74 9.93 -0.01 0.01 0.06 14607
0.06 0.56 0.78 -0.72 9.93 -0.02 0.02 0.05 14613
0.06 0.53 0.79 -0.76 9.91 -0.01 0.02 0.06 14619
0.06 0.52 0.82 -0.74 9.95 -0.01 0.03 0.06 14626
0.08 0.52 0.81 -0.70 9.93 -0.01 0.03 0.05 14632
0.07 0.48 0.84 -0.76 9.99 -0.01 0.03 0.06 14639
0.06 0.47 0.83 -0.72 9.92 -0.01 0.03 0.05 14645
0.09 0.47 0.83 -0.70 9.92 -0.01 0.03 0.05 14651
0.10 0.44 0.88 -0.68 9.96 -0.01 0.03 0.05 14657
0.12 0.37 0.87 -0.69 9.96 -0.01 0.02 0.05 14664
0.13 0.35 0.88 -0.67 10.03 0.00 0.02 0.06 14670
0.10 0.37 0.89 -0.67 9.98 0.01 0.02 0.05 14676
0.09 0.28 0.90 -0.74 9.97 0.02 0.01 0.06 14683
0.13 0.21 0.91 -0.67 10.01 0.03 0.01 0.06 14689
0.14 0.12 0.92 -0.75 10.06 0.04 0.02 0.06 14696
0.14 0.11 0.89 -0.76 10.08 0.05 0.02 0.07 14702
0.17 0.09 0.86 -0.74 10.13 0.05 0.03 0.06 14708
0.18 0.06 0.91 -0.76 10.15 0.07 0.03 0.06 14714
0.19 0.02 0.89 -0.83 10.09 0.08 0.04 0.07 14722
0.20 -0.01 1.08 0.08 10.14 0.10 0.06 0.07 14728
0.21 -0.01 0.87 -0.71 10.47 0.18 0.11 0.04 14734
0.24 -0.02 0.83 -0.66 10.66 0.28 0.20 0.02 14740
0.26 -0.03 1.08 -0.82 11.48 0.50 0.35 0.00 14746
0.26 -0.02 1.23 -0.92 12.87 0.94 0.56 -0.00 14753
0.29 -0.02 2.04 -1.03 14.14 1.68 0.82 -0.08 14759
0.29 -0.02 2.24 -1.14 16.40 2.46 0.83 -0.21 14766
0.28 -0.00 1.90 -1.31 17.26 2.94 0.53 -0.34 14772
0.26 -0.02 1.76 -1.19 17.28 3.28 0.28 -0.38 14779
0.24 -0.01 1.50 -1.23 18.09 3.61 0.19 -0.40 14785
0.21 -0.00 1.61 -2.79 17.54 3.94 0.16 -0.48 14791
0.19 -0.00 1.42 -1.49 18.94 4.23 0.03 -0.53 14797
0.13 0.01 2.89 -1.49 17.61 4.28 0.09 -0.50 14804
0.10 -0.01 3.50 -2.22 19.11 4.28 0.02 -0.57 14811
0.08 0.00 3.46 -2.84 18.80 4.28 0.09 -0.61 14817
0.08 -0.01 3.95 -4.22 18.75 4.28 0.29 -0.63 14823
0.06 -0.01 4.91 -5.50 21.38 4.28 0.40 -0.63 14830
0.07 0.01 6.27 -4.76 23.54 4.28 0.46 -0.68 14836
0.06 -0.01 6.24 -3.18 26.30 4.28 0.44 -0.76 14842
0.07 -0.01 4.97 -1.38 26.35 4.26 0.31 -0.82 14849
0.08 -0.01 3.17 2.24 27.61 4.02 0.19 -0.85 14856
0.05 -0.01 2.82 2.58 22.57 3.60 0.13 -0.90 14862
0.04 -0.00 2.07 6.53 18.33 3.25 -0.18 -0.91 14868
0.05 -0.01 1.73 9.56 13.02 3.07 -0.40 -0.92 14874
0.06 -0.01 2.92 21.27 13.63 2.77 -0.70 -1.12 14880
0.06 -0.01 3.14 16.96 9.40 2.08 -0.69 -1.51 14887
0.05 -0.01 4.87 15.97 10.96 1.36 -0.79 -1.75 14894
0.04 -0.00 4.40 19.36 10.46 0.65 -0.60 -1.86 14900
0.06 -0.01 3.76 17.90 9.06 0.08 -0.29 -1.95 14906
0.06 -0.01 3.27 15.79 7.33 -0.32 -0.15 -1.99 14913
0.06 -0.01 2.70 14.46 5.74 -0.57 -0.15 -1.98 14919
0.07 -0.01 2.42 13.54 4.97 -0.77 -0.23 -1.93 14925
0.05 -0.01 2.46 12.60 4.21 -0.94 -0.33 -1.86 14931
0.06 -0.01 3.16 11.88 4.69 -1.06 -0.40 -1.76 14938
0.06 -0.01 3.66 11.22 5.03 -1.16 -0.45 -1.62 14945
0.05 -0.00 4.22 10.72 5.10 -1.27 -0.45 -1.46 14951
0.06 -0.01 4.55 10.27 5.33 -1.38 -0.40 -1.28 14957
0.06 -0.01 4.77 9.68 5.67 -1.55 -0.32 -1.09 14963
0.04 -0.00 4.99 8.89 6.36 -1.66 -0.21 -0.89 14969
0.05 -0.00 5.24 8.10 7.25 -1.80 -0.07 -0.70 14977
0.05 -0.00 5.43 7.49 8.29 -1.94 0.05 -0.52 14983
0.05 -0.00 5.44 6.77 9.24 -2.10 0.21 -0.36 14989
0.06 -0.01 5.27 6.03 9.86 -2.27 0.37 -0.17 14995
0.06 -0.01 5.04 5.11 10.53 -2.43 0.51 0.01 15001
0.05 -0.00 4.85 4.03 11.09 -2.59 0.63 0.18 15007
0.05 -0.01 4.62 2.89 11.54 -2.73 0.72 0.33 15014
0.04 -0.00 4.41 1.80 12.02 -2.83 0.79 0.46 15021
0.04 -0.00 4.27 0.75 12.46 -2.89 0.85 0.56 15027
0.03 0.01 4.09 -0.25 12.97 -2.95 0.92 0.63 15033
0.04 -0.00 3.87 -1.08 13.51 -2.97 0.97 0.68 15039
0.03 -0.00 3.58 -1.70 13.92 -2.98 1.02 0.72 15046
0.04 0.00 3.27 -2.33 14.26 -2.98 1.06 0.76 15052
0.05 -0.00 2.95 -2.82 14.53 -2.98 1.09 0.80 15058
0.04 -0.00 2.71 -3.33 14.80 -2.97 1.11 0.83 15065
0.06 -0.01 2.41 -3.76 15.10 -2.95 1.09 0.86 15072
0.05 -0.00 2.21 -3.99 15.29 -2.92 1.05 0.91 15078
0.05 -0.00 2.01 -4.17 15.39 -2.87 0.99 0.94 15084
0.06 -0.01 1.94 -4.24 15.37 -2.82 0.93 0.98 15090
0.05 -0.00 1.98 -4.24 15.40 -2.77 0.85 1.02 15096
0.05 0.00 1.99 -4.28 15.39 -2.71 0.78 1.06 15104
0.05 -0.00 1.97 -4.49 15.44 -2.65 0.73 1.09 15110
0.04 -0.00 2.05 -4.71 15.56 -2.59 0.69 1.11 15116
0.05 -0.01 2.21 -5.01 15.76 -2.54 0.65 1.12 15122
0.05 -0.00 2.37 -5.25 15.64 -2.50 0.63 1.13 15128
0.04 -0.00 2.56 -5.52 15.42 -2.46 0.63 1.13 15135
0.06 -0.01 2.68 -5.91 15.20 -2.41 0.64 1.13 15141
0.04 -0.00 2.83 -6.38 14.89 -2.35 0.65 1.12 15148
0.04 -0.00 2.94 -6.77 14.75 -2.29 0.65 1.10 15154
0.05 -0.00 3.02 -7.23 14.65 -2.21 0.65 1.08 15160
0.05 -0.00 2.97 -7.68 14.52 -2.10 0.64 1.04 15167
0.04 0.01 2.89 -8.22 14.32 -1.98 0.61 0.99 15173
0.04 -0.00 -1.33 -19.54 19.80 -1.65 -0.02 0.84 15179
0.03 -0.00 -0.75 -6.02 10.36 -1.14 -0.31 0.73 15185
0.06 -0.01 0.57 -5.81 4.98 -1.17 0.03 0.86 15193
0.04 -0.00 -1.22 -14.69 10.70 -1.15 0.32 1.02 15199
0.04 -0.00 -3.20 -10.98 13.10 -0.80 0.38 1.15 15205
0.04 -0.00 -2.08 -9.41 7.39 -0.73 0.87 1.30 15211
0.04 -0.00 -4.73 -12.37 11.07 -0.56 0.87 1.29 15218
0.04 0.00 -2.42 -12.41 13.80 -0.53 0.81 1.37 15224
0.04 -0.00 -2.96 -11.47 11.01 -0.57 0.66 1.40 15230
0.04 -0.00 -2.17 -12.40 12.92 -0.75 0.48 1.38 15237
0.05 -0.01 -2.29 -13.40 14.57 -0.89 0.19 1.33 15244
0.04 -0.00 -1.98 -13.68 13.23 -1.15 -0.01 1.26 15250
0.04 -0.00 -2.15 -13.85 11.12 -1.30 -0.15 1.15 15256
0.04 -0.00 -1.41 -14.24 9.87 -1.45 -0.15 1.02 15262
0.03 -0.00 -0.90 -15.48 7.67 -1.53 -0.05 0.86 15269
0.05 -0.00 -0.92 -20.01 8.71 -1.29 0.03 0.64 15276
0.04 -0.00 -0.75 -21.08 2.43 -0.96 0.13 0.38 15282
0.04 -0.00 -2.60 -15.62 3.22 -0.40 0.16 0.07 15288
0.05 -0.00 -3.21 -23.25 5.36 -0.20 0.05 -0.17 15294
0.04 -0.00 -3.02 -19.42 2.58 0.34 -0.11 -0.45 15301
0.04 -0.00 -3.87 -20.28 7.09 0.69 -0.44 -0.65 15307
0.04 -0.00 -3.37 -19.07 4.68 0.97 -0.66 -0.82 15313
0.04 -0.00 -2.84 -21.40 5.84 1.25 -1.09 -0.97 15320
0.06 0.01 -3.53 -21.94 4.90 1.52 -1.36 -1.04 15326
0.06 0.03 -1.76 -22.39 2.88 1.77 -1.59 -1.07 15333
0.05 0.07 -2.18 -25.29 0.06 2.06 -1.77 -0.94 15339
0.05 0.19 1.21 -11.62 3.89 2.62 -1.72 -0.66 15345
0.04 0.33 5.80 -0.53 13.99 3.54 -1.57 -0.47 15352
0.02 0.54 1.64 -4.57 24.39 4.20 -1.79 -0.32 15358
0.02 0.71 0.40 -2.21 30.60 4.22 -1.63 -0.17 15365
0.00 0.83 -2.30 -9.16 68.72 3.50 -2.56 -0.21 15371
0.00 0.91 -0.72 -0.68 8.29 -0.16 0.01 0.24 15378
0.00 1.03 -0.74 -4.05 11.54 -0.18 -0.01 0.05 15384
0.03 1.03 -0.18 -3.29 11.42 -0.09 -0.06 -0.00 15390
0.01 1.07 1.15 -0.98 10.40 -0.08 0.03 0.06 15396
0.01 1.04 1.02 -0.39 10.02 -0.02 0.04 0.11 15404
0.03 1.07 0.03 -0.55 10.10 -0.02 0.04 0.09 15410
0.02 1.11 1.21 -0.74 9.99 -0.02 0.02 0.07 15416
0.02 1.11 0.98 -0.92 9.94 -0.01 0.02 0.08 15422
0.01 1.11 0.79 -0.99 10.02 -0.03 0.02 0.09 15428
-0.01 1.12 0.63 -0.86 10.10 -0.04 0.02 0.09 15435
0.01 1.14 0.70 -0.81 10.05 -0.04 0.02 0.08 15441
0.01 1.17 0.71 -0.78 10.07 -0.04 0.03 0.08 15448
0.00 1.17 0.77 -0.80 10.03 -0.04 0.03 0.08 15454
0.01 1.19 0.74 -0.81 9.95 -0.04 0.03 0.08 15460
0.01 1.18 0.71 -0.76 9.96 -0.04 0.03 0.08 15467
0.00 1.17 0.74 -0.78 10.05 -0.04 0.04 0.07 15473
-0.00 1.20 0.70 -0.73 10.05 -0.04 0.05 0.08 15479
-0.01 1.22 0.73 -0.70 10.13 -0.03 0.06 0.07 15485
0.00 1.26 0.82 -0.70 10.05 -0.03 0.06 0.07 15493
-0.01 1.25 0.84 -0.72 10.00 -0.02 0.06 0.07 15499
-0.01 1.23 0.92 -0.71 9.98 -0.02 0.05 0.07 15505
0.00 1.19 0.91 -0.69 9.97 -0.01 0.04 0.07 15511
0.01 1.16 0.91 -0.72 9.95 -0.01 0.02 0.06 15517
0.01 1.16 0.88 -0.75 9.91 -0.00 0.00 0.06 15524
0.02 1.12 0.83 -0.73 9.91 -0.00 -0.01 0.06 15531
0.02 1.09 0.80 -0.73 9.98 0.00 -0.01 0.06 15537
0.03 1.09 0.77 -0.76 10.00 -0.00 -0.02 0.06 15543
