Voltage_01 Voltage_02 Acc_x Acc_y Acc_z Gyro_x Gyro_y Gyro_z Time
5000
0.08 -0.00 2.37 1.00 7.17 0.41 -2.49 2.95 23
0.07 -0.01 1.00 0.80 7.65 0.24 -2.17 2.42 29
0.06 -0.01 0.58 0.40 8.47 0.14 -1.81 1.80 35
0.06 -0.01 -1.49 0.35 9.66 0.07 -1.52 1.16 41
0.04 -0.00 -2.78 0.74 10.48 -0.02 -1.35 0.65 48
0.05 -0.01 -3.47 1.26 10.42 -0.14 -1.37 0.07 54
0.07 -0.01 -3.15 1.53 10.31 -0.24 -1.57 -0.41 60
0.06 -0.01 -3.07 1.56 10.44 -0.37 -1.87 -0.83 66
0.06 -0.01 -2.48 1.46 10.21 -0.47 -2.12 -1.17 72
0.06 -0.01 -1.21 1.04 10.04 -0.57 -2.39 -1.33 78
0.08 -0.00 -0.29 0.79 10.22 -0.67 -2.60 -1.48 84
0.08 -0.01 0.59 0.48 10.17 -0.73 -2.78 -1.58 91
0.08 -0.01 1.36 0.08 10.00 -0.75 -2.91 -1.63 97
0.07 -0.01 1.90 -0.23 10.04 -0.73 -2.98 -1.65 103
0.07 -0.01 2.41 -0.13 9.59 -0.69 -3.00 -1.63 109
0.07 -0.01 1.48 -2.27 10.93 -0.67 -2.97 -1.58 116
0.06 -0.01 4.14 -1.40 13.29 -0.66 -2.71 -1.35 122
0.05 -0.01 7.46 -0.13 13.12 -0.80 -2.38 -1.17 129
0.05 0.00 8.58 0.22 11.86 -0.89 -2.08 -1.03 135
0.06 -0.01 7.43 0.21 11.58 -1.03 -1.80 -0.93 141
0.05 -0.00 7.06 -0.33 10.38 -1.16 -1.64 -0.83 147
0.04 -0.00 7.50 -1.54 10.00 -1.24 -1.40 -0.65 153
0.04 -0.00 8.05 -2.05 10.24 -1.30 -1.14 -0.42 159
0.06 -0.01 8.36 -2.09 10.50 -1.37 -0.92 -0.22 165
0.04 -0.00 8.50 -2.37 10.32 -1.41 -0.72 -0.04 173
0.04 -0.00 8.46 -2.68 9.91 -1.43 -0.50 0.15 179
0.05 -0.00 8.25 -2.92 9.52 -1.42 -0.31 0.36 185
0.05 -0.00 8.07 -3.19 9.06 -1.39 -0.13 0.55 191
0.05 -0.01 7.78 -3.32 8.88 -1.34 0.01 0.76 197
0.05 -0.00 7.53 -3.45 8.93 -1.29 0.17 0.95 203
0.04 -0.00 7.23 -3.65 9.10 -1.22 0.36 1.12 209
0.05 -0.01 6.99 -3.66 9.53 -1.13 0.56 1.24 216
0.06 -0.01 6.74 -3.56 10.41 -1.06 0.83 1.37 222
0.06 -0.01 6.24 -3.42 10.09 -1.02 1.10 1.48 228
0.05 -0.01 5.55 -3.37 10.20 -1.00 1.37 1.58 234
0.05 -0.01 -0.76 -8.02 10.77 -0.98 1.60 1.66 240
0.07 -0.01 3.68 -4.96 12.43 -0.94 1.93 1.61 246
0.06 -0.01 -0.92 -3.35 11.25 -1.06 1.96 1.58 253
0.06 -0.01 1.65 -2.92 11.85 -1.05 1.99 1.57 260
0.06 -0.01 0.25 -4.22 7.74 -0.99 1.97 1.54 266
0.07 -0.01 -0.56 -6.14 9.15 -0.92 1.80 1.51 272
0.07 -0.01 0.80 -5.20 12.05 -0.85 1.65 1.45 278
0.06 -0.01 -1.02 -5.23 11.59 -0.81 1.57 1.33 284
0.07 -0.01 -1.10 -4.91 11.20 -0.78 1.49 1.20 290
0.07 -0.01 -0.99 -4.31 11.49 -0.78 1.45 1.04 296
0.06 -0.01 -0.88 -4.28 10.34 -0.77 1.45 0.90 303
0.06 -0.01 -0.35 -4.24 10.47 -0.75 1.48 0.75 309
0.05 -0.01 0.86 -3.86 10.27 -0.74 1.47 0.61 316
0.06 -0.01 -1.48 -4.53 9.44 -0.69 1.32 0.51 322
0.06 -0.01 -1.58 -4.43 9.64 -0.61 1.26 0.44 328
0.05 -0.01 0.37 -4.04 10.78 -0.58 1.26 0.41 334
0.05 -0.00 0.38 -3.57 11.22 -0.58 1.21 0.39 340
0.05 -0.00 0.38 -3.59 10.88 -0.59 1.19 0.39 347
0.04 -0.00 0.12 -3.78 11.09 -0.61 1.15 0.40 353
0.05 -0.00 0.28 -3.48 11.37 -0.65 1.05 0.42 359
0.04 -0.00 0.30 -3.46 11.10 -0.69 0.97 0.41 365
0.05 -0.00 0.28 -3.53 10.73 -0.73 0.84 0.39 371
0.05 -0.01 0.51 -3.65 10.36 -0.76 0.71 0.33 377
0.05 -0.01 0.93 -3.72 10.17 -0.77 0.58 0.24 385
0.05 -0.00 1.54 -3.88 10.16 -0.77 0.50 0.12 391
0.04 -0.00 2.10 -4.00 10.26 -0.77 0.49 -0.02 397
0.06 -0.01 2.81 -4.02 10.30 -0.76 0.54 -0.18 403
0.05 -0.01 3.34 -3.98 10.22 -0.77 0.66 -0.30 409
0.05 -0.01 3.72 -3.98 10.09 -0.79 0.83 -0.46 415
0.05 -0.00 3.68 -3.97 10.04 -0.81 1.01 -0.62 421
0.06 -0.01 3.52 -4.03 9.84 -0.83 1.19 -0.75 428
0.06 -0.01 3.28 -4.07 9.57 -0.83 1.31 -0.86 434
0.05 -0.00 2.94 -4.09 9.24 -0.81 1.39 -0.95 440
0.04 -0.00 2.61 -4.17 9.01 -0.78 1.42 -1.03 446
0.05 -0.00 2.33 -4.33 8.92 -0.72 1.42 -1.09 452
0.05 -0.01 2.19 -4.53 9.04 -0.66 1.42 -1.12 458
0.05 -0.01 2.05 -4.79 9.23 -0.60 1.43 -1.13 465
0.05 -0.01 -13.37 -14.23 21.60 -0.55 0.65 -1.34 472
0.05 0.00 -1.66 -0.38 7.11 -0.63 -0.31 -1.48 478
0.06 -0.01 -5.21 -6.93 10.93 -0.51 -0.42 -1.34 484
0.05 -0.01 -1.93 -5.22 8.24 -0.62 -0.56 -1.42 490
0.04 -0.00 -3.94 -7.03 11.06 -0.54 -0.78 -1.56 496
0.04 0.00 0.51 -7.51 12.71 -0.41 -0.84 -1.51 502
0.06 -0.01 -33.02 -15.94 12.02 -0.31 -0.91 -1.30 509
0.05 -0.01 1.80 -11.14 5.94 0.27 -0.44 -1.15 516
0.05 -0.01 -26.42 -13.69 21.16 0.22 -0.75 -1.23 522
0.06 -0.00 -14.71 -11.08 11.96 0.12 -0.90 -1.47 528
0.05 -0.00 -8.37 -7.42 8.88 0.01 -0.97 -1.60 534
0.04 -0.00 -7.31 -6.57 8.08 -0.15 -0.73 -1.71 540
0.06 0.01 -5.31 -5.68 6.12 -0.16 -0.12 -1.86 546
0.05 -0.01 -3.10 -1.55 6.51 -0.10 0.48 -1.87 552
0.08 -0.01 -2.00 1.69 7.24 -0.06 0.97 -1.68 559
0.08 -0.01 -3.96 4.27 10.83 -0.20 1.43 -1.25 566
0.07 -0.00 -4.71 3.83 14.07 -0.39 1.15 -0.69 572
0.06 -0.00 -1.24 0.85 10.65 -0.45 0.51 -0.03 578
0.08 -0.01 1.25 -1.03 10.36 -0.60 0.31 0.19 584
0.09 0.02 1.91 -1.82 9.10 -0.39 -0.12 0.10 590
0.09 0.10 -0.03 -1.06 10.05 -0.24 0.03 0.05 596
0.12 0.15 0.46 -1.46 10.39 -0.23 0.08 0.08 603
0.12 0.25 1.00 -1.26 10.37 -0.18 0.07 0.11 610
0.09 0.37 1.06 -0.78 10.27 -0.11 0.04 0.11 616
0.11 0.39 1.06 -0.61 10.04 -0.06 0.02 0.08 622
0.11 0.37 -0.11 0.40 10.57 -0.04 -0.00 0.07 628
0.09 0.40 0.68 -0.81 10.03 -0.02 -0.02 0.05 634
0.12 0.42 0.62 -0.81 10.01 -0.01 -0.02 0.05 641
0.15 0.43 0.53 -0.79 9.94 -0.01 -0.02 0.06 647
0.14 0.42 0.53 -0.83 9.88 -0.01 -0.01 0.06 653
0.15 0.42 0.58 -0.85 9.88 -0.02 -0.01 0.07 659
0.18 0.42 0.69 -0.84 9.92 -0.03 -0.02 0.06 666
0.20 0.42 0.72 -0.86 9.90 -0.04 -0.02 0.07 672
0.17 0.40 0.67 -0.77 9.97 -0.03 -0.03 0.07 678
0.16 0.39 0.72 -0.81 9.95 -0.03 -0.04 0.06 685
0.24 0.40 0.68 -0.84 9.99 -0.03 -0.04 0.06 691
0.24 0.40 0.66 -0.83 9.95 -0.03 -0.05 0.06 697
0.25 0.39 0.63 -0.80 9.95 -0.02 -0.04 0.06 703
0.26 0.38 0.66 -0.78 9.98 -0.02 -0.04 0.07 709
0.27 0.41 0.58 -0.82 9.95 -0.01 -0.03 0.07 715
0.32 0.42 0.62 -0.79 10.02 -0.01 -0.03 0.08 721
0.31 0.40 0.63 -0.78 9.95 -0.01 -0.03 0.08 729
0.31 0.40 0.68 -0.76 9.97 -0.01 -0.03 0.08 735
0.31 0.41 0.68 -0.80 9.96 -0.01 -0.02 0.08 741
0.32 0.39 0.63 -0.77 10.00 -0.01 -0.02 0.08 747
0.31 0.38 0.68 -0.80 9.95 -0.01 -0.02 0.08 753
0.29 0.35 0.65 -0.79 9.98 -0.00 -0.02 0.09 759
0.28 0.36 0.64 -0.76 10.01 -0.01 -0.02 0.08 765
0.29 0.35 0.65 -0.78 9.96 -0.01 -0.02 0.09 772
0.27 0.33 0.67 -0.82 9.93 -0.00 -0.03 0.09 778
0.27 0.32 0.61 -0.82 9.93 -0.01 -0.03 0.08 784
0.27 0.32 0.65 -0.78 9.93 -0.01 -0.03 0.09 790
0.28 0.34 0.65 -0.79 9.92 -0.01 -0.03 0.09 797
0.30 0.33 0.68 -0.77 9.92 -0.01 -0.03 0.09 803
0.29 0.30 0.63 -0.81 9.91 -0.01 -0.03 0.09 809
0.28 0.31 0.63 -0.81 9.96 -0.01 -0.03 0.09 816
0.29 0.33 0.65 -0.79 9.92 -0.01 -0.03 0.09 822
0.30 0.33 0.67 -0.80 9.94 -0.01 -0.03 0.10 828
0.27 0.33 0.65 -0.76 9.93 -0.01 -0.03 0.10 834
0.25 0.34 0.62 -0.77 9.94 -0.01 -0.02 0.09 840
0.26 0.34 0.63 -0.78 9.94 -0.01 -0.02 0.09 846
0.29 0.34 0.64 -0.78 9.95 -0.01 -0.02 0.09 852
0.27 0.34 0.67 -0.77 9.97 -0.01 -0.02 0.10 859
0.27 0.34 0.66 -0.79 9.92 -0.01 -0.02 0.10 866
0.26 0.38 0.67 -0.80 9.94 -0.01 -0.02 0.10 872
0.27 0.40 0.67 -0.78 9.91 -0.01 -0.02 0.10 878
0.26 0.40 0.69 -0.81 9.96 -0.02 -0.02 0.11 884
0.25 0.39 0.68 -0.80 9.91 -0.02 -0.02 0.10 890
0.23 0.41 0.69 -0.78 9.93 -0.02 -0.02 0.10 897
0.23 0.43 0.70 -0.75 9.94 -0.02 -0.02 0.11 903
0.21 0.44 0.66 -0.75 9.97 -0.02 -0.02 0.11 909
0.20 0.40 0.67 -0.78 9.95 -0.01 -0.03 0.11 915
0.19 0.43 0.66 -0.75 9.91 -0.01 -0.03 0.11 921
0.19 0.44 0.68 -0.79 9.93 -0.01 -0.03 0.10 927
0.19 0.46 0.62 -0.80 9.93 -0.02 -0.03 0.10 934
0.17 0.44 0.67 -0.76 9.93 -0.02 -0.03 0.11 941
0.16 0.45 0.69 -0.77 9.95 -0.01 -0.04 0.10 947
0.17 0.46 0.67 -0.76 9.93 -0.01 -0.04 0.11 953
0.18 0.45 0.68 -0.75 9.94 -0.01 -0.04 0.11 959
0.17 0.45 0.67 -0.74 9.96 -0.01 -0.04 0.11 965
0.15 0.47 0.63 -0.75 9.92 -0.01 -0.04 0.10 971
0.16 0.49 0.68 -0.76 9.95 -0.00 -0.04 0.11 977
0.17 0.49 0.64 -0.77 9.93 -0.01 -0.04 0.10 984
0.16 0.49 0.68 -0.76 9.87 -0.01 -0.04 0.11 990
0.16 0.47 0.69 -0.76 9.91 -0.01 -0.04 0.11 997
0.17 0.48 0.67 -0.74 9.92 -0.01 -0.04 0.10 1003
0.18 0.49 0.67 -0.74 9.95 -0.01 -0.04 0.11 1009
0.17 0.48 0.68 -0.73 9.93 -0.01 -0.04 0.10 1015
0.17 0.49 0.68 -0.75 9.97 -0.01 -0.05 0.10 1021
0.18 0.50 0.67 -0.73 9.95 -0.01 -0.05 0.11 1028
0.17 0.51 0.71 -0.77 9.92 -0.01 -0.05 0.11 1034
0.18 0.50 0.66 -0.78 9.92 -0.01 -0.05 0.10 1041
0.19 0.51 0.70 -0.78 9.91 -0.01 -0.05 0.09 1047
0.19 0.49 0.67 -0.79 9.96 -0.01 -0.05 0.10 1053
0.19 0.47 0.67 -0.76 9.93 -0.01 -0.05 0.10 1059
0.20 0.46 0.69 -0.77 9.96 -0.00 -0.05 0.10 1065
0.22 0.45 0.68 -0.76 9.97 -0.00 -0.06 0.10 1072
0.22 0.44 0.68 -0.76 9.90 -0.00 -0.06 0.10 1078
0.22 0.44 0.65 -0.78 9.92 -0.00 -0.06 0.10 1085
0.24 0.44 0.69 -0.75 9.96 -0.01 -0.07 0.10 1091
0.26 0.44 0.67 -0.77 9.93 -0.00 -0.07 0.10 1097
0.27 0.41 0.65 -0.76 9.95 -0.00 -0.07 0.10 1103
0.29 0.41 0.68 -0.78 9.93 0.00 -0.07 0.09 1110
0.30 0.40 0.66 -0.76 9.96 -0.00 -0.07 0.09 1116
0.32 0.36 0.67 -0.75 9.96 -0.00 -0.07 0.09 1122
0.34 0.35 0.63 -0.78 9.93 0.00 -0.07 0.09 1129
0.37 0.35 0.66 -0.77 9.99 0.00 -0.07 0.10 1135
0.38 0.30 0.64 -0.76 9.93 0.00 -0.06 0.10 1141
0.37 0.32 0.66 -0.78 9.96 0.01 -0.06 0.10 1147
0.41 0.27 0.64 -0.76 10.00 0.00 -0.06 0.10 1154
0.42 0.26 0.67 -0.78 9.92 0.01 -0.06 0.09 1160
0.43 0.24 0.68 -0.78 9.97 0.00 -0.06 0.09 1166
0.47 0.25 0.63 -0.79 9.95 0.00 -0.06 0.09 1173
0.48 0.21 0.61 -0.76 9.95 0.00 -0.05 0.09 1179
0.50 0.21 0.60 -0.80 9.94 0.01 -0.05 0.10 1185
0.54 0.20 0.65 -0.79 9.96 0.00 -0.05 0.09 1191
0.56 0.18 0.63 -0.80 9.93 -0.00 -0.05 0.09 1198
0.57 0.17 0.60 -0.82 10.00 0.00 -0.05 0.10 1204
0.61 0.16 0.67 -0.78 9.95 -0.00 -0.05 0.10 1210
0.61 0.18 0.62 -0.79 9.95 -0.01 -0.05 0.09 1217
0.63 0.18 0.63 -0.78 9.93 -0.01 -0.05 0.10 1223
0.63 0.18 0.61 -0.77 9.96 -0.01 -0.05 0.10 1229
0.64 0.18 0.65 -0.79 9.96 -0.01 -0.04 0.10 1235
0.64 0.19 0.63 -0.77 9.96 -0.01 -0.04 0.10 1242
0.65 0.17 1.22 -0.81 9.92 -0.00 -0.04 0.10 1248
0.64 0.17 0.63 -0.80 9.89 -0.01 -0.04 0.09 1254
0.65 0.19 0.58 -0.79 10.01 -0.01 -0.04 0.10 1261
0.64 0.17 0.62 -0.81 9.96 -0.01 -0.04 0.10 1267
0.62 0.16 0.61 -0.78 9.95 -0.00 -0.04 0.10 1273
0.62 0.17 0.63 -0.80 9.92 -0.01 -0.03 0.10 1280
0.63 0.17 0.63 -0.77 9.92 -0.01 -0.03 0.10 1286
0.62 0.17 0.68 -0.80 9.95 -0.01 -0.03 0.10 1292
0.62 0.17 0.61 -0.80 9.95 -0.01 -0.03 0.11 1299
0.63 0.18 0.03 -0.80 9.94 -0.02 -0.02 0.10 1305
0.62 0.19 0.61 -0.80 9.94 -0.01 -0.02 0.10 1311
0.60 0.20 0.59 -0.77 9.96 -0.02 -0.01 0.10 1317
0.60 0.22 0.63 -0.78 9.96 -0.01 -0.01 0.11 1324
0.59 0.23 0.62 -0.79 9.93 -0.01 -0.00 0.11 1330
0.56 0.22 0.62 -0.75 9.97 -0.01 0.01 0.11 1336
0.54 0.24 0.67 -0.75 9.92 -0.01 0.01 0.12 1343
0.52 0.23 0.63 -0.79 9.92 -0.01 0.02 0.11 1349
0.50 0.24 0.65 -0.77 9.98 -0.01 0.02 0.11 1355
0.46 0.24 0.68 -0.76 9.90 -0.01 0.01 0.11 1361
0.47 0.25 0.66 -0.75 9.99 -0.01 0.01 0.11 1368
0.45 0.25 0.67 -0.74 9.96 -0.01 -0.01 0.11 1374
0.43 0.25 0.68 -0.76 9.94 -0.01 -0.01 0.10 1380
0.44 0.27 0.69 -0.78 9.94 -0.01 -0.02 0.11 1387
0.44 0.28 0.67 -0.76 9.95 -0.01 -0.02 0.10 1393
0.43 0.28 0.68 -0.76 9.98 -0.01 -0.02 0.10 1399
0.43 0.29 0.71 -0.73 9.96 -0.01 -0.03 0.11 1405
0.45 0.29 0.67 -0.79 9.92 -0.01 -0.03 0.11 1412
0.44 0.31 0.67 -0.77 10.01 -0.01 -0.03 0.10 1418
0.43 0.30 0.67 -0.76 9.99 -0.01 -0.03 0.11 1425
0.44 0.31 0.67 -0.73 9.94 -0.01 -0.04 0.10 1431
0.43 0.32 0.67 -0.75 9.95 -0.01 -0.04 0.10 1437
0.42 0.35 0.68 -0.78 9.95 -0.02 -0.05 0.10 1443
0.39 0.37 0.68 -0.77 9.96 -0.02 -0.04 0.10 1449
0.39 0.37 0.64 -0.73 9.94 -0.02 -0.04 0.10 1456
0.38 0.42 0.68 -0.75 9.95 -0.01 -0.04 0.11 1463
0.37 0.44 0.66 -0.77 9.98 -0.02 -0.05 0.10 1469
0.38 0.47 0.66 -0.73 9.95 -0.01 -0.05 0.10 1475
0.37 0.46 0.68 -0.75 9.97 -0.02 -0.05 0.09 1481
0.35 0.48 0.66 -0.75 9.93 -0.02 -0.06 0.10 1487
0.37 0.46 0.68 -0.72 9.93 -0.02 -0.06 0.10 1494
0.36 0.49 0.71 -0.74 9.97 -0.02 -0.06 0.10 1500
0.35 0.53 0.67 -0.72 9.93 -0.02 -0.06 0.10 1507
0.35 0.54 0.69 -0.77 9.94 -0.02 -0.06 0.10 1513
0.35 0.53 0.65 -0.75 9.92 -0.02 -0.06 0.10 1519
0.33 0.55 0.65 -0.74 10.02 -0.02 -0.05 0.10 1525
0.33 0.57 0.65 -0.74 10.00 -0.01 -0.05 0.10 1531
0.32 0.59 0.64 -0.75 9.96 -0.01 -0.05 0.10 1538
0.33 0.59 0.67 -0.74 9.97 -0.01 -0.05 0.10 1545
0.32 0.63 0.63 -0.70 9.94 -0.00 -0.04 0.10 1551
0.34 0.64 0.67 -0.76 9.96 -0.00 -0.04 0.10 1557
0.33 0.64 0.67 -0.74 9.95 0.00 -0.04 0.10 1563
0.32 0.61 0.68 -0.73 9.92 0.00 -0.03 0.09 1569
0.33 0.62 0.66 -0.77 9.90 0.00 -0.03 0.09 1575
0.33 0.60 0.65 -0.73 9.97 0.00 -0.03 0.10 1582
0.32 0.58 0.62 -0.75 9.93 -0.00 -0.03 0.09 1589
0.32 0.58 0.67 -0.77 9.97 -0.00 -0.02 0.10 1595
0.32 0.56 0.65 -0.74 9.94 -0.00 -0.02 0.09 1601
0.32 0.51 0.66 -0.77 9.93 -0.00 -0.02 0.09 1607
0.30 0.49 0.68 -0.73 9.96 -0.00 -0.01 0.09 1613
0.33 0.47 0.64 -0.76 9.97 0.00 -0.00 0.10 1619
0.34 0.45 0.66 -0.76 9.97 0.00 0.00 0.10 1626
0.34 0.40 0.65 -0.76 9.93 0.00 0.01 0.09 1633
0.32 0.39 0.68 -0.76 9.96 0.01 0.01 0.10 1639
0.31 0.35 0.68 -0.75 9.99 0.01 0.02 0.09 1645
0.29 0.36 0.68 -0.75 9.93 0.01 0.03 0.09 1651
0.28 0.33 0.67 -0.75 9.95 0.01 0.03 0.09 1657
0.28 0.30 0.72 -0.77 9.94 0.01 0.03 0.09 1664
0.28 0.28 0.72 -0.77 9.92 0.00 0.03 0.10 1670
0.23 0.23 0.68 -0.77 9.93 0.00 0.03 0.10 1676
0.25 0.25 0.72 -0.77 9.93 0.00 0.03 0.11 1683
0.29 0.25 0.75 -0.80 9.87 0.00 0.03 0.10 1689
0.25 0.22 0.74 -0.77 9.96 -0.00 0.02 0.10 1695
0.24 0.18 0.75 -0.76 9.95 -0.00 0.03 0.10 1701
0.23 0.19 0.76 -0.77 9.95 0.00 0.02 0.10 1708
0.24 0.18 0.75 -0.77 9.96 -0.00 0.02 0.10 1714
0.24 0.17 0.76 -0.77 9.94 -0.00 0.02 0.09 1720
0.23 0.19 0.74 -0.75 9.95 0.00 0.02 0.10 1727
0.21 0.19 0.72 -0.76 9.95 0.00 0.01 0.11 1733
0.21 0.15 0.76 -0.77 9.91 0.00 0.01 0.10 1739
0.18 0.17 0.78 -0.76 9.97 0.00 0.01 0.10 1745
0.16 0.16 0.74 -0.77 9.93 0.01 0.01 0.10 1752
0.20 0.11 0.79 -0.77 9.94 0.01 0.01 0.10 1758
0.19 0.17 0.78 -0.75 9.96 0.01 0.01 0.10 1764
0.14 0.16 0.80 -0.76 9.96 0.00 0.01 0.10 1770
0.17 0.14 0.77 -0.80 9.88 0.01 0.00 0.10 1777
0.17 0.15 0.81 -0.80 9.95 0.01 -0.03 0.10 1783
0.16 0.09 0.79 -0.77 9.92 0.00 0.00 0.09 1789
0.15 0.11 0.83 -0.79 9.94 0.00 0.00 0.10 1796
0.16 0.12 0.78 -0.79 9.92 -0.00 0.00 0.09 1802
0.16 0.09 0.80 -0.79 9.92 -0.00 0.00 0.09 1808
0.15 0.08 0.84 -0.77 9.97 0.00 -0.00 0.10 1814
0.14 0.07 0.81 -0.81 9.92 -0.00 -0.01 0.09 1820
0.15 0.09 0.81 -0.77 9.97 -0.01 -0.01 0.09 1827
0.14 0.08 0.80 -0.78 9.96 -0.01 -0.01 0.09 1833
0.12 0.09 0.79 -0.77 9.90 -0.01 -0.01 0.09 1840
0.14 0.10 0.80 -0.80 9.92 -0.00 -0.01 0.10 1846
0.15 0.09 0.81 -0.78 9.92 -0.00 -0.01 0.09 1852
0.15 0.09 0.84 -0.76 9.93 -0.00 -0.02 0.09 1858
0.13 0.11 0.80 -0.78 9.95 -0.00 -0.02 0.10 1864
0.14 0.12 0.83 -0.79 9.95 -0.00 -0.02 0.09 1870
0.12 0.09 0.81 -0.82 9.89 -0.00 -0.02 0.08 1878
0.12 0.08 0.80 -0.79 9.97 -0.00 -0.02 0.08 1884
0.13 0.07 0.78 -0.80 9.94 -0.01 -0.02 0.08 1890
0.14 0.06 0.80 -0.79 9.96 -0.01 -0.02 0.08 1896
0.14 0.08 0.80 -0.81 9.92 -0.01 -0.02 0.08 1902
0.13 0.09 0.81 -0.80 9.95 -0.01 -0.02 0.08 1908
0.14 0.09 0.83 -0.77 9.94 -0.01 -0.03 0.09 1914
0.12 0.08 0.80 -0.80 9.98 -0.01 -0.03 0.08 1922
0.11 0.08 0.81 -0.77 9.91 -0.01 -0.03 0.08 1928
0.11 0.10 1.06 -0.61 9.95 -0.01 -0.03 0.08 1934
0.12 0.10 0.83 -0.64 9.76 -0.00 -0.03 0.08 1940
0.12 0.11 0.80 -0.78 9.78 -0.01 -0.03 0.08 1946
0.11 0.09 0.80 -0.79 9.86 -0.01 -0.03 0.08 1952
0.13 0.10 0.82 -0.80 9.96 -0.01 -0.03 0.08 1958
0.12 0.10 0.82 -0.78 10.00 -0.00 -0.03 0.08 1965
0.12 0.09 0.84 -0.78 9.92 -0.00 -0.03 0.08 1972
0.12 0.07 0.84 -0.77 9.86 0.00 -0.03 0.08 1978
0.13 0.06 0.82 -0.78 9.95 0.00 -0.03 0.07 1984
0.12 0.05 0.84 -0.79 9.97 0.00 -0.03 0.07 1990
0.12 0.05 0.85 -0.79 9.91 0.00 -0.03 0.08 1996
0.13 0.04 0.82 -0.78 9.90 0.01 -0.03 0.09 2002
0.14 0.05 0.89 -0.80 9.93 0.00 -0.04 0.08 2009
0.12 0.05 0.83 -0.76 9.89 0.00 -0.04 0.07 2015
0.12 0.04 0.85 -0.80 9.92 0.00 -0.03 0.07 2022
0.14 0.05 0.81 -0.82 9.93 0.01 -0.03 0.07 2028
0.13 0.03 0.79 -0.81 9.92 -0.00 -0.03 0.07 2034
0.13 0.01 0.78 -0.82 9.95 -0.00 -0.03 0.07 2040
0.13 0.03 0.82 -0.81 9.96 -0.01 -0.03 0.07 2046
0.15 0.02 0.84 -0.84 9.92 -0.01 -0.03 0.07 2053
0.12 0.02 0.80 -0.78 9.95 -0.01 -0.03 0.07 2059
0.12 0.01 0.82 -0.82 9.92 -0.00 -0.03 0.08 2066
0.13 0.03 0.82 -0.81 9.95 -0.01 -0.03 0.08 2072
0.12 0.01 0.84 -0.80 9.91 -0.01 -0.03 0.07 2078
0.13 0.01 0.83 -0.86 9.95 -0.01 -0.03 0.08 2084
0.12 0.02 0.85 -0.81 9.97 -0.01 -0.04 0.07 2091
0.11 0.02 0.84 -0.82 9.97 -0.01 -0.04 0.08 2097
0.09 0.02 0.83 -0.77 9.88 -0.02 -0.04 0.07 2103
0.08 0.02 0.85 -0.79 9.89 -0.02 -0.03 0.08 2109
0.08 0.03 0.84 -0.77 9.88 -0.01 -0.03 0.07 2116
0.09 0.02 0.89 -0.76 9.96 -0.01 -0.03 0.07 2122
0.08 0.01 0.84 -0.79 9.92 -0.00 -0.04 0.07 2128
0.09 0.02 0.83 -0.78 9.94 -0.00 -0.03 0.07 2135
0.09 0.03 0.83 -0.80 9.99 0.00 -0.03 0.08 2141
0.09 0.02 0.62 -0.96 10.40 -0.00 -0.04 0.08 2147
0.09 0.01 0.86 -0.80 9.94 0.01 -0.04 0.07 2153
0.09 0.02 0.89 -0.81 9.93 0.01 -0.04 0.07 2160
0.10 0.02 0.87 -0.83 9.92 0.02 -0.05 0.08 2166
0.09 0.03 0.80 -0.71 10.13 0.02 -0.05 0.08 2172
0.09 0.02 0.87 -0.86 9.96 0.02 -0.05 0.07 2179
0.10 0.02 0.83 -0.81 9.95 0.02 -0.06 0.07 2185
0.10 0.00 0.84 -0.86 9.96 0.02 -0.06 0.06 2191
0.10 -0.01 0.83 -0.90 9.90 0.02 -0.06 0.06 2197
0.10 -0.01 0.85 -0.87 9.88 0.02 -0.06 0.06 2203
0.12 -0.01 0.83 -0.87 9.95 0.01 -0.05 0.06 2210
0.11 -0.01 0.85 -0.88 9.96 0.01 -0.06 0.06 2216
0.10 -0.00 0.87 -0.87 9.99 0.01 -0.06 0.06 2223
0.11 0.00 0.87 -0.84 10.00 0.01 -0.06 0.06 2229
0.11 -0.00 0.87 -0.83 9.98 0.02 -0.06 0.06 2235
0.11 -0.01 0.86 -0.83 9.99 0.02 -0.06 0.05 2241
0.10 -0.01 0.84 -0.87 9.94 0.03 -0.06 0.05 2247
0.11 -0.00 0.82 -0.87 9.96 0.03 -0.05 0.04 2253
0.11 0.00 0.81 -0.90 9.99 0.03 -0.05 0.05 2260
0.10 -0.01 0.79 -0.89 9.93 0.03 -0.04 0.04 2267
0.10 -0.01 0.75 -0.90 9.94 0.04 -0.05 0.05 2273
0.11 -0.01 0.84 -0.88 9.91 0.03 -0.05 0.05 2279
0.11 -0.01 0.82 -0.92 9.96 0.02 -0.05 0.05 2285
0.10 -0.01 0.87 -0.91 9.90 0.02 -0.05 0.05 2291
0.11 -0.01 0.86 -0.94 9.95 0.02 -0.06 0.06 2297
0.11 -0.01 0.87 -0.91 9.95 0.02 -0.05 0.05 2304
0.11 -0.01 0.83 -0.92 9.93 0.02 -0.06 0.05 2310
0.11 -0.01 0.86 -0.92 9.99 0.03 -0.05 0.05 2316
0.10 -0.01 0.88 -0.90 9.96 0.04 -0.05 0.04 2323
0.11 -0.00 0.86 -0.95 9.93 0.04 -0.04 0.03 2329
0.11 -0.01 0.83 -0.91 9.94 0.05 -0.04 0.03 2335
0.11 -0.01 0.85 -0.94 9.98 0.06 -0.03 0.03 2341
0.10 -0.01 0.88 -0.93 10.03 0.08 -0.02 0.03 2348
0.12 -0.00 0.90 -0.95 10.02 0.11 0.00 0.03 2354
0.12 -0.01 0.86 -0.96 10.01 0.15 0.03 0.02 2360
0.11 -0.01 0.92 -0.98 10.10 0.18 0.06 0.01 2366
0.11 -0.01 0.95 -0.99 10.29 0.25 0.09 0.00 2373
0.13 -0.01 0.93 -0.99 10.25 0.32 0.12 -0.01 2379
0.12 -0.01 2.17 -0.74 10.29 0.36 0.18 -0.01 2385
0.11 -0.01 1.01 -1.09 10.43 0.43 0.19 -0.03 2392
0.12 -0.00 1.20 -1.18 10.60 0.49 0.18 -0.04 2398
0.12 -0.01 1.08 -1.24 10.10 0.51 0.17 -0.06 2404
0.12 -0.01 1.10 -1.26 10.35 0.51 0.13 -0.07 2411
0.14 0.00 1.05 -1.18 10.33 0.52 0.12 -0.07 2417
0.13 -0.01 0.91 -1.33 10.17 0.52 0.11 -0.08 2423
0.13 -0.01 1.13 -1.32 10.07 0.52 0.10 -0.07 2429
0.13 -0.01 0.98 -1.42 10.15 0.51 0.10 -0.08 2436
0.09 -0.01 1.01 -1.45 10.04 0.51 0.09 -0.07 2443
0.08 -0.00 1.07 -1.45 10.08 0.51 0.09 -0.07 2449
0.11 -0.01 1.06 -1.51 10.07 0.51 0.10 -0.07 2455
0.09 -0.01 1.06 -1.53 10.02 0.52 0.10 -0.07 2461
0.07 -0.00 1.13 -1.58 10.06 0.51 0.10 -0.07 2467
0.09 -0.00 1.11 -1.61 10.03 0.51 0.11 -0.07 2473
0.08 -0.01 1.11 -1.65 10.02 0.52 0.11 -0.07 2481
0.09 -0.00 1.26 -1.72 9.92 0.52 0.12 -0.09 2487
0.09 -0.00 1.23 -1.74 10.08 0.53 0.13 -0.09 2493
0.07 -0.00 1.19 -1.80 10.11 0.53 0.15 -0.10 2499
0.07 -0.00 1.29 -1.81 9.98 0.54 0.15 -0.11 2505
0.06 -0.00 1.29 -1.89 10.01 0.55 0.17 -0.12 2512
0.07 -0.00 1.28 -1.91 10.15 0.57 0.20 -0.13 2519
0.08 -0.00 1.38 -1.91 10.23 0.58 0.22 -0.14 2525
0.08 -0.01 1.41 -1.94 10.10 0.60 0.24 -0.15 2531
0.07 -0.01 1.43 -2.06 10.19 0.61 0.27 -0.20 2537
0.08 -0.01 1.37 -2.10 10.22 0.63 0.31 -0.18 2543
0.07 0.00 1.42 -2.13 10.47 0.66 0.36 -0.19 2550
0.09 -0.01 1.91 -2.04 11.75 0.68 0.40 -0.20 2556
0.07 -0.01 1.09 -2.36 10.85 0.70 0.46 -0.19 2563
0.09 0.00 1.90 -2.18 10.90 0.74 0.54 -0.20 2569
0.07 -0.00 1.68 -2.19 10.55 0.76 0.65 -0.23 2575
0.06 -0.01 1.69 -2.28 10.49 0.78 0.73 -0.25 2581
0.06 0.00 1.57 -2.31 10.63 0.80 0.78 -0.26 2588
0.07 -0.01 1.74 -2.52 10.69 0.82 0.87 -0.27 2594
0.06 -0.01 1.81 -2.61 10.70 0.84 0.90 -0.28 2600
0.06 -0.00 1.70 -2.71 10.83 0.86 0.97 -0.27 2607
0.09 -0.00 1.63 -2.88 10.96 0.89 1.05 -0.26 2613
0.08 -0.01 1.56 -3.08 11.09 0.91 1.12 -0.23 2620
0.06 0.00 1.27 -3.06 11.35 0.93 1.22 -0.19 2626
0.08 -0.01 1.11 -3.31 11.41 0.94 1.31 -0.14 2632
0.07 -0.01 1.03 -4.04 12.40 0.93 1.42 -0.06 2638
0.07 -0.01 0.90 -3.91 12.24 0.91 1.57 0.02 2644
0.08 -0.00 1.01 -3.99 11.51 0.88 1.70 0.08 2651
0.07 -0.01 0.93 -3.82 11.30 0.84 1.80 0.14 2658
0.07 -0.01 0.88 -3.99 11.19 0.81 1.87 0.19 2664
0.09 -0.00 0.73 -4.19 10.84 0.80 1.92 0.23 2670
0.08 -0.01 0.43 -4.47 10.52 0.80 1.96 0.26 2676
0.07 -0.01 -0.09 -4.84 10.23 0.81 1.95 0.28 2682
0.07 -0.00 -0.60 -5.37 9.82 0.83 1.91 0.27 2689
0.07 -0.01 -1.80 -5.94 9.62 0.87 1.77 0.23 2695
0.07 -0.01 -3.41 -6.60 9.40 0.92 1.51 0.12 2702
0.07 -0.00 -4.99 -6.44 9.49 0.97 1.14 -0.08 2708
0.07 -0.00 -6.39 -6.84 9.61 1.00 0.69 -0.34 2714
0.05 -0.01 -7.47 -6.58 10.04 0.97 0.28 -0.73 2720
0.04 -0.00 -6.66 -5.87 9.96 0.92 -0.17 -1.09 2726
0.06 -0.00 -6.50 -6.11 10.21 0.83 -0.56 -1.32 2733
0.06 -0.01 -6.81 -6.01 10.64 0.73 -0.87 -1.68 2740
0.06 -0.01 -4.69 -5.65 10.23 0.64 -1.17 -1.97 2746
0.05 -0.01 -5.17 -5.55 10.75 0.57 -1.41 -2.21 2752
0.07 -0.01 -3.91 -5.27 10.30 0.53 -1.56 -2.41 2758
0.04 -0.00 -3.33 -5.13 10.49 0.50 -1.77 -2.55 2764
0.06 -0.00 -4.74 -4.68 10.55 0.49 -1.96 -2.63 2770
0.06 -0.01 -2.99 -4.45 9.70 0.45 -2.15 -2.65 2778
0.04 -0.00 -2.08 -4.18 10.35 0.42 -2.33 -2.61 2784
0.05 0.00 -1.79 -3.96 10.21 0.41 -2.47 -2.51 2790
0.05 -0.01 -0.94 -3.84 9.70 0.42 -2.62 -2.38 2796
0.05 -0.00 1.08 -3.67 8.50 0.43 -2.75 -2.25 2802
0.05 -0.01 1.52 -3.34 10.14 0.46 -2.89 -2.04 2808
0.06 -0.01 0.95 -2.88 8.70 0.49 -2.96 -1.83 2816
0.05 -0.00 0.98 -2.74 8.52 0.50 -2.95 -1.60 2822
0.05 -0.00 1.96 -2.62 10.44 0.51 -2.87 -1.40 2828
0.06 -0.00 2.38 -2.46 9.40 0.51 -2.68 -1.25 2834
0.06 -0.01 3.57 -2.57 9.49 0.52 -2.49 -1.20 2840
0.05 -0.01 3.55 -2.47 9.18 0.51 -2.26 -1.18 2846
0.06 -0.01 2.81 -2.49 9.62 0.49 -1.99 -1.16 2852
0.06 -0.01 2.70 -2.44 9.52 0.46 -1.70 -1.18 2859
0.05 -0.01 2.50 -2.56 9.27 0.45 -1.45 -1.23 2866
0.04 -0.00 2.34 -2.77 9.33 0.43 -1.28 -1.28 2872
0.05 0.00 2.06 -2.69 9.19 0.42 -1.16 -1.34 2878
0.06 -0.01 -1.01 -3.06 9.15 0.42 -1.10 -1.41 2884
0.05 -0.01 -0.76 -3.14 9.91 0.39 -1.05 -1.45 2890
0.05 -0.00 0.61 -3.28 9.95 0.37 -1.02 -1.48 2896
0.06 -0.00 2.26 -3.35 9.55 0.34 -1.00 -1.51 2903
0.06 -0.01 2.64 -3.41 9.74 0.31 -0.99 -1.53 2909
0.06 -0.01 2.31 -3.12 9.76 0.28 -0.97 -1.56 2916
0.06 -0.01 -0.00 -3.37 9.07 0.25 -0.99 -1.59 2922
0.07 0.00 0.91 -3.48 10.09 0.21 -0.97 -1.64 2928
0.05 -0.01 0.71 -3.45 9.93 0.15 -0.99 -1.69 2934
0.05 0.00 0.85 -3.71 9.65 0.10 -1.01 -1.74 2940
0.06 0.00 0.85 -3.81 9.75 0.02 -1.01 -1.77 2947
0.05 -0.00 0.77 -3.82 9.73 -0.07 -0.99 -1.79 2953
0.06 -0.01 0.82 -3.81 9.54 -0.16 -0.95 -1.82 2960
0.06 -0.00 0.80 -3.85 9.37 -0.24 -0.91 -1.85 2966
0.07 -0.00 0.76 -3.92 9.16 -0.31 -0.87 -1.88 2972
0.05 -0.01 0.69 -3.94 8.86 -0.37 -0.82 -1.88 2978
0.05 -0.01 0.72 -3.86 8.93 -0.42 -0.80 -1.88 2984
0.06 0.00 0.78 -3.79 8.70 -0.47 -0.76 -1.86 2991
0.06 -0.01 0.63 -3.76 8.69 -0.49 -0.75 -1.83 2997
0.06 -0.01 0.49 -3.63 8.99 -0.52 -0.76 -1.78 3003
0.06 -0.01 0.13 -3.37 9.30 -0.56 -0.82 -1.72 3010
0.07 -0.00 -0.16 -3.14 9.35 -0.61 -0.92 -1.64 3016
0.06 -0.00 -0.27 -2.89 9.42 -0.67 -1.04 -1.55 3022
0.05 -0.01 -0.30 -2.74 9.27 -0.75 -1.18 -1.44 3028
0.06 -0.00 -0.10 -2.68 9.09 -0.82 -1.32 -1.32 3035
0.06 -0.01 0.32 -2.63 8.90 -0.89 -1.39 -1.18 3041
0.05 -0.01 0.78 -2.64 8.71 -0.95 -1.43 -1.08 3047
0.06 -0.01 1.27 -2.66 8.47 -0.97 -1.39 -0.94 3054
0.07 -0.01 1.72 -2.65 8.32 -0.97 -1.25 -0.80 3060
0.06 -0.01 2.19 -2.74 8.27 -0.95 -1.05 -0.66 3066
0.05 -0.00 2.40 -2.76 8.23 -0.92 -0.81 -0.52 3073
0.06 -0.00 2.48 -2.80 8.26 -0.87 -0.55 -0.38 3079
0.06 -0.01 2.53 -2.84 8.46 -0.82 -0.32 -0.25 3085
0.06 -0.01 2.34 -2.92 8.49 -0.76 -0.06 -0.14 3091
0.05 -0.01 2.05 -2.97 8.72 -0.72 0.18 0.00 3097
0.06 -0.00 1.66 -3.08 8.95 -0.69 0.37 0.14 3104
0.06 -0.01 1.20 -3.25 9.35 -0.68 0.49 0.27 3110
0.06 -0.01 0.78 -3.35 9.74 -0.67 0.56 0.41 3117
0.06 -0.01 0.48 -3.42 9.94 -0.69 0.58 0.55 3123
0.06 -0.01 0.21 -3.50 10.11 -0.72 0.56 0.69 3129
0.06 -0.01 0.14 -3.48 10.27 -0.76 0.53 0.78 3135
0.06 -0.01 0.25 -3.56 10.46 -0.82 0.51 0.89 3141
0.06 -0.01 0.50 -3.62 10.63 -0.87 0.51 1.00 3147
0.06 -0.01 0.71 -3.65 10.82 -0.94 0.57 1.10 3154
0.06 -0.01 -7.91 -5.47 10.83 -1.03 0.65 0.88 3161
0.07 -0.01 2.87 -3.08 12.66 -1.16 1.03 0.61 3167
0.07 -0.01 0.92 -1.92 10.25 -1.51 0.95 0.60 3173
0.05 -0.01 0.00 -1.55 9.64 -1.61 1.17 0.69 3179
0.05 -0.00 0.87 -3.26 9.81 -1.61 1.44 0.87 3185
0.06 0.00 0.50 -4.80 11.03 -1.53 1.63 1.02 3192
0.07 -0.01 1.83 -4.29 11.15 -1.48 1.74 1.21 3198
0.07 -0.01 1.17 -3.82 10.30 -1.43 1.74 1.43 3205
0.08 -0.00 0.55 -3.81 9.66 -1.36 1.76 1.61 3211
0.09 -0.01 0.39 -3.93 9.49 -1.30 1.74 1.76 3217
0.08 -0.01 0.22 -3.97 9.62 -1.22 1.67 1.89 3223
0.08 -0.00 0.02 -4.01 9.97 -1.13 1.59 2.01 3229
0.09 -0.00 -0.05 -4.06 10.12 -1.03 1.51 2.10 3236
0.08 -0.01 -0.03 -3.95 10.29 -0.94 1.43 2.15 3243
0.07 -0.01 0.05 -3.86 10.36 -0.87 1.36 2.19 3249
0.06 -0.00 0.16 -3.68 10.40 -0.83 1.30 2.20 3255
0.07 -0.01 0.24 -3.55 10.36 -0.80 1.25 2.19 3261
0.06 -0.01 -0.50 -3.71 12.86 -0.80 1.28 2.08 3267
0.06 0.00 1.65 -3.33 12.11 -0.89 1.36 1.90 3274
0.06 -0.01 0.48 -2.50 11.41 -0.94 1.28 1.79 3280
0.06 -0.01 0.46 -2.91 10.37 -0.91 1.27 1.68 3287
0.06 0.01 0.01 -3.35 11.35 -0.85 1.24 1.59 3293
0.07 -0.00 0.50 -3.73 11.59 -0.79 1.17 1.52 3299
0.05 -0.01 0.71 -3.49 11.77 -0.74 1.17 1.45 3306
0.06 0.00 -2.64 -2.74 11.92 -0.72 1.16 1.34 3312
0.06 -0.01 -1.16 -2.23 10.25 -0.73 1.09 1.30 3318
0.06 -0.01 -2.56 -2.64 8.89 -0.76 0.98 1.24 3324
0.07 0.01 -2.50 -3.41 10.50 -0.75 0.91 1.19 3331
0.07 -0.01 -2.05 -3.86 10.58 -0.73 0.83 1.14 3337
0.07 -0.01 -1.15 -4.21 10.84 -0.70 0.78 1.08 3344
0.07 -0.00 1.94 -4.86 12.41 -0.66 0.80 0.99 3350
0.07 -0.01 0.01 -2.26 8.07 -0.68 0.60 0.87 3356
0.06 -0.01 -2.30 -4.67 10.29 -0.66 0.55 0.78 3362
0.06 -0.01 0.12 -3.54 11.33 -0.60 0.57 0.68 3368
0.06 -0.01 0.63 -3.37 10.88 -0.59 0.52 0.60 3375
0.05 -0.01 -0.67 -3.56 10.61 -0.60 0.48 0.50 3381
0.05 -0.01 -0.14 -3.52 10.81 -0.63 0.51 0.40 3388
0.06 -0.01 0.40 -3.40 10.96 -0.68 0.52 0.31 3394
0.07 -0.01 0.61 -3.40 10.98 -0.73 0.53 0.20 3400
0.05 -0.01 0.80 -3.57 10.80 -0.80 0.58 0.09 3406
0.04 -0.00 1.07 -3.79 10.54 -0.79 0.63 -0.01 3412
0.05 -0.01 1.29 -3.92 10.27 -0.80 0.67 -0.12 3419
0.04 -0.00 1.36 -4.07 10.08 -0.79 0.77 -0.21 3426
0.03 -0.00 1.37 -4.24 10.08 -0.75 0.93 -0.25 3432
0.05 -0.01 1.26 -4.33 10.22 -0.72 1.11 -0.28 3438
0.05 -0.00 0.95 -4.29 10.31 -0.68 1.28 -0.27 3444
0.04 -0.00 0.57 -4.22 10.57 -0.64 1.40 -0.23 3450
0.05 0.00 0.12 -4.15 10.71 -0.62 1.42 -0.16 3457
0.04 -0.00 -0.31 -4.00 10.81 -0.60 1.36 -0.07 3464
0.04 -0.00 -0.46 -3.87 10.62 -0.60 1.25 0.03 3470
0.06 -0.00 -0.50 -3.75 10.37 -0.60 1.10 0.15 3476
0.04 -0.00 -0.39 -3.76 9.93 -0.59 0.94 0.26 3482
0.04 -0.00 -0.22 -3.78 9.65 -0.58 0.88 0.36 3488
0.04 -0.00 0.00 -3.88 9.44 -0.55 0.84 0.43 3494
0.05 0.00 0.19 -3.96 9.13 -0.51 0.86 0.48 3501
0.05 -0.00 0.25 -4.05 8.71 -0.44 0.92 0.51 3507
0.05 -0.00 0.02 -4.13 8.35 -0.34 1.01 0.52 3514
0.05 -0.00 -0.43 -4.11 7.91 -0.28 1.12 0.51 3520
0.06 -0.01 -21.50 -13.46 16.60 -0.06 0.77 0.60 3526
0.04 -0.00 -9.29 -6.09 7.79 0.34 -0.32 0.72 3532
0.03 -0.00 -7.64 -3.91 4.30 0.29 -1.02 0.73 3538
0.04 -0.00 -8.78 -7.96 6.47 0.41 -1.53 0.75 3545
0.04 -0.00 -8.60 -5.07 15.98 1.03 -1.23 1.08 3551
0.03 -0.00 -5.09 -6.90 5.65 1.35 -0.95 1.37 3557
0.04 -0.00 -9.07 -7.84 6.21 1.62 -1.19 1.40 3564
0.04 -0.00 -20.46 -4.76 24.93 0.80 -2.05 0.55 3570
0.05 0.01 -3.61 -2.79 3.59 0.05 0.06 -0.02 3576
0.06 0.03 -0.77 -3.88 16.98 -0.53 0.31 0.01 3582
0.05 0.14 -1.10 0.41 9.63 -0.44 -0.07 -0.08 3589
0.04 0.25 0.49 -1.60 10.95 -0.29 0.02 -0.08 3595
0.03 0.37 1.50 -1.55 10.59 -0.22 0.19 0.02 3602
0.04 0.53 1.66 -0.94 10.29 -0.17 0.21 0.12 3608
0.04 0.61 1.13 -0.82 10.09 -0.12 0.13 0.13 3614
0.03 0.66 0.88 -0.40 9.98 -0.06 0.07 0.09 3620
0.03 0.71 0.80 -0.36 9.98 -0.02 0.04 0.06 3627
0.05 0.68 0.85 -0.56 9.98 -0.01 0.02 0.06 3633
0.02 0.67 0.78 -0.75 9.99 0.00 -0.01 0.06 3640
0.04 0.64 0.74 -0.85 10.05 0.00 -0.03 0.06 3646
0.04 0.60 0.66 -0.87 9.95 -0.00 -0.04 0.05 3652
0.05 0.53 0.60 -0.80 9.92 -0.00 -0.03 0.06 3658
0.06 0.52 0.55 -0.88 9.90 -0.02 -0.02 0.06 3664
0.07 0.52 0.60 -0.86 9.94 -0.03 -0.01 0.08 3671
0.08 0.51 0.75 -0.77 9.94 -0.03 -0.01 0.08 3677
0.08 0.51 0.72 -0.73 9.96 -0.03 -0.02 0.07 3684
0.11 0.53 0.69 -0.72 9.97 -0.03 -0.03 0.08 3690
0.09 0.55 0.70 -0.78 9.95 -0.02 -0.03 0.07 3696
0.10 0.57 0.67 -0.73 9.96 -0.02 -0.03 0.08 3702
0.11 0.55 0.61 -0.70 9.87 -0.03 -0.03 0.08 3708
0.11 0.59 0.60 -0.74 9.97 -0.03 -0.03 0.08 3715
0.12 0.60 0.65 -0.74 9.94 -0.03 -0.03 0.09 3721
0.12 0.58 0.56 -0.95 9.28 -0.03 -0.03 0.09 3728
0.12 0.62 0.66 -0.72 9.97 -0.03 -0.03 0.10 3734
0.17 0.62 0.67 -0.74 9.98 -0.03 -0.03 0.10 3740
0.16 0.62 0.68 -0.75 9.95 -0.02 -0.03 0.10 3746
0.17 0.62 0.67 -0.72 9.95 -0.02 -0.03 0.11 3752
0.16 0.63 0.67 -0.74 9.92 -0.02 -0.04 0.11 3759
0.15 0.63 0.65 -0.72 9.95 -0.02 -0.03 0.10 3766
0.15 0.65 0.64 -0.73 9.95 -0.02 -0.03 0.11 3772
0.16 0.67 0.66 -0.74 9.92 -0.01 -0.03 0.11 3778
0.16 0.67 0.67 -0.71 9.93 -0.02 -0.03 0.11 3784
0.16 0.67 0.65 -0.70 9.98 -0.02 -0.03 0.11 3790
0.14 0.73 0.69 -0.71 9.97 -0.02 -0.02 0.12 3796
0.15 0.77 0.69 -0.73 9.91 -0.02 -0.02 0.11 3803
0.14 0.79 0.68 -0.71 9.92 -0.02 -0.02 0.11 3810
0.13 0.81 0.66 -0.69 9.96 -0.01 -0.03 0.11 3816
0.14 0.82 0.66 -0.69 9.98 -0.02 -0.03 0.12 3822
0.10 0.85 0.69 -0.69 9.95 -0.01 -0.03 0.11 3828
0.08 0.88 0.69 -0.70 9.93 -0.01 -0.03 0.11 3834
0.10 0.86 0.68 -0.70 9.92 -0.01 -0.03 0.11 3841
0.10 0.84 0.72 -0.68 9.93 -0.01 -0.03 0.12 3847
0.07 0.86 0.67 -0.70 9.91 -0.01 -0.03 0.11 3854
0.08 0.87 0.69 -0.66 9.90 -0.01 -0.03 0.12 3860
0.08 0.93 0.67 -0.68 9.89 -0.01 -0.03 0.10 3866
0.06 0.91 0.69 -0.66 9.92 -0.00 -0.03 0.11 3872
0.06 0.92 0.68 -0.73 9.91 -0.00 -0.04 0.11 3878
0.07 0.90 0.66 -0.72 9.93 -0.00 -0.03 0.11 3885
0.07 0.90 0.67 -0.69 9.96 -0.00 -0.03 0.12 3891
0.07 0.87 0.66 -0.69 9.98 -0.00 -0.04 0.11 3898
0.08 0.89 0.67 -0.73 9.91 -0.00 -0.03 0.11 3904
0.09 0.88 0.68 -0.72 9.90 -0.00 -0.03 0.11 3910
0.09 0.88 0.70 -0.72 9.94 -0.01 -0.04 0.11 3916
0.09 0.87 0.68 -0.73 9.90 -0.01 -0.04 0.10 3922
0.09 0.89 0.65 -0.71 9.95 -0.00 -0.04 0.11 3929
0.09 0.89 0.67 -0.69 9.94 -0.01 -0.04 0.11 3935
0.07 0.89 0.68 -0.70 9.92 -0.01 -0.04 0.12 3942
0.08 0.90 0.68 -0.69 9.92 -0.01 -0.04 0.12 3948
0.09 0.89 0.67 -0.69 9.91 -0.01 -0.05 0.11 3954
0.09 0.87 0.68 -0.67 9.92 -0.01 -0.05 0.11 3960
0.09 0.88 0.68 -0.69 9.99 -0.01 -0.05 0.11 3966
0.10 0.90 0.65 -0.69 9.93 -0.01 -0.05 0.11 3973
0.10 0.89 0.64 -0.70 9.94 -0.01 -0.05 0.11 3980
0.08 0.89 0.63 -0.70 9.95 -0.01 -0.04 0.11 3986
0.08 0.92 0.64 -0.70 9.91 -0.01 -0.04 0.11 3992
0.08 0.92 0.64 -0.72 9.92 -0.01 -0.04 0.11 3998
0.08 0.90 0.65 -0.68 9.93 -0.01 -0.04 0.11 4004
0.07 0.90 0.68 -0.71 9.87 -0.01 -0.04 0.11 4011
0.09 0.89 0.65 -0.68 9.92 -0.01 -0.03 0.11 4017
0.08 0.91 0.67 -0.68 9.95 -0.01 -0.04 0.11 4024
0.08 0.89 0.65 -0.67 9.98 -0.01 -0.04 0.11 4030
0.10 0.90 0.73 -0.68 9.92 -0.02 -0.04 0.12 4036
0.10 0.92 0.66 -0.73 9.92 -0.02 -0.03 0.12 4042
0.08 0.95 0.70 -0.68 9.98 -0.02 -0.03 0.12 4048
0.08 0.97 0.68 -0.66 9.95 -0.01 -0.03 0.13 4055
0.09 0.95 0.69 -0.69 9.94 -0.01 -0.03 0.12 4061
0.09 0.94 0.69 -0.65 9.93 -0.01 -0.02 0.12 4068
0.11 0.96 0.68 -0.68 9.92 -0.01 -0.03 0.12 4074
0.12 0.98 0.63 -0.69 9.92 -0.01 -0.02 0.12 4080
0.12 0.95 0.70 -0.69 9.92 -0.01 -0.02 0.12 4086
0.11 0.93 0.68 -0.68 9.94 -0.00 -0.02 0.12 4092
0.14 0.95 0.68 -0.69 9.96 -0.00 -0.02 0.11 4099
0.14 0.94 0.66 -0.69 9.97 0.00 -0.01 0.12 4105
0.14 0.94 0.66 -0.68 9.93 -0.00 -0.01 0.12 4112
0.13 0.98 0.65 -0.69 9.93 -0.00 -0.01 0.12 4118
0.14 0.97 0.67 -0.70 9.92 -0.00 -0.00 0.12 4124
0.13 0.93 0.69 -0.68 9.98 0.00 -0.01 0.12 4130
0.13 0.95 0.65 -0.67 9.96 0.00 -0.00 0.13 4136
0.13 0.94 0.68 -0.68 9.95 0.00 0.00 0.13 4143
0.14 0.92 0.70 -0.66 9.90 0.00 0.01 0.13 4149
0.13 0.88 0.70 -0.70 9.96 0.00 0.00 0.13 4156
0.12 0.89 0.73 -0.69 9.95 -0.00 0.00 0.13 4162
0.13 0.89 0.72 -0.70 9.89 0.00 0.01 0.13 4168
0.11 0.89 0.74 -0.68 9.95 0.00 0.01 0.12 4174
0.10 0.90 0.74 -0.68 9.92 0.00 0.00 0.13 4180
0.11 0.92 0.72 -0.68 9.92 0.00 0.01 0.13 4187
0.12 0.89 0.75 -0.68 9.96 -0.00 0.01 0.13 4193
0.13 0.86 0.76 -0.69 9.94 0.00 0.00 0.13 4200
0.12 0.86 0.75 -0.68 9.94 0.00 0.01 0.13 4206
0.12 0.85 0.72 -0.69 9.94 0.00 0.00 0.12 4212
0.10 0.85 0.76 -0.66 9.95 0.00 0.00 0.12 4218
0.10 0.83 0.74 -0.70 9.89 0.01 -0.01 0.13 4225
0.10 0.81 0.76 -0.69 9.97 0.01 -0.01 0.12 4231
0.10 0.79 0.76 -0.69 9.93 0.01 -0.01 0.12 4237
0.10 0.77 0.74 -0.70 9.88 0.00 -0.03 0.12 4243
0.10 0.76 0.77 -0.67 9.89 -0.00 -0.04 0.11 4250
0.10 0.77 0.79 -0.68 9.92 -0.00 -0.05 0.11 4256
0.09 0.77 0.74 -0.69 9.91 -0.01 -0.06 0.10 4262
0.08 0.79 0.77 -0.69 9.91 -0.01 -0.06 0.10 4269
0.09 0.81 0.76 -0.70 9.93 -0.01 -0.07 0.10 4275
0.11 0.82 0.74 -0.70 9.91 -0.01 -0.08 0.10 4281
0.10 0.81 0.75 -0.71 9.93 -0.01 -0.08 0.09 4287
0.11 0.82 0.73 -0.70 9.94 -0.02 -0.08 0.09 4294
0.12 0.81 0.77 -0.69 9.94 -0.02 -0.09 0.09 4300
0.12 0.82 0.75 -0.69 9.96 -0.01 -0.09 0.09 4306
0.12 0.80 0.72 -0.69 9.92 -0.02 -0.10 0.09 4313
0.14 0.77 0.74 -0.70 9.92 -0.01 -0.10 0.09 4319
0.16 0.77 0.73 -0.71 9.91 -0.02 -0.10 0.09 4325
0.16 0.75 0.70 -0.71 9.92 -0.02 -0.10 0.08 4331
0.14 0.76 0.76 -0.69 9.93 -0.02 -0.11 0.09 4338
0.14 0.76 0.74 -0.76 9.92 -0.02 -0.10 0.09 4344
0.15 0.75 0.70 -0.71 9.98 -0.02 -0.10 0.08 4350
0.16 0.76 0.71 -0.68 9.97 -0.02 -0.09 0.10 4357
0.17 0.77 0.73 -0.68 9.95 -0.02 -0.08 0.09 4363
0.16 0.77 0.72 -0.70 9.96 -0.02 -0.08 0.09 4369
0.16 0.75 0.69 -0.74 9.92 -0.02 -0.08 0.08 4376
0.15 0.77 0.71 -0.69 9.98 -0.01 -0.08 0.09 4382
0.16 0.75 0.67 -0.71 9.94 -0.01 -0.08 0.09 4388
0.16 0.75 0.67 -0.70 9.95 -0.01 -0.08 0.08 4395
0.17 0.75 0.71 -0.71 9.94 -0.01 -0.07 0.08 4401
0.17 0.75 0.72 -0.70 9.96 -0.01 -0.08 0.08 4407
0.17 0.75 0.72 -0.74 9.96 -0.02 -0.07 0.08 4413
0.17 0.75 0.74 -0.72 9.93 -0.02 -0.07 0.08 4420
0.18 0.76 0.71 -0.70 9.98 -0.02 -0.07 0.08 4426
0.17 0.74 0.71 -0.68 9.94 -0.02 -0.07 0.08 4432
0.15 0.75 0.68 -0.73 9.96 -0.02 -0.07 0.08 4439
0.16 0.78 0.68 -0.70 9.97 -0.02 -0.06 0.08 4445
0.16 0.74 0.69 -0.70 9.95 -0.01 -0.05 0.08 4451
0.15 0.73 0.68 -0.71 9.98 -0.01 -0.05 0.08 4458
0.15 0.73 0.67 -0.70 9.98 -0.01 -0.04 0.08 4464
0.15 0.71 0.68 -0.69 9.95 -0.01 -0.04 0.08 4470
0.15 0.69 0.71 -0.68 9.92 -0.01 -0.04 0.08 4476
0.16 0.68 0.68 -0.70 9.89 -0.00 -0.04 0.09 4483
0.16 0.68 0.72 -0.70 9.96 -0.01 -0.04 0.08 4489
0.16 0.66 0.69 -0.73 9.95 -0.01 -0.04 0.08 4495
0.16 0.64 0.73 -0.69 9.92 -0.01 -0.04 0.08 4502
0.17 0.62 0.71 -0.71 9.98 -0.00 -0.04 0.08 4508
0.17 0.59 0.71 -0.74 9.98 -0.00 -0.04 0.08 4514
0.15 0.60 0.69 -0.74 9.95 -0.01 -0.04 0.08 4520
0.17 0.58 0.70 -0.73 9.98 -0.00 -0.04 0.08 4527
0.19 0.56 0.69 -0.70 9.95 -0.01 -0.04 0.08 4533
0.18 0.54 0.68 -0.75 9.93 -0.01 -0.05 0.08 4539
0.18 0.54 0.70 -0.68 9.98 -0.00 -0.04 0.08 4546
0.18 0.58 0.66 -0.70 9.95 -0.01 -0.04 0.08 4552
0.20 0.56 0.68 -0.72 9.99 -0.01 -0.04 0.08 4558
0.21 0.54 0.69 -0.74 9.97 -0.01 -0.04 0.08 4564
0.22 0.51 0.69 -0.71 9.95 -0.01 -0.04 0.08 4571
0.23 0.56 0.68 -0.69 9.98 -0.01 -0.03 0.08 4577
0.24 0.56 0.67 -0.71 9.98 -0.00 -0.03 0.08 4583
0.25 0.54 0.72 -0.69 9.96 -0.00 -0.03 0.09 4590
0.27 0.54 0.67 -0.71 9.96 -0.00 -0.03 0.08 4596
0.26 0.51 0.67 -0.68 9.94 0.00 -0.03 0.08 4602
0.24 0.47 0.70 -0.68 10.00 0.00 -0.03 0.08 4609
0.25 0.48 0.70 -0.72 10.01 0.00 -0.03 0.09 4615
0.24 0.46 0.69 -0.74 9.95 0.00 -0.03 0.08 4621
0.24 0.43 0.68 -0.73 9.95 0.00 -0.03 0.08 4628
0.25 0.44 0.68 -0.73 9.98 -0.00 -0.02 0.09 4634
0.25 0.44 0.67 -0.72 9.95 -0.00 -0.03 0.09 4640
0.24 0.41 0.70 -0.71 9.99 -0.00 -0.03 0.09 4646
0.23 0.44 0.71 -0.70 9.96 -0.00 -0.03 0.09 4653
0.24 0.43 0.69 -0.73 9.90 0.00 -0.03 0.08 4659
0.24 0.37 0.71 -0.75 10.02 0.00 -0.02 0.08 4665
0.24 0.31 0.69 -0.69 9.92 -0.00 -0.02 0.09 4672
0.24 0.31 0.70 -0.69 9.94 -0.00 -0.02 0.08 4678
0.25 0.33 0.72 -0.71 9.96 -0.00 -0.02 0.08 4684
0.24 0.34 0.70 -0.72 9.96 -0.00 -0.02 0.08 4690
0.23 0.36 0.70 -0.72 9.94 -0.00 -0.02 0.08 4697
0.26 0.33 0.72 -0.69 9.97 0.00 -0.02 0.09 4703
0.26 0.29 0.70 -0.73 9.97 0.00 -0.02 0.08 4709
0.25 0.29 0.70 -0.69 9.96 0.00 -0.02 0.08 4716
0.25 0.30 0.71 -0.72 9.95 0.00 -0.02 0.08 4722
0.26 0.30 0.71 -0.72 9.93 -0.00 -0.02 0.07 4728
0.26 0.28 0.73 -0.74 9.94 -0.00 -0.03 0.08 4734
0.24 0.26 0.73 -0.73 9.96 -0.00 -0.02 0.08 4741
0.26 0.24 0.70 -0.77 9.96 -0.00 -0.02 0.08 4747
0.26 0.24 0.72 -0.72 9.95 -0.00 -0.03 0.08 4753
0.25 0.25 0.72 -0.71 9.94 0.00 -0.03 0.08 4760
0.26 0.30 0.73 -0.71 10.01 0.00 -0.03 0.08 4766
0.26 0.26 0.73 -0.71 9.97 0.00 -0.03 0.08 4772
0.26 0.24 0.74 -0.73 9.95 0.00 -0.03 0.08 4779
0.26 0.26 0.75 -0.75 9.95 0.00 -0.03 0.08 4785
0.26 0.23 0.69 -0.74 9.96 0.01 -0.02 0.08 4791
0.26 0.23 0.72 -0.76 9.96 0.00 -0.02 0.08 4797
0.24 0.22 0.71 -0.74 9.94 0.00 -0.02 0.08 4804
0.26 0.23 0.73 -0.77 9.97 0.00 -0.02 0.08 4810
0.25 0.25 0.70 -0.71 9.90 0.00 -0.02 0.08 4816
0.25 0.21 0.73 -0.75 9.95 0.00 -0.02 0.08 4823
0.24 0.24 0.76 -0.75 9.94 0.00 -0.02 0.08 4829
0.24 0.24 0.71 -0.74 9.98 -0.00 -0.02 0.08 4835
0.24 0.24 0.75 -0.74 9.99 -0.00 -0.01 0.08 4841
0.21 0.24 0.74 -0.77 9.97 0.00 -0.01 0.08 4847
0.23 0.20 0.72 -0.74 9.96 0.01 -0.01 0.08 4854
0.21 0.22 0.75 -0.75 9.94 0.00 -0.01 0.08 4860
0.20 0.21 0.80 -0.72 10.02 0.01 -0.00 0.08 4867
0.20 0.23 0.74 -0.72 9.95 0.00 0.00 0.08 4873
0.21 0.18 0.71 -0.74 9.93 0.00 0.00 0.08 4879
0.20 0.18 0.73 -0.76 9.92 0.00 0.00 0.08 4885
0.19 0.18 0.74 -0.73 9.94 0.00 -0.00 0.08 4891
0.19 0.20 0.76 -0.74 9.92 0.00 -0.01 0.08 4898
0.19 0.17 0.79 -0.78 9.95 0.00 -0.01 0.08 4904
0.18 0.12 0.77 -0.76 9.93 0.00 -0.01 0.08 4911
0.15 0.16 0.80 -0.76 10.02 0.00 -0.02 0.08 4917
0.16 0.15 0.87 -0.84 10.19 0.01 -0.02 0.08 4923
0.16 0.09 0.69 -0.70 9.94 0.01 -0.02 0.08 4929
0.16 0.11 0.78 -0.77 9.96 0.01 -0.03 0.08 4935
0.17 0.09 0.74 -0.73 9.94 0.01 -0.03 0.08 4942
0.17 0.10 0.78 -0.77 9.91 0.01 -0.03 0.07 4948
0.17 0.08 0.78 -0.74 9.94 0.01 -0.03 0.07 4955
0.16 0.08 0.74 -0.78 9.96 0.00 -0.04 0.07 4961
0.18 0.10 0.78 -0.77 9.95 -0.00 -0.03 0.07 4967
0.17 0.09 0.76 -0.78 9.98 -0.00 -0.04 0.07 4973
0.16 0.06 0.75 -0.79 9.96 0.00 -0.03 0.07 4979
0.15 0.08 0.79 -0.78 9.98 0.00 -0.03 0.07 4985
0.16 0.08 0.78 -0.79 9.97 -0.00 -0.02 0.07 4993
0.13 0.07 0.76 -0.74 9.96 0.00 -0.02 0.07 4999
0.11 0.03 0.80 -0.77 9.93 0.00 -0.01 0.08 5005
0.13 0.04 0.74 -0.79 9.91 0.00 -0.02 0.07 5011
0.12 0.04 0.79 -0.80 9.90 -0.00 -0.01 0.03 5017
0.10 0.02 0.76 -0.75 9.97 -0.01 -0.01 0.07 5023
0.09 0.02 0.84 -0.73 10.02 0.00 -0.01 0.07 5029
0.12 0.03 0.83 -0.76 10.04 0.01 -0.01 0.07 5037
0.11 0.05 0.83 -0.73 10.04 0.02 -0.01 0.08 5043
0.11 0.01 0.83 -0.72 9.99 0.02 -0.01 0.08 5049
0.11 0.03 0.83 -0.87 9.92 0.02 -0.02 0.08 5055
0.12 0.00 0.85 -0.86 9.99 0.03 -0.02 0.07 5061
0.10 0.02 0.84 -0.82 9.94 0.02 -0.03 0.06 5067
0.09 0.02 0.77 -0.87 9.91 0.01 -0.02 0.06 5073
0.09 0.03 0.85 -0.84 9.93 0.01 -0.02 0.06 5080
0.08 0.00 0.80 -0.78 10.01 0.01 -0.02 0.06 5087
0.07 0.01 0.77 -0.77 9.93 0.02 -0.03 0.07 5093
0.06 0.00 0.83 -0.78 10.05 0.02 -0.03 0.06 5099
0.08 -0.01 0.75 -0.77 9.96 0.02 -0.03 0.06 5105
0.07 -0.01 0.81 -0.80 9.95 0.04 -0.03 0.06 5111
0.06 -0.00 0.80 -0.81 9.97 0.04 -0.02 0.06 5117
0.07 0.00 1.05 -0.86 9.90 0.04 -0.01 0.06 5124
0.10 -0.01 0.45 -0.85 10.13 0.04 -0.01 0.06 5130
0.09 -0.01 0.83 -0.90 9.84 0.04 -0.02 0.06 5136
0.09 -0.01 0.85 -0.89 9.88 0.03 -0.03 0.06 5143
0.09 0.01 0.84 -0.85 9.99 0.02 -0.03 0.05 5149
0.10 0.00 0.83 -0.85 9.95 0.01 -0.04 0.05 5155
0.09 -0.01 0.83 -0.84 9.98 0.01 -0.04 0.05 5161
0.08 -0.01 0.85 -0.83 10.00 0.02 -0.04 0.04 5168
0.10 -0.00 0.85 -0.85 10.02 0.02 -0.04 0.04 5174
0.09 -0.01 1.01 -0.91 9.90 0.03 -0.03 0.04 5180
0.09 -0.01 0.84 -0.89 10.03 0.04 -0.03 0.04 5186
0.09 -0.01 0.88 -0.88 10.05 0.06 -0.02 0.03 5193
0.11 0.01 0.88 -0.92 9.70 0.09 -0.00 0.03 5199
0.10 -0.01 0.87 -0.92 10.10 0.15 0.03 0.01 5206
0.10 -0.01 1.01 -0.68 9.96 0.24 0.08 -0.01 5212
0.09 -0.01 0.73 -0.89 10.18 0.32 0.12 -0.01 5218
0.11 -0.01 0.74 -0.93 10.23 0.38 0.16 -0.01 5224
0.10 -0.01 0.45 -0.94 10.28 0.45 0.19 -0.01 5230
0.10 -0.01 0.66 -1.07 10.13 0.49 0.20 -0.02 5236
0.10 -0.01 0.85 -1.16 9.89 0.50 0.18 -0.01 5243
0.11 -0.01 1.27 -1.33 10.18 0.50 0.15 -0.01 5250
0.10 -0.01 1.38 -1.44 10.88 0.48 0.12 -0.02 5256
0.09 0.00 0.98 -1.22 9.97 0.46 0.08 -0.02 5262
0.09 -0.01 1.00 -1.26 9.88 0.43 0.05 -0.02 5268
0.09 -0.01 1.07 -1.33 9.82 0.40 0.03 -0.03 5274
0.09 -0.01 0.99 -1.33 9.86 0.36 0.02 -0.03 5280
0.09 0.00 1.03 -1.34 9.81 0.33 -0.00 -0.03 5286
0.10 -0.01 1.07 -1.37 9.79 0.30 -0.01 -0.03 5294
0.09 -0.01 1.02 -1.41 9.91 0.28 -0.02 -0.03 5300
0.09 -0.01 1.01 -1.41 9.92 0.27 -0.03 -0.03 5306
0.13 -0.00 1.04 -1.45 10.00 0.26 -0.02 -0.04 5312
0.14 -0.01 1.08 -1.51 10.04 0.27 -0.02 -0.04 5318
0.11 -0.01 1.01 -1.48 9.98 0.27 -0.02 -0.05 5324
0.10 -0.01 1.04 -1.53 9.97 0.28 -0.02 -0.05 5330
0.11 -0.01 1.04 -1.57 10.04 0.28 -0.01 -0.05 5337
0.10 -0.01 0.99 -1.56 9.98 0.29 -0.00 -0.05 5344
0.10 -0.01 0.98 -1.57 10.05 0.30 0.00 -0.04 5350
0.10 0.00 1.01 -1.63 9.97 0.31 0.00 -0.04 5356
0.10 -0.01 0.94 -1.62 9.93 0.31 0.02 -0.03 5362
0.09 -0.01 0.96 -1.69 9.84 0.31 0.02 -0.02 5368
0.09 -0.01 0.97 -1.70 9.85 0.30 0.02 -0.02 5374
0.11 -0.01 0.99 -1.71 9.72 0.29 0.02 -0.01 5381
0.11 -0.01 1.04 -1.76 9.76 0.27 0.02 -0.01 5387
0.09 -0.01 0.99 -1.76 9.79 0.25 0.03 -0.00 5393
0.07 -0.01 1.05 -1.81 9.79 0.25 0.04 -0.01 5400
0.08 0.00 1.05 -1.81 9.84 0.24 0.05 -0.00 5406
0.08 -0.00 1.03 -1.83 9.82 0.24 0.06 -0.00 5412
0.07 -0.01 1.08 -2.45 9.88 0.23 0.06 0.00 5419
0.06 -0.00 1.16 -1.87 9.88 0.23 0.06 -0.00 5425
0.07 0.01 1.12 -1.86 9.94 0.24 0.08 -0.00 5431
0.06 -0.01 1.11 -1.90 9.94 0.24 0.08 -0.00 5437
0.06 -0.01 1.18 -1.90 10.02 0.25 0.08 -0.01 5443
0.06 -0.01 1.15 -1.92 9.98 0.27 0.09 -0.01 5449
0.05 -0.00 1.19 -1.95 10.19 0.27 0.11 -0.02 5456
0.06 -0.01 1.10 -2.03 10.35 0.30 0.11 -0.02 5463
0.05 -0.01 1.22 -2.00 10.10 0.32 0.14 -0.02 5469
0.09 0.01 1.22 -2.05 10.09 0.35 0.15 -0.03 5475
0.07 -0.01 1.15 -2.04 10.08 0.37 0.18 -0.03 5481
0.06 -0.01 1.22 -2.14 10.16 0.39 0.19 -0.03 5487
0.06 -0.01 1.30 -2.11 10.21 0.42 0.21 -0.03 5494
0.08 -0.01 1.25 -2.18 10.22 0.44 0.24 -0.02 5500
0.06 -0.01 1.21 -2.25 10.25 0.47 0.25 -0.02 5507
0.07 -0.01 1.26 -2.25 10.13 0.49 0.28 -0.01 5513
0.08 -0.00 1.29 -2.25 10.17 0.52 0.30 -0.01 5519
0.08 -0.01 1.31 -2.29 9.91 0.53 0.32 -0.01 5525
0.07 -0.01 1.51 -2.33 10.06 0.54 0.34 -0.01 5531
0.08 0.00 1.48 -2.35 10.06 0.55 0.36 -0.02 5538
0.06 -0.01 1.48 -2.41 10.09 0.58 0.36 -0.03 5544
0.06 -0.01 1.51 -2.47 10.05 0.59 0.36 -0.03 5551
0.07 -0.00 1.65 -2.54 10.12 0.59 0.38 -0.04 5557
0.06 -0.01 1.53 -2.56 10.07 0.61 0.40 -0.04 5563
0.07 -0.01 1.60 -2.69 10.15 0.62 0.42 -0.04 5569
0.06 -0.01 1.43 -2.65 10.22 0.64 0.44 -0.04 5576
0.09 -0.00 1.45 -2.75 10.27 0.64 0.49 -0.03 5582
0.06 -0.01 1.47 -2.87 10.48 0.64 0.55 -0.02 5588
0.07 -0.01 1.43 -2.94 10.54 0.65 0.61 0.00 5595
0.08 -0.00 1.39 -3.04 10.46 0.66 0.67 0.03 5601
0.07 -0.01 1.20 -3.14 10.81 0.67 0.76 0.07 5607
0.06 -0.01 0.90 -3.45 10.89 0.69 0.84 0.13 5614
0.09 0.00 0.83 -3.71 10.89 0.73 0.93 0.20 5620
0.07 -0.01 0.31 -3.75 11.03 0.73 1.01 0.28 5626
0.08 -0.01 -0.52 -4.17 10.98 0.75 1.05 0.38 5633
0.07 0.01 0.35 -4.35 12.57 0.79 1.08 0.51 5639
0.07 -0.00 0.13 -4.42 12.53 0.80 1.16 0.61 5645
0.08 -0.01 1.07 -3.68 12.15 0.78 1.37 0.71 5652
0.09 0.00 1.17 -4.02 12.16 0.78 1.50 0.75 5658
0.09 -0.01 1.15 -4.01 11.94 0.77 1.67 0.80 5664
0.07 -0.01 0.92 -4.26 11.52 0.77 1.80 0.81 5670
0.07 -0.01 0.59 -4.62 10.81 0.77 1.87 0.77 5677
0.08 -0.01 0.05 -5.12 10.19 0.78 1.89 0.68 5683
0.05 -0.01 -0.62 -5.86 9.85 0.79 1.84 0.54 5690
0.04 -0.00 -1.98 -5.76 9.79 0.84 1.78 0.31 5696
0.06 0.00 -3.18 -6.34 9.43 0.87 1.56 0.04 5702
0.05 -0.01 -5.61 -6.71 9.81 0.88 1.16 -0.22 5708
0.04 -0.00 -7.58 -6.42 10.09 0.88 0.69 -0.70 5714
0.05 0.00 -6.85 -6.04 9.90 0.84 0.13 -1.18 5721
0.06 0.00 -7.30 -5.90 10.23 0.74 -0.47 -1.60 5727
0.06 -0.01 -7.44 -5.78 10.60 0.63 -0.96 -1.99 5734
0.05 -0.00 -5.40 -5.63 10.69 0.52 -1.35 -2.36 5740
0.06 -0.01 -5.72 -5.66 11.28 0.46 -1.65 -2.70 5746
0.06 -0.01 -3.93 -5.52 11.26 0.43 -1.87 -2.96 5752
0.06 -0.01 -3.79 -5.37 10.50 0.43 -1.98 -3.11 5758
0.07 -0.00 -3.19 -4.76 10.88 0.40 -2.12 -3.20 5766
0.06 -0.01 -2.59 -4.59 10.26 0.36 -2.24 -3.18 5772
0.06 -0.01 -1.78 -4.23 9.41 0.35 -2.36 -3.11 5778
0.07 -0.01 -0.53 -4.04 9.96 0.39 -2.49 -2.95 5784
0.05 -0.00 0.14 -3.73 9.83 0.44 -2.62 -2.73 5790
0.05 -0.00 0.91 -3.00 8.31 0.54 -2.75 -2.49 5796
0.06 -0.00 0.58 -2.49 10.04 0.62 -2.94 -2.16 5803
0.06 -0.01 1.55 -1.90 9.59 0.68 -3.09 -1.74 5810
0.07 -0.01 2.07 -1.40 10.55 0.70 -3.13 -1.28 5816
0.06 -0.01 2.48 -0.85 11.72 0.69 -3.14 -0.85 5822
0.08 -0.01 3.69 -0.57 12.86 0.64 -3.10 -0.49 5828
0.07 -0.01 4.37 -0.21 12.26 0.58 -2.97 -0.15 5834
0.06 -0.01 5.84 0.00 11.94 0.51 -2.74 0.13 5840
0.06 -0.01 4.30 0.27 10.89 0.42 -2.43 0.26 5847
0.06 -0.01 4.34 0.22 10.13 0.35 -2.10 0.30 5854
0.05 -0.01 2.79 0.24 10.04 0.26 -1.84 0.22 5860
0.05 -0.00 1.32 0.28 8.62 0.17 -1.71 0.07 5866
0.06 -0.01 2.01 -0.21 8.18 0.07 -1.64 -0.14 5872
0.05 -0.01 1.25 -0.53 9.37 -0.04 -1.60 -0.26 5878
0.04 -0.00 0.90 -0.38 9.62 -0.21 -1.59 -0.40 5884
0.05 -0.00 1.10 -0.22 9.98 -0.33 -1.60 -0.53 5891
0.04 -0.00 1.25 -0.46 10.09 -0.42 -1.66 -0.63 5898
0.04 -0.00 1.34 -0.72 9.94 -0.49 -1.76 -0.70 5904
0.04 -0.00 1.50 -0.79 9.76 -0.54 -1.82 -0.75 5910
0.06 -0.01 1.68 -0.94 9.61 -0.57 -1.86 -0.78 5916
0.04 -0.00 1.94 -0.99 9.58 -0.59 -1.87 -0.80 5922
0.04 -0.00 2.12 -1.16 9.48 -0.60 -1.83 -0.82 5928
0.04 -0.00 2.22 -1.27 9.48 -0.59 -1.76 -0.82 5935
0.05 -0.01 2.31 -1.37 9.47 -0.58 -1.63 -0.81 5941
0.04 -0.00 2.30 -1.50 9.41 -0.57 -1.49 -0.79 5947
0.04 -0.00 2.14 -1.54 9.44 -0.56 -1.34 -0.75 5954
0.04 -0.00 1.85 -1.51 9.60 -0.55 -1.25 -0.71 5960
0.05 -0.01 1.60 -1.57 9.63 -0.52 -1.17 -0.68 5966
0.04 -0.00 1.42 -1.62 9.70 -0.50 -1.14 -0.64 5972
0.04 -0.00 1.37 -1.63 9.77 -0.47 -1.16 -0.59 5979
0.05 0.00 1.51 -1.67 10.05 -0.46 -1.18 -0.55 5985
0.05 -0.00 1.85 -1.70 10.28 -0.47 -1.17 -0.51 5991
0.04 -0.00 2.10 -1.72 10.51 -0.49 -1.10 -0.47 5998
0.05 0.00 2.48 -1.82 10.53 -0.53 -0.97 -0.43 6004
0.05 0.00 2.63 -1.86 10.71 -0.59 -0.81 -0.40 6010
0.04 0.00 0.98 -4.09 11.06 -0.67 -0.66 -0.37 6017
0.04 0.01 1.46 -3.79 11.91 -0.71 -0.42 -0.27 6023
0.05 -0.00 2.97 -3.00 11.24 -0.87 -0.16 -0.23 6030
0.04 -0.00 2.76 -2.97 10.33 -0.95 0.07 -0.23 6036
0.05 -0.00 2.77 -2.63 9.38 -1.06 0.22 -0.23 6042
0.05 -0.00 2.41 -2.26 9.82 -1.17 0.31 -0.21 6048
0.05 -0.00 2.21 -3.64 9.83 -1.23 0.41 -0.19 6054
0.05 -0.00 2.27 -3.92 10.64 -1.22 0.53 -0.14 6061
0.06 -0.01 2.01 -3.30 10.49 -1.23 0.61 -0.09 6067
0.05 -0.00 1.72 -3.24 9.84 -1.21 0.66 -0.05 6074
0.03 -0.00 1.76 -3.40 9.56 -1.20 0.68 0.02 6080
0.05 0.00 1.54 -3.50 9.48 -1.19 0.68 0.06 6086
0.06 -0.01 1.45 -3.62 9.56 -1.17 0.67 0.14 6092
0.05 -0.01 1.39 -3.75 9.68 -1.12 0.67 0.21 6098
0.05 -0.01 1.46 -3.83 9.71 -1.08 0.68 0.31 6105
0.06 -0.01 1.58 -3.84 9.83 -1.04 0.70 0.41 6111
0.06 -0.01 1.68 -3.70 9.99 -1.00 0.75 0.52 6117
0.05 -0.01 1.83 -3.62 10.15 -0.98 0.85 0.65 6123
0.05 -0.01 -0.11 -4.78 12.50 -0.97 1.03 0.71 6130
0.07 -0.01 1.51 -3.34 11.52 -1.04 1.28 0.77 6136
0.05 -0.01 0.86 -3.37 9.74 -1.10 1.39 0.86 6142
0.04 -0.00 0.45 -3.91 9.87 -1.10 1.56 0.99 6149
0.05 0.00 0.84 -4.53 8.65 -1.09 1.62 1.16 6155
0.05 -0.01 1.29 -4.87 9.90 -1.03 1.66 1.32 6161
0.05 -0.01 1.20 -4.90 9.87 -0.95 1.65 1.46 6167
0.04 -0.00 1.16 -5.00 9.83 -0.85 1.60 1.56 6173
0.04 0.01 -3.56 -8.08 10.97 -0.73 1.58 1.64 6180
0.04 -0.00 -0.52 -5.89 9.57 -0.66 1.58 1.62 6187
0.04 -0.00 -2.90 -6.79 9.32 -0.65 1.49 1.57 6193
0.04 -0.00 -5.02 -7.32 9.48 -0.62 1.46 1.49 6199
0.06 -0.01 2.91 -3.33 8.49 -0.62 1.42 1.38 6205
0.05 -0.00 2.83 -4.11 12.42 -0.58 1.37 1.27 6211
0.04 -0.00 0.84 -3.16 10.21 -0.58 1.29 1.14 6217
0.05 0.00 -0.20 -3.75 11.31 -0.58 1.25 1.04 6224
0.05 -0.01 0.05 -4.83 8.71 -0.59 1.20 0.99 6231
0.04 -0.00 -0.53 -4.80 9.42 -0.59 1.19 0.93 6237
0.04 0.00 1.08 -4.45 10.18 -0.58 1.12 0.89 6243
0.05 -0.00 0.41 -5.14 9.81 -0.56 1.07 0.88 6249
0.05 -0.00 2.91 -3.80 9.92 -0.53 1.03 0.87 6255
0.03 0.00 0.76 -5.39 10.65 -0.49 0.96 0.87 6262
0.05 -0.00 2.31 -4.91 10.11 -0.47 0.92 0.83 6268
0.03 -0.00 2.24 -4.74 10.92 -0.46 0.88 0.80 6275
0.04 -0.00 2.66 -4.91 10.79 -0.46 0.90 0.75 6281
0.05 -0.00 2.57 -5.05 10.89 -0.48 0.93 0.68 6287
0.04 -0.00 4.69 -3.79 9.98 -0.53 0.99 0.62 6293
0.03 -0.00 3.56 -4.06 9.93 -0.56 0.98 0.60 6299
0.03 -0.00 3.35 -4.61 10.75 -0.58 1.05 0.59 6306
0.04 -0.00 3.98 -4.30 11.07 -0.59 1.10 0.56 6312
0.03 -0.00 3.87 -4.09 10.91 -0.59 1.12 0.53 6319
0.04 -0.00 3.60 -4.04 10.61 -0.57 1.15 0.48 6325
0.05 -0.00 3.54 -3.87 10.59 -0.55 1.20 0.43 6331
0.03 -0.00 3.35 -3.67 10.71 -0.52 1.23 0.37 6337
0.02 -0.00 2.85 -3.50 10.85 -0.51 1.27 0.33 6344
0.03 -0.00 2.35 -3.24 10.92 -0.49 1.29 0.30 6350
0.03 -0.00 1.98 -2.91 11.09 -0.49 1.27 0.28 6356
0.03 -0.00 1.66 -2.68 11.29 -0.50 1.20 0.26 6363
0.03 0.00 1.53 -2.54 11.38 -0.53 1.14 0.23 6369
0.03 -0.00 1.62 -2.53 11.14 -0.56 1.11 0.22 6375
0.03 -0.00 1.52 -2.47 10.87 -0.59 1.12 0.20 6382
0.03 -0.00 1.36 -2.34 10.78 -0.62 1.19 0.20 6388
0.04 -0.00 1.03 -2.34 10.73 -0.63 1.27 0.18 6394
0.03 -0.00 0.51 -2.36 10.62 -0.62 1.32 0.16 6401
0.04 -0.00 0.03 -2.27 10.53 -0.62 1.31 0.12 6407
0.05 -0.00 -0.38 -2.22 10.09 -0.59 1.25 0.07 6413
0.04 -0.00 -0.84 -2.19 9.81 -0.58 1.18 0.02 6419
0.03 -0.00 -1.31 -2.15 9.57 -0.56 1.10 -0.02 6426
0.04 0.00 -1.79 -2.11 9.48 -0.53 1.02 -0.06 6432
0.05 -0.00 -2.04 -2.04 9.27 -0.50 0.93 -0.12 6438
0.04 -0.00 -2.30 -1.95 9.18 -0.45 0.83 -0.17 6445
0.03 -0.00 -2.72 -1.87 9.01 -0.41 0.73 -0.24 6451
0.04 0.01 -3.04 -1.77 8.92 -0.37 0.67 -0.31 6457
0.04 -0.00 -3.20 -1.63 9.07 -0.35 0.63 -0.35 6463
0.03 -0.00 -3.59 -1.62 9.46 -0.36 0.62 -0.39 6469
0.03 -0.00 -4.01 -1.42 9.88 -0.38 0.60 -0.40 6475
0.03 0.01 -4.22 -1.19 10.24 -0.43 0.52 -0.40 6482
0.03 -0.00 -4.16 -0.99 10.12 -0.50 0.39 -0.39 6489
0.03 -0.00 -4.06 -0.93 9.85 -0.60 0.22 -0.37 6495
0.03 -0.00 -3.88 -1.09 9.46 -0.70 0.06 -0.35 6501
0.05 -0.00 -13.83 -15.53 12.38 -0.66 -0.48 -0.39 6507
0.03 -0.00 -11.80 -5.23 12.47 -0.24 -1.77 -0.41 6513
0.04 0.01 -5.51 -1.38 4.84 -0.25 -2.14 -0.41 6520
0.03 -0.00 -6.26 -11.54 4.94 -0.10 -2.43 -0.53 6526
0.04 -0.00 -5.77 -12.11 7.00 0.07 -2.76 -0.84 6533
0.03 -0.00 -6.53 -11.10 6.01 0.30 -2.90 -1.17 6539
0.04 -0.00 -5.19 -9.64 6.67 0.57 -3.08 -1.44 6545
0.04 -0.00 2.56 -8.33 23.35 0.12 -4.20 -1.28 6551
0.03 0.09 5.92 -16.44 20.08 0.29 -2.57 -0.42 6558
0.03 0.34 -0.24 -2.14 13.49 -0.24 -0.70 0.12 6564
0.03 0.55 0.14 -2.32 12.00 -0.16 -0.17 0.09 6571
0.02 0.69 0.14 -0.74 11.89 -0.15 -0.07 0.06 6577
0.03 0.74 0.37 -0.30 10.68 -0.07 -0.01 0.04 6584
0.02 0.77 1.18 -0.04 9.74 0.01 -0.02 0.04 6590
0.02 0.72 1.23 -0.49 9.79 0.02 -0.03 0.05 6596
0.02 0.72 0.91 -0.79 9.95 0.01 -0.05 0.07 6602
0.03 0.71 0.66 -0.88 10.10 0.01 -0.07 0.05 6608
0.03 0.70 1.21 -0.81 9.93 -0.00 -0.08 0.04 6615
0.04 0.69 0.68 -0.79 9.86 -0.02 -0.07 0.04 6621
0.04 0.69 0.63 -0.81 9.99 -0.03 -0.07 0.04 6628
0.06 0.70 0.51 -0.84 10.05 -0.03 -0.06 0.05 6634
0.09 0.69 0.55 -0.82 10.05 -0.03 -0.05 0.06 6640
0.08 0.69 0.61 -0.80 10.01 -0.03 -0.03 0.07 6646
0.07 0.69 0.65 -0.73 10.03 -0.02 -0.03 0.08 6652
0.07 0.69 0.66 -0.70 9.92 -0.02 -0.02 0.09 6659
0.12 0.67 0.70 -0.70 9.96 -0.02 -0.02 0.08 6666
0.11 0.68 0.64 -0.70 9.98 -0.01 -0.03 0.09 6672
0.10 0.66 0.04 -0.72 9.92 -0.02 -0.03 0.08 6678
0.13 0.64 0.62 -0.69 10.00 -0.02 -0.03 0.08 6684
0.12 0.61 0.67 -0.73 9.92 -0.02 -0.03 0.09 6690
0.11 0.60 0.66 -0.73 9.95 -0.02 -0.03 0.09 6696
0.10 0.58 0.64 -0.70 9.96 -0.02 -0.03 0.10 6703
0.09 0.58 0.63 -0.72 9.94 -0.02 -0.03 0.09 6710
0.09 0.51 0.64 -0.69 9.94 -0.02 -0.03 0.10 6716
0.11 0.54 0.63 -0.70 9.94 -0.02 -0.03 0.10 6722
0.15 0.51 0.63 -0.70 9.99 -0.02 -0.03 0.10 6728
0.14 0.50 0.66 -0.70 9.99 -0.02 -0.04 0.10 6734
0.12 0.50 0.64 -0.72 9.98 -0.02 -0.03 0.10 6740
0.13 0.50 0.61 -0.62 9.97 -0.02 -0.03 0.10 6747
0.13 0.48 0.65 -0.70 9.95 -0.01 -0.03 0.10 6754
0.12 0.46 0.64 -0.70 9.99 -0.01 -0.03 0.10 6760
0.12 0.51 0.66 -0.70 9.95 -0.01 -0.03 0.10 6766
0.15 0.49 0.65 -0.71 9.96 -0.01 -0.03 0.10 6772
0.14 0.49 0.66 -0.68 9.90 -0.01 -0.03 0.10 6778
0.15 0.53 0.65 -0.69 9.95 -0.01 -0.03 0.11 6785
0.16 0.56 0.63 -0.70 9.93 -0.02 -0.04 0.10 6791
0.15 0.56 0.65 -0.65 9.93 -0.01 -0.04 0.11 6798
0.14 0.55 0.66 -0.68 9.98 -0.01 -0.04 0.10 6804
0.15 0.57 0.66 -0.65 9.94 -0.01 -0.04 0.11 6810
0.15 0.55 0.68 -0.67 9.98 -0.01 -0.04 0.11 6816
0.14 0.51 0.66 -0.68 10.01 -0.00 -0.04 0.10 6822
0.14 0.49 0.62 -0.67 9.94 -0.00 -0.05 0.10 6829
0.14 0.45 0.62 -0.66 9.93 0.00 -0.05 0.10 6836
0.14 0.45 0.64 -0.70 9.91 0.00 -0.04 0.10 6842
0.15 0.40 0.67 -0.69 9.95 0.00 -0.04 0.10 6848
0.16 0.35 0.66 -0.71 9.92 -0.00 -0.04 0.10 6854
0.16 0.38 0.67 -0.71 9.92 -0.00 -0.04 0.10 6860
0.15 0.39 0.65 -0.71 9.95 -0.01 -0.04 0.10 6866
0.17 0.39 0.63 -0.70 9.96 -0.01 -0.04 0.11 6873
0.16 0.35 0.66 -0.71 9.97 -0.00 -0.04 0.10 6880
0.17 0.33 0.66 -0.70 9.96 -0.01 -0.04 0.10 6886
0.17 0.37 0.68 -0.72 9.97 -0.00 -0.04 0.10 6892
0.19 0.35 0.66 -0.70 9.95 -0.01 -0.04 0.11 6898
0.19 0.35 0.66 -0.69 9.89 -0.00 -0.05 0.10 6904
0.18 0.34 0.68 -0.74 9.94 -0.01 -0.06 0.10 6910
0.19 0.37 0.66 -0.70 9.96 -0.01 -0.06 0.11 6917
0.19 0.37 0.67 -0.71 9.89 -0.01 -0.06 0.10 6924
0.19 0.37 0.64 -0.67 9.92 -0.01 -0.07 0.10 6930
0.20 0.40 0.63 -0.68 9.93 -0.02 -0.07 0.10 6936
0.20 0.40 0.82 -0.81 9.89 -0.01 -0.07 0.09 6942
0.20 0.39 0.61 -0.64 9.97 -0.02 -0.08 0.09 6948
0.21 0.42 0.63 -0.68 9.98 -0.01 -0.07 0.09 6955
0.22 0.43 0.61 -0.71 9.98 -0.02 -0.07 0.10 6961
0.22 0.41 0.65 -0.69 9.97 -0.01 -0.07 0.09 6968
0.20 0.42 0.65 -0.68 9.94 -0.02 -0.07 0.09 6974
0.22 0.43 0.69 -0.66 9.97 -0.02 -0.07 0.09 6980
0.23 0.45 0.68 -0.68 9.92 -0.02 -0.07 0.08 6986
0.22 0.45 0.67 -0.71 9.96 -0.02 -0.07 0.09 6992
0.22 0.49 0.60 -0.71 9.95 -0.03 -0.07 0.09 6999
0.24 0.49 0.63 -0.70 9.98 -0.02 -0.07 0.10 7005
0.23 0.49 0.61 -0.70 9.93 -0.02 -0.07 0.09 7012
0.21 0.54 0.68 -0.71 9.98 -0.02 -0.07 0.09 7018
0.22 0.56 0.64 -0.68 9.96 -0.02 -0.06 0.10 7024
0.22 0.58 0.61 -0.68 9.98 -0.02 -0.06 0.10 7030
0.21 0.61 0.59 -0.66 9.93 -0.02 -0.05 0.10 7036
0.22 0.66 0.64 -0.74 9.97 -0.01 -0.05 0.10 7043
0.22 0.62 0.62 -0.67 9.95 -0.01 -0.05 0.10 7050
0.22 0.61 0.65 -0.70 9.96 -0.02 -0.05 0.10 7056
0.22 0.64 0.62 -0.69 9.95 -0.01 -0.04 0.11 7062
0.24 0.64 0.65 -0.67 9.98 -0.02 -0.04 0.10 7068
0.22 0.69 0.62 -0.64 9.93 -0.02 -0.03 0.10 7074
0.22 0.72 0.63 -0.68 9.97 -0.01 -0.03 0.10 7080
0.23 0.72 0.59 -0.67 9.96 -0.02 -0.03 0.11 7087
0.23 0.70 0.60 -0.66 9.94 -0.01 -0.03 0.10 7094
0.22 0.72 0.58 -0.64 9.94 -0.01 -0.02 0.11 7100
0.23 0.74 0.61 -0.70 9.97 -0.01 -0.02 0.11 7106
0.23 0.75 0.64 -0.66 9.93 -0.01 -0.01 0.11 7112
0.23 0.76 0.61 -0.66 9.97 -0.01 -0.01 0.11 7118
0.22 0.78 0.60 -0.64 9.98 -0.00 -0.00 0.10 7124
0.24 0.76 0.60 -0.66 9.98 -0.00 0.00 0.11 7131
0.23 0.77 0.62 -0.67 9.96 -0.00 0.01 0.12 7138
0.21 0.78 0.63 -0.68 9.95 0.01 0.02 0.11 7144
0.22 0.78 0.62 -0.68 9.97 0.00 0.02 0.11 7150
0.19 0.77 0.63 -0.65 9.94 0.00 0.03 0.12 7156
0.15 0.78 0.66 -0.67 9.93 0.00 0.04 0.12 7162
0.13 0.80 0.63 -0.67 9.92 0.00 0.05 0.12 7169
0.12 0.82 0.63 -0.64 9.93 0.00 0.06 0.11 7176
0.11 0.80 0.63 -0.68 9.97 0.00 0.07 0.12 7182
0.10 0.79 0.67 -0.70 9.88 0.00 0.08 0.12 7188
0.10 0.79 0.66 -0.68 9.96 0.00 0.09 0.13 7194
0.10 0.77 0.72 -0.65 9.94 0.00 0.10 0.15 7200
0.07 0.77 0.77 -0.68 9.92 0.00 0.11 0.16 7206
0.07 0.76 0.77 -0.66 9.96 0.01 0.11 0.17 7213
0.07 0.73 0.76 -0.65 9.97 0.01 0.12 0.17 7219
0.05 0.71 0.80 -0.66 9.96 0.00 0.12 0.16 7226
0.03 0.67 0.77 -0.71 9.93 0.00 0.12 0.17 7232
0.05 0.66 0.78 -0.71 9.96 -0.00 0.12 0.16 7238
0.04 0.62 0.81 -0.69 9.93 -0.00 0.12 0.15 7244
0.04 0.59 0.83 -0.66 9.90 -0.01 0.11 0.14 7250
0.03 0.59 0.80 -0.68 9.86 -0.01 0.10 0.13 7257
0.05 0.57 0.84 -0.65 9.93 -0.01 0.08 0.13 7264
0.04 0.55 0.83 -0.68 9.85 -0.02 0.04 0.12 7270
0.04 0.56 0.87 -0.66 9.89 -0.01 0.04 0.11 7276
0.04 0.54 0.86 -0.66 9.93 -0.00 0.02 0.11 7282
0.03 0.50 0.88 -0.67 9.92 -0.00 -0.01 0.10 7288
0.03 0.51 0.87 -0.64 9.87 0.00 -0.04 0.10 7294
0.03 0.52 0.88 -0.67 9.89 0.01 -0.06 0.09 7301
0.04 0.51 0.86 -0.66 9.93 0.01 -0.08 0.09 7307
0.04 0.50 0.84 -0.67 9.92 0.01 -0.10 0.09 7314
0.04 0.50 0.83 -0.69 9.92 0.02 -0.11 0.09 7320
0.05 0.49 0.81 -0.68 9.94 0.01 -0.13 0.09 7326
0.05 0.50 0.83 -0.70 9.94 0.01 -0.13 0.08 7332
0.04 0.49 0.80 -0.69 9.96 0.01 -0.14 0.09 7339
0.06 0.52 0.79 -0.71 9.95 -0.00 -0.13 0.09 7345
0.07 0.51 0.77 -0.69 9.96 -0.00 -0.13 0.09 7351
0.07 0.50 0.77 -0.68 9.88 -0.01 -0.13 0.09 7358
0.08 0.51 0.78 -0.71 9.95 -0.01 -0.13 0.09 7364
0.08 0.51 0.78 -0.72 9.94 -0.01 -0.13 0.09 7370
0.08 0.53 0.77 -0.69 9.92 -0.02 -0.14 0.09 7376
0.08 0.54 0.75 -0.67 9.97 -0.02 -0.13 0.08 7383
0.10 0.58 0.74 -0.70 9.97 -0.01 -0.13 0.08 7389
0.09 0.57 0.73 -0.64 9.95 -0.01 -0.11 0.08 7396
0.09 0.58 0.78 -0.68 9.98 -0.01 -0.11 0.09 7402
0.08 0.59 0.76 -0.69 9.94 -0.01 -0.11 0.09 7408
0.10 0.59 0.69 -0.70 9.92 -0.01 -0.10 0.08 7414
0.10 0.59 0.73 -0.70 9.95 -0.01 -0.09 0.08 7420
0.08 0.59 0.76 -0.69 9.95 -0.01 -0.08 0.09 7427
0.11 0.58 0.72 -0.70 9.96 -0.01 -0.08 0.09 7433
0.12 0.57 0.73 -0.69 9.92 -0.01 -0.07 0.08 7440
0.11 0.57 0.74 -0.71 9.93 -0.01 -0.06 0.09 7446
0.11 0.59 0.76 -0.69 9.96 -0.00 -0.06 0.09 7452
0.12 0.56 0.72 -0.67 9.96 -0.00 -0.05 0.08 7458
0.11 0.54 0.73 -0.73 9.98 -0.00 -0.05 0.09 7464
0.12 0.54 0.73 -0.70 9.95 -0.00 -0.05 0.09 7471
0.13 0.54 0.70 -0.69 9.99 -0.01 -0.05 0.08 7477
0.12 0.55 0.75 -0.71 9.94 -0.01 -0.04 0.09 7484
0.11 0.55 0.76 -0.70 9.93 -0.01 -0.04 0.08 7490
0.11 0.53 0.73 -0.72 9.95 -0.01 -0.04 0.08 7496
0.12 0.53 0.72 -0.71 9.92 -0.01 -0.04 0.08 7502
0.12 0.52 0.70 -0.69 9.97 -0.01 -0.03 0.08 7508
0.14 0.52 0.75 -0.69 9.93 -0.00 -0.03 0.09 7515
0.14 0.51 0.74 -0.73 9.97 -0.01 -0.03 0.09 7521
0.14 0.46 0.73 -0.69 9.99 -0.00 -0.03 0.09 7528
0.15 0.50 0.74 -0.68 9.99 -0.00 -0.02 0.08 7534
0.16 0.49 0.74 -0.70 9.93 -0.00 -0.02 0.08 7540
0.16 0.47 0.73 -0.69 9.98 -0.01 -0.02 0.08 7546
0.14 0.42 0.72 -0.70 9.97 -0.00 -0.01 0.09 7553
0.16 0.42 0.73 -0.71 9.93 -0.01 -0.01 0.09 7559
0.15 0.41 0.72 -0.68 9.94 -0.01 -0.01 0.08 7565
0.15 0.42 0.76 -0.70 9.93 -0.01 -0.00 0.08 7572
0.15 0.39 0.74 -0.72 9.93 -0.01 -0.00 0.09 7578
0.15 0.40 0.74 -0.67 9.92 -0.01 -0.01 0.09 7584
0.13 0.37 0.77 -0.70 9.95 -0.00 -0.01 0.09 7590
0.13 0.34 0.74 -0.70 9.96 -0.00 -0.01 0.09 7597
0.14 0.34 0.76 -0.72 9.96 -0.00 -0.01 0.09 7603
0.13 0.33 0.77 -0.70 9.96 -0.00 -0.01 0.09 7609
0.14 0.30 0.75 -0.71 9.94 -0.00 -0.01 0.09 7616
0.12 0.30 0.80 -0.70 9.94 0.00 -0.01 0.09 7622
0.13 0.31 0.77 -0.67 9.97 -0.00 -0.01 0.09 7628
0.12 0.32 0.77 -0.69 9.97 -0.00 -0.01 0.09 7634
0.11 0.28 0.77 -0.70 9.94 -0.00 -0.01 0.09 7641
0.12 0.27 0.80 -0.72 9.97 -0.00 -0.01 0.09 7647
0.13 0.25 0.78 -0.68 9.92 -0.00 -0.01 0.09 7653
0.13 0.24 0.76 -0.70 9.94 0.00 -0.01 0.09 7660
0.12 0.25 0.78 -0.68 9.95 -0.00 -0.01 0.08 7666
0.12 0.25 0.80 -0.70 9.96 -0.00 -0.01 0.09 7672
0.13 0.25 0.77 -0.70 9.95 -0.00 -0.01 0.09 7678
0.12 0.21 0.81 -0.68 9.96 -0.00 -0.02 0.08 7685
0.13 0.25 0.76 -0.71 9.91 0.00 -0.02 0.09 7691
0.13 0.23 0.80 -0.72 9.93 -0.00 -0.02 0.09 7697
0.13 0.21 0.75 -0.70 9.94 -0.00 -0.02 0.09 7704
0.12 0.23 0.77 -0.71 9.95 -0.00 -0.01 0.08 7710
0.13 0.22 0.80 -0.70 9.98 -0.00 -0.02 0.08 7716
0.12 0.21 0.77 -0.68 9.94 -0.00 -0.02 0.09 7723
0.12 0.18 0.77 -0.71 9.91 -0.00 -0.02 0.08 7729
0.13 0.19 0.79 -0.71 9.89 -0.00 -0.02 0.08 7735
0.13 0.15 0.79 -0.72 9.90 -0.00 -0.02 0.08 7741
0.12 0.17 0.78 -0.71 10.00 -0.01 -0.02 0.08 7748
0.12 0.19 0.79 -0.71 9.92 -0.01 -0.01 0.08 7754
0.14 0.18 0.78 -0.72 9.94 -0.01 -0.02 0.08 7760
0.12 0.17 0.78 -0.71 9.90 -0.01 -0.02 0.08 7767
0.11 0.18 0.80 -0.71 9.97 -0.00 -0.02 0.08 7773
0.13 0.18 0.83 -0.71 9.96 -0.00 -0.02 0.08 7779
0.12 0.16 0.77 -0.66 9.97 -0.00 -0.03 0.08 7785
0.13 0.13 0.84 -0.72 9.96 0.00 -0.02 0.08 7791
0.13 0.13 0.80 -0.70 9.94 0.00 -0.02 0.08 7798
0.15 0.13 0.81 -0.71 9.92 0.00 -0.02 0.09 7804
0.13 0.11 0.80 -0.69 9.93 0.00 -0.02 0.08 7811
0.13 0.10 0.85 -0.69 9.94 0.00 -0.03 0.09 7817
0.14 0.12 0.82 -0.72 9.92 -0.00 -0.02 0.09 7823
0.14 0.13 0.79 -0.75 9.91 -0.00 -0.03 0.08 7829
0.13 0.11 0.79 -0.71 9.95 -0.00 -0.03 0.08 7835
0.12 0.13 0.80 -0.75 9.91 -0.01 -0.03 0.08 7842
0.13 0.12 0.80 -0.75 9.96 -0.00 -0.03 0.08 7848
0.12 0.11 0.79 -0.73 9.94 -0.01 -0.02 0.08 7855
0.12 0.10 0.78 -0.72 9.96 -0.01 -0.02 0.08 7861
0.12 0.13 0.84 -0.71 9.92 -0.01 -0.02 0.08 7867
0.12 0.11 0.80 -0.70 9.92 -0.01 -0.02 0.08 7873
0.13 0.08 0.84 -0.70 9.96 -0.01 -0.02 0.08 7879
0.13 0.07 0.83 -0.66 9.98 -0.01 -0.02 0.08 7886
0.14 0.09 0.86 -0.69 10.04 -0.00 -0.02 0.09 7892
0.12 0.08 0.84 -0.72 9.97 0.00 -0.01 0.09 7899
0.11 0.04 0.86 -0.74 9.96 -0.00 -0.02 0.08 7905
0.11 0.08 0.86 -0.73 9.99 0.00 -0.02 0.08 7911
0.12 0.08 0.81 -0.71 9.96 0.00 -0.01 0.08 7917
0.10 0.03 0.88 -0.75 9.91 0.00 -0.01 0.08 7923
0.09 0.04 0.66 -0.70 9.81 0.00 -0.01 0.07 7929
0.11 0.05 0.84 -0.71 9.90 0.00 -0.01 0.07 7937
0.10 0.05 0.85 -0.73 9.94 -0.01 0.00 0.06 7943
0.09 0.03 0.84 -0.77 9.94 -0.02 0.01 0.07 7949
0.07 0.04 0.82 -0.75 10.00 -0.02 0.01 0.07 7955
0.09 0.05 0.83 -0.73 9.95 -0.02 0.01 0.07 7961
0.07 0.03 0.86 -0.77 9.97 -0.02 0.00 0.07 7967
0.05 0.04 0.89 -0.71 9.97 -0.02 -0.00 0.08 7973
0.06 0.07 0.91 -0.70 9.94 -0.01 -0.00 0.08 7980
0.07 0.03 0.89 -0.70 9.89 -0.01 -0.01 0.08 7987
0.07 0.03 0.92 -0.71 9.94 -0.00 -0.00 0.08 7993
0.07 0.01 0.94 -0.71 9.94 0.00 -0.00 0.07 7999
0.08 0.02 0.91 -0.70 9.98 0.01 -0.00 0.07 8005
0.08 0.01 0.85 -0.66 9.97 0.01 0.00 0.06 8011
0.07 -0.01 1.01 -0.74 9.79 0.02 0.01 0.05 8017
0.05 -0.00 0.89 -0.62 9.97 0.02 0.01 0.05 8024
0.06 0.02 0.93 -0.64 9.95 0.02 0.02 0.04 8030
0.06 -0.01 0.79 -0.77 9.91 0.01 0.02 0.03 8036
0.06 -0.01 0.96 -0.80 9.94 0.00 0.02 0.03 8042
0.05 0.00 0.86 -0.78 9.92 -0.01 0.01 0.03 8049
0.06 -0.00 0.86 -0.81 9.93 -0.01 0.00 0.03 8055
0.06 -0.01 0.86 -0.81 10.05 -0.01 -0.01 0.03 8061
0.06 0.00 0.85 -0.76 9.95 -0.02 -0.01 0.04 8068
0.05 -0.00 0.82 -0.74 9.98 -0.02 -0.01 0.04 8074
0.05 0.01 0.89 -0.76 9.93 -0.02 -0.01 0.05 8080
0.07 0.00 0.95 -0.74 9.95 -0.02 -0.02 0.04 8086
0.04 -0.00 0.93 -0.73 10.01 -0.02 -0.03 0.05 8092
0.04 -0.00 0.94 -0.72 10.02 -0.01 -0.03 0.04 8098
0.06 0.01 0.95 -0.71 10.05 -0.01 -0.03 0.04 8105
0.05 -0.01 0.93 -0.73 9.96 0.00 -0.03 0.03 8112
0.05 -0.00 0.97 -0.74 9.95 0.01 -0.03 0.03 8118
0.04 -0.00 0.63 -0.71 10.36 0.01 -0.02 0.01 8124
0.05 0.00 0.97 -0.69 9.90 0.02 -0.01 -0.01 8130
0.04 -0.00 1.12 -0.70 9.94 0.03 0.00 -0.03 8136
0.05 -0.00 1.02 -0.77 9.98 0.03 0.02 -0.05 8142
0.04 -0.00 0.93 -0.84 9.99 0.04 0.04 -0.04 8148
0.05 -0.01 0.84 -0.89 9.98 0.06 0.07 -0.05 8155
0.06 -0.01 0.90 -0.91 9.97 0.06 0.07 -0.03 8161
0.05 -0.00 1.04 -0.42 8.61 0.06 0.07 -0.02 8167
0.05 -0.00 0.62 -0.95 9.89 0.07 0.09 0.01 8173
0.05 -0.00 1.06 -0.77 9.98 0.07 0.09 -0.00 8180
0.05 0.00 0.98 -0.86 9.90 0.07 0.09 0.00 8186
0.07 -0.01 1.02 -0.85 9.87 0.06 0.06 0.01 8193
0.06 -0.01 1.01 -0.84 9.96 0.06 0.05 0.00 8199
0.05 -0.01 1.04 -0.85 9.95 0.06 0.05 0.00 8205
0.06 -0.01 1.07 -0.86 9.95 0.06 0.06 -0.03 8211
0.06 -0.01 1.04 -0.86 10.04 0.07 0.07 -0.01 8217
0.07 -0.01 1.13 -0.86 9.97 0.09 0.10 -0.01 8223
0.07 -0.01 1.10 -0.84 9.99 0.11 0.12 -0.02 8229
0.06 -0.01 1.12 -0.84 10.06 0.12 0.14 -0.02 8236
0.08 -0.01 1.14 -0.89 10.06 0.14 0.16 -0.02 8242
0.07 -0.01 1.18 -0.89 10.02 0.15 0.18 -0.03 8249
0.06 -0.01 1.20 -0.90 10.00 0.16 0.19 -0.04 8255
0.07 -0.01 1.25 -0.89 9.95 0.17 0.20 -0.05 8261
0.08 -0.01 1.35 -0.93 9.99 0.18 0.21 -0.07 8267
0.06 -0.01 1.31 -0.94 9.90 0.17 0.20 -0.08 8273
0.06 -0.01 1.26 -0.92 9.88 0.17 0.19 -0.09 8280
0.07 -0.00 1.83 -0.97 9.84 0.16 0.18 -0.10 8286
0.07 -0.01 1.20 -1.03 9.79 0.14 0.15 -0.10 8292
0.06 -0.01 1.12 -1.08 9.21 0.11 0.13 -0.09 8298
0.05 -0.01 1.14 -1.13 9.81 0.09 0.10 -0.08 8305
0.06 -0.00 1.10 -1.16 9.80 0.07 0.08 -0.07 8311
0.08 -0.00 1.10 -1.17 9.81 0.04 0.05 -0.05 8317
0.07 -0.01 1.09 -1.16 9.80 0.01 0.03 -0.03 8324
0.05 -0.01 1.12 -1.16 9.77 -0.02 0.02 -0.01 8330
0.07 -0.01 1.14 -1.15 9.87 -0.04 -0.00 0.00 8336
0.07 -0.00 1.22 -1.11 9.95 -0.04 -0.01 0.02 8342
0.06 -0.01 1.22 -1.08 9.98 -0.04 0.01 0.02 8348
0.05 -0.00 1.25 -1.07 10.01 -0.03 0.03 0.02 8354
0.06 -0.01 1.25 -1.10 10.00 -0.00 0.05 0.03 8360
0.07 -0.01 1.27 -1.09 10.09 0.03 0.07 0.03 8368
0.07 -0.01 1.32 -1.08 10.09 0.05 0.10 0.03 8374
0.06 0.00 1.30 -1.09 10.08 0.07 0.13 0.03 8380
0.08 0.02 1.35 -1.11 9.99 0.09 0.14 0.03 8386
0.07 0.00 1.34 -1.12 9.91 0.09 0.16 0.04 8392
0.07 -0.01 1.37 -1.12 9.89 0.10 0.17 0.04 8398
0.05 0.00 1.39 -1.11 9.87 0.09 0.16 0.04 8404
0.07 0.01 1.43 -1.11 9.87 0.08 0.15 0.04 8412
0.06 -0.01 1.43 -1.14 9.85 0.07 0.15 0.03 8418
0.05 -0.01 1.47 -1.11 9.88 0.06 0.13 0.03 8424
0.06 -0.00 1.48 -1.11 9.89 0.06 0.12 0.02 8430
0.07 -0.01 1.52 -1.13 9.88 0.06 0.12 0.02 8436
0.06 -0.01 1.53 -1.18 10.34 0.05 0.11 0.01 8442
0.06 -0.01 1.48 -1.15 10.02 0.07 0.12 0.00 8449
0.05 0.00 1.53 -1.16 9.89 0.08 0.13 0.00 8455
0.05 -0.00 1.54 -1.15 10.01 0.10 0.14 -0.00 8461
0.04 -0.00 1.55 -1.18 9.91 0.10 0.15 -0.01 8468
0.04 0.00 1.51 -1.18 9.96 0.11 0.16 -0.01 8474
0.07 0.01 1.54 -1.23 10.01 0.12 0.16 -0.01 8480
0.06 -0.00 1.54 -1.24 10.05 0.13 0.18 -0.01 8486
0.05 -0.00 1.57 -1.25 10.04 0.15 0.18 -0.00 8493
0.06 0.01 1.68 -1.31 9.99 0.16 0.20 -0.00 8499
0.07 -0.01 1.56 -1.27 9.90 0.17 0.21 -0.01 8506
0.05 -0.01 1.67 -1.29 9.93 0.18 0.21 -0.01 8512
0.06 -0.01 1.69 -1.29 9.94 0.19 0.21 -0.01 8518
0.07 -0.00 1.74 -1.29 10.05 0.20 0.22 -0.02 8524
0.08 -0.01 1.73 -1.31 10.08 0.22 0.23 -0.02 8530
0.07 -0.01 1.78 -1.34 10.13 0.23 0.25 -0.03 8537
0.07 0.01 1.78 -1.35 10.21 0.25 0.27 -0.04 8543
0.06 -0.01 1.87 -1.39 10.21 0.27 0.28 -0.04 8550
0.05 -0.01 1.86 -1.40 10.28 0.29 0.30 -0.05 8556
0.05 -0.00 1.85 -1.44 10.15 0.31 0.31 -0.06 8562
0.06 -0.01 1.82 -1.48 10.25 0.33 0.33 -0.06 8568
0.05 -0.00 1.90 -1.58 10.44 0.36 0.35 -0.06 8574
0.05 -0.00 1.79 -1.62 10.36 0.38 0.38 -0.06 8581
0.06 -0.01 1.83 -1.68 10.46 0.40 0.42 -0.05 8588
0.06 -0.01 1.81 -1.68 10.52 0.42 0.46 -0.04 8594
0.08 -0.00 1.81 -1.78 10.52 0.44 0.51 -0.02 8600
0.07 -0.01 1.90 -1.79 10.60 0.47 0.57 0.00 8606
0.05 -0.00 1.91 -1.86 10.77 0.53 0.63 0.02 8612
0.06 -0.01 1.89 -1.87 10.91 0.53 0.69 0.03 8619
0.06 -0.00 1.98 -1.98 11.05 0.56 0.74 0.06 8626
0.06 -0.01 2.12 -1.93 11.25 0.59 0.83 0.07 8632
0.06 -0.01 2.11 -2.04 11.10 0.61 0.92 0.08 8638
0.06 0.01 2.19 -2.31 11.33 0.62 1.03 0.09 8644
0.06 -0.01 1.79 -2.67 11.25 0.61 1.13 0.11 8650
0.06 -0.01 1.09 -3.02 11.53 0.61 1.20 0.14 8656
0.05 0.00 1.58 -2.90 11.63 0.61 1.24 0.19 8664
0.06 -0.01 1.65 -2.79 11.40 0.59 1.30 0.24 8670
0.05 -0.00 1.85 -2.55 11.04 0.58 1.38 0.27 8676
0.05 -0.01 1.86 -2.42 10.72 0.56 1.44 0.30 8682
0.06 -0.01 2.40 -2.88 10.40 0.56 1.46 0.32 8688
0.06 -0.01 1.92 -2.96 10.23 0.56 1.49 0.34 8694
0.05 0.00 1.90 -2.93 9.86 0.58 1.53 0.35 8700
0.06 -0.01 1.58 -3.44 9.81 0.59 1.53 0.36 8708
0.07 -0.01 1.59 -3.86 9.78 0.63 1.54 0.36 8714
0.06 -0.00 1.12 -4.53 9.78 0.67 1.54 0.32 8720
0.06 0.02 0.17 -5.67 9.89 0.73 1.51 0.21 8726
0.07 -0.01 -0.89 -6.37 9.99 0.79 1.43 0.02 8732
0.06 -0.01 -1.28 -6.45 10.01 0.86 1.28 -0.22 8738
0.05 -0.01 -2.66 -7.42 10.28 0.91 1.06 -0.47 8744
0.06 -0.00 -4.11 -7.34 10.27 0.96 0.73 -0.76 8752
0.05 -0.01 -6.16 -7.51 10.64 0.99 0.32 -1.04 8758
0.05 -0.00 -7.45 -7.81 10.14 0.99 -0.12 -1.38 8764
0.07 -0.01 -7.22 -7.60 12.73 0.97 -0.61 -1.71 8770
0.06 -0.01 -5.72 -6.90 12.95 0.95 -1.01 -1.99 8776
0.05 -0.01 -7.25 -6.98 12.22 0.89 -1.29 -2.22 8783
0.06 -0.00 -4.64 -5.67 13.77 0.86 -1.50 -2.48 8790
0.04 -0.00 -4.67 -5.99 13.08 0.83 -1.70 -2.61 8796
0.05 -0.00 -2.99 -5.14 11.46 0.78 -1.83 -2.67 8802
0.07 -0.00 -4.02 -4.69 10.98 0.72 -1.99 -2.67 8808
0.07 -0.01 -3.23 -4.27 10.75 0.71 -2.11 -2.66 8815
0.06 -0.01 -2.15 -3.84 10.37 0.70 -2.24 -2.55 8821
0.08 -0.01 -1.66 -3.20 9.89 0.71 -2.41 -2.38 8827
0.07 -0.01 -1.17 -3.20 10.06 0.72 -2.59 -2.18 8834
0.06 -0.01 -0.48 -2.63 10.55 0.74 -2.77 -1.92 8840
0.06 -0.01 0.80 -2.18 10.59 0.76 -2.96 -1.62 8846
0.06 -0.01 1.74 -1.92 10.46 0.79 -3.07 -1.30 8853
0.05 -0.01 2.32 -1.46 10.49 0.82 -3.18 -0.93 8859
0.07 0.00 2.02 -1.08 10.42 0.84 -3.27 -0.57 8865
0.07 -0.01 2.62 -0.69 11.02 0.82 -3.27 -0.25 8871
0.06 -0.01 3.94 -0.42 10.55 0.79 -3.18 0.07 8878
0.07 0.00 4.59 -0.33 10.39 0.73 -3.02 0.33 8884
0.07 -0.00 4.16 -0.34 10.58 0.68 -2.84 0.50 8891
0.06 -0.01 5.16 -0.37 10.21 0.62 -2.57 0.59 8897
0.08 0.01 3.63 -0.57 10.33 0.55 -2.30 0.62 8903
0.07 -0.01 3.18 -0.88 10.27 0.49 -1.98 0.59 8909
0.07 -0.01 3.42 -1.20 10.01 0.43 -1.68 0.46 8915
0.07 -0.00 1.99 -1.25 9.59 0.39 -1.46 0.32 8922
0.07 -0.01 0.89 -1.60 10.19 0.37 -1.29 0.16 8929
0.07 -0.01 -0.38 -1.72 9.58 0.36 -1.21 0.01 8935
0.07 -0.01 -2.06 -2.05 12.27 0.35 -1.21 -0.14 8941
0.08 -0.00 1.42 -1.93 11.52 0.32 -1.25 -0.25 8947
0.07 -0.01 2.38 -1.72 10.45 0.28 -1.32 -0.37 8953
0.07 -0.01 -1.73 -2.44 10.78 0.26 -1.45 -0.48 8960
0.08 -0.01 0.37 -2.00 10.39 0.21 -1.58 -0.54 8967
0.07 -0.01 -0.68 -1.86 11.40 0.17 -1.69 -0.62 8973
0.06 -0.01 -1.26 -1.92 10.83 0.10 -1.77 -0.70 8979
0.08 -0.01 -0.35 -1.66 10.90 0.03 -1.87 -0.77 8985
0.07 -0.01 -0.19 -1.69 9.80 -0.03 -1.94 -0.87 8991
0.07 -0.01 0.01 -1.77 9.82 -0.07 -2.00 -1.01 8997
0.07 -0.01 -0.33 -1.91 10.61 -0.11 -2.05 -1.18 9004
0.08 -0.01 -0.40 -2.03 10.68 -0.14 -2.10 -1.31 9011
0.07 -0.01 -0.06 -1.90 10.83 -0.19 -2.05 -1.44 9017
0.06 -0.01 0.16 -1.67 10.88 -0.24 -1.97 -1.56 9023
0.08 -0.01 0.62 -1.75 10.75 -0.29 -1.87 -1.70 9029
0.07 -0.01 0.85 -1.84 10.67 -0.34 -1.73 -1.82 9035
0.06 -0.01 0.98 -1.88 10.53 -0.38 -1.57 -1.92 9041
0.07 -0.01 1.13 -1.83 10.29 -0.43 -1.39 -2.01 9049
0.06 -0.01 1.25 -1.82 10.19 -0.47 -1.22 -2.08 9055
0.06 -0.01 1.29 -1.89 10.00 -0.53 -1.05 -2.14 9061
0.07 -0.00 1.48 -1.97 9.84 -0.53 -0.86 -2.17 9067
0.06 -0.01 1.46 -1.92 9.70 -0.54 -0.69 -2.19 9073
0.06 -0.01 1.50 -1.97 9.61 -0.56 -0.58 -2.19 9079
0.06 -0.00 1.54 -2.09 9.46 -0.57 -0.43 -2.19 9086
0.07 -0.01 1.65 -2.18 9.27 -0.56 -0.27 -2.16 9093
0.06 -0.01 1.78 -2.37 9.04 -0.57 -0.12 -2.12 9099
0.06 -0.01 1.82 -2.34 8.89 -0.55 0.04 -2.06 9105
0.07 -0.00 1.95 -2.39 8.55 -0.53 0.20 -1.99 9111
0.07 -0.01 2.09 -2.53 8.37 -0.50 0.36 -1.90 9117
0.07 -0.01 2.15 -2.69 8.27 -0.45 0.49 -1.80 9123
0.06 -0.01 2.20 -2.77 8.27 -0.39 0.62 -1.68 9129
0.07 -0.01 2.15 -2.90 8.20 -0.31 0.74 -1.60 9137
0.07 -0.01 2.19 -2.97 8.25 -0.23 0.84 -1.48 9143
0.07 -0.01 2.22 -3.08 8.25 -0.14 0.90 -1.35 9149
0.06 -0.00 2.21 -3.19 8.35 -0.04 0.95 -1.21 9155
0.08 -0.01 2.15 -3.28 8.50 0.00 0.97 -1.07 9161
0.07 -0.01 2.12 -3.43 8.73 0.07 0.98 -0.92 9167
0.06 -0.01 2.11 -3.58 8.83 0.14 0.95 -0.74 9174
0.07 0.01 2.12 -3.73 8.97 0.19 0.90 -0.61 9180
0.08 -0.01 2.23 -3.88 9.01 0.22 0.83 -0.45 9187
0.07 -0.01 2.43 -3.95 9.13 0.23 0.78 -0.29 9193
0.06 -0.01 2.54 -4.03 9.26 0.23 0.77 -0.13 9199
0.06 0.00 2.58 -4.18 9.50 0.22 0.79 0.03 9205
0.06 -0.01 2.58 -4.33 9.77 0.21 0.82 0.20 9211
0.06 -0.01 2.30 -4.40 10.19 0.17 0.83 0.38 9218
0.06 -0.01 1.92 -4.41 10.46 0.10 0.81 0.52 9224
0.07 -0.01 -10.21 -11.62 26.50 0.17 0.78 0.01 9230
0.06 -0.01 -1.07 -9.96 15.40 -0.17 0.92 -0.52 9237
0.06 -0.00 -5.13 -8.82 11.24 -0.51 0.22 -0.77 9243
0.07 -0.00 -7.82 -5.11 10.16 -0.65 0.09 -0.92 9249
0.06 -0.01 -6.15 -1.67 7.46 -0.92 0.14 -0.96 9255
0.06 -0.01 -3.87 -2.12 4.70 -1.19 0.13 -0.92 9262
0.07 -0.01 -1.27 -2.24 6.57 -1.46 0.09 -0.75 9268
0.06 -0.01 -0.15 -3.00 9.18 -1.64 0.01 -0.48 9275
0.05 -0.00 0.86 -3.93 10.42 -1.71 0.05 -0.18 9281
0.06 -0.00 3.27 -5.30 10.46 -1.66 0.28 0.25 9287
0.07 -0.01 3.09 -6.70 10.34 -1.53 0.59 0.71 9293
0.06 -0.01 3.22 -5.66 10.24 -1.37 0.94 1.09 9299
0.06 -0.01 3.10 -4.15 9.51 -1.28 1.15 1.42 9306
0.07 -0.00 2.22 -3.85 8.86 -1.18 1.27 1.74 9313
0.06 -0.01 1.54 -3.85 9.03 -1.14 1.33 2.05 9319
0.05 -0.00 0.62 -3.78 9.27 -1.06 1.33 2.31 9325
0.06 0.01 0.84 -4.92 9.70 -0.98 1.24 2.52 9331
0.06 -0.01 -4.63 -4.87 12.19 -0.91 1.15 2.38 9337
0.06 -0.01 -5.77 -4.47 12.73 -0.96 0.92 2.09 9344
0.06 -0.01 -5.67 -3.57 10.72 -1.05 0.48 1.80 9350
0.05 -0.00 -8.21 -4.24 10.08 -1.06 0.35 1.50 9357
0.05 -0.01 -5.53 -3.15 10.69 -1.03 0.28 1.15 9363
0.05 -0.01 -5.23 -4.39 9.00 -0.98 0.23 0.83 9369
0.07 -0.01 -5.14 -4.75 9.44 -0.89 0.11 0.58 9375
0.05 -0.01 -5.27 -5.04 9.44 -0.73 0.16 0.39 9381
0.05 -0.00 -3.65 -4.08 9.78 -0.57 0.32 0.20 9388
0.06 -0.00 -1.92 -3.10 10.26 -0.47 0.40 0.09 9394
0.06 -0.01 -3.65 -3.52 9.19 -0.42 0.59 -0.01 9401
0.06 -0.01 -1.67 -2.25 9.30 -0.36 0.72 -0.05 9407
0.06 -0.01 -1.50 -2.33 9.75 -0.29 0.89 -0.02 9413
0.06 -0.00 -0.01 -0.71 10.13 -0.23 0.95 0.07 9419
0.06 -0.01 -1.09 -1.60 9.93 -0.15 1.12 0.21 9425
0.05 -0.00 -0.53 -1.08 10.61 -0.09 1.12 0.36 9432
0.05 -0.01 0.01 -1.07 10.52 -0.04 1.21 0.50 9438
0.07 -0.01 1.39 -0.63 10.25 -0.01 1.19 0.68 9444
0.05 -0.00 1.35 -0.22 10.72 0.00 1.26 0.83 9451
0.04 -0.00 1.74 -0.58 11.25 0.02 1.34 0.96 9457
0.05 -0.00 2.25 -0.54 11.20 -0.01 1.40 1.06 9463
0.06 -0.01 2.39 -0.47 11.15 -0.04 1.44 1.12 9469
0.04 -0.00 2.37 -0.44 11.12 -0.10 1.46 1.15 9476
0.05 0.00 2.26 -0.32 11.20 -0.17 1.46 1.16 9482
0.06 -0.01 2.07 -0.21 11.29 -0.25 1.43 1.14 9489
0.06 -0.01 1.82 -0.20 11.19 -0.34 1.38 1.12 9495
0.07 0.00 1.63 -0.13 11.03 -0.41 1.32 1.08 9501
0.07 -0.01 1.54 -0.07 10.90 -0.48 1.26 1.03 9507
0.06 -0.01 2.12 0.03 10.43 -0.54 1.23 0.97 9513
0.05 -0.01 2.04 -0.24 10.81 -0.61 1.25 0.91 9520
0.06 -0.01 2.17 -0.41 10.72 -0.68 1.36 0.84 9527
0.05 -0.00 2.10 -0.45 10.28 -0.74 1.52 0.78 9533
0.05 -0.01 1.78 -0.62 10.02 -0.79 1.71 0.74 9539
0.06 -0.01 1.34 -0.93 9.74 -0.82 1.87 0.72 9545
0.06 -0.01 0.89 -1.81 9.52 -0.81 2.02 0.71 9551
0.05 -0.01 0.33 -1.53 9.32 -0.78 2.11 0.70 9558
0.06 -0.01 -0.20 -1.83 8.95 -0.73 2.15 0.72 9564
0.06 -0.01 -0.57 -2.27 8.75 -0.67 2.14 0.74 9570
0.05 -0.01 -0.92 -2.78 8.70 -0.61 2.07 0.76 9577
0.06 -0.01 -1.80 -3.32 8.78 -0.56 1.95 0.79 9583
0.06 -0.01 -1.58 -3.80 8.71 -0.53 1.81 0.81 9589
0.07 -0.01 -1.75 -4.30 8.40 -0.52 1.58 0.82 9595
0.05 -0.00 -1.77 -4.87 8.07 -0.52 1.32 0.82 9602
0.04 -0.00 -1.63 -5.51 7.66 -0.53 1.02 0.79 9608
0.05 -0.00 -1.73 -6.13 6.99 -0.50 0.78 0.77 9614
0.06 -0.01 -35.30 -29.89 3.85 -0.43 0.45 0.70 9620
0.05 -0.00 -29.57 -16.16 5.84 0.53 -2.27 0.91 9627
0.05 -0.00 -15.42 -9.79 -1.17 0.57 -3.28 0.93 9633
0.06 -0.01 -14.10 -20.34 11.43 0.92 -3.49 1.13 9639
0.04 -0.00 -38.69 -21.64 7.93 2.68 -2.86 1.64 9646
0.05 0.02 -11.07 -6.42 12.49 0.15 -0.07 0.24 9653
0.05 0.10 -2.77 -3.78 14.27 -0.52 -0.09 0.03 9659
0.05 0.32 -4.26 0.16 10.78 -0.48 -0.06 -0.15 9665
0.04 0.49 0.02 -0.67 11.02 -0.30 -0.02 -0.08 9671
0.03 0.67 2.77 -0.65 9.98 -0.17 0.04 0.09 9677
0.02 0.69 2.46 -0.29 9.79 -0.08 0.04 0.20 9684
0.03 0.68 0.96 -0.45 9.92 -0.03 -0.04 0.18 9691
0.03 0.67 0.50 -0.48 10.13 -0.01 -0.07 0.11 9697
0.04 0.71 0.87 -0.61 9.95 0.00 -0.08 0.08 9703
0.05 0.73 1.08 -0.87 9.89 0.01 -0.10 0.07 9709
0.06 0.68 0.60 -0.81 10.04 0.02 -0.09 0.08 9715
0.06 0.63 0.28 -0.80 9.97 0.00 -0.07 0.08 9721
0.09 0.64 0.39 -0.94 9.90 -0.02 -0.04 0.10 9729
0.09 0.64 0.59 -0.87 9.96 -0.03 -0.03 0.11 9735
0.08 0.67 0.65 -0.74 10.01 -0.04 -0.03 0.11 9741
0.07 0.69 0.81 -0.77 10.05 -0.04 -0.04 0.11 9747
0.09 0.73 0.79 -0.76 10.06 -0.03 -0.05 0.10 9753
0.10 0.75 0.68 -0.74 9.98 -0.03 -0.05 0.10 9760
0.10 0.77 0.58 -0.81 9.98 -0.03 -0.05 0.10 9766
0.13 0.81 0.60 -0.80 9.97 -0.03 -0.04 0.10 9773
0.09 0.83 0.67 -0.78 9.98 -0.03 -0.03 0.11 9779
0.07 0.83 0.66 -0.76 9.92 -0.04 -0.00 0.11 9785
0.09 0.84 0.68 -0.68 9.94 -0.03 -0.03 0.11 9791
0.09 0.87 0.75 -0.68 9.96 -0.03 -0.04 0.12 9797
0.08 0.84 0.69 -0.69 9.91 -0.02 -0.04 0.10 9804
0.09 0.85 0.68 -0.68 9.95 -0.01 -0.05 0.10 9810
0.10 0.84 0.65 -0.68 9.97 -0.00 -0.05 0.10 9817
0.11 0.80 0.64 -0.71 9.94 -0.00 -0.05 0.10 9823
0.12 0.81 0.66 -0.72 9.98 0.00 -0.05 0.10 9829
0.14 0.80 0.63 -0.77 9.86 -0.00 -0.05 0.10 9835
0.14 0.78 0.67 -0.74 9.97 -0.01 -0.05 0.10 9841
0.12 0.78 0.67 -0.71 9.98 -0.01 -0.05 0.10 9848
0.13 0.76 0.63 -0.68 9.94 -0.01 -0.04 0.10 9854
0.15 0.73 0.62 -0.71 9.93 -0.01 -0.04 0.10 9861
0.15 0.72 0.65 -0.70 9.94 -0.01 -0.04 0.11 9867
0.15 0.74 0.62 -0.72 9.94 -0.01 -0.03 0.10 9873
0.16 0.71 0.64 -0.71 9.93 -0.01 -0.03 0.10 9879
0.15 0.72 0.66 -0.70 9.92 -0.01 -0.04 0.10 9885
0.15 0.73 0.64 -0.71 9.96 -0.01 -0.03 0.10 9892
0.16 0.73 0.62 -0.73 9.98 -0.01 -0.03 0.10 9899
0.15 0.74 0.68 -0.74 9.94 -0.01 -0.03 0.10 9905
0.14 0.74 0.66 -0.68 9.97 -0.01 -0.03 0.10 9911
0.15 0.75 0.69 -0.73 9.97 -0.00 -0.03 0.11 9917
0.15 0.75 0.66 -0.74 9.92 -0.00 -0.03 0.11 9923
0.13 0.75 0.67 -0.72 9.92 -0.00 -0.03 0.11 9930
0.11 0.77 0.64 -0.70 9.93 -0.01 -0.03 0.11 9936
0.11 0.78 0.66 -0.68 9.92 -0.01 -0.03 0.11 9943
0.11 0.79 0.61 -0.70 9.89 -0.01 -0.03 0.10 9949
0.10 0.81 0.66 -0.72 9.90 -0.00 -0.03 0.10 9955
0.11 0.81 0.68 -0.70 9.91 -0.00 -0.03 0.11 9961
0.11 0.80 0.70 -0.71 9.95 -0.00 -0.03 0.10 9967
0.11 0.80 0.68 -0.71 9.95 0.00 -0.03 0.10 9974
0.12 0.78 0.67 -0.70 9.91 0.00 -0.04 0.11 9980
0.12 0.77 0.67 -0.73 9.92 0.00 -0.04 0.11 9987
0.12 0.74 0.66 -0.71 9.94 -0.00 -0.04 0.10 9993
0.12 0.71 0.62 -0.73 9.91 -0.01 -0.04 0.10 9999
0.14 0.70 0.63 -0.74 9.94 -0.00 -0.04 0.10 10005
0.13 0.68 0.66 -0.70 9.94 -0.00 -0.04 0.10 10011
0.13 0.68 0.68 -0.70 9.92 -0.01 -0.04 0.10 10018
0.14 0.71 0.63 -0.69 9.92 -0.00 -0.03 0.11 10024
0.13 0.70 0.64 -0.72 9.91 -0.01 -0.03 0.10 10031
0.13 0.70 0.64 -0.73 9.95 -0.01 -0.04 0.10 10037
0.15 0.70 0.64 -0.68 9.95 -0.01 -0.04 0.10 10043
0.14 0.71 0.67 -0.68 9.92 -0.01 -0.04 0.11 10050
0.13 0.72 0.67 -0.69 9.96 -0.01 -0.04 0.10 10056
0.14 0.74 0.69 -0.71 9.98 -0.01 -0.04 0.10 10062
0.14 0.75 0.68 -0.71 9.92 -0.01 -0.04 0.10 10068
0.12 0.75 0.67 -0.73 9.95 -0.01 -0.04 0.11 10075
0.14 0.76 0.66 -0.68 9.94 -0.01 -0.04 0.10 10082
0.14 0.75 0.63 -0.69 9.95 -0.01 -0.05 0.10 10088
0.14 0.77 0.71 -0.71 9.92 -0.01 -0.05 0.10 10094
0.14 0.77 0.67 -0.70 9.96 -0.01 -0.05 0.11 10100
0.13 0.75 0.68 -0.71 9.96 -0.01 -0.05 0.10 10106
0.13 0.77 0.66 -0.75 9.95 -0.01 -0.05 0.10 10114
0.14 0.77 0.67 -0.69 9.91 -0.01 -0.06 0.10 10120
0.12 0.76 0.65 -0.73 9.97 -0.01 -0.05 0.10 10126
0.13 0.78 0.66 -0.71 9.94 -0.01 -0.04 0.11 10132
0.14 0.77 0.62 -0.73 9.94 -0.01 -0.04 0.11 10138
0.13 0.78 0.64 -0.69 9.94 -0.01 -0.04 0.11 10145
0.13 0.80 0.66 -0.70 9.96 -0.01 -0.04 0.10 10151
0.13 0.79 0.67 -0.68 9.93 -0.01 -0.04 0.10 10158
0.13 0.80 0.68 -0.70 9.91 -0.01 -0.04 0.11 10164
0.13 0.81 0.61 -0.70 9.94 -0.01 -0.04 0.10 10170
0.14 0.81 0.68 -0.72 9.94 -0.01 -0.04 0.11 10177
0.13 0.81 0.66 -0.69 9.97 -0.01 -0.07 0.10 10183
0.16 0.80 0.66 -0.69 9.93 -0.00 -0.03 0.11 10189
0.14 0.78 0.64 -0.70 9.89 -0.00 -0.03 0.11 10195
0.14 0.76 0.65 -0.72 9.95 -0.01 -0.03 0.10 10202
0.17 0.76 0.66 -0.72 9.95 -0.00 -0.03 0.10 10209
0.17 0.72 0.67 -0.70 9.95 -0.00 -0.02 0.10 10215
0.16 0.71 0.67 -0.71 9.97 -0.00 -0.02 0.10 10221
0.18 0.70 0.71 -0.67 9.94 -0.00 -0.02 0.10 10227
0.18 0.69 0.68 -0.70 9.91 -0.00 -0.02 0.10 10233
0.17 0.66 0.67 -0.71 9.95 -0.00 -0.02 0.10 10240
0.18 0.62 0.62 -0.72 9.94 -0.00 -0.02 0.11 10247
0.17 0.62 0.66 -0.75 9.94 -0.00 -0.02 0.10 10253
0.17 0.60 0.70 -0.72 9.97 -0.01 -0.03 0.10 10259
0.19 0.59 0.68 -0.68 9.92 -0.01 -0.03 0.10 10265
0.18 0.59 0.68 -0.73 9.92 -0.01 -0.04 0.10 10271
0.17 0.59 0.71 -0.71 9.92 -0.01 -0.04 0.09 10278
0.19 0.58 0.66 -0.73 9.94 -0.01 -0.05 0.09 10285
0.19 0.58 0.69 -0.75 9.92 -0.00 -0.05 0.10 10291
0.18 0.57 0.66 -0.68 9.97 -0.01 -0.06 0.09 10297
0.22 0.56 0.66 -0.72 9.94 -0.01 -0.06 0.09 10303
0.22 0.56 0.69 -0.72 9.92 -0.01 -0.07 0.09 10310
0.22 0.57 0.67 -0.71 9.98 -0.01 -0.07 0.09 10316
0.25 0.57 0.67 -0.74 9.96 -0.01 -0.08 0.09 10322
0.25 0.55 0.69 -0.73 9.97 -0.02 -0.09 0.09 10329
0.25 0.55 0.67 -0.71 9.99 -0.02 -0.09 0.09 10335
0.25 0.55 0.64 -0.68 9.98 -0.02 -0.10 0.08 10342
0.24 0.55 0.71 -0.72 9.91 -0.01 -0.09 0.08 10348
0.23 0.56 0.63 -0.73 9.93 -0.02 -0.09 0.08 10354
0.23 0.55 0.64 -0.72 9.91 -0.02 -0.09 0.08 10360
0.23 0.57 0.64 -0.69 9.97 -0.01 -0.09 0.08 10366
0.25 0.61 0.64 -0.78 9.96 -0.02 -0.08 0.08 10374
0.28 0.58 0.67 -0.69 9.92 -0.01 -0.08 0.08 10380
0.27 0.57 0.64 -0.71 9.91 -0.01 -0.08 0.08 10386
0.29 0.57 0.62 -0.73 9.96 -0.01 -0.08 0.08 10392
0.30 0.57 0.62 -0.76 9.97 -0.01 -0.07 0.08 10398
0.29 0.58 0.62 -0.72 9.94 -0.01 -0.07 0.08 10405
0.31 0.61 0.65 -0.73 9.96 -0.01 -0.07 0.08 10412
0.31 0.61 0.61 -0.73 9.95 -0.01 -0.06 0.08 10418
0.30 0.60 0.63 -0.70 9.93 -0.00 -0.06 0.09 10424
0.31 0.60 0.62 -0.71 9.93 -0.00 -0.05 0.08 10430
0.32 0.56 0.63 -0.73 9.98 -0.00 -0.05 0.09 10437
0.32 0.53 0.65 -0.74 9.92 0.00 -0.05 0.09 10443
0.34 0.53 1.21 -0.65 10.03 0.00 -0.05 0.09 10449
0.32 0.52 0.60 -0.72 9.99 0.00 -0.04 0.08 10456
0.33 0.53 0.58 -0.70 10.03 0.00 -0.04 0.09 10462
0.34 0.47 0.63 -0.75 9.95 0.01 -0.03 0.09 10469
0.34 0.49 0.61 -0.75 9.93 0.01 -0.03 0.09 10475
0.34 0.47 0.62 -0.73 9.96 0.01 -0.02 0.09 10481
0.35 0.42 0.62 -0.72 9.95 0.01 -0.02 0.09 10487
0.34 0.40 0.61 -0.71 9.94 0.01 -0.01 0.09 10493
0.35 0.37 0.64 -0.70 9.96 0.01 -0.01 0.09 10501
0.35 0.38 0.66 -0.72 9.97 0.02 0.00 0.09 10507
0.36 0.34 0.65 -0.71 9.98 0.02 0.02 0.09 10513
0.36 0.34 0.60 -0.76 9.92 0.02 0.02 0.09 10519
0.36 0.27 0.65 -0.75 9.92 0.02 0.03 0.09 10525
0.33 0.27 0.68 -0.75 9.99 0.02 0.04 0.09 10531
0.31 0.28 0.62 -0.74 9.99 0.01 0.04 0.09 10539
0.30 0.19 0.47 -0.75 9.98 0.01 0.05 0.10 10545
0.27 0.22 0.70 -0.75 9.89 0.01 0.05 0.10 10551
0.25 0.18 0.66 -0.74 9.97 0.02 0.05 0.10 10557
0.27 0.16 0.71 -0.73 9.92 0.02 0.04 0.09 10563
0.26 0.14 0.72 -0.71 9.92 0.01 0.04 0.09 10570
0.23 0.16 0.75 -0.61 9.89 0.01 0.03 0.09 10576
0.24 0.12 0.70 -0.78 9.94 0.01 0.02 0.09 10583
0.24 0.10 0.74 -0.73 9.92 0.01 0.01 0.09 10589
0.24 0.12 0.74 -0.76 9.93 0.01 -0.00 0.09 10595
0.25 0.13 0.73 -0.76 9.90 0.00 -0.01 0.09 10601
0.24 0.10 0.68 -0.76 9.97 0.00 -0.01 0.09 10608
0.23 0.08 0.72 -0.77 9.97 0.00 -0.02 0.09 10614
0.26 0.10 0.72 -0.75 9.95 -0.00 -0.02 0.09 10620
0.27 0.07 0.72 -0.73 9.93 -0.00 -0.02 0.09 10627
0.26 0.06 0.72 -0.76 9.91 0.00 -0.02 0.08 10633
0.28 0.08 0.72 -0.79 9.97 -0.00 -0.02 0.09 10639
0.27 0.07 0.72 -0.74 9.98 -0.00 -0.02 0.09 10646
0.26 0.06 0.71 -0.75 9.95 0.00 -0.02 0.09 10652
0.28 0.06 0.75 -0.74 9.95 0.00 -0.02 0.09 10658
0.28 0.05 0.76 -0.73 9.92 -0.00 -0.02 0.08 10664
0.27 0.06 0.73 -0.75 9.93 -0.00 -0.02 0.09 10671
0.27 0.07 0.75 -0.73 9.94 -0.00 -0.02 0.09 10678
0.28 0.09 0.74 -0.76 9.92 -0.01 -0.02 0.09 10684
0.27 0.07 0.75 -0.72 9.97 -0.00 -0.02 0.09 10690
0.26 0.10 0.72 -0.78 9.92 -0.01 -0.02 0.09 10696
0.24 0.08 0.73 -0.77 9.96 -0.01 -0.02 0.09 10702
0.20 0.08 0.74 -0.75 9.93 -0.01 -0.02 0.09 10708
0.23 0.09 0.74 -0.78 9.95 -0.02 -0.02 0.09 10716
0.20 0.09 0.73 -0.77 9.92 -0.02 -0.02 0.09 10722
0.19 0.09 0.72 -0.77 9.93 -0.01 -0.02 0.10 10728
0.19 0.10 0.72 -0.74 9.92 -0.01 -0.02 0.09 10734
0.19 0.10 0.74 -0.75 9.97 -0.02 -0.02 0.09 10740
0.18 0.10 0.77 -0.78 9.94 -0.01 -0.01 0.09 10747
0.20 0.12 0.76 -0.73 9.95 -0.01 -0.01 0.10 10754
0.21 0.10 0.72 -0.77 9.92 -0.01 -0.01 0.10 10760
0.20 0.10 0.77 -0.76 9.91 -0.01 -0.01 0.09 10766
0.19 0.12 0.74 -0.75 9.93 -0.01 -0.00 0.07 10772
0.17 0.10 0.74 -0.76 9.93 -0.01 -0.01 0.10 10778
0.17 0.11 0.74 -0.74 9.92 -0.01 -0.01 0.09 10785
0.17 0.12 0.79 -0.75 9.90 -0.01 -0.01 0.10 10791
0.16 0.12 0.73 -0.73 9.95 -0.01 -0.01 0.09 10798
0.13 0.11 0.79 -0.74 9.91 -0.01 -0.00 0.09 10804
0.14 0.13 0.75 -0.75 9.96 -0.01 -0.01 0.10 10810
0.13 0.12 0.75 -0.75 9.90 -0.01 -0.01 0.10 10817
0.11 0.11 0.76 -0.72 9.96 -0.01 -0.01 0.09 10823
0.13 0.13 0.77 -0.73 9.92 -0.01 -0.01 0.10 10829
0.12 0.11 0.78 -0.76 9.93 -0.01 -0.01 0.10 10835
0.11 0.11 0.78 -0.74 9.91 -0.01 -0.01 0.10 10842
0.12 0.13 0.75 -0.66 9.86 -0.01 -0.01 0.10 10849
0.12 0.11 0.74 -0.76 9.94 -0.01 -0.01 0.10 10855
0.11 0.11 0.78 -0.74 9.92 -0.01 -0.01 0.10 10861
0.12 0.13 0.77 -0.75 9.95 -0.01 -0.01 0.10 10867
0.11 0.13 0.75 -0.73 9.92 -0.01 -0.01 0.10 10873
0.10 0.13 0.77 -0.72 9.95 -0.00 -0.01 0.10 10880
0.11 0.13 0.77 -0.73 9.91 -0.01 -0.01 0.10 10887
0.11 0.11 0.77 -0.74 9.93 -0.01 -0.01 0.10 10893
0.10 0.11 0.80 -0.75 9.91 -0.01 -0.02 0.10 10899
0.12 0.11 0.80 -0.74 9.91 -0.01 -0.02 0.10 10905
0.11 0.10 0.79 -0.73 9.92 -0.01 -0.02 0.10 10911
0.10 0.10 0.78 -0.74 9.89 -0.01 -0.03 0.10 10918
0.11 0.11 0.80 -0.71 9.89 -0.01 -0.03 0.10 10925
0.11 0.11 0.78 -0.73 9.91 -0.01 -0.03 0.10 10931
0.11 0.11 0.76 -0.74 9.97 -0.01 -0.03 0.07 10937
0.12 0.12 0.79 -0.72 9.89 -0.01 -0.04 0.10 10943
0.11 0.11 0.78 -0.75 9.92 -0.00 -0.04 0.10 10950
0.11 0.11 0.78 -0.69 9.93 -0.00 -0.04 0.09 10956
0.12 0.10 0.79 -0.76 9.77 -0.00 -0.04 0.10 10962
0.11 0.09 0.77 -0.74 9.96 -0.00 -0.03 0.10 10969
0.10 0.11 0.76 -0.74 9.91 0.00 -0.04 0.10 10975
0.12 0.11 0.77 -0.74 9.90 0.00 -0.03 0.10 10981
0.12 0.10 0.78 -0.74 9.93 0.00 -0.03 0.11 10988
0.11 0.10 0.76 -0.78 9.94 0.00 -0.03 0.10 10994
0.12 0.09 0.82 -0.72 9.87 0.00 -0.03 0.10 11000
0.11 0.07 0.84 -0.73 9.85 0.00 -0.03 0.10 11006
0.10 0.07 0.76 -0.74 9.88 0.00 -0.04 0.10 11013
0.13 0.07 0.74 -0.74 9.94 0.00 -0.04 0.10 11020
0.12 0.08 0.79 -0.74 9.94 0.00 -0.04 0.11 11026
0.10 0.08 0.76 -0.73 9.92 -0.00 -0.04 0.10 11032
0.12 0.07 0.81 -0.75 9.92 -0.00 -0.04 0.10 11038
0.12 0.07 0.80 -0.75 9.91 -0.01 -0.04 0.10 11044
0.11 0.06 0.75 -0.75 9.96 -0.00 -0.04 0.09 11051
0.12 0.08 0.81 -0.73 9.93 0.03 -0.04 0.09 11058
0.12 0.04 0.77 -0.75 9.92 -0.00 -0.04 0.10 11064
0.11 0.05 0.82 -0.74 9.94 0.00 -0.04 0.10 11070
0.12 0.06 0.82 -0.77 9.91 0.00 -0.04 0.09 11076
0.12 0.04 0.79 -0.75 9.94 0.01 -0.04 0.10 11082
0.11 0.04 0.77 -0.73 9.91 0.01 -0.04 0.09 11089
0.12 0.03 0.76 -0.74 9.90 0.00 -0.04 0.09 11096
0.11 0.02 0.81 -0.74 9.91 0.00 -0.04 0.10 11102
0.11 0.01 0.79 -0.75 9.95 0.01 -0.04 0.10 11108
0.12 0.03 0.78 -0.75 9.96 0.00 -0.04 0.08 11114
0.12 0.02 0.78 -0.81 9.94 0.01 -0.04 0.09 11120
0.12 0.00 0.80 -0.83 9.92 0.01 -0.04 0.10 11127
0.12 0.04 0.81 -0.79 9.95 0.01 -0.04 0.09 11133
0.12 0.01 0.80 -0.78 9.93 0.01 -0.04 0.08 11140
0.12 -0.00 0.83 -0.81 9.96 0.01 -0.03 0.09 11146
0.12 0.02 0.80 -0.80 9.93 0.01 -0.03 0.09 11152
0.12 0.01 0.80 -0.82 9.93 0.00 -0.03 0.08 11158
0.11 0.01 0.81 -0.82 9.84 0.00 -0.03 0.08 11165
0.10 0.02 0.80 -0.74 9.88 -0.01 -0.02 0.08 11171
0.10 0.01 0.81 -0.79 9.94 -0.01 -0.02 0.08 11177
0.10 0.00 0.81 -0.76 10.01 -0.01 -0.02 0.08 11184
0.09 0.01 0.88 -0.83 9.99 -0.00 -0.02 0.08 11190
0.08 0.00 0.91 -0.79 10.10 0.00 -0.02 0.08 11197
0.09 -0.01 0.80 -0.78 10.02 0.00 -0.03 0.08 11203
0.08 0.00 0.87 -0.81 9.99 0.01 -0.04 0.07 11209
0.08 0.00 0.89 -0.78 9.99 0.01 -0.05 0.07 11215
0.08 0.00 0.83 -0.79 9.82 0.02 -0.05 0.06 11222
0.07 0.00 0.81 -0.80 9.85 0.02 -0.05 0.06 11228
0.09 0.01 0.85 -0.78 9.91 0.02 -0.04 0.06 11235
0.07 -0.00 0.85 -0.54 10.04 0.02 -0.04 0.05 11241
0.06 -0.01 0.88 -0.85 9.97 0.02 -0.04 0.05 11247
0.08 -0.00 0.88 -0.88 9.99 0.02 -0.04 0.04 11253
0.06 -0.01 0.87 -0.86 10.00 0.03 -0.05 0.04 11259
0.06 -0.01 0.77 -0.86 9.98 0.04 -0.04 0.05 11266
0.07 0.00 0.77 -0.84 10.02 0.05 -0.03 0.05 11273
0.08 -0.01 0.82 -0.90 10.04 0.06 -0.03 0.06 11279
0.08 -0.01 0.88 -0.85 10.02 0.09 0.00 0.05 11285
0.07 0.00 0.79 -0.91 10.04 0.10 0.03 0.05 11291
0.08 -0.01 0.80 -1.06 10.15 0.12 0.03 0.04 11297
0.07 -0.01 0.92 -0.80 10.78 0.15 0.07 0.03 11303
0.08 0.02 0.77 -0.89 10.10 0.18 0.09 0.03 11311
0.08 -0.00 1.03 -0.96 9.90 0.23 0.12 0.03 11317
0.06 -0.01 0.83 -0.94 9.91 0.24 0.12 0.03 11323
0.07 -0.00 0.80 -0.97 9.83 0.24 0.10 0.03 11329
0.09 -0.01 0.90 -1.01 9.83 0.21 0.07 0.04 11335
0.08 -0.01 0.87 -1.05 9.79 0.17 0.02 0.05 11341
0.07 -0.01 0.93 -1.06 9.86 0.13 -0.00 0.05 11347
0.08 -0.01 1.00 -1.01 9.83 0.10 -0.02 0.05 11355
0.08 -0.01 0.94 -1.02 9.94 0.09 -0.03 0.04 11361
0.07 -0.01 0.96 -1.02 10.04 0.09 -0.02 0.04 11367
0.08 -0.00 0.97 -1.06 10.16 0.12 -0.01 0.03 11373
0.08 -0.01 0.98 -1.08 10.04 0.15 0.00 0.02 11379
0.07 -0.01 0.98 -1.08 10.07 0.18 0.02 0.01 11385
0.08 -0.00 1.01 -1.09 10.29 0.24 0.05 0.00 11393
0.08 -0.01 1.04 -1.08 10.61 0.31 0.08 -0.01 11399
0.07 -0.01 0.66 -0.82 10.31 0.41 0.11 -0.03 11405
0.08 -0.00 0.95 -1.26 10.55 0.47 0.10 -0.04 11411
0.09 -0.01 1.16 -1.32 10.58 0.53 0.09 -0.06 11417
0.08 -0.01 1.03 -1.30 10.47 0.58 0.08 -0.07 11424
0.10 -0.00 1.06 -1.37 10.18 0.61 0.06 -0.07 11430
0.09 -0.01 1.05 -1.33 9.94 0.62 0.06 -0.07 11437
0.08 -0.01 1.07 -1.40 9.84 0.60 0.06 -0.07 11443
0.08 0.00 0.94 -1.53 9.87 0.59 0.06 -0.06 11449
0.08 -0.01 1.02 -1.48 9.81 0.56 0.05 -0.05 11456
0.10 -0.01 1.01 -1.55 9.74 0.54 0.06 -0.04 11462
0.11 -0.01 0.92 -1.63 9.62 0.47 0.05 -0.04 11468
0.11 -0.01 0.93 -1.68 9.49 0.46 0.06 -0.02 11474
0.11 -0.01 1.00 -1.71 9.44 0.42 0.06 -0.01 11481
0.09 -0.01 0.96 -1.71 9.45 0.37 0.06 0.00 11487
0.09 -0.00 0.97 -1.74 9.32 0.32 0.07 0.01 11493
0.08 -0.01 0.97 -1.75 9.33 0.26 0.08 0.02 11500
0.06 -0.01 1.01 -1.81 9.28 0.21 0.09 0.04 11506
0.08 -0.00 1.03 -1.83 9.26 0.15 0.09 0.05 11512
0.07 -0.01 1.07 -1.81 9.30 0.09 0.08 0.05 11518
0.07 -0.01 1.13 -1.87 9.52 0.04 0.07 0.05 11525
0.07 -0.01 1.17 -1.87 9.52 0.01 0.06 0.05 11531
0.09 -0.01 1.28 -1.81 9.73 -0.02 0.05 0.05 11537
0.08 -0.01 1.24 -1.85 9.95 -0.03 0.05 0.04 11544
0.07 -0.01 1.28 -1.82 9.83 -0.02 0.04 0.04 11550
0.08 0.00 1.27 -1.79 9.83 -0.02 0.04 0.03 11556
0.09 -0.01 1.27 -1.80 9.83 -0.03 0.03 0.02 11563
0.08 -0.01 1.27 -1.87 9.92 -0.03 0.03 0.02 11569
0.07 -0.01 1.29 -1.81 9.91 -0.02 0.02 0.01 11575
0.07 -0.01 1.82 -1.86 10.15 -0.00 0.03 0.01 11581
0.06 -0.01 1.22 -1.85 10.25 0.03 0.04 0.01 11588
0.06 -0.01 1.23 -1.83 10.26 0.07 0.04 0.00 11594
0.08 0.00 1.26 -1.83 10.18 0.11 0.05 0.00 11600
0.09 -0.01 1.25 -1.85 10.13 0.14 0.06 -0.00 11607
0.06 -0.01 1.29 -1.91 10.22 0.17 0.07 -0.01 11613
0.07 -0.01 1.27 -1.89 10.28 0.21 0.09 -0.01 11620
0.06 -0.01 1.24 -1.92 10.11 0.24 0.11 -0.01 11626
0.05 -0.01 1.30 -1.91 10.18 0.26 0.12 -0.01 11632
0.08 -0.01 1.29 -1.95 10.23 0.29 0.13 -0.01 11638
0.07 -0.01 1.33 -1.99 10.17 0.31 0.16 -0.01 11644
0.08 -0.01 1.34 -2.03 10.16 0.37 0.19 -0.01 11652
0.07 -0.01 1.32 -2.03 10.20 0.35 0.21 -0.01 11658
0.08 -0.01 1.32 -2.04 10.25 0.37 0.23 -0.01 11664
0.08 -0.01 1.43 -2.07 10.13 0.40 0.24 -0.02 11670
0.08 -0.01 1.43 -2.04 10.06 0.42 0.26 -0.02 11676
0.07 -0.01 1.49 -2.16 10.05 0.44 0.26 -0.02 11682
0.05 -0.01 1.63 -2.28 10.09 0.45 0.27 -0.07 11689
0.07 -0.01 1.55 -2.12 10.03 0.49 0.29 -0.05 11696
0.09 -0.01 1.51 -2.23 10.06 0.50 0.28 -0.05 11702
0.06 0.00 1.61 -2.27 10.03 0.51 0.28 -0.05 11708
0.08 -0.01 1.54 -2.34 10.04 0.52 0.27 -0.05 11715
0.06 -0.01 1.46 -2.47 9.88 0.53 0.27 -0.05 11721
0.09 -0.00 1.37 -2.43 9.80 0.53 0.28 -0.03 11727
0.07 -0.01 1.29 -2.54 9.91 0.54 0.29 -0.01 11734
0.07 -0.01 1.32 -2.63 9.94 0.54 0.32 0.01 11740
0.11 -0.01 1.40 -2.65 9.99 0.54 0.34 0.04 11746
0.10 -0.01 1.48 -2.67 10.11 0.55 0.36 0.06 11753
0.08 -0.01 1.44 -2.70 10.12 0.57 0.39 0.08 11759
0.10 0.00 1.56 -2.76 10.12 0.58 0.42 0.09 11765
0.09 -0.01 1.52 -2.78 10.11 0.59 0.45 0.11 11771
0.06 -0.01 1.56 -2.93 10.21 0.60 0.48 0.12 11778
0.08 -0.00 1.51 -3.01 10.12 0.61 0.52 0.15 11785
0.08 -0.01 1.55 -3.02 10.48 0.63 0.54 0.17 11791
0.07 -0.00 1.37 -3.23 10.32 0.64 0.59 0.21 11797
0.09 -0.01 1.17 -3.54 10.38 0.66 0.63 0.26 11803
0.07 -0.01 0.87 -3.92 10.50 0.68 0.65 0.31 11810
0.07 0.01 0.47 -4.00 10.79 0.73 0.66 0.40 11816
0.07 -0.01 0.65 -4.16 10.85 0.78 0.65 0.50 11823
0.06 -0.01 1.30 -3.53 11.46 0.80 0.65 0.59 11829
0.06 0.01 1.69 -3.50 12.06 0.77 0.79 0.65 11835
0.07 -0.00 2.34 -3.14 11.24 0.70 0.96 0.65 11842
0.06 -0.01 2.11 -3.25 10.95 0.62 1.13 0.64 11848
0.07 -0.00 1.78 -3.71 10.60 0.55 1.29 0.64 11854
0.07 -0.01 1.29 -4.15 10.24 0.52 1.35 0.65 11860
0.07 0.01 0.87 -4.77 9.51 0.49 1.33 0.66 11868
0.06 0.00 0.45 -5.54 9.18 0.48 1.28 0.66 11874
0.05 -0.00 -0.58 -6.16 9.13 0.50 1.22 0.61 11880
0.06 -0.00 -0.79 -6.91 8.86 0.55 1.15 0.51 11886
0.05 -0.00 -2.27 -7.59 8.83 0.62 1.04 0.32 11892
0.05 -0.00 -3.92 -7.68 8.94 0.70 0.89 0.07 11898
0.05 -0.00 -4.74 -7.80 8.94 0.78 0.63 -0.22 11906
0.07 -0.00 -5.93 -7.43 9.34 0.81 0.26 -0.51 11912
0.04 -0.00 -5.95 -7.19 9.24 0.81 -0.15 -0.77 11918
0.05 -0.01 -6.38 -7.06 9.69 0.78 -0.58 -1.04 11924
0.06 -0.00 -5.88 -7.00 9.82 0.75 -1.01 -1.27 11930
0.05 -0.01 -5.58 -7.00 9.65 0.74 -1.40 -1.45 11936
0.05 0.00 -4.37 -6.76 10.04 0.74 -1.70 -1.62 11943
0.07 -0.01 -3.31 -6.22 9.92 0.75 -1.97 -1.73 11950
0.07 -0.01 -3.48 -5.87 10.20 0.74 -2.17 -1.74 11956
0.08 0.01 -1.72 -5.64 10.89 0.75 -2.26 -1.70 11962
0.08 -0.01 -0.60 -5.25 10.30 0.75 -2.30 -1.56 11969
0.07 -0.01 0.35 -4.85 9.74 0.76 -2.28 -1.40 11975
0.08 0.00 1.07 -4.40 9.94 0.78 -2.23 -1.22 11981
0.08 -0.00 2.65 -3.71 9.50 0.80 -2.12 -1.00 11987
0.07 -0.00 2.43 -3.71 9.84 0.83 -1.95 -0.80 11994
0.08 -0.00 3.59 -3.46 9.64 0.86 -1.78 -0.55 12001
0.09 -0.01 3.82 -3.01 8.94 0.86 -1.58 -0.31 12007
0.07 -0.01 4.06 -2.48 9.45 0.86 -1.38 -0.07 12013
0.08 0.00 3.11 -2.03 8.76 0.84 -1.20 0.16 12019
0.07 -0.01 3.38 -2.11 9.21 0.81 -1.03 0.37 12025
0.07 -0.00 3.19 -2.02 8.53 0.80 -0.88 0.53 12032
0.07 -0.00 2.61 -2.19 8.66 0.78 -0.76 0.65 12039
0.07 -0.01 1.96 -2.30 8.55 0.75 -0.64 0.74 12045
0.07 -0.01 1.51 -2.33 8.76 0.73 -0.57 0.80 12051
0.08 0.01 0.69 -1.97 9.18 0.70 -0.51 0.83 12057
0.08 -0.01 0.52 -2.64 9.31 0.68 -0.49 0.84 12063
0.08 -0.01 0.71 -2.85 9.30 0.65 -0.49 0.83 12069
0.08 -0.01 -0.06 -3.14 9.32 0.62 -0.53 0.79 12077
0.09 -0.01 0.20 -3.32 9.44 0.60 -0.56 0.70 12083
0.08 -0.01 -0.14 -3.52 9.01 0.59 -0.56 0.64 12089
0.08 -0.01 -0.24 -3.68 8.76 0.59 -0.57 0.56 12095
0.09 -0.00 0.10 -3.66 9.51 0.57 -0.61 0.49 12101
0.08 -0.01 -1.05 -3.61 10.02 0.55 -0.65 0.43 12107
0.07 -0.01 -0.36 -3.58 9.82 0.53 -0.70 0.34 12114
0.09 -0.01 -0.33 -4.22 9.84 0.49 -0.74 0.26 12121
0.08 -0.01 -0.85 -3.56 9.97 0.45 -0.78 0.15 12127
0.08 -0.01 -0.98 -3.54 10.16 0.40 -0.81 0.02 12133
0.08 0.00 -1.45 -3.38 10.09 0.34 -0.89 -0.11 12139
0.08 -0.00 -2.31 -3.27 9.60 0.28 -0.98 -0.29 12146
0.07 -0.00 -1.96 -3.10 9.48 0.22 -1.11 -0.50 12152
0.09 -0.00 -2.66 -3.01 9.43 0.17 -1.24 -0.71 12158
0.08 -0.01 -2.95 -3.00 9.73 0.12 -1.37 -0.94 12165
0.08 -0.01 -2.61 -2.97 10.01 0.08 -1.49 -1.18 12171
0.10 -0.01 -3.08 -2.92 10.65 0.04 -1.60 -1.39 12178
0.08 -0.01 -2.50 -2.88 10.53 0.01 -1.71 -1.57 12184
0.08 -0.01 -1.39 -2.72 8.90 -0.02 -1.78 -1.75 12190
0.09 -0.00 -0.97 -2.68 9.61 -0.04 -1.86 -1.89 12196
0.07 -0.01 0.77 -2.41 8.56 -0.07 -1.88 -2.03 12203
0.07 -0.01 -1.21 -2.57 9.57 -0.08 -1.90 -2.16 12209
0.08 -0.01 -1.19 -2.56 10.37 -0.11 -1.92 -2.23 12216
0.07 -0.01 -0.58 -2.65 10.07 -0.13 -1.91 -2.31 12222
0.08 -0.00 -0.07 -2.62 10.25 -0.15 -1.89 -2.36 12228
0.07 -0.01 0.12 -2.51 10.34 -0.19 -1.86 -2.40 12234
0.06 -0.01 0.41 -2.55 10.22 -0.24 -1.83 -2.43 12241
0.08 -0.00 0.71 -2.63 10.14 -0.28 -1.77 -2.45 12248
0.08 -0.01 0.96 -2.72 10.07 -0.34 -1.69 -2.46 12254
0.07 -0.00 1.19 -2.79 10.14 -0.38 -1.60 -2.44 12260
0.07 -0.01 1.29 -2.84 10.12 -0.42 -1.50 -2.40 12267
0.06 -0.01 1.44 -2.89 10.13 -0.45 -1.40 -2.36 12273
0.07 -0.01 1.57 -2.94 10.15 -0.47 -1.30 -2.30 12279
0.07 -0.01 1.69 -2.96 10.12 -0.48 -1.21 -2.23 12285
0.08 -0.00 1.78 -2.96 10.03 -0.47 -1.14 -2.14 12293
0.08 -0.00 1.74 -3.00 10.06 -0.47 -1.09 -2.07 12299
0.07 -0.01 2.11 -2.97 10.01 -0.46 -1.03 -1.98 12305
0.08 0.00 2.34 -2.99 9.98 -0.45 -0.98 -1.89 12311
0.08 -0.01 2.58 -3.00 9.83 -0.44 -0.91 -1.81 12317
0.07 -0.01 2.97 -3.11 9.68 -0.44 -0.81 -1.73 12324
0.08 0.01 3.21 -3.20 9.43 -0.44 -0.64 -1.65 12331
0.08 -0.00 3.46 -3.43 9.25 -0.45 -0.43 -1.56 12337
0.07 -0.01 3.61 -3.51 8.97 -0.46 -0.23 -1.46 12343
0.09 0.00 3.62 -3.59 9.02 -0.47 0.01 -1.36 12349
0.08 -0.00 3.53 -3.68 9.18 -0.47 0.23 -1.23 12356
0.07 -0.00 3.27 -3.70 9.21 -0.46 0.40 -1.06 12362
0.09 0.01 2.85 -3.92 9.78 -0.44 0.53 -0.87 12368
0.08 0.00 2.93 -3.81 9.10 -0.41 0.59 -0.66 12375
0.07 0.00 2.94 -3.87 9.02 -0.40 0.61 -0.46 12381
0.10 0.00 2.86 -3.90 9.29 -0.38 0.64 -0.26 12388
0.08 -0.01 2.65 -4.03 9.75 -0.37 0.68 -0.06 12394
0.07 -0.00 2.30 -3.95 10.06 -0.38 0.71 0.14 12400
0.09 -0.00 1.92 -3.77 10.34 -0.42 0.71 0.32 12406
0.07 -0.01 1.71 -3.57 10.60 -0.48 0.71 0.49 12412
0.07 0.00 1.80 -3.44 11.21 -0.59 0.72 0.64 12420
0.07 -0.00 2.09 -3.24 11.68 -0.75 0.79 0.80 12426
0.06 -0.01 2.22 -3.11 11.81 -0.96 0.90 0.95 12432
0.06 0.00 2.25 -2.97 11.76 -1.18 1.04 1.09 12438
0.06 -0.00 2.07 -2.98 11.57 -1.40 1.19 1.23 12445
0.06 0.00 1.80 -3.27 11.08 -1.59 1.27 1.36 12451
0.06 -0.00 1.63 -3.67 10.56 -1.73 1.40 1.46 12457
0.06 -0.00 1.52 -4.04 10.20 -1.81 1.42 1.53 12464
0.07 0.01 1.43 -4.46 9.93 -1.81 1.46 1.57 12471
0.07 0.00 1.32 -4.80 9.67 -1.75 1.49 1.59 12477
0.07 0.00 0.95 -5.10 9.24 -1.63 1.51 1.60 12483
0.08 0.00 0.66 -5.17 8.99 -1.48 1.50 1.59 12489
0.08 -0.01 0.46 -5.22 8.87 -1.32 1.46 1.57 12495
0.07 0.00 0.40 -5.20 8.87 -1.15 1.38 1.55 12503
0.09 -0.00 0.48 -5.08 9.00 -1.00 1.31 1.51 12509
0.07 -0.01 0.69 -4.96 9.30 -0.86 1.28 1.47 12515
0.07 -0.00 1.10 -4.76 9.65 -0.77 1.28 1.42 12521
0.09 -0.00 1.51 -4.54 9.92 -0.71 1.32 1.37 12527
0.07 -0.01 1.76 -4.27 10.05 -0.68 1.38 1.33 12534
0.04 0.00 0.82 -5.78 10.27 -0.65 1.45 1.28 12540
0.05 0.00 -3.23 -6.00 14.11 -0.64 1.69 0.99 12547
0.04 -0.00 1.67 -2.41 11.45 -0.77 1.75 0.72 12553
0.06 0.00 0.77 -3.09 9.83 -0.87 1.62 0.62 12559
0.06 -0.01 -1.43 -4.47 10.65 -0.81 1.71 0.49 12566
0.05 0.00 1.29 -4.11 9.81 -0.79 1.72 0.40 12572
0.06 -0.00 1.40 -4.30 10.95 -0.77 1.66 0.36 12578
0.05 -0.01 2.11 -4.07 11.25 -0.73 1.66 0.37 12584
0.06 -0.00 1.82 -3.91 10.61 -0.70 1.64 0.42 12592
0.07 -0.00 1.37 -3.95 10.75 -0.68 1.57 0.48 12598
0.07 -0.00 1.61 -3.89 10.75 -0.67 1.51 0.56 12604
0.07 0.01 1.53 -3.86 10.63 -0.66 1.41 0.64 12610
0.07 -0.01 1.29 -3.93 10.54 -0.64 1.32 0.71 12617
0.06 0.00 1.19 -4.12 10.49 -0.60 1.24 0.78 12623
0.06 -0.00 1.19 -4.18 10.56 -0.55 1.16 0.84 12630
0.05 0.00 1.37 -4.22 10.84 -0.49 1.08 0.87 12636
0.06 0.00 1.67 -4.17 11.14 -0.45 1.03 0.89 12643
0.05 -0.00 1.85 -3.97 11.20 -0.46 0.97 0.89 12649
0.06 -0.00 1.89 -3.78 11.12 -0.50 0.93 0.88 12655
0.06 0.00 1.69 -4.10 10.48 -0.57 0.92 0.85 12661
0.04 0.01 0.98 -3.87 11.15 -0.66 0.90 0.79 12668
0.05 0.01 1.11 -3.82 10.99 -0.71 0.88 0.74 12675
0.05 0.00 0.90 -4.03 10.22 -0.74 0.94 0.69 12681
0.05 0.01 0.64 -4.56 10.22 -0.72 1.08 0.64 12687
0.05 0.01 -0.20 -5.17 10.54 -0.67 1.19 0.57 12694
0.04 0.01 -1.83 -5.59 10.81 -0.59 1.17 0.45 12700
0.05 0.01 -9.08 -8.53 15.73 -0.59 0.64 0.15 12706
0.05 0.00 -3.02 -2.83 9.99 -0.48 0.09 -0.06 12712
0.05 0.00 -3.78 -4.83 10.71 -0.49 0.05 -0.10 12720
0.06 0.00 -5.04 -4.69 9.56 -0.54 -0.08 -0.29 12726
0.05 -0.01 -2.78 -4.71 10.87 -0.52 -0.15 -0.50 12732
0.05 0.01 -1.42 -5.69 11.63 -0.49 -0.18 -0.69 12738
0.05 0.00 -0.14 -4.63 9.87 -0.41 -0.09 -0.86 12744
0.04 0.00 -0.96 -5.55 10.22 -0.37 -0.01 -1.01 12751
0.06 0.01 -1.19 -4.57 9.99 -0.32 -0.03 -1.15 12758
0.05 -0.00 -2.35 -4.88 9.86 -0.27 -0.09 -1.24 12764
0.05 -0.01 -2.59 -4.99 9.95 -0.21 -0.15 -1.27 12770
0.06 -0.00 -4.79 -5.08 10.09 -0.17 -0.24 -1.29 12777
0.05 -0.01 -5.82 -5.17 10.73 -0.13 -0.27 -1.31 12783
0.06 0.00 -6.22 -4.99 10.64 -0.10 -0.45 -1.32 12789
0.05 -0.00 -7.01 -5.18 10.61 -0.09 -0.60 -1.34 12795
0.04 -0.00 -7.57 -5.65 10.54 -0.10 -0.71 -1.39 12803
0.06 -0.00 -11.46 -7.21 11.04 -0.12 -0.90 -1.54 12809
0.05 -0.00 -17.27 -10.87 17.39 -0.09 -1.17 -1.74 12815
0.04 0.00 -8.87 -9.80 11.38 0.02 -1.26 -1.93 12821
0.04 -0.00 -3.39 -6.30 8.98 0.06 -1.31 -2.02 12828
0.04 -0.00 -2.11 -4.82 6.15 -0.10 -1.10 -2.14 12834
0.05 -0.01 -0.16 -4.82 4.29 -0.23 -0.51 -2.30 12840
0.05 -0.01 1.11 -3.22 6.70 -0.36 0.14 -2.29 12847
0.04 -0.00 0.85 -2.07 7.81 -0.45 0.52 -2.15 12853
0.06 0.00 -14.15 -1.33 16.65 -0.35 0.86 -1.72 12860
0.05 -0.00 -4.34 -0.63 13.51 -0.11 0.54 -0.76 12866
0.05 -0.01 -4.45 4.19 11.40 -0.13 0.25 0.21 12872
0.06 -0.01 1.82 6.58 9.77 -0.14 0.23 0.94 12878
0.05 -0.01 5.18 4.38 6.55 -0.21 0.52 1.42 12884
0.04 -0.00 3.07 4.56 6.24 -0.15 1.02 1.86 12891
0.05 0.00 -3.10 2.26 7.19 -0.04 1.66 2.15 12898
0.05 -0.00 -20.03 -13.51 16.41 -0.40 1.64 1.86 12904
0.06 0.02 -7.53 -6.77 7.73 -0.17 -0.06 0.40 12910
0.04 0.14 -1.27 -2.06 11.78 -0.31 0.07 0.16 12916
0.03 0.32 0.68 -1.45 11.50 -0.20 0.10 0.03 12923
0.04 0.53 2.26 -1.28 10.89 -0.09 0.10 0.04 12930
0.05 0.61 1.97 -0.82 10.24 -0.02 0.05 0.08 12936
0.05 0.65 1.28 -0.41 10.29 0.04 -0.01 0.08 12942
0.10 0.56 0.48 -0.38 10.02 0.08 -0.05 0.05 12949
0.10 0.43 0.29 -0.63 10.02 0.09 -0.04 0.02 12955
0.12 0.33 0.51 -1.02 10.23 0.08 -0.04 0.01 12961
0.18 0.22 0.81 -0.87 10.21 0.06 -0.06 0.04 12967
0.21 0.14 0.52 -1.17 10.13 0.08 -0.06 0.07 12974
0.24 0.10 0.33 -1.03 9.99 0.06 -0.06 0.07 12981
0.31 0.08 0.58 -0.95 9.90 0.06 -0.06 0.10 12987
0.33 0.02 0.53 -0.84 9.98 0.05 -0.06 0.12 12993
0.39 0.03 0.71 -0.88 9.97 0.05 -0.07 0.11 12999
0.46 0.01 0.77 -0.91 10.04 0.04 -0.07 0.13 13005
0.48 0.01 0.63 -0.99 9.93 0.04 -0.07 0.12 13012
0.52 0.00 0.61 -0.99 9.87 0.03 -0.07 0.12 13019
0.51 0.01 0.61 -1.02 9.89 0.02 -0.06 0.11 13025
0.54 -0.00 0.73 -1.05 9.91 0.01 -0.05 0.09 13031
0.58 0.00 0.77 -0.96 9.91 0.00 -0.05 0.08 13037
0.61 -0.00 0.72 -0.97 9.98 -0.00 -0.04 0.06 13044
0.63 0.00 0.70 -0.97 9.98 -0.00 -0.04 0.05 13050
0.66 -0.00 0.63 -0.97 9.97 -0.01 -0.04 0.05 13057
0.67 0.00 0.63 -0.92 9.96 -0.01 -0.03 0.05 13063
0.68 -0.01 0.59 -0.94 9.93 -0.02 -0.04 0.05 13069
0.70 -0.01 0.62 -0.90 9.92 -0.02 -0.03 0.05 13075
0.69 -0.01 0.57 -0.88 9.92 -0.02 -0.03 0.05 13082
0.68 0.00 0.58 -0.87 9.93 -0.03 -0.03 0.06 13088
0.69 -0.00 0.58 -0.88 9.94 -0.03 -0.03 0.07 13094
0.69 -0.00 0.54 -0.90 9.93 -0.03 -0.02 0.07 13101
0.68 -0.02 0.60 -0.88 9.98 -0.02 -0.02 0.07 13107
0.69 -0.01 0.60 -0.83 10.03 -0.01 -0.03 0.08 13114
0.68 -0.02 0.58 -0.85 10.02 -0.00 -0.02 0.08 13120
0.71 -0.02 0.61 -0.89 10.04 0.01 -0.02 0.08 13126
0.73 -0.02 0.64 -0.89 9.98 0.02 -0.03 0.08 13132
0.72 -0.04 0.61 -0.87 9.98 0.02 -0.03 0.08 13138
0.73 -0.01 0.62 -0.90 9.99 0.03 -0.04 0.08 13146
0.75 -0.02 0.62 -0.91 9.96 0.03 -0.04 0.07 13152
0.73 -0.03 0.63 -0.88 9.93 0.03 -0.04 0.07 13158
0.75 -0.04 0.63 -0.97 9.94 0.03 -0.04 0.06 13164
0.79 -0.04 0.59 -0.92 9.99 0.03 -0.04 0.06 13170
0.82 -0.05 0.57 -0.93 9.98 0.03 -0.05 0.06 13177
0.82 -0.04 0.55 -0.93 9.99 0.04 -0.05 0.07 13184
0.82 -0.04 0.59 -0.97 9.96 0.04 -0.05 0.06 13190
0.80 -0.05 0.77 -0.91 9.87 0.04 -0.05 0.07 13196
0.80 -0.05 0.61 -1.02 9.90 0.04 -0.04 0.06 13202
0.83 -0.05 0.63 -0.96 9.89 0.03 -0.04 0.06 13208
0.82 -0.05 0.62 -0.97 9.88 0.02 -0.04 0.06 13215
0.80 -0.04 0.66 -0.95 9.90 0.00 -0.04 0.05 13221
0.80 -0.03 0.65 -1.01 9.91 -0.00 -0.04 0.06 13228
0.79 -0.05 0.64 -1.00 9.96 -0.01 -0.03 0.05 13234
0.78 -0.03 0.63 -0.98 10.00 -0.01 -0.03 0.05 13240
0.79 -0.05 0.65 -0.99 10.01 -0.00 -0.03 0.05 13247
0.79 -0.04 0.66 -0.98 9.96 -0.00 -0.02 0.05 13253
0.80 -0.03 0.63 -0.96 9.98 -0.00 -0.02 0.05 13259
0.81 -0.05 0.64 -0.97 9.94 0.00 -0.03 0.05 13265
0.81 -0.05 0.58 -0.97 9.97 -0.00 -0.02 0.06 13272
0.81 -0.04 0.62 -1.00 9.93 -0.01 -0.02 0.06 13279
0.83 -0.05 0.62 -0.96 9.99 -0.01 -0.02 0.06 13285
0.82 -0.05 0.65 -0.99 9.96 -0.02 -0.02 0.06 13291
0.82 -0.03 0.67 -0.98 9.91 -0.02 -0.02 0.06 13297
0.82 -0.05 0.65 -0.98 9.98 -0.02 -0.02 0.06 13303
0.82 -0.05 0.63 -0.96 9.93 -0.03 -0.03 0.06 13310
0.82 -0.03 0.64 -0.97 9.89 -0.03 -0.02 0.06 13317
0.81 -0.05 0.60 -0.96 9.93 -0.04 -0.02 0.06 13323
0.81 -0.05 0.63 -0.92 9.91 -0.04 -0.02 0.06 13329
0.81 -0.03 0.65 -0.94 9.92 -0.05 -0.02 0.06 13335
0.81 -0.04 0.60 -0.93 9.95 -0.05 -0.01 0.07 13341
0.79 -0.05 0.60 -0.95 9.93 -0.06 -0.01 0.07 13348
0.78 -0.03 0.63 -0.96 9.91 -0.06 -0.01 0.07 13355
0.77 -0.04 0.60 -0.90 9.91 -0.06 -0.01 0.07 13361
0.76 -0.04 0.62 -0.91 9.93 -0.07 -0.01 0.08 13367
0.75 -0.01 0.60 -0.88 9.91 -0.07 -0.00 0.08 13373
0.73 -0.03 0.56 -0.87 9.90 -0.06 0.00 0.09 13380
0.69 -0.02 0.60 -0.88 9.96 -0.06 0.01 0.10 13386
0.68 -0.01 0.57 -0.85 9.94 -0.05 0.01 0.11 13392
0.64 -0.02 0.60 -0.85 9.92 -0.05 0.02 0.12 13399
0.64 -0.02 0.60 -0.84 9.92 -0.05 0.03 0.12 13405
0.60 0.00 0.65 -0.85 9.92 -0.04 0.04 0.12 13412
0.54 -0.01 0.63 -0.82 9.93 -0.05 0.04 0.12 13418
0.50 -0.00 0.64 -0.81 9.93 -0.04 0.05 0.12 13424
0.46 0.01 0.65 -0.85 9.96 -0.03 0.05 0.13 13430
0.42 0.01 0.70 -0.79 9.92 -0.03 0.04 0.13 13436
0.41 0.01 0.69 -0.82 9.89 -0.03 0.04 0.13 13443
0.44 0.03 0.68 -0.84 9.85 -0.03 0.03 0.12 13450
0.42 0.04 0.69 -0.81 9.93 -0.04 0.03 0.13 13456
0.36 0.03 0.64 -0.81 9.87 -0.04 0.03 0.12 13462
0.38 0.06 0.63 -0.83 9.88 -0.04 0.03 0.13 13468
0.36 0.08 0.63 -0.80 10.00 -0.05 0.03 0.13 13474
0.30 0.10 0.68 -0.81 9.97 -0.05 0.04 0.13 13481
0.31 0.15 0.68 -0.79 9.98 -0.03 0.04 0.13 13488
0.31 0.11 0.71 -0.78 9.98 -0.03 0.04 0.14 13494
0.28 0.13 0.73 -0.80 9.98 -0.02 0.05 0.14 13500
0.27 0.13 0.71 -0.77 9.96 -0.01 0.05 0.14 13506
0.24 0.14 0.74 -0.83 9.97 0.00 0.05 0.14 13513
0.23 0.14 0.72 -0.81 9.93 0.00 0.05 0.14 13519
0.21 0.15 0.78 -0.80 9.94 0.01 0.05 0.15 13526
0.18 0.15 0.75 -0.80 9.96 0.01 0.04 0.15 13532
0.17 0.14 0.77 -0.84 9.89 0.00 0.04 0.15 13538
0.17 0.15 0.78 -0.83 9.90 -0.00 0.03 0.14 13544
0.17 0.15 0.78 -0.78 9.92 -0.01 0.02 0.15 13551
0.17 0.14 0.83 -0.80 9.87 -0.01 0.01 0.14 13557
0.20 0.16 0.81 -0.80 9.90 -0.02 0.01 0.14 13563
0.18 0.15 0.83 -0.84 9.91 -0.02 -0.00 0.13 13570
0.16 0.16 0.77 -0.80 9.92 -0.02 -0.01 0.13 13576
0.19 0.18 0.78 -0.79 9.92 -0.02 -0.01 0.13 13583
0.16 0.19 0.78 -0.80 9.94 -0.02 -0.02 0.12 13589
0.16 0.20 0.81 -0.74 9.89 -0.02 -0.03 0.11 13595
0.18 0.20 0.79 -0.78 9.93 -0.02 -0.05 0.11 13601
0.17 0.21 0.80 -0.76 9.91 -0.02 -0.06 0.11 13607
0.14 0.24 0.83 -0.80 9.89 -0.02 -0.08 0.11 13615
0.17 0.22 0.79 -0.78 9.89 -0.02 -0.09 0.10 13621
0.15 0.25 0.75 -0.78 9.95 -0.02 -0.10 0.09 13627
0.16 0.26 0.76 -0.79 9.98 -0.03 -0.11 0.10 13633
0.18 0.31 0.74 -0.79 9.92 -0.03 -0.11 0.09 13639
0.17 0.34 0.62 -0.87 9.94 -0.03 -0.12 0.09 13646
0.17 0.39 0.80 -0.78 9.93 -0.04 -0.13 0.09 13652
0.19 0.42 0.77 -0.80 9.94 -0.04 -0.14 0.08 13659
0.19 0.42 0.73 -0.82 9.92 -0.05 -0.15 0.07 13665
0.17 0.50 0.71 -0.82 9.92 -0.05 -0.15 0.08 13671
0.18 0.50 0.76 -0.79 9.91 -0.05 -0.15 0.07 13678
0.16 0.54 0.69 -0.78 9.89 -0.04 -0.14 0.08 13684
0.18 0.60 0.73 -0.81 9.95 -0.03 -0.12 0.08 13690
0.18 0.55 0.65 -0.74 10.00 -0.03 -0.11 0.08 13697
0.17 0.59 0.68 -0.80 9.99 -0.02 -0.09 0.09 13703
0.19 0.58 0.68 -0.77 9.96 -0.01 -0.09 0.08 13710
0.18 0.58 0.68 -0.79 10.02 -0.01 -0.08 0.09 13716
0.20 0.57 0.71 -0.77 9.92 -0.01 -0.08 0.08 13722
0.23 0.56 0.68 -0.77 9.91 -0.01 -0.08 0.08 13728
0.23 0.56 0.69 -0.80 9.98 -0.01 -0.08 0.08 13734
0.23 0.57 0.67 -0.76 9.88 -0.01 -0.07 0.09 13742
0.24 0.56 0.70 -0.82 9.88 -0.01 -0.07 0.09 13748
0.24 0.56 0.69 -0.80 9.91 -0.01 -0.07 0.08 13754
0.24 0.58 0.71 -0.79 9.95 -0.01 -0.06 0.09 13760
0.26 0.59 0.68 -0.78 9.96 -0.02 -0.06 0.08 13766
0.27 0.58 0.67 -0.82 9.95 -0.01 -0.06 0.09 13773
0.27 0.60 0.69 -0.77 9.94 -0.01 -0.05 0.08 13779
0.28 0.61 0.69 -0.79 9.93 -0.01 -0.05 0.09 13786
0.28 0.61 0.71 -0.79 9.94 -0.01 -0.04 0.09 13792
0.28 0.62 0.68 -0.77 9.90 -0.01 -0.05 0.09 13798
0.28 0.59 0.68 -0.79 9.96 -0.01 -0.04 0.08 13805
0.28 0.59 0.70 -0.78 9.93 -0.01 -0.03 0.08 13811
0.28 0.61 0.67 -0.78 9.93 -0.00 -0.02 0.08 13817
0.28 0.59 0.70 -0.77 9.97 -0.00 -0.02 0.09 13824
0.27 0.57 0.63 -0.81 9.92 -0.00 -0.01 0.08 13830
0.28 0.56 0.67 -0.77 9.91 0.00 -0.00 0.09 13837
0.27 0.54 0.69 -0.75 9.97 0.00 0.00 0.09 13843
0.25 0.51 0.69 -0.80 9.93 0.00 0.01 0.09 13849
0.24 0.45 0.69 -0.75 9.99 0.00 0.02 0.09 13855
0.24 0.44 0.69 -0.78 9.97 0.00 0.02 0.09 13861
0.22 0.39 0.74 -0.78 9.96 -0.00 0.03 0.08 13868
0.19 0.38 0.73 -0.81 9.95 -0.00 0.03 0.09 13875
0.17 0.38 0.72 -0.77 9.95 -0.00 0.03 0.09 13881
0.16 0.34 0.75 -0.79 9.90 -0.01 0.03 0.08 13887
0.17 0.32 0.73 -0.79 9.92 -0.01 0.03 0.08 13893
0.18 0.30 0.73 -0.80 9.87 -0.01 0.03 0.09 13899
0.17 0.29 0.71 -0.82 9.98 -0.01 0.02 0.08 13905
0.15 0.29 0.73 -0.80 9.92 -0.01 0.02 0.09 13913
0.15 0.32 0.73 -0.78 9.92 -0.01 0.01 0.09 13919
0.14 0.30 0.78 -0.77 9.92 -0.01 0.01 0.09 13925
0.14 0.32 0.75 -0.81 9.94 -0.01 -0.00 0.10 13931
0.15 0.30 0.78 -0.79 9.93 -0.00 -0.01 0.09 13937
0.14 0.30 0.74 -0.78 9.96 -0.00 -0.02 0.09 13944
0.14 0.29 0.77 -0.79 9.93 -0.01 -0.02 0.10 13950
0.16 0.29 0.77 -0.80 9.95 -0.01 -0.02 0.09 13957
0.16 0.28 0.76 -0.78 9.91 -0.01 -0.02 0.09 13963
0.15 0.29 0.74 -0.80 9.92 -0.01 -0.03 0.10 13969
0.17 0.31 0.76 -0.76 9.91 -0.01 -0.02 0.10 13976
0.16 0.29 0.77 -0.76 9.90 -0.00 -0.02 0.10 13982
0.16 0.31 0.76 -0.77 9.92 -0.00 -0.02 0.09 13988
0.16 0.29 0.73 -0.80 9.91 -0.01 -0.02 0.10 13995
0.16 0.27 0.77 -0.78 9.93 -0.01 -0.02 0.10 14001
0.15 0.29 0.78 -0.77 9.97 -0.00 -0.01 0.09 14007
0.16 0.26 0.77 -0.78 9.97 -0.00 -0.02 0.10 14014
0.16 0.26 0.81 -0.78 9.89 0.00 -0.01 0.10 14020
0.16 0.22 0.80 -0.77 9.91 0.00 -0.01 0.10 14026
0.16 0.20 0.83 -0.80 9.93 0.01 -0.01 0.10 14032
0.16 0.19 0.79 -0.81 9.93 0.00 -0.00 0.10 14039
0.15 0.17 0.77 -0.81 9.90 0.01 -0.01 0.10 14046
0.15 0.16 0.81 -0.82 9.93 0.00 -0.00 0.10 14052
0.14 0.17 0.79 -0.79 9.97 0.00 -0.00 0.10 14058
0.14 0.17 0.80 -0.78 9.94 0.00 0.00 0.10 14064
0.15 0.16 0.78 -0.81 9.93 -0.00 0.01 0.10 14070
0.13 0.15 0.76 -0.78 9.91 -0.00 0.01 0.10 14076
0.14 0.14 0.80 -0.78 9.91 -0.00 0.01 0.10 14084
0.14 0.13 0.82 -0.82 9.90 -0.01 0.01 0.09 14090
0.14 0.13 0.82 -0.77 9.92 -0.00 0.01 0.10 14096
0.13 0.14 0.81 -0.78 9.88 -0.01 0.02 0.10 14102
0.15 0.12 0.85 -0.79 9.91 -0.01 0.02 0.09 14108
0.14 0.09 0.85 -0.76 9.90 -0.01 0.02 0.10 14114
0.14 0.08 0.86 -0.81 9.96 -0.01 0.03 0.09 14121
0.16 0.09 0.96 -0.79 9.97 -0.00 0.02 0.09 14128
0.14 0.05 0.88 -0.81 9.92 -0.00 0.02 0.09 14134
0.13 0.05 0.91 -0.78 9.90 -0.00 0.02 0.09 14140
0.13 0.06 0.88 -0.78 9.95 -0.00 0.02 0.09 14146
0.12 0.07 0.87 -0.83 9.91 -0.00 0.02 0.08 14153
0.11 0.06 0.84 -0.80 9.89 -0.00 0.01 0.08 14159
0.13 0.06 0.87 -0.79 9.93 0.03 0.01 0.08 14166
0.12 0.03 0.84 -0.76 9.93 -0.00 0.01 0.08 14172
0.11 0.02 0.84 -0.77 9.90 -0.00 0.01 0.08 14178
0.11 0.06 0.88 -0.81 9.94 -0.00 0.00 0.08 14184
0.12 0.04 0.86 -0.81 9.94 -0.00 -0.01 0.08 14191
0.12 0.02 0.85 -0.80 9.97 -0.00 -0.01 0.08 14197
0.12 0.03 0.90 -0.79 9.97 -0.00 -0.01 0.08 14203
0.11 0.03 0.89 -0.78 9.91 -0.00 -0.02 0.07 14210
0.11 0.01 0.88 -0.80 9.94 -0.00 -0.02 0.08 14216
0.10 0.04 0.90 -0.79 9.94 -0.00 -0.02 0.08 14222
0.11 0.03 0.87 -0.82 9.93 -0.00 -0.02 0.07 14229
0.09 0.03 0.89 -0.81 9.91 -0.00 -0.02 0.07 14235
0.09 0.03 0.89 -0.81 9.95 0.00 -0.02 0.08 14241
0.10 0.03 0.90 -0.82 9.96 0.00 -0.02 0.07 14247
0.09 0.02 0.87 -0.81 9.88 0.00 -0.02 0.08 14254
0.10 0.02 0.90 -0.82 9.95 0.00 -0.02 0.07 14260
0.11 0.01 0.87 -0.80 9.93 0.01 -0.02 0.08 14267
0.12 0.01 0.90 -0.82 9.93 0.00 -0.02 0.08 14273
0.11 0.01 0.88 -0.81 9.90 0.00 -0.02 0.07 14279
0.12 0.02 0.88 -0.85 9.88 0.00 -0.02 0.07 14285
0.11 0.01 0.94 -0.81 9.90 0.00 -0.03 0.07 14291
0.11 0.01 0.88 -0.81 9.92 -0.00 -0.03 0.08 14298
0.11 0.02 0.86 -0.82 9.91 -0.00 -0.03 0.07 14305
0.12 0.01 0.91 -0.81 9.94 -0.00 -0.03 0.07 14311
0.12 0.01 0.95 -0.83 9.97 -0.01 -0.00 0.07 14317
0.11 0.02 0.90 -0.80 9.97 0.00 -0.03 0.07 14323
0.12 0.02 0.88 -0.82 9.93 0.00 -0.04 0.06 14329
0.12 -0.00 0.93 -0.86 9.96 0.00 -0.04 0.07 14336
0.11 0.02 0.90 -0.82 9.94 0.00 -0.03 0.07 14343
0.12 0.02 0.88 -0.80 9.93 0.00 -0.03 0.06 14349
0.11 0.03 0.92 -0.83 9.93 0.01 -0.03 0.07 14355
0.11 0.03 1.09 -0.99 9.86 -0.00 -0.03 0.06 14361
0.14 0.02 0.91 -0.84 9.94 0.00 -0.03 0.06 14367
0.12 0.02 0.95 -0.83 9.92 -0.00 -0.03 0.06 14373
0.12 0.01 0.88 -0.86 9.93 0.01 -0.02 0.06 14381
0.12 0.02 0.91 -0.82 9.93 0.00 -0.03 0.06 14387
0.13 0.01 0.90 -0.86 9.98 0.00 -0.03 0.06 14393
0.11 0.01 0.93 -0.82 9.91 0.00 -0.03 0.06 14399
0.12 0.02 0.93 -0.85 9.92 0.00 -0.03 0.06 14405
0.13 0.00 0.92 -0.86 9.95 0.00 -0.03 0.06 14411
0.11 -0.00 0.91 -0.81 9.93 0.00 -0.04 0.06 14418
0.12 -0.00 0.94 -0.83 9.91 0.00 -0.04 0.05 14425
0.12 -0.01 0.89 -0.83 9.91 -0.03 -0.04 0.06 14431
0.12 -0.01 0.93 -0.87 9.90 0.00 -0.04 0.05 14437
0.10 -0.01 0.92 -0.86 9.94 -0.00 -0.03 0.05 14443
0.12 -0.01 0.93 -0.86 9.91 -0.00 -0.03 0.05 14449
0.12 -0.01 0.89 -0.85 9.93 -0.00 -0.03 0.05 14455
0.10 -0.01 0.91 -0.86 9.94 -0.00 -0.03 0.05 14462
0.11 -0.00 0.91 -0.88 9.94 -0.00 -0.03 0.05 14469
0.12 -0.01 0.90 -0.85 9.95 -0.00 -0.03 0.05 14475
0.13 -0.01 0.86 -0.87 9.94 0.00 -0.03 0.06 14481
0.13 -0.01 0.90 -0.88 9.89 0.00 -0.03 0.05 14487
0.13 -0.01 0.95 -0.89 9.98 -0.00 -0.03 0.05 14493
0.13 -0.01 0.92 -0.82 9.94 0.00 -0.03 0.05 14499
0.12 -0.01 0.98 -0.86 9.88 0.01 -0.03 0.05 14505
0.11 -0.01 0.96 -0.88 9.88 0.01 -0.03 0.05 14513
0.13 -0.01 0.93 -0.88 9.95 0.00 -0.03 0.05 14519
0.11 -0.01 0.92 -0.86 9.95 0.00 -0.02 0.05 14525
0.09 0.00 0.93 -0.91 10.00 0.01 -0.03 0.05 14531
0.11 -0.00 1.02 -0.85 9.91 0.01 -0.03 0.04 14537
0.09 -0.01 0.96 -1.04 10.02 0.01 -0.03 0.04 14543
0.08 -0.01 0.91 -0.90 9.97 0.02 -0.03 0.03 14551
0.10 0.00 0.95 -0.84 10.00 0.03 -0.03 0.04 14557
0.09 -0.01 0.83 -0.91 9.96 0.03 -0.02 0.04 14563
0.08 -0.01 0.85 -0.93 9.91 0.03 -0.02 0.04 14569
0.08 -0.00 0.87 -0.96 9.88 0.02 -0.02 0.06 14575
0.10 -0.01 0.77 -1.03 9.95 0.02 -0.04 0.06 14581
0.09 -0.01 0.95 -0.96 9.84 0.00 -0.04 0.07 14587
0.08 -0.01 1.00 -0.92 9.75 -0.02 -0.05 0.06 14595
0.07 0.01 1.01 -0.91 9.83 -0.04 -0.06 0.05 14601
0.07 0.01 0.98 -0.93 9.91 -0.05 -0.06 0.05 14607
0.07 -0.00 0.96 -0.94 9.97 -0.05 -0.05 0.05 14613
0.08 -0.00 0.91 -0.91 10.02 -0.04 -0.04 0.05 14619
0.07 -0.01 0.91 -0.85 10.01 -0.02 -0.03 0.06 14625
0.06 -0.01 0.90 -0.87 10.00 -0.01 -0.04 0.06 14632
0.06 -0.00 0.91 -0.85 10.03 -0.00 -0.04 0.07 14639
0.06 -0.01 0.91 -0.90 9.96 0.00 -0.05 0.07 14645
0.05 -0.01 0.88 -1.19 10.01 0.01 -0.06 0.08 14651
0.07 -0.00 0.95 -0.89 10.00 0.03 -0.04 0.08 14657
0.08 -0.01 0.90 -0.88 10.14 0.04 -0.03 0.07 14664
0.07 -0.01 0.89 -0.97 9.93 0.06 -0.01 0.07 14670
0.08 0.00 1.58 -1.16 9.91 0.06 0.01 0.07 14676
0.10 -0.00 0.95 -1.01 9.98 0.09 0.05 0.07 14683
0.08 -0.01 0.87 -0.92 10.20 0.11 0.07 0.07 14689
0.09 -0.00 0.98 -0.97 9.94 0.14 0.09 0.07 14695
0.10 0.00 0.95 -1.00 9.98 0.15 0.10 0.06 14702
0.08 -0.01 0.96 -0.96 10.01 0.17 0.12 0.07 14708
0.09 -0.00 1.04 -0.96 9.93 0.18 0.12 0.06 14714
0.10 -0.01 1.03 -1.00 10.06 0.18 0.13 0.06 14721
0.09 -0.01 1.06 -0.99 9.96 0.20 0.14 0.05 14727
0.07 -0.01 1.14 -1.01 9.95 0.21 0.14 0.04 14733
0.07 -0.00 1.06 -1.08 9.99 0.22 0.14 0.04 14739
0.07 -0.01 1.08 -1.06 10.01 0.24 0.16 0.03 14746
0.06 -0.01 1.25 -1.13 10.20 0.27 0.17 0.03 14752
0.07 0.00 1.17 -1.11 10.19 0.29 0.18 0.02 14758
0.07 -0.01 1.12 -1.15 10.13 0.33 0.18 0.01 14765
0.07 -0.00 1.21 -1.19 10.15 0.36 0.18 0.01 14772
0.08 -0.01 1.15 -1.21 10.23 0.40 0.19 -0.00 14778
0.07 -0.01 1.20 -1.25 10.04 0.43 0.18 -0.01 14784
0.07 -0.01 1.20 -1.31 9.87 0.44 0.17 -0.02 14790
0.09 -0.00 1.18 -1.36 9.94 0.43 0.15 -0.03 14796
0.08 -0.01 1.18 -1.39 9.65 0.41 0.12 -0.02 14802
0.07 -0.01 1.22 -1.38 9.64 0.36 0.11 -0.01 14810
0.09 -0.01 1.18 -1.42 9.44 0.30 0.07 -0.00 14816
0.09 -0.01 1.18 -1.45 9.35 0.23 0.04 0.01 14822
0.07 -0.01 1.25 -1.50 9.33 0.14 0.00 0.02 14828
0.08 -0.00 1.23 -1.48 9.35 0.06 -0.02 0.03 14834
0.09 -0.01 1.23 -1.52 9.48 -0.00 -0.04 0.03 14840
0.09 -0.01 1.31 -1.49 9.60 -0.05 -0.05 0.04 14846
0.08 -0.01 1.34 -1.48 9.82 -0.09 -0.06 0.04 14854
0.10 -0.01 1.28 -1.44 9.89 -0.10 -0.07 0.04 14860
0.08 -0.01 1.30 -1.44 10.00 -0.10 -0.07 0.03 14866
0.07 -0.01 1.28 -1.40 10.02 -0.08 -0.06 0.03 14872
0.09 -0.00 1.27 -1.41 10.03 -0.06 -0.06 0.03 14878
0.09 -0.01 1.22 -1.46 10.04 -0.04 -0.05 0.03 14884
0.08 -0.01 1.26 -1.44 9.92 -0.03 -0.04 0.03 14892
0.08 -0.01 1.27 -1.42 9.93 -0.02 -0.02 0.03 14898
0.08 -0.01 1.20 -1.42 9.98 -0.01 -0.01 0.03 14904
0.10 -0.01 1.22 -1.44 9.95 0.00 -0.00 0.04 14910
0.09 -0.01 1.23 -1.44 9.87 0.01 0.00 0.04 14916
0.10 -0.01 1.25 -1.43 9.79 -0.00 0.00 0.04 14922
0.09 -0.01 1.22 -1.43 9.83 -0.02 -0.00 0.05 14928
0.08 -0.01 1.26 -1.49 9.80 -0.03 -0.01 0.06 14935
0.09 -0.00 1.31 -1.46 9.81 -0.05 -0.01 0.05 14942
0.09 -0.01 1.31 -1.40 9.83 -0.06 -0.02 0.05 14948
0.08 -0.01 1.33 -1.39 9.94 -0.07 -0.02 0.05 14954
0.08 -0.01 1.35 -1.42 10.00 -0.06 -0.01 0.05 14960
0.10 -0.01 1.35 -1.37 10.04 -0.04 -0.01 0.04 14966
0.08 -0.01 1.32 -1.38 10.06 -0.02 -0.00 0.03 14972
0.07 -0.01 1.34 -1.35 10.05 0.00 0.01 0.03 14980
0.09 -0.01 1.31 -1.41 10.07 0.03 0.03 0.03 14986
0.08 -0.01 1.33 -1.42 10.09 0.06 0.06 0.02 14992
0.08 -0.01 1.29 -1.43 10.08 0.09 0.08 0.02 14998
0.09 -0.01 1.34 -1.47 10.18 0.12 0.09 0.02 15004
0.07 -0.01 1.32 -1.46 10.15 0.15 0.13 0.02 15011
0.07 -0.01 1.35 -1.44 10.16 0.18 0.15 0.02 15017
0.09 -0.01 1.42 -1.50 10.12 0.20 0.17 0.02 15024
0.06 -0.01 1.49 -1.57 10.05 0.22 0.20 0.01 15030
0.06 -0.01 1.43 -1.50 9.98 0.24 0.21 0.01 15036
0.07 -0.00 1.48 -1.55 10.16 0.26 0.23 -0.00 15042
0.07 -0.01 1.45 -1.57 10.11 0.28 0.24 -0.01 15049
0.06 -0.01 1.57 -1.61 10.25 0.30 0.26 -0.01 15055
0.08 -0.01 1.53 -1.70 10.12 0.32 0.28 -0.02 15062
0.06 -0.01 1.58 -1.66 10.20 0.35 0.29 -0.02 15068
0.05 -0.01 1.61 -1.68 10.19 0.37 0.31 -0.03 15075
0.06 -0.01 1.51 -1.69 10.20 0.39 0.32 -0.03 15081
0.06 -0.01 1.29 -1.92 11.09 0.43 0.32 -0.04 15087
0.08 -0.01 1.79 -1.69 10.28 0.45 0.36 -0.04 15093
0.08 -0.01 1.75 -1.75 10.46 0.47 0.38 -0.05 15099
0.06 -0.01 1.77 -1.87 10.25 0.50 0.40 -0.05 15106
0.07 -0.01 1.69 -1.93 10.20 0.51 0.42 -0.05 15113
0.05 -0.01 1.49 -1.74 9.85 0.54 0.42 -0.05 15119
0.05 -0.01 1.33 -2.10 10.59 0.54 0.47 -0.02 15125
0.07 -0.00 2.01 -1.89 10.48 0.56 0.51 -0.02 15131
0.06 -0.01 1.83 -2.08 10.39 0.58 0.58 -0.03 15137
0.04 -0.00 1.84 -2.04 10.26 0.60 0.59 -0.02 15144
0.04 0.00 1.97 -2.17 10.38 0.62 0.61 -0.02 15151
0.05 -0.00 1.98 -2.23 10.41 0.64 0.64 -0.02 15157
0.06 -0.01 2.19 -2.05 10.35 0.66 0.67 -0.02 15163
0.07 -0.01 2.18 -2.17 10.72 0.67 0.73 -0.03 15169
0.06 -0.01 2.04 -2.51 11.13 0.67 0.79 -0.03 15176
0.05 -0.01 1.99 -2.62 11.22 0.70 0.88 -0.02 15182
0.08 -0.01 2.28 -2.56 11.29 0.71 0.99 -0.02 15188
0.06 -0.01 2.04 -2.62 11.86 0.72 1.12 -0.02 15195
0.06 -0.01 1.77 -3.02 12.38 0.72 1.28 -0.03 15201
0.08 -0.01 2.23 -2.80 12.49 0.68 1.43 -0.04 15208
0.05 -0.01 2.57 -2.70 12.60 0.60 1.64 -0.05 15214
0.06 -0.01 2.39 -2.95 12.45 0.52 1.91 -0.10 15220
0.07 -0.01 2.34 -2.90 11.90 0.44 2.14 -0.19 15226
0.05 -0.01 1.83 -3.51 11.16 0.40 2.31 -0.28 15233
0.05 -0.01 1.48 -4.14 10.71 0.37 2.43 -0.37 15240
0.07 -0.01 0.68 -4.87 10.38 0.40 2.46 -0.45 15246
0.06 -0.01 -1.18 -6.78 9.79 0.49 2.41 -0.61 15252
0.05 0.00 -2.60 -7.26 9.86 0.61 2.28 -0.84 15258
0.05 -0.01 -2.30 -7.56 8.01 0.79 2.02 -0.95 15264
0.04 -0.00 -7.92 -7.81 9.61 0.91 1.53 -1.15 15271
0.05 -0.00 -5.45 -6.89 8.71 1.00 0.89 -1.43 15278
0.06 -0.01 -6.90 -7.79 6.89 1.04 0.21 -1.49 15284
0.04 -0.00 -6.50 -7.98 9.95 1.01 -0.39 -1.54 15290
0.03 -0.00 -3.94 -7.19 9.88 1.01 -0.77 -1.59 15296
0.05 -0.00 -3.68 -7.11 10.24 1.06 -1.03 -1.60 15303
0.03 -0.00 -2.51 -6.41 10.65 1.08 -1.16 -1.67 15309
0.05 0.00 -1.04 -5.62 10.38 1.11 -1.28 -1.59 15315
0.05 -0.00 -1.62 -5.64 10.69 1.09 -1.30 -1.42 15322
0.04 0.00 -0.67 -4.75 11.15 1.08 -1.33 -1.32 15328
0.05 -0.01 -0.48 -4.62 11.78 1.09 -1.36 -1.24 15335
0.04 -0.00 -1.36 -3.96 11.52 1.12 -1.33 -1.15 15341
0.04 -0.00 -2.04 -3.13 10.49 1.12 -1.41 -1.05 15347
0.06 -0.00 -0.08 -3.43 9.87 1.10 -1.40 -1.01 15353
0.06 -0.01 -2.97 -2.90 11.56 1.06 -1.54 -0.95 15361
0.06 0.00 0.27 -2.60 10.81 1.02 -1.66 -0.85 15367
0.05 -0.00 -0.04 -2.44 10.79 1.00 -1.77 -0.83 15373
0.04 -0.00 0.30 -2.25 9.46 0.97 -1.89 -0.79 15379
0.06 0.00 -0.15 -2.31 11.72 0.94 -2.00 -0.75 15385
0.05 -0.00 -0.07 -1.98 9.30 0.92 -2.02 -0.74 15392
0.04 -0.00 -1.66 -1.94 11.20 0.87 -2.10 -0.72 15398
0.06 -0.00 -1.03 -2.02 11.93 0.82 -2.12 -0.71 15405
0.06 -0.01 0.46 -1.98 10.09 0.76 -2.14 -0.68 15411
0.06 -0.00 0.13 -2.10 9.48 0.72 -2.17 -0.73 15418
0.06 -0.00 -1.96 -2.10 9.50 0.67 -2.26 -0.81 15424
0.06 -0.01 -0.59 -2.30 10.42 0.63 -2.33 -0.88 15430
0.06 0.01 -0.46 -2.37 10.26 0.61 -2.37 -0.92 15436
0.07 -0.01 1.25 -2.37 10.00 0.57 -2.38 -0.93 15442
0.06 -0.01 0.60 -2.17 10.45 0.55 -2.42 -1.02 15450
0.07 -0.00 0.11 -2.12 10.59 0.55 -2.43 -1.11 15456
0.06 -0.01 0.86 -2.16 10.73 0.55 -2.44 -1.17 15462
0.06 -0.00 0.96 -2.05 9.49 0.52 -2.39 -1.23 15468
0.07 -0.00 0.97 -1.88 10.07 0.50 -2.31 -1.28 15475
0.06 -0.01 2.78 -1.80 10.46 0.45 -2.27 -1.31 15481
0.06 0.01 2.55 -1.97 10.58 0.40 -2.16 -1.32 15488
0.07 -0.01 1.95 -1.92 10.04 0.36 -2.06 -1.32 15494
0.06 -0.01 2.09 -1.32 9.79 0.32 -1.95 -1.30 15500
0.07 0.00 1.98 -1.81 9.90 0.28 -1.85 -1.31 15507
0.06 -0.00 2.08 -1.62 9.72 0.25 -1.73 -1.29 15513
0.05 -0.01 2.88 -1.98 8.70 0.21 -1.61 -1.29 15519
0.07 -0.01 2.61 -1.94 9.44 0.16 -1.49 -1.26 15525
0.06 -0.00 2.56 -1.75 9.89 0.11 -1.38 -1.23 15532
0.06 -0.01 2.89 -2.01 9.54 0.07 -1.28 -1.19 15539
0.07 -0.00 2.93 -2.16 9.42 0.01 -1.20 -1.13 15545
0.05 -0.01 3.38 -2.01 9.15 -0.06 -1.13 -1.04 15551
0.05 -0.01 3.05 -2.42 9.64 -0.08 -1.06 -0.95 15557
