Voltage_01 Voltage_02 Acc_x Acc_y Acc_z Gyro_x Gyro_y Gyro_z Time
5000
0.34 1.29 0.59 -0.73 9.99 -0.01 -0.04 0.13 17
0.33 1.31 0.57 -0.76 9.97 -0.01 -0.04 0.12 23
0.27 1.29 0.58 -0.73 9.93 -0.01 -0.04 0.13 29
0.28 1.26 0.57 -0.74 9.88 -0.01 -0.04 0.12 35
0.30 1.25 0.58 -0.74 9.93 -0.00 -0.04 0.13 41
0.27 1.34 0.59 -0.77 9.92 -0.00 -0.04 0.12 48
0.26 1.33 0.57 -0.75 9.92 -0.01 -0.04 0.12 54
0.21 1.35 0.57 -0.74 9.92 -0.00 -0.04 0.12 60
0.20 1.36 0.56 -0.73 9.90 -0.01 -0.04 0.12 66
0.21 1.40 0.52 -0.76 9.95 -0.01 -0.04 0.12 72
0.20 1.39 0.51 -0.76 9.92 -0.01 -0.04 0.12 78
0.23 1.41 0.59 -0.75 9.94 -0.01 -0.04 0.12 84
0.19 1.43 0.51 -0.74 9.94 -0.01 -0.03 0.12 91
0.14 1.49 0.55 -0.74 9.92 -0.00 -0.04 0.12 97
0.14 1.51 0.56 -0.77 9.95 -0.00 -0.04 0.12 103
0.15 1.54 0.61 -0.73 9.91 -0.00 -0.04 0.12 110
0.11 1.53 0.56 -0.75 9.92 -0.01 -0.04 0.12 116
0.09 1.54 0.59 -0.73 9.95 -0.00 -0.03 0.11 122
0.08 1.54 0.53 -0.74 9.91 -0.00 -0.03 0.11 129
0.08 1.56 0.56 -0.72 9.97 -0.01 -0.04 0.11 135
0.08 1.55 0.55 -0.75 9.94 -0.01 -0.03 0.11 141
0.05 1.54 0.58 -0.74 9.94 -0.00 -0.03 0.11 147
0.07 1.57 0.57 -0.75 9.96 -0.00 -0.03 0.11 153
0.07 1.60 0.57 -0.77 9.97 -0.00 -0.03 0.11 159
0.07 1.61 0.51 -0.74 9.98 -0.00 -0.03 0.11 165
0.06 1.58 0.55 -0.74 9.90 0.00 -0.03 0.11 172
0.05 1.58 0.58 -0.73 9.91 -0.00 -0.03 0.11 179
0.06 1.61 0.59 -0.76 9.89 -0.00 -0.03 0.11 185
0.05 1.58 0.56 -0.76 9.92 -0.00 -0.03 0.11 191
0.04 1.60 0.59 -0.74 9.91 -0.01 -0.03 0.10 197
0.02 1.60 0.56 -0.74 9.92 -0.00 -0.04 0.11 203
0.06 1.63 0.58 -0.72 9.89 -0.00 -0.04 0.11 209
0.08 1.60 0.58 -0.73 9.91 0.00 -0.04 0.11 216
0.08 1.58 0.58 -0.75 9.97 0.00 -0.04 0.10 222
0.06 1.58 0.58 -0.76 9.95 0.00 -0.04 0.10 228
0.06 1.57 0.58 -0.76 10.00 0.01 -0.04 0.10 234
0.05 1.56 0.57 -0.78 9.92 0.01 -0.04 0.10 240
0.04 1.55 0.55 -0.75 9.99 0.01 -0.04 0.10 246
0.04 1.54 0.56 -0.78 9.94 0.01 -0.04 0.11 253
0.04 1.54 0.59 -0.77 9.96 0.00 -0.04 0.10 260
0.05 1.54 0.60 -0.78 9.95 0.00 -0.04 0.10 266
0.06 1.52 0.60 -0.77 9.96 0.00 -0.04 0.09 272
0.05 1.50 0.60 -0.81 9.97 0.01 -0.04 0.13 278
0.05 1.49 0.58 -0.78 9.94 0.01 -0.04 0.10 284
0.05 1.48 0.59 -0.76 9.92 0.01 -0.05 0.10 290
0.06 1.45 0.57 -0.79 9.94 0.01 -0.04 0.10 296
0.06 1.43 0.57 -0.80 9.95 0.01 -0.04 0.10 303
0.06 1.41 0.60 -0.77 9.96 0.01 -0.05 0.10 309
0.07 1.36 0.56 -0.79 9.91 0.01 -0.05 0.10 315
0.08 1.38 0.57 -0.77 9.96 0.01 -0.05 0.09 321
0.07 1.35 0.58 -0.79 9.94 0.01 -0.05 0.10 327
0.06 1.32 0.58 -0.78 9.94 0.01 -0.05 0.09 334
0.05 1.33 0.55 -0.81 9.93 0.00 -0.05 0.09 340
0.06 1.29 0.57 -0.80 9.92 0.01 -0.05 0.10 347
0.06 1.28 0.57 -0.79 9.98 0.01 -0.05 0.10 353
0.07 1.27 0.57 -0.79 9.97 0.00 -0.05 0.09 359
0.07 1.23 0.52 -0.81 9.96 0.00 -0.05 0.10 365
0.06 1.23 0.56 -0.81 9.96 0.00 -0.04 0.10 371
0.08 1.18 0.57 -0.81 9.93 0.00 -0.04 0.09 377
0.09 1.18 0.59 -0.78 9.98 0.01 -0.04 0.09 384
0.07 1.20 0.58 -0.80 9.97 0.01 -0.04 0.09 390
0.08 1.16 0.57 -0.80 9.98 0.01 -0.04 0.09 396
0.08 1.16 0.59 -0.79 9.96 0.01 -0.04 0.09 402
0.10 1.14 0.56 -0.83 9.98 0.02 -0.04 0.09 408
0.08 1.14 0.57 -0.81 9.97 0.02 -0.04 0.10 415
0.07 1.02 0.58 -0.82 9.93 0.02 -0.04 0.09 421
0.08 1.05 0.56 -0.81 9.94 0.02 -0.04 0.08 428
0.09 1.04 0.58 -0.80 9.93 0.01 -0.04 0.09 434
0.08 0.99 0.56 -0.80 9.98 0.02 -0.04 0.09 440
0.07 0.95 0.55 -0.84 9.95 0.01 -0.04 0.09 446
0.08 0.97 0.58 -0.79 9.95 0.01 -0.04 0.09 452
0.10 0.97 0.61 -0.80 9.96 0.02 -0.04 0.09 458
0.10 0.96 0.58 -0.81 9.92 0.01 -0.04 0.09 464
0.09 0.95 0.60 -0.83 9.96 0.01 -0.04 0.09 471
0.10 0.89 0.59 -0.81 9.94 0.02 -0.04 0.08 477
0.11 0.86 0.60 -0.82 9.95 0.02 -0.04 0.09 483
0.13 0.86 0.57 -0.83 9.96 0.02 -0.04 0.09 489
0.12 0.84 0.58 -0.84 9.95 0.02 -0.04 0.08 496
0.12 0.83 0.59 -0.85 9.94 0.02 -0.04 0.08 502
0.12 0.78 0.58 -0.83 9.92 0.02 -0.04 0.08 508
0.11 0.80 0.61 -0.86 9.93 0.01 -0.04 0.08 515
0.11 0.77 0.61 -0.88 9.96 0.02 -0.04 0.08 521
0.10 0.74 0.59 -0.83 9.92 0.01 -0.04 0.08 527
0.10 0.70 0.56 -0.83 9.94 0.01 -0.04 0.08 533
0.11 0.75 0.57 -0.86 9.99 0.01 -0.04 0.08 539
0.13 0.74 0.61 -0.82 9.98 0.01 -0.04 0.08 545
0.12 0.68 0.57 -0.86 9.99 0.01 -0.04 0.08 551
0.12 0.69 0.59 -0.86 9.92 0.01 -0.04 0.08 558
0.12 0.72 0.57 -0.87 9.90 0.01 -0.04 0.08 564
0.12 0.66 0.59 -0.86 9.95 0.01 -0.04 0.08 571
0.13 0.67 0.56 -0.86 9.95 0.01 -0.04 0.08 577
0.12 0.66 0.59 -0.87 9.96 0.01 -0.04 0.08 583
0.12 0.67 0.61 -0.88 9.93 0.01 -0.04 0.08 589
0.13 0.67 0.59 -0.90 9.98 0.01 -0.04 0.08 595
0.12 0.65 0.62 -0.85 9.96 0.01 -0.04 0.08 602
0.13 0.64 0.63 -0.88 9.96 0.01 -0.04 0.08 608
0.11 0.62 0.57 -0.87 9.98 0.01 -0.04 0.08 614
0.12 0.60 0.59 -0.88 9.91 0.01 -0.05 0.08 620
0.14 0.60 0.61 -0.87 9.95 0.01 -0.04 0.08 626
0.12 0.60 0.59 -0.88 9.95 0.01 -0.04 0.08 632
0.13 0.61 0.57 -0.89 9.91 0.01 -0.04 0.08 638
0.12 0.60 0.62 -0.90 9.97 0.01 -0.04 0.08 646
0.13 0.60 0.01 -0.89 9.92 0.01 -0.05 0.08 652
0.12 0.61 0.62 -0.86 9.94 0.00 -0.05 0.08 658
0.12 0.58 0.55 -0.89 9.92 -0.00 -0.04 0.08 664
0.11 0.58 0.56 -0.89 9.94 -0.01 -0.04 0.08 670
0.12 0.60 0.60 -0.86 9.96 -0.00 -0.04 0.08 676
0.13 0.61 0.57 -0.90 9.92 -0.00 -0.04 0.08 683
0.12 0.59 0.63 -0.86 9.97 -0.01 -0.04 0.08 689
0.12 0.58 0.59 -0.88 9.95 -0.01 -0.04 0.08 695
0.12 0.59 0.57 -0.91 9.96 -0.01 -0.04 0.08 701
0.13 0.59 0.57 -0.90 9.93 -0.01 -0.04 0.08 707
0.13 0.61 0.58 -0.86 9.93 -0.02 -0.04 0.08 713
0.12 0.59 0.59 -0.88 9.91 -0.02 -0.04 0.08 720
0.11 0.61 0.57 -0.89 9.95 -0.02 -0.04 0.08 727
0.13 0.62 0.59 -0.88 9.97 -0.01 -0.04 0.08 733
0.12 0.61 0.57 -0.87 9.91 -0.01 -0.04 0.07 739
0.12 0.61 0.57 -0.88 9.92 -0.02 -0.04 0.08 745
0.13 0.62 0.57 -0.88 9.90 -0.02 -0.04 0.08 751
0.14 0.63 0.56 -0.85 9.92 -0.02 -0.04 0.08 757
0.14 0.61 0.56 -0.85 9.95 -0.02 -0.04 0.07 763
0.14 0.61 0.57 -0.88 9.98 -0.01 -0.05 0.09 770
0.14 0.61 0.59 -0.86 9.95 -0.02 -0.04 0.07 776
0.15 0.61 0.61 -0.86 9.96 -0.01 -0.04 0.08 782
0.15 0.62 0.57 -0.87 9.95 -0.02 -0.04 0.09 789
0.15 0.62 0.57 -0.86 9.89 -0.02 -0.04 0.08 795
0.15 0.59 0.58 -0.88 9.92 -0.02 -0.04 0.09 801
0.16 0.59 0.55 -0.87 9.97 -0.02 -0.04 0.08 807
0.17 0.60 0.56 -0.84 9.94 -0.01 -0.04 0.09 814
0.18 0.61 0.56 -0.85 9.98 -0.01 -0.03 0.08 820
0.18 0.58 0.56 -0.86 10.00 -0.01 -0.03 0.08 826
0.20 0.57 0.56 -0.79 9.96 -0.01 -0.04 0.08 832
0.22 0.58 0.59 -0.85 9.97 -0.01 -0.03 0.08 838
0.25 0.54 0.60 -0.85 9.92 -0.01 -0.03 0.08 844
0.23 0.57 0.57 -0.85 9.93 -0.02 -0.03 0.09 850
0.23 0.55 0.57 -0.87 9.93 -0.02 -0.03 0.08 858
0.26 0.55 0.56 -0.84 9.91 -0.02 -0.04 0.09 864
0.28 0.54 0.54 -0.83 9.93 -0.01 -0.03 0.09 870
0.29 0.53 0.57 -0.82 10.00 -0.02 -0.04 0.09 876
0.29 0.54 0.57 -0.83 9.96 -0.01 -0.03 0.09 882
0.29 0.56 0.56 -0.83 9.96 -0.01 -0.03 0.09 888
0.28 0.54 0.54 -0.84 9.94 -0.01 -0.03 0.09 894
0.29 0.53 0.56 -0.83 9.94 -0.01 -0.03 0.09 901
0.28 0.52 0.55 -0.82 9.92 -0.00 -0.03 0.09 907
0.30 0.54 0.58 -0.84 9.97 -0.01 -0.03 0.09 913
0.33 0.53 0.58 -0.84 9.94 -0.01 -0.03 0.09 919
0.32 0.55 0.56 -0.85 9.93 -0.01 -0.03 0.09 926
0.32 0.52 0.58 -0.83 9.95 -0.01 -0.03 0.09 932
0.32 0.49 0.56 -0.87 9.92 -0.01 -0.03 0.09 939
0.33 0.50 0.60 -0.84 9.92 -0.01 -0.03 0.09 945
0.34 0.49 0.58 -0.84 9.94 -0.01 -0.03 0.09 951
0.34 0.48 0.57 -0.83 9.92 -0.01 -0.03 0.10 957
0.34 0.49 0.55 -0.85 9.93 -0.01 -0.03 0.10 963
0.35 0.51 0.58 -0.80 9.92 -0.01 -0.03 0.09 969
0.36 0.49 0.56 -0.84 9.94 -0.01 -0.07 0.10 975
0.35 0.51 0.53 -0.81 9.90 -0.01 -0.03 0.10 982
0.34 0.51 0.57 -0.85 9.95 -0.01 -0.03 0.10 988
0.36 0.51 0.57 -0.84 9.95 -0.01 -0.04 0.10 995
0.36 0.49 0.57 -0.83 9.94 -0.01 -0.03 0.09 1001
0.35 0.52 0.56 -0.83 9.94 -0.01 -0.03 0.10 1007
0.35 0.53 0.53 -0.83 9.99 -0.01 -0.03 0.10 1013
0.37 0.54 0.55 -0.85 9.97 -0.00 -0.03 0.10 1019
0.36 0.51 0.59 -0.84 9.95 -0.00 -0.03 0.09 1026
0.37 0.49 0.57 -0.81 9.92 -0.00 -0.04 0.10 1032
0.36 0.50 0.57 -0.80 9.95 -0.00 -0.03 0.09 1038
0.37 0.49 0.57 -0.84 9.92 -0.00 -0.03 0.10 1045
0.37 0.47 0.57 -0.86 9.94 -0.00 -0.04 0.10 1051
0.36 0.46 0.61 -0.87 9.89 -0.01 -0.04 0.09 1057
0.37 0.47 0.56 -0.82 9.92 -0.01 -0.04 0.10 1063
0.36 0.46 1.21 -0.84 9.95 -0.01 -0.07 0.10 1070
0.35 0.45 0.56 -0.83 9.91 -0.01 -0.04 0.10 1076
0.36 0.47 0.58 -0.83 9.98 -0.01 -0.04 0.10 1083
0.36 0.45 0.57 -0.81 9.95 -0.01 -0.04 0.09 1089
0.36 0.45 0.56 -0.84 9.97 -0.01 -0.04 0.10 1095
0.35 0.46 0.57 -0.84 9.96 -0.00 -0.03 0.09 1101
0.36 0.46 0.59 -0.81 9.96 -0.00 -0.04 0.10 1107
0.35 0.47 0.58 -0.84 9.94 -0.00 -0.04 0.10 1114
0.34 0.47 0.58 -0.81 9.95 -0.00 -0.04 0.10 1120
0.34 0.47 0.58 -0.82 9.92 -0.00 -0.04 0.10 1127
0.35 0.46 0.60 -0.84 9.90 -0.01 -0.04 0.10 1133
0.34 0.47 0.59 -0.81 9.92 -0.01 -0.04 0.10 1139
0.35 0.48 0.56 -0.84 9.92 -0.01 -0.04 0.10 1145
0.35 0.50 0.58 -0.83 9.92 -0.01 -0.04 0.10 1152
0.34 0.51 0.56 -0.83 9.96 -0.01 -0.04 0.09 1158
0.33 0.54 0.55 -0.84 9.94 -0.01 -0.04 0.10 1164
0.35 0.57 0.55 -0.84 9.94 -0.01 -0.04 0.10 1171
0.33 0.57 0.59 -0.82 9.92 -0.02 -0.04 0.10 1177
0.32 0.60 0.57 -0.81 9.94 -0.02 -0.04 0.10 1183
0.32 0.65 0.57 -0.82 9.92 -0.01 -0.04 0.13 1189
0.32 0.63 0.59 -0.83 9.94 -0.01 -0.04 0.10 1196
0.32 0.67 0.57 -0.82 9.96 -0.01 -0.04 0.10 1202
0.31 0.69 0.58 -0.82 9.94 -0.01 -0.04 0.10 1208
0.33 0.69 0.59 -0.85 9.90 -0.01 -0.04 0.10 1215
0.32 0.69 0.57 -0.86 9.91 -0.02 -0.04 0.10 1221
0.32 0.72 0.56 -0.85 9.92 -0.02 -0.04 0.10 1227
0.32 0.75 0.56 -0.84 9.90 -0.02 -0.05 0.10 1233
0.31 0.77 0.58 -0.81 9.95 -0.03 -0.04 0.10 1240
0.31 0.80 0.57 -0.84 9.94 -0.03 -0.04 0.10 1246
0.31 0.82 0.55 -0.80 9.94 -0.03 -0.04 0.10 1253
0.31 0.82 0.58 -0.81 9.99 -0.03 -0.04 0.11 1259
0.31 0.85 0.57 -0.80 9.95 -0.03 -0.04 0.10 1265
0.30 0.89 0.52 -0.78 9.96 -0.03 -0.04 0.11 1271
0.32 0.90 0.54 -0.83 9.95 -0.03 -0.04 0.11 1277
0.30 0.94 0.55 -0.79 9.94 -0.03 -0.04 0.10 1284
0.29 0.97 0.57 -0.79 9.93 -0.02 -0.04 0.11 1290
0.29 0.98 0.57 -0.82 9.92 -0.03 -0.04 0.11 1297
0.30 0.95 0.57 -0.80 9.95 -0.02 -0.04 0.11 1303
0.29 1.02 0.58 -0.79 9.92 -0.03 -0.04 0.10 1309
0.28 1.00 0.53 -0.77 9.96 -0.02 -0.04 0.10 1315
0.28 1.04 0.55 -0.83 9.94 -0.02 -0.04 0.11 1321
0.27 1.08 0.55 -0.75 9.98 -0.02 -0.04 0.11 1328
0.26 1.05 0.56 -0.79 9.94 -0.02 -0.04 0.11 1334
0.28 1.07 0.54 -0.74 9.96 -0.02 -0.04 0.10 1341
0.27 1.07 0.56 -0.78 9.87 -0.02 -0.04 0.11 1347
0.26 1.07 0.55 -0.75 9.93 -0.02 -0.04 0.11 1353
0.28 1.08 0.58 -0.81 9.90 -0.02 -0.04 0.11 1359
0.28 1.07 0.58 -0.77 9.95 -0.02 -0.04 0.10 1366
0.28 1.05 0.58 -0.77 9.95 -0.02 -0.03 0.11 1372
0.27 1.09 0.56 -0.77 9.96 -0.02 -0.04 0.12 1379
0.30 1.08 0.56 -0.76 9.95 -0.02 -0.04 0.10 1385
0.31 1.12 0.58 -0.75 9.94 -0.02 -0.04 0.11 1391
0.30 1.10 0.55 -0.74 9.91 -0.01 -0.04 0.11 1397
0.32 1.07 0.55 -0.76 9.98 -0.01 -0.05 0.12 1403
0.32 1.09 0.58 -0.76 9.95 -0.01 -0.05 0.11 1410
0.32 1.09 0.56 -0.75 9.94 -0.01 -0.04 0.11 1416
0.34 1.13 0.53 -0.75 9.95 -0.01 -0.04 0.11 1423
0.35 1.13 0.58 -0.77 9.95 -0.01 -0.04 0.11 1429
0.34 1.13 0.55 -0.77 9.92 -0.00 -0.04 0.11 1435
0.35 1.14 0.57 -0.74 9.95 -0.01 -0.04 0.11 1441
0.35 1.14 0.54 -0.78 9.95 -0.01 -0.04 0.11 1447
0.35 1.14 0.55 -0.75 9.91 -0.01 -0.04 0.11 1454
0.36 1.14 0.52 -0.73 9.96 -0.01 -0.04 0.11 1461
0.37 1.13 0.55 -0.77 9.98 -0.00 -0.04 0.11 1467
0.36 1.13 0.57 -0.76 9.95 0.00 -0.04 0.11 1473
0.37 1.13 0.57 -0.75 9.94 -0.00 -0.03 0.10 1479
0.38 1.13 0.56 -0.77 9.96 0.00 -0.03 0.10 1485
0.37 1.12 0.58 -0.77 9.97 0.00 -0.04 0.11 1491
0.36 1.10 0.56 -0.78 9.93 0.00 -0.03 0.11 1498
0.36 1.11 0.54 -0.78 9.96 0.00 -0.04 0.11 1505
0.37 1.09 0.56 -0.77 9.93 0.00 -0.03 0.11 1511
0.36 1.07 0.55 -0.74 9.94 0.01 -0.03 0.10 1517
0.36 1.05 0.56 -0.76 9.92 0.01 -0.03 0.11 1523
0.37 1.04 0.54 -0.72 9.95 0.01 -0.03 0.11 1529
0.36 1.02 0.57 -0.75 9.96 0.01 -0.02 0.11 1536
0.35 1.00 0.56 -0.75 9.97 0.01 -0.03 0.11 1543
0.36 0.97 0.58 -0.80 9.95 0.02 -0.02 0.11 1549
0.36 0.92 0.57 -0.77 9.93 0.02 -0.03 0.11 1555
0.36 0.84 0.55 -0.77 9.99 0.02 -0.03 0.10 1561
0.37 0.82 0.58 -0.77 9.98 0.02 -0.02 0.10 1567
0.37 0.78 0.59 -0.78 9.92 0.02 -0.02 0.11 1573
0.36 0.76 0.59 -0.76 9.97 0.03 -0.02 0.10 1580
0.36 0.69 0.58 -0.78 9.95 0.04 -0.02 0.11 1587
0.38 0.61 0.57 -0.78 9.94 0.04 -0.02 0.11 1593
0.37 0.54 0.56 -0.79 9.99 0.05 -0.02 0.11 1599
0.38 0.48 0.56 -0.79 9.99 0.05 -0.02 0.11 1605
0.39 0.39 0.59 -0.83 10.02 0.06 -0.01 0.11 1611
0.40 0.29 0.62 -0.77 10.04 0.07 -0.02 0.11 1617
0.43 0.22 0.59 -0.84 10.05 0.07 -0.01 0.11 1625
0.44 0.14 0.61 -0.88 10.01 0.08 -0.01 0.12 1631
0.46 0.09 0.02 -0.83 10.07 0.10 -0.01 0.12 1637
0.44 0.07 0.64 -0.86 10.11 0.12 -0.00 0.13 1643
0.46 0.05 0.69 -0.70 10.25 0.14 0.01 0.13 1649
0.46 0.02 0.62 -0.95 10.48 0.15 0.00 0.14 1656
0.46 -0.01 -0.96 -1.16 12.61 0.22 0.03 0.24 1662
0.48 -0.02 0.99 -0.16 12.09 0.43 0.10 0.25 1669
0.49 -0.02 9.64 -2.25 15.91 0.85 0.22 0.47 1675
0.46 -0.02 2.05 -1.55 14.83 1.20 0.45 0.32 1681
0.44 -0.01 -1.32 -1.30 13.06 1.43 0.49 0.26 1688
0.41 -0.02 -1.03 -1.09 11.58 1.55 0.50 0.37 1694
0.39 -0.01 -0.01 -1.77 11.94 1.65 0.42 0.41 1700
0.37 -0.01 -1.09 -1.70 12.12 1.80 0.39 0.47 1707
0.30 -0.01 -1.54 -1.90 12.03 1.91 0.31 0.59 1713
0.26 0.00 -1.49 -1.65 12.30 2.01 0.20 0.72 1720
0.22 0.00 -2.23 -1.69 11.18 2.06 0.13 0.87 1726
0.13 0.00 -2.49 -1.66 11.20 2.06 -0.03 1.05 1732
0.13 0.01 -3.32 -1.16 11.24 2.04 -0.21 1.24 1738
0.10 0.01 -4.11 -0.79 11.28 2.00 -0.36 1.44 1744
0.10 0.00 -4.35 -0.20 11.29 1.91 -0.62 1.65 1752
0.13 0.00 -4.17 0.07 11.16 1.78 -0.92 1.80 1758
0.08 0.00 -3.15 -0.05 11.41 1.62 -1.18 1.99 1764
0.09 0.00 -2.28 -0.30 12.00 1.47 -1.38 2.07 1770
0.08 -0.00 -0.05 -1.35 11.40 1.35 -1.42 2.14 1777
0.07 -0.01 0.63 -2.11 11.72 1.25 -1.32 2.14 1783
0.09 0.01 0.69 -1.76 11.87 1.15 -1.30 2.11 1789
0.08 0.01 -0.00 -1.71 10.74 1.05 -1.35 2.10 1796
0.06 -0.01 0.14 -1.85 10.36 0.96 -1.45 2.09 1802
0.07 -0.00 -0.23 -0.38 10.66 0.89 -1.61 2.02 1808
0.07 -0.00 0.32 0.29 10.43 0.72 -1.76 1.89 1815
0.06 -0.01 1.83 0.95 9.98 0.54 -1.88 1.81 1821
0.05 -0.00 1.78 2.06 9.91 0.35 -1.87 1.67 1827
0.06 0.00 1.09 0.72 8.85 0.19 -1.83 1.39 1833
0.06 -0.00 2.02 0.63 8.00 0.09 -1.82 1.16 1840
0.06 -0.00 2.06 1.02 9.78 -0.04 -1.68 0.92 1846
0.08 0.01 1.96 1.28 9.70 -0.19 -1.47 0.67 1852
0.07 -0.00 1.91 0.83 9.30 -0.25 -1.32 0.43 1859
0.07 -0.01 1.70 0.61 9.21 -0.27 -1.24 0.21 1865
0.07 0.00 1.53 0.72 9.14 -0.28 -1.20 0.03 1871
0.09 0.01 1.54 0.73 9.20 -0.27 -1.19 -0.12 1878
0.07 0.00 1.72 0.78 9.32 -0.26 -1.21 -0.24 1884
0.07 0.00 2.12 0.88 9.48 -0.26 -1.25 -0.33 1890
0.07 0.01 2.62 0.94 9.58 -0.27 -1.27 -0.42 1897
0.07 0.01 3.15 0.96 9.71 -0.29 -1.26 -0.47 1903
0.07 -0.01 3.77 1.07 9.72 -0.31 -1.19 -0.50 1909
0.07 -0.00 4.33 1.06 9.64 -0.34 -1.08 -0.51 1915
0.07 -0.01 4.91 1.04 9.35 -0.36 -0.93 -0.49 1922
0.07 -0.00 5.07 0.99 9.00 -0.37 -0.80 -0.46 1928
0.04 -0.00 5.20 0.90 8.71 -0.39 -0.63 -0.39 1934
0.06 0.01 5.30 0.74 8.51 -0.40 -0.48 -0.33 1940
0.06 0.00 5.24 0.63 8.50 -0.40 -0.36 -0.24 1947
0.05 -0.00 5.07 0.49 8.45 -0.41 -0.29 -0.14 1953
0.06 0.00 4.91 0.38 8.54 -0.44 -0.26 -0.03 1959
0.07 0.01 4.83 0.23 8.77 -0.45 -0.26 0.08 1966
0.04 0.01 4.91 0.12 9.12 -0.48 -0.28 0.19 1972
0.04 -0.00 5.08 -0.02 9.53 -0.53 -0.27 0.30 1978
0.05 0.01 5.29 0.60 9.76 -0.58 -0.23 0.41 1984
0.06 -0.00 5.60 -0.06 10.06 -0.65 -0.15 0.50 1991
0.06 -0.01 5.83 -0.28 10.04 -0.73 -0.02 0.61 1997
0.07 0.00 5.84 -0.53 10.10 -0.82 0.14 0.71 2003
0.07 0.00 5.65 -0.84 10.02 -0.90 0.29 0.80 2010
0.06 -0.01 5.32 -1.23 9.92 -0.95 0.42 0.88 2016
0.06 0.00 4.93 -1.66 9.71 -0.98 0.51 0.94 2022
0.07 0.01 4.66 -2.09 9.54 -0.99 0.56 1.00 2028
0.06 -0.00 4.43 -2.47 9.44 -0.99 0.58 1.05 2035
0.05 -0.00 4.35 -2.87 9.52 -0.97 0.59 1.08 2041
0.07 0.02 4.32 -3.10 9.64 -0.95 0.60 1.09 2048
0.07 -0.00 4.40 -3.27 9.82 -0.92 0.64 1.10 2054
0.07 -0.01 4.45 -3.34 10.15 -0.90 0.70 1.09 2060
0.06 0.00 4.36 -3.31 10.47 -0.90 0.77 1.08 2066
0.06 0.00 4.25 -3.27 10.50 -0.91 0.85 1.05 2073
0.05 -0.01 3.79 -3.15 10.47 -0.93 0.96 1.04 2079
0.05 0.00 3.35 -3.23 10.51 -0.93 1.10 1.07 2085
0.04 0.01 2.71 -3.48 10.52 -0.92 1.23 1.11 2092
0.04 -0.00 2.02 -3.71 10.36 -0.90 1.35 1.15 2098
0.05 0.00 0.73 -3.93 10.48 -0.86 1.47 1.19 2105
0.05 0.00 0.51 -4.38 10.76 -0.81 1.57 1.24 2111
0.05 -0.00 -0.40 -4.76 10.96 -0.75 1.64 1.28 2117
0.05 0.01 -1.32 -5.14 11.10 -0.69 1.61 1.31 2123
0.05 -0.00 -2.02 -5.36 10.90 -0.63 1.48 1.34 2129
0.04 0.00 -2.28 -5.44 10.71 -0.58 1.29 1.37 2137
0.06 0.01 -2.31 -5.57 10.59 -0.54 1.05 1.36 2143
0.05 -0.00 -2.06 -5.76 10.49 -0.51 0.83 1.33 2149
0.04 0.00 -1.65 -5.96 10.39 -0.50 0.65 1.27 2155
0.07 0.00 -1.25 -6.21 10.20 -0.48 0.55 1.17 2161
0.05 -0.01 -1.02 -6.50 10.15 -0.47 0.52 1.06 2168
0.05 0.00 -0.93 -6.74 10.04 -0.46 0.52 0.93 2174
0.06 -0.00 -1.02 -6.98 9.82 -0.44 0.53 0.79 2181
0.05 -0.00 -1.20 -7.23 9.48 -0.42 0.53 0.66 2187
0.04 0.00 -1.28 -7.48 9.20 -0.37 0.48 0.53 2193
0.05 0.01 -1.32 -7.63 8.88 -0.30 0.41 0.43 2199
0.05 0.00 -1.13 -7.61 8.75 -0.22 0.31 0.33 2206
0.05 -0.00 -0.85 -7.63 8.36 -0.13 0.24 0.24 2212
0.04 0.01 -0.54 -7.69 7.77 -0.02 0.16 0.17 2219
0.05 0.00 -0.16 -7.66 7.28 0.11 0.11 0.09 2225
0.04 -0.00 -10.82 -12.97 17.22 0.46 -1.36 0.03 2231
0.03 0.00 -5.71 -5.87 4.76 0.46 -1.95 -0.15 2237
0.05 -0.00 -10.27 -11.55 7.16 0.37 -2.65 -0.41 2244
0.03 -0.00 -8.06 -14.25 14.80 -0.06 -3.00 -0.69 2250
0.04 0.01 -15.52 -13.33 30.67 -0.24 -1.54 -0.73 2256
0.06 -0.00 2.74 -5.06 6.91 0.36 -0.11 -0.74 2263
0.08 -0.00 -2.94 -3.56 9.92 -0.24 0.15 -1.13 2269
0.10 0.01 -6.01 0.97 13.93 -0.25 0.20 -0.60 2276
0.07 -0.01 0.51 -0.85 10.08 0.02 -0.14 -0.26 2282
0.10 -0.01 -0.25 -0.16 9.12 -0.01 -0.10 -0.19 2288
0.12 -0.01 -0.12 -0.34 10.12 -0.12 0.01 -0.06 2294
0.12 -0.01 0.21 -0.64 10.47 -0.14 0.04 0.00 2300
0.13 -0.01 0.27 -1.10 10.15 -0.14 0.02 0.04 2307
0.13 0.00 0.47 -1.14 10.11 -0.18 0.02 0.07 2314
0.15 -0.01 0.76 -1.12 10.25 -0.19 0.02 0.09 2320
0.17 -0.02 0.94 -1.12 10.27 -0.13 0.03 0.09 2326
0.17 -0.01 0.88 -1.08 10.05 -0.08 0.00 0.07 2332
0.18 -0.01 0.70 -1.03 10.01 -0.07 0.01 0.06 2338
0.19 -0.02 0.72 -1.01 10.00 -0.06 0.01 0.05 2344
0.19 -0.00 0.74 -1.03 9.97 -0.06 0.01 0.05 2352
0.21 0.00 0.75 -1.04 9.96 -0.06 0.01 0.05 2358
0.18 0.00 0.74 -1.01 9.94 -0.06 0.00 0.05 2364
0.19 0.00 0.69 -0.92 9.97 -0.06 -0.00 0.05 2370
0.19 0.00 0.68 -0.97 9.99 -0.06 -0.00 0.05 2376
0.21 0.01 0.71 -0.99 9.94 -0.06 -0.00 0.05 2382
0.24 0.01 0.68 -0.93 9.91 -0.06 -0.01 0.05 2388
0.22 0.01 0.68 -0.95 9.98 -0.06 -0.01 0.04 2396
0.23 0.04 0.69 -0.92 9.96 -0.07 -0.01 0.05 2402
0.24 0.03 0.66 -0.94 9.96 -0.06 -0.01 0.05 2408
0.25 0.04 0.67 -0.92 10.00 -0.05 -0.01 0.05 2414
0.27 0.07 0.66 -0.86 9.98 -0.04 -0.02 0.06 2420
0.30 0.07 0.66 -0.92 9.99 -0.03 -0.02 0.06 2426
0.29 0.07 0.63 -0.90 9.99 -0.03 -0.02 0.07 2433
0.29 0.07 0.63 -0.90 9.98 -0.02 -0.02 0.07 2440
0.32 0.06 0.65 -0.89 9.95 -0.02 -0.02 0.07 2446
0.34 0.07 0.68 -0.87 9.98 -0.01 -0.02 0.08 2452
0.32 0.05 0.68 -0.90 9.96 -0.01 -0.02 0.07 2458
0.33 0.06 0.69 -0.86 9.94 -0.01 -0.02 0.07 2464
0.33 0.06 0.71 -0.92 9.94 -0.01 -0.02 0.08 2470
0.32 0.06 0.69 -0.87 9.97 -0.01 -0.02 0.07 2477
0.33 0.04 0.71 -0.92 9.96 -0.01 -0.02 0.07 2483
0.37 0.05 0.68 -0.90 9.96 -0.01 -0.02 0.07 2490
0.39 0.04 0.66 -0.88 9.93 -0.01 -0.03 0.08 2496
0.40 0.03 0.67 -0.91 9.91 -0.01 -0.03 0.07 2502
0.41 0.05 0.65 -0.89 9.95 -0.01 -0.02 0.07 2508
0.42 0.04 0.66 -0.90 9.94 -0.01 -0.03 0.07 2514
0.40 0.03 0.65 -0.89 9.90 -0.01 -0.03 0.08 2521
0.41 0.03 0.68 -0.88 9.91 -0.01 -0.03 0.08 2527
0.40 0.03 0.67 -0.89 9.92 -0.01 -0.03 0.08 2534
0.40 0.03 0.70 -0.88 9.89 -0.01 -0.03 0.08 2540
0.39 0.02 0.68 -0.88 9.96 -0.01 -0.03 0.08 2546
0.39 0.03 0.66 -0.91 9.94 -0.01 -0.03 0.08 2552
0.43 0.03 0.69 -0.86 9.93 -0.02 -0.03 0.08 2558
0.43 0.03 0.67 -0.90 9.94 -0.02 -0.04 0.08 2565
0.42 0.04 0.66 -0.88 9.90 -0.02 -0.04 0.08 2571
0.41 0.04 0.69 -0.89 9.93 -0.02 -0.04 0.08 2578
0.39 0.03 0.63 -0.87 9.91 -0.02 -0.04 0.08 2584
0.39 0.02 0.67 -0.86 9.89 -0.02 -0.05 0.08 2590
0.38 0.04 0.65 -0.91 9.94 -0.02 -0.04 0.08 2596
0.40 0.06 0.67 -0.89 9.91 -0.02 -0.04 0.08 2603
0.39 0.04 0.68 -0.88 9.93 -0.02 -0.04 0.08 2609
0.38 0.02 0.67 -0.88 9.92 -0.02 -0.04 0.08 2615
0.39 0.05 0.66 -0.88 9.94 -0.02 -0.04 0.09 2621
0.41 0.03 0.70 -0.90 9.90 -0.02 -0.04 0.08 2628
0.39 0.02 0.67 -0.88 9.91 -0.02 -0.04 0.08 2634
0.38 0.03 0.71 -0.88 9.90 -0.01 -0.03 0.08 2640
0.39 0.05 0.68 -0.88 9.93 -0.02 -0.04 0.08 2647
0.38 0.06 0.65 -0.88 9.92 -0.02 -0.04 0.08 2653
0.39 0.06 0.69 -0.90 9.92 -0.02 -0.04 0.09 2659
0.39 0.09 0.68 -0.87 9.92 -0.02 -0.04 0.09 2665
0.40 0.08 0.67 -0.88 9.92 -0.02 -0.04 0.08 2672
0.39 0.07 0.70 -0.86 9.92 -0.02 -0.04 0.09 2678
0.38 0.10 0.67 -0.83 9.95 -0.02 -0.04 0.09 2684
0.39 0.09 0.67 -0.81 9.91 -0.02 -0.04 0.09 2691
0.40 0.10 0.66 -0.83 9.99 -0.02 -0.04 0.09 2697
0.39 0.10 0.69 -0.83 9.92 -0.02 -0.04 0.09 2703
0.39 0.14 0.67 -0.87 9.96 -0.03 -0.04 0.09 2709
0.39 0.13 0.69 -0.84 9.94 -0.03 -0.04 0.09 2716
0.38 0.12 0.68 -0.88 9.94 -0.03 -0.04 0.09 2722
0.37 0.15 0.64 -0.83 9.96 -0.03 -0.04 0.09 2728
0.37 0.17 0.64 -0.85 9.96 -0.03 -0.04 0.09 2735
0.35 0.17 0.68 -0.86 9.91 -0.02 -0.04 0.09 2741
0.32 0.20 0.67 -0.83 9.91 -0.02 -0.04 0.09 2747
0.32 0.22 0.68 -0.85 9.93 -0.02 -0.04 0.09 2753
0.32 0.23 0.68 -0.84 9.95 -0.02 -0.04 0.09 2760
0.31 0.22 0.66 -0.86 9.97 -0.02 -0.04 0.09 2766
0.32 0.26 0.67 -0.85 9.96 -0.02 -0.04 0.09 2772
0.33 0.32 0.67 -0.82 9.97 -0.01 -0.04 0.09 2779
0.32 0.30 0.66 -0.83 9.95 -0.02 -0.04 0.09 2785
0.31 0.30 0.63 -0.79 9.92 -0.01 -0.04 0.09 2791
0.33 0.28 0.68 -0.87 9.95 -0.02 -0.03 0.09 2798
0.31 0.28 0.68 -0.85 9.95 -0.02 -0.03 0.09 2804
0.28 0.32 0.68 -0.86 9.98 -0.02 -0.04 0.09 2810
0.29 0.36 0.66 -0.84 9.91 -0.02 -0.04 0.09 2817
0.29 0.35 0.68 -0.87 9.96 -0.02 -0.04 0.09 2823
0.28 0.36 0.66 -0.81 9.96 -0.02 -0.04 0.09 2829
0.26 0.37 0.66 -0.80 9.94 -0.01 -0.04 0.09 2835
0.28 0.38 0.66 -0.83 9.93 -0.01 -0.04 0.10 2842
0.26 0.44 0.68 -0.86 9.94 -0.02 -0.03 0.09 2848
0.24 0.44 0.67 -0.84 9.88 -0.02 -0.03 0.10 2854
0.24 0.48 0.68 -0.84 9.96 -0.02 -0.04 0.09 2861
0.23 0.48 0.67 -0.82 9.95 -0.02 -0.04 0.09 2867
0.22 0.46 0.68 -0.84 9.93 -0.02 -0.04 0.09 2873
0.24 0.46 0.64 -0.84 9.94 -0.02 -0.04 0.09 2879
0.25 0.45 0.68 -0.79 9.93 -0.02 -0.04 0.09 2886
0.24 0.46 0.65 -0.80 9.93 -0.02 -0.03 0.09 2892
0.24 0.47 0.68 -0.82 9.91 -0.01 -0.04 0.10 2898
0.25 0.53 0.67 -0.81 9.93 -0.01 -0.04 0.10 2905
0.22 0.51 0.66 -0.80 10.00 -0.01 -0.04 0.10 2911
0.20 0.52 0.70 -0.82 9.94 -0.01 -0.03 0.09 2917
0.20 0.60 0.69 -0.84 9.96 -0.01 -0.03 0.09 2924
0.20 0.61 0.68 -0.83 9.99 -0.02 -0.03 0.09 2930
0.17 0.59 0.69 -0.83 9.95 -0.01 -0.03 0.09 2936
0.17 0.67 0.69 -0.83 9.98 -0.01 -0.04 0.09 2942
0.18 0.67 0.65 -0.83 9.94 -0.02 -0.03 0.09 2949
0.18 0.66 0.66 -0.86 9.94 -0.01 -0.04 0.09 2955
0.16 0.69 0.70 -0.83 9.95 -0.01 -0.04 0.10 2961
0.16 0.73 0.66 -0.80 9.93 -0.01 -0.04 0.10 2968
0.15 0.77 0.68 -0.84 9.92 -0.01 -0.04 0.10 2974
0.14 0.76 0.66 -0.81 9.95 -0.01 -0.04 0.10 2980
0.14 0.78 0.69 -0.82 9.96 -0.01 -0.04 0.10 2987
0.15 0.78 0.66 -0.82 9.93 -0.01 -0.04 0.09 2993
0.14 0.79 0.65 -0.84 9.91 -0.01 -0.04 0.09 2999
0.13 0.76 0.70 -0.82 9.93 -0.01 -0.03 0.09 3005
0.14 0.77 0.68 -0.81 9.91 -0.01 -0.04 0.10 3012
0.13 0.80 0.68 -0.81 9.94 -0.01 -0.04 0.09 3018
0.14 0.81 0.66 -0.81 9.96 -0.01 -0.04 0.09 3024
0.14 0.84 0.68 -0.79 9.94 -0.01 -0.04 0.09 3031
0.13 0.87 0.67 -0.83 9.97 -0.01 -0.03 0.10 3037
0.13 0.86 0.63 -0.79 9.98 -0.01 -0.03 0.09 3043
0.12 0.84 0.68 -0.81 9.92 -0.01 -0.03 0.09 3049
0.12 0.82 0.67 -0.80 9.94 -0.01 -0.03 0.09 3056
0.12 0.85 0.66 -0.82 9.90 -0.01 -0.03 0.09 3062
0.10 0.88 0.68 -0.82 9.90 -0.01 -0.03 0.09 3068
0.11 0.92 0.69 -0.83 9.93 -0.01 -0.03 0.10 3075
0.08 0.90 0.67 -0.79 9.95 -0.01 -0.04 0.09 3081
0.08 0.92 0.66 -0.82 9.95 -0.01 -0.03 0.09 3087
0.08 0.91 0.65 -0.80 9.97 -0.01 -0.03 0.09 3093
0.10 0.92 0.70 -0.82 9.94 -0.00 -0.03 0.10 3100
0.09 0.97 0.68 -0.80 9.93 -0.01 -0.04 0.10 3106
0.09 0.96 0.68 -0.81 9.97 -0.00 -0.03 0.09 3112
0.09 0.97 0.68 -0.82 9.94 -0.01 -0.03 0.09 3119
0.07 0.93 0.64 -0.84 9.97 -0.01 -0.04 0.09 3125
0.06 0.93 0.69 -0.81 9.95 -0.01 -0.03 0.09 3131
0.08 0.98 0.67 -0.84 9.94 -0.01 -0.03 0.09 3137
0.08 0.99 0.67 -0.84 9.93 -0.01 -0.04 0.10 3144
0.09 0.96 0.67 -0.81 9.93 -0.01 -0.03 0.09 3150
0.07 0.99 0.68 -0.78 9.93 -0.01 -0.04 0.09 3156
0.08 0.98 0.66 -0.82 9.95 -0.01 -0.03 0.10 3163
0.06 0.99 0.69 -0.79 9.97 -0.00 -0.03 0.10 3169
0.05 0.97 0.68 -0.81 9.95 -0.00 -0.03 0.09 3175
0.05 1.05 0.68 -0.80 9.96 -0.00 -0.03 0.10 3181
0.07 0.99 0.66 -0.80 9.95 -0.01 -0.03 0.09 3188
0.07 1.01 0.67 -0.79 9.95 -0.00 -0.03 0.09 3194
0.06 1.04 0.61 -0.82 9.96 -0.01 -0.03 0.09 3201
0.07 1.03 0.64 -0.81 9.91 -0.01 -0.03 0.10 3207
0.06 1.03 0.69 -0.80 9.92 -0.01 -0.03 0.10 3213
0.04 1.02 0.67 -0.81 9.93 -0.01 -0.03 0.09 3219
0.05 1.07 0.68 -0.80 9.93 -0.01 -0.03 0.09 3225
0.05 1.08 0.65 -0.84 9.95 -0.00 -0.03 0.10 3232
0.06 1.00 0.66 -0.77 9.93 -0.01 -0.03 0.09 3238
0.05 1.05 0.66 -0.83 9.92 -0.01 -0.04 0.09 3245
0.08 1.07 0.68 -0.82 9.94 -0.01 -0.03 0.10 3251
0.06 1.07 0.70 -0.78 9.92 -0.01 -0.03 0.09 3257
0.04 1.07 0.68 -0.81 9.96 -0.01 -0.03 0.09 3263
0.06 1.09 0.69 -0.78 9.91 -0.00 -0.03 0.10 3269
0.05 1.08 0.71 -0.82 9.97 -0.01 -0.04 0.09 3275
0.05 1.08 0.71 -0.78 9.93 -0.00 -0.03 0.09 3282
0.03 1.10 0.70 -0.81 9.92 -0.01 -0.03 0.09 3289
0.03 1.12 0.71 -0.83 9.93 -0.01 -0.03 0.09 3295
0.03 1.15 0.68 -0.80 9.95 -0.01 -0.03 0.09 3301
0.03 1.11 0.68 -0.79 9.93 -0.01 -0.03 0.09 3307
0.03 1.13 0.68 -0.81 9.90 -0.01 -0.04 0.09 3313
0.03 1.14 0.69 -0.81 9.93 -0.01 -0.04 0.09 3319
0.03 1.16 0.68 -0.80 9.95 -0.01 -0.04 0.09 3326
0.03 1.15 0.69 -0.80 9.94 -0.01 -0.04 0.09 3333
0.04 1.16 0.67 -0.81 9.95 -0.01 -0.04 0.09 3339
0.04 1.15 0.67 -0.80 9.94 -0.01 -0.04 0.09 3345
0.03 1.15 0.70 -0.79 9.91 -0.01 -0.04 0.09 3351
0.03 1.19 0.72 -0.80 9.95 -0.01 -0.04 0.09 3357
0.02 1.18 0.69 -0.79 9.93 -0.00 -0.04 0.09 3363
0.02 1.16 0.69 -0.80 9.98 -0.01 -0.04 0.09 3371
0.02 1.14 0.70 -0.80 9.94 -0.01 -0.03 0.09 3377
0.04 1.17 0.67 -0.81 9.95 -0.01 -0.04 0.09 3383
0.03 1.17 0.71 -0.81 9.94 -0.01 -0.04 0.08 3389
0.03 1.18 0.69 -0.81 9.95 -0.01 -0.04 0.09 3395
0.05 1.19 0.69 -0.80 9.94 -0.00 -0.04 0.09 3401
0.04 1.20 0.68 -0.82 9.95 -0.01 -0.04 0.09 3407
0.04 1.20 0.66 -0.79 9.96 -0.01 -0.04 0.09 3415
0.04 1.20 0.65 -0.81 9.93 -0.01 -0.04 0.09 3421
0.05 1.21 0.67 -0.81 9.92 -0.00 -0.04 0.09 3427
0.04 1.22 0.65 -0.81 9.92 -0.01 -0.04 0.09 3433
0.03 1.22 0.72 -0.83 9.94 -0.01 -0.04 0.09 3439
0.05 1.21 0.69 -0.83 9.94 -0.01 -0.04 0.09 3445
0.04 1.20 0.71 -0.78 9.95 -0.01 -0.04 0.09 3451
0.03 1.18 0.67 -0.81 9.94 -0.00 -0.04 0.09 3459
0.04 1.20 0.67 -0.80 9.92 -0.00 -0.04 0.09 3465
0.04 1.20 0.68 -0.80 9.96 -0.00 -0.04 0.09 3471
0.02 1.19 0.67 -0.78 9.96 -0.01 -0.04 0.09 3477
0.03 1.20 0.68 -0.82 9.92 -0.00 -0.04 0.09 3483
0.03 1.17 0.68 -0.80 9.96 -0.01 -0.04 0.09 3489
0.03 1.18 0.69 -0.81 9.93 -0.01 -0.04 0.09 3495
0.02 1.19 0.69 -0.79 9.94 -0.01 -0.04 0.09 3503
0.03 1.21 0.68 -0.80 9.92 -0.01 -0.04 0.09 3509
0.04 1.20 0.68 -0.80 9.91 -0.00 -0.04 0.09 3515
0.04 1.19 0.73 -0.82 9.95 -0.01 -0.04 0.08 3521
0.03 1.21 0.67 -0.79 9.93 -0.01 -0.04 0.08 3527
0.04 1.22 0.66 -0.80 9.94 -0.01 -0.04 0.09 3533
0.02 1.22 0.67 -0.82 9.93 -0.00 -0.04 0.09 3539
0.01 1.22 0.67 -0.79 9.93 -0.01 -0.04 0.08 3547
0.01 1.26 0.65 -0.81 9.93 -0.01 -0.04 0.09 3553
0.02 1.25 0.66 -0.79 9.95 -0.01 -0.04 0.08 3559
0.02 1.24 0.71 -0.80 9.96 -0.00 -0.04 0.09 3565
0.02 1.24 0.68 -0.81 9.96 -0.00 -0.04 0.09 3571
0.02 1.26 0.69 -0.81 9.91 -0.01 -0.04 0.09 3577
0.01 1.27 0.67 -0.80 9.94 -0.01 -0.04 0.09 3584
-0.00 1.26 0.68 -0.80 9.95 -0.00 -0.04 0.09 3591
0.01 1.27 0.67 -0.77 9.92 -0.01 -0.04 0.09 3597
0.02 1.26 0.67 -0.80 9.93 -0.01 -0.04 0.09 3603
0.02 1.25 0.67 -0.78 9.91 -0.01 -0.03 0.09 3609
0.02 1.27 0.71 -0.75 9.96 -0.01 -0.04 0.09 3615
0.02 1.27 0.68 -0.80 9.95 -0.01 -0.04 0.09 3621
0.01 1.26 0.67 -0.82 9.92 -0.00 -0.04 0.09 3628
0.02 1.26 0.69 -0.79 9.95 -0.00 -0.04 0.09 3635
0.02 1.27 0.68 -0.82 9.96 -0.01 -0.04 0.09 3641
0.02 1.26 0.65 -0.82 9.93 -0.01 -0.04 0.08 3647
0.01 1.26 0.70 -0.80 9.99 -0.01 -0.04 0.09 3653
0.01 1.26 0.69 -0.82 9.94 -0.01 -0.04 0.08 3659
0.02 1.25 0.67 -0.80 9.95 -0.01 -0.04 0.09 3665
0.03 1.24 0.70 -0.80 9.95 -0.00 -0.04 0.10 3672
0.02 1.25 0.66 -0.78 9.93 -0.01 -0.04 0.09 3679
0.03 1.25 0.67 -0.81 9.94 -0.00 -0.04 0.09 3685
0.02 1.24 0.66 -0.77 9.92 -0.01 -0.04 0.08 3691
0.01 1.24 0.68 -0.81 9.92 -0.00 -0.04 0.09 3697
0.02 1.23 0.68 -0.80 9.95 -0.00 -0.04 0.09 3703
0.02 1.22 0.67 -0.79 9.97 -0.01 -0.04 0.09 3709
0.02 1.21 0.68 -0.80 9.90 -0.00 -0.04 0.09 3716
0.02 1.22 0.65 -0.78 9.92 -0.01 -0.04 0.09 3723
0.04 1.22 0.66 -0.80 9.95 -0.01 -0.05 0.09 3729
0.03 1.21 0.67 -0.80 9.97 -0.00 -0.04 0.09 3735
0.03 1.19 0.68 -0.80 9.94 -0.01 -0.04 0.09 3741
0.04 1.19 0.69 -0.79 9.98 -0.01 -0.04 0.09 3747
0.04 1.17 0.71 -0.82 9.95 -0.00 -0.04 0.09 3753
0.03 1.17 0.68 -0.80 9.95 -0.00 -0.05 0.09 3760
0.03 1.16 0.68 -0.81 9.94 -0.00 -0.05 0.08 3767
0.05 1.16 0.67 -0.81 9.93 -0.01 -0.04 0.08 3773
0.04 1.15 0.65 -0.84 9.98 -0.00 -0.04 0.09 3779
0.03 1.13 0.66 -0.83 9.90 -0.01 -0.04 0.09 3785
0.04 1.13 0.67 -0.79 9.93 -0.01 -0.04 0.09 3791
0.04 1.11 0.71 -0.79 9.99 -0.01 -0.04 0.09 3798
0.03 1.10 0.67 -0.81 9.95 -0.01 -0.04 0.08 3804
0.04 1.10 0.68 -0.82 9.95 -0.00 -0.04 0.09 3811
0.07 1.10 0.65 -0.81 9.92 -0.01 -0.04 0.09 3817
0.05 1.09 0.68 -0.80 9.97 -0.01 -0.04 0.09 3823
0.05 1.08 0.68 -0.80 9.96 -0.01 -0.04 0.09 3829
0.06 1.07 0.67 -0.80 9.91 -0.01 -0.04 0.09 3835
0.06 1.06 0.68 -0.80 9.96 -0.01 -0.04 0.08 3842
0.04 1.05 0.69 -0.77 9.98 -0.00 -0.04 0.09 3848
0.05 1.04 0.70 -0.81 9.94 -0.01 -0.04 0.09 3855
0.06 1.04 0.68 -0.79 9.95 -0.01 -0.04 0.09 3861
0.06 1.00 0.68 -0.79 9.92 -0.00 -0.04 0.10 3867
0.05 1.01 0.66 -0.80 9.92 0.00 -0.04 0.09 3873
0.07 1.02 0.66 -0.85 9.95 0.03 -0.04 0.09 3879
0.08 0.97 0.69 -0.82 9.93 -0.00 -0.03 0.09 3886
0.07 0.96 0.66 -0.80 10.00 -0.00 -0.03 0.09 3892
0.09 0.93 0.63 -0.81 9.95 -0.01 -0.04 0.08 3899
0.12 0.93 0.71 -0.78 10.01 -0.00 -0.04 0.09 3905
0.13 0.86 0.68 -0.80 9.98 -0.00 -0.04 0.09 3911
0.13 0.89 0.67 -0.79 9.94 -0.01 -0.04 0.09 3917
0.15 0.90 0.68 -0.79 9.93 -0.00 -0.04 0.10 3923
0.14 0.88 0.68 -0.80 9.98 -0.00 -0.04 0.09 3930
0.13 0.88 0.68 -0.83 9.93 -0.00 -0.04 0.09 3936
0.15 0.87 0.65 -0.81 9.96 -0.00 -0.04 0.09 3943
0.16 0.88 0.65 -0.80 9.97 -0.01 -0.04 0.09 3949
0.17 0.84 0.62 -0.80 9.91 -0.00 -0.04 0.09 3955
0.17 0.85 0.68 -0.81 9.96 -0.00 -0.04 0.09 3961
0.19 0.86 0.69 -0.81 9.95 -0.00 -0.03 0.09 3968
0.16 0.86 0.68 -0.79 9.98 -0.00 -0.04 0.09 3974
0.15 0.85 0.65 -0.79 9.96 -0.00 -0.04 0.09 3980
0.15 0.87 0.66 -0.82 9.97 -0.00 -0.04 0.09 3987
0.16 0.86 0.65 -0.79 9.97 -0.01 -0.04 0.09 3993
0.15 0.84 0.68 -0.82 9.93 -0.01 -0.04 0.09 3999
0.15 0.85 0.68 -0.81 9.92 -0.01 -0.04 0.09 4005
0.15 0.87 0.68 -0.81 9.96 -0.00 -0.04 0.09 4012
0.14 0.87 0.68 -0.81 9.93 -0.00 -0.04 0.09 4018
0.13 0.88 0.67 -0.79 9.94 -0.01 -0.04 0.09 4025
0.14 0.89 0.67 -0.79 9.93 -0.01 -0.04 0.09 4031
0.12 0.89 0.66 -0.80 9.91 -0.01 -0.04 0.09 4037
0.11 0.89 0.66 -0.81 9.95 -0.00 -0.04 0.09 4043
0.12 0.90 0.66 -0.80 9.94 -0.00 -0.04 0.09 4049
0.12 0.90 0.69 -0.81 9.95 -0.01 -0.04 0.09 4056
0.12 0.89 0.72 -0.80 9.96 -0.01 -0.04 0.09 4062
0.11 0.91 0.67 -0.84 9.96 -0.01 -0.04 0.09 4069
0.13 0.92 0.69 -0.80 9.96 -0.01 -0.04 0.10 4075
0.11 0.93 0.65 -0.82 9.93 -0.00 -0.04 0.09 4081
0.11 0.93 0.68 -0.82 9.96 -0.01 -0.04 0.09 4087
0.12 0.95 0.67 -0.81 9.95 -0.01 -0.04 0.09 4093
0.11 0.94 0.69 -0.81 9.96 -0.01 -0.04 0.09 4100
0.11 0.93 0.64 -0.81 9.94 -0.00 -0.03 0.09 4106
0.12 0.96 0.67 -0.85 9.92 -0.00 -0.04 0.09 4113
0.12 0.98 0.68 -0.80 9.96 -0.00 -0.03 0.09 4119
0.11 0.98 0.69 -0.79 9.96 -0.01 -0.04 0.09 4125
0.10 1.00 0.66 -0.83 9.96 -0.01 -0.04 0.09 4131
0.12 0.99 0.68 -0.79 9.97 -0.01 -0.04 0.09 4137
0.12 0.99 0.68 -0.80 9.94 -0.00 -0.04 0.09 4144
0.10 0.99 0.65 -0.83 9.93 -0.00 -0.04 0.09 4150
0.11 1.00 0.64 -0.78 9.98 -0.01 -0.04 0.09 4157
0.12 0.98 0.66 -0.79 9.96 -0.00 -0.04 0.09 4163
0.09 1.00 0.66 -0.79 9.95 -0.01 -0.04 0.10 4169
0.09 1.00 0.68 -0.81 9.97 -0.01 -0.04 0.09 4175
0.10 1.02 0.69 -0.81 9.95 -0.01 -0.03 0.09 4182
0.10 1.02 0.67 -0.79 9.94 -0.00 -0.04 0.09 4188
0.10 1.02 0.69 -0.78 9.91 -0.01 -0.04 0.09 4194
0.10 1.03 0.67 -0.80 9.92 -0.01 -0.04 0.09 4201
0.10 1.03 0.69 -0.83 9.98 -0.01 -0.04 0.09 4207
0.09 1.07 0.71 -0.80 9.96 -0.01 -0.04 0.10 4213
0.09 1.08 0.67 -0.79 9.95 -0.01 -0.04 0.09 4219
0.09 1.09 0.67 -0.80 9.95 -0.01 -0.04 0.10 4226
0.09 1.10 0.67 -0.83 9.97 -0.01 -0.04 0.09 4232
0.08 1.10 0.68 -0.78 9.94 -0.00 -0.04 0.09 4238
0.09 1.09 0.68 -0.80 9.93 -0.01 -0.04 0.09 4244
0.09 1.11 0.69 -0.81 9.94 -0.01 -0.04 0.10 4251
0.08 1.11 0.66 -0.80 9.93 -0.01 -0.04 0.10 4257
0.07 1.16 0.66 -0.82 9.93 -0.01 -0.04 0.09 4263
0.09 1.18 0.65 -0.77 9.97 -0.01 -0.04 0.09 4270
0.07 1.15 0.66 -0.81 9.94 -0.01 -0.04 0.09 4276
0.07 1.17 0.68 -0.83 9.93 -0.01 -0.04 0.10 4282
0.06 1.19 0.64 -0.76 9.96 -0.01 -0.04 0.09 4289
0.06 1.20 0.66 -0.82 9.94 -0.01 -0.04 0.10 4295
0.06 1.21 0.67 -0.79 9.93 -0.01 -0.04 0.09 4301
0.06 1.21 0.70 -0.77 9.92 -0.01 -0.04 0.10 4307
0.07 1.20 0.68 -0.80 9.93 -0.01 -0.04 0.09 4314
0.06 1.25 0.68 -0.78 9.94 -0.01 -0.04 0.09 4320
0.05 1.25 0.66 -0.78 9.97 -0.00 -0.04 0.13 4326
0.06 1.25 0.64 -0.80 9.93 -0.00 -0.04 0.09 4333
0.06 1.26 0.67 -0.80 9.94 -0.01 -0.04 0.09 4339
0.06 1.21 0.68 -0.81 9.92 -0.00 -0.04 0.10 4345
0.06 1.21 0.67 -0.81 9.92 -0.01 -0.04 0.09 4352
0.07 1.22 0.64 -0.79 9.95 -0.01 -0.04 0.10 4358
0.06 1.19 0.65 -0.81 9.99 -0.01 -0.04 0.09 4364
0.06 1.22 0.71 -0.82 9.97 -0.01 -0.04 0.10 4370
0.07 1.22 0.67 -0.81 9.95 -0.01 -0.04 0.09 4377
0.06 1.22 0.66 -0.78 9.92 -0.00 -0.04 0.09 4383
0.05 1.24 0.66 -0.79 9.93 -0.01 -0.03 0.09 4389
0.06 1.24 0.66 -0.78 9.94 -0.00 -0.04 0.10 4396
0.07 1.25 0.64 -0.77 9.95 -0.00 -0.03 0.09 4402
0.06 1.24 0.64 -0.80 9.91 -0.01 -0.03 0.10 4408
0.06 1.22 0.68 -0.82 9.94 -0.01 -0.03 0.09 4414
0.07 1.23 0.67 -0.79 9.92 -0.01 -0.03 0.09 4421
0.06 1.24 0.69 -0.80 9.92 -0.01 -0.03 0.10 4427
0.05 1.25 0.68 -0.76 9.89 -0.01 -0.03 0.10 4433
0.06 1.29 0.67 -0.79 9.93 -0.00 -0.03 0.09 4440
0.07 1.27 0.69 -0.75 9.90 -0.01 -0.03 0.09 4446
0.06 1.29 0.67 -0.79 9.92 -0.01 -0.03 0.10 4452
0.05 1.27 0.63 -0.74 9.93 -0.01 -0.03 0.10 4458
0.07 1.30 0.70 -0.81 9.95 -0.01 -0.04 0.10 4465
0.05 1.31 0.67 -0.81 9.94 -0.01 -0.03 0.10 4471
0.05 1.32 0.68 -0.79 9.92 -0.01 -0.04 0.10 4477
0.06 1.31 0.65 -0.77 9.93 -0.01 -0.03 0.10 4484
0.06 1.35 0.65 -0.79 9.96 -0.01 -0.04 0.10 4490
0.07 1.30 0.63 -0.79 9.92 -0.01 -0.04 0.10 4496
0.06 1.30 0.68 -0.77 9.94 -0.02 -0.04 0.11 4502
0.08 1.33 0.65 -0.77 9.93 -0.01 -0.04 0.10 4509
0.06 1.36 0.64 -0.77 9.93 -0.02 -0.04 0.10 4515
0.06 1.36 0.64 -0.79 9.98 -0.01 -0.04 0.10 4521
0.07 1.34 0.69 -0.78 9.92 -0.01 -0.03 0.11 4528
0.06 1.36 0.65 -0.75 9.96 -0.01 -0.04 0.11 4534
0.04 1.42 0.68 -0.78 9.94 -0.01 -0.03 0.11 4540
0.05 1.42 0.68 -0.80 9.92 -0.01 -0.04 0.10 4547
0.06 1.36 0.68 -0.80 9.93 -0.01 -0.04 0.10 4553
0.06 1.41 0.68 -0.81 9.93 -0.02 -0.04 0.10 4559
0.04 1.44 0.66 -0.76 9.97 -0.02 -0.04 0.11 4566
0.08 1.40 0.69 -0.76 9.95 -0.02 -0.04 0.10 4572
0.05 1.44 0.67 -0.78 9.94 -0.01 -0.04 0.11 4578
0.04 1.46 0.65 -0.76 9.98 -0.02 -0.03 0.10 4584
0.06 1.44 0.69 -0.76 9.96 -0.01 -0.04 0.11 4591
0.06 1.42 0.67 -0.76 9.98 -0.01 -0.03 0.10 4597
0.05 1.45 0.64 -0.78 9.95 -0.01 -0.03 0.10 4603
0.07 1.48 0.67 -0.77 9.95 -0.00 -0.04 0.11 4610
0.07 1.47 0.68 -0.77 9.95 -0.00 -0.03 0.10 4616
0.07 1.45 0.67 -0.78 9.94 -0.01 -0.04 0.10 4622
0.07 1.45 0.68 -0.74 9.94 -0.01 -0.04 0.10 4628
0.08 1.44 0.69 -0.76 9.92 -0.00 -0.04 0.10 4635
0.07 1.44 0.69 -0.78 9.93 -0.00 -0.04 0.10 4641
0.07 1.43 0.66 -0.75 9.89 -0.00 -0.04 0.07 4647
0.08 1.44 0.67 -0.78 9.93 -0.00 -0.03 0.10 4654
0.08 1.44 0.68 -0.77 9.96 -0.00 -0.04 0.10 4660
0.09 1.43 0.68 -0.75 9.96 -0.00 -0.03 0.10 4666
0.09 1.45 0.68 -0.79 9.93 -0.00 -0.04 0.10 4672
0.09 1.44 0.68 -0.78 9.92 -0.00 -0.04 0.10 4679
0.09 1.44 0.64 -0.74 9.96 -0.01 -0.03 0.10 4685
0.08 1.45 0.67 -0.75 9.95 -0.00 -0.04 0.10 4691
0.09 1.45 0.63 -0.80 9.94 -0.01 -0.03 0.10 4698
0.09 1.43 0.68 -0.78 9.94 -0.00 -0.03 0.10 4704
0.09 1.44 0.64 -0.78 9.94 -0.01 -0.04 0.10 4710
0.09 1.44 0.70 -0.79 9.98 -0.00 -0.04 0.10 4716
0.09 1.44 0.66 -0.74 9.92 -0.00 -0.03 0.10 4723
0.09 1.43 0.69 -0.76 9.94 -0.00 -0.04 0.10 4729
0.08 1.44 0.69 -0.76 9.92 -0.00 -0.03 0.09 4736
0.10 1.45 0.70 -0.74 9.92 -0.00 -0.04 0.10 4742
0.10 1.45 0.69 -0.80 9.95 -0.01 -0.04 0.10 4748
0.08 1.45 0.68 -0.79 9.91 -0.00 -0.04 0.07 4754
0.09 1.46 0.67 -0.76 9.96 -0.01 -0.04 0.11 4760
0.10 1.45 0.69 -0.78 9.93 -0.01 -0.04 0.10 4767
0.09 1.43 0.66 -0.77 9.92 -0.01 -0.04 0.10 4773
0.08 1.44 0.67 -0.77 10.00 -0.01 -0.04 0.10 4780
0.10 1.43 0.66 -0.78 9.92 -0.00 -0.04 0.10 4786
0.10 1.43 0.67 -0.76 9.92 -0.01 -0.04 0.10 4792
0.08 1.43 0.69 -0.75 9.89 -0.00 -0.04 0.10 4798
0.10 1.43 0.70 -0.77 9.93 -0.01 -0.04 0.10 4805
0.10 1.42 0.67 -0.75 9.89 -0.01 -0.04 0.13 4811
0.09 1.41 0.66 -0.77 9.95 -0.01 -0.05 0.10 4817
0.09 1.43 0.67 -0.75 9.94 -0.01 -0.04 0.10 4824
0.09 1.43 0.68 -0.77 9.93 -0.01 -0.05 0.10 4830
0.09 1.42 0.65 -0.76 9.94 -0.01 -0.04 0.09 4836
0.09 1.43 0.66 -0.75 9.95 -0.01 -0.05 0.10 4842
0.10 1.44 0.68 -0.79 9.92 -0.01 -0.04 0.10 4849
0.10 1.43 0.66 -0.77 9.94 -0.01 -0.04 0.10 4855
0.09 1.44 0.69 -0.75 9.91 -0.01 -0.04 0.10 4861
0.09 1.44 0.68 -0.75 9.98 -0.01 -0.04 0.10 4868
0.09 1.42 0.68 -0.80 9.94 -0.01 -0.04 0.09 4874
0.09 1.42 0.68 -0.75 9.96 -0.01 -0.05 0.10 4880
0.09 1.42 0.69 -0.75 9.96 -0.01 -0.04 0.10 4886
0.10 1.41 0.64 -0.74 9.97 -0.01 -0.04 0.09 4893
0.09 1.39 0.70 -0.77 9.94 -0.00 -0.04 0.10 4899
0.10 1.39 0.66 -0.77 9.98 -0.01 -0.05 0.09 4905
0.11 1.41 0.67 -0.76 9.93 -0.01 -0.05 0.09 4912
0.10 1.39 0.66 -0.80 9.99 -0.01 -0.05 0.09 4918
0.09 1.37 0.69 -0.76 9.95 -0.01 -0.05 0.09 4924
0.08 1.38 0.68 -0.78 9.93 -0.01 -0.04 0.09 4931
0.08 1.37 0.66 -0.77 9.96 -0.01 -0.05 0.09 4937
0.09 1.36 0.68 -0.77 9.95 -0.01 -0.05 0.09 4943
0.09 1.34 0.67 -0.75 9.96 -0.01 -0.06 0.09 4950
0.12 1.31 0.64 -0.74 9.98 -0.01 -0.05 0.09 4956
0.12 1.30 0.63 -0.77 9.96 -0.00 -0.05 0.09 4962
0.12 1.27 0.66 -0.76 9.99 -0.00 -0.04 0.09 4968
0.13 1.28 0.67 -0.75 9.98 0.00 -0.04 0.09 4975
0.15 1.25 0.66 -0.74 9.94 0.00 -0.05 0.10 4981
0.15 1.21 0.67 -0.77 9.92 -0.00 -0.04 0.08 4987
0.16 1.15 0.66 -0.75 9.98 -0.00 -0.03 0.09 4994
0.18 1.15 0.66 -0.76 9.92 0.00 -0.03 0.08 5000
0.20 1.12 0.68 -0.77 9.92 0.00 -0.03 0.08 5006
0.20 1.10 0.68 -0.74 9.90 0.00 -0.03 0.09 5012
0.23 1.04 0.68 -0.77 9.96 0.00 -0.03 0.08 5019
0.23 0.98 0.67 -0.75 9.93 0.00 -0.03 0.08 5025
0.24 0.98 0.67 -0.76 9.93 0.01 -0.03 0.09 5031
0.28 0.93 0.65 -0.74 9.93 0.01 -0.03 0.08 5038
0.30 0.86 0.70 -0.74 9.97 0.02 -0.03 0.08 5044
0.32 0.75 0.68 -0.78 9.91 0.02 -0.02 0.08 5050
0.32 0.69 0.72 -0.75 9.99 0.03 -0.03 0.08 5056
0.37 0.63 0.69 -0.70 10.01 0.04 -0.03 0.08 5063
0.44 0.53 0.68 -0.79 9.99 0.04 -0.03 0.08 5069
0.48 0.39 0.69 -0.72 10.02 0.06 -0.03 0.08 5075
0.56 0.34 0.69 -0.81 10.06 0.06 -0.02 0.08 5082
0.62 0.22 0.69 -0.91 9.98 0.07 -0.02 0.09 5088
0.64 0.18 0.71 -0.83 10.06 0.08 -0.02 0.09 5094
0.71 0.08 0.80 -0.67 9.98 0.08 -0.02 0.08 5101
0.76 0.06 0.74 -0.80 10.03 0.10 -0.02 0.09 5107
0.80 -0.00 0.74 -0.86 10.08 0.12 -0.01 0.08 5113
0.83 0.03 0.62 -0.62 10.09 0.16 0.00 0.08 5120
0.94 -0.03 0.79 -0.73 10.16 0.14 0.01 0.09 5126
0.95 -0.03 0.76 -0.98 10.18 0.17 0.02 0.09 5133
0.99 -0.03 0.82 -1.25 10.02 0.20 0.02 0.08 5139
1.08 -0.04 0.90 -0.92 9.95 0.21 -0.00 0.07 5145
1.13 -0.04 0.33 -1.72 10.97 0.30 0.02 -0.02 5151
1.17 -0.04 0.53 -0.75 11.36 0.61 0.11 0.01 5157
1.23 -0.05 2.29 -1.74 10.44 1.22 0.32 -0.04 5164
1.24 -0.06 1.49 -0.81 13.20 1.49 0.28 -0.07 5171
1.31 -0.01 1.20 -1.61 12.31 1.50 0.14 -0.13 5177
1.36 -0.02 0.98 -1.73 11.60 1.54 0.05 -0.15 5183
1.40 -0.06 1.19 -1.47 11.46 1.60 -0.05 -0.17 5189
1.41 -0.05 0.91 -1.67 12.06 1.68 -0.14 -0.17 5196
1.41 -0.06 0.91 -1.71 11.68 1.77 -0.22 -0.16 5202
1.43 -0.04 0.96 -1.85 11.74 1.86 -0.28 -0.15 5209
1.42 -0.06 1.43 -0.09 10.29 1.98 -0.33 -0.18 5215
1.41 -0.04 0.88 -2.03 11.62 2.08 -0.37 -0.17 5222
1.39 -0.05 0.86 -2.25 11.52 2.16 -0.41 -0.17 5228
1.37 -0.06 0.83 -2.38 11.60 2.25 -0.45 -0.17 5234
1.36 -0.06 0.72 -2.50 11.59 2.32 -0.47 -0.16 5240
1.33 -0.04 0.68 -2.52 11.57 2.41 -0.48 -0.16 5246
1.29 -0.04 0.71 -2.71 11.53 2.45 -0.45 -0.15 5254
1.26 -0.03 1.08 -3.13 11.79 2.52 -0.45 -0.15 5260
1.19 -0.04 1.16 -3.34 12.59 2.63 -0.44 -0.17 5266
1.16 -0.04 1.12 -3.51 12.92 2.77 -0.45 -0.20 5272
1.03 -0.03 1.07 -3.82 13.04 2.92 -0.48 -0.23 5279
0.87 -0.04 1.38 -4.27 13.31 3.08 -0.52 -0.27 5285
0.76 -0.02 1.15 -4.48 13.44 3.23 -0.54 -0.31 5292
0.64 -0.03 1.10 -5.19 14.49 3.39 -0.55 -0.33 5298
0.60 -0.03 0.96 -5.22 14.77 3.52 -0.54 -0.34 5305
0.54 -0.02 1.20 -6.06 15.35 3.62 -0.53 -0.33 5311
0.52 -0.03 1.16 -7.27 15.55 3.70 -0.51 -0.32 5317
0.49 -0.02 1.42 -7.51 15.95 3.75 -0.42 -0.31 5323
0.44 -0.02 1.60 -7.27 15.74 3.82 -0.25 -0.31 5330
0.40 -0.03 1.40 -6.47 14.81 3.90 -0.12 -0.32 5337
0.35 -0.01 1.37 -6.55 14.26 3.95 -0.00 -0.36 5343
0.31 -0.01 1.16 -6.03 13.82 4.02 0.11 -0.37 5349
0.30 -0.01 -0.05 -6.02 14.77 4.04 0.21 -0.40 5355
0.30 -0.01 0.07 -5.37 14.59 4.03 0.18 -0.42 5362
0.23 -0.01 1.03 -6.00 13.48 4.02 0.12 -0.41 5368
0.19 -0.00 1.21 -5.81 15.47 3.91 0.17 -0.41 5374
0.19 -0.00 2.28 -8.22 14.51 3.71 0.24 -0.44 5381
0.14 -0.01 1.78 -6.89 13.62 3.63 0.26 -0.48 5387
0.12 0.00 2.74 -5.36 12.60 3.52 0.36 -0.50 5394
0.11 0.00 2.81 -5.41 12.60 3.45 0.48 -0.52 5400
0.08 -0.01 2.80 -3.10 12.64 3.45 0.69 -0.57 5406
0.09 0.01 2.91 -0.99 9.91 3.31 1.02 -0.62 5412
0.07 0.01 3.08 -1.03 7.34 2.96 1.25 -0.70 5419
0.08 -0.01 2.84 0.23 5.27 2.56 1.47 -0.77 5425
0.08 0.01 2.50 2.90 3.29 2.12 1.71 -0.88 5432
0.08 -0.00 1.60 13.77 3.67 1.74 1.98 -1.10 5438
0.08 0.00 -1.16 11.59 1.18 1.20 2.31 -1.50 5444
0.06 0.00 -0.92 4.35 13.40 0.65 2.14 -1.72 5450
0.06 0.01 -0.93 4.26 17.74 -0.36 1.95 -1.77 5456
0.07 0.00 -2.09 6.60 14.29 -1.16 1.58 -1.77 5464
0.08 0.00 -2.57 7.04 10.51 -1.58 1.14 -1.74 5470
0.06 0.00 -2.12 6.17 8.37 -1.94 0.70 -1.67 5476
0.06 -0.01 -1.62 4.99 7.00 -2.18 0.32 -1.58 5482
0.05 0.01 -1.07 3.88 6.47 -2.35 0.05 -1.51 5488
0.07 0.01 -0.45 2.52 6.23 -2.38 -0.08 -1.46 5494
0.05 -0.00 0.03 2.50 6.06 -2.36 -0.15 -1.43 5501
0.05 0.00 0.35 2.22 5.77 -2.31 -0.13 -1.39 5508
0.06 0.01 0.60 2.22 5.42 -2.27 -0.05 -1.34 5514
0.06 0.00 0.83 2.40 5.37 -2.24 0.08 -1.28 5520
0.06 -0.01 0.90 2.64 5.56 -2.25 0.19 -1.20 5526
0.06 -0.00 0.98 2.85 6.47 -2.29 0.29 -1.11 5532
0.06 -0.01 1.05 3.03 7.53 -2.37 0.39 -1.00 5538
0.06 -0.01 1.04 3.20 8.46 -2.49 0.42 -0.87 5545
0.06 -0.01 0.98 3.35 9.76 -2.64 0.46 -0.74 5552
0.07 0.00 1.06 3.13 9.54 -2.83 0.48 -0.59 5558
0.08 -0.00 1.08 2.79 9.93 -3.01 0.48 -0.44 5564
0.06 -0.01 1.20 2.32 9.95 -3.19 0.47 -0.32 5570
0.05 -0.01 1.40 1.70 9.99 -3.33 0.47 -0.21 5576
0.05 -0.01 1.58 1.00 10.09 -3.46 0.53 -0.12 5582
0.05 -0.01 1.69 0.43 10.35 -3.52 0.57 -0.04 5588
0.04 -0.00 1.68 0.01 10.54 -3.55 0.69 0.01 5596
0.06 -0.00 1.54 -0.48 10.84 -3.55 0.83 0.07 5602
0.05 -0.01 1.39 -1.00 11.36 -3.53 0.97 0.12 5608
0.05 -0.01 1.25 -1.60 12.12 -3.50 1.10 0.15 5614
0.06 -0.00 0.94 -2.22 12.97 -3.46 1.20 0.18 5620
0.06 -0.00 0.85 -2.84 13.63 -3.42 1.29 0.20 5627
0.07 -0.01 0.70 -3.43 14.12 -3.40 1.33 0.22 5634
0.07 -0.00 1.13 -3.91 10.82 -3.30 1.33 0.23 5640
0.08 -0.01 1.12 -4.83 14.20 -3.42 1.42 0.24 5646
0.08 -0.01 1.07 -4.43 15.68 -3.47 1.39 0.23 5652
0.07 -0.01 0.47 -4.55 15.11 -3.39 1.31 0.25 5658
0.08 -0.01 -0.09 -6.10 14.67 -3.27 1.18 0.33 5665
0.07 -0.01 -0.11 -6.09 14.60 -3.12 1.02 0.39 5671
0.07 -0.01 0.56 -5.48 15.48 -3.03 0.90 0.48 5678
0.07 -0.01 0.65 -5.24 15.70 -2.99 0.81 0.53 5684
0.06 -0.01 0.71 -5.45 15.68 -2.93 0.77 0.57 5690
0.05 -0.01 0.93 -5.52 15.78 -2.87 0.74 0.61 5696
0.06 -0.00 1.04 -5.43 15.54 -2.77 0.70 0.63 5703
0.06 -0.01 1.08 -5.29 15.29 -2.74 0.67 0.64 5709
0.05 0.00 1.29 -5.46 15.17 -2.68 0.67 0.63 5715
0.06 -0.01 1.48 -5.50 14.99 -2.60 0.67 0.62 5722
0.06 -0.01 1.55 -5.59 14.80 -2.52 0.68 0.57 5728
0.05 -0.00 1.48 -5.68 14.59 -2.43 0.71 0.59 5734
0.06 -0.00 1.32 -5.80 14.35 -2.31 0.73 0.58 5741
0.06 -0.01 1.09 -5.86 14.10 -2.18 0.71 0.59 5747
0.06 -0.01 0.76 -5.88 13.97 -2.03 0.66 0.61 5753
0.07 -0.00 0.51 -5.93 13.86 -1.87 0.57 0.64 5760
0.07 -0.01 0.29 -5.99 13.77 -1.72 0.46 0.68 5766
0.06 -0.01 0.16 -5.93 13.80 -1.60 0.34 0.73 5772
0.07 -0.01 -12.62 -15.30 9.24 -1.55 0.20 0.94 5779
0.08 -0.01 -1.53 -4.11 9.31 -0.63 0.07 1.05 5785
0.07 -0.01 -1.42 -5.20 7.58 -0.83 -0.09 1.03 5791
0.06 0.00 -0.92 -6.58 11.28 -0.76 -0.29 1.06 5797
0.09 0.00 -0.04 -7.55 14.66 -0.81 -0.35 1.16 5804
0.08 0.00 -0.20 -5.32 11.74 -0.86 -0.35 1.20 5810
0.08 0.00 -1.06 -7.36 11.70 -0.97 -0.22 1.21 5817
0.10 0.00 -1.15 -5.98 11.75 -1.05 -0.00 1.21 5823
0.08 -0.01 -1.22 -6.54 12.16 -1.05 0.35 1.20 5829
0.08 0.00 -1.93 -6.84 13.38 -1.07 0.73 1.17 5835
0.09 0.00 -2.92 -7.19 12.80 -1.11 1.02 1.06 5841
0.08 -0.00 -3.86 -7.51 12.04 -1.22 1.11 0.89 5849
0.08 0.01 -4.36 -7.80 11.49 -1.31 1.05 0.66 5855
0.08 0.01 -4.66 -8.08 10.93 -1.45 0.93 0.39 5861
0.06 0.01 -4.80 -8.52 10.26 -1.56 0.82 0.07 5867
0.08 0.02 -4.81 -9.09 9.58 -1.63 0.71 -0.26 5873
0.08 0.02 -4.62 -9.60 8.72 -1.64 0.68 -0.60 5880
0.07 -0.00 -4.38 -10.03 7.89 -1.59 0.65 -0.97 5886
0.08 0.02 -4.00 -10.55 7.21 -1.49 0.63 -1.27 5893
0.07 0.01 -3.54 -11.00 6.50 -1.35 0.61 -1.55 5899
0.07 0.01 -3.27 -11.42 5.53 -1.21 0.59 -1.83 5906
0.09 0.02 -2.94 -11.94 5.89 -1.06 0.56 -2.04 5912
0.07 0.01 -2.64 -12.47 5.77 -0.90 0.52 -2.21 5918
0.07 0.01 -2.20 -12.97 5.75 -0.74 0.45 -2.32 5924
0.08 0.02 -1.73 -13.48 5.76 -0.58 0.36 -2.39 5931
0.08 0.00 -1.18 -13.87 5.74 -0.43 0.27 -2.40 5938
0.08 0.02 -9.11 -18.69 41.59 0.56 -0.58 -2.19 5944
0.08 0.01 -5.53 -15.54 8.79 0.68 -1.08 -1.96 5950
0.07 -0.01 -4.19 -14.23 2.89 1.03 -1.83 -1.74 5956
0.09 -0.00 -2.10 -16.36 5.33 1.31 -2.41 -1.42 5963
0.08 -0.01 1.47 -11.87 8.21 1.69 -2.54 -1.04 5969
0.07 0.03 7.05 -0.07 7.60 1.94 -1.76 -0.70 5976
0.07 0.08 6.69 0.92 8.59 1.90 -0.98 -0.32 5982
0.07 0.17 6.97 2.48 12.22 1.94 -0.36 0.13 5988
0.04 0.36 5.44 3.50 11.21 1.88 0.19 0.53 5994
0.05 0.54 2.49 0.07 10.92 1.94 0.22 0.66 6001
0.04 0.76 -1.28 -2.10 12.91 2.19 -0.16 0.51 6007
0.02 0.94 -4.25 -1.85 14.05 2.43 -0.95 0.27 6013
0.01 1.05 -2.14 -2.36 14.66 2.53 -1.32 0.00 6020
0.01 1.04 -0.67 -2.47 16.60 2.49 -1.29 -0.16 6027
0.01 1.10 -0.89 -1.94 15.79 2.30 -0.99 -0.23 6033
0.01 1.11 0.32 -2.88 18.31 2.16 -0.78 -0.30 6039
-0.01 1.15 1.21 -3.95 16.75 0.49 -1.37 -0.25 6045
0.01 1.18 1.41 -1.63 9.56 0.14 -0.31 0.02 6051
-0.00 1.23 0.70 -1.80 11.08 0.06 -0.13 0.04 6059
0.00 1.26 0.67 -1.02 10.13 0.06 -0.12 0.09 6065
0.01 1.27 0.65 -0.70 10.14 0.09 -0.13 0.09 6071
-0.00 1.28 0.45 -0.88 10.24 0.05 -0.06 0.09 6077
-0.02 1.32 0.57 -0.80 10.02 0.03 -0.05 0.08 6083
0.02 1.31 0.64 -0.80 9.96 0.01 -0.05 0.08 6090
0.01 1.33 0.69 -0.79 9.99 0.01 -0.05 0.09 6096
0.01 1.33 0.63 -0.81 9.98 0.01 -0.04 0.10 6103
0.03 1.40 0.57 -0.80 10.05 -0.00 -0.03 0.11 6109
0.02 1.34 0.57 -0.81 10.03 -0.01 -0.03 0.10 6115
0.00 1.50 0.62 -0.74 9.95 -0.02 -0.02 0.09 6121
0.03 1.54 0.63 -0.73 9.96 -0.02 -0.02 0.10 6127
0.02 1.53 0.61 -0.77 9.94 -0.03 -0.02 0.10 6134
0.01 1.57 0.65 -0.74 9.99 -0.03 -0.03 0.10 6140
-0.00 1.58 1.71 -1.71 10.08 -0.03 -0.03 0.12 6147
0.04 1.62 0.04 -0.71 10.01 -0.03 -0.04 0.10 6153
0.01 1.63 0.63 -0.73 9.92 -0.03 -0.04 0.10 6159
0.02 1.67 0.62 -0.72 10.00 -0.03 -0.05 0.13 6166
0.03 1.69 0.60 -0.74 10.00 -0.03 -0.04 0.10 6172
-0.00 1.70 0.62 -0.71 10.00 -0.02 -0.04 0.10 6178
0.00 1.72 0.55 -0.69 9.96 -0.02 -0.04 0.10 6184
0.02 1.74 0.62 -0.68 9.95 -0.02 -0.04 0.11 6191
0.00 1.74 0.60 -0.68 9.96 -0.01 -0.04 0.11 6197
0.00 1.74 0.62 -0.68 9.99 -0.01 -0.03 0.10 6203
0.00 1.76 0.63 -0.67 9.95 -0.01 -0.03 0.11 6210
0.00 1.72 0.64 -0.67 9.91 -0.01 -0.03 0.11 6216
-0.00 1.71 0.65 -0.70 9.90 -0.00 -0.03 0.11 6222
0.00 1.73 0.66 -0.69 9.92 -0.01 -0.04 0.10 6228
0.01 1.71 0.67 -0.74 9.93 -0.01 -0.04 0.10 6235
-0.00 1.70 0.64 -0.70 9.93 -0.00 -0.04 0.10 6241
-0.00 1.69 0.65 -0.70 9.92 -0.01 -0.05 0.11 6247
0.02 1.68 0.62 -0.70 9.91 -0.01 -0.05 0.10 6254
0.02 1.67 0.65 -0.66 9.92 -0.00 -0.05 0.10 6260
0.01 1.64 0.63 -0.66 9.94 -0.00 -0.05 0.10 6266
0.02 1.65 0.62 -0.65 9.93 0.00 -0.05 0.10 6273
0.03 1.62 0.61 -0.68 9.87 0.00 -0.05 0.10 6279
0.02 1.62 0.63 -0.69 9.94 0.00 -0.05 0.10 6285
0.02 1.60 0.56 -0.70 9.91 0.00 -0.05 0.10 6291
0.04 1.59 0.61 -0.68 9.95 0.00 -0.04 0.09 6298
0.06 1.57 0.61 -0.68 9.96 0.00 -0.04 0.09 6304
0.05 1.53 0.62 -0.70 9.89 0.00 -0.04 0.09 6310
0.05 1.51 0.58 -0.69 9.94 0.01 -0.04 0.10 6317
0.08 1.50 0.61 -0.66 9.95 0.01 -0.04 0.10 6323
0.06 1.46 0.61 -0.70 9.95 0.00 -0.04 0.10 6329
0.06 1.43 0.63 -0.71 9.92 0.00 -0.04 0.10 6335
0.08 1.37 0.66 -0.72 9.91 0.00 -0.04 0.09 6341
0.08 1.33 0.63 -0.67 9.92 0.00 -0.04 0.10 6348
0.11 1.27 0.63 -0.71 9.97 0.00 -0.03 0.10 6354
0.12 1.22 0.58 -0.69 9.93 0.01 -0.04 0.09 6361
0.14 1.19 0.02 -0.68 9.90 0.00 -0.04 0.09 6367
0.18 1.12 0.65 -0.71 9.94 0.00 -0.04 0.09 6373
0.19 1.07 0.64 -0.71 10.01 0.01 -0.04 0.09 6379
0.24 1.04 0.62 -0.72 9.96 0.01 -0.04 0.10 6386
0.26 0.98 0.62 -0.71 9.97 0.01 -0.03 0.09 6392
0.27 0.93 0.63 -0.73 9.95 0.01 -0.03 0.09 6398
0.30 0.86 0.61 -0.74 9.99 0.01 -0.03 0.09 6405
0.28 0.81 0.63 -0.70 9.96 0.02 -0.03 0.09 6411
0.31 0.72 0.61 -0.70 9.99 0.02 -0.02 0.09 6417
0.26 0.71 0.66 -0.74 9.92 0.02 -0.02 0.10 6423
0.31 0.69 0.61 -0.74 9.95 0.02 -0.02 0.09 6430
0.34 0.61 0.59 -0.72 9.97 0.02 -0.02 0.10 6436
0.37 0.58 0.65 -0.72 9.94 0.02 -0.02 0.09 6443
0.38 0.51 0.64 -0.71 9.95 0.02 -0.02 0.09 6449
0.41 0.50 0.65 -0.76 9.96 0.03 -0.02 0.10 6455
0.44 0.47 0.63 -0.74 9.94 0.02 -0.01 0.09 6461
0.46 0.43 0.64 -0.74 9.98 0.02 -0.01 0.09 6467
0.50 0.41 0.64 -0.80 9.92 0.02 -0.01 0.10 6474
0.49 0.36 0.65 -0.76 9.98 0.02 -0.01 0.10 6480
0.49 0.31 0.66 -0.77 9.98 0.02 -0.01 0.09 6487
0.51 0.27 0.68 -0.77 10.00 0.02 -0.01 0.09 6493
0.48 0.28 0.66 -0.78 9.93 0.02 -0.00 0.09 6499
0.50 0.16 0.66 -0.76 10.00 0.03 -0.00 0.09 6505
0.51 0.20 0.67 -0.76 9.94 0.02 -0.00 0.09 6511
0.55 0.13 0.67 -0.78 9.95 0.02 -0.00 0.09 6518
0.55 0.12 0.69 -0.76 9.92 0.03 0.00 0.09 6524
0.57 0.10 0.67 -0.74 10.01 0.03 0.00 0.09 6531
0.60 0.14 0.67 -0.76 10.00 0.03 0.00 0.08 6537
0.63 0.07 0.71 -0.82 9.98 0.03 -0.01 0.08 6543
0.61 0.06 0.67 -0.80 9.97 0.04 -0.01 0.09 6549
0.66 0.04 0.75 -0.80 9.96 0.05 -0.01 0.08 6555
0.68 0.04 0.68 -0.63 9.98 0.06 -0.01 0.08 6562
0.69 0.01 0.74 -0.90 9.94 0.06 -0.00 0.08 6568
0.75 0.01 0.73 -0.88 9.97 0.07 0.01 0.07 6575
0.79 -0.02 0.75 -0.80 10.05 0.08 0.01 0.06 6581
0.80 -0.02 0.89 -0.88 9.97 0.09 0.02 0.05 6587
0.85 -0.04 0.78 -0.77 10.01 0.10 0.03 0.03 6593
0.86 -0.01 0.69 -0.88 10.12 0.12 0.03 0.04 6600
0.92 -0.03 0.73 -1.02 10.66 0.14 0.05 0.02 6606
0.93 -0.03 0.51 -1.01 10.36 0.21 0.11 0.02 6612
0.99 -0.03 -0.10 -1.01 11.01 0.40 0.20 0.02 6619
1.05 -0.03 0.64 -0.99 11.05 0.73 0.34 -0.00 6625
1.08 -0.03 0.77 -1.17 10.26 0.99 0.48 -0.02 6632
1.13 -0.02 0.88 -1.34 11.47 1.20 0.57 -0.04 6638
1.18 -0.03 1.22 -1.32 11.86 1.32 0.46 -0.07 6644
1.19 -0.05 1.38 -2.18 12.40 1.40 0.33 -0.12 6650
1.23 -0.05 2.01 -2.03 12.70 1.48 0.24 -0.11 6657
1.22 -0.05 1.14 -1.61 11.30 1.58 0.16 -0.14 6664
1.24 -0.05 1.79 -1.84 11.91 1.67 0.07 -0.15 6670
1.26 -0.06 1.45 -1.85 11.86 1.77 0.01 -0.17 6676
1.29 -0.07 1.30 -1.92 11.98 1.88 0.00 -0.20 6682
1.25 -0.04 1.25 -1.89 11.76 2.02 -0.02 -0.22 6689
1.25 -0.05 1.05 -2.10 12.09 2.15 -0.07 -0.22 6695
1.24 -0.04 0.94 -2.05 12.51 2.30 -0.10 -0.21 6702
1.23 -0.05 1.20 -2.36 12.18 2.46 -0.11 -0.21 6708
1.22 -0.06 1.31 -2.44 11.79 2.64 -0.11 -0.21 6714
1.18 -0.04 1.20 -2.61 11.69 2.83 -0.10 -0.23 6721
1.14 -0.05 1.13 -2.73 12.70 3.02 -0.10 -0.24 6727
1.06 -0.04 0.83 -3.01 12.65 3.21 -0.03 -0.23 6733
1.00 -0.03 0.76 -3.23 12.81 3.43 0.03 -0.21 6739
0.83 -0.03 0.87 -3.49 13.41 3.65 0.14 -0.18 6747
0.72 -0.02 0.96 -3.91 14.03 3.89 0.19 -0.16 6753
0.65 -0.02 1.32 -4.18 14.43 4.10 0.26 -0.15 6759
0.59 -0.02 1.43 -4.68 15.31 4.22 0.22 -0.14 6765
0.53 0.00 1.87 -5.83 16.22 4.28 0.17 -0.14 6771
0.49 -0.00 2.11 -6.77 17.18 4.28 0.15 -0.15 6778
0.46 -0.00 2.82 -8.00 18.99 4.28 0.17 -0.14 6785
0.42 0.01 2.99 -8.80 19.46 4.28 0.29 -0.14 6791
0.37 0.01 2.82 -9.37 20.43 4.28 0.40 -0.15 6797
0.31 0.01 2.64 -9.30 19.70 4.28 0.52 -0.16 6804
0.31 0.01 2.60 -8.34 18.06 4.28 0.61 -0.18 6810
0.25 0.00 1.51 -7.86 17.53 4.28 0.65 -0.18 6816
0.22 0.01 2.72 -8.00 16.51 4.28 0.69 -0.18 6822
0.21 0.01 1.09 -6.75 18.33 4.28 0.70 -0.22 6829
0.19 0.02 2.49 -8.20 20.44 4.28 0.68 -0.28 6836
0.16 0.03 1.48 -7.82 18.64 4.28 0.57 -0.36 6842
0.15 0.00 2.55 -5.58 17.86 4.28 0.50 -0.41 6848
0.15 0.00 3.21 -3.43 17.87 4.27 0.45 -0.43 6854
0.15 0.01 3.23 -1.96 18.63 4.26 0.56 -0.45 6861
0.10 0.00 3.42 1.47 16.80 4.20 0.81 -0.46 6867
0.09 0.01 4.13 4.08 13.07 3.85 1.09 -0.50 6874
0.09 0.01 5.12 4.87 9.75 3.19 1.31 -0.63 6880
0.08 -0.01 3.71 15.89 4.34 2.35 1.29 -0.85 6886
0.09 -0.00 -1.34 18.57 -4.60 1.53 1.42 -1.50 6892
0.08 0.00 -0.63 9.12 10.02 0.83 0.88 -1.87 6899
0.08 -0.00 0.57 6.18 19.75 -0.08 0.78 -1.98 6905
0.07 -0.00 0.11 7.39 17.41 -1.19 0.86 -2.07 6912
0.09 -0.00 -0.62 7.94 12.40 -1.74 0.75 -2.20 6918
0.07 -0.01 -0.61 7.45 9.82 -2.03 0.51 -2.28 6924
0.06 -0.00 -0.29 6.27 8.35 -2.37 0.24 -2.28 6931
0.07 0.00 0.26 5.96 6.82 -2.65 0.09 -2.26 6937
0.07 -0.01 0.91 4.97 7.07 -2.81 0.03 -2.24 6943
0.06 0.01 1.32 4.16 7.12 -2.90 0.02 -2.19 6949
0.08 0.02 1.45 3.72 7.22 -2.94 0.03 -2.12 6956
0.08 0.01 1.48 3.49 7.01 -2.96 0.04 -2.02 6962
0.07 -0.00 1.54 3.40 6.88 -2.98 0.06 -1.91 6968
0.08 0.01 1.62 3.43 6.78 -3.01 0.08 -1.78 6975
0.08 0.00 1.59 3.56 6.79 -3.06 0.08 -1.63 6981
0.07 -0.00 1.64 3.69 7.25 -3.14 0.04 -1.51 6987
0.06 0.00 1.82 3.58 8.52 -3.24 -0.00 -1.36 6993
0.06 0.01 2.11 3.40 8.63 -3.35 -0.01 -1.20 7000
0.08 0.00 2.44 3.20 9.23 -3.49 0.03 -1.03 7006
0.06 0.00 2.66 3.01 9.68 -3.64 0.10 -0.85 7012
0.07 0.02 2.82 2.80 10.02 -3.80 0.19 -0.68 7019
0.06 0.01 2.91 2.53 10.36 -3.92 0.29 -0.52 7025
0.06 0.01 2.78 2.01 10.61 -4.05 0.40 -0.37 7031
0.07 0.01 2.73 1.32 10.92 -4.13 0.48 -0.25 7037
0.06 -0.01 2.68 0.53 11.24 -4.17 0.59 -0.15 7044
0.04 0.01 2.57 -0.03 11.62 -4.19 0.69 -0.07 7051
0.05 0.01 2.37 -1.21 12.14 -4.20 0.80 -0.00 7057
0.05 -0.00 2.12 -1.24 12.44 -4.20 0.90 -0.00 7063
0.04 -0.00 1.99 -1.81 13.00 -4.19 0.99 0.01 7069
0.05 0.00 1.78 -2.54 13.59 -4.17 1.06 0.01 7075
0.07 -0.01 1.65 -3.34 14.47 -4.15 1.14 -0.01 7081
0.08 -0.01 1.55 -4.12 15.17 -4.12 1.22 -0.03 7089
0.08 0.01 1.46 -4.96 15.68 -4.10 1.30 -0.05 7095
0.08 0.00 1.25 -5.60 15.86 -4.05 1.36 -0.06 7101
0.06 -0.00 0.96 -6.16 16.02 -3.99 1.39 -0.06 7107
0.07 0.01 0.81 -6.73 16.08 -3.87 1.40 -0.02 7113
0.06 -0.00 0.67 -7.28 16.20 -3.74 1.40 0.05 7120
0.04 -0.00 0.56 -7.62 16.47 -3.57 1.40 0.15 7127
0.06 0.00 0.51 -7.93 16.74 -3.40 1.38 0.26 7133
0.06 0.00 0.39 -7.96 16.90 -3.24 1.37 0.37 7139
0.05 -0.00 0.32 -7.73 17.00 -3.08 1.34 0.53 7145
0.06 0.01 0.26 -7.39 17.21 -2.96 1.27 0.70 7152
0.06 -0.01 0.21 -7.21 17.50 -2.87 1.17 0.86 7158
0.06 0.00 0.21 -7.15 17.58 -2.80 1.05 1.02 7164
0.06 0.02 0.32 -7.07 17.71 -2.75 0.89 1.16 7171
0.06 -0.00 0.51 -7.27 17.76 -2.67 0.75 1.27 7177
0.05 -0.00 0.79 -7.53 17.71 -2.68 0.62 1.37 7184
0.06 -0.00 1.07 -7.88 17.64 -2.64 0.51 1.45 7190
0.06 -0.01 1.29 -8.46 17.63 -2.61 0.44 1.51 7196
0.05 -0.00 1.46 -9.33 17.62 -2.57 0.41 1.55 7202
0.06 0.00 1.77 -10.00 17.52 -2.51 0.43 1.58 7208
0.05 -0.00 1.98 -11.05 17.18 -2.45 0.46 1.60 7216
0.05 0.00 -4.16 -15.11 51.02 -2.23 0.53 1.71 7222
0.06 -0.01 -0.07 -11.46 13.25 -2.05 0.58 1.76 7228
0.05 -0.01 0.91 -13.63 12.93 -2.15 0.56 1.72 7234
0.05 0.01 3.05 -17.15 15.96 -2.23 0.53 1.75 7241
0.05 -0.00 3.80 -17.13 14.38 -2.33 0.61 1.77 7247
0.05 0.00 3.70 -17.29 13.29 -2.44 0.83 1.72 7254
0.06 -0.00 3.42 -18.33 11.52 -2.50 1.19 1.70 7260
0.06 -0.01 1.93 -18.94 8.89 -2.45 1.79 1.81 7267
0.05 0.02 -0.72 -19.99 9.66 -2.23 2.62 2.05 7273
0.04 0.01 -2.71 -23.50 5.90 -1.90 3.26 2.29 7279
0.04 0.01 -5.38 -27.27 6.41 -1.31 3.29 2.41 7285
0.04 0.01 -8.46 -28.20 5.77 -0.73 2.66 2.36 7291
0.04 0.02 -9.33 -28.96 2.14 -0.15 1.76 2.16 7299
0.04 0.02 -8.64 -29.11 0.52 0.46 0.88 1.87 7305
0.06 0.02 -7.84 -29.34 0.84 1.08 0.18 1.52 7311
0.04 0.02 -7.27 -27.66 0.69 1.71 -0.33 1.15 7317
0.05 0.01 -6.56 -24.59 1.20 2.26 -0.80 0.79 7323
0.05 0.03 -5.66 -16.07 2.80 2.61 -1.37 0.51 7330
0.03 0.11 -1.69 3.65 5.26 2.89 -1.71 0.30 7336
0.03 0.23 -0.57 1.06 9.72 2.86 -1.79 0.22 7343
0.03 0.41 1.95 4.08 14.63 2.99 -1.45 0.36 7349
0.02 0.62 2.93 0.59 13.86 2.89 -0.96 0.50 7355
0.02 0.90 -0.71 -2.03 17.43 3.18 -0.72 0.44 7362
0.01 1.14 -4.16 -3.66 17.19 3.34 -0.87 0.27 7368
-0.02 1.38 -4.59 -3.30 17.08 3.41 -1.16 -0.00 7374
0.01 1.44 -2.12 -3.88 18.12 3.47 -0.93 -0.25 7380
-0.02 1.43 -1.74 -2.59 18.85 3.24 -0.67 -0.44 7388
0.00 1.47 0.67 -3.44 24.39 2.95 -0.58 -0.65 7394
0.00 1.50 6.51 -1.03 19.86 1.23 -1.88 -0.51 7400
0.00 1.53 3.13 -3.71 11.46 0.50 -1.01 -0.03 7406
0.00 1.53 1.11 -2.51 11.10 0.25 -0.58 0.08 7413
0.00 1.55 0.47 -1.05 10.73 0.18 -0.39 0.13 7419
-0.00 1.55 0.45 -0.49 10.10 0.16 -0.32 0.08 7426
0.00 1.54 0.56 -0.74 10.21 0.14 -0.28 0.06 7432
-0.01 1.56 0.74 -0.97 10.11 0.09 -0.18 0.08 7438
0.00 1.57 0.67 -0.87 10.08 0.06 -0.12 0.10 7445
0.02 1.56 0.58 -0.82 10.07 0.05 -0.09 0.11 7451
0.00 1.55 0.65 -0.81 10.03 0.03 -0.07 0.11 7457
-0.00 1.53 0.68 -0.75 9.96 0.02 -0.06 0.11 7463
0.01 1.51 0.68 -0.74 9.89 0.01 -0.05 0.10 7470
0.00 1.50 0.69 -0.72 9.87 0.01 -0.06 0.11 7476
0.00 1.50 0.76 -0.68 9.88 0.01 -0.06 0.11 7483
-0.00 1.51 0.74 -0.70 9.91 0.01 -0.06 0.11 7489
0.03 1.53 0.73 -0.72 9.92 0.01 -0.07 0.10 7495
0.00 1.55 0.65 -0.80 9.82 0.01 -0.07 0.09 7501
0.00 1.54 0.71 -0.75 9.92 0.00 -0.07 0.10 7507
0.03 1.55 0.67 -0.74 9.97 -0.00 -0.08 0.10 7514
0.01 1.55 0.62 -0.75 9.95 -0.00 -0.07 0.10 7520
0.01 1.55 0.63 -0.74 9.97 -0.00 -0.06 0.11 7526
0.03 1.54 0.62 -0.69 10.01 -0.00 -0.06 0.10 7533
0.03 1.52 0.63 -0.70 9.97 -0.00 -0.06 0.12 7539
0.01 1.49 0.68 -0.71 9.94 0.00 -0.05 0.11 7545
0.03 1.48 0.69 -0.70 9.91 0.00 -0.06 0.11 7552
0.05 1.49 0.71 -0.69 9.96 0.00 -0.06 0.12 7558
0.06 1.46 0.70 -0.70 9.89 0.00 -0.07 0.11 7564
0.04 1.42 0.71 -0.71 9.96 0.00 -0.07 0.10 7571
0.06 1.41 0.67 -0.67 9.99 0.00 -0.08 0.11 7577
0.06 1.38 0.68 -0.71 9.93 0.01 -0.07 0.09 7583
0.07 1.30 0.69 -0.72 9.93 -0.00 -0.08 0.09 7589
0.07 1.24 0.67 -0.73 9.93 0.01 -0.08 0.09 7596
0.09 1.20 0.65 -0.64 9.93 0.01 -0.07 0.09 7602
0.08 1.17 0.67 -0.74 10.13 0.01 -0.07 0.09 7608
0.10 1.10 0.61 -0.71 9.96 0.01 -0.07 0.09 7615
0.13 1.05 0.60 -0.74 9.99 0.02 -0.06 0.09 7621
0.12 1.03 0.63 -0.72 9.96 0.02 -0.06 0.10 7627
0.12 0.97 0.61 -0.74 9.95 0.02 -0.06 0.09 7633
0.14 0.94 0.64 -0.74 9.95 0.02 -0.06 0.09 7640
0.18 0.84 0.68 -0.71 9.97 0.02 -0.06 0.09 7646
0.19 0.87 0.66 -0.78 9.94 0.02 -0.05 0.09 7652
0.22 0.79 0.69 -0.74 9.91 0.02 -0.06 0.10 7659
0.25 0.75 0.65 -0.74 9.93 0.01 -0.06 0.09 7665
0.25 0.69 0.66 -0.77 9.98 0.01 -0.06 0.09 7671
0.22 0.70 0.66 -0.78 9.95 0.01 -0.06 0.09 7677
0.25 0.72 0.62 -0.79 10.01 0.01 -0.06 0.09 7684
0.25 0.68 0.63 -0.78 9.96 0.01 -0.05 0.09 7690
0.25 0.60 0.64 -0.78 9.98 0.00 -0.06 0.09 7696
0.28 0.60 0.63 -0.80 9.94 0.00 -0.06 0.10 7703
0.30 0.63 0.66 -0.77 9.96 -0.00 -0.06 0.09 7709
0.29 0.57 0.69 -0.75 9.93 -0.00 -0.06 0.09 7715
0.29 0.59 0.65 -0.75 9.92 -0.00 -0.06 0.09 7721
0.33 0.54 0.66 -0.75 9.98 -0.00 -0.07 0.10 7728
0.36 0.55 0.71 -0.77 9.98 0.00 -0.06 0.09 7734
0.37 0.48 0.63 -0.77 9.96 0.00 -0.06 0.09 7740
0.37 0.47 0.62 -0.81 10.01 0.01 -0.06 0.09 7747
0.42 0.44 0.63 -0.76 9.97 0.01 -0.06 0.08 7753
0.42 0.38 0.67 -0.80 10.00 0.01 -0.06 0.09 7759
0.46 0.32 0.63 -0.78 9.96 0.01 -0.06 0.09 7766
0.46 0.38 0.63 -0.80 9.93 0.01 -0.06 0.09 7772
0.50 0.32 0.62 -0.79 9.94 0.01 -0.06 0.09 7778
0.53 0.34 0.58 -0.78 9.91 0.01 -0.05 0.09 7785
0.56 0.29 1.21 -0.82 9.96 0.01 -0.05 0.09 7791
0.59 0.23 0.62 -0.78 9.98 0.01 -0.05 0.09 7797
0.60 0.28 0.65 -0.86 10.00 0.01 -0.05 0.09 7803
0.61 0.21 0.62 -0.79 9.98 0.01 -0.05 0.09 7810
0.63 0.22 0.63 -0.79 9.96 0.01 -0.05 0.10 7816
0.67 0.26 0.64 -0.81 9.96 0.01 -0.05 0.09 7823
0.68 0.22 0.65 -0.81 9.94 0.01 -0.05 0.08 7829
0.70 0.18 0.58 -0.81 9.94 0.01 -0.05 0.08 7835
0.72 0.15 0.60 -0.76 9.97 0.01 -0.05 0.08 7841
0.75 0.13 1.20 -0.78 9.94 0.01 -0.06 0.09 7847
0.78 0.12 0.62 -0.78 9.98 0.01 -0.05 0.09 7854
0.79 0.13 0.61 -0.76 9.95 0.01 -0.05 0.08 7860
0.80 0.15 0.60 -0.80 9.98 0.01 -0.06 0.09 7867
0.81 0.10 0.64 -0.80 9.97 0.01 -0.06 0.09 7873
0.83 0.09 0.60 -0.80 9.99 0.02 -0.06 0.08 7879
0.83 0.06 0.60 -0.84 9.95 0.02 -0.06 0.08 7885
0.83 0.07 0.61 -0.85 9.91 0.03 -0.05 0.08 7891
0.86 0.07 0.57 -0.83 10.01 0.03 -0.05 0.08 7898
0.89 0.03 0.57 -0.82 9.95 0.03 -0.05 0.08 7904
0.91 0.04 0.60 -0.81 9.96 0.04 -0.05 0.09 7910
0.96 0.02 0.59 -0.84 9.97 0.04 -0.04 0.08 7917
0.97 0.00 0.61 -0.84 9.98 0.05 -0.04 0.09 7923
1.00 0.01 0.61 -0.84 9.99 0.05 -0.04 0.09 7929
1.01 -0.01 0.62 -0.81 10.02 0.06 -0.04 0.09 7936
1.05 -0.00 0.60 -0.85 10.03 0.07 -0.04 0.09 7942
1.06 -0.01 0.59 -0.87 10.04 0.07 -0.05 0.09 7948
1.05 -0.02 0.67 -0.88 10.06 0.09 -0.04 0.08 7955
1.08 -0.03 0.64 -0.93 10.01 0.10 -0.04 0.07 7961
1.11 -0.03 0.61 -0.93 10.00 0.12 -0.05 0.08 7967
1.12 -0.05 0.60 -0.89 10.03 0.13 -0.05 0.07 7973
1.17 -0.05 0.63 -0.90 10.09 0.16 -0.05 0.07 7980
1.20 -0.05 0.69 -1.46 10.10 0.21 -0.07 0.07 7987
1.21 -0.05 0.57 -0.97 10.47 0.28 -0.09 0.04 7993
1.25 -0.05 1.00 -1.08 12.31 0.55 -0.07 0.02 7999
1.27 -0.05 0.86 -1.08 11.16 0.96 -0.02 -0.03 8005
1.31 -0.07 0.48 -1.29 12.39 1.17 -0.17 -0.07 8011
1.33 -0.06 1.04 -1.29 11.76 1.23 -0.23 -0.10 8018
1.34 -0.06 0.99 -1.26 11.38 1.30 -0.21 -0.12 8025
1.36 -0.06 1.00 -1.57 11.41 1.39 -0.21 -0.13 8031
1.36 -0.06 1.12 -1.44 12.29 1.51 -0.25 -0.16 8037
1.34 -0.06 0.86 -1.79 12.08 1.67 -0.30 -0.18 8044
1.32 -0.06 0.87 -1.68 12.22 1.77 -0.34 -0.19 8050
1.29 -0.07 0.86 -1.79 12.19 1.87 -0.40 -0.19 8056
1.25 -0.05 1.40 -1.39 11.29 1.98 -0.47 -0.20 8062
1.22 -0.06 0.71 -2.16 11.86 2.05 -0.54 -0.20 8070
1.17 -0.06 0.99 -2.43 11.23 2.13 -0.63 -0.20 8076
1.11 -0.05 0.80 -2.22 10.95 2.17 -0.65 -0.21 8082
1.03 -0.04 0.56 -2.87 11.26 2.15 -0.69 -0.22 8088
0.87 -0.04 0.33 -3.03 11.98 2.17 -0.69 -0.23 8094
0.81 -0.04 0.43 -3.62 11.99 2.25 -0.69 -0.23 8101
0.68 -0.04 0.42 -3.15 11.85 2.35 -0.68 -0.27 8108
0.55 -0.02 0.91 -3.45 12.29 2.44 -0.67 -0.24 8114
0.46 -0.02 0.64 -3.56 12.45 2.53 -0.65 -0.25 8120
0.39 -0.02 0.23 -3.95 12.90 2.60 -0.68 -0.25 8127
0.37 -0.02 0.48 -4.37 13.24 2.66 -0.70 -0.27 8133
0.42 -0.03 0.66 -4.73 13.83 2.71 -0.70 -0.29 8139
0.33 -0.02 0.85 -5.33 14.32 2.73 -0.68 -0.31 8145
0.33 -0.02 1.21 -5.58 13.95 2.69 -0.64 -0.33 8153
0.27 -0.02 0.78 -5.79 13.12 2.63 -0.55 -0.38 8159
0.22 -0.01 0.55 -5.62 12.35 2.50 -0.54 -0.42 8165
0.22 -0.01 -0.03 -5.06 12.28 2.36 -0.64 -0.44 8171
0.22 -0.02 1.26 -1.54 11.78 2.21 -0.80 -0.43 8177
0.22 -0.01 0.13 -5.14 10.71 2.01 -0.85 -0.44 8184
0.17 -0.02 0.19 -5.44 12.30 1.92 -1.03 -0.46 8190
0.12 -0.00 0.00 -5.27 10.89 1.92 -1.18 -0.48 8197
0.14 -0.00 0.32 -4.03 9.51 1.85 -1.14 -0.46 8203
0.14 -0.01 0.75 -2.49 7.80 1.64 -1.00 -0.45 8209
0.10 0.00 1.11 -0.24 6.60 1.38 -0.90 -0.45 8215
0.10 0.01 1.60 2.32 6.45 1.07 -0.71 -0.47 8222
0.08 -0.00 1.93 5.32 6.40 0.73 -0.49 -0.57 8228
0.08 -0.01 1.19 7.78 6.67 0.33 -0.26 -0.78 8235
0.07 -0.00 -1.10 5.86 7.13 -0.06 -0.04 -1.12 8241
0.08 -0.00 -1.64 4.35 6.10 -0.26 0.02 -1.37 8247
0.07 -0.01 -1.97 5.08 9.24 -0.47 0.24 -1.56 8253
0.07 0.00 -2.01 5.35 7.90 -0.82 0.34 -1.73 8259
0.08 0.01 -2.24 4.36 6.26 -1.03 0.24 -1.89 8266
0.07 -0.01 -2.30 3.60 5.86 -1.13 0.06 -2.03 8272
0.07 -0.01 -2.08 3.03 5.80 -1.20 -0.07 -2.08 8279
0.06 -0.00 -1.55 2.87 5.86 -1.25 -0.14 -2.13 8285
0.07 -0.00 -1.02 2.81 6.03 -1.27 -0.19 -2.16 8291
0.04 -0.00 -0.65 2.70 6.32 -1.33 -0.20 -2.17 8297
0.06 0.00 -0.29 2.70 6.56 -1.36 -0.16 -2.16 8303
0.06 0.01 0.00 2.59 7.05 -1.45 -0.07 -2.13 8310
0.06 0.01 0.07 2.46 7.48 -1.54 -0.01 -2.07 8316
0.05 0.00 0.19 2.17 7.95 -1.63 0.10 -1.97 8323
0.05 0.02 0.26 1.80 8.27 -1.73 0.19 -1.92 8329
0.06 0.01 0.26 1.42 8.60 -1.83 0.27 -1.81 8335
0.06 -0.01 0.29 1.14 8.68 -1.92 0.36 -1.65 8341
0.06 0.01 0.25 0.76 8.80 -1.98 0.43 -1.48 8347
0.07 0.01 0.21 0.19 8.95 -2.01 0.47 -1.27 8354
0.08 0.01 0.36 -0.32 8.91 -2.03 0.48 -1.05 8360
0.06 0.01 0.45 -0.79 9.07 -2.02 0.48 -0.82 8367
0.07 0.02 0.66 -1.15 9.33 -1.97 0.50 -0.58 8373
0.09 0.01 0.84 -1.44 9.65 -1.92 0.58 -0.37 8379
0.08 0.00 0.80 -1.84 9.86 -1.86 0.71 -0.14 8385
0.08 0.01 0.61 -2.35 10.20 -1.80 0.90 0.06 8391
0.08 0.01 0.23 -2.80 10.66 -1.75 1.10 0.24 8398
0.08 -0.01 -0.23 -3.29 11.11 -1.69 1.28 0.39 8404
0.08 0.00 -0.81 -3.76 11.37 -1.60 1.41 0.54 8411
0.08 -0.00 -1.33 -4.03 11.66 -1.56 1.48 0.66 8417
0.07 -0.01 -1.89 -4.29 11.95 -1.48 1.49 0.78 8423
0.06 0.01 -2.30 -4.34 12.31 -1.41 1.43 0.88 8430
0.07 0.01 -2.53 -4.08 12.49 -1.34 1.33 0.97 8436
0.06 0.00 -2.56 -3.72 12.56 -1.30 1.19 1.04 8442
0.07 0.02 -2.47 -3.48 12.56 -1.29 1.04 1.09 8449
0.07 0.01 -2.28 -3.40 12.60 -1.30 0.94 1.12 8456
0.06 0.01 -2.08 -3.42 12.49 -1.31 0.87 1.13 8462
0.08 0.01 -1.89 -3.60 12.41 -1.31 0.84 1.11 8468
0.07 0.01 -1.84 -3.81 12.10 -1.29 0.82 1.08 8474
0.06 0.02 -1.87 -4.06 11.80 -1.25 0.81 1.04 8480
0.08 0.02 -1.96 -4.12 11.51 -1.20 0.79 1.00 8487
0.06 0.01 -2.05 -4.14 11.22 -1.12 0.75 0.97 8494
0.06 0.02 -2.13 -4.13 11.02 -1.04 0.69 0.94 8500
0.07 0.01 -2.13 -4.01 10.96 -0.95 0.64 0.94 8506
0.05 0.00 -2.00 -3.88 11.16 -0.86 0.58 0.96 8512
0.07 0.03 -1.78 -3.75 11.34 -0.79 0.54 0.98 8519
0.07 0.02 -1.56 -3.59 11.37 -0.75 0.52 1.02 8525
0.06 0.02 -1.36 -3.57 11.29 -0.73 0.50 1.05 8531
0.08 0.03 -1.13 -3.59 11.19 -0.70 0.48 1.06 8538
0.07 0.03 -0.94 -3.61 11.17 -0.68 0.48 1.06 8544
0.06 0.03 -0.81 -3.62 11.07 -0.66 0.49 1.05 8551
0.07 0.03 -0.74 -3.60 10.96 -0.63 0.51 1.04 8557
0.07 0.02 -0.70 -3.58 10.81 -0.60 0.52 1.03 8563
0.07 0.02 -0.71 -3.50 10.68 -0.57 0.52 1.03 8569
0.09 0.02 -0.71 -3.42 10.62 -0.53 0.50 1.03 8577
0.07 0.01 -0.61 -3.38 10.47 -0.49 0.47 1.04 8583
0.07 0.02 -0.56 -3.36 11.02 -0.46 0.42 1.06 8589
0.08 0.02 -0.65 -3.25 10.42 -0.42 0.37 1.08 8595
0.08 0.00 -0.70 -3.26 10.21 -0.38 0.30 1.11 8601
0.08 0.02 -0.90 -3.17 9.99 -0.33 0.21 1.13 8607
0.08 0.01 -1.07 -3.21 9.87 -0.27 0.11 1.14 8614
0.08 0.00 -1.34 -3.19 9.77 -0.20 0.01 1.16 8621
0.08 0.01 -1.53 -3.08 9.91 -0.14 -0.08 1.17 8627
0.09 0.02 -1.56 -3.09 10.36 -0.08 -0.15 1.18 8633
0.08 0.00 -1.34 -3.10 10.70 -0.03 -0.19 1.19 8639
0.08 0.01 -1.03 -3.20 10.75 -0.02 -0.19 1.18 8646
0.09 0.01 -0.77 -3.44 10.78 -0.02 -0.15 1.17 8652
0.08 0.00 -0.53 -3.65 10.65 -0.03 -0.06 1.16 8658
0.08 0.01 -0.34 -3.98 10.60 -0.04 0.04 1.11 8665
0.08 -0.00 -0.37 -4.37 10.42 -0.04 0.12 1.11 8671
0.08 -0.01 -0.42 -4.58 10.26 -0.04 0.17 1.08 8678
0.09 -0.00 -0.56 -4.75 10.33 -0.05 0.15 1.05 8684
0.08 -0.00 -0.87 -4.78 10.30 -0.05 0.10 1.03 8690
0.08 -0.01 -1.02 -4.77 10.23 -0.05 -0.00 1.02 8696
0.08 0.01 -1.15 -4.81 10.17 -0.07 -0.12 1.02 8702
0.08 -0.00 -1.22 -4.81 9.96 -0.08 -0.25 1.02 8709
0.08 -0.01 -1.24 -4.94 9.76 -0.09 -0.39 1.02 8716
0.08 -0.00 -1.13 -5.19 9.52 -0.08 -0.50 1.02 8722
0.10 -0.01 -0.99 -5.33 9.12 -0.07 -0.62 1.03 8728
0.08 -0.00 -0.72 -5.45 8.79 -0.02 -0.73 1.02 8734
0.08 -0.01 -0.49 -5.72 8.47 0.03 -0.82 1.01 8740
0.08 0.00 -0.18 -5.90 8.25 0.11 -0.88 0.99 8747
0.09 -0.00 0.01 -6.06 8.07 0.19 -0.92 0.97 8753
0.08 -0.01 0.29 -6.17 7.93 0.26 -0.92 0.93 8759
0.09 -0.01 0.54 -6.19 7.79 0.35 -0.87 0.89 8766
0.09 -0.00 0.71 -6.19 7.64 0.45 -0.87 0.85 8772
0.09 -0.01 0.84 -6.19 7.42 0.55 -0.82 0.81 8778
0.09 -0.01 0.96 -6.35 6.93 0.66 -0.76 0.75 8784
0.09 0.00 -1.53 -11.70 4.99 0.82 -0.67 0.69 8791
0.11 -0.00 12.45 -12.76 6.69 1.03 1.53 1.13 8797
0.10 0.00 1.94 -6.94 6.50 1.66 2.46 1.14 8804
0.09 0.02 1.67 -7.47 10.77 1.64 2.61 0.89 8810
0.10 -0.00 3.28 -4.83 14.56 1.00 2.24 0.58 8816
0.14 -0.01 2.75 -3.35 10.13 0.42 1.37 0.29 8822
0.12 -0.00 0.22 -3.13 8.12 0.01 0.65 0.22 8828
0.16 -0.02 0.36 -1.85 7.20 -0.35 0.42 0.31 8835
0.16 -0.02 1.30 -1.77 10.37 -0.60 0.14 0.38 8842
0.15 -0.01 1.68 -1.51 10.79 -0.60 -0.12 0.36 8848
0.19 -0.01 1.55 -1.15 10.79 -0.52 -0.03 0.26 8854
0.17 -0.02 1.60 -1.00 10.39 -0.47 0.06 0.16 8860
0.16 -0.01 1.40 -1.23 10.06 -0.44 0.00 0.09 8866
0.17 -0.01 0.95 -1.29 9.81 -0.45 -0.08 0.06 8872
0.18 -0.02 0.90 -1.34 10.08 -0.53 -0.10 0.04 8880
0.18 -0.01 0.82 -1.22 10.29 -0.57 -0.04 0.02 8886
0.20 -0.02 1.98 -0.83 14.71 -0.62 -0.17 -0.01 8892
0.18 -0.02 1.16 -0.89 10.89 -0.34 -0.04 -0.04 8898
0.18 -0.01 0.82 -1.04 10.21 -0.18 0.00 -0.01 8904
0.18 -0.00 0.62 -0.91 10.08 -0.16 0.03 -0.04 8911
0.20 -0.01 0.65 -1.05 10.02 -0.13 0.03 -0.02 8918
0.20 0.01 0.59 -1.08 10.05 -0.12 0.01 -0.01 8924
0.23 0.02 0.59 -1.00 10.06 -0.11 0.01 0.01 8930
0.22 0.03 0.47 -0.93 10.03 -0.09 0.01 0.03 8936
0.21 0.05 0.48 -0.82 10.00 -0.07 -0.00 0.05 8942
0.22 0.05 0.58 -0.94 10.02 -0.06 -0.00 0.06 8949
0.23 0.07 0.58 -0.91 9.98 -0.05 -0.01 0.07 8955
0.22 0.07 0.60 -0.93 9.98 -0.04 -0.01 0.08 8962
0.21 0.09 1.22 -0.91 9.98 -0.04 -0.01 0.09 8968
0.21 0.09 0.61 -0.86 9.94 -0.04 -0.01 0.09 8974
0.20 0.11 0.59 -0.89 9.98 -0.04 -0.01 0.09 8980
0.19 0.10 0.62 -0.89 9.93 -0.03 -0.01 0.10 8986
0.18 0.11 0.67 -0.88 9.93 -0.04 -0.01 0.10 8993
0.17 0.14 0.62 -0.88 9.94 -0.04 -0.01 0.10 8999
0.17 0.17 0.65 -0.90 9.90 -0.04 -0.01 0.10 9006
0.18 0.18 0.67 -0.90 9.90 -0.04 -0.02 0.09 9012
0.18 0.19 0.67 -0.87 9.95 -0.04 -0.02 0.10 9018
0.16 0.19 0.88 -0.93 9.90 -0.03 -0.02 0.10 9024
0.15 0.21 0.65 -0.86 9.94 -0.04 -0.02 0.07 9030
0.16 0.23 0.64 -0.86 9.95 -0.04 -0.03 0.10 9037
0.14 0.32 0.65 -0.86 9.96 -0.04 -0.03 0.10 9043
0.13 0.33 0.61 -0.87 9.97 -0.04 -0.03 0.11 9050
0.14 0.38 0.59 -0.84 9.85 -0.04 -0.03 0.10 9056
0.12 0.43 0.63 -0.82 9.95 -0.04 -0.04 0.10 9062
0.11 0.43 0.62 -0.84 9.98 -0.04 -0.04 0.11 9068
0.11 0.49 1.19 -0.86 9.94 -0.04 -0.03 0.11 9075
0.11 0.52 0.63 -0.82 9.90 -0.03 -0.04 0.11 9081
0.10 0.56 0.62 -0.83 9.92 -0.03 -0.03 0.11 9088
0.09 0.62 0.58 -0.79 9.91 -0.03 -0.04 0.11 9094
0.11 0.63 0.64 -0.82 9.93 -0.02 -0.03 0.11 9100
0.09 0.63 0.60 -0.84 9.91 -0.02 -0.03 0.11 9106
0.08 0.68 0.60 -0.82 9.96 -0.02 -0.03 0.11 9112
0.07 0.75 0.60 -0.82 9.93 -0.02 -0.03 0.11 9119
0.07 0.76 0.63 -0.83 9.97 -0.02 -0.03 0.11 9125
0.06 0.77 0.64 -0.79 9.95 -0.02 -0.03 0.11 9132
0.08 0.83 0.63 -0.80 9.90 -0.02 -0.03 0.11 9138
0.10 0.76 0.65 -0.81 9.93 -0.02 -0.02 0.12 9144
0.06 0.83 0.62 -0.79 9.91 -0.02 -0.02 0.11 9150
0.06 0.82 0.63 -0.78 9.95 -0.02 -0.03 0.11 9156
0.06 0.80 0.64 -0.81 9.91 -0.02 -0.02 0.11 9163
0.06 0.79 0.63 -0.78 9.92 -0.02 -0.02 0.11 9169
0.05 0.82 0.61 -0.79 9.89 -0.02 -0.03 0.11 9176
0.06 0.85 0.59 -0.79 9.87 -0.02 -0.02 0.11 9182
0.08 0.88 0.64 -0.78 9.91 -0.02 -0.02 0.11 9188
0.06 0.91 0.62 -0.76 9.95 -0.02 -0.02 0.11 9194
0.07 0.89 0.63 -0.77 9.91 -0.02 -0.02 0.11 9200
0.08 0.91 0.67 -0.76 9.93 -0.02 -0.02 0.11 9207
0.05 0.98 0.64 -0.77 9.91 -0.02 -0.02 0.11 9213
0.06 0.98 0.64 -0.78 9.92 -0.02 -0.03 0.11 9220
0.07 1.04 0.65 -0.74 9.96 -0.01 -0.03 0.11 9226
0.07 0.98 0.63 -0.75 9.95 -0.01 -0.03 0.11 9232
0.07 0.98 0.65 -0.78 9.96 -0.01 -0.03 0.11 9238
0.07 0.97 0.63 -0.79 9.89 -0.01 -0.03 0.11 9245
0.07 0.99 0.66 -0.79 9.88 -0.01 -0.03 0.11 9251
0.07 1.02 0.65 -0.79 9.91 -0.01 -0.03 0.12 9257
0.06 1.00 0.65 -0.79 9.91 -0.01 -0.03 0.11 9264
0.08 0.99 0.64 -0.74 9.94 -0.02 -0.04 0.11 9270
0.07 0.99 0.63 -0.75 9.93 -0.01 -0.04 0.11 9276
0.06 1.02 0.64 -0.74 9.94 -0.01 -0.04 0.11 9282
0.06 1.02 0.60 -0.76 9.90 -0.01 -0.04 0.11 9289
0.07 0.99 0.68 -0.79 9.96 -0.01 -0.04 0.11 9295
0.06 1.01 0.63 -0.79 9.95 -0.01 -0.04 0.11 9302
0.07 1.03 0.65 -0.74 9.95 -0.01 -0.04 0.11 9308
0.09 1.03 0.59 -0.78 9.92 -0.01 -0.04 0.11 9314
0.07 1.04 0.65 -0.77 9.91 -0.01 -0.04 0.11 9320
0.07 1.03 0.65 -0.78 9.92 -0.01 -0.04 0.11 9326
0.07 1.06 0.66 -0.81 9.94 -0.01 -0.04 0.11 9333
0.08 1.02 0.65 -0.81 9.92 -0.01 -0.04 0.10 9339
0.08 1.03 0.64 -0.79 9.90 -0.01 -0.04 0.11 9346
0.08 1.05 0.62 -0.78 9.92 -0.01 -0.04 0.11 9352
0.09 1.04 0.67 -0.76 9.90 -0.01 -0.04 0.10 9358
0.09 1.06 0.63 -0.78 9.93 -0.01 -0.04 0.11 9364
0.09 1.05 0.61 -0.79 9.92 -0.01 -0.04 0.11 9370
0.11 1.06 0.64 -0.80 9.93 -0.01 -0.04 0.11 9377
0.10 1.07 0.63 -0.76 9.92 -0.01 -0.04 0.11 9383
0.09 1.04 0.64 -0.76 9.94 -0.01 -0.04 0.10 9390
0.10 1.07 0.62 -0.75 9.97 -0.01 -0.03 0.11 9396
0.10 1.05 0.64 -0.76 9.95 -0.01 -0.03 0.11 9402
0.10 1.07 0.63 -0.78 9.90 -0.01 -0.03 0.11 9408
0.09 1.08 0.65 -0.75 9.94 -0.01 -0.04 0.11 9415
0.11 1.11 0.65 -0.77 9.92 -0.01 -0.03 0.11 9421
0.10 1.13 0.63 -0.78 9.93 -0.01 -0.04 0.12 9427
0.10 1.11 0.65 -0.74 9.94 -0.01 -0.04 0.11 9434
0.11 1.13 0.69 -0.78 9.91 -0.01 -0.04 0.11 9440
0.10 1.10 0.66 -0.77 9.92 -0.01 -0.04 0.11 9446
0.09 1.09 0.63 -0.73 9.94 -0.01 -0.04 0.11 9452
0.11 1.14 0.64 -0.78 9.93 -0.01 -0.04 0.11 9459
0.10 1.14 0.66 -0.75 9.93 -0.01 -0.04 0.11 9465
0.10 1.15 0.68 -0.78 9.91 -0.01 -0.04 0.11 9472
0.11 1.16 0.64 -0.78 9.93 -0.01 -0.04 0.11 9478
0.11 1.15 0.64 -0.74 9.93 -0.01 -0.04 0.10 9484
0.11 1.12 0.67 -0.75 9.92 -0.01 -0.04 0.11 9490
0.11 1.11 0.64 -0.77 9.94 -0.01 -0.04 0.11 9497
0.13 1.11 0.66 -0.77 9.91 -0.01 -0.04 0.10 9503
0.11 1.10 0.66 -0.75 9.90 -0.01 -0.04 0.11 9509
0.10 1.13 0.65 -0.77 9.93 -0.01 -0.04 0.11 9516
0.11 1.15 0.64 -0.76 9.96 -0.01 -0.04 0.11 9522
0.12 1.11 0.66 -0.77 9.93 -0.01 -0.04 0.11 9528
0.10 1.15 0.66 -0.75 9.94 -0.01 -0.04 0.11 9535
0.11 1.15 0.67 -0.74 9.94 -0.01 -0.04 0.11 9541
0.11 1.13 0.68 -0.78 9.91 -0.01 -0.04 0.11 9547
0.10 1.15 0.65 -0.76 9.94 -0.01 -0.04 0.11 9553
0.11 1.16 0.67 -0.76 9.91 -0.00 -0.04 0.10 9560
0.11 1.15 0.67 -0.76 9.92 -0.01 -0.04 0.11 9566
0.11 1.17 0.64 -0.77 9.95 -0.01 -0.04 0.10 9573
0.11 1.19 0.65 -0.77 9.92 -0.01 -0.04 0.11 9579
0.12 1.21 0.66 -0.78 9.95 -0.01 -0.04 0.11 9585
0.12 1.21 0.65 -0.76 9.95 -0.01 -0.04 0.13 9591
0.11 1.17 0.66 -0.75 9.90 -0.01 -0.04 0.11 9597
0.12 1.18 0.65 -0.75 9.94 -0.01 -0.04 0.10 9604
0.12 1.19 0.67 -0.76 9.92 -0.01 -0.04 0.11 9611
0.09 1.20 0.66 -0.78 9.93 -0.01 -0.04 0.11 9617
0.10 1.20 0.63 -0.73 9.93 -0.00 -0.04 0.11 9623
0.10 1.21 0.67 -0.77 9.90 -0.01 -0.04 0.11 9629
0.09 1.22 0.67 -0.76 9.94 -0.01 -0.04 0.11 9635
0.09 1.24 0.64 -0.74 9.98 -0.01 -0.04 0.10 9641
0.10 1.24 0.66 -0.77 9.88 -0.01 -0.04 0.10 9648
0.10 1.24 0.64 -0.77 9.92 -0.01 -0.04 0.11 9655
0.09 1.23 0.65 -0.80 9.94 -0.01 -0.04 0.10 9661
0.10 1.25 0.64 -0.77 9.94 -0.01 -0.04 0.10 9667
0.10 1.27 0.65 -0.78 9.91 -0.00 -0.04 0.11 9673
0.09 1.26 0.67 -0.79 9.91 -0.00 -0.04 0.10 9679
0.10 1.26 0.64 -0.76 9.95 -0.01 -0.04 0.10 9686
0.11 1.26 0.66 -0.76 9.92 -0.01 -0.04 0.10 9692
0.10 1.24 0.62 -0.73 9.95 -0.01 -0.04 0.11 9699
0.11 1.24 0.63 -0.77 9.97 -0.01 -0.04 0.13 9705
0.12 1.25 0.66 -0.76 9.93 -0.01 -0.04 0.10 9711
0.12 1.26 0.66 -0.75 9.93 -0.01 -0.04 0.10 9717
0.11 1.28 0.65 -0.74 9.97 -0.01 -0.04 0.11 9723
0.12 1.29 0.65 -0.76 9.92 -0.01 -0.04 0.10 9730
0.11 1.28 0.66 -0.74 9.97 -0.01 -0.04 0.11 9737
0.11 1.27 0.63 -0.76 9.93 -0.01 -0.04 0.10 9743
0.12 1.26 0.70 -0.78 9.94 -0.01 -0.04 0.10 9749
0.11 1.24 0.61 -0.79 9.93 -0.01 -0.04 0.11 9755
0.09 1.23 0.63 -0.67 9.94 -0.01 -0.04 0.10 9761
0.11 1.24 0.65 -0.76 9.96 -0.01 -0.04 0.11 9767
0.11 1.24 0.63 -0.79 9.97 -0.01 -0.04 0.10 9775
0.11 1.23 0.63 -0.77 9.95 -0.01 -0.04 0.10 9781
0.10 1.25 0.65 -0.76 9.96 -0.01 -0.04 0.10 9787
0.11 1.26 0.64 -0.79 9.94 -0.00 -0.04 0.10 9793
0.10 1.31 0.67 -0.78 9.91 -0.01 -0.04 0.11 9799
0.09 1.29 0.64 -0.76 9.89 -0.01 -0.04 0.10 9805
0.10 1.27 0.67 -0.76 9.95 -0.00 -0.04 0.10 9811
0.09 1.28 0.62 -0.78 9.96 -0.01 -0.04 0.10 9819
0.09 1.29 0.65 -0.75 9.90 -0.01 -0.04 0.11 9825
0.09 1.26 0.64 -0.74 9.95 -0.01 -0.04 0.10 9831
0.10 1.26 0.65 -0.77 9.92 -0.01 -0.03 0.10 9837
0.09 1.21 0.66 -0.74 9.93 -0.01 -0.04 0.10 9843
0.09 1.24 0.65 -0.75 9.92 -0.00 -0.04 0.10 9849
0.09 1.24 0.67 -0.76 9.88 -0.00 -0.04 0.10 9856
0.09 1.23 0.69 -0.76 9.94 -0.01 -0.04 0.10 9863
0.07 1.25 0.65 -0.76 9.93 -0.01 -0.04 0.10 9869
0.08 1.28 0.65 -0.79 9.99 -0.01 -0.04 0.10 9875
0.08 1.31 0.64 -0.77 9.93 -0.00 -0.04 0.10 9881
0.08 1.29 0.63 -0.72 9.95 -0.01 -0.04 0.09 9887
0.08 1.31 0.65 -0.77 9.92 -0.01 -0.04 0.10 9893
0.09 1.29 0.67 -0.79 9.94 -0.00 -0.04 0.10 9900
0.08 1.31 0.66 -0.77 9.92 -0.00 -0.04 0.10 9907
0.07 1.33 0.67 -0.78 9.90 -0.00 -0.04 0.10 9913
0.07 1.34 0.63 -0.79 9.94 -0.00 -0.04 0.10 9919
0.07 1.33 0.67 -0.74 9.96 -0.01 -0.04 0.10 9925
0.08 1.34 0.64 -0.75 9.92 -0.01 -0.04 0.10 9931
0.07 1.34 0.67 -0.77 9.93 -0.01 -0.04 0.10 9937
0.08 1.35 0.63 -0.75 9.92 -0.00 -0.04 0.10 9945
0.07 1.35 0.65 -0.76 9.91 -0.00 -0.04 0.10 9951
0.06 1.35 0.62 -0.75 9.96 -0.00 -0.04 0.09 9957
0.07 1.37 0.65 -0.75 9.88 -0.01 -0.04 0.09 9963
0.06 1.36 0.65 -0.78 9.99 -0.00 -0.04 0.10 9969
0.06 1.36 0.65 -0.76 9.93 -0.01 -0.04 0.10 9975
0.06 1.37 0.64 -0.79 9.93 -0.01 -0.04 0.09 9981
0.06 1.37 0.65 -0.75 9.93 -0.01 -0.04 0.09 9989
0.07 1.35 0.66 -0.75 9.92 -0.01 -0.04 0.09 9995
0.06 1.37 0.66 -0.77 9.95 -0.00 -0.04 0.09 10001
0.06 1.35 0.66 -0.79 9.92 -0.01 -0.04 0.10 10007
0.06 1.34 0.63 -0.77 9.95 -0.01 -0.04 0.10 10013
0.06 1.35 0.63 -0.78 9.92 -0.01 -0.03 0.09 10019
0.06 1.35 0.67 -0.76 9.93 -0.01 -0.04 0.10 10027
0.06 1.33 0.66 -0.74 9.94 -0.01 -0.04 0.10 10033
0.06 1.35 0.65 -0.75 9.94 -0.01 -0.04 0.09 10039
0.06 1.35 0.63 -0.77 9.95 -0.00 -0.03 0.09 10045
0.05 1.37 0.66 -0.78 9.94 -0.01 -0.04 0.10 10051
0.04 1.39 0.65 -0.77 9.94 -0.01 -0.03 0.09 10058
0.05 1.39 0.67 -0.76 9.97 -0.01 -0.03 0.09 10064
0.04 1.39 0.65 -0.79 9.90 -0.01 -0.03 0.10 10071
0.05 1.38 0.64 -0.78 9.96 -0.01 -0.04 0.09 10077
0.06 1.38 0.63 -0.77 9.92 -0.01 -0.04 0.10 10083
0.05 1.36 0.65 -0.76 9.95 -0.01 -0.03 0.09 10090
0.04 1.40 0.66 -0.72 9.95 -0.01 -0.04 0.10 10096
0.04 1.41 0.64 -0.78 9.97 -0.01 -0.04 0.10 10102
0.03 1.42 0.65 -0.78 9.94 -0.00 -0.04 0.09 10108
0.04 1.46 0.64 -0.77 9.97 -0.01 -0.04 0.09 10115
0.03 1.45 0.63 -0.77 9.95 -0.00 -0.04 0.10 10121
0.02 1.43 0.65 -0.78 9.96 -0.00 -0.04 0.09 10128
0.05 1.47 0.67 -0.81 9.90 -0.00 -0.04 0.10 10134
0.03 1.46 0.64 -0.76 9.91 -0.01 -0.04 0.09 10140
0.03 1.46 0.65 -0.78 9.95 -0.01 -0.04 0.10 10146
0.04 1.45 0.67 -0.78 9.92 -0.01 -0.04 0.10 10152
0.04 1.43 0.66 -0.76 9.92 -0.01 -0.04 0.10 10160
0.01 1.43 0.65 -0.78 9.95 -0.00 -0.04 0.09 10166
0.02 1.44 0.67 -0.76 9.95 -0.01 -0.04 0.09 10172
0.03 1.42 0.64 -0.77 9.94 -0.01 -0.04 0.09 10178
0.02 1.43 0.67 -0.80 9.92 -0.01 -0.04 0.10 10184
0.04 1.41 0.64 -0.79 9.92 -0.00 -0.04 0.10 10191
0.04 1.40 0.65 -0.74 9.93 -0.01 -0.04 0.10 10198
0.03 1.39 0.67 -0.77 9.90 -0.00 -0.04 0.09 10204
0.05 1.40 0.65 -0.78 9.93 -0.01 -0.04 0.09 10210
0.04 1.40 0.66 -0.80 9.92 -0.01 -0.04 0.10 10216
0.03 1.40 0.68 -0.77 9.89 -0.01 -0.04 0.10 10223
0.05 1.41 0.64 -0.77 9.97 -0.00 -0.04 0.09 10229
0.05 1.40 0.68 -0.78 9.97 -0.00 -0.04 0.09 10235
0.03 1.40 0.64 -0.73 9.95 -0.00 -0.04 0.10 10242
0.04 1.40 0.67 -0.81 9.96 -0.00 -0.04 0.10 10248
0.04 1.38 0.67 -0.75 9.96 -0.01 -0.04 0.09 10254
0.03 1.39 0.66 -0.77 9.93 -0.01 -0.04 0.09 10261
0.05 1.40 0.66 -0.78 9.97 -0.01 -0.04 0.10 10267
0.04 1.40 0.66 -0.78 9.93 -0.00 -0.04 0.09 10273
0.03 1.40 0.66 -0.80 9.93 -0.00 -0.04 0.09 10279
0.05 1.41 0.66 -0.76 9.98 -0.01 -0.04 0.09 10286
0.03 1.41 0.68 -0.77 9.92 -0.00 -0.04 0.10 10293
0.03 1.41 0.63 -0.78 9.91 -0.01 -0.04 0.09 10299
0.04 1.40 0.65 -0.79 9.90 -0.01 -0.04 0.10 10305
0.04 1.39 0.66 -0.77 9.88 -0.00 -0.03 0.10 10311
0.04 1.39 0.68 -0.76 9.96 -0.00 -0.04 0.09 10317
0.05 1.38 0.63 -0.80 9.95 -0.00 -0.03 0.09 10323
0.05 1.37 0.66 -0.74 9.94 -0.00 -0.04 0.09 10331
0.04 1.38 0.67 -0.81 9.97 -0.00 -0.04 0.10 10337
0.05 1.37 0.60 -0.77 9.93 -0.00 -0.04 0.10 10343
0.04 1.37 0.67 -0.79 9.94 -0.00 -0.04 0.10 10349
0.03 1.37 0.67 -0.77 9.95 -0.01 -0.04 0.10 10355
0.06 1.37 0.64 -0.80 9.94 -0.01 -0.04 0.09 10362
0.04 1.37 0.67 -0.75 9.91 -0.01 -0.04 0.10 10369
0.04 1.37 0.65 -0.76 9.95 -0.01 -0.04 0.09 10375
0.05 1.37 0.65 -0.76 9.90 -0.00 -0.04 0.10 10381
0.05 1.35 0.68 -0.75 9.92 -0.01 -0.03 0.09 10387
0.04 1.36 0.69 -0.75 9.91 -0.00 -0.04 0.09 10394
0.06 1.35 0.63 -0.75 9.94 -0.00 -0.04 0.09 10400
0.04 1.36 0.66 -0.76 9.90 -0.00 -0.04 0.10 10406
0.04 1.35 0.67 -0.78 9.93 -0.00 -0.04 0.09 10413
0.06 1.34 0.65 -0.76 9.93 -0.01 -0.04 0.09 10419
0.05 1.33 0.68 -0.74 9.92 -0.00 -0.04 0.09 10426
0.04 1.33 0.65 -0.75 9.97 -0.00 -0.04 0.09 10432
0.06 1.32 0.68 -0.78 9.96 -0.00 -0.04 0.10 10438
0.04 1.31 0.63 -0.78 9.97 -0.00 -0.04 0.10 10444
0.04 1.31 0.64 -0.78 9.98 -0.00 -0.04 0.10 10450
0.07 1.30 0.65 -0.82 9.95 -0.00 -0.04 0.10 10457
0.04 1.31 0.66 -0.75 9.91 -0.00 -0.03 0.10 10464
0.05 1.31 0.65 -0.78 9.95 -0.00 -0.04 0.07 10470
0.06 1.32 0.65 -0.78 9.90 -0.00 -0.04 0.09 10476
0.05 1.32 0.67 -0.75 9.93 -0.00 -0.03 0.09 10482
0.04 1.32 0.64 -0.75 9.90 -0.00 -0.03 0.10 10488
0.06 1.32 0.64 -0.76 9.95 -0.00 -0.03 0.10 10496
0.05 1.31 0.68 -0.74 9.93 -0.01 -0.03 0.10 10502
0.05 1.31 0.65 -0.74 9.94 -0.01 -0.03 0.10 10508
0.06 1.30 0.67 -0.78 9.93 -0.00 -0.04 0.10 10514
0.06 1.29 0.66 -0.82 9.98 -0.00 -0.04 0.10 10520
0.06 1.28 0.66 -0.76 9.92 -0.01 -0.04 0.09 10527
0.07 1.29 0.66 -0.78 9.93 -0.00 -0.04 0.10 10533
0.07 1.27 0.65 -0.75 9.92 0.00 -0.04 0.10 10540
0.07 1.25 0.63 -0.79 9.96 -0.01 -0.04 0.10 10546
0.09 1.26 0.67 -0.75 9.94 -0.00 -0.03 0.10 10552
0.07 1.24 0.70 -0.76 9.94 -0.00 -0.04 0.07 10559
0.08 1.23 0.67 -0.76 9.96 -0.01 -0.03 0.10 10565
0.07 1.24 0.68 -0.76 9.93 -0.00 -0.04 0.10 10571
0.07 1.22 0.66 -0.78 9.91 -0.00 -0.04 0.10 10577
0.07 1.24 0.66 -0.76 9.94 -0.00 -0.04 0.10 10584
0.08 1.22 0.65 -0.78 9.92 -0.01 -0.04 0.10 10590
0.07 1.20 0.66 -0.76 9.92 -0.00 -0.03 0.10 10597
0.07 1.23 0.65 -0.76 9.94 -0.01 -0.03 0.10 10603
0.07 1.23 0.62 -0.78 9.94 -0.01 -0.04 0.10 10609
0.07 1.23 0.66 -0.76 9.92 -0.00 -0.03 0.10 10615
0.07 1.24 0.65 -0.76 9.94 -0.01 -0.04 0.11 10621
0.08 1.23 0.67 -0.76 9.96 -0.00 -0.03 0.10 10629
0.07 1.23 0.67 -0.75 9.91 -0.01 -0.03 0.10 10635
0.07 1.24 0.65 -0.75 9.91 -0.01 -0.03 0.11 10641
0.07 1.24 0.65 -0.77 9.94 -0.00 -0.04 0.10 10647
0.07 1.23 0.68 -0.78 9.95 -0.00 -0.03 0.10 10653
0.08 1.23 0.67 -0.77 9.94 -0.01 -0.04 0.10 10660
0.08 1.23 0.63 -0.78 9.96 -0.01 -0.03 0.10 10667
0.07 1.22 0.64 -0.80 9.94 -0.01 -0.04 0.10 10673
0.08 1.23 0.65 -0.75 9.93 -0.00 -0.03 0.10 10679
0.08 1.22 0.64 -0.75 9.97 -0.01 -0.03 0.10 10685
0.06 1.22 0.66 -0.80 9.94 -0.01 -0.03 0.10 10692
0.09 1.22 0.67 -0.79 9.93 -0.00 -0.04 0.10 10698
0.08 1.22 0.67 -0.74 9.94 -0.01 -0.03 0.11 10704
0.08 1.23 0.69 -0.76 9.92 -0.01 -0.04 0.10 10711
0.09 1.24 0.68 -0.75 9.95 -0.00 -0.04 0.10 10717
0.08 1.24 0.66 -0.80 9.92 -0.00 -0.04 0.10 10724
0.07 1.24 0.69 -0.77 9.98 -0.01 -0.04 0.10 10730
0.09 1.23 0.62 -0.77 9.92 -0.00 -0.04 0.11 10736
0.08 1.23 0.64 -0.76 9.95 -0.01 -0.03 0.10 10742
0.08 1.24 0.68 -0.79 9.92 -0.00 -0.04 0.11 10748
0.09 1.24 0.64 -0.78 9.95 -0.01 -0.04 0.10 10755
0.07 1.24 0.68 -0.76 9.94 -0.01 -0.04 0.10 10762
0.08 1.24 0.66 -0.76 9.93 -0.01 -0.04 0.10 10768
0.09 1.24 0.68 -0.73 9.92 -0.01 -0.04 0.10 10774
0.07 1.25 0.64 -0.76 9.91 -0.01 -0.03 0.10 10780
0.08 1.25 0.66 -0.74 9.92 -0.01 -0.03 0.09 10786
0.09 1.25 0.66 -0.78 9.97 -0.01 -0.03 0.10 10793
0.09 1.24 0.66 -0.76 9.94 -0.01 -0.04 0.11 10800
0.07 1.25 0.67 -0.77 9.96 -0.01 -0.03 0.10 10806
0.09 1.25 0.62 -0.77 9.94 -0.00 -0.04 0.11 10812
0.09 1.25 0.67 -0.77 9.90 -0.00 -0.04 0.11 10818
0.08 1.25 0.67 -0.77 9.91 -0.00 -0.03 0.10 10825
0.08 1.26 0.68 -0.76 9.94 -0.01 -0.03 0.10 10831
0.09 1.24 0.65 -0.76 9.92 -0.00 -0.04 0.10 10838
0.08 1.25 0.64 -0.74 9.93 -0.00 -0.04 0.11 10844
0.09 1.26 0.66 -0.79 9.92 -0.01 -0.04 0.10 10850
0.08 1.25 0.64 -0.76 9.95 -0.01 -0.03 0.10 10857
0.08 1.26 0.65 -0.76 9.93 -0.01 -0.04 0.10 10863
0.09 1.25 0.66 -0.74 9.94 -0.00 -0.04 0.10 10869
0.08 1.25 0.69 -0.76 9.92 -0.00 -0.04 0.10 10875
0.09 1.27 0.69 -0.76 9.92 -0.01 -0.03 0.10 10882
0.09 1.27 0.66 -0.77 9.93 -0.00 -0.04 0.10 10889
0.07 1.27 0.69 -0.74 10.00 -0.00 -0.04 0.10 10895
0.10 1.27 0.65 -0.73 9.95 -0.00 -0.04 0.10 10901
0.09 1.27 0.68 -0.77 9.95 -0.01 -0.04 0.10 10907
0.09 1.27 0.66 -0.76 9.96 -0.01 -0.04 0.10 10913
0.09 1.28 0.68 -0.74 9.92 -0.00 -0.04 0.10 10920
0.10 1.27 0.64 -0.76 9.93 -0.01 -0.04 0.10 10927
0.08 1.27 0.64 -0.74 9.89 -0.01 -0.04 0.11 10933
0.10 1.28 0.71 -0.79 9.93 -0.01 -0.04 0.11 10939
0.09 1.28 0.66 -0.77 9.95 -0.01 -0.04 0.10 10945
0.09 1.28 0.70 -0.74 9.91 -0.00 -0.04 0.11 10952
0.10 1.28 0.67 -0.75 9.94 -0.00 -0.04 0.10 10958
0.09 1.28 0.63 -0.75 9.96 -0.00 -0.04 0.10 10964
0.09 1.28 0.64 -0.74 9.89 -0.00 -0.04 0.10 10971
0.11 1.29 0.66 -0.77 9.92 -0.01 -0.04 0.10 10977
0.09 1.29 0.68 -0.74 9.93 -0.01 -0.04 0.11 10983
0.10 1.29 0.67 -0.77 9.96 -0.00 -0.04 0.10 10990
0.11 1.30 0.66 -0.77 9.94 -0.01 -0.04 0.10 10996
0.10 1.29 0.64 -0.77 9.98 -0.01 -0.04 0.10 11002
0.10 1.30 0.66 -0.75 9.96 -0.00 -0.04 0.10 11009
0.11 1.30 0.65 -0.78 9.92 -0.01 -0.04 0.10 11015
0.09 1.29 0.65 -0.74 9.92 -0.01 -0.04 0.10 11022
0.10 1.30 0.67 -0.76 9.92 -0.00 -0.04 0.10 11028
0.10 1.30 0.67 -0.76 9.94 -0.00 -0.04 0.10 11034
0.10 1.29 0.66 -0.75 9.91 -0.00 -0.04 0.10 11040
0.10 1.31 0.67 -0.74 9.96 -0.01 -0.04 0.10 11046
0.11 1.30 0.68 -0.75 9.91 -0.00 -0.04 0.10 11054
0.10 1.30 0.66 -0.74 9.93 -0.01 -0.04 0.10 11060
0.11 1.32 0.66 -0.77 9.95 -0.00 -0.04 0.10 11066
0.11 1.30 0.69 -0.74 9.97 -0.01 -0.04 0.11 11072
0.09 1.31 0.67 -0.78 9.92 -0.00 -0.04 0.10 11078
0.10 1.33 0.65 -0.75 9.93 -0.00 -0.04 0.10 11085
0.10 1.33 0.67 -0.78 9.96 -0.01 -0.04 0.10 11091
0.08 1.32 0.68 -0.78 9.95 -0.00 -0.04 0.10 11098
0.09 1.34 0.63 -0.74 9.95 -0.01 -0.04 0.10 11104
0.10 1.33 0.64 -0.74 9.97 -0.01 -0.04 0.11 11110
0.09 1.33 0.67 -0.75 9.97 -0.01 -0.04 0.10 11117
0.10 1.34 0.67 -0.75 9.89 -0.01 -0.04 0.10 11123
0.09 1.33 0.70 -0.78 9.94 -0.01 -0.04 0.10 11129
0.09 1.33 0.68 -0.75 9.95 -0.01 -0.04 0.10 11136
0.11 1.33 0.65 -0.74 9.93 -0.00 -0.04 0.10 11142
0.10 1.33 0.65 -0.76 9.89 -0.01 -0.04 0.10 11149
0.09 1.33 0.66 -0.75 9.91 -0.01 -0.04 0.11 11155
0.11 1.33 0.68 -0.74 9.96 -0.01 -0.04 0.10 11161
0.10 1.33 0.65 -0.76 9.95 -0.00 -0.04 0.10 11167
0.10 1.34 0.68 -0.77 9.93 -0.01 -0.04 0.10 11173
0.11 1.34 0.70 -0.75 9.95 -0.00 -0.04 0.11 11181
0.09 1.34 0.69 -0.77 9.92 -0.00 -0.04 0.10 11187
0.10 1.34 0.65 -0.74 9.94 -0.00 -0.04 0.10 11193
0.12 1.34 0.67 -0.74 9.91 -0.00 -0.04 0.10 11199
0.11 1.33 0.68 -0.78 9.94 -0.01 -0.04 0.10 11205
0.11 1.34 0.66 -0.75 9.93 -0.01 -0.04 0.10 11212
0.11 1.34 0.65 -0.74 9.94 -0.00 -0.04 0.10 11218
0.10 1.33 0.66 -0.76 9.94 -0.00 -0.04 0.10 11225
0.10 1.35 0.69 -0.78 9.97 -0.00 -0.04 0.10 11231
0.10 1.34 0.70 -0.78 9.96 -0.00 -0.04 0.10 11237
0.10 1.34 0.71 -0.76 9.94 -0.01 -0.04 0.10 11244
0.11 1.34 0.64 -0.72 9.96 -0.00 -0.04 0.11 11250
0.11 1.34 0.66 -0.75 9.96 -0.00 -0.03 0.10 11256
0.09 1.34 0.68 -0.78 10.00 -0.00 -0.04 0.10 11262
0.10 1.35 0.65 -0.72 9.93 -0.00 -0.04 0.10 11269
0.10 1.34 0.66 -0.77 9.93 -0.00 -0.04 0.10 11276
0.10 1.35 0.62 -0.77 9.94 -0.01 -0.04 0.10 11282
0.11 1.35 0.68 -0.73 9.98 -0.00 -0.04 0.10 11288
0.11 1.35 0.67 -0.79 9.94 -0.00 -0.04 0.10 11294
0.10 1.35 0.70 -0.76 9.92 -0.01 -0.04 0.10 11300
0.11 1.35 0.64 -0.76 9.94 -0.01 -0.04 0.10 11308
0.11 1.34 0.68 -0.74 9.93 -0.01 -0.04 0.10 11314
0.10 1.35 0.65 -0.75 9.96 -0.01 -0.04 0.10 11320
0.11 1.35 0.64 -0.76 9.93 -0.01 -0.04 0.10 11326
0.10 1.34 0.68 -0.77 9.93 -0.01 -0.04 0.10 11332
0.10 1.35 0.68 -0.77 9.91 -0.01 -0.04 0.10 11339
0.10 1.35 0.69 -0.77 9.92 -0.00 -0.04 0.10 11345
0.11 1.34 0.66 -0.79 10.00 -0.00 -0.04 0.11 11352
0.10 1.36 0.65 -0.74 9.95 -0.00 -0.04 0.10 11358
0.11 1.35 0.69 -0.75 9.91 -0.01 -0.04 0.10 11364
0.10 1.35 0.64 -0.77 9.98 -0.01 -0.04 0.11 11371
0.10 1.37 0.65 -0.74 9.94 -0.00 -0.04 0.11 11377
0.10 1.36 0.66 -0.73 9.96 -0.01 -0.04 0.09 11383
0.10 1.35 0.65 -0.75 9.93 -0.01 -0.04 0.10 11389
0.10 1.37 0.65 -0.78 9.96 -0.00 -0.04 0.10 11396
0.11 1.36 0.66 -0.75 9.97 -0.01 -0.04 0.10 11403
0.09 1.36 0.66 -0.76 9.93 -0.01 -0.04 0.10 11409
0.11 1.36 0.68 -0.75 9.95 -0.01 -0.04 0.10 11415
0.11 1.36 0.68 -0.73 9.94 -0.01 -0.04 0.10 11421
0.09 1.37 0.65 -0.76 9.93 -0.01 -0.04 0.10 11427
0.11 1.38 0.67 -0.73 9.96 -0.01 -0.04 0.10 11435
0.11 1.39 0.66 -0.75 9.92 -0.01 -0.04 0.10 11441
0.09 1.39 0.67 -0.75 9.97 -0.00 -0.04 0.10 11447
0.12 1.39 0.66 -0.76 9.91 -0.01 -0.04 0.10 11453
0.10 1.39 0.64 -0.75 9.97 -0.00 -0.04 0.10 11459
0.10 1.40 0.65 -0.74 9.97 -0.01 -0.04 0.11 11466
0.11 1.41 0.68 -0.76 9.96 -0.01 -0.04 0.13 11472
0.10 1.40 0.69 -0.74 9.95 -0.01 -0.04 0.09 11479
0.10 1.41 0.65 -0.73 9.95 -0.01 -0.04 0.10 11485
0.10 1.41 0.65 -0.73 9.96 -0.00 -0.04 0.10 11491
0.11 1.39 0.62 -0.76 9.97 -0.01 -0.04 0.10 11498
0.10 1.40 0.66 -0.76 9.95 -0.00 -0.04 0.10 11504
0.11 1.40 0.67 -0.74 9.91 -0.01 -0.04 0.10 11510
0.10 1.40 0.64 -0.75 9.95 -0.00 -0.04 0.10 11516
0.10 1.41 0.66 -0.75 9.92 -0.00 -0.04 0.10 11523
0.09 1.41 0.68 -0.77 9.98 -0.01 -0.04 0.10 11530
0.09 1.40 0.70 -0.79 9.92 -0.00 -0.04 0.10 11536
0.09 1.42 0.67 -0.77 9.96 -0.01 -0.04 0.10 11542
0.10 1.42 0.68 -0.73 9.95 -0.01 -0.04 0.09 11548
0.08 1.42 0.69 -0.76 9.97 -0.00 -0.04 0.10 11554
0.08 1.42 0.69 -0.74 9.95 -0.01 -0.04 0.10 11560
0.09 1.42 0.66 -0.76 9.94 -0.01 -0.04 0.10 11568
0.07 1.41 0.68 -0.75 9.92 -0.00 -0.04 0.10 11574
0.09 1.42 0.67 -0.75 9.96 -0.01 -0.04 0.10 11580
0.09 1.40 0.69 -0.74 9.91 -0.01 -0.04 0.11 11586
0.07 1.42 0.64 -0.77 9.96 -0.01 -0.04 0.10 11592
0.08 1.43 0.68 -0.75 9.96 -0.00 -0.04 0.10 11599
0.09 1.42 0.68 -0.76 9.91 -0.01 -0.04 0.10 11606
0.07 1.42 0.64 -0.74 9.96 -0.01 -0.04 0.10 11612
0.09 1.43 0.64 -0.80 9.93 -0.01 -0.04 0.10 11618
0.08 1.42 0.68 -0.76 9.95 -0.00 -0.04 0.09 11624
0.08 1.41 0.68 -0.71 9.94 -0.00 -0.04 0.10 11631
0.09 1.42 0.68 -0.74 9.95 -0.00 -0.04 0.10 11637
0.09 1.42 0.67 -0.77 9.93 -0.01 -0.04 0.13 11643
0.08 1.42 0.68 -0.75 9.96 -0.01 -0.04 0.10 11650
0.09 1.42 0.68 -0.75 9.98 -0.00 -0.04 0.10 11656
0.09 1.42 0.67 -0.76 9.92 -0.01 -0.04 0.09 11663
0.09 1.43 0.71 -0.78 9.92 -0.00 -0.04 0.11 11669
0.10 1.43 0.66 -0.74 9.96 -0.01 -0.04 0.10 11675
0.09 1.43 0.67 -0.77 9.93 -0.01 -0.04 0.10 11681
0.09 1.44 0.70 -0.76 9.96 -0.01 -0.04 0.10 11687
0.09 1.43 0.63 -0.76 9.97 -0.01 -0.04 0.10 11695
0.09 1.42 0.64 -0.73 9.94 -0.01 -0.04 0.10 11701
0.08 1.44 0.65 -0.77 9.95 -0.00 -0.04 0.10 11707
0.09 1.44 0.66 -0.73 9.95 -0.00 -0.04 0.10 11713
0.08 1.44 0.68 -0.78 9.96 -0.01 -0.04 0.10 11719
0.08 1.45 0.66 -0.75 9.98 -0.00 -0.04 0.10 11726
0.09 1.45 0.68 -0.76 9.94 -0.00 -0.04 0.10 11732
0.08 1.45 0.65 -0.78 9.95 -0.01 -0.04 0.10 11739
0.08 1.46 0.71 -0.74 9.93 -0.00 -0.04 0.10 11745
0.07 1.45 0.63 -0.77 9.95 -0.00 -0.04 0.10 11751
0.07 1.44 0.67 -0.76 9.95 -0.00 -0.04 0.10 11757
0.08 1.46 0.65 -0.73 9.94 -0.01 -0.04 0.09 11764
0.08 1.46 0.62 -0.77 9.94 -0.01 -0.04 0.10 11770
0.06 1.45 0.66 -0.74 9.94 -0.01 -0.04 0.10 11777
0.08 1.45 0.67 -0.74 9.95 -0.01 -0.04 0.10 11783
0.07 1.45 0.68 -0.75 9.95 -0.00 -0.04 0.10 11789
0.07 1.45 0.64 -0.77 9.96 -0.00 -0.04 0.10 11796
0.07 1.46 0.68 -0.75 9.91 -0.00 -0.04 0.10 11802
0.08 1.44 0.69 -0.78 9.95 -0.01 -0.04 0.10 11808
0.06 1.46 0.69 -0.75 9.97 -0.01 -0.04 0.10 11814
0.08 1.46 0.68 -0.75 9.95 -0.01 -0.04 0.10 11821
0.07 1.47 0.64 -0.76 9.93 -0.00 -0.04 0.10 11828
0.06 1.48 0.68 -0.75 9.94 -0.00 -0.04 0.10 11834
0.07 1.48 0.69 -0.74 9.97 -0.01 -0.04 0.10 11840
0.07 1.49 0.68 -0.77 9.97 -0.01 -0.04 0.10 11846
0.05 1.49 0.65 -0.75 9.98 -0.01 -0.04 0.10 11852
0.05 1.50 0.71 -0.74 9.92 -0.00 -0.04 0.10 11859
0.06 1.49 0.66 -0.75 9.94 -0.01 -0.04 0.09 11866
0.04 1.48 0.66 -0.75 9.95 -0.00 -0.04 0.10 11872
0.05 1.49 0.69 -0.74 9.94 -0.01 -0.04 0.09 11878
0.06 1.48 0.67 -0.73 9.93 -0.00 -0.04 0.10 11884
0.04 1.48 0.70 -0.75 9.97 -0.00 -0.03 0.10 11890
0.05 1.48 0.65 -0.75 9.96 -0.00 -0.03 0.10 11897
0.05 1.49 0.69 -0.76 9.92 -0.00 -0.04 0.10 11904
0.04 1.48 0.65 -0.77 9.95 -0.01 -0.04 0.10 11910
0.05 1.49 0.67 -0.76 9.94 -0.01 -0.04 0.10 11916
0.05 1.49 0.67 -0.77 9.96 -0.00 -0.03 0.10 11922
0.03 1.47 0.68 -0.75 9.93 -0.01 -0.04 0.09 11929
0.04 1.49 0.67 -0.74 9.95 -0.00 -0.04 0.10 11935
0.04 1.47 0.67 -0.79 9.93 -0.01 -0.04 0.10 11941
0.04 1.47 0.66 -0.78 9.95 -0.01 -0.04 0.10 11948
0.05 1.49 0.67 -0.76 9.92 -0.00 -0.04 0.10 11954
0.04 1.49 0.69 -0.75 9.95 -0.01 -0.04 0.10 11961
0.03 1.48 0.68 -0.77 9.97 -0.00 -0.04 0.10 11967
0.06 1.47 0.65 -0.74 9.95 -0.00 -0.04 0.10 11973
0.05 1.47 0.65 -0.74 9.94 -0.00 -0.04 0.09 11979
0.03 1.48 0.65 -0.79 9.91 -0.00 -0.04 0.10 11985
0.04 1.49 0.65 -0.74 9.93 -0.00 -0.04 0.10 11993
0.03 1.49 0.66 -0.75 9.96 -0.01 -0.04 0.10 11999
0.03 1.49 0.66 -0.75 9.91 -0.00 -0.04 0.09 12005
0.05 1.50 0.69 -0.75 9.96 -0.00 -0.04 0.09 12011
0.03 1.49 0.65 -0.74 9.95 -0.00 -0.04 0.10 12017
0.02 1.49 0.66 -0.75 9.92 -0.01 -0.04 0.10 12023
0.06 1.50 0.66 -0.77 9.95 -0.01 -0.04 0.10 12030
0.03 1.49 0.66 -0.75 9.94 -0.00 -0.04 0.10 12037
0.03 1.50 0.64 -0.76 9.92 -0.01 -0.04 0.09 12043
0.04 1.50 0.66 -0.78 9.95 -0.00 -0.04 0.10 12049
0.04 1.50 0.68 -0.76 9.94 -0.01 -0.03 0.10 12055
0.03 1.50 0.68 -0.75 10.00 -0.01 -0.04 0.10 12062
0.04 1.50 0.65 -0.76 9.94 -0.01 -0.04 0.09 12068
0.04 1.49 0.65 -0.78 9.95 -0.01 -0.04 0.10 12075
0.04 1.50 0.66 -0.76 9.97 -0.00 -0.04 0.10 12081
0.04 1.50 0.69 -0.76 9.94 -0.00 -0.04 0.09 12087
0.04 1.49 0.66 -0.74 9.96 -0.00 -0.03 0.10 12094
0.04 1.50 0.67 -0.73 9.93 -0.00 -0.04 0.09 12100
0.04 1.50 0.66 -0.74 9.94 -0.00 -0.04 0.09 12106
0.04 1.49 0.66 -0.75 9.93 -0.00 -0.04 0.10 12112
0.03 1.50 0.66 -0.76 9.95 -0.01 -0.04 0.10 12119
0.03 1.51 0.66 -0.75 9.95 -0.00 -0.04 0.09 12126
0.04 1.50 0.65 -0.79 9.97 -0.00 -0.04 0.10 12132
0.04 1.50 0.63 -0.76 9.89 -0.01 -0.04 0.10 12138
0.05 1.50 0.66 -0.76 9.95 -0.01 -0.04 0.10 12144
0.04 1.49 0.67 -0.77 9.89 -0.00 -0.04 0.09 12150
0.04 1.50 0.66 -0.76 9.94 -0.01 -0.04 0.10 12156
0.04 1.50 0.66 -0.75 9.94 -0.01 -0.04 0.09 12164
0.02 1.49 0.66 -0.75 9.93 -0.00 -0.04 0.10 12170
0.03 1.50 0.64 -0.76 9.94 -0.01 -0.04 0.10 12176
0.04 1.50 0.66 -0.79 9.93 -0.00 -0.04 0.10 12182
0.03 1.49 0.67 -0.76 9.98 -0.01 -0.04 0.10 12188
0.04 1.50 0.65 -0.74 9.91 -0.00 -0.04 0.10 12195
0.04 1.50 0.66 -0.78 9.95 -0.00 -0.04 0.10 12201
0.04 1.49 0.65 -0.75 9.93 -0.00 -0.04 0.09 12208
0.05 1.50 0.66 -0.79 9.95 -0.01 -0.04 0.10 12214
0.06 1.48 0.68 -0.78 9.91 -0.00 -0.04 0.10 12220
0.06 1.47 0.69 -0.77 9.92 -0.01 -0.04 0.10 12227
0.07 1.49 0.66 -0.75 9.91 -0.00 -0.04 0.10 12233
0.07 1.47 0.68 -0.76 9.93 -0.00 -0.04 0.10 12239
0.06 1.47 0.67 -0.78 9.95 -0.00 -0.04 0.10 12246
0.06 1.47 0.68 -0.78 9.96 -0.01 -0.04 0.10 12252
0.07 1.46 0.67 -0.76 9.99 -0.01 -0.04 0.10 12259
0.06 1.46 0.68 -0.74 9.95 -0.01 -0.04 0.09 12265
0.07 1.46 0.69 -0.80 9.93 -0.01 -0.04 0.10 12271
0.08 1.45 0.66 -0.76 9.96 -0.00 -0.04 0.10 12277
0.06 1.45 0.68 -0.75 9.96 -0.01 -0.03 0.10 12283
0.08 1.46 0.67 -0.77 9.96 -0.00 -0.03 0.09 12290
0.07 1.44 0.65 -0.76 9.94 -0.01 -0.04 0.10 12297
0.07 1.44 0.67 -0.78 9.97 -0.00 -0.04 0.09 12303
0.09 1.44 0.67 -0.74 10.00 -0.00 -0.04 0.10 12309
0.07 1.44 0.67 -0.72 9.98 -0.00 -0.04 0.10 12315
0.07 1.43 0.65 -0.74 9.91 -0.00 -0.03 0.09 12322
0.08 1.44 0.69 -0.72 9.93 -0.01 -0.03 0.09 12328
0.08 1.43 0.67 -0.80 9.91 -0.01 -0.04 0.09 12335
0.07 1.43 0.67 -0.74 9.94 -0.00 -0.04 0.10 12341
0.09 1.42 0.67 -0.78 9.94 -0.01 -0.04 0.09 12347
0.07 1.42 0.65 -0.78 9.96 -0.00 -0.04 0.10 12353
0.08 1.42 0.64 -0.75 9.94 -0.00 -0.04 0.10 12360
0.09 1.41 0.69 -0.75 9.96 -0.00 -0.04 0.10 12366
0.09 1.40 0.66 -0.76 9.94 -0.01 -0.04 0.10 12372
0.08 1.41 0.66 -0.76 9.95 -0.00 -0.03 0.10 12379
0.09 1.41 0.64 -0.74 9.97 -0.00 -0.03 0.10 12385
0.09 1.39 0.70 -0.75 9.93 -0.00 -0.04 0.10 12392
0.08 1.40 0.67 -0.74 9.95 -0.00 -0.03 0.10 12398
0.09 1.39 0.67 -0.77 9.90 -0.00 -0.04 0.10 12404
0.09 1.38 0.66 -0.77 9.95 -0.00 -0.04 0.13 12410
0.08 1.39 0.63 -0.72 9.94 -0.00 -0.04 0.10 12417
0.09 1.38 0.67 -0.76 9.95 -0.01 -0.04 0.10 12424
0.09 1.38 0.68 -0.75 9.95 -0.00 -0.04 0.11 12430
0.09 1.39 0.67 -0.74 9.93 -0.00 -0.03 0.10 12436
0.09 1.38 0.68 -0.78 9.95 -0.00 -0.04 0.10 12442
0.09 1.37 0.64 -0.77 9.93 -0.01 -0.03 0.10 12448
0.10 1.38 0.67 -0.77 9.94 -0.00 -0.04 0.09 12455
0.09 1.38 0.68 -0.77 9.95 -0.00 -0.04 0.10 12462
0.10 1.36 0.68 -0.77 9.93 -0.01 -0.04 0.10 12468
0.09 1.37 0.64 -0.77 9.97 -0.00 -0.04 0.11 12474
0.10 1.37 0.69 -0.77 9.97 -0.00 -0.04 0.10 12480
0.10 1.35 0.68 -0.75 9.91 -0.00 -0.03 0.09 12486
0.10 1.36 0.68 -0.74 9.94 -0.00 -0.04 0.10 12493
0.10 1.34 0.67 -0.76 9.98 -0.01 -0.04 0.10 12499
0.10 1.34 0.65 -0.76 9.93 -0.01 -0.04 0.10 12506
0.11 1.35 0.66 -0.76 9.97 -0.00 -0.04 0.10 12512
0.10 1.34 0.67 -0.75 9.93 -0.01 -0.04 0.10 12518
0.10 1.33 0.69 -0.76 9.91 -0.00 -0.04 0.10 12525
0.10 1.34 0.64 -0.76 9.94 -0.01 -0.04 0.10 12531
0.10 1.34 0.68 -0.75 9.94 -0.00 -0.04 0.10 12537
0.09 1.34 0.68 -0.75 9.95 -0.01 -0.04 0.10 12544
0.10 1.34 0.70 -0.80 9.92 -0.00 -0.04 0.10 12550
0.10 1.33 0.68 -0.73 9.98 -0.00 -0.04 0.10 12557
0.09 1.34 0.70 -0.76 9.93 -0.01 -0.04 0.10 12563
0.11 1.35 0.65 -0.75 9.93 -0.01 -0.04 0.10 12569
0.10 1.34 0.68 -0.75 9.98 -0.00 -0.04 0.11 12575
0.10 1.34 0.66 -0.78 9.94 -0.00 -0.04 0.10 12581
0.12 1.33 0.69 -0.75 9.95 -0.01 -0.04 0.10 12589
0.11 1.33 0.68 -0.77 9.92 -0.00 -0.04 0.13 12595
0.11 1.33 0.66 -0.75 9.94 -0.00 -0.04 0.10 12601
0.12 1.32 0.68 -0.77 9.94 -0.01 -0.04 0.10 12607
0.11 1.32 0.68 -0.74 9.94 -0.01 -0.04 0.10 12613
0.11 1.32 0.68 -0.78 9.96 -0.01 -0.04 0.10 12620
0.12 1.33 0.68 -0.78 9.93 -0.00 -0.04 0.11 12626
0.11 1.32 0.69 -0.75 9.92 -0.01 -0.04 0.10 12633
0.11 1.33 0.68 -0.76 9.96 -0.01 -0.04 0.10 12639
0.12 1.33 0.67 -0.75 9.93 -0.00 -0.04 0.10 12645
0.12 1.32 0.64 -0.75 9.92 -0.00 -0.04 0.09 12652
0.13 1.33 0.69 -0.73 9.95 -0.00 -0.03 0.10 12658
0.12 1.33 0.67 -0.74 9.93 -0.00 -0.04 0.10 12664
0.12 1.32 0.68 -0.75 9.96 -0.01 -0.04 0.10 12670
0.12 1.33 0.66 -0.74 9.95 -0.01 -0.04 0.10 12677
0.12 1.32 0.67 -0.76 9.94 -0.01 -0.04 0.10 12684
0.11 1.32 0.70 -0.75 9.97 -0.00 -0.04 0.10 12690
0.13 1.33 0.67 -0.77 9.95 -0.00 -0.04 0.10 12696
0.13 1.32 0.68 -0.74 9.92 -0.01 -0.04 0.10 12702
0.12 1.32 0.65 -0.72 9.94 -0.01 -0.04 0.10 12708
0.14 1.33 0.68 -0.75 9.93 -0.01 -0.04 0.09 12716
0.13 1.33 0.68 -0.74 9.91 -0.01 -0.04 0.10 12722
0.12 1.33 0.67 -0.75 9.96 -0.01 -0.04 0.10 12728
0.14 1.33 0.70 -0.78 9.92 -0.00 -0.04 0.10 12734
0.12 1.33 0.68 -0.74 9.94 -0.01 -0.04 0.10 12740
0.12 1.33 0.65 -0.77 9.95 -0.00 -0.04 0.10 12747
0.13 1.33 0.70 -0.74 9.90 -0.01 -0.04 0.10 12753
0.13 1.33 0.66 -0.77 9.97 -0.00 -0.04 0.10 12760
0.13 1.33 0.68 -0.74 9.90 -0.01 -0.04 0.10 12766
0.13 1.33 0.67 -0.77 9.97 -0.01 -0.04 0.10 12772
0.13 1.33 0.69 -0.77 9.93 -0.00 -0.04 0.10 12779
0.13 1.34 0.67 -0.77 9.94 -0.01 -0.04 0.10 12785
0.13 1.34 0.66 -0.75 9.92 0.00 -0.04 0.10 12791
0.12 1.33 0.66 -0.73 9.93 -0.01 -0.04 0.10 12797
0.13 1.34 0.68 -0.75 9.98 -0.00 -0.04 0.10 12804
0.13 1.33 0.67 -0.73 9.94 -0.00 -0.04 0.10 12811
0.12 1.33 0.64 -0.76 9.93 -0.00 -0.04 0.11 12817
0.13 1.35 0.66 -0.74 9.94 -0.01 -0.04 0.10 12823
0.13 1.34 0.66 -0.73 9.96 -0.01 -0.04 0.10 12829
0.12 1.34 0.68 -0.76 9.93 -0.00 -0.04 0.10 12835
0.13 1.34 0.65 -0.75 9.91 -0.00 -0.04 0.10 12843
0.12 1.34 0.67 -0.75 9.94 -0.00 -0.04 0.10 12849
0.13 1.33 0.67 -0.74 9.96 -0.01 -0.04 0.10 12855
0.13 1.34 0.66 -0.71 9.93 -0.01 -0.04 0.10 12861
0.13 1.34 0.66 -0.74 9.97 -0.01 -0.04 0.10 12867
0.13 1.34 0.66 -0.77 9.93 -0.01 -0.04 0.10 12874
0.13 1.34 0.66 -0.76 9.94 -0.00 -0.04 0.10 12880
0.13 1.34 0.69 -0.74 9.96 -0.01 -0.04 0.10 12887
0.13 1.35 0.64 -0.75 9.94 -0.00 -0.04 0.10 12893
0.14 1.34 0.66 -0.75 9.94 -0.01 -0.04 0.10 12899
0.12 1.34 0.69 -0.77 9.91 -0.00 -0.04 0.10 12906
0.13 1.35 0.68 -0.78 9.95 -0.00 -0.04 0.10 12912
0.13 1.35 0.66 -0.75 9.95 -0.00 -0.04 0.10 12918
0.13 1.34 0.68 -0.73 9.93 -0.01 -0.04 0.10 12924
0.13 1.35 0.66 -0.78 9.93 -0.00 -0.04 0.10 12931
0.13 1.35 0.66 -0.76 9.95 -0.00 -0.04 0.10 12938
0.12 1.34 0.66 -0.76 9.99 -0.01 -0.04 0.09 12944
0.13 1.36 0.67 -0.74 9.95 -0.01 -0.04 0.10 12950
0.13 1.35 0.65 -0.73 9.94 -0.01 -0.04 0.10 12956
0.12 1.35 0.67 -0.78 9.91 -0.01 -0.04 0.10 12962
0.13 1.36 0.65 -0.78 9.92 -0.00 -0.04 0.10 12969
0.13 1.35 0.66 -0.74 9.93 -0.01 -0.04 0.10 12976
0.12 1.35 0.66 -0.77 9.93 -0.01 -0.04 0.10 12982
0.14 1.36 0.69 -0.73 9.92 -0.01 -0.04 0.11 12988
0.13 1.35 0.67 -0.76 9.96 -0.01 -0.04 0.10 12994
0.12 1.35 0.64 -0.75 9.93 -0.01 -0.04 0.10 13001
0.13 1.36 0.67 -0.72 9.97 -0.01 -0.04 0.10 13007
0.13 1.35 0.65 -0.76 9.97 -0.00 -0.03 0.10 13014
0.12 1.35 0.67 -0.75 9.90 -0.00 -0.04 0.10 13020
0.14 1.36 0.65 -0.73 9.96 -0.01 -0.04 0.10 13026
0.13 1.35 0.66 -0.76 9.94 -0.00 -0.04 0.10 13033
0.13 1.37 0.68 -0.76 9.93 -0.01 -0.04 0.10 13039
0.13 1.36 0.67 -0.79 9.94 -0.01 -0.04 0.10 13045
0.13 1.36 0.67 -0.77 9.92 -0.01 -0.04 0.10 13051
0.12 1.38 0.70 -0.77 9.96 -0.00 -0.03 0.09 13058
0.13 1.36 0.67 -0.75 9.96 -0.01 -0.04 0.10 13065
0.12 1.36 0.67 -0.73 10.03 -0.00 -0.04 0.10 13071
0.13 1.37 0.64 -0.76 9.96 -0.00 -0.04 0.10 13077
0.12 1.37 0.69 -0.75 9.94 -0.00 -0.04 0.10 13083
0.11 1.37 0.68 -0.74 9.92 -0.01 -0.03 0.10 13090
0.13 1.37 0.69 -0.77 9.94 -0.00 -0.04 0.10 13096
0.12 1.37 0.69 -0.75 9.94 -0.01 -0.04 0.10 13103
0.12 1.37 0.70 -0.77 9.94 -0.01 -0.04 0.10 13109
0.13 1.39 0.67 -0.75 9.96 -0.00 -0.04 0.10 13115
0.12 1.38 0.65 -0.77 9.95 -0.01 -0.04 0.10 13122
0.11 1.39 0.69 -0.77 9.95 -0.01 -0.04 0.10 13128
0.13 1.39 0.69 -0.75 9.94 -0.01 -0.04 0.10 13134
0.12 1.39 0.68 -0.76 9.91 -0.01 -0.04 0.10 13140
0.11 1.40 0.67 -0.74 9.93 -0.01 -0.04 0.10 13147
0.12 1.40 0.69 -0.76 9.95 -0.00 -0.04 0.10 13154
0.11 1.40 0.66 -0.76 9.95 -0.01 -0.04 0.10 13160
0.11 1.42 0.70 -0.78 9.91 -0.01 -0.04 0.10 13166
0.11 1.41 0.66 -0.77 9.97 -0.01 -0.04 0.09 13172
0.11 1.41 0.64 -0.76 9.94 -0.01 -0.04 0.09 13178
0.11 1.43 0.67 -0.75 9.90 -0.01 -0.04 0.10 13186
0.11 1.42 0.68 -0.76 9.91 -0.01 -0.04 0.10 13192
0.10 1.42 0.67 -0.76 9.93 -0.01 -0.04 0.10 13198
0.12 1.43 0.69 -0.74 9.94 -0.01 -0.04 0.10 13204
0.11 1.43 0.68 -0.74 9.94 -0.01 -0.04 0.10 13210
0.11 1.44 0.71 -0.74 9.95 -0.01 -0.04 0.10 13217
0.12 1.44 0.67 -0.77 9.91 -0.01 -0.04 0.10 13223
0.11 1.44 0.67 -0.78 9.95 -0.01 -0.04 0.10 13230
0.10 1.45 0.70 -0.75 9.93 -0.01 -0.04 0.09 13236
0.11 1.45 0.64 -0.76 9.94 0.03 -0.04 0.10 13242
0.11 1.44 0.71 -0.75 9.92 -0.00 -0.04 0.10 13249
0.11 1.45 0.66 -0.74 9.91 -0.01 -0.04 0.09 13255
0.11 1.45 0.68 -0.72 9.91 -0.01 -0.04 0.10 13261
0.11 1.44 0.68 -0.74 9.98 -0.00 -0.04 0.10 13267
0.10 1.46 0.68 -0.75 9.94 -0.01 -0.04 0.11 13274
0.11 1.45 0.68 -0.75 9.97 -0.00 -0.04 0.10 13281
0.09 1.45 0.68 -0.74 9.94 -0.01 -0.03 0.10 13287
0.11 1.46 0.70 -0.76 9.95 -0.00 -0.04 0.10 13293
0.11 1.45 0.66 -0.74 9.96 -0.00 -0.04 0.10 13299
0.09 1.45 0.70 -0.72 9.94 -0.01 -0.04 0.10 13305
0.11 1.46 0.69 -0.76 9.95 -0.01 -0.04 0.11 13313
0.11 1.45 0.68 -0.74 9.94 -0.01 -0.04 0.09 13319
0.10 1.46 0.69 -0.76 9.97 -0.01 -0.04 0.09 13325
0.11 1.46 0.71 -0.75 9.93 -0.01 -0.04 0.10 13331
0.10 1.46 0.70 -0.75 9.95 -0.00 -0.04 0.10 13337
0.09 1.46 0.68 -0.76 9.97 -0.00 -0.04 0.10 13344
0.11 1.47 0.63 -0.74 9.93 -0.01 -0.04 0.10 13350
0.10 1.46 0.67 -0.77 9.92 -0.01 -0.04 0.10 13357
0.09 1.47 0.68 -0.72 9.88 -0.01 -0.04 0.10 13363
0.10 1.47 0.68 -0.73 9.97 -0.01 -0.04 0.10 13369
0.10 1.46 0.69 -0.78 9.88 -0.01 -0.04 0.10 13376
0.09 1.47 0.72 -0.76 9.90 -0.01 -0.04 0.07 13382
0.10 1.46 0.71 -0.74 9.93 -0.01 -0.04 0.10 13388
0.10 1.45 0.66 -0.75 9.98 -0.01 -0.04 0.10 13394
0.09 1.47 0.70 -0.74 9.96 -0.00 -0.04 0.10 13401
0.09 1.47 0.63 -0.80 9.93 -0.00 -0.04 0.10 13408
0.09 1.46 0.66 -0.76 9.96 -0.01 -0.03 0.10 13414
0.09 1.48 0.69 -0.75 9.94 -0.00 -0.04 0.10 13420
0.09 1.48 0.66 -0.76 9.94 -0.01 -0.04 0.10 13426
0.09 1.48 0.65 -0.79 9.98 -0.00 -0.04 0.10 13432
0.09 1.48 0.68 -0.79 9.95 -0.01 -0.04 0.10 13440
0.09 1.48 0.67 -0.76 9.96 -0.01 -0.04 0.10 13446
0.08 1.48 0.67 -0.77 9.92 -0.01 -0.04 0.10 13452
0.09 1.49 0.68 -0.77 9.95 -0.01 -0.04 0.10 13458
0.09 1.49 0.68 -0.77 9.91 -0.01 -0.04 0.10 13464
0.07 1.49 0.65 -0.77 9.96 -0.01 -0.04 0.10 13470
0.08 1.51 0.68 -0.76 9.98 -0.01 -0.04 0.10 13477
0.08 1.51 0.69 -0.73 9.95 -0.01 -0.04 0.10 13484
0.06 1.51 0.67 -0.77 9.96 -0.00 -0.04 0.10 13490
0.07 1.52 0.67 -0.77 9.97 -0.01 -0.04 0.10 13496
0.08 1.50 0.68 -0.73 9.94 -0.01 -0.04 0.10 13502
0.07 1.52 0.69 -0.77 9.96 -0.00 -0.04 0.10 13509
0.09 1.51 0.66 -0.77 9.92 -0.00 -0.04 0.10 13515
0.08 1.51 0.68 -0.75 9.94 -0.00 -0.04 0.10 13521
0.07 1.51 0.63 -0.73 9.99 -0.00 -0.04 0.09 13528
0.09 1.50 0.71 -0.74 9.94 -0.01 -0.04 0.10 13534
0.07 1.50 0.67 -0.75 9.90 -0.00 -0.04 0.10 13541
0.07 1.50 0.68 -0.75 9.89 -0.01 -0.04 0.10 13547
0.08 1.50 0.68 -0.74 9.98 -0.01 -0.04 0.13 13553
0.08 1.49 0.69 -0.75 9.93 -0.01 -0.04 0.10 13559
0.08 1.49 0.68 -0.75 9.93 -0.00 -0.04 0.10 13565
0.09 1.49 0.69 -0.75 9.92 -0.00 -0.04 0.10 13573
0.08 1.49 0.66 -0.77 9.93 -0.01 -0.04 0.10 13579
0.06 1.50 0.67 -0.74 9.96 -0.01 -0.04 0.10 13585
0.08 1.51 0.70 -0.76 9.92 -0.01 -0.04 0.10 13591
0.08 1.51 0.68 -0.75 9.93 -0.01 -0.04 0.09 13597
0.08 1.51 0.65 -0.74 9.95 -0.01 -0.04 0.10 13604
0.10 1.51 0.64 -0.75 9.94 -0.00 -0.04 0.10 13611
0.08 1.51 0.66 -0.74 9.98 -0.00 -0.04 0.09 13617
0.08 1.52 0.68 -0.76 9.96 -0.01 -0.04 0.10 13623
0.09 1.52 0.68 -0.76 9.88 -0.01 -0.04 0.10 13629
0.08 1.52 0.69 -0.72 9.93 -0.00 -0.04 0.10 13635
0.07 1.52 0.65 -0.76 9.94 -0.00 -0.04 0.10 13642
0.08 1.52 0.69 -0.74 9.92 -0.00 -0.04 0.10 13648
0.08 1.51 0.68 -0.73 9.91 -0.00 -0.04 0.10 13655
0.07 1.52 0.68 -0.74 9.92 -0.01 -0.04 0.10 13661
0.09 1.52 0.67 -0.75 9.94 -0.01 -0.04 0.10 13667
0.08 1.52 0.66 -0.74 9.95 -0.00 -0.04 0.10 13674
0.07 1.54 0.66 -0.76 9.92 -0.01 -0.04 0.10 13680
0.07 1.54 0.67 -0.74 9.94 -0.01 -0.04 0.10 13686
0.07 1.54 0.68 -0.74 9.99 -0.01 -0.04 0.10 13692
0.08 1.55 0.70 -0.74 9.93 -0.01 -0.04 0.09 13699
0.08 1.54 0.67 -0.78 9.95 -0.01 -0.04 0.10 13706
0.07 1.54 0.65 -0.74 9.88 -0.01 -0.04 0.09 13712
0.07 1.56 0.66 -0.76 9.95 -0.01 -0.04 0.10 13718
0.07 1.56 0.64 -0.76 9.94 -0.00 -0.04 0.10 13724
0.07 1.55 0.68 -0.76 9.93 -0.01 -0.04 0.10 13730
0.08 1.57 0.66 -0.75 9.94 -0.01 -0.04 0.10 13737
0.08 1.55 0.70 -0.77 9.92 -0.00 -0.04 0.10 13744
0.06 1.55 0.63 -0.75 9.97 -0.01 -0.04 0.10 13750
0.07 1.57 0.69 -0.74 9.94 -0.01 -0.04 0.09 13756
0.06 1.57 0.65 -0.79 9.98 -0.01 -0.04 0.10 13762
0.06 1.56 0.67 -0.75 9.96 -0.00 -0.04 0.10 13769
0.06 1.57 0.64 -0.79 9.97 -0.01 -0.04 0.09 13775
0.07 1.56 0.67 -0.74 9.98 -0.01 -0.03 0.09 13782
0.06 1.57 0.69 -0.74 9.89 -0.01 -0.03 0.09 13788
0.07 1.58 0.68 -0.74 9.95 -0.01 -0.04 0.10 13794
0.06 1.58 0.68 -0.75 9.94 -0.01 -0.04 0.10 13801
0.05 1.58 0.67 -0.78 9.90 -0.01 -0.04 0.10 13807
0.06 1.58 0.67 -0.76 9.93 -0.01 -0.04 0.10 13813
0.05 1.57 0.68 -0.73 9.93 -0.00 -0.04 0.10 13819
0.04 1.57 0.65 -0.75 9.96 -0.00 -0.04 0.10 13826
0.06 1.57 0.66 -0.76 9.96 -0.01 -0.04 0.10 13833
0.06 1.56 0.68 -0.73 9.92 -0.01 -0.04 0.10 13839
0.05 1.56 0.67 -0.76 9.95 -0.01 -0.04 0.10 13845
0.06 1.55 0.67 -0.77 9.90 -0.00 -0.04 0.10 13851
0.05 1.54 0.68 -0.71 9.94 -0.01 -0.04 0.10 13857
0.05 1.54 0.68 -0.75 9.94 -0.01 -0.04 0.10 13863
0.06 1.55 0.66 -0.73 9.93 -0.00 -0.04 0.10 13871
0.05 1.54 0.69 -0.75 9.88 -0.01 -0.04 0.09 13877
0.05 1.55 0.69 -0.78 9.92 -0.01 -0.04 0.10 13883
0.05 1.54 0.65 -0.73 9.94 -0.00 -0.04 0.09 13889
0.04 1.55 0.67 -0.76 9.92 -0.00 -0.04 0.10 13895
0.04 1.55 0.66 -0.74 9.99 -0.01 -0.04 0.10 13902
0.05 1.55 0.70 -0.75 9.94 -0.00 -0.03 0.10 13908
0.04 1.53 0.68 -0.78 9.95 -0.01 -0.03 0.10 13915
0.04 1.54 0.69 -0.75 9.95 -0.00 -0.04 0.10 13921
0.04 1.55 0.68 -0.72 9.93 -0.01 -0.04 0.09 13927
0.04 1.53 0.69 -0.77 9.95 -0.00 -0.03 0.09 13934
0.05 1.52 0.66 -0.77 9.91 -0.00 -0.04 0.10 13940
0.05 1.52 0.68 -0.77 9.95 -0.00 -0.04 0.10 13946
0.04 1.52 0.70 -0.79 9.96 -0.00 -0.04 0.10 13953
0.04 1.52 0.69 -0.76 9.99 -0.00 -0.04 0.10 13959
0.04 1.52 0.66 -0.73 9.92 -0.00 -0.04 0.10 13965
0.04 1.51 0.70 -0.77 9.99 -0.00 -0.04 0.09 13972
0.05 1.51 0.68 -0.75 9.90 -0.01 -0.04 0.10 13978
0.04 1.51 0.66 -0.76 9.96 -0.01 -0.04 0.10 13984
0.03 1.50 0.68 -0.74 9.95 -0.00 -0.04 0.10 13990
0.03 1.51 0.68 -0.72 9.93 -0.01 -0.04 0.10 13997
0.03 1.51 0.67 -0.75 9.97 -0.00 -0.04 0.10 14004
0.04 1.51 0.67 -0.75 9.98 -0.01 -0.04 0.10 14010
0.04 1.52 0.67 -0.75 9.94 -0.01 -0.04 0.10 14016
0.03 1.52 0.70 -0.74 9.96 -0.01 -0.04 0.10 14022
0.02 1.51 0.68 -0.78 9.96 -0.00 -0.04 0.10 14028
0.04 1.52 0.65 -0.78 9.96 -0.00 -0.04 0.10 14035
0.03 1.50 0.69 -0.76 9.95 -0.00 -0.04 0.10 14042
0.03 1.50 0.66 -0.74 9.91 -0.00 -0.04 0.10 14048
0.04 1.52 0.65 -0.72 9.94 -0.00 -0.04 0.10 14054
0.04 1.52 0.67 -0.75 9.93 -0.00 -0.04 0.10 14060
0.02 1.52 0.68 -0.76 9.95 -0.01 -0.04 0.09 14067
0.04 1.52 0.68 -0.77 9.93 -0.00 -0.04 0.13 14073
0.03 1.52 0.68 -0.77 9.94 -0.00 -0.04 0.10 14080
0.03 1.53 0.67 -0.75 9.95 -0.01 -0.04 0.10 14086
0.04 1.52 0.67 -0.78 9.93 -0.01 -0.04 0.10 14092
0.03 1.53 0.69 -0.75 9.95 -0.01 -0.04 0.10 14099
0.02 1.52 0.67 -0.76 9.95 -0.01 -0.04 0.09 14105
0.05 1.52 0.66 -0.75 9.94 -0.00 -0.04 0.10 14111
0.03 1.52 0.67 -0.74 9.91 -0.00 -0.04 0.09 14117
0.02 1.52 0.66 -0.76 9.96 -0.01 -0.04 0.10 14124
0.05 1.51 0.67 -0.77 9.95 -0.00 -0.04 0.09 14131
0.04 1.52 0.69 -0.75 9.96 -0.00 -0.04 0.10 14137
0.03 1.52 0.66 -0.76 9.92 -0.00 -0.04 0.10 14143
0.05 1.52 0.67 -0.78 9.96 -0.00 -0.04 0.09 14149
0.03 1.52 0.69 -0.74 9.94 -0.00 -0.04 0.10 14155
0.04 1.52 0.68 -0.75 9.91 -0.00 -0.04 0.10 14161
0.05 1.52 0.68 -0.78 9.96 -0.01 -0.04 0.10 14169
0.03 1.52 0.67 -0.74 9.95 -0.00 -0.04 0.10 14175
0.04 1.52 0.69 -0.76 9.94 -0.00 -0.04 0.10 14181
0.05 1.52 0.70 -0.78 9.96 -0.00 -0.04 0.10 14187
0.04 1.52 0.68 -0.78 9.92 -0.00 -0.04 0.10 14193
0.04 1.52 0.70 -0.76 9.96 -0.01 -0.04 0.10 14200
0.05 1.51 0.66 -0.76 9.96 -0.00 -0.04 0.10 14206
0.03 1.51 0.66 -0.73 9.95 -0.00 -0.04 0.10 14213
0.04 1.51 0.69 -0.76 9.98 -0.00 -0.04 0.09 14219
0.06 1.51 0.68 -0.78 9.92 -0.00 -0.04 0.09 14225
0.05 1.50 0.70 -0.73 9.93 -0.00 -0.04 0.09 14232
0.05 1.51 0.68 -0.76 9.90 -0.01 -0.04 0.09 14238
0.06 1.50 0.71 -0.78 10.01 -0.00 -0.04 0.10 14244
0.05 1.50 0.69 -0.74 9.93 -0.00 -0.04 0.10 14251
0.06 1.50 0.69 -0.74 9.95 -0.01 -0.04 0.10 14257
0.06 1.50 0.69 -0.74 9.93 -0.00 -0.04 0.10 14264
0.05 1.49 0.69 -0.76 9.96 -0.00 -0.04 0.10 14270
0.06 1.51 0.71 -0.76 9.91 -0.00 -0.03 0.10 14276
0.06 1.50 0.69 -0.77 9.97 -0.01 -0.04 0.09 14282
0.06 1.49 0.65 -0.78 9.92 -0.00 -0.04 0.10 14288
0.05 1.51 0.66 -0.74 9.97 -0.00 -0.04 0.10 14295
0.06 1.51 0.67 -0.70 9.96 -0.01 -0.04 0.09 14302
0.05 1.50 0.68 -0.77 9.93 -0.00 -0.04 0.09 14308
0.05 1.51 0.67 -0.76 9.92 -0.00 -0.04 0.10 14314
0.07 1.51 0.71 -0.76 9.95 -0.01 -0.04 0.10 14320
0.05 1.50 0.64 -0.75 9.93 -0.01 -0.04 0.09 14326
0.05 1.51 0.68 -0.74 9.93 -0.00 -0.04 0.10 14333
0.06 1.50 0.71 -0.76 9.95 -0.01 -0.04 0.10 14340
0.05 1.50 0.67 -0.76 9.93 -0.00 -0.04 0.10 14346
0.06 1.49 0.65 -0.79 9.97 -0.00 -0.04 0.10 14352
0.05 1.50 0.68 -0.80 9.95 -0.01 -0.04 0.09 14358
0.05 1.49 0.69 -0.76 9.94 -0.00 -0.04 0.10 14365
0.06 1.50 0.67 -0.78 9.93 -0.01 -0.04 0.10 14371
0.05 1.49 0.68 -0.74 9.94 -0.00 -0.04 0.10 14377
0.05 1.49 0.69 -0.75 9.95 -0.01 -0.04 0.10 14384
0.06 1.50 0.67 -0.77 9.97 -0.00 -0.04 0.10 14390
0.06 1.49 0.69 -0.78 9.88 -0.01 -0.04 0.10 14396
0.05 1.48 0.67 -0.74 9.91 -0.00 -0.04 0.09 14403
0.05 1.50 0.66 -0.79 9.93 -0.00 -0.04 0.10 14409
0.06 1.49 0.67 -0.76 9.95 -0.01 -0.04 0.07 14415
0.05 1.49 0.68 -0.74 9.94 -0.01 -0.03 0.09 14422
0.06 1.49 0.69 -0.76 9.95 -0.00 -0.04 0.10 14428
0.06 1.49 0.68 -0.75 9.97 -0.00 -0.04 0.10 14435
0.05 1.49 0.66 -0.72 9.96 -0.00 -0.04 0.10 14441
0.07 1.50 0.66 -0.75 9.91 -0.01 -0.04 0.10 14447
0.06 1.49 0.66 -0.76 9.94 -0.00 -0.04 0.10 14453
0.05 1.49 0.65 -0.74 9.93 -0.01 -0.04 0.10 14459
0.06 1.50 0.65 -0.77 9.94 -0.01 -0.04 0.10 14467
0.05 1.50 0.69 -0.74 9.91 -0.01 -0.04 0.10 14473
0.05 1.49 0.66 -0.74 9.93 -0.01 -0.04 0.10 14479
0.06 1.50 0.67 -0.75 9.92 -0.01 -0.04 0.09 14485
0.05 1.50 0.69 -0.76 9.92 -0.00 -0.04 0.10 14491
0.05 1.50 0.69 -0.77 9.93 -0.01 -0.03 0.10 14498
0.07 1.49 0.69 -0.76 9.92 -0.00 -0.04 0.10 14504
0.07 1.49 0.66 -0.73 9.97 -0.01 -0.04 0.09 14511
0.06 1.49 0.68 -0.72 9.95 -0.00 -0.04 0.10 14517
0.06 1.50 0.65 -0.73 9.92 -0.01 -0.04 0.09 14523
0.05 1.50 0.65 -0.75 9.92 -0.01 -0.04 0.10 14529
0.03 1.50 0.68 -0.76 9.93 -0.01 -0.04 0.10 14536
0.07 1.50 0.68 -0.75 9.92 -0.00 -0.04 0.10 14542
0.05 1.49 0.69 -0.77 9.94 -0.00 -0.04 0.10 14548
0.06 1.49 0.69 -0.75 9.93 -0.01 -0.04 0.10 14555
0.06 1.49 0.67 -0.73 9.86 -0.01 -0.04 0.10 14561
0.06 1.50 0.68 -0.75 10.02 -0.00 -0.04 0.10 14568
0.06 1.49 0.67 -0.74 9.96 -0.00 -0.04 0.10 14574
0.07 1.50 0.67 -0.77 9.92 -0.00 -0.04 0.10 14580
0.06 1.48 0.68 -0.77 9.93 -0.01 -0.04 0.10 14586
0.05 1.49 0.68 -0.73 9.95 -0.00 -0.04 0.09 14593
0.07 1.49 0.66 -0.75 9.95 -0.01 -0.04 0.09 14600
0.05 1.49 0.65 -0.77 9.94 -0.00 -0.04 0.10 14606
0.06 1.49 0.67 -0.75 9.94 -0.01 -0.04 0.10 14612
0.07 1.49 0.68 -0.75 9.93 -0.00 -0.04 0.09 14618
0.06 1.47 0.71 -0.74 9.92 -0.01 -0.04 0.10 14624
0.06 1.49 0.69 -0.77 9.98 -0.01 -0.04 0.10 14631
0.07 1.49 0.71 -0.78 9.99 -0.00 -0.04 0.09 14638
0.05 1.48 0.65 -0.74 9.99 -0.01 -0.04 0.10 14644
0.06 1.49 0.66 -0.78 9.91 -0.01 -0.04 0.10 14650
0.07 1.49 0.65 -0.76 9.95 -0.01 -0.04 0.10 14656
0.07 1.48 0.67 -0.76 9.93 -0.00 -0.03 0.09 14663
0.06 1.49 0.68 -0.74 9.92 -0.01 -0.04 0.10 14669
0.06 1.49 0.69 -0.72 9.91 -0.01 -0.04 0.10 14675
0.07 1.48 0.65 -0.76 9.92 -0.00 -0.04 0.09 14682
0.06 1.49 0.66 -0.75 9.94 -0.00 -0.04 0.10 14688
0.06 1.49 0.68 -0.74 9.93 -0.01 -0.04 0.10 14694
0.06 1.48 0.72 -0.75 9.96 -0.00 -0.04 0.11 14701
0.07 1.49 0.66 -0.74 9.95 -0.00 -0.04 0.10 14707
0.05 1.49 0.70 -0.78 9.91 -0.01 -0.04 0.10 14713
0.05 1.48 0.68 -0.75 9.93 -0.01 -0.04 0.10 14720
0.06 1.50 0.67 -0.72 9.95 -0.00 -0.04 0.10 14726
0.07 1.49 0.65 -0.75 9.93 -0.00 -0.04 0.09 14733
0.06 1.48 0.66 -0.73 9.97 -0.01 -0.04 0.10 14739
0.07 1.50 0.63 -0.78 9.98 -0.00 -0.04 0.10 14745
0.06 1.50 0.66 -0.79 9.94 -0.01 -0.04 0.10 14751
0.06 1.50 0.67 -0.77 9.96 -0.00 -0.04 0.10 14757
0.06 1.51 0.65 -0.75 9.93 -0.01 -0.04 0.09 14765
0.07 1.50 0.67 -0.74 9.92 -0.01 -0.04 0.10 14771
0.05 1.50 0.68 -0.76 9.91 -0.01 -0.04 0.10 14777
0.07 1.50 0.67 -0.72 9.94 -0.01 -0.04 0.10 14783
0.06 1.50 0.68 -0.75 9.97 -0.00 -0.04 0.10 14789
0.06 1.49 0.64 -0.76 9.94 -0.00 -0.04 0.10 14796
0.07 1.50 0.70 -0.78 9.92 -0.01 -0.04 0.09 14802
0.06 1.50 0.68 -0.79 9.96 -0.01 -0.04 0.10 14809
0.05 1.50 0.65 -0.77 10.01 -0.00 -0.04 0.10 14815
0.07 1.50 0.64 -0.75 9.96 -0.01 -0.04 0.09 14821
0.06 1.50 0.67 -0.75 9.94 -0.00 -0.04 0.10 14828
0.05 1.50 0.64 -0.73 9.94 -0.00 -0.04 0.10 14834
0.07 1.51 0.65 -0.73 9.95 -0.00 -0.04 0.10 14840
0.06 1.51 0.66 -0.77 9.94 -0.01 -0.04 0.10 14846
0.06 1.51 0.68 -0.78 9.95 -0.00 -0.04 0.10 14853
0.07 1.52 0.67 -0.75 9.94 -0.01 -0.03 0.09 14859
0.06 1.51 0.66 -0.76 9.93 -0.01 -0.04 0.10 14866
0.06 1.51 0.69 -0.75 9.92 -0.01 -0.04 0.09 14872
0.08 1.52 0.67 -0.73 9.92 -0.00 -0.04 0.10 14878
0.06 1.51 0.69 -0.75 9.94 -0.00 -0.04 0.10 14884
0.05 1.51 0.68 -0.76 9.98 -0.00 -0.03 0.10 14891
0.08 1.52 0.67 -0.78 9.93 -0.00 -0.04 0.10 14898
0.07 1.51 0.66 -0.75 9.98 -0.00 -0.04 0.10 14904
0.06 1.51 0.70 -0.74 9.95 -0.00 -0.04 0.10 14910
0.06 1.52 0.68 -0.76 9.95 -0.00 -0.04 0.10 14916
0.06 1.52 0.67 -0.74 9.94 -0.00 -0.04 0.09 14922
0.06 1.51 0.68 -0.72 9.90 -0.01 -0.04 0.10 14929
0.07 1.51 0.68 -0.76 9.91 -0.00 -0.04 0.10 14936
0.06 1.52 0.65 -0.72 9.96 -0.01 -0.04 0.10 14942
0.06 1.51 0.67 -0.74 9.91 -0.01 -0.03 0.10 14948
0.07 1.52 0.69 -0.78 9.92 -0.01 -0.04 0.10 14954
0.06 1.51 0.68 -0.74 9.92 -0.00 -0.04 0.10 14961
0.06 1.52 0.71 -0.75 9.93 -0.00 -0.04 0.09 14967
0.07 1.52 0.69 -0.78 9.95 -0.01 -0.04 0.10 14973
0.06 1.51 0.68 -0.75 9.94 -0.00 -0.04 0.10 14980
0.06 1.52 0.67 -0.72 9.97 -0.01 -0.04 0.10 14986
0.07 1.52 0.67 -0.74 9.95 -0.01 -0.04 0.10 14993
0.05 1.52 0.67 -0.74 9.97 -0.01 -0.04 0.10 14999
0.07 1.53 0.69 -0.77 9.93 -0.01 -0.04 0.10 15005
0.06 1.52 0.72 -0.76 9.95 -0.01 -0.04 0.10 15011
0.06 1.52 0.67 -0.76 9.96 -0.01 -0.04 0.10 15017
0.07 1.52 0.67 -0.71 9.95 -0.01 -0.04 0.09 15025
0.05 1.51 0.69 -0.74 9.96 -0.00 -0.04 0.10 15031
0.05 1.51 0.70 -0.75 9.95 -0.00 -0.04 0.10 15037
0.06 1.51 0.70 -0.79 9.94 -0.00 -0.04 0.10 15043
0.07 1.50 0.69 -0.75 9.95 -0.00 -0.04 0.10 15049
0.05 1.50 0.67 -0.76 9.92 -0.01 -0.04 0.10 15055
0.06 1.50 0.67 -0.75 9.92 -0.00 -0.04 0.10 15063
0.07 1.50 0.68 -0.74 9.93 -0.01 -0.04 0.10 15069
0.05 1.50 0.69 -0.73 9.96 -0.00 -0.04 0.10 15075
0.06 1.50 0.68 -0.75 9.90 -0.00 -0.04 0.09 15081
0.06 1.50 0.68 -0.72 9.96 -0.00 -0.04 0.10 15087
0.04 1.50 0.68 -0.73 9.96 -0.00 -0.04 0.09 15094
0.06 1.49 0.67 -0.75 9.95 -0.00 -0.03 0.13 15100
0.06 1.49 0.68 -0.74 9.95 -0.00 -0.03 0.10 15107
0.07 1.48 0.66 -0.75 9.95 -0.00 -0.04 0.10 15113
0.07 1.49 0.73 -0.73 9.95 -0.00 -0.04 0.10 15119
0.06 1.48 0.69 -0.76 9.94 -0.00 -0.04 0.10 15126
0.06 1.48 0.71 -0.77 9.96 -0.00 -0.03 0.10 15132
0.07 1.48 0.69 -0.74 9.95 -0.00 -0.03 0.10 15138
0.07 1.48 0.66 -0.74 9.94 -0.00 -0.03 0.10 15144
0.07 1.48 0.68 -0.76 9.95 -0.00 -0.04 0.10 15151
0.07 1.48 0.68 -0.75 9.97 -0.00 -0.04 0.10 15157
0.07 1.48 0.70 -0.77 9.92 -0.01 -0.04 0.10 15164
0.06 1.48 0.66 -0.74 9.92 -0.00 -0.04 0.10 15170
0.06 1.48 0.69 -0.75 9.92 -0.00 -0.04 0.09 15176
0.08 1.48 0.69 -0.74 9.95 -0.00 -0.04 0.10 15182
0.06 1.48 0.65 -0.75 9.95 -0.01 -0.04 0.10 15188
0.08 1.48 0.66 -0.78 9.92 -0.00 -0.04 0.10 15196
0.06 1.48 0.69 -0.77 9.93 -0.00 -0.04 0.10 15202
0.07 1.48 0.68 -0.75 9.96 -0.00 -0.04 0.10 15208
0.08 1.48 0.66 -0.75 9.94 -0.00 -0.03 0.10 15214
0.07 1.48 0.68 -0.75 9.97 -0.01 -0.03 0.10 15220
0.07 1.48 0.67 -0.74 9.94 -0.01 -0.04 0.10 15227
0.08 1.49 0.66 -0.74 9.94 -0.00 -0.04 0.10 15234
0.07 1.49 0.66 -0.75 9.93 -0.00 -0.04 0.10 15240
0.06 1.49 0.70 -0.73 9.91 -0.01 -0.04 0.10 15246
0.08 1.49 0.69 -0.76 9.96 -0.00 -0.04 0.10 15252
0.06 1.49 0.67 -0.76 9.96 -0.00 -0.03 0.10 15259
0.06 1.49 0.71 -0.79 9.98 -0.01 -0.04 0.10 15265
0.07 1.49 0.66 -0.73 9.91 -0.00 -0.04 0.10 15271
0.06 1.49 0.69 -0.72 9.95 -0.00 -0.04 0.10 15278
0.06 1.50 0.64 -0.76 9.95 -0.01 -0.04 0.10 15284
0.08 1.50 0.67 -0.75 9.95 -0.01 -0.04 0.10 15290
0.07 1.49 0.68 -0.76 9.95 -0.00 -0.04 0.10 15297
0.07 1.50 0.68 -0.76 9.92 -0.01 -0.04 0.10 15303
0.08 1.50 0.67 -0.73 9.91 -0.00 -0.03 0.10 15309
0.07 1.49 0.68 -0.74 9.96 -0.01 -0.04 0.10 15315
0.06 1.50 0.68 -0.77 9.89 -0.00 -0.04 0.10 15322
0.08 1.50 0.68 -0.74 9.91 -0.01 -0.04 0.10 15329
0.07 1.49 0.69 -0.74 9.93 -0.01 -0.04 0.10 15335
0.08 1.50 0.71 -0.73 9.95 -0.01 -0.04 0.10 15341
0.07 1.51 0.67 -0.75 9.94 -0.00 -0.04 0.10 15347
0.07 1.49 0.67 -0.74 9.91 -0.01 -0.04 0.10 15353
0.08 1.50 0.68 -0.75 9.96 -0.01 -0.03 0.10 15361
0.07 1.50 0.70 -0.77 9.96 -0.00 -0.04 0.10 15367
0.07 1.49 0.66 -0.74 9.93 -0.01 -0.04 0.10 15373
0.07 1.51 0.67 -0.75 9.92 -0.01 -0.04 0.10 15379
0.08 1.49 0.70 -0.77 9.93 -0.01 -0.04 0.10 15385
0.06 1.49 0.66 -0.74 9.95 -0.00 -0.03 0.11 15392
0.08 1.50 0.66 -0.72 9.95 -0.00 -0.04 0.10 15398
0.08 1.50 0.65 -0.77 9.93 -0.00 -0.04 0.10 15405
0.07 1.49 0.68 -0.75 9.92 -0.01 -0.04 0.10 15411
0.06 1.50 0.67 -0.76 9.93 -0.00 -0.04 0.10 15417
0.07 1.50 0.69 -0.77 10.01 -0.00 -0.04 0.10 15423
0.05 1.49 0.71 -0.74 9.94 -0.00 -0.04 0.09 15430
0.07 1.50 0.66 -0.74 9.94 -0.00 -0.04 0.10 15436
0.07 1.49 0.70 -0.72 9.94 -0.01 -0.04 0.10 15442
0.06 1.49 0.68 -0.73 9.94 -0.00 -0.04 0.10 15449
0.07 1.50 0.68 -0.76 9.95 -0.01 -0.04 0.09 15455
0.06 1.49 0.66 -0.78 9.93 -0.00 -0.04 0.10 15462
0.06 1.49 0.66 -0.73 9.96 -0.00 -0.04 0.10 15468
0.07 1.50 0.65 -0.76 9.92 -0.00 -0.04 0.10 15474
0.07 1.49 0.68 -0.72 9.98 -0.01 -0.04 0.10 15480
0.06 1.49 0.66 -0.73 9.91 -0.00 -0.04 0.10 15486
0.08 1.49 0.68 -0.75 9.96 -0.00 -0.04 0.10 15494
0.07 1.50 0.70 -0.77 9.96 -0.01 -0.04 0.09 15500
0.06 1.49 0.71 -0.75 9.98 -0.01 -0.04 0.10 15506
0.08 1.50 0.68 -0.73 9.96 -0.00 -0.04 0.10 15512
0.07 1.49 0.69 -0.73 9.92 -0.00 -0.04 0.10 15518
0.07 1.49 0.70 -0.76 9.95 -0.00 -0.04 0.10 15525
0.08 1.49 0.70 -0.77 9.98 -0.00 -0.04 0.10 15532
0.07 1.50 0.66 -0.75 9.96 -0.01 -0.04 0.10 15538
0.06 1.49 0.66 -0.74 9.97 -0.01 -0.04 0.10 15544
0.08 1.49 0.67 -0.75 9.97 -0.00 -0.04 0.10 15550
0.06 1.49 0.70 -0.77 9.96 -0.01 -0.04 0.10 15556
0.06 1.49 0.67 -0.75 9.92 -0.01 -0.04 0.10 15563
0.08 1.49 0.68 -0.74 9.97 -0.00 -0.04 0.09 15569
0.06 1.49 0.65 -0.73 9.96 -0.01 -0.04 0.10 15576
0.07 1.49 0.67 -0.75 9.93 -0.01 -0.04 0.10 15582
0.07 1.50 0.68 -0.77 9.92 -0.00 -0.04 0.10 15588
0.07 1.49 0.70 -0.75 9.92 -0.00 -0.04 0.10 15595
0.06 1.49 0.68 -0.77 9.98 -0.00 -0.04 0.13 15601
0.08 1.49 0.69 -0.76 9.93 -0.00 -0.04 0.10 15607
0.07 1.49 0.70 -0.76 9.93 -0.01 -0.04 0.10 15613
0.07 1.49 0.64 -0.75 9.93 -0.00 -0.04 0.10 15620
0.08 1.49 0.66 -0.77 9.92 -0.00 -0.04 0.09 15627
0.06 1.49 0.68 -0.75 9.96 -0.00 -0.04 0.10 15633
0.06 1.49 0.71 -0.73 9.95 -0.00 -0.04 0.10 15639
0.08 1.49 0.70 -0.78 9.94 -0.00 -0.04 0.10 15645
0.06 1.49 0.67 -0.78 9.91 -0.01 -0.04 0.09 15651
0.06 1.48 0.65 -0.73 9.96 -0.00 -0.04 0.10 15657
