Voltage_01 Voltage_02 Acc_x Acc_y Acc_z Gyro_x Gyro_y Gyro_z Time
5000
0.16 0.90 0.58 -0.95 9.94 -0.00 -0.04 0.06 23
0.16 0.88 0.60 -0.96 9.92 0.00 -0.04 0.06 29
0.15 0.88 0.60 -0.95 9.90 -0.00 -0.03 0.06 35
0.15 0.84 0.63 -0.94 9.90 -0.00 -0.03 0.07 41
0.15 0.85 0.62 -0.92 9.94 -0.01 -0.03 0.06 48
0.16 0.85 0.63 -0.99 9.99 -0.00 -0.04 0.06 54
0.17 0.83 0.62 -0.98 9.90 -0.00 -0.04 0.06 60
0.16 0.85 0.63 -0.94 9.95 -0.00 -0.04 0.06 66
0.15 0.78 0.63 -0.95 9.94 -0.00 -0.04 0.06 72
0.16 0.73 0.62 -0.97 9.97 -0.00 -0.04 0.06 78
0.17 0.73 0.59 -0.97 9.96 0.00 -0.04 0.06 84
0.17 0.73 0.62 -0.99 9.97 0.00 -0.03 0.07 91
0.18 0.68 0.62 -1.00 9.95 0.00 -0.04 0.06 97
0.18 0.66 0.62 -0.96 9.96 0.00 -0.03 0.06 103
0.18 0.65 0.59 -0.97 9.98 0.00 -0.03 0.06 109
0.18 0.65 0.64 -0.95 9.94 0.01 -0.04 0.06 115
0.18 0.63 0.64 -0.96 9.95 0.00 -0.04 0.06 121
0.19 0.59 0.62 -0.95 9.95 0.01 -0.04 0.06 128
0.18 0.55 0.63 -0.97 9.94 0.01 -0.03 0.06 135
0.17 0.50 0.61 -0.98 9.98 0.01 -0.04 0.06 141
0.17 0.52 0.61 -0.97 9.93 0.02 -0.03 0.06 147
0.17 0.48 1.20 -1.00 9.96 0.01 -0.03 0.06 153
0.17 0.47 0.63 -1.00 9.97 0.02 -0.03 0.06 159
0.17 0.43 0.58 -0.99 9.98 0.02 -0.03 0.06 165
0.18 0.34 0.60 -0.97 9.97 0.03 -0.03 0.06 172
0.20 0.31 0.59 -0.96 9.98 0.03 -0.03 0.06 178
0.20 0.27 0.60 -1.00 9.95 0.03 -0.03 0.06 184
0.20 0.22 0.67 -1.02 9.97 0.03 -0.03 0.06 190
0.19 0.20 0.57 -1.01 10.00 0.04 -0.03 0.07 196
0.21 0.19 0.57 -0.95 9.99 0.04 -0.03 0.07 202
0.20 0.13 0.64 -1.00 10.07 0.05 -0.04 0.07 209
0.19 0.09 0.63 -0.99 10.10 0.06 -0.04 0.07 216
0.20 0.05 0.65 -0.94 9.94 0.07 -0.04 0.08 222
0.20 0.07 0.63 -1.22 10.19 0.09 -0.05 0.09 228
0.21 0.02 -1.31 -1.22 10.02 0.13 -0.08 0.13 234
0.20 0.03 1.27 -0.94 9.84 0.18 -0.06 0.13 240
0.22 0.00 -4.31 -0.67 11.21 0.36 -0.01 0.16 246
0.24 -0.01 1.60 -0.98 12.19 0.48 -0.28 0.43 253
0.22 0.00 1.80 -1.08 12.74 0.70 0.09 0.19 260
0.22 -0.01 -2.00 -1.13 12.70 1.00 0.11 0.24 266
0.22 -0.00 -1.71 -1.31 11.27 1.09 0.15 0.42 272
0.20 -0.01 -1.27 -1.18 11.24 1.14 0.12 0.55 278
0.18 -0.01 -2.22 -1.30 11.65 1.23 0.07 0.69 284
0.16 -0.01 -2.87 -1.24 11.74 1.34 -0.03 0.87 290
0.15 -0.01 -3.33 -0.96 11.20 1.43 -0.18 1.05 297
0.15 -0.01 -3.63 -0.72 11.52 1.49 -0.35 1.28 304
0.12 0.02 -3.26 -0.52 11.84 1.50 -0.57 1.49 310
0.12 0.00 -3.46 -0.12 12.50 1.47 -0.75 1.68 316
0.10 -0.01 -2.88 -0.21 12.09 1.45 -0.92 1.82 322
0.09 0.00 -2.24 -0.35 11.85 1.41 -1.04 1.94 328
0.09 0.01 -1.82 -0.80 12.66 1.34 -1.16 2.03 335
0.07 -0.00 -2.15 -0.42 12.45 1.27 -1.27 2.10 342
0.06 -0.00 -1.32 -0.58 12.52 1.24 -1.28 2.17 348
0.07 -0.00 -1.69 -0.60 10.55 1.23 -1.36 2.25 354
0.07 -0.00 -1.50 -1.14 10.66 1.17 -1.37 2.31 360
0.06 0.00 -1.97 -1.28 10.64 1.15 -1.33 2.33 366
0.07 0.01 -2.00 -1.31 10.49 1.14 -1.34 2.31 373
0.06 -0.00 -2.61 -1.31 10.38 1.13 -1.36 2.28 379
0.05 0.00 -3.29 -1.15 10.39 1.10 -1.37 2.20 386
0.06 0.01 -3.73 -0.75 10.40 1.06 -1.42 2.09 392
0.06 -0.00 -3.64 -0.70 10.87 0.98 -1.46 1.93 398
0.05 -0.01 -4.36 -0.55 11.09 0.87 -1.51 1.76 404
0.05 -0.00 -4.72 -0.52 10.75 0.80 -1.58 1.59 410
0.07 -0.01 -5.04 -0.35 10.63 0.74 -1.71 1.33 417
0.05 -0.01 -4.78 -0.32 10.51 0.68 -1.84 1.09 423
0.05 -0.00 -4.50 -0.24 10.69 0.58 -1.93 0.84 430
0.05 -0.00 -4.11 -0.20 10.68 0.51 -2.01 0.57 436
0.06 -0.01 -3.72 -0.36 10.55 0.42 -2.09 0.31 442
0.05 0.00 -3.33 -0.50 10.39 0.36 -2.17 0.07 448
0.05 -0.00 -2.96 -0.61 10.28 0.31 -2.22 -0.12 454
0.06 -0.00 -2.34 -0.75 10.17 0.27 -2.26 -0.31 460
0.07 0.00 -1.78 -0.83 10.14 0.25 -2.31 -0.49 467
0.06 -0.01 -1.30 -0.91 10.17 0.23 -2.35 -0.65 474
0.05 0.00 -0.86 -1.09 10.04 0.22 -2.37 -0.78 480
0.07 0.02 -0.31 -1.24 9.97 0.21 -2.36 -0.89 486
0.06 0.01 0.02 -1.31 9.87 0.20 -2.33 -0.99 492
0.06 -0.01 0.49 -1.40 9.80 0.19 -2.26 -1.10 498
0.05 0.00 0.89 -1.42 9.63 0.19 -2.14 -1.13 504
0.06 -0.01 1.25 -1.50 9.49 0.18 -1.94 -1.19 510
0.06 -0.01 1.50 -1.59 9.37 0.18 -1.69 -1.22 517
0.06 -0.01 1.62 -1.71 9.19 0.17 -1.45 -1.24 523
0.05 -0.00 1.74 -1.77 9.03 0.17 -1.14 -1.24 529
0.06 -0.01 1.81 -1.86 8.95 0.18 -0.84 -1.22 535
0.06 -0.00 1.83 -1.88 8.89 0.18 -0.57 -1.19 542
0.07 -0.01 1.77 -1.95 8.88 0.19 -0.34 -1.15 548
0.06 -0.01 1.77 -2.06 8.88 0.21 -0.20 -1.10 555
0.06 -0.01 1.82 -2.21 8.71 0.23 -0.08 -1.01 561
0.07 -0.00 1.82 -2.28 7.98 0.25 0.01 -0.95 567
0.08 -0.01 1.82 -2.37 8.50 0.27 0.08 -0.86 573
0.06 -0.01 1.85 -2.53 8.52 0.29 0.14 -0.76 579
0.06 -0.01 1.86 -2.76 8.60 0.31 0.17 -0.66 585
0.05 -0.01 1.93 -2.88 8.64 0.34 0.19 -0.54 591
0.06 -0.01 1.92 -3.04 8.73 0.37 0.20 -0.46 598
0.07 -0.01 1.95 -3.18 8.87 0.39 0.20 -0.34 604
0.07 -0.01 1.94 -3.28 8.92 0.41 0.19 -0.21 610
0.07 -0.01 1.98 -3.34 8.95 0.42 0.19 -0.07 616
0.07 -0.01 2.03 -3.39 8.90 0.44 0.18 0.05 622
0.07 -0.01 2.10 -3.41 8.91 0.43 0.18 0.18 628
0.07 -0.00 2.15 -3.42 8.86 0.43 0.20 0.32 634
0.07 -0.01 2.18 -3.46 8.92 0.41 0.23 0.44 641
0.07 -0.01 2.18 -3.53 8.98 0.39 0.28 0.56 647
0.07 -0.01 2.09 -3.48 9.05 0.37 0.33 0.66 653
0.07 -0.01 1.95 -3.52 9.15 0.34 0.37 0.77 660
0.07 -0.00 1.80 -3.46 9.36 0.29 0.38 0.87 666
0.07 -0.01 1.46 -3.44 9.64 0.24 0.36 0.97 672
0.07 -0.00 -4.20 -8.28 13.31 0.24 0.31 0.88 678
0.05 0.01 -0.52 -4.32 11.73 0.03 0.25 0.77 685
0.07 0.01 -2.46 -4.13 9.81 -0.21 0.09 0.74 691
0.06 -0.00 -1.76 -2.50 9.91 -0.38 0.07 0.67 697
0.06 -0.01 -1.33 -2.17 8.07 -0.60 0.00 0.66 703
0.05 0.00 -0.88 -3.09 8.42 -0.74 -0.08 0.71 709
0.06 0.02 -0.18 -3.28 9.33 -0.86 -0.18 0.79 715
0.07 0.00 0.38 -3.58 9.76 -0.91 -0.26 0.90 721
0.06 0.00 1.40 -3.58 10.34 -0.92 -0.27 0.99 729
0.05 0.00 1.69 -4.19 10.01 -0.93 -0.23 1.12 735
0.06 0.01 2.34 -3.74 10.02 -0.95 -0.14 1.23 741
0.06 0.01 2.49 -2.97 9.30 -1.02 -0.07 1.34 747
0.07 -0.00 2.34 -2.83 8.55 -1.07 0.01 1.43 753
0.06 0.01 2.41 -3.20 8.25 -1.09 0.10 1.50 759
0.07 0.01 2.53 -3.50 8.40 -1.08 0.13 1.54 765
0.06 0.00 2.65 -3.61 8.52 -1.03 0.21 1.57 772
0.06 -0.01 2.97 -3.70 8.96 -0.95 0.30 1.57 778
0.06 0.00 3.45 -3.73 9.35 -0.88 0.45 1.57 785
0.08 0.01 3.89 -3.57 9.45 -0.86 0.63 1.56 791
0.08 -0.00 4.00 -3.42 9.35 -0.86 0.80 1.55 797
0.08 -0.01 3.80 -3.22 9.39 -0.86 0.99 1.55 803
0.07 -0.00 3.48 -3.24 9.31 -0.87 1.14 1.55 809
0.07 0.01 3.02 -3.34 9.25 -0.84 1.21 1.55 816
0.08 0.01 2.49 -3.45 9.18 -0.77 1.20 1.55 822
0.08 0.00 2.07 -3.49 9.18 -0.74 1.15 1.54 828
0.08 0.00 1.98 -3.47 9.35 -0.65 1.09 1.53 834
0.08 -0.00 1.98 -3.45 9.45 -0.57 1.01 1.52 840
0.09 -0.00 2.00 -3.30 9.60 -0.51 0.94 1.52 847
0.07 0.00 2.09 -3.07 9.77 -0.48 0.90 1.51 854
0.07 -0.00 2.31 -2.84 9.97 -0.46 0.88 1.51 860
0.07 0.00 2.60 -2.71 10.19 -0.46 0.92 1.52 866
0.08 -0.00 2.74 -2.64 10.27 -0.48 1.00 1.52 872
0.07 -0.01 1.55 -3.35 9.83 -0.49 1.06 1.53 878
0.06 0.01 2.59 -2.70 12.84 -0.52 1.26 1.44 884
0.08 0.02 2.05 -2.13 11.23 -0.64 1.35 1.42 890
0.07 0.01 1.40 -2.67 9.98 -0.61 1.42 1.41 897
0.07 -0.00 1.37 -2.93 10.27 -0.57 1.41 1.40 904
0.06 0.01 1.19 -2.77 10.55 -0.54 1.32 1.39 910
0.07 -0.01 -0.34 -4.16 10.59 -0.53 1.23 1.35 916
0.07 -0.00 1.09 -2.67 11.91 -0.54 1.10 1.19 922
0.06 -0.01 0.03 -2.17 10.54 -0.69 0.97 1.08 928
0.07 0.02 0.00 -2.59 9.64 -0.70 0.87 0.96 934
0.08 -0.00 0.21 -3.07 10.01 -0.74 0.76 0.79 941
0.08 0.00 0.32 -2.92 9.41 -0.75 0.67 0.57 947
0.07 -0.00 0.62 -3.06 9.99 -0.78 0.60 0.32 954
0.08 0.01 0.66 -3.29 10.61 -0.82 0.60 0.05 960
0.09 0.00 0.91 -3.42 11.01 -0.88 0.68 -0.21 966
0.09 -0.01 1.22 -3.36 11.28 -0.93 0.87 -0.39 972
0.08 0.00 1.06 -3.59 11.79 -0.98 1.09 -0.56 978
0.08 0.01 0.25 -3.64 12.58 -1.06 1.28 -0.67 985
0.07 -0.00 -0.18 -2.99 11.83 -1.13 1.38 -0.73 991
0.05 -0.01 -0.20 -3.03 11.55 -1.18 1.38 -0.75 998
0.06 -0.00 -2.09 -3.40 11.24 -1.24 1.13 -0.82 1004
0.06 -0.01 -0.81 -2.42 10.36 -1.23 0.88 -0.81 1010
0.07 -0.01 -0.11 -3.55 9.82 -1.21 0.78 -0.79 1016
0.06 -0.01 -0.64 -4.68 9.98 -1.16 0.65 -0.80 1022
0.07 -0.00 -0.53 -3.53 10.33 -1.11 0.43 -0.88 1029
0.06 -0.01 0.76 -3.12 9.68 -1.05 0.35 -0.88 1035
0.05 -0.00 -0.71 -5.47 10.77 -1.01 0.45 -0.89 1042
0.06 0.00 -3.86 -5.03 8.75 -1.01 0.50 -0.92 1048
0.05 -0.01 -1.11 -2.34 8.90 -1.01 0.21 -1.01 1054
0.06 -0.01 -5.12 -5.63 9.50 -0.97 0.02 -1.01 1060
0.05 -0.01 -13.26 -6.41 10.14 -0.75 -1.00 -0.80 1067
0.06 -0.01 -7.94 -8.86 9.18 -0.43 -1.33 -0.51 1073
0.05 0.00 -6.31 -7.42 4.66 -0.37 -1.90 -0.35 1079
0.05 0.00 -6.07 -9.15 5.52 -0.17 -2.26 -0.29 1086
0.06 -0.01 -11.42 -40.73 2.89 0.16 -2.56 -0.10 1092
0.04 -0.00 -12.70 -31.99 37.02 0.83 -2.07 0.47 1098
0.05 0.05 -8.21 -8.41 16.45 -0.01 -0.92 0.32 1104
0.05 0.17 -3.10 -1.97 4.56 -0.23 -0.02 0.09 1111
0.04 0.24 -1.50 -1.33 12.49 -0.44 -0.06 -0.03 1118
0.03 0.44 0.20 -1.06 10.87 -0.27 -0.05 -0.04 1124
0.04 0.55 1.13 -1.17 10.28 -0.14 0.01 0.01 1130
0.03 0.59 1.83 -0.67 9.86 -0.12 0.09 0.08 1136
0.03 0.71 1.40 -0.38 9.91 -0.09 0.09 0.09 1142
0.04 0.72 0.95 -0.48 10.11 -0.06 0.05 0.07 1149
0.03 0.76 0.76 -0.58 10.07 -0.02 0.00 0.05 1156
0.04 0.71 0.87 -0.78 10.03 -0.00 -0.03 0.04 1162
0.08 0.71 0.81 -0.88 10.00 -0.00 -0.04 0.04 1168
0.08 0.66 0.52 -0.91 9.96 -0.00 -0.04 0.04 1174
0.09 0.64 0.40 -0.93 9.94 -0.02 -0.03 0.05 1180
0.12 0.62 0.44 -0.96 9.91 -0.03 -0.01 0.06 1187
0.11 0.61 0.74 -1.22 9.94 -0.04 -0.01 0.08 1193
0.12 0.61 0.68 -0.87 9.90 -0.05 -0.02 0.07 1200
0.14 0.62 0.66 -0.81 9.93 -0.06 -0.03 0.08 1206
0.17 0.62 0.87 -0.89 9.97 -0.05 -0.03 0.07 1212
0.16 0.60 0.63 -0.79 9.96 -0.05 -0.04 0.10 1218
0.14 0.62 0.65 -0.84 9.98 -0.05 -0.04 0.06 1224
0.23 0.64 0.60 -0.83 9.99 -0.05 -0.04 0.08 1231
0.21 0.66 0.56 -0.84 9.98 -0.05 -0.04 0.08 1238
0.24 0.69 0.56 -0.79 9.98 -0.04 -0.03 0.08 1244
0.23 0.70 0.55 -0.79 9.97 -0.04 -0.03 0.09 1250
0.24 0.69 0.61 -0.80 9.94 -0.04 -0.03 0.09 1256
0.25 0.66 0.64 -0.80 9.97 -0.03 -0.07 0.10 1262
0.24 0.71 0.55 -0.77 9.87 -0.02 -0.03 0.09 1268
0.24 0.72 0.66 -0.80 9.99 -0.02 -0.03 0.10 1275
0.24 0.71 0.65 -0.78 9.96 -0.01 -0.03 0.10 1282
0.24 0.72 0.59 -0.80 9.96 -0.00 -0.04 0.10 1288
0.28 0.70 0.63 -0.79 9.94 -0.01 -0.04 0.09 1294
0.27 0.67 0.59 -0.79 9.93 -0.01 -0.04 0.10 1300
0.26 0.66 0.58 -0.75 9.92 -0.01 -0.03 0.10 1306
0.27 0.67 0.59 -0.76 9.97 -0.01 -0.03 0.10 1312
0.29 0.67 0.61 -0.78 9.96 -0.01 -0.03 0.10 1319
0.28 0.66 0.59 -0.77 10.02 -0.01 -0.03 0.09 1326
0.28 0.68 0.60 -0.76 9.94 -0.01 -0.03 0.10 1332
0.28 0.68 0.59 -0.79 9.94 -0.01 -0.03 0.10 1338
0.29 0.68 0.61 -0.79 9.96 -0.01 -0.03 0.10 1344
0.28 0.69 0.58 -0.77 9.95 -0.01 -0.03 0.11 1350
0.30 0.70 0.59 -0.81 9.96 -0.01 -0.03 0.10 1357
0.29 0.69 0.65 -0.75 9.96 -0.01 -0.03 0.10 1363
0.27 0.70 0.61 -0.79 9.92 -0.01 -0.03 0.11 1370
0.27 0.72 0.63 -0.78 9.94 -0.01 -0.03 0.10 1376
0.26 0.72 0.63 -0.74 9.92 -0.01 -0.03 0.11 1382
0.25 0.73 0.64 -0.74 9.95 -0.00 -0.03 0.10 1388
0.24 0.75 0.62 -0.80 9.95 -0.01 -0.03 0.10 1394
0.26 0.74 0.62 -0.76 9.92 -0.01 -0.03 0.11 1401
0.24 0.74 0.61 -0.77 9.95 -0.01 -0.03 0.11 1408
0.24 0.75 0.61 -0.81 9.94 -0.01 -0.03 0.11 1414
0.25 0.77 0.60 -0.75 9.96 -0.01 -0.03 0.11 1420
0.23 0.78 0.60 -0.77 9.89 -0.01 -0.03 0.11 1426
0.22 0.77 0.61 -0.75 9.98 -0.01 -0.03 0.11 1432
0.22 0.79 0.61 -0.78 9.90 -0.01 -0.03 0.11 1438
0.22 0.79 0.61 -0.77 9.96 -0.01 -0.03 0.12 1445
0.20 0.77 0.62 -0.75 9.96 -0.01 -0.03 0.12 1452
0.20 0.76 0.62 -0.78 9.97 -0.01 -0.03 0.12 1458
0.20 0.82 0.61 -0.76 9.95 -0.01 -0.03 0.12 1464
0.21 0.80 0.64 -0.78 9.96 -0.01 -0.03 0.12 1470
0.19 0.84 0.61 -0.77 9.93 -0.01 -0.03 0.12 1476
0.22 0.83 0.63 -0.75 9.92 -0.00 -0.04 0.11 1483
0.20 0.84 0.63 -0.78 9.96 -0.00 -0.04 0.12 1489
0.20 0.86 0.63 -0.76 9.95 -0.01 -0.04 0.11 1496
0.21 0.89 0.62 -0.76 9.94 -0.01 -0.04 0.11 1502
0.20 0.93 0.58 -0.77 9.94 -0.01 -0.04 0.11 1508
0.20 0.91 0.63 -0.75 9.93 -0.01 -0.04 0.11 1514
0.19 0.88 0.61 -0.76 9.92 -0.01 -0.04 0.11 1520
0.21 0.88 0.64 -0.75 9.92 -0.01 -0.04 0.11 1527
0.19 0.90 0.63 -0.79 9.98 -0.01 -0.04 0.11 1533
0.18 0.92 0.62 -0.80 9.93 -0.01 -0.04 0.11 1540
0.16 0.93 0.62 -0.77 9.91 -0.01 -0.04 0.11 1546
0.15 0.94 0.60 -0.78 9.94 -0.01 -0.03 0.11 1552
0.12 0.94 0.59 -0.75 9.92 -0.01 -0.04 0.11 1558
0.14 0.96 0.62 -0.75 9.90 -0.01 -0.03 0.11 1565
0.14 0.93 0.62 -0.74 9.93 -0.01 -0.03 0.11 1571
0.13 0.93 0.62 -0.76 9.95 -0.01 -0.04 0.11 1577
0.13 0.97 0.61 -0.75 9.92 -0.01 -0.04 0.11 1584
0.14 0.97 0.63 -0.76 9.90 -0.01 -0.04 0.11 1590
0.14 0.97 0.63 -0.77 9.94 -0.01 -0.05 0.10 1596
0.13 0.98 0.63 -0.77 9.94 -0.01 -0.05 0.11 1603
0.13 1.00 0.58 -0.77 9.93 -0.01 -0.05 0.10 1609
0.13 0.99 0.60 -0.74 9.93 -0.01 -0.05 0.12 1615
0.12 1.00 0.62 -0.75 9.91 -0.01 -0.04 0.11 1622
0.13 1.00 0.61 -0.78 9.95 -0.01 -0.04 0.12 1628
0.14 1.01 0.60 -0.79 9.92 -0.01 -0.04 0.11 1634
0.14 0.98 0.61 -0.79 9.92 -0.00 -0.04 0.12 1640
0.14 1.02 0.63 -0.75 9.91 -0.01 -0.04 0.12 1647
0.14 1.07 0.65 -0.76 9.90 -0.01 -0.04 0.11 1653
0.13 1.06 0.61 -0.77 9.90 -0.01 -0.04 0.11 1659
0.12 1.04 0.63 -0.77 9.85 -0.01 -0.04 0.11 1666
0.13 1.06 0.64 -0.76 9.91 -0.01 -0.05 0.11 1672
0.12 1.07 0.62 -0.75 9.89 -0.01 -0.05 0.11 1678
0.11 1.07 0.60 -0.74 9.88 -0.02 -0.05 0.11 1685
0.13 1.09 0.65 -0.75 9.91 -0.01 -0.06 0.11 1691
0.13 1.11 0.59 -0.75 9.97 -0.01 -0.06 0.11 1697
0.14 1.09 0.58 -0.75 9.93 -0.01 -0.06 0.11 1703
0.15 1.09 0.54 -0.74 9.95 -0.01 -0.06 0.11 1710
0.15 1.09 0.59 -0.75 9.94 -0.01 -0.06 0.11 1716
0.16 1.09 0.58 -0.78 9.96 -0.01 -0.05 0.11 1722
0.15 1.09 0.59 -0.77 9.96 -0.01 -0.06 0.11 1729
0.18 1.09 0.62 -0.75 9.94 -0.01 -0.06 0.10 1735
0.16 1.10 0.57 -0.78 9.93 -0.01 -0.06 0.11 1741
0.16 1.12 0.62 -0.78 9.93 -0.01 -0.05 0.10 1747
0.17 1.11 0.60 -0.74 9.91 -0.01 -0.06 0.10 1754
0.17 1.09 0.59 -0.75 9.96 -0.01 -0.06 0.10 1760
0.16 1.11 0.63 -0.74 9.91 -0.02 -0.06 0.10 1767
0.17 1.13 1.21 -0.74 9.98 -0.01 -0.06 0.10 1773
0.17 1.12 0.60 -0.72 9.98 -0.01 -0.07 0.10 1779
0.18 1.08 0.61 -0.72 10.03 -0.01 -0.07 0.09 1785
0.18 1.10 0.67 -0.75 9.88 -0.01 -0.07 0.10 1792
0.19 1.12 0.60 -0.76 9.97 -0.01 -0.08 0.10 1798
0.18 1.10 0.56 -0.76 9.95 -0.01 -0.07 0.09 1804
0.18 1.10 0.59 -0.76 9.93 -0.01 -0.08 0.09 1811
0.20 1.12 0.63 -0.74 9.91 -0.01 -0.08 0.09 1817
0.20 1.11 0.64 -0.76 9.96 -0.01 -0.08 0.09 1823
0.20 1.10 0.00 -0.77 9.97 -0.01 -0.08 0.08 1829
0.22 1.10 0.60 -0.78 9.93 -0.01 -0.08 0.09 1836
0.23 1.10 0.57 -0.74 9.95 -0.01 -0.08 0.09 1842
0.24 1.11 0.57 -0.75 10.00 -0.00 -0.07 0.09 1849
0.26 1.12 0.58 -0.75 9.95 -0.00 -0.07 0.09 1855
0.28 1.11 0.57 -0.78 9.95 -0.01 -0.07 0.08 1861
0.27 1.10 0.59 -0.74 9.97 -0.00 -0.07 0.09 1867
0.30 1.10 0.57 -0.76 9.97 -0.00 -0.07 0.09 1873
0.33 1.10 0.58 -0.80 9.95 -0.00 -0.06 0.09 1880
0.32 1.10 0.57 -0.75 9.99 -0.00 -0.07 0.09 1886
0.33 1.08 0.60 -0.76 9.97 0.00 -0.06 0.09 1893
0.35 1.06 0.55 -0.74 9.96 0.00 -0.06 0.09 1899
0.39 1.04 0.54 -0.76 9.93 0.00 -0.06 0.09 1905
0.37 1.00 0.54 -0.77 9.95 -0.01 -0.06 0.08 1911
0.37 0.98 0.53 -0.79 9.91 -0.00 -0.06 0.08 1917
0.39 0.94 0.55 -0.77 9.91 -0.01 -0.06 0.09 1924
0.36 0.93 0.51 -0.77 9.96 -0.00 -0.06 0.08 1930
0.37 0.92 0.57 -0.76 9.92 -0.00 -0.05 0.08 1937
0.38 0.90 0.57 -0.75 9.87 -0.00 -0.06 0.08 1943
0.41 0.89 0.54 -0.76 9.93 -0.00 -0.05 0.08 1949
0.40 0.89 0.56 -0.75 9.94 -0.00 -0.05 0.08 1955
0.40 0.91 0.55 -0.76 9.98 0.00 -0.04 0.08 1961
0.42 0.90 0.52 -0.77 9.96 0.00 -0.05 0.09 1968
0.44 0.83 0.57 -0.73 9.95 0.00 -0.04 0.08 1974
0.46 0.77 0.55 -0.78 9.96 0.01 -0.04 0.08 1980
0.46 0.74 0.57 -0.77 9.99 0.01 -0.04 0.08 1987
0.51 0.71 0.56 -0.79 9.90 0.01 -0.04 0.09 1993
0.50 0.69 0.53 -0.75 9.96 0.01 -0.03 0.09 1999
0.51 0.66 0.53 -0.72 9.99 0.01 -0.03 0.08 2006
0.55 0.63 0.57 -0.78 9.94 0.01 -0.03 0.09 2012
0.54 0.63 0.53 -0.78 9.96 0.01 -0.03 0.09 2018
0.54 0.62 0.56 -0.77 9.99 0.01 -0.03 0.09 2024
0.55 0.55 0.56 -0.73 9.95 0.01 -0.03 0.09 2031
0.56 0.59 0.56 -0.79 9.93 0.01 -0.03 0.09 2037
0.55 0.54 0.54 -0.78 9.94 0.01 -0.03 0.09 2043
0.56 0.51 0.54 -0.76 9.97 0.01 -0.03 0.09 2050
0.59 0.53 0.56 -0.79 9.98 0.01 -0.03 0.08 2056
0.61 0.46 0.58 -0.80 9.95 0.01 -0.02 0.09 2062
0.61 0.44 0.53 -0.78 9.96 0.01 -0.03 0.09 2068
0.61 0.43 0.55 -0.79 9.94 0.01 -0.02 0.09 2075
0.62 0.43 0.57 -0.77 9.96 0.01 -0.03 0.09 2081
0.64 0.30 0.59 -0.77 9.98 0.02 -0.03 0.09 2087
0.64 0.32 0.57 -0.81 9.97 0.01 -0.03 0.09 2094
0.67 0.28 0.58 -0.80 10.01 0.01 -0.03 0.09 2100
0.69 0.27 0.57 -0.76 9.98 0.01 -0.03 0.09 2106
0.69 0.26 0.57 -0.80 9.95 0.01 -0.03 0.08 2112
0.71 0.28 0.56 -0.77 9.94 0.01 -0.04 0.08 2119
0.73 0.21 0.58 -0.80 9.96 0.01 -0.03 0.09 2125
0.74 0.19 0.57 -0.78 9.97 0.01 -0.03 0.09 2131
0.73 0.21 0.56 -0.80 9.96 0.01 -0.02 0.09 2138
0.74 0.20 0.56 -0.81 9.96 0.02 -0.02 0.09 2144
0.73 0.16 0.55 -0.80 10.02 0.02 -0.03 0.10 2150
0.72 0.16 0.57 -0.82 9.97 0.02 -0.02 0.09 2156
0.75 0.15 0.56 -0.81 9.93 0.02 -0.02 0.09 2163
0.76 0.09 0.58 -0.86 9.95 0.02 -0.02 0.09 2169
0.78 0.09 0.60 -0.84 9.97 0.02 -0.02 0.09 2176
0.80 0.07 0.56 -0.81 9.96 0.02 -0.02 0.08 2182
0.82 0.11 0.59 -0.81 9.94 0.03 -0.02 0.08 2188
0.82 0.06 0.56 -0.80 9.96 0.03 -0.01 0.09 2194
0.83 0.05 0.58 -0.84 9.96 0.03 -0.01 0.08 2200
0.84 0.04 0.62 -0.83 9.93 0.03 -0.01 0.09 2207
0.85 0.04 0.60 -0.82 9.96 0.03 -0.01 0.08 2213
0.85 0.02 0.57 -0.83 9.92 0.03 -0.01 0.08 2220
0.85 0.06 0.63 -0.89 9.91 0.03 -0.01 0.09 2226
0.86 0.03 0.59 -0.80 9.87 0.03 -0.00 0.08 2232
0.85 0.01 1.16 -0.89 9.93 0.02 0.03 0.09 2238
0.83 -0.01 0.58 -0.87 9.94 0.01 0.00 0.08 2244
0.82 0.00 0.57 -0.85 9.96 0.01 0.01 0.08 2250
0.82 -0.01 0.59 -0.85 10.00 0.02 0.01 0.09 2257
0.81 0.01 0.56 -0.84 9.98 0.02 0.01 0.09 2264
0.81 0.00 0.68 -0.90 10.00 0.02 0.01 0.08 2270
0.82 0.02 0.63 -0.70 10.18 0.03 0.01 0.07 2276
0.80 0.00 0.68 -0.86 9.92 0.03 0.00 0.07 2282
0.81 -0.01 0.66 -0.90 9.93 0.04 0.00 0.06 2288
0.83 -0.00 0.72 -0.88 9.97 0.04 0.00 0.05 2294
0.83 -0.01 0.67 -0.88 9.92 0.04 0.00 0.04 2301
0.82 -0.03 0.65 -0.86 9.94 0.04 0.01 0.04 2308
0.84 -0.02 0.62 -0.88 9.95 0.04 0.01 0.03 2314
0.85 -0.03 0.64 -0.92 9.92 0.03 0.01 0.03 2320
0.86 -0.03 0.74 -0.95 10.04 0.02 -0.00 0.04 2326
0.86 -0.04 0.67 -0.93 9.87 0.03 0.01 0.02 2332
0.85 -0.03 0.69 -0.93 9.91 0.03 0.00 0.02 2338
0.85 -0.04 0.62 -0.90 9.94 0.02 0.00 0.02 2345
0.84 -0.03 0.67 -0.96 9.94 0.02 0.00 0.02 2352
0.85 -0.03 0.66 -0.92 9.92 0.02 -0.00 0.02 2358
0.86 -0.02 0.72 -0.92 9.95 0.03 -0.01 0.02 2364
0.88 -0.03 0.64 -0.97 9.97 0.02 -0.00 0.03 2370
0.85 -0.04 0.68 -0.95 9.96 0.02 -0.00 0.03 2376
0.85 -0.03 0.71 -0.87 9.74 0.02 -0.01 0.03 2382
0.86 -0.02 0.65 -0.95 10.10 0.03 -0.00 0.03 2390
0.86 -0.04 0.73 -0.93 9.98 0.04 0.00 0.03 2396
0.85 -0.02 0.72 -0.96 10.01 0.05 0.01 0.03 2402
0.85 -0.02 0.72 -0.95 9.99 0.06 0.02 0.02 2408
0.85 -0.03 0.74 -1.02 10.02 0.07 0.02 0.02 2414
0.83 -0.03 0.68 -0.97 10.02 0.10 0.03 0.02 2420
0.84 -0.02 0.77 -0.99 10.01 0.12 0.05 0.01 2427
0.84 -0.03 0.75 -1.01 10.01 0.15 0.07 0.01 2434
0.84 -0.04 0.75 -1.01 10.01 0.20 0.09 0.01 2440
0.85 -0.04 0.74 -1.02 9.91 0.18 0.11 0.01 2446
0.81 -0.03 0.74 -1.05 9.93 0.17 0.12 0.01 2452
0.78 -0.03 0.71 -1.10 9.85 0.14 0.12 0.01 2458
0.74 -0.03 0.78 -1.11 9.80 0.10 0.12 0.02 2465
0.74 -0.04 0.78 -1.11 9.84 0.05 0.10 0.02 2471
0.68 -0.04 0.84 -1.08 9.85 0.01 0.08 0.02 2478
0.60 -0.03 0.87 -1.09 9.88 -0.02 0.06 0.03 2484
0.60 -0.03 0.86 -1.07 9.85 -0.05 0.03 0.03 2490
0.56 -0.03 0.86 -1.07 9.79 -0.07 -0.00 0.02 2496
0.53 -0.03 0.87 -1.12 9.76 -0.12 -0.02 0.03 2502
0.50 -0.02 0.90 -1.09 9.86 -0.18 -0.04 0.02 2508
0.48 -0.03 0.75 -1.05 9.90 -0.22 -0.05 0.02 2515
0.43 -0.03 0.73 -0.96 10.14 -0.21 -0.05 0.04 2522
0.41 -0.01 0.82 -0.98 10.06 -0.18 -0.04 0.05 2528
0.30 -0.02 0.74 -0.98 10.20 -0.16 -0.04 0.05 2534
0.28 -0.02 0.74 -0.97 9.97 -0.15 -0.04 0.07 2540
0.27 -0.01 0.82 -0.97 9.90 -0.14 -0.04 0.07 2547
0.24 -0.02 0.80 -0.97 9.95 -0.14 -0.06 0.08 2553
0.22 -0.02 0.85 -1.00 9.94 -0.14 -0.06 0.08 2560
0.17 -0.01 0.85 -0.96 9.92 -0.14 -0.03 0.07 2566
0.19 -0.00 0.93 -1.55 10.21 -0.13 -0.06 0.07 2572
0.17 0.01 0.89 -0.85 9.92 -0.08 -0.02 0.07 2578
0.14 0.01 0.79 -0.83 9.95 -0.08 -0.02 0.07 2584
0.16 0.01 0.74 -0.93 9.99 -0.07 -0.02 0.07 2591
0.14 0.01 0.80 -0.84 9.97 -0.06 -0.03 0.07 2597
0.14 0.00 0.75 -0.85 9.98 -0.05 -0.03 0.07 2604
0.14 0.02 0.73 -0.87 9.96 -0.04 -0.04 0.07 2610
0.12 0.05 0.80 -0.85 9.95 -0.02 -0.04 0.06 2616
0.10 0.03 0.83 -0.84 9.93 -0.02 -0.05 0.07 2622
0.09 0.02 0.82 -0.79 9.94 -0.00 -0.05 0.06 2628
0.11 0.03 0.81 -0.79 9.94 0.00 -0.05 0.07 2634
0.11 0.02 0.79 -0.84 9.92 0.01 -0.05 0.06 2641
0.12 0.01 0.79 -0.88 9.99 0.01 -0.05 0.06 2648
0.12 0.03 0.77 -0.87 9.95 0.01 -0.05 0.06 2654
0.13 0.03 0.78 -0.88 9.95 0.02 -0.05 0.06 2660
0.12 0.02 0.73 -0.92 9.94 0.02 -0.05 0.06 2666
0.12 0.02 0.78 -0.91 10.05 0.02 -0.05 0.07 2672
0.12 0.02 0.79 -0.93 9.93 0.02 -0.05 0.04 2678
0.13 0.01 0.84 -0.92 9.93 0.02 -0.05 0.07 2685
0.14 -0.00 0.83 -0.91 9.97 0.03 -0.06 0.06 2692
0.14 0.00 0.84 -0.86 9.99 0.04 -0.06 0.06 2698
0.15 -0.00 1.24 -1.13 10.00 0.06 -0.03 0.02 2704
0.13 -0.01 0.81 -0.95 10.14 0.10 -0.02 0.05 2710
0.16 -0.02 0.96 -0.92 10.19 0.17 0.04 0.02 2716
0.16 -0.00 0.97 -0.71 10.74 0.26 0.13 0.03 2723
0.18 -0.02 0.52 -1.18 10.32 0.45 0.20 0.03 2729
0.18 -0.01 0.86 -1.08 10.84 0.57 0.27 0.03 2736
0.21 -0.00 0.84 -1.21 9.97 0.65 0.30 0.02 2742
0.20 -0.01 0.98 -1.32 10.35 0.67 0.28 0.01 2748
0.21 -0.02 0.95 -1.30 9.83 0.63 0.23 0.01 2754
0.20 -0.01 0.80 -1.33 9.81 0.56 0.16 0.02 2760
0.21 -0.02 0.96 -1.35 9.58 0.49 0.10 0.02 2767
0.21 -0.02 0.99 -1.35 9.56 0.41 0.04 0.02 2774
0.20 -0.01 0.97 -1.42 9.49 0.33 0.01 0.02 2780
0.21 -0.01 1.04 -1.39 9.52 0.26 -0.03 0.01 2786
0.21 -0.02 1.02 -1.43 9.50 0.18 -0.05 0.01 2792
0.21 -0.02 1.00 -1.45 9.51 0.11 -0.08 0.01 2798
0.20 -0.02 0.98 -1.43 9.48 0.05 -0.09 0.00 2804
0.19 -0.00 0.98 -1.45 9.58 -0.00 -0.10 0.00 2810
0.21 -0.02 0.93 -1.43 9.79 -0.05 -0.10 0.00 2818
0.23 -0.02 0.95 -1.43 9.85 -0.08 -0.10 0.01 2824
0.22 -0.02 0.97 -1.42 9.88 -0.10 -0.10 0.00 2830
0.26 -0.01 0.97 -1.42 9.97 -0.09 -0.10 0.00 2836
0.26 -0.02 0.95 -1.39 9.97 -0.09 -0.10 0.01 2842
0.26 -0.02 0.93 -1.40 10.01 -0.08 -0.09 0.00 2848
0.28 -0.01 0.91 -1.39 10.10 -0.07 -0.08 0.01 2854
0.28 -0.02 0.88 -1.40 10.07 -0.04 -0.07 0.01 2862
0.28 -0.02 0.86 -1.40 10.08 -0.02 -0.07 0.02 2868
0.29 -0.01 0.89 -1.38 10.10 -0.00 -0.05 0.02 2874
0.29 -0.02 0.96 -1.39 10.06 0.02 -0.05 0.02 2880
0.28 -0.02 0.94 -1.40 10.05 0.04 -0.05 0.02 2886
0.29 -0.01 0.97 -1.43 10.03 0.06 -0.04 0.02 2893
0.29 -0.02 0.98 -1.40 10.01 0.07 -0.03 0.02 2899
0.29 -0.02 0.96 -1.44 10.04 0.09 -0.03 0.02 2906
0.31 -0.01 0.95 -1.44 10.08 0.11 -0.03 0.01 2912
0.31 -0.02 1.00 -1.44 10.12 0.13 -0.03 0.01 2918
0.29 -0.02 1.00 -1.53 10.16 0.15 -0.03 0.01 2925
0.30 -0.02 1.01 -1.48 10.24 0.18 -0.03 0.00 2931
0.29 -0.03 1.02 -1.53 10.22 0.21 -0.02 -0.00 2937
0.29 -0.02 1.08 -1.53 10.22 0.25 -0.02 -0.01 2944
0.31 -0.02 1.07 -1.52 10.30 0.29 -0.02 -0.02 2950
0.30 -0.02 1.12 -1.61 10.26 0.33 -0.02 -0.03 2957
0.28 -0.02 1.02 -1.55 10.27 0.37 -0.01 -0.05 2963
0.30 -0.02 1.04 -1.66 10.28 0.40 -0.01 -0.05 2969
0.26 -0.03 1.08 -1.68 10.24 0.43 -0.02 -0.06 2975
0.25 -0.02 1.01 -1.66 10.26 0.45 -0.02 -0.07 2981
0.25 -0.02 0.99 -1.68 10.23 0.48 -0.02 -0.07 2988
0.21 -0.02 1.07 -1.84 10.15 0.49 -0.03 -0.07 2995
0.21 -0.02 0.96 -1.79 10.25 0.50 -0.04 -0.08 3001
0.23 -0.01 0.98 -1.85 10.05 0.51 -0.05 -0.08 3007
0.22 -0.02 1.08 -1.88 10.04 0.52 -0.06 -0.08 3013
0.17 -0.02 1.07 -1.90 10.02 0.52 -0.06 -0.09 3019
0.19 -0.00 1.00 -1.95 9.86 0.52 -0.06 -0.10 3025
0.19 -0.01 0.99 -1.98 9.87 0.51 -0.06 -0.09 3033
0.21 -0.02 1.03 -2.06 9.81 0.50 -0.06 -0.10 3039
0.16 -0.00 0.96 -2.05 9.83 0.48 -0.05 -0.10 3045
0.19 -0.01 0.97 -2.13 9.74 0.46 -0.04 -0.10 3051
0.17 -0.02 0.96 -2.16 9.74 0.45 -0.03 -0.10 3057
0.14 -0.01 0.98 -2.19 9.83 0.44 -0.00 -0.10 3063
0.13 -0.01 0.93 -2.27 9.75 0.41 0.02 -0.10 3069
0.12 -0.01 0.99 -2.28 9.70 0.40 0.03 -0.10 3076
0.13 -0.01 0.95 -2.30 9.33 0.39 0.10 -0.10 3083
0.13 -0.01 0.86 -2.33 9.27 0.36 0.12 -0.10 3089
0.12 -0.01 0.83 -2.32 9.66 0.34 0.18 -0.09 3095
0.10 -0.01 0.59 -2.41 9.92 0.33 0.21 -0.07 3101
0.08 -0.01 0.61 -2.45 9.97 0.33 0.23 -0.05 3107
0.08 -0.01 0.76 -2.47 9.80 0.34 0.26 -0.02 3113
0.09 -0.01 0.72 -2.48 9.83 0.34 0.31 -0.00 3120
0.12 -0.01 0.73 -2.57 9.94 0.34 0.33 0.02 3126
0.09 -0.01 0.85 -2.63 10.13 0.34 0.34 0.04 3133
0.07 -0.00 0.97 -2.58 10.08 0.36 0.36 0.06 3139
0.08 -0.00 0.98 -2.64 9.85 0.37 0.38 0.07 3145
0.07 -0.01 1.01 -2.63 9.80 0.37 0.38 0.09 3151
0.07 0.00 1.01 -2.66 9.71 0.37 0.40 0.10 3158
0.07 0.01 1.00 -2.68 9.71 0.33 0.42 0.12 3164
0.09 -0.00 1.02 -2.78 9.73 0.36 0.45 0.14 3170
0.08 -0.01 1.00 -2.78 9.35 0.35 0.47 0.15 3176
0.08 0.00 1.30 -2.72 8.75 0.35 0.53 0.16 3183
0.08 0.00 1.45 -2.62 9.27 0.34 0.57 0.15 3189
0.07 -0.00 1.15 -2.90 10.15 0.33 0.57 0.15 3195
0.07 0.00 1.35 -2.97 10.74 0.37 0.57 0.18 3202
0.09 -0.00 1.70 -2.95 10.44 0.41 0.59 0.18 3208
0.09 -0.01 1.71 -2.96 10.20 0.43 0.59 0.17 3215
0.06 -0.00 1.66 -3.01 10.08 0.45 0.59 0.17 3221
0.08 0.00 1.55 -3.03 9.99 0.50 0.58 0.17 3227
0.08 0.00 1.53 -3.08 9.87 0.48 0.57 0.18 3233
0.07 -0.00 1.47 -3.18 10.18 0.49 0.58 0.20 3239
0.08 0.00 1.02 -3.33 9.92 0.50 0.61 0.23 3246
0.07 -0.00 1.50 -3.28 9.82 0.51 0.63 0.25 3252
0.06 -0.01 1.30 -3.45 9.95 0.52 0.64 0.28 3259
0.09 0.01 1.06 -3.61 10.05 0.54 0.63 0.33 3265
0.08 -0.00 1.01 -3.74 10.10 0.57 0.61 0.39 3271
0.06 -0.01 1.03 -3.81 10.21 0.59 0.60 0.46 3277
0.07 0.00 1.17 -3.81 10.22 0.62 0.58 0.53 3283
0.09 -0.00 1.47 -3.50 10.55 0.64 0.57 0.59 3291
0.07 -0.01 1.93 -3.57 10.69 0.64 0.62 0.62 3297
0.08 0.00 2.06 -3.48 10.65 0.63 0.72 0.64 3303
0.07 -0.00 2.04 -3.43 10.48 0.64 0.76 0.65 3309
0.06 -0.01 1.86 -3.49 10.55 0.64 0.81 0.66 3315
0.06 -0.00 1.89 -3.58 10.74 0.65 0.83 0.67 3321
0.07 -0.00 1.98 -3.61 10.69 0.66 0.87 0.69 3329
0.06 -0.01 2.18 -3.45 10.59 0.65 0.92 0.68 3335
0.06 -0.00 2.28 -3.45 10.53 0.63 0.96 0.67 3341
0.07 -0.00 2.34 -3.53 10.47 0.60 0.99 0.66 3347
0.07 -0.01 2.29 -3.76 10.21 0.57 1.03 0.64 3353
0.07 0.01 1.94 -4.11 9.80 0.55 1.09 0.60 3360
0.08 0.00 1.28 -4.55 9.40 0.55 1.11 0.53 3366
0.07 -0.01 -0.50 -5.47 9.18 0.57 1.04 0.40 3373
0.07 -0.00 -2.55 -5.84 9.40 0.59 0.91 0.14 3379
0.08 0.01 -3.30 -5.54 9.52 0.61 0.64 -0.19 3385
0.08 -0.00 -5.44 -5.67 10.34 0.59 0.29 -0.45 3391
0.07 -0.01 -5.03 -5.21 10.02 0.54 -0.09 -0.79 3397
0.08 -0.00 -6.02 -5.31 10.31 0.47 -0.46 -1.14 3404
0.08 -0.01 -5.75 -5.45 10.27 0.41 -0.80 -1.44 3410
0.08 -0.01 -5.15 -5.08 10.17 0.35 -1.07 -1.72 3417
0.08 -0.00 -4.85 -4.69 10.52 0.32 -1.29 -2.02 3423
0.07 -0.01 -4.00 -4.40 10.60 0.31 -1.48 -2.29 3429
0.07 -0.01 -3.40 -4.09 10.78 0.29 -1.65 -2.46 3436
0.08 0.00 -3.62 -3.44 10.10 0.26 -1.79 -2.57 3442
0.08 -0.01 -1.86 -3.18 9.84 0.22 -1.91 -2.61 3448
0.06 -0.01 -0.50 -3.57 10.14 0.20 -2.04 -2.51 3454
0.07 -0.01 -0.99 -2.94 9.04 0.17 -2.15 -2.41 3461
0.06 -0.01 -0.02 -2.87 9.81 0.19 -2.31 -2.24 3467
0.07 -0.01 0.26 -2.68 9.14 0.22 -2.44 -2.04 3473
0.05 -0.00 2.05 -2.73 10.67 0.26 -2.57 -1.77 3480
0.08 0.01 1.49 -2.57 10.09 0.28 -2.66 -1.49 3486
0.06 -0.00 4.73 -2.79 11.03 0.31 -2.70 -1.21 3492
0.06 -0.00 3.49 -2.60 10.81 0.33 -2.65 -0.90 3499
0.07 0.00 4.98 -2.65 10.58 0.33 -2.54 -0.62 3505
0.06 -0.01 4.44 -2.42 10.98 0.31 -2.36 -0.47 3512
0.06 -0.00 3.95 -2.43 10.82 0.26 -2.20 -0.38 3518
0.07 -0.01 2.98 -2.40 10.10 0.21 -2.05 -0.37 3524
0.06 -0.01 2.07 -2.40 9.97 0.16 -1.82 -0.46 3530
0.05 0.00 1.92 -2.62 9.65 0.11 -1.60 -0.53 3536
0.06 -0.00 0.65 -2.56 9.81 0.06 -1.39 -0.67 3543
0.06 -0.00 -0.25 -2.67 9.21 0.05 -1.20 -0.84 3550
0.06 -0.00 -1.29 -2.93 9.02 0.05 -1.07 -1.01 3556
0.08 0.01 -1.76 -3.20 9.12 0.07 -0.99 -1.15 3562
0.07 -0.00 -1.98 -3.30 9.06 0.10 -0.96 -1.24 3568
0.07 -0.01 -2.17 -3.23 9.31 0.10 -0.95 -1.29 3574
0.06 -0.00 -2.30 -3.02 9.35 0.08 -0.96 -1.32 3580
0.07 -0.01 -2.20 -2.88 9.39 0.08 -1.02 -1.34 3587
0.05 -0.00 -2.23 -3.07 9.32 0.08 -1.09 -1.34 3594
0.04 -0.00 -2.19 -3.14 9.52 0.09 -1.15 -1.34 3600
0.06 0.00 -1.94 -3.22 9.42 0.10 -1.21 -1.33 3606
0.06 -0.01 -1.56 -3.11 9.36 0.11 -1.27 -1.31 3612
0.06 -0.01 -1.14 -3.03 9.40 0.13 -1.34 -1.29 3618
0.07 -0.00 -0.83 -3.02 9.21 0.14 -1.30 -1.27 3624
0.06 -0.01 -0.45 -3.03 9.25 0.16 -1.26 -1.24 3631
0.05 -0.00 -0.11 -3.01 9.20 0.16 -1.17 -1.20 3637
0.04 -0.00 0.13 -3.04 9.13 0.17 -1.06 -1.15 3644
0.05 -0.01 0.25 -3.01 9.14 0.18 -0.95 -1.11 3650
0.06 -0.00 0.40 -2.99 9.17 0.19 -0.84 -1.07 3656
0.05 -0.01 0.51 -2.94 9.15 0.21 -0.75 -1.04 3662
0.05 -0.00 0.52 -2.91 9.10 0.24 -0.71 -1.02 3668
0.05 0.00 0.62 -2.91 9.15 0.26 -0.65 -0.97 3675
0.06 -0.01 0.66 -2.87 9.05 0.29 -0.58 -0.99 3681
0.05 -0.00 0.85 -3.00 9.01 0.33 -0.50 -0.99 3687
0.04 -0.00 -0.75 -4.72 8.83 0.35 -0.39 -0.98 3693
0.05 0.00 1.68 -3.97 11.15 0.38 -0.16 -0.86 3700
0.05 -0.00 1.74 -3.16 9.90 0.27 0.04 -0.78 3706
0.05 -0.00 2.24 -3.66 9.24 0.22 0.21 -0.72 3713
0.04 0.00 1.30 -3.45 9.54 0.14 0.35 -0.66 3719
0.06 -0.01 1.56 -3.82 8.59 0.05 0.42 -0.59 3725
0.05 -0.01 1.37 -3.84 8.93 -0.03 0.46 -0.52 3731
0.04 -0.00 0.65 -3.79 9.24 -0.09 0.46 -0.47 3737
0.05 0.00 0.58 -4.13 8.92 -0.13 0.42 -0.39 3743
0.06 -0.01 0.35 -3.99 9.14 -0.16 0.34 -0.33 3750
0.05 -0.00 0.20 -5.08 8.61 -0.16 0.29 -0.25 3757
0.05 -0.00 0.16 -5.12 9.29 -0.15 0.18 -0.18 3763
0.05 -0.00 0.13 -4.80 9.17 -0.17 0.06 -0.10 3769
0.06 -0.01 -0.12 -4.74 9.79 -0.22 -0.03 -0.05 3775
0.05 -0.01 -0.09 -4.78 10.01 -0.33 -0.14 -0.02 3781
0.05 -0.00 -0.34 -3.94 10.16 -0.41 -0.27 0.02 3787
0.06 0.01 -0.40 -2.93 10.10 -0.54 -0.40 0.01 3793
0.06 -0.01 -0.19 -3.04 9.70 -0.69 -0.48 0.00 3801
0.05 -0.01 -0.04 -2.65 10.12 -0.81 -0.55 -0.01 3807
0.05 0.00 0.69 -2.40 10.26 -0.91 -0.56 -0.03 3813
0.06 -0.01 1.39 -2.10 10.24 -0.99 -0.48 -0.05 3819
0.04 -0.00 1.70 -2.79 9.18 -1.05 -0.35 -0.07 3825
0.04 0.00 2.29 -2.87 9.51 -1.10 -0.10 -0.07 3831
0.05 0.00 2.46 -2.17 9.30 -1.18 0.16 -0.07 3837
0.05 -0.00 2.21 -1.98 8.88 -1.24 0.43 -0.08 3845
0.05 -0.00 2.12 -2.21 8.63 -1.25 0.63 -0.09 3851
0.06 -0.00 1.94 -2.32 8.47 -1.23 0.79 -0.08 3857
0.07 -0.00 1.62 -2.28 8.50 -1.16 0.89 -0.07 3863
0.05 -0.01 1.44 -2.28 8.43 -1.07 0.94 -0.05 3869
0.05 -0.00 1.30 -2.23 8.41 -0.97 0.93 -0.01 3875
0.05 0.00 1.15 -2.20 8.51 -0.86 0.90 0.04 3881
0.05 -0.00 1.16 -2.18 8.77 -0.77 0.85 0.09 3889
0.04 -0.00 1.25 -2.15 9.15 -0.68 0.80 0.17 3895
0.05 -0.01 1.46 -2.20 9.42 -0.61 0.75 0.24 3901
0.06 -0.00 1.70 -2.11 9.69 -0.56 0.71 0.30 3907
0.06 -0.01 1.95 -2.11 10.00 -0.54 0.69 0.38 3913
0.05 -0.00 2.25 -2.13 10.43 -0.55 0.71 0.47 3919
0.06 0.00 -1.44 -3.16 17.20 -0.57 0.90 0.44 3926
0.06 -0.01 2.16 -2.23 13.38 -0.93 1.21 0.37 3933
0.05 -0.01 1.71 -1.68 11.17 -1.18 1.28 0.33 3939
0.06 0.01 2.13 -1.68 11.26 -1.24 1.33 0.30 3945
0.06 -0.01 2.24 -2.81 9.67 -1.29 1.22 0.37 3951
0.06 -0.01 2.94 -3.61 9.60 -1.27 1.13 0.49 3957
0.05 -0.00 2.98 -4.13 10.34 -1.20 1.08 0.61 3963
0.05 -0.00 3.60 -4.12 10.53 -1.15 1.11 0.71 3971
0.06 -0.01 3.67 -4.16 10.10 -1.12 1.17 0.84 3977
0.06 0.01 3.54 -4.23 9.79 -1.06 1.27 0.96 3983
0.05 -0.01 3.54 -4.31 9.63 -1.02 1.41 1.07 3989
0.04 -0.00 3.48 -4.56 9.64 -0.97 1.54 1.17 3995
0.06 -0.00 3.30 -4.90 9.64 -0.93 1.65 1.26 4001
0.06 -0.00 3.07 -5.36 9.84 -0.86 1.74 1.32 4008
0.06 -0.01 2.46 -5.78 10.15 -0.80 1.79 1.35 4015
0.05 -0.00 3.28 -6.25 10.47 -0.73 1.83 1.34 4021
0.06 -0.00 3.50 -6.59 10.61 -0.68 1.87 1.30 4027
0.05 -0.01 3.55 -6.83 10.55 -0.65 1.92 1.25 4033
0.05 -0.00 3.59 -6.96 10.64 -0.63 1.97 1.18 4039
0.06 0.00 3.60 -7.00 10.76 -0.62 2.04 1.10 4046
0.06 -0.00 3.54 -7.00 10.71 -0.63 2.13 1.01 4052
0.05 -0.00 3.30 -6.98 10.64 -0.65 2.18 0.93 4059
0.07 0.01 3.05 -6.96 10.70 -0.69 2.19 0.85 4065
0.06 -0.00 2.89 -6.88 10.92 -0.74 2.15 0.77 4071
0.06 0.00 2.70 -6.69 11.31 -0.79 2.05 0.70 4078
0.07 -0.00 2.42 -6.57 11.38 -0.85 1.93 0.67 4084
0.07 -0.00 2.13 -6.47 11.24 -0.90 1.80 0.67 4090
0.06 0.01 1.88 -6.44 11.05 -0.94 1.68 0.71 4097
0.08 0.01 -2.35 -7.68 15.78 -1.03 0.89 0.55 4103
0.07 -0.01 2.89 -3.21 6.93 -1.07 0.58 0.69 4110
0.06 -0.01 -4.17 -5.98 11.77 -1.03 0.62 0.86 4116
0.07 -0.00 -1.79 -6.63 12.66 -1.05 0.46 0.88 4122
0.07 -0.00 -0.36 -5.71 9.52 -0.96 0.33 0.83 4128
0.06 -0.01 -1.06 -5.57 8.82 -0.86 0.21 0.79 4134
0.07 0.00 -3.75 -6.04 9.11 -0.77 0.07 0.68 4141
0.07 -0.01 -14.55 -8.52 8.62 -0.66 -0.18 0.56 4147
0.07 -0.01 -8.18 -7.46 15.70 -0.47 -0.66 0.70 4154
0.08 -0.01 -4.63 -6.66 11.63 -0.39 -0.54 0.78 4160
0.08 -0.00 -4.20 -7.01 9.99 -0.17 -0.77 0.79 4166
0.08 -0.01 -2.64 -5.26 8.35 -0.07 -0.99 0.79 4172
0.07 -0.01 -3.83 -6.57 8.34 0.04 -1.02 0.78 4178
0.07 -0.01 -5.52 -7.07 8.50 0.13 -1.10 0.80 4185
0.07 -0.01 -9.67 -7.49 8.80 0.22 -1.35 0.82 4191
0.06 -0.01 -24.05 -7.79 18.98 0.68 -1.24 1.30 4198
0.06 -0.01 -14.43 -4.77 13.80 0.77 -1.62 1.64 4204
0.06 -0.00 -14.93 -2.55 11.89 0.76 -2.06 1.74 4210
0.05 0.01 -20.42 -5.13 14.71 0.38 -1.52 1.36 4216
0.06 0.04 -15.20 -5.77 13.40 -0.04 -0.09 0.45 4224
0.04 0.05 -3.87 -0.20 9.84 -0.29 0.22 -0.02 4230
0.05 0.08 0.54 -0.10 11.34 -0.60 0.04 0.07 4236
0.07 0.08 -0.37 -0.61 10.20 -0.36 -0.02 0.03 4242
0.03 0.11 1.03 -1.20 9.76 -0.26 0.01 -0.02 4248
0.02 0.22 3.57 -1.25 9.77 -0.14 -0.01 0.04 4254
0.03 0.39 1.73 -0.88 9.90 -0.09 0.08 0.16 4261
0.03 0.47 1.07 -0.81 10.47 -0.07 0.07 0.15 4268
0.01 0.64 0.62 -0.50 10.33 -0.06 0.05 0.12 4274
0.03 0.63 0.64 -0.43 10.10 -0.03 0.02 0.07 4280
0.03 0.70 0.80 -0.51 9.92 -0.01 -0.01 0.04 4286
0.03 0.71 0.88 -0.68 9.89 -0.00 -0.04 0.03 4292
0.02 0.70 0.78 -0.73 10.01 0.00 -0.05 0.05 4299
0.05 0.71 0.59 -0.80 10.05 -0.00 -0.05 0.06 4305
0.06 0.69 0.47 -0.84 9.94 -0.02 -0.03 0.06 4312
0.06 0.69 0.61 -0.80 9.94 -0.02 -0.02 0.07 4318
0.08 0.70 0.73 -0.73 9.91 -0.03 -0.01 0.07 4324
0.07 0.68 0.72 -0.68 9.96 -0.03 -0.01 0.07 4330
0.05 0.66 0.72 -0.69 10.02 -0.03 -0.02 0.07 4336
0.04 0.68 0.69 -0.74 10.03 -0.02 -0.02 0.08 4343
0.05 0.64 0.63 -0.67 9.96 -0.02 -0.03 0.08 4349
0.05 0.63 0.63 -0.71 9.98 -0.02 -0.03 0.09 4356
0.09 0.63 0.62 -0.75 9.98 -0.02 -0.03 0.09 4362
0.09 0.62 0.61 -0.75 9.95 -0.02 -0.04 0.09 4368
0.09 0.60 0.63 -0.72 9.96 -0.02 -0.03 0.10 4374
0.05 0.61 0.67 -0.76 9.99 -0.02 -0.03 0.10 4381
0.09 0.59 0.68 -0.67 9.96 -0.01 -0.03 0.10 4387
0.10 0.59 0.70 -0.67 9.95 -0.01 -0.04 0.11 4393
0.07 0.57 0.65 -0.70 9.96 -0.02 -0.04 0.11 4400
0.09 0.56 0.68 -0.68 9.91 -0.01 -0.05 0.11 4406
0.13 0.54 0.66 -0.70 9.94 -0.01 -0.05 0.10 4412
0.12 0.52 0.68 -0.69 9.99 -0.01 -0.05 0.09 4418
0.12 0.51 0.67 -0.68 9.98 -0.01 -0.05 0.09 4425
0.13 0.51 0.65 -0.71 9.96 -0.01 -0.05 0.09 4431
0.12 0.50 0.62 -0.71 9.97 -0.01 -0.05 0.10 4438
0.13 0.50 0.66 -0.72 9.97 -0.01 -0.04 0.10 4444
0.15 0.47 0.66 -0.68 9.97 -0.01 -0.05 0.10 4450
0.16 0.46 0.65 -0.73 9.93 -0.00 -0.04 0.10 4456
0.17 0.48 0.63 -0.70 9.98 -0.01 -0.04 0.10 4462
0.17 0.48 0.65 -0.72 9.96 -0.01 -0.04 0.10 4469
0.17 0.49 0.64 -0.69 9.94 -0.01 -0.04 0.10 4475
0.16 0.46 0.63 -0.73 9.96 -0.01 -0.04 0.10 4482
0.14 0.48 0.67 -0.70 9.94 -0.01 -0.04 0.10 4488
0.15 0.48 0.67 -0.68 9.95 -0.01 -0.04 0.10 4494
0.13 0.49 0.62 -0.72 9.96 -0.01 -0.04 0.10 4500
0.13 0.48 0.65 -0.70 9.94 -0.01 -0.04 0.10 4506
0.13 0.49 0.63 -0.70 10.00 -0.01 -0.05 0.10 4513
0.13 0.50 0.61 -0.67 9.94 -0.01 -0.04 0.10 4519
0.12 0.51 0.68 -0.67 9.95 -0.01 -0.04 0.11 4526
0.13 0.52 0.64 -0.68 9.93 -0.01 -0.04 0.10 4532
0.13 0.53 0.63 -0.69 9.97 -0.01 -0.04 0.11 4538
0.13 0.53 0.62 -0.67 9.96 -0.01 -0.03 0.10 4544
0.12 0.54 0.61 -0.71 9.95 -0.01 -0.03 0.11 4551
0.14 0.56 0.65 -0.68 9.98 -0.01 -0.03 0.10 4557
0.12 0.57 0.64 -0.70 9.94 -0.01 -0.03 0.10 4563
0.10 0.56 0.67 -0.70 9.92 -0.01 -0.03 0.11 4570
0.11 0.62 0.65 -0.67 9.92 -0.01 -0.04 0.11 4576
0.11 0.64 0.65 -0.69 9.98 -0.01 -0.04 0.11 4582
0.11 0.64 0.64 -0.67 9.96 -0.02 -0.03 0.11 4588
0.10 0.66 0.67 -0.69 9.93 -0.01 -0.04 0.11 4595
0.11 0.66 0.67 -0.65 9.97 -0.01 -0.03 0.10 4601
0.10 0.63 0.64 -0.70 9.95 -0.01 -0.04 0.11 4608
0.09 0.65 0.66 -0.69 9.95 -0.01 -0.04 0.11 4614
0.11 0.64 0.66 -0.66 9.94 -0.01 -0.04 0.11 4620
0.10 0.68 0.68 -0.70 9.92 -0.01 -0.04 0.11 4626
0.09 0.68 0.65 -0.65 9.92 -0.01 -0.04 0.11 4633
0.10 0.72 0.65 -0.66 9.98 -0.02 -0.05 0.11 4639
0.10 0.68 0.66 -0.64 9.91 -0.02 -0.05 0.10 4645
0.10 0.62 0.64 -0.66 9.95 -0.02 -0.05 0.10 4652
0.10 0.72 0.64 -0.66 9.96 -0.02 -0.05 0.10 4658
0.11 0.74 0.63 -0.69 9.95 -0.02 -0.05 0.10 4664
0.11 0.72 0.63 -0.65 9.93 -0.01 -0.04 0.11 4670
0.10 0.75 0.67 -0.67 9.94 -0.02 -0.04 0.10 4677
0.13 0.74 0.65 -0.66 9.94 -0.01 -0.04 0.11 4683
0.11 0.74 0.66 -0.66 9.95 -0.02 -0.04 0.10 4689
0.11 0.72 0.64 -0.64 9.95 -0.01 -0.05 0.11 4696
0.12 0.72 0.67 -0.68 9.92 -0.01 -0.04 0.11 4702
0.12 0.70 0.66 -0.68 9.95 -0.02 -0.04 0.10 4708
0.12 0.70 0.65 -0.66 9.97 -0.02 -0.04 0.11 4714
0.12 0.71 0.66 -0.68 9.95 -0.01 -0.04 0.10 4721
0.12 0.72 0.65 -0.66 9.95 -0.01 -0.04 0.11 4727
0.12 0.72 0.63 -0.69 9.93 -0.01 -0.04 0.11 4733
0.11 0.74 0.67 -0.69 9.97 -0.01 -0.04 0.10 4740
0.11 0.76 0.61 -0.66 9.97 -0.01 -0.03 0.10 4746
0.11 0.77 0.65 -0.67 9.97 -0.01 -0.03 0.11 4752
0.11 0.78 0.64 -0.66 9.98 -0.01 -0.03 0.11 4759
0.13 0.77 0.66 -0.66 9.97 -0.01 -0.02 0.11 4765
0.13 0.77 0.66 -0.68 9.97 -0.01 -0.02 0.11 4771
0.13 0.74 0.64 -0.68 9.98 -0.00 -0.02 0.11 4777
0.13 0.73 0.64 -0.63 9.95 -0.00 -0.02 0.11 4784
0.14 0.74 0.65 -0.65 9.98 -0.00 -0.02 0.11 4790
0.13 0.71 0.70 -0.71 9.94 0.00 -0.02 0.11 4796
0.12 0.71 0.69 -0.66 9.98 -0.00 -0.03 0.11 4803
0.13 0.73 0.68 -0.67 9.95 0.00 -0.03 0.11 4809
0.12 0.71 0.70 -0.69 9.96 -0.00 -0.03 0.11 4815
0.11 0.73 0.69 -0.66 9.93 -0.01 -0.04 0.11 4822
0.13 0.74 0.68 -0.65 9.94 -0.01 -0.04 0.11 4828
0.13 0.72 0.70 -0.68 9.95 -0.01 -0.05 0.10 4834
0.13 0.71 0.67 -0.63 9.95 -0.01 -0.05 0.11 4841
0.13 0.72 0.64 -0.68 9.93 -0.01 -0.05 0.10 4847
0.14 0.73 0.65 -0.66 9.96 -0.00 -0.05 0.10 4853
0.13 0.71 0.66 -0.67 9.99 -0.01 -0.05 0.10 4859
0.11 0.70 0.66 -0.66 9.99 -0.00 -0.05 0.10 4866
0.13 0.67 0.66 -0.65 9.95 -0.01 -0.05 0.10 4872
0.14 0.66 0.66 -0.66 9.98 -0.00 -0.04 0.10 4878
0.14 0.63 0.66 -0.66 9.96 0.00 -0.05 0.09 4885
0.16 0.60 0.69 -0.68 9.98 0.00 -0.05 0.10 4891
0.18 0.56 0.70 -0.66 9.97 0.00 -0.04 0.10 4897
0.17 0.57 0.70 -0.68 9.98 0.00 -0.05 0.10 4903
0.15 0.55 0.69 -0.68 9.95 0.00 -0.05 0.10 4910
0.18 0.54 0.67 -0.68 10.00 0.00 -0.05 0.10 4916
0.19 0.51 0.68 -0.68 9.97 0.00 -0.06 0.09 4922
0.19 0.45 0.68 -0.68 9.94 -0.00 -0.06 0.09 4929
0.20 0.46 0.69 -0.70 9.94 -0.01 -0.06 0.09 4935
0.21 0.43 0.68 -0.68 9.96 -0.01 -0.07 0.09 4941
0.21 0.43 0.66 -0.67 9.91 -0.01 -0.07 0.09 4947
0.20 0.44 0.67 -0.68 9.93 -0.01 -0.07 0.09 4954
0.21 0.44 0.65 -0.69 9.96 -0.01 -0.07 0.09 4960
0.19 0.46 0.66 -0.68 10.02 -0.01 -0.07 0.08 4966
0.19 0.46 0.65 -0.68 10.04 -0.01 -0.06 0.09 4973
0.22 0.46 0.64 -0.68 9.98 -0.00 -0.06 0.09 4979
0.22 0.47 0.68 -0.67 9.99 -0.00 -0.06 0.09 4985
0.24 0.45 0.67 -0.67 9.97 -0.00 -0.06 0.09 4992
0.27 0.43 0.68 -0.69 10.00 0.00 -0.06 0.08 4998
0.29 0.38 0.65 -0.70 9.96 0.00 -0.06 0.09 5004
0.28 0.38 0.66 -0.69 10.00 0.00 -0.06 0.08 5011
0.29 0.39 0.66 -0.67 9.98 0.00 -0.06 0.09 5017
0.32 0.37 0.64 -0.69 9.96 0.00 -0.06 0.08 5023
0.32 0.31 0.68 -0.68 10.00 0.00 -0.06 0.09 5029
0.33 0.32 0.68 -0.72 9.92 -0.00 -0.06 0.08 5036
0.33 0.31 0.66 -0.73 9.97 0.00 -0.06 0.09 5042
0.35 0.27 0.63 -0.68 10.00 0.00 -0.06 0.09 5049
0.35 0.27 0.65 -0.71 9.97 -0.00 -0.06 0.08 5055
0.33 0.28 0.68 -0.71 9.99 0.00 -0.06 0.08 5061
0.34 0.20 0.65 -0.69 9.93 0.00 -0.06 0.08 5067
0.35 0.20 0.66 -0.70 10.00 0.00 -0.05 0.08 5073
0.34 0.24 0.63 -0.70 9.98 0.01 -0.05 0.08 5080
0.36 0.21 0.66 -0.71 9.98 0.01 -0.05 0.09 5086
0.37 0.16 0.64 -0.74 10.00 0.01 -0.05 0.08 5093
0.36 0.20 0.63 -0.70 9.96 0.00 -0.04 0.09 5099
0.40 0.16 0.64 -0.68 9.93 0.00 -0.04 0.08 5105
0.40 0.19 0.65 -0.73 9.94 0.01 -0.04 0.08 5111
0.41 0.20 0.64 -0.72 9.96 0.00 -0.04 0.08 5117
0.42 0.21 0.64 -0.71 9.95 0.00 -0.03 0.08 5124
0.42 0.21 0.65 -0.70 10.01 0.01 -0.03 0.09 5130
0.42 0.16 1.22 -0.72 9.95 0.00 -0.03 0.08 5137
0.44 0.13 0.68 -0.72 9.92 0.01 -0.03 0.09 5143
0.45 0.11 0.62 -0.72 9.96 0.01 -0.03 0.08 5149
0.44 0.09 0.63 -0.70 9.96 0.01 -0.03 0.08 5155
0.42 0.06 0.60 -0.74 9.96 0.01 -0.02 0.08 5161
0.44 0.08 0.66 -0.75 9.95 0.01 -0.02 0.08 5168
0.44 0.08 0.68 -0.69 9.99 0.01 -0.02 0.09 5174
0.44 0.14 0.64 -0.75 9.98 0.01 -0.02 0.09 5181
0.43 0.05 0.65 -0.74 9.94 0.01 -0.02 0.08 5187
0.44 0.08 0.65 -0.71 9.96 0.00 -0.02 0.09 5193
0.45 0.07 0.64 -0.74 9.95 0.00 -0.02 0.09 5199
0.46 0.04 0.66 -0.71 9.98 0.00 -0.02 0.08 5206
0.47 0.04 0.68 -0.71 9.97 0.00 -0.02 0.08 5212
0.47 0.03 0.69 -0.72 9.93 0.00 -0.02 0.09 5218
0.46 0.04 0.65 -0.71 9.98 -0.00 -0.02 0.09 5224
0.46 0.05 0.67 -0.69 9.94 -0.00 -0.02 0.09 5231
0.47 0.06 0.67 -0.72 9.96 0.00 -0.02 0.09 5237
0.48 0.02 0.65 -0.72 9.94 0.01 -0.02 0.08 5243
0.49 -0.00 0.66 -0.74 9.99 0.00 -0.02 0.08 5250
0.48 0.02 0.64 -0.74 9.91 0.01 -0.02 0.09 5256
0.48 0.02 0.69 -0.77 9.93 0.00 -0.02 0.09 5262
0.48 0.02 0.64 -0.76 9.94 0.00 -0.02 0.09 5268
0.47 0.02 0.67 -0.74 9.98 0.00 -0.02 0.09 5274
0.49 0.04 0.67 -0.75 9.94 0.00 -0.03 0.09 5281
0.50 0.02 0.69 -0.72 9.92 0.00 -0.03 0.09 5287
0.48 0.01 0.68 -0.72 9.95 -0.00 -0.02 0.09 5294
0.46 0.03 0.69 -0.74 9.95 0.00 -0.03 0.09 5300
0.48 0.04 0.68 -0.73 9.97 -0.00 -0.03 0.09 5306
0.49 0.02 0.66 -0.72 9.94 -0.00 -0.03 0.09 5312
0.48 0.01 0.67 -0.75 9.94 -0.00 -0.03 0.09 5318
0.48 0.02 0.66 -0.73 9.97 -0.00 -0.03 0.09 5324
0.49 0.03 0.68 -0.78 10.01 -0.00 -0.04 0.09 5331
0.48 0.04 0.68 -0.75 10.00 -0.00 -0.03 0.08 5338
0.48 0.04 0.69 -0.77 9.94 -0.00 -0.04 0.09 5344
0.49 0.05 0.67 -0.73 9.97 -0.00 -0.03 0.09 5350
0.48 0.04 0.68 -0.71 9.97 0.00 -0.04 0.09 5356
0.47 0.04 0.68 -0.73 9.92 -0.00 -0.03 0.08 5362
0.48 0.04 0.66 -0.74 9.93 -0.00 -0.04 0.09 5369
0.48 0.04 0.69 -0.74 9.94 -0.00 -0.04 0.08 5376
0.49 0.03 0.69 -0.74 9.94 -0.01 -0.03 0.08 5382
0.48 0.02 0.67 -0.74 9.98 -0.00 -0.03 0.09 5388
0.48 0.02 0.65 -0.72 9.97 -0.01 -0.04 0.08 5394
0.49 0.02 0.68 -0.76 9.96 -0.01 -0.04 0.09 5400
0.48 0.02 0.68 -0.71 9.96 -0.01 -0.04 0.08 5406
0.48 0.02 0.68 -0.73 9.98 -0.01 -0.03 0.09 5412
0.50 0.02 0.68 -0.70 9.94 -0.01 -0.03 0.09 5420
0.49 0.01 0.67 -0.74 10.02 -0.00 -0.04 0.08 5426
0.49 0.03 0.67 -0.71 9.93 -0.00 -0.03 0.09 5432
0.50 0.02 0.68 -0.74 9.93 -0.00 -0.03 0.08 5438
0.49 0.01 0.65 -0.98 10.04 -0.00 -0.03 0.09 5444
0.49 0.01 0.67 -0.75 9.92 -0.01 -0.03 0.08 5450
0.50 0.02 0.65 -0.73 9.94 -0.01 -0.03 0.08 5457
0.50 -0.01 0.68 -0.76 9.97 0.00 -0.03 0.09 5464
0.50 -0.01 0.66 -0.74 9.95 0.00 -0.03 0.08 5470
0.50 0.00 0.66 -0.70 9.96 0.01 -0.03 0.08 5476
0.51 0.00 0.74 -0.76 9.97 0.01 -0.03 0.08 5482
0.50 0.01 0.71 -0.75 9.99 0.01 -0.03 0.08 5488
0.50 -0.00 0.72 -0.76 9.98 0.01 -0.03 0.08 5494
0.51 0.00 0.71 -0.73 9.93 0.02 -0.02 0.08 5500
0.53 -0.03 0.68 -0.75 9.96 0.02 -0.02 0.08 5508
0.51 -0.03 0.70 -0.74 9.96 0.02 -0.02 0.08 5514
0.51 -0.01 0.72 -0.78 9.96 0.02 -0.02 0.07 5520
0.52 -0.01 0.72 -0.77 9.94 0.02 -0.02 0.06 5526
0.53 -0.02 0.71 -0.79 9.94 0.02 -0.02 0.07 5532
0.54 -0.02 0.70 -0.77 9.84 0.02 -0.02 0.06 5538
0.54 -0.02 0.73 -0.82 9.92 0.02 -0.02 0.06 5544
0.55 -0.02 0.72 -0.79 9.93 0.01 -0.02 0.05 5552
0.53 -0.02 0.71 -0.78 9.92 0.00 -0.02 0.05 5558
0.51 -0.01 0.68 -0.81 9.91 -0.00 -0.02 0.05 5564
0.51 -0.00 0.66 -0.81 9.96 -0.01 -0.02 0.05 5570
0.52 -0.01 0.68 -0.76 9.94 -0.01 -0.01 0.06 5576
0.52 -0.01 0.66 -0.76 9.98 -0.01 -0.01 0.06 5582
0.52 0.00 0.69 -0.78 9.97 -0.01 -0.01 0.10 5588
0.51 -0.01 0.74 -0.76 10.01 -0.01 -0.00 0.07 5596
0.50 -0.02 0.75 -0.75 10.00 0.00 -0.00 0.07 5602
0.48 -0.01 0.77 -0.74 10.02 0.01 0.00 0.07 5608
0.48 -0.01 0.78 -0.72 9.97 0.00 0.00 0.07 5614
0.43 -0.02 0.75 -0.80 10.00 0.00 0.01 0.06 5620
0.37 -0.01 0.73 -0.79 10.01 -0.00 0.01 0.06 5626
0.38 -0.01 0.70 -0.76 9.95 -0.00 0.01 0.05 5634
0.34 -0.01 0.78 -0.81 9.94 -0.01 0.01 0.05 5640
0.28 -0.01 0.74 -0.82 9.92 -0.02 0.00 0.05 5646
0.29 0.00 0.94 -0.91 9.98 -0.02 -0.00 0.05 5652
0.28 -0.02 0.81 -0.85 9.97 -0.02 -0.01 0.05 5658
0.22 -0.02 0.69 -0.79 9.95 -0.03 -0.01 0.06 5664
0.18 -0.01 0.78 -0.76 9.90 -0.02 -0.02 0.06 5670
0.16 0.01 0.77 -0.75 9.99 -0.02 -0.02 0.06 5677
0.16 -0.00 0.73 -0.74 9.96 -0.02 -0.02 0.07 5684
0.17 -0.02 0.73 -0.76 9.95 -0.02 -0.03 0.07 5690
0.14 -0.01 0.74 -0.80 9.85 -0.02 -0.03 0.07 5696
0.15 -0.00 0.76 -0.83 9.93 -0.02 -0.03 0.07 5702
0.12 -0.00 0.75 -0.86 9.90 -0.03 -0.04 0.07 5708
0.09 0.00 0.75 -0.78 9.96 -0.02 -0.04 0.07 5714
0.10 0.01 0.74 -0.78 9.97 -0.02 -0.04 0.08 5721
0.12 0.01 0.76 -0.80 9.97 -0.02 -0.04 0.08 5727
0.09 -0.01 0.81 -0.75 9.98 -0.02 -0.04 0.08 5734
0.08 0.01 0.76 -0.80 9.97 -0.02 -0.04 0.08 5740
0.11 0.01 1.03 -0.64 9.85 -0.02 -0.04 0.08 5746
0.10 0.00 0.80 -0.79 9.94 -0.01 -0.05 0.08 5752
0.11 -0.00 0.77 -0.79 9.94 -0.01 -0.04 0.07 5758
0.12 0.01 0.80 -0.75 9.94 0.00 -0.04 0.08 5765
0.12 0.01 0.78 -0.78 9.96 0.00 -0.05 0.07 5771
0.11 0.00 0.82 -0.75 9.98 0.01 -0.05 0.07 5777
0.10 -0.00 0.81 -0.75 9.96 0.02 -0.06 0.07 5784
0.10 0.02 0.83 -0.80 9.98 0.02 -0.06 0.06 5790
0.11 -0.01 0.77 -0.76 9.84 0.02 -0.06 0.07 5796
0.10 -0.01 0.78 -0.80 9.98 0.03 -0.06 0.06 5803
0.10 -0.01 0.76 -0.83 9.90 0.03 -0.06 0.06 5809
0.11 0.00 0.71 -0.80 9.95 0.03 -0.05 0.06 5815
0.11 -0.01 0.51 -0.84 9.93 0.04 -0.04 0.03 5821
0.10 -0.01 0.80 -0.78 10.05 0.06 -0.04 0.06 5827
0.10 -0.01 0.80 -0.88 9.98 0.06 -0.03 0.05 5833
0.11 0.00 0.85 -0.83 10.01 0.08 -0.03 0.04 5840
0.11 -0.00 0.88 -0.84 10.03 0.10 -0.01 0.03 5847
0.11 -0.01 0.87 -0.86 10.10 0.14 0.01 0.03 5853
0.14 -0.01 0.77 -0.89 10.16 0.19 0.03 0.02 5859
0.13 -0.01 1.53 -0.81 10.41 0.27 0.10 0.01 5865
0.11 -0.01 0.75 -0.93 10.09 0.31 0.09 0.01 5871
0.10 -0.01 0.86 -0.95 10.14 0.34 0.09 0.01 5877
0.11 -0.01 0.86 -0.96 9.97 0.35 0.10 0.01 5884
0.11 -0.01 0.62 -1.06 9.99 0.34 0.10 0.01 5891
0.11 -0.01 0.88 -1.05 9.88 0.31 0.08 0.01 5897
0.12 -0.01 0.72 -1.08 9.74 0.27 0.06 0.01 5903
0.13 -0.01 0.80 -1.13 9.79 0.20 0.03 0.01 5909
0.12 -0.01 0.86 -1.11 9.66 0.14 0.00 0.02 5915
0.12 -0.01 0.80 -1.14 9.69 0.07 -0.02 0.02 5921
0.11 -0.01 0.89 -1.13 9.68 -0.00 -0.05 0.02 5927
0.12 -0.00 0.87 -1.14 9.75 -0.06 -0.07 0.02 5934
0.13 -0.01 0.87 -1.12 9.79 -0.11 -0.09 0.03 5940
0.12 -0.01 0.86 -1.11 9.81 -0.16 -0.11 0.03 5947
0.11 -0.01 0.83 -1.13 9.82 -0.21 -0.13 0.03 5953
0.11 -0.01 0.80 -1.10 9.87 -0.26 -0.14 0.00 5959
0.13 -0.01 0.74 -1.03 9.94 -0.29 -0.14 0.04 5965
0.11 -0.01 0.80 -1.04 9.84 -0.33 -0.15 0.05 5971
0.11 -0.01 0.82 -0.99 10.07 -0.36 -0.15 0.05 5978
0.12 -0.01 0.73 -0.96 10.15 -0.34 -0.15 0.06 5984
0.11 -0.01 0.79 -0.93 10.11 -0.30 -0.13 0.06 5991
0.11 -0.01 0.78 -0.86 10.23 -0.24 -0.07 0.06 5997
0.12 -0.01 0.80 -0.81 10.13 -0.16 -0.07 0.06 6003
0.10 -0.01 0.79 -0.85 10.06 -0.11 -0.06 0.06 6009
0.10 -0.01 0.78 -0.86 10.04 -0.07 -0.04 0.06 6016
0.11 -0.00 0.78 -0.86 10.02 -0.05 -0.04 0.06 6022
0.11 -0.01 0.81 -0.81 9.99 -0.03 -0.04 0.06 6028
0.11 -0.01 0.80 -0.83 10.00 -0.02 -0.04 0.06 6035
0.11 -0.01 0.77 -0.84 10.00 -0.01 -0.04 0.06 6041
0.11 -0.01 0.77 -0.87 10.03 -0.01 -0.03 0.05 6047
0.10 -0.01 0.76 -0.87 10.03 -0.00 -0.03 0.05 6053
0.08 -0.01 0.79 -0.87 10.02 0.00 -0.03 0.05 6060
0.10 -0.00 0.81 -0.85 9.98 0.01 -0.04 0.05 6066
0.11 -0.01 0.78 -0.86 10.01 0.01 -0.03 0.05 6072
0.11 -0.01 0.81 -0.89 9.99 0.02 -0.04 0.04 6078
0.10 -0.01 0.82 -0.90 9.94 0.02 -0.04 0.04 6085
0.11 -0.01 0.82 -0.84 10.01 0.03 -0.03 0.03 6091
0.12 -0.01 0.86 -0.89 10.10 0.04 -0.03 0.03 6097
0.12 -0.01 0.81 -0.86 10.06 0.06 -0.03 0.02 6104
0.12 -0.01 0.87 -0.86 10.11 0.08 -0.02 0.02 6110
0.13 -0.00 0.87 -0.86 10.12 0.11 0.00 0.01 6116
0.11 -0.01 0.85 -0.90 10.00 0.13 -0.01 0.00 6122
0.09 0.00 0.79 -0.90 10.04 0.17 0.03 0.00 6129
0.11 -0.01 1.04 -0.96 10.18 0.20 0.06 -0.01 6135
0.10 -0.01 0.85 -0.96 10.29 0.24 0.09 -0.02 6141
0.09 -0.00 0.97 -1.01 10.32 0.28 0.12 -0.03 6148
0.10 0.00 1.08 -0.97 10.44 0.32 0.15 -0.05 6154
0.09 -0.01 1.03 -1.03 10.70 0.37 0.15 -0.07 6160
0.09 -0.01 1.08 -1.09 10.58 0.41 0.15 -0.08 6167
0.09 0.00 1.17 -1.08 10.76 0.46 0.17 -0.11 6173
0.10 -0.01 1.21 -1.11 10.79 0.51 0.19 -0.14 6179
0.09 -0.01 1.39 -1.05 10.98 0.57 0.23 -0.17 6185
0.10 -0.01 1.49 -1.07 11.01 0.63 0.29 -0.22 6192
0.10 -0.01 1.60 -0.97 11.46 0.69 0.40 -0.27 6198
0.08 -0.01 1.70 -0.85 11.53 0.73 0.57 -0.34 6205
0.06 -0.01 1.66 -0.65 11.92 0.76 0.78 -0.41 6211
0.07 -0.01 1.57 -0.70 11.83 0.76 0.99 -0.48 6217
0.06 -0.01 1.17 -0.75 12.09 0.73 1.25 -0.53 6223
0.05 -0.00 0.84 -1.01 12.26 0.70 1.51 -0.55 6230
0.05 0.00 0.62 -1.29 12.33 0.66 1.74 -0.54 6236
0.06 -0.01 0.41 -2.21 12.26 0.58 1.94 -0.53 6243
0.06 -0.01 0.69 -2.76 13.38 0.46 2.12 -0.46 6249
0.06 0.00 0.36 -2.79 12.39 0.44 2.36 -0.39 6255
0.05 -0.01 0.19 -3.00 12.12 0.39 2.51 -0.32 6261
0.06 -0.01 -0.50 -3.58 11.04 0.37 2.57 -0.23 6267
0.05 -0.00 -0.99 -3.76 10.77 0.38 2.58 -0.11 6274
0.05 -0.00 -1.24 -4.25 10.42 0.45 2.49 -0.01 6281
0.05 -0.01 -2.62 -5.33 9.92 0.57 2.39 0.05 6287
0.06 -0.01 -4.45 -5.60 9.81 0.71 2.17 0.04 6293
0.07 -0.01 -6.63 -5.99 9.25 0.87 1.81 -0.09 6299
0.06 -0.01 -7.86 -6.00 9.63 1.00 1.28 -0.32 6305
0.05 -0.00 -8.33 -5.65 9.70 1.12 0.67 -0.55 6311
0.04 -0.00 -8.47 -5.33 9.98 1.14 0.06 -0.82 6318
0.06 -0.01 -7.45 -4.81 10.21 1.14 -0.40 -1.11 6324
0.05 -0.00 -7.16 -4.63 10.23 1.12 -0.84 -1.39 6331
0.04 -0.00 -6.08 -4.27 11.12 1.09 -1.23 -1.67 6337
0.06 -0.01 -4.81 -3.81 11.00 1.05 -1.56 -1.81 6343
0.05 -0.00 -3.33 -3.37 10.39 1.03 -1.80 -1.90 6349
0.04 -0.00 -1.62 -3.21 11.40 1.00 -1.96 -1.84 6355
0.05 -0.01 -1.48 -2.52 11.17 0.96 -2.07 -1.79 6362
0.04 -0.00 -0.87 -2.68 12.01 0.96 -2.20 -1.67 6369
0.03 -0.00 0.38 -2.67 11.18 0.98 -2.24 -1.53 6375
0.05 0.00 0.47 -2.29 11.46 1.00 -2.21 -1.39 6381
0.04 -0.00 0.96 -1.70 11.75 0.97 -2.21 -1.22 6387
0.04 -0.00 2.17 -1.41 12.48 0.93 -2.14 -0.97 6393
0.05 0.00 2.49 -1.01 12.20 0.84 -1.98 -0.75 6401
0.05 -0.01 3.04 -0.91 11.76 0.75 -1.81 -0.58 6407
0.03 -0.00 4.61 -1.21 11.37 0.69 -1.63 -0.51 6413
0.05 0.00 3.60 -1.08 10.31 0.70 -1.48 -0.44 6419
0.04 -0.00 3.24 -1.16 10.22 0.70 -1.32 -0.39 6425
0.05 -0.00 3.08 -1.16 9.52 0.70 -1.17 -0.35 6431
0.04 -0.00 3.05 -1.28 9.46 0.71 -1.05 -0.33 6437
0.06 -0.01 2.77 -1.42 9.47 0.73 -0.97 -0.27 6445
0.05 -0.00 2.97 -1.62 9.33 0.75 -0.93 -0.19 6451
0.04 -0.00 2.66 -1.67 9.58 0.76 -0.89 -0.12 6457
0.04 -0.00 2.46 -1.61 10.26 0.76 -0.90 -0.03 6463
0.05 -0.00 2.88 -1.57 10.59 0.75 -0.99 0.06 6469
0.04 -0.00 3.03 -1.54 9.79 0.72 -1.13 0.13 6475
0.03 -0.00 2.01 -1.51 11.70 0.68 -1.32 0.15 6481
0.04 -0.00 0.66 -1.44 11.93 0.65 -1.52 0.16 6488
0.04 -0.00 0.16 -1.22 11.19 0.60 -1.70 0.11 6495
0.05 -0.00 0.94 -1.20 10.38 0.55 -1.78 0.01 6501
0.04 -0.00 1.12 -1.19 9.84 0.51 -1.86 -0.13 6507
0.05 -0.01 0.96 -1.36 9.08 0.47 -1.86 -0.26 6513
0.04 -0.00 0.93 -1.33 9.71 0.44 -1.83 -0.42 6519
0.03 -0.00 0.90 -1.14 9.23 0.39 -1.76 -0.60 6525
0.04 -0.00 0.98 -1.17 9.28 0.36 -1.64 -0.77 6532
0.05 -0.00 1.00 -1.34 9.46 0.31 -1.47 -0.95 6538
0.04 -0.00 0.92 -1.48 9.66 0.27 -1.35 -1.11 6545
0.03 -0.00 0.91 -1.66 9.86 0.23 -1.21 -1.24 6551
0.04 0.00 0.86 -1.78 9.92 0.18 -1.07 -1.37 6557
0.05 -0.00 0.85 -1.86 9.93 0.13 -0.94 -1.49 6563
0.05 -0.00 0.90 -1.94 9.86 0.07 -0.84 -1.56 6569
0.04 -0.00 1.02 -1.99 9.80 0.03 -0.75 -1.62 6576
0.06 -0.00 1.04 -2.07 9.67 -0.02 -0.64 -1.65 6582
0.06 -0.01 1.20 -2.13 9.56 -0.07 -0.59 -1.66 6588
0.05 -0.01 1.20 -2.25 9.46 -0.10 -0.50 -1.65 6594
0.05 -0.00 1.07 -2.41 9.32 -0.12 -0.42 -1.63 6601
0.06 -0.01 0.84 -2.56 9.26 -0.12 -0.35 -1.61 6607
0.05 -0.00 0.64 -2.70 9.19 -0.11 -0.33 -1.57 6614
0.05 -0.01 0.52 -2.79 9.02 -0.10 -0.36 -1.52 6620
0.04 -0.00 0.46 -2.93 8.93 -0.08 -0.39 -1.46 6626
0.05 -0.01 0.40 -3.00 8.73 -0.07 -0.45 -1.37 6632
0.05 -0.00 0.43 -3.19 8.78 -0.07 -0.51 -1.34 6638
0.04 -0.00 0.52 -3.35 8.79 -0.06 -0.56 -1.26 6644
0.05 -0.00 0.66 -3.47 8.70 -0.06 -0.58 -1.17 6650
0.06 -0.01 0.77 -3.60 8.73 -0.07 -0.59 -1.06 6658
0.06 -0.01 0.83 -3.64 8.68 -0.09 -0.58 -0.95 6664
0.05 -0.01 0.85 -3.72 8.78 -0.11 -0.56 -0.83 6670
0.06 -0.01 0.95 -3.76 8.76 -0.13 -0.55 -0.72 6676
0.06 -0.01 1.10 -3.77 8.75 -0.15 -0.54 -0.60 6682
0.06 -0.01 1.27 -3.73 8.64 -0.19 -0.52 -0.47 6688
0.05 -0.01 1.38 -3.75 8.65 -0.22 -0.50 -0.35 6694
0.06 -0.01 1.46 -3.77 8.59 -0.25 -0.46 -0.23 6701
0.07 -0.01 1.61 -3.84 8.55 -0.28 -0.43 -0.11 6707
0.06 -0.01 1.69 -3.87 8.58 -0.30 -0.38 0.00 6714
0.05 -0.00 1.76 -3.85 8.61 -0.32 -0.31 0.09 6720
0.06 -0.00 1.79 -3.90 8.64 -0.34 -0.24 0.18 6726
0.06 -0.01 1.77 -3.99 8.49 -0.36 -0.16 0.26 6732
0.05 -0.01 1.77 -4.02 8.50 -0.38 -0.08 0.32 6738
0.05 -0.01 1.76 -4.15 8.40 -0.39 -0.01 0.36 6745
0.06 -0.00 1.76 -4.26 8.44 -0.41 0.04 0.38 6751
0.06 -0.01 1.77 -4.34 8.48 -0.43 0.11 0.40 6757
0.06 -0.01 1.78 -4.44 8.41 -0.43 0.20 0.40 6763
0.05 -0.01 2.88 -8.50 3.09 -0.41 0.26 0.35 6770
0.07 -0.00 2.12 -7.07 10.91 -0.42 0.51 0.20 6776
0.06 -0.01 -0.67 -6.53 8.88 -0.53 0.48 0.06 6782
0.05 -0.00 -1.09 -5.65 8.53 -0.55 0.58 -0.08 6789
0.06 -0.01 -0.76 -5.39 8.02 -0.63 0.68 -0.17 6795
0.07 -0.01 -1.00 -4.98 8.20 -0.72 0.75 -0.23 6801
0.05 -0.01 -0.59 -4.96 8.67 -0.80 0.79 -0.25 6807
0.05 -0.00 -0.38 -5.82 9.16 -0.85 0.81 -0.27 6813
0.06 -0.01 0.29 -5.26 10.23 -0.88 0.78 -0.27 6820
0.06 -0.01 0.90 -4.30 9.90 -0.92 0.76 -0.22 6827
0.05 -0.01 2.34 -3.13 9.54 -0.99 0.78 -0.11 6833
0.03 -0.00 1.88 -4.38 9.54 -1.07 0.81 0.06 6839
0.04 0.00 1.91 -4.65 10.36 -1.12 0.87 0.20 6845
0.05 -0.01 2.59 -4.08 10.87 -1.20 0.90 0.36 6851
0.05 -0.01 2.31 -3.76 10.09 -1.26 0.88 0.50 6857
0.06 -0.01 2.16 -3.87 9.67 -1.28 0.86 0.62 6864
0.06 -0.01 2.53 -3.94 9.55 -1.28 0.85 0.73 6871
0.05 -0.00 2.90 -3.97 9.47 -1.25 0.84 0.81 6877
0.04 -0.00 3.08 -4.03 9.34 -1.19 0.88 0.88 6883
0.05 0.00 3.16 -3.98 9.28 -1.08 0.94 0.93 6889
0.05 -0.00 3.25 -3.86 9.16 -0.94 1.01 0.95 6895
0.05 -0.00 3.29 -3.56 9.11 -0.78 1.09 0.98 6901
0.04 -0.00 3.33 -3.18 9.07 -0.63 1.17 1.00 6907
0.05 0.00 3.20 -2.74 9.13 -0.47 1.25 1.03 6914
0.06 -0.01 3.22 -2.31 9.51 -0.37 1.31 1.08 6921
0.06 -0.01 3.20 -2.00 10.05 -0.26 1.34 1.14 6927
0.06 -0.01 3.15 -1.68 10.72 -0.21 1.36 1.21 6933
0.08 -0.01 3.00 -1.32 11.18 -0.20 1.33 1.33 6939
0.05 -0.00 2.84 -0.94 11.40 -0.22 1.26 1.40 6945
0.04 -0.00 2.67 -0.63 11.63 -0.28 1.19 1.51 6951
0.05 -0.01 2.57 -0.42 11.79 -0.35 1.12 1.63 6959
0.04 -0.00 2.59 -0.31 11.78 -0.43 1.07 1.76 6965
0.04 -0.00 2.47 -0.38 11.50 -0.51 1.05 1.88 6971
0.04 0.00 2.31 -0.47 11.22 -0.60 1.06 1.97 6977
0.04 -0.00 2.12 -0.62 10.92 -0.61 1.12 2.03 6983
0.04 -0.00 1.94 -0.96 10.62 -0.62 1.24 2.07 6989
0.04 0.01 1.62 -1.32 10.49 -0.62 1.29 2.07 6996
0.04 -0.00 1.30 -1.73 10.31 -0.59 1.36 2.01 7003
0.04 -0.00 0.99 -2.11 10.32 -0.57 1.42 1.99 7009
0.04 -0.00 0.69 -2.57 10.38 -0.53 1.47 1.93 7015
0.05 -0.00 0.46 -2.79 10.47 -0.49 1.49 1.86 7021
0.04 -0.00 0.21 -2.94 10.55 -0.45 1.49 1.78 7027
0.04 0.00 0.06 -2.93 10.86 -0.42 1.45 1.68 7034
0.05 -0.01 0.23 -2.97 11.19 -0.41 1.38 1.58 7041
0.04 -0.00 -10.06 -7.60 21.98 -0.50 0.67 0.93 7047
0.04 -0.00 -5.65 -0.94 12.98 -0.73 -0.20 0.50 7053
0.06 -0.01 -0.88 -0.80 8.29 -0.80 -0.02 0.46 7059
0.04 -0.00 -1.45 -4.03 7.78 -0.98 0.08 0.26 7065
0.05 -0.00 0.06 -3.35 9.01 -1.09 0.17 -0.12 7071
0.05 -0.00 0.57 -5.51 10.05 -1.12 0.37 -0.41 7077
0.06 -0.01 -1.27 -5.90 11.02 -1.16 0.45 -0.73 7085
0.05 -0.00 -1.78 -6.42 10.89 -1.13 0.62 -1.00 7091
0.05 -0.00 -3.59 -7.13 10.02 -1.16 0.67 -1.26 7097
0.07 -0.01 -4.07 -6.96 9.51 -1.18 0.65 -1.46 7103
0.06 -0.01 -4.97 -7.94 10.37 -1.21 0.59 -1.51 7109
0.03 -0.00 -5.53 -6.63 9.06 -1.24 0.25 -1.55 7115
0.05 0.00 -3.91 -6.84 8.23 -1.16 -0.05 -1.53 7122
0.05 -0.00 -4.98 -7.96 8.71 -1.14 -0.37 -1.45 7129
0.04 -0.00 -6.07 -9.71 8.46 -0.90 -1.37 -1.32 7135
0.05 -0.00 -2.72 -9.46 7.53 -0.51 -1.72 -0.94 7141
0.07 -0.00 -3.66 -10.35 5.48 -0.45 -2.25 -0.71 7147
0.05 0.00 6.44 -24.34 19.84 0.91 -1.94 0.41 7153
0.05 -0.00 -19.72 -11.68 17.21 0.85 -2.47 0.92 7160
0.06 0.03 -10.90 -10.11 9.10 0.14 -0.99 0.41 7166
0.04 0.06 -8.09 -0.27 2.10 -0.27 -0.41 0.01 7173
0.04 0.09 -5.31 -2.95 4.76 -0.53 0.89 0.12 7179
0.05 0.12 -1.64 0.84 12.82 -0.59 1.65 0.08 7186
0.04 0.18 -0.98 0.01 6.93 -0.35 -0.10 0.07 7192
0.04 0.27 1.66 -0.18 11.71 -0.23 -0.12 0.11 7198
0.05 0.41 1.83 -1.14 10.41 -0.10 0.04 0.12 7204
0.03 0.64 1.76 -0.95 10.19 -0.08 0.11 0.17 7211
0.04 0.69 1.11 -0.64 9.86 -0.06 0.09 0.16 7217
0.03 0.73 0.83 -0.63 10.22 -0.03 0.05 0.12 7224
0.02 0.74 0.81 -0.48 9.94 -0.02 0.01 0.09 7230
0.03 0.86 0.76 -0.74 9.83 0.00 0.00 0.08 7236
0.04 0.81 0.74 -0.69 9.88 0.01 -0.00 0.08 7242
0.04 0.78 0.59 -0.69 10.01 0.00 -0.00 0.09 7248
0.02 0.81 0.60 -0.74 10.09 0.00 -0.00 0.09 7255
0.03 0.84 0.67 -0.84 9.97 -0.00 -0.00 0.10 7262
0.04 0.87 0.73 -0.84 10.01 -0.01 -0.01 0.09 7268
0.02 0.81 0.75 -0.87 9.98 -0.02 -0.01 0.09 7274
0.03 0.87 0.65 -0.83 9.92 -0.03 -0.02 0.09 7280
0.03 0.88 0.62 -0.82 9.96 -0.04 -0.02 0.08 7286
0.02 0.93 0.69 -0.73 9.88 -0.05 -0.02 0.08 7292
0.02 0.91 0.66 -0.68 9.87 -0.05 -0.02 0.08 7299
0.03 1.01 0.70 -0.65 9.95 -0.04 -0.02 0.08 7306
0.03 1.00 0.69 -0.63 9.98 -0.03 -0.02 0.08 7312
0.03 1.01 0.63 -0.66 10.00 -0.02 -0.02 0.09 7318
0.06 0.98 0.66 -0.70 9.97 -0.01 -0.03 0.09 7324
0.05 0.99 0.63 -0.70 9.98 -0.02 -0.04 0.09 7330
0.05 1.00 0.67 -0.72 10.02 -0.02 -0.04 0.09 7336
0.07 1.00 0.66 -0.72 9.93 -0.02 -0.05 0.10 7344
0.07 0.99 0.69 -0.75 9.94 -0.02 -0.05 0.10 7350
0.08 0.99 0.65 -0.69 9.99 -0.03 -0.05 0.10 7356
0.08 0.97 0.60 -0.71 10.04 -0.02 -0.06 0.10 7362
0.08 0.94 0.63 -0.66 9.96 -0.02 -0.06 0.10 7368
0.09 0.93 0.63 -0.69 9.96 -0.01 -0.06 0.10 7374
0.09 0.89 0.62 -0.66 9.94 -0.01 -0.05 0.10 7380
0.12 0.86 0.59 -0.69 9.93 -0.01 -0.05 0.11 7388
0.12 0.82 0.63 -0.69 9.93 -0.02 -0.04 0.11 7394
0.12 0.82 0.62 -0.68 9.94 -0.02 -0.03 0.10 7400
0.13 0.81 0.64 -0.66 9.96 -0.01 -0.03 0.10 7406
0.13 0.79 0.63 -0.70 9.99 -0.01 -0.03 0.10 7412
0.13 0.72 0.66 -0.70 9.94 -0.01 -0.03 0.10 7418
0.12 0.76 1.20 -0.71 9.99 -0.01 -0.03 0.10 7425
0.14 0.74 0.62 -0.73 10.04 -0.00 -0.03 0.10 7432
0.14 0.69 0.63 -0.69 9.99 0.00 -0.03 0.10 7438
0.14 0.66 0.66 -0.69 9.98 -0.00 -0.03 0.10 7444
0.14 0.63 0.66 -0.69 9.98 -0.00 -0.03 0.10 7450
0.14 0.61 0.69 -0.68 9.95 0.00 -0.04 0.10 7456
0.12 0.56 0.66 -0.70 9.96 0.03 -0.04 0.10 7462
0.14 0.57 0.66 -0.70 9.96 0.00 -0.05 0.09 7469
0.14 0.55 0.62 -0.72 9.99 0.00 -0.05 0.09 7476
0.17 0.48 0.67 -0.68 9.94 0.00 -0.05 0.10 7482
0.17 0.52 0.67 -0.68 9.98 0.00 -0.06 0.10 7488
0.20 0.49 0.65 -0.67 9.94 0.00 -0.05 0.10 7494
0.20 0.47 0.64 -0.73 9.92 0.00 -0.05 0.09 7500
0.20 0.50 0.64 -0.72 9.93 -0.00 -0.05 0.09 7506
0.23 0.46 0.63 -0.69 9.98 -0.00 -0.05 0.09 7513
0.28 0.43 0.63 -0.69 9.94 -0.01 -0.05 0.09 7520
0.27 0.42 0.64 -0.70 9.97 -0.01 -0.05 0.09 7526
0.29 0.43 0.61 -0.68 9.92 -0.01 -0.05 0.09 7532
0.31 0.42 0.63 -0.67 9.92 -0.00 -0.05 0.09 7538
0.30 0.42 0.63 -0.68 9.95 -0.01 -0.05 0.09 7544
0.31 0.40 0.67 -0.67 9.96 -0.01 -0.05 0.09 7550
0.32 0.35 0.64 -0.67 9.95 -0.01 -0.05 0.09 7557
0.33 0.33 0.65 -0.73 9.97 -0.01 -0.05 0.09 7564
0.34 0.34 0.63 -0.71 9.97 -0.01 -0.05 0.09 7570
0.34 0.36 0.60 -0.72 9.93 -0.02 -0.05 0.09 7576
0.34 0.38 1.21 -0.68 9.88 -0.01 -0.05 0.09 7582
0.32 0.39 0.63 -0.68 9.93 -0.01 -0.05 0.09 7588
0.33 0.40 0.64 -0.68 9.95 -0.02 -0.05 0.09 7595
0.34 0.43 0.63 -0.68 9.95 -0.01 -0.04 0.10 7602
0.34 0.44 0.68 -0.72 9.94 -0.02 -0.04 0.10 7608
0.32 0.46 0.64 -0.69 9.96 -0.01 -0.04 0.10 7614
0.34 0.48 0.63 -0.66 9.96 -0.01 -0.04 0.09 7620
0.36 0.46 0.61 -0.71 9.95 -0.01 -0.04 0.10 7626
0.34 0.49 0.62 -0.65 9.98 -0.01 -0.03 0.10 7632
0.34 0.50 1.22 -0.68 9.92 -0.02 -0.03 0.10 7639
0.36 0.50 0.64 -0.67 9.99 -0.01 -0.03 0.10 7646
0.35 0.51 0.63 -0.72 10.01 -0.01 -0.02 0.07 7652
0.36 0.54 0.63 -0.68 9.98 -0.01 -0.03 0.11 7658
0.37 0.56 0.62 -0.68 9.93 -0.01 -0.02 0.10 7664
0.36 0.54 0.64 -0.69 9.96 -0.01 -0.02 0.10 7670
0.36 0.54 0.64 -0.69 9.97 -0.01 -0.02 0.11 7676
0.37 0.55 0.62 -0.68 10.01 -0.00 -0.01 0.11 7684
0.35 0.53 0.65 -0.68 9.96 0.00 -0.01 0.11 7690
0.33 0.51 0.66 -0.72 9.98 0.00 -0.01 0.11 7696
0.33 0.52 0.64 -0.70 9.93 0.00 -0.01 0.11 7702
0.33 0.51 0.68 -0.69 9.99 -0.00 -0.01 0.10 7708
0.31 0.51 0.65 -0.64 9.97 -0.00 -0.01 0.11 7714
0.29 0.51 0.67 -0.68 9.96 -0.00 -0.01 0.11 7721
0.30 0.50 0.70 -0.67 9.97 -0.00 -0.01 0.11 7728
0.27 0.50 0.68 -0.68 9.95 -0.01 -0.01 0.11 7734
0.25 0.50 0.68 -0.70 9.94 -0.00 -0.02 0.11 7740
0.27 0.50 0.66 -0.65 9.93 -0.01 -0.02 0.10 7746
0.24 0.50 0.69 -0.66 9.96 -0.01 -0.03 0.10 7752
0.24 0.50 0.68 -0.66 9.97 -0.01 -0.04 0.11 7758
0.23 0.50 0.66 -0.68 9.97 -0.01 -0.03 0.11 7766
0.24 0.50 0.67 -0.67 9.95 -0.00 -0.03 0.10 7772
0.24 0.49 0.65 -0.69 9.95 -0.01 -0.04 0.10 7778
0.23 0.50 0.67 -0.69 9.96 -0.01 -0.03 0.10 7784
0.24 0.51 0.68 -0.68 9.92 -0.00 -0.04 0.10 7790
0.23 0.51 0.66 -0.66 9.97 -0.00 -0.03 0.10 7796
0.23 0.50 0.63 -0.70 9.95 -0.00 -0.03 0.10 7802
0.25 0.50 0.64 -0.68 9.96 0.00 -0.03 0.10 7810
0.24 0.48 0.63 -0.69 9.96 -0.00 -0.03 0.11 7816
0.24 0.45 0.64 -0.69 9.97 -0.00 -0.03 0.10 7822
0.24 0.44 0.70 -0.72 9.94 0.00 -0.02 0.10 7828
0.25 0.41 0.69 -0.68 9.93 0.00 -0.02 0.10 7834
0.24 0.38 0.67 -0.71 9.95 0.00 -0.02 0.10 7840
0.23 0.40 0.66 -0.69 9.94 -0.00 -0.03 0.10 7846
0.24 0.40 0.67 -0.70 9.94 0.00 -0.03 0.09 7854
0.24 0.37 0.66 -0.70 9.92 -0.00 -0.03 0.10 7860
0.24 0.33 0.67 -0.69 9.93 -0.01 -0.03 0.09 7866
0.25 0.34 0.67 -0.70 9.95 -0.00 -0.03 0.09 7872
0.26 0.31 0.68 -0.67 9.91 -0.01 -0.03 0.09 7878
0.25 0.34 0.69 -0.68 9.93 -0.01 -0.03 0.09 7884
0.24 0.35 0.66 -0.69 9.96 -0.01 -0.04 0.10 7890
0.25 0.37 0.69 -0.67 9.92 -0.01 -0.04 0.10 7898
0.25 0.38 0.69 -0.67 9.95 -0.01 -0.04 0.10 7904
0.24 0.37 0.68 -0.66 9.92 -0.01 -0.04 0.09 7910
0.25 0.36 0.66 -0.68 9.98 -0.01 -0.04 0.10 7916
0.26 0.34 0.66 -0.66 9.93 -0.00 -0.03 0.09 7922
0.26 0.29 0.67 -0.67 9.97 -0.00 -0.03 0.10 7928
0.24 0.29 0.66 -0.69 9.94 0.00 -0.02 0.10 7934
0.25 0.26 0.70 -0.66 9.96 0.01 -0.02 0.09 7942
0.23 0.23 0.66 -0.69 9.96 0.01 -0.02 0.09 7948
0.23 0.24 0.69 -0.68 9.93 0.00 -0.02 0.09 7954
0.23 0.23 0.66 -0.70 9.93 0.01 -0.02 0.10 7960
0.24 0.23 0.71 -0.71 9.96 0.01 -0.03 0.10 7966
0.24 0.20 0.70 -0.71 9.91 0.01 -0.02 0.10 7972
0.24 0.19 0.69 -0.71 9.93 0.01 -0.02 0.10 7979
0.26 0.17 0.70 -0.72 9.98 0.01 -0.02 0.09 7986
0.26 0.20 0.71 -0.70 9.95 0.01 -0.03 0.10 7992
0.24 0.18 0.70 -0.70 9.98 0.01 -0.03 0.09 7998
0.26 0.16 0.69 -0.72 9.98 0.01 -0.03 0.10 8004
0.28 0.15 0.73 -0.72 9.94 0.01 -0.03 0.10 8010
0.28 0.11 0.71 -0.70 9.91 0.00 -0.04 0.10 8016
0.30 0.13 0.70 -0.71 9.93 0.00 -0.04 0.09 8023
0.32 0.14 0.67 -0.71 9.95 0.00 -0.04 0.09 8030
0.32 0.10 0.69 -0.73 9.95 -0.00 -0.05 0.10 8036
0.32 0.09 0.70 -0.72 9.94 -0.01 -0.05 0.09 8042
0.34 0.12 0.69 -0.69 9.94 0.00 -0.04 0.09 8048
0.33 0.07 0.68 -0.71 9.95 0.00 -0.03 0.09 8054
0.32 0.07 0.69 -0.71 9.94 -0.00 -0.04 0.09 8060
0.31 0.09 0.70 -0.71 10.01 0.00 -0.03 0.09 8067
0.31 0.07 0.67 -0.69 9.97 0.01 -0.02 0.09 8073
0.33 0.04 0.71 -0.72 9.93 0.02 -0.02 0.09 8080
0.35 0.05 0.73 -0.72 9.95 0.02 -0.02 0.10 8086
0.35 0.05 0.70 -0.71 9.98 0.02 -0.01 0.09 8092
0.37 0.04 0.70 -0.74 9.92 0.02 -0.01 0.09 8098
0.38 0.02 0.75 -0.71 9.95 0.02 -0.01 0.09 8104
0.37 0.04 0.72 -0.72 9.91 0.02 -0.01 0.08 8111
0.39 0.01 0.70 -0.73 9.96 0.02 -0.00 0.09 8117
0.37 0.02 0.74 -0.73 9.93 0.02 -0.00 0.09 8124
0.37 0.03 0.73 -0.75 9.89 0.01 0.00 0.08 8130
0.36 0.04 0.73 -0.77 9.95 0.01 0.01 0.09 8136
0.39 0.02 0.75 -0.74 9.92 0.01 0.01 0.08 8142
0.36 0.04 0.76 -0.71 9.97 0.00 0.01 0.08 8148
0.35 0.04 0.71 -0.78 9.91 0.00 0.02 0.09 8155
0.34 0.03 0.76 -0.77 9.94 -0.00 0.02 0.09 8161
0.35 0.02 0.74 -0.76 9.98 -0.00 0.02 0.08 8167
0.33 0.02 0.76 -0.76 9.94 -0.00 0.02 0.09 8174
0.28 0.04 0.80 -0.76 9.98 0.00 0.02 0.08 8180
0.24 0.03 0.76 -0.74 9.98 0.00 0.02 0.08 8186
0.23 0.04 0.79 -0.76 9.96 0.00 0.02 0.09 8193
0.24 0.03 0.76 -0.75 9.91 0.00 0.02 0.08 8199
0.26 0.04 0.80 -0.76 9.85 0.01 0.02 0.08 8205
0.26 0.03 0.80 -0.78 9.89 0.00 0.02 0.08 8211
0.27 0.01 0.77 -0.78 9.93 0.00 0.02 0.08 8217
0.28 0.02 0.79 -0.78 9.93 -0.00 0.01 0.07 8224
0.28 0.02 0.82 -0.79 9.89 -0.01 0.01 0.08 8230
0.26 0.01 0.83 -0.76 9.89 -0.01 0.01 0.08 8237
0.27 -0.00 0.78 -0.76 9.94 -0.01 0.01 0.07 8243
0.24 0.01 0.80 -0.74 9.96 -0.02 0.01 0.07 8249
0.25 0.00 0.83 -0.75 9.95 -0.01 0.00 0.07 8255
0.23 0.00 0.82 -0.79 9.93 -0.01 0.00 0.07 8261
0.21 -0.00 0.80 -0.75 9.93 -0.01 0.00 0.07 8267
0.20 -0.00 0.82 -0.77 9.96 -0.01 0.01 0.07 8274
0.20 0.01 0.82 -0.75 9.96 -0.01 0.01 0.08 8281
0.17 0.00 0.82 -0.72 10.01 -0.01 0.01 0.07 8287
0.17 0.00 0.85 -0.73 9.94 -0.01 0.01 0.08 8293
0.17 0.02 0.79 -0.80 9.92 0.00 0.01 0.08 8299
0.18 0.01 0.93 -0.76 10.04 0.01 0.02 0.07 8305
0.17 -0.00 0.87 -0.78 9.98 0.01 0.02 0.08 8311
0.16 -0.00 0.88 -0.74 9.98 0.02 0.02 0.07 8317
0.15 -0.00 0.93 -0.72 9.96 0.02 0.02 0.06 8325
0.14 -0.01 0.95 -0.74 9.93 0.02 0.02 0.06 8331
0.14 -0.01 0.79 -0.77 9.94 0.03 0.03 0.05 8337
0.13 -0.01 0.86 -0.80 9.94 0.03 0.02 0.04 8343
0.15 -0.00 0.78 -0.79 9.88 0.02 0.03 0.05 8349
0.16 -0.02 0.84 -0.78 9.87 0.01 0.03 0.05 8355
0.17 -0.02 0.89 -0.80 9.88 0.01 0.03 0.05 8361
0.15 -0.01 0.81 -0.81 9.92 0.00 0.02 0.07 8368
0.13 -0.01 0.93 -0.82 9.97 -0.00 0.02 0.07 8374
0.13 -0.01 0.92 -0.81 9.93 -0.00 0.01 0.06 8380
0.16 -0.02 0.88 -0.78 9.92 -0.01 0.01 0.07 8386
0.10 -0.01 0.90 -0.81 9.93 -0.01 0.01 0.06 8393
0.10 -0.00 0.92 -0.78 9.98 -0.00 0.00 0.06 8399
0.11 -0.01 0.93 -0.79 10.00 -0.00 0.01 0.06 8406
0.10 -0.01 0.96 -0.79 9.95 -0.00 -0.03 0.06 8412
0.08 -0.01 0.92 -0.82 9.96 0.00 0.00 0.05 8418
0.10 -0.01 0.92 -0.79 9.97 0.00 0.00 0.06 8424
0.11 -0.01 0.90 -0.78 9.97 0.01 0.01 0.06 8430
0.11 -0.01 0.90 -0.85 9.92 0.01 0.00 0.06 8436
0.10 -0.01 0.91 -0.82 9.93 0.01 -0.03 0.06 8442
0.09 -0.01 0.96 -0.82 9.96 0.01 0.00 0.06 8449
0.10 -0.01 0.93 -0.82 9.91 0.01 -0.00 0.06 8455
0.12 -0.01 0.96 -0.84 9.89 0.00 -0.00 0.06 8461
0.12 -0.01 0.98 -0.83 9.90 -0.00 -0.02 0.05 8467
0.10 -0.01 1.00 -0.82 9.92 -0.00 -0.02 0.05 8474
0.09 -0.00 0.96 -0.82 9.93 -0.01 -0.02 0.04 8480
0.11 -0.01 0.95 -0.80 9.95 -0.01 -0.03 0.05 8486
0.09 -0.00 0.95 -0.79 9.92 -0.01 -0.03 0.04 8493
0.09 -0.01 0.89 -1.29 10.09 -0.00 -0.01 0.04 8499
0.10 0.00 0.94 -0.82 10.01 -0.02 -0.02 0.05 8505
0.11 -0.01 0.91 -0.83 10.00 -0.01 -0.01 0.05 8511
0.11 -0.01 0.94 -0.84 10.01 -0.01 -0.02 0.05 8518
0.10 0.01 0.95 -0.81 9.97 -0.01 -0.01 0.05 8524
0.12 0.00 0.96 -0.84 10.03 0.00 -0.01 0.05 8530
0.11 0.00 0.97 -0.81 9.91 0.00 -0.01 0.05 8537
0.09 -0.01 1.04 -0.80 9.95 0.01 -0.01 0.05 8543
0.10 -0.00 1.07 -0.87 10.04 0.02 -0.00 0.04 8549
0.11 -0.01 1.06 -0.77 9.94 0.02 0.01 0.03 8555
0.11 -0.01 1.02 -0.79 9.93 0.03 0.01 0.03 8561
0.10 -0.01 0.96 -0.83 9.95 0.03 0.02 0.02 8567
0.11 -0.01 0.87 -0.87 9.91 0.03 0.02 0.02 8573
0.12 -0.01 0.90 -0.91 9.88 0.02 0.02 0.03 8581
0.10 -0.01 0.91 -0.91 9.88 0.02 0.02 0.04 8587
0.09 -0.01 0.93 -0.86 9.93 0.01 0.00 0.05 8593
0.08 -0.01 0.94 -0.89 9.88 0.00 -0.00 0.06 8599
0.08 0.00 1.01 -0.89 9.92 -0.01 -0.01 0.06 8605
0.10 -0.01 0.99 -0.86 9.86 -0.02 -0.02 0.06 8611
0.08 -0.01 1.06 -0.83 9.87 -0.04 -0.02 0.06 8617
0.09 -0.01 1.03 -0.85 9.88 -0.04 -0.03 0.04 8624
0.09 -0.01 1.04 -0.84 9.94 -0.04 -0.03 0.05 8630
0.09 -0.00 1.01 -0.82 9.96 -0.03 -0.02 0.04 8636
0.07 -0.01 1.00 -0.82 9.98 -0.02 -0.01 0.04 8642
0.08 -0.01 0.95 -0.84 10.00 -0.01 -0.00 0.04 8648
0.08 -0.01 0.97 -0.85 9.98 0.00 0.00 0.05 8655
0.09 -0.00 1.12 -1.04 9.89 0.00 0.01 0.06 8662
0.08 -0.01 1.01 -0.83 9.94 0.01 0.02 0.06 8668
0.09 -0.01 0.99 -0.87 9.94 0.01 0.02 0.07 8674
0.08 -0.01 0.90 -0.96 9.92 0.01 0.03 0.07 8680
0.08 -0.00 1.02 -0.91 9.99 0.01 0.03 0.08 8686
0.09 -0.01 1.02 -0.84 10.01 0.01 0.03 0.08 8692
0.08 -0.01 1.04 -0.86 9.96 0.02 0.04 0.08 8698
0.07 -0.01 1.05 -0.84 10.10 0.03 0.05 0.08 8705
0.08 0.00 1.07 -0.88 10.06 0.04 0.06 0.08 8711
0.07 -0.01 1.09 -0.80 10.01 0.06 0.08 0.07 8718
0.07 -0.01 1.11 -0.82 10.05 0.08 0.10 0.06 8724
0.08 -0.01 1.09 -0.86 10.01 0.10 0.12 0.06 8730
0.08 -0.01 1.15 -0.90 9.88 0.11 0.13 0.05 8736
0.07 -0.01 1.16 -0.87 9.83 0.11 0.13 0.05 8742
0.06 -0.01 1.13 -0.89 9.78 0.09 0.10 0.04 8749
0.08 -0.01 1.16 -0.99 9.70 0.06 0.07 0.04 8755
0.08 -0.00 1.17 -1.01 9.52 -0.01 0.01 0.05 8761
0.08 -0.01 1.17 -0.97 9.70 -0.07 -0.07 0.05 8767
0.08 -0.01 1.22 -0.91 9.82 -0.11 -0.12 0.04 8773
0.08 -0.01 1.11 -0.92 9.97 -0.12 -0.12 0.04 8780
0.08 -0.01 1.13 -0.85 10.04 -0.11 -0.10 0.04 8786
0.08 -0.01 1.07 -0.85 10.15 -0.07 -0.06 0.04 8793
0.08 -0.01 1.05 -0.84 10.20 -0.02 -0.02 0.05 8799
0.08 -0.01 1.07 -0.85 10.23 0.03 0.05 0.06 8805
0.09 -0.01 1.10 -0.82 10.25 0.09 0.10 0.06 8811
0.09 -0.01 1.13 -0.90 10.32 0.15 0.18 0.06 8817
0.07 -0.01 1.16 -0.91 10.32 0.21 0.26 0.06 8824
0.09 0.00 1.22 -0.92 10.39 0.28 0.37 0.06 8830
0.09 -0.01 1.31 -1.10 10.11 0.32 0.44 0.06 8837
0.07 -0.01 1.18 -1.03 10.23 0.37 0.51 0.06 8843
0.07 0.00 1.27 -1.10 10.31 0.42 0.55 0.06 8849
0.08 -0.00 1.31 -1.06 9.88 0.46 0.59 0.06 8855
0.08 -0.01 1.42 -1.17 9.82 0.45 0.56 0.06 8861
0.08 -0.00 1.37 -1.19 9.72 0.42 0.51 0.06 8868
0.07 -0.01 1.54 -1.20 9.71 0.39 0.44 0.06 8875
0.07 -0.00 1.61 -1.19 9.67 0.35 0.38 0.06 8881
0.07 -0.00 1.31 -1.42 10.12 0.32 0.36 0.06 8887
0.07 0.01 1.81 -1.13 9.87 0.31 0.33 0.04 8893
0.08 -0.01 1.65 -1.29 9.81 0.30 0.32 0.02 8899
0.07 -0.01 1.72 -1.27 9.88 0.29 0.27 0.02 8905
0.06 -0.01 1.74 -1.31 9.91 0.29 0.25 0.00 8911
0.08 -0.00 1.75 -1.32 9.84 0.29 0.24 -0.01 8919
0.08 -0.01 1.71 -1.39 9.89 0.29 0.22 -0.01 8925
0.09 -0.01 1.74 -1.43 9.95 0.30 0.20 -0.01 8931
0.07 -0.01 1.71 -1.44 9.88 0.30 0.20 -0.01 8937
0.07 -0.00 1.71 -1.54 9.80 0.30 0.19 -0.01 8943
0.08 -0.01 1.70 -1.54 9.82 0.29 0.18 -0.00 8949
0.09 -0.01 1.72 -1.55 9.69 0.27 0.17 0.01 8955
0.08 -0.01 1.77 -1.59 9.72 0.24 0.15 0.01 8962
0.10 0.00 1.84 -1.58 9.63 0.22 0.14 0.02 8968
0.08 -0.00 1.90 -1.57 9.67 0.20 0.14 0.02 8975
0.08 -0.01 1.90 -1.56 9.59 0.19 0.13 0.01 8981
0.08 -0.01 1.88 -1.59 9.59 0.17 0.12 0.01 8987
0.07 -0.00 1.87 -1.62 9.56 0.15 0.10 0.01 8993
0.08 -0.01 1.92 -1.60 9.64 0.13 0.07 0.00 8999
0.06 -0.01 2.03 -1.62 9.67 0.11 0.05 -0.01 9006
0.06 -0.01 1.97 -1.63 9.69 0.10 0.04 -0.01 9012
0.07 0.00 1.97 -1.61 9.74 0.09 0.02 -0.02 9018
0.07 -0.01 1.94 -1.66 9.74 0.08 0.01 -0.02 9024
0.07 -0.01 2.00 -1.66 9.70 0.08 0.01 -0.03 9030
0.06 -0.01 2.00 -1.66 9.73 0.08 -0.01 -0.04 9036
0.07 0.00 2.04 -1.65 9.73 0.08 -0.02 -0.05 9043
0.07 -0.01 2.01 -1.67 9.72 0.07 -0.03 -0.05 9050
0.06 -0.01 1.97 -1.70 9.79 0.06 -0.07 -0.06 9056
0.05 -0.01 1.90 -1.71 9.81 0.05 -0.03 -0.06 9062
0.06 0.00 1.91 -1.73 10.42 0.05 -0.02 -0.06 9068
0.06 -0.01 1.89 -1.71 9.92 0.06 -0.00 -0.05 9074
0.05 -0.01 1.88 -1.78 10.00 0.07 0.02 -0.05 9080
0.05 -0.00 1.88 -1.78 10.04 0.08 0.04 -0.04 9086
0.06 -0.00 1.92 -1.77 10.09 0.10 0.06 -0.04 9094
0.06 -0.01 1.92 -1.77 10.11 0.13 0.08 -0.03 9100
0.04 -0.00 1.97 -1.84 10.18 0.15 0.11 -0.03 9106
0.06 0.00 1.90 -1.80 10.20 0.18 0.14 -0.03 9112
0.07 -0.01 1.96 -1.85 10.19 0.21 0.16 -0.02 9118
0.06 -0.01 1.99 -1.88 10.21 0.24 0.18 -0.02 9124
0.07 -0.01 2.00 -1.88 10.17 0.27 0.21 -0.02 9132
0.08 -0.00 2.04 -1.92 10.21 0.30 0.22 -0.02 9138
0.07 -0.01 2.09 -1.94 10.19 0.33 0.24 -0.01 9144
0.07 -0.01 2.14 -1.98 10.27 0.36 0.27 -0.01 9150
0.07 -0.00 2.12 -2.00 10.20 0.38 0.29 -0.01 9156
0.08 -0.01 2.08 -2.05 10.18 0.41 0.31 -0.01 9162
0.05 -0.01 2.06 -2.11 10.09 0.43 0.32 -0.01 9168
0.06 0.00 2.09 -2.14 10.19 0.46 0.33 -0.00 9176
0.06 -0.01 2.07 -2.15 10.10 0.47 0.36 0.01 9182
0.05 -0.01 2.14 -2.17 10.13 0.49 0.37 0.02 9188
0.06 0.01 2.27 -2.27 10.11 0.50 0.38 0.03 9194
0.08 -0.01 2.19 -2.25 10.00 0.52 0.38 0.03 9200
0.06 -0.01 2.26 -2.27 9.94 0.53 0.40 0.04 9206
0.05 0.00 2.25 -2.34 9.90 0.54 0.40 0.05 9213
0.05 -0.00 2.25 -2.39 10.02 0.55 0.41 0.05 9220
0.05 -0.01 2.10 -2.52 10.00 0.56 0.43 0.08 9226
0.04 -0.00 2.06 -2.70 10.08 0.58 0.45 0.10 9232
0.06 0.01 1.97 -2.75 10.14 0.60 0.47 0.14 9238
0.05 -0.00 1.84 -2.95 10.18 0.60 0.48 0.18 9244
0.04 -0.00 1.87 -3.04 10.23 0.62 0.49 0.23 9250
0.04 0.01 1.76 -3.16 10.27 0.65 0.50 0.28 9257
0.05 0.00 1.88 -2.97 10.35 0.70 0.51 0.33 9264
0.04 -0.00 2.06 -2.95 10.42 0.68 0.54 0.38 9270
0.05 0.01 2.23 -2.93 10.62 0.68 0.60 0.42 9276
0.05 -0.00 2.20 -3.08 10.75 0.68 0.68 0.45 9282
0.05 -0.00 2.12 -3.11 10.77 0.69 0.77 0.49 9289
0.05 -0.01 2.01 -3.27 10.81 0.69 0.85 0.52 9295
0.07 -0.01 2.00 -3.18 10.59 0.69 0.93 0.57 9302
0.06 -0.01 2.12 -3.46 10.40 0.70 0.99 0.62 9308
0.06 -0.01 1.85 -3.50 10.19 0.72 1.03 0.66 9314
0.07 -0.01 1.84 -3.49 9.96 0.75 1.05 0.70 9320
0.07 -0.01 1.96 -3.57 9.70 0.76 1.04 0.73 9326
0.06 -0.01 2.08 -3.80 9.54 0.76 1.05 0.75 9332
0.07 -0.01 2.20 -3.89 9.44 0.77 1.06 0.75 9339
0.07 -0.01 2.16 -4.12 9.44 0.79 1.06 0.73 9346
0.08 -0.01 1.98 -4.46 9.49 0.82 1.04 0.69 9352
0.06 -0.01 1.80 -4.77 9.47 0.84 1.02 0.61 9358
0.05 -0.01 1.57 -4.64 9.42 0.87 0.99 0.52 9364
0.06 -0.01 0.87 -4.91 9.39 0.89 0.88 0.42 9370
0.07 -0.01 0.32 -5.15 9.62 0.90 0.78 0.27 9376
0.06 -0.01 -0.08 -5.36 9.89 0.90 0.60 0.13 9382
0.05 -0.01 -1.41 -5.70 10.48 0.87 0.41 -0.09 9389
0.07 -0.01 -1.76 -5.62 10.32 0.86 0.21 -0.38 9396
0.06 -0.01 -2.51 -5.41 9.74 0.80 0.01 -0.66 9402
0.06 -0.01 -2.14 -5.59 9.57 0.74 -0.22 -0.90 9408
0.07 -0.01 -3.88 -5.65 10.70 0.64 -0.50 -1.20 9414
0.08 -0.01 -3.48 -5.19 10.30 0.60 -0.68 -1.51 9420
0.07 -0.01 -3.69 -5.48 9.99 0.55 -0.95 -1.74 9426
0.06 -0.01 -3.82 -5.05 9.94 0.47 -1.18 -1.98 9433
0.06 -0.01 -3.48 -4.67 10.90 0.44 -1.44 -2.17 9440
0.05 -0.01 -3.22 -4.49 10.31 0.39 -1.64 -2.32 9446
0.05 -0.00 -2.35 -4.06 10.26 0.35 -1.79 -2.41 9452
0.05 0.00 -1.94 -3.63 9.90 0.32 -1.96 -2.47 9458
0.05 -0.01 -1.89 -3.43 9.79 0.30 -2.10 -2.44 9464
0.04 -0.00 -2.26 -2.62 9.82 0.27 -2.22 -2.38 9470
0.05 -0.00 -1.77 -2.39 11.29 0.24 -2.36 -2.25 9477
0.06 -0.01 -1.04 -2.26 10.37 0.25 -2.47 -2.09 9484
0.04 -0.00 -1.15 -1.88 10.98 0.25 -2.62 -1.93 9490
0.06 -0.01 0.21 -1.70 11.87 0.26 -2.72 -1.70 9496
0.06 -0.01 0.95 -1.36 10.98 0.27 -2.81 -1.45 9502
0.05 -0.01 2.71 -1.20 10.97 0.27 -2.84 -1.18 9508
0.05 -0.01 3.23 -1.11 10.18 0.26 -2.82 -0.92 9516
0.07 -0.01 3.33 -1.09 10.38 0.24 -2.75 -0.66 9522
0.06 -0.01 3.70 -0.93 9.88 0.22 -2.63 -0.40 9528
0.05 -0.01 4.74 -0.88 10.24 0.20 -2.47 -0.19 9534
0.07 -0.01 4.02 -0.94 9.93 0.17 -2.32 0.02 9540
0.06 -0.01 3.50 -0.92 9.98 0.13 -2.12 0.16 9546
0.06 -0.01 3.15 -0.91 10.09 0.09 -1.94 0.30 9552
0.05 -0.01 3.43 -1.03 9.23 0.05 -1.76 0.40 9559
0.07 -0.01 3.04 -1.14 9.44 0.02 -1.62 0.46 9565
0.07 -0.01 2.02 -1.22 9.63 -0.02 -1.53 0.49 9572
0.06 -0.01 0.87 -1.50 10.06 -0.06 -1.47 0.48 9578
0.06 -0.01 1.26 -1.60 10.29 -0.11 -1.50 0.46 9584
0.07 -0.01 1.01 -1.83 9.65 -0.16 -1.51 0.41 9590
0.06 -0.01 3.02 -2.42 9.37 -0.21 -1.50 0.38 9596
0.04 -0.00 2.35 -2.49 10.44 -0.26 -1.49 0.30 9603
0.07 -0.00 1.12 -2.99 10.53 -0.30 -1.48 0.23 9610
0.07 -0.01 1.77 -3.02 10.15 -0.34 -1.41 0.15 9616
0.06 -0.01 3.06 -3.13 10.12 -0.37 -1.33 0.09 9622
0.07 -0.01 2.28 -2.90 9.38 -0.39 -1.24 -0.00 9628
0.07 -0.01 0.83 -3.08 10.03 -0.42 -1.18 -0.13 9634
0.07 -0.01 0.27 -3.09 10.30 -0.46 -1.15 -0.26 9640
0.06 -0.01 -0.62 -3.03 10.21 -0.49 -1.14 -0.42 9647
0.07 -0.01 -0.58 -2.94 10.31 -0.50 -1.16 -0.52 9654
0.06 -0.01 -0.95 -2.82 10.57 -0.53 -1.18 -0.67 9660
0.06 -0.01 -0.93 -2.78 10.61 -0.55 -1.24 -0.81 9666
0.07 -0.01 -1.71 -2.95 11.13 -0.57 -1.30 -0.97 9672
0.06 -0.01 -2.15 -2.62 11.47 -0.56 -1.38 -1.14 9678
0.07 -0.01 -1.21 -2.73 10.26 -0.58 -1.45 -1.29 9686
0.07 -0.01 -0.44 -2.52 10.31 -0.62 -1.38 -1.38 9692
0.07 -0.01 0.01 -2.13 10.24 -0.69 -1.26 -1.49 9698
0.06 -0.01 0.56 -2.15 10.19 -0.76 -1.12 -1.57 9704
0.08 -0.01 0.75 -2.24 9.97 -0.81 -1.02 -1.61 9710
0.06 -0.01 0.81 -2.16 9.89 -0.84 -0.90 -1.63 9716
0.06 -0.01 0.95 -2.14 9.92 -0.84 -0.81 -1.62 9722
0.06 0.01 1.01 -2.08 9.77 -0.83 -0.74 -1.59 9730
0.06 -0.01 1.03 -2.06 9.62 -0.81 -0.69 -1.53 9736
0.06 -0.01 1.11 -1.99 9.55 -0.79 -0.67 -1.45 9742
0.06 -0.01 1.08 -2.03 9.47 -0.75 -0.64 -1.35 9748
0.07 -0.00 1.14 -2.05 9.34 -0.71 -0.57 -1.24 9754
0.06 -0.01 1.35 -2.11 9.28 -0.65 -0.56 -1.13 9760
0.04 -0.00 1.18 -2.09 9.36 -0.60 -0.51 -1.04 9766
0.06 0.00 1.03 -2.08 9.39 -0.55 -0.47 -0.93 9774
0.06 -0.01 0.86 -2.20 9.39 -0.51 -0.42 -0.82 9780
0.06 -0.01 0.81 -2.23 9.46 -0.47 -0.39 -0.72 9786
0.05 -0.01 0.80 -2.25 9.55 -0.45 -0.38 -0.64 9792
0.06 0.00 0.72 -2.31 9.72 -0.42 -0.38 -0.58 9798
0.06 -0.01 0.68 -2.28 9.88 -0.41 -0.38 -0.53 9804
0.07 -0.01 0.60 -2.28 9.99 -0.41 -0.38 -0.50 9810
0.06 -0.00 0.61 -2.27 10.21 -0.41 -0.38 -0.48 9817
0.08 -0.00 0.58 -2.31 10.25 -0.43 -0.36 -0.48 9824
0.06 -0.01 0.70 -2.32 10.33 -0.46 -0.32 -0.50 9830
0.06 -0.00 0.90 -2.35 10.38 -0.49 -0.23 -0.51 9836
0.07 -0.00 1.08 -2.37 10.39 -0.53 -0.11 -0.54 9842
0.06 -0.01 1.06 -2.32 10.38 -0.58 0.06 -0.56 9848
0.06 -0.00 1.03 -2.32 10.44 -0.66 0.25 -0.58 9856
0.07 -0.00 1.00 -2.35 10.30 -0.69 0.44 -0.58 9862
0.07 -0.01 0.81 -2.48 10.28 -0.74 0.59 -0.56 9868
0.06 -0.00 0.75 -2.61 10.27 -0.78 0.72 -0.52 9874
0.07 -0.00 0.62 -2.69 10.11 -0.79 0.77 -0.47 9880
0.06 -0.01 0.76 -2.73 9.83 -0.79 0.81 -0.41 9887
0.06 -0.01 0.80 -2.75 9.66 -0.76 0.83 -0.35 9893
0.07 -0.00 0.86 -2.90 9.48 -0.71 0.83 -0.28 9900
0.05 -0.01 1.02 -2.94 9.28 -0.64 0.83 -0.21 9906
0.04 -0.00 1.11 -2.88 9.16 -0.57 0.84 -0.14 9912
0.06 0.00 1.41 -2.77 9.23 -0.47 0.88 -0.06 9918
0.07 -0.01 1.62 -2.76 9.41 -0.44 0.95 0.01 9924
0.07 -0.01 1.80 -2.68 9.67 -0.38 1.05 0.08 9930
0.06 -0.01 2.09 -2.56 9.83 -0.33 1.18 0.15 9936
0.07 0.01 2.23 -2.48 10.02 -0.30 1.34 0.23 9944
0.07 -0.00 2.25 -2.50 10.37 -0.28 1.49 0.32 9950
0.06 -0.00 0.08 -7.23 13.58 -0.30 1.68 0.39 9956
0.08 0.00 0.03 -3.95 12.98 -0.37 2.09 0.31 9962
0.07 -0.00 -0.54 -1.95 13.05 -0.54 1.78 0.26 9968
0.06 -0.01 -1.05 -1.55 11.27 -0.64 1.52 0.31 9975
0.07 -0.00 0.20 -1.67 10.79 -0.77 1.42 0.41 9981
0.07 -0.00 0.09 -2.56 10.80 -0.80 1.27 0.56 9988
0.04 -0.00 1.49 -2.98 11.67 -0.79 1.22 0.73 9994
0.06 0.00 2.25 -2.68 11.71 -0.74 1.25 0.89 10000
0.06 -0.01 2.37 -2.41 11.05 -0.70 1.27 1.02 10007
0.06 -0.01 2.29 -2.27 10.44 -0.66 1.30 1.13 10013
0.07 -0.01 2.33 -2.30 10.27 -0.63 1.34 1.17 10019
0.05 -0.01 2.29 -2.42 10.15 -0.57 1.41 1.22 10025
0.05 -0.01 2.01 -2.51 10.16 -0.51 1.52 1.26 10032
0.04 -0.00 1.71 -2.51 10.32 -0.41 1.66 1.29 10039
0.04 -0.00 1.37 -2.43 10.59 -0.32 1.79 1.31 10045
0.05 0.00 0.97 -2.36 10.77 -0.24 1.89 1.34 10051
0.06 -0.01 0.64 -2.27 11.13 -0.19 1.95 1.35 10057
0.05 -0.00 0.46 -2.17 11.78 -0.16 1.95 1.36 10064
0.07 -0.01 0.40 -2.03 12.24 -0.17 1.89 1.35 10071
0.07 -0.01 0.24 -1.85 12.18 -0.23 1.80 1.33 10077
0.06 -0.01 0.17 -1.71 11.95 -0.33 1.67 1.31 10083
0.06 -0.00 0.28 -1.71 11.63 -0.38 1.52 1.27 10089
0.05 -0.01 0.49 -1.93 11.37 -0.47 1.39 1.21 10096
0.06 0.00 0.69 -2.29 11.06 -0.53 1.27 1.13 10102
0.05 -0.00 0.84 -2.62 10.63 -0.55 1.20 1.03 10108
0.04 -0.00 0.98 -2.90 10.10 -0.55 1.19 0.93 10115
0.05 -0.00 0.99 -3.15 9.72 -0.51 1.25 0.83 10121
0.04 -0.00 0.81 -3.26 9.64 -0.46 1.35 0.75 10128
0.03 -0.00 0.64 -3.35 9.75 -0.39 1.45 0.68 10134
0.05 0.00 0.37 -3.40 9.70 -0.34 1.51 0.62 10140
0.05 -0.00 0.02 -3.50 9.76 -0.30 1.51 0.57 10146
0.04 -0.00 -0.23 -3.47 9.88 -0.28 1.46 0.54 10152
0.04 -0.00 -0.63 -3.46 10.17 -0.29 1.34 0.53 10159
0.04 -0.00 -0.74 -3.53 10.36 -0.33 1.18 0.53 10166
0.04 -0.00 -0.79 -3.59 10.09 -0.38 1.00 0.54 10172
0.04 0.00 -0.77 -3.84 9.67 -0.45 0.85 0.56 10178
0.04 -0.00 -0.86 -4.39 9.23 -0.50 0.78 0.60 10184
0.04 -0.00 -0.88 -5.03 8.77 -0.50 0.75 0.62 10190
0.04 -0.00 -1.05 -6.11 8.44 -0.47 0.73 0.67 10196
0.05 -0.00 -1.47 -5.83 8.14 -0.40 0.69 0.64 10204
0.04 -0.00 -8.26 -10.40 20.77 0.01 -0.72 0.70 10210
0.03 -0.00 -3.66 -6.43 6.47 0.18 -1.16 0.78 10216
0.05 -0.01 -8.23 -10.60 2.97 0.22 -1.77 0.75 10222
0.05 -0.00 -9.18 -13.44 5.52 0.42 -2.39 0.72 10228
0.04 -0.00 -7.97 -12.07 4.69 0.68 -2.76 0.59 10235
0.05 -0.01 -9.51 -6.95 20.15 1.47 -2.31 0.72 10242
0.04 -0.00 -20.55 -16.32 2.39 2.34 -2.02 1.08 10248
0.05 -0.00 5.57 10.01 32.14 0.57 -3.00 -0.09 10254
0.06 -0.01 -6.84 -2.84 -3.98 -0.06 0.06 -0.19 10261
0.07 0.01 -0.56 -1.30 12.04 -1.04 0.12 -0.13 10267
0.09 0.08 -0.95 0.47 9.71 -0.51 -0.10 -0.12 10273
0.07 0.13 1.32 -1.08 10.18 -0.24 0.00 0.01 10279
0.06 0.20 1.35 -0.73 10.30 -0.15 0.01 0.13 10287
0.07 0.23 0.44 -0.60 10.42 -0.12 -0.01 0.14 10293
0.06 0.25 0.87 -0.54 10.21 -0.05 -0.01 0.13 10299
0.04 0.27 1.02 -0.79 10.09 -0.01 -0.02 0.11 10305
0.06 0.26 1.10 -0.84 9.88 0.00 -0.03 0.10 10311
0.06 0.21 0.74 -0.80 9.96 0.01 -0.04 0.07 10318
0.11 0.20 0.56 -0.82 9.97 0.01 -0.03 0.07 10324
0.11 0.16 -0.36 -0.01 10.38 0.01 -0.01 0.09 10331
0.12 0.12 0.64 -0.83 9.95 0.00 -0.01 0.08 10337
0.16 0.09 0.59 -0.81 9.93 -0.00 -0.01 0.09 10343
0.16 0.10 0.68 -0.78 9.95 -0.01 -0.01 0.10 10350
0.17 0.09 0.75 -0.79 9.94 -0.02 -0.01 0.11 10356
0.22 0.07 0.83 -0.87 9.91 -0.02 -0.02 0.10 10362
0.22 0.07 0.80 -0.82 9.92 -0.03 -0.03 0.09 10369
0.20 0.08 0.79 -0.79 9.95 -0.04 -0.04 0.07 10375
0.21 0.11 0.64 -0.77 9.99 -0.04 -0.04 0.08 10381
0.19 0.14 1.21 -0.84 10.04 -0.03 -0.03 0.08 10388
0.19 0.15 0.61 -0.86 9.98 -0.03 -0.02 0.10 10394
0.22 0.15 0.64 -0.81 9.91 -0.03 -0.01 0.11 10400
0.20 0.12 0.72 -0.78 9.97 -0.03 -0.02 0.11 10406
0.21 0.17 0.75 -0.80 9.97 -0.03 -0.02 0.11 10413
0.22 0.20 0.35 -0.56 9.32 -0.03 -0.02 0.11 10420
0.20 0.23 0.72 -0.73 10.00 -0.02 -0.02 0.11 10426
0.20 0.25 0.71 -0.73 10.01 0.00 -0.03 0.11 10432
0.20 0.21 0.68 -0.77 9.95 0.01 -0.02 0.11 10438
0.19 0.16 0.70 -0.77 9.92 0.01 -0.02 0.10 10445
0.21 0.15 0.69 -0.78 9.90 0.00 -0.02 0.10 10451
0.21 0.14 0.68 -0.72 9.91 0.00 -0.02 0.11 10458
0.21 0.13 0.69 -0.78 9.90 -0.00 -0.02 0.10 10464
0.21 0.14 0.74 -0.80 9.86 -0.01 -0.02 0.10 10470
0.23 0.14 0.70 -0.78 9.92 -0.01 -0.03 0.10 10476
0.22 0.13 0.71 -0.76 9.96 -0.02 -0.03 0.10 10483
0.21 0.16 0.71 -0.74 9.96 -0.02 -0.03 0.11 10489
0.22 0.17 0.71 -0.79 9.94 -0.02 -0.03 0.10 10496
0.19 0.18 0.70 -0.80 9.92 -0.02 -0.03 0.10 10502
0.19 0.19 0.74 -0.79 9.98 -0.02 -0.04 0.10 10508
0.19 0.18 0.72 -0.75 9.92 -0.02 -0.05 0.10 10515
0.17 0.17 0.72 -0.74 9.97 -0.02 -0.05 0.10 10521
0.18 0.19 0.74 -0.73 9.93 -0.01 -0.05 0.10 10527
0.18 0.18 0.73 -0.72 9.97 -0.01 -0.06 0.09 10533
0.18 0.18 0.76 -0.76 9.93 -0.00 -0.06 0.10 10540
0.18 0.19 0.72 -0.74 9.90 -0.00 -0.07 0.10 10547
0.19 0.18 0.73 -0.77 9.92 -0.01 -0.07 0.10 10553
0.19 0.19 0.66 -0.79 9.93 -0.01 -0.07 0.10 10559
0.21 0.21 0.70 -0.78 9.96 -0.02 -0.07 0.09 10565
0.21 0.20 0.70 -0.76 9.94 -0.02 -0.07 0.09 10571
0.21 0.21 0.71 -0.77 10.06 -0.02 -0.07 0.10 10578
0.22 0.23 0.72 -0.79 9.90 -0.02 -0.07 0.10 10585
0.21 0.24 0.71 -0.78 9.97 -0.02 -0.06 0.10 10591
0.21 0.24 0.72 -0.78 9.95 -0.02 -0.07 0.10 10597
0.22 0.27 0.71 -0.81 9.93 -0.02 -0.07 0.10 10603
0.22 0.27 0.71 -0.75 9.95 -0.02 -0.07 0.10 10610
0.20 0.33 0.70 -0.76 9.92 -0.03 -0.07 0.10 10616
0.20 0.38 0.69 -0.78 9.98 -0.03 -0.07 0.10 10622
0.19 0.38 0.69 -0.80 9.95 -0.03 -0.07 0.11 10629
0.19 0.41 0.72 -0.77 9.92 -0.03 -0.07 0.10 10635
0.20 0.52 0.67 -0.78 10.00 -0.03 -0.07 0.11 10642
0.20 0.43 0.67 -0.77 9.94 -0.03 -0.06 0.10 10648
0.20 0.50 0.70 -0.70 9.95 -0.03 -0.05 0.11 10654
0.19 0.52 0.69 -0.76 9.93 -0.02 -0.05 0.11 10660
0.18 0.55 0.67 -0.74 9.97 -0.02 -0.05 0.12 10667
0.18 0.61 0.71 -0.76 9.97 -0.02 -0.05 0.10 10674
0.18 0.60 0.70 -0.76 9.95 -0.02 -0.05 0.13 10680
0.18 0.60 0.69 -0.78 9.92 -0.02 -0.04 0.11 10686
0.18 0.65 0.69 -0.75 9.92 -0.02 -0.04 0.11 10692
0.19 0.61 0.67 -0.77 9.92 -0.02 -0.03 0.11 10698
0.16 0.63 0.66 -0.74 9.94 -0.01 -0.03 0.12 10705
0.17 0.71 0.72 -0.74 9.93 -0.01 -0.02 0.12 10712
0.17 0.74 0.69 -0.78 9.92 -0.01 -0.01 0.12 10718
0.15 0.70 0.69 -0.74 9.94 -0.01 -0.01 0.12 10724
0.16 0.70 0.86 -0.95 9.98 -0.01 0.01 0.13 10730
0.17 0.73 0.68 -0.71 9.92 -0.00 0.01 0.12 10737
0.16 0.72 0.65 -0.72 10.00 0.00 0.02 0.13 10743
0.16 0.75 0.68 -0.73 9.93 0.00 0.03 0.13 10749
0.13 0.76 0.71 -0.73 9.94 0.00 0.05 0.13 10756
0.12 0.71 0.74 -0.80 10.00 0.01 0.06 0.13 10762
0.11 0.77 0.70 -0.77 9.92 -0.00 0.07 0.14 10768
0.11 0.76 0.65 -0.72 10.00 -0.00 0.08 0.15 10775
0.08 0.75 0.86 -0.93 10.02 -0.01 0.09 0.15 10781
0.07 0.77 0.76 -0.78 9.92 -0.01 0.10 0.17 10787
0.07 0.73 0.78 -0.71 9.96 -0.01 0.10 0.17 10793
0.07 0.75 0.80 -0.79 9.91 -0.01 0.10 0.18 10801
0.06 0.73 0.79 -0.71 9.92 -0.01 0.10 0.17 10807
0.04 0.76 0.76 -0.74 9.92 -0.01 0.09 0.17 10813
0.03 0.75 0.78 -0.67 9.93 -0.01 0.10 0.17 10819
0.03 0.77 0.83 -0.71 9.91 -0.02 0.10 0.16 10825
0.03 0.76 0.90 -0.63 9.83 -0.02 0.10 0.16 10832
0.02 0.82 0.86 -0.70 9.92 -0.03 0.09 0.15 10839
0.03 0.79 0.86 -0.73 9.90 -0.03 0.09 0.15 10845
0.02 0.79 0.92 -0.70 9.87 -0.03 0.08 0.14 10851
0.02 0.82 1.01 -0.77 9.92 -0.05 0.06 0.13 10857
0.03 0.82 0.85 -0.70 9.87 -0.03 0.07 0.12 10863
0.02 0.82 0.85 -0.76 9.93 -0.02 0.06 0.13 10870
0.03 0.85 0.84 -0.75 9.77 -0.03 0.06 0.12 10876
0.05 0.80 0.85 -0.71 9.88 -0.03 0.06 0.12 10883
0.03 0.79 0.90 -0.69 9.90 -0.02 0.06 0.11 10889
0.03 0.79 0.92 -0.71 9.86 -0.02 0.06 0.11 10895
0.05 0.76 0.95 -0.72 9.92 -0.02 0.05 0.10 10902
0.03 0.74 0.90 -0.68 9.91 -0.01 0.04 0.09 10908
0.03 0.79 0.93 -0.70 9.88 -0.02 0.03 0.09 10914
0.02 0.77 0.93 -0.72 9.89 -0.01 0.01 0.09 10920
0.01 0.75 0.94 -0.71 9.92 -0.00 -0.01 0.08 10927
0.02 0.76 0.98 -0.74 9.88 -0.00 -0.02 0.08 10933
0.02 0.76 0.94 -0.69 9.84 -0.00 -0.06 0.07 10940
0.01 0.77 0.96 -0.70 9.84 0.01 -0.09 0.06 10946
0.01 0.77 0.95 -0.69 9.82 0.01 -0.12 0.07 10952
0.02 0.76 0.98 -0.72 9.87 0.02 -0.16 0.07 10958
0.02 0.78 0.95 -0.75 9.93 0.03 -0.18 0.07 10964
0.02 0.76 0.86 -0.78 9.98 0.03 -0.18 0.07 10972
0.03 0.78 0.86 -0.76 9.95 0.02 -0.17 0.07 10978
0.02 0.79 0.83 -0.74 9.96 0.02 -0.15 0.08 10984
0.02 0.86 0.82 -0.78 9.94 0.01 -0.14 0.08 10990
0.03 0.84 0.86 -0.77 9.92 0.01 -0.13 0.08 10996
0.01 0.85 0.83 -0.71 9.88 0.01 -0.14 0.09 11003
0.03 0.85 0.85 -0.73 9.93 0.01 -0.14 0.09 11010
0.02 0.88 0.86 -0.79 9.92 0.00 -0.14 0.09 11016
0.03 0.88 0.86 -0.74 9.92 -0.00 -0.13 0.09 11022
0.03 0.89 0.82 -0.73 9.93 -0.01 -0.12 0.09 11028
0.04 0.91 0.79 -0.75 9.96 -0.01 -0.11 0.09 11035
0.02 0.87 0.79 -0.75 9.97 -0.01 -0.09 0.09 11041
0.06 0.86 0.79 -0.71 9.95 -0.00 -0.08 0.10 11047
0.06 0.85 0.82 -0.72 9.98 -0.00 -0.07 0.10 11054
0.04 0.85 0.79 -0.71 9.95 0.00 -0.07 0.09 11060
0.06 0.85 0.82 -0.71 9.94 0.00 -0.06 0.10 11066
0.05 0.85 0.79 -0.74 9.91 0.01 -0.05 0.10 11073
0.05 0.84 0.76 -0.72 9.93 0.00 -0.05 0.10 11079
0.05 0.83 0.80 -0.76 9.94 -0.00 -0.04 0.10 11085
0.06 0.82 0.80 -0.75 9.90 -0.00 -0.04 0.10 11091
0.04 0.81 0.78 -0.76 9.88 -0.00 -0.03 0.10 11098
0.05 0.82 0.80 -0.74 9.96 -0.01 -0.03 0.10 11105
0.05 0.80 0.79 -0.73 9.92 -0.01 -0.03 0.10 11111
0.03 0.79 0.77 -0.73 9.92 -0.01 -0.03 0.10 11117
0.05 0.80 0.81 -0.77 9.93 -0.01 -0.03 0.09 11123
0.04 0.79 0.85 -0.78 9.93 -0.01 -0.03 0.09 11129
0.03 0.79 0.79 -0.74 9.93 -0.01 -0.03 0.09 11136
0.04 0.76 0.80 -0.75 9.93 -0.01 -0.03 0.08 11143
0.05 0.72 0.82 -0.76 9.93 -0.00 -0.02 0.09 11149
0.04 0.72 0.81 -0.74 9.94 -0.00 -0.02 0.09 11155
0.06 0.68 0.79 -0.73 9.95 -0.00 -0.02 0.09 11161
0.06 0.61 0.79 -0.73 9.95 -0.00 -0.02 0.09 11167
0.05 0.61 0.84 -0.73 9.87 0.00 -0.02 0.09 11174
0.06 0.61 0.83 -0.75 9.89 -0.00 -0.02 0.10 11181
0.06 0.54 0.83 -0.73 9.92 -0.01 -0.02 0.09 11187
0.06 0.52 0.84 -0.70 9.92 -0.00 -0.02 0.09 11193
0.06 0.52 0.80 -0.76 9.92 -0.00 -0.02 0.09 11199
0.07 0.46 0.83 -0.72 9.92 0.00 -0.02 0.09 11205
0.07 0.44 0.82 -0.74 9.96 0.00 -0.02 0.09 11212
0.08 0.40 0.82 -0.74 9.95 0.00 -0.02 0.09 11218
0.08 0.42 0.85 -0.75 9.97 0.01 -0.02 0.09 11225
0.08 0.34 0.86 -0.72 9.88 0.01 -0.01 0.09 11231
0.08 0.35 0.86 -0.75 9.91 0.01 -0.01 0.10 11237
0.09 0.26 0.86 -0.74 9.95 0.01 -0.01 0.09 11243
0.09 0.23 0.87 -0.75 9.95 0.01 -0.00 0.09 11250
0.09 0.19 0.86 -0.77 9.94 0.01 -0.00 0.09 11256
0.10 0.14 0.86 -0.78 9.98 0.01 0.00 0.08 11262
0.10 0.11 0.82 -0.70 9.93 0.01 0.00 0.09 11269
0.08 0.15 0.85 -0.74 9.92 0.01 0.01 0.08 11275
0.11 0.14 0.83 -0.80 9.94 0.01 0.01 0.09 11281
0.09 0.10 0.84 -0.77 9.95 0.01 0.01 0.09 11288
0.08 0.10 0.85 -0.74 9.94 0.01 0.00 0.08 11294
0.09 0.09 0.91 -0.78 9.87 0.00 0.00 0.08 11300
0.09 0.06 0.87 -0.79 9.94 0.00 0.00 0.08 11307
0.09 0.05 0.90 -0.76 9.92 0.00 -0.00 0.08 11313
0.10 0.07 0.91 -0.76 9.94 0.01 -0.00 0.08 11319
0.11 0.05 0.94 -0.81 9.86 0.01 -0.01 0.09 11326
0.09 0.03 0.90 -0.80 9.93 0.01 -0.01 0.08 11332
0.09 0.05 0.89 -0.77 9.91 0.02 -0.01 0.08 11338
0.10 0.05 1.06 -0.86 9.98 0.02 -0.01 0.07 11344
0.09 0.03 0.86 -0.80 9.94 0.02 -0.01 0.07 11351
0.08 0.05 0.95 -0.78 9.91 0.01 -0.02 0.07 11357
0.10 0.05 0.89 -0.79 9.89 0.02 -0.02 0.07 11364
0.09 0.07 0.86 -0.83 9.92 0.02 -0.01 0.07 11370
0.09 0.05 0.94 -0.82 9.92 0.02 -0.01 0.07 11376
0.10 0.02 0.82 -0.80 9.94 0.02 -0.01 0.07 11382
0.08 0.03 0.91 -0.82 9.92 0.02 -0.01 0.07 11388
0.09 0.01 0.90 -0.82 9.91 0.02 -0.01 0.06 11395
0.09 0.02 0.88 -0.81 9.95 0.02 -0.01 0.07 11402
0.08 0.02 0.91 -0.83 9.93 0.01 -0.01 0.08 11408
0.08 0.01 0.91 -0.83 9.94 0.01 -0.01 0.07 11414
0.09 0.02 0.95 -0.82 9.94 0.01 -0.01 0.07 11420
0.09 0.02 0.92 -0.84 9.86 0.01 -0.01 0.07 11426
0.09 0.01 0.94 -0.85 9.94 0.01 -0.02 0.07 11432
0.09 0.02 0.96 -0.82 9.90 0.00 -0.02 0.08 11440
0.09 0.01 0.96 -0.83 9.89 0.00 -0.02 0.07 11446
0.09 0.00 0.97 -0.86 9.91 -0.00 -0.02 0.07 11452
0.09 0.01 0.93 -0.82 9.93 -0.00 -0.03 0.07 11458
0.09 0.01 0.95 -0.82 9.95 -0.00 -0.03 0.07 11464
0.09 0.01 0.93 -0.82 9.95 -0.00 -0.03 0.07 11470
0.08 0.03 0.91 -0.80 9.97 0.00 -0.03 0.07 11478
0.10 0.02 0.92 -0.81 9.92 0.00 -0.03 0.07 11484
0.09 0.01 0.93 -0.84 10.01 0.01 -0.03 0.07 11490
0.09 0.01 0.91 -0.85 9.96 0.01 -0.04 0.07 11496
0.10 0.00 0.97 -0.85 9.98 0.01 -0.04 0.08 11502
0.08 -0.01 0.91 -0.84 10.00 0.02 -0.04 0.08 11509
0.08 0.01 1.11 -0.78 9.85 0.01 -0.04 0.07 11515
0.10 0.01 0.95 -0.85 9.92 0.01 -0.04 0.07 11522
0.09 0.01 0.97 -0.83 9.93 0.01 -0.04 0.07 11528
0.08 -0.01 0.97 -0.85 9.91 0.01 -0.04 0.07 11534
0.08 0.00 0.97 -0.83 9.93 0.01 -0.04 0.07 11540
0.08 -0.01 0.96 -0.85 9.91 0.01 -0.04 0.06 11546
0.08 -0.01 0.98 -0.84 9.88 0.01 -0.03 0.06 11553
0.09 -0.00 0.97 -0.84 9.91 0.00 -0.07 0.06 11559
0.09 -0.01 0.97 -0.88 9.91 0.00 -0.03 0.05 11566
0.08 -0.01 0.96 -0.88 9.93 0.00 -0.03 0.06 11572
0.07 -0.01 0.97 -0.86 9.92 0.00 -0.04 0.06 11578
0.08 -0.00 0.94 -0.86 9.92 0.00 -0.04 0.06 11584
0.08 -0.01 0.98 -0.86 9.96 0.00 -0.05 0.05 11590
0.08 -0.01 0.96 -0.85 9.97 0.00 -0.05 0.05 11596
0.08 -0.01 0.93 -0.86 9.97 0.01 -0.05 0.06 11603
0.09 -0.00 0.97 -0.89 9.97 0.01 -0.05 0.06 11610
0.08 -0.01 0.83 -0.82 9.95 0.00 -0.05 0.05 11616
0.08 -0.01 0.94 -0.87 9.95 0.01 -0.04 0.05 11622
0.08 0.00 0.92 -0.90 9.92 0.00 -0.04 0.05 11628
0.09 -0.00 0.98 -0.93 10.02 0.00 -0.04 0.05 11634
0.09 -0.01 0.91 -0.90 9.93 0.01 -0.05 0.05 11640
0.07 -0.01 0.95 -0.88 9.88 0.01 -0.05 0.05 11648
0.10 -0.01 0.97 -0.88 9.95 0.01 -0.05 0.06 11654
0.08 -0.01 0.96 -0.82 9.94 0.01 -0.05 0.06 11660
0.08 -0.01 0.99 -0.87 9.91 0.00 -0.05 0.05 11666
0.09 -0.00 0.94 -0.88 9.92 0.00 -0.06 0.05 11672
0.09 -0.01 0.95 -0.92 9.92 -0.00 -0.06 0.04 11678
0.10 -0.01 0.97 -0.91 9.91 -0.01 -0.07 0.05 11684
0.09 -0.00 0.97 -0.96 9.91 -0.01 -0.07 0.04 11692
0.11 -0.01 0.97 -0.87 9.94 -0.02 -0.07 0.04 11698
0.10 -0.01 0.90 -0.91 9.88 -0.02 -0.07 0.05 11704
0.09 -0.00 0.97 -0.88 9.88 -0.02 -0.06 0.05 11710
0.09 0.00 0.95 -0.85 10.01 -0.02 -0.06 0.04 11716
0.09 -0.00 0.94 -0.85 10.01 -0.01 -0.05 0.04 11723
0.08 -0.00 0.92 -0.68 10.00 0.00 -0.05 0.04 11729
0.09 -0.01 0.81 -0.77 10.08 0.02 -0.05 0.05 11736
0.08 -0.01 0.95 -0.89 10.00 0.03 -0.05 0.04 11742
0.08 -0.01 0.72 -1.05 9.99 0.04 -0.04 0.04 11748
0.09 0.00 1.18 -0.86 10.02 0.04 -0.03 0.05 11754
0.09 -0.01 0.91 -0.93 10.02 0.06 -0.03 0.06 11761
0.08 -0.01 0.92 -0.94 10.00 0.08 -0.02 0.05 11767
0.10 -0.01 1.05 -1.00 10.07 0.09 -0.01 0.04 11773
0.09 -0.01 0.94 -0.93 9.98 0.11 -0.00 0.03 11780
0.11 -0.01 1.01 -0.97 9.90 0.12 -0.01 0.01 11786
0.11 -0.01 1.03 -0.94 9.95 0.13 -0.02 -0.03 11792
0.10 -0.01 1.15 -0.97 9.87 0.13 -0.01 -0.02 11798
0.10 -0.01 1.08 -0.96 9.93 0.12 -0.03 -0.02 11805
0.10 -0.01 0.95 -1.07 9.79 0.08 -0.06 -0.02 11811
0.11 -0.01 0.94 -1.08 9.76 0.01 -0.11 -0.01 11817
0.12 -0.01 0.88 -1.07 9.72 -0.09 -0.16 -0.01 11824
0.09 -0.01 0.84 -1.04 9.81 -0.13 -0.18 0.00 11830
0.12 -0.00 0.91 -1.05 9.85 -0.17 -0.17 0.01 11836
0.13 -0.01 0.85 -1.03 9.95 -0.17 -0.15 0.01 11843
0.12 -0.01 0.89 -0.94 10.06 -0.15 -0.12 0.01 11849
0.11 -0.00 0.87 -0.90 10.11 -0.10 -0.10 0.01 11855
0.12 -0.01 1.29 -0.60 9.85 -0.04 -0.06 0.03 11862
0.12 -0.01 0.79 -0.95 10.05 -0.02 -0.07 0.03 11868
0.12 -0.00 0.91 -0.85 10.08 0.00 -0.07 0.04 11874
0.12 -0.01 0.89 -0.93 10.04 0.03 -0.07 0.05 11881
0.11 -0.01 0.97 -0.88 10.18 0.07 -0.06 0.05 11887
0.13 -0.00 0.85 -0.94 10.03 0.14 -0.03 0.05 11893
0.12 -0.00 0.97 -1.08 10.10 0.22 -0.00 0.05 11899
0.11 -0.01 1.06 -1.08 10.56 0.39 0.08 0.03 11907
0.15 -0.00 1.06 -1.16 10.55 0.47 0.15 0.01 11913
0.12 -0.01 0.81 -0.96 10.14 0.58 0.20 0.00 11919
0.12 -0.00 0.60 -1.10 9.50 0.64 0.21 -0.00 11925
0.13 -0.00 0.90 -1.22 10.37 0.64 0.17 -0.00 11931
0.11 -0.01 1.31 -1.29 9.58 0.59 0.16 0.00 11938
0.12 -0.00 0.95 -1.38 9.60 0.52 0.11 0.01 11944
0.14 -0.00 0.88 -1.39 9.80 0.42 0.07 0.02 11951
0.13 -0.01 1.05 -1.42 9.45 0.33 0.03 0.02 11957
0.13 -0.01 1.08 -1.41 9.38 0.24 0.01 0.02 11963
0.14 -0.01 1.10 -1.40 9.49 0.16 -0.01 0.02 11969
0.14 -0.01 1.13 -1.39 9.65 0.09 -0.02 0.02 11976
0.13 0.00 1.14 -1.43 9.78 0.06 -0.03 0.01 11982
0.14 -0.00 1.10 -1.44 9.96 0.05 -0.03 0.00 11988
0.13 -0.01 1.08 -1.45 9.95 0.05 -0.03 -0.00 11995
0.12 -0.01 1.12 -1.40 10.00 0.05 -0.02 -0.01 12001
0.13 -0.00 1.08 -1.44 10.10 0.07 -0.01 -0.01 12007
0.12 -0.01 1.04 -1.47 10.21 0.10 -0.01 -0.01 12014
0.11 -0.01 1.03 -1.48 10.15 0.14 -0.01 -0.01 12020
0.13 -0.01 1.05 -1.45 10.19 0.17 -0.00 -0.02 12026
0.12 -0.01 1.03 -1.53 10.23 0.20 0.00 -0.02 12033
0.11 -0.01 1.08 -1.52 10.18 0.24 0.01 -0.01 12039
0.11 -0.01 1.10 -1.56 10.23 0.27 0.02 -0.01 12046
0.11 -0.01 1.04 -1.55 10.13 0.29 0.02 -0.02 12052
0.10 -0.01 1.05 -1.60 10.08 0.30 0.02 -0.02 12058
0.10 -0.01 1.03 -1.61 9.96 0.31 0.03 -0.02 12064
0.10 -0.01 1.05 -1.57 9.93 0.31 0.03 -0.01 12070
0.11 -0.01 1.08 -1.68 9.86 0.30 0.03 -0.01 12078
0.10 -0.01 1.10 -1.69 9.85 0.29 0.03 -0.01 12084
0.08 -0.01 1.10 -1.69 9.88 0.29 0.03 -0.01 12090
0.07 -0.01 1.12 -1.77 9.89 0.28 0.03 -0.00 12096
0.09 0.00 1.12 -1.76 9.87 0.28 0.04 -0.00 12102
0.08 -0.01 1.14 -1.77 9.83 0.28 0.04 -0.01 12108
0.07 -0.01 1.09 -1.81 9.88 0.27 0.04 -0.01 12114
0.07 -0.01 1.15 -1.81 9.83 0.27 0.05 -0.01 12122
0.09 -0.01 1.20 -1.88 9.86 0.27 0.06 -0.01 12128
0.07 -0.01 1.17 -1.83 9.83 0.27 0.07 -0.01 12134
0.07 -0.01 1.17 -1.92 9.84 0.27 0.08 -0.02 12140
0.08 -0.01 1.18 -1.91 10.04 0.28 0.09 -0.02 12146
0.07 -0.01 1.19 -1.88 10.10 0.29 0.10 -0.02 12152
0.06 -0.01 1.31 -1.95 10.13 0.32 0.10 -0.02 12160
0.07 -0.00 1.23 -2.01 10.18 0.35 0.09 -0.03 12166
0.06 -0.01 1.21 -2.02 10.15 0.38 0.09 -0.04 12172
0.05 -0.01 1.24 -2.03 10.21 0.41 0.10 -0.04 12178
0.07 -0.00 1.30 -2.06 10.21 0.44 0.12 -0.05 12184
0.08 -0.01 1.21 -2.13 10.27 0.46 0.14 -0.05 12191
0.09 -0.01 1.32 -2.10 10.12 0.48 0.16 -0.06 12197
0.08 -0.01 1.50 -2.15 10.21 0.50 0.20 -0.08 12204
0.07 -0.01 1.58 -2.18 10.28 0.52 0.24 -0.10 12210
0.07 -0.00 1.63 -2.11 10.17 0.55 0.26 -0.13 12216
0.08 -0.01 1.65 -2.22 9.18 0.57 0.27 -0.17 12223
0.08 -0.01 1.56 -2.15 10.23 0.58 0.31 -0.18 12229
0.06 0.00 2.11 -2.17 10.67 0.61 0.33 -0.23 12235
0.08 -0.01 1.98 -2.24 10.14 0.63 0.39 -0.27 12241
0.08 -0.01 1.71 -2.38 9.85 0.64 0.40 -0.33 12248
0.10 -0.00 1.81 -2.47 10.15 0.65 0.41 -0.32 12255
0.07 -0.01 1.74 -2.50 10.12 0.65 0.45 -0.33 12261
0.07 -0.01 1.60 -2.62 9.87 0.65 0.50 -0.34 12267
0.07 -0.01 1.35 -2.71 9.98 0.64 0.54 -0.33 12273
0.07 -0.01 1.16 -2.85 9.97 0.63 0.59 -0.30 12279
0.08 -0.01 1.09 -2.96 9.90 0.62 0.63 -0.26 12285
0.07 0.00 0.93 -3.05 10.00 0.62 0.66 -0.22 12293
0.09 -0.01 0.96 -3.24 10.10 0.61 0.70 -0.16 12299
0.07 -0.01 0.98 -3.31 9.93 0.61 0.72 -0.10 12305
0.09 0.00 1.02 -3.36 9.95 0.61 0.74 -0.04 12311
0.10 -0.01 1.06 -3.42 10.03 0.61 0.76 0.02 12317
0.08 -0.01 1.18 -3.51 10.03 0.62 0.78 0.10 12324
0.08 -0.01 1.10 -3.40 10.15 0.63 0.81 0.12 12331
0.09 -0.01 1.25 -3.79 10.33 0.63 0.82 0.17 12337
0.07 -0.01 1.57 -3.72 10.74 0.63 0.85 0.20 12343
0.09 -0.00 1.59 -3.93 11.85 0.62 0.91 0.25 12349
0.08 -0.01 2.05 -3.55 11.01 0.55 1.04 0.27 12356
0.06 -0.01 1.96 -3.53 10.82 0.50 1.14 0.27 12362
0.09 -0.01 1.76 -3.67 10.88 0.44 1.27 0.26 12368
0.06 -0.01 1.80 -3.69 10.83 0.39 1.35 0.24 12375
0.06 -0.01 1.75 -3.95 10.40 0.35 1.45 0.22 12381
0.07 -0.01 1.45 -4.16 10.19 0.30 1.53 0.19 12388
0.05 -0.01 0.72 -4.72 9.84 0.27 1.59 0.13 12394
0.06 -0.01 -0.03 -5.34 9.44 0.28 1.60 0.03 12400
0.06 -0.01 -1.57 -6.06 9.29 0.31 1.55 -0.13 12406
0.06 -0.01 -3.19 -6.39 9.18 0.35 1.40 -0.33 12412
0.05 -0.01 -4.11 -6.20 9.47 0.40 1.13 -0.52 12419
0.06 -0.01 -5.66 -6.47 9.40 0.44 0.79 -0.76 12426
0.05 -0.01 -6.61 -6.68 9.80 0.44 0.39 -1.08 12432
0.04 -0.00 -6.70 -6.16 9.86 0.40 0.00 -1.45 12438
0.05 -0.00 -5.70 -6.05 9.76 0.37 -0.36 -1.72 12444
0.05 -0.00 -6.11 -5.78 10.17 0.31 -0.62 -1.95 12450
0.04 -0.00 -5.99 -5.62 10.39 0.25 -0.81 -2.18 12457
0.05 -0.01 -4.96 -5.39 10.83 0.22 -0.97 -2.40 12464
0.05 -0.01 -5.05 -5.19 10.45 0.20 -1.10 -2.51 12470
0.04 -0.00 -4.43 -4.84 10.58 0.18 -1.22 -2.62 12476
0.07 -0.01 -3.41 -4.52 9.72 0.14 -1.32 -2.69 12482
0.07 -0.01 -3.40 -4.91 9.86 0.10 -1.45 -2.68 12489
0.06 -0.01 -3.07 -3.93 10.18 0.07 -1.61 -2.63 12495
0.06 -0.01 -2.91 -3.87 8.71 0.07 -1.75 -2.54 12502
0.06 -0.01 -2.10 -3.62 8.76 0.10 -1.95 -2.37 12508
0.06 -0.01 -2.38 -3.70 10.10 0.13 -2.08 -2.25 12514
0.06 -0.01 -0.82 -3.55 9.01 0.25 -2.25 -2.04 12521
0.05 -0.01 0.72 -3.42 7.97 0.30 -2.33 -1.76 12527
0.05 -0.00 0.77 -2.78 10.04 0.34 -2.40 -1.41 12533
0.07 -0.00 1.99 -2.62 10.26 0.37 -2.41 -1.03 12539
0.06 -0.01 2.50 -2.17 10.89 0.40 -2.39 -0.62 12546
0.07 0.00 2.45 -1.83 11.48 0.40 -2.33 -0.27 12553
0.07 -0.01 3.03 -1.62 11.70 0.37 -2.21 0.04 12559
0.05 -0.01 2.75 -1.29 11.10 0.31 -2.03 0.28 12565
0.06 -0.01 2.24 -1.39 10.67 0.26 -1.78 0.38 12571
0.05 -0.01 0.38 -1.30 9.56 0.21 -1.54 0.37 12577
0.05 -0.01 0.19 -1.39 9.43 0.17 -1.36 0.30 12584
0.07 -0.01 -0.34 -1.45 9.21 0.14 -1.18 0.15 12591
0.05 -0.01 -0.92 -1.55 9.31 0.14 -1.06 0.02 12597
0.06 -0.01 -0.51 -1.60 9.61 0.15 -1.02 -0.15 12603
0.06 0.00 -1.32 -1.47 9.69 0.15 -1.04 -0.31 12609
0.06 -0.01 -2.46 -1.56 10.70 0.11 -1.13 -0.48 12615
0.06 -0.01 -2.66 -1.43 10.22 0.06 -1.29 -0.63 12622
0.06 -0.01 -2.53 -1.72 9.76 -0.00 -1.46 -0.79 12628
0.06 -0.01 -1.87 -1.84 9.80 -0.05 -1.62 -0.94 12635
0.05 -0.00 -1.91 -2.15 9.87 -0.06 -1.74 -1.09 12641
0.05 -0.00 -1.62 -2.40 10.23 -0.08 -1.81 -1.24 12647
0.06 -0.01 -2.37 -2.73 10.71 -0.07 -1.83 -1.36 12654
0.05 -0.01 -0.31 -2.90 10.28 -0.07 -1.79 -1.45 12660
0.07 -0.01 0.46 -2.88 10.24 -0.04 -1.71 -1.53 12666
0.06 -0.01 0.98 -2.89 9.54 -0.02 -1.62 -1.61 12673
0.05 -0.01 0.64 -3.25 9.79 0.02 -1.54 -1.66 12679
0.07 -0.01 0.12 -3.51 9.97 0.05 -1.46 -1.69 12686
0.06 -0.01 2.01 -3.33 9.89 0.06 -1.38 -1.69 12692
0.05 -0.00 3.88 -2.38 9.47 0.07 -1.29 -1.66 12698
0.06 -0.00 6.04 -3.35 8.83 0.08 -1.21 -1.70 12704
0.05 -0.01 3.91 -3.41 9.69 0.12 -1.14 -1.64 12710
0.05 -0.00 4.91 -3.15 8.56 0.13 -1.06 -1.56 12717
0.06 -0.01 4.39 -3.12 9.50 0.10 -0.94 -1.45 12724
0.06 -0.01 4.31 -3.60 9.54 0.08 -0.79 -1.30 12730
0.05 -0.00 4.80 -3.61 9.76 0.05 -0.69 -1.13 12736
0.06 -0.00 5.25 -4.11 10.04 0.01 -0.56 -0.96 12742
0.06 -0.01 5.31 -4.61 10.31 -0.03 -0.46 -0.78 12748
0.04 -0.00 5.25 -5.10 10.92 -0.08 -0.38 -0.56 12755
0.06 -0.01 5.87 -5.83 9.95 -0.13 -0.32 -0.34 12762
0.06 -0.01 4.52 -7.39 10.82 -0.17 -0.27 -0.14 12768
0.06 -0.01 3.79 -7.72 10.67 -0.21 -0.27 0.06 12774
0.06 -0.01 2.82 -8.51 10.43 -0.26 -0.29 0.19 12780
0.04 -0.00 2.31 -8.79 10.00 -0.29 -0.33 0.29 12787
0.04 -0.00 2.01 -8.95 9.15 -0.33 -0.35 0.31 12793
0.07 -0.01 1.08 -8.55 8.75 -0.35 -0.36 0.29 12800
0.05 -0.01 0.51 -8.33 7.91 -0.38 -0.35 0.24 12806
0.04 -0.00 0.38 -7.72 7.61 -0.41 -0.29 0.16 12812
0.05 -0.00 0.63 -6.92 7.88 -0.43 -0.17 0.09 12818
0.05 -0.00 0.81 -6.64 7.95 -0.44 -0.01 0.01 12825
0.04 -0.00 0.79 -6.62 7.98 -0.44 0.16 -0.07 12831
0.04 -0.00 0.91 -6.16 8.41 -0.39 0.31 -0.17 12837
0.05 -0.01 0.86 -5.38 8.52 -0.34 0.44 -0.25 12844
0.05 -0.01 1.17 -4.75 8.62 -0.30 0.58 -0.32 12850
0.05 -0.01 1.39 -3.95 9.03 -0.29 0.73 -0.37 12856
0.07 -0.01 1.29 -3.82 9.49 -0.30 0.86 -0.41 12862
0.06 -0.01 1.67 -3.18 10.13 -0.31 0.96 -0.43 12869
0.06 -0.01 2.01 -2.56 10.20 -0.35 0.99 -0.42 12875
0.06 -0.01 2.61 -1.81 10.39 -0.41 1.04 -0.37 12881
0.05 -0.01 3.64 -1.04 10.65 -0.51 1.11 -0.26 12888
0.06 -0.01 3.57 -1.75 10.41 -0.65 1.22 -0.13 12895
0.06 -0.01 4.15 -1.71 10.61 -0.79 1.37 0.01 12901
0.06 -0.01 4.28 -1.44 10.50 -0.96 1.47 0.15 12907
0.07 -0.00 3.79 -1.33 10.09 -1.08 1.56 0.29 12913
0.07 -0.01 3.23 -1.56 9.70 -1.13 1.62 0.41 12919
0.05 -0.01 2.84 -1.75 9.28 -1.13 1.61 0.53 12926
0.07 -0.01 2.39 -1.91 8.98 -1.06 1.53 0.64 12933
0.07 -0.01 2.12 -1.99 9.06 -0.96 1.41 0.73 12939
0.07 -0.01 2.02 -1.94 9.11 -0.84 1.27 0.80 12945
0.06 -0.00 2.05 -1.87 9.15 -0.77 1.15 0.87 12951
0.06 -0.01 2.11 -1.65 9.40 -0.68 1.04 0.93 12957
0.06 -0.01 2.27 -1.50 9.68 -0.63 1.05 0.99 12964
0.06 -0.01 2.33 -1.36 9.88 -0.60 1.09 1.06 12971
0.07 -0.01 2.25 -1.23 10.25 -0.60 1.17 1.13 12977
0.06 -0.01 2.04 -1.10 10.58 -0.61 1.26 1.22 12983
0.05 -0.01 1.77 -1.03 10.77 -0.64 1.34 1.32 12989
0.06 -0.01 1.54 -0.94 11.02 -0.68 1.39 1.41 12996
0.06 -0.01 0.21 -2.13 11.26 -0.73 1.43 1.49 13002
0.06 -0.00 1.68 -0.70 12.09 -0.79 1.58 1.49 13008
0.06 -0.01 0.50 -0.66 11.31 -0.91 1.50 1.58 13015
0.06 -0.01 -0.26 -1.47 10.71 -0.83 1.51 1.66 13021
0.07 -0.01 0.02 -1.56 10.95 -0.80 1.56 1.75 13028
0.07 -0.01 -0.54 -1.39 10.85 -0.74 1.57 1.83 13034
0.07 -0.01 -0.93 -1.67 11.07 -0.73 1.56 1.90 13040
0.08 -0.01 -1.25 -1.89 11.07 -0.68 1.50 1.92 13046
0.07 -0.01 -1.40 -1.84 11.27 -0.65 1.35 1.92 13052
0.07 -0.01 -1.47 -1.82 11.46 -0.63 1.23 1.89 13060
0.08 -0.01 -1.27 -1.86 11.56 -0.64 1.07 1.83 13066
0.08 -0.01 -0.92 -1.84 11.67 -0.67 0.90 1.74 13072
0.07 -0.01 -0.53 -1.86 11.63 -0.72 0.75 1.60 13078
0.08 -0.01 0.01 -1.87 11.48 -0.79 0.62 1.49 13084
0.07 -0.01 0.59 -1.93 11.61 -0.87 0.56 1.31 13091
0.07 -0.01 1.21 -2.12 11.71 -0.95 0.56 1.12 13097
0.06 -0.01 1.69 -2.33 11.71 -1.04 0.62 0.92 13104
0.05 -0.01 1.93 -2.62 11.60 -1.13 0.70 0.73 13110
0.06 -0.01 2.01 -2.93 11.61 -1.20 0.81 0.55 13116
0.06 -0.01 1.89 -3.35 11.66 -1.26 0.91 0.39 13123
0.06 -0.01 1.64 -3.65 11.75 -1.31 0.97 0.26 13129
0.08 -0.01 1.46 -3.95 11.71 -1.34 0.98 0.15 13135
0.05 -0.01 1.47 -4.32 11.41 -1.38 0.94 0.06 13142
0.04 -0.00 1.43 -4.77 10.91 -1.42 0.86 -0.01 13149
0.05 -0.01 1.41 -5.27 10.37 -1.43 0.75 -0.08 13155
0.04 -0.00 1.49 -5.79 9.83 -1.42 0.60 -0.15 13161
0.04 -0.00 1.87 -6.35 9.29 -1.38 0.49 -0.22 13167
0.06 -0.01 2.36 -6.76 8.74 -1.31 0.39 -0.28 13173
0.04 -0.00 2.94 -7.31 8.44 -1.23 0.35 -0.37 13179
0.04 -0.00 3.42 -7.80 8.30 -1.13 0.42 -0.45 13187
0.05 -0.01 3.68 -8.25 8.23 -1.01 0.59 -0.52 13193
0.03 -0.00 3.51 -8.63 8.07 -0.88 0.86 -0.55 13199
0.02 -0.00 2.98 -8.84 7.93 -0.74 1.13 -0.54 13205
0.04 0.00 -15.09 -9.16 9.22 -0.14 -0.68 -0.20 13211
0.04 -0.00 -5.60 -6.79 5.53 -0.26 -1.23 -0.03 13217
0.03 -0.00 -7.01 -11.90 4.98 -0.12 -1.66 0.24 13224
0.05 -0.00 -17.24 -22.44 6.98 0.26 -1.78 0.82 13231
0.04 -0.00 -0.19 -12.93 3.19 1.13 -1.29 1.47 13237
0.05 -0.00 -4.63 -8.85 0.98 1.24 -1.25 1.86 13243
0.06 -0.00 -12.62 -7.52 7.41 1.66 -1.40 2.48 13249
0.04 -0.00 -10.24 -1.61 9.99 2.13 -1.52 3.11 13256
0.04 0.02 -18.30 2.25 21.84 0.59 -2.59 2.17 13262
0.04 0.09 -16.40 -10.54 8.21 -0.03 -0.16 0.34 13268
0.05 0.14 -7.64 -4.98 13.83 -0.41 0.50 0.10 13276
0.04 0.16 -1.90 1.15 9.85 -0.35 0.50 -0.05 13282
0.05 0.20 0.11 -0.74 9.99 -0.19 0.04 -0.00 13288
0.05 0.37 3.81 -1.94 9.78 -0.18 0.09 0.03 13294
0.05 0.55 3.11 -1.42 9.35 -0.13 0.10 0.24 13300
0.04 0.63 1.08 -0.83 10.60 -0.07 -0.02 0.20 13307
0.05 0.66 0.66 -0.25 10.36 -0.05 -0.02 0.13 13314
0.04 0.72 0.63 -0.32 10.04 -0.01 -0.03 0.08 13320
0.02 0.76 0.99 -0.72 10.01 0.02 -0.04 0.07 13326
0.06 0.74 1.04 -0.90 9.98 0.03 -0.06 0.08 13333
0.03 0.72 0.65 -0.91 10.01 0.02 -0.06 0.08 13339
0.03 0.69 0.51 -0.89 10.02 0.01 -0.05 0.08 13345
0.04 0.68 0.67 -0.98 10.02 0.00 -0.02 0.08 13351
0.06 0.65 0.74 -1.02 9.86 -0.02 -0.01 0.09 13358
0.06 0.65 0.81 -0.89 9.90 -0.03 -0.01 0.08 13365
0.06 0.64 0.82 -0.84 9.96 -0.04 -0.01 0.08 13371
0.07 0.69 0.80 -0.87 9.97 -0.04 -0.02 0.08 13377
0.06 0.72 0.76 -0.81 10.03 -0.04 -0.03 0.09 13383
0.07 0.79 0.79 -0.81 10.02 -0.05 -0.03 0.09 13389
0.06 0.83 0.76 -0.81 10.08 -0.04 -0.03 0.09 13396
0.07 0.85 0.71 -0.81 9.97 -0.03 -0.02 0.09 13403
0.06 0.87 0.72 -0.82 9.88 -0.03 -0.02 0.09 13409
0.07 0.88 0.72 -0.85 9.94 -0.03 -0.02 0.10 13415
0.08 0.87 0.77 -0.81 9.94 -0.03 -0.02 0.10 13421
0.08 0.86 0.79 -0.81 9.94 -0.02 -0.02 0.10 13428
0.07 0.88 0.81 -0.79 10.00 -0.02 -0.03 0.10 13434
0.09 0.87 0.81 -0.78 9.96 -0.01 -0.03 0.09 13441
0.07 0.84 0.76 -0.78 9.56 -0.00 -0.03 0.09 13447
0.07 0.83 0.79 -0.80 9.94 -0.00 -0.03 0.09 13453
0.10 0.78 0.73 -0.82 9.93 -0.00 -0.03 0.09 13460
0.11 0.75 0.80 -0.86 9.96 -0.01 -0.03 0.09 13466
0.11 0.76 0.74 -0.84 9.92 -0.01 -0.03 0.09 13472
0.15 0.70 0.78 -0.83 9.98 -0.01 -0.03 0.09 13478
0.15 0.70 0.77 -0.83 9.90 -0.01 -0.04 0.09 13485
0.13 0.69 0.78 -0.82 9.93 -0.01 -0.04 0.09 13491
0.14 0.67 0.79 -0.82 9.97 -0.01 -0.04 0.10 13498
0.13 0.67 0.79 -0.81 9.96 -0.01 -0.04 0.09 13504
0.11 0.66 0.79 -0.82 9.96 -0.01 -0.04 0.10 13510
0.13 0.68 0.75 -0.80 9.95 -0.01 -0.04 0.09 13516
0.11 0.68 0.78 -0.81 9.96 -0.01 -0.04 0.10 13522
0.12 0.67 0.79 -0.83 9.95 -0.01 -0.04 0.10 13530
0.13 0.65 0.77 -0.83 9.89 -0.01 -0.04 0.10 13536
0.13 0.62 0.82 -0.77 9.95 -0.00 -0.04 0.10 13542
0.13 0.58 0.78 -0.79 9.94 -0.00 -0.05 0.09 13548
0.14 0.56 0.80 -0.81 9.94 0.00 -0.05 0.10 13554
0.13 0.49 0.77 -0.80 9.99 -0.00 -0.05 0.09 13561
0.12 0.49 0.76 -0.82 9.96 -0.00 -0.06 0.09 13568
0.15 0.43 0.77 -0.82 9.92 -0.00 -0.05 0.09 13574
0.13 0.44 0.76 -0.84 9.96 -0.00 -0.06 0.09 13580
0.15 0.40 0.79 -0.85 9.92 -0.00 -0.05 0.09 13586
0.16 0.39 0.74 -0.80 9.90 -0.00 -0.06 0.09 13592
0.16 0.39 0.75 -0.82 9.95 -0.01 -0.05 0.08 13599
0.16 0.37 0.78 -0.85 9.95 -0.01 -0.05 0.09 13605
0.17 0.36 0.76 -0.81 9.95 -0.01 -0.05 0.09 13612
0.17 0.37 0.77 -0.79 9.92 -0.01 -0.04 0.10 13618
0.17 0.37 0.77 -0.81 9.96 -0.01 -0.05 0.10 13624
0.17 0.38 0.75 -0.84 9.96 -0.01 -0.04 0.09 13631
0.16 0.36 0.80 -0.86 9.92 -0.01 -0.05 0.10 13637
0.15 0.38 0.78 -0.81 9.94 -0.01 -0.05 0.09 13643
0.15 0.40 0.76 -0.84 9.98 -0.01 -0.05 0.09 13649
0.15 0.39 0.77 -0.85 9.95 -0.01 -0.05 0.10 13656
0.15 0.41 0.75 -0.83 9.96 -0.01 -0.05 0.10 13663
0.15 0.40 0.77 -0.83 9.93 -0.01 -0.06 0.09 13669
0.16 0.39 0.78 -0.82 9.94 -0.01 -0.05 0.09 13675
0.16 0.40 0.78 -0.84 9.92 -0.01 -0.05 0.09 13681
0.17 0.40 0.75 -0.84 9.93 -0.02 -0.05 0.09 13687
0.16 0.39 0.74 -0.79 9.94 -0.01 -0.06 0.09 13694
0.19 0.40 0.77 -0.83 9.96 -0.01 -0.06 0.09 13701
0.19 0.40 0.74 -0.79 9.96 -0.01 -0.06 0.09 13707
0.20 0.41 0.76 -0.83 9.95 -0.02 -0.07 0.09 13713
0.22 0.44 0.80 -0.80 9.98 -0.02 -0.07 0.08 13719
0.21 0.45 0.76 -0.82 9.98 -0.01 -0.08 0.09 13726
0.22 0.48 0.72 -0.83 10.00 -0.02 -0.08 0.08 13732
0.24 0.49 0.72 -0.86 9.98 -0.02 -0.08 0.09 13739
0.23 0.49 0.78 -0.83 9.92 -0.01 -0.08 0.08 13745
0.24 0.47 0.73 -0.79 9.98 -0.01 -0.08 0.08 13751
0.25 0.46 0.76 -0.83 9.95 -0.01 -0.07 0.09 13758
0.26 0.44 0.65 -0.70 9.93 -0.00 -0.07 0.09 13764
0.26 0.45 0.73 -0.81 9.97 -0.01 -0.07 0.09 13770
0.29 0.46 0.74 -0.88 9.95 -0.01 -0.07 0.09 13776
0.29 0.47 0.73 -0.79 9.97 -0.01 -0.07 0.09 13783
0.29 0.48 0.74 -0.80 9.97 -0.01 -0.06 0.09 13790
0.32 0.50 0.73 -0.82 9.93 -0.01 -0.06 0.09 13796
0.32 0.47 0.71 -0.81 9.98 -0.01 -0.06 0.10 13802
0.32 0.47 0.76 -0.80 10.00 -0.01 -0.05 0.09 13808
0.32 0.48 0.78 -0.81 9.99 -0.00 -0.05 0.10 13814
0.33 0.43 0.71 -0.81 9.93 -0.00 -0.05 0.09 13821
0.34 0.44 0.75 -0.82 9.94 -0.00 -0.04 0.09 13828
0.36 0.41 0.72 -0.82 9.96 -0.00 -0.04 0.09 13834
0.37 0.39 0.70 -0.82 9.97 0.01 -0.04 0.09 13840
0.37 0.42 0.74 -0.81 10.01 0.01 -0.03 0.09 13846
0.38 0.37 0.70 -0.80 9.98 0.01 -0.03 0.09 13853
0.39 0.32 0.74 -0.82 9.93 0.01 -0.02 0.09 13859
0.42 0.28 0.75 -0.83 9.91 0.01 -0.02 0.09 13865
0.42 0.25 0.77 -0.80 9.97 0.01 -0.01 0.08 13872
0.42 0.23 0.72 -0.83 9.97 0.01 -0.01 0.09 13878
0.43 0.25 0.75 -0.86 9.97 0.01 -0.00 0.09 13884
0.43 0.22 0.74 -0.81 9.96 0.01 -0.00 0.09 13891
0.43 0.17 0.74 -0.85 9.95 0.01 0.01 0.08 13897
0.44 0.24 0.72 -0.87 9.90 0.01 0.01 0.09 13903
0.43 0.16 0.76 -0.83 9.92 0.01 0.02 0.09 13910
0.41 0.18 0.75 -0.85 9.91 0.00 0.02 0.09 13916
0.40 0.16 0.77 -0.84 9.94 -0.00 0.03 0.09 13923
0.39 0.20 0.73 -0.80 9.95 0.00 0.03 0.10 13929
0.38 0.14 0.76 -0.85 9.95 0.00 0.03 0.10 13935
0.35 0.13 0.80 -0.84 9.96 0.00 0.03 0.09 13941
0.36 0.15 0.80 -0.85 9.97 0.00 0.02 0.09 13947
0.33 0.13 0.81 -0.84 9.92 0.00 0.02 0.09 13954
0.33 0.13 0.77 -0.84 9.92 0.00 0.01 0.09 13961
0.32 0.09 0.80 -0.82 9.93 0.00 0.00 0.09 13967
0.31 0.08 0.80 -0.86 9.98 -0.00 0.00 0.09 13973
0.30 0.09 0.76 -0.85 9.96 0.00 -0.00 0.09 13979
0.31 0.08 0.81 -0.85 9.92 0.00 -0.00 0.09 13985
0.31 0.09 0.81 -0.85 9.91 0.00 -0.01 0.09 13991
0.30 0.10 0.82 -0.82 9.98 -0.00 -0.00 0.09 13999
0.29 0.10 0.83 -0.84 9.94 -0.00 -0.01 0.10 14005
0.28 0.10 0.82 -0.83 9.95 -0.00 -0.01 0.09 14011
0.24 0.10 0.81 -0.83 9.91 -0.01 -0.01 0.10 14017
0.27 0.13 0.82 -0.84 9.97 -0.01 -0.01 0.09 14023
0.26 0.13 0.81 -0.86 9.97 -0.01 -0.01 0.09 14029
0.22 0.13 0.83 -0.87 9.96 -0.00 -0.02 0.09 14036
0.22 0.10 0.81 -0.82 9.94 -0.01 -0.01 0.10 14043
0.21 0.11 0.85 -0.84 9.92 -0.01 -0.01 0.10 14049
0.21 0.09 0.86 -0.85 9.93 -0.01 -0.01 0.10 14055
0.22 0.08 0.82 -0.84 9.99 -0.00 -0.01 0.09 14061
0.21 0.08 0.82 -0.83 9.96 -0.00 -0.01 0.09 14068
0.18 0.09 0.81 -0.90 9.99 -0.00 -0.01 0.10 14074
0.18 0.10 0.85 -0.85 9.96 -0.00 -0.01 0.10 14081
0.18 0.09 0.82 -0.82 9.97 0.00 -0.01 0.10 14087
0.15 0.08 0.82 -0.85 9.93 0.00 -0.01 0.10 14093
0.16 0.06 0.82 -0.82 9.94 0.01 -0.01 0.10 14099
0.16 0.06 0.87 -0.83 9.98 0.01 -0.01 0.10 14106
0.15 0.05 0.85 -0.86 9.98 0.01 -0.01 0.10 14112
0.18 0.07 0.83 -0.86 9.92 0.01 -0.00 0.10 14118
0.18 0.06 0.86 -0.82 9.93 0.01 -0.01 0.10 14125
0.17 0.06 0.84 -0.87 9.91 0.01 0.00 0.10 14131
0.17 0.05 0.88 -0.85 9.95 0.00 -0.00 0.09 14137
0.18 0.06 0.86 -0.85 9.94 0.01 0.00 0.10 14144
0.20 0.03 0.86 -0.85 9.94 0.01 0.01 0.10 14150
0.20 0.03 0.92 -0.88 9.96 0.01 0.01 0.10 14156
0.19 0.02 0.86 -0.83 9.96 0.01 0.01 0.10 14162
0.19 0.01 0.92 -0.87 9.96 0.02 0.02 0.10 14169
0.18 0.01 0.88 -0.85 9.98 0.02 0.02 0.10 14175
0.20 0.02 0.93 -0.85 9.94 0.02 0.03 0.10 14182
0.17 0.05 0.95 -0.85 9.88 0.02 0.03 0.10 14188
0.16 0.03 0.88 -0.85 9.91 0.02 0.04 0.11 14194
0.17 0.01 0.95 -0.92 9.91 0.02 0.04 0.07 14200
0.15 -0.00 0.95 -0.83 9.94 0.02 0.04 0.10 14206
0.13 0.01 0.94 -0.82 9.92 0.02 0.05 0.09 14214
0.15 0.00 1.00 -0.89 9.92 0.02 0.05 0.09 14220
0.15 -0.00 1.10 -1.01 10.02 0.03 0.05 0.09 14226
0.16 -0.01 0.97 -0.88 9.98 0.03 0.06 0.08 14232
0.17 -0.00 0.96 -0.93 9.96 0.03 0.06 0.08 14238
0.16 -0.01 1.02 -0.90 9.90 0.03 0.06 0.07 14244
0.15 -0.01 1.06 -0.91 9.93 0.04 0.07 0.07 14252
0.13 0.01 0.97 -0.91 9.89 0.04 0.07 0.07 14258
0.12 -0.01 0.89 -0.91 9.96 0.04 0.08 0.06 14264
0.14 -0.00 0.96 -0.96 9.97 0.05 0.08 0.04 14270
0.15 0.00 1.04 -0.95 9.91 0.05 0.09 0.06 14276
0.15 -0.01 1.06 -0.88 9.95 0.06 0.09 0.05 14282
0.13 -0.01 0.86 -0.84 10.01 0.07 0.09 0.04 14289
0.13 0.01 1.07 -0.97 9.87 0.08 0.10 0.05 14296
0.15 -0.01 0.96 -0.93 9.97 0.09 0.10 0.04 14302
0.15 -0.01 1.09 -0.99 9.89 0.09 0.09 0.04 14308
0.15 -0.01 1.08 -0.95 9.91 0.09 0.08 0.04 14314
0.15 -0.02 0.78 -1.03 9.77 0.09 0.07 0.03 14320
0.14 -0.01 1.03 -0.97 9.86 0.08 0.06 0.04 14326
0.15 -0.01 1.10 -1.03 9.83 0.06 0.04 0.04 14333
0.15 0.00 1.12 -1.00 9.87 0.05 0.03 0.04 14340
0.13 -0.00 1.15 -1.00 9.88 0.04 0.02 0.04 14346
0.12 -0.01 1.12 -0.99 9.91 0.04 0.02 0.03 14352
0.11 -0.00 1.15 -0.97 9.93 0.05 0.02 0.02 14358
0.14 0.00 1.12 -0.93 10.06 0.05 0.03 0.03 14364
0.13 -0.01 1.07 -1.02 9.99 0.06 0.03 0.02 14371
0.14 -0.01 1.12 -1.09 9.93 0.08 0.04 0.02 14377
0.15 -0.01 1.07 -1.05 9.89 0.09 0.05 0.02 14384
0.14 -0.01 1.14 -1.03 9.95 0.10 0.05 0.02 14390
0.16 -0.01 1.13 -1.03 9.98 0.12 0.05 0.02 14396
0.15 -0.01 1.14 -1.05 9.96 0.13 0.06 0.02 14402
0.14 -0.01 1.23 -1.09 9.83 0.14 0.07 0.02 14409
0.14 -0.00 1.13 -1.10 9.90 0.14 0.07 0.02 14415
0.15 -0.01 1.13 -1.08 9.90 0.14 0.07 0.02 14422
0.16 -0.02 1.21 -1.10 9.85 0.15 0.06 0.02 14428
0.15 -0.01 1.16 -1.14 9.85 0.14 0.06 0.02 14434
0.16 -0.00 1.77 -1.16 9.71 0.13 0.05 0.01 14440
0.15 -0.01 1.19 -1.13 9.84 0.13 0.04 0.01 14447
0.13 -0.01 1.24 -1.21 9.91 0.13 0.04 0.01 14453
0.15 0.01 1.26 -1.21 9.89 0.13 0.02 0.01 14459
0.15 -0.00 1.26 -1.20 9.88 0.12 0.01 0.01 14466
0.19 -0.01 1.22 -1.22 9.84 0.11 -0.00 0.02 14472
0.19 0.01 1.25 -1.21 9.79 0.09 -0.02 0.02 14479
0.20 -0.01 1.23 -1.21 9.81 0.08 -0.03 0.01 14485
0.19 -0.02 1.28 -1.25 9.86 0.07 -0.05 0.01 14491
0.19 -0.00 1.21 -1.26 9.85 0.06 -0.05 0.01 14497
0.20 -0.01 1.19 -1.27 9.92 0.06 -0.04 0.01 14503
0.26 -0.03 1.23 -1.26 9.99 0.08 -0.03 0.01 14510
0.25 -0.02 1.21 -1.29 9.97 0.10 -0.02 0.01 14517
0.24 -0.01 1.19 -1.25 10.01 0.14 -0.01 0.02 14523
0.27 -0.02 1.17 -1.28 10.08 0.18 0.01 0.02 14529
0.28 -0.00 1.21 -1.35 9.95 0.22 0.03 0.02 14535
0.34 -0.02 1.20 -1.33 9.99 0.25 0.04 0.02 14541
0.35 -0.02 1.26 -1.35 10.01 0.29 0.04 0.02 14548
0.35 -0.02 1.28 -1.41 9.89 0.30 0.04 0.02 14555
0.39 -0.02 1.31 -1.43 9.84 0.30 0.04 0.01 14561
0.39 -0.02 1.32 -1.46 9.82 0.29 0.03 0.00 14567
0.41 -0.02 1.32 -1.47 9.81 0.27 0.01 0.00 14573
0.37 -0.02 1.25 -1.51 9.87 0.25 0.00 -0.00 14580
0.41 -0.03 1.37 -1.52 9.83 0.25 -0.00 -0.01 14586
0.44 -0.02 1.33 -1.53 9.91 0.24 -0.00 -0.01 14593
0.42 -0.03 1.38 -1.59 9.89 0.24 -0.00 -0.02 14599
0.41 -0.02 1.27 -1.59 9.92 0.24 0.00 -0.02 14605
0.46 -0.02 1.32 -1.62 9.90 0.25 0.00 -0.02 14612
0.46 -0.03 1.37 -1.62 10.00 0.25 0.00 -0.02 14618
0.47 -0.02 1.37 -1.67 10.06 0.27 0.01 -0.02 14624
0.49 -0.03 1.37 -1.68 10.02 0.29 0.02 -0.02 14630
0.49 -0.03 1.40 -1.73 10.10 0.32 0.03 -0.03 14638
0.51 -0.01 1.40 -1.74 10.08 0.34 0.03 -0.05 14644
0.52 -0.03 1.46 -1.78 10.15 0.37 0.03 -0.05 14650
0.51 -0.03 1.40 -1.73 10.04 0.40 0.03 -0.07 14656
0.53 -0.03 1.51 -1.84 10.32 0.40 0.04 -0.08 14663
0.52 -0.04 1.43 -1.90 9.90 0.42 0.03 -0.08 14669
0.53 -0.02 1.36 -1.88 9.85 0.41 0.02 -0.08 14675
0.58 -0.03 1.29 -1.94 9.71 0.39 0.01 -0.08 14682
0.57 -0.03 1.31 -1.97 9.63 0.36 0.00 -0.07 14688
0.55 -0.02 1.34 -1.97 9.63 0.32 -0.00 -0.06 14695
0.55 -0.03 1.29 -2.00 9.55 0.28 -0.01 -0.05 14701
0.55 -0.04 1.35 -2.04 9.47 0.23 -0.01 -0.04 14707
0.52 -0.02 1.39 -2.05 9.59 0.20 -0.01 -0.04 14713
0.51 -0.03 1.33 -2.06 9.59 0.16 -0.02 -0.04 14720
0.49 -0.03 1.43 -2.07 9.68 0.13 -0.02 -0.04 14727
0.47 -0.02 1.46 -2.10 9.68 0.11 -0.03 -0.04 14733
0.46 -0.03 1.44 -2.09 9.79 0.08 -0.04 -0.04 14739
0.41 -0.03 1.42 -2.10 9.78 0.07 -0.05 -0.05 14745
0.39 -0.02 1.32 -2.12 9.68 0.05 -0.05 -0.05 14751
0.36 -0.03 1.43 -2.09 9.55 0.03 -0.05 -0.05 14758
0.35 -0.02 1.32 -2.09 9.43 -0.01 -0.04 -0.05 14765
0.33 -0.02 1.34 -2.10 9.42 -0.05 -0.02 -0.04 14771
0.33 -0.03 1.24 -2.10 9.51 -0.08 0.00 -0.03 14777
0.28 -0.02 1.19 -2.10 9.63 -0.11 0.02 -0.01 14783
0.25 -0.02 1.12 -2.09 9.75 -0.12 0.02 0.01 14789
0.24 -0.02 1.35 -2.10 9.67 -0.13 0.01 0.03 14796
0.25 -0.02 1.35 -2.11 9.85 -0.13 -0.02 0.03 14802
0.27 -0.02 1.38 -2.08 10.14 -0.10 -0.04 0.03 14809
0.28 -0.03 1.40 -2.06 10.26 -0.07 -0.04 0.04 14815
0.27 -0.02 1.34 -2.06 10.43 -0.01 -0.04 0.04 14822
0.24 -0.02 1.38 -2.07 10.22 0.05 -0.06 0.04 14828
0.23 -0.02 1.43 -2.07 10.19 0.09 -0.07 0.04 14834
0.23 -0.01 1.51 -2.12 10.23 0.13 -0.09 0.03 14840
0.21 -0.02 1.55 -2.13 10.32 0.17 -0.11 0.01 14846
0.18 -0.01 1.62 -2.08 10.24 0.21 -0.13 -0.01 14854
0.18 -0.02 1.58 -2.15 10.04 0.24 -0.14 -0.03 14860
0.15 -0.01 1.57 -2.14 9.96 0.28 -0.14 -0.05 14866
0.15 -0.01 1.50 -2.16 9.96 0.30 -0.13 -0.07 14872
0.16 -0.02 1.41 -2.18 9.23 0.32 -0.12 -0.08 14879
0.16 -0.02 1.29 -2.23 9.67 0.32 -0.10 -0.08 14885
0.17 -0.01 1.09 -2.22 9.27 0.30 -0.06 -0.06 14892
0.15 -0.02 0.91 -2.20 8.84 0.24 -0.03 -0.04 14898
0.15 -0.02 0.84 -2.26 8.28 0.13 0.01 0.00 14904
0.16 -0.02 0.93 -2.41 8.18 0.01 0.02 0.04 14910
0.15 -0.01 1.03 -2.35 8.42 -0.15 0.01 0.07 14916
0.13 -0.01 1.22 -2.32 8.54 -0.30 0.00 0.10 14923
0.11 -0.01 1.34 -2.26 8.68 -0.43 0.00 0.11 14929
0.12 -0.00 1.48 -2.18 9.15 -0.53 -0.01 0.10 14936
0.16 -0.02 1.50 -2.16 9.45 -0.59 -0.04 0.10 14942
0.15 -0.01 1.64 -2.05 9.74 -0.62 -0.06 0.08 14948
0.16 -0.01 1.62 -2.01 10.05 -0.61 -0.07 0.06 14954
0.14 -0.01 1.62 -1.99 10.45 -0.57 -0.09 0.04 14961
0.13 -0.01 1.54 -1.92 10.75 -0.49 -0.10 0.01 14967
0.14 -0.01 1.54 -1.88 10.88 -0.40 -0.11 -0.01 14973
0.14 -0.01 1.44 -1.83 10.95 -0.27 -0.10 -0.03 14980
0.14 -0.01 1.42 -1.83 11.00 -0.13 -0.08 -0.04 14987
0.16 -0.02 1.33 -1.87 10.94 0.00 -0.07 -0.05 14993
0.14 -0.01 1.29 -1.87 10.69 0.12 -0.00 -0.05 14999
0.13 -0.01 1.33 -1.90 10.61 0.23 0.00 -0.04 15005
0.14 -0.01 1.24 -1.93 10.68 0.32 0.03 -0.04 15011
0.12 -0.01 1.25 -1.99 10.56 0.39 0.06 -0.00 15019
0.12 -0.01 1.29 -2.03 10.38 0.45 0.09 -0.03 15025
0.12 -0.01 1.30 -2.02 10.24 0.49 0.12 -0.02 15031
0.12 -0.01 1.32 -2.09 10.06 0.51 0.15 -0.02 15037
0.11 -0.00 1.40 -2.18 9.93 0.51 0.17 -0.02 15043
0.10 -0.01 1.32 -2.18 9.66 0.48 0.18 -0.01 15050
0.10 -0.01 1.40 -2.27 9.59 0.46 0.17 -0.01 15056
0.09 -0.00 1.46 -2.25 9.87 0.44 0.16 -0.01 15063
0.09 -0.01 1.42 -2.27 9.40 0.37 0.16 -0.00 15069
0.09 -0.01 1.39 -2.31 9.38 0.37 0.14 -0.00 15075
0.07 -0.01 1.45 -2.33 9.23 0.33 0.13 -0.01 15081
0.09 -0.00 1.56 -2.34 9.18 0.30 0.13 -0.01 15087
0.08 -0.01 1.51 -2.34 9.36 0.27 0.13 -0.01 15094
0.08 -0.00 1.60 -2.39 9.56 0.25 0.12 -0.02 15100
0.09 -0.00 1.55 -2.40 9.64 0.24 0.13 -0.02 15107
0.08 -0.01 1.60 -2.39 9.64 0.23 0.13 -0.03 15113
0.08 -0.00 1.68 -2.42 9.69 0.23 0.12 -0.04 15119
0.09 0.00 1.66 -2.43 9.71 0.23 0.13 -0.05 15126
0.08 -0.01 1.60 -2.47 9.76 0.24 0.12 -0.06 15132
0.07 -0.00 1.61 -2.45 9.63 0.24 0.13 -0.07 15138
0.10 -0.01 1.60 -2.48 9.61 0.24 0.13 -0.07 15144
0.07 -0.00 1.53 -2.57 9.70 0.24 0.14 -0.07 15151
0.09 -0.00 1.52 -2.59 9.65 0.23 0.14 -0.07 15158
0.08 -0.01 1.54 -2.61 9.59 0.22 0.15 -0.06 15164
0.06 -0.00 1.45 -2.63 9.64 0.21 0.17 -0.06 15170
0.07 -0.00 1.49 -2.65 9.46 0.20 0.19 -0.04 15176
0.10 0.00 1.60 -2.90 8.22 0.19 0.20 -0.03 15182
0.09 -0.01 1.24 -2.62 10.21 0.20 0.21 -0.00 15188
0.07 -0.00 1.81 -2.67 9.95 0.20 0.25 -0.00 15196
0.10 -0.01 1.62 -2.71 9.75 0.21 0.28 0.00 15202
0.08 -0.01 1.71 -2.72 9.75 0.23 0.28 0.00 15208
0.07 -0.00 1.80 -2.77 9.97 0.24 0.29 0.01 15214
0.11 -0.00 1.87 -2.72 9.93 0.26 0.30 0.00 15220
0.11 -0.01 1.94 -2.75 9.96 0.28 0.31 -0.01 15227
0.10 -0.00 1.93 -2.78 9.91 0.31 0.32 -0.02 15234
0.11 -0.00 2.01 -2.78 9.94 0.33 0.33 -0.03 15240
0.07 -0.01 2.01 -2.81 9.96 0.35 0.35 -0.03 15246
0.07 -0.01 2.12 -2.81 9.96 0.37 0.38 -0.04 15252
0.10 -0.00 2.10 -2.87 10.10 0.39 0.39 -0.05 15258
0.08 -0.01 2.10 -2.85 10.10 0.42 0.43 -0.06 15265
0.09 -0.01 2.15 -2.96 10.15 0.44 0.44 -0.07 15271
0.11 -0.01 2.18 -2.95 10.14 0.46 0.47 -0.08 15278
0.09 -0.01 2.08 -3.05 10.04 0.48 0.50 -0.08 15284
0.07 -0.01 2.14 -3.14 9.92 0.49 0.53 -0.08 15290
0.09 -0.00 2.08 -3.17 9.92 0.49 0.57 -0.07 15297
0.09 -0.01 2.05 -3.40 9.71 0.49 0.61 -0.05 15303
0.08 -0.01 1.87 -3.33 9.79 0.49 0.64 -0.02 15309
0.09 0.00 1.76 -3.40 9.76 0.49 0.68 0.01 15315
0.08 -0.00 1.76 -3.56 9.82 0.49 0.71 0.04 15322
0.06 -0.01 1.88 -3.51 9.86 0.49 0.76 0.09 15328
0.09 0.01 1.85 -3.61 9.22 0.49 0.80 0.13 15335
0.07 -0.00 2.11 -3.80 9.82 0.49 0.83 0.17 15341
0.06 -0.01 1.73 -3.71 10.11 0.47 0.87 0.22 15347
0.07 0.00 1.84 -3.96 10.19 0.46 0.91 0.25 15353
0.07 -0.01 1.91 -3.83 10.26 0.45 0.95 0.30 15360
0.07 -0.00 2.01 -3.88 10.08 0.44 0.98 0.34 15367
0.09 0.00 2.09 -3.86 9.89 0.43 1.01 0.38 15373
0.08 -0.01 2.24 -3.80 9.97 0.44 1.04 0.41 15379
0.07 -0.00 2.45 -3.89 9.94 0.46 1.06 0.43 15385
0.08 -0.00 2.73 -3.79 9.95 0.48 1.09 0.44 15391
0.08 -0.01 2.90 -3.76 10.06 0.50 1.13 0.43 15398
0.07 -0.00 3.03 -3.86 10.31 0.52 1.21 0.41 15405
0.08 -0.00 3.15 -3.98 10.55 0.52 1.29 0.39 15411
0.08 -0.01 3.17 -4.20 10.87 0.53 1.37 0.35 15417
0.08 0.01 3.17 -4.25 10.46 0.53 1.46 0.31 15424
0.09 -0.00 3.11 -4.48 10.02 0.52 1.53 0.28 15430
0.10 0.00 2.44 -5.25 9.60 0.53 1.58 0.22 15436
0.10 -0.00 1.43 -6.18 9.30 0.58 1.61 0.12 15442
0.07 -0.01 0.53 -6.70 9.29 0.64 1.56 -0.03 15449
0.07 -0.01 -0.45 -7.21 9.55 0.70 1.40 -0.21 15455
0.07 -0.01 -0.61 -7.19 9.83 0.73 1.17 -0.38 15462
0.07 -0.01 -2.11 -7.80 9.32 0.75 0.93 -0.55 15468
0.06 -0.01 -3.29 -7.66 9.43 0.72 0.66 -0.82 15474
0.07 -0.00 -3.07 -7.95 9.13 0.71 0.37 -1.10 15480
0.08 -0.01 -4.23 -7.66 9.42 0.68 0.05 -1.33 15486
0.05 -0.00 -3.23 -7.51 9.60 0.66 -0.19 -1.50 15493
0.05 -0.01 -3.52 -7.36 9.87 0.61 -0.50 -1.67 15500
0.05 -0.01 -2.73 -6.69 9.51 0.58 -0.76 -1.82 15506
0.05 -0.01 -3.67 -6.71 9.70 0.54 -1.01 -1.95 15512
0.05 -0.00 -2.42 -6.51 10.21 0.56 -1.17 -2.11 15518
0.05 -0.00 -2.10 -6.52 9.92 0.53 -1.32 -2.22 15524
0.04 -0.00 -3.66 -4.52 10.12 0.52 -1.48 -2.31 15532
0.05 0.00 -2.46 -5.27 10.07 0.49 -1.52 -2.35 15538
0.05 -0.01 -2.35 -4.56 9.62 0.47 -1.61 -2.37 15544
0.05 -0.00 -0.48 -4.38 9.34 0.45 -1.72 -2.34 15550
0.05 -0.00 -1.10 -3.69 9.42 0.43 -1.87 -2.27 15556
0.05 -0.01 -0.43 -3.41 6.99 0.41 -2.03 -2.16 15563
0.04 -0.00 0.12 -2.67 7.01 0.39 -2.15 -2.05 15569
