Voltage_01 Voltage_02 Acc_x Acc_y Acc_z Gyro_x Gyro_y Gyro_z Time
5000
0.00 0.00 1.78 2.81 9.04 -0.66 -0.08 -0.02 17
0.00 0.00 1.80 2.49 8.98 -0.73 -0.06 -0.02 23
0.00 0.00 1.74 2.09 8.65 -0.77 -0.06 -0.02 29
0.00 0.00 1.70 1.66 8.61 -0.80 -0.04 -0.02 35
-0.00 0.00 1.69 1.17 8.70 -0.81 -0.01 -0.02 41
0.01 -0.00 1.72 0.75 8.75 -0.81 0.06 -0.02 48
0.00 0.00 1.71 0.34 8.73 -0.80 0.07 -0.03 54
0.00 0.00 1.59 -0.12 8.72 -0.77 0.13 -0.03 60
0.00 0.00 1.38 -0.50 8.70 -0.74 0.20 -0.04 66
0.00 0.00 1.20 -0.69 8.81 -0.69 0.21 -0.05 72
0.00 0.00 0.96 -0.93 8.91 -0.64 0.24 -0.05 78
0.00 0.00 0.81 -1.06 9.09 -0.60 0.30 -0.05 84
0.01 -0.00 0.62 -1.07 9.49 -0.56 0.28 -0.05 91
0.00 0.00 0.63 -0.91 9.83 -0.55 0.31 -0.05 97
0.00 0.00 0.73 -0.81 10.14 -0.57 0.33 -0.05 103
0.00 0.00 0.69 -0.85 10.48 -0.63 0.37 -0.06 110
0.00 0.00 0.64 -1.02 10.72 -0.70 0.41 -0.06 117
0.00 0.00 0.48 -1.25 10.85 -0.80 0.42 -0.06 124
0.00 -0.00 0.29 -1.56 10.65 -0.88 0.40 -0.05 132
0.00 0.00 0.16 -1.83 10.22 -0.93 0.35 -0.04 139
0.00 0.00 0.19 -1.88 9.94 -0.95 0.30 -0.04 146
0.00 0.00 0.30 -1.89 9.85 -0.95 0.26 -0.04 152
0.00 0.00 0.40 -1.88 9.83 -0.94 0.24 -0.04 158
0.00 0.00 0.52 -1.92 9.82 -0.94 0.22 -0.05 164
0.00 0.00 0.56 -2.12 9.82 -0.94 0.21 -0.07 171
0.00 0.00 0.49 -2.47 9.77 -0.94 0.20 -0.09 177
0.00 0.00 0.44 -2.67 9.82 -0.93 0.19 -0.10 183
0.00 0.00 0.34 -3.20 9.82 -0.92 0.17 -0.13 189
0.00 0.00 0.27 -3.57 9.83 -0.90 0.16 -0.14 195
0.00 0.00 0.19 -3.88 9.89 -0.86 0.14 -0.16 201
0.00 0.00 0.18 -4.13 10.04 -0.83 0.13 -0.16 207
0.00 0.00 0.24 -4.36 10.08 -0.81 0.14 -0.14 215
0.00 0.00 0.22 -4.46 10.03 -0.80 0.15 -0.11 222
0.00 0.00 0.21 -4.54 9.95 -0.79 0.16 -0.06 229
0.00 0.00 0.25 -4.66 9.74 -0.77 0.16 -0.02 235
0.00 0.00 0.18 -4.85 9.64 -0.75 0.15 0.04 241
0.00 0.00 0.24 -4.95 9.50 -0.68 0.13 0.09 247
0.00 0.00 0.37 -4.98 9.53 -0.66 0.12 0.14 253
0.02 -0.00 0.51 -5.04 9.68 -0.61 0.12 0.18 260
0.00 0.00 0.48 -5.27 9.81 -0.57 0.15 0.23 267
0.01 -0.00 0.80 -5.12 8.90 -0.53 0.17 0.26 273
0.00 0.00 0.45 -4.60 10.58 -0.52 0.20 0.29 280
0.00 0.00 -0.55 -5.08 10.44 -0.49 0.20 0.29 287
0.00 0.00 -0.33 -4.78 11.69 -0.45 0.17 0.29 294
0.00 0.00 -0.15 -4.21 8.14 -0.40 0.14 0.27 302
0.00 0.00 0.20 -5.75 11.49 -0.41 0.08 0.24 308
0.00 0.00 -1.73 -5.48 9.80 -0.39 -0.02 0.22 315
0.00 0.00 -1.02 -4.23 8.77 -0.38 -0.07 0.19 321
0.00 0.00 -1.73 -6.41 9.36 -0.36 -0.13 0.14 327
0.00 0.00 -1.18 -5.41 8.60 -0.31 -0.23 0.09 334
0.01 -0.00 -1.82 -6.45 11.45 -0.29 -0.30 0.02 340
0.00 0.00 -2.13 -6.94 9.80 -0.24 -0.28 -0.03 348
0.00 0.00 -0.81 -4.87 10.26 -0.21 -0.25 -0.04 354
0.00 0.00 -2.32 -8.94 10.50 -0.16 -0.14 -0.06 361
0.00 0.00 -0.83 -6.89 8.03 -0.13 -0.08 -0.07 368
0.02 -0.00 0.39 -3.42 10.55 -0.15 -0.05 -0.08 374
0.00 0.00 1.32 -3.42 7.71 -0.19 -0.01 -0.08 381
0.00 0.00 0.00 -4.02 9.32 -0.25 0.04 -0.05 388
0.00 0.00 0.37 -5.00 9.61 -0.28 0.05 -0.03 394
0.00 -0.00 0.48 -2.24 11.07 -0.28 0.01 0.01 400
0.00 0.00 -0.01 -2.97 9.32 -0.24 0.00 0.03 407
0.00 0.00 0.12 -1.67 9.08 -0.25 -0.01 0.06 413
0.01 -0.00 0.53 -2.48 7.47 -0.28 -0.00 0.07 419
0.00 0.00 0.85 -1.44 8.49 -0.31 0.00 0.09 427
0.00 0.00 1.16 -1.62 9.39 -0.33 0.06 0.09 433
0.00 0.00 0.98 -0.45 9.87 -0.32 0.10 0.07 439
0.00 0.00 0.86 -1.60 9.88 -0.31 0.19 0.06 445
0.00 0.00 0.68 -2.00 9.86 -0.34 0.23 0.03 451
0.00 0.00 0.54 -0.18 10.03 -0.35 0.23 -0.01 457
0.00 0.00 1.27 -0.56 9.72 -0.41 0.30 -0.05 464
0.00 0.00 1.37 0.22 9.24 -0.44 0.37 -0.09 471
0.00 0.00 1.10 -0.27 9.57 -0.52 0.42 -0.11 477
0.00 0.00 0.74 -0.20 9.58 -0.59 0.45 -0.12 483
0.00 0.00 0.49 -0.76 10.32 -0.64 0.45 -0.13 489
0.00 0.00 0.28 -1.00 10.34 -0.64 0.38 -0.14 496
0.00 0.00 0.26 -1.12 10.06 -0.59 0.30 -0.17 503
0.00 0.00 0.43 -0.86 9.79 -0.54 0.24 -0.20 510
0.00 0.00 0.61 -0.48 9.32 -0.50 0.23 -0.22 517
0.00 0.00 0.95 -0.22 9.29 -0.48 0.25 -0.24 523
0.00 0.00 0.94 -0.07 9.47 -0.45 0.27 -0.26 529
0.00 0.00 0.86 0.05 9.44 -0.43 0.30 -0.27 535
0.01 0.00 0.71 0.11 9.56 -0.40 0.34 -0.26 541
0.00 -0.00 0.61 0.11 9.66 -0.39 0.35 -0.26 548
0.00 0.00 0.52 -0.12 9.85 -0.38 0.33 -0.25 556
0.00 0.00 0.59 -0.34 9.97 -0.39 0.31 -0.24 562
0.00 0.00 0.64 -0.50 10.17 -0.40 0.31 -0.24 568
0.00 0.00 0.82 -0.54 10.04 -0.42 0.30 -0.24 575
0.00 0.00 0.88 -0.50 9.87 -0.44 0.31 -0.23 582
0.00 0.00 0.94 -0.47 10.02 -0.46 0.32 -0.22 588
0.00 0.00 0.77 -1.02 10.57 -0.48 0.30 -0.20 595
0.00 0.00 -0.31 -2.97 11.46 -0.45 0.19 -0.18 603
0.00 0.00 -1.20 -2.52 9.88 -0.34 -0.01 -0.17 610
0.00 0.00 -0.85 -2.86 8.75 -0.24 -0.12 -0.16 616
0.00 0.00 -0.67 -2.29 7.36 -0.20 -0.18 -0.16 622
0.00 0.00 -0.11 -3.00 9.84 -0.11 -0.26 -0.17 628
0.00 0.00 -1.18 -4.90 8.23 -0.03 -0.27 -0.19 634
0.00 0.00 -1.93 -6.39 8.03 0.10 -0.23 -0.19 641
0.00 0.00 -0.82 -5.80 6.07 0.24 -0.17 -0.18 647
0.00 0.00 -2.44 -9.66 7.83 0.38 -0.22 -0.17 653
0.00 0.00 -2.75 -12.08 7.21 0.52 -0.42 -0.20 659
-0.00 0.02 -7.26 -20.35 12.88 0.23 -1.18 -0.32 667
0.00 0.02 -3.56 -21.07 9.45 0.03 -0.97 -0.32 673
-0.00 0.03 -1.63 -7.84 10.49 -0.10 -0.23 -0.04 680
-0.00 0.02 0.44 -3.68 9.23 -0.24 -0.01 0.02 688
0.00 0.04 0.05 -1.35 9.42 -0.29 -0.00 0.07 695
0.01 0.08 0.29 -0.53 10.06 -0.24 -0.01 0.07 702
-0.00 0.16 0.71 -0.28 9.99 -0.21 -0.03 0.00 709
0.01 0.15 0.64 -0.71 10.06 -0.19 -0.03 -0.05 716
0.00 0.17 0.39 -0.81 10.30 -0.15 -0.01 -0.06 723
0.00 0.20 0.02 -0.77 10.23 -0.11 0.02 -0.06 731
-0.01 0.26 0.15 -0.82 10.04 -0.08 0.04 -0.06 738
0.00 0.24 0.29 -0.90 9.92 -0.07 0.06 -0.06 745
0.00 0.29 0.22 -0.81 9.83 -0.07 0.06 -0.06 752
0.01 0.31 0.24 -0.83 9.86 -0.06 0.07 -0.05 759
-0.00 0.35 0.26 -0.84 9.87 -0.06 0.07 -0.05 766
0.00 0.35 0.30 -0.80 10.01 -0.05 0.07 -0.04 774
-0.01 0.36 0.32 -0.82 9.88 -0.05 0.08 -0.04 781
0.01 0.37 0.31 -0.87 9.86 -0.04 0.07 -0.05 788
0.00 0.39 0.33 -0.86 9.85 -0.03 0.07 -0.06 795
0.01 0.38 0.39 -0.84 9.83 -0.02 0.07 -0.05 802
0.02 0.38 0.42 -0.80 9.90 -0.02 0.06 -0.06 809
0.01 0.37 0.40 -0.88 9.82 -0.01 0.06 -0.07 817
0.00 0.38 0.37 -0.84 9.81 -0.01 0.06 -0.07 824
0.01 0.41 0.30 -0.82 9.81 -0.01 0.06 -0.07 831
0.02 0.40 0.31 -0.82 9.82 -0.02 0.06 -0.07 838
0.02 0.39 0.26 -0.82 9.81 -0.01 0.06 -0.07 845
0.03 0.41 0.31 -0.83 9.84 -0.01 0.06 -0.07 852
0.02 0.40 0.33 -0.82 9.82 -0.01 0.07 -0.07 860
0.02 0.39 0.31 -0.84 9.80 -0.00 0.07 -0.07 867
0.03 0.39 0.36 -0.81 9.83 0.00 0.07 -0.07 874
0.04 0.39 0.35 -0.82 9.81 0.00 0.07 -0.07 881
0.04 0.38 0.36 -0.88 9.82 0.00 0.07 -0.07 888
0.04 0.37 0.35 -0.85 9.81 0.00 0.07 -0.08 896
0.03 0.38 0.35 -0.85 9.80 0.00 0.06 -0.08 903
0.06 0.37 0.36 -0.84 9.80 0.01 0.07 -0.08 910
0.07 0.37 0.38 -0.85 9.82 0.01 0.07 -0.08 917
0.09 0.35 0.36 -0.86 9.81 0.01 0.07 -0.08 924
0.07 0.34 0.35 -0.87 9.80 0.01 0.07 -0.08 931
0.08 0.31 0.37 -0.87 9.82 0.01 0.07 -0.08 939
0.06 0.32 0.36 -0.86 9.78 0.01 0.07 -0.08 946
0.08 0.30 0.32 -0.82 9.82 0.01 0.06 -0.08 953
0.08 0.32 0.35 -0.86 9.80 0.01 0.07 -0.08 960
0.09 0.31 0.38 -0.85 9.82 0.01 0.07 -0.08 967
0.10 0.27 0.38 -0.86 9.81 0.01 0.07 -0.08 974
0.11 0.18 0.35 -0.85 9.79 0.01 0.06 -0.08 982
0.12 0.22 0.39 -0.88 9.80 0.01 0.06 -0.08 989
0.14 0.24 0.37 -0.89 9.77 0.00 0.06 -0.08 996
0.13 0.24 0.34 -0.89 9.80 0.00 0.07 -0.08 1003
0.15 0.22 0.35 -0.89 9.81 0.00 0.07 -0.08 1010
0.14 0.23 0.40 -0.88 9.79 0.00 0.07 -0.07 1017
0.15 0.21 0.37 -0.86 9.77 0.00 0.06 -0.08 1025
0.16 0.22 0.40 -0.87 9.80 0.00 0.06 -0.08 1032
0.14 0.23 0.41 -0.85 9.81 0.00 0.06 -0.07 1039
0.16 0.23 0.38 -0.88 9.82 0.00 0.06 -0.08 1046
0.18 0.22 0.41 -0.86 10.38 0.00 0.06 -0.08 1053
0.18 0.22 0.37 -0.88 9.82 0.00 0.06 -0.08 1060
0.19 0.17 0.39 -0.87 9.79 0.01 0.06 -0.08 1068
0.18 0.19 0.39 -0.89 9.82 0.01 0.06 -0.08 1075
0.20 0.16 0.42 -0.88 9.82 0.01 0.06 -0.08 1082
0.23 0.15 0.40 -0.89 10.42 0.01 0.06 -0.08 1089
0.23 0.16 0.41 -0.88 9.79 0.01 0.06 -0.08 1096
0.23 0.11 0.38 -0.88 9.77 0.01 0.06 -0.08 1103
0.21 0.13 0.40 -0.88 9.80 0.01 0.05 -0.08 1111
0.22 0.14 0.42 -0.91 9.79 0.01 0.05 -0.08 1118
0.22 0.12 0.45 -0.89 9.81 0.01 0.05 -0.08 1125
0.23 0.11 0.43 -0.88 9.80 0.01 0.05 -0.08 1132
0.20 0.12 0.40 -0.91 9.79 0.01 0.05 -0.09 1139
0.19 0.09 0.40 -0.89 9.81 0.01 0.04 -0.08 1146
0.17 0.09 0.41 -0.90 9.81 0.01 0.04 -0.08 1154
0.18 0.07 0.43 -0.91 9.80 0.01 0.04 -0.08 1161
0.19 0.07 0.41 -0.89 9.77 0.01 0.03 -0.09 1168
0.20 0.06 0.43 -0.94 9.81 0.01 0.02 -0.09 1175
0.20 0.03 0.44 -0.91 9.81 0.01 0.02 -0.09 1182
0.20 0.01 0.42 -0.91 9.82 0.01 0.01 -0.09 1189
0.18 0.03 0.38 -0.91 9.82 0.01 0.01 -0.09 1197
0.21 0.01 0.38 -0.92 9.81 0.01 0.01 -0.08 1204
0.25 0.03 0.40 -0.91 9.82 0.01 0.01 -0.09 1211
0.27 0.01 0.40 -0.88 9.81 0.01 0.01 -0.09 1218
0.27 -0.01 0.43 -0.91 9.82 0.02 0.01 -0.09 1225
0.28 0.00 0.39 -0.94 9.81 0.02 0.02 -0.10 1232
0.29 0.00 0.41 -0.91 9.81 0.02 0.02 -0.09 1240
0.32 0.02 0.42 -0.93 9.80 0.02 0.02 -0.09 1247
0.34 -0.00 0.35 -0.91 9.81 0.02 0.02 -0.09 1254
0.37 -0.01 0.41 -0.94 9.83 0.03 0.03 -0.09 1261
0.39 -0.01 0.40 -0.95 9.83 0.04 0.03 -0.09 1268
0.42 -0.02 0.40 -0.90 9.83 0.04 0.05 -0.10 1275
0.43 -0.02 0.38 -0.94 9.84 0.06 0.05 -0.10 1283
0.47 -0.01 0.38 -0.94 9.84 0.08 0.06 -0.10 1290
0.49 -0.02 0.39 -0.97 9.84 0.10 0.08 -0.10 1297
0.53 -0.02 0.38 -0.93 9.89 0.12 0.10 -0.10 1304
0.56 -0.04 0.39 -0.98 9.93 0.16 0.12 -0.10 1311
0.59 -0.02 0.44 -1.03 9.98 0.23 0.14 -0.10 1318
0.59 -0.03 0.45 -0.96 10.09 0.26 0.18 -0.10 1326
0.58 -0.02 0.50 -1.02 10.29 0.35 0.22 -0.11 1333
0.59 -0.04 0.48 -1.14 10.38 0.47 0.29 -0.12 1341
0.62 -0.02 0.51 -1.12 10.73 0.66 0.33 -0.12 1348
0.63 -0.03 0.68 -1.16 10.94 0.86 0.33 -0.12 1355
0.63 -0.02 0.53 -1.26 11.30 1.01 0.29 -0.12 1362
0.64 -0.03 0.65 -1.27 11.26 1.13 0.24 -0.12 1370
0.66 -0.02 0.63 -1.53 11.21 1.20 0.20 -0.13 1377
0.66 -0.03 0.74 -1.48 10.96 1.26 0.15 -0.14 1384
0.67 -0.03 0.71 -1.58 10.91 1.30 0.06 -0.16 1391
0.66 -0.03 0.18 -1.70 10.82 1.35 -0.00 -0.16 1397
0.64 -0.03 0.46 -1.78 11.10 1.42 -0.01 -0.16 1405
0.60 -0.03 0.57 -1.76 11.18 1.47 -0.03 -0.15 1413
0.59 -0.03 0.44 -2.00 10.80 1.56 -0.07 -0.14 1419
0.53 -0.02 0.74 -2.13 10.00 1.62 -0.13 -0.14 1427
0.49 -0.02 0.32 -2.15 10.53 1.65 -0.10 -0.13 1434
0.44 -0.02 0.33 -2.31 10.60 1.70 -0.10 -0.12 1441
0.37 -0.02 0.30 -2.47 10.47 1.80 -0.09 -0.10 1447
0.35 -0.02 0.40 -2.67 10.39 1.83 -0.07 -0.09 1455
0.33 -0.01 0.51 -2.81 10.38 1.88 -0.06 -0.09 1463
0.25 -0.02 0.51 -2.86 10.07 1.91 -0.05 -0.09 1469
0.21 -0.02 0.99 -2.81 6.75 1.90 -0.09 -0.09 1476
0.17 -0.02 0.48 -3.37 9.86 1.87 -0.08 -0.09 1483
0.17 -0.02 0.66 -3.42 9.70 1.88 -0.07 -0.12 1490
0.11 -0.00 0.44 -3.58 9.90 1.88 -0.10 -0.12 1498
0.13 -0.01 0.64 -3.79 9.66 1.87 -0.13 -0.13 1505
0.09 -0.01 0.55 -3.88 9.42 1.85 -0.14 -0.14 1512
0.08 -0.01 0.52 -4.21 9.61 1.82 -0.14 -0.15 1519
0.08 -0.01 0.50 -4.29 9.64 1.79 -0.15 -0.16 1526
0.07 -0.01 0.41 -4.49 9.59 1.75 -0.14 -0.15 1533
0.07 -0.00 0.39 -4.73 9.83 1.71 -0.12 -0.15 1541
0.07 -0.01 0.42 -4.80 9.85 1.67 -0.11 -0.15 1548
0.05 -0.01 0.35 -5.00 9.98 1.64 -0.09 -0.14 1555
0.06 -0.01 0.37 -5.36 10.14 1.61 -0.08 -0.14 1562
0.06 -0.01 0.32 -5.44 10.25 1.56 -0.05 -0.13 1569
0.06 -0.01 0.36 -5.65 10.57 1.52 -0.06 -0.13 1576
0.06 -0.01 0.46 -5.64 10.62 1.45 -0.08 -0.14 1584
0.07 -0.01 0.46 -5.51 10.43 1.38 -0.14 -0.16 1591
0.05 -0.00 0.48 -5.37 10.21 1.33 -0.21 -0.18 1598
0.02 -0.00 0.52 -5.31 10.02 1.28 -0.31 -0.20 1605
0.02 -0.00 0.55 -5.35 9.78 1.26 -0.43 -0.22 1612
0.01 -0.00 0.60 -5.24 9.41 1.26 -0.51 -0.24 1619
0.03 -0.00 0.78 -5.12 8.95 1.27 -0.57 -0.26 1627
0.02 -0.00 0.90 -5.05 7.87 1.28 -0.60 -0.29 1634
0.01 -0.00 0.91 -5.01 6.84 1.28 -0.61 -0.31 1641
0.01 -0.00 0.93 -5.04 7.04 1.29 -0.58 -0.33 1648
0.00 -0.00 0.93 -5.24 7.05 1.31 -0.53 -0.35 1655
0.01 -0.00 0.86 -5.52 7.10 1.33 -0.46 -0.37 1662
0.02 -0.00 0.75 -5.59 7.16 1.35 -0.38 -0.39 1670
0.01 -0.00 0.53 -5.76 7.12 1.38 -0.31 -0.41 1677
0.01 -0.00 0.27 -5.73 7.21 1.40 -0.25 -0.42 1684
0.00 0.00 0.07 -5.80 7.16 1.43 -0.21 -0.43 1691
0.01 -0.00 -0.19 -5.93 7.32 1.45 -0.17 -0.43 1698
0.00 -0.00 -0.41 -5.86 7.52 1.45 -0.11 -0.42 1705
0.02 -0.00 -0.55 -5.84 7.53 1.43 -0.08 -0.41 1713
0.01 -0.00 -0.63 -5.86 7.47 1.39 -0.07 -0.40 1720
0.01 -0.00 -0.70 -5.82 7.38 1.36 -0.09 -0.39 1727
0.00 0.00 -0.61 -5.92 7.13 1.32 -0.15 -0.38 1734
0.00 0.00 -0.47 -6.47 6.91 1.31 -0.21 -0.38 1741
0.00 0.00 -0.30 -6.22 6.81 1.32 -0.25 -0.38 1748
0.00 -0.00 -0.22 -6.52 6.47 1.34 -0.25 -0.39 1756
0.00 0.00 -0.47 -7.15 6.52 1.35 -0.24 -0.40 1763
0.00 0.00 -0.66 -7.31 6.31 1.37 -0.23 -0.40 1770
0.00 0.00 -0.85 -7.26 6.18 1.39 -0.25 -0.40 1777
0.00 0.00 -1.00 -7.47 6.07 1.39 -0.28 -0.40 1784
0.00 0.00 -1.20 -7.29 6.22 1.38 -0.37 -0.39 1792
0.00 0.00 -1.37 -6.68 6.11 1.34 -0.47 -0.38 1799
0.00 0.00 -1.42 -7.21 6.04 1.27 -0.57 -0.36 1806
0.00 0.00 -1.01 -6.63 6.12 1.19 -0.66 -0.35 1813
0.00 0.00 -0.73 -6.84 5.80 1.14 -0.69 -0.34 1820
0.00 0.00 -0.45 -5.70 5.98 1.06 -0.69 -0.34 1827
0.00 0.00 -0.05 -4.19 6.01 0.97 -0.62 -0.36 1835
0.00 0.00 0.74 0.92 7.40 0.76 -0.49 -0.43 1842
0.00 0.00 1.27 2.26 7.99 0.28 -0.22 -0.47 1849
0.00 0.00 1.73 2.44 10.04 -0.25 0.13 -0.61 1856
0.00 0.00 1.51 -0.23 12.05 -0.98 0.51 -0.72 1863
-0.00 0.00 1.02 -0.84 11.66 -1.57 0.93 -0.81 1870
0.00 -0.00 0.68 -0.44 9.65 -1.89 1.24 -0.86 1878
0.00 0.00 0.22 -0.03 7.74 -2.11 1.44 -0.89 1885
0.00 0.00 -0.38 -0.37 5.94 -2.19 1.46 -0.88 1892
0.00 0.00 -1.18 -0.96 5.08 -2.15 1.33 -0.83 1899
0.00 0.00 -1.85 -1.53 5.13 -2.01 1.12 -0.73 1906
0.00 0.00 -2.20 -1.94 5.64 -1.80 0.86 -0.60 1913
0.00 0.00 -2.22 -2.19 5.94 -1.53 0.51 -0.49 1921
0.00 0.00 -1.67 -2.11 6.11 -1.31 0.14 -0.37 1928
0.00 0.00 -1.13 -1.72 6.20 -1.13 -0.15 -0.29 1935
0.00 0.00 -0.36 -1.36 6.69 -1.07 -0.38 -0.20 1942
0.00 0.00 1.13 -1.23 7.40 -1.09 -0.47 -0.14 1949
0.00 0.00 1.34 -1.24 8.44 -1.18 -0.43 -0.09 1956
0.00 0.00 2.10 -1.21 9.70 -1.33 -0.21 -0.04 1964
0.00 0.00 2.73 -1.14 10.32 -1.60 0.09 0.00 1971
0.00 0.00 2.91 -1.12 10.52 -1.93 0.48 0.05 1978
0.00 0.00 2.67 -1.37 10.63 -2.22 0.81 0.11 1985
0.00 0.00 2.00 -1.86 10.57 -2.52 1.05 0.18 1992
0.00 0.00 1.37 -2.63 10.46 -2.76 1.18 0.28 1999
0.00 0.00 0.83 -3.74 10.03 -2.85 1.16 0.37 2007
0.00 0.00 0.26 -5.01 9.81 -2.85 1.01 0.48 2014
0.00 0.00 -0.03 -5.99 9.42 -2.76 0.78 0.58 2021
0.00 0.00 -0.13 -6.43 9.13 -2.58 0.57 0.68 2028
0.00 0.00 0.21 -6.56 8.71 -2.36 0.36 0.76 2035
0.00 0.00 0.80 -6.07 8.47 -2.17 0.22 0.82 2042
0.00 0.00 1.42 -5.54 8.61 -1.98 0.14 0.84 2050
0.00 0.00 1.70 -6.78 8.55 -1.83 0.19 0.85 2057
0.00 0.00 1.51 -3.50 19.91 -1.66 0.38 0.75 2064
0.00 0.00 -2.01 -9.52 6.58 -1.80 0.56 0.59 2071
-0.00 0.00 1.45 -4.29 12.50 -1.80 0.85 0.42 2078
0.00 0.00 2.25 -3.31 11.05 -1.87 0.93 0.39 2085
0.00 0.00 0.31 -5.28 11.29 -1.80 0.97 0.36 2093
0.00 0.00 -0.68 -7.89 9.64 -1.82 0.80 0.42 2100
0.00 0.00 -0.80 -5.57 14.45 -1.82 0.64 0.51 2107
0.00 0.00 0.46 -4.59 10.59 -1.75 0.46 0.64 2114
0.00 0.00 0.86 -4.31 10.86 -1.76 0.28 0.76 2121
0.01 -0.00 0.61 -3.71 10.73 -1.69 0.23 0.88 2128
0.00 0.00 1.54 -3.85 9.91 -1.67 0.23 0.95 2136
0.00 0.00 1.70 -3.75 9.92 -1.61 0.36 1.03 2143
0.00 0.00 1.14 -3.80 9.82 -1.52 0.49 1.09 2150
0.00 0.00 0.63 -3.88 10.23 -1.40 0.59 1.14 2157
0.00 0.00 0.21 -3.87 10.94 -1.30 0.63 1.17 2164
0.00 0.00 -0.04 -3.58 11.42 -1.25 0.61 1.18 2171
0.00 0.00 -0.40 -3.32 11.63 -1.25 0.57 1.20 2179
0.00 0.00 -0.50 -3.28 11.97 -1.27 0.52 1.20 2186
0.00 0.00 -0.51 -3.42 12.11 -1.33 0.50 1.18 2193
0.00 0.00 -0.57 -3.95 11.79 -1.38 0.52 1.13 2200
0.00 -0.00 -0.65 -4.77 11.12 -1.41 0.53 1.03 2207
0.00 0.00 -0.73 -5.34 10.58 -1.39 0.53 0.91 2214
0.00 0.00 -0.79 -5.72 10.08 -1.31 0.52 0.74 2222
0.00 0.00 -0.86 -5.85 9.82 -1.18 0.49 0.54 2229
0.00 0.00 -0.83 -5.56 9.81 -1.02 0.43 0.37 2236
0.00 0.00 -0.73 -5.11 9.58 -0.89 0.33 0.17 2243
0.01 -0.00 -0.53 -4.85 9.42 -0.77 0.30 0.01 2250
0.00 0.00 -0.33 -4.67 9.56 -0.69 0.24 -0.14 2257
0.00 0.00 -0.23 -4.57 9.86 -0.61 0.19 -0.25 2265
0.00 0.00 -0.07 -4.37 10.13 -0.54 0.13 -0.34 2272
0.00 0.00 0.02 -3.91 10.06 -0.51 0.07 -0.38 2279
0.00 0.00 0.20 -3.52 10.14 -0.49 0.03 -0.39 2286
0.00 -0.00 0.69 -3.27 10.11 -0.50 0.02 -0.39 2293
0.00 0.00 1.08 -3.18 9.82 -0.54 0.05 -0.37 2300
0.00 0.00 1.05 -3.05 9.62 -0.56 0.13 -0.37 2308
0.00 0.00 0.07 -4.96 10.52 -0.59 0.10 -0.37 2315
0.00 0.00 -1.94 -3.50 8.59 -0.63 -0.17 -0.47 2322
0.00 0.00 -1.20 -2.44 7.93 -0.54 -0.11 -0.49 2329
0.00 0.00 -0.62 -3.28 8.65 -0.59 -0.13 -0.54 2336
0.00 0.00 -1.29 -6.31 10.15 -0.62 -0.27 -0.65 2343
0.00 0.00 -3.07 -8.27 10.83 -0.32 -0.71 -0.89 2351
0.00 0.00 -0.86 -6.12 7.43 -0.14 -0.56 -1.06 2358
0.00 0.00 -3.25 -6.87 5.50 -0.16 -0.72 -1.19 2365
0.00 0.00 -3.41 -13.57 9.33 -0.24 -1.07 -1.44 2372
0.00 0.00 -0.64 -21.83 14.82 0.12 -0.86 -1.43 2379
0.02 -0.00 1.42 -16.55 4.05 -0.13 -0.03 -1.33 2386
0.00 -0.00 -4.60 -24.84 9.60 -0.34 -0.05 -0.99 2394
-0.00 0.00 -5.05 -14.26 7.06 -0.30 -0.02 -0.31 2401
0.03 0.00 1.06 -4.46 8.50 -0.31 -0.07 0.12 2408
0.04 0.02 -0.22 -0.05 10.95 -0.31 -0.01 0.12 2415
0.03 0.03 0.32 0.17 10.39 -0.26 0.03 0.03 2422
0.02 0.10 0.41 -0.13 10.21 -0.23 0.01 -0.04 2429
0.03 0.08 0.63 -0.33 9.87 -0.18 0.01 -0.05 2437
0.03 0.15 0.34 -0.64 10.45 -0.10 0.04 -0.05 2444
0.03 0.22 0.24 -0.68 10.25 -0.09 0.06 -0.05 2451
0.05 0.25 0.34 -0.80 9.95 -0.06 0.09 -0.05 2458
0.06 0.26 0.40 -0.78 9.82 -0.06 0.09 -0.05 2465
0.06 0.29 0.38 -0.74 9.83 -0.05 0.09 -0.04 2472
0.05 0.29 0.48 -0.79 9.81 -0.04 0.08 -0.04 2480
0.05 0.25 0.54 -0.77 9.83 -0.04 0.08 -0.04 2487
0.06 0.29 0.51 -0.78 9.90 -0.03 0.07 -0.04 2494
0.08 0.28 0.52 -0.75 9.84 -0.03 0.06 -0.05 2501
0.08 0.29 0.47 -0.76 9.79 -0.03 0.05 -0.05 2508
0.08 0.27 0.54 -0.79 9.82 -0.02 0.05 -0.06 2515
0.07 0.25 0.49 -0.78 9.81 -0.02 0.04 -0.07 2523
0.08 0.26 0.48 -0.77 9.80 -0.02 0.05 -0.07 2530
0.09 0.30 0.45 -0.76 9.83 -0.02 0.04 -0.07 2537
0.10 0.30 0.43 -0.76 9.70 -0.02 0.05 -0.07 2544
0.08 0.29 0.34 -0.77 9.82 -0.02 0.05 -0.07 2551
0.10 0.28 0.37 -0.76 9.78 -0.02 0.06 -0.07 2558
0.08 0.30 0.45 -0.74 9.83 -0.01 0.07 -0.07 2566
0.10 0.30 0.50 -0.78 9.81 -0.01 0.06 -0.06 2573
0.10 0.31 0.49 -0.78 9.79 -0.01 0.06 -0.06 2580
0.11 0.30 0.49 -0.75 9.79 -0.01 0.06 -0.07 2587
0.11 0.30 0.48 -0.77 9.81 -0.01 0.06 -0.07 2594
0.12 0.30 0.47 -0.74 10.41 -0.01 0.06 -0.07 2601
0.12 0.30 0.45 -0.76 9.81 -0.01 0.06 -0.07 2609
0.13 0.31 0.47 -0.74 9.82 -0.00 0.06 -0.07 2616
0.15 0.31 0.45 -0.77 9.82 -0.00 0.06 -0.08 2623
0.16 0.29 0.46 -0.71 9.84 0.01 0.06 -0.07 2630
0.16 0.28 0.50 -0.76 9.83 0.01 0.06 -0.08 2637
0.16 0.27 0.51 -0.77 9.81 0.01 0.06 -0.08 2644
0.17 0.28 0.47 -0.78 9.83 0.01 0.06 -0.08 2652
0.16 0.28 0.50 -0.79 9.81 0.01 0.06 -0.08 2659
0.16 0.26 0.50 -0.75 9.81 0.01 0.06 -0.08 2666
0.16 0.26 0.49 -0.75 9.81 0.01 0.05 -0.08 2673
0.17 0.23 0.54 -0.80 9.82 0.01 0.05 -0.07 2680
0.19 0.20 0.50 -0.81 9.80 0.01 0.06 -0.08 2688
0.19 0.21 0.48 -0.78 9.82 0.01 0.05 -0.08 2695
0.21 0.19 0.50 -0.80 9.81 0.01 0.05 -0.08 2702
0.22 0.18 0.45 -0.76 9.81 0.01 0.05 -0.08 2709
0.22 0.18 0.50 -0.80 9.81 0.01 0.04 -0.08 2716
0.23 0.14 0.49 -0.79 9.76 0.01 0.05 -0.08 2723
0.22 0.20 0.46 -0.77 9.81 0.01 0.05 -0.08 2731
0.22 0.18 0.50 -0.80 9.81 0.00 0.05 -0.08 2738
0.23 0.15 0.48 -0.82 9.77 -0.00 0.04 -0.07 2745
0.24 0.14 0.50 -0.76 9.80 -0.00 0.04 -0.08 2752
0.22 0.16 0.51 -0.80 9.80 0.00 0.05 -0.08 2759
0.22 0.13 0.49 -0.81 9.81 0.00 0.04 -0.08 2766
0.21 0.15 0.48 -0.79 9.79 0.00 0.04 -0.08 2774
0.21 0.17 0.49 -0.81 9.80 0.00 0.04 -0.07 2781
0.22 0.16 0.51 -0.80 9.80 -0.00 0.04 -0.08 2788
0.25 0.14 0.50 -0.79 9.78 -0.01 0.04 -0.08 2795
0.25 0.14 0.53 -0.81 9.80 -0.00 0.03 -0.07 2802
0.24 0.15 0.49 -0.81 9.81 -0.01 0.03 -0.08 2809
0.23 0.15 0.46 -0.80 9.81 -0.01 0.03 -0.08 2817
0.24 0.16 0.48 -0.78 10.42 -0.00 0.02 -0.07 2824
0.25 0.16 0.48 -0.80 9.81 -0.00 0.02 -0.08 2831
0.26 0.15 0.50 -0.78 9.77 -0.01 0.02 -0.08 2838
0.26 0.16 0.50 -0.80 9.78 -0.00 0.02 -0.08 2845
0.26 0.12 0.49 -0.80 9.82 -0.00 0.03 -0.08 2852
0.26 0.11 0.45 -0.81 9.75 -0.00 0.03 -0.08 2860
0.28 0.12 0.45 -0.79 9.82 -0.00 0.03 -0.08 2867
0.28 0.13 0.47 -0.80 9.82 -0.00 0.03 -0.08 2874
0.29 0.12 0.46 -0.78 9.81 -0.00 0.03 -0.08 2881
0.29 0.08 0.48 -0.79 9.78 -0.01 0.04 -0.08 2888
0.30 0.07 0.52 -0.81 9.78 -0.00 0.03 -0.08 2895
0.30 0.10 0.47 -0.81 9.82 -0.00 0.03 -0.08 2903
0.32 0.10 0.52 -0.81 9.77 -0.00 0.03 -0.08 2910
0.34 0.09 0.48 -0.80 9.77 0.00 0.03 -0.08 2917
0.34 0.07 0.49 -0.80 9.78 0.03 0.04 -0.08 2924
0.36 0.04 0.46 -0.85 9.81 0.00 0.04 -0.08 2931
0.36 0.03 0.46 -0.84 9.81 0.01 0.04 -0.08 2938
0.37 0.02 0.47 -0.78 9.78 0.01 0.04 -0.09 2946
0.38 0.02 0.51 -0.82 9.20 0.01 0.04 -0.08 2953
0.40 0.01 0.50 -0.82 9.80 0.01 0.05 -0.09 2960
0.42 0.01 0.48 -0.83 9.82 0.01 0.05 -0.09 2967
0.43 -0.01 0.45 -0.82 9.81 0.01 0.05 -0.08 2974
0.42 -0.01 0.46 -0.81 9.81 0.01 0.05 -0.08 2981
0.43 -0.02 0.46 -0.85 9.82 0.01 0.05 -0.09 2989
0.44 -0.01 0.48 -0.81 9.80 0.02 0.05 -0.09 2996
0.45 -0.02 0.45 -0.80 9.80 0.02 0.05 -0.09 3003
0.45 -0.02 0.45 -0.82 9.80 0.02 0.05 -0.08 3010
0.47 -0.03 0.48 -0.82 9.84 0.02 0.05 -0.08 3017
0.45 -0.02 0.46 -0.86 9.82 0.03 0.05 -0.08 3024
0.50 -0.02 0.51 -0.84 9.82 0.04 0.06 -0.09 3032
0.52 -0.02 0.49 -0.86 9.82 0.04 0.06 -0.09 3039
0.52 -0.02 0.52 -0.84 9.81 0.05 0.07 -0.09 3046
0.54 -0.01 0.51 -0.83 9.84 0.06 0.08 -0.09 3053
0.53 -0.02 0.53 -0.88 9.82 0.07 0.08 -0.09 3060
0.55 -0.02 0.46 -0.85 9.85 0.09 0.09 -0.09 3067
0.61 -0.01 0.48 -0.91 9.84 0.11 0.10 -0.09 3075
0.63 -0.02 0.53 -0.95 9.89 0.13 0.11 -0.08 3082
0.63 -0.03 0.51 -0.97 9.91 0.15 0.12 -0.09 3089
0.65 -0.04 0.59 -0.90 9.91 0.18 0.15 -0.09 3096
0.68 -0.03 0.51 -0.99 10.08 0.24 0.18 -0.10 3103
0.69 -0.03 0.63 -0.92 10.22 0.32 0.22 -0.11 3111
0.72 -0.02 0.54 -1.02 10.34 0.45 0.27 -0.11 3119
0.74 -0.03 0.64 -0.99 10.61 0.64 0.31 -0.12 3126
0.74 -0.03 0.69 -1.06 11.13 0.84 0.30 -0.12 3133
0.74 -0.04 0.82 -1.15 11.18 1.02 0.25 -0.13 3140
0.74 -0.03 0.89 -1.34 11.67 1.16 0.21 -0.16 3147
0.76 -0.03 0.76 -1.83 11.30 1.19 0.16 -0.17 3154
0.76 -0.01 0.55 -1.40 11.09 1.23 0.12 -0.16 3162
0.75 -0.03 0.78 -1.48 11.24 1.28 0.08 -0.15 3169
0.72 -0.03 0.80 -1.52 11.22 1.36 -0.00 -0.15 3176
0.70 -0.04 0.74 -1.67 11.41 1.42 -0.05 -0.16 3183
0.65 -0.03 0.70 -1.79 10.99 1.49 -0.08 -0.17 3190
0.63 -0.02 0.66 -1.81 10.71 1.59 -0.12 -0.17 3197
0.60 -0.02 0.45 -1.91 10.44 1.63 -0.17 -0.15 3205
0.55 -0.03 0.35 -2.04 10.09 1.66 -0.18 -0.14 3212
0.52 -0.03 0.40 -2.13 10.00 1.67 -0.16 -0.12 3219
0.48 -0.03 0.51 -2.40 9.99 1.67 -0.18 -0.11 3225
0.44 -0.02 0.55 -2.54 10.06 1.70 -0.12 -0.10 3232
0.39 -0.02 0.46 -2.62 9.82 1.72 -0.10 -0.09 3239
0.33 -0.02 0.50 -2.78 9.69 1.73 -0.09 -0.08 3247
0.23 -0.02 0.59 -2.92 9.91 1.73 -0.07 -0.09 3254
0.26 -0.02 0.40 -3.09 9.66 1.73 -0.08 -0.09 3261
0.24 -0.02 0.63 -3.34 9.89 1.71 -0.15 -0.08 3268
0.17 -0.01 0.93 -3.54 9.75 1.73 -0.08 -0.10 3275
0.12 -0.01 0.57 -3.58 10.02 1.72 -0.08 -0.12 3283
0.12 -0.01 0.64 -3.78 9.73 1.69 -0.06 -0.13 3290
0.14 -0.01 0.07 -3.82 9.37 1.64 -0.12 -0.14 3297
0.11 -0.01 0.61 -3.99 9.77 1.57 -0.15 -0.15 3304
0.09 -0.01 0.70 -4.30 9.88 1.51 -0.19 -0.16 3311
0.08 -0.01 0.61 -4.49 9.85 1.46 -0.20 -0.17 3318
0.08 -0.00 0.72 -4.51 9.80 1.40 -0.22 -0.19 3325
0.11 -0.01 0.80 -4.53 9.59 1.33 -0.23 -0.21 3333
0.09 -0.01 0.87 -4.43 9.87 1.23 -0.24 -0.22 3340
0.09 -0.01 0.81 -3.87 9.68 1.15 -0.26 -0.24 3347
0.07 -0.01 0.81 -3.56 10.60 1.07 -0.32 -0.25 3354
0.07 -0.01 0.86 -2.92 10.52 0.95 -0.41 -0.27 3361
0.07 -0.01 1.07 -2.44 10.05 0.86 -0.47 -0.27 3368
0.07 -0.01 1.48 -2.19 9.58 0.76 -0.50 -0.26 3376
0.06 -0.01 1.89 -1.14 9.24 0.62 -0.51 -0.26 3383
0.05 -0.01 1.42 -2.31 9.07 0.47 -0.50 -0.27 3390
0.05 -0.00 1.68 -0.47 9.21 0.31 -0.47 -0.29 3397
0.05 -0.01 2.01 1.54 8.93 0.14 -0.43 -0.29 3404
0.01 -0.00 1.97 2.57 8.55 -0.14 -0.33 -0.26 3411
0.01 -0.00 1.24 0.80 7.69 -0.39 -0.21 -0.22 3419
0.02 -0.00 2.72 4.73 9.38 -0.51 -0.19 -0.14 3426
0.01 -0.00 2.22 1.68 8.20 -0.63 -0.16 -0.04 3433
0.00 0.00 3.33 2.02 10.21 -0.60 -0.09 0.04 3440
0.00 0.00 2.98 1.58 8.11 -0.65 -0.06 0.12 3447
0.00 -0.00 2.37 0.13 7.86 -0.60 0.04 0.20 3454
0.00 0.00 2.33 -0.63 8.42 -0.54 0.11 0.23 3462
0.00 0.00 2.17 -0.69 8.66 -0.49 0.17 0.23 3469
0.02 -0.00 1.82 -0.85 8.81 -0.41 0.23 0.18 3476
0.03 -0.00 1.15 -2.45 8.10 -0.36 0.29 0.11 3483
0.00 0.00 1.38 -0.63 10.51 -0.33 0.34 0.02 3490
0.00 -0.00 -0.31 -4.35 7.04 -0.32 0.36 -0.10 3497
0.01 -0.00 -1.07 -4.83 10.22 -0.32 0.36 -0.22 3505
0.00 0.00 -0.49 -2.35 9.13 -0.39 0.26 -0.37 3512
0.00 0.00 -0.03 -3.92 7.94 -0.42 0.23 -0.42 3519
0.00 0.00 -0.75 -4.66 9.20 -0.41 0.21 -0.48 3526
0.00 0.00 -1.22 -3.45 10.29 -0.49 0.14 -0.52 3533
0.01 -0.00 -0.80 -4.73 13.87 -0.46 0.11 -0.54 3540
0.00 0.00 1.25 -3.45 9.21 -0.50 0.17 -0.55 3548
0.00 0.00 1.46 -4.52 7.62 -0.54 0.20 -0.58 3555
0.00 0.00 0.86 -2.52 10.94 -0.48 0.24 -0.60 3562
0.00 0.00 -0.44 -5.77 10.34 -0.48 0.29 -0.57 3569
-0.00 0.00 0.12 -2.47 11.28 -0.50 0.33 -0.55 3576
0.00 0.00 1.17 -1.83 7.55 -0.46 0.33 -0.53 3584
0.00 0.00 -0.15 -2.79 9.84 -0.50 0.31 -0.49 3591
0.00 0.00 0.27 -2.05 7.91 -0.49 0.38 -0.46 3598
0.00 0.00 -0.98 -4.93 7.73 -0.56 0.39 -0.40 3605
0.00 0.00 1.46 -2.56 8.22 -0.63 0.42 -0.30 3612
0.00 0.00 1.20 -2.66 12.19 -0.67 0.47 -0.28 3619
0.00 0.00 -0.99 -2.63 10.32 -0.73 0.49 -0.15 3627
0.00 0.00 -1.90 -2.79 9.82 -0.68 0.47 -0.07 3634
0.00 0.00 -1.54 -3.91 7.20 -0.67 0.39 0.04 3641
0.00 0.00 -0.23 -3.21 9.31 -0.65 0.36 0.13 3648
0.00 0.00 -0.62 -1.54 9.63 -0.67 0.26 0.21 3655
0.00 0.00 -0.84 -2.64 8.39 -0.62 0.18 0.26 3662
0.00 0.00 -0.38 -3.67 9.43 -0.58 0.14 0.29 3670
0.00 0.00 -0.07 -3.34 9.49 -0.64 0.04 0.29 3677
0.00 0.00 -0.19 -2.88 9.54 -0.63 0.00 0.29 3684
0.00 0.00 0.57 -3.04 9.02 -0.58 -0.02 0.29 3691
0.00 0.00 0.39 -3.04 8.50 -0.58 -0.04 0.27 3698
0.00 0.00 0.22 -3.46 9.49 -0.55 -0.01 0.26 3705
0.00 0.00 0.64 -2.18 10.29 -0.59 0.06 0.24 3713
0.00 0.00 -0.08 -2.30 9.44 -0.62 0.14 0.20 3720
0.00 0.00 0.51 -1.54 9.73 -0.69 0.23 0.19 3727
0.00 0.00 0.12 -1.85 9.35 -0.74 0.25 0.20 3734
0.00 0.00 -0.03 -1.90 9.88 -0.76 0.24 0.21 3741
0.00 0.00 0.23 -2.16 9.86 -0.81 0.18 0.22 3748
0.00 0.00 0.25 -2.41 9.70 -0.81 0.13 0.23 3756
0.00 0.00 0.45 -2.77 9.70 -0.81 0.09 0.24 3763
0.00 0.00 0.69 -2.82 9.71 -0.77 0.08 0.24 3770
0.00 0.00 0.84 -2.74 9.60 -0.78 0.08 0.21 3777
0.00 0.00 1.04 -2.65 9.48 -0.76 0.11 0.18 3784
0.00 0.00 1.16 -2.51 9.43 -0.74 0.14 0.14 3791
0.00 0.00 1.22 -2.35 9.53 -0.72 0.17 0.10 3799
0.00 0.00 1.18 -2.46 9.71 -0.72 0.19 0.06 3806
0.00 0.00 1.13 -2.57 9.81 -0.72 0.18 0.03 3813
0.00 0.00 1.03 -2.59 9.93 -0.73 0.16 0.01 3820
0.00 0.00 0.92 -2.43 10.07 -0.75 0.12 0.02 3827
0.00 0.00 0.84 -2.33 9.90 -0.78 0.09 0.04 3834
0.00 0.00 0.87 -2.11 9.75 -0.80 0.04 0.06 3842
0.00 0.00 0.96 -2.03 9.56 -0.81 -0.03 0.09 3849
0.00 0.00 1.07 -1.97 9.59 -0.80 -0.03 0.13 3856
0.00 0.00 1.16 -1.88 9.60 -0.78 -0.03 0.16 3863
0.00 -0.00 1.29 -1.80 9.65 -0.75 -0.03 0.20 3870
0.00 0.00 1.44 -1.88 9.86 -0.72 -0.02 0.21 3877
0.00 0.00 1.75 -2.16 10.44 -0.73 0.01 0.23 3885
0.00 0.00 2.13 -2.62 10.69 -0.78 0.08 0.23 3892
0.00 0.00 2.54 -3.22 10.50 -0.85 0.17 0.23 3899
0.00 0.00 2.32 -3.56 10.05 -0.91 0.24 0.22 3906
0.00 0.00 2.14 -3.92 9.74 -0.93 0.37 0.23 3913
0.00 0.00 1.86 -4.24 9.32 -0.90 0.49 0.25 3920
0.00 0.00 1.51 -4.38 9.10 -0.83 0.56 0.29 3928
0.00 0.00 1.05 -4.29 9.30 -0.74 0.61 0.34 3935
0.00 0.00 0.70 -3.97 9.83 -0.68 0.62 0.40 3942
0.00 0.00 0.39 -3.57 10.11 -0.66 0.61 0.47 3949
0.00 0.00 0.21 -3.21 10.18 -0.69 0.52 0.54 3956
0.00 0.00 0.27 -3.19 10.03 -0.75 0.40 0.63 3963
0.00 0.00 0.48 -3.37 9.79 -0.80 0.26 0.64 3971
0.00 0.00 0.79 -3.59 9.34 -0.79 0.20 0.68 3978
0.00 0.00 1.12 -3.68 8.96 -0.74 0.18 0.69 3985
0.00 0.00 1.25 -3.82 8.73 -0.64 0.20 0.67 3992
0.00 0.00 0.55 -6.55 10.72 -0.58 0.21 0.63 3999
0.00 0.00 -4.11 -9.42 12.90 -0.18 -0.57 0.49 4006
0.00 0.00 -1.94 -2.92 4.66 0.02 -0.65 0.39 4014
0.00 0.00 -0.95 -5.09 4.97 0.02 -0.68 0.37 4021
0.00 0.00 -3.58 -9.57 9.44 0.04 -0.97 0.23 4028
0.00 0.00 -2.34 -8.82 9.98 0.14 -1.04 0.06 4035
0.00 0.00 -1.10 -8.72 10.50 0.33 -0.76 -0.01 4042
0.00 0.00 -0.97 -8.38 8.62 0.42 -0.40 -0.03 4049
0.01 -0.00 -3.53 -14.18 11.24 0.39 -0.55 -0.15 4058
0.01 -0.00 -6.04 -15.95 11.35 0.15 -0.85 -0.32 4065
-0.00 0.00 -6.72 -17.98 11.05 -0.02 -0.30 -0.28 4071
-0.00 0.01 -4.83 -12.91 6.96 -0.11 0.06 -0.18 4078
-0.00 0.00 -0.91 -4.22 10.03 -0.10 0.03 -0.11 4085
-0.00 0.01 -0.26 -2.80 9.43 -0.16 0.17 -0.05 4092
0.01 0.01 0.26 -0.86 10.22 -0.20 0.13 -0.00 4100
0.00 0.02 0.66 -0.16 10.12 -0.17 0.11 0.01 4107
0.01 0.05 0.48 -0.04 10.10 -0.16 0.10 -0.01 4114
0.04 0.02 0.46 -0.31 9.92 -0.14 0.08 -0.04 4121
0.03 0.04 0.38 -0.54 9.78 -0.13 0.08 -0.06 4128
0.02 0.08 0.51 -0.68 9.92 -0.11 0.06 -0.06 4135
-0.01 0.10 0.62 -0.84 9.90 -0.08 0.04 -0.06 4143
-0.01 0.09 0.48 -0.81 10.08 -0.05 0.04 -0.06 4150
0.03 0.08 0.37 -0.83 9.89 -0.04 0.03 -0.06 4157
0.04 0.06 0.33 -0.97 9.84 -0.03 0.03 -0.06 4164
0.04 0.07 0.30 -0.97 9.95 -0.03 0.03 -0.06 4171
0.03 0.06 0.45 -0.92 9.87 -0.03 0.02 -0.06 4178
0.02 0.09 0.35 -0.89 9.74 -0.03 0.02 -0.05 4186
0.04 0.09 0.34 -0.91 9.78 -0.04 0.02 -0.06 4193
0.06 0.09 0.34 -0.95 9.83 -0.05 0.02 -0.06 4200
0.06 0.13 0.35 -0.91 9.77 -0.05 0.02 -0.06 4207
0.07 0.10 0.38 -0.91 9.78 -0.06 0.03 -0.06 4214
0.05 0.13 0.31 -0.86 9.84 -0.06 0.02 -0.06 4221
0.06 0.11 0.36 -0.86 9.72 -0.06 0.03 -0.06 4229
0.08 0.16 0.39 -0.85 9.72 -0.06 0.04 -0.07 4236
0.08 0.15 0.25 -0.89 9.77 -0.06 0.04 -0.06 4243
0.08 0.21 0.31 -0.79 9.79 -0.06 0.06 -0.06 4250
0.08 0.18 0.26 -0.85 9.82 -0.05 0.07 -0.05 4257
0.09 0.18 0.35 -0.82 9.82 -0.05 0.07 -0.05 4264
0.08 0.25 0.41 -0.82 9.87 -0.04 0.08 -0.05 4272
0.09 0.25 0.36 -0.82 9.83 -0.04 0.08 -0.06 4279
0.10 0.28 0.44 -0.82 9.86 -0.03 0.09 -0.06 4286
0.10 0.26 0.43 -0.84 9.84 -0.03 0.09 -0.06 4293
0.10 0.28 0.41 -0.82 9.20 -0.02 0.09 -0.07 4300
0.12 0.27 0.42 -0.82 9.78 -0.01 0.09 -0.06 4307
0.10 0.28 0.46 -0.75 9.86 -0.01 0.09 -0.07 4315
0.12 0.28 0.41 -0.82 9.85 0.00 0.10 -0.07 4322
0.14 0.27 0.41 -0.85 9.78 0.01 0.10 -0.08 4329
0.12 0.26 0.41 -0.81 9.29 0.01 0.10 -0.07 4336
0.15 0.24 0.38 -0.81 9.81 0.02 0.10 -0.08 4343
0.13 0.23 0.39 -0.82 9.87 0.02 0.10 -0.08 4350
0.14 0.23 0.43 -0.80 9.81 0.02 0.11 -0.08 4358
0.16 0.21 0.45 -0.82 9.82 0.03 0.11 -0.07 4365
0.19 0.18 0.40 -0.80 9.82 0.03 0.11 -0.08 4372
0.18 0.15 0.43 -0.86 9.82 0.04 0.10 -0.08 4379
0.19 0.16 0.47 -0.87 9.84 0.03 0.11 -0.08 4386
0.19 0.12 0.48 -0.82 9.82 0.03 0.11 -0.09 4393
0.20 0.08 0.41 -0.84 9.83 0.04 0.10 -0.08 4401
0.20 0.06 0.48 -0.86 9.82 0.04 0.10 -0.08 4408
0.22 0.03 0.46 -0.89 9.81 0.04 0.10 -0.08 4415
0.21 0.04 0.48 -0.91 9.79 0.03 0.10 -0.08 4422
0.21 0.01 0.46 -0.88 9.80 0.04 0.10 -0.08 4429
0.21 0.00 0.47 -0.90 9.80 0.03 0.09 -0.08 4436
0.21 -0.00 0.47 -0.89 9.80 0.03 0.09 -0.08 4444
0.22 0.01 0.50 -0.87 9.80 0.03 0.09 -0.08 4451
0.24 0.00 0.47 -0.85 9.78 0.02 0.08 -0.08 4458
0.25 -0.02 0.48 -0.88 9.80 0.02 0.08 -0.08 4465
0.26 -0.03 0.50 -0.88 9.78 0.02 0.07 -0.08 4472
0.26 0.01 0.54 -0.89 9.80 0.01 0.07 -0.07 4480
0.25 -0.00 0.47 -0.91 9.75 0.01 0.07 -0.08 4487
0.26 -0.01 0.52 -0.91 9.75 0.01 0.06 -0.08 4494
0.24 0.00 0.52 -0.87 9.79 0.01 0.05 -0.08 4501
0.23 -0.00 0.51 -0.88 9.77 0.00 0.05 -0.08 4508
0.24 -0.01 0.51 -0.91 9.73 0.00 0.04 -0.08 4515
0.25 0.00 0.47 -0.91 9.80 -0.01 0.04 -0.08 4523
0.24 0.00 0.51 -0.90 9.81 -0.01 0.03 -0.08 4530
0.26 0.00 0.55 -0.86 9.80 -0.01 0.02 -0.07 4537
0.25 -0.00 0.51 -0.91 9.80 -0.01 0.02 -0.08 4544
0.24 -0.01 0.47 -0.90 9.81 -0.01 0.01 -0.08 4551
0.23 -0.00 0.46 -0.89 9.20 -0.01 0.01 -0.07 4558
0.25 0.00 0.53 -0.88 9.80 -0.01 0.01 -0.08 4566
0.25 0.00 0.49 -0.91 9.82 -0.01 0.01 -0.08 4573
0.27 -0.00 0.47 -0.88 9.80 -0.01 0.01 -0.08 4580
0.27 -0.01 0.48 -0.90 9.79 -0.01 0.00 -0.08 4587
0.27 -0.01 0.47 -0.89 9.79 -0.01 0.01 -0.08 4594
0.28 0.00 0.44 -0.91 9.78 -0.00 0.02 -0.08 4601
0.30 -0.00 0.44 -0.91 9.81 -0.00 0.03 -0.08 4609
0.31 -0.00 0.46 -0.88 9.82 -0.00 0.03 -0.08 4616
0.33 -0.01 0.46 -0.91 9.82 0.00 0.04 -0.08 4623
0.33 -0.02 0.48 -0.90 9.80 0.00 0.04 -0.07 4630
0.32 -0.02 0.46 -0.90 9.80 0.01 0.04 -0.08 4637
0.32 -0.01 0.46 -0.94 9.77 0.01 0.04 -0.08 4644
0.34 -0.02 0.44 -0.89 9.81 0.01 0.05 -0.08 4652
0.34 -0.02 0.49 -0.92 9.80 0.01 0.05 -0.08 4659
0.35 -0.01 0.52 -0.91 9.81 0.02 0.05 -0.08 4666
0.34 -0.01 0.48 -0.93 9.79 0.02 0.05 -0.08 4673
0.37 -0.02 0.47 -0.89 9.82 0.03 0.05 -0.08 4680
0.36 -0.02 0.46 -0.96 9.82 0.04 0.06 -0.08 4687
0.39 -0.01 0.50 -0.90 9.83 0.05 0.06 -0.08 4695
0.42 -0.01 0.53 -0.94 9.82 0.06 0.07 -0.08 4702
0.42 -0.02 0.51 -0.96 9.82 0.07 0.08 -0.09 4709
0.42 -0.01 0.46 -0.93 9.81 0.09 0.09 -0.09 4716
0.42 -0.02 0.46 -1.00 9.82 0.10 0.10 -0.08 4723
0.42 -0.03 0.48 -0.99 9.87 0.13 0.12 -0.08 4730
0.47 -0.02 0.47 -1.00 9.87 0.14 0.12 -0.08 4738
0.49 -0.02 0.46 -1.01 9.91 0.18 0.15 -0.08 4745
0.50 -0.02 0.45 -1.03 9.97 0.22 0.17 -0.07 4752
0.54 -0.03 0.49 -1.00 9.97 0.28 0.20 -0.07 4759
0.54 -0.03 0.57 -1.08 10.08 0.36 0.23 -0.07 4766
0.53 -0.02 0.51 -1.07 10.11 0.44 0.26 -0.07 4773
0.56 -0.02 0.64 -1.08 10.14 0.55 0.26 -0.09 4782
0.62 -0.03 0.70 -1.20 10.21 0.67 0.25 -0.09 4788
0.66 -0.03 0.70 -1.25 10.22 0.70 0.24 -0.11 4796
0.70 -0.04 0.68 -1.25 10.21 0.74 0.20 -0.11 4803
0.69 -0.04 0.73 -1.25 10.22 0.75 0.14 -0.12 4810
0.71 -0.03 0.65 -1.43 10.29 0.77 0.15 -0.12 4817
0.72 -0.02 0.58 -1.49 10.53 0.80 0.14 -0.14 4825
0.73 -0.03 0.69 -1.57 10.61 0.83 0.13 -0.14 4832
0.74 -0.03 0.73 -1.59 10.81 0.88 0.12 -0.14 4839
0.76 -0.04 0.72 -1.67 10.78 0.94 0.10 -0.14 4845
0.74 -0.03 0.72 -1.77 10.82 1.02 0.07 -0.15 4853
0.72 -0.03 0.74 -1.83 10.65 1.10 0.04 -0.15 4860
0.71 -0.03 0.59 -1.90 10.74 1.16 0.01 -0.16 4868
0.69 -0.03 0.56 -1.93 10.75 1.23 -0.04 -0.15 4875
0.68 -0.03 0.57 -2.06 10.66 1.29 -0.06 -0.13 4882
0.66 -0.04 0.62 -2.13 10.87 1.37 -0.08 -0.12 4889
0.60 -0.03 0.67 -2.23 11.38 1.48 -0.08 -0.12 4896
0.58 -0.02 0.77 -2.30 11.29 1.60 -0.10 -0.13 4903
0.55 -0.03 0.80 -2.42 11.31 1.74 -0.11 -0.13 4911
0.51 -0.03 0.67 -2.56 11.03 1.85 -0.11 -0.15 4918
0.45 -0.03 0.61 -2.68 10.83 1.94 -0.13 -0.15 4925
0.39 -0.02 0.67 -2.87 10.74 2.02 -0.15 -0.14 4932
0.31 -0.02 0.57 -3.16 10.76 2.10 -0.16 -0.14 4939
0.24 -0.01 0.98 -2.72 7.83 2.17 -0.17 -0.15 4945
0.22 -0.02 0.78 -3.34 10.58 2.19 -0.12 -0.15 4953
0.20 -0.02 0.25 -3.60 10.37 2.24 -0.13 -0.15 4961
0.18 -0.02 0.55 -3.87 10.12 2.25 -0.12 -0.14 4967
0.14 -0.01 0.53 -4.14 10.04 2.24 -0.11 -0.14 4974
0.09 -0.01 0.59 -4.49 10.57 2.20 -0.10 -0.15 4981
0.08 -0.00 0.55 -4.87 10.72 2.15 -0.12 -0.15 4989
0.08 -0.01 0.60 -5.07 10.65 2.08 -0.15 -0.15 4996
0.08 -0.01 0.91 -5.38 10.61 1.96 -0.19 -0.16 5003
0.06 -0.01 0.94 -5.61 10.31 1.85 -0.22 -0.19 5010
0.04 -0.00 1.04 -5.46 10.38 1.72 -0.23 -0.21 5017
0.05 -0.01 1.05 -4.79 9.82 1.64 -0.23 -0.25 5024
0.06 -0.00 0.96 -3.98 10.10 1.57 -0.35 -0.28 5032
0.07 -0.01 0.78 -3.51 10.61 1.46 -0.45 -0.31 5039
0.06 -0.01 0.92 -3.83 11.50 1.35 -0.58 -0.33 5046
0.05 -0.01 1.04 -3.46 11.65 1.20 -0.65 -0.33 5053
0.03 -0.00 1.20 -2.75 10.27 1.04 -0.65 -0.31 5060
0.05 -0.00 1.76 -2.18 8.54 0.87 -0.60 -0.31 5067
0.03 -0.00 1.01 -4.85 5.43 0.65 -0.50 -0.30 5074
0.03 -0.00 1.10 -2.95 4.73 0.48 -0.48 -0.32 5082
0.03 -0.00 2.06 -1.22 5.14 0.40 -0.47 -0.37 5089
0.03 -0.00 1.99 -0.85 5.63 0.24 -0.47 -0.44 5096
0.03 -0.00 3.31 1.76 6.82 0.07 -0.40 -0.47 5103
0.04 0.00 2.70 1.63 7.93 -0.15 -0.26 -0.46 5110
0.00 -0.00 2.55 0.53 7.34 -0.29 -0.12 -0.47 5117
0.00 0.00 2.56 2.49 8.65 -0.33 -0.04 -0.48 5125
0.00 0.00 2.47 0.58 7.12 -0.42 0.08 -0.46 5132
0.00 0.00 2.72 1.31 8.73 -0.42 0.16 -0.40 5139
0.00 0.00 2.25 0.63 8.31 -0.42 0.22 -0.32 5146
0.00 0.00 2.67 0.46 8.49 -0.36 0.35 -0.19 5153
0.00 -0.00 2.47 -0.02 8.33 -0.34 0.49 -0.06 5160
0.00 0.00 2.20 -0.31 8.52 -0.37 0.60 0.05 5168
0.00 0.00 2.41 0.14 8.33 -0.39 0.72 0.16 5175
0.00 0.00 2.02 -0.88 8.27 -0.39 0.79 0.25 5182
0.00 0.00 0.37 -5.16 8.94 -0.32 0.82 0.21 5189
0.00 0.00 0.37 -0.91 8.41 -0.41 0.77 0.21 5196
0.00 0.00 -5.33 -12.42 5.67 -0.22 0.68 0.06 5203
0.00 0.00 -0.97 -6.59 11.36 -0.23 0.54 -0.05 5211
0.00 0.00 -2.51 -7.81 13.18 -0.05 0.45 -0.35 5218
0.00 0.00 -1.34 -7.65 8.62 -0.23 0.46 -0.47 5225
0.00 0.00 -1.25 -6.00 10.85 -0.30 0.51 -0.49 5232
0.00 0.00 -2.31 -5.55 8.21 -0.46 0.57 -0.50 5239
0.00 0.00 0.18 0.40 8.15 -0.69 0.47 -0.42 5246
0.00 0.00 -0.90 -5.35 7.32 -0.75 0.39 -0.30 5254
0.00 0.00 0.16 -1.80 9.69 -0.71 0.18 -0.23 5261
0.00 0.00 -0.70 -5.70 6.66 -0.68 0.04 -0.10 5268
0.00 0.00 -0.85 -5.45 11.86 -0.50 -0.03 -0.06 5275
0.00 0.00 0.69 -4.10 8.58 -0.50 -0.12 -0.00 5282
0.00 0.00 0.05 -6.72 8.41 -0.32 -0.08 -0.03 5289
0.00 0.00 0.33 -3.15 9.66 -0.36 -0.05 -0.11 5297
0.00 0.00 1.40 -3.64 8.09 -0.37 0.02 -0.17 5304
0.00 0.00 0.02 -6.67 8.54 -0.28 0.16 -0.26 5311
0.00 0.00 0.41 -5.57 9.13 -0.33 0.20 -0.31 5318
0.00 0.00 -1.26 -7.25 8.62 -0.30 0.20 -0.34 5325
0.00 0.00 -1.74 -2.00 10.09 -0.35 0.14 -0.34 5332
0.00 0.00 -1.69 -11.83 5.85 -0.26 -0.03 -0.31 5340
0.00 0.00 1.58 -1.03 9.30 -0.21 -0.20 -0.27 5347
0.00 0.00 -2.79 -8.94 2.72 -0.23 -0.24 -0.27 5354
0.00 0.00 -1.85 -8.31 7.85 -0.19 -0.36 -0.27 5361
0.00 0.00 1.02 -2.37 9.28 -0.27 -0.38 -0.15 5368
0.00 0.00 -1.62 -9.91 7.07 -0.26 -0.34 -0.14 5376
0.00 0.00 -0.48 -8.53 4.89 -0.42 -0.43 0.03 5383
0.00 0.00 0.84 -2.41 9.92 -0.37 -0.49 0.04 5390
0.00 0.00 -0.72 -6.75 5.59 -0.43 -0.55 0.15 5397
0.00 0.00 0.21 -4.42 9.10 -0.42 -0.55 0.23 5404
0.00 0.00 1.26 -1.96 8.20 -0.48 -0.46 0.31 5411
0.00 0.00 -0.12 -5.70 6.35 -0.48 -0.39 0.40 5419
0.00 0.00 0.69 -3.19 8.72 -0.52 -0.35 0.40 5426
0.00 0.00 2.11 0.68 9.27 -0.53 -0.30 0.51 5433
0.00 0.00 0.19 -4.28 7.04 -0.49 -0.16 0.55 5440
0.00 0.00 3.24 -0.14 9.83 -0.59 -0.16 0.56 5447
0.00 0.00 0.12 -4.80 6.67 -0.62 -0.10 0.53 5454
0.00 0.00 3.61 3.45 12.90 -0.73 0.05 0.52 5462
0.00 0.00 -0.26 0.28 6.63 -0.80 0.05 0.54 5469
0.00 0.00 2.35 1.53 9.25 -1.05 0.07 0.61 5476
0.00 0.00 -0.79 -2.76 6.17 -1.02 0.04 0.66 5483
0.00 0.00 1.59 0.17 6.18 -1.18 -0.01 0.73 5490
0.00 0.00 1.14 -0.30 8.52 -1.11 -0.01 0.77 5497
0.00 0.00 1.47 -1.15 8.82 -1.09 0.03 0.77 5505
0.00 0.00 1.76 -1.11 9.42 -1.10 0.08 0.75 5512
0.00 0.00 1.78 -0.75 9.99 -1.10 0.18 0.70 5519
0.00 0.00 1.55 -0.60 10.03 -1.12 0.27 0.66 5526
0.00 0.00 1.25 -0.35 10.13 -1.18 0.32 0.62 5533
0.00 0.00 0.92 -0.26 10.56 -1.25 0.34 0.60 5540
0.00 0.00 0.87 -0.53 10.83 -1.31 0.32 0.57 5548
0.00 0.00 0.79 -0.76 10.69 -1.37 0.26 0.56 5555
0.00 0.00 0.82 -1.00 10.40 -1.41 0.21 0.55 5562
0.00 0.00 0.91 -1.17 10.11 -1.41 0.19 0.53 5569
0.00 0.00 1.06 -1.25 9.85 -1.36 0.18 0.51 5576
0.00 0.00 1.19 -1.29 9.77 -1.30 0.19 0.47 5583
0.00 0.00 1.17 -1.30 9.68 -1.23 0.24 0.43 5591
0.00 0.00 1.12 -1.22 9.71 -1.16 0.29 0.37 5598
0.00 0.00 1.10 -1.29 9.84 -1.08 0.34 0.32 5605
0.00 0.00 0.85 -1.32 9.90 -1.00 0.39 0.28 5612
0.00 0.00 0.52 -1.29 10.26 -0.94 0.44 0.24 5619
0.00 0.00 0.28 -1.14 11.47 -0.89 0.48 0.22 5626
0.00 0.00 0.47 -0.65 12.35 -0.91 0.54 0.18 5634
0.00 0.00 0.55 -2.84 13.59 -1.08 0.58 0.14 5641
0.00 0.00 -0.82 -0.41 16.47 -1.39 0.54 0.07 5648
0.00 0.00 0.18 1.10 8.92 -1.54 0.50 0.05 5655
0.00 0.00 0.17 -1.09 10.96 -1.71 0.46 0.07 5662
0.00 0.00 0.78 -0.75 9.30 -1.75 0.35 0.08 5669
0.00 0.00 0.90 -1.09 11.04 -1.66 0.32 0.08 5677
0.00 0.00 1.40 -1.71 10.29 -1.55 0.36 0.06 5684
0.00 0.00 1.46 -1.28 9.71 -1.49 0.44 0.03 5691
0.00 0.00 1.19 -1.52 9.81 -1.45 0.54 -0.00 5698
0.00 0.00 -0.88 -4.73 10.94 -1.42 0.35 -0.11 5705
0.00 0.00 -7.52 -16.77 14.43 -1.12 -0.75 -0.39 5712
0.00 0.00 -2.00 -6.20 11.02 -0.38 -0.78 -0.63 5720
0.00 0.00 -0.01 -6.57 2.73 -0.08 -0.65 -0.72 5727
0.00 0.00 -4.73 -18.29 11.40 0.01 -1.15 -0.97 5734
0.00 -0.00 -5.28 -23.48 7.79 0.09 -1.13 -1.31 5741
-0.00 0.01 0.38 -22.94 8.74 -0.12 -0.17 -1.31 5748
-0.00 0.01 -2.87 -35.58 4.95 -0.16 -0.04 -1.26 5755
0.00 -0.00 -3.47 -31.66 9.01 -0.17 -0.02 -1.06 5763
-0.00 0.01 -3.70 -23.95 7.96 -0.07 0.05 -0.37 5770
-0.00 0.03 0.09 -4.07 9.20 -0.10 -0.03 0.07 5777
-0.00 0.02 -0.08 -0.11 9.67 -0.20 0.01 0.17 5784
-0.00 0.02 0.55 0.74 9.35 -0.19 0.05 0.08 5791
-0.01 0.08 0.78 -0.53 9.53 -0.20 0.03 0.00 5798
-0.01 0.08 0.62 -0.82 9.79 -0.19 -0.02 -0.02 5806
0.01 0.12 0.26 -0.96 10.36 -0.18 -0.03 -0.01 5813
0.02 0.17 0.03 -0.78 9.97 -0.16 -0.00 -0.03 5820
0.02 0.21 0.09 -0.65 10.00 -0.13 0.03 -0.04 5827
0.01 0.25 0.41 -0.67 9.85 -0.11 0.05 -0.05 5834
0.00 0.22 0.48 -0.73 9.94 -0.09 0.07 -0.05 5841
0.01 0.29 0.35 -0.72 9.94 -0.06 0.08 -0.05 5849
0.02 0.31 0.29 -0.83 9.87 -0.05 0.10 -0.05 5856
0.02 0.33 0.39 -0.89 10.11 -0.04 0.11 -0.05 5863
0.03 0.35 0.43 -0.84 9.90 -0.04 0.10 -0.05 5870
0.02 0.34 0.51 -0.81 9.65 -0.04 0.10 -0.05 5877
0.03 0.37 0.49 -0.81 9.86 -0.03 0.10 -0.05 5884
0.01 0.38 0.52 -0.87 9.91 -0.02 0.09 -0.05 5892
0.01 0.41 0.49 -0.84 9.86 -0.02 0.09 -0.05 5899
0.04 0.37 0.49 -0.84 9.87 -0.02 0.07 -0.07 5906
0.04 0.36 0.47 -0.85 9.84 -0.01 0.07 -0.07 5913
0.06 0.35 0.41 -0.86 9.87 -0.01 0.07 -0.07 5920
0.04 0.34 0.47 -0.81 9.82 -0.01 0.07 -0.08 5927
0.04 0.36 0.47 -0.80 9.83 -0.00 0.06 -0.08 5935
0.03 0.37 0.42 -0.83 10.42 0.00 0.06 -0.07 5942
0.05 0.36 0.44 -0.85 9.81 0.01 0.06 -0.07 5949
0.06 0.34 0.38 -0.87 9.89 0.01 0.06 -0.07 5956
0.06 0.32 0.79 -1.03 10.22 0.02 0.06 -0.07 5963
0.05 0.33 0.44 -0.87 9.83 0.01 0.06 -0.08 5970
0.05 0.32 0.44 -0.84 9.83 0.02 0.06 -0.08 5978
0.07 0.31 0.45 -0.86 9.82 0.02 0.06 -0.08 5985
0.12 0.31 0.45 -0.85 9.82 0.02 0.06 -0.08 5992
0.12 0.32 0.44 -0.87 9.82 0.02 0.06 -0.08 5999
0.09 0.31 0.46 -0.83 9.80 0.02 0.06 -0.08 6006
0.10 0.29 0.45 -0.88 9.83 0.02 0.07 -0.08 6013
0.11 0.26 0.47 -0.89 9.80 0.02 0.07 -0.09 6021
0.12 0.27 0.46 -0.91 9.80 0.02 0.07 -0.09 6028
0.10 0.21 0.45 -0.91 9.82 0.02 0.07 -0.09 6035
0.12 0.17 0.54 -0.89 9.79 0.03 0.07 -0.09 6042
0.12 0.15 0.46 -0.92 9.78 0.03 0.07 -0.09 6049
0.09 0.12 0.47 -0.89 9.79 0.03 0.07 -0.09 6056
0.12 0.16 0.47 -0.90 9.81 0.03 0.07 -0.10 6064
0.13 0.11 0.50 -0.91 9.79 0.02 0.07 -0.09 6071
0.16 0.08 0.47 -0.91 9.81 0.02 0.07 -0.09 6078
0.16 0.06 0.48 -0.92 9.80 0.02 0.07 -0.09 6085
0.17 0.02 0.47 -0.92 9.78 0.02 0.07 -0.09 6092
0.19 0.01 0.49 -0.92 9.79 0.02 0.06 -0.08 6099
0.22 0.03 0.45 -0.91 9.81 0.02 0.06 -0.09 6107
0.22 0.03 0.51 -0.92 9.77 0.02 0.06 -0.09 6114
0.22 0.02 0.48 -0.91 9.82 0.01 0.06 -0.08 6121
0.24 0.00 0.51 -0.94 9.81 0.02 0.06 -0.09 6128
0.26 0.00 0.51 -0.92 9.80 0.01 0.05 -0.09 6135
0.25 0.00 0.46 -0.93 9.77 0.01 0.05 -0.08 6142
0.27 0.02 0.51 -0.92 9.80 0.01 0.05 -0.09 6150
0.27 0.00 0.51 -0.90 9.76 0.01 0.04 -0.09 6157
0.28 -0.01 0.51 -0.88 9.81 0.01 0.04 -0.09 6164
0.28 -0.01 0.50 -0.93 9.80 0.01 0.04 -0.08 6171
0.28 -0.00 0.50 -0.94 9.82 0.01 0.04 -0.09 6178
0.28 0.01 0.54 -0.95 9.77 0.01 0.04 -0.08 6185
0.30 0.00 0.47 -0.95 9.82 0.01 0.03 -0.09 6193
0.35 -0.01 0.50 -0.94 10.41 0.00 0.03 -0.09 6200
0.33 -0.01 0.52 -0.95 9.79 0.01 0.04 -0.09 6207
0.32 -0.02 0.50 -0.95 9.78 0.01 0.03 -0.08 6214
0.32 -0.01 0.51 -0.93 9.81 0.01 0.03 -0.09 6221
0.33 0.00 0.49 -0.94 9.79 0.01 0.04 -0.08 6228
0.34 0.00 0.51 -0.94 9.81 0.01 0.03 -0.08 6236
0.37 -0.01 0.50 -0.95 9.81 0.01 0.03 -0.08 6243
0.37 -0.01 0.51 -0.97 9.77 0.01 0.03 -0.09 6250
0.38 -0.02 0.52 -1.00 9.81 0.01 0.03 -0.09 6257
0.38 -0.02 0.46 -0.95 9.81 0.01 0.04 -0.08 6264
0.40 -0.02 0.51 -0.95 9.82 0.02 0.04 -0.09 6272
0.42 0.00 0.49 -0.94 9.83 0.02 0.04 -0.09 6279
0.43 -0.00 0.48 -0.94 9.81 0.03 0.04 -0.09 6286
0.43 -0.00 0.48 -0.97 9.81 0.03 0.04 -0.09 6293
0.42 -0.02 0.51 -0.96 9.82 0.07 0.05 -0.09 6300
0.45 -0.01 0.48 -0.97 9.80 0.04 0.05 -0.09 6307
0.48 -0.00 0.51 -0.94 9.82 0.05 0.06 -0.09 6315
0.51 -0.01 0.48 -0.98 9.80 0.05 0.06 -0.09 6322
0.52 -0.02 0.47 -0.98 9.81 0.06 0.07 -0.09 6329
0.53 -0.02 0.48 -1.00 9.81 0.07 0.08 -0.08 6336
0.55 -0.02 0.47 -1.03 9.81 0.08 0.08 -0.08 6343
0.54 -0.03 0.50 -1.01 9.84 0.10 0.09 -0.09 6350
0.57 -0.02 0.51 -1.00 9.81 0.11 0.10 -0.09 6358
0.60 -0.03 0.56 -1.02 9.81 0.13 0.11 -0.09 6365
0.60 -0.03 0.54 -1.07 9.82 0.16 0.12 -0.10 6372
0.62 -0.03 0.58 -1.02 9.85 0.18 0.14 -0.10 6379
0.64 -0.04 0.61 -1.11 9.92 0.22 0.16 -0.11 6386
0.65 -0.03 0.63 -1.08 9.89 0.27 0.18 -0.12 6393
0.66 -0.01 0.57 -1.15 9.98 0.32 0.20 -0.12 6401
0.69 -0.04 0.55 -1.21 10.09 0.39 0.22 -0.12 6409
0.69 -0.03 0.56 -1.10 10.00 0.46 0.27 -0.12 6415
0.69 -0.04 0.55 -1.20 10.19 0.54 0.24 -0.12 6423
0.69 -0.04 0.61 -1.20 10.10 0.60 0.23 -0.13 6429
0.68 -0.03 0.54 -1.30 10.31 0.67 0.23 -0.13 6437
0.68 -0.02 0.66 -1.47 10.45 0.74 0.22 -0.13 6445
0.70 -0.03 0.70 -1.31 10.80 0.80 0.21 -0.14 6451
0.70 -0.03 0.66 -1.41 10.61 0.86 0.20 -0.15 6459
0.68 -0.04 0.83 -1.55 10.86 0.94 0.16 -0.16 6466
0.65 -0.03 0.76 -1.64 11.12 1.00 0.12 -0.17 6473
0.66 -0.03 0.68 -1.62 11.06 1.08 0.07 -0.16 6480
0.65 -0.03 0.64 -1.77 11.07 1.14 0.01 -0.16 6488
0.64 -0.03 0.67 -1.79 11.40 1.22 -0.03 -0.15 6495
0.61 -0.03 0.80 -1.96 11.23 1.32 -0.10 -0.15 6502
0.58 -0.03 0.77 -2.06 11.41 1.42 -0.16 -0.15 6509
0.53 -0.03 0.74 -2.08 11.33 1.53 -0.20 -0.15 6516
0.50 -0.03 0.54 -2.27 11.16 1.62 -0.25 -0.15 6523
0.45 -0.03 0.56 -2.34 10.63 1.68 -0.24 -0.15 6531
0.42 -0.02 0.38 -2.46 10.65 1.75 -0.24 -0.14 6538
0.37 -0.02 0.51 -2.68 10.27 1.80 -0.24 -0.13 6545
0.29 -0.02 0.32 -2.88 10.11 1.84 -0.22 -0.11 6552
0.23 -0.02 0.41 -3.06 10.15 1.87 -0.21 -0.09 6559
0.21 -0.01 0.11 -3.34 10.76 1.87 -0.28 -0.08 6566
0.17 -0.02 0.72 -3.25 10.04 1.89 -0.17 -0.08 6573
0.10 -0.01 0.21 -3.52 10.15 1.91 -0.18 -0.08 6580
0.09 -0.01 0.26 -3.64 10.13 1.92 -0.19 -0.07 6587
0.07 -0.01 0.44 -3.89 9.90 1.92 -0.18 -0.07 6594
0.09 -0.01 0.45 -4.11 9.94 1.90 -0.16 -0.08 6601
0.07 -0.01 0.38 -4.29 9.90 1.87 -0.12 -0.09 6608
0.09 -0.01 0.43 -4.54 10.02 1.83 -0.08 -0.09 6616
0.05 -0.01 0.42 -4.64 10.02 1.78 -0.04 -0.09 6623
0.06 -0.01 0.39 -4.34 9.83 1.73 -0.00 -0.08 6630
0.03 -0.00 0.39 -4.18 9.74 1.72 -0.04 -0.08 6637
0.03 -0.00 0.35 -4.39 9.56 1.70 -0.11 -0.09 6644
0.04 -0.00 0.31 -4.55 9.78 1.65 -0.16 -0.10 6651
0.05 -0.00 0.25 -4.91 10.44 1.56 -0.20 -0.09 6659
0.04 -0.00 0.15 -5.06 10.74 1.44 -0.24 -0.09 6666
0.03 -0.00 0.01 -4.88 10.99 1.31 -0.26 -0.08 6673
0.01 -0.00 -0.06 -5.20 10.33 1.10 -0.32 -0.07 6680
0.00 0.00 -0.18 -4.90 9.43 0.90 -0.43 -0.05 6687
0.02 -0.00 -0.35 -4.73 8.25 0.67 -0.50 -0.02 6694
0.04 -0.00 0.00 -4.43 7.70 0.49 -0.54 0.01 6702
0.02 -0.00 0.84 -3.75 7.13 0.40 -0.54 0.02 6709
0.00 0.00 1.16 -2.52 7.20 0.33 -0.54 0.01 6716
0.00 0.00 1.86 -3.00 7.34 0.28 -0.51 -0.03 6723
0.02 -0.00 2.47 -3.18 7.76 0.24 -0.46 -0.08 6730
0.03 -0.00 2.69 -0.32 7.90 0.22 -0.37 -0.12 6737
0.00 0.00 2.78 2.66 8.56 0.14 -0.26 -0.20 6745
0.00 0.00 2.40 2.06 8.27 -0.04 -0.19 -0.25 6752
0.00 0.00 1.48 2.17 8.67 -0.15 -0.14 -0.32 6759
0.00 0.00 1.48 2.34 9.26 -0.16 -0.11 -0.37 6766
0.00 0.00 1.54 1.50 8.88 -0.16 -0.09 -0.40 6773
0.00 0.00 1.68 2.08 8.99 -0.19 -0.07 -0.44 6780
0.00 0.00 1.89 2.34 8.70 -0.23 -0.04 -0.48 6788
0.00 0.00 2.26 2.21 8.62 -0.29 0.06 -0.54 6795
0.00 0.00 2.43 1.83 8.88 -0.37 0.20 -0.59 6802
0.00 0.00 2.38 1.53 9.13 -0.48 0.40 -0.64 6809
0.00 0.00 2.07 0.99 9.46 -0.57 0.55 -0.68 6816
0.00 0.00 1.81 0.60 9.76 -0.68 0.64 -0.71 6823
0.00 0.00 1.36 0.27 9.69 -0.80 0.68 -0.73 6831
0.00 0.00 1.04 -0.09 9.35 -0.89 0.65 -0.73 6838
0.00 0.00 0.73 -0.42 9.02 -0.96 0.57 -0.71 6845
0.00 0.00 0.61 -0.79 8.67 -0.99 0.48 -0.67 6852
0.00 0.00 0.68 -1.10 8.52 -0.99 0.40 -0.62 6859
0.00 0.00 0.78 -1.43 8.38 -0.95 0.35 -0.55 6866
0.00 0.00 0.80 -1.61 8.56 -0.92 0.34 -0.46 6874
0.00 0.00 0.75 -1.75 8.62 -0.89 0.32 -0.39 6881
0.00 0.00 0.58 -1.79 8.99 -0.88 0.31 -0.30 6888
0.00 0.00 0.52 -1.80 9.47 -0.88 0.29 -0.20 6895
0.00 0.00 0.51 -1.84 9.77 -0.92 0.26 -0.12 6902
0.00 0.00 0.54 -1.97 9.91 -0.97 0.24 -0.02 6909
0.00 0.00 0.74 -1.20 10.85 -1.03 0.22 0.04 6917
0.00 0.00 0.53 -1.93 10.00 -1.19 0.19 0.12 6924
0.00 0.00 1.22 -3.93 10.39 -1.15 0.18 0.19 6931
0.00 0.00 2.11 -0.39 11.83 -1.24 0.21 0.24 6938
0.00 0.00 1.11 -2.71 5.14 -1.14 0.13 0.28 6945
0.00 0.00 2.19 -1.17 9.42 -1.18 0.19 0.36 6952
0.00 0.00 1.32 -2.07 9.05 -1.17 0.24 0.34 6960
0.00 0.00 1.77 -2.03 12.35 -1.20 0.28 0.40 6967
0.00 0.00 0.55 -2.70 11.06 -1.23 0.30 0.43 6974
0.00 0.00 0.74 -1.65 9.43 -1.27 0.30 0.49 6981
0.00 0.00 -0.64 -1.83 10.83 -1.22 0.36 0.57 6988
0.00 0.00 0.30 -2.75 8.41 -1.25 0.32 0.59 6995
0.00 0.00 0.48 -2.84 10.15 -1.19 0.37 0.61 7003
0.00 0.00 0.35 -2.89 10.48 -1.18 0.39 0.62 7010
0.00 0.00 0.19 -2.64 10.78 -1.20 0.41 0.58 7017
0.00 0.00 0.02 -2.75 10.88 -1.24 0.40 0.53 7024
0.00 0.00 -0.20 -2.74 10.66 -1.29 0.36 0.47 7031
0.00 0.00 -0.28 -2.79 10.40 -1.32 0.31 0.40 7038
0.00 0.00 -0.27 -2.82 10.12 -1.32 0.28 0.33 7046
0.00 0.00 -0.22 -2.85 9.96 -1.30 0.26 0.24 7053
0.00 0.00 -0.26 -2.78 9.96 -1.25 0.24 0.15 7060
0.00 0.00 -0.28 -2.55 10.26 -1.20 0.22 0.06 7067
0.00 -0.00 -0.25 -2.35 10.32 -1.16 0.17 -0.02 7074
0.00 0.00 -0.04 -2.20 10.61 -1.13 0.14 -0.13 7081
0.00 0.00 0.24 -2.13 10.72 -1.14 0.13 -0.18 7089
0.00 0.00 0.42 -2.10 10.80 -1.15 0.14 -0.24 7096
0.00 0.00 0.57 -2.15 10.92 -1.17 0.17 -0.29 7103
0.00 0.00 0.68 -2.26 11.11 -1.18 0.20 -0.34 7110
0.00 0.00 0.77 -2.43 11.04 -1.20 0.24 -0.40 7117
0.00 0.00 0.77 -2.61 10.90 -1.21 0.27 -0.38 7124
0.00 0.00 0.77 -2.77 10.76 -1.21 0.31 -0.38 7132
0.00 0.00 0.71 -2.98 10.57 -1.20 0.34 -0.36 7139
0.00 0.00 0.67 -3.26 10.33 -1.17 0.33 -0.33 7146
0.00 0.00 0.65 -3.46 10.09 -1.12 0.33 -0.28 7153
0.00 0.00 0.68 -3.59 9.86 -1.04 0.30 -0.23 7160
0.00 0.00 1.05 -3.64 9.80 -0.96 0.30 -0.15 7168
0.00 0.00 0.70 -3.59 9.61 -0.86 0.33 -0.07 7175
0.00 0.00 1.07 -3.57 9.56 -0.75 0.36 0.02 7182
0.00 0.00 0.78 -3.66 9.93 -0.67 0.39 0.10 7189
0.00 0.00 0.90 -3.54 9.99 -0.60 0.46 0.18 7196
0.00 0.00 0.48 -3.35 10.33 -0.58 0.48 0.27 7203
0.00 0.00 -0.05 -3.16 10.88 -0.60 0.48 0.39 7211
0.00 0.00 -0.34 -3.12 11.13 -0.69 0.47 0.45 7218
0.00 0.00 -0.09 -3.25 10.97 -0.79 0.46 0.53 7225
0.00 0.00 -0.61 -4.55 11.03 -0.87 0.42 0.57 7232
0.00 -0.00 -2.77 -8.45 14.29 -0.67 -0.01 0.52 7239
0.00 0.00 -1.50 -4.58 6.62 -0.55 0.02 0.46 7246
0.00 0.00 -0.60 -5.67 7.22 -0.56 0.01 0.45 7254
0.00 0.00 -0.89 -9.47 10.71 -0.46 -0.17 0.30 7261
0.00 0.00 -1.07 -7.85 9.13 -0.23 -0.11 0.17 7268
0.00 0.00 0.19 -5.85 4.76 -0.21 0.06 0.12 7275
0.00 0.00 -0.33 -9.73 7.98 -0.09 -0.04 0.04 7282
0.00 0.00 0.16 -7.40 7.13 0.13 0.07 -0.01 7289
0.00 0.00 -0.36 -7.92 6.77 0.19 -0.06 -0.08 7297
0.00 0.00 -1.46 -9.06 7.81 0.36 -0.15 -0.13 7304
0.00 0.00 -2.17 -9.61 8.81 0.56 -0.30 -0.18 7311
0.00 0.00 -0.70 -9.03 7.87 0.68 -0.31 -0.17 7318
-0.00 0.00 -1.45 -10.59 6.65 0.74 -0.36 -0.18 7325
0.00 0.00 -2.25 -11.92 8.57 0.89 -0.66 -0.23 7332
0.00 0.00 -3.31 -14.13 9.67 1.05 -0.80 -0.22 7340
0.00 0.00 -4.08 -19.42 15.00 0.83 -1.76 -0.31 7347
-0.00 0.01 -0.94 -8.15 13.29 0.49 -1.57 -0.29 7354
0.02 0.02 -1.00 -2.20 12.57 -0.04 -0.51 -0.04 7361
0.03 0.04 0.55 -1.80 9.18 -0.30 -0.04 0.02 7368
0.02 0.03 0.37 -1.20 9.90 -0.36 -0.05 0.01 7375
0.01 0.08 0.59 -0.52 9.67 -0.28 -0.12 0.02 7383
0.01 0.08 0.29 -0.21 10.15 -0.17 -0.10 -0.03 7390
0.02 0.15 0.46 -0.23 10.02 -0.17 -0.10 -0.06 7397
0.02 0.18 0.34 -0.63 10.04 -0.14 -0.08 -0.07 7404
-0.01 0.17 0.17 -0.93 10.04 -0.10 -0.06 -0.06 7411
-0.02 0.18 0.01 -0.83 10.00 -0.07 -0.02 -0.05 7418
0.00 0.18 0.08 -0.71 9.80 -0.06 0.02 -0.05 7426
0.03 0.17 0.15 -0.75 9.81 -0.05 0.03 -0.05 7433
0.01 0.22 0.25 -0.75 9.82 -0.04 0.05 -0.05 7440
0.01 0.24 0.25 -0.79 9.82 -0.03 0.05 -0.05 7447
0.02 0.23 0.25 -0.76 9.79 -0.04 0.05 -0.04 7454
0.01 0.21 0.28 -0.78 9.81 -0.04 0.05 -0.04 7461
0.00 0.20 0.33 -0.75 9.78 -0.04 0.05 -0.04 7469
0.01 0.24 0.25 -0.74 9.76 -0.04 0.04 -0.04 7476
0.01 0.28 0.28 -0.75 9.74 -0.05 0.04 -0.04 7483
0.02 0.31 0.27 -0.74 9.80 -0.05 0.04 -0.03 7490
0.01 0.29 0.23 -0.77 9.69 -0.06 0.04 -0.03 7497
0.01 0.29 0.30 -0.74 9.76 -0.06 0.04 -0.03 7504
0.01 0.34 0.27 -0.73 9.78 -0.07 0.04 -0.03 7512
0.03 0.40 0.28 -0.72 9.84 -0.07 0.04 -0.03 7519
0.04 0.40 0.22 -0.72 9.82 -0.07 0.04 -0.00 7526
0.04 0.42 0.26 -0.69 9.80 -0.07 0.04 -0.03 7533
0.03 0.43 0.34 -0.72 9.83 -0.07 0.04 -0.03 7540
0.02 0.55 0.32 -0.67 10.40 -0.07 0.04 -0.03 7547
0.02 0.57 0.28 -0.65 9.82 -0.06 0.04 -0.03 7555
0.03 0.57 0.21 -0.63 9.77 -0.06 0.04 -0.03 7562
0.03 0.65 0.23 -0.63 9.79 -0.05 0.04 -0.04 7569
0.03 0.66 0.25 -0.64 9.84 -0.05 0.05 -0.04 7576
0.02 0.71 0.27 -0.65 9.81 -0.03 0.04 -0.04 7583
0.02 0.70 0.28 -0.64 9.82 -0.03 0.05 -0.03 7590
0.01 0.68 0.27 -0.63 9.82 -0.02 0.05 -0.04 7598
0.00 0.72 0.26 -0.64 9.84 -0.02 0.05 -0.03 7605
0.02 0.68 0.30 -0.67 9.83 -0.01 0.04 -0.04 7612
0.01 0.69 0.28 -0.65 9.81 -0.01 0.04 -0.04 7619
0.01 0.68 0.31 -0.66 9.82 -0.00 0.04 -0.04 7626
0.02 0.65 0.27 -0.64 9.80 -0.01 0.04 -0.04 7633
0.03 0.65 0.25 -0.66 9.82 -0.00 0.04 -0.04 7641
0.04 0.63 0.23 -0.66 9.81 -0.00 0.04 -0.04 7648
0.05 0.62 0.21 -0.63 9.82 0.00 0.04 -0.04 7655
0.04 0.61 0.23 -0.62 9.81 0.00 0.04 -0.04 7662
0.05 0.59 0.23 -0.65 9.82 0.00 0.04 -0.04 7669
0.04 0.62 0.24 -0.66 9.81 -0.00 0.04 -0.04 7676
0.05 0.59 0.27 -0.63 9.75 0.03 0.04 -0.04 7684
0.03 0.60 0.25 -0.63 9.80 0.00 0.03 -0.04 7691
0.06 0.57 0.24 -0.65 9.81 0.00 0.04 -0.04 7698
0.05 0.56 0.26 -0.64 9.78 0.00 0.04 -0.04 7705
0.06 0.54 0.21 -0.63 9.77 0.01 0.04 -0.04 7712
0.04 0.53 0.23 -0.68 9.78 0.00 0.04 -0.04 7719
0.06 0.52 0.26 -0.63 9.78 0.00 0.03 -0.04 7727
0.06 0.52 0.26 -0.65 9.81 0.00 0.03 -0.04 7734
0.06 0.50 0.28 -0.67 9.80 -0.00 0.03 -0.04 7741
0.05 0.50 0.23 -0.66 9.79 -0.00 0.03 -0.04 7748
0.05 0.49 0.24 -0.68 9.81 -0.00 0.03 -0.04 7755
0.03 0.50 0.28 -0.67 9.79 -0.00 0.03 -0.05 7762
0.04 0.50 0.25 -0.68 9.81 -0.00 0.03 -0.04 7770
0.06 0.51 0.26 -0.70 9.81 -0.01 0.03 -0.04 7777
0.06 0.50 0.22 -0.64 9.81 -0.00 0.03 -0.04 7784
0.04 0.50 0.24 -0.67 9.79 -0.00 0.03 -0.04 7791
0.02 0.50 0.23 -0.62 9.80 -0.01 0.03 -0.04 7798
0.02 0.51 0.25 -0.67 9.78 -0.01 0.03 -0.04 7805
0.02 0.51 0.24 -0.66 9.81 -0.00 0.03 -0.04 7813
0.04 0.48 0.26 -0.68 9.78 -0.00 0.03 -0.04 7820
0.03 0.46 0.23 -0.65 9.82 -0.00 0.03 -0.05 7827
0.04 0.44 0.27 -0.66 9.80 0.01 0.04 -0.04 7834
0.04 0.42 0.27 -0.68 9.79 0.01 0.04 -0.04 7841
0.04 0.42 0.20 -0.69 9.78 0.01 0.04 -0.04 7848
0.05 0.43 0.23 -0.65 9.79 0.01 0.04 -0.04 7856
0.06 0.39 0.22 -0.67 9.79 0.00 0.04 -0.05 7863
0.06 0.39 0.25 -0.67 9.80 0.00 0.04 -0.04 7870
0.06 0.35 0.25 -0.66 9.81 0.01 0.04 -0.04 7877
0.06 0.33 0.21 -0.64 9.76 0.00 0.04 -0.04 7884
0.06 0.31 0.25 -0.69 9.81 0.01 0.04 -0.04 7891
0.07 0.32 0.25 -0.69 9.79 0.01 0.04 -0.04 7899
0.09 0.28 0.23 -0.68 9.78 0.01 0.04 -0.04 7906
0.07 0.23 0.26 -0.64 9.79 0.01 0.04 -0.04 7913
0.10 0.24 0.23 -0.66 9.78 0.01 0.04 -0.04 7920
0.10 0.18 0.26 -0.67 9.80 0.01 0.04 -0.04 7927
0.12 0.19 0.21 -0.70 9.81 0.02 0.04 -0.05 7934
0.15 0.23 0.23 -0.69 9.78 0.02 0.05 -0.04 7942
0.16 0.12 0.21 -0.70 9.82 0.02 0.05 -0.04 7949
0.16 0.16 0.23 -0.68 9.81 0.02 0.05 -0.04 7956
0.17 0.13 0.24 -0.70 9.79 0.03 0.06 -0.04 7963
0.17 0.07 0.23 -0.68 9.82 0.03 0.06 -0.04 7970
0.20 0.05 0.25 -0.69 9.82 0.03 0.06 -0.04 7977
0.23 0.03 0.22 -0.74 9.82 0.03 0.06 -0.04 7985
0.22 0.05 0.23 -0.68 9.82 0.04 0.06 -0.04 7992
0.24 0.02 0.23 -0.70 9.81 0.04 0.06 -0.04 7999
0.29 -0.02 0.27 -0.76 9.82 0.05 0.07 -0.04 8006
0.30 -0.02 0.26 -0.73 9.81 0.05 0.07 -0.04 8013
0.31 0.00 0.27 -0.73 9.80 0.05 0.07 -0.04 8020
0.35 -0.02 0.29 -0.76 9.83 0.07 0.08 -0.04 8028
0.35 -0.02 0.29 -0.71 9.82 0.08 0.08 -0.04 8035
0.32 -0.02 0.35 -0.76 9.86 0.10 0.09 -0.04 8042
0.34 -0.02 0.29 -0.77 9.90 0.13 0.10 -0.04 8049
0.34 -0.01 0.33 -0.78 10.03 0.17 0.12 -0.04 8057
0.37 -0.01 0.31 -0.79 10.09 0.24 0.16 -0.05 8064
0.38 -0.03 0.32 -0.86 10.26 0.37 0.22 -0.06 8071
0.41 -0.01 0.42 -0.84 10.74 0.56 0.30 -0.07 8078
0.44 -0.02 0.34 -0.92 11.19 0.91 0.43 -0.08 8086
0.45 -0.02 0.43 -1.07 11.85 1.23 0.51 -0.09 8093
0.44 -0.01 0.44 -1.25 11.88 1.50 0.50 -0.11 8100
0.45 -0.01 0.78 -1.28 12.29 1.63 0.39 -0.13 8108
0.46 -0.02 0.90 -1.33 12.28 1.67 0.25 -0.17 8115
0.45 -0.02 0.76 -1.48 12.36 1.72 0.11 -0.19 8122
0.43 -0.02 0.76 -1.52 11.34 1.78 -0.01 -0.20 8129
0.38 -0.02 0.57 -1.73 11.07 1.83 -0.12 -0.17 8136
0.35 -0.02 0.40 -1.83 11.04 1.85 -0.19 -0.19 8143
0.35 -0.02 0.59 -1.88 10.84 1.88 -0.26 -0.17 8151
0.31 -0.02 0.65 -2.02 10.45 1.92 -0.27 -0.17 8158
0.21 -0.02 0.47 -2.26 10.72 1.94 -0.27 -0.17 8165
0.19 -0.02 0.48 -1.88 10.56 1.99 -0.23 -0.17 8171
0.11 -0.01 0.66 -2.56 11.28 2.06 -0.18 -0.18 8178
0.14 -0.01 0.32 -2.76 11.02 2.11 -0.16 -0.18 8186
0.05 -0.00 0.13 -2.94 10.52 2.13 -0.19 -0.16 8193
0.07 -0.01 0.74 -3.26 10.10 2.11 -0.12 -0.18 8200
0.05 -0.01 0.39 -3.43 10.21 2.06 -0.12 -0.18 8207
0.02 -0.00 0.36 -3.75 10.63 2.01 -0.08 -0.18 8214
0.05 -0.00 0.30 -3.97 11.19 1.95 -0.05 -0.16 8221
0.04 0.00 0.17 -4.02 11.15 1.89 -0.03 -0.15 8228
0.04 -0.00 0.15 -3.97 11.05 1.84 -0.02 -0.14 8236
0.02 -0.00 0.19 -3.78 10.68 1.79 -0.04 -0.13 8243
0.02 -0.00 0.11 -3.75 10.38 1.70 -0.10 -0.12 8250
0.02 -0.00 -0.09 -3.63 10.22 1.60 -0.20 -0.11 8257
0.02 -0.00 0.03 -3.51 10.07 1.46 -0.28 -0.10 8264
0.01 -0.00 -0.06 -3.52 9.82 1.32 -0.40 -0.09 8271
0.00 0.00 -0.12 -3.18 9.58 1.20 -0.50 -0.07 8279
0.00 0.00 0.05 -2.79 8.83 1.08 -0.58 -0.05 8286
0.00 0.00 0.07 -2.91 8.04 1.01 -0.63 -0.02 8293
0.00 0.00 0.28 -2.68 7.34 0.93 -0.66 -0.01 8300
0.00 -0.00 0.67 -2.00 7.32 0.89 -0.67 0.01 8307
0.03 -0.00 0.66 -3.00 7.44 0.84 -0.65 0.01 8314
0.03 -0.00 1.06 -1.62 8.23 0.76 -0.62 0.03 8322
0.02 -0.00 1.26 -1.33 7.89 0.64 -0.55 0.04 8329
0.00 0.00 0.47 -1.16 8.17 0.56 -0.52 0.05 8336
0.00 0.00 0.74 0.32 7.83 0.45 -0.48 0.05 8343
0.00 0.00 1.73 1.20 7.80 0.34 -0.47 0.09 8350
0.03 -0.00 1.25 1.61 7.97 0.21 -0.51 0.12 8357
0.02 -0.00 1.63 -0.20 8.23 0.11 -0.54 0.13 8365
0.02 -0.00 2.03 1.58 8.12 0.08 -0.59 0.13 8372
0.01 -0.00 1.26 -1.18 7.65 0.01 -0.58 0.13 8379
0.00 0.00 2.06 -0.25 9.92 0.04 -0.47 0.07 8386
0.00 0.00 3.13 1.22 8.16 -0.12 -0.33 0.04 8393
0.00 0.00 2.57 -1.56 8.27 -0.20 -0.11 -0.00 8400
0.00 0.00 2.23 -0.95 8.85 -0.34 0.06 -0.08 8408
0.00 0.00 2.37 1.08 8.82 -0.47 0.18 -0.09 8415
0.00 0.00 1.26 -1.63 8.26 -0.53 0.32 -0.12 8422
0.00 0.00 1.93 1.89 10.58 -0.64 0.34 -0.11 8429
0.00 0.00 1.03 -1.17 6.81 -0.72 0.33 -0.08 8436
0.00 -0.00 1.46 0.50 13.41 -0.66 0.39 -0.07 8443
0.00 0.00 1.02 -1.71 6.94 -0.85 0.31 -0.06 8451
0.00 0.00 0.98 -0.41 11.01 -0.82 0.41 -0.06 8458
0.00 0.00 1.41 -2.69 7.13 -0.93 0.35 -0.02 8465
0.00 0.00 2.09 -0.64 9.18 -0.87 0.40 -0.02 8472
0.00 0.00 0.86 -1.70 6.97 -0.97 0.40 0.01 8479
0.00 0.00 0.59 -3.73 7.76 -0.94 0.42 0.04 8486
0.00 0.00 2.48 0.83 12.36 -0.98 0.42 0.02 8494
0.00 0.00 1.37 -2.23 7.92 -0.99 0.36 0.04 8501
0.00 0.00 0.35 -2.62 9.86 -1.08 0.42 0.06 8508
0.00 0.00 -0.33 -3.36 9.64 -1.08 0.38 0.05 8515
0.00 0.00 0.35 -2.91 7.77 -1.09 0.36 0.04 8522
0.00 0.00 1.09 -2.11 9.57 -1.11 0.37 0.03 8529
0.00 0.00 0.50 -2.81 7.21 -1.11 0.41 0.03 8537
0.00 0.00 0.89 -2.50 9.01 -1.04 0.49 0.03 8544
0.00 0.00 0.36 -2.08 8.23 -1.10 0.53 0.04 8551
0.00 0.00 -0.82 -3.97 8.67 -1.05 0.54 0.04 8558
0.00 0.00 -1.18 -1.92 11.46 -1.14 0.47 0.05 8565
0.00 0.00 0.08 -1.79 9.69 -1.09 0.32 0.05 8572
0.00 0.00 -0.67 -2.83 8.84 -1.13 0.20 0.06 8580
0.00 0.00 0.34 -2.29 10.06 -1.13 0.13 0.06 8587
0.00 0.00 0.25 -2.49 9.63 -1.15 0.10 0.06 8594
0.00 0.00 0.56 -1.94 11.11 -1.15 0.12 0.06 8601
0.00 0.00 0.56 -2.31 10.90 -1.16 0.18 0.06 8608
0.00 0.00 0.49 -2.16 10.82 -1.19 0.23 0.07 8615
0.00 0.00 0.56 -2.58 10.17 -1.19 0.24 0.07 8623
0.00 0.00 0.62 -2.86 10.14 -1.19 0.25 0.08 8630
0.00 0.00 0.68 -2.96 10.08 -1.16 0.25 0.09 8637
0.00 0.00 0.65 -3.01 9.87 -1.13 0.25 0.09 8644
0.00 -0.00 0.60 -3.05 9.64 -1.07 0.26 0.10 8651
0.00 0.00 0.51 -2.95 9.66 -1.02 0.28 0.11 8658
0.00 0.00 0.45 -2.82 9.86 -0.97 0.28 0.10 8666
0.00 0.00 0.34 -2.62 10.02 -0.92 0.30 0.10 8673
0.00 0.00 0.25 -2.58 9.99 -0.89 0.30 0.09 8680
0.00 0.00 0.17 -2.62 10.03 -0.86 0.27 0.08 8687
0.00 0.00 0.11 -2.84 9.95 -0.82 0.22 0.06 8694
0.00 0.00 0.10 -3.07 9.88 -0.78 0.15 0.05 8701
0.00 0.00 0.05 -3.19 9.80 -0.72 0.06 0.04 8709
0.00 0.00 0.06 -3.31 9.77 -0.66 -0.01 0.02 8716
0.00 0.00 0.06 -3.42 9.80 -0.59 -0.05 -0.00 8723
0.00 0.00 -0.14 -5.44 10.79 -0.55 -0.05 -0.03 8730
0.00 0.00 -0.73 -6.13 16.38 -0.58 -0.10 -0.12 8737
0.02 -0.00 -1.14 -5.00 12.82 -0.59 -0.05 -0.18 8744
0.01 -0.00 -0.40 -2.57 10.26 -0.62 0.07 -0.22 8752
0.01 -0.00 0.37 -3.47 8.47 -0.74 0.20 -0.22 8759
0.00 0.00 0.10 -3.91 11.73 -0.86 0.36 -0.21 8766
0.03 -0.00 0.55 -2.58 10.52 -0.91 0.49 -0.18 8773
0.02 -0.00 0.05 -3.46 11.30 -0.89 0.55 -0.17 8780
0.00 -0.00 0.41 -3.50 10.78 -0.91 0.56 -0.12 8787
0.00 0.00 0.24 -3.12 9.49 -0.88 0.53 -0.08 8795
0.00 0.00 0.17 -3.31 9.67 -0.86 0.46 -0.06 8802
0.00 0.00 0.04 -3.48 9.49 -0.83 0.39 -0.03 8809
0.00 0.00 0.30 -3.33 9.39 -0.76 0.36 -0.01 8816
0.00 0.00 0.50 -3.27 9.02 -0.71 0.35 0.01 8823
0.00 0.00 0.44 -3.27 9.20 -0.66 0.33 0.02 8830
0.00 0.00 0.31 -3.38 9.20 -0.61 0.35 0.05 8838
0.00 0.00 0.23 -3.65 9.57 -0.54 0.31 0.06 8845
0.00 0.00 -0.03 -3.36 9.50 -0.53 0.26 0.04 8852
0.00 -0.00 0.00 -3.57 10.21 -0.52 0.25 0.03 8859
0.00 0.00 -0.05 -5.13 11.54 -0.52 0.21 0.02 8866
0.00 0.00 -2.46 -8.58 13.40 -0.41 -0.16 -0.05 8873
0.00 0.00 -0.32 -4.47 8.00 -0.29 -0.31 -0.12 8881
0.00 0.00 -0.20 -6.34 7.53 -0.33 -0.29 -0.14 8888
0.00 0.00 -0.34 -9.77 9.70 -0.29 -0.48 -0.23 8895
0.00 0.00 -0.04 -7.48 8.35 -0.09 -0.34 -0.32 8902
0.00 0.00 -0.35 -5.54 5.31 0.10 -0.22 -0.34 8909
0.00 0.00 -1.32 -11.42 7.77 0.25 -0.24 -0.39 8916
0.00 0.00 -1.99 -12.12 4.50 0.41 -0.30 -0.43 8924
0.00 0.00 -2.90 -13.31 6.19 0.64 -0.47 -0.45 8931
-0.00 0.02 -4.79 -22.99 16.57 0.49 -0.99 -0.50 8938
-0.00 0.00 -3.91 -22.08 9.92 0.05 -0.53 -0.43 8945
-0.00 0.00 -0.69 -3.06 8.45 -0.10 0.07 -0.07 8952
-0.00 0.01 0.18 -3.37 9.50 -0.19 0.01 -0.01 8960
-0.00 0.03 -0.12 -2.29 9.56 -0.26 0.02 0.04 8967
-0.01 0.06 0.43 -0.21 10.12 -0.22 0.04 0.05 8974
-0.00 0.05 0.54 -0.31 10.04 -0.20 0.03 -0.01 8981
-0.01 0.16 0.72 -0.30 10.05 -0.18 0.03 -0.04 8988
-0.01 0.14 0.79 -0.81 10.00 -0.15 -0.00 -0.06 8995
-0.00 0.15 0.42 -1.00 9.91 -0.12 0.00 -0.05 9003
-0.00 0.19 0.17 -0.93 9.98 -0.10 0.01 -0.06 9010
-0.00 0.21 0.26 -0.94 9.92 -0.09 0.03 -0.06 9017
0.00 0.24 0.35 -0.94 9.93 -0.07 0.05 -0.06 9024
-0.01 0.23 0.41 -0.94 9.83 -0.06 0.05 -0.05 9031
-0.00 0.24 0.36 -0.93 9.75 -0.06 0.06 -0.05 9038
-0.02 0.26 0.35 -0.95 9.79 -0.06 0.06 -0.05 9046
-0.01 0.33 0.36 -0.93 9.75 -0.05 0.06 -0.05 9053
-0.00 0.29 0.42 -0.93 9.87 -0.06 0.06 -0.05 9060
0.00 0.34 0.42 -0.91 9.81 -0.05 0.06 -0.05 9067
-0.00 0.33 0.35 -0.94 9.85 -0.05 0.06 -0.05 9074
-0.01 0.34 0.42 -0.89 9.77 -0.05 0.06 -0.05 9081
-0.02 0.39 0.45 -0.88 9.79 -0.04 0.06 -0.05 9089
-0.02 0.45 0.47 -0.91 9.78 -0.05 0.05 -0.05 9096
-0.02 0.46 0.46 -0.86 9.79 -0.05 0.05 -0.05 9103
-0.01 0.49 0.52 -0.91 9.79 -0.05 0.05 -0.06 9110
-0.01 0.49 0.47 -0.91 9.80 -0.05 0.04 -0.06 9117
-0.00 0.52 0.47 -0.88 9.82 -0.04 0.04 -0.06 9124
-0.02 0.58 0.50 -0.87 9.85 -0.05 0.04 -0.06 9132
-0.01 0.54 0.45 -0.88 9.84 -0.04 0.03 -0.07 9139
-0.00 0.61 0.46 -0.84 9.83 -0.03 0.04 -0.06 9146
0.00 0.62 0.44 -0.88 9.86 -0.03 0.03 -0.06 9153
-0.01 0.69 0.46 -0.87 9.81 -0.03 0.04 -0.07 9160
-0.02 0.64 0.46 -0.87 9.82 -0.02 0.04 -0.07 9167
-0.02 0.63 0.41 -0.84 9.82 -0.02 0.04 -0.07 9175
-0.01 0.63 0.43 -0.87 9.84 -0.02 0.04 -0.07 9182
0.01 0.62 0.41 -0.86 9.83 -0.01 0.04 -0.07 9189
0.01 0.60 0.43 -0.88 9.83 -0.01 0.04 -0.07 9196
0.00 0.64 0.45 -0.86 9.82 -0.01 0.04 -0.07 9203
0.00 0.64 0.45 -0.86 9.81 -0.00 0.04 -0.07 9210
0.00 0.62 0.43 -0.89 9.80 -0.00 0.04 -0.07 9218
0.01 0.63 0.44 -0.88 9.78 -0.00 0.04 -0.07 9225
0.02 0.62 0.44 -0.84 9.77 0.00 0.04 -0.08 9232
0.01 0.61 0.43 -0.87 9.79 0.00 0.04 -0.07 9239
0.02 0.59 0.41 -0.87 9.79 0.00 0.04 -0.07 9246
0.02 0.58 0.39 -0.88 9.82 0.00 0.04 -0.08 9253
0.03 0.55 0.42 -0.87 9.81 -0.00 0.04 -0.07 9261
0.03 0.55 0.40 -0.89 9.79 0.00 0.04 -0.08 9268
0.04 0.52 0.43 -0.85 9.79 0.00 0.04 -0.08 9275
0.03 0.53 0.42 -0.88 9.79 -0.00 0.04 -0.08 9282
0.02 0.52 0.42 -0.88 9.80 -0.00 0.04 -0.08 9289
0.02 0.51 0.40 -0.90 9.81 -0.01 0.04 -0.08 9296
0.02 0.51 0.40 -0.89 9.76 -0.01 0.04 -0.07 9304
0.03 0.53 0.45 -0.86 9.79 -0.00 0.04 -0.08 9311
0.04 0.51 0.47 -0.91 9.20 -0.00 0.04 -0.08 9318
0.03 0.51 0.41 -0.89 9.82 -0.00 0.04 -0.07 9325
0.03 0.50 0.43 -0.88 9.82 -0.00 0.04 -0.08 9332
0.03 0.50 0.44 -0.87 9.80 -0.01 0.04 -0.07 9339
0.03 0.50 0.40 -0.90 9.81 -0.00 0.04 -0.08 9347
0.03 0.50 0.46 -0.91 9.82 -0.00 0.04 -0.08 9354
0.04 0.49 0.43 -0.90 9.76 -0.00 0.04 -0.07 9361
0.03 0.48 0.41 -0.89 9.78 -0.00 0.05 -0.08 9368
0.04 0.47 0.40 -0.91 9.80 -0.00 0.05 -0.08 9375
0.03 0.48 0.45 -0.86 9.82 -0.00 0.05 -0.08 9382
0.03 0.49 0.41 -0.89 9.77 -0.00 0.05 -0.08 9390
0.05 0.49 0.42 -0.89 9.79 -0.00 0.05 -0.08 9397
0.04 0.47 0.42 -0.89 9.82 -0.00 0.05 -0.08 9404
0.05 0.46 0.48 -0.88 9.82 -0.00 0.05 -0.08 9411
0.05 0.46 0.45 -0.85 9.81 0.00 0.05 -0.08 9418
0.05 0.45 0.45 -0.90 9.80 -0.00 0.05 -0.08 9425
0.05 0.45 0.46 -0.89 9.86 -0.00 0.05 -0.08 9433
0.07 0.45 0.41 -0.90 9.79 0.01 0.05 -0.08 9440
0.06 0.44 0.43 -0.90 9.80 0.00 0.05 -0.08 9447
0.06 0.44 0.45 -0.89 9.80 0.00 0.05 -0.08 9454
0.05 0.44 0.43 -0.89 9.80 0.01 0.05 -0.08 9461
0.07 0.41 0.46 -0.88 9.77 0.00 0.05 -0.08 9468
0.08 0.41 0.44 -0.89 9.79 0.01 0.05 -0.08 9476
0.10 0.36 0.42 -0.93 9.76 0.01 0.05 -0.08 9483
0.10 0.37 0.42 -0.90 9.77 0.01 0.05 -0.08 9490
0.10 0.38 0.45 -0.87 9.80 0.01 0.05 -0.08 9497
0.11 0.35 0.42 -0.91 9.80 0.01 0.05 -0.08 9504
0.11 0.36 0.45 -0.95 9.78 0.01 0.05 -0.08 9511
0.13 0.31 0.42 -0.89 9.77 0.02 0.06 -0.08 9519
0.15 0.27 0.42 -0.90 9.81 0.03 0.06 -0.08 9526
0.16 0.28 0.43 -0.87 9.74 0.03 0.06 -0.08 9533
0.17 0.22 0.41 -0.89 9.81 0.03 0.06 -0.08 9540
0.17 0.21 0.46 -0.92 9.81 0.04 0.06 -0.08 9547
0.23 0.18 0.45 -0.88 9.79 0.04 0.06 -0.08 9554
0.24 0.07 0.45 -0.94 9.80 0.04 0.07 -0.09 9562
0.25 0.09 0.46 -0.91 9.78 0.04 0.07 -0.09 9569
0.32 0.03 0.49 -0.95 9.20 0.04 0.07 -0.09 9576
0.32 0.05 0.47 -0.96 9.82 0.04 0.07 -0.09 9583
0.34 0.01 0.44 -0.92 9.81 0.05 0.07 -0.09 9590
0.34 0.00 0.52 -0.98 9.83 0.05 0.08 -0.09 9597
0.36 -0.00 0.51 -0.88 9.82 0.05 0.08 -0.09 9605
0.37 -0.02 0.46 -1.01 9.82 0.06 0.08 -0.09 9612
0.37 -0.01 0.51 -0.96 9.82 0.07 0.09 -0.09 9619
0.39 -0.03 0.52 -1.10 9.85 0.08 0.10 -0.09 9626
0.38 -0.02 0.50 -0.97 9.87 0.10 0.11 -0.09 9633
0.42 -0.00 0.48 -1.01 9.90 0.13 0.12 -0.09 9640
0.48 -0.02 0.56 -1.06 10.05 0.16 0.15 -0.10 9648
0.48 -0.03 0.56 -1.08 10.13 0.23 0.19 -0.10 9655
0.49 -0.03 0.70 -1.11 10.35 0.31 0.24 -0.12 9663
0.52 -0.02 0.82 -1.17 10.65 0.48 0.32 -0.14 9670
0.54 -0.01 0.74 -1.14 11.11 0.72 0.40 -0.17 9677
0.54 -0.01 0.70 -1.21 11.20 0.96 0.38 -0.17 9684
0.57 -0.02 0.45 -1.31 11.65 1.16 0.32 -0.17 9692
0.53 -0.02 0.70 -1.28 11.73 1.26 0.26 -0.17 9699
0.54 -0.04 0.65 -1.38 11.06 1.33 0.22 -0.17 9706
0.52 -0.03 0.67 -1.49 11.32 1.40 0.15 -0.17 9713
0.51 -0.02 0.80 -1.52 11.29 1.47 0.06 -0.18 9720
0.49 -0.01 0.86 -1.66 11.54 1.55 0.00 -0.19 9728
0.47 -0.02 0.76 -1.88 11.07 1.61 -0.04 -0.20 9735
0.43 -0.02 0.80 -2.00 11.07 1.72 -0.11 -0.21 9742
0.40 -0.03 1.05 -1.99 10.46 1.80 -0.15 -0.21 9749
0.36 -0.03 0.78 -2.19 10.84 1.84 -0.19 -0.22 9756
0.35 -0.02 0.81 -2.30 10.95 1.91 -0.20 -0.23 9763
0.34 -0.02 0.82 -2.63 10.85 2.00 -0.23 -0.23 9771
0.26 -0.02 0.82 -2.70 10.63 2.01 -0.27 -0.23 9778
0.23 -0.02 0.44 -2.80 10.42 2.03 -0.33 -0.23 9785
0.20 -0.02 0.91 -3.03 10.07 2.07 -0.28 -0.24 9791
0.13 -0.01 0.66 -2.90 9.24 2.08 -0.24 -0.24 9798
0.08 -0.00 0.32 -3.37 9.79 2.04 -0.21 -0.22 9805
0.09 -0.01 0.46 -3.67 9.67 2.03 -0.14 -0.21 9812
0.07 -0.01 0.39 -3.85 9.69 1.97 -0.05 -0.20 9820
0.06 -0.01 0.51 -4.16 10.03 1.91 0.06 -0.19 9827
0.05 -0.00 0.77 -4.38 10.41 1.82 0.12 -0.17 9834
0.06 -0.01 0.74 -4.60 10.37 1.73 0.24 -0.15 9841
0.05 -0.00 0.83 -4.76 10.28 1.61 0.36 -0.14 9849
0.06 -0.01 1.03 -4.64 10.38 1.50 0.48 -0.15 9856
0.05 -0.01 0.87 -4.70 10.40 1.38 0.49 -0.16 9863
0.04 -0.00 0.75 -4.16 10.56 1.24 0.46 -0.16 9870
0.02 -0.00 0.51 -3.43 10.89 1.09 0.36 -0.17 9877
0.00 -0.00 0.04 -2.26 10.24 0.98 0.20 -0.17 9884
0.00 0.00 0.03 -1.72 8.80 0.83 -0.04 -0.18 9891
0.01 -0.00 -0.15 -1.04 7.19 0.71 -0.27 -0.16 9899
0.01 -0.00 0.08 -2.03 6.23 0.58 -0.42 -0.16 9906
0.01 -0.00 0.69 -2.02 6.69 0.48 -0.56 -0.16 9913
0.00 -0.00 1.72 -0.92 6.61 0.43 -0.61 -0.15 9920
0.01 -0.00 2.05 0.35 7.62 0.34 -0.63 -0.16 9927
0.01 -0.00 1.49 -2.36 7.57 0.14 -0.62 -0.18 9934
0.01 -0.00 1.79 0.42 8.86 0.10 -0.63 -0.20 9942
0.01 -0.00 2.12 -0.90 8.25 0.02 -0.57 -0.24 9949
0.00 0.00 2.66 -0.55 8.64 -0.02 -0.57 -0.27 9956
0.00 0.00 2.43 -1.16 6.85 -0.01 -0.57 -0.27 9963
0.00 0.00 2.20 -3.32 7.69 0.01 -0.47 -0.32 9970
0.03 -0.00 3.08 2.41 10.58 0.06 -0.40 -0.35 9977
0.03 -0.00 2.19 -0.91 7.59 -0.06 -0.23 -0.38 9985
0.00 0.00 1.66 -2.35 9.09 -0.13 -0.03 -0.41 9992
0.00 0.00 2.17 0.50 10.05 -0.20 0.09 -0.41 9999
0.00 0.00 2.11 -0.60 8.63 -0.33 0.32 -0.41 10006
0.02 -0.00 2.35 -0.16 8.85 -0.37 0.44 -0.37 10013
0.03 -0.00 1.45 0.71 8.87 -0.42 0.49 -0.34 10020
0.00 0.00 0.09 -2.63 6.71 -0.47 0.48 -0.31 10028
0.00 0.00 0.74 0.56 10.74 -0.48 0.41 -0.28 10035
0.00 0.00 -0.12 -3.79 9.42 -0.53 0.34 -0.25 10042
0.00 0.00 1.73 -1.55 12.12 -0.47 0.26 -0.29 10049
-0.00 0.00 1.64 0.03 9.06 -0.59 0.22 -0.31 10056
0.00 0.00 -0.54 -5.17 6.70 -0.58 0.26 -0.35 10063
0.00 0.00 0.74 1.20 10.76 -0.70 0.32 -0.39 10071
0.00 0.00 -0.39 -2.02 8.61 -0.71 0.34 -0.42 10078
0.00 0.00 -1.23 -2.46 11.60 -0.62 0.33 -0.45 10085
0.00 0.00 -0.40 1.27 9.92 -0.73 0.20 -0.47 10092
0.00 0.00 -0.12 -1.52 6.52 -0.70 0.08 -0.50 10099
0.00 0.00 0.52 -1.36 9.30 -0.67 0.03 -0.48 10106
0.00 0.00 -0.11 -2.98 10.92 -0.77 0.03 -0.44 10114
0.00 0.00 3.82 2.43 11.37 -0.77 0.01 -0.44 10121
0.00 0.00 1.81 -3.98 6.51 -0.84 0.01 -0.42 10128
0.00 0.00 3.43 -2.10 8.96 -0.81 0.13 -0.36 10135
0.00 0.00 1.43 -2.18 10.95 -0.89 0.26 -0.30 10142
0.00 0.00 1.68 -3.00 7.77 -0.79 0.29 -0.27 10149
0.00 0.00 1.39 -3.72 7.56 -0.95 0.31 -0.18 10157
0.00 0.00 1.04 -3.36 12.97 -0.85 0.41 -0.10 10164
0.00 0.00 1.41 -1.74 9.42 -0.93 0.38 -0.02 10171
0.00 0.00 -0.34 -2.14 7.92 -0.86 0.35 0.08 10178
0.00 0.00 1.26 -1.31 6.93 -0.87 0.30 0.16 10185
0.00 0.00 -0.39 -2.81 10.10 -0.82 0.26 0.19 10192
0.00 0.00 -0.50 -2.87 7.78 -0.86 0.16 0.24 10200
0.00 0.00 0.85 -3.76 8.33 -0.74 0.17 0.27 10207
0.00 0.00 -1.88 -4.22 10.49 -0.86 0.13 0.24 10214
0.00 0.00 -2.09 -6.38 10.19 -0.74 0.03 0.19 10221
0.00 0.00 0.82 -4.08 12.17 -0.84 0.03 0.18 10228
0.00 0.00 0.03 -1.25 8.45 -0.78 0.05 0.10 10235
0.00 0.00 -0.76 -4.02 8.04 -0.79 0.01 0.09 10243
0.00 0.00 -1.20 -5.18 10.82 -0.80 0.04 0.06 10250
0.00 0.00 -0.75 -6.42 11.82 -0.78 0.07 0.04 10257
0.00 0.00 1.88 -3.83 11.87 -0.78 0.10 0.03 10264
0.01 -0.00 -0.32 -4.55 10.86 -0.76 0.07 0.04 10271
0.00 0.00 -0.22 -2.66 8.33 -0.72 0.01 0.07 10278
0.00 0.00 -1.45 -4.81 8.94 -0.74 0.00 0.11 10286
0.00 0.00 -1.47 -3.63 10.09 -0.72 0.03 0.16 10293
0.00 0.00 -1.11 -4.73 9.05 -0.69 0.05 0.21 10300
0.00 0.00 -0.67 -4.64 11.29 -0.65 0.07 0.25 10307
0.00 -0.00 0.09 -2.81 9.14 -0.65 0.09 0.26 10314
0.00 0.00 0.24 -2.18 8.49 -0.66 0.13 0.26 10321
0.00 0.00 0.14 -1.86 11.00 -0.72 0.20 0.26 10329
0.00 0.00 -0.28 -3.07 10.84 -0.75 0.22 0.25 10336
0.00 0.00 0.56 -1.52 9.06 -0.81 0.23 0.24 10343
0.00 0.00 0.46 -2.00 10.33 -0.84 0.22 0.25 10350
0.00 0.00 0.54 -1.51 9.96 -0.85 0.21 0.26 10357
0.00 0.00 0.94 -1.54 10.28 -0.86 0.18 0.27 10364
0.00 0.00 0.85 -1.73 9.99 -0.87 0.18 0.27 10372
0.00 0.00 0.70 -1.57 10.39 -0.88 0.22 0.27 10379
0.00 0.00 0.68 -1.42 10.25 -0.89 0.23 0.27 10386
0.00 0.00 0.81 -1.44 10.40 -0.90 0.24 0.25 10393
0.00 0.00 0.73 -1.51 10.64 -0.92 0.23 0.23 10400
0.00 0.00 0.97 -1.87 10.66 -0.95 0.23 0.21 10407
0.00 0.00 0.97 -2.36 10.54 -0.99 0.23 0.17 10415
0.00 0.00 0.89 -2.69 10.27 -1.01 0.21 0.13 10422
0.00 0.00 0.76 -2.98 10.04 -0.99 0.24 0.08 10429
0.00 0.00 0.52 -3.02 9.68 -0.94 0.27 0.03 10436
0.00 0.00 0.14 -3.00 9.42 -0.87 0.31 0.00 10443
0.00 0.00 0.07 -2.67 9.51 -0.77 0.37 -0.00 10450
0.00 0.00 0.17 -2.52 9.87 -0.75 0.38 0.01 10458
0.00 0.00 0.22 -2.51 10.07 -0.71 0.36 0.02 10465
0.00 0.00 0.50 -2.17 10.15 -0.69 0.38 0.03 10472
0.00 0.00 0.57 -1.88 10.17 -0.70 0.38 0.04 10479
0.00 0.00 0.57 -1.95 10.35 -0.70 0.42 0.07 10486
0.00 0.00 0.39 -1.80 10.15 -0.73 0.42 0.08 10493
0.00 0.00 0.36 -1.79 10.09 -0.76 0.41 0.10 10501
0.00 0.00 0.14 -1.72 9.99 -0.79 0.38 0.13 10508
0.00 0.00 0.16 -1.75 9.97 -0.81 0.34 0.14 10515
0.00 0.00 0.33 -1.88 9.85 -0.82 0.31 0.16 10522
0.00 0.00 0.44 -1.88 9.70 -0.82 0.31 0.17 10529
0.00 0.00 0.56 -1.99 9.65 -0.82 0.35 0.16 10536
0.00 0.00 -1.55 -7.41 12.66 -0.77 0.15 0.13 10544
0.00 0.00 -2.84 -6.00 11.64 -0.44 -0.26 0.02 10551
0.00 0.00 -0.24 -3.81 5.93 -0.35 -0.15 -0.00 10558
0.00 0.00 -1.16 -8.35 8.72 -0.25 -0.19 -0.03 10565
0.00 0.00 -1.40 -10.22 8.85 -0.09 -0.12 -0.08 10572
0.00 0.00 -1.11 -9.65 5.69 0.11 -0.04 -0.12 10579
-0.00 0.01 -1.98 -10.73 6.90 0.28 -0.19 -0.19 10587
-0.00 0.01 -2.97 -14.52 7.53 0.48 -0.43 -0.24 10594
0.00 0.02 -4.96 -20.50 4.00 0.73 -0.42 -0.22 10601
-0.00 0.02 -6.09 -24.95 2.08 1.12 -0.52 -0.19 10608
-0.00 0.03 -3.60 -21.08 21.14 1.49 -1.16 -0.25 10616
-0.00 0.03 2.14 -1.01 17.94 0.26 -1.07 -0.16 10622
-0.01 0.05 0.26 -1.41 7.74 -0.24 0.03 0.04 10630
-0.01 0.13 0.20 -1.19 9.91 -0.32 -0.05 -0.01 10637
-0.01 0.14 0.27 -0.86 9.99 -0.21 -0.04 -0.01 10644
-0.02 0.16 0.88 -0.13 9.81 -0.14 -0.05 -0.04 10651
-0.00 0.20 0.68 -0.46 9.82 -0.13 -0.05 -0.06 10658
-0.01 0.20 0.47 -0.96 10.10 -0.11 -0.04 -0.07 10665
-0.00 0.27 0.07 -0.79 10.10 -0.04 -0.01 -0.06 10673
0.01 0.27 0.20 -0.68 9.89 -0.05 0.03 -0.06 10680
0.02 0.28 0.39 -0.81 9.88 -0.04 0.06 -0.06 10687
0.01 0.26 0.37 -0.80 9.84 -0.03 0.07 -0.05 10694
0.02 0.24 0.40 -0.80 10.42 -0.03 0.07 -0.05 10701
0.01 0.26 0.46 -0.78 9.86 -0.03 0.08 -0.05 10708
0.01 0.30 0.53 -0.79 9.83 -0.03 0.07 -0.05 10716
0.01 0.33 0.49 -0.81 9.78 -0.03 0.07 -0.04 10723
0.03 0.30 0.55 -0.83 9.79 -0.03 0.06 -0.05 10730
0.02 0.30 0.51 -0.78 9.81 -0.03 0.06 -0.05 10737
0.01 0.30 0.52 -0.75 9.78 -0.03 0.06 -0.05 10744
0.00 0.34 0.46 -0.76 9.77 -0.02 0.06 -0.06 10752
0.01 0.32 0.47 -0.77 9.80 -0.02 0.06 -0.06 10759
0.03 0.30 0.49 -0.76 9.81 -0.02 0.06 -0.06 10766
0.04 0.31 0.52 -0.78 9.70 -0.02 0.05 -0.10 10773
0.04 0.32 0.45 -0.76 9.79 -0.02 0.05 -0.07 10780
0.06 0.31 0.41 -0.79 9.83 -0.02 0.05 -0.07 10787
0.05 0.31 0.45 -0.77 10.38 -0.02 0.05 -0.06 10795
0.06 0.33 0.38 -0.80 9.82 -0.02 0.05 -0.06 10802
0.08 0.33 0.47 -0.80 9.78 -0.02 0.05 -0.06 10809
0.08 0.35 0.44 -0.74 9.83 -0.01 0.05 -0.06 10816
0.07 0.35 0.47 -0.78 9.79 -0.01 0.05 -0.06 10823
0.08 0.35 0.52 -0.80 9.82 -0.01 0.05 -0.06 10830
0.06 0.33 0.52 -0.78 9.83 -0.01 0.05 -0.07 10838
0.06 0.35 0.48 -0.78 9.81 -0.01 0.04 -0.07 10845
0.07 0.33 0.48 -0.79 9.81 -0.01 0.04 -0.07 10852
0.06 0.32 0.52 -0.73 9.81 -0.01 0.04 -0.08 10859
0.08 0.32 0.47 -0.77 9.82 -0.00 0.04 -0.07 10866
0.07 0.32 0.47 -0.76 9.82 -0.00 0.04 -0.08 10873
0.08 0.33 0.47 -0.75 9.77 -0.00 0.04 -0.08 10881
0.10 0.35 0.48 -0.78 9.82 -0.00 0.04 -0.08 10888
0.13 0.35 0.52 -0.78 9.80 0.00 0.04 -0.08 10895
0.12 0.34 0.50 -0.79 9.81 0.00 0.04 -0.08 10902
0.12 0.33 0.48 -0.77 9.78 0.00 0.03 -0.08 10909
0.11 0.31 0.46 -0.78 9.82 0.00 0.03 -0.08 10916
0.12 0.30 0.47 -0.79 9.20 0.00 0.03 -0.08 10924
0.13 0.31 0.46 -0.80 9.77 0.00 0.03 -0.08 10931
0.14 0.29 0.48 -0.82 9.83 0.00 0.03 -0.08 10938
0.13 0.29 0.47 -0.75 9.80 0.01 0.03 -0.08 10945
0.13 0.27 0.46 -0.77 9.78 0.01 0.03 -0.09 10952
0.13 0.26 0.44 -0.81 9.81 0.01 0.03 -0.09 10959
0.13 0.24 0.50 -0.80 9.80 0.00 0.04 -0.09 10967
0.17 0.23 0.45 -0.79 9.79 0.00 0.04 -0.08 10974
0.16 0.22 0.50 -0.82 9.81 0.00 0.03 -0.08 10981
0.16 0.21 0.47 -0.79 9.80 0.00 0.04 -0.08 10988
0.16 0.22 0.46 -0.79 9.81 0.00 0.03 -0.08 10995
0.15 0.22 0.47 -0.82 9.82 0.01 0.03 -0.08 11002
0.17 0.21 0.46 -0.81 9.78 0.00 0.04 -0.09 11010
0.19 0.21 0.47 -0.82 9.82 0.00 0.03 -0.08 11017
0.17 0.18 0.47 -0.81 9.79 0.00 0.04 -0.09 11024
0.18 0.19 0.49 -0.79 9.80 0.00 0.04 -0.08 11031
0.17 0.20 0.45 -0.84 9.79 0.00 0.04 -0.08 11038
0.17 0.22 0.44 -0.82 9.80 0.00 0.03 -0.08 11045
0.18 0.20 0.48 -0.81 9.78 -0.00 0.04 -0.08 11053
0.19 0.18 0.46 -0.79 9.81 -0.00 0.03 -0.08 11060
0.20 0.17 0.50 -0.80 9.83 0.00 0.03 -0.09 11067
0.20 0.20 0.46 -0.82 9.82 0.00 0.03 -0.08 11074
0.19 0.18 0.42 -0.82 9.78 0.00 0.03 -0.08 11081
0.20 0.19 0.50 -0.81 9.82 -0.00 0.04 -0.08 11088
0.21 0.15 0.48 -0.82 9.82 0.00 0.04 -0.08 11096
0.23 0.14 0.48 -0.80 9.83 -0.00 0.03 -0.08 11103
0.22 0.14 0.45 -0.81 9.81 -0.00 0.04 -0.08 11110
0.22 0.12 0.49 -0.79 9.80 -0.00 0.03 -0.08 11117
0.22 0.11 0.48 -0.82 9.79 -0.00 0.03 -0.08 11124
0.24 0.11 0.48 -0.82 9.82 -0.01 0.04 -0.08 11131
0.24 0.13 0.45 -0.78 9.81 -0.00 0.03 -0.08 11139
0.25 0.12 0.50 -0.81 9.81 -0.00 0.03 -0.08 11146
0.24 0.12 0.50 -0.82 9.81 -0.00 0.04 -0.08 11153
0.24 0.11 0.43 -0.81 9.80 0.00 0.04 -0.08 11160
0.23 0.11 0.50 -0.80 9.76 -0.00 0.04 -0.08 11167
0.24 0.09 0.48 -0.78 9.79 0.00 0.04 -0.08 11174
0.27 0.13 0.44 -0.81 9.20 -0.00 0.04 -0.08 11182
0.27 0.10 0.42 -0.80 9.81 0.00 0.05 -0.08 11189
0.28 0.08 0.45 -0.83 9.84 0.01 0.04 -0.08 11196
0.29 0.08 0.42 -0.81 9.81 0.01 0.05 -0.09 11203
0.27 0.06 0.47 -0.81 9.81 0.01 0.05 -0.08 11210
0.28 0.05 0.48 -0.85 9.80 0.01 0.05 -0.08 11217
0.29 0.04 0.47 -0.86 9.80 0.01 0.05 -0.09 11225
0.31 0.00 0.46 -0.85 9.78 0.02 0.05 -0.09 11232
0.34 0.02 0.46 -0.81 9.79 0.02 0.06 -0.09 11239
0.36 -0.02 0.48 -0.83 9.83 0.02 0.06 -0.09 11246
0.36 -0.01 0.46 -0.84 9.79 0.03 0.06 -0.09 11253
0.39 -0.01 0.46 -0.92 9.82 0.03 0.06 -0.09 11260
0.43 -0.01 0.48 -0.84 9.85 0.04 0.07 -0.09 11268
0.46 -0.01 0.50 -0.82 9.84 0.05 0.07 -0.09 11275
0.47 -0.02 0.49 -0.87 9.82 0.06 0.08 -0.10 11282
0.47 -0.03 0.50 -0.89 9.85 0.08 0.09 -0.10 11289
0.47 -0.02 0.52 -0.88 9.87 0.10 0.10 -0.09 11296
0.48 -0.01 0.54 -0.94 9.91 0.13 0.11 -0.10 11303
0.49 -0.02 0.56 -0.87 9.95 0.17 0.13 -0.10 11311
0.53 -0.03 0.53 -0.93 10.08 0.23 0.16 -0.10 11318
0.56 -0.04 0.64 -1.06 10.35 0.32 0.20 -0.12 11326
0.55 -0.02 0.64 -1.03 10.85 0.50 0.26 -0.14 11333
0.57 -0.00 0.71 -0.99 11.21 0.74 0.33 -0.15 11340
0.58 -0.00 0.73 -1.09 11.46 1.05 0.35 -0.16 11347
0.60 -0.03 0.73 -1.25 11.78 1.26 0.28 -0.17 11355
0.62 -0.03 0.66 -1.26 11.67 1.35 0.22 -0.18 11362
0.60 -0.03 0.61 -1.27 11.93 1.42 0.15 -0.18 11369
0.58 -0.03 0.76 -1.33 11.76 1.47 0.08 -0.18 11376
0.58 -0.02 0.65 -1.52 11.52 1.55 0.05 -0.19 11383
0.58 -0.02 0.77 -1.53 11.21 1.63 -0.00 -0.19 11390
0.56 -0.03 0.65 -1.73 10.64 1.69 -0.09 -0.20 11398
0.55 -0.03 0.68 -1.83 10.11 1.74 -0.18 -0.20 11405
0.51 -0.02 0.63 -1.99 10.56 1.74 -0.26 -0.19 11412
0.44 -0.02 0.65 -2.12 10.30 1.74 -0.25 -0.18 11419
0.42 -0.02 0.68 -2.28 10.03 1.76 -0.25 -0.16 11426
0.38 -0.02 0.41 -2.50 10.04 1.78 -0.24 -0.13 11433
0.35 -0.02 0.34 -2.52 9.75 1.78 -0.20 -0.12 11440
0.30 -0.02 0.22 -2.72 9.74 1.78 -0.20 -0.11 11447
0.20 -0.02 0.34 -2.79 9.79 1.77 -0.16 -0.09 11454
0.19 -0.02 0.39 -3.08 10.12 1.77 -0.12 -0.08 11461
0.14 -0.00 0.00 -2.92 8.93 1.79 -0.12 -0.07 11468
0.13 -0.01 0.34 -3.45 9.83 1.77 -0.08 -0.06 11475
0.11 -0.01 0.41 -3.60 9.44 1.74 0.00 -0.07 11483
0.09 -0.01 0.32 -3.86 9.38 1.68 0.02 -0.07 11490
0.05 -0.00 0.55 -4.05 9.58 1.59 0.08 -0.06 11497
0.04 -0.00 0.45 -4.28 9.91 1.51 0.11 -0.06 11504
0.05 0.00 0.22 -4.41 10.02 1.43 0.15 -0.05 11511
0.08 -0.01 0.10 -4.45 10.50 1.35 0.17 -0.03 11518
0.04 -0.00 0.12 -4.57 10.95 1.28 0.15 -0.02 11526
0.03 -0.00 0.03 -4.63 11.48 1.20 0.05 -0.01 11533
0.02 -0.00 0.07 -4.42 11.67 1.11 -0.05 -0.01 11540
0.03 -0.00 0.05 -4.16 11.09 0.99 -0.15 -0.01 11547
0.01 -0.00 0.28 -3.68 10.40 0.88 -0.28 -0.00 11554
0.02 -0.00 0.72 -3.19 9.23 0.79 -0.42 -0.01 11561
0.00 0.00 1.20 -2.46 8.67 0.70 -0.48 -0.02 11569
0.00 0.00 1.79 -1.49 8.09 0.63 -0.51 -0.05 11576
0.00 0.00 2.36 -0.21 7.74 0.57 -0.50 -0.08 11583
0.02 -0.00 2.51 0.12 7.52 0.50 -0.46 -0.13 11590
0.01 -0.00 2.36 1.34 7.91 0.43 -0.42 -0.19 11597
0.03 -0.00 2.76 3.16 8.44 0.30 -0.34 -0.26 11604
0.00 0.00 2.17 2.46 7.77 0.09 -0.26 -0.29 11612
0.00 0.00 2.23 4.25 8.59 -0.04 -0.22 -0.29 11619
0.01 -0.00 2.64 3.70 8.25 -0.18 -0.17 -0.29 11626
0.00 0.00 2.20 0.64 7.80 -0.28 -0.20 -0.28 11633
0.04 -0.00 1.48 2.58 11.06 -0.29 -0.22 -0.22 11640
0.00 0.00 2.13 -0.36 7.30 -0.38 -0.15 -0.17 11648
0.00 0.00 1.70 -0.69 9.33 -0.39 -0.07 -0.11 11655
0.00 0.00 2.30 1.09 9.76 -0.47 -0.00 -0.05 11662
0.00 0.00 1.75 -0.25 7.88 -0.50 0.07 0.04 11669
0.00 -0.00 1.41 -1.52 8.56 -0.48 0.14 0.11 11676
0.01 -0.00 1.69 -0.98 10.32 -0.54 0.20 0.17 11683
0.00 -0.00 1.32 -1.19 8.56 -0.55 0.22 0.23 11691
0.02 -0.00 1.03 -1.63 8.67 -0.49 0.23 0.27 11698
0.01 -0.00 0.79 -2.04 8.73 -0.49 0.22 0.30 11705
0.02 -0.00 0.07 -1.61 8.91 -0.47 0.20 0.28 11712
0.02 0.00 0.63 -2.14 8.94 -0.52 0.19 0.28 11719
0.04 -0.00 0.53 -2.95 12.06 -0.46 0.23 0.25 11726
0.02 -0.00 -0.59 -5.98 7.60 -0.51 0.22 0.20 11734
0.02 -0.00 0.31 -1.96 11.07 -0.65 0.26 0.15 11741
0.02 -0.00 -0.78 -3.85 6.90 -0.59 0.19 0.11 11748
0.01 -0.00 -0.93 -2.93 10.30 -0.73 0.16 0.06 11755
0.02 -0.00 0.14 -1.16 11.14 -0.72 0.04 0.05 11762
0.03 -0.00 0.99 -3.81 7.41 -0.72 -0.00 0.05 11769
0.02 -0.00 1.13 -3.97 9.19 -0.75 0.04 0.03 11777
0.02 -0.00 0.73 -2.74 8.06 -0.74 0.02 0.02 11784
0.01 -0.00 1.47 -1.65 6.79 -0.76 0.08 -0.00 11791
0.02 -0.00 1.07 -1.81 7.22 -0.76 0.11 0.00 11798
0.00 0.00 0.67 -2.90 9.13 -0.69 0.12 -0.00 11805
0.00 0.00 -0.24 -2.43 10.36 -0.72 0.13 -0.00 11812
0.00 0.00 0.53 -2.30 8.73 -0.69 0.10 -0.02 11820
0.00 0.00 0.02 -2.22 10.05 -0.70 0.06 -0.02 11827
0.00 0.00 0.60 -0.91 11.92 -0.77 0.06 -0.03 11834
0.00 0.00 0.02 -1.79 12.72 -0.78 0.04 -0.02 11841
0.00 0.00 -0.11 -2.26 8.92 -0.78 0.07 0.02 11848
0.00 0.00 1.78 -0.53 11.70 -0.76 0.11 0.06 11855
0.00 0.00 2.23 -1.52 5.16 -0.79 0.08 0.07 11863
0.00 0.00 0.88 -2.42 12.10 -0.84 0.13 0.12 11870
0.00 0.00 0.97 -2.57 12.14 -0.94 0.15 0.14 11877
0.00 0.00 -0.78 -3.49 13.25 -0.97 0.14 0.16 11884
0.00 -0.00 0.92 -1.63 10.22 -1.02 0.12 0.17 11891
0.00 0.00 1.28 -1.45 10.01 -1.06 0.11 0.18 11898
0.00 0.00 1.08 -1.71 9.88 -1.07 0.11 0.17 11906
0.00 0.00 1.05 -2.21 9.86 -1.09 0.14 0.15 11913
0.00 0.00 1.06 -2.55 10.14 -1.09 0.17 0.12 11920
0.00 0.00 0.93 -2.56 10.20 -1.07 0.19 0.09 11927
0.00 0.00 0.80 -2.36 10.05 -1.04 0.20 0.08 11934
0.00 0.00 0.81 -2.21 10.08 -1.00 0.20 0.08 11941
0.00 0.00 0.80 -2.17 10.19 -0.98 0.23 0.08 11949
0.00 0.00 0.77 -2.17 10.18 -0.95 0.20 0.09 11956
0.00 0.00 0.77 -2.22 10.04 -0.94 0.20 0.10 11963
0.00 0.00 0.61 -2.34 9.99 -0.91 0.19 0.11 11970
0.00 0.00 0.52 -2.58 10.20 -0.89 0.17 0.12 11977
0.00 0.00 0.42 -2.93 10.37 -0.87 0.13 0.13 11984
0.00 0.00 0.44 -3.20 10.54 -0.86 0.08 0.12 11992
0.00 0.00 0.64 -3.37 11.02 -0.88 0.05 0.10 11999
0.00 0.00 0.95 -3.38 10.93 -0.92 0.08 0.07 12006
0.00 0.00 0.98 -3.42 10.52 -0.98 0.16 0.05 12013
0.00 0.00 0.82 -3.27 9.98 -1.00 0.25 0.03 12020
0.00 0.00 0.55 -3.24 9.75 -0.98 0.31 0.03 12027
0.00 0.00 0.27 -3.10 9.63 -0.93 0.34 0.04 12035
0.00 0.00 0.14 -2.86 9.63 -0.88 0.33 0.05 12042
0.00 0.00 0.11 -2.57 9.73 -0.81 0.29 0.07 12049
0.00 0.00 0.22 -2.44 9.89 -0.77 0.25 0.07 12056
0.00 0.00 0.40 -2.48 9.91 -0.74 0.21 0.06 12063
0.00 0.00 0.74 -2.71 9.83 -0.71 0.16 0.02 12070
0.00 0.00 0.92 -3.02 10.01 -0.66 0.13 -0.04 12078
0.00 0.00 0.93 -3.07 9.41 -0.60 0.13 -0.10 12085
0.00 0.00 1.14 -3.06 9.29 -0.53 0.13 -0.16 12092
0.00 0.00 1.09 -3.29 9.20 -0.46 0.10 -0.20 12099
0.00 0.00 1.01 -3.23 9.45 -0.39 0.13 -0.23 12106
0.00 0.00 1.23 -3.05 9.80 -0.36 0.17 -0.22 12113
0.00 0.00 1.32 -2.96 10.23 -0.38 0.28 -0.21 12121
0.00 0.00 1.53 -2.65 10.15 -0.44 0.41 -0.18 12128
0.00 0.00 1.11 -2.48 9.99 -0.52 0.49 -0.13 12135
0.00 0.00 0.99 -2.43 10.12 -0.60 0.54 -0.08 12142
0.00 0.00 0.74 -2.53 9.99 -0.63 0.54 -0.03 12149
0.00 0.00 0.83 -2.57 9.78 -0.64 0.54 0.02 12156
0.00 0.00 0.95 -2.68 9.32 -0.62 0.54 0.05 12164
0.00 0.00 -0.45 -6.29 11.05 -0.56 0.45 0.06 12171
0.00 0.00 -2.42 -5.10 12.24 -0.14 -0.24 -0.03 12178
0.00 0.00 0.71 -2.33 4.70 -0.14 -0.03 -0.03 12185
0.00 0.00 0.09 -5.02 8.28 -0.14 -0.08 -0.02 12192
0.00 0.00 -0.68 -7.30 11.22 -0.08 -0.31 -0.14 12199
0.00 0.00 -0.46 -5.09 8.41 0.02 -0.27 -0.24 12207
0.00 0.00 0.13 -5.24 7.57 0.04 -0.21 -0.26 12214
0.00 0.00 -0.92 -6.09 8.53 0.02 -0.30 -0.33 12221
0.00 0.00 -1.38 -6.84 10.46 0.05 -0.44 -0.47 12228
0.00 0.00 -0.69 -6.13 8.74 0.12 -0.43 -0.48 12235
0.00 0.00 -0.95 -6.75 8.25 0.23 -0.26 -0.41 12242
0.00 0.00 -2.45 -10.59 10.08 0.35 -0.21 -0.33 12250
0.00 0.00 -2.49 -11.76 6.10 0.45 -0.34 -0.25 12257
-0.00 0.01 -2.05 -9.53 5.65 0.69 -0.42 -0.15 12264
-0.00 0.02 -3.44 -13.45 8.49 0.86 -0.75 -0.01 12271
-0.00 0.01 -3.35 -14.58 7.27 1.12 -0.70 0.26 12278
-0.00 0.01 -6.12 -7.84 25.67 1.28 -0.61 0.39 12285
-0.00 0.03 -0.83 -1.17 13.29 0.02 -0.08 0.06 12293
-0.00 0.03 -0.37 -1.86 9.72 -0.11 0.07 -0.02 12300
0.02 0.03 -0.01 -1.34 9.67 -0.18 0.05 -0.07 12307
0.02 0.02 0.65 -0.91 9.83 -0.15 0.10 -0.08 12314
0.03 0.04 0.80 -0.93 9.94 -0.09 0.11 -0.07 12321
0.01 0.00 0.71 -0.77 9.85 -0.10 0.07 -0.05 12328
-0.00 0.01 0.43 -0.94 9.89 -0.11 0.06 -0.04 12336
-0.00 0.04 0.44 -1.07 9.89 -0.08 0.07 -0.05 12343
-0.00 0.09 0.39 -1.14 9.82 -0.06 0.08 -0.05 12350
-0.01 0.10 0.44 -1.07 9.83 -0.07 0.07 -0.05 12357
-0.01 0.10 0.53 -1.10 9.84 -0.07 0.07 -0.04 12364
-0.01 0.09 0.55 -1.05 9.86 -0.06 0.07 -0.05 12371
-0.01 0.11 0.55 -0.99 9.82 -0.06 0.06 -0.04 12379
-0.01 0.15 0.57 -1.03 9.81 -0.05 0.05 -0.05 12386
0.01 0.11 0.62 -1.03 9.81 -0.05 0.05 -0.05 12393
0.01 0.12 0.58 -0.99 9.76 -0.05 0.03 -0.05 12400
0.01 0.13 0.59 -0.99 9.77 -0.05 0.03 -0.05 12407
-0.01 0.14 0.56 -0.96 9.71 -0.04 0.02 -0.06 12414
0.01 0.17 0.55 -0.99 9.76 -0.05 0.02 -0.06 12422
0.02 0.19 0.53 -0.96 9.82 -0.05 0.02 -0.06 12429
0.02 0.22 0.50 -1.01 9.75 -0.06 0.02 -0.07 12436
0.02 0.22 0.54 -1.00 9.74 -0.06 0.01 -0.06 12443
0.03 0.20 0.52 -1.02 9.78 -0.07 0.01 -0.07 12450
0.02 0.23 0.53 -0.98 9.77 -0.07 0.01 -0.07 12457
0.02 0.26 0.52 -0.94 9.79 -0.08 0.02 -0.07 12465
0.03 0.29 0.48 -0.97 9.75 -0.08 0.02 -0.06 12472
0.02 0.32 0.50 -0.98 9.84 -0.08 0.03 -0.07 12479
0.00 0.38 0.46 -0.95 9.64 -0.07 0.03 -0.07 12486
0.00 0.38 0.49 -0.99 9.82 -0.07 0.03 -0.07 12493
-0.00 0.38 0.52 -0.98 9.85 -0.07 0.03 -0.06 12500
0.00 0.45 0.49 -0.95 9.96 -0.06 0.04 -0.10 12508
0.02 0.50 0.49 -0.95 9.85 -0.06 0.04 -0.07 12515
0.00 0.45 0.47 -0.89 9.88 -0.06 0.04 -0.07 12522
0.00 0.48 0.54 -0.94 9.83 -0.05 0.04 -0.07 12529
-0.02 0.54 0.54 -0.93 9.77 -0.04 0.05 -0.07 12536
-0.01 0.62 0.52 -0.89 9.81 -0.04 0.04 -0.08 12544
-0.00 0.65 0.55 -0.90 9.82 -0.03 0.05 -0.08 12551
0.01 0.64 0.51 -0.94 9.80 -0.02 0.05 -0.08 12558
-0.01 0.68 0.52 -0.93 9.85 -0.02 0.04 -0.08 12565
0.00 0.67 0.51 -0.93 9.81 -0.01 0.05 -0.08 12572
-0.01 0.67 0.51 -0.91 9.82 -0.01 0.05 -0.08 12579
-0.01 0.68 0.54 -0.90 9.82 -0.00 0.05 -0.08 12587
-0.01 0.66 0.52 -0.91 9.82 -0.01 0.04 -0.07 12594
0.00 0.63 0.52 -0.91 9.80 0.00 0.05 -0.08 12601
0.00 0.61 0.53 -0.90 9.81 -0.00 0.05 -0.08 12608
0.00 0.60 0.54 -0.94 9.82 -0.00 0.05 -0.08 12615
-0.02 0.59 0.54 -0.91 9.81 0.00 0.05 -0.09 12622
0.00 0.59 0.52 -0.91 9.80 0.00 0.05 -0.08 12630
-0.00 0.58 0.51 -0.94 9.80 -0.00 0.04 -0.08 12637
0.01 0.56 0.53 -0.93 9.81 -0.00 0.05 -0.08 12644
0.00 0.55 0.52 -0.93 9.78 0.00 0.05 -0.09 12651
0.01 0.53 0.50 -0.92 9.81 -0.00 0.04 -0.09 12658
-0.01 0.52 0.52 -0.95 9.80 -0.00 0.05 -0.08 12665
0.00 0.53 0.51 -0.93 9.78 -0.00 0.04 -0.09 12673
0.01 0.54 0.53 -0.94 9.80 -0.00 0.04 -0.09 12680
0.01 0.52 0.55 -0.92 9.80 -0.01 0.04 -0.09 12687
-0.00 0.53 0.56 -0.92 9.80 -0.01 0.04 -0.09 12694
-0.00 0.52 0.53 -0.94 9.79 -0.01 0.04 -0.09 12701
-0.00 0.53 0.50 -0.92 9.81 -0.01 0.04 -0.09 12708
0.00 0.54 0.51 -0.94 9.79 -0.01 0.04 -0.08 12716
0.01 0.55 0.53 -0.94 9.81 -0.01 0.04 -0.09 12723
0.01 0.53 0.49 -0.93 9.74 -0.01 0.04 -0.09 12730
0.01 0.53 0.51 -0.90 9.81 -0.01 0.04 -0.08 12737
0.00 0.53 0.54 -0.93 9.82 -0.01 0.04 -0.09 12744
0.00 0.53 0.55 -0.90 9.81 -0.01 0.04 -0.09 12751
0.00 0.56 0.52 -0.93 9.76 -0.01 0.04 -0.09 12759
0.01 0.55 0.51 -0.92 9.75 -0.01 0.04 -0.08 12766
0.01 0.55 0.52 -0.90 9.80 -0.01 0.04 -0.09 12773
-0.00 0.55 0.51 -0.93 9.81 -0.01 0.04 -0.09 12780
-0.00 0.55 0.54 -0.95 10.42 -0.01 0.04 -0.08 12787
0.00 0.56 0.53 -0.94 9.77 -0.01 0.04 -0.09 12794
0.00 0.56 0.53 -0.93 9.77 -0.01 0.04 -0.09 12802
0.01 0.56 0.55 -0.91 9.77 -0.01 0.04 -0.08 12809
0.00 0.56 0.53 -0.92 9.76 -0.01 0.04 -0.09 12816
0.00 0.54 0.52 -0.93 9.79 -0.01 0.04 -0.09 12823
-0.00 0.54 0.52 -0.92 9.81 -0.01 0.04 -0.09 12830
0.01 0.55 0.52 -0.92 9.81 -0.01 0.04 -0.09 12837
0.02 0.55 0.49 -0.91 9.80 -0.01 0.04 -0.09 12845
0.01 0.55 0.53 -0.93 9.80 0.00 0.04 -0.08 12852
0.01 0.55 0.51 -0.93 9.80 0.00 0.04 -0.09 12859
0.01 0.54 0.50 -0.93 9.77 -0.00 0.04 -0.09 12866
-0.00 0.54 0.48 -0.90 9.73 -0.00 0.05 -0.09 12873
0.01 0.54 0.51 -0.93 9.80 0.00 0.05 -0.09 12880
0.02 0.52 0.52 -0.91 9.76 0.00 0.05 -0.09 12888
0.02 0.49 0.53 -0.93 9.75 0.01 0.05 -0.10 12895
0.02 0.49 0.56 -0.93 9.76 0.01 0.05 -0.10 12902
0.04 0.47 0.56 -0.94 9.77 0.01 0.05 -0.10 12909
0.05 0.46 0.51 -0.91 9.20 0.02 0.06 -0.10 12916
0.07 0.44 0.52 -0.94 9.78 0.02 0.06 -0.10 12923
0.08 0.39 0.51 -0.92 9.76 0.02 0.06 -0.10 12931
0.08 0.34 0.52 -0.94 9.80 0.03 0.07 -0.10 12938
0.09 0.25 0.51 -0.92 9.82 0.04 0.07 -0.10 12945
0.11 0.24 0.54 -0.93 9.82 0.04 0.08 -0.10 12952
0.13 0.18 0.52 -0.95 9.81 0.04 0.08 -0.10 12959
0.17 0.14 0.54 -0.95 9.79 0.05 0.09 -0.10 12966
0.18 0.07 0.55 -0.95 9.82 0.05 0.09 -0.10 12974
0.16 0.06 0.58 -0.98 9.81 0.06 0.09 -0.10 12981
0.16 0.00 0.58 -0.99 9.83 0.06 0.10 -0.10 12988
0.18 0.02 0.62 -1.00 9.90 0.07 0.10 -0.10 12995
0.22 -0.01 0.59 -0.94 9.90 0.08 0.11 -0.10 13002
0.26 0.00 0.60 -0.98 9.98 0.11 0.13 -0.09 13009
0.25 -0.02 0.61 -1.04 10.02 0.15 0.14 -0.10 13017
0.26 -0.01 0.65 -1.00 10.13 0.21 0.17 -0.10 13025
0.26 -0.02 0.82 -1.11 10.17 0.29 0.23 -0.10 13032
0.27 -0.02 0.78 -1.06 10.71 0.41 0.31 -0.12 13039
0.30 -0.02 0.84 -1.13 11.36 0.68 0.43 -0.14 13046
0.32 0.00 0.94 -1.20 12.06 1.11 0.48 -0.16 13052
0.32 -0.00 0.95 -1.31 12.25 1.40 0.38 -0.19 13061
0.32 -0.02 0.83 -1.32 12.04 1.53 0.25 -0.22 13068
0.29 -0.02 0.83 -1.42 11.70 1.57 0.17 -0.23 13075
0.28 -0.01 0.82 -1.51 11.42 1.62 0.12 -0.24 13082
0.27 -0.00 0.79 -1.63 10.80 1.68 0.02 -0.23 13088
0.23 -0.01 0.75 -1.78 10.66 1.71 -0.07 -0.22 13096
0.20 -0.02 0.74 -1.95 10.47 1.71 -0.09 -0.22 13103
0.17 -0.01 0.37 -1.87 9.66 1.70 -0.13 -0.20 13110
0.14 -0.01 0.47 -2.10 9.81 1.67 -0.14 -0.19 13117
0.11 -0.01 0.60 -2.23 9.95 1.65 -0.12 -0.17 13124
0.10 -0.01 0.46 -2.46 10.18 1.64 -0.13 -0.15 13132
0.12 -0.01 0.39 -2.42 9.71 1.64 -0.09 -0.13 13138
0.10 -0.01 0.47 -2.74 10.21 1.62 -0.07 -0.12 13146
0.08 -0.01 0.64 -3.04 9.87 1.60 -0.03 -0.11 13153
0.03 -0.00 0.60 -3.14 10.06 1.61 -0.01 -0.10 13160
0.02 -0.00 0.68 -3.33 10.10 1.60 0.02 -0.10 13167
0.03 -0.00 0.90 -3.45 9.92 1.58 0.06 -0.11 13174
0.03 -0.00 0.80 -3.59 10.03 1.56 0.09 -0.11 13181
0.06 -0.01 0.69 -3.69 10.11 1.52 0.10 -0.11 13189
0.04 -0.00 0.82 -3.84 10.09 1.49 0.12 -0.12 13196
0.02 -0.00 0.91 -3.98 10.14 1.46 0.14 -0.12 13203
0.02 0.00 0.84 -3.98 10.01 1.42 0.16 -0.12 13210
0.04 0.01 0.69 -4.08 10.25 1.38 0.18 -0.13 13217
0.02 -0.00 0.80 -4.18 10.20 1.34 0.16 -0.14 13224
0.01 -0.00 0.80 -4.03 10.02 1.29 0.10 -0.14 13232
0.00 -0.00 0.77 -3.71 9.91 1.23 0.05 -0.15 13239
0.00 0.00 0.89 -3.59 9.71 1.15 -0.02 -0.16 13246
0.01 -0.00 1.04 -3.55 9.44 1.06 -0.08 -0.17 13253
0.00 -0.00 1.10 -3.53 9.14 0.98 -0.12 -0.18 13260
0.00 0.00 1.28 -3.13 8.96 0.89 -0.16 -0.19 13267
0.00 0.00 1.10 -2.74 8.41 0.82 -0.20 -0.21 13275
0.00 0.00 0.97 -3.56 8.34 0.73 -0.23 -0.23 13282
0.00 0.00 0.79 -3.51 8.05 0.69 -0.27 -0.25 13289
0.00 0.00 0.84 -3.52 8.42 0.68 -0.31 -0.27 13296
0.00 0.00 0.73 -2.32 8.26 0.65 -0.40 -0.27 13303
0.00 0.00 0.90 -3.18 7.83 0.58 -0.42 -0.30 13310
0.00 0.00 0.98 -3.21 7.90 0.55 -0.45 -0.31 13318
0.00 -0.00 0.51 -1.41 8.27 0.55 -0.44 -0.32 13325
0.00 -0.00 0.63 -0.09 8.83 0.50 -0.37 -0.33 13332
0.00 0.01 0.66 -1.68 9.01 0.35 -0.33 -0.33 13339
0.01 0.00 1.31 0.04 9.96 0.23 -0.23 -0.32 13346
-0.00 0.00 1.45 3.49 9.98 0.10 -0.10 -0.32 13353
-0.00 0.00 0.95 2.80 9.13 -0.13 -0.03 -0.35 13361
0.00 0.00 0.33 1.32 8.32 -0.26 -0.09 -0.39 13368
0.00 0.00 0.41 3.90 9.47 -0.37 -0.15 -0.41 13375
-0.00 0.01 0.85 3.82 8.39 -0.50 -0.21 -0.43 13382
0.00 0.00 0.76 2.77 8.38 -0.56 -0.28 -0.42 13389
0.00 0.00 1.14 2.39 8.64 -0.64 -0.31 -0.40 13396
0.00 0.00 1.70 2.78 9.65 -0.72 -0.30 -0.37 13404
0.00 0.00 1.88 2.24 8.20 -0.79 -0.28 -0.33 13411
-0.00 0.01 1.65 0.29 8.55 -0.81 -0.24 -0.29 13418
-0.00 0.00 1.63 -0.64 9.41 -0.86 -0.17 -0.23 13425
0.00 0.00 1.60 -2.18 11.45 -0.88 -0.14 -0.18 13432
0.00 0.00 2.92 0.89 11.33 -0.92 -0.04 -0.13 13440
0.00 0.00 2.03 -1.64 7.30 -1.01 0.04 -0.08 13447
0.00 0.00 3.13 -3.25 9.57 -1.20 0.15 -0.03 13454
0.00 0.00 4.14 1.41 13.57 -1.14 0.18 0.03 13461
0.00 0.00 0.86 -0.14 4.68 -1.20 0.20 0.07 13468
0.00 0.00 1.37 -2.44 8.34 -1.25 0.27 0.14 13475
0.00 0.00 0.67 -1.90 11.67 -1.16 0.32 0.21 13483
0.00 0.00 0.10 -1.79 11.54 -1.19 0.40 0.28 13490
0.00 0.00 1.22 -0.68 11.33 -1.08 0.43 0.34 13497
0.00 0.00 0.27 -3.54 7.71 -1.06 0.40 0.39 13504
0.00 -0.00 0.45 -4.13 11.03 -0.98 0.42 0.42 13511
0.00 0.00 0.14 -1.70 14.18 -0.99 0.40 0.37 13518
0.00 0.00 0.02 -3.85 7.96 -0.93 0.26 0.34 13526
0.00 0.00 -1.33 -5.33 10.18 -0.98 0.20 0.28 13533
0.00 0.00 -0.40 -3.37 11.26 -0.95 0.13 0.21 13540
0.00 0.00 -0.60 -4.45 10.53 -1.00 0.10 0.13 13547
0.00 0.00 0.95 -2.45 9.75 -1.04 0.14 0.06 13554
0.00 0.00 -0.60 -2.99 9.58 -0.98 0.22 0.03 13561
0.00 0.00 -0.33 -3.12 10.85 -0.99 0.29 0.00 13569
0.00 0.00 -2.55 -2.37 10.01 -0.95 0.31 0.01 13576
0.00 0.00 -0.16 -0.78 11.07 -0.95 0.30 -0.00 13583
0.00 0.00 -1.68 -2.83 11.26 -0.99 0.23 -0.02 13590
0.00 0.00 -0.70 -1.42 11.17 -1.00 0.17 -0.02 13597
0.00 0.00 -0.12 -1.24 10.27 -1.02 0.09 -0.03 13604
0.00 0.00 -0.09 -1.52 9.39 -1.00 0.03 -0.05 13612
0.00 0.00 0.36 -1.46 9.52 -1.00 0.01 -0.07 13619
0.00 0.00 0.63 -1.91 10.72 -1.00 0.04 -0.09 13626
0.00 0.00 0.59 -1.32 10.79 -1.04 0.09 -0.11 13633
0.00 0.00 0.56 -0.63 9.76 -1.05 0.13 -0.13 13640
0.00 0.00 0.62 -0.77 10.10 -1.07 0.18 -0.11 13647
0.00 0.00 0.56 -1.38 10.44 -1.10 0.25 -0.09 13655
0.00 0.00 0.65 -1.47 11.37 -1.13 0.29 -0.07 13662
0.00 0.00 0.54 -1.46 10.52 -1.16 0.27 -0.05 13669
0.00 0.00 0.62 -2.00 10.52 -1.18 0.25 -0.04 13676
0.00 0.00 0.63 -2.28 10.57 -1.18 0.23 -0.02 13683
0.00 0.00 0.73 -2.39 10.52 -1.15 0.22 -0.01 13690
0.00 0.00 0.76 -2.47 10.40 -1.07 0.23 -0.02 13698
0.00 0.00 0.64 -2.39 10.13 -1.04 0.23 -0.04 13705
0.00 0.00 0.35 -2.24 9.87 -0.96 0.25 -0.08 13712
0.00 0.00 0.07 -2.25 9.55 -0.89 0.25 -0.14 13719
0.00 0.00 -0.19 -2.26 9.07 -0.76 0.20 -0.21 13726
0.00 0.00 -0.45 -2.38 8.64 -0.58 0.09 -0.30 13733
0.00 0.00 -0.38 -3.04 8.67 -0.42 0.00 -0.39 13741
0.00 0.00 0.19 -2.41 8.92 -0.23 -0.01 -0.45 13748
0.00 0.00 0.84 -2.77 9.79 -0.09 0.09 -0.51 13755
0.00 -0.00 -0.11 -10.03 20.29 -0.17 0.15 -0.60 13762
0.00 0.00 -3.06 -14.83 29.29 -0.15 0.04 -0.87 13769
0.00 0.00 0.00 -1.71 10.88 0.14 0.03 -1.06 13776
0.00 0.00 1.17 2.58 -0.52 -0.13 0.47 -1.06 13784
0.00 0.00 -0.15 -0.93 8.07 -0.73 0.90 -1.01 13791
0.00 0.00 0.22 -5.73 14.32 -1.02 1.01 -0.98 13798
0.00 0.00 -1.04 -3.42 13.73 -0.99 1.02 -0.90 13805
0.00 0.00 -0.67 -4.23 11.37 -0.93 0.88 -0.79 13812
0.00 0.00 -2.31 -5.20 9.42 -0.84 0.61 -0.72 13819
0.00 0.00 -2.54 -7.26 12.29 -0.60 -0.11 -0.67 13827
0.00 0.00 0.03 -3.54 5.81 -0.56 -0.23 -0.58 13834
0.00 0.00 -0.10 -6.11 7.30 -0.51 -0.33 -0.55 13841
0.00 0.00 -1.01 -8.22 8.90 -0.32 -0.51 -0.55 13848
0.00 0.00 -1.32 -7.01 7.29 -0.13 -0.31 -0.51 13855
0.00 0.00 0.00 -10.36 7.01 0.08 0.02 -0.40 13862
0.00 0.00 -0.04 -11.95 4.51 0.26 0.09 -0.30 13870
-0.00 0.01 -2.87 -15.10 7.27 0.40 -0.13 -0.25 13877
-0.00 0.01 -2.71 -17.76 4.14 0.51 -0.15 -0.09 13884
-0.00 0.01 -6.45 -29.06 12.32 0.62 -0.79 0.06 13891
-0.01 0.05 -7.43 -19.13 11.73 0.25 -1.00 0.07 13898
-0.00 0.00 -0.19 -3.55 11.60 -0.03 -0.33 0.01 13905
-0.01 0.05 -0.69 -1.94 9.83 -0.29 0.03 0.03 13913
-0.02 0.15 0.88 -0.69 10.04 -0.32 0.02 0.05 13920
-0.01 0.20 0.81 0.20 10.20 -0.20 -0.00 0.01 13927
-0.01 0.21 0.82 0.09 9.57 -0.13 -0.02 -0.03 13934
-0.02 0.27 0.38 -0.75 9.96 -0.11 -0.02 -0.05 13941
-0.03 0.29 0.18 -1.13 10.17 -0.09 -0.00 -0.05 13948
-0.03 0.31 0.06 -0.95 9.96 -0.07 0.03 -0.05 13956
-0.03 0.33 0.23 -0.80 9.93 -0.06 0.06 -0.04 13963
-0.00 0.39 0.36 -0.76 9.82 -0.04 0.08 -0.04 13970
-0.01 0.37 0.36 -0.81 9.82 -0.04 0.08 -0.05 13977
-0.01 0.38 0.34 -0.87 9.80 -0.04 0.08 -0.04 13984
-0.02 0.38 0.36 -0.87 9.81 -0.04 0.07 -0.04 13991
-0.01 0.44 0.39 -0.84 9.87 -0.04 0.07 -0.04 13999
-0.00 0.42 0.41 -0.83 9.81 -0.04 0.05 -0.04 14006
-0.00 0.49 0.37 -0.81 9.84 -0.04 0.05 -0.04 14013
-0.00 0.58 0.34 -0.83 9.72 -0.04 0.05 -0.04 14020
-0.01 0.53 0.34 -0.82 9.85 -0.04 0.06 -0.04 14027
-0.03 0.60 0.44 -0.77 9.80 -0.03 0.06 -0.04 14034
-0.02 0.70 0.38 -0.82 10.38 -0.03 0.05 -0.04 14042
-0.02 0.76 0.40 -0.81 9.83 -0.03 0.04 -0.05 14049
-0.02 0.73 0.44 -0.80 9.82 -0.02 0.04 -0.05 14056
-0.02 0.68 0.41 -0.82 9.81 -0.02 0.03 -0.05 14063
-0.01 0.68 0.43 -0.82 9.82 -0.02 0.03 -0.05 14070
-0.02 0.71 0.44 -0.84 9.81 -0.02 0.02 -0.06 14077
-0.00 0.74 0.41 -0.80 9.83 -0.02 0.02 -0.06 14085
0.01 0.84 0.38 -0.80 9.82 -0.01 0.01 -0.06 14092
0.01 0.84 0.36 -0.80 9.81 -0.01 0.01 -0.06 14099
0.00 0.85 0.40 -0.78 9.81 -0.01 0.01 -0.06 14106
0.00 0.84 0.37 -0.80 9.80 -0.01 0.01 -0.06 14113
0.00 0.85 0.40 -0.79 9.81 -0.01 0.01 -0.06 14120
0.01 0.82 0.37 -0.81 9.80 -0.01 0.01 -0.06 14128
0.02 0.83 0.39 -0.77 9.73 -0.00 0.02 -0.06 14135
0.01 0.79 0.38 -0.80 9.81 -0.01 0.02 -0.07 14142
0.01 0.79 0.36 -0.80 9.82 -0.00 0.02 -0.10 14149
0.01 0.78 0.32 -0.79 9.80 -0.00 0.02 -0.07 14156
0.00 0.78 0.34 -0.81 9.80 -0.00 0.02 -0.07 14163
0.01 0.77 0.33 -0.81 9.81 -0.00 0.03 -0.07 14171
0.03 0.75 0.33 -0.81 9.82 0.00 0.03 -0.07 14178
0.01 0.75 0.36 -0.80 9.79 -0.00 0.03 -0.07 14185
-0.00 0.73 0.31 -0.83 9.81 -0.00 0.03 -0.07 14192
-0.01 0.72 0.31 -0.81 9.78 0.00 0.03 -0.07 14199
0.01 0.71 0.35 -0.83 9.77 -0.00 0.03 -0.07 14206
0.01 0.70 0.33 -0.78 9.80 -0.00 0.03 -0.07 14214
0.02 0.68 0.33 -0.80 9.78 0.00 0.02 -0.07 14221
0.01 0.66 0.35 -0.83 9.82 0.00 0.03 -0.07 14228
0.00 0.65 0.31 -0.82 9.83 0.00 0.03 -0.07 14235
-0.01 0.64 0.35 -0.83 9.81 -0.00 0.03 -0.07 14242
0.00 0.63 0.35 -0.86 9.81 -0.00 0.03 -0.07 14249
0.01 0.62 0.37 -0.78 9.75 0.00 0.03 -0.07 14257
0.01 0.62 0.35 -0.80 9.81 -0.00 0.03 -0.07 14264
0.00 0.60 0.34 -0.83 9.79 0.03 0.03 -0.07 14271
0.00 0.58 0.33 -0.84 9.81 -0.00 0.03 -0.07 14278
0.00 0.57 0.32 -0.81 9.82 -0.00 0.04 -0.07 14285
0.02 0.58 0.28 -0.85 9.78 -0.00 0.04 -0.07 14292
0.04 0.59 0.31 -0.83 9.76 -0.00 0.03 -0.07 14300
0.03 0.58 0.33 -0.82 9.78 0.00 0.04 -0.07 14307
0.03 0.60 0.33 -0.80 9.84 -0.01 0.04 -0.07 14314
0.02 0.58 0.37 -0.84 9.82 -0.00 0.04 -0.07 14321
0.00 0.58 0.32 -0.83 9.82 -0.00 0.04 -0.07 14328
0.01 0.58 0.35 -0.82 9.81 -0.00 0.04 -0.07 14336
0.03 0.56 0.34 -0.81 9.81 -0.00 0.03 -0.07 14343
0.03 0.55 0.32 -0.82 9.82 0.00 0.04 -0.07 14350
0.03 0.54 0.32 -0.86 9.81 -0.00 0.03 -0.08 14357
0.03 0.54 0.31 -0.84 9.82 -0.03 0.03 -0.07 14364
0.04 0.53 0.32 -0.83 9.81 -0.00 0.03 -0.07 14371
0.04 0.53 0.32 -0.85 9.81 0.00 0.03 -0.07 14379
0.05 0.52 0.33 -0.81 9.81 0.00 0.00 -0.07 14386
0.04 0.53 0.35 -0.85 9.21 0.01 0.03 -0.07 14393
0.04 0.52 0.31 -0.86 9.79 0.01 0.03 -0.07 14400
0.03 0.50 0.34 -0.83 9.78 0.00 0.04 -0.08 14407
0.04 0.50 0.35 -0.81 9.76 0.01 0.04 -0.07 14414
0.05 0.47 0.36 -0.84 9.72 0.00 0.04 -0.07 14422
0.06 0.45 0.34 -0.84 9.78 0.00 0.04 -0.08 14429
0.07 0.44 0.32 -0.81 9.78 0.01 0.04 -0.07 14436
0.07 0.41 0.32 -0.84 9.75 0.01 0.04 -0.08 14443
0.07 0.41 0.33 -0.84 9.80 0.01 0.05 -0.07 14450
0.08 0.40 0.33 -0.84 9.79 0.01 0.05 -0.07 14457
0.09 0.39 0.32 -0.88 9.78 0.02 0.05 -0.07 14465
0.10 0.36 0.36 -0.86 9.81 0.02 0.05 -0.08 14472
0.12 0.37 0.33 -0.84 9.80 0.02 0.05 -0.08 14479
0.15 0.34 0.33 -0.86 9.80 0.02 0.06 -0.08 14486
0.13 0.34 0.33 -0.88 9.80 0.03 0.06 -0.08 14493
0.12 0.31 0.35 -0.85 9.80 0.03 0.06 -0.08 14500
0.15 0.26 0.35 -0.87 9.79 0.03 0.07 -0.08 14508
0.19 0.22 0.34 -0.84 9.80 0.04 0.07 -0.08 14515
0.19 0.15 0.37 -0.86 9.21 0.04 0.07 -0.08 14522
0.18 0.12 0.34 -0.89 9.77 0.04 0.08 -0.08 14529
0.17 0.09 0.38 -0.87 9.81 0.04 0.08 -0.08 14536
0.19 0.04 0.36 -0.90 9.80 0.04 0.08 -0.08 14543
0.25 0.01 0.35 -0.90 9.83 0.04 0.08 -0.07 14551
0.28 -0.01 0.38 -0.91 10.42 0.05 0.09 -0.08 14558
0.31 -0.01 0.34 -0.94 9.83 0.05 0.09 -0.08 14565
0.31 -0.01 0.41 -0.86 9.85 0.05 0.09 -0.07 14572
0.32 -0.01 0.37 -0.89 9.84 0.07 0.10 -0.08 14579
0.34 -0.01 0.40 -0.88 9.94 0.08 0.11 -0.07 14586
0.37 -0.03 0.44 -0.91 10.06 0.12 0.13 -0.07 14594
0.35 -0.01 0.44 -0.96 10.11 0.17 0.16 -0.07 14602
0.39 -0.03 0.57 -1.06 10.19 0.24 0.23 -0.08 14609
0.38 -0.03 0.65 -1.03 10.49 0.36 0.27 -0.10 14616
0.38 -0.02 0.50 -0.98 11.17 0.62 0.38 -0.12 14622
0.42 -0.02 0.47 -1.13 11.95 0.94 0.47 -0.17 14630
0.41 0.00 0.63 -1.13 12.42 1.33 0.43 -0.15 14638
0.43 -0.00 0.91 -1.25 12.49 1.52 0.33 -0.19 14645
0.41 -0.02 0.91 -1.37 11.83 1.61 0.26 -0.22 14652
0.39 -0.02 0.89 -1.43 12.09 1.67 0.16 -0.24 14659
0.39 -0.02 0.81 -1.61 11.33 1.74 0.05 -0.25 14666
0.38 -0.01 0.70 -1.54 11.80 1.82 -0.04 -0.25 14673
0.34 -0.02 0.67 -1.77 11.13 1.89 -0.09 -0.25 14681
0.29 -0.00 0.58 -1.87 11.32 1.97 -0.13 -0.25 14688
0.24 -0.02 0.52 -2.11 11.16 2.03 -0.16 -0.24 14694
0.19 -0.01 0.48 -2.30 10.87 2.06 -0.19 -0.23 14702
0.17 -0.00 0.47 -2.43 10.57 2.07 -0.22 -0.21 14709
0.12 -0.01 1.07 -2.18 7.71 2.05 -0.23 -0.20 14715
0.11 -0.01 0.57 -2.80 10.30 1.96 -0.24 -0.20 14723
0.09 -0.01 0.17 -3.01 10.38 1.94 -0.19 -0.18 14730
0.11 -0.01 0.18 -3.30 10.55 1.95 -0.16 -0.14 14737
0.08 -0.01 0.39 -3.51 10.36 1.93 -0.10 -0.13 14744
0.04 -0.00 0.63 -3.74 10.42 1.88 -0.02 -0.13 14751
0.04 -0.00 0.71 -3.92 10.58 1.82 0.08 -0.13 14758
0.03 -0.00 0.64 -4.15 10.81 1.74 0.17 -0.13 14766
0.04 -0.00 0.53 -3.85 10.81 1.67 0.23 -0.12 14773
0.02 -0.00 0.58 -3.57 10.49 1.61 0.24 -0.12 14780
0.01 -0.00 0.41 -3.26 9.92 1.53 0.17 -0.13 14787
0.03 0.00 0.29 -2.75 9.54 1.37 0.07 -0.12 14794
0.01 -0.00 0.57 -2.25 9.32 1.16 -0.02 -0.11 14801
0.00 0.00 0.39 -2.32 9.29 0.97 -0.10 -0.10 14809
0.00 0.00 0.45 -1.54 9.01 0.79 -0.21 -0.09 14816
0.00 0.00 0.72 -1.03 8.22 0.61 -0.30 -0.10 14823
0.00 0.00 1.10 -0.96 8.04 0.50 -0.37 -0.11 14830
0.03 -0.00 1.40 -0.75 7.88 0.39 -0.42 -0.12 14837
0.03 -0.00 1.80 0.65 7.80 0.33 -0.44 -0.13 14844
0.02 -0.00 2.05 1.30 8.41 0.27 -0.45 -0.16 14852
0.01 -0.00 1.88 1.18 7.61 0.17 -0.44 -0.23 14859
0.00 0.00 2.11 1.32 6.98 0.15 -0.44 -0.28 14866
0.02 -0.00 2.09 -0.09 8.33 0.12 -0.37 -0.33 14873
0.03 -0.00 1.84 -0.59 8.71 0.17 -0.35 -0.36 14880
0.03 -0.00 1.77 1.08 9.27 0.12 -0.32 -0.40 14887
0.00 0.00 1.82 0.39 8.03 0.07 -0.32 -0.44 14895
0.00 0.00 2.46 -0.91 7.50 -0.01 -0.29 -0.43 14902
0.00 0.00 2.26 0.15 10.78 -0.07 -0.21 -0.41 14909
0.00 -0.00 0.74 -1.51 8.47 -0.09 -0.21 -0.42 14916
0.01 -0.00 0.53 -2.85 7.75 -0.12 -0.18 -0.41 14923
0.00 -0.00 1.16 -1.36 10.26 -0.11 -0.12 -0.42 14930
0.00 -0.00 2.52 -4.24 6.39 -0.11 -0.07 -0.42 14938
0.00 0.00 1.18 -4.10 9.26 -0.05 0.01 -0.43 14945
-0.00 0.00 0.25 -6.35 7.93 -0.05 0.06 -0.47 14952
0.00 0.00 1.91 -6.13 7.65 -0.03 0.14 -0.52 14959
0.01 -0.00 1.08 -8.69 9.72 0.09 0.15 -0.56 14966
0.00 0.00 -2.11 -7.44 11.77 0.11 0.26 -0.64 14973
0.00 -0.00 0.58 -5.99 11.20 0.24 0.22 -0.73 14981
0.00 0.00 1.43 -6.35 8.67 0.25 0.32 -0.77 14988
0.00 0.00 0.80 -5.38 7.13 0.23 0.55 -0.83 14995
0.00 0.00 1.59 -5.74 5.66 0.25 0.55 -0.87 15002
0.00 0.00 -2.40 -6.23 7.96 0.22 0.61 -0.85 15009
0.00 0.00 -1.54 -1.03 11.04 0.21 0.64 -0.84 15016
0.00 0.00 -1.47 -5.76 6.60 0.14 0.54 -0.77 15024
0.00 0.00 -1.30 -0.01 9.71 0.09 0.52 -0.70 15031
0.00 0.00 -0.03 -1.10 8.84 -0.08 0.44 -0.62 15038
0.00 0.00 -1.51 -0.88 9.04 -0.16 0.35 -0.53 15045
0.00 -0.00 -1.08 -1.68 7.79 -0.22 0.26 -0.44 15052
0.01 -0.00 -0.65 0.34 8.56 -0.26 0.19 -0.38 15059
0.03 -0.00 -1.37 -1.59 9.76 -0.32 0.18 -0.29 15067
0.01 -0.00 -1.40 -0.71 8.29 -0.39 0.17 -0.24 15074
0.03 -0.00 0.38 -2.58 6.59 -0.44 0.18 -0.20 15081
0.03 -0.00 -0.02 0.43 10.54 -0.57 0.23 -0.19 15088
0.04 -0.00 0.22 -0.05 9.81 -0.75 0.20 -0.17 15095
0.03 -0.00 0.32 2.17 11.36 -0.81 0.23 -0.11 15102
0.00 0.00 -0.84 -3.51 3.80 -0.91 0.18 -0.05 15110
0.00 0.00 0.44 -1.49 10.52 -0.96 0.20 0.06 15117
0.00 0.00 1.36 -0.15 10.36 -1.03 0.21 0.14 15124
0.00 0.00 0.07 -1.00 8.24 -0.97 0.21 0.20 15131
0.00 0.00 -0.59 -2.66 7.85 -1.00 0.20 0.31 15138
0.00 0.00 0.39 -0.81 13.39 -1.02 0.20 0.34 15145
0.00 0.00 0.42 -1.37 9.23 -1.03 0.21 0.41 15153
0.00 0.00 0.53 -2.45 8.98 -1.05 0.23 0.46 15160
0.00 0.00 1.30 -0.95 11.25 -1.03 0.26 0.48 15167
0.00 0.00 0.00 -2.84 7.77 -1.08 0.26 0.50 15174
0.00 0.00 1.04 -1.33 10.55 -1.07 0.29 0.51 15181
0.00 0.00 0.40 -1.86 9.18 -1.08 0.22 0.52 15188
0.00 0.00 0.41 -2.18 9.66 -1.11 0.20 0.51 15196
0.00 0.00 0.84 -2.26 10.60 -1.16 0.17 0.50 15203
0.00 0.00 0.46 -1.79 10.26 -1.19 0.15 0.48 15210
0.00 0.00 0.41 -1.79 9.81 -1.18 0.14 0.45 15217
0.00 0.00 0.35 -1.74 9.86 -1.17 0.14 0.40 15224
0.00 0.00 0.30 -1.67 10.01 -1.15 0.15 0.33 15232
0.00 0.00 0.25 -1.85 10.17 -1.15 0.15 0.28 15239
0.00 0.00 0.07 -2.09 10.54 -1.14 0.15 0.23 15246
0.00 0.00 0.14 -2.27 10.98 -1.15 0.12 0.19 15253
0.00 0.00 0.34 -2.53 11.17 -1.18 0.09 0.17 15260
0.00 0.00 0.54 -2.87 11.08 -1.22 0.06 0.15 15267
0.00 0.00 0.78 -3.07 10.71 -1.25 0.04 0.14 15275
0.00 0.00 0.97 -3.28 10.26 -1.25 0.06 0.12 15282
0.00 0.00 1.06 -3.29 9.87 -1.21 0.10 0.10 15289
0.00 0.00 1.11 -3.06 9.76 -1.13 0.16 0.09 15296
0.00 0.00 1.02 -2.49 9.62 -1.06 0.22 0.07 15303
0.00 0.00 0.98 -2.05 9.91 -0.99 0.27 0.06 15310
0.00 0.00 0.98 -1.78 10.38 -0.97 0.33 0.04 15318
0.00 0.00 0.88 -1.54 10.69 -0.97 0.38 0.04 15325
0.00 0.00 0.51 -1.55 10.72 -1.00 0.43 0.06 15332
0.00 0.00 0.15 -1.59 10.65 -1.03 0.43 0.09 15339
0.00 0.00 -0.02 -1.89 10.48 -1.04 0.40 0.10 15346
0.00 0.00 -0.08 -2.20 10.30 -1.03 0.33 0.10 15353
0.00 0.00 -0.01 -2.46 10.14 -1.01 0.26 0.09 15361
0.00 0.00 0.10 -2.68 10.00 -0.96 0.21 0.07 15368
0.00 0.00 0.31 -2.84 9.82 -0.91 0.16 0.02 15375
0.00 -0.00 0.39 -3.04 9.83 -0.86 0.13 -0.03 15382
0.00 0.00 0.37 -3.08 9.87 -0.79 0.11 -0.09 15389
0.00 0.00 0.46 -2.92 10.10 -0.74 0.09 -0.14 15396
0.00 0.00 0.53 -2.77 10.37 -0.70 0.09 -0.19 15404
0.00 0.00 0.61 -2.52 10.27 -0.70 0.07 -0.24 15411
0.00 0.00 0.64 -2.32 10.26 -0.71 0.06 -0.29 15418
0.00 0.00 0.74 -2.18 10.38 -0.74 0.06 -0.31 15425
0.00 0.00 1.10 -2.11 10.40 -0.76 0.11 -0.34 15432
0.00 0.00 1.34 -2.19 10.51 -0.80 0.18 -0.36 15439
0.00 0.00 1.41 -2.13 10.51 -0.85 0.31 -0.38 15447
0.00 0.00 1.46 -2.28 10.50 -0.90 0.47 -0.38 15454
0.00 0.00 1.33 -2.35 10.35 -0.96 0.54 -0.37 15461
0.00 0.00 1.13 -2.59 10.03 -1.00 0.62 -0.36 15468
0.00 0.00 0.84 -3.08 9.83 -1.00 0.65 -0.34 15475
0.00 0.00 -1.24 -9.12 10.72 -0.81 0.55 -0.30 15482
0.00 0.00 -0.20 -3.78 7.10 -0.32 0.27 -0.26 15490
0.00 0.00 -0.57 -5.45 2.10 -0.42 0.13 -0.27 15497
0.00 -0.00 -1.98 -8.91 10.15 -0.23 -0.19 -0.27 15504
0.00 0.00 -1.05 -10.18 4.46 0.01 -0.07 -0.23 15511
0.00 0.00 0.29 -7.59 3.48 0.09 -0.03 -0.21 15518
0.00 0.00 -2.17 -7.80 9.23 0.22 -0.14 -0.23 15525
0.00 0.00 -4.09 -9.93 11.74 0.42 -0.12 -0.19 15533
-0.00 0.01 -3.05 -11.95 5.83 0.61 -0.19 -0.11 15540
0.00 0.02 -3.70 -13.25 8.52 0.81 -0.61 -0.09 15547
-0.00 0.01 -4.40 -16.32 4.92 0.99 -0.60 -0.04 15554
-0.00 0.01 -4.56 -21.11 5.14 1.42 -0.51 0.12 15561
-0.00 0.02 -4.58 -7.59 14.11 1.82 -0.74 0.09 15568
-0.00 0.03 -1.44 -1.93 20.87 0.37 -1.40 -0.08 15576
-0.00 0.05 -0.50 -1.77 7.20 -0.22 0.07 0.08 15583
0.00 0.09 1.15 -1.44 10.12 -0.31 0.04 -0.01 15590
-0.01 0.15 0.01 -0.85 10.46 -0.24 -0.03 -0.03 15597
-0.00 0.15 0.98 -0.42 9.85 -0.15 -0.02 -0.03 15604
-0.02 0.22 0.60 -0.44 9.91 -0.13 -0.04 -0.03 15611
-0.03 0.28 0.43 -0.81 9.89 -0.12 -0.03 -0.05 15619
-0.02 0.28 0.18 -0.92 9.88 -0.09 -0.03 -0.06 15626
0.00 0.30 0.23 -0.80 9.90 -0.07 -0.01 -0.04 15633
0.00 0.37 0.24 -0.82 9.96 -0.07 0.02 -0.05 15640
-0.01 0.32 0.28 -0.83 9.83 -0.06 0.03 -0.05 15647
-0.02 0.37 0.33 -0.76 9.82 -0.05 0.03 -0.06 15654
0.02 0.37 0.32 -0.79 9.82 -0.05 0.04 -0.05 15662
0.02 0.36 0.37 -0.80 9.81 -0.05 0.04 -0.05 15669
0.04 0.35 0.40 -0.85 9.85 -0.04 0.04 -0.06 15676
0.02 0.39 0.38 -0.80 9.84 -0.04 0.04 -0.06 15683
0.01 0.38 0.39 -0.81 9.83 -0.03 0.03 -0.06 15690
0.01 0.40 0.39 -0.80 9.83 -0.03 0.04 -0.06 15697
0.02 0.42 0.36 -0.82 9.81 -0.03 0.03 -0.06 15705
0.02 0.42 0.39 -0.79 9.81 -0.03 0.04 -0.07 15712
0.02 0.46 0.35 -0.75 9.82 -0.03 0.04 -0.06 15719
0.02 0.48 0.37 -0.77 9.80 -0.03 0.04 -0.06 15726
0.02 0.48 0.38 -0.79 9.76 -0.03 0.04 -0.07 15733
0.02 0.51 0.35 -0.80 9.75 -0.03 0.03 -0.07 15740
0.02 0.50 0.38 -0.78 9.82 -0.03 0.04 -0.07 15748
0.04 0.54 0.37 -0.75 9.85 -0.03 0.04 -0.07 15755
0.03 0.54 0.33 -0.79 9.81 -0.03 0.04 -0.07 15762
0.03 0.56 0.34 -0.79 9.83 -0.02 0.05 -0.07 15769
0.02 0.55 0.36 -0.76 9.82 -0.02 0.05 -0.07 15776
0.03 0.55 0.37 -0.79 9.82 -0.02 0.05 -0.07 15783
0.04 0.53 0.36 -0.77 9.83 -0.02 0.06 -0.07 15791
0.05 0.54 0.35 -0.78 9.82 -0.02 0.06 -0.07 15798
0.04 0.51 0.41 -0.76 9.80 -0.01 0.06 -0.07 15805
0.04 0.53 0.40 -0.78 9.77 -0.01 0.06 -0.08 15812
0.04 0.52 0.37 -0.78 9.78 -0.01 0.06 -0.07 15819
0.05 0.53 0.39 -0.75 9.82 -0.01 0.05 -0.07 15826
0.05 0.54 0.36 -0.80 9.80 -0.00 0.06 -0.07 15834
0.06 0.55 0.38 -0.74 9.78 -0.00 0.06 -0.07 15841
0.05 0.52 0.38 -0.76 9.79 -0.00 0.06 -0.07 15848
0.05 0.50 0.39 -0.76 9.82 -0.00 0.06 -0.07 15855
0.04 0.50 0.39 -0.76 9.81 -0.00 0.06 -0.07 15862
0.04 0.48 0.39 -0.75 9.75 0.00 0.06 -0.07 15869
0.03 0.49 0.38 -0.78 9.81 0.00 0.06 -0.07 15877
0.05 0.47 0.42 -0.79 9.77 0.00 0.06 -0.07 15884
0.04 0.46 0.37 -0.74 9.82 0.01 0.06 -0.07 15891
0.04 0.44 0.40 -0.74 9.81 0.00 0.06 -0.08 15898
0.04 0.44 0.38 -0.74 9.20 0.01 0.06 -0.07 15905
0.04 0.44 0.38 -0.77 9.76 0.01 0.06 -0.07 15912
0.06 0.45 0.38 -0.77 9.82 0.01 0.06 -0.08 15920
0.05 0.42 0.40 -0.80 9.81 0.00 0.06 -0.07 15927
0.05 0.42 0.39 -0.77 9.80 0.00 0.06 -0.08 15934
0.05 0.40 0.38 -0.77 9.79 0.00 0.07 -0.08 15941
0.04 0.40 0.40 -0.79 9.77 0.00 0.07 -0.08 15948
0.05 0.39 0.40 -0.76 9.75 0.00 0.06 -0.08 15955
0.07 0.37 0.39 -0.80 9.78 0.00 0.07 -0.08 15963
0.08 0.38 0.43 -0.77 9.82 0.01 0.06 -0.08 15970
0.07 0.36 0.42 -0.80 9.77 0.01 0.06 -0.08 15977
0.07 0.36 0.39 -0.78 9.83 0.00 0.06 -0.08 15984
0.07 0.34 0.43 -0.78 9.81 0.00 0.06 -0.08 15991
0.07 0.36 0.40 -0.78 9.81 0.00 0.06 -0.08 15998
0.09 0.35 0.40 -0.79 9.87 0.00 0.06 -0.08 16006
0.08 0.34 0.45 -0.84 9.77 0.00 0.06 -0.08 16013
0.08 0.32 0.42 -0.80 9.78 0.01 0.06 -0.08 16020
0.08 0.30 0.42 -0.77 9.81 0.01 0.05 -0.08 16027
0.08 0.30 0.47 -0.76 10.42 0.01 0.05 -0.08 16034
0.09 0.31 0.44 -0.82 9.80 0.01 0.05 -0.08 16041
0.10 0.30 0.44 -0.79 9.81 0.01 0.05 -0.08 16049
0.10 0.28 0.46 -0.76 9.80 0.00 0.05 -0.07 16056
0.11 0.26 0.44 -0.77 9.75 0.01 0.05 -0.08 16063
0.11 0.25 0.41 -0.79 9.81 0.00 0.05 -0.08 16070
0.12 0.24 0.44 -0.80 9.81 0.01 0.05 -0.08 16077
0.12 0.25 0.47 -0.80 9.81 0.01 0.05 -0.08 16084
0.14 0.27 0.43 -0.78 9.80 0.01 0.05 -0.08 16092
0.13 0.21 0.44 -0.78 9.79 0.01 0.05 -0.08 16099
0.14 0.19 0.41 -0.78 9.84 0.01 0.05 -0.08 16106
0.12 0.20 0.41 -0.81 9.77 0.01 0.05 -0.08 16113
0.13 0.17 0.45 -0.79 9.82 0.01 0.06 -0.08 16120
0.15 0.14 0.44 -0.80 9.78 0.01 0.06 -0.08 16128
0.16 0.12 0.45 -0.81 9.80 0.01 0.06 -0.08 16135
0.13 0.11 0.46 -0.83 9.80 0.01 0.06 -0.09 16142
0.14 0.14 0.48 -0.80 9.79 0.01 0.05 -0.09 16149
0.14 0.10 0.48 -0.80 9.80 0.01 0.04 -0.08 16156
0.15 0.12 0.50 -0.81 9.79 0.01 0.04 -0.08 16163
0.16 0.07 0.48 -0.85 9.82 0.02 0.03 -0.09 16171
0.17 0.07 0.43 -0.84 9.79 0.01 0.03 -0.09 16178
0.17 0.03 0.44 -0.86 9.80 0.02 0.03 -0.09 16185
0.16 0.02 0.45 -0.85 9.81 0.02 0.03 -0.09 16192
0.18 0.02 0.42 -0.82 9.79 0.02 0.03 -0.09 16199
0.18 0.04 0.44 -0.84 9.80 0.02 0.03 -0.09 16206
0.20 0.00 0.45 -0.88 9.79 0.02 0.03 -0.09 16214
0.21 0.00 0.43 -0.82 9.82 0.02 0.04 -0.09 16221
0.21 -0.00 0.42 -0.87 9.82 0.02 0.04 -0.09 16228
0.23 -0.01 0.48 -0.85 9.82 0.03 0.04 -0.09 16235
0.24 -0.01 0.43 -0.81 9.82 0.03 0.04 -0.09 16242
0.27 0.01 0.45 -0.84 9.84 0.04 0.05 -0.09 16249
0.32 -0.01 0.45 -0.88 9.83 0.05 0.05 -0.09 16257
0.33 -0.02 0.49 -0.94 9.83 0.06 0.06 -0.08 16264
0.35 -0.03 0.48 -0.89 9.83 0.08 0.08 -0.10 16271
0.35 -0.02 0.48 -0.88 9.85 0.09 0.09 -0.10 16278
0.39 -0.02 0.50 -0.91 9.88 0.11 0.11 -0.11 16285
0.41 -0.01 0.53 -0.93 9.92 0.14 0.13 -0.12 16292
0.44 -0.02 0.58 -0.99 9.91 0.17 0.16 -0.13 16300
0.46 -0.03 0.59 -0.93 10.14 0.21 0.20 -0.15 16308
0.47 -0.03 0.62 -0.97 10.23 0.31 0.26 -0.17 16315
0.45 -0.02 0.80 -1.11 10.36 0.44 0.33 -0.18 16322
0.47 -0.00 0.78 -1.05 10.77 0.67 0.38 -0.20 16328
0.48 -0.01 0.81 -1.10 11.01 0.92 0.40 -0.21 16335
0.48 -0.02 0.79 -1.26 11.43 1.12 0.35 -0.24 16344
0.50 -0.02 0.72 -1.22 11.72 1.23 0.24 -0.25 16351
0.48 -0.02 0.65 -1.41 11.99 1.30 0.13 -0.23 16358
0.48 -0.02 0.67 -1.37 11.46 1.38 0.06 -0.23 16365
0.48 -0.01 0.79 -1.59 11.58 1.48 0.01 -0.23 16372
0.47 -0.02 0.68 -1.65 11.26 1.55 -0.05 -0.24 16379
0.45 -0.02 0.79 -1.70 11.10 1.61 -0.11 -0.25 16387
0.43 -0.02 0.54 -1.78 10.78 1.68 -0.16 -0.25 16394
0.38 -0.02 0.63 -1.92 10.77 1.73 -0.23 -0.25 16401
0.36 -0.02 0.43 -2.07 10.64 1.77 -0.28 -0.25 16408
0.34 -0.01 0.59 -2.25 10.63 1.80 -0.31 -0.24 16415
0.27 -0.01 0.50 -2.33 10.64 1.82 -0.33 -0.24 16422
0.21 -0.01 0.51 -2.50 10.25 1.84 -0.34 -0.23 16430
0.18 -0.02 0.52 -2.73 10.04 1.84 -0.36 -0.23 16436
0.14 -0.01 0.77 -2.71 9.24 1.82 -0.38 -0.24 16443
0.09 -0.01 0.70 -3.09 10.05 1.81 -0.38 -0.24 16450
0.13 -0.01 0.74 -3.22 10.45 1.85 -0.35 -0.26 16457
0.09 -0.01 0.63 -3.15 9.11 1.88 -0.42 -0.27 16464
0.12 -0.01 0.85 -3.71 9.75 1.85 -0.46 -0.28 16472
0.10 -0.01 1.11 -3.93 10.41 1.83 -0.32 -0.30 16479
0.06 -0.01 0.94 -3.98 10.77 1.86 -0.24 -0.33 16486
0.06 -0.01 0.75 -4.13 10.50 1.86 -0.15 -0.34 16493
0.09 -0.01 1.12 -4.35 10.44 1.84 0.01 -0.34 16500
0.06 -0.01 1.29 -4.54 10.30 1.77 0.12 -0.36 16507
0.06 -0.01 1.27 -4.48 9.99 1.65 0.28 -0.38 16515
0.05 -0.00 0.80 -4.39 9.98 1.56 0.44 -0.39 16522
0.03 -0.00 0.46 -4.22 9.98 1.46 0.53 -0.40 16529
0.04 -0.00 0.27 -4.12 9.87 1.33 0.53 -0.41 16536
0.04 -0.00 -0.59 -4.17 9.33 1.19 0.48 -0.40 16543
0.01 -0.00 0.06 -3.84 8.87 1.05 0.42 -0.40 16550
0.00 0.00 0.31 -3.24 8.72 0.93 0.37 -0.41 16558
0.00 0.00 0.52 -2.61 8.41 0.78 0.35 -0.42 16565
0.01 -0.00 0.62 -2.06 8.17 0.63 0.36 -0.44 16572
0.01 -0.00 0.34 -2.21 7.65 0.53 0.38 -0.47 16579
0.00 0.00 -0.14 -2.01 7.55 0.46 0.38 -0.51 16586
0.03 -0.00 0.21 -2.49 7.60 0.42 0.34 -0.54 16593
0.02 -0.00 0.06 -2.11 7.71 0.40 0.30 -0.57 16601
0.00 0.00 -0.26 1.18 7.80 0.34 0.22 -0.60 16608
0.00 0.00 0.48 -0.33 7.75 0.16 0.15 -0.66 16615
0.01 0.00 -0.74 1.20 8.90 -0.01 0.08 -0.73 16622
0.04 -0.00 0.26 3.34 8.62 -0.15 0.09 -0.81 16629
0.00 -0.00 0.60 2.34 8.33 -0.31 0.07 -1.02 16636
0.01 -0.00 -0.06 0.25 6.97 -0.38 -0.03 -1.16 16644
0.00 0.00 -0.14 1.02 9.18 -0.40 0.02 -1.28 16651
0.00 0.00 0.21 0.94 8.74 -0.44 0.08 -1.36 16658
0.00 0.00 0.03 0.92 8.71 -0.49 0.06 -1.42 16665
0.00 0.00 0.08 1.07 8.85 -0.57 0.04 -1.42 16672
0.00 0.00 0.38 0.59 8.61 -0.64 0.02 -1.39 16679
0.00 0.00 0.68 0.14 8.79 -0.70 -0.02 -1.30 16687
0.00 0.00 0.83 -0.07 8.58 -0.71 -0.02 -1.18 16694
0.00 0.00 0.90 -0.57 8.68 -0.70 -0.02 -1.10 16701
0.00 0.00 1.19 -1.31 8.26 -0.69 0.03 -0.96 16708
0.00 0.00 2.09 -2.68 7.61 -0.67 0.07 -0.83 16715
0.00 0.00 1.04 0.02 9.31 -0.72 0.18 -0.69 16722
0.00 0.00 0.39 -5.89 7.13 -0.73 0.24 -0.61 16730
0.00 0.00 1.14 -1.80 13.07 -0.80 0.39 -0.49 16737
0.00 0.00 -2.96 -3.91 11.14 -0.87 0.56 -0.41 16744
0.00 0.00 1.78 -0.23 11.67 -0.93 0.67 -0.39 16751
0.00 0.00 0.96 -3.24 3.44 -0.95 0.65 -0.36 16758
0.00 0.00 1.06 -3.11 7.19 -0.98 0.67 -0.32 16765
0.00 0.00 -2.80 -5.05 10.18 -0.92 0.66 -0.28 16773
0.00 0.00 -1.65 -3.49 9.50 -0.93 0.59 -0.25 16780
0.00 0.00 -1.06 -2.92 9.16 -0.92 0.49 -0.26 16787
0.00 0.00 -0.85 -2.88 9.44 -0.84 0.40 -0.24 16794
0.00 0.00 -0.93 -4.70 6.21 -0.91 0.39 -0.26 16801
0.00 0.00 -0.13 -4.96 9.75 -0.79 0.38 -0.28 16808
0.00 0.00 -0.91 -3.95 7.54 -0.79 0.35 -0.32 16816
0.00 0.00 -1.47 -4.26 9.21 -0.72 0.31 -0.36 16823
0.00 0.00 -1.70 -3.85 8.59 -0.69 0.23 -0.38 16830
0.00 -0.00 -6.97 -5.32 15.53 -0.61 0.30 -0.39 16837
0.00 0.00 -3.27 -6.48 11.03 -0.69 0.13 -0.43 16844
0.00 0.00 1.08 -6.14 8.94 -0.69 0.16 -0.40 16851
0.00 0.00 -4.25 -2.77 9.63 -0.76 0.20 -0.38 16859
0.00 0.00 1.06 -5.33 10.24 -0.76 0.18 -0.38 16866
0.00 0.00 1.65 -0.70 10.97 -0.76 0.19 -0.34 16873
0.00 0.00 1.78 -2.70 7.39 -0.83 0.25 -0.32 16880
0.00 0.00 -0.02 -4.04 6.83 -0.73 0.17 -0.27 16887
0.00 0.00 0.66 -1.90 9.84 -0.70 0.19 -0.18 16894
0.00 0.00 1.25 -3.83 8.35 -0.72 0.23 -0.16 16902
0.00 0.00 -0.37 -3.26 10.85 -0.68 0.24 -0.10 16909
0.00 0.00 -0.84 -3.20 8.35 -0.62 0.19 -0.05 16916
0.00 0.00 0.85 -1.74 11.12 -0.64 0.27 0.03 16923
0.00 0.00 -2.24 -2.15 9.95 -0.63 0.22 0.09 16930
0.00 0.00 -1.27 -1.99 8.33 -0.65 0.18 0.15 16937
0.00 0.00 -0.23 -1.59 11.95 -0.71 0.18 0.19 16945
0.00 0.00 -0.01 -2.24 10.65 -0.78 0.14 0.21 16952
0.00 0.00 0.01 -0.35 10.94 -0.82 0.11 0.23 16959
0.00 0.00 -0.28 -1.20 10.12 -0.88 0.14 0.24 16966
0.00 0.00 -0.23 -1.33 8.74 -0.92 0.19 0.23 16973
0.00 0.00 0.42 -1.26 10.17 -0.91 0.24 0.23 16980
0.00 0.00 0.31 -1.52 10.14 -0.91 0.28 0.22 16988
0.00 0.00 0.08 -1.25 10.27 -0.91 0.32 0.21 16995
0.00 0.00 0.03 -0.97 10.04 -0.91 0.33 0.19 17002
0.00 0.00 -0.07 -0.93 10.23 -0.92 0.30 0.17 17009
0.00 0.00 -0.13 -0.99 10.36 -0.92 0.24 0.13 17016
0.00 0.00 0.01 -1.09 10.42 -0.92 0.20 0.07 17024
0.00 0.00 0.25 -1.22 10.38 -0.92 0.18 0.01 17031
0.00 0.00 0.50 -1.40 10.32 -0.92 0.20 -0.07 17038
0.00 0.00 0.63 -1.61 10.44 -0.92 0.23 -0.15 17045
0.00 0.00 0.72 -1.76 10.65 -0.92 0.28 -0.24 17052
0.00 0.00 0.74 -1.85 10.78 -0.92 0.32 -0.32 17059
0.00 0.00 0.58 -1.82 10.72 -0.93 0.35 -0.38 17067
0.00 0.00 0.59 -1.85 10.69 -0.95 0.38 -0.43 17074
0.00 0.00 0.51 -1.87 10.66 -0.97 0.39 -0.47 17081
0.00 0.00 0.35 -1.91 10.53 -0.97 0.39 -0.50 17088
0.00 0.00 0.24 -1.97 10.34 -0.96 0.38 -0.52 17095
0.00 0.00 0.20 -2.06 10.19 -0.93 0.35 -0.54 17102
0.00 0.00 0.24 -2.04 9.95 -0.89 0.33 -0.57 17110
0.00 0.00 0.23 -2.08 9.82 -0.84 0.34 -0.59 17117
0.00 0.00 0.17 -2.06 9.68 -0.78 0.36 -0.60 17124
0.00 0.00 0.03 -2.08 9.63 -0.72 0.37 -0.61 17131
0.00 0.00 -0.26 -2.21 9.55 -0.65 0.36 -0.61 17138
0.00 0.00 -0.42 -2.27 9.51 -0.57 0.32 -0.61 17145
0.00 0.00 -0.41 -2.25 9.55 -0.51 0.26 -0.60 17153
0.00 0.00 -0.33 -2.23 9.75 -0.45 0.18 -0.60 17160
0.00 0.00 -0.18 -2.18 9.89 -0.41 0.11 -0.59 17167
0.00 0.00 0.16 -2.13 10.30 -0.40 0.08 -0.58 17174
0.00 0.00 0.51 -2.03 10.37 -0.42 0.07 -0.56 17181
0.00 0.00 0.80 -1.94 10.13 -0.46 0.13 -0.55 17188
0.00 0.00 1.13 -1.95 9.90 -0.52 0.18 -0.54 17196
0.00 0.00 1.25 -2.16 9.59 -0.54 0.30 -0.52 17203
0.00 -0.00 1.27 -2.42 9.40 -0.54 0.41 -0.49 17210
0.00 0.00 0.73 -4.03 9.25 -0.48 0.52 -0.45 17217
0.00 0.00 0.55 -4.14 11.95 -0.19 0.67 -0.33 17224
0.00 0.00 0.28 -3.94 7.26 -0.14 0.64 -0.28 17231
0.00 0.00 -0.12 -3.88 7.58 -0.12 0.51 -0.25 17239
0.00 0.00 -1.73 -5.82 12.43 -0.03 0.34 -0.18 17246
0.00 0.00 -0.59 -4.48 8.65 0.06 0.18 -0.14 17253
0.00 0.00 -1.67 -4.89 9.60 -0.03 0.05 -0.12 17260
0.00 0.00 -1.57 -6.31 10.73 0.06 0.12 -0.08 17267
0.00 0.00 -3.94 -8.24 8.25 0.09 -0.03 -0.04 17274
0.00 0.00 -3.97 -7.48 9.15 0.19 -0.12 -0.02 17282
0.00 0.00 -3.28 -10.90 7.02 0.30 -0.34 -0.02 17289
-0.00 0.00 -2.37 -12.85 3.54 0.53 -0.31 0.02 17296
-0.00 0.02 -2.87 -11.24 3.98 0.82 -0.44 0.05 17303
-0.00 0.00 -4.77 -16.65 6.96 1.08 -0.69 0.06 17310
-0.00 0.00 -5.29 -17.18 5.67 1.45 -0.93 0.04 17317
0.00 0.00 -6.00 -10.38 30.36 0.85 -1.89 -0.11 17325
-0.00 0.02 -1.37 -3.59 6.29 -0.20 0.02 0.02 17332
-0.00 0.04 0.54 -2.48 9.64 -0.29 0.04 -0.05 17339
-0.00 0.04 -0.22 -1.81 9.80 -0.33 -0.01 -0.08 17346
-0.01 0.08 0.63 -0.84 10.04 -0.23 0.03 -0.08 17353
0.01 0.11 0.39 -0.33 10.13 -0.17 -0.03 -0.06 17360
0.00 0.15 0.47 -0.65 10.00 -0.14 -0.02 -0.07 17368
0.00 0.18 0.22 -1.04 10.09 -0.10 -0.03 -0.07 17375
0.01 0.17 0.04 -1.00 10.06 -0.06 -0.01 -0.07 17382
0.01 0.17 0.08 -0.91 9.92 -0.06 0.02 -0.06 17389
0.01 0.23 0.28 -0.91 9.88 -0.05 0.03 -0.06 17396
0.02 0.23 0.26 -0.94 9.82 -0.04 0.04 -0.06 17403
0.03 0.22 0.20 -0.92 9.82 -0.04 0.05 -0.05 17411
0.04 0.24 0.29 -0.92 9.77 -0.05 0.05 -0.05 17418
0.06 0.22 0.30 -0.92 9.74 -0.05 0.05 -0.05 17425
0.04 0.25 0.32 -0.91 9.85 -0.06 0.05 -0.05 17432
0.01 0.26 0.33 -0.91 9.62 -0.06 0.05 -0.05 17439
0.02 0.29 0.39 -0.93 9.74 -0.06 0.04 -0.05 17446
0.03 0.33 0.40 -0.90 9.72 -0.06 0.03 -0.05 17454
0.04 0.29 0.36 -0.90 9.85 -0.06 0.03 -0.06 17461
0.03 0.36 0.37 -0.95 9.78 -0.06 0.03 -0.06 17468
0.03 0.38 0.42 -0.85 9.83 -0.06 0.02 -0.06 17475
0.00 0.41 0.38 -0.90 9.83 -0.07 0.02 -0.06 17482
0.00 0.49 0.34 -0.89 9.86 -0.06 0.02 -0.10 17489
0.02 0.46 0.30 -0.88 9.81 -0.06 0.02 -0.07 17497
0.03 0.51 0.31 -0.87 9.82 -0.06 0.02 -0.07 17504
0.02 0.52 0.23 -0.86 9.81 -0.06 0.03 -0.07 17511
0.00 0.58 0.28 -0.85 9.86 -0.05 0.03 -0.06 17518
-0.00 0.62 0.30 -0.81 9.89 -0.04 0.04 -0.06 17525
0.01 0.61 0.30 -0.80 9.89 -0.04 0.04 -0.06 17532
0.01 0.65 0.31 -0.84 9.88 -0.03 0.05 -0.06 17540
0.01 0.68 0.33 -0.84 9.20 -0.03 0.05 -0.06 17547
-0.00 0.68 0.33 -0.83 9.82 -0.03 0.05 -0.07 17554
0.00 0.69 0.31 -0.82 9.87 -0.02 0.05 -0.06 17561
-0.01 0.72 0.33 -0.86 9.83 -0.02 0.05 -0.07 17568
-0.01 0.71 0.34 -0.84 9.82 -0.02 0.04 -0.07 17575
