Voltage_01 Voltage_02 Acc_x Acc_y Acc_z Gyro_x Gyro_y Gyro_z Time
5000
0.06 0.13 0.48 -0.87 9.78 0.02 0.08 -0.07 24
0.06 0.12 0.50 -0.86 9.80 0.02 0.08 -0.07 31
0.06 0.11 0.47 -0.88 9.80 0.02 0.08 -0.07 38
0.06 0.11 0.47 -0.86 9.81 0.02 0.07 -0.07 46
0.08 0.07 0.47 -0.91 9.80 0.02 0.08 -0.07 53
0.08 0.08 0.46 -0.88 9.79 0.02 0.07 -0.07 60
0.09 0.04 0.49 -0.90 9.81 0.02 0.07 -0.07 67
0.10 0.04 0.49 -0.86 9.77 0.02 0.07 -0.08 74
0.10 0.00 0.49 -0.90 9.80 0.01 0.06 -0.07 81
0.10 0.01 0.53 -0.87 9.80 0.02 0.06 -0.08 89
0.10 0.02 0.49 -0.91 9.77 0.01 0.06 -0.07 96
0.11 0.00 0.52 -0.87 9.79 0.02 0.06 -0.08 103
0.11 -0.01 0.51 -0.89 9.80 0.02 0.06 -0.08 110
0.11 0.00 0.48 -0.90 9.81 0.02 0.06 -0.07 117
0.13 -0.00 0.49 -0.92 9.81 0.02 0.06 -0.07 124
0.13 0.01 0.50 -0.90 9.79 0.01 0.06 -0.07 132
0.15 -0.01 0.50 -0.90 9.80 0.02 0.06 -0.08 139
0.16 0.00 0.50 -0.92 9.81 0.02 0.06 -0.07 146
0.18 -0.01 0.49 -0.91 10.42 0.02 0.06 -0.08 153
0.17 -0.01 0.51 -0.93 9.81 0.02 0.05 -0.08 160
0.18 -0.02 0.52 -0.90 9.81 0.02 0.05 -0.08 167
0.17 -0.00 0.53 -0.91 9.80 0.02 0.05 -0.08 175
0.18 -0.01 0.52 -0.91 9.78 0.02 0.05 -0.08 182
0.22 -0.01 0.51 -0.92 9.79 0.02 0.05 -0.08 189
0.21 -0.01 0.51 -0.94 9.80 0.02 0.06 -0.08 196
0.22 -0.01 0.51 -0.93 9.83 0.02 0.06 -0.08 203
0.23 -0.02 0.47 -0.95 9.80 0.03 0.07 -0.08 210
0.25 -0.02 0.47 -0.91 9.79 0.03 0.07 -0.08 218
0.26 -0.00 0.52 -0.92 9.83 0.03 0.07 -0.08 225
0.27 -0.02 0.49 -0.93 9.81 0.03 0.07 -0.08 232
0.26 -0.01 0.54 -0.95 9.81 0.03 0.08 -0.08 239
0.25 -0.02 0.49 -0.93 9.81 0.03 0.08 -0.07 246
0.26 -0.02 0.49 -0.91 9.81 0.03 0.08 -0.07 253
0.27 -0.01 0.53 -0.95 9.81 0.04 0.09 -0.07 261
0.28 -0.00 0.54 -0.92 9.82 0.05 0.09 -0.07 268
0.29 -0.01 0.50 -0.94 9.84 0.06 0.10 -0.07 275
0.29 -0.01 0.56 -0.99 9.21 0.07 0.11 -0.08 282
0.28 -0.03 0.58 -0.97 9.83 0.08 0.12 -0.07 289
0.29 -0.02 0.56 -0.97 9.84 0.10 0.13 -0.08 296
0.28 -0.01 0.59 -0.99 9.82 0.11 0.15 -0.08 304
0.29 -0.01 0.53 -0.97 9.86 0.13 0.15 -0.08 311
0.29 -0.01 0.63 -1.00 9.82 0.14 0.17 -0.08 318
0.28 -0.02 0.62 -1.00 9.92 0.18 0.18 -0.08 325
0.28 -0.03 0.58 -1.02 9.98 0.22 0.20 -0.08 332
0.26 -0.01 0.60 -0.99 10.09 0.29 0.22 -0.08 339
0.27 -0.01 0.67 -1.13 10.17 0.37 0.24 -0.09 348
0.28 -0.01 0.66 -1.09 10.29 0.49 0.25 -0.10 354
0.27 -0.02 0.72 -1.17 10.42 0.62 0.26 -0.11 362
0.27 -0.02 0.77 -1.27 10.41 0.74 0.24 -0.12 369
0.27 -0.02 0.81 -1.34 10.49 0.85 0.21 -0.12 376
0.27 -0.01 0.84 -1.45 10.51 0.97 0.16 -0.13 384
0.27 -0.01 0.77 -1.44 10.78 0.97 0.11 -0.13 391
0.28 -0.02 0.74 -1.53 10.81 1.01 0.05 -0.14 398
0.28 -0.02 0.78 -1.57 10.89 1.07 0.03 -0.15 404
0.28 -0.02 0.62 -1.63 10.75 1.13 0.01 -0.16 412
0.25 -0.02 0.80 -1.75 10.55 1.17 -0.02 -0.16 419
0.23 -0.01 0.60 -1.86 10.29 1.20 -0.04 -0.15 427
0.21 -0.01 0.72 -2.00 10.37 1.22 -0.05 -0.14 434
0.18 -0.02 0.66 -2.09 10.21 1.23 -0.04 -0.13 440
0.17 -0.02 0.64 -2.13 9.92 1.24 -0.05 -0.14 447
0.14 -0.01 0.54 -2.16 10.06 1.25 -0.06 -0.13 454
0.12 -0.01 0.68 -2.39 9.94 1.26 -0.05 -0.13 461
0.12 -0.01 0.74 -2.51 10.00 1.26 -0.11 -0.11 468
0.14 -0.01 0.77 -2.56 10.10 1.29 -0.04 -0.12 476
0.11 -0.01 0.51 -2.58 9.70 1.33 -0.07 -0.12 483
0.15 -0.01 0.74 -2.77 9.85 1.34 -0.04 -0.12 490
0.12 -0.01 0.65 -2.92 9.92 1.35 -0.04 -0.13 497
0.04 -0.00 0.81 -2.97 9.80 1.37 -0.03 -0.13 504
0.07 -0.01 0.73 -3.11 9.83 1.39 -0.03 -0.13 512
0.10 -0.01 0.72 -3.24 9.82 1.41 -0.04 -0.14 519
0.12 -0.01 0.79 -3.37 9.92 1.42 -0.06 -0.15 526
0.05 -0.01 0.74 -3.43 9.91 1.44 -0.06 -0.16 533
0.06 -0.01 0.76 -3.62 10.04 1.46 -0.07 -0.17 540
0.05 -0.01 0.82 -3.81 10.29 1.48 -0.06 -0.18 547
0.12 -0.01 0.83 -4.02 10.28 1.51 -0.04 -0.18 556
0.09 -0.01 0.90 -4.16 10.48 1.54 -0.01 -0.19 562
0.07 -0.01 1.17 -4.47 10.96 1.55 0.05 -0.20 569
0.06 -0.01 1.42 -4.73 11.13 1.56 0.13 -0.21 576
0.05 -0.01 1.76 -4.90 11.22 1.56 0.25 -0.23 583
0.06 -0.01 1.90 -4.84 10.97 1.55 0.37 -0.27 590
0.06 -0.01 2.01 -4.96 10.86 1.53 0.48 -0.31 598
0.06 -0.01 1.61 -5.01 10.89 1.48 0.54 -0.35 605
0.04 -0.00 1.58 -4.87 11.08 1.43 0.56 -0.37 612
0.02 -0.00 1.26 -4.61 11.20 1.36 0.49 -0.41 619
0.02 -0.00 0.73 -4.38 11.18 1.29 0.42 -0.44 626
0.02 -0.00 1.38 -4.16 11.18 1.21 0.28 -0.47 633
0.02 -0.00 1.41 -4.36 11.48 1.15 0.18 -0.50 641
0.02 -0.00 1.44 -4.42 11.73 1.14 0.07 -0.54 648
0.00 -0.00 1.23 -4.34 11.08 1.14 -0.10 -0.61 655
0.01 -0.00 0.64 -2.48 9.97 1.11 -0.21 -0.65 662
0.00 -0.00 1.20 -0.43 8.05 1.00 -0.28 -0.68 669
0.00 0.00 1.81 0.21 6.87 0.80 -0.32 -0.71 676
0.00 0.00 1.91 1.05 6.31 0.62 -0.34 -0.74 683
0.01 -0.00 1.50 2.00 6.11 0.39 -0.39 -0.79 689
0.00 0.00 1.91 4.53 7.09 0.15 -0.44 -0.86 696
0.00 0.00 1.22 4.39 7.48 -0.08 -0.48 -0.91 702
0.00 0.00 1.21 3.62 8.02 -0.29 -0.48 -0.98 708
0.00 0.00 1.41 1.90 7.91 -0.40 -0.50 -1.02 714
0.00 0.00 1.45 1.72 8.86 -0.50 -0.47 -1.02 720
0.00 0.00 1.41 2.15 8.61 -0.61 -0.40 -1.00 727
0.00 0.00 1.53 2.62 7.73 -0.68 -0.34 -0.99 733
0.00 0.00 1.61 2.67 7.10 -0.74 -0.33 -0.98 739
0.00 0.00 1.67 2.41 6.80 -0.78 -0.35 -0.95 745
0.00 0.00 1.73 2.06 6.84 -0.81 -0.36 -0.91 751
0.00 0.00 1.86 1.23 7.09 -0.82 -0.35 -0.86 757
0.00 0.00 2.09 1.60 7.41 -0.84 -0.34 -0.79 763
0.02 -0.00 2.26 1.55 7.69 -0.85 -0.33 -0.70 770
0.00 0.00 2.43 1.51 7.94 -0.89 -0.32 -0.61 777
0.00 0.00 2.68 1.49 8.11 -0.93 -0.29 -0.51 783
0.00 0.00 2.97 1.28 8.42 -0.98 -0.23 -0.40 789
0.00 0.00 3.16 1.11 8.76 -1.04 -0.15 -0.31 795
0.00 0.00 3.29 0.86 8.96 -1.11 -0.03 -0.20 801
-0.00 0.00 3.37 0.53 9.14 -1.17 0.11 -0.09 807
0.00 0.00 3.25 0.12 9.27 -1.24 0.26 0.02 815
0.00 0.00 3.03 -0.23 9.44 -1.30 0.39 0.13 821
0.00 0.00 2.64 -0.57 9.56 -1.34 0.46 0.26 827
0.00 0.00 2.48 -0.84 9.68 -1.38 0.51 0.36 833
0.00 0.00 2.23 -1.09 9.82 -1.40 0.54 0.49 839
0.01 -0.00 1.96 -1.48 9.92 -1.42 0.54 0.61 845
0.00 0.00 0.89 -3.15 9.47 -1.40 0.53 0.70 852
0.00 0.00 -0.05 -5.58 10.34 -1.43 0.55 0.74 859
0.00 0.00 -0.04 -0.71 9.42 -1.50 0.56 0.74 866
0.00 0.00 -1.32 -4.41 9.05 -1.46 0.47 0.74 872
0.00 0.00 0.68 -4.42 15.23 -1.48 0.52 0.71 878
0.00 0.00 -1.06 -3.89 8.08 -1.45 0.38 0.67 885
0.01 -0.00 -0.10 -5.59 11.97 -1.53 0.41 0.68 891
0.00 0.00 1.92 -1.92 17.27 -1.46 0.42 0.66 899
0.00 0.00 -2.12 -5.61 9.98 -1.42 0.34 0.66 906
0.00 0.00 2.85 -2.24 11.64 -1.44 0.36 0.69 913
0.00 0.00 1.27 -2.54 11.06 -1.37 0.40 0.76 920
0.00 0.00 0.37 -3.61 10.69 -1.37 0.35 0.82 927
0.00 0.00 1.66 -2.93 11.16 -1.36 0.36 0.88 934
0.00 0.00 1.62 -3.06 10.37 -1.34 0.37 0.91 942
0.00 0.00 1.40 -3.29 10.57 -1.33 0.37 0.93 949
0.00 0.00 1.39 -3.33 10.32 -1.31 0.37 0.92 956
0.00 0.00 1.48 -3.36 10.60 -1.28 0.37 0.90 963
0.00 0.00 1.50 -3.47 10.49 -1.25 0.36 0.87 970
0.00 0.00 1.64 -3.53 10.57 -1.21 0.37 0.84 977
0.00 0.00 1.89 -3.53 10.73 -1.17 0.42 0.83 985
0.00 0.00 1.97 -3.53 10.80 -1.15 0.48 0.81 992
0.00 0.00 1.77 -3.52 10.87 -1.13 0.54 0.81 999
0.00 0.00 1.71 -3.38 11.14 -1.13 0.61 0.82 1006
0.00 0.00 1.37 -3.34 11.28 -1.14 0.66 0.83 1013
0.00 0.00 0.74 -3.32 11.12 -1.17 0.68 0.85 1020
0.00 0.00 0.12 -3.46 10.76 -1.19 0.67 0.86 1028
0.00 0.00 -0.38 -3.76 10.44 -1.19 0.59 0.87 1035
0.00 0.00 -0.74 -4.21 10.23 -1.15 0.49 0.85 1042
0.00 0.00 -0.94 -4.56 9.86 -1.10 0.38 0.80 1049
0.00 0.00 -1.13 -4.77 9.56 -1.01 0.35 0.73 1056
0.00 0.00 -1.36 -5.04 9.54 -0.88 0.33 0.62 1063
0.00 0.00 -1.33 -5.28 9.61 -0.79 0.32 0.49 1071
0.00 0.00 -1.24 -5.37 9.82 -0.69 0.29 0.32 1078
0.00 0.00 -1.26 -5.40 9.94 -0.62 0.21 0.15 1085
0.00 0.00 -1.11 -6.12 10.67 -0.55 0.14 0.00 1092
0.00 0.00 -2.51 -8.63 13.09 -0.46 -0.18 -0.19 1099
0.00 0.00 -1.36 -5.33 10.34 -0.39 -0.34 -0.36 1106
0.00 0.00 -0.21 -5.67 8.71 -0.46 -0.28 -0.45 1114
0.00 0.00 -0.52 -7.86 9.39 -0.53 -0.32 -0.55 1121
0.00 0.00 -1.10 -7.83 9.40 -0.51 -0.32 -0.65 1128
0.00 0.00 -0.62 -7.22 8.21 -0.41 -0.30 -0.73 1135
0.00 0.00 -0.71 -7.06 8.26 -0.32 -0.36 -0.76 1142
0.00 0.00 -0.87 -8.17 8.46 -0.20 -0.40 -0.76 1149
0.00 0.00 -0.10 -8.39 9.09 -0.08 -0.45 -0.75 1157
0.00 0.00 0.03 -7.83 7.89 0.06 -0.44 -0.70 1164
0.00 0.00 -0.63 -8.09 8.27 0.21 -0.49 -0.69 1171
0.00 0.00 -0.68 -8.21 7.65 0.31 -0.52 -0.63 1178
0.00 0.00 -1.65 -8.11 6.67 0.51 -0.62 -0.57 1185
0.00 0.00 -1.58 -8.60 7.02 0.72 -0.75 -0.47 1192
0.00 0.00 -2.80 -10.49 9.30 0.93 -0.97 -0.39 1200
0.00 0.00 -4.58 -16.62 14.96 0.67 -1.97 -0.48 1207
0.00 0.00 -2.37 -13.02 19.20 0.32 -0.94 -0.34 1214
-0.00 0.01 -2.37 -0.57 5.70 -0.03 0.09 -0.05 1221
0.00 0.01 -0.28 -4.83 10.23 -0.23 0.09 0.02 1228
0.00 0.00 -0.11 -1.54 10.07 -0.29 0.10 0.00 1235
-0.00 0.00 0.43 -1.11 9.46 -0.26 0.05 0.03 1243
0.00 0.00 0.61 -0.51 9.83 -0.27 -0.00 0.05 1250
-0.00 0.02 0.60 -0.57 9.81 -0.25 -0.01 0.01 1257
-0.01 0.06 0.40 -0.58 10.06 -0.20 -0.00 -0.03 1264
0.00 0.08 0.20 -0.73 10.09 -0.16 0.00 -0.04 1271
-0.00 0.13 0.23 -0.82 9.95 -0.13 0.01 -0.04 1278
0.01 0.17 0.14 -0.82 10.02 -0.10 0.02 -0.05 1286
-0.01 0.20 0.13 -0.76 9.89 -0.07 0.04 -0.05 1293
0.00 0.18 0.26 -0.72 9.91 -0.05 0.05 -0.04 1300
0.03 0.21 0.32 -0.81 9.83 -0.05 0.06 -0.05 1307
0.05 0.23 0.32 -0.80 9.76 -0.04 0.06 -0.05 1314
0.04 0.22 0.26 -0.80 9.81 -0.04 0.06 -0.04 1321
0.04 0.22 0.33 -0.80 9.83 -0.04 0.06 -0.04 1329
0.02 0.26 0.30 -0.83 9.84 -0.04 0.05 -0.05 1336
0.04 0.25 0.38 -0.85 9.81 -0.05 0.05 -0.04 1343
0.05 0.25 0.32 -0.86 9.84 -0.05 0.05 -0.04 1350
0.06 0.26 0.27 -0.80 9.82 -0.05 0.05 -0.04 1357
0.05 0.25 0.30 -0.81 9.85 -0.05 0.05 -0.04 1364
0.05 0.30 0.25 -0.76 9.81 -0.05 0.05 -0.04 1372
0.04 0.34 0.29 -0.71 9.84 -0.05 0.05 -0.04 1379
0.05 0.34 0.33 -0.74 9.76 -0.05 0.05 -0.04 1386
0.06 0.43 0.36 -0.79 9.91 -0.05 0.05 -0.05 1393
0.04 0.44 0.37 -0.77 9.84 -0.04 0.06 -0.05 1400
0.05 0.46 0.30 -0.74 10.42 -0.04 0.05 -0.05 1408
0.04 0.48 0.33 -0.78 9.82 -0.04 0.05 -0.05 1415
0.03 0.52 0.28 -0.73 9.83 -0.04 0.05 -0.05 1422
0.03 0.58 0.35 -0.73 9.86 -0.03 0.05 -0.05 1429
0.04 0.54 0.28 -0.71 9.78 -0.03 0.05 -0.05 1436
0.03 0.54 0.30 -0.71 9.80 -0.03 0.05 -0.05 1443
0.03 0.56 0.28 -0.70 9.81 -0.02 0.05 -0.06 1451
0.02 0.55 0.35 -0.68 9.82 -0.02 0.05 -0.06 1458
0.02 0.54 0.30 -0.73 9.83 -0.01 0.05 -0.06 1465
0.03 0.56 0.31 -0.72 9.83 -0.01 0.05 -0.06 1472
0.02 0.57 0.30 -0.76 9.83 -0.01 0.05 -0.06 1479
0.01 0.58 0.30 -0.71 9.82 -0.01 0.05 -0.06 1486
0.01 0.57 0.27 -0.73 9.81 -0.01 0.05 -0.06 1494
0.01 0.58 0.32 -0.75 9.20 -0.01 0.04 -0.06 1501
0.00 0.59 0.33 -0.74 9.82 -0.01 0.04 -0.06 1508
0.01 0.61 0.33 -0.73 9.81 -0.01 0.04 -0.06 1515
0.02 0.60 0.31 -0.71 9.81 -0.01 0.04 -0.06 1522
0.01 0.62 0.30 -0.76 9.78 -0.01 0.04 -0.06 1529
0.00 0.61 0.29 -0.72 9.81 -0.01 0.04 -0.06 1537
-0.01 0.61 0.32 -0.73 9.81 -0.00 0.04 -0.06 1544
0.01 0.59 0.30 -0.70 9.82 -0.01 0.03 -0.06 1551
0.01 0.60 0.33 -0.70 9.81 -0.01 0.03 -0.06 1558
0.00 0.60 0.32 -0.73 9.80 -0.01 0.03 -0.07 1565
-0.01 0.61 0.31 -0.74 9.80 -0.01 0.03 -0.07 1572
-0.01 0.60 0.29 -0.74 9.81 -0.01 0.03 -0.07 1580
-0.01 0.59 0.32 -0.75 9.81 -0.01 0.03 -0.07 1587
-0.00 0.59 0.29 -0.72 9.81 -0.01 0.03 -0.07 1594
0.00 0.59 0.33 -0.71 9.82 -0.01 0.03 -0.07 1601
0.00 0.58 0.28 -0.75 9.81 -0.01 0.03 -0.06 1608
-0.01 0.59 0.28 -0.74 9.81 -0.01 0.03 -0.06 1615
-0.02 0.56 0.29 -0.71 9.80 -0.01 0.03 -0.07 1623
-0.01 0.58 0.32 -0.71 9.81 -0.01 0.03 -0.07 1630
-0.01 0.58 0.27 -0.75 9.79 -0.01 0.03 -0.06 1637
0.01 0.57 0.29 -0.69 9.79 -0.01 0.03 -0.07 1644
-0.01 0.57 0.29 -0.72 9.81 -0.01 0.03 -0.06 1651
-0.01 0.57 0.27 -0.71 9.82 -0.01 0.03 -0.06 1658
-0.02 0.60 0.28 -0.71 9.81 -0.01 0.03 -0.06 1666
-0.01 0.59 0.34 -0.73 9.77 -0.01 0.04 -0.06 1673
-0.01 0.61 0.31 -0.70 9.75 -0.01 0.03 -0.07 1680
-0.00 0.60 0.31 -0.71 9.81 -0.01 0.03 -0.07 1687
-0.01 0.59 0.31 -0.72 9.78 -0.01 0.03 -0.07 1694
-0.00 0.58 0.30 -0.73 9.81 -0.01 0.03 -0.07 1701
-0.01 0.58 0.27 -0.73 9.80 -0.01 0.03 -0.07 1709
-0.01 0.60 0.29 -0.73 9.81 -0.01 0.03 -0.07 1716
-0.01 0.60 0.32 -0.74 9.81 -0.00 0.04 -0.07 1723
-0.00 0.58 0.28 -0.76 9.81 -0.00 0.04 -0.07 1730
-0.01 0.57 0.31 -0.73 9.79 -0.00 0.03 -0.07 1737
-0.01 0.56 0.28 -0.74 9.82 -0.00 0.04 -0.07 1744
-0.02 0.57 0.29 -0.73 9.80 -0.00 0.04 -0.07 1752
-0.01 0.56 0.29 -0.75 10.37 -0.00 0.04 -0.07 1759
-0.00 0.56 0.26 -0.73 9.79 -0.00 0.04 -0.07 1766
-0.00 0.55 0.28 -0.75 9.82 -0.00 0.04 -0.07 1773
-0.01 0.53 0.25 -0.70 9.75 -0.00 0.04 -0.07 1780
-0.01 0.51 0.29 -0.71 9.83 -0.00 0.04 -0.07 1787
-0.01 0.51 0.30 -0.72 9.80 0.00 0.04 -0.07 1795
-0.01 0.51 0.30 -0.73 9.76 0.00 0.05 -0.07 1802
0.01 0.49 0.29 -0.72 9.79 0.01 0.05 -0.07 1809
0.01 0.49 0.27 -0.71 9.86 0.01 0.05 -0.07 1816
0.02 0.49 0.28 -0.72 9.79 0.01 0.06 -0.07 1823
0.01 0.46 0.25 -0.75 9.77 0.01 0.06 -0.07 1830
0.01 0.47 0.27 -0.72 9.73 0.02 0.06 -0.07 1838
0.03 0.41 0.27 -0.71 9.79 0.02 0.06 -0.07 1845
0.04 0.38 0.27 -0.76 9.81 0.02 0.07 -0.07 1852
0.04 0.37 0.31 -0.74 9.83 0.02 0.07 -0.07 1859
0.05 0.36 0.31 -0.72 9.80 0.03 0.07 -0.07 1866
0.05 0.32 0.29 -0.76 9.81 0.04 0.08 -0.07 1873
0.06 0.30 0.31 -0.70 9.89 0.05 0.07 -0.07 1881
0.09 0.19 0.29 -0.76 9.21 0.05 0.08 -0.07 1888
0.12 0.11 0.36 -0.76 9.83 0.06 0.08 -0.07 1895
0.16 0.08 0.33 -0.76 9.79 0.07 0.09 -0.08 1902
0.17 0.07 0.34 -0.78 9.88 0.07 0.09 -0.07 1909
0.17 0.02 0.34 -0.76 9.93 0.08 0.10 -0.07 1916
0.20 0.01 0.40 -0.78 10.01 0.11 0.11 -0.08 1924
0.20 -0.00 0.37 -0.86 10.34 0.15 0.14 -0.07 1931
0.25 -0.02 0.32 -0.90 10.22 0.22 0.18 -0.07 1938
0.29 -0.02 0.40 -0.86 10.41 0.33 0.26 -0.07 1945
0.34 -0.03 0.52 -0.86 10.74 0.50 0.37 -0.08 1952
0.33 -0.02 0.57 -1.10 11.46 0.78 0.44 -0.11 1960
0.33 -0.02 1.03 -1.10 11.98 1.22 0.43 -0.16 1968
0.36 -0.02 0.70 -1.29 12.97 1.60 0.28 -0.20 1974
0.38 -0.02 0.90 -1.33 13.34 1.83 0.17 -0.25 1982
0.38 -0.02 0.74 -1.22 12.92 1.93 0.03 -0.27 1989
0.36 -0.03 0.78 -1.37 12.78 2.05 -0.09 -0.27 1996
0.34 -0.01 0.74 -1.50 12.76 2.22 -0.16 -0.27 2003
0.30 -0.01 0.65 -1.72 11.68 2.33 -0.19 -0.27 2011
0.31 -0.02 0.53 -1.76 11.54 2.39 -0.23 -0.27 2018
0.25 -0.02 0.80 -2.06 11.73 2.45 -0.18 -0.28 2025
0.20 -0.02 0.71 -2.25 11.74 2.52 -0.18 -0.28 2032
0.14 -0.01 1.07 -2.49 11.27 2.58 -0.17 -0.28 2038
0.11 -0.01 1.06 -2.89 11.50 2.58 -0.17 -0.31 2045
0.06 -0.00 1.01 -3.20 11.81 2.59 -0.19 -0.33 2053
0.09 -0.01 1.38 -3.74 12.01 2.59 -0.15 -0.36 2060
0.07 -0.01 1.23 -3.81 12.26 2.57 -0.05 -0.39 2067
0.06 -0.01 1.04 -4.15 12.51 2.55 0.17 -0.39 2074
0.05 -0.01 0.91 -4.52 13.10 2.51 0.37 -0.40 2081
0.05 -0.01 1.28 -4.48 12.54 2.43 0.46 -0.41 2088
0.01 -0.00 1.81 -4.52 11.73 2.36 0.46 -0.46 2096
0.01 -0.00 2.11 -4.26 11.11 2.28 0.42 -0.52 2103
0.00 -0.00 2.33 -4.08 10.88 2.19 0.37 -0.58 2110
0.01 -0.00 2.47 -3.95 11.16 2.12 0.36 -0.66 2117
0.00 0.00 2.28 -3.97 12.26 2.03 0.36 -0.72 2124
0.00 0.00 1.96 -4.20 12.89 1.93 0.35 -0.77 2131
0.00 0.00 1.77 -4.47 13.49 1.91 0.30 -0.84 2139
0.00 -0.00 1.25 -4.37 12.02 1.92 0.15 -0.90 2146
0.00 0.00 1.01 -2.63 9.12 1.91 -0.02 -0.96 2153
0.00 0.00 0.99 -0.73 6.98 1.83 -0.12 -0.98 2160
0.00 0.00 1.53 -1.03 5.25 1.66 -0.23 -1.00 2167
0.00 0.00 1.77 -0.47 4.77 1.47 -0.39 -1.04 2174
0.00 -0.00 1.98 0.95 5.50 1.29 -0.44 -1.07 2182
0.00 0.00 2.62 3.91 7.03 1.14 -0.43 -1.04 2189
0.00 0.00 2.44 2.22 7.15 1.03 -0.36 -0.96 2196
0.00 0.00 1.83 0.30 8.18 0.93 -0.30 -0.83 2203
0.00 0.00 1.65 -0.77 9.08 0.81 -0.27 -0.67 2210
0.00 0.00 1.59 -0.07 8.94 0.70 -0.30 -0.54 2217
0.00 0.00 1.50 1.08 8.08 0.64 -0.35 -0.42 2225
0.00 0.00 1.40 1.46 7.22 0.58 -0.41 -0.30 2232
0.00 0.00 1.41 1.44 7.03 0.47 -0.47 -0.21 2239
0.00 0.00 1.56 1.26 7.27 0.35 -0.50 -0.10 2246
0.00 0.00 1.66 1.20 7.54 0.21 -0.53 -0.01 2253
0.00 0.00 1.92 1.15 7.69 0.06 -0.54 0.08 2260
0.00 0.00 2.13 1.06 7.73 -0.07 -0.50 0.15 2268
0.00 0.00 2.39 0.96 7.79 -0.24 -0.40 0.21 2275
0.00 0.00 2.48 0.85 7.87 -0.40 -0.27 0.26 2282
0.00 0.00 2.51 0.64 7.88 -0.59 -0.14 0.33 2289
0.00 0.00 2.38 0.35 7.97 -0.79 0.01 0.33 2296
0.00 0.00 2.14 0.03 8.03 -0.95 0.11 0.37 2304
0.00 0.00 1.83 -0.28 8.04 -1.13 0.21 0.41 2311
0.00 0.00 1.52 -0.68 8.15 -1.30 0.26 0.46 2318
0.00 0.00 1.27 -1.08 8.16 -1.41 0.27 0.52 2325
0.00 0.00 1.00 -1.53 8.05 -1.53 0.25 0.61 2332
0.00 0.00 0.88 -1.94 8.03 -1.60 0.22 0.70 2339
0.00 0.00 0.87 -2.35 8.03 -1.64 0.16 0.78 2347
0.00 0.00 0.74 -2.92 7.97 -1.64 0.11 0.87 2354
0.00 0.00 -0.70 -5.73 8.74 -1.59 0.08 0.87 2361
0.00 0.00 2.06 -6.67 8.86 -1.64 0.07 0.83 2368
0.00 0.00 -0.95 -3.71 10.29 -1.61 0.08 0.70 2375
0.00 0.00 0.76 -4.27 9.82 -1.63 0.08 0.57 2382
0.00 0.00 0.09 -8.88 10.59 -1.66 0.14 0.51 2390
0.00 0.00 -0.76 -4.32 11.95 -1.61 0.19 0.39 2397
0.00 0.00 -1.67 -11.19 9.21 -1.68 0.25 0.35 2404
0.00 0.00 -3.04 -6.97 8.08 -1.70 0.24 0.33 2411
0.00 0.00 -0.76 -6.64 7.59 -1.69 0.22 0.42 2418
0.00 0.00 -1.91 -8.38 9.87 -1.60 0.21 0.52 2425
0.00 0.00 1.21 -4.93 12.78 -1.58 0.19 0.61 2433
0.00 0.00 0.35 -6.38 8.45 -1.50 0.10 0.70 2440
0.00 0.00 2.18 -4.11 14.74 -1.44 0.16 0.75 2447
0.00 0.00 -0.20 -5.24 8.16 -1.38 0.12 0.78 2454
0.00 0.00 -0.74 -5.51 7.86 -1.30 0.16 0.78 2461
0.00 0.00 1.68 -4.57 10.26 -1.26 0.25 0.77 2468
0.00 -0.00 0.49 -4.23 10.49 -1.31 0.34 0.74 2476
0.00 0.00 -0.20 -1.60 12.04 -1.50 0.41 0.76 2483
0.00 0.00 1.48 -0.74 14.12 -1.58 0.44 0.81 2490
0.00 0.00 0.83 -1.96 10.06 -1.68 0.34 0.84 2497
0.00 0.00 0.50 -3.22 11.13 -1.77 0.20 0.85 2504
0.00 0.00 0.51 -2.94 11.13 -1.91 0.08 0.81 2511
0.00 0.00 0.81 -2.82 10.75 -1.96 -0.02 0.74 2519
0.00 0.00 0.95 -3.25 10.13 -1.95 -0.05 0.67 2526
0.00 0.00 1.31 -3.50 9.79 -1.89 -0.02 0.58 2533
0.00 0.00 1.54 -3.63 9.69 -1.77 0.07 0.47 2540
0.00 0.00 1.54 -3.71 9.77 -1.69 0.19 0.34 2547
0.00 0.00 1.36 -3.71 9.84 -1.57 0.31 0.28 2554
0.00 0.00 1.14 -3.61 10.12 -1.47 0.37 0.21 2562
0.00 0.00 0.93 -3.55 10.44 -1.38 0.40 0.16 2569
0.00 0.00 0.78 -3.56 10.69 -1.33 0.37 0.12 2576
0.00 0.00 0.71 -3.58 10.63 -1.28 0.33 0.09 2583
0.00 0.00 0.85 -3.66 10.71 -1.23 0.26 0.07 2590
0.00 0.00 1.07 -3.86 10.62 -1.18 0.24 0.04 2597
0.00 0.00 1.16 -4.01 10.54 -1.12 0.23 0.03 2605
0.00 0.00 1.16 -4.16 10.40 -1.04 0.26 -0.01 2612
0.00 0.00 1.15 -4.28 10.22 -0.97 0.30 -0.04 2619
0.00 0.00 1.02 -4.43 9.95 -0.88 0.35 -0.08 2626
0.00 0.00 0.80 -4.63 9.58 -0.80 0.41 -0.13 2633
0.00 0.00 0.54 -4.81 9.48 -0.69 0.44 -0.17 2640
0.00 0.00 0.29 -4.92 9.80 -0.57 0.46 -0.23 2648
0.00 0.00 -0.01 -4.96 9.96 -0.49 0.44 -0.28 2655
0.00 0.00 -0.29 -4.89 9.91 -0.42 0.38 -0.31 2662
0.00 0.00 -0.40 -4.80 9.98 -0.39 0.31 -0.35 2669
-0.00 0.00 -0.25 -4.81 9.98 -0.37 0.27 -0.39 2676
0.00 0.00 0.01 -4.86 10.03 -0.38 0.25 -0.41 2683
0.00 0.00 0.16 -5.00 9.99 -0.40 0.30 -0.44 2691
0.00 0.00 0.20 -5.33 9.97 -0.41 0.31 -0.46 2698
0.00 0.00 0.32 -5.76 9.87 -0.42 0.37 -0.50 2705
0.00 0.00 0.42 -6.03 9.61 -0.42 0.44 -0.54 2712
0.00 0.00 0.40 -6.26 9.59 -0.43 0.52 -0.55 2719
0.00 0.00 0.33 -6.27 9.64 -0.45 0.61 -0.55 2726
0.00 0.00 0.08 -6.09 9.43 -0.49 0.68 -0.53 2734
0.00 0.00 -0.85 -6.64 9.40 -0.50 0.66 -0.46 2741
0.00 0.00 -5.16 -11.30 12.72 -0.31 0.20 -0.39 2748
0.00 0.00 -3.65 -6.67 7.76 -0.06 -0.35 -0.32 2755
0.00 0.00 -1.45 -6.06 5.30 0.01 -0.51 -0.23 2762
0.00 0.00 -2.30 -8.59 7.93 0.13 -0.70 -0.16 2769
0.00 0.00 -2.69 -9.46 8.51 0.32 -0.95 -0.13 2777
0.00 0.00 -1.89 -7.89 7.37 0.50 -0.97 -0.16 2784
0.00 0.00 -2.97 -9.32 7.61 0.66 -1.04 -0.21 2791
0.00 0.00 -3.25 -11.80 9.48 0.78 -1.48 -0.33 2798
0.01 -0.00 -4.93 -12.72 8.24 0.57 -2.22 -0.63 2805
-0.00 0.00 0.56 -12.13 15.62 0.41 -2.33 -0.65 2813
0.00 0.00 -1.94 -3.42 15.01 0.13 -0.52 -0.04 2820
-0.00 0.01 0.58 -1.16 8.29 -0.21 0.06 0.10 2827
-0.00 0.03 -0.07 -2.09 10.33 -0.29 0.04 0.07 2834
-0.01 0.08 0.44 -0.88 10.16 -0.29 0.01 0.03 2841
0.03 0.13 0.59 -0.46 10.39 -0.23 0.00 -0.01 2848
0.02 0.21 0.35 -0.38 10.31 -0.14 0.01 -0.04 2855
-0.00 0.25 0.20 -1.19 10.25 -0.13 0.02 -0.06 2863
-0.02 0.23 0.27 -0.87 10.15 -0.08 0.03 -0.06 2870
-0.01 0.26 0.26 -0.88 9.89 -0.06 0.04 -0.05 2877
0.01 0.33 0.31 -0.81 9.86 -0.04 0.06 -0.04 2884
0.01 0.29 0.42 -0.83 9.75 -0.04 0.06 -0.04 2891
-0.01 0.31 0.32 -0.81 9.66 -0.04 0.06 -0.04 2898
-0.01 0.30 0.45 -0.84 9.84 -0.04 0.05 -0.04 2906
0.00 0.31 0.40 -0.79 9.81 -0.04 0.05 -0.03 2913
0.00 0.35 0.38 -0.75 10.32 -0.04 0.05 -0.04 2920
0.01 0.42 0.29 -0.74 9.73 -0.04 0.04 -0.04 2927
0.01 0.40 0.37 -0.74 9.82 -0.04 0.04 -0.05 2934
-0.01 0.44 0.45 -0.80 9.81 -0.04 0.04 -0.05 2941
-0.00 0.47 0.42 -0.79 9.78 -0.04 0.04 -0.04 2949
-0.02 0.52 0.41 -0.74 9.82 -0.04 0.04 -0.05 2956
-0.01 0.55 0.38 -0.78 9.81 -0.04 0.04 -0.05 2963
0.00 0.53 0.37 -0.76 9.80 -0.04 0.04 -0.05 2970
0.01 0.53 0.41 -0.77 9.85 -0.04 0.04 -0.06 2977
0.00 0.57 0.35 -0.83 9.83 -0.03 0.05 -0.06 2984
0.00 0.54 0.39 -0.76 9.85 -0.03 0.06 -0.06 2992
-0.00 0.55 0.36 -0.72 9.82 -0.03 0.06 -0.05 2999
0.00 0.53 0.39 -0.77 9.83 -0.02 0.06 -0.06 3006
0.02 0.54 0.35 -0.73 9.80 -0.02 0.06 -0.05 3013
0.01 0.55 0.35 -0.74 9.81 -0.02 0.06 -0.05 3020
0.01 0.56 0.39 -0.74 9.79 -0.01 0.07 -0.05 3027
0.00 0.57 0.35 -0.76 9.81 -0.01 0.07 -0.05 3035
-0.00 0.61 0.36 -0.75 9.80 -0.01 0.07 -0.05 3042
-0.00 0.61 0.37 -0.76 9.83 -0.00 0.07 -0.05 3049
0.01 0.60 0.39 -0.75 9.81 -0.00 0.07 -0.05 3056
0.01 0.60 0.38 -0.76 9.80 -0.00 0.07 -0.06 3063
0.00 0.58 0.41 -0.72 9.82 0.00 0.07 -0.05 3070
-0.01 0.56 0.36 -0.73 9.75 0.01 0.07 -0.06 3078
-0.01 0.55 0.40 -0.72 9.80 -0.00 0.06 -0.06 3085
0.01 0.56 0.38 -0.74 9.81 0.00 0.07 -0.06 3092
0.02 0.55 0.34 -0.73 9.81 0.00 0.07 -0.06 3099
0.01 0.55 0.38 -0.75 9.74 0.01 0.07 -0.06 3106
0.00 0.51 0.39 -0.75 9.82 0.01 0.07 -0.06 3113
-0.01 0.50 0.40 -0.73 9.79 0.01 0.07 -0.06 3121
0.00 0.50 0.41 -0.76 9.79 0.01 0.07 -0.06 3128
0.01 0.50 0.44 -0.73 9.76 0.01 0.07 -0.06 3135
0.01 0.48 0.39 -0.75 9.79 0.01 0.07 -0.06 3142
0.02 0.46 0.45 -0.77 9.82 0.00 0.07 -0.06 3149
0.03 0.46 0.44 -0.77 9.74 0.01 0.07 -0.06 3156
0.02 0.45 0.45 -0.76 9.79 0.01 0.07 -0.06 3164
0.03 0.46 0.42 -0.74 9.77 0.01 0.07 -0.06 3171
0.04 0.41 0.45 -0.76 9.81 0.01 0.07 -0.06 3178
0.04 0.40 0.42 -0.75 9.81 0.01 0.06 -0.06 3185
0.03 0.38 0.44 -0.76 9.82 0.00 0.07 -0.06 3192
0.02 0.37 0.47 -0.75 9.81 0.00 0.06 -0.06 3200
0.00 0.36 0.46 -0.74 9.79 0.00 0.06 -0.06 3207
0.02 0.38 0.44 -0.76 9.81 0.00 0.06 -0.06 3214
0.03 0.35 0.43 -0.76 9.81 0.00 0.05 -0.06 3221
0.03 0.31 0.44 -0.79 9.83 -0.00 0.05 -0.06 3228
0.03 0.30 0.46 -0.78 9.79 0.00 0.05 -0.06 3235
0.03 0.29 0.42 -0.79 9.80 -0.00 0.05 -0.06 3243
0.03 0.31 0.44 -0.76 9.78 -0.00 0.05 -0.06 3250
0.03 0.30 0.41 -0.77 9.78 -0.00 0.05 -0.06 3257
0.04 0.30 0.44 -0.76 9.78 -0.00 0.06 -0.06 3264
0.03 0.27 0.48 -0.76 9.76 0.00 0.06 -0.06 3271
0.03 0.26 0.47 -0.77 9.78 0.00 0.06 -0.06 3278
0.02 0.25 0.46 -0.77 9.80 0.01 0.06 -0.06 3286
0.02 0.24 0.44 -0.76 9.79 0.00 0.06 -0.06 3293
0.03 0.26 0.43 -0.78 9.75 0.00 0.06 -0.06 3300
0.05 0.22 0.43 -0.78 9.76 0.00 0.06 -0.06 3307
0.04 0.21 0.47 -0.79 9.79 -0.00 0.06 -0.06 3314
0.04 0.21 0.46 -0.75 9.79 0.00 0.06 -0.06 3321
0.04 0.22 0.45 -0.75 9.81 -0.00 0.05 -0.06 3329
0.05 0.22 0.47 -0.78 9.80 0.03 0.05 -0.06 3336
0.04 0.23 0.46 -0.75 9.81 0.00 0.05 -0.06 3343
0.06 0.20 0.51 -0.77 9.79 0.00 0.04 -0.06 3350
0.05 0.20 0.46 -0.72 9.82 0.00 0.04 -0.06 3357
0.05 0.19 0.43 -0.75 9.74 0.00 0.04 -0.07 3364
0.04 0.20 0.48 -0.78 9.81 0.00 0.04 -0.07 3372
0.05 0.23 0.49 -0.79 9.81 0.01 0.04 -0.07 3379
0.06 0.21 0.47 -0.77 9.82 0.00 0.03 -0.07 3386
0.06 0.21 0.48 -0.75 9.78 0.01 0.02 -0.07 3393
0.06 0.18 0.46 -0.80 9.20 0.01 0.01 -0.07 3400
0.06 0.13 0.48 -0.80 9.79 0.01 0.01 -0.07 3407
0.06 0.12 0.51 -0.80 9.78 0.01 0.01 -0.08 3415
0.07 0.12 0.44 -0.82 9.77 0.01 0.01 -0.08 3422
0.07 0.08 0.46 -0.79 9.80 0.01 0.02 -0.07 3429
0.07 0.03 0.44 -0.79 9.77 0.02 0.02 -0.08 3436
0.07 0.03 0.40 -0.82 9.82 0.02 0.03 -0.08 3443
0.06 0.06 0.41 -0.77 9.82 0.03 0.04 -0.07 3450
0.09 0.05 0.46 -0.79 9.82 0.03 0.06 -0.07 3458
0.10 0.06 0.38 -0.84 9.83 0.04 0.07 -0.07 3465
0.16 0.02 0.46 -0.83 9.84 0.04 0.07 -0.07 3472
0.16 0.00 0.47 -0.75 9.84 0.05 0.08 -0.07 3479
0.15 -0.00 0.46 -0.82 9.85 0.06 0.09 -0.08 3486
0.17 -0.01 0.45 -0.80 9.88 0.07 0.11 -0.08 3493
0.20 -0.02 0.52 -0.82 9.93 0.09 0.12 -0.08 3501
0.22 -0.01 0.53 -0.82 9.95 0.13 0.14 -0.08 3508
0.27 -0.02 0.57 -0.82 10.04 0.18 0.19 -0.09 3515
0.27 -0.02 0.61 -0.88 10.07 0.23 0.24 -0.10 3522
0.30 -0.02 0.71 -0.97 10.17 0.31 0.30 -0.11 3529
0.29 -0.01 0.77 -1.07 10.44 0.44 0.34 -0.13 3537
0.31 -0.02 0.78 -1.02 10.76 0.61 0.35 -0.15 3545
0.31 -0.00 0.69 -1.08 11.39 0.92 0.33 -0.17 3552
0.31 -0.02 0.74 -1.10 11.75 1.19 0.27 -0.19 3559
0.31 -0.02 0.77 -1.42 12.19 1.38 0.18 -0.20 3566
0.30 -0.03 0.65 -1.22 12.00 1.49 0.10 -0.21 3572
0.28 -0.01 0.00 -1.38 12.04 1.60 0.03 -0.21 3579
0.27 -0.02 0.59 -1.48 11.63 1.74 -0.03 -0.21 3588
0.25 -0.01 0.44 -1.46 11.44 1.87 -0.04 -0.19 3595
0.23 -0.01 0.56 -1.77 10.78 1.89 -0.04 -0.17 3602
0.22 -0.02 0.80 -2.11 10.45 1.91 -0.09 -0.15 3608
0.20 -0.02 0.75 -2.11 10.83 1.95 -0.03 -0.14 3615
0.19 -0.01 0.50 -2.21 11.65 2.03 -0.06 -0.13 3623
0.12 -0.00 0.77 -2.40 11.07 2.09 -0.06 -0.14 3630
0.11 -0.01 0.82 -2.56 10.93 2.15 -0.05 -0.14 3637
0.06 -0.01 0.80 -2.78 11.39 2.21 -0.07 -0.15 3644
0.06 -0.01 0.81 -2.97 11.37 2.26 -0.10 -0.16 3651
0.08 -0.01 0.80 -3.23 11.45 2.30 -0.15 -0.16 3658
0.07 -0.01 0.91 -3.55 11.36 2.33 -0.16 -0.18 3665
0.07 -0.01 0.87 -3.83 11.50 2.35 -0.15 -0.19 3673
0.09 -0.01 0.87 -4.05 11.65 2.36 -0.15 -0.21 3680
0.07 -0.01 1.18 -4.32 11.93 2.36 -0.13 -0.22 3687
0.07 -0.01 1.17 -4.44 11.50 2.35 -0.10 -0.25 3694
0.05 -0.00 1.20 -4.55 11.48 2.32 -0.08 -0.28 3701
0.06 -0.01 1.21 -4.53 11.07 2.30 -0.08 -0.31 3708
0.06 -0.01 1.10 -4.59 10.56 2.26 -0.08 -0.33 3716
0.05 -0.01 1.02 -4.45 10.39 2.24 -0.11 -0.36 3723
0.03 -0.00 0.87 -4.57 10.44 2.21 -0.14 -0.38 3730
0.02 -0.00 0.80 -4.51 10.63 2.17 -0.18 -0.39 3737
0.01 -0.00 0.01 -4.70 10.78 2.12 -0.24 -0.41 3744
0.01 -0.00 0.51 -4.94 10.97 2.07 -0.33 -0.42 3751
0.01 -0.00 0.38 -5.30 11.50 2.05 -0.43 -0.44 3759
0.01 -0.00 0.46 -5.63 11.54 2.10 -0.54 -0.45 3766
0.00 -0.00 0.51 -5.65 11.33 2.12 -0.69 -0.48 3773
0.00 -0.00 0.60 -5.03 10.63 2.11 -0.83 -0.49 3780
0.00 0.00 0.73 -4.90 10.20 2.07 -0.87 -0.49 3787
0.00 0.00 1.04 -4.01 9.50 1.99 -0.85 -0.48 3794
0.00 -0.00 1.50 -3.00 8.07 1.85 -0.76 -0.48 3802
0.00 0.00 1.87 -1.65 7.05 1.66 -0.61 -0.50 3809
0.00 0.00 1.89 0.57 6.13 1.44 -0.46 -0.54 3816
0.00 0.00 2.16 1.34 5.53 1.14 -0.36 -0.59 3823
0.00 0.00 1.99 3.63 6.62 0.81 -0.24 -0.69 3830
0.00 0.00 2.11 6.92 7.03 0.56 -0.15 -0.81 3837
0.00 0.00 1.40 5.54 8.67 0.15 -0.03 -0.93 3845
0.00 0.00 0.80 2.54 9.24 -0.17 -0.02 -1.01 3852
0.00 0.00 0.44 2.27 9.93 -0.54 0.00 -1.04 3859
0.00 0.00 0.32 2.83 8.86 -0.80 -0.02 -1.06 3866
0.00 0.00 0.35 2.99 7.64 -0.92 -0.10 -1.05 3873
0.00 0.00 0.40 2.81 6.79 -1.01 -0.24 -1.01 3880
0.00 0.00 0.81 2.39 6.32 -1.08 -0.33 -0.95 3888
0.00 0.00 1.29 2.21 6.40 -1.13 -0.35 -0.84 3895
0.00 0.00 1.84 2.06 6.64 -1.17 -0.32 -0.79 3902
0.00 0.00 2.17 1.94 6.87 -1.19 -0.21 -0.70 3909
0.00 0.00 2.43 1.71 7.01 -1.24 -0.10 -0.63 3916
0.00 0.00 2.43 1.44 7.66 -1.29 0.04 -0.55 3923
0.00 0.00 2.45 0.61 7.82 -1.37 0.16 -0.44 3931
0.00 0.00 2.32 0.99 8.32 -1.46 0.29 -0.39 3938
0.00 0.00 2.04 0.77 8.93 -1.56 0.37 -0.28 3945
0.00 0.00 1.83 0.48 9.38 -1.67 0.46 -0.18 3952
0.00 0.00 1.50 0.12 9.76 -1.80 0.50 -0.06 3959
0.00 0.00 1.25 -0.13 10.03 -1.88 0.51 0.04 3966
0.00 0.00 1.05 -0.57 10.12 -1.98 0.50 0.12 3974
0.00 0.00 0.86 -1.00 10.29 -2.05 0.47 0.19 3981
0.00 0.00 0.80 -1.30 10.58 -2.12 0.46 0.24 3988
0.00 0.00 0.69 -2.00 10.81 -2.18 0.47 0.26 3995
0.00 0.00 -0.36 -4.81 11.92 -2.20 0.52 0.24 4002
0.00 0.00 1.38 -3.26 9.55 -2.28 0.58 0.18 4009
0.00 0.00 0.40 -4.93 9.38 -2.32 0.63 0.14 4017
0.00 0.00 -1.31 -5.94 7.79 -2.33 0.65 0.10 4024
0.00 0.00 -0.56 -3.28 14.76 -2.29 0.59 0.07 4031
0.00 0.00 -0.82 -4.08 12.34 -2.24 0.45 0.07 4038
0.00 0.00 -0.52 -4.19 11.88 -2.12 0.40 0.09 4045
0.00 0.00 0.90 -5.00 11.11 -2.08 0.40 0.12 4052
0.00 0.00 1.02 -4.94 10.66 -2.03 0.45 0.17 4060
0.00 0.00 2.06 -4.43 11.21 -2.01 0.55 0.15 4067
0.00 0.00 1.40 -5.09 11.20 -1.94 0.65 0.19 4074
0.00 0.00 1.40 -5.55 11.57 -1.89 0.71 0.24 4081
0.00 0.00 1.30 -5.69 11.36 -1.81 0.77 0.29 4088
0.00 0.00 1.19 -5.68 11.20 -1.73 0.79 0.35 4096
0.00 0.00 1.05 -5.64 11.09 -1.63 0.78 0.41 4103
0.00 0.00 0.94 -5.53 11.11 -1.55 0.76 0.46 4110
0.00 0.00 0.91 -5.35 11.07 -1.49 0.76 0.50 4117
0.00 0.00 0.81 -5.00 11.13 -1.44 0.80 0.56 4124
0.00 0.00 0.53 -4.79 10.97 -1.39 0.87 0.63 4131
0.00 0.00 0.04 -4.74 10.83 -1.34 0.94 0.71 4139
0.00 0.00 -0.63 -4.80 10.69 -1.29 0.96 0.80 4146
0.00 0.00 -1.13 -4.72 10.55 -1.22 0.94 0.90 4153
0.00 0.00 -1.69 -4.86 10.29 -1.13 0.87 0.92 4160
0.00 0.00 -2.08 -5.19 9.97 -1.05 0.79 0.94 4167
0.00 0.00 -2.49 -5.53 9.83 -0.93 0.69 0.93 4174
0.00 0.00 -2.75 -6.07 9.59 -0.78 0.57 0.87 4182
0.00 0.00 -2.85 -6.54 9.33 -0.66 0.44 0.79 4189
0.00 0.00 -2.68 -6.95 9.43 -0.50 0.30 0.67 4196
0.00 0.00 -2.33 -7.21 9.52 -0.39 0.17 0.56 4203
0.00 0.00 -1.87 -7.32 9.81 -0.29 0.11 0.46 4210
0.00 -0.00 -1.15 -7.13 10.44 -0.26 0.08 0.36 4217
0.00 0.00 -0.39 -6.91 11.21 -0.31 0.12 0.26 4225
0.00 0.00 0.19 -6.76 11.26 -0.44 0.21 0.19 4232
0.00 0.00 0.21 -6.48 10.74 -0.58 0.32 0.13 4239
0.00 0.00 0.02 -6.31 10.12 -0.71 0.38 0.11 4246
0.00 0.00 -0.34 -6.46 9.47 -0.77 0.38 0.10 4253
0.00 0.00 -0.56 -6.89 8.76 -0.75 0.33 0.10 4260
0.00 0.00 -0.59 -7.20 8.26 -0.65 0.24 0.12 4268
0.00 0.00 -0.51 -7.31 7.80 -0.53 0.19 0.14 4275
0.00 0.00 -0.66 -8.48 7.94 -0.37 0.17 0.16 4282
0.00 0.00 -4.04 -13.32 11.35 -0.02 -0.17 0.15 4289
0.00 0.00 -1.92 -8.21 7.46 0.31 -0.49 0.14 4296
0.00 0.00 -1.29 -7.15 4.71 0.51 -0.53 0.17 4303
0.00 0.00 -2.71 -11.94 7.36 0.73 -0.67 0.20 4311
0.00 0.00 -2.99 -14.37 10.27 0.98 -0.93 0.15 4318
0.00 0.00 -7.86 -22.80 16.25 0.71 -1.83 -0.08 4325
0.00 0.00 -6.34 -26.69 15.33 0.30 -0.27 -0.22 4332
-0.00 0.01 -3.31 0.25 4.88 0.01 -0.01 -0.16 4339
0.00 0.01 -3.84 -8.10 7.77 -0.53 0.29 -0.02 4346
0.03 0.01 0.67 -1.00 12.24 -0.52 0.31 0.08 4354
0.02 0.00 0.88 -0.89 9.39 -0.32 0.08 0.06 4361
0.00 0.01 0.58 -0.37 9.92 -0.33 0.04 0.09 4368
0.01 0.08 0.80 -0.25 10.12 -0.27 0.04 0.01 4375
0.02 0.11 0.49 -0.55 10.08 -0.21 0.03 -0.03 4382
0.02 0.19 0.63 -0.75 10.18 -0.14 0.03 -0.04 4389
0.02 0.23 0.36 -0.96 10.09 -0.09 0.04 -0.04 4397
0.02 0.20 0.29 -0.91 10.01 -0.07 0.05 -0.04 4404
0.03 0.23 0.35 -0.83 9.83 -0.05 0.07 -0.04 4411
0.04 0.26 0.47 -0.87 9.85 -0.04 0.07 -0.04 4418
0.05 0.26 0.50 -0.91 9.79 -0.04 0.08 -0.03 4425
0.04 0.32 0.49 -0.87 9.83 -0.04 0.07 -0.03 4432
0.03 0.33 0.51 -0.85 9.69 -0.04 0.06 -0.03 4440
0.03 0.35 0.51 -0.92 9.81 -0.04 0.05 -0.03 4447
0.02 0.34 0.51 -0.87 9.80 -0.04 0.04 -0.04 4454
0.02 0.39 0.47 -0.88 9.79 -0.04 0.04 -0.05 4461
0.02 0.40 0.47 -0.92 9.82 -0.04 0.04 -0.04 4468
0.02 0.43 0.43 -0.86 9.83 -0.04 0.04 -0.05 4475
-0.01 0.44 0.45 -0.85 9.80 -0.04 0.04 -0.05 4483
-0.01 0.43 0.43 -0.85 9.22 -0.03 0.04 -0.05 4490
-0.01 0.41 0.44 -0.84 9.80 -0.03 0.04 -0.06 4497
-0.01 0.47 0.49 -0.86 9.82 -0.03 0.04 -0.06 4504
0.00 0.44 0.46 -0.91 9.82 -0.03 0.04 -0.06 4511
-0.01 0.45 0.49 -0.84 9.75 -0.03 0.04 -0.06 4518
-0.00 0.46 0.46 -0.89 9.78 -0.02 0.04 -0.06 4526
-0.02 0.48 0.44 -0.84 9.75 -0.02 0.04 -0.06 4533
-0.01 0.52 0.46 -0.87 9.84 -0.02 0.05 -0.06 4540
-0.00 0.53 0.40 -0.82 9.79 -0.02 0.05 -0.06 4547
-0.01 0.54 0.48 -0.82 9.81 -0.01 0.05 -0.06 4554
-0.01 0.51 0.46 -0.83 9.61 -0.01 0.05 -0.06 4561
-0.00 0.51 0.44 -0.82 9.79 -0.01 0.05 -0.07 4569
-0.01 0.53 0.45 -0.85 9.80 -0.00 0.05 -0.06 4576
-0.01 0.51 0.47 -0.85 9.81 0.00 0.05 -0.07 4583
0.03 0.51 0.44 -0.86 9.82 0.00 0.05 -0.07 4590
0.04 0.49 0.43 -0.86 9.79 0.00 0.04 -0.07 4597
0.05 0.48 0.47 -0.88 9.78 0.00 0.04 -0.07 4604
0.05 0.46 0.44 -0.85 9.75 0.00 0.04 -0.07 4612
0.04 0.46 0.44 -0.83 9.21 0.00 0.04 -0.07 4619
0.05 0.44 0.46 -0.83 9.79 -0.03 0.04 -0.07 4626
0.07 0.45 0.45 -0.83 9.78 0.01 0.03 -0.08 4633
0.03 0.41 0.46 -0.83 9.79 0.01 0.03 -0.08 4640
0.03 0.39 0.46 -0.88 9.81 0.01 0.03 -0.08 4647
0.03 0.37 0.45 -0.83 9.76 0.01 0.03 -0.07 4655
0.03 0.35 0.44 -0.86 9.82 0.01 0.03 -0.07 4662
0.02 0.37 0.41 -0.87 9.78 0.01 0.03 -0.08 4669
0.04 0.36 0.44 -0.87 9.80 0.01 0.04 -0.07 4676
0.04 0.36 0.43 -0.86 9.81 0.01 0.04 -0.07 4683
0.02 0.35 0.41 -0.87 9.79 0.01 0.04 -0.07 4690
0.02 0.34 0.45 -0.91 9.76 0.01 0.04 -0.07 4698
0.04 0.32 0.46 -0.86 9.79 0.01 0.04 -0.07 4705
0.04 0.33 0.44 -0.90 9.80 0.00 0.04 -0.08 4712
0.05 0.29 0.40 -0.90 9.78 0.00 0.04 -0.08 4719
0.05 0.27 0.46 -0.89 9.79 0.00 0.04 -0.07 4726
0.04 0.25 0.42 -0.89 9.79 -0.00 0.04 -0.07 4733
0.03 0.23 0.40 -0.88 9.76 0.00 0.04 -0.07 4741
0.04 0.20 0.44 -0.88 9.79 0.00 0.04 -0.07 4748
0.04 0.20 0.45 -0.88 9.79 0.00 0.04 -0.07 4755
0.05 0.20 0.45 -0.86 9.74 0.00 0.04 -0.07 4762
0.05 0.19 0.43 -0.89 9.79 0.00 0.04 -0.07 4769
0.06 0.16 0.42 -0.88 9.81 0.00 0.04 -0.07 4776
0.05 0.21 0.46 -0.88 9.75 0.00 0.04 -0.07 4784
0.05 0.18 0.44 -0.86 9.79 0.00 0.04 -0.07 4791
0.06 0.20 0.44 -0.88 9.79 -0.00 0.05 -0.08 4798
0.08 0.21 0.46 -0.87 9.79 0.00 0.04 -0.07 4805
0.06 0.19 0.44 -0.87 9.77 0.00 0.04 -0.07 4812
0.06 0.15 0.44 -0.87 9.79 0.00 0.05 -0.07 4819
0.06 0.16 0.43 -0.89 9.80 0.00 0.05 -0.07 4827
0.08 0.15 0.44 -0.88 9.79 0.01 0.05 -0.07 4834
0.11 0.19 0.43 -0.88 9.81 0.01 0.04 -0.07 4841
0.12 0.14 0.48 -0.91 9.79 0.01 0.04 -0.07 4848
0.10 0.14 0.45 -0.87 9.76 0.01 0.04 -0.07 4855
0.10 0.12 0.45 -0.88 9.78 0.01 0.05 -0.08 4862
0.11 0.11 0.43 -0.92 9.81 0.01 0.04 -0.07 4870
0.11 0.11 0.47 -0.91 9.80 0.01 0.04 -0.07 4877
0.13 0.09 0.45 -0.88 9.76 0.01 0.05 -0.07 4884
0.15 0.10 0.46 -0.89 9.78 0.01 0.04 -0.07 4891
0.15 0.10 0.48 -0.87 9.81 0.00 0.04 -0.07 4898
0.15 0.10 0.47 -0.90 9.79 0.01 0.05 -0.07 4905
0.15 0.10 0.45 -0.88 9.80 0.01 0.04 -0.07 4913
0.15 0.10 0.41 -0.89 9.79 0.01 0.05 -0.07 4920
0.16 0.10 0.46 -0.92 9.79 0.01 0.05 -0.07 4927
0.16 0.07 0.45 -0.94 9.76 0.01 0.05 -0.07 4934
0.17 0.07 0.47 -0.91 9.78 0.01 0.05 -0.07 4941
0.17 0.05 0.45 -0.90 9.81 0.01 0.05 -0.07 4948
0.18 0.03 0.47 -0.89 9.77 0.01 0.05 -0.07 4956
0.18 0.02 0.48 -0.90 9.80 0.01 0.05 -0.07 4963
0.20 0.02 0.47 -0.91 9.80 0.01 0.05 -0.07 4970
0.20 0.01 0.44 -0.90 9.80 0.01 0.05 -0.07 4977
0.21 0.00 0.46 -0.90 9.75 0.01 0.05 -0.07 4984
0.18 0.01 0.43 -0.92 9.80 0.01 0.05 -0.07 4992
0.20 0.02 0.46 -0.93 9.77 0.01 0.06 -0.07 4999
0.23 0.00 0.40 -0.90 9.20 0.01 0.06 -0.07 5006
0.25 -0.01 0.47 -0.90 9.80 0.01 0.06 -0.07 5013
0.26 -0.00 0.44 -0.94 9.80 0.01 0.06 -0.07 5020
0.27 -0.02 0.46 -0.90 9.78 0.01 0.06 -0.08 5027
0.27 0.00 0.49 -0.90 9.82 0.02 0.06 -0.07 5035
0.27 -0.00 0.46 -0.96 9.81 0.02 0.06 -0.07 5042
0.29 -0.01 0.46 -0.91 9.82 0.03 0.07 -0.07 5049
0.28 -0.02 0.48 -0.96 9.78 0.04 0.08 -0.07 5056
0.27 -0.01 0.51 -0.92 9.81 0.04 0.08 -0.07 5063
0.27 -0.02 0.46 -0.95 9.80 0.05 0.08 -0.08 5070
0.28 -0.02 0.51 -0.96 9.82 0.05 0.09 -0.07 5078
0.29 -0.01 0.46 -1.04 9.82 0.06 0.10 -0.07 5085
0.32 -0.02 0.48 -0.97 9.83 0.08 0.11 -0.07 5092
0.32 -0.01 0.50 -0.99 9.85 0.09 0.12 -0.08 5099
0.32 -0.01 0.52 -0.96 9.89 0.11 0.14 -0.08 5106
0.31 -0.02 0.51 -0.99 9.88 0.15 0.16 -0.08 5113
0.31 -0.02 0.56 -0.97 10.02 0.20 0.20 -0.08 5121
0.31 -0.01 0.59 -1.03 10.08 0.26 0.26 -0.08 5128
0.31 -0.02 0.68 -1.07 10.29 0.36 0.31 -0.09 5135
0.31 -0.02 0.68 -1.03 10.53 0.51 0.36 -0.11 5143
0.29 -0.01 0.76 -1.11 10.77 0.69 0.37 -0.13 5150
0.28 -0.01 0.74 -1.18 11.00 0.91 0.32 -0.15 5157
0.29 -0.00 0.80 -1.35 11.44 1.06 0.27 -0.17 5165
0.28 -0.01 0.79 -1.28 11.24 1.18 0.21 -0.18 5172
0.27 -0.01 0.86 -1.43 11.31 1.23 0.13 -0.19 5179
0.26 -0.02 0.70 -1.46 11.43 1.28 0.08 -0.19 5186
0.24 -0.02 0.69 -1.60 11.22 1.36 -0.00 -0.19 5192
0.21 -0.02 0.71 -1.78 10.90 1.47 -0.06 -0.17 5200
0.19 -0.01 0.59 -1.25 11.04 1.49 -0.08 -0.16 5208
0.17 -0.01 0.60 -1.90 10.70 1.53 -0.12 -0.16 5215
0.14 -0.01 0.72 -2.05 10.77 1.57 -0.13 -0.15 5221
0.12 -0.01 0.68 -2.17 10.37 1.61 -0.14 -0.14 5228
0.07 -0.01 0.63 -2.30 10.48 1.61 -0.15 -0.13 5235
0.05 -0.00 -0.03 -1.87 10.71 1.60 -0.21 -0.13 5242
0.04 0.00 0.91 -2.62 11.35 1.62 -0.15 -0.11 5250
0.04 -0.00 0.72 -2.73 10.69 1.65 -0.17 -0.13 5257
0.05 -0.01 0.83 -3.02 10.78 1.67 -0.16 -0.14 5264
0.04 -0.00 1.03 -3.19 10.85 1.66 -0.13 -0.16 5271
0.03 -0.00 1.05 -3.41 11.08 1.64 -0.12 -0.17 5278
0.02 -0.00 1.06 -3.57 11.07 1.61 -0.10 -0.19 5285
0.02 -0.00 1.15 -3.65 11.21 1.58 -0.05 -0.21 5293
0.02 -0.00 1.31 -3.70 11.10 1.56 -0.01 -0.24 5300
0.01 -0.00 1.71 -3.64 10.91 1.52 0.04 -0.27 5307
0.01 -0.00 1.81 -3.63 10.75 1.49 0.07 -0.32 5314
0.00 0.00 1.73 -3.45 10.79 1.48 0.12 -0.36 5321
0.01 -0.00 1.61 -3.36 10.76 1.47 0.14 -0.39 5328
0.00 0.00 1.18 -3.07 10.37 1.42 0.10 -0.42 5336
0.00 0.00 1.02 -2.86 9.91 1.35 0.02 -0.45 5343
0.00 0.00 0.92 -2.51 9.43 1.27 -0.04 -0.46 5350
0.00 0.00 1.08 -2.08 8.81 1.16 -0.09 -0.47 5357
0.00 0.00 1.31 -1.23 8.51 1.05 -0.12 -0.49 5364
0.00 0.00 1.57 -1.20 8.15 0.91 -0.10 -0.50 5371
0.00 0.00 1.61 0.18 8.47 0.80 -0.08 -0.53 5379
0.00 0.00 1.71 0.49 8.44 0.70 -0.06 -0.56 5386
0.00 0.00 0.97 0.09 8.25 0.58 -0.07 -0.58 5393
0.00 0.00 1.27 1.23 8.27 0.52 -0.09 -0.58 5400
0.00 0.00 1.32 0.66 8.11 0.46 -0.10 -0.57 5407
0.00 0.00 1.55 0.61 8.26 0.43 -0.14 -0.56 5414
0.01 -0.00 1.66 -1.03 7.43 0.39 -0.19 -0.55 5422
0.00 0.00 1.75 0.58 9.03 0.39 -0.24 -0.53 5429
0.00 0.00 2.15 -0.19 8.06 0.30 -0.27 -0.49 5436
0.00 0.00 2.61 -0.45 8.98 0.26 -0.23 -0.43 5443
0.00 0.00 2.22 -0.44 8.84 0.22 -0.20 -0.39 5450
0.00 0.00 3.10 -0.05 7.92 0.11 -0.13 -0.30 5457
0.00 0.00 2.59 0.05 8.14 -0.00 -0.04 -0.23 5465
0.00 0.00 2.82 0.34 9.36 -0.05 0.01 -0.16 5472
0.00 0.00 1.72 -2.70 7.35 -0.14 0.02 -0.08 5479
0.00 0.00 2.08 -0.36 11.60 -0.22 0.07 -0.05 5486
0.00 0.00 1.30 -1.00 9.40 -0.28 0.03 0.02 5493
0.00 0.00 1.54 -0.93 9.48 -0.29 0.03 0.04 5500
0.00 -0.00 1.62 -0.83 7.77 -0.39 0.04 0.09 5508
0.00 0.00 0.88 -2.06 7.89 -0.39 0.10 0.11 5515
0.00 0.00 1.04 -1.54 8.85 -0.46 0.17 0.11 5522
0.00 0.00 1.87 -0.02 11.24 -0.52 0.22 0.14 5529
0.00 0.00 -0.75 -3.22 5.76 -0.51 0.22 0.16 5536
0.00 0.00 1.71 -0.19 10.68 -0.60 0.24 0.20 5543
0.00 0.00 -0.85 -2.92 7.94 -0.58 0.18 0.24 5551
0.00 0.00 -0.43 -3.48 9.00 -0.64 0.21 0.27 5558
0.00 0.00 0.62 -1.62 10.66 -0.72 0.18 0.27 5565
0.00 0.00 -0.34 -1.54 8.58 -0.79 0.16 0.29 5572
0.00 0.00 0.81 -0.52 8.79 -0.84 0.18 0.36 5579
0.00 0.00 0.24 -2.41 8.68 -0.81 0.21 0.42 5586
0.00 0.00 0.49 -1.59 10.16 -0.87 0.20 0.45 5594
0.00 0.00 -0.46 -2.11 8.62 -0.85 0.20 0.48 5601
0.00 0.00 0.18 -0.99 8.06 -0.87 0.22 0.52 5608
0.00 0.00 0.23 -2.13 10.38 -0.80 0.18 0.51 5615
0.00 0.00 -0.21 -3.44 9.90 -0.86 0.15 0.49 5622
0.00 0.00 0.55 0.50 10.90 -0.84 0.14 0.44 5629
0.00 0.00 -0.02 -2.92 5.80 -0.95 0.14 0.46 5637
0.00 0.00 1.51 -0.14 17.16 -0.85 0.20 0.40 5644
0.00 0.00 0.91 -2.57 8.42 -1.07 0.14 0.42 5651
0.00 0.00 0.40 -1.30 14.51 -1.03 0.19 0.40 5658
0.00 0.00 0.56 -0.92 9.43 -1.12 0.12 0.41 5665
0.00 0.00 0.77 -1.55 9.08 -1.11 0.05 0.42 5672
0.00 0.00 1.02 -2.24 9.83 -1.12 0.02 0.44 5680
0.00 0.00 1.20 -2.20 10.14 -1.15 -0.01 0.44 5687
0.00 0.00 1.30 -1.91 9.97 -1.16 -0.02 0.44 5694
0.00 0.00 1.37 -1.92 9.88 -1.15 -0.01 0.43 5701
-0.00 0.00 1.44 -1.93 9.98 -1.15 0.01 0.43 5708
0.00 -0.00 1.51 -2.03 10.12 -1.15 0.06 0.42 5715
0.00 0.00 1.51 -2.06 10.25 -1.16 0.12 0.42 5723
0.00 0.00 1.50 -1.99 10.68 -1.19 0.20 0.42 5730
0.00 0.00 1.51 -1.94 10.94 -1.22 0.28 0.42 5737
0.00 0.00 1.22 -1.87 10.85 -1.29 0.37 0.42 5744
0.00 0.00 0.85 -1.84 10.67 -1.35 0.44 0.42 5751
0.00 0.00 0.52 -1.85 10.69 -1.39 0.47 0.41 5758
0.00 0.00 0.17 -2.07 10.58 -1.41 0.46 0.39 5766
0.00 0.00 -0.04 -2.27 10.47 -1.40 0.43 0.37 5773
0.00 0.00 -0.20 -2.33 10.39 -1.39 0.36 0.35 5780
0.00 0.00 -0.16 -2.48 10.27 -1.36 0.29 0.31 5787
0.00 0.00 -0.09 -2.68 10.22 -1.33 0.23 0.26 5794
0.00 0.00 0.14 -2.86 10.12 -1.30 0.17 0.21 5801
0.00 0.00 0.44 -3.05 10.08 -1.27 0.14 0.15 5809
0.00 0.00 0.64 -3.21 9.91 -1.22 0.14 0.10 5816
0.00 0.00 0.73 -3.43 9.74 -1.17 0.15 0.04 5823
0.00 0.00 0.93 -3.57 9.68 -1.09 0.16 -0.02 5830
0.00 0.00 1.10 -3.80 9.61 -0.99 0.16 -0.05 5837
0.00 0.00 1.31 -3.99 9.55 -0.90 0.20 -0.08 5844
0.00 0.00 1.40 -4.12 9.58 -0.80 0.22 -0.10 5852
0.00 0.00 1.26 -4.22 9.58 -0.70 0.23 -0.10 5859
0.00 0.00 1.20 -4.30 9.50 -0.63 0.23 -0.10 5866
0.00 0.00 1.15 -4.55 9.53 -0.55 0.19 -0.09 5873
0.00 0.00 1.12 -4.81 9.48 -0.48 0.16 -0.07 5880
0.00 0.00 1.13 -5.05 9.35 -0.40 0.13 -0.06 5888
0.00 0.00 1.19 -5.21 9.27 -0.32 0.14 -0.05 5895
0.00 0.00 1.23 -5.42 9.16 -0.25 0.18 -0.04 5902
0.00 0.00 1.19 -5.56 9.14 -0.18 0.23 -0.04 5909
0.00 0.00 0.97 -5.79 9.25 -0.14 0.30 -0.04 5916
0.00 0.00 0.86 -5.83 9.21 -0.11 0.36 -0.04 5923
0.00 0.00 0.70 -5.94 9.48 -0.11 0.46 -0.03 5931
0.00 0.00 0.35 -7.05 10.24 -0.13 0.52 -0.02 5938
0.00 0.00 -3.10 -13.09 15.48 0.07 0.11 -0.06 5945
0.00 0.00 -1.05 -6.15 7.23 0.23 -0.01 -0.10 5952
0.00 0.00 -0.70 -7.60 5.33 0.14 -0.01 -0.09 5959
0.00 0.00 -2.55 -10.76 8.00 0.16 -0.38 -0.16 5966
0.00 0.00 -3.08 -11.31 7.49 0.18 -0.72 -0.29 5974
0.00 0.00 -3.37 -11.56 7.94 0.32 -1.00 -0.41 5981
0.00 0.00 -2.79 -14.99 8.16 0.41 -1.42 -0.59 5988
0.00 0.00 -3.48 -18.63 7.92 0.39 -2.05 -0.87 5995
-0.00 0.00 -2.15 -31.97 17.97 0.27 -2.10 -0.91 6003
-0.00 0.01 -4.46 -8.22 10.71 -0.11 -0.24 -0.08 6009
-0.00 0.00 1.56 -3.39 8.89 -0.31 -0.00 0.10 6017
-0.00 0.05 -0.45 -2.59 10.42 -0.39 -0.04 0.03 6024
-0.01 0.15 0.41 -0.51 10.35 -0.31 -0.04 0.01 6031
0.00 0.20 0.61 -0.17 9.93 -0.21 -0.02 -0.02 6038
0.01 0.27 0.31 -0.54 10.15 -0.12 0.01 -0.06 6045
0.01 0.35 0.32 -1.06 10.10 -0.07 0.04 -0.06 6052
0.01 0.32 0.25 -1.04 10.03 -0.04 0.08 -0.05 6060
0.02 0.32 0.32 -0.90 9.90 -0.02 0.09 -0.05 6067
0.01 0.29 L‰þ8 -0.89 9.82 -0.02 0.09 -0.05 6074
˜2 0.32 -0.98 9.67 -0.02 0.09 -0.04 6081
æ3 0.31  -0.97 9.82 -0.02 0.08 -0.04 6088
æ2 0.29  -0.98 9.75 -0.01 0.07 -0.04 6095
æ2 0.33 jþ0.90 9.69 -0.02 0.05 -0.04 6103
Ì2 0.32 -0.95 9.75 -0.02 0.05 -0.05 6110
Ì1 0.36 /jþ0.94 9.81 -0.01 0.05 -0.05 6117
î2 0.37 'jþ0.93 9.79 -0.02 0.04 -0.05 6124
æ3 0.37 -0.90 9.80 -0.03 0.04 -0.05 6131
æ1 0.39 -0.88 9.78 -0.03 0.04 -0.06 6138
æ2 0.38 -0.91 9.73 -0.03 0.04 -0.06 6146
Ì1 0.42 jþ0.89 9.81 -0.03 0.04 -0.06 6153
æ1 0.41 -0.89 9.76 -0.03 0.04 -0.06 6160
æ1 0.45  -0.91 9.83 -0.03 0.05 -0.06 6167
0.02 0.44 0.44 -0.92 9.81 -0.03 0.05 -0.06 6174
‚þLþ0.43 jþ0.90 9.81 -0.03 0.06 -0.06 6181
˜1 0.47 jþ0.86 9.84 -0.02 0.06 -0.05 6189
—þLþ0.52 jþ0.91 9.82 -0.02 0.07 -0.05 6196
˜0 0.53 jþ0.91 9.81 -0.02 0.07 -0.05 6203
˜1 0.50 ÿjþ0.89 9.80 -0.02 0.06 -0.05 6210
˜2 0.52 ›jþ0.89 9.75 -0.02 0.06 -0.05 6217
˜1 0.47 Mjþ0.89 9.81 -0.02 0.07 -0.05 6224
˜1 0.50 'jþ0.88 9.82 -0.02 0.07 -0.06 6232
—~þ0.48 œjþ0.87 9.81 -0.02 0.07 -0.06 6239
˜1 0.47 &jþ0.88 9.79 -0.02 0.07 -0.06 6246
˜1 0.53 ÿjþ0.87 9.81 -0.02 0.07 -0.06 6253
˜2 0.51 ÿjþ0.90 9.80 -0.01 0.07 -0.06 6260
˜1 0.50 Ljþ0.85 9.80 -0.01 0.07 -0.06 6267
˜0 0.50 0.49 -0.88 9.83 -0.01 0.07 -0.06 6275
Á1 0.48 Njþ0.89 9.76 -0.01 0.07 -0.06 6282
î1 0.48 jþ0.87 9.76 -0.01 0.06 -0.06 6289
æ0 0.48 jþ0.87 9.72 -0.01 0.07 -0.06 6296
æ1 0.48 -0.86 9.78 -0.00 0.07 -0.06 6303
æ1 0.46 jþ0.85 9.73 -0.00 0.07 -0.05 6310
î1 0.46 -0.88 9.76 0.00 0.07 -0.06 6318
æ0 0.45 jþ0.86 9.75 0.00 0.08 -0.06 6325
æ1 0.43 'jþ0.88 9.81 -0.00 0.09 -0.06 6332
æ2 0.39 -0.85 9.78 -0.00 0.09 -0.06 6339
æ3 0.39 -0.88 9.74 -0.00 0.09 -0.06 6346
æ4 0.38  -0.91 9.79 0.00 0.10 -0.06 6353
î3 0.37 jþ0.89 9.73 0.01 0.10 -0.06 6361
æ4 0.36  -0.86 9.82 0.00 0.11 -0.06 6368
æ4 0.34  -0.89 9.81 0.00 0.11 -0.06 6375
0.05 0.35 —ó9 -0.87 9.75 0.01 0.12 -0.06 6382
04 0.33 0.56 -0.86 9.76 0.01 0.12 -0.06 6389
0.03 0.33 0.59 -0.89 9.79 0.02 0.12 -0.06 6396
0.02 0.33 0.48 -0.85 9.81 0.02 0.11 -0.06 6404
0.03 0.32 0.59 -0.88 9.81 0.02 0.11 -0.07 6411
0.03 0.30 0.57 -0.86 9.71 0.02 0.11 -0.06 6418
0.04 0.25 0.58 -0.92 9.72 0.03 0.11 -0.07 6425
0.05 0.24 0.59 -0.92 9.79 0.02 0.11 -0.07 6432
0.04 0.19 1.19 -0.90 9.73 0.02 0.11 -0.07 6439
0.03 0.18 0.56 -0.94 9.81 0.02 0.11 -0.07 6447
0.04 0.18 0.63 -0.93 9.73 0.02 0.11 -0.07 6454
0.05 0.15 0.45 -0.91 9.82 0.02 0.11 -0.07 6461
0.05 0.13 0.64 -0.91 9.81 0.02 0.11 -0.07 6468
0.05 0.07 0.69 -0.87 9.79 0.03 0.11 -0.07 6475
0.04 0.08 0.65 -0.89 10.42 0.02 0.11 -0.07 6482
0.05 0.07 0.66 -0.92 9.80 0.03 0.10 -0.07 6490
0.05 0.07 0.70 -0.94 9.79 0.03 0.10 -0.07 6497
0.07 0.04 0.64 -0.95 9.80 0.03 0.09 -0.07 6504
0.08 0.03 0.52 -1.01 9.75 0.03 0.09 -0.07 6511
0.08 0.01 0.66 -0.97 9.20 0.03 0.09 -0.07 6518
0.08 -0.00 0.62 -0.96 9.80 0.03 0.09 -0.07 6525
0.07 0.03 0.69 -0.98 9.77 0.03 0.09 -0.07 6533
0.09 0.02 0.68 -0.98 9.79 0.03 0.10 -0.07 6540
0.10 0.00 0.75 -0.96 9.79 0.03 0.09 -0.07 6547
0.08 0.00 0.69 -0.92 9.85 0.03 0.09 -0.07 6554
0.06 -0.01 0.70 -0.95 9.77 0.03 0.09 -0.07 6561
0.05 -0.00 0.72 -1.00 9.81 0.03 0.08 -0.07 6568
0.06 -0.01 0.71 -0.96 9.77 0.02 0.07 -0.06 6576
0.08 0.01 0.72 -0.99 9.78 0.02 0.06 -0.06 6583
0.08 -0.01 0.72 -0.95 9.79 0.03 0.06 -0.07 6590
0.07 -0.01 0.69 -0.98 9.75 0.03 0.05 -0.07 6597
0.08 -0.01 0.68 -0.97 9.82 0.02 0.05 -0.07 6604
0.08 -0.01 0.73 -1.00 9.78 0.03 0.04 -0.07 6611
0.09 -0.01 0.72 -0.98 9.81 0.02 0.04 -0.07 6619
0.11 -0.00 0.74 -0.97 9.80 0.02 0.03 -0.07 6626
0.13 -0.01 0.68 -0.94 9.81 0.02 0.03 -0.07 6633
0.14 -0.01 0.66 -0.97 9.77 0.02 0.03 -0.07 6640
0.13 -0.01 0.70 -1.00 9.76 0.02 0.03 -0.07 6647
0.12 -0.00 0.67 -1.00 9.80 0.02 0.04 -0.07 6654
0.14 0.00 0.68 -0.99 9.80 0.03 0.05 -0.07 6662
0.15 -0.00 0.70 -0.98 9.78 0.03 0.05 -0.07 6669
0.16 -0.02 0.68 -1.00 9.77 0.03 0.05 -0.07 6676
0.17 -0.01 0.71 -1.00 9.78 0.04 0.06 -0.07 6683
0.18 -0.01 0.67 -0.99 9.79 0.04 0.07 -0.07 6690
0.18 -0.01 0.65 -1.02 9.79 0.05 0.07 -0.07 6697
0.20 -0.01 0.69 -0.97 9.81 0.06 0.08 -0.07 6705
0.22 -0.02 0.68 -1.02 9.77 0.07 0.09 -0.07 6712
0.24 -0.02 0.71 -1.04 9.79 0.08 0.10 -0.06 6719
0.23 -0.01 0.74 -1.06 9.83 0.10 0.11 -0.06 6726
0.23 -0.01 0.73 -1.07 9.77 0.11 0.12 -0.06 6733
0.23 -0.01 0.69 -1.02 9.83 0.12 0.12 -0.06 6740
0.26 0.00 0.76 -1.07 9.76 0.14 0.13 -0.06 6748
0.29 -0.00 0.77 -1.12 9.75 0.15 0.13 -0.07 6755
0.30 -0.01 0.74 -1.02 9.82 0.16 0.13 -0.07 6762
0.30 -0.03 0.72 -1.10 9.80 0.17 0.13 -0.07 6769
0.30 -0.02 0.77 -1.09 9.20 0.20 0.14 -0.07 6776
0.30 -0.02 0.76 -1.13 9.82 0.22 0.15 -0.08 6784
0.34 -0.01 0.75 -1.18 9.88 0.25 0.16 -0.08 6791
0.36 -0.02 0.71 -1.13 9.92 0.29 0.17 -0.08 6798
0.37 -0.02 0.76 -1.23 9.85 0.33 0.17 -0.08 6805
0.37 -0.04 0.77 -1.25 9.81 0.36 0.17 -0.08 6812
0.35 -0.02 0.79 -1.28 9.88 0.39 0.16 -0.09 6819
0.36 -0.02 0.82 -1.32 9.91 0.42 0.16 -0.09 6827
0.36 -0.02 0.94 -1.31 9.91 0.43 0.16 -0.09 6834
0.36 -0.02 0.80 -1.40 9.81 0.44 0.15 -0.10 6841
0.36 -0.02 0.81 -1.40 9.89 0.44 0.14 -0.10 6848
0.36 -0.03 0.91 -1.44 9.98 0.46 0.13 -0.11 6855
0.36 -0.02 0.88 -1.52 10.01 0.48 0.12 -0.11 6863
0.36 -0.02 0.86 -1.56 10.24 0.52 0.11 -0.13 6871
0.36 -0.02 0.81 -1.61 10.33 0.57 0.10 -0.12 6878
0.34 -0.02 0.87 -1.58 10.54 0.62 0.09 -0.12 6885
0.32 -0.02 0.88 -1.67 10.68 0.69 0.06 -0.11 6892
0.31 -0.03 0.89 -1.78 10.94 0.75 0.02 -0.11 6899
0.26 -0.02 1.04 -1.84 10.78 0.85 -0.01 -0.12 6906
0.25 -0.02 1.07 -1.88 10.66 0.93 -0.05 -0.13 6914
0.24 -0.02 1.63 -1.92 10.43 0.98 -0.07 -0.16 6921
0.20 -0.02 0.89 -1.96 10.44 1.00 -0.11 -0.15 6927
0.19 -0.02 0.92 -2.03 10.35 1.02 -0.13 -0.16 6934
0.17 -0.02 0.93 -2.19 10.25 1.06 -0.16 -0.16 6941
0.13 -0.01 0.94 -2.22 10.26 1.09 -0.18 -0.16 6948
0.14 -0.00 1.06 -2.32 10.17 1.11 -0.23 -0.18 6957
0.12 -0.01 0.71 -2.41 10.30 1.14 -0.26 -0.18 6963
0.08 -0.01 0.95 -2.54 10.47 1.18 -0.24 -0.19 6970
0.08 -0.01 0.87 -2.62 10.18 1.22 -0.27 -0.20 6977
0.07 -0.01 0.83 -2.73 10.56 1.25 -0.29 -0.20 6984
0.07 -0.01 0.96 -2.88 10.41 1.30 -0.31 -0.20 6991
0.07 -0.00 0.91 -3.07 10.55 1.34 -0.32 -0.20 6999
0.04 -0.00 0.94 -3.18 10.44 1.37 -0.32 -0.22 7006
0.04 -0.00 1.03 -3.36 10.55 1.41 -0.31 -0.23 7013
0.03 -0.00 1.12 -3.49 10.61 1.46 -0.28 -0.24 7020
0.02 -0.00 1.20 -3.68 10.61 1.48 -0.25 -0.27 7027
0.05 -0.00 1.23 -3.81 10.74 1.50 -0.20 -0.29 7034
0.07 -0.01 1.28 -3.97 10.84 1.52 -0.14 -0.32 7042
0.08 -0.01 1.39 -4.07 11.16 1.53 -0.08 -0.35 7049
0.07 -0.01 1.55 -4.25 10.95 1.54 -0.01 -0.39 7056
0.06 -0.01 1.53 -4.17 10.74 1.55 0.04 -0.42 7063
0.03 -0.00 1.45 -4.25 10.86 1.57 0.06 -0.46 7070
0.03 -0.00 1.49 -4.19 11.01 1.59 0.07 -0.49 7077
0.03 -0.00 1.55 -4.40 11.22 1.61 0.08 -0.54 7085
0.03 -0.00 1.60 -4.39 11.09 1.63 0.09 -0.57 7092
0.03 -0.00 1.51 -4.28 11.06 1.62 0.10 -0.61 7099
0.03 -0.00 1.13 -4.42 10.75 1.60 0.09 -0.64 7106
0.02 -0.00 0.97 -4.24 10.54 1.57 0.08 -0.67 7113
0.01 -0.00 0.82 -4.56 10.22 1.55 0.09 -0.68 7120
0.01 -0.00 0.69 -4.48 9.99 1.54 0.09 -0.70 7128
0.00 0.00 0.56 -4.33 9.45 1.51 0.08 -0.71 7135
0.00 0.00 0.48 -4.09 8.95 1.47 0.08 -0.71 7142
0.00 0.00 0.49 -3.90 8.86 1.38 0.06 -0.72 7149
0.00 0.00 0.75 -2.60 8.73 1.29 0.00 -0.73 7156
0.00 0.00 0.68 -2.10 8.40 1.16 0.02 -0.74 7163
0.00 0.00 0.76 -1.42 8.55 0.98 -0.02 -0.76 7171
0.00 0.00 0.82 -0.59 8.58 0.86 -0.05 -0.80 7178
0.00 0.00 0.48 1.62 8.73 0.68 -0.08 -0.81 7185
0.00 0.00 1.11 3.12 8.02 0.51 -0.10 -0.86 7192
0.00 0.00 0.94 3.52 8.52 0.29 -0.12 -0.89 7199
0.00 0.00 0.51 1.63 7.97 0.08 -0.15 -0.92 7206
0.00 -0.00 0.44 0.93 9.03 -0.09 -0.16 -0.93 7214
0.00 0.00 0.62 1.60 8.99 -0.29 -0.17 -0.92 7221
0.00 0.00 0.72 2.24 7.95 -0.40 -0.20 -0.89 7228
0.00 0.00 0.76 2.36 7.19 -0.48 -0.25 -0.85 7235
0.00 0.00 0.91 2.32 7.01 -0.55 -0.29 -0.78 7242
0.00 0.00 1.12 2.21 7.08 -0.61 -0.31 -0.69 7249
0.00 0.00 1.39 2.14 7.32 -0.68 -0.30 -0.60 7257
0.00 0.00 1.52 2.10 7.76 -0.74 -0.27 -0.49 7264
0.00 0.00 1.54 2.03 7.92 -0.82 -0.23 -0.35 7271
0.00 0.00 1.48 1.90 7.92 -0.92 -0.19 -0.25 7278
0.00 0.00 1.51 1.66 8.17 -1.01 -0.16 -0.12 7285
0.00 0.00 1.68 1.41 8.53 -1.12 -0.11 -0.01 7292
0.00 0.00 1.80 1.04 8.74 -1.21 -0.05 0.11 7300
0.00 0.00 1.84 0.77 9.18 -1.30 0.02 0.21 7307
0.00 0.00 1.79 0.47 9.64 -1.40 0.12 0.32 7314
0.00 0.00 1.70 0.12 9.86 -1.49 0.21 0.41 7321
0.00 -0.00 1.53 -0.26 9.92 -1.61 0.27 0.48 7328
0.01 -0.00 1.23 -0.72 9.91 -1.70 0.27 0.53 7335
0.00 0.00 1.12 -1.34 9.88 -1.75 0.26 0.57 7343
0.00 0.00 1.08 -1.82 9.96 -1.76 0.24 0.60 7350
0.00 0.00 1.01 -2.27 10.07 -1.76 0.21 0.62 7357
0.00 0.00 0.98 -2.58 10.18 -1.73 0.21 0.62 7364
0.00 0.00 0.84 -2.83 10.43 -1.69 0.21 0.62 7371
0.00 0.00 0.71 -2.97 10.92 -1.68 0.20 0.61 7378
0.00 0.00 0.63 -3.03 11.31 -1.69 0.20 0.60 7386
0.00 0.00 0.50 -3.23 11.36 -1.71 0.19 0.58 7393
0.00 0.00 0.34 -3.41 11.18 -1.74 0.18 0.56 7400
0.00 0.00 0.24 -3.63 10.86 -1.74 0.15 0.53 7407
0.00 0.00 0.13 -3.93 10.52 -1.71 0.13 0.49 7414
0.00 0.00 0.11 -4.05 10.26 -1.64 0.09 0.46 7421
0.00 0.00 0.15 -3.99 10.19 -1.55 0.06 0.42 7429
0.00 0.00 0.24 -3.77 10.24 -1.45 0.03 0.38 7436
0.00 0.00 0.41 -3.48 10.31 -1.34 0.03 0.34 7443
0.00 0.00 0.59 -3.34 10.34 -1.27 0.06 0.29 7450
0.00 0.00 0.62 -3.36 10.48 -1.21 0.10 0.25 7457
0.00 0.00 0.72 -3.32 11.16 -1.16 0.18 0.21 7464
0.00 0.00 0.76 -3.26 11.54 -1.17 0.27 0.17 7472
0.00 0.00 0.72 -3.27 11.66 -1.20 0.37 0.14 7479
0.00 0.00 0.74 -3.23 11.70 -1.25 0.43 0.11 7486
0.00 0.00 0.77 -3.28 11.53 -1.31 0.47 0.12 7493
0.00 0.00 0.70 -3.39 11.27 -1.34 0.50 0.13 7500
0.00 0.00 0.68 -3.53 10.81 -1.35 0.50 0.17 7507
0.00 0.00 0.76 -3.73 10.63 -1.33 0.48 0.21 7515
0.00 0.00 0.95 -4.04 10.47 -1.24 0.43 0.26 7522
0.00 0.00 1.18 -4.23 10.20 -1.18 0.40 0.30 7529
0.00 0.00 1.33 -4.33 9.87 -1.07 0.38 0.34 7536
0.00 0.00 1.51 -4.46 9.44 -0.96 0.39 0.38 7543
0.00 0.00 1.55 -4.55 9.15 -0.80 0.41 0.39 7550
0.00 0.00 1.57 -4.66 9.00 -0.61 0.45 0.41 7558
0.00 0.00 1.63 -4.62 9.10 -0.46 0.51 0.42 7565
0.00 0.00 1.50 -4.56 9.31 -0.29 0.59 0.43 7572
0.00 0.00 1.18 -4.33 9.76 -0.16 0.66 0.44 7579
0.00 -0.00 0.86 -4.04 10.34 -0.08 0.68 0.44 7586
0.00 0.00 0.67 -3.75 10.55 -0.07 0.67 0.45 7593
0.00 0.00 0.57 -3.58 10.87 -0.10 0.62 0.47 7601
0.00 0.00 0.63 -3.51 11.18 -0.18 0.57 0.49 7608
0.00 0.00 0.70 -3.59 11.31 -0.26 0.53 0.51 7615
0.00 0.00 0.81 -3.60 11.35 -0.38 0.52 0.53 7622
0.00 0.00 0.82 -3.67 11.32 -0.50 0.55 0.56 7629
0.00 0.00 0.85 -3.63 11.01 -0.62 0.63 0.58 7636
0.00 0.00 0.70 -3.68 10.57 -0.75 0.69 0.62 7644
0.00 0.00 0.41 -3.91 10.04 -0.82 0.76 0.66 7651
0.00 0.00 0.10 -4.90 9.59 -0.85 0.79 0.68 7658
0.00 0.00 -0.60 -5.92 9.79 -0.81 0.70 0.69 7665
0.00 0.00 -2.13 -7.07 9.69 -0.65 0.41 0.65 7672
0.00 0.00 -1.96 -6.21 8.54 -0.43 0.12 0.60 7680
0.00 0.00 -1.11 -5.63 7.08 -0.28 -0.07 0.53 7687
0.00 0.00 -0.36 -6.90 6.53 -0.28 -0.10 0.44 7694
0.00 0.00 -1.01 -8.89 9.10 -0.18 -0.21 0.32 7701
0.00 0.00 -1.22 -8.16 9.13 -0.01 -0.31 0.18 7708
0.00 0.00 -0.68 -7.29 7.81 0.16 -0.31 0.08 7715
0.00 0.00 -0.87 -9.31 7.43 0.19 -0.31 -0.06 7723
0.00 0.00 -1.27 -9.04 6.81 0.29 -0.37 -0.20 7730
0.00 0.00 -2.95 -8.84 9.36 0.43 -0.63 -0.29 7737
0.00 0.00 -2.15 -8.37 8.38 0.49 -0.75 -0.38 7744
0.00 -0.00 -2.05 -10.65 8.38 0.55 -0.81 -0.42 7751
0.00 0.00 -2.34 -12.01 8.04 0.74 -0.76 -0.39 7758
0.00 0.00 -1.97 -12.32 7.75 0.98 -0.63 -0.21 7766
0.00 0.00 -6.34 -15.95 9.18 1.07 -1.09 -0.06 7773
-0.00 0.00 -5.34 -7.98 18.15 0.54 -1.81 -0.12 7780
-0.00 0.02 -1.71 -3.77 13.86 -0.05 -0.47 0.02 7787
-0.00 0.02 0.62 -1.29 8.66 -0.26 0.07 0.05 7794
-0.00 0.04 -0.49 -1.15 9.82 -0.30 0.02 -0.00 7801
-0.01 0.06 0.41 -0.81 10.20 -0.25 0.03 -0.03 7809
-0.01 0.10 0.50 -0.47 10.14 -0.16 0.04 -0.04 7816
0.00 0.15 0.57 -0.63 10.01 -0.12 0.04 -0.05 7823
0.01 0.21 0.38 -1.04 9.85 -0.08 0.03 -0.05 7830
0.05 0.15 0.23 -1.09 10.10 -0.05 0.05 -0.04 7837
0.04 0.16 0.21 -0.97 9.83 -0.03 0.06 -0.03 7844
0.01 0.14 0.34 -0.97 9.80 -0.02 0.08 -0.03 7852
-0.01 0.18 0.39 -1.02 9.83 -0.02 0.08 -0.02 7859
0.01 0.17 0.42 -1.00 9.77 -0.03 0.07 -0.02 7866
0.02 0.18 0.43 -0.98 9.79 -0.03 0.06 -0.02 7873
0.02 0.22 0.46 -0.95 9.74 -0.04 0.05 -0.02 7880
0.01 0.25 0.45 -0.93 9.78 -0.04 0.05 -0.03 7887
0.02 0.23 0.40 -0.92 9.80 -0.04 0.04 -0.03 7895
0.00 0.22 0.42 -0.86 9.69 -0.05 0.04 -0.04 7902
0.01 0.28 0.44 -0.87 9.81 -0.05 0.04 -0.03 7909
0.02 0.28 0.47 -0.85 9.84 -0.06 0.05 -0.04 7916
0.01 0.29 0.63 -0.95 9.87 -0.05 0.06 -0.04 7923
-0.00 0.32 0.46 -0.93 9.78 -0.04 0.07 -0.04 7930
-0.00 0.32 0.44 -0.94 9.78 -0.04 0.07 -0.03 7938
-0.00 0.39 0.48 -0.88 9.85 -0.03 0.07 -0.04 7945
0.01 0.37 0.35 -0.95 9.76 -0.03 0.07 -0.04 7952
0.01 0.37 0.41 -0.86 9.80 -0.04 0.07 -0.04 7959
0.00 0.38 0.34 -0.80 9.81 -0.00 0.07 -0.04 7966
-0.01 0.42 0.44 -0.95 9.75 -0.03 0.07 -0.03 7973
-0.01 0.42 0.42 -0.89 9.84 -0.03 0.07 -0.03 7981
-0.00 0.43 0.42 -0.69 9.79 -0.02 0.06 -0.04 7988
0.00 0.43 0.44 -0.88 9.20 -0.02 0.07 -0.04 7995
0.01 0.45 0.41 -0.86 9.79 -0.02 0.07 -0.04 8002
0.00 0.43 0.42 -0.86 9.80 -0.02 0.06 -0.04 8009
0.01 0.43 0.42 -0.87 9.79 -0.01 0.06 -0.05 8016
0.01 0.42 0.43 -0.88 9.74 -0.01 0.05 -0.05 8024
0.01 0.42 0.43 -0.88 9.88 -0.01 0.05 -0.05 8031
0.02 0.47 0.39 -0.84 9.78 -0.01 0.05 -0.06 8038
0.02 0.45 0.43 -0.88 9.79 -0.01 0.04 -0.05 8045
0.01 0.45 0.45 -0.89 9.81 -0.01 0.04 -0.05 8052
0.00 0.44 0.46 -0.91 9.81 -0.01 0.04 -0.05 8059
-0.00 0.45 0.43 -0.86 9.81 -0.00 0.04 -0.06 8067
0.01 0.44 0.41 -0.84 9.82 -0.01 0.04 -0.05 8074
0.01 0.45 0.41 -0.86 9.82 -0.00 0.03 -0.05 8081
0.01 0.44 0.45 -0.86 9.80 -0.01 0.04 -0.06 8088
0.01 0.42 0.42 -0.89 9.80 -0.00 0.04 -0.05 8095
0.01 0.42 0.43 -0.88 9.80 -0.01 0.04 -0.05 8102
-0.00 0.43 0.43 -0.88 9.81 -0.00 0.04 -0.06 8110
0.01 0.43 0.41 -0.90 9.78 -0.01 0.04 -0.06 8117
0.02 0.43 0.45 -0.83 9.20 -0.01 0.04 -0.06 8124
0.02 0.42 0.42 -0.86 9.80 -0.01 0.04 -0.05 8131
0.01 0.43 0.46 -0.88 9.72 -0.01 0.04 -0.06 8138
-0.00 0.42 0.44 -0.87 9.74 -0.01 0.04 -0.06 8145
0.01 0.43 0.43 -0.90 9.79 -0.01 0.04 -0.06 8153
0.00 0.44 0.43 -0.91 9.77 -0.01 0.05 -0.05 8160
0.01 0.43 0.43 -0.86 9.77 -0.01 0.05 -0.06 8167
0.01 0.43 0.44 -0.89 9.76 -0.01 0.05 -0.06 8174
0.01 0.43 0.41 -0.89 9.78 -0.01 0.05 -0.06 8181
-0.00 0.42 0.42 -0.86 9.78 -0.00 0.05 -0.06 8188
0.00 0.42 0.44 -0.89 9.81 -0.00 0.05 -0.06 8196
-0.00 0.43 0.42 -0.89 9.79 -0.01 0.05 -0.06 8203
0.02 0.42 0.41 -0.87 9.77 -0.01 0.05 -0.06 8210
0.00 0.43 0.43 -0.86 9.77 -0.01 0.05 -0.06 8217
0.00 0.42 0.43 -0.88 9.80 -0.01 0.06 -0.06 8224
-0.01 0.43 0.42 -0.86 9.76 -0.01 0.05 -0.06 8231
0.00 0.42 0.42 -0.86 9.79 -0.01 0.05 -0.06 8239
0.01 0.43 0.41 -0.90 9.78 -0.01 0.06 -0.06 8246
0.01 0.42 0.46 -0.86 10.39 -0.00 0.06 -0.05 8253
0.00 0.42 0.42 -0.90 9.78 -0.01 0.06 -0.06 8260
-0.00 0.40 0.43 -0.91 9.76 -0.00 0.05 -0.06 8267
-0.01 0.40 0.46 -0.85 9.80 -0.01 0.05 -0.06 8274
0.00 0.40 0.44 -0.87 9.80 -0.00 0.05 -0.06 8282
0.01 0.41 0.46 -0.87 9.81 -0.00 0.05 -0.06 8289
0.01 0.40 0.44 -0.85 9.80 -0.00 0.05 -0.06 8296
0.00 0.39 0.48 -0.91 9.78 -0.00 0.05 -0.06 8303
0.01 0.37 0.44 -0.87 9.78 0.00 0.06 -0.06 8310
0.00 0.39 0.44 -0.88 9.79 0.00 0.06 -0.06 8317
-0.00 0.40 0.47 -0.90 9.79 0.00 0.05 -0.06 8325
0.01 0.40 0.43 -0.90 9.78 -0.00 0.06 -0.07 8332
0.01 0.37 0.46 -0.89 9.79 -0.00 0.05 -0.07 8339
0.01 0.35 0.44 -0.87 9.80 -0.00 0.05 -0.06 8346
0.00 0.35 0.48 -0.88 9.79 0.03 0.05 -0.07 8353
-0.00 0.35 0.47 -0.90 9.76 -0.00 0.05 -0.07 8360
-0.00 0.36 0.47 -0.90 9.80 -0.00 0.05 -0.07 8368
0.01 0.35 0.43 -0.91 9.73 0.00 0.06 -0.07 8375
0.01 0.35 0.46 -0.86 9.77 0.00 0.05 -0.07 8382
0.01 0.28 0.44 -0.87 9.80 0.01 0.06 -0.07 8389
0.01 0.26 0.46 -0.89 9.79 0.01 0.06 -0.07 8396
0.02 0.25 0.47 -0.89 9.77 0.01 0.07 -0.07 8403
0.03 0.23 0.46 -0.87 9.81 0.02 0.07 -0.07 8411
0.03 0.19 0.47 -0.89 9.79 0.01 0.06 -0.07 8418
0.03 0.21 0.46 -0.91 9.80 0.01 0.07 -0.07 8425
0.03 0.18 0.44 -0.96 9.80 0.02 0.07 -0.07 8432
0.02 0.18 0.46 -0.92 9.77 0.02 0.07 -0.07 8439
0.03 0.18 0.48 -0.89 9.75 0.02 0.08 -0.07 8446
0.02 0.21 0.48 -0.87 9.80 0.02 0.08 -0.07 8454
0.04 0.14 0.52 -0.90 9.79 0.02 0.08 -0.08 8461
0.05 0.09 0.46 -0.87 9.81 0.03 0.08 -0.08 8468
0.06 0.06 0.53 -0.90 9.79 0.04 0.08 -0.08 8475
0.06 0.09 0.48 -0.90 9.81 0.07 0.08 -0.08 8482
0.07 0.05 0.50 -0.91 9.81 0.04 0.08 -0.08 8489
0.10 0.05 0.49 -0.96 9.83 0.04 0.09 -0.08 8497
0.09 0.03 0.50 -0.94 9.80 0.05 0.09 -0.07 8504
0.11 0.03 0.53 -0.88 9.82 0.05 0.09 -0.07 8511
0.13 -0.00 0.48 -0.98 9.80 0.06 0.10 -0.07 8518
0.17 0.00 0.51 -0.91 9.83 0.06 0.11 -0.07 8525
0.18 -0.00 0.54 -0.99 9.84 0.08 0.12 -0.07 8532
0.19 -0.00 0.55 -0.98 9.83 0.09 0.13 -0.07 8540
0.18 -0.02 0.56 -1.01 9.84 0.10 0.15 -0.08 8547
0.17 -0.02 0.62 -1.00 9.88 0.14 0.19 -0.08 8554
0.16 -0.02 0.00 -0.97 9.92 0.17 0.21 -0.08 8561
0.17 -0.02 0.58 -0.99 10.05 0.22 0.25 -0.09 8568
0.18 0.01 0.63 -0.92 10.14 0.33 0.30 -0.08 8576
0.20 -0.02 0.77 -1.04 10.25 0.41 0.33 -0.09 8583
0.18 0.00 0.85 -1.13 10.54 0.62 0.36 -0.12 8590
0.22 -0.02 0.81 -1.07 10.99 0.87 0.38 -0.14 8597
0.22 -0.02 0.77 -1.13 11.65 1.15 0.36 -0.15 8604
0.22 -0.02 0.85 -1.44 11.69 1.37 0.29 -0.18 8612
0.24 -0.01 0.80 -1.41 12.00 1.46 0.21 -0.21 8619
0.25 -0.02 0.92 -1.66 11.81 1.54 0.10 -0.23 8627
0.24 -0.02 0.84 -1.64 11.79 1.61 -0.01 -0.24 8634
0.23 -0.02 0.97 -1.74 11.75 1.70 -0.03 -0.25 8640
0.21 -0.01 0.79 -1.90 11.58 1.80 -0.06 -0.24 8648
0.19 -0.01 0.74 -1.78 11.26 1.85 -0.08 -0.24 8655
0.16 -0.02 0.72 -2.03 10.95 1.91 -0.13 -0.23 8662
0.11 -0.01 0.85 -2.27 11.41 1.97 -0.16 -0.23 8669
0.10 -0.01 0.80 -2.44 10.88 2.04 -0.16 -0.24 8676
0.06 -0.01 0.83 -2.66 11.18 2.10 -0.14 -0.23 8683
0.02 -0.00 0.93 -2.92 10.77 2.14 -0.09 -0.23 8690
0.02 -0.00 1.20 -3.06 11.15 2.15 -0.04 -0.24 8697
0.05 -0.01 1.14 -3.23 11.10 2.15 0.05 -0.26 8705
0.04 -0.00 1.29 -3.49 10.89 2.13 0.10 -0.26 8712
0.04 -0.00 1.64 -3.82 11.25 2.11 0.17 -0.28 8719
0.03 -0.00 2.10 -4.15 11.24 2.07 0.30 -0.30 8726
0.00 0.00 2.11 -4.15 11.31 2.03 0.38 -0.34 8733
0.00 0.00 2.03 -4.18 11.00 1.98 0.48 -0.39 8740
0.00 0.00 1.65 -4.18 10.65 1.91 0.54 -0.43 8748
0.00 0.00 1.62 -4.08 11.03 1.84 0.58 -0.46 8755
0.00 0.00 1.42 -3.91 10.38 1.78 0.61 -0.47 8762
0.00 0.00 1.43 -3.12 10.23 1.67 0.63 -0.48 8769
0.00 0.00 1.01 -3.91 10.38 1.51 0.64 -0.49 8776
0.00 0.00 0.66 -3.34 10.80 1.40 0.59 -0.51 8783
0.01 -0.00 0.13 -2.74 10.07 1.25 0.51 -0.54 8791
0.00 0.00 0.05 -2.23 9.23 1.14 0.41 -0.54 8798
0.00 0.00 0.19 -1.69 7.91 1.00 0.33 -0.54 8805
0.00 0.00 0.25 0.08 7.39 0.85 0.19 -0.55 8812
0.00 0.00 0.61 0.12 7.03 0.67 0.08 -0.62 8819
0.00 0.00 0.50 1.71 7.79 0.43 -0.08 -0.70 8826
0.00 0.00 0.45 3.33 7.93 0.25 -0.18 -0.80 8834
0.00 0.00 0.22 2.99 8.07 0.08 -0.18 -0.92 8841
0.00 0.00 -0.01 1.84 8.25 0.01 -0.23 -1.05 8848
0.00 0.00 -0.12 1.52 8.42 -0.04 -0.25 -1.18 8855
0.00 0.00 0.04 1.33 8.64 -0.12 -0.26 -1.27 8862
0.00 0.00 0.23 1.54 8.59 -0.20 -0.29 -1.32 8869
0.00 0.00 0.55 1.67 8.52 -0.27 -0.32 -1.37 8877
0.00 0.00 0.91 1.56 8.25 -0.33 -0.37 -1.33 8884
0.00 0.00 1.81 1.37 8.15 -0.37 -0.41 -1.30 8891
0.00 0.00 1.61 1.09 8.20 -0.42 -0.45 -1.25 8898
0.00 0.00 1.97 0.83 8.20 -0.45 -0.47 -1.17 8905
0.00 0.00 2.20 0.60 8.31 -0.50 -0.48 -1.09 8912
0.00 0.00 2.54 0.31 8.40 -0.54 -0.48 -0.98 8920
0.00 0.00 2.77 0.08 8.38 -0.57 -0.46 -0.85 8927
0.00 0.00 3.04 -0.17 8.60 -0.61 -0.40 -0.75 8934
0.00 0.00 3.34 -0.43 8.76 -0.65 -0.29 -0.61 8941
0.00 0.00 3.47 -1.19 8.97 -0.69 -0.17 -0.47 8948
0.00 0.00 3.11 -3.43 9.49 -0.75 0.03 -0.34 8955
0.00 0.00 2.83 -2.79 11.55 -0.87 0.27 -0.21 8963
0.00 0.00 1.43 -2.23 13.40 -0.93 0.42 -0.13 8970
0.00 0.00 2.81 -1.17 12.64 -1.10 0.50 -0.04 8977
0.00 0.00 0.93 -4.04 8.40 -1.11 0.45 0.08 8984
0.00 0.00 1.52 -2.38 10.00 -1.18 0.40 0.18 8991
0.00 -0.00 1.08 -3.29 11.39 -1.09 0.29 0.30 8998
0.00 0.00 1.03 -5.41 9.01 -1.09 0.14 0.46 9006
0.00 0.00 2.90 -3.85 12.55 -1.09 0.12 0.52 9013
0.00 0.00 1.36 -3.59 8.73 -1.04 0.05 0.61 9020
0.00 0.00 1.47 -4.24 7.95 -0.98 0.04 0.68 9027
0.00 0.00 1.99 -6.28 9.02 -0.94 0.07 0.74 9034
0.00 0.00 2.58 -3.40 10.81 -0.99 0.16 0.75 9041
0.00 0.00 -0.93 -7.06 7.62 -0.87 0.20 0.77 9049
0.00 0.00 1.93 -2.15 9.94 -0.88 0.38 0.72 9056
0.00 0.00 0.59 -6.00 8.72 -0.85 0.45 0.69 9063
0.00 0.00 1.48 -1.68 14.81 -0.88 0.65 0.57 9070
0.00 0.00 -0.40 -4.95 8.22 -0.90 0.59 0.46 9077
0.00 0.00 -0.35 -3.27 10.13 -0.96 0.60 0.40 9084
0.00 0.00 0.06 -3.48 12.55 -0.93 0.58 0.29 9092
0.00 0.00 -0.40 -3.42 9.99 -0.96 0.50 0.21 9099
0.00 0.00 -0.18 -3.57 9.02 -0.95 0.46 0.15 9106
0.00 0.00 -0.21 -3.96 9.48 -0.94 0.46 0.10 9113
0.00 0.00 -0.14 -3.85 9.75 -0.97 0.44 0.07 9120
0.00 0.00 -0.01 -3.61 10.11 -0.98 0.42 0.04 9127
0.00 0.00 -0.02 -3.33 10.24 -1.01 0.40 0.06 9135
0.00 0.00 -0.02 -3.02 10.27 -1.06 0.36 0.04 9142
0.00 0.00 0.01 -2.77 10.41 -1.10 0.32 0.06 9149
0.00 0.00 0.08 -2.55 10.51 -1.16 0.27 0.09 9156
0.00 -0.00 0.21 -2.34 10.29 -1.22 0.24 0.13 9163
0.00 0.00 0.25 -2.12 9.97 -1.26 0.21 0.20 9170
0.00 0.00 0.45 -2.10 9.87 -1.28 0.18 0.21 9178
0.00 0.00 0.60 -2.32 9.83 -1.28 0.14 0.25 9185
0.00 0.00 0.86 -2.51 10.03 -1.26 0.12 0.27 9192
0.00 0.00 1.11 -2.83 10.09 -1.23 0.11 0.28 9199
0.00 0.00 1.36 -2.98 10.09 -1.20 0.12 0.30 9206
0.00 0.00 1.46 -3.07 10.05 -1.16 0.16 0.30 9213
0.00 0.00 1.42 -3.19 10.06 -1.12 0.23 0.31 9221
0.00 0.00 1.30 -3.22 9.99 -1.08 0.29 0.32 9228
0.00 0.00 0.92 -3.29 9.98 -1.03 0.33 0.34 9235
0.00 0.00 0.03 -3.44 9.83 -0.98 0.33 0.36 9242
0.00 0.00 0.49 -3.49 9.71 -0.92 0.30 0.37 9249
0.00 0.00 0.51 -3.37 9.67 -0.87 0.27 0.40 9256
0.00 0.00 0.54 -3.26 9.62 -0.80 0.26 0.43 9264
0.00 0.00 0.54 -3.20 9.76 -0.73 0.25 0.44 9271
0.00 0.00 1.22 -3.18 9.83 -0.68 0.25 0.46 9278
0.00 0.00 0.54 -3.34 9.91 -0.63 0.24 0.45 9285
0.00 0.00 0.37 -3.48 9.92 -0.59 0.21 0.44 9292
0.00 0.00 0.25 -3.74 9.70 -0.54 0.18 0.41 9299
0.00 0.00 0.11 -4.00 9.57 -0.49 0.14 0.39 9307
0.00 0.00 0.03 -4.20 9.46 -0.44 0.11 0.35 9314
0.00 0.00 -0.02 -4.35 9.51 -0.39 0.11 0.31 9321
0.00 -0.00 -0.05 -4.47 9.56 -0.35 0.10 0.29 9328
0.00 0.00 0.00 -4.36 9.73 -0.34 0.11 0.26 9335
0.00 0.00 0.07 -4.31 9.97 -0.34 0.11 0.27 9342
0.00 0.00 0.42 -4.14 10.09 -0.38 0.10 0.27 9350
0.00 0.00 0.65 -3.98 9.99 -0.42 0.10 0.29 9357
0.00 0.00 0.94 -3.86 9.91 -0.49 0.12 0.31 9364
0.00 0.00 1.82 -3.95 9.50 -0.53 0.15 0.33 9371
0.00 0.00 1.46 -3.98 9.18 -0.54 0.21 0.34 9378
0.00 0.00 1.56 -3.91 8.90 -0.52 0.26 0.36 9385
0.00 0.00 1.61 -3.84 8.77 -0.47 0.32 0.38 9393
0.00 0.00 1.54 -3.55 8.60 -0.41 0.39 0.40 9400
0.00 0.00 1.41 -3.14 8.45 -0.36 0.45 0.42 9407
0.00 0.00 1.10 -3.32 9.15 -0.31 0.49 0.44 9414
0.00 0.00 -3.62 -12.56 15.93 0.03 -0.21 0.40 9421
0.00 0.00 -1.59 -2.72 6.27 0.29 -0.44 0.35 9428
0.00 0.00 0.32 -3.21 4.47 0.30 -0.40 0.35 9436
0.00 0.00 -1.15 -8.64 8.35 0.37 -0.74 0.26 9443
0.00 0.00 -2.25 -9.08 9.03 0.52 -0.92 0.12 9450
0.00 0.00 -2.49 -10.38 8.12 0.79 -1.09 -0.06 9457
0.00 0.00 -2.71 -10.35 6.37 0.98 -1.26 -0.21 9464
0.00 0.00 -6.49 -22.19 17.08 0.88 -2.31 -0.46 9472
0.00 0.00 -4.51 -24.17 17.60 0.37 -1.61 -0.65 9479
-0.00 0.00 -4.29 -6.86 7.51 -0.20 0.04 -0.12 9486
-0.00 0.03 0.82 -5.20 9.34 -0.38 0.07 0.03 9493
-0.00 0.04 0.19 -2.41 9.85 -0.39 0.03 0.02 9500
-0.01 0.09 0.79 0.49 10.93 -0.25 -0.01 0.06 9507
-0.02 0.16 0.65 0.24 10.68 -0.18 -0.01 -0.01 9515
0.01 0.18 0.29 -0.30 10.13 -0.13 0.02 -0.07 9522
-0.01 0.22 0.47 -0.87 10.09 -0.07 0.03 -0.07 9529
0.01 0.24 0.27 -0.91 10.02 -0.04 0.06 -0.05 9536
0.01 0.24 0.14 -0.79 9.92 -0.02 0.09 -0.04 9543
0.00 0.26 0.31 -0.79 9.81 -0.00 0.10 -0.05 9550
-0.01 0.26 0.41 -0.93 9.70 -0.01 0.11 -0.04 9558
-0.00 0.28 0.45 -0.90 9.64 -0.01 0.09 -0.03 9565
0.00 0.29 0.40 -0.89 9.78 -0.01 0.09 -0.03 9572
0.02 0.28 0.44 -0.83 9.83 -0.01 0.08 -0.03 9579
0.01 0.27 0.53 -0.87 9.77 -0.02 0.06 -0.03 9586
0.00 0.26 0.43 -0.86 9.87 -0.01 0.04 -0.04 9593
-0.01 0.22 0.43 -0.86 10.40 -0.02 0.03 -0.04 9601
0.01 0.26 0.39 -0.85 9.80 -0.03 0.02 -0.04 9608
0.01 0.28 0.43 -0.84 9.84 -0.03 0.02 -0.05 9615
0.02 0.27 0.46 -0.81 9.74 -0.03 0.03 -0.05 9622
0.02 0.26 0.47 -0.81 9.81 -0.03 0.02 -0.05 9629
0.01 0.28 0.44 -0.85 9.76 -0.03 0.02 -0.05 9636
0.01 0.28 0.37 -0.85 9.76 -0.02 0.03 -0.05 9644
0.01 0.28 0.38 -0.86 9.76 -0.03 0.03 -0.06 9651
0.02 0.32 0.36 -0.85 9.76 -0.02 0.03 -0.05 9658
0.02 0.33 0.39 -0.81 9.80 -0.03 0.03 -0.05 9665
0.02 0.33 0.46 -0.86 9.84 -0.03 0.03 -0.05 9672
0.02 0.31 0.46 -0.79 9.84 -0.03 0.03 -0.05 9679
0.01 0.33 0.45 -0.83 9.82 -0.02 0.03 -0.05 9687
0.02 0.35 0.43 -0.81 9.88 -0.02 0.02 -0.06 9694
0.03 0.37 0.44 -0.81 9.77 -0.02 0.02 -0.05 9701
0.04 0.32 0.42 -0.81 9.84 -0.02 0.02 -0.06 9708
0.03 0.32 0.46 -0.80 9.79 -0.02 0.01 -0.07 9715
0.03 0.32 0.40 -0.84 9.83 -0.02 0.01 -0.06 9722
0.02 0.34 0.39 -0.82 9.82 -0.02 0.01 -0.07 9730
0.03 0.34 0.41 -0.80 9.80 -0.01 0.01 -0.07 9737
0.04 0.36 0.41 -0.83 9.82 -0.01 0.01 -0.07 9744
0.04 0.34 0.37 -0.80 9.82 -0.01 0.01 -0.07 9751
0.03 0.35 0.32 -0.86 9.88 -0.00 0.01 -0.07 9758
0.03 0.33 0.42 -0.82 9.80 -0.00 0.01 -0.07 9765
0.03 0.33 0.34 -0.81 9.81 -0.00 0.02 -0.07 9773
0.04 0.33 0.42 -0.83 9.82 -0.00 0.02 -0.07 9780
0.05 0.32 0.36 -0.83 9.83 0.00 0.02 -0.07 9787
0.05 0.28 0.40 -0.82 9.81 0.00 0.03 -0.07 9794
0.06 0.28 0.39 -0.84 9.81 0.01 0.03 -0.07 9801
0.05 0.27 0.34 -0.83 9.80 0.01 0.03 -0.07 9808
0.06 0.25 0.40 -0.84 9.80 0.01 0.03 -0.07 9816
0.06 0.25 0.38 -0.83 9.81 0.01 0.03 -0.08 9823
0.07 0.24 0.36 -0.87 9.79 0.01 0.04 -0.07 9830
0.06 0.23 0.34 -0.83 9.78 0.01 0.04 -0.03 9837
0.07 0.22 0.36 -0.83 9.81 0.02 0.04 -0.07 9844
0.08 0.23 0.32 -0.89 9.80 0.01 0.04 -0.07 9851
0.09 0.20 0.37 -0.84 10.41 0.01 0.05 -0.07 9859
0.09 0.24 0.42 -0.84 9.80 0.00 0.04 -0.07 9866
0.12 0.21 0.36 -0.86 9.80 0.01 0.04 -0.07 9873
0.11 0.19 0.42 -0.81 9.82 0.01 0.05 -0.07 9880
0.12 0.16 0.39 -0.86 9.76 0.00 0.05 -0.07 9887
0.12 0.18 0.38 -0.83 9.76 0.01 0.05 -0.07 9894
0.14 0.16 0.38 -0.86 9.80 0.01 0.05 -0.07 9902
0.16 0.12 0.36 -0.84 9.77 0.00 0.05 -0.07 9909
0.18 0.13 0.40 -0.83 9.82 0.00 0.05 -0.07 9916
0.16 0.11 0.35 -0.90 9.80 0.00 0.05 -0.07 9923
0.17 0.11 0.38 -0.84 9.78 0.01 0.05 -0.07 9930
0.14 0.12 0.40 -0.86 9.80 0.01 0.05 -0.07 9937
0.16 0.12 0.42 -0.88 9.80 0.01 0.05 -0.07 9945
0.17 0.12 0.37 -0.87 9.82 0.01 0.05 -0.07 9952
0.17 0.12 0.40 -0.87 9.82 0.03 0.05 -0.07 9959
0.17 0.08 0.39 -0.82 9.80 -0.00 0.05 -0.07 9966
0.17 0.08 0.40 -0.88 9.77 0.00 0.04 -0.07 9973
0.16 0.09 0.40 -0.86 9.78 0.00 0.05 -0.07 9980
0.17 0.09 0.37 -0.82 10.42 -0.00 0.05 -0.07 9988
0.19 0.09 0.38 -0.85 9.79 -0.00 0.04 -0.07 9995
0.16 0.10 0.40 -0.86 9.84 -0.00 0.04 -0.07 10002
0.16 0.07 0.38 -0.85 9.81 -0.00 0.04 -0.07 10009
0.15 0.09 0.39 -0.86 9.81 -0.00 0.05 -0.07 10016
0.15 0.08 0.39 -0.85 9.79 -0.00 0.05 -0.07 10023
0.16 0.09 0.41 -0.84 9.80 0.00 0.05 -0.07 10031
0.18 0.09 0.39 -0.86 9.80 -0.00 0.05 -0.07 10038
0.17 0.08 0.40 -0.88 9.80 0.00 0.04 -0.07 10045
0.18 0.08 0.36 -0.86 9.79 -0.00 0.05 -0.07 10052
0.16 0.08 0.41 -0.85 9.81 -0.00 0.05 -0.07 10059
0.17 0.09 0.40 -0.90 9.78 -0.00 0.04 -0.07 10066
0.16 0.06 0.36 -0.74 9.80 0.00 0.04 -0.07 10074
0.17 0.04 0.39 -0.90 9.81 0.00 0.04 -0.07 10081
0.18 0.04 0.37 -0.86 9.81 0.00 0.05 -0.07 10088
0.20 0.03 0.40 -0.86 9.80 0.00 0.04 -0.07 10095
0.18 0.01 0.41 -0.87 9.81 0.00 0.04 -0.07 10102
0.20 0.03 0.38 -0.91 9.80 0.00 0.04 -0.07 10109
0.20 0.03 0.39 -0.89 9.79 0.00 0.05 -0.07 10117
0.25 0.01 0.37 -0.89 9.80 0.00 0.04 -0.07 10124
0.25 0.01 0.38 -0.87 9.80 0.00 0.04 -0.07 10131
0.25 -0.01 0.43 -0.88 9.81 0.00 0.04 -0.07 10138
0.24 0.01 0.39 -0.87 9.81 0.00 0.04 -0.07 10145
0.26 0.01 0.40 -0.92 9.80 0.00 0.05 -0.07 10152
0.28 -0.00 0.39 -0.88 9.80 0.00 0.05 -0.07 10160
0.29 0.00 0.39 -0.86 9.82 0.00 0.05 -0.07 10167
0.29 -0.01 0.39 -0.87 9.78 0.00 0.05 -0.07 10174
0.28 0.00 0.37 -0.88 9.82 0.01 0.05 -0.07 10181
0.27 -0.02 0.38 -0.89 9.81 0.01 0.06 -0.08 10188
0.29 0.00 0.38 -0.88 9.80 0.01 0.06 -0.08 10195
0.31 -0.01 0.38 -0.91 9.81 0.01 0.06 -0.08 10203
0.31 -0.01 0.41 -0.92 9.20 0.02 0.06 -0.08 10210
0.32 -0.01 0.39 -0.91 9.82 0.02 0.07 -0.07 10217
0.31 -0.02 0.42 -0.88 9.81 0.03 0.07 -0.08 10224
0.31 -0.01 0.39 -0.91 9.82 0.03 0.08 -0.08 10231
0.32 -0.00 0.43 -0.91 9.82 0.04 0.08 -0.08 10238
0.33 -0.02 0.44 -0.92 9.86 0.05 0.09 -0.08 10246
0.33 -0.01 0.41 -0.91 9.88 0.07 0.10 -0.07 10253
0.35 -0.03 0.42 -0.92 9.99 0.10 0.11 -0.07 10260
0.35 -0.01 0.48 -0.92 10.08 0.15 0.14 -0.07 10267
0.35 -0.02 0.60 -0.95 10.25 0.21 0.19 -0.08 10274
0.34 -0.01 0.54 -0.96 10.33 0.33 0.25 -0.10 10283
0.34 -0.01 0.71 -1.14 10.68 0.51 0.33 -0.11 10290
0.33 -0.02 0.90 -1.02 11.28 0.73 0.38 -0.15 10297
0.29 -0.02 0.76 -1.14 11.33 1.02 0.35 -0.16 10304
0.27 0.00 0.80 -1.25 11.74 1.22 0.24 -0.20 10310
0.23 -0.00 0.80 -0.65 11.33 1.27 0.16 -0.22 10317
0.23 -0.00 0.55 -1.23 11.05 1.31 0.10 -0.24 10326
0.20 -0.01 0.82 -1.53 11.15 1.34 0.04 -0.25 10333
0.19 -0.01 0.71 -1.57 10.89 1.38 -0.01 -0.24 10340
0.17 -0.02 0.68 -1.67 11.12 1.43 -0.03 -0.24 10346
0.15 -0.01 0.74 -1.68 11.01 1.43 -0.03 -0.25 10354
0.08 0.00 0.58 -1.88 11.02 1.50 -0.06 -0.25 10360
0.07 -0.01 0.58 -2.06 10.81 1.55 -0.08 -0.24 10368
0.05 -0.01 0.54 -2.33 10.54 1.56 -0.16 -0.22 10375
0.07 -0.01 0.66 -2.34 10.77 1.57 -0.11 -0.20 10382
0.02 -0.00 0.53 -3.06 10.78 1.60 -0.10 -0.20 10389
0.03 -0.00 0.64 -2.63 10.76 1.64 -0.08 -0.19 10396
0.04 0.00 0.66 -2.88 10.78 1.66 -0.04 -0.19 10403
0.03 -0.00 0.78 -3.01 10.92 1.67 0.00 -0.20 10411
0.05 -0.00 1.08 -3.27 11.21 1.69 0.05 -0.21 10418
0.00 0.00 1.44 -3.44 11.58 1.69 0.12 -0.24 10425
0.00 0.00 2.04 -3.68 11.77 1.69 0.26 -0.28 10432
0.00 0.00 2.43 -3.75 11.88 1.66 0.40 -0.35 10439
0.00 0.00 2.44 -3.67 11.65 1.60 0.49 -0.41 10446
0.00 -0.00 2.28 -3.60 11.11 1.55 0.54 -0.49 10454
0.00 0.00 2.11 -3.42 11.16 1.51 0.54 -0.55 10461
0.00 0.00 1.93 -3.31 11.08 1.48 0.51 -0.59 10468
0.00 0.00 1.49 -3.08 10.54 1.41 0.42 -0.64 10475
0.00 -0.00 1.22 -2.75 9.76 1.32 0.35 -0.67 10482
0.00 0.00 1.04 -2.22 9.12 1.23 0.25 -0.71 10489
0.00 0.00 0.92 -1.41 8.27 1.15 0.11 -0.76 10497
0.00 0.00 0.87 -0.88 7.99 1.05 0.02 -0.80 10504
0.00 0.00 1.25 -1.04 8.05 0.96 -0.08 -0.84 10511
0.00 0.00 1.18 -0.30 8.95 0.88 -0.14 -0.85 10518
0.00 0.00 1.15 0.33 9.13 0.79 -0.14 -0.89 10525
0.01 -0.00 1.26 0.74 8.72 0.71 -0.12 -0.91 10532
0.00 0.00 0.98 2.75 9.20 0.60 -0.11 -0.92 10540
0.00 0.00 1.09 2.82 8.67 0.41 -0.11 -0.95 10547
0.00 0.00 0.97 1.71 8.02 0.31 -0.16 -0.91 10554
0.00 0.00 0.87 1.33 8.92 0.16 -0.19 -0.86 10561
0.00 0.00 0.95 1.83 8.73 0.01 -0.24 -0.79 10568
0.00 -0.00 1.03 2.10 8.25 -0.09 -0.32 -0.73 10575
0.00 0.00 1.08 1.93 7.73 -0.14 -0.41 -0.63 10583
0.00 0.00 1.25 1.77 7.57 -0.16 -0.48 -0.54 10590
0.00 0.00 1.68 1.74 7.71 -0.19 -0.53 -0.45 10597
0.00 0.00 2.18 1.77 7.91 -0.22 -0.52 -0.35 10604
0.00 0.00 2.43 1.81 8.24 -0.27 -0.46 -0.26 10611
0.00 0.00 2.81 1.88 8.53 -0.34 -0.34 -0.13 10618
0.00 0.00 2.94 1.85 8.64 -0.44 -0.18 0.01 10626
0.00 0.00 2.98 1.71 8.63 -0.57 -0.05 0.14 10633
0.00 0.00 2.90 1.40 8.85 -0.67 0.07 0.29 10640
0.00 0.00 2.83 1.10 9.12 -0.78 0.16 0.41 10647
0.00 0.00 2.52 0.65 9.14 -0.87 0.23 0.55 10654
0.00 0.00 2.31 0.28 9.22 -0.93 0.30 0.67 10661
0.00 0.00 2.15 -0.01 9.80 -0.97 0.28 0.75 10669
0.00 0.00 2.02 -0.36 9.29 -0.99 0.29 0.83 10676
0.00 0.00 1.90 -0.78 9.32 -1.01 0.29 0.88 10683
0.00 0.00 1.71 -1.05 9.35 -1.02 0.28 0.91 10690
0.00 0.00 1.50 -1.35 9.40 -1.02 0.27 0.93 10697
0.00 0.00 1.32 -1.65 9.35 -1.01 0.27 0.92 10704
0.00 0.00 0.11 -5.91 9.33 -0.99 0.27 0.88 10712
0.00 0.00 0.98 -1.72 12.47 -1.10 0.29 0.81 10719
0.00 0.00 0.05 -0.79 10.89 -1.04 0.26 0.66 10726
0.00 0.00 0.41 -2.85 6.44 -1.18 0.26 0.60 10733
0.00 0.00 0.34 -3.89 10.12 -1.16 0.29 0.51 10740
0.00 0.00 0.92 -4.73 10.12 -1.24 0.29 0.49 10747
0.00 0.00 0.88 -0.88 18.48 -1.21 0.34 0.41 10755
0.00 0.00 -0.89 -6.05 5.84 -1.22 0.29 0.41 10762
0.00 0.00 0.49 -2.07 9.65 -1.18 0.35 0.39 10769
0.00 0.00 0.56 -2.74 10.47 -1.15 0.34 0.41 10776
0.00 0.00 0.44 -3.76 7.67 -1.06 0.36 0.43 10783
0.00 0.00 1.32 -2.61 9.91 -1.10 0.39 0.46 10790
0.00 0.00 0.59 -4.31 14.59 -1.06 0.38 0.49 10798
0.00 0.00 0.69 -2.42 11.12 -1.09 0.36 0.50 10805
0.00 0.00 1.08 -3.38 11.11 -1.09 0.29 0.52 10812
0.00 0.00 1.20 -3.07 11.39 -1.09 0.21 0.53 10819
0.00 0.00 1.24 -3.71 11.01 -1.10 0.12 0.53 10826
0.00 0.00 1.48 -3.92 10.91 -1.10 0.07 0.52 10833
0.00 0.00 1.72 -4.03 10.71 -1.08 0.05 0.50 10841
0.00 0.00 2.41 -3.95 10.33 -1.05 0.06 0.47 10848
0.00 0.00 1.86 -3.97 10.04 -1.01 0.09 0.45 10855
0.00 0.00 1.76 -4.07 9.79 -0.96 0.14 0.44 10862
0.00 0.00 1.66 -4.17 9.59 -0.88 0.19 0.43 10869
0.00 0.00 1.39 -4.25 9.51 -0.79 0.25 0.42 10876
0.00 0.00 1.21 -4.30 9.53 -0.70 0.33 0.41 10884
0.00 0.00 1.07 -4.21 9.57 -0.61 0.37 0.39 10891
0.00 0.00 1.01 -4.08 9.82 -0.56 0.45 0.36 10898
0.00 0.00 0.94 -3.94 10.23 -0.53 0.51 0.32 10905
0.00 0.00 0.82 -3.74 10.61 -0.55 0.56 0.28 10912
0.00 0.00 0.56 -3.71 10.72 -0.61 0.55 0.24 10919
0.00 0.00 0.24 -3.74 10.61 -0.70 0.48 0.21 10927
0.00 0.00 0.08 -3.70 10.49 -0.78 0.34 0.17 10934
0.00 0.00 0.04 -3.76 10.11 -0.82 0.19 0.13 10941
0.00 0.00 0.17 -3.82 9.72 -0.82 0.03 0.08 10948
0.00 0.00 0.44 -3.90 9.16 -0.79 -0.05 0.03 10955
0.00 0.00 0.62 -3.85 8.83 -0.73 -0.08 -0.01 10962
0.00 0.00 0.83 -3.90 8.57 -0.65 -0.09 -0.06 10970
0.00 0.00 0.90 -3.88 8.38 -0.56 -0.09 -0.11 10977
0.00 0.00 0.96 -3.94 8.39 -0.46 -0.09 -0.15 10984
0.00 0.00 1.02 -3.93 8.41 -0.36 -0.11 -0.19 10991
0.00 0.00 1.02 -3.98 8.66 -0.25 -0.12 -0.21 10998
0.00 0.00 1.31 -3.96 9.18 -0.15 -0.11 -0.24 11005
0.00 0.00 1.96 -3.87 9.91 -0.11 -0.01 -0.26 11013
0.00 0.00 2.30 -3.73 10.16 -0.13 0.09 -0.28 11020
0.00 0.00 2.19 -3.42 10.27 -0.21 0.25 -0.30 11027
0.00 0.00 2.00 -3.14 10.04 -0.31 0.35 -0.31 11034
0.00 0.00 1.71 -3.06 9.86 -0.42 0.40 -0.31 11041
0.00 0.00 1.40 -3.19 9.72 -0.47 0.37 -0.31 11048
0.00 0.00 1.44 -3.34 9.43 -0.48 0.30 -0.32 11056
0.00 0.00 1.62 -3.39 9.07 -0.45 0.21 -0.32 11063
0.00 0.00 1.87 -3.17 8.79 -0.41 0.18 -0.31 11070
0.00 0.00 1.73 -3.40 8.93 -0.35 0.19 -0.28 11077
0.00 0.00 -0.05 -4.92 10.82 -0.23 -0.06 -0.25 11084
0.00 0.00 -1.14 -4.44 9.73 -0.02 -0.40 -0.21 11091
0.00 0.00 0.33 -2.23 6.65 0.05 -0.45 -0.12 11099
0.00 0.00 -0.33 -4.04 8.25 0.03 -0.44 -0.01 11106
0.00 0.00 -0.48 -5.03 8.69 -0.02 -0.61 0.04 11113
0.00 0.00 -0.29 -5.21 9.95 -0.01 -0.74 0.05 11120
0.00 0.00 -1.16 -5.58 8.93 0.01 -0.75 0.08 11127
0.00 0.00 -1.38 -7.52 9.73 0.07 -0.90 0.09 11134
0.00 0.00 -1.79 -6.81 8.66 0.13 -0.93 0.11 11142
-0.00 0.00 -3.19 -9.56 9.20 0.26 -0.93 0.15 11149
0.00 -0.00 -3.89 -12.83 9.62 0.54 -0.73 0.33 11156
-0.00 0.02 -3.97 -15.39 7.52 0.57 -0.72 0.47 11163
-0.00 0.02 -11.29 -18.24 12.75 0.48 -1.28 0.48 11171
-0.00 0.02 -5.24 -3.68 12.71 0.18 -0.65 0.24 11177
-0.00 0.03 -0.73 -2.71 10.96 -0.14 -0.16 -0.01 11185
-0.01 0.05 -0.75 -1.79 9.83 -0.28 0.10 -0.03 11192
-0.00 0.04 0.13 -0.51 9.87 -0.27 0.13 -0.08 11199
-0.01 0.06 1.34 -0.06 10.08 -0.19 0.08 -0.04 11206
-0.01 0.14 0.96 -0.15 9.99 -0.12 0.02 -0.02 11213
-0.02 0.19 0.63 -0.32 10.01 -0.07 -0.01 -0.04 11220
-0.02 0.20 0.30 -0.68 9.96 -0.04 -0.01 -0.05 11228
-0.00 0.19 0.27 -0.87 10.00 -0.02 0.01 -0.05 11235
-0.00 0.19 0.25 -0.88 9.87 -0.00 0.02 -0.06 11242
0.00 0.19 0.38 -0.89 9.75 0.00 0.03 -0.05 11249
0.00 0.15 0.37 -0.97 9.70 0.00 0.02 -0.05 11256
-0.00 0.14 0.33 -0.90 9.72 0.00 0.02 -0.04 11264
0.01 0.09 0.42 -0.88 9.74 -0.00 0.01 -0.04 11271
0.02 0.09 0.42 -0.84 9.86 -0.01 0.00 -0.05 11278
0.03 0.10 0.43 -0.83 9.81 -0.01 -0.00 -0.06 11285
0.03 0.09 0.41 -0.84 9.81 -0.02 -0.00 -0.06 11292
0.01 0.09 0.34 -0.84 9.81 -0.02 -0.00 -0.07 11299
0.01 0.09 0.34 -0.89 9.81 -0.03 0.01 -0.07 11307
0.04 0.10 0.30 -0.87 9.70 -0.03 0.01 -0.07 11314
0.06 0.11 0.33 -0.84 9.85 -0.04 0.02 -0.07 11321
0.05 0.12 0.29 -0.84 9.81 -0.04 0.02 -0.07 11328
0.04 0.16 0.35 -0.85 9.77 -0.04 0.03 -0.06 11335
0.05 0.16 0.35 -0.83 9.85 -0.04 0.03 -0.06 11342
0.04 0.17 0.33 -0.81 9.82 -0.04 0.04 -0.05 11350
0.04 0.17 0.32 -0.80 9.81 -0.04 0.03 -0.05 11357
0.07 0.18 0.39 -0.83 9.84 -0.04 0.04 -0.06 11364
0.07 0.16 0.37 -0.82 9.75 -0.03 0.04 -0.06 11371
0.08 0.17 0.35 -0.81 9.78 -0.03 0.03 -0.05 11378
0.10 0.16 0.38 -0.80 9.82 -0.02 0.03 -0.06 11385
0.10 0.18 0.38 -0.82 9.85 -0.02 0.03 -0.06 11393
0.13 0.20 0.40 -0.84 9.79 -0.02 0.03 -0.06 11400
0.14 0.18 0.36 -0.75 9.85 -0.02 0.04 -0.06 11407
0.15 0.19 0.38 -0.83 9.79 -0.01 0.03 -0.06 11414
0.15 0.19 0.37 -0.81 9.82 -0.01 0.03 -0.06 11421
0.16 0.19 0.34 -0.76 9.83 -0.01 0.04 -0.06 11428
0.15 0.20 0.32 -0.79 9.80 -0.01 0.04 -0.06 11436
0.17 0.21 0.35 -0.83 9.84 -0.00 0.05 -0.06 11443
0.17 0.19 0.33 -0.75 9.82 0.00 0.05 -0.06 11450
0.19 0.19 0.36 -0.80 9.81 0.00 0.05 -0.06 11457
0.19 0.21 0.36 -0.77 10.40 0.01 0.05 -0.06 11464
0.20 0.19 0.33 -0.79 9.80 0.01 0.05 -0.06 11471
0.22 0.16 0.39 -0.80 9.81 0.01 0.05 -0.06 11479
0.22 0.15 0.34 -0.83 9.82 0.02 0.05 -0.06 11486
0.26 0.11 0.39 -0.81 9.77 0.02 0.05 -0.06 11493
0.27 0.11 0.39 -0.85 9.81 0.02 0.05 -0.06 11500
0.27 0.07 0.36 -0.84 9.81 0.02 0.06 -0.06 11507
0.26 0.04 0.36 -0.82 9.81 0.02 0.06 -0.06 11514
0.28 0.04 0.36 -0.82 9.82 0.02 0.05 -0.06 11522
0.29 0.01 0.34 -0.85 9.80 0.02 0.06 -0.06 11529
0.30 0.01 0.36 -0.85 9.75 0.02 0.06 -0.06 11536
0.29 0.02 0.36 -0.84 9.79 0.02 0.06 -0.06 11543
0.32 -0.01 0.38 -0.82 9.76 0.02 0.06 -0.06 11550
0.30 0.01 0.35 -0.86 9.78 0.02 0.06 -0.06 11557
0.31 0.01 0.41 -0.81 9.79 0.02 0.06 -0.06 11565
0.33 0.01 0.39 -0.87 9.75 0.02 0.06 -0.04 11572
0.33 -0.01 0.32 -0.85 9.79 0.01 0.07 -0.07 11579
0.33 -0.01 0.32 -0.84 9.80 0.01 0.07 -0.06 11586
0.32 -0.01 0.41 -0.83 9.79 0.01 0.07 -0.06 11593
0.32 -0.01 0.40 -0.85 9.81 0.02 0.07 -0.06 11600
0.31 -0.00 0.38 -0.87 9.80 0.01 0.07 -0.06 11608
0.34 -0.01 0.40 -0.86 9.81 0.01 0.07 -0.06 11615
0.33 -0.01 0.45 -0.83 9.77 0.01 0.07 -0.07 11622
0.32 -0.01 0.42 -0.85 9.80 0.01 0.06 -0.07 11629
0.32 -0.01 0.45 -0.82 9.81 0.01 0.06 -0.07 11636
0.30 0.00 0.40 -0.85 9.79 0.00 0.06 -0.07 11643
0.31 0.01 0.38 -0.86 9.78 0.01 0.06 -0.07 11651
0.33 0.00 0.40 -0.85 9.82 0.00 0.06 -0.06 11658
0.33 -0.00 0.37 -0.86 9.81 0.01 0.06 -0.07 11665
0.34 -0.02 0.40 -0.84 9.81 0.00 0.06 -0.07 11672
0.34 -0.01 0.40 -0.85 9.80 0.00 0.06 -0.07 11679
0.35 -0.01 0.42 -0.87 9.82 0.01 0.06 -0.07 11686
0.35 -0.00 0.43 -0.88 9.80 0.01 0.06 -0.06 11694
0.36 -0.01 0.44 -0.86 9.81 0.01 0.06 -0.07 11701
0.36 -0.02 0.43 -0.89 9.81 0.01 0.06 -0.07 11708
0.37 -0.02 0.39 -0.87 9.81 0.01 0.06 -0.06 11715
0.36 -0.00 0.42 -0.86 10.38 0.01 0.06 -0.07 11722
0.36 -0.00 0.40 -0.85 9.81 0.01 0.06 -0.06 11729
0.36 -0.00 0.41 -0.86 9.81 0.01 0.06 -0.06 11737
0.37 -0.01 0.40 -0.88 9.79 0.01 0.06 -0.07 11744
0.37 -0.01 0.39 -0.88 9.80 0.01 0.05 -0.06 11751
0.37 -0.02 0.42 -0.87 9.78 0.01 0.05 -0.07 11758
0.35 -0.01 0.40 -0.85 9.81 0.01 0.05 -0.06 11765
0.36 -0.00 0.41 -0.86 9.81 0.01 0.06 -0.07 11772
0.36 -0.01 0.42 -0.89 9.79 0.01 0.06 -0.06 11780
0.36 -0.01 0.41 -0.85 9.79 0.00 0.06 -0.06 11787
0.35 -0.01 0.43 -0.86 9.80 0.01 0.06 -0.06 11794
0.35 -0.02 0.43 -0.88 9.76 0.01 0.06 -0.07 11801
0.34 -0.01 0.41 -0.87 9.82 0.01 0.06 -0.07 11808
0.34 -0.01 0.45 -0.91 9.20 0.01 0.06 -0.07 11815
0.36 -0.01 0.41 -0.88 9.81 0.02 0.07 -0.06 11823
0.36 -0.01 0.44 -0.89 9.79 0.02 0.07 -0.07 11830
0.35 -0.02 0.44 -0.91 9.82 0.03 0.08 -0.07 11837
0.35 -0.02 0.48 -0.88 9.81 0.04 0.08 -0.08 11844
0.35 -0.01 0.46 -0.95 9.81 0.05 0.08 -0.07 11851
0.37 -0.00 0.47 -0.89 9.80 0.06 0.09 -0.08 11858
0.39 -0.01 0.51 -0.86 9.82 0.07 0.10 -0.08 11866
0.40 -0.02 0.51 -0.91 9.84 0.09 0.11 -0.09 11873
0.41 -0.03 0.48 -0.90 9.85 0.11 0.13 -0.09 11880
0.40 -0.02 0.50 -0.91 9.83 0.14 0.15 -0.09 11887
0.43 -0.02 0.44 -0.90 9.88 0.17 0.18 -0.10 11894
0.43 -0.02 0.46 -1.00 9.91 0.20 0.20 -0.10 11901
0.44 -0.02 0.55 -1.04 9.97 0.25 0.24 -0.10 11909
0.44 -0.02 0.52 -1.00 9.98 0.30 0.27 -0.10 11916
0.43 -0.03 0.57 -0.92 10.03 0.37 0.29 -0.10 11923
0.42 -0.02 0.56 -1.00 10.09 0.46 0.33 -0.10 11930
0.43 -0.02 0.63 -1.09 10.28 0.55 0.35 -0.10 11938
0.44 -0.02 0.58 -1.17 10.32 0.67 0.36 -0.10 11945
0.42 -0.02 0.73 -1.22 10.47 0.79 0.36 -0.11 11953
0.41 -0.02 0.71 -1.25 10.95 0.86 0.33 -0.11 11960
0.42 -0.03 0.72 -1.34 11.05 0.97 0.30 -0.12 11967
0.37 -0.02 0.78 -1.47 11.33 1.06 0.24 -0.13 11974
0.36 -0.02 0.91 -1.57 10.92 1.14 0.19 -0.15 11981
0.36 -0.01 0.72 -1.54 11.19 1.22 0.14 -0.15 11988
0.32 -0.02 0.64 -1.65 11.58 1.31 0.09 -0.15 11996
0.29 -0.02 0.68 -1.72 11.38 1.42 0.07 -0.15 12003
0.23 -0.02 0.82 -1.86 11.09 1.48 0.07 -0.15 12009
0.20 -0.02 0.77 -1.94 11.05 1.53 0.09 -0.16 12017
0.17 -0.00 0.91 -2.28 10.93 1.56 -0.00 -0.16 12024
0.19 -0.01 1.08 -2.26 11.63 1.60 0.06 -0.17 12032
0.15 -0.01 0.57 -2.32 10.27 1.69 0.05 -0.18 12038
0.09 -0.01 1.13 -2.59 11.09 1.74 0.05 -0.17 12045
0.07 -0.01 1.06 -2.59 10.99 1.80 0.09 -0.18 12052
0.03 -0.00 0.88 -2.74 11.30 1.87 0.08 -0.18 12059
0.05 -0.00 1.03 -3.13 11.69 1.94 0.08 -0.19 12066
0.07 -0.01 1.37 -3.33 11.83 2.01 0.11 -0.21 12073
0.06 -0.01 1.34 -3.61 12.25 2.08 0.17 -0.23 12081
0.04 -0.00 1.47 -3.84 12.18 2.11 0.22 -0.23 12088
0.02 -0.00 2.01 -4.20 12.41 2.11 0.31 -0.25 12095
0.01 -0.00 2.47 -4.33 12.41 2.08 0.47 -0.29 12102
0.00 -0.00 2.81 -4.33 11.81 2.04 0.58 -0.34 12109
0.01 -0.00 2.74 -4.31 11.38 1.99 0.69 -0.40 12116
0.02 -0.00 1.97 -3.90 11.35 1.92 0.73 -0.47 12124
0.00 0.00 1.55 -3.86 11.33 1.84 0.70 -0.52 12131
0.00 0.00 1.30 -3.89 12.05 1.82 0.66 -0.54 12138
0.00 0.00 1.37 -3.62 11.17 1.81 0.57 -0.56 12145
0.00 0.00 1.26 -3.44 10.50 1.73 0.51 -0.60 12152
0.00 0.00 1.34 -2.90 9.64 1.60 0.49 -0.62 12160
0.00 0.00 1.33 -2.24 8.63 1.44 0.43 -0.66 12167
0.00 0.00 1.18 -0.64 7.90 1.31 0.34 -0.70 12174
0.00 0.00 1.41 -0.27 7.14 1.12 0.26 -0.76 12181
0.00 0.00 1.48 -0.32 6.86 0.92 0.17 -0.83 12188
0.00 0.00 0.66 2.18 7.65 0.76 0.12 -0.97 12195
0.00 0.00 -0.39 5.14 7.72 0.49 0.07 -1.14 12203
0.00 0.00 -0.47 4.17 7.81 0.23 -0.02 -1.37 12210
0.00 0.00 -0.84 3.00 7.71 0.00 -0.10 -1.53 12217
0.00 0.00 -0.73 2.20 8.42 -0.11 -0.18 -1.65 12224
0.00 0.00 -0.69 2.45 8.44 -0.23 -0.23 -1.69 12231
0.00 -0.00 -0.49 3.00 7.67 -0.35 -0.32 -1.68 12238
0.00 0.00 0.00 3.09 7.07 -0.41 -0.46 -1.63 12246
0.00 0.00 0.34 2.80 6.79 -0.45 -0.58 -1.51 12253
0.00 0.00 0.77 2.56 6.97 -0.49 -0.68 -1.41 12260
0.00 0.00 1.49 2.41 7.69 -0.52 -0.70 -1.24 12267
0.00 0.00 2.13 2.33 8.23 -0.59 -0.65 -1.09 12274
0.00 0.00 2.76 2.16 8.67 -0.72 -0.52 -0.91 12281
0.00 0.00 3.06 1.89 8.93 -0.84 -0.36 -0.72 12289
0.00 0.00 3.13 1.62 9.17 -1.03 -0.18 -0.54 12296
0.00 0.00 3.05 1.20 9.30 -1.18 -0.03 -0.35 12303
0.00 0.00 2.89 0.71 9.19 -1.33 0.05 -0.19 12310
0.00 0.00 2.64 0.19 9.01 -1.42 0.11 0.00 12317
0.00 0.00 2.47 -0.34 8.93 -1.45 0.14 0.19 12324
0.00 0.00 2.40 -0.80 9.01 -1.46 0.18 0.33 12332
0.00 0.00 2.25 -1.29 9.24 -1.45 0.22 0.47 12339
0.00 0.00 2.09 -1.66 9.61 -1.43 0.25 0.56 12346
0.00 0.00 1.88 -1.97 9.83 -1.44 0.28 0.65 12353
0.00 0.00 1.67 -2.33 10.18 -1.45 0.30 0.71 12360
0.00 0.00 0.75 -4.03 10.41 -1.46 0.29 0.74 12367
0.00 0.00 1.37 -2.25 10.06 -1.50 0.29 0.77 12375
0.00 0.00 0.70 -2.46 11.41 -1.45 0.25 0.77 12382
0.00 0.00 0.81 -4.22 9.10 -1.47 0.20 0.78 12389
0.00 0.00 0.59 -5.28 11.18 -1.41 0.19 0.76 12396
0.00 0.00 0.94 -3.68 9.42 -1.40 0.13 0.74 12403
0.00 0.00 0.08 -4.45 9.88 -1.27 0.07 0.71 12410
0.00 0.00 0.61 -5.94 8.37 -1.24 0.04 0.66 12418
0.00 0.00 2.08 -3.77 10.88 -1.18 0.07 0.61 12425
0.00 0.00 0.57 -5.58 10.20 -1.05 0.10 0.54 12432
0.00 0.00 -0.26 -5.38 10.78 -1.07 0.15 0.48 12439
0.00 0.00 2.18 -4.30 5.16 -0.96 0.18 0.38 12446
0.00 0.00 1.84 -4.20 7.81 -0.97 0.25 0.29 12453
0.00 0.00 1.08 -5.03 10.33 -0.95 0.32 0.24 12461
0.00 0.00 0.25 -4.68 10.76 -0.93 0.39 0.17 12468
0.00 0.00 0.09 -4.85 14.86 -0.90 0.44 0.13 12475
0.00 0.00 0.99 -2.94 11.62 -0.89 0.45 0.07 12482
0.00 -0.00 0.01 -2.61 10.38 -0.91 0.44 0.02 12489
0.00 0.00 -0.45 -3.93 7.63 -0.93 0.43 -0.01 12496
0.00 0.00 1.18 -4.30 11.00 -0.94 0.44 -0.02 12504
0.00 0.00 1.26 -2.37 10.49 -0.99 0.41 -0.04 12511
0.00 0.00 -0.18 -3.81 10.27 -0.98 0.34 -0.05 12518
0.00 0.00 0.64 -3.13 10.01 -0.96 0.31 -0.06 12525
0.00 0.00 0.81 -3.28 10.03 -0.95 0.29 -0.07 12532
0.00 0.00 0.94 -3.18 10.27 -0.90 0.28 -0.08 12539
0.00 0.00 1.07 -3.08 10.18 -0.92 0.26 -0.06 12547
0.00 0.00 1.24 -2.88 10.11 -0.91 0.26 -0.05 12554
0.00 0.00 1.30 -2.72 10.11 -0.91 0.29 -0.02 12561
0.00 0.00 1.34 -2.56 10.29 -0.91 0.32 0.01 12568
0.00 0.00 1.39 -2.38 10.45 -0.93 0.37 0.05 12575
0.00 0.00 1.39 -2.12 10.61 -0.96 0.42 0.09 12582
0.00 0.00 1.19 -2.07 10.70 -1.00 0.46 0.12 12590
0.00 0.00 0.85 -2.01 10.68 -1.03 0.48 0.16 12597
0.00 0.00 0.69 -2.06 10.51 -1.05 0.47 0.18 12604
0.00 0.00 0.53 -2.32 10.43 -1.07 0.44 0.20 12611
0.00 0.00 0.42 -2.73 10.41 -1.07 0.39 0.20 12618
0.00 0.00 0.34 -3.19 10.18 -1.06 0.32 0.20 12625
0.00 0.00 0.34 -3.61 9.81 -1.03 0.27 0.20 12633
0.00 0.00 0.40 -3.83 9.34 -0.96 0.23 0.20 12640
0.00 0.00 0.39 -4.03 9.05 -0.86 0.19 0.20 12647
0.00 0.00 0.41 -4.16 8.63 -0.74 0.16 0.22 12654
0.00 0.00 0.26 -4.34 8.48 -0.59 0.12 0.23 12661
0.00 0.00 0.11 -4.40 8.68 -0.41 0.07 0.25 12668
0.00 0.00 0.28 -4.14 9.80 -0.30 0.08 0.28 12676
0.00 0.00 0.50 -3.79 10.33 -0.26 0.15 0.31 12683
0.00 0.00 0.24 -3.59 10.57 -0.31 0.29 0.33 12690
0.00 0.00 -0.10 -3.70 10.43 -0.43 0.39 0.34 12697
0.00 0.00 -2.14 -8.21 12.78 -0.47 0.26 0.32 12704
0.00 0.00 -2.57 -5.37 9.88 -0.30 -0.08 0.23 12711
0.00 0.00 -1.42 -5.16 6.42 -0.33 -0.08 0.20 12719
0.00 0.00 -1.36 -8.27 9.06 -0.29 -0.33 0.15 12726
0.00 0.00 -2.38 -9.00 8.92 -0.15 -0.54 0.00 12733
0.00 0.00 -1.54 -7.10 8.53 0.10 -0.53 -0.06 12740
0.00 0.00 -1.33 -8.68 6.69 0.21 -0.51 -0.15 12747
0.00 0.00 -1.08 -11.79 7.81 0.40 -0.56 -0.25 12754
0.00 0.00 -0.83 -9.57 4.82 0.64 -0.55 -0.37 12762
0.00 0.00 -2.44 -10.60 5.76 0.97 -0.76 -0.45 12769
0.00 -0.00 -1.80 -12.32 5.83 1.28 -0.95 -0.54 12776
0.00 0.00 0.10 -20.61 16.38 1.59 -1.94 -0.65 12783
0.00 0.00 -0.06 -16.64 24.32 0.54 -2.12 -0.61 12790
0.00 0.00 -2.94 -0.77 4.83 -0.16 0.17 0.11 12797
-0.00 0.01 0.81 -2.87 9.24 -0.33 0.14 0.09 12805
-0.00 0.02 -0.23 -2.83 9.23 -0.35 0.12 0.06 12812
-0.00 0.05 0.48 -0.23 10.45 -0.27 0.06 0.05 12819
-0.01 0.08 0.73 -0.17 10.61 -0.25 0.07 0.02 12826
-0.01 0.11 0.61 -0.46 10.25 -0.19 0.05 -0.03 12833
0.00 0.18 0.35 -0.58 10.16 -0.14 0.05 -0.05 12840
0.00 0.20 0.19 -0.85 9.95 -0.11 0.06 -0.05 12848
0.01 0.24 0.29 -0.92 10.02 -0.07 0.07 -0.05 12855
0.02 0.26 0.34 -0.85 9.85 -0.05 0.07 -0.04 12862
0.01 0.26 0.43 -0.83 9.76 -0.04 0.07 -0.04 12869
0.01 0.23 0.39 -0.79 9.88 -0.03 0.06 -0.04 12876
0.00 0.22 0.43 -0.81 9.86 -0.02 0.06 -0.04 12883
0.01 0.21 0.46 -0.85 9.83 -0.02 0.06 -0.05 12891
0.00 0.20 0.47 -0.83 9.76 -0.01 0.05 -0.05 12898
0.03 0.22 0.50 -0.82 9.83 -0.01 0.04 -0.05 12905
0.02 0.21 0.44 -0.85 9.82 -0.01 0.03 -0.06 12912
0.04 0.20 0.41 -0.84 9.82 -0.01 0.03 -0.06 12919
0.01 0.23 0.41 -0.84 9.86 -0.01 0.03 -0.06 12926
0.03 0.23 0.43 -0.81 9.80 -0.02 0.00 -0.06 12934
0.04 0.23 0.41 -0.83 10.42 -0.01 0.03 -0.06 12941
0.04 0.22 0.39 -0.83 9.77 -0.02 0.03 -0.06 12948
0.04 0.23 0.41 -0.83 9.75 -0.02 0.02 -0.06 12955
0.04 0.22 0.39 -0.81 9.80 -0.01 0.02 -0.06 12962
0.02 0.23 0.38 -0.84 9.81 -0.01 0.02 -0.06 12969
0.04 0.23 0.39 -0.83 9.82 -0.02 0.02 -0.06 12977
0.05 0.23 0.39 -0.80 9.86 -0.02 0.01 -0.06 12984
0.04 0.21 0.43 -0.80 9.73 -0.02 0.01 -0.06 12991
0.05 0.21 0.39 -0.80 9.80 -0.02 0.02 -0.07 12998
0.06 0.22 0.42 -0.82 9.78 -0.02 0.02 -0.06 13005
0.05 0.23 0.36 -0.80 9.73 -0.01 0.03 -0.07 13012
0.07 0.23 0.35 -0.82 9.82 -0.01 0.03 -0.07 13020
0.07 0.22 0.35 -0.81 9.84 -0.01 0.04 -0.06 13027
0.07 0.21 0.34 -0.82 9.80 -0.01 0.04 -0.07 13034
0.04 0.21 0.34 -0.82 9.82 -0.00 0.04 -0.07 13041
0.04 0.20 0.37 -0.81 9.80 -0.00 0.04 -0.07 13048
0.05 0.21 0.38 -0.81 9.78 0.00 0.04 -0.07 13056
0.06 0.22 0.40 -0.80 9.79 0.00 0.04 -0.06 13063
0.08 0.21 0.39 -0.81 10.42 0.00 0.04 -0.06 13070
0.07 0.22 0.38 -0.81 9.83 0.00 0.04 -0.06 13077
0.06 0.22 0.38 -0.83 9.79 0.01 0.05 -0.07 13084
0.06 0.22 0.40 -0.82 9.80 0.01 0.06 -0.07 13091
0.06 0.23 0.36 -0.82 9.79 0.01 0.05 -0.07 13099
0.07 0.23 0.37 -0.85 9.80 0.01 0.06 -0.07 13106
0.07 0.22 0.37 -0.83 9.81 0.01 0.06 -0.07 13113
0.06 0.24 0.38 -0.87 9.80 0.02 0.06 -0.07 13120
0.06 0.20 0.45 -0.84 9.80 0.01 0.06 -0.07 13127
0.06 0.19 0.42 -0.82 9.79 0.01 0.06 -0.07 13134
0.08 0.16 0.40 -0.85 9.81 0.01 0.07 -0.06 13142
0.07 0.18 0.43 -0.84 9.81 0.01 0.07 -0.07 13149
0.08 0.11 0.40 -0.86 9.82 0.02 0.10 -0.07 13156
0.07 0.12 0.40 -0.86 9.80 0.02 0.07 -0.07 13163
0.08 0.10 0.44 -0.85 9.81 0.02 0.07 -0.07 13170
0.07 0.08 0.42 -0.86 9.77 0.02 0.07 -0.03 13177
0.08 0.09 0.41 -0.84 9.81 0.01 0.07 -0.07 13185
0.09 0.07 0.43 -0.89 9.81 0.02 0.07 -0.07 13192
0.10 0.04 0.43 -0.85 10.41 0.01 0.07 -0.07 13199
0.09 0.03 0.42 -0.85 9.80 0.01 0.06 -0.06 13206
0.09 0.06 0.42 -0.88 9.78 0.01 0.07 -0.07 13213
0.09 0.05 0.43 -0.87 9.80 0.00 0.06 -0.07 13220
0.11 0.03 0.45 -0.88 9.80 0.01 0.06 -0.07 13228
0.12 0.02 0.44 -0.89 9.81 0.01 0.05 -0.07 13235
0.11 0.02 0.44 -0.85 9.77 -0.00 0.05 -0.07 13242
0.11 0.02 0.43 -0.89 9.80 0.00 0.05 -0.07 13249
0.10 0.04 0.45 -0.81 9.72 -0.00 0.05 -0.07 13256
0.10 0.05 0.46 -0.87 9.79 -0.00 0.04 -0.07 13263
0.10 0.07 0.43 -0.85 9.83 0.00 0.04 -0.07 13271
0.13 0.04 0.39 -0.86 9.82 -0.00 0.04 -0.07 13278
0.12 0.04 0.41 -0.89 9.82 0.00 0.04 -0.07 13285
0.13 0.01 0.44 -0.88 9.82 -0.00 0.04 -0.07 13292
0.12 0.02 0.41 -0.89 9.77 -0.03 0.03 -0.07 13299
0.12 0.02 0.45 -0.88 9.81 -0.00 0.03 -0.07 13306
0.13 0.02 0.43 -0.88 9.79 -0.00 0.03 -0.07 13314
0.15 0.00 0.45 -0.85 9.77 -0.01 0.03 -0.07 13321
0.14 0.01 0.43 -0.84 9.80 -0.00 0.02 -0.07 13328
0.15 -0.00 0.47 -0.88 9.79 -0.00 0.02 -0.07 13335
0.13 0.01 0.42 -0.88 9.80 -0.00 0.03 -0.07 13342
0.15 0.00 0.41 -0.88 9.78 -0.00 0.03 -0.07 13349
0.16 0.01 0.38 -0.86 9.81 -0.00 0.04 -0.07 13357
0.15 0.01 0.42 -0.87 10.42 -0.00 0.04 -0.07 13364
0.16 -0.00 0.45 -0.90 9.80 0.00 0.04 -0.08 13371
0.16 -0.00 0.38 -0.87 9.80 0.01 0.04 -0.07 13378
0.16 0.01 0.38 -0.85 9.78 0.00 0.05 -0.07 13385
0.17 0.01 0.42 -0.88 9.81 0.00 0.04 -0.07 13392
0.20 0.00 0.41 -0.88 9.81 0.00 0.05 -0.07 13400
0.20 -0.00 0.40 -0.91 9.78 0.01 0.05 -0.07 13407
0.20 -0.01 0.39 -0.88 9.77 0.01 0.05 -0.07 13414
0.21 -0.01 0.44 -0.89 9.81 0.01 0.06 -0.07 13421
0.20 -0.00 0.42 -0.84 9.83 0.01 0.06 -0.07 13428
0.21 0.01 0.45 -0.89 9.78 0.02 0.06 -0.07 13435
0.24 0.00 0.43 -0.90 9.82 0.02 0.06 -0.07 13443
0.24 -0.01 0.47 -0.87 9.77 0.02 0.10 -0.07 13450
0.26 -0.01 0.40 -0.92 9.20 0.03 0.07 -0.07 13457
0.28 -0.02 0.43 -0.88 9.80 0.04 0.08 -0.07 13464
0.30 -0.01 0.39 -0.93 9.80 0.04 0.08 -0.07 13471
0.32 0.00 0.47 -0.97 9.81 0.05 0.09 -0.07 13478
0.35 -0.02 0.46 -0.90 9.81 0.06 0.10 -0.07 13486
0.35 -0.01 0.43 -0.92 9.84 0.07 0.11 -0.07 13493
0.36 -0.02 0.50 -0.91 9.83 0.09 0.12 -0.07 13500
0.35 -0.02 0.49 -0.95 9.83 0.11 0.14 -0.08 13507
0.35 -0.02 0.54 -0.97 9.83 0.13 0.16 -0.08 13514
0.33 -0.01 0.43 -0.92 9.86 0.16 0.18 -0.08 13521
0.35 -0.01 0.46 -0.91 9.93 0.19 0.20 -0.08 13529
0.34 -0.01 0.52 -0.96 9.93 0.23 0.23 -0.08 13536
0.34 -0.02 0.56 -0.97 10.10 0.27 0.25 -0.08 13543
0.35 -0.01 0.50 -0.99 10.13 0.34 0.27 -0.08 13550
0.36 -0.02 0.55 -1.09 10.33 0.48 0.29 -0.10 13558
0.36 -0.02 0.70 -1.09 10.72 0.60 0.29 -0.09 13564
0.37 -0.02 0.73 -1.20 10.87 0.77 0.27 -0.11 13573
0.37 -0.02 0.90 -1.29 10.97 0.91 0.26 -0.13 13580
0.37 -0.03 0.65 -1.27 11.57 1.06 0.21 -0.15 13587
0.36 -0.02 0.69 -1.43 11.13 1.15 0.16 -0.16 13594
0.36 -0.02 0.60 -1.51 10.96 1.21 0.11 -0.16 13601
0.35 -0.02 0.60 -1.51 11.26 1.29 0.06 -0.15 13608
0.34 -0.02 0.44 -1.72 11.57 1.35 -0.02 -0.14 13616
0.33 -0.02 0.68 -1.76 11.16 1.43 -0.01 -0.14 13623
0.31 -0.02 0.61 -1.85 10.92 1.52 -0.02 -0.13 13630
0.25 -0.02 0.67 -2.02 10.85 1.57 -0.01 -0.12 13637
0.22 -0.01 0.63 -2.06 10.70 1.63 -0.02 -0.12 13644
0.22 -0.01 0.98 -2.55 10.49 1.68 -0.03 -0.12 13651
0.19 -0.02 0.45 -2.25 10.79 1.71 -0.04 -0.10 13658
0.19 -0.02 0.54 -2.47 10.93 1.79 0.02 -0.11 13665
0.12 -0.01 0.48 -2.66 10.63 1.85 -0.01 -0.09 13672
0.12 -0.01 0.73 -2.91 10.62 1.89 -0.01 -0.08 13679
0.05 -0.00 0.85 -3.04 10.62 1.93 -0.01 -0.09 13686
0.08 -0.01 0.57 -3.16 10.56 1.96 -0.03 -0.10 13693
0.07 -0.01 0.78 -3.28 10.66 1.99 -0.07 -0.09 13701
0.02 -0.00 0.84 -3.69 10.87 2.02 -0.08 -0.10 13708
0.03 -0.00 1.01 -4.02 11.11 2.04 -0.07 -0.12 13715
0.04 -0.00 1.14 -4.18 11.30 2.06 -0.09 -0.15 13722
0.02 -0.00 1.19 -4.40 11.41 2.06 -0.07 -0.18 13729
0.04 -0.00 1.20 -4.59 11.78 2.05 -0.07 -0.20 13736
0.01 -0.00 1.20 -4.66 11.31 2.04 -0.06 -0.23 13744
0.02 -0.00 1.35 -4.72 10.87 2.03 -0.06 -0.25 13751
0.01 -0.00 1.26 -4.71 10.72 2.00 -0.03 -0.28 13758
0.02 -0.00 1.01 -4.72 10.44 1.98 -0.03 -0.31 13765
0.01 -0.00 0.75 -4.74 10.59 1.93 -0.04 -0.32 13772
0.01 -0.00 0.60 -4.80 10.77 1.89 -0.06 -0.32 13779
0.00 -0.00 0.58 -4.88 11.30 1.82 -0.10 -0.32 13787
0.00 0.00 0.60 -5.11 12.39 1.76 -0.15 -0.32 13794
0.00 0.00 0.77 -5.46 12.58 1.74 -0.23 -0.34 13801
0.00 0.00 0.74 -5.49 12.16 1.73 -0.35 -0.35 13808
0.01 -0.00 0.77 -4.58 11.07 1.70 -0.45 -0.37 13815
0.01 -0.00 0.92 -3.95 9.83 1.65 -0.46 -0.37 13822
0.00 -0.00 1.16 -2.85 8.39 1.54 -0.43 -0.38 13830
0.00 0.00 1.37 -0.75 6.74 1.40 -0.36 -0.39 13837
0.00 0.00 1.73 -0.62 5.98 1.17 -0.32 -0.42 13844
0.00 0.00 1.94 1.54 6.36 0.94 -0.33 -0.49 13851
0.00 -0.00 2.14 1.64 6.41 0.71 -0.32 -0.54 13858
0.00 0.00 1.81 7.16 8.31 0.50 -0.23 -0.63 13865
0.00 0.00 1.68 3.99 7.26 0.21 -0.14 -0.74 13873
0.00 0.00 1.08 4.21 9.25 -0.04 -0.12 -0.82 13880
0.00 0.00 0.83 2.66 8.90 -0.26 -0.15 -0.88 13887
0.00 0.00 0.75 2.83 9.45 -0.42 -0.17 -0.89 13894
0.00 -0.00 0.87 3.54 8.66 -0.59 -0.22 -0.87 13901
0.00 0.00 1.13 3.60 7.75 -0.66 -0.28 -0.83 13908
0.00 0.00 1.36 3.42 7.54 -0.75 -0.33 -0.77 13916
0.00 0.00 1.69 3.27 7.75 -0.87 -0.34 -0.68 13923
0.00 0.00 1.89 3.23 8.01 -0.97 -0.33 -0.59 13930
0.00 0.00 2.03 3.00 8.15 -1.08 -0.31 -0.52 13937
0.00 0.00 2.15 2.69 8.21 -1.18 -0.25 -0.43 13944
0.00 0.00 2.21 2.35 8.16 -1.29 -0.19 -0.36 13952
0.00 0.00 2.14 1.89 8.14 -1.37 -0.09 -0.28 13959
0.00 0.00 2.01 1.47 8.26 -1.42 -0.01 -0.21 13966
0.00 0.00 2.04 1.03 8.67 -1.45 0.07 -0.14 13973
0.00 0.00 1.98 0.68 9.21 -1.48 0.17 -0.06 13980
0.00 0.00 1.98 0.49 9.70 -1.52 0.26 0.01 13987
0.00 0.00 2.02 0.32 10.05 -1.58 0.35 0.08 13995
0.00 0.00 2.04 0.15 10.35 -1.67 0.46 0.16 14002
0.00 0.00 1.81 -0.17 10.68 -1.79 0.49 0.22 14009
0.00 0.00 0.86 -3.14 11.55 -1.90 0.54 0.29 14016
0.00 0.00 1.24 -1.12 15.15 -2.01 0.59 0.30 14023
0.00 0.00 -0.20 -2.93 10.05 -2.17 0.51 0.33 14030
0.00 0.00 -0.86 -0.34 19.39 -2.10 0.62 0.35 14038
0.00 0.00 -1.43 -5.12 10.72 -2.13 0.38 0.35 14045
0.00 0.00 -0.50 -6.22 13.05 -2.04 0.45 0.38 14052
0.00 0.00 0.44 -3.43 10.14 -2.00 0.43 0.39 14059
0.00 0.00 -0.08 -4.83 10.92 -1.86 0.43 0.37 14066
0.00 0.00 -0.47 -4.25 12.03 -1.78 0.45 0.35 14073
0.00 0.00 0.41 -4.71 10.11 -1.74 0.40 0.34 14081
0.00 0.00 1.77 -3.83 14.58 -1.67 0.55 0.32 14088
0.00 0.00 -0.49 -4.14 10.35 -1.60 0.42 0.30 14095
0.00 0.00 -0.13 -5.22 11.40 -1.53 0.50 0.31 14102
0.00 0.00 0.50 -3.88 12.25 -1.56 0.51 0.33 14109
0.00 0.00 0.12 -4.18 12.56 -1.51 0.49 0.34 14116
0.00 0.00 0.42 -3.74 11.75 -1.50 0.46 0.37 14124
0.00 0.00 0.44 -4.17 10.93 -1.49 0.42 0.40 14131
0.00 0.00 0.46 -4.47 11.21 -1.47 0.36 0.42 14138
0.00 0.00 0.41 -4.54 11.24 -1.41 0.28 0.45 14145
0.00 0.00 0.54 -4.49 10.96 -1.38 0.23 0.46 14152
0.00 0.00 0.68 -4.43 10.63 -1.32 0.19 0.46 14159
0.00 0.00 0.73 -4.42 10.32 -1.26 0.21 0.46 14167
0.00 0.00 0.52 -4.37 9.96 -1.17 0.25 0.45 14174
0.00 0.00 0.10 -4.28 9.82 -1.06 0.28 0.43 14181
0.00 0.00 -0.19 -4.48 10.07 -0.95 0.27 0.40 14188
0.00 0.00 -0.45 -4.67 10.33 -0.83 0.23 0.36 14195
0.00 0.00 -0.73 -4.88 10.64 -0.74 0.14 0.29 14202
0.00 0.00 -0.64 -5.11 11.15 -0.69 0.06 0.22 14210
0.00 0.00 -0.23 -5.17 11.36 -0.68 0.01 0.14 14217
0.00 0.00 0.58 -5.24 11.14 -0.71 0.01 0.05 14224
0.00 0.00 0.15 -5.14 11.22 -0.76 0.05 -0.00 14231
0.00 0.00 0.41 -5.01 10.87 -0.82 0.14 -0.06 14238
0.00 0.00 0.46 -5.06 10.53 -0.87 0.21 -0.11 14245
0.00 0.00 0.48 -5.13 10.17 -0.90 0.29 -0.15 14253
0.00 0.00 0.52 -5.24 9.82 -0.89 0.35 -0.19 14260
0.00 0.00 0.41 -5.35 9.48 -0.86 0.42 -0.20 14267
0.00 -0.00 0.15 -5.37 8.83 -0.79 0.49 -0.19 14274
0.00 0.00 -0.11 -5.47 8.50 -0.70 0.58 -0.14 14281
0.00 0.00 -0.48 -5.60 8.59 -0.59 0.66 -0.08 14288
0.00 0.00 -0.96 -5.69 8.83 -0.49 0.67 -0.02 14296
0.00 0.00 -1.19 -5.66 9.18 -0.42 0.62 0.04 14303
0.00 0.00 -1.46 -5.57 9.44 -0.38 0.53 0.11 14310
0.00 0.00 -1.57 -5.58 9.82 -0.39 0.42 0.16 14317
0.00 0.00 -1.47 -5.54 9.91 -0.45 0.29 0.20 14324
0.00 0.00 -1.63 -6.77 10.16 -0.51 0.14 0.21 14331
0.00 0.00 -2.75 -8.96 12.55 -0.42 -0.18 0.17 14339
0.00 0.00 -2.39 -7.33 8.67 -0.25 -0.32 0.11 14346
0.00 0.00 -0.30 -7.21 5.71 -0.24 -0.25 0.08 14353
0.00 0.00 -1.94 -11.50 9.41 -0.08 -0.29 0.03 14360
0.00 0.00 -1.29 -9.51 6.64 0.25 -0.14 -0.02 14367
0.00 0.00 -1.66 -11.88 5.62 0.38 -0.13 -0.05 14374
0.00 0.00 -2.13 -12.09 5.75 0.73 -0.23 -0.09 14382
0.00 0.00 -3.72 -17.43 6.56 0.95 -0.36 -0.09 14389
0.00 0.02 -3.32 -17.03 3.22 1.28 -0.54 -0.09 14396
-0.00 0.00 -4.15 -18.35 7.33 1.66 -1.04 -0.15 14403
-0.00 0.01 -0.44 0.35 29.25 0.92 -2.27 -0.23 14410
-0.00 0.03 -0.60 -3.82 7.45 -0.25 0.06 0.13 14417
-0.01 0.06 0.93 -2.11 9.81 -0.35 -0.00 0.05 14425
-0.01 0.07 0.05 -1.08 10.49 -0.31 -0.03 -0.03 14432
0.02 0.16 0.43 -0.70 9.89 -0.19 -0.05 -0.03 14439
-0.01 0.20 0.36 -0.40 10.30 -0.14 -0.00 -0.04 14446
-0.01 0.21 0.32 -0.89 9.98 -0.11 -0.02 -0.06 14453
-0.01 0.25 0.15 -0.96 9.98 -0.06 0.01 -0.06 14460
0.01 0.22 0.15 -0.87 9.97 -0.05 0.03 -0.05 14468
0.03 0.25 0.22 -0.95 9.92 -0.03 0.05 -0.05 14475
0.03 0.25 0.30 -0.96 9.71 -0.02 0.05 -0.05 14482
0.03 0.27 0.27 -0.98 9.77 -0.02 0.05 -0.05 14489
0.03 0.24 0.32 -0.89 9.77 -0.02 0.06 -0.05 14496
0.03 0.27 0.34 -0.92 9.83 -0.01 0.06 -0.06 14503
0.04 0.27 0.31 -0.93 9.91 -0.01 0.06 -0.06 14511
0.03 0.30 0.31 -0.94 9.78 -0.01 0.06 -0.06 14518
0.03 0.31 0.35 -0.91 9.82 -0.00 0.06 -0.05 14525
0.02 0.29 0.34 -0.89 9.84 -0.01 0.07 -0.05 14532
0.02 0.27 0.34 -0.91 9.82 -0.01 0.06 -0.06 14539
0.01 0.29 0.36 -0.91 9.81 -0.01 0.06 -0.06 14546
0.02 0.28 0.37 -0.95 9.81 -0.01 0.05 -0.06 14554
0.03 0.29 0.33 -0.88 9.81 -0.01 0.05 -0.06 14561
0.04 0.30 0.30 -0.90 9.76 -0.01 0.05 -0.06 14568
0.03 0.27 0.36 -0.90 9.81 -0.01 0.05 -0.06 14575
0.01 0.27 0.37 -0.90 9.80 -0.01 0.05 -0.05 14582
-0.00 0.27 0.31 -0.89 9.79 -0.01 0.05 -0.06 14589
0.00 0.29 0.35 -0.91 9.79 -0.02 0.05 -0.05 14597
0.01 0.29 0.36 -0.89 9.78 -0.02 0.05 -0.06 14604
0.02 0.26 0.33 -0.87 9.79 -0.01 0.05 -0.05 14611
0.02 0.25 0.37 -0.89 9.79 -0.01 0.06 -0.06 14618
0.01 0.25 0.36 -0.90 9.81 -0.01 0.06 -0.05 14625
0.02 0.25 0.36 -0.91 9.82 -0.01 0.06 -0.06 14632
0.02 0.26 0.36 -0.87 9.82 -0.00 0.06 -0.06 14640
0.03 0.26 0.35 -0.88 9.83 -0.00 0.06 -0.06 14647
0.03 0.28 0.31 -0.90 9.78 0.00 0.06 -0.06 14654
0.02 0.29 0.32 -0.89 9.79 0.00 0.06 -0.06 14661
0.01 0.25 0.32 -0.88 9.79 0.00 0.06 -0.06 14668
0.00 0.24 0.29 -0.89 9.78 0.00 0.06 -0.06 14675
0.02 0.25 0.34 -0.90 9.80 0.01 0.06 -0.06 14683
0.05 0.24 0.37 -0.88 9.81 0.01 0.06 -0.06 14690
0.05 0.21 0.37 -0.90 9.81 0.01 0.06 -0.06 14697
0.05 0.18 0.37 -0.90 9.81 0.02 0.07 -0.06 14704
0.05 0.14 0.34 -0.90 9.21 0.02 0.07 -0.06 14711
0.04 0.14 0.36 -0.92 9.79 0.02 0.06 -0.07 14718
0.05 0.14 0.39 -0.91 9.81 0.02 0.07 -0.06 14726
0.07 0.13 0.36 -0.91 9.80 0.03 0.07 -0.06 14733
0.08 0.09 0.35 -0.91 9.73 0.02 0.06 -0.06 14740
0.10 0.05 0.36 -0.91 9.81 0.02 0.07 -0.06 14747
0.10 0.06 0.38 -0.92 9.82 0.02 0.07 -0.07 14754
0.13 0.08 0.36 -0.95 9.82 0.02 0.07 -0.06 14761
0.14 0.08 0.36 -0.89 9.79 0.02 0.07 -0.06 14769
0.16 0.03 0.41 -0.93 9.79 0.02 0.07 -0.07 14776
0.16 0.01 0.36 -0.93 9.79 0.02 0.07 -0.06 14783
0.16 0.00 0.39 -0.95 9.76 0.02 0.08 -0.06 14790
0.15 0.00 0.39 -0.95 9.75 0.02 0.07 -0.07 14797
0.16 -0.00 0.42 -0.95 9.77 0.01 0.07 -0.06 14804
0.17 0.03 0.40 -0.93 9.79 0.01 0.07 -0.07 14812
0.18 0.00 0.39 -0.95 9.78 0.00 0.07 -0.07 14819
0.17 0.01 0.38 -0.95 9.77 -0.00 0.06 -0.06 14826
0.17 0.01 0.41 -0.97 9.75 0.00 0.06 -0.06 14833
0.16 0.02 0.42 -0.91 9.80 -0.00 0.07 -0.07 14840
0.17 0.03 0.42 -0.96 9.78 -0.00 0.07 -0.06 14848
0.19 0.01 0.41 -0.93 9.71 -0.00 0.07 -0.06 14855
0.18 0.00 0.40 -0.93 9.80 0.00 0.07 -0.06 14862
0.17 0.01 0.41 -0.92 9.76 0.00 0.06 -0.06 14869
0.16 0.01 0.45 -0.94 9.80 0.00 0.06 -0.06 14876
0.16 0.01 0.42 -0.95 9.80 0.00 0.06 -0.06 14883
0.15 0.01 0.45 -0.95 9.79 0.00 0.06 -0.06 14891
0.16 0.00 0.46 -0.98 9.79 0.00 0.07 -0.06 14898
0.16 0.00 0.41 -0.95 9.78 -0.00 0.07 -0.06 14905
0.15 -0.01 0.42 -0.95 9.75 0.00 0.07 -0.06 14912
0.15 0.00 0.43 -0.96 9.76 -0.00 0.06 -0.06 14919
0.16 0.00 0.43 -0.94 9.81 -0.00 0.06 -0.06 14926
0.17 0.02 0.41 -0.96 9.80 0.00 0.06 -0.06 14934
0.19 0.01 0.43 -0.96 9.81 0.03 0.07 -0.06 14941
0.19 0.01 0.43 -0.95 9.77 0.00 0.06 -0.06 14948
0.20 -0.01 0.42 -0.95 9.80 -0.00 0.06 -0.06 14955
0.19 0.00 0.42 -0.94 9.80 0.00 0.06 -0.06 14962
0.20 -0.01 0.44 -0.94 10.39 0.00 0.06 -0.06 14969
0.21 0.01 0.46 -0.95 9.81 0.01 0.07 -0.06 14977
0.22 -0.00 0.43 -0.99 9.78 0.01 0.07 -0.06 14984
0.24 -0.01 0.45 -0.99 9.81 0.01 0.07 -0.06 14991
0.23 -0.02 0.45 -0.99 9.78 0.02 0.07 -0.06 14998
0.23 -0.00 0.45 -0.91 9.81 0.02 0.07 -0.06 15005
0.25 -0.01 0.47 -0.98 9.80 0.02 0.08 -0.06 15012
0.25 -0.01 0.47 -0.95 9.82 0.02 0.08 -0.06 15020
0.22 -0.01 0.47 -0.97 9.78 0.03 0.08 -0.06 15027
0.21 -0.00 0.47 -1.00 9.81 0.03 0.08 -0.06 15034
0.21 -0.02 0.47 -0.97 9.80 0.03 0.09 -0.06 15041
0.20 -0.02 0.45 -0.94 9.80 0.04 0.09 -0.07 15048
0.23 -0.01 0.47 -1.00 9.79 0.04 0.10 -0.07 15055
0.23 -0.00 0.48 -1.02 9.78 0.04 0.10 -0.06 15063
0.24 -0.01 0.49 -1.00 9.80 0.05 0.10 -0.06 15070
0.25 -0.02 0.48 -0.95 9.82 0.05 0.11 -0.06 15077
0.25 -0.02 0.51 -0.97 9.80 0.06 0.12 -0.06 15084
0.26 -0.02 0.51 -1.01 9.80 0.07 0.12 -0.06 15091
0.28 -0.01 0.48 -1.03 9.81 0.08 0.13 -0.06 15098
0.31 -0.02 0.59 -0.98 9.78 0.09 0.13 -0.06 15106
0.29 -0.02 0.51 -1.01 9.81 0.10 0.14 -0.06 15113
0.30 -0.03 0.53 -1.03 9.82 0.12 0.15 -0.06 15120
0.30 -0.02 0.56 -1.00 9.81 0.13 0.15 -0.06 15127
0.32 -0.02 0.50 -1.04 9.86 0.16 0.17 -0.06 15134
0.36 -0.01 0.59 -1.09 9.82 0.19 0.18 -0.07 15141
0.36 -0.02 0.55 -1.08 9.82 0.21 0.19 -0.07 15149
0.36 -0.02 0.57 -1.09 9.86 0.24 0.20 -0.07 15156
0.39 -0.03 0.55 -1.15 9.85 0.27 0.20 -0.07 15163
0.39 -0.02 0.55 -1.11 9.91 0.32 0.21 -0.07 15170
0.42 -0.02 0.63 -1.15 9.90 0.37 0.22 -0.08 15177
0.43 -0.01 0.68 -1.22 9.85 0.40 0.23 -0.08 15184
0.43 -0.02 0.68 -1.29 10.04 0.45 0.24 -0.08 15192
0.43 -0.02 0.74 -1.30 9.98 0.49 0.24 -0.08 15199
0.45 -0.04 0.69 -1.30 10.00 0.54 0.25 -0.09 15206
0.44 -0.02 0.78 -1.39 9.94 0.56 0.24 -0.10 15213
0.44 -0.02 0.67 -1.48 10.08 0.58 0.23 -0.10 15221
0.46 -0.02 0.73 -1.51 10.12 0.61 0.21 -0.10 15228
0.47 -0.03 0.79 -1.54 10.25 0.64 0.18 -0.11 15236
0.49 -0.03 0.81 -1.65 10.44 0.67 0.15 -0.11 15243
0.48 -0.03 0.79 -1.74 10.72 0.73 0.11 -0.11 15250
0.46 -0.02 0.82 -1.70 10.56 0.79 0.08 -0.11 15257
0.44 -0.01 0.84 -1.76 10.66 0.87 0.05 -0.12 15264
0.42 -0.03 0.87 -1.88 10.72 0.94 0.02 -0.13 15271
0.42 -0.03 0.83 -1.90 10.30 0.99 -0.01 -0.13 15279
0.40 -0.02 0.61 -2.04 10.56 1.03 -0.02 -0.13 15285
0.37 -0.02 0.65 -2.05 10.63 1.07 -0.03 -0.12 15292
0.37 -0.02 0.70 -2.16 10.26 1.12 -0.04 -0.12 15300
0.33 -0.02 0.82 -2.30 10.56 1.19 -0.05 -0.12 15307
0.33 -0.02 0.89 -2.43 10.28 1.24 -0.13 -0.12 15314
0.29 -0.02 0.88 -2.50 10.76 1.31 -0.04 -0.12 15322
0.25 -0.03 0.59 -2.48 10.22 1.43 -0.07 -0.13 15328
0.22 -0.02 0.76 -2.67 10.28 1.46 -0.06 -0.12 15336
0.20 -0.02 0.62 -2.68 10.43 1.52 -0.02 -0.12 15342
0.18 -0.01 0.71 -2.80 10.40 1.58 -0.01 -0.11 15350
0.15 -0.02 0.74 -2.98 10.91 1.64 0.00 -0.11 15356
0.11 -0.01 0.62 -3.14 10.34 1.70 0.03 -0.10 15364
0.09 -0.01 0.74 -3.31 10.23 1.75 0.03 -0.11 15371
0.07 -0.01 0.69 -3.47 10.22 1.80 0.04 -0.11 15378
0.06 -0.01 0.87 -3.60 10.30 1.84 0.05 -0.12 15385
0.06 -0.01 0.70 -3.78 10.49 1.88 0.07 -0.12 15392
0.09 -0.01 0.83 -3.92 10.21 1.92 0.08 -0.12 15399
0.04 -0.00 0.99 -4.19 10.37 1.94 0.11 -0.13 15407
0.05 -0.01 0.92 -4.35 10.32 1.96 0.11 -0.14 15414
0.05 -0.00 1.20 -4.51 10.56 1.98 0.10 -0.15 15421
0.04 -0.00 1.09 -4.80 10.73 2.00 0.09 -0.17 15428
0.05 -0.01 1.31 -4.90 10.70 2.01 0.07 -0.19 15435
0.06 -0.01 1.31 -5.11 10.74 2.03 0.05 -0.21 15442
0.06 -0.01 1.33 -5.27 10.61 2.03 0.04 -0.24 15450
0.06 -0.01 1.38 -5.37 10.64 2.03 0.03 -0.27 15457
0.06 -0.01 1.40 -5.42 10.76 2.03 0.03 -0.29 15464
0.06 -0.00 1.31 -5.52 10.70 2.02 0.05 -0.31 15471
0.07 -0.01 1.37 -5.66 11.10 2.00 0.08 -0.33 15478
0.06 -0.01 1.23 -6.00 12.12 1.94 0.06 -0.35 15485
0.05 -0.00 1.38 -5.95 12.32 1.81 0.10 -0.36 15493
0.04 -0.00 1.36 -5.85 13.32 1.79 0.13 -0.39 15500
0.04 -0.00 0.66 -6.02 12.77 1.73 0.08 -0.41 15507
0.02 -0.00 0.31 -4.70 11.87 1.67 0.05 -0.43 15514
0.01 -0.00 0.26 -3.74 9.83 1.58 0.07 -0.41 15521
0.00 -0.00 0.08 -1.49 9.55 1.46 0.09 -0.40 15528
0.00 -0.00 0.49 -2.45 8.29 1.31 0.06 -0.41 15536
0.00 -0.00 0.79 -2.97 6.55 1.20 -0.01 -0.43 15543
0.02 -0.00 1.25 -1.70 5.52 1.13 -0.10 -0.45 15550
-0.00 0.00 1.09 3.66 6.82 0.98 -0.12 -0.59 15557
0.00 0.00 0.44 6.10 6.53 0.55 -0.19 -0.80 15564
0.00 0.00 -1.04 5.98 8.57 0.04 -0.20 -1.17 15571
0.00 0.00 -0.87 3.87 8.63 -0.31 -0.15 -1.48 15579
0.00 0.00 -1.20 3.32 10.17 -0.47 -0.12 -1.76 15586
0.00 0.00 -1.25 3.53 9.55 -0.69 -0.05 -2.00 15593
0.00 0.00 -0.88 3.84 8.27 -0.85 -0.08 -2.16 15600
0.00 -0.00 -0.54 3.70 7.71 -0.96 -0.18 -2.26 15607
0.00 0.00 -0.02 3.43 7.56 -1.10 -0.28 -2.30 15614
0.00 0.00 0.55 3.28 7.57 -1.26 -0.33 -2.29 15622
0.00 0.00 1.02 3.14 7.74 -1.36 -0.38 -2.23 15629
0.01 -0.00 1.59 2.73 7.84 -1.46 -0.41 -2.12 15636
0.01 -0.00 2.00 2.28 7.73 -1.54 -0.43 -1.96 15643
0.00 0.00 2.28 1.91 7.88 -1.61 -0.43 -1.78 15650
0.00 0.00 2.61 1.43 8.25 -1.67 -0.41 -1.54 15657
0.00 0.00 2.94 0.92 8.58 -1.73 -0.36 -1.28 15665
0.00 0.00 3.26 0.50 8.95 -1.80 -0.25 -1.04 15672
0.00 0.00 3.68 0.25 9.35 -1.87 -0.10 -0.77 15679
0.00 0.00 3.88 0.14 9.81 -1.96 0.04 -0.53 15686
0.00 0.00 3.88 -0.03 9.87 -2.05 0.22 -0.27 15693
0.00 0.00 3.73 -0.39 10.01 -2.13 0.36 -0.04 15700
0.00 0.00 3.49 -0.82 10.28 -2.19 0.50 0.16 15708
0.00 0.00 3.00 -1.44 10.50 -2.23 0.59 0.36 15715
0.00 0.00 2.62 -1.97 10.69 -2.24 0.65 0.56 15722
0.00 -0.00 2.20 -2.58 10.93 -2.25 0.67 0.69 15729
0.00 0.00 1.86 -3.02 11.33 -2.24 0.67 0.84 15736
0.00 0.00 1.69 -3.36 11.41 -2.24 0.65 0.96 15744
0.00 0.00 1.53 -3.74 11.25 -2.23 0.63 1.08 15751
0.00 0.00 1.36 -4.11 11.18 -2.19 0.63 1.17 15758
0.00 0.00 1.22 -4.45 10.94 -2.14 0.65 1.27 15765
0.00 0.00 1.04 -4.75 10.83 -2.08 0.67 1.34 15772
0.00 0.00 0.89 -4.94 10.74 -1.98 0.68 1.38 15779
0.00 0.00 0.69 -4.83 10.75 -1.87 0.70 1.40 15787
0.00 0.00 0.51 -4.70 10.80 -1.76 0.72 1.41 15794
0.00 0.00 0.29 -4.55 10.90 -1.64 0.75 1.40 15801
0.00 0.00 0.21 -4.41 11.02 -1.56 0.77 1.36 15808
0.00 0.00 0.02 -4.39 11.19 -1.46 0.80 1.31 15815
0.00 0.00 -0.16 -4.34 11.43 -1.39 0.84 1.24 15822
0.00 0.00 -0.44 -4.31 11.71 -1.35 0.87 1.16 15830
0.00 0.00 -0.72 -4.12 11.94 -1.32 0.89 1.09 15837
0.00 0.00 -1.61 -5.93 13.04 -1.33 0.89 0.99 15844
0.00 0.00 -2.22 -7.48 12.20 -1.39 0.81 0.81 15851
0.00 0.00 -3.33 -8.02 12.52 -1.41 0.59 0.65 15858
0.00 0.00 -2.37 -4.21 8.42 -1.35 0.41 0.50 15865
0.00 0.00 -1.54 -6.62 11.04 -1.32 0.36 0.38 15873
0.00 0.00 -0.00 -8.88 13.22 -1.25 0.30 0.25 15880
0.00 0.00 0.52 -7.41 10.70 -1.18 0.32 0.14 15887
0.00 -0.00 0.74 -7.74 13.93 -1.09 0.36 0.10 15894
0.00 0.00 0.89 -7.10 8.52 -0.99 0.36 0.07 15901
0.00 0.00 0.21 -6.43 7.73 -0.95 0.35 0.06 15908
0.00 0.00 0.15 -6.24 9.05 -0.83 0.33 0.09 15916
0.00 0.00 0.04 -6.42 9.98 -0.73 0.30 0.13 15923
0.00 0.00 -0.09 -5.92 9.61 -0.61 0.27 0.18 15930
0.00 -0.00 -0.14 -5.36 10.11 -0.53 0.24 0.22 15937
0.00 0.00 -0.19 -4.90 8.94 -0.49 0.20 0.26 15944
0.00 0.00 0.00 -5.02 10.93 -0.48 0.14 0.29 15951
0.00 0.00 0.31 -4.81 9.83 -0.49 0.12 0.33 15959
0.00 0.00 0.75 -4.52 10.26 -0.53 0.16 0.37 15966
0.00 0.00 1.10 -4.58 10.93 -0.60 0.21 0.40 15973
0.00 0.00 0.57 -5.19 10.16 -0.57 0.21 0.42 15980
0.00 -0.00 -0.01 -5.13 10.41 -0.52 0.18 0.45 15987
0.00 0.00 -0.33 -3.89 9.30 -0.49 0.18 0.48 15994
0.00 0.00 0.35 -4.61 9.10 -0.51 0.20 0.51 16002
0.00 0.00 0.06 -5.11 9.62 -0.47 0.16 0.52 16009
0.00 -0.00 -0.16 -5.21 9.61 -0.39 0.14 0.50 16016
0.00 -0.00 -0.33 -5.43 8.76 -0.27 0.03 0.48 16023
0.00 0.00 0.56 -5.09 7.70 -0.22 0.06 0.47 16030
0.00 0.00 -0.54 -6.97 8.93 -0.15 -0.02 0.44 16037
0.00 0.00 -0.07 -6.05 8.54 -0.05 -0.04 0.39 16045
0.00 0.00 -0.50 -5.14 8.07 0.03 -0.06 0.34 16052
0.00 -0.00 -0.66 -6.48 8.51 0.08 -0.11 0.31 16059
0.00 -0.00 -1.17 -6.20 9.59 0.22 -0.18 0.25 16066
0.00 0.00 -0.97 -6.04 8.78 0.28 -0.13 0.23 16073
0.00 0.00 -0.57 -5.80 8.64 0.35 -0.16 0.19 16080
0.00 0.00 -1.77 -7.93 8.91 0.37 -0.28 0.11 16088
0.00 0.00 -0.99 -8.97 7.04 0.49 -0.33 0.04 16095
0.01 -0.00 -2.28 -8.33 6.56 0.68 -0.38 0.00 16102
0.00 0.00 -2.32 -14.52 6.61 0.83 -0.46 -0.05 16109
0.00 0.00 -2.90 -15.82 8.03 1.12 -0.79 -0.16 16116
-0.00 0.01 -1.99 -12.97 15.68 0.48 -1.54 -0.33 16124
-0.00 0.01 -1.38 -2.30 12.14 -0.11 -0.24 -0.01 16131
-0.00 0.02 0.93 -1.96 8.94 -0.30 0.06 0.03 16138
0.00 0.02 0.71 -0.74 9.56 -0.29 0.04 0.05 16145
0.03 0.05 -0.05 -0.67 10.53 -0.23 0.00 -0.00 16152
0.03 0.06 0.54 -0.27 10.06 -0.18 -0.00 -0.04 16159
0.04 0.17 0.56 -0.63 10.22 -0.14 -0.02 -0.07 16166
0.04 0.19 0.32 -0.89 10.06 -0.10 0.00 -0.08 16174
0.01 0.23 0.10 -0.75 10.15 -0.07 0.03 -0.08 16181
0.02 0.19 0.14 -0.84 10.04 -0.05 0.07 -0.07 16188
0.02 0.23 0.28 -0.84 9.86 -0.00 0.09 -0.06 16195
0.02 0.20 0.34 -0.80 9.81 -0.03 0.10 -0.06 16202
0.01 0.23 0.32 -0.80 9.82 -0.03 0.10 -0.06 16209
0.01 0.24 0.38 -0.82 9.87 -0.02 0.09 -0.05 16217
0.01 0.27 0.39 -0.80 9.81 -0.02 0.09 -0.05 16224
0.02 0.24 0.40 -0.87 9.84 -0.01 0.08 -0.05 16231
0.01 0.24 0.38 -0.85 9.77 -0.01 0.08 -0.05 16238
0.02 0.22 0.47 -0.82 9.85 -0.01 0.08 -0.05 16245
0.01 0.23 0.47 -0.80 9.84 -0.01 0.08 -0.06 16252
0.02 0.24 0.47 -0.85 9.77 -0.01 0.07 -0.07 16260
0.03 0.24 0.45 -0.81 9.76 -0.01 0.07 -0.07 16267
0.04 0.23 0.42 -0.83 9.85 -0.00 0.06 -0.07 16274
0.04 0.24 0.39 -0.82 9.79 -0.01 0.06 -0.07 16281
0.05 0.23 0.36 -0.80 9.79 -0.01 0.06 -0.07 16288
0.03 0.23 0.34 -0.80 9.89 -0.01 0.07 -0.10 16295
0.03 0.24 0.39 -0.80 9.81 -0.01 0.07 -0.07 16303
0.04 0.23 0.38 -0.79 9.86 -0.01 0.07 -0.06 16310
0.04 0.22 0.41 -0.82 10.42 -0.01 0.07 -0.07 16317
0.04 0.23 0.43 -0.82 9.82 -0.01 0.07 -0.06 16324
0.03 0.23 0.43 -0.79 9.83 -0.01 0.07 -0.06 16331
0.06 0.21 0.46 -0.83 9.79 -0.01 0.07 -0.06 16338
0.05 0.23 0.46 -0.80 9.81 -0.01 0.07 -0.07 16346
0.07 0.22 0.39 -0.81 9.82 -0.01 0.07 -0.07 16353
0.07 0.22 0.46 -0.82 9.79 -0.01 0.07 -0.07 16360
0.08 0.21 0.43 -0.82 9.80 -0.01 0.07 -0.07 16367
0.07 0.22 0.42 -0.79 9.81 -0.01 0.07 -0.07 16374
0.09 0.21 0.46 -0.79 9.81 -0.01 0.06 -0.07 16381
0.07 0.22 0.42 -0.79 9.84 -0.01 0.06 -0.07 16389
0.07 0.22 0.44 -0.82 9.82 0.00 0.06 -0.07 16396
0.07 0.22 0.45 -0.80 9.81 0.01 0.06 -0.06 16403
0.06 0.19 0.44 -0.80 9.82 0.00 0.06 -0.07 16410
0.05 0.21 0.46 -0.80 9.79 0.00 0.06 -0.07 16417
0.07 0.21 0.43 -0.81 9.81 0.01 0.06 -0.03 16424
0.09 0.21 0.48 -0.79 9.80 0.01 0.06 -0.07 16432
0.09 0.19 0.45 -0.80 9.79 0.01 0.06 -0.08 16439
0.08 0.20 0.44 -0.80 9.20 0.01 0.06 -0.07 16446
0.10 0.16 0.45 -0.81 9.81 0.01 0.06 -0.07 16453
0.09 0.17 0.43 -0.81 9.79 0.02 0.06 -0.07 16460
0.09 0.16 0.43 -0.82 9.81 0.02 0.06 -0.07 16467
0.10 0.13 0.47 -0.81 9.76 0.02 0.06 -0.07 16475
0.12 0.11 0.47 -0.84 9.81 0.02 0.06 -0.07 16482
0.10 0.08 0.45 -0.83 9.83 0.02 0.06 -0.07 16489
0.12 0.03 0.47 -0.83 9.80 0.02 0.07 -0.07 16496
0.14 0.03 0.44 -0.86 9.81 0.01 0.07 -0.07 16503
0.15 0.06 0.47 -0.83 9.81 0.02 0.07 -0.07 16510
0.18 0.02 0.46 -0.82 9.79 0.02 0.07 -0.07 16518
0.18 0.00 0.47 -0.82 9.79 0.01 0.07 -0.07 16525
0.17 -0.01 0.47 -0.85 9.81 0.02 0.07 -0.07 16532
0.17 -0.00 0.49 -0.83 9.81 0.02 0.07 -0.07 16539
0.17 0.01 0.52 -0.85 9.80 0.02 0.07 -0.07 16546
0.18 0.03 0.49 -0.86 9.80 0.02 0.07 -0.07 16553
0.18 0.01 0.51 -0.85 9.81 0.01 0.07 -0.08 16561
0.15 -0.00 0.47 -0.83 9.82 0.02 0.07 -0.07 16568
0.17 -0.01 0.46 -0.86 9.80 0.02 0.07 -0.07 16575
0.16 0.00 0.49 -0.86 9.82 0.01 0.07 -0.07 16582
0.17 0.01 0.51 -0.88 9.81 0.01 0.08 -0.07 16589
0.17 0.00 0.51 -0.86 9.80 0.01 0.07 -0.07 16596
0.21 -0.01 0.50 -0.86 9.80 0.02 0.07 -0.07 16604
0.21 0.00 0.54 -0.87 9.80 0.01 0.07 -0.06 16611
0.20 -0.01 0.51 -0.87 9.82 0.01 0.07 -0.07 16618
0.18 -0.01 0.50 -0.85 9.81 0.02 0.07 -0.07 16625
0.20 -0.00 0.52 -0.87 9.81 0.02 0.07 -0.07 16632
0.21 0.00 0.52 -0.87 9.80 0.02 0.07 -0.07 16640
0.21 -0.00 0.51 -0.86 9.81 0.02 0.07 -0.03 16647
0.21 -0.01 0.53 -0.85 9.81 0.01 0.07 -0.07 16654
0.20 -0.01 0.52 -0.88 9.82 0.02 0.06 -0.07 16661
0.19 -0.01 0.53 -0.92 9.20 0.02 0.06 -0.07 16668
0.20 -0.01 0.54 -0.86 9.79 0.02 0.07 -0.07 16675
0.22 -0.01 0.53 -0.86 9.78 0.01 0.07 -0.07 16683
0.26 -0.02 0.51 -0.86 9.80 0.01 0.07 -0.07 16690
0.27 -0.01 0.58 -0.87 9.77 0.01 0.07 -0.07 16697
0.28 -0.02 0.52 -0.88 9.79 0.02 0.07 -0.07 16704
0.27 -0.02 0.51 -0.86 9.81 0.02 0.07 -0.07 16711
0.28 -0.01 0.53 -0.87 9.74 0.02 0.07 -0.07 16718
0.29 -0.02 0.55 -0.87 9.82 0.02 0.07 -0.07 16726
0.29 -0.02 0.53 -0.88 9.80 0.03 0.08 -0.07 16733
0.30 -0.02 0.54 -0.90 9.81 0.03 0.08 -0.07 16740
0.28 -0.02 0.54 -0.89 9.82 0.03 0.07 -0.06 16747
0.28 -0.01 0.52 -0.89 9.75 0.04 0.07 -0.07 16754
0.29 0.00 0.51 -0.92 9.80 0.04 0.08 -0.06 16761
0.30 -0.02 0.53 -0.89 9.80 0.04 0.07 -0.06 16769
0.30 -0.02 0.56 -0.91 9.77 0.04 0.07 -0.06 16776
0.31 -0.03 0.54 -0.86 9.80 0.04 0.07 -0.06 16783
0.30 -0.02 0.60 -0.90 9.80 0.04 0.07 -0.06 16790
0.33 -0.02 0.57 -0.91 10.40 0.05 0.07 -0.06 16797
0.35 -0.02 0.51 -0.91 9.81 0.05 0.07 -0.06 16804
0.38 -0.02 0.52 -0.91 9.81 0.05 0.07 -0.06 16812
0.38 -0.03 0.55 -0.94 9.76 0.05 0.07 -0.06 16819
0.39 -0.03 0.50 -0.94 9.80 0.05 0.07 -0.06 16826
0.38 -0.02 0.54 -0.92 9.80 0.05 0.06 -0.06 16833
0.40 -0.02 0.56 -0.92 9.79 0.05 0.06 -0.06 16840
0.41 -0.02 0.55 -0.93 9.80 0.05 0.06 -0.06 16847
0.43 -0.02 0.51 -0.95 9.80 0.05 0.07 -0.06 16855
0.43 -0.03 0.56 -0.91 9.80 0.06 0.07 -0.06 16862
0.45 -0.03 0.53 -0.95 9.81 0.06 0.08 -0.05 16869
0.45 -0.02 0.55 -0.96 9.83 0.08 0.10 -0.06 16876
0.45 -0.01 0.53 -0.98 9.84 0.09 0.11 -0.05 16883
0.47 -0.02 0.56 -0.94 9.83 0.11 0.13 -0.05 16890
0.48 -0.02 0.56 -0.96 9.83 0.16 0.15 -0.06 16898
0.47 -0.03 0.57 -0.97 9.82 0.15 0.16 -0.06 16905
0.48 -0.02 0.59 -0.98 9.86 0.17 0.17 -0.06 16912
0.49 -0.02 0.60 -1.03 9.81 0.20 0.17 -0.05 16919
0.49 -0.02 0.58 -1.06 9.22 0.23 0.18 -0.06 16926
0.50 -0.03 0.63 -1.06 9.84 0.25 0.18 -0.06 16933
0.48 -0.02 0.62 -1.11 9.83 0.27 0.19 -0.07 16941
0.48 -0.03 0.67 -1.14 9.89 0.30 0.20 -0.07 16948
0.49 -0.02 0.63 -1.15 9.78 0.34 0.20 -0.08 16955
0.50 -0.02 0.69 -1.17 9.94 0.38 0.21 -0.08 16962
0.49 -0.01 0.66 -1.18 9.98 0.42 0.21 -0.09 16969
0.50 -0.03 0.75 -1.22 10.10 0.44 0.20 -0.10 16976
0.50 -0.03 0.71 -1.25 9.93 0.48 0.20 -0.10 16984
0.48 -0.03 0.80 -1.34 10.00 0.50 0.18 -0.11 16991
0.46 -0.03 0.77 -1.41 10.00 0.53 0.18 -0.11 16999
0.46 -0.02 0.90 -1.44 10.15 0.56 0.16 -0.12 17006
0.47 -0.02 0.92 -1.48 10.47 0.61 0.14 -0.13 17013
0.47 -0.02 0.81 -1.55 10.46 0.67 0.11 -0.14 17020
0.46 -0.02 0.68 -1.54 10.76 0.76 0.08 -0.14 17028
0.45 -0.03 0.82 -1.68 10.75 0.81 0.05 -0.14 17035
0.43 -0.02 0.91 -1.80 10.66 0.89 0.01 -0.14 17041
0.42 -0.03 0.75 -1.73 10.81 0.96 -0.02 -0.15 17049
0.41 -0.02 0.86 -1.98 11.12 1.03 -0.03 -0.15 17056
0.40 -0.02 0.79 -1.95 10.78 1.13 -0.05 -0.16 17063
0.39 -0.02 0.71 -1.99 10.89 1.17 -0.05 -0.15 17071
0.36 -0.03 0.82 -2.12 10.68 1.24 -0.06 -0.15 17078
0.32 -0.02 0.94 -2.19 10.76 1.30 -0.07 -0.17 17085
0.30 -0.02 0.93 -2.39 10.73 1.37 -0.07 -0.18 17092
0.27 -0.02 0.79 -2.35 12.25 1.43 -0.11 -0.19 17099
0.22 -0.02 0.90 -2.88 10.73 1.48 -0.08 -0.20 17106
0.15 -0.02 0.91 -2.61 11.02 1.54 -0.16 -0.21 17113
0.14 -0.01 0.97 -2.69 11.33 1.63 -0.11 -0.23 17120
0.12 -0.01 0.87 -2.85 11.30 1.76 -0.15 -0.24 17127
0.10 -0.01 0.92 -3.00 11.07 1.83 -0.14 -0.25 17135
0.05 -0.01 0.88 -3.07 10.89 1.88 -0.09 -0.25 17141
0.08 -0.01 0.77 -3.56 10.81 1.93 -0.06 -0.24 17148
0.03 -0.00 0.99 -3.99 11.44 1.94 0.05 -0.23 17156
0.06 -0.01 0.88 -4.00 11.46 1.94 0.14 -0.22 17163
0.03 -0.00 1.16 -4.22 11.41 1.92 0.24 -0.20 17170
0.04 -0.00 1.43 -4.52 11.43 1.88 0.39 -0.21 17177
0.04 -0.00 1.60 -4.38 11.37 1.83 0.50 -0.22 17184
0.01 -0.00 1.37 -4.26 10.94 1.79 0.60 -0.25 17191
0.00 0.00 1.03 -4.37 11.20 1.72 0.64 -0.26 17199
0.00 0.00 0.82 -4.04 11.46 1.67 0.65 -0.27 17206
0.00 0.00 1.21 -3.85 11.23 1.62 0.59 -0.26 17213
0.00 0.00 0.37 -3.56 10.64 1.55 0.52 -0.27 17220
0.00 0.00 0.49 -3.21 10.52 1.49 0.42 -0.27 17227
0.00 0.00 0.32 -2.33 10.03 1.39 0.34 -0.28 17234
0.00 0.00 0.24 -1.92 9.28 1.25 0.26 -0.28 17242
0.00 0.00 0.45 -0.67 8.04 1.11 0.15 -0.29 17249
0.00 0.00 0.52 -0.64 7.87 0.91 0.05 -0.31 17256
0.00 -0.00 0.42 0.75 7.78 0.73 -0.08 -0.34 17263
0.00 -0.00 1.05 1.89 7.17 0.60 -0.14 -0.39 17270
0.00 0.00 1.14 2.93 7.93 0.41 -0.18 -0.47 17277
0.00 0.00 0.66 4.07 8.55 0.19 -0.19 -0.61 17285
0.00 0.00 0.22 3.94 8.78 -0.06 -0.18 -0.74 17292
0.00 0.00 0.28 3.12 8.01 -0.18 -0.17 -0.90 17299
0.00 -0.00 0.04 2.72 8.16 -0.27 -0.19 -1.05 17306
0.00 0.00 -0.03 2.77 8.45 -0.40 -0.22 -1.16 17313
0.00 0.00 0.30 2.98 8.36 -0.51 -0.28 -1.26 17320
0.00 0.00 0.63 2.87 8.25 -0.60 -0.37 -1.33 17328
0.00 0.00 1.09 2.55 8.18 -0.69 -0.44 -1.37 17335
0.00 0.00 1.51 2.35 8.44 -0.77 -0.46 -1.37 17342
0.01 -0.00 2.11 2.28 8.66 -0.88 -0.43 -1.36 17349
0.00 0.00 2.42 2.01 8.62 -0.98 -0.36 -1.32 17356
0.00 0.00 2.62 1.58 8.45 -1.09 -0.29 -1.26 17363
0.00 0.00 2.75 1.02 8.44 -1.19 -0.22 -1.18 17371
0.00 0.00 2.84 0.42 8.64 -1.24 -0.19 -1.07 17378
0.00 0.00 2.90 -0.14 8.68 -1.26 -0.17 -0.95 17385
0.00 0.00 2.99 -0.80 8.84 -1.26 -0.18 -0.80 17392
0.00 0.00 3.18 -1.29 9.11 -1.24 -0.19 -0.64 17399
0.00 0.00 3.45 -1.84 9.53 -1.23 -0.18 -0.48 17406
0.00 0.00 3.83 -3.21 9.81 -1.22 -0.11 -0.30 17414
0.00 0.00 2.21 -4.26 10.84 -1.30 0.04 -0.15 17421
0.00 0.00 5.78 -3.03 10.45 -1.38 0.19 -0.01 17428
0.00 0.00 5.85 -2.47 4.81 -1.46 0.27 0.15 17435
0.00 0.00 3.71 -5.15 8.06 -1.40 0.36 0.27 17442
0.00 0.00 3.78 -2.76 8.77 -1.41 0.44 0.41 17449
0.00 0.00 3.19 -2.46 8.52 -1.34 0.48 0.59 17457
0.00 0.00 1.28 -5.97 9.27 -1.17 0.54 0.70 17464
0.00 -0.00 1.96 -4.05 7.96 -1.25 0.56 0.86 17471
0.00 0.00 0.76 -6.31 9.79 -1.09 0.61 0.95 17478
0.00 0.00 1.97 -3.37 9.11 -1.16 0.61 1.06 17485
0.00 0.00 0.26 -5.24 9.72 -1.06 0.60 1.12 17492
0.00 0.00 0.60 -3.65 10.41 -1.10 0.56 1.14 17500
0.00 0.00 0.04 -3.95 10.03 -1.07 0.49 1.12 17507
0.00 0.00 -0.06 -4.13 10.54 -1.05 0.47 1.08 17514
0.00 0.00 -0.04 -3.98 10.45 -1.05 0.42 0.98 17521
0.00 0.00 -0.13 -3.73 10.42 -1.05 0.41 0.87 17528
0.00 0.00 -0.27 -3.62 10.44 -1.05 0.43 0.77 17536
0.00 0.00 -0.29 -3.58 10.44 -1.04 0.45 0.65 17543
0.00 0.00 -0.43 -3.56 10.32 -1.04 0.46 0.57 17550
0.00 -0.00 -0.48 -3.45 10.22 -1.03 0.45 0.50 17557
0.00 0.00 -0.47 -3.37 10.15 -1.02 0.42 0.45 17564
0.00 0.00 -0.42 -3.22 10.30 -0.99 0.37 0.42 17571
0.00 0.00 -0.18 -2.95 10.57 -0.99 0.32 0.39 17579
0.00 0.00 -0.02 -2.75 10.60 -1.01 0.28 0.37 17586
0.00 0.00 0.23 -2.62 10.56 -1.04 0.26 0.35 17593
0.00 0.00 0.42 -2.63 10.60 -1.06 0.24 0.33 17600
0.00 0.00 0.57 -2.81 10.57 -1.07 0.23 0.30 17607
0.00 0.00 0.80 -2.96 10.59 -1.06 0.22 0.27 17614
0.00 0.00 0.94 -3.06 10.45 -1.05 0.22 0.23 17622
0.00 0.00 1.05 -3.13 10.39 -1.02 0.23 0.18 17629
0.00 0.00 1.05 -3.09 10.21 -0.99 0.25 0.14 17636
0.00 0.00 0.87 -3.02 10.06 -0.94 0.28 0.12 17643
0.00 0.00 0.70 -2.90 9.88 -0.89 0.29 0.11 17650
0.00 0.00 0.58 -2.72 9.82 -0.85 0.29 0.12 17657
0.00 0.00 0.48 -2.61 9.83 -0.80 0.26 0.13 17665
0.00 0.00 0.52 -2.53 9.84 -0.75 0.23 0.13 17672
0.00 -0.00 0.58 -2.57 9.83 -0.70 0.21 0.13 17679
0.00 0.00 0.73 -2.47 10.07 -0.66 0.21 0.13 17686
0.00 0.00 0.88 -2.39 10.33 -0.65 0.23 0.11 17693
0.00 0.00 1.00 -2.33 10.34 -0.66 0.28 0.09 17700
0.00 0.00 0.97 -2.40 10.38 -0.67 0.33 0.07 17708
0.00 0.00 0.92 -2.62 10.16 -0.68 0.34 0.04 17715
