Voltage_01 Voltage_02 Acc_x Acc_y Acc_z Gyro_x Gyro_y Gyro_z Time
5000
0.00 0.00 0.99 -0.65 10.55 -0.50 0.29 0.74 17
0.00 0.00 1.44 -0.51 10.37 -0.50 0.29 0.73 23
0.00 0.00 1.45 -1.10 10.19 -0.52 0.31 0.67 29
0.00 0.00 1.55 -0.73 9.85 -0.52 0.32 0.68 35
0.00 0.00 1.62 -0.67 10.28 -0.53 0.34 0.64 41
0.00 0.00 1.66 -0.61 10.33 -0.55 0.36 0.61 48
0.00 0.00 1.49 -0.81 10.40 -0.57 0.41 0.56 55
0.00 0.00 1.50 -0.59 9.92 -0.59 0.44 0.53 61
0.00 0.00 1.32 -0.68 10.29 -0.61 0.48 0.51 67
0.00 0.00 1.09 -0.71 10.13 -0.63 0.51 0.49 74
0.00 0.00 0.84 -0.74 10.11 -0.65 0.51 0.48 80
0.00 0.00 0.76 -0.86 10.16 -0.66 0.49 0.48 87
0.00 0.00 0.77 -0.99 10.18 -0.68 0.46 0.48 93
0.00 -0.00 0.86 -1.08 10.19 -0.69 0.42 0.48 99
0.00 0.00 0.98 -1.09 10.12 -0.71 0.39 0.48 106
0.00 0.00 1.23 -0.96 10.11 -0.72 0.36 0.49 113
0.00 0.00 1.41 -0.81 9.97 -0.73 0.35 0.50 120
0.00 0.00 1.50 -0.70 9.84 -0.72 0.35 0.51 126
0.00 0.00 1.53 -0.49 9.68 -0.72 0.36 0.53 133
0.00 0.00 1.51 -0.34 9.57 -0.72 0.37 0.56 139
0.00 0.00 1.44 -0.34 9.52 -0.71 0.38 0.58 145
0.00 0.00 1.33 -0.38 9.44 -0.70 0.40 0.61 151
0.00 0.00 1.18 -0.51 9.28 -0.69 0.41 0.64 157
0.00 0.00 0.98 -0.64 9.12 -0.67 0.39 0.65 163
0.00 0.00 0.91 -0.89 9.18 -0.64 0.38 0.66 169
0.00 0.00 1.01 -1.03 9.41 -0.63 0.39 0.64 176
0.01 -0.00 1.06 -1.12 9.52 -0.64 0.45 0.62 182
0.00 0.00 0.83 -1.60 9.50 -0.66 0.51 0.56 189
0.00 0.00 -2.05 -9.95 15.87 -0.56 0.24 0.44 195
0.00 0.00 -3.60 -2.95 9.98 -0.17 -0.55 0.24 202
0.00 0.00 -1.61 -1.94 4.26 -0.13 -0.52 0.14 208
0.00 -0.00 -2.91 -8.65 8.42 -0.06 -0.76 0.03 216
0.01 -0.00 -5.64 -12.89 10.88 0.25 -1.07 -0.18 224
0.01 0.01 -2.53 -8.85 5.67 0.67 -0.64 -0.22 230
0.01 0.00 -6.74 -21.40 12.02 0.73 -1.27 -0.34 238
0.01 -0.00 -11.58 -39.52 15.45 0.19 -1.21 -0.55 245
-0.00 0.02 -7.69 -20.73 5.20 -0.19 0.03 -0.23 251
0.02 0.01 -2.58 -18.48 8.64 -0.18 -0.01 -0.16 260
0.02 -0.00 -1.41 -3.33 9.13 -0.21 0.11 -0.03 266
0.03 0.02 0.68 0.95 9.29 -0.20 0.10 0.08 273
0.01 0.03 0.68 0.52 9.82 -0.19 0.02 0.02 280
0.00 0.07 0.21 -0.33 10.12 -0.16 0.02 -0.05 287
0.01 0.12 0.36 -0.80 10.24 -0.12 0.02 -0.05 294
0.01 0.21 -0.13 -0.82 10.31 -0.09 0.06 -0.05 302
0.02 0.19 -0.00 -0.75 10.06 -0.07 0.09 -0.05 309
0.03 0.15 0.34 -0.89 9.94 -0.05 0.11 -0.04 316
0.02 0.15 0.47 -0.89 9.89 -0.04 0.10 -0.03 323
0.02 0.17 0.45 -0.78 9.86 -0.04 0.10 -0.04 330
0.02 0.19 0.34 -0.90 9.79 -0.04 0.09 -0.04 337
0.01 0.20 0.39 -0.90 9.85 -0.04 0.08 -0.07 345
0.03 0.21 0.55 -0.84 9.79 -0.04 0.08 -0.04 352
0.03 0.20 0.55 -0.83 9.85 -0.03 0.08 -0.04 359
0.03 0.20 0.51 -0.87 9.91 -0.02 0.07 -0.05 366
0.02 0.20 0.52 -0.87 9.90 -0.02 0.07 -0.06 373
0.04 0.21 0.44 -0.84 9.93 -0.02 0.07 -0.06 380
0.05 0.25 0.42 -0.86 9.72 -0.01 0.07 -0.07 388
0.07 0.22 0.40 -0.87 9.85 -0.01 0.07 -0.07 395
0.07 0.23 0.41 -0.82 9.82 -0.01 0.06 -0.07 402
0.08 0.22 0.41 -0.83 9.84 -0.00 0.06 -0.07 409
0.07 0.23 0.43 -0.86 9.79 -0.00 0.07 -0.07 416
0.10 0.24 0.41 -0.81 9.82 -0.00 0.06 -0.07 423
0.10 0.26 0.43 -0.87 9.81 0.03 0.06 -0.07 431
0.10 0.22 0.42 -0.85 9.81 0.00 0.06 -0.07 438
0.10 0.22 0.41 -0.86 9.84 0.01 0.06 -0.07 445
0.11 0.21 0.41 -0.85 9.84 0.01 0.06 -0.08 452
0.10 0.22 0.45 -0.86 10.40 0.01 0.06 -0.07 459
0.10 0.22 0.41 -0.82 9.77 0.01 0.06 -0.07 466
0.12 0.19 0.44 -0.87 9.81 0.01 0.06 -0.07 474
0.12 0.18 0.42 -0.88 9.79 0.01 0.06 -0.08 481
0.12 0.19 0.44 -0.86 9.82 0.01 0.06 -0.08 488
0.10 0.18 0.44 -0.88 9.82 0.01 0.06 -0.07 495
0.10 0.17 0.43 -0.89 9.81 0.01 0.06 -0.08 502
0.09 0.16 0.45 -0.88 9.81 0.01 0.06 -0.08 509
0.13 0.16 0.42 -0.91 9.79 0.01 0.06 -0.08 517
0.13 0.14 0.46 -0.91 9.79 0.01 0.06 -0.09 524
0.11 0.12 0.46 -0.86 9.77 0.01 0.06 -0.09 531
0.11 0.12 0.42 -0.89 9.76 0.01 0.06 -0.09 538
0.11 0.11 0.42 -0.94 9.80 0.01 0.06 -0.08 545
0.13 0.14 0.42 -0.88 9.81 0.01 0.06 -0.08 552
0.15 0.11 0.41 -0.89 9.80 0.01 0.06 -0.08 560
0.15 0.10 0.42 -0.93 9.81 0.00 0.06 -0.08 567
0.15 0.10 0.44 -0.90 9.79 0.00 0.06 -0.08 574
0.15 0.12 0.42 -0.89 9.81 0.01 0.06 -0.08 581
0.16 0.12 0.46 -0.90 9.79 0.00 0.06 -0.08 588
0.16 0.11 0.45 -0.91 9.78 0.00 0.06 -0.08 595
0.18 0.12 0.46 -0.88 9.81 0.01 0.06 -0.08 603
0.19 0.13 0.45 -0.89 9.80 0.00 0.06 -0.08 610
0.20 0.09 0.41 -0.90 9.81 0.01 0.06 -0.08 617
0.19 0.09 0.46 -0.92 9.81 0.01 0.05 -0.08 624
0.20 0.09 0.47 -0.92 9.82 0.00 0.05 -0.08 631
0.20 0.09 0.42 -0.92 9.80 0.00 0.05 -0.08 638
0.19 0.08 0.46 -0.90 9.82 0.00 0.05 -0.08 646
0.19 0.08 0.44 -0.91 9.77 -0.00 0.05 -0.08 653
0.18 0.08 0.46 -0.91 9.81 0.00 0.05 -0.08 660
0.18 0.08 0.48 -0.92 9.81 0.00 0.05 -0.08 667
0.18 0.09 0.46 -0.91 9.82 0.00 0.05 -0.08 674
0.20 0.08 0.48 -0.91 9.81 -0.00 0.04 -0.08 681
0.19 0.08 0.46 -0.90 9.79 -0.00 0.04 -0.08 689
0.18 0.08 0.47 -0.91 9.81 -0.00 0.04 -0.08 696
0.17 0.05 0.49 -0.93 9.81 -0.00 0.04 -0.08 703
0.16 0.07 0.45 -0.90 9.81 -0.00 0.03 -0.08 710
0.17 0.06 0.48 -0.93 9.79 -0.01 0.03 -0.08 717
0.20 0.04 0.46 -0.94 9.80 -0.01 0.03 -0.09 724
0.18 0.05 0.47 -0.88 9.76 -0.01 0.02 -0.09 732
0.19 0.03 0.48 -0.92 9.81 -0.00 0.02 -0.09 739
0.19 0.02 0.44 -0.87 9.81 -0.01 0.02 -0.09 746
0.20 0.00 0.45 -0.91 9.80 -0.01 0.02 -0.09 753
0.20 0.04 0.45 -0.93 9.81 -0.01 0.02 -0.09 760
0.23 0.03 0.43 -0.91 9.77 -0.00 0.03 -0.09 768
0.23 0.01 0.42 -0.89 9.81 -0.00 0.02 -0.09 775
0.24 -0.00 0.47 -0.91 9.79 -0.00 0.03 -0.09 782
0.24 0.01 0.41 -0.91 9.75 -0.00 0.03 -0.08 789
0.25 0.00 0.46 -0.90 9.80 0.00 0.03 -0.09 796
0.25 0.02 0.43 -0.93 9.76 0.00 0.07 -0.08 803
0.27 0.01 0.42 -0.97 9.80 0.00 0.04 -0.09 811
0.27 0.01 0.44 -0.91 9.81 0.01 0.04 -0.09 818
0.27 -0.00 0.43 -0.92 9.81 0.01 0.05 -0.09 825
0.26 -0.01 0.44 -0.93 9.82 0.01 0.05 -0.09 832
0.29 -0.00 0.47 -0.93 9.82 0.02 0.05 -0.09 839
0.33 -0.01 0.44 -0.91 9.83 0.03 0.06 -0.09 846
0.37 -0.01 0.40 -0.94 9.82 0.04 0.06 -0.09 854
0.37 -0.01 0.41 -0.93 9.88 0.05 0.07 -0.09 861
0.38 -0.03 0.43 -0.95 9.90 0.07 0.08 -0.09 868
0.38 -0.02 0.41 -1.02 9.99 0.09 0.09 -0.09 875
0.43 -0.02 0.40 -0.98 10.09 0.14 0.12 -0.09 882
0.46 -0.02 0.51 -1.05 10.12 0.19 0.14 -0.08 890
0.48 -0.03 0.57 -0.94 10.32 0.25 0.18 -0.10 897
0.50 -0.03 0.69 -1.03 10.68 0.38 0.25 -0.13 904
0.49 -0.03 0.83 -1.07 10.99 0.56 0.35 -0.16 912
0.49 -0.02 0.91 -1.21 11.35 0.85 0.39 -0.19 919
0.49 -0.01 0.71 -1.11 11.80 1.11 0.34 -0.21 926
0.50 -0.02 0.69 -1.26 11.59 1.26 0.25 -0.23 933
0.50 -0.02 0.86 -1.40 11.46 1.33 0.20 -0.23 941
0.48 -0.02 0.61 -1.25 11.21 1.36 0.16 -0.23 948
0.47 -0.01 0.56 -1.51 10.86 1.41 0.13 -0.22 955
0.46 -0.02 0.43 -1.51 10.59 1.44 0.08 -0.20 962
0.45 -0.02 0.54 -1.72 10.21 1.45 -0.00 -0.19 969
0.46 -0.02 0.42 -1.81 10.08 1.44 -0.09 -0.17 976
0.43 -0.02 0.59 -1.94 10.26 1.43 -0.13 -0.15 984
0.40 -0.03 0.43 -2.11 10.13 1.44 -0.14 -0.15 991
0.34 -0.02 0.50 -2.14 9.92 1.45 -0.16 -0.13 997
0.30 -0.02 0.51 -2.32 10.08 1.45 -0.12 -0.12 1005
0.26 -0.01 0.52 -2.45 9.93 1.48 -0.11 -0.12 1011
0.23 -0.02 0.55 -2.57 9.83 1.50 -0.11 -0.11 1018
0.20 -0.02 0.61 -2.76 9.50 1.50 -0.12 -0.12 1026
0.18 -0.02 0.67 -2.87 9.82 1.49 -0.11 -0.13 1033
0.15 -0.01 0.52 -2.94 9.70 1.49 -0.14 -0.13 1040
0.17 -0.02 0.58 -3.08 9.69 1.48 -0.15 -0.13 1047
0.15 -0.01 0.44 -3.09 9.55 1.47 -0.19 -0.14 1054
0.08 -0.01 0.51 -3.31 9.75 1.44 -0.24 -0.14 1061
0.08 -0.01 0.52 -3.52 9.64 1.44 -0.20 -0.14 1069
0.09 -0.01 0.27 -3.61 9.71 1.44 -0.21 -0.14 1076
0.06 -0.01 0.26 -3.66 9.58 1.43 -0.20 -0.13 1083
0.06 -0.00 0.28 -3.89 9.80 1.42 -0.17 -0.12 1090
0.07 -0.01 0.26 -3.97 9.74 1.41 -0.16 -0.12 1097
0.07 -0.01 0.29 -4.13 9.78 1.41 -0.15 -0.11 1104
0.05 -0.00 0.28 -4.35 9.55 1.38 -0.16 -0.11 1112
0.04 -0.00 0.30 -4.50 9.58 1.33 -0.16 -0.11 1119
0.03 -0.00 0.29 -4.76 9.90 1.26 -0.14 -0.10 1126
0.04 -0.00 0.21 -4.91 10.27 1.20 -0.15 -0.11 1133
0.07 -0.01 0.21 -4.92 10.37 1.14 -0.18 -0.11 1140
0.06 -0.01 0.25 -4.87 10.34 1.07 -0.25 -0.13 1147
0.05 -0.00 0.21 -4.74 10.41 0.98 -0.32 -0.14 1155
0.05 -0.01 0.35 -4.50 10.29 0.88 -0.42 -0.16 1162
0.05 -0.00 0.41 -4.36 10.17 0.81 -0.55 -0.18 1169
0.03 0.00 0.62 -4.32 10.00 0.74 -0.63 -0.21 1176
0.02 -0.00 0.98 -4.06 9.70 0.68 -0.69 -0.23 1183
0.01 -0.00 1.52 -3.34 9.12 0.63 -0.69 -0.26 1190
0.01 -0.00 1.92 -2.55 8.38 0.54 -0.62 -0.29 1198
0.01 -0.00 2.02 -2.54 7.70 0.44 -0.54 -0.34 1205
0.01 -0.00 1.95 -2.11 7.36 0.37 -0.48 -0.39 1212
0.01 -0.00 1.93 -3.25 6.95 0.36 -0.40 -0.46 1219
0.02 -0.00 2.45 -2.19 7.16 0.40 -0.33 -0.55 1226
0.02 -0.00 2.45 -1.40 7.18 0.44 -0.21 -0.63 1233
0.02 -0.00 2.20 0.31 7.71 0.34 -0.07 -0.71 1241
0.00 -0.00 1.85 0.50 8.06 0.19 0.06 -0.76 1248
0.01 -0.00 1.49 1.84 8.34 0.05 0.22 -0.81 1255
0.00 0.00 1.77 2.42 8.67 -0.03 0.31 -0.87 1262
0.00 0.00 0.29 0.43 8.38 -0.10 0.36 -0.90 1269
0.00 0.00 -0.34 2.69 10.36 -0.18 0.40 -0.91 1276
0.00 0.00 -0.02 0.13 8.00 -0.21 0.38 -0.91 1284
0.00 0.00 -0.06 2.19 9.11 -0.32 0.44 -0.87 1291
0.00 0.00 -0.39 -1.54 7.83 -0.39 0.49 -0.81 1298
0.01 -0.00 -0.37 -1.37 9.75 -0.50 0.48 -0.75 1305
0.00 -0.00 -0.06 2.62 10.65 -0.59 0.48 -0.67 1312
0.00 0.00 -1.01 -3.47 9.38 -0.63 0.43 -0.62 1319
0.00 0.00 -1.14 -1.40 9.31 -0.68 0.32 -0.55 1327
0.00 0.00 -1.90 -5.76 7.58 -0.74 0.30 -0.50 1334
0.00 0.00 -1.57 -4.49 11.75 -0.62 0.24 -0.49 1341
0.01 -0.00 -2.15 -9.03 8.93 -0.67 0.22 -0.47 1348
0.00 0.00 -0.24 -1.54 11.93 -0.64 0.25 -0.46 1355
0.00 0.00 -1.34 -8.34 7.65 -0.69 0.26 -0.46 1362
0.00 0.00 -0.50 -4.95 9.09 -0.67 0.22 -0.44 1370
0.00 0.00 -0.59 -0.83 9.76 -0.69 0.28 -0.41 1377
0.00 0.00 -1.85 -4.02 9.09 -0.65 0.23 -0.41 1384
0.00 -0.00 -0.73 -2.62 7.55 -0.72 0.17 -0.36 1391
0.00 0.00 -3.17 -7.63 8.69 -0.64 0.15 -0.33 1398
0.00 0.00 -1.07 -4.50 10.29 -0.69 0.09 -0.33 1405
0.00 0.00 -0.40 -6.35 10.38 -0.66 0.03 -0.35 1413
0.00 0.00 -1.04 -3.22 10.97 -0.72 0.01 -0.31 1420
0.00 0.00 -1.15 -5.22 10.98 -0.68 -0.01 -0.33 1427
0.00 0.00 -1.19 -3.31 9.09 -0.70 -0.09 -0.29 1434
0.00 0.00 0.47 -4.41 10.01 -0.70 -0.05 -0.26 1441
0.00 0.00 -0.60 -3.48 9.36 -0.71 -0.02 -0.19 1448
0.00 0.00 0.80 -3.58 9.10 -0.71 -0.03 -0.16 1456
0.00 0.00 0.47 -2.00 9.99 -0.74 0.01 -0.09 1463
0.00 -0.00 -1.11 -3.71 8.35 -0.77 0.02 -0.05 1470
0.00 -0.00 1.24 -2.07 9.06 -0.76 0.01 0.00 1477
0.00 0.00 1.00 -2.10 9.12 -0.73 0.04 0.05 1484
0.00 0.00 1.60 -3.14 8.37 -0.70 0.08 0.10 1491
0.00 0.00 1.83 -1.30 9.91 -0.69 0.17 0.14 1499
0.00 0.00 0.37 -1.64 8.99 -0.65 0.20 0.17 1506
0.00 -0.00 1.62 -0.89 10.27 -0.71 0.22 0.22 1513
0.00 0.00 2.25 0.70 9.08 -0.73 0.22 0.26 1520
0.00 0.00 1.62 -0.48 8.63 -0.76 0.21 0.30 1527
0.00 0.00 1.67 -0.47 9.99 -0.79 0.25 0.36 1534
0.00 0.00 2.29 -0.32 8.71 -0.81 0.30 0.39 1542
0.00 0.00 1.18 0.15 10.20 -0.88 0.37 0.43 1549
0.00 -0.00 1.33 -0.12 8.61 -0.85 0.40 0.48 1556
0.00 0.00 1.82 0.35 10.84 -0.88 0.45 0.51 1563
0.00 0.00 1.12 0.34 10.08 -0.93 0.49 0.54 1570
0.00 0.00 0.95 -0.03 10.16 -0.94 0.53 0.58 1577
0.00 0.00 0.97 -0.06 10.29 -1.00 0.57 0.60 1585
-0.00 0.00 0.84 -0.11 10.36 -1.05 0.59 0.60 1592
0.00 0.00 0.80 -0.43 10.48 -1.09 0.58 0.58 1599
0.00 0.00 0.76 -0.84 10.47 -1.11 0.57 0.55 1606
0.00 0.00 0.85 -1.06 10.42 -1.11 0.54 0.49 1613
0.00 0.00 0.88 -1.31 10.35 -1.09 0.54 0.43 1620
0.00 0.00 0.92 -1.43 10.38 -1.07 0.55 0.36 1628
0.00 0.00 1.01 -1.46 10.54 -1.04 0.57 0.27 1635
0.00 0.00 0.97 -1.51 10.85 -1.02 0.60 0.24 1642
0.00 0.00 0.89 -1.48 11.01 -1.02 0.67 0.20 1649
0.00 0.00 0.78 -1.45 10.91 -1.03 0.66 0.19 1656
0.00 0.00 0.57 -1.36 10.90 -1.06 0.66 0.18 1664
0.00 0.00 0.40 -1.37 11.10 -1.08 0.64 0.18 1671
0.00 0.00 0.13 -1.43 10.97 -1.11 0.62 0.20 1678
0.00 0.00 -0.08 -1.75 10.89 -1.12 0.61 0.22 1685
0.00 0.00 -0.27 -2.13 10.97 -1.12 0.59 0.24 1692
0.00 0.00 -0.30 -2.69 11.15 -1.11 0.56 0.25 1699
0.00 0.00 -0.20 -3.33 11.26 -1.11 0.53 0.24 1707
0.00 0.00 0.02 -3.73 11.14 -1.12 0.49 0.21 1714
0.00 -0.00 0.20 -3.89 10.78 -1.12 0.47 0.17 1721
0.00 0.00 0.34 -4.03 10.30 -1.11 0.46 0.15 1728
0.00 0.00 0.40 -4.20 9.90 -1.07 0.46 0.12 1735
0.00 0.00 0.34 -4.22 9.58 -1.01 0.47 0.11 1742
0.00 0.00 0.20 -4.36 9.34 -0.92 0.46 0.09 1750
0.00 0.00 -1.38 -6.56 11.07 -0.73 0.22 0.07 1757
0.00 -0.00 -4.04 -8.31 12.05 -0.43 -0.26 -0.03 1764
0.00 0.00 -1.19 -4.92 6.43 -0.25 -0.42 -0.01 1771
0.00 0.00 -0.77 -7.02 7.38 -0.19 -0.55 -0.02 1778
0.00 0.00 -1.24 -9.03 11.01 -0.16 -0.65 -0.08 1785
0.00 0.00 -0.08 -7.68 10.77 -0.04 -0.49 -0.12 1793
-0.00 0.00 -0.99 -9.30 5.04 -0.01 -0.29 -0.09 1800
0.00 -0.00 -1.26 -6.98 5.69 0.11 -0.09 -0.00 1807
0.00 0.00 -1.44 -11.31 8.57 0.16 -0.21 0.07 1814
0.00 0.00 -1.79 -11.98 4.47 0.42 -0.36 0.19 1821
-0.00 0.01 -3.10 -18.01 3.83 0.72 -0.46 0.44 1828
-0.00 0.01 -4.22 -24.45 3.36 1.01 -0.65 0.69 1836
-0.00 0.02 -14.57 -31.23 18.53 0.69 -1.63 0.70 1844
0.02 0.00 -4.74 -10.78 9.85 -0.06 -0.15 0.40 1850
0.03 0.01 -1.31 -3.75 9.31 -0.15 0.13 -0.06 1857
0.02 0.01 -1.15 -2.20 9.13 -0.24 0.19 -0.07 1864
-0.00 0.04 0.39 -0.62 10.22 -0.18 0.16 0.02 1871
0.01 0.05 0.87 -0.16 9.89 -0.18 0.11 0.04 1879
0.02 0.09 0.52 -0.27 10.29 -0.15 0.08 -0.02 1886
0.04 0.13 0.43 -0.71 10.01 -0.12 0.08 -0.03 1893
0.03 0.18 0.47 -1.03 10.11 -0.09 0.08 -0.03 1900
0.03 0.12 0.46 -1.09 9.92 -0.07 0.08 -0.04 1907
0.03 0.12 0.38 -0.92 9.83 -0.06 0.08 -0.04 1914
0.04 0.16 0.37 -0.84 9.73 -0.05 0.08 -0.04 1922
0.04 0.18 0.44 -0.93 9.72 -0.06 0.07 -0.04 1929
0.04 0.17 0.38 -0.93 9.82 -0.06 0.07 -0.05 1936
0.03 0.19 0.35 -0.91 9.77 -0.06 0.06 -0.04 1943
0.03 0.20 0.49 -0.88 9.89 -0.05 0.06 -0.04 1950
0.04 0.22 0.40 -0.89 9.84 -0.05 0.05 -0.05 1957
0.04 0.23 0.43 -0.84 9.70 -0.04 0.05 -0.05 1965
0.06 0.25 0.40 -0.92 9.87 -0.03 0.06 -0.05 1972
0.06 0.22 0.40 -0.89 9.88 -0.03 0.05 -0.05 1979
0.07 0.22 0.33 -0.92 9.83 -0.02 0.06 -0.05 1986
0.07 0.22 0.39 -0.86 9.76 -0.02 0.06 -0.05 1993
0.07 0.22 0.45 -0.87 9.86 -0.02 0.06 -0.05 2000
0.08 0.23 0.41 -0.91 9.79 -0.01 0.06 -0.05 2008
0.11 0.20 0.39 -0.87 9.86 -0.01 0.06 -0.05 2015
0.10 0.20 0.43 -0.92 9.81 -0.01 0.06 -0.06 2022
0.12 0.20 0.47 -0.91 9.90 -0.01 0.06 -0.06 2029
0.11 0.20 0.43 -0.88 9.82 -0.01 0.06 -0.06 2036
0.11 0.21 0.42 -0.86 9.82 -0.00 0.06 -0.06 2043
0.11 0.22 0.41 -0.86 9.81 -0.00 0.06 -0.06 2051
0.13 0.22 0.41 -0.89 9.80 0.00 0.05 -0.07 2058
0.11 0.23 0.40 -0.88 9.82 0.01 0.05 -0.06 2065
0.10 0.20 0.43 -0.91 9.82 0.01 0.05 -0.07 2072
0.11 0.19 0.43 -0.89 9.86 0.01 0.06 -0.06 2079
0.12 0.19 0.38 -0.88 9.80 0.01 0.06 -0.07 2086
0.13 0.19 0.43 -0.90 9.80 0.01 0.05 -0.07 2094
0.13 0.17 0.40 -0.88 9.78 0.01 0.06 -0.07 2101
0.13 0.16 0.40 -0.90 9.79 0.01 0.06 -0.07 2108
0.14 0.15 0.43 -0.92 9.80 0.01 0.05 -0.07 2115
0.13 0.17 0.42 -0.90 9.81 0.01 0.05 -0.07 2122
0.14 0.17 0.41 -0.90 9.80 0.01 0.05 -0.07 2129
0.14 0.15 0.42 -0.90 9.79 0.01 0.06 -0.07 2137
0.15 0.11 0.38 -0.91 9.80 0.01 0.05 -0.07 2144
0.15 0.12 0.45 -0.88 9.80 0.01 0.05 -0.07 2151
0.15 0.10 0.41 -0.91 9.77 0.01 0.05 -0.07 2158
0.15 0.11 0.41 -0.89 9.79 0.01 0.06 -0.07 2165
0.14 0.12 0.40 -0.91 9.82 0.01 0.06 -0.07 2172
0.15 0.11 0.43 -0.95 9.80 0.01 0.06 -0.08 2180
0.14 0.10 0.40 -0.95 9.75 0.01 0.06 -0.07 2187
0.14 0.10 0.44 -0.88 9.79 0.01 0.06 -0.08 2194
0.14 0.08 0.42 -0.93 9.80 0.01 0.05 -0.07 2201
0.15 0.06 0.43 -0.91 9.82 0.01 0.05 -0.07 2208
0.15 0.08 0.43 -0.94 9.78 0.01 0.05 -0.07 2215
0.17 0.06 0.41 -0.95 9.81 0.01 0.05 -0.07 2223
0.16 0.06 0.45 -0.94 10.40 0.01 0.05 -0.06 2230
0.18 0.06 0.45 -0.96 9.78 0.00 0.05 -0.07 2237
0.15 0.05 0.42 -0.95 9.80 0.00 0.05 -0.08 2244
0.16 0.06 0.44 -0.94 9.80 0.00 0.05 -0.07 2251
0.18 0.05 0.42 -0.97 9.81 -0.00 0.04 -0.07 2258
0.18 0.05 0.44 -0.93 9.78 -0.00 0.04 -0.07 2266
0.18 0.05 0.47 -0.94 9.80 -0.00 0.04 -0.07 2273
0.19 0.03 0.44 -0.96 9.75 0.00 0.04 -0.07 2280
0.17 0.03 0.42 -0.95 9.76 0.00 0.04 -0.07 2287
0.18 0.04 0.45 -0.93 9.79 0.00 0.04 -0.07 2294
0.20 0.04 0.44 -0.92 9.73 0.00 0.03 -0.07 2301
0.20 0.04 0.44 -0.94 9.79 -0.01 0.04 -0.07 2309
0.21 0.04 0.46 -0.92 9.79 -0.01 0.03 -0.07 2316
0.20 0.02 0.48 -0.93 9.78 -0.00 0.03 -0.07 2323
0.20 0.02 0.45 -0.91 9.81 -0.01 0.03 -0.07 2330
0.20 0.03 0.43 -0.97 9.81 -0.01 0.03 -0.07 2337
0.21 0.02 0.47 -0.95 9.76 -0.01 0.02 -0.07 2344
0.20 0.02 0.45 -0.91 9.79 -0.01 0.02 -0.08 2352
0.20 0.02 0.41 -0.93 10.38 -0.01 0.02 -0.07 2359
0.20 0.01 0.38 -0.96 9.80 -0.01 0.02 -0.08 2366
0.20 0.02 0.43 -0.95 9.79 -0.01 0.02 -0.08 2373
0.21 0.04 0.40 -0.94 9.79 -0.01 0.02 -0.07 2380
0.23 0.03 0.40 -0.96 9.76 -0.01 0.02 -0.08 2387
0.22 0.03 0.39 -0.95 9.81 -0.01 0.02 -0.08 2395
0.23 0.02 0.39 -0.93 9.81 -0.01 0.03 -0.08 2402
0.22 0.03 0.42 -0.98 9.79 -0.01 0.03 -0.08 2409
0.22 0.04 0.43 -0.92 9.80 -0.01 0.03 -0.08 2416
0.22 0.04 0.44 -0.94 9.78 -0.01 0.03 -0.08 2423
0.24 0.00 0.39 -0.96 9.80 -0.00 0.03 -0.08 2430
0.26 0.01 0.42 -0.95 9.81 -0.00 0.04 -0.08 2438
0.25 0.01 0.38 -0.94 9.81 -0.00 0.04 -0.08 2445
0.23 0.01 0.39 -0.98 9.80 0.00 0.04 -0.08 2452
0.24 0.02 0.41 -0.95 9.80 0.00 0.05 -0.08 2459
0.25 0.02 0.41 -0.94 9.83 0.00 0.05 -0.08 2466
0.26 0.01 0.39 -0.97 9.79 0.00 0.05 -0.08 2473
0.26 0.01 0.38 -0.97 9.81 0.01 0.06 -0.08 2481
0.26 0.00 0.42 -0.98 10.42 0.02 0.06 -0.08 2488
0.25 -0.01 0.38 -0.95 9.81 0.03 0.07 -0.08 2495
0.28 0.01 0.43 -0.95 9.82 0.03 0.08 -0.09 2502
0.30 -0.01 0.44 -0.94 9.86 0.04 0.09 -0.10 2509
0.29 -0.01 0.42 -0.91 9.84 0.06 0.11 -0.10 2516
0.30 -0.01 0.44 -0.96 9.88 0.08 0.12 -0.10 2524
0.30 -0.02 0.44 -0.93 9.96 0.11 0.15 -0.11 2531
0.32 -0.02 0.51 -0.98 10.07 0.15 0.18 -0.11 2539
0.33 -0.01 0.58 -0.99 10.13 0.22 0.22 -0.12 2546
0.35 -0.02 0.82 -1.07 10.45 0.30 0.30 -0.15 2553
0.35 -0.03 0.92 -1.19 10.75 0.45 0.39 -0.18 2561
0.34 -0.02 0.91 -1.03 11.10 0.72 0.48 -0.22 2568
0.35 -0.03 0.92 -1.26 11.79 1.03 0.52 -0.25 2575
0.35 -0.02 0.85 -1.19 12.39 1.36 0.46 -0.26 2582
0.35 -0.01 1.22 -1.61 12.56 1.56 0.34 -0.28 2589
0.35 -0.01 0.92 -1.40 11.83 1.62 0.22 -0.30 2596
0.34 -0.01 0.66 -1.42 11.55 1.69 0.10 -0.30 2604
0.33 -0.02 0.44 -1.63 10.97 1.74 0.01 -0.28 2611
0.29 -0.02 0.29 -1.87 10.35 1.78 -0.07 -0.25 2618
0.25 -0.02 0.04 -1.73 10.98 1.77 -0.19 -0.20 2625
0.21 -0.01 0.35 -2.00 10.42 1.74 -0.16 -0.16 2632
0.19 -0.02 0.15 -2.16 10.47 1.76 -0.16 -0.14 2638
0.17 -0.02 0.21 -2.26 10.63 1.80 -0.17 -0.09 2646
0.12 -0.01 0.40 -2.32 10.23 1.82 -0.23 -0.07 2653
0.10 -0.01 0.47 -2.68 10.12 1.80 -0.20 -0.06 2660
0.08 -0.01 0.48 -2.82 10.09 1.79 -0.13 -0.05 2667
0.08 -0.01 0.19 -3.00 10.09 1.78 -0.14 -0.05 2674
0.08 -0.01 0.40 -3.21 10.05 1.78 -0.09 -0.03 2681
0.05 -0.00 0.55 -3.27 9.75 1.76 -0.05 -0.02 2689
0.03 -0.00 0.38 -3.33 9.87 1.68 -0.09 -0.03 2696
0.03 -0.00 0.51 -3.58 9.91 1.62 -0.03 -0.02 2703
0.05 -0.00 0.47 -3.73 10.06 1.56 -0.06 -0.03 2710
0.06 -0.01 0.29 -3.66 9.81 1.51 -0.10 -0.03 2717
0.06 -0.01 0.31 -4.28 9.76 1.43 -0.11 -0.03 2724
0.06 -0.01 0.20 -3.75 9.90 1.35 -0.14 -0.03 2732
0.06 -0.01 0.00 -3.44 9.98 1.26 -0.18 -0.03 2739
0.06 -0.01 -0.17 -3.19 9.53 1.12 -0.28 -0.02 2746
0.05 -0.00 -0.28 -3.07 9.39 0.97 -0.37 -0.00 2753
0.04 -0.00 -0.02 -2.86 9.30 0.86 -0.46 0.01 2760
0.02 -0.00 0.41 -2.70 9.01 0.73 -0.57 0.01 2767
0.01 -0.00 0.93 -3.16 8.40 0.63 -0.67 0.00 2775
0.00 0.00 1.13 -2.64 8.13 0.51 -0.69 -0.04 2782
0.01 -0.00 2.39 -2.71 7.87 0.38 -0.66 -0.12 2789
0.00 0.00 2.64 -2.73 7.61 0.28 -0.59 -0.18 2796
0.01 -0.00 2.64 -1.73 8.26 0.20 -0.42 -0.29 2803
0.00 -0.00 3.07 -1.43 7.99 0.14 -0.26 -0.41 2810
0.00 -0.00 2.90 -1.72 7.63 0.11 -0.11 -0.51 2818
0.00 0.00 2.23 0.90 8.70 0.14 -0.04 -0.60 2825
0.00 0.00 2.31 2.02 8.20 0.13 -0.03 -0.66 2832
0.00 -0.00 2.39 2.43 7.78 0.11 -0.07 -0.68 2839
0.01 -0.00 1.44 0.04 7.75 -0.01 -0.05 -0.67 2846
0.00 -0.00 0.60 1.45 10.12 -0.05 -0.08 -0.62 2853
0.00 0.00 1.43 0.44 8.45 -0.12 -0.05 -0.61 2861
0.00 0.00 1.71 0.90 8.87 -0.25 -0.01 -0.59 2868
0.00 0.00 1.69 0.20 9.53 -0.40 0.08 -0.55 2875
0.00 0.00 0.24 -1.09 11.28 -0.42 0.17 -0.50 2882
0.00 -0.00 0.29 -0.44 11.99 -0.50 0.24 -0.48 2889
0.00 0.00 0.77 -3.05 7.98 -0.56 0.31 -0.43 2896
0.00 0.00 1.03 -1.31 9.39 -0.59 0.38 -0.40 2904
0.00 0.00 0.17 -1.45 8.88 -0.70 0.42 -0.36 2911
0.00 0.00 0.44 -3.85 8.81 -0.70 0.35 -0.31 2918
0.00 -0.00 -0.06 -2.67 10.28 -0.67 0.31 -0.26 2925
0.00 -0.00 0.20 -3.56 7.98 -0.62 0.26 -0.20 2932
0.00 0.00 1.17 -3.53 8.16 -0.54 0.24 -0.16 2939
0.00 0.00 0.07 -5.28 8.45 -0.45 0.22 -0.12 2947
0.00 0.00 -0.06 -4.43 9.79 -0.40 0.22 -0.12 2954
0.00 0.00 -1.65 -5.60 10.00 -0.32 0.19 -0.16 2961
0.00 0.00 -1.81 -5.02 9.02 -0.30 0.15 -0.16 2968
0.00 0.00 0.24 -5.91 10.91 -0.33 0.19 -0.22 2975
0.00 0.00 -1.31 -5.28 11.05 -0.30 0.13 -0.24 2982
0.00 0.00 -0.80 -4.96 9.74 -0.28 0.08 -0.30 2990
0.00 0.00 -0.36 -4.39 8.95 -0.37 0.09 -0.33 2997
0.00 0.00 -0.86 -7.06 8.61 -0.41 0.04 -0.33 3004
0.01 -0.00 -0.15 -4.41 10.43 -0.44 0.03 -0.33 3011
0.00 0.00 -0.70 -3.08 9.19 -0.37 0.02 -0.33 3018
0.00 0.00 0.65 -3.19 8.21 -0.39 0.01 -0.30 3025
0.00 0.00 0.18 -1.68 8.85 -0.31 0.03 -0.29 3033
0.00 0.00 0.25 -1.83 7.78 -0.28 -0.02 -0.24 3040
0.00 0.00 -0.51 -1.74 8.20 -0.29 -0.00 -0.21 3047
0.00 -0.00 -1.50 -6.89 9.16 -0.31 -0.04 -0.18 3054
0.00 0.00 0.54 -0.57 11.15 -0.33 -0.09 -0.18 3061
0.00 0.00 0.09 -3.26 9.71 -0.38 -0.13 -0.15 3068
0.00 0.00 -3.82 -5.87 8.65 -0.42 -0.10 -0.16 3076
0.00 0.00 0.32 -4.08 9.57 -0.50 -0.11 -0.17 3083
0.00 0.00 1.31 -2.09 9.50 -0.55 -0.08 -0.17 3090
0.00 0.00 0.66 -2.92 9.64 -0.58 0.01 -0.13 3097
0.00 0.00 2.03 -1.18 9.84 -0.60 0.14 -0.07 3104
0.00 0.00 1.27 -2.68 8.05 -0.59 0.17 -0.03 3111
0.00 0.00 1.00 -2.05 8.94 -0.59 0.17 0.03 3119
0.00 0.00 -0.35 -2.15 8.64 -0.57 0.18 0.12 3126
0.00 0.00 -0.99 -1.82 10.92 -0.60 0.25 0.20 3133
0.00 0.00 0.34 -1.72 10.37 -0.60 0.18 0.25 3140
0.00 0.00 1.42 -2.01 9.38 -0.58 0.12 0.28 3147
0.00 0.00 -0.30 -2.82 9.17 -0.60 0.10 0.32 3154
0.00 0.00 1.39 -2.19 9.54 -0.52 0.13 0.31 3162
0.00 0.00 0.26 -3.18 9.19 -0.48 0.15 0.29 3169
0.00 0.00 0.84 -2.66 9.16 -0.46 0.18 0.25 3176
0.00 0.00 1.19 -2.58 11.70 -0.49 0.27 0.19 3183
0.00 0.00 0.46 -2.02 8.92 -0.49 0.30 0.16 3190
0.00 0.00 -0.27 -3.28 10.95 -0.53 0.36 0.15 3197
0.00 0.00 0.97 -1.81 9.92 -0.49 0.33 0.14 3205
-0.00 0.00 0.33 -2.85 9.74 -0.52 0.32 0.16 3212
0.00 0.00 1.52 -2.80 9.70 -0.49 0.30 0.16 3219
0.00 0.00 -0.09 -4.36 10.22 -0.51 0.28 0.16 3226
0.00 0.00 0.07 -4.08 9.07 -0.46 0.27 0.13 3233
0.00 0.00 -1.02 -5.39 8.09 -0.45 0.27 0.10 3240
0.00 0.00 1.54 -2.99 11.15 -0.46 0.27 0.04 3248
0.00 0.00 -0.92 -5.68 8.65 -0.40 0.27 -0.05 3255
0.00 -0.00 1.25 -3.23 10.64 -0.40 0.31 -0.11 3262
0.00 0.00 -1.24 -3.81 9.92 -0.42 0.29 -0.21 3269
0.00 0.00 -0.26 -3.84 10.93 -0.44 0.27 -0.29 3276
0.00 0.00 0.70 -5.18 7.61 -0.43 0.24 -0.35 3283
0.00 0.00 1.91 -3.30 7.64 -0.44 0.30 -0.37 3291
0.00 0.00 0.32 -2.92 10.04 -0.46 0.30 -0.38 3298
0.00 0.00 -0.63 -4.20 9.88 -0.46 0.29 -0.35 3305
0.00 0.00 -0.29 -1.24 8.77 -0.44 0.29 -0.30 3312
0.00 0.00 -0.20 -2.42 11.12 -0.49 0.25 -0.22 3319
0.00 0.00 0.15 -1.09 8.76 -0.48 0.21 -0.14 3326
0.00 0.00 0.60 -1.06 11.59 -0.54 0.16 -0.04 3334
0.00 -0.00 0.27 -2.00 9.19 -0.56 0.19 0.07 3341
0.00 0.00 0.82 -0.49 8.67 -0.60 0.21 0.19 3348
0.00 0.00 1.21 -1.59 9.94 -0.67 0.25 0.30 3355
0.00 0.00 1.61 -1.72 9.24 -0.69 0.36 0.42 3362
0.00 0.00 1.55 -2.14 9.30 -0.70 0.42 0.53 3369
0.00 0.00 1.06 -2.45 9.14 -0.69 0.49 0.65 3377
0.00 0.00 0.92 -2.02 9.30 -0.69 0.49 0.75 3384
0.00 0.00 0.91 -1.85 9.25 -0.68 0.46 0.83 3391
0.00 0.00 0.58 -2.33 9.40 -0.69 0.45 0.89 3398
0.00 0.00 0.58 -1.95 9.75 -0.72 0.43 0.96 3405
0.00 0.00 0.58 -2.69 9.92 -0.77 0.39 0.95 3412
0.00 0.00 -0.27 -2.63 10.09 -0.81 0.31 0.94 3420
0.00 -0.00 0.49 -2.36 10.04 -0.86 0.26 0.92 3427
0.00 0.00 -0.26 -3.43 9.53 -0.93 0.19 0.88 3434
0.00 0.00 0.21 -3.58 9.39 -0.88 0.14 0.80 3441
0.00 0.00 0.60 -3.44 9.18 -0.82 0.15 0.74 3448
0.00 0.00 -0.71 -6.40 10.05 -0.78 0.12 0.61 3456
0.00 0.00 -1.87 -5.34 9.41 -0.70 -0.08 0.42 3463
0.00 0.00 -2.88 -6.01 9.53 -0.61 -0.33 0.18 3470
0.00 0.00 -2.45 -6.63 9.52 -0.53 -0.44 -0.02 3477
0.00 0.00 -3.48 -7.74 9.27 -0.45 -0.55 -0.22 3484
0.00 0.00 -2.81 -8.26 9.90 -0.38 -0.65 -0.45 3491
0.00 0.00 -3.71 -9.84 10.22 -0.21 -0.79 -0.66 3499
0.00 0.00 -2.46 -10.43 9.75 -0.16 -0.69 -0.83 3506
0.00 0.00 -2.85 -14.36 11.06 -0.01 -0.42 -0.89 3513
0.00 -0.00 -0.73 -11.99 7.94 -0.04 -0.22 -0.91 3520
0.00 0.00 -2.93 -12.93 10.97 -0.12 -0.17 -0.82 3527
-0.00 0.01 -3.07 -5.58 8.70 -0.10 -0.09 -0.49 3534
-0.00 0.03 -1.27 -1.97 9.71 -0.16 -0.04 -0.07 3542
0.01 0.02 0.75 -1.68 9.86 -0.23 0.01 0.05 3549
0.01 0.01 0.29 -0.47 10.01 -0.18 -0.02 0.01 3556
0.00 0.00 0.19 -0.53 9.71 -0.17 0.02 -0.04 3563
0.02 0.01 0.31 -0.56 9.61 -0.18 0.04 -0.06 3570
-0.00 0.01 0.48 -0.56 9.79 -0.17 0.07 -0.06 3577
0.02 0.03 0.34 -0.74 9.85 -0.16 0.08 -0.05 3585
0.07 0.07 0.23 -0.78 9.97 -0.14 0.09 -0.05 3592
0.04 0.12 0.17 -0.83 10.00 -0.12 0.09 -0.05 3599
0.06 0.18 0.33 -0.91 10.10 -0.09 0.10 -0.05 3606
0.05 0.13 0.36 -0.88 10.09 -0.07 0.11 -0.05 3613
0.05 0.15 0.48 -0.92 10.01 -0.06 0.11 -0.05 3620
0.03 0.17 0.54 -0.87 9.90 -0.04 0.10 -0.05 3628
0.04 0.16 0.50 -0.86 10.01 -0.04 0.09 -0.04 3635
0.03 0.14 0.55 -0.89 9.89 -0.03 0.09 -0.05 3642
0.01 0.19 0.52 -0.88 9.24 -0.03 0.07 -0.05 3649
0.00 0.20 0.49 -0.89 9.74 -0.03 0.06 -0.06 3656
0.01 0.17 0.46 -0.96 9.81 -0.03 0.06 -0.06 3663
0.02 0.19 0.43 -0.92 9.78 -0.04 0.05 -0.07 3671
0.03 0.16 0.40 -0.90 9.78 -0.04 0.05 -0.07 3678
0.01 0.19 0.39 -0.87 9.81 -0.04 0.06 -0.06 3685
0.01 0.21 0.40 -0.84 9.73 -0.03 0.06 -0.06 3692
0.00 0.23 0.38 -0.82 9.77 -0.04 0.06 -0.06 3699
0.02 0.26 0.43 -0.79 9.78 -0.03 0.06 -0.06 3706
0.03 0.25 0.44 -0.83 9.83 -0.03 0.07 -0.06 3714
0.03 0.26 0.42 -0.87 9.81 -0.03 0.06 -0.06 3721
0.03 0.24 0.46 -0.85 9.85 -0.03 0.07 -0.06 3728
0.04 0.25 0.40 -0.86 9.75 -0.03 0.06 -0.06 3735
0.05 0.27 0.47 -0.85 10.38 -0.03 0.06 -0.06 3742
0.05 0.29 0.48 -0.85 9.80 -0.03 0.05 -0.06 3749
0.06 0.29 0.46 -0.85 9.83 -0.03 0.05 -0.06 3757
0.07 0.28 0.50 -0.87 9.84 -0.03 0.05 -0.07 3764
0.07 0.29 0.43 -0.84 9.83 -0.02 0.05 -0.07 3771
0.06 0.28 0.45 -0.83 9.84 -0.02 0.05 -0.07 3778
0.04 0.30 0.44 -0.85 9.83 -0.01 0.05 -0.07 3785
0.06 0.32 0.40 -0.85 9.82 -0.01 0.05 -0.07 3792
0.06 0.28 0.44 -0.86 9.86 -0.01 0.05 -0.07 3800
0.05 0.29 0.43 -0.86 9.82 -0.01 0.05 -0.07 3807
0.06 0.27 0.44 -0.84 9.82 -0.00 0.05 -0.08 3814
0.06 0.27 0.44 -0.86 9.81 0.00 0.05 -0.08 3821
0.07 0.25 0.46 -0.86 9.78 0.00 0.06 -0.08 3828
0.11 0.26 0.42 -0.86 9.82 0.01 0.05 -0.08 3835
0.12 0.24 0.47 -0.86 9.82 0.01 0.06 -0.08 3843
0.13 0.22 0.45 -0.89 9.81 0.01 0.06 -0.08 3850
0.13 0.21 0.46 -0.84 9.82 0.01 0.06 -0.08 3857
0.12 0.22 0.46 -0.86 9.81 0.01 0.06 -0.08 3864
0.15 0.23 0.45 -0.89 10.41 0.01 0.05 -0.08 3871
0.15 0.24 0.45 -0.84 9.81 0.01 0.05 -0.08 3878
0.17 0.23 0.46 -0.87 9.79 0.01 0.05 -0.08 3886
0.16 0.21 0.48 -0.86 9.80 0.01 0.05 -0.08 3893
0.17 0.17 0.46 -0.85 9.80 0.01 0.05 -0.09 3900
0.15 0.19 0.44 -0.89 9.80 0.01 0.06 -0.08 3907
0.15 0.18 0.45 -0.90 9.79 0.01 0.05 -0.08 3914
0.14 0.18 0.43 -0.86 9.80 0.01 0.06 -0.08 3921
0.15 0.16 0.48 -0.89 9.81 0.01 0.05 -0.08 3929
0.14 0.14 0.42 -0.84 9.80 0.01 0.05 -0.08 3936
0.14 0.11 0.44 -0.88 9.78 0.01 0.05 -0.08 3943
0.14 0.14 0.48 -0.87 9.81 0.01 0.05 -0.08 3950
0.15 0.14 0.46 -0.87 9.82 0.01 0.05 -0.08 3957
0.17 0.14 0.49 -0.89 10.41 0.01 0.06 -0.08 3964
0.18 0.13 0.47 -0.89 9.81 0.01 0.05 -0.08 3972
0.19 0.12 0.45 -0.92 9.77 0.01 0.05 -0.08 3979
0.20 0.09 0.46 -0.88 9.82 0.01 0.05 -0.08 3986
0.21 0.10 0.48 -0.89 9.79 0.01 0.06 -0.08 3993
0.23 0.13 0.46 -0.90 9.81 0.01 0.05 -0.08 4000
0.26 0.09 0.49 -0.90 9.78 0.01 0.06 -0.08 4007
0.28 0.09 0.49 -0.91 9.80 0.01 0.06 -0.08 4015
0.28 0.08 0.46 -0.88 9.79 0.01 0.05 -0.08 4022
0.30 0.06 0.47 -0.91 9.82 0.01 0.05 -0.08 4029
0.30 0.05 0.48 -0.84 9.81 0.01 0.06 -0.08 4036
0.33 0.05 0.52 -0.91 9.80 0.02 0.06 -0.08 4043
0.33 0.05 0.49 -0.87 9.79 0.02 0.06 -0.08 4050
0.33 0.02 0.51 -0.95 9.83 0.02 0.06 -0.08 4058
0.34 0.00 0.47 -0.90 9.79 0.02 0.06 -0.08 4065
0.33 -0.02 0.48 -0.89 9.81 0.02 0.06 -0.08 4072
0.33 -0.02 0.46 -0.94 9.81 0.02 0.06 -0.07 4079
0.31 -0.00 0.51 -0.91 9.82 0.02 0.06 -0.08 4086
0.31 0.00 0.48 -0.95 9.79 0.02 0.06 -0.08 4093
0.33 -0.00 0.50 -0.91 9.80 0.02 0.06 -0.08 4101
0.32 -0.01 0.50 -0.93 9.82 0.02 0.06 -0.08 4108
0.31 0.01 0.49 -0.97 9.78 0.02 0.06 -0.08 4115
0.31 -0.01 0.50 -0.93 9.80 0.03 0.07 -0.08 4122
0.31 0.01 0.46 -0.96 9.20 0.03 0.06 -0.08 4129
0.32 -0.02 0.50 -0.91 9.81 0.03 0.06 -0.08 4136
0.32 -0.01 0.50 -0.91 9.81 0.03 0.07 -0.08 4144
0.31 -0.02 0.51 -0.95 9.77 0.03 0.06 -0.08 4151
0.32 -0.02 0.51 -0.94 9.79 0.03 0.07 -0.08 4158
0.34 -0.01 0.51 -0.94 9.76 0.04 0.07 -0.08 4165
0.35 -0.02 0.52 -0.96 9.80 0.04 0.08 -0.08 4172
0.36 -0.02 0.52 -0.96 9.79 0.04 0.08 -0.08 4179
0.35 -0.02 0.55 -1.01 9.81 0.05 0.09 -0.08 4187
0.35 -0.02 0.57 -0.98 9.79 0.05 0.09 -0.08 4194
0.36 -0.00 0.50 -0.96 9.83 0.07 0.10 -0.08 4201
0.39 -0.01 0.50 -1.02 9.83 0.08 0.10 -0.08 4208
0.42 -0.03 0.52 -1.01 9.86 0.09 0.11 -0.08 4215
0.45 -0.03 0.54 -1.01 9.85 0.12 0.13 -0.08 4222
0.47 -0.02 0.53 -1.02 9.92 0.14 0.16 -0.08 4230
0.50 -0.03 0.56 -1.01 10.03 0.18 0.18 -0.07 4237
0.52 -0.03 0.50 -1.09 10.00 0.23 0.22 -0.07 4244
0.55 -0.02 0.59 -1.11 10.03 0.29 0.26 -0.07 4252
0.59 -0.03 0.63 -0.99 10.09 0.37 0.29 -0.07 4258
0.56 -0.02 0.67 -1.13 10.04 0.45 0.30 -0.08 4265
0.56 -0.04 0.74 -1.20 10.15 0.53 0.30 -0.08 4273
0.56 -0.03 0.65 -1.21 10.30 0.62 0.29 -0.10 4281
0.57 -0.03 0.80 -1.20 10.35 0.69 0.28 -0.11 4288
0.58 -0.02 0.69 -1.24 10.38 0.75 0.26 -0.12 4295
0.60 -0.03 0.79 -1.37 10.54 0.80 0.25 -0.13 4301
0.59 -0.03 0.75 -1.42 10.54 0.84 0.23 -0.13 4310
0.58 -0.04 0.74 -1.47 10.77 0.90 0.20 -0.14 4316
0.57 -0.03 0.81 -1.49 10.59 0.96 0.17 -0.15 4324
0.58 -0.03 0.95 -1.80 10.73 1.03 0.14 -0.15 4331
0.57 -0.02 0.86 -1.65 10.59 1.09 0.10 -0.17 4338
0.56 -0.02 0.78 -1.88 10.77 1.15 0.04 -0.16 4345
0.54 -0.03 0.52 -1.89 11.08 1.22 0.04 -0.14 4353
0.52 -0.04 0.74 -1.87 11.03 1.30 0.03 -0.13 4359
0.48 -0.03 0.85 -2.12 11.06 1.37 0.01 -0.14 4367
0.43 -0.02 0.86 -2.14 11.12 1.48 -0.00 -0.15 4374
0.40 -0.03 0.69 -2.28 10.94 1.57 -0.03 -0.15 4381
0.37 -0.03 0.69 -2.33 10.68 1.65 -0.04 -0.14 4388
0.34 -0.02 0.74 -2.51 10.57 1.73 -0.05 -0.13 4396
0.32 -0.02 0.68 -2.87 10.07 1.78 -0.06 -0.13 4403
0.26 -0.02 0.50 -2.78 10.80 1.79 -0.11 -0.11 4410
0.24 -0.01 0.72 -2.92 10.11 1.84 -0.07 -0.12 4417
0.24 -0.02 0.51 -2.91 9.97 1.90 -0.16 -0.11 4423
0.18 -0.02 0.74 -3.19 10.09 1.91 -0.09 -0.11 4430
0.19 -0.02 0.50 -3.48 10.17 1.92 -0.13 -0.10 4438
0.10 -0.01 0.56 -3.57 10.00 1.94 -0.14 -0.09 4445
0.12 -0.01 0.66 -3.90 9.72 1.94 -0.12 -0.07 4452
0.09 -0.01 0.71 -4.05 9.81 1.91 -0.10 -0.08 4459
0.11 -0.01 0.72 -4.28 9.71 1.86 -0.09 -0.08 4466
0.10 -0.01 0.79 -4.47 9.92 1.81 -0.09 -0.09 4473
0.08 -0.01 0.91 -4.65 9.79 1.73 -0.10 -0.09 4481
0.07 -0.01 1.06 -4.73 9.75 1.67 -0.11 -0.11 4488
0.10 -0.01 0.90 -4.88 9.87 1.61 -0.13 -0.16 4495
0.10 -0.00 0.79 -4.76 9.81 1.54 -0.19 -0.16 4502
0.11 -0.01 0.44 -4.83 9.48 1.45 -0.30 -0.17 4509
0.10 -0.01 0.22 -4.98 9.35 1.32 -0.35 -0.17 4516
0.10 -0.01 0.19 -4.99 9.82 1.20 -0.46 -0.17 4524
0.07 -0.01 0.15 -4.94 10.32 1.04 -0.56 -0.17 4531
0.07 -0.01 0.39 -5.06 10.34 0.90 -0.66 -0.17 4538
0.05 -0.01 0.68 -4.92 10.03 0.80 -0.74 -0.16 4545
0.05 -0.01 0.90 -4.37 9.58 0.72 -0.77 -0.17 4552
0.02 -0.00 1.15 -3.48 8.76 0.67 -0.80 -0.18 4559
0.00 -0.00 1.47 -2.54 7.38 0.61 -0.78 -0.19 4567
0.03 -0.00 1.65 -2.64 7.02 0.47 -0.72 -0.19 4574
0.03 -0.00 1.52 -2.08 7.03 0.34 -0.63 -0.20 4581
0.00 -0.00 1.49 -3.11 6.82 0.20 -0.57 -0.23 4588
0.00 -0.00 1.96 -1.47 7.33 0.10 -0.55 -0.28 4595
0.00 -0.00 2.21 -1.16 7.46 0.02 -0.51 -0.33 4602
0.00 0.00 2.40 0.37 8.21 -0.10 -0.43 -0.38 4610
0.00 0.00 2.40 4.44 8.64 -0.25 -0.32 -0.41 4617
0.00 0.00 2.00 2.78 7.35 -0.44 -0.24 -0.44 4624
0.01 -0.00 1.84 1.22 7.66 -0.47 -0.19 -0.46 4631
0.00 0.00 1.96 2.85 9.61 -0.43 -0.11 -0.47 4638
0.00 0.00 1.81 1.96 8.46 -0.45 -0.06 -0.48 4645
0.00 0.00 1.97 2.76 9.09 -0.52 0.02 -0.48 4653
0.00 0.00 1.91 1.36 8.08 -0.60 0.09 -0.49 4660
0.00 0.00 1.69 1.49 9.04 -0.71 0.20 -0.51 4667
0.00 -0.00 1.37 0.66 8.76 -0.79 0.32 -0.55 4674
0.00 0.00 1.15 0.08 8.85 -0.83 0.45 -0.59 4681
0.00 0.00 0.57 -0.57 8.90 -0.85 0.58 -0.64 4688
0.00 0.00 0.47 -1.67 8.55 -0.85 0.68 -0.72 4696
0.00 0.00 0.02 -1.88 8.72 -0.83 0.76 -0.78 4703
0.00 0.00 0.59 -3.20 8.59 -0.79 0.80 -0.84 4710
0.00 -0.00 -0.07 -4.45 8.78 -0.78 0.85 -0.89 4717
0.00 0.00 -1.82 -6.42 10.45 -0.73 0.84 -0.92 4724
0.00 0.00 -0.93 -4.58 10.70 -0.79 0.81 -0.95 4731
0.00 0.00 -0.56 -5.65 8.20 -0.72 0.66 -0.95 4739
0.00 0.00 -0.57 -4.51 7.93 -0.82 0.52 -0.88 4746
0.00 0.00 -1.25 -4.67 9.68 -0.79 0.38 -0.82 4753
0.00 -0.00 -2.12 -3.50 10.84 -0.88 0.19 -0.72 4760
0.00 0.00 -0.40 -2.78 10.32 -0.82 0.06 -0.62 4767
0.00 0.00 -1.13 -4.89 7.95 -0.87 0.00 -0.52 4774
0.00 0.00 0.17 -2.11 11.02 -0.84 0.03 -0.40 4782
0.00 0.00 -0.41 -3.51 7.58 -0.81 -0.01 -0.27 4789
0.01 -0.00 -0.74 -5.69 9.65 -0.81 0.03 -0.18 4796
0.01 -0.00 0.74 -3.99 6.73 -0.75 0.00 -0.10 4803
0.00 0.00 1.41 -3.16 10.06 -0.67 0.04 -0.03 4810
0.00 0.00 -2.04 -6.22 9.31 -0.65 -0.02 0.04 4817
0.00 0.00 0.32 -3.22 11.32 -0.58 0.02 0.09 4825
0.00 0.00 -1.47 -6.93 6.89 -0.60 -0.03 0.12 4832
0.01 -0.00 1.75 -4.71 10.78 -0.65 -0.00 0.14 4839
0.00 -0.00 -0.75 -4.38 9.88 -0.65 -0.03 0.19 4846
0.00 0.00 -0.75 -2.61 8.89 -0.65 -0.04 0.25 4853
0.00 0.00 1.86 -5.51 10.56 -0.63 -0.07 0.32 4860
0.00 0.00 0.50 -3.64 8.27 -0.61 -0.05 0.38 4868
0.00 0.00 1.20 -2.63 8.20 -0.61 -0.03 0.47 4875
0.01 -0.00 1.98 -3.66 9.76 -0.59 -0.03 0.51 4882
0.00 -0.00 0.66 -3.11 9.82 -0.60 0.01 0.57 4889
0.00 0.00 1.06 -2.18 8.88 -0.64 0.03 0.61 4896
0.00 0.00 1.46 -2.13 8.88 -0.60 0.07 0.67 4903
0.00 0.00 0.91 -2.59 8.22 -0.59 0.06 0.73 4911
0.00 0.00 1.31 -2.42 9.24 -0.61 0.10 0.76 4918
0.01 -0.00 1.15 -1.99 9.52 -0.63 0.14 0.75 4925
0.00 0.00 0.90 -2.25 9.52 -0.64 0.16 0.74 4932
0.00 0.00 0.95 -2.18 9.51 -0.68 0.18 0.71 4939
0.00 0.00 0.84 -2.38 9.78 -0.71 0.21 0.66 4946
0.00 0.00 0.71 -2.71 9.83 -0.74 0.22 0.61 4954
0.00 -0.00 0.42 -2.83 9.69 -0.77 0.25 0.57 4961
0.01 -0.00 0.07 -2.81 9.37 -0.79 0.28 0.52 4968
0.00 0.00 -0.09 -2.74 9.31 -0.79 0.27 0.48 4975
0.00 0.00 -0.15 -2.61 9.28 -0.78 0.22 0.45 4982
0.00 0.00 0.60 -2.52 9.25 -0.77 0.18 0.41 4989
0.00 0.00 0.18 -2.48 9.27 -0.76 0.13 0.39 4997
0.00 -0.00 0.40 -2.51 9.38 -0.75 0.10 0.35 5004
0.00 -0.00 0.62 -2.68 9.43 -0.73 0.10 0.32 5011
0.00 0.00 0.87 -2.77 9.38 -0.70 0.13 0.27 5018
0.00 0.00 0.89 -2.78 9.30 -0.68 0.20 0.23 5025
0.00 0.00 0.91 -2.65 9.37 -0.64 0.21 0.21 5032
0.00 0.00 0.79 -2.38 9.61 -0.62 0.25 0.20 5040
0.00 -0.00 0.73 -2.08 9.91 -0.62 0.28 0.21 5047
0.00 0.00 0.67 -1.75 10.15 -0.65 0.32 0.24 5054
0.00 0.00 0.66 -1.55 10.25 -0.71 0.39 0.30 5061
0.00 0.00 0.53 -1.87 10.27 -0.79 0.41 0.36 5068
0.00 0.00 0.29 -2.39 10.15 -0.85 0.41 0.41 5075
0.00 0.00 0.15 -2.91 9.92 -0.87 0.39 0.45 5083
0.01 -0.00 0.16 -3.22 9.72 -0.87 0.37 0.48 5090
0.00 0.00 0.20 -3.53 9.68 -0.85 0.34 0.49 5097
0.00 0.00 0.27 -3.59 9.63 -0.81 0.33 0.50 5104
0.00 0.00 0.29 -3.45 9.77 -0.77 0.32 0.49 5111
0.00 0.00 0.38 -3.36 9.83 -0.75 0.31 0.47 5118
0.00 0.00 0.24 -3.49 10.03 -0.75 0.30 0.45 5126
0.00 -0.00 -0.35 -4.15 11.29 -0.75 0.24 0.39 5133
0.00 0.00 -0.25 -5.07 10.82 -0.77 0.17 0.33 5140
0.00 0.00 -1.71 -5.96 11.78 -0.72 0.06 0.24 5147
0.00 0.00 -1.53 -6.33 10.49 -0.67 -0.12 0.14 5154
0.00 0.00 -0.86 -6.17 10.90 -0.63 -0.14 0.08 5161
0.00 0.00 -0.60 -6.97 10.27 -0.60 -0.16 -0.01 5169
0.00 0.00 -2.50 -7.01 12.59 -0.54 -0.16 -0.08 5176
0.00 0.00 0.04 -6.29 11.16 -0.55 -0.12 -0.14 5183
0.00 0.00 0.52 -5.34 8.02 -0.56 -0.10 -0.19 5190
0.00 0.00 -0.62 -5.03 7.76 -0.53 -0.11 -0.23 5197
0.00 0.00 -0.61 -6.07 6.51 -0.46 -0.13 -0.25 5204
0.00 -0.00 -2.31 -7.42 11.35 -0.40 -0.18 -0.30 5212
0.00 -0.00 -2.30 -6.15 8.88 -0.32 -0.27 -0.32 5219
0.00 0.00 -2.87 -9.54 12.26 -0.24 -0.30 -0.35 5226
0.00 0.00 -2.00 -11.51 10.95 -0.07 -0.31 -0.38 5233
0.00 0.00 -1.63 -10.85 8.54 0.02 -0.15 -0.39 5240
0.00 0.00 -3.17 -13.40 8.93 0.01 -0.05 -0.39 5248
0.00 0.00 -2.81 -13.70 8.98 0.07 -0.04 -0.44 5255
0.00 0.00 -1.90 -10.57 9.23 0.11 -0.05 -0.45 5262
0.03 -0.00 -1.63 -2.69 8.05 0.06 0.03 -0.34 5269
0.00 0.00 -1.42 -2.02 8.24 -0.21 0.07 -0.17 5276
0.00 0.00 -0.16 -0.99 10.59 -0.34 0.13 0.02 5283
0.03 0.00 0.51 -0.29 9.91 -0.19 0.17 0.07 5291
0.04 0.00 0.34 -0.02 9.51 -0.14 0.12 0.00 5298
0.02 0.01 0.03 -0.51 9.53 -0.14 0.09 -0.02 5305
0.03 -0.00 0.38 -0.75 9.53 -0.14 0.07 -0.03 5312
0.02 0.01 0.38 -0.97 9.34 -0.15 0.05 -0.03 5319
0.05 0.01 0.50 -0.95 9.82 -0.15 0.03 -0.02 5326
0.03 0.02 0.37 -0.95 9.87 -0.14 0.01 -0.04 5334
0.06 0.03 0.38 -0.98 10.02 -0.12 0.01 -0.05 5341
0.03 0.04 0.42 -0.98 10.03 -0.10 0.01 -0.06 5348
0.05 0.03 0.33 -0.85 10.03 -0.09 0.02 -0.06 5355
0.02 0.08 0.30 -0.76 9.84 -0.07 0.03 -0.10 5362
0.04 0.05 0.33 -0.78 9.93 -0.06 0.05 -0.07 5369
0.05 0.07 0.34 -0.91 9.89 -0.05 0.05 -0.07 5377
0.03 0.09 0.33 -0.85 9.86 -0.05 0.05 -0.07 5384
0.02 0.13 0.38 -0.86 9.83 -0.04 0.05 -0.07 5391
0.03 0.12 0.32 -0.86 9.74 -0.04 0.05 -0.07 5398
0.02 0.14 0.31 -0.87 9.81 -0.04 0.06 -0.07 5405
0.02 0.12 0.35 -0.86 9.82 -0.04 0.06 -0.07 5412
0.04 0.12 0.34 -0.86 9.83 -0.03 0.06 -0.07 5420
0.06 0.11 0.39 -0.84 9.81 -0.03 0.06 -0.06 5427
0.06 0.12 0.40 -0.85 9.79 -0.03 0.06 -0.06 5434
0.06 0.13 0.33 -0.86 9.77 -0.03 0.06 -0.07 5441
0.05 0.15 0.36 -0.86 9.80 -0.03 0.06 -0.07 5448
0.06 0.14 0.30 -0.87 9.82 -0.02 0.05 -0.07 5455
0.06 0.15 0.34 -0.84 9.81 -0.03 0.05 -0.07 5463
0.05 0.14 0.38 -0.85 9.82 -0.02 0.05 -0.07 5470
0.05 0.15 0.35 -0.82 9.21 -0.02 0.05 -0.06 5477
0.06 0.14 0.35 -0.87 9.81 -0.02 0.05 -0.06 5484
0.06 0.15 0.30 -0.82 9.81 -0.02 0.05 -0.06 5491
0.06 0.19 0.33 -0.86 9.82 -0.02 0.05 -0.07 5498
0.08 0.19 0.36 -0.85 9.79 -0.02 0.05 -0.07 5506
0.09 0.17 0.36 -0.86 9.21 -0.03 0.05 -0.06 5513
0.08 0.17 0.38 -0.85 9.81 -0.03 0.05 -0.07 5520
0.09 0.17 0.39 -0.84 9.74 -0.03 0.05 -0.07 5527
0.09 0.21 0.37 -0.86 9.81 -0.02 0.05 -0.07 5534
0.09 0.21 0.37 -0.83 9.77 -0.02 0.04 -0.07 5541
0.12 0.18 0.29 -0.83 9.83 -0.02 0.05 -0.08 5549
0.12 0.19 0.34 -0.82 9.80 -0.02 0.05 -0.07 5556
0.11 0.18 0.36 -0.80 9.82 -0.01 0.05 -0.07 5563
0.10 0.17 0.41 -0.79 9.83 -0.01 0.05 -0.07 5570
0.10 0.17 0.38 -0.82 9.82 -0.01 0.05 -0.07 5577
0.10 0.18 0.35 -0.82 9.81 -0.00 0.05 -0.07 5584
0.13 0.17 0.36 -0.83 9.82 -0.00 0.04 -0.07 5592
0.11 0.16 0.34 -0.82 9.82 0.00 0.05 -0.08 5599
0.12 0.14 0.35 -0.83 9.82 0.00 0.05 -0.08 5606
0.11 0.15 0.37 -0.82 9.81 0.01 0.05 -0.08 5613
0.14 0.15 0.38 -0.85 9.82 0.01 0.05 -0.08 5620
0.17 0.16 0.36 -0.86 9.80 0.01 0.05 -0.08 5627
0.17 0.16 0.39 -0.84 9.78 0.01 0.05 -0.08 5635
0.18 0.15 0.39 -0.82 9.21 0.01 0.05 -0.07 5642
0.19 0.14 0.39 -0.83 9.82 0.02 0.05 -0.08 5649
0.19 0.12 0.37 -0.85 9.82 0.01 0.05 -0.08 5656
0.20 0.13 0.40 -0.86 9.84 0.02 0.05 -0.08 5663
0.22 0.11 0.37 -0.87 9.78 0.02 0.05 -0.08 5670
0.21 0.11 0.37 -0.87 9.80 0.01 0.06 -0.08 5678
0.21 0.10 0.41 -0.88 9.78 0.01 0.05 -0.08 5685
0.21 0.09 0.33 -0.87 9.78 0.01 0.05 -0.08 5692
0.22 0.08 0.39 -0.86 9.80 0.01 0.05 -0.08 5699
0.24 0.09 0.37 -0.84 9.81 0.01 0.05 -0.08 5706
0.26 0.08 0.37 -0.88 9.82 0.01 0.05 -0.08 5713
0.27 0.06 0.41 -0.82 9.78 0.00 0.05 -0.08 5721
0.27 0.06 0.38 -0.86 9.79 0.00 0.05 -0.08 5728
0.27 0.06 0.39 -0.87 9.79 0.01 0.05 -0.08 5735
0.27 0.06 0.39 -0.91 9.80 0.01 0.05 -0.08 5742
0.28 0.05 0.38 -0.87 9.80 0.01 0.05 -0.08 5749
0.28 0.05 0.42 -0.87 9.78 0.01 0.05 -0.08 5756
0.28 0.04 0.39 -0.84 9.78 0.00 0.05 -0.08 5764
0.28 0.03 0.39 -0.88 9.80 -0.00 0.05 -0.08 5771
0.28 0.03 0.39 -0.87 9.81 0.00 0.05 -0.08 5778
0.29 0.04 0.38 -0.89 9.81 -0.00 0.05 -0.08 5785
0.30 0.04 0.39 -0.87 9.82 0.00 0.05 -0.08 5792
0.31 0.02 0.37 -0.87 9.82 0.00 0.05 -0.08 5799
0.30 0.02 0.38 -0.88 9.82 0.00 0.05 -0.08 5807
0.31 0.01 0.42 -0.89 9.80 -0.00 0.05 -0.08 5814
0.30 0.02 0.37 -0.86 9.79 0.00 0.05 -0.08 5821
0.32 0.02 0.37 -0.88 9.82 0.00 0.05 -0.08 5828
0.31 0.03 0.36 -0.86 9.81 0.00 0.05 -0.08 5835
0.31 0.01 0.40 -0.86 9.76 0.00 0.06 -0.08 5842
0.32 -0.01 0.40 -0.88 9.79 0.01 0.06 -0.08 5850
0.32 -0.02 0.42 -0.89 9.80 0.01 0.06 -0.08 5857
0.33 -0.01 0.38 -0.86 9.76 0.01 0.06 -0.08 5864
0.33 0.00 0.39 -0.87 9.78 0.01 0.06 -0.08 5871
0.34 -0.01 0.38 -0.88 9.81 0.01 0.06 -0.08 5878
0.34 -0.01 0.39 -0.88 9.81 0.01 0.06 -0.08 5885
0.33 -0.01 0.43 -0.87 9.82 0.01 0.06 -0.08 5893
0.33 -0.01 0.36 -0.90 9.81 0.01 0.06 -0.08 5900
0.33 -0.01 0.40 -0.89 9.80 0.01 0.06 -0.08 5907
0.34 0.01 0.46 -0.91 9.81 0.01 0.07 -0.08 5914
0.35 -0.00 0.41 -0.89 9.80 0.01 0.07 -0.08 5921
0.35 -0.00 0.40 -0.90 9.81 0.02 0.07 -0.08 5928
0.35 -0.02 0.42 -0.89 9.84 0.02 0.07 -0.08 5936
0.32 -0.00 0.41 -0.85 9.81 0.02 0.08 -0.08 5943
0.33 -0.01 0.40 -0.88 9.80 0.02 0.08 -0.08 5950
0.34 0.00 0.42 -0.94 9.82 0.03 0.09 -0.08 5957
0.34 -0.01 0.45 -0.91 9.81 0.03 0.09 -0.08 5964
0.34 -0.02 0.41 -0.87 9.80 0.04 0.09 -0.08 5971
0.34 -0.02 0.41 -0.93 9.81 0.04 0.10 -0.08 5979
0.31 -0.02 0.46 -0.91 9.81 0.04 0.10 -0.07 5986
0.32 -0.02 0.45 -0.91 9.21 0.05 0.11 -0.08 5993
0.32 -0.01 0.43 -0.90 9.82 0.06 0.12 -0.07 6000
0.33 -0.02 0.43 -0.97 9.81 0.07 0.12 -0.08 6007
0.34 -0.01 0.42 -0.91 9.81 0.07 0.14 -0.07 6014
0.32 -0.03 0.46 -0.93 9.80 0.08 0.14 -0.07 6022
0.31 -0.02 0.52 -0.91 9.82 0.08 0.15 -0.07 6029
0.31 -0.02 0.51 -0.91 9.82 0.10 0.16 -0.07 6036
0.35 -0.02 0.52 -0.96 9.88 0.11 0.18 -0.07 6043
0.36 -0.02 0.51 -0.96 9.97 0.15 0.21 -0.07 6050
0.35 -0.02 0.56 -0.96 9.96 0.19 0.24 -0.07 6057
0.37 -0.02 0.64 -0.92 9.99 0.25 0.27 -0.07 6065
0.36 -0.02 0.68 -0.97 10.39 0.34 0.31 -0.09 6073
0.36 -0.01 0.03 -1.00 10.39 0.45 0.34 -0.10 6079
0.36 -0.02 0.73 -1.05 10.68 0.62 0.35 -0.10 6087
0.35 -0.02 0.79 -1.18 11.14 0.77 0.33 -0.12 6094
0.35 -0.03 0.84 -0.63 11.30 0.94 0.31 -0.13 6102
0.35 -0.02 0.77 -1.32 11.75 1.08 0.25 -0.15 6109
0.33 -0.01 0.90 -1.37 11.16 1.17 0.15 -0.16 6116
0.32 -0.01 0.80 -1.46 11.50 1.24 0.10 -0.17 6123
0.33 -0.02 0.85 -1.51 10.68 1.30 0.04 -0.18 6130
0.32 -0.02 0.43 -1.56 10.80 1.34 -0.01 -0.17 6137
0.32 -0.03 0.55 -1.74 10.65 1.39 -0.05 -0.16 6145
0.28 -0.02 0.51 -1.83 10.21 1.41 -0.08 -0.14 6152
0.28 -0.02 0.51 -1.94 10.18 1.43 -0.10 -0.13 6159
0.24 -0.01 0.53 -2.06 10.03 1.44 -0.12 -0.12 6166
0.24 -0.02 0.39 -2.13 9.81 1.45 -0.13 -0.10 6172
0.21 -0.02 0.46 -2.28 9.69 1.42 -0.14 -0.09 6179
0.19 -0.02 0.55 -2.41 9.64 1.41 -0.12 -0.08 6187
0.19 -0.01 0.69 -2.52 9.14 1.40 -0.10 -0.08 6194
0.19 -0.01 0.66 -2.82 9.50 1.34 -0.14 -0.07 6201
0.16 -0.01 0.77 -2.85 9.37 1.33 -0.07 -0.07 6208
0.13 -0.01 0.69 -2.90 9.18 1.33 -0.10 -0.09 6215
0.12 -0.01 0.72 -3.11 9.18 1.31 -0.09 -0.09 6222
0.09 -0.01 0.68 -3.16 9.15 1.28 -0.09 -0.11 6230
0.09 -0.01 0.66 -3.26 9.24 1.25 -0.11 -0.12 6237
0.08 -0.01 0.04 -3.29 9.18 1.22 -0.12 -0.13 6244
0.09 -0.01 0.60 -3.36 9.28 1.20 -0.13 -0.13 6251
0.08 -0.01 0.58 -3.56 9.35 1.19 -0.13 -0.13 6258
0.06 -0.01 0.52 -3.69 9.40 1.18 -0.13 -0.12 6265
0.11 -0.01 0.50 -3.91 9.51 1.16 -0.13 -0.13 6273
0.10 -0.01 0.44 -4.00 9.56 1.15 -0.11 -0.13 6280
0.08 -0.00 0.49 -4.05 9.40 1.13 -0.07 -0.12 6287
0.09 -0.01 0.51 -4.24 9.24 1.09 -0.05 -0.12 6294
0.09 -0.01 0.57 -4.31 9.25 1.05 -0.03 -0.13 6301
0.08 -0.01 0.70 -4.47 9.42 1.00 -0.01 -0.13 6308
0.08 -0.01 0.85 -4.59 9.51 0.97 -0.01 -0.14 6316
0.07 -0.01 0.98 -4.55 9.61 0.93 0.02 -0.16 6323
0.06 -0.01 1.24 -4.85 10.21 0.90 0.05 -0.18 6330
0.07 -0.01 1.15 -4.85 10.42 0.87 0.04 -0.22 6337
0.07 -0.01 1.33 -4.88 10.08 0.85 0.04 -0.26 6344
0.06 -0.01 1.56 -4.84 9.75 0.82 0.02 -0.30 6351
0.04 -0.00 1.70 -4.81 9.76 0.76 0.01 -0.35 6359
0.02 -0.00 1.56 -4.72 9.71 0.72 0.00 -0.39 6366
0.02 -0.00 1.29 -4.48 9.57 0.70 -0.02 -0.44 6373
0.02 -0.00 1.01 -4.37 9.49 0.67 -0.08 -0.47 6380
0.00 0.00 0.88 -4.19 9.45 0.66 -0.15 -0.50 6387
0.00 0.00 0.82 -3.84 9.07 0.64 -0.19 -0.52 6394
0.00 0.00 0.86 -3.22 8.79 0.59 -0.22 -0.53 6402
0.00 0.00 0.94 -2.91 8.39 0.55 -0.24 -0.54 6409
0.01 -0.00 0.72 -2.58 8.19 0.51 -0.26 -0.55 6416
0.00 0.00 0.79 -3.28 8.18 0.44 -0.25 -0.55 6423
0.00 0.00 0.84 -3.18 8.28 0.45 -0.24 -0.57 6430
0.00 0.00 0.46 -3.48 8.03 0.44 -0.22 -0.58 6437
0.00 0.00 0.44 -3.06 7.84 0.41 -0.17 -0.57 6445
0.00 0.00 0.57 -3.88 7.86 0.34 -0.18 -0.58 6452
0.00 0.00 0.31 -4.65 7.84 0.28 -0.19 -0.61 6459
0.01 -0.00 0.25 -3.91 8.26 0.27 -0.22 -0.63 6466
0.00 0.00 0.83 -1.99 9.13 0.23 -0.17 -0.63 6473
0.00 -0.00 0.99 0.16 9.61 0.10 -0.03 -0.61 6480
0.00 0.00 1.10 0.00 9.28 -0.13 0.03 -0.61 6488
0.00 -0.00 0.57 -1.06 8.50 -0.25 0.05 -0.60 6495
0.00 -0.00 0.78 1.68 9.52 -0.27 0.05 -0.58 6502
0.00 0.00 0.73 1.14 8.13 -0.33 0.02 -0.55 6509
0.00 0.00 0.71 0.65 8.40 -0.38 -0.01 -0.49 6516
0.00 0.00 0.62 0.64 8.57 -0.41 -0.05 -0.38 6523
0.00 0.00 0.95 1.46 8.73 -0.44 -0.05 -0.32 6531
0.00 0.00 1.05 2.05 8.49 -0.47 -0.05 -0.23 6538
0.00 -0.00 1.19 2.22 8.21 -0.51 -0.06 -0.16 6545
0.00 0.00 1.32 2.18 8.26 -0.54 -0.03 -0.08 6552
0.00 0.00 1.23 1.94 8.33 -0.59 0.01 -0.00 6559
0.00 0.00 1.03 1.48 8.50 -0.63 0.09 -0.00 6566
0.00 0.00 0.47 -1.52 8.40 -0.65 0.20 0.00 6574
0.00 0.00 0.63 -0.24 10.45 -0.71 0.26 -0.03 6581
0.00 -0.00 -1.18 -2.46 11.83 -0.85 0.33 -0.08 6588
0.00 0.00 -1.67 -1.02 13.50 -0.82 0.31 -0.19 6595
0.00 0.00 -1.74 -7.90 6.77 -0.96 0.26 -0.19 6602
0.00 0.00 -1.01 -4.94 12.43 -0.96 0.30 -0.21 6609
0.00 0.00 -0.72 -3.65 10.45 -0.99 0.16 -0.20 6617
0.00 0.00 -2.49 -7.13 10.06 -0.98 0.14 -0.19 6624
0.00 -0.00 -1.53 -9.12 9.11 -1.00 0.07 -0.17 6631
0.00 0.00 1.38 -2.07 9.76 -0.94 0.10 -0.13 6638
0.00 0.00 -1.47 -5.37 9.24 -0.89 0.11 -0.09 6645
0.00 0.00 -0.26 -3.61 8.94 -0.82 0.08 -0.09 6652
0.00 0.00 -1.21 -6.54 7.62 -0.79 0.08 -0.06 6660
0.00 0.00 0.75 -4.12 9.11 -0.74 0.06 -0.06 6667
0.00 0.00 0.73 -3.63 8.72 -0.71 0.05 -0.08 6674
0.00 0.00 -1.22 -8.26 6.90 -0.69 -0.01 -0.13 6681
0.00 0.00 1.47 -4.52 10.38 -0.73 -0.00 -0.09 6688
0.00 0.00 -2.48 -6.34 8.75 -0.62 0.01 -0.04 6695
0.00 0.00 0.14 -4.08 8.86 -0.59 0.00 -0.03 6703
0.00 -0.00 -0.88 -6.07 10.56 -0.55 0.02 -0.01 6710
0.00 0.00 -0.79 -5.14 10.12 -0.47 0.05 -0.00 6717
0.00 0.00 -0.99 -3.64 7.68 -0.46 0.05 0.06 6724
0.00 0.00 -1.94 -4.23 13.48 -0.50 0.13 0.08 6731
0.00 0.00 Ì1 -3.96 7.62 -0.40 -0.02 0.08 6738
î0 0.00 Ë2.15 9.23 -0.50 -0.10 0.12 6746
æ1 -0.00 ˜jþ4.34 9.65 -0.45 -0.10 0.15 6753
æ0 0.00 ÿœjþ4.31 9.87 -0.49 -0.20 0.19 6760
æ0 0.00 Ë1.60 8.63 -0.52 -0.14 0.16 6767
æ0 0.00 ÿjþ4.85 10.07 -0.57 -0.12 0.22 6774
Ì0 0.00 -1.73 9.53 -0.49 -0.07 0.26 6781
æ0 0.00 ó8 -4.56 10.60 -0.50 0.02 0.25 6789
æ0 0.00 °Ë2.10 10.03 -0.45 0.12 0.27 6796
æ0 0.00 þ3 -2.87 9.64 -0.47 0.21 0.27 6803
æ0 0.00 -2.69 9.88 -0.48 0.21 0.31 6810
æ0 0.00 -2.21 9.09 -0.43 0.23 0.37 6817
æ0 0.00  -1.42 10.09 -0.45 0.18 0.37 6824
î0 0.00 æ8 -0.80 9.33 -0.44 0.16 0.39 6832
0.00 0.00 Õ4 -0.81 9.81 -0.51 0.18 0.40 6839
˜0 0.00 ˜3 -2.25 8.84 -0.53 0.17 0.41 6846
˜0 0.00 jþ1.12 9.51 -0.57 0.19 0.41 6853
˜0 0.00 Ì2 -2.34 9.49 -0.59 0.20 0.40 6860
˜0 0.00 ojþ1.33 10.60 -0.59 0.22 0.41 6867
˜0 -0.00 ~Mjþ1.60 8.46 -0.61 0.22 0.40 6875
˜0 0.00 &jþ1.79 10.32 -0.64 0.24 0.40 6882
˜0 0.00 'jþ1.82 10.27 -0.63 0.23 0.40 6889
˜0 0.00 jþ2.60 9.09 -0.64 0.22 0.40 6896
˜0 0.00 ÿjþ2.91 9.51 -0.63 0.24 0.40 6903
˜0 0.00 &jþ4.04 9.66 -0.62 0.27 0.40 6910
˜0 -0.00 š4 -4.35 9.10 -0.58 0.30 0.40 6918
˜0 0.00 þ2 -3.97 12.38 -0.56 0.33 0.40 6925
˜0 0.00 ›8 -3.82 7.83 -0.53 0.28 0.37 6932
˜0 0.00 -1.23 -5.13 10.92 -0.53 0.25 0.33 6939
Á0 0.00 ÿ&jþ6.18 9.25 -0.48 0.23 0.27 6946
æ0 0.00 ó0 -6.63 10.23 -0.45 0.19 0.22 6953
æ1 -0.00 ÿjþ4.95 11.89 -0.41 0.13 0.15 6961
Ì0 0.00 ÿjþ6.10 9.79 -0.42 0.07 0.09 6968
æ0 0.00 'jþ5.43 9.08 -0.41 0.02 0.03 6975
æ0 0.00 jþ4.33 9.26 -0.41 0.00 -0.00 6982
æ0 0.00 -5.53 8.78 -0.40 0.04 -0.03 6989
æ0 0.00 -3.72 8.86 -0.41 0.07 -0.03 6996
ó0 -0.00 jþ3.57 9.81 -0.43 0.04 -0.03 7004
Ì0 0.00 þ2 -4.62 9.87 -0.40 0.06 -0.01 7011
æ0 0.00 'jþ3.79 8.81 -0.38 0.02 0.03 7018
æ0 0.00 ÿ5jþ3.49 10.26 -0.37 -0.01 0.05 7025
Ì0 0.00 ~jþ4.42 9.85 -0.35 -0.07 0.08 7032
Á0 0.00 Ë1.48 -4.32 9.72 -0.33 -0.10 0.09 7040
0.00 0.00 Å7 -4.33 10.18 -0.34 -0.06 0.11 7047
0.00 0.00 0.77 -3.88 7.77 -0.35 -0.03 0.12 7054
0.01 -0.00 0.86 -2.03 8.66 -0.40 0.04 0.14 7061
0.00 0.00 0.81 -1.48 8.93 -0.47 0.12 0.18 7068
0.00 0.00 0.71 -0.81 9.86 -0.51 0.19 0.23 7075
0.00 -0.00 0.44 -0.51 9.85 -0.56 0.25 0.29 7083
0.00 0.00 -0.26 -0.08 9.83 -0.59 0.26 0.37 7090
0.00 0.00 -0.44 0.60 9.64 -0.65 0.22 0.41 7097
0.00 0.00 -1.01 0.44 9.07 -0.70 0.16 0.44 7104
0.00 0.00 -0.64 0.84 9.19 -0.74 0.14 0.43 7111
0.00 0.00 -0.81 0.55 8.86 -0.79 0.16 0.40 7118
0.00 0.00 -0.92 0.14 9.78 -0.82 0.21 0.33 7126
0.00 0.00 -1.01 -0.04 9.60 -0.84 0.24 0.26 7133
0.00 0.00 -1.11 -0.43 9.73 -0.86 0.25 0.18 7140
0.00 0.00 -1.00 -0.74 9.56 -0.86 0.20 0.09 7147
0.00 0.00 -0.83 -0.92 9.53 -0.83 0.22 0.04 7154
-0.00 0.00 -0.67 -1.26 8.76 -0.82 0.22 -0.01 7161
0.00 -0.00 -0.62 -2.67 8.98 -0.83 0.23 -0.06 7169
0.00 0.00 -1.47 -19.73 17.94 -0.47 0.35 -0.08 7176
0.00 0.00 -0.69 -2.46 0.89 0.11 0.04 -0.14 7183
0.00 0.00 -1.00 -15.38 8.99 -0.22 -0.15 -0.28 7190
0.00 0.00 -2.85 -21.61 12.40 -0.14 0.03 -0.30 7197
-0.00 0.01 1.08 -15.44 7.94 -0.07 0.09 -0.31 7204
0.00 0.01 -1.64 -18.27 8.23 -0.06 0.03 -0.23 7212
-0.00 0.01 -0.15 -2.61 9.81 -0.02 0.07 0.05 7219
0.01 0.00 0.16 -1.01 9.83 -0.08 0.03 0.13 7226
-0.00 0.01 0.54 -0.33 10.14 -0.07 0.09 0.12 7233
0.01 0.02 0.78 0.17 9.83 -0.09 0.06 0.05 7240
0.01 0.01 0.80 -0.40 9.78 -0.10 0.06 -0.00 7247
0.05 0.01 0.67 -0.76 9.69 -0.11 0.03 -0.03 7255
0.04 0.01 0.53 -1.01 9.88 -0.11 0.02 -0.04 7262
0.05 0.01 0.49 -0.97 9.80 -0.10 0.00 -0.05 7269
0.04 0.04 0.29 -0.96 9.86 -0.10 0.00 -0.06 7276
0.05 0.07 0.39 -0.81 9.91 -0.10 -0.00 -0.07 7283
0.06 0.10 0.27 -0.80 9.99 -0.10 0.00 -0.07 7290
0.06 0.11 0.31 -0.74 9.87 -0.09 0.01 -0.07 7298
0.05 0.11 0.29 -0.71 9.99 -0.07 0.03 -0.06 7305
0.04 0.16 0.31 -0.73 9.80 -0.06 0.04 -0.06 7312
0.04 0.16 0.31 -0.76 9.82 -0.05 0.05 -0.05 7319
0.06 0.17 0.34 -0.76 9.86 -0.03 0.06 -0.04 7326
0.06 0.19 0.38 -0.78 9.90 -0.03 0.06 -0.03 7333
0.05 0.20 0.36 -0.76 9.75 -0.03 0.06 -0.03 7341
0.04 0.21 0.30 -0.79 9.74 -0.07 0.06 -0.04 7348
0.04 0.19 0.38 -0.77 9.83 -0.04 0.06 -0.03 7355
0.05 0.20 0.38 -0.81 9.79 -0.04 0.05 -0.03 7362
0.05 0.23 0.37 -0.79 9.73 -0.04 0.05 -0.04 7369
0.06 0.24 0.61 -0.78 9.26 -0.05 0.04 -0.04 7376
0.06 0.23 0.43 -0.76 9.80 -0.05 0.03 -0.04 7384
0.05 0.23 0.41 -0.74 9.81 -0.05 0.03 -0.04 7391
0.04 0.27 0.41 -0.78 9.84 -0.05 0.03 -0.05 7398
0.06 0.24 0.33 -0.75 9.77 -0.06 0.03 -0.05 7405
0.06 0.25 0.33 -0.70 9.86 -0.06 0.03 -0.05 7412
0.06 0.28 0.32 -0.67 9.92 -0.05 0.03 -0.04 7419
0.07 0.25 0.30 -0.69 9.84 -0.05 0.04 -0.04 7427
0.08 0.30 0.34 -0.72 9.90 -0.04 0.05 -0.05 7434
0.06 0.28 0.32 -0.70 9.81 -0.04 0.05 -0.05 7441
0.07 0.30 0.36 -0.67 9.83 -0.03 0.06 -0.05 7448
0.07 0.30 0.40 -0.69 9.89 -0.02 0.05 -0.05 7455
0.09 0.29 0.42 -0.73 9.82 -0.02 0.05 -0.05 7462
0.08 0.29 0.38 -0.71 9.83 -0.01 0.05 -0.05 7470
0.07 0.32 0.39 -0.70 9.82 -0.01 0.05 -0.06 7477
0.07 0.33 0.38 -0.71 9.82 -0.00 0.05 -0.06 7484
0.08 0.34 0.34 -0.69 9.82 -0.00 0.04 -0.06 7491
0.09 0.33 0.40 -0.72 9.82 0.00 0.04 -0.06 7498
0.09 0.33 0.38 -0.72 9.82 0.00 0.04 -0.06 7505
0.09 0.33 0.37 -0.72 9.81 -0.00 0.04 -0.06 7513
0.09 0.31 0.38 -0.72 9.78 0.00 0.04 -0.06 7520
0.08 0.30 0.36 -0.74 9.79 0.00 0.04 -0.06 7527
0.09 0.31 0.39 -0.76 9.76 -0.00 0.04 -0.06 7534
0.09 0.30 0.35 -0.76 9.77 -0.00 0.04 -0.06 7541
0.08 0.29 0.34 -0.76 9.81 -0.00 0.04 -0.06 7548
0.07 0.28 0.37 -0.72 9.76 -0.00 0.04 -0.06 7556
0.07 0.27 0.39 -0.73 9.77 0.00 0.04 -0.06 7563
0.08 0.27 0.35 -0.73 9.76 -0.01 0.04 -0.06 7570
0.08 0.28 0.39 -0.77 9.81 -0.01 0.04 -0.06 7577
0.09 0.27 0.36 -0.76 9.80 -0.01 0.04 -0.06 7584
0.09 0.26 0.37 -0.76 9.79 -0.01 0.04 -0.06 7591
0.09 0.26 0.36 -0.74 9.78 -0.01 0.04 -0.06 7599
0.07 0.26 0.36 -0.76 9.81 -0.01 0.04 -0.06 7606
0.08 0.27 0.38 -0.73 9.82 -0.01 0.04 -0.06 7613
0.08 0.29 0.38 -0.76 9.80 -0.02 0.04 -0.06 7620
0.10 0.27 0.39 -0.71 9.82 -0.01 0.04 -0.06 7627
0.10 0.28 0.36 -0.74 9.20 -0.01 0.04 -0.06 7634
0.10 0.28 0.36 -0.74 9.79 -0.01 0.04 -0.06 7642
0.09 0.28 0.36 -0.73 9.81 -0.01 0.04 -0.06 7649
0.09 0.28 0.33 -0.75 9.82 -0.01 0.04 -0.06 7656
0.10 0.31 0.37 -0.75 9.80 -0.01 0.04 -0.06 7663
0.11 0.30 0.38 -0.72 9.75 -0.01 0.04 -0.06 7670
0.10 0.31 0.36 -0.69 9.78 -0.01 0.04 -0.06 7677
0.10 0.30 0.39 -0.69 9.82 -0.01 0.04 -0.06 7685
0.09 0.31 0.38 -0.71 9.77 -0.01 0.04 -0.06 7692
0.10 0.32 0.36 -0.72 9.79 -0.01 0.04 -0.06 7699
0.11 0.33 0.37 -0.76 9.81 -0.00 0.04 -0.06 7706
0.11 0.31 0.37 -0.72 9.81 -0.00 0.04 -0.07 7713
0.10 0.31 0.42 -0.70 9.80 -0.01 0.04 -0.07 7720
0.10 0.30 0.38 -0.74 9.81 -0.00 0.04 -0.07 7728
0.09 0.30 0.36 -0.73 9.81 0.00 0.04 -0.07 7735
0.10 0.31 0.38 -0.73 9.76 0.00 0.05 -0.07 7742
0.10 0.30 0.35 -0.75 9.79 0.00 0.05 -0.07 7749
0.10 0.28 0.29 -0.73 9.81 0.01 0.05 -0.07 7756
0.10 0.26 0.36 -0.74 9.78 0.01 0.06 -0.07 7763
0.09 0.25 0.38 -0.71 9.81 0.02 0.06 -0.08 7771
0.10 0.25 0.38 -0.73 9.82 0.02 0.07 -0.07 7778
0.09 0.22 0.38 -0.75 9.81 0.03 0.07 -0.08 7785
0.12 0.16 0.37 -0.75 9.81 0.03 0.07 -0.08 7792
0.11 0.15 0.42 -0.74 9.82 0.03 0.08 -0.08 7799
0.10 0.15 0.41 -0.70 9.84 0.03 0.08 -0.08 7806
0.10 0.12 0.43 -0.70 9.87 0.04 0.08 -0.08 7814
0.11 0.06 0.39 -0.73 9.91 0.06 0.08 -0.07 7821
0.12 0.05 0.46 -0.75 9.96 0.08 0.10 -0.07 7828
0.12 0.01 0.51 -0.87 10.03 0.11 0.11 -0.07 7835
0.12 -0.00 0.48 -0.73 10.23 0.15 0.13 -0.08 7842
0.12 -0.01 0.55 -0.87 10.14 0.19 0.15 -0.09 7849
0.12 -0.01 0.61 -0.84 10.29 0.25 0.19 -0.10 7858
0.13 -0.01 0.89 -0.91 10.52 0.35 0.24 -0.12 7864
0.14 -0.01 1.33 -1.02 11.20 0.55 0.33 -0.18 7871
0.14 -0.01 1.35 -1.06 12.47 0.96 0.42 -0.27 7878
0.12 -0.01 1.19 -1.08 12.95 1.36 0.33 -0.35 7885
0.14 -0.01 0.87 -0.97 12.48 1.54 0.15 -0.38 7892
0.13 -0.01 0.57 -1.14 11.81 1.58 -0.01 -0.37 7900
0.13 -0.01 0.59 -1.31 11.45 1.62 -0.10 -0.35 7908
0.15 -0.01 0.38 -1.37 10.92 1.65 -0.18 -0.33 7915
0.13 -0.01 0.26 -1.48 10.78 1.68 -0.26 -0.30 7921
0.11 -0.01 0.26 -1.57 10.28 1.68 -0.30 -0.27 7928
0.09 -0.01 0.09 -1.72 10.17 1.66 -0.29 -0.24 7936
0.07 -0.01 0.08 -1.76 9.95 1.66 -0.28 -0.21 7943
0.07 -0.00 -0.01 -2.04 9.61 1.62 -0.28 -0.18 7950
0.05 -0.01 0.01 -2.22 9.36 1.57 -0.27 -0.15 7957
0.05 -0.01 -0.01 -2.35 9.31 1.53 -0.23 -0.12 7964
0.05 -0.00 -0.07 -2.39 9.30 1.49 -0.16 -0.09 7971
0.05 -0.00 -0.05 -2.53 9.26 1.44 -0.12 -0.07 7979
0.06 -0.01 -0.10 -2.64 9.11 1.39 -0.09 -0.05 7986
0.07 -0.01 -0.01 -2.85 9.34 1.34 -0.07 -0.03 7993
0.08 -0.01 -0.04 -2.94 9.58 1.31 -0.05 -0.01 8000
0.06 -0.01 0.07 -3.14 9.72 1.27 -0.09 0.01 8007
0.06 -0.01 0.07 -3.22 9.83 1.27 -0.04 0.03 8014
0.05 -0.00 0.11 -3.37 9.45 1.26 -0.01 0.04 8022
0.05 -0.01 0.17 -3.55 9.35 1.23 -0.01 0.04 8029
0.05 -0.01 0.15 -3.66 9.50 1.17 -0.00 0.04 8036
0.07 -0.01 0.15 -3.81 9.61 1.11 0.00 0.04 8043
0.06 -0.01 0.25 -3.78 9.74 1.06 -0.02 0.03 8050
0.07 -0.01 0.33 -3.65 9.76 1.01 -0.08 0.02 8057
0.04 -0.00 0.42 -3.61 9.81 0.93 -0.16 0.01 8065
0.04 -0.00 0.57 -3.36 9.70 0.86 -0.23 -0.02 8072
0.05 -0.01 0.68 -3.35 9.23 0.78 -0.33 -0.03 8079
0.04 -0.00 0.87 -3.16 9.31 0.71 -0.43 -0.06 8086
0.02 -0.00 1.19 -3.49 9.31 0.64 -0.48 -0.09 8093
0.01 -0.00 1.59 -3.43 9.34 0.58 -0.53 -0.13 8100
0.01 -0.00 1.76 -3.46 9.16 0.54 -0.54 -0.18 8108
0.01 -0.00 1.78 -3.57 9.37 0.51 -0.54 -0.23 8115
0.03 -0.00 1.83 -3.54 9.60 0.47 -0.55 -0.29 8122
0.02 -0.00 1.97 -4.29 9.54 0.45 -0.55 -0.35 8129
0.01 -0.00 1.88 -3.15 9.26 0.45 -0.57 -0.42 8136
0.01 -0.00 2.75 -1.56 8.98 0.45 -0.58 -0.49 8143
0.00 0.00 2.77 -0.45 8.88 0.40 -0.57 -0.52 8151
0.01 0.00 3.27 2.67 8.83 0.28 -0.44 -0.55 8158
0.01 -0.00 2.42 -0.60 7.92 0.16 -0.27 -0.59 8165
0.01 -0.00 3.91 4.28 8.92 0.07 -0.05 -0.62 8172
0.00 0.00 1.92 0.77 7.59 -0.05 0.17 -0.60 8179
0.00 0.00 1.72 2.62 9.66 -0.16 0.33 -0.54 8186
0.00 0.00 1.35 2.81 8.78 -0.21 0.39 -0.50 8194
0.01 -0.00 0.60 3.29 8.50 -0.30 0.40 -0.43 8201
0.02 -0.00 1.40 2.81 8.11 -0.38 0.37 -0.36 8208
0.00 0.00 -0.29 0.37 9.06 -0.45 0.35 -0.28 8215
0.00 0.00 -0.00 1.57 9.81 -0.56 0.28 -0.21 8222
0.00 0.00 0.75 1.96 9.58 -0.63 0.22 -0.13 8229
0.00 0.00 0.26 0.64 8.87 -0.68 0.18 -0.07 8237
0.00 -0.00 0.70 0.28 9.70 -0.75 0.15 -0.03 8244
0.00 0.00 1.10 1.52 9.13 -0.80 0.17 -0.01 8251
0.00 0.00 0.52 0.54 9.05 -0.85 0.16 0.02 8258
0.00 0.00 0.81 -0.29 9.58 -0.84 0.21 0.03 8265
0.00 0.00 1.48 0.73 10.15 -0.87 0.26 0.02 8272
0.00 -0.00 0.31 -0.02 9.21 -0.84 0.30 0.00 8280
0.00 -0.00 0.35 -0.74 9.21 -0.86 0.34 -0.00 8287
0.00 -0.00 -0.55 -0.53 9.58 -0.88 0.37 -0.02 8294
0.00 0.00 -0.01 0.60 10.65 -0.90 0.35 -0.04 8301
0.00 0.00 0.57 0.27 8.20 -0.90 0.27 -0.08 8308
0.00 0.00 0.34 0.23 9.26 -0.94 0.26 -0.08 8315
0.00 0.00 -1.18 -3.46 10.25 -0.97 0.20 -0.12 8323
0.01 -0.00 -2.28 -0.59 12.44 -1.00 0.22 -0.14 8330
0.00 -0.00 1.14 0.50 9.66 -1.03 0.19 -0.17 8337
0.00 0.00 0.83 -0.82 8.22 -1.05 0.23 -0.18 8344
0.00 0.00 0.30 -0.87 11.27 -1.06 0.27 -0.18 8351
0.00 0.00 0.75 -0.47 10.35 -1.07 0.32 -0.20 8358
0.00 0.00 1.38 -0.22 10.78 -1.09 0.36 -0.22 8366
0.00 -0.00 0.72 -0.23 10.57 -1.12 0.42 -0.22 8373
0.00 0.00 0.68 -0.30 10.26 -1.13 0.45 -0.22 8380
0.00 -0.00 0.37 -0.94 10.67 -1.14 0.47 -0.21 8387
0.00 0.00 -0.11 -0.60 10.81 -1.13 0.48 -0.18 8394
0.00 0.00 0.21 -0.06 11.13 -1.13 0.47 -0.11 8401
0.00 0.00 -0.15 -0.44 11.30 -1.14 0.43 -0.05 8409
0.01 -0.00 -0.20 0.03 10.44 -1.15 0.38 0.01 8416
0.00 0.00 -0.83 -0.12 10.84 -1.18 0.33 0.10 8423
0.00 0.00 0.04 -0.40 10.17 -1.17 0.29 0.11 8430
0.00 0.00 -0.28 -1.02 10.55 -1.18 0.26 0.14 8437
0.00 0.00 0.18 -1.01 11.64 -1.18 0.25 0.16 8444
0.00 0.00 0.39 -0.84 10.32 -1.16 0.27 0.16 8452
0.00 -0.00 -0.09 -1.35 10.81 -1.17 0.29 0.15 8459
0.00 0.00 -0.06 -1.95 10.94 -1.16 0.34 0.15 8466
0.00 0.00 0.13 -1.05 8.10 -1.17 0.35 0.15 8473
0.00 0.00 0.06 -1.64 12.14 -1.12 0.35 0.14 8480
0.00 0.00 0.03 -1.78 11.63 -1.11 0.36 0.15 8487
0.00 -0.00 0.03 -2.05 10.83 -1.08 0.36 0.16 8495
0.00 0.00 0.01 -2.34 10.44 -1.05 0.37 0.16 8502
0.00 0.00 -0.01 -2.68 10.20 -1.01 0.35 0.18 8509
0.00 0.00 -0.01 -2.98 9.99 -0.94 0.33 0.20 8516
0.00 0.00 0.00 -3.21 9.96 -0.87 0.30 0.24 8523
0.00 0.00 -0.13 -3.51 9.84 -0.80 0.33 0.28 8530
0.01 -0.00 -0.78 -4.73 10.83 -0.71 0.29 0.33 8538
0.00 -0.00 -5.14 -9.88 14.04 -0.36 -0.31 0.27 8545
0.00 0.00 -2.90 -4.87 8.60 -0.18 -0.33 0.26 8552
0.00 0.00 -1.24 -8.38 7.18 -0.16 -0.28 0.30 8559
0.00 0.00 -0.30 -10.41 12.65 -0.03 -0.12 0.33 8566
0.00 0.00 -0.25 -8.79 6.48 0.04 0.09 0.31 8573
0.00 -0.00 -1.64 -11.77 8.23 0.12 0.00 0.25 8581
0.00 0.00 -1.43 -11.09 8.93 0.20 -0.07 0.23 8588
0.00 0.00 -2.40 -10.09 6.32 0.31 -0.15 0.24 8595
0.00 0.00 -2.25 -10.74 8.87 0.39 -0.18 0.27 8602
0.00 0.00 -2.38 -11.46 9.97 0.42 -0.32 0.26 8609
0.00 0.00 -1.27 -9.68 11.26 0.25 -0.46 0.18 8616
0.01 -0.00 -2.53 -15.55 11.23 0.10 -0.30 0.16 8624
0.00 0.00 -1.23 -10.54 7.26 0.09 -0.20 0.15 8631
0.00 0.00 -1.78 -14.60 9.38 0.04 -0.07 0.15 8638
0.00 0.00 -3.54 -18.41 10.06 -0.01 -0.16 0.10 8645
-0.00 0.01 -1.42 -10.82 8.05 -0.00 -0.04 0.02 8652
-0.00 0.00 0.01 -1.65 9.69 -0.05 -0.02 -0.02 8659
0.00 0.00 0.03 -1.83 9.58 -0.13 0.04 0.02 8667
-0.00 0.01 0.45 -0.57 9.76 -0.16 0.03 0.06 8674
0.00 0.00 0.56 -0.26 9.95 -0.15 0.01 0.04 8681
-0.00 0.00 0.64 -0.34 9.73 -0.14 0.00 0.01 8688
0.03 0.03 0.33 -0.57 9.76 -0.16 -0.02 -0.02 8695
0.03 0.03 0.28 -0.73 9.86 -0.16 -0.02 -0.03 8702
0.03 0.05 0.30 -0.93 9.75 -0.15 -0.01 -0.04 8710
-0.01 0.08 0.25 -0.81 9.79 -0.13 0.01 -0.05 8717
0.02 0.10 0.06 -0.70 9.93 -0.11 0.02 -0.05 8724
0.01 0.15 0.13 -0.66 9.92 -0.10 0.05 -0.06 8731
0.04 0.17 0.08 -0.70 9.87 -0.08 0.05 -0.06 8738
0.02 0.19 0.16 -0.77 9.87 -0.07 0.06 -0.06 8745
0.01 0.21 0.17 -0.80 9.86 -0.06 0.07 -0.05 8753
0.01 0.17 0.18 -0.77 10.38 -0.05 0.07 -0.05 8760
0.02 0.18 0.14 -0.83 9.84 -0.05 0.07 -0.04 8767
0.01 0.19 0.21 -0.82 9.82 -0.05 0.08 -0.04 8774
0.03 0.20 0.25 -0.81 9.80 -0.06 0.07 -0.04 8781
0.04 0.18 0.24 -0.81 9.77 -0.07 0.07 -0.04 8788
0.02 0.27 0.19 -0.80 9.69 -0.07 0.07 -0.04 8796
0.03 0.27 0.15 -0.76 9.86 -0.06 0.07 -0.04 8803
0.01 0.27 0.23 -0.78 9.75 -0.06 0.07 -0.04 8810
0.01 0.31 0.21 -0.75 9.69 -0.06 0.06 -0.04 8817
0.03 0.32 0.26 -0.72 9.78 -0.06 0.06 -0.05 8824
0.04 0.33 0.26 -0.74 9.78 -0.06 0.06 -0.05 8832
0.03 0.36 0.46 -0.77 9.79 -0.06 0.06 -0.05 8839
0.03 0.42 0.29 -0.75 9.79 -0.05 0.06 -0.05 8846
0.03 0.42 0.25 -0.78 9.81 -0.05 0.05 -0.06 8853
0.03 0.42 0.28 -0.72 9.98 -0.05 0.05 -0.06 8860
0.03 0.44 0.34 -0.72 9.86 -0.04 0.05 -0.06 8867
0.02 0.47 0.29 -0.72 10.02 -0.03 0.06 -0.06 8875
0.01 0.51 0.26 -0.72 9.80 -0.03 0.06 -0.06 8882
0.02 0.48 0.29 -0.71 9.84 -0.02 0.06 -0.06 8889
0.00 0.49 0.28 -0.71 9.83 -0.02 0.05 -0.06 8896
0.01 0.51 0.26 -0.74 9.80 -0.01 0.05 -0.06 8903
0.01 0.49 0.27 -0.69 9.81 -0.01 0.05 -0.07 8910
0.03 0.49 0.26 -0.70 9.84 -0.01 0.05 -0.07 8918
0.02 0.47 0.27 -0.69 9.83 0.00 0.05 -0.07 8925
0.02 0.43 0.28 -0.73 9.83 0.00 0.06 -0.07 8932
0.01 0.42 0.31 -0.71 9.81 0.00 0.05 -0.07 8939
0.02 0.43 0.26 -0.71 9.82 0.01 0.05 -0.07 8946
0.04 0.43 0.29 -0.75 9.82 0.01 0.05 -0.07 8953
0.05 0.41 0.28 -0.73 9.77 0.01 0.05 -0.07 8961
0.03 0.40 0.26 -0.73 9.82 0.01 0.04 -0.07 8968
0.03 0.39 0.28 -0.75 9.81 0.01 0.05 -0.07 8975
0.03 0.39 0.29 -0.71 9.81 0.00 0.05 -0.07 8982
0.04 0.40 0.27 -0.77 9.80 0.01 0.04 -0.07 8989
0.04 0.38 0.30 -0.75 9.81 0.00 0.04 -0.07 8996
0.05 0.38 0.29 -0.74 9.81 0.01 0.04 -0.08 9004
0.06 0.36 0.27 -0.74 9.80 0.01 0.05 -0.08 9011
0.05 0.34 0.28 -0.77 10.41 0.01 0.04 -0.08 9018
0.05 0.34 0.30 -0.78 9.81 0.01 0.05 -0.08 9025
0.07 0.32 0.27 -0.76 9.81 0.01 0.05 -0.08 9032
0.09 0.29 0.30 -0.72 9.77 0.01 0.04 -0.08 9039
0.08 0.27 0.28 -0.76 9.82 0.01 0.04 -0.08 9047
0.09 0.26 0.25 -0.74 9.77 0.01 0.04 -0.08 9054
0.07 0.28 0.29 -0.77 9.81 0.01 0.04 -0.08 9061
0.09 0.25 0.29 -0.76 9.81 0.01 0.05 -0.08 9068
0.09 0.25 0.29 -0.74 9.78 0.01 0.05 -0.08 9075
0.09 0.26 0.29 -0.75 9.82 0.01 0.05 -0.08 9082
0.07 0.24 0.31 -0.79 9.80 0.01 0.05 -0.08 9090
0.07 0.22 0.31 -0.78 9.81 0.01 0.04 -0.08 9097
0.08 0.25 0.30 -0.78 9.83 0.01 0.04 -0.08 9104
0.11 0.23 0.31 -0.79 9.80 0.00 0.04 -0.08 9111
0.09 0.23 0.27 -0.82 9.82 0.01 0.03 -0.08 9118
0.09 0.21 0.29 -0.76 9.84 0.00 0.04 -0.08 9125
0.08 0.21 0.32 -0.76 9.82 0.01 0.03 -0.08 9133
0.09 0.20 0.29 -0.77 9.79 0.00 0.03 -0.08 9140
0.08 0.20 0.29 -0.74 9.81 0.00 0.04 -0.08 9147
0.09 0.20 0.29 -0.80 9.81 0.01 0.04 -0.08 9154
0.11 0.19 0.28 -0.82 9.82 0.01 0.04 -0.08 9161
0.11 0.16 0.25 -0.79 9.82 0.01 0.05 -0.08 9168
0.11 0.16 0.29 -0.78 9.76 0.01 0.05 -0.08 9176
0.12 0.13 0.26 -0.78 9.77 0.01 0.05 -0.09 9183
0.11 0.15 0.28 -0.75 9.82 0.00 0.05 -0.08 9190
0.11 0.16 0.31 -0.80 9.79 0.01 0.05 -0.08 9197
0.13 0.15 0.28 -0.77 9.80 0.01 0.05 -0.08 9204
0.12 0.12 0.29 -0.79 9.80 0.01 0.05 -0.08 9211
0.12 0.13 0.30 -0.80 9.82 0.01 0.05 -0.08 9219
0.11 0.09 0.33 -0.78 9.80 0.01 0.05 -0.08 9226
0.11 0.10 0.29 -0.78 9.81 0.01 0.05 -0.09 9233
0.11 0.11 0.28 -0.80 9.80 0.01 0.05 -0.08 9240
0.14 0.08 0.33 -0.77 9.82 0.01 0.06 -0.09 9247
0.16 0.09 0.28 -0.81 9.81 0.01 0.06 -0.08 9254
0.16 0.08 0.28 -0.76 9.82 0.01 0.06 -0.08 9262
0.16 0.06 0.29 -0.80 9.82 0.02 0.06 -0.09 9269
0.19 0.03 0.30 -0.79 9.82 0.02 0.06 -0.09 9276
0.20 0.02 0.32 -0.79 9.83 0.02 0.06 -0.09 9283
0.20 0.02 0.31 -0.82 9.83 0.02 0.06 -0.09 9290
0.19 0.03 0.31 -0.81 9.82 0.02 0.06 -0.09 9297
0.20 0.01 0.31 -0.80 9.80 0.02 0.07 -0.09 9305
0.20 0.01 0.33 -0.82 9.82 0.02 0.06 -0.09 9312
0.20 0.01 0.30 -0.82 9.81 0.02 0.07 -0.09 9319
0.19 0.00 0.32 -0.82 9.79 0.02 0.06 -0.09 9326
0.23 -0.00 0.33 -0.80 9.82 0.02 0.07 -0.09 9333
0.23 -0.01 0.33 -0.80 9.83 0.02 0.07 -0.09 9340
0.23 -0.02 0.32 -0.79 9.84 0.03 0.07 -0.08 9348
0.23 -0.01 0.31 -0.82 9.84 0.03 0.08 -0.08 9355
0.24 0.00 0.36 -0.84 9.87 0.04 0.08 -0.08 9362
0.26 -0.01 0.36 -0.82 9.92 0.06 0.09 -0.08 9369
0.26 -0.02 0.37 -0.80 9.96 0.07 0.10 -0.08 9376
0.24 -0.01 0.41 -0.86 9.92 0.09 0.10 -0.08 9383
0.22 -0.02 0.42 -0.87 9.94 0.12 0.11 -0.08 9391
0.20 -0.00 0.41 -0.90 10.04 0.14 0.13 -0.08 9398
0.20 -0.01 0.45 -0.84 10.12 0.20 0.15 -0.09 9405
0.22 -0.02 0.65 -0.92 10.35 0.30 0.19 -0.11 9413
0.23 -0.02 0.79 -0.94 10.73 0.44 0.25 -0.14 9419
0.22 -0.02 0.90 -0.98 11.35 0.71 0.31 -0.19 9427
0.22 -0.02 0.66 -1.06 11.73 1.00 0.30 -0.23 9434
0.22 -0.02 0.58 -1.13 11.67 1.23 0.21 -0.24 9442
0.23 -0.01 0.35 -1.12 11.39 1.32 0.13 -0.24 9449
0.23 -0.01 0.22 -1.26 11.17 1.35 0.10 -0.22 9456
0.21 -0.01 0.26 -1.24 10.84 1.38 0.06 -0.20 9463
0.21 -0.02 0.25 -1.47 10.54 1.39 0.04 -0.17 9469
0.19 -0.01 0.16 -1.55 10.12 1.40 0.03 -0.15 9478
0.18 -0.02 0.16 -1.62 9.68 1.37 -0.01 -0.13 9484
0.15 -0.01 0.18 -2.01 8.67 1.36 -0.10 -0.10 9491
0.15 -0.02 0.25 -1.86 10.38 1.29 -0.18 -0.07 9498
0.11 -0.01 -0.07 -2.17 9.33 1.23 -0.12 -0.06 9505
0.08 -0.01 0.22 -2.13 9.81 1.23 -0.10 -0.05 9512
0.07 -0.01 0.18 -2.20 9.46 1.23 -0.07 -0.04 9520
0.09 -0.01 0.36 -2.37 9.35 1.21 -0.04 -0.03 9527
0.07 -0.01 0.33 -2.45 8.88 1.16 -0.02 -0.03 9534
0.09 -0.01 0.33 -2.62 9.17 1.12 0.01 -0.03 9541
0.06 -0.01 0.38 -2.65 9.13 1.08 0.02 -0.03 9548
0.09 -0.01 0.53 -2.94 9.29 1.02 -0.03 -0.03 9555
0.08 -0.01 0.54 -2.94 9.28 0.99 0.03 -0.04 9563
0.07 -0.01 0.43 -2.96 9.22 0.96 0.02 -0.04 9570
0.06 -0.01 0.47 -3.02 9.16 0.94 0.02 -0.05 9577
0.04 -0.00 0.54 -3.17 9.07 0.91 0.02 -0.05 9584
0.06 -0.01 0.46 -3.22 9.19 0.88 0.01 -0.06 9591
0.06 -0.01 0.38 -3.26 9.26 0.85 0.01 -0.06 9598
0.07 -0.01 0.45 -3.27 9.30 0.83 0.00 -0.06 9606
0.08 -0.01 0.45 -3.36 9.38 0.82 -0.03 -0.07 9613
0.08 -0.01 0.48 -3.42 9.42 0.81 -0.05 -0.07 9620
0.07 -0.01 0.51 -3.49 9.37 0.81 -0.07 -0.08 9627
0.06 -0.01 0.68 -3.54 8.95 0.82 -0.08 -0.09 9634
0.04 -0.00 0.75 -3.70 9.12 0.82 -0.06 -0.11 9641
0.06 -0.01 0.62 -3.79 9.19 0.80 -0.04 -0.13 9649
0.07 -0.00 0.43 -3.88 9.31 0.79 -0.02 -0.15 9656
0.06 -0.01 0.31 -3.92 9.37 0.78 -0.01 -0.15 9663
0.07 -0.01 0.11 -3.95 9.19 0.79 0.00 -0.14 9670
0.06 -0.01 0.02 -4.03 9.02 0.79 0.02 -0.13 9677
0.04 -0.00 0.06 -4.01 9.07 0.79 0.02 -0.12 9684
0.06 -0.01 0.16 -4.23 9.41 0.79 0.02 -0.11 9692
0.05 -0.00 0.25 -4.28 9.60 0.80 0.04 -0.10 9699
0.07 -0.01 0.24 -4.40 9.71 0.81 0.06 -0.09 9706
0.06 -0.01 0.20 -4.42 9.63 0.81 0.06 -0.09 9713
0.07 -0.01 0.22 -4.44 9.64 0.82 0.07 -0.08 9720
0.06 -0.01 0.19 -4.35 9.58 0.84 0.07 -0.08 9728
0.06 -0.01 0.11 -4.26 9.62 0.85 0.05 -0.06 9735
0.08 -0.01 -0.01 -4.32 9.67 0.87 0.03 -0.05 9742
0.07 -0.01 -0.08 -4.55 9.82 0.89 -0.00 -0.03 9749
0.06 -0.01 -0.22 -4.74 10.11 0.88 -0.04 -0.02 9756
0.06 -0.01 -0.10 -4.79 10.44 0.87 -0.06 -0.00 9763
0.05 -0.01 -0.19 -4.85 10.66 0.85 -0.09 0.01 9771
0.06 -0.01 -0.18 -4.85 10.55 0.81 -0.14 0.03 9778
0.06 -0.01 -0.06 -4.86 10.39 0.75 -0.23 0.04 9785
0.06 -0.01 -0.08 -4.73 10.14 0.68 -0.27 0.04 9792
0.05 -0.00 -0.04 -4.81 9.73 0.57 -0.34 0.05 9799
0.02 -0.00 0.05 -4.50 8.99 0.53 -0.39 0.06 9806
0.01 -0.00 0.08 -4.37 7.92 0.47 -0.43 0.06 9814
0.03 -0.00 0.28 -3.92 7.25 0.43 -0.44 0.06 9821
0.03 -0.00 0.46 -3.73 7.23 0.41 -0.45 0.06 9828
0.01 -0.00 0.59 -3.12 7.70 0.41 -0.46 0.05 9835
0.02 -0.00 0.59 -3.73 8.13 0.43 -0.44 0.04 9842
0.01 -0.00 0.75 -3.53 8.25 0.44 -0.38 0.04 9849
0.00 -0.00 0.71 -2.36 8.86 0.42 -0.29 0.04 9857
0.02 -0.00 0.91 -1.93 8.57 0.33 -0.22 0.02 9864
0.03 -0.00 0.71 -1.38 8.54 0.20 -0.14 0.02 9871
0.02 -0.00 1.15 0.15 8.50 0.08 -0.04 0.01 9878
0.00 -0.00 0.69 -1.39 8.27 -0.04 -0.05 -0.01 9885
0.00 0.00 0.67 -0.11 9.54 -0.11 -0.01 -0.02 9892
0.00 0.00 0.04 -0.19 9.08 -0.16 -0.00 -0.04 9900
0.00 -0.00 0.79 0.03 8.48 -0.26 0.03 -0.08 9907
0.00 -0.00 0.28 3.13 10.01 -0.38 0.05 -0.15 9914
0.00 0.00 0.32 -0.68 6.71 -0.50 0.03 -0.21 9921
0.00 0.00 -0.17 0.26 8.72 -0.51 -0.01 -0.26 9928
0.00 0.00 0.03 0.63 9.01 -0.56 -0.00 -0.34 9935
0.00 0.00 -0.36 0.12 8.95 -0.60 -0.10 -0.43 9943
0.00 0.00 -0.05 -0.91 8.64 -0.63 -0.18 -0.48 9950
0.00 0.00 0.41 0.66 9.22 -0.68 -0.23 -0.52 9957
0.00 0.00 -0.03 -0.26 9.02 -0.75 -0.30 -0.58 9964
0.00 0.00 0.39 0.68 10.14 -0.78 -0.36 -0.62 9971
0.00 0.00 0.35 -0.59 7.69 -0.83 -0.35 -0.67 9978
0.00 0.00 0.57 -1.77 9.08 -0.83 -0.29 -0.69 9986
0.00 0.00 0.71 0.07 9.78 -0.86 -0.19 -0.70 9993
0.00 0.00 0.36 -4.44 7.84 -0.83 -0.15 -0.75 10000
0.00 0.00 -0.40 -1.03 12.31 -0.78 -0.12 -0.69 10007
0.00 0.00 1.18 -4.50 7.55 -0.78 -0.01 -0.67 10014
0.00 0.00 1.01 -2.88 9.64 -0.77 0.05 -0.63 10021
0.00 0.00 -2.23 -7.85 8.83 -0.80 0.08 -0.61 10029
0.03 -0.00 2.29 -5.37 10.78 -0.85 0.19 -0.60 10036
0.03 -0.00 0.51 -4.87 8.73 -0.82 0.19 -0.58 10043
0.02 -0.00 -1.93 -6.37 9.42 -0.86 0.29 -0.57 10050
0.01 -0.00 -0.37 -4.31 11.52 -0.84 0.31 -0.56 10057
0.02 -0.00 -0.71 -3.80 8.38 -0.83 0.30 -0.53 10064
0.02 -0.00 -0.77 -5.72 9.47 -0.79 0.29 -0.51 10072
0.04 -0.00 1.29 -2.76 9.18 -0.77 0.24 -0.49 10079
0.02 -0.00 2.42 -2.89 7.93 -0.74 0.19 -0.48 10086
0.01 -0.00 1.44 -4.01 7.73 -0.75 0.11 -0.44 10093
0.00 0.00 -1.08 -3.55 8.34 -0.71 0.10 -0.40 10100
0.00 0.00 1.35 -3.50 9.99 -0.68 0.11 -0.38 10107
-0.00 0.00 -0.66 -4.21 7.41 -0.66 0.08 -0.34 10115
0.01 -0.00 -0.66 -3.80 10.71 -0.66 0.15 -0.33 10122
0.01 -0.00 1.70 -3.54 10.46 -0.63 0.10 -0.31 10129
0.00 0.00 -2.44 -5.07 7.71 -0.60 0.10 -0.27 10136
0.00 0.00 -2.10 -6.13 12.23 -0.60 0.14 -0.25 10143
0.00 0.00 0.86 -3.15 12.14 -0.59 0.13 -0.23 10150
0.00 0.00 0.50 -2.74 8.91 -0.66 0.16 -0.22 10158
0.00 0.00 0.97 -2.59 9.03 -0.71 0.18 -0.20 10165
0.00 0.00 2.34 -1.22 9.65 -0.74 0.13 -0.15 10172
0.00 0.00 1.24 -2.93 7.48 -0.75 0.10 -0.09 10179
0.00 0.00 1.54 -1.79 9.59 -0.77 0.19 0.02 10186
0.00 0.00 0.68 -1.85 9.24 -0.73 0.17 0.16 10193
0.00 0.00 1.61 -1.70 9.18 -0.71 0.19 0.25 10201
0.00 0.00 1.07 -1.59 8.77 -0.70 0.20 0.36 10208
0.00 0.00 0.51 -2.37 9.16 -0.66 0.18 0.45 10215
0.00 0.00 1.66 -2.06 9.26 -0.63 0.16 0.52 10222
0.00 0.00 -0.31 -2.71 8.87 -0.60 0.20 0.55 10229
0.00 0.00 0.51 -2.79 10.98 -0.62 0.26 0.56 10236
0.00 -0.00 2.11 -0.93 9.83 -0.67 0.34 0.55 10244
0.00 0.00 0.50 -2.21 9.18 -0.75 0.33 0.53 10251
0.00 0.00 2.30 -1.62 10.23 -0.80 0.35 0.53 10258
0.00 0.00 2.89 -1.43 9.74 -0.81 0.39 0.55 10265
0.00 0.00 1.75 -1.71 9.71 -0.83 0.44 0.56 10272
0.00 0.00 1.66 -2.13 9.71 -0.85 0.50 0.57 10279
0.00 0.00 1.54 -2.01 9.78 -0.86 0.54 0.58 10287
0.00 0.00 1.25 -1.92 9.54 -0.85 0.58 0.57 10294
0.00 0.00 1.00 -1.80 9.21 -0.83 0.60 0.57 10301
0.00 0.00 0.80 -1.78 9.28 -0.79 0.59 0.56 10308
0.00 0.00 0.63 -1.77 9.57 -0.76 0.55 0.54 10315
-0.00 0.00 0.55 -1.81 9.65 -0.73 0.52 0.51 10322
0.00 0.00 0.47 -1.92 9.82 -0.71 0.51 0.47 10330
0.00 0.00 0.32 -2.21 10.44 -0.72 0.49 0.42 10337
0.00 0.00 0.00 -2.67 11.17 -0.74 0.46 0.35 10344
0.00 0.00 0.09 -2.37 11.23 -0.80 0.41 0.26 10351
0.00 0.00 -0.00 -2.41 12.11 -0.84 0.39 0.17 10358
0.00 0.00 0.57 -2.19 10.84 -0.94 0.46 0.10 10365
0.00 0.00 0.54 -2.41 10.06 -0.99 0.54 0.02 10373
0.00 0.00 0.31 -2.52 10.48 -1.00 0.61 -0.04 10380
0.00 0.00 -0.13 -2.54 10.11 -0.97 0.64 -0.11 10387
0.00 0.00 -0.48 -2.37 9.86 -0.93 0.64 -0.15 10394
0.00 0.00 -0.78 -2.35 9.95 -0.89 0.59 -0.17 10401
0.00 -0.00 -1.39 -3.02 10.41 -0.86 0.47 -0.21 10408
0.00 0.00 -2.95 -5.58 12.11 -0.83 0.17 -0.30 10416
0.00 0.00 -4.77 -5.67 12.48 -0.55 -0.55 -0.39 10423
0.00 0.00 -1.60 -4.15 8.48 -0.39 -0.53 -0.39 10430
0.00 0.00 -1.94 -7.89 8.57 -0.32 -0.58 -0.39 10437
0.00 0.00 -2.05 -7.87 10.97 -0.07 -0.41 -0.34 10444
0.00 0.00 0.17 -3.74 8.70 0.02 -0.07 -0.24 10451
0.00 0.00 -0.02 -8.67 9.49 -0.07 -0.03 -0.20 10459
0.00 0.00 -0.49 -6.18 11.31 -0.03 -0.09 -0.08 10466
0.00 0.00 -2.01 -6.87 10.27 -0.10 -0.02 0.08 10473
0.00 0.00 -1.43 -6.60 9.03 -0.11 0.07 0.32 10480
0.00 0.00 -1.23 -6.95 9.51 -0.03 0.06 0.54 10487
0.01 0.00 -1.44 -8.19 9.37 0.03 -0.06 0.68 10494
0.00 0.00 -2.48 -7.40 8.76 0.11 -0.05 0.83 10502
0.00 0.00 -1.50 -7.14 9.73 0.23 -0.01 0.99 10509
0.00 0.00 -1.75 -6.12 11.07 0.27 -0.09 1.08 10516
0.00 -0.00 -5.51 -8.58 10.27 0.21 -0.34 1.05 10523
0.00 0.00 -4.42 -6.26 10.38 0.17 -0.30 1.02 10530
0.00 0.01 -4.62 -6.42 9.53 0.09 -0.22 0.86 10537
0.00 0.01 -4.01 -5.86 9.42 0.06 -0.19 0.61 10545
0.00 0.00 -4.73 -5.81 9.57 0.03 -0.08 0.37 10552
-0.00 0.00 -2.26 -4.65 9.52 0.01 -0.02 0.05 10559
0.00 0.00 -0.31 -1.15 9.58 -0.01 0.09 -0.10 10566
-0.00 0.01 0.30 -1.18 9.87 -0.05 0.16 -0.09 10573
0.00 0.00 0.78 -0.86 9.87 -0.07 0.15 -0.03 10580
0.00 0.00 0.75 -1.06 9.78 -0.07 0.12 0.01 10588
0.00 0.00 0.38 -0.93 9.85 -0.07 0.07 0.00 10595
-0.00 0.00 0.41 -0.97 9.83 -0.08 0.07 -0.01 10602
-0.00 0.02 0.35 -1.05 9.63 -0.09 0.05 -0.03 10609
0.01 0.02 0.42 -1.08 9.69 -0.10 0.05 -0.04 10616
0.00 0.01 0.45 -1.00 9.77 -0.09 0.03 -0.04 10624
-0.00 0.02 0.41 -1.00 9.78 -0.10 0.02 -0.04 10631
-0.00 0.01 0.41 -1.01 9.81 -0.10 0.01 -0.04 10638
-0.00 0.03 0.26 -0.93 9.75 -0.09 0.01 -0.05 10645
0.01 0.03 0.38 -0.92 9.69 -0.09 0.01 -0.06 10652
0.04 0.03 0.35 -0.89 9.21 -0.08 0.01 -0.06 10659
-0.00 0.04 0.36 -0.90 9.64 -0.07 0.00 -0.07 10667
-0.01 0.07 0.32 -0.93 9.79 -0.07 -0.01 -0.07 10674
0.02 0.07 0.33 -0.94 9.85 -0.06 -0.01 -0.07 10681
0.03 0.10 0.30 -1.03 9.80 -0.06 0.00 -0.06 10688
0.04 0.09 0.33 -0.95 9.87 -0.06 0.01 -0.06 10695
0.02 0.10 0.29 -0.98 9.87 -0.05 0.02 -0.06 10702
0.02 0.12 0.30 -0.95 9.89 -0.04 0.03 -0.07 10710
0.02 0.09 0.29 -0.94 9.83 -0.03 0.04 -0.06 10717
0.01 0.14 0.30 -0.99 9.91 -0.03 0.05 -0.06 10724
0.02 0.13 0.32 -0.95 9.85 -0.03 0.05 -0.06 10731
0.02 0.14 0.34 -0.94 9.82 -0.03 0.05 -0.06 10738
0.03 0.15 0.37 -0.94 9.83 -0.03 0.05 -0.06 10745
0.02 0.15 0.33 -0.94 10.40 -0.04 0.05 -0.05 10753
0.00 0.14 0.40 -0.95 9.75 -0.04 0.04 -0.06 10760
0.00 0.15 0.39 -0.97 9.77 -0.04 0.04 -0.06 10767
0.01 0.16 0.33 -0.97 9.82 -0.04 0.04 -0.06 10774
0.02 0.17 0.34 -0.92 9.82 -0.03 0.04 -0.07 10781
0.02 0.18 0.33 -0.94 9.80 -0.04 0.04 -0.07 10788
0.02 0.18 0.32 -0.93 9.83 -0.03 0.04 -0.07 10796
0.01 0.17 0.31 -0.93 9.75 -0.04 0.04 -0.07 10803
-0.01 0.22 0.32 -0.93 9.72 -0.04 0.05 -0.07 10810
0.01 0.24 0.27 -0.94 9.77 -0.04 0.05 -0.06 10817
0.01 0.27 0.28 -0.95 9.80 -0.05 0.05 -0.06 10824
0.01 0.25 0.33 -0.87 9.80 -0.05 0.04 -0.05 10831
0.01 0.28 0.36 -0.93 9.79 -0.06 0.04 -0.05 10839
0.00 0.27 0.48 -0.90 9.64 -0.06 0.04 -0.05 10846
-0.01 0.34 0.41 -0.99 9.81 -0.06 0.04 -0.05 10853
0.01 0.32 0.34 -0.87 9.79 -0.07 0.04 -0.06 10860
0.01 0.36 0.46 -0.91 9.82 -0.06 0.04 -0.06 10867
0.01 0.38 0.36 -0.91 9.81 -0.07 0.04 -0.06 10874
0.01 0.37 0.35 -0.88 9.86 -0.07 0.04 -0.06 10882
-0.00 0.41 0.34 -0.85 9.83 -0.06 0.05 -0.06 10889
0.01 0.44 0.34 -0.82 9.85 -0.05 0.05 -0.06 10896
0.01 0.44 0.32 -0.83 9.82 -0.04 0.05 -0.06 10903
0.02 0.43 0.31 -0.86 9.82 -0.03 0.05 -0.06 10910
0.02 0.41 0.37 -0.84 9.84 -0.02 0.05 -0.07 10917
0.01 0.44 0.31 -0.84 9.81 -0.01 0.06 -0.07 10925
0.00 0.43 0.35 -0.83 9.82 -0.01 0.05 -0.07 10932
0.01 0.44 0.34 -0.81 9.80 -0.00 0.05 -0.08 10939
0.01 0.47 0.38 -0.85 9.84 0.00 0.05 -0.07 10946
0.03 0.43 0.36 -0.87 9.83 0.01 0.05 -0.07 10953
0.02 0.42 0.32 -0.86 9.83 0.00 0.05 -0.07 10960
0.01 0.41 0.34 -0.85 9.83 0.01 0.05 -0.07 10968
-0.00 0.42 0.34 -0.85 9.81 0.01 0.05 -0.07 10975
0.02 0.38 0.31 -0.83 9.82 0.01 0.05 -0.07 10982
0.02 0.37 0.35 -0.86 9.81 0.01 0.05 -0.08 10989
0.03 0.34 0.35 -0.86 9.79 0.01 0.05 -0.07 10996
0.04 0.33 0.32 -0.84 9.82 0.01 0.06 -0.07 11003
0.04 0.33 0.27 -0.94 9.77 0.01 0.06 -0.07 11011
0.04 0.32 0.39 -0.88 9.81 0.01 0.06 -0.07 11018
0.04 0.30 0.36 -0.88 9.78 0.01 0.05 -0.07 11025
0.06 0.31 0.31 -0.88 9.77 0.02 0.06 -0.07 11032
0.05 0.28 0.33 -0.87 9.79 0.01 0.06 -0.08 11039
0.05 0.28 0.37 -0.87 9.80 0.01 0.07 -0.08 11046
0.07 0.24 0.34 -0.88 9.77 0.01 0.06 -0.07 11054
0.07 0.24 0.33 -0.89 9.81 0.01 0.07 -0.07 11061
0.08 0.24 0.34 -0.89 9.81 0.01 0.07 -0.07 11068
0.09 0.24 0.36 -0.88 9.80 0.01 0.06 -0.08 11075
0.09 0.22 0.39 -0.89 9.78 0.01 0.07 -0.08 11082
0.09 0.23 0.32 -0.90 9.79 0.01 0.06 -0.08 11089
0.09 0.22 0.36 -0.89 9.78 0.01 0.06 -0.07 11097
0.10 0.24 0.37 -0.91 9.77 0.00 0.06 -0.08 11104
0.10 0.24 0.38 -0.88 9.76 0.01 0.06 -0.08 11111
0.12 0.24 0.37 -0.89 9.77 0.00 0.06 -0.08 11118
0.11 0.24 0.37 -0.90 9.82 0.00 0.05 -0.08 11125
0.10 0.23 0.37 -0.89 9.82 0.00 0.05 -0.07 11132
0.10 0.21 0.37 -0.88 9.20 0.00 0.05 -0.08 11140
0.12 0.20 0.34 -0.91 9.79 0.01 0.06 -0.08 11147
0.13 0.20 0.36 -0.87 9.82 0.00 0.06 -0.08 11154
0.15 0.19 0.36 -0.87 9.82 0.01 0.06 -0.07 11161
0.14 0.19 0.36 -0.87 9.81 0.01 0.06 -0.08 11168
0.13 0.17 0.38 -0.90 9.79 0.01 0.06 -0.08 11175
0.12 0.17 0.38 -0.91 9.82 0.01 0.06 -0.07 11183
0.14 0.14 0.41 -0.89 9.80 0.01 0.05 -0.08 11190
0.14 0.16 0.39 -0.88 9.80 0.01 0.05 -0.08 11197
0.16 0.13 0.39 -0.88 9.81 0.01 0.05 -0.08 11204
0.15 0.13 0.37 -0.90 9.79 0.01 0.05 -0.08 11211
0.16 0.09 0.40 -0.91 9.77 0.02 0.06 -0.08 11218
0.17 0.10 0.39 -0.91 9.78 0.02 0.06 -0.08 11226
0.19 0.08 0.37 -0.92 9.80 0.02 0.07 -0.08 11233
0.21 0.07 0.37 -0.96 9.82 0.03 0.07 -0.08 11240
0.21 0.06 0.38 -0.91 9.81 0.03 0.07 -0.08 11247
0.22 0.04 0.41 -0.90 9.81 0.03 0.08 -0.08 11254
0.23 0.03 0.41 -0.91 9.82 0.04 0.08 -0.08 11261
0.22 0.03 0.41 -0.93 10.42 0.03 0.08 -0.08 11269
0.24 0.01 0.43 -1.05 9.73 0.04 0.08 -0.08 11276
0.27 0.01 0.43 -0.97 9.81 0.04 0.09 -0.08 11283
0.30 0.00 0.45 -0.95 9.82 0.05 0.09 -0.08 11290
0.32 -0.01 0.40 -1.01 9.80 0.05 0.09 -0.08 11297
0.35 -0.00 0.40 -0.97 9.82 0.06 0.10 -0.08 11304
0.33 -0.00 0.42 -0.97 9.83 0.06 0.10 -0.08 11312
0.36 -0.00 0.41 -0.97 9.83 0.07 0.11 -0.08 11319
0.38 -0.02 0.39 -1.01 9.83 0.08 0.12 -0.08 11326
0.39 -0.01 0.47 -0.95 9.82 0.10 0.13 -0.08 11333
0.39 -0.02 0.46 -1.01 9.83 0.11 0.15 -0.08 11340
0.39 -0.02 0.50 -0.99 9.85 0.13 0.18 -0.08 11347
0.39 -0.03 0.51 -1.07 9.90 0.16 0.23 -0.09 11355
0.40 -0.01 0.48 -1.02 9.96 0.19 0.23 -0.09 11362
0.40 -0.02 0.50 -1.02 10.02 0.23 0.29 -0.09 11369
0.39 -0.02 0.57 -1.09 10.16 0.31 0.33 -0.10 11377
0.41 -0.03 0.68 -1.04 10.33 0.43 0.39 -0.10 11383
0.39 -0.02 0.82 -1.13 10.43 0.56 0.42 -0.11 11392
0.40 -0.02 0.75 -1.20 10.65 0.74 0.44 -0.13 11399
0.39 -0.02 0.70 -1.25 10.94 0.93 0.41 -0.15 11406
0.40 -0.02 0.75 -1.42 11.17 1.06 0.33 -0.16 11413
0.39 -0.02 0.86 -1.43 11.59 1.16 0.25 -0.17 11420
0.39 -0.02 0.81 -1.47 11.49 1.23 0.16 -0.19 11427
0.37 -0.02 0.93 -1.62 11.05 1.30 0.10 -0.21 11435
0.37 -0.01 0.66 -1.53 11.15 1.40 0.03 -0.20 11442
0.35 -0.02 0.84 -1.73 10.96 1.46 -0.02 -0.20 11449
0.32 -0.03 0.65 -1.86 10.63 1.49 -0.06 -0.18 11456
0.31 -0.02 0.58 -1.94 10.13 1.51 -0.11 -0.17 11463
0.26 -0.03 0.52 -1.99 10.31 1.53 -0.14 -0.16 11469
0.22 -0.02 0.56 -2.19 10.21 1.56 -0.17 -0.14 11478
0.20 -0.01 0.53 -2.32 10.29 1.58 -0.18 -0.13 11485
0.18 -0.01 0.57 -2.49 9.88 1.60 -0.18 -0.12 11491
0.17 -0.02 0.98 -2.93 9.67 1.62 -0.17 -0.11 11498
0.12 -0.01 0.57 -2.78 10.15 1.61 -0.19 -0.11 11505
0.09 -0.01 0.69 -2.91 9.98 1.61 -0.13 -0.11 11512
0.03 -0.00 0.56 -3.03 9.65 1.61 -0.16 -0.11 11520
0.04 0.00 0.70 -3.22 9.47 1.57 -0.14 -0.11 11527
0.07 -0.01 0.68 -3.29 9.81 1.53 -0.16 -0.12 11534
0.05 -0.01 0.76 -3.44 9.75 1.51 -0.19 -0.13 11541
0.05 -0.01 0.74 -3.64 9.76 1.48 -0.21 -0.14 11548
0.03 -0.00 0.80 -3.80 9.52 1.44 -0.20 -0.16 11555
0.05 -0.01 0.79 -4.00 9.65 1.39 -0.20 -0.17 11563
0.07 -0.01 0.74 -3.99 9.82 1.33 -0.17 -0.18 11570
0.07 -0.01 0.61 -4.02 10.08 1.29 -0.15 -0.18 11577
0.07 -0.01 0.75 -4.02 10.17 1.28 -0.09 -0.18 11584
0.07 -0.01 0.63 -3.90 10.49 1.23 -0.08 -0.19 11591
0.05 -0.00 0.35 -3.86 10.22 1.14 -0.06 -0.17 11598
0.04 -0.00 0.00 -3.79 9.81 1.03 -0.09 -0.16 11606
0.04 -0.00 -0.23 -3.50 9.57 0.93 -0.15 -0.14 11613
0.03 -0.00 -0.26 -3.63 9.35 0.81 -0.26 -0.12 11620
0.01 -0.00 -0.14 -3.53 9.11 0.71 -0.37 -0.11 11627
0.02 -0.00 -0.11 -3.82 8.89 0.64 -0.45 -0.09 11634
0.01 -0.00 0.11 -2.72 9.02 0.62 -0.50 -0.07 11641
0.01 -0.00 0.61 -3.22 8.65 0.59 -0.53 -0.05 11649
0.02 -0.00 0.59 -3.07 8.41 0.60 -0.57 -0.05 11656
0.00 0.00 0.66 -1.02 8.74 0.66 -0.65 -0.07 11663
0.00 0.00 1.54 3.07 9.19 0.65 -0.67 -0.08 11670
0.00 0.00 2.38 3.18 8.73 0.40 -0.60 -0.09 11677
0.00 0.00 1.36 1.93 9.12 0.18 -0.47 -0.03 11684
0.00 0.00 1.81 5.85 8.63 0.02 -0.31 -0.05 11692
0.00 0.00 2.52 4.44 8.26 -0.17 -0.27 -0.07 11699
0.00 -0.00 1.55 3.22 7.44 -0.34 -0.18 -0.09 11706
0.00 0.00 1.81 5.12 8.95 -0.46 -0.03 -0.10 11713
0.00 0.00 1.04 3.23 7.79 -0.53 0.01 -0.11 11720
0.00 0.00 1.36 -0.06 8.68 -0.55 0.04 -0.10 11727
0.00 0.00 0.92 1.65 9.20 -0.62 0.08 -0.10 11735
0.01 -0.00 1.06 1.79 9.80 -0.58 0.07 -0.10 11742
0.00 0.00 1.33 -2.14 6.95 -0.62 0.10 -0.14 11749
0.00 0.00 2.50 1.14 8.64 -0.66 0.13 -0.16 11756
0.00 0.00 1.15 -6.35 6.64 -0.62 0.15 -0.19 11763
0.00 0.00 1.51 -1.50 9.13 -0.67 0.24 -0.20 11770
0.00 0.00 2.52 -1.63 8.35 -0.61 0.25 -0.23 11778
0.00 0.00 1.97 -4.89 7.36 -0.63 0.25 -0.27 11785
0.00 0.00 0.68 -4.50 9.36 -0.52 0.27 -0.27 11792
0.00 0.00 -1.28 -4.72 9.69 -0.49 0.33 -0.27 11799
0.00 0.00 -0.35 -4.82 11.60 -0.47 0.25 -0.29 11806
0.00 0.00 -1.79 -5.61 10.96 -0.43 0.22 -0.28 11813
0.00 0.00 -1.93 -6.20 10.46 -0.41 0.22 -0.30 11821
0.00 -0.00 -1.83 -4.76 11.98 -0.46 0.21 -0.28 11828
0.00 0.00 -3.67 -7.94 10.97 -0.45 0.19 -0.28 11835
0.00 0.00 1.16 -6.36 9.79 -0.45 0.12 -0.26 11842
0.00 0.00 -2.00 -7.58 9.79 -0.41 0.07 -0.23 11849
0.00 0.00 -5.21 -9.88 7.81 -0.45 0.12 -0.24 11856
0.00 -0.00 1.16 -1.27 8.28 -0.39 0.07 -0.20 11864
0.00 0.00 -0.07 -10.08 7.27 -0.37 0.04 -0.17 11871
0.00 0.00 -2.15 -5.25 9.26 -0.36 0.02 -0.16 11878
0.00 0.00 -4.57 -9.62 9.80 -0.42 0.01 -0.13 11885
0.00 0.00 -2.88 -3.95 10.48 -0.30 -0.03 -0.12 11892
0.00 0.00 0.37 -3.78 8.23 -0.27 -0.01 -0.12 11899
0.00 -0.00 -1.25 -4.22 5.87 -0.26 0.01 -0.09 11907
0.00 0.00 0.23 -5.75 9.24 -0.28 0.07 -0.09 11914
0.00 0.00 -0.47 -4.39 9.27 -0.26 0.09 -0.12 11921
0.00 0.00 0.45 -5.25 9.13 -0.32 0.11 -0.15 11928
0.00 0.00 2.74 -0.54 8.30 -0.35 0.09 -0.15 11935
0.00 0.00 -1.37 -3.71 9.82 -0.40 0.11 -0.14 11942
0.00 -0.00 -1.84 -3.13 9.37 -0.43 0.10 -0.12 11950
0.00 0.00 0.27 -2.00 8.28 -0.43 0.09 -0.11 11957
0.00 0.00 -0.92 -2.25 9.40 -0.45 0.12 -0.11 11964
0.00 0.00 -0.96 -6.20 7.56 -0.44 0.10 -0.11 11971
0.00 0.00 2.55 1.05 10.60 -0.42 0.15 -0.08 11978
0.00 0.00 -0.84 -4.32 6.41 -0.50 0.19 -0.09 11985
0.00 0.00 -0.77 -2.15 10.58 -0.50 0.24 -0.04 11993
0.00 0.00 0.58 -1.41 9.48 -0.51 0.24 -0.03 12000
0.00 0.00 -0.29 -2.40 8.72 -0.62 0.30 -0.00 12007
0.00 0.00 -0.20 -1.95 10.86 -0.65 0.33 0.04 12014
0.00 0.00 -0.77 0.00 10.39 -0.73 0.36 0.06 12021
0.00 0.00 0.54 -0.70 8.74 -0.77 0.30 0.08 12028
0.00 0.00 0.40 -0.17 10.14 -0.83 0.31 0.11 12036
0.00 0.00 0.95 0.22 8.60 -0.85 0.30 0.13 12043
0.00 0.00 0.41 0.09 8.80 -0.89 0.26 0.15 12050
0.00 0.00 -0.35 -1.23 8.75 -0.90 0.25 0.16 12057
0.00 0.00 -0.92 -1.52 10.47 -0.91 0.27 0.18 12064
0.00 0.00 -0.11 -1.96 10.59 -0.94 0.30 0.18 12071
0.00 0.00 0.79 -1.14 10.02 -0.97 0.27 0.17 12079
0.00 0.00 1.04 -1.65 9.38 -1.02 0.29 0.16 12086
0.00 0.00 1.52 -0.99 10.87 -1.07 0.30 0.15 12093
0.00 0.00 0.46 -1.17 11.05 -1.12 0.30 0.13 12100
0.00 0.00 0.59 -1.20 10.06 -1.14 0.30 0.12 12107
0.00 0.00 1.07 -0.68 9.82 -1.14 0.32 0.12 12114
0.00 0.00 1.49 -0.12 10.46 -1.16 0.36 0.14 12122
0.00 0.00 1.20 -0.07 10.44 -1.18 0.40 0.16 12129
0.00 0.00 1.07 -0.06 10.41 -1.19 0.45 0.19 12136
0.00 0.00 0.88 -0.12 10.36 -1.20 0.50 0.23 12143
0.00 0.00 0.70 -0.26 10.33 -1.20 0.52 0.25 12150
0.00 0.00 0.57 -0.47 10.39 -1.19 0.51 0.28 12157
0.00 0.00 0.60 -0.80 10.33 -1.17 0.50 0.30 12165
0.00 0.00 0.57 -1.13 10.36 -1.15 0.47 0.31 12172
0.00 0.00 0.54 -1.37 10.63 -1.13 0.41 0.30 12179
0.00 0.00 0.49 -2.98 10.48 -1.13 0.31 0.26 12186
0.00 0.00 -0.33 -1.85 10.79 -1.13 0.19 0.18 12193
0.00 0.00 0.22 -3.13 10.76 -1.11 0.13 0.12 12200
0.00 0.00 -0.81 -2.03 8.54 -1.15 0.06 0.05 12208
0.00 0.00 -1.41 -3.36 10.53 -1.11 0.01 -0.05 12215
0.00 0.00 -3.18 -11.55 16.46 -0.89 -0.49 -0.27 12222
0.00 0.00 -1.57 -5.95 10.03 -0.40 -0.45 -0.39 12229
0.00 0.00 -0.57 -12.94 6.88 -0.17 -0.17 -0.38 12236
0.00 0.00 0.08 -9.33 4.08 0.05 -0.21 -0.41 12243
-0.00 0.00 -3.64 -14.40 10.00 0.11 -0.59 -0.55 12251
0.00 0.00 -5.61 -21.32 12.42 0.14 -0.80 -0.64 12258
-0.00 0.00 -5.42 -36.34 12.62 0.06 -0.62 -0.58 12266
0.00 0.01 -3.83 -33.10 2.72 -0.06 0.03 -0.37 12272
0.03 0.02 -1.58 -13.77 8.44 0.00 -0.05 -0.12 12279
0.01 0.00 -0.30 -3.93 9.35 -0.10 0.02 0.00 12286
0.00 0.02 0.03 0.37 9.81 -0.17 0.04 0.09 12294
0.00 0.01 0.75 0.75 9.52 -0.17 0.02 0.04 12301
0.00 0.04 0.69 -0.42 9.42 -0.17 0.01 -0.03 12308
0.01 0.09 0.62 -0.86 9.84 -0.18 -0.03 -0.03 12315
0.02 0.12 0.27 -0.94 9.92 -0.15 -0.02 -0.03 12322
0.01 0.15 0.01 -0.72 10.01 -0.13 0.02 -0.05 12329
0.00 0.16 0.12 -0.77 9.86 -0.10 0.06 -0.06 12337
-0.00 0.20 0.40 -0.68 10.06 -0.07 0.08 -0.06 12344
0.00 0.21 0.40 -0.73 9.91 -0.05 0.09 -0.06 12351
0.01 0.20 0.32 -0.78 9.96 -0.03 0.08 -0.06 12358
0.02 0.20 0.31 -0.87 9.82 -0.02 0.09 -0.06 12365
0.01 0.23 0.38 -0.90 9.89 -0.02 0.08 -0.06 12372
0.02 0.19 0.38 -0.87 9.92 -0.02 0.08 -0.05 12380
0.02 0.21 0.36 -0.80 9.88 -0.02 0.07 -0.05 12387
0.02 0.23 0.38 -0.83 9.82 -0.01 0.07 -0.05 12394
0.02 0.24 0.36 -0.84 9.85 -0.01 0.07 -0.06 12401
0.04 0.20 0.43 -0.87 9.82 -0.01 0.07 -0.06 12408
0.02 0.20 0.42 -0.90 9.82 -0.01 0.07 -0.06 12416
0.04 0.18 0.40 -0.86 9.82 -0.01 0.06 -0.06 12423
0.03 0.19 0.33 -0.89 9.86 -0.02 0.06 -0.06 12430
0.04 0.20 0.38 -0.85 9.79 -0.02 0.06 -0.06 12437
0.05 0.21 0.34 -0.86 9.85 -0.02 0.06 -0.06 12444
0.05 0.21 0.35 -0.86 9.83 -0.02 0.07 -0.06 12451
0.05 0.22 0.34 -0.84 9.83 -0.02 0.07 -0.06 12459
0.06 0.22 0.36 -0.83 9.79 -0.02 0.06 -0.05 12466
0.04 0.22 0.39 -0.76 9.74 -0.02 0.06 -0.05 12473
0.06 0.22 0.34 -0.86 9.79 -0.02 0.06 -0.05 12480
0.08 0.22 0.37 -0.87 9.76 -0.02 0.05 -0.06 12487
0.07 0.23 0.38 -0.88 9.82 -0.03 0.05 -0.06 12494
0.06 0.23 0.38 -0.86 9.83 -0.03 0.04 -0.05 12502
0.06 0.24 0.37 -0.83 9.74 -0.03 0.04 -0.06 12509
0.06 0.25 0.42 -0.81 9.81 -0.02 0.04 -0.05 12516
0.07 0.25 0.43 -0.81 10.40 -0.02 0.04 -0.06 12523
0.08 0.24 0.39 -0.80 9.81 -0.02 0.04 -0.06 12530
0.08 0.23 0.36 -0.83 9.79 -0.01 0.03 -0.06 12537
0.07 0.22 0.34 -0.80 9.83 -0.01 0.04 -0.05 12545
0.07 0.21 0.34 -0.81 9.82 -0.01 0.04 -0.06 12552
0.07 0.22 0.41 -0.80 9.20 -0.01 0.04 -0.06 12559
0.07 0.23 0.37 -0.81 9.81 -0.00 0.04 -0.06 12566
0.09 0.22 0.40 -0.82 9.77 -0.00 0.04 -0.06 12573
0.09 0.22 0.39 -0.84 9.82 -0.00 0.04 -0.06 12580
0.09 0.21 0.39 -0.84 9.82 -0.00 0.04 -0.06 12588
0.07 0.22 0.40 -0.85 9.77 0.00 0.04 -0.06 12595
0.07 0.22 0.37 -0.80 9.81 -0.00 0.04 -0.06 12602
0.08 0.23 0.35 -0.81 9.81 0.00 0.04 -0.06 12609
0.09 0.21 0.36 -0.84 9.79 0.00 0.04 -0.06 12616
0.08 0.21 0.36 -0.81 9.83 0.00 0.04 -0.06 12623
0.07 0.20 0.36 -0.81 9.79 0.01 0.04 -0.06 12631
0.06 0.20 0.39 -0.84 9.80 0.01 0.04 -0.06 12638
0.07 0.20 0.36 -0.85 9.82 0.01 0.05 -0.07 12645
0.07 0.19 0.39 -0.82 9.21 0.01 0.04 -0.06 12652
0.10 0.18 0.37 -0.87 9.81 0.01 0.04 -0.06 12659
0.09 0.17 0.34 -0.86 9.80 0.01 0.05 -0.06 12666
0.10 0.15 0.38 -0.89 9.80 0.01 0.04 -0.06 12674
0.10 0.15 0.35 -0.84 9.78 0.01 0.04 -0.06 12681
0.12 0.16 0.35 -0.84 9.79 0.00 0.04 -0.06 12688
0.12 0.17 0.37 -0.84 9.78 0.01 0.05 -0.06 12695
0.12 0.16 0.36 -0.85 9.81 0.00 0.04 -0.06 12702
0.11 0.16 0.35 -0.82 9.80 0.00 0.04 -0.06 12709
0.12 0.14 0.40 -0.88 9.80 0.00 0.04 -0.06 12717
0.12 0.15 0.36 -0.87 9.81 0.00 0.05 -0.06 12724
0.12 0.16 0.34 -0.86 9.78 0.00 0.05 -0.06 12731
0.13 0.14 0.36 -0.89 9.81 0.00 0.04 -0.06 12738
0.13 0.14 0.36 -0.85 9.81 0.00 0.05 -0.07 12745
0.13 0.13 0.39 -0.85 9.78 0.00 0.05 -0.07 12752
0.12 0.12 0.38 -0.84 9.81 0.01 0.04 -0.06 12760
0.12 0.14 0.35 -0.87 9.82 0.01 0.05 -0.06 12767
0.14 0.13 0.38 -0.86 9.80 0.00 0.05 -0.07 12774
0.17 0.11 0.39 -0.84 10.42 0.01 0.05 -0.06 12781
0.16 0.12 0.37 -0.83 9.81 0.00 0.05 -0.07 12788
0.17 0.10 0.37 -0.88 9.77 0.00 0.05 -0.06 12795
0.15 0.10 0.37 -0.84 9.81 0.00 0.05 -0.06 12803
0.14 0.11 0.37 -0.86 9.81 0.00 0.05 -0.06 12810
0.17 0.09 0.39 -0.89 9.79 0.00 0.05 -0.06 12817
0.18 0.11 0.37 -0.86 9.79 -0.00 0.05 -0.06 12824
0.17 0.10 0.40 -0.86 9.78 0.00 0.05 -0.07 12831
0.17 0.10 0.40 -0.85 9.79 0.00 0.05 -0.07 12838
0.15 0.11 0.39 -0.87 9.80 0.00 0.05 -0.07 12846
0.17 0.10 0.38 -0.88 9.83 0.01 0.05 -0.10 12853
0.19 0.10 0.38 -0.87 9.80 0.01 0.05 -0.07 12860
0.22 0.07 0.35 -0.86 9.80 0.01 0.05 -0.06 12867
0.22 0.05 0.36 -0.86 9.81 0.01 0.05 -0.07 12874
0.23 0.03 0.38 -0.90 9.77 0.01 0.05 -0.06 12881
0.22 0.03 0.36 -0.90 9.81 0.01 0.06 -0.06 12889
0.23 0.03 0.40 -0.85 9.77 0.01 0.06 -0.06 12896
0.26 0.00 0.39 -0.91 9.78 0.01 0.06 -0.07 12903
0.26 0.00 0.41 -0.85 9.21 0.01 0.06 -0.07 12910
0.27 0.00 0.40 -0.90 9.80 0.02 0.07 -0.07 12917
0.26 -0.02 0.36 -0.88 9.80 0.02 0.07 -0.07 12924
0.26 -0.01 0.38 -0.90 9.81 0.02 0.07 -0.07 12932
0.28 0.00 0.39 -0.90 9.80 0.03 0.08 -0.07 12939
0.29 -0.01 0.41 -0.92 9.81 0.03 0.08 -0.07 12946
0.29 -0.02 0.40 -0.90 9.80 0.03 0.09 -0.07 12953
0.31 -0.01 0.38 -0.90 9.79 0.04 0.09 -0.07 12960
0.30 -0.02 0.45 -0.90 9.83 0.05 0.09 -0.07 12967
0.31 -0.01 0.41 -0.92 9.83 0.05 0.10 -0.06 12975
0.32 0.00 0.41 -0.92 9.81 0.05 0.11 -0.06 12982
0.34 -0.01 0.37 -0.85 9.82 0.07 0.12 -0.06 12989
0.34 -0.01 0.42 -0.95 9.83 0.08 0.16 -0.06 12996
0.34 -0.02 0.46 -0.94 9.84 0.10 0.15 -0.06 13003
0.36 -0.03 0.44 -0.92 9.90 0.12 0.18 -0.06 13010
0.36 -0.02 0.40 -0.96 9.86 0.14 0.20 -0.05 13018
0.38 -0.01 0.44 -0.91 9.88 0.18 0.24 -0.06 13025
0.40 -0.03 0.39 -1.02 10.10 0.22 0.29 -0.05 13032
0.38 -0.02 0.43 -0.98 9.99 0.27 0.33 -0.05 13039
0.40 -0.03 0.49 -1.01 10.17 0.34 0.38 -0.05 13046
0.39 -0.02 0.58 -1.01 10.23 0.42 0.41 -0.06 13054
0.42 -0.02 0.63 -1.12 10.14 0.50 0.41 -0.06 13062
0.41 -0.02 0.67 -1.11 10.23 0.59 0.39 -0.08 13069
0.44 -0.02 0.81 -1.26 10.50 0.71 0.38 -0.09 13076
0.43 -0.02 0.74 -1.20 10.70 0.82 0.37 -0.10 13082
0.41 -0.03 0.78 -1.33 10.92 0.92 0.37 -0.12 13090
0.41 -0.02 0.97 -1.33 10.83 1.01 0.32 -0.14 13097
0.45 -0.02 0.97 -1.57 11.17 1.08 0.25 -0.16 13105
0.44 -0.02 0.82 -1.46 11.34 1.16 0.19 -0.17 13112
0.44 -0.02 0.90 -1.63 11.19 1.26 0.12 -0.18 13119
0.42 -0.02 0.85 -1.67 11.49 1.35 0.08 -0.19 13126
0.40 -0.03 0.88 -1.70 11.17 1.45 0.00 -0.20 13132
0.38 -0.02 1.02 -1.87 11.45 1.54 -0.03 -0.20 13140
0.37 -0.01 0.93 -2.01 10.89 1.64 -0.07 -0.20 13148
0.38 -0.02 0.94 -2.19 10.80 1.72 -0.11 -0.21 13155
0.35 -0.02 0.66 -2.23 10.44 1.76 -0.14 -0.21 13162
0.33 -0.03 0.57 -2.34 10.22 1.78 -0.16 -0.20 13169
0.29 -0.02 0.50 -2.56 10.12 1.81 -0.15 -0.17 13176
0.24 -0.01 0.56 -2.66 9.93 1.83 -0.15 -0.15 13182
0.17 -0.00 0.81 -2.76 10.25 1.86 -0.13 -0.15 13191
0.20 -0.02 -0.02 -2.52 8.16 1.88 -0.22 -0.14 13197
0.19 -0.02 0.62 -3.23 10.79 1.88 -0.18 -0.12 13204
0.14 -0.01 0.53 -3.33 10.01 1.92 -0.18 -0.12 13211
0.10 -0.01 0.56 -3.58 9.78 1.92 -0.22 -0.11 13218
0.08 -0.01 0.76 -3.69 9.75 1.91 -0.21 -0.12 13225
0.11 -0.01 0.78 -3.84 9.64 1.89 -0.22 -0.13 13233
0.09 -0.01 0.81 -4.14 9.66 1.87 -0.23 -0.13 13240
0.09 -0.01 0.82 -4.34 9.40 1.82 -0.25 -0.15 13247
0.12 -0.01 0.80 -4.61 9.26 1.77 -0.25 -0.17 13254
0.06 -0.01 0.74 -4.60 9.18 1.69 -0.25 -0.17 13261
0.05 -0.01 0.80 -4.65 9.28 1.62 -0.25 -0.19 13268
0.06 -0.01 0.78 -4.68 9.32 1.58 -0.25 -0.20 13276
0.06 -0.01 0.85 -4.87 9.85 1.55 -0.26 -0.22 13283
0.06 -0.01 0.82 -5.09 10.10 1.50 -0.28 -0.23 13290
0.04 -0.00 0.99 -5.32 10.32 1.44 -0.27 -0.24 13297
0.03 -0.00 0.92 -5.38 10.29 1.36 -0.26 -0.26 13304
0.04 -0.00 0.79 -5.25 10.57 1.22 -0.26 -0.27 13312
0.05 -0.01 0.76 -5.31 10.78 1.04 -0.31 -0.29 13319
0.04 -0.00 0.73 -5.20 10.34 0.90 -0.37 -0.29 13326
0.02 -0.00 0.84 -4.96 9.52 0.76 -0.43 -0.30 13333
0.00 0.00 0.89 -4.93 7.96 0.63 -0.50 -0.32 13340
0.00 0.00 1.02 -4.32 6.68 0.51 -0.55 -0.34 13347
0.00 -0.00 1.35 -4.68 6.22 0.43 -0.57 -0.37 13355
0.01 -0.00 1.82 -4.65 6.29 0.40 -0.61 -0.42 13362
0.00 0.00 2.67 -3.58 6.80 0.42 -0.61 -0.49 13369
0.00 -0.00 2.82 -3.63 6.75 0.47 -0.59 -0.58 13376
0.00 0.00 2.64 -4.24 6.93 0.51 -0.56 -0.67 13383
0.00 0.00 2.21 -4.09 6.84 0.58 -0.49 -0.76 13390
0.01 -0.00 1.29 -5.28 6.51 0.65 -0.42 -0.82 13398
0.02 -0.00 0.76 -5.73 6.45 0.75 -0.36 -0.86 13405
0.02 -0.00 0.34 -4.43 6.78 0.81 -0.29 -0.88 13412
0.01 -0.00 -0.19 -4.90 6.99 0.79 -0.25 -0.88 13419
0.00 0.00 -0.79 -4.85 7.98 0.69 -0.19 -0.85 13426
0.00 0.00 -0.80 -3.93 8.58 0.62 -0.15 -0.79 13433
0.00 0.00 -1.04 -3.15 8.92 0.51 -0.11 -0.72 13441
0.00 0.00 -0.51 -2.13 9.12 0.35 -0.07 -0.61 13448
0.00 0.00 -0.34 -1.41 8.52 0.19 -0.04 -0.46 13455
0.00 0.00 -0.36 -0.65 8.66 0.03 -0.05 -0.31 13462
0.00 0.00 -0.03 1.21 8.29 -0.04 -0.12 -0.08 13469
0.00 0.00 0.83 2.13 8.11 -0.16 -0.18 0.21 13476
0.00 0.00 1.71 2.22 7.83 -0.27 -0.20 0.45 13484
0.00 0.00 1.38 1.22 7.22 -0.35 -0.19 0.72 13491
0.00 0.00 1.79 0.28 7.93 -0.40 -0.12 0.88 13498
0.00 0.00 1.91 -0.31 8.05 -0.44 -0.03 0.98 13505
0.00 0.00 0.44 -2.42 8.46 -0.44 0.05 0.92 13512
0.00 0.00 -0.04 -2.85 7.84 -0.46 0.12 0.81 13519
0.00 0.00 0.81 -3.29 10.01 -0.44 0.24 0.56 13527
0.00 0.00 -1.05 -5.30 8.41 -0.47 0.34 0.38 13534
0.00 0.00 -2.40 -8.84 7.95 -0.39 0.47 0.02 13541
0.00 0.00 -2.31 -7.91 8.81 -0.40 0.48 -0.16 13548
0.00 0.00 -0.39 -3.17 10.45 -0.36 0.56 -0.35 13555
0.00 0.00 -1.84 -7.38 5.54 -0.49 0.48 -0.39 13562
0.00 -0.00 -1.02 -6.36 8.23 -0.55 0.40 -0.37 13570
0.00 0.00 -2.23 -7.54 6.95 -0.52 0.18 -0.37 13577
0.00 0.00 -2.43 -4.48 6.67 -0.49 -0.00 -0.32 13584
0.00 0.00 -0.57 -3.80 7.30 -0.42 -0.10 -0.29 13591
0.00 0.00 -1.00 -4.90 5.08 -0.46 -0.22 -0.27 13598
0.00 0.00 0.08 -1.60 7.46 -0.44 -0.17 -0.24 13605
0.00 -0.00 -1.70 -8.05 5.94 -0.46 -0.12 -0.25 13613
0.00 0.00 -0.03 -5.04 9.25 -0.44 -0.06 -0.29 13620
0.00 0.00 0.38 -3.94 8.26 -0.43 -0.04 -0.32 13627
0.00 0.00 -0.44 -6.30 8.35 -0.51 0.03 -0.36 13634
0.00 0.00 0.73 -1.39 9.36 -0.52 0.07 -0.33 13641
0.00 0.00 -0.52 -9.72 4.19 -0.52 0.10 -0.37 13648
0.00 0.00 -0.54 -5.83 8.53 -0.51 0.14 -0.36 13656
0.00 0.00 -0.06 -4.99 8.50 -0.55 0.18 -0.32 13663
0.00 0.00 -0.92 -6.85 7.75 -0.60 0.24 -0.28 13670
0.00 0.00 -1.20 -3.79 8.89 -0.65 0.22 -0.20 13677
0.00 0.00 -2.23 -6.87 6.48 -0.60 0.16 -0.20 13684
0.00 0.00 -1.19 -2.52 8.18 -0.71 0.14 -0.08 13691
0.00 0.00 -1.55 -6.30 7.14 -0.71 0.13 -0.05 13699
0.00 0.00 0.04 -1.78 10.81 -0.75 0.06 0.08 13706
0.00 0.00 -1.34 -4.62 9.23 -0.66 0.04 0.09 13713
0.00 0.00 -1.41 -4.22 8.20 -0.67 0.03 0.13 13720
0.00 0.00 -0.62 -2.42 8.84 -0.69 0.09 0.18 13727
0.00 -0.00 -0.14 -3.40 8.93 -0.70 0.14 0.19 13734
0.00 0.00 0.23 -3.89 8.54 -0.75 0.12 0.19 13742
0.00 0.00 -0.48 -2.56 9.95 -0.73 0.13 0.17 13749
0.00 0.00 -0.82 -5.64 8.29 -0.69 0.14 0.15 13756
0.00 0.00 -0.34 -4.94 8.40 -0.75 0.18 0.14 13763
0.00 0.00 -0.04 -2.81 11.01 -0.70 0.20 0.09 13770
0.00 0.00 -1.29 -5.27 8.14 -0.70 0.19 0.07 13777
0.00 0.00 0.06 -6.06 9.90 -0.68 0.21 0.05 13785
0.00 0.00 -0.70 -6.43 8.13 -0.73 0.25 0.04 13792
0.00 0.00 -0.40 -4.88 11.12 -0.80 0.25 0.04 13799
0.00 0.00 0.61 -2.62 10.13 -0.79 0.18 0.07 13806
0.00 0.00 1.05 -2.28 9.65 -0.83 0.15 0.09 13813
0.00 0.00 1.04 -5.27 9.27 -0.78 0.13 0.10 13820
0.00 0.00 1.07 -3.11 9.37 -0.82 0.14 0.12 13828
0.00 0.00 0.44 -2.98 8.26 -0.68 0.17 0.10 13835
0.00 0.00 1.03 -2.15 7.86 -0.66 0.20 0.09 13842
0.00 0.00 0.08 -1.46 9.89 -0.66 0.25 0.08 13849
0.00 0.00 -0.40 -3.45 9.98 -0.68 0.28 0.05 13856
0.00 0.00 0.38 -2.52 9.96 -0.75 0.32 0.07 13863
0.00 0.00 -0.04 -1.18 13.18 -0.87 0.36 0.10 13871
0.00 0.00 0.82 -1.46 9.68 -0.92 0.25 0.16 13878
0.00 0.00 -0.01 -1.86 9.40 -1.04 0.20 0.27 13885
0.00 0.00 0.53 -1.40 11.14 -1.05 0.12 0.37 13892
0.00 0.00 1.50 -1.07 10.56 -1.09 0.11 0.48 13899
0.00 0.00 1.41 -1.52 9.40 -1.11 0.17 0.54 13906
0.00 0.00 2.10 -1.54 9.60 -1.12 0.27 0.61 13914
0.00 0.00 1.90 -2.08 9.56 -1.08 0.33 0.66 13921
0.00 0.00 1.80 -2.37 10.02 -1.05 0.42 0.68 13928
0.00 0.00 1.62 -2.43 10.43 -1.03 0.47 0.68 13935
0.01 -0.00 1.35 -2.51 10.36 -1.00 0.50 0.67 13942
0.00 -0.00 0.95 -2.50 10.45 -0.99 0.49 0.64 13949
0.00 0.00 0.78 -2.39 10.57 -0.99 0.49 0.57 13957
0.00 0.00 0.44 -2.30 10.47 -0.99 0.46 0.55 13964
0.00 0.00 0.05 -2.21 10.35 -0.99 0.42 0.49 13971
0.00 0.00 -0.17 -2.01 10.12 -0.98 0.36 0.44 13978
0.00 -0.00 -0.31 -1.83 9.98 -0.95 0.30 0.37 13985
0.00 0.00 -0.24 -1.67 10.07 -0.93 0.24 0.30 13992
0.00 0.00 -0.12 -1.58 10.17 -0.91 0.18 0.24 14000
0.00 0.00 0.16 -1.51 10.27 -0.89 0.14 0.18 14007
0.00 0.00 0.46 -1.44 10.34 -0.89 0.14 0.11 14014
0.00 -0.00 0.68 -1.42 10.27 -0.89 0.15 0.04 14021
0.02 -0.00 0.93 -1.32 10.42 -0.89 0.23 -0.03 14028
0.00 0.00 1.19 -1.04 10.38 -0.91 0.28 -0.08 14035
0.00 0.00 1.12 -0.61 10.27 -0.93 0.37 -0.12 14043
0.00 0.00 1.03 -0.46 10.36 -0.97 0.44 -0.13 14050
0.00 0.00 0.94 -0.46 10.29 -1.01 0.49 -0.13 14057
0.00 0.00 0.83 -0.71 10.23 -1.04 0.52 -0.10 14064
0.00 -0.00 0.81 -0.99 10.03 -1.06 0.54 -0.08 14071
0.00 0.00 0.61 -1.52 9.91 -1.06 0.54 -0.05 14078
0.00 0.00 0.45 -2.53 9.99 -1.05 0.48 -0.05 14086
0.00 0.00 0.72 -3.17 10.84 -1.04 0.28 -0.10 14093
0.00 0.00 -0.12 -3.14 10.67 -0.99 0.11 -0.17 14100
0.00 0.00 0.90 -5.26 11.55 -0.89 0.04 -0.24 14107
0.00 -0.00 -1.00 -5.43 12.10 -0.85 -0.14 -0.32 14114
0.00 -0.00 -0.82 -5.98 10.23 -0.78 -0.25 -0.37 14121
0.00 0.00 -2.89 -8.71 12.36 -0.51 -0.62 -0.43 14129
0.00 0.00 -1.18 -5.45 7.03 -0.27 -0.55 -0.44 14136
0.00 0.00 -0.81 -11.09 13.15 -0.21 -0.65 -0.44 14143
0.01 -0.00 -2.21 -13.53 14.14 0.03 -0.60 -0.42 14150
0.00 0.00 -0.51 -9.43 4.76 0.19 -0.42 -0.35 14157
0.00 -0.00 -3.28 -20.65 10.02 0.06 -0.40 -0.34 14164
0.00 0.00 -3.36 -14.65 7.58 0.11 -0.16 -0.37 14172
-0.00 0.00 -3.90 -15.35 6.82 0.03 -0.10 -0.39 14179
0.03 0.01 -4.76 -21.82 9.54 -0.01 0.05 -0.44 14186
0.00 -0.00 -3.79 -15.24 8.08 0.08 -0.03 -0.38 14193
0.00 -0.00 -2.23 -5.51 8.98 0.06 0.00 -0.25 14200
0.01 -0.00 -0.93 -1.35 9.42 -0.08 0.10 -0.03 14208
0.00 -0.00 0.04 -0.13 9.84 -0.14 0.16 0.06 14215
0.00 0.00 0.68 0.24 9.74 -0.14 0.18 0.04 14222
0.00 0.02 0.44 -0.27 9.61 -0.14 0.16 -0.01 14229
0.02 0.01 0.49 -0.83 9.28 -0.14 0.13 -0.01 14236
0.00 0.01 0.23 -1.16 9.77 -0.14 0.10 -0.01 14243
0.01 -0.00 0.27 -1.23 9.89 -0.15 0.09 -0.01 14251
0.00 0.02 0.37 -1.08 9.78 -0.12 0.09 -0.02 14258
0.01 0.03 0.37 -0.91 9.91 -0.11 0.06 -0.03 14265
0.01 0.05 0.40 -0.83 9.85 -0.09 0.06 -0.05 14272
0.02 0.04 0.29 -0.83 10.01 -0.06 0.05 -0.06 14279
0.01 0.05 0.34 -0.81 9.93 -0.05 0.06 -0.07 14286
0.02 0.04 0.27 -0.86 9.29 -0.04 0.07 -0.06 14294
0.00 0.06 0.33 -0.88 9.88 -0.04 0.07 -0.06 14301
0.02 0.08 0.34 -0.94 9.84 -0.03 0.07 -0.05 14308
0.03 0.07 0.39 -0.89 9.83 -0.04 0.06 -0.05 14315
0.04 0.08 0.40 -0.89 9.75 -0.04 0.05 -0.05 14322
0.04 0.07 0.40 -0.87 9.80 -0.04 0.05 -0.05 14329
0.03 0.07 0.34 -0.89 9.76 -0.04 0.05 -0.05 14337
0.02 0.11 0.31 -0.90 9.73 -0.05 0.05 -0.05 14344
0.03 0.11 0.28 -0.86 9.63 -0.04 0.06 -0.05 14351
0.03 0.13 0.34 -0.86 9.80 -0.04 0.07 -0.05 14358
0.03 0.14 0.38 -0.82 9.85 -0.04 0.08 -0.05 14365
0.02 0.14 0.34 -0.87 9.74 -0.04 0.08 -0.06 14372
0.03 0.13 0.42 -0.83 9.71 -0.04 0.08 -0.06 14380
0.02 0.15 0.35 -0.77 9.74 -0.04 0.08 -0.05 14387
0.04 0.17 0.36 -0.87 9.58 -0.04 0.07 -0.05 14394
0.06 0.19 0.36 -0.90 9.82 -0.04 0.07 -0.05 14401
0.06 0.17 0.29 -0.86 9.80 -0.04 0.06 -0.05 14408
0.04 0.18 0.41 -0.82 9.82 -0.04 0.06 -0.04 14415
0.02 0.18 0.40 -0.78 10.31 -0.04 0.06 -0.05 14423
0.03 0.21 0.41 -0.88 10.04 -0.03 0.06 -0.04 14430
0.04 0.22 0.40 -0.86 9.93 -0.03 0.05 -0.04 14437
0.06 0.26 0.41 -0.80 9.82 -0.03 0.05 -0.05 14444
0.04 0.25 0.37 -0.81 9.80 -0.03 0.05 -0.05 14451
0.05 0.26 0.44 -0.79 9.82 -0.02 0.05 -0.05 14458
0.04 0.27 0.39 -0.80 9.82 -0.02 0.04 -0.05 14466
0.06 0.25 0.43 -0.84 9.87 -0.02 0.04 -0.05 14473
0.04 0.27 0.35 -0.84 9.85 -0.01 0.05 -0.05 14480
0.05 0.23 0.38 -0.79 9.82 -0.01 0.05 -0.05 14487
0.05 0.24 0.39 -0.77 9.81 -0.01 0.04 -0.05 14494
0.05 0.24 0.34 -0.81 9.84 -0.01 0.04 -0.05 14501
0.04 0.25 0.36 -0.82 9.83 -0.00 0.04 -0.05 14509
0.05 0.26 0.38 -0.83 9.82 -0.00 0.03 -0.06 14516
0.06 0.26 0.41 -0.84 9.81 -0.00 0.03 -0.06 14523
0.07 0.23 0.42 -0.85 9.78 -0.00 0.03 -0.06 14530
0.07 0.23 0.40 -0.82 9.79 -0.00 0.03 -0.06 14537
0.07 0.22 0.40 -0.83 9.79 -0.00 0.03 -0.06 14544
0.04 0.23 0.38 -0.83 9.21 0.00 0.03 -0.05 14552
0.05 0.24 0.37 -0.81 9.80 -0.00 0.02 -0.06 14559
0.06 0.23 0.36 -0.85 9.78 -0.00 0.02 -0.06 14566
0.06 0.23 0.36 -0.85 9.81 -0.00 0.02 -0.06 14573
0.06 0.23 0.33 -0.81 9.77 -0.01 0.02 -0.06 14580
0.06 0.21 0.33 -0.84 9.77 -0.00 0.03 -0.06 14587
0.05 0.22 0.35 -0.85 9.80 -0.00 0.03 -0.06 14595
0.06 0.22 0.34 -0.86 9.81 -0.00 0.03 -0.06 14602
0.07 0.23 0.38 -0.86 9.80 -0.01 0.03 -0.06 14609
0.06 0.23 0.36 -0.84 9.80 -0.01 0.04 -0.06 14616
0.06 0.23 0.37 -0.88 9.75 -0.01 0.04 -0.06 14623
0.05 0.21 0.34 -0.85 9.78 -0.01 0.04 -0.06 14630
0.05 0.23 0.38 -0.82 9.80 -0.01 0.03 -0.06 14638
0.06 0.24 0.33 -0.84 9.76 -0.01 0.03 -0.06 14645
0.06 0.23 0.39 -0.83 9.79 -0.01 0.03 -0.06 14652
0.05 0.23 0.35 -0.82 9.79 -0.01 0.03 -0.06 14659
0.05 0.21 0.35 -0.84 9.80 -0.01 0.03 -0.06 14666
0.04 0.22 0.36 -0.84 9.81 -0.02 0.03 -0.07 14673
0.05 0.22 0.31 -0.84 9.79 -0.01 0.03 -0.06 14681
0.05 0.23 0.35 -0.83 9.81 -0.02 0.03 -0.06 14688
0.05 0.23 0.35 -0.82 9.82 -0.02 0.03 -0.06 14695
0.05 0.22 0.34 -0.81 9.80 -0.02 0.03 -0.06 14702
0.05 0.22 0.36 -0.85 9.81 -0.02 0.03 -0.06 14709
0.04 0.23 0.32 -0.83 9.76 -0.01 0.03 -0.06 14716
0.04 0.22 0.35 -0.85 9.79 -0.01 0.03 -0.06 14724
0.04 0.22 0.38 -0.84 9.74 -0.01 0.03 -0.07 14731
0.05 0.22 0.38 -0.85 9.79 -0.01 0.03 -0.06 14738
0.05 0.21 0.34 -0.84 9.79 -0.01 0.03 -0.06 14745
0.04 0.21 0.35 -0.82 9.75 -0.01 0.04 -0.06 14752
0.03 0.22 0.38 -0.80 9.77 -0.02 0.04 -0.07 14759
0.04 0.22 0.30 -0.82 9.80 -0.01 0.04 -0.06 14767
0.05 0.24 0.35 -0.82 9.79 -0.01 0.05 -0.07 14774
0.05 0.24 0.30 -0.83 9.81 -0.01 0.05 -0.07 14781
0.04 0.24 0.35 -0.80 9.80 -0.00 0.05 -0.07 14788
0.04 0.23 0.35 -0.82 9.83 -0.00 0.05 -0.07 14795
0.03 0.23 0.34 -0.86 9.80 0.01 0.05 -0.06 14802
0.04 0.24 0.33 -0.80 10.40 0.01 0.06 -0.07 14810
0.05 0.23 0.34 -0.83 9.79 0.01 0.05 -0.07 14817
0.06 0.20 0.35 -0.84 9.75 0.01 0.06 -0.07 14824
0.05 0.20 0.33 -0.81 9.81 0.01 0.06 -0.08 14831
0.04 0.18 0.36 -0.82 9.80 0.01 0.06 -0.07 14838
0.05 0.17 0.37 -0.86 9.81 0.01 0.06 -0.07 14845
0.05 0.18 0.36 -0.85 9.81 0.01 0.06 -0.07 14853
0.06 0.17 0.40 -0.87 9.81 0.01 0.07 -0.07 14860
0.07 0.16 0.36 -0.82 9.80 0.02 0.07 -0.08 14867
0.06 0.16 0.41 -0.83 9.81 0.02 0.07 -0.08 14874
0.06 0.11 0.39 -0.82 9.81 0.03 0.07 -0.08 14881
0.06 0.09 0.34 -0.82 9.82 0.03 0.08 -0.08 14888
0.10 0.07 0.41 -0.86 9.83 0.04 0.08 -0.08 14896
0.12 0.05 0.39 -0.84 9.87 0.05 0.09 -0.08 14903
0.14 -0.01 0.41 -0.88 9.88 0.06 0.10 -0.08 14910
0.15 -0.00 0.42 -0.87 9.92 0.07 0.11 -0.08 14917
0.15 0.01 0.44 -0.89 9.88 0.10 0.14 -0.09 14924
0.18 -0.01 0.45 -0.94 10.01 0.13 0.16 -0.10 14931
0.20 -0.01 0.54 -0.94 10.05 0.18 0.19 -0.10 14939
0.21 -0.02 0.59 -1.01 10.18 0.26 0.23 -0.11 14946
0.20 -0.02 0.68 -1.05 10.53 0.33 0.30 -0.14 14953
0.20 -0.02 0.98 -1.03 10.87 0.53 0.42 -0.18 14960
0.19 -0.01 1.03 -1.19 11.65 0.79 0.50 -0.23 14968
0.19 -0.01 0.96 -1.08 12.68 1.19 0.45 -0.27 14976
0.19 -0.01 0.89 -1.21 12.29 1.44 0.31 -0.29 14983
0.19 -0.02 0.70 -1.44 11.19 1.51 0.19 -0.28 14989
0.19 -0.01 0.85 -1.49 11.40 1.54 0.06 -0.28 14997
0.19 -0.02 0.46 -1.52 11.11 1.56 -0.02 -0.26 15003
0.17 -0.01 0.45 -1.51 10.69 1.60 -0.06 -0.24 15011
0.17 -0.01 0.20 -1.59 10.68 1.63 -0.10 -0.21 15019
0.16 -0.01 0.27 -1.80 10.17 1.63 -0.14 -0.18 15026
0.13 -0.01 0.35 -1.90 9.86 1.61 -0.18 -0.15 15032
0.08 -0.01 0.32 -1.99 9.99 1.57 -0.26 -0.13 15039
0.05 -0.01 0.42 -2.22 9.80 1.54 -0.20 -0.12 15046
0.06 -0.01 0.27 -2.36 9.82 1.53 -0.18 -0.10 15053
0.05 0.00 0.33 -2.56 9.52 1.52 -0.16 -0.08 15060
0.04 -0.00 0.46 -2.55 7.60 1.48 -0.16 -0.07 15068
0.04 -0.00 0.41 -2.82 9.81 1.43 -0.16 -0.05 15075
0.04 -0.00 0.46 -2.94 9.86 1.44 -0.10 -0.06 15082
0.02 -0.00 0.43 -3.09 9.98 1.46 -0.11 -0.06 15089
0.04 -0.00 0.47 -3.14 9.67 1.47 -0.09 -0.06 15096
0.04 -0.00 0.45 -3.19 9.72 1.45 -0.10 -0.06 15104
0.06 -0.01 0.62 -3.38 9.86 1.43 -0.13 -0.06 15111
0.07 -0.01 0.76 -3.65 10.02 1.42 -0.15 -0.08 15118
0.05 -0.01 0.72 -3.82 9.89 1.40 -0.15 -0.10 15125
0.04 -0.00 0.66 -4.05 9.98 1.37 -0.13 -0.12 15132
0.04 -0.00 0.67 -4.13 9.88 1.32 -0.12 -0.14 15139
0.04 -0.00 0.63 -4.38 9.96 1.26 -0.13 -0.16 15147
0.04 -0.00 0.80 -4.40 10.23 1.19 -0.20 -0.19 15154
0.04 -0.00 0.65 -4.34 9.87 1.09 -0.26 -0.22 15161
0.03 -0.00 0.70 -4.34 9.68 0.97 -0.34 -0.24 15168
0.02 -0.00 0.81 -4.37 9.58 0.92 -0.41 -0.27 15175
0.02 -0.00 0.97 -4.58 9.39 0.86 -0.49 -0.30 15182
0.03 -0.00 1.15 -4.42 9.05 0.83 -0.55 -0.34 15190
0.03 -0.00 1.20 -3.97 8.99 0.82 -0.59 -0.37 15197
0.00 -0.00 1.20 -3.61 9.00 0.83 -0.60 -0.41 15204
0.01 -0.00 1.27 -3.46 9.19 0.83 -0.60 -0.45 15211
0.01 -0.00 1.28 -3.57 9.19 0.81 -0.57 -0.48 15218
0.01 -0.00 1.12 -3.54 9.08 0.77 -0.51 -0.51 15225
0.00 -0.00 1.07 -3.55 8.67 0.70 -0.47 -0.53 15233
0.00 0.00 0.84 -4.04 8.38 0.61 -0.42 -0.56 15240
0.00 0.00 0.54 -3.56 8.28 0.59 -0.40 -0.58 15247
0.00 0.00 0.98 -1.96 7.94 0.55 -0.37 -0.60 15254
0.00 0.00 0.97 -1.25 7.79 0.46 -0.30 -0.59 15261
0.00 0.00 0.39 -1.81 8.20 0.33 -0.24 -0.57 15268
0.01 -0.00 0.45 -0.29 8.60 0.25 -0.20 -0.56 15276
0.00 0.00 0.53 0.22 8.47 0.21 -0.19 -0.52 15283
0.00 0.00 0.42 -0.23 8.88 0.13 -0.17 -0.47 15290
0.00 0.00 0.24 -0.77 8.56 0.09 -0.18 -0.41 15297
0.00 0.00 0.28 -1.16 8.69 0.09 -0.20 -0.36 15304
-0.00 0.00 0.97 0.25 8.89 0.08 -0.20 -0.30 15311
0.00 0.00 1.02 -0.50 9.20 0.03 -0.16 -0.25 15319
0.00 0.00 1.75 0.80 8.93 -0.05 -0.08 -0.20 15326
0.00 0.00 1.99 1.35 9.01 -0.14 0.03 -0.14 15333
0.00 0.00 1.16 -0.49 7.93 -0.21 0.12 -0.08 15340
0.00 0.00 1.10 -0.55 8.89 -0.25 0.20 -0.06 15347
0.00 0.00 1.20 0.18 9.02 -0.29 0.21 -0.02 15354
0.00 0.00 0.51 -0.31 8.47 -0.32 0.26 0.03 15362
0.00 0.00 0.86 0.07 8.82 -0.37 0.28 0.08 15369
0.00 0.00 -0.94 -1.51 9.54 -0.34 0.27 0.05 15376
0.00 0.00 -1.14 -1.57 8.73 -0.44 0.25 0.06 15383
0.00 0.00 0.03 -1.37 8.82 -0.41 0.29 -0.03 15390
0.00 0.00 -1.48 -6.38 7.54 -0.45 0.27 -0.08 15397
0.00 0.00 -0.03 0.06 10.91 -0.57 0.30 -0.13 15405
0.00 0.00 -3.59 -6.28 8.71 -0.52 0.23 -0.17 15412
0.00 0.00 -3.63 -6.45 10.29 -0.63 0.17 -0.18 15419
0.00 0.00 -1.06 -3.20 9.64 -0.53 0.07 -0.20 15426
0.00 0.00 -2.37 -5.05 7.41 -0.57 0.02 -0.22 15433
0.00 0.00 -0.11 -5.89 7.42 -0.59 -0.04 -0.20 15440
0.00 0.00 -2.21 -6.45 8.09 -0.55 -0.06 -0.21 15448
0.00 -0.00 -0.98 -1.60 10.63 -0.48 -0.10 -0.20 15455
0.00 -0.00 -1.62 -2.82 6.50 -0.48 -0.06 -0.23 15462
0.00 -0.00 -2.28 -7.57 8.77 -0.50 -0.03 -0.28 15469
0.00 0.00 -2.30 -9.98 8.44 -0.52 -0.02 -0.26 15476
0.02 -0.00 0.81 -3.98 10.44 -0.48 0.08 -0.26 15483
0.01 -0.00 -1.23 -5.29 11.08 -0.46 0.03 -0.28 15491
0.00 -0.00 -3.15 -8.06 8.94 -0.50 0.06 -0.25 15498
0.00 0.00 -1.99 -7.03 10.68 -0.51 0.13 -0.28 15505
0.00 -0.00 -0.86 -4.00 9.54 -0.54 0.06 -0.23 15512
0.01 -0.00 -0.49 -3.46 7.57 -0.55 0.10 -0.21 15519
0.01 -0.00 -2.22 -5.60 8.43 -0.57 0.14 -0.19 15526
0.01 -0.00 -1.17 -2.58 9.89 -0.55 0.08 -0.11 15534
0.00 -0.00 -1.45 -5.09 7.71 -0.47 0.04 -0.08 15541
0.00 0.00 -0.90 -3.43 9.73 -0.48 0.08 -0.05 15548
0.00 -0.00 -0.03 -1.87 8.97 -0.53 0.07 0.03 15555
0.01 -0.00 0.62 -3.19 9.26 -0.56 0.08 0.03 15562
0.01 -0.00 -0.42 -2.97 8.51 -0.55 0.05 0.07 15569
0.00 0.00 -1.29 -2.67 8.99 -0.59 0.13 0.08 15577
0.00 0.00 1.81 -1.72 7.97 -0.62 0.13 0.08 15584
0.00 0.00 0.51 -0.92 8.19 -0.68 0.18 0.10 15591
0.00 0.00 0.48 -2.71 8.78 -0.68 0.16 0.11 15598
0.00 -0.00 -0.26 -2.42 9.74 -0.72 0.17 0.14 15605
0.00 0.00 -0.07 -1.65 8.43 -0.71 0.13 0.14 15612
0.00 0.00 0.16 -2.03 9.18 -0.71 0.17 0.17 15620
0.00 0.00 0.49 -2.47 9.01 -0.72 0.16 0.19 15627
0.00 0.00 0.89 -2.01 9.76 -0.75 0.20 0.22 15634
0.00 0.00 0.73 -1.74 9.87 -0.78 0.25 0.25 15641
0.00 -0.00 0.71 -1.72 9.68 -0.80 0.28 0.28 15648
0.00 0.00 0.68 -1.65 9.51 -0.82 0.29 0.32 15655
0.00 0.00 0.55 -1.76 9.50 -0.84 0.29 0.37 15663
0.00 0.00 0.52 -1.80 9.41 -0.83 0.28 0.40 15670
0.00 0.00 0.49 -1.89 9.37 -0.82 0.27 0.44 15677
0.00 0.00 0.50 -1.94 9.36 -0.79 0.26 0.47 15684
0.00 -0.00 0.65 -1.94 9.53 -0.77 0.27 0.48 15691
0.00 0.00 0.67 -1.90 9.73 -0.75 0.31 0.49 15698
0.00 0.00 0.57 -1.78 9.79 -0.76 0.35 0.49 15706
0.00 0.00 0.34 -1.77 9.82 -0.77 0.39 0.49 15713
0.00 0.00 0.15 -1.68 10.00 -0.79 0.40 0.49 15720
0.00 0.00 0.02 -1.63 10.04 -0.81 0.40 0.48 15727
0.00 -0.00 0.01 -1.48 9.98 -0.83 0.38 0.46 15734
0.00 0.00 0.06 -1.43 9.97 -0.85 0.35 0.44 15741
0.00 0.00 0.16 -1.37 9.94 -0.87 0.31 0.41 15749
0.00 0.00 0.39 -1.36 9.99 -0.87 0.28 0.37 15756
0.00 0.00 0.61 -1.52 10.15 -0.87 0.27 0.32 15763
0.00 0.00 0.80 -1.73 10.16 -0.87 0.26 0.28 15770
0.00 0.00 0.90 -1.95 10.19 -0.87 0.28 0.22 15777
0.00 0.00 0.82 -2.21 10.12 -0.86 0.30 0.19 15784
0.00 0.00 0.76 -2.31 9.89 -0.84 0.31 0.16 15792
0.00 0.00 0.59 -2.40 9.71 -0.82 0.31 0.15 15799
0.00 0.00 0.51 -2.46 9.62 -0.77 0.29 0.15 15806
0.00 -0.00 0.61 -2.48 9.82 -0.72 0.24 0.15 15813
0.00 -0.00 0.84 -2.43 10.25 -0.66 0.22 0.15 15820
0.00 0.00 1.12 -2.27 10.36 -0.65 0.25 0.16 15827
0.00 0.00 1.18 -2.07 10.39 -0.68 0.31 0.17 15835
0.00 0.00 1.03 -1.89 10.40 -0.74 0.40 0.20 15842
0.00 0.00 0.72 -1.77 10.55 -0.78 0.47 0.23 15849
0.00 -0.00 0.53 -1.74 10.47 -0.82 0.50 0.28 15856
0.00 0.00 0.40 -1.65 10.31 -0.85 0.49 0.32 15863
0.00 0.00 0.34 -1.82 10.30 -0.88 0.46 0.38 15870
0.00 0.00 0.39 -2.04 10.25 -0.89 0.43 0.42 15878
0.00 0.00 0.58 -2.29 10.19 -0.90 0.42 0.44 15885
0.00 0.00 0.65 -2.59 10.04 -0.91 0.44 0.45 15892
0.00 -0.00 0.58 -2.85 9.81 -0.90 0.46 0.44 15899
0.00 0.00 -1.87 -10.41 14.04 -0.81 0.11 0.36 15906
0.00 0.00 -3.59 -5.93 9.91 -0.33 -0.51 0.19 15913
0.00 0.00 -0.56 -4.31 4.41 -0.14 -0.17 0.19 15921
0.00 0.00 -1.72 -9.49 9.11 0.04 -0.20 0.17 15928
0.00 0.00 -0.77 -8.77 8.94 0.24 -0.25 0.10 15935
0.00 0.00 -1.84 -12.06 6.58 0.31 -0.30 0.07 15942
0.00 0.00 -3.49 -15.40 10.92 0.44 -0.55 0.01 15949
0.00 0.00 -4.60 -18.93 10.69 0.27 -0.89 -0.07 15956
0.00 0.00 -4.68 -19.98 11.69 0.23 -0.41 -0.09 15964
0.00 0.00 -2.85 -15.94 9.82 0.12 -0.12 -0.14 15971
0.00 0.00 -0.91 -9.32 8.70 0.05 -0.06 -0.24 15978
0.01 -0.00 -1.11 -2.48 9.23 -0.07 0.09 -0.11 15985
0.00 0.00 -0.13 -1.44 9.74 -0.16 0.19 -0.01 15992
0.00 0.00 0.37 -0.41 10.02 -0.16 0.15 0.02 16000
-0.00 0.01 0.43 -0.07 9.84 -0.15 0.12 -0.01 16007
0.02 0.01 0.57 -0.50 9.87 -0.16 0.10 -0.03 16014
0.03 0.03 0.34 -0.87 9.75 -0.17 0.07 -0.03 16021
0.03 0.03 0.16 -1.08 9.71 -0.16 0.07 -0.02 16028
0.03 0.03 0.18 -1.12 9.87 -0.16 0.07 -0.02 16035
0.01 0.00 0.30 -1.10 10.01 -0.14 0.07 -0.03 16043
0.00 0.03 0.24 -0.90 9.94 -0.12 0.07 -0.04 16050
0.00 0.08 0.24 -0.81 9.96 -0.11 0.07 -0.04 16057
0.02 0.14 0.37 -0.80 9.91 -0.09 0.07 -0.04 16064
0.01 0.13 0.33 -0.80 9.90 -0.07 0.08 -0.04 16071
0.00 0.14 0.37 -0.81 9.88 -0.06 0.08 -0.04 16078
-0.00 0.14 0.40 -0.84 9.85 -0.05 0.08 -0.04 16086
-0.01 0.17 0.41 -0.90 9.87 -0.04 0.07 -0.04 16093
0.00 0.19 0.38 -0.92 9.80 -0.04 0.08 -0.04 16100
0.02 0.18 0.37 -0.94 9.81 -0.04 0.07 -0.04 16107
0.00 0.18 0.34 -0.92 9.81 -0.04 0.06 -0.04 16114
0.01 0.18 0.34 -0.88 9.82 -0.04 0.06 -0.04 16121
-0.00 0.18 0.36 -0.88 9.83 -0.04 0.05 -0.04 16129
-0.00 0.22 0.35 -0.92 9.76 -0.04 0.06 -0.05 16136
-0.00 0.26 0.36 -0.88 9.80 -0.04 0.06 -0.04 16143
-0.00 0.25 0.30 -0.88 9.79 -0.05 0.05 -0.04 16150
0.00 0.24 0.28 -0.86 9.20 -0.04 0.06 -0.05 16157
-0.00 0.25 0.36 -0.87 9.76 -0.04 0.06 -0.05 16164
-0.01 0.25 0.33 -0.89 9.77 -0.05 0.05 -0.05 16172
0.00 0.27 0.25 -0.87 9.79 -0.04 0.05 -0.05 16179
0.00 0.29 0.36 -0.87 9.84 -0.04 0.05 -0.04 16186
0.00 0.28 0.30 -0.84 9.77 -0.04 0.05 -0.05 16193
-0.01 0.27 0.28 -0.84 9.84 -0.04 0.05 -0.05 16200
0.00 0.27 0.34 -0.86 9.75 -0.04 0.05 -0.05 16207
-0.01 0.33 0.32 -0.88 9.78 -0.05 0.05 -0.04 16215
0.00 0.32 0.36 -0.89 9.89 -0.05 0.05 -0.04 16222
0.02 0.34 0.32 -0.82 9.86 -0.05 0.04 -0.04 16229
0.01 0.38 0.29 -0.81 9.82 -0.05 0.04 -0.05 16236
0.00 0.40 0.36 -0.85 9.77 -0.04 0.04 -0.04 16243
0.01 0.39 0.22 -0.79 9.83 -0.04 0.04 -0.05 16250
-0.00 0.44 0.35 -0.83 9.81 -0.04 0.04 -0.05 16258
0.01 0.42 0.39 -0.85 9.83 -0.03 0.04 -0.06 16265
0.02 0.45 0.38 -0.83 9.83 -0.02 0.04 -0.05 16272
-0.00 0.46 0.36 -0.81 9.82 -0.03 0.04 -0.06 16279
-0.01 0.49 0.38 -0.82 10.42 -0.02 0.03 -0.06 16286
-0.02 0.51 0.37 -0.82 9.62 -0.02 0.03 -0.06 16293
-0.01 0.50 0.36 -0.79 9.80 -0.02 0.02 -0.06 16301
-0.01 0.51 0.35 -0.79 9.88 -0.01 0.02 -0.06 16308
0.00 0.52 0.35 -0.80 9.81 -0.01 0.02 -0.06 16315
-0.00 0.51 0.33 -0.84 9.21 -0.01 0.01 -0.06 16322
-0.01 0.48 0.33 -0.79 9.82 -0.01 0.01 -0.07 16329
-0.02 0.48 0.35 -0.82 9.80 -0.00 0.01 -0.06 16336
-0.01 0.47 0.34 -0.82 9.79 0.00 0.01 -0.06 16344
0.00 0.47 0.34 -0.84 9.81 0.00 0.01 -0.07 16351
0.01 0.43 0.30 -0.84 9.79 0.00 0.02 -0.06 16358
0.01 0.41 0.28 -0.85 9.79 0.01 0.02 -0.07 16365
0.01 0.38 0.31 -0.80 9.81 0.01 0.02 -0.07 16372
0.00 0.39 0.27 -0.85 9.81 0.01 0.03 -0.07 16379
0.01 0.38 0.28 -0.86 9.82 0.00 0.04 -0.07 16387
0.01 0.39 0.31 -0.88 9.82 0.00 0.03 -0.07 16394
0.03 0.36 0.30 -0.86 9.78 -0.00 0.04 -0.07 16401
0.02 0.36 0.31 -0.84 9.82 -0.00 0.04 -0.06 16408
0.03 0.34 0.31 -0.85 10.41 -0.00 0.04 -0.07 16415
0.02 0.35 0.32 -0.84 9.81 -0.00 0.04 -0.06 16422
0.03 0.34 0.34 -0.81 9.82 -0.00 0.04 -0.07 16430
0.05 0.34 0.29 -0.85 9.77 -0.00 0.04 -0.07 16437
0.05 0.33 0.31 -0.84 9.78 -0.01 0.04 -0.07 16444
0.04 0.33 0.32 -0.85 9.78 -0.00 0.04 -0.06 16451
0.05 0.32 0.29 -0.84 9.81 -0.00 0.04 -0.06 16458
0.03 0.34 0.33 -0.84 9.81 -0.00 0.04 -0.07 16465
0.03 0.34 0.32 -0.87 9.82 -0.01 0.04 -0.06 16473
0.04 0.33 0.34 -0.84 9.78 -0.01 0.04 -0.07 16480
0.04 0.33 0.32 -0.87 9.80 -0.01 0.05 -0.07 16487
0.02 0.33 0.29 -0.86 9.78 -0.01 0.05 -0.07 16494
0.03 0.32 0.31 -0.82 9.80 -0.01 0.04 -0.06 16501
0.02 0.33 0.32 -0.83 9.81 -0.01 0.04 -0.06 16508
0.04 0.34 0.33 -0.85 9.81 -0.01 0.04 -0.06 16516
0.05 0.34 0.32 -0.85 9.75 -0.01 0.04 -0.06 16523
0.04 0.33 0.30 -0.82 9.76 -0.01 0.04 -0.06 16530
0.04 0.32 0.29 -0.87 9.81 -0.00 0.05 -0.07 16537
0.03 0.33 0.25 -0.84 9.79 -0.01 0.04 -0.06 16544
0.03 0.33 0.33 -0.86 9.80 -0.00 0.05 -0.07 16551
0.03 0.35 0.31 -0.81 9.79 -0.00 0.04 -0.07 16559
0.04 0.33 0.30 -0.82 9.80 -0.00 0.05 -0.07 16566
0.04 0.33 0.30 -0.82 9.82 -0.00 0.05 -0.07 16573
0.04 0.32 0.30 -0.83 9.20 0.00 0.04 -0.07 16580
0.03 0.32 0.33 -0.84 9.79 0.00 0.05 -0.07 16587
0.04 0.30 0.33 -0.83 9.81 0.00 0.05 -0.07 16594
0.04 0.31 0.31 -0.86 9.80 -0.00 0.05 -0.07 16602
0.05 0.30 0.34 -0.88 9.79 -0.00 0.05 -0.07 16609
0.04 0.30 0.27 -0.87 9.79 0.00 0.05 -0.07 16616
0.04 0.28 0.33 -0.87 9.77 -0.00 0.05 -0.08 16623
0.03 0.29 0.33 -0.84 9.74 -0.00 0.05 -0.07 16630
0.03 0.29 0.33 -0.86 9.79 -0.00 0.05 -0.07 16637
0.04 0.29 0.30 -0.82 9.72 -0.00 0.05 -0.07 16645
0.05 0.28 0.29 -0.85 9.80 0.00 0.05 -0.07 16652
0.04 0.28 0.29 -0.82 9.81 0.01 0.05 -0.07 16659
0.03 0.28 0.35 -0.82 9.77 0.01 0.05 -0.08 16666
0.04 0.30 0.31 -0.83 9.20 0.01 0.05 -0.08 16673
0.04 0.28 0.34 -0.89 9.79 0.02 0.05 -0.07 16680
0.08 0.24 0.32 -0.86 9.76 0.02 0.06 -0.08 16688
0.10 0.20 0.34 -0.88 9.81 0.02 0.06 -0.07 16695
0.11 0.17 0.36 -0.85 9.79 0.03 0.06 -0.08 16702
0.10 0.13 0.36 -0.82 9.81 0.03 0.07 -0.08 16709
0.12 0.13 0.37 -0.85 9.82 0.03 0.07 -0.08 16716
0.12 0.14 0.29 -0.87 9.82 0.04 0.07 -0.08 16723
0.15 0.09 0.37 -0.86 9.83 0.04 0.08 -0.08 16731
0.13 0.09 0.37 -0.87 9.87 0.05 0.09 -0.09 16738
0.14 0.01 0.36 -0.92 9.91 0.06 0.10 -0.08 16745
0.15 -0.01 0.39 -0.86 9.90 0.08 0.11 -0.09 16752
0.14 -0.00 0.40 -0.92 9.92 0.10 0.12 -0.08 16759
0.15 0.00 0.40 -0.93 10.04 0.14 0.14 -0.08 16766
0.18 -0.01 0.46 -0.97 10.13 0.18 0.17 -0.09 16774
0.18 -0.02 0.53 -0.96 10.27 0.26 0.21 -0.09 16781
0.19 -0.02 0.68 -0.95 10.55 0.38 0.29 -0.11 16788
0.17 -0.01 0.95 -1.01 11.42 0.57 0.43 -0.17 16796
0.18 0.01 1.30 -1.13 12.53 0.97 0.50 -0.22 16803
0.19 0.00 1.15 -1.02 13.00 1.42 0.43 -0.28 16809
0.19 -0.02 0.71 -1.74 12.80 1.61 0.29 -0.31 16817
0.17 -0.01 0.67 -1.29 11.80 1.68 0.16 -0.32 16825
0.18 -0.02 0.39 -1.40 11.42 1.72 0.05 -0.29 16831
0.17 -0.01 0.39 -1.58 10.66 1.77 -0.03 -0.27 16839
0.17 -0.01 0.25 -1.67 10.48 1.79 -0.15 -0.24 16846
0.17 -0.01 0.28 -1.74 10.46 1.76 -0.18 -0.20 16854
0.15 -0.02 0.32 -1.97 10.37 1.73 -0.17 -0.18 16860
0.13 -0.01 0.37 -2.12 9.82 1.73 -0.20 -0.16 16867
0.10 -0.01 0.20 -2.01 9.97 1.71 -0.26 -0.13 16874
0.05 -0.00 0.34 -2.40 9.72 1.66 -0.24 -0.12 16881
0.05 -0.01 0.50 -2.62 9.81 1.65 -0.19 -0.12 16888
0.05 -0.01 0.22 -2.72 10.11 1.64 -0.18 -0.12 16896
0.04 -0.00 0.34 -2.76 10.01 1.66 -0.14 -0.10 16903
0.03 -0.00 0.51 -3.13 9.79 1.65 -0.10 -0.09 16910
0.02 -0.00 0.58 -3.29 9.22 1.59 -0.05 -0.11 16917
0.04 -0.00 0.49 -3.25 9.25 1.53 -0.05 -0.12 16924
0.05 0.00 0.47 -3.27 9.57 1.46 -0.03 -0.12 16931
0.06 -0.01 0.48 -3.47 9.90 1.41 -0.06 -0.12 16939
0.05 -0.00 0.45 -3.65 9.84 1.37 -0.09 -0.12 16946
0.02 -0.00 0.51 -3.80 9.79 1.33 -0.09 -0.13 16953
0.03 -0.00 0.35 -3.92 9.89 1.26 -0.08 -0.13 16960
0.03 -0.00 0.38 -4.00 10.04 1.17 -0.04 -0.13 16967
0.03 -0.00 0.33 -3.79 10.21 1.07 -0.04 -0.12 16974
0.04 -0.00 0.37 -3.80 10.46 0.96 -0.08 -0.13 16982
0.01 -0.00 0.48 -3.61 10.18 0.84 -0.14 -0.13 16989
0.01 -0.00 0.58 -3.30 9.51 0.73 -0.22 -0.15 16996
0.00 0.00 0.73 -2.97 9.36 0.65 -0.31 -0.16 17003
0.01 -0.00 0.88 -2.30 8.91 0.58 -0.41 -0.18 17010
0.02 -0.00 0.67 -2.21 8.38 0.54 -0.47 -0.21 17017
0.02 -0.00 1.42 -0.99 8.58 0.52 -0.51 -0.25 17025
0.01 -0.00 2.03 -1.18 8.17 0.51 -0.49 -0.30 17032
0.01 -0.00 1.95 0.69 8.73 0.45 -0.45 -0.34 17039
0.00 0.00 1.94 0.88 8.06 0.34 -0.40 -0.36 17046
0.00 0.00 1.87 0.44 8.26 0.20 -0.31 -0.40 17053
0.00 0.00 2.11 0.49 8.63 0.08 -0.25 -0.43 17060
0.00 0.00 2.48 -0.30 8.37 0.02 -0.16 -0.49 17068
0.00 0.00 1.37 -1.56 8.10 0.00 -0.08 -0.53 17075
0.00 0.00 2.29 -0.87 8.91 0.01 0.00 -0.55 17082
0.00 0.00 2.57 0.04 8.28 -0.04 0.13 -0.58 17089
0.00 -0.00 2.68 -0.55 8.57 -0.15 0.28 -0.61 17096
0.00 -0.00 1.79 -2.82 7.98 -0.21 0.36 -0.65 17103
0.00 0.00 1.31 -1.70 9.39 -0.18 0.37 -0.66 17111
0.00 0.00 0.58 -3.61 8.31 -0.20 0.40 -0.66 17118
0.00 0.00 0.70 -1.57 8.57 -0.14 0.36 -0.65 17125
0.00 0.00 -0.29 -2.78 7.94 -0.11 0.25 -0.62 17132
0.00 0.00 0.09 -1.76 9.03 -0.07 0.17 -0.59 17139
0.00 0.00 0.15 -1.60 8.75 -0.03 0.08 -0.54 17146
0.00 0.00 0.61 -1.96 7.33 -0.03 0.08 -0.54 17154
0.00 0.00 -1.54 -6.46 8.45 -0.06 0.14 -0.55 17161
0.00 0.00 -0.02 0.93 12.13 -0.08 0.16 -0.56 17168
0.00 0.00 0.53 -2.59 6.04 -0.11 0.23 -0.58 17175
-0.00 0.00 -1.11 -4.92 7.36 -0.23 0.33 -0.60 17182
0.00 0.00 -0.96 -4.98 9.27 -0.23 0.30 -0.59 17189
0.00 0.00 -1.24 -0.69 10.41 -0.32 0.38 -0.55 17197
0.00 0.00 -0.27 -2.97 7.45 -0.36 0.32 -0.52 17204
0.00 0.00 -1.77 -5.76 6.60 -0.46 0.23 -0.47 17211
0.00 0.00 0.00 -2.61 9.33 -0.45 0.19 -0.38 17218
0.00 0.00 -1.83 -5.59 8.70 -0.36 0.14 -0.33 17225
0.00 0.00 -1.66 -5.11 7.91 -0.42 0.13 -0.28 17232
0.00 0.00 -1.00 -3.84 11.68 -0.35 0.11 -0.26 17240
0.00 0.00 -0.84 -5.75 8.29 -0.31 0.08 -0.22 17247
0.00 0.00 -0.43 -3.89 9.87 -0.29 0.09 -0.21 17254
0.00 0.00 -1.65 -5.80 8.84 -0.24 0.04 -0.21 17261
0.00 0.00 -0.63 -5.15 10.10 -0.28 0.01 -0.20 17268
0.00 0.00 -0.42 -3.48 8.76 -0.29 0.08 -0.22 17275
0.00 0.00 1.22 0.07 11.89 -0.40 0.10 -0.22 17283
0.00 0.00 -0.09 -1.12 8.44 -0.44 0.11 -0.23 17290
0.00 0.00 -0.56 -4.49 7.02 -0.56 0.10 -0.18 17297
0.00 0.00 0.77 -0.90 10.91 -0.56 0.15 -0.12 17304
0.00 -0.00 -0.72 -4.79 8.55 -0.57 0.12 -0.03 17311
0.00 0.00 0.12 -1.37 11.00 -0.58 0.16 0.02 17318
0.00 0.00 0.32 -2.74 8.53 -0.61 0.14 0.10 17326
0.00 0.00 0.20 -2.67 8.85 -0.57 0.15 0.20 17333
0.00 0.00 -0.08 -3.07 9.01 -0.58 0.13 0.25 17340
0.00 0.00 0.10 -4.04 9.84 -0.56 0.11 0.32 17347
0.00 -0.00 0.29 -3.04 9.20 -0.55 0.06 0.37 17354
0.00 0.00 0.21 -4.24 9.49 -0.52 0.05 0.41 17361
0.00 0.00 1.79 -3.32 9.06 -0.55 0.01 0.45 17369
0.00 0.00 0.94 -3.37 8.42 -0.51 0.04 0.47 17376
0.00 0.00 -0.05 -2.59 7.96 -0.52 0.07 0.50 17383
0.00 0.00 0.04 -3.44 9.14 -0.46 0.15 0.50 17390
0.00 0.00 -0.09 -3.19 7.54 -0.49 0.22 0.50 17397
0.00 0.00 -0.70 -3.26 9.37 -0.48 0.24 0.49 17404
0.00 0.00 -0.51 -3.51 9.38 -0.46 0.23 0.46 17412
0.00 0.00 -0.78 -4.67 9.95 -0.50 0.21 0.42 17419
0.00 0.00 -0.42 -2.04 11.45 -0.54 0.17 0.34 17426
0.00 0.00 -0.62 -3.71 8.99 -0.57 0.05 0.32 17433
0.00 0.00 0.44 -3.17 9.44 -0.59 0.03 0.28 17440
0.00 0.00 0.46 -3.46 9.23 -0.60 -0.02 0.26 17447
0.00 0.00 1.02 -2.66 9.75 -0.59 -0.03 0.23 17455
0.00 0.00 0.81 -3.40 9.58 -0.57 -0.01 0.21 17462
0.00 0.00 1.94 -2.38 8.61 -0.57 0.02 0.19 17469
0.00 -0.00 0.79 -2.39 9.17 -0.54 0.10 0.21 17476
0.01 -0.00 0.17 -3.27 8.36 -0.52 0.16 0.23 17483
0.00 0.00 1.25 -2.15 9.74 -0.52 0.20 0.29 17490
0.00 0.00 -0.17 -3.27 9.64 -0.52 0.21 0.33 17498
0.00 0.00 -0.17 -3.21 9.62 -0.51 0.22 0.37 17505
0.00 -0.00 -0.03 -3.80 9.67 -0.51 0.19 0.39 17512
0.00 0.00 1.67 -2.57 10.03 -0.54 0.18 0.40 17519
0.00 0.00 -0.23 -2.68 9.97 -0.56 0.19 0.39 17526
0.00 0.00 0.10 -3.00 10.11 -0.58 0.21 0.39 17533
0.00 0.00 0.44 -4.19 9.38 -0.58 0.20 0.39 17541
0.00 0.00 1.11 -1.16 10.19 -0.56 0.19 0.38 17548
0.00 0.00 0.69 -1.72 9.87 -0.58 0.15 0.37 17555
0.01 -0.00 -0.09 -3.57 10.84 -0.55 0.12 0.34 17562
0.00 0.00 1.78 -1.41 8.98 -0.51 0.09 0.29 17569
0.00 0.00 -0.05 -3.12 11.18 -0.54 0.08 0.26 17576
0.00 0.00 0.79 -2.11 8.57 -0.50 0.10 0.22 17584
0.00 0.00 0.22 -2.76 9.86 -0.50 0.10 0.20 17591
0.00 0.00 0.63 -1.73 9.74 -0.49 0.10 0.16 17598
0.00 -0.00 -0.14 -3.57 9.49 -0.51 0.05 0.12 17605
0.00 0.00 0.03 -1.95 8.90 -0.51 0.02 0.08 17612
0.00 0.00 0.21 -2.21 10.99 -0.54 0.02 0.05 17619
0.00 0.00 0.09 -2.86 9.14 -0.60 0.04 0.03 17627
0.00 0.00 1.90 -1.08 6.89 -0.63 0.11 0.03 17634
0.00 -0.00 0.64 -2.13 9.07 -0.71 0.18 0.03 17641
0.00 -0.00 0.86 -1.87 9.85 -0.72 0.24 0.05 17648
0.00 0.00 1.67 -0.76 9.58 -0.74 0.28 0.08 17655
0.00 0.00 1.17 -1.15 9.93 -0.75 0.31 0.12 17662
0.00 0.00 1.07 -0.93 8.99 -0.75 0.33 0.16 17670
