Voltage_01 Voltage_02 Acc_x Acc_y Acc_z Gyro_x Gyro_y Gyro_z Time
5000
0.07 0.42 0.38 -0.80 9.82 -0.02 0.05 -0.08 24
0.08 0.40 0.35 -0.81 9.92 -0.01 0.05 -0.08 31
0.08 0.39 0.37 -0.82 9.81 -0.01 0.04 -0.08 38
0.08 0.40 0.37 -0.81 9.85 -0.00 0.04 -0.09 46
0.09 0.40 0.34 -0.84 9.82 -0.00 0.04 -0.09 53
0.10 0.41 0.38 -0.85 9.83 0.00 0.04 -0.09 60
0.10 0.41 0.36 -0.83 9.74 0.00 0.04 -0.09 67
0.09 0.39 0.35 -0.82 9.81 0.00 0.04 -0.09 74
0.09 0.38 0.35 -0.84 9.81 0.00 0.04 -0.09 81
0.09 0.37 0.34 -0.85 9.78 0.00 0.04 -0.09 89
0.09 0.38 0.36 -0.82 9.82 0.00 0.04 -0.09 96
0.10 0.38 0.32 -0.84 9.82 0.00 0.04 -0.09 103
0.12 0.35 0.34 -0.87 9.81 0.00 0.04 -0.09 110
0.11 0.32 0.36 -0.84 9.82 0.01 0.03 -0.09 117
0.11 0.28 0.35 -0.87 9.81 0.00 0.04 -0.09 124
0.12 0.28 0.34 -0.84 9.79 0.01 0.04 -0.09 132
0.14 0.31 0.32 -0.81 9.80 0.00 0.04 -0.10 139
0.16 0.29 0.34 -0.83 10.37 0.00 0.03 -0.09 146
0.16 0.31 0.34 -0.84 9.81 0.00 0.04 -0.09 153
0.15 0.29 0.33 -0.88 9.81 0.00 0.04 -0.09 160
0.15 0.29 0.37 -0.87 9.82 0.00 0.04 -0.09 167
0.15 0.29 0.32 -0.85 9.82 0.00 0.04 -0.10 175
0.15 0.27 0.36 -0.85 9.80 -0.00 0.03 -0.09 182
0.18 0.25 0.35 -0.84 9.81 -0.00 0.03 -0.09 189
0.18 0.24 0.32 -0.85 9.84 0.00 0.03 -0.09 196
0.18 0.25 0.28 -0.86 9.79 -0.00 0.03 -0.10 203
0.17 0.25 0.34 -0.86 9.82 -0.00 0.03 -0.09 210
0.18 0.25 0.35 -0.87 9.82 -0.01 0.03 -0.10 218
0.19 0.26 0.30 -0.87 9.82 -0.00 0.04 -0.09 225
0.20 0.26 0.35 -0.88 9.80 -0.00 0.03 -0.09 232
0.20 0.26 0.33 -0.87 9.80 -0.00 0.03 -0.09 239
0.20 0.24 0.33 -0.89 9.81 -0.00 0.03 -0.09 246
0.18 0.25 0.33 -0.87 9.81 -0.00 0.04 -0.09 253
0.19 0.24 0.33 -0.87 9.82 -0.00 0.03 -0.10 261
0.20 0.23 0.34 -0.86 9.81 -0.00 0.03 -0.10 268
0.22 0.21 0.30 -0.87 9.83 -0.00 0.04 -0.09 275
0.21 0.21 0.33 -0.86 9.80 0.00 0.04 -0.09 282
0.20 0.22 0.33 -0.86 9.81 0.00 0.04 -0.10 289
0.20 0.20 0.29 -0.82 9.82 0.01 0.04 -0.09 296
0.23 0.17 0.30 -0.88 9.80 0.01 0.05 -0.10 304
0.25 0.15 0.31 -0.86 9.20 0.01 0.04 -0.10 311
0.24 0.15 0.29 -0.86 9.82 0.01 0.04 -0.10 318
0.24 0.09 0.29 -0.87 9.81 0.01 0.05 -0.09 325
0.25 0.10 0.30 -0.86 9.80 0.01 0.05 -0.10 332
0.27 0.09 0.36 -0.85 9.80 0.02 0.05 -0.10 339
0.29 0.10 0.29 -0.87 9.80 0.02 0.06 -0.10 347
0.32 0.08 0.33 -0.88 9.82 0.02 0.06 -0.10 354
0.31 0.08 0.33 -0.88 9.77 0.02 0.06 -0.10 361
0.31 0.04 0.38 -0.88 9.81 0.03 0.06 -0.10 368
0.29 0.04 0.30 -0.90 9.82 0.03 0.07 -0.10 375
0.31 0.04 0.37 -0.86 9.82 0.03 0.07 -0.10 382
0.32 0.03 0.32 -0.88 9.82 0.03 0.08 -0.10 390
0.35 -0.01 0.36 -0.88 9.81 0.04 0.08 -0.11 397
0.37 -0.02 0.36 -0.91 9.20 0.04 0.08 -0.10 404
0.39 -0.01 0.36 -0.94 9.84 0.06 0.08 -0.10 411
0.40 -0.01 0.36 -0.91 9.89 0.07 0.08 -0.10 418
0.43 -0.01 0.37 -0.90 9.85 0.08 0.10 -0.11 425
0.44 -0.01 0.37 -0.94 9.97 0.10 0.11 -0.10 433
0.44 -0.02 0.36 -0.89 10.04 0.14 0.12 -0.11 441
0.43 -0.02 0.41 -0.91 10.12 0.19 0.13 -0.10 448
0.43 -0.02 0.47 -0.95 10.31 0.24 0.14 -0.11 455
0.42 -0.02 0.49 -0.99 10.44 0.33 0.16 -0.12 462
0.43 -0.02 0.77 -1.06 10.89 0.44 0.20 -0.14 468
0.43 -0.03 0.83 -1.10 11.50 0.66 0.23 -0.17 477
0.42 -0.03 0.86 -1.18 12.10 0.97 0.19 -0.20 484
0.39 -0.02 1.03 -1.18 11.98 1.19 0.09 -0.24 491
0.36 -0.03 0.82 -1.25 11.81 1.30 0.02 -0.27 498
0.35 -0.02 0.75 -1.31 11.47 1.34 -0.03 -0.30 505
0.31 -0.02 0.57 -1.44 11.25 1.39 -0.09 -0.31 513
0.27 -0.02 0.55 -1.56 11.26 1.45 -0.18 -0.30 520
0.24 -0.02 0.57 -1.60 10.67 1.49 -0.24 -0.30 527
0.22 -0.02 0.56 -1.77 10.61 1.53 -0.31 -0.30 533
0.19 -0.02 0.55 -1.89 10.31 1.56 -0.35 -0.29 540
0.15 -0.01 0.54 -1.94 10.03 1.58 -0.38 -0.33 547
0.11 -0.01 0.24 -2.16 9.24 1.58 -0.43 -0.30 555
0.08 -0.01 0.16 -2.31 10.34 1.56 -0.40 -0.29 562
0.08 -0.01 0.31 -2.46 10.09 1.50 -0.35 -0.28 569
0.05 -0.01 0.44 -2.54 9.90 1.49 -0.28 -0.27 576
0.05 -0.01 0.48 -2.70 9.79 1.46 -0.22 -0.29 583
0.02 -0.00 0.53 -2.73 9.81 1.40 -0.16 -0.29 590
0.03 -0.00 0.29 -2.83 9.76 1.34 -0.14 -0.30 598
0.03 -0.00 0.36 -3.02 9.86 1.27 -0.06 -0.31 605
0.00 -0.00 0.45 -3.07 10.31 1.21 -0.02 -0.31 612
0.01 -0.00 0.25 -3.05 10.15 1.15 0.02 -0.31 619
0.00 -0.00 0.34 -2.91 10.22 1.08 0.03 -0.31 626
0.00 0.00 0.31 -2.82 10.38 1.01 0.02 -0.31 633
0.00 -0.00 0.23 -2.91 10.52 0.95 -0.02 -0.31 641
0.00 0.00 0.35 -2.33 10.34 0.86 -0.07 -0.31 648
0.03 -0.00 0.28 -2.12 9.66 0.78 -0.10 -0.31 655
0.02 -0.00 -0.06 -2.32 9.05 0.67 -0.16 -0.30 662
0.01 -0.00 0.11 -2.03 8.85 0.59 -0.25 -0.29 669
0.00 -0.00 0.41 -1.77 8.66 0.51 -0.31 -0.27 676
0.00 0.00 0.61 -0.81 8.78 0.42 -0.34 -0.24 684
0.01 -0.00 0.99 0.21 8.79 0.35 -0.33 -0.23 690
0.00 0.00 1.34 -0.23 8.00 0.24 -0.31 -0.21 697
0.00 0.00 1.14 -0.55 8.43 0.20 -0.31 -0.17 703
0.00 0.00 1.64 0.51 8.51 0.20 -0.31 -0.14 709
0.01 -0.00 2.11 0.54 9.13 0.20 -0.28 -0.11 715
0.00 0.00 1.91 -0.57 7.79 0.18 -0.24 -0.06 722
0.00 0.00 2.83 0.62 8.99 0.17 -0.18 -0.02 729
0.00 0.00 2.88 0.29 8.45 0.15 -0.11 0.01 735
0.00 0.00 2.60 0.13 9.38 0.12 -0.01 0.04 741
0.00 0.00 2.47 1.89 8.86 0.09 0.05 0.08 747
0.00 0.00 2.12 0.72 8.79 0.01 0.11 0.14 753
0.00 0.00 1.20 0.24 9.18 -0.03 0.19 0.18 759
0.00 0.00 1.96 0.70 9.38 -0.05 0.22 0.22 765
0.00 -0.00 1.78 -0.03 8.88 -0.12 0.26 0.25 772
0.00 0.00 0.98 -0.07 9.12 -0.16 0.31 0.27 779
0.00 0.00 0.57 -0.43 9.00 -0.18 0.33 0.28 785
0.00 0.00 -0.07 -1.21 9.11 -0.20 0.32 0.26 791
0.00 0.00 -0.13 -1.39 9.30 -0.22 0.29 0.23 797
0.00 0.00 0.70 -0.93 9.75 -0.24 0.28 0.19 803
0.01 -0.00 -0.24 -2.31 8.77 -0.27 0.26 0.16 809
0.00 0.00 -0.03 -1.62 10.03 -0.31 0.24 0.12 817
0.00 0.00 -0.90 -2.02 9.49 -0.29 0.21 0.08 824
0.00 0.00 -0.07 -2.22 9.36 -0.33 0.20 0.04 830
0.00 0.00 -0.02 -2.25 9.18 -0.34 0.17 -0.01 836
0.00 0.00 0.13 -1.44 9.38 -0.38 0.15 -0.03 842
0.01 -0.00 -0.68 -3.80 9.06 -0.39 0.13 -0.05 848
0.00 0.00 0.71 -2.39 11.07 -0.36 0.11 -0.07 856
0.00 0.00 -0.22 -2.67 9.09 -0.41 0.07 -0.09 863
0.00 0.00 0.95 -3.29 7.58 -0.40 0.04 -0.12 869
0.00 0.00 -0.56 -4.23 10.51 -0.40 0.10 -0.13 875
0.00 0.00 -0.61 -4.72 8.83 -0.39 0.03 -0.14 882
0.00 0.00 -0.79 -4.06 10.47 -0.39 0.07 -0.15 888
0.00 0.00 0.43 -3.71 11.21 -0.38 0.07 -0.16 896
0.00 0.00 -1.25 -5.08 8.88 -0.37 0.05 -0.14 903
0.00 0.00 0.31 -3.41 9.44 -0.33 0.06 -0.13 909
0.00 0.00 -0.31 -3.85 9.53 -0.33 0.03 -0.13 915
0.00 0.00 -0.45 -3.81 10.53 -0.34 0.04 -0.09 921
-0.00 0.00 -0.50 -3.36 10.08 -0.36 0.09 -0.08 928
0.00 0.00 -2.36 -6.40 9.02 -0.33 0.08 -0.05 935
0.00 0.00 0.31 -2.83 9.96 -0.36 0.12 -0.01 942
0.00 0.00 0.65 -3.42 9.69 -0.30 0.07 -0.00 948
0.00 0.00 -1.24 -3.74 7.42 -0.31 0.09 0.03 954
0.00 0.00 -1.04 -2.63 8.18 -0.29 0.07 0.04 960
0.00 0.00 -0.07 -2.35 9.15 -0.32 0.13 0.05 966
0.00 0.00 0.08 -0.94 10.40 -0.33 0.11 0.06 972
0.00 0.00 -1.77 -3.29 8.34 -0.38 0.14 0.08 979
0.00 0.00 -0.07 -2.79 8.40 -0.43 0.20 0.10 986
0.00 0.00 -1.39 -4.78 8.79 -0.45 0.19 0.09 992
0.00 0.00 -0.94 -2.60 10.64 -0.49 0.20 0.11 998
0.00 0.00 -0.94 -3.38 9.66 -0.51 0.23 0.14 1005
0.00 0.00 0.23 -2.38 9.95 -0.54 0.21 0.18 1012
0.00 0.00 -1.27 -3.82 10.24 -0.53 0.20 0.23 1019
0.00 0.00 -1.78 -2.87 9.91 -0.54 0.19 0.28 1027
0.00 0.00 -0.10 -3.21 9.28 -0.53 0.14 0.30 1034
0.00 0.00 -0.92 -3.52 9.18 -0.54 0.11 0.30 1041
0.00 0.00 1.01 -2.17 9.61 -0.53 0.09 0.28 1048
0.00 0.00 -0.98 -3.47 9.19 -0.50 0.09 0.27 1055
0.00 0.00 0.05 -3.68 8.62 -0.52 0.07 0.25 1062
0.00 0.00 -0.43 -3.37 10.50 -0.49 0.06 0.24 1070
0.00 0.00 0.04 -3.87 10.06 -0.47 0.04 0.22 1077
0.00 0.00 0.28 -2.71 10.37 -0.43 0.04 0.21 1084
0.00 0.00 0.62 -3.48 8.85 -0.42 0.04 0.20 1091
0.00 0.00 1.15 -1.52 9.58 -0.42 0.08 0.20 1098
0.00 0.00 0.13 -2.83 10.44 -0.45 0.08 0.20 1105
0.00 0.00 0.24 -2.73 9.24 -0.47 0.10 0.21 1113
0.00 0.00 0.48 -2.04 10.07 -0.49 0.10 0.23 1120
0.00 0.00 0.40 -2.35 9.33 -0.47 0.08 0.25 1127
0.00 0.00 1.21 -2.45 9.81 -0.45 0.06 0.25 1134
0.00 0.00 0.72 -2.82 9.82 -0.43 0.06 0.25 1141
0.00 0.00 0.95 -2.73 9.55 -0.42 0.07 0.24 1148
0.00 0.00 0.86 -2.60 9.56 -0.40 0.10 0.22 1156
0.00 0.00 1.01 -2.32 9.81 -0.40 0.14 0.20 1163
0.00 0.00 0.97 -1.96 10.00 -0.39 0.17 0.18 1170
0.00 0.00 1.04 -1.77 9.95 -0.40 0.21 0.17 1177
0.00 0.00 0.86 -1.45 9.86 -0.42 0.24 0.17 1184
0.00 0.00 0.79 -1.35 9.83 -0.44 0.23 0.17 1191
0.00 0.00 0.80 -1.45 9.84 -0.46 0.19 0.17 1199
0.00 0.00 0.86 -1.54 9.76 -0.48 0.16 0.16 1206
0.00 0.00 0.98 -1.56 9.74 -0.49 0.14 0.15 1213
0.00 0.00 1.21 -1.50 9.71 -0.50 0.16 0.13 1220
0.00 0.00 1.30 -1.61 9.72 -0.51 0.20 0.13 1227
0.00 0.00 1.24 -1.70 9.70 -0.53 0.24 0.12 1234
0.00 0.00 1.16 -1.89 9.64 -0.54 0.26 0.11 1242
0.00 0.00 1.08 -2.08 9.71 -0.54 0.27 0.11 1249
0.00 0.00 1.04 -2.26 9.66 -0.53 0.26 0.09 1256
0.00 0.00 1.06 -2.44 9.54 -0.52 0.26 0.08 1263
0.00 0.00 1.06 -2.37 9.50 -0.50 0.26 0.06 1270
0.00 0.00 1.05 -2.18 9.56 -0.49 0.26 0.03 1277
0.00 0.00 1.10 -2.02 9.60 -0.47 0.27 0.02 1285
0.00 0.00 1.12 -1.82 9.64 -0.48 0.28 0.01 1292
0.00 0.00 1.08 -1.64 9.78 -0.48 0.31 0.01 1299
0.00 0.00 1.04 -1.54 9.95 -0.50 0.33 0.03 1306
0.00 0.00 1.10 -1.51 10.02 -0.53 0.35 0.05 1313
0.00 0.00 1.10 -1.49 9.99 -0.57 0.34 0.06 1320
0.00 0.00 1.15 -1.56 9.96 -0.60 0.32 0.08 1328
0.00 0.00 1.22 -1.81 9.83 -0.63 0.30 0.09 1335
0.00 0.00 1.30 -1.98 10.39 -0.63 0.31 0.10 1342
0.00 -0.00 1.34 -2.13 9.75 -0.62 0.33 0.09 1349
0.00 0.00 1.34 -2.22 9.64 -0.60 0.35 0.08 1356
0.00 0.00 1.15 -2.37 9.59 -0.58 0.38 0.06 1363
0.00 0.00 0.92 -2.45 9.61 -0.56 0.40 0.05 1371
0.00 0.00 0.60 -2.47 9.75 -0.53 0.40 0.04 1378
0.00 0.00 0.00 -2.82 10.09 -0.51 0.35 0.03 1385
0.00 0.00 -0.36 -2.93 9.94 -0.49 0.22 0.01 1392
0.00 0.00 -1.36 -4.49 10.60 -0.42 -0.00 -0.01 1399
0.00 0.00 -1.56 -4.08 10.35 -0.31 -0.38 -0.07 1406
0.00 0.00 -0.22 -2.69 7.84 -0.19 -0.46 -0.09 1414
0.00 0.00 0.25 -4.34 8.81 -0.15 -0.43 -0.09 1421
0.00 0.00 -0.55 -4.06 8.97 -0.11 -0.57 -0.13 1428
0.00 0.00 -0.21 -4.22 9.98 -0.05 -0.54 -0.17 1435
0.00 0.00 -0.55 -5.10 9.57 -0.01 -0.46 -0.16 1442
0.00 0.00 0.24 -4.92 7.37 0.06 -0.46 -0.13 1449
0.00 0.00 -1.25 -6.91 9.64 0.14 -0.39 -0.06 1457
0.00 0.00 -1.36 -6.35 7.37 0.15 -0.42 -0.01 1464
-0.00 0.01 -3.40 -10.28 9.07 0.14 -0.56 -0.01 1471
-0.00 0.01 -4.54 -12.65 8.83 0.17 -0.75 -0.01 1478
-0.00 0.02 -6.46 -14.79 10.13 0.11 -0.64 0.01 1485
-0.00 0.01 -6.11 -14.16 9.94 0.08 -0.45 -0.04 1492
-0.00 0.02 -1.93 -4.79 10.19 0.02 -0.11 -0.07 1500
-0.00 0.02 -0.12 -1.25 9.68 -0.06 0.03 -0.04 1507
0.03 0.01 0.32 -0.77 9.73 -0.10 0.07 -0.04 1514
0.03 0.01 0.53 -0.32 9.49 -0.10 0.06 -0.01 1521
0.03 0.01 0.47 -0.32 9.60 -0.10 0.03 -0.01 1528
0.00 0.00 0.38 -0.53 9.70 -0.11 0.02 -0.02 1536
-0.00 0.00 0.34 -0.73 9.79 -0.12 0.01 -0.04 1543
0.01 0.02 0.32 -0.88 9.50 -0.10 0.01 -0.04 1550
0.02 0.02 0.30 -0.91 9.72 -0.09 -0.01 -0.05 1557
0.02 0.03 0.37 -0.91 9.87 -0.07 -0.01 -0.05 1564
0.02 0.03 0.37 -0.95 9.87 -0.06 -0.01 -0.06 1571
0.03 0.05 0.29 -0.87 9.82 -0.05 -0.00 -0.06 1579
0.05 0.04 0.31 -0.90 9.89 -0.05 0.01 -0.06 1586
0.06 0.05 0.27 -0.88 9.89 -0.05 0.02 -0.06 1593
0.07 0.04 0.22 -0.88 9.81 -0.05 0.03 -0.06 1600
0.05 0.05 0.22 -0.88 9.63 -0.06 0.04 -0.05 1607
0.06 0.08 0.25 -0.80 9.83 -0.06 0.04 -0.05 1614
0.04 0.09 0.27 -0.85 9.92 -0.07 0.04 -0.05 1622
0.05 0.09 0.23 -0.83 9.74 -0.07 0.04 -0.05 1629
0.05 0.15 0.35 -0.84 9.81 -0.08 0.04 -0.04 1636
0.06 0.14 0.29 -0.84 9.81 -0.08 0.04 -0.05 1643
0.05 0.15 0.36 -0.79 9.75 -0.08 0.04 -0.05 1650
0.06 0.13 0.37 -0.78 9.93 -0.07 0.04 -0.04 1657
0.04 0.15 0.36 -0.80 9.92 -0.06 0.04 -0.05 1665
0.06 0.16 0.33 -0.83 9.91 -0.06 0.04 -0.06 1672
0.07 0.21 0.38 -0.80 9.83 -0.05 0.04 -0.06 1679
0.09 0.19 0.37 -0.82 9.85 -0.05 0.04 -0.07 1686
0.10 0.21 0.30 -0.79 9.87 -0.04 0.04 -0.07 1693
0.10 0.22 0.34 -0.78 9.89 -0.04 0.04 -0.07 1700
0.09 0.24 0.34 -0.78 9.71 -0.03 0.05 -0.06 1708
0.09 0.27 0.31 -0.79 9.86 -0.03 0.05 -0.07 1715
0.10 0.33 0.31 -0.80 9.87 -0.03 0.05 -0.07 1722
0.10 0.29 0.29 -0.80 9.86 -0.02 0.05 -0.07 1729
0.11 0.26 0.34 -0.80 9.85 -0.01 0.05 -0.07 1736
0.11 0.26 0.35 -0.81 9.86 -0.01 0.05 -0.08 1743
0.12 0.28 0.32 -0.82 9.84 -0.01 0.06 -0.08 1751
0.14 0.28 0.34 -0.76 9.82 -0.01 0.05 -0.08 1758
0.14 0.27 0.31 -0.75 9.83 -0.00 0.05 -0.08 1765
0.15 0.26 0.35 -0.77 9.82 0.00 0.05 -0.08 1772
0.15 0.26 0.34 -0.77 9.81 0.01 0.05 -0.08 1779
0.14 0.26 0.30 -0.78 9.22 0.01 0.05 -0.08 1786
0.14 0.25 0.31 -0.79 9.82 0.01 0.05 -0.08 1794
0.17 0.24 0.33 -0.78 9.81 0.01 0.05 -0.08 1801
0.19 0.24 0.35 -0.78 9.80 0.01 0.05 -0.08 1808
0.19 0.22 0.31 -0.76 9.81 0.02 0.05 -0.08 1815
0.19 0.20 0.32 -0.78 9.79 0.01 0.05 -0.09 1822
0.18 0.17 0.33 -0.80 9.80 0.02 0.05 -0.08 1829
0.20 0.17 0.31 -0.85 9.81 0.01 0.05 -0.09 1837
0.21 0.17 0.34 -0.81 9.81 0.01 0.05 -0.08 1844
0.21 0.17 0.36 -0.84 9.80 0.01 0.05 -0.08 1851
0.22 0.17 0.32 -0.83 9.79 0.00 0.05 -0.09 1858
0.22 0.13 0.35 -0.81 9.78 0.00 0.05 -0.08 1865
0.23 0.13 0.32 -0.84 9.82 0.00 0.05 -0.08 1872
0.24 0.13 0.33 -0.79 10.38 -0.00 0.04 -0.08 1880
0.23 0.14 0.28 -0.81 9.81 -0.00 0.04 -0.08 1887
0.24 0.12 0.33 -0.80 9.78 0.00 0.04 -0.08 1894
0.24 0.12 0.32 -0.80 9.81 0.00 0.05 -0.08 1901
0.24 0.11 0.31 -0.81 9.82 0.01 0.05 -0.08 1908
0.23 0.11 0.29 -0.79 9.78 0.01 0.04 -0.08 1915
0.24 0.13 0.32 -0.81 9.81 0.01 0.05 -0.08 1923
0.25 0.12 0.32 -0.81 9.78 0.01 0.05 -0.08 1930
0.24 0.11 0.33 -0.80 9.82 0.00 0.05 -0.08 1937
0.24 0.09 0.34 -0.86 9.82 0.00 0.05 -0.08 1944
0.25 0.11 0.31 -0.82 9.80 0.00 0.05 -0.08 1951
0.23 0.12 0.33 -0.82 9.81 0.00 0.04 -0.08 1958
0.25 0.13 0.33 -0.81 9.79 -0.00 0.05 -0.08 1966
0.26 0.11 0.31 -0.82 9.80 -0.00 0.04 -0.08 1973
0.26 0.09 0.35 -0.80 9.79 -0.00 0.05 -0.08 1980
0.25 0.10 0.35 -0.84 9.79 -0.00 0.05 -0.08 1987
0.24 0.10 0.34 -0.82 9.80 0.00 0.05 -0.08 1994
0.25 0.11 0.32 -0.83 9.82 -0.00 0.05 -0.09 2001
0.24 0.12 0.34 -0.82 10.42 -0.00 0.05 -0.08 2009
0.26 0.11 0.37 -0.84 9.81 -0.00 0.05 -0.08 2016
0.24 0.08 0.29 -0.79 9.82 -0.00 0.05 -0.09 2023
0.24 0.07 0.33 -0.82 9.79 -0.01 0.05 -0.08 2030
0.23 0.06 0.32 -0.81 9.83 -0.01 0.05 -0.08 2037
0.23 0.07 0.30 -0.82 10.39 -0.01 0.05 -0.08 2044
0.24 0.08 0.35 -0.81 9.79 -0.01 0.04 -0.08 2052
0.24 0.08 0.34 -0.84 9.81 -0.00 0.05 -0.08 2059
0.23 0.07 0.31 -0.79 9.81 -0.00 0.05 -0.08 2066
0.24 0.06 0.34 -0.80 9.82 -0.00 0.05 -0.08 2073
0.23 0.06 0.38 -0.85 9.81 -0.00 0.05 -0.08 2080
0.24 0.07 0.32 -0.84 9.81 -0.00 0.05 -0.08 2087
0.24 0.08 0.33 -0.86 9.76 -0.00 0.05 -0.08 2095
0.25 0.07 0.36 -0.85 9.80 -0.00 0.05 -0.08 2102
0.24 0.06 0.33 -0.86 9.77 -0.00 0.05 -0.08 2109
0.24 0.06 0.37 -0.80 9.78 -0.00 0.05 -0.08 2116
0.23 0.07 0.34 -0.85 9.82 0.00 0.05 -0.08 2123
0.23 0.05 0.34 -0.83 9.82 0.00 0.05 -0.09 2130
0.25 0.02 0.32 -0.82 9.81 0.00 0.05 -0.09 2138
0.26 0.02 0.36 -0.81 9.82 0.00 0.05 -0.09 2145
0.27 0.00 0.38 -0.83 9.83 0.01 0.05 -0.09 2152
0.27 0.01 0.33 -0.80 9.82 0.01 0.05 -0.09 2159
0.26 0.01 0.36 -0.82 9.77 0.01 0.05 -0.08 2166
0.27 0.02 0.38 -0.85 9.83 0.01 0.06 -0.09 2173
0.29 0.02 0.34 -0.82 9.83 0.02 0.06 -0.08 2181
0.29 0.02 0.34 -0.84 9.84 0.03 0.06 -0.09 2188
0.28 0.01 0.37 -0.96 9.86 0.04 0.07 -0.09 2195
0.28 -0.01 0.38 -0.84 9.88 0.05 0.08 -0.09 2202
0.28 -0.01 0.35 -0.83 9.95 0.07 0.09 -0.09 2209
0.30 -0.01 0.42 -0.84 9.95 0.10 0.11 -0.09 2216
0.32 -0.01 0.42 -0.86 10.00 0.12 0.12 -0.09 2224
0.32 -0.02 0.57 -0.88 10.08 0.16 0.15 -0.10 2231
0.31 -0.03 0.52 -0.87 10.14 0.21 0.19 -0.11 2239
0.31 -0.02 0.62 -0.90 10.35 0.29 0.24 -0.12 2246
0.34 -0.02 0.80 -0.89 10.47 0.41 0.32 -0.15 2253
0.36 -0.02 0.86 -1.04 10.93 0.54 0.39 -0.18 2260
0.37 -0.03 0.72 -1.02 11.35 0.78 0.42 -0.20 2268
0.37 -0.02 0.50 -1.16 11.39 1.03 0.35 -0.20 2274
0.39 -0.03 0.46 -1.16 11.19 1.16 0.27 -0.19 2282
0.37 -0.02 0.51 -1.18 11.07 1.21 0.21 -0.19 2289
0.37 -0.02 0.29 -1.30 10.74 1.21 0.15 -0.18 2296
0.37 -0.02 0.38 -1.43 10.61 1.22 0.11 -0.17 2304
0.38 -0.02 0.44 -1.54 10.24 1.23 0.08 -0.16 2311
0.34 -0.02 0.51 -1.65 9.94 1.23 0.04 -0.15 2317
0.31 -0.03 0.56 -1.82 9.54 1.22 -0.04 -0.14 2324
0.28 -0.02 0.56 -1.84 10.21 1.18 -0.12 -0.13 2332
0.26 -0.00 0.59 -1.96 9.82 1.14 -0.14 -0.12 2338
0.22 -0.02 0.62 -2.01 10.01 1.14 -0.13 -0.12 2347
0.20 -0.02 0.49 -2.05 9.81 1.15 -0.15 -0.12 2353
0.19 -0.02 0.61 -2.24 9.81 1.15 -0.17 -0.12 2360
0.18 -0.02 0.61 -2.34 9.54 1.13 -0.18 -0.13 2367
0.16 -0.02 0.47 -2.42 9.39 1.09 -0.20 -0.13 2374
0.12 -0.01 0.50 -2.50 9.41 1.07 -0.18 -0.13 2381
0.13 -0.01 0.45 -2.64 9.52 1.06 -0.17 -0.13 2388
0.15 -0.01 0.29 -2.66 9.59 1.04 -0.18 -0.13 2396
0.10 -0.01 -0.30 -2.38 8.32 1.02 -0.23 -0.12 2403
0.06 -0.01 0.13 -2.81 9.82 0.99 -0.19 -0.10 2410
0.05 -0.00 0.19 -2.91 9.82 1.00 -0.16 -0.10 2417
0.02 -0.00 0.18 -3.07 9.85 1.01 -0.14 -0.09 2424
0.06 -0.01 0.32 -3.21 9.21 1.03 -0.12 -0.08 2432
0.04 -0.00 0.35 -3.33 9.81 1.04 -0.07 -0.09 2439
0.03 -0.00 0.32 -3.31 9.47 1.05 -0.05 -0.09 2446
0.04 -0.00 0.39 -3.40 9.40 1.02 -0.04 -0.09 2453
0.04 -0.00 0.43 -3.48 9.43 0.99 -0.03 -0.09 2460
0.05 -0.00 0.50 -3.54 9.47 0.96 -0.02 -0.11 2467
0.05 -0.00 0.61 -3.71 9.73 0.92 0.01 -0.12 2475
0.04 -0.00 0.68 -3.88 10.15 0.90 0.02 -0.13 2482
0.04 -0.00 0.61 -3.85 10.26 0.89 0.03 -0.15 2489
0.02 -0.00 0.65 -3.75 10.22 0.88 0.01 -0.17 2496
0.03 -0.00 0.73 -3.66 10.15 0.85 -0.02 -0.18 2503
0.04 -0.00 0.75 -3.53 10.06 0.81 -0.06 -0.21 2510
0.04 -0.00 0.83 -3.51 10.13 0.75 -0.09 -0.23 2518
0.01 -0.00 0.91 -3.35 9.90 0.68 -0.11 -0.26 2525
0.02 -0.00 0.90 -3.38 9.52 0.62 -0.14 -0.28 2532
0.01 -0.00 0.78 -2.61 9.26 0.55 -0.16 -0.31 2539
0.02 -0.00 0.78 -2.18 9.01 0.48 -0.19 -0.32 2546
0.02 -0.00 0.69 -2.26 8.66 0.41 -0.21 -0.34 2553
0.02 -0.00 0.54 -2.57 8.84 0.32 -0.24 -0.35 2561
0.01 -0.00 0.73 -1.53 9.07 0.24 -0.26 -0.37 2568
0.02 -0.00 0.93 -1.13 8.96 0.18 -0.26 -0.39 2575
0.00 -0.00 1.56 0.45 9.07 0.07 -0.22 -0.42 2582
0.00 -0.00 1.32 -0.03 8.47 -0.04 -0.16 -0.47 2589
0.02 -0.00 1.36 1.55 9.04 -0.15 -0.07 -0.51 2596
0.01 -0.00 1.08 0.98 8.58 -0.18 0.03 -0.55 2604
0.01 -0.00 0.61 2.36 8.62 -0.18 0.10 -0.56 2611
0.00 0.00 0.88 2.32 8.52 -0.21 0.13 -0.57 2618
0.00 0.00 0.52 2.36 9.23 -0.27 0.15 -0.55 2625
0.00 0.00 0.77 2.02 9.22 -0.38 0.17 -0.52 2632
0.00 -0.00 0.86 1.92 8.90 -0.45 0.22 -0.49 2639
0.00 0.00 0.70 1.22 8.93 -0.52 0.26 -0.45 2647
0.00 0.00 0.54 0.36 8.74 -0.55 0.28 -0.42 2654
0.00 0.00 0.30 -0.40 8.80 -0.54 0.27 -0.37 2661
0.00 0.00 0.28 -0.92 8.99 -0.50 0.25 -0.33 2668
0.00 0.00 0.35 -1.38 9.07 -0.45 0.20 -0.27 2675
0.00 0.00 0.42 -1.87 9.18 -0.40 0.18 -0.23 2682
0.00 0.00 0.24 -2.46 9.60 -0.35 0.16 -0.19 2690
0.00 0.00 0.58 -1.95 10.21 -0.32 0.20 -0.17 2697
0.00 0.00 0.35 -3.79 8.73 -0.35 0.20 -0.16 2704
0.00 0.00 -0.61 -1.74 11.62 -0.36 0.25 -0.17 2711
0.00 0.00 -1.33 -6.01 8.43 -0.35 0.20 -0.15 2718
0.00 0.00 -0.53 -3.22 11.61 -0.31 0.25 -0.14 2725
0.00 0.00 -3.19 -6.19 9.61 -0.25 0.22 -0.13 2733
0.00 0.00 -1.24 -5.24 11.28 -0.25 0.17 -0.16 2740
0.00 0.00 -3.46 -8.80 11.16 -0.26 0.12 -0.13 2747
0.00 0.00 -0.11 -3.61 11.75 -0.22 0.11 -0.10 2754
0.00 0.00 -0.29 -5.21 9.64 -0.29 0.06 -0.08 2761
0.00 0.00 -2.00 -6.26 9.56 -0.34 0.01 -0.08 2768
0.00 0.00 -0.08 -2.13 10.46 -0.34 -0.02 -0.04 2776
0.00 0.00 -0.22 -5.63 8.61 -0.32 -0.03 -0.02 2783
0.00 0.00 0.47 -4.84 6.89 -0.33 -0.03 0.01 2790
0.00 0.00 0.20 -5.31 8.34 -0.29 0.03 0.02 2797
0.01 -0.00 1.97 -4.29 8.46 -0.30 0.06 0.01 2804
0.00 0.00 3.60 -3.94 7.72 -0.27 0.03 0.02 2811
0.00 0.00 1.86 -1.53 8.95 -0.28 0.06 0.06 2819
0.00 0.00 -3.40 -4.14 9.78 -0.24 0.05 0.10 2826
0.00 0.00 -1.78 -4.41 8.83 -0.23 0.02 0.11 2833
0.00 0.00 -1.48 -2.80 10.51 -0.23 0.02 0.14 2840
0.00 -0.00 -2.01 -4.85 10.55 -0.23 0.03 0.15 2847
0.00 0.00 -0.33 -3.44 8.67 -0.26 -0.02 0.16 2854
0.00 0.00 1.71 -2.36 8.66 -0.30 0.02 0.15 2862
0.00 0.00 1.30 -2.34 8.37 -0.36 0.09 0.19 2869
0.00 0.00 2.76 0.38 9.04 -0.39 0.14 0.20 2876
0.00 0.00 -0.35 -3.54 8.55 -0.43 0.13 0.23 2883
0.00 0.00 -1.28 -3.10 10.15 -0.40 0.10 0.28 2890
0.00 0.00 0.23 -0.90 9.73 -0.36 0.07 0.29 2897
0.00 0.00 1.26 -1.23 8.69 -0.41 0.08 0.32 2905
0.00 0.00 1.20 -1.70 8.32 -0.45 0.09 0.31 2912
0.00 0.00 0.96 -0.52 9.21 -0.47 0.08 0.30 2919
0.00 0.00 1.27 -2.05 9.42 -0.45 0.08 0.27 2926
0.00 0.00 0.82 -2.16 9.66 -0.44 0.12 0.25 2933
0.00 0.00 0.61 -0.43 9.75 -0.46 0.15 0.21 2940
0.00 0.00 0.32 -1.38 10.44 -0.50 0.17 0.18 2948
0.00 0.00 -0.24 -2.28 9.25 -0.55 0.22 0.15 2955
0.00 0.00 -0.21 -1.36 8.98 -0.58 0.25 0.11 2962
0.00 0.00 0.58 -1.30 9.22 -0.60 0.27 0.10 2969
0.00 0.00 0.92 -1.27 11.05 -0.62 0.27 0.06 2976
0.00 0.00 0.56 -2.04 9.04 -0.61 0.27 0.04 2983
0.00 0.00 1.02 -1.21 9.84 -0.63 0.29 0.02 2991
0.00 0.00 0.87 -1.25 10.34 -0.64 0.30 -0.00 2998
0.00 0.00 0.54 -1.58 9.15 -0.64 0.30 -0.01 3005
0.00 0.00 0.93 -1.13 10.85 -0.65 0.30 -0.02 3012
0.00 0.00 0.65 -1.68 9.33 -0.65 0.30 -0.04 3019
0.00 0.00 0.84 -1.22 9.41 -0.65 0.30 -0.04 3026
0.00 0.00 0.16 -1.31 10.17 -0.64 0.30 -0.06 3034
0.00 0.00 0.51 -0.98 9.82 -0.63 0.29 -0.08 3041
0.00 0.00 0.32 -0.90 10.86 -0.64 0.30 -0.10 3048
0.00 0.00 0.12 -0.96 10.78 -0.66 0.29 -0.12 3055
0.00 0.00 0.61 -0.79 9.74 -0.69 0.27 -0.15 3062
0.00 0.00 0.55 -1.00 10.29 -0.73 0.26 -0.18 3069
0.00 0.00 0.84 -0.43 11.48 -0.77 0.28 -0.19 3077
0.00 0.00 1.17 -0.58 9.94 -0.80 0.33 -0.20 3084
0.00 0.00 0.91 -0.10 9.49 -0.81 0.35 -0.18 3091
0.00 0.00 0.90 -0.54 10.09 -0.82 0.38 -0.15 3098
0.00 0.00 0.57 -0.56 10.31 -0.83 0.39 -0.12 3105
0.00 0.00 0.67 -0.74 10.02 -0.84 0.39 -0.10 3112
0.00 0.00 0.56 -0.88 9.94 -0.84 0.38 -0.07 3120
0.00 0.00 0.44 -1.00 10.35 -0.84 0.36 -0.06 3127
0.00 0.00 0.49 -1.11 10.14 -0.84 0.35 -0.06 3134
0.00 0.00 0.52 -1.07 9.90 -0.84 0.33 -0.07 3141
0.00 0.00 0.56 -1.27 10.21 -0.82 0.33 -0.08 3148
0.00 0.00 0.88 -1.31 10.16 -0.81 0.33 -0.10 3155
0.00 0.00 1.02 -1.31 10.05 -0.82 0.34 -0.12 3163
0.00 0.00 1.15 -1.39 10.09 -0.82 0.35 -0.12 3170
0.00 0.00 0.90 -1.61 10.16 -0.81 0.35 -0.11 3177
0.00 0.00 0.46 -2.18 10.30 -0.81 0.33 -0.11 3184
0.00 0.00 0.29 -2.21 10.23 -0.80 0.26 -0.11 3191
0.00 0.00 -0.65 -2.83 9.32 -0.77 0.17 -0.10 3198
0.00 0.00 -1.20 -5.23 10.97 -0.68 -0.05 -0.14 3206
0.00 0.00 -2.35 -5.53 10.30 -0.45 -0.34 -0.21 3213
0.00 0.00 -1.12 -6.31 8.38 -0.29 -0.39 -0.23 3220
0.00 0.00 -1.60 -6.55 7.61 -0.16 -0.57 -0.28 3227
0.00 0.00 -2.11 -6.45 7.21 -0.03 -0.71 -0.36 3234
0.00 0.00 -2.37 -10.76 9.01 0.14 -0.75 -0.41 3241
0.00 0.00 -1.44 -15.58 10.73 0.26 -0.79 -0.45 3249
-0.00 0.01 -3.37 -17.25 8.49 0.29 -0.89 -0.52 3256
0.00 0.00 -3.09 -26.24 8.09 0.15 -0.73 -0.51 3263
-0.00 0.00 -2.50 -20.10 6.97 0.06 -0.24 -0.32 3270
0.00 0.02 -1.71 -9.05 10.16 -0.03 -0.09 -0.06 3277
0.02 0.01 -0.13 -2.88 9.15 -0.14 0.04 0.05 3284
0.02 0.04 -0.09 -0.73 9.62 -0.20 0.04 0.12 3292
0.01 0.05 0.64 0.22 9.21 -0.19 0.02 0.11 3299
0.02 0.08 0.78 -0.25 9.79 -0.18 0.00 0.02 3306
-0.00 0.08 0.68 -0.40 9.95 -0.19 -0.01 -0.02 3313
0.00 0.14 0.34 -0.83 10.02 -0.16 -0.02 -0.03 3320
-0.01 0.16 0.10 -0.92 10.17 -0.13 0.01 -0.05 3328
0.00 0.22 0.23 -0.88 9.90 -0.12 0.04 -0.05 3335
0.02 0.24 0.31 -0.78 9.88 -0.09 0.06 -0.05 3342
0.01 0.28 0.29 -0.72 9.84 -0.08 0.07 -0.05 3349
0.01 0.29 0.30 -0.74 9.84 -0.08 0.08 -0.04 3356
0.01 0.35 0.24 -0.79 9.83 -0.07 0.09 -0.04 3363
0.00 0.37 0.33 -0.85 9.88 -0.07 0.10 -0.04 3371
0.00 0.43 0.44 -0.76 9.85 -0.06 0.10 -0.04 3378
0.01 0.45 0.39 -0.73 9.83 -0.06 0.10 -0.04 3385
0.02 0.40 0.46 -0.77 9.82 -0.05 0.09 -0.04 3392
0.02 0.39 0.46 -0.75 9.85 -0.04 0.09 -0.04 3399
0.01 0.44 0.36 -0.78 9.82 -0.04 0.08 -0.05 3406
0.00 0.45 0.30 -0.75 9.81 -0.04 0.07 -0.05 3414
0.00 0.46 0.36 -0.74 9.81 -0.04 0.07 -0.05 3421
0.02 0.50 0.42 -0.77 9.82 -0.04 0.07 -0.05 3428
0.00 0.54 0.41 -0.79 9.90 -0.03 0.07 -0.06 3435
0.01 0.55 0.35 -0.72 9.81 -0.03 0.06 -0.06 3442
-0.00 0.54 0.35 -0.73 9.72 -0.02 0.06 -0.06 3449
0.00 0.52 0.37 -0.74 9.83 -0.02 0.06 -0.06 3457
0.00 0.52 0.35 -0.73 9.85 -0.02 0.05 -0.06 3464
0.01 0.53 0.33 -0.74 9.80 -0.02 0.05 -0.06 3471
0.01 0.50 0.32 -0.70 9.82 -0.02 0.05 -0.06 3478
-0.00 0.49 0.41 -0.74 9.80 -0.02 0.05 -0.06 3485
-0.01 0.50 0.39 -0.74 9.79 -0.02 0.05 -0.06 3492
0.00 0.51 0.37 -0.74 9.81 -0.01 0.05 -0.07 3500
0.01 0.53 0.36 -0.70 9.79 -0.01 0.05 -0.07 3507
0.03 0.54 0.31 -0.74 9.83 -0.01 0.05 -0.07 3514
0.01 0.53 0.41 -0.73 9.21 -0.01 0.05 -0.07 3521
0.02 0.51 0.36 -0.73 9.81 -0.01 0.05 -0.06 3528
0.01 0.51 0.35 -0.74 9.85 -0.00 0.04 -0.07 3535
0.02 0.50 0.37 -0.73 9.80 -0.00 0.05 -0.07 3543
0.02 0.51 0.36 -0.71 9.81 -0.00 0.05 -0.07 3550
0.02 0.49 0.35 -0.78 9.72 -0.00 0.05 -0.07 3557
0.01 0.49 0.35 -0.71 9.81 0.00 0.05 -0.07 3564
0.02 0.46 0.40 -0.74 9.80 0.00 0.05 -0.07 3571
0.00 0.47 0.38 -0.72 9.81 0.01 0.05 -0.07 3578
0.01 0.47 0.40 -0.71 9.79 0.00 0.06 -0.07 3586
0.02 0.48 0.39 -0.71 9.73 0.00 0.06 -0.07 3593
0.02 0.46 0.37 -0.73 9.79 0.01 0.05 -0.07 3600
0.01 0.45 0.40 -0.76 9.79 0.01 0.06 -0.08 3607
0.02 0.43 0.41 -0.70 9.82 0.00 0.05 -0.08 3614
0.01 0.43 0.38 -0.74 9.79 0.01 0.06 -0.07 3621
0.01 0.42 0.39 -0.72 9.80 0.01 0.05 -0.07 3629
0.04 0.41 0.40 -0.77 9.81 0.01 0.05 -0.08 3636
0.03 0.38 0.35 -0.77 9.80 0.00 0.05 -0.08 3643
0.04 0.36 0.40 -0.74 9.78 0.00 0.05 -0.08 3650
0.04 0.35 0.40 -0.75 9.82 0.00 0.04 -0.08 3657
0.04 0.31 0.38 -0.77 9.79 0.01 0.05 -0.08 3664
0.04 0.32 0.40 -0.75 9.80 0.01 0.04 -0.08 3672
0.07 0.31 0.40 -0.78 9.81 0.01 0.04 -0.08 3679
0.08 0.31 0.43 -0.75 9.80 0.01 0.04 -0.08 3686
0.10 0.29 0.42 -0.77 9.80 0.01 0.03 -0.08 3693
0.07 0.28 0.41 -0.73 9.81 0.01 0.04 -0.08 3700
0.09 0.27 0.39 -0.74 9.78 0.01 0.03 -0.08 3707
0.08 0.27 0.38 -0.76 9.74 0.01 0.03 -0.08 3715
0.11 0.25 0.39 -0.76 9.81 0.01 0.03 -0.08 3722
0.08 0.22 0.39 -0.77 9.78 0.01 0.03 -0.08 3729
0.08 0.22 0.37 -0.77 9.79 0.01 0.04 -0.08 3736
0.08 0.21 0.38 -0.78 9.82 0.01 0.03 -0.08 3743
0.09 0.19 0.38 -0.77 9.80 0.01 0.03 -0.08 3750
0.13 0.21 0.41 -0.76 9.81 0.01 0.03 -0.08 3758
0.14 0.20 0.38 -0.77 9.82 0.01 0.03 -0.08 3765
0.13 0.20 0.42 -0.80 9.81 0.01 0.03 -0.09 3772
0.11 0.18 0.41 -0.79 9.20 0.01 0.03 -0.08 3779
0.11 0.16 0.39 -0.78 9.80 0.01 0.03 -0.08 3786
0.12 0.14 0.39 -0.80 9.70 0.01 0.03 -0.08 3793
0.15 0.15 0.44 -0.82 9.78 0.01 0.04 -0.09 3801
0.15 0.10 0.37 -0.78 9.82 0.01 0.04 -0.09 3808
0.14 0.13 0.39 -0.81 9.81 0.01 0.04 -0.08 3815
0.15 0.12 0.40 -0.82 9.81 0.01 0.04 -0.09 3822
0.16 0.09 0.41 -0.80 9.82 0.02 0.05 -0.09 3829
0.17 0.07 0.39 -0.85 9.82 0.02 0.04 -0.08 3836
0.20 0.06 0.38 -0.81 9.79 0.02 0.05 -0.09 3844
0.20 0.08 0.40 -0.80 9.79 0.02 0.05 -0.09 3851
0.20 0.04 0.35 -0.83 9.80 0.02 0.05 -0.09 3858
0.21 0.03 0.39 -0.77 9.81 0.02 0.05 -0.09 3865
0.20 0.04 0.39 -0.85 9.81 0.02 0.05 -0.09 3872
0.21 0.02 0.40 -0.82 9.82 0.02 0.06 -0.09 3879
0.23 0.01 0.39 -0.83 9.79 0.02 0.06 -0.08 3887
0.22 0.01 0.41 -0.82 9.81 0.03 0.06 -0.09 3894
0.21 -0.00 0.38 -0.87 9.80 0.02 0.06 -0.09 3901
0.21 0.00 0.43 -0.84 9.81 0.03 0.06 -0.08 3908
0.23 -0.00 0.39 -0.83 9.80 0.03 0.06 -0.09 3915
0.23 0.00 0.37 -0.85 9.81 0.03 0.06 -0.09 3922
0.25 -0.01 0.37 -0.85 9.81 0.03 0.07 -0.09 3930
0.23 0.00 0.42 -0.86 9.79 0.03 0.06 -0.09 3937
0.23 -0.02 0.41 -0.86 9.83 0.03 0.07 -0.08 3944
0.21 -0.01 0.43 -0.84 9.81 0.03 0.07 -0.08 3951
0.20 -0.01 0.42 -0.89 9.79 0.03 0.07 -0.08 3958
0.22 0.00 0.45 -0.86 9.81 0.04 0.08 -0.08 3965
0.24 -0.01 0.46 -0.86 9.83 0.05 0.09 -0.08 3973
0.23 -0.01 0.46 -0.92 9.82 0.06 0.10 -0.09 3980
0.24 -0.02 0.44 -0.89 9.85 0.08 0.11 -0.09 3987
0.25 -0.01 0.47 -0.86 9.92 0.10 0.13 -0.09 3994
0.26 -0.00 0.47 -0.84 9.98 0.13 0.15 -0.10 4001
0.28 -0.00 0.50 -0.88 10.04 0.17 0.20 -0.10 4008
0.31 -0.02 0.52 -0.94 10.16 0.24 0.24 -0.10 4016
0.32 -0.02 0.57 -0.94 10.27 0.33 0.31 -0.11 4024
0.33 -0.02 0.64 -0.97 10.55 0.43 0.39 -0.12 4031
0.33 -0.02 0.73 -1.08 10.60 0.60 0.43 -0.13 4038
0.34 -0.01 0.70 -1.02 11.05 0.82 0.43 -0.14 4044
0.36 -0.02 0.73 -1.15 11.29 0.99 0.39 -0.17 4052
0.35 -0.02 0.78 -1.27 11.34 1.13 0.30 -0.18 4060
0.36 -0.03 0.77 -1.37 11.31 1.19 0.17 -0.20 4067
0.34 -0.02 0.78 -1.36 11.19 1.25 0.08 -0.20 4074
0.31 -0.02 0.68 -1.47 11.19 1.30 0.02 -0.20 4081
0.30 -0.01 0.47 -1.59 10.68 1.33 -0.04 -0.18 4088
0.29 -0.02 0.40 -1.66 10.41 1.34 -0.09 -0.16 4096
0.26 -0.02 0.47 -1.72 10.29 1.35 -0.10 -0.15 4103
0.24 -0.02 0.41 -1.84 10.20 1.37 -0.13 -0.13 4109
0.20 -0.02 0.38 -1.99 9.87 1.40 -0.14 -0.11 4116
0.19 -0.02 0.44 -2.09 9.76 1.40 -0.15 -0.09 4123
0.17 -0.01 0.55 -2.22 9.85 1.38 -0.16 -0.09 4130
0.20 -0.02 0.50 -2.36 9.80 1.37 -0.15 -0.08 4137
0.14 -0.01 0.56 -1.87 9.80 1.35 -0.12 -0.08 4145
0.15 -0.02 0.60 -2.59 10.01 1.34 -0.11 -0.08 4152
0.10 -0.01 0.56 -2.72 10.12 1.35 -0.11 -0.08 4159
0.06 -0.01 0.21 -2.40 9.68 1.35 -0.16 -0.08 4166
0.06 -0.01 0.88 -2.94 10.25 1.35 -0.13 -0.10 4173
0.05 -0.00 0.80 -3.10 10.21 1.38 -0.13 -0.12 4180
0.02 -0.00 0.68 -3.22 9.74 1.38 -0.14 -0.14 4188
0.03 -0.00 0.70 -3.39 9.73 1.33 -0.15 -0.14 4195
0.01 -0.00 0.73 -3.52 9.82 1.27 -0.09 -0.15 4202
0.01 -0.00 0.47 -3.55 10.07 1.24 -0.06 -0.16 4209
0.02 -0.00 0.28 -3.57 10.11 1.21 -0.05 -0.14 4216
0.01 -0.00 0.24 -3.71 10.23 1.16 -0.04 -0.13 4224
0.04 -0.00 0.28 -3.81 10.13 1.11 -0.06 -0.12 4231
0.04 -0.00 0.23 -3.67 10.02 1.03 -0.08 -0.11 4238
0.03 -0.00 0.05 -3.52 9.70 0.93 -0.11 -0.11 4245
0.02 0.00 0.61 -3.36 9.51 0.84 -0.18 -0.10 4252
0.03 -0.00 0.08 -3.31 9.47 0.74 -0.29 -0.10 4259
0.00 0.00 0.40 -2.95 9.43 0.66 -0.37 -0.09 4267
0.00 0.00 0.86 -2.98 9.00 0.57 -0.40 -0.10 4274
0.00 0.00 0.95 -2.56 8.49 0.50 -0.41 -0.12 4281
0.00 0.00 1.65 -2.15 8.23 0.44 -0.42 -0.14 4288
0.00 0.00 1.29 -3.14 8.13 0.38 -0.40 -0.16 4295
0.00 0.00 1.42 -2.96 8.50 0.30 -0.38 -0.19 4302
0.00 0.00 1.62 -1.99 8.37 0.27 -0.31 -0.22 4310
0.00 0.00 1.92 -1.34 8.57 0.18 -0.22 -0.25 4317
0.01 -0.00 1.63 -0.38 8.18 0.07 -0.11 -0.30 4324
0.00 0.00 1.73 -0.80 8.06 -0.01 -0.06 -0.32 4331
0.00 0.00 0.93 -0.10 8.97 -0.05 0.01 -0.33 4338
0.00 0.00 0.91 0.46 8.73 -0.06 0.00 -0.32 4345
0.00 0.00 0.53 -0.38 7.74 -0.08 0.02 -0.27 4353
0.00 0.00 0.53 0.20 8.80 -0.09 0.06 -0.21 4360
0.00 0.00 0.24 0.16 8.57 -0.12 0.06 -0.16 4367
0.00 0.00 0.51 -0.68 8.26 -0.13 0.06 -0.13 4374
0.00 0.00 0.34 -0.45 8.52 -0.16 0.08 -0.10 4381
0.00 0.00 0.63 -1.58 8.82 -0.20 0.13 -0.09 4388
0.00 0.00 0.44 -1.50 9.86 -0.23 0.16 -0.11 4396
0.00 0.00 0.38 -1.87 9.04 -0.28 0.13 -0.12 4403
0.00 0.00 0.23 -1.54 9.51 -0.31 0.16 -0.16 4410
0.00 0.00 0.39 -2.03 9.16 -0.34 0.15 -0.18 4417
0.01 -0.00 0.54 -0.75 9.42 -0.38 0.16 -0.19 4424
0.00 0.00 0.69 -2.42 8.81 -0.36 0.16 -0.22 4431
0.00 0.00 0.44 -1.95 9.33 -0.34 0.15 -0.23 4439
0.00 0.00 0.37 -3.38 9.15 -0.33 0.16 -0.26 4446
0.00 -0.00 -0.01 -2.74 10.81 -0.35 0.18 -0.29 4453
0.00 0.00 0.32 -2.29 9.26 -0.34 0.14 -0.31 4460
0.02 -0.00 0.76 -4.61 6.84 -0.35 0.10 -0.32 4467
0.00 -0.00 -0.09 -4.33 12.04 -0.35 0.10 -0.30 4474
0.00 0.00 -0.33 -3.55 10.95 -0.34 0.08 -0.32 4482
0.00 0.00 -0.30 -2.95 10.78 -0.36 0.08 -0.29 4489
0.00 0.00 0.29 -4.03 10.53 -0.38 0.10 -0.31 4496
0.00 -0.00 -0.24 -4.35 9.46 -0.41 0.11 -0.30 4503
0.01 -0.00 0.53 -2.50 9.41 -0.37 0.16 -0.29 4510
0.00 -0.00 0.04 -4.26 7.65 -0.39 0.08 -0.29 4517
0.00 -0.00 -1.08 -5.01 9.05 -0.35 0.05 -0.26 4525
0.00 0.00 2.03 -0.92 11.23 -0.31 0.05 -0.25 4532
0.00 0.00 0.37 -3.95 6.83 -0.32 0.03 -0.20 4539
0.00 -0.00 -0.12 -3.94 8.59 -0.32 0.06 -0.15 4546
0.02 -0.00 0.15 -1.48 10.76 -0.32 0.04 -0.11 4553
0.00 0.00 -2.30 -5.50 8.54 -0.35 0.06 -0.10 4560
0.00 0.00 -0.31 -2.78 9.74 -0.40 0.06 -0.07 4568
0.00 0.00 0.23 -1.90 10.34 -0.42 0.05 -0.00 4575
0.00 -0.00 -0.23 -2.73 9.94 -0.41 0.05 0.05 4582
0.01 -0.00 0.91 -3.03 9.51 -0.44 0.03 0.10 4589
0.01 -0.00 0.44 -3.39 7.45 -0.49 0.08 0.12 4596
0.00 0.00 -1.21 -3.30 8.06 -0.49 0.11 0.17 4603
0.00 0.00 1.29 -2.66 9.85 -0.47 0.11 0.21 4611
0.00 0.00 0.10 -3.08 8.89 -0.43 0.08 0.26 4618
0.01 -0.00 0.27 -3.46 8.68 -0.39 0.07 0.28 4625
0.01 -0.00 -0.68 -4.07 7.66 -0.41 0.05 0.31 4632
0.00 0.00 1.05 -3.59 9.26 -0.41 0.08 0.33 4639
0.00 -0.00 0.76 -1.42 11.33 -0.40 0.05 0.34 4646
0.00 0.00 -1.06 -3.13 9.64 -0.38 0.06 0.35 4654
0.00 0.00 1.32 -3.49 8.61 -0.41 0.07 0.36 4661
0.00 0.00 1.51 -1.81 10.29 -0.44 0.11 0.36 4668
0.01 -0.00 0.25 -2.03 10.30 -0.46 0.15 0.36 4675
0.00 0.00 1.22 -0.84 8.08 -0.51 0.14 0.38 4682
0.00 -0.00 1.00 -1.07 10.22 -0.58 0.18 0.40 4689
0.00 0.00 0.80 -0.85 9.59 -0.60 0.20 0.42 4697
0.00 0.00 0.88 -0.43 10.17 -0.65 0.21 0.44 4704
0.00 -0.00 0.56 -1.32 9.19 -0.66 0.20 0.43 4711
0.01 -0.00 0.62 -1.54 9.90 -0.68 0.22 0.41 4718
0.00 0.00 0.55 -1.77 9.80 -0.68 0.22 0.36 4725
0.00 0.00 0.50 -1.90 9.84 -0.67 0.22 0.30 4732
0.00 0.00 0.45 -2.06 9.86 -0.65 0.22 0.24 4740
0.00 0.00 0.50 -2.07 9.87 -0.64 0.21 0.16 4747
0.00 0.00 0.59 -2.06 9.95 -0.63 0.20 0.09 4754
0.01 -0.00 0.66 -1.89 9.98 -0.64 0.20 0.02 4761
0.00 0.00 0.74 -1.81 10.02 -0.65 0.22 -0.04 4768
0.00 0.00 0.76 -1.70 10.13 -0.67 0.23 -0.07 4775
0.00 0.00 0.68 -1.63 10.09 -0.69 0.26 -0.09 4783
0.00 0.00 0.70 -1.64 10.01 -0.70 0.25 -0.09 4790
0.01 -0.00 0.64 -1.67 9.84 -0.71 0.25 -0.08 4797
0.00 0.00 0.66 -1.74 9.80 -0.70 0.23 -0.05 4804
0.00 0.00 0.74 -1.83 9.75 -0.69 0.22 -0.02 4811
0.00 0.00 0.86 -1.87 9.70 -0.68 0.21 0.01 4818
0.00 0.00 0.98 -1.87 9.68 -0.66 0.20 0.05 4826
0.00 -0.00 1.06 -1.86 9.73 -0.64 0.22 0.08 4833
0.01 -0.00 1.12 -1.85 9.80 -0.63 0.25 0.12 4840
0.00 0.00 1.13 -1.87 9.82 -0.64 0.27 0.15 4847
0.00 0.00 1.11 -1.96 9.89 -0.64 0.29 0.18 4854
0.00 0.00 0.97 -2.05 9.92 -0.65 0.31 0.21 4861
0.00 0.00 0.78 -2.05 9.87 -0.65 0.33 0.24 4869
0.00 0.00 0.60 -2.11 9.80 -0.65 0.33 0.27 4876
0.00 -0.00 0.47 -2.11 9.75 -0.64 0.31 0.29 4883
0.00 0.00 0.43 -2.23 9.68 -0.62 0.29 0.30 4890
0.00 0.00 0.52 -2.29 9.67 -0.61 0.27 0.30 4897
0.00 0.00 0.62 -2.40 9.72 -0.59 0.25 0.30 4904
0.00 0.00 0.77 -2.54 9.78 -0.58 0.26 0.28 4912
0.00 0.00 0.81 -2.73 9.69 -0.56 0.28 0.27 4919
0.00 -0.00 0.71 -2.90 9.69 -0.53 0.29 0.25 4926
0.00 0.00 0.58 -2.90 9.84 -0.52 0.31 0.23 4933
0.00 0.00 0.50 -2.89 10.02 -0.50 0.32 0.21 4940
0.00 0.00 0.32 -2.75 10.03 -0.51 0.33 0.19 4947
0.00 0.00 0.27 -2.59 9.84 -0.52 0.33 0.18 4955
0.00 0.00 0.22 -2.36 9.78 -0.53 0.31 0.16 4962
0.00 0.00 0.16 -2.17 9.68 -0.53 0.30 0.15 4969
0.00 0.00 0.06 -2.08 9.63 -0.54 0.29 0.14 4976
0.00 0.00 -0.01 -2.11 9.59 -0.54 0.29 0.13 4983
0.00 0.00 -0.33 -3.44 10.29 -0.52 0.24 0.12 4990
0.00 0.00 -2.50 -5.42 11.72 -0.35 -0.13 0.07 4998
0.00 0.00 -2.19 -3.49 7.98 -0.19 -0.31 -0.01 5005
0.00 0.00 -0.91 -3.22 7.25 -0.12 -0.37 -0.04 5012
0.00 0.00 -1.44 -4.75 8.51 -0.12 -0.47 -0.09 5019
0.00 0.00 -0.46 -5.29 9.70 -0.05 -0.56 -0.19 5026
0.00 0.00 -1.21 -5.12 8.24 0.06 -0.58 -0.25 5033
0.00 0.00 -0.61 -6.88 9.47 0.12 -0.60 -0.31 5041
0.00 0.00 -1.78 -7.61 7.83 0.21 -0.63 -0.38 5048
0.00 0.00 -1.87 -11.35 9.62 0.37 -0.81 -0.46 5055
0.00 0.00 -2.16 -13.37 10.18 0.45 -1.09 -0.57 5062
0.00 0.00 -0.61 -19.20 11.39 0.29 -1.07 -0.58 5069
-0.00 0.02 -0.60 -17.02 10.99 0.03 -0.40 -0.36 5076
0.02 0.03 0.04 -5.09 9.23 -0.08 -0.03 -0.02 5084
0.02 0.02 0.15 -2.79 9.50 -0.16 -0.02 0.03 5091
0.01 0.04 0.02 -0.89 9.71 -0.19 -0.00 0.08 5098
-0.00 0.04 0.27 -0.21 9.83 -0.17 0.01 0.05 5105
-0.01 0.06 0.52 -0.36 9.72 -0.19 0.02 -0.00 5112
-0.00 0.11 0.71 -0.72 9.85 -0.19 0.01 -0.04 5120
0.01 0.13 0.50 -0.94 9.85 -0.16 -0.01 -0.04 5127
0.02 0.18 0.32 -0.89 10.00 -0.10 0.01 -0.05 5134
0.00 0.18 0.23 -0.86 10.01 -0.12 0.02 -0.06 5141
-0.00 0.20 0.25 -0.81 9.98 -0.09 0.03 -0.06 5148
0.01 0.15 0.21 -0.89 9.81 -0.08 0.05 -0.06 5155
0.01 0.22 0.28 -0.87 9.82 -0.07 0.06 -0.05 5163
0.02 0.23 0.27 -0.85 9.87 -0.07 0.07 -0.04 5170
0.03 0.25 0.25 -0.80 9.80 -0.06 0.07 -0.05 5177
0.03 0.26 0.24 -0.80 9.81 -0.06 0.07 -0.04 5184
0.03 0.32 0.38 -0.90 9.75 -0.07 0.08 -0.04 5191
0.03 0.37 0.43 -0.86 9.85 -0.06 0.07 -0.04 5198
0.04 0.41 0.29 -0.80 9.79 -0.06 0.07 -0.04 5206
0.04 0.45 0.38 -0.86 9.78 -0.06 0.07 -0.04 5213
0.03 0.44 0.32 -0.80 9.81 -0.06 0.07 -0.04 5220
0.04 0.43 0.28 -0.79 9.81 -0.06 0.07 -0.04 5227
0.04 0.46 0.35 -0.87 9.81 -0.05 0.07 -0.05 5234
0.03 0.49 0.42 -0.81 9.84 -0.05 0.07 -0.05 5241
0.03 0.57 0.47 -0.81 9.81 -0.04 0.07 -0.05 5249
0.04 0.54 0.38 -0.82 9.86 -0.04 0.06 -0.05 5256
0.04 0.56 0.33 -0.82 9.74 -0.04 0.06 -0.05 5263
0.03 0.62 0.39 -0.81 9.81 -0.03 0.06 -0.06 5270
0.02 0.59 0.37 -0.78 9.84 -0.03 0.06 -0.06 5277
0.02 0.61 0.37 -0.83 9.78 -0.03 0.06 -0.05 5284
0.02 0.61 0.39 -0.81 9.81 -0.02 0.06 -0.05 5292
0.04 0.61 0.42 -0.83 9.85 -0.02 0.06 -0.06 5299
0.04 0.61 0.36 -0.81 9.87 -0.02 0.06 -0.06 5306
0.03 0.62 0.36 -0.79 9.82 -0.01 0.06 -0.06 5313
0.02 0.61 0.38 -0.79 9.81 -0.01 0.06 -0.06 5320
0.02 0.64 0.36 -0.81 9.82 -0.01 0.06 -0.06 5327
0.03 0.62 0.38 -0.79 9.81 -0.00 0.06 -0.06 5335
0.04 0.60 0.40 -0.82 9.73 -0.01 0.06 -0.07 5342
0.04 0.59 0.36 -0.79 9.81 -0.01 0.06 -0.06 5349
0.03 0.57 0.34 -0.79 9.79 -0.00 0.06 -0.07 5356
0.01 0.58 0.39 -0.79 9.83 -0.00 0.06 -0.07 5363
0.02 0.58 0.38 -0.75 9.82 0.00 0.06 -0.07 5370
0.03 0.58 0.39 -0.76 9.80 0.00 0.06 -0.06 5378
0.04 0.55 0.40 -0.79 10.42 0.00 0.06 -0.07 5385
0.04 0.53 0.39 -0.78 9.80 0.00 0.06 -0.07 5392
0.04 0.51 0.38 -0.79 9.81 0.00 0.07 -0.07 5399
0.04 0.51 0.40 -0.83 9.81 0.01 0.06 -0.07 5406
0.06 0.50 0.41 -0.80 9.82 0.01 0.06 -0.07 5413
0.06 0.50 0.45 -0.80 9.79 0.00 0.06 -0.07 5421
0.05 0.47 0.41 -0.81 9.81 0.01 0.06 -0.07 5428
0.05 0.46 0.39 -0.78 9.81 0.01 0.06 -0.07 5435
0.05 0.41 0.39 -0.82 9.81 0.01 0.06 -0.08 5442
0.05 0.43 0.42 -0.83 9.76 0.00 0.06 -0.07 5449
0.05 0.43 0.40 -0.82 9.80 0.00 0.06 -0.07 5456
0.06 0.41 0.42 -0.79 9.78 0.00 0.05 -0.07 5464
0.06 0.39 0.41 -0.80 9.82 0.00 0.05 -0.07 5471
0.06 0.37 0.40 -0.81 9.80 0.00 0.05 -0.07 5478
0.06 0.34 0.40 -0.81 9.78 0.00 0.05 -0.07 5485
0.05 0.34 0.43 -0.83 9.83 0.01 0.05 -0.07 5492
0.05 0.35 0.46 -0.83 9.82 0.00 0.05 -0.07 5499
0.07 0.34 0.46 -0.87 9.84 0.00 0.05 -0.07 5507
0.05 0.34 0.43 -0.82 9.83 0.00 0.05 -0.07 5514
0.06 0.33 0.44 -0.82 9.78 0.00 0.05 -0.07 5521
0.06 0.35 0.44 -0.82 9.82 0.00 0.05 -0.07 5528
0.06 0.32 0.40 -0.86 9.79 0.00 0.05 -0.07 5535
0.06 0.31 0.45 -0.84 9.82 0.00 0.05 -0.07 5542
0.07 0.34 0.41 -0.85 9.81 0.00 0.05 -0.07 5550
0.07 0.33 0.40 -0.84 9.78 -0.00 0.05 -0.07 5557
0.09 0.30 0.41 -0.81 9.80 0.00 0.05 -0.07 5564
0.07 0.30 0.43 -0.84 9.81 0.01 0.05 -0.07 5571
0.07 0.28 0.41 -0.82 9.81 0.00 0.04 -0.07 5578
0.08 0.28 0.44 -0.86 9.79 0.01 0.04 -0.07 5585
0.09 0.29 0.40 -0.84 9.80 0.00 0.05 -0.07 5593
0.09 0.28 0.44 -0.83 9.80 -0.00 0.05 -0.07 5600
0.08 0.28 0.41 -0.83 9.82 0.00 0.05 -0.07 5607
0.08 0.27 0.40 -0.83 9.81 0.00 0.05 -0.07 5614
0.08 0.27 0.44 -0.84 9.80 0.00 0.05 -0.08 5621
0.10 0.26 0.42 -0.84 9.79 0.00 0.04 -0.07 5628
0.11 0.22 0.45 -0.82 9.79 0.00 0.04 -0.07 5636
0.10 0.20 0.44 -0.84 9.79 0.00 0.04 -0.07 5643
0.09 0.19 0.42 -0.85 9.78 0.00 0.04 -0.07 5650
0.09 0.22 0.44 -0.83 9.80 0.00 0.04 -0.08 5657
0.10 0.21 0.39 -0.87 9.80 0.00 0.04 -0.07 5664
0.11 0.23 0.45 -0.86 9.76 0.00 0.05 -0.07 5671
0.10 0.22 0.44 -0.85 9.77 0.00 0.05 -0.08 5679
0.10 0.19 0.43 -0.88 9.79 0.00 0.05 -0.08 5686
0.09 0.19 0.43 -0.85 9.79 0.00 0.04 -0.08 5693
0.09 0.19 0.41 -0.85 9.81 0.00 0.05 -0.08 5700
0.10 0.19 0.44 -0.82 9.80 0.01 0.05 -0.08 5707
0.11 0.19 0.42 -0.83 9.78 0.01 0.05 -0.08 5714
0.11 0.19 0.47 -0.83 9.76 0.01 0.06 -0.08 5722
0.13 0.15 0.42 -0.85 9.75 0.02 0.06 -0.08 5729
0.12 0.16 0.44 -0.84 9.79 0.02 0.06 -0.08 5736
0.14 0.14 0.45 -0.86 9.83 0.02 0.07 -0.08 5743
0.15 0.11 0.44 -0.87 9.80 0.03 0.07 -0.08 5750
0.16 0.07 0.45 -0.87 9.82 0.03 0.07 -0.08 5757
0.15 0.04 0.41 -0.88 9.83 0.04 0.08 -0.08 5765
0.14 0.03 0.43 -0.87 9.79 0.04 0.07 -0.08 5772
0.12 0.04 0.45 -0.88 9.81 0.04 0.07 -0.08 5779
0.13 0.02 0.48 -0.88 9.79 0.04 0.08 -0.08 5786
0.16 0.00 0.45 -0.88 9.81 0.05 0.08 -0.08 5793
0.18 -0.01 0.48 -0.94 9.79 0.05 0.07 -0.08 5800
0.20 0.01 0.50 -0.90 10.41 0.05 0.08 -0.08 5808
0.19 -0.02 0.45 -0.91 9.82 0.06 0.08 -0.08 5815
0.21 -0.01 0.48 -0.95 9.82 0.07 0.09 -0.08 5822
0.23 -0.01 0.50 -0.92 9.81 0.08 0.10 -0.08 5829
0.28 -0.01 0.48 -0.95 9.84 0.09 0.11 -0.08 5836
0.29 -0.00 0.43 -0.89 9.88 0.11 0.12 -0.08 5843
0.29 -0.01 0.48 -0.96 9.89 0.13 0.14 -0.08 5851
0.29 -0.02 0.55 -0.91 9.90 0.15 0.20 -0.08 5858
0.33 -0.02 0.51 -0.97 9.96 0.19 0.20 -0.08 5865
0.35 -0.02 0.54 -0.99 10.07 0.25 0.26 -0.08 5872
0.36 -0.01 0.58 -1.03 10.20 0.32 0.31 -0.08 5879
0.37 -0.02 0.66 -1.00 10.20 0.42 0.37 -0.08 5886
0.36 -0.03 0.79 -1.05 10.37 0.54 0.41 -0.09 5894
0.37 -0.02 0.76 -1.13 10.49 0.68 0.41 -0.11 5902
0.37 -0.02 0.66 -1.10 10.67 0.81 0.37 -0.12 5909
0.37 -0.00 0.60 -1.32 10.82 0.92 0.32 -0.12 5916
0.37 -0.02 0.63 -1.30 10.80 1.01 0.27 -0.12 5923
0.35 -0.02 0.79 -1.53 11.07 1.05 0.19 -0.12 5931
0.35 -0.03 0.85 -1.52 10.86 1.10 0.12 -0.13 5938
0.33 -0.02 0.81 -1.58 10.86 1.15 0.06 -0.14 5945
0.34 -0.02 0.79 -1.67 10.69 1.19 0.01 -0.14 5952
0.32 -0.01 0.63 -1.70 10.43 1.22 -0.04 -0.14 5959
0.34 -0.02 0.59 -1.87 10.34 1.24 -0.06 -0.13 5966
0.31 -0.03 0.61 -1.87 10.13 1.25 -0.07 -0.12 5974
0.28 -0.03 0.61 -1.96 10.01 1.27 -0.08 -0.12 5980
0.24 -0.02 0.59 -2.14 9.82 1.28 -0.10 -0.11 5987
0.24 -0.01 0.89 -2.36 9.83 1.26 -0.16 -0.10 5994
0.24 -0.01 0.62 -2.32 9.72 1.25 -0.11 -0.09 6001
0.25 -0.03 0.53 -2.48 9.78 1.25 -0.14 -0.09 6008
0.21 -0.02 0.61 -2.61 9.69 1.25 -0.11 -0.08 6016
0.18 -0.02 0.61 -2.67 9.57 1.23 -0.13 -0.08 6023
0.16 -0.02 0.57 -2.76 9.59 1.23 -0.10 -0.07 6030
0.14 -0.01 0.59 -2.90 9.41 1.22 -0.08 -0.07 6037
0.13 -0.01 0.68 -2.93 9.12 1.20 -0.07 -0.07 6044
0.10 -0.01 0.57 -3.03 9.21 1.17 -0.07 -0.07 6051
0.12 -0.01 0.70 -3.21 9.28 1.16 -0.06 -0.07 6059
0.06 -0.01 0.61 -3.24 9.07 1.14 -0.05 -0.08 6066
0.06 -0.01 0.60 -3.38 9.19 1.11 -0.06 -0.08 6073
0.09 -0.00 0.53 -3.45 9.08 1.09 -0.07 -0.08 6080
0.10 -0.01 0.59 -3.53 9.28 1.07 -0.08 -0.08 6087
0.10 -0.01 0.57 -3.62 9.28 1.06 -0.07 -0.08 6094
0.07 -0.01 0.48 -3.76 9.39 1.04 -0.08 -0.08 6102
0.08 -0.01 0.45 -3.91 9.40 1.03 -0.07 -0.08 6109
0.07 -0.01 0.51 -3.98 9.46 1.02 -0.06 -0.08 6116
0.11 -0.00 0.63 -4.09 9.58 1.01 -0.05 -0.08 6123
0.10 -0.01 0.60 -4.15 9.56 0.99 -0.03 -0.08 6130
0.07 -0.01 0.58 -4.89 9.78 0.98 -0.03 -0.09 6137
0.06 -0.01 0.67 -4.40 9.86 0.97 -0.02 -0.09 6145
0.06 -0.01 0.70 -4.58 10.06 0.94 -0.02 -0.11 6152
0.06 -0.01 0.71 -4.61 10.14 0.90 -0.02 -0.11 6159
0.07 -0.00 0.48 -4.60 10.07 0.85 -0.04 -0.12 6166
0.06 -0.01 0.34 -4.36 10.13 0.80 -0.10 -0.13 6173
0.04 -0.00 0.19 -3.95 10.16 0.74 -0.19 -0.12 6180
0.06 -0.01 -0.20 -3.69 10.13 0.68 -0.34 -0.12 6188
0.05 -0.01 -0.15 -3.47 10.14 0.61 -0.48 -0.11 6195
0.06 -0.01 -0.05 -3.46 9.88 0.57 -0.64 -0.10 6202
0.05 -0.01 0.11 -3.42 9.59 0.54 -0.76 -0.09 6209
0.06 -0.01 0.55 -2.92 9.34 0.50 -0.84 -0.08 6216
0.06 -0.01 0.79 -3.97 7.98 0.45 -0.86 -0.08 6223
0.02 -0.00 0.68 -3.74 7.89 0.38 -0.84 -0.08 6231
0.02 -0.00 0.97 -4.85 7.81 0.33 -0.80 -0.08 6238
0.02 -0.00 1.23 -2.75 8.40 0.30 -0.73 -0.11 6245
0.02 -0.00 1.77 -2.03 8.37 0.22 -0.63 -0.12 6252
0.02 -0.00 1.70 -0.80 8.56 0.09 -0.42 -0.14 6259
0.02 -0.00 1.90 0.85 8.98 -0.02 -0.28 -0.17 6266
0.03 -0.00 2.20 1.53 8.48 -0.10 -0.09 -0.21 6274
0.00 0.00 1.35 1.88 8.33 -0.15 0.04 -0.24 6281
0.00 0.00 1.17 1.06 8.29 -0.17 0.12 -0.27 6288
0.02 -0.00 0.24 0.70 8.59 -0.15 0.13 -0.29 6295
0.00 0.00 1.25 1.53 9.16 -0.14 0.16 -0.29 6302
0.00 0.00 0.42 -0.58 8.40 -0.18 0.21 -0.30 6309
0.00 0.00 1.03 -0.49 9.77 -0.23 0.30 -0.31 6317
0.00 0.00 0.45 -1.37 9.02 -0.28 0.33 -0.28 6324
0.00 0.00 -0.69 -1.29 8.74 -0.33 0.37 -0.28 6331
0.00 -0.00 -0.26 -0.70 9.15 -0.34 0.36 -0.30 6338
0.00 0.00 -0.33 -2.24 8.45 -0.39 0.34 -0.27 6345
0.00 0.00 -0.85 -2.83 9.40 -0.41 0.33 -0.27 6352
0.00 0.00 -0.62 -2.75 9.07 -0.43 0.22 -0.28 6360
0.00 0.00 -2.11 -4.36 9.84 -0.44 0.15 -0.25 6367
0.00 0.00 -0.15 -1.79 9.21 -0.44 0.14 -0.26 6374
0.00 0.00 0.21 -5.41 7.79 -0.43 0.10 -0.24 6381
0.00 0.00 -0.57 -2.45 9.03 -0.37 0.12 -0.24 6388
0.00 0.00 -0.12 -3.96 7.46 -0.40 0.12 -0.24 6395
0.00 0.00 -0.61 -4.85 8.75 -0.38 0.09 -0.28 6403
0.00 0.00 -0.74 -6.14 7.63 -0.42 0.10 -0.27 6410
0.00 0.00 -0.61 -4.56 11.04 -0.37 0.17 -0.26 6417
0.00 0.00 1.20 -5.35 7.28 -0.36 0.12 -0.25 6424
0.00 0.00 1.12 -3.88 8.97 -0.39 0.12 -0.23 6431
0.00 0.00 -0.16 -3.51 10.37 -0.42 0.09 -0.23 6438
0.00 0.00 0.17 -3.91 10.16 -0.47 0.07 -0.17 6446
0.00 0.00 2.14 -1.38 9.43 -0.51 0.08 -0.18 6453
0.00 0.00 -0.08 -2.01 8.57 -0.54 0.06 -0.17 6460
0.00 0.00 -1.07 -1.34 9.02 -0.56 0.11 -0.16 6467
0.00 0.00 2.25 -1.76 7.15 -0.57 0.12 -0.17 6474
0.00 0.00 0.98 -2.62 9.65 -0.61 0.19 -0.17 6481
0.00 0.00 0.70 -2.84 8.40 -0.67 0.24 -0.18 6489
0.00 0.00 1.01 -2.86 9.35 -0.75 0.26 -0.18 6496
0.00 -0.00 0.83 -0.77 9.93 -0.84 0.23 -0.17 6503
0.00 0.00 -0.24 -1.83 8.99 -0.88 0.17 -0.15 6510
0.00 0.00 0.35 -2.18 9.58 -0.87 0.12 -0.11 6517
0.00 0.00 0.48 -1.91 9.27 -0.90 0.09 -0.09 6524
0.00 0.00 1.12 -1.76 9.20 -0.86 0.07 -0.07 6532
0.00 0.00 1.32 -2.10 9.21 -0.82 0.08 -0.03 6539
0.00 0.00 1.44 -1.71 9.25 -0.80 0.14 0.01 6546
0.00 0.00 1.32 -1.47 9.29 -0.76 0.18 0.07 6553
0.00 0.00 1.24 -1.22 9.38 -0.73 0.21 0.16 6560
0.00 0.00 1.11 -1.04 9.53 -0.71 0.18 0.20 6567
0.00 0.00 0.96 -1.20 9.81 -0.69 0.15 0.26 6575
0.00 0.00 1.15 -1.26 9.96 -0.68 0.11 0.31 6582
0.00 0.00 1.15 -1.53 10.04 -0.69 0.11 0.34 6589
0.00 0.00 1.26 -1.61 10.12 -0.71 0.13 0.36 6596
0.00 0.00 1.37 -1.68 10.23 -0.74 0.18 0.36 6603
0.00 0.00 1.37 -1.76 10.30 -0.77 0.25 0.35 6610
0.00 0.00 1.23 -1.73 10.31 -0.81 0.31 0.34 6618
0.00 0.00 1.14 -1.82 10.28 -0.85 0.36 0.33 6625
0.00 0.00 0.92 -1.77 10.04 -0.88 0.37 0.33 6632
0.00 -0.00 0.67 -1.85 9.98 -0.89 0.35 0.33 6639
0.00 0.00 0.58 -1.91 9.92 -0.89 0.29 0.34 6646
0.00 0.00 0.58 -1.89 9.79 -0.87 0.24 0.35 6653
0.00 0.00 0.69 -1.73 9.71 -0.84 0.20 0.35 6661
0.01 -0.00 0.96 -1.65 9.60 -0.81 0.16 0.36 6668
0.00 -0.00 1.03 -1.58 9.61 -0.78 0.15 0.36 6675
0.00 0.00 1.03 -1.48 9.57 -0.75 0.17 0.38 6682
0.00 0.00 1.05 -1.43 9.75 -0.73 0.19 0.40 6689
0.00 0.00 1.16 -1.55 9.89 -0.71 0.21 0.41 6696
0.00 0.00 1.14 -1.62 10.22 -0.72 0.22 0.42 6704
0.01 -0.00 1.22 -1.71 10.59 -0.75 0.24 0.43 6711
0.01 -0.00 1.24 -1.89 10.66 -0.81 0.27 0.43 6718
0.00 0.00 1.13 -2.08 10.52 -0.88 0.28 0.43 6725
0.00 0.00 1.06 -2.22 10.31 -0.92 0.28 0.42 6732
0.00 0.00 1.09 -2.34 9.92 -0.92 0.27 0.41 6739
0.01 0.00 1.14 -2.40 9.75 -0.91 0.27 0.37 6747
0.00 -0.00 1.18 -2.29 9.71 -0.87 0.28 0.39 6754
0.00 0.00 1.27 -2.25 9.77 -0.84 0.30 0.36 6761
0.00 -0.00 1.35 -2.36 9.82 -0.81 0.31 0.34 6768
0.00 0.00 1.43 -2.52 9.89 -0.80 0.33 0.32 6775
0.00 0.00 1.48 -2.62 9.93 -0.78 0.35 0.29 6782
0.00 -0.00 1.48 -2.70 9.87 -0.76 0.36 0.26 6790
0.01 -0.00 1.53 -2.79 9.81 -0.73 0.38 0.23 6797
0.00 0.00 1.53 -2.86 9.95 -0.71 0.40 0.20 6804
0.00 -0.00 1.10 -2.91 10.89 -0.69 0.39 0.18 6811
0.00 0.00 0.63 -3.32 11.34 -0.69 0.33 0.11 6818
0.00 0.00 -0.05 -3.21 10.77 -0.69 0.22 0.09 6825
0.00 0.00 -1.93 -7.62 12.77 -0.60 -0.14 0.00 6833
0.00 -0.00 -0.75 -3.65 8.83 -0.39 -0.27 -0.06 6840
0.01 -0.00 0.57 -4.72 7.48 -0.32 -0.16 -0.07 6847
0.00 -0.00 -0.83 -5.82 9.98 -0.30 -0.26 -0.15 6854
0.00 0.00 -1.35 -7.28 9.75 -0.28 -0.30 -0.24 6861
0.00 0.00 -0.23 -5.46 10.08 -0.22 -0.31 -0.30 6868
0.01 -0.00 -0.87 -6.99 9.10 -0.17 -0.24 -0.30 6876
0.00 -0.00 -1.46 -8.53 9.22 -0.08 -0.20 -0.32 6883
0.00 0.00 0.06 -6.47 7.77 0.04 -0.19 -0.29 6890
0.00 0.00 -0.43 -7.36 9.07 0.08 -0.22 -0.27 6897
0.00 0.00 -0.63 -8.69 9.52 0.14 -0.26 -0.20 6904
-0.00 0.00 -0.38 -5.99 8.12 0.21 -0.28 -0.13 6912
0.00 0.00 -0.24 -8.32 7.98 0.15 -0.21 -0.04 6919
0.00 0.00 -0.55 -6.67 8.25 0.19 -0.22 0.07 6926
-0.00 0.00 -1.62 -8.26 11.16 0.18 -0.20 0.17 6933
0.00 0.00 -4.43 -10.66 9.90 0.04 -0.26 0.26 6940
0.00 0.00 -3.55 -9.99 8.01 0.09 -0.27 0.33 6947
0.00 0.02 -5.91 -12.15 9.92 0.10 -0.34 0.39 6955
0.01 -0.00 -7.42 -11.53 9.14 0.09 -0.34 0.36 6962
0.00 0.00 -5.33 -7.33 10.31 0.06 -0.18 0.19 6969
0.00 0.00 -0.84 -1.45 9.78 -0.03 0.02 -0.08 6976
-0.00 0.00 -0.37 -1.06 9.69 -0.07 0.14 -0.13 6983
-0.00 0.01 0.65 -0.44 9.78 -0.08 0.17 -0.11 6990
0.01 0.03 0.85 -0.48 9.49 -0.08 0.14 -0.05 6998
0.00 0.01 0.50 -0.72 9.72 -0.08 0.11 -0.02 7005
-0.00 0.01 0.40 -0.81 9.67 -0.10 0.09 -0.01 7012
0.00 0.00 0.29 -0.84 9.64 -0.11 0.08 -0.03 7019
0.02 0.01 0.33 -0.82 9.88 -0.10 0.07 -0.04 7026
0.00 0.03 0.56 -0.86 9.80 -0.09 0.04 -0.05 7033
0.02 0.05 0.61 -0.92 9.96 -0.08 0.00 -0.06 7041
0.03 0.04 0.56 -1.01 9.84 -0.07 -0.01 -0.06 7048
0.02 0.05 0.43 -1.00 9.99 -0.06 -0.02 -0.07 7055
0.04 0.06 0.37 -0.96 9.93 -0.04 -0.01 -0.08 7062
0.02 0.07 0.41 -0.93 9.86 -0.03 -0.01 -0.08 7069
0.06 0.07 0.43 -0.91 9.81 -0.02 -0.00 -0.08 7076
0.07 0.07 0.35 -0.89 10.04 -0.02 0.01 -0.08 7084
0.07 0.05 0.30 -0.91 9.87 -0.03 0.02 -0.08 7091
0.06 0.06 0.20 -0.89 9.80 -0.03 0.04 -0.08 7098
0.05 0.05 0.27 -0.89 9.75 -0.04 0.05 -0.07 7105
0.05 0.06 0.34 -0.86 9.68 -0.05 0.06 -0.06 7112
0.08 0.09 0.25 -0.86 9.73 -0.06 0.06 -0.06 7119
0.10 0.08 0.37 -0.88 9.73 -0.06 0.07 -0.05 7127
0.11 0.07 0.46 -0.87 9.84 -0.06 0.07 -0.05 7134
0.11 0.09 0.40 -0.86 9.90 -0.06 0.07 -0.04 7141
0.09 0.10 0.42 -0.89 9.70 -0.06 0.06 -0.05 7148
0.09 0.08 0.43 -0.84 9.81 -0.06 0.05 -0.05 7155
0.10 0.13 0.52 -0.85 9.87 -0.06 0.05 -0.05 7162
0.12 0.13 0.44 -0.87 9.82 -0.05 0.05 -0.05 7170
0.11 0.12 0.40 -0.86 9.82 -0.05 0.04 -0.05 7177
0.11 0.15 0.48 -0.85 10.03 -0.05 0.04 -0.05 7184
0.10 0.15 0.41 -0.82 9.85 -0.05 0.04 -0.05 7191
0.10 0.18 0.43 -0.83 9.87 -0.05 0.04 -0.06 7198
0.10 0.24 0.37 -0.85 10.00 -0.04 0.04 -0.05 7205
0.11 0.20 0.42 -0.82 9.83 -0.04 0.03 -0.05 7213
0.11 0.17 0.39 -0.83 9.90 -0.03 0.04 -0.05 7220
0.11 0.16 0.38 -0.83 9.84 -0.02 0.04 -0.05 7227
0.10 0.20 0.38 -0.79 9.72 -0.01 0.04 -0.06 7234
0.11 0.24 0.42 -0.80 9.84 -0.01 0.04 -0.07 7241
0.14 0.22 0.38 -0.81 9.84 0.00 0.04 -0.07 7248
0.14 0.22 0.37 -0.83 9.81 0.00 0.04 -0.07 7256
0.15 0.22 0.41 -0.80 9.81 0.01 0.04 -0.07 7263
0.15 0.19 0.40 -0.80 9.81 0.01 0.04 -0.08 7270
0.15 0.19 0.39 -0.80 9.79 0.01 0.04 -0.07 7277
0.17 0.18 0.38 -0.81 9.21 0.01 0.04 -0.07 7284
0.19 0.17 0.42 -0.81 9.81 0.01 0.04 -0.07 7291
0.19 0.15 0.37 -0.81 9.82 0.01 0.04 -0.07 7299
0.21 0.14 0.39 -0.80 9.81 0.01 0.04 -0.07 7306
0.21 0.12 0.34 -0.81 9.82 0.01 0.04 -0.08 7313
0.23 0.11 0.34 -0.81 9.80 0.01 0.04 -0.07 7320
0.25 0.10 0.36 -0.81 9.78 0.01 0.04 -0.07 7327
0.25 0.12 0.38 -0.84 9.81 0.00 0.03 -0.08 7334
0.26 0.09 0.40 -0.83 9.77 0.00 0.03 -0.08 7342
0.25 0.10 0.37 -0.82 9.78 -0.00 0.03 -0.07 7349
0.24 0.10 0.39 -0.84 9.78 0.00 0.03 -0.07 7356
0.26 0.10 0.39 -0.82 9.81 -0.00 0.03 -0.08 7363
0.26 0.10 0.38 -0.81 9.81 0.00 0.03 -0.08 7370
0.28 0.10 0.39 -0.84 9.81 -0.00 0.02 -0.08 7377
0.26 0.11 0.32 -0.83 9.81 -0.03 0.03 -0.07 7385
0.26 0.09 0.40 -0.83 9.77 -0.00 0.03 -0.07 7392
0.26 0.08 0.38 -0.83 9.81 -0.00 0.03 -0.08 7399
0.28 0.07 0.37 -0.83 9.85 -0.00 0.03 -0.08 7406
0.29 0.07 0.33 -0.82 10.41 -0.01 0.03 -0.08 7413
0.30 0.06 0.35 -0.84 9.82 -0.00 0.03 -0.08 7420
0.28 0.06 0.38 -0.83 9.79 0.00 0.03 -0.08 7428
0.29 0.06 0.35 -0.85 9.80 -0.00 0.03 -0.08 7435
0.28 0.08 0.31 -0.84 9.80 -0.00 0.03 -0.08 7442
0.31 0.08 0.34 -0.80 9.80 -0.00 0.04 -0.08 7449
0.32 0.08 0.35 -0.85 9.81 -0.00 0.04 -0.08 7456
0.32 0.04 0.38 -0.85 9.83 0.00 0.04 -0.08 7463
0.33 0.03 0.36 -0.85 9.82 0.00 0.04 -0.08 7471
0.33 0.02 0.38 -0.84 9.82 0.01 0.04 -0.08 7478
0.31 0.05 0.39 -0.86 9.82 0.00 0.04 -0.08 7485
0.32 0.04 0.38 -0.84 9.81 0.01 0.05 -0.08 7492
0.33 -0.00 0.33 -0.85 9.81 0.01 0.05 -0.08 7499
0.33 -0.00 0.34 -0.82 9.81 0.02 0.05 -0.08 7506
0.33 -0.00 0.37 -0.85 9.80 0.02 0.05 -0.08 7514
0.34 -0.01 0.34 -0.85 9.80 0.02 0.05 -0.08 7521
0.34 -0.01 0.40 -0.84 9.82 0.02 0.05 -0.09 7528
0.35 -0.00 0.37 -0.86 9.81 0.03 0.05 -0.08 7535
0.36 -0.01 0.35 -0.86 9.81 0.03 0.05 -0.08 7542
0.36 -0.02 0.33 -0.89 9.82 0.03 0.06 -0.09 7549
0.37 -0.02 0.38 -0.87 9.79 0.04 0.06 -0.08 7557
0.36 -0.02 0.38 -0.88 9.82 0.04 0.06 -0.08 7564
0.38 -0.01 0.38 -0.86 9.83 0.04 0.07 -0.09 7571
0.38 -0.00 0.38 -0.89 9.81 0.05 0.07 -0.09 7578
0.38 -0.00 0.39 -0.89 9.82 0.06 0.08 -0.09 7585
0.37 -0.01 0.36 -0.93 9.87 0.06 0.08 -0.09 7592
0.37 -0.02 0.38 -0.92 9.82 0.07 0.09 -0.08 7600
0.36 -0.01 0.37 -0.93 9.84 0.07 0.11 -0.09 7607
0.36 0.00 0.39 -0.89 9.87 0.08 0.11 -0.09 7614
0.36 -0.00 0.34 -0.87 9.91 0.09 0.11 -0.08 7621
0.36 -0.01 0.41 -0.90 10.08 0.11 0.12 -0.08 7628
0.35 -0.01 0.49 -0.91 10.11 0.16 0.14 -0.08 7636
0.36 -0.03 0.73 -0.98 10.23 0.26 0.17 -0.09 7644
0.34 -0.03 0.80 -0.93 10.56 0.35 0.20 -0.12 7650
0.34 -0.02 0.90 -1.07 10.89 0.54 0.24 -0.16 7657
0.35 -0.02 0.87 -1.09 11.61 0.77 0.24 -0.21 7665
0.34 -0.02 0.69 -1.14 11.76 1.05 0.17 -0.24 7672
0.34 -0.02 0.75 -1.25 11.63 1.22 0.07 -0.26 7680
0.32 -0.03 0.73 -1.26 11.52 1.28 0.01 -0.27 7686
0.31 -0.02 0.53 -1.39 11.33 1.34 -0.05 -0.26 7694
0.30 -0.02 0.47 -1.48 11.07 1.38 -0.09 -0.26 7701
0.29 -0.01 0.47 -1.52 10.80 1.41 -0.10 -0.25 7708
0.28 -0.02 0.32 -1.65 10.48 1.44 -0.13 -0.23 7715
0.26 -0.02 0.20 -1.85 10.03 1.46 -0.17 -0.21 7723
0.20 -0.02 0.10 -1.82 10.27 1.47 -0.24 -0.19 7729
0.21 -0.01 0.22 -2.01 9.83 1.45 -0.22 -0.16 7736
0.17 -0.01 0.06 -2.04 10.15 1.43 -0.22 -0.15 7744
0.14 -0.01 0.11 -2.22 9.97 1.42 -0.15 -0.13 7750
0.12 -0.01 -0.61 -2.32 9.84 1.42 -0.12 -0.10 7757
0.07 -0.01 0.12 -2.53 9.54 1.39 -0.12 -0.08 7764
0.04 -0.00 0.22 -2.66 9.40 1.36 -0.07 -0.07 7772
0.05 -0.00 0.24 -2.71 9.52 1.31 -0.04 -0.06 7779
0.05 -0.00 0.01 -2.75 9.70 1.26 -0.03 -0.05 7786
0.07 -0.01 -0.11 -2.89 9.97 1.26 -0.02 -0.03 7793
0.05 -0.00 -0.07 -3.08 10.01 1.26 -0.00 -0.00 7800
0.06 -0.01 0.14 -3.21 9.83 1.25 0.02 0.01 7808
0.04 -0.00 0.27 -3.37 9.71 1.21 0.04 0.01 7815
0.04 -0.00 0.22 -3.42 9.14 1.16 0.05 0.01 7822
0.05 -0.01 0.42 -3.70 9.72 1.10 0.09 0.01 7829
0.05 -0.00 0.53 -3.76 10.16 1.05 0.13 -0.00 7836
0.02 -0.00 0.47 -3.67 10.25 1.00 0.13 -0.01 7843
0.01 -0.00 0.41 -3.54 10.04 0.95 0.09 -0.03 7851
0.00 0.00 0.36 -3.63 9.92 0.87 0.01 -0.04 7858
0.00 -0.00 0.37 -3.49 9.76 0.79 -0.10 -0.05 7865
0.01 -0.00 0.37 -3.39 9.60 0.71 -0.20 -0.06 7872
0.02 -0.00 0.51 -3.30 9.51 0.66 -0.32 -0.07 7879
0.01 -0.00 0.65 -2.83 9.19 0.62 -0.42 -0.07 7886
0.00 -0.00 1.01 -2.95 9.21 0.60 -0.52 -0.09 7894
0.00 0.00 1.33 -2.84 9.08 0.57 -0.57 -0.11 7901
0.00 0.00 1.45 -2.32 9.02 0.55 -0.58 -0.14 7908
0.00 0.00 1.84 -2.16 8.65 0.50 -0.55 -0.18 7915
0.00 0.00 2.34 -1.45 8.68 0.46 -0.49 -0.21 7922
0.00 0.00 2.18 -1.21 8.96 0.40 -0.37 -0.24 7929
0.00 0.00 2.26 -1.31 8.41 0.35 -0.24 -0.28 7937
0.00 0.00 2.45 0.05 9.29 0.30 -0.13 -0.36 7944
0.00 0.00 2.37 -1.02 8.94 0.24 0.01 -0.36 7951
0.00 -0.00 2.36 0.85 9.30 0.19 0.15 -0.38 7958
0.00 0.00 1.73 0.11 8.21 0.13 0.22 -0.38 7965
0.00 0.00 1.58 0.99 9.20 0.08 0.30 -0.38 7972
0.00 0.00 1.12 0.06 8.45 0.02 0.30 -0.36 7980
0.00 0.00 1.00 0.71 9.03 -0.01 0.31 -0.34 7987
0.00 0.00 1.21 0.98 9.13 -0.04 0.28 -0.29 7994
0.00 0.00 0.91 0.65 9.03 -0.08 0.26 -0.22 8001
0.00 0.00 1.22 0.95 9.02 -0.09 0.21 -0.17 8008
0.00 0.00 1.53 1.51 8.92 -0.16 0.14 -0.10 8015
0.00 0.00 1.31 1.37 8.86 -0.23 0.10 -0.07 8023
0.00 0.00 1.22 0.69 9.13 -0.31 0.05 -0.04 8030
0.00 0.00 1.25 1.05 9.13 -0.41 0.04 -0.01 8037
0.00 0.00 1.54 0.32 8.68 -0.48 0.04 0.00 8044
0.00 0.00 1.77 2.00 9.53 -0.55 0.07 0.04 8051
0.00 0.00 0.45 -1.34 8.34 -0.58 0.09 0.07 8058
0.00 0.00 1.57 -1.12 10.60 -0.70 0.12 0.09 8066
0.00 0.00 1.01 -0.92 10.30 -0.73 0.13 0.11 8073
0.00 -0.00 0.58 -0.49 10.38 -0.78 0.13 0.15 8080
0.00 0.00 0.74 -0.92 9.82 -0.83 0.16 0.19 8087
0.00 0.00 0.76 -1.42 8.68 -0.88 0.10 0.24 8094
0.01 -0.00 0.93 -0.89 12.18 -0.90 0.12 0.24 8101
0.00 0.00 1.23 0.30 9.74 -0.95 0.09 0.27 8109
0.00 0.00 1.87 -1.07 8.42 -0.94 0.14 0.28 8116
0.01 -0.00 1.91 -2.34 10.21 -0.97 0.19 0.27 8123
0.00 -0.00 2.05 -0.80 10.21 -0.99 0.23 0.26 8130
0.00 -0.00 1.19 -2.14 8.98 -0.93 0.29 0.25 8137
0.00 0.00 1.28 -1.48 10.52 -0.95 0.35 0.23 8144
0.00 -0.00 1.35 -1.50 9.36 -0.92 0.41 0.24 8152
0.00 0.00 0.73 -0.62 10.16 -0.90 0.47 0.27 8159
0.01 -0.00 0.18 -1.95 9.99 -0.88 0.49 0.30 8166
0.00 0.00 0.56 -1.49 10.17 -0.90 0.47 0.34 8173
0.00 0.00 0.48 -1.57 10.01 -0.92 0.42 0.37 8180
0.00 0.00 0.46 -2.65 11.92 -0.92 0.38 0.39 8187
0.00 0.00 -0.40 -1.94 8.99 -0.92 0.31 0.39 8195
0.00 -0.00 -0.51 -2.27 11.10 -0.91 0.30 0.38 8202
0.00 -0.00 0.18 -3.06 11.33 -0.93 0.30 0.36 8209
0.00 0.00 0.68 -1.06 7.61 -0.94 0.31 0.32 8216
0.00 0.00 0.67 -1.34 9.98 -0.94 0.32 0.30 8223
0.00 0.00 0.61 -1.92 9.89 -0.95 0.34 0.27 8230
0.00 0.00 0.37 -2.35 10.06 -0.97 0.33 0.25 8238
0.00 0.00 0.10 -2.33 10.92 -0.98 0.29 0.23 8245
0.00 0.00 0.28 -2.43 10.58 -0.98 0.24 0.21 8252
0.00 0.00 0.53 -2.46 9.87 -0.99 0.20 0.19 8259
0.00 0.00 0.67 -2.99 10.16 -0.98 0.17 0.16 8266
0.00 0.00 0.83 -3.04 10.07 -0.96 0.17 0.12 8273
0.00 0.00 0.91 -3.15 10.05 -0.93 0.20 0.07 8281
0.00 0.00 0.90 -3.19 10.02 -0.88 0.23 0.03 8288
0.00 0.00 0.85 -3.28 9.97 -0.83 0.25 -0.02 8295
0.00 0.00 0.70 -3.39 10.04 -0.78 0.26 -0.07 8302
0.00 0.00 0.62 -3.47 10.13 -0.74 0.26 -0.12 8309
0.00 0.00 0.58 -3.40 10.26 -0.71 0.25 -0.17 8316
0.00 0.00 0.53 -3.29 10.48 -0.71 0.24 -0.21 8324
0.00 0.00 0.46 -3.17 10.42 -0.72 0.24 -0.22 8331
0.00 0.00 0.29 -3.11 10.24 -0.75 0.24 -0.24 8338
0.00 0.00 0.37 -3.32 10.13 -0.76 0.22 -0.25 8345
0.00 0.00 0.41 -3.57 9.99 -0.76 0.18 -0.25 8352
0.00 0.00 0.47 -3.88 9.73 -0.73 0.15 -0.25 8359
0.00 0.00 0.53 -4.17 9.54 -0.69 0.14 -0.23 8367
0.00 0.00 0.64 -4.33 9.32 -0.63 0.14 -0.22 8374
0.00 0.00 0.69 -4.55 9.17 -0.56 0.15 -0.19 8381
0.00 0.00 0.73 -4.56 9.11 -0.47 0.18 -0.17 8388
0.00 0.00 0.74 -4.62 9.15 -0.39 0.21 -0.13 8395
0.00 0.00 0.53 -4.52 9.09 -0.32 0.23 -0.10 8402
0.00 0.00 0.41 -4.37 9.14 -0.25 0.25 -0.07 8410
0.00 -0.00 0.58 -4.06 9.51 -0.21 0.28 -0.05 8417
0.00 0.00 0.81 -3.83 9.69 -0.20 0.33 -0.03 8424
0.00 0.00 0.96 -3.67 9.65 -0.24 0.40 -0.00 8431
0.00 0.00 0.84 -3.99 9.70 -0.28 0.44 0.02 8438
0.00 0.00 -0.69 -5.73 10.59 -0.28 0.32 0.03 8445
0.00 0.00 -1.17 -6.06 10.55 -0.19 0.03 0.01 8453
0.00 0.00 -0.54 -4.55 7.75 -0.14 -0.07 0.01 8460
0.00 0.00 -0.59 -5.61 7.65 -0.17 -0.10 0.02 8467
0.00 0.00 -1.54 -7.64 9.73 -0.13 -0.26 -0.00 8474
0.00 0.00 -2.06 -6.84 9.00 -0.03 -0.36 -0.04 8481
0.00 0.00 -2.12 -7.37 8.02 0.07 -0.45 -0.08 8488
0.00 0.00 -1.96 -7.47 7.40 0.14 -0.50 -0.13 8496
0.00 0.00 -2.90 -7.93 7.73 0.25 -0.66 -0.19 8503
0.00 0.00 -3.25 -8.95 7.75 0.34 -0.87 -0.26 8510
0.00 0.00 -3.52 -9.60 9.40 0.45 -1.08 -0.36 8517
0.00 0.00 -3.85 -13.32 11.84 0.41 -1.32 -0.48 8524
-0.00 0.00 -2.38 -13.02 12.51 0.29 -0.83 -0.44 8532
0.00 0.00 -2.00 -5.23 10.17 -0.00 -0.17 -0.24 8539
0.00 0.00 -0.01 -2.50 9.79 -0.12 0.01 -0.05 8546
0.03 0.00 0.18 -1.79 9.66 -0.17 0.03 -0.02 8553
0.03 0.01 0.30 -1.11 9.62 -0.19 0.02 0.01 8560
-0.00 0.03 0.58 -0.59 9.53 -0.19 0.01 0.02 8567
-0.00 0.04 0.68 -0.64 9.80 -0.19 0.00 -0.00 8574
0.04 0.05 0.44 -0.61 9.75 -0.19 0.01 -0.02 8582
0.03 0.08 0.39 -0.86 9.84 -0.16 0.03 -0.03 8589
-0.01 0.09 0.29 -1.03 9.93 -0.14 0.04 -0.03 8596
-0.01 0.11 0.32 -1.05 9.91 -0.11 0.06 -0.03 8603
0.01 0.13 0.38 -1.00 9.80 -0.09 0.08 -0.07 8610
0.01 0.17 0.38 -0.90 9.82 -0.07 0.09 -0.03 8617
0.01 0.16 0.39 -0.90 9.77 -0.06 0.09 -0.03 8625
0.00 0.17 0.46 -0.86 9.73 -0.06 0.09 -0.02 8632
0.00 0.20 0.47 -0.92 9.82 -0.06 0.08 -0.03 8639
-0.00 0.23 0.50 -0.95 9.80 -0.06 0.08 -0.03 8646
0.01 0.21 0.54 -0.97 9.83 -0.06 0.06 -0.03 8653
0.01 0.25 0.47 -0.94 9.81 -0.06 0.05 -0.03 8660
0.02 0.27 0.50 -0.93 9.22 -0.07 0.06 -0.04 8668
-0.00 0.34 0.41 -0.86 9.80 -0.07 0.05 -0.04 8675
-0.01 0.35 0.48 -0.83 9.82 -0.07 0.05 -0.04 8682
-0.01 0.34 0.53 -0.81 9.78 -0.06 0.05 -0.04 8689
0.00 0.37 0.50 -0.85 9.83 -0.05 0.05 -0.05 8696
0.01 0.40 0.51 -0.88 9.81 -0.05 0.05 -0.05 8704
0.01 0.44 0.45 -0.86 9.84 -0.04 0.05 -0.05 8711
-0.00 0.45 0.46 -0.87 9.74 -0.04 0.05 -0.05 8718
0.00 0.46 0.30 -0.83 9.81 -0.04 0.04 -0.06 8725
-0.01 0.47 0.49 -0.85 9.70 -0.04 0.05 -0.05 8732
-0.01 0.49 0.41 -0.85 9.80 -0.03 0.05 -0.05 8739
-0.00 0.52 0.44 -0.82 9.78 -0.03 0.05 -0.05 8747
0.00 0.47 0.41 -0.86 9.83 -0.03 0.05 -0.05 8754
-0.00 0.50 0.49 -0.85 9.80 -0.03 0.05 -0.05 8761
-0.00 0.49 0.51 -0.79 9.83 -0.02 0.06 -0.05 8768
-0.01 0.50 0.50 -0.84 9.83 -0.02 0.05 -0.05 8775
-0.00 0.52 0.45 -0.83 9.81 -0.01 0.05 -0.06 8782
0.01 0.55 0.42 -0.82 9.82 -0.01 0.05 -0.06 8790
0.00 0.55 0.48 -0.82 10.41 -0.02 0.05 -0.06 8797
0.00 0.53 0.48 -0.84 9.81 -0.01 0.05 -0.06 8804
0.00 0.51 0.47 -0.81 9.82 -0.01 0.05 -0.06 8811
0.01 0.49 0.46 -0.84 9.80 -0.01 0.05 -0.06 8818
0.02 0.49 0.49 -0.83 9.81 -0.01 0.04 -0.06 8825
0.03 0.50 0.47 -0.84 9.81 -0.00 0.05 -0.06 8833
0.00 0.50 0.45 -0.84 9.81 0.00 0.05 -0.07 8840
0.01 0.49 0.45 -0.81 9.77 -0.00 0.05 -0.06 8847
-0.00 0.50 0.46 -0.81 9.80 0.01 0.05 -0.06 8854
0.01 0.49 0.48 -0.85 9.81 0.01 0.05 -0.07 8861
0.02 0.50 0.50 -0.85 9.80 0.01 0.05 -0.10 8868
0.01 0.48 0.50 -0.84 9.77 0.01 0.05 -0.06 8876
0.01 0.47 0.46 -0.85 9.74 0.01 0.05 -0.07 8883
0.01 0.45 0.46 -0.84 10.40 0.01 0.05 -0.07 8890
-0.00 0.46 0.46 -0.86 9.81 0.01 0.05 -0.07 8897
0.01 0.45 0.42 -0.87 9.80 0.00 0.05 -0.07 8904
0.02 0.45 0.48 -0.84 9.79 0.01 0.05 -0.07 8911
0.02 0.42 0.42 -0.86 9.81 0.01 0.06 -0.07 8919
0.01 0.41 0.48 -0.83 9.20 0.01 0.06 -0.07 8926
0.01 0.40 0.48 -0.83 9.79 0.00 0.06 -0.06 8933
0.00 0.38 0.49 -0.85 9.74 0.00 0.06 -0.07 8940
0.02 0.41 0.50 -0.83 9.79 0.00 0.06 -0.07 8947
0.02 0.42 0.52 -0.82 9.80 -0.00 0.06 -0.07 8954
0.02 0.42 0.49 -0.85 9.80 0.00 0.05 -0.06 8962
0.01 0.41 0.46 -0.86 9.80 -0.00 0.05 -0.07 8969
0.02 0.38 0.50 -0.87 9.77 0.00 0.05 -0.06 8976
0.02 0.41 0.47 -0.86 9.77 0.00 0.05 -0.07 8983
0.03 0.39 0.49 -0.86 9.79 0.00 0.05 -0.07 8990
0.04 0.38 0.47 -0.84 9.76 0.00 0.05 -0.10 8997
0.03 0.37 0.52 -0.85 9.78 0.00 0.05 -0.07 9005
0.03 0.37 0.49 -0.81 9.82 0.01 0.05 -0.07 9012
0.03 0.35 0.48 -0.88 9.79 0.00 0.05 -0.07 9019
0.03 0.33 0.50 -0.88 9.80 0.00 0.05 -0.07 9026
0.04 0.32 0.47 -0.86 9.80 0.01 0.04 -0.07 9033
0.06 0.28 0.49 -0.86 9.82 0.01 0.05 -0.07 9040
0.05 0.28 0.51 -0.86 9.80 0.01 0.05 -0.07 9048
0.05 0.28 0.47 -0.87 10.38 0.01 0.05 -0.07 9055
0.04 0.27 0.47 -0.86 9.78 0.01 0.05 -0.08 9062
0.05 0.24 0.49 -0.89 9.78 0.01 0.05 -0.07 9069
0.05 0.26 0.51 -0.90 9.80 0.01 0.05 -0.07 9076
0.07 0.26 0.50 -0.89 9.79 0.01 0.05 -0.07 9083
0.05 0.23 0.54 -0.87 9.81 0.01 0.05 -0.07 9091
0.06 0.20 0.52 -0.88 9.82 0.01 0.05 -0.08 9098
0.05 0.20 0.49 -0.88 9.74 0.01 0.04 -0.07 9105
0.05 0.20 0.47 -0.89 9.80 0.02 0.04 -0.07 9112
0.05 0.21 0.47 -0.89 9.81 0.02 0.05 -0.08 9119
0.09 0.13 0.48 -0.89 9.81 0.01 0.04 -0.08 9126
0.10 0.12 0.53 -0.88 9.82 0.01 0.05 -0.08 9134
0.11 0.12 0.51 -0.92 9.81 0.01 0.05 -0.08 9141
0.09 0.12 0.51 -0.88 9.75 0.02 0.05 -0.08 9148
0.11 0.10 0.49 -0.91 9.81 0.01 0.05 -0.08 9155
0.11 0.07 0.49 -0.90 9.79 0.02 0.05 -0.07 9162
0.11 0.07 0.51 -0.93 9.77 0.01 0.05 -0.08 9169
0.11 0.04 0.48 -0.90 9.80 0.01 0.06 -0.07 9177
0.10 0.03 0.49 -0.90 9.79 0.01 0.05 -0.08 9184
0.09 0.06 0.51 -0.89 9.79 0.01 0.06 -0.08 9191
0.11 0.03 0.49 -0.87 9.79 0.02 0.06 -0.08 9198
0.13 0.03 0.51 -0.92 9.82 0.02 0.06 -0.08 9205
0.14 0.01 0.52 -0.92 9.78 0.02 0.06 -0.08 9212
0.13 -0.00 0.46 -0.90 9.81 0.02 0.06 -0.08 9220
0.12 0.01 0.53 -0.89 9.81 0.02 0.07 -0.07 9227
0.13 -0.00 0.54 -0.93 9.78 0.03 0.07 -0.07 9234
0.13 0.02 0.54 -0.91 9.79 0.02 0.07 -0.07 9241
0.14 0.01 0.55 -0.92 9.75 0.02 0.07 -0.08 9248
0.15 0.01 0.53 -0.96 9.80 0.02 0.07 -0.08 9255
0.15 -0.01 0.56 -0.92 9.80 0.03 0.07 -0.07 9263
0.15 -0.00 0.55 -0.92 9.83 0.03 0.08 -0.08 9270
0.18 0.00 0.53 -0.90 10.41 0.03 0.08 -0.07 9277
0.19 0.00 0.57 -0.94 9.80 0.04 0.09 -0.08 9284
0.19 0.01 0.54 -0.96 9.89 0.05 0.09 -0.08 9291
0.19 -0.00 0.51 -0.88 9.88 0.08 0.11 -0.07 9298
0.19 -0.02 0.55 -0.94 9.98 0.11 0.13 -0.07 9306
0.18 -0.00 0.63 -0.91 9.99 0.15 0.17 -0.07 9313
0.19 -0.01 0.71 -0.99 10.08 0.21 0.22 -0.08 9320
0.20 -0.01 0.73 -0.99 10.24 0.28 0.28 -0.09 9327
0.20 -0.01 0.76 -1.00 10.39 0.39 0.35 -0.09 9334
0.20 -0.00 0.83 -1.06 10.56 0.50 0.41 -0.10 9341
0.20 -0.02 0.91 -1.09 10.77 0.69 0.42 -0.12 9349
0.19 -0.01 1.09 -1.15 11.00 0.90 0.39 -0.16 9356
0.19 -0.00 0.82 -1.26 11.32 1.07 0.27 -0.18 9364
0.20 -0.02 0.66 -1.33 11.40 1.18 0.20 -0.19 9370
0.20 -0.02 0.69 -1.45 11.18 1.25 0.13 -0.18 9378
0.20 -0.02 0.76 -1.53 10.65 1.29 0.06 -0.17 9384
0.18 -0.02 0.51 -1.50 10.60 1.29 -0.01 -0.16 9392
0.16 -0.01 0.56 -1.71 10.32 1.28 -0.05 -0.14 9400
0.15 -0.01 0.53 -1.78 10.14 1.29 -0.06 -0.12 9407
0.17 -0.02 0.63 -1.87 10.12 1.28 -0.05 -0.10 9413
0.15 -0.01 0.64 -1.95 9.68 1.28 -0.07 -0.09 9420
0.11 -0.01 0.54 -2.07 9.76 1.26 -0.06 -0.08 9427
0.08 -0.01 0.70 -2.26 9.46 1.24 -0.05 -0.07 9435
0.05 -0.01 0.46 -2.12 9.57 1.19 -0.09 -0.07 9442
0.05 0.00 0.90 -2.49 9.47 1.13 -0.03 -0.08 9449
0.07 -0.01 0.74 -2.56 9.30 1.10 -0.04 -0.09 9456
0.04 -0.00 0.69 -2.68 9.27 1.05 -0.06 -0.09 9463
0.05 -0.01 0.88 -2.73 9.17 1.01 -0.03 -0.09 9470
0.03 -0.00 0.80 -2.78 9.25 0.97 -0.06 -0.10 9478
0.04 -0.00 0.77 -2.86 9.52 0.94 -0.07 -0.10 9485
0.04 -0.00 0.83 -3.00 9.67 0.93 -0.08 -0.11 9492
0.06 -0.01 0.91 -3.13 9.68 0.93 -0.08 -0.12 9499
0.06 -0.01 0.88 -3.24 9.76 0.92 -0.07 -0.13 9506
0.04 -0.00 0.80 -3.27 9.63 0.90 -0.05 -0.14 9513
0.03 -0.00 0.77 -3.38 9.74 0.87 -0.02 -0.15 9521
0.05 -0.01 0.82 -3.45 9.85 0.86 0.01 -0.15 9528
0.04 -0.00 0.97 -3.47 9.68 0.83 0.02 -0.16 9535
0.04 -0.00 1.03 -3.55 9.54 0.78 0.02 -0.17 9542
0.03 -0.00 1.10 -3.49 9.59 0.72 0.04 -0.19 9549
0.01 -0.00 1.30 -3.32 9.64 0.67 0.01 -0.21 9556
0.01 -0.00 1.35 -3.18 9.75 0.64 -0.01 -0.25 9564
0.01 0.00 1.42 -3.03 9.60 0.61 -0.03 -0.28 9571
0.01 -0.00 1.43 -2.88 9.64 0.59 -0.04 -0.32 9578
0.01 -0.00 1.36 -2.67 9.73 0.55 -0.07 -0.36 9585
0.01 -0.00 1.17 -2.55 9.56 0.50 -0.11 -0.39 9592
0.00 -0.00 1.13 -2.92 9.16 0.46 -0.17 -0.43 9600
0.00 0.00 1.19 -2.64 9.05 0.42 -0.22 -0.45 9607
0.01 -0.00 1.17 -2.37 8.81 0.37 -0.23 -0.50 9614
0.01 -0.00 1.43 -1.96 8.78 0.31 -0.24 -0.57 9621
0.00 0.00 1.42 -1.52 8.96 0.21 -0.21 -0.63 9628
0.00 0.00 1.24 -1.52 8.94 0.15 -0.13 -0.72 9635
0.00 0.00 1.16 -0.22 9.33 0.08 -0.05 -0.80 9643
0.00 0.00 0.82 -0.16 9.00 0.01 0.08 -0.96 9650
0.00 -0.00 0.06 0.19 9.50 -0.03 0.13 -1.07 9657
0.01 -0.00 -0.91 1.18 10.05 -0.09 0.17 -1.20 9664
0.00 0.00 0.61 1.11 8.98 -0.11 0.08 -1.27 9671
0.00 0.00 0.19 1.80 8.95 -0.17 0.06 -1.32 9678
0.00 0.00 -0.31 2.40 9.87 -0.25 0.00 -1.34 9686
0.00 0.00 -0.48 2.48 9.56 -0.32 -0.05 -1.34 9693
0.00 0.00 0.64 1.85 8.53 -0.41 -0.07 -1.32 9700
0.00 0.00 0.95 1.55 8.78 -0.46 -0.01 -1.27 9707
0.00 0.00 1.18 1.08 8.78 -0.49 0.06 -1.22 9714
0.00 0.00 0.99 0.28 8.76 -0.49 0.14 -1.14 9721
0.00 0.00 1.07 -0.40 9.02 -0.47 0.25 -1.04 9729
0.00 0.00 0.85 -0.63 9.24 -0.44 0.30 -0.93 9736
0.00 0.00 1.30 -1.47 9.41 -0.43 0.33 -0.81 9743
0.00 0.00 2.42 -1.52 10.11 -0.44 0.35 -0.68 9750
0.00 0.00 0.46 -1.89 10.21 -0.49 0.38 -0.60 9757
0.00 0.00 1.55 -1.20 10.02 -0.52 0.36 -0.50 9764
0.00 0.00 1.40 -1.86 8.72 -0.56 0.29 -0.43 9772
0.00 0.00 0.35 -2.57 9.65 -0.51 0.29 -0.32 9779
0.00 0.00 1.17 -1.21 9.36 -0.50 0.27 -0.22 9786
0.00 0.00 0.00 -2.76 9.45 -0.46 0.27 -0.15 9793
0.00 0.00 0.17 -1.58 9.60 -0.45 0.29 -0.07 9800
0.00 0.00 -0.98 -3.48 9.06 -0.43 0.31 -0.02 9807
0.00 0.00 -0.06 -3.62 10.35 -0.43 0.32 0.02 9815
0.00 0.00 -0.51 -3.89 10.54 -0.40 0.33 0.02 9822
0.00 -0.00 -0.93 -4.79 9.52 -0.38 0.29 -0.01 9829
0.00 0.00 1.01 -3.89 10.79 -0.42 0.24 -0.06 9836
0.00 0.00 -1.51 -3.15 8.25 -0.41 0.25 -0.10 9843
0.00 0.00 1.29 -3.61 9.53 -0.42 0.18 -0.15 9850
0.00 0.00 -0.12 -3.92 10.16 -0.41 0.13 -0.18 9858
0.00 0.00 0.80 -2.95 10.89 -0.43 0.06 -0.20 9865
0.00 -0.00 -0.20 -3.47 9.83 -0.39 0.02 -0.18 9872
0.00 0.00 -0.01 -2.45 8.11 -0.39 0.03 -0.15 9879
0.00 0.00 1.96 -2.08 10.91 -0.41 0.08 -0.12 9886
0.00 0.00 -0.55 -1.94 8.58 -0.39 0.07 -0.05 9893
0.00 0.00 1.69 -1.81 10.01 -0.33 0.04 0.02 9901
0.00 0.00 -2.09 -4.47 9.11 -0.29 0.01 0.09 9908
0.00 0.00 -0.78 -4.37 9.14 -0.27 -0.01 0.13 9915
0.00 0.00 0.03 -1.98 9.88 -0.29 -0.05 0.14 9922
0.00 0.00 -2.65 -5.68 10.21 -0.32 -0.07 0.14 9929
0.00 0.00 0.57 -4.59 10.00 -0.32 -0.07 0.14 9936
0.00 0.00 1.16 -2.59 10.09 -0.31 -0.03 0.14 9944
0.00 0.00 0.34 -2.81 9.44 -0.35 0.05 0.11 9951
0.00 0.00 1.62 -2.16 8.21 -0.35 0.10 0.09 9958
0.00 0.00 2.48 -0.93 11.22 -0.38 0.14 0.11 9965
0.00 0.00 0.64 -3.20 9.68 -0.40 0.16 0.13 9972
0.00 0.00 -1.09 -2.92 7.93 -0.38 0.12 0.16 9979
0.00 0.00 3.12 -0.04 9.68 -0.39 0.10 0.21 9987
0.00 0.00 1.10 -1.87 9.10 -0.41 0.10 0.26 9994
0.00 0.00 1.31 -1.19 8.54 -0.42 0.13 0.32 10001
0.00 0.00 1.43 -1.63 9.72 -0.47 0.15 0.37 10008
0.00 0.00 2.01 -0.65 9.39 -0.49 0.19 0.41 10015
0.00 0.00 1.79 -1.06 9.67 -0.54 0.24 0.46 10022
0.00 0.00 2.07 -1.35 9.52 -0.57 0.30 0.50 10030
0.01 -0.00 1.83 -1.43 9.71 -0.57 0.34 0.53 10037
0.00 0.00 1.27 -1.60 9.89 -0.57 0.36 0.54 10044
0.00 0.00 1.51 -1.58 10.29 -0.58 0.36 0.55 10051
0.00 0.00 1.58 -1.25 9.89 -0.56 0.38 0.55 10058
0.00 0.00 1.49 -1.13 9.94 -0.57 0.39 0.55 10065
0.00 0.00 1.19 -1.38 10.19 -0.59 0.43 0.54 10073
0.00 0.00 1.01 -1.31 10.13 -0.61 0.46 0.53 10080
0.00 0.00 0.62 -1.35 10.42 -0.64 0.46 0.52 10087
0.00 0.00 0.31 -1.46 10.46 -0.65 0.42 0.50 10094
0.00 0.00 0.26 -1.51 10.17 -0.66 0.37 0.44 10101
0.00 0.00 0.33 -1.34 10.20 -0.65 0.32 0.44 10108
0.00 0.00 0.35 -1.06 9.94 -0.64 0.28 0.40 10116
0.00 0.00 0.52 -0.96 9.81 -0.63 0.28 0.38 10123
0.00 0.00 0.64 -0.85 9.81 -0.64 0.30 0.36 10130
0.00 0.00 0.66 -0.84 9.87 -0.63 0.33 0.35 10137
0.00 0.00 0.66 -0.93 9.95 -0.64 0.34 0.34 10144
0.00 0.00 0.49 -0.95 10.02 -0.63 0.32 0.34 10151
0.00 0.00 0.26 -1.14 9.93 -0.63 0.30 0.33 10159
0.00 0.00 0.06 -1.38 10.04 -0.62 0.25 0.32 10166
0.00 0.00 -0.61 -1.63 9.94 -0.62 0.19 0.28 10173
0.00 0.00 0.01 -1.78 10.12 -0.62 0.15 0.24 10180
0.00 0.00 0.02 -1.89 10.16 -0.63 0.13 0.19 10187
0.00 0.00 0.04 -1.88 10.12 -0.65 0.12 0.15 10194
0.00 0.00 0.06 -1.99 10.03 -0.68 0.11 0.09 10202
0.00 0.00 0.17 -2.20 9.94 -0.70 0.10 0.04 10209
0.00 0.00 0.30 -2.31 9.86 -0.72 0.09 -0.00 10216
0.00 0.00 0.43 -2.40 9.87 -0.73 0.09 -0.04 10223
0.00 0.00 0.64 -3.05 9.81 -0.74 0.10 -0.08 10230
0.00 0.00 0.63 -2.75 9.90 -0.73 0.12 -0.11 10237
0.00 -0.00 0.00 -4.54 10.65 -0.69 0.04 -0.15 10245
0.00 0.00 -1.66 -6.14 10.77 -0.49 -0.22 -0.20 10252
0.00 0.00 -0.44 -4.68 7.71 -0.34 -0.28 -0.22 10259
0.00 0.00 -0.40 -6.72 7.19 -0.29 -0.22 -0.22 10266
0.00 0.00 -1.00 -6.68 9.02 -0.16 -0.35 -0.24 10273
0.00 0.00 -0.65 -6.96 9.69 -0.05 -0.29 -0.24 10280
0.00 -0.00 -0.71 -7.98 8.74 0.07 -0.27 -0.17 10288
0.00 0.00 -0.54 -7.75 8.04 0.28 -0.29 -0.11 10295
0.00 0.00 -1.78 -8.95 7.70 0.35 -0.33 -0.02 10302
0.00 0.00 -1.07 -9.60 7.62 0.53 -0.44 0.04 10309
0.00 0.00 -2.26 -10.60 8.05 0.77 -0.60 0.13 10316
-0.00 0.00 -3.32 -15.75 13.28 0.82 -0.81 0.19 10323
0.00 0.00 -6.94 -19.52 14.13 0.43 -1.15 0.09 10331
-0.00 0.01 -1.70 -7.35 8.80 0.03 -0.15 0.06 10338
0.00 0.00 -0.21 -4.25 9.91 -0.13 0.06 -0.03 10345
-0.00 0.01 -0.26 -1.83 9.51 -0.22 0.10 -0.02 10352
-0.00 0.02 0.47 -0.77 9.76 -0.22 0.07 0.03 10359
-0.01 0.07 0.64 -0.61 9.89 -0.22 0.04 0.06 10366
-0.00 0.05 0.71 -0.52 9.90 -0.21 0.01 0.03 10374
0.02 0.06 0.60 -0.55 9.87 -0.21 0.01 -0.00 10381
0.01 0.16 0.42 -0.74 9.87 -0.17 0.01 -0.02 10388
0.01 0.16 0.46 -0.90 9.95 -0.14 0.01 -0.03 10395
0.02 0.24 0.28 -0.98 9.87 -0.12 0.02 -0.03 10402
0.00 0.24 0.25 -0.93 9.95 -0.11 0.03 -0.04 10409
-0.00 0.24 0.38 -0.82 9.91 -0.09 0.04 -0.03 10417
-0.00 0.31 0.44 -0.83 9.84 -0.08 0.05 -0.03 10424
-0.02 0.35 0.48 -0.82 9.87 -0.07 0.05 -0.03 10431
-0.01 0.40 0.40 -0.82 9.25 -0.06 0.05 -0.03 10438
-0.01 0.39 0.39 -0.81 9.82 -0.06 0.04 -0.04 10445
0.00 0.45 0.38 -0.81 9.81 -0.06 0.05 -0.04 10452
-0.01 0.47 0.38 -0.81 9.87 -0.06 0.05 -0.04 10460
-0.01 0.53 0.35 -0.79 9.73 -0.05 0.05 -0.04 10467
-0.02 0.54 0.45 -0.83 9.82 -0.04 0.05 -0.04 10474
-0.02 0.52 0.41 -0.82 9.81 -0.04 0.05 -0.05 10481
-0.02 0.54 0.43 -0.79 9.82 -0.03 0.04 -0.05 10488
-0.00 0.53 0.44 -0.82 9.81 -0.03 0.04 -0.05 10496
-0.01 0.56 0.43 -0.80 9.79 -0.03 0.04 -0.06 10503
-0.01 0.57 0.41 -0.82 9.77 -0.03 0.03 -0.05 10510
-0.03 0.61 0.40 -0.80 9.82 -0.03 0.03 -0.06 10517
-0.02 0.64 0.45 -0.75 9.79 -0.03 0.03 -0.06 10524
-0.01 0.65 0.43 -0.77 9.21 -0.03 0.03 -0.06 10531
-0.01 0.66 0.38 -0.79 9.80 -0.02 0.03 -0.07 10539
-0.02 0.65 0.37 -0.77 9.80 -0.02 0.02 -0.06 10546
-0.02 0.66 0.38 -0.78 9.82 -0.02 0.02 -0.07 10553
-0.03 0.67 0.36 -0.76 9.79 -0.02 0.02 -0.07 10560
-0.01 0.68 0.36 -0.78 9.81 -0.02 0.02 -0.06 10567
-0.01 0.69 0.35 -0.77 9.79 -0.01 0.02 -0.07 10574
-0.01 0.66 0.37 -0.78 9.82 -0.01 0.02 -0.07 10582
-0.01 0.68 0.39 -0.77 9.81 -0.01 0.02 -0.08 10589
-0.02 0.65 0.40 -0.82 9.73 -0.01 0.02 -0.07 10596
-0.02 0.65 0.40 -0.79 9.79 -0.01 0.02 -0.07 10603
-0.02 0.66 0.43 -0.77 9.89 -0.01 0.02 -0.07 10610
-0.00 0.66 0.41 -0.77 9.77 -0.01 0.02 -0.07 10617
-0.01 0.63 0.35 -0.80 9.82 -0.01 0.02 -0.07 10625
-0.01 0.64 0.38 -0.73 9.82 -0.01 0.02 -0.07 10632
-0.02 0.65 0.34 -0.78 9.84 -0.01 0.02 -0.07 10639
-0.02 0.64 0.34 -0.73 9.81 -0.00 0.03 -0.07 10646
-0.01 0.63 0.35 -0.79 9.81 -0.00 0.02 -0.07 10653
0.00 0.62 0.37 -0.76 9.81 -0.00 0.02 -0.07 10660
-0.00 0.61 0.35 -0.75 9.77 -0.00 0.02 -0.07 10668
-0.00 0.60 0.35 -0.76 9.80 -0.00 0.03 -0.08 10675
-0.01 0.59 0.36 -0.78 9.79 -0.00 0.02 -0.08 10682
-0.01 0.60 0.34 -0.79 9.79 -0.00 0.02 -0.08 10689
-0.00 0.60 0.34 -0.80 9.82 -0.00 0.02 -0.08 10696
0.01 0.58 0.37 -0.79 9.82 -0.00 0.02 -0.08 10703
0.01 0.57 0.34 -0.79 9.81 -0.00 0.02 -0.07 10711
0.01 0.55 0.33 -0.78 9.78 -0.00 0.02 -0.08 10718
-0.01 0.55 0.38 -0.79 9.79 -0.01 0.02 -0.08 10725
0.00 0.56 0.34 -0.78 9.77 -0.01 0.02 -0.08 10732
0.01 0.57 0.32 -0.80 9.81 -0.01 0.02 -0.08 10739
0.02 0.57 0.37 -0.79 9.81 -0.01 0.02 -0.08 10746
0.02 0.55 0.34 -0.78 9.81 -0.01 0.02 -0.08 10754
0.01 0.55 0.34 -0.77 9.81 -0.01 0.02 -0.07 10761
-0.00 0.55 0.32 -0.80 9.81 -0.01 0.02 -0.08 10768
0.01 0.56 0.35 -0.77 9.80 -0.01 0.02 -0.07 10775
0.02 0.57 0.31 -0.77 9.82 -0.01 0.02 -0.08 10782
0.03 0.54 0.35 -0.81 9.82 -0.01 0.02 -0.08 10789
0.04 0.55 0.33 -0.78 9.81 -0.01 0.03 -0.08 10797
0.05 0.55 0.37 -0.78 9.82 -0.01 0.02 -0.08 10804
0.06 0.56 0.33 -0.78 9.81 -0.00 0.03 -0.08 10811
0.04 0.57 0.33 -0.80 9.79 -0.01 0.02 -0.08 10818
0.05 0.56 0.35 -0.78 9.81 -0.01 0.02 -0.08 10825
0.06 0.55 0.33 -0.79 9.80 -0.01 0.03 -0.08 10832
0.05 0.55 0.35 -0.80 9.82 -0.01 0.03 -0.08 10840
0.05 0.56 0.31 -0.77 9.80 -0.01 0.02 -0.08 10847
0.07 0.56 0.30 -0.76 9.79 -0.01 0.03 -0.08 10854
0.08 0.57 0.31 -0.79 9.81 -0.01 0.03 -0.08 10861
0.10 0.57 0.30 -0.83 9.81 -0.01 0.03 -0.08 10868
0.09 0.56 0.31 -0.80 9.80 -0.01 0.03 -0.08 10875
0.09 0.56 0.35 -0.79 9.81 -0.01 0.03 -0.08 10883
0.08 0.56 0.33 -0.79 9.77 -0.01 0.03 -0.08 10890
0.08 0.56 0.28 -0.79 9.79 -0.01 0.03 -0.08 10897
0.10 0.58 0.31 -0.75 9.80 -0.00 0.03 -0.08 10904
0.10 0.58 0.30 -0.75 9.82 -0.00 0.03 -0.08 10911
0.09 0.55 0.33 -0.77 10.42 0.00 0.04 -0.08 10918
0.10 0.54 0.30 -0.78 9.80 0.00 0.04 -0.08 10926
0.09 0.55 0.32 -0.78 9.78 0.00 0.04 -0.08 10933
0.10 0.55 0.27 -0.79 9.81 0.01 0.04 -0.08 10940
0.12 0.53 0.33 -0.81 9.80 0.01 0.05 -0.08 10947
0.11 0.51 0.28 -0.80 9.81 0.02 0.05 -0.08 10954
0.11 0.48 0.28 -0.79 9.82 0.02 0.06 -0.08 10961
0.12 0.43 0.31 -0.80 9.80 0.02 0.06 -0.08 10969
0.10 0.38 0.29 -0.81 9.83 0.03 0.07 -0.08 10976
0.12 0.39 0.29 -0.77 9.83 0.07 0.07 -0.08 10983
0.14 0.32 0.33 -0.78 9.86 0.04 0.08 -0.08 10990
0.14 0.30 0.36 -0.80 9.92 0.05 0.08 -0.08 10997
0.14 0.19 0.40 -0.81 9.95 0.06 0.08 -0.09 11004
0.14 0.09 0.38 -0.84 9.89 0.08 0.09 -0.09 11012
0.14 0.03 0.49 -0.89 9.87 0.10 0.10 -0.10 11019
0.14 0.02 0.40 -0.85 9.93 0.12 0.11 -0.11 11026
0.16 -0.00 0.37 -0.88 9.95 0.15 0.12 -0.11 11033
0.18 -0.01 0.51 -1.06 10.12 0.17 0.13 -0.10 11041
0.18 -0.01 0.44 -0.88 10.21 0.22 0.14 -0.10 11047
0.17 -0.02 0.53 -0.85 10.40 0.28 0.18 -0.11 11055
0.18 -0.01 0.63 -0.81 10.81 0.40 0.22 -0.14 11063
0.20 -0.01 1.25 -0.98 11.42 0.62 0.27 -0.20 11070
0.22 -0.02 0.88 -1.08 12.15 0.91 0.23 -0.25 11076
0.21 -0.01 0.56 -1.10 12.21 1.19 0.14 -0.26 11084
0.20 -0.02 0.58 -1.19 11.19 1.29 0.03 -0.25 11090
0.18 -0.01 0.53 -1.31 10.81 1.30 0.00 -0.26 11098
0.18 -0.01 0.34 -1.36 10.61 1.30 -0.02 -0.25 11106
0.17 -0.01 0.19 -1.49 10.54 1.31 -0.05 -0.24 11113
0.19 -0.01 0.20 -1.56 10.03 1.32 -0.08 -0.21 11120
0.20 -0.02 0.07 -1.62 9.82 1.32 -0.08 -0.19 11126
0.19 -0.02 -0.60 -1.71 9.73 1.30 -0.09 -0.15 11133
0.14 -0.01 -0.06 -1.83 9.30 1.29 -0.17 -0.11 11141
0.16 -0.02 -0.04 -1.97 9.99 1.24 -0.20 -0.07 11148
0.07 -0.01 0.21 -2.03 10.03 1.23 -0.14 -0.06 11155
0.09 -0.01 0.00 -2.14 10.50 1.26 -0.07 -0.04 11162
0.10 -0.01 0.61 -2.29 10.01 1.29 -0.01 -0.02 11169
0.05 -0.01 0.10 -2.45 9.46 1.27 0.03 -0.01 11176
0.02 -0.00 0.32 -2.67 9.55 1.21 0.01 -0.00 11184
0.04 -0.00 0.41 -2.76 9.52 1.16 0.06 0.00 11191
0.04 -0.00 0.31 -2.83 9.72 1.11 0.06 -0.00 11198
0.04 -0.00 0.24 -2.83 9.78 1.07 0.05 -0.01 11205
0.03 -0.00 0.39 -2.84 9.90 1.03 0.03 -0.01 11212
0.03 -0.00 0.59 -2.84 10.18 0.98 -0.05 -0.02 11219
0.04 -0.00 0.61 -2.89 10.20 0.95 -0.12 -0.03 11227
0.02 0.00 0.70 -2.91 10.35 0.91 -0.17 -0.05 11234
0.00 -0.00 0.66 -2.97 10.25 0.87 -0.21 -0.07 11241
0.00 0.00 0.60 -3.04 9.98 0.82 -0.26 -0.08 11248
0.00 0.00 0.50 -3.07 9.71 0.77 -0.31 -0.10 11255
0.00 0.00 0.56 -3.02 9.35 0.73 -0.35 -0.11 11262
0.00 0.00 0.56 -2.63 9.18 0.70 -0.40 -0.13 11270
0.00 -0.00 0.61 -2.40 9.03 0.68 -0.43 -0.14 11277
0.00 -0.00 0.79 -2.29 8.97 0.65 -0.46 -0.15 11284
0.00 0.00 0.62 -3.10 8.87 0.62 -0.49 -0.17 11291
0.00 0.00 0.73 -3.31 7.60 0.60 -0.48 -0.19 11298
0.00 0.00 0.98 -4.13 8.56 0.61 -0.45 -0.22 11305
0.00 0.00 1.13 -4.78 8.56 0.61 -0.37 -0.26 11313
0.00 0.00 1.28 -4.69 8.73 0.60 -0.29 -0.29 11320
0.01 -0.00 1.16 -4.88 8.44 0.60 -0.18 -0.34 11327
0.00 0.00 0.95 -4.47 8.56 0.60 -0.08 -0.39 11334
0.00 0.00 0.73 -4.73 8.59 0.62 -0.05 -0.43 11341
0.00 0.00 0.75 -4.05 8.94 0.62 -0.03 -0.46 11348
0.00 0.00 0.63 -3.55 8.85 0.62 -0.02 -0.49 11356
0.00 0.00 0.83 -2.52 9.21 0.59 -0.06 -0.51 11363
0.00 0.00 1.04 -1.20 9.38 0.53 -0.09 -0.52 11370
0.00 0.00 1.12 -1.42 8.68 0.43 -0.10 -0.51 11377
0.00 0.00 0.85 -1.09 9.29 0.33 -0.11 -0.50 11384
0.00 0.00 0.91 -0.51 9.12 0.28 -0.15 -0.49 11392
0.00 0.00 0.63 0.37 8.62 0.22 -0.13 -0.45 11399
0.00 0.00 0.59 0.36 8.60 0.13 -0.04 -0.39 11406
0.00 0.00 0.72 0.63 8.82 0.03 0.02 -0.34 11413
0.00 0.00 0.05 -0.97 9.15 -0.03 0.04 -0.28 11420
0.00 0.00 0.37 -0.68 9.55 -0.03 0.04 -0.21 11427
0.00 0.00 1.14 0.78 9.78 -0.09 0.07 -0.16 11435
0.00 0.00 0.63 -0.54 8.93 -0.19 0.08 -0.08 11442
0.00 0.00 0.53 -0.32 9.58 -0.22 0.12 -0.03 11449
0.00 0.00 0.63 -0.96 8.46 -0.27 0.10 0.02 11456
0.00 0.00 1.68 -0.72 9.01 -0.29 0.13 0.04 11463
0.00 0.00 0.84 -1.48 8.68 -0.33 0.16 0.09 11470
0.00 0.00 1.08 -0.30 9.75 -0.32 0.18 0.09 11478
0.00 0.00 1.43 -1.15 8.50 -0.36 0.16 0.12 11485
0.00 -0.00 0.80 -1.39 8.83 -0.35 0.20 0.14 11492
0.00 0.00 0.03 -1.94 8.16 -0.37 0.20 0.11 11499
0.00 0.00 1.08 -0.26 10.74 -0.36 0.25 0.07 11506
0.00 0.00 -1.51 -3.33 9.45 -0.40 0.28 0.01 11513
0.00 0.00 -0.27 -2.22 9.69 -0.40 0.27 -0.04 11521
0.00 0.00 -0.59 -3.21 10.75 -0.39 0.31 -0.10 11528
0.00 -0.00 0.65 -2.40 9.30 -0.46 0.33 -0.15 11535
0.00 0.00 -0.34 -4.03 7.96 -0.53 0.35 -0.17 11542
0.00 0.00 -0.52 -3.26 11.09 -0.57 0.29 -0.22 11549
0.00 0.00 -1.77 -3.50 9.66 -0.56 0.21 -0.21 11556
0.00 0.00 -0.23 -1.94 9.92 -0.58 0.22 -0.18 11564
0.00 0.00 -1.86 -5.45 10.47 -0.56 0.18 -0.17 11571
0.00 0.00 -0.17 -2.45 12.12 -0.54 0.13 -0.17 11578
0.00 0.00 -0.73 -2.63 9.29 -0.54 0.16 -0.20 11585
0.00 0.00 0.00 -3.54 8.65 -0.58 0.21 -0.22 11592
0.00 0.00 0.01 -2.29 10.25 -0.55 0.25 -0.25 11599
0.00 0.00 0.47 -1.56 9.39 -0.55 0.22 -0.26 11607
0.00 -0.00 -0.26 -2.73 8.77 -0.54 0.27 -0.26 11614
0.00 0.00 -0.86 -5.70 10.10 -0.55 0.26 -0.24 11621
0.00 0.00 2.54 -1.69 10.96 -0.48 0.27 -0.25 11628
0.00 0.00 1.21 -3.49 8.55 -0.55 0.27 -0.24 11635
0.00 0.00 -0.25 -3.25 9.87 -0.54 0.27 -0.21 11642
0.00 0.00 0.25 -2.85 10.04 -0.54 0.27 -0.18 11650
0.00 0.00 -2.40 -5.89 9.78 -0.53 0.28 -0.17 11657
0.00 0.00 0.01 -2.92 10.97 -0.49 0.26 -0.16 11664
0.00 0.00 1.28 -1.68 13.02 -0.50 0.24 -0.17 11671
0.00 0.00 0.13 0.00 7.74 -0.54 0.27 -0.16 11678
0.00 0.00 -1.90 -4.82 11.57 -0.62 0.30 -0.14 11685
0.00 0.00 -2.43 -3.34 10.42 -0.58 0.30 -0.12 11693
0.00 -0.00 1.59 -1.57 10.77 -0.58 0.33 -0.09 11700
0.00 0.00 -0.47 -1.65 8.61 -0.65 0.36 -0.10 11707
0.00 0.00 0.16 -2.15 8.83 -0.65 0.33 -0.06 11714
0.00 0.00 -0.76 -1.19 9.67 -0.60 0.33 -0.03 11721
0.00 0.00 -0.06 -0.80 10.57 -0.60 0.30 0.02 11728
0.00 0.00 -0.96 -0.54 9.55 -0.64 0.32 0.08 11736
0.00 -0.00 -0.37 -0.49 9.79 -0.70 0.35 0.18 11743
0.00 0.00 0.42 0.94 10.08 -0.73 0.34 0.25 11750
0.00 0.00 -0.01 -0.33 11.00 -0.76 0.29 0.33 11757
0.00 0.00 0.09 0.63 10.98 -0.80 0.24 0.41 11764
0.00 0.00 0.64 0.65 11.29 -0.82 0.22 0.48 11771
0.00 0.00 0.69 0.01 11.57 -0.86 0.22 0.54 11779
0.00 0.00 1.30 -0.04 10.77 -0.92 0.26 0.59 11786
0.00 0.00 1.48 -0.55 10.89 -0.97 0.28 0.63 11793
0.00 0.00 1.31 -1.05 10.87 -1.01 0.30 0.64 11800
0.00 0.00 1.08 -1.37 10.55 -1.02 0.32 0.64 11807
0.00 0.00 0.92 -1.43 10.15 -1.02 0.33 0.63 11814
0.00 0.00 0.68 -1.47 9.88 -0.99 0.33 0.60 11822
0.00 0.00 0.48 -1.51 9.82 -0.96 0.33 0.56 11829
0.00 0.00 0.45 -1.48 9.98 -0.93 0.34 0.50 11836
0.00 0.00 0.51 -1.33 10.13 -0.91 0.35 0.49 11843
0.00 0.00 0.51 -1.18 10.32 -0.91 0.35 0.46 11850
0.00 0.00 0.49 -1.18 10.33 -0.93 0.35 0.43 11857
0.00 0.00 0.40 -1.30 10.13 -0.95 0.34 0.40 11865
0.00 0.00 0.21 -1.57 9.90 -0.97 0.32 0.35 11872
0.00 0.00 0.14 -1.78 9.74 -0.96 0.31 0.32 11879
0.00 0.00 0.08 -2.05 9.72 -0.95 0.31 0.27 11886
0.00 0.00 0.21 -2.24 9.88 -0.94 0.33 0.23 11893
0.00 0.00 0.51 -2.47 9.92 -0.94 0.36 0.18 11900
0.00 0.00 0.68 -2.85 9.83 -0.95 0.37 0.12 11908
0.00 0.00 0.76 -3.28 9.78 -0.96 0.38 0.07 11915
0.00 0.00 -0.46 -7.63 11.23 -0.91 0.29 -0.01 11922
0.00 0.00 -2.78 -9.93 12.27 -0.54 -0.17 -0.18 11929
0.00 0.00 -1.12 -5.94 5.12 -0.30 -0.30 -0.28 11936
0.00 0.00 -1.42 -9.62 4.75 -0.20 -0.43 -0.35 11943
0.00 -0.00 -2.67 -10.97 8.76 0.01 -0.67 -0.45 11951
0.00 0.00 -2.83 -12.60 10.43 0.30 -0.49 -0.50 11958
0.00 0.00 -1.85 -13.75 4.58 0.45 -0.35 -0.49 11965
-0.00 0.01 -3.62 -17.44 6.08 0.75 -0.61 -0.51 11972
-0.00 0.00 -4.02 -27.38 15.22 0.90 -1.19 -0.53 11980
-0.00 0.01 -1.40 -22.10 13.13 0.28 -1.04 -0.43 11986
0.01 0.01 -0.33 -4.00 8.85 -0.11 -0.02 0.04 11994
0.01 0.01 0.24 -2.22 9.34 -0.22 -0.00 0.03 12001
0.01 0.04 0.08 -0.69 9.80 -0.26 -0.08 0.05 12008
-0.00 0.09 1.11 -0.07 9.75 -0.21 -0.11 0.03 12015
0.01 0.11 0.99 -0.19 10.09 -0.20 -0.14 -0.07 12022
0.02 0.20 0.50 -0.76 10.01 -0.17 -0.13 -0.07 12029
0.02 0.18 0.14 -0.99 10.55 -0.12 -0.04 -0.08 12037
0.01 0.23 -0.02 -0.93 10.24 -0.10 -0.01 -0.08 12044
0.01 0.20 0.20 -0.87 10.01 -0.06 0.03 -0.08 12051
0.01 0.24 0.26 -0.75 9.80 -0.04 0.05 -0.08 12058
-0.00 0.25 0.29 -0.74 9.84 -0.03 0.07 -0.08 12065
0.02 0.24 0.28 -0.74 9.83 -0.02 0.08 -0.07 12072
0.02 0.23 0.35 -0.82 9.83 -0.02 0.09 -0.07 12080
0.02 0.22 0.37 -0.80 9.79 -0.02 0.08 -0.07 12087
0.02 0.23 0.36 -0.79 9.89 -0.02 0.08 -0.06 12094
0.02 0.24 0.40 -0.82 9.93 -0.02 0.07 -0.07 12101
0.03 0.26 0.46 -0.81 9.86 -0.02 0.07 -0.07 12108
0.05 0.23 0.44 -0.82 9.76 -0.01 0.06 -0.07 12115
0.05 0.22 0.40 -0.81 9.77 -0.02 0.05 -0.08 12123
0.05 0.23 0.39 -0.80 9.72 -0.02 0.04 -0.08 12130
0.06 0.23 0.45 -0.82 9.79 -0.02 0.03 -0.09 12137
0.08 0.24 0.41 -0.80 9.81 -0.03 0.03 -0.09 12144
0.09 0.26 0.38 -0.82 9.80 -0.03 0.02 -0.09 12151
0.11 0.26 0.37 -0.75 9.81 -0.03 0.02 -0.09 12158
0.10 0.25 0.37 -0.82 9.85 -0.03 0.02 -0.08 12166
0.09 0.23 0.37 -0.77 9.24 -0.03 0.02 -0.09 12173
0.09 0.25 0.36 -0.78 9.81 -0.03 0.02 -0.08 12180
0.11 0.25 0.37 -0.77 9.83 -0.03 0.02 -0.08 12187
0.12 0.27 0.40 -0.77 9.83 -0.02 0.02 -0.08 12194
0.13 0.27 0.35 -0.79 9.82 -0.02 0.03 -0.09 12201
0.14 0.26 0.36 -0.76 9.83 -0.01 0.03 -0.08 12209
0.13 0.25 0.37 -0.75 9.81 -0.01 0.03 -0.09 12216
0.13 0.25 0.36 -0.77 9.86 -0.00 0.03 -0.09 12223
0.15 0.26 0.36 -0.77 9.83 -0.00 0.03 -0.09 12230
0.18 0.26 0.35 -0.74 9.83 -0.03 0.04 -0.09 12237
0.18 0.25 0.38 -0.76 9.82 0.01 0.04 -0.09 12244
0.17 0.24 0.35 -0.77 9.83 0.01 0.04 -0.09 12252
0.19 0.21 0.37 -0.78 9.82 0.01 0.04 -0.09 12259
0.19 0.20 0.35 -0.77 9.81 0.01 0.04 -0.09 12266
0.19 0.21 0.35 -0.75 9.83 0.01 0.04 -0.10 12273
0.20 0.20 0.35 -0.78 9.80 0.01 0.05 -0.10 12280
0.20 0.18 0.37 -0.80 9.82 0.01 0.04 -0.09 12288
0.20 0.17 0.38 -0.78 9.82 0.01 0.04 -0.09 12295
0.20 0.15 0.40 -0.78 9.81 0.01 0.05 -0.09 12302
0.19 0.16 0.37 -0.75 9.82 0.01 0.05 -0.09 12309
0.22 0.16 0.36 -0.78 9.81 0.01 0.05 -0.09 12316
0.23 0.15 0.36 -0.78 9.80 0.01 0.05 -0.09 12323
0.24 0.15 0.41 -0.88 9.78 0.01 0.05 -0.09 12331
0.25 0.15 0.37 -0.81 9.81 0.01 0.05 -0.09 12338
0.24 0.13 0.36 -0.84 9.80 0.01 0.05 -0.09 12345
0.24 0.15 0.36 -0.79 9.75 0.01 0.05 -0.09 12352
0.25 0.13 0.38 -0.81 9.82 0.01 0.05 -0.09 12359
0.27 0.13 0.36 -0.80 9.81 -0.03 0.05 -0.09 12366
0.26 0.16 0.40 -0.78 9.81 0.00 0.04 -0.09 12374
0.26 0.13 0.38 -0.79 9.80 0.00 0.04 -0.09 12381
0.25 0.13 0.39 -0.79 9.81 0.00 0.05 -0.09 12388
0.27 0.12 0.39 -0.77 10.42 0.00 0.04 -0.09 12395
0.29 0.13 0.41 -0.82 9.82 0.00 0.04 -0.09 12402
0.30 0.13 0.38 -0.80 9.81 0.00 0.05 -0.09 12409
0.29 0.12 0.37 -0.80 9.82 0.01 0.04 -0.09 12417
0.30 0.11 0.39 -0.80 9.79 0.00 0.04 -0.09 12424
0.28 0.11 0.34 -0.81 10.42 0.00 0.05 -0.09 12431
0.29 0.10 0.39 -0.82 9.82 -0.00 0.04 -0.09 12438
0.30 0.12 0.39 -0.77 9.81 0.00 0.04 -0.09 12445
0.30 0.10 0.35 -0.80 9.83 -0.00 0.05 -0.09 12452
0.30 0.11 0.36 -0.80 9.82 0.00 0.05 -0.09 12460
0.29 0.12 0.40 -0.78 9.83 -0.00 0.04 -0.09 12467
0.28 0.07 0.41 -0.81 9.82 0.01 0.05 -0.09 12474
0.29 0.07 0.39 -0.83 9.82 0.00 0.04 -0.09 12481
0.29 0.10 0.41 -0.78 9.77 0.00 0.05 -0.08 12488
0.29 0.08 0.38 -0.81 9.80 -0.03 0.05 -0.09 12495
0.27 0.11 0.33 -0.85 9.81 0.00 0.05 -0.09 12503
0.26 0.10 0.37 -0.86 9.82 0.01 0.05 -0.09 12510
0.27 0.09 0.38 -0.82 9.81 0.00 0.05 -0.09 12517
0.28 0.09 0.40 -0.81 10.42 -0.00 0.05 -0.09 12524
0.28 0.08 0.37 -0.80 9.80 0.00 0.05 -0.09 12531
0.27 0.06 0.37 -0.83 9.80 0.01 0.05 -0.09 12538
0.28 0.04 0.42 -0.83 9.81 0.00 0.05 -0.09 12546
0.26 0.06 0.40 -0.81 9.82 0.01 0.05 -0.08 12553
0.26 0.06 0.40 -0.83 9.81 0.00 0.06 -0.09 12560
0.26 0.07 0.36 -0.82 9.81 0.01 0.06 -0.10 12567
0.28 0.07 0.38 -0.82 9.81 0.01 0.06 -0.09 12574
0.27 0.03 0.41 -0.82 9.81 0.01 0.06 -0.09 12581
0.27 0.01 0.42 -0.81 9.80 0.01 0.06 -0.09 12589
0.26 0.03 0.38 -0.81 9.81 0.01 0.06 -0.09 12596
0.27 0.02 0.38 -0.85 9.83 0.01 0.06 -0.09 12603
0.28 0.03 0.42 -0.83 9.83 0.01 0.06 -0.09 12610
0.29 0.00 0.41 -0.79 9.81 0.01 0.06 -0.09 12617
0.30 -0.01 0.44 -0.85 9.81 0.01 0.06 -0.09 12624
0.28 0.01 0.41 -0.82 9.83 0.01 0.06 -0.09 12632
0.28 0.00 0.41 -0.86 9.81 0.01 0.06 -0.09 12639
0.30 -0.01 0.41 -0.79 9.82 0.01 0.06 -0.09 12646
0.30 -0.01 0.42 -0.82 9.86 0.02 0.06 -0.09 12653
0.29 -0.01 0.43 -0.83 9.88 0.03 0.06 -0.09 12660
0.28 -0.01 0.44 -0.86 9.87 0.05 0.07 -0.10 12667
0.28 -0.02 0.47 -0.82 9.91 0.07 0.08 -0.10 12675
0.28 -0.01 0.40 -0.85 9.92 0.09 0.09 -0.11 12682
0.28 0.01 0.48 -0.83 10.02 0.12 0.10 -0.11 12689
0.29 -0.01 0.50 -0.86 10.12 0.16 0.12 -0.11 12697
0.29 -0.01 0.63 -0.83 10.36 0.22 0.14 -0.13 12704
0.29 -0.01 0.82 -0.89 10.61 0.34 0.19 -0.15 12711
0.28 -0.02 0.86 -1.02 10.95 0.47 0.24 -0.21 12718
0.28 -0.02 0.74 -1.03 11.58 0.72 0.28 -0.23 12726
0.30 -0.01 0.54 -1.05 11.74 1.01 0.25 -0.23 12732
0.31 -0.02 0.51 -1.10 11.41 1.17 0.14 -0.23 12740
0.30 -0.02 0.36 -1.16 11.23 1.22 0.11 -0.22 12747
0.30 -0.03 0.44 -1.23 10.97 1.23 0.05 -0.19 12753
0.24 -0.01 0.25 -1.25 10.73 1.25 0.02 -0.19 12761
0.23 -0.02 0.20 -1.39 10.37 1.27 0.01 -0.16 12768
0.22 -0.01 0.31 -1.56 10.15 1.27 0.01 -0.15 12776
0.22 -0.02 0.30 -1.59 10.19 1.28 0.01 -0.13 12782
0.16 -0.02 0.34 -1.64 9.71 1.28 -0.06 -0.11 12789
0.13 -0.01 0.26 -1.87 9.25 1.28 -0.10 -0.09 12796
0.11 -0.01 0.21 -1.98 9.36 1.28 -0.20 -0.07 12804
0.13 -0.01 0.27 -2.11 9.94 1.22 -0.17 -0.06 12811
0.09 -0.01 0.31 -2.17 9.93 1.20 -0.10 -0.06 12818
0.06 -0.01 0.27 -2.31 10.74 1.22 -0.06 -0.05 12825
0.11 -0.01 0.24 -2.42 10.91 1.30 -0.02 -0.04 12832
0.06 -0.01 0.47 -2.50 10.08 1.35 0.01 -0.04 12839
0.04 -0.00 0.56 -2.59 9.49 1.33 0.01 -0.04 12847
0.04 -0.00 0.51 -2.84 9.64 1.26 0.02 -0.05 12854
0.03 -0.00 0.58 -3.18 9.69 1.20 0.01 -0.05 12861
0.02 -0.00 0.44 -3.13 9.86 1.14 0.00 -0.04 12868
0.02 -0.00 0.42 -3.22 10.33 1.09 0.06 -0.04 12875
0.02 -0.00 -0.18 -3.50 11.68 1.05 0.05 -0.04 12882
0.01 -0.00 0.27 -3.07 10.32 0.99 0.06 -0.04 12890
0.00 0.00 0.20 -2.59 10.30 0.93 0.05 -0.03 12897
0.00 -0.00 0.06 -1.98 10.29 0.89 -0.01 -0.02 12904
0.00 -0.00 -0.02 -1.57 10.22 0.84 -0.09 -0.01 12911
0.00 0.00 -0.03 -1.42 9.81 0.76 -0.17 0.01 12918
0.00 0.00 -0.08 -1.42 9.39 0.66 -0.21 0.02 12925
0.00 0.00 -0.01 -1.55 9.07 0.57 -0.25 0.02 12933
0.00 0.00 0.15 -1.39 9.12 0.50 -0.30 0.02 12940
0.00 0.00 0.39 -2.08 8.67 0.43 -0.29 0.02 12947
0.00 0.00 0.59 -0.75 8.76 0.39 -0.27 0.02 12954
0.00 0.00 0.82 2.00 8.87 0.34 -0.24 -0.03 12961
0.00 0.00 0.99 -0.89 7.97 0.21 -0.20 -0.07 12968
0.00 0.00 0.06 -0.58 9.83 0.18 -0.18 -0.09 12976
0.00 0.00 0.21 0.96 9.24 0.16 -0.10 -0.14 12983
0.00 0.00 0.38 -0.91 8.83 0.13 -0.08 -0.19 12990
0.02 -0.00 0.00 -0.73 9.64 0.04 -0.06 -0.23 12997
0.02 -0.00 0.12 -0.71 9.44 -0.03 -0.04 -0.27 13004
0.00 0.00 0.05 -0.49 9.40 -0.10 -0.04 -0.34 13011
0.00 0.00 0.30 -1.60 8.01 -0.14 -0.06 -0.37 13019
0.00 0.00 0.14 -1.22 8.63 -0.18 -0.02 -0.40 13026
0.02 -0.00 0.18 -1.43 8.57 -0.18 -0.00 -0.41 13033
0.02 -0.00 0.33 -1.54 8.76 -0.15 0.00 -0.39 13040
0.01 -0.00 0.47 -1.50 8.97 -0.15 0.02 -0.36 13047
0.00 0.00 0.65 -1.54 8.92 -0.15 0.03 -0.33 13054
0.00 0.00 0.80 -1.78 9.08 -0.16 0.03 -0.29 13062
0.00 0.00 0.90 -1.96 9.36 -0.19 0.04 -0.23 13069
0.00 0.00 0.76 -2.13 9.31 -0.23 0.03 -0.20 13076
0.00 0.00 0.64 -2.34 9.24 -0.24 0.01 -0.14 13083
0.00 0.00 0.61 -2.36 9.01 -0.24 0.00 -0.10 13090
0.00 0.00 0.51 -2.23 8.86 -0.23 -0.02 -0.04 13097
0.00 0.00 0.44 -2.17 8.69 -0.20 -0.03 0.02 13105
0.00 0.00 0.51 -2.18 8.66 -0.18 -0.05 0.07 13112
0.00 0.00 0.58 -2.39 8.60 -0.15 -0.10 0.11 13119
0.00 0.00 1.11 -2.20 9.66 -0.14 -0.12 0.15 13126
0.00 0.00 2.31 -2.03 8.56 -0.13 -0.14 0.18 13133
0.00 0.00 1.74 -3.02 8.89 -0.19 -0.08 0.19 13140
0.00 0.00 1.24 -3.44 9.51 -0.26 -0.03 0.17 13148
0.00 0.00 1.19 -3.98 9.09 -0.29 -0.01 0.16 13155
0.00 0.00 0.90 -3.77 9.67 -0.26 -0.00 0.15 13162
0.00 0.00 1.00 -4.10 8.68 -0.27 0.01 0.14 13169
0.00 0.00 1.12 -2.51 10.10 -0.31 0.06 0.13 13176
0.00 0.00 0.52 -2.81 9.53 -0.31 0.07 0.12 13184
0.00 0.00 0.96 -3.23 8.07 -0.31 0.09 0.11 13191
0.00 0.00 0.84 -2.76 9.33 -0.33 0.07 0.10 13198
0.00 0.00 1.17 -3.14 9.43 -0.32 0.07 0.09 13205
0.00 0.00 0.13 -3.18 9.40 -0.31 0.03 0.09 13212
0.00 0.00 1.08 -2.99 9.75 -0.31 0.01 0.07 13219
0.00 0.00 0.66 -3.58 9.56 -0.32 0.02 0.07 13227
0.00 0.00 1.28 -3.25 9.42 -0.31 0.05 0.06 13234
0.00 0.00 1.44 -2.77 8.68 -0.29 0.07 0.07 13241
0.00 0.00 1.08 -3.40 8.34 -0.25 0.06 0.08 13248
0.00 0.00 1.26 -2.48 8.86 -0.26 0.08 0.07 13255
0.00 0.00 0.12 -3.51 8.25 -0.21 0.05 0.09 13262
0.00 0.00 0.39 -4.62 8.79 -0.20 0.03 0.09 13270
0.00 0.00 -0.29 -4.28 9.36 -0.22 0.03 0.11 13277
0.00 0.00 0.05 -3.19 11.30 -0.24 0.04 0.11 13284
0.00 0.00 -0.60 -4.15 9.28 -0.32 0.01 0.12 13291
0.00 0.00 0.84 -1.47 9.50 -0.38 0.02 0.14 13298
0.00 0.00 0.21 -2.65 9.94 -0.45 0.04 0.18 13305
0.00 0.00 0.52 -1.79 9.50 -0.49 0.06 0.22 13313
0.00 0.00 1.20 -1.65 9.53 -0.50 0.08 0.28 13320
0.00 0.00 1.10 -1.61 8.90 -0.49 0.08 0.33 13327
0.00 0.00 1.56 -1.53 9.17 -0.47 0.07 0.37 13334
0.00 0.00 1.35 -1.48 9.32 -0.47 0.07 0.41 13341
0.00 0.00 1.32 -1.40 9.21 -0.46 0.06 0.42 13348
0.00 0.00 1.45 -1.39 9.09 -0.44 0.06 0.42 13356
0.00 0.00 1.39 -1.34 9.05 -0.42 0.10 0.40 13363
0.00 0.00 1.28 -1.39 9.21 -0.40 0.08 0.37 13370
0.00 0.00 1.15 -1.40 9.67 -0.40 0.10 0.32 13377
0.00 0.00 0.85 -1.77 9.68 -0.41 0.10 0.26 13384
0.00 0.00 1.11 -1.48 10.05 -0.47 0.11 0.21 13391
0.00 0.00 0.61 -2.11 11.19 -0.52 0.10 0.14 13399
0.00 0.00 0.88 -1.77 10.16 -0.57 0.10 0.08 13406
0.00 0.00 0.76 -2.42 11.25 -0.62 0.15 0.01 13413
0.00 0.00 1.64 -1.77 9.76 -0.60 0.18 -0.03 13420
0.00 0.00 1.68 -1.78 10.06 -0.61 0.23 -0.06 13427
0.00 0.00 1.28 -1.76 9.48 -0.60 0.24 -0.09 13434
0.00 0.00 1.20 -1.86 10.00 -0.59 0.24 -0.10 13442
0.00 0.00 1.24 -1.72 9.74 -0.58 0.23 -0.11 13449
0.00 0.00 1.22 -1.76 9.71 -0.58 0.22 -0.10 13456
0.00 0.00 1.18 -1.71 9.52 -0.57 0.21 -0.09 13463
0.00 0.00 1.16 -1.68 9.65 -0.55 0.21 -0.09 13470
0.00 0.00 1.08 -1.65 9.74 -0.54 0.21 -0.08 13477
0.00 0.00 1.13 -1.50 9.94 -0.53 0.22 -0.06 13485
0.00 0.00 1.11 -1.47 10.47 -0.54 0.24 -0.05 13492
0.00 0.00 1.21 -1.32 10.41 -0.57 0.25 -0.04 13499
0.00 0.00 1.40 -0.81 10.14 -0.61 0.25 -0.03 13506
0.00 0.00 1.34 -1.33 10.30 -0.64 0.26 -0.01 13513
0.00 0.00 1.56 -1.35 9.81 -0.65 0.28 0.02 13520
0.00 0.00 1.47 -1.63 9.84 -0.65 0.32 0.05 13528
0.00 0.00 1.51 -1.37 9.71 -0.63 0.34 0.07 13535
0.00 0.00 1.33 -1.58 9.74 -0.60 0.35 0.10 13542
0.00 0.00 1.16 -1.70 9.59 -0.58 0.36 0.11 13549
0.00 0.00 1.06 -1.66 9.45 -0.55 0.35 0.13 13556
0.00 0.00 0.83 -2.02 9.65 -0.52 0.35 0.14 13563
0.00 -0.00 0.73 -1.88 9.56 -0.50 0.33 0.13 13571
0.00 0.00 0.25 -2.78 9.53 -0.46 0.28 0.13 13578
0.00 0.00 0.34 -1.84 10.57 -0.45 0.19 0.10 13585
0.00 0.00 -0.30 -2.81 10.98 -0.42 0.12 0.08 13592
0.00 0.00 -1.01 -3.02 10.73 -0.45 0.01 0.02 13599
0.00 0.00 -0.03 -1.50 9.66 -0.47 -0.00 -0.01 13606
0.00 0.00 1.14 -1.67 8.36 -0.51 0.14 -0.03 13614
0.00 0.00 0.97 -2.18 10.72 -0.61 0.24 -0.06 13621
0.00 0.00 1.04 -2.22 11.38 -0.65 0.30 -0.06 13628
0.00 0.00 0.63 -2.81 9.30 -0.64 0.36 -0.05 13635
0.00 0.00 0.07 -3.45 10.35 -0.61 0.29 -0.03 13642
0.00 0.00 -0.06 -2.78 8.94 -0.53 0.19 -0.00 13649
0.00 0.00 -0.96 -4.55 10.86 -0.49 -0.12 -0.01 13657
0.00 0.00 -1.72 -4.67 10.08 -0.36 -0.40 -0.02 13664
0.00 0.00 -0.97 -4.30 8.88 -0.22 -0.52 -0.00 13671
0.00 0.00 -0.84 -5.60 7.91 -0.11 -0.55 0.02 13678
0.00 0.00 -0.91 -5.25 8.43 0.03 -0.70 0.01 13685
0.00 0.00 -2.21 -7.00 8.81 0.18 -0.82 -0.02 13692
0.00 0.00 -2.57 -9.09 9.98 0.37 -0.96 -0.04 13700
0.00 0.00 -5.00 -12.24 10.87 0.35 -1.15 -0.14 13707
0.00 0.00 -8.11 -19.76 14.96 0.30 -0.64 -0.22 13714
0.00 0.00 -4.09 -13.58 8.79 0.28 -0.28 -0.29 13721
-0.00 0.00 -2.09 -11.36 7.31 0.07 -0.19 -0.54 13728
0.03 0.01 -3.32 -10.78 7.23 -0.10 0.02 -0.66 13736
0.02 -0.00 -3.00 -5.80 8.44 -0.26 0.31 -0.59 13743
0.01 -0.00 -3.59 -0.78 10.63 -0.35 0.29 -0.21 13750
-0.00 0.00 -0.32 -0.36 10.34 -0.32 0.18 0.10 13757
0.01 -0.00 1.22 -0.20 10.22 -0.25 0.12 0.08 13764
0.01 0.01 0.54 -0.41 9.58 -0.21 0.07 -0.01 13771
0.02 0.01 0.58 -0.69 9.92 -0.22 0.06 -0.03 13778
0.02 0.03 0.22 -0.87 9.94 -0.21 0.04 -0.04 13786
0.01 0.03 0.35 -0.86 9.92 -0.18 0.02 -0.04 13793
0.01 0.03 0.41 -0.87 9.93 -0.14 0.00 -0.05 13800
0.01 0.06 0.29 -0.85 10.06 -0.11 0.01 -0.06 13807
0.01 0.08 0.25 -0.78 10.01 -0.07 0.01 -0.07 13814
0.03 0.09 0.28 -0.84 9.85 -0.05 0.02 -0.07 13821
0.03 0.07 0.33 -0.85 9.90 -0.03 0.04 -0.07 13829
0.03 0.07 0.24 -0.80 9.91 -0.02 0.04 -0.07 13836
0.02 0.07 0.23 -0.81 9.85 -0.01 0.04 -0.07 13843
0.03 0.08 0.26 -0.88 9.75 -0.02 0.05 -0.07 13850
0.03 0.09 0.29 -0.89 9.83 -0.02 0.05 -0.06 13857
0.04 0.09 0.28 -0.83 9.80 -0.02 0.05 -0.06 13864
0.03 0.09 0.35 -0.82 9.81 -0.02 0.04 -0.07 13872
0.04 0.08 0.30 -0.86 9.81 -0.03 0.04 -0.07 13879
0.03 0.08 0.26 -0.82 9.77 -0.03 0.04 -0.07 13886
0.04 0.09 0.27 -0.82 9.72 -0.03 0.03 -0.07 13893
0.06 0.12 0.27 -0.80 9.78 -0.04 0.04 -0.07 13900
0.06 0.13 0.25 -0.80 9.79 -0.04 0.04 -0.07 13907
0.04 0.13 0.31 -0.82 9.73 -0.04 0.04 -0.07 13915
0.05 0.13 0.28 -0.78 9.65 -0.04 0.04 -0.07 13922
0.04 0.13 0.28 -0.80 9.75 -0.04 0.04 -0.06 13929
0.04 0.17 0.27 -0.83 9.81 -0.04 0.04 -0.06 13936
0.06 0.18 0.30 -0.81 9.21 -0.05 0.04 -0.06 13943
0.05 0.18 0.29 -0.78 9.80 -0.05 0.04 -0.06 13950
0.06 0.20 0.32 -0.84 9.91 -0.05 0.04 -0.06 13958
0.07 0.20 0.31 -0.83 9.78 -0.05 0.04 -0.06 13965
0.08 0.21 0.35 -0.84 9.84 -0.04 0.04 -0.06 13972
0.09 0.23 0.32 -0.81 9.88 -0.04 0.04 -0.06 13979
0.11 0.20 0.33 -0.77 9.82 -0.04 0.04 -0.07 13986
0.11 0.21 0.34 -0.80 9.77 -0.04 0.03 -0.08 13993
0.10 0.22 0.29 -0.80 9.84 -0.04 0.03 -0.08 14001
0.10 0.24 0.29 -0.81 9.87 -0.03 0.03 -0.08 14008
0.09 0.23 0.32 -0.76 9.86 -0.04 0.03 -0.07 14015
0.08 0.28 0.29 -0.77 9.80 -0.03 0.03 -0.07 14022
0.11 0.24 0.34 -0.78 9.80 -0.03 0.04 -0.08 14029
0.09 0.29 0.28 -0.77 9.81 -0.02 0.04 -0.07 14036
0.09 0.26 0.30 -0.79 9.82 -0.02 0.04 -0.08 14044
0.08 0.28 0.31 -0.78 9.82 -0.02 0.04 -0.09 14051
0.11 0.29 0.27 -0.76 9.83 -0.01 0.04 -0.09 14058
0.10 0.30 0.29 -0.78 9.82 -0.01 0.04 -0.08 14065
0.12 0.30 0.30 -0.75 9.20 -0.00 0.04 -0.08 14072
0.13 0.31 0.27 -0.78 9.83 0.00 0.04 -0.09 14080
0.14 0.29 0.31 -0.79 9.83 0.00 0.04 -0.09 14087
0.13 0.30 0.28 -0.75 9.82 0.01 0.04 -0.08 14094
0.15 0.29 0.29 -0.78 9.85 0.01 0.04 -0.08 14101
0.17 0.28 0.29 -0.76 9.82 0.02 0.05 -0.08 14108
0.15 0.28 0.31 -0.82 9.82 0.02 0.05 -0.08 14115
0.16 0.26 0.29 -0.78 9.82 0.02 0.04 -0.09 14123
0.19 0.23 0.29 -0.80 9.82 0.01 0.05 -0.09 14130
0.17 0.22 0.28 -0.80 9.80 0.01 0.05 -0.09 14137
0.16 0.22 0.29 -0.77 9.77 0.01 0.05 -0.09 14144
0.17 0.22 0.26 -0.79 9.81 0.01 0.05 -0.09 14151
0.17 0.17 0.29 -0.80 9.79 0.01 0.04 -0.09 14158
0.18 0.15 0.30 -0.80 9.78 0.01 0.05 -0.09 14166
0.20 0.15 0.27 -0.80 9.80 0.01 0.04 -0.09 14173
0.21 0.14 0.27 -0.80 9.81 0.01 0.05 -0.09 14180
0.22 0.13 0.31 -0.82 9.81 0.01 0.04 -0.08 14187
0.23 0.13 0.28 -0.79 9.81 0.01 0.04 -0.08 14194
0.23 0.10 0.30 -0.82 9.82 0.01 0.05 -0.09 14201
0.22 0.08 0.32 -0.82 9.82 0.01 0.04 -0.09 14209
0.25 0.11 0.29 -0.83 9.82 0.01 0.05 -0.09 14216
0.26 0.06 0.30 -0.80 9.79 0.01 0.04 -0.09 14223
0.27 0.06 0.27 -0.85 9.81 0.01 0.05 -0.09 14230
0.31 0.06 0.28 -0.80 9.81 0.02 0.04 -0.09 14237
0.32 0.06 0.30 -0.80 9.81 0.01 0.04 -0.08 14244
0.33 0.04 0.26 -0.86 9.83 0.01 0.05 -0.09 14252
0.32 0.05 0.29 -0.80 9.82 0.01 0.04 -0.08 14259
0.34 0.04 0.31 -0.83 9.80 0.01 0.04 -0.09 14266
0.36 0.02 0.28 -0.85 9.81 0.01 0.05 -0.08 14273
0.37 0.02 0.30 -0.81 9.81 0.01 0.05 -0.09 14280
0.36 0.01 0.31 -0.84 9.81 0.00 0.04 -0.08 14287
0.36 0.00 0.29 -0.85 9.21 0.01 0.04 -0.09 14295
0.37 0.01 0.29 -0.85 9.81 0.01 0.05 -0.09 14302
0.38 -0.00 0.30 -0.84 9.82 0.01 0.05 -0.09 14309
0.40 -0.00 0.28 -0.84 9.81 0.01 0.05 -0.09 14316
0.41 0.00 0.30 -0.84 9.81 0.01 0.06 -0.09 14323
0.39 -0.01 0.30 -0.83 9.80 0.01 0.05 -0.09 14330
0.39 -0.03 0.29 -0.83 9.82 0.02 0.05 -0.09 14338
0.40 -0.02 0.29 -0.85 9.80 0.02 0.06 -0.09 14345
0.41 -0.02 0.35 -0.87 9.82 0.02 0.06 -0.09 14352
0.42 -0.01 0.29 -0.86 9.80 0.02 0.06 -0.09 14359
0.42 -0.00 0.32 -0.86 9.82 0.02 0.06 -0.09 14366
0.42 -0.03 0.29 -0.86 9.80 0.01 0.06 -0.09 14373
0.42 -0.01 0.33 -0.84 9.78 0.02 0.06 -0.09 14381
0.45 -0.01 0.34 -0.86 9.81 0.02 0.05 -0.09 14388
0.47 0.01 0.29 -0.87 9.80 0.02 0.06 -0.09 14395
0.48 -0.00 0.30 -0.85 9.79 0.02 0.06 -0.09 14402
0.48 -0.00 0.29 -0.85 9.84 0.03 0.06 -0.09 14409
0.50 -0.03 0.32 -0.84 9.82 0.04 0.06 -0.09 14416
0.50 -0.02 0.33 -0.88 9.84 0.05 0.07 -0.09 14424
0.51 -0.02 0.34 -0.89 9.83 0.06 0.08 -0.09 14431
0.50 -0.02 0.34 -0.86 9.85 0.07 0.09 -0.10 14438
0.55 -0.02 0.31 -0.91 9.84 0.09 0.10 -0.11 14445
0.55 -0.02 0.31 -0.92 9.83 0.10 0.11 -0.09 14452
0.55 -0.03 0.38 -0.94 9.92 0.12 0.13 -0.10 14459
0.57 -0.02 0.35 -0.93 9.87 0.14 0.14 -0.10 14467
0.61 -0.03 0.37 -0.96 9.89 0.16 0.15 -0.11 14474
0.65 -0.03 0.38 -0.92 9.92 0.19 0.17 -0.11 14481
0.67 -0.03 0.45 -0.97 10.03 0.22 0.19 -0.11 14488
0.66 -0.04 0.47 -0.98 10.17 0.27 0.22 -0.13 14496
0.67 -0.04 0.42 -0.97 10.34 0.38 0.27 -0.13 14503
0.67 -0.03 0.39 -1.01 10.73 0.49 0.30 -0.13 14510
0.67 -0.02 0.49 -1.09 10.91 0.70 0.32 -0.12 14517
0.70 -0.03 0.42 -1.08 11.26 0.92 0.30 -0.12 14524
0.69 -0.03 0.64 -0.67 11.48 1.05 0.25 -0.12 14532
0.69 -0.04 0.74 -1.26 11.46 1.15 0.19 -0.14 14539
0.68 -0.04 0.65 -1.35 11.22 1.20 0.10 -0.16 14546
0.67 -0.03 0.58 -1.48 11.10 1.27 0.02 -0.17 14553
0.64 -0.03 0.50 -1.54 10.94 1.34 -0.01 -0.17 14561
0.63 -0.03 0.46 -1.68 11.21 1.39 -0.04 -0.17 14568
0.60 -0.03 0.50 -1.75 10.77 1.47 -0.06 -0.17 14575
0.55 -0.03 0.26 -1.69 10.62 1.54 -0.11 -0.16 14582
0.49 -0.02 0.23 -1.88 10.57 1.58 -0.14 -0.15 14589
0.47 -0.03 0.22 -2.00 10.27 1.60 -0.13 -0.12 14597
0.44 -0.01 0.11 -2.16 10.44 1.63 -0.13 -0.10 14604
0.42 -0.02 0.13 -2.20 10.10 1.69 -0.12 -0.07 14611
0.35 -0.02 0.25 -2.46 9.92 1.72 -0.10 -0.06 14617
0.32 -0.03 0.22 -2.96 10.18 1.73 -0.09 -0.04 14624
0.25 -0.02 0.14 -2.89 9.71 1.69 -0.11 -0.02 14631
0.17 -0.01 0.56 -2.87 9.47 1.69 -0.03 -0.03 14639
0.15 -0.01 0.03 -3.07 9.56 1.67 -0.02 -0.02 14646
0.14 -0.01 0.31 -3.26 9.45 1.65 0.02 -0.01 14653
0.10 -0.01 0.32 -3.43 9.27 1.62 0.04 -0.01 14660
0.07 -0.01 0.29 -3.54 9.29 1.58 0.08 -0.01 14667
0.03 -0.00 0.27 -3.66 9.59 1.55 0.10 -0.01 14674
0.04 -0.00 0.20 -3.76 9.59 1.52 0.09 -0.00 14682
0.03 -0.00 0.50 -3.99 9.75 1.49 0.07 -0.01 14689
0.05 -0.00 0.65 -4.08 10.02 1.46 0.08 -0.01 14696
0.06 -0.01 0.67 -4.25 10.28 1.44 0.08 -0.03 14703
0.07 -0.01 0.62 -4.32 10.12 1.41 0.12 -0.04 14710
0.06 -0.01 0.63 -4.34 10.03 1.36 0.13 -0.05 14717
0.06 -0.00 0.41 -4.33 10.17 1.28 0.10 -0.05 14725
0.05 -0.01 0.27 -4.19 10.42 1.21 0.07 -0.05 14732
0.05 -0.01 0.16 -4.35 10.55 1.11 0.01 -0.04 14739
0.04 -0.00 -0.01 -4.33 10.64 1.01 -0.13 -0.03 14746
0.04 -0.00 0.01 -4.21 10.63 0.91 -0.28 -0.03 14753
0.03 -0.00 0.24 -4.45 9.97 0.82 -0.43 -0.03 14760
0.02 -0.00 0.63 -4.05 9.78 0.76 -0.52 -0.04 14768
0.02 -0.00 1.14 -4.72 8.90 0.69 -0.55 -0.05 14775
0.01 -0.00 1.63 -3.51 8.29 0.64 -0.56 -0.09 14782
0.01 -0.00 1.98 -3.61 7.40 0.55 -0.51 -0.12 14789
0.01 -0.00 2.49 -3.25 7.25 0.48 -0.42 -0.18 14796
0.01 -0.00 2.42 -3.46 7.62 0.42 -0.35 -0.24 14803
0.01 -0.00 2.01 -2.74 7.80 0.39 -0.27 -0.31 14811
0.02 -0.00 2.03 -1.11 8.23 0.37 -0.20 -0.37 14818
0.01 -0.00 1.79 -0.42 8.47 0.32 -0.16 -0.41 14825
0.00 0.00 1.32 -0.42 8.57 0.27 -0.15 -0.41 14832
0.00 0.00 1.72 2.00 8.58 0.27 -0.17 -0.42 14839
0.00 0.00 1.17 1.77 7.91 0.23 -0.20 -0.46 14846
0.00 0.00 0.96 1.14 8.42 0.16 -0.27 -0.46 14854
0.01 -0.00 1.43 3.47 8.79 0.09 -0.25 -0.41 14861
0.00 0.00 1.14 1.32 7.75 -0.03 -0.15 -0.38 14868
0.00 0.00 1.87 2.49 7.91 -0.10 -0.13 -0.35 14875
0.00 0.00 2.02 1.67 7.94 -0.29 -0.07 -0.32 14882
0.00 0.00 1.40 -0.11 8.88 -0.42 0.00 -0.32 14889
0.00 0.00 1.36 1.30 9.43 -0.56 0.07 -0.30 14897
0.00 0.00 1.69 0.94 9.42 -0.70 0.19 -0.29 14904
0.00 0.00 1.58 -0.14 9.24 -0.81 0.31 -0.26 14911
0.00 0.00 1.02 -1.86 8.52 -0.90 0.35 -0.24 14918
0.00 0.00 1.05 -0.57 10.25 -0.95 0.34 -0.22 14925
0.00 0.00 1.03 -0.80 9.05 -0.98 0.31 -0.18 14932
0.00 0.00 0.86 -1.61 8.51 -0.97 0.28 -0.14 14940
0.00 0.00 0.72 -1.83 9.04 -0.98 0.24 -0.07 14947
0.00 0.00 0.65 -2.13 9.69 -0.96 0.19 -0.03 14954
0.00 0.00 0.62 -2.39 9.10 -0.93 0.12 0.02 14961
0.00 0.00 0.73 -2.59 9.20 -0.89 0.03 0.05 14968
0.00 0.00 0.80 -3.02 9.38 -0.84 0.03 0.08 14976
0.00 -0.00 0.76 -3.12 9.67 -0.82 0.04 0.10 14983
0.00 0.00 0.85 -3.06 10.70 -0.79 0.08 0.11 14990
0.00 0.00 0.66 -3.28 9.32 -0.80 0.14 0.11 14997
0.00 0.00 0.52 -3.53 10.04 -0.78 0.21 0.10 15004
0.00 0.00 -0.23 -3.15 10.71 -0.82 0.25 0.08 15011
0.00 0.00 -0.65 -3.79 8.74 -0.82 0.25 0.06 15019
0.00 0.00 -0.07 -4.09 9.31 -0.79 0.23 0.05 15026
0.00 0.00 -0.62 -3.18 9.38 -0.71 0.17 0.04 15033
0.00 0.00 -1.23 -4.52 9.58 -0.67 0.13 -0.00 15040
0.00 0.00 -0.73 -4.41 8.85 -0.68 0.11 -0.03 15047
0.00 0.00 -1.29 -4.10 10.07 -0.66 0.10 -0.04 15054
0.00 0.00 1.19 -3.30 9.22 -0.64 0.12 -0.07 15062
0.00 0.00 -1.35 -5.89 10.03 -0.68 0.09 -0.09 15069
0.00 0.00 -0.57 -6.09 12.01 -0.71 0.07 -0.10 15076
0.00 0.00 0.61 -4.21 9.07 -0.71 0.07 -0.11 15083
0.00 0.00 0.45 -5.01 11.44 -0.66 0.06 -0.13 15090
0.00 0.00 0.89 -4.52 8.84 -0.67 0.07 -0.11 15097
0.00 0.00 1.93 -3.12 10.58 -0.60 0.14 -0.10 15105
0.00 0.00 1.22 -3.98 6.29 -0.57 0.13 -0.09 15112
0.00 0.00 0.36 -5.98 8.40 -0.63 0.17 -0.06 15119
0.00 0.00 0.49 -5.28 9.83 -0.57 0.15 -0.03 15126
0.00 0.00 0.21 -2.82 10.87 -0.59 0.16 0.01 15133
0.00 0.00 -0.53 -4.52 7.74 -0.65 0.20 0.06 15140
0.00 0.00 0.69 -3.02 9.49 -0.68 0.23 0.14 15148
0.00 0.00 0.13 -3.15 9.65 -0.66 0.22 0.24 15155
0.00 0.00 -0.10 -3.40 10.14 -0.63 0.20 0.32 15162
0.00 0.00 0.37 -3.01 10.32 -0.63 0.16 0.41 15169
0.00 0.00 -0.10 -2.89 8.86 -0.63 0.14 0.47 15176
0.00 0.00 0.71 -1.86 9.09 -0.66 0.13 0.53 15183
0.00 0.00 0.56 -1.89 9.13 -0.69 0.13 0.57 15191
0.00 0.00 0.49 -1.60 9.54 -0.71 0.13 0.61 15198
0.00 0.00 0.52 -1.78 9.49 -0.72 0.14 0.64 15205
0.00 0.00 0.69 -1.35 10.00 -0.74 0.16 0.63 15212
0.00 0.00 0.57 -2.14 10.63 -0.80 0.16 0.63 15219
0.00 0.00 0.99 -1.55 10.20 -0.86 0.18 0.62 15226
0.00 0.00 0.89 -1.92 10.40 -0.93 0.19 0.61 15234
0.00 0.00 0.82 -2.25 10.27 -0.99 0.19 0.60 15241
0.00 0.00 0.79 -2.39 10.24 -1.04 0.19 0.59 15248
0.00 0.00 0.74 -2.67 10.09 -1.07 0.17 0.59 15255
0.00 0.00 0.78 -2.82 9.83 -1.06 0.15 0.59 15262
0.00 0.00 0.85 -2.91 9.63 -1.02 0.13 0.59 15269
0.00 0.00 0.99 -2.79 9.52 -0.98 0.12 0.58 15277
0.00 0.00 1.13 -2.63 9.55 -0.94 0.12 0.58 15284
0.00 0.00 1.32 -2.51 9.52 -0.89 0.12 0.56 15291
0.00 0.00 1.50 -2.35 9.53 -0.86 0.15 0.54 15298
0.00 0.00 1.44 -2.43 9.47 -0.82 0.18 0.51 15305
0.00 0.00 1.40 -2.69 9.55 -0.79 0.20 0.47 15312
0.00 0.00 0.63 -2.91 9.78 -0.75 0.20 0.43 15320
0.00 0.00 1.07 -3.12 10.03 -0.71 0.18 0.41 15327
0.00 0.00 1.11 -3.34 10.40 -0.69 0.13 0.37 15334
0.00 0.00 1.25 -3.43 10.57 -0.69 0.08 0.35 15341
0.00 0.00 1.54 -3.45 10.58 -0.70 0.07 0.31 15348
0.00 0.00 1.87 -3.54 10.23 -0.72 0.11 0.27 15355
0.00 0.00 1.97 -3.51 9.88 -0.74 0.18 0.24 15363
0.00 0.00 1.98 -3.40 9.64 -0.73 0.27 0.21 15370
0.00 0.00 1.86 -3.30 9.31 -0.68 0.34 0.17 15377
0.00 0.00 1.67 -2.92 9.22 -0.61 0.42 0.14 15384
0.00 0.00 1.30 -2.58 9.21 -0.55 0.48 0.12 15391
0.00 0.00 0.34 -3.25 10.43 -0.47 0.47 0.11 15398
0.00 0.00 -2.64 -5.54 10.74 -0.24 0.02 0.06 15406
0.00 0.00 -1.62 -2.88 9.23 -0.03 -0.28 0.02 15413
0.00 0.00 -0.26 -2.78 6.90 0.03 -0.43 0.01 15420
0.00 0.00 -0.09 -4.71 9.15 -0.01 -0.54 -0.05 15427
0.00 0.00 -0.12 -5.66 10.95 -0.02 -0.60 -0.15 15434
0.00 0.00 1.01 -4.74 10.58 0.02 -0.42 -0.25 15441
0.00 0.00 0.81 -4.82 9.18 0.02 -0.15 -0.30 15449
0.00 0.00 1.19 -5.11 8.90 -0.04 0.09 -0.33 15456
0.00 0.00 0.29 -6.39 10.63 0.00 0.12 -0.34 15463
0.00 0.00 -1.29 -6.20 8.02 0.04 0.09 -0.33 15470
0.00 0.00 -1.13 -6.27 7.92 0.13 0.00 -0.25 15477
0.00 0.00 -2.86 -8.84 9.62 0.26 -0.15 -0.14 15484
0.00 0.00 -3.17 -9.35 8.94 0.30 -0.36 -0.07 15492
0.00 0.00 -6.84 -14.04 11.51 0.28 -0.75 -0.07 15499
-0.00 0.00 -8.12 -16.06 8.95 0.20 -0.79 -0.10 15506
-0.00 0.00 -8.31 -17.07 8.64 0.07 -0.18 -0.07 15513
0.00 0.01 -3.44 -8.51 9.20 -0.08 -0.05 -0.13 15520
0.03 0.01 -0.63 -2.35 9.11 -0.16 0.08 -0.09 15527
-0.00 0.02 0.19 -1.61 9.45 -0.23 0.14 -0.05 15535
-0.00 0.01 0.86 -0.63 9.81 -0.23 0.13 0.00 15542
-0.00 0.03 0.31 -0.45 9.52 -0.22 0.09 0.01 15549
-0.00 0.04 0.34 -0.46 9.62 -0.19 0.09 -0.00 15556
0.02 0.03 0.51 -0.86 10.12 -0.16 0.07 -0.03 15563
0.00 0.10 0.39 -1.08 10.10 -0.12 0.06 -0.05 15570
0.01 0.06 0.42 -0.99 9.97 -0.09 0.05 -0.04 15578
0.01 0.07 0.34 -0.94 10.07 -0.06 0.06 -0.05 15585
0.02 0.10 0.34 -0.94 9.88 -0.04 0.07 -0.04 15592
0.02 0.11 0.30 -0.99 9.82 -0.03 0.07 -0.04 15599
0.05 0.10 0.33 -0.97 9.88 -0.03 0.07 -0.03 15606
0.05 0.13 0.35 -0.96 9.84 -0.03 0.07 -0.03 15613
0.06 0.15 0.37 -0.97 9.75 -0.04 0.07 -0.03 15621
0.06 0.14 0.40 -0.98 9.81 -0.05 0.06 -0.03 15628
0.07 0.15 0.39 -0.87 9.83 -0.06 0.06 -0.03 15635
0.08 0.14 0.38 -0.93 9.85 -0.06 0.06 -0.03 15642
0.09 0.16 0.43 -0.88 9.87 -0.06 0.05 -0.04 15649
0.09 0.21 0.40 -0.88 9.79 -0.05 0.05 -0.03 15656
0.09 0.25 0.43 -0.90 9.77 -0.05 0.05 -0.04 15664
0.08 0.21 0.43 -0.90 9.86 -0.05 0.05 -0.04 15671
0.08 0.24 0.40 -0.90 9.83 -0.04 0.04 -0.05 15678
0.10 0.25 0.41 -0.85 9.87 -0.03 0.04 -0.05 15685
0.11 0.24 0.40 -0.91 9.85 -0.03 0.05 -0.05 15692
0.10 0.21 0.43 -0.91 9.81 -0.02 0.04 -0.05 15699
0.10 0.22 0.43 -0.88 9.81 -0.01 0.04 -0.06 15707
0.10 0.24 0.40 -0.90 9.82 -0.01 0.04 -0.06 15714
0.12 0.26 0.38 -0.89 9.73 -0.01 0.04 -0.06 15721
0.12 0.28 0.40 -0.90 9.82 -0.01 0.04 -0.06 15728
0.12 0.27 0.38 -0.89 9.83 -0.01 0.04 -0.06 15735
0.12 0.24 0.39 -0.87 9.82 -0.00 0.03 -0.06 15742
0.13 0.22 0.39 -0.91 9.83 0.00 0.04 -0.06 15750
0.11 0.24 0.40 -0.89 9.81 0.01 0.04 -0.07 15757
0.13 0.23 0.37 -0.91 9.83 0.01 0.03 -0.07 15764
0.14 0.24 0.40 -0.89 9.81 0.01 0.03 -0.07 15771
0.13 0.23 0.39 -0.90 9.81 0.01 0.04 -0.07 15778
0.13 0.22 0.37 -0.87 9.81 0.02 0.04 -0.07 15785
0.14 0.21 0.40 -0.89 9.79 0.02 0.04 -0.07 15793
0.15 0.19 0.39 -0.88 9.81 0.02 0.04 -0.07 15800
0.18 0.19 0.38 -0.90 9.81 0.02 0.03 -0.07 15807
0.20 0.18 0.42 -0.91 9.81 0.02 0.04 -0.08 15814
0.20 0.17 0.38 -0.91 9.82 0.02 0.04 -0.08 15821
0.21 0.16 0.40 -0.91 9.81 0.02 0.03 -0.08 15828
0.21 0.12 0.38 -0.91 9.77 0.02 0.04 -0.08 15836
0.24 0.09 0.38 -0.91 9.80 0.02 0.03 -0.08 15843
0.25 0.11 0.44 -0.93 9.78 0.01 0.03 -0.08 15850
0.27 0.07 0.40 -0.96 9.79 0.01 0.03 -0.08 15857
0.29 0.08 0.35 -0.92 9.77 0.01 0.03 -0.08 15864
0.30 0.08 0.38 -0.93 9.79 0.01 0.03 -0.08 15872
0.32 0.07 0.40 -0.95 9.80 0.01 0.03 -0.08 15879
0.33 0.04 0.39 -0.91 9.77 0.01 0.03 -0.08 15886
0.34 0.06 0.41 -0.93 9.78 0.02 0.03 -0.08 15893
0.37 0.07 0.36 -0.95 9.78 0.02 0.03 -0.08 15900
0.36 0.03 0.41 -0.94 9.77 0.02 0.03 -0.08 15907
0.35 0.01 0.36 -0.96 9.80 0.01 0.03 -0.08 15915
0.34 0.01 0.33 -0.92 9.80 0.01 0.03 -0.08 15922
0.36 0.01 0.38 -0.91 9.81 0.02 0.04 -0.08 15929
0.37 0.02 0.38 -0.92 9.20 0.02 0.03 -0.08 15936
0.41 0.01 0.37 -0.97 9.81 0.02 0.04 -0.07 15943
0.42 0.00 0.36 -0.94 9.81 0.02 0.04 -0.08 15950
0.43 -0.01 0.40 -0.96 9.82 0.02 0.04 -0.08 15958
0.44 -0.02 0.37 -0.98 9.81 0.02 0.04 -0.08 15965
0.45 -0.00 0.36 -0.96 9.81 0.02 0.04 -0.08 15972
0.48 -0.02 0.38 -0.96 9.81 0.02 0.05 -0.08 15979
0.47 -0.02 0.39 -0.94 9.80 0.03 0.05 -0.08 15986
0.50 -0.03 0.39 -0.94 9.78 0.03 0.05 -0.08 15993
0.52 -0.02 0.37 -0.95 9.82 0.03 0.05 -0.07 16001
0.49 -0.01 0.40 -0.94 9.81 0.04 0.05 -0.08 16008
0.50 -0.00 0.41 -0.94 9.81 0.04 0.05 -0.08 16015
0.52 -0.01 0.40 -1.00 9.91 0.04 0.05 -0.08 16022
0.53 -0.02 0.40 -0.99 9.21 0.05 0.06 -0.08 16029
0.55 -0.03 0.40 -0.98 9.82 0.06 0.06 -0.08 16036
0.57 -0.03 0.40 -0.99 9.80 0.06 0.06 -0.07 16044
0.59 -0.03 0.41 -0.99 9.81 0.07 0.06 -0.08 16051
0.60 -0.02 0.39 -1.03 9.81 0.08 0.07 -0.08 16058
0.65 -0.03 0.39 -1.04 10.41 0.08 0.07 -0.08 16065
0.69 -0.03 0.44 -1.05 9.82 0.09 0.07 -0.08 16072
0.70 -0.04 0.47 -1.02 9.83 0.10 0.07 -0.09 16079
0.73 -0.02 0.50 -1.07 9.87 0.11 0.08 -0.09 16087
0.74 -0.03 0.46 -1.04 9.83 0.12 0.08 -0.10 16094
0.76 -0.03 0.39 -1.06 9.87 0.14 0.09 -0.10 16101
0.76 -0.04 0.39 -1.11 9.87 0.16 0.10 -0.11 16108
0.78 -0.04 0.45 -1.11 9.89 0.18 0.10 -0.11 16115
0.78 -0.04 0.50 -1.13 9.97 0.22 0.12 -0.11 16122
0.78 -0.04 0.49 -1.15 9.97 0.25 0.14 -0.12 16130
0.80 -0.03 0.57 -1.81 10.01 0.31 0.15 -0.13 16138
0.81 -0.03 0.50 -1.25 9.95 0.36 0.17 -0.14 16144
0.83 -0.03 0.53 -1.20 10.04 0.41 0.18 -0.14 16152
0.85 -0.04 0.54 -1.27 10.12 0.45 0.19 -0.14 16159
0.86 -0.04 0.49 -1.34 10.07 0.53 0.20 -0.14 16165
0.83 -0.03 0.50 -1.39 10.18 0.55 0.20 -0.13 16174
0.85 -0.03 0.52 -1.37 10.36 0.61 0.20 -0.13 16181
0.84 -0.03 0.55 -1.39 10.84 0.67 0.21 -0.13 16188
0.83 -0.04 0.63 -1.50 10.92 0.76 0.21 -0.12 16195
0.80 -0.04 0.65 -1.43 10.19 0.85 0.20 -0.13 16201
0.76 -0.04 0.66 -1.62 10.92 0.92 0.15 -0.13 16209
0.73 -0.03 0.62 -1.67 10.73 0.99 0.08 -0.14 16217
0.69 -0.03 0.75 -1.81 10.75 1.06 0.03 -0.15 16224
0.67 -0.03 0.68 -1.85 10.89 1.14 -0.04 -0.16 16231
0.62 -0.03 0.67 -1.99 10.97 1.20 -0.09 -0.19 16238
0.58 -0.04 1.21 -2.10 10.66 1.28 -0.15 -0.19 16245
0.54 -0.02 0.48 -2.09 10.53 1.33 -0.21 -0.19 16252
0.51 -0.02 0.47 -2.19 10.25 1.35 -0.24 -0.19 16260
0.48 -0.01 0.36 -2.21 10.48 1.39 -0.24 -0.18 16267
0.45 -0.03 0.01 -2.44 10.74 1.43 -0.29 -0.16 16274
0.40 -0.02 0.29 -2.50 10.31 1.47 -0.26 -0.14 16281
0.39 -0.03 0.25 -2.70 10.39 1.54 -0.23 -0.13 16288
0.33 -0.01 0.25 -2.78 10.15 1.63 -0.21 -0.11 16295
0.26 -0.02 0.24 -2.83 9.93 1.65 -0.18 -0.09 16302
0.22 -0.01 0.25 -3.04 9.83 1.67 -0.15 -0.08 16309
0.22 -0.02 0.43 -3.16 9.91 1.69 -0.12 -0.08 16316
0.14 -0.01 -0.35 -3.04 10.90 1.70 -0.14 -0.08 16323
0.12 -0.01 0.56 -3.57 10.44 1.74 -0.03 -0.08 16330
0.06 -0.01 0.43 -4.28 9.69 1.76 -0.00 -0.10 16337
0.05 -0.01 0.43 -3.82 9.57 1.71 0.04 -0.10 16345
0.07 -0.01 0.61 -4.15 9.79 1.66 0.10 -0.11 16352
0.08 -0.01 0.81 -4.26 9.61 1.59 0.15 -0.12 16359
0.06 -0.01 0.85 -4.45 9.62 1.50 0.20 -0.14 16366
0.04 -0.00 0.96 -4.53 9.54 1.42 0.23 -0.16 16373
0.03 -0.00 1.09 -4.47 9.54 1.35 0.28 -0.17 16380
0.04 0.00 1.18 -4.62 9.77 1.28 0.31 -0.20 16388
0.06 -0.01 1.21 -4.51 10.07 1.19 0.32 -0.22 16395
0.03 -0.00 1.18 -4.37 11.04 1.10 0.33 -0.25 16402
0.03 -0.00 1.18 -4.10 11.54 1.02 0.32 -0.26 16409
0.02 -0.00 0.87 -4.03 11.71 0.89 0.31 -0.28 16416
0.02 -0.00 0.52 -3.93 10.86 0.75 0.25 -0.30 16423
0.00 -0.00 0.16 -3.97 9.61 0.69 0.18 -0.30 16431
0.02 -0.00 -0.17 -3.60 8.17 0.63 0.08 -0.29 16438
0.02 -0.00 0.15 -1.53 6.71 0.57 -0.05 -0.29 16445
0.01 -0.00 0.72 -2.40 6.57 0.47 -0.14 -0.31 16452
0.00 -0.00 0.76 -1.32 6.72 0.35 -0.26 -0.35 16459
0.00 0.00 0.99 -0.62 7.32 0.29 -0.32 -0.39 16466
0.01 -0.00 1.29 1.42 8.64 0.19 -0.33 -0.45 16474
0.01 -0.00 1.72 1.37 8.51 0.06 -0.29 -0.50 16481
0.00 -0.00 1.84 0.81 8.49 -0.03 -0.25 -0.50 16488
0.00 0.00 1.66 0.90 8.27 -0.05 -0.19 -0.52 16495
0.00 0.00 1.75 -0.50 8.57 -0.08 -0.14 -0.54 16502
0.00 0.00 1.63 1.43 8.68 -0.10 -0.10 -0.54 16509
0.00 0.00 1.82 0.61 8.21 -0.18 -0.02 -0.54 16517
0.00 0.00 1.71 0.35 8.52 -0.23 0.05 -0.52 16524
0.00 0.00 1.58 -0.75 8.30 -0.28 0.13 -0.48 16531
0.00 0.00 1.50 -0.32 8.97 -0.31 0.19 -0.43 16538
0.00 0.00 1.44 -0.38 8.91 -0.34 0.25 -0.39 16545
0.00 0.00 1.43 -0.71 8.95 -0.34 0.28 -0.33 16552
0.00 0.00 1.39 -1.35 9.19 -0.36 0.30 -0.28 16560
0.00 0.00 1.13 -2.40 8.90 -0.40 0.32 -0.23 16567
0.00 0.00 1.05 -1.23 10.51 -0.45 0.36 -0.19 16574
0.00 0.00 1.45 -2.03 8.82 -0.51 0.33 -0.16 16581
0.00 0.00 0.05 -3.08 9.58 -0.56 0.33 -0.16 16588
0.00 0.00 0.33 -2.73 8.51 -0.61 0.31 -0.12 16595
0.00 0.00 -0.45 -2.85 9.24 -0.59 0.30 -0.12 16603
0.00 0.00 -0.13 -2.98 9.04 -0.63 0.21 -0.11 16610
0.00 0.00 -0.90 -3.61 8.47 -0.56 0.17 -0.11 16617
0.00 0.00 -0.44 -4.94 7.27 -0.52 0.11 -0.12 16624
0.00 0.00 -0.07 -2.89 9.94 -0.49 0.04 -0.17 16631
0.00 0.00 -0.79 -5.83 7.64 -0.46 -0.02 -0.20 16638
0.00 0.00 -0.16 -2.02 8.15 -0.44 -0.07 -0.26 16646
0.00 0.00 0.29 -6.12 6.28 -0.46 -0.03 -0.30 16653
0.00 0.00 0.22 -9.48 6.50 -0.42 -0.06 -0.32 16660
0.00 0.00 -0.94 -4.34 7.53 -0.48 0.01 -0.37 16667
0.00 0.00 0.35 -6.67 8.22 -0.51 -0.02 -0.36 16674
0.00 0.00 0.37 -5.60 11.13 -0.51 0.01 -0.33 16681
0.00 0.00 0.51 -4.30 8.03 -0.52 0.00 -0.34 16689
0.00 0.00 1.37 -4.38 7.96 -0.51 -0.06 -0.30 16696
0.00 0.00 -0.47 -7.06 8.92 -0.53 0.00 -0.26 16703
0.00 0.00 -0.91 -4.10 10.22 -0.46 -0.00 -0.23 16710
0.00 0.00 -1.11 -7.14 7.02 -0.43 -0.04 -0.21 16717
0.00 0.00 -0.57 -3.62 10.63 -0.41 -0.05 -0.20 16724
0.00 -0.00 -1.03 -4.05 7.62 -0.33 -0.10 -0.18 16732
0.00 0.00 -1.21 -7.67 7.06 -0.34 -0.09 -0.12 16739
0.00 0.00 -0.41 -3.38 10.85 -0.30 -0.02 -0.10 16746
0.00 0.00 0.71 -4.46 8.74 -0.23 -0.05 -0.09 16753
0.00 0.00 -1.28 -3.81 9.16 -0.29 -0.02 -0.08 16760
0.00 0.00 -1.64 -5.65 11.40 -0.36 0.02 -0.02 16768
0.00 0.00 -0.74 -4.92 8.98 -0.33 0.06 0.02 16775
0.00 0.00 0.10 -2.04 10.76 -0.40 0.01 0.11 16782
0.00 0.00 -0.85 -1.42 10.94 -0.41 0.02 0.18 16789
0.00 0.00 -0.43 -3.02 8.14 -0.44 -0.05 0.24 16796
0.00 0.00 1.08 -1.48 9.34 -0.49 -0.04 0.27 16803
0.00 0.00 0.11 -0.90 9.78 -0.52 0.01 0.30 16811
0.00 0.00 1.03 -0.01 8.91 -0.54 0.01 0.31 16818
0.00 0.00 0.94 -0.90 7.29 -0.62 0.01 0.35 16825
0.00 0.00 1.81 -1.13 9.08 -0.64 0.07 0.36 16832
0.00 0.00 1.86 -0.17 8.73 -0.67 0.08 0.37 16839
0.00 0.00 1.05 0.04 9.06 -0.76 0.12 0.40 16846
0.00 0.00 1.57 0.32 9.71 -0.77 0.17 0.41 16854
0.00 0.00 1.14 -0.56 7.83 -0.84 0.20 0.46 16861
0.00 0.00 1.36 0.01 9.13 -0.87 0.25 0.51 16868
0.00 0.00 0.70 -0.90 9.68 -0.89 0.27 0.56 16875
0.00 0.00 1.38 -0.57 9.58 -0.91 0.27 0.62 16882
0.00 0.00 1.06 -0.80 9.95 -0.93 0.26 0.68 16889
0.00 0.00 1.11 -0.99 9.82 -0.94 0.27 0.71 16897
0.00 0.00 1.25 -1.25 9.90 -0.94 0.26 0.74 16904
0.00 0.00 1.38 -1.10 10.42 -0.94 0.25 0.74 16911
0.00 0.00 1.32 -1.44 9.98 -0.94 0.26 0.72 16918
0.00 0.00 1.24 -1.61 9.94 -0.93 0.27 0.69 16925
0.00 0.00 1.20 -1.88 10.11 -0.92 0.30 0.65 16932
0.00 0.00 1.25 -1.86 10.16 -0.91 0.35 0.59 16940
0.00 0.00 1.09 -2.05 10.29 -0.92 0.38 0.54 16947
0.00 0.00 0.80 -2.10 10.56 -0.93 0.40 0.48 16954
0.00 0.00 0.80 -1.97 10.99 -0.95 0.39 0.41 16961
0.00 0.00 0.79 -2.32 10.34 -0.97 0.37 0.36 16968
0.00 0.00 0.90 -1.88 10.81 -1.00 0.36 0.31 16975
0.00 0.00 1.13 -2.07 10.03 -1.01 0.38 0.26 16983
0.00 0.00 1.05 -2.11 10.11 -1.01 0.39 0.21 16990
0.00 0.00 1.14 -2.17 10.23 -1.00 0.42 0.17 16997
0.00 0.00 1.03 -2.45 10.98 -0.97 0.43 0.14 17004
0.00 0.00 1.07 -2.45 9.80 -0.94 0.43 0.11 17011
0.00 0.00 1.20 -2.74 9.97 -0.90 0.42 0.08 17018
0.00 0.00 0.96 -3.09 10.18 -0.86 0.39 0.05 17026
0.00 0.00 0.37 -3.25 10.21 -0.83 0.35 -0.00 17033
0.00 0.00 0.70 -3.23 10.25 -0.78 0.35 -0.04 17040
0.00 0.00 0.21 -3.60 10.62 -0.77 0.28 -0.11 17047
0.00 0.00 -0.06 -4.16 10.48 -0.74 0.23 -0.19 17054
0.00 0.00 0.30 -3.36 10.23 -0.73 0.26 -0.21 17061
0.00 0.00 0.96 -3.86 10.16 -0.74 0.33 -0.23 17069
0.00 0.00 0.48 -4.40 11.55 -0.74 0.31 -0.27 17076
0.00 0.00 0.61 -3.76 11.18 -0.72 0.31 -0.26 17083
0.00 0.00 1.21 -3.23 9.19 -0.69 0.35 -0.22 17090
0.00 0.00 0.95 -3.11 9.56 -0.68 0.33 -0.20 17097
0.00 0.00 0.67 -3.56 9.98 -0.60 0.26 -0.17 17104
0.00 0.00 0.35 -3.83 10.46 -0.53 0.08 -0.16 17112
0.00 0.00 0.33 -3.45 9.63 -0.42 -0.01 -0.15 17119
0.00 0.00 0.74 -3.25 8.40 -0.36 -0.03 -0.13 17126
0.00 0.00 0.87 -3.66 8.80 -0.34 -0.05 -0.14 17133
0.00 0.00 0.11 -4.29 8.67 -0.32 -0.04 -0.18 17140
0.00 0.00 0.38 -5.02 10.13 -0.28 -0.11 -0.24 17147
0.00 0.00 -0.04 -2.87 7.93 -0.24 -0.10 -0.29 17155
0.00 0.00 0.05 -2.49 9.23 -0.22 -0.14 -0.32 17162
0.00 0.00 -0.69 -4.12 9.49 -0.23 -0.13 -0.34 17169
0.00 0.00 -1.30 -5.26 9.78 -0.20 -0.19 -0.39 17176
0.00 0.00 -0.64 -6.09 9.24 -0.15 -0.22 -0.43 17183
0.00 0.00 -1.57 -6.44 8.82 -0.06 -0.26 -0.45 17190
0.00 0.00 -2.22 -7.69 7.85 -0.00 -0.37 -0.49 17198
0.00 0.00 -2.61 -8.53 7.70 0.13 -0.52 -0.52 17205
0.00 0.00 -3.17 -10.81 7.40 0.37 -0.64 -0.54 17212
-0.00 0.00 -3.43 -15.46 6.44 0.57 -0.81 -0.52 17219
-0.00 0.03 -6.05 -23.36 10.69 0.64 -1.51 -0.62 17227
-0.00 0.02 -1.84 -16.66 14.66 0.34 -1.35 -0.44 17234
-0.00 0.03 -1.08 -4.27 9.22 -0.06 -0.22 0.04 17241
-0.00 0.02 0.52 -2.84 9.84 -0.20 -0.02 0.03 17248
-0.00 0.03 0.09 -1.20 9.51 -0.25 -0.02 0.05 17255
-0.00 0.09 0.40 -0.64 9.83 -0.20 -0.05 0.04 17262
0.01 0.12 0.64 -0.26 10.01 -0.20 -0.05 -0.00 17269
0.00 0.15 0.63 -0.72 10.15 -0.18 -0.05 -0.04 17276
0.03 0.15 0.53 -0.82 9.88 -0.14 -0.02 -0.05 17284
0.01 0.20 0.29 -0.98 10.09 -0.11 0.00 -0.05 17291
0.01 0.22 0.18 -0.99 9.88 -0.09 0.03 -0.06 17298
0.03 0.23 0.25 -0.93 9.82 -0.08 0.04 -0.05 17305
0.03 0.25 0.28 -0.87 9.83 -0.08 0.06 -0.04 17312
0.03 0.25 0.36 -0.87 9.90 -0.07 0.06 -0.04 17319
0.02 0.31 0.31 -0.91 9.83 -0.06 0.06 -0.04 17327
0.01 0.30 0.45 -0.87 9.89 -0.05 0.07 -0.04 17334
0.03 0.32 0.46 -0.93 9.98 -0.04 0.07 -0.05 17341
0.03 0.33 0.41 -0.87 9.90 -0.03 0.07 -0.05 17348
0.02 0.33 0.36 -0.90 9.94 -0.03 0.07 -0.05 17355
0.04 0.33 0.47 -0.85 9.75 -0.02 0.06 -0.06 17362
0.03 0.31 0.44 -0.89 9.79 -0.02 0.06 -0.06 17370
0.04 0.33 0.41 -0.89 9.81 -0.01 0.06 -0.07 17377
0.04 0.32 0.41 -0.87 9.82 -0.01 0.05 -0.06 17384
0.06 0.32 0.39 -0.90 9.82 -0.01 0.06 -0.03 17391
0.07 0.33 0.32 -0.86 9.82 -0.00 0.06 -0.06 17398
0.06 0.32 0.34 -0.89 9.81 -0.00 0.06 -0.06 17405
0.08 0.30 0.37 -0.89 9.82 -0.00 0.06 -0.06 17413
0.06 0.30 0.40 -0.88 9.80 0.03 0.06 -0.06 17420
0.08 0.31 0.41 -0.87 9.80 0.01 0.06 -0.06 17427
0.08 0.32 0.41 -0.87 9.72 0.01 0.06 -0.07 17434
0.07 0.30 0.40 -0.87 9.82 0.01 0.06 -0.07 17441
0.07 0.30 0.42 -0.88 9.77 0.00 0.06 -0.07 17448
0.07 0.27 0.40 -0.86 9.82 0.01 0.06 -0.07 17456
0.07 0.28 0.43 -0.87 9.83 0.01 0.06 -0.07 17463
0.10 0.29 0.41 -0.88 9.82 0.01 0.06 -0.07 17470
0.11 0.28 0.43 -0.92 9.81 0.01 0.06 -0.07 17477
0.10 0.26 0.41 -0.87 9.83 0.01 0.06 -0.08 17484
0.10 0.24 0.40 -0.91 9.80 0.01 0.06 -0.07 17491
0.09 0.25 0.38 -0.88 9.82 0.01 0.06 -0.07 17499
0.08 0.26 0.40 -0.89 9.81 0.00 0.06 -0.07 17506
0.09 0.26 0.42 -0.89 9.80 0.01 0.06 -0.07 17513
0.10 0.24 0.38 -0.89 9.80 0.01 0.06 -0.07 17520
0.11 0.23 0.46 -0.87 9.81 0.01 0.06 -0.08 17527
0.12 0.21 0.41 -0.89 9.78 0.01 0.06 -0.07 17534
0.08 0.21 0.44 -0.86 10.37 0.01 0.06 -0.08 17542
0.10 0.20 0.41 -0.92 9.80 0.01 0.06 -0.07 17549
0.11 0.18 0.43 -0.88 9.76 0.01 0.06 -0.07 17556
0.13 0.17 0.41 -0.90 9.82 0.01 0.06 -0.07 17563
0.12 0.16 0.49 -0.90 9.77 0.01 0.06 -0.08 17570
0.13 0.14 0.41 -0.90 9.77 0.01 0.06 -0.08 17577
0.12 0.15 0.43 -0.91 9.79 0.00 0.06 -0.08 17585
0.13 0.11 0.47 -0.90 9.75 0.01 0.06 -0.08 17592
0.15 0.12 0.40 -0.91 9.80 0.01 0.05 -0.08 17599
0.15 0.12 0.47 -0.93 9.78 0.01 0.05 -0.07 17606
0.14 0.11 0.44 -0.91 9.79 0.01 0.05 -0.07 17613
0.14 0.10 0.40 -0.91 9.80 0.01 0.05 -0.08 17620
0.14 0.11 0.48 -0.91 9.81 0.01 0.05 -0.07 17628
0.15 0.11 0.46 -0.92 9.81 0.01 0.05 -0.08 17635
0.17 0.07 0.43 -0.91 9.82 0.01 0.05 -0.07 17642
0.15 0.08 0.46 -0.90 9.82 0.01 0.05 -0.08 17649
0.15 0.07 0.43 -0.89 9.81 0.01 0.06 -0.08 17656
0.15 0.04 0.44 -0.93 9.79 0.02 0.05 -0.08 17664
0.17 0.07 0.43 -0.93 10.40 0.01 0.05 -0.08 17671
0.17 0.05 0.41 -0.92 9.77 0.01 0.05 -0.08 17678
