Voltage_01 Voltage_02 Acc_x Acc_y Acc_z Gyro_x Gyro_y Gyro_z Time
5000
0.00 0.00 1.39 -4.90 9.39 -0.78 0.23 0.11 23
0.00 0.00 0.04 -5.80 8.41 -0.79 0.21 0.10 29
0.01 -0.00 -1.27 -4.69 9.78 -0.75 0.15 0.09 35
0.00 0.00 -1.21 -5.10 11.58 -0.72 0.11 0.08 43
0.00 0.00 -1.08 -5.78 9.88 -0.67 0.09 0.08 49
0.00 0.00 -1.46 -4.81 11.30 -0.64 0.14 0.04 55
0.00 0.00 -0.05 -3.91 9.10 -0.59 0.16 0.00 61
0.00 0.00 0.30 -5.11 9.60 -0.61 0.21 -0.02 67
-0.00 0.00 1.48 -2.33 9.27 -0.61 0.28 -0.06 73
0.00 -0.00 -0.04 -3.31 8.24 -0.62 0.31 -0.06 80
0.00 0.00 0.42 -5.19 8.39 -0.65 0.33 -0.02 87
0.00 0.00 -0.83 -5.07 10.71 -0.58 0.36 -0.02 93
0.00 0.00 -1.13 -3.51 10.52 -0.60 0.28 -0.02 99
0.00 0.00 -1.25 -4.40 9.83 -0.60 0.25 -0.03 106
0.01 -0.00 0.19 -3.26 7.56 -0.55 0.27 0.02 112
0.00 0.00 1.59 -3.95 10.04 -0.53 0.33 0.06 119
0.00 0.00 -0.92 -6.10 8.84 -0.54 0.25 0.05 126
0.00 0.00 0.03 -1.27 13.61 -0.54 0.27 0.06 133
0.00 0.00 -0.21 -2.90 9.48 -0.54 0.23 0.08 140
0.00 0.00 1.39 -1.03 10.87 -0.58 0.25 0.11 146
0.00 0.00 -0.01 -1.38 11.28 -0.62 0.24 0.15 153
0.00 0.00 0.32 0.25 9.15 -0.71 0.27 0.20 160
0.00 0.00 -1.92 -2.70 9.48 -0.74 0.28 0.25 166
0.00 0.00 1.65 0.23 9.35 -0.73 0.31 0.31 173
0.00 0.00 -0.77 -0.98 11.07 -0.77 0.30 0.34 179
0.00 0.00 0.11 -0.18 9.89 -0.76 0.33 0.39 186
0.00 0.00 0.57 0.34 10.51 -0.80 0.32 0.40 192
0.00 0.00 0.34 0.27 9.18 -0.83 0.31 0.41 199
0.00 0.00 0.48 -0.09 9.88 -0.84 0.31 0.40 205
0.00 0.00 0.60 -0.11 10.12 -0.84 0.31 0.39 211
0.00 0.00 0.75 0.04 10.41 -0.86 0.31 0.36 219
0.00 0.00 0.67 0.18 10.68 -0.88 0.31 0.33 226
0.00 0.00 0.55 0.25 10.65 -0.92 0.33 0.30 233
0.00 0.00 0.45 0.35 10.64 -0.98 0.33 0.27 240
0.00 0.00 0.35 0.40 10.67 -1.03 0.35 0.24 247
0.00 0.00 0.21 0.38 10.73 -1.08 0.38 0.23 254
0.00 0.00 0.13 0.35 10.60 -1.12 0.41 0.22 262
0.00 0.00 -0.05 0.35 10.55 -1.15 0.42 0.20 269
0.00 0.00 -0.14 0.15 10.60 -1.15 0.42 0.18 276
0.00 0.00 -0.20 -0.01 10.83 -1.15 0.43 0.15 283
0.00 0.00 -0.32 -0.10 11.38 -1.15 0.43 0.12 290
0.00 0.00 -0.36 -0.33 11.01 -1.17 0.43 0.08 297
0.00 0.00 -0.38 -0.54 10.90 -1.18 0.42 0.04 305
0.00 0.00 -0.33 -0.78 10.77 -1.18 0.37 -0.01 312
0.00 0.00 -0.19 -1.03 10.65 -1.16 0.31 -0.05 319
0.00 -0.00 0.03 -1.25 10.40 -1.12 0.24 -0.08 326
0.00 0.00 0.35 -1.41 10.10 -1.07 0.16 -0.12 333
0.00 0.00 0.52 -1.45 10.03 -1.00 0.12 -0.17 340
0.00 0.00 0.75 -1.49 10.06 -0.93 0.10 -0.15 348
0.00 0.00 0.94 -1.41 10.40 -0.89 0.11 -0.15 355
0.00 0.00 0.98 -1.24 10.64 -0.87 0.15 -0.14 362
0.00 0.00 0.90 -1.23 10.82 -0.88 0.20 -0.13 369
0.00 0.00 0.82 -1.24 11.01 -0.92 0.26 -0.10 376
0.00 0.00 0.77 -1.36 11.15 -0.99 0.33 -0.07 384
0.00 0.00 0.71 -1.67 10.99 -1.04 0.39 -0.04 391
0.00 0.00 0.67 -2.02 10.53 -1.09 0.42 -0.02 398
0.00 0.00 0.66 -2.41 10.09 -1.11 0.44 -0.01 405
0.00 -0.00 0.56 -3.74 9.83 -1.09 0.44 -0.01 412
0.00 0.00 -1.87 -9.46 13.87 -0.83 0.10 -0.07 419
0.00 0.00 -0.35 -4.38 7.66 -0.48 -0.03 -0.16 427
0.00 0.00 -0.06 -6.79 4.83 -0.43 0.06 -0.20 433
0.00 0.00 -0.50 -8.48 8.61 -0.31 -0.03 -0.19 439
0.00 0.00 -0.62 -7.53 9.21 -0.20 -0.07 -0.27 445
0.00 0.00 -0.90 -8.44 8.62 -0.14 -0.09 -0.32 451
0.00 0.00 -2.50 -9.02 6.27 -0.03 -0.25 -0.37 457
0.00 0.00 -2.61 -9.76 8.73 0.06 -0.41 -0.40 463
0.00 0.00 -2.55 -11.55 7.92 0.27 -0.44 -0.39 470
0.00 0.00 -2.56 -13.07 3.49 0.54 -0.34 -0.33 477
-0.00 0.01 -3.16 -16.78 3.42 0.84 -0.53 -0.34 484
-0.00 0.02 -3.30 -23.38 3.30 1.28 -0.81 -0.41 491
0.00 0.02 -1.24 -33.27 18.30 1.78 -1.59 -0.57 499
0.02 0.02 -0.20 -2.87 17.83 0.33 -0.69 -0.16 505
0.01 0.02 1.88 -5.00 9.19 -0.18 0.03 0.06 513
0.01 0.10 1.30 -0.56 8.61 -0.25 -0.03 0.02 520
-0.00 0.13 -0.41 0.11 10.78 -0.21 -0.15 0.00 527
0.02 0.18 0.65 0.14 9.44 -0.15 -0.12 -0.05 534
0.03 0.22 0.44 -0.82 9.78 -0.13 -0.09 -0.09 541
0.01 0.27 0.09 -1.11 10.09 -0.09 -0.03 -0.09 548
0.02 0.29 -0.14 -0.68 10.01 -0.07 0.03 -0.08 556
0.02 0.31 0.01 -0.90 9.88 -0.07 0.06 -0.06 563
0.02 0.34 0.23 -0.89 9.87 -0.06 0.08 -0.06 570
0.03 0.34 0.27 -0.82 9.94 -0.05 0.08 -0.05 577
0.03 0.36 0.31 -0.77 9.74 -0.05 0.08 -0.05 584
0.02 0.37 0.36 -0.79 9.89 -0.04 0.08 -0.04 591
0.01 0.37 0.38 -0.78 9.83 -0.04 0.08 -0.05 599
0.00 0.47 0.32 -0.80 9.80 -0.03 0.07 -0.04 606
0.02 0.47 0.35 -0.80 9.78 -0.03 0.08 -0.04 613
0.04 0.47 0.40 -0.82 9.91 -0.02 0.07 -0.05 620
0.02 0.50 0.36 -0.79 9.83 -0.02 0.07 -0.05 627
0.01 0.49 0.39 -0.77 9.82 -0.02 0.07 -0.06 634
0.01 0.48 0.41 -0.78 9.21 -0.02 0.06 -0.06 642
0.02 0.48 0.39 -0.77 9.81 -0.02 0.05 -0.07 649
0.02 0.51 0.35 -0.74 9.81 -0.02 0.06 -0.07 656
0.04 0.50 0.31 -0.77 9.82 -0.02 0.06 -0.07 663
0.03 0.50 0.29 -0.74 9.82 -0.01 0.07 -0.07 670
0.02 0.50 0.34 -0.77 9.83 -0.01 0.07 -0.07 677
-0.00 0.49 0.30 -0.76 9.80 -0.00 0.07 -0.06 685
0.01 0.47 0.40 -0.75 9.82 -0.01 0.07 -0.07 692
0.02 0.47 0.35 -0.75 9.84 -0.01 0.07 -0.07 699
0.03 0.47 0.33 -0.78 9.79 -0.01 0.07 -0.06 706
0.03 0.46 0.31 -0.77 9.74 -0.01 0.08 -0.06 713
0.03 0.45 0.31 -0.77 9.81 -0.01 0.08 -0.07 720
0.02 0.45 0.36 -0.77 9.81 -0.00 0.09 -0.07 728
0.02 0.45 0.33 -0.76 9.81 -0.01 0.09 -0.07 735
0.05 0.45 0.32 -0.77 9.78 -0.01 0.10 -0.07 742
0.05 0.43 0.36 -0.76 9.81 -0.01 0.10 -0.07 749
0.05 0.41 0.37 -0.77 9.79 -0.00 0.10 -0.07 756
0.04 0.40 0.39 -0.74 9.78 -0.00 0.10 -0.07 763
0.03 0.40 0.40 -0.69 9.80 -0.00 0.10 -0.07 771
0.04 0.41 0.37 -0.76 9.80 0.00 0.10 -0.07 778
0.04 0.39 0.40 -0.74 9.82 0.00 0.10 -0.07 785
0.04 0.38 0.40 -0.77 9.81 0.00 0.10 -0.07 792
0.03 0.38 0.40 -0.77 9.81 0.00 0.10 -0.07 799
0.04 0.35 0.42 -0.76 9.20 0.01 0.10 -0.07 806
0.04 0.33 0.41 -0.74 9.82 0.00 0.10 -0.07 814
0.03 0.34 0.40 -0.77 9.84 0.00 0.11 -0.07 821
0.05 0.33 0.47 -0.76 9.77 0.00 0.11 -0.06 828
0.05 0.30 0.45 -0.75 9.78 0.01 0.10 -0.06 835
0.04 0.31 0.51 -0.84 9.77 0.01 0.10 -0.06 842
0.03 0.28 0.46 -0.76 9.82 0.01 0.10 -0.06 849
0.03 0.28 0.29 -0.72 9.82 0.01 0.10 -0.06 857
0.03 0.31 0.45 -0.79 9.80 0.01 0.09 -0.06 864
0.05 0.30 0.36 -0.76 9.85 0.01 0.09 -0.07 871
0.05 0.28 0.47 -0.80 9.77 0.01 0.09 -0.06 878
0.05 0.27 0.39 -0.73 9.81 0.01 0.08 -0.06 885
0.04 0.26 0.50 -0.80 9.82 0.01 0.08 -0.07 892
0.05 0.26 0.49 -0.81 10.39 0.00 0.08 -0.06 900
0.07 0.27 0.46 -0.78 9.78 0.01 0.07 -0.06 907
0.06 0.25 0.48 -0.83 9.81 0.01 0.07 -0.07 914
0.05 0.24 0.51 -0.80 9.80 0.01 0.06 -0.07 921
0.05 0.20 0.46 -0.80 9.79 0.01 0.06 -0.07 928
0.03 0.20 0.45 -0.81 9.21 0.01 0.05 -0.07 935
0.04 0.18 0.47 -0.80 9.80 0.00 0.06 -0.07 943
0.08 0.16 0.46 -0.79 9.81 0.01 0.06 -0.07 950
0.08 0.18 0.41 -0.77 9.85 0.00 0.07 -0.07 957
0.08 0.17 0.52 -0.79 9.81 0.00 0.07 -0.07 964
0.08 0.17 0.49 -0.79 9.80 0.00 0.07 -0.07 971
0.07 0.16 0.49 -0.81 9.81 -0.00 0.06 -0.07 978
0.08 0.14 0.51 -0.79 9.77 -0.00 0.06 -0.07 986
0.09 0.15 0.52 -0.80 9.79 0.00 0.05 -0.07 993
0.09 0.11 0.51 -0.79 9.79 -0.00 0.04 -0.07 1000
0.08 0.13 0.51 -0.79 9.80 -0.00 0.04 -0.08 1007
0.06 0.13 0.52 -0.80 9.79 0.00 0.03 -0.07 1014
0.06 0.13 0.51 -0.82 9.73 0.00 0.03 -0.07 1021
0.07 0.13 0.53 -0.78 10.41 0.01 0.03 -0.07 1029
0.10 0.13 0.48 -0.81 9.80 0.01 0.03 -0.07 1036
0.09 0.11 0.50 -0.83 9.77 0.01 0.02 -0.07 1043
0.09 0.11 0.50 -0.80 9.82 0.01 0.02 -0.08 1050
0.08 0.10 0.49 -0.83 9.80 0.01 0.02 -0.07 1057
0.09 0.09 0.46 -0.82 9.80 0.01 0.02 -0.08 1064
0.08 0.08 0.50 -0.80 9.82 0.01 0.02 -0.08 1072
0.10 0.05 0.49 -0.82 9.82 0.01 0.01 -0.08 1079
0.10 0.05 0.51 -0.80 9.81 0.00 0.00 -0.08 1086
0.10 0.06 0.49 -0.81 9.81 -0.00 -0.01 -0.08 1093
0.08 0.05 0.49 -0.81 9.80 -0.00 -0.02 -0.08 1100
0.09 0.04 0.48 -0.82 9.77 -0.00 -0.02 -0.08 1107
0.10 0.05 0.45 -0.82 9.80 -0.01 -0.02 -0.08 1115
0.12 0.04 0.42 -0.83 9.78 -0.01 -0.01 -0.08 1122
0.10 0.05 0.42 -0.81 9.76 -0.01 0.00 -0.08 1129
0.11 0.03 0.41 -0.81 9.79 -0.00 0.01 -0.08 1136
0.10 0.04 0.41 -0.82 9.82 -0.00 0.02 -0.08 1143
0.11 0.05 0.39 -0.83 9.83 -0.00 0.07 -0.08 1150
0.13 0.05 0.41 -0.84 9.80 0.01 0.04 -0.07 1158
0.13 0.04 0.44 -0.80 9.82 0.00 0.04 -0.08 1165
0.13 0.03 0.47 -0.80 9.79 0.01 0.04 -0.08 1172
0.12 0.01 0.45 -0.80 9.81 0.01 0.04 -0.08 1179
0.12 0.01 0.45 -0.82 9.81 0.01 0.04 -0.08 1186
0.14 0.03 0.44 -0.82 9.82 0.02 0.04 -0.07 1193
0.17 -0.00 0.44 -0.83 9.81 0.02 0.05 -0.08 1201
0.18 0.01 0.45 -0.85 9.83 0.03 0.05 -0.08 1208
0.17 0.01 0.45 -0.84 9.83 0.03 0.06 -0.08 1215
0.17 0.00 0.48 -0.82 9.81 0.04 0.06 -0.08 1222
0.17 0.00 0.46 -0.82 9.82 0.05 0.06 -0.09 1229
0.19 0.01 0.46 -0.80 9.86 0.05 0.07 -0.10 1236
0.22 -0.01 0.40 -0.86 9.86 0.07 0.09 -0.09 1244
0.23 -0.01 0.40 -0.84 9.91 0.09 0.11 -0.10 1251
0.23 -0.02 0.47 -0.90 9.88 0.11 0.15 -0.11 1258
0.22 -0.01 0.48 -0.89 10.03 0.15 0.19 -0.11 1266
0.22 -0.02 0.62 -0.90 10.11 0.22 0.25 -0.11 1272
0.25 -0.01 0.68 -0.88 10.32 0.30 0.34 -0.12 1281
0.30 -0.01 0.76 -0.84 10.35 0.43 0.42 -0.12 1288
0.31 -0.02 0.72 -0.93 10.74 0.61 0.49 -0.14 1295
0.31 -0.01 0.83 -1.04 11.08 0.81 0.53 -0.15 1302
0.30 -0.00 0.76 -1.06 10.96 1.05 0.49 -0.16 1308
0.31 -0.02 0.68 -1.25 11.48 1.20 0.39 -0.17 1316
0.32 -0.01 0.81 -1.39 11.56 1.30 0.31 -0.18 1324
0.32 -0.02 0.70 -1.43 11.44 1.35 0.23 -0.19 1331
0.30 -0.02 0.72 -1.40 11.11 1.40 0.16 -0.19 1338
0.29 -0.02 0.61 -1.54 11.23 1.46 0.09 -0.18 1345
0.26 -0.02 0.79 -1.76 11.13 1.49 0.02 -0.17 1352
0.24 -0.01 0.69 -1.75 10.81 1.52 0.03 -0.16 1359
0.23 -0.01 0.62 -1.86 10.55 1.57 -0.02 -0.15 1367
0.19 -0.01 0.70 -1.95 10.57 1.62 -0.02 -0.13 1374
0.19 -0.02 0.22 -1.95 10.27 1.67 0.01 -0.12 1380
0.17 -0.01 0.61 -2.24 10.32 1.68 -0.01 -0.10 1388
0.16 -0.01 0.15 -2.86 9.93 1.68 -0.06 -0.09 1394
0.17 -0.01 0.58 -2.57 10.02 1.66 -0.01 -0.08 1401
0.14 -0.01 0.47 -2.70 9.67 1.65 0.02 -0.06 1409
0.08 -0.01 0.49 -2.82 9.62 1.64 0.04 -0.04 1416
0.08 -0.01 0.55 -3.08 9.48 1.62 0.08 -0.03 1423
0.06 -0.01 0.69 -3.15 9.58 1.59 0.12 -0.03 1430
0.06 -0.01 0.50 -3.32 9.58 1.56 0.11 -0.02 1437
0.03 0.00 0.59 -3.49 9.82 1.54 0.12 -0.00 1444
0.04 -0.00 0.66 -3.60 9.82 1.52 0.12 0.00 1452
0.04 -0.00 0.64 -3.79 9.90 1.51 0.11 0.00 1459
0.06 -0.01 0.65 -3.90 9.94 1.49 0.07 0.01 1466
0.06 -0.01 0.71 -4.11 10.22 1.47 0.03 0.01 1473
0.05 -0.01 0.78 -4.25 10.51 1.45 -0.01 0.00 1480
0.06 -0.00 0.89 -4.32 10.37 1.43 -0.07 -0.01 1487
0.06 -0.01 0.88 -4.34 10.34 1.41 -0.14 -0.03 1495
0.06 -0.01 0.68 -4.44 10.76 1.38 -0.22 -0.05 1502
0.06 -0.01 0.52 -4.44 10.98 1.32 -0.35 -0.07 1509
0.05 -0.00 0.54 -4.29 10.74 1.27 -0.49 -0.09 1516
0.06 -0.01 0.43 -4.10 10.29 1.19 -0.67 -0.10 1523
0.02 -0.00 0.42 -3.87 10.19 1.09 -0.84 -0.11 1530
0.03 -0.00 0.54 -3.94 9.69 1.01 -0.97 -0.11 1538
0.02 -0.00 0.67 -3.74 9.37 0.96 -1.10 -0.12 1545
0.00 0.00 0.96 -3.59 8.68 0.90 -1.15 -0.11 1552
0.00 0.00 1.65 -3.63 8.18 0.83 -1.10 -0.11 1559
0.00 0.00 2.41 -3.07 7.81 0.74 -0.98 -0.15 1566
0.00 -0.00 2.85 -1.91 7.91 0.64 -0.81 -0.21 1573
0.00 0.00 2.78 -2.69 7.82 0.51 -0.61 -0.26 1581
0.00 0.00 2.54 -1.00 8.19 0.41 -0.38 -0.33 1588
0.00 0.00 2.10 -1.35 8.13 0.38 -0.20 -0.40 1595
0.00 0.00 1.30 0.55 8.89 0.32 -0.03 -0.53 1602
0.00 0.00 1.75 1.95 8.15 0.22 0.04 -0.62 1609
0.00 0.00 0.87 2.99 8.95 0.05 0.11 -0.66 1616
0.00 0.00 0.50 2.08 7.82 -0.07 0.11 -0.74 1624
0.00 0.00 0.55 2.99 8.78 -0.15 0.09 -0.83 1631
0.01 -0.00 0.30 1.62 7.97 -0.22 0.04 -0.87 1638
0.01 -0.00 0.06 2.42 9.32 -0.27 0.07 -0.89 1645
0.02 0.00 0.35 2.49 8.74 -0.37 0.08 -0.91 1652
0.04 -0.00 0.62 2.17 8.59 -0.46 0.09 -0.91 1659
0.00 0.00 0.82 2.43 8.64 -0.56 0.12 -0.90 1667
0.00 0.00 0.88 1.53 8.28 -0.65 0.15 -0.89 1674
0.00 0.00 1.03 1.75 9.00 -0.76 0.21 -0.85 1681
0.00 0.00 1.11 1.00 8.59 -0.78 0.23 -0.81 1688
0.00 0.00 0.78 -0.21 8.50 -0.81 0.25 -0.76 1695
0.00 0.00 1.09 -0.97 9.10 -0.84 0.27 -0.69 1702
0.00 0.00 0.43 -1.64 10.44 -0.85 0.27 -0.63 1710
0.00 0.00 0.54 -0.26 9.67 -0.87 0.28 -0.59 1717
0.00 0.00 0.40 -4.86 10.12 -0.92 0.29 -0.53 1724
0.00 0.00 0.12 -5.21 11.52 -1.04 0.40 -0.51 1731
0.00 0.00 1.51 -2.37 11.92 -1.10 0.43 -0.49 1738
0.00 0.00 0.07 -4.72 7.64 -1.19 0.36 -0.46 1745
0.00 0.00 0.34 -0.76 11.37 -1.20 0.37 -0.41 1753
0.00 0.00 -0.74 -2.34 6.03 -1.21 0.34 -0.39 1760
0.00 0.00 1.15 -2.23 7.24 -1.19 0.26 -0.36 1767
0.00 0.00 1.46 -5.76 7.47 -1.20 0.27 -0.30 1774
0.00 0.00 2.32 -2.03 9.95 -1.13 0.32 -0.26 1781
0.00 0.00 -0.64 -5.33 9.65 -1.09 0.29 -0.22 1788
0.00 0.00 -1.05 -3.20 10.11 -1.06 0.30 -0.16 1796
0.00 0.00 1.07 -3.27 10.30 -1.01 0.28 -0.14 1803
0.00 0.00 -1.11 -4.84 10.75 -1.00 0.24 -0.10 1810
0.00 0.00 -2.04 -3.42 9.35 -1.07 0.28 -0.08 1817
0.00 0.00 -0.63 -4.80 12.42 -1.07 0.24 -0.06 1824
0.00 0.00 1.61 -2.17 9.36 -1.08 0.21 -0.02 1831
0.00 0.00 0.71 -1.85 11.52 -1.14 0.28 0.03 1839
0.00 0.00 1.56 -1.90 10.22 -1.11 0.28 0.06 1846
0.00 0.00 1.49 -2.73 8.42 -1.10 0.31 0.13 1853
0.00 0.00 1.23 -2.55 9.67 -1.05 0.40 0.19 1860
0.00 -0.00 0.78 -2.57 10.12 -1.02 0.44 0.25 1867
0.00 0.00 0.75 -2.31 10.25 -0.98 0.46 0.30 1874
0.00 0.00 0.63 -2.04 10.13 -0.96 0.45 0.35 1882
0.00 0.00 0.59 -2.00 10.06 -0.94 0.42 0.39 1889
0.00 0.00 0.60 -2.01 10.25 -0.93 0.40 0.42 1896
0.00 0.00 0.71 -2.08 10.30 -0.92 0.41 0.44 1903
0.00 0.00 0.59 -2.10 10.17 -0.91 0.42 0.45 1910
0.00 0.00 0.46 -2.03 9.97 -0.90 0.44 0.45 1917
0.00 0.00 0.27 -2.07 9.77 -0.87 0.47 0.45 1925
0.00 0.00 0.01 -2.02 9.81 -0.83 0.49 0.46 1932
0.00 0.00 -0.32 -1.77 10.04 -0.80 0.48 0.47 1939
0.00 0.00 -0.51 -1.59 10.33 -0.78 0.45 0.48 1946
0.00 0.00 -0.55 -1.35 10.54 -0.77 0.38 0.48 1953
0.00 0.00 -0.48 -1.22 10.74 -0.79 0.28 0.46 1960
0.00 0.00 -0.25 -1.20 10.79 -0.83 0.24 0.44 1968
0.00 0.00 0.00 -1.36 10.62 -0.87 0.19 0.40 1975
0.00 0.00 0.15 -1.50 10.30 -0.90 0.18 0.36 1982
0.00 0.00 0.27 -1.75 10.13 -0.90 0.19 0.33 1989
0.00 0.00 0.35 -2.02 10.04 -0.88 0.18 0.28 1996
0.00 0.00 0.30 -2.16 10.17 -0.85 0.17 0.25 2003
0.00 0.00 0.45 -2.25 10.37 -0.82 0.16 0.23 2011
0.00 0.00 0.57 -2.28 10.54 -0.83 0.16 0.21 2018
0.00 0.00 0.75 -2.23 10.51 -0.83 0.16 0.20 2025
0.00 0.00 0.87 -2.28 10.31 -0.85 0.16 0.20 2032
0.00 0.00 1.00 -2.33 10.08 -0.85 0.16 0.21 2039
0.00 0.00 1.14 -2.39 9.87 -0.82 0.16 0.22 2046
0.00 0.00 1.19 -2.44 9.70 -0.78 0.20 0.23 2054
0.00 0.00 1.11 -2.51 9.54 -0.71 0.19 0.26 2061
0.00 0.00 0.92 -2.55 9.46 -0.65 0.21 0.30 2068
0.00 -0.00 0.81 -2.71 9.50 -0.57 0.20 0.34 2075
0.00 0.00 0.18 -4.73 10.75 -0.46 0.08 0.37 2082
0.00 0.00 -1.63 -5.91 11.97 -0.22 -0.35 0.35 2089
0.00 0.00 -0.30 -3.33 10.29 -0.04 -0.50 0.36 2097
0.00 0.00 -0.03 -4.60 8.37 -0.09 -0.51 0.40 2104
0.00 0.00 1.32 -5.91 11.88 -0.16 -0.44 0.39 2111
0.00 0.00 1.34 -6.22 9.50 -0.19 -0.12 0.40 2118
0.00 0.00 1.09 -4.72 10.38 -0.26 0.20 0.42 2125
0.00 0.00 -0.06 -7.97 8.93 -0.32 0.26 0.43 2132
-0.00 0.01 -0.22 -9.02 7.35 -0.26 0.29 0.46 2140
0.00 0.00 -2.28 -9.93 7.12 -0.13 0.14 0.51 2147
-0.00 0.01 -3.97 -11.91 7.75 0.07 0.01 0.55 2154
-0.00 0.00 -4.47 -14.71 6.74 0.33 -0.26 0.55 2161
0.00 0.00 -5.83 -20.78 8.93 0.56 -0.39 0.53 2168
0.00 0.00 -9.12 -27.72 10.20 0.46 -0.97 0.33 2176
-0.00 0.01 -5.97 -20.94 11.58 0.18 -0.43 0.08 2183
0.02 0.03 -0.63 -3.75 9.53 -0.08 0.02 -0.04 2190
0.03 0.02 -0.24 -1.74 9.74 -0.19 0.08 -0.05 2197
0.02 0.04 0.91 -0.24 9.48 -0.20 0.05 0.01 2204
0.03 0.04 0.72 -0.26 9.90 -0.16 0.00 -0.00 2211
0.02 0.08 0.63 -0.30 9.41 -0.14 -0.01 -0.04 2219
-0.01 0.12 0.41 -0.47 9.80 -0.13 -0.04 -0.06 2226
0.00 0.17 0.37 -0.90 9.81 -0.09 -0.02 -0.06 2233
0.01 0.20 0.20 -0.87 9.95 -0.08 0.00 -0.06 2240
0.01 0.24 0.11 -0.75 9.87 -0.07 0.03 -0.06 2247
0.02 0.26 0.16 -0.80 9.80 -0.06 0.05 -0.07 2254
0.01 0.26 0.17 -0.83 9.76 -0.05 0.07 -0.07 2262
0.01 0.25 0.21 -0.88 9.89 -0.05 0.09 -0.06 2269
0.02 0.27 0.23 -0.80 9.91 -0.05 0.09 -0.06 2276
0.04 0.24 0.26 -0.86 9.86 -0.04 0.10 -0.05 2283
0.03 0.26 0.30 -0.86 9.92 -0.04 0.10 -0.05 2290
0.02 0.27 0.39 -0.82 9.87 -0.04 0.10 -0.05 2297
0.02 0.28 0.41 -0.82 9.82 -0.03 0.09 -0.05 2305
0.03 0.29 0.43 -0.85 9.81 -0.03 0.09 -0.06 2312
0.04 0.28 0.45 -0.78 9.84 -0.03 0.08 -0.06 2319
0.05 0.26 0.40 -0.82 9.82 -0.03 0.07 -0.07 2326
0.07 0.24 0.39 -0.84 9.71 -0.02 0.07 -0.07 2333
0.07 0.24 0.39 -0.83 9.83 -0.02 0.07 -0.07 2340
0.07 0.25 0.41 -0.80 9.82 -0.02 0.06 -0.08 2348
0.07 0.24 0.38 -0.79 9.84 -0.01 0.07 -0.07 2355
0.08 0.25 0.34 -0.80 9.84 -0.01 0.07 -0.07 2362
0.06 0.24 0.35 -0.79 9.78 -0.01 0.08 -0.07 2369
0.06 0.24 0.38 -0.78 9.84 -0.00 0.09 -0.07 2376
0.07 0.23 0.41 -0.80 9.83 0.00 0.09 -0.07 2383
0.06 0.20 0.38 -0.78 9.82 0.00 0.10 -0.08 2391
0.08 0.21 0.40 -0.80 9.82 0.01 0.10 -0.07 2398
0.10 0.22 0.39 -0.79 9.83 0.01 0.11 -0.07 2405
0.10 0.22 0.40 -0.81 9.82 0.01 0.11 -0.07 2412
0.09 0.22 0.43 -0.77 9.79 0.01 0.11 -0.08 2419
0.09 0.22 0.45 -0.80 9.87 0.01 0.10 -0.08 2426
0.08 0.22 0.43 -0.79 9.82 0.02 0.10 -0.07 2434
0.10 0.23 0.46 -0.81 9.82 0.02 0.10 -0.08 2441
0.11 0.19 0.47 -0.81 9.80 0.02 0.10 -0.08 2448
0.11 0.17 0.44 -0.82 9.82 0.02 0.09 -0.08 2455
0.09 0.18 0.46 -0.87 9.82 0.02 0.09 -0.08 2462
0.07 0.15 0.43 -0.81 9.78 0.02 0.09 -0.08 2469
0.08 0.11 0.43 -0.79 9.81 0.03 0.09 -0.08 2477
0.09 0.11 0.43 -0.82 9.80 0.02 0.09 -0.08 2484
0.12 0.07 0.45 -0.82 9.81 0.03 0.09 -0.08 2491
0.12 0.07 0.45 -0.83 9.82 0.03 0.09 -0.08 2498
0.13 0.03 0.46 -0.85 9.80 0.02 0.09 -0.08 2505
0.13 0.02 0.49 -0.85 9.80 0.02 0.09 -0.09 2512
0.10 0.00 0.47 -0.84 9.76 0.03 0.09 -0.08 2520
0.11 0.02 0.54 -0.84 9.80 0.02 0.09 -0.08 2527
0.13 0.02 0.50 -0.82 9.80 0.02 0.08 -0.08 2534
0.11 0.01 0.48 -0.86 9.79 0.02 0.08 -0.08 2541
0.12 0.01 0.45 -0.84 9.81 0.02 0.08 -0.09 2548
0.11 0.01 0.49 -0.86 9.79 0.02 0.08 -0.08 2555
0.15 0.00 0.49 -0.86 9.81 0.02 0.07 -0.08 2563
0.15 0.02 0.57 -0.86 9.81 0.02 0.07 -0.08 2570
0.16 -0.00 0.53 -0.85 9.76 0.02 0.06 -0.08 2577
0.17 -0.01 0.50 -0.89 9.78 0.02 0.06 -0.08 2584
0.16 -0.02 0.53 -0.87 9.75 0.01 0.06 -0.08 2591
0.13 -0.01 0.52 -0.90 9.80 0.01 0.05 -0.08 2598
0.15 0.01 0.54 -0.92 9.77 0.01 0.05 -0.09 2606
0.17 0.02 0.59 -0.85 9.80 0.00 0.05 -0.08 2613
0.18 0.01 0.49 -0.87 9.79 0.00 0.05 -0.08 2620
0.19 -0.01 0.51 -0.89 9.80 -0.00 0.04 -0.08 2627
0.18 -0.01 0.51 -0.90 9.80 -0.00 0.05 -0.08 2634
0.17 0.01 0.49 -0.84 9.80 -0.00 0.05 -0.08 2641
0.16 0.01 0.50 -0.89 9.79 -0.00 0.05 -0.08 2649
0.17 0.01 0.49 -0.87 9.80 -0.00 0.05 -0.08 2656
0.18 -0.00 0.50 -0.86 9.82 -0.00 0.04 -0.08 2663
0.17 -0.01 0.48 -0.86 9.81 -0.01 0.05 -0.08 2670
0.15 0.00 0.51 -0.90 9.78 -0.01 0.05 -0.08 2677
0.15 0.01 0.52 -0.86 9.78 -0.00 0.04 -0.08 2684
0.15 0.02 0.55 -0.86 9.81 -0.00 0.05 -0.08 2692
0.16 0.00 0.54 -0.90 9.81 -0.00 0.05 -0.08 2699
0.16 -0.01 0.51 -0.90 9.81 -0.00 0.04 -0.08 2706
0.16 -0.02 0.50 -0.90 9.81 -0.00 0.04 -0.08 2713
0.15 -0.01 0.52 -0.87 9.77 -0.01 0.04 -0.08 2720
0.16 -0.00 0.50 -0.88 9.79 -0.01 0.04 -0.08 2727
0.16 -0.00 0.54 -0.88 9.81 -0.01 0.03 -0.08 2735
0.17 -0.00 0.51 -0.90 9.76 -0.01 0.04 -0.08 2742
0.17 -0.01 0.57 -0.85 9.79 -0.01 0.03 -0.08 2749
0.16 -0.01 0.57 -0.89 9.79 -0.01 0.03 -0.08 2756
0.15 -0.00 0.52 -0.84 10.42 -0.01 0.03 -0.09 2763
0.17 0.00 0.51 -0.88 9.80 -0.01 0.02 -0.08 2770
0.17 0.01 0.51 -0.87 9.82 -0.00 0.03 -0.08 2778
0.18 -0.00 0.48 -0.90 9.83 -0.01 0.02 -0.08 2785
0.17 -0.00 0.49 -0.89 9.80 -0.00 0.01 -0.09 2792
0.17 -0.01 0.48 -0.89 9.75 -0.01 0.01 -0.08 2799
0.16 0.00 0.49 -0.87 9.80 -0.01 0.02 -0.08 2806
0.17 0.01 0.48 -0.91 9.82 -0.01 0.02 -0.08 2813
0.18 0.01 0.48 -0.86 9.82 -0.00 0.02 -0.09 2821
0.17 -0.00 0.46 -0.87 9.81 -0.01 0.03 -0.09 2828
0.19 0.00 0.50 -0.87 9.75 -0.00 0.03 -0.08 2835
0.19 -0.01 0.48 -0.87 9.81 -0.00 0.04 -0.09 2842
0.19 0.00 0.46 -0.87 9.82 0.01 0.04 -0.09 2849
0.20 -0.00 0.45 -0.89 9.82 0.01 0.04 -0.08 2856
0.25 -0.01 0.45 -0.88 9.83 0.01 0.05 -0.08 2864
0.26 -0.01 0.48 -0.87 9.83 0.01 0.05 -0.09 2871
0.26 -0.02 0.50 -0.87 9.82 0.02 0.05 -0.08 2878
0.27 -0.02 0.46 -0.87 9.81 0.02 0.06 -0.08 2885
0.28 -0.01 0.49 -0.85 9.82 0.03 0.07 -0.08 2892
0.28 0.00 0.51 -0.85 9.83 0.05 0.08 -0.08 2899
0.32 -0.01 0.51 -0.89 9.81 0.05 0.09 -0.09 2907
0.31 -0.01 0.52 -0.89 9.84 0.07 0.10 -0.09 2914
0.32 -0.02 0.56 -0.93 9.87 0.09 0.12 -0.09 2921
0.31 -0.01 0.57 -0.95 9.92 0.13 0.15 -0.09 2928
0.35 -0.02 0.57 -0.94 9.95 0.17 0.19 -0.10 2935
0.36 -0.02 0.65 -0.95 10.06 0.22 0.24 -0.10 2942
0.38 -0.02 0.54 -0.93 10.14 0.30 0.31 -0.10 2950
0.40 -0.03 0.67 -0.93 10.45 0.41 0.39 -0.10 2957
0.40 -0.03 0.69 -1.02 10.57 0.57 0.45 -0.11 2964
0.39 -0.02 0.67 -1.02 10.69 0.76 0.47 -0.12 2972
0.38 -0.02 0.67 -1.16 10.78 0.91 0.47 -0.12 2979
0.40 -0.02 0.89 -1.32 11.04 1.04 0.39 -0.13 2985
0.43 -0.03 0.87 -1.35 11.28 1.16 0.28 -0.14 2994
0.40 -0.03 0.86 -1.40 11.54 1.19 0.23 -0.15 3001
0.39 -0.03 0.76 -1.48 11.31 1.27 0.15 -0.16 3008
0.39 -0.02 0.81 -1.55 11.16 1.33 0.09 -0.16 3015
0.40 -0.02 0.63 -1.69 11.08 1.39 0.00 -0.15 3021
0.39 -0.02 0.62 -1.74 11.13 1.47 -0.04 -0.14 3030
0.38 -0.02 0.65 -1.81 10.82 1.50 -0.06 -0.13 3037
0.36 -0.02 0.37 -2.15 10.66 1.54 -0.04 -0.11 3044
0.34 -0.02 0.74 -2.11 10.10 1.57 -0.08 -0.11 3051
0.32 -0.02 0.61 -2.18 10.04 1.59 -0.09 -0.10 3058
0.30 -0.01 0.56 -2.34 9.78 1.59 -0.07 -0.08 3064
0.23 -0.02 0.61 -2.52 9.77 1.58 -0.08 -0.07 3072
0.17 -0.02 0.67 -2.64 9.72 1.57 -0.06 -0.07 3079
0.15 -0.02 1.25 -2.88 9.52 1.57 -0.06 -0.06 3086
0.14 -0.01 0.81 -2.94 9.76 1.53 -0.08 -0.07 3093
0.11 -0.01 0.83 -3.02 9.49 1.52 -0.03 -0.09 3100
0.10 -0.01 0.67 -3.23 9.60 1.52 -0.09 -0.10 3107
0.06 -0.01 0.90 -3.31 9.39 1.50 -0.08 -0.11 3115
0.10 -0.01 0.97 -3.45 9.40 1.49 -0.11 -0.13 3122
0.09 -0.01 1.00 -3.64 9.56 1.46 -0.15 -0.14 3129
0.04 -0.00 0.99 -3.76 9.81 1.44 -0.18 -0.16 3136
0.06 -0.01 0.95 -3.85 9.87 1.44 -0.21 -0.18 3143
0.09 -0.00 1.00 -4.00 9.94 1.44 -0.23 -0.20 3150
0.08 -0.01 1.03 -4.14 9.87 1.44 -0.26 -0.22 3158
0.08 -0.01 0.90 -4.89 9.94 1.43 -0.28 -0.24 3165
0.09 -0.01 0.74 -4.46 10.06 1.41 -0.28 -0.25 3172
0.04 -0.00 0.61 -4.59 10.03 1.38 -0.29 -0.25 3179
0.04 -0.00 0.52 -4.65 10.14 1.33 -0.24 -0.25 3186
0.05 -0.01 0.42 -4.73 10.19 1.24 -0.24 -0.24 3193
0.03 -0.00 0.16 -4.65 9.87 1.21 -0.26 -0.24 3201
0.04 -0.00 0.22 -4.56 9.99 1.12 -0.32 -0.23 3208
0.05 -0.01 -0.02 -4.60 9.96 1.03 -0.44 -0.23 3215
0.05 -0.01 -0.06 -4.55 10.13 0.93 -0.51 -0.23 3222
0.04 0.00 0.09 -4.74 10.15 0.86 -0.64 -0.23 3229
0.04 -0.00 0.19 -4.86 10.30 0.80 -0.75 -0.24 3236
0.00 0.00 0.39 -4.91 10.14 0.76 -0.84 -0.24 3244
0.01 -0.00 1.06 -4.61 9.35 0.73 -0.89 -0.25 3251
0.00 0.00 1.44 -3.88 8.51 0.68 -0.89 -0.26 3258
0.00 -0.00 1.50 -3.41 7.60 0.60 -0.82 -0.30 3265
0.01 -0.00 1.90 -2.87 7.47 0.53 -0.71 -0.33 3272
0.05 -0.00 2.42 -1.77 7.16 0.45 -0.65 -0.40 3279
0.03 -0.00 2.57 -1.72 7.36 0.34 -0.53 -0.46 3287
0.00 0.00 2.51 0.39 8.07 0.28 -0.39 -0.53 3294
0.00 0.00 2.63 0.14 7.54 0.15 -0.17 -0.56 3301
0.00 0.00 1.23 1.94 8.43 0.04 0.02 -0.61 3308
0.00 0.00 1.45 1.04 7.86 -0.08 0.12 -0.67 3315
0.00 -0.00 0.92 1.23 8.22 -0.12 0.16 -0.71 3322
0.00 0.00 0.74 1.28 8.43 -0.15 0.18 -0.71 3330
0.00 0.00 0.44 1.24 8.50 -0.19 0.21 -0.69 3337
0.00 0.00 0.54 1.08 8.19 -0.21 0.20 -0.66 3344
0.00 0.00 0.63 0.93 8.05 -0.23 0.16 -0.62 3351
0.00 0.00 0.71 0.67 7.89 -0.23 0.11 -0.57 3358
0.00 0.00 0.78 0.25 8.04 -0.24 0.07 -0.51 3365
0.00 0.00 0.85 -1.66 8.38 -0.25 0.06 -0.47 3373
0.00 0.00 0.89 -1.87 9.46 -0.28 0.09 -0.42 3380
0.00 0.00 0.25 -4.47 8.05 -0.32 0.12 -0.43 3387
0.00 0.00 1.15 -2.51 11.07 -0.43 0.21 -0.43 3394
0.00 0.00 1.42 -2.69 8.04 -0.50 0.29 -0.45 3401
0.00 0.00 0.17 -6.35 8.23 -0.58 0.43 -0.46 3408
0.00 0.00 0.92 -3.38 10.83 -0.62 0.51 -0.45 3416
0.00 0.00 1.05 -3.24 9.94 -0.65 0.55 -0.42 3423
0.00 0.00 -0.60 -2.26 9.46 -0.67 0.56 -0.38 3430
0.00 0.00 -1.18 -4.62 9.44 -0.62 0.47 -0.35 3437
0.00 0.00 -0.14 -3.29 8.18 -0.68 0.41 -0.31 3444
0.00 0.00 -0.68 -4.02 10.84 -0.62 0.37 -0.28 3451
0.00 0.00 -1.21 -6.67 8.16 -0.68 0.28 -0.25 3459
0.00 0.00 0.23 -2.74 11.03 -0.62 0.23 -0.28 3466
0.00 0.00 -0.53 -4.23 6.71 -0.65 0.19 -0.27 3473
0.00 0.00 -0.83 -5.86 7.98 -0.61 0.20 -0.28 3480
0.01 -0.00 -0.85 -4.61 8.88 -0.60 0.18 -0.31 3487
0.00 0.00 -2.94 -5.08 8.71 -0.57 0.19 -0.31 3494
0.00 0.00 -1.43 -6.03 10.18 -0.56 0.25 -0.31 3502
0.00 0.00 -0.42 -5.57 9.50 -0.58 0.24 -0.28 3509
0.00 0.00 -1.09 -3.73 9.84 -0.54 0.26 -0.29 3516
0.00 0.00 -2.04 -5.81 8.64 -0.55 0.24 -0.29 3523
0.00 0.00 0.47 -3.84 9.81 -0.61 0.29 -0.26 3530
0.00 0.00 -0.75 -3.71 10.64 -0.62 0.34 -0.22 3537
0.00 0.00 -0.84 -4.04 9.74 -0.67 0.31 -0.16 3545
0.00 0.00 0.09 -3.19 9.24 -0.67 0.30 -0.12 3552
0.00 0.00 0.71 -3.66 9.33 -0.67 0.28 -0.08 3559
0.00 0.00 0.00 -1.85 9.28 -0.70 0.25 -0.01 3566
0.00 0.00 0.39 -3.38 7.82 -0.66 0.21 0.03 3573
0.00 0.00 0.75 -2.75 8.66 -0.71 0.21 0.11 3580
0.00 0.00 0.73 -2.16 9.38 -0.70 0.24 0.15 3588
0.00 0.00 0.90 -1.48 9.65 -0.75 0.27 0.21 3595
0.00 0.00 0.79 -1.32 9.19 -0.75 0.35 0.26 3602
0.00 0.00 1.11 -1.09 9.09 -0.80 0.36 0.31 3609
0.00 0.00 0.27 -1.51 8.59 -0.80 0.41 0.38 3616
0.00 0.00 -0.01 -1.16 9.61 -0.80 0.46 0.45 3623
0.00 0.00 -0.26 -1.27 9.65 -0.82 0.48 0.50 3631
0.00 0.00 -0.75 -1.56 9.38 -0.82 0.45 0.54 3638
0.00 0.00 -0.51 -0.93 9.79 -0.85 0.40 0.58 3645
0.00 0.00 -0.58 -1.03 10.01 -0.87 0.32 0.61 3652
0.00 0.00 -0.34 -0.97 9.91 -0.90 0.26 0.63 3659
0.00 0.00 -0.11 -0.77 10.19 -0.96 0.23 0.63 3666
0.00 0.00 0.15 -0.54 10.44 -1.02 0.22 0.62 3674
0.00 0.00 0.30 -0.63 10.61 -1.10 0.22 0.61 3681
0.00 0.00 0.40 -0.77 10.56 -1.18 0.22 0.57 3688
0.00 0.00 0.55 -1.07 10.53 -1.23 0.22 0.53 3695
0.00 0.00 0.73 -1.49 10.49 -1.26 0.22 0.49 3702
0.00 0.00 0.88 -1.87 10.34 -1.28 0.21 0.45 3709
0.00 0.00 0.94 -2.30 10.11 -1.26 0.21 0.41 3717
0.00 0.00 0.99 -2.57 9.91 -1.23 0.24 0.38 3724
0.00 0.00 0.89 -2.76 9.89 -1.19 0.27 0.35 3731
0.00 0.00 0.72 -2.80 9.91 -1.13 0.29 0.33 3738
0.00 0.00 0.56 -2.87 9.93 -1.08 0.31 0.33 3745
0.00 0.00 0.52 -2.91 10.06 -1.03 0.30 0.32 3752
0.00 0.00 0.50 -3.00 10.14 -0.98 0.30 0.30 3760
0.00 0.00 0.41 -3.03 10.23 -0.95 0.29 0.28 3767
0.00 0.00 0.43 -3.03 10.21 -0.90 0.28 0.27 3774
0.00 0.00 0.37 -3.10 10.08 -0.84 0.24 0.25 3781
0.00 0.00 0.35 -2.98 10.04 -0.79 0.20 0.23 3788
0.00 0.00 0.37 -2.98 10.53 -0.74 0.17 0.22 3795
0.00 0.00 0.29 -3.61 11.42 -0.72 0.18 0.20 3803
0.00 0.00 0.50 -3.72 11.08 -0.76 0.19 0.14 3810
0.00 0.00 0.10 -0.73 10.01 -0.83 0.19 0.13 3817
0.00 0.00 0.09 -1.10 9.69 -0.86 0.30 0.11 3824
0.00 0.00 0.98 -1.70 9.92 -0.96 0.36 0.11 3831
0.00 0.00 1.17 -2.26 10.37 -1.01 0.44 0.12 3838
0.00 0.00 1.01 -2.21 10.39 -1.02 0.48 0.17 3846
0.00 0.00 1.26 -2.65 10.47 -0.98 0.53 0.17 3853
0.00 0.00 1.03 -2.60 9.88 -0.95 0.50 0.18 3860
0.00 0.00 0.96 -2.59 9.71 -0.91 0.45 0.18 3867
0.00 0.00 0.06 -4.73 11.19 -0.83 0.33 0.18 3874
0.00 0.00 -2.72 -7.07 13.01 -0.57 -0.17 0.07 3881
0.00 0.00 -0.84 -3.30 8.85 -0.31 -0.39 0.01 3889
0.00 0.00 -0.77 -4.61 6.76 -0.24 -0.47 -0.01 3896
0.00 0.00 -1.90 -7.91 10.77 -0.18 -0.60 -0.08 3903
0.00 0.00 -1.29 -5.38 10.02 0.04 -0.55 -0.16 3910
0.00 0.00 -0.32 -6.74 7.89 0.10 -0.32 -0.17 3917
0.00 0.00 -0.65 -8.01 7.20 0.11 -0.18 -0.17 3924
0.00 0.00 -1.35 -8.35 8.43 0.13 -0.17 -0.16 3932
-0.00 0.01 -1.32 -9.59 7.50 0.08 -0.14 -0.12 3939
0.00 0.00 -0.54 -9.45 6.21 0.12 -0.23 -0.06 3946
0.00 0.00 -1.51 -11.29 6.39 0.23 -0.22 0.05 3953
0.00 0.00 -2.22 -12.09 8.96 0.35 -0.38 0.12 3960
-0.00 0.03 -6.97 -18.97 11.86 0.31 -0.60 0.13 3969
-0.00 0.03 -6.73 -18.30 9.44 0.19 -0.54 0.06 3975
-0.00 0.03 -3.00 -9.85 9.87 0.05 -0.16 -0.03 3982
-0.00 0.02 -0.21 -2.35 9.54 -0.06 0.06 -0.08 3989
-0.00 0.03 0.17 -1.10 9.69 -0.16 0.11 -0.05 3996
-0.00 0.02 0.68 -0.41 9.54 -0.16 0.07 0.01 4003
-0.00 0.05 0.41 -0.44 9.61 -0.15 0.04 0.01 4011
0.02 0.06 0.48 -0.42 9.71 -0.14 0.02 -0.01 4018
0.02 0.10 0.40 -0.68 9.83 -0.10 0.01 -0.03 4025
0.02 0.08 0.41 -0.79 9.65 -0.12 -0.00 -0.04 4032
0.03 0.13 0.33 -0.91 9.98 -0.11 -0.00 -0.04 4039
0.03 0.13 0.22 -0.84 9.82 -0.09 0.01 -0.03 4046
0.01 0.17 0.23 -0.78 9.82 -0.09 0.02 -0.04 4054
0.05 0.18 0.27 -0.79 9.87 -0.08 0.03 -0.04 4061
0.04 0.25 0.34 -0.79 9.88 -0.09 0.03 -0.04 4068
0.03 0.25 0.28 -0.82 9.83 -0.08 0.03 -0.04 4075
-0.00 0.29 0.28 -0.71 9.67 -0.09 0.03 -0.04 4082
-0.01 0.27 0.31 -0.72 9.75 -0.09 0.03 -0.05 4089
-0.01 0.36 0.31 -0.69 9.83 -0.09 0.03 -0.04 4097
-0.01 0.36 0.29 -0.75 9.83 -0.08 0.03 -0.05 4104
0.00 0.40 0.35 -0.68 9.73 -0.08 0.03 -0.05 4111
0.00 0.38 0.33 -0.71 9.83 -0.07 0.03 -0.05 4118
-0.00 0.46 0.34 -0.68 9.85 -0.06 0.03 -0.05 4125
-0.01 0.46 0.33 -0.71 9.86 -0.06 0.03 -0.06 4132
-0.02 0.53 0.30 -0.72 9.87 -0.05 0.04 -0.05 4140
-0.02 0.55 0.31 -0.70 9.26 -0.04 0.04 -0.06 4147
-0.00 0.59 0.31 -0.69 9.85 -0.04 0.03 -0.06 4154
-0.01 0.63 0.33 -0.70 9.80 -0.04 0.03 -0.06 4161
-0.02 0.65 0.33 -0.73 9.81 -0.04 0.03 -0.06 4168
-0.02 0.68 0.29 -0.69 9.81 -0.04 0.03 -0.06 4175
-0.01 0.65 0.29 -0.70 9.81 -0.04 0.03 -0.07 4183
-0.01 0.65 0.28 -0.69 9.85 -0.03 0.03 -0.07 4190
0.01 0.60 0.30 -0.68 9.82 -0.02 0.04 -0.07 4197
-0.01 0.60 0.29 -0.71 9.82 -0.02 0.04 -0.07 4204
-0.00 0.58 0.30 -0.70 9.82 -0.01 0.04 -0.07 4211
-0.02 0.55 0.29 -0.66 9.82 -0.01 0.03 -0.07 4218
-0.00 0.57 0.29 -0.67 9.82 -0.01 0.04 -0.07 4226
0.01 0.58 0.23 -0.67 9.87 -0.01 0.04 -0.07 4233
0.01 0.56 0.27 -0.66 9.81 -0.01 0.04 -0.07 4240
-0.01 0.55 0.28 -0.69 9.88 -0.00 0.04 -0.07 4247
-0.00 0.53 0.29 -0.68 9.80 -0.00 0.04 -0.07 4254
-0.01 0.53 0.28 -0.67 9.82 -0.00 0.04 -0.07 4261
-0.00 0.53 0.28 -0.66 9.80 -0.00 0.04 -0.07 4269
0.00 0.54 0.31 -0.66 10.42 -0.00 0.04 -0.07 4276
0.00 0.52 0.32 -0.66 9.82 -0.00 0.04 -0.07 4283
-0.01 0.51 0.29 -0.68 9.77 -0.00 0.04 -0.08 4290
-0.00 0.49 0.32 -0.68 9.79 0.00 0.04 -0.07 4297
0.00 0.48 0.30 -0.70 9.80 -0.00 0.04 -0.07 4304
0.00 0.47 0.27 -0.71 9.20 0.00 0.04 -0.07 4312
0.01 0.46 0.27 -0.67 9.83 -0.00 0.04 -0.07 4319
0.00 0.44 0.28 -0.68 9.81 -0.00 0.04 -0.07 4326
0.00 0.45 0.28 -0.68 9.81 -0.00 0.04 -0.07 4333
-0.00 0.46 0.28 -0.70 9.82 -0.00 0.04 -0.07 4340
-0.01 0.46 0.29 -0.68 9.82 -0.00 0.04 -0.07 4347
-0.00 0.47 0.30 -0.71 9.79 -0.01 0.04 -0.07 4355
0.01 0.46 0.29 -0.68 9.76 -0.00 0.04 -0.07 4362
-0.00 0.46 0.32 -0.68 9.82 -0.00 0.04 -0.07 4369
-0.00 0.45 0.32 -0.70 9.80 -0.00 0.04 -0.07 4376
-0.01 0.46 0.30 -0.70 9.84 -0.00 0.03 -0.07 4383
0.00 0.45 0.29 -0.67 9.82 -0.01 0.04 -0.08 4390
0.02 0.46 0.31 -0.68 9.83 -0.00 0.04 -0.07 4398
0.03 0.45 0.28 -0.68 9.82 -0.00 0.04 -0.07 4405
0.01 0.44 0.29 -0.69 9.80 -0.00 0.04 -0.08 4412
0.02 0.45 0.26 -0.68 9.79 -0.00 0.04 -0.07 4419
0.01 0.46 0.30 -0.68 9.80 -0.00 0.04 -0.07 4426
0.01 0.47 0.28 -0.69 9.81 -0.00 0.04 -0.08 4433
0.03 0.47 0.29 -0.68 9.84 -0.00 0.04 -0.07 4441
0.03 0.47 0.30 -0.70 9.81 -0.00 0.04 -0.08 4448
0.02 0.45 0.29 -0.69 9.82 0.00 0.04 -0.07 4455
0.02 0.44 0.28 -0.69 9.83 0.00 0.04 -0.08 4462
0.01 0.45 0.32 -0.70 9.81 0.00 0.04 -0.07 4469
0.02 0.46 0.30 -0.72 9.84 0.00 0.04 -0.08 4476
0.03 0.43 0.27 -0.67 9.82 0.00 0.04 -0.07 4484
0.03 0.41 0.32 -0.71 9.81 0.00 0.04 -0.08 4491
0.02 0.42 0.27 -0.69 9.82 0.01 0.04 -0.08 4498
0.04 0.40 0.28 -0.71 9.81 0.01 0.04 -0.08 4505
0.05 0.40 0.29 -0.72 9.78 0.01 0.04 -0.08 4512
0.07 0.39 0.30 -0.71 9.82 0.01 0.04 -0.08 4519
0.09 0.35 0.29 -0.71 9.82 0.01 0.04 -0.09 4527
0.09 0.32 0.29 -0.71 9.79 0.01 0.04 -0.08 4534
0.08 0.33 0.27 -0.72 9.76 0.01 0.04 -0.08 4541
0.05 0.35 0.28 -0.67 9.83 0.01 0.04 -0.08 4548
0.07 0.35 0.32 -0.70 9.82 0.02 0.04 -0.09 4555
0.09 0.31 0.30 -0.69 9.82 0.02 0.04 -0.09 4562
0.12 0.25 0.29 -0.71 9.81 0.03 0.05 -0.09 4570
0.12 0.24 0.29 -0.72 9.82 0.03 0.05 -0.09 4577
0.14 0.18 0.28 -0.73 9.85 0.04 0.06 -0.09 4584
0.15 0.16 0.31 -0.74 9.81 0.04 0.05 -0.09 4591
0.15 0.10 0.27 -0.75 9.81 0.04 0.06 -0.09 4598
0.16 0.07 0.31 -0.72 9.81 0.05 0.06 -0.09 4605
0.21 0.02 0.30 -0.75 9.83 0.04 0.06 -0.09 4613
0.24 0.01 0.27 -0.72 9.82 0.05 0.07 -0.09 4620
0.23 -0.00 0.27 -0.79 9.83 0.05 0.07 -0.08 4627
0.22 0.01 0.24 -0.77 9.82 0.05 0.07 -0.08 4634
0.26 0.01 0.27 -0.85 9.82 0.06 0.08 -0.08 4641
0.32 0.01 0.29 -0.80 9.84 0.07 0.09 -0.08 4648
0.38 -0.01 0.30 -0.80 9.89 0.08 0.09 -0.07 4656
0.40 -0.01 0.29 -0.83 9.94 0.10 0.10 -0.07 4663
0.39 -0.02 0.35 -0.81 9.91 0.12 0.12 -0.08 4670
0.43 -0.03 0.34 -0.88 9.89 0.14 0.14 -0.07 4677
0.45 -0.01 0.29 -0.84 9.95 0.17 0.16 -0.08 4684
0.45 -0.03 0.35 -0.82 10.04 0.21 0.19 -0.09 4691
0.48 -0.01 0.40 -0.83 10.20 0.29 0.23 -0.09 4699
0.52 -0.03 0.42 -0.92 10.44 0.40 0.31 -0.09 4706
0.53 -0.03 0.46 -0.90 10.86 0.56 0.38 -0.10 4713
0.56 -0.01 0.54 -0.96 11.00 0.80 0.46 -0.11 4720
0.57 -0.01 0.69 -1.12 11.25 1.04 0.44 -0.13 4728
0.58 -0.02 0.63 -1.13 11.31 1.18 0.39 -0.15 4736
0.57 -0.02 0.57 -1.19 11.26 1.26 0.33 -0.15 4743
0.53 -0.03 1.20 -1.29 11.29 1.30 0.25 -0.15 4750
0.52 -0.03 0.67 -1.37 11.06 1.34 0.16 -0.15 4757
0.51 -0.02 0.64 -1.48 11.61 1.43 0.05 -0.17 4764
0.49 -0.01 0.83 -1.52 11.56 1.46 0.01 -0.17 4771
0.47 -0.02 0.77 -1.73 11.35 1.56 -0.04 -0.17 4779
0.43 -0.02 0.60 -1.82 11.22 1.65 -0.09 -0.17 4786
0.41 -0.04 0.51 -1.92 11.46 1.73 -0.14 -0.17 4793
0.37 -0.02 0.51 -2.12 10.65 1.77 -0.19 -0.17 4800
0.33 -0.02 0.51 -2.17 10.21 1.78 -0.18 -0.16 4807
0.30 -0.01 0.36 -2.27 10.20 1.82 -0.16 -0.15 4814
0.25 -0.02 0.45 -2.45 10.15 1.84 -0.15 -0.14 4822
0.22 -0.02 0.36 -2.67 10.17 1.87 -0.13 -0.13 4829
0.17 -0.02 0.12 -2.74 9.89 1.87 -0.20 -0.12 4835
0.16 -0.02 0.51 -3.03 9.94 1.89 -0.14 -0.11 4842
0.09 -0.01 0.62 -3.10 9.86 1.92 -0.12 -0.12 4849
0.07 -0.01 0.26 -3.24 9.82 1.92 -0.14 -0.13 4856
0.09 -0.01 0.35 -3.51 9.82 1.91 -0.13 -0.12 4864
0.10 -0.01 0.42 -3.68 9.85 1.90 -0.14 -0.12 4871
0.10 -0.01 0.33 -3.78 9.81 1.89 -0.12 -0.12 4878
0.08 -0.01 0.31 -4.03 9.82 1.86 -0.11 -0.12 4885
0.11 -0.00 0.29 -4.16 9.55 1.84 -0.10 -0.11 4892
0.13 -0.01 0.11 -4.87 9.54 1.82 -0.09 -0.10 4899
0.10 -0.01 0.13 -4.46 9.50 1.78 -0.07 -0.09 4907
0.08 -0.01 -0.52 -4.66 9.90 1.74 -0.07 -0.08 4914
0.08 -0.01 0.16 -5.06 10.60 1.69 -0.06 -0.07 4921
0.07 -0.01 0.42 -5.09 10.73 1.62 0.00 -0.06 4928
0.07 -0.00 0.31 -5.06 10.25 1.54 0.04 -0.05 4935
0.07 -0.01 0.21 -5.08 10.14 1.44 0.05 -0.05 4942
0.05 -0.00 0.06 -5.01 10.40 1.36 -0.01 -0.04 4950
0.05 -0.00 0.01 -5.06 10.89 1.23 -0.08 -0.04 4957
0.05 -0.01 -0.04 -5.25 11.24 1.11 -0.21 -0.05 4964
0.06 -0.01 0.00 -5.30 10.78 1.02 -0.35 -0.06 4971
0.04 -0.00 0.09 -5.18 9.82 0.95 -0.50 -0.06 4978
0.05 -0.00 0.10 -5.04 8.91 0.92 -0.61 -0.06 4985
0.04 -0.00 0.58 -4.28 8.03 0.90 -0.65 -0.05 4993
0.03 -0.00 1.25 -3.42 7.00 0.87 -0.63 -0.07 5000
0.00 0.00 1.67 -3.15 6.64 0.79 -0.58 -0.09 5007
0.01 -0.00 1.95 -1.94 6.72 0.69 -0.50 -0.14 5014
0.00 0.00 2.11 -1.61 6.79 0.60 -0.40 -0.21 5021
0.00 0.00 1.98 -0.01 7.54 0.47 -0.27 -0.27 5028
0.00 0.00 1.82 1.43 8.32 0.27 -0.12 -0.37 5036
0.00 0.00 1.46 1.64 8.30 0.12 -0.02 -0.48 5043
0.00 0.00 0.91 1.66 9.11 -0.03 0.08 -0.59 5050
0.00 0.00 0.29 2.82 9.18 -0.16 0.13 -0.72 5057
0.03 -0.00 0.70 2.17 8.79 -0.28 0.14 -0.85 5064
0.02 -0.00 0.69 1.72 8.94 -0.43 0.13 -0.91 5071
0.01 -0.00 0.72 1.90 9.11 -0.55 0.13 -0.95 5079
0.00 0.00 0.94 2.00 8.79 -0.67 0.11 -0.96 5086
0.00 0.00 0.99 1.80 8.48 -0.75 0.04 -0.94 5093
0.00 0.00 1.12 1.61 8.25 -0.82 -0.01 -0.88 5100
0.00 0.00 1.45 1.33 8.26 -0.87 -0.05 -0.82 5107
0.00 0.00 1.78 0.99 8.30 -0.89 -0.06 -0.74 5114
0.00 0.00 1.98 0.86 8.42 -0.91 -0.05 -0.67 5122
0.00 0.00 2.27 0.69 8.73 -0.94 0.01 -0.58 5129
0.00 0.00 2.46 0.58 8.96 -0.97 0.07 -0.49 5136
0.00 0.00 2.56 0.46 9.20 -1.02 0.16 -0.43 5143
0.00 0.00 2.48 0.33 9.32 -1.08 0.23 -0.35 5150
0.00 0.00 2.32 0.21 9.37 -1.14 0.29 -0.29 5157
0.00 0.00 2.22 0.00 9.43 -1.20 0.33 -0.21 5165
0.00 0.00 2.16 -0.22 9.55 -1.23 0.35 -0.15 5172
0.00 0.00 2.11 -0.30 9.76 -1.26 0.39 -0.10 5179
0.00 0.00 2.11 -0.55 10.00 -1.29 0.43 -0.05 5186
0.00 0.00 1.90 -0.93 10.22 -1.34 0.47 -0.02 5193
0.00 0.00 2.29 -1.23 10.59 -1.42 0.51 0.01 5200
0.00 0.00 2.03 0.13 12.56 -1.51 0.54 0.02 5208
0.00 0.00 1.61 -0.60 9.24 -1.58 0.49 0.02 5215
0.00 0.00 1.13 -1.91 10.96 -1.62 0.48 0.03 5222
0.00 0.00 2.63 -1.22 11.06 -1.65 0.48 0.05 5229
0.00 0.00 1.33 -1.10 9.33 -1.65 0.46 0.09 5236
0.00 0.00 1.42 -1.92 9.90 -1.61 0.51 0.13 5243
0.00 0.00 1.10 -2.26 10.54 -1.56 0.54 0.17 5251
0.00 0.00 1.14 -2.37 11.49 -1.50 0.59 0.22 5258
0.00 0.00 0.74 -2.40 10.65 -1.46 0.60 0.27 5265
0.00 0.00 0.27 -2.65 10.68 -1.38 0.59 0.32 5272
0.00 0.00 -0.15 -2.97 10.35 -1.35 0.54 0.38 5279
0.00 0.00 -0.09 -2.90 11.00 -1.31 0.50 0.43 5286
0.00 0.00 -0.01 -3.20 11.86 -1.28 0.48 0.46 5294
0.00 0.00 -0.27 -4.23 11.85 -1.26 0.46 0.44 5301
0.00 0.00 -0.03 -2.53 12.21 -1.25 0.42 0.37 5308
0.00 0.00 0.02 -3.11 11.88 -1.28 0.41 0.32 5315
0.00 0.00 -0.03 -4.01 12.96 -1.28 0.43 0.28 5322
0.00 0.00 -0.01 -3.00 10.20 -1.28 0.43 0.24 5329
0.00 0.00 0.18 -3.80 11.97 -1.26 0.43 0.20 5337
0.00 0.00 -0.36 -4.62 10.65 -1.19 0.43 0.18 5344
0.00 0.00 0.07 -4.20 11.81 -1.18 0.43 0.15 5351
0.00 0.00 -0.12 -3.95 9.97 -1.11 0.44 0.14 5358
0.00 0.00 0.25 -4.23 11.36 -1.04 0.43 0.13 5365
0.00 0.00 -0.82 -5.29 10.86 -0.99 0.36 0.12 5372
0.00 0.00 -2.69 -5.04 11.62 -0.91 0.18 0.08 5380
0.00 0.00 -2.78 -3.96 9.97 -0.82 0.00 0.05 5387
0.00 0.00 -2.17 -5.55 11.18 -0.68 -0.14 0.03 5394
0.00 0.00 -2.77 -4.78 9.41 -0.64 -0.27 0.00 5401
0.00 0.00 -1.05 -2.78 12.83 -0.64 -0.35 -0.03 5408
0.00 0.00 -0.46 -3.90 10.24 -0.69 -0.34 -0.07 5415
0.00 0.00 1.14 -3.75 10.56 -0.77 -0.20 -0.08 5423
0.00 0.00 1.94 -2.85 9.68 -0.91 0.10 -0.06 5430
0.00 0.00 1.95 -3.22 10.03 -1.03 0.28 -0.02 5437
0.00 0.00 1.60 -4.19 10.62 -1.08 0.44 0.03 5444
0.00 0.00 1.09 -4.36 10.41 -1.05 0.53 0.10 5451
0.00 0.00 0.56 -4.30 9.77 -0.98 0.56 0.20 5458
0.00 0.00 0.20 -3.99 9.13 -0.91 0.54 0.30 5466
0.00 0.00 -0.02 -3.95 9.08 -0.83 0.49 0.39 5473
0.00 0.00 -0.45 -4.34 9.47 -0.76 0.41 0.46 5480
0.00 0.00 -1.04 -5.62 10.24 -0.63 0.27 0.50 5487
0.00 0.00 -2.22 -5.96 9.84 -0.42 0.03 0.51 5494
0.00 0.00 -1.28 -5.71 9.94 -0.26 -0.23 0.50 5501
0.00 0.00 -0.94 -5.50 7.15 -0.17 -0.33 0.49 5509
0.00 0.00 -1.04 -7.03 7.20 -0.11 -0.43 0.46 5516
0.00 0.00 -1.21 -8.09 10.30 -0.01 -0.50 0.40 5523
0.00 0.00 -0.95 -7.72 9.32 0.11 -0.42 0.37 5530
0.00 0.00 -1.26 -6.59 8.68 0.10 -0.33 0.32 5537
0.00 0.00 -1.57 -7.92 10.90 0.08 -0.21 0.27 5544
0.00 0.00 0.24 -7.04 9.90 0.10 0.01 0.25 5552
0.00 0.00 0.24 -9.59 6.99 0.03 0.09 0.22 5559
0.00 -0.00 -0.65 -10.08 7.36 0.05 0.07 0.21 5566
0.00 0.00 -1.37 -11.78 5.69 0.13 -0.02 0.22 5573
0.00 0.00 -1.79 -11.06 5.25 0.32 -0.09 0.26 5580
0.00 0.00 -3.14 -14.48 7.67 0.54 -0.30 0.29 5587
-0.00 0.01 -3.49 -17.11 9.75 0.74 -0.53 0.31 5595
-0.00 0.03 -9.52 -21.20 15.35 0.48 -0.80 0.20 5602
0.00 0.02 -0.80 -1.63 9.85 -0.03 -0.04 0.02 5609
0.03 0.04 -0.42 -2.79 10.08 -0.14 0.09 -0.07 5616
-0.00 0.05 0.00 -0.90 9.80 -0.21 0.11 -0.05 5623
-0.00 0.04 0.50 -0.34 9.53 -0.20 0.05 -0.02 5630
-0.01 0.06 0.42 -0.50 9.71 -0.16 0.05 -0.02 5638
0.02 0.14 0.43 -0.56 9.82 -0.14 0.02 -0.04 5645
0.03 0.12 0.34 -0.78 9.96 -0.13 0.01 -0.06 5652
-0.01 0.09 0.38 -0.90 10.03 -0.10 0.01 -0.07 5659
0.00 0.09 0.35 -1.01 9.73 -0.08 0.00 -0.07 5666
-0.00 0.12 0.29 -0.89 9.81 -0.07 0.00 -0.07 5673
0.03 0.15 0.30 -0.90 9.86 -0.06 0.00 -0.07 5681
0.04 0.17 0.26 -0.92 9.78 -0.05 0.00 -0.07 5688
0.04 0.18 0.33 -0.90 9.82 -0.05 0.01 -0.06 5695
0.04 0.19 0.23 -0.89 9.87 -0.05 0.01 -0.06 5702
0.05 0.17 0.27 -0.86 9.89 -0.05 0.02 -0.06 5709
0.05 0.20 0.25 -0.84 9.90 -0.05 0.02 -0.07 5716
0.06 0.18 0.27 -0.88 9.84 -0.05 0.03 -0.07 5724
0.07 0.24 0.23 -0.81 9.79 -0.06 0.04 -0.07 5731
0.06 0.24 0.28 -0.82 9.80 -0.05 0.04 -0.07 5738
0.05 0.29 0.29 -0.82 9.85 -0.05 0.04 -0.06 5745
0.05 0.30 0.35 -0.79 9.71 -0.05 0.04 -0.07 5752
0.05 0.29 0.39 -0.80 9.82 -0.04 0.04 -0.07 5760
0.04 0.33 0.35 -0.80 9.81 -0.03 0.04 -0.08 5767
0.06 0.32 0.31 -0.81 9.86 -0.03 0.04 -0.07 5774
0.05 0.31 0.31 -0.84 9.83 -0.03 0.04 -0.07 5781
0.05 0.29 0.33 -0.86 9.27 -0.03 0.04 -0.08 5788
0.03 0.29 0.21 -0.84 9.83 -0.03 0.04 -0.07 5795
0.04 0.32 0.27 -0.76 9.85 -0.03 0.04 -0.07 5803
0.07 0.35 0.31 -0.78 9.86 -0.03 0.04 -0.07 5810
0.09 0.33 0.23 -0.78 9.84 -0.03 0.04 -0.06 5817
0.08 0.33 0.24 -0.79 9.85 -0.02 0.04 -0.07 5824
0.09 0.33 0.31 -0.84 9.85 -0.02 0.04 -0.07 5831
0.07 0.35 0.27 -0.82 9.86 -0.02 0.04 -0.07 5838
0.09 0.36 0.27 -0.83 9.83 -0.02 0.04 -0.07 5846
0.09 0.37 0.27 -0.81 9.83 -0.02 0.05 -0.07 5853
0.11 0.35 0.32 -0.78 9.82 -0.01 0.04 -0.07 5860
0.10 0.36 0.28 -0.80 9.83 -0.01 0.05 -0.07 5867
0.11 0.35 0.28 -0.79 9.84 -0.00 0.05 -0.07 5874
0.10 0.35 0.30 -0.82 9.83 -0.00 0.05 -0.07 5881
0.09 0.34 0.29 -0.75 9.81 0.00 0.04 -0.07 5889
0.10 0.34 0.30 -0.78 9.80 0.00 0.04 -0.07 5896
0.11 0.32 0.29 -0.78 9.82 0.01 0.04 -0.08 5903
0.10 0.33 0.33 -0.78 9.81 0.01 0.04 -0.08 5910
0.11 0.30 0.27 -0.80 9.20 0.00 0.04 -0.08 5917
0.09 0.32 0.30 -0.77 9.81 0.01 0.04 -0.08 5924
0.10 0.32 0.31 -0.79 9.79 0.01 0.03 -0.08 5932
0.12 0.30 0.30 -0.78 9.79 0.00 0.04 -0.08 5939
0.12 0.29 0.27 -0.79 9.79 0.00 0.03 -0.08 5946
0.13 0.30 0.32 -0.80 9.80 0.00 0.04 -0.07 5953
0.14 0.28 0.27 -0.78 9.81 0.00 0.04 -0.08 5960
0.14 0.26 0.29 -0.80 9.77 0.00 0.04 -0.08 5967
0.16 0.28 0.29 -0.75 9.81 -0.00 0.03 -0.08 5975
0.17 0.26 0.29 -0.81 9.80 0.00 0.03 -0.08 5982
0.17 0.24 0.28 -0.78 9.80 0.00 0.03 -0.08 5989
0.18 0.23 0.27 -0.80 9.79 0.00 0.03 -0.09 5996
0.18 0.23 0.26 -0.81 9.79 -0.00 0.07 -0.08 6003
0.20 0.24 0.32 -0.82 10.39 0.00 0.03 -0.08 6010
0.20 0.23 0.28 -0.85 9.82 -0.03 0.04 -0.08 6018
0.21 0.20 0.30 -0.80 9.79 0.00 0.03 -0.08 6025
0.22 0.21 0.31 -0.80 9.81 -0.00 0.03 -0.08 6032
0.21 0.19 0.28 -0.83 9.84 -0.00 0.03 -0.08 6039
0.21 0.21 0.30 -0.78 9.78 -0.00 0.03 -0.09 6046
0.21 0.21 0.27 -0.80 9.80 -0.00 0.03 -0.08 6053
0.23 0.20 0.28 -0.80 9.82 -0.00 0.03 -0.08 6061
0.23 0.20 0.29 -0.81 9.82 0.00 0.03 -0.08 6068
0.24 0.19 0.24 -0.83 9.81 -0.00 0.04 -0.08 6075
0.25 0.18 0.27 -0.81 9.82 -0.00 0.04 -0.08 6082
0.24 0.17 0.28 -0.79 9.81 -0.00 0.04 -0.08 6089
0.25 0.18 0.27 -0.80 9.85 0.00 0.04 -0.08 6096
0.26 0.19 0.27 -0.83 9.81 0.01 0.04 -0.08 6104
0.27 0.15 0.29 -0.82 9.79 0.01 0.04 -0.09 6111
0.28 0.15 0.29 -0.81 9.83 0.01 0.03 -0.08 6118
0.30 0.12 0.26 -0.82 9.82 0.01 0.04 -0.08 6125
0.28 0.11 0.28 -0.81 9.80 0.02 0.04 -0.08 6132
0.30 0.11 0.28 -0.79 10.40 0.01 0.04 -0.08 6139
0.36 0.08 0.25 -0.82 9.79 0.02 0.04 -0.09 6147
0.35 0.09 0.27 -0.84 9.82 0.02 0.04 -0.08 6154
0.37 0.09 0.27 -0.84 9.82 0.02 0.04 -0.08 6161
0.38 0.04 0.30 -0.84 9.81 0.03 0.04 -0.09 6168
0.45 0.03 0.26 -0.81 9.81 0.03 0.05 -0.08 6175
0.52 0.02 0.30 -0.80 9.83 0.04 0.05 -0.08 6182
0.54 -0.02 0.25 -0.83 9.83 0.04 0.05 -0.09 6190
0.56 -0.02 0.31 -0.80 9.82 0.05 0.06 -0.08 6197
0.58 -0.02 0.22 -0.85 9.86 0.06 0.06 -0.08 6204
0.61 -0.01 0.29 -0.84 9.86 0.07 0.06 -0.08 6211
0.64 -0.04 0.25 -0.89 9.84 0.08 0.07 -0.08 6218
0.63 -0.01 0.30 -0.89 9.87 0.09 0.07 -0.08 6225
0.64 -0.02 0.30 -0.82 9.86 0.11 0.07 -0.09 6233
0.67 -0.04 0.29 -0.89 9.85 0.13 0.08 -0.09 6240
0.71 -0.04 0.28 -0.94 9.90 0.15 0.08 -0.09 6247
0.73 -0.03 0.33 -0.92 9.84 0.17 0.09 -0.09 6254
0.77 -0.04 0.34 -0.91 9.91 0.19 0.09 -0.09 6261
0.79 -0.03 0.38 -0.97 9.88 0.21 0.09 -0.09 6268
0.84 -0.04 0.33 -0.97 9.98 0.25 0.11 -0.10 6276
0.86 -0.04 0.37 -1.02 10.12 0.30 0.12 -0.10 6284
0.88 -0.04 0.47 -0.94 10.17 0.38 0.14 -0.11 6291
0.89 -0.04 0.45 -1.07 10.26 0.46 0.16 -0.12 6298
0.91 -0.03 0.42 -1.08 10.36 0.56 0.18 -0.12 6305
0.93 -0.02 0.43 -1.18 10.35 0.65 0.20 -0.13 6312
0.92 -0.03 0.45 -1.23 10.38 0.71 0.19 -0.13 6320
0.93 -0.03 0.49 -1.27 10.61 0.80 0.18 -0.14 6327
0.92 -0.03 0.50 -1.37 11.02 0.89 0.18 -0.14 6333
0.91 -0.03 0.62 -1.46 11.26 0.99 0.17 -0.16 6341
0.92 -0.03 0.66 -1.43 11.29 1.10 0.14 -0.18 6348
0.93 -0.03 0.66 -1.57 11.21 1.19 0.09 -0.20 6355
0.92 -0.03 0.47 -1.63 11.08 1.29 0.05 -0.21 6363
0.87 -0.04 0.31 -1.60 11.15 1.35 0.00 -0.19 6369
0.84 -0.04 0.52 -2.32 11.43 1.41 -0.03 -0.19 6377
0.80 -0.03 0.55 -2.01 11.24 1.49 -0.07 -0.20 6383
0.73 -0.02 0.77 -2.13 11.27 1.60 -0.11 -0.23 6391
0.68 -0.03 0.94 -2.20 11.46 1.72 -0.16 -0.24 6398
0.60 -0.03 0.56 -2.30 11.21 1.82 -0.22 -0.26 6406
0.49 -0.03 0.40 -2.39 11.20 1.93 -0.25 -0.26 6413
0.40 -0.03 0.59 -2.49 11.08 2.04 -0.32 -0.26 6420
0.35 -0.03 0.38 -2.75 11.42 2.13 -0.29 -0.26 6427
0.26 -0.02 0.40 -2.97 11.06 2.21 -0.33 -0.26 6434
0.21 -0.02 0.21 -3.13 11.24 2.29 -0.29 -0.25 6441
0.12 -0.01 0.95 -3.22 10.74 2.33 -0.25 -0.26 6448
0.14 -0.01 0.30 -3.67 11.55 2.33 -0.22 -0.25 6455
0.07 -0.01 0.35 -3.88 11.91 2.35 -0.16 -0.24 6462
0.05 -0.00 0.25 -4.12 12.23 2.36 -0.11 -0.23 6469
0.03 -0.00 0.42 -4.19 11.95 2.33 -0.02 -0.22 6476
0.04 -0.00 0.60 -4.27 12.12 2.27 0.02 -0.22 6483
0.05 -0.01 0.53 -4.22 11.66 2.16 0.08 -0.22 6491
0.06 -0.01 0.02 -3.84 11.34 2.05 0.13 -0.21 6498
0.04 -0.00 -0.31 -3.74 10.71 1.93 0.08 -0.20 6505
0.04 -0.00 -0.71 -4.15 10.35 1.81 -0.05 -0.20 6512
0.05 -0.00 -0.99 -4.51 9.57 1.70 -0.18 -0.17 6519
0.03 -0.00 -1.03 -3.57 8.29 1.56 -0.28 -0.15 6526
0.00 0.00 -0.50 -3.62 6.84 1.40 -0.32 -0.11 6534
0.00 0.00 -0.07 -2.72 6.12 1.18 -0.31 -0.07 6541
0.00 0.00 -0.24 -3.58 5.84 0.97 -0.25 -0.03 6548
-0.00 0.00 -0.04 -2.80 6.25 0.85 -0.20 -0.03 6555
0.03 -0.00 0.42 -0.89 6.90 0.75 -0.24 -0.02 6562
0.02 -0.00 0.87 -3.09 5.94 0.63 -0.17 -0.05 6569
0.02 -0.00 0.73 0.66 7.45 0.53 -0.17 -0.06 6577
0.01 -0.00 0.52 1.64 7.53 0.35 -0.12 -0.06 6584
0.00 0.00 0.24 -1.77 6.38 0.20 -0.14 -0.10 6591
0.00 0.00 0.83 1.53 7.85 0.11 -0.19 -0.13 6598
0.00 -0.00 0.93 1.40 7.40 0.04 -0.21 -0.15 6605
0.00 0.00 1.32 0.56 7.38 -0.05 -0.22 -0.18 6612
0.02 -0.00 1.11 1.70 8.41 -0.16 -0.23 -0.18 6620
0.00 0.00 1.60 0.61 8.01 -0.26 -0.23 -0.19 6627
0.00 0.00 1.68 0.66 8.81 -0.37 -0.20 -0.19 6634
0.00 0.00 1.95 0.99 8.67 -0.49 -0.17 -0.17 6641
0.00 0.00 2.17 0.63 8.22 -0.59 -0.13 -0.15 6648
0.00 0.00 2.16 0.31 8.21 -0.69 -0.09 -0.11 6656
0.00 0.00 2.18 -0.06 8.28 -0.76 -0.05 -0.05 6663
0.00 0.00 2.17 -0.23 8.47 -0.82 -0.01 0.00 6670
0.00 0.00 2.18 -0.60 8.57 -0.86 0.04 0.06 6677
0.00 -0.00 2.26 -1.06 8.83 -0.90 0.09 0.11 6684
0.00 0.00 2.28 -1.64 9.07 -0.95 0.14 0.15 6691
0.00 0.00 2.27 -1.99 9.00 -0.99 0.19 0.17 6699
0.00 0.00 2.25 -2.80 9.32 -1.03 0.22 0.18 6706
0.00 0.00 1.85 -3.09 8.78 -1.04 0.27 0.17 6713
0.00 0.00 1.75 -2.32 9.59 -1.03 0.32 0.13 6720
0.00 0.00 1.34 -4.13 7.52 -1.02 0.36 0.10 6727
0.00 0.00 0.61 -4.81 8.49 -0.98 0.38 0.02 6734
0.00 0.00 0.85 -6.34 9.13 -0.97 0.39 -0.04 6742
0.00 0.00 0.66 -3.53 10.88 -0.95 0.42 -0.11 6749
0.00 0.00 -0.03 -7.82 8.30 -0.90 0.35 -0.23 6756
0.00 0.00 0.31 -4.38 10.76 -0.94 0.34 -0.27 6763
0.00 -0.00 -0.49 -8.60 7.08 -0.84 0.30 -0.30 6770
0.00 0.00 -0.71 -4.15 11.46 -0.84 0.30 -0.32 6777
0.00 0.00 -0.45 -7.30 7.97 -0.82 0.22 -0.32 6785
0.00 0.00 0.50 -4.00 9.33 -0.75 0.27 -0.34 6792
0.00 0.00 -0.49 -6.64 6.26 -0.77 0.24 -0.29 6799
0.00 0.00 -0.09 -4.70 11.32 -0.70 0.29 -0.27 6806
0.00 0.00 -1.14 -6.10 7.93 -0.72 0.29 -0.24 6813
0.00 0.00 -0.17 -4.76 7.32 -0.75 0.30 -0.21 6820
0.00 0.00 0.04 -4.01 9.86 -0.70 0.31 -0.22 6828
0.00 0.00 -0.10 -6.50 8.16 -0.77 0.27 -0.15 6835
0.00 0.00 -0.10 -5.15 10.90 -0.73 0.27 -0.12 6842
0.00 0.00 0.49 -3.58 10.60 -0.72 0.19 -0.08 6849
0.00 0.00 0.12 -3.94 9.52 -0.71 0.17 -0.08 6856
0.00 0.00 0.69 -2.42 10.35 -0.75 0.15 -0.08 6863
0.00 0.00 0.30 -3.44 7.95 -0.74 0.15 -0.05 6871
0.00 0.00 0.64 -2.71 9.77 -0.72 0.20 -0.03 6878
0.00 0.00 0.07 -3.75 9.77 -0.69 0.23 -0.01 6885
0.00 0.00 -0.27 -2.17 9.02 -0.69 0.25 0.01 6892
0.00 0.00 -0.97 -2.34 9.59 -0.63 0.23 0.02 6899
0.00 0.00 -0.57 -2.46 9.91 -0.64 0.21 0.03 6906
0.00 0.00 -0.55 -1.94 11.62 -0.71 0.19 0.04 6914
0.00 0.00 -0.09 -1.64 10.58 -0.73 0.18 0.05 6921
0.00 0.00 -0.17 -1.70 10.42 -0.81 0.21 0.06 6928
0.00 0.00 0.33 -1.05 10.04 -0.89 0.22 0.08 6935
0.00 0.00 0.25 -1.48 9.45 -0.92 0.27 0.09 6942
0.00 0.00 0.31 -1.67 9.81 -0.95 0.25 0.10 6949
0.00 0.00 0.28 -1.54 9.87 -0.97 0.24 0.09 6957
0.00 0.00 0.33 -1.64 9.81 -0.98 0.24 0.08 6964
0.00 0.00 0.37 -1.68 9.60 -0.98 0.22 0.07 6971
0.00 0.00 0.49 -1.71 9.45 -0.96 0.22 0.04 6978
0.00 0.00 0.47 -1.68 9.39 -0.93 0.24 0.03 6985
0.00 0.00 0.35 -1.61 9.29 -0.88 0.29 0.03 6992
0.00 0.00 0.20 -1.41 9.41 -0.84 0.33 0.04 7000
0.00 0.00 0.19 -1.27 9.75 -0.81 0.35 0.06 7007
0.00 0.00 0.30 -1.26 10.04 -0.81 0.34 0.06 7014
0.00 0.00 0.64 -1.27 10.85 -0.83 0.33 0.07 7021
0.00 0.00 1.10 -1.18 11.35 -0.89 0.36 0.07 7028
0.00 0.00 1.21 -1.38 11.17 -0.97 0.40 0.07 7035
0.00 0.00 1.21 -1.38 11.01 -1.06 0.45 0.08 7043
0.00 0.00 1.08 -1.65 10.65 -1.10 0.47 0.09 7050
0.00 0.00 0.92 -1.96 10.27 -1.11 0.49 0.10 7057
0.00 0.00 0.83 -2.27 10.16 -1.09 0.49 0.11 7064
0.00 0.00 0.75 -2.37 10.04 -1.04 0.50 0.12 7071
0.00 0.00 0.57 -2.31 10.02 -0.98 0.52 0.12 7078
0.00 0.00 0.33 -2.04 10.15 -0.91 0.53 0.13 7086
0.00 0.00 0.23 -1.73 10.18 -0.90 0.52 0.13 7093
0.00 0.00 0.10 -1.46 10.36 -0.87 0.50 0.14 7100
0.00 0.00 0.08 -1.51 10.49 -0.86 0.46 0.12 7107
0.00 0.00 0.18 -1.72 10.59 -0.86 0.41 0.11 7114
0.00 0.00 0.40 -1.96 10.67 -0.85 0.36 0.08 7121
0.00 0.00 0.65 -1.93 9.57 -0.84 0.33 0.05 7129
0.00 0.00 0.94 -2.38 10.28 -0.82 0.30 0.01 7136
0.00 0.00 1.01 -2.60 10.04 -0.78 0.28 -0.02 7143
0.00 0.00 1.02 -2.67 9.88 -0.70 0.27 -0.05 7150
0.00 0.00 0.95 -2.71 9.87 -0.62 0.25 -0.06 7157
0.00 0.00 1.21 -2.99 10.41 -0.55 0.21 -0.07 7164
0.00 0.00 -0.53 -4.28 11.43 -0.42 0.04 -0.07 7172
0.00 0.00 -0.36 -3.38 11.26 -0.28 -0.16 -0.07 7179
0.00 0.00 0.13 -1.87 8.89 -0.28 -0.20 -0.01 7186
0.00 0.00 0.33 -3.25 9.18 -0.34 -0.21 -0.01 7193
0.00 0.00 -0.29 -3.69 9.66 -0.39 -0.17 -0.00 7200
0.00 0.00 0.25 -4.06 9.96 -0.38 -0.15 -0.00 7207
0.00 0.00 0.04 -4.17 9.24 -0.35 -0.09 -0.01 7215
0.00 0.00 0.29 -4.77 8.37 -0.32 -0.07 -0.02 7222
0.00 0.00 -0.17 -4.61 9.15 -0.28 -0.13 -0.04 7229
0.00 0.00 -0.60 -4.31 9.91 -0.25 -0.14 -0.07 7236
0.00 0.00 -0.94 -5.83 10.20 -0.23 -0.17 -0.07 7243
0.00 0.00 -0.15 -5.20 9.12 -0.21 -0.20 -0.09 7250
0.00 0.00 -0.01 -4.35 8.93 -0.22 -0.18 -0.11 7258
0.00 0.00 0.01 -5.78 8.81 -0.20 -0.19 -0.15 7265
0.00 0.00 -0.22 -6.15 8.36 -0.16 -0.15 -0.18 7272
0.00 0.00 -0.91 -5.77 9.02 -0.07 -0.18 -0.19 7279
0.00 0.00 -0.95 -7.22 8.52 0.05 -0.21 -0.18 7286
0.00 0.00 -1.51 -9.34 6.80 0.16 -0.28 -0.17 7293
-0.00 0.00 -2.25 -7.16 6.13 0.35 -0.40 -0.18 7301
-0.00 0.00 -2.21 -10.89 7.47 0.48 -0.52 -0.18 7308
0.00 0.00 -2.21 -12.56 6.11 0.70 -0.56 -0.19 7315
-0.00 0.01 -2.41 -15.14 5.59 0.95 -0.62 -0.19 7322
-0.00 0.00 -2.85 -17.03 11.07 1.29 -0.88 -0.23 7329
-0.00 0.03 0.39 -2.93 18.07 0.66 -1.32 -0.25 7336
-0.00 0.04 -0.39 -3.37 10.30 -0.12 -0.10 0.02 7344
0.02 0.03 0.76 -1.37 9.43 -0.22 0.02 0.00 7351
0.01 0.08 0.05 -1.01 9.78 -0.24 -0.05 -0.02 7358
0.02 0.09 0.47 -0.59 9.79 -0.18 -0.07 -0.05 7365
-0.01 0.11 0.47 -0.57 9.78 -0.13 -0.07 -0.07 7372
-0.02 0.18 0.38 -0.75 10.00 -0.12 -0.06 -0.08 7379
-0.01 0.17 0.31 -1.01 10.01 -0.09 -0.05 -0.08 7387
0.03 0.19 0.15 -0.99 9.94 -0.07 -0.03 -0.07 7394
0.00 0.22 0.14 -0.86 9.84 -0.06 -0.01 -0.06 7401
-0.00 0.23 0.27 -0.88 9.87 -0.05 0.00 -0.07 7408
-0.02 0.24 0.26 -0.86 9.84 -0.04 0.01 -0.06 7415
-0.00 0.24 0.25 -0.84 9.77 -0.04 0.02 -0.06 7422
-0.00 0.27 0.27 -0.78 9.80 -0.04 0.03 -0.06 7430
0.02 0.29 0.27 -0.83 9.80 -0.04 0.03 -0.06 7437
0.03 0.28 0.29 -0.82 9.82 -0.04 0.03 -0.05 7444
0.03 0.27 0.36 -0.82 9.82 -0.03 0.04 -0.06 7451
0.03 0.27 0.33 -0.89 9.78 -0.03 0.04 -0.06 7458
0.02 0.30 0.31 -0.81 9.93 -0.03 0.04 -0.06 7465
0.03 0.30 0.32 -0.86 9.85 -0.03 0.04 -0.07 7473
0.03 0.29 0.35 -0.81 9.82 -0.03 0.04 -0.07 7480
0.03 0.26 0.30 -0.79 9.79 -0.03 0.03 -0.07 7487
0.02 0.26 0.29 -0.86 9.69 -0.03 0.03 -0.07 7494
0.01 0.27 0.26 -0.84 9.79 -0.03 0.03 -0.08 7501
0.03 0.29 0.35 -0.79 9.83 -0.03 0.03 -0.08 7508
0.04 0.29 0.28 -0.81 9.81 -0.04 0.03 -0.08 7516
0.04 0.34 0.28 -0.80 9.82 -0.03 0.03 -0.08 7523
0.05 0.33 0.27 -0.79 9.83 -0.03 0.03 -0.07 7530
0.04 0.31 0.30 -0.79 9.80 -0.03 0.03 -0.07 7537
0.04 0.35 0.30 -0.78 9.81 -0.03 0.03 -0.07 7544
0.05 0.37 0.29 -0.83 9.84 -0.03 0.03 -0.07 7552
0.06 0.38 0.32 -0.81 9.21 -0.03 0.04 -0.07 7559
0.08 0.35 0.34 -0.79 9.83 -0.02 0.04 -0.07 7566
0.10 0.38 0.30 -0.79 9.84 -0.02 0.03 -0.07 7573
0.10 0.39 0.31 -0.80 9.83 -0.02 0.03 -0.08 7580
0.09 0.38 0.24 -0.79 9.83 -0.01 0.03 -0.07 7587
0.09 0.40 0.29 -0.80 9.94 -0.01 0.03 -0.08 7595
0.15 0.39 0.30 -0.81 9.82 -0.01 0.03 -0.08 7602
0.15 0.38 0.27 -0.77 9.84 -0.00 0.03 -0.08 7609
0.14 0.36 0.28 -0.76 9.83 0.00 0.03 -0.08 7616
0.14 0.35 0.27 -0.76 9.82 0.00 0.03 -0.09 7623
0.16 0.34 0.28 -0.79 9.83 0.00 0.03 -0.08 7630
0.16 0.35 0.28 -0.79 9.83 0.00 0.03 -0.08 7638
0.17 0.32 0.25 -0.81 9.83 0.00 0.03 -0.09 7645
0.17 0.31 0.26 -0.81 9.82 0.01 0.03 -0.08 7652
0.18 0.30 0.29 -0.80 9.81 0.01 0.03 -0.08 7659
0.18 0.29 0.28 -0.79 9.81 0.01 0.03 -0.08 7666
0.20 0.29 0.26 -0.79 9.79 0.01 0.03 -0.08 7673
0.20 0.28 0.25 -0.80 9.82 0.01 0.03 -0.08 7681
0.20 0.28 0.30 -0.80 9.79 0.01 0.03 -0.08 7688
0.20 0.29 0.31 -0.80 9.81 0.01 0.03 -0.08 7695
0.19 0.27 0.29 -0.80 9.81 0.01 0.03 -0.09 7702
0.18 0.27 0.28 -0.82 9.82 0.00 0.03 -0.08 7709
0.20 0.24 0.30 -0.82 9.81 0.00 0.03 -0.09 7716
0.22 0.22 0.28 -0.86 9.80 0.01 0.03 -0.09 7724
0.24 0.22 0.27 -0.84 9.80 0.00 0.04 -0.09 7731
0.24 0.23 0.29 -0.84 9.79 -0.00 0.03 -0.08 7738
0.25 0.22 0.25 -0.81 9.80 0.00 0.03 -0.08 7745
0.25 0.24 0.28 -0.83 9.80 -0.00 0.03 -0.08 7752
0.27 0.24 0.29 -0.83 9.82 -0.00 0.03 -0.08 7759
0.30 0.23 0.24 -0.82 9.80 0.00 0.03 -0.09 7767
0.30 0.21 0.24 -0.80 9.81 -0.00 0.03 -0.08 7774
0.31 0.21 0.28 -0.81 9.20 -0.01 0.03 -0.09 7781
0.30 0.21 0.24 -0.81 9.82 -0.00 0.03 -0.08 7788
0.30 0.22 0.28 -0.79 9.82 -0.00 0.03 -0.08 7795
0.31 0.20 0.26 -0.82 9.80 -0.00 0.03 -0.08 7802
0.33 0.19 0.27 -0.80 9.81 -0.00 0.03 -0.08 7810
0.34 0.18 0.28 -0.83 9.81 -0.01 0.03 -0.08 7817
0.35 0.17 0.26 -0.84 9.84 -0.00 0.04 -0.08 7824
0.32 0.18 0.29 -0.78 9.81 -0.01 0.03 -0.08 7831
0.33 0.18 0.24 -0.80 9.81 -0.00 0.04 -0.08 7838
0.34 0.19 0.31 -0.81 9.82 -0.00 0.03 -0.08 7845
0.36 0.16 0.26 -0.83 9.81 -0.00 0.03 -0.09 7853
0.34 0.17 0.27 -0.81 9.79 0.00 0.04 -0.08 7860
0.34 0.15 0.30 -0.78 9.83 -0.00 0.03 -0.09 7867
0.34 0.13 0.25 -0.83 9.82 0.00 0.03 -0.09 7874
0.35 0.13 0.23 -0.83 9.81 0.01 0.04 -0.09 7881
0.38 0.11 0.26 -0.80 9.81 0.01 0.03 -0.09 7888
0.42 0.10 0.28 -0.82 9.81 0.01 0.04 -0.09 7896
0.46 0.10 0.25 -0.85 9.82 0.02 0.04 -0.09 7903
0.48 0.04 0.22 -0.83 9.82 0.02 0.04 -0.09 7910
0.49 0.01 0.30 -0.85 9.82 0.02 0.04 -0.09 7917
0.53 0.02 0.26 -0.83 9.84 0.02 0.04 -0.09 7924
0.53 0.06 0.31 -0.84 9.83 0.03 0.04 -0.09 7931
0.56 -0.00 0.26 -0.83 9.82 0.03 0.04 -0.09 7939
0.56 -0.01 0.24 -0.87 9.83 0.04 0.05 -0.10 7946
0.59 -0.04 0.24 -0.84 9.83 0.05 0.05 -0.10 7953
0.62 -0.01 0.24 -0.87 9.81 0.05 0.05 -0.10 7960
0.65 -0.02 0.23 -0.90 9.82 0.06 0.06 -0.09 7967
0.68 -0.02 0.24 -0.85 9.83 0.06 0.06 -0.09 7974
0.70 -0.03 0.23 -0.86 9.84 0.08 0.07 -0.09 7982
0.69 -0.03 0.25 -0.87 9.86 0.09 0.08 -0.09 7989
0.71 -0.03 0.26 -0.86 9.92 0.10 0.09 -0.09 7996
0.70 -0.02 0.28 -0.84 9.91 0.12 0.08 -0.09 8003
0.71 -0.02 0.32 -0.92 9.90 0.15 0.09 -0.09 8010
0.72 -0.03 0.30 -0.93 9.97 0.18 0.09 -0.09 8017
0.71 -0.03 0.31 -0.95 10.14 0.23 0.10 -0.10 8026
0.73 -0.04 0.39 -0.98 10.38 0.30 0.10 -0.10 8032
0.72 -0.03 0.37 -0.99 10.53 0.42 0.11 -0.12 8040
0.74 -0.04 0.55 -1.00 11.02 0.61 0.12 -0.13 8047
0.75 -0.03 0.51 -1.10 11.53 0.83 0.12 -0.15 8054
0.78 -0.02 0.43 -1.18 11.79 1.07 0.11 -0.15 8061
0.75 -0.02 0.55 -1.31 11.85 1.21 0.05 -0.16 8069
0.73 -0.03 0.63 -1.40 11.60 1.31 0.02 -0.17 8076
0.70 -0.03 0.77 -1.41 11.77 1.41 -0.03 -0.19 8083
0.67 -0.02 0.08 -1.53 11.61 1.48 -0.08 -0.22 8090
0.64 -0.02 0.46 -1.54 11.22 1.55 -0.11 -0.23 8097
0.59 -0.03 0.42 -1.60 10.84 1.63 -0.14 -0.24 8104
0.55 -0.03 0.26 -1.82 10.60 1.63 -0.18 -0.24 8112
0.49 -0.03 0.29 -2.04 10.11 1.66 -0.18 -0.23 8119
0.43 -0.02 0.22 -2.12 8.63 1.64 -0.27 -0.22 8125
0.42 -0.02 0.21 -2.28 9.71 1.60 -0.42 -0.20 8132
0.39 -0.02 0.12 -2.42 10.31 1.50 -0.36 -0.19 8140
0.37 -0.02 0.04 -1.90 10.62 1.54 -0.36 -0.18 8147
0.33 -0.03 0.08 -2.63 10.61 1.60 -0.31 -0.17 8155
0.24 -0.02 0.27 -2.78 10.52 1.68 -0.28 -0.18 8161
0.19 -0.02 0.12 -2.95 10.54 1.72 -0.29 -0.19 8168
0.16 -0.01 0.30 -3.05 10.01 1.74 -0.32 -0.19 8176
0.13 -0.01 0.44 -3.28 10.08 1.74 -0.31 -0.21 8182
0.11 -0.01 0.38 -3.47 10.28 1.75 -0.28 -0.24 8189
0.08 -0.01 0.30 -3.67 10.45 1.74 -0.29 -0.25 8197
0.08 -0.01 0.48 -3.75 10.21 1.73 -0.26 -0.27 8204
0.08 -0.01 0.23 -3.88 9.93 1.70 -0.26 -0.29 8211
0.07 -0.00 0.42 -4.02 10.06 1.65 -0.22 -0.30 8218
0.08 -0.01 0.55 -4.30 10.34 1.60 -0.16 -0.32 8225
0.08 -0.01 0.54 -4.41 10.72 1.55 -0.10 -0.34 8232
0.06 -0.01 0.81 -4.47 10.83 1.49 -0.02 -0.35 8240
0.03 -0.00 0.71 -4.31 10.79 1.42 0.05 -0.37 8247
0.05 -0.00 0.51 -4.25 10.67 1.35 0.06 -0.39 8254
0.05 -0.01 0.14 -4.25 10.29 1.29 0.00 -0.40 8261
0.04 -0.00 -0.13 -4.27 10.02 1.23 -0.10 -0.42 8268
0.02 -0.00 -0.14 -3.80 9.67 1.16 -0.21 -0.44 8275
0.02 -0.00 -0.03 -3.71 8.90 1.09 -0.31 -0.45 8283
0.00 0.00 0.61 -3.93 8.26 1.01 -0.37 -0.46 8290
0.00 0.00 0.16 -3.73 8.11 0.91 -0.43 -0.47 8297
0.00 0.00 0.62 -2.20 8.14 0.78 -0.45 -0.48 8304
0.00 0.00 1.00 -1.31 7.74 0.69 -0.41 -0.48 8311
0.00 0.00 1.19 -2.24 8.24 0.57 -0.38 -0.50 8318
0.00 0.00 0.69 -0.43 8.44 0.49 -0.36 -0.51 8326
0.00 0.00 1.15 -0.76 8.03 0.39 -0.30 -0.52 8333
0.00 0.00 1.18 -0.35 7.98 0.30 -0.29 -0.51 8340
0.04 -0.00 1.71 1.85 8.27 0.23 -0.27 -0.47 8347
0.03 -0.00 1.93 1.60 7.70 0.12 -0.23 -0.41 8354
0.03 -0.00 2.17 1.95 7.94 0.02 -0.16 -0.32 8361
0.02 -0.00 2.05 1.48 7.60 -0.09 -0.11 -0.22 8369
0.00 0.00 1.92 1.15 8.33 -0.14 -0.01 -0.12 8376
0.00 -0.00 2.51 2.26 8.59 -0.22 0.10 -0.03 8383
0.01 -0.00 2.48 2.13 8.12 -0.32 0.22 0.07 8390
0.01 -0.00 1.81 1.07 7.97 -0.43 0.35 0.17 8397
0.00 0.00 2.06 1.71 8.90 -0.50 0.42 0.23 8404
0.00 0.00 1.48 1.32 8.37 -0.62 0.47 0.33 8412
0.00 0.00 1.55 0.91 9.06 -0.68 0.52 0.42 8419
0.00 0.00 1.77 1.26 9.25 -0.78 0.56 0.51 8426
0.00 -0.00 1.08 0.10 8.68 -0.83 0.60 0.58 8433
0.00 0.00 0.30 -1.63 10.36 -0.90 0.62 0.56 8440
0.00 0.00 1.07 -0.40 10.28 -1.03 0.59 0.52 8448
0.00 0.00 -0.51 -2.06 9.53 -1.09 0.58 0.51 8455
0.00 0.00 0.08 -0.63 12.00 -1.12 0.58 0.48 8462
0.00 0.00 -1.01 -3.16 8.22 -1.18 0.48 0.48 8469
0.00 0.00 -0.08 -0.70 10.04 -1.19 0.47 0.49 8476
0.00 0.00 -0.71 -2.52 8.29 -1.10 0.41 0.44 8483
0.00 0.00 -0.62 -3.37 7.62 -1.17 0.33 0.43 8491
0.00 0.00 -0.93 -3.91 10.62 -1.07 0.29 0.38 8498
0.00 0.00 -0.68 -3.82 10.67 -1.08 0.22 0.31 8505
0.00 0.00 -0.34 -3.83 9.27 -1.03 0.15 0.16 8512
0.00 0.00 -0.53 -4.52 8.12 -1.09 0.08 0.14 8519
0.00 0.00 0.39 -4.40 13.38 -1.01 0.13 0.05 8526
0.00 0.00 0.64 -6.35 7.52 -1.03 0.09 -0.01 8534
0.00 0.00 -0.58 -5.58 12.60 -1.05 0.18 -0.06 8541
0.00 0.00 -0.34 -3.37 9.91 -1.02 0.24 -0.11 8548
0.00 0.00 -0.11 -3.91 9.00 -1.04 0.30 -0.12 8555
0.00 0.00 1.02 -2.59 9.77 -1.00 0.34 -0.11 8562
0.00 0.00 0.29 -4.18 9.54 -1.00 0.36 -0.06 8569
0.00 0.00 -1.18 -5.97 9.01 -1.00 0.32 0.00 8577
0.00 0.00 0.37 -4.60 11.34 -0.93 0.24 0.06 8584
0.00 0.00 0.61 -3.73 9.25 -0.93 0.20 0.11 8591
0.00 0.00 0.30 -4.23 9.91 -0.85 0.14 0.15 8598
0.00 0.00 1.26 -4.41 11.62 -0.85 0.13 0.17 8605
0.00 0.00 0.34 -3.73 10.02 -0.81 0.13 0.15 8612
0.00 0.00 0.76 -3.16 8.28 -0.81 0.15 0.13 8620
0.00 0.00 0.66 -3.66 10.02 -0.78 0.17 0.10 8627
0.00 0.00 0.35 -4.18 11.27 -0.79 0.22 0.06 8634
0.00 -0.00 -0.12 -3.85 12.98 -0.80 0.25 0.04 8641
0.00 0.00 -0.02 -3.01 10.31 -0.84 0.29 0.02 8648
0.00 0.00 0.84 -1.45 9.71 -0.85 0.32 0.03 8655
0.00 0.00 0.00 -2.18 11.24 -0.86 0.37 0.05 8663
0.00 0.00 0.28 -2.33 11.88 -0.86 0.39 0.07 8670
0.00 0.00 0.18 -1.60 9.47 -0.86 0.38 0.11 8677
0.00 0.00 0.17 -2.07 10.59 -0.86 0.36 0.13 8684
0.00 0.00 0.72 -1.46 10.09 -0.85 0.31 0.15 8691
0.00 0.00 0.87 -1.49 10.13 -0.84 0.28 0.16 8698
0.00 0.00 0.98 -1.60 10.38 -0.84 0.26 0.16 8706
0.00 0.00 1.13 -1.65 10.48 -0.84 0.27 0.16 8713
0.00 0.00 1.17 -1.77 10.38 -0.85 0.32 0.16 8720
0.00 0.00 0.96 -2.00 10.33 -0.87 0.36 0.16 8727
0.00 0.00 0.69 -2.14 10.08 -0.86 0.37 0.17 8734
0.00 0.00 0.46 -2.16 9.84 -0.84 0.37 0.17 8741
0.00 0.00 0.23 -1.99 9.79 -0.81 0.35 0.19 8749
0.00 0.00 0.14 -1.85 9.66 -0.76 0.30 0.22 8756
0.00 0.00 0.14 -1.76 9.70 -0.70 0.22 0.24 8763
0.00 0.00 0.07 -1.71 9.54 -0.65 0.16 0.27 8770
0.00 0.00 -0.28 -1.65 9.59 -0.58 0.09 0.29 8777
0.00 0.00 -0.26 -1.54 9.73 -0.53 0.08 0.33 8784
0.00 0.00 0.00 -1.81 10.08 -0.46 0.01 0.36 8792
0.00 0.00 0.15 -2.13 10.30 -0.41 -0.06 0.34 8799
0.00 -0.00 -0.07 -1.90 10.04 -0.40 -0.14 0.31 8806
0.00 0.00 0.55 -1.97 10.88 -0.46 -0.14 0.26 8813
0.00 0.00 1.14 -2.28 10.92 -0.51 -0.02 0.20 8820
0.00 0.00 1.12 -2.31 10.56 -0.60 0.07 0.11 8827
0.00 0.00 1.13 -2.26 10.52 -0.68 0.21 0.08 8835
0.00 0.00 0.88 -2.38 10.25 -0.73 0.36 0.02 8842
0.00 0.00 0.72 -2.62 10.29 -0.77 0.42 -0.02 8849
0.00 0.00 0.47 -2.88 10.04 -0.77 0.44 -0.07 8856
0.00 0.00 0.29 -2.97 9.81 -0.73 0.41 -0.10 8863
0.00 0.00 0.13 -2.98 9.72 -0.68 0.36 -0.13 8870
0.00 0.00 0.27 -2.92 9.66 -0.63 0.30 -0.15 8878
0.00 0.00 0.42 -2.87 9.62 -0.55 0.25 -0.16 8885
0.00 0.00 0.63 -2.86 9.60 -0.47 0.19 -0.17 8892
0.00 0.00 0.65 -2.84 9.55 -0.40 0.12 -0.19 8899
0.00 0.00 0.77 -2.89 9.48 -0.32 0.05 -0.21 8906
0.00 0.00 1.01 -2.80 9.57 -0.26 0.01 -0.23 8913
0.00 0.00 1.29 -2.81 9.72 -0.23 0.03 -0.23 8921
0.00 0.00 1.40 -2.92 10.54 -0.25 0.07 -0.24 8928
0.00 0.00 0.89 -3.14 10.68 -0.29 0.08 -0.25 8935
0.00 0.00 1.11 -3.21 10.23 -0.35 0.07 -0.25 8942
0.00 0.00 0.90 -2.75 9.63 -0.38 0.04 -0.23 8949
0.00 0.00 0.74 -3.58 9.65 -0.43 0.04 -0.19 8956
0.00 0.00 1.01 -3.68 9.25 -0.40 0.01 -0.13 8964
0.00 0.00 0.86 -4.29 8.40 -0.37 0.05 -0.09 8971
0.00 0.00 0.42 -4.82 9.97 -0.23 -0.02 -0.03 8978
0.00 0.00 1.35 -3.86 8.15 -0.17 0.02 0.00 8985
0.00 0.00 0.76 -4.95 8.55 -0.14 0.06 0.03 8992
0.00 0.00 -0.08 -5.20 9.49 -0.02 -0.06 0.06 8999
0.01 -0.00 -0.55 -4.64 8.05 0.06 -0.07 0.11 9007
0.01 -0.00 -0.66 -4.80 7.13 0.14 -0.12 0.15 9014
0.01 -0.00 -1.97 -5.88 9.74 0.29 -0.34 0.17 9021
0.01 -0.00 -1.59 -5.00 6.89 0.35 -0.41 0.18 9028
0.01 -0.00 -1.87 -8.32 9.32 0.47 -0.57 0.16 9035
0.02 -0.00 -1.78 -6.87 7.75 0.60 -0.66 0.15 9042
0.02 0.01 -1.57 -7.84 6.77 0.71 -0.63 0.20 9050
0.03 0.00 -2.42 -9.28 7.26 0.86 -0.66 0.28 9057
-0.00 0.00 -4.27 -11.83 8.37 1.08 -0.78 0.46 9064
-0.00 0.02 -9.52 -16.19 20.41 1.30 -1.15 0.63 9072
-0.00 0.02 -7.75 -6.25 17.50 0.27 -0.83 0.35 9078
0.01 0.02 -2.32 -3.53 8.51 -0.16 -0.03 0.02 9085
0.03 0.04 -0.76 -2.40 9.96 -0.27 0.05 -0.07 9093
0.03 0.05 -0.06 -1.00 9.16 -0.32 0.03 -0.09 9100
-0.01 0.06 0.77 -0.60 9.80 -0.26 0.06 -0.06 9107
-0.01 0.09 0.78 -0.47 10.01 -0.21 -0.00 -0.02 9114
0.01 0.12 0.59 -0.64 10.03 -0.17 -0.02 -0.05 9121
0.02 0.19 0.10 -0.97 9.99 -0.11 -0.01 -0.06 9128
0.02 0.21 0.00 -0.99 10.03 -0.09 0.02 -0.05 9136
0.04 0.25 0.13 -0.97 9.93 -0.08 0.04 -0.04 9143
0.04 0.26 0.26 -0.92 9.94 -0.07 0.05 -0.04 9150
0.04 0.24 0.20 -0.94 9.89 -0.07 0.05 -0.03 9157
0.04 0.21 0.18 -0.88 9.72 -0.07 0.05 -0.03 9164
0.05 0.26 0.25 -0.85 9.80 -0.08 0.05 -0.03 9171
0.06 0.28 0.36 -0.79 9.80 -0.07 0.05 -0.04 9179
0.05 0.31 0.33 -0.88 9.87 -0.07 0.04 -0.04 9186
0.06 0.25 0.26 -0.87 9.82 -0.06 0.04 -0.05 9193
0.05 0.29 0.29 -0.82 9.83 -0.06 0.04 -0.06 9200
0.04 0.33 0.28 -0.82 9.85 -0.06 0.04 -0.06 9207
0.05 0.33 0.30 -0.80 9.88 -0.05 0.04 -0.06 9214
0.06 0.33 0.25 -0.80 9.84 -0.04 0.04 -0.06 9222
0.07 0.35 0.24 -0.85 9.89 -0.04 0.04 -0.07 9229
0.07 0.33 0.21 -0.84 9.79 -0.04 0.04 -0.06 9236
0.06 0.36 0.24 -0.82 9.81 -0.04 0.04 -0.06 9243
0.07 0.40 0.26 -0.76 9.79 -0.03 0.05 -0.06 9250
0.06 0.42 0.27 -0.80 9.83 -0.03 0.05 -0.06 9257
0.06 0.41 0.28 -0.78 9.81 -0.03 0.05 -0.06 9265
0.05 0.41 0.27 -0.81 9.83 -0.02 0.05 -0.07 9272
0.05 0.39 0.30 -0.75 9.82 -0.02 0.04 -0.06 9279
0.04 0.40 0.25 -0.81 9.82 -0.02 0.04 -0.07 9286
0.05 0.41 0.25 -0.77 10.42 -0.01 0.04 -0.07 9293
0.06 0.42 0.24 -0.78 9.82 -0.01 0.04 -0.07 9300
0.07 0.40 0.26 -0.74 9.83 -0.01 0.04 -0.07 9308
0.07 0.39 0.26 -0.77 9.82 -0.01 0.04 -0.07 9315
0.06 0.39 0.24 -0.77 9.81 -0.01 0.04 -0.07 9322
0.05 0.40 0.25 -0.79 9.81 -0.00 0.04 -0.08 9329
0.07 0.41 0.26 -0.79 9.80 -0.00 0.04 -0.07 9336
0.07 0.40 0.29 -0.76 9.81 -0.00 0.04 -0.07 9344
0.08 0.40 0.27 -0.76 9.82 0.00 0.04 -0.07 9351
0.08 0.39 0.27 -0.77 9.82 0.00 0.04 -0.08 9358
0.07 0.37 0.22 -0.78 9.82 0.00 0.04 -0.07 9365
0.07 0.38 0.27 -0.77 9.81 -0.00 0.04 -0.08 9372
0.07 0.38 0.27 -0.75 9.79 -0.00 0.04 -0.08 9379
0.08 0.38 0.25 -0.75 10.41 0.00 0.04 -0.08 9387
0.08 0.36 0.26 -0.76 9.80 0.00 0.04 -0.08 9394
0.08 0.36 0.27 -0.77 9.80 0.00 0.04 -0.08 9401
0.08 0.34 0.27 -0.76 9.80 -0.00 0.03 -0.07 9408
0.08 0.34 0.24 -0.80 9.81 0.00 0.04 -0.07 9415
0.10 0.33 0.27 -0.80 10.42 0.00 0.04 -0.07 9422
0.11 0.32 0.26 -0.79 9.79 0.01 0.04 -0.08 9430
0.10 0.29 0.25 -0.80 9.81 0.00 0.04 -0.08 9437
0.10 0.27 0.23 -0.79 9.80 0.00 0.04 -0.08 9444
0.08 0.25 0.27 -0.79 9.80 -0.00 0.04 -0.08 9451
0.09 0.25 0.26 -0.81 9.79 0.00 0.04 -0.08 9458
0.11 0.26 0.25 -0.79 9.79 0.00 0.04 -0.08 9465
0.12 0.26 0.25 -0.82 9.84 -0.00 0.04 -0.08 9473
0.12 0.25 0.24 -0.79 9.81 -0.00 0.04 -0.08 9480
0.11 0.25 0.23 -0.80 9.80 -0.03 0.04 -0.08 9487
0.11 0.23 0.26 -0.80 9.81 0.00 0.04 -0.08 9494
0.13 0.22 0.29 -0.80 9.81 -0.00 0.05 -0.08 9501
0.14 0.23 0.20 -0.80 9.87 -0.00 0.05 -0.08 9508
0.15 0.20 0.24 -0.80 9.82 -0.00 0.05 -0.08 9516
0.15 0.24 0.23 -0.79 9.81 0.03 0.05 -0.08 9523
0.15 0.23 0.26 -0.79 9.82 0.00 0.05 -0.08 9530
0.13 0.24 0.25 -0.80 9.82 0.00 0.05 -0.08 9537
0.14 0.23 0.26 -0.84 9.81 0.00 0.05 -0.08 9544
0.16 0.23 0.22 -0.78 9.81 0.01 0.05 -0.08 9551
0.16 0.21 0.25 -0.81 9.80 0.01 0.05 -0.08 9559
0.15 0.19 0.27 -0.81 9.81 0.01 0.05 -0.08 9566
0.17 0.18 0.24 -0.77 9.82 0.01 0.05 -0.08 9573
0.17 0.18 0.27 -0.80 9.81 0.01 0.05 -0.08 9580
0.20 0.18 0.29 -0.78 9.83 0.01 0.05 -0.08 9587
0.20 0.19 0.23 -0.80 9.79 0.01 0.05 -0.08 9594
0.22 0.14 0.29 -0.85 9.81 0.01 0.05 -0.08 9602
0.20 0.16 0.25 -0.79 9.81 0.01 0.05 -0.08 9609
0.21 0.15 0.23 -0.78 9.82 0.01 0.05 -0.08 9616
0.22 0.13 0.24 -0.82 9.83 0.02 0.05 -0.09 9623
0.24 0.12 0.21 -0.82 9.82 0.02 0.05 -0.08 9630
0.26 0.08 0.27 -0.84 9.82 0.02 0.05 -0.08 9637
0.26 0.03 0.28 -0.85 9.83 0.02 0.05 -0.08 9645
0.26 0.01 0.22 -0.77 9.81 0.02 0.05 -0.08 9652
0.26 -0.01 0.27 -0.82 9.81 0.02 0.05 -0.08 9659
0.28 -0.00 0.26 -0.83 9.81 0.02 0.06 -0.08 9666
0.33 0.01 0.26 -0.80 9.81 0.03 0.06 -0.08 9673
0.34 -0.01 0.26 -0.84 10.42 0.03 0.06 -0.09 9680
0.38 -0.01 0.27 -0.85 9.82 0.04 0.06 -0.08 9688
0.39 -0.01 0.29 -0.85 9.85 0.04 0.07 -0.08 9695
0.42 -0.01 0.29 -0.91 9.82 0.04 0.07 -0.08 9702
0.42 -0.01 0.30 -0.87 9.83 0.05 0.07 -0.08 9709
0.41 -0.01 0.32 -0.85 9.82 0.06 0.07 -0.08 9716
0.44 -0.02 0.31 -0.85 9.84 0.06 0.08 -0.08 9723
0.48 -0.02 0.28 -0.91 9.83 0.08 0.09 -0.07 9731
0.47 -0.02 0.28 -0.88 9.85 0.09 0.09 -0.08 9738
0.47 -0.02 0.29 -0.88 9.88 0.10 0.11 -0.08 9745
0.48 -0.01 0.31 -0.91 9.95 0.13 0.12 -0.08 9752
0.50 -0.01 0.43 -0.92 9.94 0.16 0.14 -0.09 9759
0.53 -0.03 0.37 -0.93 9.97 0.19 0.16 -0.09 9766
0.55 -0.04 0.38 -0.97 10.01 0.24 0.19 -0.10 9774
0.56 -0.02 0.36 -1.00 10.14 0.32 0.22 -0.11 9782
0.57 -0.03 0.41 -0.99 10.29 0.38 0.26 -0.11 9789
0.59 -0.02 0.51 -1.08 10.57 0.52 0.33 -0.12 9796
0.62 -0.02 0.61 -1.13 10.75 0.68 0.37 -0.13 9803
0.65 -0.03 0.64 -1.14 10.63 0.90 0.37 -0.15 9810
0.66 -0.03 0.65 -1.23 11.45 1.10 0.33 -0.17 9818
0.68 -0.02 0.70 -1.43 11.51 1.23 0.30 -0.19 9825
0.67 -0.02 0.67 -1.34 11.24 1.32 0.19 -0.20 9832
0.67 -0.02 0.74 -1.47 11.37 1.37 0.10 -0.22 9839
0.67 -0.02 0.51 -1.55 11.50 1.43 0.05 -0.23 9846
0.61 -0.03 0.58 -1.67 11.50 1.51 0.01 -0.23 9852
0.59 -0.03 0.42 -1.80 11.16 1.57 -0.03 -0.23 9861
0.56 -0.03 0.32 -1.89 10.76 1.64 -0.08 -0.22 9868
0.51 -0.02 0.43 -2.01 10.62 1.68 -0.15 -0.21 9875
0.48 -0.01 0.68 -2.05 9.41 1.71 -0.20 -0.20 9881
0.44 -0.02 0.32 -2.20 10.60 1.75 -0.19 -0.18 9889
0.41 -0.03 0.22 -2.28 10.54 1.80 -0.17 -0.17 9896
0.37 -0.03 0.23 -2.46 10.16 1.87 -0.17 -0.15 9904
0.33 -0.02 0.64 -2.76 9.77 1.90 -0.16 -0.14 9910
0.27 -0.02 0.24 -2.86 10.07 1.87 -0.18 -0.12 9918
0.25 -0.02 0.27 -3.05 10.00 1.89 -0.10 -0.12 9924
0.22 -0.02 0.11 -3.21 9.97 1.92 -0.10 -0.11 9931
0.18 -0.02 0.33 -3.41 9.99 1.93 -0.05 -0.10 9938
0.10 -0.01 0.25 -3.52 9.80 1.93 -0.03 -0.09 9946
0.04 -0.00 0.25 -3.60 9.81 1.92 -0.02 -0.09 9953
0.06 -0.01 -0.08 -3.80 9.85 1.90 -0.00 -0.07 9960
0.07 -0.01 -0.12 -4.02 9.66 1.88 -0.00 -0.05 9967
0.07 -0.01 -0.02 -4.16 9.58 1.85 0.03 -0.02 9974
0.08 -0.01 0.04 -4.49 9.99 1.80 0.10 0.00 9981
0.04 -0.00 0.08 -4.60 10.05 1.76 0.17 0.02 9989
0.05 -0.00 0.13 -4.67 9.89 1.69 0.21 0.04 9996
0.06 -0.00 0.24 -4.74 9.91 1.58 0.25 0.05 10003
0.07 -0.01 0.21 -4.84 9.98 1.50 0.25 0.06 10010
0.07 -0.01 0.04 -4.79 9.88 1.38 0.20 0.06 10017
0.05 -0.01 0.09 -4.63 10.03 1.31 0.12 0.05 10024
0.06 -0.01 0.02 -4.72 10.08 1.22 -0.04 0.04 10032
0.06 -0.01 -0.10 -4.86 10.12 1.11 -0.24 0.03 10039
0.06 -0.01 0.21 -5.47 9.93 1.06 -0.41 0.02 10046
0.05 -0.01 0.76 -5.02 9.83 0.99 -0.53 0.01 10053
0.01 -0.00 1.02 -4.22 9.80 0.95 -0.55 0.00 10060
0.01 -0.00 1.51 -3.70 8.81 0.87 -0.50 -0.02 10067
0.00 0.00 1.64 -2.37 8.68 0.77 -0.37 -0.05 10075
0.02 -0.00 1.81 -1.83 7.30 0.62 -0.25 -0.08 10082
0.01 0.00 2.11 -0.26 7.07 0.46 -0.17 -0.14 10089
0.02 -0.00 1.98 -0.17 7.09 0.32 -0.15 -0.24 10096
0.00 -0.00 1.48 1.39 7.92 0.17 -0.17 -0.31 10103
0.00 0.00 1.48 2.72 8.10 0.00 -0.13 -0.41 10110
0.00 -0.00 1.26 3.06 9.36 -0.17 -0.12 -0.55 10118
0.00 0.00 1.34 2.63 8.74 -0.31 -0.11 -0.68 10125
0.00 0.00 1.17 3.72 9.17 -0.39 -0.04 -0.88 10132
0.00 0.00 0.84 2.97 9.07 -0.48 -0.05 -1.03 10139
0.00 0.00 0.78 2.72 8.49 -0.58 -0.06 -1.17 10146
0.00 0.00 0.85 2.81 8.66 -0.64 -0.07 -1.27 10153
0.00 0.00 0.98 2.62 8.55 -0.71 -0.12 -1.31 10161
0.00 0.00 0.95 2.54 8.35 -0.75 -0.18 -1.31 10168
0.00 -0.00 1.00 2.38 8.25 -0.80 -0.21 -1.24 10175
0.00 -0.00 1.17 2.17 8.44 -0.85 -0.22 -1.21 10182
0.00 0.00 1.31 1.87 8.70 -0.89 -0.21 -1.12 10189
0.00 0.00 1.36 1.04 8.80 -0.93 -0.16 -1.04 10196
0.00 0.00 1.75 -1.01 9.36 -0.95 -0.07 -0.93 10204
0.00 0.00 1.31 0.20 10.26 -0.97 0.04 -0.82 10211
0.00 0.00 2.29 -4.41 8.37 -1.06 0.21 -0.72 10218
0.00 0.00 0.90 -2.24 13.47 -1.13 0.38 -0.65 10225
0.00 0.00 1.43 -3.75 9.65 -1.27 0.52 -0.57 10232
0.00 0.00 1.18 -0.46 11.96 -1.35 0.64 -0.50 10240
0.00 0.00 0.47 -1.14 9.13 -1.37 0.66 -0.40 10247
0.00 0.00 -0.00 -0.54 7.97 -1.47 0.66 -0.32 10254
0.01 -0.00 -0.01 -1.84 9.67 -1.45 0.61 -0.19 10261
0.00 0.00 -0.17 -0.45 10.22 -1.44 0.56 -0.06 10268
0.00 0.00 -0.37 -3.09 9.65 -1.42 0.51 0.06 10275
0.00 0.00 -0.31 -1.24 10.43 -1.42 0.47 0.16 10283
0.00 0.00 0.15 -2.96 9.30 -1.34 0.38 0.21 10290
0.00 0.00 1.14 -0.89 9.31 -1.40 0.34 0.25 10297
0.00 0.00 0.47 -2.13 10.22 -1.30 0.29 0.27 10304
0.00 0.00 1.30 -2.74 10.58 -1.29 0.30 0.28 10311
0.00 0.00 1.10 -2.52 12.20 -1.29 0.31 0.25 10318
0.00 0.00 0.22 -2.22 12.22 -1.22 0.36 0.23 10326
0.00 0.00 -3.17 -4.84 9.40 -1.29 0.36 0.19 10333
0.00 0.00 2.11 -2.41 12.15 -1.27 0.39 0.17 10340
0.00 0.00 0.24 -1.33 11.09 -1.34 0.46 0.15 10347
0.00 0.00 -0.15 -1.58 10.23 -1.39 0.47 0.12 10354
0.00 0.00 0.54 -2.02 10.86 -1.41 0.49 0.10 10361
0.00 0.00 0.57 -2.42 11.22 -1.42 0.52 0.09 10369
0.00 0.00 0.50 -2.41 10.97 -1.42 0.53 0.08 10376
0.00 0.00 0.62 -2.23 10.74 -1.38 0.59 0.08 10383
0.00 0.00 0.56 -1.96 10.23 -1.34 0.56 0.05 10390
0.00 0.00 0.20 -1.94 10.38 -1.31 0.48 0.02 10397
0.00 0.00 0.42 -1.80 10.56 -1.28 0.42 0.00 10404
0.00 0.00 0.63 -1.91 10.78 -1.25 0.38 -0.02 10412
0.00 0.00 0.81 -2.08 10.93 -1.21 0.36 -0.04 10419
0.00 0.00 0.88 -2.19 11.09 -1.19 0.40 -0.05 10426
0.00 0.00 0.86 -2.14 10.95 -1.20 0.44 -0.04 10433
0.00 0.00 0.59 -2.35 11.20 -1.19 0.48 -0.00 10440
0.00 0.00 0.07 -2.34 10.86 -1.17 0.48 0.05 10447
0.00 0.00 0.37 -2.57 10.95 -1.14 0.49 0.12 10455
0.00 0.00 0.35 -2.52 10.59 -1.11 0.44 0.20 10462
0.00 0.00 0.38 -2.59 10.51 -1.09 0.40 0.26 10469
0.00 0.00 0.99 -2.84 11.10 -1.04 0.35 0.30 10476
0.00 0.00 0.78 -2.85 10.63 -1.01 0.37 0.33 10483
0.00 0.00 0.53 -2.49 9.99 -0.97 0.38 0.35 10490
0.00 0.00 0.51 -2.31 9.87 -0.93 0.39 0.37 10498
0.00 0.00 0.33 -2.73 10.29 -0.87 0.40 0.39 10505
0.00 0.00 0.46 -3.01 9.83 -0.76 0.35 0.37 10512
0.00 0.00 0.35 -3.00 9.70 -0.67 0.30 0.31 10519
0.00 0.00 0.57 -3.38 10.12 -0.54 0.29 0.26 10526
0.00 0.00 0.49 -3.48 9.65 -0.44 0.28 0.22 10533
0.00 0.00 0.31 -4.21 9.93 -0.38 0.23 0.16 10541
0.00 0.00 -0.45 -5.29 9.86 -0.28 0.13 0.12 10548
0.00 0.00 -1.17 -5.96 10.84 -0.16 -0.11 0.08 10555
0.00 0.00 -0.65 -4.48 8.92 -0.03 -0.21 0.08 10562
0.00 0.00 0.23 -4.55 8.82 -0.02 -0.19 0.11 10569
0.00 0.00 1.10 -5.07 8.48 -0.09 -0.15 0.12 10576
0.00 0.00 0.41 -5.82 10.13 -0.08 0.00 0.14 10584
0.00 0.00 0.82 -4.84 10.34 -0.04 0.21 0.18 10591
0.00 0.00 0.97 -5.11 8.86 -0.06 0.36 0.21 10598
0.00 0.00 0.24 -5.24 8.58 -0.04 0.42 0.23 10605
0.00 0.00 -0.03 -6.00 10.71 0.01 0.39 0.25 10612
0.00 0.00 -1.49 -5.61 8.61 0.06 0.29 0.27 10619
0.00 0.00 -1.80 -4.88 7.42 0.07 0.12 0.28 10627
0.00 0.00 -1.36 -6.18 8.43 0.05 -0.01 0.28 10634
0.00 0.00 -1.94 -6.10 9.18 0.03 -0.16 0.26 10641
0.00 0.00 -1.83 -6.30 8.23 0.06 -0.29 0.23 10648
0.00 0.00 -1.57 -7.92 7.78 0.08 -0.34 0.22 10655
0.00 0.00 -1.31 -8.92 7.81 0.24 -0.40 0.19 10662
0.00 0.00 -0.70 -8.61 6.74 0.36 -0.38 0.18 10670
0.00 -0.00 -1.97 -11.13 7.70 0.50 -0.44 0.16 10677
0.00 0.00 -3.44 -11.62 6.71 0.72 -0.63 0.15 10684
-0.00 0.00 -5.16 -15.88 11.31 0.87 -0.92 0.13 10692
0.00 0.00 -11.60 -25.57 17.50 0.52 -1.31 0.01 10698
-0.00 0.01 -4.65 -13.24 8.20 0.04 -0.21 -0.02 10705
-0.00 0.02 -0.27 -3.17 9.77 -0.25 0.10 -0.03 10713
0.00 0.03 -0.53 -1.94 10.03 -0.36 0.13 -0.06 10720
-0.00 0.03 0.76 -0.62 9.38 -0.37 0.07 -0.01 10727
-0.01 0.06 0.56 -0.43 10.09 -0.31 0.06 -0.02 10734
-0.01 0.11 0.62 -0.11 9.94 -0.21 0.00 -0.06 10741
-0.02 0.16 0.58 -0.43 9.94 -0.13 0.01 -0.09 10748
0.00 0.22 0.35 -1.16 10.10 -0.07 0.01 -0.08 10756
0.00 0.20 0.16 -1.16 10.05 -0.06 0.02 -0.06 10763
-0.00 0.16 0.15 -0.99 9.90 -0.06 0.03 -0.05 10770
0.00 0.21 0.29 -0.70 9.76 -0.05 0.05 -0.04 10777
-0.01 0.27 0.34 -0.75 9.76 -0.05 0.06 -0.04 10784
0.04 0.23 0.31 -0.87 9.81 -0.05 0.06 -0.04 10791
0.04 0.27 0.33 -0.89 9.83 -0.05 0.06 -0.04 10799
0.04 0.27 0.31 -0.82 9.72 -0.06 0.06 -0.04 10806
0.03 0.29 0.32 -0.80 9.78 -0.06 0.07 -0.04 10813
0.03 0.38 0.34 -0.80 9.76 -0.06 0.07 -0.03 10820
0.03 0.34 0.30 -0.81 9.78 -0.06 0.07 -0.04 10827
0.04 0.30 0.28 -0.79 9.80 -0.06 0.09 -0.03 10834
0.04 0.38 0.24 -0.81 9.82 -0.06 0.10 -0.03 10842
0.04 0.39 0.33 -0.80 9.87 -0.06 0.12 -0.03 10849
0.03 0.40 0.35 -0.80 9.85 -0.05 0.12 -0.04 10856
0.03 0.37 0.44 -0.76 9.82 -0.05 0.12 -0.03 10863
0.03 0.47 0.42 -0.71 9.81 -0.04 0.11 -0.04 10870
0.04 0.46 0.41 -0.72 9.68 -0.04 0.10 -0.04 10877
0.05 0.49 0.37 -0.67 9.81 -0.03 0.10 -0.04 10885
0.03 0.51 0.48 -0.82 9.83 -0.03 0.10 -0.04 10892
0.03 0.46 0.42 -0.81 9.82 -0.03 0.11 -0.04 10899
0.02 0.52 0.39 -0.80 9.83 -0.03 0.10 -0.05 10906
0.02 0.54 0.57 -0.73 9.86 -0.03 0.10 -0.05 10913
0.03 0.56 0.44 -0.74 9.82 -0.03 0.10 -0.05 10920
0.04 0.57 0.44 -0.71 9.80 -0.02 0.09 -0.05 10928
0.03 0.59 0.43 -0.74 9.79 -0.02 0.09 -0.05 10935
0.02 0.60 0.42 -0.73 9.83 -0.02 0.08 -0.05 10942
0.01 0.61 0.41 -0.71 9.82 -0.01 0.08 -0.06 10949
0.03 0.61 0.41 -0.72 9.82 -0.01 0.07 -0.05 10956
0.02 0.60 0.39 -0.73 9.82 -0.01 0.07 -0.06 10963
0.03 0.59 0.40 -0.73 9.78 -0.01 0.07 -0.06 10971
0.02 0.59 0.44 -0.75 9.80 -0.01 0.06 -0.05 10978
0.02 0.58 0.43 -0.72 9.78 -0.01 0.07 -0.06 10985
0.01 0.57 0.44 -0.70 9.82 -0.00 0.07 -0.06 10992
0.02 0.56 0.42 -0.72 9.81 -0.01 0.07 -0.06 10999
0.04 0.56 0.43 -0.73 9.82 -0.00 0.07 -0.06 11006
0.03 0.55 0.44 -0.71 9.78 -0.00 0.06 -0.06 11014
0.02 0.54 0.47 -0.74 9.77 -0.00 0.06 -0.06 11021
0.02 0.51 0.47 -0.69 9.77 0.01 0.06 -0.06 11028
0.02 0.51 0.46 -0.68 9.76 0.00 0.05 -0.06 11035
0.03 0.50 0.48 -0.74 9.77 0.00 0.05 -0.07 11042
0.03 0.50 0.43 -0.71 9.78 0.00 0.05 -0.07 11049
0.03 0.50 0.46 -0.74 9.82 0.00 0.04 -0.07 11057
0.03 0.51 0.41 -0.75 9.81 0.00 0.04 -0.07 11064
0.03 0.52 0.43 -0.73 9.81 0.00 0.04 -0.07 11071
0.02 0.51 0.48 -0.74 9.78 0.00 0.05 -0.07 11078
0.03 0.50 0.46 -0.76 9.81 0.01 0.04 -0.07 11085
0.05 0.46 0.49 -0.75 9.78 0.00 0.04 -0.07 11092
0.04 0.46 0.44 -0.74 9.79 0.01 0.04 -0.03 11100
0.04 0.45 0.47 -0.74 9.79 0.00 0.03 -0.06 11107
0.04 0.46 0.46 -0.77 9.81 0.01 0.04 -0.07 11114
0.04 0.47 0.43 -0.77 9.81 0.01 0.03 -0.07 11121
0.03 0.48 0.46 -0.74 9.80 0.01 0.04 -0.07 11128
0.05 0.46 0.45 -0.74 9.82 0.00 0.03 -0.07 11136
0.06 0.45 0.44 -0.75 9.81 -0.00 0.03 -0.07 11143
0.04 0.45 0.44 -0.77 9.82 -0.00 0.03 -0.07 11150
0.05 0.45 0.44 -0.76 10.37 -0.00 0.03 -0.07 11157
0.06 0.46 0.45 -0.74 9.80 -0.00 0.02 -0.07 11164
0.06 0.46 0.46 -0.76 9.84 -0.00 0.02 -0.07 11171
0.07 0.45 0.43 -0.77 9.78 -0.00 0.02 -0.07 11179
0.07 0.44 0.41 -0.79 9.80 -0.00 0.02 -0.07 11186
0.06 0.42 0.44 -0.76 9.75 -0.00 0.01 -0.07 11193
0.05 0.41 0.40 -0.76 9.80 -0.00 0.01 -0.07 11200
0.06 0.39 0.43 -0.75 9.79 -0.00 0.01 -0.08 11207
0.07 0.38 0.41 -0.77 9.82 -0.01 0.01 -0.08 11214
0.07 0.38 0.44 -0.76 9.77 -0.01 0.01 -0.08 11222
0.06 0.38 0.43 -0.74 9.76 -0.01 0.00 -0.08 11229
0.07 0.37 0.45 -0.74 9.78 -0.01 -0.00 -0.08 11236
0.07 0.37 0.41 -0.75 9.82 -0.00 -0.00 -0.08 11243
0.09 0.36 0.40 -0.75 9.78 -0.00 0.00 -0.08 11250
0.09 0.35 0.43 -0.76 9.82 0.00 0.00 -0.09 11257
0.09 0.35 0.39 -0.77 9.81 0.01 0.01 -0.09 11265
0.07 0.33 0.38 -0.76 9.78 0.01 0.02 -0.08 11272
0.08 0.29 0.33 -0.74 9.78 0.01 0.03 -0.08 11279
0.08 0.27 0.34 -0.76 9.82 0.02 0.04 -0.08 11286
0.09 0.28 0.40 -0.74 9.80 0.02 0.04 -0.08 11293
0.10 0.26 0.42 -0.77 9.81 0.03 0.05 -0.09 11300
0.11 0.22 0.41 -0.74 9.80 0.03 0.05 -0.09 11308
0.13 0.20 0.45 -0.77 9.82 0.04 0.06 -0.09 11315
0.13 0.17 0.40 -0.74 9.86 0.05 0.06 -0.09 11322
0.17 0.13 0.37 -0.77 9.83 0.05 0.06 -0.09 11329
0.19 0.09 0.41 -0.78 9.81 0.05 0.07 -0.09 11336
0.20 0.02 0.40 -0.82 9.81 0.06 0.07 -0.09 11343
0.21 0.04 0.45 -0.86 9.84 0.06 0.07 -0.09 11351
0.23 0.04 0.39 -0.83 9.85 0.06 0.08 -0.09 11358
0.27 0.05 0.41 -0.82 9.82 0.06 0.08 -0.08 11365
0.30 0.04 0.45 -0.84 9.84 0.06 0.08 -0.08 11372
0.31 0.01 0.42 -0.88 9.82 0.07 0.09 -0.08 11379
0.36 -0.02 0.46 -0.85 9.82 0.08 0.09 -0.09 11386
0.37 -0.01 0.45 -0.85 9.83 0.09 0.10 -0.09 11394
0.40 -0.02 0.47 -0.84 9.85 0.10 0.11 -0.09 11401
0.39 -0.01 0.46 -0.84 9.89 0.12 0.13 -0.09 11408
0.41 -0.03 0.50 -0.87 9.89 0.15 0.14 -0.09 11415
0.42 -0.02 0.47 -0.92 9.97 0.18 0.17 -0.10 11422
0.44 -0.02 0.53 -0.88 10.09 0.23 0.20 -0.11 11429
0.44 -0.02 0.53 -0.92 10.22 0.31 0.26 -0.11 11438
0.43 -0.02 0.65 -0.90 10.36 0.41 0.33 -0.11 11445
0.44 -0.02 0.67 -1.00 10.64 0.56 0.40 -0.13 11451
0.45 -0.02 0.81 -1.06 11.01 0.77 0.44 -0.14 11459
0.47 -0.02 0.94 -1.26 11.26 0.98 0.42 -0.17 11466
0.46 -0.02 1.03 -1.13 11.29 1.18 0.36 -0.19 11473
0.44 -0.02 1.02 -1.26 11.01 1.28 0.25 -0.23 11481
0.45 -0.03 0.79 -1.41 11.56 1.31 0.18 -0.24 11488
0.44 -0.03 0.93 -1.64 11.73 1.39 0.13 -0.24 11495
0.43 -0.01 1.02 -1.59 11.25 1.49 0.04 -0.25 11502
0.42 -0.02 0.69 -1.77 11.43 1.60 0.00 -0.27 11508
0.38 -0.02 0.63 -1.84 10.96 1.66 -0.05 -0.27 11516
0.36 -0.03 0.74 -1.88 10.08 1.69 -0.10 -0.25 11524
0.33 -0.02 0.42 -1.89 10.74 1.71 -0.14 -0.24 11531
0.31 -0.02 0.22 -2.15 10.69 1.70 -0.22 -0.24 11538
0.26 -0.01 0.51 -2.28 10.36 1.71 -0.20 -0.23 11545
0.25 -0.02 0.46 -2.38 10.09 1.75 -0.20 -0.21 11551
0.23 -0.02 0.51 -2.63 10.73 1.80 -0.22 -0.20 11559
0.24 -0.02 -0.30 -2.59 9.06 1.82 -0.33 -0.18 11566
0.16 -0.02 0.46 -3.02 10.54 1.85 -0.22 -0.16 11573
0.15 -0.01 0.32 -3.10 10.21 1.90 -0.20 -0.14 11580
0.13 -0.01 0.07 -3.21 10.11 1.93 -0.21 -0.11 11588
0.11 -0.01 0.30 -3.39 9.61 1.95 -0.15 -0.09 11594
0.06 -0.01 0.23 -3.64 10.32 1.97 -0.09 -0.08 11601
0.06 -0.01 0.11 -3.82 10.35 1.99 -0.05 -0.06 11609
0.04 -0.00 0.30 -3.98 10.43 2.01 -0.01 -0.04 11616
0.04 -0.00 0.38 -4.11 10.25 2.01 0.03 -0.04 11623
0.05 -0.00 0.53 -4.33 10.45 2.00 0.06 -0.03 11630
0.05 -0.01 0.68 -4.50 10.26 1.98 0.11 -0.04 11637
0.06 -0.01 0.74 -4.67 10.02 1.90 0.13 -0.05 11644
0.06 -0.01 0.67 -4.76 10.25 1.88 0.16 -0.05 11652
0.03 -0.00 0.60 -4.79 10.29 1.81 0.17 -0.06 11659
0.05 -0.00 0.46 -4.68 10.04 1.75 0.15 -0.07 11666
0.05 -0.01 0.57 -4.76 10.05 1.68 0.12 -0.07 11673
0.04 -0.00 0.19 -4.84 10.19 1.60 -0.00 -0.08 11680
0.04 -0.00 0.16 -5.21 10.92 1.50 -0.09 -0.09 11687
0.03 -0.00 0.26 -5.50 11.27 1.41 -0.21 -0.09 11695
0.04 -0.00 0.33 -5.55 11.75 1.32 -0.31 -0.10 11702
0.04 0.00 0.54 -5.26 11.38 1.20 -0.37 -0.09 11709
0.03 -0.00 0.53 -4.14 10.44 1.11 -0.41 -0.08 11716
0.01 -0.00 0.80 -3.09 9.33 1.05 -0.44 -0.08 11723
0.02 -0.00 0.92 -1.30 8.40 0.97 -0.48 -0.07 11730
0.01 -0.00 0.91 0.08 7.01 0.86 -0.50 -0.08 11738
0.01 -0.00 1.25 0.90 6.53 0.64 -0.49 -0.13 11745
0.01 0.00 1.42 1.96 6.51 0.39 -0.54 -0.20 11752
0.02 -0.00 1.67 5.40 7.71 0.18 -0.52 -0.31 11759
0.02 -0.00 1.36 4.32 8.17 -0.10 -0.46 -0.43 11766
0.00 -0.00 0.98 4.72 9.14 -0.31 -0.38 -0.60 11773
0.00 0.00 1.08 3.83 9.07 -0.50 -0.31 -0.75 11781
0.00 0.00 0.91 3.33 8.98 -0.62 -0.26 -0.91 11788
0.00 0.00 0.86 3.33 8.64 -0.68 -0.24 -1.04 11795
0.00 0.00 0.98 3.42 7.93 -0.72 -0.25 -1.14 11802
0.00 0.00 1.07 3.39 7.60 -0.75 -0.28 -1.22 11809
0.00 0.00 1.32 3.23 7.62 -0.80 -0.30 -1.27 11816
0.00 0.00 1.72 3.15 8.05 -0.86 -0.31 -1.29 11824
0.00 0.00 2.07 3.07 8.59 -0.94 -0.24 -1.28 11831
0.00 0.00 2.42 2.92 8.99 -1.05 -0.19 -1.25 11838
0.00 0.00 2.69 2.82 9.43 -1.20 -0.06 -1.18 11845
0.00 0.00 2.89 2.65 9.80 -1.32 0.07 -1.07 11852
0.00 0.00 2.96 2.33 9.77 -1.49 0.23 -0.96 11859
0.00 0.00 2.82 1.89 10.15 -1.62 0.35 -0.80 11867
0.00 0.00 2.76 1.35 9.89 -1.74 0.39 -0.65 11874
0.00 -0.00 2.70 0.51 9.80 -1.82 0.39 -0.48 11881
0.00 0.00 2.46 -0.64 9.80 -1.83 0.36 -0.30 11888
0.00 0.00 2.50 -1.70 10.55 -1.83 0.36 -0.16 11895
0.00 0.00 2.11 -2.66 10.53 -1.83 0.39 -0.01 11902
0.00 0.00 1.85 -4.58 10.58 -1.80 0.45 0.07 11910
0.00 0.00 2.84 -1.80 11.59 -1.83 0.53 0.13 11917
0.00 -0.00 2.30 -3.31 10.20 -1.85 0.55 0.19 11924
0.00 0.00 2.15 -4.16 10.18 -1.83 0.56 0.26 11931
0.00 0.00 1.19 -2.87 13.46 -1.78 0.61 0.36 11938
0.00 0.00 0.55 -3.41 10.54 -1.72 0.55 0.44 11945
0.00 0.00 1.75 -3.20 11.37 -1.66 0.59 0.55 11953
0.00 0.00 0.65 -3.91 10.70 -1.66 0.56 0.65 11960
0.00 0.00 1.82 -2.79 11.49 -1.63 0.57 0.73 11967
0.00 0.00 1.04 -2.53 10.50 -1.62 0.56 0.82 11974
0.00 0.00 1.08 -2.95 11.20 -1.57 0.57 0.90 11981
0.00 0.00 1.26 -2.93 10.82 -1.53 0.63 0.95 11988
0.00 0.00 1.00 -2.82 10.92 -1.49 0.70 0.96 11996
0.00 0.00 0.85 -2.66 10.92 -1.43 0.75 0.95 12003
0.00 0.00 0.63 -2.58 11.11 -1.37 0.77 0.93 12010
0.00 0.00 0.50 -2.46 11.51 -1.34 0.77 0.88 12017
0.00 0.00 0.32 -2.37 11.76 -1.32 0.75 0.85 12024
0.00 0.00 0.23 -2.43 12.06 -1.32 0.74 0.80 12032
0.00 0.00 0.26 -2.28 12.14 -1.34 0.71 0.76 12039
0.00 0.00 0.30 -2.45 11.65 -1.38 0.68 0.70 12046
0.00 0.00 0.55 -3.02 11.16 -1.41 0.65 0.63 12053
0.00 0.00 0.56 -2.83 10.67 -1.40 0.63 0.57 12060
0.00 0.00 0.72 -3.40 10.82 -1.36 0.63 0.50 12067
0.00 0.00 0.70 -3.66 10.71 -1.27 0.65 0.41 12075
-0.00 0.00 0.52 -3.61 10.24 -1.17 0.69 0.38 12082
0.00 0.00 0.38 -3.72 10.10 -1.06 0.72 0.33 12089
0.00 0.00 -0.29 -3.35 10.15 -0.99 0.74 0.33 12096
0.00 0.00 -0.78 -3.70 10.78 -0.88 0.63 0.33 12103
0.00 0.00 -1.33 -3.12 10.88 -0.83 0.43 0.31 12110
0.00 0.00 -1.11 -3.83 10.79 -0.76 0.20 0.28 12118
0.00 0.00 -1.06 -3.63 9.88 -0.70 -0.05 0.24 12125
0.00 -0.00 -1.32 -5.40 11.20 -0.58 -0.27 0.17 12132
0.00 0.00 -1.75 -4.94 10.88 -0.38 -0.60 0.06 12139
0.00 0.00 -0.67 -3.87 8.78 -0.27 -0.68 -0.02 12146
0.00 0.00 0.00 -4.03 8.54 -0.25 -0.69 -0.08 12153
0.00 0.00 0.04 -4.17 9.52 -0.26 -0.71 -0.17 12161
0.00 0.00 0.52 -4.49 10.77 -0.26 -0.65 -0.24 12168
0.00 0.00 0.61 -4.70 12.02 -0.27 -0.51 -0.31 12175
0.00 0.00 1.42 -4.06 9.91 -0.33 -0.25 -0.38 12182
0.00 0.00 1.68 -4.37 9.90 -0.50 -0.00 -0.42 12189
0.00 0.00 1.67 -4.39 9.39 -0.57 0.31 -0.43 12196
0.00 0.00 1.39 -4.38 9.47 -0.69 0.53 -0.42 12204
0.00 0.00 0.38 -5.78 11.18 -0.68 0.65 -0.38 12211
0.00 0.00 0.04 -5.49 9.82 -0.64 0.65 -0.33 12218
0.00 0.00 -0.11 -5.86 7.86 -0.62 0.62 -0.28 12225
0.00 0.00 -0.36 -6.25 8.85 -0.52 0.54 -0.20 12232
0.00 0.00 -0.98 -6.69 8.46 -0.44 0.46 -0.12 12239
0.00 0.00 -1.04 -6.25 8.52 -0.35 0.35 -0.06 12247
0.00 0.00 -1.06 -7.31 9.27 -0.33 0.25 0.01 12254
0.00 0.00 -1.01 -8.00 9.75 -0.21 0.14 0.08 12261
0.00 0.00 -1.03 -7.73 6.87 -0.13 0.05 0.15 12268
0.00 0.00 -0.97 -7.22 7.38 -0.06 -0.00 0.21 12275
0.00 0.00 -1.02 -9.03 7.89 0.02 -0.09 0.26 12282
-0.00 0.00 -0.70 -8.53 7.83 0.22 -0.16 0.31 12290
0.00 -0.00 -1.31 -8.64 7.45 0.32 -0.19 0.40 12297
0.00 0.00 -1.10 -10.55 7.87 0.48 -0.20 0.43 12304
0.00 0.00 -1.09 -11.76 6.01 0.63 -0.29 0.48 12311
0.00 0.00 -1.37 -12.24 6.02 0.83 -0.34 0.52 12318
-0.00 0.00 -2.62 -14.18 5.71 1.08 -0.56 0.57 12325
-0.00 0.03 -3.30 -14.06 6.57 1.36 -0.74 0.63 12333
0.00 0.02 -1.78 -3.33 8.63 1.79 -0.80 0.58 12340
-0.00 0.03 -2.88 -1.50 12.68 2.02 -0.99 0.42 12347
-0.00 0.04 -4.96 -5.14 25.23 0.70 -1.44 0.12 12354
-0.01 0.07 0.74 -0.23 6.19 -0.28 0.07 0.03 12361
-0.01 0.10 0.33 -1.12 10.62 -0.29 -0.03 -0.12 12368
-0.01 0.14 0.30 -0.75 9.74 -0.23 -0.07 -0.15 12376
0.02 0.16 0.96 -1.85 10.17 -0.14 -0.02 -0.18 12383
-0.01 0.19 0.67 -1.41 10.14 -0.11 -0.04 -0.10 12391
-0.00 0.20 0.35 -1.44 10.28 -0.10 -0.03 -0.08 12397
-0.01 0.23 0.08 -1.14 9.95 -0.07 -0.01 -0.07 12404
-0.00 0.26 0.17 -0.76 9.20 -0.04 0.01 -0.07 12411
0.03 0.26 0.46 -0.94 9.86 -0.03 0.03 -0.07 12419
0.03 0.25 0.40 -1.00 9.91 -0.01 0.03 -0.06 12426
0.02 0.24 0.30 -0.95 9.93 -0.01 0.03 -0.06 12433
0.04 0.22 0.33 -0.91 9.63 -0.01 0.03 -0.07 12440
0.04 0.22 0.39 -0.95 9.83 -0.01 0.03 -0.07 12447
0.05 0.21 0.47 -0.90 9.76 -0.00 0.02 -0.07 12454
0.06 0.18 0.45 -0.93 9.78 -0.01 0.01 -0.07 12462
0.07 0.17 0.51 -0.89 9.72 -0.01 -0.00 -0.08 12469
0.08 0.16 0.49 -0.88 9.65 -0.01 -0.01 -0.08 12476
0.07 0.15 0.44 -0.89 9.79 -0.02 -0.01 -0.08 12483
0.09 0.15 0.37 -0.93 9.80 -0.02 -0.00 -0.09 12490
0.09 0.14 0.38 -0.89 9.76 -0.02 0.03 -0.10 12497
0.11 0.12 0.39 -0.98 9.82 -0.03 0.00 -0.09 12505
0.10 0.15 0.37 -0.92 9.80 -0.07 0.01 -0.09 12512
0.11 0.14 0.33 -0.90 9.80 -0.04 0.01 -0.09 12519
0.11 0.14 0.33 -0.95 9.80 -0.05 0.01 -0.08 12526
0.10 0.15 0.33 -0.95 9.79 -0.05 0.01 -0.08 12533
0.13 0.18 0.33 -0.90 9.84 -0.06 0.01 -0.07 12540
0.16 0.18 0.34 -0.91 9.81 -0.06 0.02 -0.07 12548
0.15 0.23 0.42 -0.89 9.81 -0.05 0.02 -0.07 12555
0.15 0.25 0.34 -0.91 9.83 -0.05 0.02 -0.07 12562
0.13 0.27 0.38 -0.85 9.81 -0.05 0.02 -0.07 12569
0.14 0.29 0.39 -0.91 9.80 -0.03 0.02 -0.06 12576
0.15 0.29 0.39 -0.93 9.80 -0.03 0.02 -0.07 12583
0.18 0.29 0.36 -0.90 9.82 -0.03 0.02 -0.07 12591
0.17 0.32 0.39 -0.88 9.85 -0.03 0.02 -0.07 12598
0.19 0.32 0.39 -0.88 9.85 -0.02 0.02 -0.08 12605
0.19 0.34 0.34 -0.90 9.82 -0.02 0.02 -0.08 12612
0.22 0.35 0.33 -0.89 9.83 -0.01 0.03 -0.08 12619
0.25 0.38 0.33 -0.91 9.87 -0.01 0.03 -0.08 12626
0.25 0.37 0.36 -0.88 9.82 -0.01 0.03 -0.08 12634
0.24 0.39 0.38 -0.87 9.83 -0.00 0.03 -0.08 12641
0.24 0.37 0.36 -0.89 9.82 -0.00 0.03 -0.08 12648
0.24 0.37 0.32 -0.87 9.82 -0.00 0.03 -0.08 12655
0.26 0.38 0.34 -0.88 9.78 -0.00 0.03 -0.09 12662
0.26 0.38 0.33 -0.86 10.42 0.00 0.03 -0.08 12669
0.27 0.35 0.34 -0.87 9.81 -0.00 0.03 -0.08 12677
0.27 0.34 0.34 -0.87 9.81 -0.00 0.03 -0.08 12684
0.28 0.32 0.36 -0.86 9.82 0.00 0.04 -0.08 12691
0.28 0.32 0.35 -0.88 9.81 0.00 0.03 -0.08 12698
0.28 0.32 0.34 -0.85 9.77 0.00 0.03 -0.08 12705
0.30 0.31 0.32 -0.91 9.82 0.00 0.03 -0.08 12712
0.30 0.30 0.36 -0.92 9.77 -0.00 0.04 -0.08 12720
0.30 0.30 0.34 -0.89 9.81 -0.01 0.03 -0.08 12727
0.29 0.29 0.35 -0.91 9.79 -0.01 0.03 -0.08 12734
0.28 0.30 0.36 -0.91 9.80 -0.01 0.03 -0.08 12741
0.29 0.31 0.36 -0.89 9.81 -0.01 0.03 -0.08 12748
0.30 0.30 0.37 -0.89 9.81 -0.01 0.07 -0.08 12755
0.29 0.30 0.34 -0.86 9.80 -0.01 0.03 -0.08 12763
0.29 0.30 0.32 -0.87 9.79 -0.01 0.03 -0.09 12770
0.28 0.30 0.32 -0.88 9.78 -0.01 0.04 -0.08 12777
0.28 0.31 0.32 -0.88 9.79 -0.01 0.04 -0.08 12784
0.29 0.31 0.32 -0.91 9.80 -0.01 0.04 -0.08 12791
0.30 0.31 0.30 -0.89 9.76 -0.01 0.04 -0.08 12798
0.29 0.30 0.31 -0.85 9.80 -0.01 0.04 -0.08 12806
0.30 0.30 0.33 -0.86 9.82 -0.01 0.04 -0.08 12813
0.28 0.31 0.31 -0.90 9.81 -0.00 0.04 -0.08 12820
0.28 0.30 0.35 -0.85 9.83 -0.00 0.05 -0.08 12827
0.30 0.31 0.32 -0.89 9.82 0.00 0.06 -0.08 12834
0.31 0.30 0.31 -0.90 9.78 0.00 0.06 -0.08 12841
0.29 0.30 0.31 -0.87 9.77 0.00 0.07 -0.08 12849
0.30 0.27 0.32 -0.90 9.81 0.01 0.08 -0.08 12856
0.27 0.28 0.33 -0.87 9.82 0.01 0.08 -0.08 12863
0.28 0.27 0.31 -0.87 9.81 0.02 0.09 -0.09 12870
0.30 0.26 0.33 -0.90 9.81 0.02 0.09 -0.08 12877
0.31 0.20 0.34 -0.89 9.81 0.02 0.08 -0.08 12884
0.31 0.18 0.35 -0.88 10.42 0.02 0.09 -0.08 12892
0.29 0.15 0.41 -0.88 9.81 0.02 0.09 -0.09 12899
0.30 0.13 0.40 -0.87 9.81 0.02 0.09 -0.09 12906
0.31 0.11 0.40 -0.90 9.80 0.02 0.08 -0.09 12913
0.31 0.07 0.38 -0.94 9.83 0.02 0.08 -0.09 12920
0.31 0.06 0.45 -0.91 10.40 0.02 0.08 -0.09 12928
0.29 0.03 0.47 -0.94 9.78 0.03 0.08 -0.09 12935
0.29 0.00 0.42 -0.94 9.81 0.03 0.08 -0.09 12942
0.30 -0.01 0.38 -0.93 9.82 0.03 0.08 -0.09 12949
0.30 0.01 0.43 -0.91 9.81 0.03 0.08 -0.09 12956
0.34 -0.01 0.40 -0.94 9.80 0.03 0.08 -0.09 12963
0.32 0.01 0.43 -0.96 9.81 0.04 0.08 -0.09 12971
0.34 -0.01 0.41 -0.91 9.83 0.04 0.08 -0.09 12978
0.33 -0.01 0.42 -0.95 9.83 0.04 0.08 -0.09 12985
0.34 -0.01 0.38 -0.93 9.82 0.05 0.08 -0.09 12992
0.36 0.01 0.41 -0.96 9.82 0.05 0.09 -0.08 12999
0.38 -0.02 0.39 -0.98 9.81 0.06 0.09 -0.09 13006
0.40 -0.02 0.40 -0.92 9.82 0.06 0.10 -0.08 13014
0.42 -0.02 0.44 -0.95 9.82 0.07 0.11 -0.09 13021
0.43 -0.01 0.41 -0.98 9.77 0.08 0.11 -0.09 13028
0.45 -0.02 0.46 -1.00 9.86 0.10 0.12 -0.09 13035
0.46 -0.02 0.51 -0.98 9.87 0.12 0.14 -0.09 13042
0.49 -0.02 0.50 -0.97 9.86 0.13 0.15 -0.09 13049
0.49 -0.03 0.51 -1.01 9.84 0.15 0.17 -0.10 13057
0.50 -0.04 0.46 -1.08 9.85 0.18 0.19 -0.10 13064
0.52 -0.03 0.58 -1.01 9.92 0.20 0.20 -0.11 13071
0.56 -0.02 0.55 -1.07 9.98 0.24 0.23 -0.11 13078
0.57 -0.00 0.57 -1.08 10.04 0.28 0.26 -0.11 13085
0.58 -0.01 0.64 -1.11 10.10 0.35 0.30 -0.11 13093
0.58 -0.01 0.62 -1.12 10.27 0.45 0.34 -0.12 13101
0.60 -0.03 0.70 -1.20 10.46 0.55 0.37 -0.13 13107
0.59 -0.03 0.81 -1.29 10.42 0.70 0.37 -0.14 13115
0.60 -0.02 0.77 -1.31 10.75 0.81 0.35 -0.16 13122
0.60 -0.03 0.95 -1.44 10.87 0.94 0.31 -0.18 13129
0.59 -0.03 0.67 -1.41 10.82 1.02 0.25 -0.20 13136
0.58 -0.04 0.76 -1.55 10.73 1.07 0.20 -0.19 13144
0.56 -0.03 0.60 -1.51 11.48 1.11 0.12 -0.19 13151
0.56 -0.03 0.97 -1.69 10.89 1.16 0.07 -0.19 13158
0.54 -0.02 0.77 -1.68 10.91 1.22 0.03 -0.20 13165
0.53 -0.03 0.73 -1.88 10.68 1.26 -0.01 -0.20 13172
0.50 -0.03 0.62 -1.93 10.49 1.30 -0.06 -0.20 13178
0.47 -0.04 0.62 -2.01 10.27 1.35 -0.09 -0.19 13187
0.42 -0.03 0.62 -2.10 10.05 1.38 -0.13 -0.18 13194
0.39 -0.02 0.28 -2.32 10.28 1.38 -0.18 -0.17 13201
0.36 -0.01 0.47 -2.28 10.03 1.37 -0.15 -0.15 13208
0.31 -0.02 0.46 -2.47 10.47 1.40 -0.17 -0.14 13215
0.27 -0.02 0.49 -2.53 10.32 1.47 -0.15 -0.13 13222
0.26 -0.03 0.50 -2.68 10.26 1.54 -0.14 -0.12 13229
0.18 -0.01 0.63 -2.83 9.82 1.57 -0.16 -0.11 13236
0.16 -0.01 0.79 -3.27 10.03 1.56 -0.19 -0.11 13244
0.13 -0.01 0.80 -3.29 10.06 1.60 -0.11 -0.12 13250
0.12 -0.01 0.64 -3.30 10.54 1.67 -0.12 -0.13 13257
0.09 -0.01 0.81 -3.43 10.31 1.72 -0.12 -0.14 13264
0.05 -0.00 0.72 -3.60 9.98 1.74 -0.13 -0.16 13272
0.05 -0.00 0.86 -3.79 10.20 1.75 -0.11 -0.17 13279
0.03 -0.00 0.53 -3.99 10.82 1.77 -0.08 -0.18 13286
0.05 -0.00 0.53 -4.07 10.64 1.77 -0.04 -0.18 13293
0.04 -0.00 0.92 -4.31 10.53 1.73 0.05 -0.18 13300
0.03 -0.00 1.09 -4.44 10.66 1.67 0.19 -0.18 13307
0.02 -0.00 1.17 -4.31 10.82 1.60 0.29 -0.19 13315
0.02 -0.00 1.24 -4.25 10.61 1.53 0.38 -0.20 13322
0.03 -0.00 0.93 -3.80 10.82 1.44 0.42 -0.21 13329
0.04 -0.00 0.55 -3.78 11.52 1.36 0.38 -0.22 13336
0.03 -0.00 0.00 -3.80 10.72 1.28 0.24 -0.23 13343
0.02 -0.00 -0.12 -3.63 9.85 1.19 0.09 -0.23 13350
0.00 0.00 0.06 -3.54 9.97 1.12 -0.08 -0.23 13358
0.01 -0.00 0.34 -2.11 9.47 1.02 -0.20 -0.25 13365
0.02 -0.00 0.47 -2.02 8.54 0.88 -0.31 -0.26 13372
0.02 -0.00 1.23 -1.22 7.78 0.74 -0.37 -0.30 13379
0.01 -0.00 1.78 -0.02 7.25 0.57 -0.36 -0.34 13386
0.01 -0.00 1.72 2.47 7.58 0.35 -0.31 -0.43 13393
0.00 0.00 1.11 2.28 8.01 0.11 -0.27 -0.54 13401
0.01 -0.00 1.23 1.27 7.82 -0.06 -0.20 -0.63 13408
0.01 -0.00 0.49 3.61 9.11 -0.08 -0.12 -0.76 13415
0.02 -0.00 0.57 2.80 7.94 -0.19 -0.09 -0.93 13422
0.01 -0.00 0.54 2.82 7.41 -0.27 -0.15 -1.01 13429
0.02 -0.00 0.72 3.09 8.12 -0.35 -0.15 -1.09 13436
0.00 0.00 1.17 2.45 7.87 -0.41 -0.18 -1.15 13444
0.00 -0.00 1.59 2.27 8.23 -0.46 -0.21 -1.15 13451
0.00 0.00 1.94 2.05 8.33 -0.52 -0.18 -1.12 13458
0.00 0.00 2.40 0.72 8.63 -0.60 -0.12 -1.03 13465
0.00 0.00 2.66 1.90 9.88 -0.70 0.01 -0.91 13472
0.00 0.00 2.35 -0.11 9.10 -0.85 0.13 -0.80 13479
0.00 0.00 2.08 -1.30 9.33 -0.92 0.27 -0.65 13487
0.00 0.00 3.05 1.57 11.06 -1.07 0.45 -0.48 13494
0.00 0.00 2.22 -0.98 9.44 -1.14 0.61 -0.35 13501
0.00 0.00 2.43 -0.47 9.81 -1.19 0.68 -0.19 13508
0.00 0.00 1.63 -1.23 9.79 -1.22 0.65 -0.06 13515
0.00 0.00 0.80 -2.31 9.95 -1.20 0.63 0.07 13522
0.00 0.00 0.68 -1.39 10.00 -1.20 0.57 0.20 13530
0.00 0.00 0.85 -1.76 9.72 -1.14 0.49 0.27 13537
0.01 -0.00 0.46 -1.74 10.74 -1.12 0.43 0.32 13544
0.00 0.00 0.04 -2.69 8.48 -1.16 0.35 0.35 13551
0.00 0.00 -0.06 -2.87 10.49 -1.15 0.31 0.33 13558
0.00 0.00 0.15 -2.51 11.54 -1.18 0.24 0.29 13565
0.00 0.00 0.09 -3.19 9.89 -1.19 0.20 0.26 13573
0.00 0.00 -0.29 -4.81 10.65 -1.15 0.23 0.24 13580
0.01 -0.00 0.43 -1.50 11.55 -1.10 0.26 0.18 13587
0.00 0.00 0.68 -3.41 8.36 -1.07 0.25 0.15 13594
0.00 0.00 1.37 -3.36 13.42 -1.02 0.31 0.10 13601
0.00 0.00 0.26 -4.54 8.56 -0.99 0.30 0.04 13608
0.00 0.00 0.00 -4.80 10.36 -0.94 0.31 -0.01 13616
0.00 0.00 -1.42 -4.21 10.53 -0.92 0.31 -0.08 13623
0.00 -0.00 0.04 -4.87 11.71 -0.91 0.27 -0.14 13630
0.00 0.00 -0.33 -4.98 10.68 -0.84 0.23 -0.22 13637
0.00 0.00 -0.76 -5.77 10.05 -0.82 0.21 -0.29 13644
0.00 0.00 -1.00 -6.26 8.01 -0.80 0.22 -0.37 13651
0.00 0.00 -0.69 -6.05 12.50 -0.77 0.24 -0.42 13659
0.00 -0.00 -1.83 -6.42 12.95 -0.83 0.28 -0.43 13666
0.00 0.00 0.35 -3.20 7.96 -0.84 0.32 -0.42 13673
0.00 0.00 -0.37 -2.85 14.04 -0.86 0.31 -0.37 13680
0.00 0.00 -0.17 -2.79 10.51 -0.86 0.22 -0.27 13687
0.00 0.00 0.37 -1.50 9.59 -0.84 0.16 -0.17 13694
0.00 0.00 0.58 -1.21 9.55 -0.84 0.09 -0.05 13702
0.00 0.00 0.91 -1.51 8.32 -0.81 0.06 0.06 13709
0.00 0.00 1.38 -1.54 9.33 -0.79 0.06 0.14 13716
0.00 0.00 1.58 -0.90 9.82 -0.76 0.09 0.22 13723
0.00 0.00 2.05 -0.59 9.70 -0.75 0.14 0.27 13730
0.00 0.00 1.82 -0.57 10.19 -0.75 0.21 0.31 13737
-0.00 0.00 1.80 -0.44 10.28 -0.77 0.31 0.34 13745
0.00 -0.00 1.69 -0.50 10.96 -0.82 0.36 0.37 13752
0.00 0.00 1.26 -0.58 11.20 -0.89 0.41 0.39 13759
0.00 0.00 1.33 -0.66 8.89 -0.93 0.44 0.44 13766
0.00 0.00 1.29 -0.69 10.08 -0.97 0.46 0.48 13773
0.00 0.00 1.17 -1.09 10.12 -0.98 0.44 0.51 13780
0.00 0.00 0.84 -1.50 10.15 -0.99 0.40 0.54 13788
0.01 -0.00 1.13 -1.63 10.43 -0.97 0.40 0.56 13795
0.00 0.00 1.22 -1.68 11.11 -0.95 0.33 0.55 13802
0.00 0.00 1.11 -1.89 10.45 -0.93 0.32 0.54 13809
0.00 0.00 0.97 -2.20 10.53 -0.92 0.33 0.51 13816
0.00 0.00 1.19 -2.18 10.25 -0.91 0.37 0.51 13824
0.00 0.00 0.92 -2.39 10.08 -0.86 0.33 0.50 13831
0.00 -0.00 0.48 -2.41 9.97 -0.81 0.27 0.48 13838
0.00 0.00 0.30 -1.89 9.72 -0.76 0.18 0.49 13845
0.00 0.00 0.09 -2.18 9.69 -0.69 0.06 0.49 13852
0.00 0.00 0.45 -2.68 10.32 -0.62 -0.03 0.48 13859
0.00 0.00 0.97 -2.58 10.69 -0.52 -0.11 0.45 13867
0.01 -0.00 1.11 -2.33 10.88 -0.44 -0.17 0.38 13874
0.00 0.00 1.01 -2.13 10.26 -0.38 -0.13 0.30 13881
0.00 0.00 1.25 -1.80 9.72 -0.36 -0.06 0.25 13888
0.00 0.00 1.33 -1.85 9.76 -0.32 0.05 0.19 13895
0.00 0.00 1.13 -1.98 9.60 -0.29 0.10 0.16 13902
0.00 0.00 1.04 -2.67 10.73 -0.27 0.14 0.12 13910
0.01 -0.00 1.01 -3.18 11.22 -0.28 0.16 0.08 13917
0.00 0.00 1.06 -3.18 11.29 -0.36 0.21 0.06 13924
0.00 0.00 1.09 -3.32 11.09 -0.52 0.25 0.03 13931
0.00 0.00 1.25 -3.50 10.64 -0.64 0.27 0.02 13938
0.00 0.00 0.80 -3.79 10.07 -0.71 0.28 0.03 13945
-0.00 0.00 0.77 -3.89 9.54 -0.71 0.28 0.06 13953
0.00 -0.00 0.57 -3.68 8.85 -0.65 0.29 0.09 13960
0.00 0.00 0.36 -3.75 8.67 -0.59 0.29 0.13 13967
0.00 0.00 -0.14 -4.16 9.04 -0.48 0.27 0.19 13974
0.00 0.00 -0.18 -3.26 8.25 -0.36 0.25 0.22 13981
0.00 0.00 -0.87 -3.84 8.30 -0.30 0.19 0.26 13988
0.00 0.00 -1.47 -3.75 8.31 -0.18 0.06 0.28 13996
0.00 -0.00 -1.71 -3.85 7.89 -0.08 -0.06 0.30 14003
0.00 0.00 -1.79 -4.84 7.50 -0.00 -0.16 0.33 14010
0.00 0.00 -2.10 -5.59 9.92 0.09 -0.28 0.32 14017
0.00 0.00 -1.62 -5.27 7.97 0.09 -0.29 0.29 14024
0.00 0.00 -0.95 -6.59 7.87 0.06 -0.26 0.25 14031
0.00 0.00 -0.86 -8.74 6.74 0.12 -0.18 0.18 14039
0.00 0.00 -1.76 -10.63 7.24 0.23 -0.13 0.11 14046
0.00 0.00 -1.66 -11.45 5.95 0.46 -0.18 0.04 14053
0.00 0.00 -3.42 -17.27 3.48 0.64 -0.39 -0.06 14060
-0.00 0.03 -3.06 -25.10 2.15 1.04 -0.68 -0.21 14067
0.00 0.04 -3.64 -23.26 5.29 1.72 -1.05 -0.36 14075
0.00 0.11 4.36 -2.00 27.62 2.50 -1.91 -0.49 14083
-0.00 0.12 -0.16 -2.28 17.62 -0.08 -0.90 -0.13 14090
-0.02 0.22 1.65 -0.20 8.16 -0.33 0.08 0.08 14096
-0.02 0.30 1.14 -1.24 10.10 -0.26 -0.02 -0.02 14104
-0.01 0.35 -0.13 -2.34 11.34 -0.16 -0.05 -0.06 14111
-0.01 0.42 -0.11 -0.78 10.40 -0.10 -0.02 -0.07 14117
0.00 0.44 0.19 -1.07 10.44 -0.08 0.03 -0.03 14125
-0.02 0.52 0.15 -0.79 9.85 -0.05 0.08 -0.05 14132
-0.02 0.53 0.23 -0.70 9.96 -0.04 0.11 -0.04 14139
-0.03 0.52 0.54 -0.88 9.90 -0.04 0.13 -0.04 14146
-0.03 0.57 0.57 -0.85 9.77 -0.04 0.12 -0.04 14153
-0.02 0.59 0.61 -0.86 9.78 -0.04 0.11 -0.04 14160
-0.01 0.62 0.53 -0.87 9.83 -0.04 0.11 -0.04 14168
-0.02 0.57 0.55 -0.81 9.81 -0.04 0.11 -0.04 14175
-0.03 0.62 0.41 -0.80 9.22 -0.03 0.11 -0.04 14182
-0.03 0.58 0.51 -0.76 9.77 -0.03 0.11 -0.04 14189
-0.03 0.62 0.94 -0.75 9.73 -0.02 0.12 -0.04 14196
-0.03 0.59 0.61 -0.79 9.81 -0.02 0.12 -0.04 14203
-0.02 0.60 0.52 -0.79 9.78 -0.02 0.12 -0.04 14211
-0.02 0.63 0.62 -0.58 9.89 -0.02 0.13 -0.04 14218
-0.02 0.59 0.70 -0.85 9.78 -0.02 0.14 -0.05 14225
-0.03 0.59 0.56 -0.79 9.81 -0.03 0.15 -0.05 14232
-0.01 0.61 0.59 -0.80 9.78 -0.02 0.15 -0.05 14239
-0.03 0.62 0.71 -0.87 9.81 -0.03 0.15 -0.05 14246
-0.02 0.62 0.61 -0.78 9.75 -0.03 0.15 -0.06 14254
-0.01 0.61 0.55 -0.67 9.81 -0.02 0.14 -0.05 14261
-0.00 0.58 0.57 -0.78 9.81 -0.02 0.14 -0.06 14268
-0.02 0.59 0.60 -0.80 9.82 -0.02 0.14 -0.05 14275
-0.04 0.60 0.73 -0.73 9.78 -0.01 0.13 -0.06 14282
-0.03 0.60 0.64 -0.74 9.80 -0.01 0.12 -0.06 14289
-0.02 0.60 0.70 -0.74 9.81 -0.01 0.11 -0.05 14297
-0.02 0.59 0.70 -0.76 9.79 -0.01 0.11 -0.05 14304
-0.02 0.57 0.68 -0.73 9.76 -0.01 0.10 -0.06 14311
-0.02 0.59 0.68 -0.75 9.78 -0.01 0.10 -0.06 14318
-0.02 0.57 0.69 -0.74 9.78 -0.01 0.10 -0.07 14325
-0.02 0.57 0.69 -0.74 9.79 -0.01 0.09 -0.07 14332
-0.02 0.56 0.69 -0.72 9.76 0.00 0.09 -0.07 14340
-0.02 0.56 0.71 -0.73 9.81 0.00 0.08 -0.07 14347
-0.02 0.53 0.68 -0.74 9.79 0.00 0.08 -0.07 14354
-0.03 0.52 0.69 -0.74 9.81 0.00 0.08 -0.07 14361
-0.02 0.52 0.67 -0.76 9.74 -0.00 0.08 -0.07 14368
-0.01 0.52 0.69 -0.73 9.80 0.00 0.08 -0.07 14375
-0.02 0.51 0.68 -0.75 9.80 0.00 0.08 -0.07 14383
-0.02 0.51 0.72 -0.77 9.79 0.01 0.08 -0.07 14390
-0.03 0.51 0.73 -0.72 9.74 0.00 0.07 -0.07 14397
-0.02 0.51 0.74 -0.73 9.76 0.00 0.07 -0.07 14404
-0.01 0.52 0.72 -0.74 9.76 0.00 0.06 -0.07 14411
-0.01 0.51 0.64 -0.76 9.75 0.01 0.07 -0.07 14418
-0.01 0.50 0.72 -0.77 9.77 0.00 0.07 -0.07 14426
-0.01 0.49 0.77 -0.77 9.76 0.00 0.06 -0.07 14433
-0.03 0.51 0.77 -0.74 9.81 0.00 0.06 -0.07 14440
-0.02 0.51 0.75 -0.77 9.77 -0.00 0.04 -0.07 14447
-0.02 0.50 0.72 -0.76 9.77 -0.00 0.04 -0.07 14454
-0.01 0.48 0.72 -0.75 9.75 -0.00 0.03 -0.08 14461
-0.01 0.47 0.74 -0.74 9.78 -0.00 0.02 -0.07 14469
-0.02 0.45 0.72 -0.77 9.76 -0.00 0.01 -0.07 14476
-0.03 0.45 0.73 -0.75 9.76 -0.00 0.01 -0.07 14483
-0.02 0.45 0.70 -0.77 9.77 -0.00 0.02 -0.08 14490
-0.01 0.46 0.70 -0.77 9.82 -0.00 0.02 -0.07 14497
-0.01 0.46 0.69 -0.75 9.79 -0.00 0.03 -0.08 14504
-0.02 0.47 0.67 -0.76 9.81 -0.00 0.04 -0.07 14512
-0.02 0.45 0.72 -0.76 9.78 0.00 0.05 -0.07 14519
-0.02 0.46 0.70 -0.80 9.79 0.00 0.05 -0.08 14526
-0.01 0.46 0.76 -0.78 10.35 0.01 0.04 -0.07 14533
-0.00 0.45 0.72 -0.77 9.81 0.01 0.04 -0.07 14540
-0.02 0.45 0.70 -0.72 9.82 0.01 0.04 -0.08 14547
-0.02 0.44 0.69 -0.77 9.81 0.01 0.04 -0.08 14555
-0.02 0.42 0.74 -0.78 9.82 0.00 0.04 -0.08 14562
-0.02 0.41 0.75 -0.79 9.80 0.01 0.04 -0.08 14569
-0.01 0.43 0.73 -0.80 9.76 0.01 0.04 -0.08 14576
0.01 0.40 0.72 -0.79 9.81 0.00 0.04 -0.08 14583
0.00 0.38 0.72 -0.78 9.81 0.01 0.04 -0.09 14590
0.00 0.36 0.73 -0.78 9.79 0.01 0.04 -0.08 14598
0.00 0.35 0.75 -0.78 9.77 0.01 0.05 -0.09 14605
0.01 0.36 0.73 -0.80 9.78 0.01 0.06 -0.09 14612
0.02 0.35 0.72 -0.77 9.75 0.01 0.06 -0.09 14619
0.02 0.34 0.73 -0.78 9.74 0.02 0.07 -0.09 14626
0.03 0.30 0.72 -0.72 9.75 0.03 0.08 -0.09 14633
0.03 0.30 0.76 -0.78 9.82 0.03 0.08 -0.09 14641
0.01 0.27 0.73 -0.84 9.90 0.04 0.09 -0.09 14648
0.02 0.22 0.69 -0.81 9.81 0.04 0.09 -0.10 14655
0.03 0.20 0.74 -0.84 9.20 0.04 0.10 -0.09 14662
0.03 0.16 0.82 -0.81 9.80 0.04 0.10 -0.10 14669
0.03 0.18 0.76 -0.85 9.81 0.05 0.10 -0.10 14676
0.03 0.11 0.80 -0.81 9.79 0.05 0.10 -0.10 14684
0.06 0.06 0.81 -0.84 9.82 0.05 0.10 -0.10 14691
0.07 0.02 0.81 -0.85 9.80 0.05 0.09 -0.11 14698
0.07 0.01 0.81 -0.84 9.81 0.06 0.08 -0.10 14705
0.07 0.03 0.83 -0.83 9.80 0.06 0.07 -0.10 14712
0.10 0.04 0.82 -0.90 9.80 0.06 0.07 -0.10 14720
0.07 0.04 0.79 -0.86 9.79 0.06 0.07 -0.10 14727
0.08 0.03 0.80 -0.89 9.82 0.07 0.07 -0.10 14734
0.11 0.02 0.75 -0.94 9.82 0.07 0.08 -0.10 14741
0.14 0.01 0.74 -0.90 9.80 0.08 0.09 -0.10 14748
0.14 -0.01 0.77 -0.93 9.82 0.09 0.12 -0.10 14755
0.12 -0.01 0.76 -1.02 9.85 0.10 0.14 -0.10 14763
0.13 -0.01 0.80 -0.94 9.83 0.11 0.16 -0.13 14770
0.12 -0.01 0.91 -0.86 9.83 0.13 0.18 -0.10 14777
0.14 0.00 0.91 -0.87 9.87 0.15 0.20 -0.10 14784
0.12 -0.01 0.85 -0.92 9.89 0.16 0.23 -0.10 14791
0.10 -0.01 0.86 -0.93 9.87 0.19 0.25 -0.10 14798
0.10 -0.01 0.90 -0.90 9.89 0.23 0.27 -0.10 14806
0.10 -0.01 0.86 -0.99 10.01 0.28 0.29 -0.10 14813
0.11 -0.01 0.96 -1.00 9.91 0.32 0.31 -0.10 14820
0.13 0.01 0.95 -1.01 10.02 0.39 0.34 -0.10 14827
0.18 -0.02 0.93 -1.06 10.07 0.47 0.37 -0.11 14834
0.20 -0.02 0.94 -1.07 10.14 0.54 0.39 -0.11 14841
0.20 -0.02 0.94 -1.10 10.12 0.63 0.41 -0.11 14849
0.19 -0.01 1.01 -1.22 10.21 0.73 0.41 -0.11 14857
0.18 -0.02 1.01 -1.33 10.46 0.78 0.39 -0.11 14863
0.20 -0.01 1.14 -1.35 10.30 0.87 0.35 -0.11 14871
0.21 -0.02 1.16 -1.38 10.62 0.94 0.29 -0.12 14878
0.21 -0.02 1.31 -1.54 10.80 1.04 0.26 -0.14 14885
0.24 -0.02 1.26 -1.61 10.99 1.12 0.23 -0.17 14892
0.21 -0.02 1.22 -1.68 10.90 1.20 0.19 -0.18 14900
0.24 -0.01 1.06 -1.83 10.85 1.27 0.14 -0.18 14907
0.25 -0.02 1.16 -1.93 10.88 1.31 0.08 -0.17 14914
0.25 -0.02 1.13 -1.96 11.02 1.38 0.04 -0.16 14921
0.24 -0.02 1.15 -2.18 10.99 1.45 0.03 -0.16 14928
0.22 -0.02 1.17 -2.15 10.62 1.52 0.00 -0.15 14935
0.21 -0.02 1.21 -2.29 10.65 1.57 -0.01 -0.15 14942
0.21 -0.01 1.05 -2.43 10.44 1.63 -0.03 -0.14 14950
0.21 -0.02 1.15 -2.48 10.71 1.70 -0.03 -0.13 14956
0.23 -0.02 1.09 -2.74 10.13 1.76 0.00 -0.12 14963
0.21 -0.02 1.08 -2.75 10.19 1.80 -0.03 -0.11 14971
0.17 -0.02 1.23 -2.93 10.11 1.84 0.00 -0.11 14978
0.16 -0.01 1.16 -3.08 10.23 1.89 0.01 -0.11 14986
0.14 -0.00 1.18 -3.24 10.08 1.92 0.03 -0.10 14992
0.14 -0.01 1.28 -3.34 10.01 1.96 0.03 -0.12 14999
0.08 -0.01 0.62 -3.47 9.74 2.00 0.03 -0.12 15006
0.11 -0.01 1.37 -3.64 10.08 2.04 0.02 -0.12 15013
0.11 -0.01 1.44 -3.99 10.24 2.08 -0.00 -0.13 15021
0.09 -0.01 1.30 -4.11 10.38 2.12 -0.01 -0.15 15028
0.11 -0.01 1.41 -4.23 10.03 2.16 0.00 -0.16 15036
0.08 -0.01 1.40 -4.52 9.94 2.17 0.03 -0.18 15042
0.06 -0.01 1.36 -4.79 10.06 2.15 0.01 -0.18 15049
0.07 -0.01 1.39 -4.96 10.10 2.13 0.01 -0.19 15056
0.06 -0.01 1.55 -5.33 10.49 2.10 0.01 -0.19 15064
0.07 -0.01 1.81 -5.55 10.39 2.05 0.05 -0.19 15071
0.06 -0.01 2.03 -5.67 10.42 2.00 0.11 -0.21 15078
0.05 -0.00 2.08 -5.84 10.49 1.94 0.18 -0.23 15085
0.05 -0.00 2.20 -5.95 11.63 1.87 0.26 -0.25 15092
0.03 -0.00 2.35 -5.98 12.88 1.80 0.33 -0.27 15099
0.03 -0.00 1.94 -5.79 13.40 1.66 0.35 -0.29 15107
0.04 -0.00 1.52 -5.93 13.34 1.53 0.29 -0.31 15114
0.05 -0.01 0.85 -6.22 11.82 1.38 0.14 -0.33 15121
0.03 -0.00 0.32 -5.21 10.68 1.32 -0.03 -0.34 15128
0.00 -0.00 0.28 -4.68 9.58 1.33 -0.19 -0.36 15135
0.00 0.00 0.42 -3.26 7.23 1.32 -0.26 -0.35 15142
0.00 0.00 1.05 -2.65 5.36 1.23 -0.22 -0.32 15150
0.00 0.00 1.11 -1.25 3.74 1.01 -0.24 -0.31 15157
0.01 -0.00 1.48 1.70 4.80 0.69 -0.35 -0.31 15164
0.01 -0.00 1.99 0.13 5.41 0.40 -0.44 -0.31 15171
0.00 0.00 0.92 4.06 7.61 0.16 -0.47 -0.32 15178
0.00 0.00 1.25 3.96 7.58 -0.07 -0.46 -0.32 15185
0.00 0.00 0.86 9.65 9.41 -0.37 -0.42 -0.33 15193
0.00 -0.00 0.80 7.62 9.13 -0.83 -0.43 -0.39 15200
0.01 -0.00 0.40 4.53 8.36 -1.15 -0.51 -0.46 15207
0.00 0.00 0.26 4.16 9.07 -1.36 -0.53 -0.53 15214
0.00 0.00 0.63 3.95 9.01 -1.40 -0.55 -0.63 15221
0.00 0.00 1.03 3.20 8.25 -1.36 -0.57 -0.74 15228
0.00 0.00 1.28 2.58 7.76 -1.31 -0.61 -0.81 15236
0.00 -0.00 1.60 2.70 7.66 -1.31 -0.60 -0.88 15243
0.01 -0.00 2.00 2.67 7.92 -1.37 -0.59 -0.92 15250
0.00 -0.00 2.25 2.24 8.51 -1.44 -0.56 -0.96 15257
0.00 0.00 2.41 1.52 9.06 -1.51 -0.52 -0.97 15264
0.00 0.00 2.54 0.97 9.61 -1.58 -0.47 -0.95 15271
0.00 0.00 2.63 0.51 10.12 -1.65 -0.38 -0.90 15279
0.00 0.00 2.66 0.14 11.36 -1.75 -0.29 -0.83 15286
0.00 0.00 2.85 -0.09 10.74 -1.84 -0.16 -0.73 15293
0.00 0.00 2.92 -0.49 10.81 -1.92 -0.05 -0.62 15300
0.00 -0.00 2.92 -0.86 10.81 -2.01 0.07 -0.51 15307
0.00 0.00 2.73 -1.33 10.44 -2.06 0.18 -0.38 15314
0.00 0.00 2.53 -1.88 9.99 -2.08 0.25 -0.27 15322
0.01 -0.00 2.25 -2.47 9.80 -2.04 0.31 -0.14 15329
0.00 0.00 2.00 -2.98 9.65 -1.96 0.35 -0.01 15336
0.00 0.00 1.86 -3.35 10.40 -1.84 0.39 0.09 15343
0.00 -0.00 1.71 -3.62 9.95 -1.71 0.41 0.21 15350
0.00 0.00 1.64 -3.10 10.37 -1.61 0.42 0.33 15357
0.00 0.00 1.66 -3.83 10.79 -1.51 0.47 0.41 15365
0.01 -0.00 2.02 -3.37 11.66 -1.48 0.52 0.50 15372
0.00 -0.00 1.54 -3.17 10.34 -1.45 0.54 0.55 15379
0.00 0.00 0.51 -4.16 12.06 -1.48 0.57 0.61 15386
0.00 0.00 -0.12 -4.32 12.37 -1.44 0.52 0.66 15393
0.00 0.00 0.56 -2.53 11.39 -1.40 0.50 0.70 15400
-0.00 0.00 -0.12 -3.34 9.37 -1.40 0.49 0.72 15408
0.02 -0.00 1.26 -3.97 11.29 -1.36 0.50 0.73 15415
0.00 -0.00 -0.15 -3.02 8.95 -1.35 0.52 0.70 15422
0.00 0.00 0.06 -3.55 10.27 -1.37 0.52 0.64 15429
0.00 0.00 -0.46 -4.50 9.24 -1.31 0.48 0.56 15436
0.00 0.00 0.37 -4.73 10.46 -1.29 0.40 0.44 15443
-0.00 0.01 -1.35 -6.29 12.28 -1.27 0.32 0.30 15451
0.01 0.00 -1.09 -6.09 11.54 -1.20 0.21 0.15 15458
0.00 0.00 -2.00 -6.48 8.81 -1.13 0.04 -0.04 15465
0.00 0.00 -0.60 -8.33 10.91 -1.00 -0.04 -0.21 15472
0.00 0.00 -0.37 -7.30 9.47 -0.87 -0.07 -0.40 15479
0.00 0.00 -0.64 -5.78 12.31 -0.82 -0.05 -0.55 15486
-0.00 0.00 0.08 -5.62 8.38 -0.82 0.03 -0.67 15494
0.00 0.00 0.54 -4.98 11.20 -0.86 0.17 -0.74 15501
0.00 0.00 0.84 -4.23 10.60 -0.93 0.28 -0.76 15508
0.00 0.00 0.13 -4.27 9.48 -0.93 0.37 -0.75 15515
0.00 0.00 0.87 -2.73 7.79 -0.89 0.42 -0.69 15522
0.00 0.00 1.20 -2.70 10.40 -0.84 0.44 -0.62 15529
0.00 -0.00 0.63 -2.73 10.26 -0.79 0.36 -0.53 15537
0.01 -0.00 0.87 -2.08 8.61 -0.78 0.33 -0.43 15544
0.00 -0.00 0.51 -1.70 8.43 -0.71 0.24 -0.31 15551
0.01 -0.00 1.23 -1.96 10.54 -0.66 0.11 -0.22 15558
0.00 0.00 1.08 -2.16 10.46 -0.59 0.02 -0.17 15565
0.00 0.00 0.79 -2.98 8.88 -0.56 -0.08 -0.15 15572
0.01 -0.00 1.24 -1.51 12.50 -0.58 -0.01 -0.12 15580
0.00 -0.00 3.16 -0.34 9.53 -0.72 0.26 -0.08 15587
0.00 -0.00 3.09 -0.59 10.03 -0.97 0.53 -0.01 15594
0.00 0.00 2.54 -1.26 10.74 -1.21 0.69 0.06 15601
0.00 0.00 0.77 -3.47 11.90 -1.30 0.69 0.14 15608
0.00 0.00 -3.18 -7.67 14.39 -1.08 0.28 0.19 15616
0.01 -0.00 -1.66 -4.29 9.72 -0.73 -0.04 0.24 15623
0.00 0.00 0.29 -3.20 5.64 -0.62 -0.16 0.30 15630
0.00 0.00 -0.33 -7.04 8.60 -0.59 -0.19 0.31 15637
0.00 0.00 -0.10 -8.05 10.85 -0.36 -0.02 0.31 15644
0.00 0.00 -0.71 -5.55 5.64 -0.23 0.15 0.32 15651
0.00 0.00 -0.83 -5.83 6.50 -0.17 0.18 0.29 15659
0.00 -0.00 -2.21 -7.29 9.26 0.01 0.00 0.26 15666
0.00 -0.00 -1.76 -6.00 6.36 0.18 -0.14 0.22 15673
0.00 0.00 -2.41 -6.27 7.47 0.33 -0.25 0.19 15680
0.00 0.00 -2.65 -7.07 10.50 0.45 -0.29 0.17 15687
0.00 -0.00 -1.15 -7.52 7.62 0.49 -0.21 0.15 15694
0.00 -0.00 -1.60 -6.91 7.37 0.45 -0.15 0.11 15702
0.01 -0.00 -2.41 -7.22 9.78 0.44 -0.19 0.05 15709
0.00 0.00 -3.85 -9.53 11.74 0.42 -0.20 0.02 15716
0.00 0.00 -4.50 -11.11 10.27 0.48 -0.29 0.02 15723
-0.00 0.01 -5.30 -16.73 10.22 0.68 -0.46 0.04 15730
0.00 0.02 -9.79 -31.84 13.94 0.53 -0.71 -0.01 15738
0.01 0.02 -3.23 -14.37 10.35 0.06 -0.15 -0.04 15746
0.00 0.02 -0.29 -4.63 9.49 -0.16 0.09 -0.06 15752
0.04 0.01 0.58 -1.42 9.50 -0.28 0.12 -0.01 15759
0.02 0.06 0.38 -1.14 9.63 -0.31 0.02 0.02 15766
0.02 0.11 1.02 -0.11 9.47 -0.23 -0.01 0.01 15773
0.02 0.11 0.81 -0.39 9.86 -0.18 -0.10 -0.06 15780
0.07 0.12 0.68 -0.70 9.86 -0.13 -0.06 -0.09 15788
0.07 0.20 0.32 -1.08 10.12 -0.10 -0.02 -0.08 15795
0.05 0.24 0.05 -1.03 10.06 -0.08 0.01 -0.07 15802
0.03 0.22 0.23 -0.95 9.91 -0.07 0.04 -0.06 15809
0.02 0.25 0.31 -0.94 9.83 -0.06 0.06 -0.05 15816
0.04 0.29 0.33 -0.93 9.72 -0.06 0.07 -0.05 15823
0.06 0.29 0.34 -0.83 9.75 -0.05 0.08 -0.05 15831
0.04 0.28 0.45 -0.83 9.92 -0.04 0.08 -0.05 15838
0.04 0.29 0.47 -0.87 9.79 -0.03 0.08 -0.04 15845
0.03 0.28 0.46 -0.85 9.74 -0.03 0.08 -0.05 15852
0.04 0.28 0.48 -0.84 9.85 -0.03 0.08 -0.04 15859
0.04 0.28 0.53 -0.84 9.82 -0.02 0.07 -0.05 15866
0.06 0.29 0.51 -0.87 9.83 -0.02 0.07 -0.06 15874
0.08 0.26 0.54 -0.84 9.83 -0.02 0.06 -0.06 15881
0.07 0.27 0.53 -0.87 9.81 -0.01 0.06 -0.07 15888
0.08 0.28 0.46 -0.82 9.75 -0.01 0.06 -0.07 15895
0.10 0.28 0.45 -0.86 9.83 -0.01 0.06 -0.06 15902
0.11 0.28 0.43 -0.87 9.83 -0.01 0.07 -0.07 15909
0.11 0.26 0.43 -0.87 10.40 -0.00 0.07 -0.06 15917
0.08 0.27 0.46 -0.83 9.79 0.00 0.08 -0.07 15924
0.08 0.26 0.49 -0.85 9.81 0.00 0.08 -0.07 15931
0.08 0.27 0.51 -0.85 9.79 0.00 0.08 -0.07 15938
0.10 0.28 0.53 -0.84 9.81 0.00 0.08 -0.07 15945
0.11 0.24 0.50 -0.84 9.79 0.01 0.08 -0.07 15952
0.11 0.26 0.48 -0.81 9.82 0.01 0.09 -0.07 15960
0.11 0.24 0.51 -0.84 9.79 0.01 0.09 -0.07 15967
0.11 0.22 0.50 -0.83 9.77 0.01 0.09 -0.07 15974
0.10 0.22 0.51 -0.83 9.82 0.01 0.09 -0.07 15981
0.10 0.24 0.54 -0.83 9.79 0.01 0.09 -0.07 15988
0.12 0.20 0.55 -0.85 9.80 0.02 0.08 -0.07 15995
0.12 0.17 0.58 -0.85 9.87 0.02 0.09 -0.07 16003
0.12 0.16 0.52 -0.83 9.82 0.02 0.09 -0.07 16010
0.12 0.17 0.53 -0.87 9.78 0.02 0.09 -0.07 16017
0.10 0.20 0.55 -0.85 9.81 0.02 0.08 -0.07 16024
0.12 0.20 0.56 -0.83 9.82 0.02 0.08 -0.07 16031
0.13 0.14 0.55 -0.85 9.80 0.02 0.08 -0.08 16038
0.12 0.14 0.56 -0.86 9.75 0.02 0.08 -0.08 16046
0.11 0.12 0.57 -0.87 9.80 0.01 0.08 -0.07 16053
0.12 0.09 0.54 -0.88 9.79 0.01 0.08 -0.07 16060
0.11 0.10 0.57 -0.86 9.78 0.01 0.07 -0.08 16067
0.13 0.09 0.58 -0.90 9.76 0.01 0.07 -0.07 16074
0.14 0.08 0.53 -0.85 9.79 0.01 0.07 -0.07 16081
0.14 0.07 0.57 -0.88 9.84 0.01 0.07 -0.07 16089
0.16 0.07 0.57 -0.90 9.81 0.01 0.06 -0.07 16096
0.15 0.07 0.57 -0.87 9.79 0.01 0.07 -0.07 16103
0.16 0.08 0.59 -0.86 9.77 0.01 0.06 -0.07 16110
0.17 0.08 0.56 -0.88 9.77 0.01 0.06 -0.07 16117
0.19 0.08 0.60 -0.90 9.81 0.00 0.05 -0.07 16124
0.17 0.07 0.59 -0.88 9.78 0.01 0.05 -0.08 16132
0.17 0.06 0.60 -0.88 10.38 0.00 0.05 -0.08 16139
0.14 0.07 0.61 -0.90 9.81 0.00 0.05 -0.07 16146
0.15 0.07 0.61 -0.89 9.79 -0.00 0.04 -0.07 16153
0.16 0.07 0.56 -0.88 9.81 -0.00 0.04 -0.08 16160
0.16 0.06 0.58 -0.86 9.80 -0.00 0.03 -0.07 16167
0.16 0.06 0.55 -0.87 10.40 -0.00 0.03 -0.08 16175
0.16 0.05 0.59 -0.87 9.80 -0.00 0.02 -0.08 16182
0.16 0.03 0.57 -0.89 9.76 0.00 0.02 -0.07 16189
0.17 0.05 0.60 -0.91 9.79 -0.00 0.02 -0.08 16196
0.18 0.04 0.55 -0.90 9.79 -0.00 0.01 -0.08 16203
0.18 0.02 0.59 -0.92 9.78 -0.00 0.00 -0.08 16210
0.18 0.01 0.57 -0.92 9.75 -0.01 0.00 -0.08 16218
0.17 0.03 0.56 -0.89 9.79 -0.01 -0.00 -0.08 16225
0.17 0.03 0.61 -0.87 9.81 -0.01 -0.00 -0.08 16232
0.17 0.05 0.54 -0.87 9.78 -0.01 -0.01 -0.09 16239
0.19 0.03 0.54 -0.87 9.79 -0.01 -0.00 -0.08 16246
0.20 0.03 0.53 -0.89 9.80 -0.01 -0.00 -0.08 16253
0.21 0.02 0.58 -0.84 9.76 -0.01 -0.00 -0.09 16261
0.20 0.02 0.50 -0.89 9.80 -0.01 0.00 -0.09 16268
0.20 0.03 0.53 -0.91 9.81 -0.00 0.01 -0.08 16275
0.20 0.04 0.54 -0.91 9.79 -0.00 0.01 -0.08 16282
0.22 0.02 0.53 -0.90 9.76 -0.01 0.02 -0.08 16289
0.21 0.01 0.50 -0.91 9.78 -0.01 0.02 -0.08 16296
0.22 0.00 0.53 -0.90 9.78 -0.01 0.02 -0.08 16304
0.21 0.02 0.57 -0.91 9.81 -0.00 0.02 -0.09 16311
0.23 0.02 0.52 -0.90 9.75 0.00 0.02 -0.08 16318
0.25 0.04 0.52 -0.89 9.80 0.01 0.03 -0.08 16325
0.28 0.00 0.52 -0.88 9.81 0.01 0.03 -0.08 16332
0.29 0.00 0.50 -0.92 9.82 0.02 0.03 -0.09 16339
0.32 -0.01 0.50 -0.86 9.80 0.02 0.04 -0.09 16347
0.32 -0.00 0.52 -0.90 9.81 0.03 0.04 -0.08 16354
0.33 0.00 0.50 -0.91 9.81 0.03 0.05 -0.08 16361
0.36 -0.01 0.50 -0.90 9.81 0.00 0.05 -0.08 16368
0.38 -0.00 0.52 -0.89 9.85 0.04 0.06 -0.08 16375
0.41 -0.01 0.50 -0.91 9.83 0.06 0.07 -0.08 16382
0.40 -0.02 0.53 -0.95 9.84 0.07 0.08 -0.08 16390
0.42 -0.02 0.52 -0.88 9.82 0.10 0.09 -0.08 16397
0.44 -0.01 0.52 -0.87 9.85 0.12 0.11 -0.08 16404
0.47 -0.01 0.50 -0.98 9.89 0.14 0.12 -0.07 16411
0.48 -0.02 0.51 -0.90 9.91 0.18 0.14 -0.08 16418
0.55 -0.04 0.54 -0.90 10.04 0.22 0.18 -0.08 16425
0.54 -0.03 0.58 -1.02 10.10 0.29 0.22 -0.08 16434
0.59 -0.03 0.57 -1.04 10.17 0.38 0.26 -0.08 16440
0.63 -0.01 0.62 -1.06 10.31 0.48 0.32 -0.09 16448
0.67 -0.01 0.76 -1.14 10.34 0.61 0.36 -0.10 16455
0.69 -0.01 0.76 -1.21 10.36 0.73 0.37 -0.11 16462
0.71 -0.04 0.82 -1.23 10.25 0.86 0.35 -0.12 16470
0.71 -0.03 0.80 -1.30 10.42 0.96 0.32 -0.14 16477
0.73 -0.02 0.78 -1.38 10.38 1.01 0.28 -0.15 16484
0.75 -0.02 0.80 -1.37 10.56 1.04 0.23 -0.17 16491
0.75 -0.03 0.69 -1.57 10.77 1.06 0.19 -0.17 16498
0.74 -0.03 0.75 -1.62 10.73 1.11 0.17 -0.17 16505
0.75 -0.04 0.60 -1.72 10.99 1.17 0.14 -0.15 16513
0.73 -0.03 0.99 -1.75 10.72 1.23 0.09 -0.15 16520
0.73 -0.03 0.73 -1.82 10.87 1.31 0.03 -0.16 16527
0.69 -0.03 0.74 -1.96 10.78 1.38 -0.02 -0.16 16534
0.65 -0.04 0.92 -2.05 11.04 1.42 -0.05 -0.15 16541
0.61 -0.03 0.80 -2.22 10.74 1.49 -0.06 -0.14 16548
0.57 -0.04 0.85 -2.32 10.77 1.57 -0.08 -0.15 16556
0.52 -0.02 0.81 -2.50 10.67 1.65 -0.11 -0.15 16563
0.49 -0.01 0.67 -2.58 10.72 1.73 -0.12 -0.14 16570
0.46 -0.02 0.83 -2.65 10.53 1.82 -0.11 -0.14 16577
0.41 -0.03 0.67 -2.77 10.58 1.90 -0.09 -0.14 16584
0.35 -0.02 0.77 -2.91 10.61 1.97 -0.08 -0.14 16591
0.28 -0.02 1.21 -3.19 9.98 2.05 -0.12 -0.14 16598
0.26 -0.02 0.55 -3.31 10.74 2.09 -0.10 -0.12 16606
0.21 -0.01 0.69 -3.42 10.63 2.17 -0.08 -0.12 16613
0.24 -0.02 0.55 -3.56 10.31 2.24 -0.10 -0.12 16620
0.17 -0.01 0.77 -3.83 10.13 2.29 -0.09 -0.12 16627
0.14 -0.01 0.66 -3.98 10.66 2.32 -0.09 -0.13 16633
0.16 -0.02 0.53 -4.30 10.90 2.37 -0.10 -0.12 16641
0.10 -0.01 0.76 -4.55 10.82 2.41 -0.11 -0.13 16648
0.15 -0.01 0.88 -4.80 10.85 2.44 -0.08 -0.13 16656
0.11 -0.01 1.05 -5.05 10.73 2.45 -0.05 -0.15 16662
0.10 -0.01 1.10 -5.32 10.69 2.42 -0.03 -0.16 16669
0.09 -0.01 1.08 -5.66 10.83 2.35 0.00 -0.17 16676
0.07 -0.01 1.08 -5.59 10.47 2.28 0.07 -0.18 16684
0.08 -0.01 1.13 -5.66 10.47 2.19 0.14 -0.18 16691
0.07 -0.01 0.54 -5.63 10.14 2.02 0.13 -0.18 16698
0.08 -0.01 0.29 -5.49 10.29 1.93 0.13 -0.17 16705
0.05 -0.00 0.11 -5.71 10.04 1.80 0.05 -0.16 16712
0.05 -0.00 0.28 -5.97 10.25 1.68 -0.08 -0.17 16719
0.03 -0.00 0.40 -6.50 10.61 1.54 -0.19 -0.17 16727
0.04 -0.00 0.88 -6.84 11.23 1.42 -0.31 -0.19 16734
0.06 -0.01 1.11 -6.34 11.04 1.33 -0.36 -0.21 16741
0.05 -0.00 1.11 -5.26 10.58 1.25 -0.41 -0.22 16748
0.01 -0.00 1.19 -3.08 9.59 1.19 -0.42 -0.23 16755
0.03 -0.00 0.91 -2.74 7.20 1.06 -0.41 -0.22 16762
0.00 0.00 0.96 -1.89 5.97 0.85 -0.37 -0.22 16770
0.00 -0.00 0.63 1.93 5.32 0.62 -0.38 -0.25 16777
0.02 -0.00 1.81 3.87 5.62 0.28 -0.41 -0.33 16784
0.01 -0.00 1.45 8.54 7.13 -0.16 -0.46 -0.44 16791
0.00 0.00 1.39 7.36 8.12 -0.56 -0.42 -0.60 16798
0.00 0.00 1.20 3.68 8.93 -0.94 -0.38 -0.72 16805
0.00 0.00 0.78 3.71 9.77 -1.11 -0.32 -0.82 16813
0.00 0.00 0.61 3.37 8.97 -1.12 -0.25 -0.90 16820
0.01 -0.00 0.68 2.62 7.76 -1.05 -0.28 -0.98 16827
0.00 0.00 0.75 2.85 7.27 -1.04 -0.33 -1.02 16834
0.00 0.00 0.96 3.20 7.26 -1.10 -0.35 -1.02 16841
0.00 0.00 1.39 3.21 7.70 -1.17 -0.35 -0.99 16848
0.00 0.00 1.61 2.95 8.09 -1.27 -0.36 -0.96 16856
0.00 0.00 1.89 2.61 8.40 -1.34 -0.35 -0.89 16863
0.00 0.00 2.02 2.24 8.40 -1.40 -0.32 -0.81 16870
0.00 0.00 2.14 1.88 8.25 -1.44 -0.25 -0.73 16877
0.00 0.00 2.21 1.37 8.39 -1.45 -0.17 -0.63 16884
0.00 0.00 2.35 0.96 8.98 -1.45 -0.11 -0.54 16891
0.00 0.00 2.33 0.47 9.19 -1.45 -0.01 -0.43 16899
0.00 0.00 2.50 0.17 9.86 -1.46 0.10 -0.32 16906
0.00 0.00 2.65 0.11 10.44 -1.50 0.26 -0.21 16913
0.00 0.00 2.80 0.19 11.07 -1.59 0.45 -0.10 16920
0.00 0.00 2.71 0.04 11.27 -1.74 0.61 0.01 16927
0.00 0.00 2.39 -0.79 11.06 -1.91 0.74 0.13 16934
0.00 0.00 1.76 -0.78 10.46 -2.03 0.81 0.25 16942
0.00 0.00 0.97 -2.95 9.98 -2.14 0.83 0.34 16949
0.00 0.00 -0.05 -4.65 10.83 -2.12 0.78 0.41 16956
0.00 0.00 -0.27 -5.19 13.09 -2.07 0.72 0.50 16963
0.00 0.00 -0.06 -4.85 11.83 -1.98 0.65 0.52 16970
0.00 0.00 -0.73 -6.66 11.81 -1.78 0.59 0.54 16977
0.00 0.00 -0.48 -5.41 8.85 -1.80 0.58 0.55 16985
0.00 0.00 -0.58 -6.21 11.81 -1.64 0.52 0.53 16992
0.00 0.00 0.23 -6.35 7.37 -1.61 0.48 0.51 16999
0.00 0.00 -1.57 -5.98 12.36 -1.55 0.47 0.47 17006
0.00 0.00 -0.34 -6.43 12.27 -1.46 0.39 0.40 17013
0.00 0.00 -2.27 -8.08 13.52 -1.43 0.30 0.37 17020
0.00 -0.00 0.63 -7.63 10.61 -1.34 0.27 0.31 17028
0.02 -0.00 2.90 -8.35 14.32 -1.29 0.25 0.25 17035
0.00 -0.00 -6.07 -11.74 9.69 -1.20 0.29 0.20 17042
0.00 0.00 -0.07 -6.08 10.18 -1.16 0.32 0.16 17049
0.00 0.00 0.40 -7.30 8.67 -1.12 0.32 0.13 17056
0.00 0.00 0.79 -6.05 9.49 -1.07 0.37 0.11 17063
0.00 0.00 -1.07 -7.17 8.42 -0.99 0.39 0.11 17071
0.00 -0.00 -0.63 -6.47 8.35 -0.94 0.39 0.11 17078
0.00 0.00 -0.76 -4.28 8.44 -0.86 0.35 0.11 17085
0.00 0.00 -0.57 -5.81 10.63 -0.80 0.30 0.10 17092
0.00 0.00 -0.79 -5.13 10.81 -0.72 0.22 0.06 17099
0.00 0.00 0.10 -3.77 10.02 -0.69 0.14 0.02 17106
0.00 0.00 0.81 -3.24 8.46 -0.70 0.15 0.01 17114
0.00 0.00 0.02 -2.58 11.81 -0.73 0.18 0.00 17121
0.00 0.00 0.74 -3.04 9.95 -0.78 0.19 0.00 17128
0.00 0.00 0.74 -3.06 9.92 -0.77 0.18 0.01 17135
0.00 0.00 0.96 -2.25 11.19 -0.77 0.17 0.02 17142
0.00 0.00 1.26 -1.80 9.45 -0.76 0.14 0.04 17149
0.00 0.00 1.43 -1.82 9.98 -0.80 0.16 0.05 17157
0.00 0.00 2.34 -1.23 10.71 -0.84 0.20 0.07 17164
0.00 0.00 2.00 -1.17 10.04 -0.88 0.26 0.09 17171
0.00 0.00 2.01 -1.43 10.51 -0.92 0.36 0.12 17178
0.00 0.00 1.89 -1.44 10.43 -0.97 0.43 0.15 17185
0.00 -0.00 1.81 -1.35 10.22 -1.00 0.47 0.17 17192
0.01 -0.00 1.70 -1.18 9.98 -1.01 0.49 0.19 17200
0.00 -0.00 1.62 -1.15 9.83 -1.02 0.49 0.21 17207
0.00 0.00 1.48 -1.16 9.91 -1.00 0.50 0.23 17214
0.00 0.00 1.25 -1.82 10.07 -0.97 0.52 0.26 17221
0.00 0.00 0.92 -1.51 10.12 -0.93 0.53 0.29 17228
0.00 0.00 0.69 -1.82 10.22 -0.89 0.51 0.32 17235
0.00 -0.00 0.57 -2.13 10.21 -0.84 0.45 0.34 17243
0.00 0.00 0.53 -2.54 10.21 -0.77 0.37 0.35 17250
0.00 0.00 0.59 -2.71 10.32 -0.71 0.30 0.35 17257
0.00 0.00 0.78 -2.75 10.49 -0.66 0.24 0.34 17264
0.00 0.00 0.72 -3.34 11.23 -0.66 0.21 0.33 17271
0.00 0.00 0.40 -3.68 11.94 -0.65 0.15 0.31 17278
0.00 -0.00 -0.48 -3.74 10.92 -0.66 0.10 0.29 17286
0.00 0.00 0.44 -3.08 10.17 -0.70 0.16 0.30 17293
0.00 0.00 -0.04 -3.81 9.93 -0.75 0.19 0.31 17300
0.00 0.00 -0.92 -4.25 9.70 -0.74 0.18 0.32 17307
0.00 0.00 -0.93 -4.32 8.69 -0.65 0.24 0.33 17314
0.00 0.00 -1.48 -4.96 11.41 -0.48 0.21 0.34 17321
0.00 -0.00 -1.69 -5.29 6.06 -0.38 0.12 0.32 17329
0.00 0.00 -1.67 -4.95 8.16 -0.29 0.02 0.28 17336
0.00 0.00 -1.55 -5.55 6.32 -0.26 -0.01 0.24 17343
0.00 0.00 -1.58 -6.16 10.23 -0.13 -0.07 0.21 17350
0.00 0.00 -1.99 -6.28 6.82 -0.05 -0.06 0.14 17357
0.00 0.00 -1.89 -6.79 8.98 0.04 -0.10 0.06 17364
0.00 0.00 -1.80 -6.66 7.72 0.17 -0.13 -0.01 17372
0.00 0.00 -3.12 -6.29 8.37 0.29 -0.16 -0.10 17379
0.00 0.00 -3.37 -8.75 9.35 0.40 -0.23 -0.16 17386
0.00 0.00 -2.60 -10.59 5.83 0.60 -0.27 -0.23 17393
0.00 0.00 -2.94 -12.14 4.67 0.83 -0.47 -0.34 17400
-0.00 0.03 -4.11 -19.86 4.02 1.16 -0.74 -0.44 17408
-0.00 0.04 -4.23 -25.77 1.39 1.73 -0.88 -0.56 17415
0.00 0.03 1.84 -7.66 17.65 2.60 -1.35 -0.67 17423
-0.00 0.02 3.00 -6.73 25.52 0.43 -1.87 -0.27 17429
-0.00 0.11 2.03 -2.05 6.48 -0.32 0.18 0.17 17436
0.00 0.23 2.89 -1.60 9.16 -0.34 0.05 -0.02 17443
0.01 0.28 0.29 -2.06 10.83 -0.25 -0.14 -0.03 17452
0.02 0.37 0.49 -0.28 10.29 -0.16 -0.10 -0.06 17458
0.01 0.35 0.49 -1.01 10.33 -0.12 -0.04 -0.09 17466
0.02 0.37 0.07 -1.07 10.16 -0.07 0.00 -0.06 17472
0.02 0.40 0.09 -0.82 9.90 -0.05 0.05 -0.06 17479
0.02 0.39 0.43 -1.08 9.90 -0.04 0.08 -0.05 17486
0.03 0.43 0.44 -0.96 9.83 -0.04 0.08 -0.04 17494
0.02 0.45 0.42 -0.93 9.81 -0.04 0.08 -0.04 17501
0.00 0.48 0.46 -0.88 9.82 -0.04 0.08 -0.04 17508
-0.01 0.50 0.49 -0.82 9.79 -0.04 0.07 -0.05 17515
-0.01 0.54 0.49 -0.83 9.20 -0.04 0.07 -0.05 17522
0.00 0.51 0.41 -0.85 9.78 -0.03 0.07 -0.04 17529
0.01 0.54 0.42 -0.85 9.82 -0.03 0.08 -0.05 17537
-0.00 0.52 0.64 -0.76 9.72 -0.03 0.09 -0.05 17544
0.00 0.50 0.45 -0.76 9.77 -0.03 0.10 -0.04 17551
-0.02 0.55 0.51 -0.82 9.76 -0.03 0.10 -0.05 17558
-0.01 0.52 0.57 -0.84 9.83 -0.02 0.09 -0.05 17565
-0.01 0.52 0.52 -0.81 9.76 -0.01 0.08 -0.06 17572
0.00 0.53 0.51 -0.86 9.81 -0.02 0.08 -0.06 17580
-0.01 0.53 0.49 -0.83 9.82 -0.02 0.08 -0.05 17587
-0.01 0.48 0.49 -0.83 9.81 -0.02 0.08 -0.06 17594
-0.01 0.49 0.43 -0.82 9.83 -0.02 0.08 -0.06 17601
-0.02 0.51 0.47 -0.81 9.82 -0.01 0.08 -0.06 17608
-0.01 0.49 0.51 -0.81 9.82 -0.01 0.08 -0.06 17615
-0.00 0.51 0.53 -0.80 9.81 -0.01 0.08 -0.06 17623
-0.00 0.50 0.51 -0.80 9.85 -0.01 0.08 -0.06 17630
