Voltage_01 Voltage_02 Acc_x Acc_y Acc_z Gyro_x Gyro_y Gyro_z Time
5000
0.66 -0.04 0.56 -0.68 10.09 0.16 0.07 -0.07 24
0.65 -0.04 0.68 -1.28 10.74 0.30 0.05 -0.07 31
0.68 -0.03 0.46 -1.26 10.73 0.69 0.06 -0.09 38
0.67 -0.03 0.96 -1.19 10.46 0.74 0.09 -0.07 46
0.66 -0.02 0.27 -1.22 10.71 0.76 0.15 -0.08 54
0.67 -0.02 0.52 -1.17 10.35 0.81 0.14 -0.07 61
0.64 -0.02 0.38 -1.28 10.32 0.85 0.15 -0.06 68
0.62 -0.02 0.26 -1.27 10.21 0.88 0.15 -0.06 75
0.59 -0.02 0.27 -1.35 10.46 0.91 0.18 -0.06 82
0.57 -0.01 0.22 -1.44 10.63 0.92 0.16 -0.05 90
0.55 -0.01 0.47 -1.53 10.22 0.95 0.17 -0.05 97
0.51 -0.01 0.29 -1.71 10.09 0.98 0.15 -0.05 103
0.46 -0.01 0.63 -1.80 10.03 1.02 0.11 -0.05 110
0.41 -0.02 0.61 -1.87 9.67 1.05 0.03 -0.05 117
0.38 -0.01 0.41 -1.79 10.26 1.04 -0.03 -0.05 124
0.35 -0.02 0.54 -2.02 10.10 1.04 -0.02 -0.04 132
0.31 0.00 0.40 -1.99 10.08 1.03 0.00 -0.03 139
0.28 -0.01 0.11 -2.22 10.07 1.01 0.01 -0.01 146
0.20 -0.02 0.15 -2.19 9.76 0.98 -0.00 0.01 153
0.22 -0.02 0.27 -2.21 9.61 0.94 -0.02 0.03 160
0.13 -0.01 -0.17 -2.04 9.75 0.89 -0.08 0.07 167
0.10 -0.01 -0.60 -2.19 9.91 0.84 -0.17 0.12 175
0.09 -0.01 -1.29 -2.05 10.16 0.78 -0.26 0.17 182
0.09 -0.01 -1.99 -1.71 10.25 0.71 -0.48 0.26 189
0.07 -0.01 -2.07 -1.70 11.13 0.63 -0.77 0.37 196
0.08 -0.01 -2.10 -1.26 11.51 0.46 -1.17 0.46 203
0.07 -0.01 -1.74 -1.12 11.72 0.29 -1.58 0.58 210
0.06 -0.00 -1.24 -0.19 11.29 0.18 -1.86 0.68 219
0.03 -0.00 0.66 1.98 10.98 0.07 -2.05 0.74 225
0.05 -0.00 2.58 4.07 10.67 -0.09 -2.08 0.70 232
0.00 0.00 2.89 3.85 9.78 -0.35 -2.02 0.58 239
0.00 0.00 2.34 5.01 9.41 -0.56 -1.94 0.43 245
0.00 0.00 2.04 3.64 8.64 -0.65 -1.87 0.25 251
0.00 0.00 2.24 2.84 10.28 -0.73 -1.61 0.18 258
0.01 -0.00 3.22 2.59 11.49 -0.90 -1.11 0.08 265
0.00 -0.00 3.52 2.19 10.50 -0.94 -0.84 -0.08 272
0.00 -0.00 2.44 1.13 9.21 -0.95 -0.69 -0.23 279
0.01 -0.00 1.52 0.73 8.54 -0.94 -0.59 -0.33 286
0.00 -0.00 1.40 0.08 8.46 -0.89 -0.57 -0.38 293
0.02 -0.00 1.39 -0.55 8.83 -0.80 -0.61 -0.43 301
0.03 -0.00 1.42 -1.21 9.00 -0.70 -0.66 -0.45 308
0.02 -0.00 1.90 -1.45 9.13 -0.60 -0.71 -0.46 315
0.02 -0.00 2.74 -1.68 9.18 -0.51 -0.73 -0.47 322
0.02 -0.00 3.55 -1.80 9.11 -0.42 -0.69 -0.48 329
0.01 -0.00 4.27 -1.79 9.19 -0.36 -0.55 -0.51 336
-0.00 0.00 4.95 -1.87 9.30 -0.32 -0.24 -0.51 344
0.01 -0.00 5.41 -1.74 9.12 -0.32 0.02 -0.50 351
0.00 0.00 5.07 -1.58 9.13 -0.32 0.33 -0.47 358
0.00 0.00 4.81 -1.57 9.23 -0.32 0.50 -0.42 364
0.00 0.00 4.43 -1.65 9.44 -0.32 0.65 -0.34 370
0.00 0.00 3.93 -1.68 9.73 -0.31 0.70 -0.23 377
0.00 -0.00 3.63 -1.76 9.82 -0.30 0.67 -0.11 384
0.01 -0.00 3.55 -1.56 9.84 -0.30 0.61 -0.00 391
0.00 -0.00 3.59 -1.35 9.89 -0.31 0.54 0.15 398
0.00 0.00 3.71 -1.20 9.89 -0.33 0.50 0.29 405
0.00 0.00 3.75 -1.13 9.94 -0.34 0.49 0.43 411
0.00 0.00 3.67 -1.08 10.01 -0.37 0.50 0.56 417
0.00 0.00 3.46 -1.20 10.03 -0.40 0.54 0.68 424
0.00 -0.00 3.21 -1.36 9.99 -0.43 0.58 0.80 432
0.00 0.00 2.89 -1.55 9.83 -0.45 0.62 0.89 439
0.00 0.00 2.52 -1.70 9.82 -0.46 0.67 0.95 445
0.00 0.00 2.08 -1.85 9.73 -0.46 0.71 1.00 451
0.00 0.00 1.75 -1.97 9.52 -0.44 0.73 1.03 457
0.00 -0.00 1.43 -2.06 9.61 -0.42 0.73 1.04 463
0.00 0.00 1.14 -2.13 9.67 -0.38 0.73 1.03 471
0.01 -0.00 1.11 -2.13 9.81 -0.36 0.73 1.02 477
0.00 0.00 1.09 -2.03 9.93 -0.33 0.75 0.98 484
0.00 0.00 1.12 -1.89 10.08 -0.33 0.77 0.95 490
0.00 0.00 1.02 -1.83 10.23 -0.35 0.81 0.92 497
0.00 0.00 0.82 -1.91 10.21 -0.36 0.83 0.87 504
0.00 -0.00 0.55 -1.89 10.22 -0.38 0.83 0.85 512
0.00 -0.00 0.30 -1.88 10.33 -0.40 0.81 0.84 519
0.00 0.00 0.12 -1.98 10.32 -0.40 0.74 0.84 526
0.00 0.00 0.10 -2.05 10.38 -0.39 0.71 0.86 533
0.00 0.00 0.28 -2.13 10.44 -0.39 0.63 0.89 540
0.00 -0.00 0.32 -2.27 10.55 -0.39 0.58 0.93 547
0.00 0.00 0.57 -2.42 10.54 -0.39 0.54 0.97 555
0.00 -0.00 0.83 -2.53 10.37 -0.39 0.51 1.02 562
0.00 0.00 0.88 -2.61 10.21 -0.38 0.48 1.08 569
0.00 0.00 0.88 -2.73 10.12 -0.37 0.48 1.15 576
0.00 0.00 0.61 -2.71 10.07 -0.34 0.48 1.24 583
0.00 0.00 0.07 -2.79 10.00 -0.31 0.47 1.31 590
0.01 -0.00 -0.30 -2.68 9.93 -0.29 0.45 1.37 598
0.00 -0.00 -0.64 -2.63 9.94 -0.28 0.43 1.44 605
0.00 -0.00 -0.92 -2.58 10.06 -0.28 0.44 1.41 612
0.00 0.00 -1.37 -2.60 10.15 -0.29 0.46 1.40 619
0.00 0.00 -1.70 -2.65 10.13 -0.31 0.50 1.34 626
0.00 0.00 -2.00 -2.75 9.89 -0.32 0.54 1.24 633
0.01 -0.00 -3.02 -3.04 9.81 -0.33 0.55 1.14 640
0.00 0.00 -2.80 -3.32 9.52 -0.32 0.56 1.02 647
0.00 0.00 -2.97 -3.58 9.29 -0.31 0.55 0.89 653
0.00 0.00 -3.15 -3.72 9.18 -0.27 0.54 0.75 659
0.00 0.00 -3.26 -3.76 9.13 -0.23 0.52 0.67 665
0.00 0.00 -3.30 -3.68 9.30 -0.20 0.50 0.55 672
0.00 -0.00 -3.36 -3.55 9.49 -0.18 0.49 0.44 678
0.01 -0.00 -3.42 -3.39 9.54 -0.20 0.47 0.39 686
0.00 0.00 -3.50 -3.32 9.33 -0.24 0.45 0.32 693
0.00 0.00 -3.64 -3.37 9.10 -0.27 0.41 0.29 699
0.00 0.00 -3.74 -3.51 8.72 -0.28 0.37 0.25 705
0.00 0.00 -3.93 -3.59 8.25 -0.26 0.32 0.21 711
0.00 0.00 -4.10 -3.72 7.81 -0.21 0.26 0.17 718
0.01 -0.00 -12.34 -12.08 18.32 0.07 -0.48 0.18 726
0.00 0.00 -3.66 -4.33 6.59 0.32 -0.86 0.15 732
0.00 -0.00 -5.45 -5.12 4.97 0.37 -1.18 0.12 738
0.00 0.00 -6.49 -8.76 9.00 0.56 -1.50 0.07 745
0.02 -0.00 -2.59 -15.24 5.29 0.74 -1.29 0.09 751
-0.00 0.01 -2.19 -12.91 5.98 1.25 -0.69 0.30 758
0.01 0.02 -4.00 0.34 9.65 1.48 -0.72 0.23 765
-0.00 0.01 -5.06 -5.53 33.65 1.16 -1.95 -0.11 773
-0.01 0.06 -2.72 -3.35 12.60 -0.27 -0.22 0.02 780
-0.02 0.16 0.53 -1.82 11.01 -0.29 -0.02 -0.07 787
-0.02 0.28 0.53 -0.50 10.00 -0.25 -0.02 -0.07 794
-0.01 0.32 0.74 -0.95 10.30 -0.14 -0.02 -0.09 801
-0.00 0.37 0.40 -1.17 10.26 -0.11 -0.03 -0.07 809
0.02 0.39 0.08 -1.12 10.20 -0.08 -0.00 -0.07 816
0.02 0.42 0.19 -0.91 9.90 -0.05 0.02 -0.06 823
0.02 0.45 0.25 -0.83 9.85 -0.03 0.04 -0.05 830
0.02 0.41 0.39 -0.98 9.84 -0.02 0.05 -0.05 837
0.02 0.43 0.33 -0.91 9.80 -0.03 0.05 -0.05 844
0.03 0.47 0.33 -0.90 9.78 -0.03 0.05 -0.05 851
0.02 0.49 0.39 -0.89 9.77 -0.03 0.04 -0.05 859
0.01 0.49 0.35 -0.90 9.78 -0.03 0.04 -0.06 866
0.01 0.50 0.33 -0.89 9.79 -0.04 0.03 -0.05 873
0.01 0.56 0.34 -0.87 9.76 -0.04 0.03 -0.06 880
0.00 0.60 0.33 -0.86 9.80 -0.05 0.03 -0.05 887
0.01 0.62 0.31 -0.85 9.81 -0.05 0.03 -0.06 894
-0.00 0.65 0.37 -0.85 9.81 -0.04 0.03 -0.06 902
0.01 0.65 0.34 -0.89 9.82 -0.04 0.03 -0.06 909
0.00 0.65 0.36 -0.83 9.82 -0.04 0.07 -0.06 916
0.01 0.67 0.30 -0.87 9.82 -0.04 0.04 -0.06 923
0.03 0.71 0.32 -0.86 9.82 -0.03 0.04 -0.06 930
0.01 0.75 0.31 -0.85 9.80 -0.03 0.04 -0.06 937
0.01 0.76 0.31 -0.83 9.81 -0.02 0.04 -0.06 945
0.01 0.71 0.31 -0.83 9.84 -0.02 0.04 -0.06 952
0.01 0.74 0.33 -0.84 9.82 -0.02 0.04 -0.06 959
0.01 0.75 0.33 -0.85 9.84 -0.01 0.04 -0.06 966
0.02 0.74 0.28 -0.82 9.83 -0.01 0.04 -0.06 973
0.00 0.74 0.34 -0.86 9.81 -0.00 0.04 -0.06 980
-0.00 0.72 0.34 -0.83 9.81 -0.01 0.04 -0.06 988
-0.01 0.72 0.31 -0.86 9.83 -0.01 0.04 -0.06 995
0.00 0.72 0.30 -0.83 9.81 -0.00 0.04 -0.07 1002
0.01 0.73 0.34 -0.84 9.79 -0.00 0.04 -0.07 1009
0.02 0.69 0.31 -0.83 9.81 0.00 0.05 -0.07 1016
0.01 0.69 0.33 -0.86 9.82 -0.00 0.04 -0.06 1024
0.00 0.68 0.30 -0.84 9.81 -0.00 0.04 -0.07 1031
0.01 0.67 0.32 -0.84 9.78 -0.00 0.04 -0.06 1038
0.01 0.64 0.32 -0.85 9.77 -0.00 0.04 -0.07 1045
0.01 0.64 0.30 -0.86 9.79 0.00 0.05 -0.07 1052
0.03 0.62 0.34 -0.83 9.82 0.00 0.05 -0.07 1059
0.03 0.60 0.31 -0.81 9.81 0.00 0.05 -0.07 1067
0.02 0.58 0.31 -0.87 9.79 0.00 0.05 -0.07 1074
0.02 0.56 0.34 -0.83 9.74 0.00 0.05 -0.07 1081
0.02 0.55 0.33 -0.84 9.76 0.00 0.05 -0.07 1088
0.06 0.55 0.28 -0.82 9.79 0.01 0.06 -0.07 1095
0.07 0.54 0.26 -0.86 9.84 0.00 0.06 -0.07 1102
0.06 0.50 0.32 -0.84 9.81 0.01 0.07 -0.07 1110
0.07 0.47 0.34 -0.86 9.81 0.00 0.08 -0.07 1117
0.06 0.51 0.34 -0.85 9.82 0.01 0.08 -0.07 1124
0.05 0.51 0.34 -0.88 9.81 0.00 0.08 -0.06 1131
0.07 0.47 0.34 -0.85 9.76 0.01 0.07 -0.07 1138
0.11 0.43 0.40 -0.87 9.82 0.01 0.07 -0.07 1145
0.10 0.42 0.36 -0.86 9.78 0.00 0.07 -0.07 1153
0.12 0.40 0.39 -0.84 9.83 0.01 0.07 -0.07 1160
0.12 0.40 0.35 -0.88 9.81 0.01 0.06 -0.07 1167
0.14 0.38 0.33 -0.83 9.82 0.01 0.06 -0.07 1174
0.16 0.38 0.33 -0.85 9.82 0.01 0.06 -0.07 1181
0.15 0.38 0.36 -0.87 9.81 0.01 0.06 -0.06 1188
0.15 0.34 0.36 -0.86 9.82 0.01 0.06 -0.07 1196
0.16 0.29 0.37 -0.88 9.79 0.01 0.05 -0.07 1203
0.18 0.28 0.35 -0.89 9.80 0.00 0.05 -0.07 1210
0.19 0.29 0.36 -0.86 9.81 0.00 0.05 -0.07 1217
0.19 0.29 0.35 -0.91 9.82 0.01 0.05 -0.07 1224
0.19 0.26 0.36 -0.84 9.79 0.00 0.04 -0.06 1231
0.18 0.23 0.36 -0.87 9.81 0.00 0.04 -0.07 1239
0.16 0.26 0.40 -0.88 9.82 0.00 0.04 -0.06 1246
0.20 0.27 0.35 -0.88 9.78 -0.00 0.04 -0.10 1253
0.20 0.28 0.40 -0.88 9.81 -0.00 0.04 -0.07 1260
0.22 0.25 0.34 -0.88 9.79 0.00 0.04 -0.07 1267
0.22 0.21 0.37 -0.88 9.21 0.00 0.04 -0.06 1274
0.22 0.22 0.36 -0.85 9.80 -0.00 0.03 -0.07 1282
0.22 0.20 0.38 -0.87 9.79 -0.00 0.03 -0.07 1289
0.23 0.21 0.36 -0.86 9.81 -0.00 0.03 -0.06 1296
0.25 0.20 0.35 -0.88 9.81 -0.00 0.03 -0.07 1303
0.25 0.23 0.37 -0.89 9.79 0.00 0.03 -0.07 1310
0.25 0.22 0.39 -0.88 9.81 0.00 0.03 -0.06 1317
0.24 0.18 0.37 -0.86 9.79 0.00 0.03 -0.07 1325
0.23 0.20 0.36 -0.90 9.80 0.01 0.03 -0.07 1332
0.25 0.16 0.36 -0.88 9.79 0.00 0.03 -0.07 1339
0.26 0.13 0.35 -0.88 9.78 -0.00 0.03 -0.07 1346
0.28 0.10 0.36 -0.88 9.80 -0.00 0.03 -0.07 1353
0.26 0.11 0.34 -0.91 9.74 -0.00 0.03 -0.07 1360
0.26 0.12 0.33 -0.86 9.78 -0.00 0.03 -0.07 1368
0.27 0.11 0.34 -0.87 9.82 -0.00 0.03 -0.07 1375
0.29 0.09 0.36 -0.89 9.82 -0.00 0.03 -0.07 1382
0.32 0.07 0.33 -0.90 9.81 -0.00 0.03 -0.07 1389
0.32 0.11 0.35 -0.89 9.80 -0.00 0.03 -0.07 1396
0.31 0.08 0.38 -0.91 10.42 -0.00 0.03 -0.07 1403
0.30 0.10 0.37 -0.88 9.81 -0.00 0.04 -0.07 1411
0.31 0.11 0.33 -0.91 9.82 -0.00 0.04 -0.06 1418
0.34 0.10 0.34 -0.90 9.77 0.00 0.04 -0.07 1425
0.36 0.05 0.36 -0.89 9.78 0.00 0.04 -0.07 1432
0.38 0.04 0.31 -0.91 9.80 0.01 0.04 -0.07 1439
0.37 0.03 0.33 -0.93 9.81 -0.00 0.04 -0.07 1446
0.36 0.02 0.31 -0.88 9.77 -0.00 0.04 -0.07 1454
0.37 0.00 0.34 -0.88 9.81 0.00 0.04 -0.07 1461
0.37 0.01 0.34 -0.92 9.80 0.00 0.04 -0.07 1468
0.37 -0.01 0.36 -0.87 9.82 0.00 0.04 -0.07 1475
0.39 -0.01 0.34 -0.92 9.76 0.00 0.04 -0.07 1482
0.40 -0.03 0.36 -0.93 9.79 0.01 0.04 -0.07 1489
0.40 -0.01 0.37 -0.91 9.80 0.01 0.04 -0.07 1497
0.42 -0.01 0.30 -0.93 9.82 0.01 0.04 -0.07 1504
0.40 -0.02 0.35 -0.89 9.81 0.01 0.05 -0.07 1511
0.43 -0.02 0.33 -0.92 9.81 0.01 0.04 -0.07 1518
0.43 -0.03 0.33 -0.91 9.81 0.01 0.05 -0.07 1525
0.45 -0.02 0.36 -0.91 9.82 0.02 0.04 -0.07 1532
0.46 -0.02 0.36 -0.95 9.81 0.03 0.04 -0.07 1540
0.45 -0.01 0.37 -0.90 9.81 0.03 0.05 -0.07 1547
0.47 -0.01 0.35 -0.94 9.82 0.04 0.05 -0.07 1554
0.50 -0.02 0.40 -0.94 9.82 0.04 0.05 -0.07 1561
0.52 -0.03 0.42 -0.91 9.84 0.05 0.05 -0.08 1568
0.53 -0.02 0.40 -0.92 9.86 0.06 0.06 -0.08 1575
0.54 -0.03 0.35 -0.92 9.85 0.07 0.06 -0.08 1583
0.58 -0.00 0.34 -0.94 9.90 0.07 0.07 -0.08 1590
0.60 -0.03 0.44 -0.93 9.89 0.09 0.08 -0.08 1597
0.60 -0.02 0.40 -0.95 9.92 0.11 0.09 -0.09 1604
0.63 -0.04 0.41 -1.00 10.00 0.15 0.09 -0.10 1611
0.61 -0.03 0.21 -1.06 10.16 0.19 0.10 -0.12 1618
0.62 -0.02 0.84 -0.97 10.02 0.29 0.17 -0.15 1627
0.64 -0.02 -0.09 -1.07 10.55 0.71 0.25 -0.15 1634
0.64 -0.03 0.75 -1.45 10.90 0.91 0.24 -0.15 1641
0.65 -0.02 0.63 -1.37 11.83 0.91 0.21 -0.18 1648
0.67 -0.03 0.54 -1.23 10.98 0.91 0.10 -0.17 1655
0.66 -0.02 0.41 -1.49 10.95 0.95 0.10 -0.17 1662
0.68 -0.01 0.68 -1.38 10.75 0.99 0.06 -0.18 1670
0.68 -0.01 0.46 -1.59 10.36 1.01 0.04 -0.17 1677
0.67 -0.01 0.41 -1.57 10.47 1.03 0.02 -0.16 1684
0.66 -0.02 0.33 -1.63 10.25 1.04 0.01 -0.16 1691
0.65 -0.02 0.49 -1.63 10.16 1.05 -0.02 -0.15 1698
0.63 -0.01 0.30 -1.81 10.46 1.07 -0.02 -0.15 1705
0.63 0.01 0.22 -1.83 10.28 1.09 -0.03 -0.15 1713
0.61 -0.01 0.22 -1.83 10.35 1.12 -0.03 -0.14 1720
0.59 -0.02 0.24 -2.05 10.24 1.15 -0.06 -0.12 1727
0.56 -0.02 0.34 -2.19 10.20 1.17 -0.07 -0.11 1734
0.51 -0.02 0.55 -2.26 10.15 1.21 -0.07 -0.12 1741
0.46 -0.01 0.53 -2.38 10.28 1.25 -0.04 -0.14 1748
0.42 -0.00 0.28 -2.44 10.21 1.30 -0.00 -0.13 1755
0.39 -0.02 0.41 -2.70 9.72 1.33 0.01 -0.13 1762
0.35 -0.02 0.22 -2.63 9.93 1.31 0.01 -0.11 1769
0.24 -0.02 0.17 -2.79 11.10 1.35 0.08 -0.10 1776
0.19 -0.02 0.10 -2.89 10.84 1.40 0.13 -0.09 1783
0.11 -0.01 0.30 -3.07 10.54 1.46 0.19 -0.07 1790
0.10 -0.01 0.23 -3.15 10.24 1.45 0.27 -0.07 1798
0.11 -0.01 0.01 -3.46 10.56 1.41 0.33 -0.05 1805
0.10 -0.01 0.26 -3.69 10.74 1.36 0.36 -0.01 1812
0.11 -0.01 0.13 -3.88 10.75 1.32 0.35 0.01 1819
0.07 -0.01 0.28 -4.22 11.34 1.27 0.33 0.02 1826
0.07 -0.01 0.04 -3.70 12.10 1.19 0.31 0.03 1833
0.09 -0.01 -0.58 -1.23 11.79 1.11 0.22 0.00 1841
0.08 -0.01 -2.18 3.24 11.93 0.94 -0.02 -0.04 1848
0.08 -0.01 -3.09 3.98 12.00 0.55 -0.41 -0.15 1855
0.04 -0.00 -2.17 3.42 12.73 -0.07 -0.79 -0.29 1862
0.03 -0.00 -2.38 5.37 10.87 -0.56 -1.04 -0.54 1869
0.04 -0.00 -3.26 5.13 9.55 -0.75 -1.17 -1.01 1876
0.03 -0.00 -1.15 3.12 6.50 -0.78 -1.35 -1.43 1884
0.03 -0.00 -1.07 3.09 10.98 -0.94 -1.26 -1.83 1891
0.02 -0.00 0.04 2.68 10.16 -1.28 -1.16 -2.27 1898
0.01 -0.00 0.42 1.37 9.65 -1.36 -1.18 -2.57 1905
0.01 -0.00 0.66 -0.21 9.04 -1.34 -1.21 -2.87 1912
0.02 -0.00 1.20 -0.99 8.44 -1.24 -1.20 -3.07 1920
0.02 -0.00 1.65 -1.61 7.92 -1.06 -1.19 -3.22 1927
0.03 -0.00 1.80 -1.83 7.41 -0.90 -1.17 -3.29 1934
0.02 -0.00 1.76 -1.81 7.05 -0.71 -1.13 -3.29 1941
0.02 -0.00 1.61 -1.85 7.39 -0.55 -1.12 -3.21 1948
0.02 -0.00 1.77 -1.84 8.04 -0.37 -1.12 -3.10 1955
0.02 0.00 2.22 -1.69 8.78 -0.23 -1.11 -2.96 1963
0.04 -0.00 2.62 -1.46 8.67 -0.14 -1.08 -2.80 1970
0.03 -0.00 3.07 -1.32 8.85 -0.08 -0.95 -2.66 1977
0.01 -0.00 3.49 -1.18 8.89 -0.06 -0.70 -2.48 1984
0.00 -0.00 3.81 -1.06 9.09 -0.09 -0.42 -2.31 1991
0.01 -0.00 4.08 -0.93 9.27 -0.13 -0.06 -2.11 1998
0.01 -0.00 3.95 -1.01 9.36 -0.20 0.24 -1.90 2006
0.02 -0.00 3.59 -1.11 9.78 -0.30 0.54 -1.71 2013
0.01 -0.00 3.04 -1.21 9.74 -0.40 0.71 -1.46 2020
0.02 -0.00 2.60 -1.26 9.70 -0.48 0.76 -1.20 2027
0.00 0.00 2.19 -1.36 9.59 -0.52 0.73 -0.94 2034
0.00 -0.00 1.32 -1.62 9.60 -0.54 0.67 -0.63 2041
0.00 -0.00 1.73 -1.77 9.55 -0.53 0.61 -0.36 2049
0.00 0.00 1.58 -1.96 9.51 -0.51 0.56 -0.08 2056
0.00 0.00 1.45 -2.20 9.57 -0.48 0.54 0.16 2063
0.00 0.00 1.25 -2.33 9.35 -0.46 0.53 0.32 2070
0.00 0.00 1.16 -2.51 9.62 -0.45 0.53 0.48 2077
0.00 -0.00 1.02 -2.56 9.82 -0.44 0.54 0.57 2084
0.01 -0.00 0.92 -2.69 10.00 -0.44 0.54 0.67 2092
0.00 -0.00 0.99 -2.57 10.15 -0.45 0.56 0.76 2099
0.00 0.00 1.17 -2.51 10.28 -0.48 0.59 0.82 2106
0.00 0.00 1.15 -2.56 10.31 -0.51 0.64 0.87 2113
0.00 0.00 1.17 -2.58 10.32 -0.54 0.69 0.92 2120
0.01 0.01 1.11 -2.77 10.25 -0.54 0.75 0.98 2127
0.01 -0.00 1.04 -2.82 10.23 -0.55 0.79 1.04 2135
0.01 -0.00 0.76 -2.87 10.31 -0.55 0.82 1.09 2142
0.02 -0.00 0.65 -2.88 10.51 -0.56 0.82 1.13 2149
0.00 -0.00 0.56 -2.72 10.30 -0.57 0.81 1.20 2156
0.01 -0.00 0.42 -2.46 10.18 -0.59 0.77 1.21 2163
0.01 -0.00 0.28 -2.38 10.38 -0.61 0.70 1.26 2170
0.02 -0.00 0.17 -2.41 10.35 -0.61 0.73 1.30 2178
0.02 -0.00 0.06 -2.39 10.26 -0.60 0.75 1.34 2185
0.01 -0.00 -0.05 -2.41 10.22 -0.58 0.77 1.37 2192
0.01 -0.00 -0.28 -2.60 10.35 -0.55 0.78 1.39 2199
0.01 -0.00 -0.57 -2.94 10.45 -0.53 0.78 1.39 2206
0.01 -0.00 -0.80 -3.26 10.51 -0.51 0.78 1.35 2213
0.01 -0.00 -0.95 -3.48 10.43 -0.50 0.77 1.29 2221
0.01 -0.00 -1.04 -3.49 10.29 -0.51 0.76 1.20 2228
0.00 -0.00 -1.13 -3.50 10.32 -0.52 0.79 1.12 2235
0.00 0.00 -1.14 -3.42 10.34 -0.54 0.84 1.03 2242
0.00 0.00 -1.31 -3.40 10.31 -0.57 0.88 0.96 2249
0.00 -0.00 -1.45 -3.41 10.07 -0.60 0.90 0.89 2256
0.00 -0.00 -1.57 -3.50 9.92 -0.60 0.89 0.83 2264
0.00 -0.00 -1.67 -3.69 9.82 -0.57 0.87 0.80 2271
0.00 -0.00 -1.79 -3.90 9.73 -0.53 0.84 0.77 2278
0.00 0.00 -1.91 -3.94 9.64 -0.48 0.81 0.75 2285
0.00 0.00 -2.01 -3.98 9.61 -0.42 0.77 0.73 2292
0.01 -0.00 -2.11 -3.90 9.67 -0.39 0.75 0.72 2299
0.00 0.00 -2.22 -3.85 9.80 -0.37 0.73 0.72 2307
0.00 0.00 -2.35 -3.99 9.82 -0.38 0.72 0.73 2314
0.00 0.00 -2.44 -4.11 9.66 -0.40 0.70 0.75 2321
0.00 0.00 -2.55 -4.33 9.53 -0.40 0.65 0.78 2328
0.00 0.00 -2.60 -4.55 9.47 -0.40 0.62 0.81 2335
0.00 -0.00 -2.62 -4.74 9.22 -0.39 0.60 0.84 2342
0.00 0.00 -2.62 -4.89 9.01 -0.36 0.58 0.88 2350
0.00 0.00 -2.68 -4.99 8.90 -0.31 0.56 0.90 2357
0.00 0.00 -2.93 -5.13 8.84 -0.24 0.54 0.91 2364
0.00 0.00 -9.21 -7.86 25.53 0.09 -0.33 1.04 2371
0.00 0.00 -2.43 -4.28 7.07 0.29 -0.40 1.11 2378
0.01 -0.00 -3.50 -5.70 9.60 0.54 -0.39 1.25 2385
0.00 -0.00 -5.04 -8.20 10.67 0.59 -0.36 1.41 2393
0.00 -0.00 -6.54 -8.01 8.58 0.71 -0.42 1.44 2400
0.00 0.00 -8.18 -9.19 8.50 0.84 -0.68 1.50 2407
-0.00 0.00 -7.78 -8.11 8.78 1.03 -0.72 1.61 2414
-0.00 0.01 -14.73 -4.89 20.92 0.66 -1.15 1.12 2422
0.01 0.02 -5.53 -5.03 15.48 0.06 -0.23 0.29 2428
0.01 0.02 -1.36 -0.92 8.60 -0.19 0.06 -0.08 2436
0.02 0.00 -0.26 -1.03 10.14 -0.20 -0.02 -0.11 2443
0.01 0.03 0.51 -0.97 10.08 -0.19 -0.03 -0.08 2450
0.02 0.08 0.61 -0.92 10.10 -0.17 0.03 -0.05 2457
0.02 0.18 0.39 -0.86 10.09 -0.16 0.03 -0.03 2464
0.02 0.19 0.40 -0.89 10.00 -0.13 0.02 -0.04 2471
0.01 0.26 0.24 -0.88 9.91 -0.09 0.01 -0.05 2479
0.01 0.23 0.27 -0.95 9.91 -0.07 0.01 -0.06 2486
0.00 0.28 0.38 -0.93 9.89 -0.06 0.02 -0.05 2493
0.01 0.28 0.30 -0.88 9.84 -0.05 0.02 -0.06 2500
0.03 0.30 0.27 -0.88 9.82 -0.04 0.02 -0.06 2507
0.03 0.29 0.34 -0.91 9.77 -0.04 0.03 -0.06 2514
0.05 0.30 0.33 -0.92 9.78 -0.04 0.02 -0.07 2522
0.01 0.31 0.26 -0.89 10.42 -0.05 0.02 -0.06 2529
0.02 0.30 0.28 -0.90 9.81 -0.05 0.02 -0.07 2536
0.02 0.30 0.33 -0.88 9.81 -0.05 0.02 -0.07 2543
0.07 0.31 0.29 -0.86 9.80 -0.04 0.02 -0.07 2550
0.06 0.34 0.30 -0.85 9.80 -0.05 0.02 -0.07 2557
0.07 0.35 0.26 -0.85 9.81 -0.05 0.02 -0.07 2565
0.06 0.39 0.27 -0.86 9.80 -0.05 0.03 -0.06 2572
0.07 0.38 0.06 -0.85 9.84 -0.05 0.03 -0.07 2579
0.06 0.38 0.30 -0.87 9.83 -0.04 0.03 -0.06 2586
0.09 0.38 0.34 -0.86 9.83 -0.04 0.04 -0.06 2593
0.09 0.39 0.27 -0.86 9.83 -0.04 0.04 -0.06 2600
0.08 0.46 0.29 -0.88 9.82 -0.04 0.03 -0.06 2608
0.09 0.45 0.31 -0.84 9.80 -0.03 0.04 -0.06 2615
0.10 0.47 0.31 -0.82 9.81 -0.03 0.03 -0.06 2622
0.09 0.51 0.32 -0.85 9.83 -0.03 0.03 -0.06 2629
0.11 0.51 0.27 -0.84 9.83 -0.02 0.03 -0.06 2636
0.12 0.50 0.35 -0.84 9.82 -0.02 0.03 -0.06 2643
0.12 0.47 0.29 -0.83 9.82 -0.01 0.03 -0.06 2651
0.11 0.48 0.25 -0.83 9.82 -0.01 0.03 -0.06 2658
0.11 0.47 0.30 -0.82 9.81 -0.01 0.03 -0.06 2665
0.12 0.48 0.26 -0.80 9.81 -0.01 0.03 -0.06 2672
0.14 0.47 0.28 -0.84 9.81 -0.00 0.04 -0.06 2679
0.14 0.48 0.32 -0.81 9.81 -0.00 0.04 -0.06 2686
0.14 0.50 0.25 -0.86 9.82 -0.00 0.04 -0.06 2694
0.12 0.51 0.27 -0.84 9.82 0.00 0.03 -0.07 2701
0.14 0.48 0.28 -0.85 9.75 0.00 0.04 -0.06 2708
0.12 0.49 0.29 -0.81 9.81 0.00 0.04 -0.06 2715
0.11 0.47 0.27 -0.83 9.81 0.00 0.04 -0.07 2722
0.11 0.45 0.25 -0.81 9.83 0.00 0.04 -0.06 2729
0.10 0.44 0.28 -0.86 9.81 0.00 0.04 -0.07 2737
0.10 0.44 0.28 -0.84 9.81 0.00 0.04 -0.06 2744
0.12 0.43 0.28 -0.85 9.21 0.00 0.04 -0.06 2751
0.14 0.41 0.27 -0.84 9.80 -0.00 0.04 -0.07 2758
0.13 0.41 0.31 -0.84 9.81 -0.00 0.04 -0.07 2765
0.13 0.39 0.31 -0.84 9.81 -0.00 0.04 -0.06 2772
0.12 0.40 0.30 -0.83 9.82 -0.01 0.04 -0.07 2780
0.12 0.40 0.27 -0.84 9.81 -0.00 0.04 -0.07 2787
0.12 0.41 0.30 -0.85 9.80 -0.00 0.04 -0.07 2794
0.13 0.40 0.29 -0.81 9.79 -0.00 0.04 -0.06 2801
0.13 0.39 0.28 -0.84 9.82 -0.01 0.04 -0.07 2808
0.14 0.38 0.26 -0.81 9.81 -0.00 0.04 -0.07 2816
0.14 0.38 0.29 -0.86 9.82 -0.00 0.04 -0.07 2823
0.14 0.41 0.30 -0.84 9.80 -0.01 0.04 -0.06 2830
0.15 0.42 0.28 -0.85 9.82 -0.01 0.04 -0.07 2837
0.18 0.41 0.28 -0.84 9.80 -0.00 0.04 -0.07 2844
0.17 0.40 0.27 -0.83 9.80 -0.00 0.04 -0.06 2851
0.17 0.38 0.25 -0.85 9.81 -0.01 0.04 -0.06 2859
0.16 0.38 0.30 -0.82 9.81 -0.01 0.04 -0.07 2866
0.17 0.38 0.27 -0.81 9.81 -0.00 0.04 -0.06 2873
0.18 0.39 0.25 -0.83 9.80 -0.00 0.04 -0.07 2880
0.19 0.38 0.27 -0.84 9.81 -0.00 0.04 -0.06 2887
0.19 0.35 0.29 -0.85 9.81 0.00 0.04 -0.06 2894
0.19 0.34 0.30 -0.84 9.80 -0.01 0.04 -0.06 2902
0.18 0.33 0.28 -0.86 9.82 -0.00 0.04 -0.07 2909
0.21 0.32 0.32 -0.84 9.20 -0.00 0.04 -0.07 2916
0.22 0.34 0.28 -0.84 9.77 -0.00 0.04 -0.07 2923
0.23 0.35 0.31 -0.86 9.81 -0.00 0.04 -0.07 2930
0.22 0.36 0.30 -0.83 9.80 -0.00 0.03 -0.06 2937
0.22 0.33 0.28 -0.86 9.79 -0.00 0.04 -0.06 2945
0.22 0.33 0.23 -0.86 9.80 0.00 0.04 -0.06 2952
0.22 0.32 0.25 -0.86 9.82 0.00 0.03 -0.06 2959
0.24 0.30 0.27 -0.86 9.83 0.00 0.04 -0.06 2966
0.24 0.30 0.29 -0.86 9.80 0.00 0.04 -0.06 2973
0.25 0.28 0.31 -0.83 9.81 0.00 0.04 -0.07 2980
0.25 0.29 0.29 -0.84 9.76 0.01 0.04 -0.10 2988
0.27 0.26 0.29 -0.88 9.82 0.01 0.04 -0.07 2995
0.29 0.26 0.27 -0.81 9.80 0.00 0.04 -0.07 3002
0.30 0.24 0.28 -0.84 10.40 0.01 0.04 -0.07 3009
0.31 0.18 0.28 -0.87 9.81 0.00 0.04 -0.06 3016
0.31 0.16 0.30 -0.81 9.79 0.00 0.04 -0.06 3023
0.30 0.20 0.26 -0.84 9.81 0.00 0.04 -0.07 3031
0.36 0.12 0.24 -0.87 9.82 0.00 0.04 -0.07 3038
0.37 0.10 0.27 -0.87 9.80 0.01 0.04 -0.06 3045
0.38 0.07 0.29 -0.88 9.81 0.01 0.04 -0.07 3052
0.39 0.07 0.30 -0.83 9.82 0.01 0.04 -0.06 3059
0.37 0.06 0.29 -0.88 9.82 0.00 0.04 -0.06 3066
0.37 0.07 0.29 -0.88 9.81 0.01 0.04 -0.06 3074
0.40 0.01 0.25 -0.83 9.82 0.01 0.04 -0.06 3081
0.42 0.02 0.29 -0.88 9.81 0.01 0.04 -0.07 3088
0.44 -0.02 0.29 -0.82 9.81 0.02 0.04 -0.06 3095
0.45 -0.01 0.31 -0.84 9.82 0.02 0.04 -0.06 3102
0.46 -0.02 0.28 -0.88 9.81 0.02 0.04 -0.06 3109
0.49 -0.02 0.25 -0.87 9.81 0.02 0.04 -0.06 3117
0.50 -0.01 0.29 -0.86 9.82 0.03 0.04 -0.06 3124
0.54 -0.03 0.25 -0.91 9.78 0.03 0.04 -0.06 3131
0.57 -0.03 0.25 -0.94 9.82 0.04 0.04 -0.06 3138
0.60 -0.04 0.29 -0.97 9.82 0.04 0.03 -0.06 3145
0.61 -0.03 0.28 -0.92 9.85 0.05 0.04 -0.06 3152
0.65 -0.03 0.25 -0.92 9.83 0.06 0.03 -0.06 3160
0.66 -0.03 0.27 -0.91 9.81 0.07 0.03 -0.06 3167
0.70 -0.03 0.26 -0.99 9.85 0.08 0.03 -0.06 3174
0.72 -0.03 0.16 -1.00 9.83 0.09 0.04 -0.07 3181
0.75 -0.05 0.25 -1.01 9.90 0.12 0.02 -0.08 3188
0.77 -0.03 0.41 -0.89 10.02 0.15 0.00 -0.09 3195
0.81 -0.03 0.41 -1.00 10.04 0.19 -0.01 -0.10 3203
0.85 -0.03 0.42 -0.97 10.06 0.24 -0.01 -0.12 3210
0.88 -0.03 0.25 -0.78 10.34 0.32 -0.01 -0.13 3218
0.88 -0.03 0.13 -0.62 10.65 0.58 0.01 -0.14 3225
0.90 -0.05 0.35 -0.97 10.83 0.90 0.00 -0.17 3231
0.91 -0.04 0.28 -1.23 11.01 0.96 -0.07 -0.18 3239
0.94 -0.03 0.46 -1.13 10.50 0.94 -0.06 -0.19 3247
0.95 -0.03 0.35 -1.59 11.24 1.00 -0.07 -0.18 3254
0.97 -0.03 0.27 -1.39 10.85 1.05 -0.07 -0.19 3261
0.97 -0.02 0.16 -1.54 10.57 1.11 -0.06 -0.20 3268
0.95 -0.02 0.11 -1.56 10.84 1.16 -0.05 -0.19 3275
0.93 -0.02 0.29 -1.48 10.65 1.20 -0.05 -0.19 3281
0.91 -0.02 0.02 -1.71 10.54 1.24 -0.03 -0.19 3290
0.87 -0.00 0.06 -1.72 10.19 1.26 0.01 -0.18 3296
0.85 -0.02 -0.06 -1.92 9.94 1.28 0.05 -0.17 3303
0.80 -0.02 -0.03 -2.03 9.65 1.29 0.07 -0.16 3310
0.76 -0.02 -0.10 -2.13 9.96 1.29 0.07 -0.14 3317
0.67 -0.01 0.00 -2.26 9.99 1.29 0.11 -0.12 3324
0.60 -0.00 0.07 -2.36 10.23 1.32 0.09 -0.10 3332
0.57 -0.01 0.03 -2.46 10.28 1.37 0.09 -0.08 3339
0.48 -0.01 0.16 -2.60 10.01 1.41 0.14 -0.07 3346
0.42 -0.02 -0.21 -2.50 10.03 1.43 0.16 -0.06 3354
0.33 0.00 0.00 -2.91 9.54 1.40 0.10 -0.03 3360
0.21 -0.01 0.32 -2.94 9.87 1.39 0.20 -0.02 3367
0.16 0.00 0.04 -2.67 10.76 1.42 0.21 -0.02 3375
0.17 -0.01 0.00 -3.13 10.40 1.44 0.29 0.00 3382
0.10 -0.01 -0.14 -3.36 10.93 1.46 0.40 0.03 3389
0.08 -0.01 -0.11 -3.28 10.92 1.43 0.37 0.05 3396
0.10 -0.01 -0.22 -3.96 10.26 1.38 0.34 0.10 3403
0.08 -0.01 -0.16 -4.15 9.87 1.31 0.28 0.12 3410
0.08 -0.01 -0.02 -3.95 10.49 1.22 0.20 0.13 3418
0.08 -0.01 -0.58 -3.46 11.18 1.13 0.10 0.13 3425
0.07 -0.01 -1.37 -2.34 11.47 1.01 -0.11 0.12 3432
0.04 -0.00 -1.41 -1.81 11.32 0.82 -0.50 0.11 3439
0.02 -0.00 -0.78 -0.34 12.74 0.58 -0.85 0.07 3446
0.03 -0.00 0.21 -0.15 11.92 0.28 -1.09 0.04 3453
0.05 -0.01 1.53 1.22 9.81 0.07 -1.10 -0.06 3461
0.05 -0.01 1.70 2.31 8.37 -0.06 -1.05 -0.20 3468
0.05 -0.01 1.30 3.20 7.69 -0.13 -0.98 -0.47 3475
0.04 -0.00 0.79 2.75 7.99 -0.21 -0.89 -0.80 3482
0.04 -0.00 1.45 2.06 8.40 -0.27 -0.79 -1.10 3489
0.04 0.01 1.79 1.64 9.62 -0.31 -0.70 -1.35 3496
0.06 -0.01 1.74 1.52 10.04 -0.46 -0.60 -1.58 3504
0.06 -0.01 1.64 1.23 9.55 -0.59 -0.54 -1.73 3511
0.06 -0.01 1.65 0.56 8.84 -0.63 -0.55 -1.86 3518
0.03 -0.00 1.54 -0.15 8.50 -0.62 -0.60 -1.93 3525
0.02 -0.00 1.47 -0.59 8.09 -0.54 -0.66 -1.98 3532
0.02 -0.00 1.46 -0.88 8.06 -0.49 -0.71 -1.99 3539
0.03 -0.00 1.45 -1.24 8.45 -0.36 -0.79 -1.98 3547
0.03 -0.00 1.55 -1.37 8.78 -0.26 -0.87 -1.94 3554
0.00 -0.00 1.79 -1.58 9.36 -0.16 -0.91 -1.89 3561
0.00 0.00 2.32 -1.53 9.73 -0.14 -0.88 -1.81 3568
0.00 0.00 2.75 -1.37 9.68 -0.19 -0.79 -1.71 3575
0.00 -0.00 3.14 -1.26 9.47 -0.30 -0.61 -1.66 3582
0.00 0.00 3.33 -1.33 9.09 -0.39 -0.35 -1.57 3590
0.00 0.00 3.33 -1.45 8.82 -0.49 -0.10 -1.48 3597
0.00 0.00 3.03 -1.65 8.57 -0.54 0.18 -1.36 3604
0.00 0.00 2.68 -1.93 8.42 -0.53 0.41 -1.23 3611
0.00 0.00 2.12 -2.00 8.45 -0.50 0.58 -1.11 3618
0.00 0.00 1.54 -1.97 8.50 -0.44 0.65 -0.96 3625
0.00 0.00 1.20 -1.89 8.81 -0.39 0.63 -0.82 3633
0.00 0.00 0.91 -1.79 9.11 -0.35 0.56 -0.65 3640
0.00 0.00 0.70 -1.72 9.62 -0.35 0.49 -0.47 3647
0.00 0.00 0.72 -1.71 10.05 -0.39 0.42 -0.32 3654
0.00 0.00 0.68 -1.71 10.34 -0.45 0.37 -0.16 3661
0.00 -0.00 0.69 -2.41 10.21 -0.56 0.37 -0.03 3668
0.00 0.00 0.62 -1.91 9.84 -0.68 0.42 0.10 3676
0.00 0.00 0.35 -2.13 9.47 -0.75 0.47 0.22 3683
0.00 0.00 0.02 -2.41 8.61 -0.78 0.53 0.31 3690
0.00 0.00 -0.34 -2.61 8.97 -0.76 0.55 0.40 3697
0.00 0.00 -0.59 -2.82 9.24 -0.70 0.50 0.47 3704
0.00 -0.00 -0.71 -2.88 9.33 -0.66 0.41 0.50 3712
0.00 -0.00 -0.58 -2.69 9.60 -0.64 0.29 0.52 3719
0.00 0.00 -0.26 -2.72 10.42 -0.64 0.21 0.52 3726
0.00 0.00 0.10 -2.66 9.90 -0.66 0.17 0.52 3733
0.00 0.00 0.49 -2.73 9.96 -0.69 0.21 0.51 3740
0.00 0.00 0.82 -2.75 9.85 -0.72 0.29 0.50 3747
0.00 -0.00 0.94 -2.94 9.93 -0.73 0.39 0.48 3755
0.00 0.00 1.02 -2.90 9.97 -0.73 0.47 0.46 3762
0.00 0.00 1.17 -2.84 10.03 -0.71 0.55 0.44 3769
0.00 0.00 1.06 -2.62 10.05 -0.69 0.61 0.42 3776
0.00 0.00 0.95 -2.48 10.27 -0.66 0.66 0.40 3783
0.00 0.00 0.72 -2.21 10.19 -0.64 0.70 0.40 3790
0.00 0.00 0.28 -1.73 10.02 -0.64 0.72 0.42 3798
0.00 0.00 -0.08 -1.46 10.20 -0.67 0.71 0.46 3805
0.00 0.00 -0.34 -1.57 10.55 -0.70 0.64 0.52 3812
0.00 0.00 -0.29 -1.76 10.79 -0.72 0.62 0.57 3819
0.00 0.00 -0.01 -2.02 10.77 -0.74 0.57 0.61 3826
0.00 0.00 0.24 -2.25 10.68 -0.76 0.55 0.63 3833
0.01 -0.00 0.48 -2.53 10.58 -0.78 0.58 0.64 3841
0.00 0.00 0.64 -2.72 10.64 -0.79 0.65 0.64 3848
0.00 0.00 0.62 -2.80 10.58 -0.80 0.72 0.63 3855
0.00 0.00 0.39 -2.76 10.41 -0.80 0.78 0.62 3862
0.00 0.00 0.14 -2.84 10.22 -0.79 0.82 0.61 3869
0.01 -0.00 -0.12 -2.86 10.15 -0.75 0.85 0.60 3876
0.00 -0.00 -0.49 -2.90 10.10 -0.72 0.88 0.61 3884
0.00 -0.00 -0.79 -3.63 10.05 -0.67 0.92 0.63 3891
0.01 -0.00 -1.11 -3.34 9.97 -0.62 0.91 0.65 3898
0.00 -0.00 -1.33 -3.58 9.97 -0.57 0.84 0.65 3905
0.00 0.00 -1.26 -3.71 10.04 -0.52 0.81 0.65 3912
0.01 -0.00 -1.27 -3.70 10.06 -0.48 0.76 0.66 3919
0.01 -0.00 -1.38 -3.58 10.12 -0.46 0.73 0.66 3927
0.00 0.00 -1.49 -3.67 10.18 -0.47 0.69 0.67 3934
0.00 0.00 -1.49 -3.71 10.25 -0.48 0.66 0.68 3941
0.00 -0.00 -1.49 -3.76 10.04 -0.51 0.64 0.68 3948
0.00 0.00 -1.46 -3.84 9.95 -0.51 0.64 0.69 3955
0.01 -0.00 -1.59 -4.02 9.82 -0.50 0.65 0.70 3962
0.00 0.00 -1.71 -4.14 9.64 -0.47 0.66 0.72 3970
0.00 0.00 -1.99 -4.24 9.44 -0.45 0.66 0.73 3977
0.00 0.00 -2.06 -4.34 9.39 -0.40 0.64 0.75 3984
0.00 0.00 -2.27 -4.39 9.22 -0.36 0.60 0.76 3991
0.00 0.00 -2.34 -4.41 9.09 -0.32 0.55 0.77 3998
0.01 -0.00 -2.31 -4.42 8.99 -0.28 0.50 0.78 4005
0.00 -0.00 -2.21 -4.39 9.03 -0.20 0.47 0.78 4013
0.00 -0.00 -2.11 -4.27 8.91 -0.20 0.46 0.78 4020
0.00 0.00 -7.34 -6.34 20.57 0.18 -0.42 0.82 4027
0.00 -0.00 -4.82 -2.97 5.87 0.10 -0.47 0.82 4034
0.01 -0.00 -4.16 -5.41 8.89 0.13 -0.56 0.83 4041
0.00 0.00 -4.40 -6.91 9.93 0.19 -0.69 0.82 4048
0.00 0.00 -2.30 -5.19 8.34 0.29 -0.53 0.81 4056
0.00 -0.00 -2.57 -5.99 7.92 0.40 -0.42 0.80 4063
0.00 0.00 -4.04 -5.66 10.00 0.53 -0.34 0.83 4070
-0.00 0.00 -4.63 -6.46 8.31 0.66 -0.34 0.85 4077
0.00 0.00 -5.31 -7.57 7.78 0.83 -0.50 0.87 4084
0.00 0.00 -5.73 -7.47 8.62 1.00 -0.72 0.92 4091
-0.00 0.01 -4.39 -4.05 9.46 1.17 -0.77 0.87 4099
-0.00 0.01 -8.24 -5.82 15.16 0.47 -1.25 0.24 4106
-0.00 0.02 -1.98 -1.97 7.29 -0.15 0.01 0.03 4113
-0.00 0.03 -0.17 -2.00 9.99 -0.28 -0.03 -0.11 4120
0.02 0.04 0.55 -0.90 9.91 -0.32 -0.03 -0.05 4127
0.02 0.07 0.75 -1.00 10.33 -0.26 0.02 -0.04 4134
0.02 0.12 0.51 -0.88 9.94 -0.14 0.04 -0.04 4142
0.00 0.19 0.34 -0.85 9.91 -0.11 0.04 -0.05 4149
-0.00 0.21 0.41 -0.71 9.80 -0.08 0.02 -0.06 4156
0.01 0.22 0.34 -0.92 9.91 -0.06 0.00 -0.06 4163
0.01 0.20 0.36 -0.91 9.95 -0.04 -0.01 -0.07 4170
0.02 0.24 0.32 -0.97 9.89 -0.03 -0.00 -0.07 4177
0.02 0.24 0.25 -0.93 9.84 -0.03 0.00 -0.07 4185
0.02 0.23 0.28 -0.97 9.84 -0.03 0.01 -0.07 4192
0.06 0.26 0.28 -0.94 9.81 -0.03 0.02 -0.06 4199
0.05 0.27 0.27 -0.96 9.81 -0.03 0.03 -0.10 4206
0.07 0.26 0.29 -0.91 9.82 -0.03 0.03 -0.07 4213
0.06 0.29 0.30 -0.91 9.79 -0.03 0.03 -0.07 4220
0.06 0.26 0.33 -0.87 10.42 -0.04 0.03 -0.07 4228
0.08 0.26 0.30 -0.88 9.79 -0.04 0.03 -0.06 4235
0.04 0.28 0.32 -0.89 9.81 -0.04 0.03 -0.06 4242
0.05 0.28 0.33 -0.90 9.81 -0.04 0.03 -0.06 4249
0.04 0.29 0.29 -0.86 9.81 -0.04 0.04 -0.06 4256
0.04 0.32 0.31 -0.89 9.81 -0.04 0.04 -0.05 4263
0.03 0.36 0.31 -0.90 9.81 -0.05 0.04 -0.05 4271
0.03 0.32 0.30 -0.87 9.93 -0.04 0.04 -0.06 4278
0.02 0.38 0.27 -0.85 9.80 -0.04 0.04 -0.05 4285
0.03 0.39 0.32 -0.86 9.80 -0.04 0.04 -0.05 4292
0.04 0.41 0.33 -0.84 9.83 -0.04 0.04 -0.06 4299
0.04 0.38 0.32 -0.84 9.82 -0.04 0.04 -0.05 4306
0.04 0.39 0.29 -0.85 9.80 -0.04 0.04 -0.05 4314
0.04 0.39 0.29 -0.85 9.80 -0.03 0.04 -0.05 4321
0.04 0.45 0.28 -0.80 9.81 -0.03 0.04 -0.05 4328
0.05 0.43 0.36 -0.82 9.96 -0.02 0.04 -0.05 4335
0.04 0.49 0.33 -0.82 9.82 -0.02 0.04 -0.05 4342
0.03 0.48 0.29 -0.83 9.81 -0.02 0.04 -0.06 4349
0.04 0.47 0.33 -0.85 9.21 -0.01 0.04 -0.06 4357
0.07 0.50 0.27 -0.84 9.82 -0.01 0.04 -0.06 4364
0.07 0.50 0.30 -0.82 9.82 -0.00 0.04 -0.06 4371
0.08 0.47 0.30 -0.86 9.82 0.00 0.04 -0.06 4378
0.07 0.44 0.31 -0.84 9.82 0.01 0.04 -0.06 4385
0.09 0.44 0.27 -0.85 9.82 0.01 0.04 -0.07 4392
0.08 0.43 0.31 -0.84 9.81 0.01 0.04 -0.07 4400
0.09 0.41 0.29 -0.83 9.80 0.02 0.04 -0.06 4407
0.10 0.41 0.25 -0.83 9.79 0.01 0.04 -0.07 4414
0.12 0.39 0.34 -0.86 9.81 0.01 0.04 -0.07 4421
0.11 0.37 0.33 -0.84 9.79 0.02 0.04 -0.07 4428
0.13 0.33 0.29 -0.84 9.81 0.02 0.04 -0.07 4435
0.12 0.32 0.32 -0.83 9.81 0.02 0.04 -0.07 4443
0.14 0.29 0.32 -0.85 9.81 0.02 0.04 -0.07 4450
0.20 0.28 0.29 -0.83 9.81 0.02 0.04 -0.06 4457
0.21 0.21 0.30 -0.87 9.78 0.02 0.04 -0.07 4464
0.22 0.20 0.27 -0.85 9.82 0.02 0.04 -0.07 4471
0.25 0.16 0.31 -0.86 9.81 0.02 0.04 -0.07 4478
0.24 0.15 0.31 -0.89 10.40 0.02 0.04 -0.07 4486
0.25 0.11 0.32 -0.88 9.79 0.02 0.04 -0.07 4493
0.28 0.11 0.29 -0.88 9.78 0.02 0.04 -0.07 4500
0.31 0.08 0.29 -0.86 9.81 0.02 0.04 -0.07 4507
0.33 0.04 0.28 -0.90 9.81 0.02 0.04 -0.07 4514
0.34 0.03 0.27 -0.86 9.81 0.01 0.04 -0.07 4521
0.32 0.04 0.30 -0.89 9.80 0.01 0.04 -0.06 4529
0.33 0.04 0.29 -0.91 9.81 0.01 0.04 -0.06 4536
0.37 0.03 0.28 -0.87 9.80 0.01 0.04 -0.07 4543
0.37 -0.01 0.29 -0.89 9.81 0.01 0.04 -0.06 4550
0.38 -0.01 0.31 -0.86 9.81 0.01 0.04 -0.06 4557
0.35 -0.02 0.29 -0.91 9.81 0.02 0.04 -0.07 4564
0.41 -0.02 0.29 -0.90 9.82 0.01 0.04 -0.06 4572
0.42 -0.00 0.30 -0.88 9.81 0.01 0.04 -0.06 4579
0.42 -0.02 0.29 -0.91 9.81 0.02 0.04 -0.06 4586
0.41 -0.01 0.31 -0.92 9.83 0.01 0.04 -0.06 4593
0.42 -0.02 0.30 -0.90 9.81 0.02 0.04 -0.07 4600
0.41 -0.02 0.28 -0.91 9.81 0.01 0.04 -0.06 4608
0.42 -0.02 0.30 -0.92 10.41 0.02 0.04 -0.06 4615
0.45 -0.01 0.30 -0.91 9.80 0.01 0.04 -0.07 4622
0.47 -0.01 0.28 -0.91 9.79 0.02 0.04 -0.06 4629
0.47 -0.03 0.33 -0.89 9.81 0.01 0.04 -0.07 4636
0.47 -0.04 0.30 -0.95 9.76 0.01 0.04 -0.07 4643
0.45 -0.03 0.31 -0.93 9.80 0.01 0.04 -0.07 4651
0.46 -0.02 0.33 -0.87 9.75 0.01 0.04 -0.07 4658
0.47 -0.02 0.29 -0.92 9.81 0.00 0.04 -0.07 4665
0.47 -0.02 0.29 -0.90 9.78 0.00 0.03 -0.07 4672
0.47 -0.02 0.29 -0.91 9.79 -0.00 0.04 -0.07 4679
0.48 -0.03 0.29 -0.92 9.78 0.00 0.04 -0.07 4686
0.51 -0.03 0.32 -0.91 9.83 0.00 0.03 -0.06 4694
0.51 -0.01 0.28 -0.91 9.79 0.01 0.04 -0.07 4701
0.55 -0.03 0.29 -0.91 9.77 0.01 0.03 -0.06 4708
0.54 -0.03 0.29 -0.92 9.81 0.01 0.03 -0.06 4715
0.56 -0.03 0.31 -0.95 9.81 0.01 0.03 -0.07 4722
0.58 -0.03 0.30 -0.90 9.81 0.01 0.03 -0.06 4729
0.60 -0.03 0.28 -0.93 9.82 0.01 0.04 -0.06 4737
0.61 -0.02 0.28 -0.95 9.21 0.02 0.04 -0.06 4744
0.60 -0.02 0.32 -0.93 9.82 0.02 0.04 -0.07 4751
0.61 -0.01 0.31 -0.93 9.80 0.02 0.03 -0.07 4758
0.64 -0.02 0.34 -0.94 9.82 0.02 0.04 -0.07 4765
0.65 -0.03 0.32 -0.93 9.81 0.03 0.03 -0.07 4772
0.67 -0.02 0.32 -0.98 9.81 0.04 0.04 -0.07 4780
0.69 -0.03 0.29 -0.97 9.81 0.04 0.03 -0.07 4787
0.71 -0.03 0.33 -0.96 9.86 0.04 0.04 -0.07 4794
0.74 -0.03 0.34 -1.08 9.81 0.06 0.04 -0.08 4801
0.75 -0.05 0.30 -0.97 9.86 0.07 0.03 -0.08 4808
0.75 -0.03 0.31 -1.02 9.82 0.08 0.03 -0.08 4815
0.79 -0.04 0.29 -1.01 9.85 0.10 0.03 -0.09 4823
0.86 -0.03 0.37 -0.94 9.87 0.12 0.00 -0.09 4830
0.91 -0.04 0.36 -1.04 9.98 0.16 0.03 -0.11 4837
0.90 -0.05 0.47 -1.01 9.93 0.22 0.05 -0.11 4844
0.93 -0.03 0.15 -1.03 10.10 0.40 0.07 -0.12 4851
0.96 -0.03 0.34 -1.08 10.30 0.56 0.08 -0.13 4858
0.98 -0.02 0.75 -1.33 10.54 0.66 0.08 -0.13 4867
1.01 -0.04 0.33 -1.01 10.47 0.74 0.05 -0.14 4873
1.02 -0.04 0.45 -1.34 10.90 0.77 0.04 -0.15 4880
1.01 -0.05 0.48 -1.35 10.65 0.82 0.03 -0.16 4888
1.00 -0.03 0.30 -1.65 10.88 0.88 0.04 -0.17 4894
0.98 -0.04 0.46 -1.48 10.87 0.96 0.05 -0.17 4902
0.98 -0.03 0.36 -1.37 10.89 1.03 0.05 -0.17 4910
0.98 -0.04 0.50 -1.55 10.66 1.10 0.05 -0.17 4916
0.94 -0.03 0.01 -1.57 10.93 1.16 0.04 -0.19 4924
0.87 -0.03 0.60 -1.68 10.45 1.23 0.04 -0.20 4931
0.82 -0.03 0.31 -1.73 10.39 1.26 0.04 -0.21 4938
0.76 -0.03 0.04 -1.23 10.48 1.29 0.07 -0.21 4945
0.70 -0.02 0.20 -2.03 10.36 1.33 0.07 -0.20 4952
0.67 -0.03 0.22 -2.17 10.01 1.36 0.07 -0.19 4960
0.59 -0.03 0.01 -2.15 10.39 1.39 0.03 -0.17 4966
0.51 -0.03 0.05 -2.33 9.98 1.40 0.02 -0.14 4973
0.48 -0.01 0.12 -2.47 9.46 1.41 0.05 -0.13 4980
0.37 -0.01 0.14 -2.70 9.64 1.41 0.04 -0.11 4987
0.31 -0.00 0.23 -2.98 9.21 1.38 -0.01 -0.08 4995
0.19 -0.01 0.45 -2.94 10.12 1.38 0.10 -0.08 5003
0.18 -0.00 0.12 -2.87 10.35 1.43 0.21 -0.08 5010
0.12 -0.01 0.09 -3.11 10.49 1.47 0.28 -0.06 5017
0.10 -0.01 0.13 -3.50 9.69 1.46 0.36 -0.05 5023
0.07 -0.01 -0.06 -3.45 9.99 1.40 0.40 -0.02 5030
0.10 -0.01 0.30 -3.75 10.09 1.35 0.45 0.01 5038
0.08 -0.01 0.50 -3.59 9.83 1.29 0.52 0.01 5045
0.09 -0.01 0.53 -3.92 9.85 1.22 0.57 -0.01 5052
0.11 -0.01 0.87 -4.11 9.68 1.11 0.61 -0.02 5059
0.08 -0.01 0.77 -2.99 10.16 1.00 0.64 -0.05 5066
0.04 0.00 1.52 -2.68 9.66 0.89 0.57 -0.11 5073
0.04 -0.00 0.09 -0.97 10.69 0.75 0.53 -0.19 5081
0.03 -0.00 -1.11 0.76 10.96 0.56 0.47 -0.36 5088
0.01 -0.00 -1.50 1.87 11.18 0.25 0.28 -0.56 5095
0.03 -0.00 -1.59 1.92 11.05 -0.05 0.19 -0.82 5102
0.06 -0.01 -2.36 2.21 10.94 -0.23 0.12 -1.21 5109
0.03 0.00 -3.09 2.20 10.24 -0.35 0.02 -1.59 5116
0.06 -0.01 -3.65 1.73 9.64 -0.41 -0.11 -2.11 5124
0.03 -0.00 -2.51 1.16 8.78 -0.43 -0.29 -2.46 5131
0.04 -0.00 -2.28 1.07 10.26 -0.57 -0.45 -2.77 5138
0.02 -0.00 -1.47 0.94 9.51 -0.77 -0.58 -3.00 5145
0.04 -0.00 -0.75 0.36 8.81 -0.91 -0.75 -3.11 5152
0.02 -0.00 -0.23 -0.64 8.70 -0.94 -0.88 -3.16 5159
0.04 -0.00 0.22 -1.34 8.64 -0.88 -0.96 -3.16 5167
0.04 -0.00 0.61 -1.78 8.38 -0.76 -1.05 -3.13 5174
0.03 -0.00 0.92 -2.18 8.21 -0.62 -1.11 -3.07 5181
0.02 -0.00 1.09 -2.32 8.10 -0.46 -1.16 -2.99 5188
0.03 -0.00 1.23 -2.32 8.25 -0.32 -1.18 -2.88 5195
0.03 -0.00 1.41 -2.15 8.76 -0.18 -1.18 -2.78 5202
0.03 -0.00 1.65 -1.73 9.12 -0.07 -1.18 -2.65 5210
0.03 -0.00 1.94 -1.34 9.60 -0.02 -1.16 -2.51 5217
0.01 -0.00 2.20 -1.03 9.74 0.00 -1.13 -2.38 5224
0.00 0.00 2.36 -0.83 9.81 -0.02 -1.05 -2.21 5231
0.00 0.00 2.53 -0.80 9.85 -0.07 -0.93 -2.06 5238
0.01 -0.00 2.67 -0.74 10.05 -0.15 -0.74 -1.87 5245
0.00 -0.00 2.77 -0.72 10.04 -0.24 -0.47 -1.68 5253
0.01 -0.00 2.69 -0.80 9.20 -0.36 -0.25 -1.53 5260
0.01 -0.00 2.28 -0.94 9.60 -0.49 0.04 -1.33 5267
0.00 0.00 1.79 -1.27 9.69 -0.56 0.24 -1.17 5274
0.00 -0.00 1.17 -1.62 9.72 -0.61 0.39 -0.97 5281
0.01 -0.00 0.52 -1.81 9.75 -0.63 0.42 -0.78 5288
0.01 -0.00 0.18 -1.89 9.62 -0.62 0.37 -0.62 5296
0.00 0.00 0.01 -1.89 9.60 -0.61 0.26 -0.44 5303
0.00 0.00 0.03 -1.81 9.68 -0.60 0.17 -0.28 5310
0.01 -0.00 0.30 -1.90 9.70 -0.60 0.07 -0.17 5317
0.01 0.00 0.56 -1.97 9.78 -0.61 0.02 -0.07 5324
0.02 -0.00 0.88 -2.00 9.81 -0.63 -0.00 -0.00 5331
0.01 -0.00 1.20 -1.94 9.84 -0.63 0.01 0.06 5339
0.01 -0.00 1.46 -1.87 9.98 -0.64 0.09 0.11 5346
0.01 -0.00 1.72 -1.64 9.97 -0.66 0.16 0.16 5353
0.02 -0.00 1.82 -1.56 10.10 -0.69 0.29 0.22 5360
0.01 -0.00 1.91 -1.58 10.21 -0.71 0.40 0.28 5367
0.02 -0.00 1.71 -1.62 10.22 -0.73 0.53 0.36 5374
0.01 -0.00 1.48 -1.57 9.90 -0.73 0.61 0.46 5382
0.01 -0.00 1.36 -1.77 9.84 -0.73 0.66 0.54 5389
0.00 0.00 1.21 -1.88 9.79 -0.71 0.71 0.62 5396
0.00 -0.00 1.18 -2.08 9.78 -0.68 0.74 0.71 5403
0.00 -0.00 0.91 -2.13 9.76 -0.66 0.75 0.76 5410
0.01 -0.00 0.59 -2.19 9.83 -0.64 0.76 0.81 5417
0.00 -0.00 0.40 -2.15 10.04 -0.64 0.76 0.85 5425
0.01 -0.00 0.06 -2.13 10.38 -0.64 0.75 0.90 5432
0.00 -0.00 -0.01 -2.05 10.67 -0.66 0.73 0.96 5439
0.01 -0.00 -0.12 -1.99 10.63 -0.69 0.71 1.00 5446
0.02 -0.00 -0.18 -1.96 10.55 -0.72 0.68 1.06 5453
0.01 -0.00 -0.17 -2.05 10.57 -0.76 0.67 1.11 5460
0.01 -0.00 -0.16 -2.20 10.52 -0.79 0.66 1.14 5468
0.01 -0.00 -0.22 -2.39 10.21 -0.80 0.68 1.17 5475
0.01 -0.00 -0.30 -2.59 10.06 -0.80 0.69 1.17 5482
0.01 -0.00 -0.37 -2.86 9.93 -0.78 0.72 1.15 5489
0.02 -0.00 -0.50 -3.67 9.82 -0.75 0.76 1.11 5496
0.02 -0.00 -0.64 -3.32 9.80 -0.71 0.81 1.05 5504
0.01 -0.00 -0.85 -3.37 9.68 -0.66 0.86 0.98 5511
0.00 -0.00 -0.98 -3.50 9.65 -0.61 0.91 0.90 5518
0.01 -0.00 -1.14 -3.64 9.57 -0.56 0.95 0.81 5525
0.01 -0.00 -1.23 -3.73 9.53 -0.52 0.99 0.73 5532
0.02 -0.00 -1.31 -3.76 9.80 -0.48 1.00 0.65 5539
0.01 -0.00 -1.49 -3.67 10.18 -0.45 0.98 0.57 5547
0.01 -0.00 -1.56 -3.57 10.36 -0.44 0.92 0.51 5554
0.01 -0.00 -1.63 -3.42 10.40 -0.45 0.84 0.45 5561
0.01 -0.00 -1.59 -3.33 10.40 -0.46 0.77 0.41 5568
0.01 -0.00 -1.51 -3.29 10.21 -0.48 0.72 0.39 5575
0.02 -0.00 -1.34 -3.38 9.89 -0.48 0.68 0.37 5582
0.02 -0.00 -1.26 -3.47 9.72 -0.46 0.67 0.40 5590
0.02 -0.00 -1.33 -3.60 9.59 -0.43 0.70 0.36 5597
0.02 -0.00 -1.38 -3.78 9.62 -0.40 0.77 0.38 5604
0.02 -0.00 -1.51 -3.83 9.61 -0.37 0.76 0.38 5611
0.03 -0.00 -1.59 -3.98 9.64 -0.35 0.77 0.38 5618
0.02 -0.00 -1.57 -4.12 9.71 -0.32 0.76 0.38 5625
0.03 -0.00 -1.57 -4.24 9.79 -0.29 0.76 0.38 5633
0.02 -0.00 -1.61 -4.27 9.81 -0.27 0.74 0.39 5640
0.01 -0.00 -1.68 -4.11 9.70 -0.25 0.72 0.40 5647
0.00 -0.00 -1.71 -4.14 9.48 -0.24 0.68 0.43 5654
0.01 -0.00 -1.79 -4.10 9.39 -0.21 0.63 0.47 5661
0.01 -0.00 -1.91 -4.22 9.29 -0.18 0.57 0.53 5668
0.00 -0.00 -2.18 -4.18 9.13 -0.14 0.50 0.60 5676
0.00 0.00 -2.29 -4.18 9.02 -0.11 0.44 0.66 5683
0.00 0.00 -2.45 -4.23 9.01 -0.07 0.36 0.74 5690
0.00 0.00 -2.57 -4.27 9.00 -0.04 0.30 0.82 5697
0.01 -0.00 -7.39 -7.11 21.32 0.28 -0.48 0.93 5704
0.00 0.00 -4.62 -2.99 6.66 0.32 -0.61 1.05 5711
0.00 0.00 -7.36 -4.80 14.74 0.58 -0.60 1.23 5719
0.00 0.00 -7.90 -9.02 12.54 0.63 -0.47 1.38 5726
0.00 -0.00 -6.67 -8.90 8.33 0.76 -0.56 1.46 5733
-0.00 0.00 -5.98 -9.63 7.08 0.93 -0.68 1.55 5740
0.00 -0.00 -14.58 -16.10 21.05 1.16 -1.27 1.64 5748
-0.00 0.00 -12.52 -4.26 13.08 0.72 -1.42 1.18 5755
0.01 -0.00 -7.46 -8.96 9.37 -0.17 0.22 0.38 5762
0.00 0.00 -0.50 -1.00 12.60 -0.29 0.10 -0.06 5769
0.01 0.02 -0.63 -0.73 9.70 -0.22 0.01 -0.10 5776
0.02 0.01 0.90 -0.89 10.39 -0.17 -0.09 -0.07 5783
0.03 0.04 0.63 -0.85 10.12 -0.17 -0.05 -0.04 5790
0.03 0.06 0.31 -0.82 10.04 -0.17 -0.01 -0.03 5797
0.04 0.11 0.29 -1.00 10.07 -0.15 -0.03 -0.05 5805
0.03 0.16 0.09 -1.12 10.05 -0.11 -0.03 -0.06 5812
0.07 0.18 0.25 -1.11 9.98 -0.08 -0.02 -0.06 5819
0.07 0.21 0.27 -1.00 9.94 -0.06 -0.01 -0.06 5826
0.07 0.22 0.25 -0.92 9.82 -0.04 0.01 -0.06 5833
0.08 0.19 0.22 -1.00 9.82 -0.04 0.02 -0.06 5840
0.06 0.22 0.24 -0.95 9.84 -0.03 0.02 -0.06 5848
0.06 0.23 0.21 -0.98 9.82 -0.03 0.02 -0.06 5855
0.07 0.23 0.22 -0.95 9.81 -0.03 0.02 -0.06 5862
0.09 0.23 0.25 -0.96 9.81 -0.03 0.02 -0.06 5869
0.09 0.23 0.25 -0.96 9.79 -0.02 0.02 -0.07 5876
0.09 0.23 0.23 -0.96 9.80 -0.03 0.02 -0.07 5883
0.10 0.22 0.21 -0.93 9.77 -0.02 0.02 -0.07 5891
0.11 0.21 0.19 -0.93 9.79 -0.02 0.02 -0.08 5898
0.12 0.24 0.17 -0.95 9.81 -0.02 0.02 -0.07 5905
0.12 0.23 0.18 -0.96 9.78 -0.02 0.02 -0.07 5912
0.14 0.23 0.18 -0.93 9.81 -0.02 0.03 -0.07 5919
0.16 0.22 0.20 -0.91 9.81 -0.02 0.03 -0.07 5926
0.14 0.23 0.19 -0.93 9.81 -0.03 0.03 -0.06 5934
0.17 0.23 0.21 -0.94 9.81 -0.03 0.03 -0.06 5941
0.19 0.27 0.18 -0.92 9.78 -0.03 0.03 -0.06 5948
0.22 0.24 0.18 -0.91 9.82 -0.03 0.04 -0.06 5955
0.22 0.25 0.19 -0.96 9.81 -0.03 0.04 -0.07 5962
0.22 0.25 0.16 -0.91 9.81 -0.03 0.04 -0.06 5969
0.22 0.27 0.21 -0.91 9.81 -0.03 0.04 -0.05 5977
0.23 0.30 0.18 -0.93 9.81 -0.02 0.04 -0.06 5984
0.24 0.31 0.19 -0.89 9.82 -0.03 0.04 -0.06 5991
0.26 0.28 0.20 -0.90 9.82 -0.02 0.04 -0.06 5998
0.30 0.27 0.20 -0.90 9.81 -0.01 0.04 -0.06 6005
0.31 0.25 0.17 -0.89 9.81 -0.02 0.04 -0.06 6012
0.28 0.26 0.22 -0.87 9.82 -0.00 0.05 -0.07 6020
0.30 0.26 0.16 -0.88 9.81 -0.00 0.05 -0.06 6027
0.31 0.26 0.21 -0.88 9.81 0.01 0.05 -0.07 6034
0.34 0.25 0.21 -0.90 9.81 0.00 0.05 -0.06 6041
0.37 0.24 0.21 -0.89 9.82 0.01 0.05 -0.06 6048
0.41 0.22 0.18 -0.92 9.81 0.02 0.05 -0.06 6055
0.41 0.24 0.18 -0.90 9.81 0.02 0.04 -0.06 6063
0.39 0.23 0.20 -0.88 9.82 0.02 0.04 -0.07 6070
0.42 0.19 0.20 -0.93 9.82 0.02 0.04 -0.06 6077
0.42 0.15 0.20 -0.92 9.81 0.02 0.05 -0.07 6084
0.44 0.14 0.18 -0.94 9.80 0.02 0.04 -0.06 6091
0.44 0.06 0.22 -0.97 9.80 0.02 0.04 -0.06 6098
0.44 0.06 0.19 -0.91 9.81 0.02 0.04 -0.07 6106
0.45 0.07 0.19 -0.96 9.79 0.02 0.04 -0.07 6113
0.48 -0.00 0.19 -0.93 9.75 0.02 0.04 -0.07 6120
0.48 -0.00 0.21 -0.93 9.81 0.02 0.05 -0.07 6127
0.52 -0.03 0.20 -0.95 9.77 0.01 0.05 -0.06 6134
0.52 -0.03 0.22 -0.93 9.80 0.02 0.05 -0.06 6141
0.51 -0.02 0.21 -0.96 9.78 0.02 0.04 -0.06 6149
0.54 -0.02 0.22 -0.91 9.82 0.02 0.05 -0.06 6156
0.54 -0.01 0.22 -0.94 9.79 0.01 0.04 -0.07 6163
0.56 -0.02 0.18 -0.94 9.77 0.01 0.04 -0.06 6170
0.57 -0.04 0.20 -0.94 9.79 0.01 0.04 -0.07 6177
0.58 -0.02 0.22 -0.94 9.81 0.01 0.04 -0.07 6184
0.58 -0.02 0.23 -0.94 9.81 0.01 0.04 -0.06 6192
0.59 -0.02 0.22 -0.95 9.76 0.01 0.05 -0.07 6199
0.60 -0.03 0.18 -0.96 9.80 0.01 0.04 -0.06 6206
0.59 -0.03 0.17 -0.96 9.80 0.01 0.04 -0.06 6213
0.59 -0.02 0.19 -0.98 9.20 0.01 0.04 -0.07 6220
0.59 -0.02 0.21 -0.96 9.81 0.01 0.05 -0.06 6227
0.62 -0.03 0.27 -1.00 9.81 0.01 0.05 -0.06 6235
0.63 -0.02 0.24 -0.98 9.80 0.01 0.04 -0.06 6242
0.64 -0.02 0.20 -0.95 9.81 0.02 0.05 -0.07 6249
0.64 -0.03 0.23 -0.95 9.81 0.01 0.04 -0.07 6256
0.65 -0.02 0.17 -0.98 9.80 0.02 0.04 -0.06 6263
0.64 -0.03 0.22 -0.97 9.77 0.02 0.04 -0.07 6270
0.66 -0.03 0.22 -0.98 9.81 0.02 0.04 -0.06 6278
0.68 -0.02 0.22 -0.97 9.79 0.02 0.04 -0.06 6285
0.69 -0.02 0.24 -1.01 9.79 0.03 0.04 -0.06 6292
0.70 -0.02 0.25 -0.99 9.82 0.03 0.04 -0.06 6299
0.70 -0.02 0.23 -0.99 9.82 0.03 0.05 -0.06 6306
0.70 -0.02 0.20 -1.04 9.80 0.03 0.04 -0.07 6313
0.73 -0.01 0.26 -0.97 9.80 0.04 0.05 -0.07 6321
0.78 -0.03 0.21 -1.12 9.82 0.04 0.04 -0.07 6328
0.81 -0.02 0.20 -1.00 9.81 0.05 0.04 -0.08 6335
0.83 -0.04 0.19 -1.02 9.80 0.05 0.04 -0.08 6342
0.83 -0.03 0.18 -1.05 10.41 0.05 0.04 -0.08 6349
0.84 -0.02 0.21 -0.99 9.82 0.06 0.05 -0.08 6356
0.84 -0.03 0.25 -1.04 9.81 0.06 0.04 -0.08 6364
0.85 -0.03 0.22 -1.06 9.82 0.06 0.04 -0.08 6371
0.86 -0.04 0.20 -1.05 9.81 0.07 0.04 -0.09 6378
0.87 -0.05 0.21 -1.08 9.81 0.07 0.04 -0.09 6385
0.88 -0.03 0.17 -1.04 9.77 0.07 0.04 -0.09 6392
0.88 -0.04 0.16 -1.09 9.82 0.06 0.04 -0.09 6400
0.91 -0.03 0.18 -1.15 9.72 0.05 0.05 -0.09 6407
0.90 -0.04 0.23 -1.08 9.78 0.05 0.05 -0.08 6414
0.92 -0.04 0.22 -1.09 9.74 0.05 0.05 -0.08 6421
0.91 -0.04 0.18 -1.10 9.79 0.04 0.06 -0.08 6428
0.90 -0.04 0.25 -1.09 9.77 0.04 0.06 -0.08 6435
0.91 -0.02 0.20 -1.07 9.81 0.04 0.05 -0.08 6443
0.93 -0.03 0.19 -1.10 9.80 0.04 0.06 -0.09 6450
0.93 -0.03 0.25 -1.08 9.82 0.05 0.06 -0.08 6457
0.93 -0.04 0.29 -1.10 9.84 0.07 0.06 -0.09 6464
0.94 -0.04 0.27 -1.08 9.90 0.09 0.07 -0.10 6471
0.95 -0.03 0.06 -1.03 10.05 0.16 0.10 -0.11 6478
0.97 -0.03 0.29 -1.19 9.92 0.24 0.11 -0.11 6486
0.99 -0.04 0.23 -1.13 10.01 0.30 0.12 -0.11 6494
0.99 -0.04 0.34 -1.15 10.14 0.40 0.15 -0.10 6501
0.98 -0.03 0.43 -1.29 10.29 0.50 0.17 -0.12 6508
0.97 -0.02 0.60 -1.31 10.62 0.57 0.19 -0.17 6515
0.96 -0.02 0.50 -1.38 10.59 0.63 0.14 -0.15 6522
0.96 -0.01 1.11 -1.39 10.32 0.68 0.13 -0.18 6530
0.95 -0.02 0.37 -1.60 11.46 0.73 0.13 -0.18 6537
0.93 -0.03 0.24 -1.53 10.66 0.78 0.12 -0.18 6544
0.90 -0.03 0.40 -1.63 10.74 0.85 0.11 -0.17 6551
0.86 -0.02 0.45 -1.57 10.69 0.93 0.10 -0.18 6558
0.85 -0.02 0.58 -1.61 10.85 0.98 0.09 -0.20 6564
0.83 -0.02 0.32 -1.72 9.98 1.03 0.08 -0.20 6572
0.79 -0.03 0.18 -1.85 10.68 1.07 0.07 -0.21 6580
0.72 -0.03 0.09 -1.90 10.21 1.11 0.08 -0.19 6586
0.65 -0.04 0.02 -1.89 10.28 1.13 0.11 -0.17 6594
0.59 -0.03 0.10 -2.03 10.01 1.16 0.13 -0.16 6601
0.55 -0.03 0.01 -2.16 9.25 1.18 0.12 -0.13 6607
0.53 -0.02 0.04 -2.26 9.86 1.19 0.11 -0.11 6615
0.44 -0.02 0.04 -2.37 9.86 1.19 0.14 -0.08 6622
0.39 -0.03 0.10 -2.40 9.85 1.19 0.17 -0.06 6629
0.31 -0.03 0.14 -2.66 9.60 1.20 0.19 -0.03 6636
0.24 -0.02 0.38 -2.31 7.12 1.17 0.12 0.03 6643
0.18 -0.00 0.31 -2.75 10.36 1.11 0.22 0.01 6651
0.16 -0.01 0.16 -2.86 9.92 1.12 0.29 0.01 6658
0.14 -0.01 0.09 -3.13 10.41 1.18 0.28 0.04 6665
0.13 -0.01 0.49 -3.19 10.01 1.22 0.35 0.05 6672
0.11 -0.01 0.22 -3.33 9.82 1.27 0.39 0.04 6679
0.10 -0.01 0.03 -3.54 9.73 1.26 0.42 0.06 6686
0.11 -0.00 0.21 -3.53 9.75 1.22 0.44 0.09 6693
0.11 -0.01 0.34 -3.58 9.90 1.19 0.49 0.10 6701
0.09 -0.01 0.46 -3.71 9.95 1.14 0.52 0.11 6708
0.09 -0.01 0.51 -4.07 9.88 1.13 0.55 0.13 6715
0.07 -0.01 0.65 -3.84 9.85 1.06 0.57 0.14 6722
0.05 -0.00 0.69 -3.72 9.85 1.01 0.53 0.11 6729
0.04 -0.00 0.41 -3.99 9.72 0.96 0.41 0.10 6736
0.04 -0.00 0.79 -3.75 10.01 0.88 0.26 0.09 6744
0.02 -0.00 1.37 -3.88 9.82 0.83 0.20 0.04 6751
0.02 -0.00 1.11 -2.46 10.04 0.73 0.15 0.00 6758
0.00 -0.00 1.16 -1.80 9.66 0.58 0.11 -0.09 6765
0.01 -0.00 0.73 -0.61 9.38 0.35 0.12 -0.18 6772
0.02 -0.00 0.41 0.32 9.47 0.14 0.09 -0.33 6779
0.03 -0.00 0.07 0.73 9.79 -0.02 0.03 -0.53 6787
0.03 -0.00 -0.88 1.22 9.93 -0.15 -0.06 -0.75 6794
0.03 -0.00 -1.43 1.29 9.83 -0.22 -0.17 -1.09 6801
0.02 -0.00 -1.76 1.23 9.93 -0.28 -0.26 -1.48 6808
0.03 -0.00 -1.94 0.84 9.58 -0.32 -0.35 -1.84 6815
0.05 -0.00 -1.43 0.20 9.13 -0.34 -0.46 -2.23 6822
0.03 -0.00 -1.59 0.07 9.75 -0.41 -0.52 -2.49 6830
0.02 -0.00 -1.34 -0.02 9.70 -0.54 -0.54 -2.72 6837
0.03 -0.00 -1.03 -0.14 9.27 -0.68 -0.60 -2.91 6844
0.00 0.00 -1.07 -0.72 9.04 -0.74 -0.66 -2.98 6851
0.00 0.00 -0.81 -1.24 8.80 -0.73 -0.71 -3.03 6858
0.00 -0.00 -0.41 -1.72 8.82 -0.67 -0.76 -3.03 6865
0.00 -0.00 -0.05 -2.15 8.86 -0.55 -0.79 -2.99 6873
0.00 0.00 0.20 -3.03 8.92 -0.46 -0.82 -2.91 6880
0.00 0.00 0.68 -2.59 9.18 -0.34 -0.83 -2.88 6887
0.00 0.00 1.26 -2.72 9.43 -0.27 -0.78 -2.79 6894
0.00 -0.00 1.62 -2.66 9.83 -0.24 -0.71 -2.71 6901
0.00 0.00 2.03 -2.49 9.92 -0.28 -0.49 -2.60 6908
0.00 0.00 2.22 -2.21 9.81 -0.37 -0.25 -2.46 6916
0.00 0.00 2.01 -2.05 9.36 -0.50 0.03 -2.31 6923
0.00 0.00 1.63 -1.92 8.77 -0.62 0.25 -2.10 6930
0.00 0.00 1.29 -1.85 8.72 -0.72 0.35 -1.90 6937
0.00 0.00 0.91 -2.09 8.82 -0.74 0.34 -1.65 6944
0.00 0.00 0.04 -2.37 9.01 -0.69 0.25 -1.38 6951
0.00 0.00 0.57 -2.53 8.97 -0.59 0.10 -1.14 6959
0.00 0.00 0.74 -2.53 8.90 -0.51 -0.07 -0.84 6966
0.00 0.00 1.09 -2.43 9.23 -0.43 -0.21 -0.56 6973
0.00 0.00 1.38 -2.32 9.23 -0.38 -0.31 -0.33 6980
0.00 0.00 1.64 -2.33 9.54 -0.36 -0.34 -0.09 6987
0.00 0.00 1.74 -2.40 9.56 -0.36 -0.33 0.08 6994
0.00 0.00 1.78 -2.44 9.56 -0.38 -0.27 0.26 7002
0.00 0.00 1.81 -2.63 9.65 -0.40 -0.21 0.38 7009
0.00 0.00 1.81 -2.70 9.37 -0.45 -0.12 0.49 7016
0.00 0.00 1.81 -2.77 9.32 -0.49 -0.03 0.57 7023
0.00 0.00 1.81 -3.01 9.31 -0.51 0.04 0.62 7030
0.00 0.00 1.71 -3.18 9.20 -0.50 0.11 0.65 7037
0.00 0.00 1.77 -3.14 8.96 -0.47 0.18 0.67 7045
0.00 0.00 1.73 -3.15 8.73 -0.42 0.22 0.67 7052
0.00 -0.00 1.65 -2.96 8.90 -0.38 0.24 0.67 7059
0.01 -0.00 1.64 -2.92 9.16 -0.34 0.26 0.67 7066
0.01 -0.00 1.68 -2.69 9.51 -0.32 0.26 0.66 7073
0.00 -0.00 1.66 -2.42 9.68 -0.33 0.26 0.66 7080
0.00 0.00 1.55 -2.38 9.84 -0.38 0.24 0.67 7088
0.00 0.00 1.56 -2.41 10.20 -0.42 0.22 0.67 7095
0.00 0.00 1.69 -2.49 10.25 -0.48 0.25 0.68 7102
0.00 0.00 1.84 -2.52 10.05 -0.51 0.31 0.68 7109
0.00 -0.00 1.83 -2.52 9.71 -0.53 0.41 0.67 7116
0.00 0.00 1.81 -2.49 9.35 -0.55 0.53 0.66 7123
0.00 0.00 1.52 -2.39 9.17 -0.54 0.64 0.65 7131
0.00 0.00 1.20 -2.28 9.19 -0.53 0.72 0.66 7138
0.00 0.00 0.74 -2.09 9.30 -0.52 0.79 0.67 7145
0.00 0.00 0.27 -2.05 9.62 -0.51 0.81 0.71 7152
0.00 0.00 -0.03 -2.20 9.85 -0.51 0.77 0.76 7159
0.00 0.00 -0.16 -2.33 9.97 -0.53 0.69 0.80 7166
0.00 0.00 -0.15 -2.59 9.96 -0.54 0.60 0.83 7174
0.00 0.00 0.02 -2.81 9.98 -0.56 0.51 0.84 7181
0.00 0.00 0.27 -2.94 9.98 -0.56 0.44 0.84 7188
0.00 -0.00 0.51 -3.02 10.03 -0.58 0.40 0.83 7195
0.00 -0.00 0.71 -3.13 9.98 -0.60 0.40 0.79 7202
0.00 0.00 0.78 -3.13 9.91 -0.62 0.43 0.76 7209
0.00 0.00 0.69 -3.12 9.91 -0.64 0.50 0.74 7217
0.00 0.00 0.42 -3.14 9.91 -0.65 0.57 0.72 7224
0.00 0.00 0.24 -3.19 9.86 -0.66 0.61 0.72 7231
0.00 -0.00 0.02 -3.18 9.79 -0.66 0.62 0.73 7238
0.00 -0.00 -0.11 -3.12 9.72 -0.65 0.61 0.75 7245
0.00 0.00 -0.18 -3.11 9.68 -0.62 0.57 0.77 7252
0.00 0.00 -0.08 -3.12 9.66 -0.59 0.52 0.79 7260
0.00 0.00 0.02 -2.46 9.70 -0.54 0.48 0.82 7267
0.00 0.00 0.13 -3.02 9.67 -0.50 0.46 0.83 7274
0.01 -0.00 0.20 -2.98 9.81 -0.47 0.47 0.84 7281
0.00 -0.00 0.23 -2.94 9.95 -0.45 0.48 0.84 7288
0.00 0.00 0.15 -3.03 10.06 -0.44 0.51 0.83 7296
0.00 0.00 0.00 -3.17 10.21 -0.42 0.54 0.79 7303
0.00 0.00 -0.06 -3.31 10.21 -0.42 0.58 0.73 7310
0.00 -0.00 -0.19 -3.46 10.17 -0.42 0.62 0.64 7317
0.00 -0.00 -0.31 -3.57 10.10 -0.44 0.65 0.51 7324
0.00 0.00 -0.49 -3.68 10.05 -0.45 0.70 0.42 7331
0.00 0.00 -0.64 -3.71 10.02 -0.46 0.72 0.30 7339
0.00 0.00 -0.86 -3.69 9.89 -0.46 0.72 0.19 7346
0.00 0.00 -0.84 -3.66 9.76 -0.45 0.69 0.08 7353
0.00 0.00 -0.88 -3.64 9.66 -0.43 0.64 -0.01 7360
0.00 -0.00 -0.91 -3.64 9.63 -0.41 0.61 -0.09 7367
0.00 0.00 -0.92 -3.59 9.67 -0.37 0.58 -0.16 7374
0.00 -0.00 -0.90 -3.56 9.82 -0.35 0.56 -0.21 7382
0.00 0.00 -0.80 -3.54 10.02 -0.34 0.56 -0.26 7389
0.00 0.00 -0.64 -3.51 10.10 -0.35 0.57 -0.30 7396
0.01 -0.00 -0.72 -3.34 10.05 -0.37 0.61 -0.31 7403
0.00 -0.00 -1.03 -3.08 10.08 -0.40 0.63 -0.29 7410
0.00 -0.00 -1.28 -2.83 9.87 -0.41 0.60 -0.25 7417
0.01 -0.00 -1.47 -2.71 9.81 -0.41 0.52 -0.18 7425
0.00 0.00 -1.48 -2.63 9.56 -0.40 0.43 -0.10 7432
0.01 -0.00 -1.38 -2.67 9.57 -0.38 0.33 -0.03 7439
0.01 -0.00 -1.25 -2.72 9.58 -0.36 0.26 0.06 7446
0.01 -0.00 -6.78 -5.05 13.36 -0.17 -0.37 0.18 7453
0.00 -0.00 -1.66 -2.14 7.20 -0.11 -0.57 0.25 7460
0.00 0.00 -3.57 -3.88 7.59 -0.11 -0.64 0.36 7468
0.00 -0.00 -3.76 -4.74 8.59 -0.10 -0.81 0.43 7475
0.01 -0.00 -3.29 -4.80 9.33 -0.03 -0.88 0.43 7482
0.01 -0.00 -2.63 -4.83 8.43 0.07 -0.89 0.43 7489
0.00 -0.00 -3.63 -2.38 14.20 0.43 -0.46 0.58 7496
0.00 -0.00 -5.13 -4.24 9.79 0.50 -0.27 0.66 7503
0.00 0.00 -6.89 -5.47 9.00 0.70 -0.44 0.74 7511
0.00 0.00 -7.90 -6.67 9.75 0.92 -0.64 0.95 7518
-0.00 0.01 -11.42 -6.19 11.48 0.58 -1.45 0.99 7526
-0.00 0.00 -9.52 -4.16 14.81 -0.01 -0.43 0.58 7532
-0.00 0.01 -3.18 -2.54 8.74 -0.14 -0.00 0.03 7539
-0.00 0.01 -0.10 -1.20 9.38 -0.22 0.02 -0.07 7546
0.00 0.02 0.33 -0.94 9.39 -0.25 -0.05 -0.09 7554
-0.00 0.04 1.16 -0.70 10.43 -0.26 -0.06 -0.06 7561
0.02 0.09 0.36 -0.97 11.00 -0.25 0.00 -0.04 7568
0.02 0.11 0.46 -0.87 10.25 -0.15 0.05 -0.03 7575
0.01 0.15 0.19 -0.94 9.95 -0.10 0.06 -0.04 7582
0.02 0.18 0.29 -0.96 9.90 -0.08 0.05 -0.05 7589
0.02 0.19 0.42 -0.97 9.88 -0.06 0.04 -0.05 7597
-0.00 0.20 0.42 -0.90 9.81 -0.05 0.03 -0.05 7604
0.01 0.20 0.37 -0.81 9.82 -0.04 0.02 -0.05 7611
0.04 0.21 0.35 -0.83 9.78 -0.04 0.01 -0.06 7618
0.06 0.20 0.33 -0.84 9.76 -0.05 0.00 -0.06 7625
0.07 0.23 0.31 -0.88 9.82 -0.05 -0.00 -0.06 7632
0.04 0.27 0.36 -0.91 9.81 -0.05 -0.00 -0.06 7640
0.04 0.28 0.28 -0.92 9.81 -0.05 0.01 -0.06 7647
0.05 0.28 0.28 -0.86 9.85 -0.06 0.01 -0.06 7654
0.08 0.32 0.29 -0.86 9.21 -0.06 0.02 -0.06 7661
0.08 0.30 0.30 -0.86 9.81 -0.05 0.02 -0.06 7668
0.07 0.32 0.29 -0.84 9.82 -0.05 0.02 -0.06 7675
0.09 0.32 0.26 -0.79 9.82 -0.05 0.03 -0.07 7683
0.08 0.39 0.34 -0.83 9.80 -0.05 0.03 -0.06 7690
0.08 0.35 0.29 -0.84 10.41 -0.04 0.04 -0.06 7697
0.10 0.35 0.30 -0.86 9.83 -0.04 0.03 -0.06 7704
0.11 0.37 0.33 -0.88 9.85 -0.04 0.04 -0.06 7711
0.09 0.39 0.33 -0.80 9.80 -0.04 0.03 -0.05 7718
0.10 0.39 0.35 -0.86 9.84 -0.03 0.04 -0.06 7726
0.11 0.41 0.32 -0.81 9.82 -0.03 0.04 -0.06 7733
0.15 0.43 0.34 -0.81 9.82 -0.02 0.03 -0.06 7740
0.15 0.43 0.31 -0.80 9.82 -0.03 0.04 -0.06 7747
0.13 0.44 0.30 -0.80 9.82 -0.02 0.04 -0.06 7754
0.11 0.40 0.29 -0.80 9.82 -0.02 0.03 -0.06 7761
0.13 0.44 0.26 -0.80 9.81 -0.02 0.04 -0.06 7769
0.14 0.46 0.28 -0.80 9.82 -0.01 0.04 -0.06 7776
0.15 0.43 0.29 -0.79 9.81 -0.00 0.04 -0.06 7783
0.14 0.46 0.32 -0.79 9.83 -0.00 0.04 -0.06 7790
0.13 0.45 0.25 -0.81 9.80 0.00 0.04 -0.06 7797
0.14 0.43 0.30 -0.77 9.80 0.00 0.05 -0.06 7804
0.16 0.41 0.30 -0.83 9.81 0.00 0.05 -0.06 7812
0.17 0.39 0.31 -0.84 9.81 0.01 0.04 -0.07 7819
0.16 0.38 0.30 -0.78 9.81 0.01 0.04 -0.07 7826
0.16 0.39 0.31 -0.79 9.82 0.01 0.04 -0.07 7833
0.17 0.37 0.30 -0.80 9.80 0.01 0.04 -0.06 7840
0.17 0.35 0.30 -0.83 9.82 0.01 0.04 -0.07 7847
0.19 0.34 0.31 -0.81 9.79 0.01 0.04 -0.07 7855
0.21 0.31 0.30 -0.81 9.79 0.01 0.04 -0.07 7862
0.22 0.31 0.33 -0.81 9.80 0.01 0.04 -0.06 7869
0.24 0.29 0.29 -0.83 9.81 0.01 0.04 -0.07 7876
0.23 0.27 0.30 -0.82 9.77 0.00 0.04 -0.07 7883
0.23 0.28 0.27 -0.80 9.79 -0.00 0.04 -0.07 7890
0.24 0.30 0.30 -0.84 9.82 0.00 0.04 -0.07 7898
0.24 0.28 0.31 -0.83 9.81 -0.00 0.04 -0.07 7905
0.24 0.26 0.30 -0.84 9.81 0.00 0.04 -0.07 7912
0.26 0.24 0.30 -0.84 9.21 -0.00 0.04 -0.07 7919
0.26 0.26 0.31 -0.84 9.80 -0.00 0.04 -0.07 7926
0.28 0.22 0.29 -0.81 9.79 -0.00 0.04 -0.06 7933
0.28 0.20 0.32 -0.81 9.82 -0.00 0.05 -0.07 7941
0.29 0.20 0.30 -0.83 9.77 -0.00 0.04 -0.07 7948
0.28 0.20 0.31 -0.83 9.80 -0.00 0.04 -0.07 7955
0.30 0.18 0.32 -0.84 9.81 -0.00 0.04 -0.07 7962
0.30 0.19 0.31 -0.82 9.80 -0.00 0.04 -0.07 7969
0.32 0.20 0.29 -0.84 9.81 -0.00 0.04 -0.06 7976
0.32 0.18 0.29 -0.83 9.79 0.00 0.05 -0.06 7984
0.31 0.16 0.31 -0.83 9.81 -0.00 0.05 -0.07 7991
0.30 0.15 0.28 -0.82 9.80 -0.00 0.05 -0.06 7998
0.31 0.15 0.30 -0.82 9.80 -0.00 0.05 -0.07 8005
0.31 0.16 0.27 -0.85 9.81 -0.00 0.05 -0.07 8012
0.31 0.17 0.30 -0.83 9.81 -0.00 0.05 -0.06 8019
0.32 0.18 0.31 -0.83 9.77 -0.00 0.05 -0.06 8027
0.32 0.18 0.29 -0.82 9.81 -0.00 0.05 -0.06 8034
0.32 0.15 0.32 -0.80 9.79 0.00 0.05 -0.07 8041
0.32 0.15 0.30 -0.86 9.82 -0.00 0.05 -0.06 8048
0.32 0.13 0.31 -0.87 9.81 0.00 0.05 -0.07 8055
0.33 0.12 0.27 -0.85 9.80 -0.00 0.05 -0.07 8062
0.36 0.12 0.31 -0.83 9.81 0.00 0.05 -0.07 8070
0.34 0.09 0.33 -0.83 9.82 0.00 0.05 -0.07 8077
0.35 0.08 0.33 -0.81 10.42 0.00 0.05 -0.07 8084
0.36 0.07 0.33 -0.83 9.81 0.01 0.04 -0.07 8091
0.36 0.03 0.32 -0.85 9.80 0.01 0.05 -0.07 8098
0.38 0.08 0.30 -0.84 9.80 0.01 0.05 -0.06 8105
0.37 0.04 0.31 -0.83 9.80 0.01 0.04 -0.07 8113
0.36 0.03 0.32 -0.85 9.80 0.01 0.05 -0.06 8120
0.37 0.02 0.31 -0.83 9.81 0.01 0.05 -0.07 8127
0.36 0.01 0.29 -0.85 9.81 0.01 0.05 -0.06 8134
0.37 0.01 0.35 -0.87 9.81 0.01 0.05 -0.07 8141
0.37 0.01 0.35 -0.84 9.82 0.01 0.05 -0.07 8148
0.38 -0.00 0.32 -0.83 9.82 0.01 0.05 -0.06 8156
0.39 -0.00 0.32 -0.88 9.81 0.02 0.05 -0.07 8163
0.41 -0.02 0.33 -0.84 9.82 0.02 0.05 -0.07 8170
0.42 -0.01 0.32 -0.84 9.20 0.02 0.05 -0.06 8177
0.45 -0.01 0.33 -0.83 9.82 0.02 0.05 -0.07 8184
0.46 -0.01 0.37 -0.88 9.81 0.02 0.05 -0.06 8192
0.50 -0.02 0.34 -0.86 9.81 0.03 0.05 -0.06 8199
0.52 -0.03 0.36 -0.88 9.83 0.03 0.05 -0.06 8206
0.51 -0.03 0.31 -0.85 9.80 0.03 0.05 -0.06 8213
0.53 -0.02 0.38 -0.88 9.83 0.03 0.06 -0.06 8220
0.54 -0.02 0.34 -0.90 9.82 0.04 0.06 -0.06 8227
0.56 -0.02 0.34 -0.91 9.82 0.04 0.06 -0.07 8235
0.58 -0.03 0.35 -0.87 9.83 0.04 0.07 -0.07 8242
0.57 -0.02 0.35 -0.92 9.85 0.06 0.07 -0.07 8249
0.58 -0.02 0.35 -0.89 9.86 0.07 0.08 -0.07 8256
0.58 -0.03 0.40 -0.89 9.89 0.08 0.09 -0.08 8263
0.60 -0.03 0.46 -0.99 9.90 0.11 0.12 -0.09 8270
0.62 -0.03 0.55 -0.84 10.00 0.14 0.14 -0.11 8278
0.63 -0.03 0.29 -1.06 10.13 0.22 0.20 -0.13 8286
0.62 -0.04 0.79 -0.72 11.29 0.62 0.30 -0.12 8293
0.61 -0.04 1.10 -1.01 10.73 0.92 0.35 -0.12 8300
0.61 -0.03 1.21 -1.24 11.56 1.02 0.39 -0.16 8307
0.61 -0.02 0.54 -1.31 11.43 1.05 0.28 -0.18 8314
0.62 -0.03 0.52 -1.03 10.39 1.11 0.24 -0.20 8322
0.59 -0.03 0.28 -1.39 10.05 1.15 0.21 -0.20 8329
0.55 -0.03 0.18 -1.42 10.03 1.16 0.19 -0.19 8336
0.48 -0.02 0.51 -1.47 10.34 1.16 0.14 -0.18 8343
0.47 -0.02 0.41 -1.57 10.27 1.14 0.17 -0.16 8350
0.43 -0.00 0.42 -1.66 10.04 1.13 0.16 -0.15 8356
0.42 -0.03 0.34 -1.88 10.05 1.13 0.15 -0.14 8365
0.39 -0.03 0.48 -1.84 9.93 1.14 0.16 -0.12 8371
0.34 -0.03 0.51 -1.94 10.05 1.17 0.19 -0.12 8378
0.28 -0.02 0.46 -2.05 9.97 1.18 0.21 -0.11 8385
0.26 -0.00 0.50 -2.24 9.97 1.13 0.06 -0.09 8392
0.24 -0.01 0.95 -2.26 9.82 1.09 0.22 -0.10 8399
0.13 -0.01 0.17 -2.38 10.37 1.16 0.21 -0.09 8407
0.12 -0.00 0.63 -1.85 10.02 1.21 0.21 -0.07 8414
0.12 -0.01 0.63 -2.61 9.85 1.24 0.28 -0.08 8421
0.10 0.00 0.63 -2.69 9.65 1.23 0.29 -0.08 8428
0.06 0.01 0.59 -2.73 9.92 1.20 0.29 -0.08 8435
0.07 0.00 0.68 -2.90 10.35 1.23 0.33 -0.07 8442
0.09 -0.00 0.88 -2.90 10.41 1.26 0.40 -0.07 8450
0.07 -0.01 0.91 -3.14 10.12 1.26 0.53 -0.07 8457
0.06 -0.01 1.11 -3.29 10.31 1.23 0.64 -0.08 8464
0.03 -0.00 1.08 -3.29 10.56 1.17 0.75 -0.08 8471
0.04 0.00 1.70 -3.32 10.06 1.10 0.84 -0.09 8478
0.02 -0.00 2.40 -3.16 9.50 1.04 0.89 -0.14 8485
0.01 -0.00 2.72 -2.42 9.88 0.95 0.95 -0.19 8493
0.01 -0.00 3.50 -3.31 10.37 0.82 1.05 -0.27 8500
0.00 0.00 3.08 -2.80 11.25 0.68 1.22 -0.36 8507
0.00 0.00 1.93 -1.42 11.59 0.54 1.38 -0.47 8514
0.01 -0.00 0.79 -0.70 9.95 0.38 1.33 -0.58 8521
0.02 -0.00 -0.66 0.09 9.13 0.23 1.09 -0.67 8528
0.03 -0.00 -1.63 0.83 8.96 0.07 0.74 -0.79 8536
0.01 -0.00 -2.02 1.61 8.87 -0.06 0.33 -0.98 8543
0.00 0.00 -2.06 1.40 8.99 -0.18 -0.10 -1.15 8550
0.02 -0.00 -2.23 1.87 9.50 -0.27 -0.38 -1.43 8557
0.01 -0.00 -0.94 1.12 8.99 -0.34 -0.53 -1.74 8564
0.02 -0.00 -0.72 1.25 9.64 -0.41 -0.70 -2.00 8571
0.02 -0.00 -1.00 1.58 9.81 -0.61 -0.76 -2.23 8579
0.01 -0.00 -0.46 1.55 9.15 -0.77 -0.84 -2.40 8586
0.00 -0.00 -0.28 0.93 9.13 -0.81 -1.00 -2.54 8593
0.01 -0.00 -0.07 0.45 9.10 -0.79 -1.12 -2.63 8600
0.02 -0.00 0.60 0.09 9.26 -0.76 -1.23 -2.69 8607
0.01 -0.00 1.19 -0.15 9.33 -0.72 -1.28 -2.70 8614
0.01 -0.00 2.12 -0.28 9.47 -0.71 -1.28 -2.66 8622
0.00 -0.00 2.97 -0.45 9.57 -0.73 -1.20 -2.61 8629
0.00 0.00 3.37 -0.66 9.52 -0.77 -1.06 -2.54 8636
0.00 0.00 3.62 -0.94 9.35 -0.82 -0.84 -2.44 8643
0.00 -0.00 3.59 -1.28 9.06 -0.86 -0.63 -2.31 8650
0.00 0.00 3.37 -1.54 8.92 -0.87 -0.40 -2.18 8657
0.00 0.00 3.18 -1.82 8.91 -0.85 -0.23 -2.02 8665
0.00 0.00 2.93 -1.99 8.80 -0.80 -0.12 -1.87 8672
0.00 0.00 2.58 -2.03 8.77 -0.73 -0.05 -1.69 8679
0.00 0.00 2.41 -1.98 8.73 -0.66 -0.04 -1.50 8686
0.00 -0.00 2.28 -1.84 8.87 -0.59 -0.06 -1.34 8693
0.00 0.00 2.14 -1.64 9.03 -0.52 -0.11 -1.15 8700
0.00 0.00 2.06 -1.50 9.26 -0.46 -0.16 -0.96 8708
0.00 0.00 1.95 -1.44 9.55 -0.42 -0.19 -0.80 8715
0.00 0.00 2.13 -1.43 9.84 -0.40 -0.20 -0.62 8722
0.00 0.00 2.15 -1.42 10.01 -0.41 -0.18 -0.48 8729
0.00 -0.00 2.17 -1.43 9.92 -0.45 -0.12 -0.35 8736
0.00 -0.00 2.20 -1.44 9.90 -0.48 -0.05 -0.24 8743
0.00 -0.00 2.27 -1.49 9.80 -0.52 0.06 -0.16 8751
0.00 0.00 2.33 -1.51 9.83 -0.54 0.17 -0.10 8758
0.00 0.00 2.26 -1.52 9.93 -0.56 0.26 -0.06 8765
0.01 -0.00 2.05 -1.40 9.91 -0.56 0.36 -0.02 8772
0.01 -0.00 1.79 -1.28 9.92 -0.56 0.44 0.02 8779
0.00 0.00 1.44 -1.19 9.86 -0.57 0.51 0.07 8786
0.00 0.00 1.06 -1.17 9.98 -0.57 0.53 0.13 8794
0.00 0.00 0.70 -1.39 10.05 -0.59 0.52 0.17 8801
0.00 0.00 0.39 -1.53 10.06 -0.60 0.47 0.21 8808
0.01 -0.00 0.29 -1.81 10.12 -0.62 0.42 0.23 8815
0.00 0.00 0.49 -1.97 10.09 -0.63 0.38 0.23 8822
0.00 0.00 0.77 -1.93 10.02 -0.63 0.38 0.21 8829
0.00 0.00 0.97 -2.02 9.96 -0.62 0.41 0.18 8837
0.00 0.00 1.18 -2.06 9.88 -0.60 0.48 0.15 8844
0.00 0.00 0.99 -1.85 9.75 -0.59 0.56 0.13 8851
0.00 0.00 0.85 -1.83 9.89 -0.58 0.62 0.13 8858
0.00 0.00 0.66 -1.94 10.23 -0.57 0.65 0.13 8865
0.00 0.00 0.51 -1.88 10.30 -0.56 0.64 0.14 8872
0.00 0.00 0.41 -2.08 10.33 -0.56 0.64 0.14 8880
0.00 0.00 0.45 -2.18 10.33 -0.56 0.64 0.14 8887
0.00 0.00 0.44 -2.27 10.34 -0.57 0.66 0.13 8894
0.00 0.00 0.42 -2.40 10.21 -0.58 0.69 0.12 8901
0.00 0.00 0.34 -2.43 10.10 -0.58 0.74 0.12 8908
0.00 0.00 0.10 -2.45 10.02 -0.58 0.78 0.13 8915
0.00 0.00 -0.16 -2.57 10.05 -0.57 0.79 0.15 8923
0.00 0.00 -0.31 -2.67 10.05 -0.55 0.76 0.17 8930
0.00 0.00 -0.40 -2.88 10.15 -0.54 0.70 0.20 8937
0.00 0.00 -0.37 -3.01 10.20 -0.52 0.65 0.23 8944
0.00 0.00 -0.28 -3.10 10.15 -0.51 0.60 0.24 8951
0.00 -0.00 -0.11 -3.14 10.11 -0.50 0.57 0.26 8958
0.00 0.00 0.03 -3.17 10.01 -0.49 0.55 0.26 8966
0.00 0.00 0.10 -3.19 9.96 -0.47 0.54 0.27 8973
0.00 -0.00 0.01 -3.24 9.88 -0.45 0.57 0.28 8980
0.00 0.00 -0.09 -3.29 9.92 -0.41 0.58 0.29 8987
0.00 0.00 -0.29 -3.47 9.92 -0.37 0.58 0.28 8994
0.00 0.00 -0.38 -3.65 9.92 -0.33 0.56 0.26 9001
0.00 0.00 -0.47 -3.70 9.85 -0.29 0.53 0.25 9009
0.00 0.00 -0.52 -3.62 9.79 -0.25 0.49 0.22 9016
0.00 -0.00 -0.43 -3.54 9.83 -0.20 0.47 0.19 9023
0.00 0.00 -0.29 -3.39 9.82 -0.16 0.46 0.16 9030
0.00 0.00 -0.23 -3.09 9.69 -0.15 0.48 0.13 9037
0.00 0.00 -0.32 -2.85 9.70 -0.14 0.54 0.12 9044
0.00 0.00 -0.50 -2.70 9.93 -0.13 0.59 0.11 9052
0.00 0.00 -0.71 -2.62 10.18 -0.15 0.62 0.12 9059
0.01 -0.00 -1.17 -2.67 10.28 -0.19 0.61 0.11 9066
0.00 0.00 -1.44 -2.78 10.30 -0.23 0.56 0.11 9073
0.00 0.00 -1.58 -2.91 10.07 -0.27 0.48 0.10 9080
0.00 0.00 -1.44 -2.92 9.88 -0.28 0.40 0.09 9088
0.00 0.00 -1.24 -3.02 9.79 -0.28 0.36 0.03 9095
-0.00 0.00 -1.10 -3.11 9.48 -0.25 0.33 0.04 9102
0.00 0.00 -0.99 -3.08 9.30 -0.22 0.37 0.01 9109
0.00 0.00 -0.94 -3.08 9.27 -0.19 0.42 -0.01 9116
0.00 0.00 -1.02 -3.03 9.28 -0.16 0.49 -0.03 9123
0.00 0.00 -1.16 -3.05 9.43 -0.16 0.55 -0.02 9131
0.00 0.00 -1.49 -3.14 9.45 -0.16 0.58 -0.01 9138
0.00 0.00 -1.88 -3.35 9.50 -0.16 0.55 0.02 9145
0.00 0.00 -5.70 -5.45 12.91 -0.01 -0.00 0.08 9152
0.00 0.00 -3.40 -3.07 7.87 -0.02 -0.20 0.14 9159
0.00 0.00 -4.02 -4.76 9.75 -0.01 -0.32 0.23 9166
0.00 0.00 -3.53 -4.54 8.71 -0.01 -0.56 0.29 9174
0.00 0.00 -4.85 -5.43 9.78 0.04 -0.72 0.32 9181
0.01 -0.00 -3.33 -5.44 8.84 0.09 -0.79 0.35 9188
0.01 -0.00 -3.53 -5.64 8.58 0.13 -0.85 0.37 9195
0.00 0.00 -4.53 -5.83 8.63 0.20 -1.00 0.40 9202
0.00 0.00 -4.19 -5.45 8.39 0.27 -1.08 0.43 9209
0.00 -0.00 -7.87 -2.86 17.98 0.58 -0.89 0.59 9217
0.00 -0.00 -3.95 -1.33 10.20 0.67 -0.52 0.76 9224
0.01 -0.00 -2.44 -0.97 9.51 0.74 -0.44 0.78 9231
0.01 -0.00 -4.24 -0.47 10.05 0.74 -0.48 0.68 9238
0.00 -0.00 -8.67 -2.56 27.08 0.62 -0.56 0.50 9245
-0.00 0.00 -1.59 -0.62 11.01 -0.00 -0.51 -0.01 9252
-0.00 0.02 -0.04 -1.65 10.31 -0.17 -0.08 -0.02 9260
-0.00 0.03 0.03 -0.74 9.15 -0.25 -0.07 -0.08 9267
0.00 0.05 0.30 -0.64 9.75 -0.33 -0.07 -0.06 9274
-0.01 0.07 0.52 -0.83 10.49 -0.26 -0.00 -0.04 9281
-0.01 0.08 0.40 -0.94 10.09 -0.15 0.05 -0.03 9288
-0.02 0.16 0.33 -0.85 9.92 -0.12 0.06 -0.04 9295
-0.01 0.19 0.36 -0.88 9.83 -0.11 0.04 -0.04 9303
0.01 0.25 0.40 -0.89 9.82 -0.09 0.01 -0.05 9310
-0.00 0.28 0.38 -0.86 9.89 -0.09 -0.01 -0.05 9317
-0.00 0.21 0.35 -0.87 9.87 -0.08 -0.01 -0.05 9324
0.02 0.26 0.37 -0.84 9.82 -0.07 -0.01 -0.06 9331
0.03 0.33 0.37 -0.83 9.81 -0.06 -0.01 -0.06 9338
0.04 0.36 0.34 -0.82 9.80 -0.06 0.00 -0.07 9346
0.03 0.40 0.34 -0.77 9.81 -0.06 0.01 -0.06 9353
0.03 0.40 0.33 -0.78 9.85 -0.05 0.02 -0.07 9360
0.04 0.37 0.29 -0.77 9.83 -0.05 0.02 -0.07 9367
0.04 0.42 0.31 -0.79 9.85 -0.04 0.03 -0.06 9374
0.04 0.43 0.34 -0.75 9.83 -0.04 0.03 -0.06 9381
0.06 0.43 0.28 -0.80 9.82 -0.04 0.03 -0.06 9389
0.07 0.49 0.32 -0.78 9.81 -0.03 0.03 -0.06 9396
0.06 0.46 0.30 -0.78 9.82 -0.03 0.04 -0.06 9403
0.06 0.47 0.32 -0.73 9.79 -0.03 0.04 -0.06 9410
0.06 0.51 0.37 -0.75 9.82 -0.03 0.04 -0.05 9417
0.06 0.49 0.33 -0.76 9.83 -0.03 0.04 -0.06 9424
0.07 0.49 0.31 -0.74 9.81 -0.02 0.04 -0.06 9432
0.09 0.48 0.33 -0.76 9.84 -0.02 0.04 -0.06 9439
0.08 0.51 0.34 -0.75 9.81 -0.02 0.04 -0.06 9446
0.08 0.50 0.31 -0.73 9.81 -0.01 0.04 -0.06 9453
0.07 0.49 0.31 -0.73 9.82 -0.01 0.04 -0.06 9460
0.08 0.50 0.31 -0.73 9.79 -0.01 0.03 -0.06 9467
0.09 0.51 0.28 -0.72 9.82 -0.01 0.04 -0.07 9475
0.11 0.47 0.30 -0.75 9.82 -0.01 0.04 -0.06 9482
0.10 0.48 0.36 -0.73 9.80 -0.00 0.04 -0.06 9489
0.11 0.46 0.32 -0.74 9.81 0.00 0.04 -0.06 9496
0.11 0.47 0.30 -0.74 9.82 0.00 0.04 -0.06 9503
0.11 0.47 0.33 -0.74 9.82 0.00 0.04 -0.06 9510
0.09 0.47 0.34 -0.74 9.81 0.00 0.04 -0.06 9518
0.11 0.44 0.31 -0.73 9.80 0.01 0.04 -0.07 9525
0.11 0.42 0.34 -0.76 9.80 0.01 0.05 -0.07 9532
0.10 0.42 0.31 -0.73 9.80 0.01 0.04 -0.07 9539
0.09 0.42 0.37 -0.75 9.82 0.01 0.04 -0.07 9546
0.12 0.40 0.33 -0.75 9.81 0.01 0.04 -0.07 9553
0.15 0.36 0.30 -0.76 9.83 0.01 0.04 -0.07 9561
0.14 0.32 0.30 -0.80 9.81 0.01 0.04 -0.07 9568
0.14 0.33 0.34 -0.74 9.79 0.01 0.05 -0.07 9575
0.17 0.32 0.34 -0.79 9.79 0.01 0.05 -0.07 9582
0.16 0.32 0.30 -0.80 9.82 0.01 0.05 -0.07 9589
0.17 0.31 0.32 -0.74 9.82 0.01 0.04 -0.10 9596
0.19 0.25 0.30 -0.75 9.80 0.01 0.04 -0.07 9604
0.20 0.27 0.31 -0.76 9.81 0.01 0.05 -0.07 9611
0.19 0.28 0.32 -0.75 9.83 0.00 0.05 -0.07 9618
0.19 0.27 0.32 -0.77 9.81 0.01 0.05 -0.07 9625
0.19 0.26 0.34 -0.78 9.79 0.00 0.05 -0.07 9632
0.20 0.25 0.30 -0.79 9.80 0.00 0.04 -0.07 9639
0.21 0.20 0.29 -0.77 9.82 0.00 0.04 -0.07 9647
0.21 0.18 0.33 -0.75 10.41 0.00 0.04 -0.07 9654
0.22 0.19 0.32 -0.74 9.78 0.00 0.04 -0.07 9661
0.21 0.15 0.34 -0.75 9.81 0.00 0.04 -0.07 9668
0.22 0.14 0.33 -0.74 9.81 -0.00 0.04 -0.07 9675
0.23 0.15 0.28 -0.78 9.80 0.00 0.04 -0.07 9682
0.24 0.16 0.33 -0.77 9.81 -0.00 0.04 -0.07 9690
0.23 0.16 0.31 -0.79 9.81 -0.00 0.04 -0.07 9697
0.24 0.16 0.32 -0.78 9.81 -0.00 0.05 -0.06 9704
0.23 0.14 0.32 -0.79 9.81 -0.00 0.04 -0.06 9711
0.23 0.15 0.33 -0.79 9.81 -0.01 0.05 -0.07 9718
0.23 0.19 0.35 -0.77 9.82 -0.00 0.04 -0.07 9725
0.24 0.15 0.32 -0.77 9.81 -0.00 0.04 -0.07 9733
0.23 0.13 0.32 -0.79 9.81 -0.00 0.04 -0.07 9740
0.24 0.10 0.34 -0.78 9.82 -0.01 0.04 -0.07 9747
0.22 0.10 0.32 -0.79 9.80 -0.00 0.04 -0.06 9754
0.23 0.10 0.29 -0.77 9.81 -0.00 0.04 -0.07 9761
0.25 0.10 0.29 -0.80 9.81 -0.00 0.05 -0.07 9768
0.26 0.11 0.30 -0.80 9.77 -0.00 0.04 -0.07 9776
0.24 0.12 0.27 -0.75 10.42 -0.01 0.04 -0.07 9783
0.24 0.11 0.34 -0.80 9.81 -0.01 0.04 -0.07 9790
0.23 0.13 0.32 -0.78 9.78 -0.01 0.04 -0.06 9797
0.24 0.15 0.34 -0.79 9.79 -0.01 0.05 -0.06 9804
0.25 0.13 0.34 -0.75 9.81 -0.01 0.04 -0.07 9811
0.25 0.13 0.31 -0.79 9.81 -0.01 0.04 -0.06 9819
0.23 0.14 0.34 -0.79 9.78 -0.01 0.04 -0.06 9826
0.22 0.16 0.30 -0.81 9.78 -0.01 0.04 -0.06 9833
0.22 0.18 0.34 -0.80 9.80 -0.01 0.04 -0.07 9840
0.23 0.18 0.35 -0.75 9.80 -0.01 0.04 -0.06 9847
0.24 0.17 0.34 -0.75 9.82 -0.01 0.04 -0.06 9854
0.23 0.17 0.34 -0.76 9.82 -0.00 0.04 -0.06 9862
0.24 0.15 0.36 -0.78 9.79 -0.00 0.05 -0.07 9869
0.23 0.17 0.34 -0.76 10.42 -0.00 0.04 -0.06 9876
0.25 0.15 0.33 -0.78 9.80 0.00 0.04 -0.06 9883
0.25 0.15 0.33 -0.80 9.81 0.00 0.05 -0.07 9890
0.27 0.13 0.30 -0.77 9.81 0.01 0.04 -0.06 9897
0.27 0.09 0.29 -0.79 9.82 0.01 0.05 -0.06 9905
0.26 0.02 0.30 -0.76 9.82 0.01 0.04 -0.07 9912
0.27 0.05 0.31 -0.80 9.82 0.02 0.05 -0.07 9919
0.28 0.05 0.32 -0.69 9.79 0.02 0.05 -0.07 9926
0.30 0.00 0.34 -0.78 9.82 0.02 0.05 -0.07 9933
0.31 0.02 0.34 -0.73 9.82 0.03 0.05 -0.07 9940
0.33 -0.01 0.35 -0.82 9.83 0.03 0.05 -0.07 9948
0.34 -0.02 0.32 -0.78 9.82 0.04 0.05 -0.07 9955
0.35 -0.00 0.22 -0.72 9.91 0.05 0.06 -0.06 9962
0.39 -0.02 0.39 -0.90 9.84 0.05 0.06 -0.06 9969
0.40 -0.02 0.41 -0.87 9.85 0.06 0.07 -0.07 9976
0.40 -0.02 0.32 -0.80 9.86 0.07 0.08 -0.10 9984
0.42 -0.02 0.39 -0.88 9.93 0.09 0.09 -0.08 9991
0.39 -0.02 0.28 -1.11 9.96 0.11 0.11 -0.09 9998
0.39 -0.02 0.51 -0.91 9.91 0.14 0.14 -0.09 10005
0.44 -0.01 0.29 -0.96 10.11 0.22 0.20 -0.15 10013
0.47 -0.02 0.12 -0.72 11.70 0.43 0.32 -0.13 10020
0.46 -0.02 0.59 -0.76 10.90 1.03 0.43 -0.12 10028
0.44 -0.02 0.46 -1.20 11.46 1.13 0.50 -0.15 10035
0.43 -0.03 0.63 -1.18 11.56 1.08 0.40 -0.16 10042
0.41 -0.01 0.46 -1.26 10.20 1.10 0.34 -0.17 10049
0.40 0.02 0.41 -1.21 10.35 1.12 0.25 -0.16 10056
0.40 -0.01 0.49 -1.32 10.62 1.10 0.22 -0.15 10063
0.39 -0.01 0.29 -1.51 10.27 1.11 0.24 -0.14 10071
0.38 -0.01 0.38 -1.48 10.46 1.15 0.23 -0.12 10078
0.36 -0.00 0.57 -1.84 10.28 1.21 0.22 -0.11 10085
0.32 -0.00 0.18 -2.46 10.07 1.23 0.13 -0.09 10092
0.28 0.01 0.47 -1.73 10.63 1.18 0.14 -0.08 10099
0.24 -0.00 0.17 -1.88 10.68 1.22 0.24 -0.08 10105
0.21 -0.00 0.12 -1.97 11.37 1.32 0.21 -0.05 10113
0.16 -0.01 0.43 -2.21 10.72 1.41 0.33 -0.04 10121
0.14 -0.00 0.27 -2.26 9.75 1.43 0.36 -0.02 10127
0.11 -0.01 0.26 -2.36 9.72 1.40 0.38 0.02 10134
0.13 -0.01 0.26 -2.76 9.73 1.37 0.41 0.06 10141
0.13 -0.01 0.39 -2.63 9.47 1.34 0.45 0.07 10148
0.11 -0.01 0.26 -2.67 9.46 1.31 0.50 0.10 10156
0.12 -0.01 0.07 -2.88 9.55 1.27 0.52 0.15 10163
0.05 -0.01 0.01 -3.05 9.47 1.24 0.55 0.19 10170
0.07 -0.00 0.02 -3.15 9.44 1.20 0.56 0.24 10177
0.08 -0.01 -0.33 -3.53 9.43 1.17 0.55 0.29 10184
0.06 -0.01 -0.38 -3.22 9.47 1.14 0.47 0.36 10191
0.05 -0.01 -0.27 -3.38 9.47 1.10 0.37 0.42 10199
0.04 -0.00 -0.46 -3.53 9.67 1.07 0.29 0.48 10206
0.04 -0.00 -0.77 -3.59 9.68 1.05 0.16 0.55 10213
0.05 -0.01 -0.80 -3.77 9.70 1.03 0.03 0.63 10220
0.03 -0.00 -0.72 -3.77 9.95 1.01 -0.14 0.69 10227
0.04 -0.00 -0.44 -3.64 10.22 0.98 -0.28 0.75 10234
0.03 -0.00 -0.10 -3.60 10.34 0.95 -0.37 0.79 10242
0.01 -0.00 0.30 -3.52 10.29 0.89 -0.44 0.80 10249
0.01 -0.00 0.73 -3.72 10.12 0.84 -0.46 0.80 10256
0.00 0.00 1.20 -3.17 9.69 0.79 -0.44 0.75 10263
0.02 -0.00 2.23 -3.33 9.40 0.73 -0.38 0.66 10270
0.02 -0.00 2.71 -2.59 9.81 0.67 -0.30 0.62 10277
0.01 -0.00 3.49 -2.12 9.20 0.57 -0.07 0.48 10285
0.01 -0.00 3.19 -1.46 8.80 0.44 0.15 0.24 10292
0.02 -0.00 2.40 -1.23 8.65 0.25 0.31 -0.03 10299
0.02 -0.00 1.23 -1.16 9.33 0.13 0.49 -0.39 10306
0.01 -0.00 0.11 -1.13 10.18 0.06 0.58 -0.78 10313
0.01 -0.00 -0.84 -0.86 10.44 0.04 0.59 -1.13 10320
0.00 0.00 -1.68 -0.37 10.24 0.00 0.48 -1.53 10328
0.00 0.00 -2.23 -0.02 9.95 -0.06 0.34 -1.87 10335
0.00 0.00 -2.48 0.10 9.99 -0.15 0.14 -2.28 10342
0.00 -0.00 -2.25 -0.00 9.43 -0.24 -0.07 -2.69 10349
0.01 -0.00 -1.70 -0.06 9.61 -0.35 -0.34 -2.95 10356
0.00 -0.00 -1.24 -0.00 10.05 -0.50 -0.56 -3.19 10363
0.00 0.00 -0.44 0.08 9.58 -0.70 -0.70 -3.35 10371
0.00 0.00 0.39 -0.13 8.97 -0.83 -0.85 -3.48 10378
0.00 0.00 1.78 -0.60 8.75 -0.87 -0.93 -3.54 10385
0.02 -0.00 2.01 -1.03 8.56 -0.85 -0.97 -3.53 10392
0.01 -0.00 2.77 -1.37 8.62 -0.80 -0.93 -3.46 10399
0.00 -0.00 3.39 -1.21 8.98 -0.72 -0.86 -3.34 10406
0.00 0.00 3.62 -0.76 9.26 -0.65 -0.80 -3.25 10414
0.00 0.00 3.64 -0.53 9.36 -0.59 -0.74 -3.05 10421
0.00 -0.00 3.92 -0.28 9.38 -0.57 -0.72 -2.84 10428
0.01 -0.00 4.14 -0.03 9.31 -0.58 -0.67 -2.54 10435
0.01 -0.00 4.06 0.11 9.27 -0.63 -0.61 -2.22 10442
0.01 -0.00 4.05 0.12 9.28 -0.68 -0.53 -1.94 10449
0.00 0.00 4.05 -0.01 9.05 -0.72 -0.46 -1.62 10457
0.00 0.00 4.13 -0.09 9.03 -0.75 -0.35 -1.36 10464
0.01 -0.00 4.16 -0.22 9.09 -0.74 -0.23 -1.09 10471
0.02 -0.00 4.03 -0.34 9.14 -0.73 -0.12 -0.84 10478
0.01 -0.00 3.70 -0.38 9.11 -0.70 0.04 -0.64 10485
0.01 -0.00 3.17 -0.38 9.22 -0.68 0.18 -0.44 10492
0.00 0.00 2.63 -0.48 9.28 -0.67 0.26 -0.27 10500
0.01 -0.00 2.09 -0.67 9.42 -0.65 0.30 -0.12 10507
0.01 -0.00 1.76 -1.03 9.65 -0.64 0.30 -0.00 10514
0.02 -0.00 1.40 -1.20 9.74 -0.63 0.28 0.06 10521
0.01 -0.00 1.20 -1.46 9.98 -0.63 0.27 0.09 10528
0.01 -0.00 1.04 -1.60 10.06 -0.65 0.27 0.09 10535
0.00 -0.00 0.97 -1.69 10.15 -0.67 0.27 0.05 10543
0.01 -0.00 1.02 -1.73 10.31 -0.68 0.29 -0.02 10550
0.02 -0.00 1.00 -1.75 10.19 -0.69 0.31 -0.11 10557
0.01 -0.00 0.98 -1.54 10.11 -0.70 0.36 -0.22 10564
0.01 -0.00 1.08 -1.45 10.04 -0.71 0.44 -0.31 10571
0.01 -0.00 0.83 -1.26 9.86 -0.72 0.53 -0.37 10578
0.00 -0.00 0.82 -1.28 9.95 -0.73 0.63 -0.41 10586
0.01 0.00 0.49 -1.21 9.81 -0.75 0.66 -0.42 10593
0.01 -0.00 0.13 -1.27 9.96 -0.78 0.63 -0.42 10600
0.01 -0.00 0.17 -1.60 10.37 -0.80 0.57 -0.40 10607
0.01 -0.00 0.33 -1.66 10.32 -0.80 0.52 -0.36 10614
0.01 -0.00 0.61 -1.74 10.32 -0.79 0.49 -0.30 10621
0.00 -0.00 0.70 -1.80 10.28 -0.77 0.49 -0.26 10629
0.01 -0.00 0.79 -1.76 10.37 -0.77 0.53 -0.21 10636
0.02 -0.00 0.88 -1.93 10.39 -0.78 0.63 -0.17 10643
0.01 -0.00 0.84 -2.21 10.36 -0.81 0.69 -0.15 10650
0.01 -0.00 0.67 -2.47 10.32 -0.84 0.78 -0.13 10657
0.00 -0.00 0.44 -2.81 10.42 -0.86 0.84 -0.14 10664
0.01 -0.00 0.16 -3.11 10.37 -0.85 0.87 -0.16 10672
0.01 -0.00 0.02 -3.30 10.32 -0.82 0.87 -0.20 10679
0.02 -0.00 0.01 -3.32 10.21 -0.78 0.85 -0.23 10686
0.01 -0.00 0.09 -3.23 10.20 -0.74 0.81 -0.26 10693
0.01 -0.00 0.20 -3.14 10.19 -0.70 0.81 -0.26 10700
0.00 0.00 0.44 -3.16 10.28 -0.66 0.84 -0.25 10707
0.01 -0.00 0.50 -3.23 10.27 -0.63 0.87 -0.22 10715
0.01 -0.00 0.58 -3.32 10.32 -0.61 0.91 -0.19 10722
0.01 -0.00 0.58 -3.57 10.45 -0.59 0.95 -0.15 10729
0.01 -0.00 0.52 -3.82 10.51 -0.59 0.98 -0.09 10736
0.01 -0.00 0.39 -4.05 10.70 -0.59 1.02 -0.04 10743
0.00 0.00 0.28 -4.15 10.66 -0.58 1.03 0.02 10750
0.00 0.00 0.15 -4.20 10.59 -0.57 1.02 0.08 10758
0.01 -0.00 0.02 -4.20 10.48 -0.55 1.01 0.15 10765
0.00 -0.00 -0.18 -4.24 10.42 -0.52 0.99 0.22 10772
0.00 0.00 -0.40 -4.30 10.38 -0.47 0.96 0.27 10779
0.00 -0.00 -0.57 -4.28 10.41 -0.43 0.92 0.30 10786
0.00 0.00 -0.68 -4.17 10.22 -0.40 0.89 0.31 10793
0.00 0.00 -0.96 -4.15 10.14 -0.41 0.87 0.31 10801
0.01 -0.00 -1.35 -4.16 10.13 -0.42 0.88 0.31 10808
0.01 -0.00 -1.58 -4.31 9.94 -0.44 0.88 0.30 10815
0.01 -0.00 -1.99 -4.61 9.56 -0.45 0.85 0.29 10822
0.00 0.00 -2.24 -5.50 9.18 -0.43 0.81 0.29 10829
0.00 -0.00 -9.66 -9.16 9.72 -0.34 0.67 0.32 10836
0.00 0.00 -2.00 -6.09 8.77 -0.15 0.11 0.44 10844
0.01 -0.00 -4.11 -6.87 10.97 -0.15 -0.03 0.47 10851
0.00 0.00 -3.87 -7.85 8.64 -0.02 -0.27 0.58 10858
0.00 0.00 -4.24 -6.90 8.04 0.08 -0.36 0.64 10865
0.00 0.00 -5.99 -7.61 7.84 0.23 -0.44 0.70 10872
0.00 0.00 -4.78 -7.42 6.69 0.30 -0.45 0.75 10880
0.00 0.00 -8.15 -8.11 8.70 0.49 -0.65 0.83 10887
0.00 0.00 -6.91 -7.34 7.14 0.63 -0.78 0.95 10894
0.00 0.00 -4.07 -5.44 9.35 0.91 -0.51 1.20 10901
0.00 0.00 -10.55 -3.81 10.71 1.13 -0.58 1.40 10908
-0.00 0.00 -7.42 -2.20 9.85 1.26 -0.70 1.46 10915
-0.00 0.01 -8.03 -3.24 10.12 1.24 -0.86 1.12 10923
0.00 0.05 -11.79 -0.71 15.72 0.16 -1.20 0.30 10931
-0.01 0.06 -0.61 -0.24 7.47 -0.38 0.01 -0.00 10937
-0.01 0.11 0.44 -1.02 14.83 -0.57 -0.04 -0.08 10944
-0.01 0.18 0.19 -0.50 10.20 -0.29 0.11 -0.10 10951
-0.02 0.24 0.96 -1.13 10.39 -0.20 0.11 -0.09 10958
-0.02 0.27 1.01 -1.26 10.33 -0.13 0.05 -0.04 10967
-0.01 0.31 0.16 -1.09 10.27 -0.09 0.01 -0.04 10973
-0.02 0.37 0.17 -0.87 9.87 -0.06 0.02 -0.05 10980
0.03 0.37 0.48 -0.83 9.83 -0.05 0.03 -0.05 10987
0.02 0.44 0.50 -0.88 9.82 -0.05 0.03 -0.05 10994
0.03 0.42 0.35 -0.81 9.21 -0.04 0.03 -0.05 11001
0.04 0.42 0.38 -0.89 9.81 -0.04 0.03 -0.05 11009
0.06 0.44 0.43 -0.84 9.80 -0.04 0.03 -0.05 11016
0.04 0.47 0.36 -0.84 9.84 -0.05 0.02 -0.05 11023
0.03 0.49 0.40 -0.84 9.81 -0.05 0.03 -0.05 11030
0.01 0.53 0.37 -0.85 9.81 -0.04 0.03 -0.05 11037
0.02 0.57 0.42 -0.84 9.82 -0.04 0.03 -0.06 11044
0.04 0.56 0.37 -0.80 9.75 -0.03 0.03 -0.06 11052
0.05 0.61 0.38 -0.80 9.81 -0.03 0.03 -0.06 11059
0.05 0.59 0.34 -0.83 9.82 -0.02 0.03 -0.06 11066
0.05 0.54 0.32 -0.79 9.83 -0.02 0.03 -0.06 11073
0.03 0.54 0.39 -0.82 9.83 -0.02 0.04 -0.05 11080
0.04 0.60 0.37 -0.83 9.82 -0.02 0.04 -0.05 11087
0.04 0.61 0.34 -0.82 9.81 -0.02 0.04 -0.05 11095
0.05 0.58 0.39 -0.85 9.81 -0.02 0.04 -0.05 11102
0.06 0.60 0.40 -0.83 9.84 -0.01 0.04 -0.05 11109
0.05 0.61 0.41 -0.83 9.80 -0.01 0.04 -0.06 11116
0.04 0.63 0.34 -0.82 9.81 -0.01 0.04 -0.06 11123
0.03 0.63 0.36 -0.79 9.81 -0.01 0.04 -0.06 11130
0.05 0.64 0.36 -0.79 9.82 -0.01 0.04 -0.06 11138
0.05 0.65 0.37 -0.81 9.82 -0.01 0.04 -0.06 11145
0.05 0.63 0.38 -0.79 9.81 -0.01 0.04 -0.06 11152
0.05 0.63 0.34 -0.81 9.81 -0.01 0.04 -0.06 11159
0.05 0.61 0.36 -0.80 9.80 -0.01 0.04 -0.06 11166
0.06 0.62 0.35 -0.80 9.81 -0.01 0.04 -0.07 11173
0.06 0.62 0.35 -0.80 9.80 -0.00 0.04 -0.07 11181
0.06 0.60 0.37 -0.77 9.82 -0.01 0.04 -0.06 11188
0.05 0.58 0.36 -0.80 9.81 -0.00 0.04 -0.06 11195
0.06 0.56 0.37 -0.79 9.79 -0.00 0.04 -0.07 11202
0.05 0.57 0.39 -0.81 9.79 -0.00 0.04 -0.06 11209
0.05 0.57 0.38 -0.81 9.82 -0.00 0.04 -0.06 11216
0.07 0.56 0.39 -0.80 9.78 0.00 0.04 -0.07 11224
0.05 0.56 0.39 -0.82 9.81 -0.00 0.04 -0.07 11231
0.06 0.55 0.34 -0.82 9.80 -0.00 0.04 -0.07 11238
0.05 0.54 0.36 -0.83 9.81 -0.00 0.04 -0.06 11245
0.06 0.56 0.33 -0.80 9.79 -0.00 0.04 -0.07 11252
0.06 0.57 0.35 -0.82 9.20 -0.01 0.04 -0.06 11259
0.07 0.55 0.35 -0.79 9.78 -0.01 0.04 -0.07 11267
0.07 0.53 0.36 -0.81 9.80 -0.01 0.04 -0.06 11274
0.08 0.52 0.35 -0.83 9.81 -0.01 0.04 -0.07 11281
0.07 0.53 0.37 -0.85 9.81 -0.01 0.04 -0.06 11288
0.08 0.53 0.39 -0.80 9.81 -0.00 0.04 -0.06 11295
0.08 0.53 0.39 -0.82 9.82 -0.00 0.04 -0.07 11302
0.08 0.52 0.34 -0.81 9.79 -0.00 0.04 -0.07 11310
0.08 0.50 0.37 -0.80 9.80 -0.00 0.04 -0.06 11317
0.08 0.50 0.35 -0.80 9.79 -0.00 0.04 -0.07 11324
0.07 0.49 0.34 -0.82 9.79 -0.00 0.04 -0.06 11331
0.09 0.48 0.36 -0.80 9.81 -0.00 0.04 -0.07 11338
0.09 0.48 0.32 -0.81 9.79 -0.01 0.04 -0.06 11345
0.10 0.47 0.38 -0.79 9.21 -0.00 0.04 -0.06 11353
0.10 0.47 0.37 -0.82 9.78 -0.00 0.04 -0.07 11360
0.10 0.46 0.39 -0.81 9.79 -0.00 0.04 -0.06 11367
0.09 0.46 0.35 -0.84 9.81 -0.00 0.03 -0.07 11374
0.11 0.45 0.41 -0.82 9.80 -0.00 0.04 -0.07 11381
0.13 0.45 0.35 -0.81 9.20 -0.00 0.03 -0.06 11388
0.13 0.45 0.37 -0.81 9.80 -0.00 0.03 -0.07 11396
0.13 0.44 0.37 -0.82 9.81 -0.00 0.03 -0.07 11403
0.10 0.44 0.36 -0.80 9.81 -0.00 0.03 -0.07 11410
0.12 0.45 0.34 -0.80 9.82 -0.00 0.03 -0.07 11417
0.10 0.46 0.34 -0.79 9.81 -0.00 0.03 -0.07 11424
0.12 0.44 0.36 -0.80 9.81 0.00 0.04 -0.07 11431
0.13 0.44 0.36 -0.81 9.79 0.00 0.04 -0.06 11439
0.13 0.42 0.34 -0.84 9.82 0.00 0.03 -0.07 11446
0.13 0.40 0.32 -0.83 9.79 -0.00 0.03 -0.07 11453
0.12 0.41 0.35 -0.84 9.78 -0.00 0.03 -0.06 11460
0.13 0.42 0.34 -0.77 9.79 -0.00 0.03 -0.07 11467
0.14 0.39 0.37 -0.80 9.78 -0.00 0.03 -0.07 11474
0.14 0.38 0.34 -0.81 10.42 0.00 0.04 -0.06 11482
0.15 0.38 0.34 -0.80 9.81 0.00 0.03 -0.07 11489
0.14 0.37 0.32 -0.84 9.78 0.01 0.04 -0.07 11496
0.14 0.37 0.33 -0.83 9.79 0.01 0.04 -0.07 11503
0.15 0.35 0.34 -0.85 9.75 0.01 0.04 -0.07 11510
0.17 0.29 0.29 -0.83 9.79 0.01 0.04 -0.07 11517
0.20 0.26 0.34 -0.84 9.80 0.01 0.04 -0.07 11525
0.19 0.28 0.33 -0.83 9.81 0.01 0.04 -0.07 11532
0.21 0.26 0.36 -0.82 9.80 0.01 0.04 -0.07 11539
0.24 0.22 0.32 -0.84 9.81 0.01 0.04 -0.07 11546
0.25 0.22 0.32 -0.84 9.83 0.01 0.04 -0.07 11553
0.24 0.20 0.37 -0.84 9.82 0.02 0.05 -0.07 11560
0.27 0.15 0.37 -0.73 9.75 0.02 0.05 -0.06 11568
0.29 0.10 0.38 -0.97 9.82 0.02 0.05 -0.07 11575
0.30 0.05 0.34 -0.84 9.84 0.02 0.05 -0.06 11582
0.32 0.04 0.38 -0.83 9.79 0.03 0.05 -0.07 11589
0.35 0.03 0.35 -0.74 9.83 0.02 0.05 -0.06 11596
0.35 0.03 0.38 -0.91 9.82 0.03 0.05 -0.06 11603
0.37 -0.03 0.39 -0.91 9.81 0.04 0.04 -0.07 11611
0.34 -0.01 0.39 -0.83 9.80 0.04 0.05 -0.07 11618
0.37 -0.01 0.34 -0.87 9.83 0.04 0.05 -0.07 11625
0.42 -0.01 0.36 -0.85 9.83 0.05 0.05 -0.07 11632
0.47 -0.01 0.35 -0.90 9.81 0.06 0.05 -0.07 11639
0.48 -0.02 0.40 -0.87 9.87 0.07 0.05 -0.07 11646
0.50 -0.03 0.32 -1.10 9.88 0.09 0.05 -0.08 11654
0.54 -0.04 0.34 -0.99 9.84 0.10 0.05 -0.09 11661
0.58 -0.03 0.53 -0.74 10.06 0.14 0.05 -0.10 11668
0.59 -0.02 0.36 -1.06 9.98 0.20 0.03 -0.13 11675
0.63 -0.02 0.57 -1.08 10.35 0.31 0.05 -0.14 11683
0.66 -0.03 2.37 -1.44 10.00 0.60 0.04 -0.19 11689
0.69 -0.04 0.48 -1.12 11.59 0.89 0.05 -0.21 11697
0.69 -0.03 0.60 -1.32 11.78 1.06 -0.06 -0.21 11705
0.72 -0.02 0.36 -1.37 11.35 1.11 -0.10 -0.23 11712
0.74 -0.02 0.59 -1.34 11.23 1.16 -0.10 -0.24 11719
0.72 -0.01 0.30 -1.41 11.03 1.25 -0.12 -0.25 11726
0.71 -0.02 0.53 -1.40 10.89 1.32 -0.14 -0.24 11734
0.71 -0.02 0.42 -1.43 10.48 1.36 -0.15 -0.24 11741
0.68 0.00 0.03 -1.56 10.39 1.38 -0.12 -0.23 11747
0.66 -0.00 0.05 -1.63 10.13 1.41 -0.09 -0.21 11755
0.64 -0.01 -0.04 -1.79 9.77 1.42 -0.03 -0.19 11761
0.61 -0.01 0.04 -1.93 9.53 1.42 -0.01 -0.16 11768
0.57 -0.01 0.10 -1.89 9.75 1.41 0.01 -0.15 11776
0.52 0.00 -0.15 -2.19 9.83 1.37 0.02 -0.12 11783
0.45 0.00 -0.01 -2.29 9.53 1.37 0.03 -0.09 11790
0.44 0.00 -0.03 -2.41 9.70 1.38 0.08 -0.07 11797
0.41 -0.00 -0.04 -2.45 9.18 1.37 0.12 -0.04 11804
0.35 -0.00 0.15 -2.74 9.60 1.37 0.19 -0.03 11811
0.28 -0.02 -0.12 -2.91 9.32 1.34 0.13 -0.01 11819
0.23 -0.02 0.15 -2.97 9.68 1.32 0.22 0.02 11826
0.20 -0.01 0.07 -3.06 10.00 1.34 0.29 0.01 11833
0.11 -0.01 -0.12 -3.09 9.78 1.34 0.33 0.05 11840
0.11 -0.01 0.11 -3.37 10.16 1.33 0.37 0.07 11847
0.08 -0.01 0.07 -3.34 10.14 1.34 0.44 0.09 11854
0.10 -0.01 0.21 -3.74 10.25 1.34 0.53 0.11 11862
0.07 -0.01 0.12 -3.89 10.16 1.31 0.53 0.12 11869
0.09 -0.01 -0.00 -3.91 10.10 1.24 0.56 0.15 11876
0.09 -0.01 0.11 -3.94 9.71 1.22 0.54 0.16 11883
0.09 -0.01 0.17 -3.94 9.99 1.16 0.47 0.16 11890
0.08 -0.01 -0.12 -4.10 10.30 1.09 0.39 0.17 11897
0.07 -0.01 -0.21 -4.08 10.73 0.99 0.28 0.17 11905
0.06 -0.01 -1.11 -2.26 11.29 0.85 0.05 0.16 11912
0.05 -0.01 -1.09 0.98 10.96 0.66 -0.15 0.10 11919
0.04 -0.00 -1.02 1.85 10.62 0.30 -0.35 -0.07 11926
0.04 -0.00 -0.46 0.71 10.21 -0.04 -0.39 -0.37 11933
0.04 -0.00 -0.70 1.14 10.90 -0.28 -0.38 -0.69 11940
0.04 -0.00 -1.77 1.40 10.18 -0.35 -0.34 -1.16 11948
0.04 -0.00 -2.01 1.10 8.95 -0.37 -0.40 -1.71 11955
0.03 0.00 -3.84 1.10 9.66 -0.38 -0.53 -2.21 11962
0.04 -0.00 -4.78 0.74 10.45 -0.36 -0.71 -2.80 11969
0.03 -0.00 -3.35 0.13 9.48 -0.35 -0.91 -3.30 11976
0.03 -0.00 -2.71 0.06 10.08 -0.39 -1.09 -3.62 11983
0.00 0.00 -1.78 -0.00 9.99 -0.48 -1.19 -3.90 11991
0.00 0.00 -0.84 -0.40 9.36 -0.56 -1.29 -4.04 11998
0.00 -0.00 -0.28 -0.85 9.27 -0.58 -1.36 -4.11 12005
0.01 -0.00 0.08 -1.20 9.52 -0.58 -1.38 -4.10 12012
0.00 -0.00 0.91 -1.34 9.84 -0.57 -1.34 -4.01 12019
0.00 -0.00 1.71 -1.40 9.98 -0.56 -1.22 -3.89 12026
0.00 0.00 2.38 -1.25 9.89 -0.56 -1.07 -3.76 12034
0.00 0.00 3.03 -1.05 9.46 -0.58 -0.85 -3.59 12041
-0.00 0.00 3.40 -1.05 9.06 -0.61 -0.63 -3.39 12048
0.02 -0.00 3.50 -1.12 8.81 -0.64 -0.36 -3.20 12055
0.02 -0.00 3.51 -1.28 8.91 -0.65 -0.11 -2.96 12062
0.02 -0.00 3.42 -1.50 8.97 -0.64 0.07 -2.74 12069
0.01 -0.00 3.07 -1.57 8.96 -0.61 0.21 -2.48 12077
0.02 -0.00 2.74 -1.51 8.71 -0.57 0.31 -2.19 12084
0.00 -0.00 2.25 -1.25 8.47 -0.53 0.38 -1.93 12091
0.01 -0.00 1.74 -1.02 8.40 -0.48 0.46 -1.59 12098
0.02 -0.00 1.44 -0.92 8.58 -0.43 0.47 -1.21 12105
0.01 -0.00 1.11 -0.84 8.92 -0.39 0.47 -0.92 12112
0.00 0.00 1.07 -0.81 9.33 -0.38 0.45 -0.59 12120
0.00 -0.00 0.91 -0.91 9.76 -0.40 0.43 -0.33 12127
0.01 -0.00 0.68 -1.01 10.12 -0.47 0.44 -0.06 12134
0.01 -0.00 0.59 -1.13 10.15 -0.51 0.45 0.16 12141
0.01 -0.00 0.39 -1.41 10.15 -0.57 0.44 0.32 12148
0.01 -0.00 0.35 -1.71 10.03 -0.61 0.43 0.45 12155
0.00 -0.00 0.34 -1.81 9.80 -0.61 0.43 0.54 12163
0.01 0.00 0.40 -1.87 9.67 -0.61 0.44 0.60 12170
0.02 -0.00 0.48 -2.11 9.78 -0.60 0.46 0.63 12177
0.01 -0.00 0.52 -2.24 9.85 -0.57 0.51 0.62 12184
0.00 -0.00 0.46 -2.25 9.59 -0.55 0.58 0.59 12191
0.01 -0.00 0.35 -2.18 9.64 -0.52 0.63 0.55 12198
0.01 -0.00 0.02 -2.02 9.61 -0.50 0.71 0.50 12206
0.01 0.00 -0.44 -1.82 9.64 -0.50 0.79 0.46 12213
0.02 -0.00 -0.86 -1.74 9.73 -0.49 0.84 0.44 12220
0.00 -0.00 -1.52 -1.52 9.58 -0.51 0.83 0.43 12227
0.00 -0.00 -1.80 -1.60 9.99 -0.55 0.76 0.43 12234
0.00 0.00 -1.76 -1.95 10.32 -0.57 0.65 0.41 12241
0.00 -0.00 -1.49 -2.12 10.54 -0.59 0.58 0.39 12249
0.00 -0.00 -1.06 -2.28 10.63 -0.61 0.56 0.37 12256
0.01 -0.00 -0.58 -2.45 10.52 -0.66 0.58 0.32 12263
0.00 0.00 -0.30 -2.55 10.35 -0.66 0.64 0.24 12270
0.00 0.00 -0.23 -2.74 10.30 -0.68 0.72 0.20 12277
0.00 0.00 -0.36 -2.94 10.21 -0.68 0.77 0.13 12284
0.00 0.00 -0.50 -2.95 10.04 -0.67 0.78 0.06 12292
0.00 0.00 -0.54 -2.93 9.84 -0.66 0.76 0.01 12299
0.00 0.00 -0.46 -2.70 9.82 -0.63 0.73 -0.03 12306
0.00 0.00 -0.25 -2.58 9.89 -0.60 0.71 -0.05 12313
0.00 0.00 0.00 -2.42 9.92 -0.56 0.71 -0.06 12320
0.00 0.00 0.11 -2.24 9.93 -0.52 0.72 -0.06 12327
0.00 0.00 0.30 -2.11 9.94 -0.49 0.77 -0.05 12335
0.01 -0.00 0.37 -2.01 9.98 -0.48 0.82 -0.04 12342
0.00 0.00 0.28 -1.95 10.11 -0.47 0.88 -0.01 12349
0.00 0.00 0.03 -1.91 10.39 -0.47 0.93 0.02 12356
0.00 0.00 -0.28 -1.87 10.51 -0.47 0.94 0.04 12363
0.00 0.00 -0.54 -2.07 10.47 -0.49 0.94 0.07 12370
0.00 0.00 -0.74 -2.25 10.24 -0.49 0.93 0.08 12378
0.00 0.00 -0.86 -2.45 10.12 -0.48 0.90 0.08 12385
0.00 0.00 -0.92 -2.55 9.92 -0.46 0.89 0.07 12392
0.00 0.00 -0.97 -2.64 9.78 -0.42 0.87 0.05 12399
0.00 0.00 -1.08 -2.66 9.68 -0.36 0.86 0.01 12406
0.00 0.00 -1.15 -2.73 9.72 -0.32 0.90 -0.04 12413
0.00 0.00 -1.19 -2.70 9.76 -0.27 0.90 -0.08 12421
0.00 0.00 -1.26 -2.72 9.81 -0.24 0.94 -0.13 12428
0.00 0.00 -1.35 -2.86 9.93 -0.23 0.98 -0.18 12435
0.00 0.00 -1.36 -3.01 10.17 -0.23 1.00 -0.22 12442
0.00 0.00 -1.41 -3.16 10.31 -0.23 1.01 -0.25 12449
0.00 -0.00 -1.42 -3.18 10.19 -0.24 1.00 -0.26 12456
0.01 -0.00 -1.39 -3.16 10.13 -0.26 0.99 -0.24 12464
0.01 -0.00 -1.43 -3.19 9.98 -0.28 0.97 -0.21 12471
0.00 -0.00 -1.54 -3.28 9.85 -0.27 0.93 -0.15 12478
0.00 -0.00 -1.87 -3.47 9.86 -0.25 0.87 -0.08 12485
0.00 0.00 -2.28 -3.55 9.85 -0.22 0.78 -0.02 12492
0.00 0.00 -2.74 -3.66 9.59 -0.19 0.65 0.04 12499
0.01 -0.00 -3.22 -3.83 9.44 -0.16 0.48 0.09 12507
0.00 -0.00 -3.71 -3.91 9.48 -0.13 0.32 0.11 12514
0.00 0.00 -4.02 -4.07 9.34 -0.07 0.14 0.12 12521
0.00 0.00 -4.06 -4.16 9.11 -0.08 -0.01 0.11 12528
0.00 0.00 -3.83 -4.27 8.93 -0.06 -0.13 0.09 12535
0.00 0.00 -3.59 -4.21 8.63 -0.04 -0.23 0.07 12542
0.01 -0.00 -3.41 -4.19 8.35 0.00 -0.21 0.06 12550
0.00 0.00 -3.32 -4.18 8.15 0.06 -0.20 0.08 12557
0.00 0.00 -3.40 -4.25 8.09 0.13 -0.20 0.12 12564
0.00 0.00 -15.33 -10.50 14.70 0.54 -0.46 0.36 12571
0.00 0.00 -7.31 -4.94 4.37 0.72 -0.90 0.52 12578
-0.00 0.00 -4.25 -4.92 5.86 1.01 -0.92 0.72 12585
0.00 -0.00 -5.47 -7.25 8.07 1.19 -0.94 0.98 12593
0.00 0.00 -5.41 -5.16 7.61 1.35 -0.88 1.22 12600
0.00 -0.00 -39.81 -13.68 61.76 0.18 -0.36 0.98 12608
0.00 -0.00 0.89 -3.32 4.13 -0.15 -0.31 -0.10 12614
0.02 -0.00 -3.19 -2.55 5.66 -0.33 0.28 -0.01 12621
0.03 0.02 3.33 -1.19 20.36 -0.32 0.23 -0.03 12630
0.04 0.03 0.51 -0.59 7.67 -0.30 -0.09 -0.05 12636
0.02 0.05 0.72 -1.22 11.48 -0.34 -0.03 -0.05 12643
0.04 0.03 0.36 -0.90 10.16 -0.21 0.03 -0.05 12650
0.03 0.15 0.25 -0.89 10.02 -0.15 0.03 -0.06 12657
0.09 0.18 0.17 -1.09 10.01 -0.09 0.03 -0.06 12664
0.07 0.20 0.18 -1.09 10.01 -0.07 0.02 -0.06 12672
0.07 0.23 0.35 -0.97 9.87 -0.06 0.03 -0.05 12679
0.06 0.24 0.32 -0.93 9.82 -0.04 0.03 -0.06 12686
0.06 0.22 0.29 -0.97 9.78 -0.04 0.03 -0.06 12693
0.05 0.24 0.32 -1.00 9.79 -0.03 0.03 -0.05 12700
0.06 0.30 0.27 -0.95 9.79 -0.04 0.03 -0.05 12707
0.06 0.30 0.35 -0.99 9.75 -0.04 0.02 -0.06 12715
0.07 0.27 0.35 -0.96 9.76 -0.05 0.02 -0.06 12722
0.07 0.27 0.31 -0.90 9.75 -0.05 0.02 -0.06 12729
0.10 0.23 0.26 -0.95 9.77 -0.05 0.02 -0.06 12736
0.07 0.25 0.28 -0.94 9.80 -0.06 0.02 -0.06 12743
0.07 0.29 0.35 -0.86 9.80 -0.06 0.03 -0.07 12750
0.09 0.34 0.27 -0.91 9.81 -0.06 0.03 -0.06 12758
0.09 0.31 0.26 -0.92 9.80 -0.05 0.04 -0.07 12765
0.11 0.31 0.24 -0.85 9.80 -0.05 0.04 -0.06 12772
0.09 0.35 0.24 -0.85 9.85 -0.05 0.05 -0.06 12779
0.09 0.35 0.26 -0.88 9.82 -0.05 0.05 -0.06 12786
0.09 0.36 0.29 -0.90 9.82 -0.05 0.05 -0.05 12793
0.11 0.41 0.28 -0.89 9.81 -0.05 0.05 -0.05 12801
0.12 0.41 0.32 -0.89 9.82 -0.04 0.05 -0.05 12808
0.11 0.41 0.29 -0.91 9.82 -0.04 0.04 -0.05 12815
0.11 0.39 0.29 -0.88 9.84 -0.04 0.05 -0.05 12822
0.10 0.46 0.32 -0.87 9.81 -0.03 0.04 -0.06 12829
0.10 0.48 0.37 -0.83 9.83 -0.03 0.04 -0.06 12836
0.11 0.46 0.30 -0.84 9.81 -0.02 0.04 -0.06 12844
0.11 0.42 0.27 -0.84 9.82 -0.02 0.04 -0.06 12851
0.10 0.43 0.31 -0.85 9.82 -0.02 0.04 -0.06 12858
0.10 0.47 0.30 -0.83 10.40 -0.01 0.04 -0.06 12865
0.10 0.47 0.32 -0.83 9.82 -0.01 0.04 -0.06 12872
0.10 0.48 0.26 -0.84 9.82 -0.01 0.04 -0.06 12879
0.12 0.47 0.33 -0.83 9.82 -0.00 0.04 -0.06 12887
0.10 0.46 0.30 -0.85 9.82 -0.00 0.05 -0.06 12894
0.12 0.43 0.29 -0.85 9.83 0.00 0.04 -0.10 12901
0.11 0.44 0.31 -0.85 9.81 0.01 0.04 -0.06 12908
0.13 0.42 0.27 -0.86 9.79 0.00 0.05 -0.06 12915
0.15 0.43 0.31 -0.86 9.81 0.00 0.04 -0.07 12922
0.15 0.41 0.27 -0.85 9.80 0.00 0.05 -0.07 12930
0.15 0.39 0.29 -0.88 9.76 0.01 0.05 -0.07 12937
0.15 0.37 0.31 -0.87 9.80 0.01 0.04 -0.07 12944
0.13 0.35 0.27 -0.83 9.77 0.00 0.04 -0.06 12951
0.15 0.33 0.32 -0.85 10.40 0.00 0.04 -0.06 12958
0.15 0.31 0.34 -0.86 9.81 0.00 0.04 -0.07 12965
0.15 0.33 0.30 -0.87 9.78 0.00 0.05 -0.07 12973
0.14 0.34 0.28 -0.87 9.80 0.00 0.04 -0.07 12980
0.13 0.33 0.29 -0.87 9.74 0.00 0.04 -0.07 12987
0.13 0.34 0.27 -0.86 9.82 0.01 0.04 -0.07 12994
0.15 0.37 0.28 -0.86 9.82 0.00 0.04 -0.07 13001
0.16 0.34 0.30 -0.88 9.80 0.00 0.04 -0.07 13008
0.16 0.33 0.34 -0.88 9.80 0.01 0.04 -0.07 13016
0.18 0.31 0.26 -0.91 9.80 0.01 0.05 -0.06 13023
0.19 0.29 0.30 -0.86 9.81 0.00 0.04 -0.07 13030
0.20 0.27 0.30 -0.90 9.78 0.01 0.05 -0.07 13037
0.22 0.26 0.27 -0.87 9.80 0.01 0.05 -0.07 13044
0.24 0.23 0.28 -0.86 9.80 0.00 0.05 -0.07 13051
0.25 0.21 0.29 -0.86 9.80 0.00 0.05 -0.07 13059
0.25 0.21 0.27 -0.86 9.83 0.01 0.05 -0.07 13066
0.25 0.18 0.31 -0.86 9.82 0.01 0.06 -0.07 13073
0.26 0.17 0.28 -0.87 9.81 0.01 0.06 -0.07 13080
0.28 0.20 0.28 -0.89 9.21 0.02 0.05 -0.07 13087
0.28 0.16 0.34 -0.91 9.81 0.01 0.05 -0.07 13094
0.28 0.17 0.29 -0.88 9.81 0.01 0.05 -0.07 13102
0.30 0.13 0.30 -0.90 9.79 0.01 0.06 -0.07 13109
0.31 0.12 0.32 -0.91 9.81 0.02 0.06 -0.07 13116
0.31 0.12 0.33 -0.90 9.82 0.01 0.06 -0.07 13123
0.33 0.07 0.31 -0.90 9.78 0.02 0.06 -0.07 13130
0.34 0.03 0.30 -0.89 9.78 0.02 0.06 -0.07 13137
0.31 0.04 0.34 -0.91 9.79 0.02 0.06 -0.07 13145
0.32 0.02 0.31 -0.93 9.80 0.02 0.06 -0.07 13152
0.33 0.04 0.30 -0.91 9.82 0.02 0.06 -0.07 13159
0.36 0.04 0.32 -0.89 9.81 0.02 0.06 -0.07 13166
0.38 0.01 0.32 -0.95 9.81 0.02 0.06 -0.07 13173
0.39 0.00 0.32 -0.92 9.80 0.02 0.06 -0.07 13180
0.37 -0.02 0.33 -0.94 9.81 0.02 0.06 -0.07 13188
0.35 -0.01 0.31 -0.93 9.81 0.01 0.06 -0.07 13195
0.36 -0.00 0.35 -0.94 9.81 0.01 0.06 -0.07 13202
0.39 0.01 0.32 -0.93 9.82 0.01 0.06 -0.07 13209
0.40 -0.02 0.32 -0.93 9.80 0.01 0.06 -0.07 13216
0.39 -0.03 0.34 -0.92 9.79 0.01 0.06 -0.07 13223
0.39 -0.02 0.37 -0.91 9.82 0.01 0.06 -0.07 13231
0.38 -0.02 0.38 -0.92 9.80 0.00 0.05 -0.07 13238
0.39 -0.02 0.31 -0.91 9.81 -0.00 0.05 -0.07 13245
0.39 -0.00 0.34 -0.91 9.81 -0.00 0.05 -0.07 13252
0.40 -0.02 0.31 -0.93 9.81 -0.00 0.05 -0.07 13259
0.40 -0.01 0.33 -0.91 9.80 0.01 0.05 -0.07 13266
0.40 -0.02 0.34 -0.91 9.81 0.00 0.05 -0.06 13274
0.39 -0.00 0.36 -0.95 9.80 0.00 0.05 -0.06 13281
0.42 -0.01 0.33 -0.90 9.80 0.00 0.05 -0.07 13288
0.42 -0.01 0.34 -0.95 9.78 0.00 0.05 -0.06 13295
0.43 -0.01 0.37 -0.95 9.81 0.00 0.05 -0.07 13302
0.44 -0.02 0.36 -0.96 10.41 0.00 0.05 -0.06 13309
0.44 -0.03 0.36 -0.96 9.80 0.00 0.05 -0.06 13317
0.42 -0.01 0.35 -0.94 9.80 0.00 0.05 -0.06 13324
0.41 -0.01 0.35 -0.96 9.80 0.01 0.05 -0.06 13331
0.42 -0.02 0.34 -0.91 9.81 0.00 0.05 -0.06 13338
0.42 -0.02 0.35 -0.93 10.42 0.01 0.06 -0.06 13345
0.44 -0.01 0.38 -0.94 9.81 0.01 0.06 -0.06 13352
0.44 -0.02 0.36 -0.92 9.82 0.01 0.06 -0.07 13360
0.44 -0.01 0.36 -0.96 9.79 0.01 0.06 -0.06 13367
0.45 -0.01 0.38 -0.96 9.79 0.01 0.06 -0.07 13374
0.46 0.00 0.36 -0.95 9.81 0.02 0.06 -0.07 13381
0.48 -0.02 0.34 -0.94 9.79 0.02 0.06 -0.06 13388
0.47 -0.03 0.36 -0.94 9.79 0.01 0.06 -0.06 13395
0.48 -0.03 0.38 -0.96 9.81 0.02 0.06 -0.06 13403
0.48 -0.02 0.37 -0.93 9.81 0.02 0.06 -0.07 13410
0.48 -0.01 0.37 -0.98 9.82 0.02 0.07 -0.07 13417
0.50 -0.02 0.40 -0.92 9.86 0.03 0.08 -0.07 13424
0.48 -0.02 0.40 -0.94 9.87 0.04 0.08 -0.08 13431
0.50 -0.03 0.43 -0.95 9.83 0.05 0.09 -0.08 13438
0.49 -0.02 0.32 -0.81 9.80 0.06 0.11 -0.08 13446
0.50 -0.02 0.60 -0.85 9.88 0.07 0.13 -0.10 13453
0.50 -0.02 0.34 -0.96 9.82 0.08 0.15 -0.13 13460
0.50 -0.03 0.71 -0.91 9.94 0.11 0.18 -0.13 13467
0.49 -0.03 0.08 -1.01 10.21 0.16 0.21 -0.12 13475
0.48 -0.04 0.24 -0.85 10.91 0.35 0.28 -0.11 13483
0.46 -0.02 0.45 -1.11 10.61 0.55 0.33 -0.11 13490
0.45 -0.02 0.40 -1.21 9.95 0.74 0.37 -0.11 13496
0.44 -0.01 0.82 -1.16 10.91 0.86 0.45 -0.15 13504
0.44 -0.02 1.00 -1.19 10.66 0.92 0.37 -0.16 13511
0.41 -0.02 0.66 -1.30 10.78 0.95 0.29 -0.18 13518
0.38 -0.03 1.16 -1.32 10.80 0.98 0.26 -0.19 13526
0.32 -0.02 0.58 -1.28 10.08 1.02 0.23 -0.19 13533
0.29 -0.01 0.43 -1.59 10.03 1.03 0.16 -0.19 13540
0.25 -0.02 0.44 -1.57 10.75 1.03 0.14 -0.18 13547
0.20 -0.02 0.59 -1.73 10.27 1.04 0.20 -0.18 13553
0.21 -0.02 0.35 -1.28 9.69 1.06 0.20 -0.17 13560
0.16 -0.02 -0.01 -0.95 7.64 1.04 0.10 -0.17 13568
0.12 -0.01 1.02 -2.04 10.72 1.06 0.19 -0.18 13575
0.09 0.01 0.55 -2.10 10.75 1.10 0.19 -0.19 13582
0.10 0.00 0.74 -2.11 11.09 1.19 0.18 -0.17 13589
0.12 -0.01 1.02 -2.25 10.55 1.26 0.24 -0.19 13596
0.06 -0.01 1.10 -2.34 10.80 1.27 0.28 -0.21 13603
0.08 -0.01 1.10 -2.37 10.03 1.26 0.31 -0.24 13611
0.04 0.00 1.19 -2.35 10.11 1.24 0.36 -0.27 13618
0.06 0.01 1.41 -2.32 9.88 1.21 0.44 -0.31 13625
0.05 0.00 1.82 -2.08 9.98 1.14 0.59 -0.36 13632
0.03 0.00 2.45 -2.03 9.73 1.03 0.76 -0.43 13639
0.04 -0.00 2.88 -1.78 9.73 0.89 0.99 -0.56 13646
0.01 0.00 2.54 -1.59 9.84 0.75 1.17 -0.70 13654
0.04 0.00 1.96 -1.88 10.01 0.60 1.37 -0.79 13661
0.02 -0.00 2.14 -3.04 10.30 0.51 1.46 -0.86 13668
0.01 -0.00 2.05 -4.03 11.87 0.42 1.52 -0.87 13675
0.01 -0.00 0.62 -2.73 11.25 0.35 1.68 -0.88 13682
0.02 -0.00 -0.11 -1.66 9.22 0.32 1.59 -0.97 13689
0.01 -0.00 -2.02 -0.84 9.16 0.31 1.35 -1.06 13697
0.02 -0.00 -3.59 0.07 9.59 0.29 1.00 -1.22 13704
0.02 -0.00 -5.30 1.10 10.57 0.24 0.62 -1.53 13711
0.01 -0.00 -5.21 1.33 9.65 0.17 0.15 -1.81 13718
0.01 -0.00 -5.80 1.54 9.45 0.07 -0.21 -2.25 13725
0.01 -0.00 -5.39 1.16 10.04 -0.04 -0.50 -2.67 13732
0.01 -0.00 -4.34 0.97 9.59 -0.16 -0.83 -3.08 13740
0.01 -0.00 -4.25 0.69 10.11 -0.29 -1.07 -3.40 13747
0.00 -0.00 -3.11 0.32 10.11 -0.45 -1.29 -3.61 13754
0.00 0.00 -1.83 -0.37 9.93 -0.52 -1.46 -3.78 13761
0.00 0.00 -0.70 -1.07 11.03 -0.54 -1.49 -3.88 13768
0.00 0.00 0.51 -1.57 10.89 -0.56 -1.42 -3.92 13775
0.00 0.00 1.59 -1.74 11.00 -0.59 -1.27 -3.92 13783
0.00 0.00 2.54 -1.71 10.57 -0.67 -1.02 -3.89 13790
0.00 -0.00 2.88 -1.46 9.69 -0.75 -0.71 -3.81 13797
0.00 0.00 2.78 -1.15 8.99 -0.83 -0.46 -3.70 13804
0.00 0.00 2.55 -0.94 8.74 -0.84 -0.29 -3.53 13811
0.00 0.00 2.39 -0.90 8.89 -0.80 -0.27 -3.34 13818
0.00 0.00 2.43 -0.81 8.93 -0.71 -0.32 -3.16 13826
-0.00 0.00 2.63 -0.62 8.81 -0.63 -0.38 -2.91 13833
0.00 0.00 2.78 -0.34 8.80 -0.57 -0.41 -2.61 13840
0.00 0.00 2.76 -0.15 8.65 -0.52 -0.38 -2.39 13847
0.00 0.00 2.70 -0.18 8.50 -0.50 -0.31 -2.08 13854
0.00 0.00 2.56 -0.33 8.57 -0.48 -0.24 -1.83 13861
0.00 0.00 2.29 -0.75 8.64 -0.45 -0.18 -1.54 13869
0.00 0.00 2.21 -1.03 9.04 -0.39 -0.13 -1.29 13876
0.00 0.00 2.22 -1.31 9.35 -0.35 -0.06 -1.08 13883
0.00 0.00 2.14 -1.34 9.41 -0.33 0.00 -0.87 13890
0.00 0.00 2.06 -1.18 9.45 -0.33 0.09 -0.73 13897
0.00 0.00 2.10 -0.98 9.66 -0.35 0.18 -0.59 13904
0.00 0.00 2.02 -1.00 9.72 -0.37 0.25 -0.49 13912
0.01 -0.00 1.91 -1.08 9.76 -0.40 0.34 -0.43 13919
0.00 -0.00 1.71 -1.20 9.75 -0.40 0.41 -0.39 13926
0.00 -0.00 1.54 -1.37 9.72 -0.40 0.45 -0.37 13933
0.00 0.00 1.34 -1.45 9.73 -0.37 0.48 -0.37 13940
0.00 0.00 1.19 -1.56 9.75 -0.36 0.49 -0.40 13947
-0.00 0.00 1.08 -1.62 9.71 -0.34 0.51 -0.43 13955
0.00 -0.00 1.03 -1.66 9.77 -0.33 0.52 -0.48 13962
0.00 -0.00 1.02 -1.75 9.76 -0.32 0.52 -0.57 13969
0.00 0.00 0.94 -1.68 9.65 -0.31 0.54 -0.60 13976
0.00 0.00 0.98 -1.54 9.70 -0.29 0.50 -0.66 13983
0.00 0.00 0.90 -1.45 9.83 -0.29 0.53 -0.71 13990
0.00 0.00 0.81 -1.29 10.12 -0.29 0.54 -0.75 13998
0.01 -0.00 0.79 -1.17 10.38 -0.31 0.57 -0.75 14005
0.00 0.00 0.79 -1.17 10.52 -0.35 0.61 -0.74 14012
0.00 0.00 0.59 -1.18 10.49 -0.39 0.64 -0.69 14019
0.00 0.00 0.50 -1.19 10.27 -0.42 0.63 -0.65 14026
0.00 0.00 0.64 -1.13 10.15 -0.44 0.56 -0.58 14033
0.00 0.00 0.86 -1.00 10.10 -0.44 0.49 -0.50 14041
0.00 0.00 1.04 -0.91 10.04 -0.44 0.44 -0.41 14048
0.00 0.00 1.06 -0.81 9.94 -0.43 0.41 -0.31 14055
0.00 0.00 1.11 -0.81 10.07 -0.43 0.40 -0.21 14062
0.00 0.00 1.16 -0.90 10.34 -0.45 0.46 -0.11 14069
0.00 0.00 1.08 -1.06 10.43 -0.47 0.53 -0.01 14076
0.00 -0.00 0.84 -1.31 10.40 -0.52 0.64 0.06 14084
0.00 0.00 0.38 -1.67 10.28 -0.55 0.76 0.12 14091
0.00 0.00 -0.05 -2.01 10.29 -0.58 0.83 0.20 14098
0.00 0.00 -0.56 -2.48 10.19 -0.60 0.87 0.19 14105
0.00 0.00 -0.91 -2.70 9.98 -0.59 0.86 0.19 14112
0.00 0.00 -1.15 -2.83 9.81 -0.57 0.80 0.18 14119
0.00 -0.00 -1.14 -2.85 9.82 -0.54 0.73 0.17 14127
0.00 0.00 -1.04 -2.87 9.95 -0.49 0.67 0.16 14134
0.00 0.00 -0.90 -2.95 9.99 -0.45 0.62 0.14 14141
0.00 0.00 -0.80 -3.05 10.04 -0.40 0.60 0.12 14148
0.00 0.00 -0.79 -3.16 9.94 -0.36 0.59 0.10 14155
0.00 0.00 -0.81 -3.27 10.05 -0.32 0.58 0.08 14162
0.01 -0.00 -0.84 -3.36 10.23 -0.29 0.59 0.06 14170
0.00 0.00 -0.91 -3.42 10.13 -0.28 0.61 0.04 14177
0.00 0.00 -1.12 -3.45 10.01 -0.29 0.65 0.02 14184
0.00 0.00 -1.29 -3.46 9.81 -0.31 0.68 0.01 14191
0.00 0.00 -1.28 -3.44 9.86 -0.33 0.70 -0.01 14198
-0.00 0.00 -1.36 -3.25 9.96 -0.35 0.70 -0.02 14205
0.00 -0.00 -1.37 -3.23 10.08 -0.35 0.69 -0.02 14213
0.00 0.00 -1.37 -3.30 10.14 -0.33 0.67 -0.02 14220
0.00 0.00 -1.31 -3.27 10.02 -0.30 0.65 -0.07 14227
0.00 0.00 -1.20 -3.27 9.95 -0.28 0.62 -0.03 14234
0.00 0.00 -1.04 -3.26 9.84 -0.27 0.61 -0.04 14241
0.00 0.00 -0.95 -3.31 9.77 -0.25 0.59 -0.04 14248
0.00 0.00 -0.90 -3.28 9.64 -0.23 0.57 -0.02 14256
0.00 0.00 -0.88 -3.24 9.51 -0.19 0.56 0.01 14263
0.00 0.00 -0.86 -3.07 9.44 -0.16 0.55 0.04 14270
0.00 0.00 -0.99 -2.86 9.30 -0.12 0.56 0.11 14277
0.00 0.00 -0.99 -2.73 9.37 -0.09 0.58 0.16 14284
0.00 -0.00 -1.07 -2.56 9.50 -0.07 0.61 0.24 14291
0.00 0.00 -1.13 -2.41 9.45 -0.06 0.66 0.31 14299
0.00 0.00 -1.37 -2.36 9.43 -0.07 0.72 0.37 14306
0.00 0.00 -1.78 -2.55 9.34 -0.07 0.77 0.44 14313
0.00 0.00 -5.96 -4.95 13.34 -0.03 0.75 0.49 14320
0.00 0.00 -4.41 -4.23 10.17 0.25 -0.04 0.62 14327
0.00 0.00 -4.27 -2.95 7.00 0.26 -0.31 0.65 14334
0.00 -0.00 -5.56 -5.22 8.76 0.32 -0.61 0.71 14342
0.00 -0.00 -5.41 -5.14 8.79 0.40 -0.84 0.71 14349
0.00 0.00 -4.76 -5.01 8.60 0.46 -0.94 0.66 14356
0.00 0.00 -4.38 -7.19 8.26 0.55 -1.10 0.62 14363
0.00 0.00 0.38 -8.50 7.12 0.90 -0.50 0.84 14370
0.01 -0.00 -11.44 -11.71 12.64 0.73 -1.44 0.82 14379
-0.00 0.00 -12.06 -5.19 13.16 0.16 -0.98 0.62 14386
0.00 0.00 -5.30 -5.16 6.73 -0.25 0.06 0.19 14392
-0.00 0.03 -0.31 -1.83 9.92 -0.25 -0.02 -0.04 14399
-0.00 0.02 0.54 -0.45 8.75 -0.35 -0.10 -0.07 14406
-0.01 0.06 0.34 -0.94 11.33 -0.50 -0.21 -0.07 14413
-0.00 0.11 0.55 -0.75 10.10 -0.27 -0.00 -0.04 14420
-0.00 0.21 0.63 -0.82 10.30 -0.17 0.02 -0.03 14428
-0.00 0.20 0.37 -0.78 10.12 -0.13 -0.03 -0.05 14435
-0.02 0.26 0.19 -0.80 9.97 -0.08 -0.04 -0.06 14442
0.04 0.25 0.23 -0.85 9.97 -0.07 -0.03 -0.06 14449
0.04 0.27 0.29 -0.85 9.86 -0.06 -0.01 -0.05 14456
0.05 0.24 0.27 -0.84 9.83 -0.05 -0.00 -0.05 14464
0.07 0.26 0.32 -0.86 9.82 -0.05 0.00 -0.06 14471
0.08 0.27 0.33 -0.86 9.80 -0.05 0.01 -0.06 14478
0.08 0.33 0.34 -0.84 9.83 -0.06 0.01 -0.06 14485
0.09 0.35 0.29 -0.81 9.83 -0.05 0.02 -0.06 14492
0.08 0.42 0.28 -0.79 9.84 -0.05 0.02 -0.06 14499
0.07 0.41 0.29 -0.76 9.82 -0.05 0.02 -0.06 14507
0.07 0.40 0.28 -0.75 9.82 -0.04 0.03 -0.06 14514
0.07 0.40 0.27 -0.74 9.83 -0.04 0.03 -0.06 14521
0.08 0.41 0.27 -0.78 9.84 -0.04 0.03 -0.06 14528
0.10 0.49 0.26 -0.77 9.82 -0.03 0.03 -0.06 14535
0.08 0.48 0.23 -0.74 9.82 -0.02 0.03 -0.05 14542
0.08 0.48 0.29 -0.75 9.81 -0.02 0.04 -0.05 14550
0.08 0.47 0.23 -0.77 9.83 -0.02 0.04 -0.05 14557
0.08 0.49 0.30 -0.77 9.27 -0.02 0.03 -0.06 14564
0.09 0.51 0.31 -0.73 9.83 -0.01 0.03 -0.06 14571
0.10 0.50 0.27 -0.75 9.82 -0.02 0.03 -0.06 14578
0.12 0.52 0.26 -0.80 9.83 -0.01 0.03 -0.06 14585
0.13 0.49 0.26 -0.78 9.80 -0.01 0.03 -0.06 14593
0.12 0.49 0.26 -0.77 9.80 -0.01 0.03 -0.06 14600
0.12 0.47 0.25 -0.74 9.84 -0.00 0.03 -0.06 14607
0.13 0.47 0.22 -0.73 9.82 -0.00 0.03 -0.06 14614
0.12 0.48 0.25 -0.76 9.81 -0.00 0.03 -0.06 14621
0.13 0.47 0.24 -0.74 9.82 0.00 0.03 -0.06 14628
0.13 0.46 0.27 -0.77 9.81 0.00 0.04 -0.06 14636
0.14 0.45 0.27 -0.76 9.81 0.00 0.04 -0.06 14643
0.14 0.47 0.25 -0.75 9.80 0.01 0.04 -0.06 14650
0.15 0.44 0.28 -0.75 9.81 0.01 0.04 -0.07 14657
0.16 0.43 0.28 -0.77 9.81 0.00 0.04 -0.06 14664
0.17 0.43 0.24 -0.78 9.81 0.01 0.04 -0.07 14671
0.18 0.42 0.26 -0.74 9.80 0.00 0.04 -0.07 14679
0.19 0.42 0.26 -0.77 9.82 0.00 0.04 -0.07 14686
0.19 0.43 0.24 -0.76 9.80 0.00 0.04 -0.07 14693
0.22 0.40 0.23 -0.79 9.81 0.00 0.04 -0.07 14700
0.21 0.39 0.25 -0.77 9.81 -0.00 0.04 -0.07 14707
0.21 0.37 0.25 -0.75 9.79 -0.00 0.04 -0.07 14714
0.21 0.35 0.28 -0.78 9.80 -0.00 0.04 -0.06 14722
0.24 0.31 0.25 -0.77 9.82 -0.00 0.04 -0.06 14729
0.24 0.32 0.24 -0.76 9.81 -0.00 0.04 -0.07 14736
0.23 0.33 0.28 -0.76 9.82 -0.00 0.04 -0.07 14743
0.25 0.33 0.29 -0.79 9.80 -0.00 0.04 -0.07 14750
0.24 0.32 0.26 -0.75 9.82 -0.00 0.04 -0.07 14757
0.26 0.29 0.25 -0.76 9.82 0.00 0.04 -0.03 14765
0.25 0.29 0.26 -0.82 9.82 0.00 0.04 -0.07 14772
0.25 0.31 0.28 -0.78 9.82 -0.00 0.04 -0.06 14779
0.26 0.32 0.25 -0.80 9.82 -0.00 0.04 -0.07 14786
0.28 0.32 0.28 -0.74 9.81 -0.00 0.04 -0.07 14793
0.27 0.30 0.24 -0.75 9.79 -0.00 0.04 -0.06 14800
0.27 0.28 0.21 -0.77 9.81 0.00 0.05 -0.07 14808
0.27 0.31 0.25 -0.80 9.81 0.00 0.04 -0.07 14815
0.27 0.28 0.28 -0.76 9.20 -0.00 0.04 -0.07 14822
0.29 0.28 0.29 -0.76 9.81 0.00 0.04 -0.07 14829
0.31 0.24 0.25 -0.77 9.76 0.00 0.04 -0.06 14836
0.29 0.26 0.28 -0.78 9.82 -0.00 0.05 -0.07 14843
0.29 0.23 0.26 -0.77 9.82 -0.00 0.05 -0.06 14851
0.29 0.26 0.27 -0.77 9.82 -0.00 0.04 -0.07 14858
0.30 0.24 0.26 -0.78 9.81 -0.00 0.04 -0.06 14865
0.32 0.24 0.27 -0.79 9.83 0.00 0.05 -0.06 14872
0.33 0.22 0.24 -0.80 9.77 0.00 0.05 -0.06 14879
0.32 0.21 0.26 -0.77 9.82 0.00 0.05 -0.06 14886
0.32 0.16 0.26 -0.77 9.82 0.00 0.05 -0.06 14894
0.31 0.18 0.24 -0.78 9.81 0.00 0.05 -0.06 14901
0.32 0.17 0.27 -0.78 9.81 0.01 0.05 -0.06 14908
0.33 0.17 0.27 -0.78 10.41 0.01 0.05 -0.07 14915
0.33 0.16 0.26 -0.78 9.80 0.01 0.05 -0.07 14922
0.34 0.15 0.28 -0.79 9.80 0.01 0.05 -0.07 14929
0.34 0.11 0.28 -0.79 9.81 0.01 0.06 -0.07 14937
0.34 0.15 0.30 -0.77 9.81 0.01 0.05 -0.07 14944
0.35 0.12 0.26 -0.79 9.81 0.01 0.05 -0.06 14951
0.36 0.07 0.28 -0.78 9.82 0.01 0.05 -0.07 14958
0.36 0.04 0.27 -0.82 9.80 0.01 0.05 -0.07 14965
0.36 0.04 0.30 -0.78 9.81 0.01 0.05 -0.07 14972
0.36 0.04 0.27 -0.81 9.83 0.02 0.05 -0.07 14980
0.38 0.04 0.28 -0.80 9.83 0.02 0.05 -0.07 14987
0.38 0.04 0.28 -0.81 9.81 0.02 0.05 -0.07 14994
0.42 -0.01 0.27 -0.79 9.81 0.02 0.05 -0.07 15001
0.43 0.00 0.23 -0.83 9.83 0.02 0.05 -0.07 15008
0.44 -0.03 0.27 -0.80 9.82 0.03 0.06 -0.07 15015
0.44 -0.01 0.24 -0.77 9.82 0.03 0.06 -0.04 15023
0.45 -0.02 0.27 -0.83 9.85 0.03 0.06 -0.07 15030
0.48 -0.01 0.26 -0.81 9.82 0.04 0.07 -0.07 15037
0.48 -0.02 0.23 -0.78 9.83 0.04 0.07 -0.07 15044
0.48 -0.02 0.31 -0.78 9.85 0.05 0.07 -0.07 15051
0.48 -0.03 0.27 -0.82 9.82 0.05 0.07 -0.07 15058
0.49 -0.01 0.36 -0.83 9.93 0.06 0.08 -0.07 15066
0.51 -0.02 0.40 -0.95 9.89 0.08 0.10 -0.08 15073
0.53 -0.02 0.47 -0.96 10.03 0.11 0.11 -0.09 15080
0.53 -0.03 0.62 -0.97 10.15 0.16 0.11 -0.11 15088
0.52 -0.02 1.15 -0.41 10.15 0.27 0.15 -0.17 15095
0.52 -0.03 -0.08 -0.98 11.18 0.63 0.35 -0.24 15102
0.52 -0.03 2.21 -1.01 11.50 1.17 0.46 -0.18 15110
0.51 -0.02 0.31 -0.97 10.89 1.38 0.43 -0.25 15117
0.51 -0.03 0.71 -1.18 11.07 1.33 0.35 -0.26 15124
0.48 -0.02 0.42 -1.16 11.33 1.35 0.29 -0.27 15131
0.46 -0.03 0.58 -1.33 11.21 1.44 0.25 -0.26 15138
0.44 -0.03 0.46 -1.35 10.87 1.49 0.23 -0.25 15145
0.40 -0.01 0.36 -1.61 10.18 1.50 0.27 -0.24 15153
0.40 -0.01 0.09 -1.71 9.57 1.55 0.16 -0.21 15159
0.37 -0.02 0.17 -1.73 10.64 1.53 0.08 -0.17 15167
0.32 -0.02 0.27 -1.82 10.42 1.49 0.18 -0.15 15174
0.26 -0.03 0.39 -2.38 9.94 1.47 0.20 -0.11 15180
0.18 -0.02 0.31 -2.33 10.77 1.47 0.08 -0.06 15187
0.13 -0.01 0.64 -2.38 10.87 1.49 0.33 -0.08 15196
0.07 -0.00 -0.05 -2.65 11.88 1.59 0.33 -0.05 15202
0.06 0.01 0.20 -2.64 11.56 1.73 0.42 -0.02 15209
0.08 0.01 0.66 -2.64 9.93 1.72 0.59 -0.01 15216
0.06 0.00 0.28 -3.06 9.76 1.64 0.62 0.01 15223
0.04 0.02 0.21 -3.08 10.67 1.56 0.65 0.04 15230
0.05 0.01 0.57 -3.32 10.49 1.51 0.72 0.08 15238
0.03 0.02 0.67 -4.15 10.22 1.42 0.80 0.09 15245
0.03 0.01 0.75 -3.23 9.78 1.35 0.79 0.07 15252
0.03 0.01 0.44 -3.05 9.82 1.29 0.73 0.05 15259
0.02 0.01 1.03 -3.25 10.45 1.19 0.60 0.05 15266
0.01 0.01 0.35 -2.16 9.89 1.10 0.53 0.01 15273
0.02 0.02 0.41 -1.06 10.15 0.95 0.48 -0.08 15281
0.03 0.01 -0.28 -0.15 10.95 0.72 0.40 -0.20 15288
0.02 0.01 -0.52 1.27 10.57 0.52 0.40 -0.38 15295
0.02 -0.00 -1.10 2.06 10.09 0.27 0.36 -0.64 15302
0.01 -0.00 -2.38 2.12 9.83 0.05 0.21 -1.00 15309
0.01 -0.00 -3.41 1.90 10.19 -0.14 0.04 -1.47 15316
0.01 0.00 -4.35 1.54 9.89 -0.32 -0.10 -1.98 15324
0.02 -0.00 -3.10 1.09 9.55 -0.43 -0.31 -2.54 15331
0.01 -0.00 -3.02 0.59 9.81 -0.51 -0.51 -2.89 15338
0.01 -0.00 -2.51 0.34 9.82 -0.74 -0.63 -3.24 15345
0.00 -0.00 -1.63 0.24 9.20 -0.90 -0.72 -3.53 15352
0.00 -0.00 -1.01 -0.28 8.93 -0.94 -0.82 -3.70 15360
0.00 0.00 -0.63 -1.03 8.65 -0.91 -0.89 -3.82 15367
0.00 -0.00 -0.25 -1.41 8.55 -0.82 -0.95 -3.88 15374
0.00 0.00 0.08 -1.67 8.31 -0.70 -1.03 -3.87 15381
0.00 0.00 0.27 -1.99 8.29 -0.58 -1.10 -3.81 15388
0.00 0.00 0.63 -2.13 8.49 -0.43 -1.17 -3.74 15395
0.01 -0.00 1.17 -2.26 8.82 -0.32 -1.21 -3.62 15403
0.00 0.00 1.68 -2.31 9.37 -0.19 -1.18 -3.50 15410
0.00 -0.00 2.17 -2.18 9.35 -0.11 -1.10 -3.35 15417
0.00 0.00 2.44 -2.00 9.39 -0.07 -0.99 -3.19 15424
0.00 0.00 2.60 -1.74 9.35 -0.07 -0.81 -3.03 15431
0.00 0.00 2.68 -1.60 9.20 -0.10 -0.60 -2.85 15438
0.00 0.00 2.71 -1.61 9.07 -0.15 -0.42 -2.64 15446
0.00 0.00 2.71 -1.62 8.77 -0.20 -0.24 -2.45 15453
0.00 0.00 2.30 -1.82 8.95 -0.23 -0.08 -2.22 15460
0.00 0.00 2.47 -1.83 9.06 -0.26 0.04 -2.01 15467
0.00 0.00 2.44 -1.86 9.31 -0.28 0.18 -1.76 15474
0.00 0.00 2.46 -1.73 9.78 -0.31 0.32 -1.51 15481
0.00 0.00 2.48 -1.61 10.01 -0.37 0.48 -1.27 15489
0.00 0.00 2.23 -1.56 10.00 -0.45 0.61 -1.00 15496
0.00 0.00 1.94 -1.58 10.06 -0.54 0.66 -0.76 15503
0.00 0.00 1.80 -1.82 10.57 -0.62 0.66 -0.50 15510
0.00 0.00 1.38 -2.11 10.36 -0.66 0.60 -0.26 15517
0.00 0.00 1.16 -2.22 10.07 -0.68 0.50 -0.08 15524
0.00 0.00 1.12 -2.28 9.81 -0.68 0.39 0.10 15532
0.00 0.00 1.11 -2.27 9.52 -0.66 0.32 0.23 15539
0.00 0.00 1.13 -2.23 9.33 -0.64 0.33 0.36 15546
0.00 0.00 1.01 -2.22 9.31 -0.61 0.37 0.46 15553
0.00 0.00 0.83 -2.24 9.35 -0.59 0.43 0.53 15560
0.00 0.00 0.63 -2.26 9.60 -0.56 0.47 0.59 15567
0.00 0.00 0.48 -2.29 9.68 -0.54 0.49 0.62 15575
0.00 -0.00 0.33 -2.30 9.76 -0.52 0.49 0.64 15582
0.00 0.00 0.26 -2.29 9.89 -0.52 0.49 0.65 15589
0.00 0.00 0.28 -2.39 9.91 -0.52 0.49 0.66 15596
0.00 0.00 0.27 -2.27 9.69 -0.52 0.51 0.65 15603
0.00 0.00 0.26 -2.25 9.60 -0.53 0.52 0.66 15610
0.00 0.00 0.20 -2.18 9.61 -0.54 0.50 0.66 15618
0.00 -0.00 0.31 -2.29 9.89 -0.54 0.47 0.66 15625
0.00 0.00 0.48 -2.38 10.00 -0.53 0.43 0.66 15632
0.00 0.00 0.69 -2.20 9.93 -0.52 0.40 0.65 15639
0.00 0.00 0.91 -2.11 9.91 -0.52 0.41 0.63 15646
0.00 0.00 1.04 -2.08 9.92 -0.53 0.45 0.60 15653
0.00 -0.00 1.07 -1.95 9.82 -0.54 0.56 0.55 15661
0.00 -0.00 0.91 -1.95 9.79 -0.56 0.69 0.52 15668
0.00 0.00 0.50 -2.04 9.87 -0.58 0.84 0.47 15675
0.00 0.00 0.06 -2.01 9.84 -0.58 0.93 0.45 15682
0.00 0.00 -0.52 -2.07 9.93 -0.59 1.00 0.42 15689
0.00 0.00 -1.10 -2.16 10.06 -0.58 0.99 0.39 15696
0.00 -0.00 -1.41 -2.23 10.24 -0.58 0.94 0.36 15704
0.00 -0.00 -1.61 -2.20 10.33 -0.58 0.85 0.33 15711
0.00 0.00 -1.50 -2.11 10.53 -0.59 0.77 0.29 15718
0.00 0.00 -1.20 -2.08 10.61 -0.60 0.67 0.25 15725
0.00 0.00 -0.77 -2.08 10.58 -0.62 0.62 0.20 15732
0.00 0.00 -0.36 -2.03 10.35 -0.63 0.61 0.16 15739
0.01 -0.00 -0.04 -2.11 10.20 -0.64 0.65 0.11 15747
0.00 0.00 0.11 -2.29 10.14 -0.65 0.71 0.06 15754
0.00 0.00 0.12 -2.46 10.10 -0.64 0.78 0.01 15761
0.00 0.00 -0.04 -2.62 10.08 -0.62 0.84 -0.05 15768
0.00 0.00 -0.18 -2.70 10.06 -0.60 0.88 -0.11 15775
0.00 0.00 -0.42 -2.74 9.99 -0.58 0.89 -0.15 15782
0.00 -0.00 -0.59 -2.79 9.99 -0.56 0.90 -0.21 15790
0.00 0.00 -0.76 -2.86 9.96 -0.53 0.89 -0.26 15797
0.00 0.00 -0.87 -2.91 9.90 -0.50 0.88 -0.31 15804
0.00 0.00 -0.94 -2.94 9.87 -0.48 0.89 -0.36 15811
0.00 0.00 -1.08 -2.99 9.85 -0.44 0.89 -0.39 15818
0.00 0.00 -1.10 -3.09 10.06 -0.41 0.91 -0.44 15825
0.00 0.00 -1.15 -3.12 10.03 -0.39 0.95 -0.48 15833
0.00 0.00 -1.37 -3.14 10.14 -0.39 1.01 -0.51 15840
0.00 0.00 -1.70 -3.18 10.30 -0.40 1.05 -0.55 15847
0.00 0.00 -2.00 -3.21 10.15 -0.43 1.07 -0.58 15854
0.00 0.00 -2.51 -3.26 9.83 -0.44 1.04 -0.60 15861
0.00 0.00 -2.80 -3.32 9.58 -0.43 0.98 -0.60 15868
0.00 0.00 -3.04 -3.42 9.38 -0.40 0.88 -0.60 15876
0.00 0.00 -3.10 -3.45 9.22 -0.35 0.78 -0.59 15883
0.00 0.00 -3.00 -3.37 8.99 -0.29 0.70 -0.57 15890
0.00 0.00 -2.82 -3.23 8.97 -0.24 0.66 -0.54 15897
0.00 0.00 -2.71 -3.14 8.96 -0.21 0.66 -0.49 15904
0.00 0.00 -2.78 -3.10 9.09 -0.19 0.67 -0.42 15911
0.00 0.00 -2.91 -3.08 9.15 -0.18 0.66 -0.33 15919
0.00 0.00 -10.07 -7.13 18.15 0.17 -0.28 -0.10 15926
0.00 0.00 -5.72 -2.63 6.26 0.19 -0.64 0.00 15933
0.00 0.00 -5.43 -4.22 7.67 0.24 -0.94 0.15 15940
0.00 0.00 -5.97 -6.37 8.49 0.31 -1.30 0.29 15947
0.01 -0.00 -4.52 -6.17 8.71 0.52 -1.32 0.41 15954
0.00 -0.00 -2.39 -5.63 7.86 0.97 -0.68 0.71 15962
0.00 0.00 -5.53 -9.12 8.71 1.13 -0.65 0.90 15969
0.00 0.00 -14.26 -10.32 10.37 1.37 -1.25 0.95 15977
-0.00 0.02 -11.92 -1.44 11.86 0.40 -1.76 0.29 15984
-0.00 0.03 -5.85 -5.71 19.69 -0.18 -0.02 0.02 15990
0.01 0.04 0.61 -1.37 8.21 -0.36 -0.06 -0.06 15997
-0.01 0.08 0.33 -0.60 9.83 -0.53 -0.09 -0.06 16005
0.00 0.18 0.82 -0.70 10.36 -0.27 0.03 -0.07 16012
-0.01 0.19 1.05 -0.78 10.22 -0.15 0.03 -0.07 16020
-0.01 0.28 0.63 -0.96 10.13 -0.11 -0.04 -0.06 16027
0.01 0.28 0.24 -1.08 10.06 -0.09 -0.06 -0.07 16033
0.05 0.28 0.19 -0.95 9.98 -0.07 -0.03 -0.07 16040
0.04 0.32 0.38 -0.91 9.90 -0.06 -0.00 -0.07 16048
0.02 0.31 0.43 -0.84 9.85 -0.05 0.01 -0.06 16055
0.02 0.35 0.30 -0.83 9.83 -0.04 0.03 -0.06 16062
0.03 0.35 0.39 -0.86 9.84 -0.04 0.04 -0.05 16069
0.03 0.40 0.41 -0.88 9.80 -0.04 0.04 -0.06 16076
0.03 0.38 0.44 -0.85 9.81 -0.04 0.04 -0.06 16083
0.03 0.42 0.44 -0.82 9.82 -0.04 0.04 -0.06 16091
0.03 0.46 0.47 -0.82 9.80 -0.04 0.04 -0.05 16098
0.02 0.43 0.41 -0.79 9.82 -0.04 0.03 -0.05 16105
0.03 0.46 0.43 -0.81 9.80 -0.03 0.03 -0.06 16112
0.02 0.46 0.41 -0.80 9.81 -0.03 0.03 -0.06 16119
0.02 0.48 0.42 -0.76 9.82 -0.03 0.03 -0.06 16126
0.01 0.50 0.39 -0.79 9.78 -0.03 0.03 -0.06 16134
0.01 0.54 0.43 -0.80 9.81 -0.03 0.03 -0.06 16141
0.03 0.54 0.40 -0.85 9.76 -0.02 0.03 -0.06 16148
0.04 0.53 0.41 -0.79 9.81 -0.03 0.04 -0.06 16155
0.06 0.54 0.44 -0.77 9.80 -0.03 0.04 -0.06 16162
0.04 0.53 0.42 -0.82 9.83 -0.02 0.04 -0.06 16169
0.04 0.59 0.44 -0.77 9.82 -0.02 0.03 -0.06 16177
0.04 0.63 0.43 -0.76 9.76 -0.02 0.04 -0.06 16184
0.05 0.63 0.43 -0.77 9.77 -0.02 0.04 -0.06 16191
0.06 0.63 0.41 -0.79 9.80 -0.01 0.05 -0.06 16198
0.06 0.66 0.39 -0.78 9.80 -0.01 0.05 -0.06 16205
0.06 0.65 0.38 -0.77 9.82 -0.01 0.05 -0.06 16212
0.07 0.61 0.40 -0.81 9.78 -0.00 0.05 -0.06 16220
0.05 0.60 0.42 -0.79 9.82 -0.00 0.06 -0.06 16227
0.06 0.58 0.40 -0.78 9.82 -0.00 0.06 -0.07 16234
0.05 0.60 0.42 -0.77 9.80 0.00 0.06 -0.06 16241
0.08 0.58 0.41 -0.79 9.82 0.00 0.05 -0.07 16248
0.08 0.56 0.39 -0.79 9.82 0.00 0.05 -0.07 16256
0.08 0.55 0.38 -0.79 9.81 0.00 0.06 -0.07 16263
0.07 0.54 0.43 -0.78 9.81 0.00 0.06 -0.07 16270
0.07 0.54 0.43 -0.77 9.80 0.01 0.06 -0.07 16277
0.09 0.52 0.41 -0.79 9.81 0.01 0.06 -0.07 16284
0.10 0.49 0.42 -0.83 9.79 0.01 0.06 -0.07 16291
0.10 0.45 0.42 -0.82 9.20 0.01 0.06 -0.07 16299
0.10 0.41 0.42 -0.78 9.78 0.01 0.06 -0.07 16306
0.09 0.42 0.42 -0.78 9.83 0.01 0.06 -0.07 16313
0.08 0.42 0.42 -0.77 9.81 0.01 0.07 -0.07 16320
0.10 0.40 0.43 -0.80 9.82 0.01 0.07 -0.07 16327
0.09 0.38 0.40 -0.78 9.81 0.01 0.07 -0.07 16334
0.08 0.39 0.42 -0.77 9.82 0.01 0.07 -0.07 16342
0.07 0.34 0.46 -0.77 9.82 0.00 0.07 -0.07 16349
0.07 0.33 0.47 -0.79 9.82 0.01 0.07 -0.07 16356
0.07 0.38 0.46 -0.80 9.78 0.01 0.07 -0.07 16363
0.09 0.33 0.45 -0.77 9.76 0.01 0.07 -0.04 16370
0.09 0.32 0.44 -0.78 9.81 0.01 0.07 -0.06 16377
0.09 0.32 0.42 -0.82 9.82 0.01 0.07 -0.07 16385
0.07 0.31 0.44 -0.80 10.42 0.01 0.07 -0.07 16392
0.09 0.33 0.43 -0.80 9.80 0.02 0.07 -0.07 16399
0.10 0.31 0.41 -0.79 9.81 0.02 0.06 -0.06 16406
0.10 0.31 0.42 -0.78 9.79 0.02 0.07 -0.07 16413
0.11 0.32 0.49 -0.81 9.80 0.02 0.07 -0.07 16420
0.12 0.28 0.46 -0.84 9.80 0.02 0.07 -0.07 16428
0.13 0.24 0.46 -0.85 9.80 0.02 0.07 -0.07 16435
0.15 0.22 0.46 -0.82 9.81 0.02 0.07 -0.07 16442
0.15 0.24 0.48 -0.81 9.81 0.02 0.07 -0.07 16449
0.14 0.19 0.55 -0.82 9.82 0.02 0.07 -0.07 16456
0.15 0.15 0.48 -0.83 9.82 0.02 0.07 -0.07 16463
0.18 0.13 0.48 -0.84 9.80 0.02 0.07 -0.07 16471
0.16 0.14 0.48 -0.83 9.76 0.02 0.07 -0.07 16478
0.17 0.12 0.47 -0.87 9.79 0.02 0.07 -0.07 16485
0.17 0.09 0.46 -0.83 9.78 0.02 0.07 -0.07 16492
0.20 0.06 0.45 -0.83 9.81 0.02 0.07 -0.07 16499
0.19 0.02 0.48 -0.85 9.80 0.02 0.07 -0.08 16506
0.19 0.02 0.49 -0.85 9.81 0.02 0.06 -0.07 16514
0.18 0.06 0.50 -0.87 9.21 0.02 0.07 -0.07 16521
0.19 0.04 0.52 -0.85 9.81 0.02 0.06 -0.07 16528
0.21 0.06 0.51 -0.87 9.81 0.02 0.07 -0.07 16535
0.20 0.03 0.49 -0.88 9.81 0.01 0.06 -0.07 16542
0.19 0.04 0.54 -0.86 9.63 0.01 0.06 -0.07 16549
0.19 0.01 0.52 -0.85 9.81 0.01 0.06 -0.07 16557
0.20 0.01 0.59 -0.89 9.77 0.00 0.05 -0.07 16564
0.21 0.02 0.51 -0.85 9.77 0.01 0.05 -0.07 16571
0.22 0.00 0.52 -0.84 9.79 0.01 0.05 -0.07 16578
0.21 -0.00 0.53 -0.86 9.80 0.01 0.05 -0.07 16585
0.22 -0.01 0.49 -0.90 9.82 0.01 0.05 -0.06 16592
0.21 -0.00 0.51 -0.86 9.79 0.01 0.04 -0.07 16600
0.21 0.01 0.53 -0.87 9.81 0.00 0.05 -0.07 16607
0.21 0.01 0.54 -0.90 9.78 0.01 0.04 -0.06 16614
0.22 0.00 0.51 -0.89 9.78 0.00 0.04 -0.07 16621
0.21 0.01 0.49 -0.87 9.79 0.01 0.04 -0.07 16628
0.21 0.01 0.52 -0.88 9.79 0.01 0.04 -0.07 16635
0.20 0.03 0.51 -0.85 9.82 0.00 0.03 -0.07 16643
0.21 0.03 0.51 -0.86 10.41 0.01 0.03 -0.07 16650
0.22 0.03 0.52 -0.90 9.80 0.01 0.03 -0.07 16657
0.22 0.02 0.51 -0.89 9.77 0.01 0.02 -0.07 16664
0.23 0.02 0.49 -0.86 9.80 0.01 0.02 -0.06 16671
0.23 -0.00 0.51 -0.88 9.77 0.00 0.02 -0.07 16678
0.24 0.01 0.48 -0.87 9.80 0.01 0.02 -0.07 16686
0.26 -0.00 0.47 -0.89 9.79 0.01 0.03 -0.07 16693
0.29 0.00 0.50 -0.86 9.81 0.01 0.04 -0.07 16700
0.28 -0.00 0.49 -0.91 9.81 0.01 0.04 -0.07 16707
0.28 -0.01 0.48 -0.90 9.82 0.01 0.05 -0.07 16714
0.26 -0.01 0.50 -0.86 9.83 0.02 0.05 -0.07 16721
0.28 -0.01 0.53 -0.91 9.80 0.03 0.06 -0.07 16729
0.28 -0.00 0.52 -0.87 9.83 0.03 0.06 -0.07 16736
0.31 -0.01 0.52 -0.89 9.82 0.04 0.06 -0.07 16743
0.32 -0.00 0.47 -0.90 9.84 0.04 0.07 -0.07 16750
0.34 -0.02 0.51 -0.91 9.86 0.06 0.08 -0.07 16757
0.34 -0.02 0.58 -0.95 9.88 0.07 0.10 -0.07 16764
0.34 -0.02 0.51 -0.91 9.85 0.09 0.13 -0.08 16772
0.36 -0.01 0.51 -0.97 10.00 0.12 0.17 -0.11 16780
0.38 -0.02 0.55 -0.92 9.93 0.16 0.25 -0.11 16786
0.40 -0.03 0.74 -0.76 9.96 0.26 0.34 -0.13 16793
0.40 -0.04 0.06 -1.00 10.72 0.59 0.43 -0.12 16800
0.39 -0.02 0.76 -1.08 10.98 0.90 0.47 -0.12 16807
0.39 -0.01 0.71 -1.22 10.33 1.10 0.50 -0.13 16816
0.37 -0.01 0.80 -1.20 11.97 1.11 0.36 -0.15 16823
0.38 -0.02 0.35 -1.18 11.05 1.07 0.25 -0.17 16830
0.36 -0.02 0.57 -1.39 10.79 1.08 0.20 -0.16 16836
0.35 -0.03 0.66 -1.07 9.65 1.11 0.12 -0.14 16843
0.33 -0.02 0.73 -1.74 10.57 1.12 0.11 -0.15 16851
0.29 -0.00 0.35 -1.44 10.35 1.10 0.02 -0.13 16858
0.28 0.01 0.64 -1.80 10.57 1.11 0.11 -0.13 16866
0.23 0.00 0.64 -1.87 10.68 1.18 0.08 -0.12 16872
0.19 0.01 0.73 -1.85 10.22 1.22 0.13 -0.11 16880
0.17 0.01 Í9 -2.02 9.89 1.26 0.15 -0.11 16886
15 0.01 -1.99 9.83 1.26 0.18 -0.10 16893
13 0.02 jþ2.21 10.10 1.25 0.22 -0.09 16902
Å3 0.01 jþ2.22 10.20 1.26 0.24 -0.08 16908
11 0.01  -2.43 10.10 1.27 0.29 -0.07 16915
08 0.01 jþ2.63 10.32 1.28 0.35 -0.05 16922
Á8 0.01 ojþ2.72 10.17 1.30 0.42 -0.04 16929
Á5 0.01 jþ2.82 10.05 1.30 0.48 -0.02 16936
05 0.03 -2.84 10.06 1.29 0.53 -0.01 16944
06 0.01 jþ3.07 10.46 1.28 0.60 0.01 16951
05 0.00 jþ3.38 10.52 1.27 0.68 0.04 16958
02 -0.00 &jþ3.31 10.33 1.25 0.75 0.07 16965
02 -0.00 -3.34 10.15 1.22 0.78 0.08 16972
01 -0.00 Njþ3.64 10.25 1.17 0.76 0.11 16979
0.01 -0.00 -3.69 10.42 1.11 0.67 0.13 16987
Ì2 -0.00  -3.68 10.42 1.05 0.58 0.18 16994
î1 -0.00 -3.85 11.04 0.99 0.54 0.21 17001
Ì1 -0.00 -3.27 11.10 0.95 0.56 0.21 17008
Ì1 -0.00 Ë1.79 11.11 0.84 0.58 0.14 17015
Ì2 -0.00 ÿMjþ0.74 10.04 0.67 0.49 0.08 17022
Ì2 -0.00 &þ0.25 9.18 0.52 0.34 -0.07 17030
æ2 -0.00 0.12 9.02 0.36 0.18 -0.28 17037
æ1 -0.00 0.72 9.48 0.21 -0.08 -0.61 17044
Ì0 -0.00 'þ1.22 9.88 0.12 -0.27 -1.06 17051
Ì0 -0.00 þ0.95 10.24 0.03 -0.53 -1.47 17058
Ì1 -0.00 þ0.90 10.61 -0.02 -0.72 -1.97 17065
Ì0 -0.00 0.80 10.88 -0.09 -0.91 -2.32 17073
Ì0 0.00 þ1.11 10.63 -0.26 -1.09 -2.63 17080
0.00 0.00 -1.95 1.31 10.04 -0.44 -1.21 -2.89 17087
—~þ0.00 ç6 1.01 9.63 -0.58 -1.31 -3.06 17094
00 0.00 ÷4 0.50 9.42 -0.64 -1.37 -3.17 17101
00 0.00 þ0.17 9.44 -0.66 -1.37 -3.21 17108
˜1 -0.00 7jþ0.01 9.59 -0.64 -1.34 -3.21 17116
¸0 0.00  -0.10 9.80 -0.62 -1.30 -3.17 17123
˜0 0.00 -0.14 9.90 -0.62 -1.22 -3.10 17130
¸0 0.00 jþ0.09 9.87 -0.65 -1.09 -2.99 17137
˜0 0.00  -0.10 9.79 -0.72 -0.95 -2.88 17144
00 0.00 -0.28 9.64 -0.78 -0.78 -2.75 17152
˜1 -0.00 jþ0.65 9.23 -0.82 -0.66 -2.59 17159
˜0 -0.00 'jþ0.87 8.93 -0.83 -0.54 -2.44 17166
˜1 -0.00 jþ1.12 8.70 -0.81 -0.43 -2.24 17173
Á0 0.00 -1.81 8.45 -0.75 -0.36 -2.04 17180
00 -0.00 jþ1.36 8.37 -0.68 -0.29 -1.85 17187
0.00 -0.00  -1.32 8.46 -0.61 -0.24 -1.61 17195
æ2 -0.00 3.06 -1.30 8.74 -0.55 -0.22 -1.39 17202
0.01 -0.00 2.96 -1.18 9.04 -0.49 -0.22 -1.14 17209
0.02 -0.00 2.94 -1.08 9.33 -0.44 -0.23 -0.89 17216
0.00 -0.00 3.03 -1.06 9.52 -0.42 -0.22 -0.67 17223
0.01 -0.00 3.07 -0.93 9.70 -0.41 -0.18 -0.43 17230
0.01 -0.00 3.02 -0.88 9.83 -0.43 -0.11 -0.24 17238
0.02 -0.00 2.95 -0.88 9.81 -0.47 0.00 -0.04 17245
0.01 -0.00 2.96 -0.91 9.82 -0.52 0.10 0.13 17252
0.01 -0.00 2.61 -1.06 9.93 -0.58 0.23 0.25 17259
0.00 -0.00 2.30 -1.27 10.03 -0.66 0.36 0.37 17266
0.00 -0.00 1.96 -1.41 10.09 -0.66 0.43 0.45 17273
0.01 -0.00 1.59 -1.49 10.02 -0.68 0.50 0.52 17281
0.01 -0.00 1.22 -1.48 9.98 -0.70 0.54 0.58 17288
0.01 -0.00 0.98 -1.44 9.80 -0.72 0.55 0.61 17295
0.00 0.00 0.75 -1.50 9.82 -0.72 0.54 0.64 17302
0.00 0.00 0.72 -1.64 9.80 -0.73 0.53 0.64 17309
0.00 -0.00 0.54 -1.74 9.68 -0.72 0.52 0.62 17316
0.01 -0.00 0.49 -1.88 9.65 -0.71 0.50 0.59 17324
0.00 -0.00 0.31 -2.00 9.57 -0.69 0.48 0.54 17331
0.00 -0.00 0.14 -2.05 9.49 -0.68 0.45 0.47 17338
0.00 0.00 0.08 -2.13 9.72 -0.67 0.41 0.37 17345
0.00 0.00 0.05 -2.27 9.78 -0.65 0.37 0.29 17352
0.00 0.00 0.06 -2.19 9.76 -0.63 0.35 0.21 17359
0.01 -0.00 0.31 -2.23 10.00 -0.61 0.37 0.13 17367
0.00 -0.00 0.50 -2.09 10.30 -0.61 0.42 0.06 17374
0.00 -0.00 0.62 -2.08 10.68 -0.64 0.52 -0.01 17381
0.00 0.00 0.81 -2.16 11.03 -0.71 0.60 -0.06 17388
0.00 0.00 0.77 -2.38 10.80 -0.80 0.71 -0.11 17395
0.00 -0.00 0.65 -2.54 10.59 -0.90 0.79 -0.14 17402
0.01 -0.00 0.46 -3.00 10.37 -0.97 0.82 -0.16 17410
0.00 -0.00 0.43 -3.42 10.12 -0.99 0.81 -0.15 17417
0.01 -0.00 0.44 -3.64 9.87 -0.96 0.78 -0.14 17424
0.00 0.00 0.43 -3.89 9.74 -0.92 0.75 -0.09 17431
0.00 0.00 0.51 -4.05 9.70 -0.86 0.72 -0.05 17438
0.00 -0.00 0.68 -4.11 9.70 -0.80 0.69 0.01 17445
0.00 -0.00 0.68 -4.11 9.71 -0.73 0.66 0.07 17453
0.00 -0.00 0.79 -4.09 9.72 -0.67 0.63 0.14 17460
0.01 -0.00 0.74 -4.09 9.78 -0.60 0.61 0.22 17467
0.00 0.00 0.70 -3.97 9.84 -0.54 0.61 0.31 17474
0.00 0.00 0.64 -3.76 10.06 -0.49 0.62 0.41 17481
0.01 -0.00 0.44 -3.67 10.19 -0.47 0.66 0.53 17488
0.00 0.00 0.29 -3.57 10.29 -0.46 0.69 0.65 17496
0.00 0.00 0.08 -3.66 10.30 -0.47 0.70 0.79 17503
0.00 0.00 -0.60 -3.75 10.27 -0.48 0.70 0.94 17510
0.00 0.00 -0.15 -3.84 10.30 -0.48 0.69 1.05 17517
0.01 -0.00 -0.30 -3.89 10.16 -0.47 0.66 1.15 17524
0.01 -0.00 -0.37 -3.92 9.98 -0.46 0.63 1.26 17531
0.00 -0.00 -0.42 -3.92 9.85 -0.43 0.60 1.29 17539
0.00 -0.00 -0.52 -3.96 9.79 -0.40 0.59 1.33 17546
0.00 0.00 -0.72 -3.92 9.75 -0.36 0.59 1.36 17553
0.00 -0.00 -0.84 -3.90 9.71 -0.32 0.58 1.37 17560
0.00 -0.00 -1.06 -3.85 9.68 -0.28 0.57 1.36 17567
0.01 -0.00 -1.29 -3.84 9.50 -0.24 0.56 1.35 17574
0.01 -0.00 -1.42 -3.83 9.28 -0.20 0.55 1.32 17582
0.01 -0.00 -1.34 -3.97 9.49 -0.16 0.54 1.29 17589
0.00 0.00 -1.26 -4.10 9.61 -0.14 0.54 1.23 17596
0.00 0.00 -1.11 -4.23 9.51 -0.13 0.57 1.16 17603
0.00 -0.00 -0.94 -4.34 9.47 -0.13 0.61 1.10 17610
0.01 -0.00 -0.87 -4.52 9.41 -0.13 0.66 1.03 17617
0.00 -0.00 -0.98 -4.61 9.41 -0.11 0.70 0.99 17625
0.00 -0.00 -1.30 -4.62 9.37 -0.09 0.71 0.94 17632
0.00 0.00 -1.68 -4.64 9.24 -0.06 0.69 0.92 17639
0.00 -0.00 -1.91 -4.63 9.01 -0.02 0.64 0.91 17646
