Voltage_01 Voltage_02 Acc_x Acc_y Acc_z Gyro_x Gyro_y Gyro_z Time
5000
0.03 -0.00 1.84 -3.01 9.00 -0.33 0.26 0.74 23
0.01 -0.00 1.76 -3.08 9.05 -0.33 0.26 0.77 30
0.00 0.00 1.81 -3.05 9.17 -0.32 0.25 0.79 37
0.00 0.00 1.85 -3.05 9.28 -0.32 0.24 0.81 44
0.01 0.00 1.90 -3.00 9.40 -0.32 0.27 0.83 50
0.02 -0.00 2.04 -2.99 9.45 -0.33 0.24 0.85 57
0.01 -0.00 2.05 -2.87 9.50 -0.35 0.25 0.87 64
0.00 -0.00 2.07 -2.94 9.59 -0.37 0.26 0.89 70
0.00 -0.00 2.00 -3.05 9.60 -0.38 0.30 0.90 76
0.01 -0.00 1.90 -3.09 9.56 -0.39 0.34 0.89 82
0.01 -0.00 1.79 -3.12 9.45 -0.40 0.36 0.88 89
0.02 -0.00 1.67 -3.16 9.38 -0.41 0.37 0.86 96
0.01 -0.00 1.58 -3.08 9.42 -0.40 0.38 0.82 103
0.01 -0.00 1.72 -3.02 9.56 -0.38 0.39 0.79 110
0.01 -0.00 1.89 -2.91 9.75 -0.36 0.42 0.76 117
0.00 0.00 2.07 -2.83 9.83 -0.36 0.47 0.73 124
0.02 -0.00 2.20 -2.74 9.90 -0.37 0.55 0.72 131
0.01 -0.00 2.13 -2.70 9.99 -0.39 0.65 0.70 138
0.01 -0.00 1.93 -2.82 10.12 -0.42 0.75 0.70 145
0.00 0.00 1.63 -2.95 10.10 -0.45 0.83 0.70 152
0.00 0.00 1.25 -3.03 10.18 -0.46 0.87 0.71 159
0.00 0.00 0.82 -3.10 10.09 -0.47 0.90 0.72 166
0.00 0.00 0.42 -3.11 10.01 -0.47 0.90 0.74 174
0.01 -0.00 0.12 -3.10 9.93 -0.46 0.89 0.77 181
0.00 0.00 -0.18 -3.06 9.96 -0.45 0.86 0.79 188
0.00 -0.00 -0.33 -3.00 10.06 -0.40 0.80 0.82 194
0.00 0.00 -0.39 -3.05 10.10 -0.43 0.72 0.83 201
0.00 0.00 -0.32 -3.08 10.13 -0.43 0.63 0.84 208
0.00 0.00 -0.21 -3.03 10.12 -0.42 0.58 0.83 216
0.01 -0.00 -0.06 -3.02 10.25 -0.41 0.56 0.82 223
0.01 -0.00 -0.12 -3.09 10.37 -0.41 0.58 0.80 230
0.00 -0.00 -0.20 -3.14 10.21 -0.42 0.59 0.76 237
0.00 0.00 -0.44 -3.14 10.12 -0.42 0.62 0.73 244
0.00 0.00 -0.68 -3.16 9.90 -0.41 0.65 0.68 251
0.00 0.00 -0.80 -3.24 9.82 -0.40 0.67 0.65 258
0.03 -0.00 -1.01 -3.25 9.80 -0.37 0.70 0.60 264
0.01 -0.00 -1.13 -3.13 9.87 -0.36 0.72 0.55 271
0.00 0.00 -1.30 -2.99 10.10 -0.37 0.75 0.50 278
0.00 0.00 -1.64 -2.81 10.24 -0.39 0.82 0.45 285
0.00 0.00 -1.96 -2.66 10.25 -0.46 0.88 0.44 292
0.00 -0.00 -2.34 -2.67 10.20 -0.52 0.91 0.45 300
0.01 -0.00 -2.70 -2.89 9.95 -0.57 0.85 0.46 307
0.00 -0.00 -2.84 -3.17 9.59 -0.58 0.74 0.47 314
0.00 0.00 -2.83 -3.48 9.20 -0.56 0.61 0.49 321
0.00 0.00 -2.89 -3.74 8.89 -0.51 0.53 0.51 327
0.00 0.00 -2.89 -3.97 8.64 -0.43 0.47 0.51 333
0.01 -0.00 -2.90 -4.17 8.40 -0.33 0.43 0.51 339
0.01 -0.00 -2.94 -10.30 8.14 -0.25 0.42 0.51 347
0.01 -0.00 -9.44 -5.91 7.99 0.12 -0.69 0.62 354
0.01 -0.00 -5.04 -3.77 6.71 0.13 -1.13 0.60 361
0.00 0.00 -5.99 -6.75 8.30 0.19 -1.36 0.61 368
0.00 0.00 -8.39 -9.66 9.11 0.33 -1.50 0.63 374
0.01 -0.00 -3.65 -7.80 9.37 0.63 -1.06 0.74 380
0.02 -0.00 -2.55 -4.66 7.77 0.90 -0.50 0.88 388
0.01 -0.00 -10.26 -4.32 25.45 0.45 -1.05 0.59 396
0.00 0.00 -1.67 -2.94 6.13 -0.07 0.04 -0.07 402
-0.00 0.00 0.00 -1.92 9.13 -0.14 0.04 -0.02 408
-0.00 0.01 -0.27 -0.74 9.37 -0.21 -0.01 -0.07 415
-0.00 0.03 0.65 -0.72 9.39 -0.26 -0.04 -0.06 422
0.01 0.04 0.36 -1.01 10.03 -0.31 -0.04 -0.02 430
0.01 0.05 0.59 -1.01 10.58 -0.26 -0.06 -0.02 437
0.00 0.09 0.45 -0.87 10.28 -0.19 -0.03 -0.04 444
0.00 0.11 0.39 -0.92 10.14 -0.14 -0.04 -0.06 451
0.01 0.15 0.46 -0.97 10.00 -0.12 -0.04 -0.06 458
0.03 0.19 0.45 -1.01 9.93 -0.10 -0.03 -0.06 465
0.03 0.20 0.28 -0.96 9.97 -0.09 -0.01 -0.07 473
0.04 0.18 0.23 -0.92 9.84 -0.06 0.01 -0.07 480
0.02 0.25 0.31 -0.95 9.82 -0.06 0.02 -0.07 487
0.00 0.23 0.26 -0.90 9.83 -0.05 0.04 -0.07 494
0.02 0.23 0.30 -0.91 9.83 -0.04 0.04 -0.06 501
0.05 0.24 0.36 -0.90 9.82 -0.05 0.04 -0.06 508
0.05 0.24 0.37 -0.88 9.81 -0.04 0.04 -0.06 516
0.04 0.29 0.35 -0.86 9.80 -0.04 0.04 -0.06 523
0.04 0.28 0.29 -0.83 9.76 -0.04 0.04 -0.05 530
0.04 0.32 0.31 -0.85 10.42 -0.04 0.05 -0.05 537
0.05 0.29 0.29 -0.83 9.82 -0.03 0.05 -0.05 544
0.06 0.37 0.32 -0.81 9.82 -0.03 0.06 -0.05 551
0.08 0.36 0.37 -0.83 9.81 -0.03 0.06 -0.05 559
0.04 0.33 0.36 -0.86 9.82 -0.02 0.06 -0.06 566
0.06 0.33 0.33 -0.86 9.81 -0.02 0.05 -0.06 573
0.07 0.34 0.35 -0.83 9.81 -0.02 0.05 -0.06 580
0.09 0.39 0.30 -0.87 9.82 -0.02 0.05 -0.06 587
0.12 0.38 0.36 -0.86 9.81 -0.02 0.05 -0.06 594
0.11 0.38 0.33 -0.82 9.82 -0.02 0.05 -0.06 602
0.11 0.41 0.33 -0.82 9.81 -0.01 0.05 -0.06 609
0.11 0.38 0.32 -0.79 9.81 -0.01 0.05 -0.06 616
0.10 0.38 0.33 -0.84 9.83 -0.00 0.05 -0.06 623
0.10 0.39 0.37 -0.83 9.20 -0.01 0.05 -0.06 630
0.08 0.39 0.33 -0.83 9.80 0.00 0.05 -0.06 637
0.11 0.37 0.33 -0.85 9.82 0.00 0.05 -0.06 645
0.10 0.36 0.34 -0.85 9.82 0.00 0.06 -0.06 652
0.12 0.33 0.33 -0.87 9.82 0.01 0.06 -0.06 659
0.14 0.32 0.37 -0.83 9.81 0.01 0.05 -0.06 666
0.14 0.32 0.32 -0.83 9.81 0.01 0.06 -0.06 673
0.14 0.28 0.30 -0.82 9.81 0.01 0.06 -0.06 680
0.14 0.27 0.36 -0.84 9.81 0.01 0.05 -0.06 688
0.12 0.26 0.34 -0.88 9.79 0.01 0.05 -0.06 695
0.09 0.26 0.37 -0.84 9.80 0.01 0.05 -0.07 702
0.12 0.25 0.36 -0.86 9.81 0.01 0.05 -0.06 709
0.12 0.26 0.35 -0.86 9.80 0.01 0.06 -0.07 716
0.12 0.24 0.33 -0.87 9.81 0.01 0.05 -0.06 723
0.13 0.21 0.36 -0.82 9.78 0.01 0.06 -0.06 731
0.12 0.21 0.36 -0.83 9.80 0.01 0.05 -0.06 738
0.11 0.21 0.34 -0.86 9.80 0.01 0.06 -0.06 745
0.13 0.18 0.35 -0.86 9.78 0.01 0.06 -0.06 752
0.15 0.17 0.34 -0.88 9.77 0.00 0.06 -0.06 759
0.16 0.18 0.36 -0.85 9.78 0.00 0.05 -0.06 766
0.17 0.17 0.37 -0.85 9.79 0.00 0.06 -0.07 774
0.17 0.15 0.40 -0.88 9.81 0.01 0.05 -0.06 781
0.16 0.17 0.36 -0.87 9.81 0.00 0.05 -0.06 788
0.17 0.14 0.35 -0.85 10.39 0.00 0.05 -0.06 795
0.18 0.11 0.36 -0.87 9.82 0.00 0.05 -0.07 802
0.19 0.09 0.36 -0.87 9.75 0.01 0.05 -0.06 809
0.19 0.11 0.34 -0.89 9.81 0.01 0.05 -0.07 817
0.18 0.14 0.39 -0.88 9.81 0.01 0.05 -0.06 824
0.18 0.15 0.36 -0.86 9.82 0.01 0.05 -0.07 831
0.18 0.14 0.37 -0.87 9.80 0.01 0.05 -0.06 838
0.21 0.09 0.34 -0.89 9.79 0.01 0.05 -0.06 845
0.21 0.07 0.39 -0.90 9.82 0.01 0.05 -0.07 852
0.23 0.01 0.40 -0.88 9.81 0.01 0.05 -0.07 860
0.24 0.02 0.40 -0.85 9.81 0.01 0.05 -0.07 867
0.25 0.01 0.37 -0.90 9.81 0.01 0.05 -0.06 874
0.24 0.02 0.38 -0.90 9.78 0.01 0.05 -0.06 881
0.24 -0.00 0.37 -0.86 10.42 0.01 0.05 -0.06 888
0.23 0.01 0.39 -0.89 9.79 0.01 0.05 -0.06 896
0.23 -0.01 0.36 -0.87 9.82 0.00 0.05 -0.06 903
0.23 0.00 0.38 -0.89 9.80 0.00 0.05 -0.07 910
0.24 0.01 0.36 -0.91 9.82 -0.00 0.05 -0.06 917
0.24 0.02 0.40 -0.89 9.20 0.00 0.04 -0.06 924
0.24 0.01 0.37 -0.88 9.82 0.00 0.04 -0.06 931
0.24 -0.00 0.37 -0.91 9.79 -0.00 0.04 -0.07 939
0.24 -0.01 0.34 -0.91 9.81 -0.00 0.04 -0.06 946
0.23 0.00 0.38 -0.91 9.82 0.00 0.04 -0.06 953
0.24 0.00 0.39 -0.89 9.77 -0.00 0.03 -0.06 960
0.26 0.01 0.39 -0.89 9.80 0.00 0.03 -0.06 967
0.25 -0.00 0.36 -0.90 9.81 0.00 0.00 -0.06 974
0.26 -0.01 0.39 -0.88 9.80 0.00 0.03 -0.06 982
0.25 -0.02 0.39 -0.88 9.80 0.00 0.03 -0.06 989
0.27 -0.02 0.39 -0.93 9.76 -0.00 0.03 -0.06 996
0.27 0.00 0.40 -0.91 9.79 -0.00 0.03 -0.06 1003
0.28 -0.02 0.34 -0.88 9.82 0.00 0.03 -0.06 1010
0.27 -0.01 0.35 -0.89 9.20 -0.00 0.03 -0.06 1017
0.27 -0.01 0.37 -0.87 9.80 0.03 0.04 -0.06 1025
0.27 -0.01 0.35 -0.92 9.77 -0.00 0.04 -0.06 1032
0.28 0.00 0.35 -0.91 9.80 -0.00 0.04 -0.06 1039
0.28 0.01 0.35 -0.88 9.81 0.00 0.04 -0.06 1046
0.30 -0.00 0.37 -0.88 9.81 -0.00 0.04 -0.06 1053
0.30 0.00 0.39 -0.89 9.80 0.00 0.04 -0.06 1060
0.30 -0.02 0.37 -0.89 9.80 0.00 0.04 -0.06 1068
0.30 -0.01 0.35 -0.86 9.79 0.01 0.04 -0.06 1075
0.31 -0.01 0.41 -0.91 9.81 0.00 0.04 -0.06 1082
0.33 -0.01 0.38 -0.88 9.81 0.01 0.04 -0.06 1089
0.35 -0.02 0.37 -0.91 9.82 0.01 0.04 -0.06 1096
0.35 -0.02 0.36 -0.91 9.82 0.01 0.05 -0.06 1103
0.37 -0.03 0.36 -0.90 9.82 0.02 0.05 -0.06 1111
0.36 -0.03 0.37 -0.92 9.82 0.02 0.05 -0.06 1118
0.38 -0.01 0.36 -0.87 9.82 0.03 0.06 -0.06 1125
0.39 -0.02 0.37 -0.90 9.82 0.03 0.06 -0.06 1132
0.41 -0.01 0.38 -0.95 9.82 0.03 0.06 -0.06 1139
0.39 -0.02 0.40 -0.93 9.83 0.04 0.06 -0.06 1146
0.38 -0.02 0.43 -0.93 9.86 0.05 0.07 -0.07 1154
0.37 -0.02 0.39 -0.86 9.88 0.06 0.08 -0.07 1161
0.39 -0.02 0.34 -0.90 9.83 0.08 0.09 -0.08 1168
0.41 -0.02 0.49 -0.95 9.90 0.10 0.12 -0.08 1175
0.42 -0.02 0.45 -1.02 9.90 0.12 0.14 -0.10 1182
0.41 -0.02 0.54 -0.95 10.06 0.18 0.22 -0.12 1189
0.41 -0.03 0.58 -0.82 10.58 0.30 0.31 -0.14 1198
0.41 -0.03 0.56 -0.97 10.59 0.74 0.40 -0.12 1205
0.43 -0.02 0.61 -1.17 10.91 1.01 0.43 -0.14 1212
0.44 -0.02 0.51 -0.65 11.14 1.07 0.45 -0.15 1219
0.42 -0.00 0.39 -1.28 11.11 1.02 0.27 -0.15 1226
0.41 -0.02 0.41 -1.29 10.91 1.02 0.23 -0.15 1233
0.39 -0.01 0.38 -1.46 10.83 1.07 0.20 -0.14 1241
0.38 -0.01 0.37 -1.50 10.68 1.12 0.15 -0.13 1248
0.36 0.00 0.33 -1.64 10.72 1.19 0.13 -0.11 1255
0.33 -0.00 0.41 -1.68 10.95 1.26 0.15 -0.10 1262
0.28 -0.00 0.43 -1.70 10.58 1.33 0.16 -0.09 1268
0.23 -0.01 0.21 -2.02 10.48 1.39 0.17 -0.08 1276
0.21 -0.00 1.14 -1.76 11.69 1.40 0.18 -0.07 1284
0.18 -0.00 0.42 -2.14 11.34 1.38 0.20 -0.07 1290
0.14 -0.00 0.31 -2.21 11.03 1.48 0.32 -0.07 1297
0.16 -0.00 0.34 -2.30 10.63 1.58 0.38 -0.05 1304
0.11 -0.01 0.51 -2.48 10.34 1.60 0.45 -0.03 1311
0.09 -0.01 0.34 -2.71 10.39 1.59 0.52 -0.01 1318
0.06 -0.01 0.21 -3.00 10.66 1.57 0.56 0.03 1326
0.06 -0.01 0.33 -3.06 10.54 1.55 0.63 0.05 1333
0.08 -0.01 0.61 -3.16 10.49 1.52 0.75 0.08 1340
0.08 -0.01 0.26 -3.26 9.99 1.47 0.82 0.11 1347
0.06 -0.01 0.20 -3.40 10.29 1.40 0.87 0.16 1354
0.03 -0.00 -0.17 -3.46 10.12 1.35 0.87 0.20 1361
0.03 -0.00 -0.79 -3.85 10.15 1.29 0.75 0.24 1369
0.04 -0.00 -0.70 -3.99 10.59 1.22 0.58 0.31 1376
0.04 -0.00 -0.70 -4.21 11.63 1.10 0.46 0.37 1383
0.03 -0.00 -0.68 -3.52 12.73 0.93 0.33 0.43 1390
0.02 -0.00 -0.30 -1.48 13.27 0.73 0.29 0.42 1397
0.02 -0.00 -1.05 0.33 12.49 0.43 0.39 0.30 1404
0.00 0.00 -2.54 1.26 10.20 0.22 0.41 -0.01 1412
0.01 -0.00 -5.19 1.17 9.27 0.01 0.33 -0.58 1419
0.03 -0.00 -6.79 0.86 9.46 -0.14 0.12 -1.26 1426
0.01 -0.00 -5.02 0.84 8.45 -0.18 -0.25 -1.89 1433
0.00 -0.00 -5.82 1.00 12.23 -0.36 -0.62 -2.20 1440
0.00 0.00 -4.65 1.33 11.02 -0.76 -0.90 -2.56 1447
0.00 -0.00 -2.94 1.10 9.90 -0.97 -1.17 -2.85 1455
0.01 -0.00 -1.74 0.10 9.67 -1.10 -1.38 -3.03 1462
0.01 -0.00 -0.63 -0.88 9.46 -1.12 -1.48 -3.19 1469
0.00 -0.00 0.12 -1.52 8.90 -1.03 -1.52 -3.28 1476
0.00 0.00 0.54 -2.00 8.44 -0.88 -1.54 -3.31 1483
0.00 0.00 0.65 -2.31 8.04 -0.72 -1.58 -3.26 1490
0.01 -0.00 0.59 -2.54 7.95 -0.51 -1.69 -3.18 1498
0.01 -0.00 0.68 -2.74 8.17 -0.28 -1.85 -3.05 1505
0.01 -0.00 0.88 -2.86 8.51 -0.08 -2.01 -2.90 1512
0.00 -0.00 1.34 -2.93 9.11 0.15 -2.13 -2.70 1519
0.00 -0.00 2.11 -2.81 9.68 0.33 -2.14 -2.49 1526
0.00 0.00 3.07 -2.56 9.81 0.49 -2.04 -2.32 1533
0.01 -0.00 3.66 -2.02 9.39 0.57 -1.80 -2.12 1541
0.00 -0.00 4.12 -1.54 8.77 0.60 -1.51 -1.92 1548
0.00 -0.00 3.87 -0.87 8.93 0.56 -1.09 -1.77 1555
0.00 0.00 4.26 -0.96 8.78 0.50 -0.64 -1.57 1562
0.00 -0.00 3.76 -1.01 8.91 0.42 -0.30 -1.40 1569
0.00 -0.00 3.29 -0.98 9.12 0.32 0.02 -1.20 1576
0.01 -0.00 2.85 -0.97 9.49 0.22 0.20 -1.01 1584
0.01 -0.00 2.35 -1.18 9.70 0.09 0.34 -0.85 1591
0.00 -0.00 1.92 -1.36 9.84 -0.01 0.38 -0.67 1598
0.00 0.00 1.57 -1.46 9.63 -0.15 0.39 -0.51 1605
0.00 0.00 1.31 -1.65 9.83 -0.24 0.32 -0.32 1612
0.01 -0.00 1.12 -1.79 9.73 -0.31 0.22 -0.16 1619
0.01 -0.00 1.14 -1.84 9.75 -0.37 0.08 -0.02 1627
0.02 -0.00 1.24 -1.83 9.54 -0.41 -0.06 0.12 1634
0.01 -0.00 1.38 -1.81 9.41 -0.46 -0.15 0.24 1641
0.00 -0.00 1.67 -1.82 9.30 -0.52 -0.22 0.35 1648
0.00 0.00 1.88 -1.94 9.13 -0.57 -0.23 0.44 1655
0.00 -0.00 2.05 -2.07 9.02 -0.63 -0.20 0.50 1662
0.01 -0.00 2.12 -2.27 8.91 -0.67 -0.13 0.55 1670
0.01 -0.00 2.18 -3.05 8.76 -0.70 -0.05 0.57 1677
0.00 -0.00 2.19 -2.72 8.79 -0.69 0.06 0.58 1684
0.00 -0.00 2.21 -2.94 8.81 -0.68 0.19 0.57 1691
0.00 0.00 2.12 -2.98 8.83 -0.65 0.29 0.55 1698
0.00 -0.00 1.86 -2.92 8.73 -0.63 0.36 0.52 1705
0.01 -0.00 1.67 -2.89 8.80 -0.61 0.37 0.48 1713
0.01 -0.00 1.53 -2.98 8.99 -0.61 0.35 0.45 1720
0.01 -0.00 1.64 -3.08 9.36 -0.61 0.34 0.42 1727
0.00 -0.00 1.79 -3.20 9.51 -0.59 0.36 0.40 1734
0.00 -0.00 2.02 -3.29 9.64 -0.57 0.42 0.38 1741
0.01 -0.00 2.06 -3.35 9.66 -0.56 0.53 0.36 1748
0.02 -0.00 2.00 -3.29 9.59 -0.59 0.60 0.35 1756
0.01 -0.00 1.89 -3.36 9.79 -0.66 0.71 0.34 1763
0.01 -0.00 1.83 -3.46 9.93 -0.69 0.78 0.33 1770
0.00 -0.00 1.65 -3.68 9.88 -0.74 0.86 0.32 1777
0.00 0.00 1.50 -3.76 9.96 -0.78 0.90 0.31 1784
0.00 -0.00 1.42 -3.80 9.92 -0.81 0.90 0.31 1792
0.01 -0.00 1.44 -3.80 9.89 -0.82 0.89 0.32 1799
0.00 -0.00 1.54 -3.78 9.88 -0.82 0.88 0.34 1806
0.00 0.00 1.70 -3.77 9.87 -0.81 0.88 0.36 1813
0.00 0.00 1.84 -3.84 9.82 -0.80 0.91 0.38 1820
0.00 0.00 1.91 -3.83 9.79 -0.77 0.95 0.41 1827
0.00 -0.00 1.80 -3.93 9.81 -0.75 1.00 0.45 1835
0.01 -0.00 1.72 -4.00 9.88 -0.72 1.06 0.50 1842
0.00 -0.00 1.50 -4.12 9.96 -0.70 1.13 0.54 1849
0.00 0.00 1.18 -4.29 10.18 -0.68 1.18 0.60 1856
0.00 0.00 0.81 -4.45 10.35 -0.67 1.19 0.65 1863
0.00 -0.00 0.44 -4.59 10.38 -0.66 1.17 0.71 1870
0.00 -0.00 0.24 -4.63 10.48 -0.67 1.11 0.77 1878
0.01 -0.00 -0.03 -4.68 10.55 -0.68 1.10 0.83 1885
0.00 -0.00 -0.23 -4.78 10.64 -0.70 1.08 0.91 1892
0.00 0.00 -0.27 -4.86 10.74 -0.72 1.08 0.97 1899
0.00 0.00 -0.26 -5.11 10.82 -0.76 1.07 1.03 1906
0.00 -0.00 -0.17 -5.30 10.84 -0.79 1.08 1.07 1913
0.00 -0.00 -0.23 -5.50 10.66 -0.82 1.11 1.09 1921
0.01 -0.00 -0.54 -5.60 10.28 -0.84 1.14 1.12 1928
0.00 0.00 -0.77 -5.61 9.82 -0.81 1.13 1.14 1935
0.00 0.00 -1.14 -5.59 9.54 -0.75 1.08 1.16 1942
0.00 0.00 -1.36 -5.42 9.23 -0.66 0.98 1.20 1949
0.00 -0.00 -1.66 -5.30 9.16 -0.52 0.89 1.23 1956
0.01 -0.00 -1.87 -5.02 9.24 -0.38 0.76 1.28 1964
0.00 -0.00 -1.91 -4.81 9.49 -0.29 0.66 1.32 1971
0.00 -0.00 -1.95 -4.63 9.88 -0.22 0.58 1.36 1978
0.00 0.00 -2.04 -4.55 10.38 -0.22 0.52 1.40 1985
0.00 -0.00 -2.12 -4.51 10.82 -0.27 0.49 1.43 1992
0.00 -0.00 -2.19 -4.53 10.83 -0.36 0.48 1.44 1999
0.00 -0.00 -2.28 -4.53 10.37 -0.45 0.48 1.45 2007
0.00 -0.00 -2.45 -4.53 9.81 -0.53 0.48 1.45 2014
0.00 0.00 -2.69 -4.56 9.15 -0.54 0.47 1.45 2021
0.00 0.00 -2.92 -4.61 8.50 -0.48 0.44 1.43 2028
0.00 0.00 -3.10 -4.62 8.13 -0.35 0.38 1.40 2035
0.00 0.00 -12.80 -6.88 14.43 0.12 -0.80 1.50 2042
0.01 -0.00 -6.50 -3.90 5.66 0.23 -0.99 1.50 2050
0.01 -0.00 -6.03 -4.29 7.37 0.34 -1.28 1.46 2057
0.01 -0.00 -6.45 -6.63 8.19 0.44 -1.52 1.41 2064
0.00 0.00 -6.70 -7.17 9.66 0.68 -1.47 1.38 2071
0.01 -0.00 -2.11 -3.67 10.21 1.05 -0.82 1.51 2078
0.01 -0.00 -7.92 -4.69 9.41 1.14 -0.77 1.58 2085
0.01 -0.00 -6.48 -3.16 10.74 1.25 -0.78 1.43 2093
0.00 -0.00 -16.67 -4.58 14.49 0.32 -1.10 0.46 2100
-0.00 0.00 -3.27 -3.74 10.42 -0.08 0.08 -0.03 2107
-0.00 0.01 -0.09 -0.94 10.48 -0.24 0.08 -0.10 2114
-0.00 0.03 0.11 -0.74 9.77 -0.31 0.00 -0.09 2121
-0.00 0.05 0.82 -0.89 10.69 -0.28 0.00 -0.08 2128
-0.01 0.10 1.03 -1.12 10.28 -0.17 0.05 -0.05 2136
-0.02 0.18 0.73 -1.06 10.28 -0.12 0.06 -0.02 2143
-0.01 0.22 0.28 -0.80 10.14 -0.11 0.06 -0.03 2150
-0.01 0.23 0.35 -0.83 10.06 -0.08 0.04 -0.05 2157
0.00 0.27 0.56 -0.96 9.91 -0.07 0.03 -0.05 2164
-0.01 0.27 0.46 -0.88 9.87 -0.06 0.02 -0.05 2171
-0.01 0.28 0.32 -0.89 9.82 -0.05 0.02 -0.05 2179
-0.01 0.31 0.32 -0.84 9.75 -0.05 0.03 -0.05 2186
0.00 0.27 0.41 -0.89 9.75 -0.05 0.02 -0.06 2193
-0.01 0.31 0.37 -0.87 9.79 -0.06 0.02 -0.06 2200
0.01 0.35 0.40 -0.83 9.80 -0.07 0.02 -0.06 2207
0.03 0.30 0.38 -0.84 9.80 -0.07 0.02 -0.06 2214
0.01 0.34 0.34 -0.78 9.81 -0.07 0.03 -0.06 2222
0.01 0.31 0.36 -0.82 9.80 -0.07 0.03 -0.06 2229
0.02 0.39 0.35 -0.79 9.82 -0.06 0.03 -0.06 2236
0.04 0.37 0.31 -0.79 9.83 -0.06 0.05 -0.05 2243
0.01 0.44 0.32 -0.77 9.80 -0.05 0.05 -0.05 2250
0.01 0.53 0.32 -0.80 9.85 -0.04 0.06 -0.05 2257
0.01 0.48 0.34 -0.77 9.82 -0.04 0.06 -0.05 2265
-0.01 0.49 0.43 -0.82 9.84 -0.03 0.06 -0.05 2272
-0.02 0.51 0.38 -0.80 9.85 -0.02 0.06 -0.05 2279
-0.00 0.51 0.39 -0.80 9.82 -0.02 0.06 -0.05 2286
-0.01 0.54 0.36 -0.76 9.79 -0.02 0.05 -0.05 2293
0.00 0.52 0.38 -0.78 9.83 -0.01 0.05 -0.05 2300
-0.01 0.51 0.38 -0.77 9.79 -0.01 0.04 -0.06 2308
0.00 0.47 0.40 -0.74 9.82 -0.00 0.04 -0.05 2315
-0.00 0.47 0.38 -0.77 9.82 -0.00 0.04 -0.06 2322
0.01 0.49 0.33 -0.79 9.81 -0.00 0.04 -0.06 2329
0.02 0.48 0.35 -0.78 9.82 0.00 0.05 -0.06 2336
0.02 0.48 0.34 -0.78 9.81 0.00 0.05 -0.06 2343
0.02 0.44 0.38 -0.77 9.80 0.01 0.05 -0.06 2351
0.01 0.43 0.34 -0.75 9.82 0.01 0.05 -0.06 2358
0.02 0.44 0.37 -0.79 9.21 0.01 0.05 -0.06 2365
0.04 0.45 0.36 -0.79 9.81 0.02 0.05 -0.06 2372
0.03 0.43 0.37 -0.76 9.81 0.02 0.05 -0.06 2379
0.05 0.39 0.36 -0.81 9.80 0.02 0.05 -0.06 2386
0.04 0.38 0.40 -0.80 9.80 0.01 0.05 -0.06 2394
0.03 0.35 0.35 -0.78 9.79 0.01 0.05 -0.06 2401
0.02 0.35 0.38 -0.77 9.79 0.02 0.05 -0.06 2408
0.04 0.33 0.37 -0.77 9.81 0.02 0.05 -0.06 2415
0.07 0.34 0.37 -0.80 9.79 0.01 0.05 -0.06 2422
0.08 0.33 0.32 -0.78 9.80 0.01 0.05 -0.06 2429
0.08 0.30 0.36 -0.77 9.79 0.01 0.05 -0.06 2437
0.07 0.29 0.35 -0.81 9.80 0.01 0.05 -0.06 2444
0.08 0.27 0.34 -0.80 9.77 0.01 0.05 -0.06 2451
0.11 0.29 0.37 -0.83 9.79 0.01 0.04 -0.06 2458
0.11 0.28 0.37 -0.81 9.80 0.00 0.04 -0.06 2465
0.09 0.27 0.37 -0.82 9.75 0.00 0.04 -0.06 2472
0.10 0.28 0.36 -0.83 9.80 0.01 0.04 -0.06 2480
0.09 0.27 0.39 -0.82 9.76 0.01 0.04 -0.06 2487
0.10 0.28 0.39 -0.83 10.41 0.00 0.04 -0.05 2494
0.10 0.29 0.39 -0.79 9.79 0.01 0.04 -0.06 2501
0.12 0.25 0.38 -0.78 9.82 0.00 0.03 -0.06 2508
0.11 0.29 0.35 -0.77 9.80 0.01 0.03 -0.06 2515
0.11 0.22 0.37 -0.79 9.78 0.01 0.02 -0.06 2523
0.10 0.24 0.35 -0.81 9.79 0.01 0.03 -0.06 2530
0.12 0.24 0.37 -0.81 9.80 0.00 0.02 -0.06 2537
0.13 0.24 0.36 -0.83 9.79 0.01 0.02 -0.06 2544
0.13 0.24 0.37 -0.81 9.77 0.00 0.02 -0.06 2551
0.13 0.22 0.34 -0.83 9.79 0.00 0.02 -0.06 2558
0.14 0.21 0.35 -0.82 9.78 -0.00 0.02 -0.06 2566
0.14 0.23 0.38 -0.83 9.81 0.00 0.02 -0.06 2573
0.14 0.25 0.33 -0.84 9.76 -0.00 0.02 -0.06 2580
0.17 0.26 0.35 -0.81 9.80 -0.00 0.02 -0.06 2587
0.17 0.23 0.33 -0.81 9.81 0.00 0.02 -0.06 2594
0.16 0.23 0.38 -0.83 9.80 0.00 0.02 -0.06 2601
0.16 0.21 0.35 -0.81 9.81 0.00 0.02 -0.06 2609
0.17 0.21 0.30 -0.85 9.80 0.00 0.02 -0.06 2616
0.16 0.21 0.33 -0.82 9.79 -0.00 0.02 -0.06 2623
0.18 0.21 0.34 -0.81 9.77 0.00 0.03 -0.07 2630
0.19 0.16 0.31 -0.80 9.82 0.00 0.03 -0.06 2637
0.19 0.15 0.32 -0.83 9.80 0.00 0.03 -0.06 2644
0.20 0.14 0.36 -0.83 9.81 0.00 0.03 -0.06 2652
0.21 0.12 0.33 -0.83 9.77 -0.00 0.03 -0.06 2659
0.21 0.14 0.34 -0.78 9.80 0.00 0.03 -0.06 2666
0.21 0.10 0.33 -0.83 9.79 0.01 0.03 -0.06 2673
0.20 0.11 0.33 -0.85 9.80 0.01 0.03 -0.06 2680
0.21 0.11 0.33 -0.82 9.81 0.01 0.03 -0.07 2688
0.20 0.10 0.32 -0.83 9.81 0.00 0.03 -0.06 2695
0.22 0.06 0.31 -0.86 9.78 0.01 0.03 -0.06 2702
0.22 0.07 0.32 -0.81 9.81 0.01 0.03 -0.06 2709
0.25 0.05 0.32 -0.84 9.78 0.00 0.03 -0.06 2716
0.25 0.04 0.33 -0.83 9.80 0.01 0.03 -0.06 2723
0.26 0.02 0.35 -0.82 9.82 0.01 0.03 -0.07 2731
0.25 0.04 0.34 -0.85 9.80 0.01 0.03 -0.06 2738
0.24 0.02 0.35 -0.84 9.77 0.01 0.03 -0.06 2745
0.26 0.03 0.34 -0.82 9.20 0.01 0.03 -0.06 2752
0.26 -0.00 0.31 -0.86 9.79 0.01 0.03 -0.06 2759
0.26 0.00 0.30 -0.84 9.81 0.01 0.03 -0.06 2766
0.26 0.01 0.32 -0.84 9.79 0.01 0.03 -0.06 2774
0.28 0.00 0.32 -0.85 9.81 0.01 0.03 -0.06 2781
0.29 0.00 0.30 -0.89 9.79 0.01 0.03 -0.06 2788
0.32 -0.00 0.29 -0.85 9.81 0.01 0.03 -0.06 2795
0.33 -0.00 0.31 -0.85 9.81 0.01 0.03 -0.06 2802
0.33 -0.01 0.33 -0.85 9.80 0.01 0.03 -0.06 2809
0.33 -0.02 0.36 -0.84 9.79 0.01 0.03 -0.06 2817
0.33 -0.01 0.34 -0.87 9.78 0.02 0.03 -0.06 2824
0.35 0.00 0.30 -0.83 9.80 0.02 0.03 -0.07 2831
0.39 -0.02 0.29 -0.84 9.81 0.03 0.03 -0.06 2838
0.39 -0.03 0.33 -0.89 9.83 0.03 0.04 -0.06 2845
0.38 -0.03 0.35 -0.87 9.83 0.04 0.04 -0.06 2852
0.41 -0.02 0.27 -0.89 9.83 0.05 0.04 -0.06 2860
0.43 -0.01 0.36 -0.87 9.82 0.06 0.04 -0.06 2867
0.46 -0.01 0.32 -0.91 9.84 0.06 0.04 -0.06 2874
0.45 -0.02 0.34 -0.91 9.85 0.07 0.04 -0.07 2881
0.47 -0.02 0.35 -0.97 9.82 0.08 0.04 -0.07 2888
0.51 -0.04 0.37 -0.92 9.89 0.10 0.05 -0.08 2895
0.52 -0.02 0.43 -1.06 9.88 0.12 0.05 -0.09 2903
0.53 -0.02 0.38 -1.04 9.94 0.17 0.04 -0.10 2910
0.55 -0.02 0.58 -1.04 10.21 0.25 0.05 -0.13 2917
0.57 -0.02 0.42 -1.08 10.21 0.47 0.09 -0.15 2924
0.57 -0.03 0.31 -1.01 10.49 0.64 0.12 -0.17 2932
0.56 -0.04 0.63 -1.15 11.63 0.86 0.13 -0.16 2939
0.56 -0.03 0.72 -1.22 10.80 0.90 0.06 -0.19 2946
0.59 -0.02 0.46 -1.39 10.82 0.90 0.05 -0.23 2953
0.60 -0.03 0.42 -1.37 10.50 0.96 0.03 -0.20 2960
0.60 -0.02 0.50 -1.38 10.72 1.02 0.03 -0.21 2967
0.60 -0.02 0.27 -1.50 9.96 1.06 0.04 -0.21 2974
0.59 -0.02 0.30 -1.51 10.34 1.08 0.05 -0.20 2981
0.58 -0.01 0.30 -1.55 10.41 1.11 0.07 -0.18 2990
0.58 -0.01 0.33 -1.74 10.16 1.13 0.09 -0.18 2997
0.56 -0.01 0.08 -1.70 9.78 1.13 0.10 -0.17 3003
0.51 -0.01 0.12 -1.90 9.60 1.11 0.08 -0.16 3010
0.47 -0.01 0.17 -1.94 10.05 1.08 0.09 -0.14 3017
0.42 -0.01 0.10 -2.04 10.05 1.09 0.12 -0.13 3024
0.38 -0.01 0.17 -2.14 9.95 1.13 0.12 -0.10 3032
0.38 0.00 0.35 -2.26 9.70 1.15 0.16 -0.09 3039
0.32 -0.00 0.17 -2.33 9.89 1.17 0.20 -0.08 3046
0.28 -0.00 -0.26 -2.49 10.33 1.17 0.20 -0.05 3053
0.27 -0.02 0.31 -2.52 9.81 1.18 0.29 -0.03 3060
0.21 -0.01 0.26 -2.77 9.44 1.18 0.28 -0.00 3067
0.17 -0.01 0.24 -2.76 10.05 1.23 0.42 0.01 3075
0.14 -0.01 0.13 -2.85 10.07 1.25 0.48 0.03 3082
0.17 -0.02 0.24 -3.10 10.03 1.29 0.53 0.05 3089
0.12 -0.01 0.28 -3.21 10.08 1.28 0.61 0.08 3096
0.11 -0.01 -0.04 -3.31 9.84 1.26 0.66 0.11 3103
0.07 -0.01 0.04 -3.44 10.23 1.30 0.72 0.15 3110
0.06 -0.01 0.19 -3.61 10.25 1.28 0.79 0.17 3118
0.07 -0.01 0.24 -3.75 10.51 1.27 0.87 0.21 3125
0.08 -0.01 0.25 -3.86 10.45 1.27 0.96 0.24 3132
0.08 -0.01 0.11 -4.13 10.23 1.25 1.00 0.27 3139
0.03 -0.00 0.00 -4.18 10.09 1.22 1.03 0.32 3146
0.03 -0.00 -0.31 -4.42 10.06 1.17 0.99 0.36 3153
0.02 0.00 -0.35 -4.51 10.40 1.13 0.86 0.41 3161
0.02 -0.00 -0.15 -4.56 10.85 1.08 0.71 0.48 3168
0.02 -0.00 0.06 -4.73 11.20 1.01 0.57 0.53 3175
0.02 -0.00 0.31 -4.77 11.25 0.87 0.43 0.58 3182
0.02 -0.00 1.08 -4.42 11.12 0.73 0.40 0.60 3189
0.03 -0.00 1.67 -3.80 10.63 0.55 0.50 0.57 3196
0.03 -0.00 1.54 -2.10 9.82 0.45 0.56 0.48 3204
0.04 -0.00 0.54 -0.86 9.31 0.32 0.55 0.33 3211
0.03 -0.00 -1.42 -0.14 8.82 0.14 0.50 -0.02 3218
0.03 -0.00 -2.69 -0.63 8.54 -0.02 0.39 -0.58 3225
0.01 -0.00 -4.61 -0.71 9.82 -0.11 0.27 -1.10 3232
0.02 -0.00 -5.59 -0.98 10.25 -0.13 0.09 -1.76 3239
0.00 -0.00 -4.79 -1.03 10.61 -0.15 -0.17 -2.27 3247
0.02 -0.00 -4.96 -0.43 11.05 -0.31 -0.52 -2.59 3254
0.01 -0.00 -3.96 0.15 10.03 -0.54 -0.84 -2.91 3261
0.01 -0.00 -3.24 -0.03 9.15 -0.73 -1.18 -3.11 3268
0.00 0.00 -2.60 -0.69 8.64 -0.81 -1.49 -3.29 3275
0.01 -0.00 -1.98 -1.21 8.77 -0.79 -1.69 -3.42 3282
0.01 -0.00 -1.37 -1.58 8.71 -0.66 -1.89 -3.49 3290
0.01 -0.00 -0.80 -1.77 8.86 -0.51 -2.07 -3.52 3297
0.01 -0.00 -0.03 -1.79 9.46 -0.33 -2.17 -3.52 3304
0.01 -0.00 1.31 -1.47 10.04 -0.21 -2.20 -3.46 3311
0.00 0.00 2.53 -0.84 10.02 -0.17 -2.09 -3.36 3318
0.00 -0.00 3.81 -0.70 10.37 -0.20 -1.79 -3.26 3325
0.01 -0.00 4.76 -0.45 9.75 -0.27 -1.37 -3.13 3333
0.01 -0.00 5.20 -0.21 9.01 -0.42 -0.93 -2.98 3340
0.00 -0.00 5.24 -0.31 8.50 -0.56 -0.38 -2.86 3347
0.00 -0.00 5.03 -0.61 8.38 -0.67 0.11 -2.69 3354
0.00 0.00 4.50 -0.88 8.75 -0.75 0.40 -2.53 3361
0.00 0.00 3.60 -1.25 9.03 -0.77 0.58 -2.33 3368
0.01 -0.00 2.89 -1.54 8.99 -0.77 0.61 -2.11 3376
0.00 -0.00 2.40 -1.88 8.82 -0.73 0.50 -1.91 3383
0.00 -0.00 2.08 -2.18 8.62 -0.69 0.27 -1.69 3390
0.00 0.00 1.98 -2.26 8.51 -0.64 0.04 -1.51 3397
0.00 -0.00 1.93 -2.36 8.60 -0.54 -0.22 -1.30 3404
0.00 -0.00 2.00 -2.53 8.63 -0.49 -0.41 -1.10 3411
0.01 -0.00 2.04 -2.56 8.66 -0.40 -0.60 -0.94 3419
0.00 -0.00 2.23 -2.50 8.98 -0.34 -0.71 -0.75 3426
0.01 -0.00 2.58 -2.42 9.54 -0.30 -0.72 -0.59 3433
0.00 0.00 3.01 -2.31 9.97 -0.32 -0.62 -0.40 3440
0.01 -0.00 3.47 -2.16 10.14 -0.39 -0.46 -0.22 3447
0.01 -0.00 3.81 -2.03 10.05 -0.51 -0.21 -0.07 3454
0.01 -0.00 3.79 -1.91 9.73 -0.64 0.10 0.09 3462
0.00 -0.00 3.62 -2.00 9.74 -0.77 0.35 0.24 3469
0.01 -0.00 3.09 -2.35 9.68 -0.85 0.57 0.39 3476
0.00 0.00 2.69 -2.82 9.65 -0.86 0.70 0.52 3483
0.01 -0.00 2.21 -3.06 9.65 -0.82 0.77 0.61 3490
0.01 -0.00 1.67 -3.03 9.28 -0.78 0.77 0.71 3497
0.01 -0.00 1.37 -3.01 9.34 -0.72 0.73 0.78 3505
0.00 0.00 1.12 -3.13 9.41 -0.68 0.65 0.84 3512
0.00 0.00 1.02 -3.15 9.43 -0.65 0.58 0.87 3519
0.00 0.00 1.12 -3.23 9.74 -0.61 0.53 0.89 3526
0.01 -0.00 1.19 -3.31 9.80 -0.57 0.54 0.89 3533
0.01 -0.00 1.27 -3.18 9.55 -0.53 0.57 0.87 3540
0.01 -0.00 1.29 -2.97 9.21 -0.51 0.64 0.83 3548
0.00 -0.00 1.13 -3.03 9.45 -0.50 0.72 0.79 3555
0.01 -0.00 1.02 -3.12 9.96 -0.49 0.78 0.75 3562
0.00 -0.00 0.85 -3.15 10.15 -0.51 0.85 0.70 3569
0.01 -0.00 0.67 -3.03 10.41 -0.53 0.90 0.66 3576
0.01 -0.00 0.53 -3.07 10.54 -0.58 0.96 0.63 3584
0.01 -0.00 0.39 -3.06 10.64 -0.64 1.02 0.62 3591
0.00 -0.00 0.29 -3.14 10.60 -0.71 1.05 0.63 3598
0.00 0.00 0.10 -3.35 10.53 -0.77 1.04 0.66 3605
0.00 0.00 0.61 -3.52 10.45 -0.80 0.99 0.70 3612
0.00 0.00 0.07 -3.80 10.34 -0.80 0.88 0.73 3619
0.01 -0.00 0.22 -4.08 10.10 -0.78 0.75 0.77 3627
0.01 -0.00 0.47 -4.89 9.93 -0.74 0.64 0.79 3634
0.00 -0.00 0.78 -4.44 9.82 -0.69 0.54 0.80 3641
0.00 0.00 1.07 -4.53 9.71 -0.64 0.47 0.80 3648
0.00 -0.00 1.36 -4.55 9.60 -0.60 0.51 0.80 3655
0.01 -0.00 1.61 -4.54 9.63 -0.55 0.55 0.80 3662
0.01 -0.00 1.79 -4.40 9.54 -0.51 0.62 0.79 3670
0.01 -0.00 1.75 -4.25 9.59 -0.47 0.72 0.78 3677
0.00 -0.00 1.65 -4.12 9.61 -0.45 0.82 0.76 3684
0.00 0.00 1.51 -4.10 9.73 -0.43 0.89 0.75 3691
0.00 -0.00 1.25 -4.02 9.87 -0.41 0.97 0.73 3698
0.00 -0.00 1.01 -3.99 10.22 -0.40 1.03 0.70 3705
0.00 -0.00 0.79 -3.85 10.43 -0.41 1.09 0.68 3713
0.00 -0.00 0.45 -3.66 10.49 -0.44 1.18 0.66 3720
0.01 -0.00 0.01 -3.53 10.33 -0.49 1.25 0.66 3727
0.00 0.00 -0.69 -3.41 10.28 -0.53 1.35 0.69 3734
0.00 0.00 -1.30 -3.47 10.14 -0.56 1.39 0.75 3741
0.01 -0.00 -1.94 -3.64 10.19 -0.58 1.34 0.80 3748
0.00 -0.00 -2.32 -4.06 10.18 -0.58 1.19 0.87 3756
0.01 -0.00 -2.40 -4.33 9.99 -0.56 1.00 0.93 3763
0.00 -0.00 -2.27 -4.51 9.82 -0.52 0.75 0.97 3770
0.00 0.00 -1.80 -4.65 9.57 -0.47 0.57 1.00 3777
0.00 -0.00 -1.27 -4.81 9.47 -0.43 0.43 1.02 3784
0.02 -0.00 -0.75 -4.92 9.58 -0.41 0.41 1.01 3791
0.01 -0.00 -0.44 -5.04 9.52 -0.41 0.46 0.99 3799
0.00 -0.00 -9.12 -10.08 19.65 -0.11 -0.53 1.03 3806
0.00 0.00 -3.60 -5.02 6.46 -0.14 -0.86 1.09 3813
0.00 0.00 -4.28 -5.61 6.93 -0.18 -1.03 1.12 3820
0.01 -0.00 -5.26 -7.95 8.34 -0.17 -1.38 1.23 3827
0.01 -0.00 -3.99 -8.07 8.64 -0.12 -1.44 1.30 3834
0.01 -0.00 -1.22 -17.73 7.89 0.00 -1.41 1.34 3842
0.00 -0.00 -0.85 -14.63 2.11 0.44 -0.19 1.86 3849
0.00 0.00 0.33 -11.48 5.66 0.64 0.04 2.16 3856
0.01 -0.00 -10.22 -7.02 9.45 0.81 -0.47 2.45 3863
0.01 0.01 -14.72 -4.51 22.47 0.79 -0.93 2.49 3871
0.02 0.00 -11.35 -4.17 9.37 0.25 -0.90 2.00 3877
0.01 0.01 -10.32 -5.23 11.36 0.12 -0.65 1.36 3886
0.01 0.00 -12.44 -3.75 12.04 -0.04 -0.33 0.45 3893
-0.00 0.02 -1.39 -1.06 10.61 -0.19 -0.03 -0.14 3899
0.00 0.03 -0.04 -0.74 9.93 -0.25 -0.02 -0.14 3906
0.01 0.03 1.01 -0.94 9.99 -0.26 -0.03 -0.15 3913
0.01 0.04 1.06 -0.80 9.68 -0.13 0.04 -0.08 3920
0.01 0.04 0.93 -0.82 9.81 -0.09 0.08 -0.02 3928
-0.00 0.03 0.49 -0.75 9.96 -0.06 0.07 -0.01 3935
-0.00 0.05 0.34 -0.86 10.02 -0.04 0.05 -0.04 3942
-0.01 0.06 0.39 -0.99 9.89 -0.04 -0.00 -0.06 3949
0.00 0.04 0.57 -0.95 9.81 -0.04 -0.04 -0.06 3956
0.04 0.04 0.49 -0.90 9.87 -0.03 -0.05 -0.06 3963
0.04 0.04 0.24 -0.81 9.83 -0.03 -0.05 -0.08 3971
0.02 0.05 0.32 -0.90 9.78 -0.04 -0.03 -0.08 3978
0.02 0.08 0.31 -0.87 9.80 -0.05 -0.02 -0.08 3985
0.03 0.09 0.28 -0.86 9.77 -0.05 -0.01 -0.08 3992
0.07 0.12 0.28 -0.81 9.75 -0.05 0.01 -0.07 3999
0.04 0.14 0.30 -0.82 9.21 -0.05 0.01 -0.07 4006
0.06 0.18 0.28 -0.80 9.81 -0.05 0.02 -0.07 4014
0.04 0.18 0.25 -0.85 9.81 -0.04 0.03 -0.07 4021
0.08 0.20 0.28 -0.79 9.81 -0.04 0.04 -0.06 4028
0.09 0.21 0.29 -0.81 9.78 -0.03 0.05 -0.06 4035
0.11 0.19 0.28 -0.82 9.80 -0.03 0.05 -0.06 4042
0.09 0.23 0.31 -0.82 9.83 -0.03 0.06 -0.05 4049
0.10 0.22 0.33 -0.79 9.78 -0.03 0.06 -0.05 4057
0.09 0.17 0.39 -0.82 9.82 -0.03 0.06 -0.05 4064
0.10 0.20 0.39 -0.80 9.83 -0.04 0.05 -0.05 4071
0.11 0.22 0.40 -0.80 9.81 -0.03 0.05 -0.05 4078
0.11 0.26 0.32 -0.80 9.81 -0.03 0.05 -0.05 4085
0.11 0.26 0.34 -0.78 9.83 -0.03 0.05 -0.06 4092
0.10 0.27 0.34 -0.79 9.82 -0.02 0.05 -0.05 4100
0.07 0.27 0.33 -0.81 9.81 -0.02 0.04 -0.05 4107
0.07 0.31 0.33 -0.76 9.82 -0.02 0.04 -0.05 4114
0.12 0.33 0.31 -0.78 9.79 -0.02 0.04 -0.06 4121
0.12 0.32 0.37 -0.74 9.81 -0.01 0.04 -0.05 4128
0.13 0.30 0.32 -0.80 9.81 -0.01 0.05 -0.06 4135
0.14 0.28 0.34 -0.79 9.80 -0.01 0.05 -0.05 4143
0.13 0.28 0.32 -0.78 9.84 -0.00 0.05 -0.06 4150
0.15 0.30 0.35 -0.78 9.83 0.00 0.04 -0.06 4157
0.15 0.30 0.35 -0.77 9.82 0.00 0.04 -0.06 4164
0.14 0.29 0.37 -0.78 9.81 0.01 0.03 -0.07 4171
0.14 0.27 0.33 -0.79 9.81 0.01 0.03 -0.06 4178
0.13 0.25 0.32 -0.77 9.81 0.02 0.03 -0.06 4186
0.14 0.26 0.34 -0.78 9.81 0.02 0.03 -0.06 4193
0.16 0.25 0.34 -0.76 9.80 0.02 0.03 -0.07 4200
0.19 0.25 0.32 -0.78 9.80 0.02 0.03 -0.06 4207
0.19 0.26 0.31 -0.78 9.82 0.02 0.03 -0.06 4214
0.20 0.21 0.36 -0.80 9.82 0.02 0.03 -0.07 4221
0.19 0.21 0.30 -0.80 10.41 0.02 0.03 -0.06 4229
0.23 0.16 0.34 -0.79 9.77 0.02 0.03 -0.07 4236
0.22 0.21 0.30 -0.80 9.81 0.02 0.03 -0.06 4243
0.28 0.14 0.32 -0.79 9.80 0.01 0.03 -0.07 4250
0.29 0.14 0.31 -0.82 9.81 0.01 0.03 -0.07 4257
0.30 0.07 0.30 -0.79 9.77 0.01 0.03 -0.07 4264
0.28 0.09 0.34 -0.80 9.80 0.01 0.03 -0.07 4272
0.32 0.07 0.34 -0.80 9.78 0.01 0.03 -0.06 4279
0.33 0.06 0.28 -0.83 9.80 0.01 0.03 -0.06 4286
0.34 0.05 0.34 -0.83 9.81 0.01 0.03 -0.07 4293
0.34 0.04 0.30 -0.80 9.79 0.01 0.03 -0.06 4300
0.35 0.04 0.31 -0.80 9.81 0.01 0.03 -0.06 4307
0.35 0.04 0.29 -0.83 9.82 0.01 0.03 -0.07 4315
0.36 0.04 0.33 -0.82 10.42 0.01 0.03 -0.07 4322
0.40 0.04 0.32 -0.85 9.80 0.00 0.03 -0.07 4329
0.40 0.01 0.30 -0.84 9.79 0.00 0.03 -0.07 4336
0.37 0.01 0.31 -0.80 9.80 0.00 0.03 -0.06 4343
0.38 0.01 0.28 -0.86 9.81 0.00 0.03 -0.06 4350
0.38 0.02 0.30 -0.84 9.78 0.00 0.03 -0.06 4358
0.39 0.02 0.31 -0.81 9.81 0.00 0.03 -0.06 4365
0.42 0.02 0.29 -0.82 9.82 0.00 0.03 -0.07 4372
0.42 -0.00 0.30 -0.80 9.80 0.00 0.03 -0.06 4379
0.42 -0.01 0.29 -0.85 9.81 0.01 0.04 -0.06 4386
0.42 -0.01 0.30 -0.85 9.81 0.01 0.03 -0.06 4393
0.42 -0.01 0.29 -0.86 9.82 0.00 0.04 -0.06 4401
0.43 -0.00 0.31 -0.84 9.77 0.00 0.04 -0.07 4408
0.44 -0.00 0.34 -0.86 9.81 0.00 0.04 -0.06 4415
0.43 -0.01 0.31 -0.84 9.81 -0.00 0.04 -0.06 4422
0.43 -0.02 0.32 -0.80 9.81 -0.00 0.04 -0.06 4429
0.42 -0.01 0.30 -0.84 9.81 -0.00 0.04 -0.06 4436
0.44 -0.01 0.30 -0.86 9.82 -0.00 0.04 -0.06 4444
0.45 -0.01 0.29 -0.84 9.81 -0.00 0.04 -0.06 4451
0.46 -0.02 0.28 -0.83 9.76 -0.01 0.04 -0.06 4458
0.45 -0.02 0.29 -0.72 9.81 -0.01 0.04 -0.06 4465
0.44 -0.01 0.34 -0.83 9.82 -0.00 0.03 -0.07 4472
0.43 0.00 0.31 -0.85 9.80 -0.00 0.04 -0.07 4480
0.43 0.01 0.33 -0.87 9.79 -0.01 0.04 -0.07 4487
0.44 0.02 0.33 -0.86 9.80 -0.01 0.04 -0.07 4494
0.43 0.01 0.31 -0.83 9.79 -0.01 0.04 -0.07 4501
0.43 0.01 0.29 -0.83 9.78 -0.00 0.04 -0.07 4508
0.43 -0.01 0.29 -0.82 9.81 -0.01 0.04 -0.06 4515
0.43 0.00 0.27 -0.81 9.80 -0.00 0.05 -0.07 4523
0.44 0.01 0.31 -0.85 9.82 -0.01 0.04 -0.07 4530
0.44 0.00 0.30 -0.87 9.82 -0.00 0.05 -0.07 4537
0.43 0.01 0.31 -0.82 9.81 -0.00 0.05 -0.06 4544
0.44 -0.00 0.31 -0.84 9.80 -0.03 0.05 -0.07 4551
0.44 -0.01 0.33 -0.83 9.81 0.01 0.05 -0.06 4558
0.43 -0.00 0.29 -0.82 9.81 0.00 0.05 -0.07 4566
0.44 -0.01 0.30 -0.85 9.81 0.01 0.05 -0.07 4573
0.46 -0.01 0.29 -0.82 9.82 0.01 0.06 -0.07 4580
0.46 -0.02 0.30 -0.84 9.83 0.02 0.06 -0.07 4587
0.47 -0.03 0.36 -0.95 9.81 0.03 0.06 -0.07 4594
0.46 -0.01 0.26 -0.88 9.83 0.03 0.07 -0.07 4601
0.46 -0.01 0.39 -0.86 9.83 0.04 0.07 -0.06 4609
0.47 -0.01 0.34 -0.85 9.83 0.06 0.08 -0.06 4616
0.50 -0.02 0.38 -0.98 9.91 0.08 0.08 -0.07 4623
0.50 -0.04 0.53 -0.88 9.95 0.10 0.09 -0.07 4630
0.51 -0.04 0.25 -0.87 10.00 0.13 0.10 -0.08 4637
0.51 -0.03 0.31 -0.80 10.15 0.17 0.11 -0.11 4645
0.52 -0.03 0.99 -0.93 9.93 0.29 0.11 -0.17 4652
0.53 -0.01 1.05 -0.52 11.18 0.53 0.18 -0.23 4660
0.55 -0.03 0.07 -0.97 12.10 0.93 0.22 -0.16 4666
0.54 -0.03 0.60 -0.98 12.15 1.20 0.11 -0.19 4673
0.54 -0.03 0.34 -1.00 11.23 1.21 0.12 -0.20 4680
0.53 -0.03 0.28 -0.64 11.09 1.21 0.14 -0.20 4688
0.51 -0.03 0.39 -1.21 11.18 1.27 0.12 -0.19 4696
0.48 -0.02 0.11 -1.42 10.98 1.33 0.16 -0.19 4703
0.47 -0.03 0.37 -1.51 10.10 1.37 0.17 -0.18 4710
0.44 -0.02 0.36 -1.57 9.65 1.39 0.09 -0.18 4716
0.38 -0.03 0.15 -1.79 10.65 1.38 0.05 -0.16 4724
0.34 -0.02 0.18 -1.95 9.85 1.38 0.07 -0.14 4730
0.32 0.00 0.12 -2.00 10.36 1.41 0.11 -0.10 4738
0.26 -0.01 -0.02 -2.09 10.29 1.44 0.15 -0.07 4746
0.19 0.00 0.27 -1.85 9.66 1.45 0.19 -0.03 4752
0.18 -0.00 0.56 -2.58 9.32 1.38 0.11 0.03 4759
0.19 -0.00 0.52 -2.60 10.42 1.36 0.39 0.03 4766
0.09 0.00 -0.32 -2.77 11.76 1.43 0.45 0.04 4773
0.08 0.02 -0.28 -2.84 11.03 1.54 0.56 0.13 4781
0.10 0.00 -0.11 -3.05 10.39 1.53 0.73 0.14 4788
0.10 0.00 -1.06 -3.27 10.22 1.47 0.84 0.19 4795
0.07 -0.00 -0.84 -3.35 10.22 1.38 0.89 0.26 4803
0.04 0.01 -0.95 -3.58 10.33 1.27 0.90 0.35 4809
0.03 0.01 -2.34 -3.96 10.44 1.22 0.88 0.46 4817
0.03 0.01 -3.02 -3.89 10.37 1.17 0.64 0.54 4825
0.04 0.01 -3.06 -3.63 10.83 1.11 0.29 0.69 4832
0.02 0.01 -2.83 -3.15 11.48 0.98 -0.05 0.81 4838
0.02 -0.00 -2.20 -2.17 11.60 0.82 -0.31 0.89 4845
0.01 0.01 -1.67 0.36 11.65 0.72 -0.40 0.85 4852
0.02 0.01 -1.25 1.27 11.37 0.52 -0.40 0.74 4859
0.02 0.01 -1.56 1.74 10.27 0.33 -0.25 0.47 4867
0.01 -0.00 -2.52 2.17 9.78 0.12 -0.19 0.08 4874
0.00 0.00 -4.23 2.38 9.25 -0.06 -0.17 -0.54 4881
0.00 0.00 -3.38 1.80 8.68 -0.11 -0.27 -1.10 4888
0.00 0.00 -4.13 1.83 10.99 -0.31 -0.44 -1.46 4895
0.00 0.00 -3.28 1.97 10.50 -0.59 -0.58 -1.86 4902
0.01 -0.00 -2.74 1.36 9.51 -0.82 -0.76 -2.14 4910
0.01 -0.00 -2.14 0.12 9.18 -0.93 -0.93 -2.39 4917
0.00 0.00 -1.44 -0.89 9.05 -0.92 -1.01 -2.59 4924
0.01 -0.00 -0.73 -1.46 8.64 -0.82 -1.07 -2.72 4931
0.00 -0.00 -0.36 -1.88 8.20 -0.70 -1.07 -2.81 4938
0.00 -0.00 -0.17 -2.15 7.88 -0.52 -1.04 -2.86 4945
0.01 -0.00 -0.09 -2.37 7.94 -0.33 -1.01 -2.88 4953
0.00 -0.00 -0.05 -2.60 8.03 -0.15 -0.99 -2.84 4960
0.01 -0.00 -0.01 -2.69 8.24 0.04 -0.95 -2.78 4967
0.00 0.00 -0.07 -2.67 9.15 0.18 -0.91 -2.67 4974
0.00 0.00 0.38 -2.37 9.20 0.31 -0.88 -2.56 4981
0.01 -0.00 0.65 -2.02 9.58 0.40 -0.85 -2.42 4988
0.02 -0.00 0.82 -1.85 9.64 0.44 -0.80 -2.27 4996
0.01 -0.00 1.03 -1.69 9.54 0.45 -0.72 -2.13 5003
0.01 -0.00 1.30 -1.65 9.55 0.44 -0.59 -1.96 5010
0.00 0.00 1.32 -1.70 9.48 0.41 -0.47 -1.83 5017
0.00 -0.00 1.22 -1.88 9.56 0.37 -0.31 -1.68 5024
0.01 0.00 1.13 -2.03 9.24 0.34 -0.17 -1.53 5031
0.01 -0.00 1.01 -2.16 9.17 0.31 -0.07 -1.41 5039
0.00 0.00 0.88 -2.28 9.20 0.27 0.05 -1.28 5046
0.00 -0.00 0.75 -2.41 9.32 0.25 0.14 -1.14 5053
0.00 0.00 0.51 -2.53 9.41 0.22 0.23 -1.02 5060
0.00 -0.00 0.31 -2.67 9.56 0.19 0.30 -0.88 5067
0.01 -0.00 0.19 -2.78 9.59 0.15 0.32 -0.77 5074
0.02 -0.00 0.11 -2.81 9.52 0.12 0.31 -0.63 5082
0.02 -0.00 0.18 -2.96 9.51 0.09 0.27 -0.50 5089
0.01 -0.00 0.11 -3.06 9.53 0.07 0.17 -0.39 5096
0.00 -0.00 0.20 -3.19 9.48 0.04 0.04 -0.27 5103
0.01 -0.00 0.26 -3.25 9.35 0.02 -0.08 -0.14 5110
0.02 -0.00 0.38 -3.21 9.47 -0.02 -0.22 -0.04 5117
0.02 -0.00 0.56 -3.21 9.30 -0.07 -0.34 0.09 5125
0.01 -0.00 -0.11 -4.78 9.43 -0.10 -0.43 0.19 5132
0.01 -0.00 0.73 -4.69 11.42 -0.16 -0.35 0.32 5139
0.01 -0.00 0.98 -4.16 10.68 -0.26 -0.41 0.39 5146
0.01 -0.00 0.71 -4.55 9.47 -0.29 -0.37 0.42 5153
0.03 -0.00 1.11 -4.64 8.47 -0.33 -0.32 0.45 5160
0.02 -0.00 0.89 -4.73 7.81 -0.35 -0.29 0.48 5168
0.02 -0.00 0.81 -4.83 7.80 -0.39 -0.31 0.50 5175
0.01 -0.00 1.15 -4.78 8.19 -0.40 -0.36 0.50 5182
0.01 -0.00 0.43 -5.33 8.56 -0.40 -0.39 0.48 5189
0.02 -0.00 0.66 -5.30 8.77 -0.41 -0.37 0.45 5196
0.03 -0.00 0.44 -5.23 9.07 -0.40 -0.33 0.37 5203
0.02 -0.00 0.51 -5.06 8.68 -0.41 -0.25 0.36 5211
0.02 -0.00 0.71 -4.33 8.07 -0.43 -0.11 0.31 5218
0.00 0.00 0.58 -4.06 7.87 -0.46 -0.00 0.29 5225
0.02 -0.00 0.13 -4.14 7.76 -0.48 0.13 0.29 5232
0.01 -0.00 0.04 -4.36 8.47 -0.50 0.19 0.30 5239
0.02 -0.00 -0.17 -4.46 9.18 -0.52 0.20 0.30 5246
0.02 -0.00 -0.33 -4.46 9.64 -0.55 0.15 0.31 5254
0.02 -0.00 0.26 -3.90 9.46 -0.61 0.05 0.31 5261
0.00 -0.00 1.30 -2.86 9.29 -0.70 -0.05 0.36 5268
0.01 -0.00 1.44 -2.75 8.57 -0.78 -0.08 0.45 5275
0.01 -0.00 2.11 -2.92 9.12 -0.86 -0.10 0.54 5282
0.01 -0.00 2.72 -3.08 8.38 -0.87 -0.09 0.67 5289
0.01 -0.00 3.04 -3.32 8.59 -0.86 -0.02 0.78 5297
0.01 -0.00 2.87 -3.39 8.80 -0.82 0.08 0.85 5304
0.00 0.00 2.15 -3.87 8.94 -0.80 0.20 0.88 5311
0.00 -0.00 1.27 -3.77 8.95 -0.77 0.33 0.84 5318
0.02 -0.00 1.14 -3.64 9.96 -0.77 0.43 0.75 5325
0.01 -0.00 1.48 -3.32 10.80 -0.78 0.49 0.61 5332
0.00 -0.00 1.57 -2.85 9.92 -0.83 0.55 0.54 5340
0.00 0.00 2.41 -2.43 10.23 -0.87 0.59 0.50 5347
0.00 0.00 3.01 -2.04 9.18 -0.90 0.65 0.51 5354
0.01 -0.00 2.87 -2.67 9.23 -0.87 0.74 0.59 5361
0.02 -0.00 2.60 -3.10 10.05 -0.89 0.86 0.65 5368
0.01 -0.00 2.93 -2.90 10.03 -0.89 0.99 0.69 5376
0.01 -0.00 2.54 -2.84 9.87 -0.88 1.06 0.71 5383
0.00 0.00 2.09 -2.82 9.75 -0.85 1.10 0.72 5390
0.01 -0.00 1.78 -2.79 9.75 -0.81 1.14 0.71 5397
0.01 -0.00 1.31 -2.67 9.81 -0.78 1.15 0.70 5404
0.01 -0.00 0.71 -2.59 9.90 -0.73 1.20 0.70 5411
0.01 -0.00 0.20 -2.43 10.45 -0.70 1.28 0.70 5419
0.00 -0.00 -0.07 -2.30 11.04 -0.72 1.31 0.69 5426
0.00 0.00 -0.63 -2.40 11.31 -0.79 1.31 0.64 5433
0.00 -0.00 -0.78 -2.36 11.36 -0.88 1.27 0.59 5440
0.01 -0.00 -1.12 -2.45 11.16 -0.97 1.18 0.52 5447
0.02 -0.00 -1.14 -2.60 10.63 -1.01 1.08 0.44 5454
0.01 -0.00 -1.17 -2.74 10.15 -0.98 0.99 0.36 5462
0.00 0.00 -0.97 -2.83 9.86 -0.89 0.87 0.25 5469
0.00 0.00 -0.73 -2.88 9.57 -0.80 0.79 0.13 5476
0.01 -0.00 -0.33 -2.84 9.65 -0.69 0.71 0.02 5483
0.01 -0.00 -0.02 -2.68 9.72 -0.61 0.70 -0.10 5490
0.01 -0.00 0.04 -2.54 9.97 -0.57 0.79 -0.20 5497
0.01 -0.00 -0.00 -2.43 10.29 -0.56 0.96 -0.27 5505
0.00 -0.00 -0.29 -2.49 10.54 -0.58 1.12 -0.33 5512
0.00 -0.00 -0.60 -2.51 10.48 -0.59 1.23 -0.36 5519
0.01 -0.00 -1.06 -2.62 10.31 -0.59 1.28 -0.35 5526
0.01 -0.00 -1.33 -2.77 9.90 -0.57 1.26 -0.30 5533
0.01 -0.00 -1.52 -2.80 9.73 -0.52 1.16 -0.23 5540
0.01 -0.00 -10.88 -6.49 12.38 -0.13 -0.29 -0.02 5549
0.00 0.00 -1.92 -3.13 4.43 -0.12 -0.57 0.16 5555
0.00 0.00 -4.52 -3.53 8.67 -0.08 -0.96 0.33 5562
0.00 0.00 -13.81 -15.74 6.66 -0.03 -1.20 0.67 5569
0.02 -0.00 8.92 -6.49 -2.94 0.34 -0.40 1.09 5576
0.01 -0.00 1.42 -5.10 3.23 0.46 -0.16 1.31 5583
0.00 -0.00 -4.16 -7.72 9.98 0.45 -0.03 1.51 5591
0.00 0.00 -6.99 -8.37 17.17 0.48 -0.35 1.85 5598
0.00 0.00 -16.53 -8.80 10.07 0.30 -0.93 2.02 5605
0.01 0.01 -14.29 -8.11 11.44 0.41 -1.25 2.28 5613
0.01 -0.00 -7.16 -7.32 9.69 0.12 -0.60 2.22 5619
0.00 0.00 -9.13 -4.62 6.70 -0.12 -0.18 1.65 5626
0.00 0.00 -10.07 -5.69 9.52 -0.22 0.35 1.13 5634
0.00 0.00 -9.44 -4.72 10.80 -0.27 0.47 0.28 5641
-0.00 0.01 0.02 0.16 11.95 -0.21 0.28 -0.10 5648
0.00 0.02 0.09 -0.30 9.64 -0.14 0.01 -0.08 5655
0.01 0.02 0.66 -0.61 9.55 -0.13 -0.04 -0.04 5662
0.01 0.02 0.78 -0.80 10.26 -0.15 -0.02 -0.02 5669
0.01 0.01 0.58 -0.76 9.82 -0.11 0.06 0.00 5677
-0.00 0.04 0.25 -0.65 9.81 -0.09 0.08 -0.00 5684
0.00 0.02 0.34 -0.73 9.89 -0.08 0.08 -0.03 5691
0.02 0.03 0.54 -0.78 9.83 -0.07 0.05 -0.05 5698
0.02 0.03 0.64 -0.90 9.88 -0.05 0.01 -0.05 5705
0.03 0.04 0.43 -0.91 9.92 -0.03 -0.02 -0.06 5712
0.06 0.03 0.34 -0.80 9.83 -0.03 -0.04 -0.07 5720
0.01 0.04 0.29 -0.83 9.81 -0.03 -0.03 -0.08 5727
0.03 0.04 0.30 -0.81 9.82 -0.03 -0.03 -0.08 5734
0.07 0.04 0.30 -0.86 9.64 -0.03 -0.03 -0.08 5741
0.09 0.04 0.27 -0.83 9.80 -0.03 -0.02 -0.08 5748
0.07 0.04 0.21 -0.80 9.78 -0.03 -0.01 -0.08 5755
0.07 0.04 0.26 -0.77 9.81 -0.03 -0.01 -0.07 5763
0.08 0.04 0.22 -0.72 9.82 -0.07 -0.00 -0.07 5770
0.12 0.04 0.16 -0.73 9.80 -0.03 0.01 -0.07 5777
0.14 0.04 0.17 -0.72 9.79 -0.03 0.02 -0.06 5784
0.15 0.04 0.23 -0.78 9.79 -0.02 0.03 -0.06 5791
0.13 0.04 0.19 -0.75 10.42 -0.02 0.04 -0.06 5798
0.15 0.05 0.30 -0.77 9.84 -0.02 0.04 -0.06 5806
0.17 0.06 0.26 -0.76 9.78 -0.02 0.04 -0.06 5813
0.20 0.05 0.31 -0.78 9.82 -0.03 0.04 -0.06 5820
0.21 0.04 0.32 -0.79 9.77 -0.03 0.04 -0.06 5827
0.22 0.03 0.26 -0.78 10.41 -0.03 0.04 -0.06 5834
0.21 0.05 0.28 -0.78 9.79 -0.04 0.04 -0.06 5841
0.20 0.07 0.26 -0.77 9.81 -0.04 0.04 -0.06 5849
0.22 0.07 0.26 -0.75 9.82 -0.04 0.04 -0.05 5856
0.25 0.09 0.24 -0.71 9.82 -0.04 0.05 -0.05 5863
0.25 0.07 0.25 -0.72 9.81 -0.03 0.05 -0.05 5870
0.27 0.12 0.24 -0.70 9.81 -0.02 0.05 -0.05 5877
0.27 0.09 0.23 -0.72 9.84 -0.02 0.06 -0.05 5884
0.28 0.09 0.25 -0.75 9.83 -0.01 0.06 -0.05 5892
0.28 0.11 0.27 -0.72 9.82 -0.01 0.06 -0.05 5899
0.31 0.09 0.30 -0.72 9.82 -0.01 0.06 -0.05 5906
0.30 0.10 0.28 -0.72 9.83 -0.00 0.05 -0.05 5913
0.31 0.11 0.27 -0.72 9.81 -0.00 0.05 -0.05 5920
0.32 0.09 0.26 -0.74 9.82 0.00 0.05 -0.05 5927
0.32 0.10 0.27 -0.75 9.82 0.00 0.05 -0.05 5935
0.34 0.12 0.27 -0.74 9.81 0.01 0.05 -0.05 5942
0.35 0.11 0.26 -0.73 9.84 0.01 0.05 -0.05 5949
0.35 0.11 0.29 -0.74 9.81 0.01 0.05 -0.05 5956
0.34 0.09 0.26 -0.72 9.81 0.01 0.05 -0.05 5963
0.34 0.06 0.25 -0.72 9.82 0.01 0.05 -0.06 5970
0.35 0.05 0.27 -0.76 9.80 0.02 0.05 -0.05 5978
0.35 0.05 0.26 -0.76 9.83 0.02 0.05 -0.06 5985
0.37 0.03 0.24 -0.75 9.82 0.02 0.05 -0.05 5992
0.36 0.03 0.25 -0.74 9.81 0.02 0.05 -0.05 5999
0.35 0.00 0.26 -0.72 9.81 0.02 0.05 -0.05 6006
0.36 0.01 0.28 -0.74 9.78 0.02 0.05 -0.05 6013
0.37 0.01 0.24 -0.76 9.82 0.02 0.05 -0.05 6021
0.38 0.03 0.26 -0.79 9.81 0.02 0.05 -0.05 6028
0.39 0.00 0.25 -0.74 9.77 0.02 0.05 -0.05 6035
0.38 0.01 0.25 -0.77 9.81 0.01 0.05 -0.05 6042
0.39 -0.00 0.27 -0.79 9.78 0.01 0.05 -0.05 6049
0.38 0.02 0.27 -0.76 10.42 0.01 0.05 -0.05 6056
0.39 0.00 0.29 -0.75 9.79 0.01 0.05 -0.05 6064
0.39 0.01 0.28 -0.76 9.78 0.00 0.05 -0.05 6071
0.41 0.01 0.28 -0.78 9.81 0.01 0.05 -0.05 6078
0.38 0.00 0.28 -0.77 9.80 0.00 0.05 -0.06 6085
0.40 -0.01 0.29 -0.78 9.80 -0.00 0.05 -0.06 6092
0.38 0.00 0.27 -0.75 9.80 0.00 0.05 -0.06 6099
0.39 0.01 0.27 -0.79 9.77 -0.00 0.05 -0.05 6107
0.40 0.01 0.27 -0.75 9.79 -0.00 0.05 -0.05 6114
0.38 0.00 0.28 -0.76 9.81 -0.00 0.05 -0.05 6121
0.40 0.00 0.27 -0.80 9.81 -0.00 0.05 -0.05 6128
0.39 0.01 0.29 -0.76 9.82 0.00 0.05 -0.05 6135
0.40 0.01 0.30 -0.77 9.77 0.00 0.05 -0.05 6142
0.42 0.02 0.30 -0.77 9.81 0.01 0.05 -0.05 6150
0.43 0.01 0.30 -0.81 9.81 0.01 0.05 -0.05 6157
0.44 0.00 0.26 -0.78 9.77 0.01 0.05 -0.05 6164
0.45 -0.01 0.22 -0.79 9.80 0.01 0.06 -0.05 6171
0.45 -0.02 0.27 -0.77 9.81 0.01 0.05 -0.05 6178
0.46 -0.02 0.30 -0.78 9.21 0.01 0.05 -0.05 6185
0.48 -0.01 0.30 -0.77 9.79 0.01 0.05 -0.05 6193
0.50 -0.02 0.30 -0.82 9.81 0.02 0.05 -0.05 6200
0.49 -0.02 0.30 -0.83 9.82 0.02 0.05 -0.05 6207
0.48 -0.01 0.32 -0.78 9.82 0.02 0.05 -0.05 6214
0.48 -0.01 0.34 -0.79 9.79 0.01 0.05 -0.05 6221
0.51 -0.02 0.29 -0.82 9.82 0.01 0.05 -0.06 6228
0.51 -0.01 0.34 -0.81 9.82 0.02 0.05 -0.06 6236
0.53 -0.02 0.30 -0.80 9.80 0.02 0.05 -0.05 6243
0.52 -0.02 0.31 -0.80 9.82 0.02 0.05 -0.06 6250
0.53 -0.03 0.32 -0.79 9.79 0.02 0.05 -0.06 6257
0.50 -0.02 0.30 -0.83 9.81 0.02 0.05 -0.06 6264
0.52 -0.03 0.29 -0.80 9.80 0.02 0.05 -0.06 6272
0.53 -0.01 0.29 -0.80 9.80 0.02 0.05 -0.05 6279
0.52 -0.02 0.32 -0.84 9.80 0.02 0.06 -0.06 6286
0.52 -0.02 0.32 -0.80 9.75 0.02 0.06 -0.06 6293
0.52 -0.03 0.27 -0.81 9.79 0.02 0.06 -0.06 6300
0.51 -0.01 0.30 -0.84 9.82 0.02 0.06 -0.06 6307
0.52 -0.02 0.30 -0.83 9.81 0.02 0.06 -0.06 6315
0.54 -0.03 0.29 -0.82 9.82 0.02 0.06 -0.06 6322
0.55 -0.03 0.29 -0.82 9.84 0.02 0.06 -0.06 6329
0.56 -0.03 0.34 -0.80 9.81 0.03 0.07 -0.06 6336
0.57 -0.02 0.36 -0.86 9.84 0.03 0.06 -0.06 6343
0.55 -0.02 0.37 -0.83 9.83 0.04 0.07 -0.07 6350
0.56 -0.02 0.32 -0.84 9.81 0.04 0.08 -0.07 6358
0.59 -0.02 0.39 -0.83 9.79 0.05 0.08 -0.07 6365
0.61 -0.03 0.34 -0.83 9.87 0.05 0.09 -0.08 6372
0.61 -0.03 0.43 -0.81 9.82 0.06 0.10 -0.09 6379
0.61 -0.03 0.50 -0.81 9.86 0.07 0.11 -0.13 6386
0.61 -0.03 0.43 -0.88 9.87 0.09 0.13 -0.11 6393
0.62 -0.02 0.42 -0.84 9.98 0.12 0.14 -0.11 6401
0.65 -0.03 0.41 -0.88 10.08 0.21 0.20 -0.11 6408
0.65 -0.02 0.40 -0.91 10.57 0.49 0.29 -0.11 6415
0.66 -0.04 0.54 -0.97 10.50 0.69 0.33 -0.10 6422
0.66 -0.03 0.55 -0.98 11.04 0.90 0.37 -0.12 6429
0.66 -0.04 0.50 -1.15 11.36 0.98 0.39 -0.15 6437
0.66 -0.03 0.69 -1.28 11.15 1.02 0.28 -0.17 6445
0.65 -0.04 0.54 -1.34 11.30 1.07 0.21 -0.20 6451
0.62 -0.03 0.50 -1.27 11.62 1.16 0.20 -0.21 6459
0.59 -0.04 0.38 -1.39 11.23 1.24 0.19 -0.20 6466
0.53 -0.02 0.34 -1.43 10.65 1.31 0.16 -0.20 6473
0.49 -0.02 0.36 -1.62 10.49 1.36 0.16 -0.18 6480
0.48 -0.02 0.17 -1.65 10.32 1.40 0.14 -0.16 6488
0.45 -0.03 0.16 -1.85 10.55 1.42 0.15 -0.12 6495
0.39 -0.02 0.29 -1.85 10.35 1.45 0.18 -0.11 6502
0.36 -0.03 0.46 -2.10 10.26 1.48 0.23 -0.10 6508
0.30 -0.02 -0.34 -2.96 11.09 1.48 0.14 -0.07 6516
0.26 -0.01 0.96 -2.41 10.43 1.42 0.13 -0.05 6523
0.26 -0.02 0.27 -2.59 10.96 1.49 0.27 -0.06 6531
0.19 -0.01 0.20 -2.54 11.19 1.63 0.29 -0.04 6537
0.12 -0.01 0.53 -2.70 10.29 1.69 0.37 -0.02 6544
0.08 -0.01 0.47 -2.84 9.91 1.69 0.46 -0.01 6551
0.08 -0.01 0.51 -2.98 10.10 1.66 0.55 0.02 6558
0.07 -0.00 0.37 -3.02 10.49 1.64 0.66 0.04 6565
0.08 -0.01 0.32 -3.17 10.14 1.61 0.76 0.08 6573
0.06 -0.01 0.10 -3.36 9.82 1.56 0.85 0.13 6580
0.06 -0.01 -0.03 -3.73 10.04 1.50 0.91 0.20 6587
0.03 -0.00 -0.20 -3.85 10.15 1.43 0.94 0.26 6594
0.05 -0.00 -0.64 -4.00 10.09 1.38 0.92 0.30 6601
0.04 -0.00 -0.69 -4.12 9.99 1.32 0.81 0.35 6608
0.03 -0.00 -0.20 -4.39 10.32 1.26 0.67 0.41 6616
0.04 -0.00 -0.00 -4.54 10.86 1.20 0.57 0.47 6623
0.03 -0.00 0.21 -4.38 11.30 1.09 0.47 0.51 6630
0.03 -0.00 0.45 -3.86 11.78 0.93 0.44 0.53 6637
0.03 -0.00 0.29 -1.87 11.67 0.74 0.46 0.51 6644
0.04 -0.00 -0.06 -0.42 10.37 0.55 0.41 0.41 6651
0.05 -0.00 -0.84 0.46 9.01 0.37 0.28 0.24 6659
0.04 -0.00 -2.06 1.59 8.84 0.16 0.19 0.00 6666
0.02 -0.00 -2.82 1.61 8.00 -0.05 0.03 -0.47 6673
0.02 -0.00 -3.99 1.67 9.09 -0.18 -0.18 -1.05 6680
0.03 -0.00 -4.07 1.37 9.59 -0.28 -0.34 -1.60 6687
0.03 -0.00 -3.38 0.81 10.22 -0.34 -0.52 -2.24 6694
0.01 -0.00 -3.14 0.76 10.55 -0.43 -0.69 -2.66 6702
0.02 -0.00 -2.78 0.97 10.08 -0.62 -0.87 -3.07 6709
0.01 -0.00 -2.02 0.83 9.09 -0.78 -1.01 -3.41 6716
0.00 -0.00 -1.38 0.29 8.89 -0.88 -1.17 -3.62 6723
0.01 -0.00 -0.99 -0.49 8.77 -0.90 -1.32 -3.80 6730
0.02 -0.00 -0.71 -1.15 8.78 -0.84 -1.41 -3.90 6737
0.01 -0.00 -0.06 -1.56 8.84 -0.74 -1.52 -3.95 6745
0.01 -0.00 0.64 -1.85 9.39 -0.63 -1.58 -3.93 6752
0.00 0.00 1.72 -1.83 9.83 -0.53 -1.57 -3.88 6759
0.00 -0.00 2.81 -1.71 9.82 -0.49 -1.41 -3.78 6766
0.01 -0.00 3.62 -1.50 9.78 -0.49 -1.16 -3.65 6773
0.02 -0.00 4.56 -1.29 9.52 -0.55 -0.73 -3.54 6780
0.00 -0.00 5.12 -1.15 9.47 -0.63 -0.26 -3.38 6788
0.00 -0.00 4.99 -1.18 9.20 -0.73 0.12 -3.22 6795
0.00 0.00 4.91 -1.39 9.06 -0.81 0.49 -2.98 6802
0.00 -0.00 4.48 -1.30 10.37 -0.88 0.70 -2.67 6809
0.01 -0.00 4.17 -1.91 9.01 -0.89 0.83 -2.43 6816
0.01 -0.00 3.64 -2.21 8.71 -0.86 0.90 -2.09 6823
0.01 -0.00 3.16 -2.41 8.52 -0.80 0.86 -1.78 6831
0.01 -0.00 2.64 -2.66 8.49 -0.73 0.76 -1.38 6838
0.00 0.00 2.29 -2.82 8.61 -0.63 0.61 -0.96 6845
0.00 -0.00 2.05 -2.98 8.88 -0.53 0.38 -0.62 6852
0.01 -0.00 1.82 -3.02 8.80 -0.47 0.15 -0.24 6859
0.01 -0.00 1.73 -2.99 9.00 -0.39 -0.03 0.05 6866
0.01 -0.00 1.54 -3.15 9.10 -0.33 -0.19 0.34 6874
0.01 -0.00 1.48 -2.99 9.22 -0.30 -0.28 0.60 6881
0.00 0.00 1.63 -3.09 9.76 -0.31 -0.29 0.79 6888
0.01 -0.00 1.74 -3.14 9.85 -0.34 -0.22 0.98 6895
0.02 -0.00 1.84 -3.19 9.96 -0.42 -0.11 1.11 6902
0.01 -0.00 1.89 -3.48 10.06 -0.49 0.05 1.22 6909
0.00 -0.00 1.72 -3.68 9.68 -0.55 0.23 1.29 6917
0.00 -0.00 1.57 -4.01 9.54 -0.58 0.34 1.32 6924
0.00 -0.00 1.33 -4.09 9.29 -0.58 0.44 1.31 6931
0.01 -0.00 1.08 -4.03 8.72 -0.57 0.48 1.28 6938
0.01 -0.00 0.80 -3.96 8.85 -0.56 0.45 1.25 6945
0.00 -0.00 0.55 -4.08 9.03 -0.55 0.34 1.20 6952
0.01 -0.00 0.52 -4.15 9.39 -0.53 0.26 1.15 6960
0.00 0.00 0.64 -4.22 9.64 -0.50 0.18 1.09 6967
0.00 -0.00 0.85 -4.30 9.67 -0.46 0.15 1.05 6974
0.00 -0.00 1.09 -4.15 9.45 -0.41 0.15 1.00 6981
0.01 -0.00 1.26 -4.00 9.47 -0.41 0.18 0.95 6988
0.01 -0.00 1.33 -3.82 9.29 -0.42 0.22 0.91 6995
0.01 -0.00 1.41 -3.80 9.43 -0.46 0.28 0.86 7003
0.00 0.00 1.41 -3.77 9.42 -0.50 0.32 0.82 7010
0.00 -0.00 1.40 -3.70 9.30 -0.54 0.33 0.79 7017
0.01 -0.00 1.46 -3.72 9.32 -0.55 0.33 0.75 7024
0.01 -0.00 1.61 -3.79 9.37 -0.55 0.34 0.71 7031
0.00 -0.00 1.84 -3.76 9.38 -0.52 0.38 0.66 7038
0.00 -0.00 1.97 -3.71 9.38 -0.51 0.46 0.61 7046
0.00 0.00 2.07 -3.60 9.65 -0.50 0.50 0.57 7053
0.00 -0.00 1.98 -3.47 9.83 -0.50 0.58 0.54 7060
0.01 -0.00 1.70 -3.21 9.92 -0.54 0.64 0.53 7067
0.00 -0.00 1.26 -3.05 9.80 -0.56 0.69 0.57 7074
0.00 0.00 0.76 -2.85 9.65 -0.59 0.70 0.66 7081
0.00 0.00 0.38 -2.90 9.74 -0.59 0.65 0.76 7089
0.00 0.00 0.12 -3.02 9.80 -0.57 0.51 0.88 7096
0.00 -0.00 0.26 -3.19 9.89 -0.54 0.36 1.00 7103
0.01 -0.00 0.77 -3.22 9.82 -0.51 0.17 1.08 7110
0.00 -0.00 1.36 -3.28 9.85 -0.49 0.05 1.16 7117
0.00 -0.00 1.83 -3.34 9.93 -0.47 0.04 1.22 7124
0.00 -0.00 2.30 -3.35 10.04 -0.47 0.12 1.27 7132
0.00 -0.00 2.54 -3.27 10.13 -0.48 0.23 1.28 7139
0.00 0.00 2.60 -3.31 10.29 -0.52 0.40 1.28 7146
0.02 -0.00 2.35 -3.24 10.34 -0.56 0.57 1.27 7153
0.00 -0.00 1.99 -3.28 10.18 -0.61 0.68 1.24 7160
0.00 0.00 1.53 -3.38 10.09 -0.63 0.74 1.21 7168
0.00 0.00 1.13 -3.50 9.87 -0.64 0.75 1.16 7175
0.00 -0.00 0.78 -3.47 9.64 -0.62 0.73 1.12 7182
0.01 -0.00 0.62 -3.48 9.44 -0.58 0.68 1.07 7189
0.01 -0.00 0.51 -3.40 9.38 -0.52 0.64 1.02 7196
0.00 0.00 0.50 -3.24 9.63 -0.47 0.60 0.98 7203
0.01 -0.00 0.47 -3.05 9.82 -0.42 0.58 0.93 7211
0.00 0.00 0.43 -2.88 9.93 -0.39 0.57 0.90 7218
0.00 -0.00 0.25 -2.78 10.05 -0.37 0.59 0.87 7225
0.00 -0.00 0.03 -2.86 10.03 -0.37 0.61 0.84 7232
0.01 -0.00 -0.33 -2.86 10.14 -0.39 0.61 0.81 7239
0.00 -0.00 -0.68 -2.84 10.13 -0.41 0.60 0.76 7246
0.00 -0.00 -0.98 -2.81 9.92 -0.44 0.60 0.70 7254
0.00 0.00 -1.44 -2.82 9.80 -0.46 0.63 0.64 7261
0.00 -0.00 -1.79 -2.91 9.78 -0.48 0.68 0.59 7268
0.01 -0.00 -2.10 -3.14 9.87 -0.49 0.71 0.55 7275
0.01 -0.00 -8.44 -8.80 14.73 -0.46 0.49 0.50 7282
0.00 -0.00 -6.36 -4.28 9.22 -0.20 -0.30 0.50 7289
0.00 -0.00 -2.89 -2.90 7.10 -0.23 -0.43 0.44 7297
0.00 -0.00 -4.93 -7.05 9.31 -0.23 -0.67 0.43 7304
0.01 -0.00 -4.36 -6.57 8.79 -0.18 -0.89 0.39 7311
0.01 -0.00 -3.93 -6.43 7.47 -0.10 -0.94 0.32 7318
0.01 -0.00 -4.56 -7.06 7.75 0.02 -1.02 0.28 7325
0.01 -0.00 -5.05 -15.38 6.33 0.19 -1.12 0.28 7332
0.00 0.00 -1.61 -10.86 2.74 0.65 -0.46 0.67 7340
0.01 -0.00 -5.14 -11.12 4.67 0.88 -0.43 0.91 7347
0.01 0.01 -18.56 -12.05 10.36 0.77 -1.54 1.03 7355
0.02 0.01 -8.29 -3.27 10.92 0.32 -1.15 0.77 7362
-0.00 0.01 -7.01 -4.59 14.51 -0.15 -0.05 0.18 7368
-0.00 0.03 -0.19 -1.32 10.07 -0.23 0.03 -0.04 7375
-0.00 0.02 -0.61 -0.34 8.62 -0.34 -0.03 -0.09 7383
0.01 0.03 0.19 -0.84 11.52 -0.33 -0.01 -0.07 7390
0.00 0.14 0.73 -0.72 9.95 -0.20 0.09 -0.05 7397
-0.01 0.20 0.74 -0.77 10.00 -0.14 0.10 -0.03 7404
-0.02 0.23 0.35 -0.73 9.90 -0.12 0.07 -0.02 7411
-0.02 0.22 0.23 -0.87 9.96 -0.10 0.05 -0.03 7418
-0.02 0.25 0.34 -0.85 9.87 -0.08 0.03 -0.05 7426
-0.02 0.26 0.47 -0.82 9.79 -0.07 0.02 -0.04 7433
-0.01 0.29 0.35 -0.77 9.80 -0.07 0.01 -0.04 7440
-0.02 0.36 0.28 -0.77 9.79 -0.07 0.01 -0.05 7447
-0.02 0.37 0.29 -0.82 9.76 -0.07 0.01 -0.05 7454
-0.02 0.37 0.35 -0.74 9.78 -0.08 0.01 -0.05 7461
-0.01 0.46 0.34 -0.70 9.80 -0.08 0.01 -0.06 7469
-0.01 0.46 0.32 -0.74 9.81 -0.08 0.02 -0.06 7476
-0.01 0.54 0.30 -0.71 9.82 -0.08 0.02 -0.06 7483
0.01 0.54 0.34 -0.69 9.82 -0.07 0.02 -0.06 7490
-0.02 0.63 0.32 -0.68 9.85 -0.06 0.02 -0.06 7497
-0.02 0.61 0.30 -0.68 9.83 -0.05 0.03 -0.06 7504
-0.02 0.66 0.32 -0.68 9.83 -0.04 0.03 -0.06 7512
-0.01 0.65 0.30 -0.71 9.83 -0.03 0.03 -0.06 7519
0.01 0.65 0.24 -0.70 9.85 -0.03 0.04 -0.05 7526
0.00 0.68 0.29 -0.66 9.83 -0.02 0.04 -0.05 7533
-0.01 0.70 0.30 -0.70 9.84 -0.02 0.04 -0.06 7540
0.01 0.71 0.30 -0.69 9.87 -0.02 0.04 -0.06 7547
-0.01 0.69 0.32 -0.69 9.82 -0.01 0.04 -0.06 7555
0.03 0.69 0.29 -0.70 9.84 -0.01 0.04 -0.06 7562
0.05 0.72 0.33 -0.66 9.82 -0.00 0.04 -0.06 7569
0.04 0.69 0.31 -0.68 9.82 -0.00 0.04 -0.07 7576
0.04 0.66 0.32 -0.69 9.81 -0.00 0.04 -0.06 7583
0.04 0.63 0.30 -0.68 9.82 -0.00 0.04 -0.06 7590
0.05 0.63 0.33 -0.71 9.81 -0.00 0.04 -0.06 7598
0.06 0.63 0.29 -0.69 9.83 0.00 0.04 -0.06 7605
0.08 0.59 0.29 -0.68 9.82 0.00 0.04 -0.07 7612
0.06 0.58 0.28 -0.70 9.80 0.00 0.04 -0.06 7619
0.07 0.56 0.32 -0.67 9.82 0.00 0.04 -0.06 7626
0.06 0.55 0.33 -0.68 9.80 0.00 0.04 -0.07 7633
0.07 0.53 0.31 -0.67 9.76 0.00 0.04 -0.06 7641
0.08 0.52 0.27 -0.69 9.80 0.00 0.04 -0.06 7648
0.08 0.50 0.31 -0.70 9.82 0.00 0.04 -0.07 7655
0.07 0.49 0.30 -0.71 9.80 0.00 0.04 -0.07 7662
0.07 0.47 0.29 -0.71 9.80 -0.00 0.04 -0.06 7669
0.06 0.46 0.31 -0.69 9.80 -0.00 0.04 -0.06 7676
0.07 0.47 0.30 -0.67 9.81 -0.00 0.04 -0.06 7684
0.08 0.48 0.35 -0.68 9.79 -0.00 0.04 -0.07 7691
0.08 0.48 0.28 -0.70 9.76 -0.00 0.05 -0.07 7698
0.08 0.48 0.27 -0.73 9.81 -0.01 0.04 -0.06 7705
0.08 0.47 0.30 -0.70 9.82 -0.01 0.04 -0.06 7712
0.07 0.48 0.26 -0.71 9.83 -0.01 0.04 -0.07 7719
0.09 0.49 0.30 -0.70 9.81 -0.01 0.04 -0.06 7727
0.09 0.49 0.32 -0.70 9.83 -0.01 0.04 -0.07 7734
0.08 0.49 0.27 -0.66 9.82 -0.01 0.04 -0.06 7741
0.08 0.48 0.31 -0.69 9.82 -0.01 0.05 -0.06 7748
0.08 0.47 0.28 -0.69 9.79 -0.01 0.04 -0.06 7755
0.09 0.48 0.30 -0.69 9.83 -0.01 0.05 -0.06 7762
0.08 0.50 0.29 -0.70 9.81 -0.00 0.05 -0.06 7770
0.09 0.51 0.28 -0.68 9.79 -0.00 0.05 -0.06 7777
0.08 0.50 0.31 -0.71 9.81 -0.00 0.05 -0.06 7784
0.08 0.48 0.29 -0.69 10.42 0.00 0.05 -0.06 7791
0.08 0.45 0.30 -0.69 9.82 -0.00 0.04 -0.06 7798
0.09 0.44 0.30 -0.71 9.81 -0.00 0.04 -0.07 7805
0.08 0.45 0.31 -0.68 9.80 0.00 0.04 -0.06 7813
0.08 0.44 0.32 -0.72 9.80 -0.00 0.05 -0.06 7820
0.08 0.44 0.30 -0.69 9.81 0.00 0.04 -0.07 7827
0.08 0.41 0.29 -0.69 9.81 0.00 0.04 -0.07 7834
0.06 0.43 0.34 -0.69 9.81 0.00 0.04 -0.07 7841
0.08 0.41 0.29 -0.73 9.81 0.00 0.05 -0.07 7848
0.09 0.44 0.30 -0.68 9.82 -0.00 0.04 -0.06 7856
0.12 0.43 0.29 -0.67 9.81 0.00 0.05 -0.06 7863
0.11 0.38 0.28 -0.72 9.81 0.01 0.05 -0.06 7870
0.12 0.38 0.28 -0.72 9.83 0.00 0.05 -0.07 7877
0.10 0.38 0.29 -0.73 9.20 0.00 0.05 -0.07 7884
0.11 0.38 0.30 -0.69 9.79 -0.03 0.05 -0.07 7891
0.12 0.36 0.29 -0.67 9.82 -0.00 0.05 -0.06 7899
0.10 0.37 0.31 -0.74 9.81 0.00 0.06 -0.07 7906
0.11 0.39 0.29 -0.71 9.83 0.00 0.06 -0.07 7913
0.12 0.35 0.32 -0.70 9.76 0.00 0.06 -0.07 7920
0.13 0.31 0.30 -0.72 9.82 0.00 0.06 -0.07 7927
0.12 0.31 0.31 -0.72 9.80 0.00 0.05 -0.06 7934
0.14 0.31 0.34 -0.70 9.81 0.01 0.05 -0.07 7942
0.14 0.32 0.30 -0.74 9.82 0.00 0.06 -0.06 7949
0.14 0.32 0.32 -0.73 9.79 0.01 0.05 -0.06 7956
0.14 0.28 0.32 -0.70 9.81 0.00 0.05 -0.06 7963
0.16 0.28 0.32 -0.72 9.82 0.00 0.05 -0.07 7970
0.15 0.26 0.34 -0.71 9.81 0.01 0.05 -0.07 7977
0.17 0.22 0.34 -0.73 9.82 0.01 0.05 -0.07 7985
0.18 0.22 0.34 -0.71 9.79 0.01 0.05 -0.10 7992
0.18 0.20 0.33 -0.72 9.80 0.01 0.05 -0.07 7999
0.18 0.23 0.33 -0.76 9.81 0.01 0.05 -0.07 8006
0.22 0.17 0.36 -0.74 9.77 0.01 0.05 -0.07 8013
0.24 0.15 0.31 -0.73 9.82 0.01 0.05 -0.07 8020
0.27 0.15 0.34 -0.74 9.79 0.01 0.05 -0.06 8028
0.24 0.18 0.34 -0.73 9.81 0.01 0.05 -0.07 8035
0.24 0.12 0.36 -0.73 9.82 0.01 0.05 -0.07 8042
0.25 0.16 0.33 -0.71 9.82 0.02 0.05 -0.07 8049
0.27 0.07 0.32 -0.74 9.83 0.02 0.05 -0.07 8056
0.27 0.04 0.31 -0.74 9.81 0.03 0.05 -0.07 8064
0.30 0.04 0.38 -0.75 9.83 0.03 0.06 -0.07 8071
0.29 0.02 0.33 -0.67 9.84 0.03 0.05 -0.07 8078
0.33 0.00 0.35 -0.74 9.81 0.04 0.06 -0.07 8085
0.32 -0.01 0.34 -0.76 9.82 0.04 0.06 -0.07 8092
0.34 -0.01 0.39 -0.83 9.86 0.05 0.06 -0.07 8099
0.33 -0.01 0.40 -0.78 9.85 0.06 0.06 -0.07 8107
0.34 -0.01 0.37 -0.74 9.87 0.06 0.06 -0.07 8114
0.35 -0.00 0.35 -0.82 9.83 0.07 0.07 -0.07 8121
0.36 -0.02 0.39 -0.84 9.84 0.08 0.08 -0.07 8128
0.39 -0.02 0.39 -0.82 9.84 0.08 0.09 -0.07 8135
0.43 -0.01 0.36 -0.67 9.85 0.10 0.10 -0.07 8142
0.46 -0.02 0.47 -0.87 9.82 0.11 0.12 -0.08 8150
0.42 -0.02 0.87 -0.72 9.96 0.14 0.14 -0.10 8157
0.45 -0.04 0.35 -0.84 10.06 0.20 0.21 -0.13 8164
0.46 -0.03 0.13 -0.79 10.62 0.33 0.28 -0.11 8172
0.48 -0.01 0.45 -0.91 10.47 0.78 0.34 -0.11 8179
0.47 -0.00 0.54 -1.09 10.79 0.92 0.37 -0.12 8185
0.48 -0.02 0.01 -1.15 10.71 0.93 0.40 -0.14 8194
0.48 -0.01 0.51 -1.18 10.80 0.93 0.31 -0.14 8201
0.48 -0.03 0.45 -1.22 10.32 0.94 0.23 -0.15 8208
0.46 0.01 0.46 -1.84 10.28 0.91 0.17 -0.14 8215
0.46 -0.00 0.59 -1.27 10.35 0.90 0.14 -0.15 8222
0.45 0.01 0.38 -1.37 10.62 0.92 0.15 -0.13 8229
0.45 -0.01 0.41 -1.42 10.31 0.96 0.14 -0.13 8237
0.42 -0.02 0.45 -1.61 10.37 0.98 0.14 -0.12 8244
0.40 -0.02 0.46 -1.58 10.26 1.03 0.14 -0.11 8250
0.37 -0.01 0.58 -1.78 10.53 1.09 0.13 -0.11 8258
0.34 0.02 0.46 -1.84 10.52 1.15 0.14 -0.11 8265
0.34 -0.00 -0.04 -2.04 10.70 1.18 0.08 -0.10 8271
0.30 -0.02 0.05 -1.62 8.11 1.16 0.05 -0.08 8279
0.27 -0.02 0.76 -2.17 10.64 1.18 0.13 -0.08 8287
0.20 -0.02 0.28 -2.22 10.64 1.27 0.18 -0.08 8293
0.19 -0.02 0.40 -2.30 10.14 1.33 0.22 -0.05 8300
0.20 -0.01 0.41 -2.38 9.82 1.34 0.27 -0.04 8307
0.15 -0.02 0.19 -2.60 9.98 1.32 0.33 -0.01 8314
0.14 -0.01 0.23 -2.83 10.21 1.33 0.39 0.03 8322
0.10 -0.01 0.19 -2.86 10.38 1.34 0.52 0.06 8329
0.07 -0.01 0.12 -2.98 10.51 1.35 0.66 0.09 8336
0.08 -0.01 -0.14 -3.23 10.37 1.34 0.78 0.14 8343
0.06 -0.00 -0.05 -3.48 10.37 1.31 0.87 0.20 8350
0.08 -0.01 -0.56 -3.69 10.24 1.26 0.98 0.26 8357
0.03 -0.00 -0.36 -3.60 10.14 1.21 0.96 0.32 8365
0.01 -0.00 -0.78 -3.71 10.21 1.15 0.86 0.40 8372
0.02 -0.00 -1.11 -4.11 11.11 1.07 0.74 0.52 8379
0.02 -0.00 -1.43 -4.17 12.30 0.96 0.57 0.60 8386
0.03 -0.00 -0.42 -3.56 12.40 0.87 0.51 0.71 8393
0.02 -0.00 -0.43 -1.80 13.04 0.69 0.62 0.73 8400
0.03 -0.00 -1.27 -0.00 10.95 0.46 0.65 0.62 8408
0.02 -0.00 -2.45 1.64 9.14 0.27 0.58 0.41 8415
0.01 -0.00 -4.35 1.92 8.65 0.05 0.39 0.03 8422
0.00 0.00 -6.57 1.11 9.07 -0.11 0.11 -0.69 8429
0.00 0.00 -6.56 0.57 10.23 -0.19 -0.17 -1.40 8436
0.02 -0.00 -6.59 0.69 12.41 -0.21 -0.58 -1.99 8443
0.00 -0.00 -6.35 1.28 13.16 -0.40 -0.83 -2.47 8451
0.00 -0.00 -4.42 1.68 11.25 -0.67 -1.13 -2.82 8458
0.00 0.00 -3.50 1.09 9.83 -0.81 -1.42 -3.16 8465
0.00 -0.00 -2.77 0.05 9.37 -0.90 -1.58 -3.40 8472
0.03 -0.00 -1.92 -0.93 9.12 -0.87 -1.75 -3.63 8479
0.02 -0.00 -1.40 -1.70 9.29 -0.76 -1.90 -3.79 8486
0.01 -0.00 -0.59 -2.20 9.47 -0.56 -2.04 -3.86 8494
0.02 -0.00 0.34 -2.51 9.96 -0.41 -2.10 -3.87 8501
0.01 -0.00 1.50 -2.38 10.36 -0.28 -2.06 -3.83 8508
0.01 -0.00 2.95 -1.95 10.26 -0.22 -1.86 -3.76 8515
0.02 -0.00 4.10 -1.53 9.87 -0.24 -1.53 -3.66 8522
0.00 0.00 5.02 -1.31 9.24 -0.30 -1.10 -3.55 8529
0.00 -0.00 5.47 -1.21 8.47 -0.37 -0.58 -3.38 8537
0.00 0.00 5.42 -1.84 8.10 -0.43 -0.11 -3.16 8544
0.00 -0.00 5.43 -1.38 7.97 -0.43 0.36 -2.92 8551
0.00 0.00 5.20 -1.52 8.11 -0.38 0.71 -2.63 8558
0.01 -0.00 5.36 -1.62 7.59 -0.30 0.92 -2.38 8565
0.00 -0.00 3.95 -1.73 8.84 -0.22 0.99 -2.07 8572
0.00 0.00 3.23 -1.83 9.21 -0.19 0.92 -1.75 8580
0.00 0.00 2.59 -1.94 9.47 -0.19 0.73 -1.47 8587
0.00 -0.00 2.10 -2.15 9.61 -0.23 0.43 -1.15 8594
0.01 -0.00 2.06 -2.12 9.48 -0.29 0.14 -0.90 8601
0.01 -0.00 2.37 -2.12 9.37 -0.34 -0.13 -0.64 8608
0.00 -0.00 2.59 -2.20 9.11 -0.37 -0.31 -0.44 8615
0.00 -0.00 3.12 -2.30 9.14 -0.37 -0.43 -0.28 8623
0.00 0.00 3.59 -2.35 9.09 -0.37 -0.44 -0.15 8630
0.00 -0.00 3.90 -2.28 9.06 -0.39 -0.37 -0.05 8637
0.01 -0.00 4.27 -2.16 9.08 -0.44 -0.23 0.03 8644
0.01 -0.00 4.49 -2.29 9.25 -0.50 -0.03 0.12 8651
0.00 -0.00 4.42 -2.34 8.92 -0.56 0.17 0.19 8658
0.00 -0.00 4.12 -2.52 8.79 -0.60 0.38 0.27 8666
0.00 -0.00 3.83 -2.62 8.68 -0.63 0.49 0.35 8673
0.00 -0.00 3.49 -2.92 8.73 -0.61 0.55 0.42 8680
0.01 -0.00 3.25 -2.98 8.67 -0.57 0.54 0.51 8687
0.00 -0.00 2.95 -2.91 8.70 -0.51 0.49 0.58 8694
0.00 0.00 2.86 -2.79 8.96 -0.47 0.40 0.67 8701
0.00 0.00 2.90 -2.76 9.30 -0.44 0.34 0.76 8709
0.00 0.00 2.84 -2.77 9.61 -0.42 0.31 0.83 8716
0.00 0.00 2.87 -2.86 9.81 -0.42 0.31 0.91 8723
0.01 -0.00 2.87 -2.99 10.06 -0.43 0.33 0.95 8730
0.00 -0.00 2.83 -3.07 10.10 -0.46 0.38 0.98 8737
0.00 0.00 2.79 -3.02 9.82 -0.51 0.44 0.99 8744
0.00 0.00 2.65 -3.14 9.80 -0.57 0.52 1.00 8752
0.00 0.00 2.44 -3.33 9.80 -0.60 0.60 1.00 8759
0.00 -0.00 2.31 -3.53 9.83 -0.61 0.67 1.03 8766
0.01 -0.00 2.24 -3.71 9.84 -0.61 0.72 0.99 8773
0.00 0.00 2.11 -3.74 9.78 -0.59 0.74 0.98 8780
0.00 -0.00 2.02 -3.72 9.65 -0.57 0.74 0.98 8787
0.00 0.00 2.00 -3.77 9.78 -0.50 0.73 0.99 8795
0.00 0.00 2.05 -3.77 9.87 -0.50 0.73 1.00 8802
0.00 0.00 2.04 -3.71 9.93 -0.47 0.73 1.03 8809
0.01 -0.00 1.89 -3.53 10.12 -0.45 0.72 1.06 8816
0.00 0.00 1.85 -3.46 10.28 -0.45 0.70 1.10 8823
0.00 0.00 1.65 -3.48 10.39 -0.47 0.68 1.14 8830
0.00 0.00 1.45 -3.43 10.30 -0.48 0.67 1.17 8838
0.00 0.00 1.21 -3.41 10.05 -0.48 0.70 1.20 8845
0.00 -0.00 0.89 -3.28 9.82 -0.46 0.76 1.24 8852
0.00 -0.00 0.47 -3.18 9.77 -0.44 0.84 1.28 8859
0.00 0.00 0.05 -3.08 9.79 -0.40 0.93 1.33 8866
0.00 0.00 -0.26 -2.97 10.07 -0.39 0.96 1.39 8873
0.00 0.00 -0.65 -3.01 10.46 -0.38 0.93 1.42 8881
0.00 0.00 -0.87 -3.02 10.97 -0.39 0.85 1.45 8888
0.01 -0.00 -1.06 -2.94 11.17 -0.45 0.74 1.47 8895
0.00 0.00 -1.22 -3.01 11.07 -0.53 0.60 1.48 8902
0.00 0.00 -1.15 -3.21 10.78 -0.60 0.45 1.47 8909
0.00 0.00 -0.91 -3.32 10.40 -0.65 0.37 1.45 8916
0.00 0.00 -0.68 -3.60 9.94 -0.65 0.33 1.40 8924
0.00 0.00 -0.52 -3.73 9.59 -0.61 0.34 1.36 8931
0.01 -0.00 -0.44 -3.82 9.48 -0.54 0.39 1.30 8938
0.00 0.00 -0.44 -3.81 9.38 -0.47 0.45 1.21 8945
0.00 0.00 -0.51 -3.65 9.40 -0.39 0.52 1.14 8952
0.00 0.00 -0.78 -3.52 9.47 -0.31 0.60 1.07 8960
0.00 -0.00 -1.04 -3.43 9.60 -0.25 0.65 1.02 8967
0.00 0.00 -1.29 -3.44 9.70 -0.18 0.66 0.98 8974
0.01 -0.00 -1.49 -3.45 9.91 -0.15 0.64 0.94 8981
0.00 0.00 -1.62 -3.50 10.19 -0.12 0.59 0.91 8988
0.00 0.00 -1.83 -3.55 10.36 -0.12 0.53 0.87 8995
0.00 0.00 -2.06 -3.78 10.38 -0.15 0.46 0.83 9003
0.00 0.00 -2.32 -3.99 10.16 -0.20 0.39 0.79 9010
0.00 -0.00 -2.63 -4.28 9.88 -0.22 0.30 0.75 9017
0.01 -0.00 -2.88 -4.55 9.61 -0.21 0.23 0.70 9024
0.00 0.00 -2.99 -4.93 9.46 -0.18 0.16 0.62 9031
0.00 -0.00 -2.84 -5.08 9.24 -0.14 0.13 0.54 9038
0.00 0.00 -2.75 -5.25 9.22 -0.10 0.11 0.47 9046
0.00 0.00 -2.72 -5.32 9.05 -0.04 0.13 0.36 9053
0.00 -0.00 -10.29 -11.72 17.18 -0.01 0.03 0.28 9061
0.00 0.00 -3.80 -6.19 9.34 0.25 -0.61 0.26 9067
0.00 0.00 -4.85 -5.45 7.98 0.28 -0.91 0.20 9074
0.00 0.00 -5.71 -6.92 8.49 0.34 -1.15 0.20 9081
0.00 0.00 -5.24 -6.43 8.63 0.39 -1.33 0.14 9089
0.00 0.00 -5.09 -6.32 8.79 0.47 -1.41 0.05 9096
0.01 -0.00 -4.39 -12.79 6.94 0.61 -1.46 0.02 9103
0.00 0.00 -0.37 -8.62 5.34 1.03 -0.66 0.31 9110
0.00 0.00 -11.76 -5.08 15.77 0.50 -1.38 0.08 9117
0.00 0.00 -4.41 -3.98 17.10 -0.04 -0.22 -0.12 9124
0.00 0.00 -0.03 -1.47 7.31 -0.35 0.20 0.01 9132
-0.00 0.02 0.39 -1.56 8.77 -0.20 -0.02 -0.05 9139
0.00 0.01 0.20 -0.54 9.14 -0.27 -0.08 -0.04 9146
-0.00 0.03 0.30 -0.95 12.61 -0.38 -0.07 -0.04 9153
-0.00 0.04 0.50 -0.69 10.10 -0.28 0.01 -0.04 9160
0.00 0.10 0.43 -0.74 9.99 -0.20 0.03 -0.05 9167
-0.02 0.23 0.40 -0.82 9.93 -0.16 0.01 -0.06 9175
-0.02 0.25 0.47 -0.97 9.98 -0.12 -0.02 -0.06 9182
-0.00 0.24 0.33 -0.93 9.96 -0.10 -0.02 -0.06 9189
-0.02 0.32 0.26 -0.82 9.86 -0.08 -0.01 -0.06 9196
-0.02 0.30 0.26 -0.79 9.83 -0.07 0.00 -0.06 9203
-0.02 0.32 0.31 -0.78 9.84 -0.07 0.01 -0.05 9210
0.01 0.34 0.28 -0.78 9.82 -0.06 0.01 -0.05 9218
0.01 0.37 0.33 -0.80 9.79 -0.06 0.02 -0.06 9225
0.01 0.40 0.32 -0.80 9.80 -0.06 0.02 -0.06 9232
0.01 0.40 0.32 -0.81 9.82 -0.06 0.02 -0.06 9239
0.01 0.38 0.32 -0.78 9.81 -0.06 0.02 -0.06 9246
-0.01 0.44 0.33 -0.76 9.85 -0.05 0.02 -0.06 9253
0.00 0.49 0.28 -0.76 9.83 -0.05 0.02 -0.06 9261
-0.01 0.51 0.28 -0.72 9.80 -0.05 0.03 -0.06 9268
0.00 0.48 0.34 -0.71 9.79 -0.04 0.03 -0.06 9275
0.00 0.45 0.29 -0.70 9.79 -0.04 0.03 -0.06 9282
0.00 0.52 0.30 -0.74 9.81 -0.03 0.03 -0.06 9289
0.01 0.55 0.27 -0.77 9.84 -0.03 0.04 -0.05 9296
0.02 0.53 0.30 -0.74 9.81 -0.03 0.04 -0.05 9304
0.03 0.53 0.33 -0.76 9.83 -0.02 0.04 -0.05 9311
0.03 0.57 0.28 -0.80 9.82 -0.02 0.04 -0.05 9318
0.03 0.55 0.28 -0.73 9.83 -0.02 0.04 -0.05 9325
0.03 0.60 0.31 -0.74 9.83 -0.01 0.04 -0.06 9332
0.04 0.61 0.26 -0.74 9.83 -0.01 0.04 -0.06 9339
0.06 0.61 0.29 -0.75 9.82 -0.01 0.05 -0.06 9347
0.07 0.64 0.28 -0.71 9.84 -0.00 0.04 -0.06 9354
0.05 0.61 0.28 -0.73 9.82 -0.00 0.04 -0.06 9361
0.05 0.60 0.31 -0.75 9.82 -0.00 0.05 -0.06 9368
0.04 0.60 0.30 -0.71 9.82 -0.00 0.05 -0.06 9375
0.05 0.59 0.29 -0.76 9.79 0.00 0.05 -0.06 9382
0.04 0.58 0.31 -0.75 9.81 0.01 0.05 -0.07 9390
0.08 0.54 0.28 -0.75 9.82 0.00 0.05 -0.07 9397
0.08 0.50 0.30 -0.73 9.81 0.00 0.05 -0.07 9404
0.09 0.49 0.26 -0.75 9.80 0.00 0.05 -0.06 9411
0.08 0.49 0.29 -0.71 9.82 0.01 0.05 -0.06 9418
0.08 0.48 0.30 -0.72 9.82 0.01 0.05 -0.06 9425
0.10 0.46 0.29 -0.72 9.80 0.00 0.05 -0.07 9433
0.10 0.45 0.26 -0.74 9.83 0.01 0.05 -0.06 9440
0.08 0.46 0.28 -0.74 9.80 0.01 0.05 -0.07 9447
0.09 0.43 0.31 -0.71 9.82 0.00 0.05 -0.06 9454
0.09 0.43 0.29 -0.73 9.82 0.00 0.05 -0.06 9461
0.11 0.42 0.30 -0.74 9.82 0.00 0.05 -0.06 9468
0.12 0.41 0.29 -0.77 9.80 -0.00 0.05 -0.07 9476
0.11 0.41 0.29 -0.78 9.82 0.00 0.05 -0.07 9483
0.11 0.41 0.29 -0.76 9.20 -0.00 0.05 -0.07 9490
0.11 0.40 0.30 -0.75 9.78 0.00 0.05 -0.06 9497
0.11 0.39 0.29 -0.73 9.83 0.00 0.05 -0.07 9504
0.10 0.42 0.33 -0.75 9.79 0.00 0.05 -0.06 9511
0.12 0.38 0.29 -0.76 9.80 0.00 0.05 -0.06 9519
0.10 0.39 0.32 -0.73 9.80 -0.00 0.05 -0.06 9526
0.11 0.38 0.30 -0.72 9.79 -0.00 0.05 -0.06 9533
0.10 0.38 0.28 -0.74 9.80 0.00 0.05 -0.07 9540
0.11 0.37 0.27 -0.74 9.80 0.00 0.05 -0.07 9547
0.11 0.37 0.31 -0.74 9.81 0.00 0.05 -0.07 9554
0.13 0.35 0.29 -0.74 9.79 0.00 0.05 -0.06 9562
0.12 0.37 0.31 -0.74 9.82 0.00 0.05 -0.06 9569
0.12 0.37 0.30 -0.75 9.78 0.01 0.05 -0.06 9576
0.11 0.35 0.30 -0.76 9.82 0.00 0.05 -0.06 9583
0.12 0.33 0.35 -0.79 9.79 0.00 0.05 -0.07 9590
0.13 0.35 0.31 -0.79 9.79 0.00 0.05 -0.06 9597
0.13 0.35 0.31 -0.77 9.79 0.00 0.05 -0.07 9605
0.15 0.31 0.33 -0.78 9.81 0.00 0.04 -0.07 9612
0.15 0.29 0.33 -0.77 9.82 0.01 0.05 -0.06 9619
0.14 0.33 0.34 -0.75 9.80 0.01 0.04 -0.06 9626
0.13 0.32 0.36 -0.78 9.79 0.00 0.04 -0.06 9633
0.16 0.30 0.32 -0.76 9.81 0.01 0.04 -0.06 9640
0.17 0.33 0.31 -0.77 9.82 0.00 0.05 -0.06 9648
0.16 0.31 0.31 -0.74 9.81 0.01 0.04 -0.06 9655
0.15 0.29 0.29 -0.75 9.79 0.00 0.04 -0.06 9662
0.16 0.27 0.31 -0.79 9.82 0.01 0.05 -0.06 9669
0.17 0.25 0.34 -0.80 9.80 0.01 0.04 -0.06 9676
0.23 0.21 0.31 -0.77 9.81 0.01 0.04 -0.06 9683
0.22 0.24 0.33 -0.75 9.80 0.01 0.05 -0.06 9691
0.22 0.24 0.31 -0.80 9.82 0.01 0.05 -0.07 9698
0.22 0.19 0.31 -0.78 9.82 0.01 0.04 -0.06 9705
0.26 0.15 0.29 -0.81 9.81 0.01 0.04 -0.07 9712
0.26 0.14 0.32 -0.78 9.81 0.01 0.05 -0.07 9719
0.27 0.12 0.31 -0.76 9.82 0.01 0.05 -0.06 9726
0.27 0.12 0.31 -0.77 9.81 0.02 0.05 -0.07 9734
0.29 0.06 0.29 -0.78 9.83 0.02 0.05 -0.07 9741
0.29 0.07 0.32 -0.79 10.41 0.02 0.05 -0.07 9748
0.28 0.02 0.29 -0.79 9.78 0.01 0.05 -0.07 9755
0.30 0.05 0.30 -0.77 9.80 0.02 0.05 -0.07 9762
0.32 0.03 0.31 -0.82 9.81 0.02 0.05 -0.07 9769
0.31 0.01 0.30 -0.77 9.81 0.02 0.05 -0.07 9777
0.32 -0.01 0.30 -0.79 9.79 0.01 0.05 -0.06 9784
0.33 0.01 0.32 -0.80 9.81 0.02 0.05 -0.07 9791
0.35 0.01 0.28 -0.84 9.82 0.02 0.05 -0.06 9798
0.36 0.00 0.32 -0.79 9.82 0.02 0.05 -0.07 9805
0.39 0.00 0.33 -0.84 9.82 0.02 0.06 -0.06 9812
0.42 -0.01 0.30 -0.81 9.82 0.02 0.05 -0.06 9820
0.42 -0.02 0.33 -0.80 9.81 0.02 0.05 -0.06 9827
0.41 -0.01 0.34 -0.84 9.81 0.02 0.06 -0.06 9834
0.41 -0.01 0.33 -0.81 9.81 0.02 0.05 -0.06 9841
0.40 -0.00 0.33 -0.85 9.84 0.03 0.05 -0.06 9848
0.40 -0.02 0.32 -0.85 9.82 0.03 0.06 -0.06 9856
0.40 -0.02 0.33 -0.80 9.84 0.04 0.06 -0.06 9863
0.40 -0.03 0.34 -0.83 9.86 0.05 0.07 -0.07 9870
0.41 -0.01 0.36 -0.88 9.86 0.06 0.08 -0.07 9877
0.41 -0.01 0.40 -0.91 9.88 0.08 0.09 -0.07 9884
0.42 -0.02 0.41 -0.91 9.85 0.09 0.11 -0.07 9891
0.43 -0.02 0.49 -0.98 9.93 0.12 0.13 -0.09 9899
0.44 -0.02 0.92 -0.80 9.89 0.15 0.17 -0.13 9906
0.44 -0.02 0.44 -0.86 10.12 0.22 0.21 -0.17 9914
0.43 -0.02 0.14 -0.79 11.96 0.56 0.33 -0.15 9921
0.44 -0.01 0.77 -1.14 10.88 0.99 0.41 -0.15 9928
0.45 -0.03 0.39 -1.09 11.38 1.08 0.47 -0.18 9934
0.45 -0.03 0.40 -1.14 11.24 1.05 0.37 -0.19 9943
0.43 -0.01 0.37 -1.38 10.92 1.09 0.33 -0.17 9950
0.40 0.01 0.26 -1.36 10.27 1.14 0.27 -0.16 9957
0.38 0.00 0.42 -1.36 10.29 1.12 0.17 -0.15 9964
0.36 0.02 0.40 -1.37 10.70 1.10 0.17 -0.14 9970
0.37 0.01 0.38 -1.55 10.67 1.11 0.21 -0.13 9978
0.32 -0.00 0.33 -1.62 10.64 1.17 0.20 -0.10 9986
0.29 -0.01 0.35 -1.69 10.98 1.26 0.20 -0.08 9992
0.24 0.00 0.26 -1.52 10.83 1.33 0.24 -0.06 9999
0.22 -0.00 -0.53 -1.04 9.68 1.33 0.15 -0.02 10006
0.16 0.01 0.50 -2.23 11.24 1.32 0.29 -0.01 10014
0.11 0.01 -0.09 -2.30 10.78 1.36 0.37 0.02 10020
0.11 0.02 0.09 -2.38 10.74 1.44 0.46 0.06 10028
0.07 0.01 0.31 -2.47 10.12 1.47 0.65 0.09 10035
0.06 0.01 -0.19 -2.69 10.03 1.44 0.74 0.12 10042
0.07 0.02 -0.30 -2.86 10.39 1.42 0.80 0.19 10049
0.10 0.00 -1.12 -3.29 10.32 1.40 0.88 0.26 10056
0.03 -0.00 -1.14 -3.39 9.93 1.36 0.93 0.35 10063
0.03 -0.00 -1.23 -3.83 9.48 1.32 0.82 0.47 10071
0.04 -0.00 -1.51 -3.78 9.61 1.26 0.67 0.56 10078
0.03 -0.00 -1.86 -3.89 9.80 1.23 0.44 0.69 10085
0.03 -0.00 -1.56 -3.63 9.67 1.20 0.18 0.81 10092
0.04 -0.00 -0.70 -3.39 9.98 1.15 -0.01 0.90 10099
0.04 -0.00 0.15 -3.21 10.53 1.09 -0.11 0.94 10106
0.04 -0.00 0.79 -3.10 10.59 1.03 -0.09 0.96 10114
0.02 -0.00 1.52 -3.02 10.94 0.98 -0.03 0.96 10121
0.03 -0.00 2.45 -2.93 10.86 0.94 0.11 0.92 10128
0.02 -0.00 2.07 -1.76 10.74 0.85 0.32 0.86 10135
0.02 -0.00 1.73 -0.60 9.56 0.76 0.50 0.72 10142
0.00 -0.00 0.74 0.02 9.04 0.61 0.54 0.51 10149
0.00 -0.00 -0.78 0.89 9.01 0.43 0.51 0.28 10157
0.00 0.00 -2.38 1.27 9.20 0.24 0.34 -0.14 10164
0.02 -0.00 -3.88 1.31 9.35 0.01 0.11 -0.62 10171
0.00 -0.00 -4.57 1.23 10.04 -0.14 -0.17 -1.27 10178
0.01 -0.00 -4.68 0.82 10.76 -0.21 -0.40 -1.94 10185
0.00 -0.00 -3.69 0.78 11.34 -0.30 -0.67 -2.37 10192
0.00 -0.00 -3.15 0.87 10.95 -0.50 -0.85 -2.81 10200
0.00 0.00 -2.05 1.06 10.23 -0.76 -0.96 -3.15 10207
0.00 0.00 -0.94 0.39 9.97 -0.94 -1.04 -3.46 10214
0.00 0.00 -0.35 -0.27 9.93 -1.03 -1.06 -3.71 10221
0.00 0.00 0.35 -0.63 9.83 -1.08 -1.03 -3.87 10228
0.00 0.00 1.00 -0.67 9.47 -1.08 -0.96 -3.98 10235
0.00 0.00 1.53 -0.60 8.99 -1.05 -0.90 -4.01 10243
0.00 0.00 2.14 -0.29 8.95 -1.01 -0.87 -3.98 10250
0.00 0.00 2.51 -0.10 9.04 -0.99 -0.86 -3.88 10257
0.00 -0.00 3.09 -0.17 9.75 -0.97 -0.87 -3.74 10264
0.00 -0.00 3.80 -0.25 9.24 -0.95 -0.87 -3.53 10271
0.00 -0.00 4.25 -0.41 9.16 -0.93 -0.84 -3.29 10278
0.00 0.00 4.62 -0.48 8.98 -0.92 -0.75 -3.06 10286
0.00 0.00 4.80 -0.67 8.70 -0.90 -0.59 -2.76 10293
0.00 0.00 4.95 -0.80 8.68 -0.86 -0.45 -2.48 10300
0.01 -0.00 4.95 -0.95 8.66 -0.82 -0.25 -2.16 10307
0.00 -0.00 4.89 -1.07 8.78 -0.78 -0.09 -1.84 10314
0.00 0.00 4.71 -1.14 8.96 -0.75 0.08 -1.56 10321
0.00 0.00 4.52 -1.25 9.27 -0.73 0.21 -1.26 10329
0.00 0.00 4.48 -1.43 9.61 -0.70 0.30 -1.01 10336
0.00 0.00 4.05 -1.36 9.27 -0.69 0.36 -0.74 10343
0.00 0.00 3.89 -1.64 9.41 -0.67 0.38 -0.50 10350
0.00 0.00 3.59 -1.82 9.50 -0.65 0.37 -0.33 10357
0.00 0.00 3.31 -2.14 9.53 -0.62 0.37 -0.16 10364
0.00 0.00 3.13 -2.31 9.47 -0.59 0.36 -0.01 10372
0.00 0.00 2.96 -2.50 9.59 -0.55 0.38 0.08 10379
0.00 0.00 2.93 -2.66 9.82 -0.52 0.38 0.18 10386
0.00 0.00 2.84 -2.63 9.76 -0.49 0.36 0.25 10393
0.00 0.00 2.76 -2.53 9.83 -0.47 0.34 0.32 10400
0.00 0.00 2.81 -3.05 9.86 -0.47 0.30 0.38 10407
0.00 0.00 2.87 -2.28 9.98 -0.48 0.26 0.45 10415
0.00 0.00 3.15 -2.41 10.12 -0.50 0.25 0.49 10422
0.00 0.00 3.27 -2.61 10.22 -0.51 0.28 0.53 10429
0.00 0.00 3.35 -2.77 9.87 -0.50 0.36 0.56 10436
0.00 0.00 3.40 -2.88 9.62 -0.49 0.46 0.58 10443
0.00 0.00 3.06 -2.67 9.25 -0.50 0.56 0.61 10450
0.00 0.00 2.77 -2.67 9.64 -0.50 0.59 0.65 10458
0.00 0.00 2.44 -2.84 9.91 -0.49 0.58 0.70 10465
0.01 -0.00 2.34 -2.54 9.81 -0.46 0.53 0.76 10472
0.00 0.00 2.39 -2.60 9.90 -0.44 0.48 0.83 10479
0.00 0.00 2.51 -2.59 9.87 -0.40 0.44 0.87 10486
0.00 0.00 2.67 -2.66 9.92 -0.37 0.45 0.92 10493
0.00 0.00 2.73 -2.74 10.13 -0.35 0.50 0.95 10501
0.00 0.00 2.75 -2.82 10.39 -0.34 0.59 0.97 10508
0.00 -0.00 2.65 -2.85 10.60 -0.36 0.72 1.00 10515
0.00 0.00 2.34 -2.86 10.44 -0.41 0.82 1.02 10522
0.00 0.00 1.79 -2.79 10.45 -0.46 0.92 1.06 10529
0.00 0.00 1.35 -2.81 10.47 -0.51 0.95 1.11 10536
0.00 0.00 0.71 -2.86 10.36 -0.53 0.91 1.16 10544
0.01 -0.00 0.21 -2.92 10.15 -0.52 0.78 1.22 10551
0.01 -0.00 0.05 -3.01 10.17 -0.49 0.65 1.27 10558
0.00 -0.00 0.23 -3.04 10.27 -0.46 0.52 1.30 10565
0.00 -0.00 0.34 -3.15 10.31 -0.44 0.46 1.32 10572
0.00 0.00 0.57 -3.19 10.35 -0.43 0.46 1.32 10579
0.00 0.00 0.57 -3.31 10.34 -0.44 0.53 1.29 10587
0.00 -0.00 0.39 -3.45 10.18 -0.46 0.62 1.27 10594
0.00 -0.00 -0.07 -3.67 10.18 -0.49 0.74 1.23 10601
0.00 0.00 -1.20 -3.87 10.08 -0.50 0.81 1.20 10608
0.00 0.00 -1.05 -4.12 10.07 -0.50 0.84 1.17 10615
0.00 0.00 -1.39 -4.42 10.10 -0.48 0.80 1.12 10622
0.00 0.00 -1.54 -4.54 10.13 -0.46 0.75 1.09 10630
0.00 -0.00 -1.59 -4.62 10.13 -0.45 0.67 1.05 10637
0.01 -0.00 -1.47 -4.70 10.01 -0.44 0.61 1.00 10644
0.00 -0.00 -1.36 -4.65 9.87 -0.44 0.59 0.97 10651
0.00 0.00 -1.30 -4.70 9.73 -0.42 0.59 0.95 10658
0.00 0.00 -1.41 -4.77 9.55 -0.41 0.60 0.94 10665
0.00 0.00 -1.56 -4.85 9.50 -0.37 0.62 0.94 10673
0.01 -0.00 -1.74 -4.94 9.37 -0.33 0.63 0.95 10680
0.00 -0.00 -1.93 -5.02 9.33 -0.29 0.62 0.96 10687
0.00 -0.00 -2.12 -5.10 9.29 -0.24 0.59 0.99 10694
0.00 0.00 -2.26 -5.17 9.20 -0.20 0.55 1.00 10701
0.00 0.00 -2.32 -5.12 9.06 -0.15 0.50 1.01 10708
0.00 0.00 -10.71 -6.04 8.65 0.24 -0.37 1.09 10716
0.01 -0.00 -4.44 -3.70 6.66 0.22 -0.63 1.07 10723
0.00 -0.00 -3.81 -5.94 8.67 0.32 -0.79 1.08 10730
0.00 0.00 -3.96 -6.79 9.20 0.35 -0.92 1.08 10737
0.00 0.00 -4.58 -6.73 9.15 0.48 -0.94 1.02 10744
0.00 -0.00 -2.77 -6.17 8.24 0.65 -0.73 1.01 10752
0.00 0.00 -4.16 -7.24 8.45 0.82 -0.60 1.02 10759
0.00 -0.00 -5.85 -7.42 8.19 0.98 -0.67 1.02 10766
0.00 -0.00 -7.17 -7.84 7.90 1.13 -0.89 1.02 10773
0.00 -0.00 -7.15 -5.94 8.60 1.36 -0.99 1.05 10780
0.00 0.00 -11.94 -1.59 15.48 0.33 -1.41 0.23 10787
-0.00 0.00 -2.72 -3.33 6.87 -0.12 0.01 -0.00 10795
-0.00 0.03 0.49 -1.30 10.45 -0.28 -0.07 -0.06 10802
-0.00 0.03 0.40 -0.55 9.24 -0.42 -0.18 -0.06 10809
-0.01 0.06 0.60 -1.42 11.68 -0.50 -0.20 -0.03 10816
-0.01 0.12 0.73 -0.83 10.29 -0.27 -0.05 -0.04 10823
-0.02 0.18 0.01 -0.83 10.23 -0.21 -0.07 -0.03 10830
-0.02 0.20 0.43 -0.82 10.02 -0.17 -0.05 -0.05 10838
-0.02 0.34 0.38 -0.74 9.98 -0.13 -0.04 -0.06 10845
-0.03 0.35 0.31 -0.83 9.86 -0.10 -0.02 -0.06 10852
-0.01 0.37 0.38 -0.82 9.89 -0.09 -0.00 -0.06 10859
-0.01 0.38 0.29 -0.77 9.82 -0.07 0.01 -0.06 10866
-0.02 0.37 0.27 -0.71 9.85 -0.06 0.02 -0.06 10873
-0.00 0.38 0.41 -0.80 9.81 -0.06 0.02 -0.06 10881
0.01 0.39 0.40 -0.81 9.83 -0.06 0.02 -0.05 10888
-0.01 0.43 0.40 -0.77 9.78 -0.05 0.01 -0.06 10895
-0.01 0.49 0.37 -0.76 9.81 -0.05 0.01 -0.05 10902
-0.02 0.48 0.34 -0.77 9.86 -0.06 0.00 -0.05 10909
-0.02 0.50 0.36 -0.79 9.80 -0.05 0.00 -0.06 10916
-0.01 0.56 0.39 -0.79 9.82 -0.05 0.00 -0.06 10924
-0.01 0.51 0.33 -0.74 9.84 -0.05 0.01 -0.05 10931
-0.00 0.56 0.34 -0.75 9.83 -0.04 0.01 -0.06 10938
-0.02 0.57 0.34 -0.75 9.88 -0.04 0.01 -0.06 10945
-0.02 0.67 0.34 -0.73 9.83 -0.03 0.01 -0.06 10952
0.00 0.66 0.34 -0.72 9.83 -0.02 0.02 -0.07 10959
0.01 0.66 0.33 -0.73 9.83 -0.02 0.01 -0.07 10967
0.02 0.66 0.38 -0.74 9.81 -0.01 0.01 -0.07 10974
0.02 0.64 0.36 -0.77 9.80 -0.01 0.01 -0.07 10981
0.05 0.62 0.34 -0.74 9.82 -0.01 0.01 -0.07 10988
0.05 0.63 0.33 -0.77 9.78 -0.01 0.01 -0.07 10995
0.06 0.61 0.31 -0.75 9.81 -0.01 0.01 -0.07 11002
0.07 0.62 0.30 -0.75 9.80 -0.01 0.01 -0.07 11010
0.09 0.60 0.26 -0.77 9.82 -0.01 0.01 -0.07 11017
0.12 0.58 0.28 -0.76 9.81 -0.00 0.01 -0.07 11024
0.09 0.57 0.32 -0.75 9.81 0.00 0.02 -0.07 11031
0.10 0.58 0.30 -0.74 9.81 -0.00 0.02 -0.07 11038
0.12 0.58 0.34 -0.74 9.82 -0.00 0.02 -0.07 11045
0.16 0.56 0.27 -0.73 9.81 0.00 0.02 -0.07 11053
0.16 0.55 0.32 -0.75 9.81 0.00 0.02 -0.07 11060
0.16 0.55 0.31 -0.74 9.82 0.00 0.02 -0.08 11067
0.17 0.52 0.34 -0.71 9.79 0.01 0.03 -0.07 11074
0.17 0.52 0.28 -0.74 9.81 0.00 0.03 -0.07 11081
0.18 0.50 0.24 -0.74 9.81 0.00 0.03 -0.07 11088
0.18 0.49 0.29 -0.77 10.41 0.00 0.03 -0.07 11096
0.18 0.48 0.29 -0.74 9.81 0.00 0.04 -0.07 11103
0.17 0.47 0.25 -0.77 9.79 0.00 0.04 -0.07 11110
0.15 0.49 0.32 -0.76 9.79 0.00 0.04 -0.07 11117
0.16 0.48 0.30 -0.74 9.80 0.00 0.04 -0.07 11124
0.17 0.49 0.29 -0.75 9.79 -0.00 0.04 -0.07 11131
0.19 0.48 0.29 -0.76 9.80 -0.00 0.05 -0.07 11139
0.18 0.47 0.33 -0.77 9.74 -0.00 0.05 -0.07 11146
0.17 0.46 0.29 -0.76 9.81 -0.00 0.05 -0.07 11153
0.17 0.46 0.32 -0.77 9.82 -0.01 0.05 -0.07 11160
0.17 0.47 0.31 -0.76 9.81 -0.00 0.05 -0.10 11167
0.18 0.47 0.29 -0.78 9.81 -0.00 0.05 -0.07 11174
0.19 0.46 0.29 -0.74 9.79 -0.00 0.05 -0.07 11182
0.18 0.45 0.28 -0.74 9.80 -0.00 0.05 -0.07 11189
0.17 0.43 0.33 -0.76 9.79 -0.00 0.05 -0.07 11196
0.17 0.43 0.29 -0.75 9.80 -0.00 0.05 -0.07 11203
0.18 0.43 0.28 -0.75 9.82 -0.00 0.05 -0.06 11210
0.19 0.42 0.31 -0.77 9.81 0.00 0.06 -0.07 11217
0.20 0.42 0.30 -0.75 9.81 -0.00 0.06 -0.07 11225
0.19 0.40 0.29 -0.74 9.81 -0.00 0.06 -0.07 11232
0.18 0.39 0.31 -0.74 9.83 0.00 0.06 -0.07 11239
0.18 0.41 0.33 -0.75 9.82 -0.00 0.06 -0.07 11246
0.19 0.42 0.31 -0.76 9.81 -0.00 0.07 -0.07 11253
0.19 0.39 0.28 -0.74 9.80 -0.00 0.06 -0.06 11260
0.19 0.38 0.30 -0.73 9.82 -0.00 0.07 -0.06 11268
0.19 0.39 0.33 -0.74 9.77 -0.00 0.07 -0.06 11275
0.17 0.38 0.33 -0.72 9.82 -0.00 0.07 -0.06 11282
0.17 0.39 0.37 -0.78 9.80 0.03 0.07 -0.07 11289
0.19 0.36 0.32 -0.76 9.81 -0.00 0.07 -0.07 11296
0.20 0.34 0.32 -0.73 9.81 0.01 0.07 -0.06 11303
0.20 0.32 0.36 -0.72 9.80 0.00 0.06 -0.07 11311
0.19 0.35 0.35 -0.74 10.42 0.00 0.07 -0.07 11318
0.19 0.36 0.34 -0.74 9.81 -0.00 0.06 -0.07 11325
0.19 0.34 0.32 -0.76 9.82 -0.00 0.06 -0.07 11332
0.19 0.37 0.35 -0.73 9.81 -0.00 0.06 -0.07 11339
0.20 0.31 0.36 -0.79 9.80 0.00 0.05 -0.07 11346
0.20 0.33 0.35 -0.74 9.81 0.00 0.05 -0.07 11354
0.20 0.31 0.37 -0.76 9.79 0.01 0.05 -0.06 11361
0.19 0.31 0.34 -0.73 9.78 0.01 0.05 -0.07 11368
0.20 0.32 0.36 -0.76 9.81 0.01 0.05 -0.07 11375
0.23 0.27 0.33 -0.78 9.79 0.01 0.04 -0.07 11382
0.26 0.26 0.36 -0.80 9.77 0.01 0.05 -0.06 11389
0.26 0.21 0.35 -0.81 9.83 0.01 0.05 -0.07 11397
0.24 0.19 0.32 -0.79 9.82 0.01 0.05 -0.06 11404
0.23 0.18 0.35 -0.79 9.78 0.01 0.05 -0.07 11411
0.26 0.20 0.34 -0.76 9.81 0.02 0.05 -0.07 11418
0.27 0.16 0.31 -0.78 9.83 0.01 0.05 -0.07 11425
0.26 0.16 0.38 -0.76 9.82 0.01 0.05 -0.07 11432
0.27 0.16 0.34 -0.80 9.80 0.01 0.05 -0.06 11440
0.30 0.09 0.34 -0.78 9.20 0.01 0.05 -0.06 11447
0.29 0.11 0.30 -0.78 9.82 0.01 0.05 -0.07 11454
0.30 0.06 0.35 -0.79 9.81 0.02 0.05 -0.07 11461
0.33 0.06 0.34 -0.77 9.82 0.01 0.05 -0.07 11468
0.32 0.06 0.36 -0.77 9.81 0.01 0.05 -0.07 11475
0.35 0.03 0.37 -0.83 9.20 0.02 0.05 -0.07 11483
0.35 -0.01 0.30 -0.89 9.82 0.02 0.05 -0.07 11490
0.34 0.01 0.34 -0.79 9.81 0.02 0.05 -0.07 11497
0.38 0.02 0.33 -0.80 9.81 0.03 0.05 -0.07 11504
0.40 0.01 0.40 -0.82 9.82 0.02 0.05 -0.08 11511
0.39 -0.01 0.37 -0.82 9.82 0.03 0.05 -0.07 11518
0.38 -0.02 0.37 -0.81 9.85 0.04 0.05 -0.07 11526
0.39 -0.02 0.37 -0.75 9.87 0.04 0.05 -0.07 11533
0.43 -0.01 0.36 -0.81 9.86 0.06 0.06 -0.08 11540
0.44 -0.00 0.38 -0.83 9.84 0.07 0.06 -0.07 11547
0.47 -0.02 0.43 -0.84 9.85 0.08 0.07 -0.08 11554
0.45 -0.02 0.36 -0.85 9.89 0.11 0.08 -0.08 11561
0.44 -0.03 0.48 -0.94 9.91 0.12 0.13 -0.09 11569
0.42 -0.01 0.70 -0.99 10.00 0.16 0.13 -0.10 11576
0.47 -0.02 0.68 -0.95 10.05 0.23 0.12 -0.13 11584
0.47 -0.01 1.14 -0.87 10.42 0.34 0.20 -0.26 11591
0.51 -0.02 0.31 -0.87 11.19 0.88 0.32 -0.20 11598
0.51 -0.01 0.82 -1.19 13.16 1.24 0.36 -0.24 11606
0.48 -0.02 0.37 -1.22 11.18 1.26 0.30 -0.26 11613
0.47 -0.02 0.54 -1.23 10.94 1.24 0.31 -0.26 11620
0.46 -0.02 0.07 -1.14 11.03 1.29 0.29 -0.25 11627
0.45 -0.02 0.38 -1.30 10.52 1.35 0.29 -0.23 11634
0.42 -0.02 0.32 -1.46 9.69 1.37 0.26 -0.21 11640
0.35 -0.02 0.20 -1.56 10.40 1.35 0.18 -0.18 11649
0.31 -0.00 0.32 -1.72 10.17 1.33 0.22 -0.15 11656
0.28 0.01 0.25 -1.89 10.47 1.35 0.25 -0.12 11663
0.26 0.01 0.88 -2.88 9.97 1.33 0.17 -0.08 11669
0.23 0.00 0.79 -1.97 9.91 1.23 0.24 -0.05 11676
0.20 0.00 -0.03 -2.09 10.44 1.22 0.35 -0.06 11683
0.14 0.00 0.29 -2.28 11.13 1.31 0.31 -0.00 11691
0.11 0.00 0.57 -2.51 11.14 1.40 0.48 0.01 11698
0.11 0.00 0.39 -2.56 10.52 1.50 0.60 0.02 11705
0.10 0.02 0.47 -2.72 10.20 1.55 0.69 0.04 11712
0.09 0.02 0.38 -3.01 10.44 1.52 0.76 0.07 11719
0.05 0.01 0.10 -3.28 10.41 1.49 0.86 0.09 11726
0.03 0.02 0.26 -3.38 10.50 1.45 0.96 0.14 11734
0.01 0.02 0.49 -3.38 10.05 1.39 1.03 0.17 11741
0.02 0.01 0.29 -3.30 9.82 1.34 1.04 0.19 11748
0.01 0.03 0.06 -3.44 9.82 1.29 0.99 0.24 11755
0.02 0.02 0.01 -3.56 9.86 1.22 0.90 0.28 11762
0.02 0.01 0.75 -3.79 10.68 1.15 0.79 0.32 11769
0.01 0.00 1.31 -3.90 10.91 1.04 0.74 0.35 11777
-0.00 0.01 1.63 -4.16 11.59 0.91 0.81 0.38 11784
0.01 0.01 1.58 -2.31 11.13 0.79 0.94 0.32 11791
0.01 0.01 1.04 -1.68 9.81 0.69 0.92 0.24 11798
0.02 0.01 0.22 -0.69 8.73 0.59 0.83 0.13 11805
0.01 -0.00 -0.35 0.34 8.28 0.49 0.66 -0.03 11812
0.00 -0.00 -1.08 1.15 8.16 0.38 0.35 -0.22 11820
0.00 0.00 -1.72 1.66 8.41 0.27 0.03 -0.51 11827
0.00 0.00 -2.21 1.61 8.67 0.13 -0.31 -0.84 11834
0.01 -0.00 -2.17 1.81 9.55 -0.02 -0.60 -1.29 11841
0.00 0.00 -1.79 1.65 10.05 -0.13 -0.77 -1.83 11848
0.00 0.00 -0.98 1.13 9.82 -0.24 -0.93 -2.23 11855
0.00 0.00 -0.58 0.81 10.43 -0.35 -1.05 -2.65 11863
0.00 0.00 -0.10 0.75 10.38 -0.54 -1.07 -2.96 11870
0.00 0.00 0.63 0.50 10.09 -0.73 -1.05 -3.27 11877
0.01 -0.00 1.13 -0.04 9.87 -0.81 -1.01 -3.49 11884
0.00 0.00 1.44 -0.40 9.70 -0.88 -0.95 -3.63 11891
0.00 0.00 1.85 -0.93 9.86 -0.92 -0.89 -3.72 11898
0.00 0.00 2.18 -1.16 9.58 -0.94 -0.82 -3.75 11906
0.00 0.00 2.60 -1.20 9.08 -0.93 -0.74 -3.70 11913
0.00 0.00 2.81 -1.22 8.98 -0.91 -0.67 -3.58 11920
0.01 -0.00 2.96 -1.24 8.79 -0.86 -0.60 -3.42 11927
0.00 0.00 3.10 -1.27 8.75 -0.81 -0.57 -3.20 11934
0.00 0.00 3.23 -1.29 8.62 -0.73 -0.56 -3.00 11941
0.00 0.00 3.29 -1.39 8.52 -0.63 -0.55 -2.77 11949
0.00 0.00 3.25 -1.50 8.62 -0.54 -0.57 -2.53 11956
0.00 0.00 3.34 -1.51 9.00 -0.45 -0.57 -2.33 11963
0.00 -0.00 3.59 -1.49 9.37 -0.40 -0.54 -2.10 11970
0.00 0.00 3.68 -1.37 9.47 -0.39 -0.48 -1.86 11977
0.00 -0.00 3.73 -1.36 9.61 -0.43 -0.36 -1.65 11984
0.00 0.00 3.60 -1.35 9.58 -0.49 -0.23 -1.40 11992
0.00 0.00 3.39 -1.47 9.52 -0.57 -0.09 -1.18 11999
0.00 -0.00 3.21 -1.69 9.45 -0.62 0.02 -0.94 12006
0.00 -0.00 2.93 -1.98 9.31 -0.62 0.09 -0.71 12013
0.00 -0.00 2.65 -2.14 8.83 -0.58 0.15 -0.52 12020
0.00 0.00 2.44 -1.96 8.72 -0.54 0.21 -0.30 12027
0.00 0.00 2.03 -1.84 8.66 -0.48 0.24 -0.14 12035
0.00 0.00 1.69 -1.81 9.24 -0.42 0.26 0.04 12042
0.01 -0.00 1.41 -1.60 9.56 -0.40 0.27 0.21 12049
0.00 0.00 1.04 -1.53 9.87 -0.40 0.24 0.33 12056
0.00 0.00 0.81 -1.54 10.08 -0.40 0.19 0.44 12063
0.00 0.00 0.74 -1.53 10.21 -0.43 0.16 0.52 12070
0.00 0.00 0.67 -1.70 10.01 -0.45 0.16 0.58 12078
0.00 0.00 0.50 -1.74 9.82 -0.49 0.18 0.61 12085
0.01 -0.00 0.34 -1.85 10.41 -0.51 0.22 0.61 12092
0.00 -0.00 0.31 -2.10 9.83 -0.52 0.27 0.60 12099
0.00 0.00 0.25 -2.27 9.81 -0.52 0.33 0.58 12106
0.00 0.00 0.03 -2.24 9.51 -0.53 0.39 0.55 12113
0.00 0.00 -0.07 -2.24 9.60 -0.54 0.40 0.52 12121
0.00 -0.00 -0.12 -2.51 9.97 -0.56 0.35 0.50 12128
0.00 -0.00 -0.10 -2.54 9.87 -0.57 0.29 0.47 12135
0.00 -0.00 0.17 -2.51 9.98 -0.58 0.23 0.46 12142
0.00 0.00 0.65 -2.69 10.02 -0.58 0.18 0.43 12149
0.00 0.00 1.06 -2.71 9.88 -0.56 0.19 0.40 12156
0.00 0.00 1.28 -2.73 9.82 -0.53 0.24 0.37 12164
0.00 0.00 1.44 -2.63 9.82 -0.50 0.34 0.34 12171
0.00 0.00 1.56 -2.41 9.88 -0.50 0.43 0.33 12178
0.00 0.00 1.48 -2.32 10.12 -0.53 0.58 0.34 12185
0.00 0.00 1.02 -2.07 10.27 -0.58 0.70 0.41 12192
0.00 0.00 0.63 -2.06 10.45 -0.62 0.74 0.49 12199
0.00 0.00 0.18 -2.14 10.38 -0.64 0.71 0.61 12207
0.00 0.00 0.01 -2.36 10.26 -0.64 0.63 0.73 12214
0.00 0.00 0.12 -2.62 10.21 -0.64 0.49 0.82 12221
0.00 0.00 0.38 -2.88 10.13 -0.63 0.40 0.90 12228
0.00 0.00 0.68 -3.09 10.02 -0.61 0.36 0.95 12235
0.00 0.00 0.98 -3.24 9.93 -0.58 0.38 0.98 12242
0.00 0.00 1.07 -3.29 9.81 -0.57 0.44 0.98 12250
0.00 -0.00 0.97 -3.26 9.82 -0.55 0.52 0.97 12257
0.00 0.00 0.76 -3.33 9.83 -0.54 0.59 0.94 12264
0.00 0.00 0.55 -3.35 9.84 -0.54 0.62 0.91 12271
0.00 0.00 0.32 -3.41 9.84 -0.54 0.63 0.87 12278
0.00 0.00 0.11 -3.42 9.78 -0.53 0.62 0.84 12285
0.00 0.00 -0.04 -3.42 9.73 -0.53 0.61 0.81 12293
0.00 0.00 -0.08 -3.40 9.65 -0.51 0.61 0.80 12300
0.00 0.00 -0.24 -3.41 9.66 -0.50 0.60 0.80 12307
0.00 0.00 -0.39 -3.41 9.72 -0.47 0.59 0.82 12314
0.00 0.00 -0.55 -3.51 9.77 -0.45 0.57 0.82 12321
0.00 0.00 -0.71 -3.67 9.75 -0.42 0.54 0.82 12328
0.00 0.00 -0.83 -3.81 9.78 -0.40 0.49 0.80 12336
0.00 0.00 -0.85 -3.91 9.68 -0.38 0.45 0.77 12343
0.00 0.00 -0.81 -3.96 9.62 -0.35 0.42 0.74 12350
0.00 0.00 -0.77 -4.06 9.61 -0.34 0.40 0.69 12357
0.00 0.00 -0.67 -4.15 9.59 -0.32 0.42 0.61 12364
0.00 0.00 -0.58 -4.21 9.58 -0.31 0.45 0.57 12371
0.00 0.00 -0.64 -4.28 9.61 -0.31 0.50 0.50 12379
0.00 0.00 -0.81 -4.35 9.46 -0.31 0.58 0.44 12386
0.00 0.00 -1.14 -4.40 9.31 -0.30 0.65 0.40 12393
0.00 0.00 -1.46 -4.46 9.30 -0.28 0.69 0.37 12400
0.00 0.00 -1.83 -4.68 9.27 -0.26 0.69 0.35 12407
0.00 0.00 -2.00 -4.80 9.21 -0.23 0.60 0.34 12414
0.00 0.00 -2.05 -4.99 9.14 -0.20 0.49 0.33 12422
0.00 0.00 -1.75 -5.17 9.01 -0.16 0.33 0.32 12429
0.00 0.00 -11.05 -12.46 10.37 -0.11 0.22 0.32 12436
0.00 0.00 -3.54 -5.66 9.05 0.21 -0.66 0.36 12443
0.00 0.00 -3.08 -6.49 7.11 0.22 -0.93 0.34 12450
0.00 0.00 -2.73 -7.80 9.03 0.41 -1.03 0.50 12457
0.00 -0.00 -0.69 -5.51 12.66 0.65 -0.69 0.67 12465
0.00 0.00 -3.22 -7.22 9.02 0.65 -0.41 0.73 12472
0.00 -0.00 -4.45 -7.85 9.87 0.82 -0.46 0.89 12479
0.00 0.00 -20.79 -10.11 10.45 0.37 -1.14 0.82 12486
0.00 0.00 -6.85 -7.19 6.69 0.21 -0.60 0.58 12493
-0.00 0.01 -2.76 -3.31 6.10 -0.04 -0.57 0.24 12500
0.00 -0.00 -5.54 -3.11 7.50 -0.19 -0.11 0.10 12508
0.00 0.00 -2.74 -2.31 6.75 -0.16 0.46 -0.06 12515
0.00 0.00 -0.22 0.44 10.44 -0.15 0.83 -0.02 12522
0.00 0.00 1.28 -0.49 12.02 -0.22 0.41 0.00 12529
0.00 0.00 0.82 -0.73 9.74 -0.17 0.05 -0.00 12536
-0.00 0.01 0.82 -0.80 9.85 -0.14 -0.02 -0.01 12544
0.01 0.01 0.64 -0.84 10.08 -0.14 -0.02 -0.02 12551
0.00 0.01 0.46 -0.86 9.87 -0.14 -0.03 -0.03 12558
0.00 0.00 0.41 -0.79 9.93 -0.14 -0.02 -0.04 12565
-0.00 0.03 0.39 -0.95 9.91 -0.11 -0.01 -0.04 12572
0.02 0.02 0.31 -0.91 9.83 -0.10 0.00 -0.05 12579
0.04 0.02 0.33 -0.89 9.89 -0.08 0.00 -0.04 12587
0.08 0.03 0.37 -0.84 9.83 -0.07 0.00 -0.04 12594
0.07 0.03 0.31 -0.82 9.75 -0.06 0.00 -0.04 12601
0.07 0.03 0.45 -0.87 9.82 -0.05 -0.00 -0.04 12608
0.05 0.04 0.50 -0.95 9.83 -0.05 -0.01 -0.05 12615
0.07 0.07 0.48 -0.88 9.86 -0.04 -0.01 -0.06 12622
0.09 0.03 0.44 -0.88 9.81 -0.04 -0.01 -0.07 12630
0.08 0.04 0.50 -0.80 9.83 -0.04 -0.01 -0.07 12637
0.10 0.05 0.36 -0.81 9.83 -0.05 -0.01 -0.07 12644
0.10 0.06 0.32 -0.86 9.80 -0.05 -0.00 -0.08 12651
0.12 0.05 0.30 -0.84 9.79 -0.06 -0.00 -0.08 12658
0.12 0.05 0.29 -0.78 9.79 -0.06 0.00 -0.08 12665
0.13 0.05 0.26 -0.80 9.79 -0.05 0.01 -0.07 12673
0.10 0.08 0.25 -0.79 9.72 -0.06 0.02 -0.07 12680
0.11 0.14 0.31 -0.77 9.77 -0.06 0.02 -0.06 12687
0.12 0.12 0.32 -0.79 9.76 -0.06 0.03 -0.06 12694
0.11 0.19 0.33 -0.79 9.79 -0.06 0.03 -0.06 12701
0.12 0.18 0.29 -0.78 9.73 -0.06 0.03 -0.05 12708
0.14 0.18 0.35 -0.78 9.80 -0.06 0.03 -0.05 12716
0.14 0.19 0.34 -0.78 9.80 -0.06 0.03 -0.05 12723
0.13 0.25 0.38 -0.78 9.83 -0.05 0.03 -0.05 12730
0.14 0.26 0.39 -0.77 9.81 -0.05 0.04 -0.05 12737
0.16 0.25 0.37 -0.75 9.81 -0.04 0.03 -0.06 12744
0.18 0.31 0.37 -0.79 9.83 -0.04 0.04 -0.06 12751
0.20 0.31 0.35 -0.74 9.82 -0.03 0.03 -0.06 12759
0.20 0.27 0.31 -0.72 9.82 -0.03 0.03 -0.06 12766
0.21 0.28 0.33 -0.72 9.83 -0.03 0.04 -0.06 12773
0.19 0.29 0.32 -0.71 9.84 -0.01 0.04 -0.05 12780
0.21 0.30 0.33 -0.75 9.86 -0.01 0.05 -0.06 12787
0.23 0.30 0.36 -0.74 9.82 -0.00 0.05 -0.07 12794
0.22 0.30 0.38 -0.72 9.83 0.03 0.05 -0.06 12802
0.21 0.29 0.32 -0.72 9.85 0.01 0.05 -0.06 12809
0.24 0.28 0.36 -0.74 9.83 0.01 0.05 -0.06 12816
0.23 0.28 0.34 -0.75 9.82 0.01 0.05 -0.07 12823
0.24 0.26 0.33 -0.76 10.42 0.02 0.05 -0.06 12830
0.24 0.26 0.35 -0.73 9.84 0.03 0.05 -0.06 12837
0.26 0.22 0.29 -0.74 9.81 0.02 0.05 -0.07 12845
0.26 0.21 0.33 -0.76 9.80 0.03 0.05 -0.07 12852
0.25 0.13 0.29 -0.81 9.77 0.03 0.05 -0.07 12859
0.26 0.14 0.35 -0.77 9.79 0.03 0.06 -0.06 12866
0.26 0.11 0.35 -0.76 9.82 0.02 0.05 -0.06 12873
0.28 0.06 0.34 -0.79 9.79 0.03 0.05 -0.06 12880
0.28 0.04 0.32 -0.76 9.81 0.02 0.05 -0.06 12888
0.28 0.03 0.32 -0.75 9.82 0.02 0.05 -0.06 12895
0.27 -0.00 0.36 -0.79 9.79 0.02 0.05 -0.06 12902
0.27 -0.01 0.39 -0.80 9.81 0.02 0.05 -0.06 12909
0.29 0.01 0.35 -0.77 9.81 0.02 0.05 -0.06 12916
0.30 0.00 0.34 -0.80 9.78 0.02 0.05 -0.06 12923
0.32 0.00 0.35 -0.78 9.76 0.02 0.04 -0.06 12931
0.33 -0.00 0.36 -0.80 9.81 0.01 0.05 -0.06 12938
0.33 -0.00 0.39 -0.79 9.81 0.01 0.04 -0.06 12945
0.35 0.00 0.38 -0.75 9.80 0.01 0.05 -0.06 12952
0.36 0.00 0.40 -0.76 9.20 0.01 0.05 -0.06 12959
0.36 0.01 0.35 -0.79 9.78 0.00 0.04 -0.06 12966
0.36 0.02 0.38 -0.81 9.81 -0.00 0.04 -0.06 12974
0.35 -0.00 0.35 -0.81 9.80 -0.01 0.04 -0.06 12981
0.35 -0.01 0.37 -0.79 9.81 -0.01 0.04 -0.07 12988
0.35 0.01 0.35 -0.80 9.79 -0.01 0.04 -0.06 12995
0.36 0.01 0.36 -0.76 9.80 -0.01 0.04 -0.06 13002
0.36 0.01 0.35 -0.80 9.79 -0.01 0.04 -0.07 13009
0.35 -0.01 0.35 -0.80 9.82 -0.01 0.04 -0.06 13017
0.34 -0.01 0.33 -0.80 9.82 -0.00 0.03 -0.07 13024
0.34 -0.00 0.31 -0.79 9.81 -0.00 0.04 -0.06 13031
0.36 0.01 0.34 -0.78 9.82 0.00 0.04 -0.06 13038
0.37 0.00 0.34 -0.80 9.83 0.00 0.04 -0.06 13045
0.39 -0.00 0.33 -0.79 9.80 0.00 0.05 -0.07 13052
0.37 -0.01 0.34 -0.78 9.81 0.01 0.04 -0.06 13060
0.37 -0.00 0.32 -0.82 9.80 0.00 0.04 -0.06 13067
0.36 -0.00 0.32 -0.80 9.81 0.00 0.04 -0.06 13074
0.38 0.01 0.37 -0.81 9.77 0.01 0.05 -0.06 13081
0.39 0.00 0.32 -0.79 9.80 0.00 0.05 -0.07 13088
0.39 0.00 0.33 -0.88 9.81 0.00 0.05 -0.07 13095
0.37 -0.01 0.39 -0.80 9.80 0.00 0.05 -0.07 13103
0.37 -0.00 0.37 -0.80 9.81 0.01 0.05 -0.06 13110
0.37 -0.00 0.33 -0.78 9.78 0.01 0.05 -0.07 13117
0.38 0.01 0.33 -0.78 9.82 0.01 0.05 -0.06 13124
0.39 0.00 0.35 -0.80 9.80 0.01 0.05 -0.07 13131
0.37 0.01 0.34 -0.84 9.80 0.00 0.05 -0.07 13138
0.38 0.00 0.28 -0.78 9.80 0.01 0.05 -0.06 13146
0.36 0.00 0.33 -0.80 9.81 0.01 0.05 -0.06 13153
0.37 -0.01 0.36 -0.81 9.80 0.01 0.05 -0.06 13160
0.38 -0.01 0.34 -0.80 9.82 0.01 0.05 -0.06 13167
0.39 -0.02 0.33 -0.81 9.83 0.01 0.05 -0.06 13174
0.39 -0.02 0.34 -0.82 10.41 0.02 0.06 -0.06 13181
0.41 -0.03 0.36 -0.85 9.81 0.02 0.06 -0.06 13189
0.41 -0.02 0.37 -0.85 9.78 0.03 0.06 -0.06 13196
0.40 -0.02 0.38 -0.84 9.80 0.04 0.07 -0.06 13203
0.42 -0.02 0.35 -0.84 9.82 0.04 0.07 -0.06 13210
0.44 -0.03 0.42 -0.85 9.82 0.04 0.08 -0.06 13217
0.45 -0.03 0.40 -0.88 9.84 0.05 0.08 -0.05 13224
0.47 -0.03 0.42 -0.86 9.95 0.08 0.10 -0.05 13232
0.48 -0.02 0.45 -0.89 9.99 0.10 0.11 -0.06 13239
0.49 -0.01 0.45 -0.86 10.01 0.13 0.13 -0.08 13246
0.53 -0.03 0.83 -0.91 9.93 0.17 0.15 -0.13 13253
0.52 -0.03 0.75 -0.93 10.26 0.25 0.19 -0.14 13261
0.52 -0.03 0.18 -0.83 11.47 0.57 0.31 -0.11 13268
0.52 -0.03 0.53 -1.18 11.38 1.05 0.35 -0.10 13275
0.52 -0.01 0.65 -1.16 12.58 1.13 0.31 -0.14 13283
0.50 -0.01 0.46 -1.20 11.55 1.12 0.23 -0.17 13290
0.49 -0.03 0.60 -1.27 11.37 1.21 0.16 -0.17 13297
0.48 -0.02 0.41 -1.23 10.78 1.30 0.10 -0.17 13304
0.44 -0.02 0.25 -1.35 10.54 1.31 0.10 -0.15 13312
0.41 -0.01 0.21 -1.44 10.65 1.31 0.15 -0.14 13319
0.40 -0.01 0.27 -1.62 10.00 1.35 0.14 -0.10 13325
0.37 -0.01 0.15 -1.64 10.28 1.37 0.15 -0.08 13333
0.35 -0.01 0.26 -2.03 9.89 1.39 0.20 -0.06 13339
0.29 -0.01 0.77 -1.94 8.76 1.38 0.22 -0.04 13346
0.22 -0.02 -0.55 -2.12 8.90 1.33 0.16 0.00 13353
0.17 -0.01 0.58 -2.35 10.70 1.34 0.36 0.02 13361
0.16 -0.00 0.14 -2.36 11.41 1.45 0.50 0.04 13368
0.13 0.01 0.09 -2.58 10.68 1.54 0.60 0.08 13375
0.12 0.00 0.40 -2.67 10.14 1.58 0.73 0.10 13382
0.05 0.01 -0.02 -3.01 10.29 1.56 0.83 0.14 13389
0.03 0.01 -0.05 -3.11 10.91 1.57 0.93 0.19 13396
0.05 0.02 -0.04 -3.39 10.70 1.58 0.97 0.23 13404
0.05 0.02 -0.66 -3.77 10.59 1.54 1.03 0.30 13411
0.07 0.01 -0.88 -3.85 10.84 1.55 0.97 0.37 13418
0.03 0.01 -0.83 -3.87 10.39 1.51 0.86 0.45 13426
0.03 0.01 -1.06 -3.76 10.07 1.48 0.68 0.52 13432
0.03 0.01 -0.71 -3.79 10.14 1.42 0.48 0.59 13441
0.02 0.01 -0.09 -3.84 10.62 1.32 0.27 0.65 13447
0.04 0.02 0.38 -3.94 10.53 1.24 0.15 0.67 13454
0.04 -0.00 0.77 -3.69 10.97 1.14 0.01 0.67 13461
0.02 -0.00 1.91 -2.92 11.06 1.04 -0.05 0.64 13468
0.00 -0.00 2.36 -2.96 10.89 0.89 0.04 0.60 13475
0.00 0.00 2.28 -1.73 10.05 0.80 0.15 0.46 13483
0.00 0.00 1.95 -0.79 8.94 0.68 0.22 0.26 13490
0.01 -0.00 0.28 -0.28 8.73 0.53 0.27 -0.01 13497
0.00 -0.00 -1.42 -0.05 8.51 0.37 0.23 -0.53 13504
0.02 -0.00 -2.51 -0.07 8.69 0.18 0.11 -1.05 13511
0.02 -0.00 -3.52 0.31 9.30 0.05 -0.04 -1.64 13518
0.00 0.00 -3.78 0.56 9.82 -0.01 -0.20 -2.21 13526
0.00 0.00 -3.54 0.59 9.92 -0.08 -0.43 -2.66 13533
0.00 0.00 -3.08 0.69 9.72 -0.14 -0.70 -3.00 13540
0.00 0.00 -2.92 0.84 9.31 -0.31 -0.91 -3.23 13547
0.00 0.00 -2.12 0.89 8.89 -0.48 -1.12 -3.46 13554
0.00 0.00 -0.69 0.32 8.86 -0.55 -1.34 -3.63 13561
0.00 0.00 -0.54 -0.33 9.02 -0.57 -1.51 -3.74 13569
0.00 0.00 0.32 -0.96 9.23 -0.55 -1.63 -3.81 13576
0.01 -0.00 1.33 -1.21 9.49 -0.51 -1.64 -3.82 13583
0.01 -0.00 2.75 -1.14 9.67 -0.48 -1.53 -3.78 13590
0.00 0.00 3.76 -0.91 9.76 -0.48 -1.24 -3.68 13597
0.00 0.00 4.28 -0.78 9.75 -0.54 -0.93 -3.56 13604
0.00 0.00 4.50 -0.61 9.67 -0.66 -0.49 -3.40 13612
0.00 -0.00 4.18 -0.68 9.64 -0.78 -0.14 -3.20 13619
0.00 0.00 3.90 -0.97 9.48 -0.92 0.17 -3.01 13626
0.00 0.00 3.55 -1.36 9.36 -1.00 0.32 -2.79 13633
0.00 0.00 3.25 -1.66 8.69 -1.03 0.35 -2.59 13640
0.00 0.00 3.09 -1.98 8.77 -1.01 0.30 -2.34 13647
0.00 0.00 3.11 -2.23 8.36 -0.96 0.20 -2.09 13655
0.00 0.00 3.31 -2.37 8.26 -0.88 0.09 -1.89 13662
0.00 0.00 3.52 -2.51 8.32 -0.80 0.02 -1.65 13669
0.00 0.00 3.63 -2.63 8.72 -0.73 0.01 -1.48 13676
0.00 0.00 3.60 -2.84 8.80 -0.66 0.02 -1.27 13683
0.00 0.00 3.32 -2.81 8.76 -0.61 0.05 -1.07 13690
0.00 0.00 2.97 -2.85 8.79 -0.55 0.10 -0.89 13698
0.00 0.00 2.68 -2.97 9.02 -0.52 0.17 -0.69 13705
0.00 0.00 2.67 -3.09 9.35 -0.50 0.24 -0.51 13712
0.00 0.00 2.60 -3.23 9.54 -0.51 0.35 -0.37 13719
0.00 0.00 2.46 -3.35 9.64 -0.55 0.45 -0.22 13726
0.00 0.00 2.28 -3.44 9.57 -0.59 0.53 -0.11 13733
0.00 0.00 2.05 -3.56 9.39 -0.62 0.55 0.00 13741
0.00 0.00 1.94 -3.70 9.19 -0.62 0.54 0.09 13748
0.00 0.00 1.93 -3.78 9.10 -0.59 0.49 0.16 13755
0.00 0.00 2.03 -3.80 9.13 -0.55 0.44 0.21 13762
0.00 0.00 2.11 -3.78 9.11 -0.49 0.40 0.24 13769
0.00 0.00 2.20 -3.63 9.03 -0.45 0.40 0.28 13776
0.00 0.00 2.27 -3.39 9.09 -0.42 0.43 0.33 13784
0.00 0.00 2.09 -3.25 9.24 -0.40 0.48 0.38 13791
0.00 0.00 1.89 -3.25 9.52 -0.39 0.55 0.45 13798
0.00 0.00 1.51 -3.09 9.41 -0.41 0.59 0.56 13805
0.00 0.00 1.27 -3.08 9.65 -0.46 0.58 0.62 13812
0.00 0.00 0.62 -3.20 9.99 -0.50 0.56 0.71 13819
0.00 0.00 1.15 -3.27 10.05 -0.55 0.51 0.80 13827
0.00 0.00 1.20 -3.28 10.08 -0.60 0.46 0.90 13834
0.00 0.00 1.39 -3.36 10.06 -0.58 0.42 0.98 13841
0.00 0.00 1.49 -3.45 10.03 -0.55 0.42 1.05 13848
0.00 0.00 1.56 -3.48 9.85 -0.52 0.45 1.09 13855
0.00 0.00 1.53 -3.46 9.81 -0.48 0.50 1.12 13862
0.00 0.00 1.41 -3.41 9.82 -0.46 0.56 1.12 13870
0.00 -0.00 1.27 -3.40 9.98 -0.44 0.60 1.12 13877
0.00 0.00 1.01 -3.39 10.06 -0.44 0.65 1.10 13884
0.00 0.00 0.76 -3.42 10.07 -0.43 0.69 1.07 13891
0.00 0.00 0.52 -3.38 10.00 -0.44 0.70 1.04 13898
0.00 0.00 0.18 -3.26 10.00 -0.44 0.72 1.00 13905
0.00 0.00 -0.10 -3.11 10.01 -0.44 0.73 0.97 13913
0.00 0.00 -0.36 -2.97 10.19 -0.44 0.73 0.95 13920
0.00 0.00 -0.54 -2.81 10.37 -0.44 0.73 0.94 13927
0.00 0.00 -0.80 -2.71 10.56 -0.46 0.71 0.93 13934
0.00 0.00 -0.90 -2.65 10.47 -0.47 0.65 0.92 13941
0.00 0.00 -0.98 -2.61 10.36 -0.50 0.57 0.90 13948
0.00 0.00 -0.98 -2.60 10.28 -0.51 0.57 0.87 13956
0.00 0.00 -1.03 -2.69 10.11 -0.52 0.57 0.85 13963
0.00 0.00 -1.12 -2.79 10.11 -0.51 0.57 0.83 13970
0.00 0.00 -1.20 -2.85 9.97 -0.50 0.56 0.79 13977
0.00 0.00 -1.27 -2.84 10.03 -0.48 0.53 0.73 13984
0.00 0.00 -1.23 -2.85 10.04 -0.46 0.51 0.68 13991
0.00 0.00 -1.11 -2.80 10.20 -0.45 0.50 0.61 13999
0.00 0.00 -1.04 -2.76 10.35 -0.44 0.50 0.54 14006
0.00 0.00 -0.97 -2.64 10.26 -0.45 0.53 0.47 14013
0.00 0.00 -0.93 -2.55 10.12 -0.47 0.58 0.39 14020
0.00 0.00 -1.09 -2.53 9.96 -0.49 0.63 0.33 14027
0.00 0.00 -1.31 -2.64 9.96 -0.50 0.67 0.27 14034
0.00 -0.00 -1.52 -2.77 9.97 -0.49 0.68 0.21 14042
0.00 0.00 -1.74 -2.79 9.89 -0.46 0.65 0.18 14049
0.00 0.00 -1.85 -2.75 9.95 -0.43 0.59 0.14 14056
0.00 0.00 -1.85 -2.78 10.15 -0.39 0.54 0.13 14063
0.00 0.00 -1.71 -2.80 10.28 -0.37 0.46 0.13 14070
0.00 0.00 -1.52 -2.78 10.29 -0.37 0.37 0.14 14077
0.00 0.00 -1.21 -2.80 10.32 -0.38 0.36 0.15 14085
0.00 0.00 -1.05 -2.89 10.12 -0.39 0.32 0.18 14092
0.00 0.00 -0.96 -2.99 9.98 -0.39 0.32 0.20 14099
0.00 0.00 -0.99 -3.10 9.72 -0.39 0.31 0.24 14106
0.00 0.00 -1.11 -3.37 9.44 -0.36 0.30 0.27 14113
0.00 0.00 -1.28 -3.59 8.63 -0.31 0.29 0.29 14120
0.00 0.00 -6.69 -3.70 7.87 -0.09 -0.23 0.34 14128
0.00 0.00 -2.99 -3.35 7.20 -0.05 -0.35 0.34 14135
0.00 0.00 -3.54 -4.82 9.29 0.03 -0.45 0.37 14142
0.00 0.00 -4.04 -5.01 9.05 0.08 -0.50 0.39 14149
0.00 0.00 -3.61 -4.83 8.74 0.18 -0.53 0.39 14156
0.00 0.00 -3.98 -4.95 8.77 0.26 -0.58 0.36 14163
0.00 0.00 -4.45 -5.48 8.65 0.32 -0.64 0.33 14171
0.00 0.00 -4.54 -5.50 9.02 0.42 -0.69 0.33 14178
0.00 0.00 -4.56 -5.67 8.74 0.55 -0.73 0.35 14185
0.00 0.00 -6.23 -6.37 9.20 0.71 -0.63 0.46 14192
0.00 0.00 -17.54 -11.79 6.92 0.78 -0.68 0.57 14199
0.00 0.00 -13.12 -6.85 14.49 0.33 -0.70 0.33 14208
0.00 0.00 -2.10 -3.94 5.55 -0.10 -0.01 -0.00 14214
-0.00 0.02 -0.18 -1.38 10.80 -0.24 0.26 -0.03 14221
0.00 0.00 -0.04 -0.75 9.06 -0.21 0.05 -0.07 14228
-0.00 0.01 0.75 -0.66 9.35 -0.25 -0.04 -0.05 14235
-0.00 0.03 0.39 -0.90 9.42 -0.27 -0.09 -0.03 14242
-0.00 0.06 0.78 -1.03 11.96 -0.33 -0.08 -0.02 14249
-0.01 0.06 0.46 -0.69 10.11 -0.26 -0.03 -0.03 14257
-0.01 0.12 0.34 -0.75 9.92 -0.19 0.00 -0.04 14264
-0.02 0.20 0.41 -0.80 9.84 -0.15 0.01 -0.05 14271
-0.02 0.22 0.44 -0.92 9.91 -0.12 0.01 -0.05 14278
-0.01 0.24 0.42 -0.90 9.90 -0.10 0.00 -0.04 14285
0.01 0.20 0.37 -0.77 9.87 -0.08 0.00 -0.05 14292
0.02 0.23 0.38 -0.75 9.82 -0.07 0.01 -0.05 14300
0.02 0.26 0.35 -0.80 9.83 -0.06 0.02 -0.05 14307
0.02 0.28 0.32 -0.82 9.82 -0.06 0.02 -0.05 14314
0.05 0.29 0.38 -0.84 9.82 -0.06 0.02 -0.05 14321
0.04 0.30 0.34 -0.80 9.81 -0.06 0.02 -0.05 14328
0.04 0.33 0.39 -0.78 9.81 -0.06 0.03 -0.05 14336
0.08 0.35 0.38 -0.76 9.73 -0.06 0.02 -0.05 14343
0.09 0.31 0.36 -0.77 9.81 -0.05 0.02 -0.06 14350
0.06 0.34 0.36 -0.73 9.75 -0.05 0.02 -0.06 14357
0.07 0.35 0.32 -0.74 9.81 -0.04 0.02 -0.06 14364
0.08 0.31 0.36 -0.75 9.82 -0.04 0.02 -0.06 14371
0.07 0.37 0.27 -0.78 9.78 -0.04 0.02 -0.06 14379
0.08 0.36 0.33 -0.76 9.81 -0.04 0.03 -0.06 14386
0.07 0.39 0.36 -0.71 9.81 -0.04 0.07 -0.05 14393
0.06 0.40 0.34 -0.73 9.84 -0.04 0.03 -0.05 14400
0.06 0.42 0.36 -0.75 9.84 -0.03 0.03 -0.05 14407
0.07 0.45 0.39 -0.73 9.84 -0.03 0.03 -0.05 14414
0.05 0.47 0.36 -0.76 9.82 -0.02 0.03 -0.05 14422
0.06 0.46 0.41 -0.78 9.80 -0.02 0.03 -0.06 14429
0.07 0.48 0.33 -0.69 9.82 -0.01 0.03 -0.06 14436
0.06 0.48 0.34 -0.73 9.81 -0.02 0.04 -0.06 14443
0.06 0.46 0.33 -0.72 9.83 -0.01 0.04 -0.06 14450
0.08 0.47 0.34 -0.74 9.83 -0.01 0.04 -0.06 14457
0.08 0.46 0.35 -0.70 9.82 -0.00 0.04 -0.06 14465
0.07 0.46 0.35 -0.73 9.85 -0.00 0.04 -0.06 14472
0.07 0.45 0.34 -0.69 9.83 0.00 0.05 -0.06 14479
0.09 0.46 0.35 -0.72 9.82 0.01 0.05 -0.06 14486
0.10 0.45 0.35 -0.72 9.82 0.01 0.05 -0.06 14493
0.11 0.42 0.34 -0.73 9.82 0.01 0.05 -0.06 14500
0.11 0.40 0.32 -0.74 9.81 0.01 0.05 -0.06 14508
0.12 0.37 0.31 -0.74 9.81 0.02 0.05 -0.06 14515
0.11 0.34 0.37 -0.78 9.82 0.01 0.06 -0.06 14522
0.12 0.32 0.30 -0.77 9.80 0.02 0.06 -0.06 14529
0.11 0.31 0.32 -0.73 9.80 0.02 0.06 -0.06 14536
0.14 0.28 0.36 -0.76 9.82 0.01 0.06 -0.06 14543
0.13 0.26 0.34 -0.77 9.79 0.01 0.06 -0.06 14551
0.12 0.25 0.34 -0.74 9.80 0.01 0.07 -0.06 14558
0.12 0.27 0.37 -0.75 9.81 0.01 0.07 -0.06 14565
0.16 0.24 0.36 -0.76 9.81 0.01 0.07 -0.06 14572
0.17 0.23 0.36 -0.75 9.78 0.01 0.07 -0.06 14579
0.17 0.23 0.36 -0.76 9.76 0.01 0.07 -0.06 14586
0.18 0.23 0.37 -0.74 9.81 0.01 0.07 -0.06 14594
0.19 0.22 0.38 -0.74 9.78 0.00 0.07 -0.06 14601
0.18 0.20 0.34 -0.76 9.79 0.01 0.07 -0.06 14608
0.19 0.17 0.33 -0.74 9.82 0.01 0.07 -0.06 14615
0.18 0.15 0.35 -0.74 9.81 0.01 0.07 -0.06 14622
0.18 0.14 0.36 -0.76 9.81 0.01 0.07 -0.06 14629
0.18 0.15 0.38 -0.75 9.79 0.01 0.07 -0.06 14637
0.17 0.17 0.34 -0.73 9.80 0.01 0.07 -0.06 14644
0.19 0.13 0.42 -0.77 9.82 0.01 0.07 -0.06 14651
0.17 0.15 0.36 -0.80 9.82 0.01 0.07 -0.06 14658
0.19 0.13 0.39 -0.76 9.80 0.01 0.07 -0.06 14665
0.18 0.13 0.41 -0.80 9.78 0.01 0.07 -0.06 14672
0.18 0.10 0.39 -0.78 9.81 0.01 0.07 -0.06 14680
0.17 0.10 0.37 -0.80 9.79 0.01 0.07 -0.07 14687
0.19 0.07 0.40 -0.74 9.80 0.01 0.06 -0.06 14694
0.20 0.08 0.41 -0.79 9.82 0.01 0.07 -0.06 14701
0.20 0.07 0.42 -0.78 9.83 0.01 0.06 -0.06 14708
0.19 0.08 0.44 -0.77 9.81 0.01 0.06 -0.06 14715
0.19 0.06 0.41 -0.78 9.81 0.01 0.07 -0.06 14723
0.18 0.05 0.39 -0.77 9.77 0.01 0.07 -0.06 14730
0.20 0.07 0.40 -0.79 9.82 0.01 0.06 -0.06 14737
0.20 0.08 0.40 -0.81 9.81 0.01 0.06 -0.06 14744
0.21 0.07 0.42 -0.75 9.81 0.01 0.06 -0.06 14751
0.20 0.03 0.43 -0.78 9.81 0.01 0.06 -0.06 14758
0.20 0.04 0.40 -0.79 9.80 0.00 0.06 -0.06 14766
0.20 0.06 0.40 -0.79 9.81 0.01 0.06 -0.06 14773
0.19 0.04 0.45 -0.77 9.79 0.00 0.06 -0.06 14780
0.21 0.03 0.43 -0.80 10.42 0.00 0.05 -0.06 14787
0.20 0.03 0.42 -0.79 9.77 0.00 0.05 -0.06 14794
0.20 0.01 0.45 -0.81 9.81 0.00 0.04 -0.06 14801
0.20 0.00 0.44 -0.82 9.81 -0.00 0.05 -0.06 14809
0.19 0.01 0.39 -0.82 9.80 0.00 0.04 -0.06 14816
0.20 0.01 0.47 -0.80 9.77 -0.00 0.04 -0.06 14823
0.22 0.01 0.40 -0.80 9.81 0.00 0.04 -0.06 14830
0.21 0.01 0.40 -0.79 9.81 -0.00 0.03 -0.06 14837
0.21 0.01 0.46 -0.79 9.80 -0.00 0.03 -0.06 14844
0.20 0.00 0.45 -0.80 9.81 -0.01 0.03 -0.06 14852
0.19 0.01 0.40 -0.80 9.80 -0.00 0.03 -0.07 14859
0.20 0.03 0.42 -0.79 9.77 -0.00 0.02 -0.07 14866
0.21 0.02 0.44 -0.81 9.77 -0.00 0.02 -0.06 14873
0.21 0.02 0.38 -0.78 9.80 -0.00 0.02 -0.07 14880
0.21 0.01 0.40 -0.81 9.80 0.00 0.02 -0.06 14887
0.21 -0.00 0.40 -0.80 9.81 0.01 0.03 -0.06 14895
0.23 0.00 0.41 -0.82 9.82 0.01 0.03 -0.06 14902
0.25 0.00 0.43 -0.78 9.83 0.01 0.04 -0.06 14909
0.27 0.01 0.36 -0.75 9.82 0.01 0.04 -0.06 14916
0.28 0.00 0.42 -0.82 9.82 0.02 0.05 -0.06 14923
0.30 0.01 0.44 -0.84 9.82 0.02 0.05 -0.06 14930
0.30 0.00 0.37 -0.75 9.83 0.03 0.06 -0.06 14938
0.31 0.01 0.46 -0.77 9.89 0.03 0.06 -0.06 14945
0.31 0.01 0.40 -0.80 9.83 0.04 0.06 -0.06 14952
0.34 -0.02 0.41 -0.90 9.79 0.05 0.07 -0.06 14959
0.36 -0.02 0.44 -0.76 9.85 0.06 0.08 -0.06 14966
0.39 -0.03 0.40 -0.86 9.88 0.07 0.09 -0.06 14973
0.38 -0.02 0.48 -0.87 9.87 0.09 0.10 -0.07 14981
0.37 -0.01 0.69 -0.69 9.84 0.11 0.13 -0.09 14988
0.40 -0.03 0.58 -0.77 9.88 0.12 0.16 -0.11 14995
0.39 -0.01 0.51 -0.84 9.91 0.14 0.19 -0.14 15002
0.40 -0.01 0.61 -0.65 10.07 0.21 0.25 -0.13 15010
0.41 -0.03 0.34 -0.75 11.28 0.47 0.34 -0.11 15017
0.40 -0.02 0.85 -0.84 10.68 0.93 0.47 -0.13 15025
0.42 -0.01 0.68 -1.01 10.61 1.15 0.53 -0.16 15032
0.42 -0.02 0.68 -1.33 11.35 1.17 0.36 -0.18 15039
0.41 -0.02 0.52 -1.25 11.25 1.18 0.22 -0.19 15046
0.40 -0.01 0.53 -1.37 10.74 1.22 0.18 -0.19 15053
0.38 -0.01 0.08 -1.47 11.21 1.26 0.18 -0.18 15060
0.36 -0.00 0.56 -1.51 10.80 1.32 0.15 -0.17 15068
0.29 0.01 0.50 -1.53 10.76 1.36 0.16 -0.16 15075
0.27 0.00 0.55 -1.69 10.15 1.39 0.17 -0.15 15082
0.20 -0.01 0.71 -1.83 9.94 1.40 0.17 -0.14 15088
0.19 -0.01 1.21 -1.92 10.15 1.40 0.19 -0.13 15096
0.18 0.01 1.10 -2.30 9.59 1.31 0.04 -0.11 15102
0.16 0.00 0.62 -2.10 10.00 1.34 0.26 -0.13 15110
0.15 0.00 0.39 -2.27 10.29 1.42 0.26 -0.12 15117
0.13 0.00 0.79 -2.35 9.83 1.42 0.30 -0.11 15124
0.13 0.01 0.54 -2.52 9.70 1.41 0.35 -0.11 15131
0.09 0.01 0.37 -2.57 10.18 1.40 0.38 -0.08 15138
0.07 0.02 0.47 -2.81 10.46 1.41 0.42 -0.05 15145
0.07 0.02 0.30 -3.04 9.98 1.42 0.49 -0.01 15153
0.05 0.02 0.47 -3.03 9.84 1.41 0.56 0.02 15160
0.08 0.01 0.38 -3.30 9.93 1.38 0.63 0.06 15167
0.05 0.01 0.17 -3.63 10.32 1.35 0.72 0.09 15174
0.04 0.01 0.10 -3.79 10.80 1.33 0.84 0.16 15181
0.02 0.02 0.31 -3.81 10.37 1.32 0.95 0.20 15188
0.03 0.03 0.36 -3.86 10.09 1.30 1.00 0.21 15196
0.02 0.02 -0.10 -3.68 10.40 1.25 1.02 0.24 15203
0.02 0.01 0.21 -4.12 10.59 1.19 0.95 0.29 15210
0.02 0.01 1.17 -4.15 11.01 1.11 0.88 0.34 15218
0.01 0.00 1.79 -4.22 10.67 1.04 0.98 0.37 15224
0.01 -0.00 1.79 -3.93 11.55 0.91 1.13 0.39 15232
0.01 0.00 1.99 -3.74 10.53 0.77 1.29 0.33 15239
0.02 -0.00 1.36 -3.10 9.92 0.65 1.33 0.28 15246
0.01 -0.00 0.29 -1.23 9.22 0.52 1.37 0.17 15253
0.01 -0.00 -1.41 0.85 8.62 0.38 1.21 -0.07 15260
0.00 -0.00 -2.60 0.41 7.80 0.19 0.91 -0.44 15267
0.00 0.00 -4.17 -0.17 8.20 0.03 0.47 -0.98 15275
0.00 0.00 -8.20 0.75 11.88 -0.06 0.14 -1.55 15282
0.00 0.00 -9.02 -0.49 12.90 -0.11 -0.23 -2.02 15289
0.00 0.00 -7.16 0.71 13.14 -0.15 -0.47 -2.50 15296
0.00 0.00 -4.88 0.46 8.93 -0.27 -0.66 -3.02 15303
0.00 0.00 -3.66 0.35 10.03 -0.39 -0.95 -3.48 15310
0.01 -0.00 -2.91 -0.01 10.01 -0.50 -1.10 -3.79 15318
0.01 -0.00 -1.83 0.02 10.11 -0.70 -1.19 -4.01 15325
0.01 -0.00 -0.63 -0.04 9.91 -0.84 -1.26 -4.21 15332
0.00 0.00 0.24 -0.41 9.77 -0.94 -1.27 -4.28 15339
0.00 0.00 1.15 -0.80 9.25 -0.99 -1.23 -4.28 15346
0.00 0.00 1.84 -0.95 9.31 -1.00 -1.14 -4.28 15353
0.00 0.00 2.48 -0.91 9.18 -1.00 -1.02 -4.25 15361
0.01 -0.00 2.98 -0.71 9.04 -0.99 -0.93 -4.11 15368
0.00 0.00 3.18 -0.54 8.89 -0.96 -0.86 -3.97 15375
0.00 0.00 3.38 -0.51 8.66 -0.93 -0.76 -3.76 15382
0.00 0.00 3.56 -0.66 8.65 -0.91 -0.66 -3.53 15389
0.00 0.00 3.74 -0.75 8.67 -0.88 -0.55 -3.33 15396
0.00 0.00 3.65 -0.82 8.96 -0.86 -0.44 -3.10 15404
0.00 -0.00 3.67 -0.31 8.66 -0.85 -0.34 -2.87 15411
0.00 0.00 3.72 -1.07 9.51 -0.85 -0.24 -2.67 15418
0.00 -0.00 3.69 -1.17 9.51 -0.86 -0.14 -2.44 15425
0.00 0.00 3.64 -1.26 9.35 -0.87 -0.08 -2.25 15432
0.00 0.00 3.62 -1.47 9.29 -0.88 0.01 -2.03 15439
0.00 0.00 3.56 -1.63 9.13 -0.85 0.07 -1.81 15447
0.00 -0.00 3.48 -1.82 8.99 -0.80 0.15 -1.64 15454
0.00 0.00 3.32 -1.84 8.89 -0.74 0.21 -1.43 15461
0.00 0.00 3.17 -1.74 8.86 -0.67 0.27 -1.26 15468
0.00 0.00 3.01 -1.64 9.04 -0.62 0.35 -1.05 15475
0.00 0.00 2.82 -1.79 9.23 -0.59 0.42 -0.84 15482
0.00 0.00 2.54 -1.71 9.63 -0.57 0.47 -0.66 15490
0.01 -0.00 2.17 -1.81 9.88 -0.57 0.49 -0.46 15497
0.00 0.00 1.98 -1.93 10.03 -0.57 0.49 -0.30 15504
0.00 0.00 1.76 -2.06 10.04 -0.59 0.47 -0.14 15511
0.00 0.00 1.66 -2.23 9.93 -0.61 0.44 0.00 15518
0.00 0.00 1.68 -2.41 10.01 -0.62 0.41 0.09 15525
0.00 -0.00 1.82 -2.50 9.98 -0.64 0.40 0.17 15533
0.00 -0.00 1.93 -2.54 10.07 -0.64 0.40 0.23 15540
0.00 0.00 2.00 -2.51 9.92 -0.64 0.44 0.27 15547
0.00 0.00 1.81 -2.36 9.84 -0.64 0.53 0.33 15554
0.00 0.00 1.52 -2.41 9.97 -0.65 0.54 0.39 15561
0.00 0.00 1.21 -2.54 10.12 -0.64 0.55 0.45 15568
0.01 -0.00 0.98 -2.59 10.24 -0.65 0.54 0.52 15576
0.00 0.00 1.00 -2.74 10.42 -0.64 0.51 0.57 15583
0.00 0.00 1.17 -2.95 10.47 -0.64 0.51 0.63 15590
0.00 0.00 1.18 -3.06 10.40 -0.63 0.52 0.68 15597
0.00 0.00 1.31 -3.23 10.40 -0.62 0.56 0.73 15604
0.00 0.00 1.39 -3.43 10.32 -0.62 0.60 0.76 15611
0.00 -0.00 1.43 -3.55 10.31 -0.63 0.64 0.78 15619
0.00 -0.00 1.33 -3.72 10.32 -0.63 0.65 0.80 15626
0.00 0.00 1.32 -3.86 10.30 -0.63 0.64 0.82 15633
0.00 0.00 1.19 -3.83 10.20 -0.61 0.62 0.85 15640
0.00 0.00 0.98 -3.69 9.94 -0.59 0.63 0.91 15647
0.00 0.00 0.82 -3.54 9.83 -0.57 0.64 0.98 15654
0.01 -0.00 0.65 -3.46 9.93 -0.55 0.63 1.09 15662
0.00 0.00 0.52 -3.48 10.03 -0.53 0.63 1.18 15669
0.00 0.00 0.37 -3.73 10.03 -0.51 0.61 1.28 15676
0.00 0.00 0.25 -4.02 10.04 -0.49 0.59 1.36 15683
0.00 0.00 0.19 -4.29 9.99 -0.48 0.55 1.40 15690
0.00 0.00 0.29 -4.58 9.97 -0.46 0.52 1.42 15697
0.00 -0.00 0.30 -4.65 9.81 -0.43 0.50 1.41 15705
0.00 0.00 0.32 -4.71 9.74 -0.40 0.48 1.39 15712
0.00 -0.00 0.39 -4.67 9.67 -0.36 0.47 1.35 15719
0.00 0.00 0.40 -4.65 9.63 -0.32 0.48 1.29 15726
0.00 -0.00 0.25 -4.64 9.53 -0.27 0.52 1.22 15733
0.00 -0.00 0.07 -4.51 9.44 -0.23 0.58 1.14 15740
0.00 0.00 -0.24 -4.31 9.55 -0.20 0.64 1.09 15748
0.00 0.00 -0.51 -4.03 9.74 -0.20 0.70 1.06 15755
0.00 0.00 -0.74 -3.84 9.92 -0.22 0.73 1.04 15762
0.00 0.00 -0.98 -3.70 10.05 -0.27 0.72 1.02 15769
0.00 0.00 -1.04 -3.56 10.05 -0.31 0.68 1.02 15776
0.01 -0.00 -1.03 -3.54 9.98 -0.34 0.61 1.03 15783
0.00 0.00 -0.95 -3.61 9.82 -0.35 0.55 1.03 15791
0.00 0.00 -0.85 -3.67 9.63 -0.33 0.52 1.02 15798
0.00 0.00 -0.79 -3.75 9.41 -0.30 0.52 0.99 15805
0.00 0.00 -0.85 -3.85 9.35 -0.27 0.55 0.95 15812
0.00 0.00 -0.90 -3.98 9.44 -0.24 0.58 0.90 15819
0.01 -0.00 -1.03 -4.03 9.45 -0.22 0.60 0.84 15826
0.00 0.00 -1.13 -4.13 9.42 -0.20 0.60 0.77 15834
0.00 -0.00 -1.15 -4.19 9.41 -0.19 0.59 0.71 15841
0.00 0.00 -1.24 -4.24 9.37 -0.18 0.57 0.65 15848
0.00 0.00 -1.33 -4.28 9.34 -0.16 0.55 0.61 15855
0.00 0.00 -1.33 -4.28 9.40 -0.14 0.52 0.57 15862
0.01 -0.00 -8.75 -11.13 20.65 -0.07 -0.05 0.56 15869
0.00 0.00 -1.00 -4.43 9.65 0.14 -0.42 0.59 15877
0.00 0.00 -2.64 -4.60 8.37 0.11 -0.64 0.60 15884
0.00 0.00 -4.79 -6.35 9.77 0.10 -0.86 0.64 15891
0.00 0.00 -4.20 -5.74 9.47 0.13 -0.95 0.66 15898
0.00 0.00 -4.27 -5.91 9.13 0.16 -0.99 0.64 15905
0.00 0.00 -11.91 -5.39 14.71 0.48 -0.77 0.84 15912
0.00 0.00 -9.94 -7.17 9.30 0.57 -0.54 0.98 15920
0.00 0.00 -7.28 -7.17 8.83 0.76 -0.53 1.10 15927
0.00 0.00 -9.27 -7.09 8.92 0.94 -0.73 1.30 15934
0.00 0.00 -9.62 -3.48 12.04 0.60 -1.27 1.28 15941
0.00 0.01 -12.87 -4.83 10.71 -0.03 0.09 0.70 15949
0.00 0.00 -3.88 -3.29 7.52 -0.22 0.12 0.10 15955
0.00 0.00 -0.60 -1.22 8.51 -0.16 0.04 -0.10 15963
0.00 0.00 0.45 -0.90 9.74 -0.21 -0.03 -0.11 15970
-0.00 0.01 0.39 -0.54 9.71 -0.23 -0.09 -0.07 15977
-0.00 0.02 0.61 -1.16 10.28 -0.25 -0.07 -0.04 15984
0.02 0.03 0.35 -1.00 10.15 -0.21 -0.00 -0.02 15991
0.01 0.04 0.21 -0.74 10.03 -0.17 0.02 -0.03 15998
0.01 0.09 0.23 -0.86 9.97 -0.12 0.03 -0.04 16006
-0.00 0.12 0.39 -0.96 9.90 -0.10 0.02 -0.05 16013
0.01 0.18 0.47 -0.89 9.89 -0.08 0.01 -0.04 16020
0.01 0.19 0.40 -0.83 9.83 -0.07 -0.00 -0.05 16027
0.02 0.17 0.24 -0.81 9.83 -0.06 -0.00 -0.05 16034
0.01 0.18 0.31 -0.83 9.81 -0.06 -0.00 -0.06 16041
0.04 0.15 0.35 -0.82 9.82 -0.05 -0.01 -0.06 16049
0.03 0.19 0.30 -0.84 9.82 -0.05 -0.01 -0.06 16056
0.05 0.21 0.26 -0.85 9.81 -0.05 -0.01 -0.06 16063
0.06 0.27 0.30 -0.82 9.78 -0.06 -0.00 -0.07 16070
0.06 0.19 0.27 -0.77 9.76 -0.06 -0.00 -0.07 16077
0.06 0.22 0.27 -0.79 9.80 -0.06 0.00 -0.07 16084
0.06 0.29 0.25 -0.76 9.82 -0.06 0.01 -0.07 16092
0.05 0.33 0.24 -0.80 10.41 -0.06 0.01 -0.07 16099
0.09 0.33 0.26 -0.78 9.79 -0.06 0.02 -0.06 16106
0.10 0.29 0.29 -0.80 9.81 -0.06 0.02 -0.07 16113
0.10 0.30 0.23 -0.77 9.81 -0.06 0.02 -0.06 16120
0.10 0.30 0.24 -0.79 9.82 -0.06 0.02 -0.06 16128
0.09 0.32 0.27 -0.76 9.82 -0.06 0.02 -0.06 16135
0.08 0.34 0.31 -0.78 9.82 -0.06 0.02 -0.06 16142
0.08 0.36 0.31 -0.74 9.82 -0.05 0.02 -0.06 16149
0.08 0.37 0.30 -0.75 9.83 -0.05 0.02 -0.06 16156
0.08 0.36 0.29 -0.77 9.82 -0.05 0.02 -0.06 16163
0.07 0.40 0.26 -0.80 9.81 -0.04 0.02 -0.07 16171
0.07 0.43 0.24 -0.80 9.87 -0.04 0.02 -0.07 16178
0.06 0.48 0.26 -0.74 9.85 -0.04 0.02 -0.07 16185
0.09 0.45 0.29 -0.73 9.83 -0.03 0.03 -0.07 16192
0.09 0.47 0.27 -0.72 9.83 -0.03 0.03 -0.07 16199
0.09 0.48 0.27 -0.74 9.83 -0.02 0.03 -0.07 16206
0.09 0.46 0.27 -0.74 9.84 -0.01 0.04 -0.07 16214
0.07 0.48 0.25 -0.75 9.82 -0.01 0.04 -0.07 16221
0.08 0.48 0.25 -0.73 9.84 -0.01 0.04 -0.07 16228
0.08 0.48 0.27 -0.73 9.80 -0.00 0.04 -0.07 16235
0.09 0.48 0.28 -0.72 9.81 0.00 0.04 -0.07 16242
0.08 0.46 0.27 -0.73 9.82 0.00 0.04 -0.07 16249
0.09 0.44 0.25 -0.76 9.81 0.00 0.04 -0.07 16257
0.09 0.43 0.26 -0.71 10.42 0.00 0.04 -0.07 16264
0.09 0.44 0.26 -0.78 9.82 0.00 0.05 -0.07 16271
0.09 0.46 0.25 -0.75 9.81 0.00 0.04 -0.07 16278
0.10 0.45 0.24 -0.75 9.80 0.00 0.05 -0.07 16285
0.09 0.45 0.23 -0.74 9.78 -0.00 0.05 -0.07 16292
0.10 0.44 0.27 -0.74 9.82 -0.00 0.04 -0.07 16300
0.08 0.43 0.25 -0.76 9.79 -0.00 0.04 -0.07 16307
0.08 0.43 0.27 -0.76 9.83 -0.01 0.04 -0.07 16314
0.09 0.44 0.27 -0.75 9.81 -0.01 0.04 -0.07 16321
0.10 0.43 0.26 -0.74 9.79 -0.01 0.04 -0.07 16328
0.09 0.43 0.28 -0.75 9.81 -0.01 0.04 -0.07 16335
0.09 0.44 0.25 -0.74 9.81 -0.01 0.04 -0.07 16343
0.08 0.45 0.24 -0.73 9.82 -0.01 0.04 -0.07 16350
0.08 0.45 0.26 -0.71 10.42 -0.02 0.05 -0.07 16357
0.09 0.46 0.25 -0.74 9.80 -0.02 0.04 -0.07 16364
0.09 0.46 0.27 -0.71 9.82 -0.02 0.05 -0.07 16371
0.09 0.45 0.26 -0.74 9.81 -0.01 0.05 -0.07 16378
0.08 0.45 0.26 -0.76 9.82 -0.02 0.04 -0.07 16386
0.08 0.45 0.23 -0.74 9.82 -0.02 0.05 -0.07 16393
0.08 0.49 0.23 -0.72 9.82 -0.01 0.05 -0.07 16400
0.09 0.50 0.28 -0.72 9.81 -0.01 0.04 -0.07 16407
0.09 0.49 0.23 -0.72 9.82 -0.01 0.05 -0.07 16414
0.09 0.50 0.25 -0.72 9.81 -0.00 0.04 -0.07 16421
0.08 0.50 0.22 -0.71 9.82 -0.01 0.05 -0.07 16429
0.08 0.50 0.25 -0.74 9.81 -0.01 0.04 -0.07 16436
0.09 0.50 0.24 -0.73 9.83 -0.01 0.04 -0.07 16443
0.10 0.49 0.25 -0.73 9.81 -0.00 0.04 -0.07 16450
0.09 0.49 0.25 -0.74 9.82 -0.00 0.05 -0.07 16457
0.09 0.48 0.29 -0.75 9.80 -0.00 0.05 -0.07 16464
0.08 0.48 0.28 -0.75 9.81 -0.01 0.04 -0.07 16472
0.08 0.48 0.27 -0.76 9.78 -0.01 0.04 -0.07 16479
0.09 0.48 0.24 -0.71 9.20 -0.01 0.05 -0.07 16486
0.09 0.47 0.21 -0.73 9.82 -0.01 0.05 -0.07 16493
0.08 0.47 0.25 -0.76 9.84 -0.00 0.05 -0.07 16500
0.08 0.46 0.25 -0.76 9.80 -0.00 0.05 -0.07 16507
0.07 0.47 0.29 -0.74 9.79 -0.00 0.05 -0.07 16515
0.08 0.47 0.25 -0.71 9.82 -0.00 0.04 -0.07 16522
0.08 0.47 0.27 -0.75 9.82 -0.01 0.05 -0.07 16529
0.09 0.46 0.26 -0.73 9.81 -0.01 0.05 -0.07 16536
0.09 0.45 0.28 -0.77 9.81 -0.00 0.05 -0.07 16543
0.08 0.44 0.31 -0.74 9.81 -0.01 0.04 -0.07 16550
0.08 0.45 0.27 -0.73 9.81 -0.00 0.05 -0.08 16558
0.08 0.45 0.30 -0.77 9.82 -0.00 0.05 -0.07 16565
0.09 0.42 0.23 -0.73 9.81 0.00 0.05 -0.07 16572
0.09 0.41 0.24 -0.74 9.82 0.01 0.05 -0.07 16579
0.09 0.39 0.26 -0.72 9.82 0.01 0.05 -0.08 16586
0.09 0.38 0.24 -0.76 9.85 0.01 0.05 -0.07 16593
0.11 0.37 0.28 -0.79 9.80 0.01 0.05 -0.08 16601
0.14 0.35 0.27 -0.74 9.81 0.02 0.05 -0.08 16608
0.17 0.32 0.29 -0.76 10.41 0.02 0.05 -0.07 16615
0.19 0.27 0.25 -0.75 9.82 0.02 0.06 -0.08 16622
0.18 0.18 0.29 -0.77 9.83 0.03 0.06 -0.08 16629
0.18 0.15 0.30 -0.70 9.84 0.04 0.06 -0.08 16636
0.20 0.10 0.26 -0.79 9.80 0.04 0.07 -0.07 16644
0.22 0.06 0.23 -0.67 9.88 0.05 0.06 -0.08 16651
0.23 0.00 0.30 -0.76 9.93 0.07 0.07 -0.08 16658
0.24 -0.01 0.33 -0.77 9.91 0.08 0.08 -0.07 16665
0.26 -0.02 0.28 -0.71 9.86 0.09 0.08 -0.07 16672
0.25 -0.02 0.18 -0.78 10.10 0.11 0.11 -0.07 16679
0.27 -0.02 0.34 -0.82 9.96 0.13 0.12 -0.07 16687
0.29 -0.02 0.36 -0.92 9.86 0.16 0.13 -0.07 16694
0.33 -0.02 0.54 -0.78 10.07 0.20 0.17 -0.07 16701
0.32 -0.01 1.10 -1.40 9.98 0.27 0.24 -0.09 16708
0.34 -0.02 -0.06 -0.63 10.86 0.49 0.40 -0.15 16715
0.33 -0.02 0.41 -0.87 12.05 1.13 0.48 -0.09 16722
0.31 -0.02 0.45 -1.11 13.23 1.39 0.52 -0.13 16731
0.32 -0.01 0.86 -1.01 11.00 1.32 0.34 -0.15 16738
0.30 -0.00 0.74 -1.03 10.05 1.28 0.28 -0.15 16744
0.27 -0.00 0.34 -1.38 10.09 1.31 0.11 -0.14 16752
0.24 -0.01 0.40 -1.48 10.65 1.31 0.12 -0.12 16759
0.20 0.01 0.21 -1.50 10.79 1.33 0.18 -0.12 16765
0.20 0.03 0.06 -1.48 10.43 1.38 0.18 -0.09 16773
0.19 0.00 0.86 -2.09 9.34 1.41 0.15 -0.07 16780
0.16 0.01 0.28 -1.78 10.23 1.35 0.19 -0.04 16788
0.12 0.01 0.24 -1.98 10.86 1.39 0.36 -0.04 16794
0.09 0.02 -0.08 -2.13 11.49 1.53 0.44 -0.00 16801
0.07 0.02 0.11 -2.40 10.59 1.59 0.64 0.03 16808
0.08 0.02 0.02 -2.53 9.95 1.59 0.78 0.05 16816
0.07 -0.01 0.05 -2.56 10.28 1.52 0.88 0.09 16823
0.07 -0.01 -0.13 -2.80 10.22 1.48 0.96 0.16 16830
0.04 -0.00 -0.35 -3.08 10.42 1.44 1.07 0.22 16837
0.04 -0.00 -0.67 -3.07 10.07 1.40 1.11 0.30 16844
0.03 -0.00 -1.20 -3.30 10.31 1.33 1.06 0.43 16851
0.03 -0.00 -1.71 -3.61 10.61 1.26 0.97 0.51 16859
0.04 -0.00 -2.31 -3.96 10.98 1.20 0.82 0.64 16866
0.03 -0.00 -1.64 -4.12 11.47 1.13 0.70 0.76 16873
0.02 -0.00 -0.82 -3.13 12.51 1.04 0.55 0.90 16880
0.01 -0.00 -0.16 -1.45 13.01 0.94 0.67 0.97 16887
0.02 -0.00 -0.59 0.44 11.07 0.77 0.89 0.92 16894
0.01 -0.00 -2.25 2.24 9.91 0.60 0.91 0.73 16902
0.03 -0.00 -4.33 2.91 9.04 0.34 0.78 0.40 16909
0.01 -0.00 -6.80 2.43 8.87 0.04 0.37 -0.27 16916
0.00 -0.00 -7.43 1.77 10.05 -0.13 -0.05 -1.10 16923
0.00 0.00 -7.58 1.86 11.90 -0.26 -0.63 -1.59 16930
0.01 -0.00 -6.76 2.09 12.88 -0.47 -0.97 -2.09 16937
0.01 -0.00 -4.71 2.34 11.13 -0.71 -1.26 -2.49 16945
0.01 -0.00 -3.22 1.51 10.27 -0.82 -1.53 -2.86 16952
0.01 -0.00 -2.04 0.51 9.65 -0.88 -1.63 -3.17 16959
0.02 -0.00 -0.87 -0.10 9.24 -0.86 -1.71 -3.37 16966
0.00 -0.00 -0.29 -0.81 9.04 -0.79 -1.80 -3.52 16973
0.01 -0.00 0.01 -1.28 8.94 -0.67 -1.89 -3.59 16980
0.01 -0.00 0.45 -1.45 8.98 -0.52 -2.03 -3.59 16988
0.01 -0.00 0.82 -1.45 8.91 -0.38 -2.19 -3.54 16995
0.01 -0.00 1.17 -1.56 8.84 -0.22 -2.29 -3.45 17002
0.00 0.00 1.54 -1.55 9.11 -0.05 -2.37 -3.33 17009
0.00 -0.00 2.14 -1.52 9.65 0.06 -2.36 -3.18 17016
0.00 -0.00 3.14 -1.39 9.87 0.14 -2.19 -3.05 17024
0.02 -0.00 4.30 -1.26 9.95 0.18 -1.86 -2.88 17031
0.01 -0.00 5.18 -1.08 9.60 0.17 -1.45 -2.74 17038
0.01 -0.00 5.91 -0.84 8.89 0.12 -0.84 -2.57 17045
0.00 0.00 6.21 -0.83 8.19 0.07 -0.27 -2.37 17052
0.00 -0.00 5.41 -1.51 7.71 0.01 0.38 -2.18 17059
0.01 -0.00 5.27 -1.11 9.57 -0.03 0.88 -1.93 17067
0.00 -0.00 3.93 -1.20 10.15 -0.07 1.12 -1.70 17074
0.00 -0.00 2.68 -1.27 10.48 -0.13 1.19 -1.43 17081
0.01 -0.00 1.26 -1.37 10.41 -0.18 1.02 -1.14 17088
0.00 0.00 1.27 -1.44 10.47 -0.27 0.74 -0.88 17095
0.00 -0.00 1.30 -1.54 10.38 -0.35 0.39 -0.59 17102
0.01 -0.00 1.64 -1.57 10.12 -0.44 0.14 -0.33 17110
0.01 -0.00 2.02 -1.70 9.98 -0.53 -0.05 -0.12 17117
0.01 -0.00 2.22 -1.94 9.76 -0.58 -0.14 0.08 17124
0.01 -0.00 2.39 -2.20 9.59 -0.63 -0.15 0.23 17131
0.00 -0.00 2.67 -2.57 9.43 -0.65 -0.07 0.36 17138
0.01 -0.00 2.74 -2.74 9.16 -0.66 0.02 0.47 17145
0.01 -0.00 2.58 -3.07 9.11 -0.66 0.15 0.53 17153
0.01 -0.00 2.57 -3.26 9.18 -0.65 0.26 0.58 17160
0.01 -0.00 2.50 -3.40 9.14 -0.63 0.33 0.61 17167
0.01 -0.00 2.39 -3.37 9.22 -0.60 0.35 0.63 17174
0.00 -0.00 2.30 -3.29 9.49 -0.57 0.34 0.65 17181
0.00 -0.00 2.36 -3.08 9.59 -0.57 0.32 0.66 17188
0.02 -0.00 2.41 -3.12 9.68 -0.57 0.30 0.66 17196
0.00 -0.00 2.50 -3.09 9.73 -0.58 0.29 0.66 17203
0.00 -0.00 2.54 -3.00 9.62 -0.60 0.29 0.66 17210
0.00 0.00 2.49 -3.00 9.50 -0.63 0.28 0.67 17217
0.00 0.00 2.38 -3.03 9.62 -0.65 0.28 0.68 17224
0.00 0.00 2.34 -3.15 9.75 -0.66 0.29 0.71 17231
0.01 -0.00 2.40 -3.16 9.73 -0.66 0.31 0.77 17239
0.01 -0.00 2.49 -3.19 9.82 -0.64 0.35 0.76 17246
0.00 -0.00 2.59 -3.29 9.83 -0.63 0.46 0.79 17253
0.00 0.00 2.54 -3.28 9.67 -0.61 0.53 0.81 17260
0.00 -0.00 2.37 -3.25 9.55 -0.59 0.63 0.83 17267
0.01 -0.00 2.20 -3.27 9.64 -0.57 0.68 0.85 17274
0.01 -0.00 1.98 -3.32 9.61 -0.55 0.72 0.87 17282
0.00 -0.00 1.72 -3.33 9.78 -0.53 0.74 0.90 17289
0.00 0.00 1.52 -3.44 9.85 -0.50 0.75 0.92 17296
0.00 0.00 1.42 -3.54 9.79 -0.47 0.77 0.94 17303
0.01 -0.00 1.31 -3.64 9.82 -0.45 0.78 0.94 17310
0.01 -0.00 1.21 -3.72 9.76 -0.44 0.79 0.93 17317
0.00 -0.00 1.11 -3.75 9.85 -0.44 0.80 0.91 17325
0.00 -0.00 1.04 -3.74 9.96 -0.43 0.80 0.89 17332
0.00 -0.00 0.92 -3.71 10.09 -0.42 0.79 0.86 17339
0.00 0.00 0.87 -3.60 10.13 -0.44 0.78 0.83 17346
0.01 -0.00 0.81 -3.53 10.12 -0.46 0.75 0.80 17353
0.01 -0.00 0.82 -3.53 10.03 -0.48 0.72 0.78 17360
0.01 -0.00 0.87 -3.59 9.95 -0.49 0.70 0.76 17368
0.00 0.00 0.87 -3.68 9.88 -0.49 0.68 0.76 17375
0.00 -0.00 0.91 -3.71 9.81 -0.49 0.69 0.77 17382
0.00 0.00 0.88 -3.76 9.77 -0.46 0.70 0.79 17389
0.00 -0.00 0.82 -3.70 9.76 -0.44 0.72 0.84 17396
0.01 -0.00 0.70 -3.63 9.82 -0.42 0.74 0.89 17403
0.01 -0.00 0.52 -3.54 9.88 -0.41 0.75 0.95 17411
0.00 0.00 0.31 -3.51 9.99 -0.39 0.75 1.01 17418
0.00 0.00 0.16 -3.55 10.17 -0.36 0.72 1.07 17425
0.00 0.00 0.04 -3.53 10.27 -0.34 0.68 1.12 17432
0.00 -0.00 -0.11 -3.47 10.24 -0.32 0.63 1.16 17439
0.02 -0.00 -0.22 -3.41 10.18 -0.30 0.58 1.18 17446
0.01 -0.00 -0.32 -3.43 10.16 -0.29 0.52 1.19 17454
0.01 -0.00 -0.39 -3.44 10.19 -0.28 0.47 1.19 17461
0.00 0.00 -0.53 -3.49 10.14 -0.27 0.42 1.16 17468
0.00 -0.00 -5.56 -6.21 11.58 -0.28 0.00 1.06 17475
0.01 -0.00 -3.01 -3.35 10.71 -0.13 -0.31 1.08 17482
0.01 -0.00 -1.71 -3.72 9.25 -0.15 -0.43 1.08 17489
0.00 -0.00 -1.73 -4.10 9.74 -0.14 -0.51 1.00 17497
0.00 -0.00 -1.45 -4.55 10.10 -0.12 -0.45 1.00 17504
0.00 0.00 -1.54 -4.76 10.09 -0.11 -0.31 0.95 17511
0.01 -0.00 -1.84 -5.48 9.26 -0.10 -0.20 0.89 17518
0.01 -0.00 0.38 -4.74 8.37 0.01 0.08 0.89 17525
0.01 -0.00 -2.86 -5.40 9.23 0.01 0.04 0.85 17532
0.01 -0.00 -3.43 -5.70 9.78 0.06 -0.04 0.83 17540
0.01 -0.00 -3.22 -6.11 8.77 0.12 -0.10 0.85 17547
0.00 -0.00 -3.45 -6.38 8.83 0.22 -0.16 0.90 17554
0.01 0.00 -3.77 -6.66 8.91 0.31 -0.27 0.99 17561
0.02 -0.00 -6.97 -8.94 13.15 0.39 -0.39 1.06 17568
0.01 -0.00 -8.48 -7.77 9.81 0.23 -0.63 1.06 17575
0.01 -0.00 -11.18 -9.14 12.05 0.25 -0.71 1.14 17584
0.00 0.00 -12.66 -9.94 10.52 0.21 -0.62 1.12 17590
0.00 0.00 -9.46 -8.10 9.30 0.06 -0.42 0.87 17597
-0.00 0.01 -7.60 -5.77 7.64 -0.07 -0.20 0.53 17604
-0.00 0.01 -6.96 -3.77 7.86 -0.19 0.21 0.23 17611
-0.00 0.00 -1.49 -0.46 8.17 -0.29 0.65 -0.02 17618
0.00 0.00 2.01 -0.79 14.55 -0.34 0.57 0.01 17626
-0.00 0.00 0.11 -0.81 8.59 -0.22 0.01 -0.04 17633
-0.00 0.01 0.55 -0.48 9.56 -0.25 -0.05 -0.02 17640
0.00 0.02 0.62 -0.63 10.46 -0.27 -0.03 -0.01 17647
0.01 0.02 0.08 -0.61 9.99 -0.12 0.02 -0.03 17654
0.01 0.04 0.27 -0.72 9.88 -0.11 0.03 -0.04 17661
