Voltage_01 Voltage_02 Acc_x Acc_y Acc_z Gyro_x Gyro_y Gyro_z Time
5000
0.05 0.00 0.36 -0.97 9.82 -0.01 0.05 -0.05 17
0.06 -0.00 0.37 -0.98 9.81 -0.01 0.05 -0.05 24
0.06 0.01 0.39 -0.97 9.81 -0.00 0.05 -0.05 31
0.07 -0.00 0.37 -0.98 9.81 0.00 0.05 -0.05 38
0.06 0.00 0.37 -0.96 9.82 0.01 0.05 -0.05 46
0.06 -0.01 0.33 -0.98 9.83 0.01 0.05 -0.05 53
0.03 0.01 0.38 -0.99 9.81 0.01 0.06 -0.05 59
0.06 -0.00 0.34 -0.97 9.80 0.02 0.06 -0.05 66
0.07 0.01 0.34 -1.00 9.83 0.03 0.06 -0.05 73
0.07 0.00 0.36 -1.00 9.82 0.03 0.06 -0.05 80
0.06 -0.01 0.37 -0.98 9.82 0.04 0.06 -0.05 88
0.05 -0.00 0.35 -0.98 9.84 0.05 0.06 -0.05 94
0.04 -0.00 0.39 -0.97 9.80 0.05 0.06 -0.05 100
0.06 -0.01 0.34 -1.00 9.84 0.06 0.06 -0.05 107
0.06 0.00 0.33 -1.01 9.82 0.06 0.06 -0.05 114
0.07 -0.00 0.36 -1.02 9.82 0.07 0.05 -0.05 121
0.06 -0.01 0.39 -0.97 9.87 0.08 0.05 -0.05 129
0.06 -0.01 0.41 -1.00 9.84 0.10 0.04 -0.04 136
0.05 -0.00 0.41 -1.06 9.99 0.15 0.03 -0.06 143
0.06 -0.01 0.44 -1.15 9.87 0.22 0.02 -0.06 150
0.07 -0.01 0.39 -1.09 10.76 0.25 -0.01 -0.04 157
0.06 -0.01 0.72 -0.97 10.73 0.33 0.03 -0.07 164
0.06 -0.01 0.32 -1.08 10.28 0.43 0.04 -0.09 172
0.05 -0.01 0.40 -1.17 10.16 0.48 0.02 -0.08 179
0.04 -0.00 0.37 -1.26 10.02 0.49 0.02 -0.08 186
0.05 -0.00 0.41 -1.27 10.09 0.50 0.00 -0.09 193
0.05 -0.00 0.42 -1.33 10.21 0.52 0.01 -0.10 200
0.03 -0.00 0.54 -1.33 10.17 0.54 0.00 -0.11 207
0.02 -0.00 0.46 -1.35 10.14 0.56 -0.03 -0.12 215
0.00 -0.00 0.43 -1.38 10.39 0.59 -0.02 -0.14 222
0.02 -0.00 1.18 -2.25 10.89 0.61 -0.03 -0.16 229
0.00 0.00 0.28 -1.48 10.31 0.58 -0.07 -0.16 236
0.00 0.00 0.60 -1.36 10.84 0.61 -0.02 -0.18 243
0.00 0.00 0.69 -1.52 10.53 0.64 0.04 -0.21 250
0.00 0.00 0.61 -1.33 9.99 0.65 0.04 -0.21 258
0.00 0.00 0.55 -0.71 10.08 0.63 0.08 -0.22 264
0.00 0.00 0.06 0.66 10.16 0.59 0.05 -0.22 271
0.00 0.00 -0.10 1.49 10.21 0.50 -0.06 -0.20 278
0.00 -0.00 -0.23 2.17 10.01 0.39 -0.20 -0.15 285
0.00 0.00 -0.60 2.59 9.86 0.31 -0.33 -0.09 292
0.00 0.00 0.23 2.57 9.87 0.24 -0.45 -0.04 299
0.00 0.00 0.60 2.87 9.77 0.17 -0.51 0.01 305
0.00 0.00 0.94 2.82 9.35 0.13 -0.54 0.05 311
0.00 0.00 1.42 2.77 9.47 0.07 -0.52 0.09 317
0.00 0.00 1.78 3.00 9.42 0.00 -0.47 0.11 323
0.00 0.00 1.99 3.14 9.21 -0.05 -0.41 0.13 329
0.00 0.00 2.17 3.04 9.12 -0.10 -0.33 0.15 335
0.00 0.00 2.30 2.86 9.13 -0.16 -0.27 0.16 342
0.00 0.00 2.37 2.68 9.28 -0.20 -0.22 0.18 348
0.00 0.00 2.42 2.53 9.42 -0.25 -0.17 0.20 354
0.00 0.00 2.65 2.27 9.60 -0.31 -0.12 0.22 360
0.00 0.00 2.81 1.99 9.78 -0.36 -0.08 0.24 366
0.00 0.00 3.06 1.75 9.82 -0.43 -0.04 0.26 372
0.00 0.00 3.31 1.49 9.96 -0.49 0.01 0.29 378
0.00 0.00 3.46 1.23 10.09 -0.54 0.04 0.32 385
0.00 0.00 3.70 0.96 10.08 -0.61 0.08 0.36 392
0.00 0.00 3.88 0.56 10.08 -0.65 0.12 0.41 399
0.00 0.00 3.98 0.22 10.01 -0.70 0.14 0.45 406
0.00 0.00 4.03 -0.27 9.89 -0.73 0.18 0.48 413
0.00 0.00 4.10 -0.75 9.83 -0.74 0.20 0.50 419
0.00 0.00 4.13 -1.11 9.79 -0.74 0.25 0.50 425
0.00 0.00 4.25 -1.55 9.72 -0.73 0.31 0.48 432
0.00 0.00 4.27 -1.88 9.65 -0.72 0.38 0.46 438
0.00 0.00 4.21 -2.15 9.75 -0.70 0.46 0.43 444
0.00 0.00 4.08 -2.40 9.76 -0.69 0.54 0.40 450
0.00 0.00 3.82 -2.62 9.82 -0.68 0.61 0.38 456
0.00 0.00 3.55 -2.78 9.90 -0.66 0.65 0.36 462
0.00 0.00 3.21 -2.92 9.89 -0.65 0.68 0.35 468
0.00 0.00 2.88 -3.08 9.75 -0.64 0.71 0.35 475
0.00 0.00 2.61 -3.19 9.39 -0.61 0.72 0.37 481
0.00 0.00 2.03 -3.04 8.86 -0.56 0.77 0.40 487
0.00 0.00 1.20 -2.81 8.46 -0.50 0.88 0.48 493
0.00 0.00 0.51 -2.80 8.53 -0.40 0.98 0.57 499
0.00 0.00 -0.23 -2.79 8.74 -0.30 1.02 0.68 505
0.00 0.00 -0.84 -2.70 9.23 -0.22 0.98 0.78 512
0.00 0.00 -1.16 -2.63 9.73 -0.17 0.92 0.86 518
0.00 0.00 -1.49 -2.48 10.26 -0.18 0.83 0.96 524
0.00 0.00 -2.41 -2.40 10.67 -0.24 0.69 1.05 531
0.00 0.00 -2.10 -2.43 10.70 -0.35 0.57 1.11 538
0.00 0.00 -6.35 -6.88 23.00 -0.13 -0.49 1.14 545
0.00 0.00 -2.90 -2.97 6.99 -0.21 -0.62 1.15 552
0.00 0.00 -3.56 -5.60 7.03 -0.20 -0.84 1.07 560
0.00 0.00 -4.20 -10.44 8.46 -0.18 -1.03 0.93 566
0.00 0.00 -2.65 -8.56 9.35 0.10 -0.74 0.85 573
0.00 0.00 -2.14 -9.22 7.91 0.37 -0.13 0.90 579
0.00 0.00 -5.41 -11.52 7.66 0.47 -0.24 0.90 585
0.00 0.00 -6.08 -12.23 8.00 0.67 -0.44 0.85 592
0.00 0.00 -4.83 -4.79 9.66 0.86 -0.51 0.69 600
0.00 0.00 -4.43 -1.48 9.06 0.95 -0.51 0.37 606
0.00 0.00 -2.68 -2.46 12.60 0.56 -1.31 -0.05 612
-0.00 0.01 1.77 -3.07 13.65 0.10 -0.95 -0.15 619
-0.00 0.02 -0.12 -0.57 10.16 -0.07 -0.29 -0.04 626
-0.00 0.04 0.77 -1.14 10.27 -0.11 -0.18 -0.08 633
-0.01 0.09 0.66 -0.66 9.82 -0.05 -0.15 -0.06 641
-0.01 0.12 0.50 -0.93 10.06 -0.01 -0.12 -0.05 648
-0.00 0.11 0.26 -0.95 9.95 -0.03 -0.03 -0.04 655
-0.01 0.14 0.22 -0.99 9.89 -0.03 -0.01 -0.05 662
-0.01 0.12 0.21 -0.93 9.83 -0.03 0.00 -0.06 669
-0.01 0.11 0.31 -0.95 9.83 -0.03 0.01 -0.05 676
-0.01 0.14 0.31 -0.93 9.85 -0.04 0.01 -0.05 684
-0.01 0.12 0.28 -0.93 9.82 -0.03 0.01 -0.05 691
-0.01 0.14 0.25 -0.93 9.78 -0.03 0.02 -0.05 698
0.02 0.16 0.27 -0.89 10.41 -0.04 0.02 -0.05 705
0.02 0.16 0.31 -0.92 9.82 -0.04 0.02 -0.05 712
0.02 0.13 0.26 -0.86 9.79 -0.05 0.03 -0.04 719
0.03 0.15 0.29 -0.88 9.82 -0.05 0.03 -0.05 727
0.02 0.17 0.31 -0.90 9.80 -0.05 0.03 -0.04 734
0.03 0.18 0.28 -0.88 9.77 -0.05 0.03 -0.05 741
0.02 0.17 0.28 -0.87 9.77 -0.05 0.04 -0.04 748
0.02 0.21 0.28 -0.88 9.81 -0.05 0.04 -0.04 755
0.02 0.18 0.30 -0.84 9.82 -0.05 0.04 -0.04 762
0.02 0.22 0.26 -0.87 9.77 -0.05 0.05 -0.04 770
0.00 0.30 0.31 -0.86 9.81 -0.05 0.05 -0.04 777
0.01 0.25 0.27 -0.81 9.82 -0.05 0.05 -0.04 784
0.00 0.29 0.33 -0.82 9.82 -0.05 0.05 -0.04 791
-0.00 0.30 0.29 -0.86 9.82 -0.05 0.05 -0.04 798
-0.00 0.26 0.28 -0.78 9.79 -0.05 0.04 -0.04 805
0.01 0.30 0.28 -0.79 9.79 -0.05 0.04 -0.03 813
0.02 0.30 0.31 -0.82 9.82 -0.04 0.04 -0.03 820
0.03 0.38 0.26 -0.76 9.82 -0.04 0.04 -0.03 827
0.02 0.35 0.28 -0.85 9.82 -0.04 0.05 -0.03 834
0.03 0.35 0.29 -0.84 9.82 -0.03 0.05 -0.03 841
0.02 0.37 0.28 -0.82 9.82 -0.03 0.05 -0.03 848
0.02 0.38 0.29 -0.77 9.82 -0.03 0.05 -0.03 856
0.01 0.47 0.28 -0.75 9.81 -0.03 0.05 -0.03 863
0.01 0.47 0.29 -0.81 9.81 -0.02 0.04 -0.03 870
-0.00 0.49 0.31 -0.73 9.79 -0.02 0.04 -0.03 877
-0.00 0.52 0.30 -0.76 9.80 -0.02 0.05 -0.03 884
-0.00 0.50 0.31 -0.78 9.82 -0.02 0.04 -0.03 891
0.00 0.53 0.28 -0.79 9.79 -0.02 0.04 -0.03 899
0.01 0.54 0.29 -0.75 9.78 -0.01 0.04 -0.03 906
0.01 0.57 0.28 -0.77 9.80 -0.01 0.04 -0.04 913
-0.00 0.58 0.31 -0.79 9.81 -0.01 0.04 -0.03 920
-0.01 0.58 0.26 -0.77 9.20 -0.01 0.04 -0.03 927
-0.01 0.57 0.32 -0.77 9.81 -0.01 0.04 -0.03 934
-0.00 0.54 0.30 -0.76 9.82 -0.00 0.04 -0.03 942
0.01 0.50 0.29 -0.78 9.81 0.00 0.04 -0.04 949
0.00 0.51 0.28 -0.81 9.83 -0.00 0.04 -0.03 956
0.00 0.50 0.29 -0.77 9.78 -0.00 0.04 -0.03 963
-0.00 0.52 0.30 -0.81 9.81 -0.00 0.04 -0.03 970
-0.01 0.54 0.29 -0.77 9.79 -0.00 0.04 -0.03 977
0.00 0.55 0.30 -0.79 9.81 -0.00 0.04 -0.03 985
0.01 0.55 0.29 -0.78 9.80 -0.00 0.04 -0.03 992
-0.00 0.55 0.31 -0.77 9.81 -0.00 0.04 -0.04 999
-0.00 0.54 0.30 -0.79 9.81 -0.00 0.05 -0.03 1006
-0.02 0.54 0.27 -0.81 9.79 -0.01 0.04 -0.03 1013
-0.01 0.53 0.29 -0.78 9.78 -0.00 0.04 -0.04 1020
0.00 0.53 0.29 -0.75 9.81 -0.01 0.04 -0.03 1028
-0.01 0.54 0.31 -0.78 9.80 -0.00 0.04 -0.03 1035
-0.00 0.54 0.27 -0.80 9.82 -0.01 0.05 -0.03 1042
0.01 0.53 0.26 -0.80 9.78 -0.01 0.04 -0.03 1049
-0.00 0.53 0.29 -0.76 9.81 -0.00 0.04 -0.03 1056
-0.00 0.55 0.29 -0.79 9.79 -0.00 0.04 -0.03 1063
0.00 0.54 0.29 -0.76 9.79 -0.01 0.04 -0.03 1071
0.00 0.54 0.29 -0.79 9.79 -0.01 0.04 -0.03 1078
-0.00 0.54 0.31 -0.80 9.82 -0.01 0.04 -0.04 1085
0.01 0.53 0.29 -0.81 9.76 -0.01 0.04 -0.03 1092
-0.00 0.52 0.28 -0.78 9.77 -0.00 0.04 -0.03 1099
0.01 0.52 0.28 -0.78 9.81 -0.00 0.04 -0.04 1106
0.02 0.53 0.30 -0.78 9.80 -0.01 0.04 -0.03 1114
-0.00 0.52 0.30 -0.80 9.81 -0.00 0.04 -0.03 1121
0.00 0.52 0.28 -0.76 9.81 -0.01 0.04 -0.04 1128
-0.02 0.51 0.29 -0.80 9.77 -0.01 0.04 -0.03 1135
-0.01 0.50 0.30 -0.80 9.81 -0.00 0.04 -0.04 1142
-0.01 0.50 0.25 -0.80 9.78 -0.00 0.04 -0.04 1149
0.00 0.48 0.30 -0.79 9.77 -0.00 0.04 -0.04 1157
-0.00 0.47 0.29 -0.83 9.79 -0.00 0.04 -0.04 1164
-0.01 0.46 0.29 -0.80 9.82 -0.00 0.04 -0.04 1171
-0.02 0.45 0.29 -0.79 9.82 -0.00 0.04 -0.04 1178
-0.01 0.44 0.29 -0.81 9.82 0.00 0.04 -0.04 1185
-0.01 0.44 0.30 -0.79 9.80 0.00 0.05 -0.04 1192
0.01 0.43 0.28 -0.77 9.81 0.00 0.04 -0.04 1200
0.01 0.42 0.29 -0.81 9.76 -0.00 0.04 -0.04 1207
0.02 0.41 0.32 -0.79 9.80 0.00 0.04 -0.04 1214
-0.00 0.43 0.30 -0.79 9.80 -0.00 0.04 -0.04 1221
0.01 0.41 0.31 -0.78 9.81 0.00 0.04 -0.03 1228
0.03 0.42 0.31 -0.78 9.75 -0.00 0.04 -0.04 1235
0.03 0.42 0.26 -0.80 9.80 -0.00 0.04 -0.04 1243
0.03 0.41 0.30 -0.80 9.78 -0.00 0.04 -0.03 1250
0.03 0.39 0.30 -0.79 9.80 -0.01 0.04 -0.03 1257
0.02 0.41 0.29 -0.77 9.79 -0.00 0.04 -0.04 1264
0.03 0.42 0.28 -0.79 9.79 -0.00 0.04 -0.03 1271
0.04 0.41 0.29 -0.80 9.80 -0.01 0.04 -0.03 1278
0.04 0.40 0.32 -0.82 9.81 -0.00 0.04 -0.03 1286
0.03 0.41 0.26 -0.80 9.82 -0.00 0.04 -0.03 1293
0.03 0.41 0.28 -0.76 9.81 -0.01 0.04 -0.03 1300
0.02 0.41 0.32 -0.80 9.78 -0.00 0.04 -0.03 1307
0.03 0.41 0.31 -0.81 9.80 -0.01 0.04 -0.04 1314
0.05 0.41 0.32 -0.79 9.81 -0.01 0.04 -0.04 1321
0.05 0.40 0.30 -0.77 9.79 -0.00 0.04 -0.03 1329
0.05 0.39 0.27 -0.78 9.82 -0.00 0.04 -0.04 1336
0.03 0.39 0.28 -0.78 9.82 -0.00 0.04 -0.03 1343
0.04 0.39 0.31 -0.80 9.85 0.00 0.04 -0.04 1350
0.04 0.39 0.30 -0.79 9.79 0.00 0.04 -0.04 1357
0.06 0.36 0.32 -0.78 9.82 0.00 0.05 -0.03 1364
0.05 0.32 0.31 -0.81 9.78 0.00 0.04 -0.04 1372
0.06 0.32 0.32 -0.80 9.82 0.00 0.04 -0.04 1379
0.05 0.30 0.29 -0.79 9.79 0.01 0.05 -0.04 1386
0.09 0.31 0.30 -0.80 9.82 0.01 0.04 -0.04 1393
0.11 0.32 0.33 -0.80 9.81 0.01 0.05 -0.04 1400
0.14 0.29 0.34 -0.81 9.82 0.02 0.05 -0.04 1408
0.13 0.24 0.34 -0.81 9.82 0.02 0.05 -0.04 1415
0.14 0.17 0.29 -0.80 9.83 0.02 0.05 -0.04 1422
0.15 0.14 0.34 -0.81 9.81 0.03 0.05 -0.05 1429
0.17 0.13 0.30 -0.85 9.82 0.04 0.05 -0.04 1436
0.19 0.09 0.34 -0.84 9.83 0.03 0.05 -0.05 1443
0.19 0.04 0.34 -0.84 9.81 0.04 0.05 -0.05 1451
0.20 0.01 0.27 -0.83 9.83 0.04 0.05 -0.05 1458
0.19 -0.01 0.35 -0.76 9.81 0.05 0.05 -0.05 1465
0.20 -0.01 0.33 -0.88 9.79 0.05 0.05 -0.05 1472
0.20 0.01 0.32 -0.86 9.81 0.05 0.05 -0.05 1479
0.21 -0.00 0.29 -0.89 9.80 0.06 0.05 -0.05 1486
0.22 -0.01 0.33 -0.85 9.81 0.06 0.06 -0.05 1494
0.22 -0.01 0.35 -0.91 9.83 0.06 0.06 -0.05 1501
0.22 -0.02 0.34 -0.91 9.85 0.07 0.06 -0.05 1508
0.23 -0.02 0.34 -0.87 9.83 0.08 0.07 -0.05 1515
0.25 -0.00 0.44 -1.19 9.83 0.10 0.07 -0.06 1522
0.28 -0.02 0.57 -0.94 10.18 0.13 0.08 -0.08 1529
0.29 -0.02 0.31 -0.98 9.57 0.20 0.07 -0.09 1537
0.28 -0.02 0.62 -0.98 10.13 0.33 0.07 -0.11 1545
0.26 -0.01 0.31 -1.00 10.74 0.48 0.14 -0.13 1552
0.27 -0.02 0.77 -1.17 11.91 0.88 0.25 -0.12 1559
0.27 -0.01 0.27 -1.20 10.91 1.01 0.35 -0.14 1566
0.28 -0.02 0.15 -1.06 10.93 0.99 0.19 -0.15 1573
0.27 -0.02 0.31 -1.19 11.01 1.05 0.16 -0.16 1581
0.25 -0.02 0.39 -1.28 11.03 1.10 0.12 -0.15 1587
0.22 -0.02 0.29 -1.44 10.66 1.14 0.11 -0.14 1594
0.20 -0.02 0.40 -1.47 10.40 1.16 0.09 -0.12 1601
0.19 -0.01 0.71 -1.70 9.41 1.17 0.08 -0.12 1608
0.19 -0.01 0.42 -1.81 9.08 1.17 -0.05 -0.11 1615
0.13 -0.01 0.40 -1.66 10.90 1.13 -0.06 -0.10 1623
0.11 -0.01 0.23 -1.98 10.07 1.10 -0.04 -0.10 1630
0.06 -0.01 0.38 -2.01 10.87 1.12 0.04 -0.08 1637
0.09 -0.01 0.16 -2.09 10.65 1.17 0.03 -0.07 1644
0.09 -0.01 0.34 -2.13 10.38 1.20 0.08 -0.06 1651
0.07 -0.01 0.44 -2.29 10.07 1.20 0.07 -0.05 1658
0.07 -0.01 0.58 -2.37 10.32 1.18 0.06 -0.05 1666
0.04 -0.00 0.53 -2.64 10.56 1.16 0.03 -0.05 1673
0.05 -0.01 0.37 -2.68 10.47 1.13 -0.01 -0.05 1680
0.05 -0.00 0.80 -2.59 10.39 1.10 -0.06 -0.06 1687
0.03 -0.00 0.86 -2.74 10.72 1.06 -0.10 -0.09 1694
0.02 -0.00 0.74 -2.69 10.76 1.00 -0.14 -0.12 1701
0.01 -0.00 0.44 -2.91 11.73 0.93 -0.31 -0.15 1709
0.01 -0.00 0.13 -1.91 11.12 0.82 -0.55 -0.16 1716
0.00 0.00 0.79 -0.30 10.38 0.73 -0.75 -0.18 1723
0.01 -0.00 1.38 1.24 9.75 0.57 -0.87 -0.22 1730
0.01 -0.00 1.53 1.95 8.78 0.30 -0.89 -0.28 1737
0.01 -0.00 1.49 2.05 8.81 0.05 -0.86 -0.34 1744
0.00 0.00 1.33 2.56 8.72 -0.09 -0.83 -0.43 1752
0.00 0.00 1.65 1.19 8.08 -0.14 -0.83 -0.49 1759
0.00 0.00 1.73 0.75 9.58 -0.17 -0.78 -0.49 1766
0.00 0.00 1.90 1.31 9.48 -0.32 -0.71 -0.50 1773
0.00 0.00 2.12 1.42 8.80 -0.39 -0.67 -0.51 1780
0.00 0.00 2.27 0.94 8.36 -0.41 -0.69 -0.51 1787
0.00 0.00 2.46 0.71 7.80 -0.41 -0.71 -0.51 1795
0.00 0.00 2.54 0.47 8.04 -0.39 -0.70 -0.50 1802
0.00 0.00 2.80 0.32 8.30 -0.34 -0.65 -0.49 1809
0.00 0.00 2.83 0.17 8.15 -0.29 -0.58 -0.49 1816
0.00 0.00 2.75 0.10 8.47 -0.28 -0.50 -0.48 1823
0.00 0.00 2.85 -0.01 8.61 -0.29 -0.35 -0.48 1830
0.00 0.00 2.88 -0.10 8.79 -0.31 -0.21 -0.48 1838
0.00 0.00 2.95 -0.24 8.83 -0.35 -0.07 -0.48 1845
0.00 0.00 2.96 -0.40 8.71 -0.39 0.10 -0.48 1852
0.00 0.00 2.97 -0.53 8.69 -0.41 0.23 -0.47 1859
0.00 0.00 2.88 -0.66 8.68 -0.42 0.32 -0.47 1866
0.00 0.00 2.79 -0.88 8.85 -0.42 0.43 -0.46 1873
0.00 0.00 2.62 -1.11 9.11 -0.41 0.51 -0.43 1881
0.00 0.00 2.35 -1.25 9.30 -0.42 0.57 -0.41 1888
0.00 0.00 1.99 -1.37 9.59 -0.42 0.58 -0.37 1895
0.00 0.00 1.70 -1.48 9.81 -0.45 0.56 -0.34 1902
0.00 0.00 1.52 -1.59 9.89 -0.49 0.50 -0.30 1909
0.00 0.00 1.51 -1.70 10.12 -0.54 0.45 -0.27 1916
0.00 0.00 1.66 -1.77 10.14 -0.60 0.39 -0.24 1924
0.00 0.00 1.88 -1.84 10.08 -0.65 0.38 -0.20 1931
0.00 0.00 2.05 -1.92 10.12 -0.71 0.41 -0.13 1938
0.00 0.00 2.25 -2.00 10.08 -0.75 0.47 -0.12 1945
0.00 0.00 2.22 -2.09 10.12 -0.78 0.51 -0.07 1952
0.00 0.00 2.00 -2.28 10.13 -0.79 0.57 -0.02 1959
0.00 0.00 1.72 -2.57 10.12 -0.80 0.60 0.05 1967
0.00 0.00 1.50 -2.75 10.06 -0.79 0.60 0.11 1974
0.00 0.00 1.46 -2.95 10.10 -0.78 0.58 0.17 1981
0.00 0.00 1.41 -3.17 10.09 -0.76 0.55 0.22 1988
0.00 0.00 1.37 -3.32 10.09 -0.72 0.54 0.26 1995
0.00 0.00 1.35 -3.46 10.00 -0.69 0.56 0.30 2002
0.00 0.00 1.20 -3.46 9.94 -0.65 0.58 0.32 2010
0.00 0.00 0.96 -3.45 9.89 -0.61 0.62 0.35 2017
0.00 0.00 0.67 -3.50 10.04 -0.58 0.65 0.39 2024
0.00 0.00 0.45 -3.58 10.24 -0.55 0.65 0.42 2031
0.00 0.00 0.22 -3.57 10.21 -0.52 0.65 0.44 2038
0.00 0.00 0.05 -3.56 10.05 -0.50 0.63 0.45 2045
0.00 0.00 -0.01 -3.50 9.89 -0.48 0.61 0.46 2053
0.00 0.00 -0.26 -3.39 9.77 -0.45 0.60 0.45 2060
0.00 0.00 -0.40 -3.33 9.84 -0.41 0.59 0.43 2067
0.00 0.00 -0.63 -3.31 9.84 -0.37 0.58 0.41 2074
0.00 0.00 -0.92 -3.25 10.03 -0.34 0.56 0.37 2081
0.00 0.00 -1.13 -3.14 10.16 -0.31 0.53 0.31 2088
0.00 0.00 -1.34 -3.00 10.18 -0.31 0.47 0.24 2096
0.00 0.00 -1.44 -2.92 10.32 -0.32 0.42 0.14 2103
0.01 -0.00 -1.47 -2.91 10.43 -0.34 0.39 0.05 2110
0.00 0.00 -1.39 -2.85 10.48 -0.36 0.41 -0.06 2117
0.00 0.00 -1.43 -2.75 10.32 -0.39 0.44 -0.16 2124
0.00 0.00 -1.59 -2.51 10.10 -0.41 0.50 -0.26 2131
0.00 0.00 -1.94 -2.34 9.90 -0.43 0.52 -0.34 2139
0.00 0.00 -2.27 -2.19 9.82 -0.44 0.49 -0.38 2146
0.00 0.00 -2.36 -2.17 9.74 -0.44 0.41 -0.40 2153
0.00 0.00 -2.29 -2.22 9.60 -0.42 0.32 -0.41 2160
0.00 0.00 -1.94 -2.39 9.55 -0.40 0.25 -0.40 2167
0.00 0.00 -1.59 -2.64 9.48 -0.38 0.22 -0.38 2174
0.00 0.00 -1.40 -2.81 9.37 -0.36 0.25 -0.36 2182
0.00 0.00 -1.47 -2.94 9.12 -0.30 0.30 -0.34 2189
0.00 0.00 -1.72 -2.97 9.03 -0.30 0.34 -0.32 2196
0.00 0.00 -6.61 -5.63 15.52 -0.04 -0.37 -0.23 2203
0.00 0.00 -3.25 -1.54 5.88 0.00 -0.61 -0.18 2210
0.00 0.00 -4.68 -3.28 8.40 0.07 -0.72 -0.12 2217
0.00 0.00 -5.75 -4.01 9.05 0.16 -0.94 -0.07 2225
0.00 0.00 -5.01 -3.97 10.28 0.26 -1.02 -0.06 2232
0.00 0.00 -4.08 -4.18 9.97 0.49 -0.83 0.07 2239
0.00 0.00 -4.96 -5.28 7.81 0.61 -0.59 0.18 2246
0.00 0.00 -5.61 -5.61 9.15 0.75 -0.64 0.25 2253
0.00 0.00 -12.78 -8.20 13.91 0.53 -1.18 0.22 2260
0.00 0.00 -2.03 -3.27 8.15 0.04 0.01 -0.01 2268
0.01 -0.00 -0.53 -2.38 9.63 -0.09 0.12 -0.06 2275
0.00 0.00 -0.06 -1.05 9.40 -0.13 0.06 -0.04 2282
-0.00 0.00 0.54 -0.81 9.57 -0.13 0.03 -0.03 2289
0.00 0.00 0.41 -1.08 9.30 -0.13 0.00 -0.02 2296
-0.00 0.01 0.15 -1.04 9.44 -0.18 0.02 0.00 2304
0.00 0.03 0.13 -0.93 10.23 -0.24 0.03 -0.00 2311
0.00 0.04 0.66 -1.06 10.85 -0.18 0.11 -0.02 2318
-0.00 0.05 0.46 -1.00 10.13 -0.16 0.13 -0.03 2325
0.01 0.04 0.53 -1.03 10.00 -0.14 0.09 -0.03 2332
0.01 0.09 0.40 -0.97 9.89 -0.12 0.06 -0.04 2339
0.02 0.15 0.35 -0.94 9.87 -0.10 0.04 -0.05 2347
0.00 0.15 0.29 -0.99 9.84 -0.09 0.04 -0.06 2354
0.01 0.19 0.35 -0.95 9.83 -0.08 0.04 -0.06 2361
0.00 0.20 0.29 -0.96 9.83 -0.07 0.04 -0.06 2368
0.01 0.17 0.29 -0.95 9.82 -0.07 0.04 -0.06 2375
-0.01 0.21 0.30 -0.94 9.83 -0.06 0.05 -0.06 2382
0.01 0.29 0.31 -0.93 9.82 -0.06 0.05 -0.06 2390
0.02 0.31 0.34 -0.95 9.83 -0.06 0.05 -0.06 2397
0.02 0.30 0.29 -0.91 9.76 -0.06 0.05 -0.06 2404
0.01 0.35 0.33 -0.88 9.80 -0.06 0.06 -0.06 2411
0.01 0.33 0.27 -0.89 9.82 -0.06 0.06 -0.06 2418
-0.01 0.45 0.29 -0.95 9.82 -0.05 0.06 -0.06 2425
-0.00 0.47 0.34 -0.88 9.82 -0.05 0.06 -0.05 2433
0.01 0.55 0.37 -0.87 9.87 -0.05 0.05 -0.05 2440
0.01 0.50 0.40 -0.90 9.82 -0.04 0.05 -0.06 2447
0.00 0.53 0.37 -0.92 9.82 -0.04 0.05 -0.06 2454
-0.01 0.55 0.36 -0.90 9.82 -0.03 0.05 -0.06 2461
-0.02 0.59 0.36 -0.89 9.82 -0.03 0.05 -0.06 2468
-0.01 0.57 0.34 -0.87 9.81 -0.03 0.04 -0.07 2476
-0.00 0.60 0.38 -0.89 9.83 -0.02 0.04 -0.07 2483
-0.00 0.58 0.33 -0.89 9.82 -0.02 0.04 -0.07 2490
-0.01 0.59 0.35 -0.89 9.81 -0.01 0.04 -0.07 2497
-0.01 0.61 0.40 -0.88 9.81 -0.01 0.04 -0.07 2504
-0.00 0.58 0.36 -0.89 9.81 -0.01 0.04 -0.07 2511
-0.00 0.60 0.34 -0.88 9.82 -0.01 0.04 -0.08 2519
0.02 0.57 0.36 -0.88 9.80 -0.00 0.04 -0.07 2526
0.02 0.55 0.32 -0.87 9.21 0.00 0.04 -0.07 2533
0.03 0.53 0.36 -0.89 9.80 0.00 0.04 -0.07 2540
0.02 0.53 0.37 -0.90 9.78 0.01 0.04 -0.07 2547
0.02 0.53 0.34 -0.90 9.82 0.01 0.04 -0.07 2554
0.02 0.52 0.36 -0.89 9.80 0.01 0.04 -0.07 2562
0.04 0.48 0.36 -0.92 9.79 0.01 0.04 -0.07 2569
0.03 0.47 0.33 -0.91 9.79 0.01 0.04 -0.07 2576
0.04 0.44 0.31 -0.90 9.77 0.01 0.04 -0.08 2583
0.02 0.44 0.34 -0.91 9.81 0.01 0.04 -0.08 2590
0.03 0.44 0.33 -0.91 9.81 0.00 0.04 -0.08 2597
0.04 0.43 0.35 -0.90 9.80 0.00 0.04 -0.08 2605
0.04 0.43 0.34 -0.88 9.80 0.00 0.04 -0.07 2612
0.04 0.41 0.34 -0.92 9.80 -0.00 0.04 -0.08 2619
0.04 0.38 0.38 -0.90 10.42 -0.00 0.04 -0.08 2626
0.04 0.39 0.34 -0.90 9.77 -0.00 0.04 -0.08 2633
0.05 0.40 0.37 -0.93 9.80 -0.00 0.04 -0.08 2640
0.07 0.41 0.36 -0.90 9.81 0.00 0.04 -0.07 2648
0.07 0.38 0.33 -0.91 9.81 0.00 0.04 -0.08 2655
0.08 0.40 0.35 -0.91 9.80 0.00 0.04 -0.08 2662
0.08 0.39 0.35 -0.89 9.81 -0.00 0.04 -0.08 2669
0.09 0.35 0.32 -0.89 9.82 0.00 0.04 -0.08 2676
0.09 0.36 0.35 -0.91 9.81 0.00 0.04 -0.08 2683
0.09 0.34 0.39 -0.92 9.79 -0.00 0.04 -0.08 2691
0.09 0.34 0.34 -0.93 9.82 -0.00 0.04 -0.08 2698
0.10 0.32 0.33 -0.91 9.78 -0.00 0.04 -0.07 2705
0.09 0.32 0.33 -0.88 9.81 -0.00 0.04 -0.07 2712
0.10 0.32 0.31 -0.89 9.81 -0.00 0.05 -0.07 2719
0.11 0.34 0.35 -0.89 9.80 0.03 0.04 -0.07 2726
0.14 0.33 0.36 -0.91 9.82 0.00 0.04 -0.08 2734
0.12 0.31 0.34 -0.91 9.81 -0.00 0.04 -0.07 2741
0.11 0.30 0.31 -0.94 9.80 -0.00 0.04 -0.08 2748
0.11 0.29 0.35 -0.90 9.81 0.00 0.05 -0.08 2755
0.12 0.29 0.35 -0.93 9.80 -0.00 0.05 -0.08 2762
0.13 0.32 0.35 -0.92 9.81 0.00 0.05 -0.08 2769
0.15 0.28 0.36 -0.90 9.81 0.00 0.05 -0.08 2777
0.15 0.24 0.34 -0.92 9.81 0.01 0.05 -0.08 2784
0.16 0.24 0.35 -0.92 9.20 0.01 0.05 -0.08 2791
0.15 0.22 0.35 -0.93 9.82 0.01 0.05 -0.07 2798
0.15 0.21 0.32 -0.93 9.77 0.01 0.04 -0.08 2805
0.17 0.24 0.34 -0.94 9.81 0.01 0.05 -0.08 2812
0.18 0.22 0.38 -0.93 9.79 0.00 0.05 -0.07 2820
0.17 0.21 0.33 -0.93 9.81 0.00 0.05 -0.08 2827
0.18 0.15 0.34 -0.92 9.82 0.00 0.05 -0.08 2834
0.17 0.15 0.39 -0.92 9.78 0.01 0.05 -0.08 2841
0.20 0.13 0.36 -0.94 9.76 0.01 0.05 -0.08 2848
0.20 0.13 0.34 -0.88 9.82 0.01 0.04 -0.08 2855
0.20 0.12 0.38 -0.93 9.77 0.00 0.05 -0.08 2863
0.19 0.12 0.35 -0.93 9.80 0.00 0.05 -0.08 2870
0.21 0.11 0.37 -0.93 9.80 0.01 0.05 -0.08 2877
0.21 0.12 0.36 -0.91 9.81 0.00 0.05 -0.08 2884
0.24 0.10 0.36 -0.93 9.77 0.01 0.05 -0.07 2891
0.26 0.05 0.35 -0.95 9.80 0.01 0.05 -0.08 2898
0.24 0.08 0.34 -0.93 9.81 0.01 0.05 -0.07 2906
0.24 0.03 0.41 -0.93 9.81 0.01 0.05 -0.08 2913
0.25 0.02 0.37 -0.93 10.42 0.02 0.05 -0.07 2920
0.26 0.02 0.39 -0.96 9.81 0.01 0.05 -0.08 2927
0.29 0.02 0.37 -0.93 9.80 0.02 0.05 -0.08 2934
0.31 -0.01 0.33 -0.93 9.82 0.02 0.05 -0.08 2941
0.30 -0.00 0.38 -0.94 9.82 0.02 0.04 -0.08 2949
0.31 -0.02 0.38 -0.95 9.81 0.03 0.05 -0.07 2956
0.30 -0.00 0.40 -1.00 9.81 0.03 0.05 -0.08 2963
0.34 0.00 0.37 -0.98 9.81 0.04 0.05 -0.08 2970
0.34 0.00 0.36 -0.99 9.82 0.04 0.04 -0.08 2977
0.37 -0.01 0.38 -0.94 9.85 0.05 0.04 -0.08 2984
0.37 -0.02 0.39 -1.00 9.88 0.06 0.04 -0.08 2992
0.38 -0.02 0.42 -0.99 9.89 0.07 0.04 -0.09 2999
0.40 -0.01 0.35 -1.13 9.85 0.09 0.04 -0.09 3006
0.41 -0.01 0.40 -1.02 9.92 0.11 0.05 -0.10 3013
0.42 -0.02 0.44 -1.04 9.83 0.12 0.06 -0.10 3020
0.47 -0.03 0.30 -1.01 9.92 0.15 0.06 -0.11 3027
0.47 -0.03 0.70 -1.16 9.65 0.17 0.09 -0.13 3035
0.46 -0.03 0.76 -1.04 10.36 0.22 0.15 -0.15 3043
0.46 -0.02 -0.22 -0.84 10.90 0.57 0.24 -0.15 3050
0.46 -0.01 0.54 -1.15 10.70 0.95 0.24 -0.12 3057
0.47 -0.03 0.10 -1.14 10.95 1.00 0.27 -0.14 3064
0.48 -0.03 0.12 -1.39 11.76 0.98 0.16 -0.14 3072
0.48 -0.02 0.60 -1.31 11.40 0.99 0.14 -0.14 3078
0.49 -0.03 0.41 -1.51 10.65 1.05 0.11 -0.13 3086
0.47 -0.02 0.62 -1.53 10.30 1.07 0.10 -0.14 3093
0.46 -0.01 0.36 -1.59 9.99 1.08 0.10 -0.14 3099
0.46 -0.03 0.46 -1.67 10.03 1.09 0.06 -0.14 3106
0.44 -0.02 0.34 -1.73 10.67 1.07 0.02 -0.14 3113
0.42 -0.02 0.32 -2.44 10.04 1.07 0.04 -0.13 3121
0.40 -0.02 0.25 -1.79 10.40 1.11 0.01 -0.12 3128
0.37 -0.02 0.47 -2.27 10.66 1.18 0.04 -0.11 3136
0.34 -0.01 0.30 -2.21 10.28 1.26 0.06 -0.10 3143
0.30 -0.02 0.23 -2.15 10.44 1.31 0.07 -0.08 3149
0.24 -0.02 0.09 -2.47 10.50 1.33 0.06 -0.10 3156
0.20 -0.02 0.59 -2.66 9.95 1.31 0.06 -0.05 3164
0.16 -0.02 0.30 -2.51 11.77 1.38 0.19 -0.06 3171
0.13 -0.01 0.17 -2.68 10.55 1.46 0.21 -0.05 3178
0.12 -0.00 0.46 -2.58 10.60 1.50 0.25 -0.03 3185
0.11 -0.01 0.11 -2.92 10.49 1.51 0.29 -0.01 3192
0.06 -0.01 -0.01 -3.07 10.79 1.52 0.32 0.01 3200
0.06 -0.01 0.29 -2.93 10.94 1.53 0.35 0.04 3207
0.06 -0.01 -0.04 -3.34 10.91 1.56 0.35 0.06 3214
0.06 -0.01 0.33 -3.44 10.96 1.56 0.32 0.09 3221
0.05 -0.01 0.25 -3.64 10.64 1.53 0.31 0.11 3228
0.05 -0.01 -0.25 -3.91 11.06 1.46 0.31 0.12 3235
0.04 -0.00 -0.64 -3.95 10.67 1.40 0.20 0.14 3243
0.03 -0.00 -0.86 -3.42 10.46 1.35 0.03 0.17 3250
0.00 -0.00 -1.16 -2.70 10.67 1.24 -0.20 0.20 3257
0.01 0.00 -0.81 -1.90 11.30 1.12 -0.43 0.21 3264
0.02 -0.00 0.27 -2.03 10.89 0.93 -0.58 0.21 3271
0.01 -0.00 0.73 -1.47 11.47 0.68 -0.68 0.19 3278
0.01 -0.00 1.35 0.60 9.45 0.47 -0.65 0.15 3286
0.01 -0.00 1.73 0.94 7.79 0.25 -0.59 0.03 3293
0.01 -0.00 1.27 1.03 6.84 0.06 -0.53 -0.17 3300
0.01 -0.00 1.03 1.42 6.91 -0.13 -0.51 -0.41 3307
0.00 0.00 0.12 1.82 7.83 -0.24 -0.47 -0.79 3314
0.00 0.00 1.01 0.41 7.53 -0.25 -0.46 -1.19 3321
0.00 0.00 0.77 0.08 9.73 -0.26 -0.47 -1.38 3329
0.00 0.00 0.55 0.95 10.07 -0.39 -0.38 -1.59 3336
0.00 0.00 0.84 1.43 9.38 -0.52 -0.37 -1.76 3343
0.00 0.00 0.95 1.10 8.50 -0.61 -0.45 -1.88 3350
0.00 0.00 0.88 0.61 8.21 -0.66 -0.53 -1.94 3357
0.00 0.00 1.11 0.29 8.09 -0.68 -0.63 -1.95 3364
0.00 0.00 1.40 0.09 8.20 -0.65 -0.74 -1.93 3372
0.00 0.00 1.61 -0.01 8.37 -0.60 -0.81 -1.89 3379
0.00 0.00 2.05 -0.11 8.42 -0.54 -0.86 -1.81 3386
0.00 0.00 2.36 -0.11 8.86 -0.52 -0.88 -1.71 3393
0.00 0.00 2.98 -0.05 9.14 -0.55 -0.85 -1.62 3400
0.00 0.00 3.51 -0.18 9.73 -0.61 -0.74 -1.51 3407
0.00 0.00 3.83 -0.39 9.60 -0.72 -0.59 -1.38 3415
0.00 0.00 4.00 -0.75 9.50 -0.85 -0.37 -1.30 3422
0.00 0.00 3.99 -1.15 9.33 -0.93 -0.16 -1.19 3429
0.00 0.00 3.90 -1.61 9.08 -0.98 -0.00 -1.11 3436
0.00 0.00 3.55 -1.87 8.70 -0.99 0.13 -1.01 3443
0.00 0.00 3.33 -2.03 8.41 -0.94 0.20 -0.91 3450
0.00 0.00 3.05 -2.10 8.28 -0.88 0.22 -0.81 3458
0.00 0.00 2.93 -2.07 8.48 -0.82 0.19 -0.67 3465
0.00 0.00 2.86 -2.05 8.71 -0.75 0.16 -0.56 3472
0.00 -0.00 2.84 -2.15 9.23 -0.70 0.12 -0.44 3479
0.00 0.00 2.79 -2.26 9.75 -0.67 0.11 -0.31 3486
0.00 0.00 2.73 -2.45 9.88 -0.66 0.12 -0.22 3493
0.00 0.00 2.59 -2.50 9.89 -0.67 0.18 -0.11 3501
0.00 0.00 2.31 -2.46 9.87 -0.68 0.27 -0.01 3508
0.00 0.00 2.01 -2.48 9.81 -0.70 0.41 0.12 3515
0.00 0.00 1.77 -2.52 9.81 -0.72 0.50 0.26 3522
0.00 0.00 1.58 -2.56 10.02 -0.74 0.58 0.38 3529
0.00 0.00 1.45 -2.64 10.15 -0.75 0.59 0.50 3536
0.00 0.00 1.41 -2.75 10.31 -0.77 0.55 0.59 3544
0.00 0.00 1.46 -2.99 10.31 -0.78 0.49 0.67 3551
0.00 0.00 1.58 -3.20 10.13 -0.79 0.45 0.72 3558
0.00 0.00 1.81 -3.33 10.06 -0.80 0.44 0.76 3565
0.00 0.00 1.93 -3.39 9.86 -0.80 0.49 0.77 3572
0.00 0.00 1.89 -3.37 9.81 -0.78 0.54 0.76 3579
0.00 0.00 1.72 -3.41 9.80 -0.74 0.61 0.76 3587
0.00 0.00 1.52 -3.43 9.81 -0.71 0.71 0.74 3594
0.00 0.00 1.20 -3.48 9.91 -0.67 0.77 0.72 3601
0.00 0.00 0.75 -3.57 9.89 -0.63 0.81 0.69 3608
0.00 0.00 0.40 -3.82 10.14 -0.60 0.84 0.67 3615
0.00 0.00 0.08 -4.10 10.19 -0.58 0.85 0.65 3622
0.00 0.00 -0.14 -4.18 10.30 -0.58 0.82 0.62 3630
0.00 0.00 -0.15 -4.27 10.53 -0.61 0.79 0.60 3637
0.00 0.00 -0.15 -4.39 10.47 -0.65 0.74 0.56 3644
0.00 0.00 -0.13 -4.52 10.39 -0.68 0.72 0.53 3651
0.00 0.00 -0.01 -4.68 10.25 -0.69 0.71 0.51 3658
0.00 0.00 0.10 -4.86 10.21 -0.68 0.72 0.47 3665
0.00 0.00 0.19 -4.94 10.16 -0.65 0.73 0.40 3673
-0.00 0.00 0.22 -5.08 10.02 -0.62 0.76 0.39 3680
0.00 -0.00 0.04 -5.03 9.83 -0.59 0.79 0.34 3687
0.00 0.00 -0.13 -4.91 9.68 -0.54 0.81 0.30 3694
0.00 0.00 -0.40 -4.75 9.64 -0.50 0.80 0.25 3701
0.00 0.00 -0.68 -4.49 9.62 -0.45 0.79 0.20 3708
0.00 0.00 -0.99 -4.23 9.72 -0.40 0.78 0.17 3716
0.00 0.00 -1.19 -3.99 9.85 -0.39 0.81 0.16 3723
0.00 0.00 -1.37 -3.93 10.26 -0.41 0.82 0.17 3730
0.00 0.00 -1.61 -3.98 10.72 -0.47 0.80 0.21 3737
0.00 0.00 -1.64 -3.94 10.97 -0.55 0.76 0.27 3744
0.00 0.00 -1.77 -3.92 10.87 -0.64 0.65 0.34 3751
0.00 0.00 -1.98 -3.97 10.31 -0.72 0.52 0.45 3759
0.00 0.00 -2.11 -4.20 9.66 -0.76 0.41 0.56 3766
0.00 0.00 -2.22 -4.61 9.15 -0.71 0.29 0.60 3773
0.00 0.00 -2.27 -4.99 8.67 -0.63 0.22 0.65 3780
0.00 0.00 -2.28 -5.26 8.49 -0.49 0.19 0.66 3787
0.00 0.00 -2.35 -5.52 8.36 -0.36 0.20 0.64 3794
0.00 0.00 -2.56 -5.61 8.40 -0.21 0.23 0.57 3802
0.00 0.00 -2.87 -5.57 8.49 -0.08 0.27 0.55 3809
0.00 0.00 -3.30 -5.36 8.52 0.03 0.28 0.49 3816
0.00 0.00 -3.64 -5.06 8.56 0.16 0.27 0.43 3823
0.00 0.00 -3.79 -4.65 8.49 0.29 0.23 0.38 3830
0.00 0.00 -12.84 -7.41 17.38 0.48 -0.19 0.39 3837
0.00 0.00 -4.08 -4.26 8.67 0.65 -0.84 0.43 3845
0.00 -0.00 -5.16 -3.34 7.03 0.72 -1.14 0.41 3852
0.00 -0.00 -7.34 -4.69 8.68 0.85 -1.39 0.46 3859
0.00 0.00 -15.19 -5.32 7.37 1.00 -1.73 0.45 3866
0.00 0.00 -15.77 0.34 19.87 0.53 -2.89 -0.04 3873
0.00 0.00 -4.58 -3.61 23.94 0.38 -0.41 -0.22 3880
0.00 0.00 -1.09 -0.64 2.68 0.17 -0.03 -0.32 3888
0.00 -0.00 -4.18 -0.44 8.67 -0.33 0.41 -0.27 3895
0.00 0.00 0.45 -1.21 11.45 -0.37 0.29 0.01 3902
0.00 0.00 0.08 -1.08 9.32 -0.38 0.19 0.02 3909
0.00 0.00 1.36 -1.39 13.13 -0.35 -0.02 0.05 3916
-0.00 0.01 -0.28 -1.02 9.65 -0.23 0.01 -0.02 3923
-0.00 0.03 0.11 -0.79 9.88 -0.24 0.05 -0.02 3931
0.00 0.04 0.19 -0.95 10.06 -0.23 0.09 -0.03 3938
-0.01 0.06 0.49 -0.89 10.16 -0.20 0.06 -0.03 3945
-0.01 0.12 0.44 -0.89 10.05 -0.15 0.03 -0.03 3952
-0.01 0.15 0.30 -0.86 9.97 -0.11 0.03 -0.04 3959
0.00 0.19 0.28 -0.87 9.85 -0.09 0.03 -0.05 3966
0.01 0.21 0.30 -0.86 9.84 -0.07 0.03 -0.04 3974
0.02 0.18 0.32 -0.90 9.82 -0.06 0.03 -0.04 3981
0.00 0.24 0.30 -0.86 9.80 -0.05 0.03 -0.05 3988
0.01 0.22 0.29 -0.91 9.81 -0.05 0.03 -0.05 3995
0.01 0.26 0.29 -0.88 9.78 -0.05 0.03 -0.05 4002
0.02 0.30 0.29 -0.88 9.80 -0.05 0.04 -0.05 4009
0.03 0.31 0.28 -0.89 9.78 -0.05 0.04 -0.05 4017
0.03 0.35 0.29 -0.83 9.79 -0.06 0.04 -0.05 4024
0.02 0.33 0.23 -0.83 9.81 -0.06 0.05 -0.05 4031
0.03 0.29 0.29 -0.85 9.82 -0.06 0.05 -0.04 4038
0.01 0.35 0.26 -0.82 9.82 -0.06 0.05 -0.04 4045
0.02 0.38 0.30 -0.82 9.81 -0.05 0.05 -0.03 4052
0.03 0.43 0.31 -0.80 9.81 -0.05 0.06 -0.03 4060
0.01 0.39 0.33 -0.82 9.80 -0.05 0.06 -0.04 4067
0.00 0.44 0.32 -0.82 9.82 -0.05 0.06 -0.04 4074
-0.01 0.50 0.31 -0.83 9.80 -0.04 0.06 -0.04 4081
-0.00 0.52 0.28 -0.79 9.81 -0.04 0.05 -0.04 4088
-0.00 0.54 0.31 -0.79 9.82 -0.04 0.05 -0.04 4096
0.02 0.54 0.31 -0.81 9.83 -0.03 0.05 -0.04 4103
0.01 0.57 0.31 -0.80 9.81 -0.03 0.05 -0.04 4110
0.01 0.55 0.32 -0.77 9.83 -0.02 0.04 -0.04 4117
-0.01 0.51 0.29 -0.78 9.79 -0.02 0.04 -0.04 4124
-0.01 0.55 0.29 -0.78 9.82 -0.01 0.04 -0.04 4131
-0.01 0.55 0.29 -0.80 9.21 -0.01 0.04 -0.04 4139
0.01 0.57 0.30 -0.80 9.83 -0.01 0.04 -0.04 4146
-0.01 0.56 0.30 -0.78 9.81 -0.00 0.04 -0.04 4153
0.00 0.55 0.26 -0.76 9.81 -0.00 0.05 -0.05 4160
-0.01 0.56 0.30 -0.77 9.84 0.00 0.04 -0.04 4167
-0.01 0.57 0.27 -0.81 9.78 0.00 0.04 -0.04 4174
-0.00 0.57 0.26 -0.79 9.80 0.00 0.04 -0.05 4182
0.00 0.54 0.30 -0.75 9.79 0.01 0.04 -0.04 4189
-0.01 0.54 0.33 -0.79 9.81 0.00 0.05 -0.05 4196
-0.00 0.52 0.29 -0.82 9.79 0.01 0.04 -0.05 4203
-0.01 0.52 0.29 -0.77 9.77 0.01 0.04 -0.05 4210
0.00 0.51 0.28 -0.79 9.77 0.00 0.04 -0.05 4217
0.02 0.50 0.29 -0.83 9.79 0.00 0.04 -0.05 4225
0.01 0.48 0.31 -0.81 9.80 -0.00 0.04 -0.05 4232
0.00 0.47 0.25 -0.81 9.77 0.00 0.04 -0.05 4239
0.00 0.43 0.27 -0.80 9.81 -0.00 0.05 -0.05 4246
0.01 0.46 0.32 -0.82 9.81 -0.00 0.04 -0.05 4253
0.03 0.47 0.29 -0.79 9.82 -0.01 0.05 -0.05 4260
0.03 0.46 0.30 -0.81 9.80 -0.00 0.04 -0.05 4268
0.02 0.46 0.33 -0.77 9.80 -0.00 0.05 -0.04 4275
0.02 0.46 0.29 -0.79 9.82 -0.00 0.05 -0.04 4282
0.01 0.46 0.28 -0.79 9.78 -0.01 0.05 -0.05 4289
0.02 0.47 0.31 -0.82 9.79 -0.00 0.05 -0.05 4296
0.02 0.48 0.29 -0.80 9.80 -0.01 0.05 -0.05 4303
0.04 0.47 0.34 -0.80 9.81 -0.00 0.05 -0.05 4311
0.03 0.46 0.28 -0.79 9.81 -0.00 0.05 -0.04 4318
0.03 0.46 0.29 -0.77 9.81 -0.01 0.05 -0.04 4325
0.01 0.45 0.29 -0.79 9.79 -0.00 0.05 -0.04 4332
0.02 0.44 0.31 -0.79 9.80 -0.00 0.05 -0.05 4339
0.02 0.47 0.28 -0.80 9.81 -0.00 0.05 -0.05 4346
0.03 0.47 0.34 -0.80 9.79 -0.00 0.05 -0.05 4354
0.02 0.45 0.28 -0.81 9.82 0.00 0.05 -0.04 4361
0.02 0.44 0.29 -0.77 9.80 -0.00 0.05 -0.05 4368
0.01 0.46 0.30 -0.82 9.80 -0.00 0.05 -0.05 4375
0.02 0.45 0.30 -0.83 9.80 -0.00 0.05 -0.05 4382
0.03 0.45 0.33 -0.81 9.77 0.00 0.04 -0.04 4389
0.03 0.43 0.29 -0.79 9.82 -0.00 0.04 -0.05 4397
0.03 0.37 0.30 -0.79 9.81 0.00 0.05 -0.05 4404
0.03 0.36 0.32 -0.79 9.79 -0.00 0.04 -0.05 4411
0.03 0.36 0.31 -0.81 9.81 -0.00 0.04 -0.05 4418
0.04 0.37 0.32 -0.81 9.80 0.00 0.04 -0.05 4425
0.05 0.38 0.32 -0.77 9.81 0.00 0.04 -0.05 4432
0.05 0.37 0.29 -0.81 9.80 0.00 0.04 -0.05 4440
0.06 0.35 0.29 -0.81 9.79 0.00 0.04 -0.05 4447
0.06 0.30 0.33 -0.80 9.80 0.00 0.04 -0.05 4454
0.06 0.29 0.32 -0.80 9.79 0.01 0.04 -0.05 4461
0.07 0.30 0.31 -0.80 9.83 0.01 0.04 -0.05 4468
0.08 0.27 0.33 -0.80 9.81 0.01 0.04 -0.05 4475
0.10 0.28 0.32 -0.82 9.80 0.01 0.04 -0.05 4483
0.13 0.24 0.32 -0.82 9.20 0.01 0.04 -0.05 4490
0.14 0.24 0.31 -0.80 9.80 0.02 0.04 -0.05 4497
0.15 0.19 0.31 -0.84 9.82 0.02 0.04 -0.05 4504
0.17 0.17 0.35 -0.84 9.81 0.02 0.04 -0.05 4511
0.19 0.15 0.31 -0.83 9.81 0.02 0.04 -0.05 4518
0.21 0.10 0.33 -0.83 9.80 0.02 0.04 -0.05 4526
0.22 0.09 0.32 -0.88 9.83 0.03 0.03 -0.05 4533
0.20 0.03 0.29 -0.90 9.81 0.03 0.04 -0.05 4540
0.25 0.01 0.28 -0.80 9.82 0.03 0.04 -0.05 4547
0.27 0.02 0.38 -0.88 9.83 0.03 0.03 -0.05 4554
0.28 0.01 0.34 -0.89 9.79 0.04 0.04 -0.05 4561
0.30 -0.00 0.39 -0.91 9.77 0.04 0.04 -0.05 4569
0.31 -0.01 0.33 -0.64 9.79 0.05 0.04 -0.05 4576
0.31 -0.00 0.38 -0.88 9.88 0.06 0.04 -0.06 4583
0.34 -0.01 0.31 -0.95 9.82 0.07 0.04 -0.06 4590
0.38 -0.01 0.29 -1.05 9.90 0.08 0.04 -0.05 4597
0.40 -0.01 0.35 -1.03 9.87 0.10 0.05 -0.05 4604
0.43 -0.03 0.31 -0.92 9.91 0.12 0.06 -0.06 4612
0.45 -0.04 0.42 -1.09 9.87 0.16 0.07 -0.08 4619
0.49 -0.02 0.33 -0.96 10.51 0.24 0.04 -0.10 4626
0.53 -0.02 2.29 -0.48 10.42 0.35 0.04 -0.16 4633
0.53 -0.02 0.12 -1.04 11.97 0.71 0.21 -0.17 4641
0.53 -0.03 0.51 -1.23 12.31 1.30 0.32 -0.17 4648
0.54 -0.03 1.00 -0.97 12.02 1.36 0.18 -0.21 4656
0.56 -0.03 0.59 -1.39 11.71 1.36 0.12 -0.22 4663
0.56 -0.03 1.20 -1.34 11.73 1.44 0.09 -0.23 4670
0.56 -0.02 0.40 -1.44 11.51 1.54 0.03 -0.24 4676
0.56 -0.03 0.50 -1.55 10.59 1.63 0.03 -0.24 4683
0.53 -0.03 0.19 -1.64 10.23 1.66 -0.00 -0.24 4691
0.48 -0.03 0.09 -1.74 10.58 1.68 -0.03 -0.23 4699
0.42 -0.03 0.28 -2.03 10.21 1.70 0.01 -0.22 4706
0.37 -0.02 0.23 -2.15 10.85 1.75 0.04 -0.21 4713
0.32 -0.01 0.34 -2.25 11.03 1.81 0.12 -0.20 4720
0.24 -0.01 0.20 -2.40 11.34 1.88 0.18 -0.20 4726
0.16 -0.02 0.33 -2.23 10.92 1.96 0.28 -0.18 4733
0.13 -0.01 -0.29 -2.77 9.79 1.92 0.12 -0.14 4741
0.05 -0.01 1.13 -2.95 12.77 1.93 0.38 -0.16 4748
0.09 -0.01 -0.10 -3.28 12.40 1.98 0.44 -0.18 4755
0.09 -0.00 0.31 -3.36 11.10 2.01 0.48 -0.13 4762
0.07 -0.01 1.11 -3.73 10.67 1.93 0.57 -0.12 4769
0.07 -0.01 0.92 -4.03 11.60 1.84 0.64 -0.12 4776
0.03 -0.00 0.82 -4.29 12.10 1.75 0.72 -0.13 4784
0.00 -0.00 1.03 -2.81 11.56 1.66 0.73 -0.16 4791
0.01 -0.00 1.84 -4.05 10.32 1.56 0.74 -0.24 4798
0.02 -0.00 1.63 -3.07 10.93 1.44 0.85 -0.27 4805
0.01 -0.00 0.08 -0.63 12.12 1.31 0.83 -0.40 4812
0.01 -0.00 -1.05 -0.00 12.78 0.99 0.70 -0.56 4819
0.01 -0.00 -1.75 1.84 10.73 0.59 0.57 -0.84 4827
0.00 -0.00 -3.66 2.67 8.70 0.27 0.46 -1.30 4834
0.02 0.00 -4.53 2.46 7.59 -0.04 0.29 -1.83 4841
0.00 -0.00 -6.06 2.08 8.07 -0.29 0.10 -2.56 4848
0.00 0.00 -4.42 1.55 7.90 -0.37 -0.07 -3.05 4855
0.00 0.00 -4.44 1.52 10.72 -0.60 -0.22 -3.40 4862
0.00 0.00 -3.60 1.62 10.46 -0.93 -0.34 -3.70 4870
0.00 0.00 -2.40 1.18 9.66 -1.16 -0.56 -3.87 4877
-0.00 0.00 -1.74 0.02 8.42 -1.25 -0.81 -3.96 4884
0.00 -0.00 -1.16 -1.19 7.64 -1.24 -0.96 -3.94 4891
0.00 0.00 -0.40 -0.95 7.41 -1.14 -1.05 -3.83 4898
0.00 0.00 0.45 -1.12 7.13 -1.00 -1.12 -3.63 4905
0.00 0.00 1.00 -1.17 6.96 -0.82 -1.24 -3.42 4913
0.00 0.00 1.44 -1.30 6.75 -0.62 -1.38 -3.15 4920
0.00 0.00 2.00 -1.31 7.21 -0.46 -1.45 -2.87 4927
0.00 0.00 2.85 -1.22 7.84 -0.30 -1.44 -2.63 4934
0.00 0.00 3.78 -1.12 8.56 -0.19 -1.27 -2.37 4941
0.00 0.00 4.47 -0.93 8.99 -0.13 -1.00 -2.16 4948
0.00 0.00 5.09 -0.66 9.18 -0.15 -0.56 -1.94 4956
0.00 0.00 5.34 -0.51 9.07 -0.25 -0.13 -1.72 4963
0.00 0.00 5.44 -0.65 10.33 -0.39 0.35 -1.52 4970
0.00 0.00 4.32 -1.00 9.28 -0.52 0.69 -1.28 4977
0.00 0.00 3.60 -1.37 9.44 -0.63 0.84 -1.06 4984
0.00 0.00 2.58 -1.56 9.28 -0.69 0.86 -0.80 4992
0.00 0.00 1.26 -1.72 9.32 -0.71 0.74 -0.54 4999
0.00 0.00 1.18 -2.01 9.18 -0.71 0.55 -0.34 5006
0.00 0.00 0.73 -2.21 8.84 -0.69 0.28 -0.15 5013
0.00 0.00 0.61 -2.26 8.58 -0.66 0.09 0.02 5020
0.00 0.00 0.60 -2.25 8.40 -0.61 -0.05 0.09 5027
0.00 0.00 0.53 -2.34 8.35 -0.55 -0.10 0.19 5035
0.00 0.00 0.54 -2.40 8.47 -0.48 -0.08 0.25 5042
0.00 0.00 0.49 -2.50 8.76 -0.43 -0.00 0.32 5049
0.00 -0.00 0.35 -2.49 9.13 -0.40 0.09 0.37 5056
0.00 0.00 0.23 -2.51 9.49 -0.38 0.21 0.40 5063
0.00 0.00 0.00 -2.57 9.77 -0.38 0.31 0.44 5070
0.00 0.00 -0.27 -2.76 9.99 -0.40 0.36 0.47 5078
0.00 0.00 -0.35 -2.96 10.36 -0.43 0.40 0.49 5085
0.00 0.00 -0.23 -3.23 10.13 -0.46 0.42 0.49 5092
0.00 0.00 -0.19 -3.46 10.29 -0.51 0.45 0.49 5099
0.00 0.00 0.06 -3.74 10.34 -0.54 0.46 0.47 5106
0.00 0.00 0.24 -3.83 10.47 -0.58 0.46 0.45 5113
0.00 0.00 0.33 -3.90 10.59 -0.63 0.44 0.42 5121
0.00 0.00 0.38 -3.88 10.44 -0.69 0.43 0.40 5128
0.00 0.00 0.47 -3.93 10.28 -0.74 0.41 0.38 5135
0.00 0.00 0.55 -4.13 10.14 -0.77 0.40 0.35 5142
0.00 0.00 0.59 -4.29 9.90 -0.80 0.41 0.33 5149
0.00 0.00 0.60 -4.34 9.70 -0.82 0.45 0.31 5156
0.00 0.00 0.55 -4.41 9.40 -0.82 0.48 0.28 5164
0.00 0.00 0.45 -4.47 9.37 -0.81 0.51 0.26 5171
0.00 0.00 0.41 -4.65 9.50 -0.77 0.54 0.23 5178
0.00 0.00 0.49 -4.68 9.63 -0.72 0.55 0.20 5185
0.00 0.00 0.65 -4.74 9.74 -0.66 0.58 0.18 5192
0.00 0.00 0.82 -4.63 9.80 -0.61 0.60 0.14 5199
0.00 0.00 0.98 -4.52 9.77 -0.57 0.63 0.12 5207
0.00 0.00 1.03 -4.42 9.74 -0.53 0.69 0.12 5214
0.00 0.00 1.02 -4.21 9.59 -0.52 0.77 0.14 5221
0.00 0.00 0.69 -4.17 9.61 -0.49 0.84 0.18 5228
0.00 0.00 0.31 -4.16 9.59 -0.46 0.90 0.25 5235
0.00 0.00 0.01 -4.09 9.54 -0.43 0.92 0.32 5242
0.00 0.00 -0.25 -4.07 9.57 -0.39 0.90 0.41 5250
0.00 0.00 -0.34 -4.06 9.73 -0.37 0.86 0.49 5257
0.00 0.00 -0.40 -4.14 9.85 -0.34 0.78 0.55 5264
0.00 0.00 -0.40 -4.06 9.98 -0.30 0.69 0.61 5271
0.00 0.00 -0.32 -3.88 9.89 -0.33 0.62 0.66 5278
0.00 0.00 -0.15 -3.63 9.89 -0.33 0.54 0.71 5285
0.00 0.00 -0.01 -3.45 9.91 -0.34 0.50 0.76 5293
0.00 0.00 -0.01 -3.33 9.86 -0.33 0.50 0.80 5300
0.00 -0.00 -0.06 -3.23 9.82 -0.32 0.51 0.84 5307
0.00 0.00 -0.07 -3.14 9.71 -0.31 0.52 0.87 5314
0.00 0.00 -0.13 -3.10 9.75 -0.31 0.54 0.88 5321
0.00 0.00 -0.17 -3.02 9.74 -0.31 0.56 0.87 5328
0.00 0.00 -0.24 -2.81 9.81 -0.31 0.59 0.87 5336
0.00 0.00 -0.48 -2.44 9.84 -0.32 0.62 0.89 5343
0.00 0.00 -0.75 -2.03 10.00 -0.33 0.64 0.93 5350
0.00 0.00 -1.08 -1.87 10.18 -0.37 0.63 0.97 5357
0.00 0.00 -1.42 -1.87 10.34 -0.39 0.60 1.03 5364
0.00 0.00 -1.67 -2.05 10.40 -0.43 0.55 1.06 5371
0.00 0.00 -1.70 -2.34 10.35 -0.47 0.48 1.06 5379
0.00 0.00 -1.72 -2.68 10.11 -0.49 0.43 1.02 5386
0.00 0.00 -1.63 -3.00 9.93 -0.50 0.40 0.96 5393
0.00 0.00 -1.52 -3.30 9.69 -0.49 0.41 0.86 5400
0.00 0.00 -1.40 -3.38 9.51 -0.46 0.45 0.76 5407
0.00 0.00 -1.37 -3.40 9.45 -0.42 0.51 0.65 5414
0.00 0.00 -1.47 -3.37 9.47 -0.40 0.58 0.57 5422
0.00 0.00 -1.64 -3.34 9.68 -0.38 0.61 0.52 5429
0.00 0.00 -1.82 -3.33 9.82 -0.37 0.58 0.49 5436
0.00 0.00 -1.97 -3.32 9.81 -0.37 0.53 0.47 5443
0.00 0.00 -10.54 -10.10 19.45 -0.25 0.03 0.51 5450
0.00 0.00 -1.15 -3.40 8.79 -0.13 -0.49 0.56 5457
0.00 0.00 -3.84 -4.08 9.08 -0.16 -0.67 0.57 5465
0.01 -0.00 -3.97 -5.28 9.16 -0.11 -0.81 0.66 5472
0.00 0.00 -4.66 -9.26 9.26 -0.01 -0.87 0.76 5479
0.00 0.00 6.72 -4.90 1.13 0.27 0.02 1.01 5486
0.00 0.00 -0.11 -6.71 3.83 0.46 0.02 1.20 5493
0.00 0.00 -4.55 -7.60 8.41 0.52 -0.25 1.31 5500
-0.00 0.00 -5.50 -7.23 8.64 0.69 -0.46 1.49 5508
0.00 0.00 -5.19 -5.45 9.03 0.81 -0.60 1.69 5515
0.00 0.00 -18.86 -8.41 26.88 0.70 -1.08 1.58 5522
0.00 0.00 -8.77 -4.11 10.13 0.19 -0.74 0.82 5529
-0.00 0.00 -6.49 -4.76 12.19 0.05 -0.37 0.23 5536
-0.00 0.02 -1.15 -1.41 9.87 -0.07 0.01 -0.06 5543
-0.00 0.04 -0.02 -0.65 9.81 -0.12 0.02 -0.09 5551
-0.00 0.03 0.45 -0.87 9.81 -0.12 -0.02 -0.08 5558
-0.00 0.02 0.64 -0.94 9.81 -0.09 0.00 -0.04 5565
-0.00 0.00 0.42 -0.99 9.80 -0.09 0.02 -0.02 5572
-0.00 0.02 0.13 -0.91 9.94 -0.12 0.04 -0.02 5579
-0.00 0.02 0.22 -0.94 9.96 -0.12 0.05 -0.03 5586
-0.00 0.04 0.27 -0.99 9.95 -0.10 0.05 -0.04 5594
-0.00 0.02 0.42 -1.03 9.82 -0.08 0.05 -0.04 5601
-0.00 0.04 0.38 -0.97 9.82 -0.06 0.05 -0.04 5608
-0.00 0.03 0.29 -0.92 9.81 -0.05 0.04 -0.04 5615
-0.00 0.05 0.27 -0.86 9.79 -0.05 0.03 -0.05 5622
-0.01 0.06 0.34 -0.86 9.78 -0.05 0.04 -0.05 5629
-0.01 0.07 0.31 -0.86 9.79 -0.05 0.01 -0.06 5637
-0.01 0.07 0.27 -0.89 9.81 -0.05 0.01 -0.06 5644
-0.01 0.07 0.31 -0.91 9.76 -0.06 0.00 -0.06 5651
-0.01 0.05 0.23 -0.87 9.79 -0.06 -0.00 -0.06 5658
0.01 0.09 0.27 -0.88 9.82 -0.06 -0.00 -0.06 5665
0.02 0.11 0.22 -0.87 9.77 -0.07 -0.00 -0.06 5672
0.03 0.18 0.26 -0.86 9.80 -0.08 -0.01 -0.07 5680
0.01 0.22 0.22 -0.86 9.77 -0.08 -0.00 -0.06 5687
0.01 0.21 0.20 -0.85 9.81 -0.08 0.01 -0.06 5694
-0.01 0.20 0.19 -0.83 9.80 -0.09 0.01 -0.06 5701
0.00 0.25 0.20 -0.88 9.83 -0.08 0.02 -0.06 5708
0.01 0.31 0.21 -0.88 9.83 -0.08 0.03 -0.05 5715
0.02 0.36 0.26 -0.87 9.78 -0.07 0.04 -0.05 5723
0.01 0.36 0.30 -0.88 9.85 -0.07 0.04 -0.05 5730
0.03 0.36 0.27 -0.85 9.81 -0.06 0.04 -0.06 5737
0.00 0.43 0.32 -0.85 9.82 -0.05 0.04 -0.05 5744
0.02 0.41 0.29 -0.80 9.83 -0.05 0.03 -0.05 5751
0.03 0.47 0.29 -0.81 9.82 -0.05 0.03 -0.05 5758
0.03 0.49 0.30 -0.83 9.82 -0.04 0.03 -0.06 5766
0.04 0.46 0.29 -0.82 9.83 -0.03 0.04 -0.06 5773
0.05 0.44 0.24 -0.79 9.83 -0.02 0.04 -0.06 5780
0.04 0.51 0.28 -0.78 9.82 -0.01 0.04 -0.07 5787
0.05 0.51 0.26 -0.83 9.83 -0.01 0.04 -0.07 5794
0.04 0.52 0.26 -0.80 9.84 -0.00 0.04 -0.07 5801
0.05 0.50 0.26 -0.80 9.85 0.00 0.05 -0.07 5809
0.06 0.50 0.25 -0.84 9.81 0.01 0.05 -0.07 5816
0.06 0.50 0.21 -0.79 9.80 0.01 0.05 -0.07 5823
0.06 0.49 0.25 -0.80 9.82 0.01 0.05 -0.07 5830
0.07 0.48 0.29 -0.82 9.82 0.01 0.05 -0.07 5837
0.08 0.47 0.28 -0.84 9.81 0.01 0.05 -0.07 5844
0.10 0.42 0.30 -0.79 9.82 0.01 0.04 -0.07 5852
0.09 0.41 0.27 -0.80 9.82 0.02 0.04 -0.08 5859
0.09 0.39 0.25 -0.82 9.81 0.02 0.05 -0.07 5866
0.13 0.38 0.24 -0.84 9.78 0.02 0.05 -0.08 5873
0.14 0.38 0.25 -0.79 9.82 0.02 0.05 -0.08 5880
0.14 0.33 0.25 -0.84 9.81 0.01 0.05 -0.07 5888
0.13 0.33 0.28 -0.82 9.77 0.01 0.05 -0.08 5895
0.13 0.30 0.27 -0.82 9.81 0.01 0.04 -0.07 5902
0.14 0.26 0.26 -0.83 9.81 0.01 0.05 -0.07 5909
0.16 0.25 0.24 -0.86 9.78 0.01 0.04 -0.08 5916
0.17 0.22 0.24 -0.81 9.81 0.01 0.04 -0.08 5923
0.18 0.20 0.29 -0.84 9.80 0.01 0.04 -0.08 5931
0.19 0.17 0.28 -0.84 9.80 0.00 0.04 -0.07 5938
0.19 0.14 0.26 -0.82 9.81 -0.00 0.04 -0.07 5945
0.18 0.16 0.27 -0.85 9.78 0.00 0.03 -0.08 5952
0.20 0.14 0.26 -0.82 9.80 0.00 0.04 -0.08 5959
0.21 0.12 0.26 -0.83 9.81 0.00 0.04 -0.08 5966
0.24 0.13 0.27 -0.84 9.81 0.00 0.04 -0.08 5974
0.23 0.08 0.20 -0.83 9.83 0.00 0.04 -0.08 5981
0.24 0.08 0.27 -0.87 9.83 0.00 0.04 -0.07 5988
0.23 0.11 0.27 -0.81 9.79 0.01 0.03 -0.07 5995
0.25 0.10 0.27 -0.86 9.82 0.00 0.03 -0.08 6002
0.26 0.08 0.26 -0.87 9.78 0.01 0.03 -0.08 6009
0.28 0.08 0.25 -0.85 9.81 0.01 0.03 -0.07 6017
0.28 0.07 0.25 -0.86 9.82 0.00 0.03 -0.08 6024
0.29 0.03 0.28 -0.87 9.82 0.01 0.03 -0.08 6031
0.30 0.01 0.23 -0.82 9.81 0.01 0.03 -0.08 6038
0.32 0.01 0.26 -0.89 9.82 0.01 0.03 -0.08 6045
0.33 -0.01 0.22 -0.85 9.81 0.01 0.03 -0.08 6052
0.32 -0.01 0.22 -0.87 9.82 0.01 0.04 -0.07 6060
0.32 -0.00 0.23 -0.86 9.80 0.01 0.03 -0.08 6067
0.32 -0.00 0.26 -0.87 9.82 0.02 0.03 -0.07 6074
0.32 -0.01 0.23 -0.87 9.81 0.02 0.04 -0.07 6081
0.33 0.01 0.28 -0.89 9.83 0.02 0.04 -0.07 6088
0.36 -0.01 0.21 -0.85 9.82 0.02 0.04 -0.07 6095
0.38 -0.00 0.21 -0.88 9.82 0.02 0.04 -0.08 6103
0.37 -0.01 0.23 -0.85 9.81 0.03 0.04 -0.07 6110
0.38 -0.01 0.23 -0.93 9.83 0.03 0.04 -0.07 6117
0.42 -0.01 0.24 -0.88 9.83 0.03 0.04 -0.07 6124
0.43 -0.01 0.22 -0.85 9.83 0.04 0.04 -0.07 6131
0.50 -0.02 0.25 -0.91 9.81 0.04 0.04 -0.07 6138
0.52 -0.02 0.25 -0.89 9.84 0.05 0.04 -0.07 6146
0.53 -0.03 0.22 -0.91 9.83 0.06 0.04 -0.07 6153
0.56 -0.01 0.27 -0.91 9.85 0.06 0.05 -0.07 6160
0.59 -0.03 0.25 -1.07 9.85 0.07 0.05 -0.07 6167
0.65 -0.02 0.32 -1.02 9.88 0.08 0.05 -0.07 6174
0.67 -0.02 0.08 -0.84 9.87 0.11 0.04 -0.08 6181
0.67 -0.03 0.26 -0.97 9.90 0.14 0.04 -0.09 6189
0.68 -0.04 0.12 -0.92 9.99 0.17 0.06 -0.10 6196
0.69 -0.04 0.05 -0.72 10.17 0.27 0.08 -0.12 6203
0.69 -0.03 0.12 -0.92 10.31 0.56 0.12 -0.13 6211
0.71 -0.03 0.19 -0.91 10.69 0.85 0.18 -0.15 6218
0.71 -0.03 0.28 -1.15 11.88 1.10 0.16 -0.16 6225
0.72 -0.03 0.27 -1.26 11.52 1.13 0.19 -0.18 6233
0.71 -0.04 0.58 -1.04 11.67 1.21 0.21 -0.20 6240
0.68 -0.03 0.24 -1.33 11.12 1.32 0.25 -0.21 6247
0.65 -0.03 0.45 -1.35 10.70 1.39 0.21 -0.22 6254
0.60 -0.03 0.29 -1.54 10.95 1.43 0.16 -0.22 6261
0.53 -0.03 0.10 -1.60 11.02 1.47 0.17 -0.22 6268
0.47 -0.04 0.19 -1.93 11.05 1.55 0.16 -0.21 6276
0.42 -0.02 0.20 -1.92 10.28 1.63 0.11 -0.18 6283
0.34 -0.02 0.29 -2.03 11.52 1.73 0.16 -0.17 6290
0.27 -0.02 0.02 -2.02 10.57 1.78 0.18 -0.15 6296
0.21 -0.02 -0.87 -1.44 8.27 1.81 0.12 -0.12 6303
0.21 -0.02 0.69 -2.51 12.30 1.84 0.32 -0.13 6311
0.12 -0.01 0.08 -2.58 11.79 1.92 0.36 -0.12 6318
0.07 -0.01 0.20 -3.02 11.79 1.95 0.50 -0.08 6325
0.08 -0.01 0.13 -3.25 11.42 1.93 0.57 -0.06 6332
0.07 -0.01 0.45 -3.39 11.77 1.88 0.62 -0.03 6339
0.06 -0.01 0.70 -3.92 12.35 1.84 0.65 -0.01 6346
0.02 -0.00 0.79 -3.98 12.86 1.76 0.74 0.01 6353
0.01 -0.00 0.01 -2.93 12.52 1.70 0.73 -0.00 6361
0.00 0.00 0.52 -3.11 11.96 1.60 0.62 -0.02 6368
0.01 -0.00 0.29 -1.85 11.57 1.49 0.64 -0.03 6375
0.01 -0.00 -0.09 0.76 12.87 1.37 0.60 -0.08 6382
0.02 -0.00 -0.25 1.46 11.09 1.10 0.47 -0.16 6389
0.02 -0.00 -1.30 2.67 11.01 0.77 0.25 -0.27 6396
0.00 -0.00 -2.16 4.65 9.86 0.50 0.03 -0.45 6404
0.00 0.00 -3.35 4.58 8.56 0.21 -0.19 -0.72 6411
0.00 -0.00 -1.87 2.40 6.02 0.03 -0.46 -1.02 6418
0.01 -0.00 -2.01 2.68 9.06 -0.24 -0.68 -1.17 6425
0.00 -0.00 -1.54 3.02 9.63 -0.61 -0.78 -1.37 6432
0.00 0.00 -0.76 2.19 9.04 -0.76 -0.92 -1.57 6439
0.00 0.00 -0.41 1.20 8.25 -0.81 -1.06 -1.68 6447
0.00 0.00 0.00 0.65 7.68 -0.80 -1.12 -1.79 6454
0.00 -0.00 0.42 0.41 7.11 -0.73 -1.16 -1.85 6461
0.01 -0.00 0.75 0.21 6.83 -0.63 -1.22 -1.88 6468
0.00 0.00 0.93 0.05 6.79 -0.53 -1.33 -1.87 6475
0.00 0.00 1.22 -0.09 7.00 -0.42 -1.36 -1.85 6482
0.00 0.00 1.80 -0.20 7.97 -0.30 -1.37 -1.79 6490
0.00 0.00 2.68 -0.05 8.88 -0.29 -1.27 -1.73 6497
0.00 0.00 3.69 0.05 9.38 -0.31 -1.01 -1.65 6504
0.00 0.00 4.33 0.09 9.34 -0.40 -0.62 -1.56 6511
0.00 0.00 4.46 0.05 9.11 -0.55 -0.24 -1.48 6518
0.00 0.00 4.24 -0.28 8.99 -0.72 0.20 -1.36 6525
0.00 0.00 3.84 -0.84 9.14 -0.82 0.49 -1.25 6533
0.00 0.00 3.03 -1.39 9.16 -0.89 0.68 -1.17 6540
0.00 0.00 2.31 -1.91 8.95 -0.90 0.74 -1.08 6547
0.00 0.00 1.93 -2.26 8.70 -0.87 0.71 -1.01 6554
0.00 0.00 1.69 -2.57 8.52 -0.82 0.59 -0.95 6561
0.00 0.00 1.59 -2.86 8.40 -0.77 0.46 -0.90 6568
0.00 0.00 1.64 -2.91 8.29 -0.69 0.31 -0.86 6576
0.00 0.00 1.60 -2.97 8.16 -0.62 0.20 -0.83 6583
0.00 -0.00 1.55 -2.96 8.13 -0.52 0.12 -0.78 6590
0.00 0.00 1.34 -2.94 8.23 -0.41 0.02 -0.73 6597
0.00 0.00 1.29 -2.93 8.47 -0.32 -0.07 -0.65 6604
0.00 0.00 1.38 -2.87 9.04 -0.23 -0.16 -0.59 6611
0.00 0.00 1.77 -2.78 9.83 -0.19 -0.21 -0.49 6619
0.00 0.00 2.12 -2.69 10.58 -0.21 -0.19 -0.39 6626
0.00 -0.00 2.44 -2.55 10.96 -0.29 -0.11 -0.26 6633
0.00 0.00 2.57 -2.51 11.07 -0.41 0.02 -0.12 6640
0.00 0.00 2.55 -2.48 10.86 -0.59 0.14 0.01 6647
0.00 0.00 2.45 -2.67 10.52 -0.74 0.29 0.17 6654
0.00 0.00 2.20 -3.05 10.39 -0.84 0.38 0.31 6662
0.00 0.00 1.91 -3.44 10.13 -0.89 0.45 0.41 6669
0.00 0.00 1.62 -3.84 9.74 -0.89 0.48 0.53 6676
0.00 0.00 1.35 -4.02 9.44 -0.84 0.47 0.59 6683
0.00 0.00 1.12 -4.10 9.21 -0.76 0.42 0.67 6690
0.00 0.00 1.04 -4.11 9.09 -0.68 0.37 0.72 6697
0.00 0.00 0.97 -3.99 9.21 -0.60 0.30 0.76 6705
0.00 0.00 1.04 -3.99 9.35 -0.52 0.25 0.78 6712
0.00 0.00 1.07 -3.90 9.32 -0.45 0.20 0.79 6719
0.00 0.00 1.04 -3.62 9.34 -0.40 0.18 0.81 6726
0.00 0.00 1.14 -3.52 9.76 -0.35 0.19 0.82 6733
0.00 0.00 1.22 -3.36 9.92 -0.34 0.25 0.84 6740
0.00 0.00 1.02 -3.08 10.08 -0.35 0.35 0.87 6748
0.00 0.00 1.07 -2.95 10.36 -0.39 0.49 0.93 6755
0.00 0.00 0.86 -2.95 10.63 -0.46 0.65 0.95 6762
0.00 0.00 0.45 -2.94 10.83 -0.54 0.76 0.99 6769
0.00 0.00 0.14 -3.05 10.88 -0.63 0.79 1.02 6776
0.00 0.00 -0.10 -3.29 10.83 -0.71 0.76 1.03 6784
0.00 0.00 -0.22 -3.48 10.62 -0.76 0.70 1.02 6791
0.00 0.00 -0.25 -3.61 10.28 -0.78 0.58 0.99 6798
0.00 0.00 -0.24 -3.71 9.83 -0.79 0.49 0.95 6805
0.00 0.00 -0.06 -3.68 9.53 -0.78 0.46 0.90 6812
0.00 0.00 0.04 -3.75 9.40 -0.74 0.47 0.85 6819
0.00 0.00 0.02 -3.82 9.32 -0.70 0.53 0.81 6827
0.00 0.00 -0.13 -3.78 9.39 -0.64 0.62 0.77 6834
0.00 0.00 -0.34 -3.85 9.54 -0.59 0.70 0.72 6841
0.00 0.00 -0.53 -3.89 9.65 -0.55 0.74 0.64 6848
0.00 0.00 -0.72 -3.96 9.74 -0.52 0.73 0.62 6855
0.00 0.00 -0.85 -4.02 9.83 -0.50 0.69 0.56 6862
0.00 0.00 -0.84 -4.11 9.96 -0.49 0.62 0.50 6870
0.00 0.00 -0.66 -4.21 10.20 -0.49 0.55 0.43 6877
0.00 0.00 -0.59 -4.32 10.10 -0.50 0.51 0.34 6884
0.00 0.00 -0.53 -4.28 9.89 -0.50 0.48 0.26 6891
0.00 0.00 -0.50 -4.24 9.57 -0.49 0.50 0.17 6898
0.00 0.00 -0.55 -4.18 9.19 -0.47 0.55 0.09 6905
0.00 0.00 -0.80 -4.12 8.98 -0.42 0.63 0.01 6913
0.00 0.00 -1.14 -4.03 9.05 -0.37 0.69 -0.04 6920
0.00 0.00 -1.43 -3.94 9.30 -0.32 0.72 -0.06 6927
0.00 0.00 -1.58 -3.87 9.46 -0.29 0.67 -0.07 6934
0.00 0.00 -1.55 -3.78 9.67 -0.27 0.59 -0.07 6941
0.00 0.00 -1.42 -3.78 9.82 -0.26 0.47 -0.06 6948
0.00 0.00 -1.15 -3.78 9.76 -0.26 0.39 -0.03 6956
0.00 0.00 -0.78 -3.81 9.67 -0.26 0.35 -0.01 6963
0.00 0.00 -0.62 -3.81 9.52 -0.26 0.35 0.03 6970
0.00 0.00 -0.62 -3.82 9.39 -0.25 0.36 0.10 6977
0.00 0.00 -0.77 -3.93 9.47 -0.23 0.36 0.09 6984
0.00 0.00 -0.96 -3.93 9.36 -0.20 0.33 0.09 6991
0.00 0.00 -1.07 -3.79 9.30 -0.16 0.29 0.09 6999
0.00 -0.00 -1.19 -3.66 9.23 -0.12 0.24 0.08 7006
0.00 0.00 -1.20 -3.56 9.30 -0.08 0.19 0.05 7013
0.00 0.00 -1.14 -3.46 9.43 -0.05 0.16 0.03 7020
0.00 0.00 -1.08 -3.33 9.56 -0.03 0.15 0.01 7027
0.00 0.00 -1.01 -3.16 9.59 -0.03 0.16 -0.01 7034
-0.00 0.00 -1.02 -2.97 9.62 -0.04 0.16 -0.01 7042
0.00 0.00 -0.98 -2.84 9.71 -0.06 0.15 -0.02 7049
0.00 0.00 -8.11 -7.08 18.78 0.08 -0.44 0.01 7056
0.00 0.00 -1.42 -2.03 8.53 0.11 -0.85 0.07 7063
0.00 0.00 -2.59 -2.45 8.93 0.06 -0.97 0.08 7070
0.00 0.00 -4.13 -4.10 9.86 0.04 -1.23 0.15 7077
0.00 0.00 -2.17 -3.01 9.66 0.05 -1.31 0.16 7085
0.01 -0.00 -2.51 -3.71 9.70 0.09 -1.33 0.13 7092
0.00 0.00 -3.09 -4.37 9.27 0.19 -1.37 0.13 7099
0.00 0.00 9.85 -3.62 2.61 0.62 -0.34 0.43 7106
0.00 0.00 0.41 -2.54 7.48 0.72 -0.28 0.60 7113
0.00 0.00 -8.58 -2.70 20.97 0.75 -0.43 0.69 7120
0.00 0.00 -9.49 -2.47 14.70 -0.02 -0.14 0.28 7128
0.00 0.00 -0.63 -1.75 8.57 -0.08 0.03 -0.00 7135
-0.00 0.00 -0.03 -1.21 9.66 -0.11 0.04 -0.06 7142
-0.00 0.00 0.18 -0.51 9.97 -0.09 0.05 -0.09 7149
-0.00 0.01 0.54 -0.80 9.63 -0.09 -0.00 -0.07 7156
-0.00 0.02 0.50 -1.04 9.81 -0.10 -0.02 -0.04 7163
0.00 0.03 0.42 -1.01 9.78 -0.11 -0.01 -0.03 7171
0.00 0.02 0.31 -0.90 9.82 -0.12 0.00 -0.03 7178
-0.00 0.03 0.24 -0.81 9.98 -0.11 0.00 -0.04 7185
-0.00 0.01 0.32 -0.94 9.99 -0.11 0.02 -0.04 7192
-0.00 0.04 0.31 -0.96 9.86 -0.09 0.03 -0.05 7199
-0.00 0.03 0.35 -0.96 9.83 -0.06 0.04 -0.05 7206
-0.00 0.03 0.35 -0.92 9.82 -0.04 0.04 -0.05 7214
-0.00 0.04 0.34 -0.87 10.42 -0.03 0.04 -0.05 7221
-0.00 0.03 0.35 -0.86 9.80 -0.03 0.03 -0.05 7228
-0.00 0.05 0.31 -0.86 9.77 -0.03 0.03 -0.06 7235
-0.00 0.04 0.33 -0.89 9.79 -0.03 0.03 -0.06 7242
-0.01 0.06 0.32 -0.85 9.81 -0.03 0.03 -0.06 7249
0.02 0.03 0.26 -0.86 9.75 -0.05 0.03 -0.06 7257
0.01 0.06 0.34 -0.88 9.74 -0.06 0.01 -0.06 7264
0.02 0.06 0.29 -0.83 9.73 -0.07 0.01 -0.06 7271
0.02 0.06 0.27 -0.86 9.77 -0.08 0.00 -0.06 7278
0.01 0.11 0.32 -0.86 9.73 -0.08 -0.01 -0.06 7285
0.03 0.13 0.28 -0.88 9.79 -0.09 -0.01 -0.06 7292
0.05 0.13 0.24 -0.86 9.79 -0.09 -0.01 -0.07 7300
0.03 0.18 0.15 -0.85 9.80 -0.09 -0.00 -0.06 7307
0.03 0.26 0.25 -0.85 9.20 -0.09 0.01 -0.06 7314
0.03 0.25 0.24 -0.84 9.81 -0.09 0.03 -0.06 7321
0.02 0.33 0.24 -0.82 9.83 -0.08 0.03 -0.05 7328
0.05 0.32 0.26 -0.80 9.83 -0.07 0.04 -0.06 7335
0.03 0.34 0.30 -0.80 9.85 -0.07 0.04 -0.06 7343
0.03 0.38 0.30 -0.84 9.79 -0.06 0.04 -0.05 7350
0.02 0.39 0.30 -0.80 9.81 -0.05 0.04 -0.06 7357
0.01 0.43 0.28 -0.79 9.83 -0.05 0.04 -0.05 7364
0.03 0.47 0.32 -0.79 9.82 -0.05 0.04 -0.06 7371
0.06 0.51 0.27 -0.80 9.84 -0.05 0.04 -0.06 7378
0.06 0.53 0.27 -0.84 9.81 -0.04 0.04 -0.05 7386
0.07 0.54 0.33 -0.79 9.84 -0.04 0.04 -0.06 7393
0.08 0.53 0.29 -0.79 9.81 -0.04 0.05 -0.06 7400
0.08 0.57 0.28 -0.74 9.82 -0.03 0.05 -0.06 7407
0.08 0.62 0.30 -0.75 9.83 -0.03 0.05 -0.06 7414
0.09 0.65 0.31 -0.75 9.81 -0.02 0.04 -0.06 7421
0.09 0.62 0.29 -0.77 9.85 -0.01 0.04 -0.06 7429
0.09 0.61 0.26 -0.75 9.84 -0.01 0.04 -0.06 7436
0.08 0.60 0.26 -0.77 10.42 0.00 0.04 -0.06 7443
0.07 0.58 0.32 -0.74 9.83 0.00 0.04 -0.06 7450
0.08 0.60 0.32 -0.76 9.78 0.00 0.04 -0.07 7457
0.10 0.58 0.30 -0.76 9.81 0.01 0.04 -0.07 7464
0.09 0.55 0.31 -0.77 9.82 0.01 0.04 -0.07 7472
0.10 0.53 0.27 -0.76 9.80 0.01 0.04 -0.07 7479
0.10 0.51 0.27 -0.79 9.82 0.01 0.04 -0.07 7486
0.12 0.49 0.29 -0.76 9.82 0.01 0.04 -0.07 7493
0.11 0.50 0.27 -0.74 9.80 0.01 0.04 -0.07 7500
0.14 0.45 0.33 -0.77 9.83 0.01 0.04 -0.07 7507
0.13 0.41 0.26 -0.78 9.80 0.01 0.04 -0.07 7515
0.13 0.39 0.25 -0.79 9.77 0.01 0.04 -0.07 7522
0.11 0.38 0.28 -0.79 9.80 0.01 0.04 -0.07 7529
0.13 0.36 0.30 -0.79 9.20 0.00 0.04 -0.07 7536
0.15 0.34 0.27 -0.78 9.79 0.01 0.04 -0.07 7543
0.15 0.29 0.31 -0.77 9.82 0.01 0.04 -0.07 7550
0.16 0.27 0.29 -0.80 9.78 0.00 0.04 -0.07 7558
0.16 0.29 0.28 -0.80 9.81 0.01 0.04 -0.07 7565
0.14 0.30 0.29 -0.81 9.81 0.00 0.04 -0.08 7572
0.20 0.29 0.26 -0.80 9.83 0.00 0.04 -0.07 7579
0.21 0.32 0.25 -0.78 9.81 0.00 0.04 -0.07 7586
0.23 0.28 0.28 -0.80 9.81 0.00 0.04 -0.08 7593
0.23 0.27 0.27 -0.79 9.82 0.00 0.04 -0.08 7601
0.25 0.22 0.26 -0.82 9.77 0.00 0.04 -0.07 7608
0.26 0.28 0.27 -0.82 9.81 0.00 0.04 -0.07 7615
0.27 0.25 0.27 -0.79 9.82 0.00 0.04 -0.07 7622
0.26 0.21 0.28 -0.81 9.82 0.01 0.04 -0.07 7629
0.27 0.17 0.25 -0.78 9.81 0.00 0.04 -0.07 7636
0.28 0.12 0.33 -0.80 9.78 0.00 0.04 -0.07 7644
0.30 0.14 0.26 -0.78 9.82 0.01 0.04 -0.07 7651
0.30 0.10 0.28 -0.82 9.80 0.01 0.04 -0.07 7658
0.31 0.08 0.29 -0.79 9.82 0.01 0.04 -0.07 7665
0.30 0.08 0.26 -0.80 9.79 0.01 0.04 -0.07 7672
0.29 0.05 0.27 -0.83 9.81 0.01 0.04 -0.07 7680
0.30 0.04 0.27 -0.82 9.81 0.01 0.04 -0.07 7687
0.31 0.03 0.25 -0.82 9.82 0.02 0.04 -0.07 7694
0.31 0.01 0.29 -0.82 10.42 0.02 0.04 -0.07 7701
0.33 0.01 0.29 -0.79 9.82 0.02 0.04 -0.07 7708
0.36 0.00 0.25 -0.81 9.84 0.02 0.04 -0.07 7715
0.36 -0.01 0.28 -0.84 9.81 0.02 0.04 -0.07 7723
0.35 -0.02 0.29 -0.80 9.82 0.02 0.04 -0.07 7730
0.36 -0.02 0.26 -0.80 9.83 0.02 0.04 -0.07 7737
0.39 -0.01 0.27 -0.82 9.79 0.02 0.04 -0.07 7744
0.42 -0.00 0.23 -0.85 9.82 0.02 0.05 -0.07 7751
0.45 -0.01 0.24 -0.80 9.80 0.02 0.05 -0.07 7758
0.47 -0.01 0.25 -0.83 9.82 0.02 0.05 -0.06 7766
0.49 -0.03 0.32 -0.81 9.80 0.02 0.05 -0.03 7773
0.47 -0.02 0.29 -0.84 9.82 0.02 0.05 -0.07 7780
0.50 -0.02 0.33 -0.87 9.84 0.03 0.05 -0.07 7787
0.52 -0.02 0.27 -0.86 9.82 0.02 0.05 -0.06 7794
0.53 -0.02 0.26 -0.86 9.78 0.03 0.05 -0.07 7801
0.54 -0.02 0.26 -0.89 9.81 0.03 0.05 -0.07 7809
0.55 -0.03 0.29 -0.82 9.81 0.03 0.05 -0.07 7816
0.55 -0.03 0.30 -0.86 9.83 0.04 0.06 -0.07 7823
0.57 -0.03 0.27 -0.85 9.87 0.04 0.06 -0.07 7830
0.58 -0.02 0.28 -0.96 9.85 0.05 0.07 -0.07 7837
0.59 -0.02 0.28 -0.83 9.84 0.06 0.07 -0.07 7844
0.60 -0.03 0.27 -0.96 9.84 0.08 0.08 -0.07 7852
0.59 -0.03 0.31 -0.95 9.85 0.10 0.10 -0.09 7859
0.62 -0.03 0.46 -0.86 9.96 0.13 0.11 -0.10 7866
0.64 -0.02 0.52 -0.98 10.01 0.20 0.14 -0.11 7874
0.66 -0.03 -0.44 -0.69 10.98 0.37 0.26 -0.13 7881
0.66 -0.03 0.29 -0.90 10.69 0.83 0.34 -0.13 7887
0.65 -0.04 1.06 -1.24 12.20 1.08 0.39 -0.15 7896
0.64 -0.03 0.78 -1.23 11.75 1.15 0.44 -0.19 7903
0.64 -0.04 0.80 -1.49 11.56 1.19 0.32 -0.22 7910
0.63 -0.03 0.30 -1.49 11.26 1.25 0.32 -0.24 7917
0.62 -0.03 0.64 -1.29 10.94 1.33 0.23 -0.25 7924
0.61 -0.03 0.29 -1.52 11.29 1.41 0.21 -0.25 7931
0.56 -0.04 0.46 -1.52 10.99 1.47 0.23 -0.24 7939
0.50 -0.03 0.36 -1.83 10.59 1.53 0.23 -0.23 7946
0.46 -0.02 0.30 -1.83 10.49 1.57 0.20 -0.20 7952
0.41 -0.02 0.33 -1.92 10.20 1.60 0.20 -0.19 7959
0.39 -0.03 0.32 -1.98 10.26 1.61 0.25 -0.17 7967
0.28 -0.02 0.23 -2.15 9.88 1.62 0.25 -0.14 7973
0.28 -0.02 1.28 -3.17 11.41 1.61 0.22 -0.12 7982
0.17 -0.02 0.87 -2.47 11.54 1.56 0.28 -0.10 7988
0.13 -0.01 0.67 -2.59 11.18 1.64 0.39 -0.13 7996
0.07 -0.01 0.38 -2.91 10.88 1.69 0.48 -0.11 8002
0.10 -0.01 0.70 -3.00 10.17 1.66 0.51 -0.08 8009
0.07 -0.01 1.13 -3.08 10.09 1.59 0.54 -0.08 8016
0.07 -0.01 1.23 -3.24 10.05 1.54 0.57 -0.10 8024
0.04 -0.00 1.24 -3.26 10.06 1.46 0.58 -0.13 8031
0.02 -0.00 1.30 -3.42 10.38 1.37 0.61 -0.14 8038
0.05 -0.01 1.84 -3.31 10.02 1.31 0.61 -0.18 8045
0.03 -0.00 2.16 -3.41 9.91 1.22 0.58 -0.22 8052
0.01 -0.00 2.31 -3.04 10.82 1.12 0.53 -0.27 8059
0.01 -0.00 2.81 -3.88 11.19 0.99 0.48 -0.37 8067
0.00 0.00 0.90 -1.61 11.26 0.89 0.50 -0.41 8074
0.01 -0.00 0.52 0.15 10.73 0.74 0.38 -0.52 8081
0.02 -0.00 0.05 1.22 10.96 0.52 0.17 -0.60 8088
0.02 -0.00 0.14 1.86 10.07 0.33 -0.02 -0.69 8095
0.01 -0.00 -0.42 3.03 8.90 0.21 -0.21 -0.79 8102
0.00 0.00 -0.50 3.88 8.31 0.09 -0.35 -0.93 8110
0.00 0.00 -0.04 3.57 7.48 -0.08 -0.49 -1.16 8117
0.00 0.00 0.13 3.28 7.41 -0.28 -0.59 -1.37 8124
0.00 -0.00 0.58 2.27 7.20 -0.44 -0.61 -1.63 8131
0.00 0.00 1.01 1.57 9.03 -0.53 -0.62 -1.82 8138
0.00 0.00 1.16 1.29 9.68 -0.73 -0.58 -1.96 8145
0.00 0.00 1.57 0.90 9.39 -0.86 -0.52 -2.09 8153
0.00 0.00 1.80 0.32 8.87 -0.92 -0.50 -2.15 8160
0.00 -0.00 1.78 -0.20 8.42 -0.93 -0.47 -2.17 8167
0.00 0.00 2.43 -0.57 8.17 -0.92 -0.43 -2.14 8174
0.00 0.00 1.88 -0.80 8.22 -0.87 -0.44 -2.08 8181
0.00 0.00 2.04 -1.01 8.30 -0.77 -0.46 -2.00 8188
0.00 0.00 2.26 -1.16 8.29 -0.73 -0.47 -1.90 8196
0.00 0.00 2.53 -1.22 8.35 -0.67 -0.46 -1.78 8203
0.00 0.00 2.79 -1.25 8.44 -0.62 -0.42 -1.64 8210
0.00 0.00 3.03 -1.28 8.57 -0.58 -0.33 -1.53 8217
0.00 0.00 3.01 -1.30 8.72 -0.54 -0.21 -1.40 8224
0.00 0.00 2.88 -1.49 8.96 -0.51 -0.11 -1.29 8231
0.00 0.00 2.61 -1.59 9.20 -0.49 -0.03 -1.19 8239
0.00 0.00 2.58 -1.56 9.71 -0.49 0.02 -1.09 8246
0.01 -0.00 2.61 -1.55 9.94 -0.52 0.07 -1.01 8253
0.00 0.00 2.50 -1.56 9.93 -0.59 0.12 -0.91 8260
0.00 0.00 2.38 -1.67 9.82 -0.65 0.16 -0.81 8267
0.00 0.00 2.28 -1.83 9.61 -0.72 0.20 -0.73 8274
0.00 0.00 2.16 -1.94 9.44 -0.74 0.22 -0.64 8282
0.00 0.00 1.87 -2.02 9.26 -0.73 0.25 -0.56 8289
0.00 0.00 1.47 -2.00 9.19 -0.68 0.28 -0.44 8296
0.00 0.00 1.17 -1.86 9.20 -0.63 0.29 -0.31 8303
0.00 0.00 1.03 -1.77 9.39 -0.58 0.26 -0.19 8310
0.00 0.00 0.97 -1.64 9.71 -0.55 0.21 -0.04 8317
0.00 0.00 1.10 -1.55 9.94 -0.55 0.16 0.09 8325
0.00 0.00 1.22 -1.51 10.13 -0.56 0.10 0.17 8332
0.00 0.00 1.45 -1.45 10.13 -0.58 0.08 0.25 8339
0.00 0.00 1.77 -1.42 10.45 -0.61 0.13 0.31 8346
0.00 0.00 1.89 -1.33 10.69 -0.65 0.25 0.36 8353
0.00 0.00 1.83 -1.31 10.68 -0.70 0.38 0.39 8360
0.00 0.00 1.45 -1.24 10.49 -0.76 0.52 0.42 8368
0.00 -0.00 0.93 -1.27 10.44 -0.80 0.61 0.43 8375
0.00 0.00 0.35 -1.32 10.32 -0.81 0.64 0.44 8382
0.00 0.00 -0.02 -1.36 10.08 -0.81 0.64 0.43 8389
0.00 0.00 -0.20 -1.39 10.00 -0.79 0.61 0.42 8396
0.00 0.00 -0.20 -1.38 10.00 -0.76 0.59 0.39 8403
0.00 0.00 -0.13 -1.29 10.10 -0.73 0.58 0.35 8411
0.01 -0.00 -0.15 -1.17 10.26 -0.71 0.60 0.31 8418
0.00 0.00 -0.22 -1.13 10.54 -0.71 0.63 0.25 8425
0.00 0.00 -0.28 -1.15 10.80 -0.73 0.65 0.17 8432
0.00 0.00 -0.48 -1.07 10.75 -0.77 0.67 0.09 8439
0.00 0.00 -0.62 -1.15 10.79 -0.82 0.66 -0.01 8446
0.00 0.00 -0.62 -1.35 10.83 -0.88 0.65 -0.11 8454
0.00 -0.00 -0.58 -1.64 10.73 -0.92 0.65 -0.23 8461
0.00 0.00 -0.52 -1.99 10.53 -0.93 0.66 -0.36 8468
0.00 0.00 -0.47 -2.18 10.20 -0.91 0.70 -0.47 8475
0.00 0.00 -0.46 -2.34 10.01 -0.89 0.76 -0.60 8482
0.00 0.00 -0.53 -2.56 9.93 -0.84 0.82 -0.71 8489
0.00 0.00 -0.69 -2.69 9.90 -0.80 0.90 -0.79 8497
0.00 0.00 -0.96 -2.82 9.91 -0.76 0.94 -0.86 8504
0.00 0.00 -1.08 -2.81 10.11 -0.72 0.94 -0.90 8511
0.00 0.00 -1.17 -2.87 10.09 -0.67 0.91 -0.92 8518
0.00 0.00 -1.28 -2.93 10.20 -0.62 0.89 -0.92 8525
0.00 0.00 -1.44 -3.04 10.19 -0.57 0.88 -0.90 8532
0.00 0.00 -1.63 -3.29 10.01 -0.54 0.84 -0.86 8540
0.00 0.00 -1.66 -3.55 10.08 -0.51 0.79 -0.83 8547
0.00 0.00 -1.65 -3.98 10.21 -0.49 0.72 -0.78 8554
0.00 0.00 -1.61 -4.35 10.09 -0.48 0.67 -0.73 8561
0.00 0.00 -1.56 -4.50 9.98 -0.47 0.60 -0.68 8568
0.00 0.00 -1.44 -4.64 9.86 -0.46 0.57 -0.59 8576
0.00 0.00 -1.36 -4.73 9.70 -0.46 0.55 -0.47 8583
0.00 0.00 -1.43 -4.83 9.43 -0.45 0.55 -0.36 8590
0.00 0.00 -1.54 -5.00 9.17 -0.42 0.50 -0.19 8597
0.00 0.00 -2.53 -6.76 9.94 -0.36 0.49 -0.04 8604
0.00 0.00 -1.44 -4.75 6.98 -0.08 -0.11 0.19 8611
0.00 0.00 -3.54 -4.79 5.94 -0.01 -0.45 0.37 8619
0.00 -0.00 -4.03 -7.23 10.53 0.07 -0.66 0.56 8626
0.00 0.00 -3.32 -6.52 8.85 0.11 -0.71 0.70 8633
0.00 0.00 -2.77 -6.34 8.58 0.24 -0.72 0.78 8640
0.00 0.00 -3.99 -7.41 8.72 0.39 -0.76 0.88 8647
0.00 0.00 -4.83 -8.50 8.63 0.57 -0.68 0.99 8654
0.00 0.00 -3.35 -8.03 5.94 0.83 -0.49 1.09 8662
0.00 0.00 -5.94 -8.66 7.14 1.05 -0.68 1.20 8669
0.00 0.00 -6.63 -7.81 8.19 1.31 -0.92 1.31 8676
0.00 0.00 -22.99 -8.28 31.85 1.30 -1.87 1.08 8683
0.00 0.00 -4.32 -5.28 21.11 0.07 -0.46 0.18 8690
-0.00 0.00 -2.40 -1.73 8.33 -0.09 0.00 0.01 8697
-0.00 0.01 -0.81 -0.96 9.10 -0.21 -0.05 -0.08 8705
-0.00 0.01 0.32 -0.55 9.46 -0.25 -0.11 -0.10 8712
-0.00 0.02 0.57 -1.06 9.49 -0.28 -0.09 -0.06 8719
-0.00 0.05 0.54 -0.80 10.08 -0.28 -0.03 -0.03 8726
-0.01 0.06 0.38 -0.84 10.00 -0.17 0.01 -0.04 8733
-0.01 0.10 0.23 -0.85 9.87 -0.13 0.01 -0.05 8740
-0.01 0.20 0.27 -0.96 9.90 -0.11 0.00 -0.05 8748
0.00 0.17 0.32 -0.97 9.81 -0.09 -0.00 -0.05 8755
0.02 0.19 0.41 -0.91 9.82 -0.08 -0.00 -0.05 8762
0.01 0.19 0.32 -0.85 9.89 -0.07 -0.00 -0.05 8769
0.01 0.25 0.34 -0.91 9.82 -0.06 0.00 -0.05 8776
0.02 0.26 0.36 -0.86 9.81 -0.05 0.00 -0.06 8783
0.04 0.23 0.35 -0.91 9.20 -0.05 0.01 -0.06 8791
0.04 0.27 0.29 -0.87 9.81 -0.05 0.01 -0.06 8798
0.03 0.24 0.30 -0.87 9.80 -0.04 0.02 -0.06 8805
0.03 0.25 0.33 -0.85 9.81 -0.05 0.02 -0.06 8812
0.03 0.28 0.35 -0.87 9.81 -0.05 0.02 -0.06 8819
0.06 0.33 0.32 -0.84 9.82 -0.05 0.02 -0.06 8826
0.06 0.33 0.29 -0.85 9.80 -0.04 0.03 -0.06 8834
0.07 0.36 0.32 -0.88 9.77 -0.04 0.03 -0.06 8841
0.07 0.32 0.28 -0.81 9.83 -0.04 0.03 -0.06 8848
0.05 0.36 0.30 -0.83 9.81 -0.03 0.04 -0.06 8855
0.08 0.35 0.32 -0.81 9.81 -0.03 0.04 -0.10 8862
0.08 0.38 0.34 -0.87 9.81 -0.03 0.04 -0.06 8869
0.09 0.38 0.31 -0.84 9.80 -0.03 0.04 -0.06 8877
0.07 0.42 0.34 -0.86 9.21 -0.03 0.04 -0.06 8884
0.06 0.38 0.32 -0.83 9.81 -0.03 0.04 -0.06 8891
0.04 0.42 0.31 -0.81 9.81 -0.03 0.04 -0.06 8898
0.04 0.43 0.33 -0.84 9.83 -0.02 0.04 -0.06 8905
0.07 0.46 0.30 -0.85 9.81 -0.02 0.04 -0.07 8912
0.07 0.42 0.33 -0.80 9.82 -0.02 0.04 -0.06 8920
0.08 0.40 0.31 -0.82 9.83 -0.01 0.04 -0.06 8927
0.08 0.39 0.33 -0.80 9.82 -0.01 0.04 -0.06 8934
0.06 0.42 0.32 -0.82 9.83 -0.01 0.04 -0.06 8941
0.07 0.41 0.31 -0.75 9.81 -0.00 0.04 -0.07 8948
0.09 0.43 0.31 -0.84 9.81 -0.00 0.05 -0.06 8955
0.07 0.42 0.32 -0.79 9.81 0.00 0.04 -0.06 8963
0.08 0.41 0.34 -0.80 9.83 -0.00 0.04 -0.06 8970
0.07 0.40 0.31 -0.82 9.82 -0.00 0.04 -0.07 8977
0.07 0.40 0.30 -0.80 9.80 0.00 0.04 -0.06 8984
0.07 0.41 0.30 -0.82 9.80 0.00 0.04 -0.06 8991
0.08 0.42 0.33 -0.82 9.80 0.00 0.04 -0.06 8998
0.08 0.42 0.31 -0.82 9.81 -0.00 0.04 -0.07 9006
0.08 0.40 0.30 -0.85 9.59 0.00 0.04 -0.07 9013
0.08 0.40 0.33 -0.83 9.81 0.00 0.04 -0.07 9020
0.09 0.40 0.32 -0.82 9.77 -0.00 0.04 -0.06 9027
0.08 0.41 0.34 -0.84 9.81 -0.00 0.04 -0.06 9034
0.11 0.40 0.33 -0.82 9.79 -0.00 0.04 -0.07 9041
0.10 0.39 0.34 -0.83 9.80 -0.00 0.04 -0.06 9049
0.10 0.38 0.30 -0.85 9.81 -0.01 0.04 -0.06 9056
0.10 0.39 0.31 -0.86 9.76 -0.00 0.04 -0.07 9063
0.10 0.39 0.30 -0.82 9.81 -0.01 0.04 -0.06 9070
0.11 0.40 0.32 -0.83 9.77 -0.01 0.04 -0.06 9077
0.12 0.39 0.33 -0.86 9.83 -0.01 0.04 -0.06 9084
0.11 0.39 0.29 -0.84 9.82 -0.01 0.04 -0.06 9092
0.11 0.38 0.31 -0.85 9.77 -0.01 0.04 -0.07 9099
0.10 0.38 0.33 -0.83 9.81 -0.01 0.04 -0.06 9106
0.11 0.40 0.30 -0.83 9.81 -0.01 0.04 -0.07 9113
0.12 0.40 0.29 -0.85 9.76 -0.01 0.04 -0.07 9120
0.11 0.40 0.30 -0.81 9.82 -0.01 0.04 -0.07 9127
0.11 0.39 0.33 -0.82 9.81 -0.00 0.04 -0.06 9135
0.11 0.37 0.31 -0.81 10.41 -0.00 0.04 -0.07 9142
0.11 0.37 0.34 -0.84 9.80 -0.01 0.04 -0.07 9149
0.12 0.37 0.29 -0.83 9.81 -0.00 0.04 -0.07 9156
0.13 0.38 0.33 -0.80 9.81 -0.01 0.03 -0.07 9163
0.13 0.38 0.31 -0.81 9.78 -0.01 0.04 -0.07 9170
0.12 0.38 0.30 -0.83 9.80 -0.00 0.03 -0.07 9178
0.12 0.36 0.30 -0.82 9.82 0.00 0.03 -0.07 9185
0.11 0.37 0.31 -0.81 9.81 -0.00 0.04 -0.07 9192
0.12 0.36 0.29 -0.81 9.81 -0.00 0.04 -0.07 9199
0.14 0.36 0.32 -0.81 9.79 0.00 0.04 -0.07 9206
0.14 0.35 0.32 -0.82 9.82 0.00 0.04 -0.08 9213
0.15 0.33 0.31 -0.86 9.81 0.01 0.04 -0.07 9221
0.14 0.32 0.30 -0.84 9.80 0.01 0.04 -0.07 9228
0.17 0.30 0.30 -0.82 9.79 0.01 0.04 -0.07 9235
0.18 0.32 0.30 -0.84 9.81 0.01 0.04 -0.07 9242
0.20 0.29 0.32 -0.81 9.80 0.00 0.04 -0.08 9249
0.21 0.28 0.32 -0.82 9.80 0.01 0.04 -0.07 9256
0.21 0.25 0.27 -0.83 9.81 0.01 0.04 -0.08 9264
0.22 0.21 0.33 -0.82 9.80 0.01 0.04 -0.07 9271
0.22 0.24 0.32 -0.82 9.79 0.01 0.04 -0.07 9278
0.20 0.23 0.29 -0.82 9.80 0.01 0.05 -0.07 9285
0.19 0.22 0.30 -0.82 9.78 0.01 0.04 -0.08 9292
0.21 0.19 0.32 -0.85 9.81 0.01 0.05 -0.07 9299
0.23 0.14 0.30 -0.84 9.81 0.02 0.05 -0.07 9307
0.22 0.12 0.33 -0.88 9.81 0.02 0.05 -0.08 9314
0.25 0.08 0.30 -0.80 9.81 0.02 0.05 -0.07 9321
0.24 0.02 0.29 -0.82 9.78 0.03 0.06 -0.07 9328
0.27 0.00 0.31 -0.80 9.81 0.03 0.06 -0.07 9335
0.27 0.00 0.27 -0.88 9.81 0.03 0.06 -0.07 9342
0.29 0.00 0.31 -0.86 9.81 0.03 0.06 -0.06 9350
0.31 -0.01 0.33 -0.88 9.90 0.04 0.06 -0.07 9357
0.33 -0.01 0.46 -0.91 9.92 0.04 0.06 -0.07 9364
0.36 -0.01 0.35 -0.92 9.82 0.04 0.07 -0.07 9371
0.38 -0.01 0.32 -1.01 9.82 0.04 0.07 -0.06 9378
0.37 -0.02 0.33 -0.87 9.84 0.05 0.08 -0.06 9385
0.37 -0.04 0.34 -0.87 9.85 0.06 0.08 -0.06 9393
0.39 -0.03 0.29 -0.86 9.87 0.07 0.10 -0.06 9400
0.38 -0.02 0.37 -0.92 9.89 0.08 0.11 -0.06 9407
0.43 -0.02 0.42 -1.08 9.96 0.10 0.12 -0.07 9414
0.42 -0.01 0.33 -0.87 9.97 0.13 0.14 -0.08 9421
0.42 -0.02 0.64 -1.01 10.05 0.19 0.15 -0.11 9430
0.43 -0.03 -0.28 -1.20 10.66 0.33 0.21 -0.17 9437
0.46 -0.03 0.09 -1.03 11.37 0.98 0.35 -0.16 9444
0.48 -0.01 2.39 -1.58 13.10 1.31 0.40 -0.18 9451
0.51 -0.03 0.66 -1.07 11.27 1.27 0.31 -0.22 9458
0.48 -0.03 0.64 -1.21 11.61 1.30 0.26 -0.21 9465
0.48 -0.04 0.27 -1.15 11.06 1.38 0.20 -0.22 9473
0.46 -0.02 0.31 -1.45 10.52 1.45 0.13 -0.21 9480
0.43 -0.02 0.29 -1.61 10.98 1.46 0.13 -0.21 9487
0.39 -0.01 0.33 -1.64 10.91 1.50 0.15 -0.19 9494
0.37 -0.02 0.28 -1.85 10.84 1.58 0.14 -0.17 9501
0.32 -0.02 0.56 -1.96 10.58 1.63 0.14 -0.16 9508
0.24 -0.02 0.41 -1.93 10.43 1.66 0.18 -0.16 9515
0.22 -0.02 0.50 -1.44 7.72 1.68 0.12 -0.15 9522
0.18 -0.01 0.71 -2.25 11.02 1.61 0.04 -0.12 9530
0.21 -0.01 0.67 -2.50 11.68 1.69 0.23 -0.16 9537
0.12 -0.01 0.24 -2.51 11.04 1.80 0.21 -0.15 9543
0.12 -0.01 0.71 -2.78 10.65 1.84 0.23 -0.15 9550
0.06 -0.01 0.99 -2.97 10.10 1.81 0.25 -0.16 9558
0.06 -0.01 0.62 -3.06 10.62 1.77 0.25 -0.16 9565
0.08 -0.00 0.79 -3.37 10.80 1.74 0.25 -0.15 9572
0.07 -0.01 1.26 -3.62 10.44 1.71 0.25 -0.17 9579
0.09 -0.01 1.36 -3.62 10.66 1.65 0.29 -0.19 9586
0.05 -0.00 1.80 -3.93 10.82 1.57 0.37 -0.22 9593
0.03 -0.00 1.70 -3.05 10.43 1.49 0.44 -0.27 9601
0.02 -0.00 2.84 -2.58 10.25 1.37 0.50 -0.35 9608
0.03 0.00 4.13 -3.47 9.68 1.24 0.69 -0.47 9615
0.03 -0.00 1.38 -0.25 10.71 1.10 0.88 -0.57 9622
0.02 -0.00 0.06 0.31 10.09 0.87 0.75 -0.69 9629
0.02 -0.00 -0.50 1.04 10.59 0.60 0.59 -0.83 9636
0.00 -0.00 -0.54 1.51 10.07 0.32 0.43 -0.93 9644
0.01 -0.00 -1.31 2.59 9.77 0.13 0.22 -1.15 9651
0.01 -0.00 -1.62 2.60 8.86 -0.09 0.06 -1.39 9658
0.02 -0.00 -1.62 2.87 8.60 -0.28 -0.09 -1.70 9665
0.01 -0.00 -1.86 3.16 8.51 -0.41 -0.19 -2.04 9672
0.00 0.00 -2.16 2.80 8.13 -0.54 -0.27 -2.38 9679
0.00 0.00 -1.31 1.85 7.58 -0.61 -0.42 -2.67 9687
0.00 0.00 -1.14 1.79 8.84 -0.76 -0.51 -2.82 9694
0.00 0.00 -0.64 1.94 8.86 -0.94 -0.58 -2.95 9701
0.00 -0.00 0.01 1.63 8.37 -1.09 -0.66 -2.99 9708
0.00 0.00 0.41 0.89 8.27 -1.13 -0.77 -2.97 9715
0.00 0.00 0.80 0.06 8.27 -1.12 -0.84 -2.89 9722
0.00 0.00 1.48 -0.14 8.48 -1.08 -0.86 -2.80 9730
0.01 -0.00 2.22 -0.29 8.69 -1.01 -0.80 -2.68 9737
0.01 -0.00 2.75 -0.36 8.83 -0.98 -0.66 -2.55 9744
0.00 0.00 3.16 -0.36 8.76 -0.97 -0.49 -2.43 9751
0.00 -0.00 3.39 -0.45 8.90 -0.98 -0.23 -2.28 9758
0.00 0.00 3.57 -0.57 9.05 -1.02 0.00 -2.15 9765
0.00 0.00 3.46 -0.82 9.12 -1.05 0.26 -1.99 9773
0.00 0.00 3.10 -1.16 9.20 -1.06 0.46 -1.83 9780
0.00 -0.00 2.75 -1.41 9.27 -1.04 0.57 -1.70 9787
0.00 -0.00 2.39 -1.63 9.32 -1.01 0.65 -1.53 9794
0.00 0.00 2.04 -1.80 9.41 -0.96 0.69 -1.39 9801
0.00 0.00 1.58 -2.02 9.48 -0.93 0.71 -1.23 9808
0.00 0.00 1.10 -2.24 9.62 -0.90 0.67 -1.07 9816
0.00 0.00 0.84 -2.37 9.70 -0.87 0.58 -0.94 9823
0.01 -0.00 0.68 -2.52 9.81 -0.84 0.48 -0.79 9830
0.00 0.00 0.55 -2.58 9.78 -0.81 0.40 -0.65 9837
0.00 0.00 0.44 -2.63 9.81 -0.77 0.34 -0.54 9844
0.00 0.00 0.34 -2.79 9.79 -0.74 0.33 -0.42 9851
0.00 0.00 0.40 -2.89 10.03 -0.71 0.34 -0.33 9859
0.00 -0.00 0.50 -2.93 10.29 -0.69 0.38 -0.24 9866
0.01 -0.00 0.52 -3.00 10.38 -0.70 0.44 -0.16 9873
0.00 0.00 0.45 -3.08 10.29 -0.72 0.49 -0.10 9880
0.01 -0.00 0.30 -3.13 10.07 -0.72 0.50 -0.05 9887
0.00 0.00 0.18 -3.17 10.03 -0.70 0.49 -0.03 9894
0.00 0.00 0.16 -3.21 9.97 -0.66 0.46 -0.00 9902
0.00 0.00 0.10 -3.09 9.91 -0.61 0.44 0.00 9909
0.01 -0.00 0.13 -2.92 9.80 -0.56 0.45 0.02 9916
0.00 0.00 0.02 -2.75 9.83 -0.51 0.49 0.02 9923
0.00 -0.00 -0.11 -2.54 9.84 -0.48 0.55 0.03 9930
0.00 0.00 -0.35 -2.51 10.05 -0.46 0.61 0.03 9937
0.00 -0.00 -0.52 -2.49 10.41 -0.44 0.66 0.04 9945
0.01 -0.00 -0.85 -2.39 10.97 -0.45 0.69 0.04 9952
0.00 -0.00 -1.05 -2.39 10.48 -0.45 0.69 0.06 9959
0.00 -0.00 -1.27 -2.31 10.33 -0.46 0.65 0.06 9966
0.01 -0.00 -1.51 -2.25 10.24 -0.47 0.58 0.06 9973
0.00 0.00 -1.52 -2.37 10.39 -0.47 0.46 0.05 9980
0.00 0.00 -1.31 -2.36 10.36 -0.45 0.36 0.04 9988
0.01 -0.00 -1.02 -2.40 10.50 -0.40 0.28 0.01 9995
0.00 -0.00 -0.61 -2.33 10.43 -0.38 0.26 -0.03 10002
0.01 -0.00 -0.21 -2.22 10.24 -0.34 0.30 -0.08 10009
0.00 0.00 -0.01 -2.14 10.13 -0.34 0.38 -0.14 10016
0.00 0.00 0.02 -2.20 10.00 -0.34 0.46 -0.23 10023
0.00 0.00 -0.09 -2.23 9.90 -0.34 0.55 -0.27 10031
0.01 -0.00 -0.36 -2.22 9.62 -0.34 0.66 -0.35 10038
0.00 -0.00 -0.72 -2.23 9.53 -0.34 0.69 -0.41 10045
0.00 -0.00 -0.95 -2.18 9.72 -0.32 0.72 -0.48 10052
0.00 0.00 -0.98 -2.11 9.91 -0.30 0.72 -0.57 10059
0.00 0.00 -0.94 -1.99 9.96 -0.30 0.73 -0.60 10066
0.00 -0.00 -0.86 -1.90 10.12 -0.31 0.74 -0.65 10074
0.01 -0.00 -0.76 -2.00 10.11 -0.32 0.76 -0.69 10081
0.00 0.00 -0.65 -2.09 10.10 -0.32 0.80 -0.73 10088
0.00 0.00 -0.59 -2.21 10.00 -0.32 0.84 -0.77 10095
0.00 0.00 -0.69 -2.30 9.90 -0.32 0.87 -0.79 10102
0.00 -0.00 -0.74 -2.37 9.89 -0.33 0.89 -0.80 10109
0.00 -0.00 -0.79 -2.46 10.07 -0.34 0.87 -0.84 10117
0.00 -0.00 -0.97 -2.49 10.06 -0.35 0.84 -0.79 10124
0.00 0.00 -1.02 -2.56 10.06 -0.37 0.79 -0.76 10131
0.00 -0.00 -1.13 -2.64 9.91 -0.37 0.72 -0.73 10138
0.00 0.00 -1.15 -2.77 9.87 -0.36 0.65 -0.68 10145
0.00 0.00 -1.08 -2.85 9.77 -0.35 0.62 -0.64 10152
0.01 -0.00 -1.02 -2.94 9.61 -0.34 0.60 -0.60 10160
0.00 -0.00 -6.42 -3.30 9.05 -0.16 0.01 -0.52 10167
0.00 -0.00 -2.30 -2.23 8.05 -0.18 -0.10 -0.47 10174
0.00 0.00 -3.70 -4.76 9.72 -0.18 -0.22 -0.38 10181
0.00 0.00 -3.56 -4.74 9.00 -0.15 -0.39 -0.27 10188
0.00 -0.00 -3.98 -4.99 9.00 -0.08 -0.52 -0.24 10195
0.01 -0.00 3.28 -4.61 7.15 0.21 -0.02 0.02 10203
0.00 -0.00 -2.31 -5.63 8.07 0.29 -0.07 0.16 10210
0.00 0.00 -4.52 -5.82 8.30 0.46 -0.27 0.32 10217
0.00 0.00 -4.85 -6.18 8.23 0.60 -0.43 0.53 10224
0.00 0.00 -5.00 -6.48 8.19 0.79 -0.62 0.75 10231
0.00 -0.00 -14.02 -6.73 12.00 0.61 -1.42 0.71 10238
0.01 -0.00 -10.58 -4.66 12.42 0.38 -1.25 0.64 10247
0.00 0.00 -5.34 -6.50 10.39 -0.14 0.10 0.24 10253
0.00 0.00 -0.36 -1.43 10.51 -0.25 0.16 -0.03 10260
-0.00 0.01 -0.11 -0.63 9.13 -0.29 0.01 -0.04 10267
-0.00 0.02 0.56 -0.80 9.57 -0.31 -0.09 -0.06 10274
-0.00 0.03 0.49 -0.98 9.63 -0.32 -0.08 -0.00 10281
-0.01 0.05 0.46 -0.85 11.57 -0.39 -0.01 -0.02 10289
-0.00 0.07 0.36 -0.69 10.22 -0.22 0.05 -0.03 10296
-0.01 0.08 0.27 -0.82 9.96 -0.14 0.04 -0.04 10303
0.04 0.06 0.26 -1.01 9.91 -0.10 0.02 -0.04 10310
0.04 0.13 0.40 -1.00 9.88 -0.08 0.01 -0.04 10317
0.09 0.15 0.34 -0.91 9.91 -0.07 0.01 -0.04 10324
0.10 0.15 0.33 -0.88 9.83 -0.05 0.01 -0.05 10332
0.09 0.15 0.33 -0.93 9.82 -0.05 0.01 -0.05 10339
0.07 0.13 0.31 -0.83 9.81 -0.05 0.02 -0.05 10346
0.06 0.17 0.29 -0.85 9.77 -0.05 0.02 -0.05 10353
0.06 0.19 0.32 -0.88 9.81 -0.05 0.02 -0.06 10360
0.08 0.18 0.34 -0.84 9.80 -0.05 0.02 -0.06 10368
0.09 0.22 0.33 -0.86 9.80 -0.05 0.02 -0.06 10375
0.09 0.22 0.31 -0.81 9.80 -0.05 0.02 -0.06 10382
0.08 0.22 0.29 -0.84 9.81 -0.05 0.03 -0.06 10389
0.07 0.23 0.25 -0.84 10.42 -0.05 0.03 -0.06 10396
0.10 0.29 0.28 -0.81 9.81 -0.05 0.04 -0.06 10403
0.09 0.31 0.30 -0.83 9.79 -0.05 0.04 -0.06 10411
0.08 0.30 0.29 -0.84 9.84 -0.05 0.04 -0.05 10418
0.08 0.36 0.34 -0.83 9.83 -0.04 0.04 -0.06 10425
0.08 0.37 0.31 -0.80 9.81 -0.04 0.04 -0.06 10432
0.10 0.35 0.31 -0.81 9.81 -0.03 0.04 -0.06 10439
0.09 0.41 0.35 -0.80 9.81 -0.03 0.04 -0.06 10446
0.11 0.44 0.32 -0.80 9.83 -0.03 0.04 -0.06 10454
0.10 0.40 0.32 -0.81 9.81 -0.03 0.04 -0.06 10461
0.10 0.43 0.30 -0.78 9.82 -0.03 0.04 -0.06 10468
0.09 0.42 0.30 -0.80 9.82 -0.02 0.04 -0.06 10475
0.10 0.40 0.27 -0.78 9.83 -0.02 0.04 -0.06 10482
0.10 0.43 0.29 -0.78 9.83 -0.01 0.05 -0.06 10489
0.10 0.45 0.30 -0.79 9.83 -0.01 0.04 -0.06 10497
0.10 0.44 0.29 -0.78 9.81 -0.01 0.04 -0.06 10504
0.09 0.42 0.31 -0.77 9.83 -0.01 0.05 -0.06 10511
0.08 0.45 0.29 -0.80 9.83 -0.00 0.04 -0.07 10518
0.09 0.45 0.34 -0.78 9.81 -0.00 0.04 -0.07 10525
0.10 0.43 0.30 -0.77 9.81 0.00 0.04 -0.06 10532
0.11 0.43 0.32 -0.82 9.82 0.00 0.04 -0.07 10540
0.10 0.44 0.30 -0.80 9.82 0.00 0.04 -0.06 10547
0.10 0.42 0.18 -0.83 9.77 0.00 0.04 -0.07 10554
0.11 0.41 0.29 -0.78 9.80 0.00 0.04 -0.07 10561
0.11 0.42 0.31 -0.80 9.82 0.01 0.04 -0.07 10568
0.11 0.41 0.30 -0.78 9.81 0.01 0.04 -0.07 10575
0.12 0.39 0.28 -0.82 9.81 0.01 0.04 -0.07 10583
0.14 0.37 0.31 -0.84 9.80 0.01 0.04 -0.07 10590
0.13 0.37 0.31 -0.81 9.82 0.00 0.04 -0.07 10597
0.13 0.35 0.34 -0.79 9.81 0.00 0.04 -0.07 10604
0.14 0.36 0.28 -0.81 9.81 0.00 0.04 -0.07 10611
0.16 0.35 0.32 -0.79 10.42 -0.00 0.04 -0.07 10618
0.15 0.34 0.30 -0.80 9.82 0.00 0.04 -0.07 10626
0.14 0.34 0.29 -0.80 9.84 -0.00 0.04 -0.07 10633
0.14 0.35 0.28 -0.78 9.79 -0.00 0.04 -0.07 10640
0.13 0.36 0.28 -0.79 9.81 -0.00 0.04 -0.07 10647
0.14 0.35 0.33 -0.80 9.80 -0.00 0.04 -0.07 10654
0.16 0.33 0.31 -0.78 9.82 -0.00 0.04 -0.07 10661
0.15 0.34 0.31 -0.76 9.82 -0.00 0.05 -0.07 10669
0.16 0.33 0.30 -0.79 9.82 -0.00 0.04 -0.07 10676
0.15 0.32 0.28 -0.79 9.81 0.00 0.04 -0.07 10683
0.17 0.31 0.31 -0.82 9.82 -0.00 0.04 -0.07 10690
0.17 0.30 0.32 -0.83 9.83 0.00 0.04 -0.07 10697
0.19 0.30 0.30 -0.80 9.81 0.00 0.04 -0.07 10704
0.19 0.28 0.31 -0.82 9.81 -0.00 0.04 -0.07 10712
0.19 0.26 0.30 -0.82 9.82 0.00 0.04 -0.07 10719
0.18 0.27 0.32 -0.78 9.78 0.00 0.05 -0.07 10726
0.19 0.23 0.30 -0.82 9.82 0.00 0.04 -0.07 10733
0.19 0.25 0.32 -0.81 9.80 0.01 0.05 -0.07 10740
0.19 0.23 0.28 -0.78 9.20 0.01 0.04 -0.07 10747
0.17 0.24 0.34 -0.82 9.80 0.00 0.05 -0.07 10755
0.19 0.23 0.30 -0.80 9.78 0.01 0.04 -0.07 10762
0.19 0.25 0.27 -0.80 9.81 0.01 0.04 -0.07 10769
0.21 0.25 0.35 -0.79 9.79 0.01 0.05 -0.07 10776
0.20 0.22 0.29 -0.81 9.79 0.01 0.05 -0.07 10783
0.20 0.20 0.31 -0.81 9.81 0.01 0.05 -0.07 10790
0.22 0.17 0.31 -0.80 9.81 0.01 0.05 -0.07 10798
0.23 0.12 0.35 -0.81 9.80 0.01 0.04 -0.07 10805
0.26 0.11 0.35 -0.84 9.81 0.00 0.04 -0.07 10812
0.27 0.10 0.29 -0.85 9.80 0.01 0.05 -0.07 10819
0.28 0.05 0.29 -0.81 9.82 0.01 0.05 -0.07 10826
0.28 0.03 0.33 -0.84 9.78 0.01 0.04 -0.07 10833
0.28 0.04 0.30 -0.84 9.80 0.01 0.05 -0.07 10841
0.29 0.03 0.30 -0.85 9.82 0.01 0.04 -0.07 10848
0.30 0.04 0.30 -0.82 9.81 0.01 0.05 -0.07 10855
0.29 0.04 0.29 -0.84 9.80 0.01 0.05 -0.07 10862
0.31 0.02 0.33 -0.85 9.78 0.01 0.05 -0.07 10869
0.29 0.02 0.32 -0.87 9.80 0.01 0.05 -0.07 10876
0.31 0.01 0.32 -0.83 9.80 0.01 0.05 -0.07 10884
0.29 0.00 0.31 -0.84 9.83 0.01 0.05 -0.07 10891
0.32 0.00 0.33 -0.81 9.82 0.01 0.05 -0.07 10898
0.34 0.00 0.32 -0.81 9.82 0.02 0.05 -0.07 10905
0.35 -0.00 0.30 -0.87 9.80 0.02 0.05 -0.07 10912
0.34 -0.01 0.30 -0.91 9.82 0.02 0.05 -0.07 10919
0.35 -0.01 0.26 -0.73 9.87 0.03 0.05 -0.06 10927
0.37 0.00 0.33 -0.93 9.79 0.03 0.06 -0.07 10934
0.39 -0.00 0.29 -0.75 9.81 0.03 0.06 -0.06 10941
0.42 -0.01 0.40 -0.81 9.85 0.04 0.07 -0.06 10948
0.42 -0.01 0.27 -0.80 9.84 0.04 0.07 -0.06 10955
0.41 -0.01 0.38 -0.92 9.81 0.05 0.08 -0.06 10962
0.41 -0.03 0.41 -0.90 10.08 0.07 0.09 -0.06 10970
0.43 -0.02 0.23 -0.81 9.94 0.08 0.11 -0.07 10977
0.43 -0.01 0.44 -1.04 9.88 0.11 0.13 -0.09 10984
0.44 -0.02 0.67 -1.10 9.78 0.17 0.13 -0.11 10991
0.46 -0.02 0.81 -0.80 10.26 0.26 0.17 -0.18 10999
0.46 -0.03 0.16 -0.87 11.35 0.46 0.29 -0.22 11006
0.47 -0.03 0.88 -1.20 11.21 1.04 0.33 -0.15 11014
0.50 -0.03 0.84 -1.26 12.83 1.31 0.34 -0.23 11021
0.49 -0.02 0.40 -1.08 11.65 1.26 0.19 -0.23 11028
0.50 -0.02 0.44 -1.07 10.94 1.26 0.13 -0.23 11035
0.47 -0.01 0.28 -1.43 11.21 1.33 0.08 -0.23 11042
0.44 -0.02 0.28 -1.43 10.93 1.40 0.06 -0.22 11049
0.43 -0.02 0.22 -1.54 10.24 1.44 0.05 -0.20 11056
0.42 -0.02 0.32 -1.49 10.38 1.47 0.02 -0.19 11063
0.38 -0.01 0.15 -1.67 10.36 1.48 0.05 -0.18 11071
0.35 -0.02 0.19 -1.81 10.12 1.50 0.07 -0.16 11078
0.29 -0.01 0.21 -1.98 10.33 1.53 0.10 -0.13 11085
0.22 -0.02 0.21 -2.21 9.92 1.54 0.12 -0.11 11091
0.19 -0.02 0.24 -2.23 10.33 1.55 0.15 -0.11 11099
0.19 -0.02 0.51 -2.10 7.44 1.51 0.11 -0.10 11106
0.20 -0.02 0.54 -2.79 9.24 1.43 -0.05 -0.06 11113
0.15 -0.02 0.81 -2.78 10.60 1.40 0.22 -0.09 11120
0.11 -0.01 0.03 -2.88 10.58 1.47 0.17 -0.08 11127
0.08 -0.01 0.59 -2.94 10.72 1.57 0.24 -0.06 11134
0.06 -0.01 0.65 -3.04 9.40 1.58 0.33 -0.08 11142
0.04 -0.00 0.27 -3.10 9.43 1.52 0.33 -0.06 11149
0.08 -0.01 0.29 -3.39 9.89 1.49 0.31 -0.04 11156
0.05 -0.00 0.41 -3.64 9.90 1.45 0.36 -0.03 11163
0.04 -0.00 0.47 -3.78 11.02 1.44 0.45 -0.02 11170
0.05 -0.00 0.65 -3.81 10.95 1.46 0.56 -0.01 11177
0.04 -0.00 0.61 -4.07 10.48 1.44 0.65 0.02 11185
0.03 -0.00 0.89 -4.06 9.87 1.36 0.74 0.02 11192
0.03 -0.00 1.38 -3.77 9.83 1.27 0.80 -0.00 11199
0.02 -0.00 1.78 -3.86 10.17 1.21 0.80 -0.03 11206
0.02 -0.00 2.60 -3.93 9.91 1.11 0.88 -0.07 11213
0.02 -0.00 2.52 -3.94 10.13 1.03 1.02 -0.13 11220
0.02 -0.00 3.14 -4.07 10.16 0.90 1.15 -0.20 11228
0.03 0.00 2.01 -2.11 10.36 0.72 1.30 -0.31 11235
0.03 -0.00 0.61 -1.16 9.94 0.56 1.22 -0.41 11242
0.03 -0.00 -0.03 -1.51 9.95 0.38 1.01 -0.51 11249
0.03 -0.00 -1.16 -0.18 9.71 0.29 0.74 -0.63 11256
0.02 -0.00 -1.54 0.50 9.31 0.16 0.52 -0.77 11264
0.02 -0.00 -1.80 0.78 8.49 0.01 0.21 -0.99 11271
0.02 -0.00 -1.69 1.40 8.30 -0.09 -0.00 -1.25 11278
0.01 -0.00 -2.16 1.37 8.65 -0.21 -0.14 -1.57 11285
0.01 -0.00 -2.71 1.66 9.17 -0.30 -0.29 -1.98 11292
0.00 0.00 -1.64 1.04 8.20 -0.40 -0.34 -2.32 11299
0.00 0.00 -1.87 1.10 9.30 -0.52 -0.46 -2.59 11307
0.00 0.00 -1.93 1.40 9.33 -0.67 -0.55 -2.78 11314
0.00 0.00 -1.53 1.29 8.62 -0.84 -0.68 -2.90 11321
0.00 0.00 -1.13 0.79 8.30 -0.92 -0.84 -2.95 11328
0.00 0.00 -0.67 0.31 8.27 -0.97 -0.95 -2.96 11335
0.00 0.00 0.12 0.09 8.48 -0.97 -1.05 -2.91 11342
0.00 0.00 0.80 0.03 8.75 -0.98 -1.07 -2.81 11350
0.01 -0.00 1.45 -0.09 8.98 -0.98 -1.03 -2.70 11357
0.00 0.00 2.13 -0.20 9.19 -1.00 -0.89 -2.55 11364
0.01 -0.00 2.48 -0.16 9.12 -1.05 -0.73 -2.36 11371
0.00 0.00 2.61 -0.16 9.25 -1.10 -0.52 -2.20 11378
0.00 0.00 2.53 -0.43 9.33 -1.15 -0.31 -1.99 11385
0.00 0.00 2.41 -0.65 9.33 -1.20 -0.20 -1.82 11393
0.00 -0.00 2.28 -1.00 9.34 -1.21 -0.10 -1.62 11400
0.01 -0.00 2.18 -1.37 9.19 -1.20 -0.04 -1.44 11407
0.00 0.00 2.10 -1.57 9.03 -1.16 0.00 -1.30 11414
0.00 -0.00 2.00 -1.68 8.88 -1.12 0.05 -1.15 11421
0.00 0.00 1.84 -1.75 8.83 -1.07 0.11 -1.04 11428
0.00 0.00 1.54 -1.83 8.78 -1.00 0.20 -0.91 11436
0.01 -0.00 1.19 -1.79 8.84 -0.95 0.26 -0.79 11443
0.01 -0.00 0.83 -1.85 8.91 -0.88 0.33 -0.70 11450
0.00 -0.00 0.43 -1.91 9.11 -0.82 0.35 -0.60 11457
0.00 -0.00 0.21 -2.03 9.49 -0.76 0.35 -0.53 11464
0.00 0.00 0.12 -2.10 9.97 -0.72 0.33 -0.47 11471
0.01 -0.00 0.16 -2.16 10.40 -0.72 0.32 -0.43 11479
0.00 0.00 0.12 -2.23 10.69 -0.74 0.31 -0.41 11486
0.01 -0.00 0.12 -2.34 10.67 -0.79 0.29 -0.41 11493
0.00 0.00 0.14 -2.41 10.61 -0.86 0.28 -0.42 11500
0.00 0.00 0.21 -2.49 10.33 -0.93 0.30 -0.45 11507
0.00 0.00 0.29 -2.64 9.97 -0.98 0.35 -0.46 11514
0.00 0.00 0.35 -2.81 9.80 -1.00 0.42 -0.48 11522
0.01 -0.00 0.29 -3.08 9.77 -0.97 0.46 -0.49 11529
0.00 -0.00 0.34 -3.34 9.90 -0.92 0.49 -0.50 11536
0.00 0.00 0.46 -3.36 9.90 -0.85 0.51 -0.51 11543
0.00 -0.00 0.76 -3.43 10.03 -0.80 0.52 -0.51 11550
0.00 0.00 0.84 -3.46 10.11 -0.74 0.54 -0.48 11557
0.01 0.00 0.86 -3.39 10.23 -0.70 0.55 -0.43 11565
0.01 -0.00 0.89 -3.41 10.74 -0.68 0.53 -0.36 11572
0.00 0.00 0.91 -3.47 10.97 -0.68 0.50 -0.30 11579
0.00 0.00 0.99 -3.41 11.02 -0.69 0.47 -0.21 11586
0.00 0.00 1.19 -3.46 11.13 -0.70 0.46 -0.12 11593
0.00 0.00 1.26 -3.48 10.89 -0.69 0.48 -0.03 11600
0.00 -0.00 1.24 -3.47 10.45 -0.68 0.51 0.04 11608
0.01 -0.00 1.30 -3.51 10.26 -0.65 0.57 0.10 11615
0.00 0.00 1.17 -3.60 10.15 -0.62 0.60 0.15 11622
0.00 0.00 1.05 -3.63 10.17 -0.58 0.62 0.18 11629
0.00 0.00 0.86 -3.62 10.11 -0.53 0.62 0.21 11636
0.00 0.00 0.78 -3.58 10.24 -0.50 0.59 0.22 11643
0.00 -0.00 0.80 -3.59 10.15 -0.46 0.56 0.23 11651
0.01 -0.00 0.77 -3.49 10.05 -0.42 0.54 0.22 11658
0.00 0.00 0.84 -3.41 10.02 -0.38 0.54 0.20 11665
0.00 0.00 0.98 -3.32 10.03 -0.34 0.54 0.17 11672
0.00 0.00 1.04 -3.14 10.02 -0.30 0.57 0.13 11679
0.00 0.00 0.99 -2.95 10.02 -0.27 0.61 0.08 11686
0.00 0.00 0.87 -2.74 9.98 -0.24 0.65 0.03 11694
0.00 -0.00 0.04 -2.46 9.81 -0.24 0.68 -0.02 11701
0.00 0.00 0.36 -2.26 9.72 -0.25 0.71 -0.08 11708
0.00 0.00 0.15 -2.18 9.75 -0.25 0.72 -0.13 11715
0.00 0.00 -0.00 -2.11 9.82 -0.26 0.73 -0.18 11722
0.00 -0.00 -0.25 -1.95 9.98 -0.26 0.77 -0.22 11729
0.00 -0.00 -0.45 -1.86 10.03 -0.26 0.81 -0.24 11737
0.00 0.00 -0.79 -1.77 9.96 -0.26 0.83 -0.25 11744
0.00 0.00 -0.92 -1.79 9.88 -0.26 0.82 -0.24 11751
0.00 0.00 -0.98 -1.77 9.76 -0.26 0.78 -0.24 11758
0.00 0.00 -0.90 -1.77 9.71 -0.27 0.73 -0.23 11765
0.00 0.00 -0.85 -1.82 9.70 -0.28 0.70 -0.21 11772
0.01 -0.00 -0.80 -1.84 9.80 -0.30 0.67 -0.19 11780
0.00 -0.00 -0.81 -1.93 9.81 -0.32 0.62 -0.16 11787
0.00 -0.00 -0.92 -2.02 9.69 -0.34 0.58 -0.11 11794
0.00 0.00 -0.96 -2.07 9.69 -0.37 0.54 -0.08 11801
0.00 0.00 -0.95 -2.26 9.61 -0.37 0.51 -0.06 11808
0.00 0.00 -0.96 -2.36 9.46 -0.35 0.50 -0.03 11815
0.01 -0.00 -1.02 -2.54 9.22 -0.33 0.53 -0.01 11823
0.00 -0.00 -1.26 -2.68 8.89 -0.30 0.59 0.01 11830
0.00 -0.00 -1.59 -2.75 8.83 -0.26 0.66 0.04 11837
0.00 0.00 -2.01 -2.90 8.84 -0.22 0.69 0.06 11844
0.00 -0.00 -9.78 -3.37 6.76 0.12 -0.21 0.17 11851
0.00 -0.00 -3.26 -1.76 6.50 0.13 -0.35 0.18 11858
0.01 -0.00 -4.26 -4.96 9.62 0.17 -0.52 0.23 11866
0.00 0.00 -4.71 -5.37 9.71 0.18 -0.68 0.26 11873
0.00 0.00 -4.66 -4.85 9.20 0.23 -0.82 0.25 11880
0.00 0.00 -3.99 -5.52 8.12 0.22 -0.96 0.24 11887
0.01 -0.00 -8.27 -6.08 12.66 0.50 -0.72 0.44 11894
0.00 -0.00 -5.99 -5.73 8.80 0.64 -0.39 0.66 11901
0.00 -0.00 -6.98 -7.39 9.02 0.86 -0.52 0.80 11909
0.00 -0.00 -7.85 -5.97 9.60 1.03 -0.78 0.98 11916
0.00 0.00 -9.40 -2.76 14.93 0.70 -1.49 0.61 11923
-0.00 0.00 -3.24 -3.42 14.64 0.00 -0.68 0.15 11930
-0.00 0.01 -1.18 -1.03 8.59 -0.12 -0.03 -0.02 11937
-0.00 0.03 -0.10 -0.98 9.68 -0.25 -0.06 -0.07 11944
-0.00 0.03 0.40 -0.55 9.56 -0.31 -0.14 -0.08 11952
-0.00 0.05 0.44 -0.75 10.27 -0.32 -0.16 -0.06 11959
-0.01 0.06 0.64 -0.89 10.19 -0.16 -0.02 -0.04 11966
-0.01 0.09 0.37 -0.99 10.13 -0.11 0.01 -0.04 11973
-0.01 0.14 0.22 -0.90 9.89 -0.07 0.02 -0.04 11980
0.01 0.17 0.26 -0.86 9.92 -0.05 0.01 -0.05 11987
-0.00 0.17 0.31 -0.86 9.85 -0.04 0.01 -0.05 11995
-0.01 0.20 0.29 -0.85 9.83 -0.04 0.01 -0.05 12002
-0.01 0.19 0.30 -0.79 9.82 -0.04 -0.00 -0.05 12009
-0.02 0.21 0.28 -0.84 9.81 -0.04 -0.00 -0.06 12016
-0.01 0.24 0.27 -0.81 9.80 -0.05 -0.01 -0.06 12023
0.01 0.27 0.28 -0.81 9.79 -0.06 -0.02 -0.06 12030
0.01 0.24 0.34 -0.81 9.80 -0.06 -0.02 -0.06 12038
0.02 0.27 0.30 -0.80 9.75 -0.07 -0.01 -0.06 12045
-0.01 0.29 0.31 -0.78 9.82 -0.06 -0.01 -0.06 12052
-0.00 0.33 0.30 -0.77 9.82 -0.06 0.00 -0.07 12059
0.05 0.35 0.27 -0.79 9.81 -0.06 0.01 -0.07 12066
0.06 0.36 0.27 -0.79 9.82 -0.06 0.02 -0.06 12073
0.04 0.34 0.24 -0.81 9.85 -0.05 0.02 -0.06 12081
0.05 0.38 0.16 -0.81 9.82 -0.05 0.03 -0.06 12088
0.02 0.38 0.12 -0.72 9.82 -0.04 0.04 -0.06 12095
-0.00 0.45 0.23 -0.76 9.83 -0.04 0.04 -0.06 12102
0.01 0.47 0.24 -0.74 9.87 -0.04 0.04 -0.06 12109
-0.01 0.47 0.28 -0.78 9.82 -0.04 0.05 -0.05 12116
0.02 0.45 0.28 -0.76 9.85 -0.03 0.04 -0.05 12124
0.02 0.48 0.29 -0.78 9.82 -0.03 0.04 -0.05 12131
0.02 0.51 0.28 -0.74 9.83 -0.03 0.04 -0.06 12138
0.03 0.51 0.31 -0.72 9.85 -0.02 0.04 -0.06 12145
0.04 0.50 0.29 -0.76 9.84 -0.02 0.04 -0.06 12152
0.04 0.52 0.25 -0.74 9.85 -0.01 0.04 -0.06 12160
0.03 0.50 0.24 -0.75 9.82 -0.02 0.04 -0.07 12167
0.03 0.51 0.24 -0.75 9.81 -0.01 0.04 -0.06 12174
0.03 0.53 0.27 -0.74 9.83 -0.01 0.04 -0.07 12181
0.03 0.53 0.29 -0.75 9.82 -0.01 0.04 -0.07 12188
0.06 0.53 0.27 -0.72 9.81 -0.00 0.04 -0.06 12195
0.06 0.52 0.25 -0.74 9.79 -0.00 0.04 -0.07 12203
0.06 0.51 0.26 -0.75 9.83 -0.00 0.04 -0.07 12210
0.05 0.52 0.28 -0.72 9.82 0.00 0.04 -0.07 12217
0.05 0.52 0.24 -0.76 9.82 0.01 0.04 -0.07 12224
0.05 0.53 0.27 -0.78 9.82 0.01 0.04 -0.07 12231
0.06 0.52 0.29 -0.74 9.79 0.00 0.04 -0.07 12238
0.05 0.51 0.24 -0.75 9.81 0.01 0.04 -0.07 12246
0.04 0.50 0.26 -0.76 9.87 0.00 0.04 -0.07 12253
0.04 0.51 0.23 -0.75 9.81 -0.00 0.04 -0.07 12260
0.05 0.51 0.28 -0.76 9.82 -0.00 0.04 -0.07 12267
0.06 0.51 0.26 -0.74 9.76 -0.00 0.04 -0.07 12274
0.07 0.48 0.28 -0.73 9.82 -0.00 0.04 -0.07 12281
0.07 0.48 0.26 -0.76 9.81 -0.00 0.04 -0.07 12289
0.06 0.46 0.26 -0.74 9.83 -0.00 0.05 -0.04 12296
0.05 0.47 0.26 -0.77 9.79 -0.00 0.04 -0.07 12303
0.06 0.47 0.27 -0.79 9.80 -0.01 0.04 -0.07 12310
0.07 0.45 0.27 -0.76 10.41 -0.00 0.04 -0.07 12317
0.07 0.45 0.25 -0.76 9.81 -0.00 0.04 -0.07 12324
0.07 0.45 0.29 -0.75 9.80 -0.01 0.04 -0.07 12332
0.06 0.44 0.28 -0.78 9.82 -0.01 0.04 -0.07 12339
0.05 0.46 0.24 -0.76 9.79 -0.01 0.05 -0.07 12346
0.06 0.46 0.26 -0.77 9.81 -0.01 0.04 -0.07 12353
0.07 0.46 0.28 -0.75 9.82 -0.01 0.04 -0.07 12360
0.07 0.46 0.27 -0.74 9.83 -0.01 0.04 -0.07 12367
0.07 0.46 0.26 -0.75 9.81 -0.01 0.04 -0.07 12375
0.06 0.47 0.25 -0.73 9.82 -0.01 0.04 -0.07 12382
0.05 0.47 0.25 -0.76 9.85 -0.01 0.04 -0.06 12389
0.06 0.47 0.29 -0.77 9.81 -0.01 0.04 -0.07 12396
0.07 0.48 0.26 -0.74 9.82 -0.00 0.04 -0.07 12403
0.06 0.47 0.25 -0.77 9.77 -0.00 0.04 -0.07 12410
0.07 0.47 0.29 -0.73 9.82 -0.03 0.04 -0.07 12418
0.06 0.46 0.29 -0.75 9.82 -0.00 0.04 -0.07 12425
0.06 0.46 0.25 -0.74 9.83 0.00 0.05 -0.07 12432
0.06 0.46 0.23 -0.73 9.81 0.00 0.05 -0.07 12439
0.08 0.44 0.26 -0.75 10.42 0.00 0.04 -0.07 12446
0.08 0.43 0.27 -0.77 9.81 -0.03 0.05 -0.07 12453
0.08 0.41 0.28 -0.81 9.82 0.00 0.05 -0.07 12461
0.07 0.43 0.26 -0.75 9.81 0.00 0.05 -0.07 12468
0.07 0.43 0.26 -0.76 9.79 0.00 0.05 -0.07 12475
0.09 0.41 0.30 -0.76 9.80 0.01 0.05 -0.07 12482
0.11 0.39 0.26 -0.76 9.81 0.01 0.05 -0.08 12489
0.11 0.41 0.29 -0.75 9.82 0.01 0.05 -0.07 12496
0.10 0.34 0.27 -0.77 9.77 0.01 0.04 -0.07 12504
0.10 0.32 0.29 -0.75 9.80 0.01 0.05 -0.07 12511
0.14 0.33 0.25 -0.77 9.80 0.01 0.04 -0.07 12518
0.14 0.32 0.27 -0.79 9.81 0.01 0.04 -0.07 12525
0.15 0.32 0.25 -0.77 9.79 0.01 0.05 -0.07 12532
0.15 0.31 0.26 -0.79 9.82 0.01 0.05 -0.07 12539
0.16 0.28 0.27 -0.79 9.80 0.01 0.05 -0.07 12547
0.17 0.28 0.24 -0.75 9.79 0.01 0.05 -0.07 12554
0.19 0.24 0.28 -0.80 9.80 0.01 0.06 -0.06 12561
0.20 0.24 0.30 -0.76 9.81 0.01 0.05 -0.07 12568
0.22 0.21 0.27 -0.75 9.81 0.01 0.06 -0.07 12575
0.23 0.13 0.31 -0.78 9.82 0.02 0.05 -0.07 12582
0.22 0.16 0.28 -0.79 9.81 0.02 0.05 -0.07 12590
0.22 0.13 0.27 -0.75 9.80 0.02 0.06 -0.07 12597
0.24 0.07 0.28 -0.77 9.81 0.02 0.05 -0.07 12604
0.26 0.04 0.27 -0.79 9.82 0.02 0.05 -0.07 12611
0.27 0.02 0.27 -0.81 9.82 0.02 0.06 -0.07 12618
0.28 -0.00 0.29 -0.79 9.82 0.03 0.06 -0.07 12625
0.27 0.01 0.31 -0.80 9.82 0.03 0.06 -0.07 12633
0.29 -0.00 0.29 -0.83 9.84 0.03 0.06 -0.07 12640
0.31 0.01 0.29 -0.78 9.82 0.04 0.06 -0.03 12647
0.34 -0.01 0.32 -0.84 9.86 0.04 0.06 -0.07 12654
0.35 -0.02 0.34 -0.77 9.85 0.05 0.06 -0.07 12661
0.35 -0.02 0.38 -0.81 9.89 0.05 0.07 -0.07 12668
0.36 -0.02 0.32 -0.83 9.85 0.07 0.07 -0.07 12676
0.37 -0.02 0.31 -0.83 9.86 0.08 0.08 -0.08 12683
0.38 -0.02 0.36 -0.99 9.88 0.09 0.10 -0.09 12690
0.38 -0.01 0.82 -0.70 9.77 0.12 0.14 -0.11 12697
0.36 -0.02 1.62 -0.91 10.27 0.17 0.17 -0.13 12705
0.37 -0.03 0.90 -1.00 10.66 0.27 0.31 -0.26 12711
0.37 -0.02 -0.05 -0.88 11.24 0.74 0.43 -0.14 12719
0.37 -0.02 0.78 -0.87 12.69 1.31 0.56 -0.18 12727
0.37 -0.02 0.10 -1.05 11.04 1.37 0.51 -0.20 12733
0.34 -0.02 0.57 -1.18 11.81 1.29 0.39 -0.21 12741
0.30 -0.03 0.24 -1.31 10.32 1.26 0.30 -0.20 12748
0.26 -0.02 0.57 -1.51 9.97 1.30 0.17 -0.18 12754
0.25 -0.02 0.23 -1.40 11.40 1.28 0.12 -0.15 12763
0.20 -0.01 0.30 -1.48 11.01 1.28 0.19 -0.13 12769
0.17 -0.02 0.18 -1.64 11.19 1.37 0.20 -0.11 12776
0.13 -0.01 0.38 -1.71 8.69 1.43 0.15 -0.09 12783
0.12 -0.01 0.23 -1.84 10.90 1.38 0.08 -0.06 12790
0.10 0.01 0.46 -1.99 11.31 1.42 0.35 -0.10 12798
0.08 0.01 -0.18 -2.14 12.30 1.62 0.38 -0.06 12805
0.07 -0.00 0.43 -2.31 11.06 1.72 0.56 -0.03 12812
0.07 0.01 0.60 -2.33 10.41 1.69 0.76 -0.04 12819
0.05 0.00 0.05 -2.76 10.85 1.64 0.84 -0.00 12826
0.03 -0.00 0.16 -2.94 11.27 1.61 0.93 0.04 12833
-0.00 0.00 0.49 -2.92 10.89 1.54 1.07 0.08 12840
0.01 0.00 0.40 -3.21 10.93 1.51 1.12 0.07 12848
0.02 -0.00 0.09 -3.04 10.75 1.45 1.09 0.10 12855
0.03 -0.00 0.42 -2.90 11.15 1.38 0.98 0.11 12862
0.02 -0.00 1.23 -3.29 11.35 1.27 0.90 0.10 12869
0.01 -0.00 0.93 -2.64 12.13 1.17 0.96 0.12 12876
0.00 -0.00 0.88 -0.68 11.04 1.04 1.05 0.02 12883
0.01 -0.00 -0.39 0.10 10.26 0.89 0.84 -0.09 12891
0.02 -0.00 -1.84 1.39 9.75 0.75 0.59 -0.27 12898
0.00 0.00 -2.50 1.90 9.52 0.56 0.33 -0.49 12905
0.01 -0.00 -3.58 2.26 9.09 0.40 -0.00 -0.88 12912
0.00 -0.00 -4.20 2.15 9.73 0.26 -0.27 -1.38 12919
0.00 0.00 -2.77 2.14 9.35 0.14 -0.59 -1.72 12926
0.01 -0.00 -2.85 2.99 10.38 -0.05 -0.87 -2.00 12934
0.02 -0.00 -1.77 3.20 9.38 -0.33 -1.03 -2.25 12941
0.02 -0.00 -0.91 2.55 8.56 -0.51 -1.25 -2.40 12948
0.01 -0.00 -0.39 1.66 8.10 -0.59 -1.44 -2.53 12955
0.00 0.00 0.28 1.11 7.95 -0.57 -1.52 -2.59 12962
0.00 0.00 0.96 0.75 7.97 -0.50 -1.58 -2.61 12969
0.00 0.00 1.36 0.66 8.30 -0.40 -1.58 -2.59 12977
0.01 -0.00 2.05 0.88 8.56 -0.33 -1.52 -2.54 12984
0.01 -0.00 2.67 1.00 8.89 -0.31 -1.41 -2.45 12991
0.01 -0.00 3.35 1.12 9.12 -0.33 -1.26 -2.38 12998
0.00 -0.00 3.95 1.19 9.28 -0.42 -1.01 -2.27 13005
0.00 0.00 4.29 1.16 9.19 -0.52 -0.76 -2.16 13012
0.00 -0.00 4.25 0.85 9.28 -0.66 -0.45 -2.02 13020
0.01 -0.00 4.12 0.55 9.23 -0.76 -0.16 -1.86 13027
0.00 0.00 3.89 0.19 9.22 -0.86 0.02 -1.70 13034
0.00 -0.00 3.52 -0.19 9.15 -0.90 0.15 -1.53 13041
0.00 0.00 3.15 -0.67 9.01 -0.89 0.20 -1.36 13048
0.00 0.00 2.82 -0.95 8.94 -0.86 0.20 -1.21 13056
0.00 0.00 2.77 -1.14 9.07 -0.83 0.18 -1.04 13063
0.01 -0.00 2.77 -1.15 9.12 -0.79 0.18 -0.87 13070
0.00 -0.00 2.65 -1.27 9.20 -0.75 0.20 -0.75 13077
0.00 0.00 1.84 -1.31 9.25 -0.72 0.23 -0.61 13084
0.00 0.00 2.20 -1.38 9.34 -0.68 0.26 -0.50 13091
0.01 -0.00 1.95 -1.44 9.57 -0.65 0.30 -0.38 13099
0.01 -0.00 1.76 -1.50 9.85 -0.64 0.33 -0.27 13106
0.00 -0.00 1.57 -1.44 10.12 -0.65 0.37 -0.18 13113
0.00 -0.00 1.48 -1.49 10.42 -0.67 0.40 -0.08 13120
0.00 0.00 1.36 -1.57 10.47 -0.71 0.42 -0.02 13127
0.00 0.00 1.33 -1.72 10.58 -0.74 0.44 0.03 13134
0.00 0.00 1.22 -1.86 10.56 -0.78 0.47 0.07 13142
0.01 -0.00 1.14 -2.05 10.43 -0.82 0.52 0.09 13149
0.00 -0.00 0.87 -2.22 10.37 -0.84 0.55 0.10 13156
0.00 -0.00 0.68 -2.37 10.28 -0.84 0.57 0.11 13163
0.00 0.00 0.34 -2.51 10.17 -0.83 0.58 0.11 13170
0.00 0.00 0.02 -2.71 10.00 -0.80 0.56 0.10 13177
0.01 -0.00 -0.11 -2.85 9.85 -0.76 0.50 0.08 13185
0.02 -0.00 -0.28 -3.06 9.76 -0.72 0.42 0.05 13192
0.00 -0.00 -0.35 -3.16 9.81 -0.67 0.34 0.02 13199
0.00 0.00 -0.27 -3.36 10.13 -0.63 0.25 -0.03 13206
0.00 0.00 0.12 -3.40 10.60 -0.60 0.17 -0.09 13213
0.00 0.00 0.48 -3.39 10.70 -0.59 0.20 -0.14 13220
0.00 0.00 0.73 -3.22 10.72 -0.62 0.25 -0.19 13228
0.01 -0.00 0.91 -3.24 10.84 -0.66 0.32 -0.24 13235
0.00 -0.00 1.03 -3.25 10.74 -0.72 0.44 -0.27 13242
0.00 -0.00 1.03 -3.24 10.48 -0.78 0.58 -0.29 13249
0.00 0.00 0.71 -3.37 10.37 -0.82 0.68 -0.29 13256
0.00 0.00 0.27 -3.51 10.21 -0.83 0.74 -0.27 13263
0.00 0.00 -0.06 -3.71 10.04 -0.79 0.73 -0.24 13271
0.01 -0.00 -0.28 -3.76 9.84 -0.72 0.67 -0.22 13278
0.01 -0.00 -0.31 -3.72 9.80 -0.65 0.58 -0.18 13285
0.00 0.00 -0.23 -3.68 9.82 -0.58 0.53 -0.15 13292
0.00 0.00 -0.12 -3.70 9.79 -0.51 0.50 -0.11 13299
0.00 0.00 -0.17 -3.67 9.63 -0.46 0.51 -0.08 13306
0.01 -0.00 -0.33 -3.62 9.58 -0.41 0.53 -0.06 13314
0.01 -0.00 -0.56 -3.61 9.53 -0.34 0.56 -0.04 13321
0.00 0.00 -0.83 -3.55 9.58 -0.33 0.59 -0.02 13328
0.00 0.00 -1.04 -3.52 9.75 -0.30 0.62 0.01 13335
0.00 0.00 -1.09 -3.51 9.98 -0.29 0.67 0.04 13342
0.00 -0.00 -1.19 -3.52 10.01 -0.29 0.64 0.06 13349
0.01 -0.00 -1.23 -3.53 10.00 -0.31 0.64 0.08 13357
0.00 -0.00 -1.19 -3.63 9.96 -0.32 0.63 0.10 13364
0.00 0.00 -1.10 -3.71 9.82 -0.33 0.62 0.11 13371
0.00 0.00 -1.04 -3.81 9.64 -0.32 0.62 0.12 13378
0.00 0.00 -1.11 -3.82 9.45 -0.29 0.64 0.13 13385
0.00 0.00 -1.21 -3.85 9.33 -0.27 0.67 0.17 13392
0.01 -0.00 -1.49 -3.78 9.29 -0.24 0.68 0.24 13400
0.00 -0.00 -1.86 -3.80 9.30 -0.20 0.68 0.31 13407
0.00 0.00 -2.13 -3.88 9.35 -0.17 0.62 0.39 13414
0.00 0.00 -8.33 -4.82 7.46 0.14 -0.21 0.50 13421
0.00 -0.00 -2.85 -1.99 6.45 0.12 -0.38 0.56 13428
0.00 -0.00 -4.16 -6.93 10.41 0.15 -0.48 0.67 13435
0.01 -0.00 -5.66 -5.58 16.59 0.35 -0.43 0.85 13443
0.00 0.00 -2.67 -5.40 9.87 0.32 -0.18 0.91 13450
0.00 -0.00 -1.92 -6.19 8.76 0.41 -0.02 0.97 13457
0.00 0.00 -3.57 -7.62 9.35 0.49 -0.08 1.06 13464
0.00 0.00 -3.94 -7.30 8.67 0.56 -0.25 1.12 13471
0.00 -0.00 -4.62 -7.98 8.16 0.68 -0.37 1.20 13478
0.01 -0.00 -5.33 -8.13 8.63 0.85 -0.43 1.36 13486
0.00 0.00 -10.27 -6.26 8.77 0.42 -0.94 1.13 13493
0.00 0.00 -6.41 -4.62 11.65 0.03 -0.31 0.50 13500
0.00 0.00 -2.22 -2.21 8.35 -0.10 0.10 -0.01 13507
-0.00 0.01 0.02 -0.82 9.87 -0.17 0.11 -0.06 13514
0.01 0.02 0.46 -0.72 9.63 -0.20 0.01 -0.07 13521
0.01 0.02 0.77 -0.85 9.39 -0.20 -0.05 -0.05 13529
0.00 0.01 0.55 -1.01 9.68 -0.21 -0.05 -0.02 13536
-0.00 0.01 0.30 -0.88 9.94 -0.23 -0.03 -0.01 13543
-0.00 0.03 0.33 -0.75 10.26 -0.22 0.03 -0.02 13550
0.00 0.07 0.30 -0.80 9.92 -0.14 0.07 -0.05 13557
0.02 0.06 0.42 -0.85 9.91 -0.09 0.07 -0.05 13564
-0.01 0.09 0.50 -0.91 9.84 -0.06 0.05 -0.05 13572
0.03 0.08 0.40 -0.90 9.85 -0.04 0.02 -0.05 13579
0.02 0.08 0.32 -0.91 9.84 -0.03 0.00 -0.07 13586
0.02 0.11 0.33 -0.95 9.84 -0.02 -0.00 -0.07 13593
0.05 0.13 0.30 -0.90 9.82 -0.02 0.00 -0.07 13600
0.07 0.08 0.31 -0.91 9.81 -0.03 0.00 -0.08 13607
0.11 0.11 0.33 -0.88 9.81 -0.03 0.01 -0.07 13615
0.11 0.12 0.33 -0.86 9.80 -0.03 0.01 -0.07 13622
0.09 0.15 0.32 -0.86 9.81 -0.04 0.02 -0.07 13629
0.10 0.16 0.32 -0.88 9.81 -0.04 0.03 -0.07 13636
0.08 0.19 0.31 -0.84 9.82 -0.04 0.03 -0.07 13643
0.11 0.21 0.31 -0.85 9.82 -0.04 0.04 -0.07 13650
0.11 0.21 0.30 -0.84 9.82 -0.04 0.04 -0.06 13658
0.11 0.22 0.36 -0.83 9.84 -0.03 0.04 -0.06 13665
0.10 0.26 0.36 -0.85 9.83 -0.03 0.05 -0.06 13672
0.10 0.25 0.36 -0.84 9.82 -0.03 0.04 -0.06 13679
0.10 0.28 0.40 -0.89 9.81 -0.03 0.05 -0.06 13686
0.10 0.25 0.34 -0.87 9.82 -0.03 0.04 -0.06 13693
0.10 0.25 0.37 -0.86 10.40 -0.03 0.04 -0.06 13701
0.11 0.23 0.39 -0.88 9.82 -0.04 0.04 -0.06 13708
0.10 0.29 0.32 -0.90 9.83 -0.03 0.04 -0.06 13715
0.11 0.26 0.38 -0.86 9.82 -0.03 0.04 -0.06 13722
0.12 0.25 0.32 -0.86 9.81 -0.03 0.04 -0.06 13729
0.12 0.30 0.34 -0.83 9.76 -0.03 0.05 -0.06 13736
0.12 0.30 0.33 -0.86 9.82 -0.03 0.04 -0.06 13744
0.11 0.32 0.33 -0.83 9.82 -0.02 0.04 -0.07 13751
0.12 0.31 0.36 -0.82 9.82 -0.02 0.04 -0.07 13758
0.11 0.32 0.31 -0.84 9.82 -0.02 0.04 -0.06 13765
0.13 0.31 0.34 -0.82 9.82 -0.01 0.04 -0.06 13772
0.12 0.31 0.43 -0.86 9.83 -0.01 0.04 -0.07 13779
0.14 0.32 0.36 -0.81 9.82 -0.01 0.04 -0.07 13787
0.15 0.29 0.32 -0.85 9.20 -0.01 0.05 -0.07 13794
0.16 0.31 0.35 -0.84 9.81 -0.00 0.04 -0.07 13801
0.16 0.31 0.36 -0.80 9.81 -0.00 0.05 -0.07 13808
0.18 0.30 0.35 -0.82 9.84 -0.00 0.05 -0.07 13815
0.18 0.31 0.36 -0.83 9.82 -0.00 0.05 -0.07 13822
0.17 0.29 0.33 -0.83 9.78 0.00 0.05 -0.07 13830
0.17 0.27 0.35 -0.83 9.82 0.00 0.04 -0.07 13837
0.16 0.26 0.36 -0.83 9.80 0.00 0.05 -0.07 13844
0.16 0.27 0.36 -0.84 9.82 0.00 0.04 -0.07 13851
0.16 0.27 0.35 -0.82 9.78 0.01 0.05 -0.07 13858
0.15 0.27 0.34 -0.81 9.78 0.00 0.04 -0.08 13865
0.17 0.26 0.34 -0.82 9.81 0.01 0.04 -0.07 13873
0.15 0.24 0.35 -0.83 9.79 0.01 0.05 -0.07 13880
0.16 0.23 0.34 -0.84 9.81 0.00 0.04 -0.07 13887
0.19 0.22 0.34 -0.84 9.80 -0.03 0.05 -0.07 13894
0.19 0.21 0.34 -0.86 9.80 0.00 0.05 -0.03 13901
0.19 0.20 0.33 -0.83 9.78 0.00 0.05 -0.07 13908
0.19 0.18 0.40 -0.85 9.78 0.00 0.04 -0.07 13916
0.20 0.17 0.35 -0.84 9.80 -0.00 0.04 -0.07 13923
0.21 0.18 0.36 -0.86 9.81 0.00 0.04 -0.07 13930
0.21 0.18 0.35 -0.90 9.75 -0.00 0.04 -0.07 13937
0.22 0.16 0.36 -0.86 9.81 -0.00 0.04 -0.07 13944
0.22 0.17 0.34 -0.85 9.77 -0.00 0.04 -0.07 13952
0.22 0.15 0.33 -0.85 9.81 -0.01 0.04 -0.07 13959
0.22 0.15 0.34 -0.85 9.81 -0.01 0.04 -0.07 13966
0.23 0.17 0.32 -0.84 9.80 -0.01 0.04 -0.06 13973
0.24 0.17 0.35 -0.85 9.81 -0.01 0.04 -0.07 13980
0.24 0.17 0.34 -0.83 9.82 -0.00 0.04 -0.07 13987
0.23 0.16 0.34 -0.86 9.85 -0.00 0.04 -0.07 13995
0.23 0.16 0.35 -0.88 9.81 -0.01 0.04 -0.07 14002
0.23 0.15 0.36 -0.85 9.82 -0.00 0.04 -0.07 14009
0.24 0.16 0.34 -0.82 9.81 -0.00 0.05 -0.07 14016
0.25 0.15 0.35 -0.84 9.82 -0.00 0.04 -0.07 14023
0.24 0.15 0.35 -0.86 9.83 -0.00 0.04 -0.07 14030
0.24 0.14 0.35 -0.87 9.81 0.00 0.04 -0.07 14038
0.23 0.16 0.34 -0.87 9.83 0.00 0.04 -0.07 14045
0.24 0.10 0.34 -0.86 9.80 0.00 0.04 -0.07 14052
0.23 0.12 0.33 -0.85 9.81 -0.00 0.04 -0.07 14059
0.24 0.09 0.35 -0.85 9.82 0.00 0.04 -0.07 14066
0.24 0.11 0.38 -0.84 9.81 0.00 0.04 -0.07 14073
0.24 0.10 0.39 -0.87 9.79 0.00 0.04 -0.07 14081
0.24 0.08 0.38 -0.82 9.82 0.00 0.04 -0.07 14088
0.24 0.07 0.36 -0.85 9.81 0.00 0.04 -0.07 14095
0.26 0.07 0.33 -0.90 9.77 0.01 0.04 -0.07 14102
0.27 0.06 0.36 -0.87 9.81 0.00 0.05 -0.07 14109
0.26 0.05 0.35 -0.87 9.80 0.00 0.04 -0.07 14116
0.26 0.04 0.36 -0.86 9.80 -0.00 0.04 -0.07 14124
0.24 0.04 0.36 -0.86 9.80 -0.00 0.04 -0.07 14131
0.26 0.08 0.34 -0.91 9.82 -0.00 0.04 -0.07 14138
0.27 0.06 0.37 -0.87 9.77 0.00 0.04 -0.07 14145
0.27 0.05 0.33 -0.86 9.80 -0.00 0.04 -0.07 14152
0.27 0.05 0.35 -0.85 9.82 -0.00 0.05 -0.07 14159
0.26 0.03 0.34 -0.84 9.80 -0.00 0.05 -0.07 14167
0.26 0.05 0.35 -0.84 9.77 0.00 0.04 -0.07 14174
0.29 0.05 0.36 -0.84 9.21 0.00 0.05 -0.07 14181
0.33 0.02 0.34 -0.89 9.80 0.00 0.05 -0.07 14188
0.33 0.02 0.34 -0.82 9.85 0.01 0.05 -0.07 14195
0.35 0.02 0.36 -0.88 9.82 0.01 0.05 -0.07 14202
0.36 0.01 0.38 -0.86 9.82 0.01 0.05 -0.07 14210
0.36 -0.01 0.34 -0.86 9.81 0.02 0.05 -0.07 14217
0.37 0.00 0.32 -0.87 9.81 0.02 0.06 -0.07 14224
0.39 -0.01 0.36 -0.85 9.82 0.02 0.06 -0.07 14231
0.38 -0.01 0.37 -0.86 9.82 0.02 0.06 -0.07 14238
0.37 -0.04 0.34 -0.90 9.83 0.02 0.06 -0.07 14245
0.37 -0.02 0.35 -0.86 9.81 0.03 0.06 -0.03 14253
0.38 -0.01 0.34 -0.82 9.84 0.03 0.07 -0.07 14260
0.41 -0.01 0.38 -0.86 9.87 0.05 0.07 -0.07 14267
0.41 -0.01 0.37 -0.82 9.88 0.06 0.08 -0.06 14274
0.43 -0.01 0.39 -0.85 9.90 0.08 0.09 -0.06 14281
0.46 -0.04 0.39 -0.96 9.94 0.10 0.10 -0.07 14288
0.45 -0.02 0.41 -1.07 9.86 0.13 0.12 -0.08 14296
0.47 -0.02 0.50 -0.61 9.92 0.14 0.15 -0.09 14303
0.50 -0.02 0.45 -0.89 9.91 0.19 0.18 -0.09 14310
0.49 -0.02 1.37 -0.97 9.99 0.25 0.23 -0.13 14317
0.49 -0.02 0.70 -1.08 10.61 0.40 0.36 -0.14 14325
0.49 -0.03 0.86 -1.17 11.11 1.01 0.45 -0.12 14332
0.46 -0.03 0.44 -1.34 12.78 1.23 0.54 -0.17 14340
0.47 -0.01 0.21 -1.12 10.99 1.14 0.35 -0.16 14347
0.47 -0.01 0.77 -1.38 10.24 1.14 0.24 -0.16 14354
0.44 -0.02 0.29 -1.25 10.74 1.17 0.13 -0.16 14361
0.43 -0.01 0.44 -1.28 10.63 1.20 0.10 -0.15 14368
0.39 -0.01 0.70 -1.55 10.69 1.22 0.09 -0.14 14375
0.35 -0.02 0.42 -1.57 10.15 1.26 0.08 -0.13 14383
0.31 -0.01 0.51 -1.69 10.17 1.31 0.05 -0.11 14390
0.30 -0.02 0.48 -1.74 10.21 1.31 0.03 -0.10 14396
0.25 -0.02 0.53 -1.94 10.20 1.31 0.02 -0.10 14404
0.22 -0.02 0.53 -2.00 10.27 1.33 0.00 -0.10 14410
0.18 -0.02 0.74 -2.13 10.06 1.33 -0.05 -0.09 14417
0.16 0.00 -0.17 -2.06 8.92 1.31 -0.11 -0.09 14425
0.13 0.00 0.72 -2.46 11.09 1.34 0.02 -0.09 14432
0.13 0.01 0.36 -2.47 10.69 1.43 0.05 -0.10 14439
0.11 0.00 0.48 -2.65 10.35 1.49 0.05 -0.08 14446
0.11 -0.00 0.51 -2.90 10.12 1.51 0.09 -0.08 14453
0.10 0.00 0.03 -2.87 10.30 1.54 0.14 -0.06 14460
0.12 0.00 0.25 -3.12 10.35 1.55 0.16 -0.03 14468
0.12 0.00 0.16 -3.22 10.23 1.54 0.20 -0.01 14475
0.09 0.01 0.41 -3.39 10.53 1.51 0.28 0.02 14482
0.10 -0.00 0.46 -3.62 10.64 1.47 0.34 0.04 14489
0.10 -0.01 0.00 -3.69 10.55 1.42 0.36 0.06 14496
0.07 -0.01 -0.07 -3.94 10.75 1.35 0.36 0.10 14503
0.09 -0.00 -0.21 -3.90 11.18 1.27 0.33 0.12 14511
0.06 -0.01 -0.68 -2.96 11.37 1.24 0.24 0.15 14518
0.07 -0.01 -1.83 -1.01 11.18 1.17 0.11 0.17 14525
0.05 -0.01 -1.40 0.84 10.96 0.96 0.06 0.15 14532
0.03 -0.00 -0.78 1.81 9.84 0.66 0.05 0.06 14539
0.02 -0.00 -0.64 1.78 9.41 0.31 0.15 -0.14 14546
0.03 -0.00 -2.01 3.31 9.91 0.06 0.16 -0.35 14554
0.03 -0.00 -2.77 3.09 8.76 -0.10 0.15 -0.76 14561
0.03 -0.00 -3.83 2.64 8.83 -0.20 0.02 -1.14 14568
0.03 -0.00 -5.71 3.31 10.06 -0.27 -0.13 -1.64 14575
0.02 -0.00 -5.59 3.29 11.15 -0.35 -0.37 -2.09 14582
0.03 -0.00 -4.70 3.54 10.43 -0.51 -0.62 -2.37 14589
0.03 -0.00 -3.41 3.43 10.12 -0.76 -0.84 -2.63 14597
0.04 -0.00 -2.37 2.95 9.59 -0.98 -1.01 -2.77 14604
0.03 -0.00 -1.35 1.87 9.35 -1.08 -1.10 -2.87 14611
0.02 -0.00 -0.67 1.12 8.99 -1.09 -1.10 -2.93 14618
0.01 -0.00 -0.09 0.72 8.56 -1.05 -1.05 -2.94 14625
0.02 -0.00 0.17 0.32 8.47 -0.99 -0.96 -2.92 14632
0.02 -0.00 0.36 0.05 8.76 -0.93 -0.88 -2.89 14640
0.02 -0.00 0.70 -0.18 8.98 -0.88 -0.77 -2.82 14647
0.01 -0.00 0.95 -0.38 9.00 -0.84 -0.66 -2.74 14654
0.00 0.00 1.23 -0.60 8.95 -0.80 -0.52 -2.66 14661
0.00 0.00 1.49 -0.88 8.76 -0.75 -0.35 -2.56 14668
0.00 0.00 1.65 -1.12 8.70 -0.68 -0.20 -2.46 14675
0.03 -0.00 1.73 -1.23 8.75 -0.59 -0.04 -2.34 14683
0.01 -0.00 1.62 -1.37 8.92 -0.52 0.09 -2.20 14690
0.00 0.00 1.38 -1.38 9.30 -0.44 0.13 -2.06 14697
0.01 -0.00 1.39 -1.29 10.27 -0.39 0.17 -1.88 14704
0.00 0.00 1.20 -1.32 9.87 -0.34 0.16 -1.67 14711
0.01 -0.00 1.27 -1.17 10.07 -0.32 0.14 -1.49 14718
0.02 -0.00 1.37 -1.02 10.47 -0.34 0.13 -1.28 14726
0.01 -0.00 1.40 -0.99 10.71 -0.40 0.14 -1.09 14733
0.00 -0.00 1.56 -1.05 10.98 -0.49 0.19 -0.87 14740
0.00 0.00 1.52 -1.13 11.24 -0.58 0.24 -0.67 14747
0.00 0.00 1.47 -1.25 11.29 -0.71 0.31 -0.52 14754
-0.00 0.00 1.23 -1.39 11.02 -0.81 0.36 -0.35 14761
0.02 -0.00 0.98 -1.68 10.63 -0.90 0.40 -0.23 14769
0.01 -0.00 0.73 -2.01 10.25 -0.94 0.41 -0.11 14776
0.00 0.00 0.53 -2.34 9.84 -0.93 0.39 -0.01 14783
0.00 -0.00 0.50 -2.42 9.59 -0.88 0.36 0.04 14790
0.00 -0.00 0.61 -2.51 9.56 -0.80 0.33 0.10 14797
0.01 -0.00 0.66 -2.52 9.69 -0.79 0.32 0.12 14804
0.02 -0.00 0.74 -2.51 9.84 -0.74 0.32 0.15 14812
0.01 -0.00 0.89 -2.45 10.03 -0.72 0.37 0.17 14819
0.01 -0.00 0.89 -2.41 10.07 -0.69 0.35 0.20 14826
0.00 0.00 0.89 -2.47 10.09 -0.64 0.34 0.22 14833
0.00 -0.00 0.97 -2.46 10.03 -0.64 0.34 0.25 14840
0.01 -0.00 1.17 -2.44 10.05 -0.62 0.34 0.28 14848
0.01 -0.00 1.36 -2.47 10.39 -0.59 0.37 0.31 14855
0.00 -0.00 1.50 -2.35 10.55 -0.57 0.42 0.35 14862
0.00 -0.00 1.34 -2.18 10.62 -0.59 0.48 0.39 14869
0.00 0.00 1.22 -2.19 10.60 -0.63 0.53 0.44 14876
0.00 -0.00 1.09 -2.22 10.70 -0.68 0.56 0.48 14883
0.01 -0.00 0.99 -2.46 10.77 -0.71 0.60 0.52 14891
0.01 -0.00 0.86 -2.67 10.37 -0.72 0.63 0.55 14898
0.01 -0.00 0.69 -2.72 9.84 -0.71 0.69 0.58 14905
0.00 -0.00 0.55 -2.84 9.58 -0.68 0.72 0.61 14912
0.00 0.00 0.39 -3.01 9.64 -0.64 0.74 0.62 14919
0.00 -0.00 0.25 -3.16 9.82 -0.59 0.75 0.63 14926
0.01 -0.00 0.16 -3.19 9.90 -0.56 0.73 0.67 14934
0.01 -0.00 0.13 -3.25 9.98 -0.56 0.68 0.64 14941
0.00 -0.00 0.22 -3.38 9.97 -0.57 0.63 0.64 14948
0.00 0.00 0.33 -3.55 9.88 -0.58 0.59 0.63 14955
0.00 -0.00 0.53 -3.81 9.84 -0.56 0.57 0.63 14962
0.00 -0.00 0.57 -4.04 9.69 -0.53 0.58 0.62 14969
0.01 -0.00 0.67 -4.25 9.47 -0.47 0.63 0.61 14977
0.01 -0.00 0.74 -4.44 9.27 -0.42 0.68 0.59 14984
0.01 -0.00 0.75 -4.49 9.24 -0.35 0.72 0.59 14991
0.00 0.00 0.68 -4.59 9.43 -0.28 0.76 0.60 14998
0.01 -0.00 0.01 -4.67 9.79 -0.23 0.76 0.62 15005
0.00 -0.00 0.56 -4.71 9.56 -0.21 0.71 0.64 15012
0.01 -0.00 0.65 -4.78 10.14 -0.19 0.67 0.68 15020
0.01 -0.00 0.90 -4.76 10.29 -0.21 0.65 0.71 15027
0.01 -0.00 1.11 -4.65 10.22 -0.25 0.67 0.75 15034
0.00 0.00 1.08 -4.59 9.83 -0.29 0.71 0.79 15041
0.00 0.00 0.79 -4.51 9.65 -0.33 0.78 0.84 15048
0.00 0.00 0.31 -4.45 9.32 -0.33 0.85 0.90 15055
0.01 -0.00 -0.18 -4.41 9.04 -0.30 0.88 0.97 15063
0.00 -0.00 -0.85 -4.45 8.87 -0.25 0.86 1.06 15070
0.00 -0.00 -1.32 -4.61 8.81 -0.19 0.79 1.13 15077
0.00 0.00 -1.63 -4.75 8.81 -0.14 0.65 1.15 15084
0.00 -0.00 -1.63 -4.86 8.68 -0.10 0.50 1.15 15091
0.01 -0.00 -4.63 -10.13 10.72 0.04 0.31 1.23 15099
0.00 -0.00 -0.69 -5.31 5.39 0.35 -0.01 1.30 15106
0.00 0.00 -3.64 -6.37 7.46 0.36 -0.23 1.29 15113
0.00 -0.00 -2.16 -7.61 7.87 0.47 -0.16 1.36 15120
0.00 0.00 -2.88 -8.57 7.66 0.58 -0.10 1.46 15127
0.00 0.00 -3.82 -9.58 6.74 0.69 -0.08 1.57 15134
0.01 -0.00 -6.19 -10.62 7.70 0.93 -0.56 1.69 15141
0.00 0.00 -7.85 -11.01 7.04 1.10 -0.87 1.83 15149
0.00 -0.00 -15.68 -10.41 33.33 1.27 -1.46 1.70 15157
-0.00 0.00 -20.31 -4.79 23.02 -0.10 -0.44 0.84 15163
-0.00 0.02 -2.28 -1.70 8.71 -0.30 0.09 -0.01 15170
-0.01 0.06 -0.63 -0.52 9.80 -0.52 -0.03 -0.06 15177
-0.01 0.10 -0.25 -0.60 10.94 -0.39 -0.03 -0.16 15184
-0.02 0.18 0.89 -0.72 9.92 -0.18 0.06 -0.14 15192
-0.02 0.22 1.21 -0.87 10.19 -0.11 0.04 -0.06 15199
-0.02 0.23 0.57 -0.95 10.17 -0.09 0.02 -0.03 15206
-0.01 0.22 0.14 -0.90 10.06 -0.06 0.02 -0.04 15213
-0.00 0.29 0.34 -0.84 9.89 -0.05 0.04 -0.05 15220
-0.02 0.29 0.55 -0.89 9.83 -0.05 0.04 -0.04 15227
-0.02 0.33 0.36 -0.79 9.82 -0.04 0.02 -0.04 15235
-0.02 0.37 0.22 -0.71 9.82 -0.04 0.03 -0.04 15242
-0.02 0.36 0.37 -0.82 9.82 -0.04 0.04 -0.04 15249
-0.03 0.36 0.37 -0.78 9.80 -0.04 0.03 -0.04 15256
0.01 0.38 0.33 -0.80 9.83 -0.05 0.03 -0.05 15263
0.00 0.44 0.37 -0.78 9.81 -0.05 0.03 -0.05 15270
0.00 0.43 0.39 -0.77 9.81 -0.04 0.03 -0.05 15278
-0.02 0.46 0.37 -0.80 9.81 -0.05 0.02 -0.06 15285
-0.03 0.52 0.36 -0.76 9.81 -0.04 0.02 -0.06 15292
0.00 0.51 0.36 -0.75 9.83 -0.04 0.02 -0.06 15299
-0.01 0.55 0.37 -0.73 9.83 -0.04 0.03 -0.06 15306
-0.02 0.54 0.31 -0.75 9.83 -0.03 0.03 -0.06 15313
-0.00 0.53 0.31 -0.72 9.82 -0.03 0.03 -0.06 15321
-0.02 0.54 0.32 -0.73 9.82 -0.03 0.03 -0.06 15328
-0.00 0.59 0.33 -0.72 9.82 -0.03 0.04 -0.05 15335
0.02 0.56 0.36 -0.70 9.81 -0.02 0.04 -0.06 15342
0.03 0.60 0.36 -0.68 9.81 -0.02 0.04 -0.06 15349
0.04 0.62 0.36 -0.72 9.80 -0.02 0.04 -0.06 15356
0.04 0.58 0.42 -0.71 9.82 -0.01 0.03 -0.06 15364
0.02 0.58 0.37 -0.72 9.81 -0.01 0.03 -0.06 15371
0.01 0.57 0.39 -0.70 9.79 -0.01 0.03 -0.06 15378
0.02 0.57 0.35 -0.72 9.82 -0.01 0.03 -0.07 15385
0.03 0.56 0.38 -0.75 9.83 -0.01 0.03 -0.07 15392
0.02 0.57 0.31 -0.73 9.83 -0.01 0.02 -0.07 15399
0.01 0.57 0.35 -0.76 9.83 -0.01 0.03 -0.07 15407
0.01 0.56 0.34 -0.73 9.81 -0.00 0.03 -0.07 15414
0.01 0.54 0.28 -0.70 9.81 -0.00 0.03 -0.07 15421
0.02 0.54 0.29 -0.74 9.80 0.00 0.04 -0.06 15428
0.04 0.51 0.33 -0.73 9.82 0.00 0.04 -0.06 15435
0.04 0.51 0.34 -0.74 9.81 0.00 0.04 -0.07 15442
0.03 0.49 0.37 -0.73 9.78 0.00 0.04 -0.07 15450
0.02 0.50 0.36 -0.73 9.78 0.01 0.04 -0.07 15457
0.04 0.49 0.34 -0.75 9.79 0.00 0.04 -0.07 15464
0.04 0.48 0.34 -0.75 9.83 0.00 0.04 -0.07 15471
0.05 0.47 0.31 -0.73 9.80 0.00 0.04 -0.07 15478
0.05 0.48 0.38 -0.75 9.81 0.00 0.04 -0.07 15485
0.05 0.46 0.34 -0.75 9.80 0.00 0.04 -0.07 15493
0.05 0.44 0.32 -0.73 9.81 -0.00 0.04 -0.07 15500
0.06 0.47 0.35 -0.75 9.82 -0.00 0.04 -0.07 15507
0.06 0.48 0.31 -0.74 9.82 -0.00 0.03 -0.07 15514
0.07 0.46 0.32 -0.75 9.81 -0.00 0.04 -0.07 15521
0.08 0.45 0.32 -0.72 9.79 -0.00 0.04 -0.07 15528
0.08 0.44 0.31 -0.74 9.78 -0.01 0.04 -0.07 15536
0.09 0.45 0.34 -0.73 9.82 -0.00 0.04 -0.07 15543
0.09 0.46 0.29 -0.70 9.81 -0.00 0.04 -0.07 15550
0.10 0.44 0.38 -0.72 9.81 -0.00 0.03 -0.07 15557
0.11 0.41 0.34 -0.74 9.80 -0.00 0.04 -0.07 15564
0.12 0.38 0.32 -0.75 9.79 0.00 0.04 -0.07 15571
0.12 0.38 0.31 -0.75 9.82 0.00 0.04 -0.07 15579
0.14 0.39 0.34 -0.72 9.81 0.00 0.04 -0.07 15586
0.14 0.40 0.32 -0.76 9.81 0.01 0.04 -0.07 15593
0.15 0.38 0.35 -0.74 9.81 0.00 0.04 -0.07 15600
0.17 0.36 0.31 -0.76 9.82 0.00 0.04 -0.07 15607
0.18 0.33 0.35 -0.72 9.83 0.00 0.04 -0.07 15614
0.18 0.33 0.30 -0.75 9.81 0.00 0.04 -0.07 15622
0.16 0.33 0.32 -0.76 9.81 0.00 0.04 -0.07 15629
0.20 0.31 0.35 -0.77 9.78 0.00 0.04 -0.08 15636
0.22 0.31 0.33 -0.74 9.81 0.00 0.04 -0.07 15643
0.22 0.31 0.32 -0.76 9.81 0.00 0.04 -0.07 15650
0.20 0.27 0.31 -0.77 10.42 0.00 0.04 -0.07 15657
0.20 0.27 0.34 -0.76 9.81 0.00 0.04 -0.07 15665
0.20 0.30 0.34 -0.77 9.81 0.01 0.04 -0.07 15672
0.20 0.28 0.32 -0.77 9.80 0.00 0.04 -0.07 15679
0.22 0.26 0.35 -0.75 9.79 0.00 0.04 -0.07 15686
0.21 0.26 0.35 -0.78 9.80 -0.00 0.04 -0.07 15693
0.19 0.26 0.30 -0.76 9.81 0.00 0.04 -0.07 15700
0.19 0.25 0.31 -0.76 9.80 0.00 0.04 -0.07 15708
0.20 0.26 0.34 -0.78 9.82 0.00 0.04 -0.07 15715
0.21 0.25 0.34 -0.72 9.81 0.00 0.04 -0.07 15722
0.19 0.25 0.31 -0.77 9.77 0.00 0.05 -0.07 15729
0.19 0.27 0.31 -0.77 9.76 0.00 0.05 -0.07 15736
0.20 0.25 0.35 -0.76 9.81 0.01 0.05 -0.06 15744
0.22 0.24 0.31 -0.74 10.42 0.00 0.05 -0.07 15751
0.24 0.21 0.30 -0.77 9.81 0.01 0.05 -0.06 15758
0.28 0.14 0.35 -0.73 9.82 0.01 0.05 -0.07 15765
0.26 0.14 0.32 -0.75 9.81 0.01 0.06 -0.06 15772
0.27 0.13 0.34 -0.81 9.80 0.01 0.06 -0.07 15779
0.27 0.13 0.36 -0.72 10.41 0.01 0.06 -0.06 15787
0.29 0.09 0.37 -0.78 9.82 0.02 0.06 -0.07 15794
0.29 0.06 0.34 -0.75 9.83 0.02 0.06 -0.06 15801
0.29 0.02 0.34 -0.76 9.82 0.02 0.06 -0.07 15808
0.29 0.03 0.36 -0.78 9.83 0.03 0.06 -0.07 15815
0.31 0.00 0.34 -0.78 9.82 0.02 0.06 -0.07 15822
0.30 0.00 0.34 -0.80 9.81 0.02 0.06 -0.07 15830
0.32 0.02 0.37 -0.79 9.78 0.03 0.06 -0.07 15837
0.33 -0.01 0.37 -0.80 9.82 0.03 0.06 -0.06 15844
0.35 -0.02 0.38 -0.80 9.81 0.03 0.06 -0.06 15851
0.35 -0.01 0.40 -0.80 9.82 0.03 0.06 -0.07 15858
0.37 -0.01 0.37 -0.78 9.82 0.04 0.06 -0.07 15865
0.38 -0.02 0.36 -0.81 9.86 0.05 0.06 -0.06 15873
0.40 -0.02 0.40 -0.80 9.85 0.06 0.07 -0.07 15880
0.42 -0.02 0.44 -0.85 9.84 0.07 0.08 -0.08 15887
0.45 -0.03 0.36 -0.89 9.88 0.09 0.09 -0.08 15894
0.46 -0.01 0.44 -0.97 9.87 0.11 0.11 -0.09 15901
0.47 -0.03 0.53 -0.89 9.93 0.13 0.13 -0.10 15908
0.46 -0.02 0.30 -0.51 9.96 0.18 0.15 -0.14 15916
0.47 -0.01 0.45 -0.75 10.79 0.40 0.27 -0.12 15924
0.48 -0.01 0.64 -1.10 11.07 0.97 0.43 -0.13 15931
0.49 -0.02 0.69 -1.03 12.77 1.24 0.46 -0.16 15938
0.50 -0.03 0.24 -1.61 11.85 1.29 0.32 -0.19 15945
0.49 -0.03 0.85 -1.69 11.65 1.32 0.35 -0.21 15952
0.49 -0.01 0.57 -1.22 10.94 1.34 0.24 -0.21 15960
0.46 -0.00 1.18 -1.52 10.78 1.38 0.20 -0.20 15967
0.47 -0.01 0.53 -1.53 10.25 1.40 0.14 -0.21 15974
0.43 -0.02 0.55 -1.60 10.20 1.40 0.05 -0.19 15980
0.39 -0.02 0.54 -1.66 10.12 1.38 0.05 -0.19 15988
0.34 -0.01 0.42 -1.69 10.73 1.40 0.07 -0.18 15995
0.32 -0.02 0.35 -1.94 10.57 1.46 0.08 -0.16 16003
0.25 -0.01 0.52 -2.15 10.37 1.50 0.10 -0.15 16010
0.22 -0.01 0.52 -2.93 10.16 1.52 0.14 -0.14 16017
0.15 -0.00 0.45 -1.76 7.11 1.47 0.06 -0.10 16023
0.15 0.01 0.69 -2.51 11.82 1.47 0.22 -0.10 16030
0.10 0.01 0.24 -2.74 11.35 1.58 0.32 -0.11 16037
0.07 -0.00 0.46 -2.71 10.55 1.67 0.42 -0.07 16045
0.11 0.00 0.54 -2.77 10.14 1.64 0.54 -0.06 16052
0.08 -0.01 0.73 -2.92 10.59 1.59 0.60 -0.05 16059
0.06 -0.01 0.11 -3.24 10.58 1.54 0.64 -0.02 16066
0.03 -0.00 -0.05 -3.28 10.55 1.51 0.64 0.03 16073
0.04 -0.00 0.26 -3.64 11.41 1.45 0.71 0.08 16080
0.03 -0.00 0.57 -3.77 10.77 1.41 0.75 0.09 16088
0.05 -0.00 -0.17 -3.34 10.92 1.38 0.70 0.09 16095
0.03 -0.00 0.07 -3.52 11.00 1.30 0.59 0.11 16102
0.03 -0.00 0.73 -4.36 10.99 1.23 0.55 0.12 16109
0.03 -0.00 -0.39 -2.00 12.45 1.15 0.57 0.12 16116
0.02 -0.00 -0.48 -0.67 12.14 0.96 0.58 0.04 16123
0.03 -0.00 -1.09 0.63 10.78 0.79 0.50 -0.12 16131
0.03 -0.00 -1.85 1.04 10.15 0.60 0.37 -0.31 16138
0.02 -0.00 -3.59 2.38 10.78 0.43 0.23 -0.61 16145
0.00 0.00 -4.28 2.28 9.44 0.29 0.05 -1.09 16152
0.00 0.00 -7.27 2.38 10.98 0.15 -0.19 -1.55 16159
0.00 0.00 -5.16 2.36 9.11 0.11 -0.45 -2.05 16166
0.00 -0.00 -4.58 2.65 9.42 0.05 -0.66 -2.35 16174
0.01 -0.00 -3.36 3.40 9.23 -0.08 -0.88 -2.63 16181
0.01 -0.00 -2.37 3.52 8.48 -0.18 -1.14 -2.80 16188
0.01 -0.00 -1.51 3.17 8.12 -0.23 -1.44 -2.88 16195
0.00 0.00 -0.41 2.81 8.29 -0.25 -1.64 -2.88 16202
0.00 -0.00 0.51 2.70 8.72 -0.29 -1.79 -2.84 16209
0.01 -0.00 1.60 2.66 9.20 -0.35 -1.83 -2.72 16217
0.02 -0.00 2.61 2.50 9.57 -0.44 -1.74 -2.56 16224
0.01 -0.00 3.61 2.47 9.50 -0.59 -1.52 -2.39 16231
0.01 -0.00 4.31 2.33 9.93 -0.75 -1.15 -2.13 16238
0.00 0.00 4.83 2.17 8.70 -0.98 -0.80 -1.93 16245
0.01 -0.00 4.80 1.28 8.96 -1.12 -0.44 -1.65 16252
0.01 -0.00 4.56 0.27 9.29 -1.20 -0.16 -1.33 16260
0.00 -0.00 4.12 -0.35 9.44 -1.25 0.00 -1.04 16267
0.01 -0.00 3.79 -0.90 9.13 -1.25 0.09 -0.69 16274
0.01 -0.00 3.65 -1.29 9.01 -1.21 0.12 -0.31 16281
0.00 0.00 3.58 -1.54 9.08 -1.17 0.12 -0.03 16288
0.00 -0.00 3.54 -1.68 9.30 -1.12 0.17 0.30 16295
0.02 -0.00 3.41 -1.77 9.55 -1.07 0.27 0.54 16303
0.01 -0.00 3.02 -1.87 9.80 -1.04 0.39 0.77 16310
0.00 -0.00 2.40 -2.01 9.92 -1.01 0.49 0.95 16317
0.00 -0.00 1.61 -2.18 9.98 -0.98 0.55 1.06 16324
0.00 -0.00 0.90 -2.44 10.08 -0.96 0.54 1.14 16331
0.01 -0.00 0.48 -2.56 10.17 -0.92 0.50 1.18 16338
0.01 -0.00 0.13 -2.75 10.30 -0.90 0.44 1.16 16346
0.00 -0.00 -0.01 -2.90 10.58 -0.90 0.40 1.10 16353
0.00 -0.00 0.00 -2.93 10.84 -0.92 0.37 1.01 16360
0.00 0.00 0.10 -2.99 10.82 -0.95 0.35 0.89 16367
0.00 -0.00 0.13 -2.97 10.82 -0.98 0.34 0.75 16374
0.01 -0.00 0.13 -2.97 10.60 -1.00 0.34 0.65 16381
0.01 -0.00 0.19 -2.94 10.32 -1.00 0.33 0.53 16389
0.00 -0.00 0.29 -3.00 10.13 -0.98 0.31 0.43 16396
0.00 0.00 0.42 -3.14 10.06 -0.95 0.29 0.32 16403
0.00 0.00 0.54 -3.31 9.92 -0.90 0.29 0.22 16410
0.01 -0.00 0.68 -3.42 9.94 -0.85 0.28 0.11 16417
0.01 -0.00 0.75 -3.54 10.03 -0.81 0.28 0.01 16424
0.01 -0.00 0.74 -3.61 9.99 -0.75 0.28 -0.07 16432
0.00 -0.00 0.70 -3.73 10.03 -0.69 0.26 -0.15 16439
0.00 -0.00 0.65 -3.80 9.96 -0.65 0.23 -0.23 16446
0.00 0.00 0.62 -3.80 9.85 -0.61 0.19 -0.28 16453
0.00 -0.00 0.59 -3.77 9.80 -0.57 0.14 -0.33 16460
0.01 -0.00 0.58 -3.75 9.84 -0.54 0.11 -0.35 16467
0.01 -0.00 0.66 -3.61 9.85 -0.52 0.11 -0.34 16475
0.01 -0.00 0.77 -3.40 9.94 -0.52 0.13 -0.31 16482
0.00 -0.00 0.81 -3.26 10.01 -0.51 0.16 -0.26 16489
0.00 -0.00 0.82 -3.14 10.10 -0.52 0.18 -0.16 16496
0.01 -0.00 0.86 -3.11 10.15 -0.52 0.19 -0.04 16503
0.02 -0.00 0.99 -3.11 10.16 -0.54 0.20 0.05 16510
0.01 -0.00 1.19 -3.24 10.11 -0.54 0.20 0.18 16518
0.01 -0.00 1.37 -3.40 9.98 -0.54 0.24 0.29 16525
0.00 0.00 1.53 -3.45 9.82 -0.52 0.27 0.41 16532
0.00 0.00 1.61 -3.51 9.58 -0.49 0.32 0.51 16539
0.00 -0.00 1.59 -3.55 9.47 -0.44 0.36 0.63 16546
0.02 -0.00 1.50 -3.56 9.49 -0.39 0.39 0.75 16553
0.00 -0.00 1.41 -3.59 9.58 -0.33 0.39 0.84 16561
0.01 -0.00 1.28 -3.62 9.75 -0.29 0.37 0.92 16568
0.00 0.00 1.17 -3.52 9.83 -0.26 0.33 0.99 16575
0.01 -0.00 1.03 -3.49 9.97 -0.25 0.26 1.04 16582
0.01 -0.00 1.02 -3.39 9.95 -0.26 0.18 1.08 16589
0.01 -0.00 1.14 -3.37 9.87 -0.28 0.13 1.10 16596
0.00 -0.00 1.26 -3.38 9.82 -0.30 0.10 1.12 16604
0.00 -0.00 1.40 -3.44 9.76 -0.31 0.11 1.12 16611
0.00 0.00 1.56 -3.46 9.60 -0.31 0.18 1.11 16618
0.00 -0.00 1.61 -3.56 9.34 -0.29 0.27 1.10 16625
0.01 -0.00 1.54 -3.60 9.01 -0.24 0.38 1.10 16632
0.00 -0.00 1.33 -3.54 8.88 -0.17 0.49 1.10 16640
0.01 -0.00 1.02 -3.51 9.02 -0.11 0.55 1.10 16647
0.00 -0.00 0.88 -3.51 9.31 -0.05 0.57 1.11 16654
0.00 0.00 0.81 -3.53 9.64 -0.03 0.54 1.11 16661
0.01 -0.00 0.76 -3.48 9.79 -0.03 0.50 1.12 16668
0.01 -0.00 0.60 -3.47 9.86 -0.05 0.45 1.13 16675
0.01 -0.00 0.56 -3.46 9.81 -0.08 0.40 1.15 16683
0.01 -0.00 0.52 -3.48 9.70 -0.11 0.35 1.17 16690
0.00 -0.00 0.52 -3.48 9.42 -0.13 0.32 1.19 16697
0.00 -0.00 0.47 -3.52 9.42 -0.12 0.31 1.22 16704
0.00 -0.00 0.48 -3.48 9.35 -0.11 0.34 1.24 16711
0.02 -0.00 0.35 -3.44 9.40 -0.11 0.41 1.26 16718
0.01 -0.00 -5.02 -13.64 13.67 0.01 0.26 1.28 16726
0.00 -0.00 0.77 -3.14 4.56 0.14 0.07 1.33 16733
0.00 0.00 -2.14 -6.47 8.06 0.15 -0.08 1.34 16740
0.00 0.00 -1.31 -7.31 8.04 0.21 -0.05 1.41 16747
0.00 -0.00 -1.06 -7.11 8.89 0.30 -0.03 1.46 16754
0.01 -0.00 -1.43 -6.84 7.81 0.31 -0.08 1.44 16761
0.01 -0.00 -2.22 -8.52 8.53 0.40 -0.19 1.45 16769
0.01 -0.00 -2.91 -9.42 7.54 0.46 -0.23 1.46 16776
0.00 0.00 -3.24 -9.22 7.53 0.62 -0.41 1.46 16783
0.00 -0.00 -4.39 -11.61 8.11 0.74 -0.48 1.49 16790
0.01 0.00 -12.31 -12.21 8.82 0.57 -1.25 1.30 16798
0.01 -0.00 -7.94 -5.43 11.31 0.19 -0.71 0.74 16804
-0.00 0.00 -3.42 -4.65 8.30 -0.07 0.03 0.04 16812
0.00 0.00 -0.58 -1.43 9.96 -0.17 0.08 -0.07 16819
-0.00 0.02 0.37 -0.75 9.53 -0.20 -0.02 -0.09 16826
-0.00 0.02 0.72 -0.93 9.38 -0.19 -0.07 -0.06 16833
0.01 0.04 0.56 -0.91 9.86 -0.22 -0.05 -0.04 16840
0.01 0.04 0.59 -0.97 10.49 -0.27 -0.00 -0.03 16847
-0.01 0.07 0.36 -0.90 9.95 -0.17 0.02 -0.04 16855
-0.01 0.05 0.28 -0.92 9.93 -0.11 0.04 -0.06 16862
-0.01 0.08 0.45 -1.05 9.84 -0.09 0.02 -0.07 16869
0.03 0.09 0.49 -1.10 9.84 -0.07 0.00 -0.06 16876
0.02 0.09 0.38 -1.04 9.89 -0.06 -0.00 -0.06 16883
0.01 0.09 0.30 -0.96 9.83 -0.04 0.00 -0.07 16890
0.02 0.10 0.37 -0.97 9.83 -0.04 0.01 -0.06 16898
0.06 0.10 0.33 -1.02 9.82 -0.04 0.02 -0.07 16905
0.06 0.09 0.33 -1.01 9.81 -0.04 0.02 -0.06 16912
0.07 0.12 0.36 -1.01 9.79 -0.04 0.02 -0.06 16919
0.07 0.14 0.34 -0.97 9.77 -0.04 0.02 -0.06 16926
0.07 0.17 0.35 -0.97 9.76 -0.05 0.02 -0.06 16933
0.06 0.16 0.31 -0.95 9.75 -0.05 0.02 -0.07 16941
0.06 0.18 0.30 -0.94 9.75 -0.05 0.03 -0.07 16948
0.07 0.18 0.34 -0.97 9.81 -0.05 0.03 -0.07 16955
0.08 0.23 0.31 -0.93 9.76 -0.05 0.03 -0.07 16962
0.11 0.19 0.31 -1.03 9.75 -0.04 0.04 -0.06 16969
0.09 0.17 0.33 -0.97 9.82 -0.04 0.04 -0.06 16976
0.10 0.20 0.34 -0.93 9.81 -0.04 0.04 -0.06 16984
0.10 0.23 0.33 -0.91 9.82 -0.04 0.04 -0.06 16991
0.10 0.23 0.34 -0.95 9.82 -0.03 0.05 -0.07 16998
0.09 0.29 0.37 -0.92 9.21 -0.03 0.04 -0.06 17005
0.12 0.25 0.38 -0.93 9.81 -0.03 0.04 -0.06 17012
0.11 0.25 0.34 -0.91 9.83 -0.02 0.04 -0.06 17019
0.12 0.27 0.37 -0.95 9.82 -0.02 0.04 -0.06 17027
0.13 0.28 0.35 -0.88 9.81 -0.02 0.04 -0.06 17034
0.13 0.30 0.32 -0.91 9.82 -0.02 0.05 -0.06 17041
0.14 0.30 0.34 -0.92 9.81 -0.01 0.05 -0.06 17048
0.14 0.32 0.32 -0.91 9.77 -0.01 0.06 -0.06 17055
0.12 0.31 0.36 -0.92 9.81 0.00 0.06 -0.06 17062
0.15 0.29 0.35 -0.91 9.81 0.00 0.06 -0.06 17070
0.16 0.29 0.34 -0.94 9.78 0.01 0.06 -0.07 17077
0.19 0.31 0.35 -0.92 9.82 0.01 0.06 -0.07 17084
0.19 0.31 0.35 -0.91 9.79 0.01 0.06 -0.07 17091
0.21 0.27 0.35 -0.91 10.40 0.01 0.06 -0.07 17098
0.23 0.25 0.37 -0.93 9.82 0.01 0.06 -0.07 17105
0.23 0.22 0.36 -0.94 9.80 0.02 0.06 -0.07 17113
0.22 0.20 0.34 -0.91 9.80 0.02 0.06 -0.07 17120
0.20 0.20 0.36 -0.94 9.81 0.02 0.05 -0.07 17127
0.21 0.17 0.36 -0.91 10.42 0.02 0.06 -0.07 17134
0.21 0.17 0.37 -0.91 9.81 0.02 0.06 -0.07 17141
0.22 0.11 0.36 -0.96 9.80 0.02 0.06 -0.07 17148
0.21 0.10 0.37 -0.93 9.80 0.02 0.06 -0.07 17156
0.24 0.07 0.39 -0.95 9.76 0.02 0.05 -0.07 17163
0.26 0.10 0.36 -0.93 9.80 0.02 0.06 -0.07 17170
0.28 0.06 0.38 -0.94 9.81 0.01 0.05 -0.07 17177
0.29 0.07 0.36 -0.97 9.77 0.01 0.05 -0.06 17184
0.28 0.05 0.38 -0.94 9.78 0.01 0.05 -0.07 17191
0.27 0.03 0.37 -0.95 9.76 0.01 0.05 -0.07 17199
0.28 0.05 0.39 -0.96 9.78 0.00 0.05 -0.06 17206
0.29 0.04 0.38 -0.94 9.81 0.01 0.05 -0.06 17213
0.31 0.01 0.37 -0.96 9.79 0.01 0.05 -0.07 17220
0.30 0.00 0.38 -0.95 9.20 0.01 0.04 -0.06 17227
0.31 -0.01 0.38 -0.96 9.78 -0.03 0.05 -0.07 17234
0.30 0.00 0.36 -0.96 9.78 0.00 0.04 -0.06 17242
0.31 0.00 0.37 -0.95 9.78 -0.00 0.04 -0.06 17249
0.33 0.00 0.37 -0.97 9.82 0.00 0.04 -0.06 17256
0.34 0.00 0.37 -0.95 9.80 0.00 0.04 -0.07 17263
0.36 -0.00 0.35 -0.94 9.80 0.00 0.04 -0.07 17270
0.35 -0.01 0.39 -0.97 9.80 0.00 0.04 -0.06 17277
0.34 0.00 0.34 -0.98 9.80 0.00 0.04 -0.06 17285
0.35 0.01 0.34 -0.99 9.81 0.00 0.04 -0.06 17292
0.36 0.01 0.37 -0.96 9.80 0.00 0.04 -0.06 17299
0.35 -0.01 0.37 -0.95 9.81 0.00 0.04 -0.06 17306
0.34 0.00 0.35 -0.96 9.76 -0.00 0.04 -0.07 17313
0.34 -0.00 0.33 -0.96 9.80 0.00 0.04 -0.07 17320
0.35 0.01 0.36 -0.97 9.81 0.00 0.04 -0.07 17328
0.35 0.01 0.37 -0.94 9.82 -0.00 0.04 -0.07 17335
0.37 0.00 0.37 -0.96 9.81 -0.00 0.04 -0.07 17342
0.36 0.00 0.36 -0.97 9.80 -0.00 0.04 -0.07 17349
0.36 0.00 0.35 -0.98 9.78 -0.00 0.04 -0.07 17356
0.35 -0.01 0.34 -0.97 9.79 -0.00 0.04 -0.07 17363
0.34 -0.00 0.40 -0.96 9.79 -0.01 0.04 -0.07 17371
0.35 0.00 0.36 -0.96 9.79 -0.01 0.04 -0.06 17378
0.37 -0.00 0.38 -0.97 9.81 -0.00 0.04 -0.06 17385
0.37 0.00 0.37 -0.98 9.80 -0.01 0.04 -0.07 17392
0.37 -0.01 0.40 -0.97 9.77 -0.00 0.04 -0.06 17399
0.36 0.00 0.36 -0.99 9.78 -0.00 0.04 -0.07 17406
0.38 -0.00 0.38 -0.97 9.79 -0.00 0.04 -0.06 17414
0.38 -0.00 0.32 -0.93 9.78 -0.00 0.05 -0.06 17421
0.40 -0.01 0.38 -0.95 9.77 0.00 0.05 -0.06 17428
0.40 -0.00 0.38 -0.95 9.79 0.01 0.05 -0.07 17435
0.41 -0.03 0.38 -0.95 9.78 0.00 0.05 -0.06 17442
0.40 -0.00 0.37 -0.97 9.80 0.01 0.05 -0.06 17449
0.42 -0.01 0.37 -0.98 9.81 0.01 0.05 -0.06 17457
0.44 -0.02 0.37 -0.95 9.80 0.02 0.05 -0.06 17464
0.45 -0.02 0.36 -0.97 9.82 0.02 0.06 -0.06 17471
0.46 -0.03 0.36 -0.99 9.78 0.03 0.06 -0.06 17478
0.46 -0.03 0.36 -0.99 9.82 0.03 0.06 -0.06 17485
0.45 -0.02 0.37 -0.95 9.83 0.04 0.06 -0.06 17492
0.44 -0.01 0.37 -0.99 9.82 0.04 0.07 -0.06 17500
0.47 -0.01 0.38 -1.01 9.83 0.05 0.07 -0.06 17507
0.47 -0.02 0.40 -1.00 9.81 0.06 0.07 -0.06 17514
0.49 -0.02 0.38 -1.03 9.83 0.06 0.08 -0.06 17521
0.50 -0.02 0.40 -1.01 9.84 0.08 0.09 -0.05 17528
0.54 -0.02 0.40 -1.08 9.81 0.09 0.10 -0.05 17536
0.55 -0.01 0.43 -1.06 9.88 0.11 0.12 -0.06 17543
0.60 -0.03 0.55 -1.05 9.87 0.13 0.14 -0.06 17550
0.63 -0.03 0.38 -0.86 10.15 0.19 0.20 -0.07 17557
0.63 -0.04 0.21 -0.88 10.63 0.36 0.27 -0.07 17564
0.64 -0.04 0.14 -1.01 10.97 0.83 0.38 -0.08 17571
0.67 -0.03 0.66 -1.31 10.94 1.12 0.41 -0.10 17580
0.68 -0.02 0.57 -1.47 11.84 1.18 0.38 -0.13 17587
0.69 -0.03 0.55 -1.31 10.80 1.17 0.26 -0.13 17594
0.69 -0.03 0.53 -1.44 10.58 1.18 0.15 -0.13 17601
0.67 -0.04 0.59 -1.46 10.94 1.19 0.12 -0.13 17608
0.65 -0.03 0.51 -1.39 10.93 1.23 0.11 -0.11 17615
0.64 -0.03 0.39 -1.76 10.76 1.30 0.10 -0.10 17622
0.58 -0.02 0.49 -1.84 10.57 1.34 0.08 -0.09 17629
