Voltage_01 Voltage_02 Acc_x Acc_y Acc_z Gyro_x Gyro_y Gyro_z Time
5000
0.17 0.05 0.31 -0.92 9.81 -0.01 0.04 -0.06 24
0.16 0.06 0.29 -0.90 9.81 -0.01 0.04 -0.06 31
0.17 0.06 0.30 -0.91 9.81 -0.01 0.04 -0.06 38
0.17 0.07 0.29 -0.92 9.80 -0.01 0.04 -0.06 46
0.16 0.06 0.30 -0.89 9.79 -0.01 0.04 -0.06 53
0.16 0.07 0.30 -0.86 9.82 -0.01 0.04 -0.06 60
0.16 0.07 0.30 -0.89 9.81 -0.01 0.04 -0.07 67
0.16 0.06 0.33 -0.90 9.82 -0.01 0.04 -0.07 74
0.16 0.08 0.30 -0.93 9.82 -0.01 0.04 -0.06 81
0.17 0.07 0.30 -0.90 9.79 -0.01 0.04 -0.06 89
0.16 0.07 0.30 -0.91 9.82 -0.01 0.04 -0.06 96
0.17 0.07 0.30 -0.90 9.82 -0.01 0.04 -0.06 103
0.17 0.08 0.33 -0.91 9.82 -0.01 0.04 -0.06 110
0.16 0.09 0.27 -0.89 9.81 -0.01 0.04 -0.06 117
0.15 0.11 0.30 -0.89 9.81 -0.01 0.04 -0.06 124
0.17 0.09 0.30 -0.89 9.80 -0.01 0.04 -0.06 132
0.16 0.10 0.30 -0.88 9.81 -0.01 0.04 -0.06 139
0.16 0.09 0.31 -0.88 9.80 -0.01 0.04 -0.07 146
0.15 0.09 0.27 -0.88 9.81 -0.01 0.04 -0.06 153
0.15 0.09 0.30 -0.90 9.81 -0.01 0.05 -0.06 160
0.16 0.09 0.29 -0.91 9.82 -0.01 0.04 -0.06 167
0.16 0.09 0.29 -0.90 9.83 -0.01 0.04 -0.07 175
0.15 0.08 0.30 -0.88 9.80 -0.01 0.05 -0.06 182
0.15 0.07 0.30 -0.90 9.82 -0.01 0.05 -0.06 189
0.13 0.10 0.31 -0.88 9.75 -0.01 0.04 -0.06 196
0.13 0.10 0.32 -0.91 9.82 -0.01 0.05 -0.06 203
0.14 0.12 0.30 -0.90 9.82 -0.01 0.04 -0.06 210
0.13 0.10 0.31 -0.89 9.79 -0.01 0.04 -0.06 218
0.14 0.13 0.29 -0.88 9.82 -0.01 0.04 -0.06 225
0.12 0.12 0.30 -0.86 9.81 -0.01 0.05 -0.06 232
0.12 0.14 0.32 -0.89 9.81 -0.01 0.05 -0.06 239
0.12 0.15 0.29 -0.91 9.81 -0.01 0.05 -0.06 246
0.12 0.16 0.28 -0.86 9.83 -0.01 0.04 -0.06 253
0.12 0.16 0.28 -0.89 9.81 -0.01 0.05 -0.06 261
0.11 0.14 0.29 -0.91 9.81 -0.02 0.05 -0.06 268
0.10 0.16 0.30 -0.90 9.82 -0.01 0.04 -0.06 275
0.11 0.16 0.33 -0.88 9.82 -0.01 0.04 -0.06 282
0.11 0.16 0.29 -0.89 9.77 -0.02 0.05 -0.06 289
0.12 0.27 0.34 -0.88 9.21 -0.01 0.04 -0.06 296
0.11 0.20 0.29 -0.89 9.80 -0.01 0.05 -0.06 304
0.11 0.17 0.26 -0.88 9.81 -0.02 0.05 -0.06 311
0.11 0.13 0.28 -0.87 9.81 -0.01 0.05 -0.06 318
0.12 0.12 0.26 -0.88 9.78 -0.01 0.04 -0.06 325
0.13 0.18 0.28 -0.91 9.78 -0.02 0.04 -0.06 332
0.14 0.18 0.32 -0.90 9.80 -0.02 0.05 -0.06 339
0.13 0.16 0.28 -0.91 9.77 -0.02 0.05 -0.06 347
0.11 0.17 0.24 -0.88 9.81 -0.02 0.05 -0.05 354
0.10 0.17 0.29 -0.88 9.82 -0.02 0.05 -0.05 361
0.11 0.16 0.27 -0.88 9.80 -0.02 0.05 -0.05 368
0.10 0.22 0.27 -0.83 9.81 -0.03 0.05 -0.05 375
0.09 0.31 0.33 -0.83 9.82 -0.02 0.06 -0.05 382
0.08 0.26 0.30 -0.86 9.20 -0.03 0.06 -0.05 390
0.08 0.24 0.33 -0.85 9.81 -0.02 0.06 -0.05 397
0.07 0.27 0.31 -0.84 9.82 -0.02 0.06 -0.05 404
0.08 0.33 0.28 -0.88 9.80 -0.02 0.06 -0.05 411
0.08 0.31 0.30 -0.85 9.81 -0.02 0.06 -0.05 418
0.07 0.34 0.29 -0.82 10.42 -0.02 0.06 -0.05 425
0.06 0.35 0.33 -0.85 9.82 -0.02 0.06 -0.05 433
0.05 0.33 0.32 -0.86 9.78 -0.02 0.06 -0.05 440
0.06 0.35 0.33 -0.85 9.80 -0.02 0.06 -0.05 447
0.06 0.36 0.41 -0.91 9.80 -0.02 0.06 -0.05 454
0.08 0.33 0.33 -0.84 9.82 -0.02 0.06 -0.05 461
0.07 0.34 0.32 -0.85 9.82 -0.02 0.06 -0.05 468
0.06 0.35 0.31 -0.86 9.79 -0.02 0.05 -0.05 476
0.06 0.38 0.32 -0.85 9.81 -0.02 0.06 -0.05 483
0.07 0.34 0.34 -0.86 9.84 -0.01 0.06 -0.05 490
0.08 0.36 0.31 -0.82 9.82 -0.01 0.05 -0.05 497
0.09 0.37 0.33 -0.82 9.81 -0.01 0.05 -0.05 504
0.08 0.41 0.31 -0.85 9.80 -0.01 0.05 -0.05 512
0.07 0.35 0.34 -0.80 9.82 -0.01 0.05 -0.05 519
0.06 0.38 0.31 -0.84 9.79 -0.01 0.05 -0.05 526
0.08 0.38 0.34 -0.83 9.81 -0.01 0.05 -0.05 533
0.07 0.44 0.30 -0.84 9.80 -0.01 0.05 -0.05 540
0.09 0.45 0.28 -0.85 9.80 -0.01 0.05 -0.05 547
0.09 0.43 0.32 -0.83 9.82 -0.01 0.04 -0.05 555
0.08 0.44 0.29 -0.84 9.81 -0.01 0.04 -0.05 562
0.07 0.45 0.34 -0.85 9.82 -0.00 0.04 -0.05 569
0.07 0.42 0.35 -0.83 9.80 -0.00 0.04 -0.05 576
0.08 0.42 0.33 -0.86 9.82 -0.00 0.04 -0.05 583
0.08 0.43 0.35 -0.80 9.80 -0.00 0.04 -0.05 590
0.08 0.43 0.35 -0.82 9.77 -0.00 0.04 -0.06 598
0.08 0.41 0.30 -0.83 9.82 -0.01 0.03 -0.05 605
0.07 0.43 0.31 -0.82 9.80 -0.01 0.04 -0.06 612
0.08 0.43 0.29 -0.85 9.78 -0.00 0.04 -0.05 619
0.09 0.44 0.33 -0.83 9.81 -0.00 0.04 -0.05 626
0.09 0.43 0.31 -0.84 9.80 -0.00 0.04 -0.06 633
0.09 0.43 0.31 -0.85 9.80 -0.00 0.04 -0.05 641
0.08 0.41 0.29 -0.86 9.80 -0.00 0.04 -0.05 648
0.08 0.42 0.31 -0.85 9.81 -0.00 0.04 -0.05 655
0.09 0.43 0.31 -0.82 9.80 -0.00 0.04 -0.06 662
0.10 0.43 0.30 -0.84 9.80 -0.00 0.04 -0.06 669
0.10 0.42 0.31 -0.86 9.82 -0.00 0.04 -0.06 676
0.10 0.41 0.30 -0.84 10.41 -0.00 0.03 -0.06 684
0.10 0.40 0.34 -0.84 9.81 0.00 0.03 -0.06 691
0.10 0.40 0.30 -0.86 9.81 -0.00 0.03 -0.06 698
0.11 0.40 0.33 -0.84 9.78 0.00 0.03 -0.06 705
0.13 0.37 0.32 -0.83 9.82 0.00 0.03 -0.06 712
0.11 0.38 0.32 -0.84 9.81 -0.00 0.03 -0.06 719
0.13 0.36 0.34 -0.83 9.79 0.00 0.02 -0.06 727
0.12 0.35 0.35 -0.88 9.80 0.00 0.02 -0.06 734
0.13 0.36 0.30 -0.84 9.81 0.00 0.02 -0.06 741
0.14 0.35 0.29 -0.85 9.81 0.00 0.02 -0.06 748
0.17 0.32 0.31 -0.85 9.81 0.00 0.02 -0.06 755
0.17 0.31 0.29 -0.84 9.81 0.00 0.02 -0.06 762
0.18 0.28 0.32 -0.86 9.79 0.01 0.02 -0.06 770
0.17 0.31 0.31 -0.83 9.81 0.00 0.03 -0.06 777
0.20 0.28 0.29 -0.86 9.80 0.01 0.03 -0.06 784
0.22 0.23 0.29 -0.89 9.80 0.01 0.03 -0.06 791
0.23 0.19 0.29 -0.86 9.81 0.01 0.03 -0.06 798
0.23 0.21 0.32 -0.85 9.81 0.01 0.03 -0.06 805
0.22 0.16 0.30 -0.85 9.81 0.01 0.03 -0.06 813
0.22 0.15 0.26 -0.87 9.82 0.01 0.03 -0.07 820
0.24 0.13 0.29 -0.87 9.81 0.01 0.03 -0.06 827
0.26 0.08 0.29 -0.85 9.79 0.01 0.03 -0.06 834
0.27 0.06 0.29 -0.87 9.82 0.01 0.04 -0.07 841
0.28 0.06 0.28 -0.84 9.82 0.01 0.03 -0.07 848
0.28 0.07 0.27 -0.89 9.79 0.01 0.04 -0.06 856
0.29 0.03 0.28 -0.86 9.77 0.01 0.04 -0.07 863
0.30 0.05 0.30 -0.87 9.82 0.01 0.04 -0.06 870
0.32 0.03 0.28 -0.88 9.81 0.01 0.04 -0.06 877
0.30 0.01 0.27 -0.87 9.78 0.01 0.04 -0.06 884
0.31 0.02 0.30 -0.84 9.81 0.01 0.04 -0.06 891
0.31 0.02 0.30 -0.90 9.78 0.01 0.04 -0.06 899
0.32 0.00 0.29 -0.89 10.42 0.01 0.04 -0.06 906
0.33 0.02 0.31 -0.89 9.80 0.01 0.04 -0.06 913
0.34 0.00 0.29 -0.88 9.79 0.01 0.05 -0.06 920
0.33 0.00 0.30 -0.91 9.79 0.01 0.05 -0.06 927
0.35 -0.01 0.33 -0.91 9.82 0.01 0.05 -0.06 934
0.37 -0.01 0.31 -0.92 9.81 0.01 0.05 -0.06 942
0.38 -0.00 0.32 -0.87 9.80 0.01 0.05 -0.06 949
0.38 0.00 0.29 -0.89 9.82 0.01 0.05 -0.06 956
0.39 -0.01 0.29 -0.91 9.82 0.01 0.05 -0.06 963
0.38 -0.00 0.29 -0.92 9.81 0.01 0.05 -0.06 970
0.39 -0.02 0.30 -0.91 9.80 0.01 0.05 -0.06 977
0.38 -0.01 0.33 -0.87 9.80 0.01 0.05 -0.06 985
0.39 -0.02 0.27 -0.90 9.81 0.01 0.05 -0.06 992
0.41 -0.02 0.30 -0.91 9.82 0.01 0.05 -0.06 999
0.41 -0.02 0.31 -0.89 9.83 0.02 0.06 -0.06 1006
0.40 -0.02 0.30 -0.91 9.83 0.02 0.06 -0.06 1013
0.41 -0.02 0.30 -0.93 9.82 0.02 0.06 -0.06 1020
0.41 -0.01 0.29 -0.92 9.83 0.02 0.06 -0.06 1028
0.43 -0.01 0.33 -0.90 9.82 0.03 0.06 -0.06 1035
0.45 -0.01 0.32 -0.95 9.84 0.04 0.06 -0.06 1042
0.44 -0.02 0.30 -0.97 9.83 0.04 0.06 -0.06 1049
0.43 -0.02 0.34 -0.91 9.83 0.05 0.07 -0.06 1056
0.43 -0.02 0.33 -0.97 9.83 0.06 0.07 -0.06 1063
0.42 -0.02 0.35 -0.94 9.85 0.07 0.07 -0.06 1071
0.43 -0.02 0.31 -0.96 9.91 0.08 0.08 -0.06 1078
0.45 -0.03 0.33 -0.93 9.88 0.09 0.09 -0.06 1085
0.43 -0.02 0.38 -0.93 9.92 0.11 0.10 -0.05 1092
0.43 -0.03 0.32 -1.02 9.90 0.12 0.11 -0.05 1099
0.42 -0.03 -0.06 -0.77 9.98 0.15 0.14 -0.06 1106
0.41 -0.03 0.10 -0.85 10.80 0.29 0.14 -0.04 1114
0.41 -0.02 0.51 -1.09 10.27 0.51 0.20 -0.06 1121
0.41 -0.02 0.36 -1.03 10.25 0.60 0.17 -0.06 1128
0.39 -0.02 0.28 -1.15 10.52 0.60 0.16 -0.07 1135
0.35 -0.03 0.45 -1.21 10.60 0.57 0.14 -0.08 1142
0.31 -0.02 0.45 -1.26 10.01 0.56 0.12 -0.09 1149
0.29 -0.02 0.48 -1.29 10.46 0.56 0.09 -0.10 1157
0.27 -0.01 0.51 -1.29 10.19 0.56 0.07 -0.10 1164
0.26 -0.02 0.52 -1.47 9.99 0.58 0.03 -0.10 1171
0.21 -0.02 0.39 -1.41 9.91 0.59 -0.00 -0.11 1178
0.19 -0.02 0.45 -1.48 10.34 0.62 -0.03 -0.11 1185
0.15 -0.02 0.33 -1.59 10.51 0.64 -0.05 -0.12 1192
0.15 -0.00 0.41 -1.58 10.36 0.70 -0.07 -0.13 1201
0.14 -0.01 0.46 -1.60 10.41 0.74 -0.10 -0.13 1207
0.15 -0.01 0.51 -1.78 10.41 0.78 -0.11 -0.14 1214
0.13 -0.01 0.48 -1.73 10.35 0.84 -0.15 -0.15 1221
0.13 -0.01 0.71 -2.25 10.67 0.89 -0.17 -0.16 1228
0.11 -0.01 0.20 -1.51 10.00 0.92 -0.25 -0.17 1235
0.10 0.01 0.56 -1.98 10.64 0.95 -0.16 -0.18 1243
0.10 -0.01 0.60 -2.00 10.32 0.97 -0.18 -0.20 1250
0.06 -0.01 0.99 -2.26 10.39 0.98 -0.19 -0.21 1257
0.06 -0.01 1.26 -2.24 10.57 0.98 -0.15 -0.25 1264
0.04 -0.00 1.32 -3.06 10.89 0.98 -0.12 -0.33 1271
0.03 -0.00 1.26 -2.53 11.29 0.96 -0.10 -0.35 1278
0.02 -0.00 1.05 -2.59 11.64 0.93 -0.14 -0.39 1286
0.02 -0.00 0.57 -1.75 11.87 0.89 -0.22 -0.40 1293
0.01 -0.00 0.42 0.17 11.58 0.83 -0.38 -0.40 1300
0.00 0.00 0.46 1.10 10.79 0.67 -0.57 -0.38 1307
0.00 0.00 0.84 2.16 10.31 0.44 -0.77 -0.33 1314
0.00 0.00 1.59 2.90 9.63 0.25 -0.86 -0.26 1321
0.00 0.00 2.13 2.02 8.89 0.14 -0.88 -0.19 1329
0.00 0.00 2.98 1.90 9.60 0.05 -0.74 -0.08 1336
0.00 0.00 3.22 2.48 9.71 -0.10 -0.53 -0.02 1343
0.00 0.00 2.82 2.55 9.12 -0.24 -0.29 -0.00 1350
0.00 0.00 2.47 2.10 8.35 -0.31 -0.15 0.01 1357
0.00 0.00 2.09 1.93 7.38 -0.34 -0.09 0.01 1364
0.00 0.00 1.93 1.67 7.75 -0.35 -0.07 0.00 1372
0.00 0.00 1.86 1.53 7.64 -0.35 -0.06 -0.01 1379
0.00 0.00 1.89 1.45 7.66 -0.34 -0.06 -0.04 1386
0.00 0.00 1.95 1.35 7.74 -0.34 -0.06 -0.06 1393
0.00 0.00 2.01 1.34 7.79 -0.35 -0.03 -0.07 1400
0.00 0.00 2.09 1.29 7.85 -0.35 0.03 -0.06 1408
0.00 0.00 2.11 1.21 8.10 -0.36 0.13 -0.03 1415
0.00 0.00 2.06 1.20 8.47 -0.38 0.19 0.00 1422
0.00 0.00 2.01 1.09 8.85 -0.42 0.28 0.06 1429
0.00 0.00 1.92 0.96 9.22 -0.47 0.35 0.10 1436
0.00 0.00 1.67 0.71 9.43 -0.54 0.41 0.15 1443
0.00 0.00 1.64 0.35 9.69 -0.59 0.42 0.19 1451
0.00 0.00 1.62 0.20 9.93 -0.66 0.42 0.21 1458
0.00 0.00 1.65 -0.13 10.01 -0.76 0.41 0.22 1465
0.00 0.00 1.71 -0.44 10.10 -0.80 0.40 0.21 1472
0.00 0.00 1.71 -0.83 10.15 -0.85 0.38 0.18 1479
0.00 0.00 1.76 -1.21 10.00 -0.88 0.37 0.15 1486
0.00 0.00 1.85 -1.47 9.96 -0.90 0.37 0.11 1494
0.00 -0.00 1.78 -1.76 9.87 -0.90 0.36 0.07 1501
0.00 0.00 1.79 -2.11 9.83 -0.88 0.35 0.03 1508
0.00 0.00 1.83 -2.34 9.97 -0.85 0.34 0.00 1515
0.00 0.00 1.76 -2.55 10.02 -0.81 0.33 -0.01 1522
0.00 0.00 1.70 -2.62 10.06 -0.78 0.32 -0.02 1529
0.00 0.00 1.59 -2.93 9.99 -0.75 0.31 -0.02 1537
0.00 -0.00 1.47 -3.11 10.15 -0.72 0.31 -0.01 1544
0.00 0.00 1.57 -3.38 10.13 -0.68 0.34 0.01 1551
0.00 0.00 1.21 -3.33 10.33 -0.67 0.38 0.04 1558
0.00 0.00 1.22 -3.54 10.51 -0.65 0.44 0.07 1565
0.00 0.00 1.04 -3.65 10.61 -0.65 0.51 0.11 1572
0.00 -0.00 0.84 -3.87 10.65 -0.65 0.57 0.16 1580
0.00 0.00 0.67 -4.13 10.56 -0.64 0.58 0.20 1587
0.00 0.00 0.57 -4.43 10.37 -0.60 0.57 0.24 1594
0.00 0.00 0.40 -4.59 10.10 -0.61 0.56 0.29 1601
0.00 0.00 0.25 -4.77 9.83 -0.55 0.53 0.33 1608
0.00 0.00 0.03 -4.81 9.67 -0.48 0.52 0.37 1615
0.00 -0.00 -0.19 -4.72 9.63 -0.40 0.53 0.42 1623
0.00 -0.00 -0.60 -4.48 9.66 -0.34 0.55 0.49 1630
0.00 0.00 -1.04 -4.16 9.75 -0.31 0.57 0.55 1637
0.00 0.00 -1.59 -3.98 9.86 -0.29 0.56 0.59 1644
0.00 0.00 -2.03 -3.78 9.90 -0.28 0.51 0.62 1651
0.00 0.00 -11.32 -10.63 17.86 -0.21 0.28 0.64 1658
0.00 -0.00 -0.70 -3.37 9.43 -0.03 -0.27 0.67 1666
0.00 0.00 -4.21 -4.70 8.05 -0.02 -0.46 0.61 1673
0.00 0.00 -4.15 -5.42 9.88 0.02 -0.56 0.60 1680
0.00 0.00 -3.31 -3.97 9.38 0.04 -0.59 0.50 1687
0.00 0.00 -3.04 -4.82 9.73 0.09 -0.52 0.42 1694
0.00 0.00 -4.77 -3.75 12.59 0.22 -0.37 0.44 1701
0.00 0.00 -4.19 -4.29 10.11 0.24 -0.14 0.43 1709
0.00 0.00 -4.26 -5.23 9.43 0.30 -0.17 0.43 1716
0.00 0.00 -4.12 -5.47 8.78 0.37 -0.25 0.47 1723
0.00 0.00 -3.74 -5.79 8.69 0.46 -0.33 0.53 1730
0.00 0.00 -3.41 -5.75 8.59 0.58 -0.39 0.59 1737
0.00 0.00 -3.16 -4.38 8.93 0.69 -0.41 0.62 1744
0.00 0.00 -8.08 -3.27 18.39 0.43 -0.14 0.49 1752
0.00 0.00 -1.58 -2.92 9.82 0.02 -0.08 -0.03 1759
0.00 0.00 -0.07 -1.85 9.74 -0.03 0.10 -0.04 1766
0.00 0.00 0.11 -0.80 9.96 -0.07 0.09 -0.08 1773
0.00 0.00 0.77 -1.02 9.70 -0.04 0.05 -0.05 1780
0.00 0.00 0.62 -1.03 9.74 -0.04 0.03 -0.03 1787
0.00 0.00 0.43 -1.12 9.81 -0.04 0.03 -0.02 1795
0.00 0.00 0.37 -1.07 9.75 -0.07 0.04 -0.02 1802
0.00 0.00 0.31 -0.95 9.83 -0.08 0.04 -0.03 1809
-0.00 0.00 0.43 -0.98 9.83 -0.09 0.03 -0.03 1816
-0.00 0.00 0.44 -1.02 9.82 -0.08 0.03 -0.04 1823
-0.00 0.02 0.48 -1.03 9.83 -0.07 0.02 -0.04 1830
-0.00 0.02 0.42 -1.05 9.90 -0.06 0.03 -0.05 1838
-0.00 0.00 0.43 -1.00 9.87 -0.05 0.02 -0.05 1845
-0.00 0.00 0.40 -0.98 9.84 -0.05 0.03 -0.06 1852
-0.00 0.01 0.39 -0.97 9.82 -0.04 0.02 -0.06 1859
-0.00 0.02 0.40 -0.97 9.81 -0.04 0.02 -0.07 1866
0.00 0.01 0.39 -0.97 9.80 -0.04 0.02 -0.07 1873
0.00 0.01 0.40 -0.97 9.81 -0.03 0.02 -0.07 1881
-0.00 0.02 0.36 -0.99 9.79 -0.04 0.02 -0.07 1888
0.01 0.03 0.33 -0.99 9.81 -0.04 0.02 -0.07 1895
0.05 0.01 0.33 -0.94 10.39 -0.04 0.03 -0.07 1902
0.03 0.02 0.35 -0.94 9.82 -0.04 0.03 -0.07 1909
0.04 0.02 0.37 -0.97 9.81 -0.04 0.03 -0.07 1916
0.03 0.01 0.32 -0.98 9.81 -0.04 0.03 -0.06 1924
0.03 0.02 0.35 -0.96 9.81 -0.04 0.03 -0.06 1931
0.04 0.03 0.34 -0.94 9.79 -0.05 0.03 -0.06 1938
0.07 0.03 0.37 -0.94 9.81 -0.05 0.03 -0.06 1945
0.05 0.05 0.36 -0.93 9.81 -0.05 0.03 -0.06 1952
0.05 0.03 0.40 -0.94 9.83 -0.06 0.03 -0.06 1959
0.06 0.05 0.35 -0.94 9.81 -0.06 0.03 -0.07 1967
0.06 0.04 0.36 -0.96 9.79 -0.06 0.03 -0.06 1974
0.06 0.05 0.40 -0.97 9.81 -0.06 0.03 -0.07 1981
0.06 0.04 0.37 -0.92 9.82 -0.06 0.03 -0.06 1988
0.08 0.09 0.35 -0.93 10.42 -0.06 0.03 -0.07 1995
0.06 0.13 0.37 -0.89 9.75 -0.06 0.03 -0.07 2002
0.07 0.09 0.34 -0.89 9.77 -0.06 0.03 -0.07 2010
0.07 0.13 0.37 -0.89 9.82 -0.05 0.03 -0.06 2017
0.07 0.12 0.31 -0.91 9.77 -0.06 0.04 -0.07 2024
0.08 0.14 0.39 -0.92 10.41 -0.05 0.04 -0.06 2031
0.07 0.20 0.35 -0.88 9.81 -0.06 0.04 -0.06 2038
0.08 0.19 0.39 -0.94 9.76 -0.06 0.04 -0.06 2045
0.08 0.19 0.37 -0.91 9.79 -0.05 0.03 -0.06 2053
0.08 0.24 0.39 -0.89 9.81 -0.05 0.03 -0.06 2060
0.09 0.24 0.39 -0.86 9.81 -0.06 0.03 -0.06 2067
0.09 0.33 0.34 -0.90 9.81 -0.06 0.03 -0.06 2074
0.11 0.30 0.35 -0.85 9.83 -0.05 0.03 -0.06 2081
0.10 0.36 0.36 -0.83 9.81 -0.05 0.03 -0.07 2088
0.10 0.32 0.38 -0.86 9.83 -0.04 0.03 -0.07 2096
0.08 0.36 0.36 -0.87 9.84 -0.04 0.03 -0.06 2103
0.09 0.36 0.38 -0.85 9.83 -0.03 0.03 -0.06 2110
0.09 0.42 0.33 -0.84 9.82 -0.02 0.03 -0.07 2117
0.10 0.43 0.35 -0.80 9.81 -0.02 0.03 -0.07 2124
0.10 0.43 0.33 -0.83 9.82 -0.01 0.04 -0.07 2131
0.09 0.41 0.33 -0.79 9.81 -0.01 0.04 -0.07 2139
0.08 0.39 0.35 -0.85 9.81 -0.01 0.04 -0.07 2146
0.09 0.39 0.32 -0.83 9.82 0.00 0.04 -0.07 2153
0.10 0.38 0.34 -0.85 9.20 0.00 0.04 -0.07 2160
0.11 0.38 0.33 -0.82 9.82 0.01 0.04 -0.07 2167
0.13 0.35 0.34 -0.87 9.82 0.01 0.04 -0.07 2174
0.13 0.34 0.38 -0.86 9.82 0.01 0.04 -0.07 2182
0.12 0.36 0.35 -0.84 9.81 0.01 0.04 -0.07 2189
0.14 0.33 0.37 -0.84 9.81 0.02 0.04 -0.07 2196
0.16 0.32 0.36 -0.86 9.81 0.02 0.04 -0.07 2203
0.16 0.29 0.34 -0.87 9.81 0.02 0.04 -0.08 2210
0.15 0.29 0.35 -0.85 9.80 0.02 0.04 -0.07 2217
0.17 0.25 0.31 -0.86 9.80 0.02 0.04 -0.07 2225
0.17 0.24 0.32 -0.85 9.77 0.01 0.04 -0.07 2232
0.20 0.25 0.37 -0.86 9.81 0.02 0.04 -0.07 2239
0.22 0.24 0.32 -0.88 9.79 0.02 0.04 -0.07 2246
0.23 0.22 0.34 -0.86 10.41 0.02 0.04 -0.07 2253
0.22 0.15 0.32 -0.86 9.80 0.02 0.04 -0.07 2260
0.22 0.15 0.33 -0.87 9.77 0.02 0.04 -0.07 2268
0.24 0.14 0.36 -0.83 9.78 0.01 0.04 -0.08 2275
0.25 0.12 0.32 -0.87 9.79 0.01 0.04 -0.07 2282
0.28 0.11 0.34 -0.89 9.81 0.01 0.04 -0.07 2289
0.28 0.09 0.36 -0.91 9.80 0.02 0.04 -0.07 2296
0.28 0.07 0.32 -0.87 9.81 0.01 0.04 -0.08 2304
0.25 0.04 0.35 -0.90 9.82 0.01 0.04 -0.07 2311
0.25 0.02 0.36 -0.90 9.82 0.01 0.05 -0.07 2318
0.28 0.02 0.34 -0.86 9.79 0.01 0.04 -0.07 2325
0.30 0.02 0.33 -0.87 9.82 0.01 0.04 -0.07 2332
0.29 0.00 0.33 -0.91 9.81 0.01 0.04 -0.07 2339
0.31 -0.01 0.34 -0.89 9.81 0.01 0.04 -0.07 2347
0.30 -0.00 0.34 -0.88 9.82 0.01 0.05 -0.07 2354
0.32 -0.00 0.34 -0.94 9.82 0.01 0.05 -0.07 2361
0.35 -0.01 0.34 -0.88 9.81 0.01 0.05 -0.08 2368
0.36 -0.01 0.33 -0.91 9.81 0.01 0.05 -0.07 2375
0.36 -0.01 0.33 -0.91 9.20 0.01 0.05 -0.08 2382
0.37 -0.03 0.35 -0.86 9.82 0.01 0.05 -0.08 2390
0.36 -0.02 0.37 -0.87 9.83 0.02 0.05 -0.08 2397
0.38 -0.00 0.31 -0.90 9.81 0.02 0.05 -0.07 2404
0.42 -0.02 0.36 -0.93 9.83 0.02 0.05 -0.07 2411
0.43 -0.01 0.36 -0.88 9.83 0.03 0.05 -0.07 2418
0.43 -0.02 0.36 -0.91 9.82 0.03 0.05 -0.07 2425
0.44 -0.01 0.32 -0.90 9.81 0.03 0.05 -0.07 2433
0.43 -0.01 0.35 -0.93 9.83 0.03 0.05 -0.07 2440
0.47 -0.01 0.40 -0.92 9.80 0.04 0.05 -0.07 2447
0.50 -0.01 0.34 -0.94 9.81 0.05 0.05 -0.07 2454
0.49 -0.03 0.36 -0.94 9.82 0.04 0.06 -0.08 2461
0.50 -0.02 0.36 -0.96 9.81 0.05 0.06 -0.08 2468
0.50 -0.02 0.35 -0.92 9.81 0.05 0.06 -0.08 2476
0.52 -0.02 0.37 -0.98 9.82 0.05 0.06 -0.08 2483
0.54 -0.02 0.37 -0.95 9.79 0.06 0.07 -0.08 2490
0.57 -0.03 0.36 -0.97 9.85 0.07 0.08 -0.09 2497
0.57 -0.03 0.51 -0.97 9.84 0.08 0.09 -0.09 2504
0.57 -0.04 0.41 -0.94 9.88 0.10 0.10 -0.10 2511
0.58 -0.03 0.58 -1.05 10.03 0.14 0.11 -0.11 2519
0.60 -0.03 0.57 -0.99 10.03 0.19 0.13 -0.15 2526
0.62 -0.03 0.38 -0.91 10.25 0.33 0.19 -0.13 2534
0.65 -0.04 0.65 -1.05 10.80 0.76 0.25 -0.12 2540
0.64 -0.03 0.61 -1.30 11.72 1.04 0.27 -0.14 2548
0.63 -0.04 0.42 -1.18 11.32 1.00 0.18 -0.16 2555
0.59 -0.03 0.38 -1.29 11.63 1.02 0.13 -0.15 2563
0.55 -0.03 0.41 -1.35 10.98 1.08 0.09 -0.15 2570
0.53 -0.02 0.40 -1.37 10.55 1.11 0.05 -0.14 2577
0.51 -0.03 0.44 -1.50 10.45 1.11 0.03 -0.13 2584
0.46 -0.02 0.37 -1.58 10.41 1.13 0.00 -0.12 2591
0.41 -0.03 0.40 -1.76 10.22 1.14 -0.06 -0.12 2598
0.36 -0.02 0.44 -1.80 10.51 1.14 -0.04 -0.12 2606
0.35 -0.01 0.43 -1.94 10.48 1.19 -0.05 -0.13 2613
0.31 -0.02 0.47 -2.04 10.32 1.25 -0.08 -0.12 2620
0.23 -0.02 0.47 -2.09 10.55 1.27 -0.08 -0.13 2627
0.19 -0.01 0.36 -2.22 10.22 1.27 -0.09 -0.12 2634
0.19 -0.02 0.59 -2.34 10.32 1.27 -0.10 -0.12 2640
0.15 -0.01 0.64 -2.52 10.18 1.20 -0.26 -0.12 2649
0.10 -0.01 1.14 -2.79 10.72 1.21 -0.09 -0.14 2656
0.10 -0.01 0.55 -2.66 10.93 1.26 -0.11 -0.18 2662
0.05 -0.01 0.74 -2.80 10.94 1.27 -0.09 -0.18 2669
0.07 -0.01 1.10 -3.09 11.59 1.27 -0.06 -0.20 2676
0.07 -0.01 1.65 -3.07 11.33 1.28 -0.02 -0.25 2683
0.06 -0.01 1.94 -3.28 11.59 1.30 0.02 -0.31 2691
0.03 0.00 1.73 -2.34 12.35 1.28 0.03 -0.36 2698
0.03 -0.00 0.83 -0.35 11.67 1.21 0.01 -0.39 2705
0.01 -0.00 1.03 3.28 10.86 1.04 -0.01 -0.42 2712
0.00 -0.00 0.50 4.11 10.06 0.72 -0.13 -0.47 2719
0.00 -0.00 0.35 4.50 9.67 0.40 -0.25 -0.50 2726
0.01 -0.00 0.41 5.23 9.53 0.10 -0.34 -0.55 2734
0.03 -0.00 0.44 5.50 9.05 -0.10 -0.40 -0.66 2741
0.01 -0.00 0.80 4.04 7.76 -0.16 -0.41 -0.83 2748
0.00 -0.00 1.19 3.80 9.13 -0.26 -0.32 -0.90 2755
0.00 0.00 1.30 3.85 9.07 -0.46 -0.21 -1.01 2762
0.00 0.00 1.24 3.22 8.68 -0.60 -0.13 -1.09 2769
0.00 0.00 1.04 2.21 8.41 -0.67 -0.12 -1.15 2777
0.01 -0.00 1.03 1.57 8.43 -0.64 -0.13 -1.18 2784
0.01 -0.00 1.09 1.15 8.29 -0.61 -0.16 -1.19 2791
0.00 -0.00 1.27 0.83 8.21 -0.58 -0.21 -1.19 2798
0.00 0.00 1.48 0.63 8.44 -0.55 -0.23 -1.18 2805
0.00 0.00 1.84 0.50 8.84 -0.54 -0.24 -1.15 2812
0.00 0.00 2.11 0.40 9.18 -0.56 -0.21 -1.11 2820
0.00 0.00 2.30 0.22 9.31 -0.58 -0.16 -1.07 2827
0.00 0.00 2.44 0.00 9.41 -0.62 -0.07 -1.01 2834
0.00 0.00 2.48 -0.25 9.30 -0.65 0.01 -0.95 2841
0.00 0.00 2.46 -0.51 9.33 -0.68 0.09 -0.88 2848
0.00 -0.00 2.45 -0.82 9.27 -0.68 0.15 -0.82 2855
0.01 -0.00 2.37 -0.97 9.34 -0.68 0.20 -0.77 2863
0.02 -0.00 2.34 -1.22 9.44 -0.68 0.24 -0.71 2870
0.01 -0.00 2.27 -1.28 9.47 -0.69 0.28 -0.65 2877
0.00 0.00 2.16 -1.35 9.55 -0.69 0.31 -0.58 2884
0.00 0.00 2.00 -1.52 9.56 -0.68 0.34 -0.50 2891
0.00 0.00 1.84 -1.66 9.70 -0.66 0.36 -0.43 2898
0.00 0.00 1.65 -1.82 9.79 -0.65 0.37 -0.34 2906
0.01 -0.00 1.52 -1.88 10.00 -0.65 0.37 -0.25 2913
0.00 -0.00 1.42 -1.98 10.16 -0.66 0.35 -0.17 2920
0.00 0.00 1.41 -2.11 10.22 -0.68 0.33 -0.08 2927
0.00 0.00 1.38 -2.32 10.19 -0.71 0.29 -0.02 2934
0.00 0.00 1.51 -2.51 10.11 -0.73 0.25 0.05 2941
0.01 -0.00 1.70 -2.63 10.05 -0.74 0.23 0.11 2949
0.01 -0.00 1.80 -2.65 9.85 -0.72 0.24 0.17 2956
0.01 -0.00 1.83 -2.64 9.82 -0.70 0.29 0.24 2963
0.00 0.00 1.74 -2.73 9.84 -0.67 0.34 0.29 2970
0.00 0.00 1.64 -2.81 9.85 -0.62 0.37 0.36 2977
0.00 0.00 1.46 -2.93 9.97 -0.59 0.38 0.41 2984
0.01 -0.00 1.33 -2.91 9.91 -0.54 0.38 0.45 2992
0.00 -0.00 1.19 -2.83 9.84 -0.50 0.37 0.50 2999
0.00 0.00 1.02 -2.91 9.88 -0.45 0.39 0.55 3006
0.00 0.00 0.77 -3.08 9.78 -0.39 0.41 0.61 3013
0.00 0.00 0.56 -3.15 9.80 -0.34 0.40 0.66 3020
0.00 0.00 0.45 -3.27 9.88 -0.27 0.38 0.71 3027
0.01 -0.00 0.24 -3.19 9.92 -0.23 0.35 0.75 3035
0.00 0.00 0.28 -3.23 10.34 -0.20 0.36 0.79 3042
0.00 0.00 0.22 -3.16 10.44 -0.21 0.38 0.82 3049
0.00 0.00 0.01 -3.06 10.54 -0.25 0.41 0.85 3056
0.00 0.00 -0.21 -3.10 10.57 -0.32 0.45 0.86 3063
0.00 0.00 -0.45 -3.14 10.62 -0.40 0.45 0.88 3070
0.00 -0.00 -0.75 -3.18 10.56 -0.43 0.46 0.90 3078
0.00 0.00 -1.04 -3.26 10.27 -0.49 0.45 0.91 3085
0.00 0.00 -1.30 -3.51 10.03 -0.52 0.41 0.92 3092
0.00 0.00 -1.37 -3.75 9.80 -0.52 0.36 0.92 3099
0.00 0.00 -1.29 -3.96 9.52 -0.50 0.31 0.91 3106
0.00 0.00 -1.14 -4.02 9.31 -0.46 0.28 0.88 3113
0.00 0.00 -1.05 -4.03 9.25 -0.41 0.26 0.84 3121
0.00 0.00 -0.94 -4.09 9.27 -0.37 0.27 0.79 3128
0.00 0.00 -0.91 -4.09 9.30 -0.34 0.27 0.70 3135
0.00 0.00 -0.87 -4.13 9.40 -0.31 0.28 0.67 3142
0.00 0.00 -0.92 -4.10 9.23 -0.28 0.28 0.60 3149
0.00 0.00 -1.04 -4.04 9.22 -0.25 0.32 0.55 3156
0.00 0.00 -1.09 -3.91 9.41 -0.20 0.36 0.50 3164
0.00 0.00 -1.24 -3.82 9.61 -0.23 0.40 0.46 3171
0.00 0.00 -1.43 -3.66 9.76 -0.26 0.42 0.43 3178
0.00 0.00 -1.66 -3.56 9.71 -0.30 0.41 0.41 3185
0.00 0.00 -1.73 -3.65 9.62 -0.33 0.37 0.40 3192
0.00 -0.00 -7.89 -3.27 10.27 -0.08 -0.42 0.37 3200
0.00 0.00 -2.81 -2.97 6.41 -0.11 -0.43 0.34 3207
0.00 0.00 -3.85 -6.49 9.11 -0.07 -0.61 0.33 3214
0.00 0.00 -3.54 -6.42 9.42 -0.02 -0.72 0.26 3221
0.00 0.00 -2.39 -5.76 8.63 0.10 -0.66 0.20 3228
0.00 0.00 -2.26 -9.65 7.80 0.23 -0.59 0.16 3235
0.00 -0.00 -0.43 -7.30 5.68 0.44 -0.21 0.22 3243
0.00 0.00 -2.38 -7.17 7.76 0.55 -0.22 0.21 3250
0.00 0.00 -5.10 -10.39 17.46 0.60 -0.34 0.22 3257
0.00 0.00 -9.01 -13.28 10.33 0.15 -0.50 0.02 3264
0.00 0.00 -1.53 -3.64 9.14 0.02 -0.08 -0.04 3271
-0.00 0.00 -0.40 -2.31 9.82 -0.05 0.08 -0.08 3278
0.00 -0.00 0.14 -1.22 9.87 -0.08 0.09 -0.04 3286
0.00 0.00 0.71 -0.84 9.78 -0.08 0.04 -0.02 3293
0.00 0.00 0.45 -0.78 9.49 -0.06 0.02 -0.02 3300
0.00 0.00 0.40 -0.91 9.64 -0.07 0.01 -0.02 3307
-0.00 0.00 0.33 -0.87 9.57 -0.10 -0.00 -0.02 3314
-0.00 0.01 0.21 -0.81 9.59 -0.15 -0.00 -0.02 3321
0.00 0.01 0.38 -0.85 9.72 -0.21 0.02 -0.02 3329
0.00 0.00 0.32 -0.89 10.04 -0.20 0.03 -0.03 3336
0.02 0.03 0.45 -0.91 10.00 -0.15 0.02 -0.04 3343
-0.00 0.02 0.37 -1.05 10.00 -0.12 0.03 -0.05 3350
0.03 0.03 0.37 -1.02 9.90 -0.11 0.01 -0.05 3357
0.05 0.05 0.38 -0.96 9.81 -0.11 -0.00 -0.05 3364
0.05 0.04 0.31 -0.91 9.83 -0.10 -0.01 -0.06 3372
0.04 0.07 0.32 -0.89 9.84 -0.11 -0.00 -0.05 3379
0.04 0.08 0.36 -0.95 9.81 -0.10 -0.01 -0.06 3386
0.03 0.16 0.34 -0.91 9.82 -0.10 -0.00 -0.06 3393
0.04 0.17 0.34 -0.85 9.81 -0.10 -0.00 -0.06 3400
0.05 0.19 0.31 -0.86 9.77 -0.10 0.01 -0.06 3407
0.05 0.22 0.32 -0.86 9.79 -0.09 0.01 -0.06 3415
0.04 0.26 0.29 -0.82 9.82 -0.09 0.02 -0.06 3422
0.05 0.27 0.31 -0.81 9.82 -0.08 0.03 -0.06 3429
0.05 0.29 0.32 -0.82 9.82 -0.07 0.03 -0.06 3436
0.07 0.29 0.31 -0.85 9.81 -0.06 0.04 -0.06 3443
0.08 0.30 0.32 -0.81 9.82 -0.06 0.04 -0.06 3450
0.06 0.35 0.26 -0.89 9.77 -0.05 0.04 -0.06 3458
0.06 0.38 0.36 -0.82 9.84 -0.05 0.04 -0.06 3465
0.07 0.40 0.29 -0.80 9.83 -0.04 0.04 -0.06 3472
0.07 0.46 0.37 -0.81 9.82 -0.05 0.04 -0.07 3479
0.06 0.45 0.34 -0.79 9.82 -0.04 0.04 -0.07 3486
0.08 0.48 0.33 -0.81 9.83 -0.03 0.04 -0.07 3493
0.07 0.48 0.33 -0.76 9.82 -0.02 0.04 -0.07 3501
0.06 0.50 0.33 -0.81 9.83 -0.02 0.04 -0.07 3508
0.03 0.52 0.34 -0.80 9.81 -0.01 0.04 -0.07 3515
0.04 0.53 0.34 -0.80 9.86 -0.00 0.04 -0.07 3522
0.06 0.52 0.32 -0.81 9.81 0.00 0.04 -0.07 3529
0.09 0.51 0.30 -0.78 9.81 0.00 0.04 -0.07 3536
0.07 0.53 0.33 -0.78 9.82 0.01 0.05 -0.07 3544
0.07 0.50 0.33 -0.79 9.82 0.01 0.05 -0.07 3551
0.04 0.49 0.33 -0.83 9.83 0.02 0.05 -0.08 3558
0.04 0.47 0.35 -0.82 9.82 0.02 0.04 -0.08 3565
0.07 0.46 0.30 -0.80 9.81 0.02 0.04 -0.07 3572
0.07 0.44 0.33 -0.82 9.82 0.01 0.04 -0.08 3579
0.06 0.45 0.32 -0.85 9.80 0.01 0.04 -0.08 3587
0.07 0.43 0.34 -0.80 9.81 0.01 0.04 -0.07 3594
0.06 0.41 0.34 -0.79 9.80 0.01 0.03 -0.08 3601
0.07 0.39 0.34 -0.84 9.78 0.01 0.03 -0.08 3608
0.09 0.40 0.32 -0.81 9.81 0.01 0.03 -0.08 3615
0.12 0.38 0.29 -0.82 9.81 0.01 0.03 -0.08 3622
0.10 0.31 0.29 -0.83 9.81 0.02 0.03 -0.08 3630
0.12 0.31 0.32 -0.80 9.79 0.01 0.03 -0.08 3637
0.12 0.30 0.35 -0.85 9.82 0.01 0.03 -0.08 3644
0.14 0.32 0.33 -0.84 9.80 0.01 0.03 -0.08 3651
0.17 0.31 0.29 -0.83 9.79 0.01 0.03 -0.08 3658
0.16 0.26 0.32 -0.80 9.80 0.01 0.03 -0.08 3665
0.18 0.26 0.32 -0.85 9.82 0.01 0.03 -0.08 3673
0.18 0.23 0.34 -0.84 9.79 0.01 0.03 -0.08 3680
0.20 0.23 0.31 -0.84 9.78 0.01 0.03 -0.08 3687
0.23 0.19 0.32 -0.86 9.82 0.01 0.03 -0.08 3694
0.27 0.19 0.30 -0.85 9.82 0.01 0.03 -0.08 3701
0.26 0.16 0.29 -0.87 9.82 0.01 0.03 -0.08 3708
0.26 0.15 0.32 -0.86 9.81 0.02 0.04 -0.08 3716
0.23 0.09 0.30 -0.87 9.81 0.02 0.04 -0.08 3723
0.25 0.10 0.30 -0.86 9.82 0.01 0.04 -0.08 3730
0.31 0.09 0.30 -0.86 9.80 0.01 0.03 -0.08 3737
0.36 0.07 0.29 -0.86 9.82 0.01 0.04 -0.08 3744
0.35 0.04 0.33 -0.86 9.79 0.01 0.04 -0.08 3751
0.38 0.02 0.32 -0.88 9.80 0.01 0.04 -0.08 3759
0.38 0.01 0.31 -0.86 9.81 0.01 0.03 -0.08 3766
0.40 0.01 0.33 -0.88 9.82 0.01 0.04 -0.08 3773
0.39 0.01 0.29 -0.88 9.76 0.01 0.04 -0.08 3780
0.38 0.00 0.32 -0.85 9.81 0.02 0.04 -0.08 3787
0.38 0.00 0.36 -0.86 9.80 0.01 0.04 -0.08 3794
0.40 -0.02 0.31 -0.86 9.82 0.01 0.04 -0.08 3802
0.37 -0.00 0.30 -0.86 9.81 0.01 0.04 -0.08 3809
0.37 -0.00 0.30 -0.90 9.82 0.01 0.04 -0.08 3816
0.39 -0.01 0.31 -0.85 9.79 0.01 0.04 -0.08 3823
0.39 -0.02 0.30 -0.90 9.79 0.01 0.04 -0.08 3830
0.40 -0.01 0.32 -0.85 9.81 0.01 0.04 -0.08 3837
0.39 -0.02 0.31 -0.87 9.81 0.01 0.04 -0.08 3845
0.40 -0.01 0.29 -0.87 9.82 0.01 0.04 -0.08 3852
0.41 0.00 0.30 -0.89 9.83 0.01 0.04 -0.08 3859
0.44 -0.00 0.33 -0.87 9.82 0.02 0.04 -0.08 3866
0.44 -0.02 0.33 -0.89 9.83 0.02 0.04 -0.07 3873
0.43 -0.02 0.35 -0.89 9.82 0.02 0.05 -0.07 3880
0.45 -0.02 0.29 -0.88 9.83 0.03 0.05 -0.08 3888
0.46 -0.02 0.32 -0.90 9.79 0.03 0.05 -0.07 3895
0.47 0.00 0.32 -0.91 9.84 0.03 0.05 -0.08 3902
0.52 -0.03 0.34 -0.90 9.82 0.03 0.05 -0.08 3909
0.53 -0.02 0.30 -0.89 9.81 0.04 0.05 -0.07 3916
0.53 -0.03 0.32 -0.92 9.82 0.04 0.06 -0.07 3923
0.54 -0.03 0.30 -0.94 9.83 0.04 0.06 -0.08 3931
0.55 -0.02 0.32 -0.88 9.82 0.05 0.06 -0.08 3938
0.56 -0.01 0.31 -0.96 9.81 0.05 0.06 -0.08 3945
0.57 -0.03 0.30 -0.94 9.83 0.06 0.07 -0.08 3952
0.59 -0.03 0.34 -0.98 9.82 0.10 0.07 -0.08 3959
0.63 -0.04 0.33 -0.98 9.79 0.07 0.08 -0.08 3966
0.63 -0.03 0.39 -0.98 9.88 0.08 0.09 -0.09 3974
0.62 -0.03 0.30 -0.95 9.88 0.09 0.10 -0.09 3981
0.65 -0.03 0.40 -0.98 9.96 0.13 0.09 -0.09 3988
0.65 -0.04 0.36 -0.95 9.87 0.17 0.10 -0.10 3995
0.66 -0.03 0.41 -0.95 10.09 0.23 0.12 -0.12 4002
0.68 -0.04 0.26 -0.86 10.62 0.46 0.18 -0.14 4009
0.67 -0.03 0.64 -1.11 10.58 0.72 0.18 -0.13 4018
0.67 -0.01 0.68 -1.07 11.15 0.88 0.15 -0.15 4025
0.68 -0.03 0.68 -1.14 10.88 0.86 0.10 -0.18 4032
0.66 -0.02 0.35 -1.32 11.28 0.91 0.08 -0.17 4039
0.65 -0.03 0.47 -1.41 11.24 1.00 0.03 -0.17 4046
0.63 -0.02 0.27 -1.34 10.90 1.04 0.02 -0.16 4052
0.60 -0.03 0.39 -1.45 10.92 1.10 -0.01 -0.15 4060
0.56 -0.02 0.37 -1.51 10.75 1.15 -0.02 -0.14 4068
0.56 -0.03 0.32 -1.60 10.53 1.19 -0.03 -0.14 4075
0.51 -0.03 0.23 -1.65 10.31 1.22 -0.03 -0.14 4082
0.47 -0.04 0.31 -1.84 9.76 1.24 -0.06 -0.13 4088
0.43 -0.02 0.35 -1.92 9.57 1.24 -0.11 -0.12 4096
0.38 -0.02 0.14 -2.10 10.20 1.22 -0.10 -0.11 4104
0.40 -0.02 0.50 -2.15 10.31 1.22 -0.06 -0.11 4111
0.31 -0.02 0.36 -2.27 11.02 1.25 -0.05 -0.12 4118
0.27 -0.02 0.38 -2.37 10.46 1.28 -0.03 -0.12 4125
0.21 -0.02 0.38 -3.05 9.36 1.29 -0.03 -0.12 4131
0.15 -0.01 0.69 -2.31 10.24 1.26 -0.04 -0.14 4139
0.11 -0.01 0.65 -3.17 9.88 1.19 -0.16 -0.13 4146
0.05 -0.01 1.14 -3.02 10.73 1.18 -0.05 -0.17 4153
0.08 -0.01 0.59 -2.97 11.01 1.19 -0.07 -0.20 4160
0.13 -0.01 0.88 -3.19 11.10 1.18 -0.07 -0.21 4167
0.09 -0.01 1.75 -3.48 10.88 1.15 -0.09 -0.25 4174
0.08 -0.01 2.01 -3.54 11.32 1.12 -0.07 -0.31 4182
0.10 -0.01 2.03 -3.71 11.74 1.07 -0.08 -0.38 4189
0.04 -0.00 1.10 -3.46 11.51 1.00 -0.11 -0.43 4196
0.03 -0.00 0.05 -0.85 10.98 0.96 -0.15 -0.48 4203
0.02 -0.00 0.59 0.38 10.61 0.81 -0.32 -0.51 4210
0.01 -0.00 0.41 0.30 9.59 0.54 -0.54 -0.52 4217
0.01 -0.00 0.58 1.36 9.66 0.29 -0.67 -0.52 4225
0.00 0.00 0.78 2.25 9.16 0.11 -0.78 -0.52 4232
0.02 -0.00 1.08 2.98 8.88 0.04 -0.81 -0.57 4239
0.02 -0.00 1.49 3.77 8.57 -0.02 -0.83 -0.62 4246
0.00 -0.00 2.16 3.15 7.68 -0.10 -0.81 -0.68 4253
0.00 0.00 2.30 3.30 9.11 -0.17 -0.67 -0.69 4260
0.00 0.00 2.32 3.71 9.26 -0.37 -0.48 -0.72 4268
0.00 0.00 2.24 3.19 8.81 -0.47 -0.38 -0.75 4275
0.01 -0.00 1.92 2.49 8.48 -0.53 -0.34 -0.76 4282
0.00 0.00 1.87 2.00 8.20 -0.55 -0.33 -0.78 4289
0.00 0.00 1.92 1.65 7.96 -0.56 -0.33 -0.79 4296
0.00 0.00 2.08 1.29 8.13 -0.54 -0.30 -0.80 4303
0.00 0.00 2.31 0.99 8.44 -0.53 -0.24 -0.81 4311
0.00 0.00 2.40 0.74 8.64 -0.54 -0.16 -0.80 4318
0.00 -0.00 2.52 0.60 9.00 -0.55 -0.03 -0.79 4325
0.00 0.00 2.48 0.45 9.07 -0.58 0.09 -0.76 4332
0.00 0.00 2.34 0.29 9.14 -0.62 0.23 -0.72 4339
0.00 0.00 2.01 0.08 9.20 -0.64 0.32 -0.67 4346
0.00 0.00 1.84 -0.12 9.37 -0.67 0.36 -0.61 4354
0.00 0.00 1.74 -0.39 9.34 -0.68 0.35 -0.55 4361
0.00 0.00 1.79 -0.59 9.35 -0.69 0.30 -0.49 4368
0.00 0.00 1.95 -0.68 9.35 -0.68 0.32 -0.44 4375
0.00 0.00 2.27 -0.80 9.47 -0.68 0.31 -0.39 4382
0.00 0.00 2.43 -0.88 9.66 -0.67 0.33 -0.35 4389
0.00 0.00 2.49 -0.94 9.75 -0.67 0.39 -0.30 4397
0.01 -0.00 2.31 -1.07 9.82 -0.67 0.48 -0.23 4404
0.00 0.00 1.93 -1.15 10.02 -0.69 0.54 -0.16 4411
0.00 0.00 1.57 -1.33 10.21 -0.71 0.59 -0.07 4418
0.00 0.00 1.27 -1.53 10.47 -0.73 0.59 0.01 4425
0.00 0.00 0.97 -1.57 10.48 -0.76 0.54 0.08 4432
0.00 -0.00 0.95 -1.71 10.37 -0.79 0.48 0.16 4440
0.01 -0.00 1.14 -1.76 10.36 -0.82 0.41 0.22 4447
0.00 0.00 1.46 -1.92 10.26 -0.82 0.38 0.26 4454
0.00 0.00 1.67 -2.06 10.18 -0.81 0.39 0.29 4461
0.00 0.00 1.82 -2.25 10.07 -0.79 0.46 0.30 4468
0.00 0.00 1.92 -2.56 10.01 -0.76 0.56 0.31 4475
0.00 0.00 1.42 -2.68 10.21 -0.73 0.61 0.31 4483
0.00 0.00 1.23 -3.01 10.26 -0.68 0.67 0.32 4490
0.00 0.00 0.88 -3.16 10.16 -0.64 0.68 0.33 4497
0.00 0.00 0.44 -3.04 10.00 -0.58 0.66 0.36 4504
0.00 0.00 0.04 -2.84 10.03 -0.53 0.62 0.42 4511
0.00 0.00 -0.14 -2.79 10.15 -0.48 0.58 0.48 4518
0.00 0.00 -0.40 -2.66 10.27 -0.44 0.57 0.56 4526
0.00 0.00 -0.59 -2.77 10.85 -0.44 0.60 0.62 4533
0.00 0.00 -0.59 -2.91 11.23 -0.47 0.59 0.65 4540
0.00 0.00 -0.60 -3.10 11.34 -0.53 0.63 0.66 4547
0.00 0.00 -0.73 -3.39 11.02 -0.60 0.67 0.65 4554
0.00 0.00 -0.98 -3.56 10.73 -0.65 0.71 0.63 4561
0.00 0.00 -1.35 -3.78 10.44 -0.67 0.75 0.62 4569
0.00 0.00 -1.57 -3.87 10.09 -0.66 0.76 0.61 4576
0.00 0.00 -1.84 -3.91 9.93 -0.63 0.71 0.60 4583
0.00 0.00 -2.05 -4.07 9.91 -0.60 0.64 0.60 4590
0.00 0.00 -2.09 -4.21 9.87 -0.56 0.53 0.60 4597
0.00 0.00 -1.92 -4.34 9.83 -0.53 0.42 0.60 4604
0.00 0.00 -1.83 -4.43 9.80 -0.49 0.34 0.60 4612
0.00 0.00 -1.65 -4.53 9.75 -0.45 0.27 0.59 4619
0.00 0.00 -1.49 -4.58 9.61 -0.41 0.20 0.57 4626
0.00 0.00 -1.30 -4.57 9.64 -0.38 0.24 0.54 4633
0.00 0.00 -1.20 -4.53 9.77 -0.36 0.28 0.51 4640
0.00 0.00 -1.21 -4.40 9.72 -0.35 0.33 0.44 4647
0.00 -0.00 -1.19 -4.28 9.62 -0.35 0.41 0.42 4655
0.00 0.00 -5.59 -4.30 9.61 -0.17 -0.08 0.34 4662
0.00 0.00 -2.41 -3.26 7.44 -0.15 -0.08 0.30 4669
0.00 0.00 -3.34 -5.52 9.26 -0.11 -0.19 0.27 4676
0.00 0.00 -3.54 -4.77 9.17 -0.07 -0.29 0.21 4683
0.00 0.00 -2.97 -4.33 9.10 0.00 -0.34 0.18 4690
0.00 0.00 -3.09 -4.89 9.01 0.04 -0.38 0.14 4698
0.00 0.00 -3.00 -4.92 9.06 0.08 -0.41 0.09 4705
0.00 0.00 -3.32 -4.76 8.29 0.12 -0.49 0.03 4712
0.00 0.00 -3.66 -5.28 8.92 0.17 -0.56 -0.04 4719
0.00 0.00 -4.71 -2.51 13.25 0.43 -0.29 0.01 4726
0.00 0.00 -6.50 -9.99 18.37 0.44 -0.67 -0.04 4733
0.00 -0.00 -7.16 -9.54 10.06 0.17 -0.71 -0.23 4741
0.00 0.00 -4.60 -12.10 10.78 0.11 -0.49 -0.28 4748
0.00 0.00 -1.87 -8.12 9.86 0.01 -0.09 -0.23 4755
0.00 0.00 -0.87 -2.45 9.79 -0.11 0.08 -0.06 4762
-0.00 0.01 0.46 -1.25 9.57 -0.07 0.03 -0.01 4769
0.00 0.01 0.26 -1.03 9.61 -0.09 0.03 0.01 4776
-0.00 0.02 0.26 -0.80 9.63 -0.13 0.01 0.02 4784
-0.00 0.02 0.50 -0.59 9.94 -0.19 0.03 0.01 4791
-0.00 0.01 0.47 -0.80 10.07 -0.22 0.05 -0.01 4798
-0.00 0.03 0.55 -0.87 9.91 -0.15 0.06 -0.03 4805
-0.00 0.04 0.47 -0.91 9.88 -0.12 0.05 -0.04 4812
-0.00 0.05 0.34 -0.86 9.82 -0.09 0.06 -0.05 4819
-0.01 0.08 0.36 -0.83 9.87 -0.07 0.04 -0.06 4827
-0.01 0.06 0.35 -0.81 9.81 -0.07 0.03 -0.06 4834
-0.01 0.15 0.38 -0.84 9.83 -0.06 0.02 -0.06 4841
-0.01 0.16 0.41 -0.91 9.82 -0.06 0.01 -0.06 4848
0.02 0.17 0.34 -0.83 10.40 -0.06 0.00 -0.06 4855
0.04 0.18 0.34 -0.86 9.77 -0.06 0.01 -0.06 4862
0.02 0.15 0.33 -0.84 9.76 -0.07 0.01 -0.06 4870
0.02 0.22 0.30 -0.83 9.79 -0.07 0.03 -0.06 4877
0.02 0.24 0.34 -0.86 9.82 -0.07 0.04 -0.06 4884
0.02 0.28 0.28 -0.83 9.80 -0.08 0.04 -0.06 4891
0.03 0.31 0.32 -0.81 9.81 -0.08 0.05 -0.05 4898
0.03 0.29 0.33 -0.81 9.82 -0.08 0.05 -0.05 4905
0.03 0.32 0.38 -0.75 9.81 -0.07 0.05 -0.04 4913
0.00 0.39 0.37 -0.77 9.82 -0.10 0.06 -0.05 4920
0.01 0.45 0.38 -0.79 9.85 -0.06 0.05 -0.05 4927
0.02 0.46 0.39 -0.79 9.85 -0.05 0.06 -0.05 4934
0.03 0.45 0.42 -0.72 9.81 -0.05 0.05 -0.05 4941
0.04 0.50 0.33 -0.72 10.42 -0.04 0.05 -0.05 4948
0.04 0.51 0.40 -0.79 9.81 -0.04 0.05 -0.05 4956
0.04 0.57 0.47 -0.73 9.81 -0.03 0.05 -0.05 4963
0.03 0.53 0.34 -0.77 9.83 -0.03 0.05 -0.06 4970
0.03 0.59 0.39 -0.74 9.83 -0.03 0.05 -0.06 4977
0.04 0.68 0.39 -0.76 9.83 -0.02 0.04 -0.06 4984
0.05 0.65 0.37 -0.77 9.83 -0.02 0.04 -0.06 4992
0.05 0.63 0.38 -0.73 9.81 -0.01 0.04 -0.06 4999
0.04 0.61 0.34 -0.76 9.83 -0.01 0.04 -0.06 5006
0.04 0.60 0.39 -0.76 9.82 0.00 0.05 -0.06 5013
0.05 0.60 0.36 -0.74 9.85 -0.01 0.05 -0.06 5020
0.06 0.61 0.37 -0.75 9.83 -0.00 0.05 -0.07 5027
0.06 0.60 0.37 -0.76 9.82 0.01 0.05 -0.06 5035
0.05 0.58 0.35 -0.77 9.82 0.00 0.05 -0.06 5042
0.05 0.56 0.36 -0.77 9.79 0.01 0.05 -0.06 5049
0.03 0.55 0.40 -0.74 9.80 0.00 0.04 -0.07 5056
0.05 0.54 0.37 -0.79 9.80 0.01 0.04 -0.07 5063
0.06 0.54 0.37 -0.76 9.79 0.01 0.05 -0.07 5070
0.06 0.51 0.38 -0.77 9.78 0.01 0.05 -0.07 5078
0.07 0.49 0.35 -0.76 9.79 -0.00 0.05 -0.07 5085
0.06 0.50 0.35 -0.73 9.81 0.00 0.04 -0.07 5092
0.06 0.51 0.39 -0.75 9.80 -0.00 0.04 -0.07 5099
0.07 0.50 0.34 -0.76 9.80 0.00 0.05 -0.07 5106
0.09 0.48 0.36 -0.78 9.78 0.00 0.04 -0.07 5113
0.09 0.46 0.36 -0.77 9.81 0.00 0.04 -0.07 5121
0.09 0.45 0.37 -0.78 9.80 0.00 0.04 -0.06 5128
0.07 0.47 0.36 -0.76 9.81 0.00 0.04 -0.07 5135
0.09 0.47 0.37 -0.76 9.79 -0.00 0.04 -0.07 5142
0.10 0.44 0.40 -0.74 9.82 0.00 0.05 -0.07 5149
0.10 0.46 0.37 -0.74 9.81 0.00 0.04 -0.07 5156
0.12 0.43 0.37 -0.77 9.80 0.00 0.04 -0.07 5164
0.11 0.41 0.36 -0.76 9.81 0.01 0.04 -0.07 5171
0.11 0.39 0.34 -0.81 9.81 0.01 0.04 -0.07 5178
0.12 0.37 0.39 -0.77 9.84 0.01 0.04 -0.07 5185
0.14 0.39 0.38 -0.77 9.83 0.01 0.04 -0.07 5192
0.15 0.36 0.36 -0.80 9.82 0.01 0.04 -0.07 5199
0.15 0.35 0.36 -0.77 9.82 0.01 0.04 -0.07 5207
0.15 0.29 0.37 -0.75 9.82 0.01 0.04 -0.07 5214
0.17 0.31 0.37 -0.77 9.84 0.01 0.05 -0.07 5221
0.17 0.29 0.37 -0.76 9.78 0.01 0.05 -0.07 5228
0.22 0.28 0.38 -0.79 9.81 0.02 0.05 -0.07 5235
0.18 0.25 0.36 -0.76 9.77 0.02 0.05 -0.07 5242
0.23 0.21 0.41 -0.78 9.81 0.02 0.05 -0.07 5250
0.25 0.23 0.39 -0.77 9.81 0.02 0.04 -0.07 5257
0.25 0.18 0.39 -0.77 9.81 0.02 0.05 -0.07 5264
0.27 0.15 0.38 -0.78 9.80 0.02 0.05 -0.07 5271
0.29 0.15 0.38 -0.80 9.82 0.02 0.05 -0.07 5278
0.31 0.08 0.38 -0.80 9.81 0.02 0.05 -0.07 5285
0.35 0.04 0.39 -0.79 9.79 0.03 0.05 -0.07 5293
0.36 0.06 0.38 -0.81 9.80 0.03 0.05 -0.07 5300
0.36 0.03 0.36 -0.82 9.80 0.03 0.05 -0.07 5307
0.36 0.02 0.38 -0.82 9.82 0.02 0.05 -0.07 5314
0.37 -0.01 0.39 -0.79 9.81 0.02 0.05 -0.07 5321
0.40 -0.01 0.38 -0.82 9.79 0.02 0.05 -0.07 5328
0.41 -0.02 0.39 -0.86 9.21 0.02 0.05 -0.07 5336
0.42 -0.01 0.38 -0.81 9.81 0.02 0.05 -0.07 5343
0.45 -0.01 0.39 -0.82 9.82 0.03 0.05 -0.07 5350
0.45 -0.01 0.39 -0.85 9.82 0.03 0.05 -0.07 5357
0.49 -0.02 0.38 -0.81 9.82 0.03 0.05 -0.07 5364
0.47 -0.02 0.45 -0.82 9.80 0.03 0.05 -0.07 5371
0.48 -0.02 0.40 -0.85 9.82 0.03 0.06 -0.06 5379
0.46 -0.01 0.40 -0.86 9.81 0.03 0.05 -0.06 5386
0.48 -0.01 0.37 -0.87 9.81 0.04 0.06 -0.07 5393
0.50 -0.02 0.36 -0.86 9.82 0.04 0.06 -0.07 5400
0.50 -0.02 0.40 -0.87 9.84 0.04 0.06 -0.03 5407
0.52 -0.02 0.40 -0.87 9.81 0.05 0.06 -0.07 5414
0.52 -0.03 0.38 -0.85 9.84 0.05 0.06 -0.07 5422
0.52 -0.02 0.39 -0.84 9.85 0.05 0.07 -0.06 5429
0.54 -0.02 0.40 -0.94 9.84 0.06 0.07 -0.07 5436
0.55 -0.02 0.42 -0.87 9.83 0.07 0.07 -0.07 5443
0.55 -0.03 0.46 -0.87 9.87 0.08 0.08 -0.07 5450
0.55 -0.03 0.47 -0.92 9.87 0.09 0.09 -0.08 5457
0.54 -0.03 0.55 -0.89 9.92 0.12 0.09 -0.09 5465
0.54 -0.03 0.42 -0.81 9.94 0.16 0.09 -0.11 5472
0.54 -0.02 0.38 -0.92 10.37 0.24 0.13 -0.13 5480
0.56 -0.03 0.85 -0.98 10.97 0.66 0.20 -0.12 5486
0.55 -0.03 0.73 -1.08 10.81 0.88 0.19 -0.13 5494
0.54 -0.03 0.63 -1.25 11.51 0.91 0.12 -0.16 5501
0.52 -0.03 0.47 -1.17 11.10 0.91 0.07 -0.16 5509
0.50 -0.02 0.45 -1.37 10.83 0.95 0.04 -0.16 5516
0.49 -0.01 0.52 -1.25 10.41 0.99 0.02 -0.15 5523
0.48 -0.02 0.30 -1.32 10.29 1.00 0.02 -0.15 5529
0.46 -0.02 0.33 -1.43 10.14 1.02 0.04 -0.14 5537
0.44 -0.03 0.40 -1.45 10.15 1.03 0.06 -0.13 5544
0.40 -0.03 0.38 -1.60 9.75 1.03 0.03 -0.13 5551
0.39 -0.02 0.40 -1.77 9.27 1.03 0.03 -0.11 5558
0.38 -0.02 0.29 -1.77 9.72 1.01 -0.01 -0.10 5565
0.33 -0.02 0.30 -1.88 9.74 0.96 -0.02 -0.09 5572
0.29 -0.01 0.36 -1.86 9.64 0.92 -0.03 -0.08 5579
0.23 -0.02 0.57 -2.21 10.05 0.89 -0.05 -0.08 5586
0.16 -0.01 0.53 -2.17 10.23 0.89 -0.02 -0.07 5594
0.18 -0.02 0.42 -2.17 10.63 0.96 -0.05 -0.07 5601
0.18 -0.02 0.50 -2.27 10.62 0.99 -0.08 -0.07 5608
0.13 -0.01 0.43 -2.36 10.33 1.04 -0.10 -0.08 5615
0.09 -0.01 0.57 -2.51 10.27 1.05 -0.13 -0.09 5622
0.08 -0.01 0.72 -2.64 10.36 1.08 -0.16 -0.10 5629
0.06 -0.01 0.59 -2.67 10.42 1.09 -0.19 -0.13 5637
0.05 -0.00 0.71 -2.68 10.32 1.10 -0.19 -0.15 5644
0.10 -0.01 0.82 -2.87 10.35 1.09 -0.21 -0.17 5651
0.08 -0.01 1.17 -3.10 10.61 1.06 -0.23 -0.21 5658
0.07 -0.01 1.21 -3.17 10.90 1.02 -0.23 -0.24 5665
0.05 -0.01 0.91 -3.38 11.18 0.98 -0.23 -0.29 5672
0.03 -0.00 0.06 -3.19 11.42 0.92 -0.31 -0.32 5680
0.02 -0.00 0.10 -2.14 11.39 0.85 -0.39 -0.33 5687
0.04 -0.00 -0.16 -0.81 10.98 0.71 -0.51 -0.37 5694
0.03 -0.00 -0.35 0.71 9.82 0.53 -0.62 -0.46 5701
0.02 -0.00 -0.64 1.33 8.91 0.29 -0.71 -0.52 5708
0.01 -0.00 -0.48 1.47 8.98 0.12 -0.75 -0.67 5715
0.02 -0.00 -0.66 1.96 9.29 0.01 -0.76 -0.84 5723
0.01 -0.00 -0.60 1.48 9.10 -0.04 -0.74 -1.09 5730
0.01 -0.00 0.03 1.45 9.48 -0.06 -0.71 -1.23 5737
0.01 -0.00 0.34 1.89 9.82 -0.20 -0.59 -1.31 5744
0.02 -0.00 0.55 1.84 9.07 -0.32 -0.52 -1.36 5751
0.02 -0.00 0.56 1.29 8.69 -0.39 -0.56 -1.36 5758
0.02 -0.00 0.73 0.55 8.60 -0.40 -0.60 -1.33 5766
0.03 -0.00 1.07 0.10 8.93 -0.40 -0.63 -1.26 5773
0.03 -0.00 1.54 -0.08 9.13 -0.37 -0.63 -1.20 5780
0.01 -0.00 1.91 -0.26 9.01 -0.36 -0.57 -1.12 5787
0.00 -0.00 2.23 -0.39 8.83 -0.38 -0.48 -1.04 5794
0.00 0.00 2.36 -0.50 8.77 -0.40 -0.37 -0.95 5801
0.01 -0.00 2.52 -0.70 8.62 -0.41 -0.24 -0.85 5809
0.01 -0.00 2.57 -0.83 8.52 -0.40 -0.19 -0.76 5816
0.01 -0.00 2.80 -0.87 8.53 -0.34 -0.13 -0.64 5823
0.00 -0.00 2.95 -0.89 8.65 -0.33 -0.09 -0.50 5830
0.00 0.00 3.11 -0.80 8.68 -0.29 -0.02 -0.41 5837
0.00 0.00 3.21 -0.67 8.63 -0.27 0.10 -0.27 5844
0.00 0.00 3.07 -0.67 8.56 -0.27 0.19 -0.13 5852
0.01 -0.00 2.72 -0.81 8.70 -0.27 0.32 0.04 5859
0.00 0.00 2.31 -0.99 8.98 -0.28 0.40 0.23 5866
0.00 0.00 1.73 -1.32 9.01 -0.26 0.45 0.38 5873
0.00 0.00 1.12 -1.64 9.07 -0.25 0.41 0.54 5880
0.00 0.00 0.65 -1.79 9.55 -0.25 0.37 0.66 5888
0.00 0.00 0.62 -2.04 10.06 -0.26 0.34 0.78 5895
0.00 -0.00 0.75 -2.15 10.55 -0.31 0.33 0.86 5902
0.00 0.00 0.85 -2.14 10.64 -0.41 0.35 0.89 5909
0.00 0.00 0.96 -2.26 10.38 -0.51 0.40 0.89 5916
0.00 0.00 0.83 -2.43 10.08 -0.60 0.44 0.87 5923
0.00 0.00 0.54 -2.55 9.65 -0.64 0.47 0.82 5931
0.00 0.00 0.43 -2.64 9.27 -0.63 0.47 0.76 5938
0.00 0.00 0.24 -2.66 9.18 -0.58 0.46 0.69 5945
0.00 0.00 0.01 -2.44 9.12 -0.53 0.47 0.61 5952
0.00 0.00 -0.17 -2.28 9.39 -0.49 0.50 0.56 5959
0.00 0.00 -0.53 -2.33 9.77 -0.47 0.50 0.52 5966
0.00 0.00 -0.76 -2.30 10.13 -0.48 0.46 0.46 5974
0.00 0.00 -0.82 -2.46 10.24 -0.51 0.36 0.42 5981
0.00 0.00 -0.57 -2.68 10.35 -0.53 0.26 0.37 5988
0.00 0.00 -0.32 -2.79 10.52 -0.56 0.20 0.32 5995
0.00 0.00 0.11 -2.80 10.60 -0.60 0.17 0.26 6002
0.00 0.00 0.54 -2.68 10.35 -0.64 0.19 0.19 6009
0.00 0.00 0.68 -2.61 10.03 -0.68 0.25 0.13 6017
0.00 -0.00 0.66 -2.59 9.93 -0.68 0.30 0.07 6024
0.00 0.00 0.64 -2.64 9.83 -0.66 0.34 0.01 6031
0.00 0.00 0.69 -2.55 9.76 -0.64 0.36 -0.04 6038
0.00 0.00 0.68 -2.57 9.73 -0.63 0.39 -0.08 6045
0.00 0.00 0.60 -2.58 9.72 -0.61 0.43 -0.11 6052
0.00 0.00 0.41 -2.56 9.59 -0.59 0.48 -0.13 6060
0.00 -0.00 0.14 -2.53 9.47 -0.56 0.57 -0.11 6067
0.00 0.00 -0.18 -2.58 9.54 -0.53 0.59 -0.08 6074
0.00 0.00 -0.47 -2.58 9.74 -0.51 0.59 -0.03 6081
0.00 0.00 -0.61 -2.70 9.92 -0.49 0.56 0.06 6088
0.00 0.00 -0.57 -2.74 10.15 -0.50 0.50 0.10 6095
0.00 0.00 -0.38 -2.70 10.27 -0.52 0.45 0.17 6103
0.00 0.00 -0.20 -2.79 10.21 -0.56 0.39 0.21 6110
0.00 0.00 -0.06 -2.94 10.01 -0.58 0.36 0.26 6117
0.00 0.00 0.01 -3.16 9.72 -0.58 0.35 0.28 6124
0.00 0.00 0.03 -3.30 9.63 -0.57 0.37 0.29 6131
0.00 0.00 -0.00 -3.36 9.45 -0.54 0.42 0.28 6138
0.00 0.00 -0.23 -3.33 9.28 -0.50 0.48 0.28 6146
0.00 0.00 -0.60 -3.19 9.35 -0.46 0.56 0.29 6153
0.00 0.00 -1.02 -3.14 9.51 -0.42 0.62 0.32 6160
0.00 0.00 -1.48 -3.17 9.71 -0.39 0.63 0.35 6167
0.00 0.00 -1.78 -3.22 9.82 -0.38 0.58 0.40 6174
0.00 0.00 -1.91 -3.31 9.94 -0.37 0.51 0.44 6181
0.00 -0.00 -5.99 -4.54 9.41 -0.42 -0.02 0.35 6189
0.00 0.00 -3.33 -3.14 9.49 -0.34 -0.18 0.36 6196
0.00 0.00 -14.60 -5.06 25.50 0.13 -0.35 0.58 6203
0.00 0.00 -8.18 -6.88 12.15 -0.01 -0.35 0.58 6210
0.00 0.00 -6.48 -8.03 9.93 0.10 -0.36 0.50 6217
0.00 0.00 -6.21 -8.13 9.62 0.14 -0.44 0.53 6224
0.00 -0.00 -7.19 -9.62 9.84 0.12 -0.41 0.47 6232
0.00 0.00 -7.67 -10.78 10.42 0.07 -0.19 0.36 6239
0.00 0.00 -6.09 -9.31 8.16 0.02 -0.06 0.18 6246
0.00 0.00 -5.38 -9.24 8.58 -0.02 0.06 -0.02 6253
0.01 -0.00 -0.97 -2.31 8.41 -0.03 0.18 -0.10 6260
0.01 -0.00 -0.61 -1.10 9.34 -0.12 0.39 0.00 6267
0.03 -0.00 0.54 -0.95 10.90 -0.23 0.32 0.07 6275
0.02 -0.00 0.77 -0.74 9.89 -0.18 0.15 0.07 6282
0.02 -0.00 0.93 -0.81 10.06 -0.12 0.04 0.03 6289
0.02 0.00 0.48 -0.85 9.34 -0.07 0.02 -0.01 6296
0.02 -0.00 0.48 -0.87 9.62 -0.08 0.01 -0.01 6303
0.02 0.01 0.44 -0.83 9.64 -0.08 0.01 -0.02 6310
0.03 -0.00 0.34 -0.74 9.93 -0.11 0.02 -0.02 6318
0.02 -0.00 0.50 -1.15 10.56 -0.14 0.02 -0.03 6325
0.03 0.00 0.46 -1.08 9.84 -0.18 0.03 -0.03 6332
0.02 -0.00 0.45 -1.02 9.88 -0.11 0.03 -0.04 6339
0.04 0.01 0.41 -0.98 9.81 -0.10 0.03 -0.05 6346
0.05 0.02 0.45 -0.90 9.80 -0.08 0.03 -0.05 6353
0.06 0.02 0.46 -0.90 9.76 -0.07 0.02 -0.06 6361
0.05 0.02 0.46 -0.91 9.75 -0.08 0.01 -0.07 6368
0.05 0.01 0.42 -0.89 9.79 -0.08 -0.01 -0.07 6375
0.06 0.04 0.37 -0.91 9.71 -0.09 -0.02 -0.07 6382
0.07 0.02 0.31 -0.83 9.81 -0.09 -0.02 -0.07 6389
0.10 0.05 0.33 -0.89 9.81 -0.09 -0.02 -0.08 6396
0.12 0.09 0.32 -0.83 9.82 -0.09 -0.01 -0.07 6404
0.12 0.07 0.32 -0.82 9.82 -0.08 0.00 -0.07 6411
0.13 0.05 0.33 -0.80 9.83 -0.07 0.02 -0.07 6418
0.11 0.10 0.34 -0.85 9.83 -0.06 0.03 -0.07 6425
0.11 0.14 0.31 -0.83 9.82 -0.05 0.03 -0.06 6432
0.15 0.11 0.36 -0.84 9.78 -0.05 0.03 -0.06 6439
0.14 0.16 0.37 -0.86 9.82 -0.05 0.03 -0.06 6447
0.15 0.15 0.40 -0.84 9.82 -0.05 0.03 -0.06 6454
0.14 0.15 0.33 -0.86 9.81 -0.05 0.03 -0.06 6461
0.14 0.17 0.42 -0.83 9.82 -0.05 0.03 -0.06 6468
0.15 0.19 0.35 -0.84 9.78 -0.05 0.04 -0.06 6475
0.19 0.22 0.41 -0.82 9.82 -0.05 0.03 -0.06 6482
0.17 0.28 0.38 -0.78 9.82 -0.05 0.03 -0.06 6490
0.16 0.25 0.38 -0.77 9.86 -0.04 0.03 -0.06 6497
0.16 0.26 0.35 -0.75 9.84 -0.04 0.03 -0.06 6504
0.17 0.28 0.34 -0.79 9.82 -0.03 0.04 -0.06 6511
0.19 0.27 0.40 -0.79 9.85 -0.02 0.03 -0.06 6518
0.21 0.26 0.31 -0.78 9.82 -0.02 0.04 -0.06 6525
0.21 0.26 0.35 -0.77 9.81 -0.01 0.04 -0.06 6533
0.24 0.23 0.35 -0.82 9.84 -0.01 0.04 -0.06 6540
0.24 0.25 0.36 -0.79 9.83 -0.01 0.04 -0.06 6547
0.27 0.27 0.38 -0.77 9.82 -0.00 0.05 -0.06 6554
0.25 0.28 0.38 -0.79 9.81 -0.00 0.05 -0.06 6561
0.26 0.27 0.35 -0.74 9.83 0.01 0.04 -0.06 6568
0.28 0.25 0.34 -0.80 9.82 0.00 0.04 -0.06 6576
0.28 0.25 0.34 -0.80 9.78 0.01 0.04 -0.06 6583
0.29 0.26 0.33 -0.81 9.81 0.01 0.05 -0.07 6590
0.30 0.26 0.40 -0.80 9.82 0.01 0.05 -0.06 6597
0.32 0.25 0.37 -0.84 9.82 0.01 0.05 -0.07 6604
0.32 0.24 0.32 -0.80 9.81 0.02 0.04 -0.06 6611
0.32 0.23 0.34 -0.78 9.79 0.02 0.05 -0.07 6619
0.32 0.22 0.33 -0.81 9.80 0.01 0.05 -0.07 6626
0.31 0.20 0.37 -0.83 9.82 0.02 0.05 -0.07 6633
0.33 0.20 0.35 -0.80 9.81 0.02 0.05 -0.07 6640
0.34 0.20 0.34 -0.80 9.81 0.02 0.05 -0.07 6647
0.35 0.18 0.35 -0.81 9.77 0.02 0.05 -0.07 6654
0.35 0.15 0.35 -0.80 9.80 0.02 0.04 -0.06 6662
0.36 0.13 0.36 -0.80 9.81 0.02 0.05 -0.07 6669
0.39 0.10 0.38 -0.85 9.82 0.02 0.05 -0.06 6676
0.40 0.10 0.37 -0.86 9.81 0.02 0.05 -0.07 6683
0.42 0.06 0.40 -0.82 9.79 0.02 0.05 -0.07 6690
0.42 0.04 0.36 -0.80 9.81 0.02 0.05 -0.07 6697
0.40 0.01 0.37 -0.84 9.81 0.02 0.05 -0.07 6705
0.40 0.01 0.39 -0.86 9.80 0.02 0.05 -0.06 6712
0.41 0.02 0.36 -0.85 9.82 0.02 0.05 -0.07 6719
0.43 0.02 0.37 -0.83 9.81 0.02 0.05 -0.07 6726
0.44 0.00 0.33 -0.84 9.77 0.02 0.05 -0.06 6733
0.46 -0.01 0.35 -0.85 9.81 0.02 0.05 -0.07 6740
0.44 -0.02 0.35 -0.84 9.83 0.02 0.05 -0.07 6748
0.44 -0.02 0.34 -0.88 9.79 0.02 0.05 -0.06 6755
0.47 -0.01 0.37 -0.83 9.82 0.02 0.05 -0.06 6762
0.48 -0.01 0.36 -0.88 9.83 0.02 0.05 -0.07 6769
0.50 -0.03 0.35 -0.82 9.83 0.02 0.05 -0.07 6776
0.51 -0.02 0.41 -0.84 9.81 0.03 0.05 -0.06 6784
0.50 -0.03 0.36 -0.86 9.81 0.03 0.05 -0.07 6791
0.47 -0.02 0.37 -0.85 9.82 0.03 0.05 -0.07 6798
0.50 -0.02 0.37 -0.86 9.81 0.03 0.06 -0.06 6805
0.52 -0.01 0.40 -0.87 9.80 0.03 0.06 -0.06 6812
0.54 -0.02 0.37 -0.87 9.81 0.03 0.06 -0.06 6819
0.53 -0.01 0.37 -0.87 9.81 0.03 0.06 -0.06 6827
0.53 -0.02 0.40 -0.87 9.81 0.03 0.06 -0.06 6834
0.55 -0.02 0.36 -0.91 9.81 0.03 0.06 -0.06 6841
0.56 -0.02 0.37 -0.87 9.79 0.03 0.06 -0.06 6848
0.59 -0.02 0.38 -0.89 9.83 0.03 0.05 -0.06 6855
0.59 -0.03 0.35 -0.89 9.81 0.03 0.06 -0.06 6862
0.61 -0.02 0.42 -0.90 9.79 0.04 0.06 -0.06 6870
0.63 -0.02 0.38 -0.92 9.82 0.04 0.06 -0.06 6877
0.64 -0.03 0.36 -0.90 9.83 0.05 0.06 -0.06 6884
0.68 -0.02 0.37 -0.90 9.83 0.05 0.07 -0.06 6891
0.70 -0.03 0.40 -0.91 9.82 0.05 0.07 -0.06 6898
0.72 -0.04 0.41 -0.94 9.82 0.07 0.07 -0.06 6905
0.74 -0.04 0.37 -0.97 9.84 0.08 0.08 -0.07 6913
0.75 -0.04 0.47 -0.88 9.61 0.09 0.08 -0.06 6920
0.76 -0.04 0.39 -0.96 9.82 0.11 0.08 -0.07 6927
0.77 -0.03 0.42 -0.93 9.89 0.15 0.10 -0.07 6934
0.80 -0.04 0.38 -1.09 10.29 0.23 0.13 -0.08 6941
0.82 -0.04 0.39 -0.97 9.97 0.41 0.16 -0.08 6948
0.84 -0.05 0.41 -1.04 9.98 0.48 0.17 -0.09 6956
0.84 -0.03 0.46 -1.08 9.96 0.55 0.18 -0.09 6963
0.86 -0.03 0.53 -1.13 10.17 0.60 0.19 -0.10 6971
0.88 -0.03 0.46 -1.18 10.29 0.59 0.16 -0.10 6978
0.90 -0.04 0.49 -1.23 10.15 0.58 0.13 -0.11 6985
0.91 -0.04 0.59 -1.30 10.16 0.59 0.11 -0.11 6992
0.91 -0.04 0.53 -1.32 10.14 0.59 0.11 -0.11 7000
0.90 -0.04 0.45 -1.40 10.31 0.61 0.09 -0.11 7006
0.91 -0.03 0.53 -1.40 10.31 0.65 0.07 -0.11 7014
0.92 -0.03 0.50 -1.46 10.60 0.70 0.05 -0.11 7020
0.91 -0.04 0.57 -1.51 10.71 0.77 0.02 -0.11 7028
0.89 -0.04 0.56 -1.67 10.71 0.85 0.01 -0.11 7035
0.88 -0.04 0.64 -1.68 10.72 0.92 -0.03 -0.12 7043
0.86 -0.03 0.59 -1.71 10.44 0.98 -0.05 -0.14 7050
0.86 -0.02 0.46 -1.78 10.55 1.04 -0.10 -0.14 7057
0.87 -0.04 0.55 -1.88 10.31 1.07 -0.14 -0.13 7064
0.85 -0.04 0.43 -1.88 10.38 1.10 -0.16 -0.13 7071
0.82 -0.04 0.34 -2.09 10.15 1.13 -0.19 -0.12 7078
0.80 -0.03 0.34 -2.05 10.13 1.16 -0.22 -0.11 7086
0.78 -0.03 0.24 -2.19 10.10 1.20 -0.24 -0.10 7093
0.76 -0.03 0.33 -2.35 10.02 1.23 -0.25 -0.09 7100
0.73 -0.03 0.39 -2.40 10.03 1.26 -0.24 -0.09 7107
0.68 -0.03 0.34 -2.57 10.06 1.29 -0.24 -0.08 7114
0.64 -0.04 1.10 -2.88 9.94 1.31 -0.24 -0.10 7120
0.57 -0.03 0.23 -2.75 9.79 1.31 -0.25 -0.10 7128
0.52 -0.03 0.51 -3.00 10.20 1.37 -0.23 -0.12 7136
0.46 -0.03 0.46 -3.06 9.82 1.36 -0.24 -0.14 7142
0.41 -0.02 0.71 -3.12 10.05 1.36 -0.28 -0.16 7150
0.40 -0.02 0.51 -3.25 10.09 1.36 -0.24 -0.17 7157
0.28 -0.03 0.48 -3.39 9.76 1.38 -0.25 -0.20 7163
0.15 -0.01 0.37 -3.54 9.80 1.39 -0.24 -0.20 7171
0.15 -0.01 0.36 -3.62 9.86 1.37 -0.23 -0.22 7178
0.15 -0.01 0.44 -3.84 9.98 1.36 -0.23 -0.23 7185
0.16 -0.02 0.37 -4.08 10.27 1.35 -0.21 -0.24 7192
0.08 -0.01 0.46 -4.23 10.46 1.31 -0.19 -0.25 7199
0.05 -0.00 0.67 -4.62 10.83 1.24 -0.16 -0.27 7206
0.05 -0.01 0.74 -4.85 11.16 1.19 -0.12 -0.31 7214
0.07 -0.00 0.79 -4.89 10.94 1.09 -0.15 -0.34 7222
0.07 -0.01 0.99 -4.93 10.84 1.01 -0.14 -0.36 7228
0.07 -0.01 1.08 -3.59 11.21 0.92 -0.16 -0.40 7235
0.08 -0.01 0.49 -2.50 11.08 0.77 -0.24 -0.43 7242
0.06 -0.01 0.13 -3.03 11.98 0.71 -0.41 -0.47 7249
0.06 -0.01 0.47 -1.02 11.99 0.72 -0.67 -0.50 7257
0.07 -0.00 1.10 0.88 10.59 0.69 -0.80 -0.55 7264
0.06 -0.01 1.71 2.26 8.17 0.52 -0.76 -0.63 7271
0.04 -0.00 2.54 4.27 7.17 0.24 -0.63 -0.69 7278
0.04 -0.00 2.61 5.68 6.54 -0.06 -0.46 -0.83 7285
0.02 -0.00 2.17 6.35 6.48 -0.39 -0.32 -1.02 7292
0.02 -0.00 0.70 6.09 7.79 -0.62 -0.14 -1.30 7300
0.03 -0.00 1.09 4.19 8.32 -0.68 -0.01 -1.55 7307
0.03 -0.00 0.56 4.40 9.94 -0.81 0.18 -1.69 7314
0.03 -0.00 0.36 4.17 9.47 -0.96 0.20 -1.85 7321
0.03 -0.00 0.28 3.60 8.77 -1.07 0.08 -1.92 7328
0.01 -0.00 0.44 2.68 8.82 -1.20 -0.03 -1.93 7335
0.02 -0.00 0.96 1.84 9.12 -1.24 -0.10 -1.88 7343
0.03 -0.00 1.60 1.11 9.21 -1.28 -0.12 -1.81 7350
0.03 -0.00 2.06 0.42 9.05 -1.29 -0.07 -1.71 7357
0.02 -0.00 2.20 -0.08 8.70 -1.28 0.01 -1.61 7364
0.03 -0.00 2.11 -0.63 8.56 -1.25 0.14 -1.47 7371
0.02 -0.00 1.93 -1.09 8.76 -1.20 0.23 -1.32 7378
0.02 -0.00 1.75 -1.42 8.94 -1.13 0.31 -1.19 7386
0.03 -0.00 1.73 -1.67 8.98 -1.06 0.37 -1.03 7393
0.03 -0.00 1.76 -1.87 9.24 -0.99 0.42 -0.86 7400
0.02 -0.00 1.65 -2.15 9.47 -0.93 0.48 -0.74 7407
0.01 -0.00 1.49 -2.47 9.79 -0.90 0.51 -0.60 7414
0.00 -0.00 1.27 -2.79 9.93 -0.87 0.53 -0.48 7421
0.01 -0.00 1.04 -3.11 10.11 -0.86 0.54 -0.35 7429
0.02 -0.00 0.84 -3.25 10.11 -0.84 0.55 -0.23 7436
0.01 -0.00 0.67 -3.31 10.14 -0.84 0.57 -0.08 7443
0.01 -0.00 0.51 -3.26 9.93 -0.84 0.60 0.08 7450
0.00 -0.00 0.40 -3.27 10.02 -0.82 0.57 0.22 7457
0.00 -0.00 0.24 -3.12 9.90 -0.81 0.57 0.38 7464
0.01 0.00 0.17 -3.01 9.95 -0.79 0.57 0.54 7472
0.02 -0.00 0.07 -3.06 10.01 -0.77 0.55 0.65 7479
0.01 -0.00 -0.03 -3.09 10.03 -0.76 0.53 0.75 7486
0.01 -0.00 -0.14 -3.21 10.08 -0.75 0.50 0.82 7493
0.00 0.00 -0.17 -3.41 10.04 -0.72 0.46 0.86 7500
0.00 0.00 -0.11 -3.57 10.00 -0.70 0.42 0.88 7507
0.00 -0.00 -0.03 -3.54 9.90 -0.67 0.40 0.86 7515
0.01 -0.00 0.01 -3.38 9.99 -0.64 0.38 0.84 7522
0.01 -0.00 0.05 -3.26 10.20 -0.60 0.39 0.80 7529
0.01 -0.00 0.04 -3.09 10.26 -0.58 0.41 0.74 7536
0.00 0.00 0.03 -2.95 10.33 -0.58 0.44 0.68 7543
0.01 -0.00 -0.07 -2.80 10.31 -0.58 0.49 0.62 7550
0.01 -0.00 -0.39 -2.79 10.38 -0.59 0.54 0.57 7558
0.01 -0.00 -0.62 -2.81 10.52 -0.60 0.55 0.52 7565
0.00 -0.00 -0.68 -2.86 10.61 -0.61 0.55 0.48 7572
0.00 0.00 -0.70 -2.99 10.60 -0.63 0.50 0.45 7579
0.00 0.00 -0.74 -3.08 10.46 -0.66 0.50 0.42 7586
0.01 -0.00 -0.75 -3.07 10.14 -0.69 0.46 0.39 7593
0.02 -0.00 -0.65 -3.16 10.01 -0.70 0.42 0.39 7601
0.02 -0.00 -0.39 -3.22 10.01 -0.69 0.38 0.39 7608
0.01 -0.00 -0.11 -3.30 10.06 -0.67 0.38 0.40 7615
0.01 -0.00 0.03 -3.32 10.06 -0.64 0.40 0.41 7622
0.00 0.00 0.13 -3.41 10.15 -0.62 0.46 0.43 7629
0.00 0.00 0.09 -3.45 10.29 -0.61 0.51 0.44 7636
0.01 -0.00 -0.07 -3.59 10.33 -0.60 0.58 0.45 7644
0.00 0.00 -0.29 -3.60 10.19 -0.59 0.62 0.45 7651
0.00 0.00 -0.64 -3.56 9.92 -0.58 0.62 0.44 7658
0.00 0.00 -1.06 -3.44 9.81 -0.56 0.62 0.44 7665
0.00 0.00 -1.18 -3.11 9.82 -0.53 0.60 0.43 7672
0.01 -0.00 -1.24 -2.80 10.00 -0.50 0.58 0.44 7680
0.01 -0.00 -1.26 -2.57 10.21 -0.50 0.57 0.44 7687
0.00 0.00 -1.25 -2.59 10.14 -0.52 0.56 0.40 7694
0.00 0.00 -1.25 -2.71 10.03 -0.55 0.56 0.42 7701
0.00 0.00 -1.36 -2.90 9.89 -0.58 0.55 0.39 7708
0.00 0.00 -1.50 -3.09 9.71 -0.59 0.54 0.36 7715
0.00 0.00 -1.67 -3.28 9.46 -0.58 0.51 0.32 7723
0.00 -0.00 -6.72 -6.45 16.95 -0.40 0.03 0.30 7730
0.00 0.00 -0.21 -2.73 9.20 -0.23 -0.09 0.31 7737
0.00 0.00 -2.63 -5.56 8.65 -0.17 -0.15 0.32 7744
0.00 0.00 -2.61 -5.92 9.48 -0.09 -0.11 0.34 7751
0.00 0.00 -1.99 -4.86 8.82 -0.02 0.00 0.37 7758
0.00 0.00 -2.17 -5.70 8.77 0.03 0.01 0.40 7766
0.00 0.00 -3.09 -6.04 9.18 0.11 -0.01 0.45 7773
0.00 0.00 -3.13 -6.07 8.50 0.15 -0.06 0.50 7780
0.00 0.00 -3.18 -6.33 8.55 0.24 -0.12 0.52 7787
0.00 0.00 -3.41 -7.00 8.48 0.36 -0.18 0.56 7794
0.00 0.00 -3.39 -7.53 7.93 0.46 -0.24 0.58 7801
0.01 0.01 -3.99 -8.34 8.46 0.59 -0.30 0.61 7809
0.00 0.00 -3.81 -8.91 7.89 0.73 -0.37 0.61 7816
-0.00 0.01 -11.94 -10.76 18.87 0.43 -0.80 0.40 7824
0.00 0.00 0.70 -1.77 10.32 0.09 -0.27 0.01 7830
0.00 0.00 -0.63 -2.37 10.01 -0.05 0.00 -0.05 7837
0.00 0.02 0.27 -1.19 9.90 -0.12 0.03 -0.05 7844
0.01 0.02 0.69 -0.76 9.47 -0.12 0.00 -0.02 7852
-0.00 0.01 0.55 -0.79 9.57 -0.13 -0.01 -0.01 7859
-0.00 0.03 0.48 -0.86 10.07 -0.18 0.01 -0.01 7866
-0.00 0.03 0.46 -0.77 9.84 -0.22 0.02 -0.02 7873
0.00 0.04 0.43 -0.71 9.84 -0.20 0.02 -0.04 7880
-0.01 0.05 0.51 -0.76 9.88 -0.16 0.01 -0.05 7887
0.00 0.07 0.47 -0.81 9.95 -0.10 0.02 -0.06 7895
0.02 0.05 0.41 -0.86 9.90 -0.07 0.00 -0.07 7902
0.02 0.07 0.41 -0.91 9.83 -0.07 -0.01 -0.08 7909
-0.00 0.07 0.47 -0.90 9.85 -0.07 -0.02 -0.07 7916
0.04 0.07 0.33 -0.83 9.83 -0.07 -0.02 -0.08 7923
0.02 0.11 0.31 -0.83 9.81 -0.07 -0.01 -0.08 7930
0.04 0.15 0.29 -0.81 9.82 -0.07 -0.00 -0.07 7938
0.03 0.11 0.29 -0.77 9.83 -0.07 0.00 -0.07 7945
0.06 0.11 0.33 -0.76 9.83 -0.06 0.01 -0.07 7952
0.06 0.12 0.32 -0.75 9.82 -0.06 0.03 -0.07 7959
0.08 0.13 0.33 -0.79 9.83 -0.05 0.02 -0.07 7966
0.07 0.18 0.36 -0.76 9.77 -0.05 0.03 -0.10 7973
0.06 0.17 0.36 -0.79 9.81 -0.05 0.04 -0.06 7981
0.06 0.16 0.35 -0.77 9.79 -0.05 0.00 -0.06 7988
0.05 0.19 0.36 -0.78 9.82 -0.05 0.03 -0.06 7995
0.04 0.20 0.34 -0.77 9.81 -0.05 0.03 -0.06 8002
0.07 0.20 0.35 -0.77 9.82 -0.05 0.03 -0.06 8009
0.06 0.20 0.36 -0.74 9.81 -0.04 0.03 -0.06 8016
0.09 0.21 0.37 -0.76 9.81 -0.05 0.03 -0.06 8024
0.08 0.27 0.37 -0.76 9.82 -0.04 0.03 -0.06 8031
0.08 0.26 0.35 -0.72 9.82 -0.04 0.03 -0.06 8038
0.07 0.24 0.34 -0.74 9.82 -0.04 0.03 -0.06 8045
0.08 0.29 0.36 -0.73 9.82 -0.04 0.03 -0.06 8052
0.09 0.28 0.35 -0.76 9.81 -0.04 0.03 -0.06 8059
0.10 0.24 0.30 -0.74 9.83 -0.03 0.03 -0.06 8067
0.12 0.23 0.36 -0.74 9.82 -0.03 0.03 -0.06 8074
0.10 0.30 0.34 -0.74 9.82 -0.03 0.03 -0.05 8081
0.09 0.32 0.32 -0.73 9.81 -0.03 0.04 -0.06 8088
0.10 0.32 0.33 -0.70 9.80 -0.02 0.04 -0.06 8095
0.12 0.33 0.33 -0.69 9.83 -0.02 0.04 -0.05 8102
0.10 0.35 0.34 -0.74 9.82 -0.02 0.04 -0.05 8110
0.10 0.33 0.37 -0.71 9.82 -0.01 0.04 -0.06 8117
0.09 0.35 0.34 -0.70 9.82 -0.01 0.04 -0.06 8124
0.08 0.36 0.33 -0.70 9.81 -0.01 0.04 -0.06 8131
0.11 0.34 0.32 -0.70 9.81 -0.01 0.05 -0.06 8138
0.12 0.35 0.31 -0.70 9.81 -0.00 0.05 -0.06 8145
0.10 0.34 0.32 -0.70 9.83 0.00 0.05 -0.06 8153
0.11 0.33 0.33 -0.69 9.81 0.00 0.05 -0.06 8160
0.09 0.33 0.34 -0.71 9.82 0.01 0.05 -0.06 8167
0.10 0.33 0.34 -0.69 9.82 0.01 0.04 -0.06 8174
0.11 0.30 0.33 -0.67 9.79 0.01 0.05 -0.06 8181
0.13 0.29 0.35 -0.69 9.79 0.01 0.04 -0.06 8188
0.12 0.28 0.34 -0.71 9.79 0.01 0.05 -0.06 8196
0.13 0.26 0.36 -0.71 9.81 0.01 0.05 -0.06 8203
0.12 0.24 0.35 -0.72 9.82 0.01 0.05 -0.06 8210
0.14 0.24 0.33 -0.73 9.80 0.01 0.05 -0.06 8217
0.15 0.25 0.34 -0.72 9.80 0.01 0.05 -0.06 8224
0.16 0.23 0.34 -0.70 9.81 0.01 0.05 -0.07 8231
0.17 0.23 0.34 -0.73 9.82 0.01 0.05 -0.06 8239
0.17 0.20 0.38 -0.72 9.81 0.01 0.05 -0.06 8246
0.18 0.19 0.33 -0.72 9.82 0.01 0.05 -0.06 8253
0.20 0.19 0.36 -0.72 9.81 0.01 0.05 -0.06 8260
0.21 0.17 0.36 -0.74 9.76 0.01 0.05 -0.06 8267
0.20 0.13 0.33 -0.73 9.81 0.01 0.04 -0.06 8274
0.20 0.13 0.39 -0.71 9.80 0.01 0.05 -0.06 8282
0.22 0.10 0.32 -0.73 9.20 0.01 0.04 -0.06 8289
0.24 0.12 0.35 -0.70 9.81 0.01 0.04 -0.07 8296
0.25 0.10 0.34 -0.76 9.81 0.00 0.04 -0.06 8303
0.26 0.08 0.35 -0.72 9.80 0.01 0.04 -0.06 8310
0.27 0.07 0.36 -0.74 9.80 0.01 0.04 -0.07 8317
0.27 0.06 0.35 -0.72 9.80 0.01 0.05 -0.07 8325
0.27 0.06 0.35 -0.71 9.82 0.01 0.04 -0.07 8332
0.30 0.03 0.39 -0.75 9.82 0.01 0.04 -0.07 8339
0.32 0.06 0.35 -0.74 9.82 0.01 0.04 -0.06 8346
0.35 0.06 0.34 -0.77 9.84 0.01 0.04 -0.07 8353
0.34 0.07 0.36 -0.75 9.80 0.01 0.04 -0.06 8360
0.35 0.01 0.34 -0.78 9.82 0.01 0.04 -0.06 8368
0.32 0.04 0.37 -0.76 9.81 0.00 0.04 -0.07 8375
0.33 0.02 0.33 -0.77 9.79 0.00 0.04 -0.06 8382
0.35 0.01 0.39 -0.75 9.83 -0.03 0.04 -0.07 8389
0.36 0.00 0.38 -0.77 9.83 0.01 0.04 -0.07 8396
0.37 -0.01 0.35 -0.74 9.81 0.01 0.04 -0.07 8403
0.37 -0.00 0.37 -0.74 9.82 0.01 0.04 -0.07 8411
0.38 -0.00 0.34 -0.74 10.41 0.01 0.04 -0.06 8418
0.41 -0.01 0.34 -0.77 9.81 0.01 0.04 -0.07 8425
0.43 -0.01 0.34 -0.75 9.80 0.01 0.04 -0.07 8432
0.43 -0.00 0.36 -0.75 9.82 0.02 0.04 -0.07 8439
0.43 0.00 0.37 -0.77 9.80 0.01 0.05 -0.07 8446
0.45 -0.01 0.35 -0.75 9.81 0.01 0.05 -0.07 8454
0.45 -0.01 0.37 -0.81 9.81 0.02 0.05 -0.07 8461
0.47 -0.01 0.37 -0.77 9.82 0.02 0.05 -0.07 8468
0.47 -0.01 0.40 -0.79 9.82 0.02 0.05 -0.07 8475
0.48 -0.02 0.35 -0.78 9.81 0.03 0.05 -0.07 8482
0.47 -0.02 0.38 -0.80 9.82 0.03 0.05 -0.07 8489
0.48 -0.02 0.36 -0.80 9.82 0.03 0.05 -0.07 8497
0.50 -0.02 0.37 -0.79 9.82 0.03 0.05 -0.07 8504
0.51 -0.02 0.40 -0.79 10.42 0.04 0.06 -0.07 8511
0.53 -0.02 0.35 -0.80 9.78 0.04 0.05 -0.07 8518
0.54 -0.02 0.37 -0.83 9.81 0.04 0.05 -0.07 8525
0.55 -0.04 0.40 -0.80 9.83 0.04 0.06 -0.07 8532
0.54 -0.03 0.39 -0.81 9.82 0.05 0.06 -0.07 8540
0.55 -0.03 0.38 -0.80 9.84 0.05 0.07 -0.07 8547
0.56 -0.02 0.42 -0.84 9.81 0.05 0.07 -0.08 8554
0.56 -0.02 0.42 -0.84 9.83 0.06 0.07 -0.08 8561
0.58 -0.03 0.37 -0.86 9.85 0.07 0.07 -0.08 8568
0.60 -0.04 0.38 -0.87 9.85 0.09 0.09 -0.08 8576
0.62 -0.03 0.43 -0.85 9.89 0.10 0.10 -0.09 8583
0.63 -0.03 0.27 -0.84 9.86 0.13 0.12 -0.10 8590
0.64 -0.03 0.03 -0.92 10.05 0.17 0.14 -0.11 8597
0.66 -0.03 0.44 -0.87 9.95 0.23 0.19 -0.13 8604
0.66 -0.03 0.32 -1.00 9.98 0.30 0.24 -0.13 8611
0.66 -0.04 0.55 -0.93 10.66 0.42 0.26 -0.13 8620
0.67 -0.03 0.63 -0.99 10.40 0.73 0.29 -0.13 8627
0.67 -0.02 0.59 -1.10 10.88 0.86 0.30 -0.15 8634
0.70 -0.03 0.66 -1.17 10.60 0.89 0.28 -0.17 8641
0.69 -0.04 0.64 -1.24 10.81 0.91 0.23 -0.17 8648
0.66 -0.03 0.52 -1.41 10.63 0.95 0.20 -0.17 8655
0.60 -0.03 0.45 -1.35 10.57 1.00 0.15 -0.17 8663
0.59 -0.03 0.44 -1.36 10.47 1.03 0.11 -0.16 8670
0.58 -0.02 0.39 -1.35 10.50 1.05 0.10 -0.14 8676
0.56 -0.03 0.43 -1.58 10.45 1.07 0.09 -0.13 8684
0.53 -0.02 0.13 -1.49 10.12 1.09 0.09 -0.12 8691
0.50 -0.04 0.32 -1.74 10.45 1.13 0.09 -0.11 8698
0.44 -0.02 0.42 -1.90 10.44 1.17 0.04 -0.09 8705
0.39 -0.02 0.40 -1.95 10.44 1.22 0.05 -0.08 8712
0.38 -0.01 0.58 -1.97 10.27 1.26 0.05 -0.08 8719
0.32 -0.02 1.20 -2.15 10.08 1.29 0.10 -0.07 8726
0.25 -0.02 0.34 -2.11 9.54 1.29 0.08 -0.06 8733
0.19 -0.02 0.12 -2.01 8.69 1.21 -0.05 -0.05 8740
0.12 -0.01 0.58 -2.33 10.85 1.14 0.10 -0.04 8748
0.10 -0.01 0.13 -2.51 10.66 1.18 0.12 -0.04 8755
0.09 -0.00 0.48 -2.66 9.94 1.21 0.14 -0.01 8762
0.10 -0.01 0.71 -2.69 9.63 1.15 0.18 -0.01 8769
0.06 -0.01 0.63 -2.84 9.91 1.12 0.19 -0.02 8776
0.07 -0.01 0.52 -3.16 10.30 1.09 0.19 -0.02 8783
0.05 -0.01 0.64 -3.19 10.38 1.06 0.19 -0.02 8791
0.05 -0.00 0.40 -3.40 10.56 1.04 0.18 -0.02 8798
0.05 -0.00 0.02 -3.34 11.25 0.99 0.17 -0.00 8805
0.03 -0.00 -0.04 -3.04 11.36 0.91 0.12 0.00 8812
0.01 -0.00 -0.28 -1.21 11.28 0.91 0.03 0.01 8819
0.01 -0.00 -0.84 0.93 10.88 0.78 -0.12 -0.01 8826
0.00 -0.00 -0.59 2.12 10.15 0.54 -0.29 -0.04 8834
0.00 -0.00 -0.34 2.58 9.66 0.22 -0.45 -0.11 8841
0.02 -0.00 -0.22 3.36 9.67 -0.03 -0.66 -0.22 8848
0.01 -0.00 -0.08 3.55 9.44 -0.17 -0.75 -0.40 8855
0.01 -0.00 0.50 2.69 9.14 -0.24 -0.80 -0.60 8862
0.00 -0.00 1.20 2.43 9.82 -0.30 -0.85 -0.76 8869
0.01 -0.00 1.37 2.56 9.87 -0.47 -0.77 -0.90 8877
0.01 -0.00 1.78 2.35 9.28 -0.62 -0.68 -0.96 8884
0.00 0.00 1.91 1.46 8.73 -0.67 -0.64 -1.02 8891
0.00 0.00 1.87 0.70 8.58 -0.68 -0.60 -1.04 8898
0.00 0.00 1.97 0.10 8.29 -0.63 -0.56 -1.04 8905
0.00 0.00 1.99 -0.28 8.10 -0.54 -0.54 -1.03 8912
0.00 0.00 1.97 -0.55 8.14 -0.44 -0.55 -1.02 8920
0.00 0.00 2.15 -0.72 8.22 -0.36 -0.54 -1.00 8927
0.00 0.00 2.35 -0.85 8.56 -0.29 -0.52 -1.00 8934
0.00 0.00 2.71 -0.84 8.93 -0.24 -0.46 -0.99 8941
0.00 0.00 3.06 -0.77 9.22 -0.21 -0.37 -0.98 8948
0.00 0.00 3.34 -0.73 9.45 -0.21 -0.22 -0.96 8955
0.00 0.00 3.56 -0.59 9.52 -0.23 -0.02 -0.92 8963
0.00 0.00 3.44 -0.52 9.68 -0.28 0.16 -0.86 8970
0.00 0.00 3.09 -0.37 9.74 -0.35 0.30 -0.76 8977
0.00 0.00 2.65 -0.41 9.65 -0.41 0.37 -0.64 8984
0.00 0.00 2.18 -0.51 9.49 -0.46 0.41 -0.52 8991
0.00 0.00 1.76 -0.70 9.44 -0.49 0.41 -0.35 8998
0.00 0.00 1.45 -0.94 9.44 -0.51 0.37 -0.20 9006
0.00 0.00 1.24 -1.31 9.48 -0.51 0.32 -0.05 9013
0.00 0.00 1.29 -1.60 9.56 -0.50 0.27 0.08 9020
0.00 0.00 1.29 -1.73 9.62 -0.49 0.24 0.18 9027
0.00 0.00 1.31 -2.04 9.72 -0.49 0.22 0.25 9034
0.00 0.00 1.36 -2.12 9.84 -0.50 0.22 0.33 9041
0.00 0.00 1.36 -2.21 9.83 -0.51 0.22 0.33 9049
0.00 -0.00 1.30 -2.15 9.82 -0.54 0.21 0.36 9056
0.00 0.00 1.22 -2.06 9.83 -0.55 0.22 0.37 9063
0.00 0.00 1.11 -1.95 9.80 -0.56 0.23 0.41 9070
0.00 0.00 0.98 -1.92 9.81 -0.58 0.24 0.45 9077
0.00 0.00 0.93 -1.98 9.89 -0.60 0.25 0.49 9084
0.00 0.00 0.95 -2.10 10.01 -0.62 0.24 0.53 9092
0.00 -0.00 1.00 -2.20 10.09 -0.64 0.25 0.56 9099
0.00 0.00 0.97 -2.44 10.03 -0.65 0.26 0.59 9106
0.00 0.00 0.89 -2.62 10.07 -0.65 0.26 0.60 9113
0.00 0.00 0.78 -2.74 10.01 -0.65 0.25 0.60 9120
0.00 0.00 0.73 -2.71 9.93 -0.64 0.24 0.60 9127
0.00 0.00 0.71 -2.68 9.87 -0.64 0.22 0.58 9135
0.00 -0.00 0.82 -2.62 9.85 -0.63 0.22 0.58 9142
0.00 0.00 0.84 -2.57 9.84 -0.62 0.22 0.58 9149
0.00 0.00 0.73 -2.60 9.85 -0.60 0.23 0.57 9156
0.00 0.00 0.60 -2.63 9.87 -0.59 0.25 0.56 9163
0.00 0.00 0.53 -2.78 9.98 -0.58 0.27 0.50 9170
0.00 -0.00 0.45 -2.91 9.99 -0.57 0.29 0.50 9178
0.00 0.00 0.29 -3.10 10.07 -0.59 0.30 0.44 9185
0.00 0.00 0.15 -3.28 10.02 -0.59 0.31 0.37 9192
0.00 0.00 0.04 -3.21 9.63 -0.63 0.31 0.29 9199
0.00 0.00 -0.03 -2.96 9.41 -0.60 0.30 0.24 9206
0.00 0.00 -0.10 -2.93 9.43 -0.59 0.28 0.20 9213
0.00 0.00 -0.04 -2.93 9.55 -0.57 0.27 0.16 9221
0.00 0.00 0.02 -2.97 9.68 -0.54 0.27 0.15 9228
0.00 0.00 0.18 -2.95 9.83 -0.52 0.27 0.14 9235
0.00 0.00 0.29 -2.98 10.00 -0.51 0.28 0.13 9242
0.00 0.00 0.37 -2.97 10.15 -0.52 0.31 0.14 9249
0.00 0.00 0.38 -3.09 10.24 -0.54 0.34 0.16 9256
0.00 0.00 0.18 -3.19 10.11 -0.54 0.37 0.18 9264
0.00 0.00 0.11 -3.34 9.99 -0.55 0.38 0.20 9271
0.00 0.00 0.06 -3.46 9.83 -0.53 0.38 0.20 9278
0.00 0.00 0.15 -3.37 9.80 -0.51 0.39 0.18 9285
0.00 0.00 0.22 -3.19 9.60 -0.49 0.43 0.17 9292
0.00 0.00 0.19 -3.13 9.59 -0.46 0.47 0.14 9299
0.01 -0.00 0.02 -2.98 9.68 -0.44 0.53 0.17 9307
0.00 -0.00 -0.22 -2.87 9.75 -0.43 0.57 0.17 9314
0.00 0.00 -0.46 -2.83 9.74 -0.42 0.57 0.18 9321
0.00 0.00 -0.70 -2.89 9.70 -0.41 0.51 0.20 9328
0.00 -0.00 -0.64 -2.91 9.73 -0.41 0.45 0.22 9335
0.00 -0.00 -0.45 -2.91 9.82 -0.40 0.40 0.23 9342
0.00 -0.00 -0.16 -2.77 9.70 -0.41 0.40 0.24 9350
0.00 0.00 -0.08 -2.65 9.48 -0.43 0.42 0.25 9357
0.00 0.00 -1.98 -2.69 20.93 -0.08 -0.25 0.30 9364
0.00 0.00 -0.35 -1.85 6.51 -0.09 -0.10 0.38 9371
0.00 0.00 -2.48 -4.39 8.36 -0.01 -0.16 0.47 9378
0.00 0.00 -2.50 -5.49 9.00 0.06 -0.22 0.53 9385
0.00 0.00 -2.06 -5.11 8.43 0.15 -0.24 0.55 9393
0.00 0.00 -2.06 -5.45 8.04 0.26 -0.33 0.56 9400
0.00 0.00 -2.91 -6.41 8.29 0.37 -0.46 0.56 9407
0.00 0.00 -2.81 -6.44 8.20 0.51 -0.48 0.58 9414
0.00 0.00 -2.83 -6.90 8.52 0.69 -0.51 0.62 9421
0.00 0.00 -3.20 -7.49 8.36 0.81 -0.57 0.67 9428
0.00 0.00 -3.52 -7.79 8.39 0.95 -0.62 0.71 9436
-0.00 0.00 -9.06 -7.30 23.04 0.65 -1.25 0.57 9443
0.00 0.00 -1.77 -2.70 16.72 0.05 -0.40 0.11 9450
0.00 0.00 -1.37 -1.76 8.42 -0.10 0.03 -0.03 9457
-0.00 0.02 -0.01 -0.95 9.80 -0.12 0.02 -0.06 9464
0.01 0.00 0.68 -0.82 9.63 -0.12 -0.02 -0.05 9472
-0.00 0.00 0.69 -0.83 9.64 -0.12 -0.04 -0.04 9479
0.02 -0.00 0.46 -0.96 9.80 -0.15 -0.04 -0.03 9486
0.01 0.02 0.60 -1.00 10.38 -0.18 -0.02 -0.03 9493
0.01 0.05 0.29 -0.89 10.11 -0.20 -0.03 -0.04 9500
0.01 0.04 0.43 -0.82 9.98 -0.15 -0.03 -0.05 9507
0.03 0.02 0.42 -0.88 9.94 -0.11 -0.01 -0.05 9515
0.02 0.05 0.45 -0.87 9.88 -0.09 -0.00 -0.06 9522
0.04 0.03 0.30 -0.96 9.86 -0.08 -0.01 -0.05 9529
0.03 0.07 0.34 -0.88 9.90 -0.07 -0.01 -0.06 9536
0.04 0.05 0.34 -0.83 9.21 -0.07 -0.00 -0.05 9543
0.07 0.09 0.31 -0.87 9.82 -0.07 -0.00 -0.05 9550
0.07 0.10 0.29 -0.80 9.82 -0.06 0.00 -0.05 9558
0.08 0.11 0.30 -0.84 9.83 -0.06 0.02 -0.05 9565
0.07 0.13 0.32 -0.82 9.81 -0.07 0.02 -0.05 9572
0.06 0.14 0.32 -0.82 9.81 -0.07 0.03 -0.05 9579
0.07 0.18 0.30 -0.74 9.78 -0.07 0.03 -0.05 9586
0.08 0.18 0.33 -0.79 9.74 -0.07 0.04 -0.04 9593
0.10 0.21 0.31 -0.80 9.79 -0.07 0.04 -0.05 9601
0.10 0.24 0.36 -0.79 9.80 -0.08 0.04 -0.04 9608
0.10 0.21 0.41 -0.80 9.83 -0.07 0.04 -0.05 9615
0.09 0.30 0.36 -0.83 9.81 -0.07 0.04 -0.04 9622
0.10 0.29 0.31 -0.80 9.82 -0.07 0.04 -0.05 9629
0.10 0.32 0.36 -0.81 9.82 -0.07 0.03 -0.05 9636
0.09 0.37 0.30 -0.75 9.81 -0.07 0.03 -0.05 9644
0.08 0.38 0.38 -0.75 9.87 -0.06 0.03 -0.05 9651
0.08 0.44 0.42 -0.76 9.86 -0.06 0.03 -0.05 9658
0.08 0.47 0.33 -0.74 9.83 -0.05 0.04 -0.06 9665
0.09 0.44 0.30 -0.75 9.86 -0.05 0.04 -0.05 9672
0.09 0.46 0.35 -0.74 9.87 -0.04 0.04 -0.06 9679
0.09 0.49 0.35 -0.72 9.83 -0.04 0.04 -0.06 9687
0.07 0.56 0.36 -0.73 9.81 -0.03 0.04 -0.06 9694
0.06 0.57 0.29 -0.76 9.83 -0.03 0.05 -0.06 9701
0.08 0.58 0.34 -0.73 9.82 -0.03 0.04 -0.06 9708
0.08 0.57 0.34 -0.70 9.81 -0.02 0.04 -0.05 9715
0.08 0.61 0.33 -0.75 9.82 -0.02 0.04 -0.06 9722
0.08 0.62 0.36 -0.73 9.81 -0.02 0.04 -0.06 9730
0.08 0.60 0.37 -0.73 9.82 -0.01 0.04 -0.06 9737
0.06 0.60 0.33 -0.71 9.82 -0.01 0.04 -0.06 9744
0.07 0.58 0.33 -0.71 9.82 -0.00 0.04 -0.06 9751
0.07 0.60 0.42 -0.72 9.82 -0.01 0.04 -0.06 9758
0.08 0.59 0.35 -0.70 9.20 -0.00 0.04 -0.06 9765
0.08 0.59 0.32 -0.75 9.82 0.00 0.04 -0.06 9773
0.06 0.57 0.36 -0.72 9.77 0.00 0.04 -0.06 9780
0.06 0.58 0.39 -0.73 9.83 0.00 0.04 -0.06 9787
0.07 0.60 0.36 -0.70 9.82 0.00 0.04 -0.06 9794
0.08 0.59 0.36 -0.71 9.78 0.00 0.04 -0.06 9801
0.08 0.58 0.32 -0.70 9.81 0.00 0.04 -0.06 9808
0.07 0.57 0.33 -0.74 9.75 -0.00 0.04 -0.06 9816
0.07 0.55 0.34 -0.72 9.81 -0.00 0.04 -0.06 9823
0.07 0.55 0.33 -0.72 9.81 -0.00 0.04 -0.06 9830
0.09 0.55 0.38 -0.67 9.80 -0.00 0.04 -0.06 9837
0.09 0.55 0.33 -0.75 9.80 0.00 0.04 -0.06 9844
0.08 0.55 0.35 -0.72 9.81 0.00 0.04 -0.06 9851
0.08 0.54 0.31 -0.72 9.21 -0.00 0.03 -0.06 9859
0.08 0.54 0.37 -0.73 9.81 -0.00 0.03 -0.06 9866
0.08 0.55 0.35 -0.72 9.77 -0.00 0.03 -0.07 9873
0.09 0.54 0.34 -0.70 9.81 -0.00 0.03 -0.07 9880
0.10 0.54 0.31 -0.70 9.80 -0.00 0.03 -0.07 9887
0.08 0.53 0.33 -0.72 10.42 -0.00 0.03 -0.07 9894
0.08 0.52 0.35 -0.71 9.81 -0.00 0.03 -0.06 9902
0.07 0.52 0.34 -0.76 9.82 -0.00 0.03 -0.07 9909
0.08 0.51 0.31 -0.74 9.81 -0.00 0.03 -0.07 9916
0.08 0.53 0.32 -0.75 9.80 -0.00 0.03 -0.06 9923
0.10 0.53 0.33 -0.68 9.83 -0.00 0.04 -0.06 9930
0.09 0.51 0.38 -0.78 9.82 -0.00 0.03 -0.07 9937
0.09 0.49 0.32 -0.76 9.82 -0.00 0.03 -0.07 9945
0.08 0.49 0.32 -0.75 9.79 -0.00 0.03 -0.07 9952
0.09 0.48 0.28 -0.71 9.80 -0.00 0.03 -0.07 9959
0.09 0.49 0.31 -0.71 9.82 -0.00 0.03 -0.07 9966
0.09 0.49 0.31 -0.76 9.82 0.00 0.04 -0.06 9973
0.08 0.47 0.31 -0.75 9.81 -0.00 0.04 -0.06 9980
0.09 0.45 0.31 -0.76 9.82 0.00 0.04 -0.07 9988
0.06 0.47 0.34 -0.73 9.81 0.00 0.04 -0.07 9995
0.08 0.45 0.31 -0.71 9.80 0.00 0.04 -0.07 10002
0.10 0.41 0.32 -0.74 9.80 0.00 0.04 -0.07 10009
0.09 0.43 0.33 -0.74 9.82 0.00 0.04 -0.07 10016
0.10 0.40 0.34 -0.74 9.79 -0.00 0.04 -0.07 10023
0.09 0.40 0.32 -0.75 9.81 0.00 0.04 -0.06 10031
0.09 0.41 0.32 -0.75 9.81 -0.00 0.04 -0.07 10038
0.09 0.40 0.29 -0.74 9.80 -0.00 0.04 -0.06 10045
0.10 0.41 0.30 -0.76 9.81 -0.00 0.04 -0.07 10052
0.09 0.38 0.28 -0.73 9.76 0.00 0.04 -0.07 10059
0.10 0.37 0.33 -0.73 9.76 -0.00 0.04 -0.06 10066
0.09 0.35 0.32 -0.70 9.78 0.00 0.04 -0.06 10074
0.09 0.36 0.36 -0.71 9.82 0.00 0.05 -0.06 10081
0.09 0.39 0.30 -0.76 9.80 0.00 0.05 -0.07 10088
0.12 0.34 0.33 -0.71 9.81 0.00 0.04 -0.04 10095
0.10 0.36 0.32 -0.71 9.80 0.00 0.04 -0.07 10102
0.10 0.34 0.34 -0.77 9.82 0.00 0.05 -0.07 10109
0.10 0.32 0.31 -0.76 9.20 0.01 0.05 -0.07 10117
0.10 0.32 0.32 -0.76 9.81 0.01 0.05 -0.07 10124
0.11 0.33 0.35 -0.74 9.81 0.01 0.05 -0.06 10131
0.13 0.29 0.35 -0.77 9.81 0.01 0.05 -0.07 10138
0.13 0.24 0.32 -0.75 9.77 0.01 0.05 -0.07 10145
0.13 0.21 0.35 -0.75 9.81 0.01 0.05 -0.06 10152
0.12 0.19 0.30 -0.77 9.81 0.02 0.06 -0.07 10160
0.12 0.20 0.31 -0.73 9.82 0.02 0.06 -0.07 10167
0.12 0.17 0.33 -0.77 9.81 0.02 0.06 -0.06 10174
0.14 0.13 0.32 -0.77 9.84 0.03 0.06 -0.07 10181
0.14 0.11 0.36 -0.77 9.87 0.04 0.06 -0.07 10188
0.20 0.02 0.36 -0.74 9.83 0.05 0.07 -0.06 10195
0.19 0.02 0.37 -0.81 9.82 0.05 0.07 -0.07 10203
0.22 0.01 0.36 -0.79 9.86 0.06 0.07 -0.06 10210
0.24 0.01 0.32 -0.84 9.84 0.10 0.08 -0.07 10217
0.22 -0.01 0.37 -0.80 9.95 0.08 0.09 -0.07 10224
0.21 -0.01 0.38 -0.86 9.88 0.09 0.10 -0.07 10231
0.20 -0.02 0.41 -0.85 9.96 0.11 0.11 -0.07 10238
0.20 -0.02 0.34 -0.74 9.91 0.13 0.14 -0.07 10246
0.21 -0.01 0.23 -0.92 10.03 0.17 0.17 -0.06 10254
0.22 -0.02 1.21 -1.04 10.40 0.20 0.22 -0.12 10260
0.22 -0.02 0.96 -0.86 10.65 0.37 0.36 -0.11 10267
0.22 -0.02 0.32 -0.92 11.10 0.99 0.48 -0.09 10274
0.21 -0.02 0.99 -1.29 12.48 1.23 0.50 -0.11 10283
0.20 -0.02 0.30 -1.09 11.08 1.18 0.37 -0.12 10289
0.19 -0.01 0.45 -1.08 10.79 1.20 0.29 -0.10 10296
0.19 -0.02 0.27 -1.32 11.18 1.26 0.18 -0.09 10303
0.16 -0.02 0.31 -1.27 10.36 1.31 0.20 -0.07 10310
0.15 -0.01 0.77 -1.57 10.24 1.30 0.12 -0.06 10317
0.12 -0.01 0.27 -1.54 10.53 1.30 0.23 -0.05 10324
0.13 0.00 0.22 -1.56 10.31 1.32 0.21 -0.03 10332
0.14 -0.01 0.24 -1.73 10.55 1.32 0.24 -0.01 10339
0.10 -0.01 0.32 -1.94 10.64 1.33 0.34 0.02 10346
0.07 -0.01 -0.02 -2.18 10.34 1.34 0.39 0.04 10353
0.06 -0.01 -0.13 -2.15 10.07 1.32 0.44 0.08 10360
0.06 -0.00 -0.20 -2.32 9.83 1.29 0.44 0.13 10368
0.06 0.00 -0.53 -2.59 10.09 1.26 0.44 0.18 10375
0.03 -0.00 -0.52 -2.51 10.29 1.23 0.42 0.26 10382
0.05 -0.00 -0.64 -3.02 10.50 1.19 0.39 0.31 10389
0.03 -0.00 -0.80 -2.72 10.33 1.16 0.33 0.37 10396
0.03 -0.00 -0.71 -2.52 10.70 1.12 0.23 0.43 10403
0.02 -0.00 -0.82 -2.18 10.68 1.06 0.10 0.46 10411
0.03 0.00 -1.02 -0.28 10.77 0.93 -0.05 0.45 10418
0.04 -0.00 -1.17 1.03 10.57 0.75 -0.19 0.32 10425
0.03 -0.00 -1.77 1.01 10.55 0.48 -0.33 0.08 10432
0.02 -0.00 -2.73 0.41 10.75 0.27 -0.32 -0.36 10439
0.00 0.00 -2.88 -0.37 10.84 0.12 -0.30 -0.89 10446
0.00 0.00 -2.74 0.12 11.15 0.07 -0.44 -1.37 10454
-0.00 0.01 -2.93 0.68 11.08 -0.06 -0.53 -1.71 10461
0.02 0.00 -1.81 1.41 10.00 -0.23 -0.66 -1.94 10468
0.00 0.00 -1.04 1.66 9.36 -0.27 -0.84 -2.10 10475
0.00 0.00 -0.39 1.57 9.26 -0.28 -0.95 -2.18 10482
0.00 0.00 0.43 1.60 9.09 -0.25 -1.01 -2.20 10489
0.00 0.00 0.99 1.54 8.84 -0.22 -1.07 -2.16 10497
-0.00 0.01 1.55 1.36 8.70 -0.18 -1.12 -2.11 10504
0.00 0.00 2.01 1.14 8.57 -0.15 -1.13 -2.01 10511
0.00 0.00 2.47 0.97 9.13 -0.14 -1.12 -1.87 10518
0.00 0.00 3.06 0.68 9.52 -0.16 -1.00 -1.79 10525
0.00 0.00 4.24 0.35 9.81 -0.20 -0.79 -1.66 10532
-0.00 0.00 4.18 0.11 9.71 -0.27 -0.53 -1.55 10540
-0.00 0.00 4.26 -0.14 9.23 -0.35 -0.18 -1.41 10547
0.00 0.00 4.05 -0.40 8.95 -0.40 0.10 -1.29 10554
0.00 0.00 3.71 -0.74 9.07 -0.41 0.36 -1.15 10561
0.00 0.00 3.17 -1.01 9.13 -0.40 0.47 -0.99 10568
0.00 0.00 2.79 -1.10 9.18 -0.35 0.46 -0.85 10575
0.00 0.00 2.62 -1.01 9.32 -0.32 0.34 -0.66 10583
0.00 0.00 2.54 -0.72 9.56 -0.31 0.15 -0.47 10590
0.00 0.00 2.61 -0.54 9.59 -0.33 0.01 -0.31 10597
0.00 0.00 2.63 -0.56 9.57 -0.36 -0.11 -0.13 10604
0.00 0.00 2.60 -0.75 9.50 -0.40 -0.17 0.01 10611
0.00 0.00 2.66 -0.99 9.50 -0.44 -0.17 0.14 10618
-0.00 0.00 2.65 -1.19 9.48 -0.47 -0.08 0.23 10626
0.00 -0.00 2.66 -1.45 9.45 -0.50 -0.00 0.29 10633
0.00 0.00 2.55 -1.65 9.37 -0.57 0.13 0.32 10640
0.00 0.00 2.34 -1.94 9.28 -0.55 0.24 0.33 10647
0.00 0.00 2.09 -2.14 9.30 -0.55 0.35 0.31 10654
0.00 0.00 1.89 -2.39 9.33 -0.54 0.43 0.28 10661
0.00 0.00 1.72 -2.50 9.38 -0.52 0.42 0.24 10669
0.00 0.00 1.55 -2.44 9.46 -0.50 0.42 0.19 10676
0.00 0.00 1.45 -2.42 9.49 -0.48 0.39 0.15 10683
0.00 0.00 1.44 -2.46 9.50 -0.49 0.35 0.12 10690
0.00 0.00 1.49 -2.44 9.44 -0.48 0.30 0.09 10697
0.00 0.00 1.60 -2.44 9.41 -0.48 0.27 0.07 10704
0.00 0.00 1.72 -2.38 9.42 -0.47 0.23 0.06 10712
0.00 0.00 1.79 -2.39 9.59 -0.47 0.22 0.06 10719
0.00 0.00 1.86 -2.40 9.69 -0.46 0.22 0.07 10726
0.00 0.00 2.00 -2.31 9.71 -0.47 0.26 0.10 10733
0.00 0.00 2.01 -2.32 9.81 -0.49 0.31 0.14 10740
0.00 0.00 1.99 -2.37 9.85 -0.53 0.39 0.18 10747
0.00 0.00 1.90 -2.50 9.80 -0.55 0.46 0.23 10755
0.00 0.00 1.71 -2.67 9.83 -0.57 0.52 0.26 10762
0.00 0.00 1.43 -2.87 9.82 -0.58 0.53 0.29 10769
0.00 0.00 1.26 -2.93 9.80 -0.57 0.53 0.30 10776
0.00 0.00 1.20 -2.99 9.73 -0.56 0.50 0.30 10783
0.00 0.00 1.26 -3.07 9.71 -0.56 0.48 0.29 10790
0.00 0.00 1.31 -3.06 9.61 -0.55 0.47 0.26 10798
0.00 0.00 1.27 -3.03 9.60 -0.54 0.50 0.24 10805
0.00 0.00 1.20 -3.04 9.53 -0.52 0.55 0.21 10812
0.00 0.00 1.04 -3.06 9.51 -0.49 0.60 0.18 10819
0.00 0.00 0.80 -3.06 9.47 -0.47 0.63 0.14 10826
0.00 0.00 0.59 -3.00 9.54 -0.45 0.63 0.12 10833
0.00 0.00 0.36 -2.98 9.70 -0.44 0.63 0.10 10841
0.00 0.00 0.22 -3.02 9.94 -0.44 0.62 0.09 10848
0.00 0.00 0.16 -3.09 10.05 -0.45 0.59 0.08 10855
0.00 0.00 0.31 -3.25 10.13 -0.47 0.55 0.07 10862
0.00 0.00 0.49 -3.44 9.99 -0.50 0.52 0.05 10869
0.00 0.00 0.66 -3.71 9.82 -0.50 0.49 0.02 10876
0.00 -0.00 0.89 -3.93 9.54 -0.48 0.49 -0.01 10884
0.00 0.00 1.08 -3.93 9.42 -0.43 0.50 -0.04 10891
0.00 0.00 1.21 -3.60 9.18 -0.34 0.52 -0.07 10898
0.00 0.00 1.17 -3.15 9.21 -0.30 0.56 -0.06 10905
0.00 0.00 0.90 -2.72 9.46 -0.24 0.60 -0.01 10912
0.00 0.00 0.60 -2.34 9.83 -0.20 0.59 0.06 10919
0.00 0.00 0.42 -2.14 10.07 -0.20 0.55 0.14 10927
0.00 0.00 0.33 -2.09 10.30 -0.22 0.49 0.24 10934
0.00 0.00 0.35 -2.19 10.36 -0.27 0.46 0.34 10941
0.00 0.00 0.35 -2.23 10.39 -0.31 0.46 0.42 10948
0.00 0.00 0.29 -2.37 10.23 -0.35 0.50 0.50 10955
0.00 0.00 0.06 -2.40 10.03 -0.37 0.54 0.57 10962
0.00 0.00 -0.26 -2.50 9.92 -0.38 0.55 0.61 10970
0.00 0.00 -0.58 -2.61 9.82 -0.38 0.55 0.64 10977
0.00 0.00 -0.95 -2.76 9.74 -0.37 0.54 0.66 10984
0.00 0.00 -1.42 -2.86 9.54 -0.36 0.52 0.67 10991
0.00 0.00 -1.75 -2.99 9.32 -0.34 0.49 0.66 10998
0.00 0.00 -2.11 -3.16 9.29 -0.29 0.45 0.66 11005
0.00 0.00 -9.67 -7.81 9.05 -0.25 0.32 0.65 11013
0.00 0.00 -7.10 -4.12 8.61 0.08 -0.52 0.73 11020
0.00 0.00 -2.99 -3.02 6.55 0.13 -0.75 0.72 11027
0.00 0.00 -3.87 -5.58 9.22 0.13 -0.91 0.72 11034
0.00 0.00 -4.08 -5.38 9.69 0.19 -1.01 0.70 11041
0.00 -0.00 -3.18 -4.75 8.86 0.29 -0.99 0.65 11048
0.00 0.00 -3.85 -5.43 8.85 0.41 -0.96 0.62 11056
0.00 0.00 -4.36 -5.60 8.80 0.53 -0.92 0.63 11063
0.00 0.00 -5.45 -3.60 10.81 0.76 -0.71 0.77 11070
0.00 0.00 -5.84 -4.94 9.10 0.88 -0.62 0.87 11077
-0.00 0.00 -5.48 -3.54 9.97 1.02 -0.64 0.94 11084
0.00 -0.00 -7.54 -4.14 13.52 0.44 -1.14 0.47 11091
0.00 0.00 -1.31 -2.70 11.00 -0.00 -0.21 -0.02 11099
0.00 0.00 0.32 -1.55 9.51 -0.10 0.06 -0.04 11106
-0.00 0.00 0.04 -0.72 9.82 -0.15 0.05 -0.08 11113
-0.00 0.00 0.69 -0.74 9.79 -0.15 0.03 -0.05 11120
-0.00 0.01 0.72 -0.92 9.98 -0.16 0.01 -0.03 11127
-0.00 0.01 0.50 -0.95 9.88 -0.18 0.02 -0.02 11134
-0.00 0.00 0.33 -0.83 9.90 -0.16 0.02 -0.03 11142
-0.00 0.01 0.31 -0.80 9.89 -0.13 0.03 -0.04 11149
-0.00 0.02 0.42 -0.85 9.82 -0.12 0.03 -0.04 11156
-0.00 0.03 0.51 -0.86 9.84 -0.12 0.03 -0.04 11163
0.00 0.03 0.45 -0.88 9.83 -0.11 0.03 -0.04 11170
0.04 0.03 0.35 -0.85 9.83 -0.11 0.02 -0.05 11177
0.03 0.06 0.36 -0.85 9.82 -0.11 0.02 -0.04 11185
0.03 0.04 0.38 -0.81 9.80 -0.11 0.01 -0.05 11192
0.03 0.06 0.35 -0.82 9.82 -0.10 0.01 -0.05 11199
0.04 0.10 0.34 -0.79 9.82 -0.10 0.01 -0.05 11206
0.04 0.15 0.34 -0.83 9.80 -0.10 0.02 -0.05 11213
0.04 0.15 0.35 -0.76 9.80 -0.10 0.02 -0.05 11220
0.03 0.21 0.37 -0.77 9.82 -0.09 0.03 -0.05 11228
0.02 0.24 0.45 -0.77 9.78 -0.09 0.03 -0.05 11235
0.01 0.30 0.32 -0.71 9.76 -0.09 0.03 -0.05 11242
0.03 0.28 0.37 -0.67 9.79 -0.08 0.03 -0.05 11249
0.04 0.29 0.43 -0.73 9.82 -0.08 0.03 -0.05 11256
0.02 0.35 0.33 -0.73 9.83 -0.07 0.03 -0.05 11264
0.01 0.35 0.41 -0.69 9.82 -0.06 0.04 -0.05 11271
0.00 0.37 0.37 -0.73 9.81 -0.06 0.04 -0.05 11278
-0.01 0.44 0.37 -0.72 9.82 -0.05 0.04 -0.05 11285
-0.01 0.51 0.37 -0.69 9.86 -0.05 0.03 -0.05 11292
0.02 0.53 0.44 -0.72 9.83 -0.04 0.03 -0.06 11299
0.02 0.51 0.39 -0.69 9.83 -0.04 0.03 -0.06 11307
0.02 0.50 0.41 -0.70 9.81 -0.03 0.03 -0.06 11314
0.00 0.56 0.40 -0.69 9.83 -0.03 0.03 -0.06 11321
0.01 0.55 0.40 -0.71 9.83 -0.03 0.03 -0.06 11328
0.02 0.59 0.35 -0.68 9.82 -0.02 0.03 -0.06 11335
0.03 0.57 0.35 -0.69 9.82 -0.02 0.03 -0.07 11342
0.02 0.58 0.36 -0.66 9.82 -0.01 0.03 -0.06 11350
0.02 0.58 0.36 -0.70 9.83 -0.01 0.04 -0.07 11357
0.01 0.58 0.35 -0.71 9.83 -0.01 0.03 -0.07 11364
0.02 0.59 0.35 -0.71 9.81 -0.00 0.04 -0.06 11371
0.02 0.57 0.38 -0.70 9.82 0.00 0.04 -0.07 11378
0.02 0.58 0.37 -0.69 9.83 0.00 0.04 -0.07 11385
0.02 0.56 0.35 -0.68 9.81 0.01 0.04 -0.07 11393
0.02 0.56 0.35 -0.70 9.81 0.00 0.04 -0.06 11400
0.01 0.56 0.33 -0.68 9.81 0.00 0.05 -0.06 11407
0.02 0.55 0.36 -0.71 9.78 -0.00 0.04 -0.07 11414
0.02 0.55 0.39 -0.72 9.81 0.00 0.04 -0.07 11421
0.02 0.54 0.36 -0.71 9.80 -0.00 0.04 -0.06 11428
0.02 0.54 0.38 -0.72 9.80 -0.00 0.04 -0.07 11436
0.01 0.52 0.38 -0.70 9.82 0.00 0.04 -0.07 11443
0.01 0.53 0.38 -0.70 9.81 -0.00 0.04 -0.07 11450
0.01 0.53 0.32 -0.69 9.84 -0.00 0.04 -0.07 11457
0.01 0.54 0.34 -0.73 10.42 0.00 0.04 -0.07 11464
0.01 0.51 0.34 -0.74 9.78 -0.00 0.04 -0.07 11471
0.01 0.51 0.33 -0.69 9.81 -0.00 0.04 -0.07 11479
0.01 0.51 0.37 -0.72 9.81 -0.00 0.04 -0.07 11486
-0.00 0.50 0.34 -0.71 9.80 -0.00 0.04 -0.07 11493
-0.00 0.51 0.38 -0.68 9.79 0.00 0.04 -0.06 11500
0.02 0.48 0.36 -0.69 9.81 0.00 0.04 -0.06 11507
0.02 0.48 0.36 -0.71 9.81 0.00 0.04 -0.07 11514
0.02 0.46 0.39 -0.73 9.82 0.00 0.04 -0.06 11522
0.01 0.43 0.36 -0.73 9.82 0.00 0.04 -0.06 11529
0.03 0.42 0.35 -0.72 9.78 0.00 0.04 -0.07 11536
0.03 0.42 0.36 -0.69 9.80 0.00 0.04 -0.07 11543
0.05 0.41 0.35 -0.72 9.79 0.00 0.05 -0.07 11550
0.05 0.43 0.36 -0.69 9.82 0.00 0.05 -0.07 11557
0.06 0.39 0.37 -0.73 9.80 0.00 0.04 -0.06 11565
0.05 0.39 0.39 -0.72 9.81 0.00 0.04 -0.07 11572
0.06 0.36 0.36 -0.71 9.81 0.01 0.05 -0.06 11579
0.08 0.34 0.38 -0.72 9.81 0.00 0.04 -0.07 11586
0.09 0.32 0.38 -0.72 9.20 0.01 0.04 -0.07 11593
0.10 0.33 0.37 -0.73 9.81 0.01 0.04 -0.06 11600
0.10 0.29 0.38 -0.73 9.81 0.01 0.04 -0.06 11608
0.09 0.28 0.34 -0.72 9.80 0.00 0.04 -0.07 11615
0.12 0.24 0.37 -0.71 9.80 0.01 0.05 -0.07 11622
0.14 0.26 0.38 -0.74 9.81 0.01 0.04 -0.06 11629
0.16 0.23 0.35 -0.72 9.81 0.01 0.04 -0.07 11636
0.16 0.21 0.34 -0.77 9.77 0.01 0.05 -0.07 11643
0.16 0.20 0.37 -0.72 9.83 0.01 0.04 -0.06 11651
0.17 0.21 0.36 -0.75 9.81 0.01 0.05 -0.07 11658
0.17 0.17 0.34 -0.74 9.79 0.01 0.04 -0.07 11665
0.19 0.09 0.36 -0.73 9.82 0.01 0.04 -0.07 11672
0.19 0.09 0.35 -0.77 9.79 0.02 0.04 -0.07 11679
0.18 0.11 0.39 -0.74 9.81 0.01 0.05 -0.07 11686
0.17 0.11 0.37 -0.76 9.78 0.01 0.04 -0.07 11694
0.17 0.13 0.34 -0.75 9.80 0.01 0.04 -0.07 11701
0.19 0.07 0.39 -0.75 9.82 0.01 0.04 -0.07 11708
0.22 0.05 0.38 -0.73 9.79 0.01 0.04 -0.07 11715
0.23 0.03 0.39 -0.73 10.42 0.01 0.04 -0.07 11722
0.23 0.01 0.38 -0.76 9.82 0.02 0.04 -0.07 11729
0.22 0.02 0.34 -0.76 9.78 0.01 0.04 -0.07 11737
0.24 0.02 0.34 -0.75 9.81 0.02 0.04 -0.07 11744
0.24 0.02 0.38 -0.73 9.81 0.02 0.05 -0.07 11751
0.26 -0.00 0.37 -0.78 9.81 0.02 0.05 -0.07 11758
0.24 -0.00 0.38 -0.77 9.81 0.02 0.05 -0.07 11765
0.25 -0.02 0.37 -0.71 9.81 0.02 0.05 -0.07 11772
0.25 -0.01 0.39 -0.77 9.82 0.02 0.05 -0.07 11780
0.27 -0.01 0.40 -0.76 9.80 0.02 0.05 -0.07 11787
0.30 -0.01 0.38 -0.79 9.81 0.03 0.05 -0.07 11794
0.32 -0.01 0.35 -0.76 9.82 0.03 0.05 -0.07 11801
0.34 -0.02 0.37 -0.78 9.88 0.03 0.05 -0.07 11808
0.33 -0.02 0.42 -0.79 9.82 0.05 0.06 -0.07 11815
0.33 -0.02 0.42 -0.76 9.90 0.05 0.06 -0.07 11823
0.32 -0.01 0.39 -0.81 9.84 0.06 0.07 -0.07 11830
0.34 -0.02 0.50 -0.81 9.88 0.08 0.09 -0.08 11837
0.35 -0.02 0.48 -0.81 9.90 0.10 0.10 -0.08 11844
0.37 -0.02 0.42 -0.82 9.90 0.12 0.12 -0.08 11851
0.35 -0.02 0.53 -0.81 9.85 0.16 0.15 -0.11 11858
0.34 -0.02 0.46 -0.76 10.00 0.19 0.18 -0.16 11866
0.36 -0.02 0.12 -0.81 10.28 0.35 0.26 -0.14 11874
0.38 -0.02 0.37 -0.94 11.06 0.86 0.35 -0.13 11881
0.38 -0.02 0.48 -1.15 11.19 1.07 0.41 -0.14 11888
0.38 -0.03 0.60 -1.13 11.84 1.04 0.31 -0.16 11895
0.37 -0.02 0.57 -1.14 11.08 1.05 0.24 -0.16 11902
0.37 -0.00 0.63 -1.30 10.62 1.11 0.19 -0.15 11910
0.36 -0.00 0.55 -1.31 10.17 1.12 0.13 -0.14 11917
0.36 -0.02 0.56 -1.29 10.35 1.11 0.07 -0.14 11924
0.35 -0.02 0.28 -1.42 10.76 1.10 0.08 -0.13 11931
0.34 -0.03 0.39 -1.59 10.38 1.14 0.08 -0.12 11938
0.30 -0.02 0.36 -1.64 10.31 1.21 0.05 -0.10 11945
0.27 -0.02 0.49 -1.77 10.60 1.26 0.05 -0.09 11952
0.24 -0.02 0.50 -1.90 10.65 1.31 0.08 -0.08 11959
0.20 -0.02 0.56 -2.04 9.12 1.33 0.06 -0.09 11966
0.15 -0.01 0.49 -2.13 9.87 1.28 -0.00 -0.06 11973
0.13 -0.01 0.88 -2.26 10.89 1.33 0.21 -0.09 11980
0.16 -0.01 -0.00 -2.25 10.72 1.44 0.21 -0.06 11988
0.13 -0.01 0.48 -2.40 9.85 1.46 0.29 -0.04 11995
0.13 -0.01 0.47 -2.49 9.70 1.41 0.35 -0.04 12002
0.08 -0.01 0.30 -2.59 9.96 1.38 0.40 -0.01 12009
0.08 -0.01 0.13 -2.93 10.12 1.35 0.44 0.02 12016
0.05 -0.01 0.29 -2.91 9.68 1.34 0.47 0.04 12023
0.07 -0.01 0.64 -3.17 9.78 1.31 0.49 0.06 12030
0.08 -0.01 0.74 -3.19 9.72 1.26 0.53 0.06 12038
0.07 -0.01 0.78 -3.35 9.97 1.21 0.57 0.07 12045
0.07 -0.00 0.76 -3.62 10.33 1.15 0.59 0.08 12052
0.04 -0.00 0.52 -3.53 10.26 1.08 0.59 0.09 12059
0.02 -0.00 0.18 -3.36 10.63 1.05 0.53 0.11 12066
0.01 -0.00 0.24 -3.85 10.73 1.01 0.42 0.13 12073
0.02 0.01 0.56 -3.43 11.22 0.98 0.31 0.15 12081
0.01 -0.00 0.88 -2.22 10.07 0.93 0.25 0.14 12088
0.01 -0.00 0.13 -0.10 10.07 0.81 0.19 0.12 12095
0.01 -0.00 0.41 0.93 9.62 0.61 0.09 0.08 12102
0.00 0.00 0.69 1.52 8.68 0.30 -0.05 -0.00 12109
0.01 -0.00 0.51 1.63 8.73 0.04 -0.20 -0.14 12116
0.00 0.00 0.31 1.41 9.16 -0.11 -0.29 -0.34 12124
0.00 -0.00 0.01 1.44 9.39 -0.19 -0.39 -0.58 12131
0.00 0.00 -0.07 1.81 9.28 -0.22 -0.44 -0.91 12138
0.00 0.00 0.21 1.37 8.90 -0.24 -0.47 -1.20 12145
0.00 0.00 0.11 1.35 9.62 -0.25 -0.54 -1.44 12152
0.00 0.00 -0.16 1.58 9.80 -0.41 -0.56 -1.65 12160
0.00 0.00 0.06 1.52 9.45 -0.55 -0.63 -1.78 12167
0.01 -0.00 0.19 0.84 9.50 -0.61 -0.79 -1.89 12174
0.00 0.00 0.49 0.26 9.29 -0.63 -0.90 -1.95 12181
0.00 -0.00 1.00 -0.14 9.05 -0.63 -1.00 -1.99 12188
0.00 0.00 1.42 -0.39 9.14 -0.63 -1.03 -2.01 12195
0.00 0.00 1.91 -0.40 9.28 -0.62 -1.02 -2.01 12203
0.00 0.00 2.59 -0.31 9.57 -0.63 -0.95 -1.97 12210
0.00 0.00 2.99 -0.19 9.71 -0.66 -0.85 -1.92 12217
0.00 0.00 3.47 -0.08 9.77 -0.71 -0.70 -1.85 12224
0.00 0.00 3.70 -0.08 9.47 -0.76 -0.49 -1.74 12231
0.00 0.00 3.85 -0.30 9.25 -0.83 -0.33 -1.63 12238
0.00 0.00 3.79 -0.60 9.03 -0.86 -0.16 -1.49 12246
0.00 0.00 3.61 -0.89 8.86 -0.86 -0.06 -1.37 12253
0.00 0.00 3.34 -1.28 8.80 -0.82 0.01 -1.22 12260
0.00 0.00 3.04 -1.46 8.73 -0.78 0.04 -1.05 12267
0.00 0.00 2.81 -1.50 8.73 -0.72 0.04 -0.89 12274
0.00 0.00 2.67 -1.37 8.84 -0.67 0.03 -0.70 12281
0.00 0.00 2.64 -0.63 9.05 -0.61 -0.00 -0.49 12289
0.00 0.00 2.61 -1.20 9.20 -0.56 -0.02 -0.33 12296
0.00 0.00 2.65 -1.22 9.25 -0.54 -0.01 -0.15 12303
0.00 -0.00 2.54 -1.43 9.43 -0.51 0.01 -0.02 12310
0.00 0.00 2.54 -1.57 9.55 -0.50 0.07 0.11 12317
0.00 0.00 2.59 -1.78 9.68 -0.50 0.15 0.21 12324
0.00 0.00 2.38 -1.87 9.81 -0.51 0.26 0.27 12332
0.00 0.00 2.01 -2.05 10.03 -0.53 0.39 0.34 12339
0.00 0.00 1.75 -2.18 10.12 -0.55 0.48 0.39 12346
0.00 0.00 1.34 -2.36 10.13 -0.58 0.53 0.43 12353
0.00 0.00 1.12 -2.49 10.05 -0.59 0.52 0.46 12360
0.00 0.00 0.91 -2.62 9.94 -0.59 0.46 0.47 12367
0.00 -0.00 0.93 -2.57 9.81 -0.57 0.38 0.47 12375
0.00 -0.00 1.00 -2.42 9.72 -0.55 0.31 0.47 12382
0.00 0.00 1.21 -2.27 9.69 -0.54 0.24 0.46 12389
0.00 0.00 1.34 -2.11 9.79 -0.52 0.21 0.45 12396
0.00 0.00 1.49 -2.21 9.97 -0.50 0.21 0.45 12403
0.00 0.00 1.56 -2.29 9.99 -0.48 0.25 0.42 12410
0.00 -0.00 1.54 -2.21 10.02 -0.48 0.30 0.40 12418
0.00 0.00 1.45 -2.33 10.08 -0.49 0.39 0.37 12425
0.00 0.00 0.88 -2.11 9.85 -0.50 0.48 0.36 12432
0.00 0.00 0.56 -2.03 10.00 -0.53 0.53 0.36 12439
0.00 0.00 0.39 -2.14 10.32 -0.56 0.51 0.37 12446
0.00 0.00 0.28 -2.14 10.30 -0.58 0.47 0.36 12453
0.00 0.00 0.43 -2.19 10.39 -0.61 0.41 0.36 12461
0.00 0.00 0.75 -2.40 10.30 -0.62 0.37 0.34 12468
0.00 0.00 0.88 -2.40 10.07 -0.62 0.37 0.32 12475
0.00 0.00 1.20 -2.55 10.01 -0.63 0.41 0.28 12482
0.00 0.00 1.34 -2.62 9.84 -0.64 0.47 0.25 12489
0.00 0.00 1.22 -2.77 9.83 -0.65 0.55 0.21 12496
0.00 0.00 1.03 -2.87 9.92 -0.64 0.62 0.19 12504
0.00 0.00 0.77 -2.89 9.90 -0.63 0.67 0.18 12511
0.00 0.00 0.36 -2.98 9.82 -0.59 0.72 0.18 12518
0.00 0.00 -0.03 -2.92 9.78 -0.56 0.73 0.21 12525
0.00 0.00 -0.35 -2.86 9.21 -0.51 0.73 0.25 12532
0.00 0.00 -0.68 -2.72 10.12 -0.47 0.69 0.31 12539
0.00 -0.00 -0.79 -2.64 10.46 -0.46 0.63 0.38 12547
0.00 0.00 -0.74 -2.62 10.79 -0.47 0.55 0.44 12554
0.00 0.00 -0.51 -2.70 10.64 -0.51 0.48 0.49 12561
0.00 0.00 -0.41 -2.90 10.52 -0.57 0.43 0.51 12568
0.00 0.00 -0.24 -3.15 10.18 -0.61 0.43 0.53 12575
0.00 0.00 -0.15 -3.46 9.85 -0.62 0.44 0.54 12582
0.00 0.00 -0.17 -3.64 9.70 -0.60 0.49 0.53 12590
0.00 0.00 -0.39 -3.77 9.60 -0.56 0.55 0.53 12597
0.00 0.00 -0.75 -3.71 9.58 -0.50 0.60 0.54 12604
0.00 0.00 -1.21 -3.71 9.63 -0.45 0.64 0.57 12611
0.00 0.00 -1.57 -3.71 9.80 -0.41 0.63 0.60 12618
0.00 0.00 -5.39 -7.44 19.09 -0.12 -0.08 0.64 12625
0.00 0.00 -2.42 -2.94 7.34 -0.12 -0.22 0.65 12633
0.00 0.00 -3.03 -6.01 9.35 -0.14 -0.29 0.66 12640
0.00 0.00 -3.64 -6.03 9.81 -0.17 -0.47 0.63 12647
0.00 0.00 -2.74 -5.61 9.59 -0.16 -0.46 0.56 12654
0.00 0.00 -2.54 -5.95 9.03 -0.12 -0.42 0.51 12661
0.00 -0.00 -3.31 -6.24 9.10 -0.07 -0.42 0.46 12668
0.00 0.00 -2.75 -7.62 8.58 0.03 -0.36 0.45 12676
0.00 0.00 -0.31 -6.65 7.31 0.19 -0.08 0.53 12683
0.00 0.00 -1.89 -6.35 8.15 0.29 -0.11 0.59 12690
0.00 0.00 -3.39 -6.41 8.87 0.37 -0.23 0.64 12697
0.00 0.00 -3.17 -6.47 9.04 0.45 -0.30 0.74 12704
0.00 0.00 -3.43 -7.18 8.87 0.53 -0.35 0.84 12711
0.00 0.00 -3.93 -7.94 8.47 0.61 -0.42 0.90 12719
0.00 0.00 -4.05 -8.20 8.26 0.71 -0.49 0.94 12726
-0.00 0.00 -9.16 -6.90 14.67 0.47 -0.42 0.83 12733
-0.00 0.01 -5.37 -3.50 10.84 0.06 -0.46 0.24 12740
-0.00 0.01 -1.57 -2.45 9.98 -0.05 0.02 -0.03 12747
-0.00 0.00 0.07 -1.03 9.86 -0.11 0.09 -0.07 12754
-0.00 0.01 0.56 -0.86 9.64 -0.11 0.07 -0.06 12762
0.00 0.00 0.75 -0.84 9.64 -0.11 0.03 -0.02 12769
-0.00 0.01 0.46 -0.85 9.74 -0.14 0.02 0.00 12776
-0.00 0.02 0.41 -0.91 10.08 -0.16 0.06 -0.00 12783
-0.00 0.01 0.42 -0.82 9.94 -0.14 0.08 -0.01 12790
-0.00 0.04 0.46 -0.89 10.05 -0.12 0.08 -0.03 12797
-0.01 0.06 0.46 -0.85 9.99 -0.10 0.07 -0.04 12805
-0.01 0.07 0.40 -0.90 9.86 -0.10 0.06 -0.04 12812
-0.00 0.05 0.39 -0.85 9.83 -0.09 0.05 -0.04 12819
-0.02 0.17 0.31 -0.82 9.83 -0.09 0.03 -0.04 12826
0.02 0.18 0.44 -0.87 9.80 -0.09 0.02 -0.05 12833
-0.00 0.19 0.45 -0.82 9.79 -0.09 -0.00 -0.05 12840
-0.01 0.21 0.35 -0.85 9.82 -0.09 -0.01 -0.05 12848
-0.02 0.23 0.27 -0.85 9.83 -0.10 -0.02 -0.06 12855
-0.01 0.26 0.35 -0.79 9.80 -0.09 -0.01 -0.05 12862
0.01 0.28 0.36 -0.81 9.75 -0.09 -0.00 -0.06 12869
0.01 0.33 0.40 -0.80 9.81 -0.09 0.01 -0.06 12876
0.00 0.37 0.39 -0.75 9.81 -0.08 0.02 -0.06 12883
0.01 0.34 0.35 -0.74 9.77 -0.07 0.03 -0.06 12891
-0.01 0.40 0.37 -0.75 9.82 -0.07 0.04 -0.06 12898
0.00 0.46 0.34 -0.76 9.71 -0.06 0.04 -0.05 12905
0.00 0.46 0.38 -0.82 9.85 -0.05 0.05 -0.06 12912
0.03 0.48 0.40 -0.76 9.82 -0.05 0.05 -0.06 12919
0.03 0.46 0.40 -0.77 9.85 -0.04 0.05 -0.05 12926
0.07 0.50 0.41 -0.75 9.83 -0.03 0.05 -0.05 12934
0.06 0.54 0.39 -0.77 9.84 -0.03 0.05 -0.05 12941
0.04 0.55 0.38 -0.76 9.82 -0.03 0.05 -0.06 12948
0.06 0.56 0.39 -0.74 9.79 -0.02 0.05 -0.06 12955
0.07 0.54 0.36 -0.74 9.82 -0.02 0.05 -0.06 12962
0.06 0.52 0.35 -0.73 9.83 -0.01 0.05 -0.06 12969
0.06 0.51 0.35 -0.72 9.82 -0.01 0.05 -0.06 12977
0.07 0.50 0.32 -0.75 9.81 -0.00 0.05 -0.06 12984
0.08 0.50 0.37 -0.76 9.83 0.00 0.05 -0.06 12991
0.10 0.51 0.35 -0.75 9.83 0.00 0.05 -0.06 12998
0.10 0.48 0.37 -0.74 9.81 0.01 0.05 -0.06 13005
0.11 0.48 0.35 -0.74 9.83 0.01 0.05 -0.06 13012
0.11 0.44 0.43 -0.75 9.81 0.01 0.06 -0.06 13020
0.10 0.46 0.41 -0.73 9.80 0.02 0.05 -0.06 13027
0.10 0.46 0.40 -0.75 9.81 0.02 0.05 -0.06 13034
0.11 0.45 0.38 -0.76 9.82 0.02 0.05 -0.06 13041
0.11 0.43 0.39 -0.75 9.83 0.02 0.05 -0.06 13048
0.13 0.39 0.36 -0.74 9.81 0.02 0.05 -0.06 13056
0.13 0.39 0.37 -0.75 9.79 0.02 0.05 -0.07 13063
0.13 0.37 0.39 -0.75 9.81 0.02 0.05 -0.06 13070
0.12 0.37 0.36 -0.77 9.80 0.01 0.05 -0.06 13077
0.14 0.34 0.42 -0.79 9.81 0.02 0.05 -0.06 13084
0.16 0.31 0.35 -0.79 9.78 0.01 0.05 -0.07 13091
0.16 0.29 0.40 -0.76 9.76 0.01 0.05 -0.06 13099
0.16 0.25 0.40 -0.78 9.75 0.01 0.05 -0.06 13106
0.16 0.27 0.39 -0.76 9.79 0.01 0.05 -0.06 13113
0.20 0.23 0.38 -0.80 9.79 0.02 0.05 -0.06 13120
0.21 0.22 0.36 -0.77 9.81 0.02 0.05 -0.06 13127
0.22 0.21 0.38 -0.79 9.81 0.01 0.05 -0.06 13134
0.21 0.14 0.39 -0.79 9.80 0.01 0.05 -0.06 13142
0.18 0.16 0.37 -0.78 9.81 0.01 0.05 -0.06 13149
0.22 0.15 0.39 -0.82 9.79 0.01 0.05 -0.06 13156
0.25 0.14 0.36 -0.80 9.79 0.01 0.05 -0.06 13163
0.27 0.15 0.38 -0.77 9.81 0.02 0.04 -0.06 13170
0.23 0.18 0.38 -0.79 9.76 0.01 0.04 -0.06 13177
0.24 0.11 0.33 -0.75 9.81 0.01 0.05 -0.06 13185
0.26 0.11 0.39 -0.79 9.80 0.01 0.05 -0.06 13192
0.27 0.07 0.35 -0.80 10.42 0.01 0.04 -0.06 13199
0.28 0.08 0.35 -0.82 9.80 0.01 0.04 -0.06 13206
0.28 0.08 0.38 -0.80 9.82 0.01 0.04 -0.06 13213
0.29 0.09 0.34 -0.79 9.81 0.01 0.04 -0.06 13220
0.30 0.10 0.38 -0.78 9.78 0.01 0.05 -0.06 13228
0.31 0.06 0.36 -0.81 9.81 0.01 0.04 -0.06 13235
0.30 0.11 0.36 -0.80 9.80 0.01 0.04 -0.06 13242
0.32 0.12 0.38 -0.77 9.81 0.01 0.04 -0.06 13249
0.32 0.04 0.37 -0.80 9.81 0.01 0.04 -0.06 13256
0.32 -0.00 0.40 -0.80 9.80 0.01 0.04 -0.06 13263
0.32 0.02 0.36 -0.82 9.81 0.01 0.04 -0.06 13271
0.33 0.00 0.40 -0.82 9.80 0.01 0.04 -0.06 13278
0.35 0.01 0.38 -0.81 9.82 0.01 0.04 -0.06 13285
0.39 -0.00 0.37 -0.81 9.80 0.01 0.04 -0.06 13292
0.38 -0.01 0.39 -0.83 9.80 0.01 0.05 -0.06 13299
0.41 -0.01 0.37 -0.79 9.82 0.02 0.04 -0.06 13306
0.41 -0.01 0.38 -0.81 9.81 0.02 0.04 -0.06 13314
0.43 -0.02 0.35 -0.81 9.79 0.01 0.04 -0.06 13321
0.44 -0.01 0.35 -0.81 9.81 0.02 0.05 -0.06 13328
0.45 -0.01 0.40 -0.82 9.82 0.02 0.05 -0.06 13335
0.46 -0.01 0.40 -0.81 9.74 0.03 0.04 -0.06 13342
0.45 -0.02 0.33 -0.85 9.79 0.04 0.05 -0.06 13349
0.44 -0.02 0.39 -0.79 9.82 0.03 0.05 -0.06 13357
0.48 -0.02 0.38 -0.87 9.82 0.04 0.05 -0.06 13364
0.50 -0.02 0.31 -0.91 9.80 0.05 0.05 -0.06 13371
0.53 -0.03 0.40 -0.86 9.78 0.05 0.06 -0.06 13378
0.54 -0.03 0.39 -0.88 9.82 0.06 0.06 -0.06 13385
0.52 -0.04 0.44 -0.88 9.81 0.06 0.06 -0.06 13392
0.53 -0.02 0.42 -0.90 9.81 0.07 0.06 -0.06 13400
0.58 -0.02 0.56 -0.88 9.85 0.08 0.07 -0.06 13407
0.61 -0.03 0.43 -0.91 9.82 0.10 0.07 -0.06 13414
0.67 -0.03 0.57 -0.91 9.84 0.10 0.08 -0.07 13421
0.66 -0.03 0.56 -1.01 9.78 0.12 0.09 -0.08 13428
0.70 -0.04 0.59 -1.06 9.90 0.16 0.08 -0.09 13435
0.70 -0.04 0.24 -0.84 10.19 0.23 0.11 -0.11 13443
0.71 -0.03 0.46 -0.86 10.48 0.42 0.17 -0.11 13451
0.72 -0.03 0.45 -1.00 10.32 0.66 0.20 -0.11 13457
0.72 -0.03 0.74 -1.11 10.98 0.79 0.21 -0.12 13465
0.73 -0.03 0.46 -1.14 10.84 0.84 0.22 -0.12 13472
0.72 -0.02 0.47 -1.21 11.03 0.88 0.15 -0.13 13479
0.74 -0.04 0.66 -1.29 11.01 0.92 0.13 -0.14 13487
0.74 -0.03 0.66 -1.48 11.09 1.00 0.09 -0.16 13493
0.74 -0.03 0.74 -1.42 10.78 1.08 0.03 -0.17 13501
0.71 -0.03 0.57 -1.49 10.85 1.13 0.01 -0.18 13508
0.71 -0.04 0.45 -1.50 11.15 1.20 0.01 -0.17 13515
0.69 -0.03 0.45 -1.63 11.03 1.30 -0.00 -0.17 13521
0.67 -0.02 0.37 -1.72 10.96 1.37 -0.01 -0.20 13530
0.60 -0.02 0.44 -1.80 10.59 1.44 -0.03 -0.16 13536
0.54 -0.03 0.35 -1.95 10.21 1.48 -0.06 -0.15 13544
0.52 -0.03 0.29 -2.02 10.48 1.52 -0.07 -0.13 13551
0.49 -0.03 0.42 -2.24 10.45 1.56 -0.05 -0.12 13558
0.42 -0.03 0.40 -2.31 10.48 1.62 -0.01 -0.11 13565
0.41 -0.02 -0.22 -2.56 11.08 1.65 -0.05 -0.10 13573
0.34 -0.02 -0.00 -2.43 9.67 1.64 -0.03 -0.09 13579
0.24 -0.02 0.53 -2.86 11.00 1.65 0.06 -0.09 13586
0.22 -0.02 0.35 -2.88 10.49 1.71 0.07 -0.09 13593
0.15 -0.02 0.37 -3.15 10.75 1.73 0.10 -0.08 13600
0.11 -0.01 0.66 -3.30 10.71 1.72 0.13 -0.08 13607
0.08 0.01 0.69 -3.43 10.88 1.70 0.18 -0.09 13615
0.08 -0.00 0.84 -3.62 11.29 1.67 0.19 -0.09 13622
0.05 -0.00 0.64 -4.01 11.20 1.63 0.18 -0.09 13629
0.08 -0.01 0.98 -4.04 11.50 1.56 0.15 -0.09 13636
0.08 -0.01 0.91 -4.59 11.73 1.47 0.12 -0.10 13643
0.08 -0.00 0.56 -3.79 12.02 1.37 0.10 -0.12 13650
0.07 0.01 0.01 -1.80 11.76 1.31 0.02 -0.14 13658
0.06 -0.01 -0.55 -1.31 12.54 1.14 -0.19 -0.17 13665
0.03 -0.00 -0.60 -0.96 11.75 0.95 -0.47 -0.18 13672
0.02 -0.00 0.10 1.02 10.76 0.70 -0.57 -0.19 13679
0.00 0.00 0.68 3.12 8.96 0.50 -0.59 -0.26 13686
0.01 -0.00 1.00 4.26 7.37 0.25 -0.59 -0.41 13693
0.00 -0.00 0.41 4.70 7.05 -0.01 -0.57 -0.63 13701
0.02 -0.00 -0.11 4.64 7.39 -0.20 -0.55 -0.96 13708
0.01 -0.00 0.49 3.37 7.42 -0.28 -0.49 -1.23 13715
0.02 -0.00 -0.02 3.27 10.42 -0.43 -0.37 -1.44 13722
0.00 -0.00 -0.02 3.11 10.08 -0.61 -0.32 -1.66 13729
0.01 -0.00 0.10 2.62 9.11 -0.74 -0.41 -1.80 13736
0.02 -0.00 0.18 1.79 8.41 -0.82 -0.53 -1.90 13744
0.02 -0.00 0.41 1.07 7.39 -0.87 -0.62 -1.94 13751
0.00 0.00 0.90 0.57 7.79 -0.86 -0.71 -1.94 13758
0.00 0.00 1.26 0.15 7.80 -0.79 -0.74 -1.91 13765
0.00 0.00 1.64 -0.03 7.81 -0.70 -0.72 -1.84 13772
0.00 0.00 2.02 0.06 7.92 -0.63 -0.65 -1.75 13779
0.01 -0.00 2.33 0.23 8.27 -0.58 -0.56 -1.67 13787
0.00 0.00 2.74 0.33 8.56 -0.57 -0.40 -1.56 13794
0.00 0.00 3.02 0.31 8.72 -0.59 -0.22 -1.44 13801
0.00 0.00 3.34 0.20 8.89 -0.63 0.05 -1.34 13808
0.00 0.00 3.32 -0.04 8.99 -0.69 0.31 -1.22 13815
0.00 0.00 3.20 -0.38 9.24 -0.75 0.50 -1.10 13822
0.00 -0.00 2.76 -0.82 9.48 -0.80 0.63 -0.96 13830
0.00 0.00 2.27 -1.23 9.65 -0.82 0.67 -0.80 13837
0.00 0.00 1.91 -1.54 9.74 -0.85 0.66 -0.65 13844
0.00 0.00 1.60 -1.82 9.71 -0.86 0.61 -0.47 13851
0.00 0.00 1.31 -2.04 9.62 -0.86 0.55 -0.33 13858
0.00 0.00 1.00 -2.25 9.69 -0.85 0.49 -0.18 13865
0.00 0.00 0.74 -2.37 9.56 -0.84 0.41 -0.04 13873
0.00 0.00 0.47 -2.48 9.52 -0.81 0.39 0.06 13880
0.00 0.00 0.23 -2.69 9.60 -0.78 0.33 0.14 13887
0.00 0.00 0.18 -2.73 9.81 -0.77 0.29 0.20 13894
0.00 0.00 0.16 -2.81 9.94 -0.77 0.27 0.22 13901
0.00 0.00 0.22 -2.81 10.16 -0.78 0.26 0.22 13908
0.00 -0.00 0.33 -2.79 10.24 -0.81 0.27 0.20 13916
0.00 0.00 0.58 -2.77 10.35 -0.85 0.32 0.16 13923
0.00 0.00 0.67 -2.80 10.34 -0.89 0.38 0.12 13930
0.00 0.00 0.59 -2.86 10.27 -0.92 0.47 0.09 13937
0.00 0.00 0.55 -2.90 10.19 -0.93 0.53 0.05 13944
0.00 0.00 0.46 -2.95 10.04 -0.94 0.54 0.03 13952
0.00 0.00 0.35 -2.97 10.07 -0.92 0.54 0.02 13959
0.00 -0.00 0.38 -3.02 10.06 -0.91 0.51 0.02 13966
0.00 0.00 0.46 -3.01 9.96 -0.89 0.49 0.02 13973
0.00 0.00 0.62 -3.01 9.87 -0.84 0.50 0.04 13980
0.00 -0.00 0.65 -3.07 9.82 -0.84 0.52 0.06 13987
0.01 -0.00 0.63 -3.14 9.93 -0.81 0.55 0.10 13995
0.00 0.00 0.52 -3.17 10.04 -0.78 0.58 0.15 14002
0.00 0.00 0.43 -3.34 10.21 -0.75 0.57 0.20 14009
0.00 0.00 0.40 -3.44 10.44 -0.72 0.53 0.27 14016
0.00 0.00 0.43 -3.53 10.46 -0.70 0.47 0.32 14023
0.00 0.00 0.49 -3.61 10.39 -0.68 0.40 0.34 14030
0.00 -0.00 0.61 -3.69 10.32 -0.66 0.34 0.37 14038
0.00 0.00 0.84 -3.74 10.19 -0.62 0.31 0.37 14045
0.00 0.00 0.91 -3.65 10.12 -0.60 0.32 0.35 14052
0.00 0.00 1.05 -3.58 10.14 -0.58 0.40 0.34 14059
0.00 0.00 0.98 -3.38 10.06 -0.57 0.55 0.35 14066
0.00 0.00 0.50 -3.24 10.02 -0.59 0.72 0.36 14073
0.01 -0.00 0.03 -3.27 10.20 -0.60 0.82 0.39 14081
0.00 0.00 -0.53 -3.43 10.27 -0.60 0.85 0.42 14088
0.00 0.00 -0.88 -3.70 10.28 -0.59 0.81 0.45 14095
0.00 0.00 -1.14 -3.89 10.22 -0.58 0.72 0.47 14102
0.00 0.00 -1.13 -4.14 10.05 -0.56 0.60 0.48 14109
0.00 0.00 -0.91 -4.27 9.98 -0.55 0.50 0.47 14116
0.00 0.00 -0.55 -4.41 9.98 -0.53 0.41 0.45 14124
0.00 0.00 -0.26 -4.56 9.88 -0.50 0.38 0.41 14131
0.00 0.00 0.01 -4.64 9.75 -0.47 0.39 0.37 14138
0.00 0.00 0.14 -4.68 9.58 -0.42 0.43 0.32 14145
0.00 0.00 0.11 -4.62 9.52 -0.37 0.50 0.29 14152
0.00 0.00 -0.10 -4.49 9.42 -0.31 0.58 0.27 14159
0.00 0.00 -0.59 -4.22 9.47 -0.25 0.65 0.28 14167
0.00 0.00 -1.07 -3.94 9.39 -0.20 0.68 0.32 14174
0.00 0.00 -1.57 -3.84 9.42 -0.16 0.66 0.39 14181
0.00 0.00 -1.87 -3.69 9.58 -0.13 0.58 0.47 14188
0.00 0.00 -1.87 -3.61 9.59 -0.10 0.46 0.53 14195
0.00 0.00 -1.63 -3.40 9.59 -0.09 0.35 0.59 14202
0.00 0.00 -3.54 -6.18 11.41 -0.08 0.29 0.64 14210
0.00 0.00 -2.52 -3.26 9.51 0.06 -0.12 0.71 14217
0.00 0.00 -1.64 -3.13 8.62 0.04 -0.18 0.75 14224
0.00 0.00 -2.79 -4.61 9.72 0.03 -0.28 0.78 14231
0.00 0.00 -2.70 -4.27 9.38 0.02 -0.31 0.79 14238
0.00 -0.00 -2.46 -4.22 9.23 0.05 -0.32 0.77 14245
0.00 0.00 -2.68 -4.51 9.20 0.09 -0.36 0.75 14253
0.00 0.00 -3.52 -4.74 9.08 0.12 -0.39 0.70 14260
0.00 0.00 -3.86 -4.80 8.92 0.18 -0.42 0.65 14267
0.00 0.00 -3.93 -4.81 8.99 0.23 -0.50 0.60 14274
0.00 0.00 -4.52 -3.30 10.48 0.41 -0.35 0.64 14281
0.00 0.00 -4.68 -4.76 10.18 0.47 -0.31 0.65 14288
0.00 0.00 -4.37 -5.73 9.45 0.54 -0.39 0.62 14296
0.00 0.00 -4.06 -6.65 9.43 0.63 -0.47 0.61 14303
0.00 0.00 -6.88 -7.75 16.09 0.54 -0.50 0.56 14310
0.00 0.00 -5.79 -4.34 12.20 0.18 -0.56 0.22 14317
-0.00 0.00 -0.52 -1.99 11.50 -0.01 -0.21 -0.05 14324
0.00 0.01 -0.21 -1.29 9.89 -0.08 0.04 -0.07 14331
-0.00 0.00 0.32 -1.00 9.87 -0.09 0.05 -0.07 14339
0.00 0.00 0.66 -0.82 9.50 -0.07 0.01 -0.05 14346
0.00 0.00 0.57 -0.87 9.69 -0.06 -0.02 -0.02 14353
-0.00 0.00 0.42 -0.79 10.42 -0.08 -0.00 -0.01 14360
0.00 0.03 0.35 -0.82 9.81 -0.11 0.02 -0.02 14367
-0.00 0.01 0.33 -0.78 9.92 -0.12 0.02 -0.03 14374
-0.00 0.02 0.43 -0.88 9.83 -0.13 0.03 -0.04 14382
-0.00 0.01 0.43 -0.93 9.85 -0.11 0.04 -0.04 14389
-0.00 0.03 0.36 -0.91 9.87 -0.09 0.05 -0.04 14396
-0.00 0.03 0.40 -0.87 9.82 -0.08 0.04 -0.04 14403
0.01 0.03 0.35 -0.80 9.76 -0.07 0.04 -0.04 14410
0.01 0.04 0.32 -0.78 9.80 -0.07 0.04 -0.05 14417
-0.00 0.03 0.35 -0.80 9.81 -0.06 0.04 -0.05 14425
-0.01 0.05 0.38 -0.73 9.67 -0.06 0.04 -0.05 14432
-0.01 0.05 0.38 -0.83 9.75 -0.06 0.03 -0.06 14439
-0.01 0.06 0.38 -0.84 9.82 -0.07 0.02 -0.06 14446
0.01 0.08 0.34 -0.83 9.79 -0.08 0.01 -0.06 14453
0.01 0.10 0.35 -0.80 9.76 -0.09 -0.01 -0.06 14460
0.01 0.13 0.32 -0.80 9.81 -0.09 0.00 -0.06 14468
0.01 0.17 0.36 -0.79 9.78 -0.09 0.00 -0.06 14475
0.02 0.20 0.32 -0.82 9.83 -0.08 0.01 -0.06 14482
0.03 0.19 0.28 -0.79 9.81 -0.08 0.02 -0.06 14489
0.08 0.19 0.27 -0.77 9.78 -0.08 0.03 -0.06 14496
0.04 0.26 0.25 -0.77 9.82 -0.08 0.04 -0.05 14503
0.04 0.27 0.28 -0.76 9.82 -0.07 0.05 -0.05 14511
0.04 0.28 0.36 -0.71 9.83 -0.06 0.05 -0.05 14518
0.04 0.32 0.31 -0.70 9.83 -0.06 0.05 -0.05 14525
0.07 0.35 0.39 -0.72 9.83 -0.05 0.05 -0.05 14532
0.08 0.36 0.40 -0.70 9.80 -0.04 0.05 -0.05 14539
0.08 0.39 0.36 -0.71 9.82 -0.04 0.06 -0.05 14546
0.07 0.38 0.38 -0.71 9.83 -0.03 0.05 -0.05 14554
0.06 0.42 0.36 -0.73 9.86 -0.03 0.05 -0.05 14561
0.06 0.47 0.37 -0.71 9.84 -0.02 0.05 -0.05 14568
0.08 0.47 0.35 -0.73 9.82 -0.02 0.05 -0.06 14575
0.08 0.48 0.33 -0.74 9.81 -0.01 0.05 -0.06 14582
0.08 0.48 0.32 -0.72 9.82 -0.01 0.05 -0.06 14589
0.06 0.47 0.36 -0.71 9.83 -0.01 0.05 -0.06 14597
0.08 0.50 0.36 -0.72 9.83 -0.00 0.05 -0.06 14604
0.10 0.51 0.33 -0.71 9.81 -0.01 0.05 -0.06 14611
0.11 0.51 0.33 -0.73 9.81 -0.00 0.05 -0.05 14618
0.12 0.48 0.34 -0.71 9.81 0.00 0.05 -0.05 14625
0.12 0.48 0.31 -0.72 9.81 0.00 0.05 -0.06 14632
0.11 0.48 0.34 -0.73 9.82 0.00 0.05 -0.06 14640
0.11 0.47 0.36 -0.71 9.82 0.01 0.05 -0.06 14647
0.10 0.45 0.35 -0.72 9.82 0.01 0.05 -0.06 14654
0.13 0.43 0.33 -0.72 9.81 0.01 0.05 -0.06 14661
0.13 0.43 0.36 -0.71 9.82 0.01 0.05 -0.06 14668
0.11 0.42 0.34 -0.71 9.20 0.01 0.05 -0.06 14675
0.11 0.42 0.35 -0.73 9.81 0.01 0.05 -0.06 14683
0.11 0.43 0.36 -0.71 9.81 0.01 0.04 -0.06 14690
0.12 0.42 0.36 -0.72 9.81 0.01 0.05 -0.06 14697
0.13 0.40 0.33 -0.74 9.80 0.01 0.05 -0.06 14704
0.13 0.35 0.33 -0.74 9.81 0.01 0.05 -0.06 14711
0.16 0.33 0.35 -0.73 9.82 0.01 0.05 -0.06 14718
0.15 0.30 0.35 -0.73 9.77 0.01 0.05 -0.06 14726
0.17 0.29 0.32 -0.73 9.81 0.01 0.05 -0.06 14733
0.17 0.31 0.36 -0.71 9.78 0.01 0.05 -0.06 14740
0.21 0.31 0.34 -0.74 9.78 0.01 0.05 -0.06 14747
0.22 0.27 0.38 -0.75 9.82 0.01 0.05 -0.06 14754
0.20 0.28 0.36 -0.75 9.78 0.02 0.04 -0.06 14761
0.20 0.26 0.34 -0.78 10.41 0.01 0.05 -0.07 14769
0.21 0.27 0.38 -0.72 9.80 0.01 0.05 -0.06 14776
0.22 0.23 0.36 -0.75 9.81 0.01 0.05 -0.06 14783
0.26 0.20 0.37 -0.73 9.80 0.01 0.05 -0.06 14790
0.26 0.18 0.35 -0.74 9.81 0.01 0.05 -0.06 14797
0.26 0.17 0.34 -0.74 9.81 0.01 0.05 -0.06 14804
0.25 0.14 0.35 -0.76 9.81 0.01 0.05 -0.06 14812
0.30 0.12 0.34 -0.74 9.81 0.01 0.05 -0.06 14819
0.35 0.13 0.35 -0.77 9.81 0.01 0.05 -0.07 14826
0.35 0.11 0.36 -0.74 9.77 0.01 0.05 -0.06 14833
0.36 0.12 0.35 -0.76 9.81 0.01 0.05 -0.06 14840
0.35 0.12 0.36 -0.78 9.81 0.01 0.05 -0.06 14848
0.34 0.06 0.38 -0.75 9.79 0.01 0.05 -0.06 14855
0.33 0.10 0.38 -0.78 9.80 0.01 0.05 -0.06 14862
0.33 0.04 0.36 -0.79 9.79 0.01 0.05 -0.06 14869
0.33 0.03 0.36 -0.76 9.79 0.01 0.05 -0.06 14876
0.32 0.01 0.37 -0.74 9.82 0.01 0.05 -0.06 14883
0.31 0.01 0.34 -0.78 9.81 0.01 0.04 -0.07 14891
0.31 0.02 0.38 -0.78 9.80 0.01 0.05 -0.06 14898
0.32 0.02 0.39 -0.76 9.83 0.01 0.05 -0.07 14905
0.33 0.01 0.37 -0.79 9.82 0.01 0.05 -0.06 14912
0.33 -0.00 0.37 -0.79 9.81 0.01 0.05 -0.06 14919
0.33 -0.00 0.37 -0.78 9.80 0.01 0.05 -0.06 14926
0.33 -0.00 0.37 -0.84 10.41 0.01 0.05 -0.07 14934
0.35 -0.02 0.38 -0.80 9.79 0.01 0.05 -0.06 14941
0.36 0.00 0.35 -0.78 9.77 0.00 0.05 -0.06 14948
0.36 0.00 0.40 -0.77 9.81 0.00 0.05 -0.06 14955
0.37 -0.00 0.36 -0.77 9.81 0.01 0.05 -0.06 14962
0.36 -0.02 0.36 -0.77 9.82 0.01 0.05 -0.06 14969
0.35 -0.02 0.40 -0.75 9.80 0.01 0.05 -0.07 14977
0.40 -0.00 0.36 -0.81 9.77 0.01 0.05 -0.06 14984
0.42 0.01 0.34 -0.76 9.79 0.02 0.05 -0.06 14991
0.41 -0.02 0.38 -0.80 9.83 0.02 0.05 -0.06 14998
0.41 -0.01 0.36 -0.79 9.83 0.02 0.06 -0.06 15005
0.41 -0.03 0.36 -0.78 9.86 0.03 0.06 -0.06 15012
0.43 -0.02 0.36 -0.79 9.87 0.04 0.07 -0.06 15020
0.46 -0.01 0.42 -0.83 9.82 0.04 0.07 -0.06 15027
0.48 -0.02 0.38 -0.82 9.82 0.04 0.07 -0.06 15034
0.48 -0.02 0.44 -0.77 9.85 0.05 0.08 -0.06 15041
0.48 -0.02 0.42 -0.87 9.85 0.07 0.08 -0.06 15048
0.48 -0.03 0.42 -0.84 9.89 0.08 0.09 -0.06 15055
0.50 -0.03 0.40 -0.86 9.82 0.09 0.10 -0.07 15063
0.50 -0.02 0.45 -0.90 9.90 0.11 0.11 -0.07 15070
0.54 -0.03 0.40 -0.82 9.91 0.13 0.12 -0.07 15077
0.56 -0.03 0.42 -0.86 10.13 0.19 0.18 -0.07 15084
0.56 -0.04 1.58 -0.70 10.20 0.31 0.29 -0.09 15091
0.56 -0.03 0.36 -0.85 10.38 0.71 0.36 -0.08 15098
0.59 -0.02 1.20 -1.11 10.90 0.98 0.39 -0.10 15107
0.59 -0.01 1.14 -1.13 11.59 1.09 0.41 -0.13 15114
0.59 -0.03 0.80 -1.33 11.34 1.08 0.30 -0.14 15121
0.58 -0.03 0.58 -1.26 11.18 1.09 0.22 -0.15 15128
0.57 -0.04 0.53 -1.27 10.93 1.14 0.19 -0.20 15135
0.53 -0.03 0.50 -1.31 10.92 1.22 0.17 -0.16 15142
0.53 -0.02 0.49 -1.49 10.79 1.28 0.16 -0.15 15150
0.50 -0.03 0.36 -1.61 10.58 1.33 0.14 -0.13 15157
0.48 -0.03 0.48 -1.72 10.54 1.39 0.15 -0.12 15164
0.44 -0.02 0.43 -1.84 10.56 1.44 0.17 -0.10 15171
0.40 -0.03 0.69 -1.67 9.85 1.49 0.18 -0.10 15177
0.36 -0.02 0.91 -2.26 9.82 1.47 0.08 -0.08 15184
0.29 -0.01 0.87 -2.24 11.42 1.53 0.25 -0.10 15193
0.27 -0.02 0.48 -2.33 11.50 1.71 0.28 -0.10 15199
0.23 -0.02 1.00 -2.38 10.39 1.79 0.36 -0.11 15207
0.14 -0.01 0.55 -2.62 10.46 1.79 0.41 -0.12 15213
0.11 -0.01 0.58 -2.78 10.88 1.81 0.44 -0.09 15220
0.08 -0.01 0.72 -2.78 10.73 1.82 0.53 -0.08 15227
0.09 0.00 0.73 -2.80 10.27 1.77 0.62 -0.06 15235
0.06 -0.01 0.33 -3.23 10.30 1.71 0.65 -0.04 15242
0.06 -0.01 0.19 -3.66 10.20 1.64 0.64 -0.01 15249
0.07 -0.01 0.50 -3.96 10.77 1.59 0.63 0.04 15256
0.05 -0.00 0.77 -3.71 10.63 1.53 0.64 0.07 15263
0.05 -0.00 0.59 -3.73 10.80 1.45 0.59 0.08 15270
0.03 0.00 0.66 -3.90 11.80 1.37 0.52 0.07 15278
0.02 -0.00 1.55 -3.82 12.59 1.25 0.44 0.06 15285
0.02 -0.00 0.42 0.21 13.68 1.04 0.41 0.03 15292
0.01 -0.00 -0.09 2.58 12.51 0.75 0.35 -0.03 15299
0.00 0.00 -0.94 3.91 10.41 0.32 0.19 -0.13 15306
0.01 -0.00 -2.37 4.72 8.62 -0.01 -0.02 -0.36 15313
0.01 -0.00 -2.84 4.20 6.79 -0.32 -0.30 -0.74 15321
0.02 -0.00 -1.43 2.55 5.69 -0.50 -0.66 -1.20 15328
0.00 0.00 -1.59 2.97 10.02 -0.70 -0.90 -1.49 15335
0.00 0.00 -0.47 2.76 10.55 -1.00 -0.99 -1.77 15342
0.00 0.00 0.32 1.66 9.40 -1.08 -1.08 -2.02 15349
0.00 0.00 0.84 1.09 8.72 -1.08 -1.12 -2.18 15356
0.00 0.00 1.52 0.71 7.97 -1.04 -1.07 -2.32 15364
0.00 0.00 1.91 0.45 7.46 -0.98 -1.00 -2.39 15371
0.00 0.00 1.88 0.08 7.20 -0.89 -0.92 -2.40 15378
0.00 0.00 1.52 -0.24 7.08 -0.79 -0.89 -2.36 15385
0.00 0.00 1.37 -0.39 7.33 -0.63 -0.94 -2.29 15392
0.00 0.00 1.43 -0.37 7.89 -0.47 -1.06 -2.19 15399
0.00 0.00 2.44 -0.28 9.06 -0.35 -1.15 -2.07 15407
0.00 0.00 3.08 -0.07 10.12 -0.30 -1.14 -1.95 15414
0.00 0.00 4.22 0.25 10.43 -0.33 -0.95 -1.82 15421
0.00 0.00 5.05 0.48 10.15 -0.46 -0.65 -1.66 15428
0.00 0.00 5.13 0.52 9.73 -0.66 -0.22 -1.53 15435
0.00 0.00 4.70 0.13 9.17 -0.83 0.22 -1.36 15442
0.00 -0.00 4.10 -0.30 9.13 -0.93 0.46 -1.20 15450
0.00 0.00 3.09 -0.91 8.89 -0.93 0.63 -1.02 15457
0.00 0.00 2.28 -1.25 8.64 -0.86 0.67 -0.84 15464
0.00 0.00 1.76 -1.49 8.52 -0.76 0.63 -0.69 15471
0.00 0.00 1.62 -1.51 8.69 -0.69 0.55 -0.54 15478
0.00 0.00 1.64 -1.42 8.93 -0.62 0.49 -0.42 15485
0.00 0.00 1.64 -1.37 9.12 -0.59 0.41 -0.31 15493
0.00 0.00 1.64 -1.37 9.24 -0.56 0.36 -0.21 15500
0.00 0.00 1.45 -1.43 9.30 -0.54 0.31 -0.15 15507
0.00 0.00 1.07 -1.48 9.37 -0.51 0.24 -0.08 15514
0.00 0.00 0.87 -1.51 9.61 -0.49 0.17 -0.04 15521
0.00 0.00 0.85 -1.53 10.03 -0.49 0.12 -0.02 15528
0.00 -0.00 0.97 -1.56 10.49 -0.52 0.11 -0.02 15536
0.00 0.00 1.07 -1.68 10.64 -0.60 0.14 -0.04 15543
0.00 0.00 1.14 -1.76 10.57 -0.67 0.22 -0.08 15550
0.00 0.00 1.17 -1.88 10.38 -0.75 0.30 -0.16 15557
0.00 0.00 1.17 -1.99 10.22 -0.81 0.40 -0.18 15564
0.00 0.00 1.09 -2.07 10.16 -0.83 0.50 -0.22 15571
0.00 0.00 1.05 -2.10 10.16 -0.82 0.51 -0.25 15579
0.00 0.00 1.07 -2.12 10.21 -0.80 0.52 -0.27 15586
0.00 0.00 1.09 -2.18 10.33 -0.79 0.53 -0.28 15593
0.00 0.00 1.08 -2.30 10.41 -0.79 0.52 -0.28 15600
0.00 0.00 0.99 -2.53 10.38 -0.78 0.53 -0.29 15607
0.00 0.00 0.89 -2.60 10.32 -0.77 0.56 -0.28 15614
0.00 0.00 0.65 -2.60 10.16 -0.75 0.62 -0.25 15622
0.00 0.00 0.32 -2.51 10.06 -0.72 0.65 -0.19 15629
0.00 0.00 0.05 -2.47 10.12 -0.69 0.65 -0.13 15636
0.00 0.00 -0.09 -2.45 10.30 -0.66 0.58 -0.06 15643
0.00 0.00 0.07 -2.45 10.60 -0.65 0.51 -0.01 15650
0.01 -0.00 0.39 -2.53 10.65 -0.65 0.44 0.03 15657
0.00 0.00 0.49 -2.55 10.50 -0.66 0.43 0.07 15665
0.00 0.00 0.68 -2.68 10.39 -0.70 0.45 0.08 15672
0.00 0.00 0.74 -3.00 10.32 -0.71 0.51 0.05 15679
0.00 0.00 0.71 -3.26 10.32 -0.71 0.59 -0.03 15686
0.00 0.00 0.38 -3.55 10.25 -0.67 0.69 -0.08 15693
0.00 -0.00 0.00 -3.60 10.04 -0.62 0.78 -0.18 15700
0.00 0.00 -0.24 -3.40 9.93 -0.56 0.83 -0.26 15708
0.00 0.00 -0.56 -3.02 10.02 -0.52 0.89 -0.32 15715
0.00 0.00 -0.74 -2.69 10.26 -0.48 0.93 -0.34 15722
0.00 0.00 -1.05 -2.44 10.50 -0.48 0.94 -0.33 15729
0.00 0.00 -1.24 -2.30 10.54 -0.48 0.91 -0.30 15736
0.00 0.00 -1.31 -2.32 10.58 -0.51 0.84 -0.26 15744
0.00 0.00 -1.20 -2.49 10.55 -0.54 0.75 -0.21 15751
0.00 0.00 -1.06 -2.78 10.49 -0.56 0.67 -0.16 15758
0.00 0.00 -0.76 -2.98 10.43 -0.56 0.60 -0.10 15765
0.00 0.00 -0.45 -3.25 10.20 -0.55 0.56 -0.04 15772
0.00 -0.00 -0.27 -3.38 9.99 -0.53 0.56 0.01 15779
0.00 0.00 -0.12 -3.44 9.77 -0.48 0.57 0.06 15787
0.00 0.00 -0.14 -3.39 9.64 -0.44 0.59 0.12 15794
0.00 0.00 -0.24 -3.40 9.76 -0.38 0.60 0.17 15801
0.00 0.00 -0.36 -3.31 9.73 -0.30 0.60 0.23 15808
0.00 0.00 -0.38 -3.24 9.82 -0.30 0.59 0.28 15815
0.00 0.00 -0.54 -3.15 9.84 -0.29 0.58 0.33 15822
0.00 0.00 -0.72 -3.18 9.80 -0.29 0.58 0.39 15830
0.00 0.00 -0.92 -3.29 9.78 -0.29 0.56 0.44 15837
0.00 0.00 -1.09 -3.34 9.69 -0.29 0.52 0.49 15844
0.00 0.00 -1.22 -3.40 9.47 -0.28 0.49 0.54 15851
0.00 0.00 -4.01 -5.13 17.35 -0.07 0.03 0.60 15858
0.00 -0.00 -2.21 -2.95 8.02 -0.09 -0.12 0.65 15865
0.00 0.00 -2.10 -4.18 9.77 -0.04 -0.20 0.68 15873
0.00 0.00 -2.05 -4.64 9.00 0.00 -0.32 0.72 15880
0.00 0.00 -1.68 -4.18 9.11 0.07 -0.34 0.73 15887
0.00 0.00 -1.75 -4.37 8.67 0.18 -0.29 0.75 15894
0.00 0.00 -2.12 -4.77 8.80 0.26 -0.22 0.79 15901
0.00 0.00 -2.76 -4.91 8.56 0.35 -0.20 0.81 15908
0.00 0.00 -3.45 -5.30 8.62 0.44 -0.27 0.80 15916
0.00 0.00 -3.98 -5.81 8.25 0.51 -0.37 0.78 15923
0.00 0.00 -4.58 -6.63 8.27 0.61 -0.52 0.77 15930
0.00 0.00 -4.89 -7.27 8.11 0.71 -0.68 0.74 15937
0.00 0.00 -4.92 -9.52 7.69 0.85 -0.84 0.70 15944
0.00 0.00 -3.79 -7.49 8.78 1.15 -0.78 0.70 15951
0.00 0.00 -3.61 -2.65 9.04 1.28 -0.75 0.60 15959
0.00 0.00 -8.31 -2.40 27.73 1.30 -1.14 0.31 15966
-0.00 0.00 0.63 -2.34 15.09 0.16 -0.93 -0.17 15973
-0.00 0.02 0.02 -1.63 8.43 -0.12 0.01 0.02 15980
0.00 0.03 0.46 -1.19 10.16 -0.25 -0.02 -0.05 15987
-0.00 0.03 0.45 -0.62 9.52 -0.29 -0.07 -0.05 15994
-0.01 0.06 0.65 -0.91 10.36 -0.29 -0.08 -0.04 16002
-0.01 0.05 0.48 -0.86 10.27 -0.27 -0.05 -0.04 16009
-0.01 0.08 0.37 -0.71 10.11 -0.19 -0.02 -0.05 16016
-0.01 0.12 0.35 -0.73 9.99 -0.14 0.01 -0.05 16023
-0.00 0.17 0.38 -0.77 9.84 -0.10 0.03 -0.06 16030
-0.01 0.16 0.37 -0.86 9.86 -0.09 0.04 -0.05 16037
-0.02 0.22 0.37 -0.88 9.83 -0.09 0.04 -0.04 16045
-0.02 0.21 0.31 -0.85 9.85 -0.08 0.04 -0.04 16052
-0.03 0.28 0.37 -0.79 9.80 -0.08 0.03 -0.04 16059
-0.02 0.25 0.37 -0.75 9.77 -0.08 0.03 -0.04 16066
-0.01 0.32 0.46 -0.78 9.79 -0.09 0.03 -0.05 16073
-0.02 0.31 0.37 -0.76 9.75 -0.09 0.03 -0.04 16080
-0.03 0.32 0.34 -0.76 9.81 -0.10 0.03 -0.05 16088
-0.02 0.39 0.37 -0.77 9.77 -0.10 0.03 -0.05 16095
-0.02 0.44 0.42 -0.77 9.82 -0.10 0.03 -0.05 16102
-0.02 0.51 0.40 -0.77 9.84 -0.09 0.04 -0.05 16109
-0.01 0.53 0.40 -0.76 9.84 -0.08 0.04 -0.05 16116
-0.02 0.58 0.39 -0.77 9.85 -0.08 0.04 -0.05 16123
-0.03 0.63 0.39 -0.70 9.85 -0.07 0.04 -0.05 16131
-0.03 0.58 0.41 -0.74 9.84 -0.06 0.04 -0.06 16138
-0.03 0.66 0.44 -0.72 9.85 -0.05 0.04 -0.06 16145
-0.02 0.76 0.41 -0.74 9.84 -0.04 0.04 -0.06 16152
-0.01 0.78 0.43 -0.71 9.85 -0.04 0.04 -0.06 16159
-0.02 0.85 0.41 -0.73 9.81 -0.03 0.05 -0.06 16166
-0.02 0.82 0.38 -0.74 9.82 -0.03 0.05 -0.06 16174
-0.03 0.80 0.40 -0.70 9.81 -0.02 0.04 -0.06 16181
-0.02 0.80 0.40 -0.71 9.83 -0.02 0.04 -0.06 16188
-0.01 0.82 0.33 -0.72 9.77 -0.02 0.04 -0.06 16195
-0.02 0.83 0.45 -0.68 9.80 -0.01 0.04 -0.07 16202
-0.03 0.87 0.39 -0.71 9.82 -0.01 0.04 -0.07 16209
-0.03 0.86 0.39 -0.69 9.82 -0.01 0.04 -0.07 16217
-0.03 0.84 0.42 -0.68 9.81 -0.00 0.04 -0.07 16224
-0.02 0.83 0.36 -0.68 9.82 -0.00 0.04 -0.07 16231
-0.01 0.84 0.40 -0.67 9.82 -0.00 0.04 -0.07 16238
-0.02 0.81 0.40 -0.71 9.20 0.00 0.05 -0.07 16245
-0.02 0.78 0.41 -0.73 9.81 0.00 0.05 -0.07 16252
-0.02 0.75 0.36 -0.74 9.81 -0.00 0.05 -0.08 16260
-0.02 0.74 0.35 -0.75 9.82 -0.00 0.05 -0.07 16267
-0.01 0.74 0.36 -0.69 9.81 0.00 0.06 -0.07 16274
0.00 0.73 0.42 -0.69 9.81 -0.00 0.06 -0.08 16281
-0.01 0.71 0.43 -0.68 9.80 -0.00 0.06 -0.07 16288
-0.01 0.69 0.39 -0.73 9.83 0.00 0.05 -0.07 16295
-0.02 0.68 0.43 -0.70 9.82 -0.00 0.05 -0.07 16303
-0.00 0.68 0.40 -0.71 9.81 -0.00 0.05 -0.07 16310
0.01 0.67 0.43 -0.69 9.83 -0.00 0.05 -0.07 16317
-0.00 0.67 0.39 -0.71 9.81 -0.00 0.05 -0.07 16324
0.00 0.66 0.42 -0.70 9.82 -0.01 0.05 -0.07 16331
-0.01 0.65 0.41 -0.72 9.82 -0.01 0.05 -0.07 16338
-0.01 0.66 0.41 -0.70 9.81 -0.00 0.05 -0.07 16346
-0.00 0.66 0.41 -0.71 9.81 -0.00 0.05 -0.07 16353
0.01 0.67 0.40 -0.73 9.81 -0.00 0.05 -0.07 16360
0.01 0.67 0.40 -0.72 9.81 -0.01 0.05 -0.07 16367
-0.00 0.67 0.41 -0.72 9.21 -0.01 0.05 -0.07 16374
-0.00 0.66 0.43 -0.71 9.81 -0.00 0.04 -0.06 16381
-0.02 0.67 0.42 -0.69 9.82 -0.00 0.04 -0.06 16389
-0.02 0.67 0.40 -0.71 9.81 -0.01 0.04 -0.07 16396
-0.01 0.67 0.43 -0.70 9.79 -0.00 0.04 -0.07 16403
-0.02 0.65 0.40 -0.70 9.82 -0.01 0.04 -0.07 16410
-0.03 0.65 0.38 -0.71 9.82 -0.00 0.04 -0.07 16417
-0.02 0.63 0.37 -0.73 9.80 -0.00 0.04 -0.07 16424
-0.03 0.64 0.41 -0.70 9.81 -0.00 0.04 -0.07 16432
-0.04 0.64 0.42 -0.70 9.80 -0.00 0.04 -0.07 16439
-0.02 0.65 0.41 -0.72 9.81 -0.00 0.04 -0.08 16446
-0.02 0.63 0.42 -0.74 9.81 -0.00 0.04 -0.07 16453
-0.02 0.64 0.40 -0.71 9.78 0.00 0.03 -0.07 16460
-0.03 0.63 0.39 -0.74 9.82 -0.00 0.03 -0.08 16467
-0.03 0.63 0.36 -0.74 9.80 0.00 0.03 -0.08 16475
-0.01 0.63 0.40 -0.71 9.79 0.00 0.03 -0.08 16482
0.00 0.61 0.40 -0.69 9.80 0.00 0.04 -0.08 16489
-0.01 0.61 0.43 -0.76 9.77 0.00 0.03 -0.07 16496
0.00 0.59 0.41 -0.71 9.80 0.00 0.03 -0.08 16503
0.00 0.58 0.40 -0.72 9.80 0.01 0.03 -0.08 16510
-0.00 0.56 0.40 -0.71 9.82 0.00 0.04 -0.08 16518
0.00 0.56 0.43 -0.72 9.81 0.01 0.04 -0.08 16525
0.00 0.51 0.38 -0.74 9.82 0.01 0.04 -0.08 16532
0.00 0.50 0.42 -0.70 9.79 0.01 0.04 -0.08 16539
0.02 0.47 0.39 -0.71 9.81 0.01 0.04 -0.08 16546
0.01 0.43 0.42 -0.72 9.77 0.01 0.04 -0.08 16553
0.03 0.42 0.41 -0.68 9.81 0.01 0.04 -0.08 16561
0.07 0.44 0.38 -0.72 9.82 0.02 0.04 -0.08 16568
0.06 0.38 0.40 -0.75 9.79 0.01 0.04 -0.08 16575
0.07 0.36 0.42 -0.76 9.81 0.01 0.04 -0.09 16582
0.07 0.36 0.40 -0.72 9.80 0.01 0.04 -0.08 16589
0.06 0.33 0.42 -0.74 9.82 0.01 0.05 -0.08 16596
0.08 0.33 0.37 -0.73 9.81 0.01 0.05 -0.08 16604
0.10 0.33 0.38 -0.72 9.76 0.01 0.05 -0.08 16611
0.09 0.31 0.34 -0.75 9.81 0.02 0.05 -0.08 16618
0.11 0.28 0.46 -0.72 9.81 0.02 0.06 -0.09 16625
0.11 0.28 0.39 -0.72 9.82 0.02 0.05 -0.09 16632
0.15 0.21 0.45 -0.72 9.82 0.03 0.06 -0.09 16640
0.18 0.22 0.41 -0.69 9.81 0.03 0.05 -0.09 16647
0.20 0.16 0.43 -0.76 9.81 0.04 0.05 -0.09 16654
0.19 0.12 0.42 -0.80 9.82 0.04 0.06 -0.09 16661
0.20 0.03 0.41 -0.76 9.82 0.04 0.05 -0.09 16668
0.21 0.06 0.41 -0.75 9.82 0.04 0.06 -0.09 16675
0.23 0.02 0.40 -0.78 9.84 0.05 0.06 -0.09 16683
0.25 0.00 0.43 -0.80 9.87 0.05 0.06 -0.09 16690
0.27 -0.01 0.45 -0.74 9.86 0.06 0.07 -0.09 16697
0.29 -0.02 0.45 -0.81 9.89 0.07 0.07 -0.09 16704
0.30 -0.03 0.47 -0.94 9.91 0.09 0.08 -0.08 16711
0.29 -0.02 0.47 -0.82 9.89 0.10 0.08 -0.09 16718
0.30 -0.02 0.53 -0.80 9.97 0.12 0.09 -0.09 16726
0.30 -0.00 0.57 -0.87 9.89 0.14 0.12 -0.10 16733
0.31 -0.01 0.21 -0.62 10.13 0.16 0.14 -0.12 16741
0.32 -0.02 0.64 -0.84 10.07 0.22 0.21 -0.15 16748
0.31 -0.03 0.27 -0.89 10.43 0.29 0.32 -0.29 16754
0.33 -0.02 0.04 -0.77 11.33 0.77 0.39 -0.18 16761
0.35 -0.02 0.77 -1.02 12.31 1.30 0.56 -0.20 16770
0.36 -0.02 0.51 -1.09 11.60 1.34 0.45 -0.20 16776
0.35 -0.02 0.82 -1.32 10.74 1.28 0.35 -0.20 16784
0.34 -0.02 0.48 -1.37 10.43 1.29 0.26 -0.19 16791
0.33 -0.02 0.44 -1.42 10.53 1.33 0.15 -0.16 16798
0.30 -0.02 0.43 -1.34 10.84 1.33 0.17 -0.15 16805
0.28 -0.01 0.44 -1.61 10.91 1.36 0.18 -0.14 16813
0.24 -0.02 0.44 -1.85 11.31 1.45 0.18 -0.12 16820
0.21 -0.02 0.80 -1.94 10.45 1.47 0.06 -0.09 16826
0.15 -0.01 0.92 -1.95 11.63 1.55 0.24 -0.10 16834
0.15 -0.00 0.26 -2.02 11.93 1.73 0.26 -0.09 16840
0.12 -0.01 0.68 -2.04 10.26 1.78 0.36 -0.08 16847
0.08 -0.00 0.64 -2.28 10.22 1.73 0.46 -0.08 16855
0.08 -0.01 0.26 -2.56 10.45 1.69 0.48 -0.05 16862
0.09 -0.01 0.48 -1.91 10.23 1.65 0.49 -0.02 16869
0.05 -0.00 0.66 -2.83 10.27 1.63 0.52 -0.01 16876
0.02 0.00 0.69 -3.02 10.46 1.60 0.54 0.02 16883
0.03 -0.00 0.78 -3.24 10.40 1.55 0.51 0.02 16890
0.04 0.01 0.94 -3.22 10.27 1.49 0.44 0.02 16898
0.05 -0.00 0.48 -3.09 10.12 1.42 0.38 0.02 16905
0.02 -0.00 0.36 -3.26 10.50 1.32 0.25 0.01 16912
0.01 -0.00 0.29 -2.56 11.16 1.24 0.08 -0.00 16919
0.00 -0.00 0.02 -0.75 10.93 1.09 -0.01 -0.03 16926
0.01 -0.00 -0.42 1.57 10.56 0.86 -0.10 -0.11 16933
0.01 -0.00 -0.07 2.54 9.57 0.57 -0.16 -0.27 16941
0.02 -0.00 -0.32 3.18 9.53 0.26 -0.20 -0.47 16948
0.01 -0.00 -1.33 3.75 9.88 0.05 -0.22 -0.77 16955
0.01 -0.00 -1.89 3.87 9.83 -0.11 -0.26 -1.09 16962
0.00 -0.00 -3.05 3.95 9.70 -0.23 -0.35 -1.52 16969
0.00 0.00 -1.97 3.02 8.53 -0.30 -0.45 -1.93 16976
0.00 0.00 -1.99 2.99 9.91 -0.46 -0.62 -2.18 16984
0.00 0.00 -1.14 2.76 9.64 -0.68 -0.75 -2.42 16991
-0.00 0.00 -0.32 2.18 8.90 -0.87 -0.89 -2.60 16998
0.00 0.00 0.34 1.17 8.81 -0.97 -0.99 -2.67 17005
0.00 0.00 1.03 0.19 8.76 -0.98 -1.02 -2.72 17012
0.00 0.00 1.67 -0.23 8.82 -0.95 -0.99 -2.72 17019
0.00 -0.00 2.22 -0.51 8.76 -0.90 -0.93 -2.68 17027
0.00 0.00 2.63 -0.61 8.83 -0.83 -0.85 -2.62 17034
0.00 0.00 3.02 -0.35 8.81 -0.77 -0.76 -2.52 17041
0.00 0.00 3.30 -0.17 8.96 -0.73 -0.66 -2.38 17048
0.00 0.00 3.59 -0.08 8.88 -0.70 -0.54 -2.24 17055
-0.00 0.01 3.64 -0.26 8.87 -0.70 -0.40 -2.05 17062
0.00 0.00 3.74 -0.38 9.08 -0.70 -0.27 -1.86 17070
0.00 0.00 3.68 -0.65 9.13 -0.70 -0.12 -1.67 17077
0.00 0.00 3.64 -0.94 9.45 -0.69 0.02 -1.46 17084
0.00 0.00 3.54 -1.29 9.51 -0.69 0.13 -1.28 17091
0.00 0.00 3.38 -1.59 9.45 -0.68 0.26 -1.05 17098
-0.00 0.00 3.11 -1.81 9.54 -0.66 0.34 -0.84 17105
0.00 0.00 2.86 -2.01 9.64 -0.63 0.39 -0.67 17113
0.00 0.00 2.56 -2.00 9.65 -0.60 0.43 -0.48 17120
0.00 0.00 2.32 -1.95 9.74 -0.58 0.45 -0.32 17127
0.00 0.00 1.99 -1.89 9.77 -0.56 0.45 -0.16 17134
0.00 0.00 1.75 -1.82 9.86 -0.56 0.45 -0.01 17141
0.00 0.00 1.43 -1.80 9.90 -0.55 0.45 0.10 17148
0.00 0.00 1.11 -1.79 9.83 -0.56 0.46 0.23 17156
0.00 0.00 0.88 -2.45 9.82 -0.57 0.46 0.34 17163
0.00 0.00 0.64 -1.90 9.81 -0.57 0.42 0.44 17170
0.00 0.00 0.73 -1.98 9.84 -0.56 0.34 0.51 17177
0.00 0.00 0.86 -2.08 9.95 -0.55 0.32 0.55 17184
0.00 0.00 1.07 -2.14 10.08 -0.55 0.29 0.57 17191
0.00 0.00 1.19 -2.22 10.23 -0.56 0.30 0.58 17199
0.00 0.00 1.20 -2.26 10.28 -0.57 0.32 0.58 17206
0.00 0.00 1.10 -2.33 10.31 -0.58 0.36 0.58 17213
0.00 0.00 1.00 -2.44 10.31 -0.58 0.39 0.58 17220
0.00 0.00 0.90 -2.52 10.21 -0.59 0.42 0.57 17227
0.00 -0.00 0.83 -2.68 10.28 -0.59 0.45 0.55 17234
0.00 0.00 0.75 -2.69 10.20 -0.59 0.51 0.53 17242
0.00 0.00 0.56 -2.53 10.15 -0.59 0.55 0.51 17249
0.00 0.00 0.45 -2.53 10.08 -0.58 0.58 0.50 17256
0.00 0.00 0.17 -2.21 9.92 -0.58 0.57 0.49 17263
0.00 0.00 0.04 -2.07 10.05 -0.58 0.54 0.48 17270
0.00 0.00 -0.06 -2.10 10.17 -0.58 0.48 0.48 17277
0.00 0.00 -0.02 -2.08 10.22 -0.59 0.44 0.47 17285
0.00 0.00 0.06 -2.13 10.28 -0.60 0.44 0.48 17292
0.00 0.00 0.12 -2.35 10.31 -0.60 0.48 0.47 17299
0.00 0.00 0.17 -2.48 10.18 -0.61 0.51 0.47 17306
0.00 0.00 0.12 -2.69 10.16 -0.61 0.54 0.46 17313
0.00 0.00 0.07 -2.95 10.00 -0.60 0.55 0.45 17320
0.00 0.00 0.01 -3.02 9.94 -0.58 0.54 0.45 17328
0.00 0.00 -0.03 -3.09 9.85 -0.55 0.51 0.45 17335
0.00 0.00 0.00 -3.01 9.88 -0.52 0.46 0.45 17342
0.00 0.00 0.09 -2.98 9.84 -0.48 0.43 0.45 17349
0.00 0.00 0.30 -2.97 9.84 -0.44 0.42 0.43 17356
0.00 0.00 0.39 -2.95 9.85 -0.41 0.44 0.41 17363
0.00 0.00 0.27 -2.90 9.87 -0.40 0.50 0.39 17371
0.00 0.00 -0.00 -2.78 9.85 -0.40 0.57 0.38 17378
0.00 0.00 -0.23 -2.69 9.97 -0.42 0.63 0.37 17385
0.00 0.00 -0.53 -2.74 10.07 -0.45 0.67 0.37 17392
0.00 0.00 -0.85 -2.77 10.03 -0.47 0.65 0.39 17399
0.00 0.00 -1.09 -2.95 9.97 -0.48 0.59 0.41 17406
0.00 0.00 -1.11 -3.23 9.76 -0.47 0.51 0.41 17414
0.00 0.00 -1.05 -3.45 9.58 -0.45 0.44 0.42 17421
0.00 0.00 -0.99 -3.72 9.46 -0.41 0.40 0.41 17428
-0.00 0.00 -0.93 -3.91 9.30 -0.37 0.39 0.38 17435
0.00 -0.00 -1.01 -3.98 9.17 -0.31 0.39 0.35 17442
0.00 0.00 -1.02 -3.88 9.09 -0.26 0.40 0.29 17449
0.00 0.00 -1.07 -3.70 9.28 -0.22 0.42 0.24 17457
0.00 0.00 -3.47 -5.60 11.46 -0.11 0.35 0.23 17464
0.00 0.00 -2.24 -3.99 10.27 0.08 0.15 0.25 17471
0.00 0.00 -2.01 -3.00 7.60 0.09 0.05 0.23 17478
0.00 0.00 -3.41 -5.48 9.65 0.08 -0.04 0.28 17485
0.00 0.00 -1.90 -4.50 9.43 0.12 -0.17 0.34 17492
0.00 0.00 -2.21 -4.39 8.94 0.14 -0.23 0.36 17500
0.00 0.00 -2.24 -5.65 9.82 0.20 -0.23 0.43 17507
0.00 0.00 -1.77 -6.15 8.59 0.27 -0.11 0.52 17514
0.00 0.00 -2.20 -6.60 8.25 0.37 -0.13 0.57 17521
0.00 0.00 -3.18 -7.36 8.32 0.47 -0.26 0.61 17528
0.00 0.00 -3.47 -8.14 8.26 0.61 -0.36 0.67 17536
0.00 0.00 -3.53 -8.50 8.26 0.76 -0.47 0.73 17543
0.00 0.00 -4.38 -9.42 8.32 0.87 -0.56 0.79 17550
0.00 0.00 -4.35 -6.49 9.64 1.02 -0.62 0.79 17557
-0.00 0.02 -9.47 -2.59 12.32 0.52 -1.15 0.22 17564
-0.00 0.00 -0.50 -2.22 14.06 0.07 -0.56 -0.07 17571
-0.00 0.01 -0.21 -1.10 9.13 -0.14 0.01 -0.05 17579
-0.00 0.00 0.23 -0.91 9.87 -0.20 -0.02 -0.06 17586
-0.00 0.02 0.68 -0.63 8.98 -0.19 -0.09 -0.05 17593
-0.00 0.04 0.40 -0.97 10.11 -0.23 -0.06 -0.03 17600
0.00 0.03 0.44 -1.03 10.01 -0.33 -0.00 -0.01 17607
-0.00 0.08 0.39 -1.01 10.21 -0.26 0.02 -0.03 17614
-0.01 0.06 0.37 -0.85 10.06 -0.23 0.01 -0.04 17622
-0.01 0.14 0.49 -0.76 9.97 -0.17 0.02 -0.05 17629
-0.02 0.17 0.48 -0.77 9.91 -0.10 -0.00 -0.05 17636
-0.02 0.21 0.47 -0.75 9.80 -0.12 -0.02 -0.06 17643
-0.00 0.23 0.36 -0.82 9.82 -0.10 -0.04 -0.06 17650
0.02 0.22 0.36 -0.89 9.81 -0.09 -0.04 -0.06 17657
0.02 0.25 0.35 -0.82 9.81 -0.09 -0.03 -0.07 17665
0.05 0.24 0.32 -0.82 9.81 -0.07 -0.01 -0.06 17672
0.05 0.30 0.34 -0.74 9.84 -0.07 0.00 -0.06 17679
0.05 0.32 0.38 -0.79 9.80 -0.07 0.00 -0.06 17686
0.06 0.31 0.34 -0.81 9.83 -0.06 0.01 -0.06 17693
0.04 0.36 0.33 -0.78 9.78 -0.06 0.02 -0.06 17700
