Voltage_01 Voltage_02 Acc_x Acc_y Acc_z Gyro_x Gyro_y Gyro_z Time
5000
-0.03 0.55 0.64 -0.73 9.71 0.00 0.05 -0.05 24
-0.04 0.56 0.62 -0.75 9.71 0.00 0.06 -0.04 31
-0.04 0.55 0.62 -0.72 9.73 0.00 0.07 -0.05 38
-0.03 0.52 0.63 -0.73 9.73 0.03 0.07 -0.05 46
-0.04 0.51 0.61 -0.69 9.70 0.00 0.07 -0.05 53
-0.02 0.52 0.69 -0.72 9.75 0.00 0.07 -0.05 60
-0.01 0.49 0.67 -0.72 9.71 0.01 0.07 -0.05 67
-0.01 0.48 0.67 -0.74 9.74 0.00 0.07 -0.05 74
-0.02 0.49 0.63 -0.74 9.70 0.00 0.06 -0.05 81
-0.02 0.48 0.66 -0.75 9.72 0.00 0.06 -0.05 89
-0.02 0.45 0.66 -0.73 9.75 0.00 0.07 -0.05 96
-0.03 0.45 0.69 -0.73 9.76 0.00 0.07 -0.05 103
-0.01 0.47 0.67 -0.74 9.76 0.00 0.07 -0.05 110
-0.02 0.45 0.71 -0.74 9.75 0.01 0.06 -0.05 117
-0.02 0.45 0.71 -0.75 9.69 0.01 0.06 -0.04 124
-0.03 0.45 0.70 -0.74 9.71 0.01 0.06 -0.05 132
-0.02 0.45 0.68 -0.70 9.71 0.01 0.06 -0.05 139
-0.02 0.43 0.67 -0.72 9.74 0.01 0.06 -0.05 146
-0.01 0.43 0.67 -0.73 9.73 0.01 0.06 -0.06 153
-0.01 0.42 0.66 -0.71 9.81 0.01 0.06 -0.06 160
-0.02 0.39 0.71 -0.75 9.79 0.02 0.06 -0.06 167
-0.01 0.40 0.67 -0.75 9.80 0.01 0.07 -0.06 175
-0.00 0.41 0.68 -0.76 9.75 0.01 0.07 -0.06 182
0.00 0.39 0.69 -0.72 9.75 0.02 0.07 -0.05 189
0.02 0.34 0.75 -0.73 9.79 0.02 0.07 -0.06 196
0.01 0.32 0.72 -0.75 9.71 0.02 0.06 -0.05 203
0.01 0.31 0.72 -0.74 9.76 0.02 0.06 -0.05 210
0.00 0.29 0.72 -0.76 9.75 0.02 0.06 -0.05 218
0.01 0.27 0.79 -0.77 9.80 0.03 0.06 -0.05 225
0.02 0.29 0.78 -0.74 9.70 0.02 0.06 -0.05 232
0.03 0.26 0.76 -0.74 9.77 0.02 0.06 -0.06 239
0.01 0.26 0.74 -0.78 9.81 0.02 0.05 -0.06 246
0.01 0.28 0.73 -0.80 9.76 0.02 0.05 -0.06 253
0.00 0.19 0.78 -0.80 9.77 0.02 0.04 -0.06 261
0.01 0.22 0.76 -0.76 9.77 0.01 0.04 -0.06 268
0.05 0.17 0.78 -0.80 9.75 0.01 0.04 -0.06 275
0.03 0.15 0.76 -0.81 9.76 0.01 0.04 -0.06 282
0.03 0.16 0.74 -0.78 9.76 0.01 0.04 -0.07 289
0.02 0.23 0.72 -0.79 9.76 0.01 0.04 -0.06 296
0.03 0.17 0.82 -0.79 9.81 0.02 0.03 -0.06 304
0.03 0.09 0.77 -0.81 9.81 0.03 0.03 -0.06 311
0.04 0.07 0.84 -0.75 9.78 0.04 0.04 -0.06 318
0.05 0.02 0.78 -0.73 9.81 0.06 0.03 -0.07 325
0.04 0.01 0.82 -0.74 9.85 0.09 0.04 -0.08 332
0.04 0.01 0.71 -0.82 9.98 0.13 0.05 -0.08 339
0.03 -0.00 0.76 -0.85 10.13 0.17 0.06 -0.07 347
0.05 -0.00 0.79 -0.92 10.27 0.24 0.09 -0.06 354
0.05 -0.01 0.83 -0.87 10.53 0.33 0.14 -0.07 361
0.04 -0.00 1.10 -0.98 11.64 0.52 0.20 -0.11 368
0.04 -0.00 1.33 -1.04 12.33 1.01 0.34 -0.20 375
0.03 -0.00 0.96 -1.00 14.31 1.62 0.41 -0.25 382
0.03 -0.00 1.14 -1.39 14.54 2.15 0.31 -0.28 390
0.03 -0.00 1.17 -1.14 13.82 2.34 0.25 -0.32 397
0.06 -0.01 1.08 -1.14 13.44 2.44 0.18 -0.33 404
0.04 -0.00 1.34 -1.32 13.17 2.54 0.13 -0.34 411
0.05 -0.01 1.50 -1.54 13.74 2.66 0.13 -0.36 418
0.03 -0.00 1.71 -1.75 13.85 2.79 0.19 -0.38 425
0.03 0.00 1.99 -2.05 13.97 2.89 0.27 -0.42 433
0.01 -0.00 2.45 -2.15 14.55 2.99 0.35 -0.50 440
0.00 -0.00 2.35 -2.29 14.94 3.04 0.48 -0.50 447
0.00 -0.00 2.73 -2.54 15.26 3.04 0.65 -0.54 454
0.00 0.00 2.63 -2.06 15.38 3.00 0.76 -0.57 461
0.00 0.00 2.14 -0.79 14.96 2.93 0.81 -0.60 468
0.01 0.00 1.49 0.80 14.76 2.77 0.77 -0.60 476
0.00 -0.00 0.40 2.73 13.93 2.55 0.54 -0.58 483
0.00 -0.00 0.56 2.66 12.36 2.32 0.31 -0.57 490
0.00 0.00 0.62 5.63 11.11 2.09 0.17 -0.58 497
0.00 0.00 1.06 8.74 11.44 1.77 0.10 -0.64 504
0.00 0.00 0.39 8.83 9.73 1.51 0.02 -0.71 512
0.00 0.00 0.63 10.91 9.58 1.23 0.00 -0.80 518
0.00 0.00 0.31 10.95 9.06 0.94 0.03 -0.98 525
0.00 0.00 0.46 11.06 8.31 0.63 -0.00 -1.09 532
0.00 0.00 -0.02 10.98 8.58 0.28 -0.04 -1.18 539
0.00 0.00 -0.08 10.82 8.20 -0.01 -0.13 -1.23 546
0.00 0.00 -0.01 10.07 7.76 -0.28 -0.28 -1.25 553
0.00 0.00 0.26 9.27 7.54 -0.50 -0.41 -1.25 561
0.01 -0.00 0.64 8.62 7.30 -0.63 -0.49 -1.23 567
0.00 0.00 1.12 7.95 7.35 -0.81 -0.53 -1.21 574
0.00 0.00 1.55 7.39 7.55 -0.93 -0.52 -1.20 580
0.00 0.00 1.86 6.90 7.98 -1.07 -0.48 -1.17 586
0.00 0.00 2.17 6.36 8.32 -1.22 -0.40 -1.14 592
0.00 0.00 2.52 5.71 8.61 -1.38 -0.28 -1.09 600
0.00 -0.00 2.62 5.03 9.08 -1.57 -0.18 -1.04 607
0.00 0.00 2.67 4.13 9.26 -1.73 -0.08 -0.96 614
0.00 0.00 2.80 3.37 9.52 -1.84 -0.02 -0.89 620
0.00 0.00 2.85 2.75 10.38 -1.94 0.04 -0.81 626
0.00 0.00 2.87 1.92 9.95 -2.06 0.10 -0.71 633
0.01 -0.00 2.91 1.30 10.08 -2.10 0.13 -0.62 640
0.00 0.00 3.00 0.74 10.48 -2.15 0.18 -0.52 647
0.00 0.00 3.05 0.15 11.04 -2.19 0.21 -0.40 654
0.00 0.00 2.99 -0.26 11.49 -2.22 0.25 -0.30 661
0.00 0.00 2.81 -0.82 11.82 -2.23 0.28 -0.19 668
0.00 0.00 2.74 -1.35 12.17 -2.24 0.30 -0.07 675
0.00 0.00 2.54 -1.79 12.49 -2.25 0.31 0.03 683
0.00 0.00 2.45 -2.28 12.60 -2.21 0.32 0.15 690
0.00 0.00 2.36 -2.77 12.56 -2.21 0.33 0.24 697
0.00 0.00 2.31 -3.46 12.33 -2.16 0.32 0.33 704
0.00 0.00 2.30 -4.07 12.20 -2.08 0.31 0.41 711
0.00 0.00 2.33 -4.45 12.06 -1.97 0.29 0.46 718
0.00 0.00 2.24 -4.64 11.87 -1.81 0.29 0.52 726
0.00 0.00 2.39 -4.66 11.87 -1.70 0.33 0.58 733
0.00 0.00 2.58 -4.53 11.89 -1.57 0.40 0.62 740
0.00 0.00 2.69 -4.61 11.76 -1.48 0.51 0.66 747
0.00 0.00 2.73 -4.72 11.52 -1.38 0.61 0.69 754
0.00 0.00 2.58 -4.95 11.14 -1.27 0.71 0.71 761
0.00 0.00 2.38 -5.26 10.84 -1.15 0.77 0.73 769
0.00 0.00 2.11 -5.42 10.57 -1.00 0.81 0.73 776
0.00 0.00 1.75 -5.61 10.51 -0.86 0.81 0.73 783
0.00 0.00 1.50 -5.48 10.95 -0.71 0.81 0.73 790
0.00 0.00 1.21 -5.13 11.26 -0.61 0.80 0.75 797
0.00 0.00 1.04 -4.87 11.48 -0.58 0.79 0.80 804
0.00 0.00 0.75 -4.85 11.60 -0.58 0.74 0.86 812
0.00 0.00 -0.00 -5.55 12.42 -0.60 0.55 0.93 819
0.00 0.00 -0.76 -5.85 12.11 -0.59 0.35 1.00 826
0.00 0.00 -1.62 -7.23 11.62 -0.54 0.01 1.07 833
0.00 0.00 -1.45 -5.44 9.50 -0.45 -0.27 1.12 840
0.00 0.00 -0.68 -4.79 7.72 -0.45 -0.37 1.17 846
0.00 0.00 -0.20 -6.14 8.72 -0.43 -0.46 1.22 854
0.00 0.00 -0.37 -7.35 9.64 -0.36 -0.54 1.23 860
0.00 0.00 -0.29 -8.22 9.90 -0.21 -0.55 1.21 867
0.00 0.00 0.29 -8.72 10.38 -0.11 -0.48 1.16 873
0.00 0.00 1.10 -8.96 9.85 -0.07 -0.33 1.08 880
0.00 0.00 1.63 -9.11 9.27 -0.10 -0.09 1.02 886
0.00 0.00 1.97 -9.49 8.87 -0.22 0.21 0.93 892
0.00 0.00 2.05 -9.89 8.75 -0.32 0.48 0.84 899
0.00 0.00 1.43 -10.38 8.53 -0.48 0.77 0.76 905
0.00 0.00 0.34 -10.99 7.98 -0.59 1.01 0.65 912
0.00 0.00 -0.63 -11.55 7.04 -0.64 1.08 0.56 919
0.00 0.00 -1.79 -12.68 6.48 -0.60 1.02 0.47 926
0.00 0.00 -5.63 -19.91 9.74 -0.32 0.49 0.34 933
0.00 0.00 -5.00 -14.13 6.28 0.31 -0.02 0.20 941
0.00 0.00 -3.14 -13.76 0.58 0.51 -0.37 0.05 948
0.00 0.00 -2.72 -18.33 3.76 0.76 -0.69 -0.07 955
0.00 0.00 -2.92 -19.00 4.59 1.11 -1.00 -0.29 962
0.00 0.00 -2.66 -19.63 5.00 1.44 -1.15 -0.53 969
-0.00 0.01 -3.50 -19.20 4.78 1.73 -1.44 -0.70 976
0.01 0.01 0.15 -2.15 10.90 2.13 -1.68 -0.76 985
-0.00 0.06 1.63 -7.96 43.83 1.83 -3.14 -0.56 992
-0.01 0.16 1.15 -1.26 11.58 -0.30 -0.30 0.15 999
-0.02 0.21 1.11 -0.72 11.87 -0.41 0.26 0.03 1005
-0.02 0.39 -1.77 -2.54 12.30 -0.27 0.13 -0.09 1013
-0.03 0.45 0.01 -2.08 10.78 -0.14 0.04 -0.12 1020
-0.01 0.46 0.50 -0.59 10.03 -0.09 0.07 -0.05 1027
-0.03 0.53 0.26 -0.95 10.03 -0.06 0.10 -0.03 1034
-0.04 0.59 0.25 -0.57 9.77 -0.04 0.12 -0.03 1041
-0.06 0.59 0.60 -0.86 9.81 -0.05 0.13 -0.02 1048
-0.04 0.59 0.57 -0.90 9.83 -0.06 0.13 -0.02 1055
-0.03 0.66 0.47 -0.75 9.80 -0.05 0.11 -0.02 1062
-0.02 0.62 0.44 -0.77 9.82 -0.05 0.11 -0.03 1070
-0.02 0.64 0.47 -0.75 9.81 -0.04 0.11 -0.02 1077
-0.03 0.65 0.51 -0.70 9.80 -0.03 0.11 -0.02 1084
-0.04 0.65 0.52 -0.71 9.80 -0.02 0.10 -0.02 1091
-0.05 0.72 0.58 -0.77 9.80 -0.01 0.10 -0.03 1098
-0.04 0.72 0.54 -0.72 9.75 -0.01 0.09 -0.03 1105
-0.04 0.69 0.56 -0.67 9.66 -0.01 0.08 -0.04 1113
-0.05 0.70 0.65 -0.72 9.64 -0.00 0.08 -0.04 1120
-0.04 0.68 0.59 -0.64 9.68 0.00 0.06 -0.04 1127
-0.05 0.65 0.53 -0.71 9.74 0.01 0.06 -0.04 1134
-0.04 0.65 0.54 -0.76 9.70 0.01 0.07 -0.04 1141
-0.02 0.67 0.52 -0.76 9.79 0.00 0.06 -0.05 1148
-0.03 0.66 0.49 -0.73 9.83 -0.00 0.07 -0.05 1156
-0.04 0.64 0.46 -0.69 9.82 -0.01 0.08 -0.05 1163
-0.03 0.63 0.51 -0.71 9.86 -0.00 0.08 -0.05 1170
-0.03 0.63 0.49 -0.70 9.81 -0.01 0.09 -0.05 1177
-0.03 0.62 0.54 -0.73 9.81 -0.01 0.10 -0.05 1184
-0.01 0.59 0.46 -0.75 9.78 -0.00 0.12 -0.04 1191
-0.02 0.59 0.47 -0.70 9.79 -0.00 0.12 -0.04 1199
-0.03 0.57 0.50 -0.70 9.81 -0.00 0.13 -0.04 1206
-0.05 0.57 0.56 -0.72 9.78 0.00 0.14 -0.04 1213
-0.03 0.54 0.58 -0.71 9.76 0.01 0.14 -0.04 1220
-0.02 0.54 0.58 -0.70 9.76 0.00 0.14 -0.05 1227
-0.02 0.51 0.60 -0.66 9.75 0.00 0.14 -0.04 1234
-0.02 0.52 0.62 -0.68 9.75 0.01 0.14 -0.04 1242
-0.02 0.50 0.62 -0.71 9.72 0.00 0.13 -0.04 1249
-0.03 0.48 0.64 -0.69 9.71 0.01 0.12 -0.05 1256
-0.01 0.47 0.60 -0.70 9.76 0.00 0.11 -0.05 1263
-0.01 0.49 0.64 -0.70 9.73 0.01 0.11 -0.05 1270
-0.01 0.48 0.63 -0.75 9.76 0.01 0.11 -0.05 1277
-0.02 0.47 0.60 -0.74 9.79 0.00 0.11 -0.04 1285
-0.02 0.44 0.62 -0.73 9.73 0.00 0.12 -0.04 1292
-0.04 0.44 0.63 -0.70 9.75 -0.00 0.12 -0.04 1299
-0.04 0.44 0.65 -0.73 9.77 -0.00 0.13 -0.04 1306
-0.03 0.45 0.66 -0.74 9.75 -0.01 0.14 -0.04 1313
-0.03 0.44 0.68 -0.67 9.75 -0.00 0.13 -0.04 1320
-0.04 0.46 0.71 -0.71 9.76 -0.00 0.13 -0.04 1328
-0.03 0.44 0.71 -0.69 9.70 -0.00 0.13 -0.04 1335
-0.03 0.41 0.73 -0.68 9.71 0.00 0.12 -0.04 1342
-0.04 0.42 0.75 -0.73 9.75 0.00 0.12 -0.05 1349
-0.03 0.43 0.76 -0.71 9.75 0.01 0.10 -0.05 1356
-0.03 0.42 0.74 -0.72 9.73 0.01 0.10 -0.04 1363
-0.04 0.41 0.71 -0.71 9.79 0.01 0.09 -0.05 1371
-0.04 0.37 0.74 -0.76 9.80 0.01 0.09 -0.05 1378
-0.04 0.41 0.72 -0.72 9.77 0.02 0.08 -0.05 1385
-0.03 0.40 0.74 -0.73 9.76 0.01 0.08 -0.05 1392
-0.02 0.36 0.71 -0.73 9.78 0.01 0.08 -0.05 1399
-0.02 0.35 0.73 -0.72 9.77 0.01 0.08 -0.05 1406
-0.03 0.31 0.76 -0.74 9.78 0.01 0.07 -0.05 1414
-0.03 0.31 0.79 -0.76 9.72 0.01 0.06 -0.05 1421
-0.03 0.28 0.80 -0.77 9.70 0.01 0.04 -0.05 1428
-0.02 0.31 0.83 -0.73 9.70 0.00 0.03 -0.05 1435
-0.02 0.31 0.74 -0.72 9.70 0.01 0.02 -0.05 1442
-0.02 0.31 0.73 -0.75 9.79 0.01 0.02 -0.05 1449
-0.03 0.31 0.73 -0.74 9.75 0.01 0.02 -0.05 1457
-0.03 0.30 0.68 -0.74 9.74 0.01 0.03 -0.05 1464
-0.02 0.30 0.70 -0.76 9.76 0.01 0.03 -0.05 1471
-0.01 0.28 0.71 -0.74 9.77 -0.00 0.03 -0.05 1478
-0.02 0.27 0.71 -0.74 9.76 -0.00 0.04 -0.05 1485
-0.02 0.28 0.71 -0.75 9.77 -0.01 0.05 -0.05 1492
-0.02 0.26 0.74 -0.76 9.80 -0.01 0.06 -0.05 1500
-0.03 0.28 0.73 -0.76 9.74 -0.02 0.10 -0.05 1507
-0.02 0.30 0.75 -0.76 9.72 -0.02 0.07 -0.04 1514
-0.02 0.30 0.70 -0.74 9.73 -0.01 0.07 -0.04 1521
-0.02 0.30 0.75 -0.74 9.70 -0.01 0.07 -0.05 1528
-0.02 0.30 0.76 -0.69 9.70 -0.01 0.07 -0.05 1536
-0.02 0.29 0.74 -0.72 9.75 -0.00 0.07 -0.05 1543
-0.03 0.31 0.75 -0.70 9.72 -0.01 0.07 -0.05 1550
-0.03 0.30 0.76 -0.72 9.78 -0.00 0.06 -0.05 1557
-0.01 0.29 0.76 -0.68 9.78 0.00 0.05 -0.05 1564
-0.02 0.29 0.80 -0.73 9.72 0.00 0.05 -0.06 1571
-0.03 0.27 0.76 -0.71 9.73 0.01 0.04 -0.06 1579
-0.02 0.21 0.78 -0.71 9.71 0.02 0.05 -0.05 1586
-0.02 0.22 0.77 -0.74 9.75 0.02 0.05 -0.06 1593
-0.01 0.23 0.81 -0.71 9.79 0.03 0.05 -0.05 1600
0.02 0.19 0.76 -0.70 9.78 0.03 0.05 -0.06 1607
0.02 0.16 0.79 -0.72 9.79 0.07 0.05 -0.06 1614
0.02 0.14 0.75 -0.74 9.80 0.04 0.04 -0.05 1622
0.01 0.06 0.80 -0.76 9.76 0.04 0.04 -0.05 1629
0.02 0.05 0.81 -0.81 9.74 0.04 0.03 -0.05 1636
0.02 0.06 0.81 -0.77 9.78 0.05 0.03 -0.05 1643
0.06 0.02 0.77 -0.74 9.81 0.05 0.03 -0.05 1650
0.05 -0.00 0.79 -0.79 9.82 0.06 0.03 -0.05 1657
0.04 -0.00 0.75 -0.77 9.84 0.07 0.02 -0.05 1665
0.02 -0.00 0.79 -0.87 9.84 0.09 0.02 -0.04 1672
0.03 -0.00 0.82 -0.77 9.86 0.12 0.03 -0.04 1679
0.03 -0.00 0.80 -0.78 9.90 0.16 0.04 -0.04 1686
0.05 -0.00 0.70 -0.86 10.16 0.21 0.05 -0.04 1693
0.04 -0.00 0.76 -0.88 10.29 0.31 0.08 -0.03 1700
0.05 -0.00 0.73 -0.84 10.92 0.47 0.13 -0.04 1708
0.03 -0.00 0.95 -0.72 11.88 0.76 0.22 -0.05 1715
0.04 0.00 0.84 -1.11 13.11 1.27 0.38 -0.08 1722
0.05 -0.01 1.00 -1.28 15.15 1.86 0.49 -0.14 1729
0.07 -0.01 1.39 -0.91 15.32 2.36 0.51 -0.21 1736
0.07 -0.01 1.28 -0.93 14.21 2.59 0.47 -0.27 1743
0.05 -0.01 1.10 -0.81 13.60 2.68 0.42 -0.29 1751
0.03 -0.00 1.02 -1.52 13.76 2.81 0.40 -0.28 1758
0.00 0.00 1.10 -1.57 13.84 2.94 0.39 -0.26 1765
0.06 -0.01 1.11 -1.96 13.86 3.10 0.41 -0.27 1772
0.02 -0.00 1.40 -2.19 14.60 3.26 0.43 -0.27 1779
0.00 0.00 1.50 -2.56 14.94 3.35 0.44 -0.27 1786
0.00 0.00 2.16 -3.09 15.69 3.43 0.45 -0.27 1794
0.01 -0.00 2.57 -3.32 16.68 3.43 0.53 -0.27 1801
0.00 0.00 2.49 -2.92 16.77 3.38 0.65 -0.30 1808
0.01 -0.00 1.95 -1.82 16.64 3.32 0.78 -0.33 1815
0.00 0.00 1.50 -0.17 16.11 3.23 0.84 -0.34 1822
0.00 0.00 0.43 0.83 16.24 3.01 0.84 -0.34 1829
0.00 0.00 -0.70 1.73 14.22 2.80 0.74 -0.31 1837
0.00 0.00 -1.32 2.89 12.85 2.61 0.52 -0.28 1844
0.00 -0.00 -0.46 5.27 11.82 2.41 0.24 -0.29 1851
0.00 0.00 -0.52 8.20 11.19 2.19 -0.04 -0.33 1858
0.00 0.00 -0.15 9.88 9.95 1.86 -0.28 -0.48 1865
0.00 0.00 -0.50 13.11 10.57 1.50 -0.46 -0.70 1872
0.00 0.00 0.27 11.64 8.96 1.03 -0.59 -0.88 1880
0.00 0.00 0.00 13.19 9.79 0.60 -0.65 -1.03 1887
0.00 0.00 0.32 12.70 8.75 0.29 -0.68 -1.16 1894
0.00 0.00 0.48 12.16 8.04 0.01 -0.79 -1.22 1901
0.00 0.00 0.93 11.80 7.80 -0.24 -0.89 -1.27 1908
0.00 0.00 1.29 11.44 7.61 -0.48 -0.94 -1.29 1915
0.00 0.00 1.92 10.81 7.87 -0.76 -0.97 -1.29 1923
0.00 0.00 2.43 9.94 8.06 -1.00 -0.91 -1.25 1930
0.01 -0.00 2.71 9.20 8.15 -1.28 -0.86 -1.20 1937
0.00 0.00 2.95 8.18 7.93 -1.53 -0.74 -1.13 1944
0.00 0.00 3.02 7.30 8.93 -1.72 -0.64 -1.04 1951
0.00 0.00 3.08 6.16 9.20 -1.92 -0.51 -0.95 1958
0.00 0.00 3.03 5.11 9.61 -2.09 -0.43 -0.85 1966
0.00 0.00 3.06 4.23 9.92 -2.26 -0.37 -0.76 1973
0.00 0.00 3.16 3.29 10.30 -2.40 -0.33 -0.66 1980
0.00 0.00 3.28 2.23 10.65 -2.51 -0.27 -0.57 1987
0.00 0.00 3.50 1.42 10.92 -2.60 -0.19 -0.49 1994
0.00 0.00 3.60 0.51 11.42 -2.65 -0.08 -0.40 2001
0.00 0.00 3.47 -0.10 11.76 -2.68 0.02 -0.32 2009
0.00 0.00 3.27 -0.85 12.02 -2.70 0.12 -0.23 2016
0.00 0.00 3.13 -1.64 12.08 -2.69 0.19 -0.14 2023
0.00 0.00 3.04 -2.36 12.04 -2.66 0.24 -0.07 2030
0.00 0.00 3.09 -3.26 12.05 -2.55 0.25 -0.02 2037
0.00 0.00 3.25 -4.04 12.14 -2.46 0.28 0.02 2044
0.00 0.00 3.76 -4.63 12.53 -2.31 0.35 0.03 2052
0.00 0.00 4.11 -4.98 12.99 -2.18 0.44 0.06 2059
0.00 0.00 4.07 -4.99 13.39 -2.08 0.56 0.08 2066
0.00 0.00 3.75 -4.93 13.67 -2.03 0.64 0.14 2073
0.00 0.00 3.33 -5.10 13.40 -1.99 0.64 0.22 2080
0.00 0.00 2.89 -5.24 13.08 -1.95 0.60 0.32 2087
0.00 0.00 2.43 -5.51 12.72 -1.89 0.53 0.44 2095
0.00 0.00 2.06 -5.47 12.41 -1.78 0.48 0.54 2102
0.00 0.00 1.70 -5.36 12.01 -1.67 0.44 0.67 2109
0.00 0.00 1.08 -5.17 11.41 -1.58 0.42 0.79 2116
0.00 0.00 0.30 -5.13 11.01 -1.45 0.37 0.90 2123
0.00 0.00 -0.31 -5.38 10.83 -1.32 0.27 1.02 2130
0.00 0.00 -0.60 -5.63 10.57 -1.15 0.15 1.11 2138
0.00 -0.00 -0.51 -6.02 10.30 -0.95 -0.01 1.17 2145
0.00 0.00 0.54 -6.37 10.51 -0.78 -0.14 1.20 2152
0.00 0.00 1.00 -6.61 11.52 -0.61 -0.21 1.19 2159
0.00 0.00 1.95 -6.83 12.68 -0.55 -0.15 1.16 2166
0.00 0.00 2.40 -7.03 13.11 -0.62 -0.01 1.11 2173
0.00 0.00 2.84 -7.35 13.04 -0.78 0.20 1.05 2181
0.00 0.00 3.26 -7.98 12.88 -0.96 0.47 1.00 2188
0.00 0.00 3.59 -8.69 12.70 -1.20 0.78 0.97 2195
0.00 0.00 2.72 -9.66 11.50 -1.39 1.13 0.96 2202
0.00 0.00 1.62 -10.75 9.42 -1.46 1.35 0.97 2209
0.00 0.00 0.55 -12.02 7.82 -1.40 1.46 0.99 2216
0.00 0.00 -0.76 -13.45 6.62 -1.22 1.44 1.01 2224
0.00 0.00 -1.87 -14.18 6.12 -0.92 1.39 1.01 2231
0.00 0.00 -3.09 -14.93 6.05 -0.59 1.32 0.98 2238
0.00 0.00 -4.72 -16.14 7.35 -0.29 1.22 0.90 2245
0.00 0.00 -5.48 -18.33 7.48 0.08 0.94 0.78 2252
0.00 0.00 -6.12 -17.03 5.84 0.35 0.60 0.57 2259
0.00 0.00 -5.01 -17.49 4.45 0.49 0.37 0.33 2267
0.00 0.00 -6.73 -19.46 6.45 0.67 -0.05 0.08 2274
0.00 0.00 -5.34 -20.24 4.14 0.82 -0.23 -0.20 2281
0.00 0.00 -4.13 -22.87 2.66 1.10 -0.40 -0.45 2288
-0.00 0.01 -6.76 -27.62 1.71 1.49 -0.88 -0.84 2295
-0.00 0.02 -4.33 -23.01 5.20 1.93 -1.66 -1.25 2302
-0.01 0.08 2.38 1.22 9.20 2.62 -1.88 -1.38 2310
-0.01 0.29 3.74 -3.78 52.08 1.50 -3.94 -1.01 2318
-0.03 0.38 3.29 1.43 6.83 -0.11 -0.77 0.06 2324
-0.02 0.52 0.63 -2.88 12.29 -0.29 -0.01 -0.07 2332
-0.04 0.57 -1.58 -2.88 11.83 -0.11 -0.20 -0.07 2339
-0.03 0.61 0.03 -0.16 10.30 -0.05 -0.07 -0.08 2345
-0.02 0.64 0.56 -0.72 9.70 -0.02 0.02 -0.07 2353
-0.03 0.67 0.37 -0.87 9.75 -0.02 0.04 -0.05 2360
-0.03 0.68 0.39 -0.54 9.73 -0.03 0.05 -0.05 2367
0.02 0.69 0.53 -0.91 9.82 -0.03 0.05 -0.06 2374
0.00 0.70 0.51 -0.86 9.86 -0.03 0.05 -0.05 2381
0.01 0.65 0.39 -0.76 9.85 -0.03 0.06 -0.05 2388
0.02 0.67 0.42 -0.76 9.87 -0.02 0.07 -0.04 2396
0.02 0.65 0.47 -0.73 9.81 -0.01 0.07 -0.04 2403
0.02 0.66 0.51 -0.69 9.78 -0.01 0.07 -0.05 2410
0.01 0.64 0.48 -0.68 9.73 -0.01 0.07 -0.05 2417
0.02 0.62 0.51 -0.67 9.74 -0.00 0.07 -0.05 2424
0.01 0.63 0.53 -0.65 9.75 0.00 0.06 -0.06 2432
0.04 0.61 0.52 -0.66 9.72 0.00 0.05 -0.06 2439
0.03 0.59 0.55 -0.73 9.76 0.00 0.04 -0.06 2446
0.04 0.59 0.49 -0.73 9.77 0.00 0.03 -0.07 2453
0.03 0.58 0.47 -0.70 9.80 0.00 0.02 -0.07 2460
0.04 0.54 0.47 -0.71 9.82 0.00 0.01 -0.06 2467
0.04 0.56 0.42 -0.68 9.20 0.00 0.01 -0.07 2475
0.04 0.52 0.44 -0.71 9.81 0.00 0.02 -0.07 2482
0.03 0.51 0.43 -0.68 9.81 0.00 0.03 -0.07 2489
0.04 0.51 0.45 -0.69 9.77 0.00 0.03 -0.06 2496
0.03 0.51 0.45 -0.70 9.81 0.00 0.04 -0.06 2503
0.03 0.52 0.43 -0.70 9.77 0.00 0.06 -0.06 2510
0.04 0.51 0.46 -0.72 9.74 0.00 0.06 -0.06 2518
0.05 0.51 0.48 -0.73 9.78 -0.00 0.06 -0.06 2525
0.04 0.48 0.47 -0.73 9.80 -0.00 0.07 -0.06 2532
0.03 0.49 0.51 -0.72 9.75 0.00 0.07 -0.06 2539
0.02 0.51 0.50 -0.71 9.72 -0.00 0.07 -0.06 2546
0.03 0.52 0.53 -0.67 9.75 0.00 0.06 -0.06 2553
0.03 0.52 0.50 -0.69 9.74 0.00 0.06 -0.06 2561
0.03 0.51 0.51 -0.69 9.75 0.00 0.05 -0.06 2568
0.03 0.50 0.49 -0.68 9.79 -0.00 0.05 -0.06 2575
0.02 0.48 0.49 -0.72 9.78 0.00 0.05 -0.06 2582
0.02 0.50 0.49 -0.70 9.78 0.00 0.05 -0.06 2589
0.04 0.49 0.49 -0.73 9.75 0.00 0.04 -0.06 2596
0.04 0.48 0.46 -0.71 9.79 0.00 0.04 -0.06 2604
0.03 0.48 0.48 -0.71 9.77 0.00 0.05 -0.06 2611
0.03 0.48 0.49 -0.71 9.79 -0.00 0.05 -0.05 2618
0.03 0.46 0.50 -0.70 9.77 -0.00 0.05 -0.05 2625
0.03 0.47 0.51 -0.69 9.79 0.00 0.04 -0.05 2632
0.04 0.47 0.51 -0.70 9.76 0.00 0.05 -0.05 2639
0.05 0.46 0.48 -0.70 9.80 -0.00 0.04 -0.06 2647
0.04 0.46 0.51 -0.71 9.75 -0.00 0.04 -0.06 2654
0.03 0.44 0.49 -0.72 9.77 -0.00 0.04 -0.06 2661
0.02 0.43 0.49 -0.74 9.75 -0.00 0.04 -0.06 2668
0.04 0.43 0.52 -0.73 9.79 0.00 0.04 -0.06 2675
0.04 0.45 0.51 -0.71 9.75 0.00 0.03 -0.05 2682
0.05 0.43 0.48 -0.72 9.76 -0.00 0.03 -0.05 2690
0.04 0.43 0.49 -0.72 9.81 -0.00 0.03 -0.06 2697
0.05 0.42 0.49 -0.73 9.79 -0.00 0.04 -0.06 2704
0.03 0.42 0.47 -0.70 9.82 -0.00 0.04 -0.06 2711
0.04 0.41 0.48 -0.70 9.77 -0.00 0.04 -0.05 2718
0.04 0.42 0.50 -0.74 9.80 -0.00 0.04 -0.05 2725
0.05 0.42 0.48 -0.68 9.79 -0.01 0.04 -0.06 2733
0.05 0.43 0.47 -0.71 9.73 -0.00 0.04 -0.05 2740
0.04 0.42 0.46 -0.71 9.73 -0.00 0.04 -0.06 2747
0.03 0.43 0.49 -0.73 9.75 -0.01 0.04 -0.05 2754
0.04 0.43 0.45 -0.72 9.70 0.00 0.05 -0.06 2761
0.05 0.40 0.49 -0.73 9.78 -0.00 0.05 -0.06 2768
0.06 0.38 0.46 -0.73 9.77 0.01 0.06 -0.06 2776
0.05 0.36 0.46 -0.75 9.72 0.01 0.06 -0.06 2783
0.05 0.36 0.47 -0.71 9.70 0.00 0.06 -0.06 2790
0.04 0.33 0.47 -0.73 9.71 0.00 0.06 -0.06 2797
0.06 0.34 0.47 -0.72 9.75 0.00 0.07 -0.06 2804
0.07 0.34 0.48 -0.74 9.74 0.01 0.07 -0.06 2811
0.06 0.34 0.48 -0.74 9.79 0.00 0.07 -0.06 2819
0.06 0.35 0.54 -0.74 9.79 0.00 0.08 -0.06 2826
0.06 0.35 0.53 -0.68 9.70 -0.00 0.07 -0.06 2833
0.06 0.34 0.57 -0.71 9.77 0.00 0.07 -0.07 2840
0.06 0.29 0.55 -0.69 9.77 0.00 0.06 -0.07 2847
0.08 0.30 0.53 -0.72 9.79 0.01 0.06 -0.07 2854
0.07 0.28 0.53 -0.76 9.79 0.02 0.06 -0.07 2862
0.07 0.29 0.54 -0.73 9.77 0.02 0.06 -0.06 2869
0.06 0.27 0.54 -0.72 9.71 0.02 0.06 -0.07 2876
0.05 0.24 0.55 -0.73 9.82 0.03 0.06 -0.07 2883
0.06 0.29 0.54 -0.74 9.82 0.03 0.06 -0.07 2890
0.07 0.25 0.54 -0.76 9.78 0.03 0.06 -0.07 2897
0.06 0.24 0.56 -0.74 9.82 0.03 0.06 -0.07 2905
0.07 0.15 0.55 -0.76 9.81 0.04 0.05 -0.07 2912
0.05 0.14 0.51 -0.76 9.82 0.04 0.06 -0.07 2919
0.07 0.08 0.55 -0.75 9.80 0.04 0.06 -0.07 2926
0.09 0.04 0.55 -0.75 9.84 0.05 0.06 -0.07 2933
0.09 0.01 0.59 -0.80 9.90 0.06 0.07 -0.07 2940
0.08 0.01 0.58 -0.80 9.90 0.09 0.08 -0.07 2948
0.08 -0.00 0.59 -0.79 9.87 0.11 0.09 -0.07 2955
0.08 0.00 0.59 -0.78 9.96 0.14 0.11 -0.06 2962
0.08 -0.00 0.57 -0.78 10.09 0.19 0.14 -0.05 2969
0.10 0.01 0.51 -0.87 10.28 0.26 0.17 -0.03 2976
0.10 -0.01 1.11 -0.93 10.58 0.36 0.19 -0.02 2983
0.09 -0.01 0.40 -0.91 11.07 0.54 0.21 -0.02 2991
0.09 -0.01 0.56 -0.86 12.14 0.92 0.28 -0.04 2998
0.08 -0.01 0.61 -1.01 13.93 1.41 0.32 -0.06 3005
0.09 -0.01 0.82 -1.08 14.93 1.93 0.26 -0.10 3012
0.10 -0.01 0.67 -1.09 14.32 2.21 0.20 -0.14 3019
0.09 -0.01 0.60 -1.11 13.96 2.42 0.13 -0.14 3026
0.07 -0.01 0.51 -1.25 13.70 2.56 0.10 -0.14 3034
0.06 -0.01 0.66 -1.32 13.87 2.71 0.07 -0.13 3041
0.02 -0.00 0.96 -1.32 14.43 2.89 0.08 -0.13 3048
0.01 0.00 0.97 -1.46 14.40 3.01 0.15 -0.13 3055
0.02 -0.00 0.91 -1.69 14.98 3.10 0.22 -0.13 3062
0.01 -0.00 0.77 -1.77 16.14 3.13 0.26 -0.10 3069
0.01 -0.00 1.08 -0.55 17.38 3.10 0.33 -0.05 3077
0.00 0.00 1.12 1.46 16.43 2.95 0.36 -0.02 3084
0.00 0.00 0.91 3.76 15.20 2.72 0.20 0.02 3091
0.00 0.00 0.56 5.94 13.75 2.37 -0.05 0.06 3098
0.00 -0.00 0.57 7.82 12.49 1.98 -0.31 0.13 3105
0.00 0.00 1.45 9.72 10.84 1.63 -0.46 0.17 3112
0.00 0.00 0.84 11.63 10.78 1.27 -0.54 0.17 3120
0.00 0.00 1.38 10.71 8.67 0.95 -0.50 0.07 3127
0.00 0.00 1.27 10.74 9.55 0.69 -0.42 -0.10 3134
0.00 0.00 0.63 10.95 9.28 0.30 -0.31 -0.26 3141
0.00 0.00 0.01 10.17 8.08 0.05 -0.31 -0.45 3148
0.00 0.00 -0.34 9.31 7.65 -0.18 -0.37 -0.60 3155
0.00 0.00 -0.21 8.42 7.19 -0.36 -0.47 -0.75 3163
0.00 0.00 0.10 7.65 7.13 -0.47 -0.55 -0.89 3170
0.00 0.00 0.57 6.89 7.33 -0.59 -0.63 -1.00 3177
0.00 0.00 0.99 6.18 7.57 -0.70 -0.68 -1.10 3184
0.00 0.00 1.41 5.77 8.03 -0.83 -0.72 -1.17 3191
0.00 0.00 1.97 5.29 8.50 -0.97 -0.73 -1.23 3198
0.00 0.00 2.60 4.72 8.91 -1.12 -0.71 -1.26 3206
0.00 0.00 3.15 4.07 9.13 -1.29 -0.65 -1.27 3213
0.00 0.00 3.61 3.22 9.21 -1.43 -0.54 -1.23 3220
0.00 -0.00 3.91 2.41 9.24 -1.54 -0.44 -1.15 3227
0.00 0.00 4.14 1.47 9.30 -1.61 -0.32 -1.09 3234
0.00 0.00 4.35 0.68 9.30 -1.63 -0.23 -0.96 3241
0.00 0.00 4.47 0.12 9.53 -1.64 -0.15 -0.83 3249
0.00 0.00 4.52 -0.32 9.66 -1.62 -0.07 -0.65 3256
0.00 0.00 4.49 -0.69 9.83 -1.59 -0.01 -0.45 3263
0.00 -0.00 4.44 -1.11 10.04 -1.54 0.05 -0.28 3270
0.00 0.00 4.25 -1.47 10.26 -1.48 0.08 -0.07 3277
0.00 0.00 4.09 -1.66 10.52 -1.41 0.11 0.08 3284
0.00 0.00 3.91 -1.83 10.81 -1.36 0.14 0.25 3292
0.00 0.00 3.83 -1.89 11.12 -1.31 0.16 0.40 3299
0.00 0.00 3.84 -1.94 11.36 -1.30 0.22 0.50 3306
0.00 0.00 3.86 -2.03 11.42 -1.31 0.30 0.59 3313
0.00 0.00 3.81 -2.18 11.49 -1.34 0.38 0.66 3320
0.00 0.00 3.71 -2.36 11.50 -1.36 0.48 0.71 3328
0.00 0.00 3.52 -2.53 11.55 -1.37 0.56 0.74 3335
0.00 0.00 3.25 -2.75 11.49 -1.38 0.63 0.76 3342
0.00 0.00 3.06 -2.91 11.53 -1.38 0.70 0.76 3349
0.00 0.00 2.95 -3.02 11.24 -1.37 0.75 0.76 3356
0.00 0.00 2.80 -3.30 10.98 -1.34 0.78 0.75 3363
0.00 0.00 2.72 -3.61 10.58 -1.28 0.79 0.73 3371
0.00 0.00 2.59 -3.89 10.45 -1.18 0.79 0.70 3378
0.00 0.00 2.29 -4.08 10.52 -1.07 0.74 0.66 3385
0.00 0.00 1.81 -4.11 10.49 -0.94 0.64 0.62 3392
0.00 0.00 1.21 -4.06 10.28 -0.82 0.44 0.58 3399
0.00 0.00 0.96 -4.00 10.65 -0.74 0.20 0.55 3406
0.00 0.00 1.23 -3.85 11.22 -0.68 0.05 0.53 3414
0.00 0.00 1.85 -3.93 11.56 -0.70 -0.02 0.51 3421
0.00 0.00 2.27 -3.94 11.46 -0.73 0.03 0.49 3428
0.00 -0.00 2.59 -4.15 11.60 -0.77 0.17 0.48 3435
0.00 0.00 2.45 -4.37 11.59 -0.81 0.33 0.46 3442
0.00 0.00 2.06 -4.55 11.71 -0.86 0.46 0.45 3449
0.00 0.00 1.41 -4.85 11.45 -0.91 0.56 0.44 3457
0.00 0.00 0.91 -5.15 10.85 -0.94 0.60 0.44 3464
0.00 0.00 0.42 -5.37 10.26 -0.94 0.62 0.43 3471
0.00 0.00 -0.20 -5.79 9.55 -0.91 0.61 0.42 3478
0.00 0.00 -0.55 -6.17 8.89 -0.81 0.61 0.37 3485
0.00 0.00 -0.98 -6.54 8.41 -0.66 0.63 0.36 3492
0.00 0.00 -1.35 -7.00 8.19 -0.51 0.66 0.30 3500
0.00 0.00 -1.63 -7.35 8.57 -0.33 0.68 0.22 3507
0.00 0.00 -1.63 -7.69 8.78 -0.22 0.71 0.11 3514
0.00 0.00 -1.35 -7.88 8.85 -0.15 0.75 -0.02 3521
0.00 0.00 -0.85 -8.19 8.82 -0.13 0.85 -0.10 3528
0.00 0.00 -0.69 -8.47 9.32 -0.16 0.98 -0.19 3535
0.00 0.00 -0.90 -8.70 9.65 -0.27 1.10 -0.26 3543
0.00 0.00 -1.41 -8.88 9.31 -0.43 1.22 -0.31 3550
0.00 0.00 -2.08 -9.20 8.43 -0.56 1.28 -0.34 3557
0.00 0.00 -2.93 -9.57 7.36 -0.66 1.27 -0.33 3564
0.00 0.00 -3.71 -10.24 6.34 -0.65 1.16 -0.30 3571
0.00 0.00 -6.69 -13.91 8.44 -0.51 0.91 -0.26 3578
0.00 0.00 -11.45 -16.83 9.87 0.24 -0.16 -0.15 3586
0.00 0.00 -6.09 -12.10 1.25 0.61 -0.64 -0.11 3593
0.00 0.00 -5.97 -14.98 0.40 0.76 -1.04 -0.09 3600
0.00 0.00 -9.23 -21.84 6.14 1.04 -1.69 -0.06 3607
-0.00 0.03 -9.35 -26.27 4.83 1.44 -2.16 -0.15 3614
-0.00 0.01 -2.51 -7.78 8.50 1.96 -2.44 -0.26 3621
-0.01 0.15 -1.16 -5.05 10.96 2.46 -1.48 -0.20 3629
-0.02 0.28 -1.78 -3.80 49.10 2.44 -3.11 -0.36 3637
-0.03 0.46 1.74 -1.48 12.19 -0.05 -0.81 -0.10 3644
-0.01 0.51 -0.66 -2.20 11.83 -0.22 0.07 -0.08 3651
-0.03 0.61 -1.54 -3.62 11.90 -0.11 -0.06 -0.10 3658
-0.03 0.61 0.74 -0.85 10.21 -0.06 -0.01 -0.04 3665
-0.05 0.61 0.48 -1.19 9.84 -0.00 0.04 -0.02 3672
-0.04 0.63 0.14 -0.86 9.79 -0.01 0.05 -0.04 3679
0.00 0.57 0.57 -0.64 9.61 -0.01 0.05 -0.04 3686
-0.02 0.57 0.62 -0.79 9.72 -0.02 0.05 -0.03 3693
-0.02 0.55 0.46 -0.88 9.77 -0.02 0.04 -0.04 3700
-0.02 0.59 0.46 -0.80 9.82 -0.03 0.04 -0.04 3707
-0.03 0.61 0.55 -0.82 9.82 -0.03 0.03 -0.04 3715
-0.04 0.59 0.56 -0.80 9.81 -0.02 0.02 -0.04 3722
-0.04 0.65 0.50 -0.79 9.81 -0.02 0.02 -0.05 3729
-0.04 0.68 0.46 -0.75 9.78 -0.02 0.01 -0.05 3736
-0.05 0.69 0.50 -0.74 9.80 -0.01 0.01 -0.05 3743
-0.05 0.64 0.50 -0.73 9.77 -0.01 0.01 -0.05 3750
-0.03 0.64 0.50 -0.72 9.76 -0.01 0.01 -0.06 3758
-0.03 0.64 0.49 -0.74 9.71 -0.00 0.01 -0.05 3765
-0.01 0.62 0.46 -0.73 9.74 0.00 0.00 -0.05 3772
-0.01 0.61 0.47 -0.74 9.75 0.00 0.01 -0.05 3779
-0.01 0.60 0.44 -0.74 9.79 -0.00 0.01 -0.05 3786
-0.01 0.57 0.37 -0.77 9.78 -0.00 0.02 -0.05 3793
-0.01 0.58 0.41 -0.74 9.78 -0.01 0.03 -0.05 3801
-0.01 0.59 0.47 -0.76 9.81 -0.01 0.04 -0.05 3808
-0.01 0.57 0.46 -0.76 9.77 -0.00 0.04 -0.05 3815
-0.02 0.55 0.44 -0.74 9.76 -0.00 0.05 -0.05 3822
-0.02 0.55 0.50 -0.77 9.77 -0.00 0.05 -0.05 3829
-0.03 0.56 0.48 -0.77 9.76 -0.00 0.05 -0.06 3836
-0.01 0.56 0.45 -0.75 9.77 -0.00 0.04 -0.06 3844
-0.00 0.55 0.47 -0.76 9.76 -0.00 0.03 -0.06 3851
-0.00 0.52 0.47 -0.75 9.70 -0.00 0.04 -0.06 3858
-0.01 0.54 0.48 -0.75 9.78 -0.00 0.03 -0.06 3865
-0.02 0.53 0.47 -0.79 9.77 0.00 0.03 -0.06 3872
-0.03 0.54 0.46 -0.73 9.74 0.00 0.03 -0.05 3879
-0.02 0.55 0.43 -0.73 9.78 0.00 0.03 -0.06 3887
-0.02 0.57 0.42 -0.75 9.82 0.01 0.03 -0.05 3894
-0.02 0.55 0.45 -0.76 9.77 0.01 0.03 -0.05 3901
-0.03 0.57 0.45 -0.76 9.79 0.01 0.03 -0.05 3908
-0.03 0.55 0.46 -0.75 9.79 0.01 0.04 -0.05 3915
-0.03 0.56 0.43 -0.80 9.78 0.00 0.04 -0.05 3922
-0.03 0.55 0.46 -0.76 9.81 0.00 0.04 -0.05 3930
-0.01 0.56 0.46 -0.75 9.74 0.00 0.04 -0.05 3937
-0.02 0.54 0.45 -0.78 9.77 0.00 0.03 -0.05 3944
-0.01 0.53 0.46 -0.75 9.72 0.00 0.03 -0.05 3951
-0.02 0.53 0.46 -0.74 9.76 0.00 0.02 -0.04 3958
-0.02 0.53 0.47 -0.76 9.74 0.00 0.02 -0.05 3965
-0.02 0.54 0.47 -0.78 9.76 0.01 0.02 -0.05 3973
0.00 0.52 0.45 -0.77 9.75 0.01 0.02 -0.05 3980
-0.02 0.50 0.45 -0.77 9.75 0.01 0.02 -0.05 3987
-0.00 0.49 0.46 -0.78 9.80 0.00 0.02 -0.05 3994
-0.01 0.49 0.44 -0.78 9.79 0.00 0.02 -0.05 4001
-0.00 0.50 0.40 -0.77 9.78 0.00 0.02 -0.05 4008
-0.01 0.52 0.44 -0.78 9.77 0.00 0.02 -0.06 4016
0.01 0.50 0.44 -0.78 9.76 -0.00 0.03 -0.05 4023
0.00 0.51 0.43 -0.78 9.80 -0.00 0.03 -0.05 4030
-0.00 0.50 0.43 -0.73 9.80 -0.00 0.03 -0.05 4037
-0.01 0.51 0.46 -0.78 9.75 -0.00 0.03 -0.05 4044
-0.00 0.52 0.44 -0.76 9.76 -0.00 0.03 -0.05 4051
0.00 0.52 0.44 -0.78 9.76 -0.01 0.03 -0.05 4059
0.01 0.51 0.43 -0.77 9.75 -0.01 0.03 -0.06 4066
0.00 0.50 0.45 -0.73 9.78 -0.00 0.03 -0.06 4073
0.00 0.48 0.43 -0.79 9.72 -0.01 0.03 -0.06 4080
-0.00 0.50 0.46 -0.76 9.80 -0.01 0.03 -0.06 4087
0.01 0.51 0.39 -0.78 9.74 -0.01 0.03 -0.06 4094
0.01 0.51 0.41 -0.74 9.80 -0.01 0.03 -0.06 4102
0.01 0.50 0.47 -0.74 9.77 -0.01 0.03 -0.06 4109
0.01 0.50 0.43 -0.78 9.75 -0.00 0.03 -0.06 4116
0.01 0.48 0.45 -0.78 9.74 -0.01 0.02 -0.06 4123
0.01 0.49 0.40 -0.79 9.77 -0.00 0.03 -0.06 4130
0.01 0.49 0.40 -0.78 9.74 -0.00 0.03 -0.06 4137
0.02 0.50 0.43 -0.77 9.74 -0.00 0.05 -0.06 4145
0.01 0.48 0.44 -0.82 9.76 -0.00 0.05 -0.06 4152
0.02 0.48 0.42 -0.76 9.80 0.00 0.06 -0.06 4159
0.02 0.47 0.39 -0.76 9.79 0.01 0.06 -0.06 4166
0.02 0.48 0.45 -0.78 9.78 0.01 0.07 -0.06 4173
0.02 0.47 0.47 -0.76 9.75 0.01 0.06 -0.06 4180
0.03 0.45 0.47 -0.78 9.74 0.01 0.06 -0.06 4188
0.03 0.42 0.44 -0.76 9.81 0.01 0.06 -0.07 4195
0.02 0.39 0.47 -0.78 9.82 0.02 0.07 -0.07 4202
0.02 0.36 0.48 -0.80 9.81 0.02 0.06 -0.06 4209
0.02 0.33 0.45 -0.76 9.80 0.02 0.06 -0.07 4216
0.03 0.34 0.45 -0.78 9.81 0.02 0.06 -0.06 4224
0.04 0.34 0.46 -0.78 9.81 0.02 0.06 -0.07 4231
0.04 0.28 0.50 -0.79 9.86 0.03 0.05 -0.06 4238
0.03 0.25 0.52 -0.78 9.83 0.04 0.06 -0.07 4245
0.02 0.15 0.54 -0.76 9.83 0.06 0.06 -0.07 4252
0.04 0.15 0.55 -0.76 9.86 0.08 0.07 -0.08 4259
0.05 0.02 0.51 -0.74 9.95 0.12 0.08 -0.08 4267
0.06 0.02 0.48 -0.83 10.04 0.15 0.10 -0.08 4274
0.06 -0.01 0.51 -0.94 10.21 0.21 0.12 -0.07 4281
0.07 -0.01 0.40 -0.90 10.25 0.28 0.14 -0.06 4288
0.06 0.00 1.09 -0.87 10.52 0.39 0.18 -0.05 4295
0.07 -0.01 0.78 -0.90 11.53 0.63 0.25 -0.08 4302
0.07 -0.01 1.05 -0.97 13.11 1.21 0.33 -0.18 4310
0.07 -0.01 1.10 -1.20 15.20 1.77 0.24 -0.25 4317
0.07 -0.01 1.56 -0.93 14.85 2.18 0.07 -0.31 4324
0.04 0.00 1.92 -1.03 13.64 2.35 -0.06 -0.41 4331
0.03 0.02 2.35 -1.20 13.66 2.47 -0.18 -0.49 4339
0.02 0.01 2.98 -1.43 14.32 2.63 -0.26 -0.61 4346
0.05 -0.00 3.35 -1.55 14.50 2.76 -0.22 -0.75 4353
0.01 -0.00 3.52 -1.86 14.99 2.86 -0.10 -0.84 4360
0.01 -0.00 3.91 -1.92 15.46 2.90 0.06 -0.94 4367
0.01 -0.00 3.87 -1.78 16.01 2.89 0.18 -1.01 4374
0.00 0.00 2.82 -0.29 16.34 2.80 0.15 -1.07 4381
0.00 0.00 1.87 2.33 15.52 2.62 -0.03 -1.06 4388
0.01 -0.00 1.30 3.66 14.23 2.36 -0.39 -1.01 4396
0.00 0.00 1.84 5.48 12.49 2.06 -0.75 -0.91 4403
0.00 0.00 2.50 6.98 10.83 1.73 -0.88 -0.82 4410
0.00 0.00 3.80 7.62 9.51 1.45 -0.84 -0.71 4417
0.00 0.00 4.12 8.44 8.88 1.28 -0.71 -0.63 4424
0.00 0.00 4.09 9.01 8.86 1.07 -0.45 -0.58 4431
0.00 0.00 3.50 9.76 8.12 0.83 -0.22 -0.57 4439
0.00 0.00 2.86 9.67 7.43 0.60 -0.08 -0.55 4446
0.00 0.00 2.10 9.48 7.27 0.42 -0.00 -0.52 4453
0.00 0.00 1.67 9.25 7.14 0.28 0.02 -0.48 4460
0.00 0.00 1.37 8.95 6.96 0.13 0.00 -0.46 4467
0.00 0.00 1.21 8.51 6.75 -0.03 -0.02 -0.45 4474
0.00 0.00 1.23 7.40 6.97 -0.14 -0.02 -0.45 4482
0.00 0.00 1.34 7.47 7.27 -0.28 -0.01 -0.45 4489
0.00 0.00 1.56 6.91 7.72 -0.41 0.02 -0.46 4496
0.00 0.00 1.71 6.43 8.02 -0.58 0.07 -0.46 4503
0.00 0.00 1.91 5.77 8.47 -0.76 0.14 -0.45 4510
0.00 -0.00 2.05 5.02 9.01 -0.90 0.22 -0.42 4517
0.00 0.00 1.98 4.38 9.27 -1.09 0.29 -0.38 4525
0.00 0.00 1.90 3.55 9.71 -1.23 0.32 -0.31 4532
0.00 0.00 1.90 2.84 9.93 -1.37 0.31 -0.25 4539
0.00 0.00 2.04 2.17 10.20 -1.49 0.28 -0.17 4546
0.00 0.00 2.22 1.64 10.28 -1.57 0.26 -0.09 4553
0.00 0.00 2.42 1.12 10.34 -1.64 0.26 -0.03 4560
0.00 0.00 2.56 0.47 10.41 -1.69 0.28 0.02 4568
0.00 0.00 2.62 -0.09 10.68 -1.70 0.30 0.05 4575
0.00 0.00 2.68 -0.68 11.04 -1.70 0.29 0.05 4582
0.00 0.00 2.69 -1.17 11.17 -1.70 0.31 0.06 4589
0.00 0.00 2.66 -1.48 11.34 -1.70 0.33 0.08 4596
0.00 -0.00 2.65 -1.76 11.55 -1.69 0.34 0.11 4603
0.00 0.00 2.62 -2.00 11.78 -1.68 0.34 0.14 4611
0.00 0.00 2.64 -2.31 11.89 -1.67 0.33 0.17 4618
0.00 0.00 2.79 -2.63 11.97 -1.65 0.32 0.21 4625
0.00 0.00 2.93 -2.98 11.93 -1.63 0.33 0.25 4632
0.00 0.00 3.13 -3.15 12.06 -1.60 0.36 0.30 4639
0.00 0.00 3.33 -3.50 12.13 -1.57 0.45 0.36 4646
0.00 0.00 3.15 -3.74 12.05 -1.52 0.57 0.42 4654
0.00 0.00 2.81 -3.82 12.04 -1.48 0.67 0.50 4661
0.00 0.00 2.57 -3.84 12.01 -1.43 0.74 0.56 4668
0.00 0.00 2.14 -3.92 12.01 -1.38 0.80 0.65 4675
0.00 0.00 1.76 -3.95 11.90 -1.33 0.83 0.72 4682
0.00 0.00 1.34 -4.07 11.74 -1.27 0.83 0.79 4689
0.00 0.00 0.88 -4.15 11.43 -1.20 0.78 0.84 4697
0.00 0.00 0.52 -4.18 11.14 -1.11 0.70 0.87 4704
0.00 0.00 0.07 -4.32 10.85 -1.00 0.59 0.87 4711
0.00 0.00 -0.23 -4.44 10.33 -0.89 0.47 0.86 4718
0.00 -0.00 -0.58 -4.41 9.20 -0.73 0.34 0.84 4725
0.00 0.00 -0.96 -4.45 9.63 -0.54 0.28 0.83 4732
0.00 0.00 -0.87 -4.31 10.23 -0.39 0.32 0.84 4740
0.00 0.00 -0.43 -4.25 11.08 -0.26 0.46 0.86 4747
0.00 0.00 -0.32 -4.11 11.99 -0.24 0.62 0.86 4754
0.00 0.00 -0.77 -3.95 12.56 -0.32 0.70 0.86 4761
0.00 0.00 -1.31 -3.87 12.61 -0.51 0.72 0.86 4768
0.00 0.00 -1.55 -4.02 12.15 -0.70 0.66 0.86 4775
0.00 0.00 -1.77 -4.40 11.47 -0.88 0.51 0.84 4783
0.00 0.00 -2.00 -5.04 10.30 -0.97 0.37 0.78 4790
0.00 0.00 -2.03 -5.56 9.15 -0.95 0.28 0.69 4797
0.00 0.00 -2.03 -6.19 8.38 -0.83 0.22 0.56 4804
0.00 0.00 -1.99 -6.90 7.89 -0.67 0.21 0.39 4811
0.00 0.00 -2.01 -7.40 7.64 -0.45 0.21 0.23 4818
0.00 0.00 -1.94 -7.77 7.69 -0.26 0.22 0.06 4826
0.00 0.00 -1.81 -8.01 7.73 -0.07 0.22 -0.10 4833
0.00 0.00 -1.43 -8.29 7.82 0.06 0.23 -0.17 4840
0.00 0.00 -0.73 -8.45 8.10 0.09 0.31 -0.23 4847
0.00 0.00 0.01 -8.58 8.07 0.04 0.51 -0.26 4854
0.00 0.00 -0.02 -8.67 8.23 -0.10 0.76 -0.27 4861
0.00 0.00 -0.72 -8.79 8.11 -0.23 0.96 -0.25 4869
0.00 0.00 -1.73 -9.22 7.52 -0.39 1.10 -0.21 4876
0.00 0.00 -7.58 -18.11 10.22 -0.35 0.71 -0.15 4883
0.00 0.00 -8.30 -14.64 7.33 0.39 -0.15 -0.14 4890
0.00 0.00 -4.95 -11.42 0.05 0.58 -0.58 -0.17 4897
0.00 0.00 -4.52 -18.31 1.23 0.75 -0.94 -0.23 4904
0.00 0.00 -5.88 -23.51 4.34 1.16 -1.43 -0.44 4912
-0.00 0.03 -6.73 -28.31 0.67 1.59 -1.70 -0.77 4919
-0.01 0.08 -2.18 -2.72 2.05 2.09 -2.16 -1.08 4926
-0.00 0.19 3.52 -7.64 24.91 3.33 -2.19 -1.16 4934
-0.02 0.31 6.69 -2.47 29.42 1.10 -2.45 -0.47 4941
-0.03 0.43 2.37 0.54 12.75 -0.19 -0.08 0.02 4947
-0.03 0.59 -1.25 -3.43 11.48 -0.15 -0.16 -0.11 4956
-0.02 0.62 -0.38 -1.20 10.56 -0.08 -0.24 -0.07 4963
-0.03 0.64 0.12 -0.18 10.14 -0.01 -0.08 -0.06 4969
-0.02 0.66 0.28 -1.27 9.87 -0.01 -0.01 -0.07 4976
-0.01 0.65 0.35 -0.59 9.62 -0.01 0.03 -0.05 4983
-0.01 0.64 0.57 -0.79 9.82 -0.01 0.04 -0.06 4990
-0.01 0.62 0.59 -0.97 9.79 -0.00 0.03 -0.06 4998
-0.01 0.65 0.53 -0.86 9.80 -0.01 0.02 -0.06 5005
-0.01 0.61 0.48 -0.83 9.80 -0.01 0.02 -0.06 5012
-0.00 0.61 0.44 -0.86 9.80 -0.01 0.03 -0.06 5019
0.00 0.60 0.44 -0.85 9.80 -0.01 0.03 -0.06 5026
0.00 0.58 0.50 -0.83 9.79 -0.01 0.04 -0.06 5033
-0.01 0.58 0.50 -0.81 9.79 -0.01 0.04 -0.06 5041
0.00 0.60 0.51 -0.82 9.79 -0.00 0.04 -0.06 5048
0.00 0.62 0.53 -0.80 9.79 -0.01 0.04 -0.06 5055
0.01 0.59 0.51 -0.77 9.75 -0.00 0.03 -0.06 5062
0.01 0.57 0.47 -0.79 9.78 -0.00 0.02 -0.06 5069
0.00 0.57 0.50 -0.82 9.74 -0.00 0.02 -0.06 5076
-0.00 0.56 0.49 -0.82 9.75 -0.00 0.01 -0.06 5084
0.00 0.55 0.48 -0.83 9.80 -0.00 0.01 -0.07 5091
0.01 0.56 0.44 -0.83 9.81 -0.00 0.01 -0.06 5098
0.02 0.56 0.47 -0.78 9.80 -0.00 0.02 -0.06 5105
0.01 0.55 0.44 -0.81 9.81 -0.00 0.02 -0.06 5112
0.01 0.53 0.46 -0.80 9.78 -0.00 0.02 -0.06 5120
-0.00 0.55 0.45 -0.78 9.75 -0.00 0.03 -0.06 5127
0.01 0.53 0.46 -0.80 9.81 -0.01 0.03 -0.06 5134
0.02 0.53 0.44 -0.84 9.79 -0.01 0.03 -0.06 5141
0.02 0.50 0.44 -0.85 9.79 -0.00 0.03 -0.06 5148
0.02 0.52 0.49 -0.84 9.77 -0.00 0.03 -0.06 5155
0.01 0.52 0.48 -0.81 9.74 -0.00 0.03 -0.06 5163
0.00 0.52 0.47 -0.82 9.75 -0.00 0.03 -0.06 5170
0.00 0.51 0.47 -0.81 9.74 0.03 0.03 -0.06 5177
0.02 0.53 0.47 -0.81 9.74 0.00 0.03 -0.06 5184
0.02 0.52 0.47 -0.84 9.73 -0.00 0.03 -0.06 5191
0.03 0.50 0.43 -0.80 9.77 -0.00 0.03 -0.06 5198
0.04 0.50 0.50 -0.82 9.76 0.00 0.03 -0.06 5206
0.03 0.50 0.48 -0.82 9.76 0.00 0.02 -0.06 5213
0.04 0.50 0.50 -0.80 9.78 -0.00 0.03 -0.06 5220
0.04 0.49 0.45 -0.83 9.78 0.00 0.02 -0.06 5227
0.03 0.49 0.49 -0.86 9.76 0.00 0.03 -0.06 5234
0.02 0.49 0.46 -0.82 9.78 0.00 0.03 -0.06 5241
0.03 0.49 0.45 -0.83 9.79 0.00 0.03 -0.06 5249
0.03 0.50 0.47 -0.81 9.75 -0.00 0.03 -0.06 5256
0.03 0.50 0.47 -0.83 9.78 -0.00 0.03 -0.06 5263
0.05 0.49 0.46 -0.84 9.77 -0.00 0.03 -0.06 5270
0.03 0.50 0.49 -0.84 9.82 -0.00 0.03 -0.06 5277
0.03 0.48 0.44 -0.84 9.78 -0.00 0.03 -0.06 5284
0.02 0.48 0.46 -0.82 9.81 -0.01 0.03 -0.06 5292
0.03 0.49 0.42 -0.81 9.77 -0.01 0.03 -0.06 5299
0.03 0.49 0.46 -0.83 9.76 -0.01 0.04 -0.06 5306
0.04 0.48 0.44 -0.81 9.77 -0.01 0.03 -0.06 5313
0.03 0.50 0.42 -0.81 9.74 -0.00 0.04 -0.06 5320
0.04 0.47 0.43 -0.83 9.78 -0.00 0.04 -0.06 5327
0.02 0.48 0.41 -0.81 9.79 -0.00 0.04 -0.06 5335
0.04 0.47 0.43 -0.82 9.75 -0.00 0.04 -0.06 5342
0.04 0.47 0.47 -0.82 9.78 -0.00 0.04 -0.06 5349
0.05 0.46 0.47 -0.83 9.76 -0.00 0.04 -0.07 5356
0.04 0.45 0.42 -0.84 9.81 -0.00 0.05 -0.06 5363
0.04 0.44 0.42 -0.84 9.77 -0.00 0.05 -0.06 5370
0.03 0.44 0.40 -0.85 9.76 -0.00 0.05 -0.06 5378
0.04 0.45 0.47 -0.83 9.75 -0.00 0.05 -0.06 5385
0.05 0.43 0.46 -0.83 9.75 -0.00 0.05 -0.06 5392
0.05 0.42 0.43 -0.87 9.74 -0.00 0.06 -0.06 5399
0.04 0.43 0.47 -0.85 9.73 -0.01 0.06 -0.06 5406
0.04 0.43 0.43 -0.86 9.69 -0.01 0.07 -0.06 5413
0.04 0.43 0.42 -0.80 9.69 -0.01 0.07 -0.06 5421
0.04 0.42 0.47 -0.83 9.65 -0.01 0.07 -0.06 5428
0.06 0.41 0.49 -0.80 9.76 -0.01 0.07 -0.06 5435
0.05 0.42 0.47 -0.78 9.70 -0.01 0.06 -0.07 5442
0.05 0.40 0.49 -0.77 9.75 0.00 0.06 -0.07 5449
0.04 0.38 0.49 -0.81 9.70 0.01 0.06 -0.07 5456
0.04 0.38 0.49 -0.81 9.77 0.01 0.06 -0.07 5464
0.04 0.37 0.44 -0.79 9.80 0.01 0.07 -0.07 5471
0.06 0.36 0.48 -0.81 9.76 0.02 0.06 -0.07 5478
0.04 0.34 0.51 -0.78 9.80 0.02 0.07 -0.07 5485
0.04 0.33 0.50 -0.83 9.82 0.03 0.07 -0.07 5492
0.04 0.28 0.51 -0.83 9.82 0.03 0.07 -0.07 5499
0.05 0.25 0.49 -0.82 9.82 0.04 0.07 -0.07 5507
0.05 0.28 0.49 -0.84 9.80 0.04 0.07 -0.07 5514
0.07 0.24 0.52 -0.85 9.81 0.04 0.07 -0.07 5521
0.05 0.21 0.53 -0.83 9.83 0.05 0.07 -0.08 5528
0.06 0.22 0.54 -0.83 9.82 0.05 0.07 -0.08 5535
0.06 0.09 0.51 -0.86 9.85 0.06 0.08 -0.08 5542
0.08 0.03 0.51 -0.88 9.85 0.07 0.09 -0.08 5550
0.08 0.03 0.55 -0.88 9.87 0.09 0.10 -0.08 5557
0.08 0.02 0.57 -0.87 9.94 0.11 0.12 -0.08 5564
0.07 -0.01 0.57 -0.94 10.03 0.14 0.14 -0.07 5571
0.08 -0.01 0.66 -0.87 10.16 0.19 0.16 -0.07 5578
0.07 0.01 0.60 -0.98 10.46 0.27 0.20 -0.06 5585
0.06 -0.01 0.71 -0.91 10.67 0.42 0.24 -0.07 5593
0.07 -0.00 1.01 -0.98 11.77 0.74 0.30 -0.12 5600
0.06 -0.01 1.40 -1.30 14.27 1.28 0.34 -0.23 5607
0.08 -0.01 1.54 -0.97 15.81 1.96 0.22 -0.32 5614
0.07 -0.01 1.45 -0.91 14.95 2.29 0.05 -0.40 5621
0.05 -0.00 1.50 -1.10 14.11 2.50 -0.07 -0.44 5628
0.04 -0.00 1.86 -1.54 14.26 2.67 -0.18 -0.50 5636
0.03 -0.00 2.91 -1.55 15.06 2.84 -0.24 -0.57 5643
0.01 -0.00 2.78 -1.83 15.38 3.01 -0.16 -0.65 5650
0.04 -0.00 2.89 -1.81 16.85 3.17 -0.02 -0.73 5657
0.01 -0.00 3.14 -2.25 17.54 3.24 0.20 -0.76 5664
0.00 0.00 3.33 -2.08 18.53 3.27 0.44 -0.82 5671
0.00 0.00 2.34 -0.20 18.35 3.21 0.47 -0.85 5679
0.00 -0.00 0.74 2.37 18.19 3.04 0.44 -0.81 5686
0.00 0.00 -0.20 4.57 15.98 2.77 0.03 -0.71 5693
0.00 0.00 0.02 7.84 13.70 2.42 -0.39 -0.52 5700
0.00 0.00 1.11 9.34 11.86 2.03 -0.63 -0.38 5707
0.00 0.00 2.90 11.69 9.84 1.75 -0.65 -0.25 5714
0.00 0.00 3.07 10.50 8.80 1.45 -0.59 -0.15 5722
0.00 0.00 3.33 11.17 9.98 1.15 -0.42 -0.13 5729
0.00 0.00 3.01 12.30 8.65 0.86 -0.23 -0.16 5736
0.00 0.00 2.18 12.17 7.19 0.58 -0.06 -0.18 5743
0.00 0.00 1.20 11.82 6.78 0.39 0.02 -0.22 5750
0.00 0.00 0.69 11.49 6.56 0.19 0.02 -0.26 5757
0.00 0.00 0.44 11.00 6.26 -0.00 -0.02 -0.30 5765
0.00 0.00 0.35 10.33 6.21 -0.17 -0.09 -0.34 5772
0.00 0.00 0.47 9.68 6.24 -0.36 -0.17 -0.39 5779
0.00 0.00 0.73 8.87 6.68 -0.52 -0.23 -0.44 5786
0.00 0.00 1.09 8.15 7.06 -0.70 -0.25 -0.48 5793
0.00 0.00 1.51 7.41 7.42 -0.88 -0.24 -0.51 5800
0.00 0.00 1.84 6.50 8.12 -1.04 -0.14 -0.52 5808
0.00 0.00 2.17 5.66 8.81 -1.23 -0.08 -0.51 5815
0.00 0.00 2.35 4.57 9.38 -1.42 0.02 -0.47 5822
0.00 0.00 2.48 3.59 9.71 -1.56 0.05 -0.40 5829
0.00 0.00 2.53 2.48 9.89 -1.69 0.04 -0.29 5836
0.00 0.00 2.65 1.50 10.16 -1.77 0.00 -0.18 5843
0.00 -0.00 3.01 0.81 10.32 -1.81 -0.03 -0.07 5851
0.00 0.00 3.41 0.14 10.43 -1.84 -0.05 0.06 5858
0.00 0.00 3.71 -0.42 10.50 -1.85 -0.03 0.17 5865
0.00 0.00 3.84 -0.90 10.41 -1.85 0.02 0.26 5872
0.00 0.00 3.97 -1.66 10.50 -1.81 0.09 0.33 5879
0.00 0.00 3.92 -2.05 10.62 -1.73 0.16 0.39 5886
0.00 -0.00 3.93 -2.47 11.09 -1.63 0.26 0.45 5894
0.00 0.00 4.05 -2.64 11.95 -1.57 0.36 0.52 5901
0.00 0.00 4.23 -2.57 12.66 -1.54 0.51 0.59 5908
0.00 0.00 4.25 -2.68 12.92 -1.56 0.70 0.68 5915
0.00 0.00 3.90 -2.97 13.09 -1.61 0.82 0.77 5922
0.00 0.00 3.05 -3.50 12.97 -1.65 0.87 0.87 5929
0.00 0.00 2.43 -4.12 12.47 -1.65 0.82 0.95 5937
0.00 0.00 2.09 -4.65 12.08 -1.60 0.72 0.99 5944
0.00 0.00 1.94 -5.03 11.82 -1.53 0.61 1.00 5951
0.00 0.00 1.88 -5.10 11.56 -1.43 0.55 0.98 5958
0.00 0.00 1.71 -5.07 11.59 -1.35 0.50 0.94 5965
0.00 0.00 1.22 -5.00 11.28 -1.28 0.41 0.89 5972
0.00 0.00 0.61 -4.96 10.93 -1.20 0.33 0.82 5980
0.00 0.00 -0.01 -5.04 10.57 -1.08 0.16 0.72 5987
0.00 0.00 -0.63 -5.02 10.61 -0.96 0.00 0.63 5994
0.00 0.00 -0.94 -4.91 10.77 -0.82 -0.17 0.56 6001
0.00 0.00 -0.89 -4.40 11.46 -0.75 -0.24 0.50 6008
0.01 -0.00 -0.38 -4.15 12.41 -0.75 -0.15 0.47 6016
0.00 0.00 -0.24 -4.04 12.33 -0.84 0.04 0.47 6023
0.00 0.00 -0.46 -4.12 12.53 -0.97 0.23 0.47 6030
0.00 0.00 -0.69 -4.59 12.17 -1.12 0.40 0.46 6037
0.00 0.00 -0.95 -5.59 11.20 -1.20 0.48 0.42 6044
0.00 0.00 -1.08 -6.52 10.23 -1.20 0.46 0.32 6051
0.00 -0.00 -0.78 -7.52 9.56 -1.10 0.43 0.24 6059
0.00 0.00 -0.42 -8.27 8.91 -0.96 0.47 0.12 6066
0.00 0.00 -0.01 -8.76 8.47 -0.77 0.49 0.02 6073
0.00 0.00 0.02 -9.20 8.16 -0.57 0.56 -0.08 6080
0.00 0.00 -0.37 -9.43 8.54 -0.42 0.59 -0.15 6087
0.00 0.00 -1.51 -9.27 8.68 -0.30 0.49 -0.21 6094
0.00 0.00 -2.40 -9.31 9.18 -0.25 0.29 -0.22 6102
0.00 0.00 -1.70 -9.26 10.95 -0.33 0.15 -0.23 6109
0.00 0.00 -0.36 -9.69 10.10 -0.57 0.21 -0.25 6116
0.00 0.00 0.12 -10.31 8.46 -0.82 0.41 -0.29 6123
0.00 0.00 -0.13 -11.17 6.76 -1.00 0.69 -0.37 6130
0.00 0.00 -1.16 -12.73 5.02 -1.00 0.88 -0.50 6137
0.00 0.00 -1.98 -13.91 3.75 -0.79 0.97 -0.62 6145
0.00 0.00 -8.20 -25.29 9.95 -0.18 0.46 -0.75 6152
0.00 0.00 -4.96 -16.61 2.39 0.64 0.12 -0.85 6159
0.00 0.00 -4.01 -16.28 -1.37 0.87 -0.23 -0.93 6166
0.00 0.00 -6.92 -24.90 2.82 1.15 -0.80 -0.98 6173
-0.00 0.04 -8.35 -30.50 4.25 1.49 -1.29 -1.14 6180
-0.01 0.06 -2.39 -15.23 2.64 1.82 -2.02 -1.39 6188
-0.02 0.20 7.19 -6.26 21.10 2.63 -1.80 -1.37 6196
-0.02 0.32 7.46 -0.21 17.73 0.80 -3.00 -0.82 6203
-0.03 0.50 3.55 1.17 10.69 -0.12 -0.31 0.03 6210
-0.03 0.65 -1.48 -4.42 11.71 -0.21 -0.04 -0.07 6217
-0.02 0.71 -0.68 -1.41 11.16 -0.09 -0.14 -0.07 6224
-0.03 0.75 0.39 -0.04 9.97 -0.01 0.01 -0.06 6231
-0.05 0.70 0.49 -0.95 9.78 -0.01 0.07 -0.06 6238
-0.05 0.72 0.55 -0.63 9.73 -0.01 0.07 -0.05 6245
-0.05 0.68 0.68 -0.62 9.85 -0.00 0.10 -0.05 6252
-0.05 0.69 0.58 -0.91 10.37 -0.01 0.06 -0.05 6259
-0.04 0.70 0.65 -0.77 9.81 -0.01 0.04 -0.05 6266
-0.02 0.73 0.54 -0.77 9.83 -0.01 0.05 -0.05 6274
-0.01 0.69 0.55 -0.78 9.82 -0.01 0.05 -0.05 6281
-0.01 0.67 0.57 -0.75 9.80 -0.01 0.06 -0.05 6288
-0.01 0.67 0.64 -0.72 9.78 -0.00 0.05 -0.05 6295
-0.01 0.71 0.64 -0.66 9.70 -0.00 0.05 -0.06 6302
-0.01 0.67 0.02 -0.64 9.78 -0.00 0.05 -0.06 6309
-0.02 0.66 0.54 -0.67 9.74 -0.00 0.04 -0.07 6317
-0.00 0.68 0.59 -0.67 9.77 0.00 0.04 -0.06 6324
-0.02 0.68 0.55 -0.69 9.80 -0.00 0.04 -0.06 6331
-0.02 0.71 0.60 -0.71 9.77 0.00 0.04 -0.06 6338
-0.01 0.70 0.53 -0.71 9.78 0.00 0.04 -0.06 6345
0.00 0.68 0.56 -0.68 9.75 0.00 0.04 -0.06 6352
-0.00 0.66 0.51 -0.68 9.77 0.00 0.05 -0.06 6360
-0.01 0.65 0.54 -0.69 9.78 0.01 0.05 -0.06 6367
-0.02 0.65 0.55 -0.69 9.74 0.01 0.05 -0.06 6374
-0.01 0.63 0.59 -0.71 9.76 0.01 0.05 -0.06 6381
0.00 0.62 0.59 -0.72 9.68 0.01 0.05 -0.06 6388
-0.00 0.60 0.58 -0.69 9.78 0.01 0.06 -0.06 6395
0.00 0.58 0.60 -0.70 9.80 0.02 0.05 -0.06 6403
0.01 0.57 0.64 -0.68 9.75 0.02 0.05 -0.06 6410
-0.00 0.53 0.59 -0.72 9.78 0.02 0.05 -0.06 6417
-0.01 0.51 0.55 -0.72 9.72 0.02 0.04 -0.07 6424
0.00 0.50 0.55 -0.73 9.77 0.02 0.04 -0.06 6431
0.01 0.47 0.59 -0.72 9.75 0.02 0.04 -0.06 6438
0.01 0.44 0.57 -0.70 9.77 0.02 0.03 -0.06 6446
0.01 0.45 0.55 -0.72 9.79 0.02 0.04 -0.06 6453
0.02 0.46 0.53 -0.73 9.82 0.02 0.04 -0.06 6460
0.03 0.46 0.57 -0.71 9.79 0.02 0.04 -0.05 6467
0.03 0.44 0.60 -0.72 9.76 0.02 0.04 -0.05 6474
0.03 0.44 0.57 -0.73 9.81 0.01 0.04 -0.06 6481
0.02 0.43 0.57 -0.73 9.77 0.01 0.04 -0.06 6489
0.02 0.42 0.58 -0.74 9.81 0.01 0.04 -0.05 6496
0.02 0.41 0.59 -0.76 9.76 0.01 0.04 -0.06 6503
0.02 0.43 0.57 -0.71 9.81 0.01 0.05 -0.06 6510
0.06 0.40 0.57 -0.72 9.74 0.01 0.04 -0.06 6517
0.05 0.38 0.58 -0.72 9.77 0.01 0.04 -0.06 6524
0.06 0.35 0.61 -0.71 9.77 0.02 0.04 -0.06 6532
0.04 0.33 0.57 -0.74 9.72 0.02 0.05 -0.06 6539
0.05 0.32 0.57 -0.74 9.79 0.02 0.04 -0.06 6546
0.06 0.34 0.59 -0.74 9.76 0.02 0.04 -0.07 6553
0.07 0.31 0.57 -0.77 9.78 0.02 0.04 -0.06 6560
0.08 0.26 0.58 -0.78 9.81 0.01 0.05 -0.06 6567
0.07 0.29 0.59 -0.76 9.76 0.01 0.05 -0.06 6575
0.07 0.27 0.60 -0.75 9.79 0.01 0.05 -0.07 6582
0.08 0.26 0.60 -0.78 9.75 0.01 0.05 -0.06 6589
0.09 0.26 0.60 -0.75 9.75 0.01 0.06 -0.06 6596
0.09 0.20 0.00 -0.76 9.80 0.01 0.06 -0.06 6603
0.08 0.22 0.58 -0.75 9.76 0.01 0.06 -0.07 6610
0.09 0.28 0.62 -0.74 9.73 0.01 0.06 -0.06 6618
0.08 0.26 0.63 -0.75 9.71 0.01 0.05 -0.06 6625
0.08 0.27 0.62 -0.78 9.78 0.01 0.06 -0.06 6632
0.07 0.23 0.55 -0.76 9.75 0.01 0.05 -0.06 6639
0.07 0.23 0.58 -0.77 9.76 0.01 0.05 -0.07 6646
0.06 0.20 0.60 -0.79 9.78 0.01 0.05 -0.07 6653
0.06 0.22 0.61 -0.77 9.74 0.01 0.05 -0.06 6661
0.05 0.18 0.61 -0.79 9.76 0.02 0.05 -0.06 6668
0.05 0.22 0.59 -0.78 9.73 0.01 0.05 -0.06 6675
0.05 0.18 0.62 -0.79 9.73 0.01 0.05 -0.06 6682
0.05 0.17 0.60 -0.78 9.73 0.01 0.06 -0.07 6689
0.05 0.19 0.01 -0.79 9.75 0.01 0.06 -0.07 6696
0.05 0.17 0.59 -0.78 9.71 0.01 0.06 -0.07 6704
0.05 0.13 0.64 -0.80 9.78 0.01 0.06 -0.07 6711
0.05 0.14 0.62 -0.80 9.72 0.01 0.06 -0.07 6718
0.08 0.14 0.61 -0.79 9.74 0.01 0.06 -0.07 6725
0.08 0.11 0.62 -0.77 9.72 0.00 0.07 -0.07 6732
0.07 0.09 0.63 -0.79 9.73 0.00 0.06 -0.07 6739
0.06 0.10 0.67 -0.80 9.74 0.01 0.06 -0.07 6747
0.07 0.12 0.65 -0.80 9.74 0.00 0.06 -0.07 6754
0.07 0.09 0.66 -0.80 9.76 0.01 0.05 -0.08 6761
0.09 0.08 0.64 -0.76 9.73 0.01 0.06 -0.08 6768
0.08 0.07 0.63 -0.79 9.78 0.01 0.06 -0.07 6775
0.08 0.06 0.66 -0.79 9.80 0.02 0.06 -0.08 6782
0.07 0.05 0.63 -0.81 9.81 0.02 0.06 -0.07 6790
0.08 0.07 0.65 -0.76 9.81 0.02 0.06 -0.08 6797
0.10 0.06 0.63 -0.79 9.75 0.03 0.07 -0.08 6804
0.11 0.02 0.65 -0.80 9.81 0.03 0.07 -0.08 6811
0.09 -0.00 0.66 -0.82 9.82 0.04 0.08 -0.07 6818
0.10 -0.01 0.66 -0.84 9.83 0.04 0.08 -0.07 6825
0.09 0.01 0.69 -0.81 9.88 0.05 0.09 -0.07 6833
0.08 -0.00 0.66 -0.86 9.97 0.08 0.11 -0.06 6840
0.11 -0.01 0.73 -0.85 10.00 0.11 0.13 -0.05 6847
0.10 -0.01 0.75 -0.85 10.02 0.16 0.17 -0.05 6854
0.10 0.00 0.63 -0.87 10.02 0.22 0.20 -0.05 6861
0.09 -0.01 0.57 -0.88 10.29 0.30 0.23 -0.05 6868
0.08 -0.01 0.64 -0.93 10.71 0.45 0.25 -0.05 6876
0.09 0.01 0.79 -0.90 11.56 0.69 0.28 -0.06 6883
0.10 0.00 0.94 -0.95 12.85 1.15 0.33 -0.09 6890
0.08 -0.01 1.52 -1.09 14.68 1.65 0.30 -0.16 6897
0.07 -0.01 1.48 -1.20 14.84 2.13 0.22 -0.24 6904
0.06 -0.01 1.22 -0.97 14.27 2.41 0.18 -0.31 6912
0.06 -0.01 1.33 -1.77 13.81 2.55 0.11 -0.34 6919
0.02 -0.00 1.34 -1.52 14.14 2.69 0.04 -0.36 6926
0.03 -0.00 1.70 -1.30 14.60 2.82 -0.02 -0.39 6933
0.04 -0.00 2.00 -1.33 14.49 2.94 -0.01 -0.41 6940
0.01 -0.00 2.11 -1.66 14.47 3.03 0.10 -0.46 6947
0.00 0.00 2.49 -1.85 15.21 3.07 0.24 -0.48 6955
0.00 0.00 2.56 -1.62 15.89 3.05 0.47 -0.50 6962
0.00 -0.00 1.94 -0.44 15.53 2.98 0.75 -0.51 6969
0.01 -0.00 0.38 0.99 14.17 2.77 0.78 -0.50 6976
0.00 0.00 -0.72 1.91 12.80 2.46 0.57 -0.48 6983
0.00 0.00 -1.37 4.31 12.58 2.18 0.32 -0.43 6990
0.00 0.00 -1.28 4.55 11.39 1.84 0.03 -0.44 6998
0.00 0.00 -0.77 5.99 11.24 1.57 -0.22 -0.52 7005
0.00 0.00 -0.96 8.13 10.86 1.33 -0.33 -0.64 7012
0.00 0.00 -0.52 7.97 9.22 1.02 -0.32 -0.90 7019
0.00 0.00 -0.42 7.25 8.67 0.77 -0.34 -1.15 7026
0.00 0.00 -0.87 7.59 9.49 0.47 -0.29 -1.32 7033
0.00 0.00 -0.64 7.83 8.75 0.19 -0.31 -1.46 7041
0.00 0.00 -0.58 6.76 7.48 0.03 -0.40 -1.52 7048
0.00 0.00 -0.10 6.73 6.73 -0.12 -0.50 -1.56 7055
0.00 0.00 0.51 6.28 6.25 -0.22 -0.55 -1.58 7062
0.00 0.00 1.16 5.77 6.28 -0.30 -0.56 -1.57 7069
0.00 0.00 1.76 5.28 6.44 -0.35 -0.53 -1.54 7076
0.00 0.00 2.24 5.02 6.99 -0.41 -0.49 -1.48 7084
0.00 0.00 2.66 4.88 7.77 -0.52 -0.43 -1.41 7091
0.00 0.00 2.90 4.80 8.53 -0.66 -0.37 -1.27 7098
0.00 0.00 3.08 4.66 8.97 -0.89 -0.33 -1.12 7105
0.00 0.00 3.39 4.00 9.07 -1.12 -0.28 -0.91 7112
0.00 0.00 3.56 3.13 9.01 -1.29 -0.24 -0.69 7119
0.00 0.00 3.68 2.32 8.75 -1.43 -0.19 -0.48 7127
-0.00 0.00 3.74 1.55 8.55 -1.49 -0.13 -0.23 7134
0.00 0.00 3.85 0.98 8.53 -1.52 -0.08 0.03 7141
0.00 0.00 3.83 0.45 8.62 -1.50 -0.01 0.25 7148
0.00 0.00 3.83 -0.04 8.91 -1.47 0.06 0.49 7155
0.00 0.00 3.64 -0.39 9.24 -1.43 0.12 0.67 7162
0.00 0.00 3.44 -0.71 9.63 -1.39 0.17 0.83 7170
0.00 0.00 3.21 -0.98 9.94 -1.34 0.21 0.95 7177
0.00 0.00 2.96 -1.29 10.22 -1.30 0.23 1.04 7184
0.00 0.00 2.85 -1.49 10.96 -1.27 0.24 1.08 7191
0.00 0.00 2.87 -1.44 11.65 -1.28 0.24 1.09 7198
0.00 0.00 2.87 -1.40 11.90 -1.33 0.27 1.08 7205
0.00 0.00 2.79 -1.55 11.95 -1.40 0.30 1.06 7213
0.00 0.00 2.76 -1.71 12.09 -1.47 0.33 1.02 7220
0.00 -0.00 2.80 -1.92 12.05 -1.53 0.36 0.98 7227
0.00 0.00 2.85 -2.11 11.71 -1.56 0.40 0.94 7234
0.00 0.00 2.83 -2.33 11.30 -1.58 0.45 0.88 7241
0.00 0.00 2.89 -2.48 11.06 -1.56 0.49 0.81 7248
0.00 0.00 2.85 -2.68 10.80 -1.52 0.54 0.74 7256
0.00 0.00 2.78 -2.69 10.64 -1.47 0.59 0.65 7263
0.00 0.00 2.62 -2.82 10.36 -1.40 0.62 0.52 7270
0.00 0.00 2.40 -2.94 10.11 -1.30 0.62 0.42 7277
0.00 0.00 1.26 -3.07 10.13 -1.18 0.59 0.30 7284
0.00 0.00 1.19 -2.86 10.13 -1.03 0.49 0.20 7291
0.00 0.00 0.87 -2.91 10.36 -0.93 0.34 0.09 7299
0.01 -0.00 0.84 -2.61 10.69 -0.83 0.21 0.01 7306
0.00 0.00 1.04 -2.53 11.37 -0.77 0.10 -0.02 7313
0.00 0.00 1.97 -2.28 13.08 -0.79 0.15 -0.04 7320
0.00 0.00 2.70 -2.12 13.14 -0.92 0.36 -0.02 7327
0.00 0.00 2.82 -2.26 12.46 -1.09 0.72 0.03 7334
0.00 0.00 2.15 -2.68 11.77 -1.22 0.99 0.12 7342
0.00 0.00 0.90 -3.39 11.15 -1.25 1.13 0.21 7349
0.00 0.00 -0.23 -4.10 10.40 -1.19 1.07 0.31 7356
0.00 0.00 -0.71 -4.71 9.76 -1.05 0.89 0.40 7363
0.00 0.00 -0.70 -5.01 9.38 -0.85 0.64 0.48 7370
0.00 0.00 -0.57 -5.15 9.07 -0.67 0.45 0.54 7377
0.00 0.00 -0.30 -5.18 8.97 -0.47 0.25 0.58 7385
0.00 0.00 -0.20 -5.10 9.14 -0.30 0.08 0.60 7392
0.00 0.00 -0.18 -5.02 9.48 -0.14 -0.05 0.62 7399
0.00 0.00 -0.42 -4.97 9.99 -0.04 -0.25 0.63 7406
0.00 0.00 -0.50 -5.03 10.40 -0.01 -0.40 0.65 7413
0.00 0.00 -0.23 -5.00 11.22 -0.03 -0.55 0.66 7420
0.00 0.00 0.13 -4.94 11.86 -0.13 -0.62 0.67 7428
0.00 0.00 0.95 -4.82 12.43 -0.36 -0.54 0.66 7435
0.00 0.00 2.15 -4.77 11.73 -0.69 -0.26 0.65 7442
0.00 0.00 2.54 -5.20 10.04 -0.98 0.17 0.61 7449
0.00 0.00 2.29 -5.99 9.16 -1.21 0.51 0.56 7456
0.00 0.00 1.68 -7.41 8.07 -1.24 0.78 0.48 7463
0.00 0.00 0.98 -8.56 7.36 -1.11 0.90 0.37 7471
0.00 0.00 0.01 -9.47 6.98 -0.84 0.92 0.26 7478
0.00 0.00 -1.83 -12.61 8.49 -0.45 0.77 0.14 7485
0.00 0.00 -2.70 -10.51 5.91 0.08 0.57 0.03 7492
0.00 0.00 -1.96 -9.03 4.38 0.28 0.41 -0.08 7499
0.00 0.00 -4.17 -12.78 7.07 0.41 0.25 -0.18 7506
0.00 0.00 -3.85 -12.89 8.30 0.66 -0.02 -0.26 7514
0.00 0.00 -3.00 -11.75 6.39 0.72 -0.05 -0.37 7521
0.00 0.00 -4.85 -16.28 7.11 0.77 -0.23 -0.44 7528
0.00 0.00 -6.88 -19.52 6.02 0.92 -0.64 -0.54 7535
-0.00 0.03 -8.85 -29.20 2.50 1.06 -1.15 -0.71 7542
-0.01 0.05 -4.34 -25.92 1.23 1.63 -1.50 -0.91 7549
-0.00 0.16 1.92 -2.62 8.84 2.71 -1.32 -1.02 7557
-0.02 0.30 5.33 0.82 29.09 1.52 -3.31 -0.70 7565
-0.03 0.43 3.32 -0.32 8.21 -0.04 -0.50 0.08 7571
-0.04 0.51 -0.11 -2.54 10.48 -0.29 0.08 -0.06 7579
-0.03 0.55 -1.11 -2.28 11.17 -0.09 -0.13 -0.07 7586
-0.03 0.60 0.39 -0.23 10.05 -0.01 -0.06 -0.07 7592
-0.02 0.56 0.25 -0.76 9.82 0.00 0.03 -0.05 7600
-0.03 0.59 0.21 -0.93 10.36 -0.02 0.02 -0.04 7607
0.01 0.59 0.48 -0.47 9.77 -0.01 0.04 -0.03 7614
0.00 0.58 0.55 -0.95 9.83 -0.01 0.05 -0.04 7621
0.01 0.57 0.50 -0.90 9.88 -0.01 0.04 -0.04 7628
0.01 0.59 0.37 -0.78 9.79 -0.01 0.05 -0.04 7635
0.03 0.65 0.44 -0.80 9.85 -0.01 0.06 -0.05 7643
0.03 0.63 0.46 -0.75 9.85 -0.01 0.07 -0.05 7650
0.03 0.60 0.44 -0.76 9.81 -0.00 0.07 -0.05 7657
0.01 0.61 0.47 -0.72 9.79 -0.00 0.08 -0.05 7664
0.02 0.61 0.51 -0.68 9.77 -0.00 0.07 -0.05 7671
0.03 0.58 0.52 -0.67 9.76 0.00 0.07 -0.05 7678
0.05 0.56 0.51 -0.71 9.76 0.00 0.07 -0.06 7686
0.04 0.54 0.52 -0.70 9.69 0.00 0.06 -0.06 7693
0.04 0.52 0.49 -0.73 9.67 0.00 0.06 -0.06 7700
0.03 0.53 0.51 -0.75 9.81 -0.03 0.05 -0.06 7707
0.03 0.53 0.49 -0.75 9.81 -0.00 0.05 -0.05 7714
0.05 0.53 0.45 -0.72 9.82 -0.00 0.05 -0.05 7721
0.04 0.52 0.45 -0.74 9.83 -0.00 0.06 -0.05 7729
0.04 0.52 0.42 -0.72 9.21 -0.01 0.06 -0.06 7736
0.05 0.51 0.45 -0.74 9.81 -0.00 0.07 -0.06 7743
0.04 0.51 0.48 -0.71 9.79 -0.00 0.08 -0.06 7750
0.05 0.50 0.47 -0.73 9.76 -0.00 0.08 -0.06 7757
0.04 0.48 0.51 -0.73 9.76 0.00 0.08 -0.06 7764
0.05 0.46 0.47 -0.73 9.77 -0.00 0.08 -0.06 7772
0.04 0.46 0.52 -0.75 9.80 0.00 0.09 -0.05 7779
0.04 0.42 0.51 -0.72 9.76 0.01 0.09 -0.05 7786
0.04 0.40 0.53 -0.73 9.78 0.01 0.09 -0.06 7793
0.04 0.40 0.53 -0.73 9.75 0.01 0.09 -0.05 7800
0.06 0.36 0.51 -0.74 9.75 0.01 0.10 -0.06 7808
0.04 0.39 0.55 -0.70 9.74 0.01 0.09 -0.05 7815
0.05 0.34 0.57 -0.73 9.74 0.01 0.09 -0.05 7822
0.05 0.31 0.57 -0.74 9.76 0.01 0.09 -0.05 7829
0.05 0.34 0.55 -0.73 9.74 0.01 0.08 -0.05 7836
0.05 0.35 0.57 -0.71 9.79 0.01 0.07 -0.05 7843
0.06 0.35 0.56 -0.75 9.77 0.01 0.07 -0.05 7851
0.05 0.35 0.51 -0.73 9.79 0.00 0.07 -0.05 7858
0.05 0.35 0.55 -0.77 9.78 0.00 0.07 -0.05 7865
0.04 0.34 0.60 -0.77 9.74 -0.00 0.07 -0.05 7872
0.04 0.32 0.57 -0.72 9.81 -0.00 0.06 -0.05 7879
0.04 0.33 0.57 -0.75 9.76 -0.00 0.06 -0.05 7886
0.06 0.32 0.57 -0.72 9.78 0.00 0.05 -0.05 7894
0.05 0.31 0.59 -0.75 9.75 -0.00 0.05 -0.05 7901
0.05 0.29 0.57 -0.75 9.77 -0.00 0.05 -0.05 7908
0.05 0.31 0.57 -0.74 9.76 0.00 0.04 -0.04 7915
0.05 0.31 0.56 -0.77 9.74 -0.00 0.04 -0.05 7922
0.06 0.32 0.57 -0.73 9.78 -0.00 0.04 -0.05 7929
0.06 0.31 0.59 -0.74 9.77 -0.01 0.03 -0.05 7937
0.05 0.33 0.55 -0.77 9.79 -0.01 0.03 -0.05 7944
0.05 0.32 0.55 -0.72 9.77 -0.01 0.03 -0.05 7951
0.04 0.33 0.55 -0.74 9.76 -0.01 0.03 -0.05 7958
0.05 0.36 0.50 -0.77 9.78 -0.01 0.03 -0.05 7965
0.06 0.36 0.54 -0.75 9.78 -0.01 0.03 -0.05 7972
0.04 0.35 0.54 -0.76 9.75 -0.01 0.04 -0.05 7980
0.04 0.35 0.54 -0.73 9.77 -0.01 0.04 -0.04 7987
0.04 0.34 0.55 -0.76 9.78 -0.01 0.05 -0.05 7994
0.04 0.35 0.56 -0.75 9.77 -0.01 0.05 -0.05 8001
0.04 0.36 0.53 -0.74 9.74 -0.01 0.05 -0.04 8008
0.06 0.36 0.54 -0.74 9.75 -0.01 0.05 -0.05 8015
0.05 0.35 0.57 -0.76 9.70 -0.01 0.04 -0.05 8023
0.05 0.36 0.56 -0.76 9.73 -0.02 0.04 -0.05 8030
0.04 0.36 0.55 -0.74 9.72 -0.02 0.03 -0.05 8037
0.03 0.38 0.56 -0.77 9.68 -0.02 0.02 -0.05 8044
0.04 0.39 0.54 -0.73 9.75 -0.03 0.01 -0.05 8051
0.05 0.39 0.56 -0.71 9.74 -0.02 0.00 -0.05 8058
0.04 0.38 0.53 -0.74 9.73 -0.03 -0.01 -0.05 8066
0.05 0.36 0.58 -0.67 9.73 -0.03 -0.01 -0.06 8073
0.03 0.41 0.54 -0.70 9.70 -0.03 -0.00 -0.06 8080
0.03 0.41 0.52 -0.68 9.75 -0.02 0.00 -0.06 8087
0.04 0.42 0.54 -0.72 9.75 -0.01 0.02 -0.06 8094
0.05 0.40 0.50 -0.68 9.78 -0.00 0.02 -0.06 8101
0.06 0.41 0.51 -0.72 9.75 0.00 0.03 -0.06 8109
0.05 0.38 0.53 -0.75 9.79 0.01 0.04 -0.06 8116
0.05 0.37 0.53 -0.73 9.81 0.01 0.04 -0.06 8123
0.05 0.37 0.54 -0.69 9.76 0.02 0.05 -0.06 8130
0.06 0.36 0.55 -0.72 9.78 0.02 0.05 -0.06 8137
0.07 0.35 0.58 -0.72 9.76 0.03 0.06 -0.06 8144
0.06 0.30 0.55 -0.71 9.82 0.03 0.06 -0.07 8152
0.07 0.25 0.56 -0.73 9.81 0.04 0.06 -0.06 8159
0.06 0.22 0.56 -0.74 9.83 0.04 0.06 -0.07 8166
0.07 0.24 0.56 -0.75 9.91 0.05 0.06 -0.07 8173
0.08 0.14 0.56 -0.72 9.94 0.08 0.07 -0.07 8180
0.08 0.06 0.58 -0.73 9.93 0.11 0.08 -0.06 8187
0.07 0.02 0.62 -0.81 10.03 0.15 0.09 -0.07 8195
0.06 0.00 0.56 -0.73 10.07 0.19 0.11 -0.07 8202
0.06 -0.01 0.98 -0.80 10.10 0.24 0.13 -0.06 8209
0.07 0.02 0.50 -0.95 10.37 0.32 0.14 -0.05 8216
0.08 -0.01 0.53 -0.87 10.75 0.46 0.14 -0.05 8223
0.06 -0.01 0.63 -0.97 11.64 0.68 0.17 -0.06 8230
0.06 -0.01 0.60 -1.05 13.07 1.13 0.19 -0.09 8238
0.05 -0.01 1.27 -1.05 15.39 1.66 0.18 -0.15 8245
0.05 -0.00 1.25 -0.80 14.94 2.11 0.15 -0.24 8252
0.06 -0.01 1.32 -0.91 13.90 2.32 0.08 -0.30 8259
0.06 -0.01 1.43 -1.10 13.87 2.46 0.02 -0.35 8266
0.03 -0.00 1.70 -1.39 14.44 2.63 -0.00 -0.40 8273
0.01 -0.00 1.92 -1.26 14.79 2.74 0.04 -0.45 8281
0.00 0.00 2.45 -1.28 15.03 2.84 0.11 -0.50 8288
0.00 -0.00 3.13 -1.34 15.52 2.88 0.28 -0.55 8295
0.00 -0.00 3.11 -0.65 17.04 2.86 0.46 -0.59 8302
0.00 -0.00 1.81 0.86 16.72 2.75 0.57 -0.62 8309
0.00 0.00 0.44 4.28 15.69 2.57 0.34 -0.60 8316
0.00 0.00 -0.13 6.39 13.52 2.24 -0.10 -0.52 8324
0.00 0.00 0.18 10.19 13.50 1.83 -0.66 -0.44 8331
0.00 0.00 1.42 10.29 10.82 1.49 -0.92 -0.31 8338
0.00 0.00 2.66 10.09 10.36 1.18 -0.91 -0.27 8345
0.00 0.00 3.26 10.52 10.57 0.96 -0.70 -0.30 8352
0.00 0.00 2.90 11.24 9.04 0.66 -0.47 -0.37 8359
0.00 0.00 2.17 11.16 7.75 0.44 -0.29 -0.46 8367
0.00 0.00 0.73 10.90 6.91 0.30 -0.17 -0.53 8374
0.00 0.00 0.77 10.73 6.48 0.17 -0.20 -0.57 8381
0.00 0.00 0.48 10.22 6.27 0.08 -0.25 -0.62 8388
0.00 0.00 0.57 9.76 6.43 -0.01 -0.28 -0.66 8395
0.00 0.00 0.85 9.36 6.84 -0.11 -0.31 -0.71 8402
0.00 0.00 1.17 9.12 7.94 -0.24 -0.30 -0.75 8410
0.00 0.00 1.58 8.86 8.61 -0.44 -0.26 -0.76 8417
0.00 0.00 1.90 8.37 9.22 -0.71 -0.17 -0.76 8424
0.01 -0.00 2.16 7.44 9.37 -0.95 -0.08 -0.72 8431
0.00 0.00 2.22 6.41 9.32 -1.21 0.01 -0.68 8438
0.00 0.00 2.22 5.02 9.17 -1.36 0.09 -0.60 8445
0.00 0.00 2.33 3.84 9.03 -1.46 0.14 -0.52 8453
0.00 0.00 2.43 2.63 9.01 -1.48 0.18 -0.42 8460
0.00 0.00 2.49 1.70 9.03 -1.45 0.21 -0.31 8467
0.00 0.00 2.53 1.04 8.89 -1.38 0.23 -0.23 8474
0.00 0.00 2.37 0.17 8.87 -1.29 0.24 -0.13 8481
0.00 0.00 1.96 -0.43 8.80 -1.14 0.18 -0.03 8488
0.00 0.00 1.55 -1.01 9.73 -0.97 0.05 -0.01 8496
0.00 0.00 1.41 -0.90 11.91 -0.87 -0.13 0.03 8503
-0.00 0.00 2.12 -0.29 15.26 -0.94 -0.16 0.07 8510
0.00 0.00 2.99 0.05 15.58 -1.24 -0.09 0.12 8517
0.00 0.00 3.02 -0.03 15.02 -1.63 0.07 0.17 8524
0.00 0.00 3.30 -0.70 14.54 -2.00 0.26 0.21 8531
0.00 0.00 2.77 -2.21 12.80 -2.17 0.43 0.25 8539
0.00 0.00 2.27 -3.49 11.10 -2.20 0.53 0.27 8546
0.00 0.00 1.93 -4.61 11.13 -2.06 0.58 0.30 8553
0.00 0.00 1.66 -5.10 10.86 -1.88 0.58 0.33 8560
0.00 0.00 1.37 -5.23 10.44 -1.65 0.57 0.34 8567
0.00 0.00 1.21 -5.26 10.07 -1.47 0.53 0.36 8574
0.00 0.00 1.02 -5.28 9.88 -1.25 0.49 0.36 8582
0.00 0.00 0.69 -5.28 9.89 -1.03 0.40 0.35 8589
0.00 0.00 0.48 -5.11 10.52 -0.85 0.31 0.33 8596
0.00 0.00 0.49 -4.89 11.06 -0.69 0.24 0.32 8603
0.00 0.00 0.64 -4.37 11.00 -0.62 0.19 0.30 8610
0.00 0.00 0.54 -4.32 11.57 -0.62 0.20 0.30 8617
0.00 0.00 0.48 -4.35 11.18 -0.64 0.24 0.30 8625
0.00 0.00 0.48 -4.59 11.00 -0.63 0.28 0.32 8632
0.01 -0.00 0.73 -4.65 11.43 -0.61 0.34 0.34 8639
0.00 0.00 1.18 -4.89 10.85 -0.59 0.48 0.36 8646
0.00 0.00 1.61 -5.03 10.75 -0.57 0.63 0.37 8653
0.00 0.00 1.91 -5.23 10.74 -0.57 0.85 0.36 8660
0.00 0.00 1.68 -5.43 10.67 -0.58 1.07 0.34 8668
0.00 0.00 1.25 -5.56 10.50 -0.59 1.22 0.33 8675
0.00 -0.00 0.55 -5.60 10.28 -0.58 1.33 0.30 8682
0.00 0.00 -0.16 -5.68 9.87 -0.56 1.36 0.29 8689
0.00 0.00 -1.01 -5.85 9.80 -0.52 1.31 0.31 8696
0.00 0.00 -1.70 -5.99 9.83 -0.48 1.16 0.34 8704
0.00 0.00 -2.01 -6.10 9.90 -0.46 0.95 0.36 8711
0.00 0.00 -2.16 -6.14 9.98 -0.47 0.66 0.40 8718
0.00 0.00 -1.98 -6.13 10.01 -0.52 0.40 0.44 8725
0.00 0.00 -1.56 -6.12 9.81 -0.63 0.13 0.48 8732
0.00 0.00 -0.96 -6.29 9.39 -0.77 -0.06 0.51 8739
0.00 0.00 -0.29 -6.57 8.91 -0.84 -0.13 0.54 8747
0.00 0.00 0.23 -7.14 8.51 -0.89 -0.14 0.53 8754
0.00 0.00 0.43 -7.84 7.92 -0.89 -0.09 0.50 8761
0.00 0.00 0.64 -8.55 7.29 -0.82 -0.01 0.44 8768
0.00 0.00 0.75 -9.31 6.79 -0.67 0.08 0.35 8775
0.00 0.00 0.91 -9.83 6.38 -0.56 0.18 0.24 8782
0.00 0.00 0.88 -10.40 5.80 -0.41 0.36 0.15 8790
0.00 0.00 -0.22 -12.41 5.76 -0.27 0.51 0.07 8797
0.00 0.00 -4.04 -18.02 15.43 0.32 0.19 0.03 8804
0.00 0.00 -2.37 -12.64 2.56 0.70 0.13 -0.02 8811
0.00 0.00 -2.80 -16.20 3.73 0.88 -0.02 0.01 8818
0.00 0.00 -4.04 -19.38 4.36 1.14 -0.33 0.03 8825
0.00 0.00 -7.27 -24.33 4.97 1.48 -0.90 -0.00 8833
-0.00 0.04 -6.21 -21.39 0.77 1.76 -1.48 -0.15 8840
0.01 0.07 -2.30 3.97 2.09 2.19 -1.98 -0.40 8847
-0.02 0.23 1.67 -5.06 36.27 3.20 -2.07 -0.60 8855
-0.03 0.36 4.83 0.17 25.87 1.11 -2.96 -0.46 8862
-0.04 0.42 0.44 -0.89 13.63 -0.09 -0.33 -0.04 8868
-0.04 0.55 -1.79 -5.30 11.10 -0.24 -0.08 -0.16 8877
-0.03 0.63 0.16 -2.42 10.67 -0.13 -0.22 -0.11 8884
-0.03 0.69 0.41 -0.46 10.19 -0.02 -0.10 -0.01 8890
-0.04 0.70 -0.21 -0.97 10.06 -0.02 -0.01 -0.05 8897
-0.04 0.63 0.31 -0.52 9.79 -0.02 0.05 -0.05 8904
-0.05 0.60 0.58 -0.73 9.65 -0.01 0.09 -0.03 8911
-0.05 0.62 0.42 -1.00 9.82 -0.02 0.10 -0.03 8919
-0.05 0.66 0.49 -0.87 9.83 -0.03 0.10 -0.03 8926
-0.05 0.70 0.64 -0.85 9.73 -0.03 0.09 -0.03 8933
-0.06 0.71 0.54 -0.85 9.77 -0.02 0.08 -0.03 8940
-0.05 0.69 0.48 -0.82 9.79 -0.02 0.08 -0.04 8947
-0.06 0.67 0.48 -0.83 9.82 -0.02 0.08 -0.03 8954
-0.06 0.68 0.54 -0.77 9.80 -0.02 0.09 -0.03 8962
-0.05 0.68 0.55 -0.81 9.80 -0.02 0.09 -0.03 8969
-0.05 0.69 0.54 -0.81 9.78 -0.02 0.10 -0.03 8976
-0.06 0.71 0.55 -0.75 9.72 -0.02 0.10 -0.04 8983
-0.05 0.69 0.57 -0.80 9.75 -0.02 0.10 -0.04 8990
-0.06 0.69 0.51 -0.76 9.78 -0.02 0.10 -0.04 8997
-0.04 0.67 0.52 -0.78 9.75 -0.02 0.11 -0.04 9005
-0.03 0.66 0.52 -0.74 9.75 -0.03 0.11 -0.04 9012
-0.05 0.66 0.48 -0.71 9.75 -0.02 0.12 -0.04 9019
-0.04 0.64 0.52 -0.74 9.81 -0.02 0.12 -0.04 9026
-0.05 0.62 0.57 -0.74 9.75 -0.02 0.13 -0.04 9033
-0.05 0.61 0.55 -0.76 9.74 -0.02 0.14 -0.04 9040
-0.04 0.62 0.59 -0.72 9.77 -0.02 0.14 -0.03 9048
-0.03 0.62 0.57 -0.74 9.76 -0.02 0.14 -0.03 9055
-0.04 0.62 0.62 -0.72 9.73 -0.02 0.12 -0.03 9062
-0.04 0.61 0.60 -0.71 9.76 -0.01 0.11 -0.04 9069
-0.05 0.61 0.63 -0.72 9.70 -0.01 0.10 -0.03 9076
-0.04 0.62 0.62 -0.70 9.70 -0.01 0.08 -0.04 9083
-0.03 0.63 0.63 -0.69 9.72 -0.00 0.07 -0.04 9091
-0.02 0.63 0.64 -0.72 9.75 -0.00 0.06 -0.05 9098
-0.03 0.61 0.63 -0.75 9.77 0.01 0.05 -0.05 9105
-0.03 0.62 0.59 -0.72 9.74 0.00 0.05 -0.05 9112
-0.04 0.63 0.62 -0.73 9.71 0.01 0.04 -0.05 9119
-0.03 0.63 0.63 -0.71 9.70 0.02 0.04 -0.05 9126
-0.03 0.64 0.59 -0.74 9.79 0.01 0.04 -0.05 9134
-0.02 0.62 0.59 -0.75 9.79 0.01 0.05 -0.05 9141
-0.03 0.60 0.59 -0.75 9.77 0.01 0.05 -0.04 9148
-0.03 0.58 0.60 -0.78 9.74 0.01 0.05 -0.04 9155
-0.04 0.58 0.61 -0.78 9.77 0.02 0.05 -0.04 9162
-0.02 0.57 0.60 -0.72 9.75 0.02 0.05 -0.04 9169
-0.03 0.57 0.64 -0.75 9.72 0.02 0.04 -0.03 9177
-0.03 0.54 0.59 -0.72 9.74 0.02 0.04 -0.03 9184
-0.03 0.55 0.65 -0.74 9.64 0.03 0.03 -0.03 9191
-0.00 0.53 0.61 -0.75 9.74 0.03 0.03 -0.04 9198
-0.01 0.51 0.65 -0.71 9.65 0.03 0.02 -0.04 9205
0.00 0.49 0.65 -0.79 9.23 0.03 0.01 -0.04 9212
-0.02 0.50 0.60 -0.77 9.75 0.03 0.01 -0.04 9220
-0.02 0.50 0.62 -0.74 9.77 0.02 0.01 -0.04 9227
-0.01 0.48 0.61 -0.77 9.79 0.02 0.01 -0.04 9234
-0.02 0.47 0.61 -0.76 9.72 0.02 0.02 -0.05 9241
-0.01 0.48 0.55 -0.75 9.81 0.02 0.03 -0.04 9248
-0.01 0.50 0.57 -0.75 9.79 0.02 0.04 -0.04 9255
0.01 0.45 0.55 -0.77 9.77 0.02 0.04 -0.04 9263
-0.00 0.46 0.61 -0.76 9.76 0.02 0.05 -0.04 9270
-0.01 0.47 0.63 -0.77 9.75 0.02 0.05 -0.04 9277
-0.01 0.43 0.65 -0.77 9.78 0.02 0.05 -0.04 9284
-0.01 0.39 0.64 -0.79 9.72 0.03 0.04 -0.04 9291
-0.01 0.40 0.61 -0.79 9.74 0.03 0.04 -0.04 9298
0.01 0.39 0.60 -0.78 9.73 0.02 0.04 -0.04 9306
0.00 0.39 0.63 -0.74 9.75 0.02 0.04 -0.05 9313
0.01 0.37 0.63 -0.79 9.75 0.02 0.04 -0.05 9320
-0.01 0.36 0.63 -0.81 9.73 0.02 0.04 -0.05 9327
0.01 0.33 0.58 -0.79 9.72 0.02 0.04 -0.05 9334
0.02 0.35 0.60 -0.83 9.79 0.02 0.05 -0.05 9341
0.03 0.26 0.56 -0.80 9.68 0.01 0.05 -0.05 9349
0.02 0.29 0.64 -0.82 9.77 0.01 0.06 -0.05 9356
0.02 0.24 0.65 -0.79 9.77 0.00 0.06 -0.05 9363
0.01 0.28 0.65 -0.81 9.77 0.01 0.06 -0.05 9370
0.02 0.28 0.66 -0.79 9.80 0.01 0.06 -0.05 9377
0.00 0.30 0.63 -0.82 9.73 0.01 0.06 -0.05 9384
0.01 0.28 0.69 -0.84 9.79 0.01 0.06 -0.05 9392
0.02 0.24 0.60 -0.81 9.73 0.01 0.06 -0.05 9399
0.02 0.28 0.69 -0.85 9.74 0.01 0.05 -0.05 9406
0.00 0.32 0.68 -0.83 9.72 0.01 0.05 -0.06 9413
0.01 0.31 0.68 -0.83 9.69 0.01 0.05 -0.06 9420
0.03 0.25 0.65 -0.85 9.76 0.01 0.05 -0.06 9427
0.03 0.28 0.67 -0.83 9.72 0.01 0.05 -0.06 9435
0.03 0.28 0.68 -0.84 9.73 0.02 0.04 -0.06 9442
0.03 0.25 0.67 -0.82 9.76 0.02 0.04 -0.06 9449
0.03 0.21 0.66 -0.84 9.81 0.03 0.05 -0.06 9456
0.04 0.21 0.67 -0.81 9.80 0.03 0.05 -0.06 9463
0.04 0.13 0.66 -0.83 9.83 0.03 0.05 -0.06 9470
0.04 0.13 0.67 -0.84 9.80 0.04 0.05 -0.06 9478
0.05 0.05 0.67 -0.86 9.81 0.04 0.05 -0.06 9485
0.04 0.04 0.68 -0.85 9.78 0.04 0.06 -0.06 9492
0.05 0.02 0.69 -0.85 9.79 0.04 0.05 -0.06 9499
0.05 0.04 0.71 -0.85 9.82 0.04 0.05 -0.06 9506
0.06 0.02 0.61 -0.90 9.81 0.05 0.05 -0.06 9513
0.05 0.01 0.65 -0.88 9.83 0.06 0.06 -0.06 9521
0.05 -0.01 0.67 -0.91 9.86 0.08 0.07 -0.05 9528
0.04 -0.00 0.62 -0.95 9.98 0.10 0.09 -0.04 9535
0.07 -0.01 0.63 -0.90 10.12 0.15 0.11 -0.03 9542
0.07 0.02 0.73 -0.98 10.10 0.22 0.14 -0.02 9549
0.09 -0.01 0.04 -0.92 10.40 0.30 0.18 -0.02 9556
0.09 -0.01 0.69 -0.92 10.76 0.45 0.22 -0.02 9564
0.08 -0.01 0.49 -1.05 11.66 0.78 0.27 -0.04 9571
0.07 -0.01 0.52 -1.00 13.40 1.26 0.32 -0.05 9578
0.08 -0.01 1.14 -1.23 15.65 1.99 0.36 -0.11 9585
0.07 -0.01 1.42 -1.09 16.29 2.46 0.36 -0.19 9592
0.07 -0.01 1.46 -0.88 14.17 2.72 0.32 -0.26 9600
0.07 -0.01 0.99 -1.39 14.20 2.86 0.31 -0.29 9607
0.03 -0.00 1.11 -1.42 14.24 2.94 0.26 -0.29 9614
0.01 -0.00 1.18 -1.44 14.60 3.08 0.26 -0.28 9621
0.01 -0.00 1.70 -1.70 14.85 3.18 0.32 -0.30 9628
0.01 0.00 2.37 -2.00 15.04 3.27 0.42 -0.33 9635
0.01 -0.00 2.62 -2.15 16.39 3.29 0.61 -0.37 9643
0.00 -0.00 2.63 -1.87 17.37 3.29 0.82 -0.40 9650
0.00 -0.00 1.64 -0.93 16.69 3.28 1.02 -0.41 9657
0.00 0.00 0.15 1.19 15.73 3.16 1.01 -0.40 9664
0.00 0.00 -0.92 3.13 15.25 2.84 0.85 -0.36 9671
0.00 -0.00 -1.49 4.43 13.87 2.41 0.62 -0.35 9678
0.00 -0.00 -1.76 6.27 13.15 2.07 0.32 -0.39 9686
0.00 0.00 -2.54 9.42 11.93 1.75 0.07 -0.50 9693
0.00 0.00 -2.01 9.71 9.51 1.45 -0.17 -0.78 9700
0.00 0.00 -1.99 10.17 9.90 1.08 -0.33 -1.09 9707
0.00 0.00 -1.23 10.58 10.08 0.69 -0.48 -1.32 9714
0.00 0.00 -1.19 11.26 9.71 0.36 -0.56 -1.49 9721
0.00 0.00 -0.51 11.00 8.44 0.05 -0.66 -1.60 9729
0.00 0.00 0.14 10.56 7.12 -0.18 -0.75 -1.67 9736
0.00 0.00 0.73 10.18 6.39 -0.34 -0.79 -1.74 9743
0.00 0.00 1.38 9.71 6.01 -0.51 -0.80 -1.71 9750
0.00 0.00 1.85 9.17 5.96 -0.63 -0.79 -1.70 9757
0.00 0.00 2.14 8.62 6.20 -0.74 -0.79 -1.67 9764
0.00 0.00 2.73 8.05 6.53 -0.83 -0.78 -1.61 9772
0.00 0.00 3.30 7.60 7.57 -0.93 -0.74 -1.51 9779
0.00 0.00 3.84 7.24 8.65 -1.12 -0.63 -1.41 9786
0.00 0.00 4.21 6.72 9.45 -1.32 -0.47 -1.26 9793
0.00 0.00 4.39 5.93 10.03 -1.59 -0.31 -1.10 9800
0.00 0.00 4.30 4.58 10.25 -1.82 -0.14 -0.89 9807
0.00 0.00 4.11 3.18 10.09 -1.96 -0.04 -0.65 9815
0.00 0.00 3.86 2.07 9.92 -2.05 0.03 -0.44 9822
0.00 0.00 3.81 0.90 9.97 -2.05 0.06 -0.17 9829
0.00 0.00 3.83 0.20 10.21 -2.01 0.10 0.08 9836
0.00 0.00 3.82 -0.32 10.44 -1.94 0.17 0.30 9843
0.00 0.00 3.76 -0.64 10.77 -1.88 0.29 0.55 9850
0.00 0.00 3.41 -0.87 11.12 -1.82 0.35 0.74 9858
0.00 0.00 2.96 -1.23 11.64 -1.78 0.42 0.93 9865
0.00 0.00 2.52 -1.44 12.34 -1.75 0.44 1.10 9872
0.00 0.00 2.16 -1.64 12.70 -1.75 0.46 1.17 9879
0.00 0.00 2.03 -1.83 13.00 -1.78 0.48 1.23 9886
0.00 0.00 1.96 -2.08 13.11 -1.83 0.51 1.24 9893
0.00 0.00 1.83 -2.45 13.16 -1.87 0.56 1.21 9901
0.00 0.00 1.69 -2.82 13.26 -1.88 0.62 1.15 9908
0.00 0.00 1.43 -3.26 12.99 -1.89 0.68 1.08 9915
0.00 0.00 1.19 -3.80 12.46 -1.89 0.69 0.97 9922
0.00 0.00 1.04 -4.27 12.08 -1.84 0.64 0.89 9929
0.00 0.00 0.88 -4.66 11.65 -1.74 0.56 0.79 9936
0.00 0.00 0.91 -4.85 11.17 -1.62 0.49 0.72 9944
0.00 0.00 0.93 -4.97 10.62 -1.46 0.41 0.66 9951
0.00 0.00 0.70 -5.10 9.97 -1.26 0.30 0.61 9958
0.00 0.00 0.55 -5.25 9.82 -1.08 0.19 0.54 9965
0.01 -0.00 0.81 -5.13 10.42 -0.87 0.08 0.53 9972
0.00 0.00 1.81 -4.79 11.00 -0.73 0.05 0.51 9979
0.00 0.00 1.36 -4.59 11.00 -0.65 0.05 0.51 9987
0.00 0.00 1.34 -4.53 11.10 -0.62 0.06 0.51 9994
0.00 0.00 1.38 -4.47 11.31 -0.60 0.07 0.51 10001
-0.00 0.00 1.64 -4.49 12.03 -0.61 0.12 0.53 10008
0.00 0.00 2.17 -4.41 12.57 -0.67 0.25 0.53 10015
0.00 0.00 2.27 -4.39 12.71 -0.79 0.38 0.54 10022
0.00 0.00 1.78 -4.37 12.60 -0.97 0.49 0.54 10030
0.00 0.00 1.43 -4.63 11.88 -1.13 0.53 0.52 10037
0.00 0.00 1.03 -5.14 11.10 -1.25 0.48 0.48 10044
0.00 0.00 0.82 -5.91 9.83 -1.27 0.39 0.42 10051
0.00 0.00 0.69 -6.75 9.06 -1.19 0.31 0.35 10058
0.00 0.00 0.35 -9.25 10.72 -0.89 0.24 0.27 10065
0.00 0.00 0.60 -6.41 7.26 -0.61 0.27 0.19 10073
0.00 0.00 -0.45 -6.85 5.59 -0.49 0.19 0.14 10080
0.00 0.00 -0.77 -9.48 10.68 -0.25 0.06 0.09 10087
0.00 0.00 -0.86 -8.40 7.97 -0.07 -0.02 0.07 10094
0.00 0.00 -0.67 -8.87 9.08 -0.03 -0.15 0.07 10101
0.00 0.00 0.33 -8.53 8.90 -0.06 -0.27 0.06 10108
0.00 0.00 1.26 -9.53 9.07 -0.16 -0.22 0.05 10116
0.00 0.00 2.14 -11.35 9.67 -0.12 -0.04 0.03 10123
0.00 0.00 2.40 -12.57 6.94 -0.05 0.27 0.00 10130
0.00 0.00 1.59 -12.07 7.83 0.18 0.65 -0.03 10137
0.00 0.00 0.87 -15.63 4.93 0.18 0.88 -0.07 10144
0.00 0.00 -1.00 -15.45 4.30 0.43 0.83 -0.08 10151
0.00 0.00 -4.31 -20.12 5.84 0.70 0.30 -0.12 10159
0.00 0.00 -4.86 -21.77 1.39 0.98 -0.17 -0.18 10166
-0.00 0.04 -7.77 -28.52 1.00 1.42 -0.88 -0.23 10173
0.00 0.05 -6.59 -41.47 -0.37 2.14 -1.51 -0.29 10181
-0.01 0.10 -1.47 2.62 10.76 3.22 -1.43 -0.37 10187
-0.00 0.18 3.40 -5.25 26.50 1.16 -2.87 -0.40 10195
-0.02 0.30 1.63 -0.85 3.05 -0.39 0.14 0.14 10202
-0.02 0.48 -1.17 -1.07 13.28 -0.30 -0.30 -0.20 10210
-0.02 0.54 0.96 -2.04 9.90 -0.09 -0.21 -0.12 10216
-0.02 0.59 0.27 -0.19 10.02 0.01 -0.06 -0.06 10223
-0.01 0.57 -0.11 -1.41 9.93 0.00 -0.01 -0.07 10230
-0.03 0.58 0.00 -0.37 9.47 0.01 0.06 -0.05 10237
-0.04 0.56 0.42 -0.96 9.62 0.00 0.10 -0.05 10245
-0.03 0.60 0.56 -0.89 9.78 -0.00 0.09 -0.05 10252
-0.03 0.60 0.55 -0.88 9.77 -0.01 0.07 -0.06 10259
0.00 0.64 0.34 -0.92 9.77 -0.01 0.07 -0.05 10266
-0.01 0.62 0.39 -1.00 9.81 -0.01 0.08 -0.06 10273
-0.02 0.62 0.47 -0.89 9.90 -0.00 0.09 -0.06 10280
-0.03 0.64 0.51 -0.84 9.81 0.01 0.09 -0.07 10288
-0.01 0.63 0.44 -0.88 9.80 0.00 0.09 -0.07 10295
-0.00 0.61 0.44 -0.86 9.80 0.00 0.09 -0.07 10302
-0.00 0.59 0.48 -0.87 9.82 0.00 0.10 -0.08 10309
-0.00 0.58 0.47 -0.83 9.75 0.01 0.10 -0.07 10316
0.00 0.57 0.44 -0.85 9.77 0.01 0.11 -0.08 10323
-0.01 0.56 0.49 -0.86 9.81 0.01 0.11 -0.07 10331
0.01 0.56 0.51 -0.86 9.82 0.00 0.11 -0.07 10338
0.02 0.54 0.50 -0.85 9.81 0.01 0.10 -0.07 10345
0.02 0.51 0.46 -0.90 9.82 0.01 0.09 -0.07 10352
0.00 0.50 0.49 -0.87 9.77 0.00 0.09 -0.07 10359
-0.01 0.49 0.49 -0.84 9.80 0.01 0.08 -0.07 10366
0.01 0.47 0.48 -0.91 9.79 0.01 0.08 -0.07 10374
0.02 0.48 0.49 -0.88 9.72 0.01 0.08 -0.07 10381
0.04 0.45 0.49 -0.84 9.81 0.01 0.08 -0.07 10388
0.02 0.44 0.51 -0.87 9.74 0.02 0.09 -0.07 10395
0.03 0.42 0.47 -0.86 9.73 0.01 0.09 -0.07 10402
0.02 0.38 0.48 -0.86 9.73 0.01 0.10 -0.07 10409
0.02 0.37 0.51 -0.87 9.77 0.02 0.09 -0.07 10417
0.04 0.35 0.51 -0.86 9.77 0.02 0.09 -0.07 10424
0.05 0.29 0.48 -0.84 9.78 0.02 0.09 -0.07 10431
0.05 0.27 0.51 -0.88 9.71 0.02 0.09 -0.07 10438
0.04 0.26 0.54 -0.87 9.74 0.03 0.08 -0.07 10445
0.03 0.27 0.55 -0.86 9.78 0.02 0.08 -0.06 10452
0.04 0.25 0.53 -0.87 9.75 0.03 0.08 -0.06 10460
0.04 0.19 0.55 -0.89 9.75 0.02 0.08 -0.07 10467
0.05 0.19 0.57 -0.88 9.74 0.02 0.07 -0.07 10474
0.04 0.19 0.58 -0.89 9.78 0.02 0.06 -0.07 10481
0.04 0.19 0.56 -0.91 9.74 0.02 0.06 -0.07 10488
0.05 0.15 0.56 -0.87 9.75 0.02 0.06 -0.07 10496
0.04 0.13 0.58 -0.89 9.74 0.02 0.05 -0.07 10503
0.05 0.13 0.59 -0.87 9.74 0.02 0.04 -0.07 10510
0.05 0.09 0.55 -0.92 9.77 0.02 0.00 -0.07 10517
0.06 0.09 0.54 -0.90 9.75 0.01 0.03 -0.07 10524
0.06 0.09 0.60 -0.92 9.71 0.01 0.03 -0.07 10531
0.05 0.09 0.56 -0.93 9.78 0.01 0.03 -0.07 10539
0.04 0.11 0.56 -0.94 9.75 0.01 0.03 -0.07 10546
0.05 0.09 0.52 -0.91 9.74 0.01 0.03 -0.07 10553
0.06 0.07 0.57 -0.92 9.79 0.01 0.03 -0.07 10560
0.05 0.06 0.57 -0.96 9.77 0.01 0.03 -0.07 10567
0.04 0.07 0.58 -0.92 9.78 0.01 0.04 -0.07 10574
0.04 0.09 0.55 -0.89 9.76 0.01 0.03 -0.07 10582
0.04 0.10 0.51 -0.95 9.78 0.00 0.04 -0.07 10589
0.06 0.09 0.55 -0.91 9.74 0.00 0.04 -0.07 10596
0.05 0.10 0.56 -0.93 9.74 0.00 0.03 -0.06 10603
0.04 0.08 0.54 -0.94 9.78 -0.01 0.03 -0.07 10610
0.04 0.09 0.58 -0.93 9.78 -0.00 0.03 -0.06 10617
0.05 0.11 0.60 -0.94 9.74 0.00 0.03 -0.07 10625
0.06 0.11 0.58 -0.94 9.76 0.00 0.03 -0.10 10632
0.07 0.10 0.58 -0.92 9.75 0.00 0.03 -0.07 10639
0.05 0.09 0.54 -0.91 9.74 0.00 0.03 -0.07 10646
0.07 0.07 0.58 -0.94 9.75 -0.00 0.03 -0.07 10653
0.05 0.05 0.52 -0.96 9.75 0.00 0.04 -0.07 10660
0.06 0.05 0.61 -0.92 9.80 0.00 0.04 -0.08 10668
0.07 0.07 0.57 -0.96 9.79 0.00 0.04 -0.07 10675
0.07 0.06 0.54 -0.90 9.76 0.00 0.04 -0.08 10682
0.06 0.09 0.58 -0.91 9.72 0.00 0.04 -0.08 10689
0.07 0.05 0.51 -0.92 9.75 0.00 0.04 -0.08 10696
0.06 0.07 0.53 -0.94 9.76 -0.00 0.04 -0.08 10703
0.07 0.08 0.55 -0.94 9.72 -0.00 0.05 -0.07 10711
0.08 0.07 0.56 -0.92 9.71 -0.01 0.05 -0.08 10718
0.09 0.06 0.57 -0.95 9.77 0.00 0.06 -0.07 10725
0.10 0.07 0.59 -0.93 9.81 -0.00 0.06 -0.07 10732
0.09 0.02 0.59 -0.92 9.81 0.00 0.06 -0.08 10739
0.10 0.06 0.56 -0.96 9.82 0.01 0.06 -0.08 10746
0.10 0.06 0.60 -0.95 9.80 0.01 0.06 -0.08 10754
0.12 0.03 0.62 -0.91 9.81 0.02 0.06 -0.08 10761
0.12 -0.00 0.62 -0.91 9.80 0.02 0.06 -0.08 10768
0.11 -0.01 0.58 -0.94 9.78 0.03 0.10 -0.08 10775
0.11 -0.01 0.57 -0.92 9.82 0.04 0.08 -0.08 10782
0.11 -0.01 0.60 -0.97 9.86 0.05 0.09 -0.08 10789
0.11 0.01 0.55 -0.93 9.90 0.07 0.10 -0.07 10797
0.14 -0.01 0.51 -0.96 10.00 0.10 0.12 -0.06 10804
0.14 -0.01 0.58 -0.91 10.13 0.14 0.16 -0.05 10811
0.11 -0.01 0.58 -1.07 10.40 0.23 0.21 -0.05 10818
0.08 -0.01 0.63 -1.12 10.99 0.38 0.26 -0.05 10825
0.08 -0.01 0.75 -1.12 11.75 0.61 0.29 -0.08 10832
0.08 -0.00 0.87 -1.50 13.67 1.16 0.34 -0.13 10840
0.06 -0.01 1.20 -1.45 16.14 1.79 0.30 -0.21 10847
0.05 -0.01 1.31 -1.14 15.52 2.32 0.22 -0.27 10854
0.06 -0.01 1.08 -0.91 14.44 2.60 0.12 -0.31 10861
0.03 -0.00 1.06 -1.25 13.86 2.70 0.04 -0.31 10868
0.05 -0.00 1.37 -1.35 13.56 2.80 0.02 -0.32 10875
0.03 -0.00 1.25 -1.68 13.72 2.87 0.04 -0.35 10883
0.03 -0.00 1.46 -2.00 14.41 2.91 0.08 -0.36 10890
0.01 -0.00 1.96 -2.25 15.37 2.93 0.16 -0.36 10897
0.01 -0.00 2.62 -2.14 16.96 2.90 0.27 -0.39 10904
0.00 0.00 2.76 -0.92 17.23 2.80 0.46 -0.41 10911
0.00 0.00 1.55 1.76 15.93 2.67 0.51 -0.44 10918
0.00 0.00 0.23 4.64 14.63 2.39 0.35 -0.40 10926
0.00 -0.00 -0.56 8.81 12.98 2.01 0.01 -0.35 10933
0.00 0.00 -1.12 9.84 11.52 1.64 -0.29 -0.25 10940
0.00 0.00 0.21 12.69 9.76 1.28 -0.44 -0.23 10947
0.00 0.00 0.51 11.69 8.72 0.97 -0.48 -0.27 10954
0.00 0.00 0.31 11.68 9.34 0.60 -0.41 -0.37 10961
0.00 0.00 0.52 11.43 8.81 0.22 -0.33 -0.52 10969
0.00 0.00 0.06 10.06 7.50 0.01 -0.33 -0.65 10976
0.00 0.00 0.03 9.05 7.00 -0.15 -0.36 -0.75 10983
0.00 0.00 0.34 8.02 6.87 -0.24 -0.41 -0.85 10990
0.00 0.00 0.72 7.08 7.12 -0.30 -0.45 -0.94 10997
0.00 0.00 1.09 6.56 7.57 -0.37 -0.46 -1.00 11004
0.00 0.00 1.41 6.06 8.33 -0.45 -0.45 -1.05 11012
0.00 0.00 1.60 5.69 8.79 -0.58 -0.45 -1.06 11019
0.00 0.00 1.80 5.11 8.98 -0.72 -0.48 -1.04 11026
0.00 0.00 1.96 4.39 9.02 -0.84 -0.52 -1.01 11033
0.00 0.00 2.34 3.77 9.09 -0.95 -0.54 -0.95 11040
0.00 0.00 2.83 3.10 9.04 -1.02 -0.49 -0.85 11047
0.00 0.00 3.13 2.60 8.88 -1.09 -0.41 -0.76 11055
0.00 0.00 3.36 2.09 8.69 -1.12 -0.29 -0.63 11062
0.00 0.00 3.39 1.58 8.75 -1.13 -0.15 -0.50 11069
0.00 0.00 3.37 1.20 8.95 -1.12 -0.07 -0.39 11076
0.00 0.00 3.23 0.97 9.39 -1.11 0.01 -0.25 11083
0.00 0.00 3.08 0.89 9.78 -1.12 0.06 -0.09 11090
0.00 0.00 2.90 0.70 10.07 -1.14 0.09 0.02 11098
0.00 0.00 2.81 0.62 10.55 -1.17 0.12 0.14 11105
0.00 0.00 2.84 0.43 10.86 -1.22 0.16 0.23 11112
0.00 0.00 2.77 0.20 11.08 -1.30 0.24 0.33 11119
0.00 0.00 2.63 -0.03 11.27 -1.36 0.31 0.41 11126
0.00 0.00 2.43 -0.34 11.25 -1.42 0.38 0.47 11133
0.00 0.00 2.12 -0.83 11.09 -1.46 0.44 0.53 11141
0.00 0.00 1.92 -1.25 11.08 -1.46 0.48 0.57 11148
0.00 0.00 1.69 -1.57 11.27 -1.45 0.49 0.59 11155
0.00 0.00 1.51 -1.80 11.41 -1.44 0.50 0.59 11162
0.00 0.00 1.38 -1.92 11.41 -1.43 0.49 0.59 11169
0.00 0.00 1.35 -2.04 11.50 -1.42 0.46 0.59 11176
0.00 0.00 1.16 -2.16 11.44 -1.41 0.45 0.57 11184
0.00 0.00 1.05 -2.33 11.24 -1.40 0.41 0.54 11191
0.00 0.00 1.03 -2.69 10.68 -1.36 0.39 0.50 11198
0.00 0.00 1.05 -3.06 10.47 -1.28 0.38 0.44 11205
-0.00 0.00 0.87 -3.50 10.13 -1.15 0.36 0.36 11212
0.01 -0.00 0.69 -3.78 9.95 -1.02 0.33 0.28 11219
0.00 -0.00 0.50 -3.90 9.88 -0.85 0.29 0.21 11227
0.00 0.00 0.36 -3.85 9.99 -0.70 0.22 0.15 11234
0.00 0.00 0.40 -3.65 10.64 -0.56 0.17 0.10 11241
0.00 0.00 0.75 -3.45 11.69 -0.50 0.18 0.06 11248
-0.00 0.00 1.08 -3.00 12.47 -0.55 0.24 0.05 11255
0.00 -0.00 1.47 -2.79 12.63 -0.70 0.37 0.06 11262
0.00 0.00 1.47 -2.73 12.34 -0.87 0.49 0.08 11270
0.00 0.00 1.65 -3.20 12.20 -1.05 0.63 0.11 11277
0.00 0.00 1.36 -3.71 11.71 -1.16 0.71 0.14 11284
0.00 0.00 0.98 -4.27 10.83 -1.18 0.71 0.17 11291
0.00 0.00 0.83 -4.66 10.33 -1.13 0.64 0.19 11298
0.00 0.00 0.56 -4.98 9.93 -1.06 0.52 0.20 11305
0.00 0.00 0.27 -5.04 9.59 -0.94 0.42 0.22 11313
0.00 0.00 -0.18 -5.03 9.25 -0.82 0.31 0.25 11320
0.00 0.00 -0.74 -5.16 8.76 -0.70 0.17 0.28 11327
0.00 0.00 -0.94 -5.25 8.44 -0.54 0.03 0.30 11334
0.00 0.00 -1.25 -5.60 8.74 -0.35 -0.17 0.32 11341
0.00 0.00 -1.23 -5.67 9.41 -0.21 -0.30 0.34 11348
0.00 0.00 -0.31 -5.53 10.67 -0.13 -0.36 0.35 11356
0.00 0.00 1.03 -5.16 11.21 -0.19 -0.20 0.32 11363
0.00 0.00 1.92 -5.16 10.92 -0.37 0.09 0.29 11370
0.00 0.00 2.09 -5.43 10.20 -0.59 0.49 0.24 11377
0.00 0.00 1.71 -6.15 9.25 -0.72 0.82 0.19 11384
0.00 0.00 0.80 -7.00 8.46 -0.75 1.04 0.14 11392
0.00 0.00 0.06 -7.91 7.57 -0.67 1.11 0.09 11399
0.00 0.00 -0.19 -8.45 6.96 -0.47 1.07 0.04 11406
0.00 0.00 -0.18 -8.83 6.71 -0.26 1.00 0.01 11413
0.00 0.00 0.08 -9.02 6.87 -0.09 0.94 -0.00 11420
0.00 0.00 0.23 -9.20 7.06 0.04 0.97 -0.00 11427
0.00 0.00 -2.07 -12.90 8.25 0.17 0.84 0.02 11435
0.00 0.00 -4.42 -11.26 8.18 0.54 0.41 0.07 11442
0.00 0.00 -2.73 -10.55 5.29 0.61 0.16 0.10 11449
0.00 0.00 -3.76 -14.75 6.69 0.68 -0.29 0.12 11456
0.00 0.00 -4.69 -17.20 5.08 0.78 -0.59 0.06 11463
0.00 -0.00 -6.34 -21.13 4.21 0.98 -0.94 -0.02 11470
-0.00 0.03 -8.16 -29.75 0.92 1.24 -1.30 -0.09 11478
-0.01 0.05 -7.02 -27.79 2.60 1.89 -1.68 -0.12 11485
-0.01 0.15 -4.04 -2.52 11.10 2.68 -1.40 -0.28 11492
-0.02 0.26 -0.30 2.44 20.87 1.34 -3.34 -0.53 11500
-0.02 0.44 1.89 -1.14 9.64 -0.21 -0.40 0.01 11506
-0.01 0.50 -1.08 -2.42 11.36 -0.27 -0.23 -0.16 11514
-0.03 0.59 -0.39 -2.22 10.87 -0.09 -0.24 -0.15 11522
-0.03 0.60 0.63 -0.43 10.04 0.01 -0.09 -0.07 11528
-0.05 0.58 0.13 -1.09 9.92 0.00 -0.03 -0.05 11535
-0.05 0.60 0.08 -0.81 9.78 -0.00 0.00 -0.05 11542
-0.01 0.59 0.55 -0.52 9.83 0.01 0.03 -0.06 11549
-0.01 0.58 0.63 -0.99 9.72 0.01 0.03 -0.06 11556
-0.02 0.62 0.47 -0.81 9.73 0.01 0.01 -0.05 11564
-0.03 0.59 0.42 -0.84 9.80 0.01 0.02 -0.06 11571
-0.03 0.60 0.46 -0.90 9.79 0.01 0.03 -0.06 11578
-0.01 0.58 0.47 -0.84 9.84 0.00 0.05 -0.06 11585
-0.00 0.60 0.47 -0.77 9.80 0.00 0.05 -0.07 11592
-0.01 0.58 0.48 -0.80 9.81 0.00 0.05 -0.06 11599
-0.01 0.55 0.52 -0.76 9.75 0.00 0.04 -0.06 11607
-0.02 0.55 0.51 -0.78 9.74 0.01 0.04 -0.06 11614
-0.02 0.54 0.42 -0.83 9.77 0.01 0.04 -0.07 11621
-0.01 0.54 0.44 -0.77 9.95 0.01 0.03 -0.07 11628
-0.01 0.54 0.40 -0.79 9.80 0.01 0.04 -0.07 11635
0.02 0.55 0.39 -0.78 9.81 0.01 0.05 -0.06 11642
0.03 0.52 0.40 -0.79 9.81 0.01 0.05 -0.06 11650
0.03 0.51 0.43 -0.78 9.81 0.01 0.06 -0.06 11657
0.04 0.51 0.45 -0.78 9.82 0.01 0.06 -0.06 11664
0.04 0.50 0.47 -0.80 9.78 0.00 0.07 -0.06 11671
0.04 0.48 0.47 -0.77 9.80 0.01 0.07 -0.06 11678
0.03 0.46 0.48 -0.80 9.77 0.01 0.07 -0.06 11685
0.02 0.46 0.42 -0.80 9.76 0.01 0.06 -0.06 11693
0.02 0.45 0.47 -0.81 9.77 0.00 0.07 -0.07 11700
0.01 0.44 0.49 -0.83 9.79 0.00 0.06 -0.06 11707
0.02 0.45 0.46 -0.81 9.81 0.00 0.06 -0.06 11714
0.03 0.45 0.48 -0.78 9.77 0.00 0.06 -0.10 11721
0.02 0.44 0.50 -0.77 9.80 0.00 0.06 -0.06 11728
0.03 0.42 0.47 -0.76 9.80 0.00 0.06 -0.06 11736
0.01 0.43 0.48 -0.76 9.75 0.01 0.06 -0.06 11743
0.02 0.39 0.45 -0.78 9.72 0.01 0.06 -0.06 11750
0.02 0.38 0.47 -0.77 9.77 0.00 0.06 -0.07 11757
0.03 0.36 0.50 -0.80 9.75 0.01 0.06 -0.06 11764
0.03 0.37 0.49 -0.78 9.77 0.01 0.06 -0.06 11771
0.03 0.34 0.49 -0.81 9.75 0.01 0.06 -0.06 11779
0.02 0.34 0.52 -0.82 9.76 0.01 0.05 -0.06 11786
0.03 0.34 0.48 -0.81 9.79 0.01 0.05 -0.06 11793
0.04 0.28 0.50 -0.84 9.74 0.01 0.06 -0.06 11800
0.03 0.28 0.49 -0.80 9.76 0.01 0.05 -0.06 11807
0.02 0.31 0.48 -0.83 9.77 0.00 0.05 -0.06 11814
0.03 0.29 0.52 -0.81 9.75 0.00 0.04 -0.06 11822
0.03 0.30 0.51 -0.82 9.72 0.00 0.04 -0.06 11829
0.03 0.33 0.48 -0.79 9.77 0.00 0.04 -0.06 11836
0.04 0.31 0.51 -0.82 9.78 0.00 0.05 -0.06 11843
0.03 0.31 0.49 -0.83 9.75 0.00 0.04 -0.06 11850
0.04 0.31 0.48 -0.80 9.77 0.00 0.04 -0.06 11857
0.04 0.27 0.49 -0.82 9.75 0.00 0.04 -0.06 11865
0.04 0.28 0.49 -0.82 9.73 0.00 0.03 -0.06 11872
0.06 0.29 0.53 -0.80 9.75 -0.00 0.03 -0.06 11879
0.07 0.29 0.51 -0.80 9.75 -0.00 0.03 -0.06 11886
0.06 0.29 0.50 -0.84 9.72 -0.00 0.03 -0.06 11893
0.04 0.29 0.49 -0.84 9.76 0.00 0.03 -0.06 11900
0.04 0.29 0.48 -0.79 9.79 -0.00 0.03 -0.06 11908
0.05 0.29 0.50 -0.79 9.81 0.00 0.03 -0.06 11915
0.05 0.30 0.49 -0.81 9.81 -0.00 0.04 -0.06 11922
0.06 0.29 0.51 -0.81 9.80 -0.00 0.04 -0.06 11929
0.05 0.27 0.49 -0.83 9.76 -0.00 0.04 -0.07 11936
0.05 0.27 0.46 -0.83 9.80 -0.00 0.03 -0.07 11943
0.04 0.28 0.51 -0.83 9.76 -0.01 0.03 -0.07 11951
0.05 0.27 0.47 -0.82 9.78 -0.01 0.07 -0.07 11958
0.04 0.29 0.48 -0.81 9.78 -0.01 0.04 -0.07 11965
0.06 0.27 0.46 -0.84 9.76 -0.01 0.04 -0.06 11972
0.05 0.28 0.52 -0.81 9.74 -0.01 0.04 -0.06 11979
0.05 0.28 0.48 -0.83 9.75 -0.01 0.04 -0.06 11986
0.04 0.29 0.47 -0.81 9.77 -0.00 0.05 -0.07 11994
0.05 0.29 0.47 -0.81 9.72 -0.01 0.05 -0.06 12001
0.04 0.28 0.46 -0.83 9.69 -0.00 0.06 -0.07 12008
0.04 0.28 0.46 -0.80 9.75 0.00 0.06 -0.07 12015
0.03 0.28 0.52 -0.83 9.77 0.00 0.06 -0.07 12022
0.03 0.25 0.46 -0.79 9.76 0.01 0.06 -0.07 12029
0.03 0.25 0.51 -0.81 9.76 0.01 0.06 -0.07 12037
0.04 0.21 0.49 -0.83 9.79 0.01 0.06 -0.07 12044
0.05 0.22 0.52 -0.79 9.79 0.01 0.07 -0.07 12051
0.04 0.18 0.53 -0.79 9.80 0.02 0.07 -0.07 12058
0.04 0.19 0.50 -0.82 9.80 0.02 0.07 -0.07 12065
0.04 0.19 0.50 -0.84 9.83 0.02 0.07 -0.07 12072
0.05 0.14 0.52 -0.82 9.83 0.02 0.07 -0.07 12080
0.06 0.18 0.53 -0.84 9.80 0.03 0.08 -0.07 12087
0.09 0.10 0.56 -0.84 9.81 0.02 0.08 -0.07 12094
0.08 0.05 0.57 -0.86 9.80 0.03 0.08 -0.07 12101
0.07 0.07 0.54 -0.87 9.80 0.03 0.09 -0.07 12108
0.05 0.06 0.56 -0.86 9.81 0.03 0.09 -0.07 12115
0.06 0.02 0.56 -0.86 9.85 0.04 0.10 -0.07 12123
0.07 0.02 0.57 -0.85 9.82 0.05 0.11 -0.07 12130
0.08 0.02 0.59 -0.87 9.90 0.07 0.13 -0.07 12137
0.06 -0.01 0.59 -0.91 9.85 0.10 0.14 -0.06 12144
0.05 -0.00 0.71 -0.85 9.93 0.14 0.16 -0.06 12151
0.05 -0.01 0.58 -0.83 10.19 0.19 0.18 -0.06 12158
0.06 -0.01 0.72 -0.89 11.02 0.28 0.20 -0.07 12166
0.06 -0.01 0.86 -0.99 11.08 0.43 0.18 -0.08 12173
0.08 -0.01 1.37 -0.91 12.54 0.76 0.22 -0.17 12180
0.07 -0.01 1.48 -0.87 15.48 1.54 0.23 -0.28 12187
0.06 -0.01 1.57 -0.96 17.26 2.23 0.07 -0.39 12194
0.04 -0.00 1.29 -0.98 15.38 2.70 0.05 -0.45 12201
0.07 -0.01 0.98 -1.07 13.91 2.85 -0.05 -0.47 12209
0.07 -0.01 0.89 -1.49 13.41 2.92 -0.13 -0.45 12216
0.02 -0.00 0.83 -1.67 14.14 3.04 -0.16 -0.43 12223
0.02 0.00 1.10 -1.82 14.15 3.14 -0.06 -0.40 12230
0.01 -0.00 1.57 -2.03 14.98 3.26 0.06 -0.40 12237
0.01 -0.00 1.49 -2.19 16.12 3.33 0.26 -0.40 12244
0.00 -0.00 2.05 -2.24 17.34 3.38 0.47 -0.40 12252
0.01 -0.00 2.30 -1.63 16.93 3.38 0.59 -0.42 12259
0.01 -0.00 1.58 -0.11 16.50 3.31 0.74 -0.43 12266
0.00 0.00 0.57 1.93 15.07 3.18 0.70 -0.37 12273
0.00 0.00 -0.44 4.18 13.72 2.84 0.50 -0.35 12280
0.00 0.00 -1.20 5.94 12.56 2.46 0.26 -0.28 12288
0.00 0.00 -0.27 8.85 11.55 2.06 0.07 -0.21 12295
0.00 0.00 0.09 8.61 9.02 1.73 -0.06 -0.14 12302
0.00 0.00 0.88 12.99 9.77 1.37 -0.10 -0.16 12309
0.00 0.00 0.89 11.54 7.09 0.91 -0.14 -0.26 12316
0.00 0.00 0.46 10.52 7.57 0.65 -0.15 -0.44 12323
0.00 0.00 0.10 9.76 8.64 0.33 -0.10 -0.61 12331
0.00 0.00 -0.39 9.33 8.19 -0.01 -0.12 -0.79 12338
0.00 0.00 -0.51 8.53 7.43 -0.22 -0.22 -0.93 12345
0.00 0.00 -0.30 7.67 7.15 -0.41 -0.37 -1.01 12352
0.00 0.00 0.15 6.74 7.22 -0.54 -0.49 -1.09 12359
0.00 0.00 0.53 6.05 7.27 -0.67 -0.54 -1.15 12366
0.00 0.00 0.85 5.36 7.57 -0.79 -0.57 -1.22 12374
0.00 0.00 1.08 4.82 7.94 -0.89 -0.58 -1.29 12381
0.00 0.00 1.35 4.36 8.41 -1.02 -0.58 -1.34 12388
0.00 0.00 1.75 3.88 8.90 -1.14 -0.57 -1.37 12395
0.00 0.00 2.05 3.50 9.25 -1.29 -0.55 -1.38 12402
0.00 0.00 2.49 2.90 9.38 -1.43 -0.49 -1.37 12409
0.00 0.00 2.89 2.23 9.50 -1.54 -0.37 -1.31 12417
0.00 0.00 3.08 1.55 9.68 -1.65 -0.29 -1.23 12424
0.00 0.00 3.13 0.93 9.80 -1.72 -0.18 -1.11 12431
0.00 0.00 3.12 0.37 9.84 -1.76 -0.10 -0.92 12438
0.00 0.00 3.14 -0.12 9.87 -1.77 -0.02 -0.76 12445
0.00 0.00 3.10 -0.47 9.94 -1.76 0.05 -0.54 12452
0.00 0.00 3.10 -0.73 10.11 -1.73 0.11 -0.34 12460
0.00 0.00 3.17 -0.92 10.47 -1.71 0.18 -0.12 12467
0.00 0.00 3.22 -1.15 11.02 -1.69 0.26 0.09 12474
0.00 0.00 3.19 -1.34 11.32 -1.70 0.36 0.26 12481
0.00 0.00 2.92 -1.47 11.57 -1.71 0.46 0.43 12488
0.00 0.00 2.71 -1.83 11.69 -1.74 0.54 0.57 12495
0.00 0.00 2.24 -2.19 11.77 -1.75 0.60 0.69 12503
0.00 0.00 1.28 -2.63 11.88 -1.75 0.62 0.78 12510
0.00 0.00 1.56 -2.99 11.88 -1.73 0.63 0.84 12517
0.00 0.00 1.25 -3.41 11.78 -1.71 0.62 0.87 12524
0.00 0.00 1.06 -3.63 11.73 -1.68 0.59 0.86 12531
0.00 0.00 0.91 -3.90 11.58 -1.62 0.57 0.82 12538
-0.00 0.00 0.78 -4.15 11.68 -1.57 0.55 0.76 12546
0.00 0.00 0.64 -4.29 11.68 -1.51 0.52 0.70 12553
0.00 0.00 0.62 -4.39 11.68 -1.46 0.50 0.61 12560
0.00 0.00 0.62 -4.52 11.48 -1.40 0.47 0.51 12567
0.00 0.00 0.72 -4.61 11.22 -1.33 0.47 0.44 12574
0.00 -0.00 0.83 -4.84 11.12 -1.26 0.48 0.36 12581
0.00 0.00 0.96 -4.94 11.06 -1.16 0.49 0.30 12589
0.00 0.00 0.86 -5.01 11.14 -1.08 0.52 0.26 12596
0.00 0.00 0.81 -5.03 11.30 -1.01 0.54 0.22 12603
0.00 0.00 0.59 -5.16 11.62 -0.98 0.55 0.20 12610
0.00 0.00 0.44 -5.30 11.51 -0.97 0.55 0.19 12617
0.00 0.00 0.35 -5.34 11.19 -0.96 0.53 0.19 12624
0.00 0.00 0.16 -5.57 11.01 -0.95 0.49 0.19 12632
0.00 0.00 0.17 -5.78 10.58 -0.91 0.47 0.21 12639
0.00 0.00 0.23 -5.89 10.22 -0.83 0.48 0.22 12646
0.00 0.00 0.24 -5.90 9.73 -0.71 0.51 0.23 12653
0.00 0.00 0.08 -5.93 9.40 -0.63 0.55 0.26 12660
0.00 0.00 -0.12 -5.84 9.28 -0.51 0.60 0.29 12667
0.00 0.00 -0.44 -5.73 9.36 -0.43 0.64 0.33 12675
0.00 0.00 -0.76 -5.65 9.46 -0.34 0.62 0.38 12682
0.00 0.00 -1.00 -5.69 9.74 -0.30 0.55 0.43 12689
0.00 0.00 -1.13 -5.65 9.98 -0.27 0.45 0.47 12696
0.00 0.00 -1.08 -5.70 10.08 -0.30 0.31 0.51 12703
0.00 0.00 -0.72 -5.70 10.33 -0.35 0.21 0.55 12710
0.00 0.00 -0.30 -5.63 10.42 -0.47 0.16 0.56 12718
0.00 0.00 0.05 -5.58 10.10 -0.63 0.14 0.57 12725
0.00 0.00 0.10 -5.67 9.66 -0.75 0.13 0.56 12732
0.00 0.00 0.21 -5.95 9.02 -0.84 0.13 0.53 12739
0.00 0.00 0.36 -6.41 8.27 -0.84 0.14 0.48 12746
0.00 0.00 0.57 -6.77 7.58 -0.77 0.20 0.43 12753
0.00 -0.00 0.69 -7.09 7.18 -0.62 0.29 0.34 12761
0.00 0.00 0.80 -7.34 6.99 -0.46 0.38 0.24 12768
0.00 0.00 0.94 -7.43 6.87 -0.29 0.52 0.15 12775
0.00 0.00 0.95 -7.36 6.86 -0.16 0.69 0.04 12782
0.00 0.00 0.67 -7.22 6.90 -0.06 0.83 -0.07 12789
0.00 0.00 0.34 -7.22 6.77 0.01 0.97 -0.11 12796
0.00 0.00 -0.14 -7.40 6.60 0.06 1.07 -0.16 12804
0.00 0.00 -6.35 -17.08 16.08 0.38 0.65 -0.17 12811
0.00 0.00 -3.40 -11.21 6.03 1.12 0.07 -0.17 12818
0.00 0.00 -2.55 -9.20 0.33 1.16 -0.17 -0.22 12825
0.00 0.00 -3.14 -14.95 3.22 1.27 -0.48 -0.25 12832
-0.00 0.00 -6.58 -22.27 7.29 1.56 -1.05 -0.35 12839
0.00 0.04 -6.01 -21.33 3.74 1.79 -1.48 -0.53 12848
-0.01 0.06 -1.03 2.59 5.75 2.26 -1.78 -0.69 12854
-0.01 0.19 0.74 -6.75 54.52 2.64 -4.18 -0.82 12862
-0.03 0.25 3.41 -5.19 17.57 0.28 -1.79 -0.16 12868
-0.02 0.38 -0.01 -1.38 11.49 -0.21 -0.18 -0.06 12876
-0.02 0.56 -0.83 -2.74 11.74 -0.15 -0.18 -0.09 12883
-0.02 0.52 0.34 -1.06 10.33 -0.04 -0.13 -0.06 12891
-0.02 0.59 0.22 -0.41 10.11 -0.01 -0.01 -0.02 12897
-0.03 0.61 -0.09 -1.10 9.87 -0.03 0.06 -0.03 12904
-0.04 0.60 0.46 -0.64 9.79 -0.03 0.11 -0.02 12911
-0.04 0.64 1.22 -0.76 9.81 -0.03 0.14 -0.02 12918
-0.03 0.66 0.56 -0.85 9.74 -0.03 0.12 -0.02 12925
-0.04 0.65 0.55 -0.80 9.81 -0.02 0.11 -0.02 12933
-0.04 0.71 0.57 -0.80 9.78 -0.03 0.10 -0.03 12940
-0.05 0.66 0.56 -0.72 9.81 -0.02 0.09 -0.03 12947
-0.05 0.69 0.58 -0.73 9.75 -0.02 0.08 -0.03 12954
-0.04 0.67 0.53 -0.71 9.79 -0.02 0.07 -0.04 12961
-0.04 0.69 0.54 -0.74 9.76 -0.02 0.07 -0.03 12968
-0.05 0.68 0.63 -0.71 9.74 -0.02 0.07 -0.04 12976
-0.05 0.68 0.61 -0.66 9.77 -0.01 0.06 -0.04 12983
-0.06 0.67 0.62 -0.69 9.75 -0.00 0.06 -0.04 12990
-0.05 0.65 0.56 -0.70 9.72 -0.00 0.05 -0.05 12997
-0.05 0.67 0.57 -0.70 9.71 0.00 0.05 -0.05 13004
-0.03 0.63 0.57 -0.73 9.67 0.00 0.05 -0.05 13011
-0.05 0.62 0.53 -0.74 9.76 0.01 0.04 -0.04 13019
-0.04 0.59 0.54 -0.70 9.74 0.01 0.03 -0.04 13026
-0.05 0.60 0.53 -0.70 9.74 0.01 0.04 -0.04 13033
-0.05 0.60 0.49 -0.71 9.76 0.00 0.04 -0.04 13040
-0.05 0.60 0.49 -0.74 9.78 0.00 0.03 -0.04 13047
-0.04 0.59 0.51 -0.74 9.78 0.00 0.03 -0.04 13054
-0.04 0.58 0.48 -0.74 9.75 -0.00 0.04 -0.04 13062
-0.04 0.55 0.53 -0.74 9.80 -0.00 0.05 -0.04 13069
-0.05 0.55 0.53 -0.71 9.78 -0.00 0.06 -0.04 13076
-0.04 0.55 0.55 -0.74 9.73 -0.00 0.07 -0.04 13083
-0.03 0.54 0.55 -0.71 9.74 -0.00 0.07 -0.05 13090
-0.03 0.54 0.55 -0.71 9.71 0.03 0.07 -0.05 13097
-0.03 0.52 0.56 -0.70 9.74 0.00 0.07 -0.05 13105
-0.03 0.51 0.53 -0.71 9.77 0.01 0.07 -0.05 13112
-0.04 0.50 0.52 -0.73 9.74 0.01 0.07 -0.05 13119
-0.02 0.52 0.59 -0.74 9.74 0.01 0.07 -0.05 13126
-0.02 0.52 0.56 -0.71 9.80 0.01 0.07 -0.05 13133
-0.02 0.50 0.56 -0.74 9.77 0.01 0.07 -0.05 13140
-0.02 0.49 0.57 -0.74 9.73 0.02 0.06 -0.04 13148
-0.02 0.48 0.63 -0.73 9.75 0.02 0.06 -0.04 13155
-0.01 0.45 0.63 -0.73 9.75 0.02 0.06 -0.05 13162
-0.00 0.40 0.59 -0.71 9.75 0.03 0.05 -0.04 13169
0.01 0.38 1.21 -0.76 9.76 0.02 0.04 -0.05 13176
-0.01 0.36 0.61 -0.74 9.73 0.02 0.04 -0.05 13184
-0.02 0.33 0.60 -0.74 9.77 0.02 0.03 -0.05 13191
-0.03 0.35 0.56 -0.80 9.76 0.02 0.04 -0.05 13198
-0.02 0.34 0.58 -0.79 9.80 0.02 0.04 -0.05 13205
-0.01 0.33 0.57 -0.81 9.77 0.01 0.05 -0.05 13212
0.01 0.30 0.55 -0.80 9.77 0.01 0.05 -0.05 13219
0.01 0.31 0.59 -0.75 9.73 0.01 0.05 -0.05 13227
0.01 0.28 0.59 -0.75 9.79 0.01 0.05 -0.05 13234
0.00 0.29 0.57 -0.74 9.80 0.01 0.05 -0.05 13241
0.01 0.28 0.60 -0.79 9.73 0.01 0.04 -0.05 13248
0.01 0.30 0.60 -0.73 9.76 0.01 0.04 -0.05 13255
0.02 0.36 0.60 -0.77 9.74 0.01 0.04 -0.05 13262
0.03 0.33 0.58 -0.77 9.73 0.01 0.04 -0.05 13270
0.02 0.29 0.61 -0.77 9.76 0.01 0.04 -0.05 13277
0.02 0.37 0.62 -0.77 9.78 0.01 0.04 -0.05 13284
0.02 0.37 0.61 -0.79 9.78 0.01 0.04 -0.05 13291
0.03 0.33 0.63 -0.77 9.77 0.01 0.04 -0.06 13298
0.03 0.29 0.61 -0.80 9.76 0.01 0.04 -0.06 13305
0.02 0.29 0.61 -0.77 9.75 0.01 0.04 -0.06 13313
0.03 0.25 0.59 -0.79 9.76 0.00 0.04 -0.05 13320
0.02 0.21 0.64 -0.79 9.71 0.00 0.04 -0.05 13327
0.02 0.24 0.60 -0.78 9.78 0.00 0.04 -0.06 13334
0.03 0.25 0.65 -0.78 9.78 -0.00 0.03 -0.06 13341
0.03 0.25 0.60 -0.79 9.73 -0.00 0.03 -0.06 13348
0.02 0.27 0.59 -0.75 9.72 -0.01 0.02 -0.06 13356
0.02 0.28 0.60 -0.81 9.75 -0.00 0.03 -0.06 13363
0.02 0.28 0.61 -0.79 9.74 -0.00 0.04 -0.06 13370
0.02 0.28 0.56 -0.79 9.74 -0.00 0.05 -0.06 13377
0.03 0.27 0.59 -0.82 9.70 -0.00 0.05 -0.06 13384
0.03 0.26 0.60 -0.77 9.73 -0.00 0.06 -0.06 13391
0.03 0.26 0.59 -0.79 9.77 -0.00 0.06 -0.07 13399
0.02 0.28 0.60 -0.80 9.70 -0.00 0.06 -0.06 13406
0.02 0.27 0.61 -0.80 9.72 -0.00 0.06 -0.07 13413
0.02 0.26 0.63 -0.80 9.77 -0.00 0.06 -0.06 13420
0.04 0.26 0.61 -0.78 9.74 -0.00 0.06 -0.06 13427
0.03 0.21 0.60 -0.81 9.78 0.00 0.07 -0.06 13434
0.03 0.22 0.63 -0.82 9.78 0.00 0.06 -0.07 13442
0.01 0.22 0.63 -0.78 9.78 0.00 0.06 -0.07 13449
0.03 0.21 0.64 -0.77 9.72 0.01 0.06 -0.07 13456
0.03 0.20 0.68 -0.75 9.78 0.02 0.06 -0.07 13463
0.04 0.18 0.65 -0.74 9.77 0.02 0.06 -0.07 13470
0.04 0.08 0.65 -0.77 9.20 0.02 0.06 -0.08 13477
0.04 0.07 0.65 -0.78 9.80 0.03 0.06 -0.08 13485
0.03 0.05 0.59 -0.77 9.79 0.03 0.06 -0.08 13492
0.05 0.05 0.62 -0.78 9.81 0.03 0.06 -0.07 13499
0.05 0.02 0.67 -0.83 9.82 0.04 0.06 -0.07 13506
0.06 -0.00 0.61 -0.77 9.88 0.05 0.06 -0.07 13513
0.05 0.00 0.68 -0.85 9.91 0.09 0.08 -0.07 13520
0.06 -0.01 0.72 -0.84 9.98 0.11 0.09 -0.07 13528
0.05 -0.00 0.71 -0.88 10.00 0.15 0.12 -0.07 13535
0.05 0.00 0.74 -0.89 10.17 0.21 0.16 -0.07 13542
0.06 -0.01 0.66 -0.93 10.37 0.28 0.18 -0.07 13549
0.04 -0.00 0.80 -1.03 10.66 0.41 0.20 -0.08 13556
0.04 0.00 0.89 -0.94 11.56 0.65 0.23 -0.12 13563
0.04 0.00 0.95 -1.08 13.04 1.12 0.29 -0.15 13571
0.04 -0.00 1.11 -1.22 14.61 1.68 0.31 -0.20 13578
0.05 -0.01 0.88 -1.60 15.48 2.19 0.27 -0.24 13585
0.07 -0.01 0.83 -1.19 14.30 2.45 0.23 -0.26 13592
0.05 -0.01 0.91 -1.28 13.84 2.59 0.14 -0.26 13599
0.06 -0.01 1.03 -1.42 13.96 2.71 0.12 -0.26 13606
0.00 -0.00 1.24 -1.46 14.25 2.84 0.13 -0.27 13614
0.01 -0.00 1.43 -1.57 14.29 2.99 0.18 -0.28 13621
0.02 -0.00 1.75 -1.90 14.22 3.12 0.23 -0.30 13628
0.02 -0.00 2.29 -2.28 14.92 3.22 0.35 -0.35 13635
0.01 -0.00 2.38 -2.64 15.53 3.27 0.44 -0.38 13642
0.01 -0.00 2.71 -2.55 16.80 3.31 0.60 -0.40 13649
0.00 0.00 2.81 -1.80 17.18 3.29 0.75 -0.44 13657
0.00 0.00 2.31 0.51 16.54 3.19 0.89 -0.47 13664
0.00 0.00 1.09 2.75 15.34 3.00 0.84 -0.46 13671
0.00 0.00 0.36 4.50 13.52 2.62 0.66 -0.45 13678
0.00 0.00 -0.18 7.37 12.74 2.27 0.39 -0.43 13685
0.00 0.00 -0.56 9.36 10.65 2.00 0.20 -0.38 13692
0.00 0.00 -0.51 12.35 10.82 1.57 -0.02 -0.37 13700
0.00 0.00 -0.26 11.17 9.75 1.20 -0.23 -0.42 13707
0.00 0.00 0.14 13.21 9.82 0.83 -0.31 -0.52 13714
0.00 0.00 0.40 11.49 8.29 0.48 -0.32 -0.65 13721
0.00 0.00 0.14 11.70 8.64 0.15 -0.30 -0.77 13728
0.00 0.00 0.10 11.20 7.80 -0.16 -0.30 -0.87 13735
0.00 0.00 -0.02 10.10 7.07 -0.35 -0.36 -0.98 13743
0.00 0.00 0.07 9.35 7.09 -0.56 -0.42 -1.05 13750
0.00 0.00 0.49 8.57 7.23 -0.75 -0.47 -1.13 13757
0.00 0.00 0.69 7.74 7.39 -0.91 -0.50 -1.21 13764
0.00 0.00 0.96 6.99 7.54 -1.09 -0.51 -1.27 13771
0.00 0.00 1.20 6.23 7.98 -1.26 -0.51 -1.32 13778
0.00 0.00 1.40 5.02 7.98 -1.40 -0.49 -1.36 13786
0.00 0.00 1.71 4.79 8.50 -1.57 -0.47 -1.39 13793
0.01 -0.00 2.00 4.03 8.83 -1.69 -0.43 -1.40 13800
0.00 0.00 2.25 3.39 9.05 -1.81 -0.37 -1.39 13807
0.00 0.00 2.55 2.58 9.38 -1.90 -0.29 -1.34 13814
0.00 0.00 2.61 1.84 9.64 -1.96 -0.20 -1.25 13821
0.00 0.00 2.73 1.25 10.03 -2.01 -0.10 -1.16 13829
-0.00 0.00 2.83 0.57 10.50 -2.04 -0.01 -1.02 13836
0.00 0.00 2.92 0.10 11.00 -2.05 0.05 -0.88 13843
0.00 0.00 2.87 -0.43 11.47 -2.08 0.10 -0.69 13850
0.00 0.00 2.91 -0.93 11.79 -2.09 0.13 -0.49 13857
0.00 0.00 2.95 -1.32 11.80 -2.09 0.17 -0.33 13864
0.00 0.00 2.89 -1.89 11.91 -2.07 0.22 -0.15 13872
0.00 0.00 2.76 -3.01 11.95 -2.01 0.29 0.02 13879
0.00 0.00 2.37 -2.86 11.91 -1.93 0.36 0.13 13886
0.00 0.00 1.94 -3.40 11.77 -1.84 0.43 0.25 13893
0.00 0.00 1.48 -3.74 11.75 -1.73 0.39 0.35 13900
0.00 0.00 1.19 -3.81 11.92 -1.62 0.35 0.44 13907
0.00 0.00 1.16 -3.91 11.95 -1.51 0.32 0.51 13915
0.00 0.00 1.33 -3.85 12.05 -1.42 0.32 0.56 13922
0.00 0.00 1.79 -3.76 12.26 -1.38 0.42 0.59 13929
0.00 0.00 2.12 -3.74 12.51 -1.36 0.57 0.61 13936
0.00 0.00 2.07 -3.91 12.59 -1.38 0.79 0.62 13943
0.00 0.00 1.61 -4.23 12.56 -1.39 0.95 0.61 13950
0.00 0.00 0.93 -4.57 12.40 -1.38 1.04 0.60 13958
0.00 -0.00 0.32 -4.86 12.15 -1.35 1.01 0.58 13965
0.00 0.00 0.06 -5.07 11.87 -1.30 0.92 0.55 13972
0.00 0.00 0.11 -5.12 11.69 -1.24 0.78 0.53 13979
0.00 0.00 0.39 -5.19 11.43 -1.19 0.69 0.50 13986
0.00 0.00 0.69 -5.22 11.11 -1.13 0.62 0.48 13993
0.00 0.00 0.71 -5.27 10.77 -1.06 0.58 0.48 14001
0.00 0.00 0.48 -5.36 10.46 -0.97 0.52 0.49 14008
0.00 0.00 0.17 -5.49 10.34 -0.86 0.45 0.53 14015
0.00 0.00 -0.22 -5.46 10.09 -0.74 0.30 0.57 14022
0.00 0.00 -0.18 -5.39 10.77 -0.63 0.21 0.63 14029
0.00 0.00 0.56 -5.07 11.84 -0.59 0.19 0.69 14036
0.00 0.00 1.15 -4.84 12.07 -0.64 0.27 0.77 14044
0.00 0.00 1.30 -4.91 12.04 -0.77 0.42 0.83 14051
0.00 0.00 1.20 -5.22 11.51 -0.92 0.55 0.91 14058
0.00 0.00 0.81 -5.49 10.44 -1.06 0.60 0.94 14065
0.00 0.00 0.17 -6.04 10.21 -1.11 0.56 0.96 14072
0.00 0.00 -0.26 -6.73 9.36 -1.07 0.46 0.94 14080
0.00 0.00 -0.68 -7.30 8.54 -0.96 0.29 0.90 14087
0.00 0.00 -0.76 -7.82 7.80 -0.83 0.11 0.83 14094
0.00 0.00 -0.55 -8.06 7.33 -0.66 -0.01 0.76 14101
0.00 0.00 -0.39 -8.38 7.12 -0.49 -0.09 0.67 14108
0.00 0.00 -0.23 -8.55 6.99 -0.33 -0.09 0.59 14115
0.00 0.00 -0.27 -8.91 6.93 -0.16 -0.04 0.52 14123
0.00 0.00 0.28 -9.32 7.10 -0.00 0.04 0.43 14130
0.00 0.00 1.01 -9.36 7.41 0.05 0.19 0.30 14137
0.00 0.00 1.54 -9.48 7.51 0.08 0.44 0.21 14144
0.00 0.00 1.39 -9.58 7.19 0.05 0.76 0.09 14151
0.00 0.00 0.86 -9.60 7.01 0.01 0.97 -0.01 14158
0.00 0.00 0.00 -9.52 6.94 -0.03 1.14 -0.11 14166
0.00 0.00 -0.89 -9.49 6.71 -0.07 1.21 -0.20 14173
0.00 0.00 -4.16 -15.19 5.92 -0.03 1.03 -0.25 14180
0.00 0.00 -4.56 -11.98 9.68 1.14 0.28 -0.23 14187
0.00 0.00 -3.41 -11.59 -2.45 0.98 0.00 -0.32 14194
0.00 0.00 -3.89 -17.85 -0.46 1.34 -0.69 -0.42 14201
-0.00 0.03 -6.20 -25.61 2.97 1.66 -1.23 -0.57 14209
0.00 0.07 -1.70 -4.80 2.86 2.20 -1.58 -0.73 14216
-0.02 0.20 0.05 -4.77 12.63 3.21 -1.37 -0.84 14223
-0.03 0.39 5.97 -6.36 70.88 3.97 -3.10 -0.86 14231
-0.04 0.44 2.70 -2.47 23.42 0.40 -1.71 -0.18 14237
-0.03 0.53 -1.33 -5.92 13.11 -0.05 -0.22 -0.07 14245
-0.03 0.63 -1.21 -4.16 12.24 -0.11 -0.34 -0.09 14253
-0.03 0.72 0.58 0.04 10.10 -0.03 -0.14 -0.03 14259
-0.04 0.78 0.34 -1.15 9.83 -0.00 -0.01 -0.06 14266
-0.04 0.81 0.16 -1.00 9.71 -0.02 0.03 -0.05 14273
-0.05 0.79 0.53 -0.85 9.80 -0.02 0.08 -0.04 14280
-0.04 0.75 0.62 -1.01 9.81 -0.01 0.09 -0.04 14287
-0.04 0.75 0.53 -0.91 9.80 -0.01 0.10 -0.04 14295
-0.02 0.75 0.55 -0.89 9.78 -0.01 0.13 -0.04 14302
-0.03 0.75 0.56 -0.89 9.80 -0.02 0.10 -0.04 14309
-0.04 0.72 0.64 -0.88 9.82 -0.01 0.10 -0.04 14316
-0.05 0.75 0.60 -0.86 9.80 -0.01 0.09 -0.05 14323
-0.03 0.73 0.64 -0.87 9.72 -0.00 0.08 -0.05 14330
-0.04 0.72 0.62 -0.81 9.70 -0.00 0.07 -0.05 14338
-0.02 0.68 0.65 -0.83 9.75 -0.00 0.06 -0.05 14345
-0.02 0.64 0.57 -0.82 9.67 0.00 0.05 -0.06 14352
-0.03 0.62 0.63 -0.77 9.75 0.00 0.06 -0.06 14359
-0.04 0.60 0.58 -0.76 9.71 0.00 0.05 -0.06 14366
-0.03 0.59 0.62 -0.81 9.74 0.00 0.05 -0.06 14373
-0.02 0.59 0.61 -0.81 9.76 0.01 0.04 -0.06 14381
-0.03 0.57 0.54 -0.86 9.74 0.01 0.04 -0.06 14388
-0.03 0.57 0.55 -0.82 9.76 0.01 0.04 -0.06 14395
-0.02 0.54 0.58 -0.85 9.76 0.00 0.04 -0.06 14402
-0.03 0.54 0.59 -0.82 9.76 0.01 0.04 -0.05 14409
-0.03 0.54 0.60 -0.82 9.76 0.00 0.04 -0.06 14416
-0.01 0.54 0.60 -0.85 9.80 -0.00 0.05 -0.05 14424
-0.01 0.52 0.63 -0.88 9.81 -0.00 0.05 -0.05 14431
-0.01 0.51 0.62 -0.85 9.75 -0.00 0.05 -0.05 14438
-0.01 0.51 0.63 -0.84 9.71 0.00 0.05 -0.06 14445
-0.01 0.51 0.63 -0.84 9.78 -0.00 0.04 -0.06 14452
-0.01 0.52 0.57 -0.87 9.77 -0.01 0.04 -0.06 14459
0.01 0.51 0.63 -0.82 9.75 -0.01 0.04 -0.06 14467
-0.00 0.52 0.61 -0.85 9.78 -0.01 0.04 -0.05 14474
-0.01 0.52 0.61 -0.86 9.76 -0.01 0.04 -0.06 14481
-0.02 0.53 0.59 -0.85 9.74 -0.01 0.04 -0.05 14488
-0.02 0.53 0.57 -0.85 9.79 -0.01 0.05 -0.05 14495
-0.01 0.54 0.60 -0.83 9.75 -0.01 0.05 -0.05 14502
0.00 0.53 0.63 -0.80 9.76 -0.01 0.04 -0.05 14510
-0.01 0.54 0.58 -0.80 9.76 -0.00 0.04 -0.05 14517
-0.01 0.53 0.60 -0.83 9.72 -0.00 0.04 -0.04 14524
-0.03 0.54 0.63 -0.86 9.74 -0.00 0.05 -0.04 14531
-0.02 0.54 0.60 -0.84 9.69 0.00 0.04 -0.04 14538
-0.00 0.55 0.58 -0.83 9.77 0.00 0.04 -0.05 14545
-0.01 0.53 0.59 -0.83 9.76 0.00 0.04 -0.05 14553
-0.01 0.54 0.63 -0.83 9.73 0.00 0.04 -0.05 14560
-0.01 0.51 0.59 -0.85 9.76 -0.00 0.04 -0.05 14567
-0.02 0.54 0.62 -0.83 9.75 0.00 0.04 -0.05 14574
-0.01 0.54 0.61 -0.86 9.74 -0.00 0.04 -0.05 14581
-0.00 0.54 0.59 -0.86 9.79 0.00 0.04 -0.05 14588
-0.00 0.53 0.63 -0.86 9.74 -0.00 0.03 -0.05 14596
-0.01 0.50 0.59 -0.84 9.76 0.00 0.04 -0.05 14603
-0.01 0.47 0.59 -0.81 9.75 0.00 0.04 -0.05 14610
-0.01 0.43 1.21 -0.84 9.71 0.01 0.04 -0.05 14617
-0.00 0.46 0.63 -0.83 9.75 0.01 0.04 -0.05 14624
0.01 0.44 0.60 -0.82 9.79 0.01 0.04 -0.05 14631
-0.01 0.44 0.63 -0.85 9.75 0.01 0.04 -0.05 14639
0.00 0.40 0.60 -0.85 9.72 0.01 0.04 -0.05 14646
0.00 0.36 0.61 -0.88 9.79 0.02 0.04 -0.06 14653
0.01 0.41 0.58 -0.87 9.74 0.01 0.04 -0.05 14660
0.00 0.40 0.58 -0.88 9.74 0.01 0.05 -0.06 14667
0.03 0.35 0.62 -0.87 9.78 0.01 0.05 -0.06 14674
0.01 0.36 0.59 -0.86 9.75 0.02 0.05 -0.06 14682
0.01 0.36 0.64 -0.85 9.76 0.02 0.05 -0.06 14689
-0.00 0.34 0.63 -0.86 9.75 0.02 0.05 -0.06 14696
0.01 0.32 0.64 -0.87 9.76 0.02 0.05 -0.06 14703
0.01 0.33 0.62 -0.88 9.71 0.02 0.05 -0.07 14710
0.02 0.30 0.60 -0.86 9.71 0.02 0.05 -0.06 14717
0.02 0.30 0.62 -0.85 9.73 0.02 0.06 -0.06 14725
0.01 0.32 0.59 -0.88 9.74 0.02 0.07 -0.06 14732
0.01 0.30 0.58 -0.86 9.74 0.01 0.07 -0.06 14739
0.02 0.30 0.64 -0.88 9.80 0.02 0.08 -0.07 14746
0.03 0.29 0.64 -0.88 9.76 0.02 0.08 -0.06 14753
0.03 0.27 0.67 -0.90 9.76 0.02 0.07 -0.07 14760
0.02 0.24 0.66 -0.85 9.73 0.02 0.07 -0.07 14768
0.03 0.24 0.65 -0.88 9.73 0.01 0.07 -0.07 14775
0.02 0.21 0.67 -0.90 9.76 0.02 0.06 -0.07 14782
0.03 0.20 0.63 -0.91 9.75 0.02 0.06 -0.07 14789
0.05 0.25 0.69 -0.91 9.76 0.02 0.05 -0.06 14796
0.05 0.17 0.68 -0.88 9.82 0.01 0.05 -0.06 14803
0.04 0.20 0.68 -0.88 9.81 0.02 0.04 -0.07 14811
0.03 0.17 0.69 -0.91 9.76 0.01 0.04 -0.06 14818
0.05 0.15 0.70 -0.91 9.81 0.02 0.03 -0.07 14825
0.06 0.13 0.68 -0.91 9.78 0.02 0.03 -0.07 14832
0.08 0.09 0.69 -0.88 9.80 0.02 0.03 -0.07 14839
0.08 0.04 0.67 -0.88 9.82 0.02 0.04 -0.08 14846
0.08 0.07 0.63 -0.91 9.75 0.02 0.04 -0.07 14854
0.08 0.05 0.68 -0.90 9.82 0.02 0.05 -0.07 14861
0.07 0.02 0.67 -0.89 9.83 0.04 0.05 -0.07 14868
0.09 0.02 0.70 -0.97 9.83 0.05 0.06 -0.06 14875
0.09 0.01 0.69 -0.94 9.89 0.08 0.08 -0.06 14882
0.09 0.00 0.72 -0.93 9.97 0.11 0.10 -0.06 14889
0.09 -0.01 0.78 -0.93 10.02 0.15 0.13 -0.06 14897
0.07 -0.01 0.68 -1.01 10.13 0.22 0.17 -0.06 14904
0.08 -0.01 0.63 -1.09 10.48 0.30 0.20 -0.05 14911
0.08 -0.01 0.77 -1.09 10.84 0.46 0.24 -0.05 14918
0.10 -0.01 0.93 -1.08 11.66 0.81 0.29 -0.08 14925
0.10 -0.01 1.05 -0.70 14.16 1.33 0.30 -0.14 14932
0.09 -0.01 1.44 -1.17 16.58 2.13 0.27 -0.23 14940
0.08 -0.00 1.58 -0.98 17.23 2.64 0.27 -0.32 14948
0.08 -0.01 1.51 -0.92 14.97 2.93 0.23 -0.36 14954
0.08 -0.01 1.43 -1.27 14.32 3.01 0.11 -0.39 14961
0.02 -0.00 1.35 -1.47 14.95 3.14 0.03 -0.43 14968
0.01 -0.00 1.92 -1.78 15.34 3.29 0.04 -0.42 14976
0.04 -0.00 3.19 -2.02 15.30 3.38 0.16 -0.48 14983
0.00 0.00 3.58 -2.21 16.44 3.42 0.33 -0.55 14990
0.01 -0.00 3.55 -2.11 17.54 3.42 0.52 -0.61 14997
0.00 -0.00 2.81 -1.34 18.05 3.40 0.63 -0.67 15004
0.00 0.00 1.63 0.08 17.53 3.30 0.63 -0.69 15011
0.00 0.00 0.80 2.35 15.62 3.09 0.46 -0.67 15019
0.00 0.00 0.76 2.74 13.64 2.72 0.28 -0.64 15026
0.00 0.00 0.02 3.52 13.05 2.36 0.12 -0.72 15033
0.00 0.00 0.61 7.72 12.44 2.12 0.00 -0.83 15040
0.00 0.00 -0.17 7.69 9.79 1.85 -0.10 -0.97 15047
0.00 0.00 -0.10 8.43 9.08 1.59 -0.15 -1.25 15054
0.00 0.00 0.34 8.38 8.48 1.30 -0.24 -1.43 15062
0.00 0.00 0.06 9.43 8.42 0.95 -0.23 -1.55 15069
0.00 0.00 0.32 9.18 7.09 0.69 -0.23 -1.65 15076
0.00 0.00 0.57 8.60 6.16 0.46 -0.27 -1.69 15083
0.00 0.00 0.90 7.98 5.77 0.29 -0.28 -1.71 15090
0.00 0.00 1.24 7.71 5.61 0.17 -0.29 -1.72 15097
0.00 0.00 1.44 7.44 5.55 0.01 -0.30 -1.70 15105
0.00 0.00 1.64 7.19 6.22 -0.14 -0.31 -1.66 15112
0.00 0.00 2.05 6.96 6.77 -0.38 -0.28 -1.60 15119
0.00 0.00 2.47 6.85 7.53 -0.65 -0.23 -1.48 15126
0.00 0.00 2.71 6.70 8.21 -0.95 -0.17 -1.32 15133
0.00 0.00 2.89 6.15 8.51 -1.28 -0.07 -1.14 15140
0.00 0.00 2.89 5.24 8.63 -1.54 -0.01 -0.92 15148
0.00 0.00 2.76 4.24 8.42 -1.76 0.01 -0.70 15155
0.00 0.00 2.84 3.06 8.27 -1.90 0.04 -0.45 15162
0.00 0.00 2.95 1.97 8.26 -1.95 0.05 -0.21 15169
0.00 0.00 3.10 1.21 8.54 -1.97 0.08 -0.02 15176
0.00 0.00 3.28 0.54 8.98 -1.97 0.14 0.19 15183
0.00 0.00 3.25 0.06 9.43 -1.96 0.19 0.35 15191
0.00 0.00 3.13 -0.44 9.86 -1.95 0.24 0.54 15198
0.00 0.00 2.99 -0.83 10.49 -1.94 0.25 0.71 15205
0.00 -0.00 2.86 -1.10 11.12 -1.93 0.26 0.85 15212
0.00 0.00 2.87 -1.43 11.67 -1.92 0.25 1.00 15219
0.00 0.00 3.01 -1.71 12.24 -1.94 0.23 1.11 15226
0.00 0.00 3.31 -1.92 12.66 -1.97 0.24 1.20 15234
0.00 0.00 3.52 -2.26 12.79 -2.02 0.28 1.27 15241
0.00 0.00 3.59 -2.55 12.67 -2.06 0.33 1.31 15248
0.00 -0.00 3.52 -2.89 12.48 -2.09 0.38 1.33 15255
0.00 0.00 3.42 -3.20 12.29 -2.08 0.42 1.33 15262
0.00 0.00 3.18 -3.54 12.26 -2.04 0.46 1.32 15269
0.00 0.00 2.81 -3.82 12.30 -1.98 0.47 1.30 15277
0.00 0.00 2.50 -3.97 12.20 -1.91 0.46 1.27 15284
-0.00 0.00 2.22 -4.16 12.03 -1.83 0.42 1.21 15291
0.00 0.00 2.04 -4.27 11.66 -1.76 0.35 1.13 15298
0.00 0.00 1.91 -4.45 11.19 -1.65 0.27 1.05 15305
0.00 0.00 1.81 -4.60 10.49 -1.52 0.17 0.93 15312
0.00 0.00 1.61 -4.67 10.11 -1.33 0.07 0.83 15320
0.00 0.00 1.66 -4.79 10.05 -1.11 -0.06 0.70 15327
-0.00 0.00 1.70 -4.81 10.17 -0.92 -0.15 0.59 15334
0.00 -0.00 1.84 -4.73 10.27 -0.70 -0.21 0.50 15341
0.00 0.00 2.19 -4.61 10.61 -0.50 -0.21 0.41 15348
0.00 0.00 2.32 -4.69 10.79 -0.37 -0.16 0.30 15355
0.00 0.00 2.53 -4.76 10.81 -0.24 -0.03 0.27 15363
0.00 0.00 2.40 -4.88 10.90 -0.14 0.13 0.21 15370
0.00 0.00 2.39 -4.96 11.61 -0.04 0.25 0.17 15377
0.00 0.00 2.31 -5.04 11.33 0.02 0.43 0.14 15384
0.00 0.00 2.19 -5.02 11.50 0.04 0.57 0.12 15391
0.00 0.00 1.87 -5.02 12.22 0.01 0.73 0.11 15398
0.00 0.00 1.38 -4.79 12.82 -0.09 0.84 0.12 15406
0.00 0.00 0.85 -4.73 13.25 -0.31 0.87 0.13 15413
0.00 0.00 0.23 -4.66 13.11 -0.58 0.81 0.16 15420
0.00 0.00 -0.04 -4.74 12.65 -0.83 0.68 0.20 15427
0.00 0.00 -0.15 -4.84 12.20 -1.09 0.49 0.23 15434
0.00 0.00 -0.06 -5.13 11.32 -1.27 0.32 0.26 15441
0.00 0.00 0.02 -5.43 10.20 -1.41 0.22 0.29 15449
0.00 0.00 0.19 -5.79 9.42 -1.46 0.16 0.30 15456
0.00 0.00 0.15 -6.05 8.39 -1.43 0.18 0.30 15463
0.00 0.00 -0.33 -5.94 7.50 -1.32 0.34 0.32 15470
0.00 0.00 -1.10 -6.20 7.37 -1.15 0.61 0.36 15477
0.00 0.00 -1.68 -6.85 7.47 -1.03 0.73 0.36 15484
0.00 0.00 -1.92 -7.51 7.67 -0.88 0.60 0.31 15492
0.00 0.00 -1.52 -7.95 7.74 -0.78 0.31 0.22 15499
0.00 -0.00 -0.90 -8.24 7.70 -0.69 0.13 0.15 15506
0.00 0.00 -0.19 -8.62 7.51 -0.61 0.01 0.07 15513
0.00 0.00 0.33 -9.02 7.28 -0.54 -0.00 -0.00 15520
0.00 0.00 1.02 -9.34 7.10 -0.48 0.10 -0.07 15527
0.00 0.00 1.58 -9.62 7.04 -0.43 0.30 -0.15 15535
-0.00 0.00 1.77 -9.75 7.03 -0.40 0.52 -0.26 15542
0.00 0.00 -0.09 -13.12 7.77 -0.30 0.72 -0.28 15549
0.00 0.00 -2.85 -14.16 11.64 0.30 0.44 -0.21 15556
0.00 0.00 -2.06 -11.83 3.43 0.55 0.21 -0.15 15563
0.00 0.00 -2.09 -12.45 1.85 0.79 -0.17 -0.03 15570
0.00 0.00 -3.24 -16.71 2.73 1.03 -0.60 0.16 15578
-0.00 0.01 -4.63 -20.39 4.46 1.47 -1.13 0.36 15585
-0.00 0.03 -3.84 -19.46 3.39 1.86 -1.38 0.68 15592
-0.00 0.01 -1.83 -8.86 7.49 2.41 -1.44 0.99 15599
-0.00 0.04 -6.04 -2.04 12.62 2.86 -1.43 0.99 15606
-0.02 0.20 -8.75 -2.65 38.12 3.26 -1.69 0.57 15613
-0.02 0.27 -1.65 1.09 22.02 0.67 -1.97 -0.00 15621
-0.01 0.29 -0.71 -0.43 10.15 -0.24 -0.06 0.02 15629
-0.03 0.42 -2.85 -2.59 10.61 -0.27 -0.15 -0.28 15636
-0.03 0.41 1.72 -2.81 10.01 -0.13 -0.16 -0.25 15643
-0.03 0.47 1.29 -0.94 9.87 -0.05 -0.07 -0.01 15649
-0.04 0.50 -0.29 -1.11 10.32 -0.03 -0.04 -0.02 15657
0.00 0.54 -0.06 -0.51 9.59 -0.02 0.03 -0.05 15664
0.02 0.53 0.82 -0.96 9.81 -0.01 0.07 -0.04 15671
-0.01 0.54 0.44 -0.97 9.79 -0.01 0.06 -0.03 15678
-0.01 0.51 0.34 -0.86 9.80 -0.01 0.06 -0.03 15685
0.00 0.56 0.68 -0.95 9.83 -0.01 0.06 -0.04 15692
-0.01 0.53 0.60 -0.86 9.78 -0.01 0.03 -0.05 15699
0.00 0.54 0.50 -0.82 9.79 -0.01 0.01 -0.05 15707
0.01 0.54 0.46 -0.84 9.77 -0.01 0.01 -0.06 15714
-0.00 0.54 0.49 -0.83 9.79 -0.01 0.01 -0.07 15721
0.03 0.51 0.46 -0.79 9.82 -0.01 0.01 -0.06 15728
0.03 0.51 0.43 -0.80 9.78 -0.00 0.01 -0.07 15735
0.02 0.53 0.45 -0.82 9.79 -0.00 0.02 -0.07 15742
0.03 0.53 0.42 -0.78 9.81 0.00 0.02 -0.07 15750
0.04 0.51 0.38 -0.85 9.82 0.00 0.04 -0.06 15757
0.03 0.46 0.34 -0.80 9.83 0.01 0.05 -0.06 15764
0.03 0.45 0.40 -0.81 9.80 0.01 0.07 -0.06 15771
0.01 0.44 0.38 -0.80 9.78 0.01 0.07 -0.06 15778
0.02 0.43 0.42 -0.82 9.78 0.01 0.08 -0.06 15785
0.02 0.43 0.46 -0.81 9.79 0.01 0.08 -0.06 15793
0.01 0.43 0.48 -0.81 9.77 0.01 0.08 -0.06 15800
0.02 0.41 0.50 -0.86 9.75 0.01 0.07 -0.06 15807
0.02 0.41 0.48 -0.82 9.81 0.01 0.07 -0.06 15814
0.00 0.42 0.47 -0.83 9.76 0.01 0.06 -0.06 15821
0.01 0.41 0.49 -0.80 9.79 0.01 0.06 -0.06 15828
0.02 0.41 0.49 -0.84 9.78 0.01 0.05 -0.06 15836
0.03 0.37 0.42 -0.80 9.78 0.00 0.06 -0.06 15843
0.02 0.38 0.49 -0.81 9.79 0.00 0.05 -0.06 15850
0.02 0.33 0.43 -0.80 9.76 0.01 0.05 -0.06 15857
0.01 0.34 0.45 -0.82 9.79 0.01 0.06 -0.06 15864
0.02 0.32 0.46 -0.82 9.76 0.01 0.06 -0.06 15872
0.02 0.33 0.48 -0.82 9.77 0.00 0.06 -0.05 15879
0.03 0.32 0.44 -0.81 9.80 0.00 0.06 -0.06 15886
0.02 0.32 0.50 -0.82 9.74 0.01 0.06 -0.06 15893
0.02 0.32 0.47 -0.83 9.76 0.00 0.06 -0.06 15900
0.02 0.30 0.50 -0.82 9.81 0.00 0.06 -0.06 15907
0.02 0.30 0.47 -0.84 9.76 -0.00 0.05 -0.06 15915
0.03 0.29 0.49 -0.83 9.76 -0.00 0.05 -0.05 15922
0.03 0.30 0.48 -0.85 9.74 -0.01 0.05 -0.05 15929
0.03 0.31 0.47 -0.83 9.76 -0.01 0.04 -0.05 15936
0.02 0.32 0.49 -0.84 9.75 -0.01 0.04 -0.05 15943
0.03 0.34 0.47 -0.81 9.77 -0.01 0.04 -0.05 15950
0.02 0.34 0.49 -0.83 9.79 -0.01 0.04 -0.05 15958
0.03 0.34 0.49 -0.81 9.75 -0.01 0.04 -0.05 15965
0.02 0.34 0.48 -0.85 9.78 -0.02 0.04 -0.05 15972
0.01 0.34 0.46 -0.80 9.72 -0.01 0.04 -0.05 15979
0.00 0.35 0.48 -0.83 9.71 -0.01 0.04 -0.05 15986
0.01 0.38 0.46 -0.78 9.77 -0.01 0.04 -0.05 15993
0.01 0.39 0.48 -0.82 9.77 -0.01 0.05 -0.05 16001
0.02 0.36 0.46 -0.82 9.78 -0.01 0.05 -0.05 16008
0.02 0.36 0.50 -0.83 9.79 -0.01 0.05 -0.05 16015
0.02 0.35 0.49 -0.83 9.72 -0.01 0.05 -0.05 16022
0.00 0.36 0.51 -0.84 9.74 -0.01 0.06 -0.05 16029
0.01 0.35 0.49 -0.79 9.75 -0.01 0.05 -0.05 16036
0.02 0.35 0.48 -0.78 9.76 -0.01 0.05 -0.05 16044
0.03 0.35 0.51 -0.81 9.74 -0.02 0.05 -0.05 16051
0.02 0.35 0.49 -0.79 9.77 -0.01 0.05 -0.05 16058
0.02 0.34 0.46 -0.76 9.74 -0.01 0.04 -0.05 16065
0.02 0.36 0.47 -0.77 9.76 -0.02 0.05 -0.05 16072
0.03 0.36 0.47 -0.79 9.78 -0.01 0.05 -0.05 16079
0.04 0.36 0.45 -0.81 9.72 -0.01 0.05 -0.06 16087
0.03 0.35 0.52 -0.80 9.71 -0.01 0.06 -0.06 16094
0.03 0.34 0.51 -0.79 9.78 -0.00 0.06 -0.06 16101
0.03 0.32 0.48 -0.79 9.73 0.00 0.07 -0.06 16108
0.02 0.33 0.46 -0.83 9.77 0.01 0.07 -0.06 16115
0.03 0.34 0.51 -0.80 9.76 0.01 0.07 -0.06 16122
0.04 0.35 0.50 -0.82 9.76 0.01 0.07 -0.06 16130
0.03 0.33 0.53 -0.81 9.77 0.01 0.07 -0.06 16137
0.03 0.32 0.53 -0.79 9.78 0.02 0.07 -0.06 16144
0.01 0.34 0.54 -0.83 9.78 0.02 0.06 -0.06 16151
0.03 0.29 0.51 -0.80 9.78 0.01 0.07 -0.06 16158
0.04 0.30 0.51 -0.85 9.82 0.02 0.06 -0.06 16165
0.06 0.22 0.55 -0.84 9.82 0.02 0.06 -0.06 16173
0.05 0.21 0.57 -0.82 9.79 0.02 0.06 -0.06 16180
0.04 0.19 0.54 -0.81 9.83 0.03 0.06 -0.06 16187
0.03 0.15 0.54 -0.82 9.81 0.04 0.06 -0.05 16194
0.04 0.02 0.54 -0.79 9.83 0.05 0.07 -0.05 16201
0.04 0.06 0.57 -0.82 9.84 0.07 0.08 -0.05 16208
0.05 0.01 0.63 -0.84 9.87 0.10 0.09 -0.05 16216
0.05 -0.01 0.55 -0.86 9.93 0.13 0.09 -0.05 16223
0.06 -0.01 0.50 -0.97 10.06 0.16 0.10 -0.05 16230
0.04 -0.00 0.53 -0.90 10.42 0.22 0.10 -0.03 16237
0.05 0.00 0.57 -1.08 10.64 0.33 0.10 -0.02 16244
0.01 -0.00 0.84 -0.91 11.16 0.50 0.08 -0.05 16251
0.03 -0.00 1.33 -0.99 12.09 0.84 0.13 -0.16 16259
0.02 0.00 1.19 -1.19 15.30 1.51 0.11 -0.27 16266
0.01 -0.00 1.59 -0.93 17.11 2.08 0.04 -0.35 16273
0.01 -0.00 2.04 -0.99 15.77 2.54 0.02 -0.46 16280
0.04 -0.00 2.08 -0.92 14.32 2.76 -0.06 -0.52 16287
0.04 -0.00 3.08 -1.13 14.56 2.83 -0.01 -0.63 16294
0.03 -0.00 3.69 -1.16 15.72 2.91 0.16 -0.76 16302
0.00 -0.00 3.87 -1.23 16.33 2.96 0.47 -0.89 16309
0.00 0.00 3.40 -0.26 16.98 2.92 0.73 -0.98 16316
0.00 0.00 2.40 0.40 17.06 2.81 0.95 -1.05 16323
0.00 0.00 -0.33 2.62 15.95 2.70 0.93 -1.06 16330
0.00 0.00 -2.24 5.29 14.70 2.42 0.60 -1.06 16337
0.00 0.00 -3.15 7.06 12.90 1.94 0.11 -1.08 16345
0.00 0.00 -3.06 6.21 11.06 1.52 -0.36 -1.15 16352
0.00 0.00 -1.50 5.89 11.32 1.17 -0.72 -1.15 16359
0.00 0.00 -0.81 5.74 11.51 0.88 -0.75 -1.18 16366
0.00 0.00 -0.17 5.52 9.58 0.69 -0.71 -1.26 16373
0.00 0.00 0.01 5.43 7.77 0.59 -0.67 -1.32 16380
0.00 0.00 0.09 5.65 6.98 0.55 -0.66 -1.36 16388
0.00 0.00 0.39 6.03 6.55 0.51 -0.70 -1.37 16395
0.00 0.00 0.85 6.39 6.09 0.47 -0.74 -1.35 16402
0.00 0.00 1.16 6.62 5.65 0.41 -0.76 -1.30 16409
0.00 0.00 1.54 6.70 5.50 0.34 -0.75 -1.25 16416
0.00 0.00 2.42 6.61 5.50 0.27 -0.72 -1.18 16423
0.00 0.00 2.19 6.52 5.98 0.17 -0.67 -1.11 16431
0.00 0.00 2.49 6.50 6.73 0.02 -0.57 -1.03 16438
0.00 0.00 2.87 6.50 7.86 -0.14 -0.45 -0.92 16445
0.00 0.00 3.27 6.55 8.77 -0.40 -0.26 -0.84 16452
0.00 0.00 3.43 6.27 9.34 -0.68 -0.05 -0.69 16459
0.00 0.00 3.25 5.63 9.62 -1.01 0.10 -0.54 16466
0.00 0.00 2.87 4.43 9.60 -1.26 0.21 -0.34 16474
0.00 0.00 2.46 3.33 9.42 -1.38 0.24 -0.13 16481
0.00 0.00 2.22 2.21 9.33 -1.45 0.22 0.04 16488
0.00 0.00 2.29 1.38 9.26 -1.46 0.16 0.24 16495
0.00 0.00 2.52 0.89 9.37 -1.44 0.12 0.37 16502
0.00 0.00 2.91 0.48 9.59 -1.42 0.10 0.51 16509
0.00 0.00 3.19 0.16 9.88 -1.40 0.11 0.60 16517
0.00 0.00 3.33 -0.01 10.06 -1.38 0.15 0.67 16524
0.00 0.00 3.29 -0.28 10.28 -1.36 0.18 0.73 16531
0.00 0.00 3.07 -0.47 10.34 -1.32 0.18 0.75 16538
0.00 -0.00 3.07 -0.69 10.61 -1.28 0.16 0.77 16545
0.00 0.00 3.27 -0.73 11.13 -1.26 0.15 0.76 16552
0.00 0.00 3.60 -0.72 11.47 -1.27 0.20 0.74 16560
0.00 0.00 3.92 -0.69 11.81 -1.31 0.32 0.72 16567
0.00 0.00 4.13 -0.72 12.00 -1.40 0.46 0.70 16574
0.00 0.00 3.99 -0.96 11.91 -1.47 0.62 0.70 16581
0.00 0.00 3.63 -1.27 11.70 -1.51 0.74 0.71 16588
0.00 0.00 3.28 -1.57 11.46 -1.50 0.83 0.73 16595
0.00 0.00 3.02 -1.89 11.23 -1.47 0.86 0.77 16603
0.00 0.00 2.78 -2.09 11.05 -1.40 0.85 0.80 16610
0.00 0.00 2.64 -2.16 10.82 -1.31 0.84 0.83 16617
0.00 0.00 2.59 -2.40 10.54 -1.22 0.81 0.84 16624
0.00 0.00 2.47 -2.50 9.82 -1.11 0.78 0.83 16631
0.00 0.00 2.17 -2.63 10.52 -0.99 0.71 0.80 16638
0.00 0.00 1.73 -2.65 10.89 -0.89 0.60 0.76 16646
0.00 0.00 1.29 -2.55 11.36 -0.81 0.44 0.73 16653
0.00 0.00 1.31 -2.35 12.40 -0.78 0.27 0.69 16660
0.00 0.00 1.50 -2.31 12.94 -0.83 0.17 0.66 16667
0.00 -0.00 1.62 -2.43 13.04 -0.94 0.11 0.63 16674
0.00 0.00 1.73 -2.48 12.70 -1.05 0.09 0.59 16681
0.00 0.00 1.71 -2.84 12.70 -1.17 0.08 0.55 16689
0.00 0.00 1.84 -3.23 12.21 -1.22 0.16 0.50 16696
0.00 0.00 1.81 -3.69 11.64 -1.24 0.23 0.45 16703
0.00 0.00 1.63 -4.00 11.05 -1.19 0.32 0.39 16710
0.00 0.00 1.44 -4.44 10.49 -1.11 0.38 0.33 16717
0.00 0.00 1.24 -4.69 9.96 -0.98 0.45 0.28 16724
0.00 0.00 1.08 -5.10 9.58 -0.82 0.47 0.23 16732
0.00 0.00 0.98 -5.55 9.29 -0.66 0.47 0.19 16739
0.00 0.00 0.95 -5.94 9.12 -0.46 0.46 0.16 16746
0.00 -0.00 0.98 -6.31 8.93 -0.28 0.45 0.15 16753
0.00 0.00 0.96 -6.55 8.99 -0.07 0.47 0.15 16760
0.00 0.00 0.72 -6.52 9.52 0.09 0.56 0.18 16768
0.00 0.00 0.39 -6.31 10.18 0.15 0.72 0.25 16775
0.00 0.00 0.14 -6.33 11.09 0.09 0.96 0.30 16782
0.00 0.00 -0.43 -6.50 11.92 -0.08 1.07 0.34 16789
0.00 0.00 -0.92 -6.61 12.01 -0.40 1.07 0.35 16796
0.00 0.00 -1.30 -6.85 11.23 -0.77 0.98 0.35 16803
0.00 0.00 -1.61 -7.17 9.85 -1.05 0.84 0.33 16811
0.00 0.00 -1.98 -7.82 8.72 -1.23 0.72 0.30 16818
0.00 0.00 -2.26 -8.64 7.41 -1.21 0.56 0.25 16825
0.00 0.00 -2.30 -9.31 6.32 -1.11 0.43 0.19 16832
0.00 0.00 -2.03 -9.73 5.63 -0.86 0.27 0.11 16839
0.00 0.00 -1.62 -9.72 5.12 -0.60 0.16 0.01 16846
0.00 0.00 -1.24 -9.46 5.05 -0.32 0.10 -0.08 16854
0.00 0.00 -0.77 -9.05 5.68 -0.10 0.09 -0.18 16861
0.00 0.00 -0.50 -8.53 6.37 0.02 0.14 -0.27 16868
0.00 0.00 -0.35 -8.12 6.84 0.09 0.24 -0.34 16875
0.00 -0.00 -0.57 -7.57 6.92 0.10 0.36 -0.38 16882
0.00 0.00 -1.75 -8.47 6.48 0.10 0.41 -0.40 16889
0.00 0.00 -9.36 -12.73 18.44 1.11 -0.76 -0.25 16897
0.00 0.00 -4.12 -8.05 3.42 1.14 -1.08 -0.24 16904
0.00 0.00 -4.56 -12.15 0.02 1.36 -1.51 -0.17 16911
0.00 0.01 -4.20 -22.35 4.66 1.86 -1.81 -0.02 16918
-0.00 0.04 -3.15 -11.13 5.91 2.37 -1.68 0.11 16925
-0.01 0.17 -4.91 0.57 5.63 3.12 -1.20 0.09 16932
-0.02 0.23 -3.55 -8.58 67.08 4.11 -2.91 -0.39 16941
-0.02 0.33 2.16 -2.08 16.01 -0.03 -1.31 -0.22 16948
-0.03 0.42 0.70 -1.83 11.01 -0.33 0.08 -0.13 16955
-0.02 0.50 -0.13 -5.18 11.78 -0.23 -0.25 -0.22 16962
-0.02 0.62 1.06 -0.04 10.04 -0.06 -0.15 -0.04 16968
-0.00 0.66 -0.05 -0.96 10.24 -0.01 -0.01 -0.04 16975
0.00 0.57 -0.04 -0.80 9.66 -0.00 0.03 -0.06 16983
0.01 0.61 0.48 -0.66 9.63 -0.01 0.10 -0.04 16990
0.01 0.61 0.54 -0.87 9.77 -0.01 0.12 -0.03 16997
0.01 0.62 0.61 -0.85 9.76 -0.00 0.12 -0.04 17004
0.01 0.57 0.64 -0.81 9.73 -0.00 0.10 -0.04 17011
0.01 0.60 0.63 -0.72 9.80 -0.01 0.09 -0.05 17018
-0.00 0.58 0.56 -0.79 9.81 -0.00 0.08 -0.05 17026
0.00 0.57 0.54 -0.75 9.81 -0.01 0.08 -0.06 17033
-0.00 0.59 0.56 -0.78 9.78 -0.00 0.08 -0.06 17040
0.01 0.57 0.59 -0.72 9.69 -0.00 0.07 -0.06 17047
0.01 0.58 0.60 -0.74 9.67 -0.01 0.06 -0.05 17054
0.01 0.55 0.53 -0.75 9.69 -0.01 0.05 -0.06 17061
0.00 0.53 0.57 -0.77 9.75 -0.00 0.05 -0.06 17069
0.02 0.52 0.53 -0.79 9.72 -0.00 0.05 -0.06 17076
0.01 0.54 0.52 -0.78 9.80 -0.01 0.05 -0.06 17083
0.03 0.52 0.49 -0.73 9.84 -0.00 0.06 -0.05 17090
0.02 0.51 0.49 -0.71 9.78 -0.00 0.06 -0.05 17097
0.02 0.50 0.51 -0.75 9.79 0.00 0.06 -0.05 17104
0.01 0.52 0.53 -0.74 9.75 0.00 0.06 -0.05 17112
0.02 0.52 0.58 -0.74 9.75 0.01 0.07 -0.05 17119
0.02 0.52 0.59 -0.77 9.74 0.01 0.06 -0.06 17126
0.04 0.52 0.56 -0.73 9.80 0.01 0.06 -0.06 17133
0.05 0.49 0.59 -0.77 9.76 0.01 0.06 -0.06 17140
0.06 0.47 0.58 -0.76 9.77 0.01 0.06 -0.06 17147
0.05 0.48 0.58 -0.76 9.77 0.01 0.06 -0.06 17155
0.06 0.45 0.53 -0.73 9.78 0.01 0.06 -0.06 17162
0.08 0.41 0.55 -0.76 9.77 0.01 0.06 -0.06 17169
0.06 0.40 0.58 -0.77 9.77 0.01 0.06 -0.06 17176
0.05 0.39 0.59 -0.77 9.80 0.02 0.06 -0.06 17183
0.06 0.35 0.57 -0.78 9.76 0.02 0.06 -0.06 17190
0.04 0.33 0.57 -0.79 9.78 0.02 0.06 -0.06 17198
0.03 0.34 0.56 -0.77 9.75 0.02 0.06 -0.06 17205
0.04 0.29 0.59 -0.80 9.77 0.02 0.05 -0.06 17212
0.03 0.30 1.21 -0.78 9.76 0.02 0.06 -0.06 17219
0.04 0.23 0.58 -0.79 9.77 0.02 0.05 -0.06 17226
0.05 0.21 0.57 -0.79 9.76 0.02 0.05 -0.06 17233
0.03 0.21 0.58 -0.80 9.76 0.02 0.06 -0.06 17241
0.04 0.24 0.56 -0.80 9.73 0.02 0.06 -0.05 17248
0.03 0.21 0.59 -0.78 9.73 0.02 0.06 -0.05 17255
0.05 0.21 0.59 -0.85 9.75 0.02 0.05 -0.06 17262
0.03 0.18 0.61 -0.80 9.75 0.02 0.05 -0.06 17269
0.02 0.18 0.66 -0.81 9.72 0.02 0.05 -0.05 17276
0.03 0.19 0.64 -0.80 9.74 0.01 0.05 -0.05 17284
0.03 0.20 0.59 -0.80 9.78 0.01 0.04 -0.05 17291
0.05 0.22 0.60 -0.79 9.79 0.01 0.03 -0.06 17298
0.04 0.20 0.60 -0.82 9.77 0.01 0.03 -0.06 17305
0.04 0.19 0.00 -0.84 9.77 0.00 0.03 -0.05 17312
0.02 0.20 0.59 -0.83 9.72 0.01 0.03 -0.05 17319
0.03 0.20 0.59 -0.81 9.81 0.00 0.02 -0.05 17327
0.04 0.20 0.60 -0.82 9.77 0.00 0.03 -0.05 17334
0.05 0.17 0.62 -0.83 9.78 0.00 0.03 -0.06 17341
0.05 0.21 0.59 -0.80 9.76 0.00 0.03 -0.06 17348
0.06 0.21 0.53 -0.80 9.76 0.00 0.03 -0.05 17355
0.04 0.22 0.58 -0.80 9.78 -0.00 0.03 -0.05 17362
0.05 0.23 0.57 -0.85 9.75 -0.00 0.03 -0.05 17370
0.06 0.24 0.58 -0.80 9.74 -0.01 0.03 -0.05 17377
0.05 0.24 0.62 -0.84 9.77 -0.00 0.04 -0.05 17384
0.05 0.24 0.59 -0.84 9.76 -0.00 0.04 -0.05 17391
0.04 0.22 0.58 -0.86 9.74 -0.01 0.04 -0.05 17398
0.03 0.23 0.59 -0.86 9.71 -0.00 0.04 -0.05 17405
0.04 0.24 0.61 -0.82 9.68 -0.01 0.05 -0.06 17413
0.05 0.23 0.59 -0.82 9.74 -0.01 0.05 -0.06 17420
0.04 0.23 0.59 -0.83 9.70 -0.01 0.05 -0.06 17427
0.04 0.23 0.63 -0.86 9.74 -0.01 0.06 -0.06 17434
0.04 0.22 0.59 -0.80 9.74 -0.01 0.06 -0.06 17441
0.03 0.23 0.60 -0.81 9.75 -0.01 0.06 -0.06 17448
0.04 0.24 0.59 -0.80 9.75 -0.00 0.06 -0.05 17456
0.06 0.24 0.58 -0.80 9.72 -0.00 0.06 -0.06 17463
0.04 0.24 0.58 -0.83 9.74 -0.00 0.06 -0.06 17470
0.04 0.23 0.56 -0.82 9.67 -0.00 0.06 -0.05 17477
0.03 0.23 0.64 -0.81 9.78 0.00 0.06 -0.06 17484
0.04 0.23 0.63 -0.83 9.77 0.01 0.06 -0.06 17491
0.05 0.24 0.63 -0.81 9.74 0.01 0.06 -0.06 17499
0.06 0.20 0.60 -0.82 9.78 0.01 0.06 -0.05 17506
0.06 0.17 0.60 -0.83 9.80 0.02 0.07 -0.06 17513
0.06 0.10 0.61 -0.84 9.75 0.02 0.07 -0.06 17520
0.05 0.09 0.63 -0.82 9.81 0.03 0.08 -0.06 17527
0.06 0.07 0.60 -0.83 9.82 0.03 0.08 -0.06 17534
0.08 0.07 0.62 -0.82 9.78 0.03 0.08 -0.06 17542
0.07 0.03 0.67 -0.85 9.78 0.03 0.08 -0.06 17549
0.07 0.02 0.64 -0.87 9.81 0.04 0.08 -0.06 17556
0.07 -0.01 0.65 -0.88 9.80 0.04 0.09 -0.05 17563
0.07 0.00 0.68 -0.88 9.81 0.05 0.10 -0.05 17570
0.08 -0.00 0.62 -0.88 9.83 0.06 0.10 -0.05 17577
0.10 -0.00 0.61 -0.86 9.84 0.08 0.12 -0.05 17585
0.07 -0.01 0.66 -0.92 9.94 0.11 0.13 -0.04 17592
0.06 -0.01 0.73 -0.89 9.90 0.14 0.14 -0.04 17599
0.06 -0.01 0.77 -0.91 10.00 0.19 0.16 -0.04 17606
0.06 -0.01 0.82 -0.94 10.21 0.26 0.19 -0.05 17613
0.06 -0.01 0.84 -0.88 10.55 0.39 0.18 -0.06 17620
0.06 0.01 0.84 -0.99 11.16 0.59 0.21 -0.09 17628
0.08 -0.01 0.97 -1.03 12.32 1.00 0.23 -0.14 17635
0.07 -0.01 1.12 -1.20 14.08 1.53 0.29 -0.19 17642
0.05 -0.01 0.94 -1.16 15.47 2.08 0.27 -0.24 17649
0.05 -0.00 1.05 -1.01 13.74 2.31 0.27 -0.27 17656
0.08 -0.00 1.01 -1.28 12.97 2.40 0.17 -0.28 17664
0.04 -0.00 1.30 -1.40 13.38 2.50 0.10 -0.29 17671
0.07 -0.01 1.23 -1.64 13.77 2.62 0.08 -0.30 17678
0.04 -0.00 1.52 -1.78 13.71 2.76 0.06 -0.31 17685
0.03 -0.00 1.98 -1.97 14.25 2.88 0.08 -0.36 17692
0.02 -0.00 2.24 -2.39 15.17 2.98 0.11 -0.41 17699
0.00 0.00 2.52 -2.79 15.90 3.05 0.19 -0.44 17707
0.02 -0.00 3.15 -2.68 17.00 3.08 0.33 -0.50 17714
