Voltage_01 Voltage_02 Acc_x Acc_y Acc_z Gyro_x Gyro_y Gyro_z Time
5000
-0.00 0.03 -8.28 -25.13 3.66 1.48 -1.39 0.04 23
-0.00 0.01 -6.97 -28.27 5.13 1.97 -1.82 -0.23 30
-0.00 0.06 -3.87 -1.57 62.84 1.87 -3.36 -0.43 38
-0.01 0.19 0.72 -4.23 9.19 -0.28 -0.59 0.10 45
-0.01 0.33 2.00 -1.02 10.09 -0.44 0.05 -0.03 52
-0.02 0.46 -0.33 -1.67 11.21 -0.23 -0.25 -0.11 60
-0.01 0.57 0.53 -0.96 10.31 -0.08 -0.11 -0.09 67
-0.02 0.57 0.16 -1.09 10.04 -0.04 -0.03 -0.08 73
-0.03 0.56 0.26 -0.89 9.82 -0.01 0.01 -0.06 80
-0.04 0.55 0.31 -0.71 9.83 0.00 0.06 -0.07 88
-0.02 0.53 0.58 -1.04 9.81 -0.00 0.07 -0.07 95
-0.03 0.54 0.46 -0.95 9.74 -0.01 0.06 -0.06 102
-0.03 0.55 0.41 -0.95 9.83 -0.01 0.06 -0.06 109
-0.03 0.56 0.44 -0.91 9.85 -0.01 0.06 -0.06 116
-0.02 0.55 0.50 -0.92 9.82 -0.02 0.07 -0.06 123
-0.01 0.55 0.49 -0.87 9.81 -0.01 0.07 -0.06 131
-0.01 0.54 0.51 -0.85 9.78 -0.00 0.07 -0.06 138
-0.01 0.53 0.55 -0.87 9.81 -0.00 0.06 -0.06 145
-0.02 0.50 0.60 -0.86 9.77 0.00 0.06 -0.07 152
-0.02 0.50 0.55 -0.90 9.81 0.00 0.05 -0.07 159
-0.02 0.51 0.52 -0.88 9.73 0.01 0.04 -0.07 166
-0.00 0.49 0.51 -0.88 9.78 0.01 0.04 -0.07 174
-0.00 0.48 0.44 -0.89 9.80 0.00 0.04 -0.07 181
-0.00 0.46 0.46 -0.87 9.82 -0.00 0.04 -0.07 188
-0.00 0.46 0.47 -0.90 9.79 -0.00 0.05 -0.07 195
-0.01 0.47 0.48 -0.88 9.78 -0.00 0.05 -0.07 202
0.00 0.48 0.47 -0.87 9.75 -0.01 0.05 -0.07 209
0.02 0.47 0.49 -0.90 9.81 -0.01 0.05 -0.07 217
0.01 0.46 0.45 -0.87 9.71 -0.00 0.06 -0.06 224
0.00 0.45 0.49 -0.87 9.77 -0.01 0.06 -0.07 231
0.00 0.43 0.50 -0.88 9.75 -0.01 0.06 -0.06 238
-0.00 0.44 0.49 -0.90 9.78 -0.00 0.07 -0.06 245
0.00 0.44 0.50 -0.86 9.78 0.00 0.07 -0.06 252
0.02 0.42 0.48 -0.83 9.80 0.00 0.07 -0.07 260
0.01 0.43 0.51 -0.88 9.78 0.01 0.07 -0.06 267
0.00 0.38 0.55 -0.89 9.78 0.01 0.07 -0.07 274
-0.00 0.37 0.53 -0.89 9.75 0.01 0.07 -0.06 281
0.01 0.36 0.51 -0.87 9.74 0.01 0.07 -0.07 288
0.01 0.37 0.51 -0.87 9.75 0.00 0.07 -0.07 295
0.01 0.33 0.52 -0.87 9.78 0.00 0.07 -0.03 303
0.00 0.35 0.51 -0.89 9.80 0.00 0.07 -0.07 310
0.01 0.33 0.52 -0.88 9.82 0.00 0.06 -0.06 317
-0.01 0.33 0.52 -0.89 9.78 0.00 0.06 -0.06 324
0.01 0.32 0.56 -0.89 9.77 0.00 0.06 -0.07 331
0.01 0.31 0.55 -0.87 9.79 0.00 0.06 -0.06 338
0.02 0.31 0.53 -0.90 9.79 0.00 0.06 -0.07 346
0.01 0.30 0.51 -0.88 9.77 0.00 0.06 -0.06 353
0.02 0.30 0.55 -0.91 9.77 -0.00 0.06 -0.06 360
0.00 0.32 0.52 -0.87 9.77 -0.00 0.06 -0.06 367
0.01 0.32 0.56 -0.90 9.77 -0.00 0.06 -0.07 374
0.02 0.31 0.54 -0.88 9.75 -0.00 0.05 -0.06 381
0.03 0.28 0.55 -0.90 9.73 0.00 0.05 -0.07 389
0.02 0.28 0.55 -0.87 9.75 0.00 0.05 -0.07 396
0.03 0.24 0.54 -0.92 9.77 0.00 0.05 -0.07 403
0.02 0.25 0.56 -0.88 9.75 0.01 0.05 -0.07 410
0.03 0.26 0.57 -0.92 9.76 0.00 0.04 -0.07 417
0.05 0.26 0.56 -0.91 9.76 -0.03 0.04 -0.06 424
0.04 0.26 0.57 -0.91 9.75 -0.00 0.04 -0.06 432
0.03 0.26 0.56 -0.89 9.77 0.00 0.05 -0.07 439
0.03 0.26 0.56 -0.90 9.74 -0.00 0.05 -0.07 446
0.04 0.27 0.55 -0.90 9.76 -0.00 0.04 -0.07 453
0.05 0.27 0.54 -0.92 9.76 -0.00 0.05 -0.07 460
0.06 0.26 0.54 -0.92 9.77 -0.00 0.05 -0.07 467
0.05 0.26 0.57 -0.92 9.76 -0.01 0.05 -0.07 475
0.04 0.27 0.57 -0.85 9.77 0.00 0.05 -0.07 482
0.03 0.26 0.59 -0.90 9.75 -0.00 0.05 -0.07 489
0.03 0.25 0.55 -0.90 9.75 -0.00 0.06 -0.07 496
0.03 0.28 0.54 -0.91 9.75 -0.01 0.06 -0.07 503
0.03 0.28 0.54 -0.91 9.78 -0.01 0.06 -0.07 510
0.01 0.26 0.54 -0.89 9.74 -0.01 0.06 -0.07 518
0.01 0.26 0.56 -0.90 9.81 -0.00 0.06 -0.07 525
0.01 0.26 0.60 -0.90 9.77 -0.01 0.06 -0.07 532
0.01 0.26 0.57 -0.89 9.77 -0.01 0.10 -0.07 539
0.01 0.28 0.55 -0.88 9.73 -0.01 0.07 -0.07 546
0.02 0.27 0.54 -0.88 9.73 -0.01 0.07 -0.08 553
0.02 0.27 0.57 -0.86 9.73 -0.01 0.07 -0.07 561
0.02 0.26 0.58 -0.86 9.76 -0.01 0.07 -0.07 568
0.01 0.28 0.56 -0.88 9.76 -0.01 0.07 -0.07 575
0.02 0.27 0.58 -0.88 10.41 -0.00 0.06 -0.07 582
0.03 0.27 0.62 -0.90 9.76 -0.00 0.06 -0.07 589
0.03 0.28 0.61 -0.88 9.80 -0.00 0.06 -0.07 596
0.02 0.28 0.58 -0.86 9.73 0.00 0.06 -0.07 604
0.02 0.24 0.60 -0.87 9.74 0.00 0.05 -0.07 611
0.01 0.24 0.61 -0.91 9.77 0.01 0.05 -0.07 618
0.02 0.23 0.63 -0.90 9.77 0.00 0.06 -0.07 625
0.02 0.19 0.00 -0.90 9.74 0.01 0.06 -0.07 632
0.03 0.21 0.63 -0.92 9.74 0.01 0.07 -0.07 640
0.01 0.21 0.60 -0.90 9.77 0.02 0.08 -0.07 647
0.02 0.10 0.61 -0.90 9.80 0.02 0.08 -0.07 654
0.03 0.08 0.57 -0.90 9.80 0.02 0.08 -0.07 661
0.03 0.08 0.65 -0.88 9.81 0.03 0.09 -0.08 668
0.04 0.03 0.63 -0.91 9.84 0.04 0.09 -0.08 675
0.04 0.02 0.63 -0.89 9.88 0.06 0.10 -0.07 683
0.04 -0.00 0.69 -0.91 9.95 0.08 0.11 -0.07 690
0.02 -0.00 0.62 -0.94 10.00 0.12 0.13 -0.06 697
0.02 -0.00 0.72 -0.93 10.06 0.16 0.16 -0.07 704
0.03 -0.00 1.02 -1.21 10.18 0.24 0.20 -0.06 711
0.05 -0.01 0.72 -1.05 10.44 0.35 0.25 -0.07 718
0.04 -0.00 1.00 -0.87 11.10 0.51 0.28 -0.10 726
0.03 -0.00 1.02 -1.03 12.24 0.91 0.33 -0.17 733
0.02 -0.00 1.14 -1.37 14.72 1.39 0.33 -0.21 740
0.04 -0.00 1.36 -1.30 15.43 1.97 0.29 -0.27 747
0.03 -0.00 1.16 -1.01 14.45 2.28 0.29 -0.32 754
0.03 -0.00 1.26 -1.12 13.14 2.41 0.27 -0.35 761
0.02 -0.00 1.42 -1.34 12.84 2.47 0.26 -0.38 769
0.02 -0.00 1.65 -1.63 12.84 2.54 0.26 -0.42 776
0.02 -0.00 2.14 -1.87 13.25 2.60 0.29 -0.47 783
0.01 -0.00 2.57 -2.00 13.55 2.67 0.39 -0.53 790
0.00 -0.00 3.20 -2.37 14.25 2.71 0.50 -0.61 797
0.00 0.00 3.59 -2.22 15.00 2.72 0.65 -0.68 804
0.00 0.00 3.52 -2.01 15.17 2.69 0.79 -0.75 812
0.00 0.00 2.67 -1.60 14.61 2.63 0.89 -0.81 819
0.00 0.00 0.93 -0.16 13.87 2.50 0.82 -0.83 826
0.00 0.00 -0.28 1.80 13.02 2.32 0.60 -0.82 833
0.00 0.00 -0.81 2.66 12.96 2.04 0.26 -0.80 840
0.00 0.00 -1.20 4.29 12.63 1.81 -0.06 -0.79 847
0.00 0.00 -1.64 6.21 11.26 1.56 -0.25 -0.87 855
0.00 0.00 -0.71 6.18 9.24 1.34 -0.45 -1.03 862
0.00 0.00 -0.54 7.17 9.02 1.21 -0.53 -1.13 868
0.00 0.00 -0.48 8.42 9.05 0.98 -0.55 -1.23 875
0.00 0.00 -0.33 9.56 8.26 0.74 -0.58 -1.29 881
0.00 0.00 -0.21 10.02 7.20 0.56 -0.62 -1.31 887
0.00 0.00 0.06 10.17 6.44 0.34 -0.67 -1.31 894
0.00 0.00 0.47 10.10 5.93 0.13 -0.69 -1.28 902
0.00 0.00 0.80 9.86 5.75 -0.04 -0.69 -1.26 909
0.00 0.00 1.16 9.39 6.10 -0.22 -0.67 -1.24 915
0.00 0.00 1.49 8.73 6.63 -0.41 -0.63 -1.21 921
0.00 0.00 1.81 7.46 7.41 -0.61 -0.56 -1.17 928
0.00 0.00 2.19 7.30 8.18 -0.86 -0.46 -1.11 935
0.00 0.00 2.46 6.66 9.05 -1.04 -0.36 -1.04 942
0.00 0.00 2.60 6.11 9.70 -1.27 -0.29 -0.96 948
0.00 0.00 2.71 5.30 10.01 -1.50 -0.22 -0.85 954
0.00 0.00 2.82 4.27 10.32 -1.70 -0.18 -0.69 961
0.00 0.00 2.92 3.27 10.43 -1.87 -0.17 -0.54 968
0.00 0.00 3.04 2.11 10.47 -2.00 -0.18 -0.35 975
0.00 0.00 3.21 0.63 10.53 -2.03 -0.18 -0.15 983
0.00 0.00 3.53 0.32 10.56 -2.05 -0.17 -0.01 990
0.00 0.00 3.81 -0.40 10.62 -2.04 -0.13 0.14 997
0.00 0.00 3.94 -0.87 10.66 -2.00 -0.07 0.25 1004
0.00 0.00 3.98 -1.35 10.73 -1.93 0.03 0.34 1011
0.00 0.00 3.84 -1.80 10.77 -1.86 0.11 0.39 1018
0.00 0.00 3.63 -2.16 10.65 -1.76 0.20 0.42 1026
0.00 0.00 3.22 -2.63 10.47 -1.65 0.25 0.42 1033
0.00 0.00 2.86 -2.93 10.56 -1.49 0.26 0.41 1040
0.00 0.00 2.55 -3.14 10.77 -1.33 0.25 0.40 1047
0.00 0.00 2.42 -3.20 11.16 -1.21 0.24 0.40 1054
0.00 0.00 2.57 -3.13 11.57 -1.10 0.26 0.40 1061
0.00 0.00 2.76 -3.01 12.02 -1.05 0.34 0.41 1069
0.00 0.00 2.80 -2.93 12.37 -1.04 0.43 0.47 1076
0.00 0.00 2.49 -2.98 12.42 -1.07 0.54 0.47 1083
0.00 0.00 1.96 -3.04 12.30 -1.11 0.63 0.53 1090
0.00 0.00 1.54 -3.14 12.11 -1.14 0.60 0.58 1097
0.00 0.00 1.17 -3.37 11.88 -1.14 0.55 0.64 1104
0.00 0.00 0.93 -3.45 11.51 -1.13 0.48 0.71 1112
0.00 0.00 0.83 -3.60 11.16 -1.08 0.41 0.75 1119
0.00 0.00 0.72 -3.66 10.84 -1.03 0.34 0.79 1126
0.00 -0.00 0.51 -3.71 10.82 -0.94 0.30 0.81 1133
0.00 0.00 0.17 -3.71 10.76 -0.84 0.24 0.82 1140
0.00 0.00 -0.08 -3.83 10.82 -0.78 0.18 0.82 1147
0.00 0.00 -0.26 -3.79 11.00 -0.71 0.11 0.80 1155
0.00 0.00 -0.39 -3.84 11.21 -0.68 0.03 0.78 1162
0.00 0.00 -0.33 -3.84 11.26 -0.67 -0.03 0.70 1169
0.00 0.00 -0.21 -3.90 11.21 -0.68 -0.07 0.68 1176
0.00 0.00 0.60 -4.02 11.21 -0.71 -0.04 0.60 1183
0.00 0.00 0.33 -4.14 10.94 -0.73 -0.03 0.53 1190
0.00 0.00 0.45 -4.40 10.49 -0.74 0.06 0.43 1198
0.00 0.00 0.51 -4.57 9.99 -0.72 0.16 0.35 1205
0.00 0.00 0.50 -4.89 9.69 -0.67 0.28 0.25 1212
0.00 0.00 0.47 -4.98 9.32 -0.60 0.42 0.17 1219
0.00 0.00 0.44 -5.08 9.03 -0.50 0.49 0.10 1226
0.00 0.00 0.44 -5.25 8.78 -0.39 0.59 0.04 1233
0.00 0.00 0.39 -5.38 8.82 -0.29 0.67 -0.01 1241
0.00 0.00 0.25 -5.43 9.24 -0.20 0.73 -0.04 1248
0.00 0.00 -0.01 -5.31 9.83 -0.17 0.75 -0.07 1255
0.00 0.00 -0.45 -5.10 9.92 -0.21 0.74 -0.08 1262
0.00 0.00 -0.81 -5.02 10.12 -0.31 0.69 -0.07 1269
0.00 0.00 -1.10 -5.04 10.08 -0.42 0.60 -0.05 1276
0.00 0.00 -1.26 -5.14 10.12 -0.56 0.50 -0.02 1284
0.00 0.00 -1.10 -5.47 9.85 -0.68 0.42 0.01 1291
0.00 0.00 -0.89 -5.73 9.50 -0.80 0.38 0.05 1298
0.00 0.00 -0.63 -6.20 9.04 -0.87 0.35 0.07 1305
0.00 0.00 -0.39 -6.60 8.36 -0.90 0.35 0.08 1312
0.00 0.00 -0.09 -7.08 7.87 -0.89 0.37 0.08 1319
0.00 0.00 0.04 -7.56 7.40 -0.81 0.41 0.08 1327
0.00 0.00 0.09 -7.88 6.99 -0.75 0.46 0.05 1334
0.00 -0.00 0.05 -8.34 6.41 -0.61 0.54 0.04 1341
0.00 0.00 -1.37 -13.74 6.04 -0.44 0.57 0.02 1348
0.00 0.00 -1.90 -11.84 7.82 0.50 0.45 0.06 1355
0.00 0.00 -2.46 -9.99 0.37 0.56 0.36 0.02 1362
0.00 0.00 -1.58 -11.97 4.87 0.80 0.15 0.00 1370
-0.00 0.00 -3.58 -15.34 7.89 1.02 -0.23 -0.01 1377
0.00 0.00 -3.76 -16.99 7.09 1.27 -0.51 -0.04 1384
-0.00 0.03 -5.41 -22.46 2.73 1.43 -0.87 -0.01 1391
-0.00 0.02 -4.03 -20.23 4.09 1.89 -1.34 0.01 1398
-0.01 0.07 -3.02 3.19 9.86 2.40 -1.17 -0.08 1405
-0.02 0.20 -2.26 -7.56 53.25 2.45 -3.48 -0.43 1414
-0.02 0.29 0.48 -2.52 10.59 -0.10 -0.55 0.02 1420
-0.02 0.34 0.85 -1.31 10.44 -0.31 0.16 -0.10 1428
-0.03 0.45 -0.98 -2.94 11.34 -0.17 -0.05 -0.13 1435
-0.04 0.50 0.97 -1.25 10.16 -0.08 -0.08 -0.06 1442
-0.02 0.50 0.20 -0.84 10.09 -0.03 -0.05 -0.03 1448
-0.01 0.53 -0.03 -0.88 9.92 -0.02 0.01 -0.06 1456
-0.02 0.55 1.11 -0.73 9.70 -0.01 0.06 -0.05 1463
-0.02 0.51 0.69 -0.95 9.82 -0.01 0.07 -0.05 1470
-0.03 0.54 0.42 -0.87 9.81 -0.00 0.07 -0.05 1477
-0.03 0.52 0.51 -0.88 9.76 -0.00 0.07 -0.05 1484
-0.03 0.53 0.61 -0.91 9.76 -0.01 0.06 -0.05 1491
-0.02 0.56 0.60 -0.91 9.77 -0.00 0.05 -0.05 1499
-0.02 0.58 0.56 -0.86 9.79 -0.01 0.03 -0.05 1506
-0.02 0.56 0.58 -0.87 9.78 -0.01 0.03 -0.05 1513
-0.04 0.59 0.53 -0.86 9.80 -0.01 0.02 -0.06 1520
-0.03 0.57 0.50 -0.88 9.80 -0.01 0.03 -0.06 1527
-0.04 0.57 0.50 -0.89 9.77 -0.01 0.04 -0.06 1534
-0.03 0.58 0.49 -0.85 9.78 -0.01 0.04 -0.06 1542
-0.02 0.56 0.51 -0.86 9.77 -0.01 0.04 -0.06 1549
-0.03 0.57 0.53 -0.87 9.78 -0.01 0.05 -0.06 1556
-0.03 0.55 0.50 -0.85 9.73 -0.01 0.05 -0.06 1563
-0.04 0.57 0.49 -0.86 9.78 -0.01 0.06 -0.06 1570
-0.03 0.57 0.51 -0.85 9.74 -0.00 0.06 -0.06 1577
-0.02 0.58 0.54 -0.86 9.81 -0.01 0.07 -0.06 1585
-0.02 0.57 0.52 -0.87 9.80 -0.00 0.07 -0.06 1592
-0.03 0.57 0.51 -0.87 9.75 -0.00 0.07 -0.06 1599
-0.03 0.54 0.56 -0.88 9.76 -0.00 0.07 -0.06 1606
-0.03 0.55 0.53 -0.87 9.81 -0.00 0.07 -0.06 1613
-0.03 0.55 0.55 -0.83 9.79 0.00 0.07 -0.06 1620
-0.04 0.56 0.52 -0.84 9.83 0.00 0.07 -0.07 1628
-0.02 0.53 0.56 -0.86 9.80 0.00 0.07 -0.07 1635
-0.02 0.54 0.54 -0.89 9.81 0.00 0.07 -0.06 1642
-0.03 0.49 0.53 -0.86 9.77 0.01 0.07 -0.06 1649
-0.04 0.49 0.51 -0.87 9.73 0.01 0.07 -0.07 1656
-0.02 0.47 0.53 -0.85 9.70 0.00 0.07 -0.06 1664
-0.02 0.47 0.55 -0.86 9.75 0.01 0.07 -0.06 1671
-0.01 0.48 0.57 -0.86 9.77 0.01 0.07 -0.06 1678
-0.02 0.47 0.57 -0.89 9.75 0.01 0.07 -0.06 1685
-0.02 0.45 0.58 -0.89 9.73 0.00 0.07 -0.06 1692
-0.02 0.44 0.58 -0.83 9.77 0.01 0.07 -0.06 1699
-0.01 0.43 0.52 -0.88 9.79 0.01 0.06 -0.05 1707
-0.00 0.40 0.59 -0.89 9.78 0.01 0.07 -0.05 1714
0.00 0.35 0.57 -0.87 9.79 0.01 0.06 -0.06 1721
-0.01 0.36 0.57 -0.86 9.77 0.01 0.06 -0.06 1728
-0.01 0.35 0.60 -0.88 9.75 0.01 0.05 -0.06 1735
-0.02 0.35 0.62 -0.88 9.82 0.01 0.05 -0.06 1742
-0.00 0.28 0.59 -0.86 9.76 0.01 0.05 -0.06 1750
0.01 0.26 0.61 -0.92 9.75 0.01 0.05 -0.06 1757
0.01 0.27 0.59 -0.88 9.75 0.01 0.05 -0.06 1764
0.00 0.25 0.62 -0.87 9.74 0.01 0.05 -0.06 1771
0.01 0.26 0.58 -0.90 9.79 0.01 0.04 -0.06 1778
0.01 0.25 0.59 -0.91 9.76 0.01 0.04 -0.06 1785
0.03 0.26 0.63 -0.89 9.75 0.01 0.04 -0.07 1793
0.04 0.27 0.58 -0.87 9.71 0.01 0.04 -0.07 1800
0.03 0.24 0.61 -0.91 9.74 0.01 0.04 -0.06 1807
0.03 0.27 0.59 -0.94 9.75 0.01 0.05 -0.07 1814
0.04 0.28 0.59 -0.91 9.76 0.01 0.04 -0.07 1821
0.04 0.27 0.62 -0.90 9.79 0.00 0.04 -0.07 1828
0.03 0.23 0.58 -0.90 9.76 0.01 0.05 -0.03 1836
0.05 0.27 0.62 -0.91 9.78 0.01 0.04 -0.07 1843
0.04 0.21 0.62 -0.92 9.75 0.00 0.04 -0.07 1850
0.03 0.20 0.61 -0.91 9.74 0.01 0.05 -0.07 1857
0.02 0.22 0.61 -0.92 9.77 0.01 0.04 -0.07 1864
0.04 0.18 0.59 -0.89 9.77 0.00 0.05 -0.07 1871
0.04 0.16 0.61 -0.91 9.76 0.00 0.05 -0.07 1879
0.06 0.16 0.62 -0.94 9.76 0.00 0.05 -0.07 1886
0.06 0.13 0.61 -0.91 9.77 0.00 0.05 -0.07 1893
0.06 0.13 0.64 -0.93 9.77 0.00 0.05 -0.07 1900
0.05 0.17 0.61 -0.91 9.75 0.00 0.05 -0.07 1907
0.06 0.14 0.58 -0.94 9.76 0.00 0.05 -0.07 1914
0.08 0.15 0.61 -0.91 9.73 0.00 0.06 -0.08 1922
0.07 0.12 0.65 -0.94 9.72 0.00 0.06 -0.08 1929
0.07 0.10 0.60 -0.94 9.73 0.00 0.06 -0.08 1936
0.06 0.08 1.21 -0.92 9.73 0.00 0.06 -0.07 1943
0.06 0.07 0.64 -0.95 9.74 0.00 0.06 -0.08 1950
0.04 0.11 0.63 -0.93 9.74 0.00 0.07 -0.08 1957
0.07 0.07 0.64 -0.93 9.79 0.01 0.07 -0.08 1965
0.07 0.05 0.63 -0.94 9.81 0.01 0.08 -0.08 1972
0.06 0.05 0.65 -0.91 9.80 0.01 0.08 -0.08 1979
0.06 0.07 0.68 -0.92 9.81 0.02 0.08 -0.07 1986
0.06 0.04 0.67 -0.91 9.82 0.02 0.08 -0.08 1993
0.07 0.02 0.68 -0.91 9.80 0.02 0.07 -0.07 2000
0.08 0.00 0.67 -0.91 9.79 0.02 0.07 -0.08 2008
0.05 -0.01 0.65 -0.96 9.80 0.03 0.07 -0.08 2015
0.05 -0.00 0.68 -0.90 9.79 0.03 0.08 -0.07 2022
0.05 -0.00 0.65 -0.95 9.80 0.03 0.09 -0.07 2029
0.06 0.00 0.62 -0.95 9.84 0.04 0.09 -0.07 2036
0.06 -0.00 0.56 -0.94 9.90 0.07 0.10 -0.06 2043
0.08 -0.01 0.69 -1.03 10.02 0.10 0.13 -0.04 2051
0.06 -0.01 0.76 -0.96 10.11 0.16 0.15 -0.05 2058
0.04 -0.00 0.75 -1.03 10.33 0.25 0.19 -0.05 2065
0.03 -0.00 0.92 -0.95 11.01 0.40 0.21 -0.08 2072
0.05 -0.00 1.01 -0.78 12.05 0.77 0.26 -0.13 2079
0.05 -0.01 1.02 -1.29 14.15 1.29 0.32 -0.19 2086
0.05 -0.01 1.06 -1.27 15.49 1.89 0.24 -0.23 2094
0.03 -0.00 0.87 -1.26 15.26 2.27 0.24 -0.28 2101
0.03 -0.00 1.01 -1.10 13.35 2.46 0.23 -0.30 2108
0.02 -0.00 1.06 -1.24 13.11 2.54 0.22 -0.31 2115
0.02 -0.00 0.98 -1.61 13.50 2.62 0.24 -0.31 2122
0.03 -0.00 1.36 -1.67 13.80 2.74 0.31 -0.32 2129
0.02 -0.00 1.49 -1.75 14.21 2.84 0.39 -0.35 2137
0.01 -0.00 1.74 -2.18 14.77 2.91 0.48 -0.37 2144
0.00 -0.00 2.18 -2.46 15.40 2.95 0.63 -0.39 2151
0.00 0.00 2.34 -2.33 16.03 2.93 0.79 -0.42 2158
0.00 0.00 1.72 -1.08 14.95 2.90 0.92 -0.43 2165
0.00 0.00 0.51 1.09 14.24 2.73 0.88 -0.42 2172
0.00 0.00 -0.76 2.66 13.44 2.46 0.60 -0.38 2180
0.00 0.00 -1.37 3.52 12.69 2.09 0.34 -0.35 2187
0.00 0.00 -1.38 3.91 11.67 1.81 -0.01 -0.36 2194
0.00 0.00 -1.39 6.97 10.79 1.63 -0.19 -0.51 2201
0.00 0.00 -0.64 7.10 9.27 1.40 -0.34 -0.73 2208
0.00 0.00 -0.48 8.12 8.77 1.24 -0.40 -0.99 2215
0.00 0.00 -0.56 8.95 9.24 0.96 -0.40 -1.20 2223
0.00 0.00 -0.46 9.45 8.91 0.64 -0.46 -1.39 2230
0.00 0.00 -0.40 9.45 8.50 0.41 -0.53 -1.51 2237
0.00 0.00 -0.10 9.18 8.02 0.17 -0.64 -1.57 2244
0.00 0.00 0.30 8.88 7.41 0.01 -0.74 -1.60 2251
0.00 0.00 0.78 8.56 7.05 -0.16 -0.81 -1.61 2258
0.00 0.00 1.33 8.07 6.92 -0.32 -0.85 -1.60 2266
0.00 0.00 1.73 7.47 7.00 -0.45 -0.85 -1.58 2273
0.00 0.00 2.13 6.93 7.19 -0.57 -0.83 -1.55 2280
0.00 0.00 2.49 6.28 7.63 -0.67 -0.78 -1.50 2287
0.00 0.00 2.76 5.79 8.52 -0.80 -0.72 -1.45 2294
0.00 0.00 3.38 5.32 9.83 -0.97 -0.58 -1.37 2301
0.00 0.00 3.92 4.91 10.15 -1.14 -0.36 -1.26 2309
0.00 0.00 4.14 4.30 10.61 -1.38 -0.13 -1.14 2316
0.00 0.00 4.24 3.39 11.19 -1.61 0.12 -0.98 2323
0.00 0.00 4.02 1.95 11.26 -1.78 0.28 -0.80 2330
0.00 -0.00 3.64 1.52 11.06 -1.94 0.37 -0.63 2337
0.00 0.00 3.32 0.45 10.75 -2.01 0.38 -0.43 2344
0.00 0.00 3.30 -0.36 10.61 -2.03 0.36 -0.27 2352
0.00 0.00 3.46 -1.18 10.51 -1.98 0.36 -0.10 2359
0.00 0.00 3.65 -1.70 10.60 -1.92 0.41 0.02 2366
0.00 0.00 3.69 -1.94 10.72 -1.83 0.49 0.11 2373
0.00 0.00 3.48 -2.19 10.87 -1.77 0.61 0.17 2380
0.00 0.00 3.13 -2.29 11.08 -1.69 0.70 0.21 2387
0.00 0.00 2.56 -2.50 11.11 -1.62 0.75 0.25 2395
0.00 0.00 2.01 -2.68 11.00 -1.56 0.75 0.29 2402
0.00 0.00 1.59 -2.87 11.17 -1.48 0.70 0.33 2409
0.00 0.00 1.43 -2.91 11.49 -1.38 0.63 0.40 2416
0.00 0.00 1.26 -2.89 11.80 -1.35 0.59 0.47 2423
0.00 0.00 1.15 -2.76 11.84 -1.31 0.55 0.55 2430
0.00 0.00 0.97 -2.77 11.91 -1.31 0.53 0.61 2438
0.00 0.00 0.87 -2.93 11.91 -1.32 0.50 0.66 2445
0.00 0.00 0.79 -3.14 11.67 -1.33 0.49 0.69 2452
-0.00 0.00 0.72 -3.39 11.39 -1.32 0.47 0.70 2459
0.00 0.00 0.65 -3.54 11.17 -1.28 0.44 0.70 2466
0.00 0.00 0.55 -3.80 10.87 -1.23 0.40 0.68 2473
0.00 0.00 0.44 -3.90 10.68 -1.14 0.36 0.65 2481
0.00 0.00 0.27 -3.99 10.53 -1.03 0.28 0.61 2488
0.00 0.00 0.25 -4.12 10.39 -0.94 0.20 0.56 2495
0.00 -0.00 0.19 -4.15 10.32 -0.83 0.09 0.52 2502
0.01 -0.00 0.34 -4.28 10.36 -0.73 0.00 0.47 2509
0.00 0.00 0.65 -4.28 9.84 -0.62 -0.04 0.44 2516
0.00 0.00 0.76 -4.27 10.07 -0.52 -0.04 0.42 2524
0.00 0.00 0.94 -4.40 10.15 -0.44 0.01 0.42 2531
0.00 0.00 0.92 -4.47 10.55 -0.37 0.09 0.44 2538
0.00 -0.00 0.47 -4.46 10.96 -0.36 0.13 0.48 2545
0.00 0.00 -0.00 -4.64 11.33 -0.41 0.12 0.56 2552
0.00 0.00 -0.06 -4.97 11.60 -0.49 0.04 0.59 2560
0.00 0.00 0.27 -5.53 11.49 -0.60 -0.06 0.65 2567
0.00 0.00 0.71 -6.05 10.97 -0.74 -0.05 0.69 2574
0.00 0.00 1.36 -6.86 10.28 -0.87 0.06 0.73 2581
0.00 -0.00 1.88 -7.70 9.62 -0.95 0.23 0.77 2588
0.00 0.00 2.10 -8.54 8.80 -1.02 0.51 0.81 2595
0.00 0.00 1.89 -9.33 7.84 -1.03 0.82 0.86 2603
0.00 0.00 1.39 -9.99 6.81 -0.97 1.06 0.91 2610
0.00 0.00 0.01 -13.12 6.13 -0.82 1.28 0.97 2617
0.00 0.00 -2.12 -16.39 7.60 -0.35 1.34 1.05 2624
0.00 0.00 -2.76 -12.34 6.36 0.08 1.17 1.08 2631
0.00 0.00 -3.86 -14.58 3.09 0.23 0.73 1.03 2638
0.00 0.00 -4.13 -16.35 5.26 0.49 0.29 0.93 2646
0.00 0.00 -4.16 -17.28 5.80 0.77 -0.02 0.79 2653
0.00 0.00 -4.54 -20.88 3.20 1.02 -0.15 0.63 2660
-0.00 0.03 -5.13 -25.24 1.28 1.47 -0.33 0.45 2667
-0.00 0.02 -9.58 -36.38 -1.16 1.94 -0.96 0.11 2674
-0.00 0.04 -5.48 -18.68 14.99 2.60 -2.03 -0.36 2682
-0.01 0.12 -1.97 -4.68 38.43 0.92 -3.48 -0.44 2690
-0.03 0.26 2.41 -1.65 7.22 -0.53 0.03 0.15 2696
-0.00 0.38 0.29 -0.81 14.66 -0.44 -0.10 -0.13 2704
-0.04 0.50 -0.04 -1.17 11.04 -0.12 -0.31 -0.09 2711
-0.02 0.53 0.12 -0.30 10.25 -0.01 -0.04 -0.09 2717
-0.01 0.53 0.00 -1.39 9.94 -0.00 -0.01 -0.09 2724
-0.01 0.51 0.21 -0.50 9.72 0.01 0.04 -0.05 2732
-0.03 0.52 0.39 -0.98 9.72 0.02 0.08 -0.06 2739
-0.02 0.52 0.46 -1.10 9.78 0.01 0.08 -0.06 2746
-0.01 0.51 0.34 -0.98 9.83 0.00 0.08 -0.05 2753
-0.00 0.53 0.49 -0.89 9.85 0.01 0.08 -0.06 2760
-0.00 0.51 0.53 -0.92 9.84 0.01 0.07 -0.06 2767
-0.01 0.49 0.43 -0.96 9.82 0.02 0.06 -0.06 2775
-0.01 0.49 0.43 -0.92 9.79 0.02 0.05 -0.06 2782
-0.00 0.49 0.46 -0.91 9.77 0.02 0.06 -0.06 2789
0.02 0.47 0.44 -0.91 9.81 0.02 0.06 -0.06 2796
0.01 0.44 0.51 -0.93 9.77 0.02 0.06 -0.06 2803
0.00 0.42 0.53 -0.95 9.75 0.02 0.05 -0.08 2810
0.01 0.41 0.52 -0.93 9.75 0.02 0.04 -0.08 2818
0.01 0.35 0.43 -0.91 9.72 0.02 0.03 -0.08 2825
0.03 0.37 0.38 -0.97 9.80 0.00 0.03 -0.08 2832
0.04 0.36 0.38 -0.90 9.82 0.01 0.04 -0.07 2839
0.03 0.32 0.35 -0.92 9.80 0.01 0.04 -0.07 2846
0.03 0.31 0.39 -0.91 9.20 0.01 0.05 -0.06 2853
0.03 0.32 0.40 -0.90 9.75 0.01 0.06 -0.06 2861
0.04 0.33 0.39 -0.96 9.82 0.01 0.05 -0.06 2868
0.05 0.30 0.45 -0.91 9.71 0.02 0.06 -0.06 2875
0.06 0.26 0.44 -0.97 9.75 0.02 0.06 -0.07 2882
0.04 0.26 0.46 -0.94 9.77 0.02 0.07 -0.07 2889
0.04 0.28 0.42 -0.94 9.77 0.02 0.07 -0.07 2896
0.05 0.29 0.44 -0.97 9.79 0.02 0.07 -0.07 2904
0.05 0.26 0.44 -0.95 9.76 0.02 0.07 -0.07 2911
0.06 0.25 0.46 -0.98 9.75 0.02 0.07 -0.07 2918
0.08 0.21 0.46 -0.95 9.76 0.01 0.07 -0.07 2925
0.06 0.21 0.43 -0.96 9.75 0.02 0.07 -0.07 2932
0.05 0.18 0.47 -0.96 9.79 0.01 0.07 -0.07 2939
0.04 0.20 0.46 -0.94 9.77 0.01 0.07 -0.07 2947
0.03 0.21 0.48 -0.96 9.77 0.01 0.07 -0.06 2954
0.05 0.22 0.47 -0.95 9.79 0.01 0.07 -0.06 2961
0.07 0.19 0.49 -0.98 9.75 0.01 0.07 -0.06 2968
0.07 0.15 0.49 -0.97 9.76 0.01 0.07 -0.07 2975
0.06 0.15 0.45 -0.97 9.75 0.01 0.06 -0.06 2982
0.06 0.14 0.49 -0.97 9.77 0.01 0.07 -0.06 2990
0.10 0.10 0.51 -0.94 9.74 0.01 0.06 -0.07 2997
0.11 0.15 0.52 -0.96 9.75 0.01 0.06 -0.06 3004
0.11 0.10 0.48 -0.97 9.77 0.01 0.06 -0.07 3011
0.11 0.06 0.47 -0.95 9.76 0.01 0.06 -0.06 3018
0.10 0.06 0.52 -0.97 9.77 0.01 0.06 -0.06 3025
0.10 0.05 0.49 -0.94 9.77 0.01 0.06 -0.06 3033
0.11 0.05 0.53 -0.97 9.77 0.01 0.06 -0.06 3040
0.11 0.06 0.53 -0.98 9.78 0.01 0.06 -0.07 3047
0.10 0.07 0.50 -0.94 9.78 0.01 0.05 -0.06 3054
0.09 0.06 0.50 -0.95 9.73 0.01 0.05 -0.07 3061
0.10 0.07 0.50 -0.96 9.81 0.00 0.05 -0.06 3068
0.10 0.09 0.51 -0.99 9.76 0.00 0.04 -0.06 3076
0.10 0.09 0.51 -0.96 9.77 0.00 0.05 -0.07 3083
0.12 0.05 0.50 -1.00 9.75 0.00 0.05 -0.07 3090
0.13 0.06 0.49 -0.99 9.79 0.01 0.05 -0.07 3097
0.14 0.05 0.47 -0.98 9.79 0.01 0.05 -0.07 3104
0.13 0.06 0.50 -1.00 9.74 0.01 0.05 -0.07 3111
0.13 0.05 0.49 -0.99 9.76 0.01 0.05 -0.07 3119
0.12 0.06 0.48 -1.00 9.73 0.00 0.05 -0.07 3126
0.13 0.04 0.50 -0.99 9.78 0.00 0.05 -0.06 3133
0.12 0.06 0.51 -0.98 9.78 0.00 0.05 -0.06 3140
0.12 0.05 0.53 -1.00 9.78 -0.00 0.05 -0.06 3147
0.11 0.06 0.54 -1.00 9.77 -0.00 0.05 -0.06 3154
0.13 0.05 0.52 -0.98 9.79 -0.00 0.05 -0.07 3162
0.13 0.05 0.49 -1.02 9.73 0.00 0.05 -0.07 3169
0.14 0.03 0.52 -0.99 9.74 -0.01 0.05 -0.07 3176
0.13 0.04 0.47 -1.01 9.70 -0.01 0.06 -0.07 3183
0.12 0.03 0.50 -1.00 9.75 -0.01 0.06 -0.07 3190
0.07 0.04 0.53 -0.99 9.74 -0.01 0.06 -0.07 3197
0.10 0.04 0.54 -1.01 9.75 -0.01 0.06 -0.06 3205
0.10 0.04 0.50 -0.98 9.76 -0.01 0.07 -0.06 3212
0.10 0.05 0.53 -0.99 9.74 -0.01 0.07 -0.10 3219
0.09 0.04 0.58 -0.97 9.78 -0.01 0.07 -0.07 3226
0.10 0.04 0.57 -0.98 9.74 -0.01 0.08 -0.07 3233
0.09 0.06 0.60 -0.96 9.75 -0.01 0.07 -0.07 3240
0.09 0.05 0.52 -0.98 9.76 -0.01 0.07 -0.07 3248
0.10 0.05 0.57 -0.99 9.73 -0.00 0.07 -0.07 3255
0.09 0.03 0.56 -0.97 9.79 0.00 0.07 -0.07 3262
0.09 0.05 0.56 -0.97 9.81 0.01 0.07 -0.06 3269
0.08 0.04 0.55 -0.97 9.82 0.02 0.07 -0.06 3276
0.09 0.00 0.51 -0.99 9.81 0.02 0.07 -0.06 3283
0.08 0.01 0.57 -0.99 9.81 0.03 0.08 -0.06 3291
0.11 0.00 0.59 -0.96 9.84 0.05 0.09 -0.05 3298
0.10 0.00 0.51 -0.96 9.93 0.06 0.11 -0.05 3305
0.08 -0.01 0.53 -1.02 9.97 0.10 0.13 -0.05 3312
0.07 -0.00 0.62 -1.03 10.09 0.16 0.17 -0.04 3319
0.07 -0.01 0.71 -1.03 10.25 0.23 0.21 -0.04 3326
0.07 -0.01 0.83 -1.00 10.57 0.35 0.22 -0.05 3334
0.08 -0.01 0.86 -1.02 11.23 0.54 0.26 -0.08 3341
0.05 -0.01 0.92 -0.99 12.50 0.88 0.27 -0.16 3348
0.03 -0.00 1.13 -1.33 14.01 1.37 0.29 -0.20 3355
0.02 -0.00 0.93 -1.27 15.13 1.86 0.24 -0.26 3362
0.03 -0.00 0.91 -1.37 14.46 2.23 0.25 -0.29 3369
0.03 -0.00 0.77 -1.39 12.86 2.34 0.18 -0.29 3377
0.04 -0.00 1.06 -1.55 13.12 2.41 0.14 -0.29 3384
0.01 -0.00 1.31 -1.66 13.61 2.52 0.14 -0.31 3391
0.03 -0.00 1.60 -1.65 14.03 2.64 0.17 -0.33 3398
0.01 -0.00 1.66 -1.94 13.89 2.75 0.23 -0.36 3405
0.02 -0.00 2.07 -2.22 13.92 2.82 0.33 -0.39 3412
0.01 -0.00 2.57 -2.62 14.66 2.81 0.45 -0.43 3420
0.00 0.00 2.91 -2.64 15.11 2.77 0.66 -0.47 3427
0.00 0.00 2.79 -1.82 14.69 2.67 0.85 -0.52 3434
0.00 -0.00 1.91 -0.51 13.84 2.48 0.89 -0.55 3441
0.00 0.00 0.38 0.79 13.00 2.25 0.75 -0.56 3448
0.00 0.00 -0.09 2.60 12.65 2.07 0.50 -0.54 3456
0.01 -0.00 -0.51 4.34 11.79 1.87 0.22 -0.50 3463
0.00 0.00 -0.58 8.43 11.36 1.65 -0.03 -0.51 3470
0.00 0.00 -0.14 8.31 8.90 1.33 -0.17 -0.57 3477
0.00 0.00 -0.37 9.09 9.52 1.01 -0.24 -0.66 3484
0.00 0.00 -0.16 8.17 9.25 0.72 -0.25 -0.80 3491
0.00 0.00 -0.49 8.10 9.76 0.40 -0.28 -0.91 3499
0.00 0.00 -0.49 7.78 8.77 0.20 -0.33 -1.02 3506
0.00 0.00 -0.33 7.34 7.68 0.04 -0.43 -1.09 3513
0.00 0.00 0.01 6.92 7.34 -0.06 -0.55 -1.16 3520
0.00 0.00 1.12 6.67 7.52 -0.14 -0.61 -1.22 3527
0.00 0.00 1.06 6.44 7.85 -0.24 -0.65 -1.25 3534
0.00 0.00 1.45 6.23 7.98 -0.34 -0.66 -1.27 3542
0.00 0.00 1.67 6.00 7.94 -0.48 -0.66 -1.26 3549
0.00 0.00 1.95 5.53 7.99 -0.60 -0.68 -1.23 3556
0.00 0.00 2.17 4.96 8.07 -0.71 -0.70 -1.18 3563
0.00 0.00 2.55 4.51 8.18 -0.80 -0.71 -1.11 3570
0.00 0.00 2.93 3.98 8.34 -0.88 -0.70 -1.02 3577
0.00 0.00 3.37 3.65 8.65 -0.93 -0.64 -0.91 3585
0.00 0.00 3.72 3.42 9.04 -1.02 -0.55 -0.80 3592
0.00 0.00 3.95 3.26 9.80 -1.12 -0.40 -0.66 3599
0.00 0.00 4.17 3.11 10.28 -1.27 -0.25 -0.53 3606
0.00 0.00 4.11 2.78 10.64 -1.45 -0.05 -0.37 3613
0.00 0.00 3.86 2.27 10.76 -1.59 0.11 -0.18 3620
0.00 0.00 3.36 1.70 10.96 -1.73 0.24 -0.01 3628
0.00 0.00 2.87 0.90 10.99 -1.81 0.30 0.18 3635
0.00 0.00 2.64 0.26 11.05 -1.86 0.30 0.38 3642
0.00 0.00 2.68 -0.27 11.08 -1.86 0.26 0.52 3649
0.00 0.00 2.84 -0.73 11.06 -1.85 0.24 0.66 3656
0.00 0.00 3.09 -1.01 11.11 -1.81 0.24 0.77 3663
0.00 -0.00 3.23 -1.29 11.12 -1.78 0.27 0.85 3671
0.00 0.00 3.23 -1.60 11.09 -1.73 0.32 0.90 3678
0.00 0.00 2.96 -1.87 11.11 -1.66 0.37 0.92 3685
0.00 0.00 2.51 -2.15 11.01 -1.58 0.38 0.93 3692
0.00 0.00 2.10 -2.37 11.18 -1.48 0.36 0.92 3699
0.00 0.00 1.79 -2.38 11.62 -1.38 0.31 0.90 3706
0.00 0.00 1.65 -2.33 12.31 -1.33 0.27 0.87 3714
0.00 0.00 1.73 -2.28 12.83 -1.35 0.28 0.84 3721
0.00 0.00 1.92 -2.39 13.04 -1.42 0.38 0.79 3728
0.00 0.00 1.85 -2.62 12.94 -1.52 0.49 0.74 3735
0.00 0.00 1.62 -3.11 12.48 -1.60 0.61 0.66 3742
-0.00 0.00 1.29 -3.65 11.89 -1.61 0.68 0.58 3749
0.00 -0.00 0.94 -4.16 11.42 -1.57 0.71 0.50 3757
0.00 0.00 0.78 -4.62 11.08 -1.49 0.69 0.39 3764
0.00 0.00 0.63 -4.74 10.73 -1.37 0.65 0.29 3771
0.00 0.00 0.44 -4.85 10.60 -1.22 0.58 0.18 3778
0.00 0.00 0.02 -4.67 10.30 -1.10 0.50 0.06 3785
0.00 0.00 -0.25 -4.59 10.14 -0.96 0.37 -0.02 3792
0.00 0.00 -0.59 -4.50 9.94 -0.81 0.19 -0.09 3800
0.00 0.00 -0.80 -4.32 10.21 -0.73 0.04 -0.14 3807
0.00 0.00 -0.94 -4.26 10.28 -0.63 -0.09 -0.16 3814
0.00 0.00 -1.23 -4.28 10.19 -0.57 -0.17 -0.17 3821
0.00 0.00 -1.25 -4.37 9.85 -0.51 -0.15 -0.14 3828
0.00 -0.00 -1.11 -4.44 9.88 -0.44 -0.08 -0.07 3835
0.00 0.00 -0.96 -4.67 10.13 -0.38 -0.03 0.01 3843
0.00 0.00 -0.96 -4.86 10.73 -0.35 -0.02 0.07 3850
0.00 0.00 -1.22 -5.04 11.26 -0.37 -0.07 0.13 3857
0.00 0.00 -1.33 -5.37 11.30 -0.45 -0.14 0.17 3864
0.00 0.00 -1.05 -5.90 10.97 -0.55 -0.21 0.21 3871
0.00 0.00 -0.54 -6.44 10.39 -0.64 -0.17 0.24 3878
0.00 0.00 0.08 -7.17 9.75 -0.71 -0.09 0.26 3886
0.00 0.00 0.49 -8.12 8.95 -0.72 0.13 0.27 3893
0.00 0.00 0.67 -8.87 8.27 -0.70 0.39 0.27 3900
0.00 0.00 0.48 -9.66 7.61 -0.65 0.68 0.29 3907
0.00 0.00 -0.23 -10.19 7.29 -0.60 0.92 0.32 3914
0.00 0.00 -1.05 -10.57 7.24 -0.54 1.03 0.35 3921
0.00 0.00 -2.06 -10.76 6.71 -0.50 1.08 0.39 3929
0.00 0.00 -2.78 -11.75 6.11 -0.47 1.05 0.43 3936
0.00 0.00 -5.76 -19.62 14.53 -0.01 0.81 0.49 3943
0.00 0.00 -2.70 -13.69 -1.81 0.58 0.89 0.52 3950
0.00 0.00 -4.67 -18.08 2.09 0.69 0.65 0.46 3957
0.00 0.00 -5.51 -20.90 1.66 1.08 0.06 0.27 3964
-0.00 0.02 -6.81 -27.64 0.85 1.49 -0.52 -0.05 3972
-0.00 0.02 -6.75 -32.40 -1.82 2.02 -1.01 -0.39 3979
-0.01 0.10 -3.03 -0.75 1.94 2.97 -1.50 -0.83 3986
-0.02 0.21 6.80 -10.50 78.47 3.61 -4.12 -1.14 3994
-0.03 0.33 1.02 -5.47 9.59 -0.44 -0.17 0.04 4000
-0.01 0.38 2.91 -1.41 11.02 -0.44 0.08 -0.12 4008
-0.00 0.51 -1.89 -4.56 11.72 -0.17 -0.35 -0.12 4016
-0.01 0.59 -0.29 0.30 10.67 -0.05 -0.14 -0.07 4022
-0.03 0.57 0.08 -1.50 10.02 -0.03 -0.03 -0.09 4029
-0.03 0.62 -0.06 -0.49 9.77 -0.02 0.02 -0.06 4036
-0.03 0.62 0.16 -0.89 9.78 -0.02 0.08 -0.06 4043
-0.03 0.61 0.46 -0.88 9.83 -0.02 0.09 -0.06 4050
-0.03 0.64 0.47 -0.90 9.78 -0.03 0.08 -0.06 4058
-0.03 0.63 0.33 -0.86 9.80 -0.04 0.03 -0.06 4065
-0.04 0.66 0.32 -0.89 9.21 -0.04 0.07 -0.07 4072
-0.03 0.67 0.29 -0.83 9.83 -0.03 0.07 -0.07 4079
-0.02 0.69 0.34 -0.81 9.82 -0.02 0.08 -0.06 4086
-0.02 0.67 0.35 -0.86 9.82 -0.02 0.08 -0.06 4093
-0.04 0.70 0.38 -0.80 9.81 -0.01 0.08 -0.07 4101
-0.04 0.71 0.41 -0.80 9.79 -0.01 0.08 -0.06 4108
-0.04 0.71 0.41 -0.78 9.77 -0.01 0.07 -0.06 4115
-0.03 0.68 0.44 -0.79 9.80 -0.01 0.06 -0.06 4122
-0.01 0.68 0.41 -0.76 9.81 -0.01 0.05 -0.06 4129
-0.03 0.71 0.36 -0.79 9.76 -0.01 0.05 -0.07 4136
-0.04 0.70 0.40 -0.84 9.80 -0.01 0.06 -0.07 4144
-0.04 0.70 0.33 -0.81 9.78 -0.01 0.06 -0.07 4151
-0.04 0.70 0.37 -0.81 9.79 -0.01 0.06 -0.07 4158
-0.03 0.69 0.35 -0.80 9.78 -0.01 0.06 -0.07 4165
-0.02 0.68 0.36 -0.76 9.81 -0.01 0.06 -0.06 4172
-0.03 0.67 0.32 -0.79 9.82 -0.01 0.06 -0.07 4179
-0.03 0.65 0.38 -0.78 9.75 -0.01 0.06 -0.06 4187
-0.04 0.64 0.36 -0.76 9.81 -0.00 0.07 -0.06 4194
-0.03 0.63 0.37 -0.78 9.78 -0.00 0.06 -0.06 4201
-0.03 0.63 0.38 -0.75 9.71 -0.03 0.07 -0.06 4208
-0.02 0.62 0.35 -0.74 9.78 0.00 0.07 -0.05 4215
-0.03 0.61 0.38 -0.81 9.74 -0.00 0.06 -0.05 4222
-0.03 0.59 0.37 -0.74 9.76 -0.00 0.07 -0.05 4230
-0.04 0.59 0.41 -0.76 9.77 -0.01 0.07 -0.06 4237
-0.03 0.60 0.41 -0.79 9.75 -0.00 0.07 -0.06 4244
-0.03 0.61 0.40 -0.80 9.78 -0.00 0.07 -0.06 4251
-0.02 0.60 0.38 -0.79 9.73 -0.00 0.07 -0.06 4258
-0.02 0.60 0.37 -0.77 9.75 -0.00 0.07 -0.06 4265
-0.02 0.59 0.38 -0.78 9.70 -0.00 0.07 -0.06 4273
-0.04 0.60 0.39 -0.79 9.75 -0.00 0.07 -0.06 4280
-0.02 0.61 0.43 -0.77 9.73 -0.00 0.07 -0.06 4287
-0.02 0.59 0.41 -0.77 9.82 0.00 0.06 -0.05 4294
-0.02 0.57 0.41 -0.79 9.77 0.03 0.06 -0.05 4301
-0.02 0.57 0.42 -0.79 9.80 0.00 0.07 -0.05 4308
-0.02 0.56 0.42 -0.81 9.76 0.00 0.06 -0.05 4316
-0.02 0.57 0.41 -0.78 9.79 -0.00 0.06 -0.05 4323
-0.02 0.56 0.41 -0.78 9.74 0.00 0.06 -0.06 4330
-0.00 0.52 0.43 -0.79 9.79 -0.03 0.05 -0.06 4337
-0.02 0.52 0.45 -0.80 9.74 0.01 0.05 -0.05 4344
-0.01 0.49 0.45 -0.82 9.74 0.00 0.05 -0.06 4352
-0.02 0.50 0.42 -0.79 9.82 -0.00 0.04 -0.06 4359
-0.02 0.50 0.44 -0.78 9.74 0.00 0.04 -0.05 4366
-0.01 0.49 0.45 -0.76 9.79 0.00 0.04 -0.06 4373
-0.00 0.46 0.42 -0.82 9.81 0.00 0.03 -0.06 4380
-0.01 0.47 0.45 -0.79 9.77 0.00 0.03 -0.06 4387
-0.00 0.43 0.40 -0.75 9.76 0.00 0.04 -0.06 4395
-0.02 0.43 0.40 -0.80 9.78 0.00 0.03 -0.06 4402
-0.02 0.45 0.39 -0.82 9.78 0.00 0.04 -0.06 4409
-0.01 0.41 0.41 -0.81 9.76 0.00 0.05 -0.06 4416
0.01 0.39 0.40 -0.80 9.77 0.00 0.05 -0.06 4423
-0.00 0.40 0.41 -0.84 9.76 0.00 0.05 -0.06 4430
0.00 0.39 0.41 -0.81 9.78 0.00 0.06 -0.06 4438
-0.01 0.40 0.45 -0.82 9.80 0.00 0.06 -0.06 4445
0.01 0.40 0.44 -0.86 9.76 0.00 0.06 -0.06 4452
0.01 0.40 0.42 -0.78 9.77 0.00 0.06 -0.06 4459
0.02 0.38 0.44 -0.78 9.74 0.00 0.06 -0.07 4466
0.01 0.37 0.44 -0.81 9.73 0.00 0.06 -0.07 4473
0.01 0.35 0.45 -0.81 9.79 0.00 0.05 -0.07 4481
-0.00 0.36 0.49 -0.81 9.72 0.00 0.05 -0.07 4488
0.00 0.37 0.45 -0.80 9.77 -0.00 0.05 -0.07 4495
0.02 0.33 0.46 -0.81 9.81 0.00 0.04 -0.07 4502
0.02 0.32 0.41 -0.84 9.79 0.00 0.05 -0.07 4509
0.01 0.30 0.46 -0.81 9.74 0.01 0.05 -0.07 4516
0.01 0.30 0.46 -0.83 9.78 0.01 0.05 -0.07 4524
0.00 0.28 0.44 -0.81 9.77 0.01 0.05 -0.06 4531
0.01 0.28 0.43 -0.85 9.77 0.00 0.05 -0.07 4538
0.02 0.29 0.47 -0.85 9.77 0.00 0.04 -0.06 4545
0.01 0.29 0.46 -0.83 9.80 0.00 0.04 -0.07 4552
0.01 0.29 0.46 -0.85 9.75 0.00 0.04 -0.06 4559
0.00 0.26 0.46 -0.82 9.70 0.00 0.04 -0.07 4567
0.00 0.26 0.46 -0.82 9.79 0.01 0.05 -0.07 4574
0.01 0.26 0.44 -0.83 9.76 0.01 0.05 -0.07 4581
0.03 0.26 0.46 -0.80 9.76 0.01 0.05 -0.07 4588
0.01 0.26 0.50 -0.81 9.79 0.02 0.05 -0.07 4595
0.02 0.24 0.50 -0.80 9.81 0.02 0.05 -0.07 4602
0.01 0.23 0.49 -0.82 9.81 0.03 0.05 -0.08 4610
0.01 0.17 0.47 -0.83 9.78 0.04 0.05 -0.08 4617
0.03 0.08 0.48 -0.88 9.85 0.05 0.05 -0.07 4624
0.04 0.06 0.53 -0.86 9.87 0.06 0.05 -0.07 4631
0.03 0.01 0.48 -0.91 9.92 0.08 0.06 -0.07 4638
0.03 -0.00 0.46 -0.86 10.01 0.13 0.08 -0.08 4645
0.03 0.01 0.51 -0.96 10.08 0.16 0.11 -0.07 4653
0.04 0.00 0.51 -0.94 10.40 0.24 0.17 -0.07 4660
0.04 -0.00 0.23 -0.78 10.62 0.39 0.25 -0.07 4667
0.05 -0.01 0.86 -0.95 11.50 0.62 0.34 -0.11 4674
0.04 -0.00 1.14 -1.07 13.30 1.20 0.45 -0.19 4681
0.03 -0.00 1.36 -1.08 15.72 1.89 0.44 -0.28 4688
0.02 0.01 0.98 -0.74 14.74 2.37 0.30 -0.34 4696
0.03 -0.00 1.23 -1.05 13.42 2.54 0.13 -0.38 4703
0.03 -0.00 1.10 -1.46 12.93 2.59 0.01 -0.39 4710
0.02 -0.00 1.35 -1.48 13.69 2.67 -0.04 -0.42 4717
0.03 -0.00 1.77 -1.71 13.53 2.76 0.01 -0.45 4724
0.02 -0.00 2.41 -1.26 13.85 2.86 0.08 -0.51 4731
0.05 -0.01 2.68 -2.07 14.26 2.93 0.18 -0.60 4739
0.04 -0.00 2.91 -2.64 14.96 2.97 0.33 -0.67 4746
0.01 -0.00 2.98 -2.51 15.01 2.95 0.43 -0.71 4753
0.01 -0.00 2.76 -1.79 15.65 2.86 0.55 -0.76 4760
0.01 -0.00 2.04 -0.32 15.46 2.74 0.57 -0.79 4767
0.00 -0.00 0.21 1.53 14.72 2.57 0.42 -0.80 4774
0.00 0.00 -0.30 2.31 13.96 2.34 0.05 -0.74 4782
0.00 -0.00 -0.59 3.71 12.96 2.02 -0.25 -0.70 4789
0.01 -0.00 0.13 5.93 12.16 1.76 -0.48 -0.73 4796
0.01 -0.00 0.78 6.62 10.51 1.58 -0.58 -0.83 4803
0.00 0.00 1.35 6.64 10.08 1.35 -0.53 -0.97 4810
0.00 0.00 1.24 7.65 10.49 1.10 -0.44 -1.12 4817
0.00 0.00 0.88 7.81 9.62 0.79 -0.39 -1.23 4825
0.00 0.00 0.54 7.37 9.11 0.54 -0.40 -1.33 4832
0.01 -0.00 0.43 6.93 8.57 0.38 -0.49 -1.38 4839
0.01 -0.00 0.57 6.70 8.21 0.21 -0.53 -1.42 4846
0.00 -0.00 0.83 6.37 7.90 0.04 -0.60 -1.44 4853
0.00 0.00 1.21 5.53 7.61 -0.08 -0.64 -1.44 4860
0.00 0.00 1.52 5.83 7.45 -0.25 -0.66 -1.42 4868
0.00 -0.00 1.91 5.46 7.28 -0.38 -0.65 -1.39 4875
0.00 0.00 2.29 5.09 7.32 -0.51 -0.63 -1.34 4882
0.00 0.00 2.91 4.73 7.35 -0.66 -0.55 -1.26 4889
0.00 0.00 3.38 4.34 7.17 -0.75 -0.44 -1.17 4896
0.00 0.00 3.86 3.86 7.09 -0.86 -0.29 -1.07 4903
0.00 0.00 4.18 3.20 7.28 -0.93 -0.11 -0.92 4911
0.00 -0.00 4.27 2.62 7.38 -0.99 0.04 -0.77 4918
0.00 0.00 4.31 2.06 7.67 -1.05 0.21 -0.57 4925
0.00 0.00 4.29 1.55 8.27 -1.10 0.32 -0.34 4932
0.00 0.00 4.14 1.22 8.78 -1.16 0.41 -0.13 4939
0.00 0.00 3.95 0.85 9.15 -1.23 0.45 0.13 4946
0.00 0.00 3.90 0.46 9.49 -1.30 0.48 0.34 4954
0.00 -0.00 3.78 0.06 9.82 -1.36 0.49 0.58 4961
0.00 0.00 3.70 -0.24 10.10 -1.40 0.49 0.79 4968
0.00 0.00 3.56 -0.50 10.33 -1.45 0.50 0.94 4975
0.00 0.00 3.47 -0.76 10.36 -1.48 0.51 1.08 4982
0.00 0.00 3.30 -1.27 10.38 -1.50 0.54 1.16 4989
0.00 0.00 3.10 -1.79 10.42 -1.49 0.57 1.21 4997
0.00 -0.00 2.80 -2.30 10.44 -1.45 0.62 1.21 5004
0.00 0.00 2.40 -2.62 10.42 -1.38 0.64 1.19 5011
0.00 0.00 1.82 -2.93 10.29 -1.27 0.63 1.15 5018
0.00 0.00 1.45 -2.99 10.37 -1.20 0.59 1.12 5025
0.00 0.00 1.29 -3.05 10.72 -1.10 0.53 1.07 5032
0.00 0.00 1.20 -3.07 11.02 -1.04 0.49 1.01 5040
0.00 0.00 1.10 -2.89 11.27 -1.00 0.46 0.97 5047
0.00 0.00 1.16 -2.78 11.87 -1.01 0.44 0.93 5054
0.00 0.00 1.35 -2.68 12.49 -1.07 0.43 0.90 5061
0.00 0.00 1.61 -2.71 12.53 -1.18 0.46 0.88 5068
0.00 0.00 1.60 -2.88 12.15 -1.28 0.47 0.86 5075
0.00 0.00 1.55 -3.19 12.02 -1.36 0.47 0.85 5083
0.00 0.00 1.54 -3.49 11.80 -1.40 0.45 0.84 5090
0.00 0.00 1.61 -3.91 11.50 -1.41 0.44 0.83 5097
0.00 0.00 1.47 -4.05 11.24 -1.40 0.39 0.82 5104
0.00 0.00 1.74 -4.33 10.96 -1.36 0.38 0.80 5111
0.00 0.00 1.78 -4.51 10.59 -1.28 0.39 0.79 5118
0.00 -0.00 1.65 -4.63 10.10 -1.18 0.36 0.77 5126
0.00 0.00 1.59 -4.82 9.87 -1.07 0.34 0.73 5133
0.00 0.00 1.60 -4.98 9.47 -0.91 0.32 0.71 5140
0.00 0.00 1.46 -5.20 9.29 -0.73 0.27 0.68 5147
0.00 0.00 1.47 -5.17 9.55 -0.56 0.22 0.64 5154
0.00 0.00 1.55 -5.14 10.36 -0.40 0.19 0.62 5161
0.00 0.00 1.37 -4.78 11.32 -0.33 0.14 0.62 5169
0.00 0.00 0.88 -4.68 11.60 -0.33 0.07 0.61 5176
0.00 0.00 0.55 -4.46 11.91 -0.42 -0.04 0.62 5183
0.00 0.00 0.62 -4.55 12.11 -0.54 -0.14 0.63 5190
0.00 0.00 1.04 -4.70 12.11 -0.70 -0.18 0.63 5197
0.00 0.00 1.61 -4.91 11.60 -0.84 -0.11 0.63 5204
0.00 -0.00 2.01 -5.21 10.72 -0.98 0.04 0.60 5212
0.00 0.00 2.16 -5.78 9.80 -1.05 0.27 0.56 5219
0.00 0.00 2.13 -6.44 8.89 -1.04 0.52 0.50 5226
0.00 0.00 1.85 -7.10 8.29 -0.94 0.72 0.43 5233
0.00 0.00 1.34 -7.67 8.13 -0.77 0.89 0.34 5240
0.00 0.00 0.90 -8.00 8.26 -0.63 0.98 0.26 5248
0.00 0.00 0.23 -8.07 8.67 -0.49 1.02 0.17 5255
0.00 0.00 -0.32 -7.93 9.14 -0.44 0.99 0.09 5262
0.00 0.00 -0.63 -7.77 9.44 -0.48 0.92 0.04 5269
0.00 0.00 -0.95 -7.77 9.07 -0.62 0.86 -0.00 5276
0.00 0.00 -1.43 -9.10 8.79 -0.74 0.81 -0.01 5283
0.00 0.00 -4.54 -12.30 12.89 -0.58 0.38 -0.03 5291
0.00 0.00 -3.72 -10.51 6.22 -0.41 0.09 -0.09 5298
0.00 0.00 -4.51 -12.30 5.23 -0.25 -0.13 -0.10 5305
0.00 0.00 -4.14 -14.09 4.67 -0.10 -0.38 -0.13 5312
0.00 0.00 -5.63 -17.08 5.75 0.08 -0.64 -0.19 5319
0.00 0.00 -6.09 -17.93 4.16 0.38 -0.97 -0.24 5326
-0.00 0.03 -9.17 -23.03 2.93 0.72 -1.39 -0.26 5334
-0.00 0.01 -9.25 -35.16 -2.53 1.13 -1.64 -0.12 5341
-0.01 0.08 -3.71 -7.92 4.41 2.16 -1.82 -0.05 5348
-0.02 0.18 -3.11 -6.73 21.59 3.31 -1.70 -0.29 5355
-0.02 0.37 3.54 1.61 31.72 1.30 -3.24 -0.43 5363
-0.03 0.53 1.92 -0.28 8.98 -0.18 -0.13 0.05 5369
-0.01 0.57 -1.70 -3.97 11.13 -0.22 -0.02 -0.08 5378
-0.02 0.63 0.15 -2.10 10.38 -0.09 -0.10 -0.07 5385
-0.02 0.59 0.33 -0.46 10.16 -0.01 0.01 -0.02 5391
-0.03 0.59 -0.04 -1.02 9.80 -0.00 0.05 -0.04 5398
-0.03 0.61 0.35 -0.60 9.58 -0.00 0.09 -0.03 5405
-0.02 0.64 0.57 -0.84 9.76 0.01 0.11 -0.03 5412
-0.00 0.59 0.56 -1.06 9.73 0.00 0.09 -0.03 5420
-0.01 0.60 0.52 -0.81 9.68 -0.00 0.07 -0.03 5427
-0.00 0.59 0.54 -0.91 9.77 -0.00 0.06 -0.04 5434
-0.01 0.58 0.50 -0.85 9.62 -0.00 0.04 -0.04 5441
-0.00 0.60 0.47 -0.83 9.80 0.00 0.04 -0.05 5448
-0.01 0.57 0.50 -0.80 9.79 0.01 0.03 -0.05 5455
-0.01 0.57 0.54 -0.82 9.69 0.01 0.03 -0.06 5463
-0.01 0.55 0.50 -0.79 9.71 0.01 0.02 -0.06 5470
-0.01 0.57 0.44 -0.80 9.74 0.01 0.02 -0.06 5477
-0.02 0.57 0.41 -0.85 9.75 0.01 0.02 -0.06 5484
-0.00 0.56 0.34 -0.86 9.83 0.01 0.03 -0.06 5491
-0.00 0.54 0.39 -0.84 9.78 0.00 0.05 -0.06 5498
-0.00 0.52 0.40 -0.86 9.76 0.00 0.05 -0.06 5506
0.00 0.48 0.42 -0.85 9.83 0.00 0.06 -0.05 5513
0.00 0.47 0.44 -0.85 9.82 0.00 0.07 -0.05 5520
-0.01 0.46 0.47 -0.88 9.77 -0.00 0.06 -0.06 5527
-0.01 0.48 0.48 -0.85 9.82 0.00 0.06 -0.06 5534
0.01 0.42 0.46 -0.83 9.81 0.00 0.06 -0.06 5541
0.02 0.41 0.48 -0.84 9.76 0.00 0.06 -0.06 5549
0.01 0.40 0.48 -0.85 9.75 0.00 0.06 -0.06 5556
0.02 0.37 0.48 -0.85 9.78 0.00 0.05 -0.06 5563
0.01 0.40 0.46 -0.84 9.79 0.01 0.05 -0.06 5570
0.02 0.40 0.43 -0.84 9.78 0.00 0.06 -0.06 5577
0.04 0.39 0.43 -0.83 9.74 0.00 0.06 -0.07 5584
0.04 0.37 0.42 -0.84 9.75 0.01 0.07 -0.06 5592
0.03 0.37 0.44 -0.84 9.80 0.00 0.07 -0.07 5599
0.02 0.34 0.52 -0.88 9.79 0.00 0.07 -0.06 5606
0.02 0.30 0.47 -0.85 9.80 0.01 0.07 -0.06 5613
0.03 0.28 0.47 -0.83 9.75 0.01 0.07 -0.06 5620
0.04 0.26 0.49 -0.82 9.76 0.01 0.07 -0.06 5627
0.03 0.25 0.54 -0.87 9.75 0.01 0.07 -0.06 5635
0.03 0.27 0.48 -0.86 9.76 0.01 0.07 -0.06 5642
0.03 0.28 0.48 -0.84 9.75 0.01 0.07 -0.06 5649
0.03 0.27 0.52 -0.86 9.70 0.01 0.07 -0.06 5656
0.03 0.30 0.50 -0.85 9.75 0.01 0.07 -0.06 5663
0.04 0.29 0.45 -0.84 9.77 0.01 0.07 -0.06 5670
0.03 0.25 0.47 -0.86 9.79 0.01 0.07 -0.06 5678
0.03 0.28 0.49 -0.86 9.78 0.01 0.07 -0.06 5685
0.01 0.23 0.49 -0.88 9.76 0.00 0.07 -0.06 5692
0.02 0.26 0.49 -0.89 9.76 0.00 0.07 -0.06 5699
0.02 0.22 0.53 -0.88 9.76 0.00 0.07 -0.06 5706
0.03 0.23 0.57 -0.87 9.75 0.01 0.07 -0.06 5713
0.01 0.22 0.52 -0.87 9.76 0.00 0.06 -0.06 5721
0.01 0.20 0.52 -0.90 9.79 0.00 0.06 -0.06 5728
0.00 0.19 0.49 -0.86 9.73 -0.00 0.06 -0.06 5735
0.01 0.20 0.53 -0.89 9.75 -0.00 0.06 -0.07 5742
0.02 0.20 0.52 -0.86 9.75 -0.00 0.06 -0.07 5749
0.02 0.21 0.50 -0.85 9.79 -0.00 0.06 -0.06 5756
0.01 0.21 0.52 -0.86 9.78 0.00 0.06 -0.06 5764
0.01 0.23 0.55 -0.91 9.76 0.00 0.05 -0.06 5771
0.00 0.24 0.52 -0.87 9.79 0.00 0.05 -0.07 5778
0.00 0.25 0.54 -0.87 9.78 -0.00 0.04 -0.03 5785
0.01 0.26 0.52 -0.88 9.76 -0.00 0.04 -0.07 5792
0.02 0.25 0.53 -0.87 9.77 -0.01 0.04 -0.06 5799
0.02 0.26 0.54 -0.87 9.77 -0.01 0.04 -0.06 5807
0.00 0.26 0.52 -0.86 9.76 -0.01 0.04 -0.06 5814
-0.00 0.26 0.52 -0.85 9.74 -0.01 0.04 -0.06 5821
0.02 0.26 0.54 -0.87 9.75 -0.01 0.04 -0.06 5828
0.02 0.25 0.53 -0.90 9.74 -0.00 0.04 -0.06 5835
0.02 0.25 0.51 -0.89 9.75 -0.01 0.05 -0.07 5842
0.02 0.25 0.51 -0.89 9.74 -0.01 0.05 -0.06 5850
0.01 0.25 0.51 -0.88 9.74 -0.01 0.05 -0.06 5857
0.01 0.26 0.51 -0.89 9.74 -0.01 0.05 -0.06 5864
0.02 0.27 0.55 -0.87 9.76 -0.01 0.06 -0.06 5871
0.02 0.27 0.56 -0.89 9.74 -0.01 0.06 -0.07 5878
0.01 0.26 0.54 -0.87 9.70 -0.01 0.06 -0.06 5885
0.01 0.26 0.52 -0.88 9.72 -0.01 0.06 -0.06 5893
-0.00 0.26 0.58 -0.89 9.77 -0.00 0.06 -0.07 5900
0.01 0.26 0.55 -0.85 9.74 -0.00 0.06 -0.07 5907
0.01 0.26 0.56 -0.85 9.75 0.00 0.06 -0.10 5914
0.03 0.23 0.59 -0.86 9.79 0.00 0.06 -0.07 5921
0.02 0.19 0.57 -0.82 9.82 0.01 0.07 -0.07 5928
0.03 0.14 0.54 -0.88 9.76 0.02 0.06 -0.06 5936
0.02 0.10 0.57 -0.90 9.81 0.02 0.07 -0.07 5943
0.03 0.08 0.57 -0.85 9.71 0.02 0.07 -0.07 5950
0.04 0.07 0.58 -0.90 9.80 0.03 0.07 -0.06 5957
0.05 0.06 0.58 -0.90 9.78 0.03 0.07 -0.07 5964
0.05 0.02 0.58 -0.88 9.81 0.04 0.07 -0.07 5971
0.06 -0.01 0.60 -0.91 9.81 0.04 0.07 -0.07 5979
0.05 0.00 0.57 -0.85 9.82 0.05 0.07 -0.06 5986
0.05 0.01 0.62 -0.90 9.91 0.07 0.09 -0.06 5993
0.06 -0.00 0.57 -0.96 9.94 0.10 0.11 -0.06 6000
0.04 -0.00 0.63 -0.90 10.09 0.14 0.14 -0.05 6007
0.03 -0.00 0.57 -0.99 10.21 0.21 0.19 -0.04 6014
0.04 -0.00 1.20 -0.97 10.62 0.31 0.24 -0.04 6022
0.05 -0.01 0.92 -1.01 10.85 0.49 0.28 -0.07 6029
0.06 -0.01 0.84 -1.07 11.63 0.81 0.37 -0.11 6036
0.05 -0.01 0.82 -1.35 13.29 1.32 0.44 -0.15 6043
0.05 -0.00 0.89 -1.24 14.62 1.85 0.41 -0.18 6050
0.05 -0.00 0.89 -1.26 14.43 2.15 0.32 -0.23 6057
0.04 -0.00 0.97 -1.18 13.46 2.33 0.27 -0.25 6065
0.03 -0.00 1.05 -1.51 13.13 2.41 0.21 -0.26 6072
0.04 -0.00 1.31 -1.50 13.05 2.51 0.20 -0.27 6079
0.02 -0.00 1.52 -1.73 13.50 2.63 0.20 -0.31 6086
0.02 -0.00 1.73 -1.89 13.85 2.72 0.18 -0.34 6093
0.00 0.00 2.27 -1.95 14.29 2.84 0.18 -0.38 6100
0.00 0.00 3.04 -2.32 14.59 2.91 0.25 -0.45 6108
0.01 -0.00 3.73 -2.62 15.19 2.93 0.37 -0.53 6115
0.00 -0.00 3.63 -2.00 16.07 2.91 0.55 -0.59 6122
0.01 -0.00 2.38 -0.00 15.24 2.81 0.66 -0.63 6129
0.00 -0.00 0.85 2.41 13.79 2.58 0.54 -0.65 6136
0.00 0.00 -0.15 5.05 12.74 2.25 0.19 -0.62 6144
0.00 0.00 -0.60 7.68 11.28 1.95 -0.15 -0.56 6151
0.00 0.00 -0.12 9.08 10.36 1.61 -0.46 -0.51 6158
0.00 0.00 0.51 13.55 9.89 1.28 -0.58 -0.52 6165
0.00 0.00 0.99 15.49 8.74 0.83 -0.56 -0.57 6172
0.00 0.00 0.84 15.17 7.78 0.34 -0.43 -0.67 6179
0.00 0.00 0.37 14.21 8.19 0.03 -0.34 -0.79 6187
0.00 0.00 -0.17 13.54 8.97 -0.34 -0.26 -0.87 6194
0.00 0.00 -0.38 12.34 8.38 -0.67 -0.28 -0.95 6201
0.00 -0.00 -0.28 10.90 7.79 -0.86 -0.36 -0.99 6208
0.00 0.00 0.26 9.35 7.90 -1.02 -0.44 -1.03 6215
0.00 0.00 1.01 8.03 8.43 -1.13 -0.48 -1.08 6222
0.00 0.00 1.64 7.04 8.94 -1.26 -0.48 -1.11 6230
0.00 0.00 2.13 5.95 9.48 -1.38 -0.45 -1.14 6237
0.00 0.00 2.37 4.53 10.21 -1.53 -0.40 -1.15 6244
0.00 0.00 2.55 3.97 10.17 -1.65 -0.33 -1.13 6251
0.00 0.00 2.65 2.83 10.49 -1.72 -0.29 -1.09 6258
0.00 0.00 2.79 1.96 10.60 -1.78 -0.27 -1.02 6265
0.00 0.00 3.09 0.97 10.54 -1.79 -0.25 -0.92 6273
0.00 0.00 3.38 0.22 10.43 -1.78 -0.21 -0.79 6280
0.00 0.00 3.69 -0.27 10.40 -1.73 -0.14 -0.66 6287
0.00 0.00 3.90 -0.74 10.56 -1.67 -0.03 -0.52 6294
0.00 0.00 3.98 -0.93 10.84 -1.59 0.07 -0.40 6301
0.00 0.00 3.84 -1.16 11.02 -1.53 0.21 -0.26 6308
0.00 0.00 3.57 -1.31 11.19 -1.48 0.36 -0.12 6316
0.00 0.00 3.14 -1.51 11.30 -1.41 0.42 -0.00 6323
0.00 0.00 2.68 -1.74 11.42 -1.37 0.47 0.11 6330
0.00 0.00 2.27 -1.99 11.57 -1.31 0.48 0.22 6337
0.00 0.00 1.90 -2.02 11.67 -1.26 0.46 0.27 6344
0.00 0.00 1.76 -2.06 11.86 -1.23 0.45 0.32 6351
0.00 0.00 1.77 -2.08 11.80 -1.22 0.46 0.35 6359
0.00 0.00 1.68 -2.17 11.60 -1.21 0.51 0.38 6366
0.00 0.00 1.51 -2.21 11.39 -1.20 0.57 0.40 6373
0.00 -0.00 1.14 -2.38 11.07 -1.18 0.62 0.42 6380
0.00 0.00 0.74 -2.60 10.87 -1.13 0.62 0.44 6387
0.00 0.00 0.40 -2.72 10.82 -1.06 0.58 0.45 6394
0.00 0.00 0.18 -2.82 10.95 -0.98 0.51 0.47 6402
0.00 0.00 0.12 -2.81 11.06 -0.93 0.43 0.47 6409
0.01 -0.00 0.14 -2.85 10.87 -0.89 0.34 0.47 6416
0.01 -0.00 0.31 -2.98 10.50 -0.86 0.26 0.45 6423
0.00 0.00 0.57 -3.20 10.19 -0.82 0.24 0.42 6430
0.00 0.00 1.08 -3.40 10.33 -0.77 0.29 0.38 6437
0.00 0.00 1.57 -3.46 11.24 -0.74 0.42 0.33 6445
0.00 0.00 1.65 -3.43 11.71 -0.77 0.55 0.30 6452
0.01 -0.00 1.38 -3.47 11.46 -0.84 0.70 0.29 6459
0.00 -0.00 1.11 -3.60 11.14 -0.94 0.75 0.29 6466
0.00 0.00 0.51 -3.94 10.73 -1.00 0.73 0.31 6473
0.00 0.00 0.12 -4.44 9.97 -1.01 0.61 0.34 6480
0.00 0.00 0.02 -4.93 9.34 -0.93 0.51 0.37 6488
0.00 0.00 -0.01 -5.32 8.87 -0.80 0.36 0.40 6495
0.00 -0.00 -0.00 -5.73 8.59 -0.64 0.25 0.41 6502
0.00 0.00 -0.09 -5.69 8.62 -0.44 0.13 0.42 6509
0.00 0.00 -0.40 -5.58 9.00 -0.28 0.03 0.45 6516
0.00 0.00 -0.49 -5.48 9.41 -0.16 -0.06 0.48 6523
0.00 0.00 -0.50 -5.32 9.63 -0.11 -0.18 0.51 6531
0.00 0.00 -0.71 -5.60 9.85 -0.12 -0.30 0.54 6538
0.00 0.00 -0.40 -6.03 9.83 -0.17 -0.35 0.56 6545
0.00 0.00 0.64 -6.42 10.14 -0.22 -0.30 0.55 6552
0.00 0.00 1.39 -6.73 9.96 -0.34 -0.14 0.53 6559
0.00 0.00 1.59 -7.28 9.35 -0.51 0.16 0.49 6566
0.00 0.00 1.35 -7.93 8.54 -0.64 0.50 0.46 6574
0.00 0.00 0.89 -8.62 7.98 -0.70 0.76 0.44 6581
0.00 0.00 0.08 -9.26 7.51 -0.70 0.94 0.44 6588
0.00 0.00 -0.75 -9.67 6.97 -0.62 1.00 0.44 6595
0.00 0.00 -1.67 -9.92 6.59 -0.51 0.97 0.47 6602
0.00 0.00 -6.54 -21.70 14.67 -0.15 0.47 0.52 6609
0.00 0.00 -3.44 -11.63 2.67 0.58 0.37 0.52 6617
0.00 0.00 -3.66 -12.89 4.48 0.82 -0.05 0.46 6624
0.00 0.00 -4.44 -20.00 7.53 0.89 -0.58 0.31 6631
-0.00 0.02 -7.09 -25.01 4.20 1.23 -1.00 0.13 6638
0.00 0.00 -7.53 -33.23 0.08 1.55 -1.25 -0.01 6645
-0.01 0.08 -5.67 -19.89 5.82 2.38 -1.58 -0.10 6652
-0.01 0.22 -8.96 -7.41 73.20 1.70 -3.70 -0.39 6661
-0.00 0.33 1.21 -4.24 7.66 -0.47 -0.13 0.14 6667
-0.01 0.41 0.90 -0.48 12.52 -0.44 0.03 -0.03 6674
-0.02 0.56 -0.55 -1.86 11.46 -0.17 -0.12 -0.07 6682
-0.03 0.61 0.13 -0.09 10.37 -0.03 0.01 -0.07 6688
-0.02 0.59 0.33 -1.05 9.89 -0.03 0.07 -0.05 6695
-0.01 0.63 0.13 -0.58 9.73 -0.03 0.08 -0.03 6703
-0.02 0.65 0.33 -0.52 9.82 -0.03 0.10 -0.04 6710
-0.02 0.64 0.69 -1.02 9.79 -0.03 0.09 -0.05 6717
-0.02 0.69 0.58 -0.70 9.80 -0.03 0.08 -0.05 6724
-0.02 0.63 0.46 -0.77 9.79 -0.03 0.06 -0.05 6731
-0.02 0.65 0.51 -0.74 9.83 -0.03 0.06 -0.06 6738
-0.03 0.67 0.47 -0.72 9.82 -0.02 0.05 -0.10 6746
-0.01 0.70 0.46 -0.63 9.84 -0.01 0.06 -0.06 6753
-0.02 0.66 0.47 -0.63 9.79 -0.01 0.06 -0.08 6760
-0.01 0.62 0.50 -0.64 9.83 -0.00 0.06 -0.07 6767
-0.03 0.61 0.51 -0.63 9.78 0.00 0.06 -0.08 6774
-0.01 0.60 0.48 -0.69 9.79 0.01 0.06 -0.08 6781
-0.00 0.59 0.45 -0.66 9.77 0.00 0.06 -0.08 6789
0.01 0.57 0.40 -0.70 9.76 0.01 0.07 -0.07 6796
-0.00 0.54 0.42 -0.67 9.20 0.00 0.08 -0.07 6803
-0.01 0.54 0.44 -0.67 9.81 0.00 0.08 -0.07 6810
-0.00 0.54 0.42 -0.65 9.84 0.00 0.10 -0.07 6817
0.00 0.54 0.47 -0.65 9.81 0.00 0.10 -0.07 6824
0.02 0.54 0.48 -0.62 9.78 0.00 0.11 -0.07 6832
0.02 0.52 0.50 -0.67 9.80 0.00 0.10 -0.07 6839
0.01 0.53 0.50 -0.65 9.80 0.00 0.10 -0.07 6846
0.01 0.51 0.40 -0.66 9.82 -0.00 0.10 -0.07 6853
0.00 0.51 0.50 -0.68 9.79 -0.00 0.11 -0.07 6860
0.01 0.52 0.50 -0.66 9.79 -0.00 0.11 -0.08 6867
0.02 0.48 0.50 -1.23 9.81 -0.00 0.11 -0.07 6875
0.01 0.44 0.52 -0.64 9.79 -0.00 0.10 -0.07 6882
0.00 0.44 0.53 -0.63 9.80 0.00 0.07 -0.07 6889
0.00 0.39 0.52 -0.63 10.40 0.00 0.09 -0.06 6896
0.01 0.37 0.59 -0.62 9.79 0.00 0.09 -0.06 6903
0.00 0.39 0.53 -1.22 9.76 0.00 0.09 -0.06 6910
0.02 0.36 0.55 -0.66 9.79 0.00 0.08 -0.06 6918
0.01 0.37 0.58 -0.65 9.80 0.00 0.08 -0.06 6925
0.00 0.37 0.52 -0.64 9.77 0.00 0.07 -0.06 6932
-0.01 0.35 0.54 -0.61 9.76 -0.00 0.07 -0.06 6939
-0.01 0.32 0.57 -0.63 9.73 0.00 0.07 -0.06 6946
-0.01 0.36 0.57 -0.61 9.76 0.00 0.07 -0.06 6953
-0.00 0.34 0.56 -0.63 9.80 0.01 0.06 -0.06 6961
0.00 0.34 0.55 -0.65 9.80 0.00 0.06 -0.06 6968
0.01 0.33 0.55 -0.68 9.80 0.01 0.05 -0.06 6975
-0.01 0.31 1.19 -0.62 9.76 0.00 0.04 -0.06 6982
0.00 0.31 0.55 -0.64 9.81 0.00 0.04 -0.06 6989
0.01 0.31 0.53 -0.67 9.77 -0.00 0.04 -0.06 6996
0.02 0.28 0.57 -0.67 9.76 -0.00 0.04 -0.06 7004
0.00 0.29 0.57 -0.65 9.80 -0.00 0.03 -0.06 7011
0.00 0.28 0.57 -0.64 9.82 -0.00 0.03 -0.06 7018
-0.00 0.31 0.56 -0.67 9.78 -0.01 0.03 -0.06 7025
0.00 0.31 0.56 -0.65 9.81 -0.01 0.03 -0.07 7032
0.01 0.32 0.56 -0.66 9.77 -0.01 0.03 -0.06 7040
0.01 0.32 0.58 -0.64 9.79 -0.01 0.03 -0.06 7047
0.00 0.33 0.59 -0.68 9.80 -0.01 0.03 -0.06 7054
0.00 0.31 0.59 -0.63 9.80 -0.01 0.03 -0.06 7061
-0.00 0.32 0.57 -0.66 9.79 -0.01 0.02 -0.06 7068
-0.00 0.33 0.54 -0.64 9.75 -0.01 0.03 -0.06 7075
0.01 0.33 0.56 -0.63 9.80 -0.01 0.03 -0.07 7083
0.02 0.32 0.56 -0.63 9.80 -0.00 0.03 -0.07 7090
0.00 0.32 0.55 -0.63 9.78 0.00 0.03 -0.06 7097
-0.00 0.30 0.55 -0.65 9.77 0.00 0.03 -0.07 7104
0.00 0.31 0.55 -0.64 9.78 -0.00 0.06 -0.07 7111
0.00 0.32 0.53 -0.65 9.79 -0.00 0.03 -0.07 7118
0.02 0.31 0.54 -0.65 9.77 -0.00 0.03 -0.07 7126
0.01 0.31 0.53 -0.68 9.74 -0.01 0.03 -0.07 7133
0.00 0.31 0.55 -0.63 9.73 -0.01 0.04 -0.08 7140
-0.01 0.30 0.56 -0.68 9.75 -0.00 0.05 -0.07 7147
-0.00 0.30 0.54 -0.67 9.21 -0.01 0.06 -0.07 7154
0.01 0.30 0.53 -0.67 9.78 -0.00 0.06 -0.07 7161
0.02 0.27 0.56 -0.65 9.79 0.00 0.07 -0.08 7169
0.01 0.26 0.57 -0.63 9.75 0.01 0.07 -0.07 7176
0.01 0.23 0.58 -0.66 9.76 0.01 0.07 -0.08 7183
-0.01 0.25 0.60 -0.65 9.78 0.01 0.08 -0.08 7190
0.01 0.23 0.60 -0.66 9.79 0.02 0.08 -0.08 7197
0.01 0.25 1.21 -0.66 9.81 0.02 0.08 -0.08 7204
0.02 0.27 0.63 -0.65 9.80 0.02 0.08 -0.08 7212
0.01 0.23 0.59 -0.67 9.80 0.02 0.08 -0.08 7219
0.02 0.19 0.61 -0.66 9.81 0.03 0.08 -0.08 7226
-0.01 0.22 0.60 -0.70 9.78 0.03 0.08 -0.08 7233
0.02 0.09 1.22 -0.67 9.82 0.04 0.08 -0.08 7240
0.03 0.07 0.62 -0.69 9.81 0.04 0.08 -0.08 7247
0.05 0.04 0.68 -0.77 9.81 0.04 0.08 -0.08 7255
0.02 0.04 0.62 -0.69 9.81 0.05 0.08 -0.08 7262
0.04 0.04 0.63 -0.69 9.82 0.05 0.08 -0.08 7269
0.03 0.01 0.62 -0.71 9.84 0.06 0.08 -0.08 7276
0.03 0.01 0.69 -0.73 9.85 0.07 0.09 -0.08 7283
0.05 0.00 0.66 -0.73 9.87 0.08 0.11 -0.08 7290
0.05 0.00 0.62 -0.74 9.85 0.10 0.12 -0.07 7298
0.04 -0.00 0.58 -0.72 9.98 0.13 0.15 -0.07 7305
0.06 -0.01 0.70 -0.74 10.11 0.18 0.18 -0.06 7312
0.07 -0.01 0.70 -0.73 10.26 0.27 0.22 -0.07 7319
0.08 -0.01 0.82 -0.77 10.71 0.39 0.24 -0.09 7326
0.10 -0.01 0.92 -0.83 11.23 0.64 0.28 -0.13 7333
0.10 -0.01 0.94 -0.82 13.04 1.11 0.31 -0.16 7341
0.09 -0.01 0.84 -1.33 15.19 1.63 0.20 -0.20 7348
0.08 -0.01 1.42 -0.81 15.68 2.15 0.10 -0.26 7355
0.06 -0.01 1.37 -0.93 15.00 2.50 0.07 -0.35 7362
0.04 0.01 1.11 -1.05 14.04 2.71 -0.00 -0.38 7369
0.05 -0.01 1.01 -1.44 13.78 2.87 -0.06 -0.39 7376
0.03 -0.00 1.14 -1.52 14.24 3.01 -0.11 -0.39 7384
0.05 -0.00 1.52 -1.55 14.05 3.17 -0.12 -0.43 7391
0.09 -0.01 1.56 -2.08 14.34 3.31 -0.09 -0.42 7398
0.02 -0.00 1.48 -2.44 14.42 3.42 -0.00 -0.44 7405
0.01 -0.00 1.82 -2.77 15.44 3.52 0.08 -0.46 7412
0.02 -0.00 1.83 -3.29 16.00 3.55 0.28 -0.47 7419
0.00 0.00 1.97 -2.96 16.48 3.59 0.44 -0.47 7427
0.02 -0.00 2.15 -2.49 16.85 3.57 0.60 -0.49 7434
0.00 0.00 1.52 -1.60 16.63 3.49 0.75 -0.50 7441
0.00 0.00 0.69 -1.30 15.76 3.26 0.79 -0.49 7448
0.00 -0.00 0.09 -1.48 14.59 2.97 0.71 -0.49 7455
0.00 0.00 -0.24 -0.26 13.60 2.76 0.57 -0.49 7462
0.00 0.00 -0.15 0.68 11.92 2.56 0.37 -0.50 7470
0.00 0.00 0.40 0.74 10.31 2.43 0.16 -0.50 7477
0.00 0.00 0.32 5.17 10.24 2.23 -0.01 -0.52 7484
0.00 0.00 0.47 9.09 9.36 1.89 -0.19 -0.57 7491
0.00 0.00 0.63 8.75 8.06 1.49 -0.32 -0.74 7498
0.00 0.00 0.88 6.90 8.53 1.07 -0.43 -0.86 7505
0.00 0.00 0.47 6.97 9.73 0.74 -0.36 -0.95 7513
0.00 0.00 0.63 7.54 8.30 0.44 -0.28 -1.03 7520
0.00 0.00 0.45 7.66 6.50 0.23 -0.30 -1.11 7527
0.00 0.00 0.23 7.15 5.63 0.09 -0.35 -1.18 7534
0.00 -0.00 0.34 6.66 5.60 -0.06 -0.40 -1.23 7541
0.00 0.00 0.50 6.28 5.87 -0.19 -0.46 -1.26 7548
0.00 0.00 0.75 6.07 6.22 -0.28 -0.47 -1.27 7556
0.00 0.00 1.31 6.01 6.75 -0.44 -0.44 -1.27 7563
0.00 0.00 1.73 5.77 7.21 -0.62 -0.34 -1.23 7570
0.00 0.00 1.95 5.52 7.61 -0.87 -0.26 -1.17 7577
0.01 -0.00 1.89 5.08 7.82 -1.11 -0.16 -1.08 7584
0.00 0.00 1.80 4.53 7.88 -1.32 -0.12 -0.96 7591
0.00 0.00 1.75 3.76 7.87 -1.50 -0.12 -0.85 7599
0.00 0.00 1.77 2.95 7.90 -1.61 -0.15 -0.71 7606
0.00 0.00 1.98 2.30 8.11 -1.71 -0.16 -0.59 7613
0.00 0.00 2.36 1.63 8.58 -1.76 -0.12 -0.46 7620
0.00 0.00 2.51 1.04 9.13 -1.81 -0.05 -0.34 7627
0.00 0.00 2.67 0.61 9.58 -1.87 0.06 -0.25 7634
0.00 0.00 2.69 0.07 10.11 -1.94 0.19 -0.14 7642
0.00 0.00 2.61 -0.37 10.65 -2.04 0.26 -0.05 7649
0.00 0.00 2.37 -0.91 10.83 -2.12 0.32 0.04 7656
0.00 0.00 2.18 -1.53 11.08 -2.17 0.33 0.12 7663
0.00 0.00 2.20 -2.03 11.48 -2.20 0.36 0.19 7670
0.00 0.00 2.26 -2.66 11.79 -2.20 0.39 0.25 7677
0.00 0.00 2.22 -3.10 12.16 -2.20 0.44 0.28 7685
0.00 0.00 2.18 -3.53 12.52 -2.22 0.50 0.32 7692
0.00 0.00 2.06 -3.89 12.69 -2.25 0.52 0.35 7699
0.00 0.00 1.95 -4.20 12.69 -2.27 0.53 0.37 7706
0.00 0.00 1.88 -4.58 12.55 -2.28 0.52 0.40 7713
0.00 0.00 1.88 -4.95 12.03 -2.28 0.50 0.44 7720
0.00 0.00 1.95 -5.33 11.55 -2.22 0.49 0.47 7728
0.00 0.00 2.06 -5.79 11.17 -2.14 0.49 0.50 7735
0.00 0.00 2.07 -6.13 10.96 -1.99 0.49 0.51 7742
0.00 -0.00 1.94 -6.35 10.65 -1.80 0.47 0.51 7749
0.00 0.00 1.66 -6.31 10.25 -1.62 0.44 0.53 7756
0.00 0.00 1.35 -6.24 10.15 -1.41 0.39 0.55 7763
0.00 0.00 1.22 -6.20 10.29 -1.25 0.31 0.58 7771
0.00 0.00 1.18 -6.04 10.71 -1.07 0.25 0.60 7778
0.00 0.00 1.31 -5.84 11.06 -0.95 0.21 0.64 7785
0.00 -0.00 1.10 -5.74 11.64 -0.90 0.22 0.68 7792
0.00 0.00 1.19 -5.75 11.94 -0.89 0.28 0.72 7799
0.00 0.00 1.15 -5.73 12.21 -0.91 0.35 0.76 7806
0.00 0.00 0.99 -5.86 11.99 -0.96 0.41 0.80 7814
0.00 0.00 0.70 -5.97 11.85 -1.01 0.45 0.82 7821
0.00 0.00 0.44 -6.10 11.67 -1.05 0.45 0.81 7828
0.00 0.00 0.36 -6.17 11.54 -1.09 0.42 0.79 7835
0.00 0.00 0.39 -6.33 11.20 -1.13 0.40 0.74 7842
0.00 0.00 0.50 -6.50 10.73 -1.15 0.40 0.65 7849
0.00 0.00 0.74 -6.69 10.22 -1.14 0.46 0.56 7857
0.00 0.00 0.91 -7.04 9.56 -1.10 0.58 0.44 7864
0.00 0.00 0.91 -7.22 8.89 -0.99 0.70 0.34 7871
0.00 0.00 0.52 -7.39 8.47 -0.84 0.86 0.23 7878
0.00 0.00 -0.03 -7.30 8.13 -0.70 0.97 0.15 7885
0.00 0.00 -0.74 -7.23 8.21 -0.53 1.02 0.11 7892
0.00 0.00 -1.48 -7.07 8.69 -0.40 0.95 0.09 7900
0.00 0.00 -1.89 -7.00 8.91 -0.28 0.79 0.08 7907
0.00 0.00 -2.05 -6.94 9.08 -0.21 0.55 0.09 7914
0.00 0.00 -1.61 -6.91 9.15 -0.19 0.33 0.12 7921
0.00 0.00 -0.87 -6.99 9.05 -0.22 0.21 0.14 7928
0.00 0.00 -0.40 -7.24 8.64 -0.28 0.18 0.14 7936
0.00 0.00 -0.15 -7.69 8.04 -0.37 0.22 0.12 7943
0.00 0.00 -0.01 -8.42 7.41 -0.42 0.34 0.07 7950
0.00 -0.00 -0.09 -9.20 6.77 -0.43 0.54 -0.01 7957
0.00 0.00 -4.68 -17.67 10.60 -0.32 0.52 -0.09 7964
0.00 0.00 -4.85 -12.83 5.20 0.46 -0.11 -0.27 7971
0.00 0.00 -5.34 -11.66 0.89 0.59 -0.34 -0.41 7979
0.00 0.00 -5.77 -17.32 3.07 0.76 -0.74 -0.52 7986
0.00 0.00 -9.67 -23.03 6.56 1.05 -1.69 -0.81 7993
-0.00 0.02 -8.44 -25.06 1.95 1.35 -2.27 -1.22 8000
-0.00 0.03 2.30 -15.28 10.17 1.84 -3.41 -1.53 8008
-0.00 0.04 3.60 -8.50 29.38 0.52 -1.80 -0.44 8014
-0.02 0.19 2.89 1.72 5.60 -0.60 0.15 0.20 8022
-0.02 0.31 1.18 -0.17 11.00 -0.43 0.15 -0.03 8030
-0.00 0.46 -0.43 -1.52 10.88 -0.25 -0.15 -0.07 8037
0.01 0.55 0.03 -0.54 10.56 -0.12 -0.01 -0.09 8043
-0.00 0.60 0.15 -1.28 10.17 -0.07 0.03 -0.07 8050
-0.03 0.70 0.01 -0.64 9.87 -0.04 0.08 -0.03 8057
-0.04 0.70 0.28 -0.80 9.81 -0.04 0.13 -0.04 8065
-0.02 0.62 0.58 -0.86 9.84 -0.03 0.10 -0.04 8072
-0.00 0.62 0.56 -0.80 9.83 -0.04 0.12 -0.04 8079
0.01 0.66 0.43 -0.78 9.74 -0.03 0.11 -0.05 8086
-0.01 0.69 0.37 -0.78 9.83 -0.03 0.10 -0.05 8093
-0.00 0.66 0.42 -0.80 9.82 -0.02 0.10 -0.05 8100
-0.01 0.64 0.41 -0.78 9.77 -0.01 0.09 -0.05 8108
-0.00 0.62 0.47 -0.79 9.79 -0.00 0.09 -0.05 8115
0.00 0.62 0.46 -0.77 9.78 -0.00 0.08 -0.06 8122
0.01 0.59 0.52 -0.74 9.73 0.00 0.08 -0.06 8129
0.00 0.59 0.46 -0.70 9.71 -0.00 0.07 -0.06 8136
0.01 0.56 0.48 -0.69 9.74 0.00 0.07 -0.07 8143
-0.00 0.57 0.47 -0.72 9.75 0.00 0.06 -0.07 8151
0.01 0.56 0.46 -0.80 9.76 0.00 0.06 -0.07 8158
0.02 0.57 0.42 -0.78 9.77 -0.00 0.05 -0.06 8165
0.02 0.55 0.41 -0.74 9.76 -0.00 0.06 -0.06 8172
0.02 0.53 0.41 -0.75 9.81 -0.00 0.05 -0.06 8179
0.01 0.53 0.40 -0.73 9.81 -0.00 0.06 -0.05 8186
0.01 0.53 0.42 -0.76 9.78 -0.00 0.06 -0.06 8194
0.01 0.51 0.40 -0.75 9.89 -0.00 0.06 -0.06 8201
0.01 0.53 0.45 -0.77 9.81 0.00 0.06 -0.06 8208
0.01 0.51 0.44 -0.74 9.77 0.00 0.06 -0.05 8215
0.01 0.50 0.45 -0.76 9.77 -0.00 0.07 -0.06 8222
0.00 0.49 0.48 -0.74 9.76 0.00 0.07 -0.06 8229
0.01 0.48 0.47 -0.75 9.80 0.00 0.06 -0.06 8237
0.01 0.45 0.45 -0.78 9.74 0.00 0.06 -0.06 8244
0.01 0.45 0.49 -0.75 9.76 0.00 0.06 -0.06 8251
0.01 0.45 0.46 -0.73 9.77 0.00 0.05 -0.06 8258
0.01 0.44 0.49 -0.75 9.76 0.00 0.05 -0.06 8265
0.01 0.42 0.46 -0.76 9.80 -0.00 0.04 -0.06 8272
0.01 0.41 0.45 -0.76 9.80 0.00 0.04 -0.06 8280
0.01 0.41 0.45 -0.78 9.76 -0.00 0.04 -0.05 8287
0.01 0.39 0.47 -0.76 9.75 0.00 0.03 -0.06 8294
0.01 0.38 0.49 -0.76 9.80 0.00 0.04 -0.06 8301
0.01 0.38 0.50 -0.78 9.77 0.00 0.03 -0.06 8308
0.01 0.36 0.48 -0.77 9.79 0.00 0.04 -0.06 8315
0.02 0.37 0.50 -0.75 9.79 -0.00 0.04 -0.06 8323
0.03 0.36 0.46 -0.75 9.74 -0.00 0.03 -0.06 8330
0.02 0.31 0.47 -0.75 9.76 0.00 0.03 -0.06 8337
0.02 0.31 0.46 -0.77 9.78 -0.00 0.04 -0.06 8344
0.02 0.29 0.47 -0.77 9.73 -0.00 0.04 -0.06 8351
0.01 0.30 0.46 -0.78 9.75 -0.00 0.04 -0.06 8358
0.02 0.30 0.52 -0.78 9.80 -0.00 0.00 -0.06 8366
0.03 0.32 0.45 -0.75 9.75 0.00 0.03 -0.06 8373
0.03 0.31 0.49 -0.77 9.74 -0.00 0.03 -0.06 8380
0.02 0.29 0.49 -0.78 9.70 0.00 0.02 -0.07 8387
0.02 0.28 0.49 -0.76 9.80 0.00 0.02 -0.07 8394
0.02 0.30 0.47 -0.76 9.76 0.00 0.01 -0.06 8401
0.02 0.30 0.47 -0.79 9.76 -0.00 0.01 -0.07 8409
0.04 0.30 0.49 -0.80 9.80 -0.01 -0.00 -0.07 8416
0.03 0.29 0.51 -0.78 9.78 -0.00 -0.01 -0.07 8423
0.02 0.31 0.47 -0.79 9.79 -0.01 -0.00 -0.07 8430
0.02 0.29 0.43 -0.80 9.79 -0.01 0.00 -0.07 8437
0.02 0.29 0.43 -0.79 9.78 -0.01 0.01 -0.07 8444
0.02 0.31 0.46 -0.81 9.81 -0.01 0.01 -0.07 8452
0.03 0.29 0.44 -0.79 9.82 -0.01 0.01 -0.07 8459
0.03 0.29 0.45 -0.79 9.80 -0.01 0.01 -0.07 8466
0.03 0.29 0.42 -0.81 9.77 -0.01 0.01 -0.07 8473
0.01 0.30 0.44 -0.79 9.76 -0.02 0.02 -0.08 8480
0.03 0.30 0.42 -0.82 9.76 -0.01 0.02 -0.07 8487
0.03 0.32 0.44 -0.79 9.80 -0.02 0.02 -0.07 8495
0.04 0.31 0.45 -0.79 9.76 -0.02 0.03 -0.07 8502
0.03 0.32 0.46 -0.73 9.76 -0.01 0.03 -0.07 8509
0.03 0.31 0.42 -0.77 9.79 -0.01 0.03 -0.07 8516
0.01 0.30 0.43 -0.79 9.76 -0.01 0.04 -0.07 8523
0.02 0.31 0.41 -0.78 9.76 -0.01 0.04 -0.07 8530
0.03 0.31 0.41 -0.76 9.74 -0.00 0.04 -0.07 8538
0.04 0.31 0.41 -0.76 9.76 -0.00 0.04 -0.07 8545
0.03 0.31 0.43 -0.80 9.77 -0.00 0.05 -0.08 8552
0.02 0.29 0.47 -0.76 9.77 0.00 0.05 -0.07 8559
0.02 0.28 0.43 -0.76 9.77 0.01 0.05 -0.08 8566
0.03 0.26 0.42 -0.74 9.80 0.02 0.06 -0.08 8573
0.03 0.23 0.42 -0.79 9.76 0.02 0.06 -0.08 8581
0.04 0.26 0.46 -0.76 9.80 0.02 0.06 -0.08 8588
0.03 0.21 0.42 -0.79 9.80 0.02 0.06 -0.08 8595
0.04 0.19 0.45 -0.80 9.79 0.02 0.06 -0.08 8602
0.03 0.19 0.45 -0.75 9.84 0.02 0.07 -0.08 8609
0.05 0.17 0.48 -0.79 9.81 0.03 0.07 -0.09 8616
0.07 0.08 0.50 -0.81 9.81 0.03 0.07 -0.09 8624
0.07 0.07 0.47 -0.80 9.83 0.04 0.07 -0.08 8631
0.07 0.05 0.49 -0.78 9.84 0.05 0.07 -0.08 8638
0.08 0.02 0.53 -0.77 9.99 0.07 0.08 -0.08 8645
0.07 0.00 0.49 -0.87 10.01 0.10 0.09 -0.08 8652
0.09 0.01 0.45 -0.88 10.01 0.14 0.12 -0.08 8659
0.09 -0.01 0.55 -0.86 10.18 0.21 0.15 -0.07 8667
0.08 0.00 0.48 -0.94 10.59 0.33 0.23 -0.07 8674
0.08 -0.01 0.63 -0.86 10.94 0.50 0.29 -0.08 8681
0.05 -0.01 0.93 -0.84 12.00 0.88 0.36 -0.13 8688
0.06 0.01 1.08 -1.42 14.06 1.36 0.39 -0.21 8695
0.07 0.00 1.00 -1.80 16.60 1.99 0.22 -0.27 8702
0.08 0.00 1.19 -0.93 15.36 2.44 0.05 -0.30 8710
0.07 -0.01 1.24 -1.03 13.31 2.59 -0.06 -0.34 8717
0.08 -0.01 1.25 -1.28 13.14 2.67 -0.18 -0.38 8724
0.02 -0.00 1.58 -1.62 13.77 2.76 -0.28 -0.41 8731
0.06 -0.01 2.11 -2.39 13.86 2.88 -0.28 -0.45 8738
0.07 -0.00 2.76 -2.27 14.72 2.96 -0.17 -0.54 8747
0.01 -0.00 3.15 -2.55 15.19 3.02 0.02 -0.61 8753
0.01 -0.00 3.76 -2.63 16.09 3.03 0.25 -0.68 8760
0.00 -0.00 3.20 -1.98 17.35 2.95 0.45 -0.76 8767
0.00 0.00 2.48 -0.05 16.47 2.90 0.50 -0.81 8774
0.00 0.00 1.57 1.34 15.03 2.76 0.28 -0.82 8781
0.01 -0.00 0.90 4.40 13.84 2.54 -0.13 -0.79 8788
0.00 0.00 1.52 5.79 12.51 2.20 -0.41 -0.75 8796
0.00 0.00 2.04 7.43 11.43 1.86 -0.53 -0.67 8803
0.00 0.00 3.46 9.45 9.94 1.64 -0.49 -0.61 8810
0.00 0.00 3.26 9.35 9.19 1.38 -0.30 -0.60 8817
-0.00 0.00 3.42 10.04 8.54 1.11 -0.10 -0.63 8824
0.00 0.00 2.66 9.53 9.15 0.77 0.08 -0.67 8832
0.00 0.00 1.53 9.06 8.81 0.43 0.18 -0.72 8839
0.00 0.00 0.72 8.05 7.96 0.23 0.16 -0.76 8846
0.00 0.00 0.21 7.25 7.40 0.08 0.07 -0.79 8853
0.00 0.00 0.20 6.55 6.89 -0.03 -0.03 -0.83 8860
0.00 0.00 0.43 6.05 6.77 -0.13 -0.09 -0.87 8867
0.00 0.00 0.76 5.47 6.86 -0.23 -0.12 -0.92 8875
0.00 0.00 0.95 4.92 7.00 -0.30 -0.12 -0.96 8882
0.00 0.00 1.14 4.63 7.41 -0.38 -0.11 -0.98 8889
0.00 0.00 1.33 4.25 8.17 -0.47 -0.09 -0.99 8896
0.00 0.00 1.49 4.05 9.06 -0.61 -0.08 -0.96 8903
-0.00 0.00 1.56 3.66 9.46 -0.81 -0.08 -0.90 8910
0.00 0.00 1.65 3.14 9.59 -0.99 -0.11 -0.81 8918
0.00 0.00 1.83 2.64 9.50 -1.18 -0.16 -0.72 8925
0.00 0.00 2.21 1.97 9.28 -1.33 -0.19 -0.59 8932
0.00 0.00 2.49 1.39 9.09 -1.38 -0.19 -0.46 8939
0.00 0.00 2.81 0.86 9.09 -1.41 -0.15 -0.34 8946
0.00 0.00 3.03 0.53 9.03 -1.42 -0.10 -0.20 8953
0.00 0.00 3.14 0.32 9.20 -1.41 -0.04 -0.09 8961
0.00 0.00 3.20 0.18 9.52 -1.41 0.03 0.04 8968
0.00 0.00 3.16 0.02 9.81 -1.40 0.11 0.17 8975
0.00 0.00 3.08 -0.09 10.03 -1.40 0.20 0.27 8982
0.00 0.00 2.87 -0.23 10.36 -1.41 0.28 0.37 8989
0.01 -0.00 2.75 -0.29 10.74 -1.42 0.34 0.45 8996
0.00 0.00 2.53 -0.36 11.12 -1.46 0.41 0.52 9004
0.00 0.00 2.43 -0.47 11.75 -1.50 0.48 0.58 9011
0.00 0.00 2.26 -0.51 12.14 -1.59 0.56 0.62 9018
0.00 0.00 2.05 -0.65 12.26 -1.70 0.63 0.67 9025
0.00 0.00 1.80 -0.83 12.23 -1.76 0.67 0.73 9032
0.00 0.00 1.51 -1.13 12.10 -1.82 0.68 0.74 9039
0.00 0.00 1.33 -1.51 11.84 -1.85 0.67 0.78 9047
0.00 0.00 1.34 -1.75 11.62 -1.84 0.65 0.81 9054
0.00 0.00 1.37 -2.12 11.15 -1.78 0.65 0.81 9061
0.00 0.00 1.50 -2.56 10.69 -1.74 0.66 0.81 9068
0.00 0.00 1.66 -2.91 10.44 -1.63 0.68 0.77 9075
0.00 -0.00 1.64 -3.16 10.27 -1.51 0.69 0.73 9082
0.00 0.00 1.55 -3.48 9.94 -1.33 0.73 0.69 9090
0.00 0.00 1.41 -3.78 9.77 -1.11 0.75 0.65 9097
0.00 0.00 0.94 -3.74 9.94 -0.92 0.69 0.61 9104
0.00 0.00 0.57 -3.68 10.39 -0.72 0.60 0.58 9111
0.00 0.00 0.32 -3.54 11.14 -0.59 0.46 0.56 9118
0.00 0.00 0.47 -3.20 12.46 -0.53 0.38 0.55 9125
0.00 0.00 1.05 -2.81 13.24 -0.63 0.38 0.54 9133
0.00 0.00 1.45 -2.76 13.30 -0.79 0.50 0.54 9140
0.00 0.00 1.49 -2.91 13.04 -1.00 0.61 0.54 9147
0.00 0.00 0.95 -3.41 12.38 -1.19 0.73 0.54 9154
0.00 0.00 0.38 -3.95 11.35 -1.25 0.75 0.52 9161
0.00 0.00 -0.26 -4.76 10.47 -1.23 0.69 0.49 9168
0.00 0.00 -0.65 -5.43 9.81 -1.13 0.53 0.44 9176
0.00 0.00 -0.85 -5.78 9.58 -0.96 0.35 0.39 9183
0.00 0.00 -1.00 -6.13 9.73 -0.76 0.12 0.33 9190
0.00 0.00 -0.93 -6.21 9.81 -0.62 -0.08 0.28 9197
0.00 0.00 -0.56 -6.18 9.92 -0.49 -0.27 0.24 9204
0.00 0.00 0.13 -6.18 10.23 -0.43 -0.37 0.21 9211
0.00 0.00 0.70 -6.23 10.23 -0.42 -0.36 0.18 9219
0.00 0.00 1.34 -6.34 10.14 -0.47 -0.22 0.17 9226
0.00 0.00 1.93 -6.52 10.15 -0.55 -0.02 0.18 9233
0.00 0.00 2.61 -6.77 9.80 -0.70 0.32 0.19 9240
0.00 0.00 2.78 -7.39 9.34 -0.81 0.67 0.22 9247
0.00 0.00 2.31 -8.10 8.64 -0.88 0.90 0.25 9254
0.00 0.00 1.54 -9.02 7.88 -0.86 1.04 0.30 9262
0.00 0.00 0.90 -9.87 7.08 -0.77 1.07 0.35 9269
0.00 0.00 -1.15 -12.50 6.73 -0.58 0.95 0.42 9276
0.00 0.00 -3.11 -11.96 9.39 0.06 0.51 0.51 9283
0.00 -0.00 -3.87 -13.02 4.76 0.20 0.23 0.57 9290
0.00 0.00 -2.94 -13.36 3.44 0.44 -0.06 0.62 9297
0.00 0.00 -4.12 -16.45 6.58 0.64 -0.35 0.62 9305
0.00 0.00 -5.34 -19.35 4.13 0.98 -0.59 0.57 9312
-0.00 0.02 -5.64 -22.50 -0.13 1.33 -0.77 0.45 9319
-0.01 0.07 -10.68 -34.22 -2.32 1.69 -1.26 0.30 9327
-0.00 0.07 -8.02 -28.28 -0.41 2.58 -2.18 0.13 9334
-0.01 0.21 -4.73 -8.43 26.08 4.19 -2.23 -0.19 9341
-0.02 0.38 6.24 0.29 28.77 1.16 -3.45 -0.28 9349
-0.03 0.58 0.73 -1.75 10.18 -0.34 0.03 0.05 9355
-0.03 0.70 -1.80 -3.78 13.00 -0.19 -0.40 -0.19 9363
-0.03 0.76 1.00 -1.00 10.41 -0.06 -0.14 -0.06 9370
0.01 0.73 0.01 -0.68 9.99 0.01 -0.00 -0.04 9376
0.01 0.69 -0.06 -0.72 9.69 -0.00 0.02 -0.05 9383
0.01 0.67 0.56 -0.54 9.84 0.00 0.07 -0.04 9391
-0.01 0.69 0.58 -1.02 9.77 0.00 0.06 -0.05 9398
-0.01 0.68 0.39 -0.79 9.74 -0.00 0.06 -0.05 9405
0.01 0.67 0.47 -0.88 9.82 -0.00 0.06 -0.05 9412
-0.01 0.61 0.55 -0.82 9.83 -0.00 0.06 -0.06 9419
-0.00 0.61 0.50 -0.84 9.82 0.00 0.06 -0.06 9426
-0.01 0.59 0.50 -0.85 9.79 0.01 0.05 -0.06 9434
-0.01 0.59 0.47 -0.82 9.76 0.01 0.05 -0.06 9441
-0.00 0.57 0.51 -0.81 9.81 0.01 0.05 -0.06 9448
0.01 0.54 0.49 -0.79 9.77 0.01 0.04 -0.07 9455
0.01 0.54 0.46 -0.78 9.74 0.01 0.04 -0.07 9462
-0.00 0.53 0.45 -0.78 9.74 0.01 0.05 -0.08 9469
-0.00 0.50 0.39 -0.80 9.81 0.01 0.05 -0.07 9477
-0.00 0.43 0.39 -0.79 9.78 0.02 0.07 -0.08 9484
0.01 0.41 0.42 -0.84 9.85 0.02 0.09 -0.07 9491
0.02 0.38 0.45 -0.81 9.20 0.01 0.10 -0.07 9498
0.02 0.37 0.43 -0.79 9.76 0.02 0.11 -0.07 9505
0.02 0.35 0.47 -0.80 9.80 0.01 0.11 -0.07 9512
0.01 0.36 0.52 -0.81 9.75 0.01 0.11 -0.06 9520
0.01 0.37 0.52 -0.81 9.76 0.01 0.11 -0.07 9527
0.01 0.39 0.57 -0.85 9.78 0.01 0.10 -0.07 9534
0.04 0.32 0.54 -0.82 9.79 0.01 0.09 -0.07 9541
0.02 0.34 0.55 -0.80 9.79 0.00 0.08 -0.07 9548
0.01 0.36 0.53 -0.80 9.73 0.01 0.07 -0.07 9555
0.00 0.35 0.55 -0.79 9.74 0.01 0.07 -0.07 9563
0.01 0.32 0.50 -0.78 9.79 0.01 0.06 -0.07 9570
0.02 0.31 0.50 -0.81 9.76 0.01 0.06 -0.07 9577
0.02 0.30 0.53 -0.86 9.77 0.02 0.06 -0.07 9584
0.03 0.27 0.54 -0.79 9.79 0.02 0.06 -0.07 9591
0.02 0.25 0.51 -0.83 9.81 0.02 0.06 -0.07 9598
0.02 0.28 0.51 -0.84 9.79 0.01 0.06 -0.07 9606
0.04 0.26 0.55 -0.84 9.82 0.01 0.05 -0.07 9613
0.04 0.32 0.53 -0.82 9.81 0.01 0.05 -0.07 9620
0.03 0.29 0.57 -0.86 9.81 0.01 0.05 -0.07 9627
0.03 0.28 0.53 -0.84 9.79 0.00 0.05 -0.06 9634
0.04 0.21 0.52 -0.85 9.76 0.00 0.05 -0.07 9641
0.03 0.20 0.57 -0.84 9.77 -0.00 0.05 -0.07 9649
0.03 0.20 0.56 -0.84 9.74 -0.00 0.05 -0.07 9656
0.04 0.20 0.55 -0.85 9.73 -0.00 0.05 -0.06 9663
0.03 0.22 0.57 -0.87 9.76 -0.00 0.04 -0.06 9670
0.03 0.22 0.56 -0.84 9.72 -0.01 0.04 -0.07 9677
0.02 0.22 0.54 -0.83 9.74 -0.01 0.04 -0.06 9684
0.02 0.24 0.53 -0.85 9.76 -0.01 0.04 -0.06 9692
0.02 0.24 0.55 -0.85 9.77 -0.01 0.04 -0.10 9699
0.04 0.24 0.53 -0.83 9.79 -0.01 0.04 -0.06 9706
0.02 0.23 0.54 -0.84 9.80 -0.01 0.04 -0.06 9713
0.01 0.23 0.56 -0.82 9.76 -0.01 0.04 -0.07 9720
0.00 0.24 0.53 -0.86 9.79 -0.01 0.03 -0.07 9728
0.01 0.24 0.53 -0.84 9.78 -0.02 0.04 -0.07 9735
0.02 0.25 0.55 -0.82 9.75 -0.02 0.03 -0.06 9742
0.02 0.25 0.58 -0.86 9.73 -0.02 0.03 -0.06 9749
0.01 0.24 0.51 -0.84 9.77 -0.01 0.03 -0.07 9756
0.00 0.22 0.54 -0.85 9.76 -0.02 0.04 -0.07 9763
-0.00 0.23 0.55 -0.83 9.74 -0.01 0.04 -0.07 9771
0.00 0.25 0.57 -0.83 9.74 -0.01 0.04 -0.06 9778
0.01 0.27 0.56 -0.81 9.73 -0.01 0.05 -0.06 9785
0.02 0.26 0.55 -0.82 9.76 -0.00 0.04 -0.07 9792
0.01 0.27 0.54 -0.82 9.77 -0.01 0.04 -0.07 9799
0.01 0.25 0.55 -0.84 9.77 -0.00 0.05 -0.07 9806
-0.00 0.27 0.50 -0.84 9.74 -0.01 0.04 -0.07 9814
0.01 0.27 0.51 -0.86 9.74 -0.00 0.04 -0.07 9821
0.02 0.27 0.55 -0.79 9.80 -0.00 0.04 -0.07 9828
0.02 0.25 0.52 -0.84 9.82 -0.00 0.04 -0.07 9835
0.01 0.24 0.53 -0.83 9.78 0.00 0.04 -0.07 9842
0.01 0.22 0.55 -0.84 9.75 0.01 0.04 -0.07 9849
0.00 0.24 0.52 -0.81 9.75 -0.00 0.04 -0.07 9857
0.01 0.26 0.53 -0.84 9.77 -0.00 0.04 -0.08 9864
0.03 0.28 0.52 -0.83 9.77 -0.00 0.04 -0.08 9871
0.02 0.28 0.53 -0.85 9.77 0.00 0.04 -0.07 9878
0.02 0.28 0.53 -0.83 9.79 0.00 0.04 -0.07 9885
0.02 0.28 0.54 -0.82 9.82 0.01 0.05 -0.08 9892
0.02 0.23 0.58 -0.85 9.81 0.00 0.06 -0.07 9900
0.01 0.26 0.55 -0.84 9.81 0.01 0.06 -0.08 9907
0.04 0.17 0.56 -0.79 9.78 0.01 0.06 -0.08 9914
0.03 0.14 0.57 -0.86 9.81 0.02 0.07 -0.08 9921
0.03 0.10 0.59 -0.84 9.82 0.02 0.07 -0.08 9928
0.02 0.06 0.59 -0.87 9.81 0.02 0.08 -0.08 9935
0.02 0.06 0.57 -0.84 9.81 0.03 0.08 -0.07 9943
0.04 0.04 0.60 -0.85 9.85 0.04 0.09 -0.07 9950
0.04 0.02 0.60 -0.87 9.90 0.06 0.10 -0.07 9957
0.03 0.00 0.62 -0.87 9.90 0.08 0.12 -0.07 9964
0.04 -0.00 0.66 -0.93 9.95 0.11 0.13 -0.06 9971
0.02 0.00 0.70 -0.91 9.97 0.15 0.16 -0.06 9978
0.03 -0.00 0.64 -0.89 10.16 0.22 0.19 -0.06 9986
0.03 -0.00 0.90 -0.89 10.32 0.31 0.20 -0.06 9993
0.03 -0.00 0.94 -0.86 10.75 0.47 0.22 -0.09 10000
0.01 -0.00 0.95 -0.98 11.53 0.74 0.31 -0.18 10007
0.02 0.01 0.97 -1.07 13.34 1.23 0.36 -0.23 10014
0.00 0.00 1.01 -1.63 14.55 1.81 0.36 -0.28 10021
0.01 -0.00 1.19 -1.25 14.72 2.08 0.31 -0.35 10029
0.04 -0.00 1.31 -1.12 13.12 2.24 0.26 -0.38 10036
0.03 -0.00 1.61 -1.32 12.80 2.29 0.23 -0.42 10043
0.04 -0.00 1.75 -1.51 12.92 2.37 0.22 -0.47 10050
0.03 -0.00 2.33 -1.51 12.97 2.45 0.28 -0.54 10057
0.01 -0.00 2.59 -1.74 13.66 2.51 0.39 -0.62 10064
0.00 0.00 2.98 -1.71 13.95 2.55 0.58 -0.69 10072
0.02 -0.00 3.18 -1.96 14.57 2.57 0.79 -0.77 10079
0.00 0.00 3.52 -1.79 14.99 2.56 0.96 -0.84 10086
0.00 0.00 2.70 -0.83 15.30 2.52 1.09 -0.93 10093
0.00 0.00 1.55 -0.01 14.78 2.46 1.09 -0.99 10100
0.00 0.00 -0.27 1.56 14.12 2.33 0.91 -0.98 10107
0.00 0.00 -1.27 3.39 13.44 2.11 0.56 -0.98 10115
0.01 -0.00 -1.85 5.52 12.88 1.89 0.16 -1.01 10122
0.00 0.00 -1.65 6.26 12.42 1.64 -0.29 -1.09 10129
0.00 0.00 -1.02 7.46 11.46 1.47 -0.50 -1.23 10136
0.00 0.00 0.07 7.14 9.96 1.29 -0.60 -1.36 10143
0.00 0.00 0.40 7.92 10.36 1.04 -0.58 -1.46 10150
0.00 0.00 0.59 8.64 9.87 0.81 -0.54 -1.54 10158
0.00 0.00 0.87 8.78 9.24 0.61 -0.55 -1.58 10165
0.00 0.00 1.11 8.67 8.43 0.47 -0.57 -1.58 10172
0.00 0.00 1.45 8.65 7.48 0.33 -0.57 -1.56 10179
0.00 0.00 1.86 8.59 7.85 0.17 -0.54 -1.50 10186
0.00 0.00 2.10 8.37 7.68 0.03 -0.51 -1.43 10193
0.00 0.00 2.38 8.10 7.67 -0.14 -0.47 -1.35 10201
0.00 0.00 2.58 7.69 7.85 -0.29 -0.43 -1.25 10208
0.00 0.00 2.64 7.23 8.18 -0.47 -0.40 -1.15 10215
0.00 0.00 2.62 6.72 8.41 -0.67 -0.39 -1.02 10222
0.00 0.00 2.67 6.02 8.46 -0.83 -0.39 -0.89 10229
0.00 0.00 2.89 5.39 8.71 -1.00 -0.39 -0.78 10236
0.00 0.00 3.19 4.66 8.71 -1.14 -0.34 -0.64 10244
0.00 0.00 3.39 3.96 8.61 -1.27 -0.28 -0.48 10251
0.00 0.00 3.53 3.34 8.64 -1.36 -0.21 -0.36 10258
0.00 0.00 3.68 2.65 8.73 -1.42 -0.11 -0.21 10265
0.00 0.00 3.71 2.18 8.82 -1.45 -0.06 -0.07 10272
0.00 0.00 3.64 1.71 9.00 -1.46 0.02 0.09 10279
0.00 0.00 3.56 1.36 9.25 -1.46 0.08 0.25 10287
0.00 0.00 3.33 0.99 9.56 -1.44 0.15 0.37 10294
0.00 0.00 3.22 0.61 10.23 -1.43 0.21 0.49 10301
0.00 0.00 3.15 0.42 11.53 -1.42 0.29 0.58 10308
0.00 0.00 3.13 0.20 11.88 -1.46 0.39 0.67 10315
0.00 0.00 3.10 0.09 12.99 -1.55 0.52 0.74 10322
0.00 -0.00 2.93 0.01 13.64 -1.72 0.66 0.79 10330
0.00 0.00 2.48 -0.32 13.77 -1.90 0.77 0.83 10337
0.00 0.00 1.96 -0.83 13.58 -2.11 0.81 0.86 10344
0.00 0.00 1.60 -1.58 13.13 -2.24 0.79 0.88 10351
0.00 0.00 1.43 -2.52 12.51 -2.29 0.75 0.87 10358
0.00 0.00 1.41 -3.16 12.11 -2.26 0.71 0.84 10365
0.00 -0.00 1.53 -3.87 11.63 -2.17 0.69 0.78 10373
0.00 0.00 1.56 -4.35 11.24 -2.02 0.71 0.68 10380
0.00 0.00 1.70 -4.69 10.86 -1.85 0.78 0.63 10387
0.00 0.00 1.78 -4.82 10.61 -1.69 0.85 0.56 10394
0.00 0.00 1.75 -4.94 10.40 -1.47 0.93 0.50 10401
0.00 0.00 1.64 -5.07 10.32 -1.25 0.96 0.46 10408
0.00 -0.00 1.14 -5.02 10.51 -1.07 0.92 0.44 10416
0.00 0.00 0.25 -4.78 10.82 -0.88 0.75 0.44 10423
0.00 0.00 -0.58 -4.67 11.30 -0.75 0.46 0.44 10430
0.00 0.00 -0.66 -4.33 12.30 -0.68 0.18 0.44 10437
0.00 0.00 -0.18 -3.87 13.21 -0.73 -0.06 0.45 10444
0.00 0.00 0.23 -3.52 13.21 -0.85 -0.17 0.48 10451
0.00 0.00 0.17 -3.44 12.52 -1.02 -0.10 0.52 10459
0.00 0.00 -0.13 -3.60 11.60 -1.14 0.07 0.60 10466
0.00 0.00 -0.74 -4.04 10.99 -1.19 0.17 0.68 10473
0.00 0.00 -1.48 -4.77 10.48 -1.14 0.13 0.73 10480
0.00 0.00 -1.88 -5.48 9.95 -1.04 -0.08 0.75 10487
0.00 0.00 -1.83 -6.10 9.65 -0.88 -0.34 0.73 10494
0.00 0.00 -0.98 -7.82 9.56 -0.61 -0.61 0.69 10502
0.00 0.00 -0.00 -6.96 8.56 -0.38 -0.75 0.61 10509
0.00 0.00 0.86 -8.13 11.47 -0.01 -0.78 0.57 10516
0.00 0.00 1.11 -7.04 5.61 0.10 -0.78 0.48 10523
0.00 0.00 1.60 -6.49 7.22 0.13 -0.68 0.42 10530
0.00 0.00 1.58 -7.96 10.03 0.21 -0.40 0.40 10537
0.00 0.00 2.11 -7.12 10.69 0.17 -0.14 0.37 10545
0.00 0.00 2.38 -7.38 11.92 -0.00 0.27 0.35 10552
0.00 0.00 1.69 -7.50 10.82 -0.31 0.69 0.33 10559
0.00 0.00 0.69 -8.48 12.09 -0.67 1.06 0.34 10566
0.00 0.00 -0.00 -11.57 12.56 -0.80 1.36 0.41 10573
0.00 0.00 -2.13 -12.65 10.31 -0.70 1.44 0.51 10580
0.00 0.00 -3.13 -14.56 6.84 -0.56 1.22 0.54 10588
0.00 0.00 -3.94 -18.21 3.87 -0.31 0.77 0.49 10595
-0.00 0.01 -4.76 -24.36 1.35 0.13 0.45 0.41 10602
-0.00 0.05 -5.74 -29.07 -4.20 0.73 0.23 0.31 10609
-0.01 0.06 -7.06 -46.59 -7.24 1.53 -0.28 0.14 10616
-0.01 0.12 -5.55 -9.87 6.72 3.11 -0.64 -0.16 10624
-0.02 0.20 4.19 -9.57 33.72 4.28 -2.29 -0.67 10632
-0.02 0.39 2.11 -3.16 33.23 1.17 -3.12 -0.17 10639
-0.03 0.44 -1.99 -5.33 12.18 -0.27 0.06 0.12 10646
-0.01 0.50 -2.03 -3.35 13.48 -0.19 -0.21 -0.16 10653
-0.03 0.59 0.07 -0.68 10.03 -0.08 -0.21 -0.07 10659
-0.02 0.60 0.53 -0.18 9.57 0.02 -0.06 -0.03 10667
-0.03 0.56 -0.07 -1.30 9.93 -0.01 -0.03 -0.05 10674
-0.05 0.60 0.32 -0.32 9.69 -0.01 0.02 -0.04 10681
-0.04 0.55 0.62 -0.96 9.82 0.01 0.04 -0.04 10688
-0.03 0.59 0.41 -0.87 9.78 0.00 0.04 -0.04 10695
-0.02 0.58 0.32 -0.94 9.82 -0.00 0.05 -0.04 10702
-0.03 0.61 0.43 -0.87 9.83 -0.01 0.07 -0.05 10710
-0.02 0.62 0.44 -0.80 9.86 -0.01 0.08 -0.05 10717
-0.02 0.59 0.44 -0.82 9.86 -0.00 0.08 -0.05 10724
-0.02 0.58 0.44 -0.81 9.81 -0.01 0.08 -0.05 10731
-0.02 0.55 0.45 -0.77 9.74 -0.00 0.09 -0.05 10738
-0.01 0.55 0.49 -0.74 9.79 -0.00 0.08 -0.05 10745
-0.02 0.54 0.47 -0.74 9.75 0.00 0.08 -0.05 10753
-0.01 0.55 0.48 -0.75 9.74 0.00 0.07 -0.05 10760
-0.01 0.52 0.46 -0.78 9.75 0.01 0.03 -0.05 10767
-0.02 0.52 0.49 -0.78 9.71 0.01 0.06 -0.05 10774
-0.01 0.50 0.51 -0.78 9.74 0.01 0.05 -0.06 10781
-0.01 0.50 0.51 -0.75 9.75 0.01 0.05 -0.05 10788
-0.02 0.49 0.45 -0.78 9.78 0.00 0.04 -0.06 10796
-0.01 0.49 0.47 -0.77 9.82 0.01 0.04 -0.05 10803
-0.02 0.45 0.46 -0.74 9.76 0.01 0.04 -0.05 10810
-0.01 0.47 0.49 -0.80 9.78 0.00 0.04 -0.05 10817
-0.01 0.47 0.31 -0.73 9.86 0.00 0.05 -0.05 10824
0.00 0.45 0.46 -0.79 9.78 0.01 0.05 -0.05 10831
-0.01 0.44 0.46 -0.79 9.80 0.01 0.06 -0.05 10839
-0.01 0.44 0.45 -0.80 9.75 0.00 0.06 -0.06 10846
-0.02 0.42 0.52 -0.76 9.77 0.01 0.06 -0.05 10853
-0.01 0.40 0.49 -0.75 9.79 0.01 0.06 -0.05 10860
-0.01 0.39 0.49 -0.78 9.74 0.01 0.06 -0.05 10867
-0.01 0.34 0.46 -0.76 9.77 0.02 0.06 -0.05 10874
-0.02 0.36 0.52 -0.79 9.73 0.01 0.06 -0.05 10882
-0.02 0.35 0.51 -0.80 9.75 0.02 0.05 -0.05 10889
-0.01 0.36 0.52 -0.78 9.77 0.02 0.05 -0.05 10896
0.02 0.28 0.48 -0.82 9.75 0.02 0.05 -0.05 10903
0.02 0.32 0.48 -0.81 9.75 0.02 0.05 -0.05 10910
0.02 0.31 0.48 -0.79 9.76 0.02 0.05 -0.05 10917
0.00 0.35 0.50 -0.80 9.79 0.02 0.05 -0.05 10925
0.00 0.29 0.50 -0.78 9.81 0.02 0.05 -0.05 10932
0.00 0.30 0.50 -0.82 9.79 0.02 0.05 -0.06 10939
0.03 0.28 0.48 -0.81 9.75 0.02 0.06 -0.05 10946
0.05 0.26 0.51 -0.81 9.68 0.01 0.05 -0.05 10953
0.04 0.27 0.51 -0.81 9.72 0.01 0.05 -0.05 10960
0.03 0.25 0.51 -0.82 9.79 0.01 0.05 -0.05 10968
0.01 0.26 0.52 -0.82 9.76 0.02 0.05 -0.05 10975
0.01 0.24 0.53 -0.79 9.77 0.01 0.04 -0.05 10982
0.01 0.27 0.53 -0.84 9.76 0.02 0.04 -0.05 10989
0.03 0.22 0.54 -0.81 9.79 0.01 0.03 -0.06 10996
0.03 0.21 0.53 -0.84 9.77 0.01 0.04 -0.05 11003
0.03 0.17 0.52 -0.86 9.74 0.01 0.04 -0.06 11011
0.04 0.18 0.48 -0.84 9.80 0.01 0.04 -0.06 11018
0.04 0.17 0.47 -0.85 9.78 0.00 0.03 -0.05 11025
0.05 0.21 0.51 -0.85 9.78 0.00 0.04 -0.06 11032
0.07 0.17 0.52 -0.84 9.80 0.00 0.04 -0.06 11039
0.08 0.15 0.49 -0.84 9.80 0.00 0.05 -0.06 11046
0.09 0.14 0.53 -0.84 9.82 0.01 0.05 -0.06 11054
0.07 0.11 0.53 -0.84 9.75 0.01 0.05 -0.06 11061
0.07 0.12 0.53 -0.84 9.80 0.01 0.05 -0.05 11068
0.07 0.16 0.50 -0.86 9.77 0.01 0.05 -0.06 11075
0.08 0.09 0.51 -0.85 9.73 0.01 0.05 -0.06 11082
0.07 0.12 0.54 -0.85 9.76 0.01 0.05 -0.06 11089
0.06 0.08 0.54 -0.83 9.75 0.01 0.06 -0.07 11097
0.05 0.09 0.51 -0.87 9.71 0.01 0.06 -0.07 11104
0.07 0.08 0.57 -0.85 9.75 0.01 0.06 -0.06 11111
0.06 0.09 0.54 -0.87 9.73 0.01 0.07 -0.07 11118
0.08 0.06 0.55 -0.85 9.70 0.02 0.07 -0.07 11125
0.07 0.09 0.57 -0.85 9.74 0.02 0.07 -0.07 11132
0.06 0.07 0.54 -0.84 9.75 0.02 0.07 -0.07 11140
0.07 0.03 0.51 -0.87 9.75 0.02 0.08 -0.07 11147
0.07 0.07 0.54 -0.83 9.75 0.02 0.08 -0.07 11154
0.09 0.06 0.55 -0.87 9.74 0.02 0.08 -0.07 11161
0.08 0.04 0.57 -0.84 9.78 0.02 0.08 -0.07 11168
0.08 0.04 0.59 -0.85 9.82 0.03 0.08 -0.07 11175
0.09 0.02 0.61 -0.91 9.79 0.03 0.08 -0.07 11183
0.11 0.02 0.55 -0.88 9.83 0.03 0.08 -0.07 11190
0.12 0.01 0.56 -0.87 9.84 0.04 0.08 -0.07 11197
0.14 -0.00 0.60 -0.83 9.77 0.05 0.09 -0.07 11204
0.13 -0.00 0.57 -0.89 9.85 0.06 0.09 -0.07 11211
0.12 -0.00 0.52 -0.91 9.84 0.07 0.10 -0.07 11218
0.10 -0.01 0.57 -0.89 9.92 0.09 0.12 -0.07 11226
0.11 -0.01 0.56 -0.91 9.94 0.12 0.15 -0.07 11233
0.12 -0.01 0.57 -0.90 10.12 0.18 0.20 -0.06 11240
0.15 -0.01 0.56 -0.97 10.32 0.25 0.26 -0.06 11247
0.13 -0.01 0.72 -0.93 10.53 0.38 0.33 -0.06 11254
0.11 -0.01 0.77 -0.98 11.04 0.55 0.35 -0.07 11261
0.09 -0.01 0.90 -0.98 12.08 0.91 0.37 -0.11 11269
0.11 -0.01 0.73 -1.18 13.45 1.40 0.43 -0.13 11276
0.14 -0.01 1.00 -1.34 14.45 1.85 0.44 -0.18 11283
0.16 -0.02 0.84 -1.37 14.42 2.22 0.38 -0.22 11290
0.11 -0.01 1.00 -1.25 13.59 2.41 0.31 -0.24 11298
0.09 -0.01 0.81 -1.52 13.02 2.52 0.25 -0.25 11304
0.05 -0.01 0.97 -1.62 12.96 2.59 0.24 -0.24 11312
0.04 -0.00 1.26 -1.79 13.00 2.67 0.27 -0.25 11319
0.02 -0.00 1.39 -1.95 13.21 2.74 0.30 -0.27 11326
0.02 -0.00 1.18 -2.21 12.99 2.79 0.32 -0.27 11333
0.01 -0.00 1.46 -2.62 13.46 2.86 0.33 -0.27 11340
0.01 -0.00 2.01 -2.77 14.03 2.86 0.40 -0.29 11347
0.00 -0.00 2.97 -3.00 15.01 2.85 0.55 -0.31 11355
0.00 0.00 3.04 -2.95 15.87 2.81 0.72 -0.35 11362
0.02 -0.00 2.25 -2.00 15.51 2.80 0.83 -0.39 11369
0.01 -0.00 1.20 -0.09 14.67 2.75 0.78 -0.39 11376
0.00 -0.00 0.44 -0.02 14.25 2.59 0.59 -0.37 11383
0.00 0.00 -0.12 1.53 13.59 2.44 0.32 -0.35 11390
0.00 0.00 0.17 3.31 13.47 2.28 0.12 -0.35 11398
-0.00 0.00 0.76 6.02 12.48 2.01 -0.05 -0.37 11405
0.00 0.00 0.32 9.06 12.50 1.71 -0.18 -0.42 11412
0.00 0.00 0.09 10.86 11.08 1.30 -0.26 -0.48 11419
0.00 0.00 0.21 10.24 9.90 0.97 -0.30 -0.63 11426
0.00 0.00 0.28 9.81 10.55 0.63 -0.38 -0.76 11433
0.00 0.00 0.03 10.32 10.62 0.27 -0.41 -0.87 11441
0.00 0.00 0.19 10.07 9.23 0.04 -0.47 -0.97 11448
0.00 0.00 0.28 9.64 8.28 -0.17 -0.57 -1.03 11455
0.00 0.00 0.77 9.30 7.72 -0.35 -0.63 -1.09 11462
0.00 0.00 1.26 8.97 7.47 -0.50 -0.66 -1.12 11469
0.00 0.00 1.63 8.49 7.48 -0.67 -0.67 -1.15 11476
0.00 0.00 1.83 7.95 7.60 -0.82 -0.66 -1.15 11484
-0.00 0.00 1.95 7.27 7.65 -0.98 -0.66 -1.13 11491
0.00 -0.00 2.01 6.41 7.65 -1.11 -0.70 -1.08 11498
0.00 0.00 2.37 5.79 8.12 -1.20 -0.74 -1.00 11505
0.00 0.00 2.75 5.08 8.28 -1.30 -0.77 -0.92 11512
0.00 0.00 3.23 4.40 8.49 -1.38 -0.75 -0.83 11520
0.00 0.00 3.64 3.88 8.87 -1.47 -0.67 -0.74 11527
0.00 0.00 4.25 3.33 9.72 -1.56 -0.52 -0.64 11534
0.00 0.00 4.55 2.77 10.32 -1.65 -0.34 -0.52 11541
0.00 0.00 4.68 2.29 10.61 -1.75 -0.10 -0.41 11548
0.00 0.00 4.41 1.60 10.83 -1.84 0.08 -0.26 11555
0.00 0.00 4.01 0.86 11.10 -1.93 0.19 -0.13 11563
0.00 0.00 3.65 -0.03 11.28 -1.97 0.24 0.03 11570
0.00 0.00 3.49 -0.76 11.36 -1.99 0.25 0.17 11577
0.00 0.00 3.50 -1.25 11.50 -1.98 0.25 0.28 11584
0.00 0.00 3.74 -1.62 11.58 -1.97 0.26 0.38 11591
0.00 0.00 3.82 -1.77 11.60 -1.96 0.29 0.44 11598
0.00 0.00 3.77 -1.98 11.57 -1.94 0.35 0.50 11606
0.00 0.00 3.62 -2.28 11.44 -1.91 0.41 0.54 11613
0.00 0.00 3.28 -2.44 11.35 -1.86 0.47 0.57 11620
0.00 0.00 2.83 -2.81 11.10 -1.79 0.50 0.59 11627
0.00 0.00 2.37 -3.14 10.86 -1.68 0.49 0.59 11634
0.00 0.00 1.77 -3.44 10.77 -1.54 0.43 0.58 11641
0.00 0.00 1.20 -3.64 11.02 -1.40 0.31 0.56 11649
0.00 0.00 0.81 -3.65 11.39 -1.26 0.20 0.54 11656
0.00 -0.00 0.62 -3.44 11.78 -1.18 0.07 0.50 11663
0.00 0.00 0.71 -3.37 12.22 -1.15 -0.01 0.45 11670
0.00 0.00 1.08 -3.31 12.45 -1.17 -0.03 0.41 11677
0.00 0.00 1.61 -3.19 12.94 -1.21 0.05 0.36 11684
0.00 0.00 2.11 -3.11 13.29 -1.32 0.22 0.27 11692
0.00 0.00 2.53 -3.18 13.50 -1.47 0.50 0.25 11699
0.00 -0.00 2.40 -3.38 13.20 -1.61 0.78 0.20 11706
0.00 0.00 1.98 -3.79 12.57 -1.74 0.97 0.17 11713
0.00 0.00 1.53 -4.48 11.76 -1.79 1.08 0.15 11720
0.00 0.00 1.22 -5.11 11.02 -1.76 1.10 0.14 11727
0.00 0.00 1.12 -5.74 10.43 -1.64 1.08 0.14 11735
0.00 0.00 1.29 -6.21 9.92 -1.48 1.05 0.14 11742
0.00 0.00 1.36 -6.48 9.55 -1.28 1.02 0.15 11749
0.00 0.00 1.36 -6.76 8.97 -1.05 1.00 0.16 11756
0.00 0.00 1.19 -7.13 8.78 -0.83 0.94 0.17 11763
0.00 0.00 0.60 -7.42 8.95 -0.55 0.78 0.19 11770
0.00 0.00 -0.20 -7.47 9.83 -0.33 0.49 0.22 11778
0.00 0.00 -0.29 -7.30 10.44 -0.16 0.22 0.26 11785
0.00 0.00 0.40 -7.13 11.34 -0.13 -0.06 0.30 11792
0.00 0.00 1.27 -7.05 11.99 -0.24 -0.16 0.38 11799
0.00 0.00 2.30 -7.11 11.78 -0.46 -0.10 0.43 11806
0.00 0.00 2.76 -7.60 10.86 -0.67 0.08 0.50 11813
0.00 0.00 2.81 -8.15 9.72 -0.88 0.30 0.55 11821
0.00 0.00 2.84 -9.10 8.53 -0.98 0.59 0.59 11828
0.00 0.00 2.17 -10.01 7.41 -0.98 0.90 0.64 11835
0.00 0.00 0.75 -10.64 6.46 -0.90 1.09 0.69 11842
0.00 0.00 -0.77 -11.41 5.46 -0.74 1.28 0.75 11849
0.00 0.00 -2.14 -11.99 4.91 -0.62 1.38 0.83 11856
0.00 0.00 -6.11 -17.70 5.51 -0.32 1.21 0.85 11864
0.00 -0.00 -8.75 -17.32 9.12 0.47 0.50 0.88 11871
0.00 0.00 -6.60 -15.32 0.51 0.89 0.18 0.86 11878
0.00 0.00 -6.39 -19.83 1.24 1.23 -0.40 0.74 11885
0.00 0.00 -8.22 -24.97 4.16 1.59 -0.92 0.50 11892
-0.00 0.03 -9.56 -31.59 0.05 2.02 -1.42 0.27 11899
-0.00 0.04 -9.22 -30.55 -1.30 2.48 -2.39 -0.11 11907
-0.00 0.18 -5.68 -7.51 24.09 3.88 -2.44 -0.54 11915
-0.02 0.39 6.85 3.70 29.73 1.25 -3.96 -0.76 11922
-0.03 0.59 2.68 -1.48 10.90 -0.36 -0.09 -0.04 11929
-0.04 0.67 -2.47 -4.51 13.66 -0.22 -0.44 -0.22 11936
-0.03 0.83 0.24 -1.82 10.68 -0.07 -0.20 -0.09 11943
-0.02 0.78 0.07 -0.75 9.91 0.00 -0.00 -0.05 11950
-0.02 0.73 0.10 -0.94 9.82 0.00 0.05 -0.06 11957
-0.04 0.69 0.65 -0.61 9.65 0.02 0.09 -0.06 11964
-0.04 0.65 0.65 -1.06 9.79 0.01 0.08 -0.06 11971
-0.03 0.67 0.45 -0.76 9.79 -0.00 0.08 -0.05 11978
-0.03 0.69 1.22 -0.85 9.91 -0.01 0.07 -0.06 11985
-0.02 0.68 0.59 -0.82 9.83 -0.01 0.07 -0.06 11993
-0.02 0.66 0.54 -0.78 9.82 -0.00 0.07 -0.06 12000
-0.02 0.65 0.49 -0.83 9.81 -0.01 0.06 -0.10 12007
-0.01 0.63 0.51 -0.79 9.76 -0.00 0.07 -0.07 12014
-0.01 0.60 0.56 -0.74 9.75 -0.00 0.10 -0.07 12021
-0.01 0.58 0.54 -0.75 9.75 0.00 0.06 -0.07 12028
0.01 0.54 0.58 -0.75 9.78 0.00 0.06 -0.07 12036
0.00 0.52 0.56 -0.75 9.71 0.01 0.05 -0.07 12043
-0.00 0.51 0.54 -0.74 9.75 0.01 0.04 -0.07 12050
-0.01 0.48 0.48 -0.77 9.80 0.01 0.04 -0.07 12057
-0.00 0.45 0.46 -0.76 9.79 0.01 0.05 -0.07 12064
0.01 0.48 0.47 -0.75 9.77 0.00 0.05 -0.07 12071
0.01 0.45 0.48 -0.75 9.81 0.00 0.05 -0.06 12079
0.01 0.45 0.50 -0.77 9.79 -0.00 0.06 -0.06 12086
0.00 0.44 0.50 -0.73 9.72 -0.00 0.05 -0.06 12093
-0.01 0.42 0.51 -0.75 9.73 -0.00 0.06 -0.06 12100
-0.01 0.42 0.53 -0.75 9.80 0.00 0.06 -0.07 12107
-0.02 0.44 0.57 -0.73 9.80 0.00 0.06 -0.06 12114
-0.00 0.43 0.56 -0.75 9.78 0.00 0.06 -0.06 12122
-0.02 0.43 0.53 -0.77 9.80 0.00 0.05 -0.06 12129
-0.01 0.43 0.55 -0.74 9.74 0.00 0.05 -0.03 12136
-0.02 0.44 0.56 -0.73 9.78 0.00 0.05 -0.07 12143
-0.02 0.44 0.54 -0.76 9.72 0.00 0.05 -0.07 12150
-0.02 0.44 0.53 -0.73 9.77 0.01 0.04 -0.07 12157
-0.00 0.43 0.54 -0.76 9.74 0.01 0.04 -0.07 12165
-0.02 0.39 0.53 -0.76 9.78 0.01 0.03 -0.06 12172
0.01 0.38 0.54 -0.77 9.82 0.01 0.03 -0.06 12179
-0.01 0.40 0.54 -0.75 9.80 0.02 0.04 -0.06 12186
0.01 0.38 0.52 -0.74 9.80 0.01 0.04 -0.06 12193
0.01 0.37 0.53 -0.76 9.79 0.01 0.04 -0.06 12200
0.00 0.36 0.54 -0.77 9.78 0.01 0.04 -0.06 12208
0.01 0.33 0.56 -0.76 9.80 0.01 0.04 -0.07 12215
0.02 0.33 0.54 -0.79 9.77 0.01 0.04 -0.07 12222
0.02 0.35 0.58 -0.74 9.71 0.01 0.05 -0.07 12229
0.03 0.34 0.52 -0.78 9.78 0.02 0.04 -0.06 12236
0.03 0.33 0.53 -0.81 9.78 0.01 0.04 -0.07 12243
0.03 0.33 0.57 -0.77 9.79 0.01 0.04 -0.06 12251
0.03 0.31 0.52 -0.81 9.76 0.01 0.04 -0.06 12258
0.02 0.33 0.57 -0.80 9.77 0.01 0.04 -0.10 12265
0.03 0.32 0.59 -0.81 9.77 0.01 0.04 -0.07 12272
0.04 0.36 0.57 -0.77 9.79 0.01 0.04 -0.07 12279
0.05 0.30 0.54 -0.78 9.79 0.01 0.03 -0.07 12286
0.03 0.31 0.52 -0.80 9.82 0.01 0.04 -0.07 12294
0.01 0.30 0.52 -0.77 9.78 0.00 0.03 -0.07 12301
-0.01 0.31 0.53 -0.82 9.80 -0.00 0.03 -0.07 12308
0.01 0.30 0.51 -0.82 9.81 -0.00 0.04 -0.06 12315
0.00 0.31 0.51 -0.77 9.80 -0.00 0.04 -0.07 12322
0.02 0.31 0.53 -0.81 9.80 -0.01 0.04 -0.07 12329
-0.00 0.30 0.56 -0.80 9.79 -0.01 0.04 -0.07 12337
-0.00 0.31 0.53 -0.78 9.77 -0.01 0.04 -0.06 12344
-0.01 0.30 0.52 -0.78 9.76 -0.01 0.04 -0.07 12351
-0.00 0.31 0.53 -0.77 9.78 -0.01 0.04 -0.07 12358
-0.00 0.32 0.51 -0.79 9.80 -0.01 0.05 -0.07 12365
0.01 0.32 0.54 -0.79 9.75 -0.01 0.05 -0.07 12372
-0.00 0.32 0.57 -0.79 9.77 -0.01 0.05 -0.06 12380
-0.01 0.31 0.55 -0.81 9.75 -0.01 0.05 -0.07 12387
-0.02 0.33 0.54 -0.79 9.81 -0.01 0.05 -0.07 12394
-0.00 0.33 0.53 -0.80 9.75 -0.01 0.06 -0.07 12401
0.00 0.33 0.52 -0.84 9.72 -0.01 0.10 -0.07 12408
0.00 0.32 0.52 -0.80 9.70 -0.01 0.08 -0.07 12416
-0.00 0.32 0.52 -0.76 9.70 -0.01 0.08 -0.07 12423
-0.00 0.30 0.53 -0.77 9.75 -0.00 0.09 -0.07 12430
-0.01 0.31 0.56 -0.77 9.75 0.00 0.09 -0.07 12437
-0.00 0.30 0.54 -0.77 9.76 0.00 0.09 -0.07 12444
0.01 0.30 0.59 -0.79 9.75 0.00 0.09 -0.07 12451
0.01 0.29 0.61 -0.78 9.72 0.01 0.09 -0.07 12459
0.01 0.29 0.57 -0.78 9.78 0.02 0.10 -0.08 12466
0.01 0.27 0.61 -0.77 9.80 0.02 0.10 -0.08 12473
0.01 0.28 0.64 -0.81 9.82 0.03 0.09 -0.08 12480
0.02 0.24 0.62 -0.79 9.76 0.03 0.09 -0.08 12487
0.04 0.20 0.60 -0.82 9.80 0.04 0.09 -0.08 12494
0.04 0.13 0.02 -0.78 9.82 0.04 0.09 -0.08 12502
0.05 0.10 0.64 -0.79 9.82 0.05 0.09 -0.08 12509
0.05 0.03 0.65 -0.80 9.82 0.05 0.09 -0.08 12516
0.07 0.01 0.59 -0.81 9.83 0.06 0.09 -0.08 12523
0.09 0.03 0.64 -0.85 9.84 0.07 0.10 -0.07 12530
0.10 0.00 0.61 -0.83 9.81 0.08 0.10 -0.07 12537
0.09 0.02 0.62 -0.83 9.83 0.09 0.11 -0.07 12545
0.10 -0.00 0.60 -0.88 9.91 0.12 0.14 -0.06 12552
0.09 0.00 0.62 -0.94 10.07 0.16 0.17 -0.05 12559
0.09 -0.01 0.61 -0.84 10.20 0.23 0.22 -0.04 12566
0.09 0.01 0.82 -0.84 10.30 0.32 0.31 -0.03 12573
0.09 -0.01 0.66 -0.99 10.63 0.47 0.38 -0.03 12580
0.07 -0.01 0.69 -0.92 11.23 0.71 0.41 -0.04 12588
0.07 -0.01 0.67 -0.78 11.81 1.04 0.44 -0.05 12595
0.05 -0.01 0.84 -1.21 13.46 1.51 0.41 -0.06 12602
0.05 -0.00 1.49 -1.21 14.11 1.93 0.31 -0.11 12609
0.03 -0.00 1.10 -1.14 14.08 2.23 0.28 -0.17 12616
0.04 -0.00 0.82 -1.55 13.45 2.41 0.20 -0.20 12623
0.03 -0.00 0.91 -1.63 12.94 2.51 0.15 -0.20 12631
0.02 -0.00 1.08 -1.71 12.81 2.62 0.13 -0.21 12638
0.02 -0.00 1.37 -1.74 12.89 2.71 0.14 -0.22 12645
0.02 0.00 1.34 -1.95 13.26 2.79 0.15 -0.24 12652
0.05 -0.00 1.67 -2.23 13.81 2.88 0.18 -0.26 12659
0.02 -0.00 1.85 -2.63 14.04 2.95 0.19 -0.29 12666
0.01 -0.00 2.63 -2.97 15.09 2.98 0.22 -0.32 12674
0.00 -0.00 3.11 -3.15 15.93 2.97 0.34 -0.37 12681
0.00 -0.00 2.96 -2.79 16.33 2.96 0.49 -0.41 12688
0.00 0.00 1.85 -1.32 15.78 2.84 0.53 -0.45 12695
0.00 0.00 0.80 0.25 14.60 2.67 0.40 -0.44 12702
0.00 0.00 0.33 1.49 13.90 2.46 0.17 -0.42 12709
0.00 0.00 0.28 2.94 12.83 2.24 -0.09 -0.39 12717
0.00 0.00 0.72 6.53 11.91 2.05 -0.24 -0.37 12724
0.00 0.00 1.01 9.01 11.26 1.74 -0.30 -0.36 12731
0.00 0.00 0.43 10.07 9.99 1.41 -0.35 -0.44 12738
0.00 0.00 0.37 10.66 9.79 1.03 -0.34 -0.54 12745
0.00 0.00 0.14 9.95 9.54 0.69 -0.33 -0.67 12752
0.00 0.00 -0.11 10.28 9.14 0.42 -0.30 -0.79 12760
0.00 0.00 -0.17 9.77 7.88 0.20 -0.31 -0.89 12767
0.00 0.00 -0.24 8.99 6.95 0.07 -0.37 -1.00 12774
0.00 0.00 0.01 8.52 6.96 -0.05 -0.41 -1.09 12781
0.00 -0.00 0.32 8.05 7.18 -0.18 -0.47 -1.18 12788
0.00 0.00 0.46 7.65 7.57 -0.31 -0.53 -1.24 12795
0.00 0.00 0.88 7.33 7.87 -0.50 -0.58 -1.28 12803
0.00 0.00 1.38 6.91 8.32 -0.72 -0.62 -1.30 12810
0.00 0.00 1.84 6.41 8.40 -0.92 -0.61 -1.29 12817
0.00 0.00 2.30 5.57 8.35 -1.14 -0.59 -1.25 12824
0.00 0.00 2.63 4.55 8.54 -1.29 -0.56 -1.19 12831
0.00 0.00 3.09 3.79 8.65 -1.41 -0.50 -1.12 12838
0.00 0.00 3.49 2.94 8.77 -1.49 -0.41 -1.02 12846
0.00 0.00 3.73 2.28 8.94 -1.56 -0.32 -0.89 12853
0.00 0.00 3.94 1.62 9.13 -1.60 -0.21 -0.76 12860
0.00 0.00 4.06 1.02 9.57 -1.63 -0.11 -0.61 12867
0.00 0.00 4.06 0.56 9.88 -1.66 -0.02 -0.48 12874
0.00 0.00 4.03 -0.02 10.28 -1.68 0.06 -0.33 12881
0.00 0.00 4.02 -0.43 10.83 -1.70 0.12 -0.17 12889
0.00 0.00 4.02 -0.82 11.27 -1.71 0.21 -0.05 12896
0.00 0.00 3.96 -1.19 11.74 -1.74 0.29 0.07 12903
0.00 0.00 3.76 -1.50 11.83 -1.78 0.35 0.17 12910
0.00 0.00 3.51 -1.87 11.89 -1.82 0.40 0.26 12917
0.00 0.00 3.26 -2.34 11.97 -1.83 0.42 0.34 12924
0.00 0.00 3.16 -2.69 11.86 -1.83 0.42 0.39 12932
0.00 0.00 3.11 -2.96 11.82 -1.83 0.40 0.44 12939
0.00 0.00 3.04 -3.09 11.67 -1.80 0.39 0.48 12946
0.00 0.00 2.88 -3.22 11.40 -1.74 0.40 0.54 12953
0.00 0.00 2.60 -3.31 11.31 -1.69 0.41 0.61 12960
0.00 0.00 2.37 -3.37 11.32 -1.62 0.41 0.67 12967
0.00 0.00 1.96 -3.46 11.29 -1.56 0.40 0.74 12975
0.00 0.00 1.65 -3.65 11.18 -1.48 0.37 0.80 12982
0.00 0.00 1.30 -3.76 11.08 -1.40 0.30 0.84 12989
0.00 0.00 1.19 -3.91 11.08 -1.33 0.24 0.87 12996
0.00 0.00 1.09 -3.94 10.97 -1.24 0.20 0.88 13003
0.00 0.00 1.12 -4.04 10.96 -1.16 0.18 0.88 13010
0.00 0.00 1.26 -4.00 11.01 -1.09 0.20 0.88 13018
0.00 0.00 1.41 -3.93 11.15 -1.03 0.27 0.88 13025
0.00 0.00 1.67 -3.96 11.63 -1.01 0.38 0.88 13032
0.00 0.00 2.05 -3.87 11.71 -1.01 0.53 0.89 13039
0.00 0.00 2.48 -3.97 11.66 -1.05 0.74 0.89 13046
0.00 0.00 1.88 -4.16 11.48 -1.08 0.94 0.92 13053
0.00 0.00 2.22 -4.33 11.25 -1.09 1.12 0.94 13061
0.00 0.00 1.71 -4.65 11.10 -1.08 1.22 0.97 13068
0.00 0.00 1.19 -5.49 10.75 -1.05 1.24 1.02 13075
0.00 0.00 0.68 -5.16 10.57 -0.98 1.16 1.08 13082
0.00 0.00 0.31 -5.48 10.31 -0.90 1.02 1.15 13089
0.00 0.00 -0.01 -5.65 10.09 -0.80 0.87 1.23 13096
0.00 0.00 -0.41 -5.92 9.99 -0.68 0.64 1.32 13104
0.00 0.00 -0.67 -6.13 9.93 -0.58 0.39 1.40 13111
0.00 -0.00 -1.19 -6.50 9.76 -0.46 0.02 1.45 13118
0.00 0.00 -1.25 -6.92 9.75 -0.35 -0.40 1.48 13125
0.00 0.00 -0.31 -7.16 10.44 -0.29 -0.64 1.50 13132
0.00 0.00 1.18 -7.17 10.45 -0.30 -0.71 1.48 13139
0.00 0.00 1.95 -7.49 10.17 -0.37 -0.60 1.44 13147
0.00 0.00 2.57 -7.79 9.55 -0.46 -0.32 1.40 13154
0.00 -0.00 2.45 -8.38 9.01 -0.52 0.02 1.34 13161
0.00 0.00 2.26 -9.01 8.56 -0.56 0.30 1.24 13168
0.00 0.00 1.68 -9.86 7.88 -0.53 0.57 1.19 13175
0.00 0.00 1.00 -10.81 6.61 -0.46 0.76 1.10 13182
0.00 0.00 0.31 -11.79 5.90 -0.29 0.81 1.03 13190
0.00 0.00 -0.22 -12.73 5.23 -0.05 0.85 0.93 13197
0.00 0.00 -0.54 -14.90 5.19 0.21 0.86 0.81 13204
0.00 0.00 -2.20 -17.07 7.67 0.71 0.77 0.72 13211
0.00 0.00 -2.25 -14.47 3.75 1.08 0.67 0.60 13218
0.00 0.00 -3.18 -16.44 4.57 1.27 0.39 0.51 13225
0.00 0.00 -4.26 -18.11 6.96 1.49 -0.16 0.33 13233
0.00 0.00 -4.02 -19.69 5.08 1.69 -0.47 0.09 13240
0.00 0.00 -3.87 -24.35 4.40 1.99 -1.01 -0.16 13247
-0.00 0.03 -1.75 -22.55 8.54 2.25 -2.35 -0.60 13254
-0.00 0.02 2.49 1.16 41.54 0.84 -4.28 -0.77 13261
-0.01 0.14 1.38 -7.88 14.98 -0.44 -0.57 0.05 13268
-0.03 0.39 1.92 -0.54 10.52 -0.57 0.01 -0.05 13277
-0.02 0.45 -0.42 -2.48 11.29 -0.32 -0.27 -0.19 13284
-0.02 0.55 0.43 -1.69 10.74 -0.14 -0.13 -0.13 13291
-0.01 0.60 -0.10 -1.30 10.37 -0.07 -0.04 -0.08 13297
-0.00 0.61 0.00 -0.59 9.86 -0.03 0.05 -0.06 13304
-0.02 0.66 0.46 -0.72 9.81 -0.01 0.11 -0.07 13312
-0.02 0.61 0.73 -0.96 9.87 -0.01 0.10 -0.06 13319
0.00 0.59 0.52 -0.87 9.79 -0.01 0.08 -0.05 13326
-0.01 0.57 0.47 -0.86 9.83 -0.01 0.08 -0.05 13333
-0.00 0.56 0.52 -0.80 9.83 -0.01 0.09 -0.05 13340
-0.01 0.54 0.58 -0.82 9.83 0.00 0.09 -0.05 13347
-0.01 0.53 0.57 -0.82 9.83 0.01 0.09 -0.05 13355
0.01 0.52 0.62 -0.76 9.81 0.01 0.09 -0.05 13362
0.02 0.51 0.64 -0.77 9.72 0.01 0.08 -0.06 13369
0.01 0.48 0.64 -0.80 9.74 0.01 0.07 -0.07 13376
0.02 0.44 0.59 -0.76 9.71 0.01 0.06 -0.07 13383
0.01 0.43 0.57 -0.80 9.73 0.01 0.05 -0.07 13390
0.02 0.41 0.52 -0.77 9.76 0.00 0.05 -0.08 13398
0.03 0.42 0.51 -0.75 9.80 0.01 0.05 -0.07 13405
0.04 0.41 0.51 -0.78 10.42 0.00 0.05 -0.07 13412
0.02 0.38 0.52 -0.74 9.81 0.01 0.06 -0.07 13419
0.04 0.37 0.52 -0.82 9.81 0.01 0.06 -0.06 13426
0.02 0.40 0.49 -0.75 9.69 0.01 0.07 -0.05 13433
0.02 0.39 0.57 -0.78 9.72 0.01 0.07 -0.06 13441
0.03 0.40 0.57 -0.81 9.79 0.01 0.07 -0.05 13448
0.02 0.39 0.60 -0.74 9.73 0.01 0.08 -0.06 13455
0.02 0.36 0.61 -0.81 9.80 0.01 0.08 -0.07 13462
0.02 0.31 0.59 -0.80 9.73 0.01 0.08 -0.07 13469
0.01 0.31 0.61 -0.81 9.77 0.02 0.08 -0.07 13476
0.01 0.33 0.58 -0.80 9.77 0.01 0.08 -0.07 13484
0.02 0.33 0.58 -0.79 9.75 0.02 0.07 -0.07 13491
0.02 0.30 0.58 -0.81 9.78 0.02 0.07 -0.07 13498
0.02 0.28 0.58 -0.78 9.20 0.01 0.07 -0.06 13505
0.02 0.29 0.58 -0.81 9.77 0.02 0.07 -0.06 13512
0.04 0.27 0.57 -0.77 9.81 0.02 0.07 -0.06 13519
0.05 0.24 0.59 -0.84 9.81 0.02 0.07 -0.06 13527
0.07 0.22 0.66 -0.79 9.77 0.02 0.07 -0.06 13534
0.06 0.25 0.61 -0.83 9.76 0.02 0.07 -0.06 13541
0.05 0.27 0.66 -0.83 9.75 0.02 0.07 -0.07 13548
0.06 0.22 0.66 -0.81 9.76 0.01 0.07 -0.06 13555
0.05 0.25 0.63 -0.83 9.72 0.02 0.06 -0.07 13562
0.06 0.18 0.62 -0.82 9.77 0.01 0.06 -0.07 13570
0.06 0.20 0.64 -0.84 9.76 0.01 0.06 -0.07 13577
0.04 0.20 0.61 -0.82 9.75 0.02 0.06 -0.07 13584
0.04 0.21 0.64 -0.82 9.73 0.02 0.06 -0.07 13591
0.02 0.19 0.66 -0.81 9.77 0.01 0.06 -0.07 13598
0.03 0.19 0.62 -0.86 9.79 0.02 0.06 -0.07 13605
0.05 0.16 0.64 -0.86 9.77 0.01 0.06 -0.07 13613
0.07 0.15 0.64 -0.82 9.72 0.01 0.05 -0.07 13620
0.07 0.12 0.66 -0.83 9.75 0.01 0.05 -0.07 13627
0.06 0.11 0.65 -0.82 9.77 0.01 0.05 -0.07 13634
0.06 0.11 0.65 -0.84 9.76 0.01 0.05 -0.07 13641
0.05 0.13 0.64 -0.87 9.73 -0.00 0.05 -0.07 13648
0.06 0.11 0.64 -0.85 9.76 0.00 0.05 -0.06 13656
0.06 0.11 0.64 -0.85 9.76 0.00 0.05 -0.07 13663
0.05 0.10 0.63 -0.83 9.76 0.00 0.06 -0.07 13670
0.06 0.08 0.63 -0.85 9.76 0.00 0.06 -0.07 13677
0.04 0.08 0.64 -0.82 9.74 0.00 0.06 -0.07 13684
0.05 0.10 0.64 -0.85 9.75 0.00 0.06 -0.08 13691
0.05 0.10 0.72 -0.83 9.81 -0.00 0.06 -0.07 13699
0.05 0.08 0.62 -0.87 9.74 0.00 0.06 -0.07 13706
0.04 0.11 0.65 -0.84 9.77 -0.00 0.06 -0.08 13713
0.04 0.08 0.70 -0.85 9.75 -0.01 0.06 -0.07 13720
0.03 0.09 0.68 -0.84 9.73 -0.00 0.06 -0.07 13727
0.03 0.10 0.65 -0.86 9.73 -0.01 0.06 -0.07 13734
0.04 0.10 0.68 -0.83 9.71 -0.01 0.05 -0.07 13742
0.03 0.10 0.68 -0.85 9.73 -0.00 0.05 -0.07 13749
0.03 0.10 0.67 -0.84 9.75 -0.00 0.06 -0.08 13756
0.03 0.09 0.68 -0.88 9.71 -0.00 0.06 -0.08 13763
0.03 0.07 0.68 -0.85 9.75 0.00 0.07 -0.09 13770
0.03 0.07 0.64 -0.84 9.77 0.01 0.08 -0.08 13777
0.05 0.07 0.68 -0.85 9.73 0.01 0.08 -0.09 13785
0.04 0.02 0.68 -0.86 9.80 0.01 0.08 -0.08 13792
0.04 0.03 0.71 -0.86 9.79 0.02 0.08 -0.09 13799
0.03 0.04 0.71 -0.85 9.81 0.02 0.08 -0.09 13806
0.04 0.04 0.70 -0.85 9.82 0.03 0.08 -0.09 13813
0.05 0.01 0.74 -0.85 9.82 0.04 0.08 -0.09 13820
0.06 -0.00 0.71 -0.90 9.80 0.04 0.08 -0.09 13828
0.05 -0.00 0.71 -0.85 9.83 0.05 0.09 -0.09 13835
0.05 -0.01 0.74 -0.87 9.81 0.07 0.09 -0.08 13842
0.04 -0.00 0.74 -0.89 9.82 0.07 0.10 -0.08 13849
0.05 -0.01 0.78 -0.90 9.84 0.10 0.11 -0.08 13856
0.05 -0.00 0.72 -0.90 9.91 0.12 0.14 -0.08 13863
0.08 -0.01 0.70 -0.86 9.96 0.16 0.16 -0.09 13871
0.07 -0.01 0.74 -0.91 10.12 0.22 0.20 -0.08 13878
0.09 -0.01 0.78 -0.96 10.35 0.30 0.24 -0.07 13885
0.07 -0.01 0.99 -0.87 10.50 0.44 0.27 -0.08 13892
0.06 -0.01 0.84 -0.96 11.11 0.66 0.30 -0.10 13899
0.05 -0.01 0.89 -1.02 11.88 0.92 0.33 -0.10 13906
0.06 -0.01 0.74 -1.29 13.25 1.34 0.30 -0.10 13914
0.04 -0.00 0.98 -1.36 15.12 1.78 0.21 -0.12 13921
0.03 -0.00 1.10 -1.26 15.77 2.25 0.17 -0.17 13928
0.02 -0.00 1.36 -1.02 14.52 2.60 0.16 -0.23 13935
0.05 -0.00 1.09 -1.47 13.96 2.77 0.12 -0.24 13942
0.05 -0.01 0.76 -1.64 14.59 2.94 0.11 -0.23 13949
0.03 -0.00 1.08 -1.68 14.21 3.07 0.16 -0.21 13957
0.05 -0.01 1.01 -1.84 14.93 3.20 0.24 -0.20 13964
0.02 -0.00 1.02 -2.19 15.03 3.29 0.35 -0.19 13971
0.01 -0.00 1.65 -2.34 15.99 3.34 0.43 -0.17 13978
0.02 -0.00 1.58 -2.10 17.45 3.34 0.55 -0.15 13985
0.01 -0.00 1.18 -1.35 17.47 3.29 0.69 -0.14 13992
0.00 0.00 0.45 0.83 16.14 3.18 0.74 -0.12 14000
0.00 0.00 -0.29 1.64 14.89 2.89 0.67 -0.07 14007
0.00 0.00 -1.70 2.49 13.78 2.62 0.55 -0.03 14014
0.00 0.00 -1.62 6.89 12.65 2.36 0.32 -0.02 14021
0.00 0.00 -1.80 10.31 11.07 2.02 0.09 -0.02 14028
0.00 0.00 -2.16 11.33 10.05 1.53 -0.12 -0.06 14035
0.00 0.00 -2.76 14.06 10.01 1.07 -0.27 -0.17 14043
0.00 0.00 -2.17 12.37 8.27 0.73 -0.45 -0.41 14050
0.00 0.00 -2.61 12.54 9.27 0.37 -0.53 -0.54 14057
0.00 0.00 -2.28 12.45 8.30 0.02 -0.59 -0.71 14064
0.00 0.00 -1.89 11.47 7.31 -0.23 -0.72 -0.85 14071
0.00 0.00 -1.32 10.27 7.27 -0.45 -0.85 -0.95 14078
0.00 0.00 -0.36 9.23 7.43 -0.62 -0.95 -1.03 14086
0.00 0.00 0.24 8.31 7.54 -0.78 -1.00 -1.07 14093
0.00 0.00 1.10 7.12 7.82 -0.92 -1.01 -1.09 14100
0.00 0.00 1.65 6.25 8.71 -1.04 -1.00 -1.07 14107
0.00 0.00 2.20 5.43 9.40 -1.16 -1.01 -1.05 14114
0.00 0.00 2.68 4.48 9.82 -1.28 -1.03 -0.98 14121
0.00 0.00 3.19 3.65 10.05 -1.43 -1.05 -0.88 14129
0.00 0.00 3.67 2.69 10.23 -1.55 -1.07 -0.73 14136
0.00 0.00 4.10 1.73 10.25 -1.62 -1.08 -0.56 14143
0.00 0.00 4.69 0.98 10.20 -1.67 -1.05 -0.39 14150
0.00 0.00 5.26 0.23 10.20 -1.64 -0.98 -0.18 14157
0.00 0.00 5.68 -0.18 10.10 -1.65 -0.90 0.02 14164
0.00 0.00 5.90 -0.60 10.06 -1.61 -0.79 0.18 14172
0.00 0.00 6.02 -0.86 10.16 -1.58 -0.64 0.37 14179
0.00 0.00 5.95 -1.09 10.43 -1.54 -0.55 0.54 14186
0.00 0.00 5.91 -1.22 10.85 -1.51 -0.42 0.71 14193
0.00 0.00 5.80 -1.31 11.18 -1.51 -0.31 0.87 14200
0.00 0.00 5.70 -1.46 11.48 -1.53 -0.22 1.01 14208
0.00 0.00 5.54 -1.56 11.70 -1.57 -0.14 1.15 14215
0.00 0.00 5.36 -1.68 11.68 -1.61 -0.08 1.26 14222
0.00 0.00 5.25 -2.01 11.39 -1.64 -0.05 1.38 14229
0.00 0.00 5.18 -2.33 11.16 -1.65 -0.04 1.46 14236
0.00 0.00 5.14 -2.57 11.03 -1.62 -0.02 1.51 14243
0.00 0.00 5.25 -2.84 10.93 -1.58 0.01 1.53 14251
0.00 0.00 5.26 -3.04 10.79 -1.52 0.05 1.53 14258
0.00 0.00 5.25 -3.21 10.51 -1.45 0.11 1.52 14265
0.00 0.00 5.14 -3.35 10.24 -1.36 0.16 1.48 14272
0.00 0.00 4.98 -3.56 10.10 -1.25 0.22 1.45 14279
0.00 -0.00 4.61 -3.64 10.09 -1.10 0.23 1.42 14286
0.00 0.00 4.24 -3.58 10.18 -1.00 0.22 1.39 14294
0.00 0.00 3.98 -3.34 10.57 -0.89 0.18 1.38 14301
0.00 0.00 4.06 -3.26 10.89 -0.82 0.13 1.37 14308
0.00 0.00 4.37 -3.07 11.37 -0.80 0.09 1.37 14315
0.00 0.00 4.88 -2.89 11.91 -0.82 0.12 1.36 14322
0.00 0.00 5.05 -2.95 11.87 -0.89 0.19 1.37 14329
0.00 0.00 5.03 -3.12 11.56 -0.96 0.27 1.37 14337
0.00 0.00 4.85 -3.53 11.12 -1.00 0.33 1.37 14344
0.00 0.00 4.69 -3.86 10.92 -1.01 0.36 1.36 14351
0.00 0.00 4.44 -4.29 10.56 -0.97 0.36 1.35 14358
0.00 0.00 4.05 -4.48 9.96 -0.90 0.35 1.34 14365
0.00 0.00 3.83 -4.73 9.45 -0.78 0.32 1.34 14372
0.00 0.00 3.68 -5.01 9.21 -0.65 0.28 1.34 14380
0.00 0.00 3.70 -5.18 9.01 -0.48 0.25 1.34 14387
0.00 0.00 3.93 -5.24 9.14 -0.31 0.25 1.35 14394
0.00 0.00 4.13 -5.12 9.75 -0.20 0.27 1.36 14401
0.00 -0.00 4.07 -4.86 10.97 -0.15 0.31 1.38 14408
0.00 0.00 3.91 -4.68 11.16 -0.19 0.33 1.43 14415
0.00 0.00 3.71 -4.56 12.17 -0.31 0.33 1.53 14423
0.00 0.00 3.64 -4.69 12.55 -0.53 0.32 1.61 14430
0.00 0.00 3.96 -5.04 12.21 -0.75 0.32 1.73 14437
0.00 0.00 4.24 -5.60 11.26 -0.97 0.33 1.82 14444
0.00 -0.00 4.39 -6.62 9.71 -1.07 0.38 1.88 14451
0.00 0.00 4.63 -8.01 8.52 -1.01 0.45 1.90 14458
0.00 0.00 4.43 -9.22 7.95 -0.81 0.53 1.89 14466
0.00 0.00 4.29 -9.84 7.43 -0.59 0.70 1.86 14473
0.00 0.00 4.07 -9.42 6.71 -0.33 0.89 1.88 14480
0.00 0.00 3.20 -9.62 7.93 -0.16 1.12 1.92 14487
0.00 0.00 2.40 -9.80 8.74 -0.08 1.19 1.99 14494
0.00 0.00 1.37 -10.08 8.24 -0.08 1.08 2.03 14501
0.00 0.00 0.36 -11.26 8.41 -0.05 0.83 2.03 14509
0.00 0.00 0.31 -13.41 7.60 0.06 0.64 1.95 14516
0.00 0.00 0.54 -13.70 5.48 0.30 0.63 1.87 14523
0.00 0.00 0.27 -14.99 3.41 0.52 0.76 1.66 14530
0.00 0.00 -1.55 -18.00 5.70 0.72 0.71 1.41 14537
0.00 0.00 -4.19 -19.88 4.27 0.98 0.49 1.03 14544
0.00 0.00 -6.72 -24.62 3.18 1.25 0.10 0.57 14552
-0.00 0.01 -11.63 -28.60 2.26 1.58 -0.64 0.10 14559
-0.00 0.01 -13.18 -39.11 2.37 1.91 -2.04 -0.58 14567
0.00 0.06 -3.34 -6.56 43.69 1.81 -4.28 -1.13 14574
-0.02 0.21 2.74 -8.64 21.37 0.10 -2.19 -0.44 14580
-0.03 0.40 2.70 -1.70 10.62 -0.43 -0.19 -0.02 14588
-0.02 0.54 0.07 -1.66 11.47 -0.23 -0.27 -0.11 14596
-0.04 0.63 0.11 -1.48 10.79 -0.06 -0.14 -0.12 14603
-0.04 0.56 0.21 -1.03 10.06 -0.01 -0.00 -0.08 14609
-0.02 0.59 0.28 -0.91 9.94 0.01 0.08 -0.06 14616
-0.02 0.56 0.46 -0.56 9.70 0.02 0.13 -0.05 14623
-0.01 0.55 0.60 -0.97 10.34 0.03 0.14 -0.06 14630
-0.01 0.52 0.71 -0.94 9.74 0.02 0.13 -0.04 14638
-0.01 0.49 0.73 -0.80 9.78 0.01 0.10 -0.04 14645
0.00 0.47 0.73 -0.81 9.81 0.01 0.09 -0.05 14652
0.02 0.42 0.68 -0.83 9.81 0.02 0.08 -0.06 14659
0.00 0.40 0.57 -0.84 9.82 0.02 0.07 -0.06 14666
-0.02 0.39 0.62 -0.79 9.66 0.02 0.07 -0.06 14673
-0.02 0.39 0.64 -0.82 9.72 0.01 0.07 -0.07 14681
-0.01 0.36 0.62 -0.79 9.75 0.01 0.07 -0.07 14688
-0.01 0.39 0.60 -0.78 9.75 0.01 0.06 -0.07 14695
0.00 0.39 0.58 -0.75 9.71 0.01 0.06 -0.07 14702
0.00 0.37 0.59 -0.80 9.80 0.02 0.07 -0.07 14709
0.00 0.34 0.50 -0.75 9.77 0.02 0.07 -0.07 14716
0.00 0.34 0.58 -0.81 9.79 0.02 0.08 -0.07 14724
-0.00 0.35 0.54 -0.80 9.77 0.02 0.08 -0.06 14731
0.01 0.32 0.53 -0.82 9.77 0.03 0.10 -0.06 14738
0.00 0.29 0.61 -0.81 9.73 0.02 0.10 -0.06 14745
0.01 0.27 0.59 -0.81 9.72 0.03 0.10 -0.06 14752
0.02 0.25 0.41 -0.71 10.18 0.03 0.10 -0.06 14759
0.01 0.26 0.63 -0.86 9.79 0.03 0.09 -0.07 14767
0.02 0.27 0.63 -0.82 9.77 0.02 0.09 -0.07 14774
0.04 0.27 0.64 -0.81 9.75 0.02 0.09 -0.07 14781
0.03 0.25 0.66 -0.81 9.70 0.02 0.08 -0.07 14788
0.03 0.23 0.65 -0.85 9.76 0.02 0.08 -0.07 14795
0.03 0.23 0.66 -0.82 9.77 0.02 0.08 -0.07 14802
0.03 0.24 0.63 -0.83 9.78 0.02 0.07 -0.07 14810
0.03 0.22 0.67 -0.85 9.77 0.02 0.06 -0.07 14817
0.03 0.23 0.66 -0.83 9.78 0.02 0.06 -0.07 14824
0.04 0.15 0.62 -0.86 9.73 0.02 0.06 -0.06 14831
0.04 0.16 0.65 -0.87 9.72 0.02 0.07 -0.07 14838
0.02 0.15 0.65 -0.84 9.71 0.02 0.07 -0.06 14845
0.03 0.14 0.65 -0.88 9.79 0.02 0.07 -0.07 14853
0.03 0.14 0.66 -0.85 9.75 0.02 0.07 -0.07 14860
0.04 0.11 0.67 -0.85 9.88 0.02 0.07 -0.07 14867
0.03 0.08 0.65 -0.85 9.78 0.02 0.07 -0.07 14874
0.01 0.10 0.68 -0.89 9.73 0.01 0.06 -0.06 14881
0.01 0.06 0.72 -0.85 9.77 0.02 0.06 -0.07 14888
0.03 0.08 0.67 -0.88 9.76 0.01 0.06 -0.07 14896
0.04 0.07 0.71 -0.87 9.77 0.02 0.05 -0.06 14903
0.06 0.07 0.69 -0.90 9.75 0.01 0.05 -0.07 14910
0.05 0.05 0.70 -0.87 9.77 0.01 0.05 -0.07 14917
0.05 0.08 0.69 -0.87 9.79 0.01 0.04 -0.07 14924
0.04 0.08 0.69 -0.86 9.76 0.01 0.05 -0.07 14931
0.05 0.08 0.70 -0.86 9.77 0.01 0.05 -0.07 14939
0.05 0.09 0.68 -0.91 9.77 0.01 0.05 -0.07 14946
0.05 0.07 0.71 -0.84 9.75 0.01 0.05 -0.07 14953
0.05 0.07 0.69 -0.91 9.76 0.01 0.05 -0.07 14960
0.07 0.05 0.69 -0.88 9.77 0.01 0.05 -0.07 14967
0.06 0.05 0.72 -0.91 9.80 0.01 0.05 -0.07 14974
0.08 0.06 0.69 -0.87 9.79 0.01 0.05 -0.07 14982
0.08 0.06 0.69 -0.91 9.74 0.00 0.05 -0.07 14989
0.07 0.06 0.70 -0.88 9.78 0.00 0.05 -0.07 14996
0.07 0.06 0.67 -0.89 9.73 -0.00 0.04 -0.07 15003
0.07 0.07 0.70 -0.88 9.71 -0.00 0.04 -0.07 15010
0.08 0.07 0.73 -0.90 9.71 -0.01 0.05 -0.08 15017
0.09 0.06 0.72 -0.87 9.75 -0.01 0.05 -0.07 15025
0.09 0.06 0.72 -0.87 9.73 -0.00 0.04 -0.07 15032
0.10 0.06 0.70 -0.87 9.75 -0.00 0.04 -0.07 15039
0.08 0.05 0.70 -0.87 9.79 -0.00 0.04 -0.08 15046
0.08 0.06 0.70 -0.86 9.72 0.00 0.04 -0.08 15053
0.09 0.06 0.68 -0.87 9.73 0.00 0.05 -0.08 15060
0.08 0.08 0.69 -0.90 9.74 0.01 0.05 -0.07 15068
0.10 0.05 0.73 -0.91 9.78 0.01 0.06 -0.08 15075
0.09 0.05 0.68 -0.92 9.77 0.01 0.06 -0.08 15082
0.10 0.05 0.73 -0.94 9.77 0.02 0.07 -0.08 15089
0.09 0.04 0.71 -0.90 9.78 0.02 0.08 -0.08 15096
0.09 0.03 0.74 -0.90 9.79 0.02 0.09 -0.09 15104
0.09 0.06 0.76 -0.91 9.78 0.03 0.09 -0.08 15111
0.11 0.00 0.74 -0.91 9.77 0.03 0.10 -0.09 15118
0.09 0.01 0.74 -0.87 9.79 0.03 0.10 -0.09 15125
0.08 -0.00 0.75 -0.90 9.80 0.04 0.10 -0.09 15132
0.08 -0.00 0.75 -0.93 9.83 0.05 0.11 -0.09 15139
0.09 -0.00 0.81 -0.89 9.83 0.07 0.13 -0.08 15147
0.12 -0.00 0.75 -0.88 9.84 0.09 0.15 -0.08 15154
0.13 -0.01 0.77 -0.86 9.92 0.12 0.17 -0.08 15161
0.12 -0.01 0.87 -0.86 9.90 0.15 0.21 -0.07 15168
0.12 -0.01 0.74 -1.02 9.98 0.20 0.24 -0.07 15175
0.10 -0.01 0.88 -0.97 10.06 0.25 0.25 -0.07 15182
0.10 -0.01 0.88 -0.99 10.29 0.34 0.27 -0.08 15190
0.10 -0.01 0.80 -0.96 10.61 0.45 0.28 -0.07 15197
0.11 -0.01 0.73 -1.20 11.20 0.66 0.28 -0.05 15204
0.09 -0.01 0.84 -1.11 11.66 0.92 0.31 -0.05 15211
0.09 -0.01 0.83 -1.47 12.75 1.30 0.33 -0.06 15218
0.09 -0.01 0.77 -1.43 14.16 1.73 0.31 -0.07 15225
0.09 -0.00 0.52 -1.50 14.96 2.07 0.25 -0.08 15233
0.06 -0.01 1.21 -1.62 14.53 2.39 0.17 -0.09 15240
0.06 -0.01 2.18 -1.33 13.69 2.63 0.06 -0.16 15247
0.04 -0.00 1.97 -1.25 13.68 2.78 0.04 -0.24 15254
0.05 -0.00 1.26 -1.70 14.19 2.95 0.02 -0.28 15261
0.03 -0.00 1.25 -2.17 14.52 3.12 -0.02 -0.29 15268
0.02 -0.00 1.60 -2.34 14.52 3.29 -0.08 -0.29 15276
0.06 -0.01 1.86 -2.85 15.31 3.40 -0.13 -0.32 15283
0.02 -0.00 2.08 -3.21 16.82 3.45 -0.11 -0.35 15290
0.01 -0.00 2.30 -3.30 17.70 3.49 0.03 -0.38 15297
0.00 0.00 2.34 -3.11 18.19 3.52 0.23 -0.40 15304
0.00 0.00 1.73 -1.75 17.31 3.52 0.33 -0.41 15311
-0.00 0.00 0.87 -0.34 17.13 3.37 0.33 -0.39 15319
0.01 -0.00 -0.57 -0.63 16.04 3.16 0.28 -0.33 15326
0.00 0.00 -0.17 0.12 14.65 2.94 0.15 -0.27 15333
0.00 0.00 -0.51 2.27 12.90 2.77 -0.02 -0.21 15340
0.00 0.00 -0.14 4.36 11.30 2.50 -0.24 -0.17 15347
0.00 0.00 0.22 8.43 10.74 2.15 -0.47 -0.16 15354
0.00 0.00 -0.56 12.83 9.55 1.77 -0.58 -0.22 15362
0.00 0.00 0.45 10.39 8.05 1.25 -0.68 -0.30 15369
0.00 0.00 0.16 11.08 9.74 0.76 -0.76 -0.36 15376
0.00 0.00 0.08 11.46 8.56 0.42 -0.72 -0.44 15383
0.00 0.00 0.05 10.81 6.87 0.13 -0.75 -0.53 15390
0.00 0.00 0.01 10.26 5.96 -0.08 -0.81 -0.60 15397
0.00 0.00 0.37 9.80 5.77 -0.31 -0.87 -0.67 15405
0.00 0.00 0.71 9.11 5.70 -0.53 -0.94 -0.72 15412
0.00 0.00 1.03 8.46 5.77 -0.69 -0.96 -0.77 15419
0.00 0.00 1.40 7.68 6.15 -0.88 -0.97 -0.79 15426
0.00 0.00 1.96 7.11 7.11 -1.04 -0.95 -0.80 15433
0.00 0.00 2.39 6.61 7.82 -1.23 -0.94 -0.79 15440
0.00 0.00 2.73 6.00 8.62 -1.45 -0.91 -0.75 15448
0.00 0.00 3.04 5.21 9.98 -1.66 -0.90 -0.67 15455
0.00 0.00 3.59 4.66 9.84 -1.92 -0.84 -0.58 15462
0.00 0.00 4.12 3.65 10.15 -2.12 -0.80 -0.45 15469
0.00 0.00 4.39 2.56 10.08 -2.32 -0.77 -0.32 15476
0.00 0.00 4.88 1.18 10.08 -2.43 -0.74 -0.15 15483
0.00 0.00 5.33 -0.01 10.34 -2.47 -0.70 0.04 15491
0.00 0.00 5.84 -0.74 10.57 -2.46 -0.64 0.21 15498
0.00 0.00 6.19 -1.30 10.73 -2.41 -0.56 0.42 15505
0.00 0.00 6.51 -1.70 10.89 -2.41 -0.48 0.63 15512
0.00 0.00 6.67 -2.11 11.05 -2.38 -0.41 0.79 15519
0.00 0.00 6.75 -2.67 11.24 -2.34 -0.35 0.96 15526
0.00 0.00 6.91 -3.04 11.48 -2.29 -0.27 1.07 15534
0.00 0.00 7.16 -3.47 11.74 -2.23 -0.15 1.19 15541
0.00 0.00 7.28 -3.74 12.11 -2.17 -0.01 1.29 15548
0.00 0.00 7.16 -3.92 12.27 -2.13 0.16 1.35 15555
0.00 0.00 6.87 -4.12 12.41 -2.10 0.31 1.41 15562
0.00 0.00 6.43 -4.30 12.44 -2.06 0.40 1.46 15569
0.00 0.00 6.00 -4.57 12.28 -2.01 0.46 1.49 15577
0.00 0.00 5.75 -4.83 12.17 -1.94 0.49 1.51 15584
0.00 0.00 5.52 -5.11 12.17 -1.85 0.50 1.50 15591
0.00 0.00 5.41 -5.21 12.07 -1.77 0.50 1.48 15598
0.00 0.00 5.37 -5.24 12.02 -1.67 0.51 1.46 15605
0.00 0.00 5.13 -5.21 11.94 -1.58 0.53 1.43 15612
0.00 0.00 4.87 -5.16 11.64 -1.51 0.55 1.40 15620
0.00 0.00 4.45 -5.21 11.29 -1.40 0.55 1.37 15627
0.00 0.00 4.00 -5.43 10.67 -1.29 0.50 1.33 15634
0.00 0.00 3.80 -5.58 10.32 -1.13 0.45 1.29 15641
0.00 0.00 3.94 -5.70 10.43 -0.95 0.41 1.22 15648
0.00 0.00 4.39 -5.52 11.02 -0.83 0.44 1.14 15655
0.00 0.00 4.65 -5.23 11.55 -0.75 0.57 1.08 15663
0.00 0.00 4.82 -4.99 12.09 -0.73 0.76 1.01 15670
0.00 0.00 4.34 -4.85 12.31 -0.77 0.89 0.97 15677
0.00 0.00 3.41 -4.70 12.17 -0.82 0.97 0.95 15684
0.00 0.00 2.78 -4.89 11.68 -0.85 0.94 0.95 15691
0.00 -0.00 2.35 -5.19 10.86 -0.84 0.84 0.96 15698
0.00 0.00 2.24 -5.63 10.07 -0.76 0.69 0.95 15706
0.00 0.00 2.38 -6.03 9.62 -0.65 0.57 0.90 15713
0.00 0.00 2.46 -6.38 9.50 -0.49 0.46 0.82 15720
0.00 0.00 2.77 -6.55 10.22 -0.35 0.42 0.69 15727
0.00 0.00 2.94 -6.38 11.02 -0.28 0.46 0.56 15734
0.00 -0.00 2.82 -6.24 11.16 -0.31 0.57 0.42 15741
0.00 0.00 2.73 -6.04 11.35 -0.39 0.76 0.28 15749
0.00 0.00 2.56 -5.88 10.94 -0.54 0.96 0.19 15756
0.00 0.00 1.64 -5.72 9.51 -0.69 1.33 0.16 15763
0.00 0.00 0.50 -6.15 8.95 -0.73 1.73 0.24 15770
0.00 0.00 -1.24 -7.18 9.21 -0.69 2.00 0.36 15777
0.00 0.00 -2.22 -8.32 9.19 -0.58 1.90 0.43 15784
0.00 0.00 -2.30 -9.14 9.03 -0.43 1.58 0.44 15792
0.00 0.00 -1.62 -9.49 8.98 -0.30 1.14 0.42 15799
0.00 0.00 -0.79 -9.37 8.82 -0.26 0.87 0.38 15806
0.00 0.00 0.06 -9.31 8.38 -0.28 0.76 0.35 15813
0.00 0.00 0.55 -9.44 8.18 -0.31 0.79 0.34 15820
0.00 0.00 0.46 -9.57 7.91 -0.34 0.85 0.32 15827
0.00 0.00 -0.03 -9.68 7.70 -0.35 0.88 0.30 15835
0.00 0.00 -1.16 -9.74 7.41 -0.35 0.80 0.29 15842
0.00 0.00 -1.23 -10.13 7.13 -0.33 0.64 0.32 15849
0.00 0.00 -4.55 -14.23 9.26 -0.20 0.18 0.39 15856
0.00 0.00 -5.96 -12.52 7.02 0.31 -0.49 0.48 15863
0.00 0.00 -3.60 -11.92 3.05 0.53 -0.85 0.60 15870
0.00 0.00 -3.39 -13.94 4.16 0.70 -1.31 0.74 15878
0.00 0.00 -4.29 -16.16 5.48 0.94 -1.66 0.79 15885
0.00 0.00 -5.64 -17.68 5.03 1.27 -2.00 0.76 15892
-0.00 0.00 -6.20 -19.89 4.03 1.49 -2.44 0.70 15899
0.00 0.04 -10.39 -17.87 5.32 1.79 -3.16 0.60 15907
-0.00 0.06 -5.33 2.56 16.05 2.16 -3.56 0.41 15915
-0.02 0.20 -9.48 -8.01 46.37 2.17 -3.76 -0.13 15922
-0.03 0.31 2.89 -2.70 16.36 0.14 -1.55 -0.20 15928
-0.03 0.42 0.16 -0.19 10.25 -0.28 -0.21 -0.23 15936
-0.02 0.53 -0.47 -3.45 10.46 -0.18 -0.21 -0.23 15943
-0.02 0.59 0.95 -2.33 10.41 -0.09 -0.10 -0.10 15950
-0.03 0.60 0.16 -1.00 10.14 -0.05 -0.03 -0.04 15956
-0.04 0.64 0.01 -0.73 10.02 -0.02 0.03 -0.05 15964
-0.03 0.61 0.57 -0.71 9.76 -0.00 0.06 -0.05 15971
-0.02 0.64 0.78 -0.90 10.42 -0.00 0.06 -0.04 15978
-0.02 0.65 0.43 -0.72 9.76 -0.01 0.06 -0.03 15985
0.01 0.61 0.46 -0.73 9.80 -0.01 0.05 -0.04 15992
-0.02 0.64 0.58 -0.74 9.75 0.00 0.05 -0.04 16000
-0.01 0.64 0.54 -0.75 9.79 -0.00 0.04 -0.04 16007
-0.02 0.60 0.55 -0.78 9.77 -0.01 0.03 -0.05 16014
-0.02 0.63 0.58 -0.77 9.80 -0.01 0.02 -0.05 16021
-0.01 0.62 0.02 -0.77 9.80 -0.01 -0.03 -0.06 16028
-0.01 0.61 0.51 -0.70 9.77 -0.01 -0.01 -0.07 16035
-0.02 0.59 0.53 -0.75 9.78 -0.01 -0.02 -0.07 16043
-0.01 0.57 0.29 -0.16 10.58 -0.01 -0.01 -0.07 16050
-0.01 0.56 0.45 -0.72 9.72 -0.01 -0.00 -0.07 16057
0.00 0.55 0.45 -0.74 9.81 -0.01 0.00 -0.07 16064
0.01 0.58 0.39 -0.72 9.80 -0.01 0.02 -0.07 16071
0.01 0.57 0.40 -0.75 9.83 -0.01 0.04 -0.06 16078
0.01 0.56 0.38 -0.74 9.82 -0.01 0.05 -0.06 16086
-0.00 0.55 0.42 -0.73 9.81 -0.00 0.06 -0.06 16093
-0.01 0.55 0.41 -0.75 9.81 0.00 0.08 -0.06 16100
0.00 0.57 0.45 -0.73 9.77 -0.00 0.08 -0.06 16107
0.01 0.57 0.49 -0.75 9.76 0.00 0.08 -0.06 16114
0.00 0.58 0.48 -0.74 9.81 0.00 0.08 -0.06 16121
0.01 0.56 0.49 -0.76 9.75 0.01 0.09 -0.07 16129
-0.01 0.54 0.49 -0.75 9.70 0.00 0.08 -0.07 16136
-0.01 0.53 0.50 -0.73 9.78 0.01 0.08 -0.07 16143
-0.01 0.54 0.51 -0.73 9.78 0.00 0.08 -0.07 16150
0.01 0.53 0.48 -0.74 9.82 0.00 0.07 -0.06 16157
0.00 0.51 0.51 -0.75 9.80 0.01 0.08 -0.07 16164
-0.00 0.50 0.41 -0.72 9.80 0.00 0.08 -0.06 16172
-0.01 0.49 0.48 -0.75 9.74 0.01 0.08 -0.07 16179
0.00 0.47 0.47 -0.75 9.80 0.01 0.09 -0.06 16186
0.00 0.46 0.49 -0.72 9.76 0.01 0.09 -0.06 16193
0.02 0.43 0.52 -0.75 9.79 0.01 0.09 -0.06 16200
0.01 0.43 0.54 -0.74 9.74 0.01 0.09 -0.06 16207
0.01 0.39 0.58 -0.72 9.77 0.02 0.09 -0.06 16215
-0.00 0.37 0.57 -0.75 9.75 0.01 0.09 -0.06 16222
0.01 0.30 0.53 -0.75 9.75 0.02 0.09 -0.07 16229
0.02 0.27 0.52 -0.73 9.79 0.02 0.08 -0.07 16236
0.03 0.27 0.57 -0.77 9.75 0.01 0.08 -0.07 16243
0.02 0.25 0.52 -0.77 9.78 0.02 0.07 -0.07 16250
0.02 0.24 0.53 -0.78 9.78 0.01 0.07 -0.07 16258
0.03 0.26 0.53 -0.79 9.76 0.01 0.06 -0.06 16265
0.02 0.30 0.55 -0.75 9.81 0.01 0.06 -0.06 16272
0.03 0.26 0.54 -0.76 9.75 0.01 0.07 -0.06 16279
0.04 0.27 0.55 -0.78 9.70 0.01 0.07 -0.07 16286
0.02 0.26 0.56 -0.74 9.76 0.01 0.07 -0.07 16293
0.02 0.23 0.57 -0.79 9.79 0.01 0.07 -0.07 16301
0.02 0.24 0.55 -0.78 9.78 0.01 0.06 -0.06 16308
0.03 0.26 0.61 -0.79 9.79 0.01 0.06 -0.07 16315
0.03 0.24 0.57 -0.79 9.75 0.00 0.06 -0.06 16322
0.03 0.21 0.58 -0.76 9.77 0.00 0.05 -0.07 16329
0.04 0.15 0.59 -0.75 9.79 0.01 0.05 -0.06 16336
0.02 0.16 0.61 -0.79 9.81 0.00 0.04 -0.07 16344
0.03 0.17 0.61 -0.78 9.79 -0.00 0.04 -0.07 16351
0.04 0.19 0.60 -0.75 9.78 -0.00 0.04 -0.07 16358
0.04 0.18 0.59 -0.81 9.76 -0.00 0.04 -0.07 16365
0.04 0.17 0.59 -0.77 9.81 -0.00 0.04 -0.07 16372
0.03 0.15 1.20 -0.79 9.77 -0.00 0.04 -0.07 16379
0.03 0.17 0.53 -0.79 9.76 -0.00 0.05 -0.07 16387
0.04 0.16 0.55 -0.78 9.76 0.00 0.05 -0.07 16394
0.03 0.19 0.54 -0.79 9.80 -0.00 0.05 -0.07 16401
0.04 0.17 0.55 -0.79 9.75 -0.01 0.06 -0.07 16408
0.03 0.15 0.57 -0.76 9.73 -0.00 0.05 -0.07 16415
0.04 0.18 0.57 -0.76 9.70 -0.00 0.06 -0.07 16422
0.03 0.18 0.58 -0.76 9.76 0.00 0.06 -0.07 16430
0.04 0.18 0.58 -0.79 9.80 -0.00 0.06 -0.07 16437
0.03 0.18 0.62 -0.75 9.76 0.01 0.06 -0.07 16444
0.04 0.18 0.60 -0.80 9.76 0.00 0.06 -0.07 16451
0.04 0.12 0.61 -0.76 10.40 0.01 0.06 -0.08 16458
0.04 0.11 0.63 -0.77 9.81 0.01 0.07 -0.07 16465
0.04 0.07 0.57 -0.79 9.78 0.02 0.07 -0.08 16473
0.04 0.08 0.61 -0.78 9.75 0.02 0.06 -0.07 16480
0.05 0.06 0.66 -0.78 9.81 0.02 0.07 -0.08 16487
0.06 0.04 0.63 -0.79 9.78 0.02 0.07 -0.07 16494
0.05 0.06 0.59 -0.82 9.80 0.02 0.06 -0.07 16501
0.05 0.04 0.59 -0.80 9.78 0.03 0.07 -0.07 16508
0.06 0.01 0.65 -0.81 9.82 0.03 0.07 -0.07 16516
0.07 0.01 0.60 -0.77 9.81 0.04 0.07 -0.07 16523
0.08 -0.01 0.62 -0.77 9.81 0.05 0.07 -0.07 16530
0.08 -0.00 0.63 -0.86 9.83 0.07 0.08 -0.06 16537
0.09 0.01 0.07 -0.82 9.96 0.09 0.09 -0.06 16544
0.09 -0.01 0.66 -0.82 10.00 0.13 0.12 -0.06 16551
0.08 -0.01 0.62 -0.85 10.12 0.18 0.16 -0.05 16559
0.11 -0.01 0.74 -0.78 10.19 0.26 0.22 -0.04 16567
0.11 -0.01 0.84 -0.87 10.55 0.37 0.27 -0.05 16573
0.08 -0.01 0.82 -0.91 11.00 0.54 0.29 -0.07 16580
0.07 -0.01 0.83 -1.19 11.72 0.87 0.33 -0.09 16587
0.05 -0.01 0.97 -1.15 12.86 1.30 0.31 -0.10 16594
0.05 -0.00 1.01 -0.67 14.07 1.69 0.26 -0.15 16602
0.07 -0.01 0.97 -1.19 14.51 2.05 0.21 -0.20 16609
0.07 -0.01 0.87 -1.31 13.29 2.26 0.16 -0.23 16616
0.05 -0.00 1.00 -1.42 13.42 2.40 0.06 -0.24 16623
0.05 -0.00 1.37 -1.48 13.10 2.49 -0.04 -0.26 16630
0.06 -0.01 1.43 -1.62 13.44 2.60 -0.10 -0.27 16637
0.02 -0.00 1.41 -1.60 14.34 2.74 -0.15 -0.27 16645
0.02 -0.00 1.86 -1.96 14.60 2.86 -0.20 -0.30 16652
0.03 -0.00 2.34 -2.17 15.03 2.97 -0.19 -0.35 16659
0.03 -0.00 2.47 -2.32 15.95 2.99 -0.15 -0.41 16666
0.02 -0.00 1.24 -1.45 17.55 2.98 -0.14 -0.45 16673
0.00 -0.00 0.85 0.57 17.72 2.90 -0.21 -0.45 16680
0.00 0.00 -0.08 2.95 15.28 2.72 -0.56 -0.37 16688
0.00 -0.00 0.70 5.99 13.18 2.41 -0.98 -0.26 16695
0.00 -0.00 2.21 10.60 12.51 2.04 -1.30 -0.13 16702
0.00 0.00 2.50 14.32 10.77 1.61 -1.30 -0.02 16709
0.00 0.00 4.66 14.75 9.54 1.06 -1.05 0.04 16716
0.00 0.00 4.22 14.49 7.90 0.71 -0.62 0.05 16723
0.00 0.00 3.11 14.09 8.98 0.48 -0.31 -0.02 16731
0.00 -0.00 1.36 13.27 9.36 0.11 -0.13 -0.13 16738
0.00 0.00 0.30 12.21 8.42 -0.12 -0.17 -0.24 16745
0.00 0.00 -0.28 11.03 8.05 -0.34 -0.24 -0.32 16752
0.00 0.00 -0.16 10.15 8.17 -0.55 -0.38 -0.44 16759
0.00 0.00 0.34 8.64 8.42 -0.70 -0.47 -0.58 16766
0.00 0.00 0.91 8.11 8.56 -0.88 -0.51 -0.70 16774
0.00 0.00 1.32 7.09 8.69 -1.02 -0.51 -0.83 16781
0.00 0.00 1.77 6.13 8.87 -1.15 -0.49 -0.93 16788
0.00 0.00 2.10 5.15 9.20 -1.27 -0.44 -1.02 16795
0.00 0.00 2.43 4.08 9.27 -1.36 -0.38 -1.07 16802
0.00 0.00 2.76 3.22 9.43 -1.44 -0.31 -1.09 16809
0.00 0.00 3.16 2.35 9.52 -1.48 -0.24 -1.05 16817
0.00 -0.00 3.46 1.63 9.47 -1.50 -0.18 -0.95 16824
0.00 0.00 3.92 0.82 9.41 -1.50 -0.08 -0.87 16831
0.00 0.00 4.87 -0.02 9.35 -1.46 0.01 -0.73 16838
0.00 0.00 4.49 -0.49 9.61 -1.39 0.12 -0.60 16845
0.00 0.00 4.60 -0.78 10.23 -1.31 0.22 -0.43 16852
0.00 0.00 4.61 -0.82 10.82 -1.31 0.30 -0.27 16860
0.00 -0.00 4.67 -0.88 11.16 -1.32 0.39 -0.06 16867
0.00 0.00 4.49 -1.13 11.26 -1.35 0.45 0.14 16874
0.00 0.00 4.22 -1.36 11.35 -1.38 0.50 0.32 16881
0.00 0.00 3.87 -1.72 11.35 -1.39 0.54 0.51 16888
0.00 0.00 3.59 -1.96 11.06 -1.38 0.55 0.67 16896
0.00 0.00 3.24 -2.21 10.77 -1.34 0.56 0.80 16903
0.00 0.00 2.95 -2.27 10.63 -1.28 0.57 0.92 16910
0.00 0.00 2.67 -2.32 10.72 -1.21 0.58 1.00 16917
0.00 0.00 2.64 -2.06 11.25 -1.17 0.62 1.06 16924
0.00 0.00 2.52 -1.83 11.68 -1.18 0.67 1.10 16931
0.00 0.00 2.20 -1.72 11.97 -1.25 0.73 1.14 16939
0.00 0.00 1.72 -1.94 11.79 -1.31 0.75 1.16 16946
0.00 0.00 1.35 -2.27 11.28 -1.37 0.73 1.16 16953
0.00 0.00 1.00 -2.76 10.89 -1.36 0.66 1.15 16960
0.00 0.00 0.68 -3.27 10.29 -1.29 0.59 1.11 16967
0.00 0.00 0.38 -3.63 10.03 -1.17 0.49 1.07 16974
0.00 0.00 0.19 -3.81 9.90 -1.03 0.38 1.02 16982
0.01 -0.00 0.20 -3.88 10.00 -0.87 0.31 0.97 16989
0.00 0.00 0.56 -3.83 10.18 -0.74 0.26 0.93 16996
0.00 0.00 0.85 -3.81 10.49 -0.65 0.25 0.89 17003
0.00 0.00 0.79 -3.90 10.61 -0.58 0.24 0.85 17010
0.00 0.00 0.51 -3.93 11.66 -0.54 0.19 0.82 17017
0.00 0.00 0.16 -3.94 12.75 -0.56 0.10 0.79 17025
0.00 -0.00 -0.17 -4.08 12.78 -0.67 -0.02 0.76 17032
0.00 0.00 -0.07 -4.40 12.31 -0.78 -0.17 0.71 17039
0.00 0.00 0.30 -4.72 11.62 -0.88 -0.24 0.67 17046
0.00 0.00 0.70 -5.07 10.27 -0.93 -0.23 0.61 17053
0.00 0.00 1.08 -5.98 10.14 -0.92 -0.11 0.55 17060
0.00 0.00 1.57 -6.76 9.73 -0.84 0.11 0.50 17068
0.00 0.00 1.29 -7.41 9.46 -0.73 0.31 0.45 17075
0.00 0.00 0.91 -7.81 9.59 -0.61 0.45 0.42 17082
0.00 0.00 0.55 -8.00 9.66 -0.53 0.55 0.40 17089
0.00 0.00 0.26 -8.37 9.35 -0.52 0.63 0.39 17096
0.00 0.00 0.06 -8.85 8.77 -0.51 0.65 0.37 17103
0.00 0.00 0.22 -9.49 8.35 -0.49 0.74 0.36 17111
0.00 0.00 0.43 -9.97 7.84 -0.46 0.90 0.35 17118
0.00 0.00 1.18 -10.37 7.24 -0.43 1.20 0.33 17125
0.00 0.00 1.60 -11.09 6.51 -0.38 1.55 0.30 17132
0.00 0.00 1.19 -11.81 7.34 -0.29 1.80 0.26 17139
0.00 0.00 -0.39 -12.29 7.53 -0.21 1.86 0.23 17146
0.00 0.00 -1.73 -12.39 7.18 -0.16 1.74 0.21 17154
0.00 0.00 -2.48 -12.44 6.47 -0.10 1.42 0.20 17161
0.00 0.00 -3.04 -13.33 6.16 -0.04 1.01 0.20 17168
0.00 0.00 -9.74 -19.25 14.51 0.55 0.01 0.21 17175
0.00 0.00 -3.40 -12.85 3.98 0.89 -0.28 0.21 17182
0.00 0.00 -3.63 -16.62 2.92 1.03 -0.60 0.20 17189
0.00 0.00 -5.41 -22.16 5.54 1.24 -1.23 0.10 17197
0.00 0.00 -6.28 -21.63 4.63 1.58 -1.87 -0.14 17204
-0.00 0.03 -5.71 -18.42 2.72 1.80 -2.53 -0.37 17211
-0.00 0.05 -0.97 -0.07 12.77 2.28 -3.49 -0.49 17218
-0.02 0.21 0.07 -6.85 35.76 1.30 -3.83 -0.46 17225
-0.02 0.33 2.24 -1.18 9.92 -0.21 -0.78 0.08 17232
-0.02 0.50 -0.39 -1.82 10.28 -0.30 -0.08 -0.13 17241
-0.02 0.54 -0.32 -2.87 11.25 -0.13 -0.23 -0.15 17248
-0.03 0.58 0.51 -1.09 10.18 -0.04 -0.04 -0.06 17254
-0.04 0.62 0.06 -0.76 9.83 -0.01 0.04 -0.03 17261
-0.05 0.63 0.06 -0.51 9.75 0.01 0.06 -0.04 17268
-0.02 0.65 0.47 -0.83 9.74 0.01 0.07 -0.04 17275
-0.00 0.64 0.52 -1.07 9.79 -0.01 0.05 -0.04 17283
-0.01 0.66 0.31 -0.86 10.39 -0.01 0.05 -0.04 17290
-0.00 0.59 0.46 -0.89 9.77 -0.02 0.05 -0.04 17297
-0.01 0.58 0.49 -0.90 9.80 -0.02 0.05 -0.04 17304
0.00 0.59 0.43 -0.86 9.82 -0.01 0.05 -0.04 17311
0.01 0.61 0.39 -0.81 9.80 -0.01 0.05 -0.05 17318
0.02 0.57 0.45 -0.77 9.74 -0.01 0.05 -0.05 17326
0.01 0.58 0.48 -0.74 9.70 -0.00 0.03 -0.06 17333
0.00 0.56 0.43 -0.79 9.72 -0.00 0.02 -0.07 17340
-0.01 0.57 0.45 -0.80 9.74 -0.00 0.02 -0.07 17347
0.00 0.57 0.44 -0.81 9.83 0.00 0.01 -0.07 17354
0.02 0.54 0.36 -0.82 9.82 0.00 0.01 -0.07 17361
0.02 0.51 0.34 -0.81 9.88 0.01 0.02 -0.07 17369
0.02 0.48 0.28 -0.84 9.83 0.01 0.03 -0.07 17376
0.01 0.45 0.39 -0.80 9.66 0.01 0.05 -0.06 17383
0.01 0.44 0.35 -0.82 9.80 0.01 0.06 -0.06 17390
0.02 0.45 0.39 -0.82 9.77 0.01 0.06 -0.06 17397
0.03 0.44 0.39 -0.82 9.78 0.01 0.06 -0.06 17404
0.03 0.41 0.45 -0.80 9.72 0.01 0.07 -0.06 17412
0.03 0.39 0.44 -0.83 9.77 0.01 0.06 -0.07 17419
0.02 0.35 0.44 -0.82 9.77 0.01 0.06 -0.07 17426
0.02 0.36 0.43 -0.81 9.81 0.01 0.06 -0.07 17433
0.02 0.35 0.44 -0.88 9.77 0.01 0.06 -0.07 17440
0.04 0.34 0.40 -0.83 9.76 0.01 0.06 -0.07 17447
0.04 0.36 0.45 -0.83 10.38 0.01 0.06 -0.06 17455
0.04 0.31 0.44 -0.80 9.76 0.01 0.06 -0.06 17462
0.02 0.29 0.43 -0.83 9.78 0.01 0.06 -0.07 17469
0.04 0.30 0.42 -0.82 9.75 0.01 0.06 -0.07 17476
0.05 0.28 0.43 -0.84 9.80 0.01 0.06 -0.07 17483
0.05 0.26 0.46 -0.81 9.78 0.01 0.07 -0.07 17490
0.05 0.25 0.41 -0.83 9.78 0.01 0.07 -0.06 17498
0.05 0.23 0.46 -0.82 9.81 0.01 0.07 -0.06 17505
0.05 0.20 0.46 -0.86 9.79 0.01 0.07 -0.07 17512
0.06 0.24 0.44 -0.86 9.79 0.01 0.06 -0.07 17519
0.06 0.20 0.46 -0.87 9.79 0.00 0.06 -0.10 17526
0.06 0.20 0.49 -0.84 9.78 0.00 0.06 -0.06 17533
0.06 0.20 0.46 -0.90 9.77 0.00 0.05 -0.06 17541
0.06 0.16 0.45 -0.85 9.77 0.01 0.05 -0.06 17548
0.04 0.20 0.41 -0.86 9.77 0.00 0.06 -0.06 17555
0.04 0.16 0.48 -0.84 9.76 0.00 0.06 -0.07 17562
0.05 0.16 0.47 -0.87 9.78 -0.00 0.06 -0.07 17569
0.06 0.17 0.48 -0.88 9.74 0.00 0.05 -0.06 17576
0.04 0.17 0.45 -0.88 9.76 0.00 0.05 -0.07 17584
0.04 0.15 0.44 -0.86 9.77 -0.00 0.05 -0.07 17591
0.03 0.19 0.44 -0.86 9.79 -0.00 0.05 -0.07 17598
0.04 0.18 0.45 -0.84 9.78 -0.00 0.05 -0.07 17605
0.05 0.18 0.46 -0.87 9.80 -0.00 0.05 -0.07 17612
0.05 0.16 0.44 -0.87 9.80 -0.00 0.05 -0.07 17619
0.04 0.16 0.45 -0.87 9.80 -0.01 0.05 -0.06 17627
0.04 0.16 0.49 -0.88 9.81 -0.01 0.04 -0.06 17634
0.04 0.17 0.50 -0.83 9.78 -0.01 0.04 -0.06 17641
0.04 0.18 0.49 -0.89 9.79 -0.01 0.04 -0.07 17648
0.06 0.17 0.42 -0.83 9.73 -0.02 0.04 -0.06 17655
0.04 0.18 0.43 -0.86 9.75 -0.02 0.04 -0.07 17662
0.05 0.15 0.42 -0.83 9.79 -0.02 0.04 -0.06 17670
0.04 0.18 0.47 -0.87 9.74 -0.01 0.05 -0.07 17677
0.04 0.19 0.47 -0.85 9.77 -0.01 0.05 -0.07 17684
0.05 0.20 0.47 -0.86 9.80 -0.01 0.06 -0.07 17691
0.04 0.18 0.48 -0.85 9.78 -0.01 0.07 -0.07 17698
0.05 0.18 0.47 -0.86 9.74 -0.01 0.07 -0.07 17705
0.04 0.17 0.49 -0.85 9.75 -0.01 0.07 -0.07 17713
0.02 0.18 0.49 -0.83 9.73 -0.01 0.07 -0.07 17720
