Voltage_01 Voltage_02 Acc_x Acc_y Acc_z Gyro_x Gyro_y Gyro_z Time
5000
-0.00 0.53 0.46 -0.71 9.75 -0.00 0.05 -0.06 24
0.00 0.52 0.47 -0.71 9.74 0.00 0.05 -0.05 31
-0.00 0.52 0.44 -0.70 9.72 0.00 0.05 -0.06 37
-0.00 0.50 0.46 -0.70 9.78 0.00 0.05 -0.06 45
0.01 0.48 0.44 -0.71 9.76 0.01 0.06 -0.06 52
0.01 0.44 0.46 -0.68 9.70 0.01 0.06 -0.06 59
0.02 0.43 0.47 -0.73 9.77 0.01 0.06 -0.06 66
0.02 0.41 0.45 -0.72 9.78 0.02 0.06 -0.06 73
0.02 0.37 0.46 -0.74 9.77 0.02 0.06 -0.06 80
0.02 0.37 0.51 -0.71 9.81 0.02 0.06 -0.06 88
0.04 0.37 0.46 -0.75 9.81 0.02 0.06 -0.07 95
0.04 0.30 0.52 -0.67 9.79 0.03 0.06 -0.06 102
0.03 0.25 0.50 -0.68 9.79 0.03 0.06 -0.06 109
0.03 0.16 0.53 -0.74 9.79 0.03 0.07 -0.07 116
0.04 0.22 0.53 -0.69 9.82 0.04 0.07 -0.07 123
0.04 0.20 0.53 -0.72 9.81 0.04 0.07 -0.07 131
0.05 0.11 0.56 -0.73 9.87 0.06 0.07 -0.06 138
0.05 0.04 0.58 -0.75 9.90 0.09 0.08 -0.07 145
0.05 0.00 1.13 -0.77 9.91 0.11 0.09 -0.08 152
0.03 0.01 0.58 -0.75 9.98 0.14 0.10 -0.08 159
0.05 0.00 0.59 -0.77 10.04 0.18 0.13 -0.09 166
0.06 0.00 0.59 -0.78 10.19 0.24 0.15 -0.08 174
0.05 -0.01 0.76 -0.83 10.45 0.34 0.20 -0.10 181
0.04 -0.00 1.35 -0.89 11.72 0.53 0.26 -0.18 188
0.04 -0.00 1.92 -0.83 12.57 1.08 0.44 -0.30 195
0.02 -0.00 1.07 -1.50 15.24 1.68 0.41 -0.38 202
0.05 -0.00 1.19 -1.56 14.88 2.12 0.29 -0.41 209
0.01 -0.00 1.45 -0.97 13.18 2.31 0.21 -0.47 217
0.02 -0.00 1.47 -1.30 12.76 2.34 0.15 -0.51 224
0.04 -0.00 1.79 -1.37 12.75 2.39 0.14 -0.56 231
0.04 -0.00 1.96 -1.52 12.98 2.45 0.20 -0.60 238
0.00 -0.00 2.41 -1.73 13.37 2.49 0.30 -0.65 245
0.02 -0.00 2.63 -1.66 13.24 2.50 0.41 -0.71 252
0.00 -0.00 2.63 -1.79 13.77 2.49 0.48 -0.76 260
0.00 0.00 2.60 -1.98 13.75 2.46 0.57 -0.79 267
0.00 0.00 2.67 -1.21 13.85 2.40 0.60 -0.83 274
0.00 0.00 1.90 -0.58 13.53 2.29 0.53 -0.86 281
0.00 0.00 0.47 2.12 13.24 2.09 0.27 -0.86 288
0.00 0.00 0.01 4.02 11.46 1.84 -0.19 -0.78 295
0.00 0.00 0.14 5.48 10.45 1.52 -0.53 -0.72 303
0.00 0.00 0.96 6.32 9.83 1.23 -0.74 -0.63 310
0.00 0.00 2.14 7.87 9.71 1.09 -0.74 -0.60 316
0.00 0.00 1.84 7.61 8.98 0.92 -0.62 -0.60 322
0.00 0.00 1.58 7.61 8.49 0.73 -0.46 -0.62 328
0.00 0.00 1.13 8.15 8.73 0.56 -0.34 -0.65 334
0.00 0.00 0.49 7.97 8.55 0.36 -0.25 -0.67 340
0.01 -0.00 -0.09 7.47 8.16 0.20 -0.24 -0.67 347
0.00 0.00 -0.37 6.90 7.93 0.08 -0.26 -0.67 354
0.00 0.00 -0.38 6.59 7.85 -0.03 -0.31 -0.66 360
0.00 0.00 -0.26 6.19 7.88 -0.11 -0.35 -0.65 366
0.00 0.00 -0.18 5.79 7.71 -0.21 -0.36 -0.64 372
0.00 0.00 0.09 5.35 7.53 -0.30 -0.34 -0.65 378
0.00 -0.00 0.39 4.80 7.63 -0.38 -0.31 -0.65 385
0.00 0.00 0.65 3.71 8.27 -0.46 -0.26 -0.66 392
0.00 0.00 0.84 3.91 8.65 -0.54 -0.21 -0.67 398
0.00 0.00 1.03 3.48 8.68 -0.65 -0.13 -0.67 404
0.00 0.00 1.19 3.02 8.77 -0.72 -0.07 -0.67 410
0.00 0.00 1.33 2.39 9.06 -0.82 -0.01 -0.68 416
0.00 0.00 1.32 1.68 9.25 -0.92 0.06 -0.68 422
0.02 -0.00 1.32 1.05 9.24 -0.96 0.10 -0.68 429
0.00 0.00 1.36 0.50 9.18 -1.02 0.14 -0.68 436
0.00 0.00 1.44 0.13 9.25 -1.04 0.16 -0.67 442
0.00 0.00 1.47 -0.12 9.32 -1.06 0.18 -0.65 448
0.00 0.00 1.59 -0.42 9.46 -1.07 0.18 -0.64 454
0.00 0.00 1.77 -0.69 9.57 -1.07 0.19 -0.62 460
0.00 0.00 1.82 -1.00 9.70 -1.07 0.18 -0.59 466
0.00 0.00 1.84 -1.31 9.83 -1.05 0.17 -0.56 473
0.00 0.00 1.90 -1.57 10.13 -1.04 0.16 -0.54 479
0.00 0.00 1.95 -1.81 10.62 -1.03 0.16 -0.53 486
0.00 0.00 2.12 -2.02 10.98 -1.04 0.18 -0.51 493
0.00 0.00 2.21 -2.27 11.17 -1.08 0.22 -0.50 500
0.00 0.00 2.38 -2.47 11.26 -1.14 0.28 -0.50 507
0.00 0.00 2.41 -2.79 11.09 -1.18 0.35 -0.48 515
0.00 0.00 2.37 -3.68 10.83 -1.20 0.42 -0.46 522
0.00 0.00 2.32 -3.36 10.59 -1.18 0.49 -0.42 529
0.00 0.00 2.22 -3.56 10.36 -1.14 0.54 -0.37 536
0.00 0.00 2.09 -3.65 10.29 -1.08 0.58 -0.31 543
0.00 -0.00 1.96 -3.62 10.41 -1.03 0.61 -0.23 550
0.00 0.00 1.80 -3.55 10.47 -0.99 0.61 -0.14 558
0.00 0.00 1.57 -3.46 10.37 -0.96 0.59 -0.05 565
0.00 0.00 1.35 -3.42 10.19 -0.93 0.54 0.05 572
0.00 0.00 1.20 -3.45 10.09 -0.89 0.47 0.13 579
0.00 0.00 0.97 -3.47 9.79 -0.84 0.38 0.21 586
0.00 -0.00 0.89 -3.54 9.61 -0.80 0.28 0.26 592
0.00 0.00 0.74 -3.51 9.56 -0.72 0.22 0.31 600
0.00 0.00 0.54 -3.40 9.81 -0.67 0.14 0.36 606
0.00 0.00 0.42 -3.26 10.13 -0.61 0.10 0.40 612
0.00 0.00 0.47 -2.99 10.60 -0.60 0.05 0.45 619
0.00 0.00 0.68 -2.67 10.81 -0.64 0.06 0.51 626
0.00 0.00 0.86 -2.47 10.65 -0.73 0.10 0.55 633
0.00 0.00 1.01 -2.42 10.62 -0.84 0.15 0.61 641
0.00 0.00 1.06 -2.68 10.41 -0.90 0.25 0.66 648
0.00 0.00 1.09 -2.80 10.17 -0.92 0.34 0.71 655
0.00 0.00 0.90 -2.93 9.65 -0.91 0.43 0.75 662
0.00 0.00 0.77 -3.12 9.42 -0.86 0.48 0.77 668
0.00 0.00 0.64 -3.31 9.21 -0.80 0.54 0.78 674
0.00 -0.00 0.47 -3.56 9.03 -0.73 0.59 0.78 680
0.00 0.00 0.31 -3.85 9.06 -0.61 0.63 0.77 688
0.00 0.00 -0.02 -3.92 9.42 -0.50 0.65 0.75 694
0.00 0.00 -0.47 -3.99 9.98 -0.43 0.63 0.71 700
0.00 0.00 -0.88 -3.89 10.65 -0.41 0.57 0.68 706
0.00 0.00 -1.12 -3.91 10.75 -0.46 0.49 0.64 713
0.00 -0.00 -1.02 -4.39 10.46 -0.54 0.42 0.59 720
0.00 0.00 -0.68 -5.00 10.10 -0.62 0.40 0.53 728
0.00 0.00 -0.33 -5.80 9.47 -0.65 0.47 0.44 735
0.00 0.00 -0.11 -6.58 8.77 -0.65 0.57 0.34 741
0.00 0.00 -0.11 -7.27 8.02 -0.61 0.73 0.25 747
0.00 0.00 -0.35 -7.95 7.25 -0.55 0.88 0.13 753
0.02 -0.00 -1.20 -8.44 6.91 -0.48 1.03 0.03 759
0.00 0.00 -3.71 -12.66 8.22 -0.30 0.98 -0.06 766
0.00 0.00 -6.69 -11.48 10.10 0.25 0.29 -0.12 774
0.00 0.00 -4.40 -10.71 4.09 0.44 0.15 -0.15 781
0.00 0.00 -5.09 -14.17 6.23 0.63 -0.34 -0.17 788
0.00 0.00 -5.71 -16.20 7.00 0.78 -0.67 -0.28 795
0.00 0.00 -5.85 -15.61 5.34 1.03 -0.91 -0.40 802
0.00 0.00 -8.12 -23.34 5.85 1.22 -1.61 -0.60 809
-0.00 0.01 -9.11 -32.02 16.67 0.76 -3.25 -1.02 818
-0.00 0.01 -0.91 -5.73 16.49 0.18 -1.61 -0.28 824
-0.00 0.04 2.13 -2.46 9.33 -0.40 -0.16 0.04 831
-0.01 0.18 0.21 -1.71 10.34 -0.39 -0.13 -0.02 839
-0.01 0.24 0.28 -0.32 10.67 -0.22 -0.17 -0.05 846
-0.01 0.27 0.41 -0.40 9.96 -0.12 -0.07 -0.09 852
-0.03 0.31 0.22 -0.93 10.18 -0.05 -0.04 -0.09 860
-0.02 0.34 0.34 -1.01 10.00 -0.02 0.01 -0.07 867
-0.02 0.38 0.32 -0.83 9.80 -0.01 0.03 -0.06 874
-0.01 0.39 0.43 -0.91 9.67 -0.01 0.04 -0.07 881
0.02 0.35 0.41 -0.97 9.76 -0.01 0.04 -0.06 888
0.02 0.33 0.39 -0.93 9.78 -0.03 0.05 -0.06 896
0.02 0.31 0.38 -0.90 9.82 -0.02 0.06 -0.06 903
0.01 0.33 0.45 -0.87 9.89 -0.02 0.07 -0.06 910
0.03 0.37 0.50 -0.87 9.85 -0.01 0.07 -0.06 917
0.04 0.36 0.56 -0.90 9.80 0.00 0.07 -0.07 924
0.04 0.34 0.49 -0.88 9.78 -0.00 0.06 -0.07 931
0.04 0.32 0.51 -0.82 9.80 -0.00 0.05 -0.07 939
0.05 0.31 0.47 -0.82 9.77 -0.00 0.05 -0.07 946
0.05 0.31 0.47 -0.85 9.80 0.00 0.04 -0.07 953
0.06 0.31 0.43 -0.84 9.80 0.00 0.04 -0.07 960
0.06 0.33 0.39 -0.85 9.82 0.01 0.04 -0.06 967
0.04 0.30 0.44 -0.87 9.81 0.01 0.05 -0.06 974
0.04 0.30 0.46 -0.84 9.81 0.01 0.05 -0.06 982
0.05 0.27 0.47 -0.85 9.80 0.01 0.05 -0.06 989
0.06 0.26 0.48 -0.86 9.71 0.01 0.05 -0.05 996
0.07 0.26 0.49 -0.83 9.75 0.01 0.05 -0.06 1003
0.07 0.22 0.48 -0.83 9.76 0.01 0.05 -0.06 1010
0.06 0.21 0.46 -0.86 9.78 0.01 0.06 -0.07 1017
0.05 0.24 0.48 -0.86 9.20 0.01 0.05 -0.06 1025
0.06 0.22 0.44 -0.87 9.76 0.01 0.06 -0.06 1032
0.05 0.19 0.46 -0.86 9.76 0.01 0.06 -0.06 1039
0.07 0.22 0.44 -0.84 9.77 0.01 0.06 -0.06 1046
0.09 0.21 0.50 -0.87 9.77 0.00 0.06 -0.07 1053
0.08 0.18 0.49 -0.85 9.78 0.01 0.06 -0.06 1060
0.08 0.17 0.48 -0.85 9.75 0.01 0.06 -0.07 1068
0.07 0.14 0.49 -0.88 9.82 0.01 0.06 -0.06 1075
0.07 0.13 0.48 -0.84 9.77 0.01 0.06 -0.06 1082
0.07 0.13 0.49 -0.86 9.79 0.01 0.06 -0.06 1089
0.09 0.08 0.49 -0.83 9.73 0.01 0.06 -0.06 1096
0.08 0.06 0.50 -0.86 9.76 0.01 0.06 -0.06 1103
0.08 0.07 0.49 -0.91 9.75 0.01 0.06 -0.06 1111
0.06 0.08 0.49 -0.88 9.76 0.01 0.06 -0.06 1118
0.07 0.05 0.46 -0.88 9.75 0.01 0.06 -0.06 1125
0.09 0.06 0.46 -0.88 9.77 0.01 0.06 -0.06 1132
0.08 0.04 0.52 -0.87 9.75 0.00 0.06 -0.06 1139
0.06 0.05 0.51 -0.89 9.75 0.00 0.05 -0.06 1146
0.07 0.03 0.47 -0.87 9.80 0.01 0.05 -0.06 1154
0.06 0.03 0.46 -0.88 9.78 0.01 0.05 -0.06 1161
0.07 0.02 0.51 -0.88 9.80 0.00 0.05 -0.06 1168
0.09 0.03 0.52 -0.88 9.73 0.00 0.05 -0.06 1175
0.09 0.03 0.52 -0.88 9.77 0.00 0.05 -0.06 1182
0.10 0.03 0.50 -0.87 9.80 0.00 0.05 -0.06 1189
0.10 0.02 0.51 -0.87 9.78 0.01 0.05 -0.07 1197
0.09 0.02 0.52 -0.89 9.78 0.00 0.05 -0.07 1204
0.11 0.02 0.51 -0.88 9.74 -0.00 0.05 -0.06 1211
0.12 0.02 0.52 -0.89 9.77 -0.00 0.05 -0.07 1218
0.10 0.01 0.51 -0.87 9.78 -0.01 0.04 -0.07 1225
0.11 0.00 0.50 -0.86 9.76 -0.00 0.04 -0.06 1232
0.09 0.01 0.49 -0.88 9.78 -0.01 0.04 -0.07 1240
0.10 0.00 0.52 -0.90 9.80 -0.01 0.04 -0.06 1247
0.08 0.03 0.51 -0.88 9.73 -0.01 0.03 -0.06 1254
0.10 0.02 0.51 -0.86 9.79 -0.02 0.04 -0.06 1261
0.10 0.02 0.52 -0.87 9.75 -0.02 0.03 -0.06 1268
0.10 0.01 0.51 -0.87 9.71 -0.02 0.03 -0.06 1275
0.09 0.02 0.50 -0.86 9.76 -0.02 0.04 -0.06 1283
0.09 0.02 0.53 -0.88 9.75 -0.02 0.03 -0.07 1290
0.11 0.04 0.51 -0.87 9.78 -0.02 0.03 -0.07 1297
0.11 0.03 0.50 -0.90 9.78 -0.01 0.03 -0.07 1304
0.10 0.03 0.51 -0.89 9.75 -0.01 0.04 -0.07 1311
0.10 0.02 0.51 -0.88 9.77 -0.01 0.05 -0.07 1318
0.08 0.03 0.46 -0.87 9.76 -0.01 0.05 -0.07 1326
0.09 0.02 0.46 -0.89 9.76 -0.00 0.06 -0.07 1333
0.10 0.03 0.51 -0.87 9.79 -0.01 0.06 -0.07 1340
0.11 0.02 0.51 -0.87 9.74 -0.01 0.07 -0.07 1347
0.11 0.01 0.50 -0.87 9.81 -0.00 0.07 -0.07 1354
0.11 -0.00 0.55 -0.86 9.78 0.00 0.07 -0.07 1361
0.09 0.01 0.57 -0.87 9.78 -0.00 0.08 -0.07 1369
0.09 0.01 0.56 -0.87 9.76 0.00 0.08 -0.07 1376
0.11 -0.01 0.55 -0.85 9.79 0.01 0.08 -0.07 1383
0.11 -0.01 0.55 -0.86 9.82 0.01 0.08 -0.08 1390
0.10 -0.00 0.55 -0.85 9.79 0.02 0.08 -0.07 1397
0.10 -0.01 0.58 -0.83 9.83 0.02 0.08 -0.07 1404
0.09 -0.01 0.53 -0.85 9.83 0.04 0.08 -0.07 1412
0.10 0.01 0.55 -0.89 9.83 0.04 0.09 -0.06 1419
0.11 -0.00 0.56 -0.83 9.84 0.06 0.10 -0.07 1426
0.11 -0.01 0.50 -0.92 9.91 0.08 0.12 -0.07 1433
0.12 -0.01 0.55 -0.95 10.04 0.10 0.15 -0.06 1440
0.12 -0.01 0.62 -0.92 10.18 0.16 0.19 -0.06 1448
0.12 -0.01 0.75 -0.87 10.29 0.25 0.26 -0.06 1455
0.12 -0.01 0.95 -0.85 10.75 0.37 0.31 -0.08 1463
0.13 -0.01 0.80 -0.87 11.44 0.70 0.39 -0.11 1469
0.12 -0.01 0.93 -0.91 12.76 1.17 0.41 -0.13 1476
0.11 -0.01 1.13 -1.73 14.97 1.70 0.33 -0.19 1483
0.08 -0.01 1.15 -1.19 15.20 2.10 0.26 -0.24 1490
0.06 -0.01 0.98 -1.16 14.80 2.39 0.21 -0.29 1498
0.07 -0.01 0.89 -1.27 13.53 2.57 0.14 -0.29 1505
0.09 -0.01 1.00 -1.57 13.17 2.65 0.10 -0.29 1512
0.05 -0.00 1.11 -1.68 13.16 2.74 0.09 -0.29 1519
0.03 -0.00 1.53 -1.79 13.62 2.81 0.13 -0.29 1526
0.02 -0.00 1.50 -2.13 13.56 2.85 0.22 -0.32 1533
0.01 -0.00 1.61 -2.32 14.58 2.88 0.33 -0.33 1541
0.01 -0.00 2.35 -2.61 15.08 2.89 0.47 -0.35 1548
0.01 -0.00 2.58 -2.19 15.21 2.89 0.61 -0.37 1555
0.00 0.00 2.27 -1.21 14.45 2.86 0.75 -0.41 1562
0.00 0.00 1.27 0.04 13.36 2.76 0.72 -0.42 1569
0.00 0.00 0.52 2.09 12.70 2.57 0.60 -0.41 1576
0.00 0.00 0.17 3.43 11.37 2.28 0.41 -0.36 1584
0.00 -0.00 -0.17 6.22 10.89 1.99 0.29 -0.31 1591
0.00 0.00 0.07 6.91 9.76 1.62 0.20 -0.28 1598
0.00 0.00 -0.26 8.49 10.34 1.31 0.12 -0.26 1605
0.00 0.00 -0.13 9.29 9.59 1.00 0.09 -0.31 1612
0.00 0.00 -0.80 9.26 8.02 0.72 0.06 -0.45 1619
0.00 0.00 -1.08 8.30 7.89 0.51 0.03 -0.66 1627
0.00 0.00 -1.35 7.53 8.59 0.25 -0.04 -0.84 1634
0.00 0.00 -1.70 7.14 9.18 -0.00 -0.15 -1.01 1641
0.00 0.00 -1.56 6.54 8.79 -0.17 -0.27 -1.14 1648
0.00 0.00 -1.05 5.95 8.54 -0.33 -0.43 -1.25 1655
0.00 0.00 -0.47 5.25 8.37 -0.44 -0.54 -1.33 1662
0.00 0.00 0.23 4.78 8.29 -0.54 -0.62 -1.37 1670
0.00 0.00 0.79 4.20 8.38 -0.62 -0.65 -1.41 1677
0.00 0.00 1.14 3.88 8.64 -0.68 -0.66 -1.42 1684
0.00 0.00 1.35 3.54 8.99 -0.76 -0.67 -1.40 1691
0.00 0.00 1.54 3.27 9.21 -0.83 -0.67 -1.36 1698
0.00 0.00 1.77 3.07 9.52 -0.94 -0.66 -1.29 1705
-0.00 0.00 2.21 2.75 9.82 -1.07 -0.61 -1.18 1713
0.00 0.00 2.58 2.51 9.81 -1.19 -0.54 -1.05 1720
0.00 0.00 2.91 2.12 9.64 -1.32 -0.43 -0.93 1727
0.00 0.00 3.15 1.47 9.44 -1.41 -0.31 -0.77 1734
0.00 0.00 3.31 0.93 9.53 -1.47 -0.20 -0.64 1741
0.00 0.00 3.36 0.36 9.69 -1.50 -0.07 -0.50 1748
0.00 0.00 3.40 0.00 10.00 -1.52 0.04 -0.35 1756
0.00 0.00 3.33 -0.24 10.25 -1.56 0.17 -0.22 1763
0.00 0.00 3.15 -0.48 10.60 -1.58 0.28 -0.05 1770
0.00 0.00 2.91 -0.75 10.84 -1.62 0.36 0.11 1777
0.00 0.00 2.62 -1.06 10.91 -1.65 0.41 0.24 1784
0.00 0.00 2.37 -1.49 10.73 -1.66 0.46 0.38 1792
0.00 0.00 2.29 -1.92 10.61 -1.64 0.46 0.47 1799
0.00 0.00 2.12 -2.46 10.49 -1.60 0.48 0.55 1806
0.00 0.00 1.97 -2.88 10.47 -1.52 0.49 0.60 1813
0.00 0.00 1.77 -3.09 10.64 -1.42 0.50 0.62 1820
0.00 0.00 1.61 -3.21 10.70 -1.33 0.50 0.63 1827
0.00 0.00 1.57 -3.13 10.88 -1.26 0.50 0.62 1835
0.00 0.00 1.60 -3.05 11.19 -1.20 0.51 0.61 1842
0.00 0.00 1.71 -3.00 11.31 -1.18 0.54 0.59 1849
0.00 0.00 1.70 -2.97 11.49 -1.17 0.60 0.57 1856
0.00 0.00 1.58 -2.90 11.79 -1.18 0.66 0.57 1863
0.00 0.00 1.47 -2.91 12.15 -1.22 0.71 0.57 1870
0.00 0.00 1.21 -2.97 12.02 -1.30 0.72 0.57 1878
0.01 -0.00 1.06 -3.31 11.73 -1.35 0.71 0.58 1885
0.00 0.00 0.99 -3.67 11.32 -1.39 0.68 0.58 1892
0.00 0.00 1.03 -4.04 10.88 -1.38 0.65 0.58 1899
0.00 0.00 1.19 -4.35 10.61 -1.32 0.64 0.58 1906
0.00 0.00 1.41 -4.46 10.53 -1.23 0.66 0.58 1913
-0.00 0.00 1.54 -4.55 10.49 -1.14 0.70 0.60 1921
0.00 0.00 1.50 -4.52 10.51 -1.06 0.73 0.62 1928
0.00 0.00 1.31 -4.44 10.48 -0.97 0.73 0.67 1935
0.00 0.00 1.14 -4.48 10.52 -0.94 0.68 0.75 1942
0.00 0.00 1.00 -4.51 10.55 -0.87 0.57 0.83 1949
0.00 0.00 1.03 -4.77 10.22 -0.81 0.41 0.92 1956
0.00 0.00 1.00 -4.97 9.97 -0.73 0.27 0.98 1964
0.00 0.00 0.99 -5.21 9.96 -0.65 0.11 1.03 1971
0.00 0.00 0.90 -5.47 9.81 -0.58 -0.03 1.07 1978
0.00 0.00 0.94 -5.69 9.47 -0.52 -0.17 1.08 1985
0.00 0.00 0.99 -5.98 9.29 -0.47 -0.29 1.07 1992
0.00 0.00 0.84 -6.17 9.15 -0.41 -0.37 1.01 1999
0.00 0.00 0.93 -6.37 8.96 -0.36 -0.44 0.98 2007
0.00 0.00 0.95 -6.74 9.39 -0.36 -0.39 0.90 2014
0.00 0.00 1.22 -6.96 9.20 -0.36 -0.22 0.81 2021
0.00 0.00 1.45 -7.28 8.91 -0.39 0.03 0.67 2028
0.00 0.00 1.70 -7.75 8.16 -0.43 0.31 0.53 2035
0.00 0.00 1.63 -8.43 7.47 -0.45 0.63 0.35 2042
0.00 0.00 1.26 -9.14 6.80 -0.42 0.89 0.16 2050
0.00 0.00 0.33 -10.95 7.13 -0.30 1.02 0.01 2057
0.00 0.00 -3.35 -14.50 13.32 0.29 0.63 -0.19 2064
0.00 0.00 -2.23 -11.70 3.54 0.53 0.61 -0.35 2071
0.00 0.00 -1.82 -13.79 4.31 0.73 0.30 -0.46 2078
0.00 0.00 -3.81 -16.58 5.83 0.85 -0.20 -0.65 2085
0.00 0.00 -5.33 -17.96 4.79 1.09 -0.57 -0.83 2093
0.00 0.00 -6.68 -20.17 3.50 1.31 -1.05 -1.03 2100
-0.00 0.02 -7.77 -30.00 3.98 1.50 -1.87 -1.32 2107
-0.00 0.01 2.92 -22.94 22.36 1.54 -3.82 -1.48 2115
-0.01 0.07 1.47 -10.91 20.73 0.14 -1.78 -0.22 2122
-0.02 0.20 2.33 -1.54 9.00 -0.44 -0.17 0.09 2128
0.00 0.34 -0.00 -1.43 12.12 -0.32 -0.14 -0.02 2136
-0.03 0.49 -0.47 -0.71 10.86 -0.16 -0.20 -0.08 2144
-0.02 0.52 0.01 -0.52 10.16 -0.05 -0.07 -0.10 2150
-0.04 0.58 0.25 -1.21 9.93 -0.03 0.02 -0.07 2157
-0.03 0.61 0.04 -0.76 9.88 -0.03 0.06 -0.03 2164
-0.03 0.63 0.31 -0.77 9.76 -0.03 0.09 -0.04 2171
-0.03 0.69 0.69 -0.96 9.81 -0.02 0.09 -0.04 2179
-0.03 0.68 0.43 -0.85 9.82 -0.02 0.08 -0.05 2186
-0.03 0.69 0.31 -0.83 9.81 -0.02 0.08 -0.05 2193
-0.03 0.73 0.41 -0.85 9.81 -0.01 0.09 -0.05 2200
-0.02 0.71 0.45 -0.80 9.81 -0.00 0.10 -0.05 2207
-0.02 0.71 0.51 -0.80 9.76 0.00 0.09 -0.06 2214
-0.01 0.71 0.52 -0.81 9.81 0.01 0.08 -0.06 2222
-0.02 0.68 0.47 -0.79 9.79 0.01 0.07 -0.06 2229
-0.01 0.63 0.46 -0.79 9.79 0.01 0.06 -0.06 2236
-0.01 0.63 0.48 -0.80 9.75 0.01 0.06 -0.06 2243
-0.01 0.61 0.50 -0.82 9.77 0.00 0.05 -0.07 2250
-0.00 0.60 0.46 -0.81 9.81 0.00 0.04 -0.07 2257
-0.01 0.59 0.46 -0.80 9.79 0.00 0.04 -0.07 2265
-0.01 0.60 0.42 -0.81 9.81 0.00 0.04 -0.07 2272
-0.01 0.57 0.40 -0.81 9.83 0.00 0.05 -0.06 2279
-0.02 0.56 0.39 -0.82 9.83 0.00 0.05 -0.07 2286
-0.01 0.57 0.41 -0.80 9.81 0.00 0.06 -0.06 2293
-0.00 0.54 0.42 -0.77 9.82 0.01 0.06 -0.06 2300
-0.01 0.52 0.42 -0.83 9.79 0.00 0.07 -0.06 2308
-0.02 0.51 0.42 -0.80 9.77 0.01 0.07 -0.06 2315
-0.03 0.51 0.45 -0.80 9.79 0.00 0.07 -0.06 2322
-0.02 0.50 0.46 -0.80 9.77 0.01 0.07 -0.06 2329
-0.02 0.49 0.46 -0.80 9.79 0.01 0.07 -0.06 2336
-0.00 0.46 0.43 -0.80 9.72 0.01 0.07 -0.06 2343
-0.01 0.42 0.46 -0.81 9.75 0.01 0.07 -0.06 2351
-0.00 0.36 0.42 -0.83 9.78 0.00 0.07 -0.06 2358
-0.01 0.39 0.45 -0.82 9.77 0.01 0.07 -0.06 2365
-0.01 0.39 0.46 -0.81 9.79 0.01 0.07 -0.06 2372
0.00 0.38 0.47 -0.78 9.80 0.01 0.07 -0.06 2379
0.01 0.36 0.44 -0.83 9.79 0.01 0.06 -0.06 2386
0.01 0.33 0.50 -0.80 9.77 0.00 0.06 -0.05 2394
0.01 0.31 0.44 -0.86 9.78 0.00 0.06 -0.05 2401
0.00 0.30 0.46 -0.83 9.76 0.00 0.06 -0.05 2408
0.01 0.33 0.50 -0.82 9.73 0.00 0.05 -0.06 2415
0.02 0.32 0.51 -0.81 9.78 0.00 0.05 -0.06 2422
0.03 0.33 0.47 -0.80 9.78 0.00 0.04 -0.06 2429
0.01 0.33 0.47 -0.81 9.77 -0.03 0.05 -0.06 2437
0.01 0.31 0.48 -0.82 9.81 0.00 0.05 -0.06 2444
0.00 0.33 0.48 -0.81 9.79 0.00 0.04 -0.06 2451
0.01 0.29 0.45 -0.80 9.81 -0.00 0.04 -0.06 2458
0.03 0.29 0.47 -0.82 9.79 0.00 0.04 -0.06 2465
0.02 0.27 0.47 -0.85 9.78 0.01 0.04 -0.06 2472
0.02 0.28 0.50 -0.77 9.76 0.01 0.04 -0.06 2480
0.01 0.26 0.46 -0.79 9.75 0.00 0.04 -0.06 2487
0.01 0.26 0.49 -0.83 9.77 0.00 0.04 -0.06 2494
0.01 0.29 0.50 -0.85 9.77 -0.00 0.04 -0.05 2501
0.04 0.27 0.50 -0.81 9.80 0.00 0.04 -0.06 2508
0.04 0.28 0.48 -0.87 9.79 -0.00 0.04 -0.06 2515
0.03 0.26 0.50 -0.83 9.78 -0.00 0.04 -0.06 2523
0.02 0.23 0.49 -0.85 9.77 -0.00 0.04 -0.06 2530
0.02 0.26 0.49 -0.83 9.77 -0.00 0.04 -0.06 2537
0.03 0.25 0.46 -0.81 9.79 -0.00 0.03 -0.06 2544
0.04 0.28 0.50 -0.83 9.80 -0.00 0.03 -0.06 2551
0.03 0.25 0.52 -0.83 9.76 -0.00 0.03 -0.06 2558
0.02 0.24 0.47 -0.84 9.79 -0.01 0.03 -0.06 2566
0.02 0.24 0.50 -0.83 9.75 -0.00 0.03 -0.06 2573
0.02 0.24 0.45 -0.84 9.76 -0.01 0.03 -0.07 2580
0.03 0.29 0.47 -0.85 9.71 -0.01 0.03 -0.07 2587
0.03 0.27 0.47 -0.83 9.75 -0.01 0.04 -0.06 2594
0.02 0.28 0.46 -0.83 9.75 -0.01 0.04 -0.07 2601
0.03 0.28 0.44 -0.85 9.77 -0.01 0.05 -0.07 2609
0.01 0.28 0.46 -0.82 9.80 -0.01 0.05 -0.07 2616
0.02 0.29 0.46 -0.85 9.79 -0.01 0.06 -0.07 2623
0.02 0.29 0.48 -0.85 9.80 -0.01 0.06 -0.06 2630
0.03 0.27 0.49 -0.81 9.79 -0.01 0.06 -0.07 2637
0.02 0.25 0.53 -0.84 9.79 -0.00 0.07 -0.07 2644
0.03 0.22 0.53 -0.83 9.80 -0.01 0.06 -0.07 2652
0.02 0.23 0.53 -0.84 9.80 -0.00 0.07 -0.07 2659
0.02 0.22 0.49 -0.84 9.78 0.00 0.06 -0.07 2666
0.03 0.20 0.51 -0.82 9.81 -0.00 0.07 -0.07 2673
0.04 0.18 0.51 -0.85 9.78 0.00 0.07 -0.07 2680
0.03 0.15 0.54 -0.79 9.80 0.01 0.06 -0.06 2688
0.03 0.10 0.56 -0.83 9.79 0.02 0.07 -0.07 2695
0.03 0.06 0.56 -0.81 9.75 0.02 0.07 -0.07 2702
0.03 0.07 0.53 -0.80 9.82 0.03 0.06 -0.07 2709
0.05 0.01 0.53 -0.86 9.88 0.04 0.10 -0.07 2716
0.05 -0.00 0.54 -0.85 9.92 0.06 0.07 -0.07 2723
0.03 -0.00 0.59 -0.90 9.96 0.09 0.09 -0.06 2731
0.04 0.00 0.59 -0.91 9.98 0.13 0.10 -0.06 2738
0.03 -0.00 0.68 -0.81 10.10 0.19 0.13 -0.07 2745
0.04 -0.00 0.73 -0.87 10.39 0.26 0.20 -0.09 2752
0.05 -0.01 0.95 -0.90 11.55 0.43 0.21 -0.12 2759
0.04 -0.00 1.03 -0.92 12.30 0.85 0.28 -0.20 2766
0.03 -0.00 1.70 -1.17 14.87 1.50 0.31 -0.32 2774
0.03 -0.00 1.10 -1.10 16.05 2.13 0.19 -0.38 2781
0.04 -0.00 1.32 -1.28 14.86 2.45 0.08 -0.43 2788
0.04 -0.00 1.27 -1.13 13.47 2.62 -0.04 -0.46 2795
0.04 -0.00 1.31 -1.43 13.65 2.73 -0.14 -0.47 2802
0.02 -0.00 1.73 -1.50 14.30 2.84 -0.16 -0.49 2809
0.04 -0.00 1.85 -1.72 13.91 2.96 -0.12 -0.52 2817
0.05 -0.00 1.95 -1.89 13.65 3.04 0.02 -0.56 2824
0.01 -0.00 1.59 -2.08 14.21 3.09 0.18 -0.54 2831
0.01 -0.00 1.42 -2.28 14.62 3.11 0.36 -0.55 2838
0.01 -0.00 1.26 -2.19 14.65 3.07 0.55 -0.53 2845
0.00 0.00 0.94 -1.83 14.25 2.98 0.65 -0.52 2852
0.00 0.00 -0.26 -0.97 13.65 2.87 0.66 -0.49 2860
0.00 0.00 -0.95 -0.50 12.75 2.68 0.52 -0.41 2867
0.00 0.00 -1.49 0.80 12.59 2.45 0.28 -0.37 2874
0.00 0.00 -0.63 1.14 11.38 2.24 0.04 -0.30 2881
0.01 -0.00 -0.65 3.67 10.65 2.02 -0.10 -0.27 2888
0.00 0.00 0.03 4.85 9.15 1.78 -0.18 -0.22 2895
0.00 0.00 0.53 7.08 9.41 1.51 -0.17 -0.25 2903
0.00 0.00 0.43 8.68 9.73 1.14 -0.13 -0.35 2910
0.00 0.00 0.36 8.06 8.20 0.89 -0.06 -0.51 2917
0.00 0.00 -0.07 7.58 8.68 0.64 0.01 -0.65 2924
0.00 0.00 -0.70 7.56 9.20 0.32 -0.01 -0.78 2931
0.00 0.00 -1.07 7.54 8.56 0.05 -0.10 -0.89 2938
0.00 0.00 -0.99 6.89 7.89 -0.19 -0.27 -0.96 2946
0.00 0.00 -0.62 5.95 7.49 -0.35 -0.42 -1.04 2953
-0.00 0.00 -0.02 5.21 7.38 -0.49 -0.48 -1.11 2960
0.00 0.00 0.53 4.48 7.35 -0.58 -0.49 -1.19 2967
0.00 0.00 0.82 3.91 7.51 -0.66 -0.47 -1.28 2974
0.00 0.00 0.94 3.53 7.54 -0.74 -0.44 -1.33 2981
0.00 0.00 1.03 2.97 7.71 -0.81 -0.43 -1.36 2989
0.00 0.00 1.10 2.58 7.98 -0.88 -0.44 -1.34 2996
-0.00 0.00 1.35 2.08 8.46 -0.97 -0.46 -1.34 3003
0.00 0.00 2.42 1.82 9.15 -1.06 -0.45 -1.26 3010
0.00 0.00 2.33 1.70 9.59 -1.20 -0.42 -1.16 3017
0.00 0.00 2.70 1.57 10.06 -1.36 -0.35 -1.03 3024
0.00 0.00 2.98 0.64 10.33 -1.49 -0.27 -0.86 3032
0.00 0.00 3.19 0.71 10.35 -1.64 -0.20 -0.71 3039
0.00 0.00 3.34 -0.02 10.09 -1.73 -0.15 -0.52 3046
0.00 0.00 3.48 -0.66 9.90 -1.78 -0.10 -0.37 3053
0.00 0.00 3.69 -1.32 9.84 -1.75 -0.03 -0.20 3060
0.00 0.00 3.79 -1.72 9.84 -1.71 0.04 -0.03 3067
0.00 0.00 3.88 -1.86 10.02 -1.66 0.15 0.09 3075
0.00 0.00 3.88 -1.84 10.14 -1.62 0.28 0.23 3082
0.00 0.00 3.70 -1.94 10.40 -1.59 0.39 0.33 3089
0.00 0.00 3.37 -2.20 10.57 -1.55 0.49 0.43 3096
0.00 0.00 3.02 -2.54 10.68 -1.53 0.53 0.51 3103
0.00 0.00 2.65 -2.75 10.76 -1.49 0.54 0.57 3110
0.00 0.00 2.43 -2.88 10.87 -1.45 0.51 0.62 3118
0.00 0.00 2.29 -2.95 10.80 -1.39 0.46 0.66 3125
0.00 0.00 2.24 -2.93 10.95 -1.34 0.41 0.68 3132
0.00 0.00 2.36 -2.81 11.10 -1.30 0.38 0.70 3139
0.00 0.00 2.56 -2.69 11.21 -1.28 0.38 0.70 3146
0.00 0.00 2.68 -2.57 11.30 -1.28 0.43 0.69 3153
0.00 0.00 2.69 -2.58 11.25 -1.29 0.48 0.68 3161
0.00 0.00 2.61 -2.76 11.12 -1.29 0.56 0.67 3168
0.01 -0.00 2.46 -2.94 11.02 -1.28 0.62 0.65 3175
0.00 0.00 2.20 -3.05 11.01 -1.23 0.67 0.63 3182
0.00 0.00 1.97 -3.30 11.04 -1.19 0.73 0.62 3189
0.00 0.00 1.77 -3.42 11.10 -1.14 0.77 0.61 3196
0.00 0.00 1.53 -3.61 11.12 -1.09 0.80 0.61 3204
0.00 0.00 1.26 -3.73 11.10 -1.04 0.78 0.60 3211
0.00 -0.00 1.08 -3.83 10.97 -0.99 0.75 0.60 3218
0.00 0.00 0.94 -3.91 10.63 -0.93 0.68 0.59 3225
0.00 0.00 0.91 -4.04 10.20 -0.86 0.57 0.57 3232
0.00 0.00 0.95 -4.13 9.90 -0.76 0.50 0.55 3239
0.00 0.00 1.06 -4.12 9.73 -0.62 0.40 0.50 3247
0.00 0.00 1.05 -4.36 9.70 -0.51 0.34 0.47 3254
0.00 0.00 1.12 -4.36 9.74 -0.36 0.30 0.43 3261
0.00 0.00 1.12 -4.22 9.82 -0.24 0.24 0.41 3268
0.00 0.00 1.08 -4.08 9.98 -0.14 0.25 0.40 3275
0.00 0.00 1.22 -3.97 10.29 -0.04 0.26 0.43 3282
0.00 0.00 1.51 -3.76 10.74 -0.05 0.31 0.48 3290
0.00 0.00 1.93 -3.74 10.89 -0.10 0.43 0.55 3297
0.00 0.00 2.22 -3.78 11.21 -0.18 0.55 0.64 3304
0.00 0.00 2.11 -3.89 11.45 -0.31 0.61 0.72 3311
0.00 0.00 1.60 -4.10 11.52 -0.46 0.61 0.82 3318
0.00 0.00 1.23 -4.40 11.21 -0.60 0.55 0.89 3325
0.00 0.00 0.96 -4.68 10.61 -0.70 0.40 0.95 3333
0.00 0.00 0.90 -5.14 9.67 -0.74 0.26 0.99 3340
0.00 0.00 1.01 -5.46 8.97 -0.72 0.20 1.01 3347
0.00 0.00 1.21 -5.78 8.75 -0.64 0.21 1.04 3354
0.00 0.00 1.41 -6.03 8.59 -0.56 0.31 1.05 3361
0.00 0.00 1.42 -6.24 8.56 -0.47 0.50 1.05 3368
0.00 0.00 1.21 -6.49 8.43 -0.38 0.72 1.04 3376
0.00 -0.00 0.85 -6.98 8.36 -0.36 0.86 0.98 3383
0.00 0.00 0.25 -7.44 8.08 -0.31 0.92 0.90 3390
0.00 0.00 -0.20 -7.97 7.68 -0.26 0.91 0.77 3397
0.00 0.00 -0.49 -8.26 6.77 -0.20 0.89 0.64 3404
0.00 0.00 -0.84 -8.44 7.10 -0.16 0.90 0.48 3411
0.00 0.00 -0.91 -8.79 6.98 -0.17 0.96 0.33 3419
0.00 -0.00 -1.43 -9.36 6.74 -0.22 1.08 0.20 3426
0.00 0.00 -8.87 -17.58 13.01 -0.00 0.52 0.03 3433
0.00 0.00 -7.66 -12.78 5.41 0.51 0.01 -0.08 3440
0.00 0.00 -6.90 -13.04 0.33 0.61 -0.29 -0.21 3447
0.00 0.00 -8.95 -21.04 2.19 0.77 -0.97 -0.40 3454
-0.00 0.01 -12.72 -27.54 2.87 1.10 -2.16 -0.77 3463
0.01 0.03 -3.39 -24.43 3.72 1.32 -3.73 -1.44 3470
0.00 0.04 5.42 -3.28 31.71 1.08 -4.28 -1.40 3476
-0.02 0.22 1.17 -5.64 24.63 0.01 -2.04 -0.18 3483
-0.04 0.48 1.77 -1.83 11.76 -0.49 -0.05 -0.05 3491
-0.03 0.67 -1.52 -2.46 12.55 -0.22 -0.29 -0.10 3499
-0.04 0.71 -0.35 -1.50 10.58 -0.10 -0.22 -0.14 3506
-0.02 0.76 0.60 -0.92 9.95 -0.03 -0.10 -0.07 3512
-0.02 0.76 0.00 -0.85 10.03 -0.02 -0.00 -0.05 3519
-0.04 0.72 0.21 -0.57 9.80 -0.01 0.05 -0.05 3526
-0.05 0.74 0.56 -0.84 9.78 -0.01 0.07 -0.05 3533
-0.04 0.76 0.45 -0.77 9.80 -0.01 0.06 -0.05 3540
-0.01 0.70 0.32 -0.73 9.78 -0.02 0.06 -0.05 3548
-0.02 0.72 0.38 -0.74 9.83 -0.02 0.06 -0.05 3555
-0.02 0.73 0.40 -0.73 9.79 -0.02 0.06 -0.05 3562
-0.02 0.70 0.40 -0.69 9.82 -0.01 0.07 -0.04 3569
-0.02 0.72 0.47 -0.68 9.81 -0.01 0.06 -0.05 3576
-0.01 0.71 0.45 -0.66 9.77 -0.01 0.05 -0.05 3584
0.00 0.68 0.43 -0.64 9.80 -0.00 0.05 -0.06 3591
0.00 0.67 0.37 -0.63 9.75 -0.00 0.04 -0.06 3598
0.00 0.66 0.44 -0.64 9.76 0.00 0.04 -0.06 3605
-0.01 0.64 0.44 -0.66 9.79 0.00 0.04 -0.07 3612
-0.01 0.65 0.37 -0.67 9.77 0.00 0.05 -0.06 3619
-0.01 0.65 0.37 -0.66 9.80 -0.00 0.05 -0.06 3627
0.00 0.64 0.40 -0.68 9.81 -0.00 0.06 -0.06 3634
-0.01 0.64 0.34 -0.66 9.82 0.00 0.07 -0.06 3641
0.01 0.62 0.37 -0.66 9.80 -0.00 0.08 -0.05 3648
0.01 0.61 0.39 -0.66 9.80 -0.00 0.08 -0.05 3655
0.03 0.60 0.40 -0.64 9.75 0.00 0.08 -0.05 3662
0.03 0.59 0.42 -0.68 9.78 -0.00 0.08 -0.05 3670
0.03 0.58 0.45 -0.68 9.75 0.00 0.08 -0.05 3677
0.02 0.58 0.43 -0.65 9.77 -0.00 0.08 -0.05 3684
0.03 0.57 0.45 -0.68 9.74 -0.03 0.07 -0.05 3691
0.01 0.57 0.45 -0.65 9.73 0.00 0.07 -0.05 3698
0.02 0.57 0.47 -0.65 9.75 0.00 0.07 -0.05 3705
0.04 0.56 0.42 -0.69 9.76 0.00 0.07 -0.05 3713
0.04 0.52 0.44 -0.64 9.73 0.01 0.07 -0.06 3720
0.04 0.48 0.49 -0.66 9.80 0.01 0.07 -0.05 3727
0.04 0.46 0.37 -0.66 9.81 0.01 0.07 -0.05 3734
0.03 0.41 0.44 -0.68 9.80 0.01 0.07 -0.05 3741
0.02 0.41 0.40 -0.65 9.81 0.02 0.07 -0.05 3748
0.04 0.40 0.45 -0.63 9.78 0.01 0.07 -0.05 3756
0.03 0.38 0.45 -0.68 9.81 0.01 0.07 -0.05 3763
0.03 0.38 0.43 -0.68 9.83 0.02 0.03 -0.05 3770
0.04 0.36 0.50 -0.68 9.77 0.01 0.07 -0.05 3777
0.04 0.35 0.48 -0.67 9.79 0.02 0.07 -0.05 3784
0.04 0.37 0.48 -0.71 9.80 0.02 0.06 -0.05 3791
0.04 0.35 0.47 -0.70 9.81 0.02 0.06 -0.05 3799
0.05 0.30 0.49 -0.71 9.80 0.02 0.05 -0.05 3806
0.04 0.29 0.45 -0.66 9.76 0.02 0.05 -0.05 3813
0.05 0.29 0.48 -0.70 9.78 0.01 0.05 -0.05 3820
0.04 0.27 0.46 -0.67 9.81 0.01 0.05 -0.05 3827
0.06 0.30 0.46 -0.73 9.80 0.01 0.05 -0.05 3834
0.08 0.29 0.48 -0.69 9.79 0.01 0.05 -0.05 3842
0.06 0.32 0.50 -0.74 9.78 0.01 0.05 -0.05 3849
0.06 0.29 0.48 -0.72 9.80 0.00 0.05 -0.05 3856
0.05 0.30 0.50 -0.72 9.80 0.00 0.04 -0.05 3863
0.07 0.30 0.48 -0.68 9.80 0.00 0.04 -0.05 3870
0.07 0.32 0.46 -0.70 9.82 -0.00 0.04 -0.05 3877
0.08 0.32 0.48 -0.72 9.76 -0.01 0.04 -0.05 3885
0.09 0.32 0.49 -0.71 9.82 -0.00 0.04 -0.05 3892
0.09 0.32 0.47 -0.70 9.76 -0.01 0.04 -0.05 3899
0.07 0.32 0.46 -0.66 9.76 -0.01 0.04 -0.05 3906
0.07 0.32 0.49 -0.69 9.80 -0.01 0.04 -0.06 3913
0.08 0.33 0.49 -0.70 9.73 -0.00 0.04 -0.06 3920
0.09 0.32 0.47 -0.69 9.75 -0.01 0.04 -0.06 3928
0.09 0.32 0.45 -0.68 9.73 -0.01 0.04 -0.06 3935
0.09 0.31 0.47 -0.69 9.79 -0.00 0.05 -0.06 3942
0.07 0.31 0.49 -0.70 9.77 -0.01 0.06 -0.06 3949
0.08 0.32 0.43 -0.71 9.76 0.00 0.06 -0.06 3956
0.08 0.32 0.51 -0.69 9.78 -0.00 0.07 -0.06 3963
0.09 0.31 0.48 -0.70 9.74 0.00 0.07 -0.06 3971
0.09 0.30 0.51 -0.71 9.73 0.01 0.07 -0.06 3978
0.08 0.30 0.48 -0.72 9.75 -0.00 0.07 -0.06 3985
0.08 0.27 0.48 -0.68 9.76 -0.00 0.07 -0.06 3992
0.07 0.32 0.50 -0.70 9.75 -0.00 0.07 -0.06 3999
0.10 0.24 0.51 -0.71 9.77 0.00 0.07 -0.06 4006
0.08 0.22 0.55 -0.71 9.78 0.00 0.07 -0.06 4014
0.09 0.23 0.53 -0.71 9.77 0.00 0.07 -0.06 4021
0.09 0.20 0.50 -0.68 9.76 0.01 0.06 -0.06 4028
0.09 0.20 0.49 -0.72 9.80 0.01 0.06 -0.06 4035
0.09 0.21 0.52 -0.68 9.79 0.01 0.06 -0.06 4042
0.10 0.16 0.49 -0.68 9.80 0.01 0.06 -0.07 4049
0.11 0.10 0.53 -0.68 9.80 0.02 0.06 -0.07 4057
0.10 0.09 0.54 -0.73 9.81 0.03 0.07 -0.06 4064
0.07 0.07 0.53 -0.72 9.21 0.03 0.07 -0.06 4071
0.10 0.03 0.52 -0.74 9.82 0.04 0.07 -0.06 4078
0.11 0.01 0.57 -0.73 9.80 0.04 0.07 -0.06 4085
0.11 -0.01 0.51 -0.75 9.82 0.05 0.08 -0.06 4092
0.09 -0.00 0.58 -0.74 9.82 0.06 0.08 -0.06 4100
0.09 -0.01 0.48 -0.72 9.86 0.07 0.09 -0.06 4107
0.07 -0.01 0.54 -0.76 9.94 0.10 0.12 -0.06 4114
0.08 -0.01 0.60 -0.71 10.04 0.14 0.16 -0.06 4121
0.07 -0.01 0.72 -0.81 10.02 0.21 0.21 -0.07 4128
0.07 -0.01 0.88 -0.82 10.16 0.27 0.26 -0.09 4135
0.07 -0.01 0.85 -0.82 10.65 0.41 0.30 -0.11 4143
0.06 -0.01 0.93 -0.81 11.48 0.73 0.36 -0.13 4150
0.05 -0.00 1.17 -1.19 12.74 1.15 0.44 -0.18 4157
0.05 -0.00 1.20 -1.09 14.20 1.73 0.43 -0.23 4164
0.06 -0.01 1.36 -0.93 14.69 2.06 0.36 -0.33 4171
0.05 -0.01 1.42 -1.11 13.82 2.29 0.24 -0.39 4178
0.05 -0.00 1.46 -1.24 13.38 2.39 0.12 -0.43 4186
0.07 -0.01 1.65 -1.40 12.85 2.47 0.04 -0.46 4193
0.02 -0.00 1.66 -1.56 12.78 2.55 0.05 -0.49 4200
0.02 0.00 2.29 -1.85 12.49 2.61 0.07 -0.55 4207
0.06 -0.01 2.72 -1.93 13.24 2.65 0.14 -0.66 4214
0.01 -0.00 3.19 -2.15 13.44 2.71 0.30 -0.71 4221
0.00 0.00 3.95 -2.74 13.62 2.75 0.51 -0.79 4229
0.00 0.00 4.28 -2.87 14.35 2.73 0.73 -0.87 4236
0.00 -0.00 3.62 -1.78 15.29 2.65 0.94 -0.98 4243
-0.00 0.00 2.84 -1.64 14.65 2.58 1.03 -1.03 4250
0.00 -0.00 1.67 -0.81 14.02 2.46 1.02 -1.05 4257
0.00 0.00 0.40 0.28 13.13 2.30 0.83 -1.04 4264
0.00 0.00 -0.24 1.64 12.88 2.07 0.60 -1.01 4272
0.00 0.00 -0.82 3.13 11.94 1.81 0.27 -1.01 4279
0.00 0.00 -0.80 5.74 11.30 1.62 0.01 -1.04 4286
0.00 0.00 -0.77 6.86 10.74 1.35 -0.16 -1.13 4293
0.00 0.00 -0.72 6.81 9.66 1.12 -0.29 -1.28 4300
0.00 0.00 -0.44 6.90 9.37 0.85 -0.33 -1.38 4307
0.00 0.00 -0.57 7.41 9.30 0.57 -0.32 -1.48 4315
0.00 0.00 -0.46 7.08 8.05 0.38 -0.34 -1.57 4322
0.00 0.00 -0.42 6.34 7.12 0.26 -0.39 -1.63 4329
0.00 0.00 -0.32 5.73 6.54 0.20 -0.41 -1.68 4336
0.00 0.00 -0.20 5.38 6.46 0.15 -0.45 -1.73 4343
0.00 0.00 -0.10 5.13 6.69 0.09 -0.48 -1.70 4350
0.00 0.00 0.16 5.09 7.32 -0.00 -0.50 -1.68 4358
0.00 0.00 0.69 5.05 7.94 -0.17 -0.50 -1.62 4365
0.00 0.00 1.18 4.97 8.30 -0.38 -0.45 -1.52 4372
0.00 0.00 1.55 4.72 8.50 -0.59 -0.40 -1.37 4379
0.00 0.00 1.78 4.20 8.74 -0.83 -0.34 -1.21 4386
0.00 0.00 1.92 3.39 8.67 -1.00 -0.30 -1.01 4393
0.00 0.00 1.96 2.47 8.44 -1.13 -0.30 -0.81 4401
0.00 0.00 2.17 1.47 8.25 -1.20 -0.32 -0.56 4408
0.00 0.00 2.49 0.72 8.04 -1.22 -0.34 -0.30 4415
0.00 0.00 2.79 0.28 8.19 -1.21 -0.34 -0.09 4422
0.00 0.00 3.18 0.00 8.33 -1.18 -0.29 0.14 4429
0.00 0.00 3.53 -0.22 8.95 -1.16 -0.21 0.31 4436
0.00 0.00 3.68 -0.41 9.64 -1.16 -0.06 0.46 4444
0.00 0.00 3.61 -0.59 10.16 -1.20 0.08 0.59 4451
0.00 0.00 3.15 -0.82 10.46 -1.27 0.20 0.66 4458
0.00 0.00 2.73 -1.32 10.66 -1.33 0.25 0.71 4465
0.00 0.00 2.50 -2.39 10.67 -1.38 0.26 0.74 4472
0.00 0.00 2.42 -2.26 10.65 -1.41 0.23 0.75 4480
0.00 0.00 2.51 -2.74 10.59 -1.42 0.22 0.74 4487
0.00 0.00 2.68 -2.92 10.66 -1.42 0.22 0.72 4494
0.00 0.00 2.81 -3.10 10.74 -1.42 0.24 0.68 4501
0.00 0.00 2.93 -3.17 11.01 -1.42 0.27 0.64 4508
0.00 0.00 2.91 -3.20 11.19 -1.44 0.30 0.60 4515
0.00 0.00 2.79 -3.33 11.17 -1.46 0.30 0.57 4523
0.00 0.00 2.70 -3.48 10.93 -1.48 0.29 0.54 4530
0.00 0.00 2.63 -3.70 10.56 -1.46 0.27 0.51 4537
0.00 0.00 2.57 -3.89 10.20 -1.41 0.25 0.49 4544
0.00 0.00 2.40 -3.99 9.95 -1.32 0.27 0.46 4551
0.00 0.00 2.35 -4.13 10.01 -1.23 0.28 0.44 4558
0.00 0.00 2.30 -4.00 10.37 -1.14 0.29 0.43 4566
0.00 0.00 2.41 -3.79 10.67 -1.08 0.35 0.42 4573
0.00 0.00 2.70 -3.55 10.90 -1.05 0.46 0.42 4580
0.00 0.00 2.90 -3.42 11.07 -1.06 0.55 0.44 4587
0.00 0.00 2.80 -3.47 11.01 -1.08 0.68 0.47 4594
0.00 0.00 2.61 -3.61 10.98 -1.10 0.75 0.51 4601
0.00 0.00 2.32 -3.85 10.72 -1.10 0.77 0.55 4609
0.00 0.00 2.10 -4.05 10.41 -1.07 0.75 0.59 4616
0.00 0.00 2.05 -4.18 10.25 -1.02 0.74 0.63 4623
0.00 0.00 1.94 -4.35 10.08 -0.94 0.72 0.66 4630
0.00 0.00 1.84 -4.35 9.98 -0.91 0.70 0.69 4637
0.00 0.00 1.74 -4.39 9.71 -0.83 0.68 0.70 4644
0.00 0.00 1.50 -4.59 9.45 -0.76 0.64 0.69 4652
0.00 0.00 1.29 -4.63 9.23 -0.64 0.60 0.68 4659
-0.00 0.00 1.00 -4.68 9.04 -0.50 0.52 0.66 4666
0.00 -0.00 0.83 -4.71 9.15 -0.36 0.41 0.62 4673
0.00 0.00 0.68 -4.70 9.55 -0.22 0.32 0.58 4680
0.00 0.00 0.63 -4.33 10.68 -0.13 0.18 0.54 4687
0.00 0.00 0.43 -4.11 11.51 -0.14 0.04 0.47 4695
0.00 0.00 0.57 -4.02 11.75 -0.24 -0.04 0.48 4702
0.00 0.00 0.89 -3.82 11.96 -0.37 -0.09 0.45 4709
0.00 0.00 1.44 -3.91 11.70 -0.55 -0.06 0.42 4716
0.00 0.00 1.95 -4.13 11.41 -0.72 0.07 0.37 4723
0.00 0.00 2.21 -4.34 10.88 -0.82 0.25 0.31 4730
0.00 0.00 2.28 -4.75 10.22 -0.89 0.48 0.23 4738
0.00 0.00 2.07 -5.15 9.52 -0.91 0.71 0.12 4745
0.00 0.00 1.94 -5.59 8.98 -0.87 0.87 0.02 4752
0.00 0.00 1.52 -6.04 8.65 -0.79 1.05 -0.08 4759
0.00 0.00 1.04 -6.35 8.39 -0.70 1.17 -0.16 4766
0.00 0.00 0.44 -6.60 8.23 -0.58 1.25 -0.21 4773
0.00 0.00 -0.02 -6.94 8.28 -0.50 1.23 -0.24 4781
0.00 0.00 -0.44 -7.16 8.37 -0.42 1.15 -0.23 4788
0.00 0.00 -0.92 -7.36 8.40 -0.40 1.00 -0.21 4795
0.00 0.00 -1.17 -7.51 8.14 -0.42 0.86 -0.14 4802
0.00 0.00 -1.31 -7.61 7.89 -0.46 0.73 -0.05 4809
0.00 0.00 -1.41 -8.01 7.38 -0.49 0.69 0.07 4816
0.00 0.00 -1.67 -8.59 6.80 -0.47 0.70 0.19 4824
0.00 0.00 -5.48 -13.61 9.23 -0.25 0.39 0.23 4831
0.00 0.00 -8.24 -12.95 8.74 0.25 -0.44 0.27 4838
0.00 0.00 -5.14 -11.58 2.76 0.58 -0.75 0.26 4845
0.00 0.00 -4.68 -14.34 2.67 0.80 -1.12 0.26 4852
0.00 0.00 -8.17 -18.02 6.05 1.04 -1.60 0.22 4859
0.00 0.00 -10.20 -19.56 4.86 1.38 -2.26 0.12 4867
-0.00 0.02 -9.98 -16.60 6.42 1.62 -3.21 0.01 4874
0.00 0.04 -5.06 2.85 14.50 2.30 -2.82 -0.13 4881
-0.01 0.10 -5.60 -1.66 41.74 0.93 -3.94 -0.44 4888
-0.02 0.26 0.21 -0.81 10.89 -0.22 -0.64 -0.05 4896
-0.03 0.38 0.37 -0.05 10.10 -0.37 -0.07 -0.22 4902
-0.03 0.47 -0.86 -2.92 10.93 -0.14 -0.23 -0.20 4911
-0.03 0.52 0.46 -1.38 9.94 -0.08 -0.13 -0.10 4917
0.01 0.60 -0.12 -1.26 10.32 -0.05 -0.05 -0.06 4924
-0.02 0.66 0.02 -0.78 9.95 -0.03 0.04 -0.05 4931
-0.01 0.66 0.42 -0.92 9.20 -0.02 0.08 -0.04 4938
-0.00 0.65 0.44 -0.86 9.83 -0.01 0.09 -0.03 4945
0.01 0.62 0.32 -0.81 9.72 -0.02 0.09 -0.03 4953
-0.01 0.69 0.48 -0.91 9.77 -0.02 0.09 -0.03 4960
0.01 0.64 0.50 -0.85 9.88 -0.02 0.07 -0.03 4967
0.00 0.63 0.40 -0.86 9.84 -0.01 0.07 -0.04 4974
0.01 0.64 0.46 -0.86 9.83 -0.01 0.06 -0.04 4981
-0.01 0.64 0.49 -0.83 9.82 -0.01 0.06 -0.05 4988
-0.02 0.62 0.51 -0.84 9.78 -0.01 0.04 -0.06 4996
-0.01 0.65 0.49 -0.81 9.79 -0.00 0.03 -0.07 5003
-0.00 0.62 0.42 -0.80 9.70 -0.00 0.02 -0.10 5010
-0.01 0.62 0.37 -0.81 9.76 -0.00 0.02 -0.07 5017
-0.01 0.61 0.36 -0.79 9.80 -0.00 0.02 -0.07 5024
-0.01 0.62 0.36 -0.83 10.41 -0.00 0.03 -0.07 5031
0.00 0.61 0.34 -0.83 9.81 -0.00 0.04 -0.06 5039
0.01 0.61 0.36 -0.80 9.81 -0.00 0.04 -0.06 5046
0.00 0.59 0.39 -0.81 9.79 -0.00 0.05 -0.06 5053
0.01 0.59 0.37 -0.84 9.75 0.00 0.06 -0.06 5060
0.01 0.57 0.38 -0.84 9.75 -0.00 0.06 -0.06 5067
0.01 0.56 0.43 -0.81 9.76 0.00 0.06 -0.05 5074
0.02 0.55 0.42 -0.81 9.79 0.00 0.06 -0.05 5082
0.03 0.53 0.44 -0.81 9.76 0.00 0.06 -0.05 5089
0.01 0.53 0.42 -0.82 9.77 0.01 0.05 -0.06 5096
0.01 0.52 0.44 -0.80 9.76 0.01 0.05 -0.06 5103
0.01 0.50 0.44 -0.80 9.77 0.00 0.05 -0.06 5110
0.02 0.50 0.45 -0.84 9.82 -0.00 0.05 -0.06 5117
0.01 0.51 0.43 -0.80 9.77 0.00 0.05 -0.07 5125
0.02 0.50 0.41 -0.82 9.78 -0.00 0.05 -0.06 5132
0.00 0.49 0.39 -0.81 9.75 -0.00 0.05 -0.06 5139
-0.00 0.49 0.40 -0.80 9.81 -0.00 0.05 -0.06 5146
-0.01 0.48 0.42 -0.86 9.82 0.00 0.05 -0.06 5153
0.01 0.47 0.45 -0.85 9.77 0.00 0.05 -0.06 5160
0.00 0.47 0.41 -0.81 9.75 -0.00 0.05 -0.06 5168
-0.00 0.45 0.42 -0.83 9.78 0.00 0.05 -0.05 5175
0.01 0.43 0.45 -0.79 9.77 0.00 0.04 -0.05 5182
0.01 0.42 0.43 -0.82 9.79 0.01 0.04 -0.06 5189
-0.01 0.45 0.43 -0.85 9.75 0.01 0.04 -0.06 5196
-0.00 0.44 0.44 -0.82 9.80 0.01 0.04 -0.06 5203
0.01 0.45 0.46 -0.84 9.78 0.01 0.03 -0.06 5211
0.03 0.42 0.40 -0.87 9.77 0.01 0.03 -0.06 5218
0.03 0.41 0.44 -0.86 9.81 0.01 0.03 -0.06 5225
0.04 0.42 0.41 -0.84 9.82 0.00 0.03 -0.06 5232
0.03 0.41 0.44 -0.86 9.80 0.00 0.03 -0.06 5239
0.03 0.40 0.42 -0.85 9.79 0.00 0.03 -0.06 5246
0.03 0.42 0.41 -0.84 9.77 -0.00 0.03 -0.06 5254
0.03 0.42 0.42 -0.83 9.81 -0.00 0.04 -0.06 5261
0.03 0.40 0.42 -0.83 9.74 -0.00 0.04 -0.06 5268
0.02 0.38 0.41 -0.82 9.78 -0.00 0.03 -0.06 5275
0.02 0.37 0.41 -0.84 9.75 -0.00 0.04 -0.06 5282
0.02 0.39 0.43 -0.83 9.75 -0.00 0.04 -0.06 5289
0.03 0.39 0.43 -0.83 9.76 0.00 0.04 -0.06 5297
0.02 0.38 0.40 -0.84 9.77 0.00 0.04 -0.06 5304
0.00 0.36 0.42 -0.83 9.78 0.00 0.04 -0.06 5311
-0.01 0.35 0.38 -0.85 9.78 0.01 0.04 -0.06 5318
0.00 0.34 0.43 -0.86 9.79 0.01 0.05 -0.06 5325
0.01 0.32 0.43 -0.84 9.77 0.00 0.05 -0.07 5332
0.01 0.34 0.44 -0.84 9.71 0.00 0.06 -0.06 5340
0.01 0.30 0.42 -0.87 9.76 0.00 0.06 -0.06 5347
0.02 0.28 0.43 -0.86 9.77 0.00 0.06 -0.06 5354
-0.00 0.29 0.44 -0.85 9.79 0.00 0.05 -0.07 5361
0.01 0.29 0.43 -0.84 9.77 0.01 0.06 -0.07 5368
0.02 0.31 0.46 -0.86 9.73 0.01 0.06 -0.07 5376
0.03 0.27 0.43 -0.85 9.71 0.01 0.06 -0.07 5383
0.03 0.26 0.44 -0.86 9.79 0.00 0.06 -0.07 5390
0.03 0.23 0.45 -0.86 9.81 0.01 0.07 -0.07 5397
0.03 0.26 0.43 -0.83 9.82 0.01 0.07 -0.07 5404
0.04 0.24 0.44 -0.86 9.81 0.02 0.08 -0.07 5411
0.04 0.23 0.47 -0.88 9.81 0.01 0.08 -0.07 5419
0.06 0.21 0.46 -0.87 9.82 0.02 0.08 -0.07 5426
0.06 0.21 0.46 -0.88 9.81 0.02 0.08 -0.08 5433
0.08 0.11 0.49 -0.86 9.82 0.02 0.09 -0.08 5440
0.07 0.07 0.53 -0.89 9.77 0.02 0.08 -0.07 5447
0.09 0.04 0.50 -0.88 9.82 0.02 0.08 -0.08 5454
0.11 0.04 0.50 -0.88 9.81 0.03 0.08 -0.08 5462
0.11 0.01 0.56 -0.87 9.82 0.03 0.08 -0.08 5469
0.11 0.02 0.51 -0.92 9.80 0.03 0.09 -0.07 5476
0.11 -0.01 0.51 -0.90 9.82 0.04 0.09 -0.07 5483
0.11 -0.00 0.50 -0.90 9.81 0.05 0.10 -0.07 5490
0.11 0.00 0.45 -0.91 9.81 0.05 0.10 -0.07 5497
0.12 -0.01 0.53 -0.89 9.89 0.06 0.11 -0.06 5505
0.12 -0.01 0.45 -0.91 9.90 0.09 0.14 -0.06 5512
0.11 -0.01 0.56 -0.89 9.97 0.12 0.16 -0.05 5519
0.09 -0.00 0.55 -0.86 10.12 0.16 0.18 -0.05 5526
0.07 -0.01 0.58 -0.91 10.22 0.24 0.22 -0.05 5533
0.08 -0.01 0.68 -0.68 10.42 0.34 0.20 -0.06 5540
0.09 -0.01 0.85 -0.89 11.66 0.63 0.28 -0.10 5548
0.08 -0.01 1.29 -1.26 13.57 1.19 0.32 -0.17 5555
0.08 -0.01 1.38 -1.25 15.32 1.74 0.21 -0.25 5562
0.06 -0.01 1.73 -0.98 15.95 2.21 0.08 -0.35 5569
0.08 -0.01 1.38 -1.15 15.03 2.51 0.01 -0.42 5576
0.04 -0.00 1.20 -1.15 13.75 2.71 -0.05 -0.45 5583
0.05 -0.00 1.32 -1.60 14.02 2.85 -0.11 -0.47 5591
0.03 -0.00 1.59 -1.73 14.36 2.98 -0.13 -0.49 5598
0.06 -0.01 1.91 -1.94 14.28 3.14 -0.05 -0.53 5605
0.02 -0.00 2.43 -2.41 14.30 3.25 0.10 -0.58 5612
0.02 -0.00 2.31 -2.60 15.51 3.33 0.29 -0.60 5619
0.00 -0.00 2.54 -2.95 16.04 3.36 0.54 -0.61 5626
0.00 0.00 2.54 -2.43 16.38 3.35 0.76 -0.64 5634
0.00 0.00 2.05 -1.69 15.95 3.30 0.94 -0.66 5641
0.00 0.00 0.78 -0.36 15.00 3.17 1.00 -0.65 5648
0.00 0.00 -0.06 0.18 13.44 2.90 0.88 -0.62 5655
0.00 0.00 -0.70 1.71 13.01 2.59 0.68 -0.58 5662
0.00 0.00 -0.87 2.42 11.49 2.36 0.45 -0.55 5669
0.00 0.00 -0.47 4.73 10.39 2.16 0.18 -0.56 5677
0.00 0.00 0.41 6.74 9.82 1.91 -0.01 -0.62 5684
0.00 0.00 0.44 8.30 8.98 1.66 -0.14 -0.68 5691
0.00 0.00 0.43 10.06 9.14 1.31 -0.18 -0.83 5698
0.00 0.00 0.50 8.31 8.00 1.04 -0.27 -0.99 5705
0.00 0.00 0.16 8.44 9.07 0.75 -0.27 -1.09 5712
0.00 0.00 -0.19 8.59 8.46 0.45 -0.32 -1.18 5720
0.00 0.00 -0.23 8.21 7.36 0.27 -0.45 -1.25 5727
0.00 0.00 -0.38 7.48 6.90 0.10 -0.66 -1.28 5734
0.00 0.00 -0.23 6.87 6.74 -0.01 -0.86 -1.30 5741
0.00 0.00 -0.05 6.49 6.88 -0.11 -1.03 -1.31 5748
0.01 -0.00 0.33 6.07 7.21 -0.22 -1.16 -1.30 5755
0.00 0.00 0.80 5.84 8.03 -0.35 -1.23 -1.28 5763
0.00 0.00 1.32 5.79 8.73 -0.54 -1.24 -1.25 5770
0.00 0.00 1.78 5.73 9.37 -0.77 -1.16 -1.19 5777
0.00 0.00 2.06 5.65 9.91 -1.08 -1.04 -1.13 5784
-0.00 0.00 2.38 5.19 10.07 -1.40 -0.85 -1.06 5791
0.00 -0.00 2.56 4.37 10.13 -1.65 -0.67 -0.97 5798
0.00 0.00 2.60 3.43 10.20 -1.89 -0.47 -0.89 5806
0.00 0.00 2.61 2.49 10.15 -2.10 -0.27 -0.80 5813
0.00 0.00 2.54 1.75 10.17 -2.20 -0.12 -0.67 5820
0.00 0.00 2.46 0.97 10.18 -2.31 0.00 -0.59 5827
0.00 0.00 2.35 0.24 10.21 -2.37 0.07 -0.46 5834
0.00 0.00 2.42 -0.32 10.22 -2.39 0.12 -0.33 5841
0.00 0.00 2.62 -0.98 10.38 -2.38 0.17 -0.18 5849
0.00 0.00 2.87 -1.54 10.32 -2.33 0.23 -0.03 5856
0.00 0.00 3.10 -2.22 10.33 -2.25 0.36 0.09 5863
0.00 0.00 3.25 -2.85 10.48 -2.15 0.52 0.22 5870
0.00 0.00 3.13 -3.27 11.17 -2.03 0.67 0.32 5877
0.00 0.00 2.78 -3.62 12.04 -1.95 0.82 0.45 5884
0.00 0.00 2.31 -3.80 12.73 -1.91 0.89 0.58 5892
0.00 0.00 1.82 -3.97 12.92 -1.92 0.91 0.71 5899
0.00 0.00 1.51 -4.29 12.93 -1.95 0.86 0.85 5906
0.00 0.00 1.42 -4.63 12.71 -1.96 0.80 0.97 5913
0.00 0.00 1.53 -4.95 12.34 -1.93 0.76 1.08 5920
0.00 0.00 1.66 -5.23 12.10 -1.89 0.80 1.15 5927
0.00 0.00 1.73 -5.34 11.67 -1.81 0.81 1.18 5935
0.00 0.00 1.58 -5.60 11.26 -1.73 0.89 1.19 5942
0.00 0.00 1.32 -5.81 10.99 -1.61 0.95 1.14 5949
-0.00 0.00 1.10 -6.08 10.60 -1.47 1.00 1.15 5956
0.01 -0.00 0.93 -6.34 10.17 -1.31 1.00 1.11 5963
0.00 0.00 0.98 -6.56 10.14 -1.09 0.98 1.08 5970
0.00 0.00 0.94 -6.49 10.56 -0.90 0.93 1.04 5978
0.00 0.00 0.74 -5.99 11.30 -0.73 0.86 1.02 5985
0.00 0.00 0.30 -5.62 11.87 -0.66 0.71 1.01 5992
-0.00 0.00 -0.12 -5.18 12.49 -0.69 0.52 1.01 5999
0.00 0.00 -0.09 -4.93 13.05 -0.83 0.32 1.01 6006
0.00 0.00 0.28 -4.97 12.47 -1.03 0.14 1.00 6013
0.00 0.00 0.80 -5.30 11.50 -1.18 0.06 0.96 6021
0.00 0.00 1.23 -5.76 10.58 -1.26 0.07 0.91 6028
0.00 0.00 1.48 -6.34 9.72 -1.23 0.18 0.83 6035
0.00 0.00 1.38 -6.71 9.21 -1.11 0.31 0.71 6042
0.00 0.00 1.04 -6.92 8.94 -0.93 0.44 0.63 6049
0.00 0.00 0.60 -6.91 8.56 -0.75 0.52 0.52 6056
0.00 0.00 0.20 -6.95 8.21 -0.52 0.55 0.43 6064
0.00 0.00 -0.11 -6.85 7.86 -0.28 0.54 0.33 6071
0.00 0.00 -0.23 -6.78 7.62 -0.06 0.50 0.24 6078
0.00 0.00 -0.28 -6.64 7.74 0.17 0.45 0.20 6085
0.00 0.00 -0.05 -6.56 8.13 0.32 0.37 0.15 6092
0.00 0.00 0.02 -6.42 9.76 0.39 0.32 0.12 6099
0.00 0.00 0.23 -6.25 10.42 0.32 0.25 0.10 6107
0.00 0.00 -0.04 -6.21 11.34 0.14 0.16 0.10 6114
0.00 0.00 0.23 -6.28 11.59 -0.20 0.08 0.10 6121
0.00 0.00 1.17 -6.55 10.47 -0.56 0.09 0.09 6128
0.00 0.00 1.83 -6.85 8.99 -0.91 0.20 0.08 6135
0.00 0.00 1.89 -8.09 7.45 -1.07 0.46 0.04 6142
0.00 0.00 1.59 -9.40 5.84 -1.03 0.74 -0.03 6150
0.00 0.00 0.85 -10.27 5.02 -0.79 1.04 -0.10 6157
0.00 0.00 -1.03 -12.21 4.79 -0.51 1.26 -0.20 6164
0.00 0.00 -9.62 -17.62 14.71 0.46 0.36 -0.22 6171
0.00 0.00 -5.48 -11.87 2.41 0.84 0.20 -0.29 6178
0.00 0.00 -4.97 -14.65 1.67 1.01 -0.28 -0.31 6185
0.00 0.00 -7.80 -19.37 6.56 1.22 -1.08 -0.39 6193
0.00 0.00 -8.43 -20.96 6.76 1.62 -1.71 -0.57 6200
-0.00 0.04 -5.76 -15.94 6.41 1.88 -2.19 -0.74 6207
0.00 0.04 0.41 1.08 16.07 2.41 -2.17 -0.74 6214
-0.01 0.09 0.06 -3.15 30.57 0.81 -2.44 -0.41 6221
-0.02 0.21 1.18 0.77 9.58 -0.35 -0.17 0.09 6228
-0.03 0.37 1.37 0.13 9.93 -0.31 0.06 -0.14 6236
-0.02 0.42 -0.32 -2.88 11.25 -0.12 -0.10 -0.15 6244
-0.02 0.53 0.31 -1.64 10.12 -0.06 -0.02 -0.08 6251
-0.02 0.55 -0.09 -1.13 10.24 -0.00 0.03 -0.04 6257
-0.01 0.56 -0.03 -0.60 9.73 -0.02 0.07 -0.04 6264
0.00 0.50 0.40 -0.77 9.67 -0.01 0.11 -0.04 6272
-0.01 0.54 0.36 -0.95 9.73 -0.01 0.10 -0.03 6279
0.00 0.60 0.34 -0.89 9.80 -0.02 0.10 -0.03 6286
0.01 0.58 0.41 -0.93 9.83 -0.03 0.09 -0.03 6293
0.00 0.63 0.45 -0.92 9.79 -0.03 0.08 -0.03 6300
-0.00 0.59 0.34 -0.80 9.79 -0.02 0.09 -0.04 6307
-0.00 0.61 0.40 -0.87 9.82 -0.02 0.09 -0.03 6315
-0.02 0.65 0.37 -0.83 9.83 -0.01 0.09 -0.04 6322
-0.03 0.65 0.37 -0.86 9.78 -0.01 0.09 -0.04 6329
-0.03 0.63 0.46 -0.78 9.78 -0.01 0.09 -0.05 6336
-0.02 0.67 0.46 -0.78 9.73 -0.01 0.07 -0.05 6343
-0.02 0.63 0.37 -0.81 9.73 -0.01 0.07 -0.05 6350
-0.03 0.62 0.39 -0.78 9.75 -0.00 0.07 -0.06 6358
-0.03 0.63 0.39 -0.79 9.76 -0.00 0.07 -0.05 6365
-0.02 0.62 0.34 -0.80 9.80 -0.00 0.07 -0.05 6372
0.00 0.61 0.37 -0.82 9.76 -0.00 0.08 -0.05 6379
-0.01 0.62 0.34 -0.81 9.76 -0.00 0.08 -0.05 6386
-0.02 0.58 0.37 -0.82 9.79 0.00 0.08 -0.04 6393
-0.03 0.56 0.39 -0.79 9.79 0.00 0.09 -0.05 6401
-0.01 0.55 0.38 -0.78 9.77 0.00 0.09 -0.04 6408
-0.03 0.55 0.40 -0.82 9.78 0.00 0.09 -0.05 6415
-0.02 0.55 0.39 -0.83 9.80 0.00 0.10 -0.05 6422
-0.02 0.53 0.44 -0.78 9.77 0.00 0.10 -0.05 6429
-0.03 0.52 0.42 -0.77 9.71 0.00 0.11 -0.05 6436
-0.03 0.49 0.46 -0.80 9.75 0.00 0.10 -0.05 6444
-0.02 0.47 0.45 -0.80 9.74 0.00 0.10 -0.05 6451
-0.03 0.47 0.48 -0.79 9.75 0.00 0.09 -0.05 6458
-0.02 0.44 0.40 -0.81 9.76 0.00 0.09 -0.05 6465
-0.02 0.42 0.43 -0.78 9.76 0.00 0.09 -0.05 6472
-0.02 0.40 0.55 -0.82 9.76 0.01 0.08 -0.05 6479
-0.03 0.41 0.46 -0.82 9.77 0.01 0.08 -0.05 6487
-0.01 0.40 0.51 -0.86 9.74 0.01 0.08 -0.04 6494
-0.01 0.40 0.46 -0.80 9.82 0.01 0.08 -0.04 6501
0.00 0.39 0.52 -0.82 9.73 0.01 0.07 -0.05 6508
-0.01 0.40 0.49 -0.83 9.75 0.01 0.07 -0.05 6515
-0.00 0.39 0.47 -0.83 9.80 0.01 0.07 -0.05 6522
-0.02 0.40 0.48 -0.86 9.78 0.01 0.06 -0.05 6530
0.00 0.37 0.46 -0.84 9.77 0.01 0.07 -0.05 6537
0.01 0.37 0.52 -0.89 9.79 0.01 0.07 -0.05 6544
0.01 0.36 0.50 -0.84 9.78 0.01 0.06 -0.05 6551
0.01 0.33 0.49 -0.79 9.79 0.01 0.06 -0.05 6558
0.02 0.32 0.50 -0.81 9.73 0.01 0.06 -0.05 6565
0.02 0.32 0.52 -0.84 9.78 0.01 0.05 -0.05 6573
0.02 0.30 0.53 -0.84 9.75 0.01 0.04 -0.05 6580
0.03 0.29 0.49 -0.83 9.75 0.01 0.03 -0.05 6587
0.05 0.26 0.51 -0.86 9.78 0.01 0.03 -0.05 6594
0.03 0.25 0.47 -0.84 9.75 0.02 0.03 -0.05 6601
0.02 0.21 0.46 -0.89 9.78 0.01 0.03 -0.05 6608
0.02 0.24 0.50 -0.82 9.75 0.01 0.03 -0.05 6616
0.04 0.24 0.47 -0.87 9.81 0.01 0.03 -0.05 6623
0.04 0.25 0.48 -0.87 9.75 0.01 0.00 -0.05 6630
0.03 0.23 0.48 -0.87 9.76 0.01 0.03 -0.05 6637
0.04 0.21 0.48 -0.86 9.77 0.00 0.04 -0.05 6644
0.02 0.21 0.47 -0.89 9.75 0.01 0.04 -0.05 6651
0.03 0.16 0.50 -0.86 9.78 0.01 0.04 -0.05 6659
0.03 0.17 0.50 -0.88 9.75 0.01 0.04 -0.05 6666
0.02 0.19 0.50 -0.88 9.77 0.01 0.04 -0.05 6673
0.03 0.18 0.49 -0.88 9.78 0.01 0.04 -0.05 6680
0.04 0.16 0.47 -0.85 9.71 0.01 0.04 -0.05 6687
0.02 0.17 0.52 -0.88 9.76 0.00 0.04 -0.05 6694
0.04 0.17 0.47 -0.86 9.76 -0.00 0.04 -0.05 6702
0.05 0.17 0.51 -0.84 9.75 -0.00 0.03 -0.05 6709
0.05 0.17 0.47 -0.85 9.75 -0.00 0.03 -0.05 6716
0.05 0.16 0.50 -0.84 9.80 -0.01 0.04 -0.05 6723
0.05 0.15 0.47 -0.86 9.75 -0.01 0.04 -0.05 6730
0.04 0.15 0.48 -0.88 9.75 -0.01 0.04 -0.05 6737
0.04 0.17 0.53 -0.90 9.80 -0.01 0.05 -0.05 6745
0.05 0.19 0.53 -0.87 9.78 -0.01 0.05 -0.05 6752
0.04 0.19 0.47 -0.90 9.77 -0.01 0.05 -0.05 6759
0.03 0.20 0.52 -0.87 9.75 -0.02 0.05 -0.05 6766
0.04 0.19 0.50 -0.82 9.72 -0.01 0.05 -0.05 6773
0.03 0.21 0.52 -0.81 9.78 -0.01 0.05 -0.05 6780
0.04 0.21 0.51 -0.89 9.78 -0.02 0.05 -0.06 6788
0.05 0.21 0.49 -0.84 9.74 -0.02 0.05 -0.05 6795
0.05 0.21 0.48 -0.85 9.80 -0.01 0.04 -0.06 6802
0.03 0.21 0.48 -0.85 9.76 -0.01 0.04 -0.06 6809
0.04 0.21 0.47 -0.85 9.76 -0.01 0.05 -0.06 6816
0.03 0.22 0.50 -0.86 9.76 -0.00 0.05 -0.05 6823
0.04 0.21 0.50 -0.83 9.80 0.00 0.05 -0.06 6831
0.04 0.20 0.50 -0.88 9.81 0.01 0.06 -0.06 6838
0.03 0.14 0.51 -0.86 9.80 0.01 0.05 -0.06 6845
0.04 0.11 0.50 -0.86 9.81 0.01 0.05 -0.06 6852
0.04 0.06 0.53 -0.83 9.79 0.03 0.05 -0.05 6859
0.05 0.01 0.50 -0.86 9.82 0.03 0.05 -0.06 6866
0.06 0.01 0.50 -0.89 9.86 0.04 0.05 -0.05 6874
0.07 -0.01 0.53 -0.86 9.83 0.06 0.06 -0.05 6881
0.07 -0.00 0.57 -0.86 9.82 0.08 0.07 -0.05 6888
0.07 -0.01 0.59 -0.82 9.83 0.11 0.08 -0.05 6895
0.06 -0.01 0.53 -0.94 10.02 0.14 0.09 -0.05 6902
0.07 -0.01 0.49 -0.89 10.21 0.21 0.12 -0.04 6909
0.08 -0.01 0.44 -0.93 10.53 0.33 0.14 -0.04 6917
0.06 -0.01 0.74 -0.98 11.15 0.54 0.20 -0.07 6924
0.05 -0.00 0.78 -0.96 12.50 1.00 0.29 -0.11 6931
0.04 -0.00 0.85 -1.31 15.25 1.65 0.34 -0.16 6938
0.03 -0.00 1.26 -1.24 16.86 2.17 0.31 -0.25 6945
0.05 -0.00 1.26 -1.08 14.99 2.54 0.30 -0.33 6952
0.07 -0.01 1.21 -1.30 13.77 2.66 0.17 -0.37 6960
0.05 -0.01 1.26 -1.26 13.37 2.76 0.12 -0.39 6967
0.02 -0.00 1.25 -1.62 13.51 2.87 0.09 -0.39 6974
0.01 -0.00 1.76 -1.71 13.44 2.95 0.11 -0.42 6981
0.00 0.00 1.65 -2.03 13.69 3.03 0.17 -0.45 6988
0.00 0.00 1.82 -2.31 14.04 3.09 0.25 -0.45 6995
0.03 -0.00 2.37 -2.42 14.97 3.11 0.37 -0.45 7003
0.01 -0.00 2.86 -2.09 15.36 3.08 0.57 -0.46 7010
0.00 -0.00 1.93 -0.99 14.83 2.99 0.82 -0.50 7017
0.00 0.00 1.19 0.51 14.11 2.79 0.84 -0.52 7024
0.00 0.00 0.01 2.34 13.27 2.52 0.68 -0.49 7031
-0.00 0.00 -0.32 4.03 12.71 2.24 0.46 -0.44 7038
0.00 0.00 -0.83 6.30 12.03 1.89 0.24 -0.41 7046
0.00 0.00 -0.82 6.56 9.78 1.59 0.10 -0.39 7053
0.00 0.00 -0.37 8.11 10.61 1.30 -0.10 -0.40 7060
0.00 0.00 -0.81 9.28 10.22 1.02 -0.23 -0.51 7067
0.00 0.00 -0.47 9.38 8.82 0.79 -0.35 -0.67 7074
0.00 0.00 -0.08 9.62 9.00 0.49 -0.42 -0.78 7081
0.00 0.00 -0.16 9.94 9.19 0.20 -0.43 -0.91 7089
0.00 0.00 0.01 9.52 8.52 -0.09 -0.48 -1.00 7096
0.00 0.00 0.15 8.67 7.84 -0.29 -0.56 -1.07 7103
0.00 0.00 0.57 8.01 7.30 -0.42 -0.60 -1.13 7110
0.00 0.00 1.04 7.43 7.33 -0.55 -0.63 -1.17 7117
0.00 0.00 1.52 6.83 7.70 -0.65 -0.62 -1.19 7124
0.00 0.00 1.86 6.38 8.07 -0.79 -0.60 -1.20 7132
0.00 0.00 2.34 5.82 8.51 -0.94 -0.54 -1.18 7139
0.00 0.00 2.72 5.20 8.79 -1.07 -0.43 -1.13 7146
0.00 0.00 2.89 4.61 9.22 -1.23 -0.38 -1.06 7153
0.00 0.00 3.04 3.79 9.73 -1.40 -0.28 -0.95 7160
0.00 0.00 3.17 3.04 9.82 -1.50 -0.21 -0.83 7168
0.00 0.00 3.16 2.21 9.82 -1.61 -0.14 -0.68 7175
0.00 0.00 3.23 1.41 9.81 -1.69 -0.09 -0.51 7182
0.00 0.00 3.22 0.70 9.82 -1.74 -0.05 -0.36 7189
0.00 0.00 3.37 -0.02 9.63 -1.75 0.01 -0.19 7196
0.00 0.00 3.54 -1.20 9.79 -1.73 0.05 -0.03 7203
0.00 0.00 3.59 -1.05 9.88 -1.68 0.13 0.09 7211
0.00 0.00 3.52 -1.34 10.10 -1.63 0.21 0.22 7218
0.00 0.00 3.43 -1.59 10.51 -1.59 0.27 0.32 7225
0.00 0.00 3.18 -1.75 10.88 -1.56 0.33 0.43 7232
0.00 0.00 2.85 -2.03 11.04 -1.55 0.36 0.53 7239
0.00 0.00 2.51 -2.23 11.06 -1.54 0.38 0.60 7246
0.00 0.00 2.17 -2.63 11.31 -1.51 0.36 0.66 7254
0.00 0.00 2.15 -2.93 11.63 -1.48 0.35 0.70 7261
0.00 0.00 2.26 -3.10 11.67 -1.45 0.38 0.74 7268
0.00 0.00 2.34 -3.34 11.46 -1.44 0.42 0.76 7275
0.00 0.00 2.37 -3.66 11.28 -1.41 0.49 0.75 7282
-0.00 0.00 2.34 -3.98 11.10 -1.37 0.54 0.75 7289
0.00 0.00 2.24 -4.89 11.09 -1.29 0.55 0.70 7297
0.00 0.00 2.07 -4.45 11.16 -1.21 0.52 0.72 7304
0.00 0.00 1.83 -4.29 11.32 -1.15 0.41 0.70 7311
0.00 0.00 1.73 -4.28 11.26 -1.11 0.34 0.69 7318
0.00 0.00 1.80 -4.23 11.10 -1.09 0.23 0.67 7325
0.00 0.00 1.95 -4.22 11.12 -1.06 0.17 0.65 7332
0.00 -0.00 2.31 -4.27 11.30 -1.04 0.16 0.64 7340
0.00 0.00 2.97 -4.14 11.33 -1.04 0.27 0.63 7347
0.00 0.00 3.52 -4.13 11.17 -1.05 0.45 0.63 7354
0.00 0.00 3.77 -4.34 11.08 -1.08 0.71 0.64 7361
0.00 0.00 3.29 -4.63 11.04 -1.10 0.89 0.66 7368
0.00 0.00 2.33 -4.87 10.73 -1.09 0.99 0.69 7375
0.00 0.00 1.89 -5.24 10.11 -1.06 0.97 0.72 7383
0.00 0.00 1.82 -5.52 9.82 -0.98 0.89 0.76 7390
0.00 0.00 1.94 -5.75 9.53 -0.87 0.82 0.79 7397
0.00 0.00 2.02 -5.97 9.29 -0.76 0.81 0.81 7404
0.00 0.00 1.96 -5.94 9.68 -0.62 0.81 0.82 7411
0.00 0.00 1.52 -5.76 10.46 -0.53 0.79 0.84 7418
0.00 0.00 0.99 -5.59 10.52 -0.49 0.74 0.88 7426
0.00 0.00 0.30 -5.53 10.51 -0.50 0.58 0.92 7433
0.00 0.00 -0.04 -5.62 10.30 -0.53 0.37 0.96 7440
0.00 0.00 0.00 -5.80 9.93 -0.55 0.21 0.98 7447
0.00 0.00 0.12 -6.05 9.52 -0.54 0.10 1.00 7454
0.00 0.00 0.21 -6.24 9.24 -0.52 0.10 0.99 7461
0.00 0.00 0.35 -6.39 9.01 -0.50 0.19 0.97 7469
0.00 0.00 0.36 -6.76 8.61 -0.49 0.35 0.92 7476
0.00 0.00 0.18 -7.09 8.41 -0.46 0.50 0.86 7483
0.00 0.00 -0.00 -7.73 8.24 -0.41 0.67 0.74 7490
0.00 0.00 -0.44 -8.27 7.98 -0.36 0.77 0.59 7497
0.00 0.00 -1.00 -8.69 7.61 -0.28 0.84 0.43 7504
0.00 0.00 -1.65 -9.14 6.92 -0.22 0.86 0.20 7512
0.00 0.00 -2.60 -10.85 7.22 -0.12 0.83 -0.06 7519
0.00 0.00 -5.80 -13.21 10.93 0.24 0.47 -0.32 7526
0.00 0.00 -4.31 -11.72 6.50 0.43 0.32 -0.59 7533
0.00 0.00 -4.87 -13.57 5.52 0.53 0.13 -0.81 7540
0.00 0.00 -6.21 -16.41 5.68 0.66 -0.30 -1.12 7547
0.00 0.00 -8.25 -20.00 4.89 0.83 -0.79 -1.49 7555
0.00 0.00 -8.38 -22.40 2.66 1.10 -1.52 -1.78 7562
-0.00 0.03 -6.04 -23.96 2.15 1.34 -2.63 -2.21 7569
-0.01 0.05 11.10 -1.88 19.53 1.41 -4.28 -2.25 7577
-0.01 0.17 4.34 -10.87 47.92 0.85 -3.83 -0.82 7584
-0.02 0.33 2.03 0.44 11.50 -0.23 -0.46 0.12 7590
-0.03 0.51 -0.58 -2.44 12.84 -0.17 -0.26 -0.02 7599
-0.03 0.57 -1.45 -1.69 11.29 -0.14 -0.19 -0.08 7606
-0.04 0.63 -0.23 -0.91 10.21 -0.07 -0.08 -0.11 7613
-0.03 0.64 0.64 -1.25 9.99 -0.03 0.03 -0.05 7619
-0.03 0.67 0.02 -0.55 9.87 -0.01 0.08 -0.03 7626
-0.02 0.68 0.24 -0.57 9.76 -0.00 0.10 -0.03 7633
-0.03 0.66 0.61 -0.86 9.80 -0.01 0.10 -0.03 7641
-0.02 0.66 0.56 -0.78 9.81 -0.02 0.09 -0.03 7648
-0.02 0.71 0.40 -0.71 9.78 -0.02 0.08 -0.03 7655
-0.01 0.72 0.47 -0.79 9.80 -0.02 0.08 -0.04 7662
-0.00 0.71 0.45 -0.74 9.82 -0.01 0.08 -0.03 7669
-0.00 0.72 0.39 -0.73 9.77 -0.01 0.08 -0.04 7676
-0.01 0.73 0.45 -0.76 9.80 -0.02 0.09 -0.04 7684
-0.02 0.67 0.47 -0.70 9.79 -0.01 0.08 -0.04 7691
-0.03 0.65 0.47 -0.60 9.78 -0.01 0.07 -0.04 7698
-0.02 0.65 0.48 -0.63 9.75 -0.01 0.07 -0.05 7705
0.01 0.67 0.47 -0.62 9.72 -0.01 0.06 -0.05 7712
0.00 0.66 0.40 -0.65 9.76 -0.00 0.05 -0.05 7719
-0.01 0.64 0.45 -0.64 9.76 -0.00 0.05 -0.05 7727
-0.02 0.63 0.47 -0.68 9.77 -0.00 0.05 -0.05 7734
-0.02 0.64 0.44 -0.65 9.79 -0.00 0.05 -0.05 7741
-0.01 0.65 0.44 -0.68 9.76 -0.00 0.04 -0.05 7748
0.00 0.63 0.43 -0.64 9.79 -0.00 0.04 -0.05 7755
0.02 0.62 0.43 -0.69 9.20 -0.00 0.04 -0.05 7762
0.02 0.60 0.45 -0.65 9.74 -0.00 0.04 -0.05 7770
0.01 0.58 0.45 -0.66 9.80 -0.00 0.04 -0.05 7777
0.03 0.59 0.43 -0.70 9.78 -0.00 0.03 -0.05 7784
0.03 0.59 0.46 -0.70 9.74 -0.00 0.03 -0.06 7791
0.04 0.57 0.42 -0.67 9.77 -0.00 0.04 -0.05 7798
0.03 0.55 0.46 -0.68 9.75 -0.00 0.04 -0.06 7805
0.03 0.55 0.43 -0.68 9.75 -0.01 0.04 -0.05 7813
0.02 0.55 0.43 -0.69 9.78 -0.00 0.04 -0.05 7820
0.03 0.55 0.42 -0.69 9.76 -0.00 0.04 -0.05 7827
0.04 0.56 0.41 -0.68 9.78 -0.00 0.04 -0.06 7834
0.04 0.56 0.46 -0.69 9.78 -0.00 0.04 -0.05 7841
0.02 0.56 0.44 -0.67 9.82 0.00 0.04 -0.05 7848
0.02 0.53 0.45 -0.69 9.21 -0.00 0.04 -0.06 7856
0.00 0.54 0.43 -0.69 9.78 0.03 0.04 -0.05 7863
0.00 0.54 0.45 -0.69 9.79 0.00 0.04 -0.06 7870
0.01 0.54 0.49 -0.71 9.81 0.00 0.04 -0.05 7877
0.02 0.52 0.42 -0.68 9.81 -0.00 0.03 -0.05 7884
0.01 0.51 0.45 -0.68 9.79 -0.00 0.03 -0.05 7891
0.01 0.51 0.45 -0.67 9.79 0.00 0.02 -0.05 7899
0.02 0.51 0.44 -0.69 9.76 -0.00 0.03 -0.05 7906
0.02 0.52 0.44 -0.68 9.79 -0.00 0.03 -0.05 7913
0.03 0.50 0.45 -0.70 9.79 -0.00 0.03 -0.05 7920
0.03 0.50 0.46 -0.69 9.73 -0.00 0.03 -0.06 7927
0.03 0.50 0.47 -0.67 9.76 0.01 0.03 -0.05 7934
0.01 0.48 0.46 -0.69 9.77 0.01 0.03 -0.06 7942
0.02 0.47 0.44 -0.73 9.79 0.01 0.03 -0.05 7949
0.02 0.47 0.43 -0.70 9.79 0.00 0.03 -0.06 7956
0.03 0.42 0.45 -0.70 9.76 0.00 0.03 -0.06 7963
0.02 0.44 0.43 -0.69 9.80 0.01 0.04 -0.06 7970
0.02 0.41 0.44 -0.67 9.80 0.01 0.04 -0.06 7977
0.02 0.39 0.44 -0.71 9.79 0.01 0.05 -0.06 7985
0.02 0.38 0.48 -0.73 9.77 0.01 0.04 -0.05 7992
0.02 0.38 0.45 -0.73 9.75 0.00 0.05 -0.06 7999
0.04 0.41 0.45 -0.70 9.76 0.00 0.04 -0.06 8006
0.03 0.39 0.46 -0.71 9.75 0.00 0.05 -0.06 8013
0.04 0.35 0.42 -0.70 9.79 0.01 0.05 -0.06 8020
0.03 0.34 0.44 -0.71 9.79 0.00 0.05 -0.06 8028
0.04 0.35 0.47 -0.74 9.81 0.00 0.05 -0.06 8035
0.08 0.35 0.45 -0.70 9.79 0.00 0.05 -0.06 8042
0.07 0.35 0.47 -0.70 9.77 0.00 0.05 -0.06 8049
0.06 0.34 0.44 -0.75 9.81 0.00 0.05 -0.06 8056
0.05 0.33 0.42 -0.74 9.78 -0.00 0.06 -0.06 8064
0.04 0.32 0.44 -0.75 9.74 -0.00 0.06 -0.06 8071
0.05 0.30 0.45 -0.70 9.76 -0.00 0.06 -0.06 8078
0.06 0.31 0.48 -0.69 9.74 -0.00 0.07 -0.06 8085
0.06 0.30 0.47 -0.70 9.70 -0.01 0.07 -0.07 8092
0.05 0.29 0.49 -0.72 9.73 -0.00 0.07 -0.07 8099
0.05 0.31 0.45 -0.70 9.77 -0.01 0.07 -0.06 8107
0.05 0.31 0.51 -0.69 9.79 0.00 0.06 -0.07 8114
0.06 0.31 0.50 -0.73 9.75 -0.00 0.06 -0.06 8121
0.07 0.29 0.52 -0.73 9.82 0.00 0.06 -0.07 8128
0.07 0.32 0.46 -0.71 9.80 0.01 0.06 -0.07 8135
0.07 0.30 0.50 -0.70 9.79 0.01 0.06 -0.07 8142
0.06 0.26 0.50 -0.69 9.80 0.01 0.06 -0.07 8150
0.07 0.20 0.52 -0.72 9.79 0.01 0.06 -0.07 8157
0.07 0.21 0.49 -0.73 9.83 0.01 0.06 -0.07 8164
0.08 0.20 0.49 -0.73 9.79 0.02 0.06 -0.08 8171
0.08 0.19 0.53 -0.75 9.81 0.01 0.07 -0.07 8178
0.07 0.19 0.51 -0.72 9.80 0.02 0.07 -0.07 8185
0.08 0.15 0.52 -0.75 9.79 0.02 0.07 -0.07 8193
0.10 0.06 0.51 -0.75 9.81 0.03 0.07 -0.07 8200
0.08 0.04 0.53 -0.73 9.82 0.02 0.07 -0.07 8207
0.09 0.03 0.56 -0.71 9.81 0.07 0.08 -0.08 8214
0.08 0.01 0.56 -0.76 9.83 0.03 0.08 -0.08 8221
0.08 -0.01 0.52 -0.71 9.83 0.05 0.09 -0.08 8228
0.06 0.01 0.52 -0.73 9.92 0.06 0.09 -0.07 8236
0.07 -0.00 0.62 -0.76 9.89 0.09 0.11 -0.07 8243
0.07 -0.01 0.62 -0.74 9.91 0.12 0.13 -0.08 8250
0.08 -0.01 0.63 -0.75 10.00 0.16 0.16 -0.08 8257
0.07 -0.01 0.65 -0.82 10.21 0.23 0.22 -0.09 8264
0.09 -0.01 0.59 -0.79 10.45 0.32 0.25 -0.10 8271
0.08 -0.01 0.88 -0.66 10.76 0.52 0.27 -0.12 8279
0.08 -0.01 0.81 -0.78 11.73 0.90 0.32 -0.16 8286
0.09 -0.01 1.14 -1.08 13.82 1.38 0.33 -0.19 8293
0.08 -0.01 0.80 -1.12 15.00 1.94 0.28 -0.25 8300
0.06 -0.01 0.69 -1.18 15.29 2.25 0.22 -0.28 8307
0.06 -0.01 0.98 -1.28 13.60 2.51 0.21 -0.29 8314
0.06 -0.01 1.05 -1.21 12.74 2.58 0.16 -0.30 8322
0.04 0.00 1.05 -1.43 12.32 2.63 0.07 -0.30 8329
0.07 -0.01 1.23 -1.63 13.16 2.72 0.10 -0.31 8336
0.03 -0.00 1.67 -1.92 13.30 2.79 0.16 -0.33 8343
0.01 -0.00 1.94 -2.22 13.75 2.87 0.22 -0.36 8350
0.01 -0.00 2.13 -2.59 14.20 2.96 0.30 -0.39 8357
0.01 -0.00 2.91 -2.93 14.75 3.00 0.44 -0.42 8365
0.00 -0.00 2.49 -2.94 15.64 3.02 0.60 -0.45 8372
0.01 -0.00 2.21 -2.81 16.18 3.01 0.76 -0.49 8379
0.00 0.00 1.75 -2.26 15.78 2.99 0.79 -0.52 8386
0.00 0.00 0.90 -1.64 15.16 2.91 0.71 -0.53 8393
0.00 0.00 0.41 -0.78 14.50 2.79 0.48 -0.51 8400
0.00 0.00 0.09 0.93 14.10 2.64 0.24 -0.49 8408
0.00 0.00 -0.29 2.11 12.56 2.44 -0.02 -0.44 8415
0.00 0.00 0.05 5.00 12.01 2.26 -0.21 -0.38 8422
0.00 0.00 0.25 7.51 10.84 2.00 -0.42 -0.34 8429
0.00 0.00 0.63 8.95 9.82 1.77 -0.60 -0.32 8436
0.00 0.00 1.07 10.42 10.08 1.48 -0.68 -0.34 8443
0.00 0.00 1.38 10.42 9.22 1.14 -0.65 -0.40 8451
0.00 0.00 1.41 11.06 9.40 0.83 -0.59 -0.47 8458
0.00 0.00 1.22 11.16 8.86 0.50 -0.46 -0.54 8465
0.00 0.00 0.91 10.80 8.16 0.28 -0.37 -0.63 8472
0.00 0.00 0.53 10.50 7.75 0.05 -0.32 -0.70 8479
0.00 0.00 0.38 10.22 7.69 -0.19 -0.32 -0.76 8486
0.00 0.00 0.38 9.84 8.00 -0.41 -0.34 -0.81 8494
0.00 0.00 0.54 9.48 8.30 -0.70 -0.38 -0.83 8501
0.00 -0.00 0.87 8.89 8.45 -1.03 -0.40 -0.83 8508
0.00 0.00 1.13 8.13 8.43 -1.27 -0.39 -0.83 8515
0.00 0.00 1.42 7.00 8.52 -1.52 -0.36 -0.82 8522
0.00 0.00 1.65 5.78 8.57 -1.68 -0.33 -0.81 8529
-0.00 0.00 1.88 4.77 8.62 -1.82 -0.29 -0.80 8537
0.00 -0.00 2.11 3.65 8.60 -1.92 -0.23 -0.80 8544
0.00 0.00 2.29 2.79 8.79 -1.99 -0.18 -0.78 8551
0.00 0.00 2.57 1.78 9.07 -2.03 -0.11 -0.76 8558
0.00 0.00 2.76 0.88 9.36 -2.04 -0.04 -0.72 8565
0.00 0.00 2.93 0.22 9.72 -2.03 0.04 -0.69 8572
0.00 0.00 3.25 -0.45 10.15 -1.99 0.16 -0.64 8580
0.00 0.00 3.52 -0.98 10.83 -1.96 0.27 -0.59 8587
0.00 0.00 3.75 -1.29 11.71 -1.94 0.42 -0.54 8594
0.00 0.00 3.84 -1.61 12.78 -1.96 0.56 -0.48 8601
0.00 0.00 3.68 -1.89 13.14 -2.04 0.65 -0.38 8608
0.00 0.00 3.44 -2.57 13.01 -2.12 0.71 -0.26 8615
0.00 0.00 3.21 -3.33 12.83 -2.15 0.72 -0.13 8623
0.00 0.00 3.02 -4.01 12.66 -2.13 0.71 -0.01 8630
0.00 0.00 2.95 -4.50 12.41 -2.06 0.70 0.13 8637
0.00 0.00 2.86 -4.84 12.01 -1.96 0.72 0.26 8644
0.00 0.00 2.66 -4.93 11.88 -1.83 0.75 0.32 8651
0.00 0.00 2.45 -4.93 12.03 -1.74 0.80 0.40 8658
0.00 0.00 2.15 -4.81 12.11 -1.64 0.77 0.45 8666
0.00 0.00 1.72 -4.72 11.98 -1.54 0.75 0.49 8673
0.00 0.00 1.41 -4.71 11.64 -1.51 0.72 0.53 8680
0.00 0.00 1.15 -4.76 11.60 -1.43 0.66 0.55 8687
0.00 0.00 0.99 -4.83 11.44 -1.37 0.61 0.56 8694
0.00 0.00 0.82 -4.84 11.38 -1.30 0.55 0.57 8701
0.01 -0.00 0.60 -4.88 11.19 -1.23 0.46 0.56 8709
0.01 -0.00 0.52 -4.86 11.24 -1.18 0.37 0.54 8716
0.00 0.00 0.58 -4.76 11.61 -1.13 0.25 0.51 8723
0.00 0.00 0.88 -4.81 12.10 -1.14 0.16 0.48 8730
0.00 0.00 1.20 -4.68 11.98 -1.19 0.13 0.44 8737
0.00 0.00 1.64 -4.87 11.73 -1.27 0.19 0.40 8744
0.00 -0.00 1.89 -5.29 11.05 -1.30 0.32 0.35 8752
0.00 0.00 1.81 -5.74 10.32 -1.27 0.43 0.30 8759
0.00 0.00 1.42 -6.35 9.77 -1.15 0.55 0.25 8766
0.00 0.00 1.13 -7.31 9.73 -1.03 0.62 0.23 8773
0.00 0.00 0.93 -7.05 9.69 -0.89 0.67 0.21 8780
0.00 0.00 0.93 -7.40 9.54 -0.78 0.73 0.21 8787
0.00 0.00 1.02 -7.75 9.48 -0.68 0.73 0.23 8795
0.00 0.00 1.16 -8.23 9.37 -0.58 0.79 0.27 8802
0.00 0.00 1.33 -8.72 9.06 -0.51 0.87 0.32 8809
0.00 0.00 0.89 -9.16 8.81 -0.43 0.96 0.38 8816
0.00 0.00 0.15 -9.75 9.00 -0.38 1.00 0.47 8823
0.00 0.00 -0.58 -10.12 9.08 -0.36 0.97 0.55 8830
0.00 0.00 -2.15 -12.24 9.61 -0.36 0.83 0.65 8838
0.00 0.00 -3.34 -12.87 9.85 -0.24 0.54 0.73 8845
0.00 0.00 -4.02 -14.45 6.04 -0.17 0.35 0.79 8852
0.00 0.00 -3.54 -14.98 6.00 -0.03 0.05 0.84 8859
0.00 0.00 -4.33 -17.98 5.93 0.14 -0.21 0.77 8866
0.00 0.00 -4.12 -18.76 4.29 0.45 -0.51 0.70 8873
0.00 0.00 -4.19 -21.17 3.86 0.73 -0.80 0.56 8881
0.00 0.00 -7.27 -23.24 3.97 1.13 -1.13 0.41 8888
0.00 0.00 -8.34 -26.28 3.31 1.49 -1.67 0.22 8895
-0.00 0.04 -9.81 -25.05 5.67 1.80 -2.45 0.01 8902
-0.01 0.06 -4.32 4.55 17.71 2.40 -2.78 -0.17 8909
-0.01 0.22 -1.77 -2.66 29.06 0.87 -3.12 -0.29 8918
-0.03 0.38 1.09 -1.04 11.32 -0.11 -0.61 0.06 8925
-0.03 0.47 -0.04 -0.97 10.36 -0.23 -0.09 -0.13 8932
-0.02 0.49 -0.39 -1.75 10.67 -0.09 -0.14 -0.16 8939
-0.02 0.53 0.40 -0.97 9.96 0.00 -0.05 -0.08 8945
0.00 0.52 0.23 -0.55 9.85 0.01 0.02 -0.03 8952
-0.01 0.52 0.02 -1.22 9.90 0.00 0.03 -0.05 8960
-0.00 0.51 0.37 -0.87 9.80 -0.01 0.04 -0.05 8967
-0.01 0.50 0.42 -1.17 9.81 -0.03 0.04 -0.04 8974
-0.00 0.51 0.18 -0.86 9.87 -0.04 0.04 -0.04 8981
0.01 0.56 0.26 -0.75 9.88 -0.03 0.06 -0.04 8988
0.01 0.57 0.38 -0.83 9.81 -0.03 0.06 -0.04 8995
0.02 0.58 0.39 -0.74 9.79 -0.02 0.06 -0.05 9003
0.02 0.58 0.37 -0.75 9.82 -0.01 0.06 -0.05 9010
0.01 0.58 0.40 -0.77 9.83 -0.00 0.06 -0.05 9017
-0.00 0.57 0.43 -0.70 9.78 -0.00 0.05 -0.06 9024
0.00 0.57 0.39 -0.75 9.81 -0.00 0.05 -0.06 9031
0.01 0.57 0.39 -0.74 9.80 0.00 0.04 -0.07 9038
0.03 0.55 0.34 -0.76 9.83 0.01 0.04 -0.06 9046
0.02 0.53 0.34 -0.76 9.83 0.00 0.04 -0.06 9053
0.02 0.52 0.32 -0.72 9.87 0.00 0.04 -0.06 9060
0.01 0.51 0.31 -0.71 9.78 0.00 0.04 -0.06 9067
0.03 0.48 0.30 -0.71 9.80 0.00 0.04 -0.06 9074
0.02 0.48 0.31 -0.73 9.77 0.01 0.05 -0.06 9081
0.03 0.46 0.34 -0.76 9.78 0.00 0.05 -0.06 9089
0.01 0.46 0.30 -0.75 9.81 0.00 0.05 -0.05 9096
0.00 0.44 0.34 -0.72 9.81 -0.00 0.05 -0.06 9103
-0.00 0.44 0.29 -0.72 9.76 0.00 0.06 -0.05 9110
0.01 0.43 0.38 -0.72 9.77 -0.00 0.06 -0.06 9117
0.02 0.39 0.35 -0.74 9.77 0.00 0.06 -0.06 9124
0.01 0.39 0.34 -0.73 9.78 0.00 0.06 -0.06 9132
0.00 0.39 0.38 -0.73 9.77 0.00 0.05 -0.06 9139
0.01 0.37 0.36 -0.71 9.81 -0.00 0.06 -0.06 9146
-0.00 0.37 0.33 -0.74 9.79 0.00 0.06 -0.06 9153
-0.00 0.38 0.29 -0.72 9.81 0.00 0.05 -0.06 9160
0.01 0.37 0.34 -0.71 9.78 -0.00 0.06 -0.06 9167
-0.00 0.35 0.32 -0.72 9.79 -0.00 0.06 -0.06 9175
0.01 0.36 0.36 -0.72 9.80 -0.00 0.05 -0.05 9182
0.00 0.35 0.40 -0.71 9.79 -0.00 0.05 -0.05 9189
-0.00 0.35 0.37 -0.74 9.79 -0.00 0.05 -0.05 9196
0.00 0.35 0.36 -0.73 9.77 0.00 0.05 -0.05 9203
0.02 0.34 0.36 -0.71 9.78 -0.00 0.05 -0.05 9210
0.01 0.34 0.36 -0.73 9.75 -0.00 0.04 -0.05 9218
-0.00 0.35 0.37 -0.75 9.79 -0.01 0.04 -0.05 9225
-0.00 0.37 0.38 -0.72 9.81 -0.01 0.04 -0.06 9232
-0.00 0.39 0.37 -0.74 9.80 -0.01 0.04 -0.05 9239
-0.00 0.40 0.37 -0.74 9.78 -0.01 0.04 -0.05 9246
0.01 0.38 0.34 -0.69 9.80 -0.01 0.03 -0.05 9253
0.00 0.39 0.37 -0.75 9.78 -0.01 0.04 -0.05 9261
-0.00 0.37 0.34 -0.71 9.79 -0.01 0.04 -0.05 9268
-0.01 0.39 0.33 -0.74 9.77 -0.01 0.03 -0.05 9275
-0.00 0.39 0.35 -0.72 9.77 -0.01 0.03 -0.05 9282
-0.00 0.40 0.35 -0.69 9.79 -0.01 0.03 -0.05 9289
0.01 0.39 0.37 -0.71 9.82 -0.01 0.03 -0.05 9296
-0.00 0.40 0.36 -0.73 9.75 -0.01 0.03 -0.05 9304
0.00 0.39 0.38 -0.73 9.83 -0.01 0.03 -0.05 9311
-0.02 0.40 0.35 -0.73 9.79 -0.01 0.04 -0.05 9318
-0.00 0.41 0.34 -0.69 9.76 -0.01 0.04 -0.05 9325
0.01 0.41 0.38 -0.71 9.76 -0.01 0.04 -0.05 9332
0.01 0.40 0.38 -0.71 9.76 -0.00 0.04 -0.05 9339
-0.00 0.39 0.33 -0.76 9.72 -0.01 0.04 -0.05 9347
-0.00 0.39 0.35 -0.72 9.76 -0.00 0.05 -0.06 9354
-0.00 0.39 0.34 -0.75 9.73 0.00 0.05 -0.06 9361
0.00 0.40 0.34 -0.72 9.79 -0.00 0.05 -0.06 9368
0.01 0.40 0.33 -0.73 9.79 -0.00 0.05 -0.05 9375
0.01 0.38 0.36 -0.75 9.72 -0.00 0.05 -0.06 9382
0.01 0.34 0.39 -0.73 9.73 0.00 0.05 -0.05 9390
0.01 0.33 0.36 -0.72 9.77 -0.00 0.05 -0.06 9397
-0.00 0.34 0.38 -0.71 9.76 -0.01 0.05 -0.05 9404
0.01 0.35 0.36 -0.73 9.78 -0.00 0.05 -0.06 9411
0.02 0.35 0.37 -0.73 9.79 -0.00 0.04 -0.06 9418
0.01 0.34 0.35 -0.72 9.77 -0.00 0.04 -0.06 9425
0.01 0.34 0.34 -0.72 9.80 -0.00 0.04 -0.05 9433
0.00 0.33 0.38 -0.69 9.75 -0.00 0.04 -0.05 9440
-0.00 0.31 0.35 -0.72 9.78 -0.00 0.05 -0.06 9447
0.02 0.30 0.38 -0.70 9.78 0.00 0.05 -0.06 9454
0.03 0.28 0.38 -0.72 9.20 0.01 0.05 -0.06 9461
0.02 0.23 0.36 -0.70 9.82 0.01 0.05 -0.06 9468
0.03 0.26 0.36 -0.72 9.83 0.01 0.05 -0.06 9476
0.01 0.27 0.36 -0.74 9.82 0.01 0.05 -0.06 9483
0.02 0.25 0.36 -0.70 9.80 0.02 0.05 -0.06 9490
0.03 0.22 0.38 -0.73 9.80 0.01 0.06 -0.06 9497
0.04 0.15 0.37 -0.78 9.81 0.02 0.06 -0.06 9504
0.03 0.19 0.42 -0.76 9.81 0.02 0.06 -0.06 9511
0.04 0.07 0.41 -0.75 9.80 0.03 0.06 -0.07 9519
0.03 0.04 0.41 -0.76 9.80 0.03 0.07 -0.07 9526
0.04 0.03 0.41 -0.75 9.83 0.04 0.07 -0.06 9533
0.05 0.01 0.44 -0.71 9.90 0.06 0.08 -0.06 9540
0.05 -0.01 0.48 -0.69 9.93 0.08 0.09 -0.06 9547
0.05 -0.00 0.52 -0.76 9.95 0.12 0.11 -0.06 9554
0.05 -0.01 0.41 -0.77 10.10 0.16 0.14 -0.07 9562
0.05 -0.00 0.44 -0.71 10.49 0.25 0.18 -0.07 9569
0.06 -0.01 0.71 -0.68 10.88 0.42 0.24 -0.08 9576
0.08 -0.01 1.81 -0.86 12.69 0.74 0.33 -0.15 9583
0.08 -0.01 1.79 -1.16 14.55 1.50 0.33 -0.25 9590
0.09 -0.01 1.26 -1.20 16.48 2.14 0.13 -0.37 9597
0.08 -0.01 1.05 -1.14 15.38 2.51 -0.07 -0.46 9605
0.10 -0.01 1.06 -1.02 14.03 2.78 -0.16 -0.46 9612
0.08 -0.00 1.15 -1.50 13.56 2.88 -0.23 -0.48 9620
0.07 -0.01 1.62 -1.48 14.53 2.98 -0.33 -0.50 9626
0.04 -0.00 2.00 -1.90 14.10 3.11 -0.32 -0.55 9633
0.05 -0.00 1.99 -2.25 13.62 3.22 -0.23 -0.60 9640
0.06 -0.01 2.67 -2.51 14.20 3.30 -0.05 -0.65 9648
0.01 -0.00 2.77 -2.71 15.61 3.31 0.19 -0.69 9655
0.01 -0.00 2.61 -2.75 17.18 3.30 0.33 -0.72 9662
0.01 -0.00 1.95 -3.04 16.90 3.25 0.30 -0.77 9669
0.00 0.00 1.11 -1.83 16.01 3.17 0.18 -0.81 9676
0.00 -0.00 0.24 -0.68 15.25 3.01 -0.08 -0.79 9683
0.00 0.00 0.02 -0.47 14.38 2.85 -0.37 -0.74 9691
0.00 0.00 0.39 0.92 12.68 2.68 -0.61 -0.70 9698
0.00 -0.00 1.00 2.71 10.77 2.52 -0.67 -0.64 9705
0.00 -0.00 1.65 6.47 9.90 2.31 -0.56 -0.58 9712
0.00 0.00 2.05 7.29 9.09 1.96 -0.43 -0.54 9719
0.00 0.00 1.43 7.19 8.79 1.63 -0.31 -0.47 9726
0.00 0.00 2.23 10.17 10.09 1.38 -0.25 -0.42 9734
0.00 0.00 1.42 8.35 8.27 1.03 -0.20 -0.35 9741
0.00 0.00 1.37 9.00 9.32 0.72 -0.15 -0.32 9748
0.00 0.00 1.00 8.82 8.72 0.41 -0.15 -0.31 9755
0.00 0.00 0.71 8.29 7.89 0.17 -0.17 -0.32 9762
0.00 0.00 0.62 7.97 7.49 -0.01 -0.18 -0.34 9769
0.00 0.00 0.56 7.57 7.32 -0.23 -0.19 -0.38 9777
0.00 0.00 0.61 7.00 7.15 -0.40 -0.18 -0.43 9784
0.00 -0.00 0.64 6.49 7.29 -0.59 -0.16 -0.48 9791
0.00 0.00 0.77 5.83 7.45 -0.75 -0.14 -0.55 9798
0.00 0.00 0.86 5.14 7.53 -0.89 -0.11 -0.62 9805
0.00 0.00 0.96 4.46 7.48 -1.03 -0.09 -0.67 9812
0.00 0.00 1.13 3.63 7.55 -1.14 -0.08 -0.71 9820
-0.00 0.00 1.29 2.98 7.82 -1.25 -0.08 -0.72 9827
0.01 -0.00 1.56 2.22 8.07 -1.33 -0.05 -0.71 9834
0.00 0.00 2.44 1.75 8.51 -1.40 -0.03 -0.65 9841
0.00 0.00 2.13 1.54 9.02 -1.48 0.05 -0.58 9848
0.00 0.00 2.57 1.34 9.63 -1.60 0.16 -0.47 9856
0.00 0.00 2.68 0.62 10.13 -1.68 0.28 -0.36 9863
0.00 0.00 2.65 0.74 10.50 -1.82 0.41 -0.24 9870
0.00 -0.00 2.49 -0.01 10.64 -1.93 0.48 -0.11 9877
0.00 0.00 2.39 -0.84 10.75 -2.01 0.50 -0.03 9884
0.00 0.00 2.34 -1.75 10.85 -2.05 0.50 0.04 9891
0.00 0.00 2.37 -3.06 11.01 -2.04 0.49 0.11 9899
0.00 0.00 2.53 -3.05 11.31 -2.02 0.49 0.15 9906
0.00 0.00 2.70 -3.38 11.58 -1.99 0.50 0.19 9913
0.00 0.00 2.77 -3.57 11.78 -1.96 0.53 0.23 9920
0.00 0.00 2.73 -3.72 11.96 -1.93 0.56 0.28 9927
0.00 0.00 2.58 -3.99 11.98 -1.91 0.58 0.34 9934
0.00 0.00 2.46 -4.34 11.72 -1.86 0.59 0.39 9942
0.00 0.00 2.39 -4.76 11.51 -1.80 0.60 0.45 9949
0.00 0.00 2.28 -4.95 11.34 -1.71 0.60 0.49 9956
0.00 0.00 2.07 -5.08 11.14 -1.59 0.61 0.54 9963
0.00 0.00 1.90 -5.07 10.99 -1.48 0.61 0.57 9970
0.00 -0.00 1.63 -4.92 11.09 -1.36 0.61 0.59 9977
0.00 0.00 1.34 -4.69 11.33 -1.29 0.60 0.60 9985
0.00 0.00 1.38 -3.74 11.88 -1.25 0.61 0.60 9992
0.00 0.00 1.58 -4.08 12.04 -1.27 0.64 0.61 9999
0.00 0.00 1.46 -4.12 11.78 -1.32 0.69 0.61 10006
0.00 0.00 1.34 -4.31 11.21 -1.34 0.73 0.60 10013
0.00 0.00 1.11 -4.66 10.80 -1.27 0.74 0.59 10020
0.00 0.00 0.97 -4.79 10.59 -1.23 0.73 0.58 10028
0.00 0.00 0.78 -4.81 10.43 -1.11 0.72 0.56 10035
0.00 0.00 0.56 -4.77 10.15 -1.01 0.67 0.55 10042
0.00 0.00 0.43 -4.72 9.90 -0.90 0.62 0.55 10049
0.00 0.00 0.43 -4.66 9.88 -0.79 0.54 0.53 10056
0.00 0.00 0.56 -4.48 10.14 -0.72 0.48 0.50 10063
0.00 0.00 0.62 -4.44 10.15 -0.68 0.41 0.48 10071
0.00 0.00 0.63 -4.52 10.01 -0.65 0.35 0.45 10078
0.00 0.00 0.68 -4.63 10.05 -0.61 0.29 0.42 10085
0.00 0.00 1.01 -4.64 10.37 -0.59 0.26 0.37 10092
0.00 0.00 1.66 -4.67 10.41 -0.60 0.36 0.32 10099
0.00 0.00 2.11 -4.88 10.34 -0.64 0.49 0.29 10106
0.00 0.00 1.87 -5.09 10.79 -0.69 0.67 0.25 10114
0.00 0.00 1.17 -5.12 10.74 -0.78 0.78 0.24 10121
0.00 0.00 0.37 -5.46 10.61 -0.89 0.78 0.24 10128
0.00 0.00 0.02 -6.15 10.36 -0.97 0.64 0.24 10135
0.00 0.00 0.10 -6.90 9.27 -1.01 0.53 0.24 10142
0.00 0.00 0.68 -7.77 8.98 -0.97 0.48 0.23 10149
0.00 0.00 0.97 -8.49 7.76 -0.88 0.55 0.21 10157
0.00 0.00 1.00 -9.13 7.21 -0.71 0.72 0.18 10164
0.00 0.00 0.59 -9.46 7.03 -0.53 0.91 0.13 10171
0.00 0.00 -0.07 -9.73 7.49 -0.30 1.06 0.08 10178
0.00 0.00 -1.59 -10.34 7.98 -0.13 1.14 0.04 10185
0.00 0.00 -5.62 -12.26 11.48 0.13 0.79 0.01 10192
0.00 0.00 -4.55 -10.16 6.79 0.34 0.40 -0.00 10200
0.00 -0.00 -3.81 -11.89 6.92 0.37 0.02 0.01 10207
0.00 0.00 -4.26 -13.91 8.68 0.46 -0.35 -0.01 10214
0.00 0.00 -4.18 -13.75 6.87 0.57 -0.55 -0.08 10221
0.00 0.00 -4.84 -14.71 5.85 0.69 -0.88 -0.08 10228
0.00 0.00 -6.21 -16.33 6.01 0.84 -1.31 -0.10 10235
-0.00 0.01 -7.98 -18.02 5.39 1.01 -1.94 -0.14 10243
0.00 0.01 -9.53 -19.72 5.17 1.23 -2.63 -0.13 10251
-0.00 0.01 -3.30 -5.08 13.96 1.84 -2.81 -0.12 10257
-0.01 0.08 -4.72 -6.67 36.78 2.11 -2.80 -0.14 10264
-0.02 0.21 1.11 -1.64 15.63 0.35 -1.89 -0.17 10271
-0.03 0.30 -0.08 -1.01 11.72 -0.18 -0.43 -0.04 10279
-0.03 0.41 -0.70 -2.16 11.22 -0.20 -0.17 -0.13 10287
-0.01 0.49 0.06 -1.72 10.92 -0.10 -0.11 -0.11 10294
-0.02 0.52 0.35 -1.11 9.99 -0.04 -0.02 -0.05 10300
-0.03 0.56 -0.01 -1.11 10.07 -0.02 0.02 -0.04 10307
-0.05 0.52 0.15 -0.77 9.80 -0.01 0.06 -0.04 10314
-0.01 0.53 0.45 -0.86 9.76 -0.00 0.08 -0.04 10321
-0.02 0.58 0.58 -1.09 9.89 -0.01 0.08 -0.04 10329
-0.01 0.55 0.39 -0.91 9.82 -0.01 0.06 -0.05 10336
-0.02 0.57 0.46 -0.89 9.79 -0.01 0.06 -0.04 10343
-0.02 0.57 0.40 -0.88 9.81 -0.01 0.05 -0.05 10350
-0.03 0.54 0.44 -0.82 9.77 -0.01 0.05 -0.05 10357
-0.01 0.53 0.43 -0.83 9.82 -0.01 0.05 -0.05 10364
-0.01 0.54 0.43 -0.80 9.76 -0.00 0.04 -0.06 10372
-0.01 0.55 0.45 -0.79 9.79 -0.00 0.03 -0.07 10379
-0.02 0.57 0.41 -0.80 9.80 -0.00 0.03 -0.06 10386
-0.01 0.53 0.35 -0.80 9.79 -0.00 0.03 -0.07 10393
-0.02 0.55 0.36 -0.82 9.90 -0.00 0.03 -0.10 10400
-0.00 0.54 0.32 -0.83 9.83 -0.00 0.04 -0.06 10407
0.01 0.51 0.36 -0.82 9.81 -0.01 0.04 -0.06 10415
0.00 0.49 0.35 -0.82 9.82 -0.01 0.05 -0.06 10422
-0.00 0.50 0.43 -0.80 9.77 -0.00 0.05 -0.06 10429
0.01 0.51 0.36 -0.80 9.80 -0.00 0.06 -0.05 10436
0.00 0.51 0.39 -0.82 9.75 -0.00 0.06 -0.06 10443
0.01 0.51 0.39 -0.82 9.77 -0.00 0.06 -0.06 10450
0.02 0.51 0.41 -0.82 9.77 -0.00 0.05 -0.06 10458
0.02 0.50 0.41 -0.80 9.79 0.00 0.06 -0.07 10465
0.02 0.48 0.45 -0.82 9.78 -0.00 0.06 -0.07 10472
0.01 0.48 0.40 -0.82 9.78 0.00 0.06 -0.07 10479
0.01 0.49 0.39 -0.83 9.77 0.00 0.05 -0.07 10486
0.02 0.47 0.40 -0.79 9.74 0.01 0.05 -0.07 10493
0.03 0.46 0.39 -0.82 9.80 0.00 0.05 -0.06 10501
0.02 0.45 0.37 -0.84 9.78 0.01 0.05 -0.07 10508
0.02 0.46 0.40 -0.82 9.81 0.01 0.05 -0.07 10515
0.01 0.46 0.40 -0.83 9.82 0.01 0.05 -0.07 10522
0.02 0.47 0.42 -0.81 9.81 0.01 0.05 -0.06 10529
0.02 0.46 0.39 -0.83 9.79 0.01 0.05 -0.06 10536
0.02 0.46 0.40 -0.83 9.82 0.01 0.05 -0.06 10544
0.02 0.42 0.46 -0.83 9.20 0.00 0.05 -0.06 10551
0.02 0.38 0.44 -0.85 9.80 0.00 0.05 -0.06 10558
0.01 0.38 0.44 -0.84 9.78 0.00 0.05 -0.06 10565
0.02 0.38 0.44 -0.82 9.77 0.00 0.05 -0.06 10572
0.03 0.38 0.42 -0.84 9.81 0.00 0.04 -0.06 10579
0.03 0.37 0.43 -0.83 9.79 0.00 0.04 -0.06 10587
0.03 0.36 0.46 -0.86 9.78 0.00 0.04 -0.07 10594
0.04 0.35 0.40 -0.83 9.75 0.00 0.04 -0.07 10601
0.03 0.33 0.40 -0.86 9.77 0.00 0.04 -0.07 10608
0.04 0.34 0.45 -0.83 9.80 -0.00 0.04 -0.07 10615
0.04 0.33 0.37 -0.84 9.74 0.00 0.05 -0.04 10622
0.04 0.33 0.40 -0.86 9.81 -0.00 0.05 -0.06 10630
0.03 0.33 0.40 -0.83 9.76 0.00 0.05 -0.07 10637
0.03 0.33 0.43 -0.82 9.78 -0.00 0.05 -0.07 10644
0.03 0.31 0.43 -0.82 9.77 -0.00 0.05 -0.07 10651
0.04 0.32 0.41 -0.85 9.74 -0.00 0.04 -0.06 10658
0.05 0.31 0.41 -0.87 9.77 -0.00 0.04 -0.07 10665
0.04 0.30 0.44 -0.87 9.83 -0.00 0.05 -0.07 10673
0.05 0.30 0.42 -0.84 9.20 -0.00 0.04 -0.07 10680
0.05 0.28 0.45 -0.88 9.81 -0.00 0.04 -0.07 10687
0.04 0.29 0.43 -0.85 9.74 0.00 0.05 -0.07 10694
0.04 0.28 0.41 -0.83 9.78 -0.00 0.04 -0.07 10701
0.05 0.28 0.40 -0.83 9.72 -0.01 0.04 -0.07 10708
0.06 0.26 0.43 -0.87 9.79 -0.01 0.04 -0.07 10716
0.05 0.27 0.44 -0.86 9.79 -0.00 0.05 -0.06 10723
0.04 0.27 0.39 -0.89 9.75 -0.00 0.05 -0.07 10730
0.04 0.27 0.42 -0.86 9.75 -0.00 0.05 -0.07 10737
0.04 0.28 0.44 -0.87 9.75 -0.00 0.05 -0.06 10744
0.05 0.28 0.43 -0.85 9.78 -0.01 0.05 -0.07 10752
0.05 0.27 0.37 -0.83 9.74 -0.01 0.06 -0.07 10759
0.05 0.27 0.42 -0.84 9.78 -0.01 0.06 -0.06 10766
0.03 0.27 0.40 -0.84 9.72 -0.01 0.06 -0.07 10773
0.04 0.27 0.46 -0.86 9.78 -0.01 0.06 -0.07 10780
0.04 0.28 0.47 -0.84 9.82 -0.00 0.06 -0.07 10787
0.05 0.27 0.43 -0.87 9.80 -0.00 0.06 -0.07 10795
0.04 0.27 0.41 -0.88 9.82 0.00 0.06 -0.07 10802
0.05 0.27 0.47 -0.86 10.40 0.01 0.06 -0.07 10809
0.03 0.26 0.45 -0.85 9.77 0.01 0.06 -0.08 10816
0.05 0.20 0.46 -0.86 9.81 0.01 0.06 -0.07 10823
0.05 0.22 0.41 -0.84 9.83 0.01 0.06 -0.08 10830
0.06 0.19 0.49 -0.88 9.81 0.01 0.06 -0.08 10838
0.05 0.20 0.44 -0.86 9.83 0.01 0.06 -0.07 10845
0.05 0.15 0.46 -0.86 9.82 0.02 0.06 -0.07 10852
0.05 0.14 0.46 -0.83 9.82 0.02 0.06 -0.08 10859
0.06 0.07 0.44 -0.85 9.83 0.03 0.07 -0.08 10866
0.06 0.04 0.41 -0.87 9.87 0.04 0.08 -0.07 10873
0.05 0.01 0.43 -0.85 9.94 0.06 0.09 -0.07 10881
0.05 0.01 0.53 -0.83 9.94 0.09 0.10 -0.06 10888
0.05 -0.00 0.61 -0.87 10.00 0.13 0.12 -0.06 10895
0.05 -0.01 0.47 -0.82 10.28 0.19 0.15 -0.06 10902
0.05 -0.01 0.51 -0.85 10.74 0.28 0.18 -0.06 10909
0.06 -0.01 0.97 -0.85 11.70 0.49 0.20 -0.08 10916
0.05 -0.00 1.83 -1.17 13.74 1.05 0.28 -0.20 10924
0.05 -0.00 1.23 -0.94 17.26 1.81 0.19 -0.35 10931
0.04 -0.00 1.33 -0.96 17.16 2.45 -0.00 -0.44 10938
0.05 0.00 1.68 -1.14 14.50 2.80 -0.16 -0.51 10945
0.04 0.02 1.60 -1.26 14.01 2.89 -0.21 -0.57 10952
0.03 -0.00 2.01 -1.59 14.32 3.00 -0.26 -0.61 10959
0.04 -0.00 2.47 -1.78 15.11 3.13 -0.17 -0.67 10967
0.06 -0.01 3.23 -2.08 14.54 3.26 0.00 -0.74 10974
0.00 0.00 3.47 -2.13 15.58 3.30 0.29 -0.82 10981
0.01 -0.00 3.18 -2.26 16.72 3.30 0.58 -0.87 10988
0.00 0.00 2.42 -1.30 17.36 3.22 0.77 -0.93 10995
0.01 -0.00 1.12 0.02 16.14 3.11 0.71 -0.94 11002
0.00 0.00 0.09 1.18 14.53 2.95 0.52 -0.91 11010
0.00 0.00 -0.16 3.09 13.04 2.68 0.21 -0.84 11017
0.00 0.00 -0.00 4.84 11.37 2.37 0.00 -0.80 11024
0.00 0.00 0.64 6.41 10.59 2.04 -0.16 -0.80 11031
0.00 0.00 1.20 7.87 9.22 1.77 -0.20 -0.82 11038
0.00 0.00 1.23 9.47 8.56 1.49 -0.16 -0.89 11045
0.00 0.00 1.34 8.87 7.69 1.19 -0.11 -1.03 11053
0.00 0.00 1.08 9.14 8.26 0.94 -0.08 -1.14 11060
0.00 0.00 0.55 9.39 8.34 0.64 -0.07 -1.19 11067
0.00 0.00 0.38 9.02 7.61 0.39 -0.14 -1.23 11074
0.00 0.00 0.40 8.50 7.05 0.23 -0.23 -1.23 11081
0.00 0.00 0.66 7.98 6.93 0.08 -0.34 -1.21 11088
0.00 0.00 1.04 7.52 7.13 -0.05 -0.41 -1.17 11096
0.00 0.00 1.47 7.18 7.40 -0.20 -0.46 -1.13 11103
0.00 0.00 1.97 6.93 8.07 -0.38 -0.45 -1.07 11110
0.00 0.00 2.34 6.68 8.41 -0.57 -0.40 -0.99 11117
0.00 -0.00 2.81 6.26 8.80 -0.84 -0.31 -0.89 11124
0.00 0.00 3.09 5.70 9.17 -1.08 -0.19 -0.75 11131
0.00 0.00 3.24 4.98 8.61 -1.34 -0.08 -0.60 11139
0.00 0.00 3.22 3.91 9.00 -1.53 0.02 -0.41 11146
0.00 0.00 3.13 2.82 8.70 -1.63 0.07 -0.20 11153
-0.00 0.00 3.11 1.90 8.65 -1.68 0.13 -0.02 11160
0.00 -0.00 3.19 1.09 8.81 -1.68 0.18 0.19 11167
0.00 0.00 3.20 0.56 9.05 -1.67 0.21 0.35 11174
0.00 0.00 3.10 0.13 9.30 -1.65 0.27 0.53 11182
0.00 0.00 2.95 -0.03 9.83 -1.64 0.31 0.69 11189
0.00 0.00 2.79 -0.24 10.37 -1.65 0.37 0.80 11196
0.00 0.00 2.59 -0.41 10.89 -1.70 0.41 0.91 11203
0.00 0.00 2.33 -0.51 11.23 -1.71 0.42 0.98 11210
0.00 0.00 2.14 -0.87 11.61 -1.75 0.42 1.03 11217
0.00 0.00 2.16 -1.18 12.06 -1.78 0.42 1.05 11225
0.00 0.00 2.18 -1.57 12.12 -1.83 0.44 1.05 11232
0.00 0.00 2.17 -1.90 11.94 -1.86 0.48 1.02 11239
0.00 0.00 2.12 -2.37 11.94 -1.87 0.52 0.97 11246
0.00 0.00 1.80 -2.80 11.84 -1.86 0.55 0.93 11253
0.00 0.00 1.54 -3.20 11.75 -1.82 0.55 0.90 11260
0.00 0.00 1.38 -3.45 11.63 -1.76 0.54 0.87 11268
0.00 0.00 1.16 -3.78 11.22 -1.67 0.48 0.85 11275
0.00 0.00 0.98 -4.22 10.81 -1.57 0.41 0.80 11282
0.00 -0.00 0.85 -4.65 10.60 -1.41 0.29 0.75 11289
0.00 0.00 0.57 -4.88 10.51 -1.24 0.14 0.66 11296
0.00 0.00 0.45 -4.96 10.57 -1.03 -0.01 0.58 11303
0.00 0.00 0.46 -4.77 10.73 -0.85 -0.16 0.48 11311
0.00 0.00 0.38 -4.46 10.88 -0.75 -0.29 0.39 11318
0.00 0.00 0.57 -4.15 11.04 -0.66 -0.29 0.34 11325
0.01 -0.00 0.61 -3.92 11.17 -0.61 -0.18 0.32 11332
0.00 0.00 0.74 -3.82 11.38 -0.57 -0.02 0.34 11339
0.00 0.00 0.88 -3.66 11.18 -0.57 0.20 0.38 11346
0.00 0.00 0.91 -3.80 11.16 -0.57 0.37 0.44 11354
0.00 0.00 1.00 -3.96 11.25 -0.57 0.52 0.50 11361
0.00 0.00 1.24 -4.26 11.45 -0.57 0.64 0.55 11368
0.00 0.00 1.45 -4.68 12.09 -0.59 0.72 0.61 11375
0.00 0.00 1.32 -4.63 13.36 -0.67 0.75 0.65 11382
0.00 0.00 0.86 -4.63 13.38 -0.85 0.73 0.70 11389
0.00 0.00 0.76 -4.68 12.86 -1.09 0.66 0.73 11397
0.00 0.00 0.81 -4.91 11.79 -1.32 0.53 0.77 11404
0.00 0.00 0.75 -5.53 10.65 -1.44 0.45 0.82 11411
0.00 0.00 0.65 -6.21 9.92 -1.46 0.41 0.87 11418
0.00 0.00 0.49 -6.77 9.42 -1.39 0.39 0.93 11425
0.00 0.00 0.18 -7.24 8.93 -1.24 0.35 0.95 11432
0.00 0.00 -0.14 -7.76 8.63 -1.05 0.25 0.96 11440
0.00 0.00 -0.13 -8.37 8.17 -0.87 0.16 0.92 11447
0.00 0.00 0.27 -8.85 7.99 -0.70 0.11 0.85 11454
0.00 0.00 0.49 -9.32 7.84 -0.55 0.13 0.73 11461
0.00 0.00 0.52 -10.35 7.30 -0.47 0.24 0.60 11468
0.00 0.00 0.25 -10.60 7.11 -0.36 0.42 0.40 11475
0.00 0.00 -0.33 -11.17 7.04 -0.25 0.62 0.18 11483
0.00 0.00 -1.04 -12.64 6.32 -0.11 0.73 -0.02 11490
0.00 0.00 -2.97 -13.94 8.44 0.28 0.69 -0.24 11497
0.00 0.00 -3.26 -13.73 4.83 0.45 0.64 -0.44 11504
0.00 0.00 -3.52 -13.60 5.48 0.65 0.39 -0.57 11511
0.00 0.00 -5.20 -16.93 6.86 0.77 -0.04 -0.72 11518
0.00 0.00 -5.13 -17.05 5.47 1.00 -0.47 -0.85 11526
0.00 0.00 -6.12 -19.92 3.63 1.22 -1.08 -1.00 11533
0.01 0.01 -6.67 -25.68 3.98 1.47 -1.76 -1.17 11541
-0.00 0.02 -1.83 -14.68 7.71 1.90 -2.40 -1.30 11547
-0.01 0.10 9.38 -5.00 23.73 2.39 -2.55 -1.09 11554
-0.02 0.19 4.52 -2.49 21.37 0.43 -2.39 -0.23 11561
-0.04 0.35 1.23 -0.08 11.17 -0.26 -0.17 0.05 11569
-0.03 0.50 -1.48 -3.32 11.69 -0.22 -0.07 -0.09 11577
-0.02 0.58 -0.59 -2.29 10.44 -0.12 -0.16 -0.11 11584
-0.03 0.61 0.21 -0.51 9.98 -0.03 -0.05 -0.06 11590
-0.02 0.61 0.10 -1.06 9.84 -0.02 0.01 -0.06 11597
-0.01 0.62 0.09 -0.52 9.69 -0.01 0.04 -0.04 11604
0.00 0.63 0.33 -0.87 9.64 -0.02 0.06 -0.05 11612
0.00 0.71 0.40 -0.91 9.81 -0.02 0.05 -0.05 11619
0.02 0.68 0.34 -0.88 9.85 -0.02 0.05 -0.05 11626
0.01 0.69 0.28 -0.80 9.82 -0.02 0.05 -0.05 11633
0.02 0.66 0.32 -0.80 9.84 -0.01 0.06 -0.05 11640
0.01 0.66 0.30 -0.80 9.82 -0.00 0.07 -0.05 11648
0.02 0.65 0.32 -0.79 9.81 -0.00 0.07 -0.05 11655
0.01 0.65 0.34 -0.81 9.76 0.00 0.07 -0.05 11662
0.02 0.61 0.36 -0.72 9.75 0.01 0.06 -0.06 11669
0.01 0.58 0.35 -0.74 10.33 0.01 0.05 -0.07 11676
0.02 0.55 0.34 -0.75 9.74 0.01 0.04 -0.07 11683
0.01 0.57 0.34 -0.75 9.76 0.01 0.04 -0.07 11691
0.02 0.55 0.33 -0.74 9.78 0.01 0.03 -0.07 11698
0.04 0.53 0.33 -0.77 9.81 0.02 0.03 -0.07 11705
0.04 0.50 0.30 -0.79 9.79 0.02 0.03 -0.06 11712
0.04 0.51 0.28 -0.77 9.82 0.02 0.03 -0.06 11719
0.04 0.46 0.26 -0.78 9.73 0.01 0.04 -0.06 11726
0.05 0.45 0.27 -0.78 9.80 0.01 0.05 -0.07 11734
0.03 0.45 0.24 -0.79 9.80 0.01 0.05 -0.06 11741
0.04 0.44 0.30 -0.80 9.78 0.01 0.06 -0.06 11748
0.04 0.44 0.31 -0.81 9.79 0.01 0.06 -0.06 11755
0.03 0.41 0.35 -0.80 9.76 0.01 0.06 -0.06 11762
0.04 0.42 0.35 -0.77 10.42 0.00 0.06 -0.06 11769
0.04 0.42 0.34 -0.79 9.74 0.00 0.06 -0.06 11777
0.04 0.40 0.32 -0.79 9.78 0.00 0.06 -0.06 11784
0.05 0.39 0.32 -0.78 9.79 0.00 0.06 -0.06 11791
0.05 0.36 0.30 -0.82 9.79 0.00 0.06 -0.06 11798
0.04 0.37 0.35 -0.76 9.80 -0.00 0.06 -0.06 11805
0.03 0.38 0.31 -0.79 9.77 0.00 0.06 -0.06 11812
0.03 0.38 0.32 -0.78 9.79 -0.00 0.06 -0.06 11820
0.04 0.39 0.40 -0.81 9.78 -0.00 0.06 -0.05 11827
0.05 0.39 0.35 -0.79 9.78 -0.00 0.06 -0.05 11834
0.05 0.37 0.36 -0.77 9.80 -0.00 0.05 -0.05 11841
0.04 0.37 0.36 -0.78 9.75 0.00 0.05 -0.06 11848
0.03 0.38 0.34 -0.80 9.81 -0.00 0.05 -0.06 11855
0.04 0.38 0.35 -0.78 9.78 -0.00 0.05 -0.06 11863
0.04 0.39 0.37 -0.80 9.79 -0.00 0.05 -0.06 11870
0.05 0.38 0.34 -0.82 9.81 -0.00 0.05 -0.06 11877
0.04 0.37 0.35 -0.77 9.80 -0.00 0.05 -0.05 11884
0.05 0.38 0.34 -0.81 9.82 -0.00 0.05 -0.05 11891
0.04 0.39 0.37 -0.80 9.78 -0.00 0.04 -0.06 11898
0.05 0.40 0.35 -0.78 9.80 -0.00 0.04 -0.05 11906
0.05 0.40 0.38 -0.81 9.78 -0.01 0.04 -0.06 11913
0.05 0.39 0.34 -0.79 9.80 -0.01 0.04 -0.06 11920
0.05 0.38 0.39 -0.80 9.80 -0.01 0.03 -0.06 11927
0.05 0.36 0.33 -0.80 9.78 -0.01 0.03 -0.06 11934
0.04 0.38 0.34 -0.80 9.78 -0.01 0.03 -0.06 11941
0.05 0.38 0.35 -0.79 9.77 -0.01 0.04 -0.06 11949
0.05 0.40 0.34 -0.79 9.79 -0.01 0.04 -0.06 11956
0.05 0.39 0.36 -0.84 9.80 -0.01 0.04 -0.06 11963
0.04 0.38 0.36 -0.83 9.77 -0.01 0.04 -0.06 11970
0.04 0.36 0.32 -0.77 9.76 -0.01 0.04 -0.06 11977
0.04 0.37 0.34 -0.77 9.77 -0.01 0.03 -0.05 11984
0.03 0.39 0.37 -0.80 9.75 -0.01 0.03 -0.06 11992
0.04 0.38 0.37 -0.80 9.73 -0.01 0.04 -0.06 11999
0.04 0.38 0.32 -0.78 9.76 -0.01 0.03 -0.06 12006
0.04 0.39 0.36 -0.79 9.79 -0.01 0.03 -0.06 12013
0.02 0.40 0.31 -0.77 9.77 -0.01 0.04 -0.06 12020
0.03 0.41 0.33 -0.79 9.76 -0.01 0.04 -0.06 12027
0.03 0.43 0.32 -0.80 9.74 -0.01 0.04 -0.06 12035
0.05 0.42 0.33 -0.80 9.78 -0.00 0.05 -0.06 12042
0.04 0.41 0.35 -0.79 9.77 -0.00 0.06 -0.07 12049
0.04 0.40 0.34 -0.78 9.79 -0.00 0.06 -0.07 12056
0.02 0.39 0.34 -0.77 9.79 0.00 0.06 -0.07 12063
0.04 0.39 0.31 -0.81 9.78 0.00 0.07 -0.07 12070
0.04 0.39 0.37 -0.80 9.80 0.00 0.07 -0.07 12078
0.06 0.36 0.36 -0.79 9.79 0.01 0.07 -0.07 12085
0.05 0.34 0.37 -0.77 9.80 0.01 0.07 -0.07 12092
0.05 0.30 0.39 -0.81 9.77 0.01 0.07 -0.07 12099
0.05 0.30 0.40 -0.76 9.80 0.01 0.07 -0.07 12106
0.05 0.24 0.39 -0.75 9.79 0.02 0.07 -0.07 12113
0.06 0.23 0.44 -0.80 9.84 0.03 0.07 -0.08 12121
0.06 0.23 0.39 -0.78 9.82 0.03 0.07 -0.08 12128
0.06 0.14 0.43 -0.78 9.83 0.03 0.07 -0.08 12135
0.07 0.05 0.38 -0.77 9.82 0.04 0.07 -0.08 12142
0.07 0.02 0.40 -0.81 9.81 0.05 0.07 -0.08 12149
0.08 0.01 0.41 -0.79 9.83 0.06 0.08 -0.08 12156
0.08 0.01 0.42 -0.82 9.88 0.08 0.09 -0.08 12164
0.08 0.00 0.39 -0.83 10.03 0.10 0.11 -0.08 12171
0.07 -0.01 0.44 -0.76 10.18 0.16 0.15 -0.07 12178
0.08 -0.01 0.59 -0.87 10.30 0.23 0.23 -0.08 12185
0.07 -0.01 0.65 -0.84 10.79 0.38 0.29 -0.09 12192
0.07 -0.01 1.14 -1.15 11.74 0.69 0.37 -0.16 12199
0.10 -0.01 1.50 -0.63 14.57 1.31 0.47 -0.26 12207
0.10 -0.01 1.35 -1.46 16.89 2.19 0.30 -0.35 12214
0.09 -0.01 1.70 -1.08 17.01 2.64 0.11 -0.47 12221
0.08 -0.01 2.21 -0.77 14.62 2.92 0.00 -0.55 12228
0.03 -0.00 2.40 -1.03 13.84 3.02 -0.07 -0.64 12235
0.05 -0.00 2.58 -1.75 14.74 3.09 -0.06 -0.73 12242
0.04 -0.00 2.85 -2.04 14.77 3.19 0.07 -0.80 12250
0.01 -0.00 3.95 -2.31 15.43 3.28 0.27 -0.90 12257
0.01 -0.00 4.10 -2.54 16.92 3.35 0.52 -1.00 12264
0.00 -0.00 3.83 -2.13 17.91 3.35 0.81 -1.04 12271
0.00 0.00 1.92 -1.43 18.32 3.30 0.88 -1.09 12278
0.00 0.00 0.89 -0.49 17.00 3.22 0.71 -1.11 12285
0.01 -0.00 0.08 0.89 15.75 3.10 0.37 -1.06 12293
0.00 0.00 -0.19 2.24 15.01 2.89 0.03 -1.01 12300
0.00 -0.00 0.02 3.69 13.25 2.65 -0.37 -1.02 12307
0.00 0.00 1.06 6.96 11.69 2.45 -0.47 -1.02 12314
0.00 0.00 1.23 7.96 10.11 2.14 -0.40 -1.05 12321
0.00 0.00 1.11 9.07 9.90 1.77 -0.29 -1.18 12328
0.00 0.00 1.39 7.40 9.04 1.43 -0.22 -1.34 12336
0.00 0.00 0.93 8.42 9.73 1.12 -0.17 -1.48 12343
0.00 0.00 0.56 8.70 8.73 0.86 -0.13 -1.59 12350
0.00 0.00 0.52 8.38 7.69 0.64 -0.17 -1.66 12357
0.00 0.00 0.51 8.04 7.18 0.47 -0.21 -1.69 12364
0.00 0.00 0.72 7.83 6.78 0.34 -0.23 -1.71 12371
0.00 0.00 0.93 7.56 6.69 0.19 -0.27 -1.70 12379
0.00 0.00 0.99 7.43 6.81 0.06 -0.30 -1.67 12386
0.00 0.00 1.14 7.31 7.04 -0.13 -0.33 -1.62 12393
0.00 0.00 1.32 7.13 7.34 -0.35 -0.37 -1.53 12400
0.00 0.00 1.54 6.84 7.62 -0.56 -0.40 -1.42 12407
0.01 -0.00 1.98 6.39 7.76 -0.80 -0.39 -1.31 12414
0.00 0.00 2.45 5.64 7.92 -1.04 -0.32 -1.17 12422
0.00 0.00 2.85 4.36 8.05 -1.22 -0.23 -1.01 12429
0.00 0.00 3.07 4.08 7.93 -1.40 -0.11 -0.86 12436
0.00 0.00 3.15 3.35 8.02 -1.51 -0.02 -0.67 12443
0.00 0.00 3.10 2.73 8.26 -1.62 0.09 -0.49 12450
0.00 0.00 3.03 1.93 8.44 -1.69 0.18 -0.27 12457
0.00 0.00 2.95 0.65 8.74 -1.76 0.23 -0.04 12465
0.00 0.00 2.90 0.67 9.21 -1.80 0.26 0.14 12472
0.00 0.00 2.95 0.17 9.56 -1.83 0.29 0.35 12479
0.00 0.00 2.99 -0.33 9.78 -1.86 0.34 0.51 12486
0.00 0.00 3.02 -0.80 10.01 -1.87 0.41 0.68 12493
0.00 0.00 3.06 -1.32 10.43 -1.86 0.49 0.81 12500
0.00 0.00 3.03 -1.81 10.98 -1.85 0.59 0.90 12508
0.00 0.00 2.87 -2.27 11.53 -1.83 0.69 0.96 12515
0.00 0.00 2.60 -2.65 12.04 -1.83 0.76 1.01 12522
0.00 0.00 2.27 -3.09 12.28 -1.85 0.80 1.06 12529
0.00 0.00 2.05 -3.51 12.18 -1.85 0.79 1.11 12536
0.00 0.00 2.02 -3.80 12.00 -1.84 0.74 1.13 12544
0.00 0.00 2.15 -4.15 11.85 -1.81 0.69 1.16 12551
0.00 0.00 2.27 -4.36 11.83 -1.75 0.66 1.18 12558
0.00 0.00 2.31 -4.48 11.88 -1.67 0.65 1.19 12565
0.00 0.00 2.31 -4.56 12.23 -1.61 0.65 1.18 12572
0.00 0.00 2.09 -4.56 12.56 -1.58 0.65 1.18 12579
0.00 0.00 1.82 -4.59 12.75 -1.57 0.64 1.17 12587
0.00 0.00 1.62 -4.70 12.73 -1.58 0.60 1.16 12594
0.00 0.00 1.54 -4.79 12.62 -1.60 0.54 1.15 12601
0.00 0.00 1.47 -4.82 12.37 -1.61 0.51 1.15 12608
0.00 0.00 1.46 -4.91 11.99 -1.60 0.51 1.16 12615
0.00 -0.00 1.33 -5.20 11.38 -1.56 0.52 1.15 12622
0.00 0.00 1.17 -5.65 10.80 -1.49 0.51 1.15 12630
0.00 0.00 0.84 -5.96 10.37 -1.35 0.48 1.14 12637
0.00 0.00 0.22 -6.09 10.09 -1.18 0.38 1.12 12644
0.00 0.00 -0.47 -6.19 10.22 -0.98 0.23 1.10 12651
0.00 0.00 -1.23 -5.99 10.51 -0.79 -0.05 1.10 12658
0.00 0.00 -1.77 -5.92 10.67 -0.66 -0.37 1.09 12665
0.00 0.00 -1.93 -5.93 10.81 -0.54 -0.58 1.09 12673
0.00 0.00 -1.49 -5.78 11.25 -0.48 -0.80 1.07 12680
0.00 0.00 -0.66 -5.78 12.31 -0.47 -0.88 1.04 12687
0.00 0.00 0.63 -5.72 13.23 -0.59 -0.76 0.96 12694
0.00 0.00 2.02 -5.79 13.06 -0.81 -0.37 0.83 12701
0.00 0.00 2.91 -6.23 11.24 -1.14 0.12 0.69 12708
0.00 0.00 2.78 -7.60 10.17 -1.40 0.73 0.51 12716
0.00 0.00 1.68 -11.10 9.80 -1.38 1.18 0.36 12723
0.00 0.00 0.06 -12.32 8.17 -1.01 1.61 0.26 12730
0.00 0.00 -1.20 -11.52 4.76 -0.69 1.69 0.13 12737
0.00 0.00 -2.20 -13.29 4.05 -0.40 1.56 0.02 12744
0.00 0.00 -4.20 -14.83 7.26 -0.08 1.14 -0.07 12751
0.00 0.00 -4.57 -13.42 8.45 0.22 0.80 -0.14 12759
0.00 0.00 -4.25 -13.78 5.78 0.27 0.57 -0.17 12766
0.00 0.00 -5.08 -16.08 7.43 0.33 0.23 -0.18 12773
0.00 0.00 -5.28 -16.37 6.12 0.46 0.03 -0.23 12780
0.00 0.00 -5.60 -17.16 5.37 0.71 -0.39 -0.22 12787
0.00 0.00 -7.15 -23.22 4.28 0.94 -0.91 -0.28 12794
-0.00 0.03 -8.62 -30.09 1.57 1.38 -1.34 -0.34 12802
-0.00 0.02 -7.03 -27.65 5.09 2.11 -1.78 -0.39 12809
-0.01 0.08 -1.35 -5.59 49.51 2.47 -2.51 -0.49 12816
-0.02 0.22 1.82 -2.83 21.15 0.04 -1.51 -0.20 12823
0.00 0.32 1.81 -0.79 10.05 -0.32 -0.06 -0.02 12830
-0.01 0.43 -1.62 -2.32 11.74 -0.18 -0.15 -0.07 12838
-0.02 0.47 -0.35 -1.45 10.25 -0.06 -0.07 -0.07 12846
-0.03 0.52 0.25 -1.02 10.11 -0.02 -0.00 -0.08 12852
-0.01 0.54 0.42 -0.98 9.93 -0.01 0.02 -0.04 12859
-0.01 0.50 0.10 -0.54 9.70 0.00 0.04 -0.04 12866
0.04 0.49 0.22 -0.88 9.78 -0.01 0.05 -0.05 12873
0.04 0.50 0.47 -1.00 9.85 -0.02 0.04 -0.04 12880
0.04 0.48 0.35 -0.86 9.84 -0.03 0.03 -0.05 12888
0.05 0.51 0.31 -0.85 9.81 -0.02 0.03 -0.05 12895
0.05 0.55 0.35 -0.81 9.82 -0.01 0.04 -0.06 12902
0.05 0.57 0.33 -0.75 9.87 -0.01 0.03 -0.06 12909
0.07 0.53 0.32 -0.77 9.80 0.00 0.03 -0.06 12916
0.06 0.53 0.38 -0.77 9.76 0.00 0.03 -0.07 12923
0.06 0.50 0.33 -0.76 9.81 0.00 0.03 -0.07 12931
0.05 0.49 0.35 -0.80 9.83 0.00 0.02 -0.07 12938
0.06 0.49 0.27 -0.79 9.81 0.00 0.03 -0.07 12945
0.06 0.50 0.26 -0.77 9.81 0.00 0.03 -0.07 12952
0.06 0.51 0.25 -0.80 9.81 0.00 0.04 -0.07 12959
0.07 0.50 0.25 -0.79 9.81 0.00 0.04 -0.06 12966
0.07 0.45 0.30 -0.76 9.82 -0.00 0.05 -0.06 12974
0.06 0.43 0.27 -0.78 9.79 0.00 0.05 -0.06 12981
0.06 0.43 0.34 -0.77 9.20 0.00 0.06 -0.06 12988
0.07 0.44 0.32 -0.77 9.81 -0.00 0.06 -0.06 12995
0.06 0.45 0.36 -0.80 9.60 -0.00 0.06 -0.06 13002
0.05 0.46 0.32 -0.79 9.79 -0.00 0.06 -0.06 13009
0.06 0.46 0.31 -0.79 9.80 -0.00 0.06 -0.07 13017
0.05 0.46 0.30 -0.79 9.77 -0.01 0.06 -0.06 13024
0.05 0.47 0.29 -0.76 9.80 -0.01 0.06 -0.07 13031
0.07 0.44 0.31 -0.79 9.82 -0.01 0.07 -0.07 13038
0.06 0.44 0.29 -0.77 9.78 -0.00 0.06 -0.06 13045
0.06 0.43 0.32 -0.78 9.76 -0.00 0.07 -0.07 13052
0.05 0.43 0.34 -0.76 9.75 -0.00 0.07 -0.06 13060
0.05 0.42 0.34 -0.78 9.80 0.00 0.07 -0.06 13067
0.05 0.43 0.36 -0.75 9.76 0.00 0.06 -0.06 13074
0.07 0.41 0.33 -0.80 9.78 0.00 0.06 -0.06 13081
0.07 0.39 0.34 -0.77 9.78 0.01 0.06 -0.06 13088
0.07 0.37 0.36 -0.79 9.80 0.00 0.06 -0.06 13095
0.06 0.37 0.36 -0.80 9.78 0.00 0.05 -0.06 13103
0.07 0.37 0.36 -0.78 9.78 0.00 0.05 -0.06 13110
0.06 0.38 0.37 -0.79 9.78 0.00 0.05 -0.06 13117
0.07 0.38 0.35 -0.77 9.76 0.00 0.05 -0.06 13124
0.07 0.33 0.32 -0.76 9.77 0.01 0.04 -0.07 13131
0.07 0.33 0.35 -0.77 9.75 0.00 0.04 -0.07 13138
0.06 0.31 0.32 -0.80 9.76 0.00 0.04 -0.07 13146
0.06 0.31 0.37 -0.79 9.78 0.01 0.04 -0.06 13153
0.07 0.29 0.32 -0.80 9.77 0.00 0.04 -0.06 13160
0.09 0.30 0.33 -0.81 9.78 0.00 0.04 -0.06 13167
0.08 0.29 0.30 -0.79 9.79 0.01 0.05 -0.06 13174
0.08 0.28 0.32 -0.78 9.79 0.00 0.05 -0.06 13181
0.07 0.29 0.31 -0.81 9.80 0.00 0.05 -0.06 13189
0.09 0.27 0.33 -0.85 9.80 0.00 0.05 -0.06 13196
0.09 0.30 0.35 -0.80 9.81 0.00 0.05 -0.06 13203
0.09 0.26 0.37 -0.80 9.78 0.00 0.05 -0.06 13210
0.08 0.25 0.34 -0.79 9.81 0.00 0.05 -0.06 13217
0.08 0.22 0.36 -0.80 9.78 -0.00 0.05 -0.07 13224
0.07 0.22 0.35 -0.78 9.77 -0.00 0.04 -0.06 13232
0.09 0.24 0.33 -0.81 9.81 0.00 0.05 -0.07 13239
0.10 0.24 0.37 -0.79 9.80 0.00 0.05 -0.07 13246
0.08 0.27 0.30 -0.83 9.78 0.00 0.05 -0.07 13253
0.08 0.26 0.34 -0.79 9.82 -0.00 0.05 -0.06 13260
0.07 0.28 0.33 -0.83 9.80 0.00 0.05 -0.07 13267
0.07 0.28 0.30 -0.81 9.78 -0.00 0.05 -0.07 13275
0.08 0.27 0.34 -0.78 9.79 -0.00 0.05 -0.07 13282
0.10 0.26 0.35 -0.81 9.79 -0.00 0.06 -0.06 13289
0.09 0.24 0.34 -0.78 9.79 -0.00 0.07 -0.07 13296
0.08 0.24 0.36 -0.83 9.77 -0.00 0.06 -0.06 13303
0.07 0.24 0.37 -0.83 9.78 -0.00 0.07 -0.07 13310
0.07 0.25 0.36 -0.83 9.78 -0.00 0.06 -0.06 13318
0.08 0.25 0.37 -0.79 9.78 -0.00 0.07 -0.06 13325
0.09 0.20 0.39 -0.79 9.81 -0.00 0.10 -0.06 13332
0.08 0.21 0.38 -0.77 9.76 -0.00 0.07 -0.07 13339
0.07 0.21 0.39 -0.76 9.79 -0.00 0.07 -0.07 13346
0.07 0.19 0.37 -0.80 9.78 0.00 0.07 -0.06 13353
0.08 0.23 0.40 -0.82 9.78 0.01 0.07 -0.06 13361
0.08 0.18 0.35 -0.79 9.81 0.01 0.10 -0.07 13368
0.10 0.14 0.40 -0.81 9.21 0.01 0.07 -0.07 13375
0.09 0.17 0.38 -0.82 9.80 0.01 0.07 -0.07 13382
0.09 0.13 0.41 -0.80 9.79 0.01 0.07 -0.07 13389
0.08 0.09 0.40 -0.80 9.79 0.01 0.07 -0.07 13396
0.09 0.08 0.38 -0.83 9.72 0.02 0.07 -0.07 13404
0.10 0.08 0.43 -0.83 9.21 0.02 0.06 -0.06 13411
0.11 0.05 0.42 -0.80 9.83 0.03 0.06 -0.06 13418
0.11 0.02 0.46 -0.81 9.81 0.03 0.06 -0.06 13425
0.10 -0.01 0.41 -0.80 9.82 0.04 0.06 -0.07 13432
0.09 -0.01 0.41 -0.82 9.82 0.04 0.07 -0.07 13440
0.10 0.00 0.40 -0.84 9.85 0.05 0.07 -0.07 13447
0.10 -0.01 0.37 -0.80 9.85 0.07 0.09 -0.06 13454
0.10 -0.01 0.39 -0.80 10.02 0.09 0.10 -0.06 13461
0.10 -0.01 0.50 -0.82 10.02 0.14 0.14 -0.05 13468
0.10 -0.01 0.50 -0.86 10.11 0.19 0.19 -0.06 13475
0.08 -0.01 0.44 -0.89 10.33 0.27 0.25 -0.07 13483
0.09 -0.01 0.40 -0.85 10.90 0.45 0.31 -0.06 13490
0.10 -0.01 0.43 -1.02 12.26 0.77 0.37 -0.06 13497
0.08 -0.01 0.93 -1.14 13.59 1.35 0.38 -0.08 13504
0.08 -0.01 1.13 -1.02 14.58 1.86 0.21 -0.17 13511
0.06 -0.01 1.38 -1.01 14.94 2.14 0.09 -0.25 13518
0.06 -0.01 1.01 -1.23 13.75 2.38 -0.03 -0.31 13526
0.07 -0.01 1.17 -1.47 13.78 2.51 -0.12 -0.34 13533
0.08 -0.01 1.14 -1.54 13.85 2.63 -0.23 -0.37 13540
0.03 -0.00 1.72 -1.79 13.63 2.75 -0.30 -0.40 13547
0.04 -0.00 2.06 -2.12 14.06 2.85 -0.28 -0.47 13554
0.03 -0.00 2.59 -2.71 14.46 2.95 -0.20 -0.53 13561
0.01 -0.00 3.15 -3.13 15.21 2.99 -0.11 -0.61 13569
0.01 -0.00 3.28 -3.20 16.37 2.98 0.02 -0.69 13576
0.01 -0.00 2.18 -3.03 16.68 2.95 0.09 -0.77 13583
0.00 0.00 1.24 -1.98 16.46 2.93 0.01 -0.80 13590
0.01 -0.00 0.12 -0.77 15.87 2.83 -0.26 -0.79 13597
0.00 0.00 0.47 0.23 14.80 2.68 -0.60 -0.77 13604
0.00 -0.00 1.08 1.24 13.52 2.49 -0.82 -0.76 13612
0.01 -0.00 1.95 4.03 12.22 2.31 -0.82 -0.77 13619
0.00 0.00 2.17 5.80 10.55 2.11 -0.64 -0.80 13626
0.00 0.00 1.34 7.46 9.38 1.78 -0.34 -0.89 13633
0.00 0.00 0.08 7.52 9.14 1.49 -0.14 -1.00 13640
0.00 0.00 -0.66 6.79 9.82 1.17 -0.11 -1.08 13647
0.00 0.00 -1.17 7.33 9.83 0.85 -0.22 -1.12 13655
0.00 0.00 -0.79 7.46 8.20 0.64 -0.42 -1.14 13662
0.00 0.00 -0.02 7.23 7.12 0.48 -0.55 -1.15 13669
0.00 0.00 0.83 7.18 6.66 0.31 -0.60 -1.15 13676
0.00 0.00 1.34 7.18 6.66 0.20 -0.56 -1.16 13683
0.00 0.00 1.65 7.18 6.61 0.05 -0.45 -1.16 13690
0.00 0.00 1.60 7.16 6.64 -0.10 -0.35 -1.14 13698
0.00 0.00 1.57 7.03 7.33 -0.29 -0.30 -1.11 13705
0.00 0.00 1.58 6.57 6.72 -0.47 -0.26 -1.05 13712
0.00 0.00 1.71 5.91 6.89 -0.60 -0.24 -0.97 13719
0.00 0.00 2.04 5.43 7.15 -0.74 -0.22 -0.90 13726
0.00 0.00 2.53 4.93 7.59 -0.86 -0.15 -0.80 13733
0.00 0.00 2.92 4.52 8.01 -1.02 -0.07 -0.71 13741
0.01 -0.00 3.18 3.92 8.40 -1.20 0.06 -0.58 13748
0.00 0.00 3.18 3.44 8.97 -1.35 0.15 -0.41 13755
0.00 0.00 3.02 2.93 9.30 -1.52 0.24 -0.26 13762
0.00 0.00 2.82 2.27 9.67 -1.67 0.29 -0.06 13769
0.00 0.00 2.68 1.70 9.82 -1.75 0.33 0.15 13776
0.00 0.00 2.61 0.96 9.81 -1.84 0.37 0.30 13784
0.00 0.00 2.63 0.19 9.79 -1.87 0.41 0.45 13791
0.00 0.00 2.63 -0.48 9.70 -1.87 0.46 0.53 13798
0.00 0.00 2.61 -1.19 9.80 -1.81 0.53 0.58 13805
0.00 0.00 2.60 -1.59 10.10 -1.78 0.59 0.58 13812
0.00 0.00 2.51 -2.00 10.69 -1.71 0.66 0.55 13819
0.00 0.00 2.48 -2.15 11.47 -1.69 0.72 0.51 13827
0.00 0.00 2.37 -2.17 11.93 -1.69 0.76 0.46 13834
0.00 0.00 2.20 -2.37 12.25 -1.73 0.79 0.42 13841
0.00 0.00 2.18 -2.71 12.25 -1.77 0.79 0.39 13848
0.00 0.00 2.00 -3.05 12.28 -1.79 0.78 0.37 13855
0.00 0.00 1.93 -3.54 12.25 -1.78 0.77 0.36 13862
0.00 0.00 1.92 -3.88 12.18 -1.75 0.77 0.36 13870
0.00 0.00 1.92 -4.12 12.45 -1.70 0.77 0.36 13877
0.00 0.00 2.44 -4.26 12.81 -1.66 0.77 0.36 13884
0.00 0.00 1.70 -4.33 12.85 -1.65 0.76 0.35 13891
0.00 0.00 1.51 -4.55 12.57 -1.64 0.73 0.34 13898
0.00 0.00 1.42 -5.48 11.89 -1.61 0.71 0.31 13905
0.00 -0.00 1.35 -5.22 11.45 -1.52 0.68 0.27 13913
0.00 0.00 1.23 -5.59 11.06 -1.40 0.66 0.23 13920
0.00 0.00 1.09 -5.60 11.06 -1.23 0.66 0.21 13927
0.00 0.00 0.90 -5.32 11.47 -1.07 0.65 0.18 13934
0.00 0.00 0.66 -5.07 11.73 -1.02 0.63 0.19 13941
0.00 0.00 0.44 -4.91 11.57 -0.99 0.57 0.20 13948
0.00 0.00 0.36 -5.00 11.31 -0.97 0.50 0.23 13956
0.00 0.00 0.59 -5.08 11.13 -0.93 0.45 0.26 13963
0.00 0.00 0.85 -5.11 10.95 -0.87 0.45 0.30 13970
0.00 0.00 1.03 -5.10 10.72 -0.82 0.49 0.33 13977
0.00 0.00 1.22 -5.14 10.64 -0.76 0.58 0.36 13984
0.00 0.00 1.35 -5.02 10.61 -0.72 0.67 0.40 13991
0.00 0.00 1.57 -5.15 10.63 -0.69 0.81 0.43 13999
0.00 0.00 1.46 -5.29 10.32 -0.65 0.94 0.48 14006
0.00 0.00 1.22 -5.43 9.93 -0.59 1.04 0.52 14013
0.00 0.00 0.94 -5.71 9.55 -0.50 1.07 0.55 14020
0.00 0.00 0.55 -6.05 9.71 -0.38 1.04 0.58 14027
0.00 0.00 0.10 -6.22 9.77 -0.31 0.94 0.60 14034
0.00 0.00 -0.44 -6.50 9.81 -0.22 0.74 0.62 14042
0.00 0.00 -1.00 -6.34 10.42 -0.17 0.47 0.63 14049
0.00 0.00 -1.04 -6.43 10.70 -0.21 0.22 0.63 14056
0.00 0.00 -0.73 -6.48 10.25 -0.30 0.01 0.63 14063
0.00 0.00 -0.41 -6.66 9.75 -0.42 -0.08 0.63 14070
0.00 0.00 0.06 -6.98 9.08 -0.50 -0.05 0.62 14077
0.00 0.00 0.51 -7.61 8.63 -0.52 0.11 0.61 14085
0.00 0.00 0.91 -8.11 8.57 -0.49 0.28 0.58 14092
0.00 0.00 1.21 -8.72 8.05 -0.46 0.51 0.54 14099
0.00 0.00 1.10 -9.24 7.45 -0.41 0.70 0.50 14106
0.00 0.00 0.75 -9.65 6.99 -0.33 0.88 0.47 14113
0.00 -0.00 0.34 -9.98 6.22 -0.21 1.04 0.46 14120
0.00 0.00 -0.15 -10.15 5.45 -0.12 1.15 0.47 14128
0.00 0.00 -1.08 -10.50 5.16 0.03 1.22 0.50 14135
0.00 0.00 -6.16 -15.05 8.45 0.28 0.92 0.54 14142
0.00 0.00 -8.94 -13.37 10.05 0.91 0.03 0.61 14149
0.00 0.00 -7.07 -12.32 4.05 1.15 -0.50 0.70 14156
0.00 -0.00 -7.02 -15.30 4.42 1.25 -1.05 0.76 14163
0.00 0.00 -10.19 -18.78 6.73 1.40 -1.80 0.70 14171
0.00 0.00 -10.85 -19.78 5.12 1.55 -2.60 0.50 14178
-0.00 0.03 -4.24 -7.30 9.65 1.61 -3.62 0.21 14185
-0.00 0.05 -11.06 5.05 42.17 1.31 -4.28 -0.29 14193
-0.02 0.23 1.00 0.05 17.56 0.30 -2.10 -0.04 14199
-0.03 0.40 -0.68 -0.28 12.86 -0.20 -0.23 -0.05 14208
-0.04 0.54 -1.11 -2.46 10.68 -0.15 -0.07 -0.16 14215
-0.03 0.58 -0.10 -2.91 10.65 -0.07 -0.05 -0.08 14221
-0.03 0.63 0.00 -1.23 10.17 -0.03 0.01 -0.02 14228
-0.04 0.65 -0.02 -0.66 9.85 -0.02 0.05 -0.02 14235
-0.02 0.63 0.25 -0.53 9.69 -0.00 0.07 -0.03 14242
-0.00 0.62 0.57 -0.87 9.70 -0.00 0.08 -0.03 14249
-0.01 0.62 0.40 -0.89 9.84 -0.01 0.06 -0.03 14257
-0.01 0.59 0.32 -0.80 9.82 -0.02 0.05 -0.03 14264
-0.02 0.64 0.45 -0.77 9.81 -0.02 0.04 -0.03 14271
-0.01 0.63 0.38 -0.80 9.81 -0.01 0.04 -0.03 14278
0.00 0.62 0.28 -0.75 9.82 -0.01 0.04 -0.04 14285
-0.00 0.59 0.39 -0.79 9.80 -0.02 0.04 -0.04 14292
-0.01 0.62 0.46 -0.79 9.81 -0.01 0.04 -0.04 14300
-0.03 0.62 0.44 -0.72 9.77 -0.01 0.02 -0.05 14307
-0.04 0.62 0.41 -0.76 9.70 -0.01 0.02 -0.05 14314
-0.03 0.63 0.37 -0.73 9.69 -0.01 0.00 -0.05 14321
-0.01 0.62 0.34 -0.74 9.67 -0.01 0.00 -0.05 14328
-0.01 0.62 0.33 -0.74 9.75 -0.01 0.01 -0.05 14336
-0.01 0.62 0.34 -0.77 9.75 -0.00 0.01 -0.05 14343
-0.03 0.61 0.33 -0.77 9.77 -0.00 0.02 -0.05 14350
-0.03 0.61 0.31 -0.73 9.80 -0.00 0.02 -0.05 14357
-0.02 0.64 0.31 -0.76 9.81 -0.00 0.03 -0.05 14364
-0.01 0.63 0.33 -0.75 10.39 -0.00 0.03 -0.05 14371
-0.02 0.59 0.33 -0.74 9.75 0.00 0.03 -0.04 14379
-0.02 0.58 0.33 -0.75 9.74 -0.00 0.04 -0.05 14386
-0.03 0.57 0.33 -0.74 9.80 -0.00 0.04 -0.05 14393
-0.01 0.57 0.33 -0.73 9.79 -0.00 0.04 -0.05 14400
-0.01 0.58 0.35 -0.77 9.83 -0.00 0.05 -0.05 14407
0.00 0.57 0.39 -0.79 9.78 -0.00 0.05 -0.05 14414
-0.01 0.57 0.33 -0.74 9.81 -0.00 0.05 -0.06 14422
-0.01 0.55 0.34 -0.78 9.79 -0.01 0.05 -0.06 14429
-0.02 0.55 0.33 -0.77 9.79 -0.03 0.05 -0.05 14436
-0.01 0.55 0.33 -0.72 9.79 -0.00 0.05 -0.05 14443
-0.01 0.55 0.34 -0.73 9.78 0.00 0.05 -0.05 14450
-0.00 0.53 0.37 -0.76 9.79 -0.00 0.05 -0.05 14457
-0.01 0.54 0.32 -0.71 10.39 0.01 0.06 -0.05 14465
-0.01 0.49 0.39 -0.78 9.80 0.00 0.06 -0.05 14472
-0.02 0.49 0.35 -0.76 9.79 0.00 0.05 -0.05 14479
0.01 0.49 0.36 -0.79 9.79 0.00 0.06 -0.05 14486
0.02 0.49 0.37 -0.75 9.80 0.01 0.05 -0.05 14493
0.01 0.48 0.36 -0.76 9.79 0.00 0.06 -0.05 14500
0.01 0.49 0.36 -0.77 9.79 0.00 0.06 -0.04 14508
0.01 0.48 0.36 -0.78 9.79 -0.00 0.05 -0.05 14515
0.01 0.48 0.34 -0.74 9.76 -0.00 0.06 -0.05 14522
0.01 0.48 0.33 -0.72 9.78 -0.00 0.06 -0.05 14529
0.02 0.48 0.39 -0.76 9.72 -0.00 0.06 -0.05 14536
0.02 0.46 0.37 -0.73 9.72 -0.00 0.06 -0.05 14543
0.01 0.46 0.35 -0.74 9.81 -0.00 0.06 -0.05 14551
0.00 0.44 0.37 -0.73 9.79 -0.00 0.06 -0.05 14558
0.02 0.43 0.38 -0.75 9.75 0.00 0.06 -0.05 14565
0.02 0.43 0.39 -0.79 9.77 0.00 0.05 -0.05 14572
0.04 0.42 0.36 -0.78 9.74 0.00 0.05 -0.05 14579
0.02 0.41 0.34 -0.77 9.77 0.00 0.05 -0.05 14586
0.02 0.39 0.38 -0.74 9.80 0.00 0.05 -0.05 14594
0.01 0.39 0.37 -0.78 9.77 0.00 0.05 -0.05 14601
0.01 0.39 0.38 -0.75 9.77 -0.00 0.05 -0.05 14608
0.03 0.40 0.41 -0.76 9.80 0.00 0.05 -0.05 14615
0.03 0.39 0.40 -0.76 9.80 0.00 0.05 -0.05 14622
0.03 0.40 0.40 -0.79 9.81 0.00 0.04 -0.05 14629
0.02 0.40 0.41 -0.76 9.79 0.01 0.05 -0.06 14637
0.02 0.37 0.40 -0.77 9.78 0.01 0.04 -0.06 14644
0.04 0.36 0.37 -0.76 9.77 0.01 0.05 -0.06 14651
0.04 0.36 0.37 -0.79 9.80 0.01 0.05 -0.06 14658
0.05 0.34 0.40 -0.78 9.75 0.01 0.05 -0.06 14665
0.04 0.35 0.39 -0.78 9.76 0.01 0.05 -0.06 14672
0.04 0.35 0.37 -0.77 9.75 0.01 0.05 -0.05 14680
0.03 0.36 0.40 -0.78 9.74 0.01 0.05 -0.05 14687
0.04 0.36 0.40 -0.79 9.76 0.01 0.05 -0.05 14694
0.04 0.29 0.35 -0.77 9.73 0.01 0.06 -0.06 14701
0.04 0.31 0.36 -0.74 9.74 0.01 0.06 -0.06 14708
0.03 0.30 0.39 -0.80 9.73 0.01 0.06 -0.06 14715
0.03 0.29 0.40 -0.79 9.79 0.01 0.06 -0.06 14723
0.03 0.23 0.39 -0.79 9.75 0.01 0.06 -0.06 14730
0.06 0.22 0.42 -0.78 9.70 0.01 0.07 -0.06 14737
0.07 0.20 0.45 -0.79 9.79 0.01 0.07 -0.06 14744
0.07 0.23 0.42 -0.81 9.75 0.01 0.07 -0.06 14751
0.06 0.19 0.42 -0.80 9.80 0.02 0.07 -0.06 14758
0.06 0.14 0.44 -0.80 9.76 0.02 0.07 -0.07 14766
0.07 0.16 0.40 -0.79 9.89 0.02 0.07 -0.07 14773
0.08 0.20 0.40 -0.84 9.81 0.03 0.07 -0.06 14780
0.09 0.15 0.44 -0.76 9.81 0.03 0.07 -0.06 14787
0.10 0.11 0.44 -0.83 9.79 0.03 0.07 -0.03 14794
0.07 0.04 0.41 -0.80 9.80 0.03 0.07 -0.06 14801
0.06 0.03 0.43 -0.80 9.80 0.03 0.07 -0.06 14809
0.06 0.01 0.43 -0.81 9.81 0.02 0.07 -0.06 14816
0.07 0.01 0.43 -0.83 9.83 0.03 0.07 -0.06 14823
0.07 0.00 0.46 -0.83 9.83 0.03 0.07 -0.06 14830
0.06 0.00 0.43 -0.86 9.83 0.04 0.07 -0.06 14837
0.05 -0.00 0.44 -0.83 9.84 0.04 0.07 -0.06 14844
0.05 -0.01 0.46 -0.82 9.91 0.05 0.08 -0.05 14852
0.06 -0.00 0.40 -0.86 9.91 0.07 0.09 -0.05 14859
0.06 -0.01 0.52 -0.92 9.94 0.10 0.10 -0.04 14866
0.06 -0.01 0.54 -0.89 10.07 0.15 0.14 -0.04 14873
0.05 -0.01 0.57 -0.73 10.35 0.22 0.17 -0.04 14880
0.05 -0.00 0.70 -0.83 10.87 0.38 0.23 -0.06 14887
0.03 -0.00 1.14 -0.89 12.20 0.81 0.34 -0.13 14895
0.04 -0.00 1.31 -1.02 15.31 1.44 0.40 -0.22 14902
0.05 -0.00 1.28 -1.01 16.82 2.15 0.29 -0.31 14909
0.06 -0.01 0.97 -1.05 15.97 2.56 0.15 -0.38 14916
0.05 -0.01 0.90 -1.03 15.15 2.86 0.06 -0.41 14923
0.04 -0.00 0.99 -1.34 15.25 3.04 0.00 -0.40 14930
0.04 -0.00 1.38 -1.34 16.32 3.23 -0.00 -0.41 14938
0.01 0.00 1.67 -1.62 16.35 3.47 0.10 -0.42 14945
0.02 -0.00 2.02 -2.07 16.28 3.63 0.29 -0.44 14952
0.01 -0.00 2.97 -2.33 17.72 3.72 0.55 -0.48 14959
0.00 0.00 3.08 -2.35 19.12 3.70 0.88 -0.54 14966
0.00 0.00 2.73 -1.39 19.32 3.66 1.03 -0.59 14973
0.00 0.00 1.18 0.25 18.97 3.54 1.01 -0.62 14981
0.00 0.00 0.00 1.38 16.95 3.33 0.74 -0.61 14988
0.01 -0.00 -0.04 2.98 14.60 2.95 0.48 -0.57 14995
0.00 0.00 -0.28 6.38 13.29 2.55 0.17 -0.57 15002
0.00 0.00 -0.29 6.33 11.51 2.25 -0.09 -0.63 15009
0.00 0.00 0.03 9.72 10.54 1.96 -0.27 -0.75 15016
0.00 0.00 0.64 7.87 8.86 1.64 -0.38 -0.97 15024
0.00 0.00 0.91 8.38 9.46 1.29 -0.46 -1.16 15031
0.00 0.00 0.74 8.92 8.68 0.96 -0.41 -1.31 15038
0.00 0.00 0.70 8.43 7.20 0.77 -0.41 -1.46 15045
0.00 0.00 0.63 8.16 6.56 0.62 -0.44 -1.55 15052
0.00 0.00 0.64 8.19 6.20 0.49 -0.49 -1.63 15059
0.00 0.00 0.80 8.14 5.96 0.36 -0.54 -1.67 15067
0.00 0.00 1.08 8.08 5.74 0.19 -0.58 -1.67 15074
0.00 -0.00 1.33 7.97 5.57 0.04 -0.60 -1.62 15081
0.00 0.00 1.52 7.64 5.76 -0.14 -0.60 -1.56 15088
0.00 0.00 1.67 7.25 6.22 -0.32 -0.60 -1.46 15095
0.00 0.00 2.44 6.88 6.80 -0.49 -0.57 -1.34 15102
0.00 0.00 2.32 6.51 7.17 -0.70 -0.48 -1.21 15110
0.00 0.00 2.78 6.04 7.61 -0.93 -0.34 -1.06 15117
0.00 0.00 3.00 5.30 7.85 -1.12 -0.20 -0.88 15124
0.00 0.00 3.14 4.30 8.01 -1.31 -0.02 -0.73 15131
0.00 0.00 3.23 3.30 8.61 -1.43 0.18 -0.54 15138
0.00 0.00 3.31 2.62 9.63 -1.57 0.34 -0.37 15145
0.00 0.00 3.21 2.11 10.54 -1.74 0.53 -0.15 15153
0.00 0.00 2.94 1.69 11.28 -1.91 0.65 0.08 15160
0.00 0.00 2.45 0.98 11.72 -2.13 0.72 0.28 15167
0.00 0.00 1.89 0.02 11.65 -2.28 0.73 0.48 15174
0.00 0.00 1.62 -1.06 11.20 -2.37 0.70 0.62 15181
0.00 0.00 1.60 -2.38 11.01 -2.36 0.67 0.72 15188
0.00 0.00 1.63 -3.39 11.21 -2.29 0.65 0.73 15196
0.00 -0.00 1.70 -3.98 11.55 -2.17 0.66 0.70 15203
0.00 0.00 1.66 -4.19 11.76 -2.08 0.70 0.63 15210
0.00 0.00 1.45 -4.28 11.93 -2.00 0.72 0.56 15217
0.00 0.00 1.17 -4.28 12.10 -1.94 0.73 0.48 15224
0.00 0.00 0.95 -4.40 12.02 -1.89 0.70 0.42 15232
0.00 0.00 0.74 -4.46 11.83 -1.80 0.65 0.41 15239
0.00 -0.00 0.34 -4.60 11.64 -1.70 0.55 0.41 15246
0.00 0.00 0.15 -4.60 11.63 -1.58 0.44 0.41 15253
0.00 0.00 0.20 -4.42 11.89 -1.48 0.32 0.42 15260
0.00 0.00 0.62 -4.08 12.26 -1.45 0.26 0.44 15267
0.00 0.00 0.98 -3.82 12.47 -1.47 0.28 0.45 15275
0.00 0.00 1.06 -3.67 12.46 -1.54 0.35 0.46 15282
0.00 0.00 0.99 -3.61 12.34 -1.64 0.42 0.46 15289
0.00 0.00 0.83 -3.74 12.14 -1.71 0.50 0.46 15296
0.00 0.00 0.62 -3.96 11.64 -1.74 0.55 0.47 15303
0.00 0.00 0.45 -4.24 11.28 -1.73 0.57 0.48 15310
0.00 0.00 0.37 -4.63 10.72 -1.66 0.56 0.50 15318
0.00 0.00 0.39 -5.01 10.30 -1.55 0.56 0.51 15325
0.00 0.00 0.41 -5.48 10.05 -1.38 0.55 0.51 15332
0.00 0.00 0.22 -6.16 9.99 -1.20 0.53 0.50 15339
0.00 0.00 -0.10 -6.52 10.09 -0.98 0.47 0.49 15346
0.00 0.00 -0.71 -6.80 9.85 -0.78 0.31 0.47 15353
0.00 0.00 -1.04 -7.04 9.85 -0.63 0.08 0.45 15361
0.00 0.00 -1.06 -7.02 10.27 -0.50 -0.13 0.45 15368
0.00 0.00 -0.31 -6.89 11.20 -0.45 -0.29 0.45 15375
0.00 0.00 0.67 -6.87 12.01 -0.48 -0.31 0.47 15382
0.00 0.00 1.54 -6.71 12.08 -0.62 -0.19 0.48 15389
0.00 0.00 2.25 -7.21 11.60 -0.81 0.11 0.50 15396
0.00 0.00 2.74 -7.75 10.98 -1.02 0.46 0.50 15404
0.00 0.00 2.40 -8.73 10.30 -1.14 0.80 0.48 15411
0.00 0.00 1.57 -9.92 9.27 -1.21 1.00 0.43 15418
0.00 0.00 0.04 -10.91 8.18 -1.18 1.08 0.39 15425
0.00 0.00 -1.52 -11.78 6.97 -1.08 1.04 0.35 15432
0.00 0.00 -2.68 -12.35 6.44 -0.90 0.93 0.32 15439
0.00 0.00 -3.53 -12.63 6.26 -0.70 0.73 0.28 15447
0.00 0.00 -3.83 -12.92 5.82 -0.59 0.52 0.22 15454
0.00 0.00 -4.98 -16.83 6.27 -0.44 0.15 0.13 15461
0.00 0.00 -6.13 -18.51 9.50 0.17 -0.44 -0.04 15468
0.00 0.00 -2.18 -15.66 0.98 0.50 -0.45 -0.14 15475
0.00 0.00 -2.45 -21.07 2.27 0.82 -0.67 -0.27 15482
0.00 0.00 -3.47 -24.42 5.89 1.20 -0.90 -0.41 15490
-0.00 0.03 -5.18 -26.59 1.07 1.59 -1.15 -0.49 15497
-0.00 0.01 -1.69 -9.52 9.75 2.13 -1.78 -0.53 15504
-0.01 0.12 1.43 -5.58 14.42 2.49 -1.43 -0.48 15511
-0.03 0.28 2.43 -2.22 40.65 1.23 -3.00 -0.49 15518
-0.02 0.44 2.03 -0.33 10.41 -0.08 -0.53 0.01 15525
-0.02 0.52 -0.23 -1.27 10.15 -0.22 -0.02 -0.07 15534
-0.02 0.62 -0.91 -2.76 11.20 -0.08 -0.11 -0.11 15541
-0.03 0.67 0.40 -0.61 9.93 -0.02 -0.03 -0.06 15547
-0.03 0.70 0.43 -0.71 9.70 -0.01 0.02 -0.04 15554
-0.05 0.70 0.16 -0.60 9.64 -0.03 0.02 -0.05 15561
-0.01 0.71 0.29 -0.60 9.68 -0.01 0.02 -0.06 15568
0.00 0.68 0.46 -0.98 9.85 -0.02 0.02 -0.05 15576
0.00 0.75 0.30 -0.83 9.83 -0.03 0.02 -0.05 15583
-0.00 0.69 0.25 -0.79 9.84 -0.02 0.03 -0.06 15590
-0.02 0.70 0.32 -0.77 9.82 -0.02 0.04 -0.05 15597
-0.01 0.71 0.28 -0.74 9.80 -0.01 0.04 -0.05 15604
-0.01 0.71 0.32 -0.74 9.82 -0.01 0.05 -0.06 15611
0.00 0.68 0.34 -0.72 9.77 -0.01 0.04 -0.05 15619
0.00 0.68 0.39 -0.72 9.82 -0.01 0.04 -0.06 15626
-0.00 0.69 0.36 -0.67 9.81 -0.01 0.04 -0.07 15633
-0.02 0.71 0.33 -0.68 9.81 -0.01 0.04 -0.07 15640
-0.02 0.66 0.30 -0.69 9.79 -0.01 0.04 -0.06 15647
0.00 0.67 0.27 -0.69 9.78 -0.01 0.04 -0.06 15654
0.00 0.66 0.28 -0.69 9.82 -0.00 0.04 -0.07 15662
-0.02 0.68 0.29 -0.69 9.81 -0.00 0.04 -0.06 15669
-0.03 0.67 0.30 -0.71 9.81 0.00 0.04 -0.06 15676
-0.02 0.66 0.32 -0.69 9.81 -0.00 0.05 -0.06 15683
-0.02 0.66 0.30 -0.66 9.81 -0.00 0.05 -0.06 15690
-0.02 0.67 0.34 -0.71 9.81 -0.00 0.05 -0.06 15697
-0.01 0.66 0.30 -0.74 9.78 -0.00 0.05 -0.06 15705
-0.01 0.65 0.28 -0.71 9.80 -0.01 0.06 -0.05 15712
-0.02 0.65 0.32 -0.72 9.78 -0.00 0.05 -0.05 15719
-0.03 0.66 0.33 -0.70 9.81 -0.01 0.06 -0.06 15726
-0.01 0.68 0.33 -0.67 9.75 -0.01 0.06 -0.06 15733
-0.01 0.68 0.35 -0.68 9.77 -0.01 0.06 -0.06 15740
-0.01 0.66 0.36 -0.69 9.76 -0.01 0.05 -0.06 15748
-0.01 0.67 0.33 -0.65 9.81 -0.00 0.05 -0.06 15755
-0.02 0.65 0.31 -0.70 9.78 -0.00 0.04 -0.06 15762
-0.02 0.67 0.29 -0.70 9.78 -0.00 0.05 -0.06 15769
-0.01 0.66 0.34 -0.70 9.78 -0.00 0.05 -0.06 15776
0.00 0.66 0.30 -0.69 9.81 -0.03 0.04 -0.05 15783
-0.01 0.64 0.31 -0.70 9.81 -0.00 0.05 -0.05 15791
-0.01 0.63 0.32 -0.72 9.80 -0.00 0.05 -0.05 15798
-0.01 0.62 0.32 -0.69 9.80 -0.00 0.05 -0.05 15805
-0.01 0.61 0.35 -0.68 9.79 -0.00 0.05 -0.05 15812
-0.00 0.61 0.33 -0.70 9.79 -0.03 0.05 -0.05 15819
0.00 0.62 0.33 -0.71 9.79 -0.00 0.04 -0.05 15826
0.00 0.61 0.34 -0.68 9.80 0.00 0.04 -0.05 15834
0.00 0.59 0.35 -0.69 9.80 -0.01 0.04 -0.05 15841
0.00 0.58 0.31 -0.68 9.77 -0.00 0.04 -0.05 15848
-0.01 0.59 0.32 -0.73 9.76 -0.00 0.03 -0.05 15855
0.00 0.59 0.33 -0.68 9.76 -0.00 0.03 -0.05 15862
0.02 0.57 0.35 -0.65 9.79 0.00 0.03 -0.06 15869
0.00 0.55 0.35 -0.68 9.80 0.00 0.03 -0.06 15877
0.01 0.52 0.34 -0.70 9.76 -0.00 0.03 -0.06 15884
0.00 0.53 0.29 -0.70 9.78 -0.00 0.03 -0.06 15891
0.00 0.54 0.28 -0.70 9.75 -0.00 0.03 -0.06 15898
0.00 0.54 0.33 -0.70 9.78 0.00 0.04 -0.06 15905
0.02 0.53 0.31 -0.69 9.80 0.03 0.04 -0.06 15912
-0.00 0.49 0.32 -0.70 9.80 0.00 0.04 -0.06 15920
-0.01 0.47 0.34 -0.69 9.81 -0.00 0.04 -0.06 15927
-0.02 0.50 0.35 -0.70 9.77 0.01 0.04 -0.06 15934
-0.01 0.49 0.33 -0.70 9.81 0.00 0.04 -0.06 15941
0.00 0.49 0.30 -0.73 9.80 0.01 0.04 -0.06 15948
0.01 0.48 0.32 -0.70 9.74 0.01 0.04 -0.06 15955
0.00 0.44 0.34 -0.69 9.69 0.01 0.04 -0.06 15963
0.01 0.43 0.34 -0.70 9.80 0.00 0.04 -0.06 15970
0.01 0.44 0.33 -0.72 9.74 0.01 0.04 -0.06 15977
0.02 0.44 0.35 -0.74 9.75 0.01 0.04 -0.06 15984
0.03 0.44 0.32 -0.74 9.74 0.00 0.04 -0.06 15991
0.04 0.39 0.33 -0.75 9.77 0.01 0.05 -0.06 15998
0.03 0.38 0.31 -0.73 9.82 0.01 0.05 -0.07 16006
0.02 0.34 0.34 -0.72 9.73 0.01 0.06 -0.06 16013
0.03 0.37 0.35 -0.73 9.79 0.01 0.06 -0.07 16020
0.04 0.38 0.31 -0.72 9.77 0.01 0.06 -0.07 16027
0.05 0.36 0.34 -0.71 9.78 0.01 0.06 -0.07 16034
0.05 0.37 0.35 -0.73 9.80 0.01 0.07 -0.07 16041
0.07 0.30 0.34 -0.72 9.80 0.02 0.06 -0.07 16049
0.07 0.26 0.35 -0.69 9.79 0.02 0.07 -0.07 16056
0.07 0.28 0.35 -0.73 9.80 0.02 0.06 -0.07 16063
0.09 0.26 0.36 -0.74 9.83 0.03 0.07 -0.07 16070
0.09 0.19 0.35 -0.75 9.83 0.03 0.08 -0.07 16077
0.06 0.18 0.37 -0.74 9.82 0.03 0.08 -0.07 16084
0.07 0.20 0.43 -0.76 9.83 0.03 0.08 -0.07 16092
0.07 0.17 0.41 -0.76 9.80 0.03 0.08 -0.07 16099
0.09 0.10 0.41 -0.77 9.81 0.03 0.08 -0.08 16106
0.11 0.05 0.44 -0.75 9.79 0.03 0.08 -0.08 16113
0.11 0.03 0.44 -0.75 9.81 0.04 0.07 -0.08 16120
0.10 0.02 0.44 -0.75 9.81 0.04 0.07 -0.07 16128
0.09 0.01 0.40 -0.78 9.82 0.04 0.08 -0.07 16135
0.09 0.00 0.37 -0.76 9.88 0.05 0.08 -0.07 16142
0.08 0.00 0.29 -0.78 9.91 0.07 0.10 -0.07 16149
0.08 0.01 0.25 -0.79 10.01 0.10 0.12 -0.05 16156
0.08 -0.01 0.34 -0.80 10.07 0.15 0.17 -0.04 16163
0.11 -0.01 0.40 -0.81 10.21 0.21 0.25 -0.03 16171
0.12 -0.01 0.34 -0.87 10.49 0.32 0.32 -0.02 16178
0.09 -0.01 0.33 -0.86 10.91 0.51 0.41 -0.01 16185
0.10 -0.01 0.10 -0.66 11.24 0.84 0.48 -0.02 16192
0.09 -0.01 0.75 -1.05 13.00 1.38 0.49 -0.05 16199
0.09 -0.00 0.76 -1.12 14.67 1.87 0.40 -0.10 16206
0.07 -0.01 0.81 -1.06 14.53 2.12 0.34 -0.13 16214
0.06 -0.01 0.84 -1.34 13.85 2.29 0.30 -0.16 16221
0.03 -0.00 0.88 -1.38 13.46 2.40 0.25 -0.18 16228
0.05 -0.01 1.10 -1.45 13.40 2.52 0.21 -0.20 16235
0.03 -0.00 1.30 -1.53 13.63 2.66 0.20 -0.23 16242
0.03 -0.00 1.42 -1.69 14.28 2.78 0.19 -0.28 16249
0.03 -0.00 1.71 -1.93 14.47 2.90 0.18 -0.31 16257
0.00 -0.00 2.37 -2.41 15.32 2.96 0.20 -0.37 16264
0.00 0.00 2.84 -2.43 15.98 2.98 0.27 -0.43 16271
0.01 -0.00 3.03 -2.35 16.60 2.95 0.43 -0.48 16278
0.02 -0.00 2.32 -0.85 15.93 2.91 0.52 -0.55 16285
0.00 -0.00 1.42 0.95 14.96 2.77 0.48 -0.60 16292
0.00 0.00 0.99 2.03 14.03 2.56 0.26 -0.62 16300
0.00 0.00 0.83 2.96 13.38 2.30 0.07 -0.67 16307
0.00 0.00 0.04 5.51 12.75 2.07 -0.09 -0.79 16314
0.00 0.00 0.27 6.85 11.41 1.86 -0.14 -1.01 16321
0.00 -0.00 0.29 6.69 10.30 1.54 -0.17 -1.26 16328
0.00 0.00 -0.19 6.45 9.82 1.31 -0.22 -1.59 16335
0.00 0.00 -0.15 6.63 10.07 1.07 -0.27 -1.82 16343
0.00 0.00 -0.26 6.97 9.78 0.82 -0.33 -1.96 16350
0.00 0.00 0.09 6.82 8.73 0.63 -0.46 -2.08 16357
0.00 0.00 0.60 6.52 8.07 0.48 -0.54 -2.14 16364
0.00 0.00 1.18 6.39 7.65 0.35 -0.61 -2.17 16371
0.00 0.00 1.75 6.32 7.63 0.25 -0.62 -2.17 16378
0.00 0.00 2.33 6.39 7.73 0.10 -0.59 -2.14 16386
0.00 0.00 2.70 6.43 7.90 -0.06 -0.52 -2.07 16393
0.00 0.00 3.04 6.45 7.87 -0.29 -0.45 -1.97 16400
0.00 0.00 3.23 6.18 7.64 -0.53 -0.37 -1.83 16407
0.00 0.00 3.39 5.66 7.69 -0.73 -0.31 -1.65 16414
0.00 0.00 3.65 5.02 7.58 -0.91 -0.24 -1.46 16421
0.00 0.00 3.89 4.25 7.40 -1.03 -0.18 -1.23 16429
0.00 0.00 4.09 3.67 7.12 -1.13 -0.10 -1.01 16436
0.00 0.00 4.20 3.08 7.10 -1.19 0.02 -0.74 16443
0.00 -0.00 4.27 2.69 7.39 -1.22 0.14 -0.45 16450
0.00 0.00 4.11 2.41 7.65 -1.26 0.28 -0.22 16457
0.00 0.00 3.87 2.12 8.09 -1.33 0.41 0.07 16464
0.00 0.00 3.62 1.87 8.58 -1.34 0.50 0.32 16472
0.00 0.00 3.22 1.55 9.15 -1.37 0.59 0.52 16479
0.00 0.00 2.86 1.27 9.83 -1.41 0.65 0.72 16486
0.00 -0.00 2.57 0.96 10.28 -1.47 0.70 0.86 16493
0.00 0.00 2.34 0.50 10.75 -1.56 0.75 0.99 16500
0.00 0.00 1.95 0.13 11.04 -1.60 0.78 1.08 16507
0.00 0.00 1.64 -0.33 11.27 -1.66 0.80 1.14 16515
0.00 0.00 1.38 -0.88 11.37 -1.69 0.78 1.16 16522
0.00 0.00 1.25 -1.17 11.53 -1.73 0.75 1.15 16529
0.00 0.00 1.19 -1.55 11.54 -1.74 0.71 1.11 16536
0.00 0.00 1.16 -1.94 11.53 -1.74 0.69 1.03 16543
0.00 0.00 1.18 -2.21 11.58 -1.71 0.66 0.95 16550
0.00 0.00 1.39 -2.40 11.72 -1.69 0.65 0.84 16558
0.00 0.00 1.38 -2.56 11.48 -1.65 0.65 0.76 16565
0.00 0.00 1.32 -2.85 11.33 -1.59 0.63 0.66 16572
0.00 -0.00 1.18 -3.17 11.16 -1.51 0.59 0.58 16579
0.00 0.00 1.03 -3.41 11.23 -1.40 0.51 0.53 16586
0.00 0.00 1.13 -3.57 11.41 -1.30 0.44 0.48 16593
0.00 0.00 1.63 -3.53 12.20 -1.22 0.43 0.45 16601
0.00 0.00 2.25 -3.42 13.00 -1.22 0.52 0.42 16608
0.00 0.00 2.49 -3.36 13.09 -1.29 0.64 0.43 16615
0.00 0.00 2.17 -3.45 13.29 -1.41 0.75 0.45 16622
0.00 0.00 1.64 -3.80 13.09 -1.52 0.78 0.50 16629
0.00 0.00 1.17 -4.22 12.70 -1.60 0.74 0.55 16636
0.00 0.00 0.74 -4.71 12.17 -1.61 0.65 0.62 16644
0.00 0.00 0.45 -5.17 11.49 -1.57 0.56 0.71 16651
0.00 0.00 0.29 -5.56 11.11 -1.47 0.51 0.81 16658
0.00 0.00 0.03 -5.99 10.77 -1.32 0.44 0.92 16665
0.00 0.00 -0.06 -6.28 10.54 -1.18 0.35 1.02 16672
0.00 0.00 0.02 -6.51 10.55 -1.01 0.19 1.10 16679
0.00 0.00 0.53 -6.64 10.79 -0.89 0.04 1.19 16687
0.00 0.00 1.09 -6.71 10.74 -0.77 -0.04 1.27 16694
0.00 0.00 1.37 -6.85 10.78 -0.68 -0.10 1.36 16701
0.00 0.00 1.44 -6.97 11.16 -0.62 -0.12 1.45 16708
0.00 0.00 1.46 -7.11 11.12 -0.59 -0.14 1.52 16715
0.00 0.00 2.14 -7.29 11.56 -0.61 -0.07 1.58 16722
0.00 0.00 2.94 -7.81 11.40 -0.71 0.10 1.63 16730
0.00 0.00 3.05 -8.51 10.83 -0.85 0.38 1.63 16737
0.00 0.00 2.41 -9.54 9.48 -0.97 0.64 1.57 16744
0.00 0.00 1.30 -11.05 8.49 -1.01 0.79 1.47 16751
0.00 0.00 -1.92 -14.12 8.77 -0.77 0.75 1.28 16758
0.00 0.00 -3.39 -14.73 6.40 -0.49 0.68 1.03 16765
0.00 0.00 -4.49 -15.11 5.26 -0.12 0.53 0.78 16773
0.00 0.00 -4.39 -15.86 4.87 0.06 0.38 0.44 16780
0.00 0.00 -4.51 -16.83 5.68 0.20 0.25 0.12 16787
0.00 0.00 -5.34 -17.72 6.97 0.36 -0.04 -0.26 16794
0.00 0.00 -5.18 -18.13 4.76 0.44 -0.28 -0.60 16801
0.00 0.00 -5.80 -20.48 3.91 0.61 -0.69 -0.89 16808
0.00 0.00 -7.99 -24.12 3.48 0.85 -1.25 -1.20 16816
-0.00 0.03 -7.62 -25.91 1.05 1.16 -1.84 -1.46 16823
-0.00 0.03 -0.01 -0.14 6.10 1.74 -2.34 -1.55 16830
-0.02 0.16 5.71 -6.74 17.49 2.36 -1.53 -1.19 16837
-0.03 0.29 5.69 -2.89 37.47 2.38 -2.30 -0.76 16844
-0.04 0.43 3.03 -1.08 15.13 0.58 -1.34 -0.15 16851
-0.03 0.51 -1.61 -3.27 12.40 0.03 -0.18 0.03 16860
-0.02 0.56 -2.31 -3.60 12.00 -0.06 -0.05 -0.01 16866
-0.02 0.56 -0.04 -0.63 10.00 -0.06 -0.02 -0.08 16873
-0.03 0.59 0.29 -1.16 9.70 -0.01 0.02 -0.04 16880
-0.04 0.62 0.16 -0.84 9.81 -0.01 0.05 -0.05 16887
-0.05 0.59 0.06 -0.57 9.71 -0.01 0.06 -0.04 16894
-0.04 0.62 0.20 -0.80 9.81 -0.02 0.07 -0.05 16902
-0.05 0.62 0.22 -0.98 9.88 -0.03 0.07 -0.05 16909
-0.04 0.67 0.23 -0.87 9.86 -0.03 0.08 -0.04 16916
-0.04 0.66 0.20 -0.77 9.87 -0.02 0.08 -0.04 16923
-0.05 0.65 0.21 -0.79 9.82 -0.02 0.09 -0.05 16930
-0.05 0.65 0.22 -0.78 9.79 -0.02 0.09 -0.05 16937
-0.05 0.70 0.27 -0.78 9.81 -0.02 0.09 -0.05 16945
-0.03 0.64 0.27 -0.74 9.82 -0.02 0.09 -0.05 16952
-0.03 0.64 0.28 -0.70 9.81 -0.01 0.08 -0.05 16959
-0.03 0.61 0.31 -0.70 9.74 -0.01 0.08 -0.05 16966
-0.05 0.59 0.32 -0.69 9.70 -0.01 0.07 -0.06 16973
-0.05 0.57 0.27 -0.71 9.80 -0.00 0.06 -0.05 16980
-0.05 0.59 0.27 -0.73 9.75 -0.01 0.06 -0.06 16988
-0.03 0.58 0.26 -0.66 9.78 -0.00 0.05 -0.06 16995
-0.04 0.58 0.22 -0.74 9.81 -0.00 0.05 -0.05 17002
-0.04 0.58 0.21 -0.69 9.81 -0.00 0.06 -0.05 17009
-0.05 0.59 0.23 -0.70 9.79 -0.00 0.07 -0.06 17016
-0.06 0.60 0.24 -0.72 9.80 -0.01 0.07 -0.06 17024
-0.04 0.59 0.26 -0.72 9.77 -0.01 0.08 -0.05 17031
-0.04 0.59 0.25 -0.71 9.80 -0.00 0.08 -0.05 17038
-0.04 0.59 0.26 -0.70 9.70 -0.01 0.07 -0.05 17045
-0.04 0.55 0.29 -0.68 9.81 -0.00 0.07 -0.05 17052
-0.05 0.56 0.30 -0.72 9.72 -0.00 0.07 -0.05 17059
-0.05 0.55 0.29 -0.70 9.78 -0.00 0.07 -0.06 17067
-0.03 0.55 0.29 -0.70 9.79 0.00 0.06 -0.06 17074
-0.03 0.55 0.27 -0.71 9.77 -0.00 0.06 -0.06 17081
-0.03 0.54 0.29 -0.70 9.75 -0.00 0.05 -0.06 17088
-0.03 0.54 0.30 -0.74 9.79 -0.00 0.05 -0.06 17095
-0.02 0.53 0.28 -0.73 9.81 -0.00 0.05 -0.06 17102
-0.02 0.54 0.33 -0.72 9.80 -0.01 0.04 -0.06 17110
-0.02 0.53 0.29 -0.74 9.75 -0.00 0.04 -0.06 17117
-0.02 0.53 0.28 -0.69 9.75 -0.01 0.04 -0.06 17124
-0.03 0.54 0.31 -0.69 9.81 -0.01 0.04 -0.06 17131
-0.03 0.53 0.27 -0.69 9.82 -0.01 0.04 -0.06 17138
-0.03 0.53 0.28 -0.69 9.78 -0.00 0.04 -0.05 17145
-0.03 0.54 0.30 -0.71 9.75 -0.01 0.05 -0.05 17153
-0.02 0.54 0.26 -0.70 9.76 -0.00 0.04 -0.05 17160
-0.02 0.53 0.31 -0.69 9.77 -0.01 0.04 -0.05 17167
-0.02 0.53 0.29 -0.71 9.75 0.00 0.04 -0.05 17174
-0.02 0.53 0.31 -0.72 9.80 -0.00 0.04 -0.05 17181
-0.02 0.53 0.30 -0.71 9.77 0.00 0.03 -0.05 17188
-0.01 0.54 0.27 -0.73 9.77 0.00 0.03 -0.05 17196
0.00 0.53 0.29 -0.73 9.76 0.00 0.03 -0.05 17203
0.00 0.53 0.28 -0.68 9.79 -0.00 0.03 -0.05 17210
-0.01 0.52 0.26 -0.72 9.78 0.00 0.03 -0.05 17217
-0.02 0.52 0.27 -0.71 9.80 0.00 0.03 -0.05 17224
-0.02 0.51 0.25 -0.71 9.79 0.00 0.03 -0.05 17231
-0.00 0.53 0.28 -0.70 9.78 0.00 0.03 -0.05 17239
0.01 0.52 0.26 -0.72 9.81 0.01 0.03 -0.05 17246
-0.01 0.51 0.27 -0.71 9.77 0.00 0.03 -0.05 17253
0.00 0.49 0.30 -0.70 9.81 0.01 0.03 -0.05 17260
-0.00 0.50 0.27 -0.71 9.79 0.01 0.03 -0.05 17267
0.01 0.49 0.26 -0.71 9.78 0.00 0.04 -0.05 17274
0.02 0.50 0.29 -0.73 9.79 0.00 0.04 -0.06 17282
0.01 0.49 0.25 -0.71 9.81 0.00 0.04 -0.06 17289
0.00 0.48 0.27 -0.73 9.79 0.00 0.04 -0.05 17296
0.01 0.47 0.31 -0.71 9.77 0.00 0.04 -0.06 17303
0.00 0.48 0.28 -0.73 9.73 0.00 0.04 -0.06 17310
0.01 0.49 0.26 -0.74 9.79 -0.00 0.05 -0.06 17317
0.02 0.47 0.28 -0.73 9.80 -0.00 0.05 -0.06 17325
0.01 0.48 0.30 -0.74 9.79 0.00 0.05 -0.06 17332
0.02 0.46 0.29 -0.72 9.80 -0.00 0.05 -0.06 17339
0.00 0.44 0.27 -0.72 9.75 -0.00 0.05 -0.06 17346
0.01 0.44 0.26 -0.71 9.77 -0.00 0.05 -0.06 17353
0.01 0.46 0.27 -0.71 9.75 -0.01 0.05 -0.06 17360
0.03 0.47 0.27 -0.73 9.80 -0.00 0.06 -0.06 17368
0.02 0.46 0.26 -0.71 9.76 -0.01 0.06 -0.06 17375
0.01 0.44 0.27 -0.73 9.77 -0.00 0.06 -0.06 17382
0.00 0.44 0.27 -0.69 9.74 -0.00 0.07 -0.06 17389
0.01 0.44 0.29 -0.72 9.75 0.00 0.07 -0.06 17396
0.01 0.45 0.34 -0.70 9.79 0.01 0.06 -0.07 17403
0.03 0.42 0.32 -0.72 9.73 0.01 0.07 -0.06 17411
0.02 0.41 0.35 -0.71 9.80 0.02 0.06 -0.07 17418
0.03 0.36 0.32 -0.73 9.74 0.02 0.07 -0.07 17425
0.01 0.35 0.32 -0.73 9.76 0.02 0.07 -0.07 17432
0.03 0.37 0.33 -0.73 9.81 0.01 0.07 -0.07 17439
0.03 0.37 0.34 -0.76 9.78 0.02 0.07 -0.07 17446
0.04 0.33 0.34 -0.75 9.72 0.02 0.07 -0.07 17454
0.04 0.32 0.34 -0.74 9.82 0.02 0.07 -0.07 17461
0.04 0.26 0.32 -0.76 9.82 0.02 0.07 -0.07 17468
0.04 0.27 0.35 -0.76 9.81 0.02 0.07 -0.07 17475
0.04 0.25 0.34 -0.76 9.80 0.02 0.06 -0.07 17482
0.05 0.18 0.32 -0.78 9.78 0.03 0.06 -0.07 17489
0.05 0.20 0.37 -0.76 9.80 0.02 0.06 -0.07 17497
0.05 0.17 0.34 -0.77 9.78 0.03 0.06 -0.07 17504
0.04 0.11 0.34 -0.78 9.76 0.02 0.06 -0.07 17511
0.04 0.08 0.36 -0.74 9.83 0.02 0.07 -0.07 17518
0.05 0.05 0.37 -0.79 9.82 0.04 0.07 -0.07 17525
0.04 0.04 0.39 -0.76 9.89 0.05 0.07 -0.07 17532
0.05 0.02 0.38 -0.76 9.86 0.07 0.07 -0.07 17540
0.04 0.03 0.46 -0.79 9.90 0.09 0.08 -0.07 17547
0.04 0.00 0.44 -0.82 9.96 0.12 0.09 -0.07 17554
0.04 -0.00 0.37 -0.82 10.16 0.17 0.11 -0.07 17561
0.05 0.02 0.36 -0.57 10.19 0.26 0.12 -0.06 17568
0.05 -0.01 0.39 -0.92 10.61 0.37 0.15 -0.06 17575
0.04 -0.00 0.49 -0.83 11.13 0.63 0.24 -0.07 17583
0.02 -0.00 0.62 -0.91 12.29 1.05 0.39 -0.12 17590
0.02 -0.00 0.39 -1.30 14.29 1.53 0.48 -0.15 17597
0.03 -0.00 0.88 -1.09 15.51 2.04 0.44 -0.20 17604
0.03 -0.00 0.89 -0.94 14.40 2.33 0.33 -0.25 17611
0.04 -0.00 0.92 -0.92 13.86 2.51 0.27 -0.27 17618
0.03 -0.00 1.13 -1.14 13.73 2.63 0.29 -0.30 17626
0.01 -0.00 1.31 -1.30 14.00 2.74 0.33 -0.34 17633
0.00 0.00 1.62 -1.46 13.72 2.87 0.38 -0.38 17640
0.03 -0.00 2.39 -1.67 14.21 2.94 0.48 -0.45 17647
0.01 -0.00 2.48 -1.94 15.11 2.98 0.60 -0.50 17654
0.00 -0.00 2.75 -1.61 15.78 2.99 0.79 -0.56 17661
0.00 0.00 2.96 -1.09 15.52 2.94 0.91 -0.64 17669
0.00 0.00 2.42 -0.33 14.70 2.88 1.04 -0.68 17676
0.00 0.00 1.05 1.33 13.95 2.76 1.02 -0.71 17683
0.00 0.00 0.38 2.98 12.95 2.51 0.87 -0.69 17690
0.00 -0.00 -1.42 4.24 12.51 2.20 0.60 -0.63 17697
