Voltage_01 Voltage_02 Acc_x Acc_y Acc_z Gyro_x Gyro_y Gyro_z Time
5000
0.03 -0.00 -1.56 -4.90 9.30 -0.71 0.26 0.65 23
0.03 -0.00 -0.31 -5.08 9.10 -0.72 0.15 0.41 29
0.03 -0.00 0.75 -5.21 8.72 -0.72 0.15 0.14 35
0.03 -0.00 1.30 -5.25 8.25 -0.71 0.19 -0.13 41
0.04 -0.00 1.45 -5.36 7.67 -0.68 0.26 -0.35 48
0.04 -0.00 1.61 -5.62 7.21 -0.61 0.30 -0.61 54
0.04 -0.00 1.72 -5.70 7.14 -0.53 0.33 -0.86 60
0.04 -0.00 1.75 -5.66 7.09 -0.45 0.33 -1.10 66
0.04 -0.00 2.00 -5.33 7.30 -0.38 0.33 -1.26 72
0.03 -0.00 2.57 -4.99 7.55 -0.33 0.34 -1.42 78
0.03 0.00 2.96 -4.68 7.52 -0.31 0.38 -1.51 84
0.05 -0.01 3.01 -4.57 6.89 -0.30 0.38 -1.55 91
0.03 -0.00 2.79 -4.43 6.29 -0.29 0.36 -1.56 97
0.03 -0.00 -6.11 -21.00 8.57 -0.04 -0.09 -1.57 103
0.03 -0.00 2.88 -7.13 23.61 2.25 -1.59 -1.51 109
0.04 0.00 -1.81 -45.04 36.38 0.36 -2.55 -1.37 115
0.03 0.03 -0.04 -1.94 15.80 -0.27 -0.52 -0.48 121
0.04 0.06 1.13 -6.80 12.87 -0.32 -0.06 0.07 128
0.05 0.12 0.09 -1.77 11.80 -0.19 -0.08 0.07 135
0.04 0.12 0.13 -0.50 9.75 -0.08 -0.02 0.04 141
0.04 0.11 0.60 0.24 9.27 -0.06 -0.01 0.02 147
0.04 0.13 1.15 0.59 9.42 -0.08 -0.01 0.04 153
0.04 0.18 0.90 0.09 9.88 -0.07 -0.00 0.07 159
0.04 0.21 0.64 -0.52 10.15 -0.05 -0.00 0.08 165
0.03 0.24 0.69 -0.65 10.01 -0.02 -0.00 0.08 172
0.04 0.20 0.78 -0.56 10.08 0.01 0.01 0.08 178
0.03 0.23 0.79 -0.56 10.04 0.01 0.01 0.07 184
0.05 0.26 0.63 -0.67 10.11 0.02 0.02 0.07 190
0.04 0.24 0.65 -0.86 10.06 0.02 0.03 0.07 197
0.04 0.24 0.71 -0.91 10.09 0.01 0.04 0.05 203
0.05 0.26 0.73 -0.84 10.05 0.00 0.04 0.05 209
0.06 0.26 0.68 -0.82 10.05 -0.01 0.05 0.05 216
0.05 0.26 0.62 -0.81 10.13 -0.01 0.05 0.05 222
0.04 0.25 0.66 -0.84 10.07 -0.02 0.05 0.05 228
0.05 0.22 0.73 -0.72 9.97 -0.02 0.05 0.05 234
0.06 0.24 0.75 -0.72 9.99 -0.03 0.05 0.05 240
0.05 0.25 0.74 -0.73 10.11 -0.03 0.05 0.05 247
0.05 0.25 0.73 -0.72 10.00 -0.04 0.04 0.06 253
0.05 0.27 0.79 -0.75 10.04 -0.04 0.03 0.06 260
0.06 0.27 0.76 -0.74 10.04 -0.04 0.03 0.06 266
0.04 0.31 0.75 -0.72 10.04 -0.04 0.03 0.06 272
0.04 0.32 0.74 -0.70 10.10 -0.04 0.02 0.06 278
0.05 0.37 0.81 -0.70 10.10 -0.03 0.02 0.06 284
0.05 0.35 0.81 -0.66 9.98 -0.02 0.01 0.06 290
0.05 0.37 0.81 -0.65 9.87 -0.03 0.01 0.07 296
0.04 0.34 0.79 -0.66 9.98 -0.02 0.01 0.06 303
0.05 0.39 0.81 -0.66 10.00 -0.02 0.00 0.06 310
0.05 0.36 0.76 -0.66 10.03 -0.01 0.00 0.06 316
0.05 0.33 0.75 -0.72 9.98 -0.02 -0.00 0.06 322
0.04 0.38 0.77 -0.72 9.97 -0.02 -0.01 0.06 328
0.05 0.37 0.78 -0.68 10.00 -0.02 -0.01 0.06 334
0.05 0.38 0.79 -0.71 10.04 -0.02 -0.02 0.06 340
0.05 0.38 0.75 -0.65 10.02 -0.02 -0.02 0.06 347
0.04 0.38 0.80 -0.68 9.97 -0.02 -0.02 0.06 353
0.04 0.41 0.76 -0.66 9.98 -0.02 -0.03 0.06 359
0.06 0.40 0.70 -0.69 9.98 -0.03 -0.03 0.07 365
0.04 0.42 0.76 -0.68 9.97 -0.03 -0.03 0.06 372
0.04 0.44 0.74 -0.67 10.00 -0.03 -0.03 0.06 378
0.05 0.48 0.78 -0.71 10.03 -0.03 -0.02 0.06 385
0.05 0.49 0.80 -0.65 10.02 -0.03 -0.02 0.06 391
0.04 0.53 0.74 -0.68 9.98 -0.02 -0.02 0.06 397
0.03 0.52 0.75 -0.62 10.03 -0.02 -0.02 0.07 403
0.04 0.49 0.73 -0.63 10.02 -0.01 -0.01 0.06 409
0.05 0.51 0.76 -0.67 10.01 -0.01 -0.01 0.06 415
0.04 0.49 0.76 -0.65 10.02 -0.01 -0.01 0.06 422
0.04 0.49 0.76 -0.67 9.94 -0.01 -0.00 0.06 429
0.06 0.48 0.77 -0.65 9.94 -0.01 0.00 0.06 435
0.05 0.48 0.77 -0.66 9.96 -0.01 0.01 0.06 441
0.05 0.46 0.77 -0.64 9.96 -0.01 0.02 0.06 447
0.03 0.45 0.78 -0.62 10.01 -0.00 0.02 0.06 453
0.04 0.47 0.75 -0.64 9.99 -0.00 0.03 0.06 459
0.05 0.46 0.76 -0.67 10.01 -0.00 0.03 0.05 465
0.04 0.46 0.81 -0.71 10.01 -0.00 0.04 0.05 472
0.03 0.46 0.78 -0.65 10.01 -0.00 0.04 0.06 478
0.05 0.45 0.84 -0.67 9.98 -0.00 0.05 0.05 485
0.05 0.44 0.85 -0.64 9.97 -0.00 0.05 0.05 491
0.05 0.44 0.85 -0.65 10.00 -0.00 0.05 0.05 497
0.04 0.43 0.85 -0.68 9.95 -0.00 0.05 0.05 503
0.04 0.43 0.82 -0.67 9.96 -0.00 0.05 0.05 509
0.06 0.42 0.84 -0.63 9.89 -0.00 0.04 0.05 516
0.05 0.42 0.84 -0.67 9.99 -0.01 0.04 0.05 522
0.05 0.39 0.84 -0.67 10.01 -0.01 0.04 0.04 528
0.03 0.41 0.87 -0.70 10.00 -0.01 0.03 0.05 534
0.04 0.43 0.90 -0.67 10.00 -0.01 0.03 0.05 540
0.04 0.41 0.89 -0.66 9.95 -0.01 0.02 0.04 546
0.03 0.39 0.93 -0.63 9.97 -0.02 0.02 0.04 553
0.03 0.39 0.90 -0.63 9.95 -0.01 0.01 0.03 560
0.04 0.41 0.90 -0.63 10.02 -0.01 -0.00 0.03 566
0.03 0.40 0.88 -0.65 9.97 -0.01 -0.01 0.04 572
0.03 0.39 0.87 -0.66 9.98 -0.02 -0.02 0.03 578
0.03 0.39 0.90 -0.67 9.97 -0.01 -0.02 0.03 584
0.03 0.41 0.89 -0.68 9.98 -0.01 -0.03 0.02 590
0.03 0.39 0.90 -0.66 9.96 -0.02 -0.04 0.03 596
0.02 0.39 0.91 -0.63 9.97 -0.02 -0.04 0.03 603
0.01 0.39 0.92 -0.66 9.98 -0.02 -0.05 0.02 609
0.03 0.39 0.88 -0.66 9.98 -0.02 -0.05 0.02 615
0.03 0.39 0.91 -0.66 9.99 -0.02 -0.05 0.02 621
0.03 0.38 0.91 -0.65 9.97 -0.02 -0.06 0.02 628
0.03 0.37 0.93 -0.62 9.96 -0.02 -0.06 0.02 634
0.02 0.40 0.90 -0.64 9.92 -0.02 -0.06 0.02 641
0.03 0.40 0.86 -0.67 9.91 -0.02 -0.07 0.02 647
0.03 0.39 0.91 -0.67 9.93 -0.02 -0.07 0.02 653
0.04 0.39 0.90 -0.67 9.94 -0.02 -0.07 0.02 659
0.03 0.40 0.89 -0.65 9.92 -0.02 -0.08 0.01 665
0.04 0.38 0.85 -0.66 9.94 -0.02 -0.08 0.01 671
0.04 0.40 0.85 -0.65 9.96 -0.02 -0.08 0.01 677
0.04 0.40 0.85 -0.63 9.96 -0.01 -0.08 0.02 684
0.03 0.41 0.86 -0.64 9.98 -0.01 -0.08 0.02 690
0.03 0.40 0.84 -0.64 9.98 -0.01 -0.09 0.02 696
0.04 0.42 0.85 -0.65 9.97 -0.01 -0.09 0.02 702
0.05 0.41 0.83 -0.68 9.98 -0.01 -0.09 0.02 709
0.05 0.38 0.86 -0.67 9.93 -0.01 -0.09 0.02 715
0.04 0.40 0.80 -0.67 10.01 -0.01 -0.09 0.02 721
0.06 0.43 0.81 -0.67 10.03 -0.01 -0.09 0.02 728
0.05 0.42 0.83 -0.69 10.01 -0.01 -0.08 0.03 734
0.06 0.44 0.82 -0.68 10.00 -0.01 -0.07 0.03 740
0.04 0.45 0.85 -0.69 10.00 -0.01 -0.07 0.03 746
0.06 0.42 0.81 -0.65 10.02 -0.01 -0.07 0.04 752
0.06 0.41 0.85 -0.66 10.01 -0.01 -0.07 0.04 759
0.04 0.42 0.85 -0.67 10.01 -0.01 -0.06 0.04 765
0.05 0.44 0.81 -0.65 9.96 -0.00 -0.06 0.04 772
0.07 0.44 0.81 -0.64 9.97 -0.01 -0.06 0.04 778
0.07 0.41 0.81 -0.66 9.96 -0.01 -0.06 0.03 784
0.05 0.41 0.81 -0.66 9.97 -0.01 -0.06 0.03 790
0.06 0.43 0.80 -0.67 9.98 0.00 -0.06 0.04 796
0.07 0.44 0.82 -0.66 9.96 -0.01 -0.05 0.03 802
0.05 0.45 0.81 -0.64 9.97 -0.00 -0.05 0.04 808
0.06 0.42 0.80 -0.67 10.02 -0.00 -0.05 0.04 815
0.07 0.43 0.83 -0.67 10.00 -0.01 -0.05 0.04 822
0.07 0.45 0.83 -0.68 9.97 -0.01 -0.05 0.04 828
0.06 0.43 0.80 -0.70 10.05 -0.01 -0.05 0.04 834
0.07 0.42 0.81 -0.63 10.01 -0.01 -0.04 0.04 840
0.07 0.44 0.80 -0.64 10.01 -0.01 -0.04 0.04 846
0.08 0.44 0.83 -0.66 10.02 -0.00 -0.04 0.04 852
0.07 0.40 0.81 -0.65 10.08 0.00 -0.04 0.04 859
0.06 0.39 0.86 -0.64 10.03 0.00 -0.04 0.04 865
0.06 0.39 0.82 -0.69 10.03 0.01 -0.04 0.04 871
0.07 0.35 0.87 -0.69 10.00 0.01 -0.04 0.04 878
0.06 0.34 0.83 -0.72 10.01 0.02 -0.04 0.05 884
0.05 0.31 0.85 -0.71 10.01 0.02 -0.03 0.04 890
0.06 0.30 0.80 -0.68 10.00 0.02 -0.02 0.05 897
0.07 0.26 0.80 -0.71 10.00 0.03 -0.02 0.05 903
0.06 0.25 0.85 -0.68 10.00 0.03 -0.01 0.05 909
0.07 0.21 0.84 -0.70 10.08 0.03 -0.01 0.05 915
0.07 0.19 0.86 -0.74 10.05 0.04 -0.00 0.04 921
0.09 0.12 0.85 -0.67 10.07 0.04 0.00 0.05 928
0.08 0.06 0.85 -0.68 10.04 0.05 0.02 0.05 934
0.08 0.05 0.92 -0.76 10.03 0.05 0.02 0.04 941
0.10 0.04 0.98 -0.71 10.04 0.06 0.03 0.04 947
0.08 0.00 0.96 -0.76 10.05 0.07 0.03 0.04 953
0.08 -0.01 1.07 -0.82 10.26 0.08 0.04 0.04 959
0.08 -0.01 0.93 -0.71 10.28 0.09 0.03 0.03 965
0.08 -0.01 1.05 -0.65 10.11 0.11 0.03 0.01 971
0.07 -0.01 1.13 -0.85 10.10 0.13 0.02 -0.01 977
0.06 -0.01 1.28 -0.83 10.20 0.15 0.01 -0.04 984
0.05 -0.00 1.10 -0.70 10.46 0.21 0.02 -0.10 990
0.06 0.00 1.55 -0.88 10.94 0.30 0.02 -0.14 997
0.07 -0.01 1.44 -0.72 11.34 0.48 0.02 -0.21 1003
0.06 -0.01 0.70 -1.05 12.94 0.84 0.07 -0.24 1009
0.05 -0.01 0.99 -1.06 15.04 1.45 0.28 -0.25 1015
0.06 -0.01 0.51 -0.86 14.83 1.90 0.63 -0.25 1021
0.05 -0.01 0.09 -0.98 13.81 2.01 1.09 -0.18 1028
0.04 -0.00 -0.09 -1.31 14.30 2.00 1.49 -0.08 1034
0.05 -0.01 -0.34 -1.84 14.31 2.02 1.75 0.03 1041
0.05 -0.01 -0.21 -2.15 14.75 2.07 2.09 0.14 1047
0.05 -0.00 -0.29 -2.53 14.71 2.12 2.36 0.27 1053
0.05 -0.01 -0.40 -3.16 14.86 2.15 2.56 0.41 1059
0.05 -0.01 -0.71 -3.52 15.57 2.20 2.70 0.57 1065
0.04 -0.00 -0.60 -3.37 15.56 2.23 2.78 0.71 1072
0.03 -0.00 -0.15 -2.70 15.50 2.24 2.82 0.81 1078
0.05 -0.01 0.36 -2.19 15.20 2.22 2.86 0.86 1085
0.05 -0.00 0.89 -2.19 14.92 2.17 2.96 0.86 1091
0.04 -0.00 0.82 -1.94 14.74 2.15 3.02 0.84 1097
0.05 -0.00 -0.63 -1.52 13.63 2.15 2.98 0.85 1103
0.05 -0.01 -3.32 -1.00 11.60 2.12 2.81 0.86 1110
0.04 -0.00 -8.19 0.74 10.04 2.02 2.39 0.76 1116
0.04 0.01 -12.90 3.76 10.22 1.76 1.49 0.34 1123
0.04 -0.00 -13.31 5.30 11.62 1.24 0.09 -0.20 1129
0.03 -0.00 -11.18 5.81 12.12 0.57 -1.24 -0.49 1135
0.04 -0.00 -8.02 5.07 13.47 0.09 -1.96 -0.71 1141
0.04 -0.00 -5.63 3.52 12.42 -0.15 -2.23 -1.06 1147
0.04 -0.00 -3.85 2.63 10.02 -0.24 -2.25 -1.46 1155
0.04 0.01 -2.95 2.40 8.38 -0.26 -2.20 -1.81 1161
0.04 -0.00 -2.68 2.51 8.18 -0.26 -2.21 -2.07 1167
0.04 -0.00 -2.51 2.69 8.76 -0.25 -2.29 -2.25 1173
0.03 -0.00 -1.68 3.03 9.73 -0.26 -2.41 -2.33 1179
0.05 -0.00 -0.76 3.52 10.38 -0.32 -2.50 -2.33 1185
0.04 -0.00 0.04 3.74 10.78 -0.43 -2.53 -2.27 1191
0.02 -0.00 0.71 3.65 10.66 -0.57 -2.52 -2.16 1199
0.03 -0.00 1.21 3.53 10.36 -0.73 -2.49 -2.03 1205
0.04 -0.00 1.82 3.07 10.14 -0.86 -2.48 -1.89 1211
0.03 -0.00 2.42 2.63 9.83 -0.91 -2.48 -1.75 1217
0.04 0.00 3.08 2.43 9.86 -0.97 -2.47 -1.60 1223
0.04 -0.00 3.78 2.33 10.13 -1.02 -2.40 -1.45 1229
0.04 -0.00 4.63 2.24 10.16 -1.06 -2.26 -1.29 1236
0.04 -0.00 5.31 2.23 10.10 -1.12 -2.06 -1.16 1243
0.05 -0.00 5.59 2.12 9.80 -1.20 -1.81 -1.02 1249
0.03 -0.00 5.87 1.80 10.79 -1.27 -1.53 -0.89 1255
0.03 -0.00 5.33 1.28 9.09 -1.31 -1.28 -0.78 1261
0.03 -0.00 4.88 0.52 8.67 -1.31 -1.07 -0.68 1267
0.03 -0.00 4.47 -0.32 8.37 -1.29 -0.88 -0.60 1273
0.03 -0.00 4.26 -0.75 8.40 -1.23 -0.80 -0.50 1280
0.03 -0.00 4.11 -1.00 8.42 -1.15 -0.74 -0.40 1287
0.03 -0.00 4.21 -1.16 8.46 -1.06 -0.70 -0.26 1293
0.03 -0.00 4.47 -1.19 8.55 -0.98 -0.67 -0.11 1299
0.03 -0.00 4.69 -1.24 8.55 -0.93 -0.64 0.04 1305
0.03 -0.00 4.90 -1.31 8.56 -0.86 -0.61 0.20 1311
0.03 0.00 5.11 -1.32 8.66 -0.81 -0.54 0.35 1317
0.03 -0.00 5.34 -1.34 8.92 -0.76 -0.51 0.47 1324
0.03 -0.00 5.43 -1.30 9.79 -0.73 -0.42 0.61 1330
0.03 -0.00 5.49 -1.31 9.54 -0.72 -0.32 0.73 1336
0.05 -0.00 5.52 -1.29 9.93 -0.72 -0.21 0.85 1343
0.03 -0.00 5.37 -1.34 10.19 -0.74 -0.10 0.96 1349
0.02 -0.00 5.06 -1.47 10.48 -0.79 0.02 1.05 1355
0.04 0.00 4.89 -1.56 10.81 -0.85 0.10 1.13 1361
0.03 -0.00 4.77 -1.76 11.06 -0.92 0.20 1.20 1368
0.03 -0.00 4.57 -2.00 10.94 -1.00 0.30 1.25 1374
0.03 -0.00 4.22 -2.34 10.64 -1.06 0.36 1.29 1381
0.04 -0.00 3.79 -2.78 10.29 -1.11 0.40 1.32 1387
0.03 -0.00 3.52 -3.14 9.99 -1.12 0.41 1.32 1393
0.02 -0.00 3.37 -3.40 9.83 -1.10 0.41 1.30 1399
0.04 -0.00 3.20 -3.56 9.72 -1.08 0.40 1.27 1405
0.04 -0.00 3.02 -3.59 9.52 -1.05 0.38 1.23 1412
0.03 -0.00 2.85 -3.52 9.40 -1.01 0.34 1.17 1418
0.02 -0.00 2.86 -3.56 9.79 -0.98 0.30 1.08 1424
0.02 -0.00 2.93 -3.63 9.15 -0.95 0.26 0.97 1430
0.04 -0.00 3.12 -3.70 9.16 -0.91 0.26 0.84 1436
0.03 -0.00 3.35 -3.70 9.51 -0.88 0.27 0.70 1443
0.03 -0.00 3.74 -3.72 10.14 -0.86 0.36 0.56 1449
0.04 0.00 4.11 -3.68 10.55 -0.86 0.42 0.44 1456
0.03 -0.00 4.13 -3.74 10.79 -0.90 0.53 0.35 1462
0.04 -0.00 4.09 -3.93 10.94 -0.96 0.62 0.27 1468
0.03 -0.00 3.93 -4.18 11.04 -1.02 0.67 0.22 1474
0.04 -0.00 3.79 -4.68 10.75 -1.07 0.66 0.19 1481
0.03 -0.00 3.66 -5.19 10.28 -1.08 0.61 0.15 1487
0.03 -0.00 3.67 -5.68 9.75 -1.06 0.53 0.11 1494
0.03 -0.00 3.93 -6.23 9.47 -1.02 0.46 0.04 1500
0.04 -0.00 4.25 -6.59 9.30 -0.97 0.42 -0.05 1506
0.03 -0.00 4.46 -6.73 9.17 -0.89 0.42 -0.19 1512
0.03 -0.00 4.27 -6.78 8.81 -0.82 0.50 -0.30 1518
0.04 -0.00 3.75 -6.84 8.30 -0.75 0.63 -0.43 1524
0.03 -0.00 2.89 -6.86 7.79 -0.68 0.76 -0.54 1530
0.03 -0.00 2.07 -6.73 7.72 -0.59 0.81 -0.63 1538
0.03 -0.00 1.79 -6.37 7.74 -0.49 0.79 -0.70 1544
0.04 -0.00 2.14 -14.46 6.12 -0.37 0.74 -0.69 1550
0.04 -0.00 -2.88 -12.65 14.41 1.02 1.23 -0.33 1556
0.03 -0.00 -0.16 -4.42 2.10 0.99 0.83 -0.15 1562
0.03 -0.00 -1.22 -10.04 2.46 1.03 0.77 0.00 1568
0.04 -0.00 -5.70 -20.20 10.02 1.46 0.61 0.41 1574
0.04 -0.00 -10.94 -31.92 9.05 1.92 -1.39 0.73 1582
0.03 0.11 -7.84 -17.32 13.80 2.33 -1.86 0.80 1588
0.03 0.17 -17.32 -8.12 56.10 1.48 -1.31 0.43 1594
0.01 0.26 1.02 -0.54 12.35 -0.15 0.01 0.07 1600
0.04 0.26 -1.37 -0.89 12.58 -0.15 0.06 0.16 1607
0.02 0.31 -1.44 -0.00 10.92 -0.18 0.10 -0.06 1613
0.02 0.28 1.37 0.24 9.46 -0.12 0.06 -0.12 1619
0.03 0.27 3.05 -0.23 9.59 0.01 -0.04 0.01 1626
0.03 0.34 1.72 -0.44 10.16 0.05 -0.03 0.13 1632
0.02 0.36 0.55 -1.08 10.63 0.03 -0.02 0.12 1638
0.04 0.35 -0.04 -1.03 10.51 0.00 -0.00 0.07 1645
0.05 0.35 0.53 -0.64 9.84 0.00 0.02 0.06 1651
0.04 0.37 0.85 -0.72 9.87 -0.01 0.05 0.08 1657
0.05 0.40 0.71 -1.02 10.13 -0.02 0.06 0.09 1664
0.06 0.39 0.56 -0.95 10.10 -0.02 0.07 0.09 1670
0.06 0.37 0.68 -0.92 10.00 -0.01 0.08 0.08 1676
0.05 0.41 0.92 -0.87 9.91 -0.02 0.09 0.08 1683
0.05 0.40 0.90 -0.67 9.90 -0.01 0.08 0.07 1689
0.06 0.39 0.87 -0.69 10.04 -0.01 0.08 0.06 1695
0.05 0.38 0.83 -0.75 10.02 -0.01 0.07 0.05 1701
0.08 0.36 0.82 -0.83 9.95 -0.01 0.06 0.05 1708
0.08 0.38 0.70 -0.73 9.88 -0.01 0.05 0.05 1714
0.06 0.38 0.75 -0.83 10.04 -0.01 0.05 0.06 1720
0.07 0.39 0.68 -0.79 10.08 -0.02 0.04 0.07 1727
0.07 0.40 0.79 -0.83 10.07 -0.01 0.04 0.07 1733
0.05 0.40 0.85 -0.78 10.05 -0.02 0.03 0.08 1739
0.06 0.39 0.83 -0.72 9.89 -0.02 0.02 0.08 1745
0.07 0.39 0.83 -0.79 10.07 -0.01 0.02 0.07 1752
0.06 0.41 0.80 -0.77 10.03 -0.01 0.02 0.07 1759
0.06 0.41 0.79 -0.75 10.00 -0.00 0.02 0.07 1765
0.06 0.40 0.81 -0.76 10.08 0.00 0.02 0.07 1771
0.07 0.36 0.78 -0.72 10.05 0.00 0.01 0.07 1777
0.05 0.38 0.81 -0.76 10.00 0.00 0.01 0.07 1783
0.08 0.35 0.82 -0.80 10.00 0.00 0.01 0.07 1789
0.06 0.37 0.81 -0.79 9.99 -0.00 -0.00 0.07 1796
0.04 0.39 0.84 -0.78 9.98 -0.00 -0.00 0.07 1803
0.06 0.43 0.82 -0.75 9.98 -0.01 -0.00 0.07 1809
0.06 0.41 0.82 -0.77 9.99 -0.01 -0.01 0.07 1815
0.06 0.40 0.80 -0.72 9.98 -0.01 -0.01 0.06 1821
0.06 0.39 0.81 -0.77 10.02 -0.01 -0.00 0.06 1827
0.08 0.38 0.83 -0.74 9.96 -0.01 0.01 0.06 1833
0.06 0.36 0.84 -0.76 9.98 -0.01 0.00 0.06 1840
0.05 0.34 0.83 -0.76 9.95 -0.01 0.00 0.06 1847
0.04 0.39 0.85 -0.78 9.97 -0.01 0.00 0.06 1853
0.04 0.40 0.83 -0.75 9.93 -0.01 0.01 0.06 1859
0.04 0.38 0.86 -0.75 9.96 -0.01 0.01 0.05 1865
0.03 0.41 0.83 -0.78 9.97 -0.01 0.01 0.05 1871
0.05 0.36 0.83 -0.73 9.97 -0.01 0.01 0.05 1878
0.03 0.36 0.84 -0.77 9.97 -0.01 0.01 0.05 1884
0.03 0.37 0.87 -0.78 9.98 -0.01 0.01 0.05 1890
0.03 0.40 0.83 -0.79 9.99 -0.02 0.02 0.04 1897
0.04 0.37 0.82 -0.80 9.99 -0.01 0.02 0.05 1903
0.04 0.35 0.89 -0.78 9.98 -0.02 0.02 0.05 1909
0.03 0.34 0.87 -0.79 9.95 -0.02 0.02 0.05 1915
0.03 0.38 0.91 -0.78 9.98 -0.02 0.02 0.05 1922
0.04 0.37 0.88 -0.79 9.98 -0.03 0.01 0.04 1928
0.04 0.33 0.90 -0.79 9.97 -0.03 0.01 0.04 1934
0.04 0.37 0.90 -0.78 9.97 -0.03 0.01 0.04 1940
0.05 0.40 0.90 -0.75 9.97 -0.03 0.01 0.04 1947
0.05 0.42 0.90 -0.78 9.95 -0.03 -0.03 0.03 1953
0.04 0.41 0.94 -0.77 9.96 -0.03 -0.00 0.04 1959
0.04 0.41 0.93 -0.76 9.96 -0.03 -0.01 0.03 1966
0.03 0.43 0.93 -0.78 9.96 -0.03 -0.01 0.03 1972
0.03 0.44 0.91 -0.73 9.93 -0.03 -0.02 0.04 1978
0.02 0.48 0.92 -0.76 9.92 -0.03 -0.03 0.03 1984
0.04 0.53 0.93 -0.78 9.92 -0.03 -0.03 0.03 1991
0.03 0.49 0.95 -0.74 10.00 -0.03 -0.03 0.03 1997
0.03 0.49 0.91 -0.75 9.98 -0.02 -0.04 0.03 2003
0.04 0.50 0.89 -0.76 9.94 -0.02 -0.04 0.03 2010
0.03 0.46 0.93 -0.76 9.92 -0.01 -0.04 0.03 2016
0.04 0.44 0.91 -0.71 9.93 -0.01 -0.04 0.03 2022
0.04 0.46 0.94 -0.73 9.99 -0.01 -0.04 0.02 2028
0.04 0.48 0.92 -0.75 9.96 -0.01 -0.05 0.02 2035
0.03 0.47 0.89 -0.76 9.99 -0.01 -0.05 0.02 2041
0.02 0.47 0.93 -0.78 9.96 -0.01 -0.05 0.02 2048
0.04 0.48 0.88 -0.78 10.01 -0.02 -0.06 0.02 2054
0.04 0.48 0.91 -0.74 10.01 -0.02 -0.06 0.02 2060
0.02 0.50 0.90 -0.77 9.97 -0.02 -0.06 0.02 2066
0.03 0.49 0.91 -0.77 9.95 -0.02 -0.06 0.02 2073
0.04 0.49 0.88 -0.73 9.95 -0.02 -0.07 0.02 2079
0.04 0.49 0.91 -0.75 9.97 -0.01 -0.07 0.02 2085
0.03 0.52 0.90 -0.74 9.98 -0.01 -0.07 0.02 2092
0.05 0.52 0.87 -0.75 9.96 -0.01 -0.08 0.02 2098
0.04 0.50 0.87 -0.72 9.95 -0.01 -0.08 0.02 2104
0.03 0.51 0.88 -0.75 9.96 -0.01 -0.08 0.01 2110
0.05 0.51 0.84 -0.76 9.95 -0.01 -0.08 0.01 2116
0.04 0.50 0.84 -0.75 10.02 -0.01 -0.08 0.01 2123
0.04 0.50 0.85 -0.75 9.97 -0.01 -0.08 0.01 2129
0.04 0.51 0.86 -0.74 9.98 -0.01 -0.09 0.01 2136
0.06 0.50 0.91 -0.74 9.94 -0.01 -0.09 0.01 2142
0.03 0.49 0.87 -0.77 9.96 -0.01 -0.08 0.01 2148
0.03 0.49 0.83 -0.75 9.96 -0.01 -0.09 0.01 2154
0.05 0.49 0.86 -0.75 9.96 -0.01 -0.09 0.01 2161
0.04 0.47 0.86 -0.78 10.01 -0.01 -0.08 0.01 2167
0.04 0.45 0.85 -0.75 9.99 -0.01 -0.08 0.01 2173
0.04 0.49 0.81 -0.83 9.76 -0.00 -0.08 0.01 2180
0.06 0.45 0.88 -0.77 10.00 -0.01 -0.08 0.01 2186
0.05 0.42 0.83 -0.76 9.99 -0.00 -0.08 0.02 2192
0.05 0.42 0.83 -0.76 10.04 -0.00 -0.08 0.01 2198
0.07 0.46 0.84 -0.75 9.96 -0.00 -0.09 0.01 2205
0.05 0.43 0.82 -0.80 9.99 -0.00 -0.08 0.02 2211
0.04 0.42 0.84 -0.78 10.00 -0.00 -0.08 0.02 2217
0.07 0.41 0.81 -0.79 10.03 -0.00 -0.08 0.02 2224
0.08 0.41 0.80 -0.75 9.96 -0.00 -0.08 0.02 2230
0.08 0.41 0.81 -0.74 9.95 -0.00 -0.08 0.02 2236
0.07 0.43 0.82 -0.78 10.00 -0.00 -0.08 0.02 2243
0.07 0.39 0.79 -0.76 10.01 -0.00 -0.08 0.02 2249
0.08 0.33 0.80 -0.80 10.00 -0.00 -0.08 0.02 2255
0.09 0.34 0.80 -0.81 10.01 -0.00 -0.07 0.02 2262
0.08 0.33 0.78 -0.78 10.01 -0.00 -0.07 0.02 2268
0.07 0.34 0.76 -0.78 10.03 -0.00 -0.07 0.02 2274
0.06 0.35 0.79 -0.76 9.98 -0.00 -0.07 0.02 2281
0.08 0.33 0.81 -0.76 9.97 0.00 -0.10 0.02 2287
0.07 0.32 0.78 -0.79 10.04 -0.00 -0.07 0.02 2293
0.08 0.29 0.80 -0.79 10.02 -0.00 -0.06 0.02 2299
0.09 0.31 0.76 -0.79 10.02 -0.01 -0.06 0.02 2306
0.09 0.30 0.80 -0.77 10.03 -0.00 -0.06 0.02 2312
0.07 0.32 0.78 -0.76 10.00 -0.00 -0.06 0.02 2319
0.10 0.30 0.81 -0.76 10.04 0.00 -0.05 0.02 2325
0.09 0.28 0.78 -0.75 10.05 0.00 -0.05 0.02 2331
0.08 0.25 0.78 -0.76 10.03 0.01 -0.05 0.02 2337
0.08 0.23 0.78 -0.73 10.02 0.02 -0.05 0.01 2343
0.08 0.20 0.80 -0.75 10.02 0.03 -0.04 0.02 2350
0.08 0.15 0.79 -0.79 9.97 0.04 -0.04 0.02 2357
0.09 0.10 0.85 -0.85 10.05 0.04 -0.03 0.01 2363
0.09 0.07 0.87 -0.82 10.06 0.04 -0.02 0.01 2369
0.09 0.03 0.84 -0.76 10.05 0.06 -0.01 0.01 2375
0.09 0.04 0.92 -0.86 10.08 0.07 -0.01 0.01 2381
0.11 0.01 0.96 -0.91 10.05 0.08 0.00 0.00 2387
0.12 -0.01 0.96 -0.83 10.10 0.08 0.02 -0.01 2395
0.12 -0.01 0.97 -0.85 10.10 0.09 0.03 -0.03 2401
0.14 -0.01 1.10 -0.90 10.04 0.09 0.07 -0.06 2407
0.10 -0.01 1.18 -0.91 10.04 0.10 0.09 -0.09 2413
0.09 -0.01 0.97 -0.79 10.04 0.11 0.13 -0.11 2419
0.09 -0.00 1.27 -0.86 10.12 0.13 0.15 -0.13 2425
0.09 -0.01 0.85 -0.97 10.74 0.16 0.16 -0.14 2433
0.07 -0.01 1.06 -0.96 10.56 0.22 0.16 -0.14 2439
0.08 -0.00 0.74 -0.94 10.51 0.31 0.15 -0.14 2445
0.07 -0.01 0.70 -1.04 10.62 0.47 0.14 -0.11 2451
0.08 -0.01 0.56 -1.11 11.84 0.72 0.19 -0.07 2457
0.05 -0.01 0.25 -1.11 12.73 0.99 0.29 -0.05 2463
0.06 -0.01 0.12 -1.33 12.75 1.29 0.38 -0.01 2469
0.05 -0.01 0.23 -1.59 14.36 1.53 0.68 0.03 2477
0.05 -0.00 0.13 -1.59 15.90 1.73 1.23 0.08 2483
0.05 -0.01 0.13 -1.72 15.61 1.87 1.88 0.15 2489
0.06 -0.01 0.23 -1.90 14.35 1.90 2.41 0.22 2495
0.04 -0.00 0.31 -2.40 14.64 1.88 2.78 0.29 2501
0.04 0.01 0.31 -2.85 14.72 1.89 3.08 0.39 2507
0.05 -0.00 0.36 -2.83 15.07 1.89 3.30 0.49 2514
0.04 -0.00 -0.06 -2.99 14.67 1.87 3.44 0.57 2521
0.04 -0.00 0.22 -2.63 14.92 1.86 3.46 0.63 2527
0.05 -0.01 0.19 -2.43 15.37 1.84 3.50 0.68 2533
0.04 -0.00 1.13 -2.06 14.70 1.82 3.63 0.70 2539
0.04 -0.00 1.72 -1.87 14.28 1.79 3.78 0.67 2545
0.05 -0.01 1.39 -1.83 14.04 1.80 3.88 0.61 2551
0.04 -0.00 0.09 -2.42 13.28 1.85 3.95 0.55 2558
0.04 -0.00 -4.03 -2.23 12.32 1.84 3.75 0.46 2565
0.04 -0.00 -9.21 -0.34 10.86 1.80 3.23 0.23 2571
0.04 -0.00 -11.53 1.14 8.42 1.60 2.20 -0.14 2577
0.04 -0.00 -23.35 4.69 9.14 1.22 0.72 -0.72 2583
0.05 -0.00 -18.71 5.08 11.76 0.47 -0.99 -1.56 2589
0.05 -0.00 -10.95 3.38 13.89 -0.20 -2.51 -1.91 2596
0.04 -0.00 -6.50 2.05 14.86 -0.62 -3.03 -2.09 2603
0.04 -0.00 -5.42 1.28 12.57 -0.81 -3.01 -2.41 2609
0.05 -0.00 -4.03 0.46 9.97 -0.82 -2.93 -2.87 2615
0.04 -0.00 -2.82 -0.37 7.15 -0.73 -3.01 -3.19 2621
0.02 -0.00 -2.77 -0.67 6.32 -0.58 -3.18 -3.37 2627
0.04 0.00 -2.66 -0.75 6.57 -0.35 -3.38 -3.41 2633
0.04 -0.00 -1.61 -0.26 8.11 -0.13 -3.56 -3.32 2640
0.04 -0.00 -0.28 0.83 9.89 0.06 -3.70 -3.14 2647
0.04 -0.00 0.94 1.83 11.38 0.15 -3.83 -2.95 2653
0.04 -0.00 2.41 3.04 13.02 0.11 -3.86 -2.72 2659
0.03 -0.00 4.07 3.74 13.88 -0.04 -3.78 -2.47 2665
0.02 -0.00 5.55 4.02 13.90 -0.27 -3.61 -2.17 2671
0.03 -0.00 6.77 3.85 13.25 -0.56 -3.35 -1.87 2677
0.04 -0.00 7.55 3.33 12.29 -0.82 -3.06 -1.56 2684
0.03 -0.00 7.95 2.60 11.46 -1.03 -2.75 -1.25 2691
0.04 0.00 8.06 1.73 10.84 -1.19 -2.45 -0.95 2697
0.03 -0.00 8.13 1.09 10.17 -1.26 -2.20 -0.65 2703
0.04 -0.00 7.99 0.02 9.74 -1.27 -1.98 -0.33 2709
0.04 -0.00 8.15 -0.00 9.81 -1.25 -1.73 -0.07 2715
0.05 -0.00 7.78 -0.43 9.11 -1.22 -1.53 0.21 2722
0.04 -0.00 7.60 -0.87 8.87 -1.17 -1.34 0.48 2728
0.03 -0.00 7.13 -1.24 8.79 -1.12 -1.16 0.71 2735
0.03 0.00 6.77 -1.68 8.72 -1.05 -1.01 0.89 2741
0.04 -0.00 6.44 -2.00 8.74 -0.98 -0.90 1.03 2747
0.03 -0.00 6.04 -2.11 8.72 -0.91 -0.78 1.11 2753
0.02 -0.00 5.62 -2.17 8.67 -0.84 -0.64 1.17 2759
0.04 -0.00 5.18 -2.24 8.57 -0.77 -0.53 1.18 2765
0.04 -0.00 4.79 -2.32 8.66 -0.69 -0.41 1.17 2771
0.03 -0.00 4.55 -2.29 8.86 -0.62 -0.29 1.13 2779
0.03 -0.00 4.52 -1.98 9.41 -0.57 -0.17 1.08 2785
0.03 0.00 4.37 -1.76 9.90 -0.54 0.01 1.02 2791
0.04 -0.00 4.09 -1.49 10.55 -0.57 0.20 0.99 2797
0.04 -0.00 3.74 -1.21 11.04 -0.64 0.37 0.94 2803
0.03 -0.00 3.10 -1.16 11.18 -0.74 0.49 0.91 2809
0.05 -0.00 2.35 -1.23 11.01 -0.84 0.54 0.89 2816
0.03 -0.00 1.71 -1.26 10.68 -0.93 0.51 0.88 2823
0.02 -0.00 1.18 -1.30 10.18 -0.98 0.43 0.86 2829
0.03 -0.00 0.84 -1.38 9.75 -1.02 0.32 0.84 2835
0.03 -0.00 0.63 -1.30 9.21 -1.02 0.24 0.82 2841
0.03 -0.00 0.51 -1.16 8.90 -1.00 0.19 0.81 2847
0.02 -0.00 0.42 -1.17 8.93 -0.95 0.19 0.80 2853
0.03 0.00 0.36 -1.29 9.40 -0.88 0.22 0.81 2860
0.04 -0.00 0.32 -1.37 9.69 -0.81 0.25 0.81 2866
0.03 -0.00 0.33 -1.48 9.79 -0.79 0.27 0.81 2872
0.02 -0.00 0.44 -1.67 9.76 -0.74 0.28 0.83 2878
0.03 0.00 0.71 -1.88 9.72 -0.70 0.29 0.85 2885
0.03 -0.00 0.94 -2.10 9.74 -0.64 0.30 0.85 2891
0.02 -0.00 1.17 -2.17 9.77 -0.58 0.31 0.85 2897
0.02 -0.00 1.49 -2.04 10.18 -0.53 0.31 0.84 2904
0.03 0.01 1.92 -1.60 11.35 -0.53 0.33 0.84 2910
0.03 -0.00 2.33 -1.22 12.16 -0.59 0.35 0.83 2916
0.03 -0.00 2.30 -1.00 12.63 -0.75 0.36 0.82 2922
0.02 -0.00 1.97 -1.05 12.43 -0.94 0.33 0.79 2929
0.03 -0.00 1.49 -1.29 11.59 -1.12 0.26 0.74 2935
0.02 -0.00 1.17 -1.79 10.03 -1.24 0.17 0.64 2941
0.03 -0.00 0.93 -2.42 9.59 -1.27 0.11 0.47 2948
0.03 -0.00 0.99 -3.16 8.96 -1.21 0.10 0.23 2954
0.03 -0.00 1.26 -3.84 8.88 -1.10 0.16 -0.06 2960
0.03 -0.00 1.47 -4.51 9.02 -1.03 0.28 -0.38 2966
0.03 -0.00 1.70 -4.97 9.21 -0.93 0.39 -0.71 2972
0.02 -0.00 2.03 -5.41 9.46 -0.85 0.53 -0.97 2978
0.03 -0.00 2.26 -5.57 9.72 -0.80 0.66 -1.23 2985
0.03 -0.00 2.37 -5.86 9.68 -0.77 0.74 -1.43 2992
0.03 -0.00 2.84 -6.16 9.81 -0.75 0.80 -1.56 2998
0.04 -0.00 3.45 -6.50 9.45 -0.73 0.83 -1.63 3004
0.04 -0.00 3.96 -6.86 8.73 -0.70 0.87 -1.63 3010
0.04 -0.00 4.79 -7.20 7.79 -0.66 0.95 -1.59 3016
0.03 -0.00 5.37 -7.28 7.06 -0.60 1.04 -1.49 3022
0.03 0.00 5.83 -7.30 6.07 -0.51 1.16 -1.34 3028
0.04 -0.00 2.98 -22.20 9.99 -0.10 1.46 -1.00 3035
0.03 -0.00 8.90 -8.71 3.65 1.01 2.05 -0.42 3042
0.03 -0.00 4.73 -10.25 -3.64 1.04 1.68 -0.06 3048
0.04 -0.00 -10.16 -38.53 13.35 1.75 0.40 0.45 3054
0.03 -0.00 -25.40 -57.05 52.23 2.18 -2.99 0.28 3060
0.03 0.08 -0.54 -0.33 15.61 -0.07 -0.22 0.17 3066
0.04 0.13 -0.65 -12.04 12.76 -0.23 0.03 0.24 3074
0.04 0.15 -1.64 -0.48 11.29 -0.29 0.01 -0.02 3080
0.04 0.18 1.02 0.95 10.15 -0.14 0.06 0.04 3086
0.04 0.19 1.60 1.08 10.38 -0.10 0.05 0.11 3092
0.05 0.20 1.85 -0.15 10.40 -0.12 0.03 0.15 3098
0.07 0.28 1.23 -0.58 10.82 -0.09 0.01 0.12 3105
0.05 0.28 1.00 -0.63 10.49 -0.05 0.00 0.09 3111
0.04 0.33 1.09 -0.55 10.15 -0.01 0.00 0.07 3118
0.09 0.34 0.87 -0.88 9.97 -0.00 0.00 0.06 3124
0.08 0.35 0.63 -0.97 9.93 -0.01 -0.00 0.06 3130
0.07 0.33 0.60 -1.08 10.01 -0.02 0.01 0.07 3136
0.08 0.35 0.66 -1.08 9.95 -0.03 0.01 0.07 3143
0.08 0.32 0.72 -0.96 9.89 -0.05 0.01 0.08 3149
0.09 0.34 0.81 -0.83 10.02 -0.04 0.03 0.07 3155
0.09 0.39 0.77 -0.77 10.13 -0.03 0.03 0.07 3162
0.09 0.37 0.87 -0.75 9.94 -0.02 0.03 0.06 3168
0.08 0.35 0.84 -0.77 10.04 -0.02 0.03 0.05 3174
0.08 0.35 0.81 -0.79 10.02 -0.00 0.03 0.04 3181
0.10 0.35 0.75 -0.85 10.05 0.00 0.03 0.05 3187
0.09 0.34 0.80 -0.83 10.04 0.00 0.03 0.05 3193
0.10 0.34 0.80 -0.81 9.92 0.00 0.03 0.05 3200
0.11 0.34 0.84 -0.84 9.99 0.00 0.03 0.05 3206
0.10 0.32 0.74 -0.85 10.02 0.01 0.03 0.05 3212
0.08 0.31 0.79 -0.83 10.08 0.00 0.03 0.05 3219
0.10 0.30 0.77 -0.82 10.00 0.00 0.02 0.04 3225
0.10 0.28 0.84 -0.78 10.04 0.01 0.02 0.04 3231
0.10 0.29 0.82 -0.83 9.97 0.01 0.01 0.05 3237
0.10 0.28 0.89 -0.83 10.02 0.01 0.01 0.04 3244
0.11 0.28 0.83 -0.81 9.92 0.00 -0.01 0.04 3250
0.11 0.28 0.85 -0.82 9.88 -0.00 -0.02 0.04 3256
0.09 0.26 0.80 -0.84 9.97 -0.01 -0.03 0.04 3263
0.12 0.28 0.82 -0.85 10.00 -0.02 -0.04 0.03 3269
0.11 0.28 0.83 -0.83 9.94 -0.02 -0.04 0.04 3275
0.10 0.28 0.82 -0.81 9.95 -0.01 -0.04 0.03 3281
0.11 0.31 0.81 -0.83 9.96 -0.01 -0.04 0.03 3288
0.13 0.27 0.79 -0.82 10.01 -0.01 -0.04 0.03 3294
0.11 0.25 0.81 -0.83 9.98 -0.01 -0.03 0.03 3301
0.12 0.24 0.82 -0.81 9.99 0.00 -0.03 0.03 3307
0.13 0.24 0.84 -0.83 10.05 -0.00 -0.03 0.03 3313
0.13 0.19 0.80 -0.85 9.97 0.00 -0.03 0.03 3319
0.13 0.19 0.80 -0.85 9.99 0.00 -0.02 0.03 3325
0.15 0.18 0.81 -0.86 9.99 0.01 -0.02 0.03 3332
0.12 0.17 0.80 -0.84 9.98 0.01 -0.02 0.03 3338
0.12 0.13 0.84 -0.85 9.98 0.01 -0.02 0.03 3345
0.13 0.13 0.77 -0.88 9.92 0.00 -0.01 0.03 3351
0.15 0.09 0.84 -0.83 9.96 0.00 -0.01 0.03 3357
0.15 0.08 0.77 -0.83 10.02 0.01 -0.01 0.03 3363
0.14 0.07 0.83 -0.83 9.96 0.01 -0.01 0.03 3369
0.16 0.08 0.83 -0.81 9.96 0.00 -0.01 0.03 3376
0.16 0.03 0.87 -0.92 10.03 0.00 -0.01 0.03 3382
0.15 0.04 0.84 -0.87 9.93 0.00 -0.01 0.02 3389
0.16 0.06 0.83 -0.85 9.97 0.00 -0.01 0.03 3395
0.17 0.06 0.85 -0.82 10.01 0.00 -0.00 0.03 3401
0.17 0.04 0.83 -0.85 9.98 0.00 0.00 0.02 3407
0.15 0.06 0.82 -0.86 9.98 0.00 0.01 0.03 3414
0.16 0.06 0.85 -0.85 9.99 0.00 0.01 0.03 3420
0.16 0.07 0.86 -0.84 9.99 0.00 0.01 0.03 3426
0.15 0.02 0.86 -0.84 10.00 0.00 0.01 0.02 3432
0.15 0.01 0.82 -0.87 9.97 0.00 0.01 0.02 3439
0.17 -0.00 0.83 -0.86 9.97 0.00 0.01 0.02 3445
0.16 0.02 0.85 -0.87 9.96 0.00 0.01 0.02 3451
0.15 0.01 0.86 -0.86 9.96 0.00 0.01 0.02 3458
0.16 0.02 0.89 -0.87 10.00 0.00 0.01 0.02 3464
0.16 0.01 0.87 -0.88 9.97 0.00 0.01 0.02 3470
0.15 0.01 0.90 -0.89 9.99 -0.00 0.01 0.02 3476
0.14 0.01 0.86 -0.86 9.98 -0.00 0.00 0.03 3482
0.15 -0.00 0.89 -0.89 9.96 -0.00 0.00 0.02 3489
0.16 -0.02 0.89 -0.87 9.98 -0.00 -0.00 0.02 3495
0.15 -0.01 0.89 -0.86 9.94 -0.01 -0.01 0.02 3502
0.13 -0.01 0.88 -0.86 9.98 -0.01 -0.01 0.02 3508
0.15 0.00 0.91 -0.88 9.97 -0.01 -0.01 0.02 3514
0.16 -0.01 0.88 -0.88 9.97 -0.01 -0.01 0.02 3520
0.16 -0.02 0.88 -0.86 9.93 -0.01 -0.01 0.02 3526
0.13 -0.01 0.90 -0.88 9.97 -0.02 -0.01 0.01 3532
0.15 -0.00 0.90 -0.89 10.01 -0.02 -0.01 0.02 3538
0.15 -0.02 0.91 -0.84 9.97 -0.02 -0.02 0.02 3545
0.15 -0.02 0.91 -0.86 10.00 -0.02 -0.02 0.02 3552
0.14 -0.01 0.94 -0.89 9.98 -0.02 -0.03 0.01 3558
0.15 0.00 0.94 -0.90 10.00 -0.02 -0.03 0.01 3564
0.15 -0.00 0.90 -0.85 9.97 -0.02 -0.03 0.01 3570
0.15 -0.01 0.92 -0.89 9.96 -0.02 -0.04 0.01 3576
0.14 -0.01 0.92 -0.87 9.98 -0.02 -0.04 0.01 3582
0.16 -0.01 0.93 -0.89 9.94 -0.02 -0.05 0.00 3589
0.16 -0.01 0.94 -0.87 9.95 -0.02 -0.05 0.00 3595
0.15 -0.01 0.89 -0.87 9.97 -0.02 -0.06 0.00 3602
0.16 0.01 0.85 -0.87 9.95 -0.02 -0.06 0.00 3608
0.17 -0.01 0.90 -0.92 9.95 -0.02 -0.07 -0.00 3614
0.16 -0.01 0.91 -0.89 9.91 -0.03 -0.07 -0.00 3620
0.15 -0.01 0.95 -0.88 9.98 -0.03 -0.07 -0.00 3627
0.16 0.01 0.88 -0.87 9.98 -0.03 -0.07 -0.00 3633
0.15 0.01 0.89 -0.89 10.01 -0.03 -0.07 -0.00 3639
0.14 0.01 0.90 -0.88 9.94 -0.03 -0.07 -0.01 3646
0.17 0.03 0.85 -0.86 10.01 -0.02 -0.06 -0.00 3652
0.18 0.02 0.90 -0.84 10.01 -0.02 -0.06 0.03 3658
0.19 0.01 0.89 -0.81 9.99 -0.01 -0.06 0.00 3664
0.20 0.02 0.91 -0.87 9.98 -0.01 -0.06 -0.00 3671
0.18 0.02 0.89 -0.81 9.95 -0.01 -0.05 -0.00 3677
0.19 0.01 0.88 -0.84 10.00 -0.00 -0.05 -0.00 3684
0.20 0.01 0.86 -0.87 10.08 -0.00 -0.05 -0.00 3690
0.23 0.02 0.89 -0.88 10.01 0.00 -0.05 -0.00 3696
0.21 0.01 0.89 -0.87 10.01 -0.00 -0.05 -0.00 3702
0.21 -0.01 0.90 -0.87 9.97 0.00 -0.05 -0.00 3708
0.22 0.00 0.89 -0.90 9.99 0.00 -0.05 -0.00 3715
0.22 0.01 0.90 -0.90 9.98 -0.00 -0.05 -0.01 3721
0.23 -0.02 0.88 -0.89 9.97 -0.00 -0.05 -0.01 3727
0.23 -0.00 0.87 -0.91 9.99 -0.00 -0.05 -0.01 3734
0.24 -0.00 0.88 -0.89 10.02 -0.03 -0.04 -0.00 3740
0.23 -0.01 0.88 -0.88 9.96 0.00 -0.04 -0.00 3746
0.22 -0.01 0.88 -0.87 10.05 -0.00 -0.04 -0.00 3752
0.23 -0.00 0.85 -0.90 9.99 0.00 -0.04 0.00 3759
0.24 -0.02 0.88 -0.88 10.04 0.01 -0.03 0.00 3765
0.23 -0.02 0.90 -0.89 10.05 0.02 -0.02 0.00 3771
0.22 -0.02 0.84 -0.85 10.06 0.02 -0.01 0.01 3778
0.23 0.00 0.87 -0.83 10.11 0.04 0.01 0.01 3784
0.23 -0.01 0.88 -0.90 10.09 0.05 0.02 0.02 3790
0.22 -0.02 0.91 -0.87 10.08 0.06 0.05 0.02 3796
0.22 -0.01 0.92 -1.14 10.19 0.08 0.10 0.02 3803
0.22 -0.02 1.04 -0.91 10.14 0.10 0.09 0.02 3809
0.22 -0.02 1.15 -1.18 10.16 0.12 0.12 0.01 3816
0.22 -0.02 1.15 -0.92 10.28 0.17 0.16 -0.01 3822
0.20 -0.01 1.49 -0.94 11.01 0.22 0.18 -0.04 3828
0.17 -0.02 1.46 -1.05 10.84 0.31 0.18 -0.05 3834
0.17 -0.02 1.22 -1.04 11.00 0.48 0.19 -0.07 3841
0.17 -0.02 0.94 -1.53 11.45 0.78 0.21 -0.08 3847
0.14 -0.01 0.95 -1.01 12.73 1.21 0.24 -0.10 3854
0.10 -0.01 1.02 -1.38 13.21 1.58 0.33 -0.13 3860
0.11 -0.01 1.01 -1.27 14.24 1.92 0.43 -0.12 3866
0.09 -0.01 1.09 -1.27 16.02 2.20 0.65 -0.14 3872
0.04 -0.00 0.79 -1.51 14.22 2.42 1.08 -0.11 3878
0.04 0.00 0.69 -1.71 15.16 2.42 1.54 -0.06 3885
0.03 -0.00 0.67 -2.34 15.18 2.38 2.00 -0.03 3892
0.04 -0.00 0.57 -2.36 13.74 2.40 2.45 0.06 3898
0.04 0.01 0.74 -2.64 14.08 2.35 2.79 0.15 3904
0.05 -0.01 0.59 -3.14 13.92 2.33 3.04 0.25 3910
0.05 -0.01 0.73 -3.48 14.12 2.32 3.21 0.36 3916
0.04 0.00 0.56 -4.02 14.89 2.30 3.33 0.48 3922
0.05 -0.00 1.16 -4.17 15.34 2.27 3.41 0.60 3930
0.05 -0.01 0.59 -4.08 15.23 2.21 3.46 0.69 3936
0.04 0.01 0.22 -3.92 14.33 2.14 3.47 0.75 3942
0.05 -0.00 0.07 -3.95 12.96 2.11 3.43 0.78 3948
0.05 -0.00 -0.34 -3.94 13.05 2.17 3.32 0.82 3954
0.05 -0.00 -1.36 -3.57 12.59 2.26 3.08 0.88 3960
0.06 -0.01 -1.85 -2.99 12.45 2.31 2.80 0.95 3968
0.05 -0.00 -3.02 -2.80 11.37 2.33 2.49 1.04 3974
0.04 -0.00 -4.44 -2.34 10.07 2.29 2.03 1.12 3980
0.04 -0.00 -6.45 -1.87 8.69 2.22 1.43 1.09 3986
0.05 -0.01 -8.21 -0.10 9.97 2.14 0.81 0.79 3992
0.05 -0.00 -7.65 1.07 10.38 1.96 -0.04 0.45 3998
0.04 -0.00 -18.97 4.43 15.63 1.58 -0.92 -0.12 4004
0.05 -0.01 -9.70 4.19 12.23 0.89 -1.83 -0.86 4012
0.04 -0.00 -4.86 3.32 12.67 0.41 -2.31 -1.22 4018
0.04 -0.00 -3.81 2.62 13.20 0.12 -2.46 -1.53 4024
0.05 -0.01 -3.29 2.32 12.86 -0.04 -2.44 -1.91 4030
0.04 -0.00 -1.69 2.13 11.65 -0.15 -2.44 -2.24 4036
0.03 -0.00 -0.57 2.00 10.81 -0.23 -2.52 -2.44 4042
0.05 -0.01 0.16 2.27 10.99 -0.33 -2.55 -2.51 4049
0.03 -0.00 0.77 2.34 11.62 -0.42 -2.55 -2.48 4056
0.03 -0.00 1.34 2.24 11.95 -0.52 -2.52 -2.37 4062
0.03 -0.00 2.00 2.19 11.78 -0.62 -2.49 -2.28 4068
0.03 -0.00 2.53 2.26 11.60 -0.74 -2.51 -2.11 4074
0.02 -0.00 3.19 2.28 11.40 -0.86 -2.55 -1.90 4080
0.02 -0.00 3.56 2.11 10.97 -0.97 -2.60 -1.67 4087
0.03 -0.00 3.98 1.82 10.38 -1.09 -2.66 -1.43 4093
0.03 -0.00 4.43 1.43 9.98 -1.19 -2.70 -1.19 4100
0.03 -0.00 5.02 1.03 9.78 -1.21 -2.70 -0.97 4106
0.04 -0.00 5.43 0.51 9.42 -1.23 -2.65 -0.76 4112
0.03 -0.00 5.90 -0.03 9.37 -1.23 -2.54 -0.58 4118
0.03 -0.00 6.01 -0.41 9.07 -1.20 -2.39 -0.45 4124
0.02 -0.00 6.11 -0.83 8.88 -1.16 -2.23 -0.30 4130
0.04 -0.00 6.13 -1.22 8.87 -1.11 -2.06 -0.16 4137
0.03 -0.00 5.90 -1.57 8.74 -1.07 -1.91 -0.03 4144
0.02 -0.00 5.68 -1.95 8.53 -1.01 -1.80 0.09 4150
0.02 -0.00 5.50 -2.35 8.29 -0.95 -1.67 0.21 4156
0.03 -0.00 5.22 -2.80 8.11 -0.88 -1.57 0.30 4162
0.03 -0.00 5.10 -2.95 8.35 -0.80 -1.48 0.40 4168
0.02 -0.00 5.16 -2.84 8.79 -0.74 -1.37 0.50 4174
0.03 -0.00 5.15 -2.81 9.17 -0.71 -1.22 0.63 4180
0.04 -0.00 4.99 -2.66 9.35 -0.71 -1.04 0.76 4187
0.03 -0.00 4.74 -2.47 9.35 -0.74 -0.88 0.89 4193
0.03 -0.00 4.31 -2.44 9.52 -0.79 -0.69 1.00 4200
0.03 -0.00 3.84 -2.56 9.64 -0.83 -0.51 1.12 4206
0.04 -0.00 3.24 -2.75 9.85 -0.86 -0.33 1.21 4212
0.02 -0.00 2.40 -3.05 9.61 -0.88 -0.18 1.29 4218
0.02 -0.00 1.71 -3.31 9.25 -0.87 -0.13 1.33 4225
0.03 -0.00 0.63 -3.48 8.93 -0.85 -0.15 1.36 4231
0.03 -0.00 0.88 -3.55 9.02 -0.81 -0.23 1.37 4237
0.02 -0.00 0.79 -3.47 9.14 -0.76 -0.35 1.38 4243
0.02 -0.00 0.89 -3.17 9.27 -0.73 -0.49 1.38 4249
0.03 -0.00 1.22 -2.83 9.17 -0.71 -0.65 1.36 4256
0.03 -0.00 1.75 -2.47 8.96 -0.70 -0.77 1.32 4262
0.03 -0.00 2.39 -2.37 9.06 -0.70 -0.84 1.24 4269
0.02 -0.00 2.94 -2.55 9.15 -0.71 -0.86 1.16 4275
0.02 0.01 3.35 -2.75 9.24 -0.70 -0.85 1.04 4281
0.03 -0.00 3.73 -2.90 8.58 -0.69 -0.81 0.99 4287
0.03 -0.00 3.93 -3.02 8.87 -0.69 -0.75 0.91 4293
0.01 -0.00 4.10 -3.09 8.74 -0.68 -0.69 0.85 4299
0.03 0.00 4.22 -3.03 8.85 -0.67 -0.62 0.80 4306
0.03 -0.00 4.28 -2.88 9.10 -0.67 -0.54 0.78 4313
0.02 -0.00 4.16 -2.74 9.29 -0.69 -0.46 0.77 4319
0.03 -0.00 4.14 -2.59 9.81 -0.71 -0.37 0.77 4325
0.03 -0.00 4.02 -2.52 10.24 -0.77 -0.28 0.80 4331
0.03 -0.00 3.56 -2.70 10.44 -0.86 -0.23 0.85 4337
0.02 -0.00 3.03 -2.91 10.11 -0.93 -0.24 0.89 4343
0.02 -0.00 2.66 -3.17 9.39 -0.98 -0.30 0.92 4349
0.04 -0.00 2.41 -3.42 8.72 -0.98 -0.34 0.91 4357
0.02 -0.00 2.20 -3.57 8.05 -0.93 -0.38 0.88 4363
0.02 -0.00 2.11 -3.10 7.62 -0.85 -0.39 0.83 4369
0.03 -0.00 2.02 -3.63 7.44 -0.76 -0.36 0.75 4375
0.03 -0.00 1.92 -3.39 7.39 -0.65 -0.31 0.63 4381
0.02 -0.00 1.86 -3.12 7.56 -0.55 -0.24 0.51 4387
0.02 -0.00 1.86 -2.78 8.18 -0.49 -0.16 0.38 4393
0.02 -0.00 2.11 -2.40 9.58 -0.46 -0.07 0.25 4400
0.04 -0.00 2.44 -2.05 11.46 -0.52 -0.03 0.15 4406
0.02 -0.00 2.74 -1.94 12.60 -0.68 0.01 0.07 4413
0.02 -0.00 2.70 -2.28 12.59 -0.92 0.03 -0.01 4419
0.03 -0.00 2.46 -2.96 11.89 -1.16 0.02 -0.11 4425
0.03 -0.00 2.17 -4.07 10.70 -1.34 0.01 -0.24 4431
0.02 -0.00 1.95 -5.45 9.62 -1.39 0.01 -0.40 4438
0.02 -0.00 2.00 -6.69 8.79 -1.35 0.04 -0.59 4444
0.04 -0.00 2.24 -7.70 8.21 -1.23 0.09 -0.80 4450
0.03 -0.00 2.77 -8.01 8.37 -1.08 0.19 -1.02 4456
0.02 -0.00 3.42 -8.01 8.63 -0.95 0.30 -1.19 4462
0.02 -0.00 3.89 -7.85 8.39 -0.88 0.41 -1.34 4469
0.04 -0.00 4.19 -7.72 7.86 -0.83 0.49 -1.44 4475
0.03 -0.00 4.50 -7.87 6.62 -0.78 0.49 -1.49 4482
0.03 -0.00 4.75 -8.21 5.58 -0.65 0.48 -1.49 4488
0.04 -0.00 5.42 -8.39 4.36 -0.45 0.47 -1.44 4494
0.05 -0.00 6.86 -8.19 3.57 -0.20 0.51 -1.33 4500
0.04 -0.00 8.31 -7.60 3.15 0.07 0.65 -1.14 4506
0.04 -0.00 -4.43 -33.03 39.79 0.27 3.37 -0.62 4512
0.06 -0.00 -9.60 -43.69 18.73 0.78 4.28 0.07 4519
0.06 -0.01 -9.25 -27.43 31.58 -0.43 1.42 -0.88 4526
0.07 -0.01 -16.10 -9.07 -2.64 -0.40 -0.14 -0.63 4532
0.09 -0.01 -3.64 1.14 15.94 -0.71 1.89 0.13 4538
0.10 -0.01 4.86 -1.06 15.05 -0.71 0.70 0.37 4544
0.09 -0.01 0.41 -0.08 9.85 -0.24 0.14 0.06 4550
0.09 0.01 -0.08 -0.07 10.38 -0.28 0.13 0.14 4557
0.10 -0.01 1.29 -0.06 10.67 -0.22 0.06 0.18 4563
0.11 0.03 0.25 -1.03 10.46 -0.19 0.04 0.21 4570
0.10 0.07 1.65 -1.44 10.64 -0.12 -0.00 0.21 4576
0.11 0.06 1.44 -0.82 10.17 -0.07 -0.02 0.17 4582
0.10 0.07 0.93 -0.60 10.01 -0.04 -0.01 0.12 4589
0.12 0.08 0.74 -1.03 10.12 -0.03 -0.00 0.08 4595
0.14 0.06 0.73 -0.95 10.13 -0.02 0.00 0.07 4601
0.16 0.06 0.65 -0.88 10.15 -0.01 0.01 0.07 4608
0.16 0.10 0.60 -0.80 10.01 -0.01 0.02 0.07 4614
0.17 0.09 0.67 -0.89 9.95 -0.01 0.02 0.07 4620
0.16 0.07 0.87 -0.92 10.00 -0.01 0.01 0.07 4627
0.17 0.07 0.88 -0.81 9.90 -0.02 0.00 0.06 4633
0.20 0.07 0.87 -0.79 9.97 -0.03 -0.01 0.05 4639
0.21 0.07 0.86 -0.84 10.00 -0.03 -0.02 0.04 4645
0.22 0.08 0.72 -0.79 9.96 -0.03 -0.03 0.03 4652
0.24 0.10 0.71 -0.85 10.07 -0.03 -0.04 0.04 4658
0.23 0.10 0.69 -0.82 10.00 -0.03 -0.04 0.04 4665
0.22 0.11 0.75 -0.76 10.03 -0.03 -0.05 0.03 4671
0.25 0.14 0.76 -0.72 10.04 -0.02 -0.05 0.03 4677
0.24 0.14 0.71 -0.81 10.04 -0.01 -0.05 0.02 4683
0.24 0.10 0.76 -0.80 9.97 -0.01 -0.06 0.02 4689
0.28 0.11 0.71 -0.80 10.02 -0.01 -0.06 0.02 4697
0.29 0.08 0.73 -0.76 10.05 -0.02 -0.07 0.02 4703
0.29 0.08 0.66 -0.79 9.97 -0.01 -0.06 0.02 4709
0.32 0.08 0.65 -0.81 9.99 -0.01 -0.06 0.02 4715
0.34 0.06 0.63 -0.80 10.02 -0.00 -0.05 0.02 4721
0.34 0.03 0.66 -0.80 9.99 0.00 -0.05 0.03 4727
0.36 0.03 0.72 -0.79 10.00 0.01 -0.04 0.03 4733
0.40 0.02 0.71 -0.77 10.02 0.01 -0.04 0.03 4741
0.42 -0.00 0.69 -0.79 10.05 0.02 -0.03 0.03 4747
0.44 -0.02 0.69 -0.76 10.00 0.02 -0.03 0.03 4753
0.49 -0.02 0.68 -0.84 10.03 0.02 -0.03 0.03 4759
0.50 -0.04 0.68 -0.83 9.98 0.03 -0.02 0.03 4765
0.50 -0.03 0.68 -0.82 9.98 0.02 -0.02 0.04 4771
0.51 -0.01 0.68 -0.81 10.00 0.03 -0.02 0.04 4779
0.52 -0.02 0.68 -0.82 9.98 0.03 -0.01 0.04 4785
0.52 -0.04 0.68 -0.79 10.01 0.03 -0.01 0.04 4791
0.53 -0.02 0.69 -0.84 9.98 0.03 -0.01 0.04 4797
0.55 -0.04 0.71 -0.84 10.03 0.04 -0.00 0.04 4803
0.53 -0.05 0.70 -0.83 10.00 0.04 -0.00 0.04 4809
0.54 -0.03 0.68 -0.86 9.98 0.04 0.00 0.04 4816
0.55 -0.04 0.72 -0.85 10.01 0.04 0.01 0.04 4823
0.55 -0.05 0.70 -0.86 9.99 0.04 0.01 0.05 4829
0.53 -0.03 0.72 -0.82 10.01 0.04 0.01 0.04 4835
0.55 -0.04 0.74 -0.85 9.96 0.04 0.01 0.04 4841
0.53 -0.03 0.70 -0.85 10.00 0.03 0.01 0.05 4847
0.51 -0.04 0.73 -0.84 9.97 0.02 0.01 0.05 4853
0.51 -0.02 0.69 -0.86 9.91 0.02 0.01 0.05 4860
0.50 -0.03 0.75 -0.88 9.93 0.01 0.02 0.04 4867
0.49 -0.04 0.75 -0.84 9.93 0.01 0.02 0.04 4873
0.47 -0.03 0.72 -0.88 9.91 0.00 0.02 0.04 4879
0.46 -0.03 0.74 -0.87 9.93 -0.01 0.03 0.04 4885
0.43 -0.03 0.74 -0.88 9.90 -0.01 0.03 0.04 4891
0.41 -0.04 0.72 -0.89 9.94 -0.02 0.05 0.03 4897
0.39 -0.02 0.77 -0.90 9.94 -0.02 0.06 0.04 4903
0.39 -0.03 0.80 -0.89 10.00 -0.02 0.07 0.04 4911
0.34 -0.03 0.80 -0.88 9.97 -0.02 0.06 0.04 4917
0.33 -0.03 0.81 -0.87 10.01 -0.02 0.06 0.03 4923
0.31 -0.02 0.79 -0.85 10.01 -0.02 0.05 0.03 4929
0.30 -0.03 0.79 -0.85 10.02 -0.02 0.05 0.03 4935
0.25 -0.03 0.82 -0.87 10.02 -0.02 0.04 0.03 4941
0.26 -0.01 0.80 -0.85 10.02 -0.01 0.03 0.03 4948
0.23 -0.02 0.85 -0.86 10.04 -0.02 0.02 0.03 4955
0.22 -0.02 0.86 -0.83 9.98 -0.02 0.01 0.03 4961
0.21 -0.01 0.82 -0.88 9.98 -0.02 0.01 0.03 4967
0.21 -0.00 0.89 -0.87 9.96 -0.02 0.01 0.03 4973
0.20 -0.01 0.85 -0.86 9.99 -0.03 0.01 0.02 4979
0.16 -0.01 0.85 -0.84 9.94 -0.04 0.00 0.02 4985
0.16 0.00 0.86 -0.85 9.93 -0.04 0.00 0.01 4992
0.16 -0.01 0.88 -0.87 9.98 -0.05 0.00 0.01 4999
0.15 -0.00 0.86 -0.86 10.00 -0.05 0.00 0.01 5005
0.12 0.00 0.84 -0.82 9.98 -0.05 0.00 0.00 5011
0.13 0.03 0.84 -0.83 10.05 -0.05 0.03 0.00 5017
0.14 0.02 0.82 -0.82 10.00 -0.05 -0.00 0.00 5023
0.13 0.00 0.86 -0.81 9.96 -0.04 -0.01 0.00 5029
0.13 0.01 0.84 -0.85 10.01 -0.03 -0.02 0.01 5036
0.13 0.02 0.88 -0.83 10.05 -0.03 -0.02 0.00 5043
0.12 0.02 0.89 -0.81 9.99 -0.03 -0.02 -0.00 5049
0.13 0.04 0.86 -0.82 9.94 -0.03 -0.03 -0.01 5055
0.14 0.04 0.93 -0.81 9.97 -0.03 -0.02 -0.01 5061
0.13 0.03 0.84 -0.83 9.99 -0.03 -0.02 -0.02 5067
0.12 0.03 0.86 -0.83 9.97 -0.03 -0.01 -0.02 5073
0.13 0.04 0.84 -0.82 9.94 -0.03 -0.01 -0.02 5081
0.12 0.03 0.84 -0.83 10.00 -0.03 -0.01 -0.03 5087
0.12 0.02 0.84 -0.82 10.00 -0.02 -0.00 -0.03 5093
0.12 0.02 0.86 -0.83 10.01 -0.02 -0.00 -0.02 5099
0.13 0.00 0.89 -0.83 9.98 -0.02 -0.01 -0.02 5105
0.13 0.00 0.85 -0.81 9.97 -0.02 -0.01 -0.01 5111
0.13 0.01 0.94 -0.83 10.00 -0.01 -0.02 -0.01 5118
0.14 0.00 0.94 -0.82 9.90 -0.01 -0.02 -0.01 5125
0.13 0.00 0.88 -0.83 10.02 -0.01 -0.03 -0.01 5131
0.15 0.00 0.89 -0.82 9.95 -0.01 -0.03 -0.02 5137
0.18 0.02 0.90 -0.83 9.99 -0.01 -0.03 -0.01 5143
0.19 0.00 0.91 -0.85 10.01 -0.01 -0.03 -0.02 5149
0.17 -0.01 0.86 -0.84 9.95 -0.01 -0.03 -0.02 5155
0.17 0.00 0.92 -0.89 10.01 -0.01 -0.03 -0.01 5163
0.18 0.00 0.91 -0.84 10.01 -0.01 -0.03 -0.02 5169
0.18 -0.01 0.88 -0.82 9.98 -0.01 -0.03 -0.01 5175
0.19 0.01 0.87 -0.89 9.93 -0.02 -0.03 -0.01 5181
0.21 -0.00 0.86 -0.82 9.98 -0.02 -0.02 -0.01 5187
0.20 -0.00 0.95 -0.84 10.03 -0.01 -0.02 -0.00 5193
0.20 -0.01 0.92 -0.83 9.98 -0.01 -0.02 -0.01 5200
0.23 -0.00 0.93 -0.81 10.03 -0.01 -0.01 -0.00 5207
0.22 -0.01 0.95 -0.81 10.07 -0.00 -0.01 -0.00 5213
0.23 -0.01 0.95 -0.82 10.07 0.01 -0.01 -0.00 5219
0.23 -0.02 0.99 -0.78 10.02 0.02 -0.00 -0.01 5225
0.24 -0.02 1.43 -0.89 9.99 0.02 0.00 -0.02 5231
0.23 -0.02 1.24 -0.80 10.08 0.03 0.02 -0.03 5237
0.22 -0.02 1.05 -0.97 10.06 0.04 0.03 -0.04 5244
0.24 -0.02 0.97 -0.86 10.07 0.05 0.04 -0.04 5251
0.22 -0.02 0.78 -0.84 10.17 0.06 0.06 -0.04 5257
0.20 -0.02 0.81 -0.88 10.10 0.07 0.09 -0.05 5263
0.21 -0.02 1.13 -0.85 10.20 0.09 0.10 -0.05 5269
0.19 -0.02 1.14 -0.90 10.21 0.12 0.12 -0.05 5275
0.18 -0.01 1.30 -0.83 10.21 0.17 0.14 -0.06 5282
0.18 -0.01 1.24 -0.97 10.67 0.26 0.16 -0.06 5288
0.14 -0.01 0.98 -1.09 10.95 0.40 0.21 -0.07 5295
0.14 -0.01 1.03 -1.10 11.01 0.55 0.27 -0.06 5301
0.14 -0.01 0.68 -1.06 11.13 0.76 0.33 -0.06 5307
0.09 -0.01 0.78 -1.17 11.40 0.98 0.37 -0.06 5313
0.07 -0.01 1.14 -1.09 11.71 1.17 0.42 -0.07 5320
0.08 -0.00 1.15 -1.43 12.36 1.36 0.47 -0.07 5326
0.09 -0.01 1.30 -1.54 12.55 1.53 0.57 -0.08 5332
0.06 -0.01 0.99 -1.67 13.42 1.65 0.73 -0.09 5339
0.08 -0.00 0.99 -1.74 12.88 1.74 0.99 -0.09 5345
0.06 -0.01 1.11 -1.87 13.32 1.81 1.26 -0.06 5351
0.05 -0.01 1.29 -1.78 13.17 1.84 1.55 -0.04 5358
0.04 -0.00 1.38 -2.00 13.19 1.84 1.80 -0.02 5364
0.06 -0.01 1.52 -2.30 13.54 1.87 2.10 -0.00 5370
0.06 -0.01 1.60 -2.59 13.54 1.89 2.32 0.03 5377
0.04 -0.00 1.80 -2.38 13.99 1.89 2.60 0.06 5383
0.05 -0.01 2.03 -2.71 14.26 1.89 2.88 0.08 5389
0.05 -0.00 1.71 -2.88 14.61 1.89 3.17 0.12 5396
0.03 -0.00 2.02 -3.19 15.09 1.84 3.35 0.18 5402
0.04 0.00 2.05 -3.87 15.51 1.80 3.45 0.23 5408
0.04 -0.00 1.83 -3.55 16.34 1.77 3.58 0.28 5414
0.06 -0.01 2.04 -3.21 15.48 1.75 3.72 0.29 5421
0.05 -0.00 2.17 -3.24 15.81 1.79 3.94 0.28 5427
0.05 -0.00 1.22 -2.97 14.43 1.86 4.08 0.25 5434
0.05 -0.00 -0.49 -2.45 12.59 1.80 3.98 0.27 5440
0.05 -0.01 -1.23 -2.26 11.18 1.69 3.70 0.29 5446
0.05 -0.01 -3.63 -2.00 10.32 1.56 3.17 0.29 5452
0.04 -0.00 -6.19 -0.86 8.68 1.45 2.37 0.26 5458
0.04 -0.00 -15.92 1.82 8.78 1.34 1.30 0.00 5465
0.04 -0.00 -28.49 5.78 17.23 0.81 -0.43 -1.28 5471
0.04 -0.00 -14.37 4.17 13.54 -0.12 -2.19 -2.34 5478
0.04 -0.00 -5.02 2.06 15.30 -0.69 -2.66 -2.72 5484
0.05 -0.01 -2.59 0.98 13.44 -0.98 -2.55 -3.02 5490
0.04 -0.00 -3.20 0.79 11.37 -1.12 -2.30 -3.48 5496
0.03 -0.00 -2.92 0.42 8.88 -1.09 -2.14 -3.95 5502
0.04 -0.00 -1.24 0.30 7.44 -0.99 -2.18 -4.21 5509
0.05 -0.00 0.36 0.86 8.23 -0.88 -2.28 -4.28 5516
0.04 -0.00 1.63 1.14 9.76 -0.79 -2.31 -4.26 5522
0.04 -0.00 1.74 1.30 10.96 -0.74 -2.27 -3.99 5528
0.05 -0.01 1.15 1.44 11.01 -0.72 -2.15 -3.54 5534
0.05 -0.00 1.80 2.22 9.81 -0.74 -2.18 -3.04 5540
0.05 -0.00 2.87 3.11 9.52 -0.80 -2.42 -2.57 5547
0.04 -0.00 3.70 3.29 9.77 -0.88 -2.75 -2.14 5553
0.06 -0.01 4.71 2.81 9.53 -0.94 -2.93 -1.75 5559
0.05 -0.00 5.88 2.39 9.44 -0.99 -2.93 -1.33 5566
0.04 -0.00 6.68 2.17 9.26 -1.03 -2.80 -0.95 5572
0.05 -0.00 7.06 1.87 8.78 -1.04 -2.58 -0.63 5578
0.06 -0.01 7.22 1.50 8.41 -1.05 -2.29 -0.36 5584
0.03 -0.00 7.58 1.14 9.70 -1.05 -2.05 -0.11 5591
0.04 -0.00 7.30 0.99 8.90 -1.04 -1.73 0.08 5597
0.04 -0.00 6.67 0.67 9.19 -1.04 -1.44 0.31 5603
0.05 -0.00 6.08 0.33 9.25 -1.05 -1.22 0.54 5609
0.04 -0.00 5.46 0.01 9.14 -1.06 -1.07 0.75 5615
0.04 -0.00 4.89 -0.36 8.98 -1.07 -1.00 0.95 5621
0.04 -0.00 4.56 -0.93 8.85 -1.06 -0.96 1.11 5628
0.05 -0.01 4.24 -1.49 8.42 -1.02 -0.96 1.22 5635
0.04 -0.00 4.00 -2.07 8.66 -0.96 -0.98 1.30 5641
0.04 -0.00 3.87 -2.47 8.63 -0.88 -1.00 1.35 5647
0.04 -0.00 3.88 -2.58 8.92 -0.80 -0.99 1.37 5653
0.05 -0.01 4.07 -2.64 9.50 -0.75 -0.95 1.38 5659
0.03 -0.00 4.08 -2.77 9.55 -0.72 -0.87 1.37 5665
0.04 -0.00 3.94 -2.96 9.37 -0.72 -0.74 1.36 5671
0.04 -0.00 3.72 -3.17 9.45 -0.72 -0.58 1.36 5678
0.05 -0.01 3.61 -3.41 9.77 -0.71 -0.39 1.35 5685
0.03 -0.00 3.16 -3.72 9.88 -0.70 -0.17 1.36 5691
0.04 -0.00 2.34 -3.95 10.07 -0.70 0.04 1.35 5697
0.04 0.01 1.53 -4.23 10.07 -0.70 0.17 1.33 5703
0.05 -0.00 0.74 -4.37 10.03 -0.69 0.18 1.34 5709
0.04 -0.00 0.24 -4.16 10.20 -0.68 0.09 1.35 5715
0.04 -0.00 -0.01 -3.78 10.33 -0.67 -0.08 1.38 5722
0.05 -0.00 0.11 -3.10 10.28 -0.68 -0.29 1.40 5729
0.04 -0.00 0.56 -2.40 10.46 -0.74 -0.49 1.41 5735
0.03 -0.00 1.05 -1.83 10.57 -0.84 -0.64 1.40 5741
0.04 -0.00 1.77 -1.47 10.73 -0.97 -0.71 1.36 5747
0.04 -0.00 2.40 -1.43 10.54 -1.13 -0.72 1.30 5753
0.03 -0.00 2.83 -1.93 10.05 -1.23 -0.71 1.20 5760
0.04 0.01 3.30 -2.72 9.54 -1.34 -0.70 1.10 5767
0.04 -0.00 3.60 -3.37 9.03 -1.40 -0.72 0.99 5773
0.04 -0.00 3.93 -3.76 8.51 -1.41 -0.74 0.89 5779
0.03 -0.00 4.46 -4.04 8.22 -1.37 -0.73 0.79 5785
0.05 -0.01 5.08 -4.18 7.93 -1.32 -0.69 0.71 5791
0.04 -0.00 5.58 -4.26 7.85 -1.27 -0.61 0.62 5797
0.03 -0.00 5.99 -4.27 8.06 -1.22 -0.48 0.56 5804
0.03 -0.00 6.19 -4.39 8.09 -1.17 -0.32 0.50 5810
0.05 -0.00 6.21 -4.46 8.27 -1.12 -0.20 0.46 5816
0.04 -0.00 6.24 -4.53 8.53 -1.08 -0.06 0.42 5823
0.04 -0.00 6.24 -4.75 8.62 -1.06 0.09 0.38 5829
0.03 -0.00 6.07 -4.98 8.67 -1.04 0.27 0.32 5835
0.05 -0.00 5.92 -5.25 8.61 -1.03 0.46 0.25 5841
0.04 -0.00 5.61 -5.57 8.17 -1.01 0.64 0.17 5848
0.04 -0.00 5.30 -5.70 7.56 -0.99 0.78 0.06 5854
0.03 -0.00 4.74 -5.57 6.84 -0.96 0.91 -0.06 5860
0.04 -0.00 4.06 -5.13 6.21 -0.92 0.98 -0.13 5866
0.04 -0.00 3.49 -4.56 5.42 -0.89 0.96 -0.21 5872
0.02 -0.00 3.26 -4.01 4.66 -0.87 0.83 -0.29 5878
0.03 -0.00 3.41 -3.70 4.16 -0.86 0.62 -0.37 5884
0.04 0.00 3.98 -3.58 4.27 -0.84 0.42 -0.47 5892
0.04 -0.00 12.24 -44.92 6.09 -0.71 0.31 -0.37 5898
0.02 -0.00 17.41 -35.81 64.01 2.38 3.25 0.08 5904
0.05 0.02 -10.63 -36.42 -18.95 -0.36 -0.62 -0.31 5910
0.06 0.11 -6.64 -15.68 18.00 -0.40 -0.07 0.28 5917
0.05 0.19 0.93 -3.05 12.35 -0.28 0.09 0.13 5923
0.04 0.19 1.04 0.82 9.07 -0.08 0.03 0.17 5929
0.06 0.17 1.22 0.80 9.52 -0.11 0.04 0.15 5936
0.06 0.24 1.06 0.54 9.75 -0.15 0.07 0.16 5942
0.06 0.27 0.72 0.38 10.48 -0.14 0.07 0.14 5949
0.04 0.34 0.55 -0.51 10.25 -0.08 0.06 0.11 5955
0.03 0.38 1.16 -0.53 10.10 -0.02 0.04 0.10 5961
0.04 0.44 0.93 -0.52 9.88 0.00 0.05 0.11 5967
0.03 0.41 0.44 -0.58 9.93 0.00 0.05 0.11 5974
0.02 0.45 0.42 -0.91 10.15 -0.00 0.05 0.09 5980
0.04 0.44 0.58 -0.95 10.04 -0.02 0.06 0.10 5987
0.05 0.43 0.64 -0.90 10.10 -0.03 0.07 0.11 5993
0.05 0.46 0.69 -0.97 9.98 -0.04 0.07 0.11 5999
0.06 0.49 0.72 -0.87 10.06 -0.04 0.08 0.11 6005
0.03 0.52 0.79 -0.72 10.24 -0.04 0.09 0.11 6011
0.02 0.57 0.81 -0.57 10.04 -0.03 0.09 0.11 6018
0.04 0.58 0.82 -0.57 10.03 -0.03 0.09 0.10 6025
0.02 0.67 0.75 -0.47 9.93 -0.03 0.09 0.09 6031
0.03 0.66 0.81 -0.64 10.05 -0.02 0.10 0.09 6037
0.03 0.75 0.82 -0.54 10.04 -0.02 0.10 0.08 6043
0.04 0.72 0.76 -0.66 10.05 -0.02 0.13 0.08 6049
0.02 0.73 0.87 -0.61 10.07 -0.01 0.10 0.08 6056
0.03 0.74 0.81 -0.64 10.06 -0.01 0.09 0.07 6063
0.02 0.72 0.81 -0.03 10.03 -0.00 0.09 0.07 6069
0.01 0.70 0.79 -0.59 10.05 0.00 0.08 0.07 6075
0.03 0.72 0.81 -0.67 9.98 -0.00 0.08 0.08 6081
0.03 0.68 0.85 -0.65 9.99 0.00 0.08 0.08 6087
0.03 0.66 0.79 -0.65 9.99 0.00 0.09 0.08 6093
0.03 0.67 0.78 -0.65 10.01 0.00 0.10 0.07 6100
0.03 0.65 0.83 -0.66 10.01 0.00 0.10 0.07 6107
0.02 0.62 0.91 -0.63 9.96 0.00 0.10 0.08 6113
0.01 0.59 0.92 -0.67 9.95 0.00 0.09 0.07 6119
0.01 0.60 0.87 -0.63 10.01 -0.00 0.08 0.07 6125
0.03 0.57 0.86 -0.69 10.00 -0.00 0.09 0.06 6131
0.02 0.55 0.91 -0.71 10.02 -0.01 0.09 0.06 6138
0.03 0.57 0.88 -0.68 10.00 -0.01 0.09 0.06 6145
0.02 0.56 0.92 -0.66 9.99 -0.01 0.09 0.07 6151
0.02 0.53 0.97 -0.73 9.98 -0.02 0.10 0.06 6157
0.01 0.52 0.86 -0.66 9.98 -0.02 0.09 0.07 6163
0.03 0.49 0.97 -0.67 10.00 -0.01 0.09 0.06 6169
0.02 0.49 0.97 -0.69 9.96 -0.01 0.09 0.06 6175
0.02 0.49 0.96 -0.63 10.00 -0.01 0.10 0.06 6182
0.03 0.50 1.01 -0.66 9.98 -0.02 0.09 0.05 6189
0.02 0.49 0.98 -0.68 9.94 -0.02 0.09 0.05 6195
0.01 0.47 1.08 -0.66 9.98 -0.01 0.08 0.05 6201
0.03 0.47 1.09 -0.72 9.97 -0.02 0.07 0.04 6207
0.02 0.46 1.05 -0.68 9.95 -0.02 0.06 0.04 6213
0.02 0.45 1.09 -0.66 9.93 -0.02 0.05 0.04 6219
0.01 0.46 1.07 -0.67 9.97 -0.01 0.04 0.03 6226
0.03 0.44 1.08 -0.68 9.92 -0.01 0.03 0.03 6233
0.03 0.39 1.07 -0.69 9.98 -0.01 0.02 0.03 6239
0.02 0.38 1.07 -0.69 9.98 -0.01 0.01 0.03 6245
0.03 0.39 1.08 -0.63 9.97 -0.02 -0.00 0.02 6251
0.03 0.38 1.06 -0.66 9.98 -0.01 -0.01 0.03 6257
0.02 0.38 1.07 -0.65 9.96 -0.01 -0.01 0.02 6263
0.02 0.38 1.09 -0.63 9.97 -0.01 -0.01 0.02 6270
0.02 0.38 1.13 -0.68 9.92 -0.01 -0.02 0.02 6277
0.04 0.38 1.04 -0.68 9.96 -0.01 -0.02 0.02 6283
0.03 0.37 1.07 -0.70 9.98 -0.01 -0.02 0.02 6289
0.03 0.35 1.03 -0.68 9.97 -0.01 -0.02 0.01 6295
0.04 0.36 1.03 -0.67 9.97 -0.01 -0.02 0.02 6301
0.04 0.36 1.06 -0.69 10.01 -0.02 -0.02 0.02 6307
0.02 0.37 1.08 -0.67 9.98 -0.02 -0.02 0.01 6315
0.03 0.37 1.07 -0.66 9.95 -0.02 -0.01 0.02 6321
0.03 0.36 1.08 -0.68 9.96 -0.02 -0.01 0.02 6327
0.04 0.36 1.07 -0.69 9.95 -0.03 -0.01 0.02 6333
0.03 0.37 1.08 -0.70 9.98 -0.02 -0.00 0.02 6339
0.04 0.37 1.03 -0.71 10.00 -0.02 0.01 0.02 6345
0.03 0.35 1.08 -0.64 9.97 -0.02 0.02 0.01 6351
0.03 0.36 1.08 -0.67 9.99 -0.03 0.02 0.01 6358
0.02 0.38 1.09 -0.68 10.04 -0.03 0.02 0.01 6365
0.03 0.35 1.07 -0.67 9.98 -0.03 0.02 0.00 6371
0.04 0.32 1.10 -0.63 9.96 -0.03 0.01 -0.00 6377
0.03 0.34 1.09 -0.64 10.03 -0.03 0.01 -0.01 6383
0.04 0.34 1.12 -0.65 9.97 -0.02 -0.00 -0.01 6389
0.05 0.32 1.09 -0.64 9.95 -0.02 -0.01 -0.01 6395
0.03 0.33 1.14 -0.66 9.95 -0.03 -0.03 -0.02 6403
0.05 0.32 1.13 -0.67 9.97 -0.02 -0.05 -0.03 6409
0.03 0.31 1.14 -0.63 9.95 -0.03 -0.07 -0.03 6415
0.03 0.31 1.08 -0.64 9.91 -0.03 -0.08 -0.04 6421
0.04 0.32 1.14 -0.66 9.88 -0.03 -0.08 -0.04 6427
0.03 0.30 1.18 -0.67 9.90 -0.02 -0.08 -0.04 6433
0.02 0.32 1.16 -0.63 9.92 -0.02 -0.08 -0.04 6439
0.03 0.32 1.11 -0.65 9.94 -0.02 -0.09 -0.04 6447
0.04 0.30 1.13 -0.62 9.93 -0.02 -0.10 -0.03 6453
0.03 0.30 1.11 -0.66 9.92 -0.01 -0.10 -0.03 6459
0.02 0.31 1.10 -0.65 9.98 -0.00 -0.10 -0.03 6465
0.04 0.30 1.16 -0.62 9.93 0.00 -0.11 -0.03 6471
0.03 0.29 1.14 -0.65 9.97 0.01 -0.11 -0.02 6477
0.03 0.25 1.10 -0.68 10.07 0.01 -0.07 -0.02 6484
0.05 0.27 1.10 -0.66 9.95 0.02 -0.10 -0.01 6491
0.05 0.27 1.05 -0.65 10.03 0.02 -0.09 -0.01 6497
0.02 0.25 1.07 -0.65 10.04 0.02 -0.08 -0.01 6503
0.04 0.23 1.03 -0.67 10.00 0.02 -0.08 -0.01 6509
0.04 0.19 0.99 -0.69 9.98 0.02 -0.08 -0.00 6515
0.05 0.22 1.00 -0.69 10.04 0.01 -0.08 -0.00 6522
0.05 0.16 1.02 -0.71 10.02 0.01 -0.08 -0.00 6529
0.04 0.21 0.99 -0.69 9.98 0.00 -0.08 -0.00 6535
0.04 0.17 0.98 -0.60 9.96 0.00 -0.08 0.01 6541
0.04 0.18 0.98 -0.69 9.91 -0.01 -0.07 0.01 6547
0.04 0.20 1.02 -0.69 10.10 -0.01 -0.07 0.01 6553
0.06 0.16 1.01 -0.68 10.04 -0.01 -0.06 0.01 6559
0.03 0.15 1.02 -0.71 10.08 -0.01 -0.06 0.01 6566
0.04 0.20 1.04 -0.65 10.00 -0.01 -0.06 0.02 6573
0.06 0.16 1.02 -0.65 10.02 -0.01 -0.06 0.01 6579
0.04 0.13 1.00 -0.66 10.03 -0.01 -0.05 0.01 6585
0.04 0.17 1.03 -0.65 10.03 -0.00 -0.05 0.01 6591
0.05 0.12 1.01 -0.63 10.01 0.00 -0.05 0.01 6598
0.04 0.09 1.05 -0.69 10.04 0.00 -0.05 0.01 6604
0.05 0.15 1.00 -0.69 10.08 0.00 -0.05 0.01 6610
0.06 0.08 1.07 -0.68 10.00 0.01 -0.03 0.02 6617
0.06 0.08 1.00 -0.66 10.02 0.01 -0.03 0.01 6623
0.07 0.07 1.00 -0.75 10.04 0.01 -0.03 0.00 6629
0.07 0.06 1.11 -0.63 10.03 0.01 -0.02 0.00 6636
0.07 0.03 1.03 -0.36 9.96 0.01 -0.02 -0.01 6642
0.06 0.03 1.17 -0.71 10.04 0.01 -0.01 -0.01 6648
0.09 0.00 1.08 -0.70 10.10 0.02 0.00 -0.03 6654
0.08 -0.00 1.14 -0.67 10.07 0.03 0.01 -0.03 6661
0.06 -0.01 1.31 -0.87 10.22 0.03 -0.00 -0.04 6667
0.08 -0.00 1.05 -0.71 9.98 0.05 0.01 -0.05 6673
0.08 -0.01 1.17 -0.58 10.04 0.07 0.01 -0.06 6680
0.07 -0.01 1.20 -0.65 10.12 0.09 0.01 -0.07 6686
0.07 -0.01 1.17 -0.83 10.11 0.13 0.01 -0.10 6692
0.08 -0.01 1.47 -3.19 10.39 0.16 -0.01 -0.13 6699
0.07 -0.01 1.29 -0.83 10.37 0.26 0.01 -0.18 6705
0.07 -0.01 1.75 -0.79 10.67 0.44 0.06 -0.21 6711
0.07 -0.01 2.10 -0.90 11.54 0.68 0.21 -0.27 6717
0.07 -0.01 1.33 -0.84 12.25 1.10 0.36 -0.32 6724
0.06 -0.01 1.29 -1.14 13.53 1.57 0.60 -0.35 6730
0.06 -0.00 0.37 -0.70 14.23 1.85 0.74 -0.34 6736
0.07 -0.01 1.22 -1.32 13.69 2.03 0.88 -0.35 6743
0.05 -0.01 1.27 -1.41 13.48 2.12 1.02 -0.32 6749
0.06 -0.01 0.88 -1.60 13.33 2.17 1.17 -0.28 6755
0.06 -0.01 0.95 -1.67 14.09 2.23 1.38 -0.22 6762
0.04 -0.00 1.37 -1.67 13.49 2.28 1.66 -0.21 6768
0.04 -0.00 1.10 -2.01 13.69 2.40 1.91 -0.09 6774
0.05 -0.01 1.19 -2.09 14.58 2.40 2.21 -0.03 6780
0.04 -0.00 1.67 -2.48 14.77 2.41 2.62 0.02 6787
0.03 -0.00 1.27 -2.62 14.86 2.39 2.96 0.11 6793
0.05 -0.00 1.54 -3.23 15.12 2.32 3.28 0.17 6799
0.05 -0.01 1.39 -3.86 16.37 2.23 3.54 0.25 6806
0.04 -0.00 1.02 -4.04 16.46 2.16 3.75 0.33 6812
0.05 -0.00 0.97 -4.00 16.23 2.04 3.90 0.40 6818
0.04 -0.00 1.09 -3.73 15.56 2.05 4.12 0.44 6824
0.05 -0.00 0.44 -3.40 14.35 2.09 4.26 0.46 6831
0.04 -0.00 -1.69 -3.30 12.92 2.04 4.21 0.52 6837
0.06 -0.01 -3.59 -3.16 11.89 1.90 3.89 0.62 6844
0.05 -0.00 -4.51 -3.23 10.92 1.77 3.57 0.76 6850
0.04 -0.00 -7.76 -2.48 9.40 1.65 2.95 0.79 6856
0.03 -0.00 -15.91 -0.52 8.46 1.54 1.93 0.47 6862
0.04 -0.00 -21.96 3.03 11.50 1.18 0.28 -0.49 6868
0.04 -0.00 -14.66 3.59 12.91 0.42 -1.51 -1.21 6875
0.03 0.01 -7.19 2.96 14.41 -0.29 -2.43 -1.42 6882
0.03 -0.00 -2.96 1.39 14.63 -0.74 -2.71 -1.52 6888
0.03 -0.00 -1.77 0.20 12.96 -0.93 -2.61 -1.75 6894
0.04 0.00 -0.75 -0.23 10.09 -0.95 -2.39 -2.03 6900
0.03 -0.00 0.25 -0.50 7.66 -0.89 -2.24 -2.25 6906
0.03 -0.00 0.01 -0.85 6.73 -0.77 -2.18 -2.34 6913
0.03 -0.00 0.38 -1.80 7.20 -0.57 -2.10 -2.30 6919
0.05 -0.00 0.05 -1.07 8.14 -0.36 -2.00 -2.14 6926
0.03 -0.00 0.53 -0.03 8.67 -0.20 -1.99 -1.90 6932
0.03 -0.00 1.18 1.17 8.78 -0.12 -2.14 -1.66 6938
0.03 -0.00 1.91 1.77 8.74 -0.11 -2.34 -1.41 6944
0.04 -0.00 2.51 1.67 8.55 -0.10 -2.54 -1.17 6950
0.04 -0.00 3.19 1.49 8.25 -0.08 -2.64 -0.94 6957
0.03 -0.00 3.94 1.49 8.04 -0.03 -2.73 -0.77 6963
0.03 -0.00 4.43 1.51 7.96 0.02 -2.75 -0.60 6969
0.04 -0.00 5.13 1.75 8.51 0.06 -2.71 -0.44 6975
0.03 -0.00 5.96 2.30 9.82 0.06 -2.58 -0.30 6982
0.03 -0.00 6.74 2.92 11.06 -0.03 -2.36 -0.14 6988
0.03 0.00 6.96 3.25 11.58 -0.22 -2.07 0.02 6994
0.04 -0.00 6.81 3.43 11.33 -0.47 -1.86 0.18 7001
0.03 -0.00 6.63 3.18 11.23 -0.74 -1.60 0.35 7007
0.03 -0.00 6.23 2.62 10.72 -0.97 -1.42 0.46 7013
0.04 -0.00 5.60 1.84 10.03 -1.12 -1.31 0.57 7020
0.03 -0.00 5.11 0.92 9.32 -1.19 -1.24 0.65 7026
0.02 -0.00 4.66 0.24 8.82 -1.18 -1.21 0.69 7032
0.03 0.01 4.30 -0.08 8.48 -1.11 -1.20 0.69 7038
0.03 -0.00 4.18 -0.17 8.51 -1.09 -1.18 0.65 7045
0.03 -0.00 4.12 -0.16 8.48 -1.05 -1.16 0.59 7051
0.02 -0.00 4.15 -0.11 8.99 -1.02 -1.11 0.52 7057
0.03 -0.00 4.37 -0.15 9.41 -1.03 -1.04 0.44 7063
0.03 -0.00 4.44 -0.34 9.63 -1.06 -0.96 0.34 7069
0.03 -0.00 4.47 -0.60 9.68 -1.08 -0.87 0.25 7076
0.03 -0.00 4.60 -0.75 9.89 -1.10 -0.78 0.17 7083
0.03 -0.00 4.74 -0.80 10.45 -1.14 -0.70 0.11 7089
0.03 -0.00 4.87 -0.79 10.78 -1.20 -0.60 0.08 7095
0.03 -0.00 4.92 -0.72 11.08 -1.29 -0.51 0.07 7101
0.03 0.00 4.95 -0.66 11.23 -1.41 -0.44 0.09 7107
0.03 -0.00 4.84 -0.75 11.22 -1.53 -0.39 0.13 7113
0.03 -0.00 4.70 -0.91 10.78 -1.64 -0.34 0.18 7120
0.02 -0.00 4.67 -1.24 10.25 -1.72 -0.28 0.24 7127
0.04 -0.00 4.62 -1.54 9.79 -1.75 -0.23 0.28 7133
0.03 -0.00 4.45 -1.87 9.40 -1.75 -0.15 0.31 7139
0.02 -0.00 4.35 -2.09 9.19 -1.71 -0.09 0.31 7145
0.03 -0.00 4.35 -2.23 9.10 -1.67 -0.01 0.27 7151
0.04 -0.00 4.39 -2.38 9.15 -1.62 0.08 0.27 7157
0.02 -0.00 4.40 -2.58 9.41 -1.58 0.15 0.23 7163
0.02 -0.00 4.31 -2.91 9.51 -1.54 0.20 0.17 7170
0.02 -0.00 4.30 -3.10 9.72 -1.52 0.24 0.10 7177
0.04 -0.00 3.69 -3.34 9.81 -1.49 0.25 0.04 7183
0.03 -0.00 4.25 -3.42 9.78 -1.45 0.28 -0.00 7189
0.02 -0.00 4.17 -3.55 9.72 -1.41 0.35 -0.02 7195
0.03 0.01 3.88 -3.68 9.82 -1.36 0.43 -0.01 7201
0.04 -0.00 3.46 -3.87 10.07 -1.31 0.49 0.01 7207
0.03 -0.00 3.06 -3.90 10.33 -1.26 0.53 0.03 7214
0.03 -0.00 2.84 -3.88 10.54 -1.22 0.55 0.06 7220
0.04 -0.00 2.88 -3.98 10.91 -1.19 0.56 0.10 7227
0.03 -0.00 2.91 -4.27 11.08 -1.19 0.55 0.13 7233
0.02 -0.00 2.92 -4.67 10.76 -1.20 0.53 0.16 7239
0.03 -0.00 2.96 -5.31 10.27 -1.19 0.50 0.17 7245
0.03 -0.00 2.78 -5.92 9.74 -1.15 0.48 0.17 7251
0.03 -0.00 2.51 -6.41 9.32 -1.06 0.50 0.13 7258
0.02 -0.00 2.25 -6.86 9.03 -0.95 0.55 0.04 7264
0.04 -0.00 1.98 -7.23 8.73 -0.85 0.58 -0.09 7271
0.03 -0.00 1.25 -7.38 8.45 -0.75 0.59 -0.26 7277
0.03 -0.00 1.74 -7.28 8.19 -0.67 0.55 -0.45 7283
0.02 -0.00 1.81 -7.02 7.99 -0.62 0.49 -0.60 7289
0.03 -0.00 1.97 -6.85 7.62 -0.58 0.42 -0.77 7296
0.03 -0.00 1.93 -6.69 6.85 -0.55 0.33 -0.90 7302
0.03 -0.00 2.15 -6.65 5.83 -0.52 0.23 -1.01 7308
0.02 -0.00 3.09 -8.99 4.20 -0.46 0.10 -1.10 7314
0.03 -0.00 -7.57 -16.56 39.41 1.06 0.40 -0.95 7320
0.03 -0.00 0.96 -9.16 -1.39 1.49 0.10 -0.94 7327
0.03 -0.00 0.37 -22.64 -6.58 1.94 -1.05 -1.09 7333
0.03 0.04 -6.28 -44.97 5.33 2.50 -2.45 -1.12 7340
0.01 0.19 -0.39 -10.15 34.86 0.67 -2.13 -0.29 7346
0.02 0.25 -0.85 -7.15 8.51 -0.04 -0.04 0.39 7352
0.05 0.27 0.34 -4.74 10.60 -0.22 -0.02 0.08 7359
0.02 0.33 0.32 -0.28 9.81 -0.20 0.05 0.07 7365
0.03 0.32 0.74 0.29 9.60 -0.13 0.13 0.10 7371
0.04 0.39 0.85 0.44 9.88 -0.07 0.12 0.08 7377
0.04 0.37 0.95 -0.17 10.12 -0.05 0.15 0.08 7384
0.03 0.43 0.72 -0.96 10.52 -0.01 0.14 0.09 7390
0.02 0.40 0.97 -0.83 10.18 0.00 0.12 0.08 7397
0.04 0.38 0.90 -0.48 9.77 0.01 0.09 0.08 7403
0.04 0.42 0.78 -0.72 10.10 0.00 0.08 0.07 7409
0.04 0.44 0.60 -0.97 10.06 -0.02 0.07 0.06 7415
0.03 0.49 0.57 -0.90 10.21 -0.02 0.08 0.07 7421
0.05 0.46 0.66 -0.89 10.10 -0.03 0.10 0.07 7428
0.03 0.49 0.73 -0.84 9.99 -0.03 0.11 0.07 7435
0.05 0.49 0.74 -0.67 9.89 -0.03 0.12 0.07 7441
0.04 0.52 0.87 -0.57 9.96 -0.04 0.13 0.06 7447
0.02 0.55 0.99 -0.51 10.01 -0.02 0.12 0.05 7453
0.04 0.55 0.94 -0.64 10.06 -0.01 0.10 0.04 7459
0.03 0.55 0.84 -0.69 10.01 -0.01 0.09 0.04 7465
0.03 0.52 0.83 -0.73 10.06 -0.00 0.09 0.05 7473
0.05 0.53 0.83 -0.71 9.90 -0.01 0.09 0.04 7479
0.04 0.52 0.88 -0.72 9.99 -0.00 0.07 0.05 7485
0.03 0.51 0.82 -0.70 10.06 -0.00 0.06 0.05 7491
0.03 0.52 0.91 -0.65 9.98 -0.00 0.05 0.05 7497
0.04 0.51 0.88 -0.68 10.10 0.00 0.03 0.05 7503
0.05 0.50 0.89 -0.72 10.04 0.00 0.03 0.05 7510
0.04 0.50 0.84 -0.75 9.79 0.00 0.02 0.05 7517
0.05 0.49 0.84 -0.72 9.98 -0.01 0.02 0.05 7523
0.05 0.48 0.84 -0.68 9.99 -0.01 0.02 0.06 7529
0.02 0.48 0.85 -0.66 9.94 -0.01 0.02 0.06 7535
0.03 0.49 0.87 -0.65 10.05 -0.02 0.01 0.05 7541
0.03 0.49 0.86 -0.69 9.97 -0.01 0.01 0.06 7547
0.02 0.49 0.86 -0.63 9.99 -0.01 0.01 0.05 7554
0.02 0.50 0.84 -0.66 10.13 -0.02 0.01 0.05 7561
0.04 0.49 0.84 -0.71 9.98 -0.02 0.01 0.05 7567
0.03 0.49 0.86 -0.71 9.99 -0.02 0.02 0.05 7573
0.02 0.48 0.86 -0.64 9.99 -0.01 0.02 0.06 7579
0.03 0.50 0.89 -0.65 10.03 -0.01 0.02 0.05 7585
0.03 0.48 0.85 -0.63 9.98 -0.01 0.02 0.05 7591
0.03 0.47 0.87 -0.66 9.97 -0.01 0.03 0.06 7598
0.03 0.47 0.86 -0.68 10.03 -0.01 0.03 0.05 7605
0.04 0.46 0.89 -0.69 10.00 -0.00 0.03 0.05 7611
0.03 0.44 0.88 -0.67 10.04 -0.01 0.03 0.05 7617
0.02 0.44 0.92 -0.67 10.02 -0.01 0.03 0.05 7623
0.04 0.45 0.88 -0.70 9.97 -0.01 0.04 0.05 7629
0.03 0.44 0.91 -0.68 9.99 -0.02 0.04 0.05 7635
0.02 0.43 0.93 -0.67 10.00 -0.02 0.04 0.04 7643
0.03 0.44 0.93 -0.69 9.99 -0.02 0.04 0.04 7649
0.03 0.41 0.91 -0.64 9.98 -0.02 0.04 0.05 7655
0.03 0.37 0.95 -0.65 9.98 -0.02 0.04 0.04 7661
0.03 0.39 0.93 -0.67 9.98 -0.02 0.04 0.04 7667
0.04 0.38 1.00 -0.69 9.95 -0.02 0.04 0.04 7673
0.03 0.36 0.99 -0.70 9.98 -0.02 0.04 0.04 7680
0.02 0.35 1.01 -0.66 9.98 -0.02 0.03 0.04 7687
0.02 0.36 0.97 -0.70 9.96 -0.02 0.03 0.03 7693
0.03 0.34 1.01 -0.68 9.99 -0.03 0.01 0.03 7699
0.02 0.32 1.02 -0.70 9.95 -0.03 0.01 0.03 7705
0.03 0.35 0.95 -0.69 9.98 -0.03 0.00 0.02 7711
0.03 0.36 0.99 -0.67 10.00 -0.03 0.00 0.02 7717
0.03 0.37 1.03 -0.68 9.98 -0.03 -0.00 0.02 7724
0.02 0.38 1.02 -0.68 9.98 -0.03 -0.00 0.02 7730
0.03 0.38 0.99 -0.68 9.95 -0.03 -0.01 0.02 7737
0.04 0.37 1.01 -0.67 9.99 -0.03 -0.01 0.02 7743
0.03 0.37 1.01 -0.67 9.96 -0.03 -0.01 0.02 7749
0.03 0.37 1.01 -0.65 9.97 -0.02 -0.01 0.02 7755
0.03 0.39 1.00 -0.64 9.97 -0.03 -0.01 0.02 7761
0.04 0.37 1.02 -0.68 10.00 -0.02 -0.01 0.02 7768
0.02 0.37 1.00 -0.68 10.01 -0.02 -0.02 0.02 7774
0.03 0.34 1.02 -0.67 9.96 -0.02 -0.02 0.02 7781
0.03 0.33 1.06 -0.66 9.96 -0.02 -0.02 0.02 7787
0.03 0.34 1.04 -0.66 9.96 -0.01 -0.02 0.02 7793
0.03 0.33 1.04 -0.67 9.97 -0.01 -0.02 0.02 7799
0.03 0.36 1.05 -0.65 9.95 -0.01 -0.02 0.02 7805
0.03 0.30 1.05 -0.67 10.00 -0.01 -0.02 0.02 7812
0.02 0.28 1.02 -0.66 10.01 -0.01 -0.01 0.02 7818
0.03 0.28 1.05 -0.65 9.97 -0.00 -0.01 0.02 7825
0.04 0.27 1.02 -0.69 9.98 -0.01 -0.01 0.01 7831
0.04 0.22 1.03 -0.65 10.01 -0.00 -0.00 0.02 7837
0.04 0.21 1.04 -0.64 9.97 -0.00 -0.00 0.02 7843
0.06 0.22 1.04 -0.67 9.96 0.00 -0.00 0.02 7849
0.04 0.20 1.07 -0.70 9.98 0.00 0.00 0.02 7856
0.03 0.17 1.05 -0.69 9.99 -0.03 0.00 0.02 7862
0.04 0.20 1.04 -0.70 10.03 -0.00 0.00 0.02 7868
0.05 0.17 1.05 -0.72 9.96 0.00 0.00 0.02 7875
0.04 0.17 1.03 -0.70 9.97 -0.00 0.01 0.01 7881
0.04 0.14 1.07 -0.73 10.00 -0.00 0.01 0.02 7887
0.05 0.11 1.07 -0.71 10.03 -0.01 0.01 0.02 7894
0.04 0.10 1.08 -0.68 9.95 -0.01 0.01 0.02 7900
0.04 0.09 1.12 -0.77 9.96 -0.00 0.01 0.01 7906
0.03 0.11 1.11 -0.64 9.96 -0.00 0.01 0.02 7912
0.05 0.09 1.11 -0.64 10.01 -0.00 0.01 0.02 7919
0.04 0.07 1.15 -0.67 10.00 -0.00 0.01 0.01 7925
0.03 0.05 1.11 -0.70 10.03 -0.00 0.01 0.02 7931
0.05 0.05 1.12 -0.73 9.92 -0.00 0.01 0.01 7938
0.04 0.03 1.13 -0.68 10.02 -0.00 0.00 0.01 7944
0.04 0.02 1.12 -0.68 10.02 -0.00 -0.00 0.01 7950
0.05 0.03 1.17 -0.71 10.02 -0.00 -0.01 0.01 7957
0.05 0.01 1.17 -0.69 9.97 -0.00 -0.01 0.01 7963
0.05 -0.00 1.15 -0.74 9.93 -0.00 -0.02 0.00 7969
0.04 0.01 1.09 -0.69 9.92 -0.00 -0.02 -0.00 7975
0.05 0.01 1.14 -0.70 10.01 -0.01 -0.03 -0.00 7982
0.04 0.00 1.13 -0.68 9.99 -0.01 -0.03 -0.01 7988
0.04 -0.00 1.07 -0.73 10.06 -0.01 -0.03 -0.01 7994
0.04 0.02 1.16 -0.72 10.01 -0.01 -0.03 -0.01 8000
0.05 0.00 1.09 -0.76 10.06 -0.01 -0.04 -0.00 8007
0.04 -0.00 1.06 -0.73 10.04 -0.01 -0.04 0.00 8013
0.04 0.00 1.09 -0.76 10.02 -0.01 -0.04 0.00 8019
0.06 0.01 1.09 -0.72 9.98 -0.01 -0.04 0.00 8026
0.04 0.00 1.10 -0.69 9.98 -0.01 -0.04 0.00 8032
0.04 -0.00 1.14 -0.69 9.98 -0.01 -0.03 0.00 8038
0.04 0.01 1.14 -0.74 9.95 -0.02 -0.03 0.01 8044
0.05 0.01 1.14 -0.70 10.02 -0.02 -0.03 0.00 8050
0.05 0.01 1.13 -0.72 10.00 -0.02 -0.02 0.01 8057
0.04 0.02 1.12 -0.69 10.03 -0.01 -0.03 0.01 8064
0.05 0.02 1.18 -0.70 10.05 -0.02 -0.03 0.01 8070
0.04 0.01 1.19 -0.69 10.00 -0.01 -0.03 0.01 8076
0.04 0.02 1.16 -0.72 9.96 -0.00 -0.03 0.01 8082
0.04 0.02 1.19 -0.72 10.01 -0.00 -0.03 0.01 8088
0.04 0.00 1.14 -0.67 9.99 0.01 -0.03 0.01 8095
0.05 -0.00 1.18 -0.84 9.92 0.01 -0.04 0.00 8101
0.05 -0.00 1.13 -0.69 10.00 0.01 -0.04 0.00 8108
0.06 0.00 1.15 -0.74 10.03 0.02 -0.04 -0.00 8114
0.05 -0.00 1.10 -0.69 10.16 0.02 -0.04 -0.01 8120
0.04 -0.00 1.04 -0.59 10.07 0.01 -0.04 -0.02 8126
0.05 0.01 1.16 -0.69 10.01 0.02 -0.03 -0.02 8132
0.06 -0.01 1.25 -0.79 10.07 0.02 -0.03 -0.02 8139
0.05 -0.01 1.24 -0.77 10.05 0.03 -0.03 -0.03 8145
0.05 -0.01 1.15 -0.52 10.01 0.03 -0.03 -0.03 8152
0.08 -0.01 1.13 -0.70 10.13 0.04 -0.02 -0.03 8158
0.06 -0.01 1.31 -0.82 10.13 0.06 -0.02 -0.04 8164
0.07 -0.01 1.15 -0.75 10.11 0.07 -0.03 -0.04 8170
0.07 0.01 1.31 -0.89 10.05 0.09 -0.04 -0.05 8176
0.08 -0.01 1.77 -0.94 10.24 0.12 -0.04 -0.07 8183
0.07 -0.01 1.17 -1.20 10.16 0.17 -0.04 -0.07 8189
0.06 -0.01 1.13 -0.88 10.20 0.23 -0.04 -0.06 8196
0.07 -0.01 1.32 -0.80 10.61 0.33 0.00 -0.08 8202
0.06 -0.01 1.22 -0.65 10.69 0.52 0.13 -0.10 8208
0.05 -0.01 1.14 -0.87 11.40 0.81 0.36 -0.13 8214
0.06 -0.01 1.13 -0.92 11.85 1.13 0.69 -0.16 8220
0.05 -0.01 1.51 -1.15 12.70 1.39 1.02 -0.18 8227
0.04 -0.00 1.49 -1.19 12.93 1.62 1.30 -0.19 8233
0.05 -0.00 1.49 -1.48 12.86 1.71 1.46 -0.20 8240
0.06 -0.01 1.56 -1.49 12.83 1.74 1.65 -0.20 8246
0.04 -0.00 1.51 -1.54 13.22 1.75 1.78 -0.19 8252
0.04 0.01 1.84 -1.66 13.33 1.75 1.94 -0.20 8258
0.04 -0.00 2.06 -1.68 13.09 1.75 2.14 -0.19 8265
0.04 -0.00 1.99 -2.00 12.93 1.76 2.30 -0.17 8271
0.04 0.00 1.89 -1.91 13.14 1.76 2.49 -0.14 8278
0.04 -0.00 2.15 -2.19 13.03 1.73 2.69 -0.10 8284
0.03 -0.00 2.07 -2.45 13.06 1.68 2.90 -0.05 8290
0.05 -0.00 2.29 -2.61 13.96 1.62 3.08 0.01 8296
0.06 -0.01 2.36 -3.00 14.47 1.56 3.21 0.07 8303
0.04 -0.00 1.98 -3.61 15.09 1.52 3.35 0.16 8309
0.03 -0.00 1.93 -3.42 15.33 1.48 3.48 0.17 8315
0.05 -0.01 1.54 -3.26 15.25 1.47 3.61 0.20 8322
0.05 -0.00 1.16 -3.27 14.45 1.45 3.73 0.24 8328
0.03 -0.00 0.22 -3.08 13.68 1.40 3.75 0.30 8334
0.05 0.00 -0.68 -3.34 12.43 1.34 3.61 0.37 8341
0.05 -0.00 -2.32 -2.78 11.56 1.28 3.26 0.43 8347
0.04 -0.00 -9.21 -1.11 10.61 1.24 2.79 0.37 8353
0.05 -0.00 -18.05 0.74 11.15 1.10 1.68 -0.25 8359
0.04 -0.00 -19.34 2.65 12.47 0.55 -0.01 -1.07 8366
0.03 -0.00 -14.21 2.37 14.34 -0.21 -1.87 -1.45 8373
0.04 -0.00 -7.64 1.01 16.32 -0.76 -2.76 -1.63 8379
0.04 -0.00 -4.98 -0.69 15.14 -0.96 -2.98 -2.01 8385
0.04 -0.00 -2.57 -1.98 11.25 -0.93 -2.80 -2.41 8391
0.04 0.00 -0.90 -2.63 8.52 -0.81 -2.65 -2.76 8397
0.04 -0.00 -0.34 -2.57 7.64 -0.62 -2.63 -2.93 8403
0.01 -0.00 -0.38 -2.43 7.20 -0.35 -2.68 -2.98 8410
0.03 -0.00 0.12 -1.64 8.24 -0.09 -2.73 -2.90 8417
0.04 -0.00 1.38 -0.29 10.04 0.10 -2.77 -2.73 8423
0.03 -0.00 2.05 1.01 11.13 0.21 -2.81 -2.50 8429
0.03 -0.00 2.62 1.88 11.31 0.21 -2.82 -2.24 8435
0.03 -0.00 3.38 2.52 11.33 0.15 -2.78 -2.06 8441
0.03 -0.00 4.32 2.64 11.22 0.08 -2.73 -1.80 8448
0.03 -0.00 5.28 2.46 10.49 0.05 -2.67 -1.52 8455
0.03 -0.00 6.26 2.47 9.95 0.07 -2.52 -1.21 8461
0.05 -0.00 6.88 2.73 9.78 0.09 -2.32 -0.90 8467
0.04 -0.00 7.10 3.04 9.76 0.08 -2.08 -0.58 8473
0.04 -0.00 7.21 3.25 10.00 0.03 -1.87 -0.25 8479
0.04 -0.00 6.84 3.39 9.59 -0.06 -1.64 0.04 8485
0.05 -0.01 6.92 3.05 9.68 -0.16 -1.44 0.31 8492
0.03 -0.00 6.41 2.67 9.37 -0.24 -1.31 0.58 8498
0.04 -0.00 6.08 2.12 8.88 -0.28 -1.23 0.79 8504
0.05 -0.00 5.92 1.68 8.40 -0.29 -1.17 0.95 8510
0.04 -0.00 5.77 1.24 7.95 -0.28 -1.13 1.06 8517
0.03 -0.00 5.78 1.03 7.86 -0.26 -1.08 1.12 8523
0.04 -0.00 5.77 0.96 7.85 -0.22 -1.01 1.15 8529
0.04 -0.00 5.67 0.88 7.92 -0.20 -0.94 1.17 8536
0.05 -0.00 5.73 0.97 8.31 -0.20 -0.87 1.16 8542
0.03 -0.00 5.65 1.26 9.20 -0.22 -0.81 1.14 8548
0.04 -0.00 6.12 1.50 9.82 -0.28 -0.76 1.12 8554
0.03 -0.00 5.42 1.60 10.23 -0.39 -0.70 1.11 8560
0.05 -0.00 5.26 1.61 10.43 -0.52 -0.67 1.09 8566
0.04 -0.00 5.09 1.30 10.39 -0.66 -0.64 1.06 8573
0.03 -0.00 4.86 0.87 10.12 -0.78 -0.63 1.01 8580
0.04 -0.00 4.63 0.32 9.73 -0.88 -0.62 0.95 8586
0.04 -0.00 4.51 -0.16 9.44 -0.92 -0.61 0.88 8592
0.04 -0.00 4.45 -0.47 9.15 -0.94 -0.60 0.80 8598
0.03 -0.00 4.37 -0.78 8.91 -0.93 -0.59 0.73 8604
0.04 0.00 4.29 -0.91 8.88 -0.92 -0.58 0.64 8610
0.04 -0.00 4.27 -0.91 8.92 -0.91 -0.57 0.61 8616
0.04 -0.00 4.27 -0.91 9.16 -0.90 -0.55 0.56 8624
0.02 -0.00 4.39 -0.79 9.47 -0.91 -0.53 0.52 8630
0.04 -0.00 4.63 -0.63 9.94 -0.96 -0.49 0.50 8636
0.03 -0.00 4.82 -0.48 10.37 -0.99 -0.43 0.48 8642
0.03 -0.00 5.11 -0.47 10.54 -1.07 -0.33 0.48 8648
0.03 0.00 5.24 -0.53 10.61 -1.17 -0.21 0.48 8654
0.03 -0.00 5.17 -0.77 10.50 -1.27 -0.10 0.49 8660
0.03 -0.00 5.01 -1.07 10.33 -1.35 -0.01 0.51 8668
0.03 -0.00 4.74 -1.39 9.89 -1.42 0.04 0.53 8674
0.04 -0.00 4.61 -1.69 9.53 -1.44 0.04 0.56 8680
0.03 -0.00 4.66 -1.95 9.24 -1.43 0.03 0.58 8686
0.03 -0.00 4.96 -2.07 9.14 -1.41 0.06 0.59 8692
0.02 -0.00 5.22 -2.15 9.22 -1.36 0.08 0.59 8698
0.04 -0.00 5.55 -2.26 8.58 -1.32 0.19 0.57 8705
0.03 -0.00 5.54 -2.47 9.24 -1.28 0.34 0.54 8711
0.02 -0.00 5.26 -2.72 9.36 -1.23 0.49 0.50 8717
0.03 -0.00 4.96 -2.99 9.64 -1.19 0.62 0.44 8723
0.04 -0.00 4.68 -3.24 9.97 -1.15 0.70 0.37 8730
0.03 -0.00 4.42 -3.48 10.24 -1.14 0.74 0.31 8736
0.02 -0.00 4.14 -3.52 10.42 -1.16 0.73 0.24 8742
0.04 -0.00 4.14 -3.53 10.88 -1.19 0.68 0.24 8749
0.04 -0.00 4.30 -3.57 11.15 -1.25 0.61 0.23 8755
0.03 -0.00 4.55 -3.79 11.32 -1.32 0.53 0.23 8761
0.03 0.00 4.73 -4.09 11.18 -1.40 0.45 0.24 8768
0.03 -0.00 4.91 -4.55 10.75 -1.47 0.37 0.24 8774
0.04 -0.00 5.04 -5.14 10.12 -1.53 0.32 0.23 8780
0.04 -0.00 5.17 -5.72 9.60 -1.49 0.28 0.22 8786
0.05 -0.00 5.39 -6.13 9.18 -1.44 0.26 0.20 8793
0.03 -0.00 5.74 -6.42 8.76 -1.35 0.27 0.18 8799
0.03 -0.00 5.95 -6.64 8.40 -1.24 0.31 0.16 8805
0.04 -0.00 6.11 -6.69 8.12 -1.12 0.36 0.15 8811
0.05 -0.01 6.23 -6.74 8.07 -1.00 0.43 0.14 8818
0.04 -0.00 6.19 -6.87 7.76 -0.90 0.56 0.15 8824
0.03 -0.00 5.97 -6.91 7.39 -0.76 0.72 0.19 8830
0.03 -0.00 5.56 -6.96 7.12 -0.60 0.86 0.25 8837
0.05 -0.00 5.09 -6.98 7.14 -0.42 0.99 0.30 8843
0.03 -0.00 1.70 -12.76 6.27 -0.20 1.01 0.36 8849
0.02 -0.00 -1.02 -11.54 25.30 1.23 -0.39 0.37 8855
0.04 -0.00 1.94 -7.53 3.33 1.09 0.05 0.43 8861
0.05 -0.00 -0.06 -13.84 1.78 1.38 -0.07 0.44 8868
0.04 -0.00 -5.09 -22.61 7.28 1.54 -0.91 0.38 8875
0.02 -0.00 -12.06 -26.40 6.67 1.68 -1.72 0.25 8881
0.04 0.02 -13.08 -32.62 5.41 2.04 -2.29 0.23 8887
0.04 0.11 -19.66 -35.68 50.50 1.94 -4.22 0.04 8893
0.05 0.20 -0.33 -7.91 20.75 0.60 -1.98 -0.00 8900
0.04 0.23 0.81 -1.29 9.20 0.03 -0.17 0.09 8906
0.03 0.24 -0.52 -0.80 10.37 -0.15 0.04 0.03 8912
0.04 0.31 -0.63 -0.18 10.24 -0.15 0.12 0.01 8919
0.04 0.26 0.34 -0.17 10.13 -0.06 0.12 0.01 8925
0.03 0.28 1.30 -0.14 9.88 -0.03 0.10 0.05 8932
0.03 0.37 1.21 -0.59 10.11 -0.02 0.10 0.09 8938
0.03 0.31 0.84 -0.99 10.16 -0.01 0.09 0.10 8944
0.02 0.36 0.74 -1.05 9.99 -0.00 0.06 0.09 8950
0.03 0.40 0.79 -0.46 9.64 0.01 0.05 0.09 8956
0.04 0.41 0.74 -0.81 9.85 -0.00 0.08 0.10 8963
0.04 0.38 0.66 -1.03 10.15 -0.01 0.09 0.10 8969
0.03 0.39 0.59 -1.06 10.23 -0.02 0.10 0.10 8976
0.05 0.42 0.74 -1.03 10.04 -0.02 0.12 0.10 8982
0.04 0.44 0.78 -0.93 10.11 -0.02 0.13 0.10 8988
0.04 0.44 0.95 -0.77 10.09 -0.01 0.13 0.09 8994
0.05 0.46 0.98 -0.73 10.02 -0.02 0.13 0.08 9000
0.04 0.43 1.03 -0.78 10.09 -0.02 0.12 0.06 9008
0.04 0.43 1.03 -0.84 9.97 -0.02 0.11 0.05 9014
0.05 0.42 0.92 -0.86 10.00 -0.02 0.11 0.05 9020
0.05 0.44 0.83 -0.84 10.13 -0.02 0.11 0.05 9026
0.05 0.45 0.86 -0.80 10.09 -0.02 0.11 0.06 9032
0.05 0.44 0.91 -0.80 10.02 -0.01 0.11 0.06 9039
0.04 0.45 0.96 -0.84 9.97 -0.00 0.07 0.06 9046
0.03 0.45 1.03 -0.83 9.93 -0.00 0.09 0.06 9052
0.05 0.45 0.97 -0.74 9.87 -0.00 0.08 0.06 9058
0.04 0.42 1.01 -0.79 9.92 -0.00 0.07 0.05 9064
0.04 0.41 0.98 -0.75 9.93 0.00 0.06 0.05 9070
0.04 0.42 0.97 -0.78 9.91 0.00 0.06 0.05 9076
0.05 0.39 0.96 -0.81 9.91 -0.00 0.06 0.05 9082
0.04 0.39 0.96 -0.84 9.99 -0.00 0.05 0.06 9090
0.03 0.38 0.99 -0.82 9.95 -0.00 0.05 0.05 9096
0.04 0.36 0.99 -0.83 9.91 -0.00 0.05 0.06 9102
0.04 0.32 0.97 -0.82 9.97 -0.01 0.05 0.06 9108
0.05 0.30 0.97 -0.82 9.98 -0.01 0.04 0.05 9114
0.03 0.30 1.02 -0.79 10.00 -0.01 0.05 0.06 9120
0.06 0.25 1.00 -0.79 9.96 -0.00 0.04 0.06 9126
0.05 0.27 1.00 -0.86 9.98 -0.00 0.04 0.06 9133
0.04 0.26 0.98 -0.82 9.99 -0.00 0.05 0.06 9140
0.05 0.23 0.98 -0.79 10.00 0.00 0.04 0.06 9146
0.06 0.22 1.06 -0.79 9.99 0.00 0.04 0.06 9152
0.05 0.15 1.04 -0.79 9.93 0.00 0.05 0.06 9158
0.05 0.15 1.05 -0.80 9.97 0.00 0.04 0.06 9164
0.06 0.13 1.08 -0.81 9.94 -0.00 0.04 0.05 9170
0.06 0.09 1.09 -0.81 9.98 -0.00 0.04 0.05 9177
0.07 0.07 1.07 -0.80 9.93 -0.00 0.04 0.05 9183
0.06 0.08 1.08 -0.84 9.94 -0.01 0.04 0.05 9190
0.07 0.09 1.09 -0.81 9.97 -0.00 0.03 0.04 9196
0.05 0.06 1.11 -0.81 9.94 -0.01 0.03 0.04 9202
0.04 0.06 1.08 -0.83 9.96 -0.01 0.03 0.04 9208
0.05 0.07 1.10 -0.84 9.96 -0.01 0.03 0.03 9214
0.06 0.06 1.08 -0.85 9.97 -0.01 0.03 0.03 9221
0.05 0.05 1.11 -0.89 9.92 -0.01 0.03 0.03 9227
0.04 0.02 1.13 -0.82 10.02 -0.01 0.02 0.03 9234
0.05 0.03 1.14 -0.81 9.93 -0.02 0.02 0.03 9240
0.04 0.03 1.14 -0.87 9.92 -0.01 0.02 0.03 9246
0.05 0.01 1.15 -0.84 9.98 -0.01 0.02 0.02 9252
0.04 0.04 1.14 -0.82 9.98 -0.01 0.01 0.02 9259
0.07 0.02 1.12 -0.85 9.94 -0.01 0.01 0.02 9265
0.05 0.02 1.17 -0.86 9.98 -0.01 0.01 0.02 9271
0.04 -0.00 1.14 -0.84 9.92 -0.01 0.01 0.01 9277
0.04 0.01 1.17 -0.85 9.98 -0.01 0.01 0.01 9283
0.05 -0.00 1.17 -0.87 9.93 -0.01 0.00 0.01 9290
0.04 0.00 1.16 -0.87 9.95 -0.02 0.00 0.01 9296
0.05 -0.00 1.16 -0.86 9.98 -0.01 0.00 0.01 9303
0.05 0.00 1.19 -0.86 9.96 -0.01 -0.01 0.01 9309
0.07 -0.00 1.20 -0.86 9.93 -0.01 -0.01 0.01 9315
0.06 -0.01 1.19 -0.83 9.97 -0.01 -0.01 0.01 9321
0.05 -0.01 1.24 -0.94 9.98 -0.01 -0.01 0.01 9327
0.04 0.01 1.23 -0.84 9.98 -0.01 -0.01 0.01 9333
0.07 0.01 1.22 -0.84 9.94 -0.01 -0.02 0.00 9339
0.05 -0.01 1.17 -0.86 9.93 -0.01 -0.02 0.01 9346
0.05 0.00 1.22 -0.82 9.93 -0.01 -0.02 0.00 9353
0.05 -0.01 1.18 -0.84 10.01 -0.01 -0.02 0.00 9359
0.06 -0.01 1.19 -0.86 9.97 -0.01 -0.02 0.00 9365
0.05 -0.00 1.20 -0.87 9.98 -0.01 -0.02 -0.00 9371
0.05 -0.00 1.22 -0.84 10.00 -0.01 -0.02 -0.00 9377
0.04 0.01 1.18 -0.91 10.00 -0.00 -0.03 0.00 9383
0.06 -0.01 1.16 -0.88 9.97 -0.00 -0.03 0.00 9390
0.05 -0.00 1.19 -0.85 10.01 -0.00 -0.03 -0.00 9396
0.04 -0.00 1.25 -0.92 9.96 -0.00 -0.03 -0.00 9402
0.04 -0.00 1.22 -0.88 9.96 -0.00 -0.03 -0.00 9408
0.05 0.00 1.24 -0.88 9.98 -0.00 -0.04 -0.00 9415
0.05 -0.01 1.18 -0.93 10.08 -0.01 -0.04 -0.00 9421
0.05 -0.01 1.23 -0.93 9.93 -0.01 -0.04 -0.01 9427
0.05 -0.00 1.84 -0.90 10.03 -0.01 -0.04 -0.01 9434
0.06 -0.01 1.24 -0.89 10.03 -0.02 -0.04 -0.01 9440
0.05 -0.01 1.22 -0.89 10.00 -0.02 -0.04 -0.01 9446
0.04 -0.00 1.22 -0.87 9.98 -0.02 -0.05 -0.01 9452
0.04 -0.00 1.18 -0.89 9.96 -0.02 -0.05 -0.01 9458
0.06 -0.01 1.23 -0.93 9.99 -0.02 -0.05 -0.01 9464
0.05 -0.01 1.21 -0.89 9.95 -0.03 -0.05 -0.02 9472
0.04 -0.00 1.21 -0.88 9.98 -0.03 -0.05 -0.02 9478
0.04 -0.00 1.23 -0.89 10.02 -0.03 -0.06 -0.02 9484
0.05 -0.01 1.26 -0.88 9.93 -0.02 -0.06 -0.02 9490
0.05 -0.00 1.24 -0.88 9.97 -0.02 -0.06 -0.02 9496
0.04 -0.00 1.20 -0.87 10.05 -0.02 -0.06 -0.02 9502
0.04 -0.00 1.20 -0.89 10.00 -0.02 -0.06 -0.02 9508
0.05 -0.00 1.19 -0.88 9.98 -0.02 -0.06 -0.01 9515
0.05 -0.00 1.17 -0.87 9.99 -0.02 -0.06 -0.01 9521
0.05 -0.00 1.21 -0.89 9.99 -0.02 -0.06 -0.01 9527
0.05 0.00 1.22 -0.86 10.02 -0.02 -0.06 -0.02 9534
0.06 -0.00 1.17 -0.87 9.99 -0.02 -0.06 -0.01 9540
0.05 0.00 1.21 -0.90 10.00 -0.01 -0.06 -0.01 9546
0.04 -0.00 1.19 -0.85 10.03 -0.02 -0.06 -0.02 9552
0.05 0.00 1.14 -0.83 9.98 -0.01 -0.06 -0.01 9559
0.06 -0.01 1.24 -0.86 9.99 -0.01 -0.06 -0.01 9565
0.05 -0.01 1.17 -0.85 10.04 -0.01 -0.06 -0.01 9571
0.05 0.00 1.16 -0.89 9.98 -0.00 -0.05 -0.01 9578
0.05 -0.00 1.22 -0.92 10.00 -0.01 -0.05 -0.01 9584
0.05 -0.01 1.19 -0.87 9.97 -0.00 -0.05 -0.01 9590
0.05 -0.00 1.21 -0.86 10.03 -0.00 -0.05 -0.02 9596
0.05 -0.01 1.14 -0.93 10.10 0.00 -0.05 -0.02 9603
0.06 -0.01 1.17 -0.23 10.00 -0.00 -0.05 -0.02 9609
0.05 -0.01 1.22 -0.92 10.10 0.00 -0.05 -0.02 9615
0.05 -0.00 1.08 -0.96 10.10 0.00 -0.04 -0.02 9621
0.07 -0.00 1.23 -0.90 10.06 0.02 -0.05 -0.02 9628
0.06 -0.01 1.27 -0.84 10.07 0.03 -0.05 -0.03 9634
0.06 -0.01 1.30 -0.93 10.09 0.05 -0.05 -0.04 9640
0.06 -0.01 1.40 -1.01 10.17 0.08 -0.06 -0.05 9647
0.07 -0.01 1.23 -0.99 10.22 0.11 -0.10 -0.06 9653
0.06 -0.01 1.35 -1.04 10.17 0.17 -0.08 -0.07 9659
0.05 -0.00 1.47 -0.95 10.39 0.25 -0.09 -0.10 9665
0.06 -0.01 1.79 -0.99 11.01 0.37 -0.08 -0.14 9672
0.05 -0.01 1.78 -0.92 11.31 0.63 -0.00 -0.22 9678
0.04 -0.00 1.66 -1.01 12.94 1.11 0.31 -0.32 9684
0.05 -0.00 1.76 -0.98 14.42 1.72 0.73 -0.41 9691
0.04 -0.00 2.23 -1.00 15.09 2.19 1.04 -0.49 9697
0.04 -0.00 2.19 -1.32 14.98 2.37 1.30 -0.54 9703
0.04 -0.00 2.18 -1.42 14.47 2.47 1.42 -0.57 9710
0.06 -0.01 1.78 -1.80 14.29 2.49 1.61 -0.58 9716
0.04 -0.00 1.84 -1.62 13.75 2.50 1.85 -0.58 9722
0.04 -0.00 1.94 -1.80 13.00 2.51 2.04 -0.57 9729
0.05 -0.01 2.51 -1.58 13.04 2.49 2.24 -0.56 9735
0.05 -0.00 1.97 -2.45 13.32 2.48 2.43 -0.49 9741
0.04 -0.00 2.55 -2.73 13.17 2.44 2.67 -0.43 9748
0.04 0.00 3.09 -2.68 14.79 2.38 3.00 -0.38 9754
0.04 -0.00 4.39 -3.19 15.06 2.27 3.39 -0.36 9760
0.04 -0.00 4.32 -3.84 15.40 2.16 3.75 -0.34 9766
0.04 0.00 2.60 -4.15 15.86 2.02 4.08 -0.31 9773
0.05 -0.00 2.17 -4.53 15.03 1.94 4.26 -0.29 9779
0.05 -0.00 1.32 -4.32 14.40 1.97 4.28 -0.23 9786
0.05 0.00 -0.38 -4.43 14.11 2.10 4.28 -0.22 9792
0.05 -0.00 -2.09 -3.96 12.64 2.19 4.28 -0.15 9798
0.05 -0.01 -3.28 -3.28 11.43 2.20 4.08 -0.03 9804
0.05 0.00 -3.59 -3.16 9.79 2.15 3.57 0.15 9810
0.05 -0.00 -3.64 -3.36 9.05 2.09 2.94 0.34 9817
0.04 -0.00 -3.47 -2.83 8.24 2.06 2.23 0.50 9823
0.03 -0.00 -4.27 -1.58 8.13 2.04 1.53 0.60 9830
0.05 0.00 -4.13 -1.13 7.20 1.95 0.86 0.59 9836
0.03 -0.00 -8.81 0.85 7.88 1.83 0.10 0.45 9842
0.03 -0.00 -12.61 2.18 10.80 1.40 -0.82 -0.19 9848
0.03 -0.00 -10.00 3.24 13.66 0.65 -1.68 -0.95 9854
0.03 -0.00 -4.18 2.81 13.58 0.10 -2.03 -1.38 9861
0.03 -0.00 -3.21 2.15 13.19 -0.22 -2.09 -1.63 9868
0.02 -0.00 -3.56 1.83 12.25 -0.45 -1.98 -1.96 9874
0.03 -0.00 -2.68 1.50 10.88 -0.63 -1.94 -2.27 9880
0.02 -0.00 -1.53 1.45 10.08 -0.70 -2.03 -2.44 9886
0.02 -0.00 -0.80 1.30 10.10 -0.73 -2.11 -2.46 9892
0.03 -0.00 -0.31 1.07 10.24 -0.74 -2.13 -2.35 9899
0.03 -0.00 -0.02 1.14 10.44 -0.75 -2.09 -2.15 9906
0.02 -0.00 0.46 1.67 10.45 -0.77 -2.09 -1.92 9912
0.03 -0.00 1.16 2.22 10.35 -0.81 -2.20 -1.65 9918
0.03 -0.00 1.85 2.47 10.27 -0.88 -2.38 -1.36 9924
0.02 -0.00 2.56 2.38 10.07 -0.96 -2.57 -1.06 9930
0.02 -0.00 3.38 2.28 10.05 -1.06 -2.75 -0.76 9936
0.04 -0.00 4.27 2.10 9.82 -1.10 -2.88 -0.50 9943
0.03 -0.00 5.05 1.84 9.82 -1.15 -2.91 -0.28 9950
0.02 -0.00 5.84 1.60 9.82 -1.20 -2.86 -0.09 9956
0.03 0.00 6.39 1.31 9.58 -1.24 -2.73 0.04 9962
0.03 -0.00 6.70 0.98 9.33 -1.29 -2.55 0.17 9968
0.03 -0.00 6.67 0.62 9.31 -1.34 -2.36 0.28 9974
0.02 -0.00 6.69 0.21 8.89 -1.40 -2.20 0.38 9980
0.03 -0.00 6.39 -0.27 8.74 -1.39 -2.08 0.46 9987
0.03 -0.00 6.10 -0.81 8.61 -1.38 -2.01 0.55 9993
0.03 -0.00 5.89 -1.13 8.48 -1.35 -1.94 0.62 9999
0.02 -0.00 5.70 -1.41 8.38 -1.28 -1.89 0.69 10006
0.04 -0.00 5.73 -1.44 8.38 -1.22 -1.83 0.74 10012
0.02 -0.00 5.79 -1.50 8.62 -1.15 -1.74 0.78 10018
0.02 -0.00 5.60 -1.49 8.75 -1.10 -1.62 0.81 10024
0.03 -0.00 5.45 -1.53 8.95 -1.06 -1.49 0.82 10031
0.04 -0.00 5.30 -1.55 9.18 -1.02 -1.37 0.81 10037
0.02 -0.00 5.19 -1.56 9.52 -0.97 -1.28 0.81 10043
0.03 -0.00 5.32 -1.40 10.27 -0.95 -1.17 0.80 10050
0.03 -0.00 5.55 -1.14 11.12 -0.96 -1.05 0.81 10056
0.03 -0.00 5.60 -0.94 11.69 -1.00 -0.93 0.83 10062
0.03 0.00 5.69 -0.80 12.35 -1.10 -0.81 0.85 10068
0.03 -0.00 5.73 -0.85 12.54 -1.23 -0.72 0.88 10076
0.01 -0.00 5.54 -1.06 12.54 -1.36 -0.65 0.90 10082
0.03 -0.00 5.32 -1.47 12.15 -1.47 -0.61 0.92 10088
0.03 -0.00 5.04 -2.08 11.32 -1.54 -0.60 0.91 10094
0.02 -0.00 4.81 -2.67 10.70 -1.55 -0.61 0.88 10100
0.04 -0.00 4.66 -3.12 10.26 -1.51 -0.62 0.83 10107
0.03 -0.00 4.59 -3.41 10.05 -1.43 -0.64 0.76 10114
0.02 -0.00 4.55 -3.45 9.88 -1.34 -0.64 0.69 10120
0.04 -0.00 4.49 -3.47 9.63 -1.30 -0.64 0.63 10126
0.02 -0.00 4.46 -3.47 9.31 -1.23 -0.63 0.56 10132
0.01 -0.00 4.37 -3.48 9.20 -1.16 -0.62 0.50 10138
0.02 -0.00 4.38 -3.51 8.95 -1.08 -0.58 0.41 10145
0.03 -0.00 4.51 -3.48 8.89 -0.98 -0.52 0.39 10151
0.02 -0.00 4.70 -3.30 9.20 -0.88 -0.44 0.34 10158
0.02 0.01 5.15 -2.94 10.08 -0.80 -0.32 0.31 10164
0.03 -0.00 5.62 -2.65 10.89 -0.78 -0.12 0.30 10170
0.02 -0.00 5.72 -2.36 11.47 -0.83 0.09 0.32 10176
0.02 -0.00 5.61 -2.26 11.81 -0.93 0.28 0.37 10183
0.03 -0.00 5.04 -2.39 11.60 -1.07 0.41 0.43 10189
0.01 -0.00 4.20 -2.74 11.08 -1.18 0.43 0.50 10195
0.03 0.00 3.57 -3.25 10.29 -1.27 0.37 0.54 10202
0.02 -0.00 3.19 -3.86 9.71 -1.31 0.21 0.56 10208
0.02 -0.00 3.14 -4.36 9.10 -1.28 0.04 0.54 10215
0.03 -0.00 3.39 -4.72 8.81 -1.22 -0.03 0.49 10221
0.03 -0.00 4.13 -4.76 8.52 -1.16 -0.05 0.44 10227
0.01 -0.00 4.66 -4.82 8.44 -1.11 -0.00 0.38 10233
0.03 -0.00 4.98 -4.88 8.39 -1.06 0.10 0.32 10240
0.03 -0.00 5.09 -5.01 8.33 -1.01 0.21 0.26 10246
0.03 -0.00 5.13 -5.01 8.29 -0.95 0.33 0.20 10253
0.03 -0.00 5.14 -4.96 8.28 -0.91 0.43 0.16 10259
0.04 -0.00 5.00 -4.84 8.30 -0.87 0.52 0.12 10265
0.04 -0.00 4.92 -4.75 8.42 -0.84 0.59 0.08 10271
0.03 -0.00 4.82 -4.76 8.33 -0.84 0.67 0.05 10277
0.04 -0.00 4.62 -4.94 8.18 -0.84 0.75 -0.00 10284
0.04 -0.00 4.40 -4.96 7.76 -0.87 0.80 -0.05 10290
0.03 -0.00 4.27 -4.80 7.19 -0.89 0.82 -0.11 10296
0.03 -0.00 4.43 -4.45 6.53 -0.89 0.81 -0.16 10303
0.05 -0.00 4.78 -3.90 5.98 -0.88 0.75 -0.19 10309
0.03 -0.00 5.38 -3.69 5.13 -0.86 0.74 -0.21 10315
0.02 -0.00 -16.94 -20.14 64.39 0.01 1.60 0.27 10321
0.03 -0.00 -0.82 -10.73 -6.05 1.42 1.46 0.58 10328
0.03 0.00 0.24 -30.73 -10.00 1.97 -0.66 0.64 10335
0.02 0.15 -17.80 -70.79 4.51 2.64 -2.29 0.86 10341
0.03 0.24 -11.33 10.97 39.95 1.66 -2.31 0.75 10347
0.03 0.30 0.85 -9.99 9.23 0.08 -0.22 0.28 10354
0.04 0.31 -0.34 -1.59 9.79 -0.13 -0.11 -0.02 10360
0.03 0.28 -0.27 0.65 10.54 -0.16 0.05 -0.05 10366
0.06 0.27 0.88 -0.16 9.81 -0.06 0.07 0.03 10373
0.05 0.26 0.96 -0.01 10.12 -0.02 0.09 0.09 10380
0.04 0.36 1.02 -0.33 10.26 -0.03 0.10 0.12 10386
0.03 0.38 0.78 -1.09 10.57 -0.03 0.06 0.09 10392
0.03 0.41 1.06 -0.83 9.98 -0.02 0.03 0.08 10398
0.04 0.42 0.69 -0.56 9.76 -0.01 0.03 0.10 10404
0.05 0.43 0.54 -0.54 9.90 -0.04 0.05 0.09 10412
0.03 0.43 0.59 -1.19 10.13 -0.06 0.07 0.07 10418
0.03 0.44 0.62 -0.88 10.09 -0.06 0.09 0.07 10424
0.05 0.51 0.65 -0.91 10.16 -0.05 0.11 0.08 10430
0.03 0.52 0.91 -0.78 10.09 -0.05 0.11 0.08 10436
0.04 0.53 0.95 -0.78 10.03 -0.05 0.11 0.06 10443
0.03 0.55 0.99 -0.72 10.10 -0.04 0.11 0.05 10449
0.02 0.60 0.83 -0.76 10.12 -0.04 0.09 0.04 10456
0.05 0.56 0.74 -0.79 10.08 -0.04 0.09 0.04 10462
0.04 0.57 0.80 -0.80 10.01 -0.03 0.09 0.04 10469
0.06 0.55 0.79 -0.79 10.04 -0.03 0.09 0.05 10475
0.03 0.61 0.80 -0.77 10.12 -0.03 0.09 0.05 10481
0.00 0.63 0.89 -0.75 10.03 -0.02 0.08 0.05 10487
0.03 0.63 0.99 -0.73 10.08 -0.02 0.06 0.05 10494
0.03 0.58 0.95 -0.75 9.89 -0.02 0.05 0.05 10501
0.02 0.62 0.92 -0.75 9.99 -0.02 0.02 0.05 10507
0.03 0.61 0.87 -0.79 9.96 -0.02 0.01 0.05 10513
0.02 0.66 0.89 -0.77 9.95 -0.02 -0.01 0.05 10519
0.02 0.64 0.91 -0.80 9.94 -0.02 -0.02 0.05 10525
0.03 0.63 0.91 -0.77 10.02 -0.02 -0.03 0.05 10532
0.02 0.62 0.94 -0.72 9.97 -0.03 -0.05 0.05 10539
0.01 0.67 0.91 -0.74 9.95 -0.02 -0.06 0.04 10545
0.02 0.67 0.89 -0.78 9.95 -0.03 -0.06 0.04 10551
0.02 0.67 0.86 -0.74 10.03 -0.03 -0.07 0.03 10558
0.02 0.70 0.86 -0.77 10.01 -0.03 -0.07 0.04 10564
0.01 0.71 0.82 -0.79 9.97 -0.03 -0.07 0.04 10570
0.01 0.71 0.85 -0.77 9.96 -0.03 -0.06 0.04 10576
0.02 0.72 0.81 -0.73 9.94 -0.02 -0.04 0.04 10583
0.01 0.75 0.85 -0.75 9.98 -0.02 -0.03 0.04 10590
-0.00 0.74 0.81 -0.75 10.03 -0.02 -0.03 0.04 10596
0.03 0.74 0.85 -0.74 9.97 -0.01 -0.02 0.04 10602
0.01 0.74 0.84 -0.74 9.95 -0.01 -0.01 0.04 10608
0.01 0.74 0.83 -0.74 9.91 -0.01 -0.01 0.04 10614
0.03 0.76 0.86 -0.78 10.04 -0.01 -0.00 0.04 10621
0.02 0.74 0.84 -0.74 9.96 -0.01 0.00 0.03 10628
0.01 0.72 0.86 -0.79 9.99 -0.01 0.00 0.03 10634
0.02 0.71 0.88 -0.75 9.97 -0.01 0.01 0.04 10640
0.01 0.72 0.85 -0.75 9.98 -0.01 0.01 0.03 10646
0.01 0.72 0.89 -0.80 10.00 -0.02 0.02 0.03 10653
0.03 0.73 0.87 -0.76 10.01 -0.02 0.02 0.04 10659
0.02 0.71 0.88 -0.78 10.01 -0.02 0.03 0.03 10665
0.01 0.72 0.85 -0.76 10.00 -0.02 0.03 0.04 10672
0.02 0.69 0.91 -0.78 10.00 -0.03 0.03 0.03 10678
0.00 0.67 0.89 -0.74 9.97 -0.02 0.04 0.03 10685
0.01 0.69 0.92 -0.74 9.99 -0.02 0.04 0.03 10691
0.02 0.67 0.93 -0.77 10.00 -0.03 0.04 0.03 10697
0.01 0.68 0.90 -0.77 9.97 -0.03 0.04 0.03 10703
0.02 0.69 0.93 -0.75 9.98 -0.03 0.04 0.02 10710
0.02 0.70 0.93 -0.72 9.95 -0.03 0.03 0.02 10717
0.01 0.68 0.94 -0.72 9.99 -0.02 0.03 0.02 10723
0.02 0.70 0.96 -0.77 9.93 -0.02 0.03 0.03 10729
0.02 0.65 0.96 -0.71 10.00 -0.02 0.03 0.02 10735
0.01 0.63 1.00 -0.72 9.98 -0.02 0.03 0.02 10741
0.01 0.65 0.97 -0.74 9.95 -0.02 0.02 0.02 10747
0.02 0.63 0.95 -0.74 10.00 -0.02 0.01 0.02 10755
0.00 0.63 0.95 -0.75 10.00 -0.02 0.01 0.02 10761
0.02 0.65 1.00 -0.76 10.00 -0.02 0.01 0.01 10767
0.02 0.65 0.99 -0.75 10.00 -0.01 -0.01 0.01 10773
0.01 0.64 1.01 -0.75 9.98 -0.01 -0.01 0.01 10780
0.03 0.65 0.97 -0.72 9.99 -0.02 -0.02 0.01 10786
0.02 0.62 0.95 -0.72 9.99 -0.01 -0.03 0.01 10792
0.02 0.61 0.99 -0.73 9.97 -0.01 -0.04 -0.00 10799
0.02 0.61 1.02 -0.73 9.97 -0.01 -0.04 -0.00 10805
0.02 0.59 0.99 -0.73 9.98 -0.01 -0.04 -0.01 10811
0.01 0.57 0.95 -0.74 9.91 -0.01 -0.04 -0.01 10818
0.03 0.54 0.97 -0.74 9.95 -0.01 -0.04 -0.01 10824
0.02 0.51 0.99 -0.76 9.98 -0.01 -0.04 -0.01 10830
0.00 0.56 0.96 -0.73 10.03 -0.01 -0.04 -0.01 10836
0.02 0.53 0.97 -0.77 9.96 -0.02 -0.04 -0.01 10843
0.01 0.52 0.99 -0.76 9.95 -0.01 -0.04 -0.01 10850
0.02 0.53 0.99 -0.75 9.92 -0.01 -0.04 -0.01 10856
0.02 0.52 0.99 -0.73 9.90 -0.01 -0.04 -0.01 10862
0.02 0.49 1.03 -0.71 9.90 -0.01 -0.05 -0.01 10868
0.01 0.48 1.00 -0.75 9.91 -0.01 -0.05 -0.01 10874
0.03 0.48 0.99 -0.74 9.98 -0.01 -0.04 -0.01 10882
0.03 0.43 0.98 -0.74 9.92 -0.00 -0.00 -0.01 10888
0.03 0.42 0.90 -0.73 10.06 -0.00 -0.03 -0.00 10894
0.04 0.42 0.99 -0.79 10.00 -0.00 -0.02 -0.00 10900
0.04 0.40 0.99 -0.75 10.01 -0.00 -0.02 0.00 10906
0.03 0.40 0.97 -0.78 9.99 -0.00 -0.02 0.00 10913
0.03 0.36 0.92 -0.78 10.03 -0.01 -0.02 0.01 10919
0.02 0.35 0.94 -0.78 9.96 -0.01 -0.02 0.01 10926
0.02 0.42 0.99 -0.78 10.02 -0.01 -0.02 0.01 10932
0.03 0.37 0.97 -0.79 10.04 -0.01 -0.01 0.01 10938
0.02 0.38 0.96 -0.80 10.00 -0.00 -0.01 0.01 10945
0.04 0.34 0.96 -0.75 10.04 -0.01 -0.01 0.01 10951
0.02 0.35 0.99 -0.73 10.01 -0.00 -0.01 0.02 10957
0.03 0.33 1.03 -0.74 9.96 -0.00 -0.01 0.02 10963
0.05 0.33 0.99 -0.75 9.97 -0.00 -0.01 0.02 10970
0.05 0.29 1.00 -0.77 9.95 -0.00 -0.01 0.02 10977
0.05 0.32 0.98 -0.74 9.97 -0.01 -0.01 0.02 10983
0.07 0.31 0.95 -0.76 9.98 -0.00 -0.01 0.01 10989
0.05 0.31 1.00 -0.75 10.03 -0.01 -0.02 0.02 10995
0.05 0.26 0.97 -0.77 10.01 -0.01 -0.01 0.02 11001
0.04 0.29 1.01 -0.76 10.04 -0.01 -0.02 0.02 11009
0.04 0.25 0.97 -0.75 10.05 -0.01 -0.01 0.02 11015
0.03 0.30 0.98 -0.82 10.02 -0.01 -0.02 0.02 11021
0.04 0.23 1.04 -0.74 9.98 -0.01 -0.02 0.02 11027
0.04 0.20 0.99 -0.76 9.97 -0.01 -0.02 0.02 11034
0.05 0.21 1.01 -0.76 10.01 -0.01 -0.02 0.02 11040
0.03 0.20 1.02 -0.77 9.99 -0.01 -0.02 0.02 11046
0.03 0.19 1.05 -0.79 10.02 -0.01 -0.03 0.02 11053
0.04 0.23 0.99 -0.77 10.03 -0.01 -0.03 0.02 11059
0.04 0.19 1.03 -0.72 10.09 -0.00 -0.02 0.02 11066
0.05 0.14 1.04 -0.70 9.95 -0.00 -0.02 0.02 11072
0.05 0.15 1.04 -0.69 10.04 0.01 -0.02 0.03 11078
0.05 0.11 1.11 -0.87 10.01 0.01 -0.02 0.02 11084
0.04 0.05 1.19 -0.87 9.94 0.02 -0.02 0.02 11090
0.05 0.04 1.14 -0.82 10.19 0.02 -0.01 0.01 11098
0.05 0.00 1.23 -0.81 10.01 0.03 -0.01 0.01 11104
0.05 0.02 1.21 -0.83 10.04 0.03 -0.01 -0.00 11110
0.05 -0.01 1.29 -0.78 10.02 0.05 -0.02 -0.01 11116
0.04 -0.00 1.28 -1.71 10.07 0.06 -0.03 -0.01 11122
0.04 -0.00 1.09 -0.91 9.94 0.08 -0.04 -0.03 11129
0.05 -0.01 0.91 -0.90 10.14 0.10 -0.04 -0.03 11136
0.05 -0.00 1.22 -0.93 10.13 0.12 -0.04 -0.05 11142
0.04 -0.00 1.19 -0.76 10.24 0.14 -0.03 -0.07 11148
0.06 -0.01 1.25 -0.70 10.31 0.20 -0.00 -0.12 11154
0.04 -0.00 1.18 -1.05 10.79 0.26 0.01 -0.12 11160
0.04 -0.00 1.06 -0.96 11.20 0.34 0.17 -0.11 11167
0.06 -0.01 0.95 -1.08 12.37 0.54 0.48 -0.13 11173
0.05 -0.01 1.15 -0.95 13.49 0.86 0.86 -0.15 11180
0.04 0.01 1.28 -0.73 16.46 1.22 1.37 -0.18 11186
0.05 -0.00 0.64 -1.40 14.23 1.44 1.71 -0.16 11192
0.03 -0.00 0.86 -1.38 14.39 1.60 1.89 -0.13 11199
0.05 -0.00 0.92 -1.39 14.19 1.70 2.11 -0.09 11205
0.06 -0.01 1.16 -1.79 14.47 1.77 2.33 -0.04 11211
0.03 -0.00 1.12 -2.14 15.06 1.81 2.60 0.03 11217
0.06 -0.01 0.88 -2.32 14.83 1.84 2.90 0.10 11225
0.04 -0.00 0.72 -2.57 15.05 1.85 3.15 0.16 11231
0.05 -0.00 0.57 -2.63 15.38 1.85 3.36 0.21 11237
0.07 -0.01 0.99 -2.73 15.38 1.81 3.53 0.25 11243
0.04 -0.00 0.89 -2.37 14.53 1.77 3.65 0.25 11249
0.04 -0.00 1.31 -2.83 14.54 1.76 3.81 0.26 11256
0.06 -0.01 1.28 -2.54 14.70 1.80 3.96 0.21 11262
0.04 -0.00 1.12 -2.61 14.74 1.90 4.11 0.12 11269
0.05 -0.00 -0.92 -3.25 13.81 1.92 4.08 0.01 11275
0.05 -0.01 -4.10 -4.30 12.14 1.89 4.00 -0.09 11281
0.04 -0.00 -6.37 -3.44 10.87 1.81 3.61 -0.31 11288
0.03 -0.00 -8.92 -2.22 8.77 1.67 2.75 -0.67 11294
0.04 -0.00 -14.34 -0.45 10.46 1.43 1.50 -1.06 11300
0.02 -0.00 -26.99 2.44 15.73 0.86 -0.39 -1.96 11307
0.03 -0.00 -14.41 2.08 13.96 0.18 -2.06 -2.76 11313
0.03 -0.00 -5.93 -0.45 14.54 -0.26 -2.83 -3.00 11320
0.02 -0.00 -3.29 -1.77 13.00 -0.50 -2.95 -3.05 11326
0.03 -0.00 -2.84 -1.37 12.68 -0.52 -2.77 -3.18 11332
0.03 -0.00 -1.63 -1.13 10.79 -0.44 -2.59 -3.34 11338
0.02 0.01 -0.78 -0.93 8.95 -0.31 -2.63 -3.36 11345
0.03 -0.00 -0.84 -0.74 8.94 -0.13 -2.69 -3.18 11352
0.03 -0.00 -0.18 -0.11 9.26 0.01 -2.72 -2.83 11358
0.03 0.00 1.14 1.26 10.11 0.10 -2.80 -2.44 11364
0.04 -0.00 2.09 2.43 11.09 0.07 -2.87 -2.08 11370
0.02 -0.00 2.96 2.90 11.01 0.04 -2.89 -1.73 11376
0.03 0.01 3.67 3.19 10.54 -0.06 -2.84 -1.40 11383
0.02 -0.00 4.45 3.50 10.30 -0.17 -2.74 -1.10 11389
0.02 -0.00 5.08 3.55 10.12 -0.27 -2.62 -0.83 11396
0.04 -0.00 5.62 3.50 9.80 -0.37 -2.52 -0.60 11402
0.03 -0.00 5.93 3.50 9.58 -0.46 -2.39 -0.38 11408
0.02 -0.00 6.34 3.51 9.58 -0.56 -2.24 -0.21 11415
0.02 0.00 6.58 3.34 9.43 -0.65 -2.06 -0.00 11421
0.04 -0.00 6.63 3.06 9.51 -0.75 -1.86 0.19 11427
0.02 -0.00 6.69 2.73 9.12 -0.84 -1.68 0.37 11433
0.03 0.01 6.49 2.19 9.21 -0.90 -1.52 0.54 11440
0.03 -0.00 6.24 1.55 8.89 -0.92 -1.39 0.69 11446
0.03 -0.00 5.97 1.02 8.74 -0.92 -1.31 0.82 11453
0.03 -0.00 5.85 0.60 8.57 -0.89 -1.27 0.93 11459
0.04 -0.00 5.74 0.29 8.49 -0.84 -1.22 1.01 11465
0.03 -0.00 5.70 0.03 8.39 -0.78 -1.18 1.06 11471
0.02 -0.00 5.61 -0.18 8.42 -0.72 -1.13 1.09 11478
0.03 -0.00 5.63 -0.37 8.56 -0.65 -1.08 1.09 11484
0.03 -0.00 5.65 -0.48 8.97 -0.60 -1.03 1.07 11490
0.04 -0.00 5.77 -0.50 9.64 -0.57 -0.97 1.04 11497
0.03 0.00 5.94 -0.42 10.34 -0.58 -0.90 0.99 11503
0.03 -0.00 6.34 -0.25 11.28 -0.64 -0.81 0.94 11509
0.02 -0.00 6.49 -0.11 11.84 -0.78 -0.69 0.90 11515
0.04 0.01 6.33 -0.16 11.77 -0.96 -0.59 0.85 11523
0.03 -0.00 6.09 -0.45 11.58 -1.16 -0.52 0.81 11529
0.02 -0.00 5.72 -0.93 11.05 -1.32 -0.48 0.77 11535
0.04 -0.00 5.35 -1.48 10.28 -1.42 -0.44 0.73 11541
0.03 -0.00 5.05 -1.89 9.70 -1.46 -0.39 0.67 11547
0.02 -0.00 4.78 -2.26 9.44 -1.44 -0.34 0.67 11553
0.03 -0.00 4.60 -2.51 9.34 -1.39 -0.31 0.65 11560
0.03 -0.00 4.51 -2.58 9.47 -1.34 -0.25 0.64 11567
0.02 -0.00 4.46 -2.61 9.64 -1.30 -0.20 0.64 11573
0.03 0.00 4.21 -2.71 9.68 -1.28 -0.13 0.65 11579
0.03 -0.00 3.93 -2.90 9.53 -1.26 -0.09 0.66 11585
0.02 -0.00 3.60 -3.14 9.50 -1.23 -0.05 0.65 11591
0.03 0.00 3.37 -3.38 9.52 -1.18 -0.01 0.64 11598
0.03 -0.00 3.27 -3.45 9.62 -1.14 0.03 0.61 11604
0.03 -0.00 3.31 -3.56 9.80 -1.11 0.08 0.54 11611
0.03 -0.00 3.38 -3.71 9.89 -1.10 0.15 0.53 11617
0.03 -0.00 3.33 -3.90 9.99 -1.11 0.23 0.48 11623
0.02 -0.00 3.21 -4.10 9.99 -1.12 0.31 0.44 11629
0.02 -0.00 2.92 -4.35 9.85 -1.12 0.37 0.42 11636
0.03 -0.00 2.52 -4.58 9.53 -1.12 0.43 0.40 11642
0.02 -0.00 2.03 -4.76 9.22 -1.11 0.47 0.40 11649
0.02 -0.00 1.50 -5.02 8.89 -1.07 0.48 0.40 11655
0.02 0.00 1.07 -5.31 8.66 -1.02 0.44 0.39 11661
0.04 -0.00 0.65 -5.54 8.53 -0.96 0.34 0.34 11667
0.03 -0.00 0.66 -5.72 8.62 -0.90 0.23 0.34 11673
0.03 -0.00 0.95 -5.88 8.76 -0.85 0.13 0.28 11680
0.04 -0.00 1.36 -5.96 8.94 -0.82 0.06 0.22 11686
0.02 -0.00 1.85 -5.99 9.05 -0.80 0.04 0.14 11693
0.01 -0.00 2.18 -6.16 9.09 -0.80 0.05 0.04 11699
0.03 -0.00 2.31 -6.42 8.95 -0.83 0.08 -0.06 11705
0.03 -0.00 2.31 -6.58 8.74 -0.86 0.11 -0.17 11711
0.03 -0.00 2.22 -6.64 8.50 -0.88 0.14 -0.28 11717
0.03 -0.00 2.09 -6.85 8.08 -0.89 0.15 -0.36 11724
0.04 -0.00 2.17 -6.89 7.64 -0.88 0.13 -0.46 11730
0.03 -0.00 2.43 -6.64 7.43 -0.85 0.10 -0.56 11737
0.02 -0.00 2.86 -6.39 7.32 -0.81 0.10 -0.65 11743
0.03 -0.00 3.31 -6.30 7.13 -0.77 0.11 -0.74 11749
0.03 -0.00 3.73 -6.20 6.73 -0.74 0.14 -0.82 11755
0.03 -0.00 4.21 -6.22 6.16 -0.69 0.18 -0.91 11761
0.03 0.00 4.47 -6.21 5.48 -0.63 0.26 -1.02 11768
0.03 -0.00 6.96 -35.55 9.28 -0.40 0.36 -0.88 11774
0.02 -0.00 16.64 -13.44 -0.76 1.85 1.67 -0.33 11781
0.03 -0.00 2.99 -15.54 -13.70 1.57 0.95 -0.08 11787
0.03 0.06 -5.42 -38.43 22.06 2.47 0.46 0.48 11794
0.02 0.19 -19.22 -1.96 40.40 1.49 -1.27 0.24 11800
0.03 0.28 0.69 -1.90 5.29 -0.35 0.07 0.20 11806
0.02 0.39 -1.42 -1.37 12.55 -0.19 -0.00 0.11 11813
0.03 0.39 -1.76 -0.23 10.87 -0.22 0.08 -0.10 11820
0.02 0.41 1.46 0.88 8.72 -0.15 0.03 -0.25 11826
0.01 0.41 4.86 0.16 9.22 0.01 -0.10 -0.01 11832
0.03 0.42 1.53 -0.72 9.54 0.07 -0.08 0.10 11838
0.02 0.46 0.23 -0.99 10.48 0.04 -0.03 0.10 11845
0.02 0.53 -0.00 -0.75 10.38 -0.00 -0.02 0.05 11851
0.01 0.51 0.57 -0.60 9.77 -0.01 -0.01 0.03 11857
0.01 0.51 0.77 -0.85 10.05 -0.03 -0.00 0.06 11864
0.03 0.54 0.67 -1.26 10.27 -0.04 0.00 0.07 11870
0.02 0.59 0.58 -1.03 10.18 -0.05 -0.00 0.06 11877
0.02 0.58 0.66 -0.74 9.96 -0.05 -0.01 0.06 11883
0.03 0.63 0.77 -0.88 10.06 -0.06 0.00 0.06 11889
0.01 0.66 0.80 -0.87 10.05 -0.05 -0.00 0.06 11895
0.02 0.67 0.68 -0.72 10.06 -0.05 0.00 0.06 11902
0.01 0.75 0.65 -0.60 10.11 -0.04 0.00 0.06 11909
0.00 0.76 0.73 -0.65 10.01 -0.03 0.01 0.06 11915
0.03 0.80 0.73 -0.72 10.02 -0.03 0.01 0.06 11921
0.01 0.83 0.74 -0.73 9.99 -0.02 0.01 0.06 11927
0.01 0.89 0.72 -0.73 10.07 -0.02 0.01 0.06 11934
0.02 0.89 0.73 -0.70 10.10 -0.02 0.01 0.06 11940
0.01 0.88 0.74 -0.72 10.04 -0.02 0.01 0.06 11947
0.01 0.88 0.72 -0.69 10.00 -0.02 0.00 0.05 11953
0.00 0.89 0.68 -0.70 9.95 -0.01 0.00 0.06 11960
0.01 0.91 0.73 -0.70 9.92 -0.01 0.01 0.05 11966
0.00 0.93 0.68 -0.68 9.96 -0.01 0.01 0.05 11972
0.01 0.92 0.72 -0.70 9.99 -0.01 0.01 0.05 11978
0.01 0.89 0.72 -0.71 10.01 -0.01 0.01 0.05 11984
0.00 0.90 0.68 -0.72 10.00 -0.00 0.01 0.05 11991
0.00 0.89 0.68 -0.72 10.04 -0.00 0.01 0.05 11998
0.00 0.88 0.66 -0.74 10.05 -0.01 0.02 0.05 12004
0.01 0.87 0.67 -0.72 10.07 -0.01 0.03 0.05 12010
0.01 0.84 0.72 -0.74 10.00 -0.01 0.03 0.05 12016
0.01 0.83 0.71 -0.70 10.03 -0.01 0.03 0.05 12023
0.02 0.84 0.71 -0.73 9.99 -0.01 0.02 0.05 12029
0.01 0.85 0.75 -0.78 10.03 -0.02 0.03 0.05 12036
0.00 0.84 0.75 -0.73 9.98 -0.01 0.03 0.05 12042
0.02 0.81 0.75 -0.71 9.98 -0.02 0.03 0.05 12048
0.01 0.80 0.76 -0.75 9.96 -0.02 0.02 0.05 12055
0.01 0.83 0.75 -0.74 9.98 -0.01 0.02 0.05 12061
0.02 0.84 0.78 -0.70 10.01 -0.02 0.02 0.05 12067
0.01 0.82 0.76 -0.72 9.99 -0.02 0.01 0.05 12073
0.00 0.84 0.78 -0.71 9.97 -0.02 -0.00 0.05 12080
0.02 0.85 0.77 -0.68 9.98 -0.02 -0.01 0.04 12087
0.00 0.83 0.83 -0.72 9.96 -0.02 -0.03 0.04 12093
-0.00 0.85 0.79 -0.71 9.96 -0.02 -0.03 0.04 12099
0.01 0.82 0.76 -0.72 9.98 -0.02 -0.03 0.04 12105
0.01 0.81 0.80 -0.70 9.97 -0.02 -0.03 0.04 12111
0.01 0.83 0.78 -0.72 9.96 -0.02 -0.04 0.04 12118
0.02 0.84 0.77 -0.73 9.99 -0.02 -0.04 0.04 12125
0.01 0.85 0.78 -0.71 10.03 -0.02 -0.04 0.04 12131
0.01 0.87 0.78 -0.74 10.01 -0.02 -0.03 0.04 12137
0.01 0.88 0.75 -0.75 9.98 -0.02 -0.02 0.04 12143
0.01 0.87 0.78 -0.74 9.98 -0.02 -0.02 0.04 12149
0.00 0.93 0.75 -0.74 9.98 -0.02 -0.02 0.04 12156
0.01 0.89 0.75 -0.75 10.04 -0.03 -0.02 0.04 12163
0.01 0.87 0.77 -0.72 9.96 -0.03 -0.01 0.04 12169
0.02 0.90 0.76 -0.72 10.02 -0.03 -0.00 0.04 12175
0.01 0.89 0.78 -0.72 10.01 -0.03 0.00 0.03 12182
0.00 0.88 0.74 -0.71 10.03 -0.03 0.01 0.03 12188
0.02 0.93 0.78 -0.71 10.04 -0.03 0.02 0.03 12194
-0.01 0.93 0.74 -0.74 9.97 -0.04 0.02 0.03 12200
-0.01 0.95 0.77 -0.74 9.99 -0.04 0.02 0.03 12207
-0.00 0.95 0.80 -0.71 10.02 -0.04 0.02 0.02 12214
-0.01 0.93 0.83 -0.71 10.00 -0.04 0.01 0.02 12220
-0.00 0.96 0.80 -0.70 9.98 -0.03 0.01 0.01 12226
0.00 0.94 0.81 -0.73 9.96 -0.04 -0.00 0.01 12232
-0.00 0.94 0.80 -0.69 10.00 -0.04 -0.00 0.01 12238
-0.01 0.96 0.80 -0.71 9.98 -0.03 -0.00 0.01 12246
-0.00 0.93 0.82 -0.69 10.02 -0.03 -0.01 0.01 12252
-0.01 0.92 0.80 -0.68 10.01 -0.03 -0.01 0.01 12258
-0.00 0.95 0.77 -0.69 9.95 -0.03 -0.01 0.00 12264
0.00 0.95 0.85 -0.70 9.96 -0.03 -0.01 0.00 12270
-0.00 0.96 0.81 -0.70 9.96 -0.02 -0.01 -0.00 12277
0.00 0.95 0.87 -0.67 9.93 -0.02 -0.02 -0.00 12283
0.00 0.94 0.87 -0.69 9.94 -0.02 -0.03 -0.00 12290
0.00 0.93 0.85 -0.70 9.96 -0.01 -0.04 -0.01 12296
0.01 0.94 0.83 -0.66 9.95 -0.01 -0.06 -0.01 12302
-0.00 0.94 0.88 -0.69 9.94 -0.00 -0.07 -0.01 12308
-0.01 0.94 0.91 -0.73 9.93 0.00 -0.07 -0.01 12315
-0.01 0.96 0.87 -0.70 9.92 0.01 -0.09 -0.01 12321
0.01 0.94 0.83 -0.66 9.94 0.01 -0.10 -0.01 12327
-0.00 0.92 0.86 -0.73 9.95 0.02 -0.10 -0.01 12334
0.00 0.92 0.83 -0.72 9.91 0.02 -0.10 -0.01 12340
0.01 0.92 0.81 -0.67 9.87 0.02 -0.10 -0.01 12347
0.01 0.91 0.87 -0.63 9.85 0.03 -0.11 -0.01 12353
0.01 0.91 0.84 -0.64 9.90 0.03 -0.12 -0.00 12359
0.01 0.89 0.81 -0.63 9.90 0.04 -0.11 -0.00 12365
0.01 0.89 0.77 -0.68 9.93 0.04 -0.11 0.00 12371
0.02 0.86 0.81 -0.73 10.07 0.03 -0.11 -0.00 12379
0.02 0.84 0.80 -0.74 9.98 0.03 -0.10 0.01 12385
0.01 0.80 0.73 -0.72 10.07 0.02 -0.09 0.00 12391
0.03 0.79 0.73 -0.73 10.03 0.02 -0.08 0.01 12397
0.04 0.73 0.69 -0.70 10.09 0.02 -0.07 0.01 12403
0.04 0.66 0.72 -0.74 10.03 0.02 -0.06 0.02 12410
0.04 0.65 0.72 -0.71 10.07 0.01 -0.06 0.02 12417
0.04 0.60 0.73 -0.71 10.01 0.01 -0.06 0.02 12423
0.04 0.61 0.73 -0.71 9.99 0.01 -0.06 0.02 12429
0.05 0.53 0.74 -0.70 9.98 0.01 -0.05 0.02 12436
0.04 0.51 0.74 -0.76 10.03 0.01 -0.05 0.02 12442
0.04 0.46 0.74 -0.78 10.08 0.01 -0.04 0.02 12448
0.03 0.44 0.68 -0.73 10.05 0.01 -0.04 0.02 12454
0.04 0.43 0.71 -0.73 10.06 0.00 -0.04 0.02 12461
0.06 0.41 0.76 -0.72 10.09 0.01 -0.04 0.02 12468
0.06 0.38 0.71 -0.69 10.07 0.01 -0.03 0.02 12474
0.06 0.38 0.74 -0.72 10.11 0.01 -0.03 0.03 12480
0.07 0.29 0.74 -0.68 10.07 0.02 -0.03 0.03 12486
0.07 0.30 0.79 -0.72 9.99 0.02 -0.03 0.03 12493
0.08 0.26 0.81 -0.75 10.01 0.02 -0.03 0.03 12499
0.07 0.22 0.76 -0.73 9.96 0.02 -0.03 0.03 12506
0.07 0.19 0.70 -0.74 10.04 0.03 -0.03 0.03 12512
0.07 0.19 0.72 -0.75 10.06 0.03 -0.02 0.04 12518
0.08 0.13 0.78 -0.82 10.07 0.06 -0.01 0.04 12525
0.06 0.10 0.78 -0.74 10.11 0.04 -0.00 0.03 12531
0.07 0.06 0.84 -0.59 10.12 0.04 0.01 0.03 12537
0.07 0.03 0.82 -0.70 10.08 0.05 0.02 0.03 12544
0.07 0.01 0.79 -0.99 9.99 0.06 0.02 0.02 12550
0.07 0.00 0.93 -0.79 10.20 0.06 0.03 -0.00 12557
0.06 -0.01 0.86 -0.69 10.10 0.07 0.04 -0.02 12563
0.06 -0.01 1.09 -0.79 9.99 0.08 0.06 -0.06 12569
0.08 -0.01 1.31 -0.93 10.23 0.09 0.11 -0.11 12575
0.07 -0.01 1.55 -0.73 10.38 0.13 0.17 -0.18 12581
0.06 -0.01 1.68 -0.45 10.54 0.20 0.25 -0.28 12589
0.06 -0.01 1.76 -0.23 11.29 0.37 0.34 -0.34 12595
0.05 -0.00 2.37 -0.09 13.46 0.77 0.62 -0.48 12601
0.05 -0.00 1.80 0.14 15.66 1.30 1.04 -0.64 12607
0.04 -0.00 2.11 -0.04 16.45 1.60 1.60 -0.76 12613
0.03 -0.00 1.25 -0.23 17.17 1.70 2.20 -0.84 12619
0.03 -0.00 1.10 -0.45 16.03 1.71 2.72 -0.86 12626
0.04 -0.00 0.10 -0.44 16.02 1.63 3.07 -0.82 12633
0.04 -0.00 0.16 -1.70 15.77 1.51 3.34 -0.75 12639
0.03 0.00 -0.46 -2.85 16.69 1.39 3.63 -0.65 12645
0.04 -0.00 -1.00 -2.79 15.76 1.30 3.83 -0.58 12652
0.04 -0.00 -1.47 -2.50 15.17 1.27 4.03 -0.52 12658
0.05 -0.00 -5.15 -3.22 14.25 1.26 4.11 -0.48 12664
0.04 -0.00 -13.65 -3.14 14.50 1.29 3.64 -0.61 12670
0.04 -0.00 -19.94 -2.46 15.04 1.24 2.35 -0.89 12677
0.05 -0.00 -17.99 -0.38 13.64 0.96 0.34 -1.01 12684
0.04 -0.00 -14.21 0.31 13.04 0.59 -1.35 -0.89 12690
0.04 -0.00 -9.84 -0.83 14.74 0.37 -2.30 -0.95 12696
0.04 -0.00 -4.99 -2.30 12.56 0.37 -2.56 -1.19 12702
0.04 -0.00 -2.07 -2.44 10.41 0.52 -2.43 -1.46 12709
0.06 -0.01 -1.59 -1.56 10.03 0.68 -2.21 -1.70 12716
0.04 -0.00 -1.95 -0.43 10.38 0.79 -2.06 -1.85 12722
0.05 -0.00 -1.90 0.79 11.06 0.81 -2.06 -1.87 12728
0.05 -0.01 -1.35 1.91 11.91 0.76 -2.12 -1.78 12734
0.05 -0.01 -0.12 2.57 12.03 0.66 -2.14 -1.61 12741
0.05 0.00 0.80 2.69 11.03 0.50 -2.11 -1.40 12747
0.05 -0.00 1.63 2.63 10.21 0.43 -2.06 -1.17 12753
0.04 -0.00 2.30 2.48 9.70 0.36 -1.99 -0.94 12760
0.04 0.00 2.71 2.51 9.47 0.33 -1.90 -0.70 12766
0.04 -0.00 3.33 2.67 9.50 0.32 -1.79 -0.45 12773
0.04 -0.00 3.97 3.06 9.65 0.31 -1.65 -0.23 12779
0.04 -0.00 4.39 3.40 9.80 0.25 -1.51 0.03 12785
0.05 -0.01 4.65 3.65 9.71 0.16 -1.38 0.29 12791
0.04 -0.00 4.70 3.54 9.35 0.05 -1.26 0.54 12797
0.03 -0.00 4.58 3.34 8.89 -0.04 -1.18 0.77 12804
0.05 -0.01 4.38 2.98 8.54 -0.08 -1.12 0.97 12810
0.04 -0.00 4.20 2.62 8.18 -0.10 -1.06 1.13 12817
0.03 -0.00 3.13 2.29 8.00 -0.09 -0.98 1.24 12823
0.04 -0.00 3.79 2.24 8.01 -0.07 -0.93 1.33 12829
0.04 -0.00 3.67 2.14 8.16 -0.06 -0.87 1.33 12835
0.04 -0.00 3.35 2.05 8.05 -0.06 -0.82 1.33 12841
0.03 -0.00 3.12 1.95 7.94 -0.04 -0.80 1.30 12848
0.05 -0.01 2.85 1.92 7.77 -0.02 -0.80 1.25 12854
0.03 -0.00 2.65 1.80 7.63 0.01 -0.83 1.18 12861
0.03 -0.00 2.56 1.95 7.71 0.04 -0.89 1.09 12867
0.03 0.00 2.72 2.23 8.01 0.07 -0.93 1.00 12873
0.04 -0.00 3.08 2.53 8.66 0.07 -0.93 0.88 12879
0.04 -0.00 3.71 2.91 9.80 0.03 -0.88 0.82 12886
0.04 -0.00 4.29 3.22 9.81 -0.07 -0.76 0.74 12892
0.05 -0.01 4.62 3.27 9.83 -0.21 -0.59 0.69 12898
0.04 -0.00 4.58 2.94 9.58 -0.38 -0.43 0.67 12905
0.02 -0.00 4.12 2.25 9.21 -0.53 -0.33 0.67 12911
0.04 0.01 3.68 1.52 8.83 -0.56 -0.31 0.69 12917
0.03 -0.00 3.39 0.76 8.38 -0.57 -0.35 0.71 12923
0.03 -0.00 3.22 0.20 7.98 -0.51 -0.42 0.73 12930
0.03 -0.00 2.94 -0.20 7.63 -0.43 -0.53 0.74 12936
0.04 -0.00 2.83 -0.60 7.65 -0.33 -0.67 0.75 12943
0.03 -0.00 3.13 -0.68 8.47 -0.22 -0.82 0.76 12949
0.03 -0.00 3.39 -0.59 9.06 -0.14 -0.95 0.77 12955
0.05 -0.00 3.53 -0.42 9.18 -0.10 -1.05 0.77 12961
0.03 -0.00 3.70 -0.08 9.10 -0.09 -1.13 0.77 12967
0.02 -0.00 4.02 0.09 9.15 -0.10 -1.19 0.75 12974
0.04 -0.00 4.29 0.28 9.45 -0.12 -1.23 0.71 12980
0.03 -0.00 4.87 0.48 10.53 -0.16 -1.21 0.67 12987
0.03 -0.00 6.16 0.93 12.60 -0.23 -1.05 0.60 12993
0.03 0.00 7.67 0.99 13.79 -0.38 -0.71 0.62 12999
0.03 -0.00 8.56 0.73 13.69 -0.62 -0.23 0.62 13005
0.02 -0.00 8.38 0.38 13.18 -0.94 0.26 0.67 13011
0.04 -0.00 7.44 0.10 12.81 -1.24 0.61 0.76 13019
0.03 -0.00 6.19 -0.59 12.42 -1.50 0.76 0.86 13025
0.02 -0.00 4.99 -1.65 11.58 -1.65 0.73 0.98 13031
0.04 -0.00 3.99 -2.78 10.36 -1.71 0.56 1.07 13037
0.03 -0.00 3.57 -3.64 9.45 -1.65 0.32 1.13 13043
0.02 -0.00 3.78 -4.20 8.94 -1.58 0.10 1.13 13050
0.03 -0.00 4.18 -4.64 8.83 -1.45 -0.06 1.09 13057
0.03 -0.00 4.49 -4.86 8.88 -1.31 -0.07 1.02 13063
0.04 -0.00 4.49 -5.01 8.76 -1.19 -0.02 0.93 13069
0.03 -0.00 4.15 -5.18 8.69 -1.08 0.06 0.82 13075
0.05 -0.00 3.86 -5.21 8.88 -0.97 0.12 0.68 13081
0.03 -0.00 4.03 -5.01 9.64 -0.88 0.19 0.55 13087
0.03 -0.00 3.96 -5.02 10.03 -0.82 0.30 0.44 13094
0.03 -0.00 3.77 -4.90 10.46 -0.81 0.44 0.35 13101
0.03 -0.00 3.26 -4.94 10.50 -0.82 0.65 0.29 13107
0.03 -0.00 2.46 -5.13 10.92 -0.83 0.89 0.27 13113
0.04 -0.00 1.64 -5.34 11.15 -0.83 1.09 0.25 13119
0.03 -0.00 0.98 -5.74 10.89 -0.83 1.19 0.19 13126
0.03 -0.00 0.34 -5.93 10.43 -0.82 1.17 0.11 13132
0.04 -0.00 0.03 -5.98 10.16 -0.79 1.05 -0.01 13138
0.03 -0.00 0.15 -5.96 10.08 -0.75 0.89 -0.15 13145
0.04 -0.00 0.67 -5.82 9.90 -0.72 0.77 -0.27 13151
0.04 -0.00 1.22 -5.67 9.64 -0.71 0.72 -0.44 13157
0.03 -0.00 1.58 -5.75 9.04 -0.69 0.73 -0.63 13164
0.02 -0.00 2.01 -5.83 8.70 -0.67 0.78 -0.84 13170
0.03 -0.00 2.42 -5.86 8.39 -0.63 0.86 -1.06 13176
0.04 -0.00 2.75 -5.75 7.83 -0.58 0.95 -1.25 13182
0.03 -0.00 2.99 -5.63 7.01 -0.52 1.02 -1.42 13189
0.03 -0.00 3.40 -5.44 6.39 -0.42 1.09 -1.55 13195
0.04 -0.00 3.88 -5.24 6.19 -0.32 1.14 -1.66 13202
0.04 -0.00 -2.53 -20.65 16.60 -0.02 0.70 -1.73 13208
0.03 -0.00 -8.91 -11.32 12.03 1.24 -1.61 -2.00 13214
0.03 -0.00 -0.15 -23.41 15.85 0.84 -1.77 -2.13 13220
0.01 -0.00 1.99 -36.26 5.11 -0.50 -2.46 -2.57 13228
0.05 -0.00 -14.98 -37.00 19.59 -0.35 -0.47 -2.13 13234
0.05 0.00 -13.98 -13.25 8.27 -0.32 0.05 -0.68 13240
0.06 0.04 1.96 -3.81 9.31 -0.26 -0.12 0.10 13246
0.05 0.03 -0.09 2.35 11.64 -0.16 0.02 0.02 13253
0.04 0.03 -0.51 0.57 10.81 -0.13 0.06 -0.01 13259
0.06 0.06 -0.01 0.04 10.85 -0.11 0.08 -0.00 13265
0.06 0.05 0.40 -0.48 10.19 -0.08 0.09 0.05 13272
0.06 0.13 0.56 -1.08 10.22 -0.07 0.10 0.11 13279
0.04 0.14 0.76 -1.06 10.12 -0.08 0.07 0.14 13285
0.07 0.13 0.90 -0.89 10.01 -0.07 0.04 0.15 13291
0.07 0.18 0.98 -0.97 9.83 -0.08 0.02 0.13 13297
0.08 0.21 0.83 -0.94 9.95 -0.08 0.02 0.10 13303
0.07 0.23 0.87 -0.87 10.17 -0.08 0.03 0.08 13310
0.10 0.27 0.83 -0.87 10.21 -0.07 0.03 0.06 13317
0.11 0.26 0.89 -0.80 10.26 -0.05 0.05 0.05 13323
0.10 0.25 0.79 -1.23 10.14 -0.04 0.05 0.04 13329
0.10 0.29 0.79 -0.79 10.09 -0.03 0.06 0.04 13336
0.09 0.26 0.79 -0.86 9.96 -0.03 0.06 0.03 13342
0.08 0.29 0.87 -0.86 9.95 -0.04 0.04 0.03 13348
0.08 0.31 0.88 -0.82 10.02 -0.05 0.00 0.03 13355
0.08 0.28 0.84 -0.74 10.02 -0.05 0.02 0.03 13361
0.11 0.30 0.78 -0.73 10.07 -0.04 0.01 0.03 13368
0.10 0.34 0.77 -0.69 10.00 -0.03 -0.00 0.04 13374
0.09 0.35 0.82 -0.77 10.03 -0.02 -0.01 0.04 13380
0.09 0.34 0.82 -0.80 9.83 -0.02 -0.02 0.04 13386
0.08 0.33 0.78 -0.80 9.97 -0.03 -0.03 0.04 13392
0.09 0.33 0.82 -0.77 9.91 -0.03 -0.03 0.04 13400
0.10 0.35 0.80 -0.78 10.00 -0.03 -0.04 0.03 13406
0.09 0.35 0.76 -0.71 9.98 -0.03 -0.04 0.03 13412
0.09 0.38 0.73 -0.77 10.01 -0.02 -0.04 0.03 13418
0.10 0.39 0.73 -0.76 9.99 -0.02 -0.03 0.03 13424
0.08 0.37 0.74 -0.79 9.92 -0.02 -0.02 0.03 13431
0.08 0.39 0.73 -0.75 9.99 -0.02 -0.02 0.03 13437
0.08 0.37 0.73 -0.73 10.01 -0.01 -0.01 0.03 13444
0.08 0.36 0.75 -0.75 9.98 -0.01 0.00 0.03 13450
0.10 0.38 0.77 -0.78 10.04 -0.00 0.01 0.04 13456
0.10 0.34 0.75 -0.76 10.02 0.00 0.01 0.04 13463
0.09 0.32 0.76 -0.80 9.98 0.00 0.02 0.03 13469
0.12 0.33 0.79 -0.74 10.04 0.01 0.02 0.04 13475
0.11 0.30 0.76 -0.77 10.04 0.01 0.03 0.04 13481
0.10 0.27 0.77 -0.77 10.00 0.01 0.04 0.03 13489
0.11 0.28 0.77 -0.78 9.92 0.01 0.04 0.04 13495
0.09 0.26 0.80 -0.78 9.96 0.01 0.04 0.04 13501
0.09 0.24 0.80 -0.79 9.97 0.01 0.04 0.04 13507
0.11 0.24 0.81 -0.78 10.00 0.01 0.05 0.04 13513
0.09 0.22 0.80 -0.79 9.98 0.01 0.05 0.05 13519
0.07 0.25 0.82 -0.79 9.98 0.00 0.05 0.05 13527
0.08 0.23 0.81 -0.78 9.98 0.00 0.06 0.05 13533
0.06 0.20 0.86 -0.79 9.96 -0.00 0.06 0.05 13539
0.05 0.24 0.85 -0.80 10.01 -0.00 0.06 0.05 13545
0.07 0.22 0.82 -0.79 9.97 0.00 0.06 0.05 13551
0.06 0.20 0.85 -0.79 9.99 -0.00 0.06 0.05 13558
0.06 0.22 0.85 -0.84 9.95 -0.01 0.06 0.05 13564
0.08 0.19 0.88 -0.77 9.94 -0.01 0.06 0.05 13571
0.05 0.18 0.87 -0.76 9.95 -0.01 0.07 0.05 13577
0.05 0.15 0.90 -0.76 9.98 -0.01 0.06 0.05 13583
0.07 0.18 0.91 -0.79 9.97 -0.01 0.06 0.05 13589
0.05 0.16 0.90 -0.78 10.00 -0.01 0.07 0.05 13596
0.04 0.19 0.92 -0.76 9.97 -0.01 0.07 0.04 13602
0.07 0.17 0.94 -0.76 10.01 -0.01 0.06 0.04 13608
0.05 0.13 0.94 -0.75 9.93 -0.02 0.06 0.04 13615
0.06 0.13 0.93 -0.81 10.01 -0.01 0.06 0.04 13621
0.06 0.11 0.97 -0.80 9.91 -0.01 0.06 0.03 13628
0.05 0.10 1.00 -0.82 9.94 -0.01 0.05 0.03 13634
0.06 0.13 0.98 -0.80 9.92 -0.01 0.05 0.03 13640
0.06 0.11 0.98 -0.77 9.91 -0.01 0.05 0.03 13646
0.05 0.10 1.03 -0.82 9.97 -0.01 0.04 0.03 13652
0.05 0.08 1.01 -0.83 9.97 -0.01 0.04 0.04 13659
0.06 0.10 1.03 -0.81 10.02 -0.01 0.04 0.03 13666
0.05 0.08 1.02 -0.82 9.99 -0.01 0.04 0.03 13672
0.05 0.09 1.02 -0.81 10.00 -0.01 0.04 0.03 13678
0.07 0.10 1.01 -0.84 9.98 -0.01 0.04 0.04 13684
0.05 0.10 1.02 -0.81 10.00 -0.01 0.05 0.03 13691
0.05 0.10 1.12 -0.94 9.99 -0.01 0.05 0.03 13698
0.05 0.08 1.03 -0.83 10.02 -0.02 0.04 0.03 13704
0.06 0.06 1.02 -0.79 9.98 -0.02 0.05 0.03 13710
0.06 0.09 1.04 -0.81 9.95 -0.02 0.05 0.03 13716
0.06 0.09 1.10 -0.79 10.00 -0.02 0.05 0.03 13722
0.05 0.05 1.08 -0.80 10.00 -0.02 0.04 0.03 13729
0.05 0.09 1.10 -0.82 9.93 -0.02 0.04 0.02 13735
0.05 0.09 1.10 -0.81 9.95 -0.02 0.03 0.02 13742
0.05 0.08 1.08 -0.83 9.93 -0.02 0.02 0.02 13748
0.05 0.09 1.09 -0.86 9.94 -0.02 0.01 0.01 13754
0.05 0.09 1.11 -0.86 9.92 -0.02 0.01 0.01 13760
0.05 0.11 1.11 -0.81 9.91 -0.03 -0.00 0.01 13767
0.04 0.12 1.13 -0.85 9.96 -0.02 -0.01 0.00 13773
0.06 0.13 1.12 -0.82 9.90 -0.02 -0.02 -0.00 13779
0.05 0.12 1.14 -0.78 9.99 -0.02 -0.02 -0.00 13786
0.05 0.13 1.16 -0.78 9.96 -0.02 -0.03 -0.01 13792
0.06 0.14 1.11 -0.82 9.96 -0.02 -0.03 -0.01 13799
0.04 0.13 1.16 -0.83 10.00 -0.02 -0.04 -0.01 13805
0.04 0.13 1.07 -0.82 10.00 -0.02 -0.04 -0.01 13811
0.04 0.13 1.06 -0.80 9.97 -0.02 -0.04 -0.01 13817
0.04 0.12 1.07 -0.82 9.97 -0.02 -0.04 -0.01 13824
0.04 0.13 1.07 -0.86 10.02 -0.02 -0.04 -0.01 13831
0.05 0.13 1.11 -0.79 10.00 -0.02 -0.04 -0.01 13837
0.04 0.10 1.09 -0.80 9.96 -0.02 -0.04 -0.01 13843
0.05 0.13 1.13 -0.85 9.98 -0.01 -0.04 -0.01 13849
0.04 0.13 1.08 -0.80 10.03 -0.02 -0.04 -0.01 13855
0.04 0.10 1.10 -0.81 10.00 -0.01 -0.04 -0.00 13862
0.05 0.10 1.08 -0.82 9.92 -0.01 -0.05 -0.00 13869
0.04 0.11 1.10 -0.83 9.92 -0.01 -0.05 -0.00 13875
0.03 0.12 1.11 -0.81 9.96 -0.01 -0.05 -0.00 13881
0.04 0.12 1.12 -0.86 9.93 -0.01 -0.05 -0.00 13887
0.04 0.10 1.15 -0.84 9.96 -0.01 -0.06 0.00 13894
0.04 0.11 1.09 -0.80 9.98 -0.01 -0.05 0.00 13900
0.05 0.12 1.12 -0.81 10.02 -0.01 -0.06 0.00 13906
0.04 0.09 1.09 -0.83 9.99 -0.01 -0.06 0.00 13913
0.04 0.06 1.09 -0.82 9.98 -0.01 -0.06 0.00 13919
0.05 0.10 1.11 -0.82 9.94 -0.01 -0.05 0.01 13925
0.05 0.07 1.11 -0.83 9.98 -0.01 -0.05 0.00 13932
0.04 0.07 1.07 -0.81 9.98 -0.01 -0.05 0.00 13938
0.05 0.07 1.06 -0.81 10.00 -0.01 -0.05 0.01 13944
0.05 0.05 1.12 -0.77 9.97 -0.00 -0.06 0.00 13950
0.05 0.05 1.11 -0.82 9.99 -0.01 -0.06 -0.00 13957
0.06 0.06 1.10 -0.82 9.95 -0.01 -0.06 -0.00 13964
0.06 0.03 1.09 -0.81 10.01 -0.01 -0.06 -0.00 13970
0.05 0.03 1.06 -0.85 10.09 -0.01 -0.06 -0.00 13976
0.07 0.03 1.08 -0.82 10.04 0.00 -0.06 0.00 13982
0.06 0.01 1.08 -0.81 9.98 0.01 -0.07 0.00 13988
0.05 0.01 1.09 -0.86 10.00 0.01 -0.08 0.01 13996
0.06 0.02 1.12 -0.90 10.01 0.01 -0.08 0.00 14002
0.05 0.00 1.13 -0.86 9.98 0.01 -0.08 0.01 14008
0.05 0.01 1.33 -0.76 9.92 0.02 -0.08 0.00 14014
0.07 0.02 1.12 -0.85 9.97 0.03 -0.07 0.00 14020
0.06 0.00 1.23 -0.87 9.92 0.04 -0.06 0.00 14026
0.05 -0.00 1.27 -0.92 10.00 0.05 -0.05 0.00 14033
0.06 0.01 1.27 -0.86 10.00 0.06 -0.05 -0.00 14040
0.06 -0.00 0.64 -0.81 9.94 0.09 -0.04 -0.01 14046
0.04 -0.00 1.27 -0.95 10.12 0.11 -0.04 -0.02 14052
0.06 -0.01 1.44 -1.15 10.18 0.13 -0.04 -0.04 14058
0.05 -0.01 1.21 -0.80 10.05 0.17 -0.05 -0.06 14065
0.04 -0.00 1.54 -0.76 9.84 0.24 -0.05 -0.12 14071
0.06 0.00 1.76 -1.05 10.40 0.32 -0.03 -0.18 14077
0.05 -0.01 1.38 -0.69 11.63 0.53 0.10 -0.26 14084
0.05 -0.00 1.59 -1.13 13.85 0.93 0.51 -0.31 14090
0.06 -0.01 1.58 -0.74 14.10 1.36 1.06 -0.36 14097
0.05 -0.01 1.40 -0.96 13.84 1.48 1.49 -0.39 14103
0.05 -0.00 0.36 -1.41 13.87 1.45 1.78 -0.34 14109
0.05 -0.01 1.00 -1.56 13.19 1.41 2.01 -0.27 14115
0.04 -0.00 0.94 -1.51 12.99 1.36 2.20 -0.22 14121
0.04 -0.00 0.97 -1.90 13.17 1.32 2.42 -0.15 14129
0.05 -0.01 1.82 -1.92 13.63 1.30 2.64 -0.06 14135
0.05 -0.00 0.99 -2.34 13.01 1.27 2.76 0.03 14141
0.04 -0.00 0.54 -2.97 13.40 1.25 2.91 0.10 14147
0.06 -0.01 0.88 -2.83 13.69 1.26 3.02 0.20 14153
0.05 -0.01 0.82 -2.99 14.05 1.30 3.06 0.29 14160
0.05 -0.01 0.65 -3.03 13.20 1.32 3.04 0.37 14167
0.06 -0.01 1.10 -2.86 12.94 1.35 2.99 0.42 14173
0.05 -0.01 1.51 -2.65 12.67 1.41 2.97 0.45 14179
0.04 0.01 1.83 -2.33 12.32 1.48 2.93 0.46 14185
0.05 -0.00 1.57 -2.50 12.38 1.56 2.89 0.46 14192
0.03 -0.00 0.91 -2.68 12.24 1.61 2.79 0.43 14198
0.05 -0.01 -0.11 -2.73 11.52 1.63 2.63 0.35 14204
0.04 -0.00 -2.45 -2.18 10.53 1.58 2.33 0.20 14211
0.03 -0.00 -3.33 -1.92 10.38 1.56 1.86 -0.01 14217
0.04 -0.00 -10.52 -1.24 10.78 1.45 1.19 -0.26 14224
0.03 -0.00 -17.64 0.73 12.57 1.20 0.09 -0.85 14230
0.04 0.00 -13.52 2.04 14.40 0.70 -1.18 -1.53 14236
0.03 -0.00 -7.66 1.11 14.58 0.19 -1.98 -1.86 14242
0.03 -0.00 -5.74 0.78 14.26 -0.18 -2.26 -2.12 14249
0.04 -0.00 -4.36 0.05 13.22 -0.36 -2.26 -2.49 14256
0.03 -0.00 -3.35 -0.27 11.03 -0.44 -2.25 -2.83 14262
0.02 -0.00 -2.16 -0.17 9.41 -0.45 -2.29 -3.07 14268
0.05 -0.00 -1.28 -0.45 8.32 -0.38 -2.35 -3.23 14274
0.03 -0.00 -0.99 -0.78 7.84 -0.24 -2.47 -3.26 14281
0.03 -0.00 -1.19 -0.87 8.37 -0.07 -2.54 -3.23 14287
0.04 -0.00 -1.18 -0.52 9.63 0.09 -2.58 -3.12 14294
0.02 -0.00 -0.33 0.26 11.26 0.20 -2.64 -2.94 14300
0.01 -0.00 0.82 1.27 12.11 0.19 -2.72 -2.70 14306
0.04 -0.00 1.74 2.18 12.27 0.09 -2.75 -2.45 14313
0.02 -0.00 2.51 2.69 12.26 -0.09 -2.78 -2.21 14319
0.03 -0.00 3.49 2.77 11.87 -0.29 -2.74 -1.96 14325
0.03 -0.00 4.40 2.74 11.57 -0.45 -2.66 -1.68 14331
0.03 -0.00 4.96 2.62 11.14 -0.62 -2.51 -1.38 14338
0.03 -0.00 5.21 2.42 10.52 -0.76 -2.33 -1.09 14345
0.04 -0.00 5.39 2.18 10.01 -0.87 -2.16 -0.82 14351
0.03 -0.00 5.00 1.54 8.13 -0.93 -2.02 -0.56 14357
0.01 -0.00 5.45 1.31 9.21 -0.96 -1.85 -0.30 14363
0.04 -0.00 5.20 1.01 8.91 -0.94 -1.70 -0.07 14369
0.03 -0.00 5.11 0.79 8.74 -0.88 -1.57 0.19 14375
0.03 -0.00 4.99 0.56 8.52 -0.82 -1.48 0.42 14383
0.03 -0.00 5.02 0.26 8.61 -0.74 -1.41 0.62 14389
0.03 -0.00 5.33 0.06 8.92 -0.69 -1.36 0.79 14395
0.02 -0.00 5.66 -0.13 9.20 -0.62 -1.29 0.92 14401
0.03 -0.00 6.12 -0.45 9.17 -0.57 -1.20 1.04 14407
0.04 -0.00 6.22 -1.20 9.40 -0.53 -1.09 1.12 14413
0.03 -0.00 6.29 -0.74 9.55 -0.51 -0.96 1.18 14419
0.03 -0.00 6.45 -0.76 9.94 -0.51 -0.84 1.24 14427
0.04 -0.00 6.56 -0.70 10.47 -0.54 -0.73 1.28 14433
0.04 -0.00 6.67 -0.80 10.55 -0.62 -0.62 1.31 14439
0.03 -0.00 6.56 -0.88 10.32 -0.73 -0.52 1.32 14445
0.04 -0.00 6.47 -1.08 9.95 -0.83 -0.44 1.31 14451
0.03 -0.00 6.31 -1.44 9.52 -0.90 -0.37 1.27 14458
0.03 -0.00 6.05 -1.76 9.05 -0.94 -0.29 1.22 14465
0.05 -0.00 5.84 -1.98 8.71 -0.94 -0.20 1.14 14471
0.04 -0.00 5.63 -2.07 8.48 -0.93 -0.11 1.06 14477
0.02 -0.00 5.37 -2.00 8.70 -0.91 0.01 0.99 14483
0.03 0.01 4.97 -1.94 8.82 -0.90 0.13 0.90 14489
0.03 -0.00 4.47 -1.85 8.92 -0.90 0.22 0.83 14495
0.03 -0.00 3.97 -1.74 8.92 -0.91 0.27 0.77 14502
0.03 0.00 3.52 -1.75 8.94 -0.91 0.28 0.72 14509
0.03 -0.00 3.34 -1.76 9.07 -0.91 0.27 0.68 14515
0.03 -0.00 3.65 -1.72 9.35 -0.89 0.28 0.65 14521
0.02 -0.00 4.10 -1.71 9.35 -0.89 0.35 0.66 14527
0.04 -0.00 4.50 -1.80 9.56 -0.88 0.45 0.69 14533
0.03 -0.00 4.68 -1.96 9.67 -0.90 0.60 0.73 14540
0.02 -0.00 4.61 -2.16 9.71 -0.91 0.75 0.77 14546
0.03 -0.00 4.50 -2.42 9.83 -0.92 0.86 0.82 14553
0.03 -0.00 4.17 -2.68 9.81 -0.93 0.92 0.88 14559
0.03 -0.00 3.82 -2.85 9.75 -0.93 0.91 0.93 14565
0.02 -0.00 3.58 -2.93 9.62 -0.93 0.85 0.95 14571
0.03 -0.00 3.50 -3.03 9.53 -0.93 0.75 0.96 14577
0.03 -0.00 3.48 -3.19 9.48 -0.95 0.66 0.93 14584
0.02 -0.00 3.67 -3.39 9.47 -0.97 0.58 0.88 14590
0.03 -0.00 3.84 -3.57 9.41 -0.99 0.50 0.78 14597
0.03 -0.00 3.97 -3.68 9.36 -1.00 0.46 0.69 14603
0.02 -0.00 4.16 -3.81 9.40 -1.00 0.43 0.55 14609
0.03 -0.00 4.41 -3.99 9.50 -1.00 0.43 0.39 14615
0.04 -0.00 4.56 -4.25 9.44 -1.00 0.44 0.21 14621
0.03 -0.00 4.80 -4.43 9.35 -1.02 0.47 0.00 14628
0.02 -0.00 5.04 -4.52 9.39 -1.05 0.51 -0.22 14635
0.03 -0.00 5.25 -4.45 9.33 -1.08 0.56 -0.46 14641
0.03 -0.00 5.39 -3.69 9.39 -1.14 0.63 -0.73 14647
0.02 -0.00 5.59 -4.28 8.62 -1.20 0.69 -0.90 14653
0.02 -0.00 5.25 -4.36 8.21 -1.26 0.81 -1.12 14659
0.03 -0.00 4.17 -4.84 6.60 -1.30 1.07 -1.30 14665
0.02 -0.00 2.43 -4.81 6.45 -1.28 1.43 -1.48 14672
0.03 -0.00 0.72 -5.13 6.06 -1.23 1.63 -1.67 14679
0.04 -0.00 -0.22 -5.41 5.17 -1.14 1.55 -1.81 14685
0.02 -0.00 -0.27 -5.12 4.09 -1.03 1.29 -1.84 14691
0.02 -0.00 0.35 -4.99 2.89 -0.89 1.04 -1.73 14697
0.04 -0.00 2.19 -5.07 1.65 -0.69 0.75 -1.53 14703
0.03 -0.00 -24.28 -28.34 38.48 1.26 -3.95 -1.30 14710
0.02 -0.00 -10.89 -29.88 2.45 1.98 -2.75 -0.78 14716
0.03 0.08 -10.15 -72.53 27.18 2.98 -3.07 -0.08 14723
0.03 0.27 -6.33 2.70 14.92 0.34 -1.31 0.44 14730
0.05 0.40 -0.04 -8.03 13.15 -0.15 -0.12 0.02 14736
0.02 0.42 -0.86 -0.45 10.90 -0.19 0.07 -0.10 14742
0.03 0.36 1.71 0.24 9.62 -0.01 0.14 0.05 14748
0.03 0.34 1.49 1.14 9.24 -0.03 0.12 0.14 14755
0.03 0.36 1.24 -0.11 10.41 -0.06 0.13 0.11 14761
0.04 0.37 1.02 -0.71 10.45 -0.02 0.11 0.11 14768
0.04 0.37 1.31 -0.62 9.83 0.02 0.07 0.10 14774
0.03 0.38 1.10 -0.88 9.80 0.01 0.09 0.08 14780
0.03 0.40 0.71 -0.98 10.04 -0.00 0.11 0.07 14787
0.02 0.41 0.55 -1.05 9.99 -0.01 0.11 0.07 14793
0.00 0.43 0.68 -1.05 10.55 -0.01 0.14 0.09 14799
0.03 0.43 0.66 -0.97 10.06 -0.01 0.16 0.10 14806
0.04 0.44 0.81 -0.92 9.95 -0.02 0.17 0.11 14813
0.04 0.41 1.12 -0.82 10.00 -0.02 0.17 0.11 14819
0.04 0.40 1.22 -0.67 9.90 -0.02 0.15 0.10 14825
0.03 0.39 1.22 -0.65 9.91 -0.03 0.13 0.06 14831
0.04 0.40 1.14 -0.68 10.08 -0.03 0.10 0.05 14837
0.02 0.38 0.97 -0.76 10.02 -0.02 0.08 0.04 14844
0.04 0.40 0.86 -0.80 10.03 -0.01 0.08 0.04 14851
0.04 0.41 0.84 -0.82 9.97 -0.01 0.08 0.05 14857
0.04 0.40 0.95 -0.80 10.10 -0.01 0.08 0.06 14863
0.03 0.40 1.03 -0.77 9.97 0.01 0.07 0.06 14869
0.01 0.39 1.06 -0.71 9.95 0.01 0.05 0.07 14876
0.02 0.38 0.94 -0.70 9.99 0.01 0.03 0.06 14882
0.04 0.33 1.06 -0.77 9.94 0.01 0.02 0.05 14888
0.04 0.32 1.03 -0.79 9.94 0.00 0.01 0.05 14895
0.05 0.28 1.03 -0.77 9.90 -0.00 -0.01 0.04 14901
0.03 0.30 1.04 -0.81 9.94 -0.01 -0.02 0.04 14907
0.05 0.28 1.01 -0.80 9.91 -0.01 -0.03 0.04 14914
0.04 0.27 1.00 -0.76 9.96 -0.01 -0.03 0.04 14920
0.03 0.27 0.99 -0.77 9.92 -0.02 -0.04 0.04 14926
0.06 0.26 1.05 -0.78 9.92 -0.02 -0.05 0.04 14932
0.05 0.25 0.98 -0.79 9.91 -0.01 -0.06 0.04 14939
0.05 0.25 1.01 -0.77 9.92 -0.01 -0.06 0.04 14946
0.05 0.27 0.95 -0.78 9.94 -0.01 -0.07 0.05 14952
0.04 0.23 0.95 -0.78 10.02 -0.01 -0.06 0.04 14958
0.04 0.21 0.96 -0.77 9.98 -0.00 -0.06 0.04 14964
0.05 0.21 0.98 -0.81 9.95 0.00 -0.06 0.05 14970
0.06 0.22 0.99 -0.74 9.98 0.00 -0.05 0.05 14977
0.05 0.15 0.98 -0.80 9.97 -0.00 -0.05 0.04 14984
0.06 0.21 0.96 -0.80 9.94 0.00 -0.05 0.04 14990
0.06 0.22 0.97 -0.79 9.92 0.00 -0.05 0.05 14996
0.05 0.21 0.98 -0.78 9.92 -0.00 -0.05 0.04 15002
0.07 0.15 0.99 -0.78 9.95 -0.01 -0.10 0.03 15008
0.05 0.17 0.99 -0.78 9.95 -0.01 -0.07 0.03 15015
0.04 0.12 1.00 -0.81 9.90 -0.01 -0.09 0.03 15022
0.06 0.16 1.01 -0.80 10.00 -0.02 -0.09 0.03 15028
0.05 0.15 0.97 -0.78 9.93 -0.02 -0.10 0.02 15034
0.05 0.15 0.95 -0.78 9.97 -0.02 -0.09 0.02 15040
0.07 0.15 0.92 -0.81 9.97 -0.01 -0.09 0.03 15046
0.07 0.14 0.94 -0.79 9.96 -0.01 -0.08 0.03 15053
0.06 0.12 0.97 -0.79 9.93 -0.01 -0.07 0.03 15059
0.07 0.12 0.94 -0.79 9.98 -0.00 -0.07 0.03 15066
0.05 0.10 0.93 -0.78 9.98 0.00 -0.06 0.04 15072
0.06 0.11 0.97 -0.79 9.94 0.00 -0.05 0.03 15078
0.08 0.09 0.96 -0.79 9.96 0.01 -0.05 0.03 15085
0.08 0.05 0.93 -0.80 10.00 0.01 -0.04 0.03 15091
0.07 0.07 0.96 -0.86 9.98 0.01 -0.03 0.03 15097
0.11 0.06 0.96 -0.81 9.97 0.01 -0.03 0.03 15104
0.11 0.03 0.93 -0.81 9.95 0.01 -0.03 0.03 15110
0.11 0.01 0.95 -0.85 10.01 0.02 -0.03 0.04 15117
0.12 0.01 0.93 -0.79 9.94 0.02 -0.03 0.03 15123
0.11 0.01 0.95 -0.77 9.99 0.01 -0.02 0.04 15129
0.10 0.01 0.95 -0.84 9.93 0.01 -0.02 0.03 15135
0.12 0.01 0.97 -0.83 9.99 0.01 -0.02 0.03 15141
0.12 -0.01 0.98 -0.86 9.94 0.01 -0.02 0.03 15148
0.12 -0.01 0.95 -0.67 9.96 0.01 -0.01 0.03 15155
0.13 0.01 0.98 -0.82 9.96 0.01 -0.01 0.03 15161
0.13 -0.00 0.98 -0.83 9.96 0.01 -0.01 0.03 15167
0.12 -0.00 0.98 -0.85 9.98 0.00 -0.00 0.02 15173
0.13 0.00 0.98 -0.83 9.96 0.00 -0.00 0.03 15179
0.14 -0.01 0.98 -0.86 9.98 0.00 -0.00 0.02 15185
0.14 -0.01 0.99 -0.86 9.94 0.00 -0.00 0.02 15192
0.13 -0.01 0.98 -0.84 9.95 -0.00 -0.00 0.02 15199
0.15 -0.01 1.03 -0.86 9.96 -0.00 -0.01 0.02 15205
0.15 -0.01 1.02 -0.85 9.97 -0.00 -0.00 0.02 15211
0.14 -0.01 1.00 -0.85 9.96 -0.00 -0.01 0.02 15217
0.15 0.00 1.02 -0.87 9.96 -0.01 -0.01 0.02 15223
0.16 -0.02 1.01 -0.85 9.97 -0.01 -0.01 0.01 15229
0.16 -0.02 1.04 -0.85 9.99 -0.01 -0.02 0.02 15236
0.16 -0.02 1.01 -0.85 9.97 -0.01 -0.02 0.01 15243
0.16 -0.01 1.04 -0.84 9.92 -0.01 -0.02 0.01 15249
0.15 -0.02 1.02 -0.85 9.95 -0.01 -0.03 0.01 15255
0.14 -0.01 1.04 -0.85 9.98 -0.02 -0.03 0.00 15261
0.17 -0.01 0.99 -0.89 9.96 -0.02 -0.04 0.00 15267
0.18 -0.02 1.05 -0.85 9.92 -0.02 -0.04 0.00 15273
0.17 -0.02 1.03 -0.88 9.92 -0.03 -0.04 -0.00 15280
0.16 -0.01 0.98 -0.90 9.91 -0.03 -0.04 0.00 15287
0.18 -0.02 1.04 -0.86 9.95 -0.03 -0.05 0.00 15293
0.17 -0.02 1.03 -0.89 9.95 -0.02 -0.05 -0.00 15299
0.16 -0.02 1.03 -0.84 9.96 -0.02 -0.05 -0.00 15305
0.16 -0.00 1.03 -0.88 9.99 -0.02 -0.05 -0.00 15311
0.16 -0.02 0.97 -0.85 9.98 -0.02 -0.06 -0.00 15318
0.16 -0.02 1.02 -0.89 9.95 -0.02 -0.05 -0.01 15324
0.17 -0.01 1.02 -0.86 9.98 -0.02 -0.06 -0.01 15331
0.17 -0.01 1.03 -0.88 9.93 -0.02 -0.05 -0.01 15337
0.17 -0.02 1.03 -0.86 9.97 -0.01 -0.05 -0.01 15343
0.16 -0.01 0.98 -0.86 10.01 -0.01 -0.05 -0.01 15349
0.18 -0.01 1.03 -0.86 10.03 -0.00 -0.05 -0.01 15355
0.17 -0.02 1.05 -0.86 10.01 -0.00 -0.04 -0.01 15363
0.16 -0.01 1.00 -0.81 9.99 0.00 -0.04 -0.02 15369
0.17 -0.02 1.04 -0.86 9.97 0.00 -0.03 -0.02 15375
0.16 -0.02 1.02 -0.85 10.01 0.01 -0.02 -0.02 15381
0.16 -0.01 1.04 -0.84 9.99 0.01 -0.02 -0.02 15387
0.17 -0.02 1.01 -0.82 10.00 0.02 -0.01 -0.02 15393
0.16 -0.02 1.08 -0.88 10.04 0.02 0.00 -0.02 15400
0.16 -0.01 1.04 -0.84 10.02 0.03 0.01 -0.02 15407
0.15 -0.01 1.06 -0.91 9.93 0.03 0.03 -0.02 15413
0.14 -0.01 1.01 -0.90 10.02 0.04 0.04 -0.02 15419
0.15 -0.01 1.14 -0.93 10.05 0.04 0.06 -0.01 15425
0.15 -0.02 0.80 -0.84 10.29 0.03 0.07 -0.02 15432
0.11 -0.01 1.20 -0.93 10.11 0.05 0.09 -0.02 15438
0.12 -0.01 1.07 -0.94 10.22 0.09 0.10 -0.02 15444
0.13 -0.01 1.21 -0.91 10.36 0.11 0.11 -0.02 15451
0.08 -0.01 1.21 -0.87 10.45 0.18 0.11 -0.03 15457
0.10 -0.01 1.27 -1.00 10.63 0.29 0.14 -0.04 15464
0.10 -0.01 1.31 -0.95 11.30 0.48 0.17 -0.06 15470
0.09 -0.01 1.47 -1.02 11.71 0.78 0.32 -0.11 15476
0.10 0.00 1.08 -0.31 12.92 1.16 0.41 -0.15 15482
0.07 -0.01 1.24 -1.19 14.03 1.58 0.67 -0.18 15489
0.04 -0.00 1.03 -1.76 14.24 1.83 1.00 -0.19 15496
0.05 -0.00 1.40 -1.47 14.01 1.91 1.40 -0.19 15502
