Voltage_01 Voltage_02 Acc_x Acc_y Acc_z Gyro_x Gyro_y Gyro_z Time
5000
0.06 0.12 0.97 -0.69 9.96 -0.01 -0.06 0.01 17
0.06 0.11 1.00 -0.67 10.01 -0.01 -0.07 0.02 23
0.06 0.09 0.98 -0.74 9.99 -0.01 -0.07 0.01 29
0.07 0.07 0.98 -0.71 9.99 -0.01 -0.07 0.02 35
0.07 0.08 0.92 -0.68 10.06 -0.00 -0.07 0.02 41
0.07 0.07 0.99 -0.71 9.97 -0.01 -0.07 0.01 48
0.08 0.07 0.91 -0.73 9.96 -0.01 -0.07 0.01 54
0.08 0.07 0.92 -0.77 9.93 -0.01 -0.07 0.02 60
0.08 0.07 0.91 -0.74 10.01 -0.01 -0.07 0.02 66
0.09 0.09 0.96 -0.70 9.99 -0.02 -0.06 0.03 72
0.09 0.09 0.93 -0.73 10.02 -0.02 -0.06 0.03 78
0.09 0.08 0.92 -0.69 9.98 -0.01 -0.06 0.03 84
0.08 0.08 0.93 -0.72 9.96 -0.01 -0.05 0.03 91
0.07 0.10 0.90 -0.70 10.02 -0.01 -0.05 0.03 97
0.08 0.09 0.95 -0.69 10.02 -0.00 -0.05 0.04 103
0.09 0.10 0.91 -0.71 10.01 -0.01 -0.05 0.04 109
0.08 0.09 0.93 -0.71 10.00 -0.01 -0.05 0.04 116
0.08 0.10 0.90 -0.70 9.98 -0.00 -0.05 0.04 122
0.08 0.13 0.94 -0.69 10.00 -0.00 -0.05 0.04 129
0.08 0.13 0.95 -0.71 9.97 -0.00 -0.05 0.04 135
0.07 0.11 0.95 -0.68 9.98 -0.00 -0.05 0.04 141
0.07 0.13 0.93 -0.74 9.98 -0.01 -0.05 0.05 147
0.08 0.14 0.94 -0.71 9.94 -0.01 -0.04 0.04 153
0.09 0.13 0.92 -0.71 9.98 -0.01 -0.04 0.04 159
0.08 0.14 0.95 -0.72 10.03 -0.00 -0.04 0.04 165
0.07 0.13 0.96 -0.65 9.98 -0.01 -0.04 0.04 172
0.08 0.13 0.97 -0.69 9.95 -0.00 -0.04 0.04 178
0.09 0.14 0.93 -0.72 9.98 -0.00 -0.04 0.04 184
0.09 0.12 0.95 -0.69 9.99 -0.00 -0.07 0.04 191
0.08 0.12 0.94 -0.72 9.97 -0.00 -0.04 0.05 197
0.07 0.12 0.95 -0.69 9.98 0.00 -0.03 0.04 203
0.07 0.14 0.97 -0.67 10.01 0.01 -0.03 0.04 209
0.09 0.11 0.97 -0.69 10.05 0.01 -0.03 0.04 216
0.08 0.08 1.03 -0.77 10.13 0.01 -0.03 0.04 222
0.07 0.07 0.98 -0.73 9.97 0.02 -0.03 0.04 228
0.08 0.09 1.00 -0.71 10.02 0.02 -0.03 0.04 234
0.08 0.06 0.99 -0.69 10.01 0.02 -0.03 0.04 240
0.09 0.03 1.02 -0.75 10.00 0.02 -0.04 0.04 246
0.09 0.02 1.06 -0.73 9.98 0.03 -0.04 0.03 253
0.09 0.04 1.07 -0.74 10.02 0.06 -0.04 0.03 260
0.09 0.02 1.10 -0.68 10.04 0.05 -0.05 0.02 266
0.09 -0.01 1.06 -0.73 10.02 0.05 -0.05 0.01 272
0.07 -0.01 1.07 -0.70 10.06 0.06 -0.05 0.00 278
0.08 -0.00 1.06 -0.83 10.10 0.07 -0.05 -0.01 284
0.08 -0.01 1.14 -0.85 10.11 0.08 -0.05 -0.02 290
0.07 -0.01 1.20 -0.68 10.10 0.09 -0.04 -0.05 296
0.07 -0.01 1.13 -0.76 10.16 0.11 -0.04 -0.07 303
0.07 -0.01 1.08 -0.83 10.22 0.15 -0.04 -0.08 309
0.08 -0.01 1.13 -0.31 10.59 0.19 -0.05 -0.11 315
0.08 -0.01 1.21 -0.89 10.45 0.27 -0.04 -0.15 322
0.07 -0.01 1.37 -0.80 11.11 0.40 -0.06 -0.18 328
0.07 -0.01 1.01 -0.91 11.68 0.60 -0.03 -0.21 334
0.09 -0.01 0.63 -0.89 12.42 0.95 0.06 -0.23 340
0.06 -0.01 0.94 -1.09 13.37 1.36 0.11 -0.24 347
0.06 -0.01 0.55 -1.15 13.34 1.65 0.19 -0.23 353
0.05 -0.00 0.55 -1.36 13.74 1.83 0.34 -0.19 359
0.05 -0.00 0.96 -0.76 12.83 1.89 0.60 -0.17 365
0.05 -0.00 0.23 -1.59 13.43 1.93 0.92 -0.07 371
0.06 -0.01 0.22 -1.71 13.16 1.92 1.29 -0.00 377
0.04 -0.00 0.30 -2.01 12.73 1.91 1.56 0.04 385
0.05 0.00 0.32 -1.92 13.72 1.92 1.82 0.13 391
0.06 -0.01 0.45 -2.34 13.84 1.91 2.06 0.22 397
0.04 -0.00 0.34 -2.74 13.65 1.88 2.25 0.30 403
0.05 -0.00 0.38 -2.69 14.09 1.81 2.36 0.38 409
0.05 0.00 0.65 -2.61 14.61 1.78 2.47 0.44 415
0.05 -0.00 1.13 -2.58 14.63 1.71 2.56 0.47 421
0.04 -0.00 1.55 -2.54 13.90 1.65 2.70 0.47 428
0.04 -0.00 1.14 -2.51 13.30 1.60 2.79 0.47 434
0.04 0.01 0.10 -2.43 11.81 1.55 2.79 0.48 440
0.05 -0.00 -1.30 -1.93 10.62 1.47 2.66 0.51 447
0.05 -0.00 -3.41 -0.53 9.66 1.41 2.33 0.53 453
0.03 -0.00 -6.97 1.62 9.26 1.29 1.84 0.39 459
0.03 0.00 -10.26 2.24 9.91 1.07 0.92 0.10 465
0.05 -0.01 -9.71 2.27 11.32 0.72 -0.24 -0.29 472
0.05 -0.00 -8.16 3.23 12.58 0.29 -1.12 -0.52 478
0.03 -0.00 -5.46 3.27 12.02 -0.07 -1.48 -0.75 484
0.04 -0.00 -3.75 1.67 10.48 -0.24 -1.65 -1.05 490
0.04 -0.00 -3.18 0.75 8.77 -0.32 -1.67 -1.36 496
0.03 -0.00 -2.68 0.47 7.77 -0.29 -1.63 -1.60 502
0.03 -0.00 -2.46 0.31 7.28 -0.20 -1.66 -1.85 508
0.04 -0.00 -2.30 0.31 7.01 -0.06 -1.76 -2.01 515
0.04 0.00 -1.83 0.52 7.43 0.06 -1.89 -2.11 522
0.04 -0.00 -0.72 0.85 8.23 0.18 -2.02 -2.13 528
0.04 -0.00 -0.50 1.24 9.06 0.26 -2.16 -2.10 534
0.03 -0.00 0.54 1.85 9.90 0.28 -2.23 -2.02 540
0.04 -0.00 1.93 2.50 11.00 0.23 -2.23 -1.90 546
0.03 -0.00 3.07 2.83 11.46 0.12 -2.16 -1.76 552
0.04 -0.00 3.85 2.91 11.41 -0.06 -2.01 -1.60 559
0.03 -0.00 4.66 2.80 10.96 -0.28 -1.87 -1.41 565
0.03 -0.00 5.09 2.60 10.67 -0.48 -1.68 -1.25 571
0.04 -0.00 5.28 2.14 10.15 -0.66 -1.50 -1.04 577
0.04 -0.00 5.19 1.59 9.77 -0.81 -1.33 -0.81 583
0.03 -0.00 5.08 1.05 9.47 -0.90 -1.19 -0.57 589
0.03 -0.00 5.03 0.55 8.92 -0.96 -1.11 -0.33 595
0.03 -0.00 4.82 0.23 8.36 -0.98 -1.02 -0.13 603
0.06 -0.01 4.84 -0.14 8.21 -0.98 -0.93 0.10 609
0.04 -0.00 4.91 -0.40 8.17 -0.94 -0.82 0.31 615
0.04 -0.00 4.91 -0.60 8.21 -0.92 -0.69 0.50 621
0.03 -0.00 4.90 -0.79 8.36 -0.88 -0.58 0.67 627
0.04 -0.00 4.73 -0.93 9.16 -0.86 -0.43 0.80 633
0.04 -0.00 4.53 -1.09 8.82 -0.84 -0.30 0.93 640
0.04 -0.00 4.20 -1.30 8.98 -0.82 -0.21 1.04 646
0.03 -0.00 3.86 -1.52 9.08 -0.81 -0.15 1.12 652
0.03 -0.00 3.63 -1.61 9.28 -0.79 -0.11 1.17 658
0.03 -0.00 3.48 -1.63 9.62 -0.79 -0.08 1.21 664
0.04 0.00 3.31 -1.69 9.89 -0.82 -0.04 1.23 670
0.04 -0.00 3.05 -1.75 10.04 -0.86 -0.01 1.23 676
0.03 -0.00 2.81 -1.82 9.98 -0.92 0.06 1.20 683
0.04 -0.00 2.53 -1.97 9.79 -0.97 0.08 1.14 689
0.04 -0.00 2.13 -2.17 9.58 -1.00 0.11 1.11 695
0.03 0.00 1.63 -2.28 9.44 -1.01 0.13 1.04 701
0.04 -0.00 1.20 -2.31 9.41 -1.02 0.13 0.97 707
0.03 -0.00 1.00 -2.44 9.57 -1.01 0.12 0.88 713
0.04 -0.00 0.79 -2.62 9.86 -1.01 0.06 0.78 720
0.03 -0.00 0.75 -2.72 10.24 -1.01 -0.01 0.73 727
0.05 -0.00 0.97 -2.68 10.65 -1.02 -0.08 0.66 733
0.03 -0.00 1.20 -2.76 10.60 -1.06 -0.12 0.61 739
0.03 -0.00 1.43 -2.93 10.42 -1.09 -0.18 0.55 745
0.03 -0.00 1.78 -3.38 10.11 -1.13 -0.23 0.48 751
0.04 -0.00 2.18 -4.23 9.82 -1.14 -0.28 0.43 757
0.03 -0.00 2.60 -3.84 9.51 -1.13 -0.29 0.37 763
0.03 -0.00 3.13 -3.89 9.30 -1.11 -0.27 0.32 770
0.02 -0.00 3.45 -3.79 9.11 -1.04 -0.23 0.28 776
0.03 -0.00 4.27 -3.72 9.24 -1.04 -0.14 0.28 782
0.03 -0.00 3.78 -3.64 9.39 -1.01 -0.10 0.29 788
0.03 -0.00 3.59 -3.62 9.52 -0.99 -0.05 0.33 794
0.04 -0.00 3.40 -3.66 9.77 -0.99 -0.02 0.39 800
0.03 -0.00 3.06 -3.84 9.77 -0.98 -0.03 0.45 806
0.03 -0.00 2.82 -4.00 9.81 -0.97 -0.05 0.51 813
0.04 0.00 2.91 -4.02 10.11 -0.95 -0.09 0.55 820
0.04 -0.00 3.19 -4.00 10.13 -0.93 -0.10 0.60 826
0.03 -0.00 3.37 -3.84 9.99 -0.92 -0.09 0.64 832
0.02 -0.00 3.57 -3.76 9.69 -0.92 -0.06 0.68 838
0.03 -0.00 4.28 -3.85 9.26 -0.90 -0.03 0.70 844
0.03 -0.00 3.73 -3.93 8.78 -0.87 0.00 0.69 850
0.03 -0.00 3.72 -4.06 8.37 -0.81 0.05 0.66 857
0.02 -0.00 3.69 -4.24 7.93 -0.75 0.09 0.61 863
0.03 -0.00 3.69 -4.33 7.61 -0.66 0.13 0.54 869
0.02 -0.00 3.55 -4.39 7.23 -0.57 0.17 0.48 875
0.02 -0.00 3.39 -4.41 6.91 -0.46 0.19 0.41 881
0.04 -0.00 3.18 -4.36 6.40 -0.34 0.20 0.34 887
0.03 -0.00 3.59 -5.10 5.81 -0.23 0.20 0.29 893
0.03 -0.00 3.68 -21.99 21.87 0.39 0.60 0.35 900
0.03 -0.00 8.03 -4.73 0.17 1.54 1.40 0.37 906
0.04 0.00 0.14 -13.94 -2.83 1.82 1.17 0.42 912
0.04 0.00 -1.56 -28.38 11.46 2.84 -0.90 0.26 919
0.02 -0.00 3.11 -24.17 37.63 0.60 -2.30 -0.18 925
0.05 0.05 -0.48 -2.40 8.10 -0.04 0.07 0.26 931
0.06 0.07 -0.08 -2.41 11.36 -0.13 -0.06 0.01 937
0.04 0.09 0.27 -1.41 10.35 -0.10 -0.02 -0.02 944
0.03 0.05 1.07 -0.00 9.65 -0.03 0.05 0.00 950
0.05 0.05 1.00 -0.39 10.42 -0.05 0.07 0.01 956
0.06 0.06 0.42 -0.29 9.72 -0.09 0.08 0.04 962
0.05 0.09 0.36 -0.34 9.97 -0.09 0.09 0.04 968
0.06 0.07 0.51 -0.69 10.28 -0.07 0.08 0.04 975
0.04 0.09 0.84 -1.04 10.29 -0.06 0.13 0.06 982
0.04 0.13 1.10 -1.13 10.14 -0.05 0.09 0.07 988
0.04 0.15 0.89 -0.89 10.03 -0.04 0.08 0.06 994
0.04 0.15 0.59 -0.74 9.96 -0.03 0.08 0.06 1000
0.04 0.16 0.67 -0.85 10.07 -0.03 0.09 0.06 1006
0.04 0.14 0.80 -0.96 10.07 -0.04 0.09 0.06 1012
0.05 0.16 0.70 -0.86 10.00 -0.04 0.09 0.07 1019
0.04 0.22 0.68 -0.87 9.98 -0.04 0.10 0.07 1026
0.05 0.17 0.77 -0.82 10.10 -0.05 0.10 0.08 1032
0.04 0.21 0.78 -0.86 10.08 -0.05 0.10 0.09 1038
0.03 0.21 0.88 -0.91 10.03 -0.05 0.10 0.08 1044
0.05 0.22 0.72 -0.84 10.04 -0.04 0.10 0.08 1050
0.04 0.24 0.80 -0.82 10.05 -0.05 0.10 0.08 1057
0.04 0.26 0.77 -0.74 10.05 -0.05 0.11 0.08 1063
0.05 0.30 0.88 -0.80 9.95 -0.05 0.10 0.08 1070
0.05 0.26 0.94 -0.77 9.97 -0.04 0.09 0.08 1076
0.03 0.31 0.96 -0.78 10.00 -0.04 0.08 0.08 1082
0.04 0.34 0.92 -0.67 9.91 -0.04 0.07 0.08 1088
0.05 0.31 0.95 -0.72 9.96 -0.04 0.05 0.07 1095
0.04 0.35 0.91 -0.70 9.97 -0.04 0.04 0.07 1101
0.04 0.37 0.91 -0.67 10.04 -0.03 0.03 0.07 1107
0.06 0.37 0.93 -0.69 9.98 -0.02 0.02 0.03 1114
0.04 0.33 0.93 -0.68 9.97 -0.02 0.00 0.07 1120
0.04 0.35 0.88 -0.72 10.02 -0.02 -0.01 0.06 1126
0.05 0.38 0.89 -0.75 9.97 -0.02 -0.01 0.06 1132
0.05 0.36 0.87 -0.75 9.96 -0.02 -0.02 0.06 1139
0.04 0.36 0.85 -0.71 9.96 -0.02 -0.03 0.05 1145
0.06 0.38 0.87 -0.74 9.98 -0.02 -0.03 0.06 1152
0.06 0.37 0.80 -0.73 10.04 -0.02 -0.03 0.06 1158
0.06 0.33 0.85 -0.71 10.02 -0.02 -0.03 0.05 1164
0.06 0.36 0.84 -0.74 10.00 -0.02 -0.03 0.05 1170
0.05 0.35 0.82 -0.74 10.08 -0.02 -0.02 0.05 1177
0.05 0.35 0.81 -0.74 10.03 -0.02 -0.02 0.05 1183
0.04 0.37 0.83 -0.73 9.99 -0.02 -0.02 0.05 1189
0.06 0.36 0.83 -0.70 9.99 -0.02 -0.01 0.05 1196
0.05 0.37 0.83 -0.72 9.99 -0.02 -0.01 0.05 1202
0.04 0.36 0.88 -0.70 10.00 -0.01 -0.01 0.05 1208
0.06 0.37 0.89 -0.71 9.96 -0.01 -0.01 0.04 1215
0.05 0.37 0.86 -0.66 9.95 -0.01 -0.01 0.04 1221
0.04 0.36 0.89 -0.69 10.03 -0.00 -0.00 0.04 1227
0.05 0.38 0.91 -0.73 9.98 -0.00 -0.00 0.04 1233
0.06 0.35 0.84 -0.72 9.98 -0.01 -0.01 0.04 1240
0.05 0.32 0.86 -0.72 9.96 -0.00 -0.00 0.04 1246
0.05 0.32 0.91 -0.76 10.00 -0.00 -0.00 0.04 1252
0.06 0.31 0.88 -0.73 9.93 -0.01 -0.00 0.04 1259
0.05 0.30 0.91 -0.71 9.96 -0.01 0.00 0.05 1265
0.04 0.30 0.89 -0.72 10.03 -0.01 0.00 0.05 1271
0.05 0.31 0.87 -0.76 10.00 -0.01 0.00 0.05 1277
0.05 0.30 0.91 -0.72 9.94 -0.01 0.00 0.04 1284
0.05 0.28 0.94 -0.72 9.98 -0.01 0.00 0.05 1290
0.06 0.29 0.92 -0.70 9.97 -0.01 0.00 0.04 1296
0.06 0.30 0.91 -0.70 9.98 -0.01 -0.00 0.04 1303
0.05 0.28 0.92 -0.68 9.96 -0.01 -0.01 0.04 1309
0.04 0.29 0.89 -0.71 9.96 -0.01 -0.01 0.04 1315
0.05 0.30 0.93 -0.71 9.99 -0.01 -0.01 0.04 1321
0.06 0.29 0.89 -0.72 9.99 -0.01 -0.01 0.03 1328
0.05 0.27 0.93 -0.73 9.98 -0.01 -0.01 0.04 1334
0.05 0.28 0.91 -0.71 9.97 -0.01 -0.01 0.03 1340
0.07 0.27 0.91 -0.73 9.98 -0.01 -0.01 0.03 1346
0.05 0.29 0.93 -0.73 9.98 -0.01 -0.01 0.03 1353
0.03 0.30 0.96 -0.73 9.99 -0.01 -0.01 0.03 1359
0.04 0.29 0.95 -0.69 9.94 -0.02 -0.01 0.03 1366
0.05 0.29 0.93 -0.71 9.95 -0.02 -0.01 0.03 1372
0.04 0.26 0.91 -0.74 9.96 -0.02 -0.01 0.03 1378
0.04 0.24 0.93 -0.71 9.95 -0.01 -0.02 0.03 1384
0.05 0.26 0.95 -0.71 9.98 -0.01 -0.02 0.03 1390
0.04 0.26 0.93 -0.72 9.98 -0.02 -0.02 0.03 1397
0.04 0.24 0.94 -0.74 9.98 -0.02 -0.03 0.02 1403
0.04 0.25 0.94 -0.73 9.96 -0.02 -0.03 0.02 1410
0.04 0.27 0.94 -0.72 9.99 -0.01 -0.03 0.02 1416
0.05 0.26 0.93 -0.70 9.98 -0.02 -0.04 0.03 1422
0.03 0.26 0.93 -0.74 9.98 -0.01 -0.04 0.02 1428
0.04 0.29 0.93 -0.74 9.93 -0.02 -0.04 0.02 1434
0.04 0.27 0.92 -0.72 9.94 -0.02 -0.04 0.02 1440
0.04 0.24 0.96 -0.74 9.97 -0.02 -0.04 0.02 1447
0.04 0.25 0.97 -0.70 9.94 -0.02 -0.05 0.02 1454
0.04 0.29 0.95 -0.70 9.93 -0.02 -0.05 0.01 1460
0.04 0.29 0.94 -0.68 9.94 -0.01 -0.06 0.02 1466
0.02 0.30 0.89 -0.73 9.92 -0.01 -0.06 0.02 1472
0.04 0.33 0.95 -0.74 9.94 -0.01 -0.06 0.02 1478
0.04 0.30 0.91 -0.70 9.95 -0.01 -0.06 0.02 1484
0.04 0.28 0.94 -0.72 9.97 -0.01 -0.06 0.01 1491
0.04 0.28 0.97 -0.69 9.99 -0.01 -0.06 0.02 1498
0.05 0.26 0.89 -0.75 9.98 -0.01 -0.07 0.02 1504
0.04 0.26 0.91 -0.74 9.98 -0.01 -0.07 0.02 1510
0.03 0.33 0.89 -0.74 9.99 -0.01 -0.07 0.02 1516
0.04 0.33 0.91 -0.72 9.97 -0.01 -0.07 0.02 1522
0.03 0.30 0.91 -0.75 9.99 -0.01 -0.07 0.02 1528
0.05 0.29 0.90 -0.74 9.99 -0.00 -0.07 0.02 1536
0.05 0.32 0.89 -0.70 9.99 -0.01 -0.07 0.02 1542
0.06 0.30 0.86 -0.71 9.99 -0.00 -0.07 0.02 1548
0.04 0.30 0.91 -0.73 9.97 -0.00 -0.06 0.03 1554
0.03 0.32 0.91 -0.71 9.98 -0.00 -0.06 0.03 1560
0.03 0.33 0.89 -0.71 9.92 -0.00 -0.06 0.03 1566
0.04 0.32 0.92 -0.73 10.04 -0.00 -0.06 0.02 1572
0.03 0.35 0.87 -0.74 9.94 -0.00 -0.06 0.03 1579
0.04 0.35 0.94 -0.71 9.97 -0.00 -0.05 0.02 1586
0.05 0.35 0.91 -0.74 9.92 -0.01 -0.05 0.02 1592
0.03 0.30 0.87 -0.76 9.94 -0.01 -0.05 0.02 1598
0.03 0.30 0.88 -0.75 10.02 -0.01 -0.04 0.02 1604
0.04 0.31 0.88 -0.74 10.00 -0.01 -0.04 0.03 1610
0.05 0.29 0.90 -0.73 10.07 -0.01 -0.04 0.03 1616
0.03 0.25 0.89 -0.68 10.06 -0.00 -0.04 0.03 1624
0.05 0.27 0.94 -0.68 10.04 0.00 -0.04 0.04 1630
0.05 0.24 0.92 -0.69 10.02 0.01 -0.04 0.04 1636
0.05 0.20 0.95 -0.76 9.96 0.01 -0.04 0.03 1642
0.06 0.21 0.94 -0.73 10.01 0.01 -0.04 0.03 1648
0.07 0.20 0.91 -0.76 9.98 0.01 -0.05 0.02 1654
0.07 0.15 0.93 -0.74 10.00 0.01 -0.05 0.03 1661
0.07 0.12 0.96 -0.80 10.02 0.02 -0.05 0.03 1668
0.09 0.11 0.93 -0.79 10.03 0.02 -0.05 0.02 1674
0.07 0.06 0.96 -0.71 10.03 0.03 -0.05 0.02 1680
0.05 0.06 1.04 -0.72 10.11 0.03 -0.05 0.01 1686
0.08 0.04 1.07 -0.73 9.99 0.04 -0.05 -0.00 1692
0.07 0.04 0.96 -0.93 10.07 0.05 -0.04 -0.01 1699
0.06 0.00 1.04 -0.82 10.12 0.05 -0.04 -0.02 1705
0.07 0.02 1.09 -0.84 10.09 0.06 -0.04 -0.04 1712
0.06 -0.01 1.15 -0.75 10.17 0.08 -0.03 -0.06 1718
0.06 -0.01 1.38 -0.20 10.04 0.09 -0.02 -0.09 1724
0.07 -0.00 1.20 -0.83 10.13 0.10 -0.02 -0.12 1730
0.08 -0.01 1.01 -0.85 10.28 0.13 -0.01 -0.14 1737
0.07 -0.01 1.57 -0.74 10.52 0.19 -0.00 -0.17 1743
0.07 -0.01 1.49 -0.75 10.39 0.25 -0.01 -0.22 1750
0.08 -0.01 1.60 -0.93 10.56 0.36 -0.02 -0.26 1756
0.06 -0.01 1.38 -0.97 10.99 0.54 0.00 -0.29 1762
0.06 -0.01 0.87 -0.92 12.18 0.84 0.10 -0.30 1768
0.06 -0.00 0.86 -1.10 12.52 1.22 0.19 -0.30 1774
0.06 -0.01 0.62 -1.18 13.02 1.47 0.24 -0.28 1781
0.05 -0.00 0.32 -1.34 13.24 1.62 0.34 -0.25 1787
0.05 0.00 0.22 -1.39 13.80 1.72 0.56 -0.20 1794
0.05 -0.01 0.32 -1.57 13.43 1.80 0.89 -0.14 1800
0.05 -0.01 0.31 -1.58 13.62 1.82 1.29 -0.07 1806
0.05 0.00 0.31 -1.71 13.44 1.79 1.59 -0.01 1812
0.05 -0.01 0.35 -1.84 13.56 1.77 1.87 0.05 1819
0.05 -0.00 0.51 -2.18 13.46 1.75 2.09 0.10 1825
0.06 -0.01 0.64 -2.22 14.55 1.73 2.29 0.14 1831
0.05 -0.01 1.00 -2.40 13.98 1.68 2.52 0.18 1838
0.05 -0.01 0.66 -2.14 14.10 1.59 2.66 0.18 1844
0.05 -0.00 1.14 -2.68 14.24 1.50 2.78 0.19 1850
0.05 -0.00 1.05 -2.68 13.81 1.44 2.94 0.21 1857
0.06 -0.01 0.80 -2.51 13.24 1.40 3.09 0.21 1863
0.04 -0.00 -0.15 -2.37 12.38 1.39 3.14 0.20 1869
0.05 -0.00 -4.14 -2.15 11.69 1.37 3.10 0.13 1875
0.05 -0.00 -7.61 -0.83 10.81 1.33 2.81 -0.10 1882
0.03 -0.00 -12.68 -0.10 10.64 1.19 2.12 -0.43 1888
0.04 -0.00 -16.99 2.08 11.32 0.94 1.09 -1.06 1895
0.05 -0.01 -15.51 2.44 11.30 0.55 -0.18 -1.68 1901
0.04 -0.00 -11.08 2.22 12.10 0.10 -1.23 -2.07 1907
0.05 -0.01 -8.50 2.05 13.25 -0.32 -1.83 -2.28 1913
0.04 -0.00 -6.38 1.86 13.04 -0.62 -2.07 -2.48 1920
0.03 -0.00 -4.27 0.96 11.52 -0.76 -2.20 -2.70 1927
0.03 -0.00 -2.77 0.15 9.72 -0.79 -2.29 -2.84 1933
0.03 -0.00 -2.15 -0.46 8.28 -0.72 -2.28 -2.88 1939
0.03 -0.00 -2.14 -0.67 7.85 -0.59 -2.27 -2.84 1945
0.03 -0.00 -2.18 -0.57 7.99 -0.42 -2.33 -2.75 1951
0.04 -0.00 -1.82 -0.32 8.05 -0.24 -2.47 -2.67 1957
0.04 -0.00 -0.73 0.02 8.44 -0.09 -2.68 -2.52 1964
0.03 -0.00 0.80 0.80 9.58 0.00 -2.87 -2.32 1970
0.03 -0.00 2.34 1.49 10.60 0.03 -2.96 -2.09 1976
0.05 -0.00 3.59 2.07 11.27 -0.00 -2.91 -1.86 1983
0.03 -0.00 4.58 2.58 11.76 -0.10 -2.82 -1.63 1989
0.02 -0.00 5.65 2.85 11.96 -0.26 -2.59 -1.39 1995
0.03 -0.00 6.33 3.00 12.07 -0.45 -2.32 -1.18 2001
0.04 -0.00 6.35 2.75 11.48 -0.68 -2.00 -0.93 2008
0.04 -0.00 5.96 2.26 10.74 -0.88 -1.68 -0.67 2014
0.03 0.00 5.73 1.52 9.82 -1.02 -1.43 -0.41 2021
0.04 -0.00 5.47 0.80 9.30 -1.06 -1.25 -0.14 2027
0.04 -0.00 5.62 0.10 10.91 -1.04 -1.11 0.11 2033
0.04 -0.00 5.29 -0.01 8.29 -0.97 -0.98 0.36 2039
0.04 -0.00 5.13 -0.12 8.26 -0.90 -0.88 0.60 2045
0.04 -0.00 5.18 -0.18 8.47 -0.84 -0.73 0.78 2052
0.04 -0.00 5.11 -0.28 8.52 -0.79 -0.55 0.98 2058
0.03 -0.00 4.98 -0.48 8.60 -0.74 -0.38 1.14 2064
0.04 0.00 4.79 -0.64 8.85 -0.67 -0.23 1.27 2070
0.04 -0.00 4.39 -0.86 9.10 -0.65 -0.10 1.37 2077
0.03 -0.00 4.10 -0.93 9.27 -0.62 -0.02 1.44 2083
0.03 -0.00 3.72 -1.00 9.54 -0.61 0.02 1.48 2089
0.04 0.00 3.27 -1.07 9.67 -0.61 0.01 1.49 2096
0.04 -0.00 2.93 -0.87 9.98 -0.64 -0.04 1.48 2102
0.04 -0.00 2.76 -0.65 10.04 -0.70 -0.11 1.44 2108
0.03 -0.00 2.85 -0.52 10.15 -0.76 -0.16 1.37 2114
0.04 -0.00 3.01 -0.41 10.21 -0.85 -0.18 1.28 2120
0.03 -0.00 3.66 -0.44 10.18 -0.93 -0.16 1.17 2127
0.03 -0.00 3.04 -0.38 10.17 -1.01 -0.10 1.07 2134
0.04 -0.00 2.92 -0.54 10.08 -1.08 -0.04 0.99 2140
0.03 -0.00 2.76 -0.69 9.93 -1.13 0.02 0.92 2146
0.04 -0.00 2.51 -0.83 9.72 -1.16 0.05 0.86 2152
0.03 -0.00 2.45 -0.99 9.42 -1.18 0.06 0.84 2158
0.02 -0.00 2.36 -1.05 9.16 -1.17 0.03 0.82 2164
0.03 -0.00 2.34 -1.19 8.98 -1.16 0.02 0.82 2170
0.02 -0.00 2.37 -1.36 9.07 -1.13 0.00 0.83 2177
0.02 -0.00 2.34 -1.57 9.01 -1.09 -0.01 0.84 2184
0.02 -0.00 2.35 -1.84 9.27 -1.05 -0.03 0.85 2190
0.03 -0.00 2.27 -1.89 9.42 -1.02 -0.06 0.84 2196
0.02 -0.00 2.36 -1.97 9.77 -1.00 -0.09 0.82 2202
0.01 -0.00 2.52 -2.07 10.01 -0.99 -0.12 0.79 2208
0.03 0.00 2.89 -2.21 10.13 -1.00 -0.14 0.75 2214
0.03 -0.00 3.15 -2.40 10.21 -1.03 -0.14 0.71 2221
0.02 -0.00 3.19 -2.60 10.18 -1.06 -0.15 0.66 2228
0.02 0.00 3.21 -2.94 10.12 -1.08 -0.15 0.59 2234
0.03 -0.00 3.28 -3.21 10.12 -1.08 -0.15 0.54 2240
0.02 -0.00 3.33 -3.47 10.27 -1.09 -0.15 0.48 2246
0.03 0.01 3.25 -3.66 10.34 -1.09 -0.14 0.43 2252
0.03 -0.00 3.32 -3.79 10.44 -1.10 -0.13 0.38 2258
0.02 -0.00 3.29 -3.96 10.40 -1.12 -0.12 0.32 2266
0.03 0.01 3.32 -4.27 10.30 -1.13 -0.09 0.27 2272
0.03 -0.00 3.37 -4.54 10.05 -1.12 -0.07 0.22 2278
0.03 -0.00 3.47 -4.88 9.74 -1.09 -0.05 0.16 2284
0.02 -0.00 3.67 -5.15 9.39 -1.05 -0.03 0.12 2290
0.04 -0.00 5.18 -9.77 8.29 -0.96 0.01 0.08 2296
0.03 -0.00 1.92 -18.88 28.61 0.43 1.23 0.26 2302
0.02 -0.00 3.40 -5.23 -1.20 0.72 1.18 0.29 2310
0.03 0.00 3.15 -15.43 -3.51 0.74 1.33 0.35 2316
0.03 -0.00 3.88 -23.40 5.60 1.13 1.70 0.71 2322
0.03 -0.00 1.38 -22.18 5.56 1.77 1.60 1.12 2328
0.03 0.00 -25.55 -42.07 72.44 2.35 2.83 1.52 2334
0.05 0.03 15.33 -10.72 9.47 -0.05 -0.10 0.36 2341
0.04 0.02 -4.64 -8.03 14.37 -0.03 0.16 0.03 2348
0.05 0.02 0.29 -2.21 10.49 -0.12 0.30 -0.04 2354
0.05 -0.00 0.82 -0.21 9.59 0.02 0.20 0.02 2360
0.04 -0.00 0.51 -0.15 10.05 -0.08 0.20 0.08 2366
0.06 -0.00 1.33 0.18 10.08 -0.08 0.16 0.08 2372
0.06 -0.01 0.57 -0.06 10.44 -0.08 0.14 0.03 2379
0.07 -0.01 0.96 -0.91 10.52 -0.03 0.12 0.04 2385
0.07 0.00 0.94 -1.41 10.15 -0.05 0.09 0.05 2392
0.09 0.00 0.38 -0.73 9.96 -0.03 0.10 0.05 2398
0.06 0.00 0.33 -0.77 10.06 -0.02 0.12 0.07 2404
0.07 -0.00 0.71 -0.93 10.09 -0.02 0.13 0.08 2410
0.10 0.01 0.87 -1.03 10.12 -0.03 0.12 0.09 2417
0.14 0.00 0.86 -0.92 10.09 -0.02 0.12 0.09 2423
0.13 0.00 0.82 -0.81 10.11 -0.01 0.12 0.09 2429
0.16 0.01 0.98 -0.85 10.06 -0.00 0.11 0.08 2436
0.15 -0.00 1.00 -0.87 10.13 0.01 0.10 0.06 2442
0.13 0.01 0.97 -0.84 9.99 0.01 0.08 0.05 2448
0.15 0.02 0.85 -0.80 10.09 0.01 0.07 0.04 2455
0.15 0.00 0.91 -0.86 10.03 0.01 0.06 0.04 2461
0.15 -0.01 0.85 -0.90 9.99 0.02 0.05 0.05 2467
0.12 -0.01 0.80 -0.76 9.98 0.02 0.04 0.04 2473
0.13 -0.01 0.87 -0.83 10.02 0.02 0.04 0.04 2480
0.14 -0.01 0.89 -0.86 9.96 0.02 0.03 0.04 2486
0.14 -0.01 0.79 -0.86 10.01 0.01 0.02 0.04 2492
0.16 -0.02 0.82 -0.90 9.94 0.01 0.01 0.04 2498
0.17 -0.01 0.81 -0.88 10.03 -0.00 0.01 0.04 2504
0.19 -0.02 0.82 -0.81 9.96 -0.01 -0.00 0.04 2511
0.21 -0.02 0.79 -0.86 9.90 -0.01 -0.00 0.04 2518
0.20 -0.02 0.79 -0.81 9.99 -0.01 -0.00 0.04 2524
0.21 -0.02 0.79 -0.86 9.95 -0.01 -0.00 0.04 2530
0.21 -0.02 0.78 -0.83 9.98 -0.01 0.00 0.04 2536
0.18 -0.02 0.80 -0.83 9.99 -0.00 0.00 0.04 2542
0.17 -0.01 0.79 -0.85 9.98 -0.01 0.00 0.05 2548
0.18 -0.01 0.84 -0.84 9.97 -0.00 0.00 0.04 2554
0.17 -0.02 0.81 -0.84 9.98 -0.01 0.00 0.04 2561
0.16 -0.02 0.85 -0.83 9.96 -0.00 0.00 0.04 2567
0.14 -0.01 0.86 -0.80 9.98 -0.00 0.01 0.04 2574
0.16 -0.02 0.85 -0.85 10.05 -0.00 0.00 0.04 2580
0.16 -0.02 0.84 -0.86 10.00 -0.00 0.00 0.03 2586
0.17 -0.02 0.86 -0.84 10.01 0.00 0.00 0.04 2592
0.15 -0.02 0.85 -0.81 9.97 -0.00 0.00 0.03 2598
0.16 -0.01 0.85 -0.85 9.95 -0.00 0.01 0.04 2605
0.16 -0.02 0.86 -0.83 9.96 -0.00 0.01 0.04 2611
0.16 -0.02 0.85 -0.83 9.98 -0.00 0.01 0.03 2617
0.15 -0.01 0.82 -0.86 9.98 -0.01 0.01 0.03 2623
0.15 -0.00 0.83 -0.84 9.98 -0.01 0.01 0.03 2629
0.17 -0.02 0.90 -0.83 9.98 -0.01 0.01 0.03 2635
0.16 -0.02 0.86 -0.85 9.96 -0.00 0.01 0.04 2642
0.16 -0.02 0.86 -0.82 9.91 -0.00 0.01 0.04 2649
0.16 -0.00 0.88 -0.86 9.97 -0.00 0.01 0.03 2655
0.17 -0.01 0.87 -0.83 10.03 -0.00 0.01 0.04 2661
0.16 -0.02 0.91 -0.86 9.99 -0.00 0.01 0.03 2667
0.11 -0.01 0.89 -0.89 9.96 -0.01 0.01 0.03 2673
0.12 -0.00 0.88 -0.87 9.93 -0.01 0.01 0.03 2679
0.13 -0.01 0.88 -0.85 9.99 -0.02 0.02 0.03 2685
0.11 -0.01 0.88 -0.81 9.93 -0.02 0.01 0.03 2692
0.11 -0.01 0.88 -0.85 9.96 -0.02 0.01 0.03 2698
0.11 -0.01 0.96 -0.83 10.01 -0.03 0.02 0.03 2705
0.11 -0.01 0.91 -0.83 9.97 -0.04 0.02 0.03 2711
0.11 -0.01 0.89 -0.84 9.94 -0.04 0.02 0.02 2717
0.10 -0.01 0.91 -0.84 10.01 -0.04 0.02 0.03 2723
0.10 -0.01 0.92 -0.83 10.00 -0.04 0.02 0.03 2729
0.10 -0.01 0.92 -0.85 9.98 -0.04 0.03 0.03 2736
0.11 -0.01 0.92 -0.83 9.99 -0.04 0.03 0.03 2742
0.08 -0.01 0.94 -0.79 10.00 -0.03 0.03 0.03 2748
0.07 -0.01 0.92 -0.80 9.99 -0.02 0.03 0.02 2754
0.07 -0.01 0.98 -0.80 10.01 -0.02 0.03 0.02 2760
0.06 -0.01 0.94 -0.81 9.98 -0.02 0.03 0.02 2767
0.07 -0.01 0.97 -0.82 10.01 -0.02 0.03 0.03 2774
0.07 -0.01 0.99 -0.82 9.92 -0.02 0.03 0.02 2780
0.07 -0.01 0.97 -0.84 9.98 -0.02 0.03 0.02 2786
0.07 -0.01 1.00 -0.79 10.01 -0.01 0.02 0.02 2792
0.07 -0.01 0.98 -0.79 9.98 -0.01 0.02 0.02 2798
0.06 -0.01 1.00 -0.84 9.95 -0.01 0.01 0.02 2804
0.07 -0.01 0.98 -0.82 9.96 -0.01 0.00 0.02 2810
0.08 -0.01 0.98 -0.81 9.97 -0.01 0.00 0.01 2817
0.07 -0.01 0.95 -0.84 9.94 -0.02 -0.01 0.01 2823
0.06 -0.01 0.99 -0.83 9.98 -0.02 -0.01 0.00 2829
0.06 -0.01 1.02 -0.81 9.94 -0.02 -0.01 0.00 2835
0.06 -0.00 1.00 -0.81 9.92 -0.03 -0.02 -0.00 2842
0.07 -0.01 1.01 -0.84 9.96 -0.03 -0.02 -0.00 2848
0.07 -0.01 1.04 -0.83 9.91 -0.03 -0.03 -0.00 2854
0.05 -0.01 1.03 -0.83 9.90 -0.04 -0.02 -0.01 2861
0.06 -0.00 1.05 -0.82 9.96 -0.04 -0.02 -0.01 2867
0.07 -0.01 1.00 -0.80 9.98 -0.05 -0.01 -0.01 2873
0.06 -0.01 0.99 -0.77 9.94 -0.04 -0.02 -0.01 2879
0.05 -0.01 0.92 -0.80 10.02 -0.03 -0.01 -0.01 2885
0.06 -0.01 1.01 -0.78 9.98 -0.02 -0.01 -0.00 2891
0.08 -0.01 1.00 -0.80 10.02 -0.02 -0.01 -0.00 2897
0.07 -0.01 0.99 -0.76 10.01 -0.02 -0.01 -0.00 2904
0.06 -0.01 1.01 -0.82 10.00 -0.02 -0.01 0.00 2911
0.07 -0.00 1.05 -0.78 9.96 -0.01 -0.01 0.01 2917
0.07 -0.01 1.02 -0.85 9.97 -0.01 -0.01 0.00 2923
0.07 -0.01 1.06 -0.83 9.98 -0.01 -0.02 0.00 2929
0.06 -0.01 1.02 -0.80 9.99 -0.02 -0.03 0.00 2935
0.07 -0.00 1.02 -0.80 10.01 -0.02 -0.03 -0.00 2941
0.08 -0.01 1.01 -0.79 9.99 -0.02 -0.03 -0.01 2948
0.06 -0.01 1.00 -0.82 10.06 -0.02 -0.04 -0.01 2954
0.06 -0.01 1.03 -0.82 10.00 -0.03 -0.04 -0.01 2960
0.07 0.00 1.04 -0.83 9.95 -0.04 -0.05 -0.01 2967
0.07 -0.01 1.06 -0.86 9.93 -0.05 -0.05 -0.01 2973
0.06 0.01 1.07 -0.85 9.95 -0.06 -0.05 -0.02 2979
0.05 0.01 0.99 -0.85 10.02 -0.05 -0.05 -0.02 2985
0.07 0.01 1.00 -0.79 10.01 -0.05 -0.05 -0.02 2992
0.06 0.02 0.97 -0.78 10.02 -0.05 -0.05 -0.02 2998
0.05 0.02 0.98 -0.79 10.04 -0.05 -0.04 -0.01 3004
0.06 0.05 1.00 -0.75 10.03 -0.04 -0.04 -0.01 3011
0.05 0.04 1.00 -0.79 10.04 -0.04 -0.03 -0.00 3017
0.05 0.02 1.03 -0.76 10.04 -0.03 -0.03 0.00 3023
0.05 0.04 1.03 -0.72 10.04 -0.02 -0.03 0.01 3030
0.06 0.02 1.01 -0.72 10.05 -0.01 -0.02 0.01 3036
0.05 0.01 1.04 -0.74 10.02 -0.00 -0.03 0.01 3043
0.05 0.03 1.03 -0.78 10.01 0.00 -0.03 0.01 3049
0.06 0.01 1.04 -0.80 10.01 0.01 -0.02 0.01 3055
0.05 0.00 1.08 -0.75 10.00 0.02 -0.02 0.01 3061
0.06 -0.00 1.05 -0.91 10.04 0.02 -0.01 0.01 3067
0.07 -0.01 1.17 -0.67 9.89 0.02 -0.01 0.03 3074
0.06 -0.01 1.17 -0.81 10.01 0.03 -0.00 0.02 3080
0.05 -0.00 1.05 -0.79 10.12 0.04 0.00 0.01 3086
0.06 -0.01 1.34 -0.80 10.10 0.05 -0.00 -0.01 3093
0.07 -0.01 1.31 -0.73 10.10 0.07 0.00 -0.02 3099
0.06 -0.01 1.31 -0.77 10.12 0.13 0.00 -0.04 3105
0.05 -0.01 1.39 -0.78 10.38 0.13 0.01 -0.07 3111
0.05 -0.00 1.56 -0.70 10.31 0.18 0.02 -0.11 3118
0.05 -0.00 1.32 -0.76 10.61 0.24 0.06 -0.15 3124
0.05 -0.00 1.34 -0.83 11.05 0.36 0.15 -0.20 3130
0.05 -0.00 0.84 -1.33 11.75 0.58 0.36 -0.23 3137
0.07 -0.01 1.70 -0.82 12.18 0.87 0.63 -0.25 3143
0.05 -0.00 1.56 -0.83 12.60 1.13 0.96 -0.31 3149
0.04 -0.00 1.17 -1.09 12.77 1.27 1.21 -0.34 3155
0.07 -0.01 1.27 -1.37 13.12 1.29 1.42 -0.33 3162
0.05 -0.01 1.54 -1.38 13.36 1.29 1.64 -0.31 3168
0.04 -0.00 0.74 -1.27 13.35 1.28 1.86 -0.28 3175
0.04 -0.00 1.24 -1.49 13.08 1.24 2.04 -0.25 3181
0.04 -0.00 1.27 -1.52 13.16 1.20 2.24 -0.23 3187
0.03 -0.00 1.58 -1.82 12.47 1.18 2.42 -0.21 3193
0.04 0.01 1.57 -1.77 13.13 1.16 2.56 -0.17 3200
0.04 -0.00 1.95 -1.96 13.55 1.14 2.70 -0.15 3206
0.04 -0.00 2.05 -1.77 13.76 1.07 2.82 -0.15 3213
0.04 -0.00 2.03 -1.81 13.64 0.99 2.92 -0.21 3219
0.05 -0.01 2.64 -1.73 13.10 0.92 3.06 -0.27 3225
0.05 -0.00 2.79 -1.54 12.78 0.87 3.19 -0.36 3231
0.05 -0.00 2.72 -2.15 12.79 0.87 3.37 -0.46 3237
0.05 -0.01 2.02 -2.67 12.21 0.93 3.52 -0.56 3244
0.04 -0.00 -0.56 -2.97 10.44 0.96 3.45 -0.66 3251
0.04 -0.00 -3.75 -2.32 8.85 0.92 3.06 -0.73 3257
0.05 -0.01 -6.21 -1.82 8.78 0.84 2.42 -0.90 3263
0.04 -0.00 -8.76 -2.00 8.55 0.76 1.55 -1.11 3269
0.04 -0.00 -22.19 1.47 13.70 0.54 0.37 -1.71 3275
0.05 -0.00 -15.59 1.49 11.61 0.14 -1.09 -2.49 3281
0.04 -0.00 -8.44 0.12 12.71 -0.15 -1.96 -2.89 3288
0.04 -0.00 -4.95 0.15 12.03 -0.45 -2.18 -3.06 3295
0.04 -0.00 -4.08 0.17 10.86 -0.58 -2.13 -3.29 3301
0.05 -0.00 -2.14 -0.42 8.57 -0.57 -2.08 -3.52 3307
0.03 -0.00 -1.22 -0.80 6.81 -0.44 -2.09 -3.62 3313
0.02 -0.00 -0.46 -0.53 7.42 -0.25 -2.10 -3.63 3319
0.03 -0.00 -0.54 -0.51 7.79 -0.06 -2.13 -3.54 3325
0.04 -0.00 -0.26 -0.05 8.64 0.11 -2.20 -3.37 3332
0.03 -0.00 0.66 0.80 10.89 0.19 -2.28 -3.12 3338
0.02 -0.00 2.11 1.85 12.56 0.19 -2.41 -2.80 3345
0.04 -0.00 3.32 2.46 12.84 0.06 -2.51 -2.45 3351
0.03 -0.00 4.22 2.86 13.03 -0.16 -2.55 -2.20 3357
0.02 -0.00 5.41 3.03 12.95 -0.42 -2.53 -1.89 3363
0.03 0.00 6.25 2.80 12.38 -0.68 -2.41 -1.57 3369
0.03 -0.00 6.38 2.24 11.36 -0.92 -2.20 -1.28 3376
0.03 -0.00 6.32 1.67 10.32 -1.07 -1.92 -1.03 3383
0.03 0.00 6.29 1.04 9.66 -1.14 -1.65 -0.79 3389
0.03 -0.00 5.93 0.48 8.99 -1.14 -1.40 -0.56 3395
0.03 -0.00 5.43 0.11 8.43 -1.09 -1.17 -0.34 3401
0.02 -0.00 4.78 -0.11 8.15 -1.02 -1.01 -0.14 3407
0.04 0.00 4.58 -0.14 7.94 -0.93 -0.88 0.03 3414
0.04 -0.00 4.27 -0.18 8.01 -0.85 -0.76 0.21 3420
0.03 -0.00 3.97 -0.29 8.27 -0.76 -0.67 0.38 3426
0.02 -0.00 3.62 -0.39 8.60 -0.69 -0.61 0.52 3432
0.04 -0.00 3.31 -0.44 8.89 -0.61 -0.58 0.63 3439
0.03 -0.00 3.05 -0.41 8.96 -0.55 -0.57 0.70 3445
0.04 -0.00 2.93 -0.31 9.03 -0.50 -0.58 0.73 3451
0.02 -0.00 3.02 -0.24 9.18 -0.46 -0.57 0.75 3458
0.03 0.00 3.38 -0.20 9.42 -0.44 -0.55 0.75 3464
0.03 -0.00 3.58 -0.08 9.67 -0.45 -0.49 0.74 3470
0.03 -0.00 3.59 -0.00 9.80 -0.49 -0.41 0.74 3476
0.02 -0.00 3.63 0.05 9.81 -0.54 -0.35 0.74 3482
0.03 -0.00 3.75 0.11 10.13 -0.60 -0.26 0.75 3488
0.04 -0.00 3.81 0.05 10.19 -0.68 -0.19 0.78 3495
0.04 -0.00 3.57 0.04 10.11 -0.76 -0.13 0.83 3502
0.04 -0.00 3.26 -0.08 10.02 -0.83 -0.10 0.88 3508
0.04 -0.00 3.12 -0.34 9.86 -0.90 -0.11 0.94 3514
0.04 -0.00 3.11 -0.59 9.88 -0.89 -0.12 1.01 3520
0.03 -0.00 3.16 -0.71 9.98 -0.90 -0.12 1.07 3526
0.03 -0.00 3.24 -0.77 10.04 -0.90 -0.11 1.12 3532
0.05 -0.01 3.26 -0.80 9.97 -0.92 -0.08 1.18 3538
0.04 -0.00 3.23 -0.90 9.92 -0.94 -0.05 1.21 3545
0.03 -0.00 3.33 -1.01 9.89 -0.95 -0.02 1.23 3552
0.03 -0.00 3.35 -1.10 9.90 -0.96 -0.00 1.25 3558
0.04 -0.00 3.45 -1.17 10.14 -0.97 0.02 1.24 3564
0.04 -0.00 3.68 -1.15 10.26 -0.99 0.05 1.24 3570
0.02 -0.00 3.74 -0.65 10.26 -1.03 0.10 1.22 3576
0.03 -0.00 3.93 -1.35 10.35 -1.07 0.15 1.19 3582
0.03 -0.00 4.10 -1.45 10.34 -1.10 0.22 1.17 3589
0.03 -0.00 4.14 -1.65 10.18 -1.13 0.28 1.15 3596
0.04 -0.00 4.18 -1.83 10.11 -1.15 0.35 1.13 3602
0.04 -0.00 4.01 -2.08 10.06 -1.16 0.40 1.12 3608
0.04 -0.00 3.58 -2.33 9.89 -1.16 0.40 1.11 3614
0.04 -0.00 2.47 -2.41 9.83 -1.16 0.36 1.10 3620
0.04 -0.00 2.60 -2.41 9.77 -1.17 0.25 1.09 3627
0.04 -0.00 2.39 -2.50 9.61 -1.19 0.12 1.06 3633
0.03 -0.00 2.35 -2.64 9.35 -1.21 -0.00 1.00 3639
0.03 -0.00 2.42 -2.77 9.08 -1.23 -0.10 0.90 3646
0.04 0.00 2.71 -2.88 8.57 -1.23 -0.13 0.77 3652
0.03 -0.00 2.77 -2.98 7.86 -1.20 -0.09 0.62 3658
0.04 -0.00 2.84 -4.45 7.00 -1.15 -0.04 0.46 3664
0.04 -0.00 4.74 -28.46 35.38 -0.29 0.95 0.42 3671
0.04 -0.00 7.29 -6.39 -2.09 0.67 1.75 0.36 3677
0.03 -0.00 3.24 -19.53 -3.55 0.91 1.21 0.16 3683
0.01 -0.00 -2.45 -32.02 6.98 1.57 -0.82 -0.44 3689
0.03 0.09 -5.39 -58.62 21.07 1.91 -1.99 -0.88 3696
0.03 0.13 7.14 -22.20 16.63 0.31 -1.03 -0.44 3702
0.04 0.14 5.11 -10.29 10.43 0.06 -0.18 0.09 3708
0.04 0.10 0.24 -3.02 9.42 0.04 -0.07 0.05 3715
0.04 0.07 -0.21 1.10 9.89 -0.01 0.07 0.18 3722
0.04 0.06 -0.27 1.30 9.81 -0.05 0.09 0.00 3728
0.06 0.10 0.02 -0.28 9.63 -0.10 0.11 -0.01 3734
0.04 0.13 0.80 -0.79 10.20 -0.13 0.15 0.09 3740
0.02 0.15 0.86 -1.20 10.32 -0.12 0.16 0.10 3746
0.04 0.24 0.74 -0.76 10.39 -0.09 0.12 0.10 3752
0.04 0.25 0.67 -0.58 10.05 -0.08 0.12 0.11 3760
0.03 0.28 0.82 -0.93 10.14 -0.08 0.12 0.10 3766
0.04 0.35 0.73 -0.79 10.24 -0.07 0.12 0.10 3772
0.04 0.33 0.90 -0.84 10.32 -0.06 0.12 0.10 3778
0.04 0.34 0.88 -0.76 10.14 -0.04 0.11 0.08 3784
0.07 0.36 0.89 -0.78 10.13 -0.04 0.10 0.07 3791
0.05 0.40 0.89 -0.70 10.06 -0.03 0.09 0.07 3798
0.04 0.41 0.75 -0.73 10.14 -0.02 0.09 0.07 3804
0.06 0.44 0.72 -0.70 10.09 -0.02 0.09 0.06 3810
0.05 0.45 0.74 -0.81 10.06 -0.01 0.10 0.06 3816
0.04 0.45 1.07 -0.83 10.03 -0.01 0.09 0.07 3823
0.06 0.48 0.86 -0.78 9.92 -0.02 0.09 0.07 3829
0.03 0.44 0.88 -0.74 9.88 -0.03 0.08 0.07 3835
0.02 0.42 0.94 -0.64 9.96 -0.03 0.07 0.07 3842
0.05 0.42 0.91 -0.69 9.99 -0.02 0.06 0.07 3848
0.03 0.40 0.85 -0.67 9.93 -0.02 0.05 0.07 3854
0.04 0.39 0.87 -0.68 9.94 -0.02 0.04 0.06 3860
0.04 0.43 0.91 -0.69 9.96 -0.02 0.03 0.07 3866
0.05 0.48 0.92 -0.69 10.00 -0.02 0.02 0.07 3873
0.04 0.47 0.91 -0.67 9.86 -0.02 0.02 0.07 3879
0.03 0.45 0.91 -0.69 10.00 -0.01 0.01 0.07 3886
0.04 0.48 0.88 -0.66 10.04 -0.01 0.01 0.07 3892
0.04 0.45 0.84 -0.69 9.98 -0.01 0.01 0.06 3898
0.03 0.44 0.81 -0.69 9.96 -0.02 0.01 0.06 3904
0.04 0.47 0.85 -0.74 9.98 -0.01 0.01 0.06 3911
0.03 0.47 0.85 -0.74 10.00 -0.01 0.02 0.06 3917
0.02 0.49 0.82 -0.73 9.97 -0.02 0.02 0.07 3923
0.03 0.50 0.83 -0.67 10.08 -0.02 0.03 0.07 3930
0.04 0.47 0.81 -0.68 9.97 -0.01 0.03 0.07 3936
0.04 0.46 0.89 -0.70 10.02 -0.01 0.03 0.07 3942
0.02 0.47 0.84 -0.67 10.07 -0.01 0.04 0.07 3949
0.03 0.46 0.85 -0.65 9.98 -0.01 0.05 0.07 3955
0.03 0.48 0.89 -0.68 9.98 -0.01 0.05 0.07 3961
0.03 0.47 0.91 -0.65 10.04 -0.00 0.06 0.06 3968
0.04 0.46 0.91 -0.67 9.99 -0.01 0.07 0.06 3974
0.02 0.48 0.89 -0.70 10.00 -0.00 0.07 0.06 3980
0.03 0.49 0.97 -0.65 10.05 -0.01 0.08 0.05 3986
0.02 0.51 0.96 -0.72 10.02 -0.01 0.08 0.06 3993
0.03 0.48 0.94 -0.70 10.03 -0.01 0.08 0.06 3999
0.04 0.46 0.95 -0.67 10.06 -0.00 0.08 0.05 4005
0.02 0.45 0.99 -0.72 9.96 -0.00 0.08 0.05 4012
0.04 0.44 0.98 -0.69 9.98 -0.00 0.07 0.05 4018
0.03 0.41 0.98 -0.68 9.99 -0.00 0.06 0.05 4024
0.02 0.41 1.04 -0.72 10.00 -0.01 0.06 0.05 4031
0.03 0.42 1.02 -0.71 9.98 -0.01 0.05 0.05 4037
0.03 0.42 1.03 -0.67 9.93 -0.01 0.04 0.04 4043
0.04 0.39 1.03 -0.72 9.93 -0.01 0.03 0.04 4049
0.02 0.40 1.03 -0.70 10.01 -0.01 0.03 0.04 4056
0.04 0.40 1.00 -0.70 10.00 -0.02 0.03 0.04 4062
0.03 0.40 1.03 -0.70 9.96 -0.02 0.02 0.03 4068
0.02 0.40 1.02 -0.72 10.00 -0.01 0.02 0.03 4075
0.03 0.40 1.03 -0.70 10.01 -0.01 0.02 0.03 4081
0.02 0.38 1.03 -0.71 9.99 -0.01 0.02 0.03 4087
0.02 0.35 1.05 -0.72 10.01 -0.01 0.02 0.02 4093
0.03 0.37 1.05 -0.69 9.96 -0.01 0.01 0.02 4100
0.04 0.36 1.07 -0.71 9.94 -0.01 0.00 0.02 4106
0.04 0.36 1.01 -0.71 9.96 -0.01 0.00 0.02 4112
0.04 0.35 1.07 -0.72 9.96 -0.02 -0.01 0.01 4119
0.05 0.35 1.02 -0.73 9.98 -0.02 -0.01 0.01 4125
0.03 0.35 1.07 -0.73 9.96 -0.02 -0.01 0.01 4131
0.02 0.34 1.06 -0.68 9.95 -0.02 -0.02 0.01 4137
0.03 0.36 1.06 -0.71 9.98 -0.02 -0.03 0.00 4144
0.03 0.35 1.07 -0.75 9.99 -0.02 -0.03 0.00 4150
0.03 0.34 1.05 -0.70 10.00 -0.02 -0.04 0.00 4156
0.03 0.34 1.06 -0.71 9.99 -0.03 -0.04 0.00 4163
0.04 0.34 1.06 -0.71 10.03 -0.02 -0.04 -0.00 4169
0.03 0.35 1.06 -0.70 10.02 -0.03 -0.04 0.00 4175
0.02 0.36 1.04 -0.74 10.01 -0.03 -0.03 -0.00 4182
0.05 0.39 1.03 -0.72 9.98 -0.03 -0.03 0.00 4188
0.04 0.37 1.04 -0.73 9.99 -0.03 -0.03 -0.00 4194
0.02 0.39 1.07 -0.77 9.92 -0.03 -0.03 -0.00 4201
0.03 0.42 1.08 -0.69 9.94 -0.03 -0.03 -0.00 4207
0.03 0.43 1.10 -0.63 9.98 -0.02 -0.03 -0.01 4213
0.02 0.38 1.07 -0.66 9.95 -0.02 -0.04 -0.01 4219
0.02 0.38 1.06 -0.64 9.97 -0.02 -0.05 -0.02 4226
0.03 0.40 1.08 -0.69 9.98 -0.02 -0.05 -0.02 4232
0.03 0.39 1.03 -0.69 9.95 -0.02 -0.06 -0.02 4238
0.02 0.36 1.07 -0.68 9.95 -0.01 -0.07 -0.02 4245
0.03 0.35 1.10 -0.71 9.99 -0.02 -0.07 -0.02 4251
0.03 0.35 1.05 -0.73 9.97 -0.02 -0.08 -0.02 4257
0.02 0.33 1.05 -0.73 9.99 -0.03 -0.08 -0.02 4263
0.03 0.34 1.03 -0.75 9.96 -0.02 -0.08 -0.02 4270
0.04 0.34 1.07 -0.74 9.98 -0.02 -0.08 -0.02 4276
0.02 0.35 1.07 -0.72 10.00 -0.02 -0.08 -0.02 4282
0.02 0.35 1.06 -0.69 10.05 -0.01 -0.08 -0.02 4289
0.04 0.37 1.05 -0.70 9.98 -0.01 -0.08 -0.01 4295
0.02 0.38 1.03 -0.68 9.96 -0.01 -0.08 -0.01 4301
0.02 0.37 1.03 -0.67 9.95 -0.01 -0.08 -0.01 4307
0.02 0.38 0.99 -0.68 9.92 -0.01 -0.07 -0.02 4314
0.03 0.35 1.03 -0.69 9.99 -0.01 -0.07 -0.01 4320
0.02 0.33 1.02 -0.66 10.01 -0.01 -0.07 -0.01 4326
0.03 0.35 1.04 -0.72 9.99 -0.01 -0.06 -0.01 4333
0.04 0.33 0.99 -0.73 10.00 -0.01 -0.05 -0.01 4339
0.03 0.29 0.99 -0.71 10.00 -0.00 -0.05 -0.00 4345
0.03 0.29 1.03 -0.69 9.98 -0.01 -0.05 -0.00 4352
0.04 0.30 0.97 -0.71 10.03 -0.00 -0.05 -0.00 4358
0.03 0.28 1.02 -0.72 10.00 -0.00 -0.05 0.00 4364
0.02 0.24 1.06 -0.71 10.11 -0.00 -0.05 0.00 4371
0.04 0.24 0.97 -0.71 9.98 -0.00 -0.05 0.01 4377
0.04 0.27 1.02 -0.73 10.02 -0.01 -0.05 0.01 4383
0.04 0.24 1.01 -0.72 10.06 -0.01 -0.05 0.01 4389
0.05 0.25 0.98 -0.67 10.03 -0.01 -0.05 0.01 4396
0.05 0.24 1.00 -0.70 10.03 -0.00 -0.05 0.01 4403
0.05 0.22 0.98 -0.72 10.00 -0.00 -0.05 0.01 4409
0.05 0.23 0.98 -0.73 10.00 -0.00 -0.04 0.01 4415
0.05 0.23 0.98 -0.72 9.99 -0.01 -0.04 0.02 4421
0.05 0.22 1.02 -0.72 9.98 -0.00 -0.04 0.02 4427
0.05 0.20 0.99 -0.72 9.96 -0.01 -0.04 0.02 4433
0.05 0.17 1.01 -0.67 9.99 -0.00 -0.03 0.03 4440
0.04 0.19 1.04 -0.66 10.00 0.00 -0.03 0.02 4447
0.03 0.16 1.13 -0.69 9.95 0.02 -0.03 0.02 4453
0.04 0.14 1.13 -0.66 10.00 0.03 -0.02 0.03 4459
0.05 0.05 1.11 -0.74 10.00 0.04 -0.02 0.02 4465
0.05 0.05 1.14 -0.79 10.10 0.04 -0.02 0.02 4471
0.05 0.02 1.11 -0.70 10.09 0.06 -0.02 0.02 4477
0.05 -0.00 1.47 -0.68 9.66 0.06 -0.03 0.01 4485
0.05 -0.01 1.03 -0.72 10.10 0.06 -0.03 -0.01 4491
0.05 -0.00 1.12 -0.72 10.01 0.08 -0.03 -0.02 4497
0.06 -0.01 1.26 -0.66 10.09 0.08 -0.03 -0.02 4503
0.05 -0.00 1.24 -1.11 10.05 0.10 -0.04 -0.04 4509
0.05 -0.00 1.12 -1.08 10.19 0.12 -0.04 -0.05 4515
0.05 -0.01 1.04 -0.86 10.07 0.14 -0.05 -0.05 4521
0.06 -0.01 0.94 -0.62 10.52 0.16 -0.05 -0.09 4528
0.06 -0.01 0.89 -0.82 10.23 0.22 -0.02 -0.13 4535
0.05 -0.00 0.91 -0.99 10.72 0.31 -0.01 -0.09 4541
0.06 -0.01 0.83 -0.97 11.13 0.43 0.06 -0.07 4547
0.05 -0.01 0.67 -1.07 12.04 0.62 0.20 -0.03 4553
0.04 -0.00 0.85 -1.08 13.41 0.90 0.53 -0.07 4559
0.05 -0.00 0.79 -1.13 13.68 1.19 0.92 -0.07 4566
0.04 -0.00 0.94 -1.27 14.44 1.43 1.23 -0.06 4572
0.04 -0.00 0.34 -1.55 14.14 1.58 1.48 -0.02 4579
0.04 -0.00 0.69 -1.56 13.33 1.63 1.69 0.05 4585
0.06 -0.01 0.77 -1.86 13.33 1.63 1.94 0.11 4591
0.04 -0.00 0.59 -2.14 13.71 1.63 2.16 0.20 4597
0.03 -0.00 0.29 -2.45 13.18 1.63 2.32 0.31 4603
0.05 0.00 0.22 -2.62 13.05 1.63 2.42 0.41 4610
0.04 -0.00 0.17 -2.77 13.34 1.64 2.51 0.52 4617
0.03 -0.00 0.47 -2.68 13.77 1.63 2.59 0.61 4623
0.05 0.00 0.56 -2.04 13.02 1.58 2.62 0.66 4629
0.05 -0.00 1.24 -2.01 13.15 1.54 2.67 0.68 4635
0.05 -0.00 1.60 -1.90 13.26 1.52 2.74 0.68 4641
0.05 0.00 1.64 -1.75 12.99 1.51 2.81 0.66 4647
0.04 -0.00 0.98 -1.84 11.75 1.52 2.88 0.63 4655
0.04 -0.00 -0.55 -1.80 10.84 1.51 2.87 0.60 4661
0.04 -0.00 -0.60 -1.59 10.36 1.46 2.77 0.56 4667
0.06 -0.01 -2.18 -0.11 9.35 1.37 2.52 0.43 4673
0.05 -0.00 -7.40 0.31 9.07 1.23 1.95 0.18 4679
0.03 -0.00 -12.62 1.93 9.88 1.01 0.99 -0.36 4685
0.04 -0.00 -19.79 3.32 14.10 0.57 -0.41 -1.18 4691
0.03 -0.00 -12.82 2.98 12.50 0.03 -1.80 -1.94 4699
0.03 -0.00 -7.34 1.46 12.94 -0.31 -2.46 -2.33 4705
0.04 0.01 -5.34 1.29 12.85 -0.51 -2.58 -2.67 4711
0.04 -0.00 -2.98 1.18 11.95 -0.60 -2.46 -3.06 4717
0.02 -0.00 -0.75 0.95 10.60 -0.63 -2.44 -3.36 4723
0.04 0.01 -0.17 1.12 10.05 -0.64 -2.44 -3.50 4730
0.03 -0.00 0.37 1.12 10.28 -0.63 -2.40 -3.48 4737
0.03 -0.00 0.72 0.98 10.98 -0.64 -2.30 -3.32 4743
0.03 0.00 1.26 1.02 11.22 -0.64 -2.20 -3.08 4749
0.02 -0.00 2.35 1.39 10.92 -0.69 -2.24 -2.73 4755
0.03 -0.00 3.09 1.56 10.81 -0.74 -2.41 -2.39 4761
0.03 0.01 3.85 1.44 10.21 -0.77 -2.59 -2.04 4768
0.02 -0.00 4.81 1.07 9.81 -0.76 -2.71 -1.70 4774
0.03 -0.00 5.53 0.63 9.62 -0.71 -2.72 -1.38 4781
0.03 0.00 6.38 0.30 9.51 -0.69 -2.63 -1.10 4787
0.03 -0.00 7.03 0.20 9.71 -0.62 -2.48 -0.83 4793
0.03 -0.00 7.58 0.24 9.96 -0.57 -2.21 -0.58 4799
0.03 -0.00 7.93 0.31 10.23 -0.56 -1.86 -0.35 4805
0.03 0.00 7.82 0.38 10.51 -0.60 -1.48 -0.08 4812
0.03 -0.00 7.39 0.17 9.95 -0.65 -1.12 0.20 4818
0.03 -0.00 6.70 -0.21 9.43 -0.69 -0.82 0.46 4825
0.02 -0.00 5.87 -0.79 8.84 -0.70 -0.61 0.71 4831
0.03 0.01 5.18 -1.17 8.30 -0.64 -0.50 0.93 4837
0.03 -0.00 4.42 -1.40 7.86 -0.54 -0.43 1.11 4843
0.03 -0.00 3.77 -1.54 7.58 -0.43 -0.41 1.21 4849
0.03 -0.00 3.29 -1.62 7.55 -0.32 -0.41 1.29 4855
0.03 -0.00 3.07 -1.64 7.77 -0.23 -0.39 1.33 4861
0.03 -0.00 2.89 -1.64 8.26 -0.18 -0.36 1.31 4869
0.03 -0.00 2.73 -1.62 8.81 -0.14 -0.31 1.26 4875
0.03 -0.00 2.59 -1.53 9.17 -0.12 -0.26 1.20 4881
0.04 -0.00 2.42 -1.46 9.55 -0.14 -0.22 1.15 4887
0.03 -0.00 2.36 -1.39 9.92 -0.18 -0.19 1.10 4893
0.03 -0.00 2.45 -1.28 10.50 -0.24 -0.18 1.05 4899
0.03 -0.00 2.50 -1.21 10.71 -0.34 -0.17 1.01 4905
0.04 -0.00 2.43 -1.08 10.63 -0.47 -0.18 1.00 4913
0.03 -0.00 2.22 -1.03 10.41 -0.55 -0.20 1.00 4919
0.03 -0.00 2.09 -1.05 9.85 -0.66 -0.26 1.00 4925
0.02 -0.00 1.95 -1.14 9.21 -0.73 -0.27 1.01 4931
0.04 -0.00 1.93 -1.27 8.77 -0.77 -0.30 1.00 4937
0.03 -0.00 1.98 -1.40 8.54 -0.78 -0.31 0.99 4943
0.03 -0.00 2.01 -1.49 8.30 -0.77 -0.29 0.97 4950
0.03 -0.00 2.10 -1.55 8.28 -0.75 -0.26 0.95 4956
0.03 -0.00 2.17 -1.50 8.45 -0.73 -0.20 0.93 4962
0.03 -0.00 2.25 -1.50 8.65 -0.71 -0.22 0.91 4968
0.03 -0.00 2.45 -1.50 8.80 -0.69 -0.20 0.90 4975
0.03 -0.00 2.72 -1.49 9.03 -0.67 -0.18 0.90 4981
0.04 -0.00 3.07 -1.49 9.38 -0.66 -0.15 0.89 4987
0.03 -0.00 3.51 -1.35 9.71 -0.68 -0.10 0.89 4994
0.02 -0.00 3.89 -1.36 9.95 -0.71 -0.02 0.90 5000
0.03 0.00 4.01 -1.64 10.04 -0.75 0.06 0.90 5006
0.03 -0.00 4.11 -1.92 10.14 -0.79 0.13 0.87 5012
0.02 -0.00 4.16 -2.24 10.35 -0.83 0.17 0.90 5018
0.02 -0.00 4.31 -2.48 10.54 -0.86 0.19 0.89 5025
0.03 -0.00 4.55 -2.68 10.77 -0.91 0.21 0.88 5031
0.02 -0.00 4.71 -2.85 10.66 -0.96 0.24 0.87 5038
0.03 -0.00 4.66 -3.03 10.37 -1.02 0.26 0.84 5044
0.04 -0.00 4.57 -3.24 10.08 -1.05 0.26 0.80 5050
0.02 -0.00 4.20 -3.50 9.70 -1.06 0.25 0.73 5056
0.02 -0.00 3.90 -3.60 9.13 -1.05 0.22 0.62 5062
0.02 -0.00 3.75 -3.63 8.85 -1.02 0.19 0.51 5068
0.04 -0.00 3.80 -3.56 8.66 -0.99 0.19 0.35 5075
0.03 -0.00 3.64 -3.58 8.73 -0.95 0.25 0.16 5082
0.03 -0.00 3.34 -3.58 8.92 -0.92 0.36 -0.03 5088
0.03 -0.00 2.71 -3.64 8.92 -0.90 0.47 -0.22 5094
0.04 -0.00 2.13 -3.74 8.93 -0.88 0.51 -0.41 5100
0.02 -0.00 1.51 -3.90 8.48 -0.86 0.48 -0.58 5106
0.03 -0.00 1.16 -4.24 7.83 -0.81 0.40 -0.70 5112
0.03 -0.00 1.37 -4.72 6.86 -0.73 0.32 -0.84 5118
0.04 -0.00 2.09 -5.26 5.87 -0.58 0.27 -0.97 5125
0.02 -0.00 2.93 -5.77 4.94 -0.41 0.29 -1.10 5132
0.03 -0.00 2.06 -24.39 3.78 -0.07 0.39 -1.09 5138
0.03 -0.00 5.59 -13.26 7.12 1.87 0.98 -0.82 5144
0.03 -0.00 -2.25 -13.64 2.86 2.26 -0.44 -0.98 5150
0.03 -0.00 -5.71 -63.65 38.98 0.48 -3.74 -1.54 5156
0.04 0.01 -6.48 5.97 8.79 0.03 0.29 -0.68 5163
0.06 0.02 -0.21 -10.86 11.55 -0.22 -0.10 0.10 5170
0.06 0.01 1.13 -3.00 10.61 -0.20 0.04 0.02 5176
0.04 0.02 -0.05 0.35 10.34 -0.04 0.12 0.02 5182
0.05 -0.00 0.46 -0.36 9.86 -0.09 0.14 0.05 5188
0.05 0.00 0.59 -0.14 10.22 -0.07 0.13 0.06 5194
0.04 0.02 0.63 -0.17 9.91 -0.09 0.14 0.09 5200
0.05 0.02 0.58 -0.49 10.37 -0.07 0.13 0.10 5208
0.05 0.04 0.74 -1.17 10.25 -0.07 0.10 0.12 5214
0.06 0.02 1.07 -1.38 10.11 -0.06 0.07 0.12 5220
0.08 0.05 0.95 -1.02 10.08 -0.05 0.04 0.12 5226
0.06 0.04 0.59 -0.57 9.87 -0.05 0.04 0.11 5232
0.06 0.04 0.50 -0.80 10.06 -0.06 0.06 0.10 5238
0.07 0.07 0.74 -1.01 10.07 -0.05 0.08 0.10 5245
0.06 0.10 0.68 -0.97 10.03 -0.05 0.09 0.10 5252
0.05 0.10 0.68 -0.86 9.97 -0.04 0.10 0.11 5258
0.07 0.11 0.82 -0.77 10.08 -0.04 0.11 0.11 5264
0.06 0.11 0.89 -0.76 10.04 -0.03 0.11 0.09 5270
0.05 0.10 1.03 -0.81 9.94 -0.04 0.10 0.08 5277
0.07 0.11 0.94 -0.79 9.98 -0.05 0.09 0.06 5283
0.07 0.08 0.91 -0.78 9.97 -0.05 0.08 0.06 5289
0.07 0.11 0.85 -0.82 9.99 -0.05 0.07 0.06 5296
0.07 0.15 0.82 -0.82 10.16 -0.04 0.06 0.06 5302
0.08 0.15 0.86 -0.77 10.12 -0.04 0.05 0.06 5308
0.06 0.18 0.85 -0.79 10.01 -0.03 0.05 0.06 5314
0.05 0.18 0.89 -0.76 10.11 -0.03 0.04 0.07 5321
0.07 0.18 0.94 -0.73 10.04 -0.02 0.03 0.06 5327
0.06 0.15 0.90 -0.73 9.94 -0.01 0.03 0.06 5334
0.06 0.15 0.89 -0.72 10.02 -0.01 0.02 0.05 5340
0.08 0.15 0.88 -0.74 10.04 -0.00 0.02 0.05 5346
0.08 0.11 0.85 -0.74 9.98 0.00 0.02 0.05 5352
0.06 0.10 0.84 -0.76 10.03 0.01 0.02 0.05 5359
0.07 0.09 0.79 -0.78 10.05 0.01 0.03 0.05 5365
0.07 0.07 0.84 -0.79 9.92 0.01 0.03 0.05 5371
0.07 0.08 0.78 -0.79 10.02 0.01 0.03 0.05 5378
0.08 0.07 0.82 -0.77 10.00 0.01 0.04 0.06 5384
0.10 0.06 0.77 -0.76 9.99 0.01 0.03 0.06 5390
0.08 0.05 0.82 -0.79 9.93 0.01 0.04 0.06 5396
0.08 0.03 0.89 -0.79 9.93 0.01 0.04 0.07 5403
0.09 0.07 0.85 -0.82 9.97 0.01 0.04 0.07 5409
0.10 0.06 0.90 -0.80 9.95 0.00 0.04 0.07 5415
0.09 0.06 0.88 -0.77 9.91 -0.00 0.04 0.07 5422
0.08 0.06 0.94 -0.75 9.96 -0.00 0.04 0.06 5428
0.09 0.07 0.98 -0.80 9.98 -0.00 0.05 0.06 5434
0.09 0.06 0.90 -0.81 9.98 -0.01 0.05 0.06 5440
0.09 0.05 0.91 -0.77 10.05 -0.01 0.05 0.06 5446
0.08 0.07 0.91 -0.77 9.98 -0.00 0.05 0.06 5453
0.10 0.06 0.92 -0.78 9.98 0.00 0.05 0.05 5459
0.08 0.05 0.92 -0.77 9.98 0.00 0.06 0.06 5466
0.06 0.04 0.90 -0.76 10.03 0.00 0.06 0.06 5472
0.07 0.04 0.89 -0.81 9.97 0.00 0.06 0.05 5478
0.08 0.02 0.97 -0.79 9.97 0.00 0.06 0.06 5484
0.07 0.02 0.99 -0.80 9.95 0.00 0.06 0.06 5490
0.04 0.01 0.96 -0.82 9.95 0.00 0.05 0.06 5496
0.05 0.04 0.97 -0.80 9.97 -0.00 0.05 0.06 5504
0.06 0.02 0.99 -0.82 9.94 -0.01 0.04 0.06 5510
0.06 0.00 1.02 -0.81 9.96 -0.01 0.03 0.05 5516
0.05 0.02 1.00 -0.76 9.98 -0.02 0.03 0.05 5522
0.07 0.03 1.02 -0.80 10.00 -0.02 0.03 0.04 5528
0.08 0.02 1.00 -0.81 9.98 -0.03 0.02 0.04 5534
0.05 0.02 1.00 -0.77 9.96 -0.03 0.02 0.04 5540
0.05 0.03 1.01 -0.78 9.97 -0.03 0.02 0.04 5547
0.06 0.02 1.01 -0.80 9.99 -0.03 0.02 0.04 5554
0.07 0.02 1.05 -0.80 9.98 -0.03 0.01 0.03 5560
0.05 0.02 1.04 -0.78 9.98 -0.03 0.01 0.03 5566
0.06 0.05 1.06 -0.76 9.97 -0.03 0.00 0.03 5572
0.05 0.03 1.05 -0.81 9.93 -0.03 0.00 0.02 5578
0.05 0.05 1.03 -0.77 9.95 -0.03 0.00 0.02 5584
0.04 0.06 1.05 -0.74 9.92 -0.03 -0.00 0.02 5591
0.05 0.07 1.03 -0.77 9.94 -0.03 0.00 0.01 5597
0.05 0.06 1.03 -0.81 9.96 -0.04 0.00 0.01 5603
0.05 0.06 1.07 -0.78 9.97 -0.04 0.01 0.01 5610
0.05 0.07 1.01 -0.74 9.96 -0.03 0.01 0.01 5616
0.06 0.09 1.03 -0.79 10.02 -0.03 0.01 0.01 5622
0.04 0.08 1.06 -0.82 9.95 -0.04 0.01 0.01 5628
0.04 0.08 1.03 -0.81 9.99 -0.03 0.01 0.01 5635
0.04 0.09 1.07 -0.79 9.94 -0.03 0.00 0.00 5641
0.05 0.08 1.07 -0.78 9.96 -0.03 -0.00 0.00 5647
0.03 0.09 1.11 -0.82 9.95 -0.03 -0.01 -0.00 5653
0.03 0.06 1.12 -0.75 9.94 -0.03 -0.02 -0.00 5660
0.04 0.10 1.09 -0.74 9.94 -0.03 -0.03 -0.01 5666
0.05 0.10 1.12 -0.78 9.95 -0.03 -0.04 -0.01 5672
0.05 0.09 1.09 -0.76 9.95 -0.02 -0.04 -0.01 5679
0.04 0.11 1.10 -0.78 9.95 -0.03 -0.05 -0.02 5685
0.06 0.10 1.08 -0.77 9.98 -0.03 -0.05 -0.02 5691
0.04 0.13 1.13 -0.73 9.96 -0.03 -0.05 -0.02 5697
0.04 0.11 1.10 -0.80 9.96 -0.04 -0.06 -0.02 5704
0.04 0.10 1.08 -0.74 9.95 -0.04 -0.06 -0.02 5710
0.04 0.10 1.04 -0.80 9.96 -0.04 -0.06 -0.02 5716
0.04 0.09 1.07 -0.75 9.98 -0.04 -0.06 -0.02 5723
0.04 0.12 1.04 -0.77 9.97 -0.04 -0.05 -0.01 5729
0.05 0.15 1.05 -0.79 10.01 -0.03 -0.05 -0.01 5735
0.04 0.12 1.06 -0.78 10.05 -0.03 -0.05 -0.01 5741
0.03 0.14 1.04 -0.77 10.04 -0.03 -0.04 -0.01 5748
0.04 0.13 1.04 -0.73 10.04 -0.02 -0.04 -0.01 5754
0.04 0.14 1.07 -0.75 9.98 -0.02 -0.04 -0.00 5761
0.02 0.14 1.08 -0.77 9.96 -0.02 -0.04 -0.00 5767
0.04 0.15 1.03 -0.75 9.99 -0.02 -0.04 -0.00 5773
0.04 0.13 1.05 -0.76 10.03 -0.02 -0.04 -0.00 5779
0.03 0.11 1.03 -0.81 9.97 -0.02 -0.04 -0.00 5786
0.04 0.12 1.06 -0.79 9.97 -0.02 -0.04 -0.00 5792
0.05 0.10 1.02 -0.77 10.00 -0.02 -0.03 0.00 5798
0.04 0.13 1.03 -0.75 9.98 -0.02 -0.02 0.00 5805
0.04 0.12 1.02 -0.75 9.96 -0.02 -0.01 0.00 5811
0.05 0.13 1.06 -0.79 9.96 -0.02 -0.01 0.00 5817
0.05 0.11 1.08 -0.72 9.99 -0.02 -0.01 0.01 5823
0.04 0.11 1.09 -0.72 10.00 -0.02 -0.01 0.01 5830
0.04 0.12 1.11 -0.73 9.98 -0.02 -0.01 0.01 5836
0.04 0.14 1.12 -0.78 9.99 -0.02 -0.02 0.01 5842
0.03 0.13 1.08 -0.72 10.00 -0.01 -0.02 0.01 5849
0.02 0.14 1.09 -0.73 10.00 -0.01 -0.02 0.01 5855
0.05 0.14 1.12 -0.77 9.98 -0.01 -0.02 0.01 5861
0.05 0.11 1.15 -0.69 10.00 -0.01 -0.03 0.00 5867
0.02 0.10 1.14 -0.76 9.99 -0.01 -0.02 -0.00 5874
0.04 0.11 1.14 -0.71 10.04 -0.01 -0.03 0.00 5880
0.04 0.08 1.10 -0.67 9.96 -0.01 -0.02 0.00 5886
0.04 0.05 1.12 -0.73 10.00 -0.01 -0.02 0.00 5893
0.04 0.06 1.15 -0.82 9.35 -0.01 -0.01 0.00 5899
0.05 0.04 1.08 -0.75 10.03 -0.01 -0.02 0.01 5905
0.04 0.04 1.09 -0.75 10.06 -0.01 -0.02 0.01 5912
0.04 0.03 1.13 -0.77 10.03 -0.01 -0.02 0.01 5918
0.05 0.02 1.23 -0.87 9.98 -0.00 -0.03 0.01 5924
0.04 0.02 1.14 -0.75 10.04 -0.00 -0.04 0.01 5931
0.02 0.03 1.18 -0.73 10.00 0.00 -0.04 0.01 5937
0.03 0.03 0.62 -0.82 9.99 0.01 -0.05 0.01 5943
0.04 0.02 1.12 -0.81 10.04 0.02 -0.06 0.01 5949
0.04 -0.00 1.14 -0.78 9.98 0.03 -0.06 0.01 5956
0.04 0.00 1.22 -0.78 10.03 0.04 -0.07 0.01 5962
0.04 -0.00 1.16 -0.80 10.02 0.05 -0.07 0.00 5968
0.04 -0.00 1.20 -0.81 10.04 0.05 -0.07 -0.00 5975
0.02 -0.00 1.10 -0.86 10.00 0.07 -0.06 -0.01 5981
0.04 -0.00 0.67 -0.84 10.07 0.07 -0.06 -0.02 5987
0.04 -0.00 1.09 -0.81 9.22 0.08 -0.05 -0.02 5993
0.03 -0.00 1.27 -0.88 10.28 0.10 -0.02 -0.04 5999
0.03 -0.00 1.06 -0.92 9.40 0.12 0.05 -0.05 6005
0.03 0.01 1.12 -1.00 10.56 0.17 0.20 -0.03 6012
0.05 -0.00 1.05 -0.93 11.25 0.22 0.40 -0.04 6019
0.04 -0.00 0.97 -0.81 11.48 0.34 0.74 -0.04 6025
0.04 -0.00 0.95 -1.07 12.25 0.47 1.07 -0.06 6031
0.04 -0.00 1.02 -1.81 12.10 0.62 1.36 -0.04 6037
0.04 -0.00 1.03 -1.20 12.30 0.72 1.65 -0.03 6043
0.03 -0.00 1.45 -1.24 12.44 0.79 1.84 -0.02 6050
0.05 0.00 1.45 -1.34 12.22 0.81 1.95 -0.02 6056
0.04 -0.00 1.64 -1.33 12.50 0.82 2.02 -0.01 6063
0.05 -0.00 2.02 -1.25 12.58 0.84 2.12 -0.02 6069
0.04 0.00 2.00 -1.22 12.82 0.85 2.20 -0.02 6075
0.04 -0.00 2.04 -1.20 12.95 0.85 2.25 -0.05 6081
0.04 -0.00 2.24 -1.06 12.76 0.85 2.31 -0.10 6087
0.04 -0.00 2.46 -0.92 12.62 0.82 2.36 -0.16 6094
0.06 -0.01 2.82 -0.98 12.42 0.78 2.40 -0.22 6100
0.04 -0.00 3.08 -1.02 12.83 0.76 2.47 -0.30 6107
0.03 -0.00 3.28 -1.21 11.99 0.75 2.56 -0.38 6113
0.05 -0.00 3.05 -1.31 11.15 0.75 2.65 -0.46 6119
0.04 -0.00 2.54 -1.18 10.73 0.76 2.68 -0.51 6125
0.03 -0.00 1.56 -1.73 10.35 0.77 2.61 -0.56 6132
0.04 0.00 -0.53 -1.95 9.82 0.83 2.44 -0.64 6138
0.04 -0.00 -5.11 -1.74 9.70 0.83 2.08 -0.79 6145
0.03 -0.00 -7.38 -1.16 8.60 0.82 1.49 -1.00 6151
0.04 -0.00 -15.29 0.38 9.87 0.74 0.53 -1.28 6157
0.06 -0.01 -12.61 0.55 11.50 0.57 -0.59 -1.64 6163
0.04 -0.00 -8.47 1.03 11.73 0.36 -1.54 -1.84 6169
0.03 -0.00 -5.44 1.49 13.32 0.20 -1.99 -1.96 6176
0.05 -0.01 -3.05 1.66 12.89 0.09 -2.05 -2.09 6182
0.04 -0.00 -1.33 1.56 11.97 0.03 -2.03 -2.19 6189
0.04 -0.00 -0.02 1.64 11.29 -0.03 -1.99 -2.19 6195
0.04 -0.00 0.72 1.87 11.29 -0.05 -1.90 -2.11 6201
0.05 -0.00 1.07 2.10 11.30 -0.05 -1.88 -1.97 6207
0.04 -0.00 1.33 2.31 11.27 -0.05 -1.85 -1.80 6214
0.03 -0.00 1.98 2.56 11.36 -0.06 -1.83 -1.63 6220
0.04 -0.00 2.85 2.86 10.99 -0.10 -1.85 -1.39 6226
0.03 -0.00 3.37 3.11 10.78 -0.15 -1.86 -1.14 6233
0.02 -0.00 3.96 3.01 10.40 -0.20 -1.83 -0.92 6239
0.03 -0.00 4.54 2.74 9.93 -0.24 -1.76 -0.72 6245
0.03 -0.00 4.80 2.43 9.71 -0.26 -1.66 -0.53 6251
0.03 -0.00 4.88 2.11 9.32 -0.24 -1.56 -0.36 6258
0.03 -0.00 4.79 1.90 9.07 -0.21 -1.44 -0.19 6264
0.04 -0.00 4.82 1.73 8.98 -0.16 -1.32 -0.06 6270
0.03 -0.00 4.85 1.75 9.24 -0.12 -1.19 0.09 6277
0.04 0.00 4.93 1.74 9.44 -0.10 -1.04 0.25 6283
0.03 -0.00 4.87 1.52 9.48 -0.10 -0.85 0.39 6289
0.05 -0.00 4.56 1.29 9.47 -0.11 -0.69 0.53 6295
0.04 -0.00 4.18 1.03 9.45 -0.12 -0.58 0.64 6301
0.04 -0.00 3.66 0.83 9.68 -0.13 -0.52 0.72 6307
0.04 -0.00 3.17 0.72 9.90 -0.14 -0.52 0.79 6313
0.05 -0.00 3.03 0.71 10.34 -0.17 -0.54 0.84 6321
0.03 -0.00 3.10 0.67 10.70 -0.23 -0.53 0.87 6327
0.03 -0.00 3.18 0.58 10.83 -0.30 -0.50 0.88 6333
0.04 0.00 2.93 0.30 10.76 -0.41 -0.45 0.88 6339
0.03 -0.00 2.71 -0.04 10.62 -0.51 -0.42 0.87 6345
0.03 -0.00 2.30 -0.40 10.29 -0.58 -0.41 0.86 6351
0.04 -0.00 2.06 -0.77 9.93 -0.62 -0.43 0.85 6358
0.04 -0.00 1.94 -1.03 9.79 -0.64 -0.46 0.84 6365
0.04 -0.00 1.93 -1.14 9.75 -0.65 -0.48 0.83 6371
0.03 -0.00 2.00 -1.17 9.61 -0.65 -0.48 0.84 6377
0.04 -0.00 2.06 -1.06 9.48 -0.65 -0.48 0.84 6383
0.05 -0.00 2.17 -0.93 9.36 -0.64 -0.48 0.85 6389
0.03 -0.00 2.24 -0.83 9.42 -0.66 -0.46 0.86 6395
0.03 -0.00 2.28 -0.81 9.37 -0.68 -0.46 0.88 6402
0.03 -0.00 2.18 -0.78 9.09 -0.71 -0.46 0.89 6408
0.05 -0.00 2.12 -0.75 8.71 -0.72 -0.47 0.90 6414
0.03 -0.00 2.14 -0.78 8.58 -0.72 -0.50 0.91 6421
0.04 -0.00 2.28 -0.86 8.66 -0.72 -0.52 0.90 6427
0.03 -0.00 2.50 -0.92 8.88 -0.72 -0.54 0.89 6433
0.04 -0.00 2.68 -0.97 8.95 -0.73 -0.55 0.88 6439
0.03 -0.00 3.04 -0.99 9.26 -0.75 -0.56 0.87 6446
0.04 -0.00 3.46 -1.07 9.59 -0.76 -0.56 0.87 6452
0.03 -0.00 3.79 -1.11 9.81 -0.79 -0.53 0.88 6458
0.04 -0.00 4.03 -1.23 9.74 -0.82 -0.49 0.90 6464
0.04 -0.00 4.27 -1.38 9.52 -0.85 -0.44 0.93 6470
0.03 -0.00 4.37 -1.68 9.33 -0.85 -0.38 0.96 6476
0.03 -0.00 4.51 -1.85 9.28 -0.84 -0.32 0.99 6483
0.05 -0.01 4.38 -1.97 9.16 -0.82 -0.26 1.04 6490
0.04 -0.00 4.29 -2.13 9.07 -0.77 -0.20 1.09 6496
0.04 -0.00 4.16 -2.21 8.94 -0.78 -0.16 1.14 6502
0.03 -0.00 3.97 -2.31 8.80 -0.75 -0.12 1.18 6508
0.05 -0.01 3.87 -2.45 8.59 -0.72 -0.09 1.21 6514
0.03 -0.00 3.80 -2.69 8.59 -0.67 -0.05 1.22 6520
0.03 -0.00 3.49 -3.03 8.70 -0.62 -0.04 1.22 6526
0.03 -0.00 3.05 -3.23 8.76 -0.54 -0.05 1.19 6533
0.03 -0.00 2.83 -3.37 8.81 -0.52 -0.10 1.14 6539
0.03 -0.00 2.64 -3.59 8.92 -0.48 -0.16 1.07 6546
0.04 -0.00 2.34 -3.66 9.18 -0.44 -0.24 0.99 6552
0.03 -0.00 2.51 -3.69 9.44 -0.41 -0.32 0.87 6558
0.05 -0.00 2.85 -3.74 9.48 -0.41 -0.37 0.73 6564
0.04 -0.00 3.25 -3.68 9.58 -0.43 -0.39 0.59 6571
0.03 -0.00 3.78 -3.62 9.64 -0.45 -0.39 0.45 6577
0.03 -0.00 4.17 -3.50 9.32 -0.49 -0.36 0.32 6583
0.05 -0.00 4.40 -3.31 8.73 -0.52 -0.32 0.20 6589
0.04 -0.00 4.72 -3.07 8.21 -0.55 -0.27 0.11 6595
0.04 -0.00 4.73 -2.87 7.57 -0.55 -0.22 0.01 6601
0.03 -0.00 4.79 -2.76 6.90 -0.54 -0.18 -0.06 6608
0.05 -0.01 4.94 -2.61 6.48 -0.52 -0.14 -0.13 6615
0.04 -0.00 11.35 -22.33 7.58 -0.39 0.17 -0.17 6621
0.03 -0.00 12.69 -7.22 3.13 1.17 1.52 -0.22 6627
0.04 -0.00 4.51 -8.11 -7.29 1.22 1.51 -0.22 6633
0.03 0.00 -0.02 -32.89 7.76 1.84 0.77 -0.22 6639
0.03 0.05 -3.36 -38.16 2.66 2.68 -1.26 -0.58 6646
0.02 0.17 7.45 -2.90 23.63 1.16 -2.04 -0.55 6652
0.04 0.19 3.09 -3.35 5.54 -0.13 0.13 0.23 6659
0.02 0.25 -0.54 -3.32 11.40 -0.10 -0.04 0.06 6665
0.03 0.20 0.15 -0.37 10.32 -0.10 0.03 0.07 6671
0.06 0.20 0.52 -0.10 9.38 -0.05 0.09 0.07 6678
0.06 0.19 0.77 -0.18 9.83 -0.05 0.11 0.06 6684
0.05 0.28 0.96 -0.14 10.06 -0.06 0.13 0.10 6690
0.05 0.32 0.68 -0.97 10.51 -0.04 0.13 0.09 6696
0.04 0.36 0.89 -0.92 10.12 -0.02 0.11 0.09 6703
0.05 0.36 1.03 -0.80 9.84 -0.01 0.11 0.09 6709
0.05 0.32 0.89 -0.97 9.91 -0.03 0.10 0.08 6716
0.04 0.39 0.73 -1.10 9.99 -0.04 0.09 0.09 6722
0.04 0.42 0.74 -0.92 10.03 -0.05 0.10 0.10 6728
0.06 0.45 0.90 -0.97 10.08 -0.05 0.11 0.10 6734
0.04 0.47 0.89 -0.82 10.09 -0.04 0.11 0.10 6740
0.05 0.46 0.94 -0.58 10.15 -0.04 0.09 0.10 6747
0.07 0.51 0.94 -0.63 10.06 -0.04 0.08 0.08 6754
0.04 0.50 0.88 -0.66 9.92 -0.03 0.07 0.08 6760
0.02 0.53 0.95 -0.71 10.05 -0.03 0.06 0.06 6766
0.05 0.53 0.91 -0.80 10.06 -0.03 0.05 0.06 6772
0.04 0.59 0.88 -0.78 9.99 -0.02 0.04 0.06 6778
0.02 0.58 0.80 -0.78 9.97 -0.02 0.03 0.06 6785
0.03 0.54 0.90 -0.80 10.06 -0.02 0.03 0.06 6792
0.03 0.57 0.86 -0.79 9.96 -0.02 0.02 0.06 6798
0.03 0.58 0.95 -0.75 9.97 -0.02 0.01 0.07 6804
0.03 0.60 0.91 -0.79 9.98 -0.02 0.01 0.06 6810
0.04 0.60 0.88 -0.79 10.04 -0.02 -0.00 0.06 6816
0.02 0.63 0.86 -0.76 9.96 -0.02 -0.00 0.06 6822
0.02 0.64 0.84 -0.76 10.01 -0.02 -0.00 0.06 6829
0.04 0.64 0.87 -0.68 9.93 -0.01 -0.00 0.06 6836
0.02 0.66 0.85 -0.76 9.98 -0.02 -0.00 0.05 6842
0.01 0.65 0.83 -0.74 9.97 -0.01 -0.00 0.05 6848
0.02 0.66 0.88 -0.76 9.96 -0.01 -0.00 0.05 6854
0.03 0.65 0.88 -0.75 9.97 -0.01 0.00 0.04 6860
0.02 0.64 0.83 -0.77 9.98 -0.00 0.01 0.04 6866
0.02 0.62 0.84 -0.76 10.00 -0.01 0.01 0.05 6873
0.03 0.63 0.84 -0.75 9.97 -0.01 0.01 0.05 6880
0.02 0.61 0.87 -0.76 9.98 -0.00 0.02 0.05 6886
0.03 0.61 0.87 -0.75 9.94 -0.00 0.03 0.05 6892
0.01 0.63 0.87 -0.73 9.99 -0.00 0.03 0.05 6898
0.02 0.62 0.89 -0.77 9.96 -0.00 0.04 0.04 6904
0.02 0.61 0.89 -0.76 9.94 -0.00 0.04 0.05 6910
0.01 0.59 0.92 -0.79 10.02 -0.01 0.04 0.04 6917
0.03 0.60 0.91 -0.75 9.97 -0.01 0.04 0.04 6923
0.01 0.59 0.90 -0.76 10.02 -0.01 0.04 0.04 6930
0.01 0.57 0.92 -0.75 10.05 -0.01 0.04 0.04 6936
0.02 0.57 0.97 -0.73 9.99 -0.01 0.03 0.04 6942
0.02 0.55 0.99 -0.75 9.98 -0.01 0.03 0.04 6948
0.02 0.54 0.95 -0.73 9.94 -0.01 0.03 0.03 6955
0.01 0.54 0.95 -0.75 10.01 -0.01 0.02 0.04 6961
0.04 0.54 0.93 -0.76 9.95 -0.01 0.02 0.03 6968
0.03 0.53 0.97 -0.76 9.98 -0.01 0.02 0.03 6974
0.02 0.52 0.97 -0.80 10.01 -0.01 0.02 0.02 6980
0.02 0.54 0.99 -0.78 9.95 -0.01 0.02 0.03 6986
0.02 0.50 0.97 -0.79 9.96 -0.02 0.02 0.02 6992
0.03 0.51 0.97 -0.78 10.00 -0.01 0.02 0.02 6999
0.02 0.50 1.00 -0.75 9.95 -0.01 0.01 0.03 7005
0.04 0.48 1.00 -0.76 9.97 -0.01 0.02 0.02 7012
0.03 0.47 1.01 -0.74 9.94 -0.01 0.01 0.02 7018
0.02 0.46 1.00 -0.76 9.97 -0.01 0.01 0.01 7024
0.02 0.46 1.02 -0.75 9.94 -0.01 0.01 0.01 7030
0.03 0.47 1.03 -0.76 10.00 -0.01 0.01 0.01 7036
0.02 0.44 1.01 -0.77 9.94 -0.01 0.01 0.01 7043
0.02 0.44 1.02 -0.80 9.92 -0.01 0.01 0.01 7049
0.04 0.42 1.03 -0.78 9.92 -0.01 0.01 0.01 7055
0.02 0.41 1.06 -0.78 9.95 -0.01 0.00 0.02 7062
0.02 0.38 1.06 -0.78 9.91 -0.00 -0.00 0.01 7068
0.02 0.39 1.07 -0.74 9.87 0.00 -0.01 0.01 7074
0.03 0.37 1.06 -0.76 9.93 0.01 -0.02 0.01 7080
0.03 0.33 1.06 -0.76 9.92 0.00 -0.03 0.00 7087
0.02 0.28 1.00 -0.74 9.95 0.00 -0.03 -0.00 7093
0.03 0.33 1.03 -0.76 9.95 0.01 -0.03 -0.00 7099
0.03 0.29 1.07 -0.84 9.94 0.00 -0.03 0.00 7105
0.03 0.31 1.04 -0.85 9.97 -0.00 -0.04 -0.00 7112
0.03 0.31 1.03 -0.80 9.93 -0.01 -0.03 0.00 7118
0.04 0.31 1.05 -0.81 9.94 -0.01 -0.04 0.00 7124
0.03 0.27 1.02 -0.75 9.94 -0.01 -0.04 0.00 7131
0.03 0.25 1.05 -0.80 9.96 -0.01 -0.04 0.00 7137
0.03 0.27 1.03 -0.76 9.98 -0.01 -0.05 0.01 7143
0.04 0.27 0.98 -0.78 9.97 -0.00 -0.04 0.00 7149
0.03 0.25 1.07 -0.76 9.99 -0.01 -0.04 0.00 7156
0.03 0.23 1.03 -0.82 9.95 -0.00 -0.04 0.00 7162
0.03 0.24 1.01 -0.79 9.97 0.00 -0.04 0.00 7169
0.04 0.23 1.02 -0.84 10.04 -0.00 -0.04 0.01 7175
0.04 0.20 1.03 -0.83 9.93 -0.00 -0.05 0.01 7181
0.03 0.19 1.05 -0.75 9.96 -0.00 -0.04 0.00 7187
0.07 0.21 1.03 -0.79 9.95 -0.00 -0.04 0.00 7193
0.06 0.17 1.05 -0.79 9.94 -0.00 -0.05 0.00 7199
0.04 0.15 1.03 -0.76 9.99 -0.00 -0.05 0.01 7206
0.05 0.13 1.00 -0.75 9.95 0.00 -0.05 0.00 7213
0.06 0.12 1.05 -0.76 9.93 0.00 -0.05 0.00 7219
0.05 0.09 1.03 -0.79 10.00 -0.00 -0.05 -0.00 7225
0.05 0.08 0.99 -0.81 10.03 -0.01 -0.05 -0.00 7231
0.07 0.10 1.02 -0.84 9.96 -0.01 -0.05 0.00 7237
0.06 0.10 1.01 -0.82 10.02 -0.01 -0.04 0.00 7243
0.06 0.06 1.03 -0.81 9.98 -0.01 -0.04 0.00 7250
0.07 0.06 1.02 -0.80 10.02 -0.01 -0.05 0.01 7257
0.07 0.03 1.00 -0.79 9.99 -0.00 -0.04 0.01 7263
0.06 0.04 1.05 -0.83 10.01 -0.00 -0.04 0.00 7269
0.06 0.06 1.03 -0.81 9.99 -0.00 -0.07 0.00 7275
0.07 0.07 1.01 -0.85 10.03 -0.00 -0.03 0.00 7281
0.06 0.06 1.00 -0.82 10.00 -0.00 -0.03 0.01 7287
0.05 0.06 1.03 -0.77 10.00 -0.00 -0.02 0.01 7294
0.06 0.03 0.99 -0.80 9.99 -0.00 -0.02 0.01 7301
0.06 0.02 0.99 -0.81 10.00 -0.00 -0.02 0.01 7307
0.06 0.01 1.02 -0.81 10.01 0.00 -0.02 0.01 7313
0.05 0.03 1.05 -0.78 9.98 0.03 -0.02 0.01 7319
0.08 0.02 1.04 -0.83 10.03 -0.00 -0.02 0.01 7325
0.07 -0.01 1.01 -0.85 10.06 0.00 -0.02 0.02 7331
0.06 0.00 1.04 -0.84 9.99 -0.00 -0.03 0.02 7339
0.07 0.01 1.06 -0.84 10.01 0.00 -0.03 0.02 7345
0.07 -0.00 1.04 -0.81 10.03 -0.00 -0.03 0.02 7351
0.05 -0.00 1.07 -0.78 10.03 0.00 -0.03 0.02 7357
0.05 0.01 1.12 -0.80 10.05 0.01 -0.04 0.02 7363
0.07 0.01 1.11 -0.79 10.00 0.01 -0.04 0.02 7369
0.05 -0.01 1.11 -0.86 10.00 0.02 -0.05 0.01 7376
0.06 0.00 1.16 -0.83 10.04 0.02 -0.05 -0.01 7383
0.05 -0.01 1.14 -0.90 10.18 0.02 -0.06 -0.02 7389
0.05 -0.01 1.19 -0.63 10.10 0.03 -0.06 -0.03 7395
0.05 -0.01 1.11 -0.86 9.97 0.04 -0.05 -0.04 7401
0.05 0.00 1.21 -0.67 10.12 0.06 -0.05 -0.05 7407
0.06 -0.01 1.12 -0.81 10.04 0.07 -0.05 -0.06 7413
0.05 -0.01 1.27 -0.95 10.09 0.09 -0.05 -0.08 7420
0.06 -0.00 1.38 -0.83 10.11 0.12 -0.06 -0.10 7427
0.06 -0.01 1.42 -0.84 10.41 0.16 -0.06 -0.14 7433
0.06 -0.01 1.55 -0.65 10.27 0.23 -0.06 -0.19 7439
0.06 -0.01 1.57 -0.72 10.97 0.35 -0.03 -0.26 7445
0.06 -0.01 1.85 -0.54 11.58 0.58 0.09 -0.36 7451
0.04 -0.00 2.06 -0.72 12.31 0.93 0.37 -0.45 7457
0.05 -0.00 1.79 -0.72 12.64 1.19 0.83 -0.53 7464
0.05 -0.01 1.84 -0.90 13.92 1.29 1.27 -0.56 7471
0.04 -0.00 1.89 -1.09 14.06 1.28 1.66 -0.60 7477
0.03 -0.00 1.44 -0.95 13.53 1.21 2.04 -0.63 7483
0.05 0.01 1.30 -1.46 13.59 1.16 2.26 -0.66 7489
0.05 -0.00 1.52 -1.40 13.47 1.08 2.48 -0.66 7495
0.04 -0.00 1.41 -1.22 13.07 0.99 2.61 -0.64 7502
0.04 0.00 1.24 -1.65 13.00 0.89 2.72 -0.61 7508
0.05 -0.00 1.49 -2.25 13.11 0.81 2.80 -0.58 7515
0.04 -0.00 1.50 -2.71 13.28 0.76 2.88 -0.56 7521
0.04 -0.00 1.53 -2.79 12.59 0.75 2.92 -0.54 7527
0.05 -0.01 1.12 -3.18 12.24 0.81 2.93 -0.53 7533
0.04 -0.00 -0.13 -3.83 11.85 0.88 2.91 -0.58 7540
0.03 -0.00 -4.54 -4.64 12.60 0.95 2.79 -0.74 7546
0.05 -0.00 -9.84 -3.18 12.85 1.01 2.41 -1.05 7553
0.04 -0.00 -12.61 -1.40 12.42 0.97 1.54 -1.40 7559
0.04 -0.00 -12.47 -0.19 11.70 0.74 0.38 -1.58 7565
0.06 -0.01 -11.49 0.51 11.94 0.43 -0.58 -1.60 7572
0.04 -0.00 -9.56 0.49 12.44 0.17 -1.47 -1.63 7578
0.04 -0.00 -6.64 -0.43 11.70 0.10 -1.99 -1.76 7584
0.05 -0.01 -4.03 -0.89 10.59 0.17 -2.18 -1.85 7590
0.04 -0.00 -2.29 -0.43 10.51 0.27 -2.18 -1.95 7597
0.03 -0.00 -1.50 0.74 10.91 0.35 -2.08 -2.03 7603
0.04 -0.00 -0.87 1.73 11.49 0.36 -1.99 -2.04 7610
0.04 -0.00 -0.04 2.58 12.15 0.28 -1.91 -1.99 7616
0.03 -0.00 0.70 3.17 12.19 0.19 -1.81 -1.89 7622
0.03 0.00 1.14 3.36 11.76 0.04 -1.70 -1.73 7628
0.04 -0.00 1.51 3.45 11.08 -0.10 -1.61 -1.55 7634
0.03 -0.00 1.95 3.48 10.50 -0.21 -1.54 -1.35 7641
0.04 -0.00 2.28 3.41 10.15 -0.27 -1.50 -1.15 7648
0.04 -0.00 2.57 3.21 9.20 -0.31 -1.46 -0.98 7654
0.03 -0.00 2.92 3.12 9.48 -0.32 -1.40 -0.77 7660
0.02 -0.00 3.33 3.19 9.35 -0.32 -1.34 -0.57 7666
0.03 -0.00 3.68 3.23 9.59 -0.32 -1.27 -0.37 7672
0.03 -0.00 3.99 3.26 9.75 -0.34 -1.17 -0.17 7678
0.03 -0.00 4.10 3.28 9.85 -0.38 -1.08 0.03 7685
0.03 -0.00 4.01 3.11 9.70 -0.43 -0.98 0.21 7691
0.03 -0.00 4.10 2.73 10.28 -0.47 -0.89 0.35 7697
0.03 -0.00 3.63 2.47 9.11 -0.49 -0.83 0.50 7704
0.04 -0.00 3.38 2.33 8.70 -0.48 -0.79 0.63 7710
0.03 -0.00 3.18 2.40 8.49 -0.45 -0.76 0.74 7716
0.03 -0.00 3.13 2.68 8.21 -0.41 -0.75 0.82 7723
0.04 -0.00 3.18 2.99 8.35 -0.38 -0.73 0.87 7729
0.04 -0.00 3.20 3.21 8.47 -0.38 -0.68 0.92 7735
0.03 -0.00 3.25 3.28 9.00 -0.39 -0.61 0.96 7741
0.04 -0.00 3.02 3.18 9.09 -0.43 -0.54 0.99 7747
0.04 -0.00 2.81 3.08 9.45 -0.46 -0.50 1.02 7753
0.04 -0.00 2.76 2.88 9.79 -0.51 -0.48 1.04 7759
0.02 -0.00 2.74 2.66 10.03 -0.56 -0.47 1.06 7767
0.03 -0.00 2.79 2.29 10.04 -0.63 -0.49 1.07 7773
0.03 -0.00 2.90 1.95 10.08 -0.68 -0.52 1.07 7779
0.03 -0.00 3.17 1.53 10.41 -0.73 -0.54 1.07 7785
0.03 -0.00 3.35 1.18 10.39 -0.77 -0.55 1.05 7791
0.04 -0.00 3.45 0.80 10.09 -0.81 -0.55 1.03 7797
0.03 -0.00 3.43 0.43 9.68 -0.83 -0.55 0.99 7803
0.02 -0.00 3.49 0.00 9.47 -0.84 -0.56 0.95 7810
0.02 -0.00 3.49 -0.34 9.27 -0.82 -0.56 0.87 7817
0.03 -0.00 3.51 -0.64 9.02 -0.78 -0.55 0.86 7823
0.03 -0.00 3.48 -0.86 8.81 -0.73 -0.53 0.80 7829
0.02 -0.00 3.64 -1.00 9.08 -0.67 -0.50 0.74 7835
0.03 -0.00 3.84 -0.97 9.49 -0.64 -0.45 0.71 7841
0.04 -0.00 3.97 -1.07 9.71 -0.62 -0.39 0.68 7847
0.03 -0.00 4.08 -1.25 9.81 -0.62 -0.31 0.67 7854
0.01 -0.00 4.25 -1.52 10.02 -0.64 -0.23 0.68 7860
0.02 -0.00 4.49 -2.02 10.14 -0.65 -0.16 0.71 7867
0.03 -0.00 4.50 -2.60 10.07 -0.66 -0.11 0.75 7873
0.02 -0.00 4.37 -3.05 9.81 -0.64 -0.08 0.80 7879
0.03 -0.00 4.38 -3.37 9.90 -0.62 -0.08 0.86 7885
0.03 -0.00 4.39 -3.45 10.22 -0.60 -0.13 0.93 7891
0.03 -0.00 4.23 -3.65 10.22 -0.60 -0.13 1.01 7898
0.02 -0.00 4.16 -3.72 9.96 -0.61 -0.18 1.10 7904
0.03 -0.00 4.17 -3.88 9.67 -0.63 -0.21 1.13 7910
0.03 -0.00 4.25 -4.04 9.51 -0.62 -0.22 1.17 7917
0.02 -0.00 4.20 -4.12 9.38 -0.61 -0.18 1.19 7923
0.02 -0.00 3.94 -4.09 9.14 -0.60 -0.13 1.20 7929
0.03 0.00 3.52 -3.97 8.85 -0.58 -0.08 1.18 7936
0.04 -0.00 3.26 -3.85 9.03 -0.56 -0.04 1.16 7942
0.03 -0.00 3.03 -3.83 9.33 -0.54 -0.01 1.14 7948
0.03 -0.00 2.89 -3.71 9.43 -0.54 0.02 1.12 7954
0.03 -0.00 2.85 -3.68 9.47 -0.55 0.02 1.11 7960
0.04 -0.00 2.81 -3.87 9.37 -0.56 0.00 1.09 7966
0.03 -0.00 2.69 -4.16 9.15 -0.55 -0.05 1.05 7972
0.02 -0.00 2.68 -4.33 8.97 -0.52 -0.11 1.00 7980
0.03 -0.00 2.92 -4.43 8.76 -0.47 -0.18 0.92 7986
0.04 -0.00 3.24 -4.46 8.75 -0.42 -0.22 0.84 7992
0.03 -0.00 3.44 -4.50 8.50 -0.37 -0.22 0.72 7998
0.03 -0.00 3.32 -4.54 7.87 -0.30 -0.20 0.57 8004
0.03 -0.00 3.32 -4.44 7.42 -0.20 -0.15 0.39 8010
0.03 -0.00 3.63 -4.22 7.60 -0.15 -0.04 0.18 8016
0.03 -0.00 3.76 -4.19 7.78 -0.09 0.06 -0.03 8023
0.02 -0.00 3.69 -4.44 7.65 -0.03 0.22 -0.20 8029
0.03 0.00 3.55 -4.90 7.16 0.01 0.37 -0.39 8036
0.04 -0.00 3.32 -5.68 5.60 0.09 0.50 -0.56 8042
0.02 -0.00 5.64 -22.07 5.54 0.42 0.69 -0.63 8048
0.03 -0.00 9.33 -9.63 7.27 1.87 1.76 -0.53 8054
0.03 -0.00 -4.06 -26.16 22.83 2.19 0.83 -0.65 8060
0.03 -0.00 4.71 -41.75 -9.67 0.36 -0.96 -0.83 8067
0.04 0.00 -10.52 -5.66 9.75 -0.27 0.42 -0.11 8073
0.06 0.02 5.16 -11.60 12.45 -0.42 0.06 0.32 8080
0.05 0.01 0.58 0.08 9.97 -0.19 0.08 0.04 8086
0.04 0.03 -0.45 0.03 9.85 -0.21 0.14 0.09 8092
0.04 0.03 0.70 0.23 10.06 -0.20 0.14 0.10 8098
0.06 0.06 0.57 -0.42 10.45 -0.18 0.12 0.11 8104
0.04 0.13 1.01 -0.56 10.72 -0.13 0.11 0.12 8112
0.06 0.16 1.20 -0.95 10.53 -0.07 0.08 0.09 8118
0.05 0.15 0.80 -0.81 10.11 -0.00 0.06 0.08 8124
0.05 0.12 0.57 -0.65 9.86 -0.02 0.06 0.07 8130
0.07 0.11 1.21 -0.97 9.89 -0.02 0.07 0.08 8136
0.08 0.12 0.78 -1.12 10.15 -0.02 0.07 0.08 8142
0.07 0.11 0.87 -0.91 10.04 -0.01 0.07 0.07 8150
0.09 0.12 0.89 -0.78 10.15 -0.02 0.06 0.06 8156
0.08 0.11 0.94 -0.84 10.13 -0.01 0.05 0.04 8162
0.08 0.09 0.96 -0.84 10.10 -0.01 0.04 0.04 8168
0.08 0.10 0.83 -0.84 10.01 -0.00 0.03 0.04 8174
0.09 0.11 0.81 -0.93 10.06 -0.00 0.03 0.04 8180
0.10 0.08 0.78 -0.86 9.98 -0.00 0.02 0.04 8187
0.10 0.08 0.80 -0.84 10.03 -0.01 0.01 0.04 8194
0.13 0.07 0.77 -0.88 9.91 -0.01 0.01 0.04 8200
0.10 0.08 0.81 -0.87 9.94 -0.01 0.00 0.04 8206
0.08 0.08 0.84 -0.85 9.98 -0.02 -0.01 0.04 8212
0.10 0.08 0.79 -0.86 9.97 -0.02 -0.01 0.04 8218
0.12 0.06 0.84 -0.83 10.04 -0.02 -0.01 0.04 8224
0.11 0.06 0.85 -0.83 10.00 -0.01 -0.02 0.03 8231
0.11 0.06 0.78 -0.84 10.05 -0.00 -0.01 0.03 8238
0.13 0.05 0.77 -0.83 9.99 -0.00 -0.01 0.03 8244
0.13 0.02 0.82 -0.82 10.02 0.00 -0.01 0.03 8250
0.13 0.04 0.76 -0.82 10.08 0.00 -0.01 0.03 8256
0.16 0.00 0.79 -0.84 9.98 0.01 -0.01 0.04 8262
0.15 0.02 0.80 -0.85 10.01 0.01 -0.01 0.03 8269
0.15 -0.00 0.77 -0.85 9.98 0.01 -0.02 0.04 8275
0.18 0.02 0.74 -0.83 10.01 0.01 -0.01 0.04 8282
0.18 0.01 0.78 -0.85 10.02 0.01 -0.01 0.04 8288
0.19 -0.01 0.77 -0.86 9.99 0.02 -0.01 0.04 8294
0.19 0.00 0.79 -0.83 9.96 0.01 -0.01 0.04 8300
0.22 -0.01 0.78 -0.85 9.95 0.01 -0.01 0.04 8306
0.22 -0.02 0.82 -0.85 9.93 0.01 -0.01 0.04 8313
0.21 -0.02 0.80 -0.89 9.94 0.01 -0.02 0.04 8320
0.21 -0.01 0.75 -0.90 9.97 0.00 -0.02 0.04 8326
0.21 -0.02 0.82 -0.89 10.00 0.00 -0.01 0.04 8332
0.22 -0.02 0.80 -0.84 9.95 0.00 -0.01 0.04 8338
0.21 -0.02 0.78 -0.88 9.97 0.00 -0.01 0.04 8344
0.23 -0.01 0.82 -0.85 10.00 -0.00 -0.01 0.04 8350
0.22 -0.01 0.77 -0.86 10.00 -0.01 -0.01 0.04 8357
0.22 -0.01 0.82 -0.86 9.92 -0.01 -0.01 0.04 8364
0.23 0.00 0.80 -0.88 10.01 -0.01 -0.01 0.05 8370
0.22 -0.01 0.84 -0.84 9.98 -0.01 -0.01 0.05 8376
0.22 -0.01 0.83 -0.85 9.96 -0.01 -0.00 0.04 8382
0.22 0.00 0.85 -0.85 9.98 -0.01 -0.00 0.04 8388
0.23 -0.00 0.81 -0.87 9.94 -0.01 -0.01 0.05 8394
0.22 -0.01 0.83 -0.88 9.98 -0.01 -0.01 0.04 8401
0.21 -0.00 0.81 -0.85 9.95 -0.01 -0.01 0.04 8408
0.22 0.01 0.86 -0.82 9.96 -0.01 -0.00 0.04 8414
0.22 -0.01 0.84 -0.85 9.97 -0.01 -0.00 0.04 8420
0.22 -0.01 0.85 -0.86 10.00 -0.01 0.00 0.04 8426
0.22 0.01 0.86 -0.85 9.98 -0.01 -0.00 0.04 8432
0.21 0.00 0.83 -0.88 9.98 -0.01 0.00 0.04 8438
0.20 0.00 0.82 -0.87 9.98 -0.01 0.00 0.04 8444
0.18 -0.00 0.84 -0.86 9.98 -0.01 0.01 0.04 8452
0.19 0.01 0.85 -0.84 9.93 -0.01 0.01 0.04 8458
0.17 -0.00 0.89 -0.85 10.00 -0.01 0.01 0.04 8464
0.16 -0.02 0.82 -0.84 9.94 -0.02 0.01 0.04 8470
0.15 0.01 0.86 -0.87 9.98 -0.02 0.02 0.05 8476
0.15 0.02 0.84 -0.82 9.96 -0.02 0.02 0.04 8482
0.14 0.02 0.88 -0.85 9.95 -0.02 0.02 0.05 8488
0.13 0.01 0.85 -0.85 9.97 -0.02 0.02 0.05 8496
0.14 0.03 0.84 -0.86 10.01 -0.02 0.02 0.05 8502
0.14 0.02 0.86 -0.85 10.00 -0.02 0.02 0.04 8508
0.12 -0.01 0.87 -0.85 9.99 -0.02 0.02 0.05 8514
0.11 0.00 0.85 -0.85 10.02 -0.02 0.03 0.05 8520
0.13 0.01 0.89 -0.86 9.98 -0.02 0.03 0.05 8526
0.11 0.00 0.88 -0.81 9.99 -0.01 0.03 0.05 8532
0.10 0.01 0.88 -0.80 9.97 -0.01 0.03 0.05 8540
0.10 0.03 0.92 -0.82 9.98 -0.02 0.03 0.05 8546
0.10 0.01 0.91 -0.86 9.94 -0.02 0.03 0.04 8552
0.08 0.01 0.91 -0.84 9.99 -0.02 0.03 0.05 8558
0.07 0.01 0.90 -0.85 9.96 -0.02 0.03 0.05 8564
0.07 0.01 0.91 -0.85 10.01 -0.02 0.02 0.05 8570
0.06 0.01 0.83 -0.84 9.97 -0.01 0.02 0.05 8577
0.06 0.00 0.91 -0.82 9.96 -0.01 0.01 0.04 8583
0.05 0.01 0.96 -0.81 9.97 -0.02 0.01 0.04 8590
0.07 0.00 0.95 -0.84 10.01 -0.02 0.01 0.04 8596
0.06 -0.00 0.93 -0.82 9.96 -0.02 0.00 0.03 8602
0.06 0.00 0.98 -0.83 9.95 -0.02 -0.03 0.03 8608
0.06 0.03 0.90 -0.83 9.96 -0.02 0.01 0.02 8614
0.07 0.02 0.95 -0.85 9.94 -0.03 0.00 0.02 8621
0.07 0.01 0.97 -0.84 9.91 -0.03 0.00 0.02 8627
0.05 0.02 0.93 -0.88 9.98 -0.03 0.00 0.02 8633
0.06 0.04 0.96 -0.83 9.96 -0.03 0.00 0.02 8639
0.08 0.03 0.94 -0.82 9.98 -0.03 -0.00 0.02 8646
0.08 0.02 0.97 -0.85 9.97 -0.03 -0.03 0.02 8652
0.07 0.03 0.94 -0.78 9.95 -0.03 -0.00 0.01 8658
0.09 0.04 0.98 -0.81 9.98 -0.02 -0.00 0.01 8665
0.08 0.04 0.96 -0.83 9.97 -0.03 -0.01 0.02 8671
0.07 0.03 0.95 -0.84 9.99 -0.02 -0.01 0.01 8677
0.08 0.04 0.94 -0.81 9.99 -0.02 -0.01 0.01 8683
0.09 0.05 0.96 -0.86 9.96 -0.02 -0.01 0.01 8689
0.06 0.03 0.95 -0.86 9.98 -0.02 -0.01 0.01 8696
0.05 0.03 0.95 -0.87 9.95 -0.02 -0.01 0.01 8702
0.07 0.03 1.02 -0.83 9.99 -0.03 -0.01 0.01 8709
0.08 0.05 0.97 -0.82 9.99 -0.03 -0.02 0.01 8715
0.07 0.05 1.00 -0.82 9.99 -0.02 -0.01 0.01 8721
0.06 0.04 1.00 -0.84 10.02 -0.02 -0.02 0.01 8727
0.07 0.05 0.99 -0.84 10.00 -0.02 -0.02 0.01 8733
0.07 0.05 1.00 -0.83 9.99 -0.02 -0.02 0.01 8740
0.06 0.05 0.98 -0.84 10.01 -0.02 -0.02 0.01 8747
0.06 0.09 0.96 -0.88 9.97 -0.02 -0.03 0.01 8753
0.06 0.09 0.96 -0.82 9.97 -0.02 -0.03 0.01 8759
0.07 0.08 1.01 -0.85 10.00 -0.02 -0.03 0.00 8765
0.05 0.07 1.03 -0.85 9.96 -0.02 -0.04 -0.00 8771
0.07 0.08 1.01 -0.82 10.00 -0.01 -0.03 -0.00 8777
0.05 0.08 1.05 -0.82 10.01 -0.01 -0.03 -0.00 8784
0.04 0.08 1.04 -0.80 10.04 -0.01 -0.03 -0.00 8791
0.05 0.09 1.02 -0.80 10.00 -0.01 -0.03 -0.01 8797
0.06 0.06 1.03 -0.90 10.06 -0.01 -0.03 -0.01 8803
0.04 0.05 1.18 -0.84 10.03 -0.01 -0.02 -0.01 8809
0.05 0.06 1.14 -0.88 10.01 -0.00 -0.02 -0.01 8815
0.05 0.01 1.00 -0.68 9.97 0.00 -0.01 -0.01 8822
0.04 0.01 1.01 -0.89 9.98 0.01 0.00 -0.01 8828
0.04 0.02 1.32 -0.86 10.12 0.01 0.00 -0.01 8835
0.05 -0.01 1.13 -0.86 10.04 0.03 0.01 -0.01 8841
0.04 -0.00 1.36 -0.91 10.02 0.03 0.01 -0.02 8847
0.04 -0.00 0.67 -0.84 10.06 0.05 0.01 -0.03 8853
0.05 -0.01 1.30 -0.99 10.03 0.07 0.01 -0.04 8859
0.05 -0.01 0.97 -0.94 10.06 0.10 0.00 -0.05 8865
0.05 -0.00 1.17 -0.97 10.14 0.13 -0.00 -0.07 8872
0.05 -0.00 1.32 -0.79 10.15 0.17 0.00 -0.09 8879
0.06 -0.01 1.16 -1.01 10.21 0.22 0.02 -0.11 8885
0.04 -0.00 1.25 -0.83 10.64 0.30 0.06 -0.14 8891
0.04 -0.00 1.58 -0.93 10.60 0.46 0.19 -0.16 8897
0.05 -0.00 1.63 -0.94 11.93 0.66 0.39 -0.19 8903
0.05 -0.01 1.46 -0.90 14.08 0.90 0.60 -0.22 8910
0.04 -0.00 1.22 -1.78 12.42 1.18 0.92 -0.24 8916
0.05 0.00 1.58 -0.87 13.74 1.38 1.18 -0.29 8923
0.05 -0.00 1.55 -1.08 12.92 1.45 1.45 -0.34 8929
0.04 -0.00 1.55 -1.21 13.19 1.44 1.70 -0.35 8935
0.03 -0.00 1.41 -1.43 13.46 1.40 1.97 -0.35 8941
0.05 -0.01 1.86 -1.25 13.52 1.36 2.22 -0.36 8948
0.05 -0.01 1.96 -0.95 13.35 1.32 2.46 -0.38 8954
0.04 -0.00 2.49 -1.07 13.52 1.26 2.72 -0.42 8961
0.06 -0.01 2.71 -1.05 14.19 1.20 2.99 -0.46 8967
0.04 -0.00 2.42 -1.04 13.90 1.06 3.17 -0.52 8973
0.03 -0.00 2.13 -1.40 14.35 0.90 3.35 -0.58 8979
0.05 0.00 2.72 -2.08 13.96 0.77 3.56 -0.65 8986
0.05 -0.00 2.38 -1.94 13.78 0.72 3.74 -0.75 8992
0.04 -0.00 1.83 -2.43 12.99 0.73 3.90 -0.81 8998
0.05 -0.00 0.41 -2.73 11.58 0.75 3.89 -0.82 9005
0.05 -0.00 0.25 -2.90 10.02 0.77 3.71 -0.78 9011
0.04 -0.00 -1.81 -3.35 9.64 0.78 3.42 -0.74 9017
0.05 -0.00 -7.46 -2.05 10.24 0.79 2.88 -0.91 9023
0.05 -0.00 -11.20 -0.92 10.06 0.73 1.88 -1.30 9030
0.04 -0.00 -17.28 -0.09 10.91 0.53 0.77 -1.76 9036
0.05 -0.00 -19.46 2.05 11.29 0.10 -0.85 -2.39 9042
0.04 -0.00 -12.03 0.87 11.86 -0.28 -2.02 -2.75 9049
0.03 -0.00 -7.45 -0.33 11.25 -0.51 -2.55 -2.93 9055
0.03 -0.00 -5.85 -0.83 10.25 -0.50 -2.64 -3.17 9062
0.04 -0.00 -4.38 -1.56 8.10 -0.36 -2.60 -3.42 9068
0.04 -0.00 -3.36 -1.38 6.28 -0.14 -2.68 -3.56 9074
0.03 -0.00 -2.74 -0.77 6.54 0.13 -2.85 -3.59 9080
0.05 -0.00 -1.62 0.54 10.12 0.28 -2.98 -3.47 9086
0.04 -0.00 0.56 2.30 14.76 0.36 -2.99 -3.21 9093
0.04 -0.00 1.94 3.34 16.44 0.22 -2.85 -2.84 9099
0.05 0.00 3.61 4.30 16.26 -0.11 -2.68 -2.50 9106
0.04 -0.00 4.76 4.49 14.75 -0.57 -2.53 -2.16 9112
0.04 -0.00 5.38 3.99 12.97 -1.01 -2.36 -1.79 9118
0.04 -0.00 5.41 2.85 11.21 -1.31 -2.22 -1.42 9124
0.04 -0.00 5.26 1.60 9.97 -1.41 -2.14 -1.11 9131
0.03 -0.00 5.07 0.34 8.91 -1.32 -2.08 -0.83 9137
0.03 -0.00 5.13 -0.28 8.04 -1.16 -2.01 -0.56 9143
0.04 -0.00 5.31 -0.28 7.53 -0.93 -1.91 -0.29 9150
0.04 -0.00 5.34 -0.15 7.75 -0.74 -1.84 -0.07 9156
0.04 -0.00 5.02 -0.08 8.09 -0.59 -1.72 0.11 9162
0.03 -0.00 4.60 -0.05 8.34 -0.47 -1.63 0.28 9168
0.04 -0.00 4.30 0.12 9.19 -0.37 -1.53 0.41 9175
0.04 -0.00 4.83 0.49 10.09 -0.33 -1.44 0.51 9181
0.04 -0.00 5.30 0.88 11.49 -0.33 -1.26 0.58 9187
0.03 -0.00 5.69 1.22 12.51 -0.43 -1.03 0.65 9193
0.05 -0.01 5.74 1.29 12.79 -0.62 -0.75 0.70 9200
0.04 -0.00 5.07 1.14 12.49 -0.86 -0.52 0.73 9206
0.03 -0.00 4.27 0.54 12.00 -1.08 -0.39 0.76 9212
0.04 -0.00 3.56 -0.16 11.08 -1.22 -0.37 0.77 9219
0.04 -0.00 3.00 -0.92 9.94 -1.27 -0.44 0.76 9225
0.03 -0.00 2.89 -1.52 9.08 -1.26 -0.51 0.73 9231
0.04 -0.00 3.04 -2.01 8.58 -1.20 -0.54 0.70 9237
0.04 -0.00 3.23 -2.36 8.40 -1.11 -0.53 0.66 9243
0.04 -0.00 3.46 -2.46 8.53 -1.01 -0.46 0.65 9250
0.04 -0.00 3.54 -2.45 8.50 -0.91 -0.37 0.64 9256
0.04 -0.00 3.36 -2.45 8.50 -0.83 -0.28 0.67 9263
0.05 -0.01 3.13 -2.40 8.44 -0.75 -0.20 0.72 9269
0.03 -0.00 2.99 -2.37 8.76 -0.67 -0.14 0.79 9275
0.04 -0.00 2.88 -2.23 9.33 -0.60 -0.08 0.88 9281
0.03 -0.00 2.69 -2.19 9.73 -0.55 -0.01 0.97 9287
0.03 -0.00 2.42 -1.99 10.06 -0.53 0.08 1.09 9293
0.04 -0.00 2.06 -1.77 10.51 -0.54 0.16 1.21 9299
0.03 -0.00 1.38 -1.64 10.76 -0.58 0.20 1.33 9307
0.03 -0.00 0.62 -1.60 10.61 -0.63 0.20 1.44 9313
0.03 -0.00 -0.01 -1.68 10.07 -0.67 0.14 1.53 9319
0.03 -0.00 -0.34 -1.72 9.59 -0.69 0.05 1.58 9325
0.03 -0.00 -0.50 -1.74 9.39 -0.67 -0.04 1.59 9331
0.03 -0.00 -0.34 -1.81 9.18 -0.65 -0.12 1.57 9337
0.03 -0.00 -0.16 -1.83 9.30 -0.64 -0.17 1.49 9344
0.02 -0.00 0.11 -1.87 9.40 -0.63 -0.21 1.39 9350
0.02 -0.00 0.35 -1.86 9.58 -0.63 -0.25 1.26 9357
0.03 -0.00 0.49 -1.92 9.67 -0.64 -0.28 1.11 9363
0.04 -0.00 0.77 -2.02 9.89 -0.65 -0.31 0.97 9369
0.03 -0.00 1.08 -2.19 10.09 -0.66 -0.33 0.81 9375
0.04 -0.00 1.21 -2.41 10.23 -0.67 -0.37 0.69 9381
0.05 -0.00 1.49 -2.46 10.31 -0.68 -0.40 0.55 9388
0.04 -0.00 2.07 -2.45 10.64 -0.69 -0.41 0.42 9394
0.02 -0.00 2.64 -2.50 11.05 -0.73 -0.38 0.32 9401
0.03 -0.00 2.81 -2.56 10.89 -0.77 -0.33 0.23 9407
0.04 -0.00 2.81 -2.63 10.74 -0.82 -0.29 0.14 9413
0.03 -0.00 2.85 -2.56 10.36 -0.86 -0.28 0.06 9419
0.04 0.00 3.02 -2.42 9.98 -0.90 -0.29 -0.01 9425
0.04 -0.00 3.27 -2.30 9.49 -0.93 -0.27 -0.08 9432
0.03 -0.00 3.36 -2.08 9.18 -0.94 -0.24 -0.16 9438
0.02 -0.00 3.47 -1.92 8.57 -0.95 -0.19 -0.25 9444
0.03 -0.00 3.42 -1.83 8.28 -0.94 -0.12 -0.35 9451
0.03 -0.00 3.22 -1.88 7.93 -0.93 -0.02 -0.47 9457
0.03 -0.00 2.85 -2.12 7.61 -0.91 0.07 -0.61 9463
0.02 -0.00 2.45 -2.76 6.29 -0.85 0.17 -0.74 9469
0.02 -0.00 2.48 -3.23 5.31 -0.72 0.28 -0.89 9476
0.03 -0.00 3.07 -3.56 4.95 -0.51 0.40 -0.99 9482
0.03 -0.00 3.88 -3.75 5.13 -0.25 0.51 -1.09 9488
0.02 -0.00 4.76 -20.70 12.04 0.34 0.99 -1.04 9494
0.04 -0.00 11.85 -4.56 2.92 1.52 1.91 -0.86 9501
0.03 -0.00 6.20 -6.50 -4.82 1.45 1.77 -0.76 9507
0.02 -0.00 3.87 -19.49 5.58 1.59 1.89 -0.32 9513
0.04 0.01 5.29 -37.68 25.23 2.24 2.32 0.26 9520
0.03 0.06 10.69 -29.19 -17.15 0.02 -0.85 -0.04 9526
0.05 0.12 -3.53 -16.99 17.50 -0.27 0.36 0.28 9533
0.05 0.10 1.85 -3.13 10.34 -0.18 0.19 0.09 9539
0.04 0.09 0.88 1.03 9.63 -0.07 0.16 0.05 9545
0.04 0.13 0.73 0.33 9.87 -0.11 0.16 0.09 9551
0.05 0.15 0.45 0.19 10.09 -0.14 0.16 0.09 9558
0.05 0.19 0.73 -0.53 10.46 -0.11 0.15 0.08 9565
0.05 0.18 1.33 -1.06 10.57 -0.05 0.12 0.08 9571
0.05 0.25 0.92 -1.00 10.39 -0.03 0.10 0.08 9577
0.06 0.22 0.52 -0.58 9.90 -0.02 0.09 0.07 9583
0.05 0.23 0.49 -0.71 9.87 -0.02 0.09 0.08 9589
0.07 0.24 0.67 -0.98 10.19 -0.03 0.10 0.09 9595
0.05 0.24 0.97 -0.97 10.07 -0.03 0.07 0.09 9603
0.04 0.29 0.91 -0.71 9.96 -0.04 0.09 0.08 9609
0.06 0.30 0.88 -0.74 10.10 -0.03 0.08 0.06 9615
0.06 0.32 0.90 -0.80 10.04 -0.03 0.07 0.05 9621
0.06 0.31 0.89 -0.79 10.02 -0.03 0.05 0.04 9627
0.06 0.34 0.82 -0.78 9.99 -0.03 0.04 0.04 9633
0.06 0.32 0.86 -0.78 10.01 -0.03 0.03 0.04 9640
0.05 0.30 0.76 -0.74 10.02 -0.04 0.02 0.04 9647
0.07 0.33 0.83 -0.77 10.06 -0.04 0.01 0.05 9653
0.07 0.34 0.78 -0.79 10.02 -0.04 0.00 0.04 9659
0.05 0.33 0.85 -0.76 10.03 -0.04 -0.00 0.05 9665
0.06 0.33 0.81 -0.80 10.01 -0.04 -0.01 0.05 9671
0.06 0.36 0.81 -0.76 10.03 -0.03 -0.02 0.05 9678
0.05 0.33 0.76 -0.76 10.09 -0.03 -0.03 0.05 9684
0.06 0.36 0.75 -0.72 10.07 -0.03 -0.03 0.05 9691
0.07 0.38 0.76 -0.73 10.03 -0.03 -0.03 0.05 9697
0.07 0.36 0.74 -0.74 9.96 -0.03 -0.03 0.06 9703
0.07 0.36 0.72 -0.71 9.93 -0.03 -0.02 0.05 9710
0.07 0.37 0.77 -0.68 9.92 -0.02 -0.01 0.05 9716
0.07 0.37 0.76 -0.69 9.98 -0.02 -0.00 0.05 9722
0.06 0.37 0.77 -0.67 9.97 -0.02 0.01 0.05 9729
0.07 0.38 0.78 -0.70 9.97 -0.01 0.01 0.04 9735
0.07 0.37 0.77 -0.68 10.00 -0.01 0.01 0.05 9741
0.06 0.33 0.80 -0.70 9.99 -0.00 0.01 0.05 9747
0.06 0.34 0.77 -0.70 10.02 -0.00 0.02 0.05 9754
0.07 0.34 0.79 -0.68 10.00 -0.00 0.02 0.05 9760
0.06 0.32 0.82 -0.72 10.02 -0.00 0.02 0.05 9766
0.06 0.34 0.77 -0.74 10.00 -0.00 0.02 0.05 9773
0.06 0.33 0.82 -0.70 9.96 -0.00 0.02 0.05 9779
0.05 0.31 0.80 -0.75 10.03 -0.01 0.02 0.05 9785
0.04 0.33 0.79 -0.74 9.97 -0.01 0.01 0.05 9791
0.06 0.34 0.79 -0.75 10.00 -0.01 0.01 0.05 9798
0.05 0.32 0.80 -0.74 10.03 -0.01 0.02 0.05 9804
0.05 0.32 0.82 -0.69 10.03 -0.01 0.01 0.05 9810
0.07 0.34 0.83 -0.71 9.95 -0.01 0.01 0.05 9817
0.06 0.34 0.81 -0.71 10.02 -0.01 0.01 0.05 9823
0.05 0.35 0.82 -0.72 9.97 -0.01 0.01 0.05 9829
0.06 0.36 0.84 -0.72 9.98 -0.01 0.02 0.05 9836
0.06 0.34 0.85 -0.71 10.02 -0.01 0.01 0.05 9842
0.04 0.33 0.84 -0.72 9.98 -0.01 0.01 0.05 9848
0.05 0.34 0.82 -0.71 10.08 -0.01 0.01 0.05 9854
0.06 0.36 0.88 -0.73 10.02 -0.01 0.01 0.05 9861
0.05 0.38 0.87 -0.70 9.96 -0.02 0.01 0.05 9867
0.04 0.37 0.88 -0.74 9.99 -0.01 0.01 0.05 9874
0.05 0.42 0.84 -0.72 10.00 -0.01 0.01 0.05 9880
0.05 0.38 0.89 -0.70 10.01 -0.01 0.00 0.05 9886
0.04 0.36 0.86 -0.71 9.99 -0.02 0.00 0.05 9892
0.04 0.41 0.89 -0.75 10.03 -0.02 0.00 0.05 9899
0.03 0.41 0.86 -0.72 10.01 -0.02 0.00 0.05 9905
0.03 0.39 0.86 -0.75 10.01 -0.02 0.00 0.05 9912
0.03 0.40 0.84 -0.71 9.97 -0.02 0.00 0.05 9918
0.03 0.45 0.85 -0.70 9.96 -0.02 0.00 0.05 9924
0.03 0.40 0.88 -0.72 9.95 -0.02 0.00 0.04 9930
0.02 0.38 0.89 -0.64 9.92 -0.02 -0.00 0.04 9936
0.03 0.38 0.94 -0.67 9.93 -0.02 -0.01 0.04 9943
0.03 0.41 0.91 -0.65 9.94 -0.01 -0.01 0.04 9949
0.03 0.39 0.93 -0.70 9.95 -0.01 -0.01 0.04 9955
0.02 0.39 0.92 -0.69 10.03 -0.01 -0.02 0.03 9962
0.03 0.37 0.91 -0.71 9.94 -0.01 -0.02 0.03 9968
0.03 0.37 0.92 -0.70 9.98 -0.01 -0.02 0.03 9974
0.03 0.37 0.91 -0.74 10.05 -0.01 -0.02 0.03 9980
0.04 0.39 0.89 -0.72 9.98 -0.01 -0.02 0.03 9987
0.03 0.40 0.92 -0.72 10.03 -0.02 -0.02 0.03 9993
0.02 0.38 0.93 -0.76 9.99 -0.02 -0.02 0.03 10000
0.03 0.39 0.91 -0.74 9.98 -0.02 -0.03 0.02 10006
0.03 0.38 0.90 -0.67 10.02 -0.02 -0.03 0.02 10012
0.03 0.37 0.91 -0.75 10.03 -0.02 -0.03 0.02 10018
0.04 0.38 0.92 -0.67 9.98 -0.02 -0.03 0.02 10024
0.03 0.40 0.91 -0.70 10.00 -0.02 -0.03 0.02 10032
0.02 0.38 0.88 -0.70 9.96 -0.02 -0.04 0.01 10038
0.03 0.38 0.91 -0.74 9.99 -0.02 -0.04 0.01 10044
0.02 0.38 0.88 -0.72 10.00 -0.02 -0.04 0.02 10050
0.02 0.39 0.88 -0.71 10.01 -0.02 -0.04 0.01 10056
0.03 0.38 0.91 -0.69 9.94 -0.02 -0.03 0.01 10063
0.03 0.37 0.86 -0.69 9.95 -0.02 -0.03 0.01 10070
0.02 0.38 0.90 -0.71 9.95 -0.02 -0.03 0.01 10076
0.04 0.37 0.91 -0.68 9.98 -0.02 -0.03 0.01 10082
0.04 0.34 0.91 -0.70 9.98 -0.02 -0.03 0.01 10088
0.04 0.32 0.87 -0.70 10.00 -0.02 -0.03 0.01 10095
0.04 0.33 0.89 -0.67 10.00 -0.02 -0.02 0.01 10101
0.03 0.31 0.87 -0.70 9.97 -0.01 -0.02 0.02 10107
0.04 0.36 0.92 -0.68 10.03 -0.01 -0.02 0.02 10114
0.04 0.33 0.93 -0.73 9.99 -0.01 -0.03 0.02 10120
0.03 0.32 0.92 -0.70 9.99 -0.01 -0.03 0.02 10127
0.04 0.34 0.91 -0.70 10.00 -0.01 -0.03 0.02 10133
0.05 0.32 0.91 -0.70 9.99 -0.01 -0.04 0.03 10139
0.03 0.31 0.91 -0.71 9.93 -0.00 -0.05 0.03 10145
0.04 0.33 0.91 -0.67 10.03 0.00 -0.05 0.02 10151
0.03 0.31 0.93 -0.70 9.96 -0.00 -0.05 0.02 10159
0.03 0.32 0.97 -0.70 9.96 0.00 -0.05 0.02 10165
0.04 0.32 0.95 -0.70 9.97 -0.00 -0.05 0.01 10171
0.05 0.31 0.90 -0.70 9.97 -0.00 -0.06 0.01 10177
0.03 0.31 0.90 -0.70 9.98 -0.00 -0.05 0.01 10183
0.03 0.29 0.88 -0.72 10.00 0.00 -0.05 0.01 10189
0.04 0.30 0.91 -0.72 10.00 0.00 -0.05 0.01 10196
0.02 0.29 0.89 -0.72 10.03 -0.00 -0.05 0.01 10203
0.04 0.28 0.87 -0.72 9.98 -0.00 -0.05 0.02 10209
0.05 0.24 0.90 -0.71 9.98 -0.01 -0.04 0.02 10215
0.04 0.21 0.92 -0.76 10.05 -0.01 -0.04 0.02 10221
0.06 0.19 0.88 -0.71 9.99 -0.01 -0.04 0.02 10228
0.05 0.20 0.90 -0.73 10.03 -0.00 -0.04 0.02 10234
0.05 0.17 0.90 -0.72 10.01 0.00 -0.04 0.02 10241
0.06 0.22 0.91 -0.75 10.03 0.00 -0.04 0.02 10247
0.06 0.15 0.94 -0.77 10.04 0.00 -0.04 0.02 10253
0.06 0.16 0.90 -0.75 10.07 0.01 -0.04 0.02 10260
0.06 0.20 0.94 -0.73 10.09 0.01 -0.03 0.03 10266
0.06 0.17 0.88 -0.66 10.05 0.02 -0.03 0.03 10272
0.05 0.19 0.94 -0.67 10.00 0.03 -0.02 0.04 10278
0.06 0.09 0.93 -0.76 10.00 0.03 -0.01 0.03 10286
0.05 0.07 0.96 -0.69 9.94 0.03 -0.00 0.03 10292
0.07 0.06 1.02 -0.74 10.01 0.03 0.01 0.03 10298
0.07 0.02 0.97 -0.65 10.02 0.04 0.02 0.03 10304
0.06 0.01 0.94 -0.80 10.18 0.05 0.00 0.03 10310
0.08 0.02 1.11 -0.75 10.01 0.05 0.00 0.02 10317
0.06 -0.01 1.02 -0.76 10.00 0.06 0.00 0.01 10323
0.06 -0.01 0.99 -0.89 9.93 0.07 0.00 -0.00 10330
0.07 -0.01 0.99 -0.59 10.20 0.08 -0.00 -0.00 10336
0.06 -0.01 1.06 -0.91 10.16 0.10 -0.01 -0.01 10342
0.06 -0.01 1.03 -0.89 10.20 0.13 -0.02 -0.02 10348
0.06 -0.00 0.89 -0.82 10.20 0.17 -0.03 -0.02 10355
0.06 -0.01 1.19 -0.82 10.36 0.22 -0.04 -0.02 10361
0.06 -0.01 0.83 -0.71 10.61 0.30 -0.04 -0.03 10368
0.06 -0.01 0.70 -1.18 10.73 0.44 0.01 -0.02 10374
0.06 -0.01 0.53 -1.04 11.59 0.64 0.08 0.01 10380
0.05 -0.01 0.41 -1.42 12.66 0.89 0.31 0.03 10387
0.06 -0.01 0.31 -1.31 13.99 1.23 0.58 0.06 10393
0.06 -0.01 0.39 -1.38 14.32 1.49 0.83 0.11 10399
0.03 -0.00 0.06 -1.70 14.35 1.66 1.17 0.18 10405
0.05 -0.01 0.03 -2.34 13.91 1.76 1.52 0.26 10412
0.04 -0.00 0.40 -1.82 13.26 1.79 1.83 0.34 10419
0.05 -0.00 0.32 -2.27 13.60 1.83 2.07 0.42 10425
0.05 -0.01 0.05 -2.46 13.38 1.87 2.29 0.53 10431
0.04 -0.00 0.29 -2.77 14.16 1.88 2.45 0.64 10437
0.05 -0.00 0.48 -2.74 13.47 1.90 2.62 0.72 10443
0.06 -0.01 0.71 -2.36 13.75 1.87 2.68 0.78 10449
0.05 -0.01 1.21 -2.11 13.85 1.86 2.73 0.79 10457
0.05 -0.01 1.45 -1.61 14.35 1.82 2.79 0.77 10463
0.06 -0.01 2.67 -1.25 14.14 1.79 2.90 0.72 10469
0.04 -0.00 3.30 -1.07 14.07 1.76 3.06 0.61 10475
0.04 -0.00 3.05 -1.10 13.97 1.73 3.22 0.50 10481
0.05 -0.01 1.94 -0.94 12.83 1.66 3.31 0.38 10488
0.05 -0.00 0.09 -1.08 11.68 1.54 3.27 0.31 10494
0.04 0.00 -2.32 -0.60 9.65 1.37 3.03 0.20 10501
0.05 -0.00 -7.36 0.62 7.98 1.21 2.51 -0.08 10507
0.05 -0.00 -16.03 2.97 9.13 0.93 1.49 -0.60 10513
0.04 -0.00 -16.99 4.39 11.82 0.37 -0.14 -1.48 10520
0.04 -0.00 -11.39 3.65 12.92 -0.29 -1.54 -1.94 10526
0.02 -0.00 -7.22 3.19 14.90 -0.79 -2.17 -2.17 10532
0.04 -0.00 -4.62 2.40 13.64 -1.09 -2.31 -2.47 10539
0.04 -0.00 -3.09 1.43 11.10 -1.26 -2.28 -2.81 10546
0.04 -0.00 -1.88 1.08 8.74 -1.32 -2.26 -3.07 10552
0.04 -0.00 -0.81 0.66 7.27 -1.27 -2.32 -3.23 10558
0.03 -0.00 -0.46 0.11 6.49 -1.11 -2.42 -3.28 10564
0.03 -0.00 -0.32 -0.56 6.53 -0.91 -2.52 -3.20 10570
0.03 -0.00 -0.45 -0.37 6.28 -0.66 -2.61 -3.03 10576
0.03 -0.00 0.06 0.33 6.16 -0.42 -2.77 -2.80 10584
0.04 -0.00 1.29 1.25 7.25 -0.22 -2.97 -2.57 10590
0.04 0.00 3.22 2.51 9.37 -0.10 -3.12 -2.35 10596
0.04 -0.00 4.87 3.49 10.95 -0.10 -3.08 -2.05 10602
0.02 -0.00 5.99 4.36 12.28 -0.22 -2.83 -1.71 10608
0.04 0.01 7.05 4.90 12.71 -0.47 -2.45 -1.38 10615
0.04 -0.00 7.62 4.85 12.73 -0.78 -2.03 -1.04 10621
0.02 -0.00 7.68 4.28 12.17 -1.12 -1.63 -0.70 10628
0.05 -0.00 7.22 3.47 11.41 -1.40 -1.30 -0.35 10634
0.03 -0.00 6.58 2.28 10.40 -1.56 -1.07 -0.01 10640
0.03 -0.00 5.65 1.14 9.77 -1.62 -0.91 0.30 10647
0.04 -0.00 5.35 0.18 8.96 -1.58 -0.82 0.58 10653
0.04 -0.00 4.99 -0.57 8.70 -1.48 -0.78 0.83 10659
0.03 -0.00 4.88 -1.23 8.55 -1.38 -0.74 1.03 10665
0.04 -0.00 4.92 -1.66 8.86 -1.28 -0.71 1.19 10672
0.04 -0.00 4.96 -2.03 8.94 -1.19 -0.63 1.27 10678
0.04 -0.00 4.96 -2.33 9.13 -1.11 -0.51 1.34 10684
0.04 0.00 4.89 -2.72 9.23 -1.05 -0.36 1.37 10691
0.03 -0.00 4.58 -3.20 9.08 -0.98 -0.23 1.38 10697
0.03 -0.00 4.11 -3.54 8.86 -0.90 -0.11 1.36 10703
0.04 -0.00 3.61 -3.64 9.12 -0.81 -0.01 1.33 10710
0.04 0.00 3.10 -3.58 9.59 -0.78 0.10 1.29 10716
0.03 -0.00 2.68 -3.51 10.13 -0.75 0.20 1.26 10723
0.03 -0.00 2.28 -3.27 10.58 -0.76 0.20 1.22 10729
0.04 -0.00 2.04 -2.97 10.75 -0.81 0.21 1.20 10735
0.03 -0.00 1.72 -2.95 10.69 -0.88 0.17 1.17 10741
0.03 0.00 1.76 -3.20 10.58 -0.96 0.08 1.13 10747
0.04 -0.00 2.00 -3.43 10.21 -1.02 -0.02 1.06 10755
0.03 -0.00 2.33 -3.47 9.77 -1.06 -0.10 0.97 10761
0.03 0.00 2.65 -3.47 9.09 -1.06 -0.13 0.87 10767
0.03 -0.00 2.87 -3.49 8.59 -1.06 -0.13 0.77 10773
0.02 -0.00 3.03 -3.22 8.25 -1.03 -0.10 0.68 10779
0.03 -0.00 3.21 -2.93 8.01 -1.00 -0.08 0.61 10785
0.04 -0.00 3.26 -2.52 7.84 -0.96 -0.07 0.56 10791
0.02 -0.00 3.17 -2.26 7.87 -0.93 -0.09 0.54 10799
0.02 -0.00 2.98 -2.38 7.99 -0.91 -0.14 0.52 10805
0.03 -0.00 3.00 -2.51 8.31 -0.90 -0.22 0.47 10811
0.03 -0.00 3.31 -2.69 8.51 -0.89 -0.28 0.47 10817
0.02 -0.00 3.67 -2.90 8.73 -0.88 -0.29 0.44 10823
0.03 -0.00 3.88 -3.11 8.94 -0.89 -0.26 0.38 10829
0.04 -0.00 3.68 -3.54 8.76 -0.90 -0.22 0.32 10836
0.02 -0.00 3.37 -3.81 8.55 -0.91 -0.19 0.23 10843
0.02 -0.00 3.12 -4.07 8.48 -0.90 -0.16 0.14 10849
0.04 -0.00 3.02 -4.26 8.55 -0.89 -0.15 0.03 10855
0.03 -0.00 2.64 -4.44 8.38 -0.87 -0.13 -0.10 10861
0.01 -0.00 2.10 -4.65 8.32 -0.85 -0.15 -0.21 10867
0.04 0.01 1.77 -4.79 8.48 -0.83 -0.20 -0.37 10873
0.02 -0.00 1.61 -4.93 8.53 -0.82 -0.25 -0.54 10881
0.02 -0.00 2.23 -6.17 8.13 -0.80 -0.30 -0.73 10887
0.02 -0.00 -4.63 -18.56 49.20 0.90 1.08 -0.59 10893
0.04 -0.00 -1.47 -4.09 2.80 1.00 0.95 -0.60 10899
0.03 -0.00 -1.29 -20.94 -2.02 0.77 0.74 -0.45 10905
0.02 0.05 1.88 -39.44 10.63 1.38 0.96 0.12 10912
0.02 0.14 3.79 -4.88 32.70 2.62 0.22 0.40 10918
0.01 0.25 -4.68 -10.14 34.04 1.12 0.66 0.17 10925
0.01 0.27 0.53 -1.37 10.30 -0.10 0.09 -0.01 10932
0.00 0.33 1.14 -3.33 11.64 -0.18 0.13 0.15 10938
0.03 0.27 -1.76 -0.05 11.31 -0.32 0.08 0.02 10944
0.00 0.29 -2.57 0.71 8.94 -0.37 0.20 -0.26 10950
0.00 0.32 1.36 1.56 6.15 -0.11 -0.01 -0.45 10956
0.02 0.37 5.48 0.15 9.87 0.13 -0.19 -0.28 10963
0.02 0.35 2.19 -0.90 10.15 0.14 -0.15 0.02 10970
0.01 0.38 1.20 -1.13 10.49 0.13 -0.07 0.08 10976
0.02 0.38 0.45 -0.77 10.16 0.10 -0.01 0.10 10982
0.02 0.34 0.11 -0.62 10.06 0.08 -0.01 0.08 10989
0.04 0.33 0.22 -0.83 10.20 0.05 0.02 0.05 10995
0.04 0.33 0.48 -1.01 10.27 0.02 0.06 0.05 11001
0.03 0.35 0.76 -1.01 10.17 0.01 0.08 0.08 11008
0.03 0.38 0.70 -0.91 9.94 -0.01 0.08 0.09 11014
0.03 0.37 0.73 -0.83 10.06 -0.02 0.09 0.09 11021
0.03 0.42 0.54 -0.80 10.11 -0.04 0.08 0.09 11027
0.03 0.40 0.61 -0.79 10.14 -0.05 0.09 0.09 11033
0.01 0.48 0.68 -0.79 10.02 -0.05 0.08 0.09 11039
0.03 0.51 0.68 -0.69 10.07 -0.05 0.09 0.09 11046
0.02 0.58 0.67 -0.67 10.06 -0.05 0.09 0.10 11053
0.03 0.60 0.59 -0.71 10.19 -0.04 0.10 0.10 11059
0.04 0.60 0.73 -0.66 10.11 -0.03 0.10 0.10 11065
0.02 0.59 0.74 -0.66 10.24 -0.02 0.11 0.10 11072
0.03 0.68 0.69 -0.70 9.94 -0.02 0.11 0.10 11078
0.02 0.65 0.81 -0.68 10.07 -0.01 0.11 0.10 11084
0.01 0.65 0.73 -0.68 10.07 -0.01 0.10 0.09 11090
0.03 0.67 0.78 -0.71 10.01 -0.00 0.10 0.10 11097
0.03 0.64 0.74 -0.66 10.04 -0.00 0.10 0.10 11104
0.02 0.66 0.76 -0.74 10.03 -0.01 0.10 0.10 11110
0.03 0.64 0.80 -0.70 9.98 -0.01 0.09 0.09 11116
0.03 0.63 0.84 -0.72 9.95 -0.01 0.08 0.09 11122
0.02 0.66 0.83 -0.71 9.97 -0.01 0.07 0.09 11128
0.04 0.65 0.83 -0.68 10.02 -0.01 0.07 0.08 11136
0.02 0.64 0.82 -0.68 9.88 -0.02 0.07 0.08 11142
0.02 0.67 0.82 -0.70 9.93 -0.02 0.08 0.09 11148
0.04 0.64 0.84 -0.70 9.98 -0.02 0.08 0.09 11154
0.03 0.65 0.86 -0.72 10.01 -0.02 0.07 0.09 11160
0.03 0.67 0.82 -0.70 9.98 -0.02 0.07 0.09 11167
0.03 0.62 0.84 -0.68 10.00 -0.01 0.07 0.09 11173
-0.00 0.68 0.83 -0.65 10.00 -0.01 0.07 0.09 11180
0.03 0.68 0.83 -0.67 9.99 -0.01 0.07 0.09 11186
0.03 0.70 0.85 -0.64 9.95 -0.01 0.07 0.08 11192
0.03 0.65 0.86 -0.64 9.98 -0.02 0.07 0.08 11199
0.03 0.63 0.87 -0.74 10.05 -0.02 0.08 0.07 11205
0.02 0.63 0.88 -0.67 10.04 -0.02 0.08 0.08 11211
0.02 0.63 0.91 -0.67 9.99 -0.02 0.10 0.07 11217
0.02 0.63 0.92 -0.66 9.97 -0.03 0.10 0.07 11225
0.01 0.60 0.95 -0.67 10.05 -0.03 0.10 0.07 11231
0.02 0.61 0.96 -0.70 10.01 -0.03 0.10 0.06 11237
0.02 0.60 0.98 -0.66 10.06 -0.03 0.11 0.06 11243
0.00 0.62 0.94 -0.68 10.06 -0.04 0.13 0.06 11249
0.02 0.64 0.97 -0.70 10.01 -0.05 0.14 0.06 11256
0.02 0.60 1.01 -0.70 10.02 -0.05 0.14 0.05 11262
0.01 0.61 1.02 -0.67 10.05 -0.06 0.15 0.05 11269
0.02 0.61 1.06 -0.66 10.03 -0.06 0.16 0.05 11275
0.01 0.60 1.06 -0.68 10.01 -0.06 0.16 0.04 11282
0.01 0.64 1.06 -0.68 9.98 -0.07 0.16 0.03 11288
0.01 0.64 1.07 -0.67 9.98 -0.07 0.15 0.03 11294
0.00 0.63 1.06 -0.63 9.98 -0.07 0.15 0.02 11300
0.01 0.66 1.11 -0.67 9.98 -0.06 0.15 0.02 11307
0.01 0.64 1.10 -0.62 9.98 -0.06 0.14 0.01 11314
-0.00 0.64 1.15 -0.63 9.95 -0.07 0.14 0.01 11320
0.02 0.65 1.17 -0.63 9.87 -0.06 0.12 0.00 11326
0.01 0.65 1.17 -0.65 9.95 -0.05 0.09 -0.00 11332
0.01 0.65 1.19 -0.60 9.85 -0.05 0.06 -0.01 11338
0.01 0.66 1.18 -0.61 9.89 -0.03 0.03 -0.02 11345
0.01 0.65 1.21 -0.61 9.91 -0.02 0.00 -0.02 11352
0.00 0.65 1.16 -0.63 9.95 -0.02 -0.02 -0.02 11358
0.02 0.65 1.20 -0.67 9.94 -0.02 -0.03 -0.02 11364
0.02 0.64 1.24 -0.66 9.98 -0.01 -0.04 -0.03 11370
0.01 0.64 1.20 -0.67 9.91 -0.01 -0.04 -0.03 11376
0.01 0.65 1.20 -0.69 9.96 -0.01 -0.05 -0.03 11383
0.01 0.63 1.18 -0.64 9.96 -0.01 -0.06 -0.03 11389
0.01 0.63 1.16 -0.62 9.96 -0.01 -0.06 -0.03 11396
0.03 0.63 1.19 -0.65 9.95 -0.01 -0.07 -0.03 11402
0.02 0.62 1.18 -0.62 9.97 -0.00 -0.07 -0.03 11408
0.01 0.62 1.18 -0.63 9.98 0.00 -0.09 -0.03 11415
0.02 0.63 1.18 -0.64 9.94 0.00 -0.09 -0.03 11421
0.02 0.62 1.15 -0.64 9.95 0.01 -0.10 -0.04 11427
0.00 0.59 1.14 -0.61 9.91 0.01 -0.10 -0.04 11433
0.03 0.58 1.13 -0.62 9.92 0.02 -0.12 -0.04 11440
0.02 0.55 1.15 -0.64 9.90 0.02 -0.13 -0.04 11447
0.01 0.53 1.15 -0.63 9.91 0.02 -0.13 -0.04 11453
0.02 0.55 1.13 -0.69 9.97 0.02 -0.13 -0.04 11459
0.02 0.53 1.08 -0.67 9.99 0.02 -0.12 -0.04 11465
0.02 0.50 1.10 -0.65 10.03 0.02 -0.12 -0.04 11471
0.02 0.48 1.13 -0.68 9.95 0.01 -0.12 -0.04 11479
0.02 0.46 1.09 -0.66 9.99 0.01 -0.12 -0.04 11485
0.02 0.48 1.05 -0.68 9.98 0.01 -0.11 -0.04 11491
0.01 0.47 1.07 -0.65 10.02 0.01 -0.10 -0.04 11497
0.01 0.43 1.07 -0.70 10.00 0.01 -0.10 -0.03 11503
0.02 0.44 1.07 -0.68 9.99 0.00 -0.10 -0.03 11510
0.02 0.43 1.08 -0.65 9.96 0.00 -0.10 -0.03 11516
0.01 0.43 1.09 -0.62 9.90 0.01 -0.10 -0.03 11523
0.02 0.45 1.11 -0.63 9.98 0.01 -0.11 -0.03 11529
0.02 0.41 1.08 -0.68 9.98 0.01 -0.11 -0.03 11535
0.01 0.39 1.05 -0.66 10.01 0.01 -0.10 -0.03 11542
0.03 0.39 1.04 -0.68 9.91 0.01 -0.09 -0.03 11548
0.02 0.39 1.07 -0.68 9.96 0.01 -0.09 -0.03 11554
0.00 0.39 1.03 -0.66 9.99 0.01 -0.08 -0.03 11560
0.02 0.39 0.99 -0.64 9.94 0.01 -0.07 -0.02 11567
0.02 0.33 1.04 -0.65 10.04 0.01 -0.07 -0.02 11574
0.02 0.30 1.04 -0.68 10.01 0.02 -0.07 -0.02 11580
0.04 0.31 1.00 -0.64 9.91 0.01 -0.06 -0.01 11586
0.02 0.30 1.02 -0.67 9.97 0.01 -0.06 -0.01 11592
0.02 0.30 1.00 -0.71 10.04 0.01 -0.05 -0.01 11598
0.04 0.26 0.97 -0.71 10.08 0.01 -0.05 -0.01 11606
0.04 0.25 0.96 -0.72 9.99 0.01 -0.05 -0.00 11612
0.02 0.30 0.98 -0.73 9.99 -0.00 -0.05 0.00 11618
0.05 0.27 0.98 -0.69 10.01 -0.00 -0.04 0.01 11624
0.04 0.26 1.01 -0.70 10.06 -0.01 -0.04 0.01 11630
0.03 0.27 1.09 -0.68 9.94 -0.01 -0.04 0.01 11637
0.03 0.24 1.02 -0.67 9.96 -0.00 -0.03 0.02 11643
0.03 0.22 1.00 -0.69 9.96 -0.01 -0.03 0.02 11650
0.03 0.25 1.04 -0.68 10.01 -0.00 -0.03 0.02 11656
0.04 0.23 1.02 -0.65 10.02 -0.00 -0.03 0.02 11662
0.03 0.23 1.02 -0.66 10.04 -0.00 -0.03 0.02 11669
0.03 0.24 1.04 -0.63 9.98 0.00 -0.03 0.02 11675
0.03 0.20 1.00 -0.67 10.03 0.00 -0.03 0.02 11681
0.04 0.17 1.06 -0.71 10.04 0.00 -0.03 0.02 11687
0.06 0.15 1.02 -0.70 9.96 -0.00 -0.03 0.01 11694
0.04 0.13 1.05 -0.80 10.03 0.03 -0.03 0.02 11701
0.04 0.09 1.05 -0.65 10.00 -0.00 -0.02 0.02 11707
0.06 0.09 1.03 -0.70 10.02 -0.00 -0.02 0.02 11713
0.04 0.09 0.95 -0.69 10.03 -0.00 -0.02 0.02 11719
0.04 0.11 1.00 -0.70 9.97 -0.00 -0.02 0.02 11725
0.06 0.06 0.97 -0.65 10.03 0.00 -0.01 0.02 11732
0.04 0.03 1.00 -0.66 9.97 0.01 -0.02 0.02 11739
0.03 0.05 1.13 -0.70 10.09 0.01 -0.02 0.03 11745
0.04 0.03 1.10 -0.71 10.00 0.02 -0.02 0.02 11751
0.04 0.01 1.22 -0.74 9.93 0.02 -0.02 0.02 11757
0.04 0.01 1.14 -0.65 9.95 0.02 -0.03 0.01 11764
0.06 0.01 1.13 -0.70 10.04 0.03 -0.03 0.00 11770
0.04 -0.00 1.06 -0.71 9.98 0.04 -0.03 -0.00 11777
0.04 -0.00 1.15 -0.76 10.00 0.04 -0.03 -0.01 11783
0.06 -0.01 1.08 -0.76 9.95 0.05 -0.04 -0.01 11789
0.03 -0.00 1.06 -0.74 10.27 0.05 -0.04 -0.02 11795
0.03 -0.00 1.16 -0.62 10.07 0.07 -0.04 -0.03 11802
0.04 0.00 1.23 -0.73 10.09 0.09 -0.04 -0.06 11808
0.05 -0.00 1.16 -0.87 10.13 0.11 -0.05 -0.04 11814
0.03 -0.00 1.11 -0.74 10.27 0.14 -0.06 -0.05 11821
0.05 -0.01 1.28 -0.85 10.27 0.17 -0.05 -0.08 11827
0.05 -0.01 0.89 -0.79 10.56 0.24 -0.03 -0.10 11834
0.03 -0.00 1.09 -0.90 11.19 0.37 0.06 -0.11 11840
0.06 -0.01 0.99 -0.99 11.72 0.57 0.31 -0.12 11846
0.04 -0.00 1.06 -1.01 12.90 0.89 0.75 -0.14 11852
0.04 -0.00 1.05 -1.12 13.92 1.19 1.25 -0.15 11858
0.06 -0.01 0.79 -0.87 12.86 1.34 1.63 -0.13 11866
0.04 -0.00 0.16 -2.10 12.69 1.41 1.87 -0.04 11872
0.05 -0.00 0.46 -2.02 13.51 1.38 1.99 0.07 11878
0.05 -0.01 0.62 -1.83 13.03 1.37 2.15 0.15 11884
0.04 -0.00 0.46 -2.43 12.86 1.39 2.27 0.27 11890
0.04 -0.00 0.36 -2.59 13.11 1.41 2.40 0.40 11897
0.05 -0.01 0.69 -2.74 13.47 1.44 2.51 0.50 11904
0.05 -0.00 0.42 -2.77 13.59 1.46 2.58 0.62 11910
0.05 -0.00 0.27 -2.93 13.95 1.49 2.64 0.72 11916
0.04 -0.00 0.62 -2.36 13.66 1.50 2.70 0.79 11922
0.04 -0.00 1.07 -1.83 13.44 1.47 2.70 0.81 11929
0.04 0.01 1.44 -1.63 12.87 1.43 2.73 0.80 11935
0.04 -0.00 1.47 -1.61 12.69 1.41 2.79 0.79 11941
0.04 -0.00 1.33 -1.75 11.94 1.44 2.82 0.77 11948
0.06 -0.01 0.52 -1.97 11.20 1.49 2.80 0.74 11954
0.04 -0.00 -1.31 -1.94 11.71 1.52 2.78 0.67 11961
0.05 -0.00 -2.94 -1.56 10.79 1.52 2.64 0.54 11967
0.06 -0.01 -5.16 -0.71 9.79 1.49 2.22 0.30 11973
0.03 -0.00 -11.62 1.66 10.04 1.35 1.35 -0.13 11979
0.04 -0.00 -17.97 4.05 11.77 0.98 -0.08 -0.89 11985
0.04 -0.00 -14.54 3.62 12.82 0.41 -1.63 -1.54 11993
0.03 -0.00 -8.04 2.64 13.98 -0.06 -2.49 -1.94 11999
0.04 -0.00 -6.13 2.11 14.18 -0.34 -2.68 -2.31 12005
0.03 -0.00 -3.89 1.37 12.11 -0.47 -2.63 -2.72 12011
0.03 -0.00 -1.95 0.72 10.24 -0.51 -2.60 -3.03 12018
0.05 -0.00 -0.83 0.72 9.30 -0.49 -2.60 -3.18 12024
0.03 -0.00 -0.08 0.74 9.82 -0.44 -2.61 -3.22 12030
0.01 -0.00 0.57 1.03 10.65 -0.38 -2.58 -3.14 12037
0.03 -0.00 1.16 1.34 11.01 -0.34 -2.59 -2.97 12043
0.03 -0.00 2.06 1.54 10.95 -0.35 -2.66 -2.77 12050
0.03 -0.00 3.21 1.60 10.88 -0.39 -2.74 -2.53 12056
0.04 -0.00 4.29 1.60 10.74 -0.44 -2.79 -2.28 12062
0.05 -0.00 5.32 1.49 10.61 -0.49 -2.79 -2.01 12068
0.04 -0.00 6.13 1.37 10.33 -0.52 -2.71 -1.74 12075
0.04 -0.00 6.92 1.46 10.23 -0.54 -2.58 -1.46 12082
0.04 -0.00 7.42 1.69 10.55 -0.59 -2.37 -1.17 12088
0.04 0.01 7.64 1.80 10.58 -0.67 -2.08 -0.88 12094
0.04 -0.00 7.93 1.70 10.26 -0.78 -1.75 -0.58 12100
0.03 -0.00 7.33 2.22 9.52 -0.90 -1.45 -0.28 12106
0.04 0.00 7.71 0.99 9.24 -0.99 -1.17 0.02 12113
0.04 -0.00 7.18 0.41 8.84 -1.03 -0.89 0.28 12120
0.03 -0.00 6.57 -0.07 8.80 -1.02 -0.67 0.49 12126
0.05 0.00 5.89 -0.54 8.58 -0.96 -0.53 0.71 12132
0.04 -0.00 5.35 -0.77 8.59 -0.90 -0.43 0.91 12138
0.05 -0.00 5.00 -1.00 8.71 -0.84 -0.36 1.07 12144
0.04 -0.00 4.61 -1.13 9.01 -0.79 -0.33 1.20 12151
0.04 -0.00 4.27 -1.20 9.38 -0.75 -0.30 1.28 12157
0.04 -0.00 3.97 -1.20 9.61 -0.72 -0.28 1.33 12164
0.03 -0.00 3.67 -1.22 9.58 -0.71 -0.28 1.34 12170
0.04 -0.00 3.28 -1.36 9.44 -0.70 -0.29 1.31 12176
0.04 -0.00 3.04 -1.52 9.35 -0.70 -0.30 1.25 12182
0.04 -0.00 2.86 -1.68 9.24 -0.68 -0.30 1.16 12188
0.05 -0.00 2.72 -1.87 9.25 -0.65 -0.29 1.05 12195
0.04 -0.00 2.64 -1.95 9.26 -0.63 -0.27 0.94 12201
0.04 -0.00 2.64 -2.00 9.34 -0.62 -0.25 0.84 12208
0.03 -0.00 2.75 -1.94 9.63 -0.60 -0.21 0.77 12214
0.05 -0.00 2.73 -1.84 9.86 -0.61 -0.16 0.72 12220
0.04 -0.00 2.61 -1.77 10.02 -0.63 -0.10 0.71 12226
0.03 -0.00 2.35 -1.70 10.13 -0.66 -0.06 0.70 12233
0.05 -0.00 2.13 -1.64 10.05 -0.69 -0.05 0.71 12239
0.04 -0.00 1.89 -1.71 9.98 -0.71 -0.07 0.73 12246
0.03 -0.00 1.70 -1.77 9.78 -0.73 -0.11 0.74 12252
0.05 -0.00 1.64 -1.83 9.45 -0.74 -0.15 0.76 12258
0.04 -0.00 1.68 -1.99 9.22 -0.73 -0.19 0.77 12264
0.04 -0.00 1.83 -2.09 9.11 -0.71 -0.21 0.76 12271
0.05 -0.00 1.94 -2.12 8.92 -0.68 -0.20 0.75 12277
0.04 -0.00 2.02 -2.11 8.87 -0.65 -0.18 0.73 12283
0.03 -0.00 2.10 -2.11 8.87 -0.63 -0.15 0.71 12290
0.04 -0.00 1.99 -2.10 9.00 -0.61 -0.12 0.69 12296
0.05 -0.00 2.11 -2.01 9.32 -0.58 -0.10 0.68 12302
0.04 -0.00 2.27 -1.97 9.76 -0.57 -0.08 0.68 12308
0.03 -0.00 2.47 -2.17 10.02 -0.60 -0.07 0.69 12315
0.04 -0.00 2.67 -2.36 10.37 -0.64 -0.09 0.68 12321
0.03 -0.00 2.92 -2.56 10.76 -0.71 -0.09 0.68 12327
0.03 -0.00 3.10 -2.67 10.90 -0.77 -0.10 0.68 12334
0.04 -0.00 3.11 -2.93 10.44 -0.87 -0.09 0.65 12340
0.04 -0.00 3.07 -3.28 9.89 -0.94 -0.07 0.60 12347
0.03 -0.00 2.47 -3.68 9.32 -0.98 -0.06 0.52 12353
0.04 -0.00 3.01 -4.02 8.86 -0.97 -0.02 0.41 12359
0.04 -0.00 3.03 -4.31 8.59 -0.95 0.05 0.29 12365
0.03 -0.00 2.96 -4.49 8.64 -0.92 0.12 0.13 12371
0.04 -0.00 2.92 -4.51 8.73 -0.90 0.18 -0.01 12378
0.06 -0.01 2.84 -4.43 8.76 -0.90 0.23 -0.14 12384
0.03 -0.00 2.82 -4.46 8.61 -0.90 0.24 -0.23 12391
0.03 -0.00 2.84 -4.57 8.26 -0.91 0.22 -0.30 12397
0.04 -0.00 2.94 -4.74 7.83 -0.90 0.18 -0.34 12403
0.04 -0.00 3.11 -4.86 7.28 -0.85 0.13 -0.37 12409
0.04 -0.00 3.60 -4.92 6.88 -0.78 0.09 -0.39 12416
0.04 0.00 4.23 -5.05 6.25 -0.68 0.08 -0.40 12422
0.04 -0.00 6.77 -11.35 4.16 -0.53 0.09 -0.38 12429
0.03 -0.00 6.71 -14.47 21.65 1.14 1.58 -0.18 12435
0.03 -0.00 3.67 -4.56 -0.14 1.36 1.45 -0.03 12441
0.03 -0.00 3.97 -17.76 -2.93 1.60 1.52 0.25 12447
0.04 0.00 0.12 -35.07 15.00 2.81 0.24 0.72 12453
0.04 0.04 -19.05 -18.21 73.41 2.76 -2.34 0.43 12461
0.02 0.09 -3.54 -6.05 10.88 -0.07 -0.23 0.15 12467
0.04 0.17 3.33 -4.99 11.28 -0.14 0.03 0.17 12473
0.04 0.20 -0.17 -0.91 10.98 -0.14 0.01 0.02 12480
0.03 0.21 0.89 -0.42 9.87 -0.06 0.09 0.03 12486
0.05 0.18 1.33 -0.26 9.58 -0.04 0.08 0.10 12492
0.04 0.19 0.98 -0.27 9.85 -0.05 0.09 0.11 12498
0.03 0.21 0.67 -0.80 10.32 -0.03 0.09 0.10 12505
0.04 0.22 0.85 -0.95 10.29 0.00 0.07 0.09 12512
0.03 0.23 1.01 -0.79 10.01 0.01 0.06 0.09 12518
0.04 0.27 0.89 -0.80 9.94 0.00 0.06 0.09 12524
0.05 0.24 0.70 -0.86 10.12 -0.00 0.05 0.09 12530
0.04 0.24 0.74 -0.98 10.09 -0.01 0.06 0.09 12536
0.04 0.29 0.75 -1.06 10.07 -0.02 0.06 0.09 12544
0.05 0.24 0.80 -0.96 10.01 -0.03 0.06 0.09 12550
0.04 0.22 0.83 -0.83 10.01 -0.03 0.07 0.09 12556
0.06 0.26 0.90 -0.80 9.97 -0.03 0.06 0.09 12562
0.05 0.26 0.92 -0.80 9.97 -0.03 0.05 0.08 12568
0.02 0.26 0.91 -0.78 9.96 -0.03 0.04 0.07 12575
0.04 0.32 0.86 -0.82 9.96 -0.03 0.03 0.07 12581
0.05 0.31 0.97 -0.63 10.06 -0.03 0.01 0.06 12588
0.04 0.33 0.84 -0.78 10.01 -0.04 0.01 0.06 12594
0.07 0.32 0.88 -0.80 10.04 -0.03 0.01 0.06 12600
0.05 0.31 0.86 -0.78 9.99 -0.03 0.00 0.07 12607
0.05 0.33 0.87 -0.82 10.01 -0.03 -0.01 0.06 12613
0.05 0.33 0.92 -0.82 10.01 -0.02 -0.02 0.06 12619
0.04 0.30 0.93 -0.78 9.95 -0.02 -0.03 0.06 12625
0.04 0.33 0.87 -0.76 10.02 -0.02 -0.05 0.06 12633
0.05 0.35 0.91 -0.76 10.01 -0.02 -0.06 0.05 12639
0.03 0.35 0.86 -0.75 10.03 -0.02 -0.06 0.05 12645
0.05 0.34 0.85 -0.79 9.95 -0.02 -0.07 0.06 12651
0.03 0.36 0.82 -0.79 9.98 -0.02 -0.07 0.05 12657
0.03 0.38 0.84 -0.79 9.99 -0.02 -0.08 0.06 12664
0.05 0.41 0.83 -0.79 9.94 -0.03 -0.08 0.06 12670
0.04 0.37 0.80 -0.80 9.99 -0.03 -0.07 0.06 12677
0.03 0.45 0.77 -0.78 9.95 -0.03 -0.07 0.06 12683
0.05 0.43 0.78 -0.76 9.99 -0.03 -0.06 0.06 12689
0.04 0.50 0.79 -0.77 9.98 -0.03 -0.06 0.06 12695
0.04 0.50 0.80 -0.73 10.02 -0.02 -0.05 0.06 12702
0.06 0.48 0.80 -0.77 9.98 -0.02 -0.05 0.06 12708
0.04 0.47 0.80 -0.76 9.98 -0.02 -0.04 0.06 12715
0.03 0.50 0.80 -0.76 10.03 -0.01 -0.03 0.06 12721
0.05 0.51 0.82 -0.77 9.92 -0.01 -0.04 0.05 12727
0.04 0.49 0.80 -0.78 10.06 -0.01 -0.03 0.05 12734
0.04 0.54 0.80 -0.77 9.96 -0.01 -0.03 0.06 12740
0.04 0.57 0.79 -0.79 9.94 -0.01 -0.02 0.06 12746
0.03 0.51 0.79 -0.78 9.93 -0.01 -0.03 0.06 12752
0.03 0.55 0.79 -0.76 9.99 -0.01 -0.02 0.06 12759
0.03 0.55 0.79 -0.77 10.02 -0.01 -0.01 0.05 12766
0.03 0.54 0.81 -0.73 9.96 -0.01 -0.02 0.05 12772
0.03 0.61 0.81 -0.76 10.02 -0.01 -0.01 0.05 12778
0.03 0.55 0.81 -0.75 9.99 -0.01 -0.01 0.06 12784
0.02 0.54 0.81 -0.76 9.97 -0.01 -0.01 0.06 12791
0.02 0.60 0.82 -0.74 9.97 -0.01 -0.01 0.05 12797
0.02 0.57 0.83 -0.77 9.97 -0.01 -0.01 0.06 12804
0.00 0.58 0.81 -0.75 9.98 -0.01 -0.01 0.05 12810
0.02 0.59 0.86 -0.77 9.97 -0.01 -0.01 0.05 12816
0.04 0.54 0.84 -0.74 10.04 -0.01 -0.00 0.05 12822
0.02 0.57 0.85 -0.77 10.00 -0.01 -0.00 0.05 12829
0.04 0.59 0.85 -0.78 9.99 -0.01 -0.00 0.05 12835
0.03 0.60 0.85 -0.77 10.01 -0.02 -0.00 0.05 12841
0.01 0.60 0.87 -0.78 10.04 -0.01 -0.00 0.05 12848
0.03 0.63 0.84 -0.74 10.03 -0.02 -0.00 0.05 12855
0.02 0.58 0.84 -0.75 9.98 -0.02 -0.00 0.05 12861
0.01 0.60 0.84 -0.77 9.97 -0.02 -0.00 0.05 12867
0.03 0.57 0.84 -0.78 9.97 -0.02 -0.00 0.04 12873
0.03 0.55 0.86 -0.75 9.96 -0.02 -0.00 0.05 12879
0.03 0.57 0.85 -0.75 9.98 -0.02 -0.00 0.04 12886
0.04 0.64 0.85 -0.76 9.97 -0.02 -0.00 0.04 12893
0.02 0.66 0.82 -0.75 9.95 -0.02 -0.00 0.04 12899
0.01 0.66 0.89 -0.76 9.96 -0.02 -0.00 0.03 12905
0.03 0.65 0.86 -0.75 9.97 -0.02 -0.00 0.03 12911
0.01 0.62 0.86 -0.76 9.99 -0.02 -0.03 0.03 12917
0.01 0.63 0.87 -0.75 9.92 -0.03 -0.00 0.03 12923
0.02 0.66 0.83 -0.77 9.90 -0.02 -0.00 0.02 12931
0.02 0.65 0.89 -0.71 9.92 -0.02 -0.00 0.03 12937
0.01 0.66 0.87 -0.71 9.90 -0.02 -0.01 0.02 12943
0.03 0.65 0.86 -0.74 9.94 -0.02 -0.01 0.01 12949
0.02 0.70 0.91 -0.74 9.91 -0.01 -0.02 0.01 12955
0.01 0.65 0.91 -0.71 9.87 -0.01 -0.02 0.01 12962
0.01 0.69 0.91 -0.73 9.97 -0.01 -0.04 0.00 12968
0.01 0.66 0.91 -0.72 9.95 -0.01 -0.04 0.00 12975
0.01 0.65 0.94 -0.72 9.93 -0.01 -0.04 0.00 12981
0.02 0.66 0.94 -0.77 9.93 -0.01 -0.05 -0.00 12987
0.02 0.62 0.91 -0.74 9.97 -0.00 -0.06 -0.00 12993
0.01 0.63 0.91 -0.69 9.92 -0.01 -0.06 -0.00 13000
0.03 0.65 0.92 -0.73 9.98 -0.00 -0.07 -0.00 13006
0.04 0.61 0.89 -0.72 9.94 0.00 -0.07 -0.01 13012
0.03 0.56 0.89 -0.75 9.95 0.00 -0.07 -0.01 13019
0.03 0.57 0.90 -0.75 9.92 0.01 -0.07 -0.01 13025
0.03 0.55 0.86 -0.76 9.92 0.01 -0.07 -0.01 13032
0.02 0.54 0.85 -0.71 9.94 0.00 -0.07 -0.00 13038
0.03 0.55 0.89 -0.75 9.89 0.00 -0.07 -0.00 13044
0.03 0.51 0.86 -0.78 9.94 0.01 -0.06 -0.00 13050
0.02 0.48 0.86 -0.70 9.88 0.01 -0.06 -0.00 13057
0.03 0.45 0.85 -0.71 9.92 0.00 -0.06 -0.00 13063
0.03 0.43 0.91 -0.75 9.88 -0.00 -0.06 -0.01 13070
0.04 0.41 0.86 -0.78 10.04 -0.00 -0.05 -0.01 13076
0.05 0.43 0.85 -0.78 10.01 -0.00 -0.05 -0.00 13082
0.06 0.39 0.86 -0.76 10.03 -0.00 -0.05 0.03 13088
0.04 0.39 0.85 -0.77 10.03 -0.01 -0.04 -0.03 13095
0.05 0.32 0.86 -0.79 9.99 -0.00 -0.04 0.01 13102
0.05 0.34 0.86 -0.74 10.04 0.00 -0.04 0.00 13108
0.05 0.32 0.84 -0.77 9.99 0.00 -0.04 0.01 13114
0.07 0.32 0.83 -0.76 9.97 0.00 -0.03 0.01 13120
0.06 0.26 0.83 -0.75 10.00 0.01 -0.03 0.01 13127
0.08 0.29 0.76 -0.75 10.04 0.00 -0.02 0.01 13133
0.09 0.24 0.80 -0.81 9.96 0.00 -0.02 0.02 13139
0.07 0.21 0.80 -0.82 10.04 0.00 -0.01 0.01 13146
0.08 0.23 0.79 -0.79 9.97 -0.00 -0.02 0.02 13152
0.08 0.23 0.81 -0.82 10.01 -0.00 -0.02 0.02 13159
0.07 0.21 0.84 -0.77 10.00 -0.00 -0.02 0.03 13165
0.08 0.19 0.87 -0.80 10.00 -0.01 -0.01 0.03 13171
0.09 0.17 0.87 -0.77 10.02 -0.01 -0.01 0.04 13177
0.07 0.16 0.90 -0.78 10.03 -0.00 -0.01 0.03 13184
0.08 0.19 0.86 -0.80 10.04 -0.00 -0.01 0.04 13191
0.08 0.16 0.89 -0.74 10.00 0.00 -0.01 0.04 13197
0.07 0.16 0.88 -0.74 10.02 0.01 -0.00 0.04 13203
0.08 0.13 0.90 -0.78 10.03 0.01 0.00 0.04 13209
0.08 0.10 0.91 -0.80 10.09 0.01 0.01 0.04 13216
0.07 0.10 0.91 -0.76 10.04 0.02 0.02 0.04 13222
0.08 0.04 0.99 -0.75 10.06 0.02 0.03 0.04 13229
0.06 0.03 0.89 -0.75 9.99 0.02 0.04 0.03 13235
0.08 0.02 0.97 -0.75 9.96 0.02 0.05 0.03 13241
0.08 0.01 1.00 -0.75 9.92 0.02 0.05 0.03 13247
0.08 -0.00 0.95 -0.80 9.98 0.02 0.06 0.02 13254
0.07 -0.01 0.96 -0.85 10.02 0.03 0.06 0.02 13260
0.08 -0.01 1.02 -0.75 10.04 0.03 0.06 0.02 13266
0.07 -0.01 0.86 -0.93 10.11 0.04 0.07 0.02 13273
0.06 -0.01 0.88 -0.98 10.10 0.05 0.07 0.01 13279
0.07 -0.01 1.10 -0.89 10.09 0.07 0.07 0.00 13285
0.06 -0.01 1.04 -0.80 10.05 0.10 0.08 0.01 13292
0.05 -0.01 1.13 -0.92 10.15 0.12 0.08 -0.00 13298
0.06 -0.01 1.03 -0.88 10.10 0.16 0.07 -0.01 13304
0.07 -0.01 0.97 -0.80 10.38 0.23 0.05 -0.03 13310
0.05 -0.01 1.06 -0.96 10.45 0.28 0.06 -0.03 13317
0.08 -0.01 1.13 -0.98 10.95 0.42 0.10 -0.05 13323
0.07 -0.01 1.10 -0.91 11.84 0.66 0.20 -0.07 13330
0.04 -0.00 1.16 -1.09 13.00 1.01 0.40 -0.11 13336
0.05 -0.01 1.55 -1.35 14.62 1.43 0.71 -0.15 13342
0.05 -0.00 1.43 -1.20 14.62 1.85 1.11 -0.20 13348
0.03 -0.00 1.38 -1.11 13.84 1.95 1.51 -0.23 13355
0.06 -0.01 1.32 -1.39 14.46 1.93 1.85 -0.22 13362
0.06 -0.01 1.20 -1.58 13.65 1.93 2.24 -0.19 13368
0.04 -0.00 1.13 -1.85 13.84 1.90 2.53 -0.15 13374
0.05 -0.00 0.51 -2.27 13.97 1.88 2.79 -0.07 13380
0.04 -0.00 0.48 -2.44 13.78 1.82 2.97 0.02 13386
0.05 -0.00 0.38 -2.92 14.34 1.76 3.09 0.14 13393
0.06 -0.01 0.61 -2.97 14.45 1.71 3.23 0.26 13400
0.05 -0.01 0.46 -3.02 14.57 1.66 3.29 0.34 13406
0.05 -0.01 0.71 -2.91 13.95 1.57 3.33 0.39 13412
0.05 -0.00 1.19 -2.92 13.21 1.51 3.39 0.42 13418
0.06 -0.01 0.81 -2.89 13.15 1.48 3.37 0.44 13425
0.05 0.00 -0.18 -2.89 12.64 1.50 3.22 0.48 13431
0.04 -0.00 -2.72 -2.88 11.82 1.51 3.19 0.51 13437
0.03 -0.00 -6.52 -1.87 10.26 1.46 2.95 0.43 13444
0.05 -0.01 -14.17 0.31 8.74 1.29 2.29 0.00 13451
0.03 -0.00 -18.99 2.11 9.55 0.90 0.86 -0.74 13457
0.02 -0.00 -15.02 2.76 10.74 0.27 -0.93 -1.21 13463
0.04 -0.00 -10.66 2.57 13.24 -0.26 -2.17 -1.43 13469
0.04 -0.00 -6.96 1.94 13.69 -0.56 -2.69 -1.69 13475
0.03 -0.00 -3.70 0.72 11.41 -0.68 -2.76 -2.04 13483
0.04 -0.00 -1.42 0.07 9.51 -0.71 -2.70 -2.32 13489
0.02 -0.00 -0.33 0.34 8.22 -0.67 -2.62 -2.50 13495
0.03 0.00 0.16 0.45 7.94 -0.58 -2.57 -2.57 13501
0.04 -0.00 0.59 0.63 8.44 -0.47 -2.54 -2.54 13507
0.03 -0.00 1.13 1.21 9.29 -0.39 -2.52 -2.42 13514
0.03 -0.00 2.00 1.60 10.01 -0.32 -2.55 -2.24 13520
0.04 -0.00 2.84 1.80 10.01 -0.31 -2.61 -2.02 13527
0.03 -0.00 3.81 1.81 9.88 -0.32 -2.70 -1.78 13533
0.03 -0.00 4.82 1.63 9.76 -0.35 -2.76 -1.51 13539
0.05 -0.01 5.71 1.42 9.55 -0.35 -2.76 -1.32 13545
0.04 -0.00 6.60 1.32 9.49 -0.34 -2.70 -1.07 13552
0.03 -0.00 7.22 1.32 9.53 -0.32 -2.54 -0.82 13558
0.05 -0.00 7.98 1.35 9.82 -0.33 -2.28 -0.58 13564
0.04 -0.00 8.41 1.41 9.96 -0.37 -1.96 -0.33 13571
0.02 -0.00 8.40 1.40 10.12 -0.43 -1.61 -0.08 13577
0.04 -0.00 8.07 1.37 10.27 -0.52 -1.25 0.19 13583
0.04 -0.00 7.34 1.05 10.37 -0.61 -0.93 0.46 13590
0.04 -0.00 6.91 0.58 9.81 -0.68 -0.71 0.72 13596
0.04 -0.00 6.27 0.14 9.35 -0.70 -0.57 0.95 13602
0.04 -0.00 5.67 -0.18 8.82 -0.69 -0.44 1.13 13608
0.04 -0.00 4.98 -0.57 8.50 -0.65 -0.34 1.24 13615
0.04 -0.00 4.36 -0.74 8.40 -0.60 -0.24 1.33 13621
0.05 -0.00 3.99 -0.85 8.67 -0.55 -0.18 1.36 13627
0.03 -0.00 3.49 -0.82 9.11 -0.52 -0.13 1.36 13634
0.03 -0.00 2.86 -0.70 9.44 -0.52 -0.12 1.33 13640
0.05 -0.00 2.10 -0.63 9.62 -0.55 -0.14 1.27 13646
0.04 -0.00 1.76 -0.68 9.83 -0.60 -0.23 1.18 13652
0.02 -0.00 1.58 -0.76 10.05 -0.66 -0.27 1.07 13659
0.04 0.00 1.51 -0.88 10.02 -0.73 -0.33 0.99 13666
0.03 -0.00 1.46 -1.02 9.92 -0.78 -0.36 0.85 13672
0.03 0.00 1.48 -1.28 9.85 -0.82 -0.37 0.79 13678
0.05 -0.00 1.37 -1.41 9.63 -0.84 -0.38 0.72 13684
0.04 0.00 1.33 -1.53 9.43 -0.83 -0.38 0.67 13690
0.03 -0.00 1.42 -1.37 9.45 -0.82 -0.38 0.63 13697
0.05 0.00 1.43 -1.12 9.60 -0.81 -0.38 0.62 13704
0.03 -0.00 1.45 -0.77 9.75 -0.82 -0.37 0.62 13710
0.02 0.00 1.47 -0.57 9.71 -0.84 -0.35 0.63 13716
0.05 -0.00 1.54 -0.50 9.67 -0.88 -0.34 0.64 13722
0.03 -0.00 1.50 -0.60 9.64 -0.91 -0.32 0.66 13728
0.03 -0.00 1.49 -0.80 9.42 -0.93 -0.31 0.66 13734
0.03 0.01 1.54 -0.89 9.43 -0.93 -0.30 0.65 13742
0.04 -0.00 1.77 -0.86 9.52 -0.92 -0.30 0.65 13748
0.03 -0.00 2.01 -0.84 9.59 -0.92 -0.28 0.65 13754
0.03 0.01 2.20 -0.91 9.66 -0.92 -0.27 0.65 13760
0.03 -0.00 2.58 -1.12 9.88 -0.93 -0.26 0.65 13766
0.03 -0.00 3.00 -1.29 10.01 -0.93 -0.26 0.66 13773
0.04 0.01 3.50 -1.50 10.14 -0.94 -0.25 0.67 13779
0.03 -0.00 4.09 -1.79 10.14 -0.95 -0.22 0.67 13786
0.02 -0.00 4.46 -2.19 9.92 -0.95 -0.16 0.67 13792
0.03 0.01 4.75 -2.55 9.87 -0.95 -0.10 0.66 13798
0.03 0.00 4.99 -2.76 9.94 -0.93 -0.03 0.65 13805
0.02 -0.00 4.94 -2.82 10.11 -0.92 0.05 0.63 13811
0.04 -0.00 4.79 -2.72 10.12 -0.92 0.12 0.59 13817
0.04 -0.00 4.61 -2.92 9.79 -0.94 0.18 0.55 13824
0.03 -0.00 4.44 -3.23 9.38 -0.94 0.25 0.45 13830
0.04 0.00 4.22 -3.63 9.08 -0.91 0.33 0.31 13836
0.03 -0.00 3.95 -3.90 8.95 -0.86 0.43 0.11 13843
0.04 -0.00 3.58 -4.03 8.78 -0.80 0.54 -0.11 13849
0.03 -0.00 3.19 -3.94 8.62 -0.74 0.63 -0.34 13855
0.05 -0.00 2.86 -3.65 8.83 -0.74 0.66 -0.57 13861
0.04 -0.00 2.61 -3.32 8.90 -0.73 0.66 -0.76 13868
0.03 -0.00 2.36 -3.05 8.65 -0.75 0.62 -0.91 13874
0.03 -0.00 2.36 -2.85 8.09 -0.78 0.55 -1.05 13880
0.03 -0.00 2.67 -2.60 7.57 -0.79 0.46 -1.13 13887
0.04 -0.00 3.32 -2.61 6.98 -0.78 0.40 -1.22 13893
0.03 -0.00 -1.35 -29.75 26.67 0.18 0.93 -1.10 13899
0.04 -0.00 7.22 -1.43 -0.69 1.23 1.16 -0.98 13905
0.04 -0.00 0.60 -20.82 -3.14 1.41 0.14 -1.12 13912
0.04 0.02 -3.31 -41.56 8.59 1.92 -1.64 -1.35 13919
0.02 0.10 2.76 -44.08 23.20 0.60 -1.99 -1.01 13925
0.04 0.14 1.75 -8.68 11.49 0.04 -0.20 0.26 13931
0.04 0.14 0.72 -2.56 9.49 -0.03 -0.01 0.02 13937
0.05 0.09 0.26 0.42 10.15 -0.08 0.06 0.07 13944
0.05 0.11 0.02 0.46 9.63 -0.06 0.11 0.05 13950
0.06 0.12 0.09 -0.29 9.79 -0.07 0.15 0.05 13957
0.05 0.16 0.57 -0.97 9.73 -0.11 0.15 0.09 13963
0.04 0.23 0.98 -1.31 10.18 -0.12 0.16 0.13 13969
0.04 0.26 1.08 -1.24 10.22 -0.10 0.11 0.15 13976
0.04 0.23 1.00 -0.76 10.19 -0.08 0.12 0.14 13982
0.06 0.27 0.88 -0.88 10.17 -0.07 0.10 0.12 13988
0.05 0.33 0.98 -0.74 10.14 -0.06 0.09 0.10 13995
0.04 0.38 1.06 -0.67 10.15 -0.05 0.08 0.08 14002
0.05 0.30 0.88 -0.79 10.20 -0.03 0.08 0.07 14008
0.04 0.40 0.84 -0.84 10.05 -0.03 0.08 0.06 14014
0.06 0.37 0.87 -0.72 10.11 -0.02 0.08 0.06 14020
0.06 0.36 0.88 -0.69 10.15 -0.01 0.09 0.05 14027
0.04 0.37 0.87 -0.74 9.98 -0.00 0.08 0.05 14033
0.05 0.37 0.96 -0.84 9.99 -0.01 0.08 0.05 14040
0.05 0.36 0.98 -0.79 10.04 -0.01 0.06 0.05 14046
0.05 0.36 0.92 -0.75 9.92 -0.01 0.05 0.05 14052
0.06 0.37 0.90 -0.77 9.90 -0.02 0.04 0.05 14059
0.05 0.37 0.93 -0.77 10.06 -0.01 0.04 0.05 14065
0.05 0.38 0.91 -0.74 10.00 -0.01 0.03 0.05 14071
0.06 0.36 0.91 -0.75 9.96 -0.01 0.02 0.06 14077
0.04 0.36 0.95 -0.73 10.10 -0.01 0.01 0.06 14084
0.05 0.37 0.93 -0.74 9.92 -0.01 0.00 0.05 14091
0.05 0.34 0.87 -0.70 9.99 -0.01 -0.01 0.05 14097
0.05 0.31 0.92 -0.74 10.01 -0.01 -0.01 0.05 14103
0.05 0.34 0.92 -0.76 9.99 -0.01 -0.02 0.04 14109
0.05 0.33 0.91 -0.75 9.92 -0.02 -0.03 0.04 14115
0.04 0.34 0.86 -0.79 10.06 -0.02 -0.02 0.05 14123
0.06 0.35 0.84 -0.75 9.96 -0.02 -0.02 0.05 14129
0.04 0.33 0.85 -0.73 10.01 -0.02 -0.02 0.05 14135
0.04 0.33 0.84 -0.72 9.92 -0.01 -0.01 0.05 14141
0.06 0.34 0.89 -0.72 10.06 -0.01 -0.00 0.05 14147
0.05 0.32 0.89 -0.72 9.99 -0.01 0.01 0.05 14154
0.06 0.29 0.90 -0.75 9.97 -0.00 0.01 0.04 14160
0.08 0.31 0.91 -0.72 10.02 0.01 0.02 0.05 14167
0.06 0.26 0.88 -0.71 9.98 0.00 0.02 0.04 14173
0.05 0.23 0.94 -0.74 9.98 0.01 0.02 0.04 14179
0.07 0.21 0.93 -0.78 9.96 0.01 0.03 0.04 14185
0.06 0.18 0.92 -0.80 9.99 0.01 0.03 0.04 14192
0.05 0.15 0.93 -0.76 9.96 0.01 0.02 0.04 14198
0.07 0.17 0.93 -0.74 9.98 0.01 0.03 0.04 14204
0.06 0.13 0.94 -0.75 9.97 0.00 0.02 0.04 14211
0.05 0.10 0.93 -0.77 9.96 0.00 0.02 0.04 14217
0.07 0.11 0.98 -0.74 9.98 0.00 0.02 0.04 14223
0.07 0.09 0.91 -0.75 9.96 0.01 0.02 0.04 14230
0.06 0.06 0.96 -0.77 9.97 0.00 0.02 0.04 14236
0.07 0.09 0.97 -0.76 9.93 0.00 0.01 0.04 14242
0.08 0.05 1.04 -0.77 9.91 0.00 0.01 0.04 14248
0.06 0.02 0.97 -0.76 9.92 -0.00 0.01 0.04 14255
0.07 0.07 0.92 -0.74 10.01 -0.00 0.01 0.04 14261
0.06 0.05 1.02 -0.79 9.98 -0.01 0.01 0.03 14268
0.06 0.02 0.99 -0.78 9.97 -0.01 0.01 0.03 14274
0.06 0.03 0.99 -0.76 9.96 -0.01 0.01 0.03 14280
0.07 0.01 0.99 -0.72 9.96 -0.01 0.00 0.04 14286
0.06 0.00 1.01 -0.76 9.93 -0.01 0.00 0.03 14292
0.05 0.02 1.02 -0.74 9.94 -0.00 0.00 0.04 14299
0.07 0.04 1.03 -0.80 9.94 -0.00 0.00 0.03 14306
0.06 0.03 1.01 -0.79 9.96 -0.01 0.00 0.03 14312
0.05 0.03 1.00 -0.78 10.01 -0.00 0.00 0.03 14318
0.06 0.03 1.02 -0.77 9.90 -0.01 0.00 0.02 14324
0.06 0.01 0.98 -0.77 9.93 -0.01 0.00 0.02 14330
0.05 0.00 1.03 -0.78 9.97 -0.00 -0.00 0.03 14337
0.06 0.03 1.06 -0.77 9.95 -0.00 -0.00 0.02 14344
0.07 0.01 1.06 -0.76 9.96 -0.00 -0.01 0.02 14350
0.06 -0.01 1.03 -0.80 9.97 0.00 -0.01 0.02 14356
0.07 -0.00 1.03 -0.79 9.98 0.00 -0.01 0.02 14362
0.09 0.01 1.05 -0.79 9.94 -0.00 -0.01 0.02 14368
0.07 0.00 1.08 -0.75 9.95 -0.00 -0.01 0.01 14374
0.07 0.00 0.96 -0.78 9.98 -0.00 -0.01 0.01 14382
0.07 -0.00 1.04 -0.82 9.94 -0.01 -0.01 0.02 14388
0.06 -0.00 1.05 -0.80 9.94 -0.01 -0.01 0.01 14394
0.06 0.00 1.07 -0.76 9.94 -0.01 -0.02 0.01 14400
0.08 0.01 1.04 -0.81 10.04 -0.01 -0.02 0.01 14406
0.07 -0.00 1.07 -0.79 9.95 -0.01 -0.02 0.01 14412
0.08 -0.01 1.05 -0.79 9.97 -0.01 -0.02 0.01 14419
0.07 -0.01 1.10 -0.82 9.99 -0.01 -0.02 0.01 14426
0.09 -0.01 1.02 -0.81 10.03 -0.01 -0.02 0.00 14432
0.08 -0.01 1.01 -0.78 10.01 -0.01 -0.01 -0.00 14438
0.07 -0.01 1.07 -0.77 10.03 -0.01 -0.01 0.00 14444
0.09 -0.01 1.10 -0.78 10.04 -0.01 -0.01 -0.03 14450
0.07 -0.01 1.07 -0.80 9.97 -0.01 -0.02 -0.00 14456
0.06 -0.01 1.08 -0.81 9.97 -0.01 -0.02 -0.01 14464
0.07 -0.01 1.12 -0.87 9.93 -0.00 -0.02 -0.01 14470
0.08 -0.01 1.11 -0.79 9.95 -0.00 -0.02 -0.01 14476
0.08 -0.01 1.11 -0.84 9.98 -0.00 -0.02 -0.01 14482
0.07 -0.01 1.05 -0.79 9.94 0.00 -0.02 -0.01 14488
0.09 -0.01 1.05 -0.81 9.97 0.00 -0.01 -0.02 14494
0.08 -0.01 1.08 -0.78 9.94 -0.00 -0.01 -0.02 14500
0.08 -0.01 1.06 -0.82 9.97 -0.00 -0.01 -0.02 14507
0.07 -0.00 1.03 -0.84 9.97 -0.01 -0.01 -0.02 14514
0.08 -0.01 1.04 -0.86 10.04 -0.01 -0.01 -0.01 14520
0.08 -0.01 1.01 -0.90 9.95 -0.01 -0.01 -0.01 14526
0.07 -0.01 1.06 -0.85 9.95 -0.01 -0.01 -0.01 14532
0.08 -0.01 1.07 -0.85 9.96 -0.02 -0.01 -0.00 14538
0.08 -0.01 1.07 -0.83 10.04 -0.01 -0.01 -0.00 14544
0.07 -0.01 1.08 -0.83 9.97 -0.01 -0.02 -0.00 14551
0.08 -0.01 1.11 -0.82 10.01 -0.02 -0.02 0.00 14558
0.09 -0.01 1.13 -0.82 9.99 -0.02 -0.02 -0.01 14564
0.08 -0.01 1.12 -0.81 9.97 -0.02 -0.02 -0.00 14570
0.08 -0.01 1.10 -0.84 9.98 -0.02 -0.02 -0.01 14576
0.08 -0.01 1.09 -0.82 10.05 -0.02 -0.02 -0.01 14582
0.08 -0.01 1.09 -0.82 9.94 -0.01 -0.01 -0.01 14588
0.08 -0.01 1.12 -0.78 10.05 -0.01 -0.01 -0.00 14595
0.08 0.00 1.18 -0.83 10.04 -0.01 -0.01 -0.00 14602
0.08 -0.01 1.14 -0.84 9.85 -0.00 -0.01 -0.00 14608
0.08 -0.01 1.20 -0.71 9.96 0.00 -0.01 -0.01 14614
0.08 -0.01 1.16 -0.77 10.04 0.01 -0.01 -0.02 14620
0.09 -0.01 1.17 -0.85 10.03 0.01 -0.01 -0.02 14626
0.08 -0.01 1.13 -0.83 9.98 0.02 -0.01 -0.02 14632
0.07 -0.01 1.10 -0.83 10.02 0.01 -0.00 -0.03 14640
0.10 -0.01 1.11 -0.86 10.01 0.01 -0.00 -0.02 14646
0.07 -0.01 1.19 -0.89 9.99 0.01 0.00 -0.02 14652
0.07 -0.01 1.08 -0.84 9.98 0.01 0.00 -0.02 14658
0.09 0.00 1.15 -0.85 10.03 0.01 0.01 -0.02 14664
0.08 -0.01 1.20 -0.89 10.04 0.01 0.01 -0.01 14670
0.08 -0.01 1.25 -0.80 10.12 0.02 0.01 -0.01 14678
0.07 -0.00 1.18 -0.86 10.14 0.04 0.00 -0.01 14684
0.07 -0.01 1.07 -0.83 10.10 0.06 -0.00 -0.01 14690
0.06 -0.01 1.18 -0.86 10.15 0.08 0.01 -0.01 14696
0.07 -0.00 1.23 -0.84 10.14 0.13 -0.00 -0.01 14702
0.07 -0.01 1.27 -0.89 10.15 0.14 -0.01 -0.02 14709
0.05 -0.01 1.51 -1.08 10.20 0.20 0.00 -0.03 14715
0.06 -0.01 1.42 -0.91 10.38 0.29 0.02 -0.04 14722
0.06 -0.01 1.21 -0.98 10.69 0.42 0.06 -0.06 14728
0.03 -0.00 1.42 -1.00 10.99 0.60 0.17 -0.09 14734
0.06 -0.01 1.39 -1.07 11.40 0.83 0.32 -0.12 14740
0.06 -0.01 1.50 -1.04 12.05 1.10 0.49 -0.16 14747
0.04 -0.00 1.59 -1.25 12.36 1.33 0.61 -0.19 14753
0.06 -0.01 1.71 -1.32 12.76 1.49 0.70 -0.23 14759
0.05 -0.00 1.58 -1.30 12.64 1.58 0.79 -0.24 14766
0.05 -0.00 1.43 -1.52 13.09 1.66 0.90 -0.25 14772
0.06 -0.01 1.19 -1.71 13.33 1.74 0.99 -0.24 14779
0.05 -0.00 1.64 -1.61 12.83 1.82 1.23 -0.23 14785
0.04 -0.00 1.50 -1.80 13.02 1.87 1.47 -0.22 14791
0.07 -0.01 1.56 -1.88 13.41 1.85 1.77 -0.19 14797
0.04 -0.00 1.55 -1.80 13.36 1.85 2.10 -0.16 14803
0.04 -0.00 1.65 -2.13 13.01 1.80 2.50 -0.12 14811
0.05 -0.00 2.27 -2.24 12.53 1.72 2.73 -0.09 14817
0.04 -0.00 2.19 -2.50 13.62 1.63 2.95 -0.05 14823
0.05 0.00 2.16 -2.88 14.24 1.53 3.19 -0.01 14829
0.05 -0.00 1.97 -2.68 13.53 1.40 3.34 0.03 14836
0.04 -0.00 2.21 -3.19 14.55 1.30 3.53 0.01 14842
0.04 -0.00 2.00 -3.60 14.62 1.30 3.81 0.01 14849
0.04 -0.00 0.93 -3.34 13.29 1.31 3.99 0.05 14855
0.04 -0.00 -1.14 -2.32 11.69 1.26 3.95 0.09 14861
0.05 -0.00 -0.43 -3.55 9.76 1.18 3.72 0.18 14867
0.05 -0.00 -1.03 -3.67 9.06 1.17 3.42 0.30 14874
0.05 -0.00 -2.33 -2.90 8.85 1.16 3.00 0.40 14880
0.04 -0.00 -4.93 -1.66 8.78 1.14 2.40 0.43 14886
0.05 -0.01 -9.95 0.23 8.90 1.05 1.44 0.22 14893
0.04 -0.00 -17.65 3.10 10.81 0.79 0.38 -0.36 14899
0.04 -0.00 -18.71 3.72 13.39 0.14 -1.30 -1.27 14906
0.03 -0.00 -9.68 2.84 13.29 -0.46 -2.35 -1.75 14912
0.03 -0.00 -5.36 1.33 13.76 -0.79 -2.58 -2.13 14918
0.04 0.00 -4.43 0.88 11.86 -0.94 -2.47 -2.64 14924
0.03 -0.00 -2.93 0.12 9.67 -0.98 -2.36 -3.04 14930
0.03 -0.00 -1.76 -0.06 8.66 -0.97 -2.37 -3.35 14938
0.04 -0.00 -1.26 0.05 8.69 -0.91 -2.41 -3.47 14944
0.03 -0.00 -1.04 0.06 9.13 -0.82 -2.47 -3.44 14950
0.04 -0.00 -1.19 0.05 9.43 -0.71 -2.57 -3.30 14956
0.04 -0.00 -0.51 0.39 9.60 -0.62 -2.75 -3.08 14962
0.05 -0.00 0.81 1.15 9.85 -0.54 -3.02 -2.81 14968
0.04 -0.00 2.91 2.11 11.36 -0.51 -3.28 -2.52 14976
0.03 -0.00 4.07 3.04 12.98 -0.58 -3.37 -2.21 14982
0.04 -0.00 5.74 3.68 13.69 -0.75 -3.27 -1.89 14988
0.03 -0.00 7.11 3.94 13.52 -0.99 -3.00 -1.57 14994
0.04 -0.00 7.81 3.57 12.21 -1.26 -2.59 -1.30 15000
0.04 -0.00 7.90 2.70 10.84 -1.49 -2.14 -1.05 15007
0.03 -0.00 7.59 1.80 10.02 -1.61 -1.76 -0.80 15013
0.04 -0.00 7.09 0.83 8.87 -1.60 -1.49 -0.56 15020
0.03 -0.00 6.68 0.23 7.96 -1.48 -1.32 -0.28 15026
0.03 -0.00 6.21 0.07 7.53 -1.32 -1.20 0.01 15032
0.04 -0.00 6.14 0.06 7.93 -1.16 -1.10 0.27 15038
0.04 -0.00 6.26 0.23 8.50 -1.08 -0.99 0.50 15045
0.04 -0.00 6.33 0.39 9.27 -1.01 -0.85 0.70 15051
0.03 -0.00 6.03 0.27 9.71 -0.95 -0.74 0.87 15057
0.05 -0.00 5.63 0.17 9.82 -0.90 -0.60 0.97 15064
0.03 -0.00 5.22 0.07 9.81 -0.86 -0.50 1.05 15070
0.04 -0.00 5.08 0.05 10.02 -0.81 -0.44 1.09 15076
0.04 0.00 5.11 0.14 10.50 -0.78 -0.38 1.10 15082
0.03 -0.00 5.02 0.19 10.83 -0.76 -0.32 1.09 15089
0.03 -0.00 4.96 0.30 11.05 -0.78 -0.27 1.07 15095
0.04 -0.00 4.92 0.45 11.51 -0.81 -0.23 1.04 15101
0.03 -0.00 4.77 0.44 11.74 -0.87 -0.20 0.99 15108
0.03 -0.00 4.65 0.25 11.58 -0.94 -0.19 0.94 15114
0.04 -0.00 4.64 -0.05 11.39 -1.00 -0.18 0.88 15121
0.03 -0.00 4.37 -0.41 10.90 -1.04 -0.20 0.81 15127
0.02 -0.00 4.30 -0.64 10.59 -1.04 -0.22 0.75 15133
0.04 -0.00 4.30 -0.89 10.13 -1.03 -0.22 0.68 15139
0.03 -0.00 4.31 -1.02 9.87 -1.00 -0.21 0.61 15145
0.03 -0.00 4.37 -1.13 9.80 -0.97 -0.16 0.55 15152
0.05 0.00 4.27 -1.25 9.69 -0.93 -0.11 0.50 15159
0.04 -0.00 4.16 -1.25 9.70 -0.89 -0.07 0.46 15165
0.04 -0.00 4.18 -1.18 10.04 -0.87 -0.02 0.44 15171
0.03 0.00 4.13 -1.13 10.20 -0.86 0.03 0.45 15177
0.03 -0.00 4.15 -1.11 10.15 -0.88 0.09 0.46 15183
0.03 -0.00 4.13 -1.28 10.04 -0.91 0.14 0.49 15191
0.04 -0.00 4.14 -1.58 9.98 -0.93 0.17 0.51 15197
0.03 -0.00 4.24 -1.87 9.81 -0.94 0.22 0.54 15203
0.03 -0.00 4.30 -2.19 9.70 -0.94 0.26 0.58 15209
0.04 -0.00 4.33 -2.54 9.72 -0.94 0.30 0.61 15215
0.04 -0.00 4.23 -2.89 9.68 -0.92 0.32 0.66 15221
0.03 -0.00 4.30 -3.20 9.83 -0.91 0.34 0.71 15228
0.03 -0.00 4.21 -3.42 9.92 -0.90 0.32 0.75 15235
0.03 -0.00 4.30 -3.47 10.22 -0.91 0.30 0.80 15241
0.03 -0.00 4.44 -3.62 10.32 -0.93 0.29 0.84 15247
0.02 -0.00 4.57 -3.88 9.94 -0.97 0.33 0.87 15253
0.03 -0.00 4.54 -4.26 9.30 -1.00 0.33 0.89 15259
0.02 -0.00 4.51 -4.58 8.84 -1.00 0.39 0.89 15265
0.02 -0.00 4.35 -4.93 8.02 -0.95 0.46 0.90 15272
0.02 -0.00 4.08 -5.07 8.39 -0.88 0.53 0.90 15279
0.02 -0.00 3.87 -5.04 8.21 -0.80 0.58 0.89 15285
0.03 -0.00 3.65 -4.97 7.38 -0.74 0.61 0.87 15291
0.02 -0.00 3.63 -5.24 5.88 -0.65 0.70 0.83 15297
0.03 -0.00 3.96 -5.32 4.70 -0.49 0.85 0.77 15303
0.03 -0.00 3.90 -5.27 4.23 -0.26 1.00 0.69 15309
0.04 -0.00 5.00 -22.03 2.97 0.05 1.19 0.66 15316
0.04 0.00 3.06 -18.82 15.36 1.89 1.17 0.54 15323
0.03 -0.00 -2.12 -10.82 -1.61 2.01 0.54 0.29 15329
0.03 -0.00 -6.25 -28.06 1.48 2.25 -0.74 -0.19 15335
0.05 0.00 -13.38 -59.34 39.17 1.42 -4.24 -0.95 15342
0.03 0.04 -1.15 -18.47 23.51 0.33 -2.45 -0.37 15348
0.06 0.12 3.20 -8.41 8.39 -0.06 -0.34 -0.01 15354
0.04 0.08 0.98 -3.14 8.67 -0.12 -0.02 0.03 15361
0.04 0.08 -0.43 1.10 10.83 -0.09 0.10 0.03 15368
0.07 0.08 0.33 0.00 9.98 -0.10 0.11 -0.01 15374
0.05 0.08 0.43 -0.20 10.10 -0.12 0.12 0.01 15380
0.07 0.10 0.74 -0.59 10.65 -0.09 0.14 0.05 15386
0.07 0.14 0.90 -0.95 10.45 -0.04 0.12 0.06 15393
0.05 0.13 1.09 -0.87 10.29 -0.02 0.09 0.06 15399
0.07 0.14 0.82 -0.73 10.01 -0.01 0.09 0.06 15406
0.08 0.13 0.67 -0.91 9.85 -0.02 0.08 0.07 15412
0.07 0.15 0.97 -1.16 10.01 -0.03 0.08 0.06 15418
0.10 0.14 0.95 -0.82 9.97 -0.04 0.08 0.06 15425
0.09 0.14 0.84 -0.72 10.10 -0.03 0.08 0.05 15431
0.09 0.13 0.87 -0.74 10.06 -0.03 0.08 0.05 15437
0.11 0.11 0.83 -0.78 10.13 -0.02 0.08 0.06 15443
0.10 0.11 0.83 -0.78 10.13 -0.01 0.09 0.05 15450
0.11 0.10 0.93 -0.77 10.03 -0.00 0.09 0.05 15457
0.11 0.11 0.99 -0.84 9.98 -0.00 0.09 0.05 15463
0.10 0.11 0.92 -0.78 9.98 -0.01 0.08 0.05 15469
0.11 0.11 0.95 -0.71 9.97 -0.01 0.08 0.05 15475
0.13 0.10 0.87 -0.74 10.10 -0.01 0.09 0.05 15481
