Voltage_01 Voltage_02 Acc_x Acc_y Acc_z Gyro_x Gyro_y Gyro_z Time
5000
0.05 0.27 0.87 -0.60 10.33 -0.14 0.07 0.07 17
0.05 0.28 1.17 -0.63 10.53 -0.09 0.07 0.05 23
0.06 0.25 0.96 -0.56 10.34 -0.04 0.07 0.03 29
0.06 0.27 0.66 -0.74 10.15 -0.01 0.08 0.03 35
0.05 0.30 0.59 -0.76 10.10 -0.00 0.09 0.03 41
0.05 0.29 0.67 -0.87 10.07 0.00 0.10 0.03 48
0.07 0.28 0.64 -0.89 10.00 -0.01 0.10 0.04 54
0.06 0.27 0.70 -0.91 10.02 -0.02 0.10 0.04 60
0.05 0.28 0.82 -0.95 9.94 -0.03 0.09 0.05 66
0.05 0.29 0.95 -0.91 9.95 -0.05 0.08 0.04 72
0.07 0.28 0.90 -0.84 10.05 -0.05 0.07 0.05 78
0.08 0.28 0.85 -0.81 9.96 -0.05 0.06 0.04 86
0.07 0.25 0.79 -0.88 9.99 -0.05 0.05 0.04 92
0.07 0.25 0.85 -0.79 10.04 -0.05 0.04 0.05 98
0.06 0.28 0.86 -0.71 10.02 -0.04 0.04 0.05 104
0.07 0.32 0.86 -0.69 10.03 -0.03 0.03 0.05 110
0.07 0.31 0.87 -0.71 10.07 -0.03 0.02 0.05 116
0.05 0.33 0.91 -0.71 10.05 -0.02 0.00 0.05 122
0.05 0.32 0.86 -0.74 10.03 -0.01 -0.01 0.05 129
0.07 0.34 0.85 -0.72 9.96 -0.02 -0.02 0.04 135
0.05 0.35 0.82 -0.76 10.01 -0.02 -0.03 0.04 141
0.04 0.33 0.80 -0.75 9.95 -0.02 -0.04 0.04 148
0.05 0.36 0.82 -0.79 9.95 -0.03 -0.05 0.04 154
0.07 0.41 0.87 -0.80 9.96 -0.04 -0.06 0.04 160
0.05 0.38 0.83 -0.74 9.98 -0.04 -0.06 0.04 166
0.06 0.35 0.78 -0.72 10.04 -0.04 -0.06 0.04 173
0.06 0.40 0.80 -0.76 10.04 -0.04 -0.05 0.04 179
0.07 0.40 0.77 -0.72 9.96 -0.04 -0.05 0.04 185
0.06 0.42 0.81 -0.71 10.02 -0.03 -0.05 0.04 191
0.05 0.43 0.78 -0.73 10.04 -0.04 -0.06 0.04 197
0.05 0.42 0.81 -0.75 10.01 -0.03 -0.06 0.04 204
0.07 0.42 0.79 -0.67 10.03 -0.03 -0.06 0.03 210
0.06 0.41 0.81 -0.72 9.99 -0.03 -0.07 0.03 217
0.05 0.40 0.80 -0.73 10.02 -0.03 -0.07 0.02 223
0.06 0.46 0.79 -0.71 10.06 -0.03 -0.07 0.02 229
0.07 0.46 0.79 -0.71 10.04 -0.03 -0.08 0.02 235
0.06 0.44 0.81 -0.73 10.02 -0.03 -0.08 0.02 241
0.05 0.45 0.79 -0.75 9.99 -0.03 -0.07 0.01 247
0.06 0.43 0.79 -0.74 9.97 -0.03 -0.07 0.02 253
0.06 0.44 0.78 -0.74 9.97 -0.07 -0.08 0.02 261
0.06 0.42 0.76 -0.67 9.99 -0.03 -0.08 0.01 267
0.05 0.45 0.80 -0.76 10.03 -0.03 -0.08 0.01 273
0.06 0.48 0.78 -0.72 10.00 -0.03 -0.08 0.01 279
0.06 0.47 0.77 -0.71 10.01 -0.03 -0.08 0.01 285
0.06 0.47 0.77 -0.74 10.05 -0.03 -0.07 0.01 291
0.06 0.50 0.79 -0.73 10.03 -0.02 -0.07 0.01 297
0.07 0.50 0.74 -0.71 10.10 -0.02 -0.06 0.02 304
0.06 0.50 0.74 -0.72 10.05 -0.01 -0.06 0.02 311
0.04 0.52 0.76 -0.72 10.03 -0.01 -0.05 0.02 317
0.06 0.50 0.74 -0.72 10.02 -0.01 -0.05 0.02 323
0.06 0.53 0.72 -0.71 9.99 -0.01 -0.05 0.02 329
0.06 0.51 0.74 -0.71 9.98 -0.01 -0.04 0.02 335
0.05 0.53 0.75 -0.69 10.00 -0.00 -0.04 0.02 342
0.06 0.53 0.75 -0.71 9.97 -0.00 -0.03 0.03 348
0.07 0.51 0.74 -0.77 10.04 -0.00 -0.03 0.02 354
0.06 0.52 0.75 -0.74 10.05 -0.00 -0.03 0.03 360
0.06 0.50 0.76 -0.73 9.96 -0.01 -0.02 0.03 366
0.05 0.55 0.78 -0.71 10.03 -0.01 -0.02 0.03 373
0.06 0.52 0.76 -0.75 10.02 -0.01 -0.02 0.03 379
0.05 0.52 0.77 -0.71 10.03 -0.00 -0.02 0.03 386
0.04 0.55 0.74 -0.74 9.98 -0.00 -0.02 0.03 392
0.05 0.57 0.78 -0.73 10.04 -0.00 -0.02 0.03 398
0.06 0.56 0.77 -0.68 9.97 -0.00 -0.02 0.03 404
0.05 0.56 0.76 -0.73 9.97 0.00 -0.02 0.03 410
0.04 0.55 0.78 -0.71 9.98 -0.01 -0.02 0.03 416
0.04 0.57 0.76 -0.74 10.01 -0.01 -0.02 0.02 422
0.05 0.53 0.77 -0.75 9.93 -0.01 -0.03 0.03 430
0.04 0.55 0.78 -0.73 9.98 -0.01 -0.02 0.02 436
0.03 0.55 0.76 -0.68 9.98 -0.01 -0.02 0.02 442
0.04 0.57 0.78 -0.73 9.98 -0.01 -0.03 0.02 448
0.06 0.57 0.76 -0.71 9.99 -0.01 -0.03 0.02 454
0.05 0.56 0.79 -0.73 10.01 -0.01 -0.03 0.02 460
0.04 0.55 0.73 -0.73 9.98 -0.01 -0.04 0.02 466
0.03 0.58 0.75 -0.68 10.00 -0.01 -0.03 0.02 473
0.04 0.63 0.77 -0.71 9.98 -0.01 -0.03 0.02 479
0.05 0.61 0.78 -0.69 9.98 -0.02 -0.03 0.02 485
0.04 0.59 0.78 -0.71 9.97 -0.02 -0.03 0.02 491
0.05 0.60 0.75 -0.65 9.96 -0.01 -0.04 0.02 498
0.05 0.58 0.78 -0.71 9.98 -0.01 -0.04 0.01 504
0.05 0.58 0.75 -0.69 9.97 -0.01 -0.04 0.01 510
0.05 0.57 0.76 -0.70 9.97 -0.01 -0.04 0.01 517
0.03 0.58 0.79 -0.72 9.97 -0.01 -0.04 0.02 523
0.04 0.60 0.79 -0.73 9.99 -0.02 -0.04 0.01 529
0.05 0.56 0.80 -0.73 9.98 -0.02 -0.04 0.01 535
0.04 0.56 0.78 -0.71 9.95 -0.02 -0.04 0.01 541
0.04 0.56 0.80 -0.71 10.03 -0.02 -0.03 0.01 547
0.04 0.55 0.76 -0.72 9.98 -0.01 -0.04 0.01 553
0.05 0.54 0.77 -0.69 10.01 -0.02 -0.03 0.02 560
0.07 0.53 0.75 -0.70 9.96 -0.01 -0.03 0.01 567
0.09 0.52 0.78 -0.74 9.99 -0.01 -0.03 0.02 573
0.08 0.51 0.76 -0.68 10.07 -0.01 -0.03 0.01 579
0.09 0.51 0.74 -0.66 9.97 -0.01 -0.03 0.01 585
0.08 0.48 0.73 -0.68 9.98 -0.00 -0.02 0.02 591
0.07 0.45 0.77 -0.72 10.00 -0.00 -0.02 0.02 598
0.07 0.46 0.72 -0.71 10.02 0.00 -0.01 0.02 604
0.08 0.45 0.76 -0.71 10.02 0.00 -0.01 0.02 610
0.06 0.42 0.80 -0.73 10.04 0.00 -0.00 0.02 616
0.06 0.40 0.78 -0.72 10.03 0.01 -0.00 0.02 623
0.07 0.37 0.80 -0.71 10.01 0.01 0.01 0.02 629
0.08 0.36 0.79 -0.65 10.06 0.02 0.02 0.03 635
0.07 0.28 0.81 -0.66 10.08 0.03 0.03 0.03 642
0.06 0.24 0.82 -0.70 10.09 0.04 0.04 0.04 648
0.07 0.24 0.84 -0.76 10.04 0.05 0.04 0.03 654
0.07 0.19 0.78 -0.73 10.06 0.06 0.05 0.04 660
0.08 0.09 0.84 -0.76 10.08 0.06 0.06 0.04 666
0.06 0.09 0.83 -0.75 10.04 0.07 0.07 0.04 672
0.08 0.05 0.88 -0.74 10.07 0.07 0.08 0.05 679
0.08 0.03 0.97 -0.81 10.04 0.09 0.09 0.04 686
0.09 0.00 1.01 -0.76 10.06 0.10 0.10 0.05 692
0.08 -0.00 0.96 -0.86 10.27 0.12 0.11 0.05 698
0.07 0.01 0.92 -1.01 10.32 0.14 0.12 0.05 704
0.09 -0.01 1.16 -1.04 10.16 0.19 0.14 0.03 710
0.09 -0.01 1.01 -0.92 10.45 0.22 0.14 0.01 716
0.08 -0.01 1.04 -0.87 10.59 0.29 0.14 -0.01 722
0.07 -0.00 0.93 -0.88 10.89 0.41 0.16 -0.02 729
0.08 -0.01 0.55 -0.97 12.99 0.77 0.31 -0.04 735
0.08 -0.01 0.70 -1.01 14.84 1.42 0.66 -0.04 742
0.05 -0.01 0.24 -1.15 16.94 2.22 1.08 -0.02 748
0.05 -0.01 0.47 -1.02 16.05 2.50 1.64 0.02 754
0.05 -0.00 0.53 -1.31 16.31 2.53 2.13 0.07 760
0.04 -0.00 -0.04 -2.00 16.39 2.58 2.57 0.14 766
0.04 -0.00 -0.37 -2.60 16.04 2.65 2.91 0.26 773
0.03 -0.00 -1.15 -3.12 15.74 2.72 3.07 0.43 779
0.05 -0.01 -0.69 -4.16 15.81 2.76 3.20 0.62 785
0.05 -0.00 -0.72 -3.74 16.07 2.78 3.30 0.76 791
0.04 -0.00 -0.42 -3.77 16.64 2.78 3.40 0.90 797
0.04 -0.00 -0.29 -3.15 16.65 2.73 3.47 1.01 803
0.05 -0.01 -0.39 -2.66 15.61 2.67 3.49 1.07 811
0.04 -0.00 -0.95 -3.08 15.20 2.61 3.45 1.10 817
0.04 -0.00 -1.29 -2.82 13.71 2.60 3.38 1.15 823
0.05 -0.00 -2.19 -2.56 13.12 2.62 3.22 1.20 829
0.06 -0.01 -3.43 -2.44 12.21 2.59 2.91 1.25 835
0.04 -0.00 -5.63 -2.28 10.48 2.51 2.51 1.23 841
0.04 -0.00 -7.17 -1.36 9.13 2.43 1.99 1.02 847
0.04 -0.00 -10.72 1.07 10.11 2.22 1.14 0.64 854
0.05 -0.00 -18.82 4.26 13.04 1.78 0.23 -0.18 861
0.03 -0.00 -13.16 4.82 13.13 1.03 -0.97 -0.93 867
0.03 -0.00 -8.02 4.01 13.41 0.31 -1.83 -1.21 873
0.04 -0.00 -6.10 2.78 13.25 -0.14 -2.28 -1.50 879
0.03 -0.00 -5.10 1.76 11.87 -0.36 -2.34 -1.89 885
0.04 -0.00 -3.42 1.50 10.40 -0.47 -2.37 -2.27 891
0.04 -0.00 -2.26 1.62 9.45 -0.53 -2.51 -2.50 898
0.04 0.00 -1.55 2.13 9.25 -0.60 -2.65 -2.58 904
0.05 -0.00 -0.39 2.33 9.51 -0.70 -2.81 -2.55 910
0.04 -0.00 0.80 2.41 9.48 -0.80 -2.91 -2.44 916
0.04 -0.00 1.81 2.53 9.30 -0.92 -2.95 -2.30 922
0.03 -0.00 2.56 2.50 9.00 -1.00 -2.92 -2.15 928
0.04 0.01 3.09 2.42 8.74 -1.07 -2.89 -1.98 935
0.04 -0.00 3.77 2.50 8.81 -1.10 -2.83 -1.81 942
0.04 -0.00 4.47 2.58 8.72 -1.14 -2.76 -1.66 948
0.03 -0.00 5.07 2.57 8.49 -1.19 -2.72 -1.45 954
0.04 -0.00 5.47 2.45 8.21 -1.23 -2.68 -1.23 960
0.05 -0.00 5.83 2.24 8.20 -1.27 -2.64 -1.00 966
0.04 -0.00 6.52 2.10 8.72 -1.31 -2.56 -0.78 972
0.04 -0.00 7.24 1.83 9.07 -1.35 -2.42 -0.59 978
0.03 -0.00 7.78 1.43 9.29 -1.38 -2.25 -0.38 985
0.04 -0.00 8.09 0.83 9.15 -1.42 -2.03 -0.18 991
0.06 -0.01 8.41 0.36 9.27 -1.47 -1.85 -0.00 997
0.04 -0.00 8.42 -0.19 9.14 -1.49 -1.63 0.12 1003
0.04 -0.00 8.25 -0.90 8.96 -1.48 -1.42 0.26 1009
0.03 -0.00 8.03 -1.53 8.78 -1.44 -1.23 0.38 1015
0.04 0.00 7.82 -1.98 8.58 -1.36 -1.05 0.49 1022
0.04 -0.00 7.63 -2.32 8.40 -1.29 -0.86 0.57 1029
0.04 -0.00 7.46 -2.45 8.49 -1.19 -0.65 0.64 1035
0.04 -0.00 7.12 -2.53 8.50 -1.10 -0.47 0.71 1041
0.04 -0.00 6.55 -2.44 8.67 -1.02 -0.27 0.75 1047
0.03 -0.00 5.92 -2.31 8.86 -0.94 -0.10 0.78 1053
0.03 -0.00 5.32 -2.25 9.10 -0.88 0.02 0.80 1059
0.02 -0.00 4.88 -2.21 9.61 -0.84 0.09 0.82 1065
0.03 -0.00 4.78 -1.95 10.56 -0.82 0.12 0.82 1072
0.03 -0.00 4.70 -1.60 11.50 -0.86 0.15 0.84 1079
0.02 -0.00 4.52 -1.41 11.86 -0.98 0.18 0.86 1085
0.03 0.00 4.31 -1.44 11.86 -1.14 0.20 0.87 1091
0.03 -0.00 4.00 -1.69 11.56 -1.30 0.20 0.86 1097
0.03 -0.00 3.64 -1.99 10.87 -1.42 0.17 0.82 1103
0.03 -0.00 3.36 -2.48 9.97 -1.48 0.17 0.76 1110
0.04 -0.00 3.14 -2.83 9.47 -1.49 0.17 0.67 1116
0.02 -0.00 3.05 -3.11 9.21 -1.45 0.18 0.57 1123
0.02 -0.00 2.95 -3.28 9.35 -1.39 0.19 0.46 1129
0.03 -0.00 3.04 -3.35 9.59 -1.33 0.21 0.36 1135
0.03 -0.00 3.04 -3.34 9.74 -1.29 0.22 0.26 1141
0.03 -0.00 2.84 -3.47 9.64 -1.25 0.26 0.18 1147
0.02 -0.00 2.53 -3.64 9.39 -1.20 0.30 0.10 1154
0.02 -0.00 2.43 -3.76 9.32 -1.15 0.33 0.01 1160
0.03 -0.00 2.41 -3.80 9.60 -1.08 0.38 -0.09 1166
0.03 -0.00 2.61 -3.84 9.87 -1.02 0.46 -0.17 1172
0.03 -0.00 2.85 -4.04 10.05 -0.99 0.58 -0.26 1179
0.03 0.00 2.69 -4.37 9.97 -0.99 0.73 -0.35 1185
0.03 -0.00 2.32 -4.72 10.06 -1.00 0.88 -0.45 1191
0.03 -0.00 1.99 -5.10 9.95 -1.00 0.97 -0.56 1198
0.03 -0.00 1.55 -5.46 9.73 -1.00 0.97 -0.68 1204
0.03 -0.00 1.18 -5.71 9.43 -0.98 0.92 -0.78 1210
0.02 -0.00 1.01 -5.90 8.86 -0.96 0.81 -0.89 1216
0.03 -0.00 1.19 -6.17 8.54 -0.95 0.68 -0.98 1222
0.02 -0.00 1.60 -6.47 8.36 -0.92 0.57 -1.11 1228
0.03 0.00 2.05 -6.73 8.12 -0.87 0.48 -1.24 1235
0.03 -0.00 2.53 -6.85 7.83 -0.81 0.45 -1.36 1242
0.02 -0.00 3.03 -6.98 7.46 -0.76 0.46 -1.46 1248
0.03 -0.00 3.29 -7.11 6.91 -0.70 0.48 -1.53 1254
0.04 -0.00 3.40 -7.24 6.23 -0.61 0.49 -1.60 1260
0.02 -0.00 3.33 -7.40 5.48 -0.50 0.48 -1.59 1266
0.03 -0.00 2.44 -15.07 2.90 -0.32 0.40 -1.54 1272
0.03 -0.00 2.14 -12.48 35.53 2.38 -0.54 -0.93 1278
0.04 -0.00 -6.39 -14.01 -2.57 1.51 -0.67 -0.79 1286
0.04 0.02 -1.84 -32.19 13.34 2.35 -2.36 -0.61 1292
0.03 0.13 0.14 -4.83 12.02 0.05 -0.85 -0.07 1298
0.03 0.19 -2.62 -6.01 8.56 -0.27 0.03 0.34 1304
0.02 0.24 -2.04 -2.10 12.15 -0.22 0.00 0.15 1311
0.02 0.26 -0.54 -1.07 9.95 -0.18 0.10 0.16 1317
0.03 0.25 0.68 0.34 9.69 -0.11 0.12 0.14 1324
0.03 0.25 1.87 1.48 9.09 -0.06 0.07 0.14 1330
0.03 0.37 1.78 0.60 9.74 -0.04 0.03 0.18 1336
0.03 0.33 1.20 -0.12 10.02 -0.03 0.04 0.17 1342
0.01 0.37 0.45 -0.65 10.27 -0.02 0.03 0.14 1348
0.02 0.39 0.42 -0.56 10.07 -0.01 0.04 0.11 1355
0.04 0.42 0.56 -0.34 9.59 0.00 0.05 0.10 1361
0.03 0.41 0.69 -0.58 9.80 0.01 0.08 0.11 1368
0.01 0.41 0.59 -0.81 10.26 0.01 0.09 0.11 1374
0.04 0.47 0.60 -0.80 10.22 0.00 0.09 0.10 1380
0.02 0.49 0.69 -0.77 10.13 -0.00 0.09 0.09 1386
0.01 0.47 0.76 -0.74 10.05 -0.00 0.09 0.08 1393
0.02 0.49 0.73 -0.63 10.04 -0.01 0.08 0.08 1399
0.02 0.49 0.87 -0.53 10.06 -0.02 0.07 0.06 1405
0.01 0.50 0.90 -0.60 9.98 -0.02 0.06 0.05 1412
0.02 0.48 0.81 -0.57 9.98 -0.02 0.04 0.05 1418
0.04 0.47 0.80 -0.62 9.98 -0.02 0.04 0.05 1424
0.03 0.47 0.78 -0.67 10.09 -0.01 0.03 0.05 1431
0.02 0.48 0.80 -0.65 10.08 -0.01 0.04 0.05 1437
0.03 0.53 0.80 -0.62 10.07 -0.01 0.04 0.06 1443
0.02 0.54 0.85 -0.64 10.04 -0.02 0.04 0.06 1449
0.02 0.50 0.85 -0.03 10.04 -0.02 0.03 0.06 1456
0.04 0.53 0.85 -0.63 10.09 -0.02 0.02 0.06 1462
0.03 0.56 0.82 -0.61 9.97 -0.02 0.01 0.06 1469
0.02 0.60 0.86 -0.61 10.02 -0.02 0.00 0.05 1475
0.04 0.61 0.86 -0.60 9.87 -0.02 -0.01 0.05 1481
0.04 0.59 0.81 -0.58 9.96 -0.01 -0.02 0.04 1487
0.02 0.59 0.86 -0.63 9.99 -0.01 -0.02 0.04 1494
0.02 0.62 0.86 -0.57 9.97 -0.01 -0.01 0.04 1500
0.04 0.60 0.81 -0.59 9.92 -0.01 -0.01 0.04 1506
0.03 0.61 0.75 -1.17 9.96 -0.01 -0.01 0.04 1513
0.03 0.61 0.82 -0.61 10.00 -0.01 0.00 0.04 1519
0.05 0.61 0.80 -0.56 9.97 -0.01 0.01 0.05 1525
0.03 0.59 0.79 -0.60 10.06 -0.01 0.01 0.06 1531
0.02 0.56 0.82 -0.62 10.04 -0.01 0.01 0.06 1538
0.02 0.57 0.80 -0.60 10.06 -0.01 0.02 0.06 1544
0.04 0.56 0.84 -0.57 10.04 -0.00 0.02 0.05 1551
0.03 0.55 0.88 -0.63 10.04 0.00 0.02 0.05 1557
0.04 0.54 0.81 -0.59 10.01 0.00 0.02 0.05 1563
0.04 0.52 0.84 -0.59 10.03 -0.00 0.02 0.05 1569
0.04 0.50 0.84 -0.59 10.01 -0.00 0.02 0.06 1575
0.04 0.51 0.85 -0.60 9.99 -0.01 0.02 0.05 1582
0.05 0.50 0.89 -0.62 10.00 -0.01 0.03 0.05 1589
0.04 0.51 0.87 -0.60 10.11 -0.01 0.02 0.05 1595
0.03 0.51 0.86 -0.59 10.01 -0.01 0.02 0.05 1601
0.05 0.51 0.88 -0.60 10.00 -0.01 0.02 0.05 1607
0.03 0.50 0.86 -0.62 9.98 -0.01 0.03 0.05 1613
0.02 0.47 0.90 -0.57 9.98 -0.01 0.03 0.05 1619
0.02 0.49 0.87 -0.61 10.05 -0.02 0.03 0.05 1626
0.03 0.46 0.89 -0.58 10.01 -0.01 0.03 0.05 1633
0.02 0.44 0.87 -0.60 10.00 -0.01 0.03 0.05 1639
0.03 0.46 0.89 -0.57 9.98 -0.02 0.03 0.05 1645
0.03 0.45 0.91 -0.57 10.00 -0.02 0.03 0.04 1651
0.03 0.43 0.91 -0.59 9.96 -0.02 0.03 0.04 1657
0.02 0.44 0.90 -0.58 9.96 -0.02 0.03 0.04 1664
0.03 0.44 0.93 -0.58 10.01 -0.01 0.03 0.03 1671
0.03 0.41 0.90 -0.58 10.02 -0.02 0.03 0.03 1677
0.02 0.41 0.93 -0.58 9.99 -0.02 0.03 0.03 1683
0.04 0.42 0.91 -0.56 10.04 -0.02 0.03 0.02 1689
0.03 0.39 0.93 -0.61 9.98 -0.03 0.04 0.02 1695
0.03 0.37 0.95 -0.63 9.99 -0.03 0.03 0.02 1701
0.03 0.36 0.95 -0.60 9.96 -0.03 0.04 0.01 1708
0.04 0.36 0.94 -0.61 9.98 -0.03 0.04 0.02 1715
0.03 0.35 0.97 -0.61 10.04 -0.03 0.05 0.02 1721
0.02 0.36 0.99 -0.56 9.98 -0.04 0.05 0.02 1727
0.03 0.36 1.00 -0.60 9.95 -0.03 0.06 0.01 1733
0.03 0.36 1.03 -0.59 9.97 -0.03 0.06 0.02 1739
0.03 0.33 0.98 -0.59 10.01 -0.03 0.05 0.02 1745
0.03 0.33 1.02 -0.64 10.00 -0.03 0.05 0.01 1752
0.03 0.34 1.02 -0.60 9.96 -0.03 0.05 0.00 1759
0.03 0.33 1.06 -0.60 9.98 -0.03 0.04 0.00 1765
0.02 0.33 1.05 -0.59 9.98 -0.04 0.04 -0.00 1771
0.02 0.34 1.04 -0.59 9.98 -0.04 0.04 -0.00 1777
0.03 0.33 1.03 -0.61 10.00 -0.04 0.04 -0.00 1783
0.02 0.33 1.08 -0.61 9.98 -0.05 0.05 -0.01 1789
0.02 0.32 1.07 -0.01 10.03 -0.05 0.06 -0.00 1796
0.03 0.33 1.09 -0.61 9.96 -0.06 0.06 -0.01 1803
0.01 0.32 1.13 -0.57 9.96 -0.06 0.06 -0.01 1809
0.01 0.33 1.10 -0.63 9.97 -0.06 0.06 -0.01 1815
0.02 0.32 1.10 -0.60 10.00 -0.06 0.06 -0.02 1821
0.02 0.32 1.08 -0.58 9.99 -0.06 0.05 -0.02 1827
0.00 0.31 1.15 -0.60 9.96 -0.06 0.04 -0.02 1833
0.02 0.32 1.11 -0.57 10.01 -0.06 0.04 -0.02 1841
0.02 0.31 1.13 -0.59 9.92 -0.06 0.03 -0.02 1847
0.01 0.31 1.18 -1.18 9.97 -0.05 0.02 -0.02 1853
0.02 0.31 1.11 -0.64 9.96 -0.05 0.00 -0.02 1859
0.03 0.33 1.16 -0.64 9.95 -0.04 -0.01 -0.01 1865
0.01 0.34 1.19 -0.62 9.91 -0.03 -0.03 -0.01 1871
0.01 0.32 1.15 -0.59 9.87 -0.02 -0.03 -0.00 1878
0.02 0.31 1.15 -0.52 9.89 -0.02 -0.03 -0.00 1885
0.01 0.30 1.14 -0.54 9.95 -0.01 -0.04 -0.00 1891
0.01 0.30 1.18 -0.52 9.91 -0.01 -0.05 -0.01 1897
0.02 0.33 1.15 -0.55 9.91 -0.01 -0.06 -0.01 1903
0.02 0.31 1.08 -0.56 9.97 -0.00 -0.06 -0.01 1909
0.02 0.31 1.13 -0.53 9.98 -0.00 -0.07 -0.01 1915
0.02 0.32 1.10 -0.59 10.03 0.01 -0.08 -0.01 1922
0.02 0.33 1.11 -0.54 9.92 0.01 -0.08 -0.01 1929
0.01 0.30 1.10 -0.59 10.03 0.01 -0.08 -0.00 1935
0.01 0.33 1.10 -0.59 9.96 0.01 -0.08 -0.00 1941
0.01 0.32 1.10 -0.56 10.05 0.01 -0.07 -0.00 1947
0.02 0.30 1.10 -0.55 10.00 0.01 -0.07 0.00 1953
0.01 0.28 1.07 -0.49 10.06 0.02 -0.07 0.00 1959
0.02 0.26 1.10 -0.53 9.98 0.02 -0.06 -0.00 1967
0.02 0.25 1.13 -0.56 9.98 0.02 -0.06 0.00 1973
0.01 0.29 1.09 -0.60 10.01 0.01 -0.06 0.00 1979
0.02 0.26 1.10 -0.59 10.00 0.01 -0.05 0.01 1985
0.03 0.26 1.04 -0.58 9.98 0.02 -0.04 0.01 1991
0.02 0.24 1.09 -0.57 9.97 0.01 -0.03 0.01 1997
0.01 0.22 1.06 -0.57 10.04 0.02 -0.03 0.02 2003
0.02 0.18 1.13 -0.48 10.01 0.02 -0.03 0.02 2011
0.02 0.15 1.07 -0.56 10.04 0.02 -0.03 0.02 2017
0.01 0.16 1.17 -0.54 10.03 0.02 -0.01 0.03 2023
0.02 0.15 1.20 -0.70 10.03 0.02 -0.00 0.02 2029
0.03 0.10 1.20 -0.48 9.98 0.02 -0.01 0.02 2035
0.03 0.07 1.08 -0.55 9.97 0.03 -0.00 0.02 2041
0.02 0.07 1.20 -0.60 10.03 0.03 0.00 0.00 2048
0.04 0.03 1.25 -0.74 10.05 0.04 0.00 -0.00 2055
0.03 -0.00 1.24 -0.58 10.06 0.05 0.00 -0.01 2061
0.01 -0.00 1.30 -0.07 10.02 0.07 0.00 -0.02 2067
0.03 -0.00 1.20 -0.64 10.12 0.09 -0.01 -0.02 2073
0.03 -0.00 1.50 -0.73 10.22 0.12 0.01 -0.04 2079
0.02 -0.00 1.67 -0.69 10.35 0.16 0.06 -0.07 2085
0.02 -0.00 1.60 -0.33 10.74 0.24 0.16 -0.13 2092
0.03 -0.00 2.02 -0.48 11.13 0.37 0.37 -0.22 2099
0.04 -0.00 1.39 0.30 12.79 0.62 0.83 -0.33 2105
0.04 -0.00 2.42 -0.35 13.69 1.04 1.34 -0.45 2111
0.05 0.00 2.53 -0.38 14.11 1.41 1.93 -0.60 2117
0.06 -0.01 3.31 -0.41 14.80 1.65 2.24 -0.76 2123
0.04 -0.00 2.88 -0.55 14.69 1.76 2.41 -0.85 2129
0.05 -0.01 1.75 0.25 13.64 1.73 2.50 -0.95 2136
0.06 -0.01 2.59 -0.91 13.46 1.71 2.54 -0.95 2143
0.05 -0.00 2.42 -0.91 14.05 1.68 2.64 -0.97 2149
0.05 -0.01 2.70 -1.18 13.78 1.65 2.77 -0.95 2155
0.05 -0.01 3.03 -2.05 13.63 1.61 2.89 -0.91 2161
0.05 -0.00 2.38 -2.01 14.62 1.58 3.10 -0.86 2167
0.04 -0.00 2.07 -2.78 14.40 1.56 3.22 -0.79 2173
0.06 -0.00 1.48 -3.37 14.03 1.56 3.33 -0.71 2181
0.05 -0.00 0.61 -3.46 13.78 1.58 3.38 -0.63 2187
0.04 -0.00 0.47 -3.43 13.25 1.65 3.35 -0.51 2193
0.06 -0.00 0.10 -3.48 13.25 1.71 3.24 -0.37 2199
0.05 -0.00 -0.62 -3.21 12.57 1.78 3.08 -0.24 2205
0.04 -0.00 -1.27 -2.90 11.49 1.83 2.84 -0.08 2211
0.05 0.00 -1.94 -2.75 10.72 1.86 2.56 0.07 2219
0.04 -0.00 -2.80 -2.71 9.98 1.88 2.22 0.20 2225
0.04 -0.00 -4.51 -1.87 9.94 1.89 1.81 0.21 2231
0.03 -0.00 -8.12 -0.55 10.00 1.86 1.31 0.06 2237
0.05 -0.01 -11.77 1.45 11.90 1.69 0.45 -0.23 2243
0.04 -0.00 -13.08 3.43 14.64 1.21 -0.65 -0.63 2249
0.03 -0.00 -7.48 3.50 14.39 0.65 -1.54 -0.85 2256
0.04 -0.00 -4.36 3.05 14.07 0.24 -2.04 -0.93 2263
0.04 -0.00 -3.48 2.20 12.41 0.03 -2.17 -1.07 2269
0.02 -0.00 -2.95 1.56 10.57 -0.04 -2.16 -1.27 2275
0.04 -0.00 -1.95 1.51 9.81 -0.05 -2.17 -1.43 2281
0.03 -0.00 -0.75 1.98 9.92 -0.04 -2.24 -1.50 2287
0.04 -0.00 -0.00 2.37 10.51 -0.05 -2.27 -1.46 2293
0.03 -0.00 0.96 2.78 10.84 -0.08 -2.28 -1.30 2300
0.04 -0.00 1.69 3.25 10.89 -0.17 -2.27 -1.12 2307
0.04 -0.00 2.08 3.58 10.46 -0.28 -2.26 -0.89 2313
0.03 -0.00 2.31 3.55 10.00 -0.36 -2.27 -0.67 2319
0.04 0.00 2.64 3.29 9.50 -0.41 -2.30 -0.45 2325
0.05 -0.00 3.02 3.07 9.14 -0.42 -2.33 -0.25 2331
0.04 -0.00 3.38 3.00 8.92 -0.41 -2.37 -0.06 2337
0.04 -0.00 3.65 2.82 8.76 -0.39 -2.41 0.10 2344
0.05 -0.01 4.24 2.79 8.92 -0.39 -2.44 0.26 2351
0.04 0.00 4.88 2.80 9.07 -0.39 -2.43 0.38 2357
0.04 -0.00 5.48 2.94 9.34 -0.43 -2.37 0.53 2363
0.04 -0.00 6.16 2.94 9.68 -0.49 -2.25 0.66 2369
0.06 -0.01 6.69 2.68 9.17 -0.59 -2.09 0.78 2375
0.04 -0.00 6.63 2.32 9.47 -0.64 -1.91 0.89 2381
0.04 -0.00 6.75 1.92 9.39 -0.72 -1.76 0.98 2387
0.05 -0.00 6.61 1.49 9.17 -0.77 -1.60 1.05 2394
0.05 -0.01 6.22 1.02 8.91 -0.80 -1.47 1.12 2401
0.04 -0.00 6.09 0.62 8.77 -0.81 -1.38 1.16 2407
0.04 -0.00 5.94 0.33 8.75 -0.80 -1.32 1.20 2413
0.04 -0.00 5.82 0.17 8.90 -0.79 -1.26 1.21 2419
0.06 -0.01 5.98 0.13 9.44 -0.79 -1.20 1.21 2425
0.04 -0.00 6.12 0.12 9.64 -0.81 -1.12 1.19 2432
0.04 -0.00 6.07 0.05 9.52 -0.86 -1.02 1.16 2438
0.03 -0.00 5.98 -0.00 9.47 -0.91 -0.91 1.12 2444
0.05 -0.00 5.75 -0.23 9.27 -0.96 -0.83 1.07 2450
0.03 -0.00 5.44 -0.43 9.04 -0.98 -0.75 1.00 2456
0.04 -0.00 5.28 -0.59 8.95 -0.99 -0.71 0.93 2463
0.04 -0.00 5.21 -0.80 9.14 -1.00 -0.66 0.85 2469
0.05 -0.01 5.28 -1.08 9.55 -1.02 -0.63 0.77 2476
0.04 -0.00 5.46 -1.39 9.90 -1.06 -0.61 0.69 2482
0.03 -0.00 5.41 -1.64 9.97 -1.11 -0.60 0.62 2488
0.03 -0.00 5.29 -2.01 9.94 -1.17 -0.62 0.56 2494
0.06 -0.01 5.22 -2.36 9.86 -1.23 -0.65 0.49 2500
0.03 -0.00 5.28 -2.71 9.72 -1.26 -0.68 0.41 2506
0.03 -0.00 5.39 -2.89 9.56 -1.28 -0.69 0.35 2512
0.03 -0.00 5.39 -2.95 9.35 -1.28 -0.65 0.26 2520
0.05 -0.01 5.31 -2.95 9.35 -1.26 -0.53 0.17 2526
0.04 -0.00 5.27 -3.37 9.57 -1.23 -0.29 0.13 2532
0.03 -0.00 4.66 -4.12 9.64 -1.21 0.02 0.10 2538
0.04 0.00 3.26 -4.34 10.40 -1.21 0.34 0.04 2544
0.03 -0.00 2.00 -4.72 10.88 -1.19 0.52 -0.01 2550
0.04 -0.00 0.80 -5.07 10.99 -1.17 0.51 -0.02 2556
0.03 -0.00 -0.12 -5.31 11.58 -1.15 0.37 -0.00 2563
0.05 -0.01 -0.59 -5.66 10.98 -1.13 0.15 0.04 2570
0.04 -0.00 -0.57 -6.12 10.73 -1.11 -0.13 0.08 2576
0.03 -0.00 -0.17 -6.51 10.50 -1.07 -0.39 0.07 2582
0.05 -0.00 0.72 -6.66 10.42 -1.00 -0.55 0.02 2588
0.04 -0.00 1.72 -6.84 10.31 -1.00 -0.60 -0.07 2594
0.04 -0.00 2.40 -6.86 10.13 -0.98 -0.54 -0.19 2600
0.04 0.01 2.85 -6.97 9.87 -0.96 -0.50 -0.33 2608
0.04 -0.00 3.08 -7.03 9.67 -0.95 -0.40 -0.44 2614
0.04 -0.00 3.15 -7.17 9.48 -0.92 -0.31 -0.56 2620
0.03 -0.00 3.07 -7.32 9.19 -0.88 -0.23 -0.66 2626
0.04 -0.00 2.91 -7.49 8.77 -0.82 -0.17 -0.74 2632
0.04 -0.00 2.93 -7.63 8.41 -0.71 -0.13 -0.78 2638
0.04 -0.00 3.09 -7.70 8.28 -0.63 -0.07 -0.81 2644
0.03 -0.00 3.52 -7.51 8.08 -0.52 -0.06 -0.81 2651
0.04 0.00 4.11 -7.22 7.56 -0.40 0.02 -0.79 2657
0.03 -0.00 4.58 -6.80 7.06 -0.30 0.12 -0.73 2664
0.04 -0.00 5.09 -6.33 6.41 -0.17 0.22 -0.67 2670
0.03 -0.00 5.67 -5.71 6.12 -0.04 0.32 -0.58 2676
0.04 -0.00 6.35 -5.21 5.88 0.07 0.42 -0.47 2682
0.04 -0.00 6.79 -4.66 5.45 0.18 0.52 -0.34 2689
0.04 -0.00 7.39 -4.20 4.93 0.28 0.66 -0.18 2695
0.03 -0.00 8.15 -3.70 4.52 0.38 0.81 -0.03 2701
0.04 -0.00 8.82 -3.48 3.91 0.49 0.99 0.18 2707
0.04 -0.00 8.95 -3.34 3.40 0.62 1.17 0.42 2713
0.04 -0.00 4.79 -13.55 2.57 0.76 1.21 0.65 2719
0.02 -0.00 5.01 -8.31 20.38 3.09 -1.16 1.05 2726
0.04 -0.00 -31.71 -21.14 52.05 1.26 -3.48 0.59 2733
0.03 0.00 0.91 -3.89 10.83 -0.27 -0.34 0.07 2739
0.05 0.08 -0.69 -1.47 10.22 -0.38 0.05 0.08 2745
0.05 0.15 -2.85 -0.11 12.78 -0.33 -0.07 -0.11 2752
0.03 0.18 1.27 -0.66 10.21 -0.12 0.05 -0.05 2758
0.03 0.17 1.65 0.06 10.02 -0.05 0.06 0.04 2764
0.04 0.23 1.30 -0.18 9.64 -0.07 0.08 0.10 2770
0.04 0.25 0.54 -0.07 10.11 -0.05 0.06 0.11 2777
0.03 0.29 0.71 -0.57 10.18 -0.00 0.08 0.06 2783
0.03 0.31 1.25 -0.54 9.86 0.02 0.06 0.04 2790
0.03 0.28 1.13 -0.64 10.01 0.02 0.06 0.05 2796
0.04 0.27 0.58 -0.62 10.21 0.02 0.06 0.05 2802
0.06 0.26 0.34 -0.87 10.21 0.02 0.08 0.05 2808
0.06 0.24 0.53 -1.09 10.16 0.02 0.09 0.06 2814
0.04 0.25 0.66 -1.05 10.15 0.01 0.09 0.06 2821
0.06 0.25 0.63 -0.92 10.17 -0.01 0.09 0.07 2828
0.06 0.24 0.80 -0.81 10.04 -0.02 0.08 0.07 2834
0.05 0.25 0.88 -0.79 9.97 -0.03 0.07 0.07 2840
0.06 0.27 0.89 -0.75 10.02 -0.03 0.05 0.06 2846
0.06 0.26 0.88 -0.72 9.90 -0.04 0.04 0.05 2852
0.05 0.26 0.86 -0.74 9.89 -0.04 0.03 0.05 2859
0.07 0.27 0.80 -0.75 9.96 -0.04 0.02 0.05 2866
0.07 0.27 0.79 -0.75 9.94 -0.04 0.02 0.05 2872
0.07 0.26 0.79 -0.72 10.10 -0.04 0.00 0.06 2878
0.05 0.32 0.80 -0.72 9.97 -0.04 0.00 0.06 2884
0.06 0.31 0.81 -0.70 10.06 -0.04 -0.01 0.06 2890
0.05 0.31 0.84 -0.71 10.07 -0.03 -0.02 0.06 2896
0.05 0.33 0.81 -0.73 10.08 -0.03 -0.03 0.05 2904
0.07 0.37 0.82 -0.71 10.03 -0.03 -0.04 0.05 2910
0.06 0.36 0.76 -0.73 10.10 -0.02 -0.04 0.05 2916
0.05 0.41 0.78 -0.70 10.00 -0.02 -0.04 0.05 2922
0.07 0.40 0.77 -0.72 9.98 -0.02 -0.05 0.05 2928
0.05 0.39 0.76 -0.69 9.99 -0.02 -0.05 0.05 2934
0.04 0.36 0.80 -0.73 9.92 -0.03 -0.05 0.05 2941
0.05 0.41 0.81 -0.69 9.94 -0.03 -0.05 0.04 2948
0.07 0.39 0.78 -0.72 10.01 -0.02 -0.06 0.04 2954
0.07 0.39 0.78 -0.71 10.00 -0.03 -0.06 0.04 2960
0.07 0.39 0.75 -0.73 10.01 -0.02 -0.05 0.04 2966
0.08 0.40 0.72 -0.73 10.01 -0.02 -0.05 0.04 2972
0.05 0.42 0.77 -0.72 10.01 -0.02 -0.04 0.05 2979
0.07 0.44 0.75 -0.69 9.99 -0.02 -0.05 0.05 2985
0.07 0.41 0.78 -0.69 10.02 -0.02 -0.04 0.05 2992
0.06 0.45 0.79 -0.71 10.02 -0.02 -0.05 0.04 2998
0.07 0.42 0.75 -0.70 10.02 -0.02 -0.04 0.04 3004
0.07 0.48 0.77 -0.68 10.02 -0.02 -0.04 0.04 3010
0.07 0.47 0.74 -0.68 10.06 -0.02 -0.05 0.04 3017
0.06 0.52 0.75 -0.71 9.95 -0.01 -0.04 0.04 3023
0.07 0.49 0.78 -0.67 9.99 -0.01 -0.04 0.04 3030
0.06 0.46 0.77 -0.69 9.98 -0.01 -0.04 0.04 3036
0.05 0.45 0.75 -0.69 10.03 -0.01 -0.04 0.04 3042
0.07 0.48 0.76 -0.68 9.98 -0.01 -0.04 0.04 3048
0.06 0.47 0.74 -0.73 9.98 -0.01 -0.04 0.04 3055
0.05 0.46 0.77 -0.69 10.02 -0.01 -0.04 0.04 3061
0.05 0.45 0.74 -0.68 9.98 -0.01 -0.04 0.03 3067
0.06 0.45 0.74 -0.73 9.95 -0.01 -0.04 0.03 3074
0.05 0.44 0.76 -0.68 10.02 -0.01 -0.04 0.04 3080
0.05 0.46 0.75 -0.71 10.00 -0.01 -0.04 0.03 3086
0.06 0.46 0.78 -0.73 10.01 -0.02 -0.04 0.03 3093
0.06 0.45 0.75 -0.67 10.02 -0.02 -0.04 0.04 3099
0.07 0.47 0.76 -0.73 10.03 -0.02 -0.04 0.03 3105
0.05 0.47 0.74 -0.73 10.03 -0.01 -0.04 0.03 3111
0.05 0.45 0.76 -0.72 10.01 -0.01 -0.04 0.02 3118
0.05 0.48 0.75 -0.72 10.00 -0.02 -0.04 0.02 3125
0.06 0.48 0.76 -0.73 9.99 -0.01 -0.04 0.02 3131
0.05 0.43 0.77 -0.72 9.95 -0.01 -0.04 0.03 3137
0.05 0.46 0.75 -0.70 9.98 -0.01 -0.04 0.03 3143
0.05 0.44 0.75 -0.68 9.98 -0.01 -0.04 0.02 3149
0.05 0.41 0.76 -0.70 9.97 -0.01 -0.03 0.02 3155
0.04 0.42 0.76 -0.72 9.97 -0.01 -0.04 0.03 3162
0.04 0.46 0.76 -0.72 9.98 -0.01 -0.04 0.03 3169
0.05 0.46 0.76 -0.71 9.99 -0.01 -0.03 0.03 3175
0.04 0.45 0.77 -0.71 9.97 -0.02 -0.03 0.03 3181
0.06 0.46 0.79 -0.69 10.03 -0.02 -0.03 0.03 3187
0.07 0.45 0.79 -0.73 9.98 -0.01 -0.03 0.02 3193
0.09 0.43 0.78 -0.74 9.96 -0.02 -0.03 0.03 3200
0.09 0.45 0.74 -0.70 10.00 -0.02 -0.03 0.02 3207
0.10 0.44 0.78 -0.72 10.03 -0.01 -0.03 0.03 3213
0.08 0.43 0.78 -0.67 9.99 -0.01 -0.03 0.03 3219
0.06 0.42 0.77 -0.70 9.99 -0.01 -0.02 0.03 3225
0.06 0.42 0.75 -0.70 9.99 -0.01 -0.02 0.03 3231
0.07 0.42 0.75 -0.71 9.97 -0.01 -0.02 0.03 3237
0.07 0.40 0.75 -0.71 9.97 -0.02 -0.01 0.03 3244
0.07 0.39 0.78 -0.68 9.98 -0.02 -0.01 0.03 3251
0.08 0.39 0.77 -0.73 9.97 -0.01 -0.01 0.03 3257
0.07 0.39 0.76 -0.72 9.99 -0.01 -0.01 0.04 3263
0.05 0.39 0.79 -0.69 10.00 -0.01 -0.01 0.03 3269
0.07 0.40 0.79 -0.67 10.00 -0.01 -0.00 0.03 3275
0.07 0.40 0.78 -0.71 10.01 -0.01 -0.00 0.03 3281
0.06 0.39 0.76 -0.69 10.02 -0.01 -0.00 0.04 3289
0.07 0.40 0.78 -0.69 9.96 -0.01 0.00 0.04 3295
0.07 0.38 0.79 -0.71 10.03 -0.01 0.00 0.04 3301
0.06 0.39 0.80 -0.68 9.99 -0.01 -0.00 0.04 3307
0.08 0.39 0.82 -0.69 9.97 -0.00 0.00 0.04 3313
0.07 0.38 0.83 -0.71 10.00 -0.01 -0.00 0.04 3319
0.07 0.36 0.80 -0.66 9.98 -0.01 -0.00 0.04 3325
0.06 0.34 0.82 -0.68 10.02 -0.01 0.00 0.03 3333
0.08 0.34 0.83 -0.69 10.01 -0.01 0.00 0.03 3339
0.06 0.34 0.80 -0.67 9.99 -0.00 -0.00 0.04 3345
0.05 0.33 0.81 -0.69 9.98 -0.01 -0.00 0.04 3351
0.07 0.31 0.83 -0.67 9.98 -0.00 -0.01 0.03 3357
0.07 0.28 0.86 -0.68 9.98 -0.01 -0.01 0.04 3363
0.07 0.28 0.84 -0.65 9.98 -0.00 -0.01 0.03 3369
0.07 0.25 0.83 -0.70 9.99 -0.00 -0.01 0.04 3376
0.08 0.26 0.86 -0.69 9.92 -0.00 -0.01 0.04 3383
0.08 0.22 0.81 -0.67 9.99 -0.00 -0.01 0.04 3389
0.07 0.23 0.82 -0.68 10.04 -0.00 -0.00 0.04 3395
0.08 0.23 0.85 -0.69 10.05 0.00 0.00 0.04 3401
0.09 0.17 0.82 -0.65 10.03 0.01 0.01 0.04 3407
0.08 0.15 0.82 -0.69 10.01 0.01 0.01 0.04 3414
0.08 0.11 0.86 -0.72 9.99 0.01 0.02 0.04 3421
0.10 0.10 0.84 -0.70 10.04 0.02 0.02 0.04 3427
0.08 0.06 0.90 -0.68 10.02 0.01 0.03 0.04 3433
0.07 0.08 0.93 -0.73 10.05 0.02 0.04 0.04 3439
0.09 0.06 0.87 -0.70 10.03 0.02 0.04 0.04 3445
0.08 0.02 0.88 -0.72 10.05 0.02 0.04 0.04 3451
0.07 -0.01 0.97 -0.75 10.06 0.03 0.04 0.04 3458
0.08 0.02 0.99 -0.70 10.04 0.03 0.05 0.04 3465
0.08 -0.00 0.98 -0.78 10.07 0.04 0.05 0.04 3471
0.08 -0.01 0.91 -0.74 10.04 0.06 0.05 0.03 3477
0.08 -0.01 1.11 -0.82 10.11 0.07 0.06 0.03 3483
0.09 -0.01 1.07 -0.66 10.03 0.09 0.07 0.02 3489
0.08 -0.01 1.11 -0.94 10.14 0.09 0.06 0.01 3495
0.07 -0.01 1.03 -0.89 10.22 0.13 0.06 0.01 3502
0.08 0.00 1.21 -0.85 10.25 0.17 0.05 0.00 3509
0.08 -0.01 1.13 -0.84 10.43 0.21 0.02 -0.03 3515
0.07 -0.01 1.08 -0.71 10.89 0.32 0.01 -0.06 3521
0.06 -0.01 0.92 -0.87 11.35 0.56 0.06 -0.08 3527
0.08 -0.01 1.61 -0.81 13.00 0.98 0.19 -0.14 3533
0.06 -0.01 1.38 -0.95 15.35 1.55 0.46 -0.20 3539
0.04 -0.00 1.63 -1.09 16.38 2.10 0.80 -0.27 3546
0.04 0.00 1.52 -1.13 15.70 2.48 1.12 -0.32 3553
0.05 -0.01 1.89 -0.88 15.74 2.68 1.41 -0.37 3559
0.03 -0.00 1.80 -1.10 15.67 2.83 1.74 -0.40 3565
0.05 0.00 1.96 -1.08 15.25 2.85 2.13 -0.41 3571
0.05 -0.00 2.04 -1.42 15.37 2.87 2.54 -0.43 3577
0.04 -0.00 1.89 -1.68 15.74 2.85 2.90 -0.42 3585
0.05 -0.00 1.74 -2.15 15.71 2.79 3.21 -0.37 3591
0.06 -0.01 1.97 -2.17 15.96 2.69 3.54 -0.32 3597
0.05 -0.00 2.05 -2.79 16.12 2.57 3.78 -0.25 3603
0.05 -0.00 1.81 -3.77 17.33 2.42 4.00 -0.15 3609
0.04 -0.00 1.44 -3.94 16.78 2.30 4.21 -0.05 3615
0.05 -0.00 0.53 -3.82 16.36 2.30 4.28 -0.00 3622
0.04 -0.00 -0.48 -3.98 14.66 2.34 4.28 0.03 3629
0.06 -0.01 -2.86 -3.08 11.96 2.33 4.22 0.11 3635
0.05 -0.01 -4.53 -2.65 10.34 2.22 3.93 0.26 3641
0.05 -0.00 -5.60 -2.52 7.75 2.05 3.29 0.44 3647
0.05 -0.01 -7.48 0.37 7.30 1.85 2.49 0.52 3653
0.03 -0.00 -11.20 3.27 7.44 1.63 1.26 0.40 3659
0.04 -0.00 -14.14 2.49 8.08 1.31 -0.20 -0.06 3666
0.05 0.00 -14.83 4.12 13.67 0.73 -1.66 -0.78 3673
0.04 -0.00 -5.99 3.58 12.63 0.09 -2.43 -1.19 3679
0.03 -0.00 -2.34 2.94 11.94 -0.26 -2.57 -1.45 3685
0.04 0.00 -2.85 2.35 11.02 -0.40 -2.39 -1.81 3691
0.04 -0.00 -2.94 1.63 9.33 -0.44 -2.18 -2.21 3698
0.03 -0.00 -2.38 1.54 8.23 -0.45 -2.20 -2.47 3704
0.03 -0.00 -1.99 2.26 8.50 -0.45 -2.36 -2.56 3710
0.05 -0.00 -1.40 2.72 9.42 -0.43 -2.49 -2.53 3717
0.03 -0.00 -0.49 2.98 10.14 -0.46 -2.61 -2.37 3723
0.02 -0.00 0.67 3.38 10.46 -0.54 -2.66 -2.12 3729
0.02 -0.00 2.00 3.91 10.56 -0.66 -2.69 -1.84 3735
0.04 -0.00 3.02 4.20 10.29 -0.82 -2.71 -1.55 3742
0.03 -0.00 3.80 4.17 10.01 -0.98 -2.70 -1.26 3748
0.04 0.00 4.34 3.80 9.61 -1.08 -2.68 -0.98 3755
0.05 -0.00 5.04 3.58 9.26 -1.17 -2.66 -0.70 3761
0.04 -0.00 5.37 3.49 9.30 -1.23 -2.63 -0.43 3767
0.04 -0.00 5.75 3.32 9.32 -1.29 -2.56 -0.18 3773
0.04 -0.00 6.37 3.20 9.45 -1.35 -2.45 0.01 3779
0.03 -0.00 6.98 3.03 9.24 -1.42 -2.29 0.23 3785
0.04 -0.00 7.31 2.78 9.20 -1.50 -2.08 0.45 3791
0.03 -0.00 7.47 2.45 9.08 -1.55 -1.85 0.62 3799
0.04 0.01 7.38 1.89 8.80 -1.58 -1.61 0.77 3805
0.04 -0.00 7.34 1.33 8.82 -1.59 -1.44 0.89 3811
0.03 -0.00 7.20 0.91 8.76 -1.57 -1.25 0.98 3817
0.03 -0.00 7.09 0.49 8.86 -1.54 -1.10 1.07 3823
0.03 -0.00 6.87 0.22 8.93 -1.51 -0.98 1.14 3829
0.03 -0.00 6.73 0.01 9.13 -1.48 -0.89 1.21 3835
0.03 -0.00 6.90 -0.04 9.74 -1.45 -0.80 1.25 3842
0.03 -0.00 7.09 -0.08 10.59 -1.45 -0.71 1.28 3848
0.05 -0.00 7.16 -0.19 11.10 -1.48 -0.58 1.30 3855
0.04 -0.00 7.06 -0.44 11.41 -1.55 -0.45 1.29 3861
0.02 -0.00 6.76 -1.01 11.18 -1.63 -0.36 1.26 3867
0.03 0.00 6.46 -1.80 10.85 -1.69 -0.31 1.20 3873
0.03 -0.00 6.17 -2.66 10.45 -1.71 -0.28 1.10 3879
0.02 -0.00 6.10 -3.43 10.10 -1.70 -0.25 0.97 3886
0.03 0.00 6.18 -4.01 9.84 -1.67 -0.20 0.81 3893
0.03 -0.00 6.27 -4.28 9.83 -1.62 -0.13 0.65 3899
0.03 -0.00 6.25 -4.50 9.81 -1.57 -0.05 0.50 3905
0.02 -0.00 6.17 -4.59 9.78 -1.52 0.04 0.35 3911
0.03 0.00 5.96 -4.58 9.75 -1.48 0.13 0.27 3917
0.03 -0.00 5.55 -4.56 9.54 -1.43 0.20 0.18 3923
0.03 -0.00 5.08 -4.69 9.39 -1.37 0.25 0.12 3930
0.02 -0.00 4.45 -4.86 9.10 -1.30 0.28 0.07 3936
0.03 -0.00 4.01 -4.90 8.89 -1.20 0.28 0.04 3943
0.03 -0.00 3.86 -4.71 9.57 -1.09 0.34 0.04 3949
0.02 -0.00 3.97 -4.69 10.97 -1.00 0.51 0.09 3955
0.03 -0.00 3.72 -4.68 11.36 -0.96 0.74 0.17 3961
0.05 -0.00 3.00 -4.86 12.08 -0.98 0.93 0.27 3968
0.03 -0.00 2.15 -5.48 12.47 -1.04 1.02 0.39 3974
0.02 -0.00 1.25 -6.31 12.34 -1.13 0.96 0.54 3980
0.02 -0.00 0.45 -7.12 11.72 -1.15 0.76 0.69 3987
0.03 -0.00 -0.08 -7.83 10.89 -1.16 0.49 0.81 3993
0.03 -0.00 -0.27 -8.53 10.01 -1.14 0.22 0.88 3999
0.03 0.00 0.17 -9.12 9.49 -1.08 -0.05 0.87 4005
0.03 -0.00 1.07 -9.67 9.00 -0.99 -0.24 0.82 4012
0.02 -0.00 2.02 -9.92 8.57 -0.89 -0.32 0.71 4018
0.01 -0.00 3.00 -9.88 8.37 -0.79 -0.30 0.55 4024
0.02 0.01 3.66 -10.01 7.98 -0.68 -0.22 0.37 4030
0.03 -0.00 7.47 -25.85 13.88 -0.48 0.15 0.19 4037
0.02 -0.00 7.79 -10.59 5.31 0.67 0.85 0.04 4043
0.03 -0.00 2.50 -8.71 -1.88 0.70 0.77 -0.08 4049
0.03 -0.00 -1.17 -20.86 11.37 0.89 0.11 -0.19 4056
0.04 -0.00 -0.81 -18.64 6.31 1.19 -0.64 -0.29 4062
0.03 0.00 -1.46 -21.23 2.98 1.39 -0.94 -0.34 4068
0.04 0.01 0.14 -22.66 6.32 1.80 -1.25 -0.30 4075
0.04 0.05 -0.21 -2.33 44.40 0.87 -2.55 -0.18 4081
0.03 0.17 -0.43 -4.79 15.54 -0.08 -0.57 0.17 4087
0.03 0.17 0.92 -2.00 9.48 -0.18 0.01 0.21 4093
0.03 0.23 -0.96 -0.98 12.08 -0.22 0.02 0.13 4100
0.04 0.32 -0.12 -0.19 9.96 -0.19 0.07 0.10 4107
0.04 0.37 0.93 0.05 9.87 -0.12 0.08 0.09 4113
0.03 0.35 1.23 0.03 9.86 -0.08 0.07 0.12 4119
0.02 0.44 1.15 -0.94 10.03 -0.07 0.08 0.13 4125
0.04 0.53 0.78 -0.78 10.15 -0.05 0.08 0.11 4131
0.02 0.49 0.63 -0.70 9.98 -0.03 0.08 0.10 4137
0.02 0.48 0.69 -0.58 9.93 -0.02 0.09 0.08 4145
0.03 0.50 0.83 -0.82 10.23 -0.03 0.09 0.08 4151
0.03 0.53 0.75 -0.94 10.17 -0.03 0.08 0.07 4157
0.02 0.57 0.74 -0.85 10.14 -0.03 0.08 0.07 4163
0.02 0.58 0.67 -0.83 9.96 -0.04 0.08 0.07 4169
0.02 0.58 0.77 -0.71 10.03 -0.04 0.07 0.07 4175
0.02 0.58 0.80 -0.75 9.99 -0.04 0.06 0.07 4183
0.02 0.63 0.86 -0.68 10.04 -0.04 0.06 0.06 4189
0.02 0.63 0.76 -0.65 10.02 -0.03 0.06 0.06 4195
0.03 0.62 0.78 -0.68 9.86 -0.03 0.05 0.06 4201
0.02 0.64 0.79 -0.73 9.93 -0.03 0.05 0.06 4207
0.03 0.64 0.88 -0.69 9.89 -0.03 0.05 0.07 4213
0.02 0.62 0.81 -0.68 10.06 -0.03 0.04 0.06 4220
0.02 0.63 0.80 -0.72 9.92 -0.03 0.04 0.06 4227
0.03 0.63 0.83 -0.63 9.98 -0.02 0.03 0.06 4233
0.02 0.63 0.83 -0.63 9.98 -0.01 0.03 0.07 4239
0.02 0.60 0.81 -0.68 10.03 -0.00 0.03 0.06 4245
0.02 0.61 0.81 -0.70 9.92 0.00 0.02 0.06 4251
0.03 0.60 0.79 -0.72 9.98 0.00 0.02 0.06 4257
0.02 0.57 0.83 -0.68 9.94 0.00 0.02 0.06 4263
0.01 0.56 0.78 -0.65 9.95 0.00 0.02 0.05 4271
0.03 0.54 0.81 -0.70 10.06 0.01 0.02 0.05 4277
0.04 0.49 0.82 -0.67 9.98 0.01 0.02 0.05 4283
0.04 0.47 0.81 -0.69 10.08 0.01 0.01 0.04 4289
0.03 0.46 0.83 -0.74 10.02 0.01 0.01 0.04 4295
0.05 0.45 0.82 -0.73 9.97 0.00 0.01 0.04 4301
0.05 0.43 0.84 -0.74 10.04 0.00 0.01 0.04 4308
0.06 0.41 0.83 -0.69 10.04 0.00 0.01 0.05 4315
0.08 0.40 0.86 -0.71 10.00 0.00 0.02 0.04 4321
0.07 0.38 0.81 -0.72 10.02 0.01 0.02 0.04 4327
0.06 0.36 0.79 -0.72 10.00 0.00 0.03 0.04 4333
0.08 0.34 0.84 -0.73 9.97 0.00 0.03 0.04 4339
0.07 0.32 0.85 -0.75 10.00 0.00 0.03 0.04 4345
0.06 0.30 0.86 -0.73 10.04 0.00 0.00 0.04 4353
0.06 0.33 0.84 -0.73 10.02 -0.00 0.03 0.04 4359
0.06 0.30 0.88 -0.67 9.99 -0.00 0.03 0.04 4365
0.07 0.26 0.89 -0.74 9.97 -0.00 0.03 0.04 4371
0.07 0.28 0.91 -0.71 9.97 -0.00 0.03 0.04 4377
0.09 0.24 0.91 -0.72 9.98 -0.00 0.03 0.04 4383
0.07 0.24 0.91 -0.71 9.97 -0.00 0.02 0.04 4389
0.06 0.26 0.92 -0.75 9.98 -0.01 0.02 0.04 4397
0.07 0.25 0.88 -0.73 9.97 -0.01 0.01 0.03 4403
0.07 0.23 0.93 -0.68 9.95 -0.01 0.01 0.03 4409
0.07 0.24 0.95 -0.73 9.97 -0.01 0.01 0.03 4415
0.06 0.23 0.93 -0.71 10.01 -0.01 0.00 0.03 4421
0.08 0.21 0.94 -0.69 9.97 -0.02 -0.00 0.03 4427
0.08 0.21 0.94 -0.71 10.00 -0.02 -0.00 0.02 4433
0.07 0.24 0.92 -0.69 9.94 -0.01 -0.01 0.02 4441
0.07 0.25 0.93 -0.70 9.96 -0.02 -0.01 0.02 4447
0.08 0.22 0.95 -0.73 9.98 -0.01 -0.01 0.02 4453
0.07 0.23 0.93 -0.71 9.95 -0.02 -0.02 0.02 4459
0.08 0.22 0.94 -0.69 9.90 -0.01 -0.03 0.02 4465
0.08 0.22 0.94 -0.72 9.95 -0.01 -0.03 0.02 4471
0.08 0.23 0.96 -0.72 9.90 -0.02 -0.03 0.01 4477
0.07 0.22 0.96 -0.74 9.97 -0.02 -0.04 0.02 4485
0.08 0.22 0.97 -0.74 9.94 -0.02 -0.04 0.01 4491
0.08 0.23 0.94 -0.72 9.93 -0.02 -0.04 0.01 4497
0.09 0.19 0.97 -0.70 9.96 -0.02 -0.04 0.01 4503
0.08 0.21 0.98 -0.71 9.99 -0.02 -0.05 0.01 4509
0.09 0.19 0.94 -0.70 10.04 -0.01 -0.04 0.01 4515
0.09 0.19 0.94 -0.68 9.96 -0.02 -0.05 0.01 4521
0.08 0.21 0.96 -0.70 9.92 -0.01 -0.05 0.00 4529
0.09 0.16 0.93 -0.71 9.96 -0.01 -0.05 0.01 4535
0.10 0.12 0.90 -0.74 9.93 -0.01 -0.04 0.01 4541
0.09 0.11 0.91 -0.72 9.98 -0.01 -0.04 0.01 4547
0.09 0.11 0.94 -0.73 10.01 -0.01 -0.04 0.01 4553
0.10 0.13 0.95 -0.73 9.94 -0.01 -0.04 0.01 4559
0.09 0.11 0.96 -0.73 10.01 -0.01 -0.04 0.01 4566
0.08 0.10 0.92 -0.73 10.02 -0.01 -0.04 0.01 4573
0.10 0.09 0.96 -0.73 9.97 -0.00 -0.04 0.00 4579
0.09 0.06 0.98 -0.71 9.94 -0.00 -0.04 0.00 4585
0.09 0.04 0.94 -0.71 9.99 -0.01 -0.05 -0.00 4591
0.09 0.09 0.97 -0.74 9.96 -0.00 -0.05 -0.01 4597
0.11 0.03 0.93 -0.75 9.95 -0.01 -0.05 -0.00 4603
0.09 0.06 0.94 -0.74 10.02 -0.00 -0.06 -0.01 4610
0.07 0.05 0.93 -0.79 10.03 -0.01 -0.06 -0.01 4617
0.10 0.08 0.94 -0.72 9.93 -0.00 -0.06 -0.01 4623
0.10 0.04 0.93 -0.76 10.04 -0.00 -0.06 -0.01 4629
0.09 0.01 0.94 -0.74 9.96 -0.00 -0.05 -0.01 4635
0.09 0.03 0.88 -0.71 10.00 -0.00 -0.06 -0.01 4641
0.09 0.02 0.94 -0.73 9.96 -0.01 -0.05 -0.01 4647
0.09 0.00 0.91 -0.77 9.97 -0.00 -0.05 -0.01 4654
0.09 0.01 0.90 -0.78 9.98 -0.00 -0.04 -0.01 4661
0.12 0.01 0.90 -0.72 9.99 -0.00 -0.04 -0.01 4667
0.10 -0.00 0.89 -0.76 9.99 -0.00 -0.03 -0.01 4673
0.11 -0.00 0.91 -0.75 9.95 -0.01 -0.03 -0.01 4679
0.09 0.01 0.89 -0.77 9.96 -0.01 -0.03 -0.01 4685
0.10 0.02 0.92 -0.79 9.97 -0.01 -0.03 -0.00 4691
0.09 0.00 0.92 -0.78 10.00 -0.01 -0.03 -0.00 4698
0.08 -0.01 0.91 -0.77 9.96 -0.01 -0.02 0.00 4704
0.09 0.01 0.91 -0.76 10.04 -0.01 -0.02 0.00 4711
0.10 -0.01 0.93 -0.78 10.00 -0.01 -0.02 0.00 4717
0.09 -0.01 0.97 -0.78 10.01 -0.02 -0.02 -0.00 4723
0.10 0.00 0.96 -0.76 10.02 -0.01 -0.02 0.00 4729
0.12 -0.00 0.95 -0.76 10.03 -0.01 -0.02 0.01 4736
0.11 -0.00 0.98 -0.75 10.05 -0.01 -0.01 0.01 4742
0.11 -0.01 0.98 -0.69 10.06 -0.00 -0.02 0.01 4749
0.13 0.00 1.03 -0.78 10.01 0.00 -0.02 0.00 4755
0.12 0.01 0.97 -0.74 10.00 0.01 -0.02 -0.00 4761
0.10 -0.00 0.97 -0.75 10.02 0.01 -0.01 -0.01 4767
0.11 0.01 0.95 -0.76 10.07 0.01 -0.01 -0.01 4773
0.10 -0.00 1.00 -0.71 10.05 0.02 0.00 -0.01 4780
0.09 -0.00 0.97 -0.77 10.09 0.03 0.02 -0.01 4787
0.11 -0.00 1.03 -0.77 10.15 0.04 0.03 -0.01 4793
0.11 -0.01 1.06 -0.79 10.11 0.05 0.04 -0.01 4799
0.11 -0.01 1.10 -0.73 10.09 0.06 0.05 -0.02 4805
0.12 -0.01 1.34 -0.99 9.91 0.07 0.05 -0.03 4811
0.12 -0.01 1.11 -0.80 10.23 0.09 0.06 -0.04 4817
0.13 -0.01 1.27 -0.81 10.23 0.13 0.07 -0.05 4825
0.13 -0.01 0.77 -0.75 10.37 0.18 0.08 -0.07 4831
0.13 -0.01 0.98 -0.74 10.32 0.26 0.09 -0.09 4837
0.12 -0.01 1.44 -0.84 10.46 0.37 0.10 -0.11 4843
0.09 -0.01 1.33 -0.98 11.18 0.54 0.12 -0.14 4849
0.10 -0.01 1.36 -1.13 11.07 0.77 0.17 -0.17 4855
0.12 -0.01 1.29 -1.04 11.83 1.03 0.22 -0.20 4861
0.11 -0.01 1.34 -1.17 12.15 1.26 0.27 -0.22 4869
0.09 -0.00 1.42 -1.32 12.45 1.47 0.29 -0.24 4875
0.11 -0.01 1.02 -1.39 12.88 1.66 0.32 -0.25 4881
0.08 -0.01 0.55 -1.44 12.78 1.79 0.31 -0.25 4887
0.06 -0.00 0.98 -1.62 13.14 1.95 0.40 -0.23 4893
0.07 -0.01 0.92 -1.56 13.47 2.09 0.58 -0.21 4900
0.06 -0.01 1.15 -1.70 14.44 2.23 0.85 -0.19 4907
0.05 0.00 0.68 -1.89 14.53 2.37 1.25 -0.16 4913
0.06 -0.01 0.63 -2.22 14.19 2.43 1.75 -0.09 4919
0.05 -0.00 0.69 -1.80 14.47 2.43 2.28 -0.03 4925
0.05 -0.00 0.55 -2.71 15.38 2.48 2.82 0.09 4931
0.05 -0.01 0.77 -3.27 15.51 2.44 3.28 0.20 4938
0.05 -0.00 0.91 -3.88 16.01 2.38 3.67 0.33 4944
0.05 -0.00 0.71 -4.47 16.25 2.35 3.97 0.47 4951
0.07 -0.01 -0.47 -4.71 17.12 2.30 4.12 0.62 4957
0.05 -0.00 -0.18 -4.70 16.61 2.26 4.22 0.74 4963
0.04 -0.00 -0.62 -4.22 16.13 2.26 4.22 0.81 4969
0.05 0.00 -0.53 -3.96 15.68 2.34 4.14 0.87 4975
0.05 -0.01 -1.11 -3.33 15.60 2.43 3.96 0.92 4982
0.04 -0.00 -2.34 -3.15 14.53 2.45 3.58 0.98 4988
0.06 -0.00 -4.22 -2.28 12.61 2.35 3.32 1.11 4995
0.05 -0.00 -7.50 0.45 10.70 2.17 2.85 1.21 5001
0.05 -0.00 -10.77 1.41 8.27 1.90 1.87 1.06 5007
0.04 0.01 -17.39 3.81 7.84 1.59 0.56 0.44 5014
0.05 -0.00 -18.61 5.08 13.07 0.94 -1.21 -0.50 5020
0.04 -0.00 -11.21 5.68 15.27 -0.07 -2.54 -1.09 5026
0.04 0.00 -4.40 4.28 15.74 -0.83 -3.00 -1.46 5032
0.05 -0.00 -2.70 2.18 13.15 -1.22 -3.09 -1.87 5039
0.04 -0.00 -2.10 1.17 10.37 -1.34 -2.94 -2.31 5046
0.04 0.01 -1.54 0.22 7.41 -1.34 -2.73 -2.65 5052
0.03 -0.00 -1.12 -0.13 5.82 -1.23 -2.70 -2.94 5058
0.04 -0.00 -0.49 -0.11 5.80 -1.04 -2.76 -3.08 5064
0.03 -0.00 0.16 -0.01 6.89 -0.82 -2.82 -3.08 5070
0.05 -0.01 1.28 0.71 8.22 -0.66 -2.88 -2.95 5076
0.04 -0.00 2.94 1.65 9.38 -0.53 -2.93 -2.74 5083
0.03 -0.00 3.68 2.25 9.84 -0.51 -2.99 -2.46 5089
0.03 -0.00 4.90 2.82 9.24 -0.56 -3.03 -2.15 5095
0.04 -0.00 5.73 3.03 9.74 -0.65 -3.05 -1.77 5102
0.03 -0.00 6.57 3.10 9.72 -0.75 -3.03 -1.39 5108
0.03 -0.00 7.36 3.11 9.98 -0.87 -2.95 -1.01 5114
0.03 -0.00 7.87 2.91 9.99 -0.93 -2.82 -0.64 5121
0.04 -0.00 8.21 2.64 9.76 -1.03 -2.66 -0.29 5127
0.03 -0.00 8.38 2.36 9.51 -1.11 -2.45 0.01 5133
0.02 -0.00 8.56 1.93 8.15 -1.18 -2.24 0.27 5139
0.03 -0.00 8.59 1.39 9.02 -1.22 -2.03 0.52 5145
0.04 -0.00 8.35 0.87 8.75 -1.22 -1.83 0.75 5151
0.03 -0.00 8.18 0.43 8.58 -1.17 -1.63 0.94 5158
0.02 -0.00 8.13 0.02 8.74 -1.17 -1.45 1.10 5165
0.03 0.01 8.01 -0.21 8.74 -1.14 -1.30 1.23 5171
0.04 -0.00 7.86 -0.46 8.78 -1.11 -1.10 1.31 5177
0.03 -0.00 7.61 -0.71 8.77 -1.10 -0.90 1.39 5183
0.02 -0.00 7.22 -0.90 8.80 -1.09 -0.71 1.43 5189
0.03 0.00 6.67 -1.05 8.98 -1.08 -0.55 1.44 5195
0.03 -0.00 6.19 -1.06 9.02 -1.04 -0.41 1.42 5201
0.03 -0.00 5.84 -1.08 9.52 -1.07 -0.28 1.38 5209
0.02 -0.00 5.32 -0.97 9.82 -1.09 -0.23 1.31 5215
0.03 -0.00 4.84 -0.79 10.21 -1.12 -0.16 1.21 5221
0.03 -0.00 4.43 -0.60 10.96 -1.19 -0.13 1.14 5227
0.02 -0.00 4.11 -0.56 10.54 -1.27 -0.09 1.03 5233
0.03 0.01 3.89 -0.60 10.69 -1.36 -0.07 0.90 5239
0.03 -0.00 3.72 -0.88 10.83 -1.44 -0.07 0.78 5245
0.03 -0.00 3.63 -1.14 10.82 -1.53 -0.08 0.66 5253
0.03 0.01 3.55 -1.57 10.72 -1.55 -0.10 0.56 5259
0.03 -0.00 3.52 -2.13 10.59 -1.58 -0.13 0.47 5265
0.03 -0.00 3.60 -2.62 10.50 -1.59 -0.20 0.39 5271
0.03 -0.00 3.73 -2.98 10.26 -1.58 -0.20 0.33 5277
0.04 -0.00 3.88 -3.52 10.10 -1.54 -0.22 0.28 5283
0.03 -0.00 4.11 -3.92 9.92 -1.50 -0.24 0.24 5291
0.03 -0.00 4.33 -4.27 9.83 -1.44 -0.23 0.21 5297
0.03 -0.00 4.67 -4.49 9.84 -1.37 -0.18 0.19 5303
0.04 -0.00 5.13 -4.51 10.12 -1.28 -0.07 0.18 5309
0.03 -0.00 5.53 -4.47 10.41 -1.26 0.09 0.20 5315
0.03 -0.00 5.58 -4.42 10.63 -1.24 0.30 0.23 5321
0.03 -0.00 5.16 -4.42 10.49 -1.23 0.49 0.29 5327
0.02 -0.00 4.33 -4.48 10.31 -1.23 0.66 0.39 5335
0.02 -0.00 3.29 -4.82 9.96 -1.19 0.74 0.42 5341
0.03 -0.00 2.47 -5.43 9.39 -1.14 0.71 0.46 5347
0.03 -0.00 1.76 -5.91 8.79 -1.04 0.61 0.46 5353
0.03 -0.00 1.02 -6.28 8.24 -0.93 0.53 0.39 5359
0.02 -0.00 0.45 -6.50 8.17 -0.79 0.48 0.26 5365
0.02 -0.00 0.10 -6.68 8.45 -0.64 0.47 0.05 5371
0.03 -0.00 0.23 -6.79 9.01 -0.53 0.50 -0.17 5378
0.03 -0.00 0.63 -6.69 9.79 -0.47 0.55 -0.45 5384
0.03 -0.00 1.00 -6.67 10.38 -0.47 0.60 -0.72 5391
0.03 -0.00 1.35 -6.73 10.55 -0.56 0.62 -0.96 5397
0.03 -0.00 1.63 -6.69 10.21 -0.61 0.58 -1.15 5403
0.03 -0.00 2.12 -6.59 9.54 -0.70 0.52 -1.29 5409
0.04 -0.00 2.56 -6.63 8.56 -0.76 0.48 -1.38 5415
0.04 -0.00 3.10 -6.74 7.16 -0.75 0.48 -1.47 5422
0.02 -0.00 3.68 -6.76 6.32 -0.68 0.56 -1.46 5428
0.01 -0.00 4.20 -6.67 5.72 -0.58 0.66 -1.46 5434
0.03 -0.00 5.03 -8.32 4.98 -0.47 0.76 -1.40 5441
0.03 -0.00 -11.79 -18.99 40.20 1.04 -0.16 -0.85 5447
0.03 -0.00 -2.57 -14.55 -11.01 1.32 -0.33 -0.64 5453
0.04 0.02 -3.43 -34.69 0.41 1.88 -1.66 -0.23 5459
0.04 0.10 -19.00 -33.78 46.67 0.75 -2.71 0.02 5467
0.02 0.19 -1.25 -5.77 13.15 -0.19 -0.15 0.30 5473
0.04 0.19 -1.75 -1.77 13.49 -0.15 0.07 0.05 5479
0.03 0.21 -0.43 0.23 10.65 -0.12 0.10 0.02 5485
0.04 0.18 0.94 0.39 10.27 -0.05 0.07 0.02 5491
0.06 0.22 1.91 0.89 10.25 -0.03 0.05 0.09 5498
0.05 0.21 1.29 0.45 10.14 -0.01 0.04 0.12 5505
0.04 0.28 0.70 -0.88 10.23 0.01 0.03 0.09 5511
0.05 0.24 0.79 -0.97 10.27 0.03 0.01 0.05 5517
0.05 0.24 0.83 -0.64 9.81 0.04 0.02 0.05 5523
0.05 0.26 0.51 -0.73 9.89 0.03 0.03 0.05 5529
0.07 0.24 0.47 -0.93 10.08 0.02 0.04 0.05 5536
0.06 0.22 0.70 -0.99 10.10 0.02 0.05 0.06 5542
0.07 0.21 0.83 -0.87 10.01 0.01 0.04 0.06 5549
0.07 0.22 0.81 -0.73 9.97 -0.00 0.03 0.06 5555
0.08 0.22 0.81 -0.71 10.13 -0.01 0.02 0.05 5561
0.08 0.22 0.88 -0.79 9.96 -0.01 0.01 0.04 5567
0.06 0.26 0.80 -0.74 10.03 -0.02 -0.01 0.04 5573
0.09 0.25 0.81 -0.78 10.06 -0.03 -0.03 0.03 5580
0.10 0.24 0.77 -0.71 10.03 -0.04 -0.04 0.04 5586
0.11 0.25 0.66 -0.73 10.13 -0.03 -0.04 0.05 5593
0.13 0.26 0.68 -0.72 10.18 -0.03 -0.03 0.05 5599
0.10 0.24 0.74 -0.70 10.03 -0.02 -0.02 0.05 5605
0.10 0.25 0.78 -0.75 10.01 -0.01 -0.02 0.05 5612
0.09 0.24 0.77 -0.71 9.96 -0.00 -0.01 0.05 5618
0.09 0.21 0.74 -0.73 9.99 0.00 -0.01 0.05 5624
0.09 0.22 0.73 -0.76 10.03 0.00 -0.01 0.05 5630
0.12 0.24 0.75 -0.73 10.12 0.00 -0.01 0.05 5637
0.11 0.22 0.71 -0.76 10.00 0.00 -0.01 0.04 5643
0.10 0.19 0.68 -0.74 10.01 0.01 -0.01 0.04 5650
0.10 0.19 0.76 -0.73 10.01 0.00 -0.01 0.05 5656
0.10 0.16 0.72 -0.75 10.00 0.01 -0.00 0.05 5662
0.10 0.15 0.76 -0.73 9.99 0.00 -0.01 0.05 5668
0.13 0.14 0.76 -0.72 10.02 0.01 -0.00 0.04 5675
0.13 0.14 0.74 -0.72 9.98 0.00 -0.00 0.04 5681
0.11 0.12 0.74 -0.74 10.03 0.01 0.00 0.04 5688
0.12 0.14 0.77 -0.74 10.07 0.01 0.00 0.04 5694
0.13 0.09 0.77 -0.74 9.90 0.01 -0.00 0.04 5700
0.13 0.08 0.76 -0.75 10.01 0.01 -0.00 0.04 5706
0.14 0.08 0.74 -0.75 10.01 0.02 0.00 0.04 5712
0.14 0.06 0.78 -0.75 9.98 0.01 0.00 0.04 5719
0.12 0.07 0.79 -0.76 9.99 0.02 0.00 0.04 5725
0.12 0.02 0.78 -0.78 10.01 0.02 0.00 0.04 5732
0.15 0.00 0.77 -0.79 9.93 0.01 0.01 0.05 5738
0.15 -0.00 0.81 -0.75 9.96 0.02 0.01 0.05 5744
0.14 -0.01 0.80 -0.78 10.01 0.02 0.01 0.05 5750
0.13 0.02 0.77 -0.76 9.95 0.01 0.01 0.05 5756
0.14 0.00 0.77 -0.77 9.97 0.01 0.02 0.05 5763
0.14 0.00 0.78 -0.77 9.94 0.01 0.01 0.05 5769
0.12 -0.00 0.80 -0.78 9.95 0.00 0.01 0.05 5776
0.15 0.01 0.79 -0.77 9.94 0.00 0.01 0.04 5782
0.15 -0.00 0.79 -0.79 9.94 -0.01 0.01 0.04 5788
0.13 -0.00 0.79 -0.77 9.95 -0.01 0.00 0.04 5794
0.11 0.00 0.83 -0.78 10.03 -0.02 0.00 0.04 5800
0.13 0.01 0.79 -0.80 9.98 -0.02 0.00 0.04 5807
0.12 0.01 0.81 -0.75 9.97 -0.02 0.00 0.04 5813
0.12 -0.01 0.80 -0.76 10.01 -0.02 0.00 0.04 5819
0.12 0.02 0.81 -0.78 9.95 -0.02 0.00 0.04 5826
0.12 0.04 0.84 -0.74 10.00 -0.02 0.00 0.04 5832
0.11 0.03 0.80 -0.74 9.97 -0.02 0.01 0.03 5838
0.10 0.05 0.84 -0.72 9.97 -0.02 0.01 0.04 5844
0.12 0.06 0.82 -0.75 10.00 -0.02 0.02 0.04 5851
0.10 0.06 0.83 -0.70 9.95 -0.01 0.02 0.04 5857
0.10 0.05 0.82 -0.72 10.04 -0.01 0.02 0.03 5863
0.10 0.06 0.82 -0.74 9.98 -0.01 0.01 0.04 5870
0.11 0.05 0.85 -0.74 9.96 -0.01 0.01 0.04 5876
0.09 0.05 0.86 -0.72 9.96 -0.02 0.02 0.04 5882
0.09 0.07 0.89 -0.73 10.00 -0.02 0.01 0.04 5889
0.10 0.07 0.88 -0.76 10.01 -0.01 0.01 0.04 5895
0.09 0.07 0.86 -0.77 9.96 -0.01 0.01 0.07 5901
0.09 0.05 0.88 -0.74 9.97 -0.02 0.01 0.04 5907
0.09 0.07 0.88 -0.77 10.02 -0.02 0.01 0.04 5914
0.09 0.05 0.88 -0.73 9.99 -0.01 -0.00 0.04 5920
0.09 0.04 0.91 -0.74 9.97 -0.01 -0.01 0.03 5926
0.08 0.05 0.91 -0.76 9.96 -0.02 -0.01 0.03 5933
0.09 0.05 0.87 -0.74 9.97 -0.01 -0.01 0.03 5939
0.09 0.05 0.90 -0.73 9.94 -0.01 -0.02 0.03 5945
0.06 0.04 0.87 -0.75 9.96 -0.02 -0.02 0.03 5951
0.08 0.05 0.87 -0.74 9.96 -0.02 -0.02 0.03 5957
0.10 0.06 0.88 -0.76 9.98 -0.02 -0.02 0.02 5964
0.08 0.06 0.86 -0.73 9.97 -0.02 -0.02 0.02 5970
0.07 0.05 0.87 -0.72 9.98 -0.01 -0.02 0.03 5977
0.09 0.06 0.89 -0.73 10.00 -0.02 -0.02 0.03 5983
0.09 0.05 0.88 -0.73 9.99 -0.02 -0.03 0.02 5989
0.09 0.03 0.86 -0.73 9.96 -0.02 -0.03 0.02 5995
0.08 0.05 0.89 -0.73 9.95 -0.02 -0.03 0.02 6001
0.09 0.07 0.89 -0.76 9.97 -0.02 -0.03 0.02 6008
0.09 0.05 0.90 -0.79 9.96 -0.02 -0.03 0.02 6014
0.08 0.05 0.89 -0.73 9.96 -0.02 -0.03 0.02 6021
0.08 0.08 0.88 -0.74 9.96 -0.02 -0.03 0.02 6027
0.09 0.07 0.87 -0.75 10.01 -0.02 -0.03 0.02 6033
0.09 0.05 0.86 -0.77 9.94 -0.02 -0.03 0.02 6039
0.09 0.06 0.89 -0.76 9.96 -0.02 -0.03 0.02 6045
0.11 0.06 0.88 -0.73 9.97 -0.02 -0.02 0.02 6051
0.10 0.05 0.87 -0.73 9.99 -0.02 -0.02 0.02 6059
0.09 0.04 0.88 -0.71 9.98 -0.02 -0.02 0.02 6065
0.09 0.06 0.88 -0.74 10.01 -0.02 -0.03 0.03 6071
0.10 0.05 0.89 -0.76 9.97 -0.02 -0.03 0.03 6077
0.09 0.04 0.91 -0.74 10.02 -0.02 -0.03 0.03 6083
0.09 0.05 0.90 -0.75 10.02 -0.01 -0.03 0.03 6089
0.11 0.07 0.89 -0.74 10.02 -0.02 -0.03 0.03 6096
0.10 0.05 0.93 -0.74 10.00 -0.01 -0.03 0.03 6103
0.09 0.07 0.90 -0.71 10.00 -0.01 -0.03 0.03 6109
0.11 0.06 0.88 -0.73 9.98 -0.02 -0.03 0.03 6115
0.10 0.06 0.90 -0.76 9.98 -0.01 -0.04 0.03 6121
0.08 0.06 0.90 -0.70 10.04 -0.01 -0.04 0.03 6127
0.09 0.07 0.92 -0.76 10.01 -0.01 -0.04 0.03 6134
0.09 0.06 0.93 -0.77 10.01 -0.00 -0.04 0.04 6140
0.08 0.05 0.94 -0.75 9.96 -0.00 -0.04 0.04 6147
0.09 0.06 0.89 -0.75 10.02 -0.00 -0.04 0.04 6153
0.10 0.04 0.91 -0.75 10.01 -0.00 -0.02 0.04 6159
0.09 0.02 0.89 -0.73 10.09 -0.00 -0.02 0.04 6165
0.09 0.01 0.92 -0.78 9.99 0.00 -0.01 0.04 6171
0.10 0.00 0.96 -0.79 10.06 0.01 0.00 0.04 6178
0.09 0.00 1.13 -0.71 10.07 0.01 0.01 0.04 6184
0.08 0.01 1.06 -0.78 10.05 0.02 0.01 0.04 6191
0.09 0.01 1.01 -0.84 10.10 0.03 0.02 0.03 6197
0.09 -0.00 0.95 -0.71 10.20 0.04 0.03 0.03 6203
0.08 -0.01 1.25 -0.74 10.09 0.06 0.03 0.02 6209
0.08 -0.01 1.17 -0.88 10.07 0.08 0.04 0.01 6215
0.08 -0.00 1.22 -0.87 10.14 0.11 0.04 -0.01 6222
0.08 -0.01 1.05 -0.93 10.04 0.15 0.04 -0.03 6228
0.06 -0.01 1.26 -0.66 10.49 0.21 0.02 -0.05 6235
0.08 -0.01 1.56 -0.79 10.69 0.32 0.05 -0.10 6241
0.06 -0.01 1.09 -0.87 11.81 0.59 0.17 -0.15 6247
0.04 -0.00 1.28 -0.63 13.22 0.92 0.48 -0.19 6253
0.06 -0.00 0.64 -0.86 14.62 1.36 1.05 -0.24 6260
0.06 -0.01 0.89 -0.99 14.60 1.60 1.47 -0.24 6266
0.04 -0.00 0.90 -1.84 14.15 1.66 1.84 -0.22 6273
0.04 -0.00 0.84 -1.60 13.89 1.67 2.13 -0.17 6279
0.04 -0.00 0.71 -1.74 13.60 1.67 2.39 -0.11 6285
0.03 -0.00 0.74 -1.83 13.86 1.66 2.54 -0.05 6291
0.04 -0.00 0.55 -2.29 14.04 1.67 2.73 0.06 6297
0.06 -0.01 0.88 -2.63 14.32 1.68 2.92 0.15 6304
0.04 -0.00 0.63 -2.84 14.36 1.69 3.05 0.24 6310
0.04 -0.00 0.54 -3.23 14.25 1.69 3.12 0.34 6317
0.05 -0.00 0.21 -3.25 13.88 1.73 3.09 0.43 6323
0.05 -0.01 0.50 -2.70 13.37 1.76 3.03 0.53 6329
0.06 -0.01 0.81 -2.44 13.04 1.79 2.94 0.56 6335
0.05 0.01 1.21 -2.19 12.45 1.82 2.85 0.59 6342
0.05 -0.00 1.04 -2.23 11.93 1.88 2.79 0.60 6348
0.04 -0.00 -0.09 -1.94 11.41 1.96 2.70 0.61 6354
0.05 -0.00 -1.35 -1.21 10.33 1.99 2.57 0.66 6361
0.05 -0.01 -3.75 -0.04 9.51 1.97 2.16 0.68 6367
0.03 -0.00 -6.40 1.64 8.81 1.88 1.48 0.60 6373
0.04 -0.00 -7.84 3.08 7.73 1.71 0.74 0.42 6379
0.05 0.00 -10.15 3.10 8.62 1.45 -0.25 0.10 6386
0.05 -0.00 -15.27 6.37 12.49 1.01 -1.41 -0.54 6392
0.04 -0.00 -8.67 5.10 13.09 0.60 -2.20 -1.11 6398
0.04 0.00 -4.32 4.59 13.16 0.26 -2.58 -1.46 6405
0.05 -0.00 -3.61 4.87 13.08 -0.00 -2.54 -1.77 6411
0.04 -0.00 -2.22 4.80 11.90 -0.24 -2.40 -2.11 6417
0.04 -0.00 -1.07 4.20 10.77 -0.43 -2.45 -2.35 6424
0.05 -0.00 -0.28 3.90 10.63 -0.55 -2.54 -2.45 6430
0.03 -0.00 0.26 3.55 11.22 -0.66 -2.58 -2.45 6436
0.04 -0.00 1.10 3.24 11.62 -0.74 -2.62 -2.37 6443
0.04 -0.00 2.09 3.01 11.88 -0.82 -2.67 -2.21 6449
0.03 -0.00 3.11 2.85 11.07 -0.93 -2.70 -2.05 6455
0.02 -0.00 4.14 2.32 11.16 -1.04 -2.72 -1.83 6462
0.04 -0.00 5.24 1.98 10.64 -1.12 -2.75 -1.57 6468
0.04 -0.00 6.02 1.66 10.45 -1.18 -2.75 -1.30 6474
0.02 -0.00 6.52 1.13 10.10 -1.21 -2.68 -1.02 6480
0.04 0.00 7.03 0.71 9.66 -1.21 -2.57 -0.76 6487
0.03 -0.00 7.55 0.31 9.28 -1.19 -2.40 -0.50 6493
0.03 -0.00 8.15 0.19 8.78 -1.15 -2.23 -0.24 6499
0.02 -0.00 7.86 -0.04 8.80 -1.10 -1.98 -0.02 6506
0.04 0.00 7.81 -0.03 8.90 -1.05 -1.70 0.22 6512
0.03 -0.00 7.55 -0.04 9.07 -1.00 -1.42 0.45 6518
0.03 -0.00 7.06 -0.13 9.13 -0.98 -1.17 0.68 6524
0.03 -0.00 6.40 -0.36 8.99 -0.95 -0.94 0.90 6531
0.03 -0.00 5.83 -0.60 9.14 -0.90 -0.80 1.09 6537
0.04 -0.00 5.40 -0.86 9.44 -0.86 -0.68 1.27 6543
0.03 -0.00 4.99 -1.03 9.62 -0.80 -0.59 1.38 6549
0.02 -0.00 4.68 -1.18 9.49 -0.76 -0.50 1.51 6555
0.02 0.00 4.39 -1.26 9.39 -0.73 -0.41 1.58 6561
0.03 -0.00 4.13 -1.37 9.27 -0.71 -0.34 1.63 6568
0.03 -0.00 3.75 -1.51 9.19 -0.67 -0.23 1.63 6575
0.03 -0.00 3.48 -1.59 9.07 -0.64 -0.19 1.61 6581
0.04 -0.00 3.17 -1.54 9.19 -0.60 -0.14 1.57 6587
0.03 -0.00 3.08 -1.44 9.66 -0.58 -0.09 1.51 6593
0.02 -0.00 2.94 -1.39 9.95 -0.58 -0.04 1.45 6599
0.02 -0.00 2.66 -1.31 10.10 -0.60 0.00 1.38 6605
0.04 -0.00 2.50 -1.21 10.12 -0.64 0.00 1.33 6611
0.03 -0.00 1.88 -1.16 10.07 -0.69 -0.01 1.27 6619
0.02 -0.00 2.39 -1.15 9.95 -0.74 -0.04 1.21 6625
0.03 -0.00 2.41 -1.11 10.00 -0.79 -0.08 1.17 6631
0.03 -0.00 2.50 -1.12 9.91 -0.83 -0.10 1.12 6637
0.02 -0.00 2.57 -1.37 10.01 -0.88 -0.11 1.07 6643
0.02 -0.00 2.82 -1.75 10.41 -0.93 -0.13 1.01 6649
0.04 -0.00 3.12 -2.18 10.63 -1.00 -0.16 0.95 6656
0.03 -0.00 3.41 -2.64 10.52 -1.02 -0.18 0.88 6663
0.02 -0.00 3.61 -3.07 10.18 -1.08 -0.20 0.81 6669
0.03 -0.00 3.79 -3.43 9.85 -1.11 -0.21 0.74 6675
0.03 -0.00 3.95 -3.79 9.51 -1.12 -0.21 0.65 6681
0.03 -0.00 4.12 -4.24 9.18 -1.12 -0.20 0.60 6687
0.03 -0.00 4.34 -4.48 8.72 -1.08 -0.18 0.52 6693
0.04 -0.00 4.62 -4.52 8.42 -1.03 -0.14 0.43 6700
0.03 -0.00 4.78 -4.52 8.14 -0.94 -0.07 0.35 6706
0.03 -0.00 4.90 -4.67 7.87 -0.90 0.01 0.29 6712
0.01 -0.00 4.95 -4.70 7.70 -0.81 0.13 0.23 6719
0.02 0.00 4.91 -4.78 7.54 -0.71 0.26 0.19 6725
0.03 -0.00 4.79 -4.82 7.49 -0.61 0.38 0.15 6731
0.03 -0.00 4.61 -4.58 7.98 -0.52 0.46 0.10 6737
0.02 -0.00 4.49 -4.29 8.49 -0.47 0.51 0.04 6744
0.03 -0.00 4.44 -4.19 8.79 -0.45 0.53 -0.03 6750
0.03 -0.00 4.49 -4.20 8.84 -0.48 0.53 -0.13 6756
0.03 -0.00 4.53 -4.32 8.48 -0.52 0.50 -0.24 6762
0.02 -0.00 4.58 -4.56 7.99 -0.56 0.50 -0.38 6768
0.03 0.00 4.55 -4.82 7.20 -0.59 0.52 -0.55 6775
0.03 -0.00 4.45 -5.05 6.43 -0.57 0.57 -0.75 6781
0.04 -0.00 -7.63 -55.07 26.25 0.44 0.26 -0.81 6788
0.02 0.00 9.12 1.97 -3.08 1.97 0.16 -0.87 6794
0.03 -0.00 -7.51 -29.58 7.86 1.15 -1.45 -1.27 6800
0.03 0.01 -8.98 -57.04 27.25 0.17 -3.02 -1.52 6806
0.04 0.11 -3.25 -1.63 9.68 -0.16 -0.09 -0.10 6813
0.04 0.13 3.16 -6.64 9.75 -0.12 -0.14 0.09 6819
0.04 0.14 -0.92 -0.23 11.63 -0.19 0.04 0.04 6825
0.05 0.17 0.03 -0.20 10.27 -0.14 0.10 0.04 6832
0.05 0.16 0.20 -0.02 10.10 -0.10 0.11 0.04 6838
0.04 0.20 0.59 0.76 10.80 -0.11 0.11 0.05 6845
0.03 0.28 0.47 -0.19 9.84 -0.11 0.10 0.09 6851
0.04 0.33 0.72 -0.79 10.06 -0.08 0.08 0.12 6857
0.04 0.36 1.14 -0.69 10.21 -0.05 0.07 0.13 6863
0.04 0.42 0.89 -0.79 10.13 -0.04 0.06 0.12 6870
0.04 0.43 0.77 -0.54 10.04 -0.03 0.05 0.11 6876
0.03 0.43 0.69 -0.78 10.20 -0.03 0.07 0.10 6883
0.05 0.41 0.60 -0.74 10.13 -0.03 0.08 0.09 6889
0.05 0.42 0.67 -0.82 10.20 -0.02 0.09 0.09 6895
0.04 0.39 0.68 -0.82 10.08 -0.02 0.10 0.08 6901
0.04 0.41 0.68 -0.75 10.14 -0.02 0.11 0.09 6907
0.05 0.46 0.71 -0.62 10.13 -0.01 0.12 0.08 6915
0.03 0.48 0.83 -0.69 9.99 -0.02 0.12 0.07 6921
0.03 0.45 0.91 -0.72 10.09 -0.02 0.11 0.07 6927
0.04 0.49 0.87 -0.67 10.00 -0.02 0.10 0.06 6933
0.04 0.46 0.85 -0.64 10.03 -0.03 0.10 0.06 6939
0.03 0.53 0.80 -0.69 10.17 -0.02 0.10 0.06 6946
0.04 0.49 0.80 -0.66 10.10 -0.01 0.10 0.06 6952
0.02 0.52 0.76 -0.66 10.09 -0.01 0.10 0.07 6959
0.03 0.52 0.79 -0.63 10.01 -0.00 0.09 0.08 6965
0.03 0.49 0.79 -0.74 10.08 -0.00 0.08 0.09 6971
0.03 0.49 0.85 -0.66 10.03 -0.00 0.07 0.08 6977
0.03 0.55 0.80 -0.68 10.00 -0.00 0.07 0.08 6984
0.03 0.56 0.68 -0.71 10.03 -0.01 0.06 0.08 6990
0.03 0.48 0.81 -0.72 10.04 -0.01 0.07 0.08 6996
0.02 0.51 0.83 -0.70 10.03 -0.02 0.08 0.09 7003
0.02 0.55 0.83 -0.71 10.00 -0.02 0.07 0.09 7009
0.02 0.49 0.80 -0.71 10.04 -0.03 0.07 0.09 7016
0.03 0.55 0.84 -0.68 9.95 -0.03 0.07 0.09 7022
0.04 0.58 0.90 -0.65 9.99 -0.03 0.08 0.09 7028
0.03 0.63 0.86 -0.63 10.04 -0.03 0.07 0.09 7034
0.02 0.63 0.94 -0.63 9.96 -0.02 0.07 0.08 7041
0.03 0.62 0.89 -0.62 9.98 -0.02 0.07 0.09 7047
0.02 0.60 0.91 -0.64 10.00 -0.01 0.06 0.08 7053
0.01 0.60 0.92 -0.68 10.03 -0.01 0.06 0.08 7060
0.02 0.60 0.90 -0.65 9.96 -0.01 0.06 0.08 7066
0.03 0.59 0.91 -0.64 9.98 -0.01 0.06 0.07 7072
0.02 0.53 0.92 -0.66 9.98 -0.02 0.06 0.07 7078
0.03 0.53 0.97 -0.64 9.96 -0.02 0.05 0.07 7085
0.04 0.53 0.92 -0.63 9.97 -0.02 0.05 0.06 7091
0.03 0.52 0.92 -0.67 9.96 -0.02 0.05 0.06 7097
0.01 0.53 0.96 -0.70 9.96 -0.02 0.06 0.05 7104
0.01 0.54 0.94 -0.71 10.02 -0.03 0.07 0.05 7110
0.02 0.52 0.97 -0.73 10.02 -0.03 0.08 0.06 7116
0.01 0.52 1.03 -0.69 9.95 -0.04 0.07 0.06 7122
0.02 0.54 0.99 -0.73 10.01 -0.03 0.07 0.06 7129
0.03 0.53 1.04 -0.70 9.95 -0.04 0.07 0.05 7135
0.02 0.53 1.01 -0.67 9.99 -0.04 0.06 0.05 7142
0.02 0.56 1.01 -0.70 10.01 -0.04 0.06 0.05 7148
0.02 0.55 1.00 -0.67 9.98 -0.04 0.07 0.05 7154
0.02 0.54 1.05 -0.67 10.02 -0.04 0.06 0.04 7160
0.03 0.56 1.05 -0.64 9.94 -0.04 0.06 0.04 7166
0.03 0.58 1.08 -0.62 9.93 -0.04 0.06 0.04 7173
0.02 0.60 1.08 -0.66 9.89 -0.03 0.05 0.03 7179
0.01 0.58 1.04 -0.64 9.92 -0.03 0.04 0.02 7186
0.02 0.60 1.09 -0.60 9.95 -0.03 0.03 0.02 7192
0.03 0.61 1.09 -0.61 9.98 -0.03 0.02 0.02 7198
0.02 0.61 1.09 -0.63 10.01 -0.02 0.02 0.02 7204
0.01 0.60 1.06 -0.70 10.01 -0.02 0.03 0.02 7211
0.02 0.60 1.08 -0.69 10.01 -0.03 0.03 0.01 7217
0.02 0.59 1.10 -0.66 10.00 -0.03 0.03 0.01 7224
0.01 0.59 1.10 -0.64 9.97 -0.02 0.02 0.00 7230
0.02 0.59 1.12 -0.65 9.94 -0.03 0.01 -0.00 7236
0.02 0.56 1.13 -0.69 9.98 -0.03 0.00 -0.00 7242
0.02 0.54 1.14 -0.65 9.97 -0.02 -0.00 -0.01 7248
0.02 0.55 1.13 -0.71 9.98 -0.02 -0.01 -0.01 7255
0.03 0.55 1.17 -0.69 9.99 -0.03 -0.01 -0.01 7261
0.02 0.52 1.12 -0.69 9.94 -0.02 -0.01 -0.01 7268
0.01 0.52 1.13 -0.70 9.96 -0.03 -0.01 -0.01 7274
0.02 0.53 1.17 -0.68 9.99 -0.02 -0.02 -0.01 7280
0.03 0.52 1.14 -0.65 9.90 -0.02 -0.02 -0.01 7286
0.02 0.52 1.18 -0.65 9.95 -0.01 -0.04 -0.02 7292
0.02 0.50 1.12 -0.64 9.96 -0.01 -0.05 -0.02 7299
0.03 0.47 1.12 -0.65 9.95 -0.01 -0.06 -0.02 7305
0.03 0.47 1.12 -0.64 9.92 -0.01 -0.07 -0.03 7312
0.02 0.46 1.15 -0.66 9.88 -0.00 -0.08 -0.03 7318
0.04 0.46 1.13 -0.68 10.00 -0.01 -0.09 -0.03 7324
0.02 0.46 1.14 -0.71 10.02 -0.01 -0.09 -0.03 7330
0.02 0.47 1.12 -0.67 10.01 -0.01 -0.10 -0.03 7336
0.03 0.49 1.13 -0.70 9.97 -0.01 -0.10 -0.03 7343
0.02 0.44 1.11 -0.68 10.00 -0.02 -0.10 -0.03 7350
0.01 0.42 1.14 -0.69 9.95 -0.01 -0.10 -0.03 7356
0.02 0.44 1.13 -0.68 9.95 -0.01 -0.10 -0.03 7362
0.02 0.45 1.09 -0.64 9.95 -0.01 -0.09 -0.03 7368
0.02 0.42 1.14 -0.64 9.95 -0.01 -0.09 -0.03 7374
0.02 0.42 1.05 -0.60 9.98 -0.01 -0.09 -0.03 7380
0.02 0.43 1.10 -0.67 9.90 -0.00 -0.09 -0.03 7387
0.02 0.39 1.08 -0.66 9.98 -0.00 -0.09 -0.02 7394
0.02 0.39 1.12 -0.65 9.92 0.00 -0.09 -0.02 7400
0.03 0.41 1.05 -0.69 9.97 0.00 -0.09 -0.02 7406
0.02 0.40 1.07 -0.68 10.02 0.01 -0.09 -0.01 7412
0.02 0.37 1.06 -0.69 9.98 0.00 -0.09 -0.01 7418
0.02 0.38 1.02 -0.67 9.99 0.00 -0.09 -0.01 7425
0.03 0.41 1.03 -0.72 10.04 0.01 -0.09 -0.01 7432
0.03 0.36 1.06 -0.68 10.02 0.01 -0.09 -0.01 7438
0.02 0.34 1.01 -0.66 10.05 0.01 -0.08 -0.00 7444
0.04 0.34 1.01 -0.68 10.03 0.01 -0.07 0.00 7450
0.03 0.34 1.04 -0.66 10.00 0.00 -0.06 -0.00 7456
0.03 0.36 1.03 -0.65 10.06 0.00 -0.07 0.00 7462
0.04 0.33 1.03 -0.67 10.00 -0.00 -0.06 0.00 7470
0.04 0.33 1.02 -0.73 10.03 -0.00 -0.06 0.01 7476
0.03 0.34 0.97 -0.71 9.98 -0.01 -0.05 0.01 7482
0.04 0.32 1.02 -0.71 9.99 -0.01 -0.04 0.01 7488
0.03 0.31 1.04 -0.68 10.01 -0.01 -0.04 0.01 7494
0.02 0.33 1.03 -0.68 10.01 -0.01 -0.04 0.02 7500
0.04 0.32 1.00 -0.65 10.04 -0.01 -0.03 0.02 7507
0.04 0.28 1.01 -0.66 10.02 -0.01 -0.03 0.01 7514
0.02 0.25 1.05 -0.62 10.00 -0.01 -0.03 0.02 7520
0.04 0.28 1.00 -0.65 9.98 -0.01 -0.03 0.02 7526
0.04 0.27 1.04 -0.67 10.02 -0.01 -0.02 0.02 7532
0.03 0.26 1.03 -0.67 10.03 -0.01 -0.02 0.02 7538
0.04 0.28 1.03 -0.68 10.05 -0.00 -0.01 0.02 7545
0.04 0.22 1.02 -0.66 10.01 -0.00 -0.01 0.03 7552
0.03 0.17 1.10 -0.70 9.98 0.00 -0.01 0.03 7558
0.04 0.18 1.06 -0.56 10.02 0.00 -0.01 0.02 7564
0.04 0.13 1.08 -0.54 9.98 0.01 -0.01 0.02 7570
0.04 0.14 1.14 -0.64 9.99 0.01 -0.01 0.02 7576
0.04 0.12 1.15 -0.70 10.05 0.02 -0.02 0.02 7583
0.06 0.05 1.27 -0.64 9.98 0.03 -0.02 0.01 7589
0.05 0.06 1.19 -0.76 10.04 0.04 -0.03 0.01 7596
0.04 0.02 1.48 -0.74 9.81 0.03 -0.02 -0.01 7602
0.05 0.03 1.13 -0.65 9.97 0.05 -0.03 -0.02 7608
0.04 -0.00 0.84 -0.61 10.12 0.07 -0.04 -0.03 7614
0.05 -0.00 1.21 -0.68 10.10 0.09 -0.05 -0.05 7620
0.04 -0.00 1.40 -0.77 10.22 0.12 -0.06 -0.08 7626
0.06 -0.01 1.43 -0.74 10.35 0.16 -0.08 -0.13 7633
0.05 -0.00 1.69 -0.80 10.32 0.24 -0.06 -0.20 7640
0.04 -0.00 1.61 -0.37 10.67 0.38 0.00 -0.27 7646
0.05 -0.01 1.88 0.10 7.70 0.65 0.14 -0.37 7652
0.06 -0.01 2.18 -0.70 13.77 1.01 0.65 -0.46 7658
0.04 -0.00 2.22 -0.33 15.06 1.54 1.20 -0.59 7664
0.04 -0.00 1.21 -0.68 13.69 1.76 1.62 -0.64 7670
0.06 -0.01 1.24 -0.90 12.75 1.74 1.76 -0.60 7677
0.04 -0.00 0.28 -1.53 13.32 1.71 1.89 -0.50 7684
0.03 -0.00 0.75 -1.52 13.05 1.70 2.01 -0.41 7690
0.04 0.01 0.81 -1.71 13.09 1.70 2.18 -0.33 7696
0.05 -0.00 0.69 -1.99 13.24 1.69 2.36 -0.24 7702
0.04 -0.00 1.07 -2.19 13.39 1.68 2.55 -0.14 7708
0.04 0.01 1.12 -2.57 13.77 1.67 2.74 -0.04 7715
0.05 -0.00 0.81 -2.86 13.82 1.67 2.85 0.05 7721
0.04 -0.00 0.80 -3.25 14.07 1.66 2.98 0.13 7728
0.04 -0.00 0.39 -3.66 14.22 1.68 3.07 0.23 7734
0.06 -0.01 0.90 -3.06 13.92 1.68 3.16 0.28 7740
0.05 -0.01 1.07 -2.79 13.65 1.70 3.22 0.35 7746
0.04 -0.00 1.10 -2.55 13.70 1.75 3.29 0.40 7753
0.04 -0.00 0.55 -2.68 13.38 1.78 3.38 0.46 7759
0.04 -0.00 -0.61 -2.50 12.64 1.76 3.40 0.53 7766
0.05 -0.00 -2.08 -2.39 11.24 1.71 3.34 0.63 7772
0.05 -0.00 -4.97 -1.30 9.73 1.61 2.99 0.70 7778
0.04 -0.00 -8.51 0.12 7.90 1.52 2.42 0.59 7784
0.03 -0.00 -16.03 1.78 10.33 1.34 1.40 0.17 7790
0.02 -0.00 -19.95 3.36 11.92 0.99 -0.16 -0.62 7797
0.04 -0.00 -17.03 4.01 14.40 0.41 -1.76 -1.36 7803
0.03 -0.00 -7.94 2.77 14.44 -0.09 -2.55 -1.80 7810
0.02 -0.00 -4.16 2.16 14.32 -0.43 -2.72 -2.06 7816
0.05 -0.00 -3.61 2.15 13.68 -0.63 -2.52 -2.40 7822
0.03 -0.00 -2.53 2.15 11.65 -0.76 -2.33 -2.81 7828
0.03 -0.00 -1.67 1.79 10.05 -0.80 -2.34 -3.12 7835
0.04 -0.00 -1.89 1.11 9.39 -0.81 -2.42 -3.24 7841
0.03 -0.00 -2.37 0.61 9.82 -0.77 -2.43 -3.19 7847
0.02 -0.00 -2.22 0.71 9.93 -0.71 -2.49 -3.00 7854
0.03 -0.00 -1.17 1.62 9.92 -0.65 -2.71 -2.80 7860
0.04 -0.00 -0.38 2.50 10.18 -0.66 -3.02 -2.58 7866
0.03 -0.00 0.67 2.79 10.29 -0.70 -3.31 -2.38 7872
0.02 -0.00 2.11 2.61 10.29 -0.75 -3.49 -2.17 7879
0.04 -0.00 3.66 2.50 10.10 -0.78 -3.56 -1.94 7885
0.03 -0.00 4.75 2.57 10.03 -0.81 -3.54 -1.71 7891
0.02 -0.00 5.52 2.79 10.23 -0.83 -3.41 -1.48 7898
0.03 -0.00 6.40 2.90 10.36 -0.87 -3.26 -1.26 7904
0.03 -0.00 6.76 2.89 10.35 -0.92 -3.01 -1.01 7910
0.02 -0.00 7.23 3.02 10.70 -1.01 -2.73 -0.83 7917
0.03 0.00 7.47 2.95 10.80 -1.12 -2.43 -0.57 7923
0.03 -0.00 7.31 2.59 10.47 -1.24 -2.16 -0.31 7929
0.02 -0.00 6.95 2.16 10.32 -1.32 -1.92 -0.05 7936
0.03 0.00 6.83 1.50 10.29 -1.36 -1.74 0.19 7942
0.03 -0.00 6.65 0.80 10.38 -1.36 -1.60 0.40 7949
0.02 -0.00 6.45 0.24 10.33 -1.34 -1.47 0.57 7955
0.03 0.00 6.29 -0.27 10.22 -1.32 -1.33 0.70 7961
0.03 -0.00 6.06 -0.86 10.05 -1.28 -1.19 0.80 7967
0.03 -0.00 6.00 -1.33 10.21 -1.23 -1.10 0.85 7973
0.03 -0.00 5.91 -1.67 10.25 -1.18 -0.97 0.90 7980
0.04 -0.00 5.71 -2.10 10.03 -1.13 -0.83 0.87 7987
0.03 -0.00 5.37 -2.26 9.73 -1.08 -0.68 0.86 7993
0.02 -0.00 5.47 -2.63 10.05 -1.01 -0.53 0.83 7999
0.04 -0.00 5.46 -2.78 10.45 -0.94 -0.38 0.80 8005
0.02 -0.00 5.50 -2.78 10.81 -0.90 -0.21 0.78 8011
0.02 -0.00 5.45 -2.73 11.03 -0.86 -0.04 0.78 8017
0.03 -0.00 5.23 -2.73 10.93 -0.87 0.12 0.77 8024
0.04 -0.00 4.87 -2.80 10.92 -0.89 0.23 0.78 8031
0.03 -0.00 4.54 -2.79 10.93 -0.92 0.32 0.83 8037
0.03 -0.00 4.41 -2.73 11.11 -0.94 0.38 0.84 8043
0.04 -0.00 4.37 -2.78 11.01 -0.97 0.43 0.88 8049
0.02 -0.00 4.21 -2.93 10.66 -1.00 0.49 0.94 8055
0.02 -0.00 4.16 -2.93 10.46 -1.01 0.56 1.00 8061
0.02 -0.00 4.21 -2.94 10.23 -1.02 0.64 1.06 8068
0.03 -0.00 4.22 -3.05 9.91 -1.01 0.74 1.13 8075
0.03 -0.00 4.20 -3.17 9.64 -0.99 0.84 1.20 8081
0.02 -0.00 4.14 -3.32 9.43 -0.96 0.94 1.25 8087
0.04 -0.00 4.03 -3.68 9.49 -0.90 1.02 1.30 8093
0.03 -0.00 4.01 -3.99 9.68 -0.84 1.05 1.35 8099
0.02 -0.00 4.00 -4.20 9.80 -0.78 1.06 1.37 8105
0.02 -0.00 4.00 -4.37 9.85 -0.75 1.06 1.38 8112
0.02 -0.00 3.78 -4.59 9.87 -0.71 1.05 1.36 8118
0.03 -0.00 3.58 -4.79 9.94 -0.70 1.02 1.28 8124
0.03 -0.00 3.33 -4.98 9.86 -0.69 0.96 1.21 8130
0.03 -0.00 3.12 -5.09 9.79 -0.69 0.90 1.06 8137
0.03 -0.00 2.97 -5.14 9.77 -0.71 0.84 0.88 8143
0.03 -0.00 2.75 -5.17 9.71 -0.73 0.77 0.65 8150
0.03 -0.00 2.59 -5.08 9.57 -0.75 0.68 0.41 8156
0.03 -0.00 2.51 -4.88 9.49 -0.76 0.63 0.15 8162
0.03 -0.00 2.73 -4.57 9.44 -0.79 0.56 -0.09 8168
0.03 -0.00 2.71 -4.22 9.16 -0.83 0.54 -0.34 8174
0.03 -0.00 2.39 -3.97 8.78 -0.88 0.60 -0.58 8180
0.02 -0.00 1.84 -3.82 8.16 -0.93 0.69 -0.78 8186
0.03 -0.00 1.04 -3.59 7.96 -0.92 0.74 -0.96 8193
0.03 -0.00 0.62 -3.58 7.71 -0.94 0.72 -1.12 8200
0.03 -0.00 0.48 -3.39 7.36 -0.98 0.60 -1.24 8206
0.03 -0.00 0.69 -3.11 6.66 -1.02 0.44 -1.34 8212
0.03 -0.00 3.18 -22.47 -0.21 -0.99 0.22 -1.31 8218
0.03 -0.00 13.41 -6.88 15.62 1.15 0.75 -0.95 8224
0.02 -0.00 -2.58 -9.83 -2.17 0.63 0.33 -0.81 8230
0.03 0.02 -2.87 -33.40 1.11 1.36 -1.43 -0.66 8238
0.03 0.12 -8.65 -54.19 4.10 1.90 -2.23 -0.33 8244
0.02 0.26 0.28 -2.22 78.32 3.50 -1.46 -0.03 8250
0.03 0.31 -3.82 -1.89 16.84 0.23 -0.22 0.22 8256
0.03 0.34 0.39 -2.36 12.58 -0.05 -0.06 0.16 8262
0.03 0.34 -0.50 -0.07 11.48 -0.13 -0.01 0.07 8269
0.04 0.30 -0.47 -0.60 9.60 -0.11 0.08 -0.02 8275
0.03 0.35 1.45 0.19 9.67 -0.03 0.06 0.02 8282
0.02 0.37 1.73 -0.29 10.38 -0.02 0.07 0.08 8288
0.03 0.40 0.89 -0.74 10.26 -0.03 0.08 0.11 8294
0.04 0.40 0.60 -1.03 10.55 -0.03 0.06 0.08 8300
0.02 0.43 0.60 -0.70 10.06 -0.02 0.04 0.07 8307
0.04 0.41 0.70 -0.57 9.60 -0.01 0.06 0.07 8313
0.03 0.38 0.67 -1.02 10.01 -0.02 0.08 0.08 8320
0.03 0.44 0.65 -1.03 10.23 -0.03 0.08 0.08 8326
0.04 0.44 0.08 -0.80 10.05 -0.03 0.09 0.08 8332
0.05 0.43 0.69 -0.79 9.93 -0.03 0.11 0.08 8338
0.04 0.43 0.84 -0.79 10.03 -0.03 0.11 0.07 8345
0.03 0.50 1.02 -0.66 10.04 -0.03 0.10 0.06 8351
0.04 0.45 0.90 -0.63 9.93 -0.02 0.09 0.05 8357
0.04 0.47 0.83 -0.73 10.10 -0.02 0.07 0.04 8364
0.04 0.45 0.83 -0.78 10.03 -0.01 0.06 0.03 8370
0.07 0.46 0.80 -0.79 10.09 -0.01 0.06 0.04 8376
0.04 0.47 0.84 -0.78 10.08 -0.01 0.05 0.04 8383
0.02 0.48 0.80 -0.79 10.03 -0.01 0.05 0.04 8389
0.03 0.48 0.88 -0.71 9.93 -0.01 0.03 0.04 8395
0.02 0.48 0.86 -0.66 9.93 -0.01 0.03 0.05 8401
0.01 0.48 0.90 -0.75 9.92 -0.01 0.02 0.05 8408
0.02 0.49 0.86 -0.73 9.98 -0.00 0.02 0.05 8414
0.04 0.47 0.86 -0.75 10.00 -0.00 0.01 0.04 8421
0.04 0.46 0.83 -0.75 9.99 0.00 0.02 0.05 8427
0.03 0.46 0.82 -0.73 9.92 -0.00 0.03 0.04 8433
0.05 0.46 0.85 -0.73 9.92 -0.00 0.03 0.04 8439
0.04 0.46 0.84 -0.75 9.96 -0.00 0.04 0.04 8445
0.02 0.46 0.86 -0.77 9.98 -0.01 0.04 0.04 8452
0.03 0.47 0.87 -0.76 9.90 -0.00 0.05 0.04 8458
0.05 0.46 0.89 -0.78 10.05 -0.01 0.05 0.04 8464
0.04 0.44 0.88 -0.76 10.04 -0.00 0.06 0.04 8471
0.04 0.45 0.82 -0.77 10.05 -0.00 0.05 0.04 8477
0.04 0.45 0.86 -0.70 10.02 -0.00 0.06 0.05 8483
0.04 0.44 0.90 -0.75 10.03 0.00 0.06 0.04 8489
0.03 0.43 0.90 -0.71 10.00 0.01 0.06 0.05 8496
0.05 0.42 0.90 -0.76 10.01 0.00 0.07 0.05 8503
0.04 0.37 0.94 -0.78 9.99 0.01 0.07 0.04 8509
0.04 0.35 0.92 -0.76 10.01 0.01 0.07 0.04 8515
0.05 0.33 0.98 -0.73 9.98 0.01 0.06 0.04 8521
0.04 0.30 0.92 -0.76 9.93 0.01 0.06 0.04 8527
0.05 0.29 1.02 -0.77 10.02 0.01 0.06 0.04 8534
0.04 0.29 0.94 -0.76 9.97 0.00 0.06 0.04 8540
0.05 0.26 0.98 -0.75 9.98 -0.00 0.06 0.04 8546
0.05 0.24 0.97 -0.79 9.98 -0.00 0.05 0.04 8553
0.04 0.24 1.01 -0.80 10.00 -0.00 0.05 0.04 8559
0.05 0.27 0.97 -0.75 9.96 -0.00 0.04 0.04 8565
0.05 0.22 0.98 -0.75 10.01 -0.00 0.04 0.04 8571
0.04 0.22 0.98 -0.74 9.94 -0.01 0.04 0.04 8578
0.05 0.23 0.99 -0.78 9.99 -0.01 0.04 0.05 8584
0.06 0.19 1.03 -0.79 9.96 -0.01 0.04 0.04 8590
0.04 0.21 1.03 -0.76 9.97 -0.00 0.04 0.04 8597
0.03 0.19 1.03 -0.75 9.99 -0.01 0.04 0.04 8603
0.05 0.20 1.02 -0.74 9.94 -0.01 0.04 0.04 8609
0.04 0.18 1.03 -0.77 9.97 -0.00 0.03 0.04 8615
0.05 0.15 1.05 -0.75 9.97 -0.01 0.03 0.04 8622
0.03 0.15 1.03 -0.75 9.96 -0.01 0.03 0.04 8628
0.05 0.17 1.09 -0.79 9.98 -0.01 0.03 0.04 8634
0.04 0.17 1.07 -0.78 9.99 -0.01 0.03 0.03 8641
0.04 0.17 1.07 -0.77 9.95 -0.01 0.03 0.03 8647
0.04 0.14 1.08 -0.77 9.98 -0.01 0.03 0.03 8653
0.04 0.13 1.04 -0.74 9.94 -0.01 0.03 0.03 8659
0.04 0.10 1.10 -0.79 9.94 -0.01 0.03 0.03 8666
0.03 0.12 1.09 -0.77 9.97 -0.01 0.03 0.03 8672
0.04 0.14 1.10 -0.76 9.97 -0.00 0.03 0.03 8678
0.04 0.12 1.10 -0.74 9.96 -0.00 0.03 0.02 8684
0.04 0.07 1.09 -0.78 9.94 -0.00 0.02 0.02 8690
0.05 0.09 1.08 -0.81 10.02 -0.00 0.02 0.02 8697
0.06 0.07 1.15 -0.82 9.92 -0.01 0.02 0.02 8704
0.04 0.06 1.12 -0.77 9.94 -0.01 0.02 0.01 8710
0.03 0.04 1.10 -0.78 9.96 -0.01 0.01 0.01 8716
0.05 0.05 1.17 -0.78 9.98 -0.01 0.01 0.02 8722
0.05 0.05 1.16 -0.81 9.98 -0.01 0.01 0.01 8728
0.06 0.02 1.13 -0.79 9.98 -0.01 0.01 0.01 8734
0.04 0.03 1.16 -0.82 9.93 -0.01 0.00 0.01 8740
0.05 0.03 1.15 -0.79 9.98 -0.01 -0.00 0.01 8748
0.05 0.03 1.17 -0.80 9.96 -0.01 -0.01 0.01 8754
0.05 0.01 1.13 -0.78 9.97 -0.02 -0.01 0.01 8760
0.06 0.01 1.15 -0.80 9.97 -0.02 -0.01 0.01 8766
0.06 0.03 1.16 -0.81 9.96 -0.02 -0.01 0.01 8772
0.05 0.04 1.15 -0.80 9.98 -0.02 -0.02 0.01 8778
0.05 0.01 1.17 -0.76 10.01 -0.01 -0.02 0.01 8784
0.06 0.03 1.14 -0.77 9.94 -0.02 -0.02 0.01 8792
0.06 0.01 1.17 -0.75 9.97 -0.01 -0.03 0.01 8798
0.05 -0.00 1.18 -0.75 9.99 -0.01 -0.03 0.01 8804
0.04 0.01 1.18 -0.78 9.96 -0.01 -0.03 0.00 8810
0.04 0.01 1.13 -0.79 9.98 -0.01 -0.03 -0.00 8816
0.05 0.00 1.15 -0.80 9.95 -0.01 -0.03 -0.00 8822
0.05 -0.00 1.15 -0.78 9.97 -0.01 -0.03 -0.00 8828
0.04 0.01 1.14 -0.83 9.98 -0.02 -0.03 -0.01 8835
0.04 0.02 1.18 -0.77 9.98 -0.01 -0.03 -0.00 8841
0.05 0.01 1.19 -0.83 9.97 -0.02 -0.03 -0.00 8848
0.04 -0.00 1.14 -0.84 10.01 -0.02 -0.03 -0.00 8854
0.04 0.01 1.16 -0.77 9.96 -0.02 -0.04 -0.00 8860
0.06 0.02 1.17 -0.77 9.99 -0.03 -0.04 0.00 8866
0.04 0.02 1.17 -0.78 9.98 -0.02 -0.04 0.00 8872
0.03 0.02 1.19 -0.77 10.01 -0.02 -0.05 -0.00 8879
0.05 0.03 1.22 -0.77 9.98 -0.02 -0.05 -0.00 8885
0.05 0.03 1.22 -0.82 9.94 -0.02 -0.04 -0.00 8892
0.05 0.02 1.21 -0.80 9.93 -0.02 -0.05 -0.00 8898
0.06 0.02 1.17 -0.81 9.98 -0.01 -0.05 -0.00 8904
0.07 0.02 1.18 -0.76 9.97 -0.01 -0.04 -0.01 8910
0.06 0.02 1.18 -0.78 9.97 -0.00 -0.04 -0.00 8916
0.04 0.02 1.17 -0.76 9.97 -0.00 -0.05 -0.01 8923
0.05 0.02 1.17 -0.79 9.97 -0.00 -0.04 -0.00 8929
0.06 0.02 1.17 -0.78 9.97 -0.01 -0.04 -0.00 8935
0.05 0.00 1.16 -0.80 10.02 -0.00 -0.04 -0.00 8942
0.04 0.01 1.14 -0.81 9.97 -0.00 -0.04 -0.00 8948
0.06 0.01 1.20 -0.83 9.96 -0.00 -0.04 -0.00 8954
0.06 -0.00 1.16 -0.82 9.96 0.00 -0.04 -0.00 8961
0.06 -0.01 1.15 -0.79 9.94 0.00 -0.04 -0.00 8967
0.06 -0.01 1.20 -0.75 10.03 0.00 -0.04 -0.00 8973
0.08 0.01 1.17 -0.81 10.00 0.01 -0.04 -0.00 8979
0.06 -0.00 1.18 -0.88 10.07 0.01 -0.04 -0.00 8985
0.06 -0.00 1.18 -0.79 10.04 0.01 -0.04 -0.01 8992
0.07 -0.00 1.22 -0.88 10.09 0.01 -0.04 -0.01 8998
0.07 -0.01 1.17 -0.83 10.03 0.02 -0.04 -0.01 9005
0.07 -0.01 1.46 -0.85 9.80 0.01 -0.03 -0.02 9011
0.07 -0.01 1.28 -0.86 9.95 0.02 -0.04 -0.02 9017
0.08 -0.01 1.25 -0.74 10.08 0.03 -0.00 -0.02 9023
0.07 -0.01 1.17 -0.79 9.95 0.04 -0.03 -0.02 9029
0.08 -0.01 1.27 -1.12 10.01 0.05 -0.03 -0.02 9035
0.07 -0.01 1.16 -0.87 10.11 0.07 -0.03 -0.03 9042
0.08 -0.01 1.32 -0.86 10.17 0.09 -0.04 -0.03 9049
0.08 -0.01 1.27 -0.90 9.98 0.12 -0.04 -0.04 9055
0.07 -0.01 1.33 -0.96 10.15 0.15 -0.05 -0.05 9061
0.07 -0.00 1.41 -0.85 10.31 0.21 -0.04 -0.05 9067
0.08 -0.01 1.71 -0.86 10.41 0.30 -0.05 -0.07 9073
0.07 -0.01 1.51 -0.90 10.97 0.47 0.01 -0.10 9079
0.06 -0.00 1.58 -0.90 11.66 0.71 0.08 -0.16 9086
0.06 -0.01 1.52 -1.03 12.41 1.06 0.29 -0.18 9093
0.05 -0.01 1.59 -1.11 13.14 1.46 0.55 -0.22 9099
0.05 -0.00 1.54 -1.14 14.12 1.76 0.87 -0.26 9105
0.06 -0.01 1.45 -1.15 14.05 1.92 1.18 -0.29 9111
0.05 -0.00 1.68 -1.36 13.37 1.94 1.46 -0.29 9117
0.05 -0.00 1.75 -1.49 13.65 1.92 1.76 -0.29 9124
0.06 -0.01 1.74 -1.56 13.69 1.88 2.17 -0.29 9131
0.04 -0.00 1.77 -1.65 13.19 1.83 2.48 -0.29 9137
0.05 -0.01 1.41 -2.22 13.60 1.78 2.77 -0.25 9143
0.05 -0.01 1.73 -2.01 13.35 1.73 3.04 -0.21 9149
0.05 -0.01 1.58 -2.53 13.57 1.66 3.20 -0.15 9155
0.04 -0.00 1.59 -2.91 14.36 1.60 3.37 -0.07 9162
0.06 -0.00 1.57 -3.32 14.63 1.54 3.48 0.02 9168
0.06 -0.01 1.21 -3.33 15.15 1.48 3.57 0.07 9175
0.05 -0.00 1.30 -3.61 14.59 1.44 3.65 0.11 9181
0.05 -0.00 1.00 -3.70 14.24 1.46 3.75 0.16 9187
0.05 -0.01 0.11 -3.38 12.61 1.50 3.79 0.22 9194
0.05 -0.00 -0.79 -3.22 11.97 1.53 3.67 0.31 9200
0.05 0.00 -1.43 -2.91 10.71 1.57 3.50 0.40 9206
0.04 -0.00 -2.77 -3.56 9.58 1.59 3.22 0.47 9212
0.04 -0.00 -6.76 -2.49 9.11 1.60 2.61 0.41 9219
0.04 -0.00 -10.94 -0.36 8.01 1.52 1.64 0.10 9225
0.04 -0.00 -10.13 0.37 9.76 1.30 0.34 -0.49 9231
0.04 -0.00 -21.98 4.08 14.33 0.91 -1.04 -1.01 9238
0.03 -0.00 -13.45 3.67 13.64 0.32 -2.28 -1.76 9244
0.05 -0.01 -6.66 1.81 12.87 -0.06 -2.90 -2.21 9250
0.04 -0.00 -4.40 1.26 12.82 -0.22 -3.03 -2.57 9256
0.03 -0.00 -2.68 1.20 12.27 -0.31 -2.93 -2.95 9263
0.03 -0.00 -1.30 1.15 11.64 -0.34 -2.88 -3.20 9269
0.04 -0.00 0.30 1.91 12.08 -0.38 -2.94 -3.28 9276
0.04 -0.00 1.64 2.80 12.80 -0.48 -2.98 -3.19 9282
0.05 -0.00 2.08 2.81 12.40 -0.63 -2.88 -2.93 9288
0.03 -0.00 3.08 3.00 11.65 -0.80 -2.72 -2.60 9294
0.04 -0.00 3.81 3.10 11.26 -0.96 -2.60 -2.25 9300
0.03 -0.00 4.09 2.98 10.68 -1.06 -2.54 -1.93 9307
0.04 -0.00 4.45 2.63 10.34 -1.09 -2.51 -1.63 9314
0.04 -0.00 4.86 2.27 9.78 -1.09 -2.51 -1.33 9320
0.03 -0.00 5.22 2.00 9.28 -1.06 -2.51 -1.04 9326
0.04 -0.00 5.87 2.43 8.83 -1.01 -2.50 -0.74 9332
0.04 -0.00 6.47 1.84 8.66 -0.96 -2.47 -0.52 9338
0.02 -0.00 6.89 1.80 8.84 -0.90 -2.36 -0.27 9345
0.02 -0.00 7.04 1.67 8.79 -0.85 -2.20 -0.04 9351
0.03 0.00 7.07 1.44 8.72 -0.82 -1.99 0.17 9357
0.03 -0.00 6.99 1.37 8.78 -0.77 -1.75 0.37 9363
0.04 -0.00 7.25 0.61 9.09 -0.72 -1.55 0.55 9370
0.03 -0.00 7.26 1.01 9.03 -0.68 -1.29 0.68 9376
0.03 0.00 7.16 0.87 9.04 -0.64 -1.01 0.83 9382
0.03 -0.00 7.02 0.83 9.57 -0.61 -0.73 0.97 9389
0.03 -0.00 6.72 0.72 10.06 -0.62 -0.49 1.10 9395
0.03 -0.00 6.07 0.53 10.25 -0.64 -0.32 1.23 9401
0.05 -0.00 5.50 0.42 10.44 -0.69 -0.21 1.34 9407
0.03 -0.00 5.02 0.13 10.52 -0.74 -0.22 1.43 9414
0.02 -0.00 4.56 -0.22 10.45 -0.79 -0.26 1.49 9420
0.03 -0.00 4.24 -0.56 10.22 -0.83 -0.31 1.53 9426
0.03 -0.00 4.07 -0.91 9.91 -0.85 -0.37 1.53 9433
0.03 -0.00 3.94 -1.13 9.64 -0.85 -0.42 1.50 9439
0.02 -0.00 3.88 -1.35 9.60 -0.85 -0.44 1.44 9445
0.04 -0.00 3.88 -1.32 9.75 -0.86 -0.45 1.36 9451
0.02 -0.00 3.91 -1.18 10.00 -0.87 -0.40 1.26 9457
0.02 -0.00 4.00 -1.08 10.40 -0.91 -0.39 1.17 9464
0.03 -0.00 3.98 -1.03 10.64 -0.96 -0.33 1.07 9470
0.03 -0.00 3.88 -1.18 10.72 -1.04 -0.27 1.03 9477
0.03 -0.00 3.80 -1.46 10.55 -1.11 -0.25 0.97 9483
0.03 -0.00 3.72 -1.81 10.20 -1.15 -0.26 0.91 9489
0.04 -0.00 3.67 -2.28 9.80 -1.16 -0.27 0.87 9495
0.03 -0.00 3.79 -2.68 9.42 -1.14 -0.29 0.82 9501
0.02 -0.00 3.87 -3.03 9.09 -1.09 -0.29 0.78 9508
0.02 0.01 3.94 -3.13 8.91 -1.02 -0.29 0.74 9515
0.03 -0.00 4.14 -3.05 9.11 -0.96 -0.28 0.69 9521
0.03 -0.00 4.44 -2.84 9.36 -0.92 -0.26 0.65 9527
0.03 -0.00 4.55 -2.47 9.70 -0.92 -0.24 0.60 9533
0.03 -0.00 4.50 -2.15 9.96 -0.97 -0.22 0.56 9539
0.02 -0.00 4.52 -1.92 10.19 -1.03 -0.20 0.53 9545
0.02 -0.00 4.57 -1.91 10.15 -1.12 -0.18 0.50 9551
0.03 -0.00 4.57 -2.09 9.94 -1.19 -0.15 0.47 9559
0.03 -0.00 4.76 -2.36 9.78 -1.25 -0.11 0.44 9565
0.02 -0.00 5.03 -2.68 9.66 -1.28 -0.03 0.40 9571
0.03 -0.00 5.20 -3.04 9.56 -1.30 0.07 0.36 9577
0.02 -0.00 5.22 -3.31 9.66 -1.30 0.16 0.33 9583
0.04 -0.00 5.13 -3.46 9.75 -1.30 0.25 0.31 9589
0.02 -0.00 4.89 -3.73 9.63 -1.31 0.32 0.31 9595
0.02 -0.00 4.44 -4.82 9.23 -1.30 0.40 0.33 9602
0.02 -0.00 3.94 -4.90 8.77 -1.25 0.48 0.35 9608
0.04 -0.00 3.43 -5.52 8.62 -1.13 0.54 0.38 9614
0.03 -0.00 2.98 -5.88 8.54 -0.98 0.58 0.40 9621
0.02 -0.00 2.66 -6.16 8.22 -0.83 0.60 0.40 9627
0.03 -0.00 2.51 -6.10 8.25 -0.66 0.61 0.38 9633
0.04 -0.00 2.63 -5.75 8.48 -0.51 0.62 0.35 9639
0.04 -0.00 2.91 -5.34 9.12 -0.38 0.64 0.30 9646
0.04 -0.00 4.57 -22.45 15.60 0.06 1.02 0.30 9652
0.03 0.00 5.93 -3.61 6.91 0.86 1.60 0.36 9658
0.03 -0.00 1.29 -9.47 4.49 0.73 1.27 0.22 9664
0.03 -0.00 -0.24 -11.42 13.43 0.84 0.07 -0.10 9671
0.03 -0.00 -4.39 -19.76 8.05 0.58 -0.35 -0.36 9677
0.05 -0.01 -1.64 -21.22 5.28 0.80 -0.48 -0.57 9683
0.04 0.01 -3.35 -23.98 7.10 1.05 -0.76 -0.84 9690
0.04 0.02 -2.50 -35.35 20.41 1.07 -1.37 -1.12 9696
0.05 0.05 4.65 -19.94 14.89 0.41 -1.67 -0.94 9703
0.03 0.06 2.93 -6.22 13.11 0.12 -0.73 -0.21 9709
0.03 0.08 1.46 -0.99 9.54 -0.02 -0.17 0.05 9715
0.03 0.08 0.71 -0.48 9.46 -0.04 0.02 0.07 9721
0.04 0.07 0.29 0.07 10.62 0.01 -0.06 0.04 9728
0.03 0.09 0.37 -0.06 10.68 0.00 -0.07 0.01 9734
0.06 0.11 0.61 -0.48 10.18 -0.03 0.00 0.00 9741
0.03 0.10 0.39 -0.68 10.12 -0.05 0.03 0.01 9747
0.03 0.15 0.94 -0.78 10.06 -0.04 0.06 0.03 9753
0.06 0.19 1.13 -1.06 10.16 -0.02 0.07 0.04 9759
0.05 0.15 1.02 -0.79 10.14 -0.00 0.09 0.05 9765
0.05 0.15 0.73 -0.89 9.86 -0.01 0.10 0.05 9773
0.06 0.15 0.69 -0.95 10.12 -0.01 0.10 0.04 9779
0.06 0.13 0.92 -0.96 9.96 -0.00 0.12 0.04 9785
0.06 0.13 0.96 -0.84 10.11 -0.00 0.12 0.05 9791
0.07 0.13 0.81 -0.82 10.13 0.00 0.13 0.05 9797
0.07 0.12 0.78 -0.78 10.03 0.01 0.13 0.05 9803
0.06 0.11 0.98 -0.89 10.21 0.01 0.13 0.05 9810
0.07 0.11 1.03 -0.90 10.04 0.01 0.13 0.04 9817
0.06 0.10 1.01 -0.84 10.04 0.01 0.12 0.04 9823
0.05 0.09 0.97 -0.82 9.95 0.00 0.11 0.03 9829
0.06 0.09 0.95 -0.83 10.08 0.00 0.11 0.04 9835
0.08 0.07 0.93 -0.88 10.19 -0.00 0.10 0.04 9841
0.07 0.07 0.96 -0.86 9.97 -0.00 0.09 0.04 9848
0.07 0.08 0.95 -0.88 9.92 -0.01 0.09 0.04 9854
0.08 0.08 1.03 -0.84 10.01 -0.01 0.08 0.05 9861
0.07 0.06 1.01 -0.83 10.00 -0.00 0.08 0.05 9867
0.07 0.06 1.04 -0.82 10.02 -0.00 0.07 0.04 9873
0.09 0.06 0.99 -0.80 10.00 -0.00 0.07 0.05 9879
0.08 0.06 1.06 -0.84 9.98 -0.03 0.07 0.05 9885
0.07 0.03 1.03 -0.82 9.98 0.00 0.06 0.05 9892
0.09 0.05 1.05 -0.84 10.02 0.00 0.06 0.05 9899
0.09 0.05 1.03 -0.85 9.96 0.00 0.06 0.05 9905
0.09 0.03 0.98 -0.86 9.97 0.00 0.06 0.05 9911
0.08 0.03 1.02 -0.83 9.97 0.00 0.06 0.05 9917
0.08 0.04 1.01 -0.86 9.99 0.01 0.05 0.06 9923
0.08 0.03 1.07 -0.87 10.00 0.00 0.05 0.06 9929
0.08 0.02 1.04 -0.81 10.01 0.00 0.04 0.05 9936
0.08 0.04 1.08 -0.87 9.98 0.00 0.04 0.05 9943
0.09 0.03 1.11 -0.87 9.94 0.00 0.04 0.05 9949
0.09 0.02 1.11 -0.85 9.97 -0.00 0.03 0.05 9955
0.08 0.02 1.10 -0.83 9.96 -0.00 0.03 0.05 9961
0.08 0.03 1.09 -0.85 9.94 -0.01 0.02 0.05 9967
0.09 0.01 1.08 -0.87 9.95 -0.00 0.02 0.04 9973
0.09 0.00 1.11 -0.84 9.94 -0.00 0.02 0.04 9979
0.07 -0.01 1.08 -0.86 9.97 -0.00 0.02 0.04 9986
0.08 0.01 1.08 -0.88 9.95 -0.00 0.02 0.04 9993
0.10 0.01 1.06 -0.86 9.98 -0.00 0.02 0.04 9999
0.09 -0.00 1.08 -0.86 9.98 0.00 0.02 0.04 10005
0.07 -0.01 1.12 -0.88 9.96 0.00 0.02 0.04 10011
0.08 0.01 1.16 -0.85 9.98 -0.00 0.01 0.04 10017
0.09 0.00 1.11 -0.89 9.96 -0.00 0.01 0.04 10023
0.10 -0.01 1.13 -0.87 9.91 -0.01 0.01 0.04 10030
0.09 -0.01 1.14 -0.88 9.94 -0.01 0.01 0.04 10036
0.10 -0.01 1.13 -0.84 9.92 -0.01 0.01 0.03 10043
0.08 -0.01 1.15 -0.87 9.93 -0.01 0.01 0.03 10049
0.06 -0.01 1.17 -0.87 9.92 -0.01 0.01 0.03 10055
0.07 0.01 1.14 -0.91 9.88 -0.02 0.01 0.03 10061
0.07 -0.01 1.17 -0.88 9.95 -0.02 0.01 0.02 10067
0.07 -0.01 1.14 -0.87 9.96 -0.02 0.01 0.02 10074
0.07 -0.01 1.14 -0.86 9.92 -0.02 0.01 0.02 10080
0.08 -0.00 1.16 -0.88 9.97 -0.02 0.01 0.02 10086
0.08 -0.01 1.13 -0.86 9.98 -0.02 0.02 0.02 10093
0.05 -0.01 1.17 -0.86 9.93 -0.02 0.02 0.02 10099
0.06 -0.00 1.17 -0.86 9.95 -0.02 0.02 0.02 10105
0.07 -0.01 1.15 -0.84 9.96 -0.02 0.02 0.02 10112
0.07 -0.01 1.15 -0.89 9.91 -0.01 0.02 0.02 10118
0.07 -0.01 1.17 -0.93 9.98 -0.02 0.02 0.02 10124
0.07 -0.01 1.16 -0.89 9.94 -0.01 0.01 0.02 10130
0.07 -0.01 1.21 -0.93 9.92 -0.01 0.01 0.02 10137
0.07 -0.01 1.20 -0.89 9.97 -0.02 0.01 0.02 10143
0.07 -0.01 1.18 -0.88 9.92 -0.02 0.01 0.02 10149
0.08 -0.01 1.22 -0.84 9.96 -0.02 0.01 0.02 10156
0.07 -0.01 1.22 -0.86 9.95 -0.02 0.00 0.01 10162
0.06 -0.01 1.21 -0.85 10.00 -0.02 -0.00 0.01 10168
0.09 0.00 1.83 -0.90 9.92 -0.03 -0.01 0.01 10174
0.07 -0.01 1.16 -0.87 9.97 -0.03 -0.01 0.01 10180
0.06 -0.01 1.28 -0.87 9.98 -0.02 -0.01 0.01 10187
0.07 -0.01 1.18 -0.89 9.98 -0.03 -0.02 0.00 10193
0.07 -0.01 1.21 -0.91 9.97 -0.03 -0.02 0.01 10200
0.06 -0.01 1.24 -0.88 9.95 -0.03 -0.03 0.00 10206
0.05 -0.00 1.24 -0.88 9.92 -0.03 -0.03 0.00 10212
0.06 0.01 1.23 -0.85 10.01 -0.03 -0.03 -0.00 10218
0.07 0.00 0.61 -0.86 9.92 -0.03 -0.03 -0.00 10224
0.08 0.00 1.28 -0.83 9.94 -0.03 -0.03 -0.00 10231
0.07 0.02 1.22 -0.83 9.98 -0.03 -0.02 -0.00 10237
0.07 0.01 1.23 -0.83 9.95 -0.04 -0.02 -0.00 10244
0.08 -0.01 1.23 -0.86 9.99 -0.03 -0.02 -0.00 10250
0.07 0.01 1.20 -0.83 9.98 -0.02 -0.02 0.00 10256
0.09 0.01 1.21 -0.86 10.01 -0.02 -0.02 -0.00 10263
0.07 -0.01 1.26 -0.86 9.98 -0.02 -0.02 -0.00 10269
0.08 0.01 1.25 -0.85 9.98 -0.02 -0.02 0.00 10275
0.08 -0.00 1.28 -0.86 9.99 -0.01 -0.02 0.00 10281
0.08 -0.01 1.26 -0.86 9.96 -0.01 -0.02 -0.00 10288
0.06 0.00 1.24 -0.85 10.00 -0.01 -0.02 -0.00 10294
0.09 0.00 1.28 -0.86 9.96 -0.01 -0.03 -0.00 10301
0.07 -0.01 1.26 -0.84 10.00 -0.01 -0.03 -0.00 10307
0.06 -0.01 1.26 -0.85 9.93 -0.01 -0.03 -0.01 10313
0.07 0.01 1.28 -0.92 9.99 -0.00 -0.03 -0.01 10319
0.08 -0.01 1.26 -0.87 9.95 -0.00 -0.04 -0.01 10326
0.08 -0.01 1.25 -0.91 9.93 -0.00 -0.04 -0.01 10332
0.09 -0.00 1.27 -0.89 9.95 -0.00 -0.04 -0.01 10338
0.09 -0.01 1.24 -0.88 9.95 -0.00 -0.04 -0.02 10345
0.09 -0.01 1.28 -0.87 9.99 -0.00 -0.05 -0.02 10351
0.09 -0.01 1.21 -0.89 9.98 -0.01 -0.05 -0.02 10357
0.09 0.00 1.27 -0.90 9.95 -0.01 -0.05 -0.02 10363
0.09 -0.00 1.26 -0.86 9.95 -0.00 -0.05 -0.03 10370
0.08 -0.01 1.26 -0.87 9.98 -0.01 -0.06 -0.03 10376
0.10 -0.01 1.31 -0.91 10.00 -0.00 -0.06 -0.04 10383
0.09 -0.01 1.25 -0.83 9.98 -0.00 -0.06 -0.03 10389
0.09 -0.01 1.26 -0.90 9.98 0.00 -0.06 -0.04 10395
0.09 -0.01 1.40 -0.91 9.95 -0.00 -0.06 -0.05 10401
0.09 -0.01 1.24 -0.93 10.04 0.00 -0.06 -0.06 10407
0.09 -0.01 1.28 -0.88 10.02 0.01 -0.07 -0.06 10414
0.09 -0.01 1.21 -0.89 9.96 0.01 -0.06 -0.07 10420
0.10 -0.01 1.30 -0.92 10.04 0.01 -0.06 -0.07 10427
0.10 -0.01 1.22 -0.86 10.05 0.02 -0.05 -0.08 10433
0.11 -0.01 1.41 -0.95 10.03 0.03 -0.06 -0.09 10439
0.12 -0.01 1.29 -1.07 10.11 0.06 -0.06 -0.10 10445
0.11 -0.01 1.48 -0.98 10.13 0.07 -0.06 -0.12 10451
0.11 -0.01 1.34 -0.99 10.08 0.09 -0.05 -0.12 10459
0.13 -0.01 1.47 -1.22 10.04 0.11 -0.04 -0.15 10465
0.12 -0.01 1.36 -1.07 10.06 0.14 -0.02 -0.16 10471
0.13 -0.01 1.36 -1.07 10.16 0.17 -0.01 -0.17 10477
0.15 -0.02 1.43 -1.12 10.44 0.22 0.03 -0.17 10483
0.13 -0.01 1.33 -1.21 10.57 0.30 0.02 -0.17 10490
0.12 -0.01 0.91 -0.84 10.41 0.41 0.05 -0.16 10497
0.11 -0.01 1.63 -1.13 11.03 0.55 0.08 -0.17 10503
0.09 -0.01 1.20 -1.82 11.15 0.72 0.14 -0.17 10509
0.11 -0.01 1.41 -1.32 11.11 0.92 0.22 -0.17 10516
0.09 -0.01 1.80 -1.45 11.71 1.12 0.27 -0.19 10522
0.09 -0.01 1.36 -1.39 12.06 1.30 0.33 -0.20 10528
0.07 -0.01 1.27 -1.74 12.97 1.46 0.39 -0.20 10534
0.06 -0.01 1.36 -1.77 12.95 1.63 0.51 -0.20 10541
0.06 -0.01 1.52 -1.75 13.50 1.82 0.78 -0.20 10548
0.06 -0.01 1.35 -1.83 13.44 1.97 1.07 -0.19 10554
0.04 -0.00 1.42 -1.87 14.06 2.08 1.37 -0.19 10560
0.06 -0.00 1.63 -1.88 13.90 2.20 1.70 -0.17 10566
0.05 -0.00 1.90 -2.14 13.52 2.25 2.02 -0.16 10573
0.04 -0.00 1.86 -2.31 13.98 2.28 2.34 -0.15 10579
0.08 -0.01 1.89 -2.62 13.82 2.28 2.64 -0.12 10586
0.05 -0.01 2.25 -2.50 16.07 2.24 2.90 -0.08 10592
0.04 -0.00 2.16 -3.28 14.22 2.24 3.25 -0.01 10598
0.06 -0.01 2.67 -3.40 14.55 2.17 3.58 0.04 10605
0.06 -0.01 3.09 -3.99 15.36 2.07 3.90 0.10 10611
0.05 -0.01 3.28 -4.28 16.11 1.94 4.15 0.14 10617
0.06 -0.01 2.21 -3.91 15.19 1.80 4.28 0.14 10624
0.05 -0.00 2.47 -4.27 14.65 1.67 4.28 0.13 10630
0.04 0.00 1.40 -3.87 15.35 1.67 4.28 0.12 10637
0.05 -0.00 0.39 -3.98 15.71 1.77 4.28 0.11 10643
0.04 -0.00 -2.02 -3.44 14.22 1.83 4.28 0.12 10649
0.06 -0.01 -2.91 -2.61 11.92 1.79 4.28 0.22 10655
0.05 -0.00 -4.38 -3.40 10.11 1.65 4.26 0.35 10661
0.04 -0.00 -6.43 -2.62 7.37 1.50 3.37 0.44 10669
0.06 -0.01 -9.91 -0.51 6.10 1.36 2.06 0.42 10675
0.04 -0.00 -18.60 0.66 6.73 1.17 0.52 0.04 10681
0.03 -0.00 -31.03 4.25 18.93 0.52 -1.57 -0.97 10687
0.05 -0.01 -15.20 3.69 15.28 -0.58 -3.25 -1.89 10693
0.04 -0.00 -3.44 0.88 16.59 -1.15 -3.53 -2.33 10700
0.04 0.00 -1.51 -0.89 14.10 -1.47 -3.18 -2.68 10706
0.02 -0.00 -2.62 -1.15 10.87 -1.55 -2.63 -3.14 10713
0.02 -0.00 -2.01 -1.36 8.18 -1.56 -2.34 -3.57 10719
0.03 -0.00 -0.72 -1.43 6.14 -1.47 -2.36 -3.83 10726
0.04 -0.00 0.19 -1.88 6.62 -1.26 -2.39 -3.88 10732
0.02 -0.00 -0.23 -2.98 8.04 -0.97 -2.40 -3.66 10738
0.04 -0.00 -0.92 -3.28 8.72 -0.64 -2.27 -3.14 10744
0.04 -0.00 0.84 -1.45 8.11 -0.36 -2.39 -2.65 10750
0.04 -0.00 1.90 0.71 8.61 -0.18 -2.84 -2.14 10757
0.03 -0.00 2.97 1.48 9.58 -0.08 -3.22 -1.66 10764
0.04 -0.00 5.08 1.67 10.82 -0.05 -3.43 -1.16 10770
0.04 -0.00 6.96 2.13 11.86 -0.10 -3.47 -0.66 10776
0.04 -0.00 8.36 2.73 12.50 -0.22 -3.35 -0.19 10782
0.04 -0.00 8.99 3.22 12.61 -0.34 -3.09 0.24 10788
0.03 -0.00 9.08 3.31 12.39 -0.55 -2.80 0.60 10796
0.04 -0.00 8.91 2.99 11.86 -0.78 -2.54 0.90 10802
0.04 -0.00 8.42 2.31 11.15 -0.96 -2.38 1.14 10808
0.03 -0.00 8.06 1.58 10.43 -1.06 -2.25 1.34 10814
0.04 -0.00 7.62 1.06 9.47 -1.09 -2.17 1.47 10820
0.03 -0.00 7.72 0.40 9.12 -1.06 -2.10 1.60 10826
0.03 -0.00 7.82 -0.07 8.83 -1.01 -2.02 1.69 10833
0.03 -0.00 7.99 -0.32 8.65 -0.94 -1.92 1.74 10840
0.05 -0.00 8.17 -0.47 8.90 -0.88 -1.78 1.76 10846
0.04 -0.00 8.20 -0.57 9.19 -0.84 -1.60 1.76 10852
0.02 -0.00 8.09 -0.57 9.24 -0.82 -1.40 1.74 10858
0.03 -0.00 7.51 -0.63 9.43 -0.81 -1.23 1.70 10864
0.04 -0.00 7.50 -0.73 9.10 -0.81 -1.12 1.64 10870
0.03 -0.00 7.18 -0.84 9.18 -0.81 -1.00 1.57 10877
0.03 0.00 6.98 -0.97 9.42 -0.80 -0.92 1.45 10884
0.04 -0.00 6.87 -1.05 9.60 -0.80 -0.85 1.33 10890
0.03 -0.00 6.78 -1.09 9.85 -0.83 -0.78 1.19 10896
0.04 -0.00 6.59 -1.12 10.16 -0.88 -0.72 1.05 10902
0.03 -0.00 6.52 -1.13 10.53 -0.96 -0.67 0.91 10909
0.04 -0.00 6.56 -1.22 10.78 -1.04 -0.59 0.77 10915
0.03 0.00 6.54 -1.36 10.93 -1.14 -0.51 0.65 10921
0.04 -0.00 6.33 -1.59 10.58 -1.24 -0.43 0.55 10928
0.02 -0.00 6.02 -1.85 10.18 -1.31 -0.37 0.47 10934
0.04 -0.00 5.77 -2.10 9.74 -1.34 -0.32 0.40 10941
0.03 -0.00 5.50 -2.34 9.63 -1.34 -0.29 0.36 10947
0.02 -0.00 5.14 -1.84 9.41 -1.30 -0.28 0.34 10953
0.04 0.00 4.92 -2.55 9.21 -1.25 -0.26 0.34 10959
0.04 -0.00 4.80 -2.59 9.03 -1.20 -0.29 0.34 10966
0.03 -0.00 4.56 -2.55 8.93 -1.16 -0.35 0.33 10972
0.03 0.00 4.31 -2.70 8.78 -1.11 -0.42 0.32 10979
0.03 -0.00 4.26 -2.85 8.70 -1.08 -0.49 0.30 10985
0.03 -0.00 4.47 -2.78 8.97 -1.05 -0.54 0.25 10991
0.03 -0.00 4.91 -2.67 9.64 -1.04 -0.52 0.19 10997
0.04 -0.00 5.17 -2.62 10.02 -1.06 -0.46 0.13 11003
0.02 -0.00 5.39 -2.57 10.55 -1.11 -0.27 0.07 11010
0.03 -0.00 5.48 -2.61 10.71 -1.19 -0.10 0.02 11017
0.03 -0.00 5.09 -2.88 10.23 -1.27 0.09 -0.01 11023
0.03 -0.00 4.48 -3.17 9.82 -1.33 0.21 -0.03 11029
0.03 -0.00 3.86 -3.77 9.53 -1.35 0.27 -0.05 11035
0.04 -0.00 3.44 -4.50 8.99 -1.32 0.30 -0.05 11041
0.02 -0.00 3.22 -5.03 8.25 -1.25 0.32 -0.05 11047
0.01 -0.00 3.00 -5.49 7.60 -1.16 0.39 -0.03 11055
0.03 -0.00 2.77 -5.98 7.20 -1.06 0.50 0.01 11061
0.03 -0.00 2.52 -6.42 7.44 -0.92 0.61 0.03 11067
0.02 -0.00 2.19 -6.46 7.90 -0.78 0.68 0.04 11073
0.03 0.00 1.68 -6.14 8.46 -0.68 0.74 0.06 11079
0.03 -0.00 1.25 -5.91 8.89 -0.64 0.77 0.07 11085
0.03 -0.00 0.65 -5.68 9.13 -0.66 0.75 0.05 11091
0.03 -0.00 0.01 -5.82 9.16 -0.70 0.75 -0.01 11099
0.04 -0.00 -0.38 -6.50 8.67 -0.73 0.77 -0.14 11105
0.04 -0.00 -0.46 -7.28 7.74 -0.73 0.80 -0.34 11111
0.02 -0.00 -0.26 -7.54 7.34 -0.69 0.83 -0.58 11117
0.03 0.00 -0.02 -7.40 7.35 -0.63 0.84 -0.84 11123
0.03 -0.00 0.15 -7.03 7.12 -0.58 0.83 -1.06 11129
0.03 -0.00 0.47 -6.74 6.73 -0.57 0.79 -1.22 11137
0.03 -0.00 1.04 -6.51 5.74 -0.59 0.72 -1.31 11143
0.03 -0.00 1.81 -6.44 4.78 -0.58 0.62 -1.36 11149
0.03 -0.00 2.70 -6.79 3.67 -0.54 0.50 -1.35 11155
0.02 -0.00 -1.28 -15.14 3.47 -0.34 0.20 -1.30 11161
0.04 -0.00 -9.26 -30.69 19.35 1.50 -3.73 -1.72 11167
0.03 -0.00 6.41 -41.52 33.00 0.54 -3.48 -1.70 11174
0.03 0.07 -9.04 -12.27 16.65 -0.33 -0.31 -0.18 11181
0.04 0.15 2.39 -10.11 10.65 -0.40 -0.15 0.04 11187
0.04 0.18 0.66 0.28 12.82 -0.25 -0.09 -0.00 11194
0.03 0.21 0.48 0.93 10.46 -0.09 0.06 0.05 11200
0.04 0.18 0.34 0.91 10.63 -0.05 0.08 0.05 11206
0.07 0.20 0.56 0.34 10.53 -0.03 0.10 0.07 11212
0.06 0.16 1.22 -0.87 10.54 0.02 0.11 0.08 11219
0.04 0.18 1.28 -1.10 10.16 0.05 0.11 0.10 11226
0.07 0.15 0.93 -0.76 9.76 0.04 0.09 0.07 11232
0.06 0.12 0.75 -0.88 9.82 0.03 0.10 0.05 11238
0.04 0.13 0.81 -1.11 9.90 0.01 0.10 0.04 11244
0.07 0.13 0.81 -1.13 9.99 -0.02 0.08 0.03 11250
0.07 0.13 0.73 -0.91 10.03 -0.03 0.08 0.04 11257
0.07 0.17 0.76 -0.84 10.06 -0.03 0.08 0.05 11264
0.07 0.18 0.82 -0.81 10.28 -0.02 0.07 0.05 11270
0.06 0.17 0.96 -0.87 9.99 -0.01 0.07 0.05 11276
0.07 0.19 1.01 -0.87 10.02 -0.01 0.05 0.04 11283
0.05 0.18 1.02 -0.84 9.93 -0.02 0.03 0.03 11289
0.04 0.18 0.93 -0.83 9.96 -0.02 0.01 0.02 11295
0.06 0.18 0.82 -0.79 10.10 -0.01 0.00 0.03 11301
0.10 0.15 0.78 -0.82 9.99 -0.01 0.00 0.03 11308
0.08 0.14 0.86 -0.82 10.02 -0.00 0.00 0.04 11315
0.11 0.13 0.90 -0.85 10.05 -0.00 -0.00 0.04 11321
0.11 0.13 0.89 -0.86 10.06 0.00 -0.01 0.04 11327
0.10 0.11 0.92 -0.84 10.03 0.00 -0.02 0.04 11333
0.11 0.11 0.92 -0.82 10.01 0.03 -0.04 0.03 11339
0.10 0.07 0.90 -0.85 9.93 -0.00 -0.05 0.03 11346
0.11 0.06 0.88 -0.86 9.90 -0.01 -0.06 0.03 11353
0.13 0.04 0.82 -0.86 9.89 -0.02 -0.08 0.02 11359
0.13 0.03 0.84 -0.88 9.96 -0.02 -0.08 0.02 11365
0.15 0.04 0.86 -0.86 10.08 -0.02 -0.09 0.02 11371
0.14 0.04 0.84 -0.83 10.01 -0.02 -0.08 0.03 11378
0.14 0.04 0.88 -0.84 10.09 -0.02 -0.08 0.02 11384
0.15 0.06 0.83 -0.82 10.06 -0.01 -0.07 0.02 11390
0.16 0.05 0.84 -0.83 10.05 -0.00 -0.07 0.02 11397
0.17 0.05 0.79 -0.82 10.04 0.01 -0.06 0.02 11404
0.21 0.05 0.81 -0.83 10.03 0.01 -0.05 0.02 11410
0.21 -0.00 0.86 -0.83 10.03 0.02 -0.05 0.02 11416
0.23 0.01 0.85 -0.85 10.00 0.02 -0.05 0.02 11422
0.23 0.00 0.83 -0.86 10.00 0.02 -0.04 0.02 11428
0.24 -0.02 0.85 -0.86 9.98 0.02 -0.04 0.02 11436
0.24 -0.01 0.82 -0.89 9.99 0.02 -0.04 0.02 11442
0.25 -0.02 0.81 -0.87 9.97 0.02 -0.04 0.02 11448
0.26 -0.03 0.82 -0.88 9.92 0.01 -0.03 0.02 11454
0.25 -0.02 0.81 -0.90 9.98 0.01 -0.03 0.02 11460
0.27 -0.02 0.83 -0.91 10.01 0.01 -0.03 0.02 11466
0.27 -0.03 0.81 -0.88 10.07 0.01 -0.02 0.02 11473
0.28 -0.03 0.81 -0.86 10.00 0.01 -0.02 0.02 11480
0.30 -0.03 0.82 -0.90 9.99 0.01 -0.02 0.02 11486
0.30 -0.03 0.86 -0.88 9.99 0.02 -0.01 0.02 11492
0.31 -0.03 0.84 -0.91 9.99 0.02 0.00 0.02 11498
0.33 -0.02 0.81 -0.89 9.99 0.02 0.00 0.02 11504
0.31 -0.03 0.85 -0.91 10.03 0.02 0.01 0.02 11511
0.32 -0.03 0.82 -0.86 10.00 0.03 0.02 0.03 11517
0.32 -0.03 0.86 -0.88 10.00 0.03 0.03 0.03 11524
0.33 -0.03 0.81 -0.88 9.97 0.03 0.04 0.02 11530
0.31 -0.03 0.86 -0.89 9.96 0.03 0.04 0.03 11536
0.31 -0.03 0.87 -0.90 9.93 0.03 0.05 0.03 11543
0.29 -0.03 0.88 -0.91 9.92 0.02 0.05 0.03 11549
0.28 -0.03 0.91 -0.92 9.96 0.01 0.06 0.02 11555
0.28 -0.01 0.87 -0.90 9.98 0.01 0.07 0.02 11561
0.27 -0.03 0.90 -0.92 9.97 0.01 0.07 0.03 11568
0.26 -0.03 0.92 -0.87 10.02 0.01 0.07 0.02 11574
0.23 -0.02 0.91 -0.93 9.95 0.01 0.08 0.03 11580
0.27 -0.03 0.91 -0.93 9.96 0.01 0.08 0.02 11587
0.24 -0.02 0.95 -0.89 9.93 0.01 0.08 0.02 11593
0.19 -0.02 0.93 -0.92 9.92 -0.00 0.07 0.02 11599
0.18 -0.01 0.95 -0.90 9.94 -0.00 0.06 0.02 11606
0.19 -0.02 0.97 -0.96 9.93 -0.01 0.05 0.02 11612
0.18 -0.02 0.97 -0.95 9.90 -0.01 0.05 0.02 11618
0.17 -0.02 0.95 -0.91 9.95 -0.02 0.04 0.01 11624
0.17 -0.02 0.99 -0.91 9.98 -0.02 0.03 0.01 11631
0.15 -0.02 0.96 -0.91 9.97 -0.01 0.03 0.01 11637
0.14 -0.01 0.97 -0.89 9.98 -0.02 0.02 0.01 11643
0.14 -0.01 1.00 -0.88 9.98 -0.02 0.02 0.00 11650
0.16 -0.02 0.98 -0.89 9.97 -0.02 0.01 0.01 11656
0.15 -0.01 1.00 -0.94 10.01 -0.01 -0.00 0.00 11662
0.14 -0.01 1.01 -0.90 9.95 -0.02 -0.00 -0.00 11668
0.15 -0.01 0.98 -0.91 9.98 -0.02 -0.01 -0.00 11674
0.13 -0.01 1.02 -0.90 9.98 -0.02 -0.01 -0.01 11681
0.13 -0.01 1.01 -0.88 10.05 -0.01 -0.01 -0.01 11687
0.15 -0.01 1.06 -0.91 10.03 -0.02 -0.02 -0.01 11694
0.16 -0.02 0.99 -0.93 10.00 -0.01 -0.01 -0.01 11700
0.16 -0.02 1.03 -0.92 10.01 -0.01 -0.02 -0.01 11706
0.17 -0.01 1.02 -0.91 9.95 -0.02 -0.02 -0.02 11713
0.17 -0.02 1.02 -0.90 9.95 -0.02 -0.02 -0.02 11719
0.17 -0.02 1.04 -0.96 9.95 -0.02 -0.02 -0.02 11725
0.18 -0.01 1.04 -0.98 9.96 -0.02 -0.02 -0.02 11731
0.17 -0.02 1.00 -0.92 9.95 -0.03 -0.03 -0.02 11738
0.17 -0.02 1.00 -0.96 9.98 -0.03 -0.03 -0.02 11744
0.17 -0.01 1.02 -0.97 9.93 -0.03 -0.04 -0.02 11750
0.18 -0.01 0.99 -0.88 10.02 -0.03 -0.04 -0.02 11757
0.17 -0.02 1.04 -0.91 9.98 -0.02 -0.04 -0.02 11763
0.17 -0.02 0.98 -0.89 10.05 -0.02 -0.04 -0.02 11769
0.20 -0.02 1.04 -0.90 10.02 -0.01 -0.04 -0.02 11776
0.18 -0.02 1.04 -0.92 9.99 -0.01 -0.04 -0.02 11782
0.17 -0.02 1.04 -0.93 9.98 -0.01 -0.04 -0.03 11788
0.20 -0.01 1.08 -0.92 9.99 -0.00 -0.03 -0.03 11795
0.20 -0.02 1.03 -0.96 9.98 0.00 -0.02 -0.04 11801
0.20 -0.02 0.97 -0.94 9.97 0.00 -0.02 -0.04 11807
0.20 -0.02 1.05 -0.95 10.03 0.00 -0.01 -0.04 11813
0.22 -0.02 1.05 -0.92 10.03 0.01 -0.01 -0.05 11820
0.22 -0.02 0.99 -0.89 10.00 0.01 0.00 -0.05 11826
0.22 -0.01 1.06 -0.93 10.00 0.01 0.01 -0.05 11833
0.23 -0.02 1.06 -0.93 10.11 0.02 0.01 -0.06 11839
0.22 -0.02 1.27 -0.91 9.93 0.02 0.02 -0.10 11845
0.24 -0.01 1.23 -1.05 10.10 0.03 0.02 -0.08 11851
0.23 -0.02 1.25 -0.98 10.01 0.04 0.03 -0.09 11858
0.23 -0.02 1.16 -0.97 10.17 0.05 0.04 -0.11 11865
0.24 -0.02 1.46 -1.02 10.22 0.07 0.05 -0.13 11871
0.24 -0.02 1.23 -0.98 10.23 0.11 0.07 -0.15 11877
0.25 -0.02 1.53 -0.90 10.44 0.16 0.08 -0.17 11883
0.28 -0.02 1.93 -1.05 10.55 0.24 0.11 -0.20 11890
0.25 -0.03 1.72 -1.12 10.61 0.38 0.14 -0.25 11896
0.25 -0.02 1.39 -1.06 10.81 0.58 0.17 -0.29 11902
0.23 -0.02 1.96 -1.24 11.23 0.85 0.21 -0.34 11909
0.21 -0.01 1.62 -1.27 11.63 1.16 0.25 -0.39 11916
0.17 -0.02 1.53 -1.06 12.41 1.44 0.24 -0.43 11922
0.18 -0.02 1.35 -1.40 12.40 1.69 0.27 -0.45 11928
0.14 0.00 1.22 -1.65 13.41 1.88 0.26 -0.45 11934
0.14 -0.01 0.89 -1.53 13.01 2.06 0.30 -0.43 11941
0.08 -0.01 0.63 -1.80 12.84 2.16 0.34 -0.38 11948
0.10 -0.01 0.88 -1.74 13.18 2.31 0.44 -0.33 11954
0.07 -0.01 1.10 -2.05 12.99 2.49 0.63 -0.32 11960
0.04 -0.00 0.87 -2.14 13.42 2.66 0.84 -0.29 11966
0.08 -0.01 0.96 -2.24 13.61 2.79 1.17 -0.24 11973
0.06 -0.01 0.96 -2.54 13.66 2.86 1.49 -0.18 11979
0.06 -0.01 1.07 -2.73 13.41 2.90 1.82 -0.13 11985
0.05 -0.00 1.61 -2.89 13.75 2.86 2.18 -0.08 11992
0.04 -0.00 1.86 -3.17 13.81 2.80 2.58 -0.02 11998
0.05 0.00 2.44 -3.76 13.92 2.70 2.95 0.02 12005
0.06 -0.01 2.81 -4.22 13.90 2.60 3.31 0.06 12011
0.04 -0.00 3.41 -4.62 14.66 2.46 3.63 0.11 12017
0.05 0.00 3.65 -4.67 15.55 2.28 3.95 0.14 12023
0.05 -0.00 3.37 -5.42 14.90 2.06 4.16 0.15 12030
0.04 -0.00 2.16 -5.03 14.41 1.91 4.27 0.16 12037
0.05 -0.01 1.13 -5.08 13.58 1.87 4.28 0.15 12043
0.04 -0.00 -0.59 -5.08 14.08 1.95 4.28 0.17 12049
0.04 -0.00 -2.07 -4.80 12.92 2.07 4.24 0.25 12055
0.07 -0.01 -3.46 -3.83 12.32 2.10 3.74 0.34 12062
0.05 -0.00 -4.35 -3.25 10.84 2.02 3.00 0.48 12068
0.04 -0.00 -6.03 -2.19 10.62 1.90 2.18 0.66 12075
0.05 -0.01 -5.81 -1.38 8.71 1.71 1.38 0.79 12081
0.03 -0.00 -5.82 0.88 4.85 1.37 0.19 0.93 12087
0.04 -0.00 -7.98 2.76 5.33 1.01 -0.93 0.81 12093
0.05 -0.01 -12.79 5.17 8.09 0.59 -2.02 0.21 12100
0.03 -0.00 -13.45 4.63 18.21 -0.19 -2.92 -0.90 12106
0.04 -0.00 -4.31 2.74 16.13 -1.19 -3.14 -1.75 12112
0.04 -0.00 -0.86 2.67 12.77 -1.68 -2.84 -2.22 12119
0.03 -0.00 -1.55 1.61 9.22 -1.78 -2.49 -2.59 12126
0.03 -0.00 -2.94 1.04 8.18 -1.75 -2.22 -3.00 12132
0.02 -0.00 -2.94 0.26 7.39 -1.74 -2.08 -3.41 12138
0.03 -0.00 -1.94 0.12 5.81 -1.67 -2.20 -3.68 12144
0.03 -0.00 -0.42 0.19 6.57 -1.50 -2.43 -3.75 12150
0.04 -0.00 0.44 0.19 8.25 -1.34 -2.56 -3.63 12156
0.03 -0.00 0.73 0.27 9.33 -1.22 -2.55 -3.33 12163
0.03 -0.00 1.65 0.62 9.79 -1.15 -2.48 -3.01 12170
0.04 -0.00 3.32 1.60 10.01 -1.16 -2.57 -2.61 12176
0.04 -0.00 4.41 2.30 10.25 -1.25 -2.76 -2.22 12182
0.03 -0.00 5.31 2.33 10.22 -1.37 -2.91 -1.81 12188
0.03 -0.00 6.35 2.12 10.52 -1.49 -2.94 -1.41 12195
0.03 -0.00 7.47 2.05 11.05 -1.60 -2.87 -1.04 12201
0.03 -0.00 8.36 1.87 11.19 -1.70 -2.69 -0.69 12208
0.03 -0.00 8.86 1.54 10.62 -1.79 -2.43 -0.38 12214
0.02 -0.00 8.98 1.12 10.10 -1.86 -2.11 -0.12 12220
0.02 -0.00 8.98 0.58 9.54 -1.90 -1.81 0.11 12227
0.03 -0.00 9.13 -0.14 12.31 -1.91 -1.56 0.31 12233
0.02 -0.00 8.39 -0.46 9.12 -1.87 -1.33 0.50 12239
0.03 0.01 8.07 -0.93 8.96 -1.80 -1.14 0.66 12246
0.03 -0.00 7.74 -1.35 8.78 -1.72 -1.01 0.82 12252
0.02 -0.00 7.53 -1.71 8.82 -1.62 -0.85 0.97 12258
0.02 -0.00 7.30 -2.00 8.89 -1.51 -0.71 1.05 12265
0.04 -0.00 6.94 -2.17 9.16 -1.41 -0.57 1.15 12271
0.03 -0.00 6.46 -2.47 9.25 -1.31 -0.44 1.23 12277
0.04 -0.00 5.87 -2.68 9.28 -1.20 -0.35 1.28 12283
0.04 -0.00 5.47 -2.71 9.52 -1.11 -0.31 1.30 12290
0.03 -0.00 5.29 -2.79 10.31 -1.05 -0.27 1.29 12296
0.03 -0.00 5.31 -3.04 10.95 -1.01 -0.25 1.27 12303
0.04 -0.00 5.34 -3.21 11.36 -1.02 -0.24 1.24 12309
0.03 -0.00 5.47 -3.38 11.70 -1.07 -0.23 1.20 12315
0.03 0.00 5.52 -3.64 11.72 -1.14 -0.22 1.14 12321
0.03 -0.00 5.45 -3.97 11.39 -1.22 -0.21 1.08 12328
0.02 -0.00 5.49 -4.36 11.07 -1.29 -0.21 0.99 12335
0.03 -0.00 5.68 -4.63 10.87 -1.33 -0.19 0.88 12341
0.02 -0.00 5.79 -4.85 10.62 -1.34 -0.13 0.77 12347
0.00 -0.00 5.83 -4.91 10.38 -1.34 -0.03 0.70 12353
0.03 -0.00 5.46 -5.02 9.45 -1.33 0.12 0.59 12360
0.02 -0.00 4.42 -5.14 8.32 -1.29 0.37 0.49 12366
0.01 -0.00 3.05 -5.13 8.90 -1.21 0.78 0.39 12372
0.03 0.01 1.77 -5.49 10.12 -1.12 1.13 0.27 12379
0.03 -0.00 0.35 -5.72 10.89 -1.06 1.30 0.18 12385
0.02 -0.00 -0.92 -5.30 11.36 -1.02 1.30 0.14 12392
0.03 -0.00 -1.95 -4.52 11.42 -1.01 1.18 0.16 12398
0.03 -0.00 -2.73 -3.83 11.12 -1.03 0.96 0.24 12404
0.02 -0.00 -3.06 -3.47 10.97 -1.07 0.65 0.33 12410
0.03 -0.00 -2.99 -3.41 10.83 -1.10 0.30 0.40 12417
0.03 -0.00 -2.49 -3.38 10.72 -1.13 0.07 0.44 12424
0.03 -0.00 -1.65 -3.38 10.51 -1.15 -0.13 0.42 12430
0.03 -0.00 -0.79 -3.56 10.27 -1.18 -0.23 0.39 12436
0.02 -0.00 -0.04 -3.70 9.85 -1.20 -0.27 0.32 12442
0.02 -0.00 0.63 -3.90 9.55 -1.21 -0.26 0.23 12448
0.03 -0.00 1.28 -4.08 9.30 -1.22 -0.22 0.15 12454
0.02 -0.00 1.93 -4.27 9.21 -1.21 -0.19 0.07 12462
0.02 -0.00 2.63 -4.35 9.11 -1.18 -0.17 0.01 12468
0.03 -0.00 3.30 -4.33 8.81 -1.11 -0.14 -0.03 12474
0.02 -0.00 3.99 -4.31 8.41 -1.09 -0.07 -0.05 12480
0.01 -0.00 4.53 -4.39 8.09 -1.02 0.04 -0.04 12486
0.03 0.00 5.04 -4.47 7.97 -0.95 0.20 0.01 12492
0.03 -0.00 5.22 -4.61 7.70 -0.89 0.38 0.09 12498
0.02 -0.00 5.13 -4.68 7.70 -0.83 0.53 0.20 12506
0.02 -0.00 4.98 -4.84 7.43 -0.76 0.65 0.32 12512
0.04 -0.00 4.96 -4.85 7.08 -0.70 0.75 0.43 12518
0.02 -0.00 4.91 -4.62 6.84 -0.61 0.85 0.53 12524
0.02 -0.00 4.89 -4.35 6.79 -0.59 0.97 0.62 12530
0.02 -0.00 4.72 -4.08 6.60 -0.56 1.09 0.68 12536
0.02 -0.00 4.35 -4.07 6.50 -0.55 1.14 0.72 12542
0.03 -0.00 4.51 -5.80 3.83 -0.54 1.21 0.74 12550
0.03 -0.00 -7.03 -19.18 29.55 1.75 0.96 0.89 12556
0.03 -0.00 -7.18 -10.72 3.25 1.40 0.07 0.71 12562
0.04 0.02 -7.91 -26.34 -4.93 1.61 -0.98 0.41 12568
0.04 0.13 -12.88 -49.56 12.23 2.34 -1.90 0.15 12575
0.03 0.20 -4.70 -2.75 55.97 2.36 -3.09 -0.15 12581
0.01 0.31 1.27 -8.24 17.86 0.39 -1.85 -0.13 12588
0.02 0.29 0.72 -2.67 11.44 0.02 -0.41 0.16 12595
0.03 0.26 -1.03 -1.01 11.39 -0.14 0.04 0.13 12601
0.02 0.28 -0.40 1.15 9.62 -0.29 0.37 0.05 12607
0.02 0.28 0.07 0.88 7.84 -0.20 0.20 -0.06 12613
0.02 0.32 1.63 0.39 8.89 0.04 -0.26 -0.19 12619
0.01 0.37 2.93 -0.46 9.26 0.15 -0.42 -0.08 12626
0.00 0.38 1.55 -0.88 10.09 0.14 -0.26 0.07 12633
0.02 0.39 0.51 -1.18 10.63 0.09 -0.08 0.11 12639
0.03 0.40 -0.06 -0.73 10.51 0.04 -0.01 0.08 12645
0.03 0.38 0.39 -0.82 10.49 0.01 0.03 0.04 12652
0.04 0.37 0.90 -1.30 10.34 0.00 0.07 0.07 12658
0.04 0.38 0.67 -1.04 10.10 0.00 0.08 0.09 12664
0.04 0.40 0.61 -0.68 10.06 0.00 0.07 0.09 12670
0.05 0.38 0.89 -0.74 9.95 -0.00 0.06 0.08 12677
0.04 0.37 0.95 -0.82 10.01 -0.02 0.03 0.07 12684
0.04 0.42 0.87 -0.68 10.13 -0.02 0.00 0.07 12690
0.03 0.43 0.72 -0.71 10.01 -0.02 -0.00 0.06 12696
0.03 0.38 0.73 -0.71 10.08 -0.03 -0.01 0.06 12702
0.07 0.42 0.67 -0.74 10.05 -0.03 -0.00 0.07 12709
0.06 0.38 0.73 -0.70 10.17 -0.03 0.00 0.07 12716
0.06 0.38 0.80 -0.66 10.22 -0.02 0.01 0.07 12722
0.06 0.39 0.83 -0.68 9.98 -0.01 0.00 0.07 12728
0.06 0.39 0.82 -0.68 10.06 -0.01 0.00 0.06 12734
0.06 0.42 0.80 -0.68 9.92 -0.01 0.00 0.05 12741
0.06 0.40 0.77 -0.63 10.05 0.00 0.00 0.05 12747
0.06 0.37 0.77 -0.65 10.03 0.00 0.00 0.05 12753
0.07 0.38 0.79 -0.69 10.02 0.00 0.00 0.04 12760
0.07 0.35 0.80 -0.67 10.03 -0.00 0.00 0.04 12766
0.05 0.35 0.79 -0.68 10.01 -0.00 -0.00 0.04 12773
0.08 0.35 0.79 -0.72 9.98 -0.00 -0.00 0.04 12779
0.06 0.33 0.80 -0.69 9.90 -0.00 0.00 0.04 12785
0.04 0.31 0.78 -0.70 10.03 0.00 0.01 0.04 12791
0.06 0.31 0.77 -0.68 10.09 0.00 0.01 0.04 12797
0.05 0.29 0.81 -0.71 10.05 0.00 0.02 0.04 12805
0.05 0.26 0.82 -0.70 10.02 0.01 0.02 0.05 12811
0.07 0.27 0.80 -0.71 10.00 0.01 0.02 0.04 12817
0.06 0.26 0.81 -0.73 10.01 0.01 0.02 0.04 12823
0.07 0.23 0.79 -0.68 10.00 0.01 0.02 0.04 12829
0.07 0.22 0.85 -0.72 9.95 0.01 0.02 0.04 12836
0.05 0.18 0.86 -0.72 9.98 0.01 0.01 0.05 12843
0.06 0.18 0.85 -0.73 9.99 0.00 0.02 0.04 12849
0.07 0.18 0.86 -0.69 10.01 0.00 0.01 0.04 12855
0.07 0.15 0.82 -0.75 9.96 0.00 0.01 0.05 12861
0.07 0.14 0.83 -0.70 9.98 -0.00 0.01 0.04 12868
0.07 0.14 0.85 -0.69 10.00 -0.00 0.01 0.04 12874
0.07 0.13 0.85 -0.71 9.94 -0.00 0.01 0.05 12880
0.06 0.13 0.88 -0.71 9.94 -0.01 0.01 0.04 12887
0.07 0.12 0.87 -0.72 9.97 -0.00 0.01 0.04 12893
0.06 0.09 0.84 -0.70 9.99 -0.00 0.01 0.04 12899
0.06 0.13 0.86 -0.72 9.97 -0.01 0.01 0.04 12906
0.08 0.11 0.88 -0.70 9.99 -0.00 0.01 0.04 12912
0.06 0.11 0.86 -0.67 9.99 -0.00 0.01 0.04 12918
0.05 0.10 0.89 -0.74 10.00 -0.00 0.01 0.04 12924
0.06 0.09 0.88 -0.71 10.00 -0.00 0.01 0.04 12931
0.06 0.07 0.86 -0.67 9.97 -0.01 0.01 0.04 12937
0.05 0.07 0.90 -0.75 9.98 -0.01 0.01 0.04 12944
0.07 0.07 0.87 -0.72 9.96 -0.00 0.01 0.04 12950
0.07 0.08 0.90 -0.72 10.01 -0.01 0.01 0.04 12956
0.05 0.09 0.91 -0.70 9.98 -0.01 0.01 0.04 12962
0.07 0.08 0.93 -0.68 9.97 -0.01 0.00 0.04 12968
0.06 0.06 0.91 -0.74 10.02 -0.01 0.01 0.04 12976
0.06 0.06 0.93 -0.72 10.00 -0.01 0.00 0.04 12982
0.07 0.04 0.91 -0.69 9.98 -0.01 0.00 0.04 12988
0.05 0.05 0.90 -0.70 9.99 -0.01 0.01 0.04 12994
0.03 0.06 0.95 -0.74 9.94 -0.01 0.00 0.04 13000
0.07 0.07 0.93 -0.71 9.99 -0.01 0.01 0.03 13006
0.06 0.07 0.94 -0.73 10.00 -0.01 0.00 0.03 13014
0.05 0.05 0.95 -0.69 9.99 -0.01 -0.00 0.03 13020
0.07 0.06 0.92 -0.72 9.97 -0.01 -0.01 0.03 13026
0.05 0.05 0.96 -0.71 9.98 -0.01 -0.01 0.02 13032
0.05 0.05 0.93 -0.71 10.01 -0.01 -0.02 0.03 13038
0.06 0.07 0.96 -0.74 9.94 -0.01 -0.02 0.03 13045
0.06 0.05 0.92 -0.75 10.03 -0.01 -0.02 0.02 13051
0.05 0.04 0.95 -0.75 9.97 -0.02 -0.03 0.03 13058
0.07 0.06 0.93 -0.72 9.97 -0.02 -0.03 0.02 13064
0.07 0.04 0.93 -0.73 9.96 -0.02 -0.04 0.02 13070
0.06 0.04 0.95 -0.74 9.98 -0.02 -0.04 0.02 13076
0.07 0.06 0.95 -0.73 9.99 -0.02 -0.05 0.02 13083
0.07 0.04 0.91 -0.71 9.98 -0.02 -0.05 0.02 13089
0.06 0.03 0.90 -0.72 9.98 -0.01 -0.05 0.02 13095
0.06 0.04 0.92 -0.72 9.96 -0.01 -0.05 0.02 13102
0.08 0.04 0.91 -0.75 9.96 -0.02 -0.06 0.02 13108
0.07 0.01 0.91 -0.72 9.99 -0.02 -0.06 0.02 13115
0.07 0.03 0.94 -0.74 9.96 -0.02 -0.06 0.01 13121
0.08 0.00 0.93 -0.73 9.98 -0.02 -0.06 0.01 13127
0.07 -0.00 0.91 -0.74 10.02 -0.02 -0.06 0.02 13133
0.09 0.02 0.94 -0.74 9.97 -0.02 -0.06 0.02 13139
0.09 0.02 0.95 -0.74 9.98 -0.02 -0.06 0.02 13146
0.09 0.01 0.92 -0.72 10.01 -0.02 -0.06 0.02 13153
0.10 0.04 0.88 -0.75 9.97 -0.01 -0.06 0.02 13159
0.10 0.01 0.90 -0.68 10.00 -0.01 -0.06 0.02 13165
0.08 0.01 0.92 -0.70 10.00 -0.01 -0.06 0.02 13171
0.09 0.02 0.92 -0.72 9.99 -0.01 -0.06 0.02 13177
0.08 0.02 0.89 -0.70 10.01 -0.01 -0.05 0.02 13185
0.08 0.01 0.91 -0.73 9.98 -0.01 -0.05 0.02 13191
0.09 0.02 0.91 -0.74 10.01 -0.01 -0.05 0.02 13197
0.10 0.03 0.91 -0.74 9.99 -0.01 -0.05 0.02 13203
0.09 0.02 0.90 -0.75 10.03 -0.01 -0.05 0.02 13209
0.11 0.04 0.89 -0.75 9.98 -0.01 -0.05 0.02 13216
0.10 0.06 0.93 -0.72 10.01 -0.01 -0.05 0.02 13222
0.11 0.05 0.94 -0.73 9.95 -0.01 -0.04 0.02 13229
0.14 0.04 0.91 -0.71 9.97 -0.01 -0.04 0.02 13235
0.11 0.03 0.91 -0.72 10.04 -0.01 -0.03 0.01 13241
0.12 0.04 0.92 -0.71 10.02 -0.01 -0.03 0.02 13248
0.13 0.02 0.92 -0.72 10.04 -0.01 -0.02 0.01 13254
0.12 -0.01 0.93 -0.72 10.02 -0.00 -0.02 0.01 13260
0.11 0.01 0.96 -0.73 10.04 0.00 -0.01 0.01 13266
0.13 -0.01 0.91 -0.71 10.07 0.01 -0.01 0.01 13274
0.12 -0.01 0.94 -0.73 10.08 0.01 -0.00 0.00 13280
0.14 -0.01 0.96 -0.74 10.06 0.02 0.00 -0.00 13286
0.15 -0.00 0.99 -0.77 10.12 0.03 0.01 -0.01 13292
0.14 -0.01 0.99 -0.42 9.99 0.04 0.02 -0.02 13298
0.15 -0.01 0.99 -0.65 10.05 0.05 0.03 -0.02 13305
0.16 -0.02 1.11 -0.79 9.99 0.06 0.04 -0.03 13312
0.14 -0.01 0.76 -0.83 10.15 0.06 0.05 -0.03 13318
0.13 -0.01 1.23 -0.92 10.30 0.06 0.07 -0.04 13324
0.12 -0.01 0.98 -0.82 10.09 0.08 0.09 -0.04 13330
0.10 -0.01 1.05 -0.86 10.16 0.09 0.10 -0.03 13336
0.10 -0.01 1.02 -0.76 10.10 0.12 0.11 -0.02 13343
0.10 -0.01 1.17 -0.86 10.24 0.16 0.10 -0.02 13349
0.11 -0.01 1.12 -0.89 10.24 0.22 0.10 -0.02 13356
0.11 -0.01 1.12 -0.91 10.39 0.31 0.09 -0.04 13362
0.09 -0.01 0.97 -0.85 10.65 0.46 0.10 -0.05 13368
0.08 -0.01 1.09 -0.95 10.99 0.61 0.16 -0.06 13375
0.11 -0.01 1.19 -0.93 11.79 0.86 0.24 -0.09 13381
0.06 -0.01 1.08 -1.04 12.45 1.12 0.35 -0.10 13387
0.05 -0.00 1.00 -1.24 13.06 1.42 0.54 -0.10 13393
0.07 -0.01 0.90 -1.41 13.97 1.67 0.82 -0.09 13400
0.04 -0.00 0.94 -1.52 14.27 1.83 1.22 -0.08 13407
0.05 -0.01 0.44 -1.76 14.47 1.88 1.70 -0.05 13413
0.06 -0.01 0.55 -1.94 14.24 1.91 2.12 0.01 13419
0.05 -0.00 0.74 -2.11 14.31 1.96 2.50 0.08 13425
0.05 -0.01 0.58 -2.08 14.44 1.98 2.85 0.14 13431
0.06 -0.01 0.51 -2.61 14.25 2.01 3.11 0.24 13438
0.06 -0.01 0.53 -3.06 15.09 2.03 3.28 0.35 13445
0.05 -0.00 0.36 -3.61 15.00 2.06 3.44 0.49 13451
0.06 -0.01 0.09 -3.70 14.99 2.07 3.47 0.63 13457
0.04 -0.00 -0.01 -3.59 14.94 2.07 3.43 0.74 13463
0.04 -0.00 0.34 -3.16 14.85 2.06 3.39 0.83 13470
0.05 -0.01 0.96 -2.91 13.75 2.03 3.34 0.89 13476
0.06 -0.01 1.07 -2.76 13.57 2.05 3.33 0.92 13483
0.05 -0.01 0.16 -2.65 12.44 2.09 3.26 0.94 13489
0.06 -0.01 -1.31 -2.44 11.95 2.11 3.10 0.94 13495
0.04 -0.00 -3.38 -1.75 10.90 2.10 2.82 0.87 13502
0.05 -0.01 -6.53 -1.30 9.44 2.00 2.32 0.78 13508
0.05 -0.00 -9.09 -0.10 7.45 1.82 1.40 0.49 13514
0.04 -0.00 -10.16 1.22 7.91 1.53 0.15 0.07 13520
0.04 0.01 -21.57 4.31 14.13 1.00 -1.35 -0.73 13527
0.04 -0.00 -11.95 3.10 12.83 0.36 -2.67 -1.50 13534
0.04 -0.00 -5.79 1.01 12.94 0.00 -3.25 -1.88 13540
0.06 -0.01 -4.64 0.33 12.54 -0.16 -3.37 -2.26 13546
0.04 -0.00 -3.42 -0.14 11.11 -0.14 -3.27 -2.71 13552
0.03 -0.00 -1.69 -0.60 9.98 -0.07 -3.33 -3.03 13558
0.04 -0.00 -0.17 0.02 10.36 -0.01 -3.48 -3.15 13565
0.04 -0.00 0.84 0.94 11.12 0.03 -3.61 -3.08 13572
0.03 -0.00 2.09 2.05 12.38 -0.00 -3.64 -2.88 13578
0.04 -0.00 4.05 3.11 13.62 -0.12 -3.51 -2.61 13584
0.04 -0.00 4.68 3.59 13.32 -0.31 -3.33 -2.31 13590
0.05 -0.00 5.36 3.77 12.52 -0.53 -3.08 -2.00 13597
0.04 -0.00 5.76 3.62 11.49 -0.73 -2.84 -1.68 13603
0.04 -0.00 5.89 3.16 10.38 -0.87 -2.68 -1.38 13609
0.05 -0.00 6.05 2.68 9.72 -0.93 -2.58 -1.13 13616
0.04 -0.00 6.50 2.19 9.15 -0.92 -2.49 -0.80 13622
0.04 -0.00 7.05 2.24 8.79 -0.87 -2.42 -0.44 13629
0.04 0.00 7.40 2.24 8.92 -0.81 -2.32 -0.07 13635
0.03 -0.00 7.80 2.16 8.89 -0.79 -2.18 0.26 13641
0.04 -0.00 9.02 1.74 11.70 -0.79 -2.02 0.55 13647
0.04 -0.00 8.65 1.82 8.74 -0.79 -1.82 0.81 13654
0.04 -0.00 8.65 1.59 8.58 -0.78 -1.60 1.05 13660
0.03 -0.00 8.49 1.29 8.53 -0.78 -1.37 1.23 13666
0.03 -0.00 8.17 1.08 8.50 -0.76 -1.14 1.39 13673
0.04 -0.00 7.71 0.89 8.74 -0.75 -0.93 1.47 13679
0.04 -0.00 7.22 0.86 8.96 -0.74 -0.72 1.55 13685
0.03 -0.00 6.66 0.86 9.23 -0.76 -0.56 1.58 13691
0.04 0.00 6.09 0.82 9.34 -0.80 -0.42 1.60 13698
0.04 -0.00 5.43 0.68 9.41 -0.84 -0.30 1.58 13704
0.04 -0.00 4.87 0.51 9.40 -0.89 -0.19 1.55 13711
0.03 -0.00 3.76 0.35 9.46 -0.93 -0.12 1.50 13717
0.04 -0.00 3.88 0.25 9.58 -0.96 -0.06 1.44 13723
0.04 -0.00 3.46 0.07 9.54 -0.98 -0.01 1.37 13729
0.02 -0.00 2.92 -0.16 9.58 -1.00 0.02 1.27 13735
0.05 0.00 2.30 -0.51 9.62 -1.01 0.00 1.16 13742
0.03 -0.00 1.91 -0.87 9.80 -1.01 -0.08 1.02 13748
0.03 -0.00 1.83 -1.14 10.20 -1.01 -0.19 0.87 13755
0.04 -0.00 1.95 -1.25 10.64 -1.02 -0.30 0.73 13761
0.04 -0.00 2.20 -1.30 11.10 -1.04 -0.40 0.59 13767
0.02 -0.00 2.72 -1.26 11.77 -1.10 -0.50 0.46 13773
0.03 0.00 3.22 -1.42 12.26 -1.19 -0.50 0.34 13779
0.04 -0.00 3.07 -1.72 12.28 -1.29 -0.49 0.23 13787
0.03 -0.00 3.77 -2.17 12.03 -1.40 -0.46 0.14 13793
0.05 -0.01 3.69 -2.51 11.55 -1.49 -0.43 0.07 13799
0.03 -0.00 3.59 -2.97 10.89 -1.54 -0.38 0.02 13805
0.03 -0.00 3.30 -3.41 10.21 -1.53 -0.31 -0.01 13811
0.05 -0.00 3.02 -3.76 9.75 -1.48 -0.22 -0.03 13818
0.03 -0.00 2.58 -3.91 9.40 -1.40 -0.12 -0.04 13825
0.03 -0.00 2.13 -3.90 9.26 -1.29 -0.01 -0.06 13831
0.04 -0.00 1.76 -3.70 9.39 -1.19 0.10 -0.08 13837
0.04 -0.00 1.30 -3.45 9.50 -1.12 0.20 -0.09 13843
0.03 -0.00 0.92 -3.22 9.79 -1.06 0.26 -0.11 13849
0.03 -0.00 0.81 -3.05 10.08 -1.01 0.23 -0.12 13856
0.04 -0.00 0.85 -3.01 10.40 -0.97 0.26 -0.14 13862
0.03 -0.00 1.14 -3.12 10.52 -0.97 0.23 -0.16 13869
0.03 -0.00 1.55 -3.24 10.59 -0.97 0.20 -0.18 13875
0.04 -0.00 2.00 -3.41 10.66 -0.99 0.19 -0.21 13881
0.03 -0.00 2.47 -3.67 10.74 -1.01 0.19 -0.25 13888
0.04 -0.00 2.78 -3.92 10.85 -1.05 0.18 -0.30 13894
0.03 -0.00 3.09 -4.07 10.89 -1.09 0.19 -0.36 13900
0.02 -0.00 3.43 -4.47 11.08 -1.13 0.21 -0.42 13906
0.04 -0.00 3.87 -5.02 10.94 -1.17 0.22 -0.48 13913
0.04 -0.00 4.23 -5.59 10.60 -1.21 0.25 -0.54 13920
0.04 -0.00 4.34 -6.21 9.99 -1.22 0.32 -0.60 13926
0.05 -0.01 4.39 -6.97 9.00 -1.20 0.40 -0.67 13932
0.03 -0.00 4.31 -7.67 8.12 -1.11 0.53 -0.76 13938
0.02 -0.00 4.90 -8.08 7.53 -0.98 0.66 -0.87 13944
0.04 -0.00 4.23 -8.29 7.11 -0.81 0.84 -0.99 13950
0.04 -0.00 4.33 -9.52 6.46 -0.64 1.03 -1.05 13957
0.04 -0.00 0.46 -17.60 15.09 -0.00 1.45 -0.93 13964
0.04 -0.00 6.87 -8.75 3.31 0.69 1.61 -0.77 13970
0.04 -0.00 3.01 -8.39 -1.71 0.76 1.53 -0.74 13976
0.04 -0.00 1.30 -12.24 7.47 1.01 1.71 -0.51 13982
0.05 -0.00 -5.03 -20.72 14.62 1.68 1.01 -0.16 13988
0.04 -0.00 -5.37 -15.13 5.16 1.96 -0.79 -0.11 13996
0.03 0.00 -21.56 -45.78 37.10 1.42 -2.86 -0.17 14002
0.04 0.08 -4.61 -11.36 16.11 -0.02 -0.92 -0.08 14008
0.04 0.16 -1.00 -9.71 13.54 -0.17 -0.04 0.16 14015
0.05 0.17 -1.19 -2.22 10.55 -0.19 0.08 -0.00 14021
0.04 0.17 0.35 0.19 9.40 -0.14 0.12 0.01 14027
0.04 0.17 0.92 0.46 9.93 -0.10 0.08 0.06 14033
0.05 0.28 1.93 0.13 9.23 -0.09 0.06 0.12 14040
0.04 0.34 0.60 -0.55 11.09 -0.09 0.07 0.14 14047
0.03 0.42 0.99 -0.81 10.04 -0.06 0.05 0.11 14053
0.04 0.43 1.12 -0.26 9.81 -0.03 0.02 0.07 14059
0.03 0.49 0.92 -0.39 9.87 0.00 0.01 0.07 14065
0.04 0.46 0.67 -0.75 9.97 0.00 0.00 0.05 14071
0.04 0.47 0.51 -0.89 10.22 0.00 0.02 0.05 14078
0.05 0.45 0.54 -0.97 10.16 0.00 0.05 0.05 14085
0.05 0.44 0.60 -0.95 10.08 -0.01 0.07 0.06 14091
0.05 0.44 0.63 -0.82 10.09 -0.02 0.09 0.07 14097
0.05 0.43 0.75 -0.74 9.99 -0.01 0.10 0.07 14104
0.06 0.47 0.84 -0.75 10.12 -0.02 0.11 0.07 14110
0.05 0.47 0.78 -0.72 10.05 -0.02 0.11 0.07 14116
0.04 0.49 0.79 -0.71 9.92 -0.01 0.11 0.08 14123
0.06 0.47 0.84 -0.74 10.07 -0.01 0.11 0.07 14129
0.06 0.50 0.87 -0.71 10.09 -0.01 0.11 0.07 14136
0.06 0.52 0.78 -0.77 10.04 -0.01 0.11 0.07 14142
0.06 0.53 0.78 -0.79 9.99 -0.01 0.13 0.08 14148
0.04 0.50 0.87 -0.71 10.05 -0.00 0.14 0.09 14154
0.05 0.51 0.85 -0.73 10.00 -0.01 0.14 0.08 14161
0.05 0.49 0.86 -0.73 9.99 -0.00 0.13 0.08 14168
0.03 0.48 0.89 -0.69 10.07 -0.01 0.13 0.08 14174
0.05 0.51 0.91 -0.68 10.02 -0.01 0.13 0.08 14180
0.04 0.49 0.89 -0.72 10.00 -0.01 0.12 0.07 14186
0.03 0.51 0.91 -0.68 9.97 -0.02 0.12 0.07 14193
0.04 0.52 0.91 -0.73 9.84 -0.02 0.11 0.08 14199
0.02 0.49 0.87 -0.74 9.98 -0.02 0.11 0.07 14205
0.04 0.48 0.91 -0.73 9.98 -0.02 0.11 0.07 14212
0.05 0.50 0.94 -0.76 9.97 -0.03 0.11 0.07 14218
0.03 0.50 0.99 -0.72 9.98 -0.03 0.10 0.07 14225
0.04 0.51 0.97 -0.69 9.96 -0.03 0.11 0.07 14231
0.03 0.50 0.98 -0.70 9.96 -0.04 0.11 0.07 14237
0.02 0.48 1.02 -0.67 10.00 -0.04 0.11 0.06 14243
0.03 0.51 0.98 -0.65 9.96 -0.04 0.12 0.06 14249
0.05 0.50 1.02 -0.71 10.05 -0.04 0.12 0.06 14257
0.01 0.49 1.03 -0.71 9.96 -0.04 0.12 0.05 14263
0.04 0.49 1.04 -0.71 9.98 -0.05 0.12 0.05 14269
0.03 0.49 1.03 -0.71 9.98 -0.05 0.11 0.04 14275
0.01 0.45 1.08 -0.71 9.92 -0.04 0.11 0.04 14281
0.03 0.44 1.07 -0.71 9.92 -0.04 0.10 0.04 14288
0.03 0.41 1.08 -0.69 9.94 -0.04 0.08 0.03 14295
0.02 0.42 1.08 -0.68 9.95 -0.03 0.06 0.03 14301
0.03 0.44 1.10 -0.69 9.97 -0.03 0.04 0.03 14307
0.03 0.42 1.11 -0.70 9.96 -0.03 0.02 0.02 14313
0.01 0.45 1.11 -0.68 9.93 -0.03 0.01 0.01 14319
0.03 0.48 1.14 -0.69 9.95 -0.02 -0.00 0.01 14326
0.02 0.50 1.10 -0.72 9.97 -0.02 -0.02 0.01 14332
0.01 0.50 1.11 -0.69 10.00 -0.03 -0.02 0.01 14339
0.02 0.51 1.11 -0.72 9.95 -0.03 -0.04 0.00 14345
0.02 0.53 1.08 -0.71 9.90 -0.03 -0.05 -0.00 14351
0.01 0.51 1.14 -0.70 9.94 -0.03 -0.06 0.00 14358
0.02 0.52 1.09 -0.69 9.97 -0.02 -0.06 0.00 14364
0.02 0.50 1.12 -0.67 9.97 -0.02 -0.06 -0.00 14370
0.01 0.49 1.10 -0.69 9.95 -0.01 -0.07 -0.00 14376
0.02 0.52 1.12 -0.69 9.97 -0.00 -0.07 -0.00 14383
0.02 0.48 1.07 -0.72 9.97 -0.00 -0.07 0.00 14390
0.01 0.48 1.16 -0.70 9.99 -0.00 -0.07 0.00 14396
0.02 0.53 1.11 -0.69 9.98 0.00 -0.07 0.00 14402
0.02 0.51 1.07 -0.69 10.00 0.00 -0.07 0.00 14408
0.01 0.51 1.09 -0.72 10.00 0.00 -0.07 0.00 14414
0.03 0.51 1.08 -0.69 9.99 0.00 -0.06 0.01 14420
0.02 0.51 1.07 -0.71 9.96 -0.00 -0.06 0.00 14428
0.01 0.48 1.06 -0.68 9.99 -0.00 -0.06 0.00 14434
0.02 0.50 1.08 -0.70 9.96 -0.01 -0.05 0.00 14440
0.03 0.47 1.06 -0.68 9.98 -0.01 -0.05 0.00 14446
0.02 0.47 1.08 -0.71 9.97 -0.01 -0.05 0.00 14452
0.02 0.49 1.11 -0.73 9.91 -0.01 -0.06 0.00 14459
0.03 0.48 1.09 -0.66 9.97 -0.01 -0.06 -0.01 14466
0.03 0.46 1.11 -0.65 9.92 -0.01 -0.07 -0.01 14472
0.03 0.48 1.09 -0.68 9.92 -0.01 -0.09 -0.01 14478
0.03 0.45 1.08 -0.68 9.96 -0.01 -0.09 -0.02 14484
0.02 0.44 1.09 -0.72 9.94 -0.01 -0.10 -0.02 14490
0.02 0.48 1.04 -0.70 9.97 -0.00 -0.11 -0.02 14497
0.02 0.48 1.08 -0.71 9.93 -0.01 -0.11 -0.02 14503
0.02 0.45 1.01 -0.72 9.96 -0.01 -0.10 -0.02 14510
0.03 0.44 1.03 -0.73 9.98 -0.01 -0.10 -0.01 14516
0.03 0.42 1.01 -0.70 9.98 -0.00 -0.10 -0.01 14522
0.02 0.43 1.03 -0.72 9.99 -0.00 -0.09 -0.01 14529
0.02 0.45 1.03 -0.73 9.92 -0.01 -0.09 -0.01 14535
0.03 0.48 1.03 -0.71 9.97 -0.00 -0.09 -0.01 14541
0.02 0.45 0.99 -0.68 9.92 -0.00 -0.09 -0.00 14547
0.02 0.44 1.01 -0.70 9.90 -0.01 -0.08 -0.01 14554
0.03 0.44 0.96 -0.69 10.04 -0.00 -0.08 -0.00 14561
0.02 0.43 1.02 -0.71 9.99 -0.00 -0.08 -0.00 14567
0.03 0.42 0.98 -0.72 9.96 0.00 -0.08 -0.00 14573
0.04 0.40 0.99 -0.72 9.97 -0.00 -0.08 0.01 14579
0.02 0.38 0.99 -0.67 9.97 -0.00 -0.07 0.01 14585
0.04 0.38 1.00 -0.71 10.00 0.01 -0.07 0.00 14593
0.03 0.35 0.97 -0.67 10.00 0.01 -0.07 0.01 14599
0.03 0.37 0.99 -0.70 9.92 0.01 -0.07 0.01 14605
0.03 0.36 0.99 -0.73 10.00 0.01 -0.06 0.01 14611
0.03 0.38 0.99 -0.69 10.03 0.01 -0.06 0.01 14617
0.04 0.36 0.99 -0.69 9.98 0.01 -0.06 0.01 14624
0.05 0.31 0.98 -0.68 10.02 0.01 -0.05 0.01 14630
0.03 0.28 0.96 -0.68 9.98 0.01 -0.05 0.01 14637
0.05 0.27 0.99 -0.70 9.97 0.01 -0.05 0.01 14643
0.05 0.26 0.96 -0.71 9.96 0.01 -0.05 0.01 14649
0.05 0.26 0.96 -0.70 9.98 0.00 -0.04 0.01 14656
0.05 0.23 0.93 -0.73 9.99 0.01 -0.05 0.02 14662
0.07 0.20 0.97 -0.75 9.97 0.01 -0.04 0.02 14668
0.06 0.16 0.95 -0.68 10.04 0.01 -0.04 0.02 14674
0.07 0.15 0.98 -0.68 10.02 0.00 -0.04 0.02 14681
0.06 0.15 0.99 -0.70 9.99 0.01 -0.04 0.02 14688
0.06 0.10 0.99 -0.70 9.99 0.00 -0.04 0.01 14694
0.06 0.12 0.98 -0.73 10.03 0.01 -0.04 0.01 14700
0.07 0.10 0.98 -0.74 10.04 0.00 -0.04 0.01 14706
0.07 0.07 0.96 -0.75 10.09 0.00 -0.03 0.01 14712
0.07 0.10 0.99 -0.69 10.07 0.00 -0.02 0.01 14720
0.08 0.07 0.94 -0.74 10.10 0.01 -0.02 0.01 14726
0.06 0.07 0.98 -0.72 10.11 0.01 -0.01 0.02 14732
0.08 0.03 1.07 -0.82 10.06 0.02 -0.01 0.01 14738
0.08 0.02 1.04 -0.73 10.04 0.02 -0.00 0.01 14744
0.06 0.01 1.08 -0.79 10.04 0.02 0.00 0.00 14751
0.09 0.01 1.07 -0.78 10.04 0.02 0.01 0.00 14757
0.08 -0.01 1.03 -0.83 10.07 0.03 0.01 -0.01 14764
0.08 0.00 1.12 -0.88 10.02 0.04 0.02 -0.02 14770
0.09 -0.01 1.15 -1.23 10.26 0.06 0.03 -0.03 14776
0.08 -0.01 0.98 -0.80 10.17 0.08 0.03 -0.03 14783
0.07 -0.01 1.09 -0.83 10.13 0.11 0.03 -0.06 14789
0.09 -0.01 1.16 -0.77 10.25 0.16 0.01 -0.09 14795
0.09 -0.01 1.46 -0.81 10.35 0.22 -0.01 -0.12 14801
0.09 -0.01 1.30 -0.59 10.76 0.33 -0.03 -0.16 14808
0.09 -0.01 1.48 -0.93 11.57 0.53 0.02 -0.20 14815
0.06 -0.01 1.54 -0.75 12.07 0.92 0.20 -0.29 14821
0.06 -0.01 1.34 -0.81 13.87 1.45 0.48 -0.34 14827
0.06 -0.01 0.92 -0.86 14.76 1.92 0.89 -0.39 14833
0.06 -0.01 1.03 -1.24 14.37 2.11 1.17 -0.36 14839
0.05 -0.00 0.79 -1.20 14.46 2.14 1.49 -0.34 14846
0.06 -0.01 1.22 -1.42 14.45 2.15 1.89 -0.30 14853
0.04 -0.00 1.33 -1.59 14.45 2.14 2.25 -0.28 14859
0.06 -0.01 1.03 -1.71 14.01 2.14 2.56 -0.24 14865
0.04 -0.00 0.97 -1.78 14.16 2.13 2.80 -0.18 14871
0.04 -0.00 0.59 -2.46 14.58 2.13 3.03 -0.08 14878
0.06 -0.01 1.36 -2.68 15.21 2.12 3.24 0.02 14884
0.05 -0.00 1.25 -3.49 15.39 2.10 3.43 0.12 14891
0.06 -0.01 0.59 -3.80 15.90 2.05 3.55 0.20 14897
0.06 -0.01 0.10 -4.06 15.94 1.98 3.59 0.28 14903
0.04 -0.00 0.11 -4.21 14.78 1.98 3.62 0.39 14910
0.04 -0.00 -0.10 -4.23 14.04 2.01 3.62 0.49 14916
0.05 -0.01 -1.69 -3.61 13.33 2.06 3.46 0.54 14922
0.05 -0.01 -2.81 -3.40 13.03 2.11 3.20 0.62 14928
0.04 -0.00 -4.94 -3.23 11.82 2.14 2.82 0.66 14935
0.05 -0.01 -9.33 -2.30 11.69 2.15 2.34 0.50 14942
0.03 -0.00 -10.65 -0.21 9.59 2.01 1.38 0.09 14948
0.05 -0.00 -15.67 1.94 9.15 1.72 0.20 -0.31 14954
0.04 -0.00 -15.11 4.23 13.77 1.10 -1.22 -0.97 14960
0.03 -0.00 -8.94 3.54 12.75 0.47 -2.24 -1.40 14966
0.05 -0.01 -5.44 2.31 13.17 0.11 -2.78 -1.66 14973
0.04 -0.00 -3.88 1.45 11.95 -0.03 -2.92 -1.98 14980
0.04 -0.00 -2.14 1.02 10.36 -0.03 -2.91 -2.31 14986
0.05 -0.01 -0.70 1.17 9.59 0.01 -2.92 -2.54 14992
0.03 -0.00 0.53 2.12 10.11 0.03 -2.95 -2.63 14998
0.03 -0.00 1.35 3.11 10.72 -0.01 -2.97 -2.57 15005
0.04 -0.00 2.17 3.90 10.94 -0.12 -2.93 -2.41 15011
0.04 -0.00 3.03 4.36 11.06 -0.29 -2.82 -2.18 15017
0.05 -0.00 3.93 4.50 10.59 -0.49 -2.66 -1.92 15024
0.04 -0.00 4.31 4.43 10.00 -0.69 -2.48 -1.66 15031
0.03 -0.00 4.57 4.13 9.34 -0.85 -2.31 -1.40 15037
0.05 0.00 4.80 3.72 9.02 -0.95 -2.16 -1.17 15043
0.04 -0.00 5.03 3.39 8.52 -0.99 -2.07 -0.92 15049
0.04 -0.00 5.29 3.19 8.31 -0.99 -2.03 -0.65 15055
0.04 -0.00 5.46 2.93 8.17 -0.98 -2.00 -0.37 15062
0.04 -0.00 5.80 2.68 8.03 -0.97 -1.95 -0.09 15069
0.03 -0.00 6.16 2.38 7.96 -0.96 -1.89 0.16 15075
0.03 -0.00 5.67 1.88 8.06 -0.94 -1.82 0.41 15081
0.04 0.00 6.39 1.74 8.12 -0.90 -1.71 0.62 15087
0.03 -0.00 6.35 1.44 8.25 -0.85 -1.57 0.82 15093
0.02 -0.00 6.16 1.08 8.42 -0.79 -1.43 0.95 15099
0.03 0.01 5.95 0.80 9.13 -0.75 -1.30 1.08 15106
0.03 -0.00 5.77 0.65 8.94 -0.71 -1.17 1.18 15113
0.02 -0.00 5.77 0.63 9.78 -0.69 -1.05 1.27 15119
0.03 0.01 5.78 0.68 10.45 -0.70 -0.93 1.36 15125
0.03 -0.00 5.65 0.79 10.85 -0.77 -0.79 1.44 15131
0.01 -0.00 5.52 0.83 11.20 -0.90 -0.67 1.50 15137
0.03 0.00 5.29 0.69 11.36 -1.00 -0.58 1.54 15144
0.03 -0.00 4.84 0.34 11.20 -1.15 -0.51 1.55 15151
0.01 -0.00 4.35 -0.03 10.80 -1.27 -0.48 1.54 15157
0.04 -0.00 4.02 -0.44 10.22 -1.35 -0.47 1.48 15163
0.03 -0.00 3.89 -0.79 9.96 -1.39 -0.48 1.39 15169
0.02 -0.00 3.80 -1.06 9.97 -1.39 -0.50 1.30 15176
0.03 -0.00 3.89 -1.30 10.04 -1.37 -0.50 1.17 15182
0.03 -0.00 4.09 -1.45 10.01 -1.36 -0.48 1.04 15188
0.02 -0.00 4.26 -1.54 10.09 -1.35 -0.45 0.92 15195
0.04 -0.00 4.29 -1.56 10.06 -1.35 -0.42 0.80 15201
0.02 -0.00 4.25 -1.54 9.90 -1.33 -0.41 0.70 15208
0.02 -0.00 4.19 -1.51 9.63 -1.31 -0.42 0.61 15214
0.03 -0.00 4.17 -1.49 9.42 -1.27 -0.44 0.54 15220
0.03 -0.00 4.11 -1.30 9.18 -1.21 -0.46 0.47 15226
0.02 -0.00 4.01 -1.08 9.26 -1.16 -0.47 0.42 15233
0.02 -0.00 4.13 -0.87 9.70 -1.12 -0.45 0.38 15239
0.02 -0.00 4.23 -0.87 10.32 -1.12 -0.41 0.37 15246
0.03 -0.00 4.69 -0.74 11.60 -1.15 -0.35 0.35 15252
0.02 0.00 5.26 -0.74 12.87 -1.23 -0.24 0.35 15258
0.03 -0.00 5.58 -0.84 12.41 -1.36 -0.10 0.37 15264
0.02 -0.00 5.64 -1.25 12.15 -1.51 0.02 0.38 15270
0.03 -0.00 5.64 -1.92 11.70 -1.64 0.09 0.41 15278
0.02 -0.00 5.55 -2.89 11.32 -1.72 0.12 0.44 15284
0.01 -0.00 5.52 -3.83 10.93 -1.72 0.14 0.46 15290
0.04 -0.00 5.51 -4.74 10.31 -1.67 0.19 0.50 15296
0.03 -0.00 5.55 -5.48 9.89 -1.55 0.28 0.53 15302
0.02 -0.00 5.60 -6.07 10.09 -1.46 0.40 0.56 15309
0.04 -0.00 5.29 -6.45 10.61 -1.33 0.52 0.58 15315
0.03 -0.00 4.86 -6.73 10.99 -1.23 0.61 0.60 15322
0.02 -0.00 4.25 -7.06 10.87 -1.16 0.68 0.60 15328
0.04 -0.00 3.67 -7.51 10.39 -1.11 0.72 0.57 15334
0.03 -0.00 5.11 -18.17 10.46 -1.02 0.78 0.53 15341
0.02 -0.00 3.74 -13.30 14.35 0.02 1.79 0.56 15347
0.03 -0.00 2.15 -6.63 3.14 0.14 1.64 0.43 15353
0.03 -0.00 2.02 -14.23 5.17 0.13 1.52 0.29 15360
0.03 -0.00 1.03 -17.22 8.43 0.19 1.40 0.25 15366
0.03 -0.00 -0.19 -14.98 13.84 0.55 0.97 0.20 15373
0.02 -0.00 -1.40 -13.10 7.54 0.67 0.14 0.02 15379
0.03 -0.00 -2.04 -17.88 7.65 0.71 -0.33 -0.14 15385
0.03 -0.00 -1.67 -17.91 7.68 0.89 -0.51 -0.20 15391
0.04 -0.00 -2.27 -25.44 6.02 1.11 -0.70 -0.25 15397
0.04 0.01 -2.93 -24.55 4.55 1.29 -0.88 -0.35 15405
0.04 0.03 -0.87 -21.58 26.79 1.54 -1.46 -0.39 15411
0.03 0.07 1.02 -2.71 15.37 0.26 -1.15 -0.18 15417
0.02 0.06 0.33 -2.73 12.20 -0.00 -0.27 0.06 15424
0.01 0.12 0.59 -0.83 9.53 -0.10 -0.04 0.07 15430
0.04 0.15 -0.14 -0.42 10.00 -0.11 -0.00 0.06 15436
0.02 0.14 0.04 -0.35 9.76 -0.07 0.02 0.06 15442
0.02 0.23 0.71 -0.51 9.68 -0.07 0.03 0.07 15449
0.04 0.25 0.89 -0.71 10.44 -0.07 0.03 0.11 15456
0.03 0.31 0.77 -0.71 10.13 -0.08 0.05 0.12 15462
0.03 0.37 0.75 -1.19 10.03 -0.08 0.05 0.11 15468
0.04 0.38 0.80 -0.98 10.13 -0.07 0.06 0.11 15474
0.03 0.42 0.71 -0.79 10.19 -0.07 0.06 0.09 15481
0.03 0.46 0.82 -0.83 10.06 -0.06 0.06 0.09 15488
0.03 0.47 0.78 -0.86 10.22 -0.05 0.07 0.07 15494
0.02 0.50 0.76 -0.78 9.86 -0.04 0.07 0.07 15500
