Voltage_01 Voltage_02 Acc_x Acc_y Acc_z Gyro_x Gyro_y Gyro_z Time
5000
0.06 0.29 0.83 -0.70 9.92 -0.08 0.08 0.06 17
0.05 0.28 0.75 -0.69 9.99 -0.07 0.07 0.06 23
0.05 0.39 0.73 -0.68 10.04 -0.07 0.07 0.07 29
0.06 0.44 0.71 -0.65 10.03 -0.06 0.03 0.07 35
0.05 0.39 0.76 -0.63 10.07 -0.05 0.07 0.07 41
0.04 0.44 0.74 -0.58 10.07 -0.03 0.07 0.07 48
0.03 0.47 0.77 -0.62 9.99 -0.02 0.07 0.07 54
0.04 0.44 0.79 -0.60 10.07 -0.01 0.07 0.07 60
0.06 0.44 0.80 -0.59 9.99 -0.00 0.07 0.07 66
0.05 0.45 0.78 -0.63 10.01 0.00 0.07 0.06 72
0.04 0.44 0.83 -0.64 9.96 0.01 0.06 0.07 78
0.03 0.43 0.73 -0.69 9.99 0.01 0.06 0.07 84
0.04 0.41 0.77 -0.68 9.97 0.01 0.06 0.06 91
0.05 0.40 0.78 -0.69 9.98 0.01 0.06 0.06 97
0.05 0.40 0.80 -0.69 10.00 0.01 0.05 0.06 103
0.05 0.36 0.80 -0.68 10.01 0.01 0.05 0.06 110
0.04 0.33 0.81 -0.70 9.99 0.01 0.04 0.06 116
0.05 0.29 0.79 -0.68 9.93 0.01 0.04 0.06 122
0.06 0.24 0.81 -0.68 10.00 0.01 0.00 0.06 129
0.05 0.23 0.83 -0.66 10.00 0.01 0.03 0.06 135
0.04 0.20 0.85 -0.70 9.98 0.01 0.03 0.06 141
0.06 0.18 0.89 -0.69 10.00 0.01 0.02 0.06 147
0.07 0.18 0.83 -0.70 9.97 0.02 0.02 0.05 153
0.06 0.17 0.82 -0.69 9.97 0.01 0.02 0.06 159
0.07 0.13 0.89 -0.74 9.94 0.01 0.02 0.06 165
0.06 0.12 0.91 -0.70 9.99 0.01 0.02 0.05 172
0.06 0.11 0.88 -0.68 10.04 0.01 0.02 0.05 178
0.06 0.14 0.90 -0.71 9.93 0.00 0.01 0.05 184
0.06 0.11 0.88 -0.70 9.98 0.00 0.02 0.05 191
0.06 0.10 0.89 -0.69 10.02 0.00 0.02 0.05 197
0.05 0.08 0.88 -0.72 9.97 -0.00 0.02 0.05 203
0.06 0.08 0.91 -0.72 9.97 -0.00 0.01 0.05 209
0.06 0.08 0.86 -0.74 9.95 -0.00 0.01 0.05 216
0.05 0.05 0.90 -0.68 9.93 -0.00 0.02 0.05 222
0.05 0.04 0.89 -0.72 9.98 -0.01 0.02 0.05 228
0.07 0.07 0.94 -0.73 9.89 -0.01 0.02 0.05 234
0.07 0.07 0.94 -0.67 9.98 -0.00 0.02 0.05 240
0.06 0.07 0.90 -0.70 9.99 -0.01 0.01 0.05 246
0.06 0.04 0.87 -0.73 10.01 -0.00 0.01 0.05 252
0.05 0.04 0.91 -0.72 10.00 -0.01 0.01 0.05 259
0.07 0.08 0.93 -0.73 9.99 -0.01 0.02 0.05 265
0.08 0.05 0.92 -0.74 9.95 -0.01 0.02 0.05 271
0.06 0.06 0.95 -0.75 9.99 -0.01 0.01 0.05 278
0.05 0.04 0.90 -0.74 9.98 -0.01 0.01 0.05 284
0.05 0.04 0.94 -0.73 9.97 -0.01 0.02 0.04 290
0.06 0.07 0.97 -0.72 9.96 -0.02 0.01 0.05 296
0.05 0.06 0.94 -0.75 9.98 -0.01 0.01 0.04 303
0.04 0.06 0.98 -0.76 9.97 -0.02 0.01 0.04 309
0.04 0.07 0.93 -0.74 9.93 -0.02 0.01 0.04 315
0.05 0.07 0.96 -0.71 9.96 -0.02 -0.00 0.03 321
0.07 0.09 0.99 -0.75 10.00 -0.02 -0.01 0.03 327
0.05 0.08 0.96 -0.73 9.94 -0.02 -0.01 0.03 333
0.05 0.08 1.00 -0.70 9.99 -0.02 -0.01 0.03 339
0.04 0.08 0.97 -0.69 9.98 -0.02 -0.01 0.03 346
0.05 0.09 0.99 -0.71 10.00 -0.02 -0.02 0.03 352
0.05 0.08 0.99 -0.72 9.94 -0.01 -0.02 0.03 358
0.04 0.09 0.99 -0.72 10.04 -0.01 -0.02 0.03 365
0.04 0.07 0.99 -0.72 9.98 -0.02 -0.02 0.03 371
0.04 0.10 0.97 -0.71 9.99 -0.02 -0.02 0.03 377
0.06 0.08 0.96 -0.70 9.97 -0.02 -0.03 0.03 384
0.04 0.09 0.95 -0.73 10.02 -0.02 -0.02 0.03 390
0.04 0.08 0.96 -0.70 10.02 -0.01 -0.03 0.02 396
0.03 0.10 0.97 -0.72 9.98 -0.01 -0.02 0.02 402
0.05 0.09 0.96 -0.72 9.96 -0.01 -0.02 0.02 408
0.04 0.08 1.02 -0.74 10.00 -0.02 -0.02 0.02 414
0.04 0.08 0.98 -0.72 9.99 -0.01 -0.03 0.02 420
0.03 0.09 0.99 -0.76 9.95 -0.02 -0.03 0.02 427
0.04 0.11 0.97 -0.73 9.98 -0.02 -0.04 0.02 433
0.05 0.09 1.01 -0.69 9.98 -0.02 -0.04 0.02 440
0.04 0.10 1.02 -0.70 9.94 -0.02 -0.05 0.01 446
0.04 0.09 0.98 -0.71 9.98 -0.03 -0.05 0.01 452
0.04 0.10 1.00 -0.70 9.97 -0.03 -0.05 0.01 458
0.04 0.11 0.99 -0.74 9.98 -0.02 -0.05 0.02 464
0.04 0.10 1.02 -0.74 9.99 -0.02 -0.05 0.02 471
0.04 0.09 0.99 -0.73 9.96 -0.02 -0.04 0.02 477
0.03 0.11 0.98 -0.72 9.98 -0.02 -0.04 0.02 483
0.05 0.12 0.97 -0.69 9.99 -0.02 -0.04 0.01 489
0.06 0.10 0.94 -0.69 10.02 -0.02 -0.03 0.02 495
0.05 0.10 0.99 -0.67 10.01 -0.01 -0.03 0.02 501
0.04 0.10 1.01 -0.71 9.97 -0.01 -0.04 0.02 507
0.05 0.08 1.01 -0.74 10.01 -0.01 -0.03 0.02 515
0.06 0.09 0.99 -0.73 10.01 -0.01 -0.04 0.02 521
0.05 0.09 1.00 -0.69 10.01 -0.01 -0.04 0.02 527
0.05 0.06 1.02 -0.70 9.94 -0.01 -0.04 0.02 533
0.04 0.07 1.03 -0.71 9.96 -0.01 -0.04 0.02 539
0.06 0.06 1.01 -0.74 9.99 -0.01 -0.04 0.02 545
0.05 0.06 0.97 -0.69 10.01 -0.02 -0.04 0.02 551
0.04 0.05 0.99 -0.74 9.99 -0.01 -0.04 0.02 558
0.05 0.07 1.00 -0.75 9.99 -0.02 -0.04 0.02 564
0.05 0.08 0.94 -0.71 9.97 -0.02 -0.05 0.02 570
0.05 0.07 0.98 -0.72 10.04 -0.02 -0.04 0.02 576
0.05 0.07 0.97 -0.72 10.02 -0.01 -0.04 0.02 583
0.04 0.08 0.97 -0.74 10.02 -0.01 -0.04 0.02 589
0.04 0.09 1.01 -0.72 10.00 -0.01 -0.05 0.02 595
0.05 0.07 0.97 -0.74 10.08 -0.01 -0.04 0.03 602
0.05 0.05 0.98 -0.72 10.05 -0.00 -0.04 0.03 608
0.04 0.06 1.00 -0.76 10.01 0.00 -0.04 0.03 614
0.05 0.05 0.99 -0.73 10.05 0.01 -0.04 0.03 620
0.04 0.04 1.01 -0.71 10.04 0.01 -0.03 0.03 626
0.05 0.01 1.04 -0.75 10.03 0.01 -0.02 0.04 632
0.04 0.04 1.08 -0.77 10.05 0.02 -0.03 0.03 640
0.06 0.01 1.18 -0.73 10.07 0.03 -0.03 0.03 646
0.05 -0.00 1.10 -0.70 10.15 0.04 -0.03 0.02 652
0.05 -0.00 1.20 -0.78 10.20 0.06 -0.04 0.02 658
0.04 0.00 1.06 -0.75 10.13 0.09 -0.05 0.01 664
0.06 -0.01 1.10 -0.52 10.14 0.11 -0.06 -0.01 670
0.05 -0.00 0.97 -0.77 10.23 0.15 -0.08 -0.01 676
0.05 -0.00 0.95 -0.87 10.19 0.18 -0.10 -0.03 683
0.03 -0.00 1.04 -0.85 10.58 0.23 -0.11 -0.06 689
0.05 0.01 1.14 -0.81 10.63 0.32 -0.08 -0.07 695
0.04 -0.00 0.82 -1.04 11.78 0.49 0.08 -0.07 701
0.04 -0.00 0.96 -1.07 12.93 0.82 0.43 -0.08 708
0.03 -0.00 0.98 -1.15 13.43 1.21 0.83 -0.09 714
0.05 -0.00 0.60 -0.97 13.61 1.43 1.13 -0.09 720
0.05 -0.01 0.66 -1.40 13.12 1.48 1.25 -0.05 727
0.04 -0.00 0.61 -1.59 13.03 1.50 1.38 0.00 733
0.04 -0.00 0.85 -1.73 13.17 1.51 1.55 0.04 739
0.04 -0.00 0.81 -1.89 12.96 1.56 1.71 0.10 745
0.05 -0.01 0.79 -2.00 12.72 1.57 1.85 0.15 751
0.04 -0.00 0.83 -2.21 12.83 1.58 1.97 0.22 757
0.04 -0.00 0.90 -2.27 13.13 1.59 2.10 0.28 763
0.03 -0.00 0.83 -3.01 13.72 1.60 2.20 0.34 770
0.04 -0.00 0.74 -2.28 13.31 1.57 2.30 0.39 777
0.04 -0.00 1.19 -2.03 13.03 1.51 2.37 0.42 783
0.04 -0.00 1.48 -2.06 13.21 1.46 2.46 0.44 789
0.04 -0.00 2.03 -2.10 13.12 1.45 2.58 0.45 795
0.04 0.00 1.63 -2.10 12.44 1.45 2.65 0.43 801
0.04 0.00 1.23 -2.27 12.03 1.48 2.70 0.42 807
0.04 -0.00 0.27 -2.18 11.77 1.50 2.64 0.43 814
0.04 -0.00 -0.90 -2.13 11.56 1.50 2.56 0.43 820
0.04 0.00 -3.32 -1.37 11.16 1.45 2.32 0.34 826
0.04 -0.00 -6.86 -0.38 10.64 1.36 1.85 0.10 833
0.04 -0.00 -9.39 0.91 11.68 1.15 1.03 -0.37 839
0.03 -0.00 -11.96 1.69 12.40 0.84 0.22 -0.80 845
0.05 -0.00 -12.43 2.32 14.24 0.40 -0.76 -1.39 851
0.03 -0.00 -8.11 1.54 13.81 -0.01 -1.51 -1.68 858
0.02 -0.00 -6.21 1.12 13.98 -0.31 -1.95 -1.91 864
0.03 0.00 -4.62 0.77 13.28 -0.51 -2.06 -2.16 870
0.03 -0.00 -2.94 0.13 11.75 -0.63 -2.14 -2.39 876
0.04 -0.00 -2.13 -0.09 10.69 -0.66 -2.22 -2.52 883
0.02 -0.00 -1.47 -0.16 10.38 -0.66 -2.23 -2.54 889
0.03 -0.00 -0.77 -0.15 10.09 -0.64 -2.24 -2.49 896
0.04 -0.00 0.03 0.01 9.22 -0.61 -2.28 -2.40 902
0.04 -0.00 0.81 0.27 9.32 -0.58 -2.34 -2.25 908
0.02 -0.00 1.45 0.26 8.78 -0.55 -2.39 -2.05 914
0.03 -0.00 2.15 0.25 8.19 -0.48 -2.47 -1.83 920
0.03 0.00 2.61 0.33 7.78 -0.40 -2.49 -1.60 926
0.03 -0.00 3.34 0.58 7.69 -0.30 -2.55 -1.42 932
0.03 -0.00 4.17 0.77 8.19 -0.20 -2.56 -1.20 939
0.03 -0.00 4.80 1.08 8.55 -0.16 -2.49 -0.99 945
0.04 -0.00 5.12 1.26 8.60 -0.15 -2.38 -0.78 951
0.04 -0.00 5.45 1.45 8.86 -0.18 -2.28 -0.58 957
0.04 -0.00 5.59 1.36 8.92 -0.24 -2.13 -0.43 963
0.04 -0.00 5.89 1.02 7.69 -0.31 -1.95 -0.25 969
0.04 -0.00 5.67 1.07 8.91 -0.36 -1.76 -0.08 975
0.03 -0.00 5.59 1.03 9.35 -0.42 -1.60 0.09 982
0.03 -0.00 5.66 0.96 9.55 -0.49 -1.39 0.22 988
0.05 -0.00 5.41 0.82 9.60 -0.59 -1.19 0.37 995
0.04 -0.00 5.24 0.63 9.37 -0.68 -1.01 0.50 1001
0.04 -0.00 4.91 0.31 9.08 -0.75 -0.88 0.60 1007
0.03 -0.00 4.53 -0.02 8.77 -0.79 -0.80 0.67 1013
0.03 -0.00 4.00 -0.34 8.55 -0.82 -0.77 0.69 1019
0.03 -0.00 3.64 -0.67 8.36 -0.83 -0.78 0.68 1026
0.04 -0.00 3.71 -0.92 8.38 -0.83 -0.82 0.64 1032
0.03 0.00 3.96 -1.05 8.44 -0.83 -0.83 0.57 1038
0.05 -0.00 4.30 -1.19 8.56 -0.84 -0.79 0.50 1044
0.03 -0.00 4.50 -1.32 8.54 -0.85 -0.71 0.43 1050
0.02 -0.00 4.69 -1.51 8.63 -0.87 -0.63 0.38 1057
0.03 -0.00 4.87 -1.57 8.73 -0.88 -0.52 0.35 1063
0.05 -0.00 5.03 -1.81 8.93 -0.88 -0.41 0.34 1070
0.04 -0.00 5.26 -2.06 9.06 -0.88 -0.30 0.37 1076
0.04 -0.00 5.40 -2.31 9.15 -0.89 -0.21 0.41 1082
0.03 -0.00 5.57 -2.49 9.05 -0.90 -0.10 0.48 1088
0.05 -0.00 5.73 -2.62 8.96 -0.91 -0.01 0.56 1094
0.04 -0.00 5.75 -2.71 8.98 -0.92 0.09 0.67 1100
0.03 -0.00 5.75 -2.79 9.13 -0.92 0.20 0.72 1106
0.03 -0.00 5.79 -2.86 9.31 -0.93 0.31 0.80 1113
0.03 -0.00 5.72 -3.02 9.45 -0.95 0.44 0.88 1120
0.03 -0.00 5.56 -3.30 9.37 -0.97 0.55 0.95 1126
0.03 -0.00 5.32 -3.54 9.16 -0.98 0.66 1.01 1132
0.02 -0.00 4.91 -3.82 9.13 -0.97 0.68 1.07 1138
0.04 -0.00 4.45 -4.03 9.11 -0.94 0.69 1.05 1144
0.04 -0.00 4.12 -3.96 9.22 -0.91 0.68 1.03 1150
0.03 -0.00 3.93 -3.84 9.32 -0.91 0.66 0.98 1157
0.03 -0.00 3.90 -3.77 9.53 -0.93 0.65 0.90 1163
0.03 -0.00 3.82 -3.77 9.46 -0.97 0.70 0.80 1169
0.03 -0.00 3.57 -3.95 9.15 -1.03 0.71 0.67 1175
0.03 -0.00 3.01 -4.18 8.75 -1.07 0.80 0.60 1182
0.02 -0.00 2.11 -4.42 8.15 -1.07 0.90 0.50 1188
0.04 -0.00 1.17 -4.70 8.00 -1.02 0.98 0.40 1195
0.03 -0.00 0.55 -4.75 8.11 -0.96 0.99 0.30 1201
0.04 -0.00 0.26 -4.41 7.83 -0.90 0.89 0.21 1207
0.02 -0.00 0.21 -4.07 7.06 -0.85 0.78 0.15 1213
0.04 -0.00 0.63 -3.96 6.46 -0.79 0.66 0.09 1219
0.05 -0.00 1.40 -4.20 5.81 -0.68 0.56 0.05 1225
0.04 -0.00 2.56 -4.60 5.17 -0.51 0.53 0.02 1231
0.03 -0.00 3.84 -5.12 3.93 -0.32 0.55 0.01 1238
0.03 -0.00 0.71 -24.44 0.45 0.01 0.54 -0.00 1244
0.04 -0.00 -24.53 -49.24 78.47 2.24 -3.55 -0.09 1251
0.03 0.01 -5.37 -7.02 -1.60 -0.67 0.15 0.03 1257
0.05 0.06 -0.04 -14.11 10.62 -0.42 -0.05 0.12 1263
0.05 0.10 -2.15 -0.33 12.26 -0.31 -0.03 -0.10 1269
0.03 0.09 0.54 0.03 9.87 -0.11 0.07 -0.01 1275
0.05 0.17 0.77 -0.50 10.09 -0.16 0.08 0.04 1283
0.04 0.28 0.05 0.55 10.03 -0.20 0.12 0.05 1289
0.03 0.32 0.16 0.17 10.76 -0.13 0.14 0.09 1295
0.03 0.42 0.64 -0.23 10.66 -0.07 0.16 0.08 1301
0.04 0.41 0.94 -0.54 10.35 -0.00 0.14 0.07 1307
0.03 0.51 0.87 -0.60 9.90 -0.01 0.14 0.07 1314
0.02 0.48 0.64 -0.70 10.09 -0.01 0.14 0.07 1320
0.02 0.54 0.51 -0.85 9.94 -0.02 0.15 0.07 1327
0.02 0.53 0.61 -0.90 10.10 -0.03 0.16 0.08 1333
0.01 0.56 0.93 -1.03 9.89 -0.04 0.16 0.09 1339
0.03 0.60 0.78 -0.84 10.07 -0.04 0.16 0.09 1345
0.02 0.59 0.82 -0.68 10.05 -0.05 0.14 0.10 1352
0.02 0.69 0.88 -0.68 9.96 -0.05 0.12 0.09 1358
0.02 0.74 0.88 -0.52 10.04 -0.05 0.09 0.08 1364
0.01 0.72 0.86 -0.45 9.99 -0.04 0.06 0.07 1371
0.00 0.73 0.79 -0.48 9.98 -0.03 0.04 0.06 1377
0.02 0.76 0.77 -0.55 9.99 -0.02 0.03 0.06 1383
0.02 0.77 0.78 -0.60 10.05 -0.01 0.01 0.06 1389
0.02 0.75 0.78 -0.64 10.00 0.00 -0.00 0.06 1396
0.02 0.75 0.75 -0.63 10.15 0.01 -0.00 0.06 1402
0.03 0.72 0.79 -0.66 10.01 0.01 -0.01 0.07 1409
0.02 0.69 0.73 -0.65 10.04 0.01 -0.01 0.06 1415
0.02 0.69 0.75 -0.63 9.99 0.01 -0.01 0.06 1421
0.03 0.68 0.74 -0.62 10.07 0.01 -0.01 0.06 1427
0.02 0.67 0.78 -0.66 10.00 0.01 -0.02 0.06 1434
0.01 0.65 0.80 -0.65 9.98 0.01 -0.02 0.06 1440
0.02 0.65 0.73 -0.68 9.98 0.01 -0.03 0.06 1446
0.01 0.63 0.72 -0.63 10.06 0.00 -0.03 0.06 1453
0.02 0.62 0.72 -0.68 10.00 0.00 -0.03 0.06 1459
0.01 0.64 0.72 -0.68 10.07 -0.00 -0.03 0.06 1465
0.04 0.62 0.77 -0.62 10.04 -0.01 -0.02 0.05 1472
0.03 0.62 0.75 -0.64 10.03 -0.00 -0.02 0.06 1478
0.03 0.64 0.77 -0.66 10.03 -0.00 -0.02 0.06 1484
0.03 0.63 0.75 -0.64 10.01 0.00 -0.02 0.05 1490
0.03 0.62 0.76 -0.66 10.00 -0.00 -0.02 0.05 1497
0.03 0.63 0.74 -0.68 10.01 0.00 -0.02 0.05 1504
0.04 0.62 0.74 -0.66 9.97 0.00 -0.02 0.05 1510
0.03 0.62 0.77 -0.70 10.00 -0.00 -0.02 0.05 1516
0.02 0.63 0.75 -0.67 10.01 -0.01 -0.02 0.05 1522
0.04 0.62 0.74 -0.68 10.01 -0.01 -0.02 0.05 1528
0.03 0.61 0.76 -0.68 10.00 -0.01 -0.02 0.04 1534
0.03 0.61 0.75 -0.68 10.02 -0.01 -0.02 0.04 1542
0.03 0.62 0.77 -0.65 10.01 -0.01 -0.02 0.04 1548
0.03 0.62 0.78 -0.66 10.02 -0.01 -0.02 0.04 1554
0.02 0.62 0.75 -0.68 10.01 -0.01 -0.02 0.04 1560
0.04 0.63 0.74 -0.68 9.99 -0.01 -0.02 0.04 1566
0.03 0.63 0.75 -0.70 9.99 -0.01 -0.02 0.03 1572
0.02 0.62 0.77 -0.67 9.98 -0.02 -0.02 0.04 1580
0.03 0.64 0.77 -0.65 9.95 -0.02 -0.02 0.03 1586
0.03 0.62 0.76 -0.67 10.04 -0.02 -0.02 0.04 1592
0.02 0.61 0.75 -0.69 10.05 -0.02 -0.02 0.07 1598
0.01 0.63 0.76 -0.66 10.01 -0.03 -0.02 0.03 1604
0.02 0.64 0.77 -0.67 10.01 -0.02 -0.02 0.03 1610
0.01 0.63 0.75 -0.69 9.97 -0.03 -0.01 0.03 1617
0.02 0.65 0.79 -0.67 9.97 -0.03 -0.01 0.03 1624
0.03 0.64 0.79 -0.68 9.99 -0.03 -0.01 0.03 1630
0.03 0.63 0.78 -0.63 10.02 -0.03 -0.01 0.02 1636
0.03 0.66 0.78 -0.64 10.06 -0.03 -0.02 0.02 1642
0.04 0.64 0.80 -0.66 9.94 -0.03 -0.02 0.02 1648
0.03 0.66 0.76 -0.66 10.07 -0.03 -0.02 0.02 1655
0.01 0.72 0.79 -0.66 9.97 -0.04 -0.03 0.01 1661
0.02 0.77 0.79 -0.66 10.02 -0.04 -0.03 0.01 1668
0.02 0.77 0.80 -0.66 9.99 -0.04 -0.04 0.01 1674
0.01 0.74 0.83 -0.64 9.98 -0.04 -0.04 0.00 1680
0.02 0.78 0.82 -0.70 10.04 -0.04 -0.04 0.00 1686
0.02 0.80 0.76 -0.65 10.04 -0.04 -0.04 0.01 1692
0.02 0.73 0.77 -0.63 10.01 -0.03 -0.04 0.01 1699
0.01 0.74 0.82 -0.65 9.97 -0.03 -0.04 0.01 1705
0.02 0.79 0.78 -0.63 10.02 -0.02 -0.04 0.01 1712
0.01 0.74 0.78 -0.68 10.04 -0.02 -0.04 0.01 1718
0.01 0.77 0.79 -0.63 10.06 -0.02 -0.03 0.01 1724
0.00 0.77 0.77 -0.64 9.97 -0.02 -0.03 0.02 1730
0.01 0.74 0.75 -0.65 10.00 -0.02 -0.02 0.01 1737
-0.00 0.75 0.82 -0.62 9.98 -0.02 -0.02 0.02 1743
0.02 0.76 0.84 -0.64 9.95 -0.02 -0.02 0.02 1750
0.00 0.76 0.84 -0.68 9.86 -0.01 -0.02 0.01 1756
0.00 0.75 0.86 -0.62 9.91 -0.00 -0.03 0.01 1762
0.01 0.78 0.87 -0.65 9.92 -0.00 -0.04 0.02 1768
0.02 0.76 0.80 -0.64 10.00 0.00 -0.04 0.01 1774
0.01 0.75 0.82 -0.64 9.99 -0.00 -0.05 0.02 1781
0.00 0.73 0.82 -0.65 9.94 -0.00 -0.05 0.02 1787
0.02 0.74 0.83 -0.66 9.97 -0.00 -0.05 0.02 1794
0.00 0.72 0.79 -0.65 9.97 -0.00 -0.05 0.02 1800
0.02 0.72 0.80 -0.66 9.98 -0.00 -0.06 0.02 1806
0.01 0.71 0.82 -0.65 9.96 -0.00 -0.06 0.01 1812
0.02 0.70 0.82 -0.65 10.03 -0.01 -0.06 0.02 1818
0.01 0.69 0.78 -0.66 9.96 -0.01 -0.06 0.02 1825
0.02 0.69 0.79 -0.64 10.02 -0.00 -0.06 0.02 1831
0.03 0.71 0.77 -0.67 9.99 0.00 -0.05 0.02 1838
0.02 0.70 0.81 -0.63 10.02 0.00 -0.05 0.02 1844
0.01 0.69 0.73 -0.66 10.06 0.00 -0.04 0.03 1850
0.03 0.68 0.80 -0.66 10.06 0.00 -0.03 0.03 1856
0.03 0.66 0.80 -0.65 10.03 0.01 -0.03 0.03 1863
0.02 0.62 0.80 -0.63 9.99 0.01 -0.02 0.03 1869
0.03 0.61 0.87 -0.59 10.05 0.02 -0.03 0.03 1875
0.04 0.55 0.82 -0.63 10.06 0.03 -0.02 0.03 1882
0.03 0.48 0.82 -0.65 10.04 0.04 -0.02 0.04 1888
0.04 0.41 0.81 -0.61 10.06 0.05 -0.01 0.04 1894
0.05 0.32 0.86 -0.64 10.09 0.06 -0.01 0.04 1901
0.04 0.25 0.89 -0.61 10.04 0.07 -0.00 0.04 1907
0.04 0.21 0.91 -0.63 9.98 0.08 -0.00 0.03 1913
0.06 0.11 0.94 -0.74 10.01 0.08 0.01 0.04 1920
0.05 0.06 0.92 -0.73 10.02 0.09 0.02 0.04 1926
0.04 0.02 0.92 -0.84 10.03 0.09 0.02 0.04 1932
0.05 0.01 0.89 -0.85 10.07 0.11 0.03 0.03 1939
0.04 0.01 0.81 -0.86 10.02 0.11 0.02 0.03 1945
0.03 -0.00 0.75 -0.44 10.51 0.13 0.02 0.03 1951
0.04 -0.00 0.76 -1.00 10.21 0.16 0.01 0.04 1957
0.04 -0.00 0.74 -0.96 10.29 0.19 0.01 0.04 1964
0.04 -0.00 0.61 -1.05 10.69 0.24 0.03 0.06 1970
0.05 0.00 0.39 -1.23 11.10 0.33 0.13 0.09 1976
0.05 -0.01 -0.01 -1.46 12.52 0.47 0.41 0.15 1983
0.04 -0.00 -0.16 -1.82 14.12 0.74 0.93 0.26 1989
0.04 -0.00 -0.39 -1.99 14.50 1.07 1.42 0.37 1995
0.03 -0.00 -0.82 -2.08 14.33 1.34 1.83 0.52 2001
0.05 -0.00 -0.42 -2.15 13.79 1.49 2.06 0.62 2008
0.04 -0.00 -0.00 -2.35 13.47 1.53 2.21 0.75 2014
0.05 0.00 -0.16 -2.50 13.08 1.53 2.35 0.87 2021
0.05 -0.00 -0.10 -2.08 13.20 1.55 2.44 0.97 2027
0.04 -0.00 0.21 -2.14 13.64 1.52 2.53 1.03 2033
0.04 -0.00 0.44 -1.34 12.97 1.49 2.62 1.05 2039
0.05 -0.01 0.70 -1.43 12.32 1.42 2.69 1.01 2045
0.05 -0.00 1.76 -1.04 12.34 1.37 2.77 0.97 2052
0.03 -0.00 1.49 -0.97 11.79 1.34 2.80 0.92 2058
0.04 -0.00 1.34 -1.12 11.16 1.35 2.81 0.86 2065
0.04 -0.00 0.99 -1.33 11.26 1.37 2.76 0.80 2071
0.04 -0.00 0.10 -1.39 11.23 1.40 2.67 0.73 2077
0.05 -0.00 -0.10 -1.08 10.74 1.42 2.53 0.63 2083
0.04 -0.00 -1.63 -1.02 9.81 1.39 2.22 0.50 2089
0.04 -0.00 -2.76 -0.11 9.36 1.31 1.75 0.32 2096
0.02 -0.00 -3.34 -0.46 8.37 1.18 1.26 0.07 2102
0.03 0.00 -9.22 -0.32 10.42 1.07 0.62 -0.38 2108
0.04 -0.00 -14.07 0.57 11.60 0.79 -0.44 -1.06 2115
0.03 -0.00 -13.35 1.39 12.47 0.45 -1.46 -1.93 2121
0.03 0.00 -5.26 -0.14 12.95 0.14 -2.00 -2.58 2127
0.03 -0.00 -3.68 0.29 13.50 -0.11 -2.14 -3.03 2134
0.02 -0.00 -1.63 0.82 13.42 -0.30 -1.92 -3.51 2140
0.03 0.01 0.53 0.97 11.94 -0.47 -1.80 -3.85 2147
0.03 -0.00 1.77 1.11 11.17 -0.61 -1.71 -3.98 2153
0.03 -0.00 2.18 0.96 10.85 -0.68 -1.59 -3.90 2159
0.03 -0.00 2.28 0.64 10.30 -0.75 -1.49 -3.67 2165
0.04 -0.00 2.27 0.54 9.83 -0.79 -1.53 -3.32 2171
0.04 -0.00 2.38 0.48 9.09 -0.79 -1.64 -2.92 2178
0.03 -0.00 2.77 0.40 8.37 -0.74 -1.91 -2.54 2184
0.04 -0.00 3.39 0.26 7.78 -0.66 -2.21 -2.10 2191
0.04 -0.00 4.15 -0.02 7.24 -0.54 -2.44 -1.70 2197
0.04 -0.00 4.75 -0.38 6.53 -0.36 -2.57 -1.36 2203
0.03 -0.00 5.32 -0.39 6.22 -0.20 -2.58 -1.09 2209
0.04 -0.00 5.51 -0.20 8.51 -0.01 -2.51 -0.88 2215
0.03 -0.00 6.79 0.20 8.12 0.14 -2.28 -0.73 2222
0.03 -0.00 7.25 0.72 8.96 0.20 -1.95 -0.58 2228
0.03 -0.00 7.77 1.21 10.02 0.17 -1.53 -0.43 2234
0.04 -0.00 7.91 1.43 10.71 0.05 -1.07 -0.27 2241
0.03 -0.00 7.31 1.31 10.89 -0.13 -0.64 -0.09 2247
0.02 -0.00 6.16 0.85 10.76 -0.29 -0.30 0.10 2253
0.03 0.00 4.45 0.20 10.23 -0.44 -0.10 0.29 2259
0.04 -0.00 3.70 -0.48 9.73 -0.52 -0.12 0.45 2266
0.03 -0.00 2.62 -0.86 9.17 -0.53 -0.22 0.55 2272
0.03 -0.00 2.05 -1.13 8.91 -0.50 -0.34 0.64 2278
0.05 -0.00 1.90 -1.25 8.92 -0.47 -0.44 0.67 2284
0.03 -0.00 1.94 -1.32 9.12 -0.45 -0.48 0.66 2291
0.03 -0.00 1.98 -1.28 9.42 -0.46 -0.47 0.60 2297
0.03 -0.00 2.03 -1.20 9.69 -0.48 -0.44 0.53 2304
0.04 -0.00 2.00 -1.14 9.77 -0.53 -0.41 0.46 2310
0.04 -0.00 1.95 -1.02 9.62 -0.59 -0.39 0.36 2316
0.04 -0.00 1.96 -0.98 9.43 -0.65 -0.41 0.29 2322
0.02 -0.00 2.17 -0.89 9.33 -0.70 -0.45 0.23 2328
0.03 -0.00 2.70 -0.60 9.25 -0.73 -0.48 0.19 2334
0.04 -0.00 3.14 -0.17 9.27 -0.77 -0.50 0.19 2340
0.03 -0.00 3.68 -0.01 9.14 -0.82 -0.45 0.22 2347
0.03 -0.00 3.82 0.01 8.88 -0.90 -0.38 0.29 2353
0.04 0.00 3.81 -0.19 8.85 -0.96 -0.33 0.38 2360
0.04 -0.00 3.86 -0.62 8.90 -1.00 -0.31 0.49 2366
0.04 -0.00 3.95 -1.03 8.98 -1.01 -0.32 0.60 2372
0.03 -0.00 4.11 -1.42 8.74 -1.01 -0.32 0.71 2378
0.04 -0.00 4.39 -1.58 8.51 -0.99 -0.30 0.82 2384
0.04 -0.00 4.69 -1.75 8.57 -0.97 -0.24 0.90 2391
0.04 -0.00 4.81 -1.92 8.82 -0.93 -0.15 0.99 2397
0.03 -0.00 4.80 -2.05 9.07 -0.89 -0.03 1.07 2403
0.04 -0.00 4.69 -2.13 9.35 -0.86 0.08 1.14 2409
0.04 -0.00 4.42 -2.30 9.47 -0.84 0.15 1.20 2416
0.04 -0.00 4.24 -2.52 9.63 -0.83 0.20 1.25 2422
0.03 -0.00 4.08 -2.90 9.67 -0.83 0.22 1.26 2428
0.04 -0.00 3.80 -3.30 9.71 -0.81 0.25 1.25 2435
0.03 -0.00 3.56 -3.56 9.68 -0.79 0.28 1.20 2441
0.03 -0.00 3.40 -3.60 9.78 -0.78 0.35 1.12 2447
0.02 -0.00 3.21 -3.53 9.81 -0.76 0.43 1.02 2453
0.04 -0.00 3.07 -3.45 10.01 -0.76 0.50 0.89 2459
0.03 -0.00 2.82 -3.28 10.20 -0.78 0.60 0.73 2465
0.04 -0.00 2.32 -3.19 10.17 -0.80 0.67 0.58 2472
0.03 -0.00 1.84 -3.13 10.05 -0.83 0.72 0.38 2479
0.04 -0.00 1.56 -3.02 9.82 -0.87 0.73 0.17 2485
0.04 -0.00 1.45 -2.84 9.57 -0.91 0.70 -0.04 2491
0.03 -0.00 1.49 -2.65 9.35 -0.94 0.67 -0.23 2497
0.03 0.00 1.64 -2.56 9.09 -0.97 0.65 -0.38 2503
0.04 -0.00 1.79 -2.46 8.51 -1.00 0.61 -0.49 2509
0.03 -0.00 1.90 -2.53 7.00 -1.00 0.57 -0.55 2515
0.02 -0.00 -2.97 -42.15 18.63 -0.36 -0.83 -0.78 2523
0.03 -0.00 -2.02 -9.53 9.42 1.01 -0.87 -1.09 2529
0.03 0.01 -3.12 -35.73 -2.21 0.99 -0.80 -1.14 2535
0.02 0.06 -7.34 -56.45 20.78 -0.15 -2.08 -1.17 2541
0.03 0.12 0.63 -6.41 15.33 -0.04 -0.30 0.06 2547
0.03 0.14 1.17 -4.20 9.20 -0.01 -0.08 0.03 2554
0.03 0.08 0.37 0.01 10.60 0.04 0.02 0.15 2561
0.04 0.09 -0.76 1.33 10.62 0.03 0.07 0.10 2567
0.04 0.10 -0.09 -0.27 9.96 -0.03 0.13 0.03 2573
0.04 0.09 0.56 -0.41 9.92 -0.07 0.12 0.06 2579
0.04 0.14 0.91 -0.72 10.11 -0.04 0.12 0.08 2585
0.05 0.12 0.72 -0.83 9.81 -0.02 0.11 0.11 2592
0.04 0.14 0.58 -0.95 10.08 -0.02 0.09 0.10 2598
0.04 0.19 0.44 -0.80 9.89 -0.02 0.10 0.11 2605
0.07 0.19 0.57 -0.89 10.13 -0.02 0.12 0.11 2611
0.05 0.23 0.60 -0.98 10.21 -0.02 0.12 0.11 2617
0.06 0.20 0.59 -0.86 10.06 -0.01 0.13 0.11 2623
0.07 0.22 0.65 -0.77 10.15 -0.01 0.13 0.11 2630
0.07 0.20 0.74 -0.73 10.09 -0.01 0.12 0.10 2636
0.07 0.24 0.81 -0.72 10.13 -0.00 0.11 0.09 2642
0.07 0.24 0.81 -0.74 10.28 -0.01 0.11 0.07 2649
0.06 0.23 0.71 -0.74 10.17 0.00 0.09 0.07 2655
0.05 0.24 0.67 -0.77 9.92 0.01 0.08 0.07 2661
0.07 0.22 0.74 -0.74 10.09 0.01 0.07 0.07 2668
0.07 0.20 0.70 -0.77 10.01 0.01 0.06 0.07 2674
0.08 0.17 0.76 -0.78 10.00 0.02 0.05 0.07 2680
0.06 0.19 0.75 -0.84 9.92 0.01 0.04 0.06 2686
0.04 0.13 0.72 -0.82 10.03 0.01 0.03 0.06 2693
0.05 0.11 0.72 -0.80 10.01 0.01 0.02 0.06 2699
0.08 0.10 0.75 -0.78 10.03 0.02 0.02 0.06 2706
0.09 0.09 0.74 -0.76 9.98 0.02 0.01 0.06 2712
0.07 0.06 0.72 -0.82 9.98 0.02 0.01 0.06 2718
0.09 0.06 0.70 -0.82 10.03 0.02 0.01 0.06 2724
0.11 0.05 0.71 -0.83 9.95 0.02 0.01 0.05 2731
0.10 0.03 0.71 -0.83 9.98 0.02 0.01 0.05 2737
0.07 0.03 0.76 -0.83 10.01 0.01 0.01 0.06 2743
0.09 0.03 0.70 -0.85 10.04 0.01 0.01 0.06 2750
0.09 0.02 0.72 -0.84 10.00 0.01 0.02 0.06 2756
0.09 0.01 0.74 -0.83 9.98 0.01 0.02 0.05 2762
0.09 0.02 0.75 -0.83 9.96 0.01 0.01 0.06 2768
0.11 0.04 0.73 -0.85 10.03 0.01 0.02 0.05 2775
0.12 -0.01 0.77 -0.84 10.01 0.02 0.02 0.05 2781
0.11 -0.00 0.80 -0.86 10.00 0.02 0.03 0.06 2787
0.13 -0.00 0.74 -0.81 9.98 0.02 0.03 0.05 2794
0.12 -0.00 0.73 -0.82 10.03 0.02 0.03 0.05 2800
0.11 -0.00 0.76 -0.84 9.96 0.02 0.04 0.05 2806
0.11 -0.00 0.81 -0.86 9.97 0.02 0.04 0.05 2812
0.11 -0.01 0.80 -0.87 9.97 0.02 0.04 0.05 2819
0.11 -0.01 0.81 -0.87 9.95 0.02 0.04 0.05 2825
0.10 -0.01 0.85 -0.84 9.94 0.01 0.04 0.05 2831
0.10 -0.01 0.83 -0.85 9.96 0.02 0.03 0.05 2837
0.12 -0.01 0.84 -0.86 9.95 0.01 0.07 0.05 2843
0.10 -0.01 0.86 -0.86 10.00 0.01 0.03 0.04 2849
0.10 -0.01 0.81 -0.87 9.98 0.01 0.03 0.04 2856
0.09 -0.01 0.87 -0.88 9.92 0.00 0.02 0.04 2863
0.11 -0.00 0.85 -0.87 9.99 -0.00 0.01 0.04 2869
0.10 -0.01 0.83 -0.88 9.96 -0.00 0.01 0.04 2875
0.09 -0.01 0.88 -0.88 9.98 -0.01 0.01 0.03 2881
0.08 -0.01 0.86 -0.89 9.98 -0.01 -0.00 0.03 2887
0.08 -0.01 0.89 -0.86 9.96 -0.02 -0.01 0.03 2893
0.09 -0.01 0.89 -0.88 9.92 -0.03 -0.01 0.02 2899
0.08 -0.01 0.90 -0.87 9.96 -0.03 -0.01 0.02 2906
0.08 -0.01 0.87 -0.87 9.99 -0.03 -0.01 0.02 2912
0.07 -0.01 0.89 -0.86 9.94 -0.03 -0.00 0.02 2918
0.07 -0.00 0.88 -0.84 9.97 -0.03 -0.00 0.02 2924
0.07 -0.01 0.85 -0.86 9.95 -0.03 -0.00 0.02 2930
0.07 -0.01 0.85 -0.88 9.96 -0.03 -0.00 0.02 2937
0.06 -0.01 0.86 -0.87 9.97 -0.03 0.00 0.01 2944
0.06 -0.01 0.85 -0.84 9.95 -0.02 0.00 0.01 2950
0.08 -0.01 0.87 -0.86 10.01 -0.02 -0.00 0.01 2956
0.07 -0.01 0.89 -0.88 9.99 -0.03 -0.01 0.01 2962
0.07 -0.01 0.89 -0.86 10.03 -0.03 -0.01 0.01 2968
0.07 -0.01 0.90 -0.86 9.99 -0.02 -0.02 0.00 2974
0.06 -0.01 0.90 -0.90 9.98 -0.02 -0.02 0.00 2980
0.06 -0.01 0.88 -0.88 9.96 -0.03 -0.03 0.00 2987
0.05 -0.01 0.90 -0.88 9.95 -0.03 -0.03 0.00 2993
0.05 -0.00 0.95 -0.88 9.92 -0.04 -0.04 -0.01 2999
0.06 -0.01 0.91 -0.86 9.92 -0.05 -0.05 -0.01 3005
0.07 -0.00 0.90 -0.91 9.91 -0.05 -0.06 -0.02 3012
0.06 0.01 0.98 -0.86 9.87 -0.06 -0.06 -0.03 3018
0.05 0.01 0.98 -0.85 9.93 -0.07 -0.06 -0.03 3024
0.06 0.03 0.91 -0.88 9.93 -0.07 -0.06 -0.03 3031
0.06 0.03 0.93 -0.87 10.02 -0.07 -0.06 -0.03 3037
0.06 0.04 0.92 -0.79 10.02 -0.06 -0.06 -0.03 3043
0.07 0.06 0.84 -0.86 10.04 -0.05 -0.06 -0.03 3050
0.07 0.05 0.86 -0.86 10.07 -0.04 -0.07 -0.02 3056
0.07 0.04 0.86 -0.86 10.06 -0.04 -0.06 -0.02 3062
0.06 0.07 0.88 -0.84 9.99 -0.03 -0.06 -0.02 3068
0.07 0.06 0.82 -0.81 10.04 -0.03 -0.06 -0.02 3075
0.06 0.04 0.89 -0.85 10.01 -0.02 -0.06 -0.02 3081
0.07 0.05 0.83 -0.81 10.04 -0.02 -0.05 -0.02 3088
0.07 0.04 0.86 -0.84 10.04 -0.01 -0.05 -0.02 3094
0.07 0.02 0.85 -0.83 9.98 -0.00 -0.05 -0.01 3100
0.08 0.03 0.85 -0.83 10.02 -0.00 -0.04 -0.01 3106
0.09 0.02 0.89 -0.82 10.01 -0.00 -0.03 -0.01 3112
0.09 0.02 0.91 -0.83 10.03 -0.00 -0.04 -0.02 3119
0.10 0.00 0.85 -0.91 10.00 -0.00 -0.04 -0.02 3126
0.09 0.01 0.91 -0.88 9.99 -0.00 -0.03 -0.02 3132
0.09 0.00 0.88 -0.88 9.93 -0.01 -0.03 -0.02 3138
0.09 -0.01 0.86 -0.87 10.03 -0.00 -0.03 -0.02 3144
0.09 -0.00 0.86 -0.91 9.98 -0.01 -0.02 -0.01 3150
0.10 0.00 0.90 -0.84 9.99 -0.01 -0.03 -0.01 3156
0.10 0.01 0.90 -0.87 10.02 -0.01 -0.03 -0.01 3163
0.09 0.01 0.88 -0.83 10.03 -0.01 -0.03 -0.02 3170
0.09 0.01 0.87 -0.87 9.99 -0.01 -0.02 -0.01 3176
0.07 -0.00 0.84 -0.83 10.07 -0.01 -0.02 -0.01 3182
0.06 0.01 0.89 -0.86 10.02 -0.01 -0.02 0.00 3188
0.06 0.01 0.96 -0.85 10.02 -0.01 -0.01 0.01 3194
0.07 -0.01 0.88 -0.87 10.07 -0.00 -0.01 0.01 3201
0.07 -0.01 0.83 -0.92 10.04 -0.00 -0.00 0.02 3207
0.06 -0.01 0.87 -0.89 10.10 -0.01 0.01 0.02 3214
0.08 -0.01 0.82 -0.81 10.11 -0.01 0.02 0.03 3220
0.05 -0.01 0.93 -0.86 10.00 -0.00 0.03 0.03 3226
0.05 -0.00 0.90 -1.11 9.85 0.00 0.04 0.03 3232
0.05 -0.01 0.86 -0.93 10.09 0.00 0.05 0.04 3238
0.07 -0.01 1.04 -0.89 10.05 0.01 0.05 0.04 3245
0.05 -0.01 1.02 -0.90 10.21 0.03 0.06 0.04 3251
0.05 -0.00 0.99 -0.93 10.20 0.06 0.05 0.04 3257
0.04 -0.00 1.05 -0.89 10.28 0.09 0.05 0.03 3263
0.06 -0.01 1.11 -0.93 10.25 0.14 0.04 0.03 3270
0.05 -0.00 1.25 -0.73 10.17 0.18 0.03 0.02 3276
0.04 -0.00 1.12 -0.99 10.61 0.28 0.08 0.01 3282
0.05 0.00 0.93 -0.99 11.33 0.43 0.20 0.01 3289
0.05 -0.01 0.98 -1.07 12.19 0.67 0.51 -0.00 3295
0.05 -0.01 1.17 -1.14 13.38 1.01 0.94 -0.03 3301
0.04 -0.00 1.12 -1.11 14.14 1.35 1.41 -0.05 3307
0.05 -0.01 1.14 -1.43 13.89 1.51 1.77 -0.06 3314
0.03 -0.00 0.88 -1.54 13.48 1.52 2.05 -0.04 3320
0.05 -0.00 1.00 -1.81 13.86 1.52 2.33 0.01 3326
0.05 -0.00 0.91 -1.80 13.51 1.50 2.55 0.05 3333
0.04 -0.00 0.99 -1.95 13.84 1.48 2.72 0.09 3339
0.03 -0.00 1.14 -2.34 13.56 1.47 2.91 0.17 3345
0.04 -0.00 0.89 -2.56 12.99 1.44 3.02 0.24 3352
0.04 -0.00 0.81 -2.93 13.21 1.44 3.03 0.32 3358
0.04 -0.00 0.66 -3.02 13.78 1.46 3.02 0.41 3364
0.05 -0.00 0.78 -2.77 13.33 1.49 2.96 0.48 3371
0.05 -0.01 1.38 -2.42 12.75 1.50 2.92 0.52 3377
0.04 -0.00 1.70 -2.25 12.01 1.51 2.87 0.53 3383
0.04 -0.00 2.02 -2.34 11.29 1.53 2.82 0.52 3389
0.06 -0.01 1.74 -2.59 11.35 1.58 2.79 0.50 3396
0.05 -0.00 1.24 -2.50 10.98 1.62 2.71 0.50 3402
0.04 -0.00 0.68 -2.49 10.24 1.68 2.62 0.50 3408
0.05 0.00 0.57 -2.92 10.01 1.70 2.36 0.44 3415
0.05 -0.00 -2.43 -3.32 9.97 1.69 1.95 0.32 3421
0.04 -0.00 -2.56 -2.78 9.48 1.67 1.48 0.08 3427
0.05 -0.00 -1.28 -3.35 8.78 1.62 1.00 -0.11 3433
0.05 -0.01 -9.06 -1.70 12.37 1.50 0.36 -0.62 3440
0.04 -0.00 -13.57 -0.70 12.55 1.21 -0.51 -1.32 3446
0.03 -0.00 -7.52 -0.34 12.95 0.78 -1.33 -2.01 3452
0.05 -0.01 -4.16 -0.82 13.84 0.45 -1.67 -2.41 3459
0.04 -0.00 -3.08 -0.63 14.03 0.18 -1.76 -2.77 3465
0.03 -0.00 -1.27 -1.01 12.62 -0.01 -1.76 -3.03 3471
0.04 -0.00 -0.41 -1.45 11.04 -0.08 -1.89 -3.21 3478
0.04 -0.00 -0.16 -1.71 10.30 -0.03 -2.05 -3.23 3484
0.04 -0.00 0.09 -1.95 9.96 0.09 -2.17 -3.14 3490
0.04 -0.00 0.62 -1.83 9.84 0.22 -2.25 -2.96 3496
0.05 -0.00 1.22 -1.12 10.19 0.31 -2.33 -2.74 3503
0.04 -0.00 1.84 -0.38 10.73 0.38 -2.43 -2.48 3509
0.02 -0.00 2.76 0.22 11.14 0.40 -2.46 -2.20 3515
0.04 -0.00 3.33 0.68 11.03 0.38 -2.49 -1.93 3522
0.04 -0.00 3.40 1.12 10.69 0.32 -2.52 -1.70 3528
0.03 -0.00 3.29 1.44 10.21 0.26 -2.58 -1.46 3534
0.03 -0.00 3.22 1.64 9.73 0.21 -2.64 -1.28 3540
0.03 -0.00 3.54 1.84 9.56 0.17 -2.66 -1.12 3547
0.03 -0.00 3.65 2.11 9.53 0.12 -2.64 -0.99 3553
0.02 -0.00 3.86 2.28 9.29 0.04 -2.55 -0.89 3559
0.04 0.00 4.05 2.41 9.52 -0.04 -2.47 -0.80 3566
0.03 -0.00 3.96 2.42 9.73 -0.16 -2.33 -0.74 3572
0.02 -0.00 3.50 2.44 9.81 -0.28 -2.21 -0.68 3578
0.02 -0.00 3.25 2.38 10.02 -0.40 -2.10 -0.63 3585
0.04 -0.00 2.93 2.22 9.94 -0.55 -2.02 -0.58 3591
0.02 -0.00 2.38 2.06 9.81 -0.67 -2.00 -0.56 3597
0.02 -0.00 2.24 1.86 9.93 -0.80 -1.99 -0.54 3603
0.03 -0.00 2.41 1.66 9.96 -0.93 -1.98 -0.53 3609
0.04 -0.00 2.63 1.39 9.95 -1.07 -1.95 -0.51 3615
0.03 -0.00 2.99 1.08 9.73 -1.18 -1.90 -0.50 3622
0.03 -0.00 3.32 0.72 9.46 -1.28 -1.83 -0.49 3629
0.03 -0.00 3.82 0.34 9.37 -1.34 -1.72 -0.47 3635
0.03 -0.00 4.38 -0.04 9.19 -1.39 -1.59 -0.44 3641
0.03 -0.00 4.67 -0.38 8.99 -1.43 -1.46 -0.39 3647
0.03 -0.00 4.92 -0.74 8.80 -1.45 -1.29 -0.30 3653
0.03 -0.00 5.17 -1.13 8.70 -1.45 -1.13 -0.25 3659
0.04 -0.00 5.44 -1.52 8.84 -1.43 -0.97 -0.15 3665
0.02 -0.00 5.85 -1.87 9.11 -1.41 -0.82 -0.03 3672
0.02 -0.00 6.16 -2.17 9.29 -1.40 -0.67 0.11 3679
0.02 -0.00 6.26 -2.48 9.20 -1.39 -0.52 0.25 3685
0.03 -0.00 6.39 -2.85 9.11 -1.39 -0.44 0.40 3691
0.03 -0.00 6.64 -3.10 9.06 -1.38 -0.33 0.53 3697
0.02 -0.00 6.97 -3.42 8.90 -1.36 -0.21 0.68 3703
0.02 0.00 7.23 -3.84 8.75 -1.33 -0.05 0.84 3709
0.03 -0.00 7.30 -4.18 8.48 -1.27 0.13 0.99 3716
0.03 -0.00 7.10 -4.48 8.36 -1.21 0.33 1.14 3722
0.02 -0.00 6.23 -4.71 8.63 -1.12 0.51 1.27 3728
0.02 -0.00 6.07 -4.85 8.73 -1.04 0.61 1.40 3735
0.03 -0.00 4.90 -4.85 8.76 -0.95 0.68 1.45 3741
0.03 -0.00 4.05 -4.64 8.98 -0.88 0.67 1.50 3747
0.02 -0.00 3.40 -4.47 9.17 -0.83 0.62 1.52 3753
0.03 -0.00 2.95 -4.25 9.25 -0.77 0.57 1.50 3760
0.03 -0.00 2.67 -4.04 9.30 -0.79 0.54 1.44 3766
0.02 -0.00 2.41 -3.85 9.37 -0.79 0.56 1.37 3772
0.01 -0.00 2.11 -3.75 9.30 -0.78 0.58 1.29 3778
0.03 -0.00 1.84 -3.53 9.28 -0.78 0.63 1.21 3784
0.04 -0.00 1.36 -3.48 9.26 -0.78 0.72 1.15 3790
0.02 -0.00 0.63 -3.45 9.11 -0.77 0.85 1.12 3798
0.02 -0.00 0.12 -3.29 9.56 -0.75 0.95 1.09 3804
0.02 -0.00 -0.08 -3.17 10.14 -0.72 0.99 1.06 3810
0.03 -0.00 -0.23 -3.23 10.69 -0.70 0.98 1.01 3816
0.03 -0.00 -0.21 -3.50 11.60 -0.70 0.91 1.02 3822
0.03 -0.00 0.06 -3.94 11.53 -0.72 0.78 1.00 3828
0.03 -0.00 0.47 -4.29 11.86 -0.75 0.63 0.97 3834
0.02 -0.00 0.73 -4.68 11.65 -0.80 0.46 0.92 3842
0.01 -0.00 0.97 -4.83 11.13 -0.87 0.32 0.83 3848
0.02 -0.00 1.31 -4.75 10.58 -0.87 0.22 0.69 3854
0.03 -0.00 1.64 -4.67 10.39 -0.89 0.22 0.52 3860
0.02 -0.00 2.05 -4.53 10.19 -0.91 0.29 0.31 3866
0.03 -0.00 2.00 -4.44 9.91 -0.95 0.44 0.09 3872
0.03 0.01 1.46 -4.34 9.83 -1.00 0.60 -0.09 3878
0.03 -0.00 0.73 -4.37 9.89 -1.06 0.71 -0.30 3885
0.02 -0.00 0.13 -4.53 10.03 -1.10 0.72 -0.48 3892
0.02 -0.00 -0.27 -4.58 9.71 -1.13 0.66 -0.60 3898
0.03 -0.00 -0.27 -4.55 8.93 -1.16 0.56 -0.69 3904
0.02 -0.00 -0.02 -5.39 8.21 -1.15 0.46 -0.73 3910
0.01 -0.00 -12.84 -56.86 39.07 -0.29 2.38 -0.35 3916
0.04 -0.00 2.69 -29.69 3.83 0.25 0.99 -0.26 3922
0.03 0.00 -2.44 -45.51 1.20 -0.21 -0.56 -0.84 3930
0.03 0.06 -10.67 -26.74 17.44 -0.19 0.39 -0.21 3936
0.06 0.03 2.32 -11.44 9.14 -0.11 0.19 0.12 3942
0.04 0.03 0.04 -0.09 10.37 -0.07 0.16 0.04 3948
0.04 0.03 0.14 0.90 10.46 -0.05 0.14 0.10 3955
0.05 0.03 0.90 0.45 10.23 -0.11 0.11 0.07 3961
0.05 0.05 1.18 -0.03 10.18 -0.12 0.12 0.06 3968
0.05 0.08 0.58 -0.24 10.49 -0.09 0.11 0.08 3974
0.04 0.11 0.74 -0.87 10.73 -0.08 0.07 0.08 3980
0.05 0.13 0.98 -1.20 10.15 -0.06 0.04 0.08 3986
0.05 0.16 0.71 -0.57 9.91 -0.05 0.04 0.08 3993
0.05 0.19 0.70 -0.82 10.04 -0.05 0.05 0.07 3999
0.06 0.19 0.91 -1.15 10.00 -0.06 0.05 0.07 4005
0.07 0.19 0.88 -0.89 10.16 -0.06 0.04 0.07 4012
0.08 0.20 0.84 -0.80 10.17 -0.06 0.04 0.07 4018
0.08 0.20 0.96 -0.83 10.17 -0.06 0.03 0.06 4024
0.09 0.24 0.93 -0.85 10.18 -0.05 0.03 0.05 4031
0.09 0.25 0.88 -0.81 10.11 -0.03 0.03 0.04 4037
0.08 0.24 0.84 -0.80 10.13 -0.02 0.03 0.04 4043
0.09 0.26 0.85 -0.81 10.11 -0.01 0.03 0.05 4049
0.09 0.24 0.90 -0.78 10.01 -0.00 0.03 0.04 4056
0.11 0.23 0.91 -0.83 9.96 0.01 0.02 0.04 4063
0.11 0.25 0.89 -0.83 10.08 0.01 0.02 0.04 4069
0.12 0.19 0.88 -0.86 9.95 0.01 0.02 0.04 4075
0.10 0.19 0.92 -0.84 9.97 0.02 0.02 0.04 4081
0.10 0.15 0.84 -0.88 10.00 0.02 0.02 0.03 4087
0.12 0.13 0.87 -0.83 10.01 0.02 0.02 0.04 4093
0.14 0.10 0.86 -0.86 9.97 0.02 0.01 0.04 4100
0.14 0.09 0.86 -0.84 10.00 0.02 0.01 0.04 4107
0.13 0.09 0.90 -0.86 9.99 0.02 0.01 0.04 4113
0.14 0.08 0.89 -0.89 9.94 0.02 0.00 0.04 4119
0.15 0.08 0.84 -0.88 9.96 0.01 0.00 0.04 4125
0.12 0.08 0.86 -0.87 9.91 0.00 -0.00 0.04 4131
0.13 0.09 0.87 -0.90 9.96 -0.00 -0.01 0.04 4137
0.12 0.08 0.86 -0.88 9.92 -0.01 -0.00 0.03 4144
0.12 0.08 0.85 -0.86 9.98 -0.01 -0.00 0.04 4150
0.11 0.08 0.87 -0.83 10.01 -0.01 0.00 0.03 4157
0.13 0.09 0.87 -0.86 9.98 0.00 0.01 0.03 4163
0.12 0.08 0.86 -0.83 9.93 -0.00 0.01 0.03 4169
0.11 0.07 0.87 -0.83 9.95 0.00 0.02 0.03 4175
0.11 0.08 0.89 -0.86 9.95 0.00 0.02 0.04 4182
0.12 0.06 0.88 -0.88 9.99 0.00 0.02 0.04 4188
0.12 0.06 0.87 -0.88 9.97 0.00 0.03 0.04 4194
0.11 0.06 0.90 -0.88 10.00 0.00 0.04 0.04 4200
0.12 0.07 0.93 -0.86 9.97 0.00 0.04 0.04 4207
0.13 0.05 0.91 -0.86 9.97 0.00 0.04 0.04 4213
0.12 0.04 0.91 -0.84 9.97 0.00 0.05 0.04 4219
0.11 0.04 0.93 -0.85 9.96 0.01 0.05 0.04 4226
0.12 0.06 0.96 -0.89 9.95 0.00 0.05 0.04 4232
0.12 0.05 0.93 -0.86 9.93 0.00 0.05 0.04 4238
0.10 0.03 0.94 -0.86 9.96 -0.00 0.05 0.04 4244
0.09 0.04 0.97 -0.86 9.92 0.00 0.05 0.04 4250
0.10 0.04 0.97 -0.87 9.95 0.00 0.05 0.04 4257
0.09 0.04 0.97 -0.90 9.99 0.00 0.05 0.04 4263
0.09 0.02 0.97 -0.87 9.92 0.00 0.05 0.04 4270
0.09 0.03 0.99 -0.86 9.93 -0.00 0.05 0.04 4276
0.10 0.01 0.95 -0.86 9.98 0.00 0.05 0.04 4282
0.08 0.01 0.98 -0.84 9.97 -0.00 0.05 0.04 4288
0.08 -0.00 1.01 -0.88 9.94 -0.00 0.05 0.04 4294
0.09 0.02 0.99 -0.90 9.94 -0.00 0.05 0.04 4300
0.09 0.01 0.99 -0.86 9.99 -0.01 0.05 0.04 4306
0.09 -0.00 1.03 -0.87 9.91 -0.01 0.05 0.04 4314
0.08 0.00 1.02 -0.86 9.96 -0.00 0.05 0.04 4320
0.08 0.02 1.05 -0.91 9.95 -0.01 0.05 0.04 4326
0.08 -0.01 1.06 -0.87 9.98 -0.01 0.05 0.04 4332
0.07 0.01 1.04 -0.88 9.92 -0.01 0.05 0.04 4338
0.06 -0.01 1.04 -0.89 9.99 -0.01 0.05 0.04 4344
0.06 0.01 1.05 -0.88 9.97 -0.01 0.05 0.04 4350
0.08 -0.00 1.06 -0.87 9.97 -0.02 0.05 0.04 4357
0.06 0.00 1.05 -0.86 9.94 -0.02 0.05 0.03 4363
0.05 -0.00 1.07 -0.88 9.93 -0.02 0.05 0.03 4369
0.05 0.02 1.09 -0.91 9.91 -0.02 0.05 0.03 4376
0.06 -0.00 1.12 -0.91 9.95 -0.02 0.05 0.02 4382
0.06 0.00 1.10 -0.89 9.95 -0.02 0.05 0.03 4388
0.05 0.00 1.14 -0.85 9.93 -0.01 0.04 0.03 4395
0.05 0.01 1.12 -0.86 9.99 -0.02 0.04 0.02 4401
0.05 0.00 1.13 -0.86 9.97 -0.02 0.04 0.02 4407
0.06 -0.00 1.16 -0.86 9.95 -0.02 0.04 0.01 4413
0.04 0.01 1.16 -0.88 9.99 -0.02 0.02 0.01 4419
0.06 0.01 1.14 -0.86 9.92 -0.02 0.02 0.01 4426
0.07 0.00 1.16 -0.85 9.92 -0.02 0.01 0.00 4432
0.05 -0.00 1.17 -0.89 9.92 -0.02 0.01 0.00 4439
0.05 -0.00 1.13 -0.88 9.91 -0.02 0.00 -0.00 4445
0.05 0.00 1.15 -0.86 9.97 -0.02 0.00 -0.01 4451
0.05 -0.00 1.14 -0.86 9.91 -0.02 -0.01 -0.01 4457
0.05 -0.01 1.14 -0.88 9.94 -0.03 -0.01 -0.01 4463
0.03 -0.00 1.19 -0.87 9.94 -0.03 -0.01 -0.01 4469
0.05 -0.00 1.19 -0.86 9.94 -0.03 -0.01 -0.01 4475
0.06 -0.00 1.23 -0.89 9.93 -0.03 -0.02 -0.01 4482
0.05 -0.01 1.24 -0.86 9.95 -0.03 -0.03 -0.02 4488
0.04 -0.00 1.22 -0.92 9.95 -0.03 -0.03 -0.02 4495
0.05 0.01 1.19 -0.92 9.97 -0.03 -0.03 -0.02 4501
0.05 -0.00 1.20 -0.89 9.95 -0.03 -0.03 -0.02 4507
0.04 -0.00 1.20 -0.90 9.98 -0.03 -0.03 -0.03 4513
0.04 0.01 1.15 -0.91 9.98 -0.03 -0.03 -0.03 4519
0.05 0.03 1.12 -0.88 10.00 -0.02 -0.03 -0.02 4526
0.04 0.01 1.16 -0.90 10.01 -0.02 -0.02 -0.02 4532
0.04 0.00 1.19 -0.92 10.00 -0.02 -0.01 -0.02 4539
0.04 0.04 1.20 -0.91 10.00 -0.01 -0.00 -0.02 4545
0.06 0.02 1.82 -0.90 10.01 -0.01 -0.00 -0.02 4551
0.05 -0.00 1.15 -0.89 9.97 -0.01 -0.01 -0.02 4557
0.04 0.01 1.39 -0.86 10.36 -0.01 -0.01 -0.02 4563
0.06 0.00 1.19 -0.86 9.97 -0.01 -0.01 -0.02 4570
0.05 0.00 1.28 -0.89 9.95 -0.00 -0.01 -0.02 4576
0.04 0.01 1.20 -0.94 9.97 -0.00 -0.01 -0.02 4583
0.05 0.01 1.20 -0.90 9.96 -0.00 -0.01 -0.02 4589
0.05 -0.01 1.30 -0.89 9.91 -0.01 -0.00 -0.02 4595
0.04 -0.00 1.27 -0.93 9.97 -0.01 -0.00 -0.02 4601
0.03 -0.00 1.26 -0.96 10.00 -0.01 0.00 -0.02 4608
0.05 0.00 1.26 -0.90 10.02 -0.01 0.01 -0.02 4614
0.05 -0.00 1.18 -0.87 10.02 -0.00 0.01 -0.02 4620
0.04 -0.00 1.35 -0.92 10.02 -0.01 0.01 -0.02 4626
0.03 -0.00 1.26 -0.97 10.03 -0.01 0.01 -0.03 4632
0.06 -0.01 1.30 -1.01 10.10 -0.00 0.01 -0.03 4639
0.04 -0.00 1.23 -0.90 10.11 0.01 0.01 -0.03 4645
0.04 -0.00 1.22 -1.03 10.12 0.02 0.01 -0.03 4652
0.03 -0.00 1.25 -0.96 9.96 0.05 -0.00 -0.03 4658
0.05 -0.00 1.19 -0.95 10.08 0.07 0.01 -0.03 4664
0.04 -0.00 1.23 -1.20 10.20 0.10 0.03 -0.04 4670
0.04 -0.00 1.31 -1.28 10.37 0.15 0.08 -0.05 4676
0.04 0.00 1.63 -0.95 10.98 0.23 0.23 -0.06 4682
0.04 -0.00 1.36 -1.03 11.87 0.41 0.46 -0.08 4689
0.04 -0.00 1.85 -0.91 13.11 0.75 1.02 -0.12 4696
0.04 -0.00 2.12 -1.09 14.92 1.16 1.63 -0.17 4702
0.05 -0.01 2.44 -1.14 15.11 1.56 2.02 -0.23 4708
0.04 -0.00 1.64 -1.58 15.24 1.76 2.18 -0.24 4714
0.04 -0.00 1.94 -1.34 14.31 1.86 2.30 -0.26 4720
0.06 -0.01 2.03 -1.46 13.95 1.86 2.40 -0.25 4727
0.05 -0.00 1.93 -1.59 13.77 1.87 2.58 -0.23 4733
0.04 -0.00 1.74 -1.86 13.63 1.86 2.75 -0.19 4740
0.05 -0.00 1.73 -2.08 13.95 1.88 2.90 -0.12 4746
0.03 -0.00 1.97 -2.25 13.93 1.89 3.04 -0.06 4752
0.04 -0.00 2.02 -1.86 13.93 1.89 3.21 -0.01 4758
0.04 0.01 2.37 -2.61 14.40 1.84 3.33 0.03 4765
0.04 0.00 2.05 -2.85 14.66 1.80 3.42 0.07 4771
0.04 -0.00 1.95 -2.83 13.83 1.79 3.55 0.11 4777
0.04 -0.00 2.17 -2.99 13.52 1.81 3.65 0.17 4784
0.04 -0.00 1.83 -3.18 13.51 1.87 3.78 0.22 4790
0.04 -0.00 0.96 -2.97 12.73 1.91 3.82 0.28 4796
0.05 -0.01 0.50 -2.70 10.89 1.88 3.71 0.36 4803
0.06 -0.01 0.38 -2.49 10.02 1.81 3.50 0.44 4809
0.05 -0.01 0.02 -2.40 9.55 1.74 3.17 0.51 4815
0.03 -0.00 -0.82 -2.45 9.28 1.71 2.77 0.54 4822
0.04 -0.00 -3.17 -2.54 9.02 1.69 2.31 0.52 4828
0.05 -0.00 -6.23 -1.99 8.71 1.64 1.66 0.27 4834
0.04 -0.00 -6.70 -1.43 9.98 1.44 0.75 -0.10 4840
0.03 -0.00 -23.47 1.49 17.51 1.12 -0.35 -0.79 4846
0.04 -0.00 -10.94 1.70 14.63 0.37 -1.59 -1.63 4853
0.04 -0.00 -6.49 0.54 15.83 -0.15 -2.12 -2.02 4859
0.03 -0.00 -4.76 0.58 14.85 -0.57 -2.11 -2.46 4866
0.04 -0.00 -2.60 0.42 12.52 -0.91 -2.01 -2.97 4872
0.04 -0.00 -0.54 0.03 10.47 -1.09 -1.97 -3.24 4878
0.03 -0.00 0.47 -0.94 9.78 -1.12 -1.88 -3.43 4884
0.04 -0.00 0.72 -1.59 8.76 -1.06 -1.74 -3.45 4891
0.05 -0.00 0.58 -1.81 8.47 -0.96 -1.62 -3.36 4897
0.03 -0.00 0.53 -1.54 8.66 -0.85 -1.58 -3.15 4903
0.03 -0.00 0.57 -1.38 8.75 -0.70 -1.68 -2.84 4910
0.03 0.00 0.82 -1.04 8.63 -0.56 -1.84 -2.44 4916
0.04 -0.00 1.58 -0.61 8.09 -0.45 -2.16 -2.08 4922
0.03 -0.00 2.52 -0.25 7.84 -0.36 -2.52 -1.67 4928
0.02 -0.00 3.56 -0.23 7.65 -0.26 -2.82 -1.33 4934
0.04 0.00 4.51 -0.34 7.80 -0.14 -2.99 -1.05 4941
0.03 -0.00 5.66 -0.13 8.57 -0.05 -2.99 -0.82 4947
0.03 -0.00 6.38 0.31 9.51 0.03 -2.87 -0.62 4954
0.03 -0.00 7.23 0.85 10.78 0.03 -2.62 -0.43 4960
0.05 -0.00 7.71 1.35 11.41 -0.07 -2.33 -0.28 4966
0.04 -0.00 7.43 1.52 11.46 -0.27 -2.05 -0.11 4972
0.03 -0.00 6.77 1.33 11.16 -0.51 -1.85 0.05 4978
0.03 -0.00 5.90 0.86 10.79 -0.74 -1.75 0.20 4984
0.04 -0.00 5.29 0.14 10.24 -0.89 -1.74 0.31 4992
0.03 -0.00 5.09 -0.53 9.97 -0.95 -1.79 0.37 4998
0.03 -0.00 5.07 -0.99 9.54 -0.97 -1.82 0.39 5004
0.05 -0.00 5.23 -1.26 9.18 -0.97 -1.81 0.38 5010
0.04 -0.00 5.36 -1.38 9.08 -0.95 -1.73 0.34 5016
0.04 -0.00 5.43 -1.54 9.13 -0.93 -1.62 0.28 5022
0.04 -0.00 5.35 -1.50 9.11 -0.92 -1.50 0.20 5028
0.04 -0.00 5.27 -1.40 9.32 -0.92 -1.38 0.11 5035
0.03 -0.00 5.25 -1.40 9.56 -0.94 -1.27 0.03 5042
0.04 -0.00 5.17 -1.42 9.77 -0.98 -1.21 -0.04 5048
0.03 -0.00 5.18 -1.45 9.82 -1.03 -1.14 -0.10 5054
0.05 -0.00 5.13 -1.55 9.80 -1.09 -1.08 -0.08 5060
0.03 -0.00 5.15 -1.69 9.82 -1.13 -1.03 -0.08 5066
0.02 -0.00 5.24 -1.88 9.68 -1.16 -0.99 -0.05 5072
0.03 -0.00 5.41 -2.15 9.53 -1.18 -0.97 -0.01 5079
0.04 -0.00 5.61 -2.38 9.43 -1.18 -0.95 0.04 5085
0.03 -0.00 5.86 -2.61 9.19 -1.18 -0.91 0.10 5091
0.02 -0.00 6.12 -2.83 8.95 -1.17 -0.86 0.16 5098
0.03 0.00 6.34 -2.87 8.57 -1.14 -0.79 0.22 5104
0.04 -0.00 6.59 -2.82 8.22 -1.11 -0.70 0.30 5110
0.03 -0.00 6.76 -2.68 7.90 -1.07 -0.59 0.37 5116
0.02 -0.00 6.87 -2.47 7.68 -1.03 -0.46 0.44 5123
0.03 0.01 6.83 -2.22 7.73 -0.98 -0.29 0.53 5129
0.02 -0.00 6.85 -2.03 7.98 -0.93 -0.14 0.63 5135
0.02 -0.00 6.81 -1.95 8.17 -0.89 0.05 0.74 5141
0.02 -0.00 6.71 -1.91 8.23 -0.88 0.23 0.88 5147
0.03 -0.00 6.64 -2.05 8.31 -0.87 0.38 1.03 5154
0.03 -0.00 6.57 -2.19 8.69 -0.85 0.50 1.18 5160
0.03 -0.00 6.19 -2.44 8.75 -0.84 0.58 1.31 5167
0.02 -0.00 5.92 -2.59 8.68 -0.83 0.61 1.41 5173
0.03 -0.00 5.56 -2.67 8.59 -0.82 0.61 1.50 5179
0.02 -0.00 5.20 -2.83 8.51 -0.81 0.58 1.49 5185
0.03 -0.00 4.77 -2.99 8.49 -0.81 0.55 1.46 5191
0.02 -0.00 4.44 -3.19 8.55 -0.82 0.49 1.39 5197
0.03 0.00 4.33 -3.39 8.62 -0.85 0.42 1.28 5203
0.03 -0.00 4.90 -3.55 8.75 -0.89 0.38 1.14 5211
0.03 -0.00 4.41 -3.76 8.99 -0.92 0.36 1.01 5217
0.02 -0.00 4.57 -3.97 9.28 -0.96 0.38 0.90 5223
0.03 -0.00 4.62 -4.14 9.52 -0.99 0.42 0.78 5229
0.03 -0.00 4.52 -4.22 9.60 -1.04 0.47 0.69 5235
0.03 -0.00 4.13 -4.41 9.29 -1.07 0.51 0.63 5241
0.03 -0.00 3.43 -4.56 8.75 -1.10 0.53 0.58 5248
0.03 -0.00 2.80 -4.59 8.14 -1.08 0.54 0.54 5254
0.03 -0.00 2.19 -4.42 7.72 -1.03 0.54 0.48 5260
0.03 -0.00 1.71 -4.20 7.54 -0.96 0.54 0.38 5266
0.03 -0.00 1.43 -4.09 7.36 -0.90 0.53 0.23 5273
0.03 -0.00 1.19 -3.91 7.35 -0.85 0.53 0.05 5279
0.03 -0.00 1.32 -3.65 7.73 -0.80 0.53 -0.17 5285
0.03 -0.00 1.46 -3.58 7.99 -0.79 0.53 -0.42 5292
0.03 -0.00 1.59 -3.79 7.82 -0.82 0.52 -0.68 5298
0.03 -0.00 1.61 -4.20 7.26 -0.86 0.46 -0.93 5304
0.03 -0.00 1.78 -4.72 6.16 -0.85 0.37 -1.22 5310
0.03 -0.00 -15.54 -51.19 28.64 0.30 -3.10 -1.75 5316
0.04 -0.00 -12.08 -43.05 26.96 0.66 -3.95 -2.36 5323
0.03 0.06 -0.84 -56.88 19.62 -0.23 -2.57 -1.88 5329
0.02 0.19 -0.78 -1.51 15.50 -0.26 -0.23 -0.02 5336
0.04 0.30 -0.10 -5.32 8.90 -0.15 -0.21 0.02 5342
0.02 0.26 -0.19 0.70 11.32 -0.10 0.04 0.08 5349
0.04 0.27 -0.92 1.14 10.21 -0.13 0.10 -0.00 5355
0.05 0.28 -0.12 0.96 10.18 -0.13 0.16 -0.01 5361
0.04 0.32 0.75 -0.27 10.25 -0.12 0.19 0.04 5367
0.04 0.33 0.81 -0.66 10.15 -0.07 0.14 0.09 5373
0.04 0.39 1.02 -0.73 10.37 -0.04 0.14 0.09 5381
0.04 0.34 0.87 -0.65 9.83 -0.03 0.12 0.09 5387
0.03 0.43 0.63 -0.60 9.89 -0.03 0.13 0.10 5393
0.04 0.41 0.54 -0.74 9.92 -0.03 0.15 0.10 5399
0.03 0.46 0.56 -0.82 10.10 -0.04 0.17 0.10 5405
0.01 0.39 0.70 -0.97 10.12 -0.04 0.19 0.11 5411
0.04 0.48 0.74 -0.83 10.01 -0.04 0.20 0.11 5419
0.04 0.44 0.78 -0.61 10.22 -0.02 0.20 0.11 5425
0.03 0.43 0.82 -0.55 10.20 -0.02 0.20 0.11 5431
0.04 0.51 0.86 -0.64 10.09 -0.02 0.19 0.10 5437
0.03 0.47 0.92 -0.64 10.10 -0.01 0.17 0.08 5443
0.02 0.49 0.94 -0.65 10.04 -0.02 0.16 0.07 5450
0.04 0.50 0.90 -0.63 9.99 -0.02 0.14 0.06 5456
0.02 0.48 0.87 -0.64 10.01 -0.01 0.11 0.06 5463
0.03 0.46 0.82 -0.57 9.99 -0.01 0.10 0.06 5469
0.05 0.44 0.91 -0.63 10.07 0.00 0.09 0.07 5475
0.01 0.41 0.92 -0.63 10.01 0.01 0.08 0.07 5481
0.02 0.38 1.19 -0.58 9.91 0.02 0.06 0.07 5488
0.03 0.38 0.91 -0.72 9.93 0.01 0.04 0.07 5494
0.04 0.37 0.88 -0.65 9.95 0.01 0.03 0.07 5500
0.04 0.35 0.87 -0.66 9.92 0.01 0.02 0.06 5507
0.04 0.36 0.89 -0.66 9.95 0.01 0.01 0.07 5513
0.05 0.35 0.89 -0.68 9.91 0.00 0.00 0.03 5519
0.04 0.32 0.90 -0.67 9.98 0.00 -0.00 0.06 5525
0.04 0.29 0.91 -0.71 9.94 0.00 -0.01 0.06 5531
0.04 0.29 0.87 -0.68 9.96 -0.00 -0.02 0.06 5538
0.05 0.28 0.86 -0.72 9.95 -0.00 -0.03 0.06 5544
0.05 0.27 0.86 -0.68 9.92 -0.00 -0.04 0.05 5551
0.04 0.29 0.86 -0.72 9.96 -0.01 -0.04 0.06 5557
0.05 0.27 0.86 -0.64 10.01 -0.00 -0.05 0.05 5563
0.05 0.27 0.89 -0.66 10.00 -0.01 -0.05 0.05 5569
0.04 0.20 0.87 -0.70 9.93 -0.01 -0.05 0.06 5575
0.05 0.23 0.85 -0.67 10.02 -0.00 -0.06 0.05 5582
0.06 0.19 0.87 -0.68 9.98 -0.00 -0.06 0.06 5588
0.05 0.19 0.85 -0.69 9.90 0.00 -0.05 0.05 5595
0.05 0.20 0.86 -0.67 9.98 -0.00 -0.05 0.05 5601
0.06 0.20 0.87 -0.68 10.08 -0.00 -0.05 0.05 5607
0.05 0.20 0.86 -0.67 9.92 -0.00 -0.04 0.05 5613
0.05 0.22 0.87 -0.69 9.97 -0.01 -0.04 0.05 5619
0.05 0.19 0.85 -0.70 9.98 -0.00 -0.03 0.05 5626
0.06 0.20 0.85 -0.73 9.98 0.00 -0.03 0.04 5633
0.06 0.19 0.88 -0.67 9.97 0.00 -0.02 0.05 5639
0.05 0.14 0.90 -0.68 9.98 0.00 -0.03 0.05 5645
0.07 0.16 0.89 -0.68 10.00 0.00 -0.03 0.05 5651
0.07 0.11 0.91 -0.67 9.92 0.01 -0.04 0.04 5657
0.06 0.10 0.88 -0.68 9.90 0.01 -0.04 0.05 5663
0.07 0.09 0.90 -0.66 9.97 0.00 -0.05 0.04 5669
0.07 0.11 0.88 -0.68 9.95 -0.00 -0.05 0.04 5677
0.06 0.08 0.91 -0.69 10.02 -0.00 -0.04 0.04 5683
0.06 0.09 0.90 -0.70 10.01 0.00 -0.04 0.04 5689
0.07 0.10 0.88 -0.66 9.95 0.01 -0.04 0.04 5695
0.08 0.06 0.89 -0.69 9.93 0.01 -0.04 0.04 5701
0.07 0.06 0.88 -0.73 10.00 0.00 -0.03 0.04 5707
0.08 0.05 0.87 -0.70 10.01 0.01 -0.04 0.04 5713
0.09 0.05 0.90 -0.71 9.95 0.01 -0.04 0.04 5721
0.09 0.05 0.89 -0.74 9.98 0.01 -0.05 0.05 5727
0.09 0.06 0.92 -0.68 9.95 0.00 -0.04 0.04 5733
0.09 0.07 0.89 -0.70 9.97 0.00 -0.04 0.04 5739
0.10 0.03 0.83 -0.74 10.00 0.00 -0.04 0.04 5745
0.10 0.04 0.91 -0.72 9.98 -0.00 -0.04 0.04 5751
0.10 0.05 0.91 -0.74 10.01 0.00 -0.04 0.04 5757
0.11 0.06 0.86 -0.69 9.98 -0.00 -0.04 0.04 5765
0.10 0.05 0.89 -0.72 10.02 -0.00 -0.04 0.04 5771
0.09 0.04 0.88 -0.72 10.01 0.00 -0.04 0.04 5777
0.11 0.03 0.88 -0.71 9.98 -0.00 -0.04 0.04 5783
0.10 0.03 0.88 -0.74 9.99 -0.01 -0.04 0.04 5789
0.09 0.02 0.91 -0.74 9.98 -0.01 -0.04 0.04 5795
0.09 0.03 0.88 -0.73 9.96 -0.01 -0.04 0.04 5801
0.11 0.01 0.93 -0.75 9.97 -0.01 -0.03 0.03 5809
0.11 0.01 0.88 -0.73 9.98 -0.01 -0.03 0.04 5815
0.10 0.02 0.88 -0.72 9.99 -0.00 -0.03 0.04 5821
0.11 0.02 0.88 -0.70 10.00 -0.01 -0.03 0.04 5827
0.10 -0.00 0.86 -0.71 9.98 -0.01 -0.02 0.03 5833
0.10 0.00 0.87 -0.75 9.96 -0.01 -0.03 0.04 5839
0.10 0.02 0.87 -0.73 9.97 -0.01 -0.02 0.03 5846
0.11 0.01 0.91 -0.72 9.98 -0.01 -0.03 0.04 5852
0.11 0.03 0.88 -0.73 9.97 -0.01 -0.03 0.04 5859
0.10 0.01 0.88 -0.74 9.98 -0.01 -0.03 0.04 5865
0.10 0.02 0.93 -0.72 10.00 -0.01 -0.03 0.03 5871
0.11 -0.00 0.91 -0.73 9.97 -0.01 -0.03 0.03 5877
0.10 -0.01 0.93 -0.73 10.01 -0.00 -0.03 0.03 5883
0.09 0.02 0.89 -0.72 10.00 -0.01 -0.03 0.03 5890
0.10 0.01 0.93 -0.73 10.00 -0.01 -0.04 0.03 5897
0.09 -0.00 0.92 -0.76 9.99 -0.01 -0.04 0.03 5903
0.08 0.01 0.91 -0.74 9.99 -0.01 -0.05 0.03 5909
0.10 0.02 0.89 -0.74 9.93 -0.01 -0.05 0.03 5915
0.09 0.02 0.89 -0.74 10.00 -0.02 -0.05 0.03 5921
0.07 0.03 0.89 -0.75 9.96 -0.02 -0.05 0.02 5927
0.08 0.05 0.93 -0.74 9.97 -0.03 -0.05 0.02 5934
0.09 0.05 0.89 -0.75 10.02 -0.03 -0.06 0.02 5941
0.10 0.05 0.91 -0.76 9.96 -0.04 -0.06 0.02 5947
0.09 0.08 0.90 -0.75 10.03 -0.04 -0.06 0.02 5953
0.11 0.09 0.89 -0.74 9.98 -0.04 -0.05 0.01 5959
0.10 0.08 0.90 -0.71 10.02 -0.04 -0.04 0.01 5965
0.10 0.11 0.85 -0.70 10.02 -0.04 -0.03 0.02 5971
0.10 0.13 0.89 -0.68 10.03 -0.03 -0.02 0.02 5979
0.08 0.12 0.86 -0.72 10.00 -0.02 -0.02 0.02 5985
0.06 0.13 0.90 -0.71 10.03 -0.01 -0.01 0.03 5991
0.09 0.14 0.87 -0.69 9.99 -0.01 0.00 0.03 5997
0.07 0.10 0.96 -0.72 9.99 -0.00 0.01 0.03 6003
0.07 0.09 0.95 -0.69 10.05 0.00 0.02 0.03 6009
0.07 0.08 0.98 -0.68 10.07 0.00 0.04 0.03 6016
0.07 0.04 1.03 -0.73 10.11 0.01 0.05 0.03 6023
0.06 0.01 0.96 -0.73 10.08 0.02 0.07 0.04 6029
0.04 0.02 1.09 -0.82 10.08 0.03 0.08 0.03 6035
0.07 0.01 1.20 -0.70 10.01 0.04 0.08 0.02 6041
0.05 -0.01 1.16 -0.57 10.04 0.06 0.09 -0.01 6047
0.04 -0.00 1.21 -1.12 10.19 0.09 0.08 -0.01 6053
0.05 -0.00 1.17 -0.80 10.30 0.13 0.09 -0.03 6060
0.05 -0.01 1.08 -0.73 10.27 0.18 0.08 -0.05 6067
0.05 -0.00 0.86 -1.11 10.62 0.26 0.05 -0.09 6073
0.05 -0.00 0.99 -0.79 11.82 0.46 0.09 -0.14 6079
0.06 -0.01 0.99 -1.10 14.09 0.87 0.47 -0.16 6085
0.05 -0.00 1.30 -1.18 16.58 1.55 1.31 -0.20 6091
0.03 -0.00 0.48 -1.56 16.26 2.06 2.07 -0.21 6097
0.05 0.00 0.56 -1.46 14.86 2.13 2.47 -0.15 6104
0.04 -0.00 0.40 -1.86 14.40 2.08 2.64 -0.05 6111
0.04 0.00 0.42 -2.26 13.95 2.06 2.82 0.05 6117
0.04 0.01 0.47 -2.15 14.05 2.09 2.94 0.17 6123
0.04 -0.00 0.48 -2.56 13.58 2.10 3.08 0.30 6129
0.05 -0.00 0.47 -2.91 13.99 2.10 3.15 0.41 6135
0.04 -0.00 0.11 -3.23 13.86 2.13 3.16 0.55 6141
0.05 -0.00 0.04 -3.24 14.52 2.15 3.12 0.64 6149
0.04 -0.00 0.44 -2.97 14.70 2.15 3.06 0.75 6155
0.04 -0.00 1.00 -2.58 13.55 2.14 2.99 0.82 6161
0.05 -0.01 1.39 -2.29 12.78 2.13 2.97 0.85 6167
0.05 -0.00 1.01 -2.27 12.37 2.13 2.92 0.87 6173
0.04 -0.00 0.53 -2.53 12.13 2.18 2.84 0.93 6179
0.06 0.00 -0.60 -2.53 11.53 2.23 2.74 1.01 6187
0.05 -0.00 -0.91 -2.25 10.73 2.22 2.50 1.10 6193
0.04 -0.00 -1.54 -1.76 9.11 2.13 2.15 1.22 6199
0.04 0.00 -1.84 -0.69 8.43 2.02 1.60 1.30 6205
0.05 -0.00 -3.69 -0.65 8.29 1.91 1.00 1.29 6211
0.03 -0.00 -2.68 -0.41 7.92 1.81 0.38 1.19 6217
0.02 -0.00 -7.32 -0.21 8.83 1.73 -0.18 0.95 6223
0.04 0.01 -19.28 3.37 13.84 1.37 -1.01 0.13 6231
0.04 -0.00 -8.89 2.55 11.31 0.72 -1.95 -0.81 6237
0.03 -0.00 -4.81 1.48 12.73 0.41 -2.35 -1.31 6243
0.04 0.01 -3.77 1.48 13.26 0.14 -2.29 -1.87 6249
0.04 -0.00 -2.30 0.80 10.86 -0.07 -2.20 -2.46 6255
0.03 -0.00 -0.96 0.47 8.95 -0.18 -2.25 -2.84 6261
0.04 -0.00 -0.11 0.13 9.15 -0.17 -2.32 -3.06 6267
0.06 -0.01 1.16 -0.00 9.52 -0.13 -2.31 -3.18 6275
0.04 -0.00 2.46 0.30 10.75 -0.10 -2.26 -3.20 6281
0.03 -0.00 3.92 0.89 11.92 -0.13 -2.21 -3.12 6287
0.05 0.00 5.35 1.38 12.55 -0.25 -2.13 -2.94 6293
0.03 -0.00 6.33 1.51 12.38 -0.41 -2.01 -2.67 6299
0.02 -0.00 6.06 1.81 11.81 -0.66 -1.89 -2.33 6305
0.04 0.01 6.34 1.60 10.56 -0.87 -1.83 -1.99 6312
0.03 -0.00 6.16 1.22 9.59 -1.03 -1.85 -1.66 6319
0.04 -0.00 5.73 0.65 8.82 -1.09 -1.95 -1.40 6325
0.04 0.00 5.62 -0.01 8.40 -1.07 -2.08 -1.14 6331
0.05 -0.01 6.07 -0.29 7.79 -1.02 -2.19 -0.92 6337
0.04 -0.00 7.03 -0.45 6.87 -0.95 -2.22 -0.72 6343
0.03 -0.00 7.22 -0.51 7.60 -0.90 -2.16 -0.55 6349
0.04 0.01 7.47 -0.56 7.73 -0.85 -2.07 -0.42 6356
0.04 -0.00 7.57 -0.54 7.87 -0.80 -1.91 -0.31 6363
0.03 -0.00 7.56 -0.58 8.07 -0.79 -1.71 -0.24 6369
0.03 -0.00 7.22 -0.81 8.29 -0.79 -1.51 -0.16 6375
0.04 -0.00 6.88 -0.96 8.69 -0.81 -1.32 -0.08 6381
0.04 -0.00 6.51 -1.20 8.93 -0.83 -1.14 -0.00 6387
0.03 -0.00 6.08 -1.47 9.09 -0.85 -0.99 0.07 6393
0.03 -0.00 5.82 -1.68 9.07 -0.87 -0.89 0.16 6400
0.04 0.00 5.57 -1.82 9.13 -0.90 -0.77 0.23 6406
0.03 -0.00 5.33 -1.94 9.13 -0.92 -0.68 0.31 6412
0.04 -0.00 5.05 -2.17 9.15 -0.93 -0.59 0.40 6419
0.04 -0.00 4.78 -2.32 8.97 -0.94 -0.52 0.47 6425
0.04 -0.00 4.51 -2.55 8.80 -0.94 -0.46 0.51 6431
0.04 -0.00 4.12 -2.73 8.55 -0.93 -0.43 0.54 6437
0.03 -0.00 3.81 -2.88 8.36 -0.90 -0.42 0.53 6444
0.03 -0.00 3.58 -2.93 8.49 -0.87 -0.44 0.51 6450
0.04 0.00 3.69 -2.91 8.62 -0.85 -0.45 0.47 6456
0.04 -0.00 3.72 -2.87 8.78 -0.84 -0.44 0.42 6462
0.03 -0.00 3.72 -2.79 8.84 -0.84 -0.41 0.37 6468
0.03 -0.00 3.63 -2.73 8.76 -0.85 -0.37 0.34 6475
0.05 -0.01 3.68 -2.57 9.00 -0.86 -0.33 0.32 6481
0.03 -0.00 3.92 -2.44 9.40 -0.87 -0.26 0.33 6488
0.04 -0.00 3.86 -2.45 9.35 -0.90 -0.16 0.35 6494
0.04 -0.00 3.71 -2.49 9.35 -0.92 -0.07 0.41 6500
0.05 -0.00 3.38 -2.53 9.27 -0.94 0.02 0.49 6506
0.03 -0.00 3.00 -2.65 9.32 -0.90 0.09 0.58 6512
0.03 -0.00 2.81 -2.73 9.50 -0.92 0.14 0.69 6518
0.03 -0.00 2.71 -2.74 9.61 -0.90 0.18 0.78 6524
0.03 -0.00 2.51 -2.77 10.41 -0.89 0.19 0.88 6532
0.04 -0.00 2.36 -2.90 9.90 -0.89 0.19 0.98 6538
0.03 -0.00 2.16 -3.09 9.87 -0.89 0.16 1.04 6544
0.02 -0.00 2.07 -3.19 9.98 -0.90 0.10 1.07 6550
0.04 -0.00 1.96 -3.28 9.92 -0.90 0.05 1.05 6556
0.03 -0.00 1.85 -3.32 9.62 -0.91 0.02 0.99 6562
0.04 -0.00 1.71 -3.24 9.36 -0.91 0.03 0.91 6568
0.03 -0.00 1.50 -3.15 9.24 -0.92 0.05 0.77 6575
0.04 -0.00 1.24 -3.12 9.29 -0.92 0.11 0.59 6581
0.04 -0.00 0.95 -2.92 9.48 -0.92 0.17 0.40 6587
0.04 -0.00 0.74 -2.75 9.81 -0.95 0.24 0.21 6593
0.02 -0.00 0.52 -2.66 10.24 -1.00 0.30 0.02 6600
0.03 -0.00 0.16 -2.71 10.65 -1.07 0.32 -0.13 6606
0.04 -0.00 -0.09 -2.62 11.07 -1.14 0.29 -0.27 6612
0.03 -0.00 -0.42 -2.61 11.35 -1.21 0.23 -0.40 6619
0.03 -0.00 -0.67 -3.02 11.27 -1.27 0.14 -0.52 6625
0.04 -0.00 -0.51 -3.97 10.67 -1.33 0.03 -0.66 6631
0.04 -0.00 0.22 -4.83 9.92 -1.34 -0.07 -0.83 6637
0.03 -0.00 1.29 -5.66 9.26 -1.29 -0.09 -0.99 6644
0.03 0.01 2.11 -6.29 8.79 -1.18 -0.00 -1.12 6650
0.04 -0.00 2.88 -6.64 8.30 -1.03 0.17 -1.21 6657
0.03 -0.00 3.17 -6.77 7.91 -0.87 0.39 -1.28 6663
0.03 -0.00 3.05 -6.72 7.46 -0.70 0.63 -1.31 6669
0.03 -0.00 2.65 -6.63 7.11 -0.51 0.81 -1.30 6675
0.03 -0.00 2.30 -6.62 6.59 -0.35 0.89 -1.27 6681
0.03 -0.00 2.11 -6.54 6.26 -0.15 0.91 -1.22 6687
0.03 -0.00 1.96 -6.38 6.12 0.05 0.90 -1.15 6693
0.03 -0.00 1.94 -6.59 6.37 0.24 0.84 -1.09 6701
0.03 -0.00 -19.02 -33.83 33.88 1.59 -0.49 -0.74 6707
0.03 -0.00 -3.96 -24.03 17.81 1.67 -1.80 -0.70 6713
0.04 0.01 -11.52 -40.76 13.36 -0.10 -2.32 -0.77 6719
0.04 0.01 -6.37 7.86 5.68 -0.13 0.19 0.00 6726
0.06 0.06 -0.96 -10.54 11.29 -0.39 0.20 0.19 6732
0.04 0.07 -0.57 -1.50 9.77 -0.17 0.14 -0.02 6738
0.04 0.07 0.49 0.59 10.27 -0.11 0.17 0.04 6745
0.05 0.15 0.84 -0.03 10.16 -0.18 0.14 0.07 6751
0.05 0.17 0.48 0.00 10.24 -0.18 0.13 0.10 6757
0.04 0.27 0.70 -0.26 10.56 -0.18 0.12 0.11 6764
0.04 0.34 0.89 -0.62 10.83 -0.14 0.09 0.11 6770
0.04 0.37 0.25 -0.37 10.42 -0.11 0.04 0.10 6776
0.03 0.45 0.66 -0.57 10.06 -0.08 0.06 0.10 6782
0.04 0.43 0.75 -0.54 10.16 -0.07 0.06 0.10 6789
0.04 0.51 0.60 -0.80 10.17 -0.06 0.07 0.08 6796
0.04 0.49 0.81 -0.82 10.02 -0.05 0.06 0.08 6802
0.04 0.53 0.82 -0.81 10.09 -0.05 0.05 0.08 6808
0.04 0.60 0.73 -0.73 10.08 -0.05 0.04 0.08 6814
0.04 0.52 0.75 -0.63 10.06 -0.05 0.03 0.07 6820
0.04 0.55 0.84 -0.72 10.17 -0.04 0.02 0.07 6828
0.04 0.58 0.83 -0.74 10.04 -0.04 0.01 0.06 6834
0.05 0.53 0.79 -0.67 10.10 -0.05 -0.01 0.06 6840
0.06 0.55 0.80 -0.67 10.08 -0.05 -0.02 0.05 6846
0.04 0.57 0.79 -0.69 10.05 -0.04 -0.03 0.05 6852
0.05 0.55 0.71 -0.65 10.07 -0.04 -0.04 0.05 6858
0.06 0.61 0.66 -0.61 10.09 -0.03 -0.04 0.05 6865
0.06 0.58 0.72 -0.64 10.08 -0.02 -0.03 0.05 6872
0.05 0.58 0.70 -0.68 10.09 -0.01 -0.03 0.05 6878
0.06 0.59 0.70 -0.68 9.98 -0.02 -0.03 0.05 6884
0.08 0.57 0.71 -0.67 10.04 -0.01 -0.03 0.04 6890
0.06 0.57 0.67 -0.67 10.06 -0.01 -0.03 0.04 6897
0.06 0.56 0.71 -0.68 10.00 -0.01 -0.03 0.04 6903
0.08 0.55 0.69 -0.68 10.00 -0.01 -0.03 0.04 6909
0.07 0.54 0.72 -0.67 10.01 -0.01 -0.03 0.04 6916
0.07 0.55 0.70 -0.68 10.00 -0.01 -0.03 0.04 6922
0.08 0.55 0.73 -0.69 10.01 -0.02 -0.02 0.04 6928
0.06 0.56 0.72 -0.69 9.99 -0.01 -0.02 0.04 6935
0.06 0.57 0.70 -0.68 10.06 -0.01 -0.02 0.04 6941
0.07 0.57 0.72 -0.70 10.02 -0.01 -0.02 0.04 6947
0.07 0.55 0.73 -0.67 10.00 -0.01 -0.02 0.04 6953
0.06 0.58 0.72 -0.67 10.04 -0.01 -0.02 0.04 6960
0.07 0.60 0.74 -0.68 10.04 -0.01 -0.03 0.04 6967
0.06 0.58 0.72 -0.66 9.98 -0.01 -0.02 0.04 6973
0.06 0.58 0.72 -0.65 10.01 -0.01 -0.02 0.03 6979
0.08 0.58 0.71 -0.66 10.01 -0.01 -0.02 0.04 6985
0.06 0.59 0.70 -0.63 10.00 -0.01 -0.02 0.04 6991
0.05 0.63 0.68 -0.67 9.98 -0.01 -0.02 0.03 6998
0.07 0.65 0.70 -0.68 9.99 -0.00 -0.01 0.04 7005
0.05 0.63 0.68 -0.68 9.98 -0.01 -0.01 0.04 7011
0.04 0.61 0.70 -0.64 9.96 -0.00 -0.01 0.04 7017
0.05 0.61 0.70 -0.68 9.98 -0.00 -0.01 0.04 7023
0.04 0.60 0.74 -0.66 10.02 -0.01 -0.01 0.04 7029
0.05 0.60 0.70 -0.66 10.02 -0.01 -0.01 0.04 7035
0.04 0.60 0.74 -0.69 10.00 -0.01 -0.01 0.04 7042
0.05 0.62 0.71 -0.66 10.00 -0.01 -0.01 0.04 7049
0.05 0.61 0.73 -0.69 10.01 -0.01 -0.01 0.04 7055
0.04 0.60 0.73 -0.68 10.04 -0.01 -0.01 0.04 7061
0.04 0.62 0.71 -0.67 10.03 -0.01 -0.01 0.05 7067
0.03 0.60 0.72 -0.68 9.98 -0.01 -0.01 0.04 7073
0.03 0.62 0.69 -0.68 9.96 -0.01 -0.01 0.04 7079
0.04 0.62 0.73 -0.67 10.00 -0.01 -0.01 0.04 7087
0.04 0.62 0.72 -0.67 10.01 -0.01 -0.01 0.04 7093
0.02 0.65 0.72 -0.67 9.99 -0.01 -0.01 0.04 7099
0.04 0.65 0.72 -0.70 10.00 -0.01 -0.01 0.04 7105
0.03 0.63 0.73 -0.67 9.98 -0.01 -0.01 0.04 7111
0.02 0.62 0.73 -0.68 10.04 -0.02 -0.01 0.04 7117
0.03 0.66 0.76 -0.67 9.97 -0.02 -0.01 0.04 7124
0.03 0.65 0.73 -0.68 10.05 -0.01 -0.01 0.04 7131
0.03 0.66 0.72 -0.65 9.96 -0.02 -0.01 0.04 7137
0.02 0.70 0.76 -0.68 9.95 -0.02 -0.01 0.04 7143
0.03 0.70 0.75 -0.70 9.95 -0.02 -0.01 0.04 7149
0.01 0.67 0.76 -0.64 9.91 -0.02 -0.02 0.04 7155
0.00 0.67 0.78 -0.65 9.98 -0.02 -0.02 0.03 7162
0.02 0.71 0.76 -0.63 9.99 -0.02 -0.02 0.03 7169
0.01 0.70 0.80 -0.66 9.97 -0.02 -0.03 0.03 7175
0.01 0.71 0.75 -0.65 10.01 -0.02 -0.03 0.03 7181
0.01 0.72 0.79 -0.66 10.03 -0.02 -0.03 0.02 7187
0.02 0.71 0.78 -0.68 9.98 -0.02 -0.03 0.03 7193
0.01 0.72 0.74 -0.70 10.01 -0.02 -0.03 0.02 7199
0.01 0.72 0.72 -0.65 9.96 -0.02 -0.03 0.02 7206
0.03 0.70 0.75 -0.69 9.99 -0.02 -0.03 0.03 7213
0.02 0.72 0.76 -0.64 9.96 -0.01 -0.02 0.03 7219
0.01 0.72 0.74 -0.66 9.97 -0.01 -0.02 0.03 7225
0.02 0.71 0.74 -0.66 10.00 -0.01 -0.02 0.03 7231
0.02 0.69 0.77 -0.68 10.01 -0.01 -0.01 0.03 7237
0.01 0.71 0.78 -0.65 10.00 -0.01 -0.01 0.03 7244
0.02 0.71 0.76 -0.67 10.03 -0.00 -0.00 0.03 7250
0.02 0.67 0.78 -0.67 9.99 -0.01 -0.00 0.03 7257
0.01 0.69 0.77 -0.65 9.95 -0.00 -0.00 0.03 7263
0.01 0.69 0.77 -0.68 9.98 -0.01 -0.01 0.03 7269
0.03 0.70 0.80 -0.64 9.94 -0.01 -0.01 0.03 7275
0.01 0.69 0.81 -0.68 9.94 -0.00 -0.01 0.03 7281
0.00 0.69 0.78 -0.64 10.00 -0.00 -0.01 0.03 7288
0.01 0.67 0.82 -0.67 9.94 -0.01 -0.02 0.03 7294
0.02 0.65 0.79 -0.68 9.96 -0.01 -0.02 0.03 7301
0.02 0.65 0.79 -0.69 10.04 -0.01 -0.02 0.03 7307
0.02 0.65 0.76 -0.68 9.98 -0.00 -0.02 0.03 7313
0.03 0.65 0.81 -0.66 10.01 -0.01 -0.02 0.03 7319
0.01 0.63 0.78 -0.66 10.01 -0.01 -0.02 0.03 7326
0.01 0.63 0.80 -0.66 9.99 -0.01 -0.02 0.03 7332
0.03 0.65 0.81 -0.65 9.98 -0.01 -0.03 0.03 7339
0.01 0.65 0.77 -0.65 9.97 -0.01 -0.02 0.03 7345
0.01 0.63 0.79 -0.68 9.99 -0.01 -0.03 0.03 7351
0.01 0.63 0.80 -0.67 9.99 -0.01 -0.03 0.03 7357
0.02 0.59 0.79 -0.65 10.03 -0.01 -0.03 0.03 7363
0.02 0.59 0.78 -0.65 10.03 -0.01 -0.02 0.03 7370
0.01 0.61 0.78 -0.66 10.04 -0.01 -0.02 0.03 7376
0.01 0.61 0.80 -0.66 10.00 -0.01 -0.03 0.03 7383
0.02 0.59 0.81 -0.65 10.01 -0.01 -0.02 0.04 7389
0.02 0.61 0.81 -0.67 10.01 -0.01 -0.03 0.03 7395
0.02 0.63 0.81 -0.66 9.97 -0.01 -0.03 0.03 7401
0.02 0.63 0.78 -0.67 10.01 -0.01 -0.03 0.04 7408
0.02 0.63 0.79 -0.67 9.98 -0.01 -0.02 0.04 7414
0.02 0.62 0.77 -0.64 10.01 -0.01 -0.02 0.03 7420
0.03 0.62 0.78 -0.67 10.02 -0.01 -0.02 0.04 7427
0.01 0.63 0.75 -0.64 9.98 -0.01 -0.01 0.03 7433
0.03 0.63 0.78 -0.65 10.01 -0.01 0.00 0.04 7440
0.02 0.61 0.86 -0.65 10.04 -0.01 0.01 0.04 7446
0.02 0.59 0.81 -0.65 10.10 0.00 0.01 0.05 7452
0.03 0.56 0.90 -0.60 10.09 0.01 0.02 0.05 7458
0.02 0.52 0.92 -0.64 9.98 0.02 0.01 0.05 7464
0.01 0.48 0.88 -0.67 10.00 0.03 0.00 0.04 7471
0.03 0.41 0.92 -0.64 10.03 0.03 -0.01 0.04 7477
0.03 0.30 0.93 -0.64 10.11 0.04 -0.02 0.04 7484
0.02 0.23 0.95 -0.66 10.05 0.06 -0.02 0.04 7490
0.04 0.23 0.93 -0.66 10.03 0.07 -0.03 0.04 7496
0.04 0.15 0.88 -0.69 10.13 0.08 -0.03 0.03 7502
0.04 0.07 0.90 -0.71 10.02 0.09 -0.02 0.03 7508
0.04 0.06 0.87 -0.79 10.05 0.09 -0.01 0.04 7516
0.05 0.01 0.89 -0.78 10.07 0.10 0.00 0.03 7522
0.04 -0.00 0.87 -0.83 10.15 0.11 0.01 0.03 7528
0.04 0.00 0.72 -1.07 10.26 0.11 0.02 0.03 7534
0.06 -0.01 0.72 -0.85 10.19 0.11 0.03 0.03 7540
0.04 -0.00 0.64 -1.09 10.37 0.13 0.05 0.05 7546
0.03 -0.00 0.66 -1.14 10.56 0.15 0.10 0.07 7553
0.04 0.01 0.47 -1.35 10.98 0.19 0.20 0.12 7560
0.05 -0.00 0.08 -1.62 11.70 0.28 0.40 0.20 7566
0.04 -0.00 -0.44 -2.08 13.23 0.46 0.81 0.32 7572
0.04 -0.00 -1.16 -2.57 13.55 0.72 1.28 0.49 7578
0.05 -0.01 -1.36 -2.92 13.68 0.96 1.60 0.72 7584
0.04 -0.00 -1.43 -2.69 13.05 1.13 1.72 0.97 7590
0.04 -0.00 -1.10 -2.89 13.03 1.26 1.74 1.20 7598
0.05 -0.01 -1.12 -2.54 13.10 1.38 1.76 1.39 7604
0.04 -0.00 -0.74 -2.01 13.33 1.47 1.80 1.54 7610
0.04 -0.00 -0.54 -1.71 13.20 1.52 1.84 1.58 7616
0.05 -0.00 0.02 -1.11 13.39 1.54 1.90 1.60 7622
0.05 -0.00 0.59 -0.85 13.04 1.55 1.95 1.57 7628
0.05 -0.01 0.51 -0.56 13.08 1.57 1.99 1.51 7634
0.05 -0.01 0.84 -0.42 12.90 1.58 2.03 1.45 7642
0.06 -0.01 0.78 -0.31 12.28 1.59 2.07 1.37 7648
0.05 -0.01 0.17 -0.01 12.07 1.60 2.09 1.25 7654
0.05 -0.00 -1.57 0.43 11.78 1.60 2.01 1.07 7660
0.05 -0.01 -4.74 1.20 12.06 1.55 1.79 0.80 7666
0.05 -0.01 -8.38 2.59 12.66 1.39 1.24 0.43 7672
0.04 -0.00 -9.25 3.37 12.80 1.10 0.39 0.00 7678
0.04 0.01 -9.25 3.84 13.27 0.73 -0.54 -0.35 7686
0.05 -0.01 -8.00 3.34 13.58 0.41 -1.22 -0.68 7692
0.05 -0.00 -6.16 2.31 12.82 0.19 -1.62 -1.05 7698
0.04 0.01 -4.56 1.42 11.31 0.09 -1.82 -1.45 7704
0.05 -0.00 -3.61 1.02 10.34 0.04 -1.92 -1.84 7710
0.04 -0.00 -3.18 0.74 9.87 0.03 -2.02 -2.18 7716
0.05 -0.00 -3.00 0.58 9.81 0.04 -2.11 -2.46 7724
0.06 -0.01 -2.67 0.43 9.47 0.08 -2.27 -2.63 7730
0.03 -0.00 -2.14 0.41 9.16 0.13 -2.47 -2.75 7736
0.03 -0.00 -1.04 0.66 9.44 0.19 -2.67 -2.80 7742
0.03 -0.00 0.17 1.16 9.65 0.26 -2.81 -2.77 7748
0.05 -0.01 2.00 2.09 11.25 0.24 -2.86 -2.67 7754
0.04 -0.00 3.68 2.94 12.56 0.17 -2.77 -2.49 7760
0.03 -0.00 4.99 3.35 12.62 0.00 -2.54 -2.24 7767
0.04 -0.00 5.82 3.66 12.07 -0.22 -2.26 -1.96 7774
0.04 -0.00 6.30 3.46 11.30 -0.46 -2.00 -1.68 7780
0.03 -0.00 6.36 2.80 10.20 -0.62 -1.76 -1.35 7786
0.05 -0.00 6.44 1.99 9.42 -0.68 -1.56 -1.01 7792
0.04 -0.00 6.37 1.17 8.48 -0.67 -1.39 -0.68 7798
0.03 -0.00 6.17 0.46 7.75 -0.60 -1.23 -0.37 7804
0.03 -0.00 6.05 0.02 7.53 -0.48 -1.08 -0.08 7811
0.04 -0.00 6.10 -0.07 7.77 -0.36 -0.97 0.17 7817
0.05 -0.00 5.90 -0.23 8.02 -0.26 -0.82 0.38 7824
0.04 -0.00 5.49 -0.38 8.21 -0.19 -0.68 0.58 7830
0.03 -0.00 5.13 -0.44 8.37 -0.15 -0.58 0.75 7836
0.04 0.01 4.73 -0.62 8.45 -0.10 -0.51 0.88 7842
0.04 -0.00 4.34 -0.70 8.59 -0.11 -0.46 0.98 7848
0.04 -0.00 4.11 -0.90 8.70 -0.09 -0.41 1.04 7855
0.03 -0.00 3.89 -0.94 8.87 -0.07 -0.35 1.07 7861
0.04 0.01 3.94 -0.89 9.34 -0.06 -0.28 1.08 7867
0.04 -0.00 4.01 -0.78 10.02 -0.09 -0.18 1.09 7873
0.04 -0.00 3.86 -0.76 10.49 -0.16 -0.06 1.10 7880
0.04 -0.00 3.38 -0.82 10.66 -0.28 0.01 1.10 7886
0.04 -0.00 2.80 -0.94 10.46 -0.37 0.02 1.10 7892
0.04 -0.00 2.39 -1.11 10.22 -0.48 -0.03 1.09 7899
0.02 -0.00 2.22 -1.25 9.84 -0.57 -0.13 1.04 7905
0.03 -0.00 2.27 -1.40 9.52 -0.63 -0.21 1.03 7911
0.04 0.00 2.48 -1.46 9.04 -0.67 -0.25 0.96 7917
0.04 -0.00 2.70 -1.51 8.62 -0.69 -0.22 0.88 7924
0.02 -0.00 2.76 -1.52 8.41 -0.69 -0.16 0.78 7930
0.04 -0.00 2.73 -1.60 8.44 -0.69 -0.08 0.68 7937
0.04 -0.00 2.61 -1.61 8.57 -0.68 -0.01 0.61 7943
0.03 -0.00 2.42 -1.65 8.86 -0.67 0.05 0.56 7949
0.02 -0.00 2.28 -1.71 9.00 -0.68 0.08 0.53 7955
0.03 0.00 2.27 -1.91 9.12 -0.70 0.07 0.52 7961
0.04 -0.00 2.44 -2.23 9.28 -0.72 0.05 0.54 7967
0.03 -0.00 2.67 -2.63 9.43 -0.73 0.02 0.58 7973
0.03 -0.00 2.91 -2.91 9.55 -0.75 0.02 0.63 7980
0.04 -0.00 3.16 -3.13 9.62 -0.75 0.02 0.68 7987
0.04 -0.00 3.43 -3.36 9.69 -0.76 0.06 0.71 7993
0.04 -0.00 3.60 -3.46 9.64 -0.77 0.12 0.75 7999
0.03 -0.00 3.54 -3.61 9.67 -0.79 0.18 0.77 8005
0.03 0.00 3.28 -3.70 9.68 -0.80 0.25 0.77 8011
0.03 -0.00 2.85 -3.72 9.48 -0.81 0.29 0.76 8017
0.03 -0.00 2.55 -3.74 9.09 -0.81 0.31 0.72 8024
0.02 -0.00 2.20 -3.72 9.08 -0.81 0.33 0.67 8030
0.04 0.00 1.99 -3.71 9.16 -0.81 0.36 0.60 8036
0.04 -0.00 1.81 -3.62 9.26 -0.80 0.41 0.50 8043
0.03 -0.00 1.62 -3.57 9.17 -0.81 0.47 0.40 8049
0.02 -0.00 1.23 -3.58 9.15 -0.82 0.53 0.28 8055
0.03 0.01 0.91 -3.61 9.13 -0.84 0.55 0.15 8061
0.04 -0.00 0.55 -3.85 9.02 -0.85 0.54 0.01 8068
0.04 -0.00 0.34 -4.10 8.99 -0.85 0.49 -0.13 8074
0.03 -0.00 0.30 -4.27 8.89 -0.86 0.43 -0.31 8080
0.04 0.00 0.32 -4.48 8.75 -0.87 0.36 -0.50 8086
0.04 -0.00 0.62 -4.46 8.68 -0.84 0.32 -0.70 8092
0.04 -0.00 1.07 -4.24 8.77 -0.86 0.31 -0.89 8098
0.03 -0.00 1.68 -3.99 9.07 -0.86 0.36 -1.05 8105
0.04 0.00 2.05 -3.88 9.26 -0.89 0.46 -1.16 8112
0.03 -0.00 2.13 -3.87 9.24 -0.95 0.53 -1.15 8118
0.03 -0.00 2.08 -3.91 8.98 -0.99 0.54 -1.09 8124
0.03 -0.00 2.12 -4.01 8.14 -1.00 0.50 -0.94 8130
0.04 -0.00 3.03 -5.54 6.70 -0.96 0.42 -0.73 8136
0.04 -0.00 -10.43 -16.98 48.68 0.51 1.12 0.02 8142
0.01 -0.00 1.20 -6.02 -4.82 1.10 1.00 0.42 8148
0.04 0.03 -7.29 -39.00 3.40 1.57 0.13 0.81 8156
0.03 0.06 -6.47 -30.09 40.87 2.80 -1.25 0.78 8162
0.01 0.14 0.23 1.20 3.55 0.10 -0.43 0.50 8168
0.04 0.26 -2.28 -3.66 9.21 -0.13 0.08 0.19 8174
0.03 0.26 -0.81 -0.67 11.98 -0.15 0.01 0.03 8180
0.03 0.28 0.05 -0.52 9.82 -0.11 0.12 -0.04 8187
0.03 0.32 2.43 0.24 9.79 -0.03 0.06 0.07 8194
0.04 0.32 1.60 0.10 9.86 -0.01 0.04 0.16 8200
0.03 0.37 0.67 -0.51 10.43 -0.02 0.04 0.13 8206
0.04 0.36 0.42 -0.58 10.25 -0.02 0.05 0.08 8212
0.05 0.40 0.74 -0.64 9.97 0.00 0.05 0.07 8218
0.03 0.40 0.92 -0.71 9.84 -0.00 0.05 0.08 8224
0.02 0.45 0.76 -0.94 10.11 -0.03 0.04 0.09 8231
0.03 0.48 0.69 -0.91 10.07 -0.03 0.04 0.09 8238
0.03 0.47 0.72 -0.85 10.15 -0.04 0.05 0.09 8244
0.01 0.50 0.87 -0.81 9.92 -0.05 0.05 0.09 8250
0.04 0.51 0.89 -0.66 9.96 -0.05 0.04 0.09 8256
0.03 0.52 0.95 -0.55 9.92 -0.04 0.03 0.08 8262
0.03 0.53 0.85 -0.62 10.10 -0.03 0.01 0.07 8269
0.04 0.56 0.86 -0.68 10.09 -0.03 0.00 0.06 8275
0.04 0.58 0.79 -0.72 9.99 -0.03 -0.01 0.06 8282
0.03 0.62 0.79 -0.76 10.15 -0.03 -0.02 0.07 8288
0.02 0.63 0.86 -0.77 10.06 -0.03 -0.02 0.07 8294
0.04 0.61 0.78 -0.69 10.10 -0.02 -0.02 0.07 8300
0.03 0.60 0.80 -0.67 10.02 -0.02 -0.02 0.06 8307
0.02 0.60 0.80 -0.67 10.04 -0.01 -0.03 0.06 8313
0.05 0.59 0.79 -0.66 10.07 -0.01 -0.03 0.06 8320
0.04 0.57 0.76 -0.66 10.03 -0.01 -0.03 0.06 8326
0.04 0.59 0.78 -0.64 10.00 -0.01 -0.03 0.05 8332
0.06 0.59 0.79 -0.67 10.01 -0.01 -0.04 0.05 8339
0.05 0.58 0.78 -0.68 9.99 -0.01 -0.04 0.05 8345
0.05 0.58 0.79 -0.69 10.07 -0.01 -0.05 0.05 8351
0.06 0.59 0.80 -0.71 9.99 -0.02 -0.05 0.04 8357
0.05 0.59 0.79 -0.71 10.02 -0.02 -0.05 0.05 8364
0.04 0.59 0.79 -0.71 10.00 -0.02 -0.06 0.05 8370
0.05 0.61 0.77 -0.69 10.03 -0.02 -0.05 0.04 8377
0.04 0.63 0.78 -0.69 10.01 -0.01 -0.05 0.04 8383
0.03 0.69 0.75 -0.68 10.01 -0.01 -0.05 0.04 8389
0.04 0.71 0.78 -0.67 9.98 -0.01 -0.04 0.05 8395
0.04 0.71 0.76 -0.72 10.01 -0.01 -0.04 0.04 8401
0.02 0.70 0.77 -0.68 9.99 -0.01 -0.04 0.04 8408
0.03 0.70 0.75 -0.66 10.00 -0.01 -0.00 0.05 8415
0.03 0.69 0.76 -0.66 10.01 -0.01 -0.03 0.04 8421
0.03 0.69 0.77 -0.65 10.00 -0.01 -0.03 0.04 8427
0.04 0.68 0.77 -0.69 9.98 -0.01 -0.03 0.04 8433
0.03 0.71 0.76 -0.65 10.00 -0.01 -0.03 0.04 8439
0.02 0.74 0.77 -0.68 10.02 -0.01 -0.03 0.04 8446
0.02 0.77 0.78 -0.68 9.97 -0.01 -0.03 0.04 8453
0.03 0.73 0.77 -0.68 10.01 -0.01 -0.03 0.04 8459
0.03 0.74 0.79 -0.68 9.99 -0.01 -0.03 0.04 8465
0.02 0.75 0.79 -0.67 9.96 -0.02 -0.03 0.03 8471
0.03 0.78 0.76 -0.69 10.01 -0.01 -0.03 0.04 8477
0.02 0.82 0.75 -0.69 10.01 -0.02 -0.03 0.04 8484
0.02 0.81 0.74 -0.69 10.02 -0.02 -0.02 0.04 8491
0.03 0.83 0.72 -0.67 10.02 -0.02 -0.01 0.03 8497
0.02 0.87 0.71 -0.69 10.08 -0.03 0.00 0.03 8503
0.02 0.85 0.71 -0.74 10.06 -0.04 0.01 0.03 8509
0.02 0.87 0.76 -0.75 10.08 -0.05 0.03 0.04 8515
0.01 0.86 0.73 -0.73 10.13 -0.06 0.04 0.04 8522
0.00 0.89 0.74 -0.71 10.06 -0.06 0.06 0.03 8528
0.02 0.96 0.73 -0.70 10.06 -0.07 0.07 0.03 8535
0.00 0.94 0.91 -0.64 10.02 -0.08 0.08 0.03 8541
0.00 0.96 0.78 -0.70 10.13 -0.08 0.09 0.02 8547
0.02 1.03 0.71 -0.70 10.10 -0.09 0.10 0.02 8554
0.00 0.98 0.80 -0.65 10.08 -0.09 0.11 0.01 8560
-0.02 1.04 0.86 -0.61 10.03 -0.11 0.11 0.00 8566
0.01 1.02 0.86 -0.64 10.10 -0.11 0.11 -0.00 8572
0.00 1.04 0.89 -0.61 9.93 -0.11 0.11 -0.01 8579
-0.00 1.04 0.86 -0.63 10.05 -0.11 0.10 -0.02 8585
0.00 1.09 0.80 -0.69 10.05 -0.11 0.10 -0.02 8592
0.00 1.08 0.93 -0.61 9.99 -0.11 0.09 -0.03 8598
-0.00 1.07 0.91 -0.60 10.03 -0.11 0.08 -0.04 8604
0.02 1.08 0.89 -0.59 10.13 -0.11 0.08 -0.05 8610
-0.01 1.07 0.98 -0.57 10.03 -0.12 0.07 -0.06 8616
-0.00 1.08 1.00 -0.57 9.99 -0.11 0.06 -0.06 8624
0.00 1.15 1.01 -0.58 9.92 -0.11 0.05 -0.06 8630
-0.01 1.10 0.99 -0.55 9.90 -0.10 0.05 -0.07 8636
-0.02 1.12 1.04 -0.55 9.85 -0.09 0.03 -0.07 8642
-0.01 1.12 1.12 -0.57 9.83 -0.07 0.01 -0.06 8648
-0.01 1.09 1.10 -0.56 9.85 -0.05 -0.00 -0.05 8654
-0.01 1.09 1.12 -0.53 9.91 -0.04 -0.02 -0.05 8660
-0.01 1.09 1.06 -0.57 9.97 -0.03 -0.03 -0.04 8668
-0.01 1.06 1.05 -0.61 9.95 -0.03 -0.04 -0.04 8674
-0.01 1.07 1.01 -0.57 10.00 -0.02 -0.04 -0.04 8680
-0.02 1.09 1.02 -0.57 9.97 -0.02 -0.05 -0.04 8686
0.01 1.10 0.98 -0.58 10.10 -0.02 -0.04 -0.04 8692
-0.02 1.09 0.95 -0.60 10.06 -0.02 -0.03 -0.04 8698
-0.02 1.11 0.92 -0.59 10.11 -0.04 -0.01 -0.04 8706
0.01 1.07 0.89 -0.55 10.18 -0.05 -0.00 -0.04 8712
-0.01 1.07 0.97 -0.58 10.05 -0.05 0.01 -0.04 8718
-0.01 1.07 1.06 -0.54 9.88 -0.05 0.01 -0.04 8724
-0.00 1.07 1.12 -0.54 9.90 -0.04 -0.00 -0.04 8730
-0.00 1.05 1.13 -0.57 9.86 -0.03 -0.02 -0.03 8737
-0.02 1.05 1.09 -0.63 9.94 -0.02 -0.02 -0.03 8743
-0.01 1.06 1.04 -0.58 10.01 -0.01 -0.03 -0.02 8750
-0.01 1.04 1.04 -0.61 9.97 -0.01 -0.03 -0.02 8756
-0.01 1.04 1.03 -0.57 9.90 -0.00 -0.07 -0.02 8762
-0.01 1.05 1.04 -0.53 9.87 0.00 -0.05 -0.02 8768
0.00 1.06 1.07 -0.54 9.83 0.02 -0.07 -0.02 8774
-0.01 1.06 1.01 -0.54 9.82 0.05 -0.10 -0.02 8781
-0.01 1.06 1.06 -0.54 9.82 0.07 -0.14 -0.02 8787
-0.00 1.06 1.05 -0.50 9.80 0.10 -0.18 -0.03 8794
-0.01 1.03 1.05 -0.55 9.89 0.12 -0.22 -0.03 8800
-0.02 0.99 1.02 -0.61 10.00 0.13 -0.22 -0.02 8806
-0.00 1.01 0.95 -0.57 9.98 0.12 -0.20 -0.02 8812
0.00 0.97 0.91 -0.58 9.92 0.10 -0.18 -0.01 8818
-0.00 0.94 0.91 -0.63 10.02 0.09 -0.17 -0.01 8825
-0.01 0.93 0.92 -0.63 10.12 0.08 -0.16 -0.00 8832
-0.01 0.94 0.84 -0.63 10.02 0.08 -0.15 0.00 8838
-0.00 0.91 0.85 -0.61 10.04 0.07 -0.14 0.01 8844
-0.01 0.90 0.84 -0.60 10.08 0.06 -0.12 0.02 8850
-0.01 0.89 0.89 -0.60 10.05 0.06 -0.11 0.02 8857
-0.00 0.83 0.89 -0.64 10.16 0.06 -0.10 0.03 8863
0.00 0.81 0.85 -0.61 10.10 0.05 -0.09 0.03 8869
0.01 0.75 0.83 -0.60 10.14 0.05 -0.08 0.03 8876
0.00 0.70 0.81 -0.63 10.07 0.05 -0.07 0.04 8882
-0.00 0.64 0.80 -0.66 10.12 0.04 -0.05 0.04 8889
0.00 0.61 0.87 -0.62 9.94 0.05 -0.05 0.04 8895
0.01 0.56 0.84 -0.61 9.99 0.05 -0.05 0.04 8901
0.01 0.48 0.92 -0.66 10.01 0.06 -0.05 0.04 8907
0.04 0.41 0.68 0.01 10.39 0.07 -0.04 0.04 8913
0.03 0.35 0.92 -0.63 10.03 0.07 -0.04 0.04 8920
0.02 0.29 0.86 -0.59 10.00 0.08 -0.04 0.03 8927
0.04 0.23 0.84 -0.66 10.08 0.08 -0.03 0.03 8933
0.04 0.17 0.87 -0.69 10.08 0.09 -0.02 0.03 8939
0.03 0.06 0.96 -0.71 10.05 0.09 -0.02 0.03 8945
0.05 0.05 0.86 -0.72 10.12 0.10 -0.01 0.02 8951
0.03 0.01 0.92 -0.79 10.11 0.10 -0.01 0.02 8957
0.04 -0.00 0.97 -0.76 10.07 0.10 -0.00 0.01 8965
0.04 0.00 0.91 -1.15 10.36 0.11 0.02 0.01 8971
0.04 -0.00 0.91 -0.82 10.25 0.13 0.04 0.01 8977
0.03 -0.00 0.82 -0.95 10.39 0.16 0.08 0.02 8983
0.04 -0.00 0.60 -1.15 10.77 0.22 0.16 0.04 8989
0.03 -0.00 0.33 -1.20 12.39 0.37 0.46 0.08 8995
0.03 -0.00 0.37 -1.53 14.05 0.60 1.05 0.15 9001
0.02 -0.00 0.07 -1.48 15.25 0.91 1.73 0.22 9009
0.04 -0.00 0.11 -1.56 14.80 1.14 2.07 0.29 9015
0.04 -0.00 -0.28 -2.00 13.98 1.32 2.24 0.38 9021
0.04 -0.00 -0.95 -2.62 13.63 1.43 2.22 0.53 9027
0.04 -0.00 -0.98 -2.33 13.71 1.51 2.13 0.71 9033
0.05 -0.00 -0.50 -2.29 13.72 1.57 2.04 0.87 9039
0.04 -0.00 -0.54 -1.97 13.66 1.60 2.01 0.96 9046
0.04 -0.00 0.07 -1.58 13.53 1.61 2.00 1.00 9053
0.05 -0.01 0.42 -1.14 13.22 1.61 2.05 1.00 9059
0.04 -0.00 0.31 -1.47 12.59 1.60 2.09 0.95 9065
0.04 -0.00 -1.04 -1.37 12.54 1.60 2.13 0.84 9071
0.04 -0.00 -4.22 -1.13 12.42 1.58 2.00 0.71 9077
0.04 -0.00 -7.83 0.27 12.59 1.48 1.50 0.45 9083
0.05 -0.00 -9.13 1.67 12.80 1.27 0.65 0.20 9090
0.04 -0.00 -9.14 2.56 12.69 0.97 -0.29 0.04 9097
0.06 -0.01 -7.82 2.40 12.84 0.72 -0.97 -0.15 9103
0.04 -0.00 -5.90 1.54 11.71 0.60 -1.32 -0.39 9109
0.03 -0.00 -4.82 1.25 10.26 0.54 -1.45 -0.69 9115
0.05 -0.01 -4.54 1.21 9.52 0.55 -1.52 -0.99 9121
0.04 -0.00 -4.36 1.34 9.41 0.58 -1.64 -1.25 9127
0.04 -0.00 -4.06 1.49 9.40 0.60 -1.82 -1.42 9134
0.03 -0.00 -3.13 1.65 9.74 0.61 -2.01 -1.56 9141
0.05 -0.00 -1.88 1.98 10.09 0.61 -2.15 -1.63 9147
0.04 -0.00 -0.51 2.38 10.11 0.58 -2.22 -1.65 9153
0.03 -0.00 0.70 2.85 9.98 0.55 -2.22 -1.62 9159
0.05 0.00 1.96 3.29 10.08 0.49 -2.17 -1.55 9165
0.04 -0.00 3.04 3.77 10.75 0.41 -2.04 -1.43 9171
0.04 -0.00 4.13 3.99 11.03 0.29 -1.84 -1.26 9178
0.04 -0.00 4.94 4.11 11.12 0.14 -1.60 -1.08 9185
0.04 -0.00 5.49 4.05 11.14 -0.05 -1.36 -0.85 9191
0.04 -0.00 5.57 3.67 10.74 -0.25 -1.19 -0.59 9197
0.03 -0.00 5.41 3.15 10.19 -0.41 -1.08 -0.32 9203
0.05 -0.00 5.23 2.38 9.56 -0.52 -1.03 -0.06 9209
0.03 -0.00 5.04 1.60 8.74 -0.55 -1.01 0.18 9216
0.03 -0.00 4.92 1.02 8.14 -0.53 -0.99 0.40 9222
0.03 -0.00 4.91 0.03 7.78 -0.47 -0.96 0.60 9229
0.04 -0.00 4.80 0.41 7.73 -0.38 -0.90 0.71 9235
0.04 -0.00 4.56 0.24 7.68 -0.29 -0.82 0.82 9241
0.03 -0.00 4.09 0.13 7.63 -0.20 -0.74 0.89 9247
0.02 -0.00 3.62 0.00 7.60 -0.14 -0.68 0.91 9253
0.03 0.01 3.21 -0.17 7.62 -0.07 -0.65 0.90 9260
0.03 -0.00 2.92 -0.32 7.86 -0.00 -0.64 0.86 9266
0.03 -0.00 2.98 -0.46 9.07 0.07 -0.63 0.80 9272
0.03 -0.00 3.28 -0.45 9.35 0.12 -0.60 0.74 9278
0.03 -0.00 3.78 -0.22 10.41 0.11 -0.50 0.70 9284
0.03 -0.00 4.46 0.09 11.50 0.02 -0.33 0.68 9291
0.03 -0.00 4.59 0.11 11.83 -0.09 -0.13 0.67 9297
0.02 -0.00 4.33 -0.10 11.70 -0.27 0.00 0.69 9304
0.03 -0.00 3.62 -0.46 11.31 -0.43 0.06 0.72 9310
0.03 -0.00 2.91 -0.90 10.75 -0.55 0.02 0.76 9316
0.02 -0.00 2.41 -1.27 9.93 -0.60 -0.09 0.79 9322
0.03 0.01 2.34 -1.39 9.22 -0.62 -0.22 0.79 9328
0.03 -0.00 2.62 -1.35 8.93 -0.61 -0.31 0.78 9334
0.03 -0.00 2.99 -1.31 8.90 -0.59 -0.31 0.74 9341
0.03 -0.00 3.20 -1.16 8.99 -0.57 -0.26 0.70 9348
0.03 -0.00 3.15 -1.00 8.99 -0.57 -0.17 0.67 9354
0.03 -0.00 2.89 -1.00 8.98 -0.58 -0.10 0.64 9360
0.03 -0.00 2.62 -1.13 8.95 -0.58 -0.09 0.61 9366
0.03 -0.00 2.39 -1.28 8.96 -0.58 -0.14 0.60 9372
0.03 -0.00 2.40 -1.36 9.01 -0.57 -0.20 0.59 9378
0.03 -0.00 2.53 -1.37 9.15 -0.57 -0.23 0.58 9384
0.03 -0.00 2.74 -1.42 9.41 -0.59 -0.24 0.57 9391
0.02 -0.00 3.00 -1.33 9.75 -0.62 -0.22 0.56 9398
0.04 -0.00 3.18 -1.37 10.16 -0.67 -0.15 0.56 9404
0.04 -0.00 3.11 -1.51 10.28 -0.73 -0.08 0.55 9410
0.02 -0.00 2.92 -1.71 10.14 -0.80 -0.05 0.55 9416
0.04 0.00 2.76 -1.90 9.86 -0.86 -0.08 0.53 9422
0.04 -0.00 2.62 -2.18 9.44 -0.89 -0.11 0.50 9428
0.03 -0.00 2.69 -2.43 9.23 -0.90 -0.14 0.45 9435
0.03 -0.00 2.85 -2.74 9.02 -0.87 -0.15 0.35 9441
0.04 0.00 3.08 -2.95 9.05 -0.82 -0.12 0.27 9448
0.03 -0.00 3.35 -2.93 9.34 -0.77 -0.06 0.12 9454
0.03 -0.00 3.31 -2.71 9.69 -0.74 0.04 -0.05 9460
0.03 -0.00 2.97 -2.33 9.94 -0.75 0.15 -0.24 9466
0.03 -0.00 2.51 -2.07 10.06 -0.79 0.24 -0.43 9473
0.04 -0.00 1.96 -2.05 10.15 -0.86 0.30 -0.63 9479
0.02 -0.00 1.28 -2.20 10.18 -0.94 0.34 -0.81 9485
0.03 0.01 0.67 -2.61 9.85 -1.00 0.34 -0.98 9492
0.04 -0.00 0.40 -3.28 9.52 -1.02 0.30 -1.11 9498
0.03 -0.00 0.42 -3.99 9.06 -1.00 0.25 -1.28 9504
0.02 -0.00 0.74 -4.62 8.81 -0.95 0.22 -1.45 9510
0.03 0.01 1.32 -4.96 8.94 -0.84 0.25 -1.60 9517
0.04 -0.00 2.44 -5.08 9.28 -0.80 0.34 -1.70 9523
0.04 -0.00 2.23 -4.95 9.55 -0.76 0.45 -1.74 9529
0.03 -0.00 2.41 -4.67 9.45 -0.75 0.54 -1.71 9535
0.03 0.00 2.52 -4.47 9.18 -0.76 0.57 -1.61 9541
0.04 -0.00 2.76 -4.28 8.98 -0.77 0.53 -1.45 9548
0.03 -0.00 3.09 -4.20 8.81 -0.75 0.49 -1.24 9554
0.03 -0.00 3.35 -4.24 7.74 -0.72 0.45 -1.00 9561
0.04 -0.00 3.58 -4.41 7.14 -0.65 0.44 -0.76 9567
0.04 -0.00 3.96 -4.77 6.57 -0.55 0.46 -0.48 9573
0.03 -0.00 4.43 -5.08 5.87 -0.40 0.52 -0.28 9579
0.03 -0.00 5.37 -8.46 4.23 -0.20 0.60 0.02 9585
0.03 -0.00 -7.00 -18.98 35.82 1.82 1.08 0.70 9591
0.04 0.00 -4.60 -11.53 -3.18 1.94 0.02 0.95 9598
0.03 -0.00 -12.96 -41.76 10.54 2.50 -2.11 0.89 9605
0.04 0.05 -6.88 0.55 7.74 0.08 -0.50 0.32 9611
0.04 0.14 -3.22 -11.81 12.01 -0.22 0.09 0.24 9617
0.04 0.16 -1.24 -1.64 9.97 -0.27 -0.00 -0.07 9623
0.05 0.16 1.58 0.41 9.85 -0.08 0.06 -0.03 9629
0.04 0.16 1.06 -0.39 9.72 -0.08 0.06 0.10 9636
0.03 0.16 0.90 -0.24 10.24 -0.12 0.08 0.10 9643
0.05 0.20 0.74 -0.29 10.33 -0.10 0.10 0.07 9649
0.04 0.21 0.59 -0.52 10.32 -0.05 0.09 0.07 9655
0.03 0.23 0.88 -0.73 10.25 -0.04 0.08 0.07 9661
0.04 0.28 0.96 -0.82 10.04 -0.03 0.07 0.07 9668
0.04 0.30 0.75 -0.83 9.98 -0.04 0.05 0.07 9674
0.03 0.31 0.59 -0.94 9.84 -0.06 0.06 0.07 9680
0.04 0.32 0.69 -1.01 9.95 -0.08 0.05 0.07 9687
0.04 0.33 0.72 -0.99 9.97 -0.09 0.05 0.07 9693
0.03 0.38 0.77 -0.84 10.13 -0.09 0.04 0.07 9699
0.03 0.47 0.86 -0.76 10.10 -0.08 0.04 0.07 9705
0.04 0.49 0.87 -0.67 10.13 -0.07 0.03 0.07 9712
0.02 0.58 0.85 -0.60 10.14 -0.06 0.02 0.07 9718
0.03 0.58 0.81 -0.69 10.05 -0.05 0.01 0.06 9724
0.03 0.57 0.84 -0.70 10.03 -0.04 -0.00 0.06 9731
0.03 0.59 0.75 -0.70 10.09 -0.04 -0.01 0.05 9737
0.04 0.56 0.73 -0.69 10.03 -0.03 -0.02 0.05 9744
0.05 0.60 0.70 -0.73 10.03 -0.03 -0.02 0.05 9750
0.04 0.59 0.74 -0.76 9.98 -0.02 -0.02 0.05 9756
0.04 0.62 0.84 -0.76 9.96 -0.02 -0.02 0.05 9762
0.05 0.60 0.77 -0.71 10.01 -0.02 -0.03 0.05 9768
0.06 0.59 0.80 -0.68 9.88 -0.01 -0.03 0.05 9775
0.03 0.58 0.75 -0.68 10.00 -0.01 -0.03 0.05 9782
0.05 0.57 0.79 -0.67 10.00 -0.00 -0.03 0.05 9788
0.06 0.55 0.78 -0.74 9.97 -0.00 -0.03 0.04 9794
0.04 0.54 0.73 -0.72 9.98 -0.00 -0.03 0.04 9800
0.05 0.55 0.74 -0.71 9.96 -0.01 -0.03 0.04 9806
0.06 0.54 0.71 -0.74 10.00 -0.01 -0.02 0.04 9812
0.04 0.51 0.72 -0.75 10.04 -0.00 -0.02 0.04 9819
0.06 0.51 0.71 -0.73 10.06 -0.00 -0.01 0.04 9826
0.07 0.51 0.76 -0.68 10.00 0.00 -0.01 0.04 9832
0.05 0.48 0.76 -0.68 10.05 -0.00 -0.01 0.04 9838
0.06 0.47 0.75 -0.77 9.98 0.00 -0.01 0.04 9844
0.07 0.49 0.76 -0.73 10.00 0.00 -0.01 0.04 9850
0.06 0.48 0.73 -0.71 10.02 0.00 -0.00 0.04 9858
0.06 0.45 0.74 -0.76 10.03 0.00 -0.00 0.04 9864
0.08 0.45 0.74 -0.68 10.01 0.00 -0.00 0.04 9870
0.07 0.43 0.76 -0.72 9.99 0.01 -0.00 0.04 9876
0.06 0.44 0.78 -0.75 9.99 0.00 0.00 0.04 9882
0.06 0.45 0.76 -0.77 9.98 0.01 0.00 0.04 9888
0.08 0.46 0.76 -0.76 10.02 0.01 0.00 0.04 9894
0.07 0.44 0.79 -0.75 10.01 0.01 0.01 0.03 9902
0.07 0.44 0.78 -0.72 9.94 0.00 0.01 0.04 9908
0.08 0.44 0.78 -0.74 9.98 0.00 0.01 0.03 9914
0.07 0.42 0.79 -0.74 9.98 0.00 0.01 0.04 9920
0.07 0.43 0.81 -0.76 10.00 0.00 0.01 0.04 9926
0.07 0.44 0.78 -0.74 9.97 -0.00 0.01 0.03 9932
0.07 0.44 0.80 -0.74 9.98 0.00 0.01 0.03 9938
0.07 0.44 0.78 -0.71 10.00 -0.00 0.01 0.04 9945
0.06 0.43 0.76 -0.74 9.97 0.00 0.01 0.04 9952
0.08 0.45 0.79 -0.74 9.98 -0.00 0.02 0.04 9958
0.07 0.43 0.82 -0.75 9.96 0.00 0.02 0.04 9964
0.07 0.41 0.80 -0.73 10.01 0.00 0.02 0.04 9970
0.07 0.42 0.80 -0.76 10.00 -0.00 0.02 0.04 9976
0.08 0.44 0.79 -0.73 9.98 -0.01 0.02 0.04 9982
0.06 0.42 0.80 -0.75 10.01 -0.00 0.02 0.04 9990
0.06 0.42 0.81 -0.73 10.03 -0.01 0.02 0.04 9996
0.07 0.42 0.81 -0.74 9.97 -0.01 0.02 0.04 10002
0.06 0.39 0.81 -0.73 9.97 -0.01 0.02 0.04 10008
0.05 0.38 0.85 -0.72 9.97 -0.01 0.02 0.04 10014
0.08 0.36 0.85 -0.75 9.95 -0.01 0.01 0.04 10020
0.05 0.37 0.89 -0.72 9.99 -0.01 0.01 0.03 10028
0.05 0.38 0.88 -0.76 9.97 -0.01 0.01 0.04 10034
0.07 0.39 0.87 -0.72 9.98 -0.01 0.01 0.03 10040
0.06 0.40 0.89 -0.76 10.00 -0.01 0.01 0.03 10046
0.04 0.37 0.86 -0.74 9.95 -0.01 0.00 0.03 10052
0.05 0.38 0.85 -0.71 9.97 -0.01 0.00 0.03 10058
0.05 0.38 0.90 -0.73 9.97 -0.01 -0.00 0.03 10065
0.04 0.34 0.87 -0.75 9.99 -0.01 -0.00 0.02 10072
0.07 0.30 0.87 -0.73 9.98 -0.01 -0.01 0.03 10078
0.05 0.28 0.87 -0.71 9.95 -0.01 -0.01 0.03 10084
0.03 0.26 0.87 -0.71 9.93 -0.01 -0.01 0.03 10090
0.05 0.27 0.90 -0.71 9.93 -0.01 -0.01 0.02 10097
0.04 0.24 0.88 -0.73 9.97 -0.00 -0.01 0.02 10103
0.03 0.23 0.87 -0.77 9.97 -0.01 -0.01 0.02 10109
0.04 0.24 0.89 -0.75 10.01 -0.01 -0.02 0.02 10116
0.03 0.22 0.87 -0.78 9.97 -0.01 -0.01 0.02 10122
0.03 0.19 0.88 -0.75 9.98 -0.00 -0.02 0.03 10128
0.05 0.19 0.87 -0.74 9.93 -0.01 -0.02 0.02 10135
0.04 0.23 0.88 -0.72 9.99 -0.01 -0.01 0.02 10141
0.04 0.20 0.88 -0.73 9.98 -0.01 -0.01 0.02 10147
0.05 0.24 0.90 -0.73 9.96 -0.01 -0.01 0.02 10153
0.05 0.20 0.86 -0.73 9.98 -0.01 -0.02 0.02 10160
0.05 0.15 0.90 -0.76 9.99 -0.01 -0.02 0.03 10167
0.06 0.16 0.90 -0.75 9.99 -0.01 -0.02 0.03 10173
0.05 0.19 0.93 -0.76 9.95 -0.01 -0.02 0.02 10179
0.05 0.14 0.94 -0.79 9.97 -0.01 -0.03 0.02 10185
0.05 0.14 0.92 -0.77 9.98 -0.01 -0.03 0.02 10191
0.06 0.12 0.91 -0.72 9.94 -0.01 -0.03 0.02 10198
0.06 0.13 0.96 -0.78 9.95 -0.02 -0.04 0.01 10205
0.05 0.16 0.95 -0.75 9.95 -0.02 -0.04 0.01 10211
0.05 0.15 0.94 -0.75 9.99 -0.01 -0.04 0.01 10217
0.06 0.12 0.91 -0.78 9.98 -0.01 -0.04 0.01 10223
0.05 0.17 0.90 -0.74 10.01 -0.01 -0.03 0.01 10229
0.05 0.15 0.93 -0.77 10.00 -0.01 -0.03 0.02 10236
0.05 0.10 0.90 -0.75 10.02 -0.01 -0.03 0.02 10243
0.05 0.10 0.91 -0.80 10.03 -0.01 -0.03 0.02 10249
0.05 0.11 0.93 -0.74 10.03 -0.01 -0.02 0.02 10255
0.05 0.12 0.91 -0.76 10.03 -0.01 -0.02 0.02 10261
0.07 0.11 0.93 -0.77 9.99 -0.01 -0.02 0.03 10268
0.05 0.11 0.90 -0.74 10.00 -0.01 -0.02 0.02 10274
0.05 0.06 0.90 -0.76 9.99 -0.01 -0.02 0.02 10280
0.07 0.09 0.87 -0.76 9.98 -0.01 -0.02 0.02 10287
0.06 0.04 0.92 -0.78 9.96 -0.01 -0.02 0.03 10293
0.04 0.05 0.91 -0.77 10.02 -0.01 -0.02 0.03 10300
0.07 0.06 0.91 -0.78 9.99 -0.01 -0.02 0.03 10306
0.06 0.03 0.92 -0.76 10.00 -0.01 -0.02 0.03 10312
0.05 0.05 0.93 -0.76 10.00 -0.01 -0.02 0.03 10318
0.07 0.07 0.91 -0.79 10.02 -0.01 -0.02 0.03 10324
0.06 0.06 0.89 -0.78 10.03 -0.01 -0.01 0.04 10332
0.06 0.09 0.90 -0.76 9.99 -0.01 -0.00 0.04 10338
0.06 0.08 0.94 -0.72 10.07 -0.01 0.00 0.04 10344
0.05 0.08 1.00 -0.68 10.06 -0.00 0.01 0.04 10350
0.05 0.08 0.97 -0.74 10.04 0.01 0.02 0.05 10356
0.06 0.03 0.97 -0.80 10.06 0.02 0.03 0.05 10363
0.05 0.00 1.10 -0.76 10.06 0.03 0.03 0.04 10370
0.06 0.00 1.05 -0.77 10.07 0.04 0.03 0.04 10376
0.05 -0.01 1.04 -0.82 10.10 0.05 0.03 0.03 10382
0.04 -0.00 1.16 -0.84 10.15 0.06 0.03 0.02 10388
0.06 -0.01 1.05 -0.85 10.09 0.08 0.03 0.01 10394
0.06 -0.01 1.01 -0.77 10.06 0.09 0.01 -0.00 10401
0.05 -0.01 1.21 -0.82 10.18 0.12 0.02 -0.01 10407
0.05 -0.00 1.13 -0.72 10.19 0.14 0.02 -0.03 10414
0.05 -0.01 1.28 -0.72 10.32 0.18 0.04 -0.06 10420
0.05 -0.01 0.96 -0.28 10.86 0.25 0.08 -0.11 10426
0.05 -0.01 1.18 -0.34 11.59 0.44 0.24 -0.15 10433
0.04 -0.00 1.04 -0.89 13.08 0.77 0.75 -0.17 10439
0.04 -0.00 1.08 -1.07 14.15 1.13 1.35 -0.18 10445
0.04 0.00 1.13 -1.03 13.46 1.26 1.75 -0.18 10451
0.04 -0.00 0.88 -1.28 13.52 1.19 1.91 -0.17 10458
0.04 -0.00 1.08 -1.45 12.96 1.12 2.00 -0.13 10465
0.05 -0.01 0.98 -1.59 12.87 1.08 2.09 -0.08 10471
0.04 -0.00 1.18 -1.88 12.86 1.05 2.20 -0.02 10477
0.03 -0.00 1.19 -1.95 12.83 1.01 2.27 0.03 10483
0.05 -0.01 0.96 -2.29 12.93 0.97 2.37 0.08 10489
0.04 -0.00 0.88 -2.39 12.84 0.93 2.46 0.13 10497
0.05 -0.00 0.81 -2.37 12.48 0.92 2.53 0.17 10503
0.06 -0.01 0.43 -2.42 12.17 0.92 2.59 0.22 10509
0.04 -0.00 0.22 -2.62 11.82 0.97 2.59 0.29 10515
0.04 -0.00 -0.69 -2.98 11.29 1.05 2.55 0.34 10521
0.05 -0.01 -2.38 -3.05 11.12 1.13 2.44 0.36 10528
0.04 -0.00 -5.19 -2.60 11.11 1.19 2.10 0.27 10534
0.04 -0.00 -8.32 -1.43 11.21 1.19 1.54 0.10 10541
0.05 -0.00 -11.92 -0.38 11.76 1.07 0.78 -0.12 10547
0.04 -0.00 -11.46 1.30 12.49 0.84 -0.15 -0.42 10553
0.05 -0.00 -8.96 1.98 12.86 0.61 -0.96 -0.63 10560
0.04 -0.00 -6.91 2.16 13.27 0.39 -1.41 -0.82 10566
0.04 -0.00 -4.42 1.77 12.55 0.27 -1.58 -1.05 10572
0.05 -0.01 -2.76 1.42 11.14 0.22 -1.68 -1.26 10578
0.04 -0.00 -1.27 1.53 10.59 0.23 -1.75 -1.41 10586
0.05 -0.00 -1.02 1.46 10.19 0.26 -1.84 -1.51 10592
0.03 -0.00 -0.27 1.50 9.86 0.29 -1.94 -1.53 10598
0.03 -0.00 0.44 1.50 9.87 0.33 -2.04 -1.47 10604
0.03 -0.00 1.19 1.54 9.99 0.37 -2.12 -1.44 10610
0.05 -0.01 1.91 1.54 10.34 0.41 -2.18 -1.35 10617
0.04 -0.00 2.94 1.70 11.11 0.43 -2.20 -1.24 10624
0.04 -0.00 3.96 1.95 11.79 0.41 -2.14 -1.11 10630
0.04 -0.00 4.77 2.12 12.15 0.35 -2.02 -0.95 10636
0.05 -0.00 5.31 2.14 12.23 0.26 -1.84 -0.79 10642
0.04 0.00 5.51 1.85 11.62 0.14 -1.67 -0.61 10649
0.05 -0.00 5.35 1.59 10.77 0.05 -1.50 -0.44 10655
0.02 -0.00 5.19 1.44 10.05 -0.00 -1.36 -0.26 10661
0.04 -0.00 4.96 1.33 9.27 -0.02 -1.26 -0.09 10668
0.04 -0.00 4.68 1.35 8.79 0.00 -1.15 0.06 10674
0.04 -0.00 4.56 1.60 8.08 0.04 -1.09 0.21 10680
0.04 -0.00 4.42 1.82 7.81 0.09 -1.00 0.31 10687
0.06 -0.01 4.06 2.01 7.69 0.12 -0.88 0.41 10693
0.03 -0.00 3.60 2.13 7.95 0.14 -0.76 0.51 10699
0.02 -0.00 3.19 2.22 8.58 0.13 -0.66 0.60 10705
0.04 -0.00 2.69 2.16 9.00 0.11 -0.58 0.68 10712
0.03 -0.00 2.13 2.08 9.25 0.06 -0.57 0.76 10718
0.03 -0.00 1.23 1.91 9.44 -0.01 -0.60 0.81 10724
0.03 -0.00 1.69 1.68 9.64 -0.09 -0.68 0.83 10730
0.04 -0.00 1.94 1.48 10.07 -0.18 -0.76 0.85 10737
0.03 -0.00 2.27 1.22 10.04 -0.28 -0.80 0.85 10743
0.02 -0.00 2.53 0.94 9.88 -0.37 -0.80 0.84 10749
0.03 -0.00 2.76 0.61 9.60 -0.45 -0.79 0.81 10756
0.03 -0.00 2.91 0.26 9.46 -0.51 -0.77 0.77 10762
0.03 -0.00 3.09 0.09 9.48 -0.55 -0.73 0.73 10768
0.03 0.00 3.25 -0.02 9.35 -0.59 -0.69 0.69 10775
0.03 -0.00 3.30 -0.09 9.17 -0.63 -0.66 0.65 10781
0.03 -0.00 3.35 -0.21 8.97 -0.65 -0.63 0.61 10787
0.03 -0.00 3.42 -0.31 8.82 -0.66 -0.61 0.58 10793
0.04 -0.00 3.48 -0.43 7.99 -0.65 -0.60 0.54 10800
0.03 -0.00 3.55 -0.69 8.45 -0.63 -0.59 0.50 10806
0.02 -0.00 3.65 -0.93 8.39 -0.59 -0.57 0.46 10812
0.03 -0.00 3.80 -1.10 8.63 -0.54 -0.55 0.42 10819
0.03 -0.00 4.07 -1.14 9.20 -0.49 -0.52 0.39 10825
0.02 -0.00 4.45 -0.97 9.94 -0.47 -0.46 0.37 10831
0.03 -0.00 4.62 -0.80 10.48 -0.49 -0.39 0.38 10838
0.03 -0.00 4.70 -0.74 10.75 -0.55 -0.29 0.40 10844
0.03 -0.00 4.85 -0.68 10.92 -0.63 -0.20 0.43 10851
0.03 0.00 4.85 -0.77 10.98 -0.73 -0.10 0.48 10857
0.02 -0.00 4.68 -1.05 10.71 -0.82 -0.02 0.54 10863
0.02 -0.00 4.42 -1.37 10.41 -0.89 0.04 0.59 10869
0.02 -0.00 4.00 -1.70 9.86 -0.92 0.07 0.65 10875
0.03 -0.00 3.51 -2.01 9.51 -0.90 0.08 0.69 10882
0.02 -0.00 3.26 -2.19 9.44 -0.85 0.07 0.72 10889
0.02 -0.00 3.13 -2.25 9.32 -0.80 0.08 0.72 10895
0.05 -0.00 3.02 -2.32 8.91 -0.74 0.11 0.71 10901
0.02 -0.00 2.94 -2.58 8.20 -0.67 0.20 0.67 10907
0.01 -0.00 2.88 -2.78 7.98 -0.58 0.25 0.59 10913
0.03 -0.00 2.88 -2.76 8.47 -0.46 0.38 0.51 10919
0.03 -0.00 2.82 -2.40 9.23 -0.36 0.54 0.41 10926
0.02 -0.00 2.45 -1.75 10.02 -0.33 0.68 0.32 10933
0.03 -0.00 1.83 -1.17 10.84 -0.37 0.78 0.25 10939
0.03 -0.00 1.06 -0.91 11.41 -0.47 0.82 0.19 10945
0.03 -0.00 0.17 -0.87 11.41 -0.61 0.77 0.14 10951
0.02 -0.00 -0.57 -1.03 10.98 -0.74 0.64 0.09 10957
0.02 -0.00 -1.08 -1.51 10.21 -0.85 0.46 0.00 10964
0.02 -0.00 -1.17 -2.23 9.32 -0.90 0.27 -0.14 10971
0.02 0.00 -0.81 -3.25 8.46 -0.88 0.18 -0.35 10977
0.03 -0.00 0.04 -4.22 8.39 -0.79 0.16 -0.64 10983
0.04 -0.00 1.24 -4.91 8.83 -0.66 0.26 -0.92 10989
0.04 -0.00 2.38 -5.29 9.57 -0.55 0.46 -1.28 10995
0.05 -0.00 3.16 -5.38 10.35 -0.49 0.76 -1.60 11002
0.03 -0.00 3.35 -5.17 10.78 -0.50 1.05 -1.83 11009
0.04 -0.00 2.99 -4.98 10.64 -0.55 1.24 -1.96 11015
0.04 -0.00 2.43 -4.92 10.25 -0.63 1.29 -1.99 11021
0.04 -0.00 2.25 -4.65 10.10 -0.70 1.17 -1.92 11027
0.04 -0.00 2.46 -4.00 9.25 -0.75 0.91 -1.77 11034
0.04 -0.00 3.33 -3.53 8.78 -0.83 0.60 -1.53 11040
0.04 -0.00 4.23 -4.04 7.54 -0.90 0.31 -1.26 11046
0.03 -0.00 2.19 -23.00 21.18 -0.46 -1.12 -1.26 11053
0.04 -0.00 2.93 -5.97 5.10 0.17 -0.89 -1.19 11059
0.03 -0.00 4.27 -22.01 2.86 0.40 -0.66 -1.11 11065
0.04 -0.00 -4.71 -32.43 8.96 -0.14 -2.18 -1.38 11072
0.04 0.01 -4.32 -40.80 16.37 -0.46 -2.14 -1.42 11078
0.03 0.05 -4.44 -26.39 9.41 -0.24 -0.91 -0.45 11084
0.04 0.04 0.84 -5.63 11.74 -0.21 -0.48 0.14 11091
0.04 0.04 1.03 -0.05 9.88 -0.24 -0.09 0.16 11098
0.03 0.11 -0.43 1.60 10.55 -0.20 -0.04 0.16 11104
0.05 0.14 -0.36 0.62 10.18 -0.17 0.00 0.07 11110
0.03 0.16 0.75 0.01 10.80 -0.13 0.03 0.07 11116
0.05 0.25 1.43 -0.99 10.59 -0.08 0.01 0.10 11123
0.04 0.26 1.28 -0.71 10.50 -0.04 -0.03 0.10 11129
0.06 0.31 0.67 -0.59 10.24 -0.01 -0.03 0.08 11136
0.06 0.27 0.54 -0.79 9.87 -0.02 -0.02 0.06 11142
0.06 0.26 0.60 -0.94 9.88 -0.03 -0.01 0.06 11149
0.06 0.26 0.62 -0.86 9.92 -0.04 -0.01 0.06 11155
0.07 0.26 0.61 -0.77 10.09 -0.04 -0.00 0.07 11161
0.07 0.28 0.70 -0.76 10.25 -0.04 0.00 0.07 11167
0.07 0.32 0.73 -0.75 10.04 -0.03 0.01 0.07 11173
0.08 0.31 0.80 -0.77 10.15 -0.03 0.01 0.06 11181
0.07 0.30 0.83 -0.78 10.08 -0.02 0.01 0.05 11187
0.10 0.30 0.78 -0.76 10.10 -0.02 0.00 0.05 11193
0.09 0.29 0.74 -0.80 10.01 -0.02 -0.00 0.05 11199
0.09 0.28 0.70 -0.77 10.07 -0.01 -0.00 0.05 11206
0.09 0.27 0.70 -0.79 10.07 -0.01 -0.01 0.05 11212
0.09 0.26 0.74 -0.75 10.08 -0.01 -0.01 0.05 11218
0.09 0.30 0.73 -0.80 9.98 -0.01 -0.01 0.05 11225
0.11 0.29 0.69 -0.72 10.00 -0.01 -0.01 0.05 11231
0.10 0.27 0.74 -0.76 10.07 -0.00 -0.01 0.05 11238
0.11 0.28 0.68 -0.74 9.96 -0.00 -0.00 0.04 11244
0.11 0.27 0.74 -0.76 10.07 -0.00 -0.00 0.04 11250
0.10 0.26 0.73 -0.72 10.03 -0.00 -0.00 0.04 11256
0.12 0.26 0.73 -0.75 9.99 0.00 0.00 0.04 11262
0.11 0.26 0.75 -0.77 9.98 0.00 0.00 0.04 11270
0.11 0.26 0.72 -0.80 10.02 -0.00 0.00 0.04 11276
0.11 0.26 0.71 -0.79 10.00 0.00 0.00 0.04 11282
0.12 0.26 0.74 -0.76 10.01 -0.03 0.01 0.04 11288
0.12 0.26 0.70 -0.75 10.03 -0.03 0.01 0.04 11294
0.13 0.25 0.71 -0.78 9.99 0.00 0.01 0.04 11301
0.13 0.25 0.74 -0.76 9.97 0.00 0.02 0.04 11308
0.12 0.26 0.77 -0.75 10.01 0.00 0.02 0.04 11314
0.13 0.25 0.78 -0.79 10.04 0.01 0.02 0.04 11320
0.12 0.25 0.78 -0.77 10.04 0.00 0.02 0.04 11326
0.12 0.27 0.81 -0.75 9.92 0.00 0.02 0.04 11333
0.12 0.26 0.80 -0.77 10.03 -0.00 0.02 0.04 11339
0.11 0.26 0.79 -0.75 9.96 -0.00 0.02 0.04 11345
0.11 0.29 0.80 -0.76 9.97 -0.00 0.02 0.04 11352
0.11 0.28 0.77 -0.78 10.01 -0.01 0.01 0.04 11358
0.09 0.28 0.79 -0.80 10.01 -0.01 0.02 0.04 11365
0.12 0.29 0.80 -0.74 9.99 -0.01 0.01 0.04 11371
0.10 0.27 0.77 -0.78 10.03 -0.01 0.00 0.04 11377
0.09 0.28 0.78 -0.74 9.98 -0.02 0.00 0.04 11383
0.12 0.32 0.79 -0.76 9.99 -0.02 0.00 0.04 11389
0.10 0.32 0.78 -0.75 10.02 -0.02 0.00 0.04 11397
0.09 0.37 0.80 -0.74 9.94 -0.03 -0.00 0.04 11403
0.10 0.35 0.79 -0.73 9.97 -0.03 -0.00 0.04 11409
0.07 0.38 0.81 -0.71 9.97 -0.03 -0.00 0.03 11415
0.06 0.40 0.79 -0.73 10.00 -0.03 -0.00 0.03 11421
0.08 0.39 0.81 -0.73 9.97 -0.02 -0.00 0.03 11428
0.06 0.39 0.79 -0.76 9.92 -0.03 -0.00 0.03 11435
0.05 0.44 0.81 -0.70 9.97 -0.02 0.00 0.03 11441
0.07 0.45 0.81 -0.70 9.99 -0.02 0.01 0.03 11447
0.05 0.43 0.80 -0.74 9.93 -0.02 0.01 0.03 11453
0.04 0.46 0.85 -0.72 9.98 -0.02 0.01 0.03 11460
0.06 0.48 0.80 -0.74 10.01 -0.02 0.02 0.03 11466
0.04 0.47 0.82 -0.77 10.00 -0.02 0.02 0.03 11472
0.04 0.47 0.79 -0.77 10.01 -0.03 0.02 0.04 11479
0.03 0.50 0.80 -0.77 10.00 -0.03 0.03 0.03 11485
0.04 0.48 0.86 -0.74 10.03 -0.03 0.04 0.03 11492
0.02 0.50 0.81 -0.76 10.04 -0.03 0.05 0.04 11498
0.03 0.49 0.89 -0.73 10.01 -0.03 0.05 0.03 11504
0.02 0.48 0.88 -0.74 9.99 -0.04 0.05 0.03 11510
0.03 0.48 0.86 -0.72 9.92 -0.04 0.05 0.03 11516
0.03 0.47 0.89 -0.77 9.98 -0.03 0.05 0.03 11524
0.01 0.47 0.91 -0.75 9.99 -0.03 0.04 0.03 11530
0.03 0.48 0.91 -0.73 9.91 -0.03 0.03 0.02 11536
0.03 0.45 0.91 -0.74 9.95 -0.03 0.02 0.02 11542
0.02 0.45 0.93 -0.76 9.97 -0.03 0.02 0.02 11548
0.04 0.50 0.98 -0.73 9.91 -0.03 0.01 0.01 11555
0.02 0.49 0.97 -0.77 9.95 -0.02 -0.01 0.01 11561
0.02 0.45 0.95 -0.71 9.96 -0.02 -0.01 0.01 11568
0.02 0.50 0.93 -0.75 10.02 -0.02 -0.02 0.01 11574
0.02 0.48 0.93 -0.74 10.00 -0.02 -0.02 0.01 11580
0.02 0.50 0.96 -0.74 9.95 -0.02 -0.03 0.01 11587
0.04 0.47 0.91 -0.73 9.99 -0.02 -0.04 0.01 11593
0.02 0.48 0.93 -0.74 9.99 -0.02 -0.04 0.01 11599
0.02 0.46 0.92 -0.71 9.93 -0.02 -0.04 0.01 11606
0.04 0.45 0.91 -0.74 10.02 -0.02 -0.04 0.01 11612
0.03 0.46 0.90 -0.71 10.05 -0.01 -0.03 0.01 11619
0.03 0.46 0.92 -0.73 9.98 -0.01 -0.03 0.01 11625
0.03 0.46 0.91 -0.71 9.94 -0.01 -0.03 0.01 11631
0.03 0.47 0.94 -0.74 9.97 -0.01 -0.02 0.01 11637
0.02 0.47 0.87 -0.71 10.00 -0.01 -0.02 0.01 11643
0.03 0.46 0.95 -0.72 9.96 -0.01 -0.02 0.01 11651
0.02 0.43 0.90 -0.73 9.95 -0.01 -0.02 0.01 11657
0.02 0.44 0.91 -0.73 9.96 -0.01 -0.02 0.01 11663
0.03 0.43 0.96 -0.80 9.98 -0.00 -0.02 0.01 11669
0.03 0.41 0.90 -0.74 10.00 -0.01 -0.02 0.01 11675
0.03 0.41 0.95 -0.74 9.89 -0.01 -0.03 0.01 11681
0.03 0.39 0.89 -0.75 9.97 -0.01 -0.02 0.01 11688
0.03 0.38 0.92 -0.75 9.99 -0.01 -0.03 0.01 11695
0.03 0.45 0.90 -0.70 10.00 -0.01 -0.03 0.01 11701
0.03 0.41 0.88 -0.76 10.02 -0.01 -0.03 0.01 11707
0.03 0.41 0.91 -0.72 10.00 -0.01 -0.03 0.01 11714
0.03 0.42 0.91 -0.72 9.98 -0.01 -0.04 0.01 11720
0.02 0.43 0.88 -0.72 9.98 -0.01 -0.04 0.01 11726
0.02 0.43 0.95 -0.73 9.98 -0.01 -0.03 0.01 11732
0.03 0.44 0.93 -0.71 9.99 -0.01 -0.04 0.01 11739
0.04 0.42 0.92 -0.72 9.97 -0.01 -0.04 0.01 11745
0.03 0.41 0.94 -0.70 9.98 -0.01 -0.04 0.01 11752
0.03 0.40 0.93 -0.75 9.98 -0.00 -0.04 0.01 11758
0.03 0.39 0.93 -0.73 9.94 -0.00 -0.04 0.01 11764
0.01 0.39 0.93 -0.74 9.98 0.00 -0.04 0.02 11770
0.03 0.40 0.93 -0.70 9.99 -0.00 -0.04 0.02 11777
0.03 0.38 0.91 -0.75 10.02 -0.01 -0.04 0.02 11784
0.01 0.40 0.93 -0.76 10.02 -0.01 -0.04 0.02 11790
0.04 0.37 0.90 -0.74 9.98 -0.01 -0.05 0.02 11796
0.03 0.35 0.95 -0.75 10.04 -0.01 -0.05 0.02 11802
0.03 0.37 0.94 -0.69 10.01 -0.00 -0.05 0.02 11808
0.05 0.37 0.97 -0.72 10.00 0.00 -0.05 0.03 11815
0.04 0.35 0.96 -0.76 10.03 0.00 -0.05 0.03 11822
0.05 0.32 0.98 -0.72 10.04 0.01 -0.05 0.03 11828
0.04 0.29 0.97 -0.74 10.02 0.01 -0.05 0.03 11834
0.04 0.24 0.98 -0.77 10.01 0.02 -0.05 0.03 11841
0.04 0.25 0.98 -0.74 10.01 0.03 -0.05 0.03 11847
0.05 0.19 0.95 -0.76 10.09 0.03 -0.04 0.03 11853
0.04 0.16 1.06 -0.84 10.09 0.05 -0.03 0.03 11859
0.07 0.12 1.03 -0.71 10.00 0.05 -0.03 0.03 11866
0.07 0.07 0.98 -0.95 10.10 0.06 -0.02 0.03 11873
0.06 0.03 1.08 -0.80 10.14 0.07 -0.02 0.02 11879
0.07 0.01 1.07 -0.87 10.00 0.08 -0.01 0.01 11885
0.06 -0.01 1.10 -0.86 10.39 0.08 -0.01 -0.00 11891
0.06 0.00 0.98 -0.79 10.11 0.08 -0.01 -0.02 11897
0.07 -0.01 0.87 -1.18 10.07 0.09 -0.01 -0.03 11905
0.07 -0.01 0.89 -0.83 10.10 0.10 -0.01 -0.03 11911
0.06 0.00 0.81 -0.73 10.24 0.14 0.01 -0.03 11917
0.05 -0.01 0.87 -1.09 10.55 0.21 0.08 -0.04 11923
0.03 -0.00 0.16 -1.15 12.24 0.35 0.25 -0.02 11929
0.04 0.00 0.17 -1.53 13.74 0.60 0.85 0.05 11936
0.04 -0.00 -0.04 -1.62 15.45 0.89 1.66 0.14 11942
0.02 -0.00 -0.23 -1.47 15.18 1.08 2.29 0.22 11949
0.04 -0.00 -0.25 -1.77 14.17 1.16 2.59 0.36 11955
0.04 -0.00 -0.01 -2.35 14.02 1.13 2.72 0.49 11961
0.03 -0.00 -0.75 -2.92 14.25 1.19 2.82 0.65 11968
0.06 -0.01 -1.05 -3.33 14.16 1.22 2.90 0.85 11974
0.04 -0.00 -1.01 -2.83 13.40 1.30 2.92 1.04 11980
0.04 -0.00 -1.02 -2.34 12.94 1.35 2.84 1.17 11986
0.06 -0.01 -0.46 -2.04 12.56 1.39 2.82 1.26 11993
0.04 -0.00 -0.91 -1.92 12.46 1.43 2.79 1.31 12000
0.04 -0.00 -0.58 -1.83 12.29 1.51 2.71 1.39 12006
0.04 -0.00 -0.73 -2.09 11.69 1.59 2.62 1.41 12012
0.05 -0.00 -1.88 -1.71 12.18 1.66 2.51 1.36 12018
0.04 -0.00 -6.10 -1.03 11.94 1.71 2.26 1.12 12025
0.04 -0.00 -10.29 0.39 12.72 1.64 1.61 0.66 12032
0.03 -0.00 -15.00 2.36 13.43 1.44 0.55 0.06 12038
0.05 -0.01 -12.80 3.71 13.68 1.06 -0.75 -0.52 12044
0.04 -0.00 -8.61 3.73 14.44 0.64 -1.66 -0.95 12050
0.04 -0.00 -5.87 3.30 15.58 0.33 -2.03 -1.36 12057
0.04 -0.00 -2.85 2.59 14.02 0.13 -2.07 -1.79 12063
0.04 -0.00 -1.00 2.02 12.10 0.02 -2.07 -2.12 12069
0.04 -0.00 -0.26 2.03 11.41 -0.03 -2.05 -2.33 12076
0.04 -0.00 0.17 2.05 11.28 -0.06 -2.03 -2.43 12082
0.04 -0.00 0.68 2.00 10.86 -0.06 -2.08 -2.42 12089
0.04 0.01 1.47 2.22 9.87 -0.05 -2.18 -2.33 12095
0.04 -0.00 2.19 2.63 9.01 -0.03 -2.32 -2.17 12101
0.04 -0.00 2.84 2.90 8.27 0.03 -2.40 -1.98 12107
0.04 -0.00 3.52 2.96 7.83 0.09 -2.47 -1.78 12113
0.04 -0.00 4.01 3.12 7.61 0.16 -2.50 -1.60 12120
0.03 -0.00 4.49 3.38 7.68 0.22 -2.47 -1.38 12127
0.03 -0.00 5.07 3.70 8.19 0.26 -2.40 -1.18 12133
0.05 -0.00 5.79 4.03 9.17 0.25 -2.27 -0.96 12139
0.03 -0.00 6.28 4.22 9.59 0.19 -2.07 -0.72 12145
0.03 -0.00 6.46 4.33 9.75 0.07 -1.83 -0.47 12151
0.03 -0.00 6.59 4.05 9.90 -0.09 -1.55 -0.23 12157
0.04 -0.00 6.09 3.68 9.24 -0.24 -1.37 0.01 12165
0.03 -0.00 5.73 3.08 9.25 -0.35 -1.17 0.26 12171
0.03 -0.00 5.35 2.34 9.27 -0.43 -1.02 0.41 12177
0.05 -0.00 4.82 1.62 9.24 -0.46 -0.90 0.60 12183
0.04 -0.00 4.38 1.09 9.20 -0.46 -0.82 0.77 12189
0.03 -0.00 3.85 0.59 9.22 -0.45 -0.78 0.91 12195
0.04 0.00 3.57 0.25 9.36 -0.40 -0.78 1.01 12201
0.04 -0.00 3.41 -0.03 9.53 -0.43 -0.79 1.07 12209
0.04 -0.00 3.33 -0.27 9.75 -0.43 -0.78 1.09 12215
0.03 -0.00 3.17 -1.19 9.82 -0.43 -0.76 1.07 12221
0.03 -0.00 2.78 -0.95 9.68 -0.45 -0.76 1.03 12227
0.03 -0.00 2.48 -1.14 9.46 -0.46 -0.78 0.95 12233
0.02 -0.00 2.44 -1.11 9.36 -0.46 -0.83 0.85 12239
0.04 -0.00 2.75 -1.03 9.47 -0.47 -0.86 0.74 12246
0.02 -0.00 3.18 -0.94 9.62 -0.49 -0.86 0.62 12253
0.02 -0.00 3.79 -0.73 9.94 -0.52 -0.79 0.52 12259
0.02 -0.00 4.19 -0.66 10.09 -0.58 -0.66 0.43 12265
0.03 -0.00 4.37 -0.71 10.10 -0.64 -0.49 0.37 12271
0.02 -0.00 4.39 -0.89 10.13 -0.72 -0.36 0.34 12277
0.03 -0.00 4.25 -1.76 10.09 -0.78 -0.25 0.35 12284
0.03 -0.00 4.05 -1.59 9.93 -0.82 -0.20 0.40 12291
0.02 -0.00 4.06 -1.90 9.81 -0.84 -0.20 0.40 12297
0.03 0.01 4.23 -2.15 9.73 -0.85 -0.23 0.44 12303
0.02 -0.00 4.40 -2.41 9.56 -0.85 -0.25 0.47 12309
0.03 -0.00 4.64 -2.59 9.58 -0.85 -0.26 0.49 12315
0.03 -0.00 5.03 -2.69 9.71 -0.85 -0.24 0.50 12321
0.04 -0.00 5.21 -2.73 9.53 -0.87 -0.18 0.51 12328
0.03 -0.00 5.23 -2.72 9.19 -0.89 -0.12 0.51 12335
0.02 -0.00 5.20 -2.75 8.87 -0.89 -0.04 0.51 12341
0.03 -0.00 5.06 -2.79 8.82 -0.89 0.05 0.50 12347
0.03 -0.00 5.08 -2.91 8.90 -0.87 0.14 0.51 12353
0.03 -0.00 5.04 -3.11 9.09 -0.86 0.23 0.52 12359
0.03 -0.00 4.92 -3.15 9.40 -0.84 0.33 0.53 12365
0.04 -0.00 4.92 -3.19 9.63 -0.84 0.44 0.55 12372
0.03 -0.00 4.70 -3.21 9.80 -0.84 0.55 0.58 12379
0.02 -0.00 4.27 -3.29 9.90 -0.84 0.64 0.60 12385
0.03 -0.00 3.90 -3.42 9.88 -0.85 0.68 0.60 12391
0.02 -0.00 3.52 -3.53 9.81 -0.84 0.71 0.58 12397
0.02 -0.00 2.99 -3.62 9.63 -0.83 0.69 0.52 12403
0.03 0.00 2.39 -3.62 9.29 -0.82 0.66 0.40 12410
0.03 -0.00 1.91 -3.51 9.00 -0.82 0.62 0.22 12417
0.03 -0.00 1.74 -3.30 8.99 -0.82 0.61 -0.02 12423
0.02 -0.00 1.73 -3.01 9.13 -0.84 0.61 -0.31 12429
0.04 -0.00 1.67 -2.62 9.09 -0.90 0.61 -0.60 12435
0.03 -0.00 1.70 -2.22 8.73 -0.97 0.60 -0.88 12441
0.02 -0.00 1.81 -1.83 8.31 -1.03 0.55 -1.13 12447
0.03 -0.00 2.13 -1.65 7.88 -1.10 0.49 -1.31 12454
0.02 -0.00 2.58 -1.59 7.44 -1.13 0.44 -1.47 12461
0.02 -0.00 3.12 -1.69 6.92 -1.15 0.43 -1.58 12467
0.03 0.00 3.84 -2.31 6.11 -1.12 0.45 -1.64 12473
0.02 -0.00 -16.58 -25.58 46.73 0.69 1.11 -1.10 12479
0.02 -0.00 2.96 -4.80 -12.92 1.12 0.90 -0.74 12486
0.03 0.03 -8.81 -32.84 -14.15 1.44 0.14 -0.43 12492
0.03 0.10 -8.96 -59.20 6.79 3.08 -2.33 0.09 12498
0.01 0.29 2.71 4.08 25.78 0.59 -0.64 0.55 12505
0.05 0.25 -8.37 -9.87 9.67 0.03 0.05 0.26 12512
0.04 0.20 -0.87 -2.03 12.05 -0.19 -0.01 -0.05 12518
0.04 0.23 1.06 -0.17 9.52 -0.08 0.11 -0.08 12524
0.04 0.23 0.93 0.10 9.57 -0.07 0.12 0.07 12530
0.03 0.24 0.74 -0.24 9.56 -0.12 0.17 0.12 12537
0.04 0.36 0.47 -1.08 10.58 -0.12 0.16 0.11 12544
0.04 0.39 0.89 -0.96 10.36 -0.08 0.13 0.11 12550
0.02 0.40 1.32 -0.51 10.17 -0.05 0.11 0.11 12556
0.03 0.42 0.94 -0.73 9.92 -0.05 0.10 0.11 12562
0.01 0.44 0.67 -0.84 10.21 -0.05 0.10 0.10 12569
0.02 0.53 0.66 -0.88 10.12 -0.05 0.10 0.09 12575
0.01 0.54 0.67 -0.93 10.06 -0.05 0.11 0.10 12581
0.02 0.56 0.84 -1.01 10.10 -0.05 0.12 0.11 12588
0.03 0.61 0.92 -0.84 9.95 -0.04 0.11 0.11 12595
0.02 0.54 0.95 -0.72 10.03 -0.04 0.10 0.10 12601
0.02 0.58 0.97 -0.68 10.06 -0.04 0.09 0.08 12607
0.01 0.57 1.02 -0.73 9.90 -0.04 0.07 0.07 12613
0.01 0.59 0.97 -0.74 9.95 -0.03 0.05 0.06 12619
0.03 0.65 0.94 -0.74 10.09 -0.03 0.04 0.06 12626
0.02 0.65 0.90 -0.77 10.00 -0.03 0.03 0.07 12633
0.02 0.68 0.94 -0.76 10.01 -0.03 0.03 0.06 12639
0.01 0.65 0.90 -0.76 9.99 -0.02 0.03 0.07 12645
0.01 0.61 0.97 -0.73 9.93 -0.02 0.02 0.07 12652
0.01 0.64 0.52 -0.80 9.87 -0.02 0.01 0.07 12658
0.02 0.67 0.89 -0.82 10.00 -0.01 0.00 0.07 12664
0.03 0.70 0.89 -0.80 9.98 -0.01 -0.00 0.07 12670
0.02 0.71 0.87 -0.81 10.02 -0.01 -0.00 0.07 12677
0.03 0.74 0.93 -0.79 9.98 -0.01 -0.00 0.07 12683
0.02 0.73 0.86 -0.81 10.01 -0.01 0.00 0.07 12690
0.03 0.72 0.89 -0.78 10.01 -0.01 -0.00 0.08 12696
0.03 0.73 0.92 -0.80 9.95 -0.01 0.00 0.07 12702
0.02 0.71 0.89 -0.80 10.07 -0.02 0.00 0.07 12708
0.03 0.70 0.89 -0.80 9.96 -0.02 0.00 0.07 12716
0.03 0.76 0.89 -0.78 10.04 -0.02 0.00 0.06 12722
-0.00 0.76 0.94 -0.79 10.04 -0.02 0.00 0.06 12728
0.02 0.77 0.86 -0.76 10.01 -0.02 0.01 0.06 12734
0.02 0.77 0.92 -0.77 10.00 -0.01 0.02 0.06 12740
0.01 0.79 0.91 -0.66 9.93 -0.01 0.02 0.06 12747
0.01 0.79 0.90 -0.70 9.96 -0.00 0.01 0.05 12753
0.00 0.77 0.93 -0.74 9.97 0.00 0.01 0.05 12760
-0.01 0.78 0.88 -0.75 9.98 -0.00 0.01 0.05 12766
0.03 0.76 0.91 -0.78 9.98 -0.00 0.01 0.05 12772
0.01 0.75 0.92 -0.77 9.97 -0.01 0.01 0.04 12778
-0.00 0.72 0.93 -0.77 9.97 -0.01 0.01 0.04 12785
-0.00 0.74 0.91 -0.76 9.99 -0.01 0.01 0.04 12791
0.01 0.74 0.95 -0.83 9.97 -0.02 0.02 0.04 12797
-0.00 0.75 0.97 -0.75 10.00 -0.02 0.03 0.04 12804
0.01 0.77 0.98 -0.79 9.98 -0.02 0.03 0.04 12810
0.01 0.76 0.94 -0.75 9.99 -0.02 0.03 0.04 12817
0.00 0.77 0.97 -0.77 9.98 -0.02 0.03 0.04 12823
0.02 0.79 0.99 -0.77 9.97 -0.02 0.04 0.04 12829
0.01 0.76 0.96 -0.73 9.99 -0.03 0.04 0.04 12835
0.00 0.76 1.00 -0.74 9.95 -0.03 0.05 0.03 12841
0.01 0.79 0.99 -0.72 10.02 -0.03 0.05 0.03 12848
-0.00 0.78 1.04 -0.76 10.03 -0.03 0.06 0.03 12855
0.00 0.75 0.96 -0.78 9.99 -0.04 0.06 0.03 12861
0.03 0.76 0.97 -0.80 9.99 -0.03 0.07 0.03 12867
0.01 0.77 1.00 -0.80 9.99 -0.04 0.07 0.02 12873
0.01 0.76 1.03 -0.76 9.92 -0.04 0.07 0.02 12879
0.01 0.79 1.03 -0.76 10.01 -0.04 0.07 0.02 12887
0.01 0.78 1.06 -0.76 9.99 -0.03 0.07 0.01 12893
0.00 0.77 1.00 -0.78 9.94 -0.04 0.06 0.01 12899
0.03 0.76 1.08 -0.76 9.91 -0.04 0.06 0.00 12905
0.01 0.74 1.09 -0.74 9.91 -0.03 0.05 0.00 12911
0.01 0.72 1.07 -0.75 9.92 -0.03 0.03 -0.00 12918
0.02 0.71 1.10 -0.75 9.96 -0.02 0.03 -0.00 12924
0.01 0.69 1.14 -0.76 9.90 -0.03 0.02 -0.00 12931
-0.00 0.69 1.14 -0.74 9.93 -0.02 0.02 -0.01 12937
0.02 0.68 1.11 -0.76 9.98 -0.02 0.01 -0.01 12943
0.01 0.68 1.10 -0.75 9.98 -0.01 -0.00 -0.01 12949
0.01 0.64 1.15 -0.76 9.98 -0.01 -0.01 -0.02 12956
0.02 0.66 1.11 -0.74 9.87 -0.01 -0.02 -0.02 12962
0.01 0.65 1.15 -0.74 9.91 -0.00 -0.02 -0.02 12968
0.00 0.62 1.17 -0.76 9.98 -0.00 -0.02 -0.02 12975
0.02 0.66 1.11 -0.76 9.96 -0.00 -0.02 -0.02 12981
0.01 0.63 1.14 -0.77 9.97 -0.01 -0.01 -0.02 12988
0.01 0.58 1.11 -0.73 9.93 -0.01 -0.01 -0.02 12994
0.01 0.59 1.15 -0.77 9.95 -0.01 -0.01 -0.02 13000
0.01 0.57 1.15 -0.78 9.91 -0.00 -0.02 -0.02 13006
0.02 0.51 1.17 -0.73 9.96 -0.03 -0.03 -0.02 13012
0.03 0.50 1.12 -0.78 9.96 -0.00 -0.03 -0.03 13020
0.03 0.49 1.14 -0.77 9.92 -0.00 -0.03 -0.03 13026
0.01 0.50 1.09 -0.75 10.00 -0.00 -0.03 -0.03 13032
0.03 0.47 1.13 -0.78 10.02 -0.00 -0.03 -0.03 13038
0.03 0.47 1.10 -0.86 10.05 -0.01 -0.02 -0.03 13044
0.02 0.47 1.14 -0.82 10.01 -0.01 -0.03 -0.02 13051
0.02 0.45 1.11 -0.83 9.98 -0.01 -0.03 -0.01 13058
0.01 0.46 1.11 -0.81 9.95 -0.01 -0.03 -0.01 13064
0.03 0.43 1.10 -0.79 9.98 -0.01 -0.02 -0.01 13070
0.03 0.44 1.09 -0.72 9.87 -0.01 -0.02 -0.01 13076
0.02 0.43 1.15 -0.76 9.96 -0.00 -0.01 -0.01 13083
0.03 0.40 1.15 -0.76 9.99 -0.01 -0.02 -0.01 13089
0.02 0.38 1.16 -0.74 9.93 -0.00 -0.01 -0.01 13095
0.02 0.33 1.18 -0.75 9.98 0.00 -0.01 -0.01 13102
0.03 0.35 1.18 -0.73 9.93 0.00 -0.01 -0.02 13108
0.02 0.32 1.13 -0.75 9.96 0.00 -0.02 -0.01 13115
0.02 0.26 1.15 -0.79 9.96 0.01 -0.02 -0.01 13121
0.03 0.27 1.13 -0.81 9.98 0.00 -0.01 -0.01 13127
0.03 0.26 1.11 -0.80 9.99 0.00 -0.01 -0.01 13133
0.03 0.24 1.14 -0.82 9.97 0.00 -0.01 -0.01 13139
0.03 0.26 1.14 -0.80 9.98 -0.00 -0.02 -0.01 13146
0.03 0.25 1.15 -0.78 9.97 -0.00 -0.03 -0.01 13153
0.02 0.24 1.14 -0.77 9.95 -0.01 -0.03 -0.01 13159
0.03 0.25 1.19 -0.80 10.01 -0.01 -0.04 -0.01 13165
0.03 0.24 1.16 -0.76 9.99 -0.00 -0.04 -0.00 13171
0.01 0.27 1.13 -0.80 9.98 -0.01 -0.05 -0.00 13177
0.02 0.27 1.13 -0.82 9.98 -0.01 -0.05 -0.01 13185
0.02 0.30 1.12 -0.79 10.04 -0.01 -0.05 0.00 13191
0.01 0.27 1.12 -0.83 9.98 -0.01 -0.05 0.00 13197
0.02 0.31 1.13 -0.80 9.99 -0.01 -0.05 0.00 13203
0.03 0.28 1.14 -0.81 9.96 -0.01 -0.04 0.01 13209
0.02 0.29 1.10 -0.76 10.02 -0.01 -0.04 0.01 13216
0.05 0.27 1.13 -0.75 10.02 0.00 -0.04 0.02 13222
0.03 0.24 1.14 -0.75 9.95 0.00 -0.04 0.02 13229
0.02 0.28 1.18 -0.75 10.02 0.01 -0.04 0.02 13235
0.04 0.22 1.19 -0.79 10.01 0.00 -0.04 0.02 13241
0.04 0.17 1.16 -0.77 9.98 0.01 -0.04 0.02 13248
0.02 0.20 1.18 -0.75 9.97 0.01 -0.05 0.02 13254
0.04 0.15 1.16 -0.81 9.98 0.01 -0.06 0.02 13260
0.04 0.15 1.15 -0.84 9.98 0.01 -0.06 0.02 13266
0.03 0.15 1.14 -0.81 10.01 0.01 -0.06 0.02 13273
0.03 0.11 1.11 -0.85 10.02 0.01 -0.06 0.02 13280
0.04 0.09 1.18 -0.80 10.05 0.01 -0.07 0.02 13286
0.04 0.11 1.20 -0.83 10.01 0.02 -0.08 0.03 13292
0.04 0.06 1.31 -1.14 10.01 0.02 -0.08 0.02 13298
0.03 0.04 1.27 -0.94 9.98 0.03 -0.09 0.02 13304
0.04 0.04 1.19 -0.80 10.07 0.03 -0.10 0.02 13312
0.04 0.03 1.20 -0.86 10.09 0.04 -0.10 0.01 13318
0.03 0.02 1.14 -0.80 10.14 0.04 -0.09 0.00 13324
0.05 0.01 1.24 -0.81 10.16 0.05 -0.09 -0.00 13330
0.03 -0.00 1.12 -0.80 10.23 0.05 -0.07 -0.01 13337
0.03 -0.00 1.20 -0.83 10.35 0.05 -0.03 -0.02 13343
0.03 -0.00 0.95 -0.56 10.27 0.06 0.04 -0.02 13349
0.03 -0.00 0.94 -0.94 10.82 0.09 0.24 -0.04 13356
0.02 -0.00 1.05 -0.88 11.48 0.13 0.58 -0.05 13362
0.05 -0.00 0.88 -1.10 12.82 0.21 1.09 -0.05 13368
0.04 -0.00 0.97 -1.06 14.12 0.34 1.69 -0.05 13375
0.05 -0.00 0.95 -1.29 14.05 0.43 2.16 -0.06 13381
0.05 -0.01 0.69 -1.36 14.24 0.40 2.43 -0.05 13387
0.03 -0.00 0.92 -1.49 14.35 0.31 2.57 -0.05 13393
0.05 -0.00 0.95 -1.48 14.21 0.20 2.74 -0.06 13400
0.05 -0.01 1.21 -1.46 13.29 0.15 2.94 -0.10 13407
0.04 -0.00 1.84 -1.64 12.73 0.14 3.12 -0.19 13413
0.03 -0.00 2.23 -2.07 12.73 0.17 3.32 -0.31 13419
0.04 -0.00 1.57 -3.44 13.11 0.27 3.48 -0.48 13425
0.04 -0.00 -1.04 -5.29 13.14 0.46 3.53 -0.67 13431
0.04 -0.00 -5.96 -5.83 13.38 0.73 3.25 -0.83 13438
0.05 -0.00 -10.38 -5.25 13.74 0.94 2.58 -0.92 13445
0.03 -0.00 -13.69 -3.57 12.37 1.03 1.49 -0.96 13451
0.05 -0.01 -13.55 -1.82 13.35 0.93 0.06 -1.03 13457
0.03 -0.00 -10.78 -0.60 13.86 0.73 -1.23 -1.08 13464
0.04 0.00 -6.98 -0.58 13.82 0.62 -1.87 -1.18 13470
0.04 -0.00 -3.91 -0.43 12.70 0.64 -1.99 -1.41 13476
0.03 -0.00 -2.30 0.21 11.47 0.73 -1.88 -1.65 13483
0.04 -0.00 -1.97 1.18 11.12 0.81 -1.78 -1.85 13490
0.04 -0.00 -1.93 2.40 11.26 0.86 -1.81 -1.94 13496
0.04 -0.00 -1.37 3.14 11.60 0.86 -1.93 -1.94 13502
0.05 -0.01 -0.46 3.64 11.88 0.80 -2.06 -1.85 13508
0.04 -0.00 0.49 4.11 11.75 0.78 -2.12 -1.71 13514
0.04 -0.00 1.47 4.48 11.58 0.71 -2.10 -1.55 13521
0.05 -0.00 2.34 4.50 11.31 0.64 -2.03 -1.40 13528
0.03 -0.00 3.22 4.30 10.85 0.59 -1.90 -1.24 13534
0.04 -0.00 4.00 4.05 10.40 0.55 -1.72 -1.07 13540
0.05 -0.00 4.49 3.82 10.07 0.53 -1.54 -0.89 13546
0.03 -0.00 4.71 3.55 9.87 0.52 -1.35 -0.73 13553
0.04 -0.00 4.84 3.42 9.69 0.51 -1.20 -0.53 13559
0.04 -0.00 4.74 3.34 9.38 0.50 -1.08 -0.33 13565
0.04 -0.00 4.76 3.41 9.25 0.50 -0.97 -0.12 13572
0.03 -0.00 4.91 3.74 8.85 0.50 -0.90 0.09 13578
0.04 -0.00 4.90 4.16 8.42 0.48 -0.84 0.28 13584
0.04 -0.00 4.32 4.53 7.94 0.48 -0.80 0.45 13590
0.04 -0.00 4.88 4.77 7.54 0.47 -0.76 0.60 13596
0.05 -0.00 4.73 4.78 7.58 0.47 -0.70 0.71 13603
0.06 -0.01 4.58 4.72 7.54 0.46 -0.65 0.82 13609
0.03 -0.00 4.30 4.61 7.71 0.45 -0.62 0.91 13616
0.04 -0.00 4.13 4.63 8.27 0.42 -0.61 0.99 13622
0.04 -0.00 4.10 4.70 8.95 0.35 -0.63 1.05 13628
0.04 -0.00 4.09 4.71 9.64 0.25 -0.66 1.10 13634
0.04 -0.00 4.03 4.56 10.05 0.10 -0.68 1.15 13641
0.04 -0.00 4.10 4.31 10.52 -0.09 -0.72 1.18 13647
0.04 -0.00 4.30 3.83 10.69 -0.28 -0.74 1.20 13654
0.04 -0.00 4.38 3.27 10.77 -0.46 -0.76 1.19 13660
0.04 -0.00 4.45 2.60 10.38 -0.61 -0.76 1.17 13666
0.04 -0.00 4.42 1.96 9.96 -0.71 -0.76 1.12 13672
0.05 -0.00 4.39 1.40 9.65 -0.77 -0.77 1.06 13679
0.04 0.00 4.58 0.92 9.61 -0.79 -0.77 0.98 13685
0.05 -0.00 4.84 0.62 9.73 -0.80 -0.75 0.91 13691
0.04 -0.00 4.97 0.36 9.74 -0.81 -0.71 0.85 13698
0.04 -0.00 5.11 0.22 9.63 -0.83 -0.67 0.80 13704
0.05 -0.01 5.05 0.00 9.41 -0.86 -0.63 0.75 13710
0.04 -0.00 4.85 -0.10 9.15 -0.88 -0.62 0.71 13716
0.04 -0.00 4.83 -0.05 8.79 -0.88 -0.60 0.68 13723
0.04 -0.00 4.89 -0.01 8.48 -0.87 -0.59 0.66 13729
0.04 -0.00 4.95 -0.02 8.28 -0.84 -0.57 0.64 13735
0.04 -0.00 5.04 -0.02 8.44 -0.81 -0.51 0.64 13742
0.03 -0.00 5.17 -0.05 8.93 -0.74 -0.42 0.65 13748
0.05 -0.00 5.29 -0.05 9.55 -0.74 -0.31 0.69 13754
0.04 -0.00 5.39 -0.01 10.36 -0.73 -0.22 0.74 13760
0.03 -0.00 5.13 -0.01 11.03 -0.78 -0.14 0.81 13767
0.04 0.00 4.75 -0.11 11.64 -0.86 -0.11 0.88 13773
0.03 -0.00 4.58 -0.40 11.88 -0.98 -0.16 0.92 13779
0.04 -0.00 4.39 -0.80 11.60 -1.12 -0.26 0.93 13786
0.05 -0.00 4.54 -1.55 10.42 -1.23 -0.34 0.91 13793
0.03 -0.00 4.78 -2.36 10.43 -1.31 -0.39 0.85 13799
0.03 -0.00 5.04 -3.11 9.85 -1.31 -0.39 0.78 13805
0.05 -0.00 5.15 -3.60 9.40 -1.25 -0.34 0.69 13811
0.04 -0.00 5.17 -3.82 9.10 -1.15 -0.26 0.59 13817
0.02 -0.00 5.02 -3.88 8.95 -1.02 -0.18 0.51 13824
0.04 -0.00 5.00 -3.85 9.24 -0.94 -0.11 0.42 13830
0.04 -0.00 4.33 -3.69 9.79 -0.85 -0.06 0.34 13837
0.04 -0.00 4.83 -3.48 10.55 -0.81 0.02 0.26 13843
0.04 0.01 5.00 -3.27 11.34 -0.81 0.10 0.21 13849
0.04 -0.00 4.99 -3.16 11.71 -0.88 0.22 0.17 13855
0.03 -0.00 4.59 -3.34 11.40 -0.98 0.35 0.13 13861
0.04 -0.00 3.69 -3.88 9.84 -1.06 0.47 0.09 13869
0.04 -0.00 2.43 -4.52 9.49 -1.08 0.56 0.02 13875
0.04 -0.00 1.27 -5.02 8.90 -1.02 0.60 -0.10 13881
0.04 -0.00 0.60 -5.09 8.38 -0.91 0.57 -0.25 13887
0.06 -0.01 0.34 -4.84 8.16 -0.86 0.53 -0.44 13893
0.04 -0.00 0.41 -4.87 8.04 -0.80 0.50 -0.64 13899
0.01 -0.00 -2.54 -20.56 29.80 -0.32 0.65 -0.71 13906
0.04 -0.00 6.61 -0.80 0.13 0.59 0.90 -0.87 13913
0.03 -0.00 -0.79 -12.61 -3.08 0.41 0.79 -0.97 13919
0.03 0.01 -1.30 -28.75 9.14 0.94 0.03 -0.93 13925
0.04 0.06 -8.00 -36.47 -5.88 1.16 -0.93 -0.91 13931
0.04 0.17 -9.25 -54.64 3.36 2.03 -1.90 -0.74 13938
0.02 0.24 -2.01 -24.72 33.07 1.28 -0.76 -0.18 13944
0.03 0.25 2.35 -4.59 7.10 -0.02 0.13 0.22 13950
0.03 0.27 -0.39 -1.98 10.80 -0.15 -0.05 0.05 13957
0.03 0.30 -0.14 -0.34 9.75 -0.13 0.01 0.05 13964
0.04 0.32 0.93 0.61 9.44 -0.09 0.06 0.09 13970
0.02 0.41 0.52 0.09 10.04 -0.13 0.08 0.11 13976
0.03 0.46 0.74 -0.82 10.61 -0.14 0.10 0.10 13982
0.01 0.51 0.68 -0.85 10.21 -0.09 0.10 0.10 13989
0.03 0.60 0.78 -0.41 9.94 -0.06 0.11 0.11 13996
0.02 0.63 0.77 -0.76 9.92 -0.06 0.10 0.11 14002
0.01 0.58 0.84 -1.07 10.23 -0.07 0.08 0.11 14008
0.03 0.67 0.90 -0.97 10.15 -0.07 0.07 0.11 14014
0.01 0.73 0.78 -0.90 10.17 -0.06 0.06 0.11 14021
0.01 0.79 0.79 -0.79 10.07 -0.06 0.06 0.10 14027
0.04 0.81 0.78 -0.78 10.04 -0.05 0.06 0.10 14033
0.00 0.88 0.81 -0.67 10.06 -0.04 0.06 0.10 14040
0.02 1.00 0.85 -0.65 10.09 -0.03 0.06 0.09 14047
0.01 0.90 0.79 -0.63 9.94 -0.02 0.06 0.08 14053
0.00 0.92 0.83 -0.67 9.99 -0.02 0.05 0.08 14059
0.02 0.92 0.81 -0.74 10.06 -0.02 0.05 0.08 14065
0.02 0.91 0.85 -0.69 9.95 -0.01 0.04 0.07 14071
0.01 0.90 0.84 -0.65 9.92 -0.01 0.03 0.07 14078
0.02 0.89 0.83 -0.64 10.02 -0.01 0.01 0.07 14085
0.00 0.90 0.79 -0.68 9.98 -0.00 0.01 0.07 14091
0.00 0.89 0.81 -0.70 10.00 0.00 0.01 0.07 14097
0.02 0.86 0.84 -0.73 9.98 -0.00 0.00 0.07 14103
0.00 0.87 0.87 -0.75 10.00 0.00 0.00 0.07 14110
0.02 0.84 0.81 -0.76 9.97 -0.00 -0.00 0.06 14116
0.02 0.84 0.80 -0.69 9.97 -0.00 -0.00 0.06 14123
0.01 0.81 0.78 -0.68 9.98 -0.01 -0.00 0.06 14129
0.01 0.81 0.78 -0.71 9.98 -0.01 -0.01 0.06 14135
0.03 0.80 0.78 -0.72 9.99 -0.01 -0.01 0.05 14141
0.01 0.81 0.80 -0.70 9.98 -0.01 -0.00 0.05 14148
0.01 0.81 0.74 -0.75 10.01 -0.01 0.00 0.05 14154
0.02 0.82 0.81 -0.78 9.98 -0.01 0.01 0.06 14160
0.01 0.82 0.80 -0.69 9.99 -0.01 0.02 0.05 14167
0.00 0.83 0.78 -0.69 9.95 -0.01 0.03 0.06 14173
0.02 0.83 0.79 -0.67 9.96 -0.00 0.04 0.05 14180
0.01 0.80 0.81 -0.54 10.08 -0.00 0.04 0.05 14186
0.01 0.77 0.84 -0.73 9.99 -0.00 0.04 0.04 14192
0.02 0.76 0.81 -0.74 9.98 -0.00 0.04 0.04 14198
0.01 0.75 0.87 -0.76 9.97 -0.01 0.04 0.05 14204
0.01 0.74 0.87 -0.71 9.95 -0.01 0.04 0.05 14211
0.02 0.74 0.84 -0.75 9.98 -0.01 0.05 0.04 14218
0.01 0.73 0.90 -0.75 10.00 -0.01 0.05 0.04 14224
0.01 0.72 0.92 -0.75 10.01 -0.01 0.05 0.04 14230
0.03 0.73 0.93 -0.76 9.93 -0.02 0.04 0.04 14236
0.01 0.72 0.93 -0.75 9.95 -0.01 0.04 0.04 14242
0.02 0.72 0.91 -0.70 9.98 -0.02 0.03 0.03 14249
0.02 0.71 0.90 -0.74 10.00 -0.02 0.03 0.04 14256
0.02 0.71 0.94 -0.71 10.03 -0.02 0.04 0.03 14262
0.01 0.74 0.91 -0.73 9.98 -0.02 0.04 0.03 14268
0.02 0.71 0.96 -0.73 10.01 -0.02 0.03 0.03 14275
0.00 0.71 0.97 -0.77 10.00 -0.03 0.03 0.03 14281
0.02 0.73 0.92 -0.74 10.03 -0.03 0.03 0.02 14287
0.00 0.73 0.96 -0.71 9.96 -0.03 0.02 0.02 14294
0.00 0.72 0.94 -0.72 9.99 -0.03 0.01 0.02 14300
0.02 0.73 0.95 -0.75 10.00 -0.03 0.01 0.02 14307
0.01 0.73 0.96 -0.74 9.98 -0.03 0.01 0.02 14313
0.02 0.72 0.98 -0.72 9.95 -0.03 0.01 0.01 14319
0.02 0.73 0.95 -0.73 9.95 -0.03 0.00 0.01 14325
0.01 0.73 0.95 -0.73 9.97 -0.03 -0.00 0.01 14331
0.01 0.71 0.96 -0.73 10.02 -0.03 -0.01 0.01 14338
0.02 0.72 0.94 -0.74 9.97 -0.02 -0.01 0.01 14345
0.01 0.73 1.01 -0.72 9.99 -0.02 -0.01 0.01 14351
0.02 0.72 0.98 -0.73 9.98 -0.02 -0.01 0.01 14357
0.02 0.72 0.99 -0.70 9.98 -0.02 -0.02 0.00 14363
0.01 0.70 1.00 -0.69 9.96 -0.01 -0.02 0.00 14369
0.00 0.71 0.96 -0.68 9.97 -0.01 -0.02 0.00 14376
0.03 0.70 1.01 -0.68 9.92 -0.00 -0.03 -0.00 14383
0.01 0.71 1.02 -0.70 9.98 -0.01 -0.04 -0.01 14389
-0.00 0.69 0.98 -0.76 9.98 -0.00 -0.04 -0.01 14395
0.02 0.69 0.98 -0.72 10.00 -0.01 -0.04 -0.01 14401
0.02 0.67 0.96 -0.78 9.95 -0.01 -0.03 0.00 14408
0.01 0.64 0.94 -0.81 9.99 -0.01 -0.02 0.00 14414
0.02 0.65 0.95 -0.75 10.00 -0.01 -0.02 0.01 14420
0.01 0.63 0.95 -0.72 10.02 -0.01 -0.01 0.01 14427
0.02 0.62 0.97 -0.69 10.00 -0.02 -0.01 0.01 14433
0.02 0.63 0.97 -0.72 9.98 -0.01 -0.00 0.01 14440
0.01 0.62 0.95 -0.71 9.97 -0.01 -0.00 0.01 14446
0.02 0.61 0.98 -0.76 9.97 -0.01 -0.00 0.00 14452
0.02 0.63 0.98 -0.72 9.96 -0.01 -0.00 0.00 14458
0.01 0.62 0.99 -0.68 9.99 -0.00 -0.00 -0.00 14465
0.02 0.58 0.99 -0.70 9.97 -0.01 -0.00 -0.00 14471
0.04 0.57 0.99 -0.74 9.93 -0.01 -0.00 -0.00 14478
0.02 0.55 1.04 -0.71 9.96 -0.01 0.00 -0.01 14484
0.02 0.51 1.02 -0.75 9.98 -0.01 0.00 -0.01 14490
0.02 0.53 1.04 -0.68 9.98 -0.01 0.00 -0.01 14496
0.02 0.52 1.00 -0.67 9.91 -0.01 -0.00 -0.02 14502
0.03 0.47 1.04 -0.70 9.94 -0.01 -0.01 -0.02 14509
0.04 0.44 1.06 -0.73 9.94 -0.00 -0.01 -0.02 14516
0.03 0.43 1.04 -0.69 9.87 -0.00 -0.02 -0.02 14522
0.01 0.42 1.07 -0.74 9.93 -0.01 -0.03 -0.02 14528
0.03 0.42 1.05 -0.78 9.96 -0.01 -0.03 -0.02 14534
0.03 0.40 1.08 -0.78 10.01 -0.01 -0.04 -0.02 14540
0.01 0.41 1.03 -0.76 10.01 -0.01 -0.03 -0.01 14547
0.03 0.40 0.97 -0.76 10.02 -0.01 -0.03 -0.01 14554
0.01 0.40 1.01 -0.77 10.03 -0.01 -0.04 -0.00 14560
0.02 0.40 0.99 -0.70 10.06 -0.01 -0.04 0.00 14566
0.03 0.39 1.00 -0.72 9.99 -0.01 -0.04 0.00 14573
0.02 0.38 1.02 -0.74 9.98 -0.01 -0.03 0.01 14579
0.03 0.39 0.99 -0.72 10.03 -0.01 -0.03 0.01 14585
0.03 0.36 1.00 -0.70 10.04 -0.01 -0.03 0.02 14592
0.01 0.36 0.98 -0.72 9.95 -0.00 -0.03 0.02 14598
0.03 0.39 1.03 -0.70 10.03 0.00 -0.02 0.02 14605
0.02 0.35 1.03 -0.70 9.98 -0.00 -0.01 0.02 14611
0.01 0.34 1.03 -0.71 9.99 0.00 -0.01 0.02 14617
0.03 0.33 1.02 -0.72 9.94 0.00 -0.01 0.02 14623
0.03 0.31 1.03 -0.72 9.98 -0.00 -0.01 0.02 14629
0.02 0.29 1.03 -0.74 10.01 0.00 -0.01 0.02 14636
0.04 0.31 1.03 -0.75 9.99 -0.00 -0.01 0.02 14643
0.03 0.25 1.00 -0.75 10.02 -0.00 -0.00 0.03 14649
0.02 0.25 1.05 -0.74 10.01 -0.00 -0.00 0.02 14655
0.04 0.26 1.06 -0.71 9.98 -0.00 -0.00 0.03 14661
0.03 0.21 1.04 -0.73 10.01 -0.00 -0.00 0.03 14668
0.02 0.23 1.08 -0.69 10.05 -0.00 -0.00 0.03 14674
0.04 0.25 1.10 -0.67 10.00 0.01 -0.01 0.03 14681
0.04 0.13 1.13 -0.75 10.04 0.02 -0.01 0.03 14687
0.03 0.15 1.14 -0.69 10.05 0.03 -0.02 0.03 14693
0.04 0.11 1.11 -0.75 10.02 0.03 -0.02 0.03 14700
0.03 0.08 1.15 -0.77 10.02 0.03 -0.02 0.03 14706
0.04 0.05 1.10 -0.80 10.06 0.04 -0.03 0.02 14712
0.04 0.02 1.11 -0.83 10.04 0.05 -0.03 0.02 14718
0.03 -0.00 1.02 -0.81 10.03 0.06 -0.04 0.02 14725
0.05 0.01 1.06 -0.79 10.05 0.07 -0.04 0.02 14732
0.04 -0.00 0.97 -0.87 10.12 0.09 -0.04 0.02 14738
0.04 -0.00 1.05 -0.88 10.18 0.09 -0.05 0.02 14744
0.05 -0.01 1.03 -0.84 10.15 0.12 -0.04 0.03 14750
0.04 -0.00 0.86 -0.93 10.41 0.15 -0.02 0.03 14756
0.03 -0.00 0.87 -1.02 10.61 0.20 0.07 0.04 14764
0.05 -0.01 0.87 -1.31 11.17 0.27 0.35 0.07 14770
0.04 -0.00 0.50 -1.19 13.22 0.43 0.80 0.10 14776
0.03 -0.00 0.49 -1.47 14.33 0.63 1.53 0.15 14782
0.05 -0.01 0.36 -1.60 14.96 0.84 2.19 0.21 14788
0.04 -0.00 0.73 -1.68 14.96 0.99 2.69 0.27 14794
0.03 -0.00 0.60 -1.83 14.55 1.03 2.99 0.33 14801
0.05 -0.00 0.44 -2.22 14.57 1.01 3.14 0.40 14808
0.04 -0.00 -0.86 -2.74 14.77 0.98 3.21 0.49 14814
0.03 -0.00 0.18 -2.18 13.76 0.99 3.20 0.56 14820
0.05 -0.01 0.48 -1.97 13.28 1.01 3.13 0.60 14826
0.03 -0.00 0.68 -2.05 13.46 1.04 3.08 0.61 14833
0.04 -0.00 1.54 -2.14 12.43 1.08 3.07 0.59 14839
0.06 -0.01 1.06 -2.86 12.15 1.16 3.04 0.50 14845
0.04 -0.00 -1.15 -4.15 12.19 1.25 2.98 0.30 14852
0.04 -0.00 -7.21 -3.91 13.22 1.33 2.82 -0.09 14858
0.05 -0.01 -11.60 -1.79 13.51 1.29 2.19 -0.66 14865
0.03 -0.00 -12.61 0.04 13.24 0.98 0.93 -1.13 14871
0.04 0.01 -11.36 1.01 13.14 0.49 -0.48 -1.40 14877
0.04 -0.00 -9.00 0.69 14.10 0.03 -1.54 -1.59 14883
0.04 -0.00 -5.39 -1.00 13.86 -0.18 -2.07 -1.82 14891
0.05 -0.00 -2.36 -1.55 11.08 -0.19 -2.18 -2.09 14897
0.04 -0.00 -0.83 -1.77 8.95 -0.07 -2.11 -2.29 14903
0.03 -0.00 -0.39 -1.38 8.14 0.12 -2.04 -2.45 14909
0.05 -0.01 -0.18 -0.86 7.79 0.34 -2.06 -2.51 14915
0.03 -0.00 0.15 0.08 7.96 0.56 -2.16 -2.45 14921
0.03 -0.00 0.76 1.15 8.70 0.74 -2.27 -2.29 14928
0.04 -0.00 1.43 2.20 9.49 0.82 -2.35 -2.07 14935
0.04 -0.00 2.43 3.03 10.23 0.85 -2.38 -1.83 14941
0.03 -0.00 4.16 3.71 10.76 0.81 -2.37 -1.56 14947
0.04 0.00 5.39 4.05 11.12 0.71 -2.22 -1.29 14953
0.04 -0.00 5.96 3.92 10.65 0.60 -2.04 -1.02 14960
0.03 -0.00 6.77 3.57 9.82 0.51 -1.73 -0.76 14966
0.05 -0.01 7.09 3.22 9.18 0.44 -1.41 -0.51 14972
0.04 -0.00 6.90 2.87 8.75 0.40 -1.11 -0.29 14979
0.04 -0.00 6.42 2.45 8.50 0.38 -0.87 -0.04 14985
0.04 -0.00 5.83 2.17 8.60 0.37 -0.73 0.21 14991
0.04 -0.00 5.40 1.99 8.66 0.37 -0.65 0.46 14998
0.04 -0.00 5.10 1.97 8.64 0.38 -0.62 0.68 15004
0.03 -0.00 4.85 1.92 8.66 0.39 -0.61 0.87 15010
0.04 -0.00 4.60 1.79 8.65 0.38 -0.61 1.00 15016
0.03 -0.00 4.29 1.81 8.78 0.38 -0.60 1.10 15023
0.02 -0.00 4.19 1.82 8.88 0.37 -0.58 1.10 15029
0.03 0.00 4.10 1.87 9.11 0.34 -0.55 1.08 15035
0.03 -0.00 4.09 1.92 9.43 0.28 -0.53 1.03 15042
0.02 -0.00 3.96 1.88 9.63 0.19 -0.51 0.97 15048
0.02 -0.00 3.73 1.72 9.56 0.07 -0.53 0.88 15054
0.03 -0.00 3.63 1.54 9.58 -0.01 -0.55 0.78 15060
0.03 -0.00 3.78 1.32 9.65 -0.11 -0.57 0.69 15067
0.01 -0.00 3.85 1.12 9.60 -0.20 -0.58 0.61 15073
0.03 -0.00 3.95 0.93 9.52 -0.30 -0.57 0.54 15079
0.03 -0.00 4.23 0.81 9.64 -0.38 -0.53 0.48 15086
0.03 -0.00 4.33 0.60 9.68 -0.47 -0.47 0.44 15092
0.03 -0.00 4.29 0.34 9.74 -0.55 -0.41 0.42 15098
0.04 -0.00 4.22 0.13 9.70 -0.61 -0.37 0.42 15105
0.03 -0.00 4.01 -0.17 9.46 -0.66 -0.34 0.44 15111
0.03 -0.00 3.82 -0.49 9.20 -0.70 -0.35 0.46 15117
0.03 -0.00 3.54 -0.74 8.74 -0.71 -0.38 0.49 15123
0.03 -0.00 3.37 -0.99 8.41 -0.70 -0.43 0.51 15130
0.03 -0.00 3.23 -1.11 8.10 -0.66 -0.47 0.54 15136
0.03 0.00 3.28 -1.25 7.91 -0.61 -0.49 0.55 15142
0.04 -0.00 3.38 -1.27 7.83 -0.55 -0.48 0.57 15149
0.04 -0.00 3.66 -1.19 8.10 -0.49 -0.43 0.57 15155
0.05 0.00 4.01 -1.04 8.68 -0.45 -0.34 0.58 15161
0.04 -0.00 4.21 -0.89 9.28 -0.44 -0.21 0.60 15168
0.03 -0.00 4.31 -0.75 9.97 -0.46 -0.07 0.63 15174
0.03 -0.00 3.68 -0.68 10.55 -0.52 0.04 0.68 15180
0.04 -0.00 4.07 -0.80 10.88 -0.61 0.13 0.75 15186
0.04 -0.00 3.69 -0.99 10.88 -0.70 0.17 0.86 15193
0.04 -0.00 3.16 -1.20 10.68 -0.78 0.14 0.91 15199
0.05 -0.00 2.71 -1.51 9.83 -0.84 0.05 0.99 15206
0.04 -0.00 2.49 -1.79 10.26 -0.86 -0.06 1.03 15212
0.03 -0.00 2.44 -2.01 10.11 -0.85 -0.14 1.02 15218
0.05 -0.00 2.62 -2.03 10.13 -0.84 -0.18 0.98 15224
0.03 -0.00 2.76 -1.94 10.07 -0.84 -0.15 0.91 15230
0.04 -0.00 2.65 -1.89 9.98 -0.86 -0.09 0.81 15238
0.04 -0.00 2.42 -2.00 9.93 -0.89 -0.05 0.67 15244
0.04 -0.00 2.10 -2.15 9.97 -0.92 -0.02 0.53 15250
0.03 -0.00 1.90 -2.38 10.21 -0.94 0.01 0.39 15256
0.03 -0.00 1.66 -2.57 10.35 -0.96 0.05 0.29 15262
0.04 -0.00 1.15 -2.79 10.36 -0.99 0.06 0.14 15268
0.02 -0.00 0.71 -3.12 10.24 -1.01 0.05 0.07 15276
0.04 -0.00 0.38 -3.46 10.18 -1.02 0.01 -0.02 15282
0.04 -0.00 0.08 -3.85 10.15 -1.02 -0.04 -0.09 15288
0.02 -0.00 -0.04 -4.09 10.04 -0.99 -0.10 -0.17 15294
0.05 -0.00 0.02 -4.30 9.92 -0.97 -0.14 -0.27 15300
0.03 -0.00 -0.03 -4.42 9.64 -0.95 -0.17 -0.39 15306
0.03 -0.00 -0.12 -4.58 9.46 -0.94 -0.19 -0.55 15313
0.04 0.01 -0.17 -4.78 9.30 -0.92 -0.19 -0.77 15320
0.04 -0.00 -0.16 -4.91 9.20 -0.90 -0.18 -1.02 15326
0.02 -0.00 -0.09 -4.90 9.13 -0.89 -0.14 -1.31 15332
0.04 0.00 0.02 -4.95 8.98 -0.89 -0.07 -1.63 15338
0.03 -0.00 0.01 -5.27 8.82 -0.90 0.01 -1.86 15344
0.03 -0.00 -0.02 -5.53 8.60 -0.92 0.09 -2.15 15351
0.03 -0.00 0.01 -5.77 8.43 -0.92 0.14 -2.40 15357
0.04 -0.00 -0.76 -16.36 9.83 -0.81 -0.05 -2.66 15364
0.04 -0.00 -5.77 -9.65 28.89 0.76 -1.05 -3.08 15370
0.02 -0.00 0.62 -6.04 -8.57 0.31 -0.01 -3.12 15376
0.05 0.00 6.40 -43.44 21.27 0.70 -1.12 -3.15 15383
0.03 0.01 6.92 -44.22 4.48 -0.52 -0.72 -2.60 15389
0.02 0.10 4.03 -10.47 8.64 -0.33 -0.07 -0.62 15395
0.02 0.11 2.62 -8.34 11.40 -0.05 -0.06 0.18 15401
0.02 0.10 0.93 -2.46 9.56 0.01 -0.08 0.28 15409
0.05 0.10 -1.23 2.15 10.98 -0.02 0.01 0.24 15415
0.04 0.08 -0.34 0.85 9.90 -0.13 0.06 0.05 15421
0.04 0.16 0.28 -0.00 10.29 -0.18 0.09 0.03 15427
0.05 0.27 0.93 -0.70 10.25 -0.15 0.09 0.08 15433
0.04 0.29 0.87 -1.13 10.33 -0.10 0.07 0.12 15440
0.04 0.35 0.65 -0.52 10.10 -0.07 0.06 0.12 15447
0.04 0.41 0.51 -1.08 9.69 -0.05 0.07 0.11 15453
0.04 0.37 0.58 -0.65 9.67 -0.05 0.10 0.10 15459
0.05 0.44 0.62 -0.65 9.99 -0.05 0.11 0.11 15466
0.03 0.46 0.66 -0.71 10.75 -0.03 0.11 0.11 15472
0.05 0.49 0.63 -0.64 10.23 -0.03 0.11 0.10 15478
0.06 0.50 0.67 -0.69 10.15 -0.02 0.11 0.09 15484
0.07 0.46 0.62 -0.67 10.15 -0.01 0.11 0.09 15492
0.04 0.49 0.68 -0.69 10.23 -0.01 0.11 0.08 15498
0.03 0.47 0.73 -0.74 10.06 -0.01 0.10 0.08 15504
0.04 0.46 0.79 -0.77 10.19 -0.01 0.09 0.08 15510
0.07 0.45 0.74 -0.75 10.08 -0.01 0.08 0.08 15516
