Voltage_01 Voltage_02 Acc_x Acc_y Acc_z Gyro_x Gyro_y Gyro_z Time
5000
0.05 0.29 1.04 -0.64 9.96 -0.01 -0.02 0.04 23
0.05 0.26 1.03 -0.65 9.96 -0.01 -0.02 0.04 29
0.05 0.28 1.04 -0.69 9.89 -0.01 -0.02 0.04 35
0.04 0.27 1.05 -0.68 9.95 -0.02 -0.02 0.03 41
0.04 0.29 1.03 -0.66 9.98 -0.02 -0.02 0.04 48
0.04 0.28 1.08 -0.63 9.98 -0.02 -0.02 0.04 54
0.05 0.26 1.04 -0.68 9.98 -0.01 -0.03 0.04 60
0.05 0.27 1.05 -0.68 10.01 -0.01 -0.04 0.04 66
0.04 0.27 1.04 -0.66 9.95 -0.01 -0.05 0.03 72
0.03 0.30 1.07 -0.67 9.97 -0.01 -0.06 0.03 78
0.04 0.31 1.07 -0.66 9.96 -0.01 -0.06 0.03 84
0.05 0.29 1.08 -0.64 9.93 -0.01 -0.07 0.03 91
0.04 0.26 1.02 -0.67 9.96 -0.01 -0.07 0.03 97
0.04 0.24 1.04 -0.65 9.97 -0.01 -0.06 0.03 103
0.04 0.25 1.05 -0.69 10.01 -0.01 -0.06 0.03 109
0.05 0.27 1.04 -0.68 9.98 -0.01 -0.05 0.04 115
0.04 0.25 0.98 -0.67 9.99 -0.01 -0.05 0.04 122
0.03 0.25 1.04 -0.66 9.99 -0.02 -0.05 0.04 129
0.04 0.26 1.03 -0.67 9.94 -0.01 -0.05 0.04 135
0.03 0.28 1.00 -0.66 9.91 -0.01 -0.05 0.04 141
0.05 0.27 1.02 -0.65 9.97 -0.01 -0.06 0.04 147
0.04 0.27 0.99 -0.65 9.94 -0.01 -0.06 0.04 153
0.03 0.28 1.03 -0.61 9.94 -0.01 -0.06 0.03 159
0.04 0.27 1.02 -0.63 9.98 -0.00 -0.06 0.03 165
0.06 0.27 1.04 -0.66 9.95 -0.01 -0.06 0.03 172
0.06 0.26 1.03 -0.68 9.94 -0.01 -0.06 0.03 178
0.06 0.26 0.99 -0.66 9.97 -0.01 -0.07 0.03 184
0.05 0.24 1.01 -0.65 9.86 -0.01 -0.07 0.03 190
0.05 0.28 0.98 -0.64 9.99 -0.01 -0.07 0.03 197
0.05 0.26 1.01 -0.68 10.02 -0.01 -0.07 0.03 203
0.06 0.24 0.99 -0.67 10.02 -0.01 -0.07 0.04 209
0.03 0.25 0.99 -0.63 9.96 -0.01 -0.07 0.03 216
0.06 0.26 1.02 -0.67 9.99 -0.01 -0.07 0.03 222
0.06 0.24 1.00 -0.67 9.98 -0.01 -0.07 0.03 228
0.06 0.21 0.96 -0.66 10.01 -0.01 -0.07 0.04 234
0.04 0.22 1.01 -0.69 10.03 -0.01 -0.06 0.04 240
0.04 0.24 1.02 -0.65 10.01 -0.01 -0.06 0.03 246
0.05 0.24 1.00 -0.64 10.01 -0.00 -0.06 0.04 253
0.05 0.24 0.99 -0.67 10.02 -0.00 -0.07 0.04 260
0.05 0.26 0.99 -0.63 9.95 0.03 -0.06 0.04 266
0.06 0.25 1.01 -0.71 9.96 0.00 -0.07 0.04 272
0.06 0.22 1.00 -0.66 9.92 0.00 -0.07 0.04 278
0.05 0.25 1.00 -0.68 9.98 0.00 -0.06 0.04 284
0.03 0.23 1.03 -0.65 10.00 0.01 -0.06 0.04 290
0.03 0.24 1.03 -0.63 10.01 0.02 -0.05 0.04 296
0.04 0.19 1.09 -0.63 9.97 0.02 -0.04 0.03 303
0.04 0.15 1.06 -0.78 10.10 0.03 -0.03 0.04 309
0.03 0.14 1.07 -0.71 9.99 0.03 -0.02 0.04 315
0.04 0.13 0.99 -0.71 9.99 0.04 -0.01 0.03 322
0.06 0.04 1.27 -0.83 9.94 0.04 -0.01 0.02 328
0.05 0.04 1.19 -0.82 10.08 0.04 0.01 0.01 334
0.04 0.04 1.10 -0.86 10.08 0.04 0.03 -0.01 340
0.05 0.02 1.29 -0.76 9.99 0.05 0.04 -0.03 347
0.06 0.01 1.13 -0.75 10.12 0.06 0.05 -0.05 353
0.06 -0.01 1.28 -0.93 9.85 0.08 0.06 -0.06 359
0.05 -0.01 1.34 -0.80 10.10 0.12 0.06 -0.07 365
0.05 -0.00 1.35 -0.99 10.21 0.19 0.05 -0.09 371
0.05 -0.00 1.18 -0.74 10.42 0.24 0.02 -0.13 377
0.06 -0.01 2.03 -3.63 10.71 0.38 -0.01 -0.19 384
0.05 -0.01 0.57 -0.21 12.59 0.70 0.07 -0.22 391
0.05 -0.01 1.56 -0.76 14.15 1.29 0.38 -0.24 397
0.05 -0.01 1.25 -0.58 15.26 1.87 0.80 -0.29 403
0.05 -0.00 0.86 -1.15 16.28 2.12 1.38 -0.30 409
0.04 -0.00 0.50 -1.01 14.83 2.18 1.85 -0.25 415
0.04 -0.00 0.36 -1.59 14.73 2.15 2.13 -0.16 421
0.05 0.00 0.12 -2.25 14.02 2.11 2.42 -0.06 428
0.05 -0.01 -0.02 -2.45 15.12 2.12 2.70 0.06 434
0.05 -0.00 0.33 -2.65 14.54 2.12 2.91 0.20 440
0.03 -0.00 0.40 -3.33 15.10 2.12 3.11 0.33 446
0.05 0.00 0.13 -3.32 15.66 2.11 3.26 0.43 453
0.04 -0.00 0.27 -3.06 15.52 2.11 3.37 0.51 459
0.04 -0.00 0.65 -2.38 15.40 2.08 3.44 0.54 465
0.04 -0.00 1.42 -2.29 14.72 2.01 3.56 0.56 472
0.04 0.00 2.00 -2.13 13.94 1.95 3.64 0.53 478
0.05 -0.00 1.25 -2.08 13.99 1.94 3.72 0.47 484
0.05 -0.01 -0.86 -2.41 13.87 2.00 3.69 0.39 490
0.03 -0.00 -4.84 -1.25 11.80 1.98 3.55 0.27 496
0.04 -0.00 -7.68 0.04 10.05 1.90 3.15 0.04 502
0.05 -0.00 -12.55 2.15 9.19 1.64 2.14 -0.29 508
0.04 -0.00 -19.45 5.45 10.97 1.11 0.52 -1.11 516
0.04 -0.00 -14.30 5.38 12.61 0.33 -1.29 -1.83 522
0.05 -0.00 -8.45 4.31 14.63 -0.28 -2.40 -2.10 528
0.04 -0.00 -4.80 3.09 15.00 -0.64 -2.73 -2.31 534
0.03 -0.00 -2.99 2.66 12.98 -0.82 -2.67 -2.65 540
0.04 -0.00 -1.74 2.12 9.83 -0.89 -2.60 -2.97 546
0.04 -0.00 -1.07 1.63 7.89 -0.88 -2.56 -3.15 552
0.03 -0.00 -0.81 1.83 7.22 -0.80 -2.54 -3.24 559
0.03 -0.00 -0.53 1.84 7.86 -0.65 -2.56 -3.24 565
0.02 -0.00 0.08 2.29 9.37 -0.55 -2.62 -3.11 571
0.03 -0.00 1.13 3.61 10.45 -0.47 -2.68 -2.86 578
0.05 -0.00 2.46 4.00 10.80 -0.51 -2.75 -2.59 584
0.04 -0.00 3.45 4.60 10.79 -0.64 -2.82 -2.24 590
0.04 -0.00 4.51 4.72 10.60 -0.83 -2.86 -1.90 596
0.04 -0.00 5.42 4.41 10.20 -0.98 -2.85 -1.58 603
0.05 -0.00 6.24 4.09 9.94 -1.11 -2.80 -1.24 609
0.03 -0.00 6.52 3.59 9.66 -1.20 -2.70 -0.93 615
0.03 -0.00 6.60 3.07 9.13 -1.26 -2.52 -0.69 621
0.02 -0.00 6.73 2.45 8.67 -1.28 -2.33 -0.43 627
0.02 0.00 6.68 1.92 8.30 -1.25 -2.14 -0.20 633
0.04 -0.00 6.60 1.48 8.42 -1.22 -1.94 0.02 640
0.03 -0.00 6.49 1.30 8.72 -1.18 -1.77 0.24 646
0.02 -0.00 6.48 1.09 9.13 -1.15 -1.56 0.40 652
0.02 -0.00 6.39 0.88 9.29 -1.15 -1.36 0.60 658
0.02 -0.00 6.21 0.66 9.50 -1.20 -1.16 0.78 664
0.04 -0.00 6.12 0.33 9.82 -1.20 -1.00 0.95 671
0.03 -0.00 5.80 -0.61 9.85 -1.23 -0.83 1.12 677
0.03 -0.00 5.48 -0.41 9.81 -1.26 -0.69 1.24 684
0.01 -0.00 5.02 -0.82 9.41 -1.27 -0.58 1.37 690
0.03 -0.00 4.71 -1.07 9.34 -1.27 -0.50 1.48 696
0.04 -0.00 4.52 -1.24 9.34 -1.27 -0.43 1.56 702
0.03 -0.00 4.26 -1.32 9.50 -1.27 -0.37 1.61 708
0.03 -0.00 3.96 -1.52 9.73 -1.27 -0.31 1.65 714
0.02 -0.00 3.77 -1.71 9.91 -1.28 -0.27 1.66 720
0.02 -0.00 3.66 -1.88 10.28 -1.29 -0.24 1.64 727
0.04 -0.00 3.62 -2.01 10.33 -1.32 -0.23 1.59 733
0.02 -0.00 3.59 -2.25 10.24 -1.35 -0.23 1.52 739
0.02 -0.00 3.67 -2.49 10.16 -1.36 -0.25 1.44 745
0.03 0.00 3.91 -2.79 10.02 -1.36 -0.26 1.33 752
0.03 -0.00 4.17 -3.01 9.79 -1.35 -0.26 1.22 758
0.03 -0.00 4.52 -3.05 9.69 -1.32 -0.23 1.10 764
0.02 -0.00 4.98 -3.09 9.90 -1.30 -0.19 0.99 771
0.02 -0.00 5.43 -3.25 10.48 -1.29 -0.15 0.87 777
0.04 -0.00 5.95 -3.43 10.92 -1.30 -0.08 0.79 783
0.02 -0.00 6.33 -3.66 11.05 -1.35 -0.00 0.71 789
0.03 -0.00 6.60 -4.09 10.95 -1.40 0.06 0.63 795
0.02 -0.00 6.85 -4.58 10.59 -1.44 0.12 0.56 801
0.03 -0.00 6.96 -5.14 10.13 -1.45 0.15 0.48 807
0.03 -0.00 7.02 -6.12 9.67 -1.44 0.20 0.40 814
0.03 -0.00 7.15 -5.78 9.41 -1.40 0.25 0.33 820
0.02 -0.00 7.19 -5.86 9.16 -1.35 0.33 0.25 826
0.02 -0.00 7.17 -5.81 8.98 -1.30 0.39 0.19 833
0.02 -0.00 7.22 -5.53 8.95 -1.24 0.50 0.14 839
0.04 -0.00 7.24 -5.23 8.95 -1.19 0.56 0.11 845
0.03 -0.00 7.07 -4.95 8.95 -1.15 0.69 0.11 851
0.02 -0.00 6.74 -4.81 8.96 -1.11 0.86 0.14 858
0.02 -0.00 5.97 -4.93 8.91 -1.08 1.02 0.21 864
0.03 -0.00 5.31 -5.15 8.90 -1.03 1.11 0.29 870
0.03 -0.00 4.70 -5.43 8.74 -0.96 1.16 0.39 876
0.02 -0.00 4.23 -5.69 8.44 -0.88 1.12 0.43 882
0.02 -0.00 4.18 -6.13 8.02 -0.79 1.03 0.46 888
0.03 -0.00 -11.26 -20.02 49.96 0.43 1.89 0.92 894
0.05 -0.00 -1.81 -6.26 -4.72 1.00 1.34 1.10 901
0.02 -0.00 5.97 -11.77 -7.14 0.97 1.38 1.01 907
0.02 -0.00 2.62 -20.99 8.18 1.22 1.09 1.12 913
0.03 0.00 1.40 -18.91 7.03 1.79 0.72 1.36 920
0.04 0.01 -8.57 -29.48 1.99 2.19 -0.41 1.65 926
0.03 0.08 -8.55 -19.14 12.27 3.10 -1.55 1.82 932
0.03 0.14 -12.77 -5.20 19.38 3.65 -1.60 1.51 939
0.03 0.13 -12.68 -0.37 58.66 1.34 -2.00 0.46 945
0.04 0.18 0.14 -1.40 4.88 -0.07 0.09 0.01 951
0.04 0.22 -0.85 -1.55 9.46 -0.18 -0.05 -0.01 958
0.03 0.25 -3.11 -0.25 11.76 -0.21 0.07 -0.31 964
0.04 0.26 0.31 -1.02 9.32 -0.25 0.09 -0.45 970
0.03 0.26 6.82 -0.36 8.59 -0.06 -0.07 -0.23 976
0.03 0.29 2.44 -0.43 9.64 0.00 -0.02 0.08 983
0.04 0.24 1.22 -0.80 9.93 -0.01 -0.02 0.12 989
0.05 0.27 0.17 -0.79 9.96 -0.02 -0.00 0.12 995
0.05 0.34 -0.08 -0.56 10.28 -0.02 0.04 0.08 1001
0.04 0.38 0.14 -1.19 9.92 -0.01 0.10 0.07 1007
0.06 0.31 0.67 -0.80 10.01 -0.01 0.13 0.08 1014
0.04 0.33 0.91 -0.98 10.06 -0.02 0.13 0.11 1020
0.04 0.33 1.04 -1.16 10.02 -0.01 0.14 0.13 1027
0.06 0.32 0.79 -0.91 10.10 -0.02 0.13 0.13 1033
0.05 0.31 0.87 -0.72 9.94 -0.03 0.13 0.12 1039
0.05 0.30 1.01 -0.63 9.86 -0.04 0.11 0.10 1046
0.05 0.39 1.25 -0.72 10.08 -0.04 0.08 0.08 1052
0.05 0.36 1.10 -0.64 9.94 -0.05 0.05 0.06 1058
0.04 0.37 0.97 -0.75 10.01 -0.04 0.03 0.06 1064
0.05 0.38 0.75 -0.81 9.96 -0.04 0.01 0.06 1071
0.05 0.39 0.89 -0.73 10.04 -0.03 0.00 0.06 1077
0.04 0.45 0.90 -0.77 10.01 -0.03 -0.01 0.06 1084
0.04 0.47 0.90 -0.74 10.05 -0.02 -0.02 0.07 1090
0.05 0.46 0.90 -0.71 9.98 -0.02 -0.02 0.07 1096
0.05 0.43 0.93 -0.74 10.03 -0.02 -0.03 0.06 1102
0.06 0.45 0.89 -0.77 9.95 -0.02 -0.04 0.07 1108
0.06 0.45 0.86 -0.72 10.00 -0.02 -0.03 0.07 1115
0.06 0.46 0.90 -0.69 10.00 -0.02 -0.03 0.07 1122
0.06 0.53 0.86 -0.73 9.93 -0.01 -0.03 0.07 1128
0.06 0.53 0.91 -0.73 10.06 -0.01 -0.02 0.07 1134
0.07 0.50 0.85 -0.76 9.95 -0.01 -0.01 0.06 1140
0.05 0.51 0.85 -0.72 9.97 -0.01 -0.00 0.06 1146
0.06 0.50 0.87 -0.76 9.96 -0.01 0.00 0.06 1153
0.05 0.50 0.90 -0.75 9.95 -0.01 0.00 0.06 1159
0.05 0.49 0.88 -0.69 10.00 -0.00 0.01 0.06 1166
0.05 0.50 0.88 -0.72 10.02 0.03 0.02 0.06 1172
0.05 0.50 0.93 -0.79 10.04 0.00 0.03 0.06 1178
0.05 0.48 0.91 -0.74 9.97 0.01 0.03 0.06 1184
0.05 0.45 0.94 -0.76 9.92 0.01 0.03 0.06 1190
0.06 0.44 0.95 -0.75 9.98 0.00 0.03 0.06 1197
0.05 0.43 0.93 -0.74 9.92 0.00 0.03 0.05 1203
0.05 0.41 0.93 -0.73 9.95 0.00 0.03 0.06 1210
0.05 0.41 0.96 -0.76 9.95 0.00 0.03 0.05 1216
0.06 0.40 0.88 -0.76 9.96 0.00 0.02 0.06 1222
0.05 0.39 0.94 -0.73 9.94 -0.00 0.02 0.06 1228
0.04 0.40 0.94 -0.76 9.99 0.00 0.02 0.05 1234
0.05 0.40 0.95 -0.78 9.98 -0.00 0.02 0.06 1241
0.06 0.39 0.97 -0.73 9.97 -0.00 0.01 0.06 1247
0.04 0.38 0.96 -0.75 9.96 -0.01 0.02 0.05 1253
0.04 0.37 0.98 -0.73 9.96 -0.01 0.02 0.05 1259
0.05 0.38 0.98 -0.71 9.95 -0.01 0.01 0.05 1266
0.05 0.36 1.01 -0.74 9.97 -0.01 0.01 0.05 1272
0.05 0.34 1.00 -0.72 9.95 -0.01 0.00 0.05 1278
0.06 0.35 0.98 -0.74 9.96 -0.01 0.00 0.05 1285
0.07 0.36 0.96 -0.73 9.97 -0.01 0.00 0.05 1291
0.06 0.36 0.99 -0.73 9.96 -0.01 0.00 0.05 1297
0.05 0.35 0.97 -0.75 9.94 -0.01 0.00 0.05 1303
0.07 0.35 0.95 -0.71 9.93 -0.01 0.00 0.05 1309
0.07 0.36 1.00 -0.74 9.96 -0.01 0.00 0.05 1316
0.06 0.36 0.98 -0.76 9.93 -0.01 0.00 0.04 1323
0.06 0.35 0.97 -0.74 9.95 -0.01 0.00 0.04 1329
0.06 0.36 0.97 -0.77 9.91 -0.01 0.00 0.04 1335
0.06 0.36 0.99 -0.74 9.96 -0.02 0.00 0.04 1341
0.06 0.36 0.98 -0.77 9.97 -0.02 0.01 0.04 1347
0.05 0.37 1.01 -0.76 9.96 -0.01 0.00 0.04 1353
0.05 0.36 1.02 -0.76 9.99 -0.01 0.01 0.04 1360
0.04 0.34 1.02 -0.71 9.96 -0.02 0.01 0.04 1367
0.04 0.31 1.00 -0.71 9.98 -0.01 0.01 0.04 1373
0.04 0.33 1.01 -0.70 9.95 -0.01 0.01 0.04 1379
0.05 0.34 1.03 -0.70 9.95 -0.01 0.00 0.04 1385
0.04 0.32 1.05 -0.75 9.91 -0.01 -0.00 0.04 1391
0.03 0.32 1.06 -0.74 9.94 -0.01 -0.01 0.04 1397
0.04 0.30 1.08 -0.73 9.95 -0.01 -0.01 0.03 1403
0.05 0.28 1.04 -0.73 9.95 -0.00 -0.02 0.04 1411
0.04 0.22 1.02 -0.76 9.98 -0.00 -0.03 0.03 1417
0.04 0.24 1.04 -0.74 9.92 -0.00 -0.03 0.02 1423
0.06 0.22 1.04 -0.72 9.97 -0.01 -0.04 0.02 1429
0.05 0.24 1.07 -0.73 9.93 -0.01 -0.04 0.02 1435
0.04 0.23 1.05 -0.77 9.92 -0.01 -0.05 0.02 1441
0.05 0.24 1.02 -0.76 9.94 -0.01 -0.06 0.02 1447
0.05 0.22 1.05 -0.73 9.95 -0.01 -0.06 0.02 1454
0.05 0.21 1.02 -0.73 9.98 -0.01 -0.06 0.01 1461
0.05 0.20 1.04 -0.77 9.91 -0.01 -0.07 0.02 1467
0.05 0.18 1.02 -0.75 10.02 -0.01 -0.08 0.01 1473
0.06 0.19 1.05 -0.77 9.95 -0.01 -0.08 0.02 1479
0.05 0.19 1.01 -0.76 9.97 -0.01 -0.08 0.02 1485
0.07 0.17 1.03 -0.74 9.95 -0.01 -0.08 0.02 1491
0.07 0.18 1.03 -0.75 9.96 -0.01 -0.08 0.02 1498
0.05 0.16 1.03 -0.74 9.99 -0.01 -0.08 0.02 1505
0.04 0.20 0.96 -0.72 9.96 -0.01 -0.08 0.02 1511
0.08 0.18 0.97 -0.77 9.96 -0.00 -0.07 0.02 1517
0.06 0.16 1.00 -0.76 9.92 -0.00 -0.07 0.02 1523
0.06 0.13 1.02 -0.73 9.92 -0.00 -0.07 0.02 1529
0.06 0.13 0.97 -0.76 9.96 -0.00 -0.07 0.02 1536
0.07 0.13 1.00 -0.78 9.97 -0.00 -0.07 0.02 1542
0.09 0.11 1.00 -0.76 10.02 -0.00 -0.06 0.02 1549
0.09 0.10 1.01 -0.76 9.98 -0.00 -0.06 0.02 1555
0.10 0.10 1.03 -0.78 10.00 0.00 -0.06 0.02 1561
0.09 0.09 0.99 -0.76 9.94 -0.00 -0.06 0.02 1567
0.10 0.05 1.02 -0.76 10.04 0.00 -0.06 0.02 1573
0.11 0.04 0.99 -0.76 10.08 0.00 -0.06 0.02 1580
0.12 0.05 1.00 -0.75 10.00 -0.00 -0.05 0.02 1586
0.11 0.01 1.03 -0.72 10.00 -0.00 -0.05 0.02 1593
0.11 0.03 0.96 -0.75 9.98 0.00 -0.04 0.02 1599
0.11 0.02 0.95 -0.78 10.02 0.00 -0.04 0.02 1605
0.12 0.01 1.02 -0.74 10.04 0.01 -0.03 0.01 1611
0.11 0.01 0.92 -0.77 10.03 0.01 -0.02 0.01 1617
0.12 0.00 0.94 -0.76 10.10 0.02 -0.01 0.01 1624
0.11 -0.01 0.99 -0.87 10.11 0.03 0.00 0.02 1631
0.12 0.01 1.03 -0.67 10.02 0.05 0.01 0.02 1637
0.13 0.01 1.06 -0.92 10.10 0.05 0.03 0.01 1643
0.13 -0.00 1.03 -0.77 10.00 0.06 0.04 0.01 1649
0.11 -0.01 1.15 -0.84 10.11 0.07 0.07 0.01 1655
0.12 -0.00 1.16 -1.08 10.03 0.07 0.09 0.00 1661
0.13 -0.01 1.04 -0.80 10.14 0.09 0.11 0.00 1669
0.11 -0.01 1.19 -0.86 10.10 0.11 0.12 -0.01 1675
0.10 -0.01 1.17 -0.92 10.16 0.15 0.12 -0.03 1681
0.10 -0.01 1.19 -0.97 10.45 0.20 0.12 -0.04 1687
0.08 -0.01 1.31 -0.88 10.69 0.28 0.09 -0.05 1693
0.07 -0.01 1.20 -0.97 11.03 0.48 0.13 -0.07 1699
0.09 -0.01 1.39 -0.94 11.63 0.83 0.26 -0.09 1705
0.07 -0.01 0.60 -0.90 12.38 1.28 0.45 -0.13 1713
0.06 -0.01 1.25 -1.38 14.53 1.72 0.69 -0.15 1719
0.05 0.00 1.12 -1.29 15.68 2.06 1.04 -0.18 1725
0.06 -0.01 1.20 -1.26 14.76 2.20 1.45 -0.18 1731
0.04 -0.00 1.34 -1.37 14.81 2.22 1.83 -0.16 1737
0.05 0.00 1.27 -1.81 14.78 2.24 2.19 -0.14 1743
0.05 -0.01 1.46 -1.81 14.75 2.26 2.49 -0.13 1751
0.07 -0.01 1.42 -1.90 14.54 2.26 2.82 -0.11 1757
0.05 0.00 1.16 -2.33 15.09 2.26 3.08 -0.07 1763
0.05 -0.01 1.49 -2.67 15.10 2.21 3.38 0.02 1769
0.05 -0.01 1.70 -3.09 15.67 2.14 3.57 0.07 1775
0.05 -0.00 1.69 -3.64 16.20 2.07 3.75 0.14 1781
0.06 -0.01 1.76 -3.57 16.20 1.99 3.92 0.20 1788
0.05 -0.00 1.34 -3.09 15.03 1.91 4.01 0.20 1795
0.04 -0.00 1.23 -3.26 14.47 1.86 4.06 0.18 1801
0.05 -0.00 0.15 -3.54 14.43 1.89 4.02 0.17 1807
0.04 -0.00 -0.72 -3.66 13.40 1.96 3.91 0.18 1813
0.03 -0.00 -3.11 -3.59 11.37 2.00 3.67 0.17 1819
0.05 0.00 -7.27 -3.14 10.00 1.99 3.18 0.09 1826
0.04 -0.00 -12.02 -0.10 10.78 1.88 2.34 -0.29 1832
0.04 -0.00 -12.84 1.87 9.92 1.59 1.07 -0.79 1839
0.04 0.00 -18.73 4.85 14.13 0.96 -0.50 -1.48 1845
0.04 -0.00 -10.84 4.24 13.19 0.17 -1.80 -1.98 1851
0.03 -0.00 -5.62 2.93 13.19 -0.34 -2.47 -2.18 1858
0.05 -0.01 -3.93 1.74 12.03 -0.50 -2.64 -2.40 1864
0.04 -0.00 -3.01 0.94 9.65 -0.49 -2.58 -2.69 1870
0.04 -0.00 -1.31 0.82 7.95 -0.37 -2.56 -2.92 1876
0.04 -0.00 -0.77 1.52 7.75 -0.25 -2.62 -2.99 1883
0.05 -0.00 0.26 2.79 8.60 -0.17 -2.72 -2.94 1889
0.03 -0.00 1.14 3.80 10.40 -0.17 -2.75 -2.75 1895
0.02 -0.00 1.97 4.62 11.46 -0.26 -2.70 -2.47 1902
0.03 0.00 2.87 5.19 11.60 -0.46 -2.63 -2.15 1908
0.03 -0.00 3.47 5.52 11.28 -0.70 -2.58 -1.83 1914
0.01 -0.00 4.00 5.20 10.39 -0.94 -2.55 -1.51 1921
0.03 0.01 4.32 4.52 9.57 -1.11 -2.53 -1.20 1927
0.02 -0.00 4.65 3.70 8.84 -1.23 -2.53 -0.93 1933
0.03 -0.00 5.35 3.31 8.52 -1.27 -2.52 -0.68 1939
0.03 -0.00 6.01 3.02 8.61 -1.27 -2.45 -0.46 1946
0.04 -0.00 6.50 2.73 8.71 -1.28 -2.27 -0.23 1952
0.03 -0.00 6.81 2.37 8.44 -1.30 -2.04 -0.01 1958
0.03 -0.00 7.21 2.01 9.92 -1.32 -1.79 0.19 1965
0.03 -0.00 6.81 1.70 8.57 -1.34 -1.53 0.38 1971
0.04 -0.00 6.41 1.10 8.59 -1.32 -1.33 0.57 1977
0.03 -0.00 5.90 0.70 8.69 -1.28 -1.12 0.71 1983
0.03 -0.00 5.43 0.46 8.85 -1.23 -0.98 0.85 1989
0.03 -0.00 5.17 0.38 9.17 -1.17 -0.87 0.99 1995
0.05 0.00 5.08 0.40 9.70 -1.14 -0.78 1.11 2002
0.03 -0.00 5.07 0.54 10.10 -1.15 -0.69 1.21 2009
0.02 -0.00 4.94 0.51 10.29 -1.18 -0.59 1.29 2015
0.03 0.01 4.72 0.33 10.30 -1.25 -0.52 1.33 2021
0.03 -0.00 4.28 0.06 10.10 -1.30 -0.48 1.35 2027
0.02 -0.00 3.90 -0.11 9.81 -1.34 -0.46 1.34 2033
0.03 -0.00 3.66 -0.39 9.59 -1.34 -0.47 1.31 2039
0.05 0.00 3.50 -0.66 9.44 -1.31 -0.49 1.26 2046
0.02 -0.00 3.53 -0.93 9.51 -1.27 -0.49 1.20 2053
0.02 0.00 3.73 -1.03 9.79 -1.22 -0.47 1.14 2059
0.02 0.00 3.91 -1.07 10.27 -1.16 -0.40 1.09 2065
0.03 -0.00 3.97 -1.05 11.09 -1.13 -0.32 1.05 2071
0.02 -0.00 3.84 -1.15 11.70 -1.14 -0.24 1.02 2077
0.02 0.00 3.55 -1.19 11.99 -1.18 -0.21 1.00 2084
0.03 -0.00 3.26 -1.32 12.03 -1.25 -0.23 0.99 2091
0.03 -0.00 3.21 -1.40 11.91 -1.31 -0.29 0.96 2097
0.03 0.01 3.25 -1.61 11.55 -1.37 -0.36 0.91 2103
0.03 -0.00 3.34 -2.05 11.11 -1.40 -0.42 0.84 2109
0.03 -0.00 3.37 -2.56 10.61 -1.40 -0.45 0.75 2115
0.03 0.01 3.46 -3.00 10.16 -1.35 -0.46 0.64 2122
0.04 -0.00 3.44 -3.39 9.80 -1.29 -0.44 0.52 2128
0.03 -0.00 3.27 -3.59 9.24 -1.18 -0.45 0.39 2135
0.02 0.00 2.46 -3.82 8.65 -1.05 -0.50 0.25 2141
0.03 0.00 2.83 -4.09 8.33 -0.89 -0.51 0.12 2147
0.03 -0.00 2.93 -4.04 9.17 -0.71 -0.54 0.02 2153
0.02 -0.00 3.83 -3.68 9.91 -0.54 -0.52 -0.07 2159
0.03 -0.00 5.14 -3.14 11.36 -0.44 -0.36 -0.11 2166
0.03 -0.00 5.99 -2.62 12.12 -0.45 -0.08 -0.09 2172
0.02 -0.00 6.53 -2.04 12.56 -0.56 0.23 -0.03 2179
0.02 -0.00 6.43 -1.77 12.54 -0.68 0.48 0.07 2185
0.03 -0.00 5.92 -1.73 12.21 -0.85 0.61 0.19 2191
0.03 -0.00 5.09 -1.98 11.23 -1.02 0.65 0.30 2197
0.02 -0.00 4.22 -2.51 10.44 -1.14 0.56 0.38 2203
0.03 0.01 3.72 -3.01 9.93 -1.19 0.40 0.43 2210
0.04 -0.00 3.70 -3.41 9.53 -1.18 0.25 0.43 2216
0.03 -0.00 4.08 -3.73 9.11 -1.15 0.20 0.36 2223
0.02 -0.00 4.56 -3.93 8.85 -1.12 0.26 0.22 2229
0.04 0.00 4.74 -4.24 8.77 -1.08 0.42 0.04 2235
0.03 -0.00 4.60 -4.63 8.58 -1.05 0.61 -0.18 2241
0.03 -0.00 4.09 -5.03 8.09 -1.00 0.85 -0.39 2247
0.02 -0.00 3.63 -5.40 7.76 -0.93 1.09 -0.57 2253
0.03 -0.00 3.02 -5.49 7.58 -0.84 1.27 -0.77 2259
0.03 -0.00 2.61 -5.46 7.82 -0.75 1.37 -0.92 2267
0.03 -0.00 2.44 -5.69 7.45 -0.69 1.38 -1.04 2273
0.02 -0.00 0.05 -21.67 13.42 -0.44 1.38 -1.06 2279
0.03 -0.00 7.80 -6.22 4.53 0.72 1.76 -1.09 2285
0.03 -0.00 1.87 -10.52 -2.63 0.67 1.49 -1.17 2291
0.02 -0.00 -0.71 -21.32 5.33 0.83 0.43 -1.24 2297
0.03 0.02 -4.32 -31.03 1.09 0.86 -0.48 -1.33 2305
0.03 0.05 -6.33 -43.43 1.79 1.21 -0.95 -1.22 2311
0.03 0.22 -0.16 -42.16 8.19 2.02 -1.30 -0.85 2317
0.04 0.31 2.09 -11.28 58.74 1.92 -2.69 -0.42 2323
0.03 0.34 4.00 -3.86 11.03 0.20 -1.06 0.11 2329
0.01 0.43 -0.14 -0.16 13.48 0.00 -0.38 0.23 2336
0.02 0.45 0.29 0.60 10.62 -0.18 0.04 0.13 2342
0.01 0.48 -0.16 1.55 8.79 -0.06 -0.07 -0.00 2349
0.02 0.47 2.01 0.35 8.73 0.14 -0.50 -0.13 2355
0.00 0.50 2.10 -1.07 10.47 0.21 -0.55 -0.04 2361
0.00 0.46 0.87 -1.47 10.52 0.16 -0.32 0.06 2368
-0.00 0.49 0.42 -0.84 10.27 0.08 -0.20 0.07 2374
0.01 0.46 0.31 -0.31 9.80 0.05 -0.14 0.03 2380
0.04 0.41 0.99 -0.56 10.13 0.04 -0.13 0.02 2386
0.05 0.40 1.51 -1.27 10.30 0.02 -0.15 0.02 2393
0.04 0.38 0.96 -1.09 10.13 0.02 -0.14 0.02 2399
0.05 0.36 0.64 -0.74 10.18 0.02 -0.12 0.01 2406
0.06 0.33 0.86 -0.84 10.25 0.02 -0.09 0.01 2412
0.06 0.34 0.93 -0.84 10.14 0.01 -0.07 0.02 2418
0.06 0.30 0.84 -0.81 10.17 0.01 -0.05 0.02 2424
0.08 0.30 0.85 -0.79 10.26 0.01 -0.03 0.03 2430
0.10 0.25 0.77 -0.80 10.08 0.01 -0.01 0.04 2438
0.10 0.21 0.64 -0.88 10.08 0.01 0.03 0.04 2444
0.10 0.18 0.86 -0.79 10.09 0.02 0.01 0.05 2450
0.12 0.21 0.82 -0.78 9.99 0.01 0.03 0.05 2456
0.11 0.22 0.86 -0.79 10.00 0.02 0.04 0.06 2462
0.12 0.17 0.86 -0.76 10.00 0.02 0.05 0.06 2468
0.12 0.16 0.89 -0.78 10.01 0.02 0.05 0.06 2476
0.11 0.14 0.91 -0.75 10.04 0.03 0.06 0.06 2482
0.10 0.12 0.91 -0.73 10.02 0.03 0.06 0.05 2488
0.11 0.11 0.92 -0.77 9.99 0.03 0.06 0.05 2494
0.11 0.09 0.91 -0.80 9.98 0.03 0.06 0.06 2500
0.09 0.07 0.88 -0.79 9.96 0.03 0.05 0.06 2506
0.09 0.06 0.90 -0.80 9.98 0.03 0.05 0.05 2512
0.12 0.06 0.87 -0.74 10.01 0.03 0.04 0.06 2520
0.10 0.01 0.93 -0.76 9.96 0.03 0.03 0.06 2526
0.10 0.01 0.97 -0.70 9.93 0.03 0.02 0.06 2532
0.12 0.03 0.97 -0.83 9.96 0.03 0.01 0.06 2538
0.12 -0.00 0.93 -0.80 9.96 0.03 0.00 0.06 2544
0.11 -0.01 0.93 -0.82 9.98 0.03 0.00 0.06 2550
0.10 0.00 0.95 -0.81 9.94 0.02 -0.00 0.05 2556
0.11 0.00 0.92 -0.80 9.94 0.02 -0.00 0.05 2563
0.12 -0.01 0.93 -0.82 9.91 0.01 -0.01 0.05 2569
0.13 -0.01 0.99 -0.80 9.93 0.01 -0.01 0.05 2576
0.12 -0.01 0.95 -0.84 9.92 0.01 -0.01 0.05 2582
0.13 0.00 0.95 -0.78 9.94 0.01 -0.01 0.05 2588
0.14 -0.01 0.98 -0.82 9.96 0.01 -0.01 0.05 2594
0.14 -0.01 0.95 -0.81 9.98 0.01 -0.00 0.05 2600
0.12 -0.01 0.96 -0.82 10.01 0.02 -0.00 0.05 2607
0.13 -0.01 1.00 -0.81 9.96 0.02 0.01 0.04 2613
0.14 -0.01 0.95 -0.83 9.98 0.02 0.01 0.04 2619
0.12 -0.01 0.97 -0.79 9.93 0.02 0.01 0.04 2625
0.12 -0.01 1.02 -0.87 9.92 0.02 0.02 0.04 2631
0.12 -0.01 1.02 -0.83 9.96 0.01 0.01 0.04 2637
0.14 -0.01 1.00 -0.84 9.95 0.01 0.01 0.04 2644
0.12 -0.01 0.99 -0.86 9.91 0.01 0.01 0.04 2651
0.11 -0.01 1.01 -0.89 9.93 0.00 0.01 0.03 2657
0.10 -0.01 1.03 -0.86 9.92 -0.00 0.00 0.03 2663
0.11 -0.01 1.00 -0.83 9.94 -0.01 -0.00 0.03 2669
0.12 -0.01 1.00 -0.85 9.94 -0.01 -0.00 0.03 2675
0.11 -0.01 1.01 -0.85 9.94 -0.01 -0.01 0.03 2681
0.09 -0.01 1.01 -0.86 9.97 -0.02 -0.00 0.03 2688
0.12 -0.01 1.02 -0.83 9.96 -0.02 -0.00 0.03 2694
0.12 -0.01 1.03 -0.83 10.00 -0.02 -0.00 0.02 2700
0.10 -0.01 1.05 -0.85 9.98 -0.02 0.00 0.02 2706
0.09 -0.01 1.06 -0.81 10.00 -0.02 0.00 0.02 2712
0.08 -0.01 1.05 -0.83 9.97 -0.01 0.00 0.02 2719
0.08 -0.01 1.02 -0.86 9.97 -0.01 0.01 0.02 2725
0.09 -0.01 1.04 -0.88 9.95 -0.01 0.00 0.02 2732
0.09 -0.01 1.05 -0.85 9.95 -0.01 0.00 0.02 2738
0.08 -0.01 1.04 -0.84 9.96 -0.01 0.00 0.02 2744
0.08 -0.01 1.05 -0.85 9.97 -0.01 -0.00 0.01 2750
0.09 -0.01 1.09 -0.85 9.94 -0.02 -0.01 0.01 2756
0.08 -0.01 1.11 -0.87 9.94 -0.02 -0.01 0.01 2762
0.07 -0.01 1.08 -0.86 9.92 -0.02 -0.01 0.00 2768
0.07 -0.01 1.05 -0.87 9.95 -0.03 -0.01 0.00 2775
0.09 -0.00 1.12 -0.85 10.06 -0.03 -0.02 0.00 2781
0.10 -0.01 1.00 -0.80 9.93 -0.03 -0.02 0.01 2787
0.10 -0.01 1.06 -0.88 9.96 -0.03 -0.03 0.01 2793
0.08 -0.01 1.07 -0.82 9.93 -0.03 -0.03 0.00 2800
0.11 0.01 1.06 -0.83 9.88 -0.03 -0.04 -0.03 2806
0.13 -0.01 1.06 -0.83 9.96 -0.04 -0.04 -0.00 2812
0.10 -0.01 1.04 -0.80 9.97 -0.03 -0.04 -0.00 2819
0.10 -0.00 1.03 -0.85 9.98 -0.03 -0.04 -0.00 2825
0.10 -0.01 1.03 -0.85 9.94 -0.03 -0.04 -0.00 2831
0.11 -0.01 1.05 -0.84 10.02 -0.03 -0.04 -0.00 2837
0.09 -0.01 1.08 -0.79 9.99 -0.02 -0.04 -0.01 2843
0.09 -0.01 1.07 -0.81 9.95 -0.02 -0.04 -0.00 2849
0.12 -0.01 1.05 -0.80 9.97 -0.02 -0.04 -0.01 2855
0.11 -0.01 1.10 -0.82 9.98 -0.02 -0.04 -0.01 2863
0.11 -0.01 1.06 -0.83 9.97 -0.01 -0.04 -0.01 2869
0.08 -0.01 1.03 -0.81 9.92 -0.01 -0.04 -0.01 2875
0.11 -0.01 1.06 -0.81 9.99 -0.01 -0.04 -0.01 2881
0.12 -0.01 1.04 -0.84 9.97 -0.01 -0.04 -0.01 2887
0.13 -0.01 1.03 -0.85 9.98 -0.01 -0.04 -0.01 2893
0.10 -0.01 1.01 -0.87 9.98 -0.00 -0.04 -0.00 2899
0.11 -0.01 1.03 -0.86 10.02 -0.01 -0.04 -0.00 2906
0.13 -0.01 1.00 -0.83 9.96 -0.00 -0.04 0.00 2912
0.12 -0.01 1.05 -0.84 9.95 -0.01 -0.04 -0.00 2918
0.11 -0.01 1.04 -0.86 10.01 -0.01 -0.05 -0.00 2925
0.11 -0.01 1.08 -0.84 9.92 -0.01 -0.04 -0.00 2931
0.13 -0.01 1.07 -0.83 9.94 -0.02 -0.04 -0.01 2937
0.11 -0.01 1.06 -0.86 9.96 -0.02 -0.04 -0.01 2944
0.09 -0.01 1.05 -0.86 9.95 -0.03 -0.03 -0.01 2950
0.10 -0.01 1.05 -0.83 9.98 -0.03 -0.03 -0.01 2956
0.11 -0.01 1.08 -0.79 9.95 -0.02 -0.03 -0.01 2962
0.10 -0.01 1.11 -0.84 10.06 -0.01 -0.02 -0.01 2968
0.10 -0.01 1.06 -0.77 10.08 -0.01 -0.02 -0.02 2975
0.13 -0.01 1.17 -0.85 10.05 0.00 -0.01 -0.02 2981
0.10 -0.01 1.14 -0.86 10.03 0.01 -0.01 -0.03 2988
0.09 -0.01 1.31 -0.80 10.11 0.02 -0.01 -0.02 2994
0.11 -0.01 1.47 -0.86 10.07 0.04 0.01 -0.04 3000
0.11 -0.01 1.51 -0.85 9.95 0.04 0.01 -0.06 3006
0.09 -0.01 1.23 -0.81 10.23 0.07 0.02 -0.09 3012
0.09 -0.01 1.28 -0.90 10.05 0.10 0.03 -0.11 3019
0.11 -0.01 1.48 -0.84 10.16 0.16 0.04 -0.14 3025
0.11 -0.01 1.77 -0.75 10.50 0.23 0.06 -0.17 3032
0.08 -0.01 1.48 -0.95 10.68 0.35 0.08 -0.19 3038
0.09 -0.01 1.54 -1.00 11.19 0.59 0.12 -0.24 3044
0.08 -0.01 1.80 -1.08 11.76 0.88 0.20 -0.28 3050
0.09 -0.01 1.70 -1.48 13.34 1.30 0.33 -0.32 3056
0.09 -0.01 1.34 -1.24 13.08 1.67 0.34 -0.35 3063
0.09 -0.01 1.24 -1.40 13.58 1.88 0.30 -0.36 3069
0.07 -0.01 1.12 -1.49 13.19 2.05 0.24 -0.36 3076
0.06 -0.00 1.02 -1.56 13.60 2.16 0.27 -0.37 3082
0.09 -0.01 0.90 -1.63 13.28 2.30 0.41 -0.37 3088
0.07 -0.01 1.27 -1.73 14.07 2.40 0.60 -0.35 3094
0.05 -0.00 1.23 -1.87 13.66 2.48 0.91 -0.33 3101
0.04 -0.00 1.47 -1.84 13.66 2.52 1.32 -0.30 3107
0.07 -0.01 1.21 -2.35 14.08 2.51 1.76 -0.26 3113
0.04 -0.00 1.54 -2.72 14.76 2.46 2.20 -0.21 3120
0.04 -0.00 2.20 -2.46 14.52 2.41 2.57 -0.15 3126
0.05 -0.01 2.59 -2.61 15.05 2.33 3.04 -0.12 3132
0.04 -0.00 2.52 -3.34 14.72 2.25 3.50 -0.09 3139
0.05 -0.00 2.55 -3.19 16.01 2.14 3.89 -0.00 3145
0.05 -0.01 2.15 -4.35 16.55 1.99 4.19 0.08 3151
0.05 -0.00 0.27 -5.01 16.33 1.85 4.28 0.10 3158
0.04 -0.00 -0.27 -4.60 15.95 1.82 4.28 0.15 3164
0.05 -0.00 -1.61 -4.82 15.25 1.96 4.28 0.23 3170
0.04 -0.00 -3.08 -4.56 14.10 2.06 4.28 0.33 3177
0.04 -0.00 -4.37 -4.04 12.24 2.11 4.22 0.48 3183
0.05 -0.00 -6.40 -3.53 11.29 2.10 3.88 0.71 3189
0.05 -0.00 -7.29 -2.92 9.33 2.03 3.27 0.94 3195
0.04 -0.00 -9.93 -0.75 9.28 1.91 2.37 1.06 3202
0.04 -0.00 -18.10 2.75 9.45 1.68 1.11 0.77 3208
0.07 -0.01 -22.02 4.54 13.96 1.18 -0.72 -0.16 3214
0.04 -0.00 -14.43 5.39 16.02 0.25 -2.28 -0.80 3221
0.03 -0.00 -7.62 5.07 15.79 -0.52 -2.89 -1.08 3227
0.04 -0.00 -4.71 3.97 14.93 -0.93 -3.00 -1.37 3233
0.03 -0.00 -4.55 2.77 12.24 -1.21 -2.78 -1.78 3239
0.02 -0.00 -4.08 2.05 9.56 -1.31 -2.60 -2.20 3246
0.03 -0.00 -3.01 1.91 7.94 -1.30 -2.53 -2.51 3252
0.03 -0.00 -1.88 2.11 7.38 -1.23 -2.62 -2.68 3259
0.02 -0.00 -0.92 2.05 7.64 -1.13 -2.76 -2.72 3265
0.03 -0.00 -0.34 2.09 8.33 -1.02 -2.87 -2.60 3271
0.03 -0.00 0.20 2.34 8.99 -0.97 -2.94 -2.39 3277
0.02 -0.00 1.33 2.90 9.15 -0.95 -3.10 -2.14 3283
0.03 -0.00 2.55 3.43 9.56 -0.96 -3.28 -1.90 3290
0.03 -0.00 4.10 3.55 10.24 -1.00 -3.48 -1.69 3296
0.03 -0.00 5.68 3.48 10.69 -1.09 -3.56 -1.41 3302
0.03 -0.00 7.06 3.34 10.64 -1.22 -3.51 -1.12 3309
0.02 -0.00 8.14 3.22 10.65 -1.37 -3.35 -0.84 3315
0.03 -0.00 8.89 2.88 10.61 -1.52 -3.11 -0.57 3321
0.03 -0.00 9.47 2.22 10.46 -1.65 -2.82 -0.32 3328
0.02 -0.00 9.78 1.54 10.08 -1.73 -2.51 -0.08 3334
0.03 -0.00 9.63 0.87 9.42 -1.80 -2.21 0.15 3340
0.03 -0.00 9.16 0.23 8.77 -1.81 -2.01 0.36 3346
0.03 -0.00 9.27 -0.37 8.54 -1.77 -1.79 0.53 3353
0.03 -0.00 9.16 -0.95 8.35 -1.69 -1.57 0.72 3359
0.05 0.00 9.08 -1.36 8.28 -1.58 -1.35 0.88 3365
0.03 -0.00 8.84 -1.54 8.52 -1.47 -1.12 1.03 3372
0.02 -0.00 8.45 -1.56 8.70 -1.34 -0.90 1.15 3378
0.02 -0.00 7.39 -1.54 8.91 -1.29 -0.69 1.26 3384
0.04 -0.00 7.60 -1.57 9.23 -1.21 -0.54 1.32 3390
0.03 -0.00 7.31 -1.68 9.84 -1.15 -0.38 1.36 3396
0.02 -0.00 7.01 -1.77 10.34 -1.10 -0.22 1.39 3403
0.03 0.01 6.76 -1.78 10.72 -1.08 -0.07 1.40 3409
0.04 -0.00 6.47 -1.73 11.06 -1.10 0.05 1.40 3416
0.03 -0.00 6.09 -1.75 11.06 -1.15 0.15 1.39 3422
0.03 0.01 5.60 -1.88 10.83 -1.21 0.22 1.36 3428
0.03 -0.00 5.16 -1.95 10.53 -1.26 0.25 1.32 3434
0.03 -0.00 4.79 -2.13 10.24 -1.29 0.26 1.25 3441
0.03 0.00 4.47 -2.30 10.00 -1.29 0.26 1.18 3447
0.03 -0.00 4.12 -2.41 9.82 -1.27 0.26 1.09 3453
0.03 -0.00 3.91 -2.55 9.58 -1.24 0.24 1.02 3460
0.03 -0.00 3.85 -2.62 9.46 -1.19 0.23 0.93 3466
0.03 -0.00 4.03 -2.67 9.34 -1.14 0.22 0.85 3472
0.03 -0.00 4.24 -2.73 9.30 -1.09 0.23 0.80 3478
0.03 -0.00 4.52 -2.77 9.44 -1.04 0.27 0.77 3484
0.03 -0.00 4.86 -2.72 9.89 -1.00 0.31 0.76 3491
0.03 -0.00 5.00 -2.85 10.02 -0.98 0.38 0.76 3497
0.03 -0.00 5.13 -2.98 10.16 -0.99 0.44 0.76 3504
0.03 -0.00 5.35 -3.02 10.57 -1.01 0.48 0.77 3510
0.03 -0.00 5.52 -3.13 10.95 -1.06 0.50 0.78 3516
0.04 -0.00 5.51 -3.29 10.93 -1.11 0.53 0.80 3522
0.02 -0.00 5.59 -3.50 10.61 -1.15 0.53 0.82 3528
0.03 -0.00 5.79 -3.64 10.03 -1.19 0.51 0.82 3535
0.04 -0.00 6.71 -3.71 9.55 -1.20 0.50 0.80 3542
0.03 -0.00 6.57 -3.76 9.26 -1.20 0.53 0.74 3548
0.03 -0.00 6.90 -3.70 8.91 -1.20 0.60 0.67 3554
0.03 -0.00 7.18 -3.63 8.42 -1.20 0.71 0.55 3560
0.05 -0.00 7.47 -3.54 8.14 -1.22 0.84 0.40 3566
0.02 -0.00 7.60 -3.55 7.95 -1.24 0.97 0.23 3572
0.03 -0.00 7.55 -3.61 7.67 -1.28 1.10 0.07 3578
0.03 -0.00 7.30 -4.59 6.82 -1.30 1.15 -0.07 3585
0.05 -0.00 -0.72 -35.19 51.50 0.10 -0.87 -0.25 3592
0.03 -0.00 0.59 -13.61 -4.41 0.67 0.58 -0.41 3598
0.01 0.01 -3.77 -26.61 -12.41 1.03 -0.27 -0.56 3604
0.04 0.08 -12.90 -62.76 4.74 1.62 -1.88 -0.69 3610
0.03 0.21 -8.30 -45.38 64.93 2.03 -3.62 -0.38 3617
0.02 0.29 1.64 -12.61 17.84 0.36 -1.47 -0.06 3623
0.01 0.24 0.38 -4.59 10.54 0.02 -0.21 0.04 3630
0.03 0.17 0.62 -0.36 9.78 -0.04 0.06 0.16 3636
0.01 0.15 -0.73 0.88 10.74 -0.09 0.06 0.11 3642
0.04 0.17 -0.49 0.33 10.02 -0.06 0.04 -0.01 3649
0.04 0.20 1.10 -0.06 9.97 -0.02 -0.02 -0.01 3655
0.01 0.29 1.67 -0.54 9.94 -0.02 -0.04 0.04 3661
0.03 0.23 1.57 -0.87 10.08 -0.00 -0.05 0.07 3667
0.04 0.25 1.04 -0.83 10.08 0.01 -0.07 0.08 3674
0.04 0.29 0.45 -0.60 9.99 0.01 -0.06 0.06 3680
0.06 0.27 0.33 -0.66 9.91 -0.00 -0.03 0.06 3686
0.04 0.27 0.73 -1.04 10.36 -0.01 0.01 0.07 3693
0.05 0.26 0.88 -1.03 10.21 -0.01 0.03 0.08 3699
0.08 0.25 0.68 -0.69 10.15 -0.01 0.04 0.09 3705
0.06 0.24 0.79 -0.76 9.99 -0.00 0.05 0.08 3712
0.06 0.23 0.99 -0.77 10.08 -0.01 0.04 0.07 3718
0.08 0.22 1.03 -0.79 10.02 -0.01 0.04 0.06 3725
0.07 0.21 0.91 -0.75 10.10 -0.01 0.03 0.04 3731
0.07 0.19 0.80 -0.76 10.01 -0.01 0.03 0.04 3737
0.09 0.17 0.82 -0.76 10.09 -0.01 0.03 0.05 3743
0.09 0.17 0.78 -0.62 10.05 -0.00 0.03 0.06 3749
0.06 0.18 0.87 -0.73 10.02 -0.00 0.02 0.05 3756
0.08 0.17 0.94 -0.80 9.97 0.01 0.01 0.05 3763
0.08 0.15 0.90 -0.78 10.01 0.00 0.00 0.05 3769
0.09 0.11 1.01 -0.75 10.01 0.00 -0.01 0.05 3775
0.09 0.12 0.92 -0.68 9.96 0.00 -0.02 0.04 3781
0.12 0.11 0.95 -0.75 9.99 0.00 -0.03 0.05 3787
0.11 0.11 0.90 -0.74 10.00 0.00 -0.04 0.04 3793
0.13 0.05 0.91 -0.74 10.02 0.01 -0.04 0.04 3800
0.15 0.04 0.87 -0.74 10.03 0.00 -0.04 0.04 3807
0.13 0.03 0.87 -0.71 9.94 0.01 -0.04 0.03 3813
0.13 0.05 0.85 -0.75 9.94 0.00 -0.04 0.04 3819
0.15 0.04 0.86 -0.76 9.94 0.01 -0.04 0.04 3825
0.16 0.00 0.83 -0.75 10.08 0.00 -0.03 0.04 3831
0.16 -0.00 0.83 -0.75 10.02 0.00 -0.04 0.04 3837
0.19 0.01 0.81 -0.79 10.01 0.01 -0.04 0.04 3845
0.20 -0.01 0.84 -0.71 10.09 0.01 -0.04 0.04 3851
0.21 -0.02 0.85 -0.74 10.00 0.01 -0.03 0.04 3857
0.21 0.00 0.85 -0.72 10.08 0.02 -0.03 0.04 3863
0.22 -0.01 0.87 -0.76 10.03 0.02 -0.02 0.04 3869
0.21 -0.02 0.82 -0.80 10.01 0.03 -0.01 0.04 3875
0.21 -0.01 0.85 -0.74 9.98 0.03 -0.01 0.04 3883
0.22 -0.02 0.86 -0.75 10.07 0.03 -0.00 0.04 3889
0.22 -0.02 0.85 -0.83 9.99 0.03 0.00 0.04 3895
0.22 -0.02 0.85 -0.79 10.04 0.04 0.01 0.04 3901
0.23 -0.02 0.85 -0.75 10.01 0.04 0.02 0.04 3907
0.24 -0.02 0.91 -0.60 9.78 0.05 0.01 0.04 3913
0.23 -0.02 0.85 -0.79 9.89 0.05 0.02 0.04 3919
0.23 -0.02 0.77 -1.05 9.95 0.05 0.01 0.05 3926
0.25 -0.01 0.88 -0.85 9.93 0.06 0.02 0.04 3932
0.25 -0.02 0.92 -0.78 10.03 0.05 0.02 0.04 3939
0.25 -0.03 0.87 -0.79 9.97 0.05 0.02 0.04 3945
0.24 -0.02 0.91 -0.84 9.93 0.05 0.02 0.04 3951
0.23 -0.01 0.90 -0.83 9.94 0.04 0.02 0.04 3957
0.24 -0.02 0.93 -0.88 9.96 0.03 0.02 0.04 3963
0.23 -0.02 0.93 -0.84 9.95 0.03 0.02 0.03 3970
0.23 -0.01 0.93 -0.82 9.94 0.02 0.02 0.03 3976
0.22 -0.01 0.94 -0.83 9.95 0.02 0.03 0.03 3982
0.22 -0.02 0.97 -0.82 9.96 0.01 0.02 0.03 3988
0.20 -0.02 0.94 -0.83 9.99 0.01 0.03 0.03 3995
0.18 -0.02 0.94 -0.84 9.99 0.01 0.03 0.03 4001
0.19 -0.01 0.95 -0.84 9.99 0.01 0.03 0.03 4007
0.21 -0.02 0.97 -0.84 9.97 0.01 0.03 0.03 4014
0.20 -0.02 1.00 -0.86 9.99 0.01 0.02 0.02 4020
0.19 -0.01 0.98 -0.86 9.98 0.01 0.02 0.03 4026
0.19 -0.00 0.97 -0.87 9.97 0.01 0.02 0.02 4032
0.20 -0.02 0.99 -0.86 9.98 0.00 0.01 0.02 4038
0.20 -0.01 0.96 -0.86 9.96 -0.00 0.01 0.02 4044
0.20 -0.02 0.97 -0.86 9.97 -0.00 0.01 0.02 4050
0.18 -0.01 0.98 -0.85 9.91 -0.00 0.00 0.02 4057
0.18 -0.02 0.97 -0.85 9.96 -0.01 0.00 0.02 4064
0.17 -0.02 0.98 -0.85 9.91 -0.00 0.00 0.02 4070
0.17 -0.02 0.99 -0.87 9.94 -0.01 0.00 0.01 4076
0.15 -0.01 1.03 -0.86 9.95 -0.01 0.00 0.02 4082
0.17 -0.02 1.00 -0.85 9.96 -0.01 -0.00 0.02 4088
0.15 -0.02 1.03 -0.87 9.96 -0.01 -0.00 0.02 4094
0.15 -0.01 0.99 -0.85 10.03 -0.01 -0.01 0.01 4101
0.16 -0.02 1.05 -0.86 9.99 -0.02 -0.01 0.01 4107
0.17 -0.01 1.03 -0.84 9.98 -0.02 -0.02 0.01 4113
0.17 -0.02 0.99 -0.86 9.96 -0.02 -0.02 0.01 4119
0.15 -0.01 1.05 -0.86 9.92 -0.03 -0.02 0.01 4126
0.14 -0.01 1.05 -0.85 9.93 -0.03 -0.02 0.00 4132
0.15 -0.01 1.03 -0.82 9.98 -0.04 -0.02 0.00 4139
0.16 -0.02 1.08 -0.86 9.97 -0.04 -0.03 -0.00 4145
0.14 -0.01 1.08 -0.84 10.01 -0.05 -0.03 -0.01 4151
0.15 -0.01 1.09 -0.84 9.97 -0.04 -0.02 -0.01 4157
0.15 -0.02 1.04 -0.84 9.98 -0.05 -0.02 -0.02 4163
0.15 -0.02 1.03 -0.84 10.02 -0.05 -0.02 -0.02 4169
0.14 -0.01 1.02 -0.86 10.06 -0.04 -0.02 -0.02 4175
0.14 -0.01 1.02 -0.81 10.04 -0.03 -0.02 -0.03 4183
0.15 -0.02 1.01 -0.79 10.03 -0.02 -0.02 -0.02 4189
0.14 -0.01 1.05 -0.85 10.04 -0.02 -0.02 -0.02 4195
0.13 -0.01 0.99 -0.82 10.02 -0.01 -0.02 -0.03 4201
0.15 -0.01 1.09 -0.83 9.97 -0.01 -0.02 -0.03 4207
0.14 -0.01 1.02 -0.80 9.98 0.00 -0.02 -0.03 4213
0.15 -0.01 1.01 -0.85 10.02 -0.00 -0.02 -0.03 4219
0.12 -0.01 0.96 -0.98 9.98 0.00 -0.02 -0.03 4226
0.14 -0.01 1.08 -0.87 9.99 -0.00 -0.02 -0.04 4233
0.15 -0.01 1.04 -0.86 9.98 0.00 -0.02 -0.04 4239
0.15 -0.01 1.06 -0.91 9.99 0.01 -0.02 -0.04 4245
0.14 -0.01 1.12 -0.89 10.00 0.01 -0.02 -0.04 4251
0.15 -0.01 1.07 -0.84 10.00 0.01 -0.01 -0.05 4257
0.18 -0.02 1.08 -0.87 10.01 0.01 -0.01 -0.05 4263
0.18 -0.02 1.06 -0.86 10.03 0.02 -0.00 -0.05 4270
0.17 -0.01 1.13 -0.91 10.05 0.02 0.03 -0.06 4276
0.18 -0.02 1.07 -0.90 10.06 0.04 0.01 -0.06 4283
0.16 -0.02 1.11 -0.85 10.12 0.05 0.02 -0.07 4289
0.15 -0.01 1.22 -0.91 10.07 0.07 0.03 -0.07 4295
0.18 -0.02 1.25 -0.94 10.20 0.11 0.04 -0.09 4301
0.17 -0.02 1.33 -0.88 10.21 0.16 0.07 -0.11 4307
0.17 -0.01 1.29 -0.98 10.29 0.23 0.09 -0.13 4314
0.20 -0.02 1.44 -0.97 10.46 0.32 0.12 -0.15 4321
0.18 -0.02 1.26 -0.95 10.48 0.41 0.15 -0.17 4327
0.18 -0.02 1.53 -1.07 10.80 0.55 0.19 -0.19 4333
0.18 -0.01 1.33 -1.00 10.88 0.73 0.22 -0.21 4339
0.13 -0.01 1.47 -1.15 11.61 0.97 0.28 -0.22 4345
0.12 -0.01 1.36 -1.10 12.30 1.23 0.32 -0.23 4353
0.10 -0.01 1.56 -1.23 12.52 1.49 0.37 -0.25 4359
0.08 -0.01 1.02 -1.30 13.75 1.77 0.42 -0.27 4365
0.09 -0.01 1.36 -1.47 13.82 2.02 0.48 -0.28 4371
0.07 -0.00 1.10 -1.50 13.86 2.26 0.61 -0.28 4377
0.07 -0.01 0.89 -1.68 13.56 2.41 0.79 -0.26 4383
0.06 -0.01 0.92 -1.93 14.33 2.52 1.07 -0.21 4390
0.05 0.00 0.17 -1.99 13.33 2.55 1.46 -0.16 4397
0.07 -0.01 0.67 -2.29 13.46 2.62 1.84 -0.08 4403
0.04 -0.00 0.83 -2.47 13.59 2.62 2.19 -0.01 4409
0.05 0.00 1.12 -2.73 13.48 2.60 2.44 0.08 4415
0.06 -0.01 1.47 -3.55 13.80 2.56 2.66 0.13 4421
0.06 -0.01 1.74 -3.26 14.25 2.49 2.90 0.20 4428
0.07 -0.01 2.64 -3.51 14.21 2.41 3.19 0.25 4434
0.06 -0.01 3.59 -3.61 14.18 2.29 3.50 0.28 4441
0.04 -0.00 3.01 -4.10 15.39 2.11 3.75 0.30 4447
0.03 -0.00 2.63 -4.60 14.40 1.94 3.94 0.32 4453
0.06 -0.01 1.85 -4.45 13.87 1.86 4.08 0.33 4459
0.05 -0.00 0.63 -4.77 13.92 1.86 4.16 0.34 4466
0.04 -0.00 -0.73 -4.32 14.67 1.97 4.19 0.37 4472
0.05 -0.00 -1.13 -4.11 13.26 2.06 4.00 0.44 4478
0.05 -0.00 -2.03 -3.35 12.19 2.08 3.69 0.56 4485
0.04 -0.00 -2.49 -3.04 10.94 2.00 3.32 0.64 4491
0.04 0.01 -3.06 -2.42 9.43 1.84 2.73 0.75 4497
0.05 -0.00 -4.37 -0.47 6.59 1.64 1.90 0.79 4503
0.04 -0.00 -14.84 3.82 6.76 1.35 0.88 0.47 4510
0.05 -0.00 -18.52 4.11 9.78 0.81 -0.66 -0.44 4516
0.05 -0.00 -12.72 3.70 16.69 0.07 -2.10 -1.48 4523
0.03 -0.00 -5.01 2.93 16.07 -0.80 -2.61 -2.02 4529
0.03 -0.00 -1.86 2.04 14.38 -1.28 -2.67 -2.34 4535
0.04 -0.00 -1.50 1.41 11.55 -1.55 -2.48 -2.69 4541
0.03 -0.00 -2.07 0.71 9.80 -1.66 -2.21 -3.03 4548
0.02 -0.00 -1.41 0.22 8.61 -1.67 -2.07 -3.43 4554
0.03 -0.00 -0.29 -0.33 7.32 -1.59 -2.07 -3.68 4560
0.02 -0.00 0.50 -0.57 6.82 -1.46 -2.12 -3.76 4567
0.02 -0.00 0.17 -0.87 7.12 -1.31 -2.11 -3.69 4573
0.01 -0.00 -0.35 -1.31 7.15 -1.10 -2.06 -3.48 4579
0.03 -0.00 -0.65 -1.44 6.60 -0.88 -2.05 -3.21 4585
0.02 -0.00 0.23 -0.73 6.55 -0.68 -2.25 -2.98 4591
0.03 -0.00 1.46 0.05 7.24 -0.49 -2.59 -2.73 4597
0.02 -0.00 2.77 0.46 8.12 -0.36 -2.89 -2.48 4604
0.03 -0.00 4.22 0.90 9.64 -0.31 -3.03 -2.22 4611
0.02 -0.00 5.76 1.62 11.01 -0.34 -3.01 -1.96 4617
0.03 -0.00 7.34 2.02 11.57 -0.47 -2.86 -1.70 4623
0.02 -0.00 7.27 1.91 11.36 -0.66 -2.68 -1.47 4629
0.03 -0.00 7.47 1.56 11.20 -0.88 -2.42 -1.28 4635
0.02 -0.00 7.45 0.93 10.86 -1.10 -2.18 -1.15 4642
0.02 -0.00 7.04 0.09 10.37 -1.24 -1.94 -0.99 4648
0.04 -0.00 6.74 -0.78 9.85 -1.33 -1.73 -0.83 4655
0.02 -0.00 6.44 -1.52 9.49 -1.36 -1.53 -0.69 4661
0.01 -0.00 6.36 -2.05 9.42 -1.35 -1.33 -0.55 4667
0.03 0.00 6.20 -2.48 9.53 -1.34 -1.15 -0.41 4673
0.03 -0.00 6.05 -2.73 9.29 -1.32 -1.00 -0.29 4679
0.03 -0.00 5.77 -3.51 9.32 -1.32 -0.84 -0.20 4685
0.03 -0.00 5.52 -3.25 9.44 -1.31 -0.73 -0.10 4692
0.04 -0.00 5.42 -3.58 9.65 -1.30 -0.64 0.01 4699
0.04 -0.00 5.44 -3.81 9.89 -1.30 -0.56 0.13 4705
0.03 -0.00 5.41 -3.92 9.99 -1.30 -0.49 0.27 4711
0.02 -0.00 5.38 -3.94 10.36 -1.32 -0.45 0.42 4717
0.04 -0.00 5.33 -3.90 10.70 -1.34 -0.43 0.59 4723
0.02 -0.00 5.36 -3.80 11.12 -1.37 -0.41 0.77 4729
0.02 -0.00 5.31 -3.67 11.04 -1.44 -0.40 0.92 4736
0.03 0.01 5.06 -3.76 10.64 -1.50 -0.39 1.08 4743
0.03 -0.00 4.93 -3.87 9.98 -1.54 -0.38 1.21 4749
0.03 -0.00 4.77 -4.14 9.40 -1.54 -0.35 1.32 4755
0.03 -0.00 4.60 -4.16 9.04 -1.48 -0.29 1.39 4761
0.03 -0.00 4.49 -4.19 8.75 -1.40 -0.19 1.43 4767
0.03 -0.00 3.74 -3.92 8.40 -1.31 -0.05 1.46 4773
0.03 -0.00 4.00 -3.52 8.42 -1.22 0.05 1.50 4780
0.03 0.00 3.64 -3.11 8.65 -1.15 0.18 1.47 4787
0.03 -0.00 3.24 -2.56 8.94 -1.09 0.28 1.47 4793
0.02 -0.00 2.68 -2.10 9.07 -1.05 0.35 1.47 4799
0.02 -0.00 2.39 -1.61 9.29 -1.03 0.40 1.46 4805
0.03 0.01 2.18 -1.25 9.57 -1.02 0.41 1.44 4811
0.03 -0.00 2.01 -1.08 9.79 -1.02 0.42 1.41 4817
0.03 -0.00 1.90 -1.00 10.07 -1.03 0.43 1.35 4824
0.02 0.00 1.77 -0.96 10.33 -1.04 0.42 1.28 4830
0.04 -0.00 1.71 -0.95 10.76 -1.07 0.39 1.18 4837
0.03 -0.00 1.62 -1.08 11.16 -1.10 0.31 1.06 4843
0.02 -0.00 1.69 -1.16 11.37 -1.15 0.18 0.94 4849
0.03 0.00 2.03 -1.05 11.24 -1.22 0.06 0.82 4855
0.02 -0.00 2.53 -1.03 10.74 -1.28 -0.02 0.71 4861
0.02 -0.00 3.05 -1.21 10.29 -1.33 -0.04 0.59 4868
0.02 0.01 3.37 -1.46 9.82 -1.36 0.03 0.47 4875
0.03 -0.00 3.53 -1.68 9.45 -1.34 0.10 0.34 4881
0.02 -0.00 3.73 -1.76 9.34 -1.30 0.26 0.24 4887
0.03 -0.00 3.70 -1.79 9.32 -1.25 0.43 0.13 4893
0.02 0.00 3.24 -1.99 9.43 -1.20 0.57 0.05 4899
0.02 -0.00 2.59 -2.08 9.31 -1.15 0.63 -0.01 4905
0.02 -0.00 2.27 -2.03 9.42 -1.12 0.61 -0.04 4912
0.02 -0.00 2.27 -2.18 9.53 -1.08 0.56 -0.05 4918
0.02 0.00 2.42 -2.39 9.79 -1.05 0.50 -0.05 4924
0.02 -0.00 2.58 -2.74 9.92 -1.02 0.48 -0.03 4931
0.02 -0.00 3.11 -3.07 10.65 -1.02 0.49 -0.02 4937
0.03 -0.00 3.77 -3.24 11.59 -1.05 0.56 -0.02 4943
0.04 -0.00 3.74 -3.53 11.89 -1.13 0.72 -0.01 4950
0.02 -0.00 3.04 -4.10 11.72 -1.22 0.91 -0.00 4956
0.02 -0.00 1.44 -4.99 11.08 -1.31 1.00 -0.02 4962
0.02 0.00 0.89 -6.06 9.96 -1.34 0.97 -0.07 4968
0.03 -0.00 0.21 -7.60 8.74 -1.29 0.84 -0.12 4974
0.03 -0.00 -3.25 -29.32 21.00 -0.53 1.02 -0.03 4981
0.03 -0.00 4.08 -7.72 1.81 0.44 1.37 0.06 4987
0.03 -0.00 -0.62 -12.14 -1.80 0.44 1.03 -0.01 4994
0.02 -0.00 -0.84 -21.87 9.02 0.81 0.10 -0.05 5000
0.02 -0.00 -3.33 -25.66 4.94 1.08 -0.68 -0.12 5006
0.03 0.02 -4.11 -34.02 -0.61 1.46 -1.13 -0.16 5012
0.03 0.04 -6.84 -45.79 1.68 2.27 -1.71 -0.19 5019
0.02 0.12 -5.55 -8.84 74.07 2.42 -3.68 -0.26 5025
0.04 0.16 -0.03 -7.49 18.45 0.29 -0.56 0.16 5031
0.05 0.16 0.32 -2.36 9.21 -0.08 0.03 0.11 5038
0.04 0.20 -1.26 0.54 11.18 -0.17 -0.01 0.06 5044
0.05 0.19 0.27 -0.44 10.12 -0.12 0.05 0.04 5051
0.04 0.19 1.12 0.35 9.85 -0.04 0.08 0.07 5057
0.03 0.26 1.14 -0.02 9.47 -0.03 0.12 0.11 5063
0.06 0.24 0.90 -1.50 10.53 -0.03 0.08 0.11 5069
0.06 0.25 0.93 -0.96 10.37 -0.02 0.06 0.10 5075
0.05 0.22 0.88 -0.46 9.91 -0.01 0.05 0.10 5082
0.05 0.30 0.88 -0.91 9.88 -0.02 0.05 0.09 5089
0.05 0.31 0.85 -0.97 10.07 -0.04 0.05 0.09 5095
0.05 0.31 0.89 -0.87 10.12 -0.03 0.04 0.09 5101
0.05 0.31 0.82 -0.88 10.16 -0.04 0.04 0.08 5107
0.06 0.29 0.93 -0.83 10.05 -0.04 0.03 0.08 5113
0.06 0.30 0.94 -0.66 10.01 -0.04 0.02 0.07 5121
0.06 0.32 0.94 -0.64 10.16 -0.03 0.01 0.06 5127
0.06 0.33 0.89 -0.67 10.04 -0.03 0.00 0.05 5133
0.06 0.30 0.87 -0.72 10.15 -0.02 -0.01 0.04 5139
0.06 0.32 0.81 -0.66 9.98 -0.02 -0.02 0.04 5145
0.07 0.32 0.86 -0.68 9.95 -0.02 -0.03 0.04 5151
0.06 0.30 0.82 -0.68 10.00 -0.02 -0.03 0.04 5158
0.06 0.31 0.87 -0.73 9.92 -0.02 -0.03 0.04 5165
0.08 0.30 0.84 -0.75 10.01 -0.02 -0.05 0.04 5171
0.06 0.30 0.85 -0.69 9.99 -0.02 -0.05 0.03 5177
0.06 0.32 0.82 -0.68 9.94 -0.02 -0.06 0.03 5183
0.08 0.32 0.84 -0.70 9.93 -0.02 -0.06 0.03 5189
0.06 0.30 0.81 -0.72 10.00 -0.02 -0.06 0.03 5195
0.06 0.29 0.85 -0.75 9.97 -0.01 -0.06 0.03 5202
0.08 0.29 0.83 -0.69 9.88 -0.01 -0.07 0.03 5209
0.09 0.28 0.82 -0.71 10.00 -0.02 -0.06 0.03 5215
0.08 0.27 0.84 -0.71 10.04 -0.01 -0.06 0.03 5221
0.08 0.30 0.81 -0.69 10.04 -0.01 -0.05 0.02 5227
0.09 0.26 0.81 -0.70 10.01 -0.01 -0.04 0.02 5233
0.09 0.25 0.83 -0.71 10.05 -0.00 -0.04 0.03 5240
0.10 0.23 0.82 -0.69 10.03 0.00 -0.03 0.03 5246
0.11 0.20 0.79 -0.69 9.99 0.01 -0.02 0.03 5253
0.11 0.15 0.84 -0.71 10.06 0.01 -0.02 0.04 5259
0.11 0.14 0.83 -0.65 9.97 0.01 -0.01 0.03 5265
0.12 0.17 0.81 -0.73 10.03 0.01 -0.01 0.03 5271
0.12 0.13 0.82 -0.72 10.00 0.01 -0.01 0.03 5278
0.11 0.11 0.86 -0.75 9.98 0.01 0.00 0.03 5284
0.12 0.14 0.82 -0.71 10.04 0.01 0.00 0.04 5291
0.13 0.08 0.85 -0.71 10.02 0.01 0.01 0.04 5297
0.11 0.06 0.80 -0.73 9.94 0.01 0.01 0.04 5303
0.12 0.08 0.85 -0.74 9.99 0.01 0.01 0.03 5309
0.13 0.06 0.86 -0.71 9.97 0.01 0.01 0.04 5316
0.13 0.03 0.84 -0.75 10.00 0.01 0.02 0.04 5322
0.12 0.04 0.89 -0.75 10.01 0.01 0.02 0.04 5328
0.14 0.04 0.89 -0.74 10.00 0.01 0.02 0.04 5335
0.11 0.03 0.87 -0.70 9.98 0.01 0.03 0.03 5341
0.10 0.02 0.86 -0.72 9.99 0.00 0.03 0.04 5347
0.12 0.04 0.86 -0.73 9.98 0.00 0.03 0.04 5353
0.13 0.01 0.87 -0.73 9.98 0.00 0.03 0.04 5360
0.14 -0.01 0.89 -0.75 9.97 0.00 0.03 0.04 5366
0.12 0.01 0.92 -0.73 10.01 0.00 0.03 0.04 5372
0.13 0.02 0.90 -0.72 9.95 0.00 0.02 0.04 5379
0.13 -0.01 0.91 -0.74 9.95 0.00 0.03 0.04 5385
0.12 -0.01 0.91 -0.73 10.00 -0.00 0.02 0.04 5391
0.11 0.02 0.93 -0.74 9.96 -0.01 0.02 0.03 5397
0.11 0.02 0.92 -0.74 10.00 -0.01 0.02 0.04 5403
0.11 0.00 0.93 -0.72 9.98 -0.01 0.02 0.04 5409
0.11 0.01 0.92 -0.76 9.96 -0.01 0.02 0.04 5416
0.10 0.01 0.96 -0.74 9.99 -0.01 0.02 0.03 5423
0.11 0.01 0.94 -0.72 9.96 -0.01 0.01 0.03 5429
0.10 0.00 0.93 -0.73 10.01 -0.02 0.01 0.03 5435
0.11 0.01 0.95 -0.73 9.99 -0.02 0.01 0.03 5441
0.12 0.02 0.91 -0.74 9.94 -0.02 0.00 0.03 5447
0.09 0.02 0.96 -0.74 9.96 -0.02 -0.00 0.04 5453
0.10 0.02 0.95 -0.73 9.95 -0.03 -0.00 0.03 5460
0.09 0.04 0.95 -0.72 9.96 -0.03 -0.01 0.03 5467
0.10 0.05 0.96 -0.69 9.96 -0.02 -0.01 0.03 5473
0.08 0.04 0.98 -0.72 9.97 -0.02 -0.02 0.03 5479
0.07 0.04 0.97 -0.70 9.96 -0.03 -0.02 0.02 5485
0.08 0.09 0.93 -0.70 9.99 -0.02 -0.02 0.02 5491
0.08 0.08 0.99 -0.73 9.98 -0.02 -0.02 0.02 5497
0.08 0.06 0.92 -0.67 9.94 -0.02 -0.03 0.02 5504
0.07 0.07 0.97 -0.70 9.96 -0.02 -0.03 0.02 5511
0.08 0.07 0.96 -0.72 9.98 -0.02 -0.03 0.02 5517
0.08 0.06 0.98 -0.70 9.92 -0.01 -0.03 0.02 5523
0.08 0.05 0.96 -0.71 9.92 -0.02 -0.03 0.02 5529
0.08 0.05 0.98 -0.70 10.01 -0.02 -0.04 0.02 5535
0.09 0.04 0.97 -0.71 9.94 -0.01 -0.05 0.02 5541
0.08 0.06 0.98 -0.68 9.96 -0.01 -0.05 0.01 5548
0.08 0.05 0.96 -0.73 9.98 -0.01 -0.05 0.01 5554
0.09 0.04 0.96 -0.71 9.91 -0.01 -0.05 0.01 5561
0.09 0.03 0.94 -0.74 9.96 -0.01 -0.05 0.01 5567
0.09 0.02 0.93 -0.74 10.00 -0.01 -0.05 0.00 5573
0.09 0.02 0.93 -0.76 10.04 -0.02 -0.05 0.00 5579
0.11 0.01 0.90 -0.74 9.95 -0.02 -0.05 0.01 5585
0.11 0.01 0.91 -0.75 10.02 -0.02 -0.04 0.00 5592
0.10 0.01 0.93 -0.72 10.00 -0.02 -0.04 0.01 5599
0.11 0.01 0.95 -0.73 10.01 -0.01 -0.04 0.01 5605
0.11 -0.01 0.96 -0.72 10.00 -0.01 -0.04 0.01 5611
0.11 0.01 0.92 -0.75 10.01 -0.01 -0.04 0.01 5617
0.13 0.03 0.93 -0.72 10.02 -0.00 -0.04 0.01 5623
0.11 0.02 0.96 -0.73 10.04 -0.00 -0.04 0.01 5629
0.12 0.01 0.92 -0.74 10.03 -0.00 -0.04 0.01 5637
0.15 -0.00 0.95 -0.71 9.98 0.00 -0.04 0.02 5643
0.14 0.00 0.94 -0.77 9.97 -0.00 -0.03 0.01 5649
0.13 -0.01 0.93 -0.71 9.92 -0.00 -0.04 0.01 5655
0.14 -0.01 0.97 -0.72 9.97 0.00 -0.03 0.01 5661
0.14 -0.01 0.97 -0.73 10.01 0.00 -0.03 0.01 5667
0.14 -0.01 0.96 -0.76 9.96 -0.00 -0.03 0.00 5673
0.12 -0.01 0.95 -0.75 9.98 0.03 -0.03 0.00 5680
0.15 -0.01 0.99 -0.76 9.95 0.00 -0.03 0.00 5686
0.15 -0.00 0.99 -0.79 9.95 0.00 -0.03 -0.00 5693
0.15 -0.02 1.01 -0.74 9.97 0.00 -0.03 -0.01 5699
0.13 -0.01 0.98 -0.78 9.96 0.00 -0.03 -0.01 5705
0.13 -0.01 0.95 -0.77 9.97 0.00 -0.02 -0.02 5711
0.13 -0.01 0.99 -0.73 10.00 -0.00 -0.03 -0.02 5718
0.12 -0.01 0.91 -0.71 10.08 0.01 -0.03 -0.02 5724
0.11 -0.01 1.06 -0.73 9.99 0.02 -0.03 -0.03 5730
0.12 -0.00 1.14 -0.72 10.08 0.03 -0.02 -0.04 5736
0.14 -0.01 1.18 -0.76 9.98 0.04 -0.02 -0.05 5743
0.13 -0.01 1.10 -0.76 10.15 0.06 -0.01 -0.07 5749
0.14 -0.01 1.19 -0.84 10.07 0.07 0.01 -0.09 5755
0.15 -0.02 1.31 -0.74 10.08 0.08 0.02 -0.11 5762
0.13 -0.01 1.32 -0.82 10.20 0.13 0.04 -0.13 5768
0.11 -0.01 1.36 -0.80 10.15 0.14 0.07 -0.17 5774
0.14 -0.00 1.48 -0.87 10.19 0.19 0.09 -0.21 5781
0.12 -0.01 1.45 -0.76 10.68 0.28 0.12 -0.23 5787
0.12 -0.01 1.68 -0.89 11.24 0.45 0.17 -0.26 5793
0.11 -0.01 1.44 -1.00 11.58 0.73 0.22 -0.33 5799
0.11 -0.01 1.01 -0.87 12.82 1.07 0.27 -0.32 5806
0.08 -0.01 1.16 -1.07 12.60 1.40 0.30 -0.33 5812
0.09 0.00 1.35 -1.15 12.72 1.65 0.31 -0.34 5819
0.07 -0.01 1.10 -1.19 13.55 1.87 0.36 -0.35 5825
0.04 -0.00 1.45 -1.14 13.95 2.07 0.48 -0.36 5831
0.05 -0.00 1.36 -1.05 13.92 2.20 0.78 -0.39 5837
0.05 -0.00 1.45 -1.30 13.80 2.20 1.18 -0.40 5843
0.04 -0.00 1.16 -1.51 14.30 2.17 1.72 -0.40 5850
0.04 0.00 1.47 -1.58 14.16 2.12 2.17 -0.39 5857
0.04 -0.00 1.14 -1.31 14.55 2.05 2.64 -0.38 5863
0.05 -0.01 1.51 -2.34 14.75 1.97 3.06 -0.35 5869
0.05 -0.00 1.30 -2.42 14.92 1.89 3.41 -0.28 5875
0.06 -0.01 1.49 -3.07 15.90 1.79 3.69 -0.21 5881
0.05 -0.01 1.34 -4.45 15.75 1.71 3.91 -0.12 5888
0.04 -0.00 0.26 -4.52 16.07 1.72 4.07 -0.01 5895
0.05 -0.00 -0.14 -4.27 14.75 1.70 4.14 0.07 5901
0.05 -0.01 0.00 -4.29 13.26 1.76 4.09 0.14 5907
0.04 -0.00 -1.51 -3.70 13.65 1.84 3.93 0.20 5913
0.05 0.00 -1.41 -3.86 13.17 1.96 3.72 0.29 5919
0.06 -0.01 -3.07 -4.03 12.91 2.07 3.35 0.40 5925
0.05 -0.01 -5.97 -3.61 11.35 2.14 2.90 0.41 5933
0.05 -0.00 -9.87 -1.92 10.76 2.15 2.22 0.29 5939
0.04 -0.00 -11.53 -0.02 10.75 2.02 1.20 -0.07 5945
0.03 -0.00 -16.90 3.22 11.54 1.64 -0.10 -0.65 5951
0.03 0.01 -10.91 3.38 11.82 0.96 -1.40 -1.18 5957
0.03 -0.00 -6.37 2.93 12.32 0.32 -2.23 -1.36 5964
0.02 -0.00 -4.01 2.16 13.12 -0.05 -2.57 -1.51 5970
0.03 -0.00 -2.88 0.98 12.20 -0.18 -2.64 -1.80 5977
0.04 -0.00 -1.47 0.55 10.69 -0.17 -2.62 -2.09 5983
0.02 -0.00 -0.17 0.69 9.79 -0.13 -2.59 -2.27 5989
0.03 -0.00 0.86 1.65 9.93 -0.10 -2.54 -2.32 5995
0.04 -0.00 1.73 2.37 10.41 -0.14 -2.46 -2.29 6001
0.03 -0.00 2.06 2.89 10.72 -0.23 -2.34 -2.18 6008
0.03 -0.00 2.20 3.10 10.56 -0.36 -2.22 -2.02 6014
0.04 -0.00 2.49 3.17 9.89 -0.49 -2.14 -1.82 6021
0.03 -0.00 2.77 3.17 9.35 -0.60 -2.17 -1.59 6027
0.03 -0.00 2.96 3.14 8.71 -0.66 -2.26 -1.33 6033
0.03 -0.00 3.10 2.80 8.17 -0.70 -2.35 -1.05 6039
0.04 -0.00 3.65 2.65 7.88 -0.70 -2.45 -0.78 6045
0.03 -0.00 4.44 2.58 7.66 -0.68 -2.49 -0.55 6051
0.02 -0.00 4.99 2.50 7.51 -0.67 -2.48 -0.30 6059
0.02 0.00 5.59 2.53 7.81 -0.65 -2.39 -0.07 6065
0.04 -0.00 6.29 2.55 8.25 -0.66 -2.21 0.14 6071
0.03 -0.00 6.81 2.58 8.56 -0.69 -1.97 0.33 6077
0.02 -0.00 6.89 2.50 8.89 -0.76 -1.73 0.50 6083
0.03 -0.00 7.08 2.44 9.15 -0.84 -1.50 0.67 6089
0.03 -0.00 6.90 2.11 9.11 -0.94 -1.25 0.79 6095
0.03 -0.00 6.61 1.73 9.13 -1.02 -1.05 0.94 6102
0.02 -0.00 6.28 1.21 9.08 -1.07 -0.90 1.08 6108
0.03 0.00 5.91 0.77 8.95 -1.09 -0.81 1.20 6115
0.03 -0.00 5.64 0.44 9.01 -1.09 -0.76 1.31 6121
0.03 -0.00 5.55 0.21 9.31 -1.08 -0.72 1.40 6127
0.02 -0.00 5.43 0.06 9.56 -1.06 -0.67 1.46 6133
0.03 0.01 5.28 -0.03 9.76 -1.06 -0.63 1.53 6139
0.03 -0.00 5.18 -0.13 9.83 -1.06 -0.58 1.57 6146
0.03 -0.00 5.11 -0.22 10.02 -1.07 -0.54 1.58 6152
0.02 -0.00 5.16 -0.28 10.43 -1.09 -0.50 1.58 6158
0.05 -0.00 5.13 -0.37 10.64 -1.12 -0.43 1.55 6165
0.03 -0.00 5.09 -0.48 10.68 -1.16 -0.44 1.51 6171
0.02 -0.00 5.02 -0.59 10.66 -1.21 -0.41 1.45 6177
0.03 0.00 4.90 -0.64 10.66 -1.26 -0.40 1.39 6183
0.03 -0.00 4.73 -0.73 10.72 -1.32 -0.41 1.32 6190
0.02 -0.00 4.74 -0.80 10.73 -1.37 -0.43 1.24 6196
0.03 0.00 4.85 -1.01 10.62 -1.42 -0.44 1.16 6203
0.03 -0.00 4.85 -1.21 10.48 -1.45 -0.44 1.07 6209
0.02 -0.00 4.97 -1.42 10.42 -1.47 -0.43 0.99 6215
0.03 -0.00 5.13 -1.62 10.49 -1.48 -0.40 0.92 6221
0.03 -0.00 5.22 -1.84 10.31 -1.49 -0.35 0.86 6227
0.04 -0.00 5.24 -2.02 10.14 -1.49 -0.31 0.83 6235
0.03 0.00 5.18 -2.27 9.81 -1.48 -0.24 0.83 6241
0.03 -0.00 5.14 -2.53 9.30 -1.44 -0.25 0.84 6247
0.03 -0.00 5.12 -2.91 8.82 -1.37 -0.23 0.85 6253
0.02 -0.00 5.21 -3.31 8.33 -1.25 -0.19 0.87 6259
0.03 -0.00 5.46 -3.47 7.99 -1.10 -0.13 0.89 6265
0.04 -0.00 5.70 -3.58 8.24 -0.92 -0.04 0.91 6272
0.03 -0.00 5.91 -3.32 8.93 -0.81 0.07 0.94 6278
0.02 -0.00 5.87 -3.03 9.76 -0.72 0.11 0.98 6284
0.03 -0.00 5.79 -2.77 10.39 -0.70 0.16 1.03 6291
0.03 -0.00 5.58 -2.57 10.71 -0.74 0.18 1.10 6297
0.03 -0.00 5.21 -2.65 10.77 -0.80 0.16 1.16 6303
0.03 -0.00 5.00 -2.90 10.71 -0.86 0.12 1.20 6309
0.03 -0.00 4.94 -3.25 10.68 -0.91 0.09 1.20 6316
0.03 -0.00 4.65 -3.59 10.36 -0.94 0.08 1.17 6322
0.03 -0.00 4.35 -3.97 9.95 -0.95 0.09 1.09 6328
0.03 -0.00 4.29 -4.22 9.85 -0.95 0.09 0.96 6335
0.03 -0.00 4.25 -4.47 9.86 -0.94 0.09 0.84 6341
0.03 -0.00 4.11 -4.71 9.88 -0.94 0.10 0.66 6347
0.02 -0.00 4.06 -4.91 9.65 -0.96 0.12 0.48 6353
0.03 0.01 4.11 -5.12 9.25 -0.98 0.14 0.28 6360
0.03 -0.00 4.16 -5.43 8.74 -0.99 0.16 0.09 6366
0.02 -0.00 3.99 -5.75 8.13 -0.97 0.18 -0.10 6372
0.02 -0.00 3.94 -6.73 7.42 -0.92 0.24 -0.30 6378
0.02 0.00 4.13 -6.41 6.92 -0.83 0.31 -0.47 6384
0.03 -0.00 4.22 -6.44 6.26 -0.71 0.43 -0.67 6391
0.03 -0.00 5.73 -11.28 4.07 -0.56 0.59 -0.84 6397
0.03 -0.00 0.24 -12.33 32.52 1.31 1.49 -0.74 6404
0.03 -0.00 -1.24 -8.45 1.19 1.23 1.31 -0.81 6410
0.02 -0.00 -3.26 -19.65 2.63 1.79 -0.33 -1.01 6416
0.03 0.02 -9.40 -39.04 2.03 1.99 -1.67 -1.22 6422
0.05 0.04 -7.77 -69.32 61.10 2.18 -4.13 -1.12 6429
0.03 0.17 -1.71 -7.52 18.12 0.12 -0.78 0.16 6435
0.04 0.23 0.70 -5.72 10.66 -0.09 -0.04 0.07 6441
0.03 0.21 -0.13 -0.34 9.95 -0.14 0.06 0.10 6448
0.02 0.23 -0.21 0.41 9.98 -0.13 0.11 0.04 6454
0.03 0.21 -0.01 0.71 9.45 -0.09 0.13 0.03 6461
0.05 0.22 1.18 -0.20 10.01 -0.07 0.16 0.05 6467
0.05 0.23 1.28 -0.43 10.36 -0.05 0.16 0.08 6473
0.04 0.32 1.14 -0.97 10.38 -0.01 0.14 0.08 6479
0.04 0.30 0.82 -0.77 9.94 -0.00 0.11 0.07 6486
0.06 0.26 0.54 -0.89 9.92 -0.01 0.13 0.06 6492
0.05 0.31 0.70 -0.99 10.04 -0.04 0.15 0.08 6499
0.06 0.31 0.85 -0.69 10.08 -0.06 0.15 0.08 6505
0.05 0.32 0.99 -0.91 10.09 -0.06 0.16 0.08 6511
0.07 0.33 1.08 -0.73 9.92 -0.05 0.16 0.07 6517
0.08 0.35 1.01 -0.62 10.11 -0.03 0.15 0.07 6523
0.07 0.35 1.02 -0.71 10.14 -0.02 0.14 0.06 6530
0.05 0.38 1.01 -0.74 9.98 -0.02 0.13 0.05 6537
0.06 0.37 1.02 -0.72 10.05 -0.01 0.12 0.04 6543
0.04 0.37 0.91 -0.71 10.10 -0.01 0.11 0.04 6549
0.02 0.38 0.90 -0.74 10.03 -0.00 0.10 0.05 6555
0.05 0.39 0.94 -0.73 10.10 -0.00 0.10 0.05 6561
0.04 0.38 0.96 -0.71 10.09 0.00 0.09 0.06 6568
0.04 0.37 0.93 -0.72 10.14 0.00 0.09 0.07 6575
0.05 0.34 1.01 -0.77 9.99 0.01 0.09 0.07 6581
0.06 0.31 1.08 -0.75 9.98 0.00 0.07 0.07 6587
0.05 0.30 1.03 -0.74 9.94 0.01 0.06 0.06 6593
0.05 0.27 1.03 -0.73 9.95 -0.00 0.05 0.05 6599
0.07 0.24 0.98 -0.74 9.98 -0.00 0.05 0.05 6605
0.05 0.23 0.98 -0.69 9.95 -0.00 0.05 0.05 6611
0.04 0.23 1.04 -0.70 9.98 0.00 0.05 0.05 6619
0.05 0.24 1.03 -0.75 9.95 0.00 0.04 0.05 6625
0.05 0.19 1.04 -0.73 9.95 -0.00 0.04 0.05 6631
0.05 0.19 1.07 -0.74 9.98 0.00 0.04 0.06 6637
0.04 0.17 1.07 -0.73 9.95 0.00 0.04 0.05 6643
0.05 0.16 1.01 -0.73 10.00 0.01 0.04 0.05 6649
0.05 0.13 1.01 -0.77 9.98 0.01 0.04 0.06 6656
0.05 0.12 1.06 -0.83 9.96 0.01 0.03 0.06 6663
0.05 0.11 1.04 -0.75 10.03 0.01 0.03 0.07 6669
0.07 0.11 1.01 -0.72 10.03 0.01 0.03 0.06 6675
0.05 0.07 1.10 -0.75 9.94 0.02 0.04 0.07 6681
0.05 0.07 1.06 -0.74 10.01 0.01 0.03 0.07 6687
0.07 0.04 1.10 -0.75 9.95 0.01 0.04 0.06 6693
0.05 0.04 1.10 -0.74 9.95 0.01 0.03 0.06 6700
0.06 0.03 1.11 -0.80 9.96 0.01 0.03 0.06 6707
0.05 0.05 1.09 -0.77 9.97 0.00 0.03 0.05 6713
0.07 0.03 1.13 -0.81 10.02 0.00 0.04 0.05 6719
0.05 0.03 1.15 -0.82 9.96 0.00 0.03 0.05 6725
0.04 0.02 1.12 -0.78 9.98 -0.00 0.03 0.05 6731
0.06 0.03 1.13 -0.82 9.95 -0.01 0.03 0.05 6737
0.05 0.03 1.12 -0.78 9.91 -0.00 0.02 0.04 6744
0.05 -0.01 1.21 -0.77 9.98 -0.01 0.02 0.04 6750
0.04 0.02 1.17 -0.75 9.97 -0.01 0.01 0.03 6756
0.05 0.02 1.16 -0.74 9.98 -0.01 0.01 0.03 6763
0.06 0.01 1.17 -0.77 9.92 -0.01 0.01 0.02 6769
0.07 -0.01 1.15 -0.76 9.99 -0.01 0.01 0.02 6775
0.06 0.01 1.17 -0.75 10.01 -0.01 0.01 0.02 6781
0.08 0.01 1.14 -0.78 9.99 -0.01 0.01 0.02 6788
0.06 0.01 1.19 -0.76 9.96 -0.02 0.01 0.02 6794
0.06 0.01 1.19 -0.79 9.97 -0.01 0.01 0.01 6800
0.05 0.03 1.17 -0.79 10.00 -0.02 0.01 0.02 6807
0.06 0.02 1.17 -0.78 9.92 -0.02 0.00 0.02 6813
0.06 0.01 1.22 -0.77 9.94 -0.02 0.00 0.02 6819
0.05 0.02 1.17 -0.78 9.99 -0.02 0.00 0.01 6825
0.05 0.03 1.20 -0.77 9.98 -0.01 0.00 0.01 6832
0.06 -0.00 1.24 -0.79 9.97 -0.02 -0.00 0.01 6838
0.05 -0.00 1.24 -0.78 9.96 -0.02 -0.01 0.01 6844
0.04 0.01 1.24 -0.75 10.03 -0.02 -0.01 0.01 6850
0.06 0.01 0.61 -0.74 9.98 -0.02 -0.01 0.00 6856
0.05 0.01 1.21 -0.80 9.97 -0.02 -0.02 -0.00 6863
0.04 0.01 1.21 -0.76 9.98 -0.02 -0.02 -0.00 6870
0.05 0.02 1.23 -0.79 9.96 -0.02 -0.02 0.00 6876
0.06 0.01 1.23 -0.80 9.95 -0.02 -0.02 0.00 6882
0.05 0.00 1.18 -0.77 9.97 -0.02 -0.02 -0.00 6888
0.03 -0.00 1.26 -0.75 9.93 -0.02 -0.02 -0.00 6894
0.04 0.01 1.26 -0.78 9.90 -0.02 -0.02 -0.00 6900
0.06 -0.00 1.24 -0.79 9.92 -0.02 -0.03 -0.01 6906
0.05 -0.00 1.26 -0.78 9.97 -0.01 -0.04 -0.01 6913
0.03 -0.00 1.24 -0.77 9.96 -0.01 -0.04 -0.01 6920
0.05 0.00 1.20 -0.78 9.93 -0.02 -0.04 -0.01 6926
0.05 -0.01 1.22 -0.73 9.98 -0.01 -0.05 -0.02 6932
0.04 -0.00 1.82 -0.77 10.01 -0.02 -0.05 -0.02 6938
0.04 -0.00 1.25 -0.76 9.96 -0.02 -0.06 -0.02 6944
0.05 0.00 1.26 -0.74 9.95 -0.02 -0.07 -0.02 6950
0.05 0.01 1.27 -0.80 9.95 -0.02 -0.08 -0.02 6957
0.05 0.00 1.24 -0.75 9.97 -0.02 -0.08 -0.03 6963
0.04 0.01 1.20 -0.73 9.97 -0.03 -0.08 -0.03 6970
0.05 0.01 1.19 -0.77 9.93 -0.03 -0.09 -0.03 6976
0.05 0.01 1.20 -0.81 10.06 -0.04 -0.08 -0.03 6982
0.05 0.00 1.25 -0.76 9.94 -0.03 -0.08 -0.04 6988
0.05 0.01 1.17 -0.73 9.96 -0.03 -0.08 -0.03 6994
0.05 0.00 1.16 -0.82 9.90 -0.03 -0.08 -0.03 7001
0.05 -0.00 1.12 -0.78 9.99 -0.03 -0.08 -0.03 7007
0.05 0.02 1.16 -0.80 10.01 -0.03 -0.07 -0.03 7014
0.06 0.02 1.17 -0.75 10.02 -0.02 -0.07 -0.02 7020
0.05 0.01 1.15 -0.74 9.90 -0.02 -0.07 -0.02 7026
0.04 0.02 1.19 -0.74 9.99 -0.02 -0.06 -0.02 7032
0.06 0.02 1.16 -0.72 10.15 -0.02 -0.06 -0.01 7038
0.06 0.02 1.21 -0.77 10.04 -0.02 -0.06 -0.01 7045
0.05 0.02 1.18 -0.76 9.99 -0.01 -0.06 -0.01 7052
0.05 0.03 1.20 -0.77 9.98 -0.01 -0.06 -0.01 7058
0.06 0.02 1.15 -0.75 9.93 -0.01 -0.06 -0.01 7064
0.05 0.00 1.21 -0.78 10.05 -0.00 -0.06 -0.02 7070
0.06 0.02 1.15 -0.76 10.02 -0.01 -0.06 -0.02 7076
0.05 0.02 1.13 -0.78 10.01 -0.01 -0.05 -0.02 7083
0.05 0.00 1.16 -0.80 10.01 -0.01 -0.04 -0.01 7090
0.04 0.02 1.16 -0.75 10.03 -0.01 -0.04 -0.01 7096
0.05 0.02 1.17 -0.79 9.98 -0.00 -0.03 -0.01 7102
0.04 -0.00 1.19 -0.78 9.93 -0.00 -0.03 -0.01 7108
0.04 0.01 1.18 -0.76 10.05 -0.00 -0.03 -0.01 7114
0.06 0.02 1.22 -0.78 9.98 -0.00 -0.03 -0.01 7120
0.06 0.01 1.18 -0.80 10.01 0.00 -0.03 -0.00 7127
0.05 -0.00 1.23 -0.81 10.02 -0.00 -0.03 -0.00 7134
0.05 0.02 1.25 -0.74 10.00 -0.00 -0.04 -0.01 7140
0.06 0.00 1.18 -0.79 10.03 -0.00 -0.04 -0.01 7146
0.05 -0.01 1.19 -0.76 9.95 -0.00 -0.04 -0.01 7152
0.05 -0.00 1.25 -0.82 10.07 -0.01 -0.04 -0.02 7158
0.07 0.00 1.80 -0.78 10.06 -0.00 -0.04 -0.02 7164
0.06 -0.01 1.19 -0.76 10.10 -0.00 -0.04 -0.02 7172
0.05 -0.00 1.09 -0.75 10.04 0.00 -0.04 -0.02 7178
0.05 -0.01 1.13 -1.17 10.13 0.01 -0.04 -0.02 7184
0.05 -0.01 1.33 -0.82 10.10 0.02 -0.05 -0.03 7190
0.04 -0.00 1.33 -0.73 10.12 0.04 -0.06 -0.03 7196
0.04 -0.00 1.25 -0.92 10.07 0.05 -0.06 -0.05 7202
0.05 -0.01 1.43 -0.71 10.12 0.07 -0.10 -0.07 7208
0.05 -0.00 1.47 -0.90 10.22 0.10 -0.06 -0.10 7215
0.04 -0.00 1.37 -0.77 10.20 0.13 -0.06 -0.16 7222
0.05 -0.00 1.84 -0.59 10.16 0.19 -0.05 -0.18 7228
0.05 -0.00 1.70 -0.70 10.30 0.28 -0.04 -0.24 7234
0.05 -0.00 2.02 -0.14 10.86 0.43 0.00 -0.33 7240
0.05 -0.00 1.97 -0.68 11.28 0.75 0.14 -0.42 7246
0.07 -0.01 2.48 -0.77 13.48 1.18 0.35 -0.53 7252
0.05 -0.01 2.51 -0.69 13.74 1.59 0.69 -0.63 7260
0.06 -0.01 1.25 -1.09 14.61 1.92 0.89 -0.71 7266
0.06 -0.01 1.56 -1.36 15.78 2.13 1.01 -0.73 7272
0.04 -0.00 1.17 -1.45 14.24 2.27 1.18 -0.71 7278
0.03 -0.00 1.36 -1.42 14.11 2.34 1.40 -0.68 7284
0.04 -0.00 1.07 -1.62 14.22 2.35 1.64 -0.65 7290
0.05 -0.01 0.68 -1.87 13.58 2.38 1.91 -0.58 7298
0.04 0.00 0.88 -2.24 14.60 2.41 2.17 -0.49 7304
0.05 0.00 1.83 -1.95 15.32 2.41 2.52 -0.38 7310
0.05 -0.00 1.51 -2.23 14.77 2.38 2.95 -0.28 7316
0.03 -0.00 1.78 -2.70 14.95 2.28 3.29 -0.21 7322
0.05 0.00 1.76 -3.42 15.63 2.22 3.69 -0.13 7328
0.04 -0.00 1.61 -4.04 15.77 2.13 4.04 -0.04 7335
0.04 -0.00 0.78 -4.52 15.56 2.04 4.18 0.05 7342
0.04 -0.00 -0.10 -4.80 14.20 2.00 4.24 0.12 7348
0.05 -0.01 -0.43 -3.97 14.52 2.03 4.26 0.19 7354
0.05 -0.00 -0.96 -4.06 15.01 2.18 4.27 0.27 7360
0.05 -0.00 -1.58 -4.10 13.42 2.33 4.22 0.38 7366
0.06 -0.01 -2.72 -3.23 12.26 2.38 4.00 0.53 7373
0.05 -0.00 -3.72 -2.76 10.59 2.33 3.66 0.70 7379
0.03 -0.00 -4.67 -2.65 9.26 2.22 3.09 0.86 7386
0.03 0.01 -7.30 -1.42 8.06 2.06 2.06 0.93 7392
0.04 -0.00 -12.72 1.04 8.61 1.88 1.13 0.73 7398
0.03 -0.00 -14.87 0.43 9.33 1.59 -0.29 0.17 7404
0.04 -0.00 -24.35 3.71 16.12 1.02 -1.91 -0.77 7410
0.03 -0.00 -10.72 2.82 15.09 0.17 -2.90 -1.57 7417
0.03 -0.00 -2.99 1.24 14.12 -0.37 -3.12 -1.93 7424
0.03 -0.00 -1.56 0.40 12.67 -0.66 -2.95 -2.21 7430
0.03 -0.00 -2.46 0.17 10.74 -0.76 -2.66 -2.55 7436
0.03 -0.00 -2.20 0.33 9.34 -0.76 -2.48 -2.90 7442
0.03 -0.00 -0.83 0.36 8.05 -0.71 -2.49 -3.13 7448
0.03 -0.00 0.46 0.04 8.05 -0.63 -2.60 -3.20 7454
0.03 -0.00 0.74 0.12 8.81 -0.53 -2.67 -3.10 7461
0.03 -0.00 1.06 0.33 9.83 -0.46 -2.64 -2.92 7468
0.03 -0.00 1.48 0.78 10.47 -0.45 -2.57 -2.60 7474
0.04 -0.00 2.48 1.59 10.47 -0.51 -2.60 -2.27 7480
0.03 -0.00 3.38 2.29 10.49 -0.61 -2.77 -1.96 7486
0.02 -0.00 4.06 2.42 10.31 -0.72 -2.99 -1.65 7492
0.03 -0.00 4.79 2.08 10.10 -0.84 -3.15 -1.34 7499
0.03 -0.00 6.07 1.96 10.02 -0.94 -3.22 -1.03 7505
0.02 -0.00 6.42 1.93 10.22 -1.02 -3.22 -0.75 7512
0.03 -0.00 7.36 1.95 10.50 -1.10 -3.11 -0.52 7518
0.03 -0.00 8.34 1.89 10.76 -1.20 -2.90 -0.34 7524
0.03 -0.00 9.01 1.72 10.78 -1.33 -2.60 -0.17 7530
0.03 -0.00 9.33 1.49 10.36 -1.50 -2.27 -0.02 7536
0.04 -0.00 9.18 1.22 10.01 -1.64 -1.94 0.10 7543
0.03 -0.00 8.78 0.76 9.55 -1.74 -1.66 0.21 7549
0.02 -0.00 8.25 0.17 9.11 -1.80 -1.44 0.31 7556
0.03 -0.00 7.87 -0.35 8.53 -1.80 -1.29 0.40 7562
0.03 -0.00 7.55 -0.69 8.21 -1.75 -1.13 0.45 7568
0.03 -0.00 7.44 -0.99 8.08 -1.67 -0.98 0.50 7574
0.02 -0.00 7.30 -1.03 8.15 -1.57 -0.81 0.53 7580
0.03 -0.00 7.24 -1.02 8.55 -1.48 -0.61 0.55 7586
0.03 -0.00 6.92 -0.85 9.02 -1.43 -0.42 0.55 7592
0.03 -0.00 6.67 -0.68 9.59 -1.37 -0.23 0.55 7600
0.02 -0.00 6.30 -0.59 9.91 -1.34 -0.10 0.55 7606
0.02 -0.00 5.84 -0.56 10.15 -1.35 0.03 0.55 7612
0.03 -0.00 5.37 -0.46 10.47 -1.37 0.09 0.54 7618
0.03 -0.00 5.03 -0.46 10.68 -1.41 0.11 0.53 7624
0.02 -0.00 4.81 -0.42 10.88 -1.46 0.08 0.51 7630
0.03 -0.00 4.83 -0.37 11.03 -1.49 0.06 0.49 7636
0.03 -0.00 4.90 -0.43 11.01 -1.55 0.05 0.46 7644
0.02 -0.00 4.96 -0.48 10.90 -1.60 0.06 0.43 7650
0.03 -0.00 4.93 -0.63 10.70 -1.63 0.10 0.40 7656
0.03 -0.00 4.82 -0.89 10.59 -1.65 0.15 0.36 7662
0.03 -0.00 4.71 -1.10 10.67 -1.65 0.22 0.33 7668
0.02 0.00 4.64 -1.24 10.75 -1.63 0.29 0.32 7674
0.03 -0.00 4.52 -1.42 10.85 -1.61 0.36 0.33 7681
0.03 -0.00 4.44 -1.67 10.92 -1.58 0.43 0.35 7688
0.02 -0.00 4.26 -2.00 10.81 -1.55 0.49 0.40 7694
0.03 -0.00 4.32 -2.36 10.89 -1.51 0.52 0.45 7700
0.03 -0.00 4.35 -2.78 10.95 -1.45 0.56 0.51 7706
0.03 -0.00 4.24 -3.24 10.74 -1.38 0.60 0.55 7712
0.03 -0.00 4.22 -3.63 10.56 -1.31 0.63 0.58 7718
0.02 -0.00 4.16 -4.09 10.49 -1.23 0.66 0.60 7726
0.02 -0.00 4.08 -4.56 10.52 -1.15 0.66 0.59 7732
0.03 0.01 4.10 -4.97 10.67 -1.08 0.64 0.57 7738
0.03 -0.00 4.10 -5.31 10.62 -1.03 0.59 0.53 7744
0.03 -0.00 4.14 -5.54 10.54 -1.01 0.55 0.50 7750
0.03 0.00 4.14 -5.73 10.67 -1.01 0.50 0.45 7756
0.03 -0.00 4.11 -5.84 10.82 -1.04 0.44 0.40 7763
0.02 -0.00 4.17 -5.97 10.76 -1.08 0.41 0.36 7770
0.03 -0.00 4.32 -6.74 10.37 -1.14 0.44 0.35 7776
0.03 -0.00 3.86 -6.47 9.65 -1.18 0.57 0.37 7782
0.03 -0.00 2.87 -7.08 9.18 -1.17 0.78 0.45 7788
0.02 -0.00 1.62 -7.68 8.75 -1.09 0.92 0.53 7794
0.02 0.00 0.20 -8.21 8.38 -0.97 0.95 0.57 7800
0.04 -0.00 -0.86 -8.52 7.98 -0.86 0.89 0.59 7806
0.02 -0.00 -1.37 -8.70 7.64 -0.74 0.76 0.58 7814
0.02 -0.00 -1.51 -8.68 7.53 -0.64 0.58 0.55 7820
0.03 -0.00 -1.14 -8.47 7.30 -0.57 0.30 0.47 7826
0.04 -0.00 -0.30 -8.35 6.99 -0.54 0.04 0.36 7832
0.02 -0.00 0.65 -13.58 5.12 -0.51 -0.19 0.20 7838
0.02 -0.00 0.95 -16.95 32.28 1.21 -0.27 -0.10 7844
0.03 -0.00 1.11 -9.36 -3.03 0.94 0.26 -0.26 7851
0.03 -0.00 0.40 -18.96 -2.15 1.26 -0.31 -0.46 7857
0.02 0.01 -4.33 -33.75 5.60 1.46 -1.37 -0.70 7864
0.03 0.08 -7.53 -37.51 6.39 1.88 -2.03 -0.65 7870
0.02 0.19 3.49 1.53 17.72 2.67 -1.80 -0.51 7876
0.02 0.32 -0.42 -9.43 54.26 1.87 -3.30 -0.41 7882
0.02 0.43 3.92 -2.93 14.56 0.20 -1.20 0.16 7889
0.00 0.53 0.32 -0.75 10.69 -0.02 -0.15 0.17 7896
0.01 0.51 0.08 -0.09 10.74 -0.08 0.04 0.09 7902
0.02 0.47 -0.44 0.27 9.53 -0.06 0.08 -0.00 7908
-0.00 0.51 0.57 0.00 9.01 0.05 -0.09 -0.13 7914
-0.01 0.49 2.29 -0.76 10.10 0.10 -0.17 -0.06 7920
0.02 0.51 1.08 -1.03 10.01 0.07 -0.07 0.04 7927
0.01 0.52 0.40 -1.16 10.27 0.01 0.01 0.07 7933
0.01 0.52 0.26 -0.65 9.90 0.01 0.03 0.05 7940
0.03 0.51 1.12 -0.69 9.91 -0.01 0.05 0.04 7946
0.04 0.52 0.92 -1.04 10.05 -0.02 0.06 0.06 7952
0.02 0.52 0.89 -1.07 10.14 -0.03 0.07 0.08 7958
0.02 0.54 0.63 -0.85 10.07 -0.03 0.07 0.08 7965
0.03 0.54 0.69 -0.77 10.15 -0.04 0.08 0.07 7971
0.02 0.53 0.74 -0.75 10.17 -0.04 0.08 0.08 7977
0.03 0.55 0.76 -0.78 10.04 -0.05 0.07 0.08 7984
0.03 0.60 0.69 -0.71 10.12 -0.05 0.08 0.07 7990
0.02 0.59 0.68 -0.72 10.09 -0.04 0.08 0.08 7997
0.02 0.63 0.76 -0.74 10.12 -0.03 0.09 0.08 8003
0.03 0.61 0.73 -0.74 10.07 -0.03 0.09 0.07 8009
0.01 0.62 0.79 -0.71 10.03 -0.02 0.10 0.07 8015
0.02 0.66 0.78 -0.70 10.05 -0.01 0.07 0.07 8022
0.02 0.62 0.76 -0.64 10.05 0.00 0.10 0.07 8028
0.01 0.60 0.87 -0.71 10.00 0.01 0.09 0.07 8035
0.02 0.60 0.82 -0.71 9.94 0.01 0.08 0.07 8041
0.04 0.56 0.80 -0.75 9.98 0.01 0.07 0.06 8047
0.03 0.50 0.81 -0.73 9.94 0.01 0.07 0.06 8053
0.02 0.51 0.85 -0.72 9.87 0.01 0.06 0.06 8059
0.03 0.49 0.86 -0.73 9.95 0.01 0.05 0.05 8066
0.03 0.45 0.85 -0.75 9.96 0.00 0.04 0.05 8072
0.03 0.43 0.87 -0.71 9.97 0.00 0.04 0.05 8079
0.03 0.40 0.88 -0.73 9.95 0.00 0.02 0.05 8085
0.05 0.39 0.86 -0.68 9.96 0.00 0.02 0.05 8091
0.04 0.35 0.87 -0.73 9.96 0.00 0.01 0.05 8097
0.03 0.33 0.81 -0.75 10.00 0.00 -0.00 0.05 8103
0.04 0.36 0.81 -0.74 9.97 0.00 -0.01 0.05 8110
0.05 0.31 0.84 -0.76 10.05 0.00 -0.02 0.04 8116
0.05 0.27 0.87 -0.72 10.03 0.00 -0.02 0.04 8123
0.04 0.27 0.88 -0.75 9.99 0.00 -0.02 0.05 8129
0.05 0.28 0.84 -0.78 9.98 0.00 -0.02 0.05 8135
0.05 0.24 0.84 -0.75 9.99 0.00 -0.02 0.05 8141
0.04 0.25 0.85 -0.78 9.98 -0.00 -0.01 0.05 8147
0.06 0.22 0.87 -0.72 9.98 0.00 -0.01 0.04 8154
0.06 0.24 0.84 -0.71 10.03 -0.00 -0.02 0.05 8160
0.06 0.22 0.84 -0.72 9.95 0.00 -0.02 0.04 8166
0.05 0.19 0.88 -0.75 9.97 -0.00 -0.02 0.04 8173
0.06 0.23 0.87 -0.74 9.97 -0.00 -0.02 0.04 8179
0.04 0.23 0.86 -0.74 10.00 -0.00 -0.02 0.04 8185
0.04 0.22 0.85 -0.74 9.99 -0.00 -0.02 0.04 8192
0.05 0.18 0.86 -0.74 9.97 -0.00 -0.02 0.04 8198
0.06 0.17 0.89 -0.76 9.98 -0.01 -0.02 0.04 8204
0.05 0.18 0.90 -0.74 10.02 -0.01 -0.02 0.04 8210
0.05 0.20 0.88 -0.73 9.95 -0.01 -0.01 0.04 8217
0.08 0.16 0.85 -0.73 10.00 -0.01 -0.02 0.04 8223
0.07 0.15 0.87 -0.73 9.93 -0.01 -0.02 0.04 8229
0.06 0.13 0.87 -0.74 9.92 -0.01 -0.01 0.03 8236
0.08 0.13 0.85 -0.75 10.01 -0.00 -0.01 0.04 8242
0.06 0.13 0.88 -0.75 9.97 -0.01 -0.00 0.04 8248
0.06 0.10 0.88 -0.74 9.96 -0.01 -0.00 0.04 8254
0.06 0.14 0.88 -0.74 9.95 -0.01 -0.00 0.04 8261
0.08 0.12 0.83 -0.73 9.92 -0.01 0.00 0.03 8267
0.07 0.11 0.92 -0.72 10.02 -0.01 -0.00 0.04 8273
0.06 0.11 0.93 -0.69 10.03 -0.01 -0.00 0.04 8280
0.08 0.09 0.91 -0.74 9.97 -0.01 -0.00 0.04 8286
0.06 0.06 0.91 -0.75 9.98 -0.01 -0.00 0.04 8292
0.05 0.09 0.91 -0.76 9.98 -0.01 -0.00 0.03 8298
0.05 0.10 0.93 -0.77 9.98 -0.00 -0.00 0.04 8305
0.07 0.08 0.92 -0.72 9.98 -0.01 -0.01 0.03 8311
0.07 0.05 0.92 -0.77 9.95 -0.01 -0.01 0.03 8317
0.06 0.05 0.96 -0.75 9.97 -0.01 -0.01 0.03 8324
0.07 0.07 0.91 -0.75 9.97 -0.02 -0.01 0.03 8330
0.07 0.03 0.91 -0.77 9.95 -0.01 -0.01 0.03 8336
0.08 0.02 0.91 -0.76 9.98 -0.02 -0.01 0.03 8342
0.06 0.05 0.96 -0.76 9.95 -0.01 -0.01 0.03 8348
0.08 0.04 0.93 -0.71 9.98 -0.02 -0.01 0.03 8355
0.07 0.04 0.92 -0.76 9.97 -0.02 -0.00 0.03 8361
0.06 0.02 0.91 -0.72 9.99 -0.01 -0.01 0.03 8368
0.06 0.05 0.91 -0.78 9.97 -0.02 -0.00 0.03 8374
0.07 0.04 0.94 -0.80 9.98 -0.02 -0.00 0.03 8380
0.06 0.04 0.90 -0.77 10.03 -0.02 -0.00 0.03 8386
0.04 0.05 0.89 -0.76 10.02 -0.02 -0.01 0.03 8392
0.07 0.06 0.94 -0.76 9.99 -0.02 -0.01 0.03 8399
0.06 0.05 0.96 -0.77 9.98 -0.02 -0.01 0.03 8406
0.05 0.05 0.92 -0.78 9.98 -0.02 -0.02 0.03 8412
0.05 0.07 0.96 -0.76 10.01 -0.02 -0.02 0.03 8418
0.06 0.07 0.95 -0.73 9.99 -0.02 -0.02 0.03 8424
0.05 0.07 0.97 -0.74 10.03 -0.02 -0.02 0.03 8430
0.04 0.07 0.98 -0.76 9.92 -0.01 -0.03 0.02 8436
0.06 0.10 0.91 -0.77 9.93 -0.02 -0.03 0.02 8443
0.04 0.10 1.01 -0.74 9.93 -0.02 -0.03 0.02 8450
0.04 0.10 0.95 -0.75 9.97 -0.01 -0.03 0.02 8456
0.04 0.11 0.97 -0.75 9.93 -0.02 -0.03 0.02 8462
0.05 0.11 0.98 -0.73 9.94 -0.02 -0.03 0.02 8468
0.05 0.11 0.97 -0.74 9.96 -0.02 -0.06 0.02 8474
0.03 0.11 0.95 -0.71 9.98 -0.02 -0.03 0.02 8480
0.04 0.09 0.96 -0.71 9.98 -0.02 -0.03 0.02 8486
0.05 0.09 0.95 -0.72 9.95 -0.02 -0.03 0.02 8494
0.05 0.07 0.97 -0.74 9.98 -0.01 -0.03 0.02 8500
0.06 0.09 0.98 -0.78 9.96 -0.02 -0.04 0.02 8506
0.07 0.08 0.98 -0.75 10.01 -0.01 -0.04 0.02 8512
0.05 0.05 0.93 -0.74 10.01 -0.02 -0.04 0.02 8518
0.05 0.04 0.92 -0.75 9.98 -0.01 -0.00 0.02 8524
0.05 0.04 0.93 -0.77 9.98 -0.01 -0.04 0.02 8530
0.05 0.03 0.96 -0.73 10.02 -0.01 -0.04 0.02 8538
0.04 0.04 0.95 -0.74 9.97 -0.01 -0.04 0.01 8544
0.05 0.07 1.00 -0.76 9.96 -0.01 -0.04 0.01 8550
0.06 0.05 1.00 -0.79 10.00 -0.01 -0.03 0.01 8556
0.06 0.03 0.93 -0.74 10.00 -0.01 -0.03 0.01 8562
0.04 0.02 1.03 -0.74 10.00 -0.01 -0.03 0.01 8568
0.07 0.03 1.02 -0.76 10.02 -0.01 -0.03 0.00 8576
0.05 0.00 1.02 -0.69 9.99 -0.00 -0.03 0.00 8582
0.05 0.01 1.05 -0.72 10.05 -0.00 -0.03 -0.00 8588
0.05 0.03 1.03 -0.69 10.04 0.00 -0.02 -0.01 8594
0.05 -0.01 0.96 -0.73 10.02 0.01 -0.02 -0.01 8600
0.05 0.00 1.03 -0.68 9.97 0.02 -0.02 -0.02 8606
0.05 -0.00 1.27 -0.71 9.97 0.02 -0.01 -0.04 8612
0.07 -0.01 1.16 -0.71 10.13 0.03 -0.00 -0.05 8619
0.06 -0.01 1.27 -0.70 10.16 0.04 0.01 -0.07 8626
0.04 -0.00 1.25 -0.84 10.13 0.06 0.01 -0.09 8632
0.06 -0.01 1.58 -0.65 10.26 0.10 0.02 -0.12 8638
0.06 -0.01 1.76 -0.74 10.31 0.16 0.01 -0.15 8644
0.05 -0.00 1.45 -0.68 10.25 0.24 0.00 -0.19 8650
0.05 -0.00 1.99 -0.92 10.94 0.36 -0.00 -0.26 8656
0.07 -0.01 1.94 -0.72 11.48 0.61 0.05 -0.35 8663
0.06 -0.01 2.47 -0.73 12.98 1.11 0.25 -0.46 8670
0.04 -0.00 1.94 -0.84 14.51 1.61 0.60 -0.59 8676
0.06 -0.01 1.76 -1.02 14.23 2.06 0.87 -0.69 8682
0.03 -0.00 2.27 -0.76 15.23 2.32 1.03 -0.76 8688
0.04 -0.00 2.56 -0.59 15.35 2.45 1.31 -0.84 8694
0.04 -0.00 2.51 -0.57 13.60 2.42 1.71 -0.92 8700
0.06 -0.01 2.34 -0.58 14.86 2.30 2.08 -1.01 8708
0.07 -0.01 2.69 -0.79 13.42 2.20 2.46 -1.06 8714
0.06 -0.01 2.76 -0.83 13.28 2.07 2.80 -1.11 8720
0.07 -0.01 3.76 -0.86 13.68 1.93 3.09 -1.12 8726
0.04 -0.00 3.60 -1.28 14.52 1.82 3.50 -1.13 8732
0.04 -0.00 3.21 -1.82 14.47 1.66 3.89 -1.16 8738
0.05 -0.01 2.20 -3.58 14.98 1.48 4.12 -1.12 8745
0.05 -0.00 1.90 -4.42 15.35 1.40 4.27 -1.04 8752
0.04 -0.00 0.16 -4.20 15.06 1.41 4.28 -0.97 8758
0.05 -0.00 -0.64 -4.51 14.72 1.48 4.28 -0.87 8764
0.05 -0.01 -1.39 -4.68 14.75 1.67 4.28 -0.71 8770
0.04 -0.00 -2.87 -4.78 13.71 1.79 4.26 -0.53 8776
0.06 0.00 -4.33 -3.97 12.50 1.86 4.02 -0.30 8783
0.04 -0.00 -4.33 -3.99 10.28 1.84 3.58 -0.02 8790
0.03 -0.00 -5.52 -3.47 10.04 1.82 2.90 0.23 8796
0.05 -0.01 -9.83 -0.04 9.39 1.78 1.95 0.30 8802
0.03 -0.00 -14.83 2.56 9.55 1.65 0.89 0.01 8808
0.03 -0.00 -18.55 3.37 13.26 1.21 -0.81 -0.73 8814
0.03 -0.00 -12.11 3.58 14.84 0.50 -2.28 -1.12 8821
0.03 -0.00 -5.73 3.50 15.68 -0.08 -2.85 -1.35 8827
0.04 -0.00 -3.38 2.63 14.47 -0.44 -2.93 -1.56 8834
0.03 -0.00 -2.98 2.43 13.40 -0.63 -2.77 -1.91 8840
0.03 -0.00 -2.18 2.46 11.79 -0.76 -2.57 -2.27 8846
0.04 -0.00 -1.54 2.66 10.35 -0.87 -2.54 -2.51 8852
0.03 -0.00 -0.87 2.93 9.86 -0.93 -2.56 -2.62 8859
0.05 -0.01 -0.55 2.79 10.06 -0.97 -2.55 -2.62 8865
0.03 -0.00 -0.40 2.70 10.07 -1.02 -2.50 -2.50 8871
0.03 -0.00 -0.08 3.13 9.60 -1.07 -2.49 -2.32 8878
0.04 0.00 0.60 4.27 9.20 -1.12 -2.55 -2.09 8884
0.04 -0.00 1.50 4.08 8.84 -1.17 -2.69 -1.88 8890
0.03 -0.00 2.41 4.06 8.40 -1.22 -2.84 -1.62 8896
0.03 -0.00 3.68 3.94 8.19 -1.25 -2.94 -1.35 8902
0.04 -0.00 4.85 3.80 8.12 -1.27 -2.98 -1.08 8909
0.03 -0.00 5.92 3.78 8.12 -1.28 -2.93 -0.82 8915
0.03 -0.00 6.78 3.71 8.32 -1.29 -2.79 -0.58 8922
0.03 -0.00 7.57 3.51 8.67 -1.30 -2.58 -0.38 8928
0.04 -0.00 8.06 3.27 8.86 -1.30 -2.31 -0.13 8934
0.03 -0.00 8.33 3.07 9.31 -1.31 -2.02 0.12 8940
0.03 -0.00 8.57 2.75 9.51 -1.32 -1.75 0.37 8946
0.02 -0.00 8.29 2.33 9.53 -1.32 -1.52 0.62 8952
0.04 -0.00 8.04 1.94 9.65 -1.31 -1.37 0.86 8960
0.04 -0.00 7.62 1.48 9.66 -1.27 -1.24 1.08 8966
0.02 -0.00 7.32 0.90 9.72 -1.22 -1.17 1.23 8972
0.03 -0.00 7.12 0.42 9.74 -1.15 -1.11 1.37 8978
0.03 -0.00 7.14 0.07 9.82 -1.07 -1.03 1.47 8984
0.03 -0.00 7.31 -0.19 10.52 -1.01 -0.92 1.51 8990
0.02 -0.00 7.21 -0.35 10.42 -0.96 -0.78 1.50 8996
0.03 0.00 7.14 -0.49 10.81 -0.92 -0.60 1.47 9003
0.03 -0.00 7.08 -0.60 11.23 -0.91 -0.43 1.41 9010
0.02 -0.00 6.79 -0.73 11.66 -0.92 -0.25 1.34 9016
0.03 0.00 6.53 -0.98 12.07 -0.96 -0.08 1.24 9022
0.04 -0.00 6.26 -1.25 12.32 -1.00 0.05 1.20 9028
0.03 -0.00 6.00 -1.59 12.55 -1.06 0.14 1.12 9034
0.04 -0.00 5.67 -1.95 12.33 -1.15 0.18 1.05 9040
0.04 -0.00 5.33 -2.31 12.01 -1.22 0.19 1.00 9048
0.03 -0.00 5.04 -2.69 11.67 -1.30 0.18 0.96 9054
0.03 -0.00 4.73 -3.03 11.11 -1.30 0.15 0.94 9060
0.04 -0.00 4.62 -3.28 10.86 -1.30 0.13 0.92 9066
0.03 -0.00 4.62 -3.51 10.47 -1.29 0.10 0.91 9072
0.02 -0.00 4.55 -3.61 10.19 -1.28 0.08 0.90 9078
0.03 0.00 4.56 -3.69 10.03 -1.26 0.08 0.89 9085
0.03 -0.00 4.58 -3.75 9.86 -1.24 0.08 0.87 9092
0.03 -0.00 4.60 -3.83 9.73 -1.22 0.09 0.86 9098
0.02 -0.00 4.62 -3.85 9.53 -1.21 0.10 0.85 9104
0.03 -0.00 4.70 -3.89 9.37 -1.20 0.12 0.85 9110
0.03 -0.00 4.73 -3.82 9.19 -1.19 0.14 0.84 9116
0.02 -0.00 4.85 -3.82 9.11 -1.17 0.15 0.84 9122
0.02 -0.00 5.21 -3.74 9.42 -1.15 0.18 0.83 9128
0.03 -0.00 5.52 -3.76 9.68 -1.14 0.23 0.83 9135
0.03 -0.00 5.57 -3.68 9.57 -1.15 0.31 0.83 9141
0.03 -0.00 5.38 -3.66 9.45 -1.16 0.37 0.82 9148
0.03 -0.00 5.13 -3.81 9.29 -1.18 0.40 0.81 9154
0.04 -0.00 4.85 -4.14 9.15 -1.18 0.40 0.78 9160
0.02 -0.00 4.56 -4.41 8.88 -1.17 0.37 0.74 9166
0.03 -0.00 4.35 -4.70 8.56 -1.14 0.32 0.69 9172
0.02 -0.00 4.41 -4.84 8.27 -1.10 0.26 0.61 9179
0.04 -0.00 4.60 -5.12 8.07 -1.06 0.24 0.52 9185
0.03 -0.00 4.79 -5.36 7.82 -1.00 0.25 0.42 9191
0.03 -0.00 5.01 -5.57 7.54 -0.93 0.30 0.31 9197
0.02 -0.00 5.32 -5.77 6.97 -0.84 0.39 0.22 9203
0.03 -0.00 5.68 -5.95 6.80 -0.73 0.54 0.10 9210
0.03 -0.00 5.97 -5.88 6.71 -0.60 0.72 -0.01 9217
0.03 -0.00 5.99 -5.76 6.67 -0.45 0.92 -0.10 9223
0.02 -0.00 6.02 -5.49 6.70 -0.36 1.10 -0.19 9229
0.03 -0.00 5.93 -10.98 5.46 -0.27 1.20 -0.25 9235
0.03 -0.00 -4.76 -12.78 30.94 1.20 1.16 -0.01 9241
0.01 -0.00 1.25 -5.20 2.18 1.26 1.08 0.02 9247
0.02 0.00 -1.43 -14.22 -0.35 1.48 0.11 -0.06 9254
0.03 0.01 -8.47 -31.62 5.65 1.60 -1.37 -0.06 9261
0.03 0.07 -14.51 -50.73 4.30 2.07 -1.77 0.31 9267
0.04 0.22 -8.09 -15.56 30.51 3.36 -1.60 0.55 9273
0.03 0.31 -3.46 -8.73 33.54 1.08 -2.99 -0.00 9280
0.01 0.32 2.78 -3.21 16.05 0.22 -1.21 -0.04 9286
0.02 0.33 0.15 -0.45 8.39 -0.09 -0.11 0.08 9292
0.02 0.32 -0.34 0.55 10.39 -0.13 0.08 0.04 9298
0.02 0.32 -0.30 0.18 9.31 -0.06 0.05 -0.06 9305
0.03 0.35 2.37 -0.60 10.09 0.06 -0.12 -0.06 9311
0.01 0.34 1.81 -0.49 9.81 0.06 -0.04 0.06 9318
0.02 0.34 1.21 -1.47 10.49 0.05 -0.04 0.06 9324
0.04 0.32 0.48 -0.81 10.26 0.03 -0.01 0.04 9330
0.04 0.29 0.62 -0.68 9.72 0.02 0.00 0.07 9336
0.04 0.27 0.98 -0.93 9.89 0.00 0.03 0.05 9342
0.04 0.26 0.88 -1.07 10.24 -0.00 0.05 0.07 9349
0.04 0.24 0.82 -0.90 10.10 -0.00 0.04 0.07 9356
0.04 0.24 0.90 -0.89 9.99 -0.01 0.05 0.07 9362
0.05 0.30 0.94 -0.80 9.95 -0.01 0.04 0.06 9368
0.07 0.26 0.94 -0.76 9.93 -0.01 0.04 0.05 9374
0.06 0.27 0.96 -0.86 9.95 -0.01 0.02 0.04 9380
0.04 0.29 0.87 -0.86 9.98 -0.01 0.01 0.04 9387
0.06 0.29 0.93 -0.94 9.90 -0.02 -0.00 0.04 9393
0.06 0.27 0.76 -0.82 9.94 -0.02 0.00 0.04 9399
0.07 0.25 0.87 -0.81 10.03 -0.01 -0.00 0.04 9406
0.06 0.27 0.80 -0.78 9.98 -0.01 -0.00 0.05 9412
0.07 0.24 0.84 -0.77 10.02 -0.01 -0.00 0.05 9418
0.07 0.22 0.82 -0.77 9.98 0.00 0.00 0.06 9424
0.09 0.21 0.85 -0.76 10.05 0.01 0.00 0.06 9431
0.11 0.20 0.90 -0.81 9.99 0.01 -0.00 0.06 9437
0.09 0.16 0.93 -0.73 9.93 0.02 -0.01 0.06 9444
0.08 0.13 0.89 -0.79 9.94 0.01 -0.02 0.06 9450
0.07 0.19 0.87 -0.86 9.96 0.00 -0.02 0.05 9456
0.09 0.14 0.85 -0.81 9.92 -0.01 -0.03 0.05 9462
0.09 0.15 0.84 -0.80 9.96 -0.01 -0.03 0.05 9468
0.09 0.15 0.87 -0.81 9.97 -0.02 -0.03 0.05 9475
0.09 0.17 0.89 -0.80 10.01 -0.02 -0.07 0.05 9481
0.10 0.17 0.91 -0.80 9.94 -0.03 -0.04 0.05 9488
0.09 0.16 0.88 -0.78 10.01 -0.03 -0.04 0.04 9494
0.10 0.17 0.88 -0.76 10.01 -0.03 -0.04 0.04 9500
0.12 0.17 0.85 -0.76 10.04 -0.02 -0.03 0.04 9506
0.10 0.17 0.90 -0.81 10.02 -0.01 -0.03 0.05 9512
0.10 0.19 0.87 -0.75 9.98 -0.01 -0.02 0.04 9519
0.12 0.17 0.86 -0.76 9.98 -0.01 -0.01 0.05 9526
0.10 0.15 0.86 -0.80 9.98 -0.01 -0.01 0.04 9532
0.09 0.16 0.89 -0.80 9.98 -0.00 -0.00 0.04 9538
0.12 0.16 0.92 -0.80 9.91 -0.00 -0.00 0.04 9544
0.11 0.14 0.92 -0.78 9.98 -0.01 -0.00 0.04 9550
0.11 0.15 0.91 -0.80 9.99 -0.01 -0.01 0.04 9556
0.11 0.16 0.89 -0.75 9.99 -0.01 -0.01 0.04 9563
0.11 0.16 0.91 -0.77 10.00 -0.01 -0.01 0.04 9570
0.11 0.14 0.89 -0.77 9.99 -0.01 -0.01 0.04 9576
0.11 0.15 0.90 -0.79 9.98 -0.01 -0.01 0.05 9582
0.13 0.12 0.92 -0.77 9.98 -0.01 -0.01 0.04 9588
0.12 0.13 0.92 -0.77 9.94 -0.00 -0.01 0.04 9594
0.11 0.10 0.90 -0.76 9.96 -0.00 -0.01 0.04 9601
0.13 0.10 0.92 -0.78 9.97 -0.00 -0.00 0.04 9607
0.13 0.08 0.91 -0.79 9.95 -0.01 -0.00 0.04 9613
0.12 0.08 0.90 -0.78 9.97 -0.00 -0.01 0.04 9620
0.12 0.10 0.92 -0.80 10.00 -0.00 -0.01 0.05 9626
0.13 0.09 0.92 -0.79 9.96 -0.01 -0.01 0.04 9632
0.11 0.11 0.89 -0.82 9.98 -0.01 -0.01 0.05 9638
0.10 0.10 0.90 -0.78 10.03 -0.01 -0.01 0.05 9645
0.11 0.11 0.92 -0.79 9.97 -0.01 -0.01 0.05 9651
0.11 0.11 0.94 -0.79 9.97 -0.01 -0.01 0.05 9658
0.11 0.11 0.89 -0.79 9.99 -0.01 -0.01 0.05 9664
0.11 0.12 0.93 -0.80 9.99 -0.01 -0.01 0.05 9670
0.10 0.12 0.88 -0.78 9.99 -0.01 -0.01 0.05 9676
0.09 0.12 0.94 -0.79 9.98 -0.01 -0.02 0.05 9682
0.09 0.13 0.96 -0.81 9.95 -0.01 -0.01 0.05 9689
0.08 0.17 0.92 -0.78 10.02 -0.02 -0.01 0.05 9695
0.08 0.16 0.90 -0.79 9.93 -0.01 -0.01 0.04 9702
0.07 0.15 0.92 -0.74 9.97 -0.01 -0.01 0.05 9708
0.09 0.16 0.94 -0.76 9.94 -0.01 -0.01 0.05 9714
0.09 0.16 0.95 -0.77 9.94 -0.01 0.00 0.04 9720
0.06 0.15 0.96 -0.79 9.96 -0.01 -0.00 0.05 9726
0.06 0.14 0.94 -0.77 9.99 -0.01 -0.00 0.04 9733
0.06 0.15 0.95 -0.76 9.98 -0.01 0.00 0.04 9739
0.07 0.14 0.93 -0.80 9.91 -0.01 0.01 0.05 9745
0.07 0.11 0.97 -0.78 9.97 -0.01 0.00 0.04 9751
0.06 0.12 0.96 -0.79 9.99 -0.01 0.01 0.04 9758
0.08 0.13 0.95 -0.80 10.01 -0.01 0.01 0.04 9764
0.06 0.13 0.96 -0.78 9.95 -0.01 0.02 0.05 9771
0.05 0.12 1.02 -0.81 9.98 -0.01 0.02 0.04 9777
0.06 0.13 0.96 -0.79 9.98 -0.02 0.02 0.04 9783
0.06 0.12 0.99 -0.80 9.94 -0.01 0.01 0.04 9789
0.06 0.10 1.01 -0.76 9.95 -0.01 0.01 0.04 9795
0.06 0.10 0.96 -0.75 10.00 -0.01 0.01 0.04 9802
0.07 0.10 0.97 -0.75 9.93 -0.02 0.01 0.04 9808
0.06 0.10 0.97 -0.79 9.92 -0.01 0.01 0.04 9815
0.06 0.10 0.99 -0.80 9.96 -0.02 0.01 0.04 9821
0.06 0.11 0.98 -0.77 9.93 -0.02 0.01 0.04 9827
0.07 0.11 0.97 -0.77 9.98 -0.02 0.01 0.03 9833
0.06 0.10 1.01 -0.80 9.91 -0.02 0.01 0.04 9839
0.05 0.11 1.01 -0.81 9.95 -0.02 0.00 0.03 9846
0.05 0.13 1.04 -0.78 10.00 -0.02 -0.01 0.04 9852
0.07 0.11 1.00 -0.76 9.97 -0.01 -0.01 0.03 9859
0.07 0.09 1.05 -0.79 9.95 -0.01 -0.02 0.03 9865
0.06 0.11 1.01 -0.79 9.96 -0.01 -0.03 0.03 9871
0.07 0.13 1.03 -0.77 9.94 -0.01 -0.04 0.03 9877
0.07 0.11 1.03 -0.77 9.92 -0.01 -0.04 0.03 9883
0.05 0.11 1.03 -0.76 9.91 -0.01 -0.04 0.03 9889
0.06 0.13 1.03 -0.76 9.98 -0.02 -0.05 0.03 9896
0.06 0.13 1.00 -0.80 9.95 -0.01 -0.05 0.03 9903
0.07 0.12 0.98 -0.80 9.97 -0.02 -0.05 0.02 9909
0.06 0.14 1.03 -0.75 9.93 -0.02 -0.05 0.02 9915
0.07 0.16 1.02 -0.76 9.97 -0.01 -0.06 0.02 9921
0.06 0.15 1.00 -0.77 9.92 -0.02 -0.05 0.03 9927
0.05 0.16 1.01 -0.76 9.91 -0.02 -0.06 0.02 9933
0.07 0.17 1.01 -0.74 9.95 -0.02 -0.05 0.02 9940
0.06 0.16 1.00 -0.74 9.90 -0.02 -0.05 0.02 9947
0.06 0.13 1.02 -0.74 9.93 -0.02 -0.05 0.02 9953
0.06 0.15 1.03 -0.76 9.94 -0.02 -0.05 0.02 9959
0.07 0.15 1.05 -0.77 9.99 -0.02 -0.05 0.02 9965
0.07 0.14 0.99 -0.79 9.97 -0.02 -0.05 0.02 9971
0.07 0.14 1.00 -0.78 9.96 -0.02 -0.05 0.02 9977
0.08 0.14 1.00 -0.80 9.99 -0.01 -0.05 0.02 9984
0.07 0.12 0.99 -0.76 10.04 -0.01 -0.04 0.02 9991
0.08 0.12 0.97 -0.77 9.96 -0.01 -0.04 0.02 9997
0.08 0.11 0.98 -0.74 9.95 -0.01 -0.03 0.02 10003
0.09 0.09 1.01 -0.80 10.07 -0.00 -0.02 0.02 10009
0.08 0.05 1.02 -0.79 10.01 -0.00 -0.01 0.03 10015
0.08 0.04 1.07 -0.73 10.08 0.01 -0.01 0.03 10022
0.09 0.03 1.12 -0.80 10.04 0.02 -0.00 0.03 10029
0.08 0.02 1.15 -0.74 9.98 0.03 0.00 0.03 10035
0.09 0.02 1.23 -0.80 10.03 0.03 0.02 0.03 10041
0.09 0.01 1.20 -0.83 10.06 0.03 0.03 0.02 10047
0.07 -0.01 1.11 -0.84 10.12 0.03 0.05 0.01 10054
0.08 -0.01 1.44 -0.94 9.98 0.04 0.06 -0.01 10060
0.08 -0.01 1.16 -0.63 10.03 0.06 0.06 -0.02 10066
0.08 -0.01 1.38 -0.86 10.27 0.10 0.06 -0.07 10073
0.07 -0.01 1.68 -0.74 10.32 0.16 0.04 -0.06 10079
0.07 -0.01 1.35 -0.57 10.92 0.26 0.01 -0.10 10085
0.06 -0.01 1.39 -0.95 11.30 0.41 -0.03 -0.15 10092
0.07 -0.01 1.69 -0.76 12.07 0.75 0.04 -0.23 10098
0.07 -0.01 1.76 -1.19 15.00 1.44 0.40 -0.34 10104
0.04 -0.00 1.93 -0.81 17.25 2.24 1.08 -0.44 10110
0.05 -0.00 1.52 -0.67 15.39 2.51 1.61 -0.51 10117
0.06 -0.01 1.22 -1.34 14.90 2.38 1.97 -0.50 10124
0.05 -0.00 0.92 -1.49 14.40 2.33 2.31 -0.46 10130
0.04 0.00 1.02 -1.56 13.53 2.26 2.67 -0.42 10136
0.04 -0.00 0.75 -2.05 13.77 2.17 2.94 -0.36 10142
0.05 -0.00 0.43 -2.20 13.74 2.11 3.18 -0.26 10148
0.06 -0.01 0.28 -2.75 13.91 2.05 3.38 -0.12 10156
0.05 -0.01 1.04 -3.11 14.51 2.00 3.54 0.02 10162
0.05 -0.00 0.34 -3.74 15.55 1.95 3.66 0.18 10168
0.07 -0.01 0.00 -4.18 15.91 1.94 3.76 0.31 10174
0.06 -0.01 -0.29 -4.17 15.21 1.93 3.81 0.45 10180
0.05 -0.01 0.00 -3.99 13.97 1.94 3.81 0.57 10187
0.06 -0.01 -0.28 -3.64 13.37 2.01 3.75 0.67 10193
0.05 -0.00 -0.38 -3.94 13.11 2.10 3.63 0.78 10200
0.04 -0.00 -1.09 -3.32 12.99 2.20 3.45 0.89 10206
0.06 -0.01 -2.18 -3.06 11.76 2.27 3.27 1.00 10212
0.04 -0.00 -4.09 -1.88 11.18 2.21 2.94 1.08 10219
0.04 -0.00 -5.57 -1.05 9.31 2.05 2.22 1.08 10225
0.05 -0.00 -13.96 2.24 9.94 1.93 1.15 0.65 10231
0.03 -0.00 -20.66 4.16 11.02 1.52 -0.44 -0.21 10237
0.04 -0.00 -14.47 5.09 14.12 0.70 -2.23 -1.16 10244
0.03 -0.00 -6.21 3.71 14.88 -0.08 -3.09 -1.58 10251
0.02 -0.00 -1.92 2.02 15.27 -0.58 -3.26 -1.86 10257
0.02 -0.00 -1.81 1.30 13.60 -0.84 -3.09 -2.29 10263
0.03 -0.00 -0.94 0.62 11.15 -0.90 -2.86 -2.76 10269
0.01 -0.00 0.31 0.17 9.01 -0.88 -2.82 -3.10 10275
0.03 -0.00 1.06 0.29 8.58 -0.83 -2.82 -3.19 10283
0.03 -0.00 1.90 0.45 9.23 -0.74 -2.79 -3.20 10289
0.03 -0.00 2.32 0.66 9.88 -0.67 -2.74 -3.06 10295
0.03 0.00 2.52 1.29 10.14 -0.62 -2.69 -2.84 10301
0.03 -0.00 3.25 2.03 9.82 -0.62 -2.72 -2.57 10307
0.02 -0.00 4.20 2.45 9.50 -0.66 -2.83 -2.27 10313
0.03 -0.00 5.24 2.62 9.13 -0.71 -2.94 -1.95 10320
0.03 -0.00 6.25 2.67 9.11 -0.77 -2.94 -1.60 10327
0.04 -0.00 7.07 2.69 9.13 -0.82 -2.88 -1.25 10333
0.03 -0.00 7.81 2.78 9.48 -0.88 -2.74 -0.94 10339
0.04 -0.00 8.46 2.71 9.41 -0.95 -2.56 -0.70 10345
0.02 -0.00 9.13 2.51 8.76 -1.04 -2.33 -0.42 10351
0.02 -0.00 9.02 2.46 8.69 -1.13 -2.09 -0.16 10358
0.05 -0.00 9.06 2.14 8.26 -1.19 -1.82 0.08 10364
0.03 -0.00 8.95 1.70 8.14 -1.22 -1.54 0.30 10371
0.02 -0.00 8.64 1.20 7.93 -1.22 -1.29 0.50 10377
0.03 0.00 8.18 0.80 7.78 -1.18 -1.06 0.68 10383
0.03 -0.00 7.83 0.48 7.79 -1.12 -0.85 0.83 10389
0.02 -0.00 7.32 0.20 7.76 -1.06 -0.71 0.95 10396
0.03 -0.00 6.75 0.06 8.05 -0.99 -0.55 1.07 10402
0.03 -0.00 6.08 0.00 8.22 -0.92 -0.43 1.11 10408
0.03 -0.00 5.47 0.11 8.49 -0.87 -0.33 1.16 10415
0.03 -0.00 4.90 0.18 8.87 -0.85 -0.26 1.18 10421
0.03 -0.00 4.40 0.22 9.30 -0.83 -0.21 1.16 10427
0.02 -0.00 4.03 0.24 9.83 -0.82 -0.16 1.12 10433
0.03 -0.00 3.91 0.35 10.52 -0.83 -0.11 1.06 10440
0.03 0.01 3.95 0.50 11.38 -0.88 -0.01 1.01 10446
0.03 -0.00 3.91 0.61 11.84 -0.98 0.03 0.95 10452
0.01 -0.00 3.63 0.58 11.87 -1.10 0.08 0.90 10459
0.03 -0.00 3.41 0.35 11.65 -1.23 0.09 0.85 10465
0.04 -0.00 3.21 0.02 11.40 -1.34 0.06 0.81 10472
0.02 -0.00 3.05 -0.30 11.04 -1.41 0.01 0.78 10478
0.03 0.00 3.12 -0.61 10.67 -1.44 -0.04 0.76 10484
0.04 -0.00 3.32 -0.98 10.33 -1.45 -0.05 0.74 10490
0.02 -0.00 3.59 -1.30 10.07 -1.44 -0.04 0.73 10497
0.03 -0.00 3.86 -1.59 9.88 -1.42 -0.01 0.74 10503
0.03 -0.00 4.04 -1.87 9.65 -1.39 0.04 0.76 10510
0.02 -0.00 4.26 -2.06 9.49 -1.33 0.10 0.80 10516
0.03 0.00 4.45 -2.25 9.52 -1.26 0.15 0.86 10522
0.04 -0.00 4.62 -2.45 9.71 -1.20 0.20 0.95 10528
0.03 -0.00 4.58 -2.58 9.80 -1.14 0.23 1.06 10534
0.03 -0.00 4.59 -2.71 9.95 -1.08 0.26 1.11 10541
0.04 -0.00 4.73 -2.80 10.09 -1.02 0.28 1.18 10548
0.03 -0.00 4.77 -2.93 10.35 -0.99 0.28 1.24 10554
0.03 -0.00 4.94 -2.92 10.66 -0.98 0.30 1.27 10560
0.03 -0.00 4.91 -3.04 10.66 -1.00 0.31 1.28 10566
0.04 -0.00 4.76 -3.23 10.54 -1.04 0.31 1.27 10572
0.03 -0.00 4.57 -3.55 10.27 -1.07 0.29 1.23 10579
0.03 -0.00 4.41 -3.94 9.98 -1.09 0.26 1.16 10586
0.03 -0.00 4.41 -4.40 9.76 -1.09 0.22 1.07 10592
0.02 -0.00 4.40 -4.82 9.17 -1.06 0.20 0.96 10598
0.04 -0.00 4.48 -5.27 8.57 -1.01 0.21 0.81 10604
0.03 -0.00 4.64 -5.73 8.23 -0.93 0.25 0.68 10610
0.01 -0.00 4.79 -6.22 8.09 -0.82 0.31 0.50 10616
0.02 -0.00 4.92 -6.48 8.09 -0.70 0.39 0.32 10624
0.02 -0.00 5.01 -6.64 7.75 -0.58 0.50 0.14 10630
0.02 -0.00 5.06 -6.63 7.45 -0.49 0.61 -0.04 10636
0.03 -0.00 5.04 -6.69 7.47 -0.40 0.73 -0.21 10642
0.04 -0.00 4.23 -32.03 20.62 0.07 0.23 -0.50 10648
0.03 -0.00 1.90 -5.77 4.15 1.25 0.29 -0.81 10654
0.03 -0.00 0.80 -14.28 -0.70 1.18 0.35 -1.02 10661
0.04 -0.00 -2.44 -26.20 7.59 1.28 -0.44 -1.26 10668
0.04 -0.00 -9.04 -32.56 7.18 1.30 -1.48 -1.66 10674
0.04 0.00 -0.06 -41.70 20.50 0.64 -3.13 -1.92 10680
0.04 0.08 0.94 -27.74 19.46 0.12 -2.50 -0.81 10687
0.02 0.10 1.95 -6.43 10.52 0.06 -0.68 0.14 10693
0.03 0.10 1.30 -1.73 9.77 0.03 -0.20 0.13 10699
0.04 0.07 0.03 0.50 10.29 0.00 -0.00 0.24 10705
0.03 0.10 -0.36 1.08 10.37 -0.06 0.02 0.12 10713
0.05 0.16 0.21 -0.50 10.40 -0.07 0.05 0.03 10719
0.04 0.19 0.98 -0.33 10.18 -0.03 0.07 0.07 10725
0.02 0.19 1.19 -0.99 10.07 -0.00 0.10 0.11 10731
0.04 0.24 0.84 -0.91 10.06 0.02 0.10 0.10 10737
0.02 0.24 0.62 -0.58 9.83 0.03 0.11 0.09 10744
0.04 0.22 0.77 -0.70 10.04 0.03 0.13 0.09 10750
0.05 0.22 0.99 -0.98 10.06 0.03 0.13 0.09 10757
0.05 0.19 1.03 -0.87 9.98 0.02 0.13 0.08 10763
0.07 0.19 0.91 -0.83 10.12 0.02 0.11 0.07 10769
0.05 0.13 0.80 -0.74 10.05 0.01 0.10 0.06 10776
0.07 0.15 0.88 -0.82 10.19 0.01 0.07 0.06 10782
0.07 0.12 0.89 -0.93 10.11 0.00 0.10 0.05 10788
0.07 0.10 0.98 -0.87 9.95 -0.01 0.09 0.04 10795
0.08 0.09 0.97 -0.77 10.00 -0.01 0.08 0.04 10802
0.08 0.10 0.96 -0.76 10.05 -0.02 0.07 0.04 10808
0.06 0.09 0.94 -0.77 9.99 -0.01 0.07 0.04 10814
0.08 0.10 0.94 -0.79 10.10 0.00 0.07 0.05 10820
0.09 0.10 0.92 -0.79 10.01 0.00 0.06 0.05 10826
0.07 0.06 0.74 -0.78 9.97 0.01 0.07 0.06 10833
0.09 0.07 0.97 -0.78 10.00 0.01 0.07 0.06 10840
0.09 0.06 0.92 -0.76 9.99 0.02 0.07 0.05 10846
0.08 0.01 1.01 -0.77 10.02 0.02 0.07 0.06 10852
0.10 0.03 1.00 -0.79 10.00 0.01 0.06 0.05 10858
0.08 -0.00 0.94 -0.80 9.98 0.02 0.06 0.05 10864
0.07 0.00 0.95 -0.77 10.00 0.02 0.06 0.05 10871
0.09 -0.01 0.99 -0.80 9.98 0.02 0.05 0.05 10877
0.08 -0.00 0.96 -0.83 9.98 0.02 0.05 0.04 10884
0.08 -0.01 1.01 -0.80 9.95 0.02 0.04 0.04 10890
0.09 -0.00 1.00 -0.78 9.99 0.02 0.04 0.05 10896
0.10 -0.01 1.03 -0.82 9.97 0.02 0.03 0.04 10902
0.09 -0.01 1.00 -0.84 9.97 0.02 0.03 0.04 10908
0.08 -0.01 1.04 -0.81 9.99 0.02 0.03 0.03 10915
0.08 -0.00 1.06 -0.79 9.92 0.01 0.02 0.04 10921
0.09 -0.01 1.06 -0.80 9.96 0.01 0.01 0.03 10928
0.09 -0.01 1.07 -0.83 10.02 0.01 0.01 0.02 10934
0.08 -0.01 1.07 -0.83 9.96 0.00 -0.00 0.02 10940
0.09 -0.01 1.08 -0.83 9.93 -0.00 -0.00 0.02 10946
0.08 -0.01 1.07 -0.84 9.98 -0.01 -0.01 0.01 10952
0.08 -0.01 1.05 -0.81 9.95 -0.01 -0.01 0.01 10958
0.08 -0.01 1.00 -0.80 9.97 -0.01 -0.01 0.01 10966
0.09 -0.01 1.03 -0.82 9.98 -0.01 -0.01 0.01 10972
0.08 -0.01 1.01 -0.85 9.98 -0.02 -0.01 0.01 10978
0.07 -0.01 1.05 -0.81 9.96 -0.02 -0.01 0.01 10984
0.08 -0.00 1.06 -0.82 9.99 -0.02 -0.01 0.01 10990
0.08 -0.01 1.08 -0.82 9.94 -0.02 -0.01 0.00 10996
0.07 -0.01 1.08 -0.84 9.95 -0.02 -0.01 0.01 11002
0.07 -0.01 1.09 -0.84 9.95 -0.02 -0.01 0.01 11009
0.07 -0.01 1.06 -0.85 9.99 -0.03 -0.01 0.00 11016
0.07 -0.01 1.06 -0.82 9.93 -0.02 -0.01 0.00 11022
0.06 -0.01 1.05 -0.83 9.96 -0.03 -0.01 -0.00 11028
0.08 -0.01 1.05 -0.85 9.95 -0.03 -0.01 -0.00 11034
0.09 -0.01 1.08 -0.84 9.98 -0.03 -0.01 -0.00 11040
0.07 -0.01 1.11 -0.84 9.95 -0.03 -0.01 -0.01 11046
0.05 -0.01 1.08 -0.83 9.97 -0.03 -0.01 -0.01 11053
0.06 -0.01 1.08 -0.83 10.04 -0.03 -0.01 -0.01 11059
0.08 -0.01 1.06 -0.85 9.96 -0.03 -0.01 -0.01 11066
0.06 -0.01 1.02 -0.83 9.97 -0.03 -0.01 -0.01 11072
0.06 -0.01 1.09 -0.86 10.00 -0.03 -0.02 -0.01 11078
0.08 -0.01 1.03 -0.83 9.97 -0.03 -0.01 -0.01 11084
0.07 -0.01 1.07 -0.78 9.95 -0.03 -0.01 -0.00 11090
0.06 -0.01 1.06 -0.82 9.96 -0.03 -0.01 -0.00 11097
0.06 -0.00 1.12 -0.85 9.97 -0.03 -0.01 -0.00 11103
0.06 -0.01 1.13 -0.81 9.97 -0.03 -0.01 -0.00 11110
0.07 -0.01 1.11 -0.81 10.01 -0.03 -0.02 -0.00 11116
0.05 -0.00 1.15 -0.84 10.04 -0.02 -0.02 -0.00 11122
0.07 -0.01 1.11 -0.83 9.97 -0.02 -0.03 -0.01 11128
0.06 -0.01 1.08 -0.79 10.00 -0.02 -0.02 -0.01 11134
0.06 -0.01 1.10 -0.84 9.98 -0.02 -0.03 -0.01 11141
0.08 -0.01 1.11 -0.81 9.98 -0.01 -0.03 -0.01 11148
0.06 -0.01 1.14 -0.85 9.99 -0.01 -0.04 -0.01 11154
0.05 -0.01 1.10 -0.84 9.98 -0.01 -0.04 -0.00 11160
0.06 -0.00 1.10 -0.85 9.99 -0.02 -0.05 -0.01 11166
0.07 -0.01 1.12 -0.86 9.97 -0.02 -0.04 -0.00 11172
0.08 -0.01 1.10 -0.84 9.98 -0.01 -0.05 -0.00 11179
0.07 -0.01 1.11 -0.81 9.99 -0.02 -0.05 -0.00 11185
0.09 -0.01 1.10 -0.82 9.97 -0.02 -0.05 -0.01 11192
0.08 -0.01 1.14 -0.86 9.98 -0.02 -0.06 -0.01 11198
0.06 -0.01 1.15 -0.80 10.01 -0.03 -0.06 -0.01 11204
0.08 -0.00 1.16 -0.82 9.98 -0.03 -0.07 -0.01 11210
0.08 -0.01 1.15 -0.80 9.93 -0.03 -0.07 -0.02 11216
0.08 -0.01 1.08 -0.80 9.98 -0.03 -0.10 -0.02 11223
0.08 -0.00 1.09 -0.82 10.01 -0.02 -0.06 -0.02 11230
0.08 -0.01 1.04 -0.83 10.04 -0.02 -0.06 -0.02 11236
0.09 -0.01 1.06 -0.80 10.04 -0.02 -0.06 -0.02 11242
0.09 -0.01 1.05 -0.86 9.98 -0.01 -0.06 -0.01 11248
0.10 -0.01 1.06 -0.85 9.98 -0.01 -0.06 -0.01 11254
0.10 -0.01 1.02 -0.82 10.00 -0.01 -0.06 -0.01 11260
0.10 -0.01 1.06 -0.81 9.98 -0.00 -0.06 -0.00 11267
0.11 -0.01 1.03 -0.86 10.01 -0.01 -0.06 -0.00 11274
0.09 -0.01 1.09 -0.85 10.01 -0.01 -0.06 0.00 11280
0.08 -0.01 1.09 -0.82 10.00 -0.01 -0.06 -0.00 11286
0.10 -0.01 1.09 -0.82 10.00 -0.01 -0.06 -0.00 11292
0.09 -0.01 1.08 -0.84 10.01 -0.01 -0.06 -0.00 11298
0.09 -0.01 1.08 -0.85 9.97 -0.02 -0.06 -0.01 11304
0.10 -0.01 1.10 -0.84 9.98 -0.01 -0.06 -0.01 11312
0.11 -0.01 1.08 -0.83 10.03 -0.02 -0.06 -0.01 11318
0.09 -0.01 1.03 -0.83 10.02 -0.02 -0.06 -0.00 11324
0.11 -0.01 1.01 -0.84 10.00 -0.02 -0.05 0.00 11330
0.10 -0.01 1.05 -0.86 10.04 -0.02 -0.05 0.01 11336
0.09 -0.01 1.05 -0.81 9.98 -0.02 -0.04 0.01 11343
0.09 -0.01 1.03 -0.84 9.99 -0.03 -0.03 0.02 11350
0.10 -0.01 1.07 -0.83 9.99 -0.03 -0.02 0.02 11356
0.10 -0.01 1.06 -0.83 10.03 -0.02 -0.00 0.02 11362
0.09 -0.01 1.05 -0.79 10.05 -0.01 0.01 0.02 11368
0.11 -0.01 1.10 -0.75 10.07 -0.00 0.02 0.03 11374
0.09 -0.01 1.09 -0.81 10.10 0.01 0.02 0.04 11380
0.06 -0.01 1.15 -0.86 10.06 0.01 0.03 0.04 11387
0.09 -0.01 1.36 -0.72 10.19 0.02 0.02 0.02 11394
0.08 -0.01 1.28 -0.83 10.13 0.05 0.02 0.00 11400
0.07 -0.01 1.43 -0.46 10.20 0.08 0.02 -0.03 11406
0.07 -0.01 1.54 -0.81 10.38 0.14 0.02 -0.06 11412
0.07 -0.01 0.95 -1.02 10.69 0.25 0.01 -0.09 11419
0.05 -0.01 1.51 -0.95 11.18 0.50 0.12 -0.14 11425
0.07 -0.01 1.37 -0.88 12.73 1.01 0.45 -0.25 11431
0.05 -0.00 1.82 -0.88 15.19 1.69 1.04 -0.36 11438
0.03 -0.00 2.06 -0.82 15.55 2.22 1.62 -0.42 11444
0.05 -0.01 2.26 -1.00 16.07 2.41 2.00 -0.49 11451
0.05 -0.00 1.96 -1.34 14.79 2.40 2.28 -0.57 11457
0.04 -0.00 2.28 -1.13 15.19 2.33 2.47 -0.61 11463
0.06 -0.01 2.21 -1.10 14.28 2.29 2.79 -0.62 11469
0.05 -0.01 2.79 -1.05 14.83 2.20 3.07 -0.63 11475
0.06 -0.01 1.83 -1.68 14.05 2.14 3.32 -0.63 11483
0.05 -0.01 1.83 -2.05 14.49 2.08 3.49 -0.54 11489
0.05 -0.00 1.90 -2.86 14.57 2.02 3.62 -0.43 11495
0.05 -0.00 1.74 -3.77 15.29 1.91 3.72 -0.29 11501
0.06 -0.01 1.32 -4.13 15.59 1.89 3.84 -0.19 11507
0.04 -0.00 1.17 -4.45 14.60 1.87 3.89 -0.10 11514
0.06 -0.01 0.17 -4.18 14.05 1.90 3.85 -0.02 11521
0.05 -0.01 -0.49 -4.41 13.07 1.99 3.73 0.09 11527
0.06 -0.01 -0.94 -4.18 12.54 2.07 3.51 0.22 11533
0.06 -0.01 -2.11 -4.13 12.15 2.13 3.17 0.36 11540
0.05 -0.00 -2.51 -3.99 11.09 2.19 2.87 0.54 11546
0.05 -0.00 -4.07 -4.28 10.26 2.21 2.47 0.65 11552
0.05 -0.00 -7.56 -3.57 10.45 2.21 1.89 0.58 11558
0.04 -0.00 -11.26 -1.56 12.17 2.15 1.06 0.22 11565
0.03 -0.00 -17.00 1.54 14.44 1.87 0.02 -0.35 11572
0.03 -0.00 -10.91 2.46 13.69 1.26 -1.08 -0.93 11578
0.03 -0.00 -6.15 2.36 14.00 0.60 -1.87 -1.19 11584
0.03 -0.00 -3.87 2.08 14.53 0.16 -2.22 -1.37 11590
0.02 -0.00 -2.86 1.12 13.96 -0.06 -2.28 -1.67 11597
0.03 -0.00 -1.69 0.65 12.03 -0.16 -2.27 -1.98 11603
0.03 -0.00 -0.65 0.78 10.22 -0.21 -2.30 -2.17 11610
0.02 -0.00 0.09 1.28 9.61 -0.22 -2.37 -2.25 11616
0.03 -0.00 0.51 1.56 9.44 -0.20 -2.42 -2.23 11622
0.03 -0.00 0.85 1.77 9.60 -0.19 -2.43 -2.14 11628
0.03 -0.00 1.10 2.00 9.62 -0.19 -2.43 -2.02 11635
0.03 -0.00 1.40 2.34 9.31 -0.21 -2.45 -1.87 11641
0.04 -0.00 1.82 2.74 8.97 -0.22 -2.50 -1.71 11648
0.04 -0.00 2.22 3.00 8.94 -0.25 -2.56 -1.56 11654
0.02 -0.00 2.81 3.15 8.93 -0.29 -2.62 -1.37 11660
0.02 -0.00 3.34 3.14 9.00 -0.35 -2.64 -1.15 11666
0.03 -0.00 4.04 3.26 9.23 -0.43 -2.62 -0.92 11673
0.03 -0.00 4.66 3.52 9.48 -0.53 -2.54 -0.67 11679
0.03 -0.00 5.16 3.62 9.81 -0.67 -2.42 -0.42 11685
0.03 -0.00 5.44 3.51 9.64 -0.78 -2.26 -0.18 11692
0.03 -0.00 5.40 3.21 9.55 -0.94 -2.13 0.05 11698
0.03 -0.00 5.49 2.77 9.46 -1.06 -1.99 0.25 11704
0.05 -0.00 5.52 2.25 9.18 -1.15 -1.87 0.40 11710
0.03 -0.00 5.58 1.80 9.06 -1.19 -1.74 0.56 11717
0.02 -0.00 5.59 1.40 8.86 -1.21 -1.62 0.71 11723
0.03 0.01 5.67 1.09 8.74 -1.22 -1.51 0.83 11729
0.03 -0.00 5.76 0.81 8.89 -1.23 -1.39 0.94 11736
0.02 -0.00 5.89 0.57 9.07 -1.22 -1.25 1.02 11742
0.03 0.01 5.93 0.36 9.25 -1.22 -1.10 1.08 11748
0.03 -0.00 5.82 0.11 9.37 -1.23 -0.99 1.13 11755
0.02 -0.00 5.68 -0.16 9.30 -1.24 -0.88 1.16 11761
0.03 0.01 5.45 -0.49 9.50 -1.25 -0.78 1.16 11767
0.04 -0.00 5.21 -0.69 9.87 -1.23 -0.73 1.15 11773
0.03 -0.00 5.05 -0.96 10.19 -1.23 -0.71 1.12 11780
0.03 -0.00 5.08 -1.09 10.72 -1.24 -0.70 1.08 11787
0.03 -0.00 5.36 -1.29 11.20 -1.28 -0.70 1.01 11793
0.02 -0.00 5.51 -1.51 11.46 -1.35 -0.68 0.93 11799
0.03 -0.00 5.62 -1.82 11.49 -1.42 -0.66 0.84 11805
0.03 -0.00 5.70 -2.18 11.34 -1.48 -0.62 0.74 11811
0.02 -0.00 5.67 -2.57 11.10 -1.52 -0.58 0.65 11819
0.04 -0.00 5.63 -2.86 10.90 -1.53 -0.54 0.55 11825
0.02 -0.00 5.67 -3.00 10.72 -1.52 -0.51 0.46 11831
0.02 -0.00 5.71 -2.99 10.49 -1.51 -0.47 0.40 11837
0.04 -0.00 5.68 -2.99 10.29 -1.49 -0.41 0.34 11843
0.03 -0.00 5.61 -2.95 10.04 -1.47 -0.34 0.31 11850
0.02 -0.00 6.12 -2.82 9.94 -1.45 -0.32 0.28 11856
0.04 -0.00 5.49 -2.71 9.91 -1.42 -0.28 0.28 11863
0.03 -0.00 5.36 -2.70 9.85 -1.40 -0.24 0.28 11869
0.02 -0.00 5.31 -2.62 9.88 -1.38 -0.19 0.28 11875
0.03 -0.00 5.19 -2.48 10.02 -1.36 -0.15 0.29 11881
0.03 -0.00 5.08 -2.52 10.01 -1.36 -0.12 0.31 11888
0.02 -0.00 4.94 -2.58 10.10 -1.34 -0.10 0.34 11894
0.03 -0.00 4.89 -2.67 10.04 -1.32 -0.08 0.37 11900
0.03 -0.00 4.79 -2.75 9.94 -1.30 -0.06 0.41 11907
0.02 -0.00 4.82 -2.85 9.81 -1.25 -0.01 0.47 11913
0.02 -0.00 4.79 -2.86 9.58 -1.21 0.04 0.52 11919
0.03 -0.00 4.80 -2.88 9.45 -1.17 0.11 0.57 11926
0.03 -0.00 4.61 -2.90 9.36 -1.11 0.18 0.62 11932
0.03 0.00 4.39 -2.95 9.40 -1.05 0.25 0.66 11938
0.03 -0.00 4.37 -2.91 9.47 -0.99 0.30 0.69 11944
0.02 -0.00 4.39 -2.81 9.74 -0.95 0.33 0.70 11951
0.03 -0.00 4.26 -2.68 10.05 -0.93 0.37 0.70 11957
0.03 -0.00 4.09 -2.58 10.22 -0.93 0.41 0.70 11964
0.02 -0.00 3.78 -2.65 10.02 -0.95 0.43 0.69 11970
0.02 -0.00 3.41 -2.89 9.59 -0.96 0.43 0.65 11976
0.04 -0.00 3.19 -3.25 9.09 -0.95 0.41 0.58 11982
0.03 -0.00 3.17 -3.60 8.54 -0.90 0.42 0.47 11988
0.03 -0.00 3.12 -3.84 8.38 -0.83 0.48 0.31 11995
0.04 0.00 2.98 -4.12 8.20 -0.75 0.58 0.18 12002
0.03 -0.00 2.62 -4.30 8.05 -0.69 0.69 0.01 12008
0.03 -0.00 2.45 -4.52 7.47 -0.62 0.81 -0.16 12014
0.03 -0.00 2.38 -4.78 6.90 -0.54 0.88 -0.32 12020
0.04 -0.00 2.40 -5.22 6.35 -0.44 0.93 -0.49 12026
0.04 -0.00 2.59 -5.46 5.95 -0.39 0.97 -0.61 12033
0.02 0.00 2.95 -5.51 5.26 -0.28 0.96 -0.69 12040
0.04 -0.00 -4.63 -27.95 32.45 0.52 0.60 -0.66 12046
0.04 -0.00 0.00 -6.76 -4.36 1.73 0.63 -0.78 12052
0.04 -0.00 -2.13 -19.75 -5.02 1.85 -0.36 -1.06 12058
0.05 0.02 -8.68 -48.16 0.91 2.20 -2.10 -1.36 12064
0.03 0.12 5.88 -60.79 78.47 2.38 -4.27 -1.27 12071
0.03 0.25 2.85 -13.72 17.40 0.26 -1.52 0.26 12078
0.04 0.28 2.07 -4.97 9.73 -0.08 -0.13 0.05 12084
0.04 0.34 0.49 1.01 10.73 -0.13 -0.05 0.18 12091
0.03 0.32 -1.15 1.67 9.88 -0.12 0.02 0.10 12097
0.02 0.33 -0.01 0.62 9.81 -0.06 0.03 0.03 12103
0.04 0.33 0.87 0.20 10.07 -0.04 0.07 0.04 12109
0.04 0.34 1.22 -1.10 10.49 -0.01 0.07 0.07 12115
0.02 0.36 0.94 -0.89 10.03 0.01 0.06 0.08 12123
0.04 0.33 0.33 -0.23 9.26 0.02 0.04 0.06 12129
0.03 0.31 0.68 -0.82 9.97 0.01 0.04 0.04 12135
0.04 0.32 0.94 -1.12 10.16 -0.01 0.03 0.04 12141
0.04 0.35 0.77 -0.89 9.98 -0.02 0.02 0.04 12147
0.05 0.36 0.64 -0.87 10.19 -0.01 0.02 0.04 12154
0.07 0.36 0.75 -0.83 10.30 -0.01 0.04 0.04 12161
0.08 0.34 0.82 -0.79 10.13 -0.00 0.03 0.04 12167
0.06 0.33 0.87 -0.77 9.99 -0.01 0.02 0.04 12173
0.07 0.33 0.84 -0.81 9.99 -0.01 0.01 0.04 12179
0.05 0.33 0.74 -0.74 10.08 -0.02 0.01 0.03 12186
0.06 0.30 0.72 -0.73 10.10 -0.01 0.01 0.04 12192
0.08 0.31 0.75 -0.75 10.12 -0.01 0.02 0.04 12198
0.07 0.31 0.77 -0.74 10.04 -0.01 0.02 0.04 12205
0.07 0.33 0.80 -0.77 10.07 -0.01 0.02 0.04 12212
0.08 0.30 0.85 -0.73 9.98 -0.00 0.02 0.04 12218
0.07 0.29 1.12 -0.55 9.97 -0.00 0.01 0.03 12224
0.08 0.23 0.83 -0.72 10.05 0.00 -0.00 0.03 12230
0.10 0.21 0.82 -0.73 9.94 0.01 -0.01 0.02 12236
0.10 0.17 0.84 -0.74 10.03 0.01 -0.01 0.02 12243
0.10 0.14 0.83 -0.75 9.97 0.01 -0.02 0.02 12250
0.11 0.16 0.79 -0.76 9.99 0.01 -0.03 0.01 12256
0.11 0.11 0.81 -0.74 10.01 0.01 -0.03 0.01 12262
0.13 0.13 0.82 -0.76 10.00 0.01 -0.04 0.01 12268
0.13 0.10 0.80 -0.72 10.01 0.01 -0.05 0.02 12275
0.10 0.08 0.76 -0.80 9.96 0.01 -0.05 0.02 12281
0.11 0.10 0.84 -0.80 10.08 0.00 -0.05 0.01 12288
0.12 0.04 0.79 -0.75 9.99 0.00 -0.06 0.01 12294
0.11 0.03 0.79 -0.78 10.00 0.00 -0.06 0.02 12300
0.13 0.05 0.78 -0.77 9.95 0.00 -0.06 0.02 12307
0.14 0.02 0.79 -0.74 10.06 0.00 -0.06 0.02 12313
0.12 0.01 0.81 -0.75 10.02 -0.00 -0.06 0.02 12319
0.16 0.03 0.76 -0.75 10.01 -0.00 -0.06 0.02 12325
0.14 0.01 0.81 -0.78 10.00 -0.00 -0.06 0.02 12332
0.14 0.02 0.76 -0.79 10.02 -0.00 -0.05 0.02 12339
0.15 0.01 0.73 -0.78 9.98 -0.00 -0.05 0.03 12345
0.15 0.01 0.74 -0.81 10.00 -0.01 -0.05 0.03 12351
0.16 0.02 0.76 -0.78 10.00 -0.01 -0.04 0.03 12357
0.16 0.01 0.75 -0.79 10.01 -0.01 -0.04 0.03 12364
0.15 0.01 0.75 -0.79 9.99 -0.00 -0.04 0.03 12370
0.16 0.02 0.76 -0.78 10.00 -0.01 -0.04 0.03 12377
0.16 0.02 0.78 -0.77 10.00 -0.01 -0.03 0.03 12383
0.15 0.03 0.77 -0.80 9.97 -0.01 -0.03 0.03 12389
0.17 0.04 0.79 -0.77 10.01 -0.01 -0.03 0.03 12396
0.17 0.03 0.76 -0.75 10.03 -0.01 -0.03 0.03 12402
0.16 0.04 0.74 -0.78 9.99 -0.01 -0.03 0.03 12408
0.17 0.04 0.75 -0.76 9.99 -0.00 -0.02 0.03 12414
0.16 0.03 0.78 -0.75 9.96 -0.01 -0.02 0.03 12421
0.15 0.05 0.78 -0.77 10.00 -0.01 -0.02 0.07 12428
0.15 0.06 0.75 -0.77 9.94 -0.01 -0.02 0.04 12434
0.14 0.05 0.77 -0.76 10.01 -0.01 -0.02 0.03 12440
0.13 0.06 0.77 -0.77 10.01 -0.01 -0.02 0.03 12446
0.13 0.05 0.75 -0.76 10.00 -0.01 -0.02 0.04 12452
0.13 0.06 0.79 -0.76 9.98 -0.01 -0.02 0.04 12460
0.13 0.07 0.76 -0.77 9.99 -0.01 -0.02 0.04 12466
0.14 0.08 0.80 -0.78 9.98 -0.02 -0.02 0.04 12472
0.12 0.07 0.76 -0.75 9.97 -0.02 -0.02 0.04 12478
0.12 0.11 0.79 -0.76 9.98 -0.02 -0.02 0.04 12484
0.13 0.09 0.78 -0.78 10.00 -0.02 -0.03 0.04 12491
0.11 0.11 0.77 -0.73 10.00 -0.02 -0.03 0.04 12497
0.12 0.11 0.81 -0.74 9.98 -0.02 -0.03 0.04 12504
0.11 0.08 0.77 -0.72 9.97 -0.02 -0.03 0.04 12510
0.10 0.10 0.79 -0.73 9.99 -0.02 -0.03 0.04 12516
0.11 0.11 0.82 -0.75 10.01 -0.01 -0.03 0.04 12523
0.10 0.11 0.79 -0.72 9.98 -0.01 -0.04 0.04 12529
0.10 0.10 0.79 -0.71 9.99 -0.01 -0.03 0.04 12535
0.11 0.10 0.79 -0.76 9.99 -0.01 -0.04 0.03 12541
0.12 0.09 0.79 -0.74 9.98 -0.01 -0.04 0.03 12548
0.13 0.09 0.79 -0.78 10.00 -0.01 -0.04 0.03 12555
0.15 0.09 0.81 -0.75 9.98 -0.01 -0.05 0.03 12561
0.14 0.08 0.80 -0.79 9.98 -0.02 -0.05 0.03 12567
0.16 0.08 0.76 -0.78 9.98 -0.02 -0.05 0.03 12573
0.18 0.08 0.79 -0.74 10.00 -0.02 -0.06 0.03 12579
0.17 0.08 0.76 -0.73 10.00 -0.02 -0.06 0.03 12587
0.15 0.10 0.76 -0.74 9.99 -0.02 -0.05 0.03 12593
0.17 0.08 0.77 -0.78 10.04 -0.01 -0.05 0.02 12599
0.17 0.08 0.80 -0.73 10.01 -0.02 -0.06 0.02 12605
0.17 0.09 0.73 -0.74 10.04 -0.02 -0.05 0.02 12611
0.17 0.07 0.75 -0.78 10.00 -0.02 -0.05 0.02 12618
0.17 0.07 0.78 -0.78 10.05 -0.01 -0.05 0.02 12624
0.19 0.07 0.77 -0.75 10.02 -0.02 -0.04 0.02 12631
0.18 0.07 0.76 -0.74 10.02 -0.01 -0.04 0.02 12637
0.18 0.10 0.74 -0.76 10.00 -0.01 -0.04 0.02 12644
0.19 0.08 0.74 -0.75 10.04 -0.01 -0.04 0.02 12650
0.18 0.08 0.73 -0.74 9.97 -0.01 -0.03 0.02 12656
0.19 0.08 0.74 -0.76 10.01 -0.02 -0.03 0.02 12662
0.19 0.08 0.75 -0.78 10.01 -0.02 -0.03 0.03 12668
0.18 0.08 0.77 -0.74 10.00 -0.02 -0.03 0.02 12676
0.20 0.08 0.77 -0.76 9.99 -0.01 -0.02 0.03 12682
0.19 0.08 0.74 -0.77 10.02 -0.02 -0.02 0.03 12688
0.19 0.06 0.77 -0.74 10.02 -0.01 -0.02 0.03 12694
0.18 0.07 0.74 -0.78 10.02 -0.01 -0.02 0.03 12701
0.16 0.08 0.75 -0.72 10.02 -0.01 -0.01 0.03 12707
0.16 0.10 0.72 -0.75 10.02 -0.01 -0.01 0.03 12713
0.16 0.08 0.78 -0.75 10.03 -0.01 -0.01 0.03 12720
0.16 0.08 0.78 -0.72 9.99 -0.00 -0.00 0.03 12726
0.15 0.08 0.77 -0.72 10.00 -0.01 0.00 0.03 12733
0.15 0.06 0.77 -0.71 10.02 -0.00 0.01 0.03 12739
0.14 0.06 0.82 -0.72 10.03 0.00 0.02 0.03 12745
0.15 0.06 0.84 -0.71 10.03 0.01 0.03 0.03 12751
0.14 0.02 0.86 -0.75 10.14 0.01 0.03 0.03 12759
0.13 0.01 0.89 -0.77 10.06 0.01 0.04 0.03 12765
0.15 -0.01 0.82 -0.70 9.98 0.02 0.05 0.06 12771
0.13 -0.01 0.91 -0.75 10.10 0.03 0.06 0.03 12777
0.12 -0.01 0.98 -0.77 10.11 0.03 0.07 0.02 12783
0.13 -0.01 0.91 -0.77 10.05 0.04 0.08 0.02 12789
0.11 -0.01 1.03 -1.11 9.96 0.05 0.10 0.01 12796
0.09 -0.01 1.11 -0.91 10.00 0.07 0.12 -0.02 12803
0.11 -0.01 1.17 -0.78 10.12 0.08 0.15 -0.04 12809
0.10 -0.01 1.25 -0.86 10.22 0.12 0.16 -0.06 12815
0.10 -0.01 1.23 -0.73 10.51 0.19 0.17 -0.10 12821
0.10 -0.01 1.51 -0.98 10.77 0.29 0.18 -0.14 12828
0.08 -0.01 1.66 -1.04 11.48 0.51 0.23 -0.21 12834
0.07 -0.01 1.36 -0.80 12.51 0.96 0.32 -0.25 12840
0.09 -0.01 1.99 -0.91 14.15 1.51 0.49 -0.31 12847
0.06 -0.01 1.35 -1.08 15.52 2.01 0.72 -0.38 12853
0.06 -0.01 1.27 -0.93 14.96 2.28 1.02 -0.40 12860
0.05 -0.00 1.19 -0.94 14.53 2.32 1.42 -0.40 12866
0.04 -0.00 1.26 -0.88 14.96 2.26 1.82 -0.39 12872
0.05 0.00 1.31 -1.43 14.41 2.21 2.26 -0.39 12878
0.04 -0.00 1.40 -1.37 13.82 2.16 2.65 -0.38 12884
0.04 -0.00 1.67 -1.61 13.42 2.08 2.95 -0.37 12892
0.05 -0.01 1.51 -1.96 13.54 2.02 3.20 -0.33 12898
0.04 -0.00 1.38 -2.40 14.19 1.94 3.43 -0.25 12904
0.04 0.00 1.48 -2.59 15.11 1.85 3.66 -0.16 12910
0.05 -0.00 1.20 -3.83 15.17 1.75 3.84 -0.08 12917
0.05 -0.00 0.52 -3.75 15.13 1.72 3.91 -0.01 12923
0.05 0.00 -0.25 -4.10 14.21 1.71 3.88 0.09 12930
0.05 -0.01 -0.82 -3.88 14.10 1.78 3.76 0.20 12936
0.04 -0.00 -0.93 -4.23 14.14 1.91 3.63 0.33 12942
0.04 0.00 -1.36 -3.82 12.90 2.00 3.44 0.48 12949
0.05 -0.01 -2.22 -3.28 11.79 2.04 3.23 0.65 12955
0.04 -0.00 -3.63 -2.47 10.22 1.98 2.82 0.78 12961
0.07 -0.01 -8.59 -1.71 9.76 1.90 2.20 0.65 12967
0.04 -0.00 -13.14 0.44 9.86 1.73 1.18 0.23 12974
0.03 -0.00 -18.14 2.89 11.73 1.37 -0.17 -0.43 12981
0.05 -0.00 -11.15 3.12 12.61 0.71 -1.54 -0.97 12987
0.04 -0.00 -5.86 2.73 12.52 0.10 -2.28 -1.24 12993
0.04 -0.00 -3.45 1.59 12.83 -0.24 -2.56 -1.53 12999
0.03 -0.00 -2.61 0.20 11.70 -0.35 -2.50 -1.95 13006
0.02 -0.00 -1.91 -0.56 9.56 -0.32 -2.35 -2.37 13012
0.03 0.00 -1.51 -0.75 7.99 -0.25 -2.28 -2.67 13019
0.03 -0.00 -1.11 -0.36 7.92 -0.14 -2.33 -2.86 13025
0.02 -0.00 -0.29 0.42 9.22 -0.06 -2.42 -2.94 13031
0.02 -0.00 0.26 1.03 10.62 0.01 -2.50 -2.91 13037
0.03 -0.00 0.49 1.54 11.29 -0.01 -2.49 -2.80 13044
0.04 -0.00 0.77 2.09 11.32 -0.09 -2.44 -2.63 13050
0.04 0.01 1.32 2.74 11.42 -0.23 -2.41 -2.46 13057
0.03 -0.00 2.00 3.10 11.47 -0.39 -2.41 -2.28 13063
0.02 -0.00 2.38 3.27 11.36 -0.57 -2.43 -2.11 13069
0.05 -0.00 2.76 3.09 11.11 -0.75 -2.44 -1.96 13076
0.03 -0.00 3.16 2.78 10.88 -0.92 -2.43 -1.86 13082
0.03 -0.00 3.57 2.39 10.51 -1.09 -2.39 -1.77 13088
0.04 -0.00 3.81 1.87 10.10 -1.23 -2.31 -1.74 13094
0.03 -0.00 4.07 1.37 10.02 -1.35 -2.22 -1.74 13102
0.03 0.01 4.36 0.63 9.89 -1.44 -2.11 -1.77 13108
0.03 -0.00 4.56 -0.22 9.85 -1.53 -1.99 -1.81 13114
0.03 -0.00 4.63 -0.80 9.77 -1.61 -1.89 -1.84 13120
0.03 0.00 4.90 -1.14 9.57 -1.65 -1.82 -1.82 13126
0.04 -0.00 5.09 -1.24 9.40 -1.67 -1.78 -1.76 13132
0.03 -0.00 5.49 -1.27 9.33 -1.66 -1.73 -1.65 13139
0.03 0.00 6.03 -1.33 9.40 -1.63 -1.66 -1.51 13146
0.03 -0.00 6.47 -1.20 9.18 -1.62 -1.55 -1.33 13152
0.03 -0.00 6.91 -1.32 9.21 -1.61 -1.44 -1.14 13158
0.04 0.00 7.11 -1.40 9.02 -1.60 -1.26 -0.93 13164
0.03 -0.00 7.15 -1.48 8.87 -1.58 -1.05 -0.74 13171
0.04 -0.00 6.98 -1.57 8.70 -1.55 -0.85 -0.50 13177
0.02 -0.00 6.78 -1.59 8.56 -1.50 -0.66 -0.27 13184
0.04 -0.00 6.69 -1.55 8.67 -1.44 -0.48 -0.03 13190
0.03 -0.00 6.64 -1.56 8.88 -1.39 -0.31 0.20 13196
0.03 -0.00 6.55 -1.56 9.03 -1.35 -0.13 0.41 13202
0.03 -0.00 6.30 -1.65 9.16 -1.33 0.06 0.61 13208
0.03 -0.00 6.01 -1.84 9.05 -1.31 0.19 0.79 13215
0.03 -0.00 5.58 -1.93 9.10 -1.29 0.32 0.96 13221
0.03 0.00 5.19 -2.08 9.21 -1.25 0.40 1.07 13228
0.04 -0.00 4.83 -2.18 9.14 -1.21 0.47 1.19 13234
0.03 -0.00 4.54 -2.14 9.20 -1.17 0.52 1.29 13240
0.04 -0.00 4.41 -2.11 9.45 -1.14 0.56 1.37 13246
0.04 -0.00 4.22 -1.94 9.74 -1.12 0.58 1.44 13253
0.04 -0.00 4.01 -1.86 9.88 -1.12 0.61 1.49 13259
0.03 -0.00 3.91 -1.73 10.15 -1.13 0.63 1.51 13265
0.04 -0.00 3.85 -1.83 10.28 -1.15 0.66 1.51 13272
0.02 -0.00 3.66 -2.11 10.33 -1.18 0.70 1.48 13278
0.02 -0.00 3.58 -2.32 10.67 -1.19 0.77 1.44 13285
0.02 -0.00 3.68 -2.62 10.95 -1.21 0.83 1.37 13291
0.03 -0.00 3.66 -2.97 11.09 -1.23 0.90 1.28 13297
0.02 -0.00 3.53 -3.42 11.03 -1.25 0.96 1.22 13303
0.02 -0.00 3.34 -4.00 10.97 -1.26 0.99 1.13 13309
0.02 -0.00 3.08 -4.50 10.90 -1.25 0.98 1.03 13317
0.03 -0.00 2.78 -4.92 10.81 -1.22 0.95 0.93 13323
0.03 -0.00 2.65 -5.15 10.55 -1.16 0.91 0.84 13329
0.02 -0.00 2.61 -5.36 10.33 -1.10 0.85 0.75 13335
0.03 -0.00 2.65 -5.45 10.04 -1.03 0.80 0.68 13341
0.03 -0.00 2.75 -5.51 10.02 -0.95 0.76 0.60 13348
0.02 -0.00 2.88 -5.47 10.05 -0.89 0.76 0.53 13355
0.03 -0.00 3.02 -5.48 10.08 -0.83 0.77 0.49 13361
0.03 -0.00 3.16 -5.61 10.00 -0.78 0.81 0.46 13367
0.02 -0.00 3.18 -5.80 9.80 -0.74 0.87 0.45 13373
0.03 0.00 3.02 -6.01 9.56 -0.70 0.87 0.46 13380
0.03 -0.00 2.71 -6.21 9.22 -0.63 0.92 0.49 13386
0.02 -0.00 2.29 -6.45 9.01 -0.54 0.96 0.55 13392
0.03 0.00 1.92 -6.72 8.96 -0.44 0.98 0.61 13399
0.04 -0.00 1.60 -7.00 8.98 -0.34 0.96 0.68 13405
0.03 -0.00 1.35 -7.17 8.96 -0.25 0.91 0.72 13411
0.02 -0.00 1.21 -7.28 8.84 -0.20 0.81 0.76 13417
0.04 -0.00 1.46 -15.80 6.27 -0.13 0.67 0.79 13424
0.03 -0.00 1.29 -14.42 23.95 1.32 0.74 0.99 13430
0.03 -0.00 -3.76 -6.32 4.16 1.34 0.34 0.94 13436
0.04 -0.00 -3.34 -16.05 4.79 1.51 -0.24 0.77 13443
0.03 -0.00 -6.62 -25.66 8.90 1.75 -1.40 0.60 13449
0.03 0.00 -9.07 -28.00 6.64 2.03 -1.91 0.52 13456
0.03 0.01 -20.76 -27.99 52.56 1.60 -3.43 0.17 13462
0.03 0.07 -0.24 -4.16 12.93 0.06 -0.83 0.01 13468
0.06 0.08 0.67 -1.81 8.81 -0.07 -0.08 0.03 13474
0.04 0.08 -1.05 -0.64 10.89 -0.18 0.01 -0.06 13481
0.03 0.11 -0.29 -0.60 9.76 -0.15 0.11 -0.11 13488
0.04 0.14 1.13 -0.37 9.70 -0.07 0.13 -0.04 13494
0.04 0.12 0.95 -0.20 9.95 -0.09 0.13 0.04 13500
0.04 0.16 0.48 -0.07 10.12 -0.09 0.15 0.09 13507
0.04 0.19 0.43 -0.82 10.21 -0.06 0.11 0.10 13513
0.04 0.22 0.61 -0.63 10.37 -0.03 0.09 0.09 13519
0.05 0.24 1.04 -0.80 10.28 -0.01 0.09 0.09 13526
0.05 0.19 1.08 -0.87 9.84 -0.00 0.07 0.09 13532
0.04 0.17 0.71 -0.77 10.06 0.00 0.06 0.07 13539
0.05 0.18 0.38 -0.79 10.22 0.00 0.07 0.08 13545
0.06 0.13 0.53 -0.93 10.08 -0.00 0.09 0.08 13551
0.07 0.14 0.75 -0.85 10.10 -0.00 0.08 0.09 13557
0.07 0.13 0.86 -0.74 10.25 -0.01 0.08 0.10 13564
0.06 0.12 0.88 -0.75 10.12 -0.02 0.06 0.09 13571
0.07 0.15 0.97 -0.77 9.92 -0.03 0.04 0.07 13577
0.08 0.14 0.96 -0.72 9.95 -0.04 0.02 0.06 13583
0.07 0.17 0.91 -0.67 10.02 -0.05 -0.00 0.04 13589
0.09 0.20 0.83 -0.72 9.85 -0.05 -0.01 0.04 13596
0.09 0.17 0.67 -0.68 10.40 -0.04 -0.01 0.04 13602
0.08 0.19 0.72 -0.67 10.19 -0.03 -0.00 0.04 13608
0.09 0.19 0.74 -0.64 10.08 -0.02 -0.00 0.05 13615
0.11 0.17 0.76 -0.68 9.97 -0.01 0.00 0.05 13621
0.11 0.17 0.81 -0.66 10.04 -0.00 -0.00 0.05 13628
0.12 0.17 0.78 -0.67 9.96 -0.00 -0.01 0.05 13634
0.14 0.17 0.84 -0.66 10.04 -0.01 -0.01 0.05 13640
0.13 0.17 0.80 -0.69 10.05 -0.01 -0.01 0.04 13646
0.15 0.13 0.75 -0.67 10.06 -0.00 -0.01 0.04 13654
0.15 0.11 0.77 -0.66 9.95 0.00 0.00 0.04 13660
0.15 0.11 0.80 -0.69 9.96 -0.00 0.00 0.04 13666
0.15 0.12 0.79 -0.67 10.17 -0.03 0.01 0.04 13672
0.14 0.06 0.75 -0.69 10.02 -0.00 0.01 0.05 13678
0.15 0.07 0.78 -0.68 9.95 -0.00 0.00 0.04 13684
0.14 0.07 0.73 -0.67 9.97 -0.00 0.01 0.05 13691
0.13 0.10 0.78 -0.70 10.01 -0.00 0.01 0.05 13698
0.15 0.06 0.80 -0.67 9.94 -0.00 0.01 0.05 13704
0.15 0.04 0.80 -0.67 10.04 -0.00 0.01 0.05 13710
0.15 0.06 0.80 -0.67 10.06 0.00 0.01 0.05 13716
0.16 0.04 0.82 -0.68 9.99 -0.00 0.01 0.05 13723
0.15 0.02 0.81 -0.66 9.94 -0.01 0.01 0.05 13729
0.14 0.02 0.83 -0.68 9.97 -0.00 0.00 0.05 13735
0.15 0.02 0.83 -0.68 9.98 -0.00 -0.00 0.05 13742
0.15 0.03 0.86 -0.69 9.99 -0.01 -0.01 0.04 13748
0.14 0.03 0.85 -0.68 10.04 -0.01 -0.01 0.04 13755
0.16 0.04 0.82 -0.67 9.99 -0.01 -0.02 0.04 13761
0.14 0.02 0.80 -0.72 9.94 -0.01 -0.02 0.04 13767
0.14 0.01 0.79 -0.71 9.97 -0.02 -0.02 0.04 13773
0.16 0.03 0.79 -0.68 9.98 -0.01 -0.02 0.05 13779
0.15 0.03 0.82 -0.69 9.99 -0.01 -0.02 0.05 13786
0.14 0.02 0.83 -0.72 9.96 -0.01 -0.03 0.05 13793
0.16 0.03 0.80 -0.67 9.98 -0.02 -0.03 0.05 13799
0.15 0.03 0.82 -0.66 10.01 -0.02 -0.03 0.05 13805
0.14 0.03 0.80 -0.67 9.98 -0.02 -0.02 0.05 13811
0.14 0.04 0.81 -0.68 9.97 -0.01 -0.02 0.04 13817
0.12 0.04 0.82 -0.66 9.97 -0.02 -0.02 0.05 13825
0.11 0.03 0.81 -0.68 10.01 -0.01 -0.02 0.05 13831
0.13 0.03 0.85 -0.66 9.98 -0.02 -0.01 0.04 13837
0.11 0.03 0.83 -0.67 9.98 -0.02 -0.01 0.05 13843
0.11 0.03 0.82 -0.66 9.99 -0.02 -0.01 0.05 13849
0.13 0.03 0.83 -0.68 9.98 -0.02 -0.00 0.05 13856
0.12 0.03 0.84 -0.68 9.99 -0.01 0.00 0.05 13862
0.11 0.03 0.81 -0.67 9.97 -0.02 0.00 0.04 13869
0.12 0.04 0.82 -0.67 9.99 -0.02 0.00 0.05 13875
0.10 0.05 0.82 -0.67 10.01 -0.02 0.01 0.04 13881
0.09 0.04 0.83 -0.66 9.97 -0.01 0.01 0.05 13887
0.10 0.05 0.85 -0.68 9.97 -0.02 0.01 0.05 13894
0.08 0.05 0.84 -0.67 10.03 -0.02 0.01 0.05 13900
0.08 0.07 0.85 -0.67 9.99 -0.02 0.01 0.05 13906
0.09 0.07 0.89 -0.66 9.99 -0.02 0.01 0.05 13913
0.07 0.06 0.89 -0.69 9.97 -0.02 0.01 0.05 13919
0.06 0.07 0.89 -0.65 9.99 -0.02 0.00 0.05 13926
0.07 0.08 0.87 -0.66 9.99 -0.02 -0.00 0.05 13932
0.07 0.10 0.84 -0.68 9.95 -0.02 -0.00 0.04 13938
0.06 0.10 0.90 -0.66 10.00 -0.02 -0.01 0.04 13944
0.06 0.11 0.86 -0.65 10.01 -0.03 -0.02 0.04 13950
0.06 0.12 0.86 -0.69 9.96 -0.03 -0.02 0.04 13957
0.05 0.12 0.87 -0.67 10.00 -0.03 -0.02 0.04 13964
0.05 0.16 0.90 -0.64 9.94 -0.03 -0.02 0.04 13970
0.05 0.15 0.88 -0.53 9.95 -0.03 -0.02 0.04 13976
0.04 0.15 0.88 -0.61 9.99 -0.03 -0.03 0.04 13982
0.06 0.17 0.86 -0.66 9.98 -0.02 -0.02 0.04 13988
0.05 0.17 1.01 -0.68 9.95 -0.03 -0.02 0.04 13996
0.04 0.19 0.89 -0.66 9.99 -0.02 -0.02 0.04 14002
0.06 0.23 0.91 -0.64 9.92 -0.02 -0.02 0.04 14008
0.06 0.21 0.91 -0.62 9.97 -0.02 -0.02 0.04 14014
0.05 0.21 0.91 -0.64 9.98 -0.02 -0.02 0.03 14020
0.07 0.20 0.87 -0.65 9.97 -0.02 -0.03 0.04 14027
0.05 0.19 0.90 -0.65 9.98 -0.02 -0.03 0.04 14033
0.05 0.20 0.88 -0.67 10.01 -0.02 -0.03 0.03 14040
0.06 0.23 0.88 -0.69 10.01 -0.02 -0.04 0.03 14046
0.06 0.19 0.90 -0.64 10.01 -0.02 -0.04 0.03 14052
0.06 0.20 0.87 -0.68 9.97 -0.02 -0.05 0.03 14059
0.06 0.22 0.86 -0.67 10.00 -0.01 -0.05 0.03 14065
0.06 0.22 0.88 -0.67 9.98 -0.01 -0.05 0.03 14071
0.07 0.22 0.88 -0.65 10.01 -0.01 -0.05 0.03 14077
0.07 0.24 0.86 -0.63 9.97 -0.01 -0.05 0.03 14084
0.06 0.22 0.89 -0.64 9.96 -0.01 -0.05 0.03 14091
0.06 0.24 0.90 -0.65 9.95 -0.01 -0.05 0.03 14097
0.06 0.22 0.87 -0.64 10.00 -0.01 -0.05 0.03 14103
0.06 0.21 0.91 -0.64 9.99 -0.01 -0.05 0.03 14109
0.07 0.22 0.87 -0.66 10.00 -0.01 -0.05 0.03 14115
0.08 0.19 0.88 -0.64 9.95 -0.01 -0.04 0.03 14123
0.06 0.20 0.88 -0.63 10.05 -0.01 -0.05 0.03 14129
0.08 0.20 0.89 -0.68 10.00 -0.01 -0.05 0.00 14135
0.06 0.19 0.87 -0.66 9.99 -0.01 -0.05 0.03 14141
0.07 0.18 0.86 -0.66 9.98 -0.01 -0.05 0.03 14147
0.09 0.17 0.88 -0.65 10.01 -0.01 -0.05 0.04 14154
0.07 0.16 0.86 -0.69 9.97 -0.01 -0.05 0.04 14160
0.06 0.18 0.87 -0.70 10.02 -0.01 -0.05 0.04 14167
0.07 0.17 0.88 -0.67 9.98 -0.01 -0.04 0.04 14173
0.07 0.17 0.89 -0.68 10.00 -0.01 -0.04 0.04 14179
0.06 0.18 0.90 -0.64 10.01 -0.01 -0.05 0.04 14186
0.06 0.19 0.88 -0.64 10.01 -0.01 -0.05 0.04 14192
0.05 0.18 0.89 -0.62 10.01 -0.00 -0.04 0.03 14198
0.06 0.21 0.90 -0.61 10.01 -0.00 -0.04 0.03 14204
0.06 0.13 0.95 -0.61 10.04 0.01 -0.04 0.04 14212
0.05 0.11 1.06 -0.71 10.08 0.01 -0.03 0.04 14218
0.08 0.06 0.97 -0.69 10.10 0.02 -0.02 0.04 14224
0.07 0.06 1.04 -0.64 10.02 0.02 -0.01 0.03 14230
0.07 0.04 1.00 -0.63 10.11 0.02 -0.00 0.03 14236
0.08 0.02 1.02 -0.57 10.00 0.03 0.01 0.02 14243
0.07 -0.01 1.06 -0.64 10.24 0.03 0.03 0.01 14249
0.07 -0.00 1.03 -0.71 10.16 0.04 0.04 -0.01 14256
0.09 -0.01 1.43 -0.64 10.47 0.05 0.05 -0.04 14262
0.10 -0.01 1.46 -0.51 10.19 0.07 0.07 -0.07 14268
0.07 -0.01 1.48 -0.56 10.36 0.12 0.08 -0.11 14275
0.07 -0.01 1.84 -0.76 10.44 0.19 0.08 -0.18 14281
0.09 -0.01 1.83 -0.57 10.58 0.31 0.06 -0.24 14287
0.08 -0.00 1.88 -0.62 11.16 0.54 0.09 -0.31 14294
0.07 -0.01 1.52 -0.65 12.66 1.00 0.23 -0.39 14300
0.06 -0.01 1.52 -0.77 12.78 1.45 0.43 -0.45 14307
0.07 -0.01 1.73 -0.78 13.06 1.80 0.56 -0.49 14313
0.07 -0.01 0.68 -1.05 13.09 1.93 0.66 -0.48 14319
0.04 -0.00 0.79 -1.25 13.32 2.04 0.85 -0.46 14325
0.05 -0.01 0.99 -1.29 14.26 2.12 1.05 -0.44 14331
0.05 -0.00 0.87 -0.70 13.80 2.19 1.32 -0.42 14339
0.04 -0.00 1.24 -1.36 13.53 2.21 1.62 -0.40 14345
0.06 -0.01 1.35 -1.54 16.07 2.22 1.97 -0.38 14351
0.05 -0.00 0.78 -2.15 13.46 2.19 2.34 -0.35 14357
0.04 0.00 1.39 -2.06 13.69 2.14 2.61 -0.30 14364
0.04 -0.00 1.60 -2.37 13.95 2.08 2.93 -0.25 14370
0.04 -0.00 1.55 -2.56 14.30 2.01 3.22 -0.19 14376
0.05 0.00 1.19 -3.33 14.72 1.93 3.46 -0.14 14383
0.05 -0.01 1.37 -4.11 15.06 1.86 3.64 -0.05 14389
0.04 -0.00 0.32 -4.26 14.47 1.81 3.70 0.04 14396
0.05 -0.00 0.39 -4.26 13.42 1.82 3.76 0.15 14402
0.04 -0.00 0.06 -3.88 14.22 1.85 3.80 0.25 14408
0.03 -0.00 -0.39 -4.22 14.48 1.98 3.85 0.35 14414
0.05 -0.01 -1.31 -3.75 13.50 2.08 3.74 0.47 14420
0.04 -0.00 -2.64 -3.05 11.29 2.09 3.48 0.61 14428
0.04 -0.00 -3.16 -2.88 9.51 2.02 3.05 0.72 14434
0.06 -0.01 -4.59 -2.10 8.92 1.89 2.46 0.74 14440
0.03 -0.00 -8.20 -0.46 8.73 1.71 1.51 0.60 14446
0.03 -0.00 -13.59 0.76 8.80 1.51 0.41 0.28 14452
0.03 -0.00 -18.36 1.62 13.58 1.14 -0.96 -0.53 14458
0.03 -0.00 -14.29 2.51 15.92 0.48 -2.17 -1.39 14466
0.03 -0.00 -6.11 1.65 15.63 -0.16 -2.66 -1.86 14472
0.03 -0.00 -2.97 0.90 13.90 -0.62 -2.76 -2.09 14478
0.03 -0.00 -2.75 0.60 12.38 -0.85 -2.61 -2.37 14484
0.02 0.00 -2.34 0.24 10.99 -0.92 -2.43 -2.72 14491
0.02 -0.00 -1.18 0.22 9.80 -0.92 -2.40 -3.02 14497
0.02 -0.00 0.01 0.00 9.15 -0.86 -2.43 -3.19 14503
0.03 -0.00 0.35 -0.36 9.08 -0.82 -2.41 -3.19 14510
0.04 -0.00 0.28 -0.24 9.78 -0.76 -2.31 -3.04 14516
0.03 -0.00 0.18 0.08 10.32 -0.72 -2.26 -2.78 14522
0.03 -0.00 0.33 0.72 10.14 -0.72 -2.31 -2.47 14529
0.04 -0.00 1.07 1.65 9.85 -0.76 -2.53 -2.20 14535
0.02 -0.00 1.93 2.01 9.86 -0.82 -2.84 -1.96 14541
0.03 -0.00 2.72 1.79 9.78 -0.89 -3.13 -1.68 14547
0.05 -0.00 3.82 1.56 9.72 -0.93 -3.32 -1.40 14554
0.03 -0.00 4.97 1.50 9.69 -0.96 -3.38 -1.14 14560
0.02 -0.00 6.13 1.46 9.82 -0.98 -3.32 -0.93 14567
0.03 -0.00 7.27 1.35 10.03 -1.02 -3.14 -0.75 14573
0.02 -0.00 8.17 1.26 10.08 -1.10 -2.87 -0.58 14579
0.03 -0.00 8.41 1.00 9.75 -1.19 -2.52 -0.43 14585
0.03 -0.00 8.76 0.78 9.35 -1.31 -2.22 -0.28 14592
0.02 -0.00 8.64 0.38 9.16 -1.41 -1.88 -0.12 14598
0.02 -0.00 8.22 -0.19 8.85 -1.47 -1.60 0.01 14605
0.03 0.00 7.73 -0.80 8.58 -1.48 -1.38 0.17 14611
0.03 -0.00 7.35 -1.35 8.18 -1.45 -1.19 0.34 14617
0.03 -0.00 7.07 -1.77 7.63 -1.39 -1.00 0.51 14623
0.03 0.01 6.78 -2.02 7.75 -1.31 -0.80 0.69 14629
0.03 -0.00 6.40 -2.18 7.86 -1.22 -0.63 0.85 14636
0.02 -0.00 5.96 -2.14 8.09 -1.12 -0.46 1.00 14643
0.03 -0.00 5.68 -1.98 8.64 -1.04 -0.30 1.13 14649
0.04 -0.00 5.42 -1.79 9.02 -0.98 -0.18 1.26 14655
0.03 -0.00 5.00 -1.70 9.30 -0.95 -0.06 1.39 14661
0.02 -0.00 4.53 -1.62 9.44 -0.94 0.02 1.45 14667
0.03 -0.00 4.08 -1.59 9.65 -0.95 0.06 1.53 14673
0.03 -0.00 3.65 -1.65 9.62 -0.96 0.06 1.60 14680
0.02 -0.00 3.31 -1.77 9.41 -0.98 0.04 1.64 14687
0.03 0.00 3.05 -1.86 9.21 -0.98 0.01 1.66 14693
0.03 -0.00 2.87 -2.00 9.08 -0.96 -0.02 1.64 14699
0.03 -0.00 2.67 -2.23 9.21 -0.94 -0.05 1.60 14705
0.02 -0.00 2.53 -2.32 9.27 -0.89 -0.10 1.52 14711
0.03 -0.00 2.53 -2.40 9.43 -0.85 -0.14 1.43 14717
0.03 -0.00 2.43 -2.39 9.48 -0.82 -0.18 1.31 14725
0.02 -0.00 2.45 -2.36 9.77 -0.80 -0.22 1.17 14731
0.03 -0.00 2.65 -2.26 10.20 -0.80 -0.25 1.02 14737
0.02 -0.00 3.23 -2.03 10.91 -0.85 -0.26 0.87 14743
0.02 -0.00 3.74 -1.91 11.32 -0.94 -0.22 0.74 14749
0.03 -0.00 4.01 -1.99 11.25 -1.05 -0.16 0.62 14756
0.03 -0.00 4.10 -2.20 10.81 -1.20 -0.10 0.50 14763
0.02 -0.00 4.07 -2.68 10.03 -1.25 -0.06 0.40 14769
0.03 -0.00 3.95 -3.17 9.48 -1.27 -0.03 0.30 14775
0.03 -0.00 4.07 -3.52 9.04 -1.24 -0.02 0.20 14781
0.02 -0.00 4.28 -3.63 9.00 -1.18 -0.01 0.08 14787
0.03 0.00 4.52 -3.63 9.11 -1.12 0.03 0.01 14794
0.02 -0.00 4.82 -3.58 9.49 -1.08 0.11 -0.07 14800
0.02 -0.00 5.14 -3.68 9.91 -1.07 0.21 -0.13 14807
0.03 -0.00 5.27 -3.83 10.10 -1.08 0.31 -0.15 14813
0.03 -0.00 5.31 -4.14 9.98 -1.09 0.41 -0.15 14819
0.02 -0.00 5.18 -4.54 9.66 -1.10 0.45 -0.14 14825
0.03 -0.00 5.06 -4.87 9.21 -1.10 0.45 -0.11 14831
0.04 -0.00 5.10 -5.03 8.68 -1.06 0.44 -0.10 14838
0.03 -0.00 5.31 -5.02 8.25 -1.00 0.45 -0.10 14844
0.02 -0.00 5.50 -4.87 7.79 -0.94 0.51 -0.14 14851
0.02 -0.00 5.55 -4.55 7.41 -0.88 0.65 -0.20 14857
0.03 -0.00 5.48 -4.11 7.05 -0.82 0.84 -0.26 14863
0.02 -0.00 5.25 -3.52 6.73 -0.77 1.05 -0.32 14869
0.02 -0.00 4.93 -3.07 6.30 -0.70 1.22 -0.37 14875
0.03 -0.00 4.37 -2.77 5.56 -0.70 1.35 -0.40 14882
0.03 -0.00 -5.64 -38.40 5.39 -0.54 1.62 -0.08 14888
0.03 -0.00 16.76 -13.87 0.53 2.16 2.32 0.66 14895
0.05 0.02 -36.96 -70.37 49.23 1.91 -2.91 0.34 14901
0.02 0.13 -4.65 -6.42 12.53 -0.14 0.03 0.08 14908
0.06 0.21 0.74 -14.99 16.42 -0.16 -0.01 0.19 14914
0.03 0.23 -2.36 -0.09 10.05 -0.19 0.09 -0.04 14920
0.03 0.22 1.37 1.52 9.39 -0.11 0.14 -0.06 14926
0.04 0.18 1.28 0.75 9.61 -0.06 0.12 0.05 14934
0.04 0.21 0.89 0.36 10.14 -0.07 0.16 0.10 14940
0.06 0.25 0.38 -0.93 10.82 -0.06 0.14 0.08 14946
0.02 0.22 1.31 -1.03 10.34 -0.02 0.09 0.05 14952
0.04 0.20 1.24 -0.57 9.91 -0.00 0.06 0.06 14959
0.05 0.19 0.60 -0.44 9.90 0.00 0.04 0.06 14965
0.05 0.17 0.35 -0.63 10.03 -0.00 0.05 0.06 14971
0.03 0.21 0.56 -0.97 10.14 -0.00 0.08 0.08 14978
0.06 0.22 0.77 -0.96 10.07 -0.01 0.08 0.08 14984
0.06 0.19 0.74 -0.74 10.19 -0.02 0.09 0.08 14991
0.07 0.24 0.80 -0.65 9.98 -0.02 0.07 0.07 14997
0.07 0.22 0.86 -0.72 9.99 -0.02 0.06 0.07 15003
0.06 0.19 0.86 -0.69 9.95 -0.02 0.05 0.06 15009
0.05 0.21 0.83 -0.72 10.06 -0.02 0.03 0.05 15015
0.05 0.22 0.83 -0.68 10.00 -0.02 0.01 0.05 15023
0.04 0.21 0.77 -0.68 10.00 -0.02 0.01 0.05 15029
0.06 0.23 0.74 -0.61 10.04 -0.02 0.00 0.05 15035
0.05 0.21 0.73 -0.64 10.02 -0.01 -0.00 0.06 15041
0.06 0.21 0.75 -0.63 10.01 -0.00 0.00 0.06 15048
0.06 0.22 0.74 -0.64 10.10 0.00 0.00 0.06 15054
0.06 0.22 0.77 -0.67 10.03 0.00 0.01 0.06 15060
0.07 0.21 0.68 -0.69 10.05 0.01 0.01 0.05 15067
0.09 0.20 0.74 -0.64 10.11 0.01 0.01 0.05 15073
0.09 0.17 0.73 -0.64 9.97 0.01 0.01 0.05 15080
0.10 0.16 0.76 -0.66 9.91 0.01 0.01 0.04 15086
0.11 0.14 0.79 -0.66 10.03 0.01 0.01 0.04 15092
0.11 0.12 0.73 -0.68 10.01 0.01 0.01 0.04 15098
0.13 0.11 0.76 -0.68 9.98 0.01 0.01 0.05 15105
0.11 0.08 0.76 -0.68 10.00 0.00 0.00 0.04 15112
0.09 0.06 0.77 -0.70 10.03 0.01 0.00 0.05 15118
0.11 0.07 0.78 -0.69 10.04 0.00 -0.00 0.05 15124
0.12 0.03 0.80 -0.70 10.02 0.01 -0.00 0.04 15130
0.10 0.06 0.76 -0.68 10.01 0.00 -0.01 0.04 15136
0.14 0.05 0.76 -0.68 10.01 0.00 -0.01 0.04 15143
0.13 -0.01 0.79 -0.67 10.01 0.01 -0.01 0.04 15150
0.13 -0.00 0.79 -0.67 9.97 0.01 -0.02 0.04 15156
0.14 0.00 0.77 -0.67 9.95 0.01 -0.02 0.04 15162
0.13 0.01 0.81 -0.69 9.98 0.01 -0.02 0.04 15168
0.13 0.01 0.80 -0.70 9.99 0.01 -0.03 0.04 15175
0.15 0.02 0.77 -0.68 9.99 0.00 -0.03 0.04 15181
0.15 -0.00 0.80 -0.68 9.95 0.01 -0.03 0.04 15187
0.14 -0.00 0.78 -0.74 9.96 0.00 -0.03 0.04 15194
0.15 0.01 0.76 -0.69 10.03 0.00 -0.02 0.04 15200
0.15 -0.00 0.78 -0.71 10.01 0.00 -0.02 0.04 15206
0.14 -0.00 0.73 -0.71 9.96 0.01 -0.02 0.05 15213
0.16 -0.00 0.78 -0.70 9.98 0.00 -0.02 0.05 15219
0.14 -0.01 0.80 -0.70 9.98 0.00 -0.01 0.04 15225
0.14 0.00 0.79 -0.70 9.95 -0.00 -0.01 0.04 15232
0.15 -0.00 0.83 -0.71 9.95 -0.00 -0.01 0.05 15238
0.14 -0.01 0.80 -0.73 9.97 -0.01 -0.01 0.04 15244
0.11 -0.00 0.81 -0.69 9.98 -0.00 -0.01 0.05 15251
0.14 -0.00 0.81 -0.67 10.00 -0.00 -0.01 0.04 15257
0.12 -0.01 0.81 -0.71 9.96 -0.00 -0.01 0.04 15263
0.12 -0.01 0.82 -0.68 10.00 -0.00 -0.01 0.04 15269
0.13 -0.00 0.83 -0.70 9.99 0.00 -0.01 0.04 15276
0.13 -0.01 0.81 -0.70 9.96 0.03 -0.00 0.04 15282
0.13 -0.01 0.79 -0.69 9.98 -0.00 -0.00 0.04 15289
0.13 -0.01 0.80 -0.68 9.96 0.00 -0.01 0.04 15295
0.13 -0.01 0.81 -0.71 9.99 -0.00 -0.00 0.05 15301
0.12 -0.01 0.84 -0.71 9.99 -0.01 -0.01 0.04 15307
0.11 -0.01 0.84 -0.72 9.99 -0.00 -0.01 0.05 15313
0.12 0.00 0.81 -0.71 10.00 -0.01 -0.01 0.04 15320
0.12 -0.01 0.84 -0.74 9.97 -0.01 -0.01 0.04 15326
0.12 -0.01 0.83 -0.71 9.97 -0.01 -0.01 0.04 15333
0.11 -0.00 0.84 -0.69 10.01 -0.01 -0.01 0.04 15339
0.11 -0.01 0.87 -0.71 9.92 -0.01 -0.01 0.04 15345
0.12 -0.01 0.83 -0.72 9.97 -0.01 -0.01 0.04 15351
0.12 -0.01 0.83 -0.70 9.98 -0.01 -0.02 0.04 15357
0.14 -0.01 0.87 -0.69 9.98 -0.01 -0.02 0.04 15364
0.13 -0.01 0.87 -0.70 9.98 -0.01 -0.02 0.04 15371
0.12 -0.00 0.87 -0.70 9.96 -0.01 -0.02 0.04 15377
0.14 -0.01 0.89 -0.68 10.00 -0.01 -0.03 0.03 15383
0.13 -0.01 0.87 -0.74 10.03 -0.01 -0.03 0.03 15389
0.13 -0.01 0.86 -0.74 9.98 -0.01 -0.03 0.03 15395
0.13 -0.01 0.88 -0.68 10.03 -0.01 -0.04 0.03 15401
0.12 -0.01 0.86 -0.71 9.99 -0.01 -0.04 0.03 15409
0.12 -0.01 0.83 -0.70 9.99 -0.00 -0.05 0.02 15415
0.13 -0.01 0.87 -0.71 9.97 -0.01 -0.05 0.02 15421
0.14 -0.01 0.83 -0.68 10.01 -0.00 -0.06 0.02 15427
0.13 -0.01 0.86 -0.70 9.97 -0.01 -0.06 0.02 15433
0.14 -0.00 0.84 -0.73 9.99 -0.01 -0.06 0.01 15439
0.13 -0.01 0.83 -0.71 9.98 -0.01 -0.07 0.01 15447
0.14 -0.01 0.87 -0.70 9.94 -0.02 -0.07 0.01 15453
0.16 -0.02 0.89 -0.74 9.96 -0.02 -0.07 0.00 15459
0.18 -0.01 0.85 -0.72 9.93 -0.03 -0.07 0.00 15465
0.17 -0.02 0.82 -0.72 9.99 -0.03 -0.07 -0.00 15471
0.16 -0.02 0.83 -0.73 9.95 -0.03 -0.07 -0.01 15477
0.17 -0.01 0.81 -0.72 9.97 -0.03 -0.07 -0.01 15484
