Voltage_01 Voltage_02 Acc_x Acc_y Acc_z Gyro_x Gyro_y Gyro_z Time
5000
0.05 -0.00 -0.39 -1.96 23.43 3.19 4.28 -0.74 23
0.04 -0.00 -4.25 -0.77 22.42 3.20 4.28 -1.03 29
0.04 -0.00 -7.48 2.00 19.26 3.27 4.28 -1.38 35
0.04 0.00 -8.07 3.71 17.12 3.30 4.28 -1.67 41
0.05 -0.00 -17.51 4.78 14.71 3.12 4.28 -1.89 48
0.03 -0.00 -22.34 8.92 5.59 2.79 3.52 -2.42 54
0.01 -0.00 -18.37 7.02 18.27 1.69 0.56 -2.72 60
0.04 0.00 -14.20 9.45 9.81 -0.51 -1.73 -2.69 66
0.05 -0.01 -6.58 8.98 15.02 -1.94 -3.58 -2.60 73
0.05 -0.00 -2.98 3.77 18.33 -2.64 -4.28 -2.65 79
0.02 -0.00 -1.20 0.46 15.58 -2.98 -4.28 -2.90 86
0.04 -0.00 0.35 -1.18 14.71 -3.01 -4.28 -3.32 92
0.05 -0.01 2.23 -1.15 13.03 -2.88 -4.07 -3.72 98
0.04 -0.00 3.20 -1.36 11.42 -2.68 -3.42 -4.15 104
0.04 -0.00 2.83 -0.78 9.26 -2.49 -2.85 -4.28 110
0.03 -0.00 2.53 0.18 8.69 -2.37 -2.39 -4.28 116
0.03 -0.00 2.28 1.05 8.29 -2.31 -2.13 -4.28 122
0.04 -0.00 2.15 1.70 8.32 -2.34 -1.98 -4.28 129
0.03 -0.00 2.08 1.91 8.98 -2.43 -1.94 -4.28 135
0.02 -0.00 2.33 2.17 9.41 -2.57 -2.09 -4.28 141
0.02 -0.00 2.52 2.16 9.12 -2.72 -2.31 -4.28 147
0.03 -0.00 2.84 2.57 9.88 -2.92 -2.49 -4.14 153
0.04 -0.00 3.44 2.55 10.74 -3.13 -2.75 -3.87 159
0.04 -0.00 4.06 1.52 10.76 -3.31 -3.05 -3.45 166
0.03 -0.00 5.33 0.56 10.41 -3.44 -3.36 -2.96 173
0.03 -0.00 7.32 0.76 10.17 -3.62 -3.69 -2.47 179
0.04 -0.00 8.47 0.67 10.07 -3.74 -3.92 -2.05 185
0.03 -0.00 9.38 -0.00 10.21 -3.87 -4.00 -1.67 191
0.01 -0.00 10.26 -0.36 9.80 -3.96 -3.92 -1.31 197
0.03 0.01 11.07 -0.97 9.49 -3.98 -3.71 -1.08 203
0.04 -0.00 11.86 -1.53 9.02 -3.98 -3.38 -0.82 209
0.04 -0.00 12.44 -2.12 8.57 -3.94 -2.97 -0.61 216
0.03 -0.00 12.68 -2.70 8.14 -3.85 -2.49 -0.44 223
0.03 -0.00 12.84 -3.36 8.13 -3.79 -2.01 -0.28 229
0.04 -0.00 12.85 -4.00 8.39 -3.70 -1.64 -0.11 235
0.03 -0.00 12.78 -4.49 8.62 -3.60 -1.28 0.08 241
0.03 -0.00 12.65 -5.23 8.90 -3.51 -0.99 0.24 247
0.04 -0.00 12.63 -5.93 9.34 -3.41 -0.77 0.44 253
0.04 -0.00 12.70 -6.58 9.66 -3.33 -0.59 0.64 260
0.04 -0.00 12.83 -7.18 9.80 -3.23 -0.43 0.82 266
0.04 -0.00 12.94 -7.93 10.13 -3.13 -0.26 0.97 272
0.06 -0.01 12.98 -8.66 10.52 -3.00 0.00 1.09 279
0.03 0.00 12.71 -9.51 10.85 -2.86 0.31 1.20 285
0.03 -0.00 12.14 -10.03 10.96 -2.70 0.62 1.21 291
0.04 -0.00 11.33 -10.51 11.24 -2.52 0.90 1.23 297
0.04 -0.00 10.39 -11.00 11.45 -2.35 1.14 1.22 304
0.03 -0.00 9.52 -11.51 11.87 -2.18 1.33 1.18 311
0.04 -0.00 8.55 -11.98 12.12 -2.03 1.46 1.13 317
0.02 -0.00 7.52 -12.57 12.33 -1.91 1.54 1.06 323
0.01 -0.00 6.60 -13.11 12.30 -1.82 1.54 0.98 329
0.03 -0.00 5.83 -13.50 12.40 -1.73 1.47 0.87 335
0.02 -0.00 5.38 -13.69 12.13 -1.66 1.36 0.75 342
0.02 -0.00 5.05 -13.68 11.79 -1.58 1.22 0.61 349
0.02 0.00 5.03 -13.56 11.73 -1.51 1.12 0.49 355
0.02 -0.00 5.28 -13.39 11.88 -1.46 1.06 0.41 361
0.02 -0.00 5.61 -13.12 11.98 -1.42 1.09 0.32 367
0.02 -0.00 5.79 -12.72 12.13 -1.40 1.21 0.27 373
0.03 -0.00 6.00 -12.30 12.43 -1.39 1.42 0.24 379
0.01 -0.00 6.10 -12.03 12.74 -1.40 1.67 0.24 387
0.02 -0.00 5.77 -11.88 12.82 -1.41 1.96 0.27 393
0.04 -0.00 5.21 -11.73 12.74 -1.43 2.21 0.32 399
0.02 -0.00 4.69 -11.52 12.49 -1.45 2.37 0.40 405
0.01 -0.00 4.07 -11.46 12.02 -1.45 2.49 0.52 411
0.03 0.01 3.48 -11.42 11.60 -1.43 2.53 0.60 417
0.02 -0.00 3.00 -11.40 11.36 -1.37 2.52 0.73 423
0.01 -0.00 2.67 -11.45 11.13 -1.29 2.47 0.85 431
0.03 -0.00 2.49 -11.41 10.92 -1.19 2.42 0.95 437
0.03 -0.00 2.39 -11.27 10.70 -1.08 2.37 1.03 443
0.02 -0.00 2.26 -11.14 10.58 -1.00 2.34 1.08 449
0.03 -0.00 2.10 -10.89 10.57 -0.89 2.34 1.09 455
0.03 -0.00 2.02 -10.68 10.57 -0.79 2.36 1.08 461
0.02 -0.00 1.91 -9.86 10.60 -0.68 2.41 1.05 467
0.01 -0.00 1.76 -10.13 10.65 -0.58 2.47 0.99 475
0.02 0.00 1.63 -9.88 10.94 -0.48 2.55 0.92 481
0.03 -0.00 1.61 -9.75 11.28 -0.40 2.65 0.84 487
0.03 -0.00 1.51 -9.66 11.66 -0.33 2.76 0.76 493
0.02 -0.00 1.15 -9.59 11.92 -0.29 2.89 0.68 499
0.03 0.00 0.76 -9.62 12.07 -0.26 2.98 0.61 505
0.03 -0.00 -0.01 -9.64 12.17 -0.25 3.05 0.55 512
0.02 -0.00 -0.84 -9.57 12.84 -0.25 3.04 0.47 518
0.02 -0.00 -1.83 -9.52 12.15 -0.26 2.93 0.40 525
0.03 -0.00 -2.70 -9.31 11.79 -0.28 2.73 0.34 531
0.02 -0.00 -3.51 -8.90 11.26 -0.29 2.49 0.28 537
0.03 -0.00 -4.88 -8.56 10.57 -0.28 2.34 0.27 543
0.02 -0.00 -5.05 -8.66 9.98 -0.23 2.25 0.34 549
0.03 -0.00 -5.63 -9.08 9.55 -0.14 2.16 0.42 556
0.04 -0.00 -6.33 -9.44 9.23 -0.03 1.90 0.49 562
0.02 -0.00 -6.90 -9.70 9.15 0.09 1.54 0.52 568
0.02 -0.00 -7.07 -9.87 9.03 0.17 1.15 0.52 574
0.01 -0.00 -7.03 -10.10 9.13 0.28 0.84 0.51 580
0.03 -0.00 -6.67 -10.36 9.25 0.39 0.49 0.49 586
0.04 -0.00 -18.15 -12.03 20.92 0.90 -1.01 0.62 592
0.03 -0.00 -16.40 -7.70 14.36 1.44 -3.08 1.33 600
0.03 -0.00 -2.87 -2.39 7.70 1.22 -4.28 1.66 606
0.03 -0.00 5.17 3.65 9.12 0.98 -4.28 1.45 612
0.03 -0.00 5.71 5.24 13.59 0.79 -4.28 1.27 618
0.02 -0.00 4.79 3.43 12.54 0.53 -4.25 1.34 624
0.01 -0.00 2.38 3.20 10.32 0.48 -3.92 1.54 630
0.03 -0.00 1.45 1.99 11.42 0.54 -3.51 1.70 636
0.03 -0.00 0.44 0.23 8.92 0.64 -3.13 1.74 643
0.03 -0.00 -0.15 -0.20 8.03 0.79 -2.89 1.69 649
0.03 -0.00 -1.17 0.51 9.33 0.99 -2.84 1.58 655
0.02 0.02 -2.57 1.59 11.28 1.22 -2.71 1.46 661
0.03 0.08 -5.02 3.11 12.94 1.50 -2.37 1.22 668
0.02 0.19 -7.44 2.58 12.63 1.74 -1.99 0.86 674
0.00 0.29 -6.51 1.41 11.59 1.87 -1.76 0.37 680
0.01 0.37 -4.83 0.11 13.80 1.92 -1.52 -0.09 687
0.01 0.40 -1.92 -0.37 14.52 1.88 -1.32 -0.44 693
-0.00 0.44 2.78 -1.98 18.58 1.76 -1.51 -0.63 699
0.00 0.48 5.13 -3.07 18.53 1.03 -1.96 -0.44 706
0.00 0.52 3.93 -2.56 13.22 0.56 -1.36 0.03 712
-0.00 0.62 1.56 -1.08 12.77 0.33 -0.73 0.14 718
-0.01 0.67 1.54 -1.55 10.20 0.22 -0.44 0.17 724
0.02 0.63 1.10 -0.88 10.67 0.25 -0.51 0.20 731
0.01 0.67 0.77 -0.48 10.54 0.24 -0.59 0.17 737
-0.00 0.69 0.55 -0.24 11.10 0.18 -0.57 0.06 743
-0.01 0.76 1.00 -0.84 10.38 0.12 -0.43 0.01 750
0.00 0.73 1.43 -1.00 10.08 0.07 -0.33 0.03 756
0.00 0.77 1.10 -0.97 9.87 0.04 -0.29 0.04 762
-0.00 0.81 1.05 -0.74 9.99 0.04 -0.29 0.05 769
0.01 0.80 0.91 -0.70 10.31 0.03 -0.27 0.04 775
0.00 0.85 0.71 -0.48 10.12 0.02 -0.23 0.03 781
-0.01 0.89 0.89 -0.77 9.96 0.00 -0.19 0.03 787
0.00 0.92 0.90 -0.68 10.07 -0.00 -0.16 0.03 793
0.03 0.94 0.76 -0.76 9.60 -0.00 -0.14 0.04 799
0.01 0.90 0.97 -0.78 10.04 -0.01 -0.12 0.05 806
-0.01 0.95 0.84 -0.80 10.16 -0.01 -0.09 0.06 813
-0.00 1.01 0.93 -0.76 10.11 -0.01 -0.07 0.06 819
0.00 1.00 0.87 -0.73 10.04 -0.00 -0.05 0.07 825
-0.00 0.97 0.91 -0.74 10.00 0.01 -0.04 0.07 831
0.00 0.97 0.94 -0.72 10.06 0.01 -0.04 0.07 837
-0.00 0.94 0.97 -0.72 9.98 0.01 -0.04 0.06 843
0.00 0.92 1.03 -0.74 9.96 0.01 -0.05 0.06 849
0.01 0.91 1.03 -0.72 9.95 0.00 -0.05 0.06 856
-0.01 0.90 1.02 -0.70 9.88 0.01 -0.06 0.05 863
0.01 0.87 0.99 -0.71 9.92 0.01 -0.07 0.04 869
0.02 0.86 0.98 -0.72 9.92 0.01 -0.07 0.05 875
0.02 0.82 0.98 -0.75 10.01 0.00 -0.06 0.04 881
0.00 0.82 0.94 -0.70 10.03 0.01 -0.06 0.05 887
0.02 0.82 0.94 -0.71 9.92 0.01 -0.05 0.04 893
0.03 0.78 0.91 -0.68 9.98 0.02 -0.06 0.05 900
0.02 0.74 0.97 -0.74 9.95 0.02 -0.06 0.04 906
0.02 0.70 0.95 -0.75 10.00 0.03 -0.08 0.05 912
0.02 0.64 0.93 -0.70 9.90 0.03 -0.09 0.05 918
0.03 0.62 0.94 -0.72 9.98 0.03 -0.09 0.05 924
0.03 0.54 0.94 -0.78 9.96 0.03 -0.09 0.05 931
0.03 0.50 0.89 -0.77 10.00 0.03 -0.09 0.04 937
0.04 0.47 0.93 -0.80 9.99 0.03 -0.08 0.04 944
0.04 0.47 0.94 -0.80 9.92 0.02 -0.08 0.04 950
0.05 0.46 0.90 -0.75 9.96 0.02 -0.08 0.04 956
0.06 0.41 0.91 -0.74 9.95 0.03 -0.08 0.04 962
0.05 0.39 0.92 -0.79 9.99 0.02 -0.07 0.04 968
0.07 0.36 0.96 -0.74 9.91 0.02 -0.07 0.05 974
0.09 0.34 0.86 -0.76 9.91 0.02 -0.07 0.05 980
0.10 0.33 0.92 -0.76 9.83 0.02 -0.07 0.05 987
0.12 0.28 0.93 -0.77 10.00 0.02 -0.07 0.05 993
0.13 0.29 0.94 -0.75 9.94 0.02 -0.07 0.05 999
0.15 0.25 0.92 -0.77 10.00 0.02 -0.07 0.05 1006
0.17 0.18 0.89 -0.76 9.94 0.02 -0.07 0.05 1012
0.15 0.20 0.89 -0.80 10.00 0.02 -0.07 0.05 1018
0.18 0.17 0.88 -0.80 9.97 0.02 -0.06 0.04 1025
0.19 0.16 0.91 -0.79 10.00 0.02 -0.06 0.04 1031
0.19 0.19 0.91 -0.79 10.02 0.02 -0.06 0.05 1037
0.20 0.17 0.84 -0.76 9.99 0.02 -0.06 0.05 1044
0.22 0.11 0.90 -0.78 10.04 0.02 -0.05 0.04 1050
0.23 0.06 0.89 -0.79 10.01 0.02 -0.05 0.05 1056
0.25 0.08 0.85 -0.81 9.98 0.02 -0.04 0.04 1062
0.27 0.07 0.88 -0.80 10.00 0.02 -0.04 0.05 1069
0.27 0.02 0.88 -0.80 9.98 0.02 -0.03 0.05 1075
0.27 0.03 0.86 -0.80 9.98 0.02 -0.03 0.05 1082
0.30 0.02 0.89 -0.85 9.96 0.02 -0.02 0.05 1088
0.31 -0.00 0.85 -0.78 9.97 0.03 -0.02 0.05 1094
0.32 -0.01 0.86 -0.82 9.96 0.03 -0.02 0.05 1100
0.32 -0.01 0.90 -0.82 10.01 0.02 -0.02 0.06 1106
0.33 -0.03 0.91 -0.91 9.96 0.02 -0.01 0.05 1113
0.32 -0.02 0.94 -0.87 9.97 0.02 -0.01 0.06 1119
0.30 -0.03 0.93 -0.84 9.99 0.02 -0.01 0.05 1125
0.33 -0.01 0.89 -0.79 9.99 0.02 -0.01 0.06 1132
0.34 -0.03 0.92 -0.86 10.03 0.03 -0.01 0.06 1138
0.34 -0.03 0.89 -0.79 9.99 0.03 -0.02 0.06 1144
0.34 -0.03 0.92 -0.83 9.98 0.03 -0.02 0.06 1150
0.36 -0.02 0.98 -0.84 10.09 0.04 -0.03 0.06 1157
0.37 -0.03 0.89 -0.90 9.95 0.04 -0.03 0.06 1163
0.39 -0.03 0.91 -0.90 9.98 0.05 -0.03 0.06 1169
0.40 -0.03 0.96 -0.87 10.02 0.05 -0.04 0.06 1176
0.44 -0.04 0.93 -0.90 9.98 0.05 -0.04 0.06 1182
0.46 -0.04 0.91 -0.86 10.02 0.05 -0.04 0.05 1188
0.47 -0.03 0.98 -0.92 9.98 0.06 -0.04 0.04 1195
0.49 -0.03 0.97 -0.89 9.97 0.06 -0.05 0.04 1201
0.50 -0.04 0.94 -0.91 10.01 0.06 -0.05 0.04 1207
0.49 -0.03 0.97 -0.92 9.99 0.06 -0.05 0.03 1213
0.51 -0.03 0.99 -0.94 9.98 0.06 -0.05 0.03 1220
0.55 -0.04 0.92 -0.91 9.97 0.07 -0.05 0.02 1226
0.58 -0.05 0.97 -0.94 9.97 0.07 -0.04 0.01 1232
0.61 -0.03 0.95 -0.95 10.04 0.08 -0.03 0.01 1239
0.65 -0.04 0.92 -1.00 10.04 0.10 -0.03 0.01 1245
0.65 -0.05 0.99 -1.03 10.03 0.13 -0.02 -0.00 1251
0.67 -0.04 1.01 -0.97 9.99 0.16 -0.02 -0.01 1258
0.71 -0.03 0.99 -1.03 10.02 0.19 -0.01 -0.03 1264
0.72 -0.05 0.98 -1.05 10.08 0.22 -0.01 -0.03 1270
0.74 -0.04 1.00 -1.07 10.04 0.26 -0.00 -0.04 1276
0.79 -0.04 1.00 -1.12 10.20 0.32 0.01 -0.05 1283
0.84 -0.05 1.03 -1.10 10.26 0.37 0.01 -0.05 1290
0.84 -0.04 1.01 -1.11 10.30 0.45 0.01 -0.06 1296
0.87 -0.04 1.04 -1.25 10.39 0.53 0.01 -0.06 1302
0.89 -0.06 1.03 -1.22 10.55 0.64 0.00 -0.06 1308
0.93 -0.04 1.07 -1.34 10.66 0.71 -0.02 -0.07 1314
1.01 -0.05 1.07 -1.36 10.75 0.82 -0.04 -0.08 1321
1.06 -0.05 1.21 -1.55 10.93 0.87 -0.07 -0.09 1328
1.11 -0.04 1.07 -1.52 10.50 0.94 -0.11 -0.10 1334
1.17 -0.04 1.02 -1.59 10.75 1.01 -0.13 -0.11 1340
1.21 -0.06 1.21 -1.65 10.97 1.08 -0.16 -0.12 1346
1.23 -0.06 0.63 -1.75 10.77 1.15 -0.17 -0.13 1353
1.26 -0.07 1.11 -1.81 10.87 1.21 -0.16 -0.13 1359
1.33 -0.05 0.99 -1.96 11.12 1.28 -0.16 -0.14 1366
1.35 -0.06 0.95 -1.94 11.29 1.36 -0.16 -0.13 1372
1.37 -0.07 1.04 -2.02 10.95 1.45 -0.15 -0.13 1379
1.40 -0.06 1.03 -2.15 11.05 1.54 -0.12 -0.17 1385
1.40 -0.07 0.89 -2.27 11.40 1.63 -0.10 -0.14 1391
1.42 -0.06 0.84 -2.29 11.15 1.73 -0.07 -0.13 1397
1.40 -0.06 0.58 -2.24 11.30 1.85 -0.04 -0.12 1404
1.41 -0.07 0.70 -2.47 11.33 1.98 -0.01 -0.11 1411
1.37 -0.05 0.74 -2.71 11.32 2.11 0.07 -0.10 1417
1.36 -0.06 0.88 -2.84 11.41 2.26 0.18 -0.11 1423
1.30 -0.06 0.51 -2.93 7.94 2.40 0.36 -0.12 1429
1.22 -0.04 0.47 -3.16 10.82 2.56 0.59 -0.11 1436
1.14 -0.05 0.24 -3.04 11.79 2.74 0.80 -0.07 1442
0.97 -0.04 -0.04 -3.50 12.52 2.94 0.99 -0.01 1448
0.83 -0.04 -0.06 -3.82 13.19 3.14 1.20 0.07 1455
0.66 -0.04 -0.15 -4.28 13.50 3.38 1.43 0.16 1461
0.48 -0.02 0.23 -4.61 13.92 3.57 1.66 0.25 1468
0.35 -0.03 0.60 -5.42 14.67 3.80 1.86 0.34 1474
0.24 -0.02 0.91 -5.86 15.41 3.98 1.92 0.42 1480
0.17 -0.02 1.47 -7.04 16.62 4.08 2.02 0.52 1486
0.17 -0.02 1.15 -7.99 17.76 4.12 2.12 0.60 1492
0.14 -0.01 1.34 -8.75 17.54 4.11 2.33 0.76 1500
0.09 -0.01 1.84 -9.40 16.96 3.96 2.73 0.92 1506
0.10 -0.01 2.89 -9.80 20.82 3.84 3.00 1.00 1512
0.08 -0.01 4.70 -9.60 23.31 4.07 3.45 1.03 1518
0.06 -0.01 6.52 -9.02 22.36 4.24 4.13 1.09 1524
0.07 0.00 8.19 -8.96 22.24 4.22 4.28 1.16 1530
0.08 -0.01 8.50 -8.68 22.93 4.14 4.28 1.20 1538
0.06 -0.01 5.60 -7.97 23.83 3.99 4.28 1.02 1544
0.06 -0.00 2.63 -6.33 23.64 3.87 4.28 0.70 1550
0.04 -0.00 -1.77 -3.23 21.89 3.76 4.28 0.36 1556
0.04 -0.00 -5.98 0.07 19.85 3.68 4.28 0.02 1562
0.04 0.00 -7.85 3.04 17.53 3.54 4.28 -0.29 1568
0.04 0.00 -8.61 4.74 15.99 3.25 4.03 -0.53 1575
0.05 -0.00 -10.17 8.89 12.91 2.95 2.60 -0.64 1582
0.05 0.01 -13.54 12.16 4.24 2.65 0.88 -1.01 1588
0.05 -0.01 -8.72 8.51 12.21 1.86 -1.81 -1.49 1594
0.05 -0.00 -7.11 10.20 12.20 0.15 -3.31 -1.63 1600
0.05 0.00 -1.88 10.21 13.37 -1.06 -3.86 -1.68 1607
0.03 -0.00 0.79 6.70 15.45 -1.61 -4.04 -1.87 1613
0.04 -0.00 1.87 3.97 14.29 -1.86 -3.86 -2.21 1619
0.05 -0.01 2.64 2.71 12.43 -1.97 -3.39 -2.62 1626
0.05 -0.00 3.12 2.29 10.57 -1.93 -2.80 -3.02 1632
0.04 -0.00 2.97 2.56 8.78 -1.87 -2.34 -3.36 1639
0.05 -0.00 2.44 3.05 8.21 -1.85 -1.89 -3.58 1645
0.04 -0.00 2.32 3.54 7.55 -1.90 -1.58 -3.77 1651
0.03 -0.00 2.27 3.87 7.84 -2.01 -1.43 -3.88 1657
0.02 -0.00 2.23 4.09 8.27 -2.17 -1.40 -3.92 1664
0.02 -0.00 2.31 4.14 8.80 -2.32 -1.47 -3.86 1670
0.01 -0.00 2.43 3.98 9.17 -2.54 -1.60 -3.74 1676
0.05 -0.00 2.40 3.51 9.20 -2.78 -1.70 -3.55 1682
0.04 -0.00 2.54 2.91 9.14 -3.04 -1.78 -3.32 1688
0.06 -0.01 3.43 3.03 9.72 -3.29 -1.85 -3.07 1695
0.05 -0.00 4.01 2.91 10.65 -3.54 -2.04 -2.85 1701
0.03 -0.00 4.52 1.88 10.55 -3.77 -2.26 -2.61 1708
0.03 0.01 5.17 0.52 10.40 -3.97 -2.45 -2.34 1714
0.03 -0.00 6.28 -0.18 10.69 -4.09 -2.55 -2.06 1720
0.03 -0.00 7.27 -0.91 11.13 -4.19 -2.59 -1.81 1726
0.05 -0.00 8.54 -1.78 11.36 -4.25 -2.52 -1.58 1733
0.05 -0.00 8.37 -2.58 11.27 -4.27 -2.46 -1.35 1739
0.03 -0.00 8.71 -3.20 11.13 -4.28 -2.34 -1.14 1745
0.03 -0.00 9.02 -3.82 11.05 -4.28 -2.20 -0.95 1752
0.04 -0.00 9.41 -4.51 10.98 -4.28 -2.07 -0.79 1758
0.03 -0.00 9.82 -5.15 10.90 -4.27 -1.96 -0.62 1765
0.04 -0.00 10.37 -5.66 10.76 -4.23 -1.85 -0.46 1771
0.04 -0.00 10.81 -6.25 10.94 -4.18 -1.73 -0.30 1777
0.03 -0.00 11.20 -6.98 10.95 -4.08 -1.58 -0.15 1783
0.05 -0.00 11.70 -7.80 11.22 -3.94 -1.40 -0.02 1789
0.04 -0.00 12.09 -8.58 11.82 -3.78 -1.21 0.11 1797
0.03 -0.00 12.43 -9.42 12.30 -3.63 -0.97 0.24 1803
0.04 -0.00 12.82 -9.97 12.76 -3.48 -0.68 0.37 1809
0.03 -0.00 13.19 -10.40 13.14 -3.39 -0.35 0.52 1815
0.04 0.01 13.40 -10.87 13.25 -3.27 0.01 0.68 1822
0.04 -0.00 13.26 -11.18 13.43 -3.12 0.39 0.86 1828
0.04 -0.00 13.03 -11.44 13.44 -3.03 0.77 1.06 1835
0.04 -0.00 12.60 -11.80 13.57 -2.90 1.11 1.25 1841
0.04 -0.00 12.03 -12.06 13.55 -2.75 1.41 1.45 1848
0.05 -0.01 11.24 -12.08 13.51 -2.60 1.65 1.64 1854
0.04 -0.00 10.56 -12.09 13.43 -2.45 1.80 1.79 1860
0.03 -0.00 9.92 -12.09 13.41 -2.30 1.90 1.91 1866
0.03 -0.00 9.47 -12.09 13.37 -2.15 1.97 1.99 1873
0.04 -0.00 9.06 -12.13 13.27 -2.00 2.01 2.02 1880
0.04 -0.00 8.57 -12.24 13.11 -1.85 2.06 2.01 1886
0.04 -0.00 8.06 -12.32 12.85 -1.71 2.10 1.94 1892
0.03 -0.00 7.50 -12.35 12.65 -1.59 2.14 1.81 1898
0.04 -0.00 6.90 -12.40 12.53 -1.45 2.17 1.66 1905
0.04 -0.00 6.28 -12.55 12.24 -1.32 2.21 1.51 1911
0.02 -0.00 5.72 -12.50 12.11 -1.18 2.27 1.31 1917
0.05 -0.00 5.14 -12.31 12.10 -1.04 2.34 1.10 1924
0.03 -0.00 4.63 -12.11 12.29 -0.92 2.42 0.88 1931
0.02 -0.00 4.23 -11.82 12.60 -0.81 2.55 0.67 1937
0.03 -0.00 3.99 -11.41 13.06 -0.75 2.72 0.47 1943
0.02 -0.00 3.64 -10.96 13.36 -0.75 2.97 0.30 1949
0.03 0.00 3.21 -10.51 13.68 -0.80 3.25 0.16 1955
0.03 -0.00 2.53 -10.11 13.91 -0.89 3.55 0.07 1963
0.02 -0.00 1.65 -9.89 13.97 -1.02 3.77 0.00 1969
0.03 0.00 0.64 -9.87 13.95 -1.17 3.88 -0.03 1975
0.03 -0.00 -0.37 -9.99 13.76 -1.26 3.87 -0.06 1981
0.03 -0.00 -1.82 -10.20 13.28 -1.35 3.75 -0.08 1987
0.04 0.01 -2.10 -10.45 12.97 -1.41 3.51 -0.10 1994
0.03 -0.00 -2.65 -10.84 12.58 -1.42 3.25 -0.13 2000
0.03 -0.00 -2.89 -11.07 12.20 -1.40 3.02 -0.18 2007
0.05 -0.00 -2.99 -11.34 11.97 -1.35 2.72 -0.23 2013
0.03 -0.00 -3.03 -11.56 11.66 -1.30 2.47 -0.28 2020
0.03 -0.00 -3.12 -11.56 11.17 -1.22 2.30 -0.31 2026
0.03 -0.00 -3.21 -11.52 10.62 -1.14 2.24 -0.29 2032
0.01 -0.00 -3.51 -11.62 10.27 -1.04 2.28 -0.22 2038
0.03 -0.00 -4.06 -11.97 10.03 -0.93 2.32 -0.13 2044
0.03 -0.00 -4.87 -12.45 9.83 -0.79 2.29 -0.05 2052
0.02 -0.00 -5.74 -12.96 9.61 -0.64 2.16 0.01 2058
0.03 0.01 -6.61 -13.35 9.22 -0.49 1.92 0.06 2064
0.02 -0.00 -7.29 -13.57 8.87 -0.33 1.63 0.11 2070
0.02 -0.00 -7.78 -13.78 8.58 -0.16 1.32 0.17 2076
0.04 -0.00 -8.19 -14.00 8.37 -0.01 1.02 0.23 2082
0.05 -0.00 -16.63 -16.54 13.67 0.30 0.19 0.41 2089
0.03 -0.00 -28.02 -16.47 19.41 1.57 -2.81 1.30 2096
0.03 -0.00 -14.31 -8.86 10.06 1.61 -4.27 2.01 2102
0.04 -0.00 -1.18 -3.55 1.39 1.24 -4.28 1.93 2108
0.03 -0.00 4.16 3.29 11.79 1.04 -4.28 1.67 2114
0.02 -0.00 6.44 3.66 13.50 0.83 -4.28 1.68 2121
0.03 -0.00 6.02 4.75 14.79 0.73 -4.28 2.00 2127
0.03 -0.00 3.74 5.53 15.99 0.91 -4.24 2.41 2134
0.06 0.03 -0.70 5.63 14.11 1.17 -2.79 2.61 2140
0.05 0.12 -6.01 5.11 8.98 1.43 -1.60 2.52 2146
0.03 0.28 -12.03 3.20 8.94 1.73 -1.19 2.09 2152
0.02 0.42 -14.64 1.25 12.23 2.07 -1.14 1.42 2159
0.01 0.54 -14.10 -0.60 13.31 2.28 -1.11 0.64 2165
0.01 0.65 -11.65 -0.54 15.75 2.44 -0.94 -0.19 2171
0.02 0.67 -5.23 -0.23 18.19 2.33 -0.79 -0.96 2179
0.01 0.68 3.91 -1.75 20.80 2.03 -0.94 -1.36 2185
0.00 0.76 9.75 -3.42 24.54 1.21 -1.69 -1.03 2191
0.02 0.73 7.43 -3.63 11.05 0.43 -0.92 -0.15 2197
0.00 0.72 1.50 -1.38 9.98 0.37 -0.33 0.19 2203
0.01 0.72 3.36 -2.16 8.44 0.32 -0.15 0.32 2210
-0.00 0.67 2.19 -0.98 9.23 0.49 -0.41 0.42 2216
0.01 0.63 0.72 -0.39 10.57 0.58 -0.75 0.40 2223
0.03 0.61 -0.31 0.37 11.46 0.52 -0.85 0.25 2229
0.02 0.62 0.51 0.01 10.97 0.38 -0.74 0.06 2235
0.01 0.66 1.29 -0.57 10.27 0.26 -0.56 0.01 2242
0.03 0.63 1.55 -1.01 10.12 0.19 -0.43 0.02 2248
0.01 0.64 1.59 -0.84 9.73 0.19 -0.46 0.04 2254
0.00 0.65 1.19 -0.53 10.28 0.20 -0.47 0.04 2260
0.02 0.67 0.98 -0.54 10.46 0.18 -0.44 0.03 2267
0.03 0.67 1.08 -0.71 10.28 0.14 -0.38 0.02 2273
0.00 0.68 1.10 -0.84 10.01 0.12 -0.32 0.04 2280
0.02 0.68 0.95 -0.78 10.28 0.10 -0.25 0.06 2286
0.01 0.66 0.83 -0.65 10.27 0.09 -0.15 0.08 2292
0.01 0.61 0.82 -0.63 10.27 0.08 -0.10 0.09 2298
0.04 0.57 1.00 -0.87 10.08 0.08 -0.04 0.09 2305
0.02 0.49 1.09 -0.78 10.11 0.07 -0.01 0.09 2312
0.02 0.46 1.11 -0.80 10.03 0.06 -0.00 0.09 2318
0.05 0.42 1.19 -0.71 9.94 0.06 -0.00 0.09 2324
0.04 0.39 1.20 -0.69 10.04 0.06 -0.01 0.08 2330
0.05 0.32 1.16 -0.68 9.98 0.06 -0.02 0.07 2336
0.07 0.22 1.18 -0.71 9.96 0.05 -0.04 0.06 2342
0.07 0.20 1.21 -0.69 9.97 0.04 -0.06 0.04 2350
0.07 0.17 1.18 -0.76 9.96 0.04 -0.08 0.04 2356
0.06 0.16 1.22 -0.73 9.89 0.04 -0.10 0.03 2362
0.09 0.13 1.11 -0.75 10.02 0.04 -0.11 0.04 2368
0.08 0.06 1.07 -0.74 9.96 0.04 -0.11 0.00 2374
0.07 0.06 1.07 -0.73 10.04 0.03 -0.12 0.03 2380
0.09 0.04 1.11 -0.80 10.02 0.03 -0.13 0.03 2387
0.10 0.03 1.12 -0.82 9.94 0.04 -0.12 0.03 2394
0.08 -0.00 1.10 -0.76 10.04 0.03 -0.11 0.03 2400
0.11 -0.00 1.05 -0.78 10.04 0.03 -0.10 0.03 2406
0.13 -0.01 1.07 -0.82 10.05 0.03 -0.09 0.03 2412
0.14 -0.01 1.09 -0.74 10.01 0.03 -0.08 0.03 2418
0.13 0.01 1.05 -0.89 9.98 0.03 -0.07 0.03 2424
0.17 -0.02 1.07 -0.77 9.95 0.04 -0.05 0.03 2432
0.18 -0.02 1.04 -0.82 9.98 0.04 -0.05 0.03 2438
0.15 -0.02 1.08 -0.79 9.99 0.04 -0.04 0.03 2444
0.18 -0.01 1.06 -0.78 10.03 0.04 -0.04 0.03 2450
0.19 -0.02 1.10 -1.05 9.97 0.04 -0.04 0.03 2456
0.20 -0.02 1.02 -0.61 9.99 0.05 -0.05 0.03 2462
0.22 -0.02 1.04 -0.91 9.97 0.04 -0.04 0.03 2468
0.22 -0.01 1.11 -0.88 9.98 0.04 -0.05 0.03 2475
0.22 -0.02 1.12 -0.89 9.94 0.04 -0.05 0.03 2481
0.23 -0.02 1.09 -0.84 10.00 0.04 -0.04 0.03 2488
0.22 -0.02 1.11 -0.86 9.98 0.04 -0.04 0.03 2494
0.25 -0.02 1.14 -0.92 9.92 0.04 -0.04 0.03 2500
0.23 -0.01 1.08 -0.85 9.95 0.04 -0.04 0.02 2506
0.23 -0.02 1.05 -0.85 9.93 0.04 -0.03 0.02 2512
0.24 -0.01 1.09 -0.91 9.96 0.04 -0.03 0.02 2519
0.26 -0.03 1.05 -0.85 9.94 0.04 -0.02 0.02 2525
0.27 -0.03 1.07 -0.90 9.98 0.03 -0.03 0.02 2531
0.27 -0.02 1.08 -0.88 9.97 0.03 -0.02 0.01 2538
0.28 0.00 1.14 -0.89 9.94 0.04 -0.02 0.01 2544
0.30 -0.02 1.09 -0.87 9.95 0.03 -0.02 0.02 2550
0.30 -0.03 1.06 -0.91 9.93 0.03 -0.02 0.02 2556
0.29 -0.02 1.12 -0.93 9.93 0.03 -0.02 0.02 2563
0.32 -0.01 1.10 -0.92 9.99 0.03 -0.02 0.02 2569
0.32 -0.02 1.09 -0.90 10.01 0.04 -0.03 0.03 2575
0.32 -0.03 1.16 -0.91 9.99 0.04 -0.03 0.03 2581
0.32 -0.02 1.11 -0.93 9.98 0.04 -0.03 0.03 2588
0.35 -0.02 1.12 -0.93 9.94 0.04 -0.04 0.03 2594
0.35 -0.03 1.10 -0.96 9.99 0.05 -0.05 0.02 2600
0.35 -0.02 1.14 -0.96 9.97 0.05 -0.05 0.02 2607
0.37 -0.02 1.13 -0.96 9.97 0.05 -0.05 0.02 2613
0.39 -0.03 1.11 -0.97 9.98 0.05 -0.06 0.02 2619
0.40 -0.04 1.15 -0.96 9.94 0.05 -0.06 0.02 2625
0.39 -0.03 1.14 -0.94 9.95 0.05 -0.07 0.01 2631
0.40 -0.02 1.15 -0.98 9.86 0.04 -0.06 0.01 2638
0.41 -0.03 1.18 -0.97 9.92 0.03 -0.05 0.01 2644
0.41 -0.04 1.09 -0.99 9.99 0.02 -0.04 0.00 2651
0.42 -0.01 1.10 -0.99 9.94 0.02 -0.03 0.00 2657
0.46 -0.03 1.11 -1.00 9.98 0.02 -0.03 0.00 2663
0.45 -0.03 1.09 -0.96 9.99 0.03 -0.02 0.00 2669
0.45 -0.03 1.09 -1.00 10.00 0.03 -0.01 0.01 2675
0.48 -0.03 1.08 -1.03 9.98 0.04 -0.00 0.00 2682
0.49 -0.03 1.09 -1.01 9.94 0.04 -0.00 0.01 2689
0.50 -0.04 1.08 -1.00 10.01 0.04 -0.00 0.01 2695
0.49 -0.02 1.10 -0.99 9.95 0.05 0.00 0.01 2701
0.51 -0.03 1.08 -1.01 10.00 0.05 0.00 0.01 2707
0.52 -0.03 1.16 -1.04 9.99 0.07 -0.00 0.01 2713
0.51 -0.04 1.20 -1.11 9.98 0.08 -0.00 0.00 2719
0.53 -0.03 1.16 -1.05 10.04 0.10 -0.00 0.00 2726
0.54 -0.03 1.14 -1.06 10.07 0.12 -0.01 -0.00 2733
0.53 -0.03 1.16 -1.06 10.07 0.14 -0.01 -0.01 2739
0.57 -0.03 1.17 -1.10 10.08 0.17 -0.00 -0.01 2745
0.62 -0.04 1.16 -1.10 10.09 0.21 -0.00 -0.02 2751
0.63 -0.03 1.20 -1.11 10.11 0.25 0.00 -0.03 2758
0.68 -0.03 1.25 -1.17 10.21 0.30 0.01 -0.03 2764
0.68 -0.04 1.20 -1.14 10.21 0.37 0.02 -0.04 2770
0.69 -0.04 1.18 -1.82 10.49 0.45 0.02 -0.05 2777
0.73 -0.03 1.23 -1.26 10.47 0.53 0.02 -0.05 2783
0.73 -0.04 1.28 -1.31 11.01 0.63 0.02 -0.07 2790
0.74 -0.04 1.18 -1.36 9.84 0.71 0.02 -0.08 2796
0.79 -0.04 1.25 -1.47 10.79 0.77 0.01 -0.09 2802
0.80 -0.05 1.24 -1.48 10.47 0.83 0.00 -0.10 2808
0.83 -0.04 1.55 -1.66 11.06 0.90 -0.01 -0.11 2814
0.86 -0.05 1.35 -1.58 10.73 0.95 -0.02 -0.12 2822
0.86 -0.05 1.30 -1.70 10.61 1.01 -0.02 -0.13 2828
0.85 -0.03 1.31 -1.80 10.70 1.08 -0.03 -0.14 2834
0.87 -0.03 1.38 -1.84 10.95 1.13 -0.05 -0.16 2840
0.89 -0.05 1.33 -1.94 10.96 1.19 -0.07 -0.16 2846
0.90 -0.05 1.28 -2.05 10.73 1.25 -0.08 -0.17 2853
0.91 -0.05 1.22 -2.10 10.71 1.32 -0.07 -0.17 2860
0.92 -0.04 1.30 -2.20 10.86 1.40 -0.06 -0.17 2866
0.92 -0.05 1.20 -2.31 10.76 1.48 -0.04 -0.16 2872
0.95 -0.06 1.20 -2.34 10.86 1.57 -0.02 -0.16 2879
0.98 -0.04 0.65 -2.44 10.94 1.66 0.04 -0.17 2885
0.99 -0.05 1.20 -2.62 11.29 1.77 0.10 -0.16 2891
0.97 -0.05 1.15 -2.68 11.40 1.89 0.15 -0.16 2897
0.93 -0.04 1.06 -2.85 11.13 2.01 0.18 -0.15 2904
0.94 -0.04 1.03 -2.97 11.58 2.15 0.26 -0.13 2911
0.86 -0.04 0.80 -3.07 12.17 2.31 0.39 -0.10 2917
0.82 -0.05 0.92 -3.10 11.30 2.47 0.57 -0.08 2923
0.71 -0.05 0.97 -3.42 11.73 2.63 0.81 -0.05 2929
0.62 -0.04 0.75 -3.71 11.80 2.80 1.14 -0.03 2936
0.43 -0.03 0.52 -4.09 11.80 2.98 1.50 0.02 2942
0.33 -0.03 0.22 -4.51 12.58 3.15 1.77 0.11 2949
0.22 -0.02 0.08 -4.95 13.62 3.26 1.99 0.25 2955
0.18 -0.02 0.22 -5.69 15.10 3.42 2.27 0.40 2961
0.15 -0.01 0.14 -6.40 16.34 3.55 2.57 0.57 2967
0.12 -0.01 0.51 -7.15 16.52 3.67 2.93 0.76 2974
0.09 -0.01 1.69 -8.52 18.17 3.63 3.26 0.93 2980
0.09 -0.01 3.35 -8.92 21.22 3.73 3.58 1.00 2987
0.10 -0.01 4.75 -8.62 21.85 3.99 4.07 0.99 2993
0.12 -0.01 4.66 -8.54 21.39 4.15 4.27 0.98 2999
0.10 -0.01 5.19 -8.76 20.55 4.17 4.28 1.03 3005
0.07 -0.01 7.22 -9.00 21.60 4.12 4.28 1.10 3012
0.06 -0.00 9.59 -8.88 22.42 4.01 4.28 1.15 3018
0.06 -0.01 8.31 -7.61 23.13 3.85 4.28 1.04 3024
0.05 -0.01 5.59 -6.06 23.34 3.73 4.28 0.80 3031
0.05 -0.00 1.03 -4.22 24.33 3.64 4.28 0.49 3037
0.06 -0.01 -2.94 -2.54 23.21 3.61 4.28 0.14 3043
0.04 -0.00 -5.98 1.04 19.75 3.59 4.28 -0.19 3050
0.04 0.02 -8.36 4.59 15.93 3.56 4.28 -0.53 3056
0.04 -0.00 -8.40 6.58 14.88 3.40 4.28 -0.73 3062
0.04 -0.00 -8.12 6.84 11.82 2.99 3.41 -0.80 3068
0.04 0.01 -18.99 10.61 1.08 2.83 1.65 -1.33 3075
0.04 -0.00 -16.45 8.49 17.70 1.48 -1.33 -1.98 3082
0.04 0.00 -9.83 11.16 13.55 -0.65 -2.92 -2.15 3088
0.05 -0.01 -1.71 9.54 17.12 -1.81 -3.92 -2.11 3094
0.04 -0.00 1.42 4.53 17.80 -2.45 -4.27 -2.17 3100
0.04 -0.00 1.10 3.79 14.83 -2.81 -4.24 -2.48 3106
0.06 -0.01 2.17 2.79 12.70 -2.91 -3.75 -2.96 3113
0.06 -0.01 3.11 1.77 10.30 -2.91 -3.08 -3.46 3120
0.04 -0.00 2.68 1.39 8.34 -2.86 -2.53 -3.86 3126
0.04 -0.00 1.82 1.65 7.64 -2.80 -2.13 -4.17 3132
0.04 -0.00 1.19 2.05 7.48 -2.76 -1.85 -4.28 3138
0.05 -0.00 0.89 2.15 7.69 -2.77 -1.79 -4.28 3144
0.03 -0.00 0.95 2.22 8.39 -2.83 -1.90 -4.28 3150
0.05 -0.00 1.35 2.46 9.32 -2.92 -2.13 -4.28 3158
0.03 -0.00 2.04 2.40 10.05 -3.07 -2.39 -4.28 3164
0.01 -0.00 2.58 2.06 10.04 -3.28 -2.57 -4.18 3170
0.04 0.00 3.15 2.11 11.12 -3.51 -2.68 -3.92 3176
0.05 -0.00 4.13 1.98 11.63 -3.75 -2.76 -3.64 3182
0.03 -0.00 5.18 1.14 11.79 -3.96 -2.90 -3.37 3188
0.05 -0.00 5.91 -0.13 12.04 -4.11 -3.03 -3.05 3195
0.05 -0.00 6.90 -1.01 12.14 -4.20 -3.12 -2.68 3202
0.02 -0.00 7.88 -1.35 11.96 -4.26 -3.19 -2.33 3208
0.03 0.00 8.60 -1.84 11.81 -4.28 -3.20 -2.01 3214
0.05 -0.00 9.23 -2.59 11.27 -4.28 -3.11 -1.71 3220
0.05 -0.00 9.82 -3.40 10.87 -4.28 -2.98 -1.44 3227
0.04 0.01 10.59 -4.10 10.52 -4.28 -2.80 -1.21 3233
0.04 -0.00 11.23 -4.66 10.28 -4.26 -2.58 -1.02 3239
0.03 -0.00 11.89 -5.16 10.11 -4.18 -2.29 -0.83 3246
0.04 -0.00 12.40 -5.52 9.98 -4.14 -1.96 -0.65 3252
0.03 -0.00 12.87 -5.98 10.08 -4.03 -1.63 -0.45 3259
0.04 0.00 12.96 -6.56 10.14 -3.89 -1.23 -0.25 3265
0.05 -0.00 12.90 -7.30 10.52 -3.73 -0.89 -0.05 3271
0.04 -0.00 12.83 -7.96 11.00 -3.58 -0.60 0.17 3277
0.04 0.00 12.64 -8.73 11.28 -3.42 -0.30 0.39 3284
0.04 -0.00 12.62 -9.45 11.77 -3.26 -0.02 0.62 3291
0.02 -0.00 12.67 -10.08 12.32 -3.10 0.24 0.84 3297
0.05 -0.01 12.53 -10.56 12.68 -2.96 0.48 1.06 3303
0.03 -0.00 12.27 -10.86 12.69 -2.82 0.69 1.28 3310
0.04 -0.00 12.06 -11.11 12.84 -2.69 0.88 1.49 3316
0.03 -0.00 11.85 -11.31 13.00 -2.55 1.05 1.68 3322
0.03 -0.00 11.45 -11.42 12.97 -2.42 1.21 1.81 3329
0.04 -0.00 11.09 -11.44 12.98 -2.31 1.35 1.99 3336
0.04 -0.00 10.70 -11.41 12.87 -2.21 1.47 2.06 3342
0.04 -0.00 10.28 -11.35 12.69 -2.10 1.58 2.12 3348
0.04 -0.00 9.92 -11.29 12.59 -1.99 1.68 2.16 3354
0.03 -0.00 9.51 -11.24 12.47 -1.89 1.77 2.14 3361
0.04 -0.00 9.01 -11.11 12.27 -1.78 1.85 2.09 3367
0.04 -0.00 8.56 -11.00 12.10 -1.67 1.94 2.00 3374
0.03 -0.00 8.11 -10.82 12.05 -1.56 2.02 1.86 3380
0.04 -0.00 7.68 -10.60 11.99 -1.44 2.10 1.70 3386
0.03 -0.00 7.21 -10.38 11.96 -1.33 2.20 1.53 3393
0.04 0.00 6.75 -10.18 12.07 -1.23 2.30 1.33 3399
0.04 -0.00 6.27 -9.98 12.36 -1.14 2.43 1.13 3405
0.02 -0.00 5.95 -9.81 13.00 -1.08 2.56 0.94 3411
0.02 0.01 5.52 -9.75 13.51 -1.04 2.73 0.76 3418
0.03 -0.00 4.97 -9.68 13.89 -1.06 2.92 0.60 3425
0.03 -0.00 4.45 -9.64 14.44 -1.10 3.07 0.48 3431
0.02 -0.00 3.70 -9.62 14.85 -1.19 3.22 0.39 3437
0.03 -0.00 2.87 -9.61 14.93 -1.29 3.31 0.34 3443
0.02 -0.00 1.93 -9.71 14.94 -1.39 3.33 0.30 3449
0.02 -0.00 0.99 -9.83 14.68 -1.48 3.28 0.27 3456
0.03 -0.00 0.23 -10.01 14.14 -1.55 3.18 0.25 3463
0.03 -0.00 -0.50 -10.45 13.57 -1.59 3.03 0.22 3469
0.03 -0.00 -1.15 -10.79 13.05 -1.57 2.86 0.19 3475
0.03 -0.00 -1.57 -11.16 12.45 -1.51 2.66 0.13 3481
0.02 -0.00 -1.77 -11.63 11.94 -1.44 2.46 0.04 3487
0.02 0.00 -1.79 -12.01 11.54 -1.34 2.28 -0.05 3494
0.02 -0.00 -1.52 -12.29 11.11 -1.25 2.17 -0.15 3501
0.02 -0.00 -1.22 -12.53 10.75 -1.11 2.14 -0.26 3507
0.04 -0.00 -1.22 -12.75 10.43 -0.98 2.20 -0.37 3513
0.02 -0.00 -1.49 -12.95 10.08 -0.84 2.31 -0.46 3520
0.03 -0.00 -1.95 -13.01 9.89 -0.69 2.51 -0.52 3526
0.04 -0.00 -2.71 -13.11 9.84 -0.55 2.66 -0.55 3532
0.03 -0.00 -3.99 -13.28 9.76 -0.39 2.83 -0.55 3538
0.02 -0.00 -5.54 -13.46 9.68 -0.22 2.92 -0.53 3545
0.03 -0.00 -6.95 -13.65 9.90 -0.08 2.80 -0.49 3551
0.02 -0.00 -8.18 -13.86 9.74 0.04 2.44 -0.44 3558
0.01 -0.00 -9.00 -14.12 9.34 0.12 1.90 -0.36 3564
0.02 -0.00 -9.18 -14.28 8.67 0.17 1.23 -0.26 3570
0.04 -0.00 -19.85 -16.68 14.80 0.39 -0.24 0.02 3576
0.02 -0.00 -23.66 -16.54 17.49 1.42 -3.20 0.87 3582
0.03 -0.00 -4.35 -7.19 9.75 1.56 -4.28 1.47 3589
0.04 -0.00 4.98 -0.87 3.51 1.20 -4.28 1.37 3596
0.02 -0.00 6.18 0.50 9.03 1.21 -4.28 1.36 3602
0.02 -0.00 6.33 0.11 12.20 1.11 -4.28 1.61 3608
0.03 -0.00 5.98 4.60 12.93 1.09 -4.28 2.05 3614
0.02 -0.00 2.83 3.35 11.93 1.16 -4.24 2.42 3620
0.03 0.01 0.03 1.60 10.50 1.33 -3.52 2.57 3627
0.04 0.07 -2.29 3.30 12.21 1.60 -2.64 2.50 3634
0.03 0.20 -8.86 3.28 14.77 1.93 -1.80 2.29 3640
0.03 0.31 -13.34 2.69 13.21 2.18 -1.39 1.84 3646
0.01 0.47 -12.84 1.40 13.41 2.36 -1.39 1.09 3652
0.01 0.58 -10.65 -0.81 16.60 2.45 -1.27 0.26 3659
0.03 0.55 -5.04 -0.65 18.20 2.37 -1.21 -0.46 3665
0.01 0.67 3.67 -1.70 26.00 2.06 -1.72 -0.85 3672
0.01 0.71 7.03 -4.11 18.47 1.09 -2.01 -0.49 3678
0.02 0.66 3.01 -3.48 13.38 0.61 -1.09 0.07 3684
0.02 0.66 1.88 -2.30 10.97 0.35 -0.51 0.17 3691
0.01 0.66 2.09 -1.52 9.46 0.36 -0.58 0.22 3697
0.02 0.65 1.92 -0.54 9.08 0.48 -0.86 0.24 3703
-0.01 0.68 0.43 0.29 10.69 0.51 -1.18 0.12 3709
0.02 0.69 0.87 -0.10 10.54 0.42 -1.14 0.02 3716
0.02 0.70 1.53 -0.54 10.32 0.35 -1.03 -0.00 3723
0.01 0.72 1.11 -1.07 9.81 0.27 -0.92 0.02 3729
0.01 0.71 1.17 -1.26 10.69 0.19 -0.75 0.03 3735
0.02 0.74 0.86 -0.75 10.46 0.10 -0.53 0.04 3741
0.02 0.79 0.62 -0.98 10.04 0.02 -0.32 0.02 3747
0.00 0.78 0.53 -0.88 10.54 -0.01 -0.24 0.01 3755
0.03 0.82 0.83 -0.87 10.52 -0.02 -0.20 0.02 3761
0.01 0.79 0.84 -0.89 10.10 -0.01 -0.18 0.03 3767
0.01 0.77 0.86 -0.85 10.13 -0.01 -0.16 0.02 3773
0.02 0.73 0.97 -0.83 10.04 -0.00 -0.14 0.03 3779
0.02 0.72 0.92 -0.73 9.93 0.00 -0.12 0.04 3785
0.02 0.73 0.90 -0.81 10.07 0.01 -0.10 0.04 3792
0.03 0.71 0.93 -0.85 10.07 0.01 -0.08 0.05 3799
0.03 0.67 0.97 -0.82 10.04 0.02 -0.08 0.05 3805
0.03 0.65 0.97 -0.78 9.96 0.02 -0.08 0.04 3811
0.04 0.62 0.94 -0.78 10.00 0.01 -0.08 0.04 3817
0.02 0.57 0.96 -0.79 9.90 0.02 -0.08 0.04 3823
0.04 0.54 0.96 -0.77 10.02 0.01 -0.09 0.03 3830
0.04 0.51 0.96 -0.80 9.99 0.02 -0.08 0.03 3836
0.04 0.47 0.97 -0.80 9.94 0.01 -0.08 0.03 3843
0.03 0.44 0.93 -0.75 9.98 0.01 -0.08 0.03 3849
0.05 0.42 0.91 -0.79 9.99 0.01 -0.08 0.03 3855
0.07 0.38 0.92 -0.83 10.01 0.01 -0.07 0.03 3861
0.06 0.32 0.93 -0.81 10.01 0.02 -0.07 0.03 3868
0.05 0.29 0.93 -0.79 9.92 0.02 -0.06 0.03 3874
0.07 0.24 0.96 -0.84 9.97 0.02 -0.05 0.03 3880
0.07 0.19 0.93 -0.84 9.97 0.02 -0.05 0.03 3887
0.07 0.16 0.89 -0.83 9.94 0.02 -0.05 0.03 3893
0.09 0.19 0.91 -0.84 9.94 0.02 -0.05 0.03 3899
0.10 0.15 0.93 -0.81 10.03 0.02 -0.05 0.04 3905
0.11 0.11 0.92 -0.83 9.98 0.02 -0.05 0.03 3912
0.13 0.07 0.97 -0.85 9.97 0.02 -0.05 0.03 3918
0.14 0.07 0.97 -0.99 9.95 0.02 -0.05 0.03 3924
0.14 0.04 0.94 -0.84 9.99 0.01 -0.05 0.03 3931
0.13 0.04 0.93 -0.82 9.96 0.02 -0.05 0.03 3937
0.16 0.06 0.93 -0.85 9.99 0.01 -0.05 0.03 3943
0.19 0.02 0.96 -0.86 9.99 0.01 -0.05 0.03 3949
0.18 0.02 0.96 -0.83 9.99 0.01 -0.05 0.03 3955
0.17 0.03 0.93 -0.84 9.96 0.00 -0.06 0.03 3962
0.19 0.01 0.91 -0.84 10.03 -0.00 -0.06 0.02 3969
0.19 0.01 0.97 -0.86 9.92 0.00 -0.07 0.02 3975
0.17 0.01 0.97 -0.88 9.99 -0.00 -0.07 0.02 3981
0.22 0.01 0.96 -0.88 9.95 -0.00 -0.07 0.02 3987
0.21 0.02 0.94 -0.88 10.04 -0.00 -0.07 0.02 3993
0.19 -0.02 0.93 -0.88 10.04 -0.00 -0.06 0.02 3999
0.23 0.01 0.92 -0.87 10.09 0.00 -0.06 0.02 4006
0.22 -0.02 0.90 -0.82 9.97 0.00 -0.05 0.02 4013
0.23 -0.00 0.89 -0.86 10.03 0.00 -0.05 0.03 4019
0.23 -0.02 0.83 -0.86 10.01 -0.00 -0.05 0.03 4025
0.23 -0.00 0.87 -0.84 10.03 0.00 -0.05 0.03 4031
0.23 -0.02 0.82 -0.81 9.97 -0.00 -0.05 0.04 4037
0.23 -0.02 0.91 -0.87 9.96 0.00 -0.05 0.04 4043
0.24 -0.01 0.89 -0.84 9.99 0.00 -0.04 0.00 4049
0.26 -0.01 0.89 -0.86 10.02 0.00 -0.05 0.03 4057
0.26 -0.02 0.91 -0.87 9.97 0.00 -0.04 0.04 4063
0.25 -0.03 0.87 -0.80 10.07 0.00 -0.05 0.04 4069
0.25 -0.01 0.89 -0.87 10.00 0.00 -0.04 0.04 4075
0.27 -0.03 0.91 -0.88 10.04 0.03 -0.04 0.04 4081
0.28 -0.03 0.88 -0.86 10.00 0.00 -0.04 0.04 4087
0.28 -0.03 0.89 -0.85 10.01 0.00 -0.04 0.04 4093
0.29 -0.02 0.92 -0.89 9.92 0.01 -0.03 0.03 4101
0.29 -0.03 1.31 -1.41 10.04 0.00 -0.03 0.05 4107
0.27 -0.03 0.88 -0.97 10.05 0.01 -0.03 0.04 4113
0.29 -0.01 0.80 -0.96 10.03 0.01 -0.02 0.05 4119
0.30 -0.03 0.94 -0.80 9.98 0.02 -0.02 0.05 4125
0.32 -0.03 0.92 -0.86 10.01 0.03 -0.02 0.05 4131
0.35 -0.04 0.96 -0.95 9.99 0.03 -0.01 0.04 4137
0.38 -0.02 0.91 -0.91 10.03 0.04 -0.01 0.04 4144
0.40 -0.03 0.93 -0.87 9.99 0.04 -0.01 0.04 4151
0.43 -0.04 0.88 -0.89 10.01 0.04 -0.01 0.04 4157
0.44 -0.04 0.89 -0.94 9.99 0.05 -0.01 0.04 4163
0.45 -0.04 0.86 -0.93 9.99 0.06 -0.01 0.04 4169
0.46 -0.04 0.92 -0.91 10.03 0.07 -0.01 0.04 4175
0.47 -0.03 0.96 -0.95 10.09 0.07 -0.01 0.04 4182
0.50 -0.03 0.82 -0.99 10.12 0.09 -0.01 0.04 4189
0.50 -0.04 0.92 -0.95 10.08 0.11 -0.01 0.03 4195
0.50 -0.04 0.96 -0.99 9.99 0.13 -0.01 0.03 4201
0.55 -0.03 0.91 -1.00 10.05 0.15 -0.01 0.03 4207
0.56 -0.04 0.95 -0.94 10.14 0.17 -0.00 0.03 4213
0.57 -0.03 0.97 -0.99 10.06 0.21 0.00 0.03 4219
0.59 -0.03 0.95 -1.00 10.19 0.24 0.00 0.02 4227
0.64 -0.03 1.03 -1.10 10.10 0.28 0.01 0.01 4233
0.67 -0.03 0.99 -1.06 10.12 0.34 0.01 0.00 4239
0.70 -0.03 1.07 -1.12 10.35 0.42 0.01 -0.01 4245
0.73 -0.03 1.07 -1.20 10.49 0.51 0.00 -0.02 4251
0.76 -0.04 1.08 -1.19 10.50 0.63 -0.02 -0.04 4258
0.81 -0.04 1.11 -1.35 10.64 0.76 -0.03 -0.05 4264
0.80 -0.05 0.99 -1.27 10.78 0.83 -0.04 -0.06 4271
0.83 -0.04 1.12 -1.40 10.68 0.92 -0.05 -0.07 4277
0.91 -0.04 1.07 -1.51 10.90 1.01 -0.06 -0.08 4283
0.93 -0.06 1.08 -1.56 10.96 1.09 -0.06 -0.08 4290
0.96 -0.04 1.02 -1.69 11.12 1.17 -0.06 -0.09 4296
1.01 -0.05 0.97 -1.68 11.04 1.24 -0.07 -0.10 4302
1.02 -0.06 1.05 -1.83 11.04 1.32 -0.07 -0.10 4308
1.07 -0.03 1.07 -1.94 11.02 1.40 -0.07 -0.11 4316
1.10 -0.06 1.02 -2.06 11.08 1.47 -0.07 -0.11 4322
1.11 -0.06 1.01 -2.02 10.87 1.54 -0.06 -0.11 4328
1.14 -0.05 1.11 -2.20 10.77 1.59 -0.03 -0.12 4334
1.16 -0.05 1.00 -2.30 10.75 1.65 0.00 -0.12 4340
1.15 -0.04 1.00 -2.43 10.73 1.72 0.04 -0.12 4347
1.14 -0.05 0.96 -2.51 10.91 1.80 0.09 -0.13 4354
1.13 -0.06 0.93 -2.57 10.95 1.90 0.15 -0.13 4360
1.10 -0.04 0.95 -2.75 10.96 2.01 0.24 -0.14 4366
1.06 -0.05 0.73 -2.89 10.89 2.14 0.37 -0.13 4373
0.98 -0.04 0.74 -2.98 11.24 2.28 0.56 -0.12 4379
0.88 -0.03 0.54 -3.15 11.57 2.45 0.80 -0.09 4385
0.78 -0.04 0.66 -3.31 11.53 2.63 1.04 -0.06 4391
0.69 -0.04 0.51 -3.49 12.24 2.78 1.32 -0.01 4398
0.55 -0.04 0.02 -3.99 12.67 2.96 1.64 0.04 4405
0.41 -0.04 0.13 -4.20 12.67 3.15 1.95 0.12 4411
0.25 -0.02 -0.03 -4.63 13.22 3.29 2.27 0.24 4417
0.19 -0.02 0.43 -5.36 14.64 3.43 2.53 0.39 4423
0.15 -0.02 -0.51 -5.94 15.48 3.50 2.84 0.58 4429
0.11 -0.01 0.41 -7.37 15.56 3.37 3.18 0.80 4436
0.12 -0.01 1.29 -7.92 21.34 3.34 3.34 1.00 4443
0.07 -0.01 3.88 -8.68 23.60 3.58 3.89 1.10 4449
0.07 -0.01 6.00 -8.82 23.40 3.91 4.28 1.09 4455
0.08 -0.01 6.46 -7.94 22.57 4.08 4.28 1.13 4461
0.06 -0.01 7.70 -8.04 23.13 4.11 4.28 1.20 4467
0.03 -0.00 9.86 -8.81 24.39 4.00 4.28 1.28 4474
0.04 -0.00 9.35 -8.21 24.90 3.75 4.28 1.24 4481
0.05 -0.00 7.33 -7.47 25.40 3.55 4.28 0.96 4487
0.05 -0.00 2.30 -7.03 25.41 3.45 4.28 0.60 4493
0.05 0.00 -4.83 -4.06 23.49 3.46 4.28 0.29 4499
0.05 -0.00 -9.65 -0.72 19.78 3.50 4.28 -0.11 4505
0.03 -0.00 -11.70 2.64 15.85 3.46 4.28 -0.47 4512
0.04 0.01 -12.73 4.61 15.71 3.27 4.26 -0.62 4518
0.06 -0.01 -14.33 6.99 13.01 2.83 2.47 -0.53 4525
0.04 -0.00 -22.85 11.55 1.92 2.61 0.05 -1.29 4531
0.06 -0.01 -14.88 8.07 17.49 1.27 -3.11 -2.06 4537
0.05 -0.00 -6.00 9.15 15.26 -0.58 -4.20 -2.21 4544
0.05 -0.01 1.29 7.11 16.59 -1.61 -4.28 -2.20 4550
0.06 -0.01 3.19 3.27 18.03 -2.03 -4.28 -2.36 4556
0.04 -0.00 3.18 1.88 16.45 -2.30 -4.24 -2.82 4562
0.04 0.00 3.70 1.09 13.82 -2.35 -3.63 -3.42 4569
0.06 -0.01 4.06 0.74 11.02 -2.30 -2.86 -3.98 4576
0.04 -0.00 3.21 1.15 8.77 -2.23 -2.24 -4.27 4582
0.03 -0.00 2.47 1.92 8.07 -2.17 -1.87 -4.28 4588
0.04 -0.00 2.08 2.37 8.07 -2.16 -1.76 -4.28 4594
0.05 -0.00 1.88 2.65 8.45 -2.22 -1.90 -4.28 4600
0.04 -0.00 1.95 2.68 9.13 -2.33 -2.20 -4.28 4606
0.02 -0.00 2.40 2.29 9.71 -2.42 -2.53 -4.28 4613
0.02 0.00 2.81 2.03 9.39 -2.59 -2.74 -4.28 4619
0.05 -0.01 3.53 2.16 10.38 -2.76 -2.94 -4.16 4626
0.04 -0.00 4.50 2.30 11.23 -2.96 -3.24 -3.89 4632
0.05 -0.00 5.13 1.68 11.09 -3.15 -3.59 -3.51 4638
0.05 -0.01 6.56 0.85 11.72 -3.33 -3.91 -3.10 4644
0.04 -0.00 8.69 0.65 12.23 -3.56 -4.15 -2.71 4651
0.04 0.00 10.17 0.09 12.95 -3.83 -4.22 -2.38 4658
0.04 -0.00 11.21 -0.83 13.06 -4.09 -4.13 -2.09 4664
0.02 -0.00 11.76 -1.85 12.67 -4.23 -3.84 -1.82 4670
0.06 -0.01 12.15 -2.76 12.03 -4.28 -3.45 -1.60 4676
0.06 -0.01 12.15 -3.66 11.32 -4.28 -3.07 -1.40 4683
0.05 -0.00 12.22 -4.62 10.35 -4.28 -2.73 -1.23 4689
0.04 -0.00 12.40 -5.59 9.73 -4.28 -2.45 -1.07 4696
0.04 -0.00 12.88 -6.32 9.06 -4.24 -2.21 -0.91 4702
0.03 -0.00 13.24 -7.01 8.76 -4.15 -2.02 -0.74 4708
0.04 -0.00 13.73 -7.55 8.85 -4.02 -1.85 -0.57 4714
0.03 -0.00 14.07 -8.01 8.71 -3.83 -1.62 -0.38 4721
0.03 -0.00 14.54 -8.55 8.95 -3.63 -1.33 -0.21 4727
0.06 -0.01 14.61 -8.90 9.09 -3.43 -1.01 0.00 4733
0.05 -0.01 14.70 -9.27 9.34 -3.21 -0.64 0.23 4740
0.05 -0.00 14.74 -9.72 9.87 -3.01 -0.21 0.46 4746
0.03 -0.00 14.58 -9.97 10.43 -2.81 0.25 0.70 4752
0.04 -0.00 14.19 -10.24 11.14 -2.62 0.72 0.93 4759
0.02 -0.00 13.49 -10.34 11.71 -2.48 1.16 1.16 4765
0.03 -0.00 12.79 -10.23 12.17 -2.34 1.55 1.39 4771
0.02 -0.00 12.03 -10.22 12.64 -2.24 1.88 1.59 4779
0.05 -0.00 11.16 -10.25 13.00 -2.18 2.12 1.79 4785
0.03 -0.00 10.41 -10.37 13.20 -2.16 2.28 1.95 4791
0.04 -0.00 9.71 -10.44 13.15 -2.12 2.37 2.08 4797
0.03 -0.00 9.08 -10.59 12.94 -2.04 2.39 2.16 4803
0.02 -0.00 8.52 -10.75 12.73 -2.01 2.39 2.19 4810
0.03 -0.00 7.93 -11.03 12.38 -1.93 2.36 2.18 4816
0.04 -0.00 7.27 -11.03 12.06 -1.83 2.33 2.10 4823
0.03 -0.00 6.16 -10.88 11.49 -1.71 2.28 1.97 4829
0.05 -0.00 6.13 -10.62 11.11 -1.58 2.23 1.79 4836
0.04 -0.00 5.65 -10.35 10.72 -1.44 2.18 1.59 4842
0.03 -0.00 4.95 -10.64 10.80 -1.29 2.14 1.39 4848
0.04 -0.00 4.07 -11.03 11.47 -1.06 2.09 1.30 4854
0.04 -0.00 6.29 -11.90 13.36 -0.55 1.99 1.41 4860
0.03 -0.00 6.57 -5.98 5.71 -0.92 1.91 1.12 4868
0.04 -0.00 5.50 -8.84 11.03 -0.96 2.19 0.80 4874
0.04 -0.00 5.69 -10.26 14.73 -1.04 2.67 0.66 4880
0.04 -0.00 5.56 -10.14 15.35 -0.99 3.12 0.56 4886
0.04 -0.00 4.31 -9.88 15.90 -0.93 3.47 0.45 4892
0.03 -0.00 3.26 -9.73 15.00 -0.95 3.75 0.37 4898
0.03 -0.00 2.35 -9.57 14.48 -1.03 3.90 0.32 4905
0.03 -0.00 1.60 -9.59 14.65 -1.18 3.89 0.29 4912
0.04 -0.00 0.73 -9.86 14.95 -1.33 3.80 0.27 4918
0.02 -0.00 -0.10 -10.41 15.08 -1.47 3.63 0.23 4924
0.04 -0.00 -0.78 -10.92 14.79 -1.60 3.39 0.18 4930
0.04 -0.00 -1.18 -11.67 14.51 -1.70 3.08 0.09 4936
0.03 -0.00 -1.28 -12.39 13.76 -1.79 2.79 -0.04 4943
0.05 -0.00 -1.31 -13.01 12.99 -1.85 2.51 -0.22 4950
0.03 -0.00 -1.28 -13.33 12.15 -1.87 2.33 -0.42 4956
0.03 -0.00 -1.59 -13.31 11.17 -1.82 2.33 -0.59 4962
0.04 -0.00 -2.58 -13.48 10.28 -1.68 2.55 -0.67 4969
0.04 -0.00 -4.14 -13.75 10.02 -1.48 2.86 -0.64 4975
0.03 0.01 -6.17 -13.96 10.07 -1.25 3.02 -0.56 4981
0.04 -0.00 -8.24 -14.14 10.62 -1.03 2.98 -0.46 4987
0.03 -0.00 -10.33 -14.05 10.67 -0.83 2.76 -0.35 4995
0.04 -0.00 -11.79 -14.15 10.95 -0.66 2.44 -0.22 5001
0.03 -0.00 -12.22 -14.50 11.04 -0.54 1.89 -0.11 5007
0.03 0.00 -12.09 -14.89 10.43 -0.52 1.10 -0.04 5013
0.02 -0.00 -12.49 -16.01 9.89 -0.47 0.21 0.01 5020
0.02 -0.00 -35.38 -22.55 28.60 0.14 -2.74 0.44 5026
0.03 -0.00 -19.87 -15.83 10.79 0.92 -4.28 1.18 5032
0.04 -0.00 3.05 -6.00 0.98 0.84 -4.28 1.13 5039
0.04 -0.00 3.78 -0.56 5.38 0.62 -4.28 0.89 5045
0.05 -0.01 5.12 -2.20 12.82 0.60 -4.28 1.01 5051
0.03 -0.00 6.88 5.55 15.46 0.55 -4.28 1.40 5058
0.01 -0.00 5.56 9.73 11.80 0.67 -4.28 1.90 5064
0.04 0.04 2.69 6.13 14.24 0.90 -3.38 2.21 5070
0.04 0.11 -2.01 3.99 10.30 1.30 -1.86 2.32 5076
0.02 0.21 -8.56 2.31 9.22 1.64 -1.05 2.19 5083
0.01 0.37 -12.94 0.41 11.56 1.99 -0.88 1.73 5090
0.01 0.50 -13.89 0.53 13.98 2.24 -1.00 0.96 5096
0.01 0.63 -10.84 0.19 15.42 2.37 -1.07 0.07 5102
0.00 0.63 -4.82 -0.36 16.36 2.32 -1.01 -0.67 5108
-0.00 0.71 2.53 -0.64 18.16 2.14 -0.97 -1.08 5115
0.00 0.68 8.81 -2.63 22.28 1.68 -1.42 -0.96 5122
0.01 0.70 8.50 -4.19 13.84 0.90 -1.44 -0.26 5128
0.01 0.65 3.80 -2.80 12.58 0.78 -0.84 0.28 5134
0.03 0.65 2.20 -2.09 10.86 0.70 -0.69 0.38 5140
0.01 0.63 1.79 -1.28 9.98 0.69 -1.00 0.42 5147
-0.01 0.65 0.13 0.07 10.12 0.70 -1.30 0.37 5153
-0.01 0.66 -0.53 0.59 11.83 0.61 -1.46 0.10 5159
0.02 0.71 0.54 -0.60 10.55 0.45 -1.36 -0.05 5166
0.02 0.69 1.61 -0.62 10.27 0.36 -1.24 -0.04 5172
0.03 0.69 1.31 -1.07 10.41 0.27 -1.05 -0.02 5179
0.02 0.78 0.67 -0.97 11.25 0.19 -0.85 0.03 5185
0.01 0.77 0.34 -1.14 11.18 0.05 -0.49 0.04 5191
0.01 0.86 0.70 -0.78 9.81 -0.02 -0.30 0.01 5197
-0.00 0.88 0.76 -1.10 10.40 -0.03 -0.24 0.01 5203
0.00 0.88 0.77 -1.02 10.15 -0.02 -0.19 0.03 5211
0.01 0.82 0.70 -0.87 10.20 -0.02 -0.16 0.03 5217
0.02 0.81 0.81 -0.79 10.02 -0.01 -0.15 0.03 5223
0.01 0.81 0.97 -0.74 10.05 -0.01 -0.14 0.03 5229
0.04 0.79 0.97 -0.70 10.00 0.00 -0.15 0.03 5235
0.03 0.77 0.94 -0.80 9.92 0.00 -0.15 0.03 5242
0.01 0.77 1.03 -0.78 10.01 -0.00 -0.14 0.03 5249
0.02 0.77 0.96 -0.77 10.00 -0.01 -0.14 0.03 5255
0.03 0.73 0.96 -0.77 9.90 -0.00 -0.13 0.02 5261
0.02 0.72 0.92 -0.77 10.02 -0.01 -0.12 0.02 5267
0.04 0.69 0.95 -0.80 10.00 -0.01 -0.12 0.02 5273
0.04 0.67 0.89 -0.78 9.99 -0.01 -0.11 0.01 5280
0.04 0.65 0.89 -0.76 10.02 -0.01 -0.10 0.01 5286
0.06 0.65 0.81 -0.74 9.97 -0.01 -0.09 0.01 5293
0.05 0.65 0.83 -0.74 9.99 -0.01 -0.09 0.02 5299
0.03 0.65 0.87 -0.77 10.00 -0.01 -0.08 0.02 5305
0.06 0.68 0.86 -0.71 10.01 -0.00 -0.08 0.02 5311
0.06 0.57 0.90 -0.75 10.16 -0.00 -0.07 0.02 5318
0.05 0.55 0.90 -0.76 10.03 -0.00 -0.07 0.02 5324
0.06 0.53 0.91 -0.76 10.01 -0.00 -0.07 0.02 5330
0.06 0.48 0.91 -0.73 10.00 -0.00 -0.07 0.02 5337
0.05 0.43 0.89 -0.77 9.95 0.00 -0.07 0.03 5343
0.07 0.42 0.87 -0.78 10.01 -0.00 -0.07 0.03 5349
0.08 0.40 0.90 -0.78 10.03 -0.00 -0.07 0.02 5356
0.09 0.35 0.86 -0.79 9.97 -0.00 -0.07 0.02 5362
0.07 0.34 0.86 -0.78 10.04 -0.00 -0.06 0.03 5368
0.09 0.33 0.88 -0.77 9.97 -0.01 -0.06 0.02 5374
0.08 0.31 0.89 -0.78 9.95 -0.01 -0.06 0.02 5381
0.07 0.34 0.90 -0.77 9.98 -0.00 -0.06 0.02 5387
0.10 0.31 0.90 -0.78 10.02 -0.01 -0.06 0.02 5394
0.09 0.29 0.93 -0.76 9.95 -0.01 -0.06 0.02 5400
0.08 0.27 0.88 -0.75 9.96 -0.01 -0.07 0.02 5406
0.09 0.31 0.88 -0.78 9.92 -0.01 -0.06 0.02 5412
0.09 0.30 0.87 -0.71 9.96 -0.01 -0.07 0.01 5419
0.10 0.27 0.89 -0.77 10.03 -0.01 -0.06 0.02 5425
0.09 0.25 0.86 -0.82 10.06 -0.01 -0.07 0.02 5431
0.10 0.27 0.90 -0.80 10.00 -0.01 -0.06 0.02 5438
0.11 0.23 0.88 -0.77 10.17 -0.01 -0.06 0.02 5444
0.12 0.26 0.86 -0.74 10.01 -0.01 -0.06 0.02 5450
0.15 0.25 0.90 -0.77 10.03 -0.01 -0.06 0.01 5456
0.15 0.24 0.90 -0.84 10.02 -0.01 -0.06 0.02 5463
0.15 0.22 0.82 -0.76 10.04 -0.01 -0.06 0.01 5470
0.13 0.17 0.95 -0.86 9.98 -0.01 -0.06 0.01 5476
0.15 0.15 0.80 -0.80 9.98 -0.01 -0.06 0.01 5482
0.15 0.13 0.88 -0.82 10.02 -0.01 -0.06 0.02 5488
0.17 0.14 0.86 -0.79 10.00 -0.01 -0.05 0.02 5494
0.15 0.14 0.86 -0.80 9.99 -0.01 -0.05 0.02 5500
0.15 0.10 0.77 -0.74 9.97 -0.01 -0.05 0.02 5507
0.13 0.13 0.91 -0.74 9.94 -0.01 -0.05 0.02 5514
0.22 0.10 0.76 -0.71 9.92 -0.01 -0.04 0.02 5520
0.23 0.09 0.82 -0.78 10.01 -0.00 -0.04 0.02 5526
0.17 0.12 0.88 -0.81 10.04 0.00 -0.03 0.03 5532
0.21 0.10 0.81 -0.82 9.95 0.00 -0.03 0.03 5538
0.18 0.10 0.81 -0.75 10.00 0.00 -0.02 0.03 5544
0.21 0.10 0.91 -0.80 10.01 0.00 -0.02 0.03 5552
0.23 0.05 0.87 -0.80 9.94 0.00 -0.01 0.03 5558
0.21 0.04 0.87 -0.79 10.00 -0.00 -0.01 0.03 5564
0.18 0.05 0.81 -0.77 10.04 0.00 0.00 0.03 5570
0.19 0.04 0.85 -0.81 10.04 0.00 0.01 0.04 5576
0.17 0.03 0.90 -0.76 10.06 0.01 0.01 0.04 5582
0.15 0.04 0.91 -0.76 10.04 0.02 0.00 0.04 5590
0.17 0.04 0.89 -0.79 10.00 0.02 -0.01 0.04 5596
0.20 -0.01 0.81 -0.81 9.95 0.02 -0.01 0.04 5602
0.21 -0.02 0.86 -0.80 10.05 0.02 -0.00 0.04 5608
0.19 -0.01 0.87 -0.75 10.05 0.02 -0.01 0.04 5614
0.21 -0.01 0.91 -0.81 10.04 0.02 -0.01 0.04 5620
0.21 -0.02 0.83 -0.70 10.12 0.02 -0.00 0.04 5626
0.19 -0.02 0.95 -0.86 9.97 0.03 -0.00 0.04 5634
0.24 -0.02 0.92 -0.82 10.07 0.03 -0.01 0.04 5640
0.28 -0.01 0.97 -0.83 9.99 0.03 -0.00 0.04 5646
0.26 -0.03 0.92 -0.84 10.02 0.03 -0.00 0.03 5652
0.28 -0.02 0.91 -0.84 9.92 0.02 -0.00 0.03 5658
0.30 -0.01 0.91 -0.87 9.94 0.03 -0.00 0.03 5664
0.29 -0.03 0.91 -0.84 9.98 0.03 -0.00 0.03 5670
0.30 -0.03 1.08 -0.79 10.28 0.03 0.00 0.03 5677
0.30 -0.03 0.90 -0.84 9.98 0.03 0.01 0.03 5683
0.32 -0.03 0.95 -0.83 9.96 0.04 0.02 0.03 5690
0.33 -0.02 0.93 -0.78 9.90 0.05 0.03 0.03 5696
0.35 -0.03 0.87 -0.80 10.08 0.05 0.03 0.04 5702
0.38 -0.02 0.94 -0.86 10.06 0.06 0.03 0.04 5708
0.40 -0.03 0.90 -0.88 10.00 0.08 0.02 0.04 5714
0.43 -0.04 0.92 -0.86 10.09 0.09 0.02 0.04 5721
0.45 -0.01 0.81 -0.67 10.29 0.12 0.02 0.04 5728
0.45 -0.03 1.06 -0.97 10.03 0.15 0.03 0.03 5734
0.47 -0.04 0.80 -0.84 10.27 0.18 0.04 0.03 5740
0.51 -0.02 1.10 -1.06 10.03 0.22 0.06 0.03 5746
0.54 -0.04 1.02 -1.01 10.22 0.28 0.09 0.03 5752
0.57 -0.04 0.95 -0.92 10.41 0.35 0.11 0.03 5760
0.59 -0.03 1.15 -1.03 10.27 0.44 0.13 0.01 5766
0.64 -0.04 1.15 -1.08 10.41 0.54 0.14 -0.00 5772
0.67 -0.04 1.13 -1.14 10.71 0.69 0.16 -0.02 5778
0.70 -0.03 1.19 -1.15 10.98 0.84 0.17 -0.04 5784
0.71 -0.04 1.26 -1.34 11.00 1.00 0.19 -0.07 5791
0.72 -0.04 1.30 -1.36 11.10 1.16 0.21 -0.09 5797
0.74 -0.04 1.28 -1.41 11.24 1.29 0.24 -0.11 5804
0.72 -0.04 2.45 -1.49 11.94 1.40 0.24 -0.13 5810
0.70 -0.03 1.21 -1.65 11.35 1.51 0.27 -0.13 5817
0.72 -0.04 1.20 -1.68 11.49 1.63 0.31 -0.13 5823
0.75 -0.05 1.27 -2.40 11.77 1.75 0.37 -0.14 5829
0.73 -0.03 1.32 -1.94 12.26 1.90 0.42 -0.14 5835
0.70 -0.04 1.22 -2.00 12.42 2.08 0.44 -0.15 5841
0.72 -0.04 1.22 -2.20 12.22 2.27 0.49 -0.15 5849
0.65 -0.04 0.99 -2.30 11.94 2.43 0.58 -0.14 5855
0.63 -0.05 0.86 -2.41 12.15 2.60 0.72 -0.11 5861
0.55 -0.03 0.75 -2.55 12.13 2.76 0.88 -0.08 5867
0.53 -0.03 1.15 -2.93 12.41 2.91 1.10 -0.05 5874
0.44 -0.03 0.93 -3.18 12.43 3.07 1.37 -0.01 5880
0.31 -0.01 0.76 -3.31 12.55 3.21 1.60 0.04 5886
0.26 -0.02 0.57 -3.81 13.28 3.34 1.82 0.12 5893
0.14 -0.01 0.85 -4.36 14.15 3.54 2.09 0.21 5899
0.10 0.00 0.86 -4.38 14.13 3.68 2.27 0.30 5906
0.10 -0.01 0.90 -5.35 13.23 3.72 2.42 0.43 5912
0.08 -0.01 1.23 -5.95 16.04 3.68 2.33 0.53 5918
0.08 -0.00 2.36 -6.65 18.43 3.81 2.45 0.57 5924
0.09 -0.01 2.81 -7.10 20.41 4.05 2.60 0.59 5931
0.08 -0.01 2.96 -7.52 21.16 4.20 2.75 0.62 5937
0.07 0.00 3.01 -8.11 21.50 4.27 2.82 0.67 5944
0.06 -0.01 3.76 -8.42 22.05 4.28 2.87 0.75 5950
0.04 -0.00 4.46 -8.45 22.78 4.28 3.05 0.84 5956
0.05 -0.01 7.28 -8.08 22.17 4.28 3.51 0.92 5962
0.07 -0.01 9.24 -7.50 21.26 4.22 4.23 0.91 5968
0.08 -0.01 9.79 -6.88 21.53 4.18 4.28 0.77 5975
0.05 -0.00 7.14 -5.15 22.30 4.09 4.28 0.57 5982
0.08 -0.01 5.47 -2.71 22.91 3.97 4.28 0.30 5988
0.04 -0.00 1.22 -0.53 22.22 3.77 4.28 -0.02 5994
0.03 0.01 -1.78 1.71 20.08 3.49 4.28 -0.35 6000
0.04 0.00 -5.19 4.46 16.77 3.19 4.28 -0.81 6006
0.03 0.00 -5.86 5.65 14.40 2.88 4.28 -1.26 6012
0.04 0.01 -17.21 7.84 3.91 2.70 4.28 -1.98 6020
0.07 -0.01 -17.25 6.87 17.65 2.25 2.06 -2.78 6026
0.06 -0.01 -14.77 7.63 13.22 0.44 -0.17 -3.12 6032
0.05 0.00 -9.83 9.24 10.38 -1.18 -2.10 -3.20 6038
0.05 -0.00 -4.18 6.96 16.00 -2.12 -3.57 -3.16 6045
0.04 -0.00 -2.00 3.02 16.32 -2.71 -4.27 -3.22 6051
0.03 0.00 -0.28 1.10 15.40 -3.02 -4.28 -3.44 6057
0.04 -0.00 1.88 0.23 14.40 -3.09 -4.28 -3.74 6064
0.05 -0.00 3.37 -0.45 12.99 -3.06 -4.23 -4.02 6070
0.04 -0.00 4.15 -0.73 11.21 -2.98 -3.81 -4.27 6076
0.04 -0.00 4.51 -0.39 9.98 -2.90 -3.34 -4.28 6083
0.03 -0.00 4.57 0.50 9.40 -2.87 -2.98 -4.28 6089
0.03 -0.00 4.66 1.24 9.38 -2.91 -2.77 -4.28 6095
0.04 -0.00 4.91 1.58 9.54 -3.01 -2.67 -4.28 6102
0.05 -0.00 5.46 1.37 9.36 -3.14 -2.63 -4.28 6108
0.05 -0.01 5.77 1.32 8.74 -3.33 -2.59 -4.24 6114
0.04 -0.00 5.93 1.39 10.76 -3.54 -2.45 -3.98 6120
0.06 -0.01 6.38 0.90 11.44 -3.78 -2.49 -3.65 6126
0.05 -0.01 6.42 -0.11 10.79 -3.93 -2.67 -3.27 6133
0.04 -0.00 7.49 -1.11 10.34 -4.06 -2.88 -2.74 6139
0.05 -0.01 8.60 -0.80 9.56 -4.17 -3.20 -2.25 6146
0.04 -0.00 9.31 -1.03 9.67 -4.23 -3.47 -1.84 6152
0.04 -0.00 10.00 -1.69 9.32 -4.26 -3.57 -1.48 6158
0.04 -0.00 10.79 -2.36 8.89 -4.27 -3.52 -1.17 6164
0.03 -0.00 11.83 -3.16 8.65 -4.26 -3.33 -0.90 6171
0.04 -0.00 12.44 -3.96 8.08 -4.26 -3.01 -0.69 6177
0.05 0.01 13.29 -4.77 7.68 -4.23 -2.68 -0.53 6183
0.03 -0.00 13.59 -5.08 6.61 -4.18 -2.19 -0.38 6190
0.05 -0.00 14.09 -5.41 6.50 -4.06 -1.61 -0.21 6196
0.05 0.00 14.18 -5.66 6.52 -3.87 -1.06 -0.09 6203
0.05 -0.00 13.98 -6.12 6.69 -3.64 -0.55 0.09 6209
0.03 -0.00 13.62 -6.69 6.85 -3.41 -0.07 0.28 6215
0.03 0.00 13.23 -7.39 7.21 -3.20 0.30 0.49 6221
0.04 -0.00 13.02 -8.09 8.29 -3.00 0.59 0.70 6227
0.04 -0.00 12.71 -8.87 8.97 -2.87 0.84 0.90 6234
0.04 -0.00 12.45 -9.59 9.53 -2.72 1.07 1.10 6240
0.06 -0.01 12.40 -10.13 9.78 -2.60 1.29 1.29 6247
0.05 -0.00 12.21 -10.45 10.12 -2.49 1.45 1.46 6253
0.04 -0.00 12.09 -10.62 10.48 -2.39 1.64 1.62 6259
0.04 -0.00 11.99 -10.80 10.77 -2.29 1.86 1.78 6266
0.02 -0.00 11.81 -11.00 11.03 -2.20 2.09 1.93 6273
0.05 -0.01 11.39 -11.28 11.22 -2.12 2.31 2.07 6279
0.05 -0.00 10.96 -11.53 11.41 -2.05 2.48 2.17 6285
0.04 0.00 10.40 -11.76 11.39 -1.97 2.59 2.25 6292
0.04 -0.00 9.84 -12.07 11.32 -1.89 2.63 2.29 6298
0.03 -0.00 9.43 -12.25 11.19 -1.79 2.63 2.29 6304
0.04 -0.00 8.95 -12.33 11.02 -1.69 2.59 2.21 6310
0.03 -0.00 8.51 -12.39 11.01 -1.58 2.54 2.12 6317
0.02 -0.00 8.13 -12.54 10.99 -1.45 2.52 2.02 6324
0.03 -0.00 7.71 -12.66 11.22 -1.33 2.55 1.86 6330
0.02 -0.00 7.24 -12.79 11.50 -1.21 2.62 1.67 6336
0.04 -0.00 6.57 -12.88 11.78 -1.09 2.72 1.48 6342
0.03 -0.00 6.03 -13.07 12.30 -0.99 2.82 1.29 6349
0.02 -0.00 5.71 -13.03 12.92 -0.92 2.91 1.11 6355
0.02 -0.00 5.25 -13.03 13.32 -0.90 3.00 0.97 6362
0.03 -0.00 4.70 -12.95 13.55 -0.90 3.07 0.86 6368
0.01 -0.00 4.17 -12.72 13.62 -0.92 3.12 0.79 6374
0.03 -0.00 3.68 -12.43 13.74 -0.97 3.13 0.74 6381
0.03 -0.00 3.45 -12.29 13.82 -1.04 3.12 0.72 6387
0.02 -0.00 3.06 -12.38 13.69 -1.11 3.08 0.72 6393
0.03 -0.00 2.68 -12.55 13.57 -1.18 3.03 0.71 6400
0.02 -0.00 2.17 -12.68 13.35 -1.25 2.91 0.68 6406
0.02 -0.00 1.72 -12.78 13.02 -1.31 2.74 0.63 6413
0.03 -0.00 1.51 -12.81 12.74 -1.36 2.56 0.56 6419
0.03 -0.00 1.41 -12.83 12.55 -1.39 2.39 0.49 6425
0.03 0.00 1.30 -12.88 12.31 -1.41 2.27 0.39 6431
0.03 -0.00 1.00 -12.82 11.99 -1.40 2.24 0.30 6437
0.03 -0.00 0.26 -12.72 11.82 -1.35 2.36 0.24 6445
0.04 -0.00 -0.69 -12.81 11.53 -1.26 2.58 0.26 6451
0.02 -0.00 -2.00 -12.96 11.42 -1.12 2.74 0.32 6457
0.02 -0.00 -3.67 -13.22 11.45 -0.99 2.80 0.37 6463
0.04 -0.00 -5.48 -13.38 11.48 -0.84 2.77 0.43 6470
0.03 -0.00 -7.36 -13.50 11.30 -0.68 2.73 0.50 6476
0.03 -0.00 -8.85 -13.87 11.22 -0.52 2.59 0.57 6482
0.03 -0.00 -10.10 -14.25 11.32 -0.36 2.19 0.60 6489
0.03 -0.00 -11.25 -14.41 11.06 -0.24 1.55 0.61 6495
0.03 -0.00 -11.56 -14.39 10.27 -0.14 0.75 0.59 6502
0.03 -0.00 -11.27 -14.66 9.82 -0.05 -0.18 0.55 6508
0.03 -0.00 -39.41 -19.58 33.03 1.26 -4.08 1.05 6514
0.04 -0.00 -4.01 -6.89 10.81 1.42 -4.28 1.73 6520
0.03 -0.00 2.26 -1.13 1.69 1.02 -4.28 1.48 6528
0.04 -0.00 5.17 2.72 8.20 0.90 -4.28 1.32 6534
0.05 -0.00 5.86 1.44 12.78 0.62 -4.28 1.48 6540
0.02 -0.00 4.90 4.73 14.58 0.47 -4.28 1.81 6546
0.01 -0.00 2.71 4.09 13.59 0.55 -4.28 2.17 6552
0.04 0.03 1.28 2.62 11.62 0.71 -4.02 2.36 6558
0.04 0.04 -1.78 3.58 11.73 1.07 -2.86 2.36 6565
0.02 0.19 -7.36 3.03 12.76 1.48 -1.75 2.21 6572
0.03 0.36 -11.92 2.73 10.73 1.86 -1.19 1.85 6578
0.01 0.43 -13.53 1.46 11.78 2.18 -1.11 1.17 6584
0.02 0.56 -11.90 0.15 13.68 2.42 -1.10 0.37 6591
0.01 0.62 -6.95 0.05 14.82 2.50 -1.11 -0.38 6597
-0.00 0.59 -0.72 -0.69 16.88 2.45 -1.20 -0.89 6603
0.02 0.58 6.48 -1.95 25.41 1.99 -1.83 -0.96 6609
0.02 0.66 8.19 -5.14 17.39 0.94 -1.71 -0.36 6616
0.01 0.64 2.76 -2.87 14.78 0.55 -0.64 0.20 6623
0.01 0.60 1.69 -2.74 16.11 0.22 -0.03 0.24 6629
0.00 0.60 2.32 -1.38 8.67 0.23 -0.11 0.30 6635
0.02 0.62 1.94 -0.38 9.32 0.38 -0.46 0.32 6641
0.04 0.57 -0.23 0.64 10.63 0.43 -0.71 0.17 6647
0.03 0.61 1.03 -0.07 10.45 0.36 -0.82 -0.02 6654
0.02 0.65 1.72 -0.69 10.43 0.30 -0.73 -0.02 6661
0.03 0.67 1.48 -1.12 10.07 0.24 -0.60 0.02 6667
0.02 0.65 1.24 -1.03 11.01 0.22 -0.56 0.03 6673
0.02 0.71 1.10 -0.82 9.99 0.20 -0.48 0.03 6679
0.02 0.70 1.12 -0.75 10.49 0.17 -0.40 0.02 6686
0.03 0.68 1.16 -1.01 10.34 0.13 -0.31 0.03 6692
0.03 0.71 1.11 -0.87 10.40 0.11 -0.22 0.04 6699
0.03 0.67 1.01 -0.85 10.29 0.10 -0.15 0.06 6705
0.03 0.66 1.04 -0.93 10.17 0.09 -0.08 0.07 6711
0.02 0.61 1.10 -0.97 10.20 0.07 -0.00 0.08 6718
0.04 0.57 1.03 -1.04 10.12 0.06 0.04 0.08 6724
0.02 0.54 1.25 -0.75 9.98 0.05 0.06 0.08 6730
0.03 0.51 1.37 -0.93 10.06 0.04 0.07 0.08 6736
0.03 0.49 1.37 -0.66 10.08 0.04 0.06 0.03 6743
0.04 0.40 1.40 -0.86 9.90 0.04 0.05 0.05 6749
0.03 0.42 1.31 -0.90 9.89 0.03 0.05 0.05 6756
0.05 0.38 1.26 -0.89 9.91 0.02 0.04 0.04 6762
0.03 0.31 1.40 -0.79 9.94 0.02 0.04 0.03 6768
0.02 0.29 1.32 -0.84 9.97 0.02 0.05 0.03 6774
0.03 0.26 1.25 -0.87 10.00 0.02 0.05 0.03 6780
0.04 0.22 0.81 -0.96 10.20 0.02 0.04 0.03 6787
0.04 0.19 1.31 -0.91 9.90 0.03 0.05 0.03 6793
0.03 0.17 1.14 -0.85 9.92 0.02 0.05 0.04 6799
0.05 0.11 1.34 -0.93 9.99 0.03 0.05 0.04 6806
0.04 0.09 1.37 -0.95 9.98 0.03 0.05 0.04 6812
0.03 0.06 1.22 -0.96 10.02 0.02 0.06 0.03 6818
0.04 0.06 1.39 -0.91 9.94 0.02 0.06 0.03 6824
0.04 0.02 1.41 -0.90 9.93 0.01 0.06 0.02 6831
0.03 0.01 1.43 -0.89 9.97 0.01 0.06 0.02 6837
0.04 0.02 1.44 -0.91 9.97 0.01 0.06 0.01 6843
0.06 0.03 1.40 -0.88 9.89 0.01 0.05 0.01 6850
0.04 0.01 1.45 -0.89 9.92 0.01 0.04 0.00 6856
0.04 -0.00 1.42 -0.89 9.90 0.01 0.02 -0.00 6862
0.03 -0.00 1.53 -0.93 9.77 0.01 0.01 -0.01 6868
0.04 0.01 1.49 -0.83 9.89 0.01 -0.01 -0.02 6875
0.04 -0.00 1.40 -0.87 9.85 0.02 -0.03 -0.02 6881
0.05 -0.00 1.48 -0.91 9.88 0.02 -0.05 -0.03 6887
0.04 -0.00 1.47 -0.96 9.85 0.01 -0.06 -0.03 6893
0.05 -0.01 1.56 -1.03 9.89 0.01 -0.07 -0.04 6899
0.06 -0.01 1.51 -0.92 9.91 0.01 -0.08 -0.04 6905
0.05 -0.00 1.39 -0.89 9.99 0.01 -0.09 -0.04 6912
0.05 -0.00 1.36 -0.97 10.01 0.01 -0.10 -0.04 6918
0.05 -0.00 1.37 -0.79 9.85 0.01 -0.10 -0.04 6925
0.06 -0.01 1.33 -0.89 9.94 0.01 -0.10 -0.04 6931
0.07 0.00 1.25 -0.98 10.04 0.01 -0.09 -0.03 6937
0.04 0.07 1.33 -0.97 9.88 0.01 -0.08 -0.03 6943
0.05 -0.00 0.90 -0.91 10.10 0.01 -0.08 -0.02 6949
0.05 -0.01 1.44 -1.05 9.93 0.02 -0.07 -0.02 6956
0.07 -0.01 1.35 -0.97 9.98 0.02 -0.07 -0.01 6962
0.06 -0.01 1.37 -1.03 10.02 0.02 -0.06 -0.01 6968
0.06 -0.01 1.37 -0.93 10.18 0.03 -0.06 -0.00 6974
0.05 -0.01 1.31 -0.98 9.98 0.03 -0.06 0.00 6981
0.03 -0.00 1.26 -0.97 9.97 0.04 -0.06 0.01 6987
0.02 -0.00 1.27 -1.01 9.97 0.04 -0.06 0.01 6993
0.05 -0.01 1.31 -1.07 10.03 0.04 -0.06 0.01 7000
0.07 -0.01 1.35 -0.99 9.94 0.04 -0.06 0.01 7006
0.06 -0.01 1.38 -1.02 9.98 0.04 -0.07 0.01 7012
0.06 -0.01 1.38 -0.97 9.91 0.04 -0.07 0.01 7018
0.05 -0.01 1.37 -1.03 9.92 0.04 -0.07 0.00 7024
0.06 -0.00 1.40 -0.98 9.91 0.04 -0.07 -0.00 7030
0.07 -0.01 1.37 -1.00 9.97 0.04 -0.08 -0.01 7036
0.08 -0.01 1.44 -1.01 9.93 0.03 -0.08 -0.02 7043
0.07 -0.01 1.44 -1.03 9.95 0.04 -0.09 -0.02 7050
0.07 -0.01 1.44 -1.02 9.94 0.04 -0.10 -0.03 7056
0.07 -0.01 1.37 -1.00 9.97 0.04 -0.10 -0.04 7062
0.07 -0.01 1.38 -1.03 9.96 0.04 -0.11 -0.04 7068
0.07 -0.01 1.41 -1.12 9.98 0.04 -0.12 -0.04 7074
0.11 -0.01 1.33 -1.02 10.06 0.04 -0.12 -0.05 7080
0.12 -0.01 1.37 -1.04 9.98 0.05 -0.14 -0.05 7087
0.13 -0.01 1.40 -1.07 9.97 0.05 -0.14 -0.05 7093
0.13 -0.01 1.31 -1.11 9.87 0.05 -0.14 -0.06 7099
0.17 -0.01 1.39 -1.11 9.92 0.05 -0.13 -0.06 7106
0.19 -0.02 1.28 -1.14 10.06 0.05 -0.10 -0.07 7112
0.21 -0.02 1.26 -1.14 10.02 0.06 -0.09 -0.06 7118
0.26 -0.02 1.28 -1.14 10.05 0.06 -0.06 -0.06 7124
0.29 -0.02 1.29 -1.14 10.04 0.08 -0.04 -0.06 7131
0.24 -0.02 1.20 -1.12 10.04 0.11 -0.03 -0.05 7137
0.25 -0.02 1.25 -1.06 10.01 0.15 -0.01 -0.05 7144
0.29 -0.02 1.25 -1.15 10.14 0.19 0.01 -0.04 7150
0.29 -0.03 1.19 -1.17 10.17 0.26 0.04 -0.04 7156
0.33 -0.02 1.31 -1.19 10.21 0.29 0.06 -0.03 7162
0.34 -0.02 1.31 -1.19 10.18 0.37 0.09 -0.04 7169
0.36 -0.03 1.35 -1.27 10.33 0.46 0.12 -0.05 7176
0.36 -0.02 1.40 -1.23 10.47 0.56 0.14 -0.05 7182
0.38 -0.02 1.48 -1.36 10.70 0.69 0.18 -0.06 7188
0.39 -0.03 1.47 -1.48 10.84 0.83 0.22 -0.08 7194
0.45 -0.02 1.46 -1.43 10.96 0.98 0.27 -0.09 7200
0.47 -0.03 1.46 -1.24 10.79 1.11 0.30 -0.10 7207
0.46 -0.02 1.50 -1.64 11.06 1.22 0.31 -0.11 7214
0.48 -0.03 1.60 -1.75 11.61 1.33 0.33 -0.13 7220
0.51 -0.03 1.70 -1.78 11.21 1.43 0.34 -0.14 7226
0.50 -0.02 1.48 -1.91 11.54 1.55 0.39 -0.15 7233
0.51 -0.03 1.71 -2.01 11.26 1.65 0.42 -0.16 7239
0.50 -0.04 1.59 -2.13 11.66 1.76 0.46 -0.17 7245
0.52 -0.03 1.65 -2.32 11.21 1.86 0.51 -0.18 7251
0.49 -0.03 1.70 -2.44 11.18 1.95 0.59 -0.17 7259
0.47 -0.03 1.60 -2.46 10.99 2.02 0.73 -0.17 7265
0.42 -0.02 1.42 -2.74 10.98 2.10 0.91 -0.15 7271
0.31 -0.03 1.21 -2.93 11.94 2.22 1.13 -0.12 7277
0.26 -0.01 0.78 -3.04 12.68 2.38 1.36 -0.07 7283
0.22 -0.02 1.46 -3.41 13.14 2.59 1.64 -0.01 7290
0.13 -0.01 1.73 -3.54 13.13 2.77 1.95 0.01 7297
0.14 -0.00 1.70 -3.77 13.72 2.97 2.21 0.05 7303
0.11 -0.01 0.19 -4.10 14.10 3.16 2.42 0.13 7309
0.08 -0.01 0.70 -5.05 15.01 3.30 2.53 0.29 7315
0.12 -0.01 1.48 -5.18 17.38 3.50 2.63 0.40 7322
0.09 -0.01 2.66 -5.49 19.60 3.80 2.74 0.49 7328
0.12 -0.01 3.82 -5.76 20.21 4.10 2.91 0.50 7334
0.10 -0.00 4.01 -6.17 21.37 4.27 2.97 0.47 7341
0.09 -0.01 4.05 -6.86 21.90 4.28 2.83 0.46 7347
0.08 -0.01 4.19 -7.88 22.25 4.28 2.74 0.53 7353
0.08 -0.01 4.68 -8.48 23.16 4.28 2.77 0.61 7360
0.10 -0.01 6.33 -8.48 23.85 4.28 2.94 0.69 7366
0.07 -0.01 8.94 -8.15 24.40 4.28 3.45 0.73 7372
0.05 -0.00 9.04 -6.75 23.96 4.28 4.08 0.64 7378
0.05 -0.01 8.77 -4.97 23.73 4.28 4.28 0.45 7385
0.04 -0.00 5.88 -3.54 24.52 4.26 4.28 0.28 7391
0.03 -0.00 3.44 -1.18 23.76 4.24 4.28 0.05 7397
0.04 0.00 0.58 1.21 23.91 4.19 4.28 -0.21 7404
0.03 -0.00 -1.99 4.57 21.88 4.05 4.28 -0.57 7410
0.03 0.01 -4.30 7.01 19.15 3.72 4.28 -0.96 7416
0.04 -0.00 -10.81 6.48 15.54 3.27 4.28 -1.43 7422
0.03 -0.00 -11.25 7.50 8.08 3.14 3.83 -2.12 7429
0.03 -0.00 -14.39 8.39 15.45 2.04 1.66 -2.38 7436
0.05 -0.00 -14.04 12.29 6.67 -0.17 -0.41 -2.51 7442
0.05 -0.01 -8.16 10.80 12.83 -1.82 -2.14 -2.58 7448
0.03 -0.00 -5.92 5.13 15.74 -2.78 -3.28 -2.68 7454
0.05 -0.01 -4.53 1.07 13.05 -3.28 -3.81 -2.91 7460
0.02 -0.00 -2.74 -0.15 11.49 -3.39 -4.10 -3.24 7468
0.04 -0.00 -0.92 -1.01 10.65 -3.31 -3.96 -3.53 7474
0.04 -0.00 0.44 -1.86 9.43 -3.13 -3.61 -3.91 7480
0.04 -0.00 1.05 -2.12 8.21 -2.95 -3.25 -4.25 7486
0.03 -0.00 1.43 -1.70 7.73 -2.83 -2.92 -4.28 7492
0.04 0.02 1.66 -0.77 7.58 -2.78 -2.69 -4.28 7498
0.05 -0.01 1.65 0.17 7.84 -2.83 -2.60 -4.28 7504
0.01 -0.00 1.93 0.20 8.51 -2.94 -2.52 -4.28 7512
0.02 -0.00 2.70 0.55 9.24 -3.13 -2.58 -4.28 7518
0.02 0.00 3.16 -0.27 9.27 -3.36 -2.64 -4.28 7524
0.04 -0.00 3.69 -0.32 10.35 -3.56 -2.53 -4.25 7530
0.02 -0.00 4.18 -0.97 11.57 -3.72 -2.41 -3.94 7536
0.04 0.00 4.30 -1.73 11.44 -3.83 -2.43 -3.54 7542
0.05 -0.01 4.70 -2.20 11.04 -3.91 -2.55 -3.05 7549
0.02 -0.00 5.54 -1.95 10.02 -3.99 -2.78 -2.57 7556
0.03 -0.00 6.23 -1.78 10.15 -4.08 -3.01 -2.13 7562
0.06 -0.01 6.83 -2.29 9.91 -4.15 -3.19 -1.73 7568
0.05 -0.00 7.95 -3.19 10.18 -4.19 -3.25 -1.34 7574
0.03 -0.00 8.39 -3.82 10.16 -4.20 -3.19 -0.97 7580
0.04 -0.00 8.99 -4.45 9.48 -4.19 -3.08 -0.62 7587
0.04 -0.00 9.86 -4.80 9.23 -4.15 -2.88 -0.39 7593
0.04 -0.00 10.41 -5.25 8.49 -4.09 -2.61 -0.12 7600
0.05 -0.00 10.81 -5.69 8.10 -4.00 -2.33 0.11 7606
0.04 -0.00 11.39 -6.05 7.81 -3.84 -2.04 0.30 7612
0.03 -0.00 11.91 -6.62 7.71 -3.70 -1.73 0.47 7618
0.04 -0.00 12.23 -7.31 7.96 -3.51 -1.41 0.61 7624
0.05 -0.00 13.76 -7.30 8.60 -3.32 -1.10 0.73 7631
0.05 -0.00 12.71 -8.35 8.52 -3.15 -0.78 0.85 7638
0.05 -0.00 12.74 -8.99 8.87 -2.98 -0.44 0.95 7644
0.04 -0.00 12.68 -9.51 9.62 -2.84 -0.14 1.05 7650
0.04 -0.00 12.52 -10.06 9.42 -2.73 0.11 1.15 7656
0.04 0.01 12.34 -10.53 9.50 -2.61 0.31 1.26 7663
0.03 -0.00 12.30 -10.72 9.31 -2.50 0.48 1.37 7669
0.04 -0.00 12.27 -10.73 9.31 -2.39 0.65 1.48 7675
0.05 -0.01 12.23 -10.69 9.21 -2.28 0.84 1.58 7682
0.04 -0.00 12.01 -10.72 9.34 -2.17 1.03 1.66 7689
0.03 -0.00 11.67 -10.82 9.46 -2.06 1.23 1.71 7695
0.03 -0.00 11.36 -10.93 9.48 -1.95 1.41 1.73 7701
0.02 -0.00 10.86 -10.98 9.49 -1.82 1.57 1.71 7707
0.03 -0.00 10.37 -11.00 9.59 -1.69 1.67 1.65 7713
0.02 -0.00 9.98 -10.97 9.61 -1.60 1.74 1.55 7720
0.03 -0.00 9.61 -10.85 9.70 -1.49 1.80 1.42 7727
0.03 0.01 9.30 -10.76 9.83 -1.38 1.81 1.26 7733
0.04 -0.00 9.02 -10.74 10.10 -1.29 1.88 1.09 7739
0.02 -0.00 8.69 -10.66 10.47 -1.21 2.00 0.91 7745
0.03 -0.00 8.46 -10.52 10.84 -1.16 2.17 0.75 7752
0.03 -0.00 8.22 -10.27 11.33 -1.13 2.39 0.64 7758
0.02 -0.00 8.02 -10.00 12.00 -1.12 2.65 0.52 7764
0.03 -0.00 7.57 -9.83 12.59 -1.15 2.98 0.42 7771
0.03 -0.00 6.71 -9.81 13.00 -1.22 3.32 0.35 7777
0.02 -0.00 5.74 -9.80 13.30 -1.29 3.62 0.32 7783
0.03 -0.00 4.65 -9.82 13.63 -1.35 3.83 0.31 7790
0.03 -0.00 3.49 -9.87 13.72 -1.42 3.93 0.33 7796
0.02 -0.00 2.25 -9.83 13.80 -1.49 3.91 0.35 7802
0.03 -0.00 0.66 -10.02 13.68 -1.52 3.85 0.38 7809
0.03 -0.00 0.26 -10.19 13.45 -1.52 3.71 0.40 7815
0.02 -0.00 -0.48 -10.48 13.31 -1.50 3.57 0.41 7822
0.03 -0.00 -1.01 -10.97 13.13 -1.47 3.41 0.38 7828
0.03 -0.00 -1.40 -11.44 13.11 -1.42 3.22 0.32 7834
0.02 -0.00 -1.49 -11.79 12.98 -1.36 3.03 0.24 7840
0.04 -0.00 -1.43 -12.05 12.95 -1.30 2.86 0.12 7846
0.03 -0.00 -1.31 -12.20 12.96 -1.24 2.71 -0.01 7854
0.03 -0.00 -1.04 -12.21 13.30 -1.18 2.59 -0.16 7860
0.06 -0.01 -0.81 -12.22 13.70 -1.14 2.51 -0.30 7866
0.04 -0.00 -0.98 -12.08 13.90 -1.14 2.48 -0.41 7872
0.04 -0.00 -1.65 -11.72 13.80 -1.16 2.51 -0.46 7878
0.04 -0.00 -2.67 -11.56 13.40 -1.16 2.58 -0.43 7885
0.03 -0.00 -3.85 -11.63 13.03 -1.13 2.63 -0.30 7891
0.05 -0.00 -5.08 -11.89 12.59 -1.04 2.53 -0.14 7898
0.05 -0.00 -6.35 -12.26 12.07 -0.99 2.25 0.02 7904
0.03 -0.00 -7.39 -12.70 11.14 -0.88 1.84 0.17 7911
0.05 -0.00 -8.00 -13.17 10.31 -0.75 1.38 0.29 7917
0.04 -0.00 -8.11 -13.65 9.63 -0.61 0.90 0.39 7923
0.03 -0.00 -7.94 -14.06 8.95 -0.44 0.51 0.46 7929
0.05 0.00 -15.31 -17.50 15.26 -0.06 -0.36 0.69 7936
0.04 -0.00 -27.34 -14.63 16.83 1.16 -3.33 1.45 7943
0.04 -0.00 -5.54 -7.13 6.61 1.12 -4.28 1.76 7949
0.06 -0.01 1.53 -1.28 5.14 0.86 -4.28 1.52 7955
0.05 -0.01 4.62 1.26 10.40 0.84 -4.28 1.30 7961
0.02 -0.00 4.74 2.37 12.63 0.68 -4.28 1.38 7967
0.04 0.00 4.05 6.02 14.40 0.60 -4.27 1.65 7973
0.04 -0.00 1.87 5.67 14.42 0.59 -3.88 1.88 7981
0.04 -0.00 -0.36 3.00 11.32 0.58 -3.30 1.90 7987
0.04 0.02 -1.89 2.17 10.87 0.67 -2.83 1.77 7993
0.05 0.05 -3.64 2.94 12.88 0.89 -2.22 1.56 7999
0.03 0.12 -5.85 2.46 11.90 1.17 -1.63 1.33 8005
0.03 0.21 -8.89 2.54 9.84 1.42 -1.27 0.95 8012
0.02 0.34 -10.19 1.41 10.13 1.68 -1.21 0.37 8018
0.02 0.39 -7.22 1.04 11.23 1.85 -1.25 -0.23 8025
0.02 0.43 -2.51 -0.25 11.09 1.99 -1.24 -0.64 8031
0.02 0.44 2.58 -1.12 14.49 2.14 -1.33 -0.81 8037
0.02 0.48 6.93 -2.40 24.46 1.81 -2.21 -0.67 8044
0.02 0.51 5.44 -4.14 14.00 1.08 -2.01 -0.11 8050
-0.00 0.49 1.47 -2.26 17.23 0.78 -1.30 0.22 8056
0.02 0.55 1.06 -2.24 11.68 0.40 -0.69 0.20 8062
0.02 0.54 1.29 -1.39 10.32 0.37 -0.65 0.25 8070
0.01 0.58 1.43 -0.50 10.20 0.36 -0.74 0.27 8076
0.01 0.54 -0.19 0.39 11.33 0.33 -0.88 0.10 8082
0.03 0.52 0.88 -0.61 10.85 0.25 -0.77 0.00 8088
0.01 0.54 1.27 -0.97 10.18 0.15 -0.54 0.04 8094
0.03 0.61 0.94 -0.87 10.27 0.10 -0.42 0.05 8101
0.02 0.59 0.66 -0.84 10.56 0.05 -0.27 0.04 8108
0.03 0.64 0.84 -0.87 10.24 0.01 -0.18 0.03 8114
0.03 0.64 0.87 -0.92 10.20 0.01 -0.15 0.03 8120
0.01 0.65 0.86 -0.92 10.16 0.01 -0.15 0.04 8126
0.02 0.64 0.83 -0.81 10.19 0.02 -0.13 0.05 8133
0.03 0.60 0.80 -0.80 10.18 0.03 -0.12 0.06 8139
0.03 0.58 0.83 -0.78 10.05 0.04 -0.12 0.07 8145
0.03 0.57 0.92 -0.77 9.99 0.04 -0.11 0.07 8152
0.04 0.52 0.88 -0.81 10.12 0.04 -0.11 0.07 8158
0.04 0.47 0.99 -0.74 9.93 0.04 -0.09 0.07 8164
0.04 0.45 0.96 -0.79 10.12 0.03 -0.10 0.06 8171
0.05 0.43 0.97 -0.77 9.93 0.02 -0.10 0.06 8177
0.06 0.37 0.93 -0.79 10.00 0.02 -0.10 0.05 8183
0.08 0.30 0.94 -0.76 9.98 0.02 -0.10 0.04 8189
0.10 0.28 0.93 -0.80 9.93 0.01 -0.10 0.03 8196
0.08 0.23 0.94 -0.83 9.98 0.01 -0.10 0.03 8202
0.07 0.19 0.97 -0.84 10.10 0.01 -0.11 0.03 8209
0.08 0.18 0.86 -0.81 10.00 0.01 -0.10 0.03 8215
0.10 0.13 0.88 -0.77 10.00 0.01 -0.09 0.03 8221
0.11 0.08 0.84 -0.79 10.06 0.02 -0.09 0.04 8227
0.11 0.07 0.86 -0.78 10.09 0.02 -0.08 0.04 8233
0.12 0.06 0.85 -0.81 10.00 0.03 -0.07 0.04 8240
0.14 0.04 0.91 -0.79 10.07 0.03 -0.06 0.04 8247
0.15 0.02 0.89 -0.80 10.02 0.03 -0.06 0.05 8253
0.16 0.01 0.91 -0.83 9.93 0.03 -0.06 0.05 8259
0.17 -0.02 0.88 -0.80 10.01 0.04 -0.05 0.04 8265
0.17 -0.01 0.91 -0.85 9.98 0.03 -0.04 0.04 8271
0.18 0.00 0.85 -0.80 10.00 0.03 -0.03 0.04 8278
0.17 -0.02 0.85 -0.83 10.00 0.04 -0.02 0.05 8284
0.17 -0.02 0.85 -0.82 10.00 0.04 -0.01 0.05 8291
0.17 -0.01 0.86 -0.85 9.99 0.04 -0.00 0.05 8297
0.19 -0.02 0.85 -0.81 10.01 0.04 0.01 0.05 8303
0.19 -0.02 0.88 -0.84 10.02 0.04 0.01 0.05 8309
0.18 -0.02 0.87 -0.85 9.88 0.04 0.02 0.05 8315
0.18 -0.01 0.90 -0.80 9.97 0.04 0.02 0.06 8322
0.20 -0.02 0.93 -0.84 9.99 0.04 0.03 0.06 8328
0.20 -0.01 0.92 -0.88 10.01 0.04 0.03 0.06 8334
0.20 -0.02 0.90 -0.88 9.96 0.04 0.04 0.07 8340
0.18 -0.00 0.93 -0.86 9.97 0.04 0.05 0.06 8347
0.20 -0.01 0.91 -0.89 9.93 0.04 0.06 0.07 8353
0.21 -0.02 0.93 -0.86 9.97 0.04 0.06 0.06 8359
0.20 -0.01 0.96 -0.89 9.96 0.04 0.06 0.06 8366
0.20 -0.01 0.97 -0.89 9.96 0.04 0.06 0.06 8372
0.21 -0.02 0.96 -0.83 9.99 0.04 0.06 0.06 8378
0.21 -0.02 1.02 -0.93 9.95 0.04 0.07 0.05 8384
0.22 -0.02 0.86 -0.93 10.02 0.04 0.08 0.05 8390
0.24 -0.01 0.99 -0.91 9.90 0.03 0.08 0.05 8397
0.22 0.02 0.95 -0.93 9.98 0.04 0.08 0.05 8403
0.24 -0.02 0.94 -0.96 10.01 0.03 0.09 0.05 8410
0.25 -0.01 1.03 -0.89 10.00 0.03 0.09 0.05 8416
0.25 -0.02 1.02 -0.92 10.04 0.03 0.09 0.05 8422
0.30 -0.03 0.76 -1.06 9.64 0.04 0.09 0.05 8428
0.26 -0.03 1.05 -0.94 9.92 0.05 0.09 0.05 8434
0.26 -0.02 1.07 -0.92 9.99 0.05 0.09 0.05 8440
0.27 -0.03 1.06 -0.91 10.00 0.06 0.09 0.04 8448
0.25 -0.02 1.11 -0.94 9.97 0.06 0.08 0.04 8454
0.22 -0.01 1.11 -0.95 9.98 0.06 0.08 0.04 8460
0.25 -0.02 1.15 -0.97 10.01 0.06 0.08 0.03 8466
0.28 -0.02 1.13 -0.96 9.98 0.08 0.08 0.03 8472
0.25 -0.02 1.15 -0.97 10.00 0.09 0.08 0.03 8478
0.27 -0.01 1.15 -0.94 9.96 0.10 0.08 0.03 8484
0.28 -0.02 1.11 -0.99 10.08 0.12 0.08 0.03 8492
0.25 -0.02 1.13 -1.01 10.09 0.14 0.08 0.02 8498
0.26 -0.01 1.15 -1.02 10.06 0.17 0.09 0.02 8504
0.25 -0.02 1.19 -1.04 9.98 0.19 0.10 0.02 8510
0.25 -0.02 1.14 -1.06 9.97 0.21 0.10 0.02 8516
0.26 -0.03 1.20 -1.11 9.98 0.22 0.10 0.02 8522
0.28 -0.02 1.22 -1.09 10.15 0.26 0.10 0.02 8529
0.30 -0.03 1.00 -1.12 10.28 0.25 0.10 0.02 8536
0.26 -0.03 1.28 -1.15 9.98 0.26 0.11 0.01 8542
0.26 -0.02 1.24 -1.14 10.10 0.28 0.10 0.01 8548
0.29 -0.03 1.26 -1.20 10.06 0.33 0.12 0.00 8554
0.28 -0.03 1.29 -1.24 10.21 0.36 0.12 -0.00 8560
0.30 -0.02 1.36 -1.24 10.22 0.40 0.12 -0.02 8566
0.30 -0.03 1.35 -1.28 10.20 0.44 0.13 -0.03 8573
0.33 -0.02 1.33 -1.33 10.17 0.48 0.12 -0.04 8580
0.32 -0.02 1.37 -1.33 10.35 0.52 0.13 -0.05 8586
0.33 -0.02 1.53 -1.45 9.97 0.55 0.13 -0.06 8592
0.32 -0.03 1.43 -1.45 10.23 0.59 0.13 -0.07 8598
0.34 -0.02 1.44 -1.55 10.18 0.61 0.14 -0.08 8605
0.37 -0.02 1.50 -1.55 10.32 0.67 0.15 -0.09 8611
0.39 -0.02 1.47 -1.65 10.63 0.74 0.16 -0.11 8617
0.39 -0.03 1.41 -1.70 10.72 0.81 0.17 -0.11 8624
0.41 -0.04 1.60 -1.81 10.73 0.90 0.16 -0.12 8631
0.40 -0.03 1.54 -1.89 10.70 1.00 0.17 -0.14 8637
0.45 -0.03 1.47 -1.87 10.72 1.08 0.17 -0.14 8643
0.46 -0.03 1.55 -2.05 10.60 1.16 0.18 -0.15 8649
0.46 -0.02 1.54 -2.07 10.59 1.22 0.21 -0.15 8655
0.48 -0.03 1.44 -2.22 10.71 1.28 0.24 -0.15 8663
0.48 -0.02 1.59 -2.28 10.52 1.34 0.28 -0.15 8669
0.47 -0.02 1.57 -2.35 10.88 1.42 0.33 -0.16 8675
0.46 -0.04 1.58 -2.48 10.86 1.51 0.39 -0.16 8681
0.45 -0.03 1.68 -2.60 11.04 1.61 0.44 -0.16 8688
0.45 -0.03 1.60 -2.72 11.59 1.71 0.52 -0.16 8694
0.39 -0.03 1.53 -2.74 10.68 1.82 0.62 -0.16 8700
0.36 -0.02 1.57 -3.01 10.67 1.92 0.77 -0.15 8707
0.29 -0.02 1.62 -3.11 10.72 2.03 0.97 -0.14 8714
0.25 -0.02 1.05 -3.08 11.41 2.13 1.17 -0.12 8720
0.26 -0.02 1.57 -3.58 12.16 2.29 1.50 -0.08 8726
0.16 -0.02 1.05 -3.96 13.21 2.47 1.78 -0.03 8732
0.14 -0.01 1.10 -4.19 13.35 2.71 2.01 0.08 8738
0.20 -0.01 0.72 -4.33 14.01 2.86 2.22 0.19 8745
0.13 -0.01 1.25 -4.73 15.11 3.03 2.38 0.30 8752
0.13 -0.01 1.65 -5.28 16.74 3.30 2.60 0.41 8758
0.12 -0.01 2.06 -5.98 18.02 3.59 2.79 0.51 8764
0.10 -0.01 2.98 -6.69 19.71 3.87 2.98 0.55 8770
0.07 -0.01 3.81 -6.83 21.22 4.13 3.17 0.58 8776
0.08 0.00 4.43 -7.23 21.68 4.27 3.24 0.56 8783
0.10 -0.01 4.76 -7.56 21.98 4.28 3.18 0.56 8790
0.09 0.00 5.24 -8.35 21.66 4.28 3.06 0.59 8796
0.10 -0.01 5.34 -8.62 22.52 4.28 2.98 0.63 8802
0.08 -0.01 6.42 -8.59 22.77 4.28 2.99 0.65 8808
0.06 -0.01 7.13 -7.80 23.54 4.28 3.23 0.64 8815
0.06 -0.01 7.49 -6.90 23.24 4.28 3.68 0.57 8821
0.05 -0.00 7.48 -5.83 25.01 4.28 4.20 0.42 8827
0.07 -0.01 6.45 -4.05 25.15 4.28 4.28 0.23 8834
0.05 0.01 5.03 -1.41 24.49 4.27 4.28 -0.00 8840
0.05 -0.01 2.85 1.01 24.16 4.25 4.28 -0.29 8846
0.04 -0.00 0.02 4.66 21.56 4.16 4.28 -0.53 8852
0.04 0.01 -2.77 7.92 18.32 3.89 4.28 -0.95 8859
0.04 -0.00 -3.27 6.40 13.96 3.56 4.28 -1.41 8865
0.03 -0.00 -8.01 4.49 5.52 3.32 4.25 -2.14 8871
0.03 -0.00 -14.22 6.42 21.01 2.40 2.25 -2.60 8878
0.04 -0.00 -12.73 10.11 9.60 0.25 0.56 -2.72 8884
0.05 -0.00 -9.48 12.31 9.22 -1.24 -1.18 -2.76 8891
0.03 0.00 -4.92 7.70 15.40 -2.59 -2.57 -2.74 8897
0.05 -0.00 -4.11 2.45 14.20 -3.44 -3.41 -2.86 8903
0.04 -0.00 -3.13 -0.06 12.29 -3.83 -3.71 -3.13 8909
0.04 -0.00 -1.20 -1.71 11.42 -3.91 -3.72 -3.49 8915
0.03 -0.00 0.25 -2.37 10.01 -3.86 -3.49 -3.82 8922
0.03 -0.00 0.94 -3.15 8.91 -3.75 -3.15 -4.19 8929
0.03 -0.00 1.16 -3.01 7.81 -3.63 -2.83 -4.28 8935
0.05 -0.00 1.51 -2.24 7.52 -3.55 -2.61 -4.28 8941
0.04 0.01 1.30 -1.17 7.20 -3.58 -2.62 -4.28 8947
0.01 0.00 1.48 -0.95 8.76 -3.67 -2.64 -4.28 8953
0.02 -0.00 2.18 -1.15 9.66 -3.76 -2.79 -4.28 8960
0.03 -0.00 2.74 -1.47 10.32 -3.93 -2.88 -4.28 8967
0.02 -0.00 3.57 -1.70 9.96 -4.07 -2.85 -4.25 8973
0.03 -0.00 4.84 -1.54 11.72 -4.18 -2.75 -3.94 8979
0.03 -0.00 5.39 -1.31 11.15 -4.26 -2.77 -3.62 8985
0.04 -0.00 5.51 -2.00 11.11 -4.28 -2.84 -3.22 8991
0.03 0.01 6.18 -2.92 10.36 -4.28 -2.89 -2.78 8997
0.05 -0.00 6.84 -3.06 9.06 -4.28 -3.01 -2.37 9005
0.05 -0.01 7.00 -3.91 9.06 -4.28 -3.08 -1.99 9011
0.05 -0.01 7.36 -5.23 7.92 -4.28 -3.13 -1.64 9017
0.03 -0.00 8.48 -5.36 8.19 -4.28 -3.11 -1.30 9023
0.04 -0.00 9.43 -5.82 6.56 -4.24 -2.99 -1.00 9029
0.02 -0.00 9.43 -5.91 5.90 -4.15 -2.85 -0.75 9035
0.04 -0.00 11.15 -5.59 7.32 -4.00 -2.51 -0.49 9041
0.04 -0.00 12.26 -6.41 6.73 -3.85 -2.00 -0.16 9049
0.02 -0.00 12.70 -5.74 7.48 -3.71 -1.49 0.19 9055
0.03 -0.00 13.01 -5.94 7.59 -3.58 -1.00 0.54 9061
0.05 -0.00 12.37 -6.52 7.48 -3.46 -0.51 0.92 9067
0.04 -0.00 12.30 -6.85 7.47 -3.34 -0.15 1.29 9073
0.04 -0.00 11.46 -7.22 9.54 -3.23 0.10 1.66 9079
0.05 -0.01 11.26 -8.07 7.69 -3.05 0.20 1.97 9085
0.05 -0.01 11.15 -8.95 7.13 -2.86 0.34 2.26 9093
0.04 -0.00 10.99 -9.69 6.40 -2.65 0.41 2.42 9099
0.03 -0.00 10.92 -10.51 5.92 -2.39 0.54 2.57 9105
0.04 -0.00 11.22 -11.19 5.19 -2.07 0.70 2.65 9111
0.03 -0.00 11.41 -11.53 5.01 -1.72 0.88 2.70 9117
0.04 -0.00 11.78 -11.29 5.35 -1.36 1.08 2.72 9124
0.04 -0.00 11.96 -11.06 6.07 -1.04 1.28 2.72 9131
0.03 -0.00 11.46 -10.67 6.68 -0.79 1.43 2.70 9137
0.04 -0.00 10.99 -10.24 7.63 -0.60 1.46 2.67 9143
0.03 -0.00 10.94 -9.70 8.72 -0.48 1.41 2.61 9149
0.03 -0.00 11.25 -9.30 9.94 -0.47 1.33 2.52 9156
0.05 -0.01 11.45 -9.15 10.79 -0.53 1.29 2.42 9162
0.04 -0.00 11.71 -9.21 11.51 -0.67 1.30 2.31 9168
0.04 -0.00 11.84 -9.60 11.75 -0.88 1.38 2.17 9175
0.04 -0.00 11.59 -9.92 11.86 -1.09 1.49 2.02 9181
0.02 -0.00 11.39 -10.33 11.84 -1.29 1.61 1.85 9188
0.03 0.01 11.22 -10.80 11.74 -1.43 1.75 1.69 9194
0.02 -0.00 10.68 -11.43 11.49 -1.54 1.91 1.57 9200
0.02 -0.00 9.88 -12.01 11.09 -1.60 2.08 1.39 9207
0.04 -0.00 9.19 -12.37 10.91 -1.61 2.22 1.28 9213
0.04 -0.00 8.54 -12.57 11.02 -1.60 2.36 1.14 9220
0.03 -0.00 8.11 -12.43 11.53 -1.59 2.47 1.02 9226
0.03 -0.00 7.54 -12.11 12.03 -1.60 2.61 0.93 9232
0.02 -0.00 6.90 -11.78 12.24 -1.65 2.73 0.86 9239
0.03 -0.00 6.22 -11.50 12.48 -1.73 2.81 0.82 9245
0.03 -0.00 5.54 -11.27 12.83 -1.81 2.85 0.78 9251
0.02 -0.00 4.90 -11.10 13.11 -1.90 2.85 0.75 9257
0.05 -0.00 4.11 -10.94 13.33 -1.98 2.80 0.72 9264
0.03 -0.00 3.33 -10.78 13.45 -2.06 2.72 0.68 9271
0.02 -0.00 2.71 -10.72 13.53 -2.13 2.63 0.64 9277
0.03 -0.00 2.21 -10.86 13.64 -2.20 2.53 0.58 9283
0.02 -0.00 1.76 -11.12 13.21 -2.25 2.44 0.50 9289
0.03 -0.00 1.34 -11.74 12.87 -2.28 2.37 0.39 9296
0.03 -0.00 1.19 -12.23 12.49 -2.26 2.24 0.25 9303
0.02 -0.00 1.11 -12.62 12.04 -2.18 2.21 0.07 9309
0.03 -0.00 0.92 -12.54 11.69 -2.05 2.24 -0.10 9315
0.03 -0.00 0.18 -12.50 11.44 -1.85 2.42 -0.21 9321
0.04 -0.00 -1.01 -12.71 11.25 -1.63 2.69 -0.24 9328
0.06 -0.01 -2.68 -12.87 11.53 -1.40 2.84 -0.25 9334
0.04 -0.00 -4.78 -13.06 11.63 -1.17 2.84 -0.27 9340
0.03 -0.00 -6.88 -13.36 11.36 -0.96 2.74 -0.28 9347
0.04 -0.00 -9.04 -13.49 10.89 -0.74 2.66 -0.26 9353
0.04 -0.00 -10.27 -13.87 10.77 -0.52 2.54 -0.24 9360
0.02 -0.00 -11.74 -14.44 10.51 -0.31 2.17 -0.24 9366
0.03 -0.00 -30.38 -21.01 23.39 0.44 0.15 0.03 9372
0.02 -0.00 -28.23 -17.01 13.29 1.24 -2.28 0.69 9379
0.04 -0.00 -21.80 -11.42 6.06 1.32 -4.28 1.11 9385
0.05 -0.00 1.53 -1.03 3.73 1.02 -4.28 0.98 9392
0.04 -0.00 1.20 -1.53 10.40 0.78 -4.28 0.58 9398
0.04 -0.00 2.07 2.02 15.02 0.65 -4.28 0.64 9404
0.03 -0.00 2.17 6.37 17.92 0.58 -4.28 0.89 9410
0.03 -0.00 -1.17 4.75 15.38 0.54 -4.28 1.08 9416
0.03 0.09 -2.49 3.90 13.96 0.74 -3.32 1.03 9423
0.04 0.25 -5.88 2.43 15.02 1.23 -2.10 0.91 9430
0.02 0.41 -7.33 1.37 10.82 1.72 -1.30 0.62 9436
0.02 0.53 -8.38 0.43 12.66 2.16 -1.40 0.02 9442
0.00 0.63 -4.51 -1.12 15.61 2.48 -1.67 -0.59 9449
0.01 0.63 3.54 -1.92 24.33 2.53 -2.05 -0.82 9455
0.01 0.64 6.14 -3.99 21.11 1.64 -2.65 -0.53 9461
-0.00 0.68 3.51 -3.84 15.41 0.93 -1.68 0.03 9467
0.01 0.68 1.62 -2.32 13.29 0.44 -0.60 0.23 9474
0.02 0.67 1.38 -2.70 9.29 0.28 -0.19 0.30 9481
0.01 0.62 1.78 -0.71 8.92 0.37 -0.35 0.38 9487
0.00 0.59 0.63 0.30 12.72 0.44 -0.73 0.30 9493
0.01 0.55 0.85 -0.08 10.30 0.41 -0.85 0.13 9499
-0.01 0.54 1.39 -0.47 10.37 0.31 -0.72 0.11 9505
0.01 0.53 1.39 -0.63 9.71 0.24 -0.62 0.10 9512
0.03 0.55 1.10 -0.82 10.34 0.22 -0.55 0.08 9519
0.01 0.57 1.33 -0.76 9.62 0.17 -0.51 0.06 9525
0.02 0.55 1.24 -0.73 10.34 0.14 -0.47 0.04 9531
0.02 0.56 1.05 -0.77 10.25 0.10 -0.41 0.03 9537
0.01 0.59 1.10 -0.81 10.49 0.07 -0.32 0.04 9544
0.03 0.57 0.92 -0.74 10.37 0.05 -0.25 0.04 9550
0.02 0.54 0.93 -0.89 10.24 0.04 -0.17 0.04 9556
0.02 0.53 0.94 -0.89 10.25 0.03 -0.08 0.04 9563
0.04 0.51 0.95 -0.87 10.22 0.03 -0.03 0.05 9569
0.02 0.51 0.94 -0.91 10.15 0.04 0.00 0.05 9576
0.02 0.46 1.02 -0.82 10.14 0.04 0.02 0.05 9582
0.04 0.42 1.11 -0.82 9.88 0.04 0.03 0.05 9588
0.04 0.33 1.16 -0.80 10.04 0.04 0.03 0.05 9594
0.04 0.30 1.13 -0.86 10.02 0.04 0.04 0.05 9601
0.05 0.27 1.13 -0.89 10.03 0.04 0.04 0.05 9607
0.05 0.20 1.14 -0.85 10.03 0.04 0.05 0.05 9614
0.05 0.17 1.17 -0.82 9.87 0.03 0.05 0.05 9620
0.05 0.11 1.19 -0.80 9.98 0.03 0.06 0.05 9626
0.05 0.05 1.22 -0.69 10.00 0.04 0.06 0.05 9632
0.05 0.06 1.24 -0.75 9.96 0.05 0.05 0.05 9638
0.06 0.01 1.23 -0.81 10.04 0.04 0.04 0.04 9645
0.07 0.02 1.14 -0.77 9.97 0.05 0.02 0.04 9651
0.06 -0.01 1.26 -0.79 9.99 0.05 0.02 0.03 9658
0.05 -0.01 1.18 -0.85 10.03 0.05 0.03 0.03 9664
0.07 0.01 1.23 -0.85 10.01 0.04 0.02 0.03 9670
0.07 -0.01 1.30 -0.83 9.96 0.04 0.02 0.03 9676
0.08 -0.01 1.18 -0.83 10.00 0.04 0.02 0.03 9682
0.07 -0.01 1.23 -0.92 10.03 0.05 0.02 0.02 9689
0.08 -0.01 1.26 -0.91 9.96 0.04 0.02 0.02 9695
0.08 -0.01 1.23 -0.81 9.98 0.05 0.02 0.02 9701
0.07 -0.01 1.33 -1.19 10.12 0.06 0.03 0.03 9707
0.07 -0.01 1.29 -0.85 9.97 0.06 0.03 0.03 9714
0.09 -0.01 1.22 -0.84 10.05 0.08 0.03 0.03 9720
0.10 -0.01 1.18 -0.97 10.06 0.08 0.03 0.03 9726
0.10 -0.01 1.26 -0.91 9.98 0.09 0.04 0.03 9733
0.09 -0.01 1.26 -0.94 10.04 0.10 0.04 0.03 9739
0.11 -0.01 1.27 -0.96 9.93 0.10 0.05 0.02 9745
0.10 -0.01 1.36 -0.90 9.89 0.10 0.04 0.02 9751
0.10 -0.01 1.36 -0.96 9.91 0.09 0.04 0.02 9757
0.08 -0.01 1.38 -0.97 9.90 0.09 0.04 0.01 9763
0.10 -0.00 1.44 -0.94 9.86 0.07 0.02 0.00 9769
0.12 -0.01 1.43 -0.97 9.87 0.06 0.01 -0.00 9777
0.10 -0.01 1.38 -0.95 9.99 0.05 0.01 -0.01 9783
0.09 -0.01 1.36 -0.97 9.95 0.04 -0.01 -0.01 9789
0.10 0.01 1.29 -0.90 10.04 0.03 -0.02 -0.02 9795
0.12 -0.01 1.39 -0.91 9.95 0.03 -0.02 -0.03 9801
0.11 -0.01 1.40 -0.94 9.90 0.02 -0.03 -0.03 9807
0.10 0.01 1.39 -0.99 10.05 0.03 -0.04 -0.03 9814
0.13 -0.01 1.30 -0.96 10.05 0.03 -0.04 -0.03 9820
0.13 -0.01 1.27 -1.00 9.98 0.04 -0.03 -0.03 9826
0.16 -0.02 1.29 -1.01 9.99 0.06 -0.03 -0.03 9833
0.13 -0.01 1.27 -1.03 10.01 0.07 -0.02 -0.02 9839
0.14 -0.01 1.28 -1.02 10.03 0.09 -0.01 -0.02 9845
0.13 -0.01 1.26 -1.05 10.12 0.10 -0.00 -0.01 9851
0.12 -0.01 1.25 -1.08 10.05 0.12 0.00 -0.00 9858
0.14 0.00 1.34 -1.01 10.03 0.14 0.02 0.01 9864
0.17 -0.01 1.28 -1.07 10.04 0.16 0.02 0.01 9870
0.15 -0.02 1.35 -1.06 10.08 0.19 0.04 0.01 9877
0.14 -0.01 1.33 -1.10 10.04 0.20 0.05 0.02 9883
0.15 -0.02 1.32 -1.09 9.99 0.21 0.06 0.02 9889
0.15 -0.01 1.30 -1.18 10.00 0.22 0.07 0.02 9895
0.13 -0.01 1.37 -1.16 9.95 0.22 0.08 0.02 9902
0.14 -0.01 1.37 -1.18 9.88 0.22 0.08 0.03 9908
0.16 -0.02 1.37 -1.19 9.95 0.21 0.08 0.03 9914
0.15 -0.02 1.42 -1.21 9.83 0.20 0.09 0.03 9920
0.15 -0.01 1.44 -1.22 9.82 0.18 0.08 0.03 9927
0.16 -0.01 1.48 -1.21 9.81 0.16 0.08 0.03 9933
0.16 -0.02 1.54 -1.24 9.79 0.14 0.07 0.02 9939
0.16 -0.02 1.50 -1.23 9.83 0.12 0.05 0.02 9946
0.16 -0.02 1.49 -1.24 9.86 0.11 0.05 0.01 9952
0.16 -0.01 1.52 -1.24 10.00 0.11 0.04 0.00 9958
0.16 -0.02 1.49 -1.25 9.90 0.09 0.02 -0.00 9964
0.16 -0.02 1.52 -1.28 9.90 0.09 0.02 -0.01 9970
0.14 -0.01 1.57 -1.27 9.92 0.09 0.01 -0.01 9976
0.16 -0.01 1.53 -1.41 9.86 0.08 -0.01 -0.02 9984
0.17 -0.02 1.61 -1.34 9.75 0.06 -0.03 -0.03 9990
0.16 -0.02 1.50 -1.30 9.95 0.05 -0.03 -0.04 9996
0.17 -0.02 1.55 -1.31 9.86 0.06 -0.04 -0.05 10002
0.18 -0.01 1.59 -1.28 9.94 0.07 -0.03 -0.06 10008
0.20 -0.02 1.55 -1.32 10.02 0.09 -0.04 -0.07 10014
0.18 -0.02 1.59 -1.37 10.07 0.12 -0.02 -0.08 10020
0.22 -0.02 1.54 -1.38 10.09 0.18 -0.00 -0.09 10028
0.22 -0.02 1.51 -1.38 10.29 0.23 -0.00 -0.10 10034
0.21 -0.02 1.52 -1.40 10.26 0.31 0.01 -0.10 10040
0.26 -0.02 1.50 -1.50 10.34 0.39 0.03 -0.12 10046
0.25 -0.03 1.54 -1.52 10.38 0.47 0.06 -0.12 10052
0.26 -0.02 1.55 -1.54 10.36 0.54 0.07 -0.13 10059
0.33 -0.02 1.53 -1.65 10.25 0.61 0.08 -0.14 10065
0.36 -0.03 1.59 -1.75 10.33 0.67 0.09 -0.15 10072
0.38 -0.02 1.67 -1.75 10.61 0.75 0.10 -0.16 10079
0.42 -0.04 1.56 -1.83 10.65 0.83 0.11 -0.17 10085
0.44 -0.01 1.77 -1.86 10.83 0.93 0.11 -0.18 10091
0.47 -0.03 1.68 -1.96 10.84 1.03 0.12 -0.19 10097
0.47 -0.03 1.74 -2.03 10.63 1.13 0.12 -0.21 10104
0.49 -0.02 1.72 -2.11 10.87 1.22 0.12 -0.22 10110
0.50 -0.03 1.71 -2.18 10.77 1.30 0.14 -0.22 10117
0.53 -0.02 1.46 -2.29 10.85 1.38 0.17 -0.22 10123
0.54 -0.03 1.47 -2.38 10.90 1.46 0.21 -0.21 10130
0.51 -0.03 1.57 -2.44 11.39 1.56 0.27 -0.21 10136
0.54 -0.03 1.77 -2.65 11.68 1.68 0.34 -0.20 10142
0.53 -0.03 1.67 -2.76 11.86 1.82 0.42 -0.19 10148
0.50 -0.03 1.43 -2.80 11.88 1.98 0.52 -0.18 10156
0.44 -0.03 1.06 -2.90 12.57 2.18 0.63 -0.14 10162
0.34 -0.01 1.33 -3.03 12.36 2.40 0.78 -0.09 10168
0.31 -0.03 2.03 -3.26 12.45 2.60 0.94 -0.07 10175
0.23 -0.02 1.70 -3.31 12.22 2.79 1.12 -0.08 10181
0.18 -0.01 1.04 -3.66 12.61 2.98 1.28 -0.04 10187
0.16 -0.02 0.89 -4.04 13.93 3.20 1.50 0.04 10193
0.17 -0.01 0.88 -4.31 14.09 3.47 1.77 0.13 10200
0.18 -0.01 1.29 -4.89 14.75 3.71 2.01 0.24 10207
0.14 -0.01 1.09 -5.28 15.30 3.84 2.21 0.35 10213
0.16 -0.01 1.97 -6.08 16.22 3.98 2.39 0.47 10219
0.16 -0.02 2.22 -6.89 19.97 4.08 2.52 0.55 10225
0.13 -0.01 4.06 -7.68 21.31 4.23 2.67 0.58 10232
0.11 -0.00 4.61 -8.18 22.25 4.28 2.89 0.60 10238
0.10 -0.01 4.58 -8.79 22.48 4.28 3.17 0.65 10245
0.08 -0.00 5.35 -8.93 21.44 4.28 3.40 0.73 10251
0.09 -0.01 5.12 -8.67 21.91 4.28 3.52 0.76 10258
0.09 -0.00 7.11 -8.73 22.18 4.28 3.81 0.83 10264
0.07 -0.01 7.97 -8.32 21.67 4.28 4.26 0.81 10270
0.06 -0.01 7.01 -6.90 22.05 4.26 4.28 0.66 10276
0.04 0.00 5.06 -5.06 21.64 4.20 4.28 0.48 10284
0.04 -0.00 2.44 -3.51 21.89 4.14 4.28 0.29 10290
0.04 -0.00 -0.03 -1.17 21.90 4.06 4.28 0.04 10296
0.04 0.01 -2.06 1.54 20.48 3.90 4.28 -0.23 10302
0.04 -0.00 -2.57 4.86 17.74 3.64 4.28 -0.53 10308
0.03 0.00 -4.53 7.00 16.63 3.37 4.28 -0.86 10315
0.07 -0.01 -10.85 6.45 13.86 2.94 4.25 -1.28 10321
0.05 -0.00 -9.62 6.87 9.25 2.77 2.56 -1.84 10328
0.03 -0.00 -13.02 7.66 15.15 1.45 0.44 -1.97 10334
0.03 -0.00 -12.47 11.81 9.13 -0.53 -1.42 -1.97 10341
0.01 -0.00 -6.76 10.47 13.28 -1.88 -2.96 -1.99 10347
0.04 -0.00 -3.63 5.39 16.33 -2.72 -3.91 -2.11 10353
0.03 -0.00 -2.13 1.65 14.11 -3.20 -4.26 -2.35 10359
0.05 -0.00 -0.36 -0.01 12.47 -3.33 -4.28 -2.68 10365
0.04 -0.00 1.40 -0.66 11.56 -3.23 -4.18 -3.07 10373
0.04 -0.00 2.51 -1.15 10.46 -3.11 -3.71 -3.46 10379
0.03 -0.00 2.91 -1.27 9.12 -2.95 -3.16 -3.81 10385
0.04 -0.00 3.07 -0.63 8.01 -2.84 -2.65 -4.09 10391
0.03 -0.00 3.18 0.21 8.10 -2.81 -2.29 -4.27 10397
0.03 -0.00 3.10 1.16 8.27 -2.88 -1.96 -4.28 10404
0.03 -0.00 2.95 0.93 8.60 -3.02 -1.78 -4.28 10411
0.02 -0.00 2.87 0.90 9.07 -3.24 -1.73 -4.28 10417
0.02 -0.00 3.05 0.80 9.31 -3.48 -1.77 -4.27 10423
0.04 -0.00 3.30 0.49 10.02 -3.73 -1.89 -4.13 10429
0.04 -0.00 3.79 0.24 10.76 -3.97 -2.06 -3.93 10435
0.02 -0.00 4.45 -0.71 11.57 -4.11 -2.23 -3.67 10442
0.05 -0.01 4.95 -1.91 11.48 -4.21 -2.37 -3.33 10448
0.04 -0.00 5.48 -2.83 11.03 -4.27 -2.46 -2.92 10455
0.04 0.00 6.61 -3.56 10.87 -4.28 -2.59 -2.51 10461
0.04 -0.00 7.43 -3.77 10.67 -4.28 -2.79 -2.14 10468
0.03 -0.00 7.99 -4.15 10.08 -4.28 -2.96 -1.81 10474
0.06 -0.01 8.47 -4.87 9.81 -4.28 -3.03 -1.49 10480
0.03 -0.00 9.20 -5.57 9.30 -4.28 -3.03 -1.20 10486
0.02 -0.00 9.98 -6.67 9.13 -4.28 -2.98 -0.95 10492
0.04 -0.00 10.84 -6.51 8.91 -4.27 -2.83 -0.73 10500
0.04 -0.00 11.78 -6.83 8.59 -4.22 -2.60 -0.57 10506
0.04 -0.00 13.01 -7.25 8.52 -4.12 -2.24 -0.40 10512
0.04 -0.00 13.40 -7.86 8.17 -4.00 -1.79 -0.25 10518
0.04 -0.00 13.35 -8.35 8.90 -3.81 -1.27 -0.11 10524
0.03 -0.00 13.42 -9.07 8.79 -3.63 -0.77 0.04 10531
0.03 -0.00 13.47 -9.82 9.52 -3.43 -0.27 0.20 10537
0.04 -0.00 13.16 -10.53 9.55 -3.24 0.19 0.40 10544
0.04 0.00 12.79 -11.17 9.97 -3.05 0.54 0.61 10550
0.03 -0.00 12.42 -11.49 10.27 -2.87 0.80 0.84 10557
0.03 -0.00 12.08 -11.97 10.41 -2.70 0.99 1.09 10563
0.03 -0.00 11.88 -12.00 10.63 -2.52 1.13 1.34 10569
0.03 -0.00 11.75 -11.88 10.88 -2.37 1.29 1.57 10576
0.04 -0.00 11.60 -12.08 11.26 -2.23 1.49 1.76 10583
0.02 -0.00 11.19 -12.31 11.47 -2.10 1.73 1.93 10589
0.04 -0.00 10.70 -12.49 11.59 -1.98 1.94 2.07 10596
0.03 -0.00 10.15 -12.51 11.60 -1.86 2.11 2.17 10602
0.02 -0.00 9.66 -12.60 11.55 -1.75 2.22 2.24 10608
0.02 -0.00 9.03 -12.69 11.33 -1.65 2.27 2.27 10614
0.02 -0.00 8.52 -12.77 11.26 -1.54 2.27 2.24 10621
0.02 -0.00 7.97 -12.85 11.12 -1.43 2.25 2.16 10628
0.01 -0.00 7.44 -12.84 10.93 -1.31 2.23 2.03 10634
0.03 -0.00 6.99 -12.67 10.74 -1.21 2.22 1.85 10640
0.02 -0.00 6.49 -12.36 10.61 -1.12 2.24 1.65 10647
0.02 0.01 6.10 -11.96 10.72 -1.03 2.31 1.42 10653
0.02 -0.00 5.87 -11.52 11.12 -0.97 2.42 1.20 10659
0.02 -0.00 5.61 -10.99 11.45 -0.93 2.58 1.00 10665
0.04 -0.00 5.26 -10.45 11.83 -0.94 2.80 0.83 10673
0.03 -0.00 4.89 -10.00 12.84 -0.96 3.01 0.70 10679
0.04 0.01 4.29 -9.75 12.62 -1.01 3.21 0.59 10685
0.04 -0.00 3.72 -9.45 13.12 -1.08 3.38 0.53 10691
0.03 -0.00 3.21 -9.27 13.51 -1.16 3.47 0.50 10698
0.04 -0.00 2.56 -9.13 13.66 -1.25 3.49 0.50 10704
0.04 -0.00 1.77 -9.07 13.57 -1.33 3.45 0.52 10711
0.04 -0.00 1.21 -9.04 13.43 -1.39 3.37 0.55 10717
0.03 -0.00 0.63 -9.15 13.21 -1.43 3.22 0.57 10723
0.03 -0.00 0.07 -9.37 13.06 -1.44 3.04 0.58 10730
0.02 -0.00 -0.40 -9.61 12.86 -1.42 2.85 0.56 10736
0.03 -0.00 -0.93 -9.81 12.78 -1.36 2.68 0.49 10742
0.03 -0.00 -1.59 -9.98 12.86 -1.29 2.54 0.38 10748
0.03 -0.00 -2.10 -10.14 12.69 -1.21 2.37 0.24 10756
0.02 -0.00 -2.52 -10.01 12.69 -1.15 2.20 0.08 10762
0.02 -0.00 -2.90 -9.69 12.82 -1.08 2.04 -0.07 10768
0.03 -0.00 -3.46 -9.63 12.69 -1.02 2.10 -0.15 10774
0.03 -0.00 -4.24 -9.76 12.69 -0.95 2.23 -0.17 10780
0.03 -0.00 -5.16 -9.96 12.86 -0.89 2.32 -0.16 10787
0.03 -0.00 -6.30 -10.20 12.89 -0.84 2.29 -0.14 10793
0.04 -0.00 -7.51 -10.48 12.86 -0.81 2.15 -0.11 10800
0.04 -0.00 -8.58 -10.89 12.67 -0.79 1.88 -0.07 10806
0.03 -0.00 -9.37 -11.14 12.19 -0.76 1.47 -0.01 10813
0.03 -0.00 -9.85 -11.53 11.41 -0.71 1.01 0.07 10819
0.04 -0.00 -9.86 -11.99 9.89 -0.64 0.49 0.15 10825
0.03 -0.00 -9.17 -12.58 9.55 -0.56 -0.07 0.18 10831
0.02 -0.00 -8.09 -13.31 8.56 -0.45 -0.57 0.16 10839
0.03 -0.00 -7.24 -14.32 7.91 -0.28 -0.93 0.12 10845
0.03 -0.00 -22.13 -11.77 27.58 0.75 -3.14 0.40 10851
0.04 -0.00 4.46 -5.94 9.92 1.12 -3.61 0.78 10857
0.03 -0.00 4.19 4.04 6.36 1.14 -3.75 0.62 10863
0.00 -0.00 9.26 10.32 10.18 1.20 -3.09 0.74 10870
0.04 -0.00 6.99 7.78 12.22 1.04 -2.80 0.99 10876
0.02 -0.00 3.37 6.64 11.51 1.07 -2.47 1.21 10883
0.01 -0.00 1.62 1.43 7.73 1.16 -2.23 1.27 10889
0.03 0.01 0.07 -0.96 6.12 1.31 -2.21 1.22 10895
0.02 -0.00 0.01 -1.39 7.10 1.49 -2.35 1.09 10902
0.01 -0.00 0.04 -0.64 8.50 1.66 -2.52 1.00 10908
0.02 0.03 1.17 -0.69 10.17 1.78 -2.73 0.97 10914
0.04 0.02 0.96 0.25 12.72 1.84 -2.73 0.97 10920
0.04 0.08 0.61 0.04 14.72 1.88 -2.40 0.96 10927
0.04 0.15 -0.43 0.70 16.05 1.77 -2.08 0.87 10934
0.02 0.24 -2.74 0.88 17.44 1.53 -1.98 0.67 10940
0.02 0.34 -2.46 0.39 15.63 1.13 -2.18 0.33 10946
0.03 0.35 0.40 -0.51 14.91 0.95 -2.10 0.06 10952
0.02 0.45 0.62 -1.49 16.22 0.88 -1.99 0.01 10959
0.02 0.49 0.46 -0.88 13.58 0.75 -1.88 -0.06 10966
0.03 0.50 1.04 -1.37 12.96 0.64 -1.78 -0.08 10972
0.01 0.59 1.03 -0.32 11.19 0.55 -1.57 -0.01 10978
0.02 0.55 1.42 -0.46 11.00 0.45 -1.37 0.02 10985
0.01 0.58 1.02 -0.94 11.37 0.36 -1.15 0.02 10991
0.02 0.61 1.11 -0.83 10.78 0.25 -0.87 0.02 10997
0.01 0.70 0.61 -0.63 11.09 0.16 -0.65 0.02 11003
0.01 0.75 0.76 -1.12 10.23 0.09 -0.46 0.03 11011
0.00 0.77 1.03 -0.79 10.16 0.06 -0.34 0.04 11017
-0.01 0.75 1.11 -0.95 10.31 0.04 -0.25 0.05 11023
0.02 0.75 0.82 -0.78 10.39 0.03 -0.16 0.06 11029
0.02 0.75 0.87 -0.82 10.13 0.02 -0.08 0.06 11036
0.02 0.77 0.95 -0.78 10.10 0.02 -0.04 0.08 11042
0.01 0.76 0.93 -0.76 10.10 0.03 -0.01 0.08 11048
0.01 0.72 0.96 -0.75 10.15 0.03 0.01 0.08 11055
0.03 0.69 1.04 -0.71 10.00 0.03 0.03 0.08 11062
0.02 0.63 1.05 -0.66 10.01 0.03 0.05 0.08 11068
0.02 0.58 1.08 -0.67 9.97 0.03 0.06 0.08 11074
0.04 0.57 1.05 -0.65 10.01 0.02 0.07 0.08 11080
0.03 0.53 1.17 -0.63 10.04 0.02 0.08 0.07 11086
0.03 0.50 1.11 -0.63 9.92 0.02 0.09 0.06 11094
0.04 0.46 1.10 -0.64 9.98 0.02 0.10 0.06 11100
0.04 0.42 1.14 -0.64 9.98 0.01 0.10 0.06 11106
0.03 0.43 1.16 -0.63 9.99 0.02 0.10 0.05 11112
0.05 0.36 1.15 -0.63 9.97 0.02 0.09 0.06 11118
0.04 0.35 1.07 -0.61 10.05 0.02 0.09 0.05 11125
0.04 0.33 1.12 -0.65 10.05 0.02 0.09 0.06 11131
0.05 0.29 1.16 -0.65 9.92 0.02 0.09 0.06 11138
0.04 0.25 1.17 -0.66 10.01 0.02 0.08 0.06 11144
0.05 0.20 1.22 -0.63 10.04 0.02 0.08 0.06 11150
0.05 0.15 1.25 -0.80 9.91 0.03 0.08 0.07 11157
0.05 0.10 1.19 -0.71 9.98 0.03 0.07 0.06 11163
0.07 0.12 1.27 -0.66 9.95 0.03 0.08 0.07 11169
0.07 0.09 1.15 -0.68 10.01 0.03 0.08 0.07 11175
0.06 0.04 1.25 -0.68 9.94 0.03 0.08 0.07 11182
0.07 0.03 0.65 -0.78 9.93 0.03 0.07 0.07 11189
0.08 0.01 1.23 -0.09 10.09 0.03 0.08 0.07 11195
0.04 0.01 1.26 -0.68 9.94 0.03 0.08 0.07 11201
0.06 0.01 1.21 -0.72 10.01 0.03 0.08 0.07 11207
0.06 -0.00 1.31 -0.84 10.01 0.03 0.08 0.07 11213
0.05 -0.01 1.30 -0.87 9.95 0.03 0.08 0.06 11219
0.06 -0.01 1.42 -0.65 9.88 0.02 0.08 0.06 11227
0.05 -0.01 1.36 -0.72 9.91 0.02 0.08 0.06 11233
0.06 -0.01 1.37 -0.74 9.89 0.02 0.08 0.05 11239
0.06 -0.01 1.37 -0.73 9.88 0.01 0.07 0.04 11245
0.05 -0.01 1.44 -0.66 9.86 0.01 0.06 0.03 11251
0.06 -0.01 1.43 -0.74 9.83 0.01 0.06 0.03 11257
0.03 -0.00 1.42 -0.72 9.94 0.00 0.04 0.02 11264
0.05 0.00 1.49 -0.73 9.85 -0.00 0.03 0.01 11271
0.06 -0.01 1.42 -0.75 9.92 -0.01 0.02 0.01 11277
0.05 -0.01 1.41 -0.71 9.97 -0.01 -0.00 0.00 11283
0.05 -0.00 1.46 -0.86 9.97 -0.01 -0.01 0.00 11289
0.05 -0.01 1.51 -0.72 9.99 -0.01 -0.03 -0.00 11295
0.05 -0.01 1.45 -0.75 10.04 -0.01 -0.03 -0.00 11301
0.04 0.00 1.59 -0.79 9.94 -0.01 -0.05 -0.00 11308
0.03 0.00 1.40 -0.71 9.34 -0.01 -0.05 -0.00 11314
0.05 -0.00 1.31 -0.77 9.99 -0.01 -0.05 0.00 11321
0.06 -0.01 1.31 -0.74 10.00 0.00 -0.05 0.00 11327
0.07 -0.01 1.36 -0.71 10.03 0.00 -0.06 0.00 11333
0.06 -0.01 1.37 -0.76 10.05 0.01 -0.06 0.01 11339
0.05 -0.00 1.39 -0.72 9.89 0.01 -0.06 0.01 11345
0.03 -0.00 1.48 -0.74 9.93 0.01 -0.05 0.01 11352
0.06 -0.01 1.40 -0.72 9.98 0.02 -0.06 0.01 11358
0.08 -0.01 1.35 -0.77 10.02 0.02 -0.05 0.01 11365
0.05 -0.00 1.41 -0.85 10.00 0.02 -0.05 0.01 11371
0.06 0.03 1.36 -0.79 9.96 0.02 -0.05 0.01 11377
0.09 -0.00 1.40 -0.82 9.90 0.02 -0.04 0.01 11383
0.09 -0.01 1.35 -0.81 10.00 0.02 -0.04 0.01 11389
0.11 -0.01 1.39 -0.85 10.01 0.02 -0.04 0.01 11397
0.07 -0.01 1.32 -0.79 10.01 0.02 -0.04 0.01 11403
0.09 -0.01 1.35 -0.75 9.96 0.02 -0.04 0.02 11409
0.07 -0.01 1.41 -0.83 10.03 0.03 -0.04 0.02 11415
0.06 -0.01 1.38 -0.78 9.93 0.03 -0.04 0.02 11421
0.04 -0.00 1.40 -0.79 9.98 0.04 -0.04 0.01 11427
0.05 -0.01 1.44 -0.79 9.99 0.05 -0.04 0.01 11433
0.08 -0.01 1.45 -0.83 9.97 0.06 -0.05 0.01 11441
0.09 -0.01 1.42 -0.80 9.92 0.06 -0.05 0.00 11447
0.06 -0.01 1.36 -0.82 10.07 0.06 -0.07 -0.01 11453
0.06 -0.01 1.37 -0.73 10.01 0.07 -0.08 -0.01 11459
0.08 -0.01 1.48 -0.81 10.19 0.07 -0.10 -0.02 11465
0.02 -0.00 1.47 -0.81 9.92 0.08 -0.11 -0.03 11471
0.11 -0.01 1.40 -0.78 10.07 0.08 -0.12 -0.04 11479
0.12 -0.01 1.49 -0.99 9.94 0.09 -0.12 -0.05 11485
0.12 -0.01 1.45 -0.83 10.01 0.10 -0.13 -0.06 11491
0.15 -0.01 1.52 -0.82 10.02 0.13 -0.14 -0.08 11497
0.21 -0.01 1.45 -0.90 10.06 0.15 -0.14 -0.10 11503
0.19 -0.02 1.48 -0.91 10.08 0.17 -0.11 -0.12 11510
0.20 -0.02 1.46 -1.00 10.00 0.19 -0.10 -0.13 11516
0.23 -0.02 1.41 -1.02 10.15 0.22 -0.06 -0.14 11523
0.25 -0.02 1.36 -1.06 10.08 0.26 -0.02 -0.14 11529
0.35 -0.02 1.31 -1.03 10.19 0.31 0.02 -0.15 11536
0.40 -0.04 1.30 -1.07 10.25 0.39 0.06 -0.14 11542
0.38 -0.01 1.25 -1.11 10.35 0.47 0.12 -0.14 11548
0.42 -0.04 1.20 -1.16 10.19 0.56 0.17 -0.12 11554
0.44 -0.03 1.03 -1.18 10.39 0.64 0.20 -0.10 11561
0.51 -0.03 1.27 -1.32 10.73 0.73 0.24 -0.08 11568
0.51 -0.04 1.28 -1.38 10.61 0.86 0.29 -0.06 11574
0.51 -0.02 1.37 -1.41 10.78 0.99 0.34 -0.06 11580
0.54 -0.03 1.62 -1.30 10.91 1.11 0.40 -0.06 11587
0.52 -0.04 1.46 -1.58 11.02 1.23 0.47 -0.06 11593
0.50 -0.03 1.72 -1.64 11.28 1.35 0.55 -0.07 11599
0.49 -0.03 1.70 -1.79 11.64 1.47 0.64 -0.08 11606
0.45 -0.03 1.73 -1.86 11.38 1.60 0.75 -0.09 11613
0.41 -0.03 1.79 -1.98 11.62 1.70 0.86 -0.10 11619
0.35 -0.02 1.75 -2.19 11.16 1.81 1.01 -0.10 11625
0.28 -0.02 1.88 -2.25 11.19 1.92 1.17 -0.11 11632
0.21 -0.02 1.65 -2.51 11.82 2.04 1.37 -0.10 11638
0.15 -0.02 0.65 -2.52 12.76 2.09 1.50 -0.06 11644
0.14 -0.01 1.46 -2.94 13.05 2.23 1.81 0.01 11651
0.08 -0.01 1.03 -3.22 13.98 2.44 2.17 0.08 11657
0.09 -0.01 0.79 -3.56 14.59 2.61 2.53 0.18 11664
0.09 -0.01 1.78 -4.10 15.36 2.79 2.89 0.27 11670
0.08 -0.01 0.95 -4.19 16.90 3.03 3.29 0.37 11676
0.13 -0.01 2.30 -3.88 18.39 3.30 3.63 0.45 11682
0.11 -0.01 3.18 -4.50 17.90 3.60 3.78 0.46 11688
0.08 -0.01 3.63 -5.02 18.77 3.94 3.66 0.43 11696
0.07 -0.00 4.11 -5.48 21.37 4.21 3.39 0.43 11702
0.08 -0.01 3.35 -4.13 19.51 4.28 3.15 0.43 11708
0.09 -0.01 3.81 -5.40 18.60 4.28 2.86 0.47 11714
0.09 -0.01 4.26 -6.08 19.69 4.28 2.62 0.53 11720
0.09 -0.01 5.32 -6.47 21.25 4.28 2.55 0.57 11727
0.07 0.00 6.70 -6.51 22.59 4.28 2.72 0.60 11734
0.08 -0.01 7.51 -6.15 24.01 4.28 3.06 0.58 11740
0.05 -0.01 8.18 -5.32 24.61 4.28 3.53 0.51 11746
0.06 -0.01 7.61 -3.62 22.87 4.28 4.06 0.38 11753
0.05 -0.01 6.64 -1.80 23.78 4.27 4.28 0.21 11759
0.05 -0.00 4.60 0.31 23.34 4.23 4.28 0.03 11765
0.05 -0.01 2.21 2.40 22.61 4.22 4.28 -0.24 11771
0.05 -0.00 -0.58 5.74 20.23 4.14 4.28 -0.59 11778
0.04 0.02 -1.88 7.07 15.73 3.94 4.28 -0.98 11785
0.03 -0.00 -5.77 7.49 7.19 3.78 4.28 -1.60 11791
0.03 -0.00 -9.62 6.62 16.13 3.55 4.28 -2.32 11797
0.03 -0.00 -12.92 8.28 14.79 1.93 3.19 -2.54 11803
0.04 -0.00 -13.71 13.22 4.89 -0.23 1.16 -2.61 11810
0.03 -0.00 -10.95 13.45 13.69 -1.85 -1.09 -2.54 11816
0.03 -0.00 -7.38 6.37 15.13 -2.92 -2.82 -2.44 11823
0.03 -0.00 -5.42 2.98 14.07 -3.45 -3.94 -2.47 11829
0.06 -0.01 -3.61 1.11 12.28 -3.65 -4.28 -2.67 11835
0.06 -0.01 -1.84 0.09 10.84 -3.67 -4.28 -2.99 11842
0.02 0.01 -0.22 -0.79 9.14 -3.58 -4.28 -3.35 11848
0.02 -0.00 0.84 -1.53 8.57 -3.45 -4.27 -3.70 11854
0.02 -0.00 1.55 -1.72 8.54 -3.31 -4.23 -3.97 11860
0.03 -0.00 1.91 -1.53 9.11 -3.20 -4.17 -4.18 11867
0.03 -0.00 2.55 -1.03 9.54 -3.16 -4.10 -4.28 11874
0.01 -0.00 3.31 -0.68 10.13 -3.19 -4.01 -4.28 11880
0.02 0.00 4.40 -0.35 10.92 -3.31 -3.87 -4.28 11886
0.03 -0.00 5.37 -0.12 11.73 -3.51 -3.71 -4.28 11892
0.03 -0.00 6.08 -0.12 12.31 -3.79 -3.54 -4.21 11899
0.04 0.00 6.43 -0.35 12.77 -4.06 -3.34 -4.04 11906
0.03 -0.00 6.66 -0.94 12.88 -4.23 -3.21 -3.80 11912
0.04 -0.00 6.67 -2.14 12.63 -4.28 -3.09 -3.49 11918
0.04 -0.00 7.10 -3.11 12.43 -4.28 -3.01 -3.15 11924
0.04 -0.00 7.51 -3.90 12.13 -4.28 -2.99 -2.81 11931
0.03 -0.00 7.73 -5.35 11.66 -4.28 -3.00 -2.50 11937
0.06 -0.01 7.93 -5.63 10.76 -4.28 -3.05 -2.13 11943
0.04 -0.00 8.63 -6.27 9.77 -4.28 -3.09 -1.85 11950
0.04 -0.00 9.47 -6.73 8.94 -4.28 -3.12 -1.52 11956
0.04 -0.00 10.48 -7.11 8.86 -4.26 -3.03 -1.21 11963
0.04 -0.00 11.35 -7.40 8.83 -4.15 -2.85 -0.92 11969
0.05 -0.00 11.95 -7.62 8.77 -3.95 -2.55 -0.64 11975
0.04 -0.00 12.08 -7.63 8.44 -3.68 -2.17 -0.35 11981
0.04 -0.00 12.29 -7.75 8.48 -3.41 -1.75 -0.05 11988
0.04 0.00 12.09 -7.96 8.68 -3.15 -1.35 0.24 11995
0.03 -0.00 11.82 -8.49 9.53 -2.92 -0.95 0.53 12001
0.04 -0.00 11.36 -9.10 9.97 -2.72 -0.61 0.84 12007
0.04 -0.00 10.91 -9.67 10.45 -2.58 -0.33 1.14 12013
0.02 -0.00 10.79 -10.14 10.93 -2.42 -0.14 1.42 12020
0.03 -0.00 10.66 -10.76 11.38 -2.24 -0.01 1.68 12026
0.03 -0.00 10.78 -11.21 11.90 -2.12 0.10 1.92 12033
0.04 -0.00 10.91 -11.47 12.42 -2.03 0.24 2.15 12040
0.03 -0.00 11.01 -11.58 12.63 -1.97 0.41 2.35 12046
0.03 -0.00 10.75 -11.66 12.64 -1.94 0.58 2.52 12052
0.04 -0.00 10.34 -11.82 12.50 -1.92 0.72 2.66 12059
0.03 -0.00 9.93 -11.93 12.27 -1.89 0.80 2.77 12065
0.03 -0.00 9.58 -12.01 11.81 -1.86 0.85 2.83 12071
0.02 -0.00 9.30 -12.11 11.26 -1.80 0.86 2.85 12078
0.03 -0.00 9.12 -12.22 10.70 -1.72 0.86 2.81 12085
0.03 -0.00 9.03 -12.22 10.15 -1.63 0.85 2.70 12091
0.01 -0.00 9.09 -12.01 9.72 -1.53 0.88 2.55 12097
0.04 -0.00 9.08 -11.57 9.35 -1.41 0.96 2.35 12103
0.03 -0.00 9.02 -11.05 8.99 -1.29 1.09 2.13 12110
0.02 -0.00 8.82 -10.54 8.81 -1.15 1.25 1.90 12116
0.03 -0.00 8.47 -10.01 8.70 -1.05 1.44 1.67 12123
0.03 -0.00 7.90 -9.62 8.74 -0.92 1.63 1.44 12129
0.03 -0.00 6.78 -9.16 8.92 -0.80 1.83 1.22 12135
0.04 -0.00 6.91 -8.62 9.29 -0.69 1.97 1.02 12141
0.03 -0.00 6.68 -8.08 9.99 -0.62 2.15 0.84 12148
0.02 -0.00 6.40 -7.57 10.98 -0.60 2.35 0.72 12154
0.04 -0.00 5.75 -7.07 10.68 -0.63 2.57 0.60 12161
0.03 -0.00 5.12 -6.71 11.01 -0.70 2.79 0.51 12167
0.03 -0.00 4.58 -6.50 11.26 -0.78 2.97 0.45 12173
0.05 -0.00 3.95 -6.32 11.49 -0.88 3.08 0.40 12180
0.04 -0.00 3.28 -6.24 11.47 -0.98 3.14 0.37 12186
0.03 -0.00 2.67 -6.19 11.49 -1.05 3.13 0.33 12192
0.04 -0.00 2.05 -6.07 11.37 -1.12 3.09 0.28 12198
0.03 -0.00 1.57 -6.09 11.21 -1.18 2.99 0.22 12205
0.03 -0.00 1.39 -6.06 11.23 -1.22 2.88 0.16 12212
0.03 -0.00 1.44 -6.22 11.26 -1.26 2.79 0.07 12218
0.03 -0.00 1.48 -6.36 11.28 -1.31 2.70 -0.01 12224
0.03 -0.00 1.45 -6.45 11.32 -1.35 2.63 -0.11 12230
0.03 -0.00 1.31 -6.64 11.51 -1.38 2.59 -0.20 12236
0.02 -0.00 1.14 -6.92 11.66 -1.40 2.55 -0.30 12243
0.03 -0.00 0.91 -7.17 11.87 -1.43 2.53 -0.39 12250
0.03 -0.00 0.56 -7.48 12.02 -1.43 2.52 -0.45 12256
0.02 -0.00 -0.04 -7.77 12.07 -1.43 2.53 -0.46 12262
0.05 -0.00 -0.82 -8.07 12.33 -1.40 2.50 -0.45 12268
0.04 -0.00 -1.70 -8.38 12.58 -1.38 2.40 -0.42 12275
0.02 -0.00 -2.65 -8.82 12.67 -1.35 2.26 -0.39 12281
0.04 -0.00 -3.67 -9.37 12.37 -1.30 2.11 -0.36 12288
0.03 -0.00 -4.89 -9.73 11.68 -1.23 2.04 -0.31 12294
0.04 -0.00 -6.17 -10.18 11.29 -1.11 2.08 -0.25 12301
0.03 -0.00 -7.16 -10.90 11.28 -0.99 2.09 -0.20 12307
0.02 -0.00 -8.25 -11.71 11.41 -0.85 1.97 -0.18 12313
0.04 -0.00 -9.20 -12.43 11.50 -0.73 1.74 -0.17 12319
0.02 -0.00 -9.79 -13.11 11.33 -0.57 1.41 -0.18 12326
0.02 -0.00 -14.20 -15.39 12.17 -0.42 0.76 -0.14 12333
0.03 -0.00 -34.38 -21.04 27.14 0.73 -2.40 0.43 12339
0.02 -0.00 -18.87 -15.22 8.67 0.87 -4.09 1.04 12345
0.03 -0.00 0.07 -2.48 1.70 0.70 -4.28 1.01 12352
0.03 -0.00 2.31 -1.05 5.60 0.53 -4.28 0.65 12358
0.03 -0.00 2.79 0.61 12.88 0.41 -4.28 0.66 12364
0.04 0.00 6.10 9.69 15.25 0.37 -4.28 0.96 12370
0.03 0.01 3.01 8.68 13.72 0.50 -4.24 1.28 12377
0.02 0.16 -1.13 6.57 10.54 0.96 -2.58 1.45 12384
0.04 0.29 -5.23 2.68 7.22 1.54 -1.41 1.47 12390
0.01 0.42 -9.69 -0.14 10.26 2.12 -1.06 1.10 12396
0.01 0.53 -11.04 -0.93 14.66 2.52 -1.13 0.48 12403
0.00 0.64 -8.19 -0.85 15.48 2.72 -1.38 -0.22 12409
0.02 0.72 -1.47 -1.50 19.36 2.78 -1.37 -0.76 12416
0.01 0.70 5.59 -2.58 26.53 2.59 -1.73 -0.88 12422
0.02 0.70 7.34 -3.24 19.15 1.44 -2.12 -0.40 12429
0.00 0.68 3.53 -1.97 14.09 0.88 -1.29 0.14 12435
0.00 0.71 1.92 -2.28 10.84 0.55 -0.67 0.28 12441
0.02 0.76 1.73 -1.09 9.81 0.50 -0.82 0.34 12447
-0.01 0.73 0.23 -0.17 10.22 0.57 -1.12 0.31 12454
0.00 0.75 -0.15 0.23 11.49 0.50 -1.19 0.12 12461
-0.02 0.72 0.62 -0.36 10.92 0.36 -1.03 0.00 12467
0.02 0.72 1.58 -1.05 10.72 0.25 -0.81 0.03 12473
0.02 0.75 1.11 -1.24 10.83 0.16 -0.59 0.05 12480
0.02 0.75 0.60 -0.58 9.93 0.09 -0.41 0.06 12486
0.01 0.79 0.30 -0.83 10.42 0.03 -0.29 0.03 12492
0.01 0.78 0.52 -0.86 10.80 0.01 -0.24 0.01 12498
0.01 0.83 0.87 -0.73 9.76 0.01 -0.21 0.01 12506
0.01 0.85 1.33 -0.68 10.07 0.01 -0.21 0.02 12512
0.01 0.84 1.27 -0.62 9.84 0.02 -0.21 0.01 12518
0.00 0.82 0.81 -0.67 10.27 0.02 -0.20 0.02 12524
0.04 0.78 0.87 -0.66 9.98 0.02 -0.19 0.03 12530
0.01 0.72 0.81 -0.71 10.02 0.03 -0.16 0.04 12537
0.01 0.68 0.80 -0.70 10.01 0.03 -0.14 0.05 12544
0.04 0.65 0.89 -0.73 9.96 0.03 -0.12 0.04 12550
0.04 0.60 0.89 -0.72 9.96 0.02 -0.11 0.05 12556
0.06 0.57 0.90 -0.73 10.16 0.02 -0.10 0.05 12562
0.06 0.54 0.88 -0.71 9.94 0.02 -0.10 0.04 12569
0.05 0.47 0.94 -0.74 10.02 0.02 -0.10 0.04 12575
0.05 0.47 0.91 -0.70 10.03 0.02 -0.09 0.03 12581
0.05 0.46 0.88 -0.74 9.97 0.01 -0.09 0.03 12588
0.04 0.40 0.85 -0.72 9.92 0.00 -0.08 0.03 12594
0.07 0.37 0.85 -0.71 10.01 0.01 -0.07 0.02 12601
0.08 0.35 0.83 -0.69 10.04 0.01 -0.07 0.03 12607
0.06 0.33 0.87 -0.71 9.98 0.01 -0.06 0.03 12613
0.09 0.29 0.83 -0.70 9.98 0.01 -0.06 0.03 12619
0.09 0.28 0.84 -0.73 10.00 0.01 -0.06 0.03 12626
0.09 0.27 0.86 -0.74 10.02 0.01 -0.06 0.03 12633
0.10 0.28 0.85 -0.71 10.04 0.01 -0.06 0.03 12639
0.10 0.22 0.83 -0.77 10.03 0.01 -0.06 0.03 12645
0.10 0.22 0.85 -0.79 10.02 0.01 -0.06 0.03 12651
0.10 0.24 0.87 -0.73 10.01 0.01 -0.06 0.03 12658
0.09 0.18 0.87 -0.75 9.93 0.01 -0.07 0.03 12664
0.12 0.22 0.85 -0.76 9.98 0.01 -0.07 0.03 12670
0.14 0.18 0.87 -0.75 9.97 0.00 -0.07 0.02 12677
0.12 0.17 0.85 -0.73 9.97 0.00 -0.08 0.02 12683
0.15 0.17 0.84 -0.74 10.02 -0.00 -0.07 0.02 12690
0.15 0.17 0.81 -0.77 9.96 -0.00 -0.07 0.02 12696
0.14 0.16 0.81 -0.77 9.99 -0.00 -0.07 0.02 12702
0.19 0.13 0.86 -0.77 10.04 -0.00 -0.08 0.02 12708
0.19 0.12 0.81 -0.76 10.07 -0.00 -0.07 0.02 12715
0.20 0.14 0.83 -0.75 9.98 -0.00 -0.07 0.02 12722
0.23 0.15 0.81 -0.81 10.01 -0.01 -0.07 0.02 12728
0.23 0.11 0.86 -0.75 9.97 -0.01 -0.07 0.02 12734
0.22 0.11 0.83 -0.76 10.00 -0.01 -0.06 0.02 12740
0.21 0.13 0.83 -0.77 9.98 -0.01 -0.05 0.02 12746
0.21 0.11 0.82 -0.79 10.00 -0.01 -0.05 0.02 12753
0.22 0.12 0.82 -0.75 10.01 -0.01 -0.04 0.02 12760
0.23 0.08 0.82 -0.74 10.04 -0.01 -0.04 0.03 12766
0.22 0.08 0.72 -0.74 9.97 -0.00 -0.03 0.03 12772
0.26 0.04 0.89 -0.80 10.03 -0.00 -0.02 0.03 12779
0.25 0.03 0.82 -0.73 9.97 0.00 -0.02 0.03 12785
0.25 0.01 0.85 -0.78 10.04 -0.00 -0.02 0.03 12791
0.29 0.03 0.78 -0.74 9.94 0.00 -0.01 0.04 12797
0.29 0.02 0.83 -0.81 10.11 0.01 -0.01 0.04 12804
0.28 0.02 0.86 -0.78 10.01 0.01 -0.01 0.05 12811
0.27 0.03 0.87 -0.79 10.02 0.01 -0.01 0.04 12817
0.30 0.00 0.75 -0.72 10.02 0.01 0.00 0.05 12823
0.30 0.04 0.86 -0.79 9.94 0.01 0.01 0.05 12829
0.32 0.01 0.81 -0.82 10.05 0.01 0.01 0.05 12835
0.25 0.03 0.81 -0.76 9.97 0.02 0.02 0.05 12843
0.30 0.01 0.85 -0.76 10.00 0.02 0.02 0.05 12849
0.28 0.00 0.87 -0.77 9.97 0.01 0.03 0.05 12855
0.30 -0.03 0.86 -0.79 10.00 0.02 0.04 0.05 12861
0.28 -0.01 0.86 -0.73 9.95 0.02 0.05 0.05 12867
0.30 -0.02 0.86 -0.82 9.99 0.02 0.05 0.05 12874
0.26 -0.03 0.89 -0.76 10.03 0.02 0.05 0.06 12880
0.24 -0.01 0.91 -0.73 9.98 0.03 0.04 0.05 12887
0.25 -0.02 0.91 -0.79 10.05 0.02 0.05 0.05 12893
0.25 -0.03 0.92 -0.80 9.98 0.02 0.04 0.05 12899
0.26 -0.03 0.91 -0.84 9.98 0.02 0.04 0.05 12905
0.30 -0.03 0.88 -0.78 10.05 0.02 0.03 0.05 12911
0.29 -0.03 0.95 -0.75 10.06 0.02 0.02 0.05 12918
0.26 -0.03 0.84 -0.85 10.02 0.03 0.03 0.05 12924
0.26 -0.03 0.91 -0.81 10.04 0.03 0.03 0.05 12931
0.28 -0.03 0.88 -0.71 9.97 0.03 0.03 0.04 12937
0.30 -0.03 0.88 -0.92 9.92 0.04 0.04 0.05 12943
0.33 -0.01 0.94 -0.83 10.07 0.04 0.04 0.05 12949
0.33 -0.02 0.89 -0.79 10.11 0.04 0.03 0.05 12956
0.31 -0.02 0.85 -0.87 10.01 0.04 0.03 0.05 12962
0.32 -0.03 0.90 -0.86 10.02 0.05 0.02 0.05 12968
0.33 -0.02 0.91 -0.83 10.01 0.06 0.02 0.05 12975
0.32 -0.02 0.90 -0.86 10.01 0.07 0.02 0.05 12982
0.39 -0.03 0.93 -0.85 10.00 0.08 0.03 0.04 12988
0.41 -0.04 1.01 -0.86 9.98 0.09 0.04 0.04 12994
0.42 -0.03 1.00 -0.87 10.01 0.09 0.05 0.04 13000
0.44 -0.02 1.06 -0.93 10.04 0.10 0.06 0.03 13006
0.46 -0.03 1.02 -0.92 10.00 0.11 0.07 0.02 13014
0.46 -0.02 0.99 -0.90 10.07 0.12 0.08 0.02 13020
0.47 -0.03 0.97 -0.94 10.10 0.15 0.10 0.02 13026
0.48 -0.02 1.02 -0.91 10.11 0.18 0.11 0.02 13032
0.53 -0.03 1.02 -0.91 10.20 0.23 0.12 0.01 13039
0.52 -0.04 1.03 -0.98 10.20 0.29 0.13 0.01 13045
0.54 -0.02 1.14 -1.01 10.16 0.37 0.16 0.00 13051
0.58 -0.03 1.13 -1.03 10.19 0.45 0.18 -0.00 13058
0.54 -0.03 1.14 -1.10 10.53 0.55 0.22 -0.01 13065
0.57 -0.03 1.15 -1.16 10.41 0.68 0.25 -0.02 13071
0.58 -0.04 1.18 -1.16 10.62 0.79 0.27 -0.03 13077
0.60 -0.03 1.26 -1.25 10.92 0.93 0.30 -0.05 13083
0.60 -0.04 1.28 -1.35 10.99 1.07 0.34 -0.08 13090
0.58 -0.03 1.36 -1.51 10.84 1.18 0.34 -0.08 13096
0.59 -0.04 1.42 -1.56 10.71 1.25 0.37 -0.09 13103
0.57 -0.04 1.47 -1.61 10.85 1.32 0.41 -0.10 13109
0.58 -0.03 1.50 -1.74 11.09 1.39 0.47 -0.11 13116
0.56 -0.03 1.47 -1.92 11.52 1.48 0.55 -0.13 13122
0.52 -0.03 1.41 -1.91 11.53 1.61 0.64 -0.14 13128
0.48 -0.03 1.42 -2.15 11.91 1.74 0.72 -0.13 13135
0.43 -0.03 1.32 -2.22 12.29 1.91 0.83 -0.12 13142
0.41 -0.03 1.73 -2.48 12.37 2.11 0.95 -0.11 13148
0.29 -0.03 1.30 -2.45 12.30 2.29 1.08 -0.10 13154
0.20 -0.01 1.38 -2.69 12.55 2.45 1.25 -0.09 13161
0.17 -0.02 1.03 -2.85 12.52 2.61 1.51 -0.05 13167
0.12 -0.01 0.94 -3.29 13.21 2.80 1.82 0.02 13173
0.12 -0.01 0.85 -3.46 13.53 2.95 2.17 0.10 13179
0.10 -0.01 1.12 -3.91 13.71 3.09 2.46 0.19 13186
0.09 -0.01 0.84 -4.16 15.82 3.25 2.84 0.29 13193
0.13 -0.01 2.30 -4.44 16.03 3.44 3.15 0.34 13199
0.08 -0.01 3.24 -4.38 16.86 3.64 3.37 0.34 13205
0.07 -0.01 3.96 -4.97 18.58 3.81 3.65 0.35 13211
0.08 -0.01 4.88 -5.92 20.10 3.97 3.87 0.34 13217
0.07 -0.01 4.44 -5.61 21.90 4.13 4.04 0.36 13224
0.06 -0.01 5.91 -6.59 20.27 4.20 4.24 0.44 13231
0.08 -0.00 9.05 -6.65 21.20 4.20 4.28 0.53 13237
0.06 -0.01 12.75 -6.93 21.77 4.11 4.28 0.57 13243
0.04 -0.00 13.43 -6.80 23.98 3.93 4.28 0.39 13250
0.05 -0.00 9.86 -6.13 23.08 3.82 4.28 0.14 13256
0.04 -0.00 4.83 -5.13 21.98 3.80 4.28 -0.16 13262
0.06 -0.01 -0.95 -3.41 20.58 3.90 4.28 -0.42 13268
0.05 -0.00 -4.22 -1.22 19.29 4.00 4.28 -0.68 13275
0.05 -0.01 -5.89 0.80 17.57 3.99 4.28 -0.91 13282
0.05 0.00 -6.34 2.73 16.39 3.80 4.28 -1.05 13288
0.04 0.00 -5.56 4.74 15.29 3.47 3.25 -1.09 13294
0.05 -0.01 -5.67 6.81 15.03 3.17 2.02 -1.04 13300
0.06 -0.01 -10.60 8.95 3.06 2.97 0.80 -1.20 13307
0.03 0.01 -10.15 5.15 18.56 2.02 -1.47 -1.34 13314
0.04 -0.00 -6.38 9.63 10.82 -0.12 -2.77 -1.28 13320
0.04 -0.00 -0.81 8.33 15.35 -1.39 -3.78 -1.20 13326
0.04 0.01 0.64 4.14 16.73 -2.06 -4.18 -1.26 13333
0.05 -0.00 0.66 2.06 13.40 -2.44 -4.16 -1.52 13339
0.04 -0.00 0.94 0.83 11.46 -2.47 -3.96 -1.94 13345
0.04 -0.00 1.34 0.09 9.89 -2.36 -3.70 -2.41 13351
0.04 -0.00 1.63 -0.20 8.10 -2.21 -3.40 -2.83 13358
0.04 -0.00 1.77 0.03 7.12 -2.08 -3.14 -3.11 13364
0.05 -0.01 2.03 0.57 7.00 -1.99 -2.98 -3.37 13371
0.04 -0.00 2.39 1.05 7.37 -1.96 -2.87 -3.57 13377
0.03 -0.00 2.84 1.38 7.54 -2.00 -2.82 -3.69 13383
0.02 -0.00 3.22 1.61 7.68 -2.08 -2.85 -3.73 13389
0.04 -0.00 3.27 1.70 7.70 -2.16 -2.91 -3.71 13395
0.04 -0.00 3.72 1.80 8.41 -2.27 -3.00 -3.63 13402
0.04 -0.00 4.90 1.54 8.96 -2.38 -3.10 -3.51 13409
0.06 -0.01 4.92 1.35 9.29 -2.51 -3.28 -3.35 13415
0.04 -0.00 5.93 1.34 9.79 -2.65 -3.44 -3.19 13421
0.03 -0.00 7.19 1.18 10.11 -2.82 -3.56 -2.98 13427
0.06 -0.01 8.44 0.91 10.23 -3.01 -3.60 -2.73 13433
0.04 -0.00 9.57 0.64 10.49 -3.21 -3.52 -2.45 13441
0.03 -0.00 10.46 0.20 10.77 -3.42 -3.33 -2.16 13447
0.04 -0.00 11.05 -0.07 10.48 -3.59 -3.10 -1.87 13453
0.04 -0.00 11.28 -0.48 10.14 -3.74 -2.85 -1.59 13459
0.04 -0.00 11.28 -0.97 9.70 -3.84 -2.60 -1.31 13466
0.03 -0.00 11.30 -1.68 9.11 -3.89 -2.37 -1.07 13472
0.04 -0.00 11.27 -2.41 8.77 -3.89 -2.18 -0.86 13478
0.06 -0.01 11.41 -3.27 8.62 -3.84 -2.00 -0.67 13485
0.05 -0.00 11.58 -4.11 8.64 -3.76 -1.83 -0.50 13491
0.04 -0.00 11.71 -4.78 8.85 -3.67 -1.65 -0.33 13498
0.03 -0.00 11.90 -5.30 9.11 -3.52 -1.45 -0.16 13504
0.03 -0.00 12.15 -5.74 9.29 -3.43 -1.25 0.02 13510
0.04 0.00 12.48 -6.05 9.76 -3.31 -1.03 0.20 13516
0.03 -0.00 12.66 -6.32 10.12 -3.20 -0.77 0.39 13523
0.03 -0.00 12.84 -6.68 10.57 -3.09 -0.49 0.58 13530
0.04 -0.00 12.93 -7.12 10.90 -3.00 -0.14 0.75 13536
0.04 -0.00 12.90 -7.69 11.50 -2.91 0.20 0.91 13542
0.04 -0.00 12.71 -8.21 11.86 -2.83 0.51 1.06 13549
0.03 -0.00 11.71 -8.60 12.12 -2.77 0.86 1.21 13555
0.03 -0.00 11.78 -8.90 12.43 -2.71 1.09 1.34 13561
0.05 -0.00 11.14 -9.19 12.51 -2.66 1.24 1.48 13568
0.04 -0.00 10.54 -9.49 12.50 -2.62 1.34 1.60 13575
0.04 -0.00 10.15 -9.79 12.39 -2.56 1.37 1.68 13581
0.03 -0.00 9.85 -10.04 12.14 -2.49 1.37 1.74 13587
0.02 -0.00 9.58 -10.17 11.85 -2.41 1.38 1.76 13593
0.02 -0.00 9.36 -10.29 11.50 -2.32 1.37 1.74 13600
0.01 -0.00 9.14 -10.41 11.04 -2.21 1.38 1.69 13606
0.04 -0.00 8.85 -10.52 10.68 -2.07 1.41 1.59 13613
0.02 -0.00 8.52 -10.52 10.35 -1.92 1.45 1.47 13619
0.03 0.00 8.17 -10.58 10.42 -1.74 1.54 1.32 13626
0.02 -0.00 8.06 -10.57 10.80 -1.55 1.62 1.17 13632
0.02 -0.00 8.10 -10.33 10.00 -1.37 1.73 1.01 13638
0.04 -0.00 7.04 -9.30 11.57 -1.22 2.00 0.91 13644
0.02 -0.00 7.41 -10.14 11.69 -1.09 2.28 0.81 13651
0.02 -0.00 6.81 -10.41 12.56 -1.04 2.35 0.72 13658
0.03 -0.00 6.17 -10.01 13.04 -1.02 2.40 0.67 13664
0.01 -0.00 5.83 -10.00 13.03 -1.02 2.50 0.63 13670
0.03 -0.00 5.49 -9.98 13.11 -1.04 2.57 0.57 13677
0.03 -0.00 5.10 -9.94 13.11 -1.07 2.60 0.58 13683
0.03 -0.00 4.75 -9.90 13.02 -1.09 2.62 0.54 13689
0.03 -0.00 4.48 -9.89 12.96 -1.11 2.66 0.50 13696
0.03 -0.00 4.24 -9.85 12.98 -1.12 2.72 0.45 13702
0.03 -0.00 3.92 -9.95 12.91 -1.13 2.79 0.40 13709
0.04 -0.00 3.41 -10.01 12.79 -1.15 2.83 0.34 13715
0.03 -0.00 2.96 -10.05 12.75 -1.14 2.86 0.28 13721
0.03 -0.00 2.48 -10.16 12.64 -1.12 2.88 0.20 13727
0.03 -0.00 2.04 -10.45 12.66 -1.09 2.89 0.11 13734
0.02 -0.00 1.59 -10.76 12.64 -1.06 2.88 0.01 13741
0.02 -0.00 1.06 -11.15 12.63 -1.02 2.85 -0.11 13747
0.02 -0.00 0.46 -11.31 12.22 -0.97 2.83 -0.23 13753
0.02 -0.00 -0.50 -11.03 11.66 -0.90 2.91 -0.32 13760
0.04 -0.00 -1.76 -10.84 11.19 -0.79 3.15 -0.32 13766
0.04 -0.00 -2.80 -11.13 10.86 -0.64 3.43 -0.22 13772
0.04 -0.00 -4.35 -11.42 10.46 -0.48 3.58 -0.11 13779
0.04 -0.00 -6.49 -11.73 10.89 -0.31 3.66 -0.02 13786
0.06 -0.01 -7.98 -12.33 11.17 -0.16 3.52 0.04 13792
0.04 -0.00 -8.95 -12.83 10.96 -0.06 2.99 0.07 13798
0.03 -0.00 -9.62 -12.83 10.35 0.01 2.20 0.09 13805
0.03 -0.00 -9.38 -12.77 9.56 0.04 1.32 0.10 13811
0.03 -0.00 -8.16 -12.80 8.86 0.04 0.49 0.10 13817
0.03 -0.00 -6.53 -13.29 8.61 0.04 -0.21 0.08 13824
0.04 -0.00 -4.47 -14.11 8.48 0.07 -0.68 0.03 13830
0.03 -0.00 -3.56 -14.95 8.38 0.13 -0.89 -0.04 13836
0.03 0.01 -2.39 -15.53 8.24 0.24 -0.92 -0.11 13843
0.02 -0.00 -3.46 -11.66 15.06 0.50 -1.05 -0.06 13849
0.02 -0.00 -25.61 -7.26 28.23 1.94 -4.27 1.01 13855
0.03 -0.00 7.74 1.37 11.16 1.71 -4.28 1.70 13861
0.03 -0.00 10.61 19.40 8.46 1.26 -4.28 2.00 13869
0.02 0.00 10.92 8.96 14.52 0.96 -4.28 2.34 13875
0.03 -0.00 3.65 7.12 9.22 0.74 -4.26 2.66 13881
0.01 -0.00 0.30 1.69 4.34 0.76 -3.81 2.77 13887
0.03 0.01 -2.70 -0.12 5.19 0.85 -3.63 2.70 13893
0.04 0.01 -6.27 0.84 8.65 1.11 -3.70 2.46 13900
0.02 0.13 -7.49 3.21 12.45 1.48 -3.61 2.06 13906
0.03 0.26 -8.97 3.74 16.65 1.93 -3.11 1.56 13913
0.02 0.38 -10.80 2.09 17.79 2.27 -2.33 1.02 13920
0.02 0.61 -10.06 1.18 17.00 2.42 -1.75 0.38 13926
0.00 0.73 -6.48 -0.07 16.79 2.42 -1.52 -0.24 13932
0.02 0.72 -0.50 -1.24 19.01 2.34 -1.57 -0.68 13938
0.01 0.75 5.20 -2.30 23.70 1.93 -1.96 -0.72 13945
-0.01 0.80 5.38 -3.58 16.63 1.12 -1.73 -0.28 13952
0.01 0.80 2.35 -2.68 14.46 0.63 -0.94 0.08 13958
0.00 0.89 2.53 -1.65 10.24 0.31 -0.39 0.16 13964
0.00 0.93 1.99 -1.25 9.83 0.28 -0.29 0.23 13971
0.01 0.95 0.63 -0.29 10.43 0.34 -0.44 0.23 13977
-0.00 0.91 0.37 -0.15 10.63 0.31 -0.50 0.09 13983
0.01 0.93 1.60 -0.66 10.39 0.25 -0.43 0.02 13989
0.00 0.92 1.71 -1.00 10.08 0.18 -0.29 0.05 13997
0.00 0.92 1.40 -1.41 10.36 0.16 -0.24 0.07 14003
-0.00 0.90 1.51 -0.75 10.10 0.15 -0.22 0.08 14009
0.00 0.92 1.18 -0.66 10.28 0.13 -0.16 0.07 14015
0.02 0.88 1.25 -0.75 10.15 0.11 -0.08 0.06 14022
0.02 0.80 1.32 -0.98 10.27 0.07 0.00 0.06 14028
0.02 0.81 1.33 -0.87 9.98 0.06 0.06 0.07 14034
0.02 0.79 1.37 -0.77 10.02 0.06 0.08 0.09 14041
0.01 0.72 1.41 -1.08 10.08 0.06 0.10 0.10 14048
0.02 0.71 1.35 -0.80 10.21 0.05 0.14 0.10 14054
0.01 0.72 1.50 -0.85 10.22 0.03 0.16 0.10 14060
0.01 0.65 1.57 -0.95 10.04 0.02 0.17 0.09 14066
0.02 0.62 1.54 -0.86 9.97 0.01 0.16 0.08 14073
0.02 0.58 1.59 -0.83 9.96 0.01 0.16 0.07 14080
0.01 0.56 1.54 -0.79 9.98 0.00 0.15 0.05 14086
0.03 0.54 1.57 -0.17 9.92 -0.00 0.14 0.03 14092
0.02 0.46 1.56 -0.79 9.92 -0.01 0.13 0.02 14098
0.01 0.44 1.61 -0.81 9.98 -0.01 0.12 0.01 14104
0.03 0.40 1.65 -0.97 9.85 -0.01 0.12 0.01 14111
0.02 0.40 1.65 -0.80 10.01 -0.02 0.12 0.01 14117
0.01 0.48 1.61 -0.76 9.93 -0.02 0.13 0.00 14124
0.03 0.41 1.63 -0.75 9.95 -0.02 0.13 0.00 14130
0.03 0.41 1.69 -0.76 9.89 -0.01 0.11 -0.01 14136
0.03 0.37 1.72 -0.78 9.89 -0.02 0.10 -0.01 14143
0.02 0.38 1.71 -0.71 9.86 -0.01 0.08 -0.02 14149
0.02 0.36 1.72 -0.76 9.89 -0.01 0.05 -0.02 14155
0.02 0.37 1.69 -0.78 9.93 -0.01 0.00 -0.03 14161
0.03 0.28 1.71 -0.76 9.88 -0.01 0.00 -0.03 14168
0.02 0.31 1.75 -0.79 9.84 -0.00 -0.02 -0.04 14175
0.02 0.32 1.76 -0.75 9.92 0.00 -0.03 -0.04 14181
0.04 0.27 1.73 -0.75 9.87 0.00 -0.05 -0.05 14187
0.03 0.26 1.72 -0.75 9.86 0.01 -0.07 -0.05 14193
0.02 0.30 1.68 -0.81 9.94 0.01 -0.09 -0.05 14199
0.02 0.28 1.70 -0.81 9.99 0.01 -0.09 -0.05 14205
0.02 0.28 1.67 -0.72 9.98 0.02 -0.10 -0.05 14213
0.04 0.31 1.70 -0.86 9.98 0.02 -0.10 -0.05 14219
0.05 0.27 1.65 -0.84 10.03 0.01 -0.08 -0.05 14225
0.04 0.22 1.67 -0.85 9.98 0.01 -0.06 -0.05 14231
0.04 0.23 1.69 -0.88 9.96 0.00 -0.06 -0.04 14237
0.04 0.21 1.67 -0.81 9.94 0.00 -0.05 -0.04 14244
0.04 0.17 1.72 -0.80 9.96 0.01 -0.05 -0.04 14251
0.04 0.15 1.71 -0.84 9.96 0.01 -0.06 -0.04 14257
0.06 0.12 1.68 -0.89 9.90 0.01 -0.06 -0.03 14263
0.02 0.16 1.96 -0.77 10.30 0.02 -0.07 -0.03 14269
-0.00 0.18 1.62 -0.83 9.95 0.01 -0.09 -0.03 14276
0.04 0.09 1.73 -0.74 9.88 0.01 -0.10 -0.04 14282
0.03 0.12 1.65 -0.77 9.96 0.01 -0.08 -0.03 14288
0.03 0.10 1.61 -0.90 9.98 0.01 -0.08 -0.03 14295
0.04 0.08 1.63 -0.81 9.82 -0.00 -0.05 -0.02 14301
0.03 0.10 1.63 -0.81 9.94 0.00 -0.07 -0.02 14307
0.02 0.08 1.83 -0.75 9.80 0.01 -0.07 -0.02 14314
0.06 0.07 1.60 -0.81 10.02 0.01 -0.09 -0.03 14320
0.05 0.06 1.62 -0.86 9.99 0.01 -0.08 -0.02 14326
0.02 0.13 1.72 -0.80 9.92 0.02 -0.09 -0.02 14332
0.03 0.10 1.68 -0.81 9.90 0.02 -0.09 -0.02 14339
0.04 0.05 1.64 -0.82 9.92 0.02 -0.10 -0.02 14346
0.05 0.07 1.62 -0.85 9.98 0.02 -0.09 -0.02 14352
0.06 0.05 1.59 -0.88 9.98 0.03 -0.09 -0.02 14358
0.05 0.03 1.60 -0.82 9.91 0.02 -0.09 -0.01 14364
0.05 0.07 1.58 -0.83 9.96 0.02 -0.08 -0.01 14370
0.05 0.05 1.53 -0.87 10.03 0.02 -0.09 -0.01 14377
0.03 0.04 1.60 -0.84 9.92 0.03 -0.09 -0.01 14384
0.06 0.07 1.57 -0.83 9.96 0.03 -0.09 -0.01 14390
0.06 0.04 1.58 -0.80 9.89 0.03 -0.08 -0.01 14396
0.05 0.02 1.56 -0.86 9.98 0.02 -0.07 -0.01 14402
0.04 0.03 1.58 -0.89 9.98 0.02 -0.06 -0.01 14408
0.05 0.04 1.58 -0.84 9.91 0.01 -0.05 -0.01 14415
0.03 0.03 1.58 -0.85 10.08 0.01 -0.03 -0.01 14422
0.05 0.02 1.53 -0.91 10.05 0.01 -0.03 -0.00 14428
0.05 0.02 1.58 -0.89 9.95 0.01 -0.03 -0.00 14434
0.04 0.01 1.64 -1.04 9.93 0.01 -0.02 -0.00 14440
0.04 0.02 1.57 -0.81 9.92 0.01 -0.02 -0.00 14447
0.03 -0.00 1.65 -0.90 9.92 0.01 -0.02 -0.01 14453
0.05 -0.00 1.56 -0.85 9.89 0.01 -0.03 -0.01 14459
0.04 -0.00 1.81 -0.81 9.88 0.01 -0.03 -0.01 14466
0.04 -0.00 1.58 -0.85 9.97 0.02 -0.05 -0.02 14472
0.04 -0.00 1.65 -0.91 9.91 0.02 -0.07 -0.02 14478
0.05 -0.00 1.68 -0.80 9.91 0.03 -0.10 -0.03 14484
0.04 -0.00 1.60 -0.77 9.90 0.04 -0.14 -0.04 14490
0.06 -0.00 1.72 -0.77 9.81 0.05 -0.18 -0.05 14497
0.05 -0.00 1.63 -0.86 9.98 0.06 -0.21 -0.07 14503
0.04 -0.00 1.65 -0.81 9.85 0.06 -0.23 -0.07 14510
0.05 0.01 1.55 -0.75 10.07 0.06 -0.25 -0.08 14516
0.04 -0.00 1.49 -0.99 10.05 0.07 -0.27 -0.08 14522
0.04 -0.00 1.56 -0.90 9.96 0.07 -0.29 -0.09 14528
0.07 0.00 1.81 -0.75 10.03 0.06 -0.30 -0.10 14535
0.09 -0.01 1.43 -0.93 10.07 0.05 -0.29 -0.11 14541
0.07 -0.01 1.42 -0.96 10.19 0.04 -0.27 -0.12 14547
0.09 -0.01 1.41 -1.00 10.00 0.05 -0.26 -0.13 14554
0.10 -0.01 1.55 -1.02 10.08 0.05 -0.22 -0.15 14560
0.11 -0.01 1.71 -1.23 10.03 0.05 -0.17 -0.17 14567
0.19 -0.01 1.58 -0.91 10.27 0.07 -0.12 -0.18 14573
0.21 -0.02 1.32 -1.04 10.23 0.13 -0.07 -0.18 14579
0.21 -0.01 1.30 -1.12 10.23 0.20 -0.02 -0.18 14585
0.23 -0.02 1.22 -1.15 10.30 0.30 0.04 -0.18 14593
0.27 -0.02 1.17 -1.03 10.48 0.42 0.13 -0.17 14599
0.25 -0.02 1.19 -1.14 10.65 0.56 0.20 -0.15 14605
0.26 -0.02 1.41 -1.14 10.58 0.73 0.30 -0.14 14611
0.25 -0.02 1.31 -1.23 10.94 0.95 0.43 -0.15 14618
0.21 -0.02 1.26 -1.36 11.64 1.23 0.57 -0.14 14624
0.18 -0.02 1.15 -1.56 12.02 1.54 0.73 -0.13 14630
0.15 -0.02 1.70 -1.51 13.35 1.81 0.94 -0.14 14637
0.13 -0.01 2.29 -1.86 13.16 2.11 1.13 -0.19 14643
0.08 -0.01 2.20 -1.88 13.36 2.34 1.34 -0.23 14650
0.10 -0.01 1.62 -2.08 13.34 2.51 1.47 -0.24 14656
0.06 -0.01 1.47 -2.23 13.02 2.61 1.66 -0.20 14662
0.06 -0.01 1.51 -2.44 13.59 2.70 1.77 -0.15 14668
0.09 -0.01 1.59 -2.56 14.00 2.86 1.91 -0.09 14675
0.09 -0.01 1.78 -2.74 14.80 3.04 2.05 -0.04 14682
0.06 0.00 2.14 -3.07 14.58 3.23 2.24 -0.02 14688
0.07 -0.01 1.75 -3.35 15.71 3.41 2.37 0.01 14694
0.04 -0.00 2.84 -3.01 16.83 3.58 2.53 0.07 14700
0.08 0.00 3.13 -4.05 16.93 3.77 2.59 0.10 14707
0.07 -0.01 3.08 -4.27 18.72 3.94 2.64 0.12 14713
0.05 -0.00 4.55 -5.14 20.37 4.09 2.88 0.16 14720
0.07 -0.01 5.90 -5.34 21.53 4.19 3.27 0.18 14726
0.06 -0.01 7.78 -5.15 21.33 4.21 3.83 0.21 14733
0.06 -0.00 11.42 -5.71 21.64 4.13 4.28 0.24 14739
0.05 -0.00 14.18 -5.46 22.93 3.87 4.28 0.18 14745
0.03 -0.00 14.96 -5.05 23.09 3.52 4.28 0.00 14751
0.05 -0.01 10.90 -4.09 23.15 3.23 4.28 -0.31 14758
0.05 -0.00 6.03 -3.43 22.36 3.04 4.28 -0.67 14765
0.04 0.00 1.63 -3.27 22.59 2.97 4.28 -0.99 14771
0.05 -0.00 -3.71 -1.21 22.17 3.01 4.28 -1.33 14777
0.02 -0.00 -7.24 0.25 19.78 3.13 4.28 -1.73 14783
0.04 0.01 -10.17 1.94 15.89 3.21 4.28 -2.11 14790
0.03 -0.00 -15.83 2.22 11.34 3.22 4.28 -2.48 14796
0.02 0.01 -19.73 3.06 6.52 2.96 4.27 -3.13 14802
0.06 -0.01 -19.11 4.73 14.36 1.73 1.53 -3.48 14810
0.03 -0.00 -15.45 7.79 11.01 -0.02 -0.90 -3.47 14816
0.06 -0.01 -8.76 6.21 14.18 -1.26 -2.95 -3.25 14822
0.05 -0.01 -4.49 1.79 18.12 -1.98 -4.26 -3.10 14828
0.05 0.00 -1.92 -0.71 16.73 -2.38 -4.28 -3.11 14835
0.05 -0.00 0.09 -1.87 15.28 -2.51 -4.28 -3.30 14841
0.03 -0.00 1.90 -2.35 14.07 -2.53 -4.28 -3.59 14848
0.03 -0.00 3.39 -2.22 12.02 -2.45 -4.28 -3.88 14854
0.04 -0.00 3.83 -1.75 10.46 -2.31 -4.08 -4.12 14860
0.03 -0.00 3.97 -1.01 9.45 -2.18 -3.63 -4.27 14867
0.04 -0.00 3.84 -0.36 8.72 -2.09 -3.16 -4.28 14873
0.03 -0.00 3.60 0.30 8.64 -2.05 -2.80 -4.28 14879
0.03 -0.00 3.46 0.75 8.46 -2.08 -2.58 -4.28 14885
0.03 -0.00 3.35 1.16 8.18 -2.16 -2.50 -4.28 14892
0.02 -0.00 3.11 1.54 8.54 -2.28 -2.55 -4.25 14898
0.01 -0.00 3.13 1.57 8.95 -2.40 -2.68 -4.07 14905
0.04 0.01 3.65 1.10 9.62 -2.53 -2.86 -3.83 14911
0.04 0.00 4.30 0.48 10.06 -2.66 -3.08 -3.49 14917
0.03 -0.00 5.69 0.20 10.00 -2.73 -3.30 -3.10 14923
0.03 -0.00 6.98 0.20 9.98 -2.85 -3.51 -2.69 14929
0.02 -0.00 8.06 0.29 10.22 -3.01 -3.62 -2.30 14937
0.02 -0.00 9.08 0.17 9.67 -3.18 -3.66 -1.91 14943
0.02 -0.00 9.87 -0.17 9.82 -3.34 -3.59 -1.56 14949
0.03 -0.00 10.60 -0.66 10.21 -3.49 -3.41 -1.30 14955
0.04 -0.00 11.17 -1.17 9.20 -3.61 -3.18 -1.02 14961
0.05 -0.00 11.58 -1.80 9.32 -3.69 -2.91 -0.77 14968
0.04 -0.00 11.75 -2.28 8.67 -3.73 -2.59 -0.54 14974
0.03 -0.00 11.89 -2.80 8.20 -3.72 -2.28 -0.33 14981
0.04 -0.00 12.04 -3.24 7.84 -3.68 -1.99 -0.13 14987
0.02 -0.00 12.24 -3.88 8.21 -3.61 -1.69 0.06 14993
0.03 -0.00 12.21 -4.49 8.00 -3.51 -1.40 0.26 15000
0.04 -0.00 12.40 -5.02 8.33 -3.41 -1.13 0.44 15006
0.02 -0.00 12.49 -5.35 8.47 -3.29 -0.85 0.62 15012
0.03 0.01 12.67 -5.76 9.06 -3.18 -0.56 0.80 15019
0.03 -0.00 12.83 -6.26 9.49 -3.08 -0.28 0.97 15026
0.02 -0.00 12.78 -6.73 9.99 -3.03 -0.02 1.12 15032
0.03 -0.00 12.43 -7.28 10.45 -2.96 0.22 1.26 15038
0.03 -0.00 12.11 -7.76 10.65 -2.89 0.42 1.39 15044
0.04 -0.00 11.80 -8.21 10.85 -2.81 0.59 1.51 15051
0.03 -0.00 11.58 -8.64 11.14 -2.74 0.72 1.61 15057
0.03 -0.00 11.42 -8.86 11.48 -2.66 0.78 1.68 15064
0.04 -0.00 11.24 -8.89 11.66 -2.59 0.88 1.76 15070
0.03 -0.00 11.31 -8.81 11.89 -2.54 0.98 1.83 15077
0.03 -0.00 11.14 -8.88 12.15 -2.49 1.11 1.88 15083
0.04 -0.00 10.94 -9.21 11.98 -2.44 1.24 1.91 15089
0.03 -0.00 10.62 -9.55 11.95 -2.39 1.35 1.92 15095
0.05 -0.00 10.37 -9.87 11.82 -2.32 1.42 1.90 15102
0.04 -0.00 10.05 -10.36 11.61 -2.22 1.48 1.84 15109
0.05 -0.01 9.56 -10.81 11.29 -2.09 1.59 1.73 15115
0.04 -0.00 9.11 -11.33 11.22 -1.93 1.64 1.58 15121
0.04 -0.00 8.46 -11.87 11.26 -1.74 1.76 1.40 15128
0.04 -0.00 7.81 -12.23 11.44 -1.54 1.86 1.18 15134
0.02 -0.00 7.20 -12.51 11.70 -1.35 1.95 0.95 15140
0.05 -0.00 6.15 -12.68 12.09 -1.18 2.08 0.72 15147
0.04 -0.00 5.56 -12.76 12.39 -1.04 2.23 0.52 15154
0.04 0.00 5.63 -12.83 12.55 -0.95 2.38 0.34 15160
0.05 -0.00 5.20 -12.56 12.93 -0.89 2.53 0.20 15166
0.04 -0.00 4.75 -12.18 13.19 -0.87 2.57 0.11 15173
0.05 -0.00 4.52 -11.65 13.39 -0.88 2.60 0.08 15179
0.04 -0.00 4.37 -11.12 13.66 -0.92 2.59 0.09 15185
0.04 0.00 4.35 -10.64 13.64 -0.97 2.58 0.14 15192
0.04 -0.00 4.09 -10.37 13.41 -1.05 2.58 0.22 15199
0.05 -0.00 3.89 -10.10 13.05 -1.12 2.58 0.30 15205
0.05 -0.01 3.62 -9.96 12.85 -1.19 2.57 0.39 15211
0.04 -0.00 3.44 -9.86 12.63 -1.23 2.60 0.47 15217
0.04 -0.00 3.20 -9.82 12.53 -1.25 2.67 0.57 15223
0.04 -0.00 2.93 -9.86 12.37 -1.25 2.78 0.61 15230
0.04 -0.00 2.49 -10.12 12.22 -1.24 2.91 0.67 15237
0.03 -0.00 1.83 -10.55 12.17 -1.21 3.03 0.73 15243
0.02 -0.00 1.09 -10.93 12.03 -1.16 3.07 0.76 15249
0.03 -0.00 0.23 -11.27 11.98 -1.10 3.02 0.78 15256
0.03 -0.00 -0.68 -11.55 11.81 -1.03 2.89 0.80 15262
0.02 -0.00 -1.55 -11.63 11.45 -0.96 2.69 0.81 15268
0.03 -0.00 -2.49 -11.49 11.20 -0.87 2.46 0.83 15275
0.03 -0.00 -3.25 -11.20 11.02 -0.76 2.30 0.90 15282
0.03 -0.00 -3.88 -11.13 10.79 -0.64 2.20 1.03 15288
0.03 -0.00 -4.56 -11.10 10.41 -0.53 2.09 1.19 15294
0.02 -0.00 -5.37 -11.32 10.46 -0.42 1.96 1.35 15301
0.04 -0.00 -6.08 -11.76 10.65 -0.35 1.74 1.47 15307
0.03 -0.00 -6.85 -12.33 10.46 -0.29 1.41 1.51 15313
0.03 -0.00 -7.44 -12.70 10.05 -0.23 1.04 1.51 15320
0.02 -0.00 -8.63 -13.61 9.55 -0.15 0.68 1.48 15327
0.01 -0.00 -22.70 -21.47 16.93 0.42 -0.68 1.62 15333
0.03 -0.00 -18.16 -17.52 11.40 1.14 -2.34 2.06 15339
0.02 -0.00 -15.58 -16.81 6.12 1.37 -3.82 2.22 15345
0.03 -0.00 -3.15 -7.46 3.74 1.45 -4.28 2.08 15352
0.03 -0.00 -0.37 -3.16 5.11 1.28 -4.28 1.76 15358
0.01 -0.00 1.25 -2.29 10.64 1.23 -4.28 1.63 15365
0.02 0.00 2.91 4.78 14.64 1.18 -4.28 1.72 15371
0.03 -0.00 1.78 8.01 16.07 1.12 -4.28 1.95 15377
0.04 0.02 -1.27 7.65 15.09 1.29 -3.27 2.03 15384
0.04 0.16 -4.77 3.96 11.92 1.58 -1.72 1.94 15390
0.02 0.30 -9.08 1.85 10.56 1.87 -1.01 1.63 15396
0.01 0.45 -11.37 -0.38 12.83 2.16 -0.87 1.08 15404
0.01 0.54 -11.63 -0.39 14.99 2.36 -0.95 0.35 15410
0.01 0.57 -7.47 -0.26 16.03 2.48 -1.08 -0.42 15416
0.01 0.65 -0.27 -1.12 19.02 2.43 -1.27 -0.99 15422
0.00 0.66 6.79 -2.79 27.02 1.71 -2.09 -0.99 15429
