Voltage_01 Voltage_02 Acc_x Acc_y Acc_z Gyro_x Gyro_y Gyro_z Time
5000
0.82 -0.04 0.93 -2.74 11.76 2.24 0.60 -0.15 23
0.74 -0.04 0.62 -2.91 12.13 2.41 0.76 -0.11 29
0.67 -0.03 0.29 -2.96 12.22 2.59 0.97 -0.06 35
0.59 -0.03 0.23 -3.27 12.42 2.77 1.23 0.01 41
0.43 -0.02 0.17 -3.57 12.77 2.92 1.53 0.10 48
0.31 -0.03 -0.01 -3.76 12.65 3.09 1.78 0.19 55
0.23 -0.01 0.01 -4.32 13.29 3.24 2.03 0.32 61
0.18 -0.02 0.23 -4.51 14.15 3.39 2.30 0.42 67
0.19 -0.02 -0.23 -4.97 16.12 3.52 2.57 0.57 73
0.13 -0.01 0.71 -5.93 16.34 3.65 2.94 0.72 79
0.09 -0.00 1.93 -6.78 17.33 3.77 3.26 0.82 86
0.11 -0.01 2.15 -7.50 19.24 3.93 3.47 0.89 92
0.10 -0.01 2.72 -8.18 21.73 4.12 3.70 0.95 98
0.07 -0.01 3.85 -8.38 22.23 4.23 4.07 1.00 104
0.06 -0.01 3.87 -8.80 20.88 4.28 4.22 1.05 110
0.07 -0.01 3.65 -8.33 19.90 4.28 4.27 1.17 116
0.08 -0.01 5.02 -8.14 20.93 4.24 4.28 1.26 122
0.06 -0.01 6.38 -8.02 21.07 4.16 4.28 1.27 130
0.05 -0.00 5.84 -7.73 21.11 4.07 4.28 1.20 136
0.07 -0.01 3.78 -5.79 22.34 3.97 4.28 1.04 142
0.05 -0.01 0.53 -3.84 22.78 3.86 4.28 0.81 148
0.05 -0.00 -2.17 -2.14 21.39 3.80 4.28 0.56 154
0.04 0.00 -5.30 0.60 19.33 3.76 4.28 0.28 160
0.05 0.01 -5.72 3.78 15.98 3.69 4.28 0.00 166
0.05 -0.00 -7.05 5.66 13.23 3.53 3.97 -0.24 173
0.05 -0.01 -6.88 5.44 15.45 3.25 2.49 -0.37 179
0.04 -0.00 -14.61 7.29 7.35 3.20 0.99 -0.72 186
0.05 -0.01 -13.78 8.55 16.70 2.83 -1.32 -1.57 192
0.03 -0.00 -8.61 9.04 13.86 0.91 -2.94 -1.94 198
0.03 -0.00 -3.05 11.31 9.48 -0.78 -3.92 -2.06 204
0.06 -0.01 1.26 9.07 16.39 -1.56 -4.28 -2.14 210
0.05 -0.01 2.04 4.68 16.25 -2.15 -4.27 -2.41 217
0.05 -0.00 2.09 3.08 14.83 -2.46 -3.94 -2.85 223
0.04 -0.00 2.69 2.24 13.62 -2.57 -3.34 -3.28 229
0.04 -0.00 2.76 2.03 11.43 -2.62 -2.78 -3.70 236
0.05 -0.00 2.28 2.30 9.64 -2.65 -2.36 -4.00 242
0.04 -0.00 1.93 2.83 8.99 -2.70 -2.12 -4.21 248
0.04 -0.00 1.77 3.14 9.29 -2.79 -2.04 -4.28 254
0.04 -0.00 1.90 3.37 9.53 -2.93 -2.09 -4.28 261
0.03 -0.00 2.29 3.46 10.15 -3.09 -2.26 -4.28 267
0.03 -0.00 3.01 3.18 10.74 -3.28 -2.43 -4.28 273
0.04 -0.00 3.64 2.96 11.49 -3.49 -2.57 -4.15 279
0.04 -0.00 4.39 2.54 12.06 -3.69 -2.65 -3.89 285
0.06 -0.01 4.86 1.88 12.46 -3.94 -2.69 -3.53 291
0.04 -0.00 5.92 1.12 12.12 -4.14 -2.78 -3.16 297
0.04 -0.00 6.74 0.44 11.79 -4.25 -2.96 -2.86 305
0.03 0.00 7.55 -0.28 12.11 -4.28 -3.14 -2.54 311
0.04 -0.00 8.31 -1.28 12.18 -4.28 -3.31 -2.25 317
0.03 -0.00 9.12 -2.07 12.18 -4.28 -3.42 -1.98 323
0.03 -0.00 9.86 -2.68 12.01 -4.28 -3.42 -1.73 329
0.04 0.01 10.55 -3.38 11.55 -4.28 -3.36 -1.51 335
0.03 -0.00 11.43 -4.02 10.86 -4.28 -3.22 -1.34 343
0.02 -0.00 12.16 -4.51 10.39 -4.28 -2.98 -1.23 349
0.03 -0.00 13.02 -5.11 10.06 -4.28 -2.64 -1.14 355
0.02 -0.00 13.80 -5.64 9.97 -4.27 -2.18 -1.05 361
0.03 -0.00 14.31 -6.15 9.91 -4.22 -1.65 -0.96 367
0.03 -0.00 14.23 -6.81 9.96 -4.11 -1.13 -0.85 373
0.04 -0.00 13.78 -7.26 10.24 -3.93 -0.65 -0.71 379
0.03 -0.00 13.55 -7.82 10.54 -3.76 -0.24 -0.54 387
0.03 -0.00 13.37 -8.49 11.22 -3.55 0.12 -0.34 393
0.05 -0.00 13.27 -9.18 11.79 -3.34 0.38 -0.14 399
0.03 -0.00 13.19 -10.39 12.41 -3.13 0.71 0.06 405
0.02 -0.00 13.00 -10.54 12.85 -2.93 1.07 0.22 411
0.03 -0.00 12.54 -11.31 13.08 -2.74 1.43 0.41 417
0.03 -0.00 11.78 -11.74 13.23 -2.56 1.77 0.61 424
0.03 -0.00 10.93 -12.11 13.38 -2.37 2.05 0.80 431
0.04 -0.00 10.05 -12.46 13.34 -2.18 2.26 0.98 437
0.03 -0.00 9.18 -12.73 13.24 -1.99 2.41 1.12 443
0.02 -0.00 8.40 -12.95 13.11 -1.81 2.50 1.22 449
0.04 -0.00 7.62 -13.09 12.94 -1.62 2.53 1.27 456
0.04 -0.00 6.92 -13.28 12.80 -1.49 2.55 1.26 462
0.02 -0.00 6.10 -13.41 12.75 -1.34 2.51 1.20 468
0.03 -0.00 5.52 -13.32 12.86 -1.20 2.51 1.09 475
0.03 -0.00 5.05 -13.07 13.19 -1.08 2.47 0.95 481
0.02 -0.00 4.81 -12.73 13.64 -0.99 2.45 0.82 487
0.03 0.00 4.60 -12.48 14.66 -0.95 2.50 0.67 494
0.03 -0.00 4.32 -12.33 14.44 -0.95 2.60 0.53 500
0.03 -0.00 3.94 -12.25 14.62 -1.00 2.73 0.41 506
0.03 -0.00 3.34 -12.16 14.54 -1.07 2.86 0.32 513
0.02 -0.00 2.59 -11.99 14.34 -1.12 2.97 0.25 519
0.03 -0.00 2.01 -11.86 14.18 -1.19 3.04 0.20 525
0.03 -0.00 1.59 -11.78 13.71 -1.24 3.08 0.18 532
0.04 -0.00 1.07 -11.74 13.17 -1.28 3.08 0.17 538
0.04 -0.00 0.64 -11.72 12.98 -1.31 3.05 0.19 544
0.03 -0.00 0.10 -11.70 12.94 -1.32 2.94 0.22 550
0.04 0.01 -0.40 -11.51 12.83 -1.34 2.79 0.26 557
0.04 -0.00 -0.99 -11.21 12.55 -1.35 2.60 0.30 563
0.04 -0.00 -1.31 -11.03 12.24 -1.34 2.39 0.35 569
0.04 0.00 -1.53 -10.85 11.75 -1.31 2.18 0.40 576
0.03 -0.00 -1.55 -10.87 11.31 -1.21 2.00 0.44 582
0.04 -0.00 -1.49 -10.89 10.77 -1.15 1.85 0.48 588
0.04 0.00 -1.54 -10.88 10.29 -1.03 1.74 0.53 594
0.04 -0.00 -1.65 -10.68 9.87 -0.90 1.74 0.58 601
0.03 -0.00 -1.97 -10.53 9.83 -0.74 1.75 0.66 607
0.04 -0.00 -2.53 -10.36 9.90 -0.59 1.79 0.70 614
0.03 -0.00 -3.29 -10.18 10.17 -0.46 1.80 0.80 620
0.04 -0.00 -4.05 -9.97 10.38 -0.38 1.73 0.88 626
0.04 -0.00 -4.77 -9.92 10.46 -0.30 1.57 0.95 632
0.03 -0.00 -5.29 -9.85 10.34 -0.31 1.35 1.01 638
0.04 -0.00 -5.54 -9.92 9.99 -0.28 1.11 1.03 645
0.03 -0.00 -5.55 -10.06 9.60 -0.23 0.84 1.04 651
0.03 -0.00 -5.33 -10.21 9.02 -0.16 0.60 1.03 657
0.02 -0.00 -5.09 -10.30 8.50 -0.05 0.39 0.99 663
0.04 -0.00 -4.84 -10.38 8.02 0.07 0.22 0.91 669
0.04 -0.00 -4.51 -10.43 7.66 0.22 0.12 0.81 675
0.04 -0.00 -4.16 -10.40 7.42 0.38 0.02 0.67 683
0.03 -0.00 -3.85 -10.46 7.96 0.55 -0.06 0.57 689
0.04 0.01 -3.49 -10.55 7.37 0.73 -0.11 0.43 695
0.04 -0.00 -3.21 -10.63 7.44 0.90 -0.14 0.29 701
0.04 -0.00 -4.88 -8.28 9.76 1.14 -0.36 0.23 707
0.03 -0.00 -13.65 -2.45 20.31 2.07 -2.48 0.74 713
0.03 -0.00 1.29 2.74 12.43 2.06 -2.77 1.06 719
0.04 -0.00 3.17 8.73 11.68 1.88 -3.27 1.06 726
0.03 -0.00 9.81 15.54 14.00 1.66 -3.24 1.27 733
0.03 -0.00 9.66 12.80 13.31 1.32 -2.98 1.52 739
0.05 -0.00 2.22 5.40 11.49 1.23 -2.49 1.73 745
0.03 -0.00 0.07 -0.83 9.29 1.31 -1.95 1.81 751
0.03 -0.00 -1.19 -1.85 8.11 1.46 -1.74 1.76 757
0.02 0.00 -1.65 -1.61 7.54 1.58 -1.80 1.63 763
0.04 0.07 -2.99 -0.30 7.87 1.61 -2.14 1.43 770
0.04 0.07 -4.46 2.01 9.81 1.62 -2.65 1.06 776
0.02 0.15 -4.98 3.49 13.00 1.62 -2.98 0.60 782
0.00 0.19 -4.28 2.81 16.25 1.61 -2.91 0.17 788
0.02 0.33 -3.28 0.88 16.01 1.62 -2.45 -0.15 795
0.02 0.43 -1.32 -0.55 14.68 1.63 -1.97 -0.36 801
-0.00 0.44 0.06 -1.27 14.74 1.68 -1.69 -0.48 807
0.01 0.46 2.52 -1.92 20.05 1.55 -1.87 -0.48 814
0.01 0.51 3.94 -2.06 15.26 0.97 -1.84 -0.19 820
0.01 0.58 2.09 -1.88 14.67 0.65 -1.23 0.05 826
0.01 0.67 0.69 -1.47 12.60 0.31 -0.66 0.13 833
0.01 0.67 0.59 -1.41 11.30 0.20 -0.45 0.15 839
0.01 0.74 0.40 -0.97 10.47 0.19 -0.48 0.12 845
0.00 0.74 0.56 -0.58 10.70 0.18 -0.51 0.06 851
0.02 0.76 0.87 -0.88 10.35 0.15 -0.41 0.04 858
0.01 0.74 1.66 -1.21 10.49 0.11 -0.33 0.06 864
-0.00 0.78 1.06 -1.00 9.96 0.09 -0.30 0.06 870
0.01 0.81 1.00 -1.05 10.14 0.08 -0.31 0.05 877
0.01 0.78 0.96 -0.92 9.99 0.07 -0.30 0.05 883
0.01 0.84 1.01 -0.78 9.97 0.05 -0.27 0.05 889
0.01 0.83 0.88 -0.72 10.01 0.03 -0.23 0.05 896
0.01 0.84 0.96 -0.92 10.23 0.01 -0.20 0.05 902
0.01 0.86 0.83 -0.73 10.03 -0.00 -0.17 0.05 908
0.01 0.87 0.82 -0.77 10.03 -0.01 -0.15 0.06 914
-0.00 0.87 0.92 -0.78 9.91 -0.02 -0.15 0.06 920
0.01 0.90 0.88 -0.77 9.99 -0.02 -0.14 0.05 926
0.02 0.87 0.84 -0.82 10.09 -0.02 -0.14 0.05 933
0.01 0.91 0.86 -0.74 9.88 -0.01 -0.13 0.05 940
-0.00 0.90 0.89 -0.79 10.09 -0.01 -0.13 0.05 946
0.02 0.90 0.85 -0.78 10.05 -0.01 -0.12 0.05 952
0.01 0.88 0.85 -0.77 10.05 -0.00 -0.11 0.05 958
0.00 0.86 0.85 -0.76 9.98 -0.00 -0.10 0.05 964
0.01 0.86 0.80 -0.74 9.95 -0.00 -0.10 0.05 970
0.03 0.85 0.82 -0.78 10.02 0.00 -0.10 0.05 976
0.02 0.84 0.81 -0.77 9.94 0.00 -0.10 0.05 983
0.02 0.81 0.81 -0.79 9.98 0.00 -0.09 0.05 990
0.01 0.78 0.85 -0.79 10.12 0.01 -0.09 0.05 996
0.03 0.76 0.83 -0.80 10.03 0.00 -0.09 0.05 1002
0.02 0.74 0.80 -0.76 10.01 0.00 -0.08 0.04 1008
0.02 0.70 0.79 -0.74 9.96 0.00 -0.08 0.05 1014
0.03 0.67 0.80 -0.74 9.96 0.01 -0.07 0.04 1020
0.05 0.66 0.84 -0.72 9.98 0.01 -0.06 0.05 1027
0.06 0.64 0.81 -0.73 9.98 0.01 -0.05 0.05 1034
0.06 0.62 0.83 -0.75 10.01 0.01 -0.05 0.05 1040
0.07 0.59 0.80 -0.78 10.02 0.02 -0.05 0.05 1046
0.08 0.51 0.80 -0.78 9.99 0.01 -0.05 0.04 1052
0.06 0.55 0.83 -0.80 9.98 0.01 -0.04 0.04 1058
0.07 0.53 0.84 -0.79 10.00 0.01 -0.04 0.04 1064
0.08 0.49 0.79 -0.79 10.03 0.01 -0.03 0.04 1071
0.07 0.46 0.79 -0.78 9.97 0.01 -0.03 0.04 1078
0.08 0.46 0.79 -0.79 9.98 0.01 -0.02 0.04 1084
0.08 0.47 0.83 -0.76 9.92 0.01 -0.02 0.04 1090
0.08 0.44 0.81 -0.79 10.07 0.01 -0.01 0.04 1096
0.08 0.44 0.82 -0.83 9.96 0.01 -0.00 0.04 1102
0.09 0.41 0.81 -0.81 9.97 0.01 0.00 0.04 1108
0.09 0.40 0.84 -0.80 9.94 0.01 0.01 0.04 1115
0.10 0.32 0.86 -0.78 9.97 0.01 0.01 0.04 1122
0.11 0.37 0.86 -0.79 10.02 0.01 0.01 0.04 1128
0.13 0.36 0.88 -0.82 9.92 0.01 0.01 0.04 1134
0.11 0.31 0.90 -0.81 9.99 0.01 0.00 0.04 1140
0.10 0.35 0.83 -0.79 9.95 0.01 -0.00 0.04 1146
0.12 0.32 0.82 -0.81 9.93 0.01 -0.00 0.04 1153
0.11 0.26 0.87 -0.79 10.00 0.01 0.00 0.04 1159
0.11 0.25 0.85 -0.83 9.96 0.01 0.00 0.04 1166
0.11 0.25 0.91 -0.77 9.96 0.01 0.00 0.04 1172
0.13 0.23 0.83 -0.81 9.99 0.01 0.01 0.04 1178
0.12 0.17 0.88 -0.78 10.01 0.01 0.01 0.04 1184
0.12 0.16 0.89 -0.81 10.00 0.01 0.01 0.04 1190
0.12 0.17 0.85 -0.85 10.03 0.02 0.01 0.04 1197
0.12 0.14 0.84 -0.82 10.01 0.02 0.02 0.05 1204
0.10 0.13 0.91 -0.78 9.98 0.02 0.02 0.05 1210
0.13 0.13 0.86 -0.85 10.01 0.02 0.02 0.05 1216
0.13 0.13 0.87 -0.86 10.00 0.02 0.03 0.05 1222
0.12 0.12 0.85 -0.80 10.03 0.02 0.03 0.05 1228
0.13 0.10 0.89 -0.82 9.97 0.02 0.03 0.06 1234
0.13 0.07 0.93 -0.85 10.01 0.02 0.03 0.05 1241
0.14 0.06 0.92 -0.82 9.96 0.02 0.03 0.05 1248
0.13 0.06 0.92 -0.82 9.99 0.02 0.03 0.05 1254
0.17 0.05 0.98 -0.80 10.05 0.02 0.03 0.05 1260
0.16 0.04 0.96 -0.88 9.95 0.03 0.03 0.05 1266
0.15 0.03 0.97 -0.85 9.98 0.03 0.03 0.05 1272
0.14 0.03 0.91 -0.86 10.04 0.03 0.03 0.05 1278
0.14 0.03 0.90 -0.92 9.97 0.02 0.02 0.05 1285
0.14 0.00 0.95 -0.89 10.00 0.03 0.03 0.05 1292
0.14 0.02 0.93 -0.85 10.01 0.03 0.03 0.05 1298
0.15 0.02 0.96 -0.89 9.98 0.03 0.02 0.05 1304
0.15 -0.00 0.97 -0.86 9.99 0.03 0.02 0.04 1310
0.15 -0.00 0.94 -0.75 9.92 0.03 0.01 0.04 1316
0.19 0.00 1.04 -1.05 9.97 0.04 0.01 0.04 1323
0.20 -0.02 0.96 -0.88 9.96 0.05 0.01 0.04 1329
0.22 -0.02 0.96 -0.86 10.01 0.05 0.00 0.04 1335
0.21 -0.02 0.99 -0.87 10.06 0.06 0.01 0.04 1342
0.21 -0.01 0.98 -0.90 10.03 0.07 0.01 0.03 1348
0.24 -0.02 1.00 -0.93 10.06 0.08 0.01 0.04 1354
0.25 -0.02 1.00 -0.93 9.97 0.08 0.02 0.03 1360
0.29 -0.02 1.03 -0.87 10.04 0.09 0.02 0.04 1367
0.32 -0.03 1.03 -0.97 9.99 0.10 0.03 0.03 1373
0.32 -0.03 1.03 -0.96 10.01 0.11 0.04 0.02 1379
0.32 -0.03 1.01 -0.94 10.05 0.13 0.05 0.02 1386
0.39 -0.02 0.97 -0.93 10.10 0.16 0.07 0.02 1392
0.37 -0.02 1.10 -1.00 10.06 0.18 0.08 0.02 1398
0.39 -0.03 1.03 -0.99 10.29 0.24 0.09 0.01 1404
0.42 -0.03 1.11 -1.04 10.32 0.31 0.11 0.00 1411
0.43 -0.02 1.17 -1.03 10.27 0.42 0.12 -0.02 1418
0.47 -0.03 0.63 -1.15 10.60 0.54 0.14 -0.03 1424
0.49 -0.03 1.23 -1.22 10.54 0.70 0.17 -0.05 1430
0.54 -0.04 1.30 -1.28 10.77 0.88 0.21 -0.08 1436
0.57 -0.02 1.37 -1.29 11.05 1.07 0.23 -0.13 1442
0.59 -0.04 1.33 -1.41 11.28 1.26 0.25 -0.13 1449
0.59 -0.03 1.37 -1.52 11.48 1.40 0.23 -0.15 1456
0.62 -0.02 1.44 -1.59 11.49 1.51 0.21 -0.18 1462
0.65 -0.04 1.43 -1.77 11.61 1.59 0.21 -0.19 1468
0.69 -0.04 1.36 -1.76 11.62 1.67 0.21 -0.20 1475
0.71 -0.04 1.42 -1.96 11.53 1.75 0.20 -0.21 1481
0.69 -0.05 1.32 -2.06 11.52 1.84 0.21 -0.22 1487
0.68 -0.03 1.48 -2.24 11.65 1.95 0.22 -0.23 1494
0.66 -0.04 1.30 -2.26 11.74 2.08 0.25 -0.24 1500
0.65 -0.04 1.41 -2.49 11.78 2.22 0.28 -0.23 1507
0.61 -0.03 1.31 -2.49 11.58 2.35 0.34 -0.23 1513
0.58 -0.04 1.30 -2.70 11.71 2.49 0.43 -0.23 1519
0.51 -0.03 1.21 -2.91 11.86 2.64 0.57 -0.21 1525
0.49 -0.03 0.90 -3.02 11.79 2.78 0.78 -0.18 1532
0.46 -0.04 0.90 -3.22 12.45 2.98 1.02 -0.14 1539
0.33 -0.02 0.82 -3.45 12.49 3.14 1.28 -0.09 1545
0.23 -0.02 0.50 -3.66 12.71 3.34 1.53 -0.02 1551
0.22 -0.02 0.57 -4.29 14.15 3.53 1.73 0.07 1557
0.12 -0.01 0.33 -4.72 15.03 3.72 1.92 0.20 1564
0.14 -0.01 -0.08 -5.12 15.72 3.87 2.04 0.37 1570
0.12 -0.01 0.79 -6.39 14.86 3.93 2.40 0.55 1576
0.09 -0.01 1.37 -7.56 18.54 3.89 2.62 0.73 1583
0.11 -0.01 4.11 -8.37 20.83 4.03 3.11 0.84 1589
0.08 -0.01 5.92 -8.88 22.60 4.18 3.72 0.84 1595
0.07 -0.01 6.87 -9.05 21.83 4.24 4.24 0.87 1602
0.09 -0.01 7.79 -8.64 22.61 4.26 4.28 0.91 1608
0.07 -0.01 9.51 -8.38 23.07 4.23 4.28 1.01 1614
0.05 -0.00 9.95 -8.79 25.58 4.08 4.28 1.03 1620
0.04 -0.00 8.52 -8.04 24.84 3.87 4.28 0.87 1627
0.03 -0.00 4.14 -7.05 24.92 3.72 4.28 0.62 1633
0.04 -0.00 -0.85 -4.60 24.37 3.64 4.28 0.25 1639
0.04 -0.00 -6.16 -1.35 22.03 3.60 4.28 -0.15 1646
0.04 -0.00 -9.77 2.43 18.34 3.50 4.28 -0.57 1652
0.04 -0.00 -10.35 5.13 16.21 3.28 4.28 -0.89 1658
0.04 0.01 -10.25 7.29 15.74 2.86 3.25 -0.99 1665
0.04 -0.00 -20.88 13.51 6.55 2.56 1.33 -1.21 1672
0.04 -0.00 -13.17 9.19 13.87 1.86 -1.88 -1.94 1678
0.03 -0.00 -9.37 10.19 15.26 0.14 -3.90 -2.09 1684
0.05 -0.00 -1.44 10.70 15.25 -1.44 -4.28 -2.02 1690
0.05 -0.01 1.52 6.57 18.39 -2.13 -4.28 -2.07 1696
0.06 -0.01 2.19 3.84 17.18 -2.48 -4.28 -2.39 1703
0.04 -0.00 2.79 2.76 14.60 -2.58 -4.14 -2.88 1710
0.03 -0.00 3.61 2.32 11.96 -2.51 -3.35 -3.38 1716
0.05 -0.00 3.06 2.24 8.96 -2.41 -2.62 -3.75 1722
0.03 -0.00 2.10 2.97 8.01 -2.35 -2.06 -4.08 1728
0.03 -0.00 1.48 3.65 7.71 -2.34 -1.72 -4.27 1734
0.04 -0.00 1.26 3.94 8.01 -2.41 -1.60 -4.28 1740
0.04 -0.00 1.25 3.91 8.66 -2.52 -1.66 -4.28 1746
0.02 -0.00 1.37 3.82 9.04 -2.68 -1.81 -4.28 1754
0.00 0.00 1.74 3.60 9.30 -2.86 -2.01 -4.28 1760
0.04 -0.00 2.26 3.31 9.74 -3.03 -2.21 -4.15 1766
0.05 -0.01 3.06 3.09 10.46 -3.21 -2.41 -3.84 1772
0.04 -0.00 3.68 2.57 10.68 -3.38 -2.64 -3.46 1778
0.03 -0.00 4.38 1.89 10.10 -3.52 -2.92 -3.02 1784
0.04 -0.00 5.57 1.47 10.54 -3.64 -3.22 -2.58 1790
0.04 -0.00 6.66 1.04 10.65 -3.78 -3.54 -2.18 1798
0.02 -0.00 7.65 0.33 10.96 -3.90 -3.77 -1.83 1804
0.03 0.01 8.97 -0.34 11.34 -4.01 -3.83 -1.52 1810
0.04 -0.00 10.15 -0.83 12.11 -4.09 -3.75 -1.26 1816
0.04 -0.00 11.56 -1.54 11.74 -4.14 -3.48 -1.02 1822
0.05 -0.00 12.50 -2.18 11.51 -4.18 -3.10 -0.86 1829
0.03 -0.00 13.08 -2.83 11.38 -4.19 -2.63 -0.72 1836
0.03 -0.00 13.38 -3.47 10.45 -4.20 -2.14 -0.59 1842
0.03 -0.00 13.57 -4.21 10.86 -4.19 -1.68 -0.46 1848
0.03 -0.00 13.73 -4.93 10.74 -4.15 -1.29 -0.32 1855
0.04 0.00 13.69 -5.68 10.87 -4.10 -0.96 -0.16 1861
0.03 -0.00 13.66 -6.64 11.01 -4.01 -0.68 0.01 1867
0.03 -0.00 13.67 -7.65 11.08 -3.87 -0.44 0.19 1873
0.05 -0.01 13.68 -8.64 11.35 -3.71 -0.22 0.38 1880
0.05 -0.01 13.59 -9.62 11.43 -3.53 -0.01 0.57 1887
0.03 -0.00 13.79 -10.31 11.56 -3.32 0.21 0.77 1893
0.04 -0.00 13.84 -10.90 11.75 -3.11 0.42 0.95 1899
0.04 -0.00 13.67 -11.40 11.83 -2.88 0.65 1.12 1905
0.05 -0.01 13.43 -11.67 11.90 -2.66 0.88 1.28 1912
0.03 -0.00 12.91 -11.84 12.08 -2.44 1.10 1.41 1918
0.04 -0.00 12.39 -11.78 12.36 -2.22 1.28 1.53 1925
0.03 -0.00 11.78 -11.55 12.57 -2.02 1.42 1.61 1932
0.02 -0.00 11.19 -11.32 12.77 -1.85 1.54 1.65 1938
0.05 -0.00 10.55 -11.14 12.92 -1.71 1.63 1.66 1944
0.04 -0.00 10.06 -11.08 13.24 -1.59 1.72 1.63 1950
0.04 -0.00 9.57 -11.05 13.63 -1.50 1.84 1.54 1957
0.03 -0.00 8.97 -11.31 13.73 -1.43 2.02 1.41 1964
0.03 -0.00 8.18 -11.59 13.86 -1.38 2.24 1.24 1970
0.03 -0.00 7.38 -11.80 14.11 -1.34 2.49 1.04 1976
0.03 -0.00 6.59 -12.00 14.31 -1.30 2.75 0.83 1982
0.04 -0.00 5.96 -12.23 14.53 -1.28 3.02 0.61 1989
0.05 -0.01 5.28 -12.46 14.74 -1.26 3.34 0.42 1995
0.03 -0.00 4.59 -12.70 15.19 -1.26 3.57 0.24 2001
0.03 -0.00 3.81 -13.01 15.34 -1.28 3.83 0.09 2008
0.04 -0.00 2.80 -13.07 15.78 -1.33 4.02 -0.01 2014
0.03 -0.00 1.49 -13.10 16.11 -1.42 4.10 -0.09 2021
0.03 0.00 0.15 -12.99 16.12 -1.54 4.05 -0.14 2027
0.04 -0.00 -0.96 -12.82 15.36 -1.66 3.89 -0.14 2033
0.02 -0.00 -1.83 -12.53 15.29 -1.79 3.65 -0.13 2039
0.05 -0.00 -2.25 -12.61 14.52 -1.88 3.34 -0.12 2046
0.04 -0.00 -2.57 -12.67 13.77 -1.93 3.02 -0.11 2053
0.04 -0.00 -2.55 -12.85 12.96 -1.91 2.74 -0.11 2059
0.05 -0.00 -2.56 -13.05 12.32 -1.85 2.53 -0.12 2065
0.04 -0.00 -2.52 -13.32 11.81 -1.74 2.41 -0.13 2071
0.04 -0.00 -2.52 -13.51 11.35 -1.60 2.39 -0.15 2078
0.04 -0.00 -2.67 -13.59 10.90 -1.44 2.44 -0.16 2084
0.03 -0.00 -3.11 -13.29 10.42 -1.28 2.53 -0.15 2091
0.04 -0.00 -3.76 -12.89 10.26 -1.12 2.66 -0.11 2097
0.04 -0.00 -4.58 -12.75 10.13 -0.96 2.81 -0.01 2104
0.04 -0.00 -5.40 -12.84 10.25 -0.83 2.88 0.10 2110
0.06 -0.01 -6.46 -13.11 10.35 -0.67 2.83 0.22 2116
0.04 -0.00 -7.54 -13.42 10.35 -0.50 2.63 0.32 2122
0.04 -0.00 -8.28 -13.56 10.00 -0.34 2.26 0.42 2128
0.04 -0.00 -8.86 -13.68 9.32 -0.18 1.88 0.50 2136
0.04 -0.00 -8.95 -13.88 8.61 -0.03 1.33 0.58 2142
0.04 -0.00 -8.58 -14.08 7.98 0.11 0.75 0.63 2148
0.05 -0.00 -7.72 -14.42 7.70 0.27 0.18 0.69 2154
0.03 -0.00 -6.63 -14.73 7.43 0.45 -0.29 0.72 2160
0.03 -0.00 -5.73 -14.88 7.56 0.67 -0.66 0.76 2166
0.03 -0.00 -19.02 -9.36 23.86 1.74 -2.78 1.14 2173
0.04 -0.00 2.96 -0.05 14.72 2.04 -3.69 1.81 2180
0.03 -0.00 8.06 6.25 11.92 1.92 -4.02 1.83 2186
0.04 -0.00 10.52 13.52 12.41 1.65 -3.64 1.99 2192
0.04 -0.00 7.93 9.07 10.16 1.40 -3.15 2.26 2198
0.03 0.02 2.54 0.77 9.12 1.27 -2.72 2.45 2204
0.03 0.04 0.92 -1.75 6.67 1.33 -2.43 2.51 2211
0.02 0.05 -0.88 -1.59 7.25 1.46 -2.38 2.42 2217
0.02 0.05 -3.29 -0.85 6.64 1.56 -2.59 2.26 2224
0.03 0.11 -4.99 0.70 7.97 1.73 -3.00 1.94 2230
0.03 0.14 -5.18 2.20 10.96 1.92 -3.37 1.55 2236
0.03 0.23 -4.22 2.18 14.02 2.06 -3.38 1.19 2243
0.02 0.35 -3.42 1.36 15.88 2.16 -2.94 0.91 2249
0.03 0.43 -4.81 1.37 15.23 2.23 -2.43 0.64 2255
0.02 0.47 -4.87 1.15 14.81 2.29 -2.17 0.28 2262
0.03 0.55 -3.59 -0.63 17.53 2.35 -2.25 -0.12 2268
0.02 0.65 1.15 -1.45 23.76 1.89 -3.06 -0.39 2275
0.02 0.70 2.44 -3.30 18.43 1.21 -2.74 -0.19 2281
0.02 0.73 1.40 -1.14 15.37 0.72 -1.90 -0.00 2287
0.01 0.79 0.83 -1.88 12.15 0.40 -1.29 0.05 2293
0.02 0.86 0.51 -0.80 11.37 0.26 -0.96 0.08 2300
0.01 0.88 0.56 -1.06 10.43 0.20 -0.77 0.07 2307
-0.01 0.94 0.50 -0.64 10.89 0.15 -0.66 0.04 2313
0.01 0.91 0.57 -0.78 10.17 0.07 -0.43 0.04 2319
0.01 0.90 0.75 -0.96 10.07 0.01 -0.26 0.05 2325
-0.00 0.98 0.76 -0.88 10.20 -0.01 -0.16 0.06 2332
0.00 0.97 0.72 -0.75 10.16 -0.01 -0.09 0.07 2338
-0.01 0.99 0.75 -0.69 10.23 -0.01 -0.05 0.06 2344
-0.01 1.02 0.80 -0.75 10.17 -0.00 -0.02 0.06 2351
0.01 1.02 0.89 -0.80 10.03 0.01 -0.02 0.07 2357
-0.01 0.99 0.91 -0.78 10.02 0.02 -0.02 0.07 2363
-0.00 0.96 0.95 -0.77 9.95 0.02 -0.03 0.07 2370
0.01 0.92 0.95 -0.73 9.95 0.02 -0.03 0.06 2376
0.01 0.91 0.96 -0.72 9.94 0.02 -0.04 0.06 2382
-0.00 0.89 0.98 -0.72 9.95 0.01 -0.05 0.05 2388
0.02 0.85 0.97 -0.73 9.95 0.02 -0.05 0.05 2395
0.02 0.84 0.94 -0.69 10.01 0.01 -0.05 0.04 2401
0.01 0.80 0.93 -0.70 10.03 0.01 -0.05 0.05 2408
0.02 0.76 0.92 -0.72 10.03 0.02 -0.04 0.04 2414
0.02 0.75 0.90 -0.75 10.03 0.02 -0.03 0.04 2420
0.01 0.72 0.86 -0.75 9.98 0.02 -0.02 0.05 2426
0.01 0.67 0.87 -0.74 9.98 0.03 -0.01 0.05 2433
0.03 0.63 0.97 -0.70 10.09 0.03 0.03 0.05 2439
0.03 0.59 0.91 -0.72 10.01 0.04 0.01 0.06 2446
0.02 0.51 0.92 -0.75 10.04 0.04 0.01 0.06 2452
0.03 0.48 0.97 -0.77 10.04 0.04 0.02 0.06 2458
0.03 0.45 0.95 -0.74 9.98 0.04 0.02 0.06 2464
0.02 0.40 0.98 -0.78 9.98 0.04 0.02 0.06 2470
0.04 0.38 0.98 -0.77 10.03 0.04 0.02 0.06 2477
0.05 0.36 0.98 -0.78 9.97 0.03 0.02 0.06 2483
0.05 0.32 1.02 -0.85 9.97 0.03 0.02 0.05 2490
0.04 0.29 1.02 -0.78 9.98 0.02 0.02 0.06 2496
0.05 0.29 1.01 -0.72 10.08 0.02 0.02 0.06 2502
0.05 0.25 0.99 -0.80 9.98 0.02 0.02 0.06 2508
0.06 0.22 1.09 -0.70 9.92 0.02 0.02 0.05 2514
0.06 0.20 1.03 -0.81 10.02 0.02 0.03 0.06 2521
0.06 0.22 1.03 -0.71 10.05 0.02 0.03 0.06 2527
0.07 0.19 0.97 -0.72 9.96 0.02 0.03 0.05 2534
0.06 0.16 1.06 -0.80 10.01 0.02 0.02 0.05 2540
0.10 0.15 1.07 -0.78 9.99 0.02 0.02 0.05 2546
0.10 0.13 1.04 -0.89 9.85 0.02 0.02 0.05 2552
0.11 0.10 1.05 -0.78 9.98 0.01 0.02 0.05 2558
0.11 0.11 1.04 -0.77 9.97 0.01 0.01 0.05 2565
0.12 0.07 1.04 -0.80 9.97 0.01 0.01 0.04 2571
0.10 0.08 0.96 -0.76 10.04 0.02 0.01 0.04 2577
0.09 0.06 1.00 -0.84 9.98 0.01 0.01 0.05 2584
0.10 0.07 1.10 -0.87 9.99 0.02 0.01 0.04 2590
0.10 0.04 1.09 -0.86 9.98 0.02 0.00 0.05 2596
0.10 0.02 1.09 -0.84 9.92 0.02 0.00 0.04 2603
0.11 -0.01 1.01 -0.84 9.99 0.02 0.01 0.05 2609
0.11 0.01 0.96 -0.76 9.94 0.02 0.01 0.05 2615
0.12 0.01 0.97 -0.85 10.05 0.02 0.00 0.05 2621
0.11 -0.01 1.07 -0.80 9.99 0.02 0.01 0.05 2627
0.19 -0.02 1.08 -0.80 9.95 0.02 0.01 0.04 2633
0.14 0.01 1.15 -0.96 9.96 0.02 0.01 0.04 2640
0.11 -0.01 1.10 -0.87 9.94 0.03 0.02 0.05 2647
0.17 -0.02 1.06 -0.83 10.03 0.03 0.02 0.04 2653
0.17 -0.02 1.16 -0.84 10.01 0.03 0.02 0.04 2659
0.17 -0.01 1.15 -0.89 9.99 0.04 0.02 0.04 2665
0.20 -0.02 1.05 -0.91 10.00 0.04 0.02 0.04 2671
0.16 -0.02 1.10 -0.94 9.99 0.04 0.03 0.04 2677
0.16 -0.01 1.10 -0.28 9.97 0.05 0.03 0.00 2683
0.17 0.00 1.20 -0.79 9.98 0.06 0.06 0.00 2690
0.17 -0.01 1.76 -1.35 9.56 0.05 0.05 0.06 2697
0.18 -0.02 0.95 -0.42 10.16 0.02 0.03 0.03 2703
0.17 -0.02 1.32 -0.81 9.88 0.06 0.05 0.03 2709
0.18 -0.02 1.16 -0.96 9.92 0.06 0.06 0.02 2715
0.13 -0.01 1.14 -0.89 9.95 0.04 0.05 0.02 2721
0.09 -0.01 1.17 -0.93 9.91 0.04 0.05 0.02 2727
0.08 -0.01 1.20 -0.93 10.01 0.05 0.05 0.02 2734
0.12 -0.01 1.18 -0.97 9.97 0.04 0.04 0.01 2740
0.15 -0.02 1.20 -0.92 9.94 0.05 0.03 0.01 2746
0.14 -0.01 1.83 -0.89 9.93 0.05 0.03 0.01 2752
0.12 -0.01 1.34 -0.99 10.02 0.06 0.02 0.00 2759
0.12 -0.01 1.22 -0.91 10.02 0.06 0.02 0.00 2765
0.09 -0.01 1.29 -1.01 9.90 0.06 0.01 -0.00 2771
0.15 -0.02 1.21 -0.98 10.01 0.08 0.02 -0.01 2778
0.15 -0.01 1.18 -0.96 10.10 0.09 0.02 -0.01 2784
0.15 -0.01 1.27 -1.01 10.01 0.11 0.03 -0.02 2790
0.17 -0.02 1.29 -1.05 10.05 0.13 0.03 -0.02 2796
0.16 -0.02 1.29 -1.04 10.10 0.16 0.04 -0.03 2803
0.17 -0.01 1.26 -1.01 10.08 0.21 0.06 -0.03 2809
0.21 -0.01 1.30 -1.07 10.23 0.27 0.07 -0.07 2816
0.25 -0.02 1.30 -1.08 10.22 0.34 0.10 -0.04 2822
0.24 -0.01 1.33 -1.10 10.27 0.40 0.11 -0.04 2828
0.24 -0.02 1.35 -1.15 10.55 0.50 0.16 -0.05 2835
0.27 -0.01 1.31 -1.27 10.30 0.61 0.20 -0.06 2841
0.32 -0.02 1.29 -1.28 10.41 0.72 0.26 -0.06 2847
0.30 -0.03 1.35 -1.33 10.39 0.82 0.30 -0.06 2853
0.38 -0.02 1.47 -1.50 10.88 0.91 0.33 -0.07 2860
0.40 -0.03 1.57 -1.50 10.76 1.05 0.37 -0.08 2867
0.36 -0.03 1.67 -1.65 11.21 1.20 0.40 -0.10 2873
0.37 -0.02 1.74 -1.67 11.36 1.33 0.44 -0.11 2879
0.39 -0.03 1.53 -1.71 11.38 1.43 0.50 -0.13 2885
0.38 -0.03 1.52 -1.86 11.72 1.57 0.57 -0.14 2891
0.35 -0.02 1.40 -1.99 11.46 1.70 0.64 -0.14 2898
0.37 -0.03 1.52 -2.07 12.00 1.85 0.76 -0.14 2905
0.32 -0.02 1.25 -2.21 12.65 2.03 0.87 -0.15 2911
0.31 -0.03 1.99 -2.37 12.43 2.21 0.98 -0.18 2917
0.20 -0.02 2.05 -2.36 12.44 2.39 1.08 -0.23 2923
0.15 -0.02 1.53 -2.67 13.02 2.57 1.19 -0.20 2930
0.15 -0.02 1.26 -2.94 14.04 2.77 1.33 -0.15 2936
0.12 -0.01 1.24 -3.07 14.22 2.98 1.48 -0.09 2942
0.08 -0.01 1.56 -3.32 14.98 3.24 1.72 -0.04 2949
0.09 -0.01 1.74 -3.49 14.83 3.50 1.97 0.00 2955
0.10 -0.01 2.51 -3.94 16.26 3.74 2.26 0.03 2961
0.08 -0.01 3.09 -4.37 17.41 3.92 2.67 0.05 2968
0.09 0.00 3.53 -5.29 17.42 4.03 3.07 0.10 2974
0.10 -0.01 3.48 -5.71 19.26 4.13 3.30 0.15 2980
0.07 -0.01 5.57 -6.91 21.49 4.21 3.70 0.18 2987
0.07 -0.01 8.47 -6.61 23.18 4.26 4.23 0.20 2993
0.08 -0.01 10.33 -7.04 23.72 4.27 4.28 0.23 2999
0.06 -0.01 11.52 -7.43 25.61 4.24 4.28 0.35 3006
0.07 -0.01 11.49 -6.98 26.23 4.09 4.28 0.40 3012
0.05 -0.01 9.50 -6.69 25.86 3.85 4.28 0.14 3018
0.05 -0.00 4.38 -5.74 25.28 3.77 4.28 -0.22 3024
0.05 -0.01 -2.54 -3.54 24.22 3.78 4.28 -0.63 3031
0.05 -0.00 -7.32 -1.30 19.63 3.90 4.28 -0.96 3038
0.05 -0.00 -9.43 1.00 15.64 3.96 4.28 -1.22 3044
0.04 -0.00 -9.72 3.83 12.09 3.77 4.28 -1.35 3050
0.06 -0.00 -7.40 5.30 11.81 3.41 3.27 -1.36 3056
0.05 -0.01 -5.59 7.29 11.92 2.90 1.61 -1.26 3062
0.03 -0.00 -8.95 11.28 3.22 2.44 0.05 -1.39 3068
0.03 -0.00 -10.87 9.54 18.21 1.59 -2.18 -1.82 3076
0.05 -0.00 -4.53 9.57 17.51 -0.60 -3.15 -1.80 3082
0.05 -0.00 1.99 8.49 15.34 -1.76 -4.06 -1.64 3088
0.05 -0.01 2.10 5.29 16.97 -2.19 -4.28 -1.56 3094
0.03 -0.00 1.04 3.55 15.37 -2.43 -4.13 -1.77 3100
0.04 -0.00 0.69 2.35 12.09 -2.46 -3.72 -2.23 3107
0.06 -0.01 0.93 1.63 9.91 -2.38 -3.46 -2.72 3113
0.04 -0.00 0.96 1.69 7.81 -2.27 -3.30 -3.10 3120
0.04 -0.00 0.72 2.02 7.14 -2.18 -3.16 -3.38 3126
0.04 -0.00 0.68 2.31 7.45 -2.10 -3.10 -3.57 3132
0.04 -0.00 1.13 2.33 7.77 -2.06 -3.14 -3.73 3138
0.01 -0.00 1.06 2.57 8.21 -2.05 -3.28 -3.83 3144
0.01 -0.00 1.91 2.50 8.59 -2.10 -3.42 -3.86 3150
0.02 -0.00 2.75 2.68 9.36 -2.13 -3.55 -3.82 3156
0.02 -0.00 3.40 2.75 9.59 -2.24 -3.67 -3.70 3164
0.03 -0.00 4.25 3.07 10.13 -2.39 -3.79 -3.53 3170
0.03 -0.00 5.23 3.03 10.72 -2.57 -3.84 -3.34 3176
0.05 -0.01 6.57 2.78 11.29 -2.78 -3.80 -3.06 3182
0.03 -0.00 7.74 2.43 11.38 -3.01 -3.73 -2.74 3188
0.02 -0.00 8.93 2.25 11.46 -3.25 -3.53 -2.41 3194
0.01 -0.00 9.81 1.89 11.05 -3.48 -3.29 -2.09 3202
0.02 -0.00 10.18 1.30 10.79 -3.70 -3.00 -1.79 3208
0.03 -0.00 10.42 0.63 10.39 -3.86 -2.72 -1.52 3214
0.05 -0.00 10.39 -0.09 10.05 -3.99 -2.47 -1.28 3220
0.04 -0.00 10.44 -0.92 9.80 -4.06 -2.26 -1.06 3226
0.04 -0.00 10.70 -1.79 8.91 -4.08 -2.12 -0.85 3233
0.05 -0.01 10.95 -2.60 9.70 -4.07 -1.98 -0.63 3239
0.03 -0.00 11.17 -3.41 9.81 -4.03 -1.87 -0.47 3246
0.01 -0.00 11.66 -4.12 9.90 -3.97 -1.74 -0.26 3252
0.05 0.00 12.18 -4.73 10.24 -3.89 -1.59 -0.07 3258
0.04 0.00 12.94 -5.64 10.62 -3.79 -1.39 0.12 3265
0.02 0.01 13.23 -6.16 10.32 -3.70 -1.16 0.30 3271
0.04 -0.00 13.92 -7.64 10.80 -3.57 -0.84 0.47 3277
0.04 -0.00 12.96 -9.38 13.21 -3.45 -0.47 0.66 3283
0.01 0.01 12.29 -8.81 14.72 -3.32 -0.26 0.76 3291
0.02 -0.00 13.60 -9.92 12.00 -3.19 0.22 0.91 3297
0.02 -0.00 13.70 -10.42 12.21 -3.02 0.62 1.08 3303
0.05 -0.00 13.06 -10.80 12.70 -2.88 0.90 1.27 3309
0.04 -0.00 12.63 -11.00 12.88 -2.72 1.12 1.47 3315
0.05 -0.00 12.17 -11.12 13.30 -2.57 1.29 1.68 3322
0.03 -0.00 11.80 -11.22 13.29 -2.43 1.44 1.86 3329
0.03 -0.00 11.45 -11.53 13.16 -2.30 1.53 1.99 3335
0.04 -0.00 11.00 -11.75 13.02 -2.16 1.59 2.06 3342
0.03 -0.00 10.75 -12.00 12.72 -2.03 1.64 2.06 3348
0.03 -0.00 10.43 -12.05 12.35 -1.88 1.68 2.01 3354
0.03 -0.00 10.00 -11.97 11.94 -1.72 1.72 1.88 3360
0.03 -0.00 9.46 -11.83 11.46 -1.60 1.77 1.71 3367
0.03 -0.00 9.00 -11.59 11.33 -1.41 1.84 1.49 3374
0.02 -0.00 8.70 -11.13 11.79 -1.29 1.95 1.25 3380
0.02 -0.00 8.93 -10.60 12.76 -1.15 2.15 0.99 3386
0.04 -0.00 8.90 -10.34 13.19 -1.08 2.47 0.76 3392
0.03 -0.00 8.38 -10.11 13.44 -1.06 2.85 0.55 3399
0.03 0.00 6.87 -9.97 13.78 -1.09 3.15 0.37 3405
0.02 -0.00 6.42 -9.90 13.88 -1.15 3.46 0.21 3411
0.03 -0.00 5.23 -9.84 13.92 -1.22 3.66 0.12 3418
0.03 -0.00 4.10 -9.98 13.86 -1.28 3.76 0.03 3424
0.03 -0.00 2.94 -10.23 13.67 -1.33 3.78 -0.03 3430
0.03 -0.00 2.00 -10.50 13.46 -1.37 3.74 -0.07 3437
0.03 0.00 1.29 -10.81 13.40 -1.38 3.66 -0.09 3443
0.02 -0.00 0.75 -11.14 13.28 -1.39 3.57 -0.11 3449
0.01 -0.00 0.12 -11.53 13.08 -1.39 3.45 -0.13 3456
0.02 -0.00 -0.50 -11.80 12.81 -1.38 3.30 -0.17 3463
0.02 -0.00 -1.22 -12.09 12.71 -1.38 3.09 -0.22 3469
0.01 -0.00 -1.77 -12.28 12.77 -1.39 2.85 -0.28 3475
0.04 -0.00 -2.21 -12.24 12.66 -1.42 2.59 -0.36 3481
0.02 -0.00 -2.50 -12.18 12.89 -1.47 2.35 -0.44 3487
0.02 -0.00 -2.70 -11.99 12.46 -1.51 2.20 -0.52 3494
0.03 -0.00 -2.80 -12.02 11.93 -1.54 2.09 -0.60 3501
0.03 -0.00 -3.16 -11.83 11.18 -1.51 2.06 -0.65 3507
0.04 0.00 -4.00 -11.80 10.43 -1.40 2.17 -0.63 3513
0.04 -0.00 -4.84 -12.02 9.84 -1.23 2.36 -0.54 3519
0.03 -0.00 -5.72 -12.43 9.52 -1.01 2.45 -0.41 3526
0.04 -0.00 -6.70 -12.91 9.25 -0.80 2.32 -0.34 3532
0.03 -0.00 -7.47 -13.29 8.84 -0.59 2.02 -0.27 3538
0.03 -0.00 -7.98 -13.72 8.67 -0.41 1.60 -0.21 3545
0.03 -0.00 -12.28 -15.95 10.33 -0.14 0.89 -0.07 3551
0.03 -0.00 -21.33 -18.22 15.12 0.70 -1.08 0.40 3558
0.02 -0.00 -20.99 -15.82 12.66 1.13 -3.14 1.03 3564
0.04 -0.00 -18.43 -15.01 8.55 1.37 -4.28 1.57 3570
0.04 -0.00 2.12 -5.80 3.88 1.36 -4.28 1.57 3576
0.02 -0.00 2.69 -1.93 7.61 1.39 -4.28 1.45 3582
0.03 -0.00 5.99 -0.57 11.46 1.43 -4.28 1.62 3590
0.02 0.01 5.08 0.45 12.98 1.26 -4.28 1.94 3596
0.01 0.07 2.78 3.49 15.03 1.15 -4.28 2.28 3602
0.02 0.13 0.53 3.05 15.90 1.11 -4.28 2.45 3608
0.03 0.28 -2.20 3.79 17.08 1.26 -3.59 2.43 3614
0.03 0.43 -9.11 2.50 15.68 1.61 -2.08 2.22 3621
0.02 0.54 -11.71 3.07 11.48 1.85 -1.53 1.75 3628
-0.00 0.66 -12.23 0.27 12.93 2.12 -1.45 1.06 3634
0.03 0.71 -11.83 -0.79 15.21 2.36 -1.36 0.25 3641
0.01 0.76 -6.62 -1.33 19.92 2.44 -1.37 -0.50 3647
0.01 0.83 3.00 -2.96 25.62 1.78 -2.13 -0.72 3653
0.01 0.81 4.42 -3.24 13.25 0.60 -1.64 -0.33 3659
-0.01 0.90 2.67 -1.26 12.63 0.33 -0.86 0.04 3665
0.00 0.90 1.65 -2.02 10.16 0.19 -0.40 0.14 3673
0.01 0.91 1.45 -1.03 9.15 0.28 -0.52 0.21 3679
-0.02 0.93 0.55 -0.35 10.41 0.32 -0.74 0.15 3685
-0.01 0.90 0.65 -0.34 10.34 0.27 -0.71 0.10 3691
0.02 0.84 0.90 -0.59 10.54 0.17 -0.57 0.08 3697
0.02 0.91 0.69 -0.79 10.29 0.10 -0.44 0.06 3704
0.03 0.91 0.76 -0.98 10.20 0.04 -0.36 0.06 3710
0.01 0.94 0.57 -0.56 10.17 0.01 -0.30 0.04 3717
-0.01 0.98 0.52 -0.85 10.53 -0.01 -0.25 0.03 3723
0.00 0.99 0.88 -0.69 9.93 -0.03 -0.23 0.01 3729
-0.00 0.96 0.51 -0.71 10.21 -0.03 -0.22 0.00 3736
-0.00 0.97 0.63 -0.80 10.08 -0.03 -0.22 0.00 3742
0.03 1.00 0.61 -0.74 10.12 -0.03 -0.20 0.00 3748
0.01 1.01 0.59 -0.75 10.30 -0.02 -0.17 0.02 3755
0.01 0.99 0.58 -0.66 10.09 -0.01 -0.14 0.03 3761
0.02 0.98 0.58 -0.66 10.13 -0.01 -0.11 0.04 3768
-0.01 0.97 0.64 -0.67 10.01 0.00 -0.08 0.04 3774
-0.02 0.96 0.74 -0.73 10.10 0.01 -0.07 0.05 3780
0.01 0.93 0.74 -0.72 10.04 0.01 -0.06 0.05 3786
0.02 0.91 0.77 -0.67 10.03 0.01 -0.05 0.05 3792
0.01 0.88 0.76 -0.67 9.98 0.01 -0.05 0.05 3799
0.03 0.83 0.75 -0.69 10.04 0.01 -0.05 0.04 3806
0.02 0.76 0.70 -0.64 10.01 0.00 -0.05 0.04 3812
0.01 0.73 0.75 -0.71 9.97 0.00 -0.04 0.04 3818
0.01 0.75 0.66 -0.64 10.03 0.00 -0.04 0.04 3824
0.01 0.72 0.70 -0.67 10.04 0.01 -0.04 0.04 3830
0.01 0.71 0.70 -0.64 9.99 0.01 -0.03 0.04 3836
0.03 0.66 0.72 -0.63 9.99 0.02 -0.03 0.04 3844
0.04 0.64 0.73 -0.67 9.98 0.02 -0.03 0.04 3850
0.03 0.60 0.72 -0.71 10.02 0.02 -0.03 0.04 3856
0.02 0.59 0.71 -0.68 10.00 0.02 -0.03 0.04 3862
0.04 0.52 0.72 -0.68 9.99 0.02 -0.02 0.05 3868
0.03 0.50 0.78 -0.66 9.98 0.02 -0.02 0.05 3874
0.03 0.46 0.71 -0.68 9.98 0.02 -0.02 0.04 3880
0.03 0.44 0.72 -0.69 9.97 0.01 -0.02 0.04 3888
0.05 0.42 0.78 -0.68 10.03 0.01 -0.01 0.04 3894
0.04 0.38 0.77 -0.71 10.01 0.01 -0.01 0.04 3900
0.05 0.35 0.71 -0.71 10.01 0.01 0.00 0.04 3906
0.06 0.32 0.73 -0.74 10.01 0.01 0.01 0.04 3912
0.06 0.31 0.73 -0.69 9.94 0.00 0.02 0.04 3918
0.06 0.29 0.75 -0.71 10.01 0.01 0.03 0.05 3926
0.07 0.28 0.79 -0.71 10.03 0.00 0.04 0.04 3932
0.06 0.26 0.79 -0.91 10.21 0.01 0.03 0.04 3938
0.07 0.28 0.81 -0.68 9.96 0.01 0.02 0.04 3944
0.10 0.28 0.85 -0.67 9.99 0.01 0.01 0.04 3950
0.08 0.25 0.82 -0.72 10.03 0.01 -0.01 0.04 3956
0.09 0.25 0.76 -0.72 10.00 0.01 -0.02 0.03 3963
0.10 0.26 0.85 -0.65 9.99 0.01 -0.02 0.03 3970
0.10 0.22 0.80 -0.71 10.02 0.01 -0.03 0.03 3976
0.10 0.18 0.80 -0.71 9.99 0.01 -0.02 0.03 3982
0.11 0.17 0.82 -0.72 9.95 0.01 -0.02 0.04 3988
0.09 0.19 0.78 -0.73 10.05 0.01 -0.02 0.04 3994
0.11 0.15 0.77 -0.73 9.97 0.01 -0.02 0.04 4000
0.12 0.13 0.76 -0.74 9.97 0.01 -0.01 0.04 4007
0.15 0.12 0.79 -0.71 10.02 0.01 -0.01 0.04 4014
0.12 0.09 0.82 -0.74 9.99 0.00 0.00 0.03 4020
0.12 0.07 0.84 -0.78 10.01 0.01 0.00 0.04 4026
0.14 0.10 0.77 -0.68 9.96 0.01 0.00 0.04 4032
0.15 0.11 0.82 -0.79 9.99 0.01 0.01 0.04 4038
0.15 0.06 0.84 -0.76 9.98 0.01 0.01 0.05 4044
0.14 0.06 0.80 -0.74 10.05 0.01 0.01 0.05 4051
0.17 0.08 0.80 -0.74 10.03 0.02 0.02 0.05 4058
0.15 0.06 0.84 -0.71 10.02 0.02 0.02 0.05 4064
0.15 0.08 0.80 -0.74 10.02 0.02 0.03 0.04 4070
0.18 0.05 0.81 -0.74 9.97 0.02 0.03 0.04 4076
0.19 0.04 0.82 -0.76 10.03 0.02 0.04 0.05 4082
0.22 0.00 0.86 -0.71 10.04 0.02 0.04 0.04 4089
0.21 0.04 0.86 -0.77 9.95 0.02 0.05 0.04 4096
0.23 0.02 0.77 -0.69 9.98 0.02 0.05 0.05 4102
0.20 0.02 0.88 -0.72 9.98 0.02 0.05 0.04 4108
0.18 0.02 0.86 -0.73 9.97 0.02 0.05 0.04 4114
0.16 0.01 0.97 -0.82 9.95 0.02 0.05 0.05 4120
0.14 -0.01 0.85 -0.68 10.06 0.01 0.05 0.04 4126
0.17 -0.01 0.89 -0.77 10.08 0.02 0.05 0.04 4133
0.21 -0.01 0.91 -0.67 10.04 0.01 0.06 0.04 4140
0.21 -0.01 0.94 -0.73 9.94 0.02 0.06 0.04 4146
0.22 -0.02 0.95 -0.74 10.03 0.02 0.06 0.04 4152
0.23 -0.02 0.92 -0.84 9.91 0.02 0.06 0.04 4158
0.27 -0.03 0.95 -0.74 9.98 0.03 0.06 0.03 4164
0.22 -0.02 0.98 -0.86 9.96 0.03 0.06 0.03 4170
0.25 -0.03 0.97 -0.75 9.98 0.03 0.06 0.03 4176
0.23 -0.02 0.97 -0.81 9.95 0.03 0.07 0.03 4183
0.25 -0.02 0.94 -0.84 10.06 0.03 0.06 0.03 4190
0.27 -0.03 0.93 -0.75 10.06 0.04 0.07 0.02 4196
0.27 -0.02 0.89 -0.81 9.98 0.05 0.07 0.02 4202
0.25 -0.01 1.03 -0.85 10.04 0.06 0.07 0.02 4208
0.31 -0.01 0.98 -0.82 10.03 0.07 0.07 0.02 4214
0.31 -0.03 1.08 -0.82 10.02 0.09 0.07 0.02 4220
0.31 -0.03 1.00 -0.84 10.03 0.11 0.08 0.01 4227
0.35 -0.02 1.04 -0.82 10.11 0.17 0.09 0.01 4234
0.35 -0.03 1.08 -0.87 10.14 0.16 0.10 0.01 4240
0.37 -0.03 1.03 -0.86 10.16 0.21 0.12 0.00 4246
0.43 -0.03 1.13 -0.93 10.23 0.28 0.13 -0.00 4252
0.43 -0.04 1.08 -1.07 10.06 0.36 0.16 -0.01 4258
0.46 -0.03 1.11 -0.98 10.38 0.46 0.19 -0.02 4265
0.44 -0.02 1.25 -1.06 10.49 0.59 0.25 -0.03 4272
0.46 -0.04 1.25 -1.04 10.65 0.73 0.29 -0.05 4278
0.45 -0.02 1.33 -1.12 10.90 0.90 0.35 -0.07 4284
0.48 -0.03 1.35 -1.23 11.18 1.09 0.39 -0.09 4291
0.53 -0.04 1.40 -1.21 11.34 1.30 0.42 -0.12 4297
0.61 -0.03 1.64 -1.40 11.81 1.52 0.42 -0.15 4303
0.61 -0.03 1.53 -1.60 11.60 1.70 0.42 -0.18 4310
0.61 -0.04 1.50 -1.67 11.62 1.84 0.41 -0.20 4316
0.66 -0.04 1.31 -1.78 11.90 1.95 0.41 -0.21 4323
0.63 -0.04 1.40 -1.88 11.86 2.04 0.40 -0.23 4329
0.64 -0.03 1.36 -2.03 11.74 2.14 0.41 -0.23 4335
0.63 -0.04 1.60 -2.10 11.94 2.26 0.44 -0.23 4341
0.59 -0.04 1.40 -2.13 11.71 2.34 0.50 -0.23 4347
0.52 -0.02 1.35 -2.36 11.89 2.49 0.59 -0.21 4355
0.51 -0.03 1.26 -2.54 11.88 2.63 0.70 -0.20 4361
0.41 -0.03 1.44 -2.73 11.93 2.81 0.89 -0.18 4367
0.38 -0.03 1.27 -2.94 11.77 2.97 1.08 -0.16 4373
0.29 -0.03 1.09 -3.25 12.16 3.14 1.27 -0.12 4380
0.22 -0.02 1.04 -3.40 13.00 3.32 1.53 -0.06 4386
0.20 -0.02 0.17 -3.66 14.03 3.50 1.75 0.00 4392
0.14 -0.01 1.31 -4.42 13.03 3.71 1.99 0.11 4399
0.15 -0.02 0.38 -5.00 13.96 3.84 2.15 0.24 4405
0.13 -0.00 0.55 -5.76 13.98 3.87 2.34 0.41 4411
0.13 -0.01 1.16 -6.70 16.67 3.93 2.52 0.60 4418
0.11 -0.01 3.00 -7.92 20.60 4.09 2.82 0.72 4424
0.13 0.00 3.87 -8.14 22.42 4.21 3.19 0.77 4430
0.10 -0.01 5.19 -9.14 23.20 4.28 3.48 0.78 4436
0.10 -0.01 5.96 -8.97 22.53 4.28 3.69 0.81 4443
0.09 0.00 5.79 -8.97 21.06 4.28 3.94 0.88 4449
0.09 -0.01 6.53 -8.81 21.97 4.28 4.22 0.96 4456
0.08 -0.01 8.96 -8.73 22.56 4.26 4.28 0.98 4462
0.07 -0.00 8.22 -7.39 22.15 4.19 4.28 0.89 4468
0.05 -0.00 6.61 -6.01 22.45 4.11 4.28 0.67 4474
0.05 -0.01 3.04 -4.29 22.44 4.02 4.28 0.41 4481
0.05 -0.00 -0.26 -1.82 22.78 3.92 4.28 0.10 4487
0.06 -0.01 -4.36 1.05 21.48 3.74 4.28 -0.23 4494
0.05 -0.00 -6.24 4.90 18.10 3.51 4.28 -0.58 4500
0.04 -0.00 -8.27 6.94 17.36 3.09 4.28 -0.86 4506
0.06 -0.01 -10.21 8.83 14.87 2.66 3.33 -1.03 4512
0.04 -0.00 -20.05 9.77 1.43 2.59 1.70 -1.70 4518
0.04 -0.00 -15.50 7.97 14.77 1.40 -1.26 -2.09 4526
0.05 -0.01 -10.28 10.50 9.53 -0.74 -3.22 -2.31 4532
0.04 -0.00 -2.98 10.08 15.75 -1.97 -4.25 -2.39 4538
0.05 -0.00 -0.22 4.82 17.35 -2.56 -4.28 -2.53 4544
0.05 -0.01 1.14 1.63 15.11 -2.82 -4.28 -2.86 4550
0.05 -0.00 2.37 1.08 13.49 -2.83 -4.17 -3.29 4557
0.03 -0.00 3.44 0.75 11.80 -2.72 -3.49 -3.71 4563
0.04 -0.00 3.40 0.76 9.86 -2.61 -2.84 -4.08 4570
0.02 -0.00 3.22 1.27 9.14 -2.56 -2.32 -4.28 4576
0.03 -0.00 3.08 2.10 9.55 -2.60 -2.00 -4.28 4582
0.03 0.01 2.86 2.51 10.03 -2.77 -1.81 -4.28 4588
0.03 -0.00 2.60 2.97 10.69 -3.02 -1.75 -4.28 4594
0.02 -0.00 2.62 2.98 10.83 -3.32 -1.82 -4.28 4601
0.03 0.01 2.66 2.51 11.52 -3.65 -1.98 -4.28 4608
0.02 -0.00 2.94 1.45 11.53 -3.96 -2.19 -4.15 4614
0.02 -0.00 3.19 0.27 12.04 -4.15 -2.47 -3.83 4620
0.05 0.00 3.87 -1.01 11.61 -4.24 -2.81 -3.46 4626
0.04 -0.00 4.94 -1.77 10.83 -4.27 -3.15 -3.06 4633
0.02 -0.00 6.22 -2.45 10.77 -4.28 -3.49 -2.69 4639
0.03 -0.00 7.29 -3.10 10.55 -4.28 -3.79 -2.35 4645
0.03 -0.00 8.36 -3.58 10.26 -4.28 -3.99 -2.03 4652
0.02 -0.00 9.41 -4.23 10.04 -4.28 -4.00 -1.73 4658
0.03 -0.00 10.50 -4.68 9.85 -4.27 -3.91 -1.48 4664
0.03 -0.00 11.65 -5.05 9.50 -4.26 -3.70 -1.26 4671
0.04 -0.00 12.68 -5.52 9.33 -4.21 -3.35 -1.10 4677
0.06 0.01 13.67 -6.04 8.75 -4.13 -2.85 -0.93 4683
0.04 -0.00 14.28 -6.41 8.23 -4.00 -2.28 -0.75 4689
0.03 -0.00 14.58 -6.92 8.28 -3.80 -1.73 -0.56 4696
0.04 -0.00 14.28 -7.35 7.96 -3.61 -1.23 -0.35 4703
0.04 -0.00 13.86 -7.98 8.21 -3.40 -0.83 -0.12 4709
0.03 -0.00 13.65 -8.65 8.70 -3.24 -0.50 0.14 4715
0.03 -0.00 13.35 -9.15 8.88 -3.05 -0.20 0.43 4721
0.04 -0.00 13.26 -9.59 9.20 -2.86 -0.00 0.74 4727
0.04 -0.00 13.08 -9.90 9.57 -2.67 0.28 1.06 4733
0.03 -0.00 12.75 -10.33 9.83 -2.49 0.59 1.31 4740
0.05 -0.01 12.08 -10.61 10.10 -2.32 0.87 1.61 4747
0.04 -0.00 11.30 -10.76 10.23 -2.16 1.10 1.90 4753
0.04 0.01 10.45 -10.78 10.12 -2.01 1.23 2.17 4759
0.03 -0.00 9.82 -10.69 9.94 -1.86 1.28 2.41 4766
0.02 -0.00 9.31 -10.58 9.83 -1.70 1.26 2.59 4772
0.03 -0.00 9.01 -10.49 9.83 -1.53 1.22 2.70 4779
0.03 -0.00 8.70 -10.53 10.01 -1.39 1.20 2.74 4785
0.01 -0.00 8.42 -10.59 10.13 -1.26 1.19 2.69 4791
0.03 -0.00 8.06 -10.66 10.32 -1.16 1.21 2.58 4797
0.04 -0.00 8.05 -10.52 10.56 -1.09 1.27 2.41 4804
0.02 -0.00 8.14 -10.20 10.99 -1.04 1.36 2.19 4810
0.04 -0.00 8.59 -9.92 11.62 -1.01 1.55 1.97 4816
0.04 -0.00 9.08 -9.75 12.30 -1.04 1.86 1.74 4823
0.03 -0.00 9.06 -9.85 12.65 -1.10 2.18 1.52 4829
0.03 -0.00 8.72 -10.06 13.24 -1.21 2.61 1.32 4836
0.03 -0.00 8.03 -10.40 13.58 -1.35 3.00 1.14 4842
0.03 -0.00 7.13 -10.75 13.59 -1.49 3.26 1.03 4848
0.04 -0.00 6.02 -11.00 13.35 -1.62 3.39 0.91 4854
0.03 -0.00 5.06 -11.24 12.91 -1.71 3.38 0.82 4860
0.03 -0.00 4.28 -11.55 12.43 -1.75 3.28 0.73 4868
0.04 -0.00 3.65 -11.76 12.11 -1.74 3.14 0.66 4874
0.03 -0.00 3.10 -11.76 11.92 -1.70 2.97 0.57 4880
0.04 0.00 2.70 -11.66 11.80 -1.66 2.82 0.48 4886
0.03 -0.00 2.22 -11.65 11.61 -1.62 2.69 0.38 4893
0.02 -0.00 1.77 -11.73 11.41 -1.56 2.60 0.28 4899
0.04 -0.00 1.59 -11.82 11.67 -1.50 2.56 0.17 4905
0.03 -0.00 1.38 -11.92 12.05 -1.46 2.56 0.06 4912
0.03 -0.00 1.22 -11.90 12.60 -1.43 2.63 -0.04 4918
0.04 -0.00 1.00 -11.81 13.00 -1.42 2.76 -0.16 4925
0.04 -0.00 0.46 -11.75 13.22 -1.45 2.88 -0.29 4931
0.03 -0.00 -0.22 -11.69 13.08 -1.50 3.03 -0.43 4937
0.03 -0.00 -1.23 -11.62 12.87 -1.55 3.07 -0.57 4943
0.03 -0.00 -2.45 -11.45 12.30 -1.56 3.06 -0.71 4950
0.03 0.00 -4.03 -10.94 11.83 -1.52 3.00 -0.79 4957
0.03 -0.00 -5.70 -10.75 11.77 -1.43 2.96 -0.77 4963
0.02 -0.00 -7.27 -10.86 11.78 -1.31 2.84 -0.62 4969
0.04 -0.00 -8.80 -11.12 12.00 -1.21 2.51 -0.51 4975
0.02 -0.00 -9.91 -11.47 11.10 -1.14 1.95 -0.37 4982
0.02 -0.00 -10.34 -11.93 11.01 -1.09 1.27 -0.26 4988
0.02 -0.00 -9.92 -12.40 10.39 -1.04 0.59 -0.18 4995
0.02 -0.00 -11.90 -14.79 10.22 -0.90 -0.11 -0.10 5001
0.03 -0.00 -36.61 -21.49 21.73 0.32 -3.06 0.45 5008
0.02 -0.00 -16.81 -16.05 8.05 0.53 -4.15 0.97 5014
0.03 -0.00 -13.68 -13.59 1.01 0.51 -4.28 1.08 5020
0.03 -0.00 -0.01 -8.89 4.07 0.51 -4.28 1.07 5026
0.02 -0.00 1.20 -5.95 8.36 0.58 -4.28 1.04 5032
0.01 -0.00 3.69 0.53 14.99 0.78 -4.28 1.23 5039
0.02 0.04 4.15 9.07 20.96 0.97 -4.26 1.56 5046
0.02 0.12 -2.01 11.61 21.93 1.14 -2.74 1.85 5052
-0.00 0.35 -7.37 7.38 8.24 1.12 -1.54 1.77 5058
0.02 0.49 -11.10 4.50 6.92 1.33 -1.32 1.19 5064
-0.00 0.61 -12.09 -0.91 15.53 1.84 -1.22 0.57 5071
-0.00 0.70 -12.30 -2.15 10.83 2.18 -1.16 -0.13 5078
0.00 0.72 -6.81 -0.88 14.60 2.61 -1.25 -0.87 5084
0.01 0.71 2.04 -1.88 20.47 2.74 -1.24 -1.21 5090
0.01 0.76 8.38 -3.53 28.80 1.81 -2.24 -0.83 5097
-0.00 0.77 6.07 -1.70 10.20 0.67 -1.53 -0.03 5103
-0.00 0.77 1.69 -2.63 13.57 0.52 -0.78 0.23 5109
0.01 0.80 2.05 -1.95 10.16 0.37 -0.35 0.37 5115
0.00 0.74 0.93 -0.69 10.72 0.45 -0.59 0.46 5122
0.00 0.73 -0.46 -0.30 11.61 0.41 -0.76 0.32 5129
0.01 0.69 0.07 -0.39 10.88 0.28 -0.62 0.14 5135
0.01 0.68 0.91 -0.55 10.41 0.18 -0.43 0.11 5141
0.01 0.66 1.07 -0.87 9.85 0.10 -0.32 0.10 5147
0.02 0.67 0.89 -0.94 10.32 0.07 -0.27 0.10 5153
0.02 0.69 0.63 -0.80 10.11 0.00 -0.21 0.08 5160
0.02 0.68 0.58 -0.81 10.23 0.01 -0.17 0.05 5167
0.02 0.64 1.03 -0.76 9.84 -0.01 -0.15 0.04 5173
0.01 0.67 1.20 -0.84 10.24 -0.02 -0.15 0.03 5179
0.02 0.69 0.67 -0.73 10.44 -0.02 -0.14 0.04 5185
0.03 0.69 0.69 -0.77 10.05 -0.01 -0.13 0.04 5191
0.03 0.68 0.74 -0.77 10.15 -0.00 -0.13 0.04 5198
0.04 0.67 0.76 -0.84 10.15 0.01 -0.13 0.04 5204
0.07 0.65 0.82 -0.80 10.07 0.01 -0.12 0.05 5211
0.06 0.63 0.85 -0.78 9.99 0.01 -0.12 0.05 5217
0.06 0.63 0.79 -0.77 10.12 0.01 -0.10 0.05 5223
0.07 0.62 0.83 -0.79 10.05 0.02 -0.09 0.05 5230
0.07 0.61 0.82 -0.78 9.97 0.01 -0.08 0.05 5236
0.08 0.60 0.83 -0.78 9.98 0.01 -0.08 0.05 5242
0.10 0.55 0.80 -0.77 9.96 0.01 -0.07 0.04 5249
0.09 0.52 0.79 -0.77 10.00 0.01 -0.07 0.03 5255
0.08 0.50 0.81 -0.73 10.04 0.01 -0.07 0.03 5261
0.10 0.50 0.82 -0.76 9.98 0.01 -0.07 0.03 5267
0.11 0.48 0.78 -0.73 10.02 0.01 -0.06 0.03 5274
0.11 0.46 0.78 -0.76 10.01 0.00 -0.06 0.03 5280
0.13 0.40 0.74 -0.77 9.98 0.01 -0.06 0.03 5286
0.14 0.39 0.77 -0.78 9.96 0.01 -0.05 0.03 5293
0.14 0.35 0.78 -0.77 10.01 0.01 -0.05 0.03 5299
0.14 0.36 0.77 -0.76 10.02 0.02 -0.04 0.03 5305
0.14 0.31 0.81 -0.79 9.98 0.02 -0.04 0.03 5312
0.13 0.33 0.82 -0.77 9.96 0.02 -0.04 0.03 5318
0.13 0.26 0.83 -0.80 10.01 0.02 -0.04 0.03 5324
0.17 0.21 0.82 -0.81 9.98 0.02 -0.04 0.03 5330
0.17 0.21 0.76 -0.75 9.99 0.02 -0.04 0.03 5337
0.16 0.20 0.77 -0.81 10.01 0.02 -0.04 0.03 5343
0.17 0.20 0.79 -0.81 9.99 0.03 -0.03 0.03 5350
0.18 0.16 0.81 -0.77 9.99 0.03 -0.04 0.03 5356
0.19 0.13 0.83 -0.82 10.00 0.03 -0.04 0.03 5362
0.20 0.13 0.77 -0.86 10.10 0.02 -0.04 0.03 5368
0.23 0.09 0.79 -0.81 9.99 0.03 -0.05 0.03 5374
0.24 0.06 0.81 -0.81 10.02 0.02 -0.06 0.03 5381
0.24 0.05 0.81 -0.87 10.02 0.03 -0.06 0.03 5388
0.24 0.05 0.78 -0.85 10.01 0.02 -0.07 0.03 5394
0.22 0.04 0.84 -0.84 10.02 0.01 -0.07 0.02 5400
0.22 0.07 0.80 -0.86 9.98 0.01 -0.07 0.02 5406
0.26 0.03 0.84 -0.85 10.00 0.01 -0.06 0.02 5412
0.25 0.04 0.78 -0.82 9.99 0.01 -0.06 0.02 5419
0.27 -0.01 0.76 -0.87 10.03 0.02 -0.05 0.02 5425
0.30 0.02 0.78 -0.83 9.98 0.02 -0.05 0.02 5432
0.32 0.02 0.78 -0.86 10.05 0.02 -0.04 0.02 5438
0.31 0.00 0.89 -0.82 10.00 0.02 -0.05 0.03 5444
0.34 0.01 0.75 -0.88 10.03 0.02 -0.04 0.02 5450
0.35 -0.02 0.75 -0.83 10.04 0.02 -0.04 0.03 5456
0.34 -0.03 0.71 -0.78 10.01 0.03 -0.04 0.04 5463
0.37 -0.02 0.80 -0.89 10.05 0.03 -0.03 0.04 5470
0.39 -0.00 0.71 -0.86 9.96 0.03 -0.03 0.04 5476
0.39 -0.04 0.80 -0.89 9.97 0.03 -0.02 0.04 5482
0.40 -0.04 0.72 -0.87 10.01 0.04 -0.02 0.04 5488
0.42 -0.02 0.73 -0.91 10.04 0.03 -0.02 0.05 5494
0.43 -0.03 0.80 -0.87 10.01 0.04 -0.02 0.05 5500
0.44 -0.03 0.77 -0.88 10.04 0.04 -0.03 0.05 5508
0.46 -0.02 0.77 -0.87 10.00 0.05 -0.03 0.05 5514
0.48 -0.02 0.75 -0.87 10.00 0.05 -0.03 0.05 5520
0.48 -0.03 0.77 -0.91 10.03 0.06 -0.03 0.04 5526
0.52 -0.02 0.80 -0.91 10.00 0.06 -0.03 0.05 5532
0.55 -0.04 0.81 -0.91 9.96 0.06 -0.03 0.04 5538
0.54 -0.03 0.80 -0.92 9.99 0.07 -0.03 0.04 5545
0.56 -0.03 0.80 -0.91 9.99 0.07 -0.03 0.04 5552
0.54 -0.03 0.80 -0.94 10.01 0.08 -0.03 0.03 5558
0.51 -0.04 0.83 -0.92 10.03 0.08 -0.03 0.03 5564
0.52 -0.03 0.84 -0.98 10.01 0.08 -0.03 0.03 5570
0.57 -0.04 0.82 -0.97 10.00 0.09 -0.03 0.02 5576
0.62 -0.05 0.87 -0.97 10.02 0.10 -0.03 0.02 5583
0.63 -0.04 0.81 -0.99 10.10 0.10 -0.02 0.02 5590
0.65 -0.05 0.79 -0.97 10.05 0.12 -0.02 0.01 5596
0.68 -0.05 0.78 -1.02 10.05 0.14 -0.02 0.01 5602
0.71 -0.05 0.75 -1.12 10.25 0.15 -0.01 0.02 5608
0.78 -0.05 0.80 -1.02 10.08 0.19 -0.01 0.02 5615
0.79 -0.06 0.76 -1.01 10.06 0.21 -0.00 0.01 5621
0.84 -0.04 0.81 -1.11 10.08 0.24 -0.00 0.01 5627
0.87 -0.03 0.80 -1.12 10.13 0.27 0.01 0.00 5634
0.87 -0.04 0.81 -1.13 10.18 0.31 0.01 0.00 5640
0.92 -0.03 0.81 -1.17 10.15 0.35 0.01 -0.00 5647
0.97 -0.04 0.93 -1.21 10.15 0.39 0.00 -0.01 5653
0.94 -0.04 0.88 -1.83 10.26 0.43 0.00 -0.01 5659
0.97 -0.04 0.87 -1.25 10.16 0.48 0.01 -0.01 5665
0.99 -0.05 0.85 -1.28 10.40 0.54 0.01 -0.02 5671
1.02 -0.05 0.92 -1.31 10.44 0.60 0.01 -0.03 5679
1.05 -0.04 0.91 -1.38 10.28 0.68 0.02 -0.03 5685
1.07 -0.05 0.92 -1.47 10.68 0.75 0.03 -0.04 5691
1.09 -0.05 0.92 -1.51 10.64 0.82 0.04 -0.04 5697
1.13 -0.05 0.95 -1.62 11.01 0.89 0.06 -0.05 5703
1.17 -0.06 0.98 -1.67 10.86 0.97 0.09 -0.06 5710
1.14 -0.04 0.91 -1.71 10.90 1.05 0.10 -0.06 5716
1.14 -0.06 0.90 -1.74 10.94 1.14 0.11 -0.06 5723
1.11 -0.05 0.93 -1.80 10.59 1.21 0.13 -0.06 5729
1.12 -0.05 0.91 -1.93 10.57 1.29 0.15 -0.06 5735
1.14 -0.06 0.85 -2.17 10.84 1.35 0.18 -0.06 5742
1.10 -0.06 0.97 -2.15 10.65 1.41 0.23 -0.06 5748
1.09 -0.05 0.99 -2.28 10.79 1.49 0.27 -0.06 5754
1.08 -0.06 1.04 -2.37 10.84 1.57 0.33 -0.06 5761
1.04 -0.05 1.11 -3.04 10.90 1.66 0.39 -0.06 5768
1.01 -0.05 1.01 -2.56 10.99 1.76 0.46 -0.07 5774
0.98 -0.06 1.08 -2.70 11.30 1.87 0.53 -0.07 5780
0.91 -0.04 0.52 -2.52 8.82 2.01 0.62 -0.07 5786
0.92 -0.05 0.71 -3.17 12.08 2.18 0.68 -0.06 5792
0.82 -0.05 1.29 -3.26 12.66 2.39 0.74 -0.06 5799
0.75 -0.04 1.50 -3.29 12.00 2.61 0.75 -0.07 5806
0.66 -0.04 1.62 -3.49 12.14 2.83 0.84 -0.08 5812
0.53 -0.03 0.93 -3.50 12.02 3.05 0.97 -0.09 5818
0.45 -0.02 1.19 -3.78 12.32 3.26 1.18 -0.07 5824
0.36 -0.03 1.01 -4.12 12.77 3.48 1.38 -0.02 5831
0.28 -0.02 1.13 -4.50 13.32 3.69 1.55 0.02 5837
0.26 -0.02 0.69 -5.21 14.40 3.88 1.61 0.12 5843
0.17 -0.02 0.93 -5.48 14.03 4.05 1.68 0.21 5850
0.18 -0.01 0.31 -6.06 14.56 4.12 1.81 0.36 5857
0.19 -0.02 1.07 -7.55 15.52 4.06 1.82 0.52 5863
0.15 -0.01 1.88 -8.33 19.44 4.10 1.90 0.63 5869
0.13 -0.01 3.23 -9.75 23.03 4.21 2.19 0.70 5875
0.12 -0.01 3.44 -10.53 23.72 4.28 2.45 0.71 5881
0.09 -0.01 3.51 -10.54 23.53 4.28 2.70 0.76 5889
0.08 -0.01 2.64 -10.10 21.57 4.28 2.84 0.82 5895
0.09 -0.01 3.46 -9.15 20.43 4.28 3.01 0.93 5901
0.08 -0.01 5.55 -8.64 21.97 4.28 3.35 1.00 5907
0.07 -0.01 5.95 -8.59 21.15 4.28 3.86 0.99 5913
0.07 -0.01 5.71 -7.18 21.46 4.28 4.26 0.87 5919
0.05 -0.00 3.36 -5.39 21.45 4.25 4.28 0.68 5926
0.03 -0.00 0.74 -2.48 21.05 4.18 4.28 0.44 5933
0.05 -0.00 -2.45 0.04 19.87 4.08 4.28 0.18 5939
0.05 -0.01 -3.88 2.96 18.28 3.83 4.27 -0.09 5945
0.02 -0.00 -4.83 5.12 16.80 3.44 3.58 -0.30 5951
0.04 0.00 -6.17 6.09 15.99 3.00 2.50 -0.51 5957
0.04 -0.00 -11.47 9.97 7.74 2.65 1.57 -0.87 5964
0.03 -0.00 -8.43 9.01 8.02 2.27 -0.34 -1.49 5970
0.05 0.00 -7.68 9.25 10.15 0.63 -2.33 -1.81 5977
0.05 -0.00 -4.98 11.07 10.34 -1.09 -3.24 -2.00 5983
0.04 -0.00 -0.93 8.57 14.57 -2.00 -3.65 -2.19 5989
0.04 0.01 0.62 3.83 14.90 -2.37 -3.71 -2.46 5995
0.04 -0.00 1.42 1.23 13.43 -2.61 -3.48 -2.80 6002
0.04 -0.00 1.85 0.85 11.77 -2.70 -3.13 -3.14 6008
0.05 -0.00 2.34 0.98 10.23 -2.66 -2.59 -3.45 6014
0.04 -0.00 2.41 1.14 8.63 -2.61 -2.09 -3.70 6021
0.04 -0.00 2.24 1.58 7.81 -2.61 -1.73 -3.87 6027
0.03 -0.00 2.07 2.11 7.61 -2.67 -1.49 -4.02 6033
0.04 -0.00 2.02 2.41 7.91 -2.79 -1.39 -4.12 6039
0.03 -0.00 2.02 2.49 8.01 -2.93 -1.44 -4.16 6046
0.03 -0.00 2.16 2.45 8.27 -3.13 -1.60 -4.13 6052
0.04 -0.00 2.22 2.19 8.96 -3.34 -1.72 -4.03 6059
0.05 -0.00 2.68 1.59 9.75 -3.53 -1.82 -3.88 6065
0.05 -0.00 3.29 1.05 10.27 -3.70 -1.90 -3.63 6071
0.04 -0.00 4.05 0.55 10.86 -3.86 -2.02 -3.29 6077
0.05 -0.01 5.02 0.08 10.50 -4.01 -2.22 -2.93 6083
0.04 -0.00 6.14 -0.49 10.31 -4.12 -2.43 -2.58 6090
0.03 -0.00 6.69 -0.80 10.46 -4.22 -2.61 -2.25 6096
0.04 -0.00 7.43 -1.54 10.66 -4.27 -2.73 -1.93 6103
0.03 -0.00 8.19 -2.67 10.96 -4.28 -2.77 -1.61 6109
0.04 -0.00 9.00 -3.48 11.24 -4.28 -2.77 -1.31 6115
0.03 -0.00 9.64 -3.91 11.03 -4.28 -2.73 -1.01 6121
0.05 -0.00 10.22 -4.29 10.84 -4.28 -2.63 -0.81 6128
0.04 -0.00 10.84 -4.64 10.21 -4.28 -2.46 -0.57 6134
0.04 -0.00 11.55 -5.20 9.82 -4.28 -2.20 -0.36 6140
0.05 -0.01 12.59 -5.99 9.34 -4.28 -1.87 -0.17 6147
0.03 -0.00 12.95 -6.71 9.42 -4.27 -1.49 -0.02 6153
0.04 -0.00 13.54 -7.83 9.65 -4.20 -1.03 0.10 6160
0.05 -0.00 13.80 -8.82 9.85 -4.11 -0.55 0.21 6166
0.04 -0.00 14.03 -9.77 10.44 -3.92 -0.07 0.30 6172
0.04 -0.00 13.65 -10.75 10.88 -3.71 0.36 0.41 6178
0.04 -0.00 13.12 -11.62 11.20 -3.52 0.71 0.55 6184
0.02 -0.00 12.59 -12.28 11.41 -3.31 0.96 0.72 6192
0.05 -0.00 12.27 -12.84 11.67 -3.10 1.11 0.93 6198
0.04 -0.00 11.99 -13.16 12.05 -2.89 1.23 1.16 6204
0.04 -0.00 11.63 -13.39 12.28 -2.67 1.34 1.40 6210
0.03 -0.00 11.35 -13.34 12.42 -2.48 1.45 1.63 6217
0.03 -0.00 10.90 -13.20 12.53 -2.31 1.55 1.84 6223
0.05 -0.00 10.41 -13.04 12.46 -2.16 1.63 1.99 6230
0.03 -0.00 9.89 -12.89 12.36 -2.01 1.69 2.10 6237
0.03 -0.00 9.54 -12.69 12.27 -1.84 1.73 2.15 6243
0.04 -0.00 9.07 -12.45 12.19 -1.68 1.76 2.14 6249
0.02 -0.00 8.80 -12.36 12.33 -1.52 1.82 2.05 6255
0.04 -0.00 8.44 -12.40 12.62 -1.36 1.94 1.91 6261
0.04 -0.00 4.09 -15.81 13.77 -1.21 2.06 1.84 6268
0.04 -0.00 -16.50 -22.30 25.21 -0.22 1.39 2.87 6275
0.04 -0.00 6.45 -18.55 15.77 0.31 0.36 3.16 6281
0.05 -0.00 12.04 1.53 -5.13 -0.40 0.13 2.52 6287
0.04 -0.00 5.81 -2.05 5.39 -1.42 1.16 1.65 6293
0.06 -0.01 9.13 -13.32 17.32 -1.62 2.49 1.13 6300
0.04 -0.00 9.81 -18.22 17.77 -1.92 3.73 0.83 6306
0.04 -0.00 7.20 -15.35 19.24 -1.74 4.28 0.66 6312
0.04 -0.00 4.37 -12.83 19.91 -1.51 4.28 0.51 6319
0.04 -0.00 1.73 -11.92 17.22 -1.49 4.28 0.29 6325
0.04 0.00 -0.17 -11.12 14.34 -1.58 4.28 0.07 6332
0.04 -0.00 -1.43 -10.72 12.82 -1.71 4.28 -0.10 6338
0.02 -0.00 -2.41 -10.97 12.42 -1.84 4.28 -0.22 6344
0.04 -0.00 -3.17 -11.40 12.45 -1.89 4.21 -0.28 6350
0.03 -0.00 -3.47 -11.87 12.88 -1.84 3.74 -0.33 6358
0.03 -0.00 -3.78 -12.22 12.90 -1.72 3.35 -0.36 6364
0.04 -0.00 -3.77 -12.37 12.36 -1.58 3.06 -0.40 6370
0.03 -0.00 -3.55 -12.39 11.47 -1.43 2.79 -0.44 6376
0.03 0.00 -3.27 -12.34 10.95 -1.31 2.60 -0.48 6382
0.04 -0.00 -3.23 -12.32 10.79 -1.19 2.46 -0.51 6389
0.03 -0.00 -3.49 -12.33 10.72 -1.08 2.36 -0.51 6395
0.05 -0.00 -4.16 -12.21 10.80 -0.95 2.30 -0.44 6402
0.03 -0.00 -4.90 -12.18 10.76 -0.82 2.29 -0.38 6408
0.03 -0.00 -5.49 -12.12 10.91 -0.71 2.22 -0.25 6415
0.04 -0.00 -6.23 -12.04 10.88 -0.64 2.02 -0.13 6421
0.03 -0.00 -6.75 -12.14 10.50 -0.62 1.68 -0.03 6427
0.03 0.00 -6.99 -12.45 10.08 -0.61 1.29 0.05 6433
0.03 -0.00 -7.01 -12.81 9.55 -0.59 0.90 0.12 6439
0.03 -0.00 -6.95 -13.35 8.87 -0.52 0.57 0.19 6447
0.04 0.00 -14.58 -15.79 11.79 -0.19 -0.19 0.37 6453
0.04 -0.00 -28.13 -15.10 19.32 1.08 -3.00 1.18 6459
0.02 -0.00 -13.78 -5.95 9.52 1.21 -4.28 1.95 6465
0.05 -0.00 3.38 -0.62 3.97 1.03 -4.28 1.86 6471
0.03 -0.00 3.64 2.83 10.16 1.07 -4.28 1.74 6478
0.01 -0.00 5.87 5.58 8.57 1.07 -4.28 1.90 6484
0.02 0.01 3.00 3.28 11.49 1.06 -4.28 2.11 6491
0.04 0.01 -0.62 3.11 12.57 1.07 -4.01 2.21 6497
0.04 0.02 -3.94 2.52 11.33 1.11 -3.55 2.13 6503
0.02 0.15 -5.36 3.93 13.68 1.26 -3.15 1.82 6510
0.02 0.29 -8.74 2.89 14.49 1.54 -2.49 1.41 6516
0.00 0.41 -10.68 2.24 13.12 1.91 -1.91 0.92 6522
0.02 0.49 -9.64 1.17 14.33 2.17 -1.65 0.32 6529
0.01 0.57 -7.53 -0.25 14.15 2.29 -1.54 -0.31 6536
0.01 0.64 -2.79 -1.02 15.47 2.32 -1.40 -0.81 6542
0.01 0.68 6.10 -2.86 22.69 2.19 -1.64 -0.96 6548
0.00 0.67 6.64 -3.28 18.83 1.18 -2.06 -0.46 6554
0.02 0.72 3.42 -2.29 12.60 0.80 -1.37 0.10 6560
0.01 0.64 1.38 -3.01 16.05 0.51 -0.72 0.25 6567
0.01 0.69 1.20 -1.56 10.54 0.38 -0.48 0.34 6574
0.02 0.67 -0.03 -0.46 10.68 0.37 -0.57 0.29 6580
-0.00 0.62 -0.07 -0.19 12.45 0.33 -0.59 0.17 6586
0.03 0.59 0.96 -0.50 10.03 0.24 -0.43 0.10 6592
0.03 0.57 1.25 -0.84 9.86 0.20 -0.34 0.10 6599
0.02 0.58 1.08 -0.94 9.75 0.17 -0.30 0.12 6605
0.02 0.57 0.97 -0.85 10.14 0.15 -0.27 0.12 6611
0.04 0.55 0.90 -0.73 10.21 0.12 -0.22 0.11 6618
0.02 0.56 0.84 -0.86 10.23 0.09 -0.15 0.08 6624
0.02 0.55 0.92 -0.97 10.19 0.06 -0.09 0.07 6631
0.04 0.52 0.88 -0.96 10.04 0.05 -0.06 0.08 6637
0.04 0.53 0.84 -0.86 10.21 0.05 -0.02 0.09 6643
0.03 0.48 0.78 -0.86 10.16 0.04 0.02 0.09 6649
0.04 0.46 0.91 -0.95 10.17 0.04 0.05 0.09 6656
0.04 0.45 1.00 -0.88 10.06 0.05 0.06 0.10 6662
0.02 0.43 1.06 -0.87 9.99 0.05 0.06 0.09 6669
0.05 0.41 1.11 -0.84 10.12 0.05 0.06 0.10 6675
0.05 0.39 1.11 -0.81 10.07 0.06 0.06 0.10 6681
0.05 0.28 1.15 -0.86 10.01 0.06 0.05 0.09 6687
0.08 0.25 1.14 -0.87 9.97 0.06 0.04 0.08 6693
0.07 0.22 1.15 -0.88 9.99 0.05 0.04 0.07 6700
0.06 0.20 1.13 -0.89 9.98 0.04 0.03 0.06 6707
0.07 0.18 1.15 -0.93 9.92 0.04 0.03 0.05 6713
0.08 0.13 1.11 -0.88 9.98 0.03 0.02 0.05 6719
0.06 0.10 1.12 -0.88 10.02 0.04 0.02 0.05 6725
0.07 0.08 1.05 -0.87 10.01 0.03 0.02 0.05 6731
0.09 0.08 1.10 -0.92 10.04 0.03 0.01 0.05 6737
0.08 0.05 1.07 -0.91 10.02 0.04 0.01 0.04 6744
0.07 0.04 1.12 -0.91 10.10 0.03 0.00 0.05 6751
0.08 0.02 1.09 -0.88 10.08 0.04 -0.00 0.04 6757
0.08 0.01 1.20 -0.92 9.95 0.04 -0.01 0.04 6763
0.08 0.01 1.17 -0.86 9.98 0.04 -0.02 0.04 6769
0.09 -0.00 1.10 -0.88 9.92 0.04 -0.02 0.04 6775
0.10 -0.01 1.19 -0.93 9.95 0.04 -0.03 0.04 6781
0.09 -0.01 1.04 -0.92 9.88 0.04 -0.02 0.03 6788
0.09 -0.01 1.19 -0.87 10.02 0.04 -0.03 0.03 6795
0.11 -0.01 1.17 -0.90 9.94 0.03 -0.02 0.03 6801
0.11 -0.01 1.16 -0.88 10.04 0.03 -0.02 0.03 6807
0.11 -0.01 1.20 -0.97 9.93 0.03 -0.02 0.02 6813
0.10 -0.01 1.18 -0.93 9.86 0.03 -0.02 0.02 6819
0.12 -0.01 1.23 -0.97 9.93 0.03 -0.01 0.02 6825
0.14 -0.01 1.19 -0.95 9.93 0.03 -0.01 0.02 6832
0.13 -0.01 1.18 -0.98 9.94 0.02 -0.01 0.01 6838
0.13 -0.01 1.19 -0.98 9.91 0.02 -0.01 0.02 6844
0.13 -0.01 1.15 -0.95 9.90 0.01 -0.01 0.01 6850
0.15 -0.02 1.13 -0.97 9.95 0.01 -0.00 0.01 6856
0.16 -0.02 1.21 -0.97 9.98 0.01 -0.00 0.01 6863
0.14 -0.01 1.22 -0.97 9.97 0.00 -0.00 0.01 6870
0.14 -0.01 1.21 -0.95 9.97 -0.00 0.00 0.01 6876
0.14 -0.00 1.15 -0.96 9.97 -0.00 0.00 0.01 6882
0.16 -0.01 1.21 -0.98 9.88 -0.01 -0.00 0.01 6888
0.14 -0.01 1.15 -1.00 9.98 -0.01 0.00 0.02 6894
0.13 -0.01 1.19 -1.02 9.85 -0.00 -0.00 0.02 6900
0.15 -0.01 1.12 -1.03 9.98 -0.01 0.00 0.02 6906
0.16 -0.02 1.13 -0.99 9.99 -0.01 0.00 0.02 6913
0.16 -0.02 1.11 -0.95 9.95 -0.01 -0.00 0.03 6919
0.16 -0.01 1.18 -0.99 9.97 -0.01 0.01 0.02 6926
0.15 -0.01 1.15 -0.79 10.06 -0.00 0.01 0.02 6932
0.14 -0.01 1.14 -0.97 9.93 0.00 0.01 0.02 6938
0.18 -0.02 1.27 -0.97 9.93 0.00 0.01 0.01 6944
0.15 -0.02 1.38 -1.18 9.86 0.00 0.01 0.02 6950
0.09 -0.01 1.13 -0.91 9.97 0.00 0.00 0.02 6957
0.19 -0.02 1.24 -0.94 9.90 -0.01 -0.01 0.02 6963
0.11 -0.01 1.20 -0.91 10.04 -0.00 -0.00 0.01 6969
0.07 -0.00 1.30 -1.01 9.97 -0.00 -0.01 0.01 6975
0.09 0.02 1.31 -1.00 9.94 0.00 -0.01 0.01 6981
0.11 0.00 1.20 -0.96 10.02 0.00 -0.02 0.01 6988
0.12 -0.01 1.20 -0.96 10.03 0.01 -0.02 0.01 6994
0.15 -0.01 1.31 -1.01 9.97 0.01 -0.02 0.00 7001
0.19 -0.02 1.28 -1.00 9.93 0.01 -0.02 0.00 7007
0.17 0.00 1.27 -0.98 9.94 0.01 -0.02 0.00 7013
0.13 -0.01 1.81 -0.97 9.89 0.02 -0.02 0.00 7019
0.10 -0.01 1.25 -0.99 9.92 0.02 -0.02 0.00 7025
0.08 -0.01 1.23 -1.03 9.92 0.02 -0.01 0.00 7031
0.10 -0.01 1.32 -1.01 9.93 0.02 -0.02 0.00 7037
0.09 -0.01 1.27 -1.03 9.97 0.02 -0.02 -0.00 7044
0.17 -0.02 1.23 -1.00 9.91 0.02 -0.03 -0.00 7050
0.13 -0.01 1.20 -1.00 9.90 0.02 -0.03 -0.01 7056
0.13 -0.01 1.29 -1.00 9.93 0.02 -0.04 -0.01 7063
0.14 -0.01 1.20 -1.00 9.98 0.02 -0.05 -0.01 7069
0.14 -0.01 1.37 -1.06 9.93 0.03 -0.05 -0.02 7075
0.16 -0.02 1.29 -1.04 9.94 0.03 -0.05 -0.02 7081
0.18 0.01 1.32 -0.99 10.04 0.05 -0.06 -0.03 7088
0.21 -0.02 1.31 -1.03 10.04 0.06 -0.06 -0.04 7094
0.21 -0.02 1.27 -1.08 9.98 0.08 -0.07 -0.05 7100
0.21 -0.01 1.31 -1.14 10.02 0.11 -0.07 -0.06 7107
0.26 -0.02 1.27 -1.10 10.08 0.15 -0.07 -0.06 7113
0.27 -0.02 1.28 -1.18 10.04 0.18 -0.06 -0.07 7119
0.31 -0.02 1.25 -1.19 10.14 0.22 -0.05 -0.08 7126
0.37 -0.02 1.26 -1.14 10.14 0.29 -0.02 -0.08 7132
0.38 -0.02 1.26 -1.17 10.16 0.35 -0.00 -0.08 7139
0.38 -0.02 1.20 -1.27 10.18 0.40 0.03 -0.09 7145
0.49 -0.03 1.16 -1.21 10.31 0.47 0.07 -0.08 7151
0.49 -0.03 1.18 -1.32 10.36 0.54 0.10 -0.08 7157
0.53 -0.02 1.11 -1.33 10.43 0.61 0.13 -0.07 7163
0.55 -0.04 1.29 -1.42 10.52 0.70 0.17 -0.06 7171
0.57 -0.03 1.26 -1.51 10.59 0.78 0.19 -0.06 7177
0.57 -0.04 1.27 -1.54 10.66 0.86 0.23 -0.06 7183
0.56 -0.04 1.44 -1.59 10.82 0.95 0.26 -0.06 7189
0.52 -0.01 1.52 -1.76 10.96 1.05 0.29 -0.07 7196
0.51 -0.03 1.57 -1.80 10.49 1.13 0.33 -0.08 7202
0.55 -0.03 1.65 -1.25 10.89 1.23 0.40 -0.09 7208
0.53 -0.03 1.43 -2.40 11.18 1.33 0.46 -0.11 7215
0.52 -0.03 1.70 -2.08 11.10 1.41 0.52 -0.12 7221
0.47 -0.03 1.61 -2.20 10.45 1.51 0.58 -0.13 7228
0.45 -0.03 1.66 -2.28 11.15 1.62 0.63 -0.13 7234
0.41 -0.04 1.68 -2.51 11.73 1.76 0.79 -0.14 7240
0.36 -0.01 1.52 -2.57 12.04 1.90 0.94 -0.13 7246
0.30 -0.02 1.71 -2.62 12.31 2.08 1.11 -0.12 7254
0.22 -0.02 1.57 -2.93 13.29 2.29 1.36 -0.10 7260
0.16 -0.01 1.71 -3.05 13.56 2.51 1.68 -0.07 7266
0.15 -0.01 1.62 -3.18 13.50 2.73 2.00 -0.04 7272
0.14 -0.01 1.05 -3.44 13.76 2.93 2.32 0.00 7278
0.12 -0.01 0.57 -3.77 15.84 3.09 2.63 0.09 7284
0.13 -0.01 1.43 -4.33 17.11 3.33 2.99 0.20 7291
0.09 -0.01 1.89 -4.49 17.84 3.63 3.32 0.28 7298
0.08 -0.00 3.31 -4.95 19.02 3.91 3.56 0.33 7304
0.09 -0.01 3.51 -5.86 19.86 4.15 3.74 0.38 7310
0.10 -0.01 3.30 -6.19 21.20 4.27 3.75 0.41 7316
0.10 0.00 3.48 -6.86 21.27 4.28 3.59 0.45 7323
0.09 -0.01 4.53 -7.21 21.13 4.28 3.50 0.55 7329
0.07 -0.01 5.81 -7.83 22.02 4.28 3.46 0.63 7335
0.09 -0.00 7.79 -8.18 23.88 4.28 3.73 0.69 7342
0.05 -0.01 10.13 -7.55 24.90 4.28 4.23 0.70 7348
0.04 -0.00 11.15 -6.25 24.33 4.28 4.28 0.57 7355
0.05 -0.00 11.02 -4.91 23.33 4.28 4.28 0.37 7361
0.05 -0.01 6.79 -2.31 24.70 4.23 4.28 0.09 7367
0.05 -0.01 3.49 -0.39 25.31 4.18 4.28 -0.29 7373
0.06 -0.00 -1.20 1.75 23.94 4.16 4.28 -0.69 7379
0.05 -0.01 -3.17 5.00 21.22 4.06 4.28 -1.12 7386
0.04 -0.00 -5.64 7.39 15.77 3.86 4.28 -1.58 7393
0.03 -0.00 -6.27 7.94 12.81 3.59 4.28 -1.89 7399
0.05 -0.01 -13.68 8.10 5.93 3.33 4.27 -2.35 7405
0.04 -0.00 -14.92 8.25 17.91 2.66 1.97 -2.80 7411
0.05 -0.00 -12.51 11.05 8.85 0.24 -0.67 -2.78 7417
0.06 -0.01 -7.48 14.56 10.69 -1.71 -2.80 -2.51 7425
0.04 -0.00 -2.07 8.77 17.78 -2.82 -4.23 -2.23 7431
0.06 -0.01 -0.26 3.70 15.58 -3.44 -4.28 -2.17 7437
0.03 -0.00 0.83 1.79 13.84 -3.68 -4.28 -2.33 7443
0.04 -0.00 2.33 0.69 11.98 -3.68 -4.28 -2.68 7449
0.06 -0.01 3.20 -0.24 9.49 -3.58 -4.18 -3.11 7456
0.05 -0.00 3.36 -0.85 7.66 -3.41 -3.75 -3.49 7462
0.03 -0.00 3.12 -0.60 6.69 -3.25 -3.26 -3.79 7469
0.04 0.00 2.70 -0.01 6.86 -3.11 -2.94 -3.98 7475
0.03 -0.00 2.38 0.57 7.24 -3.07 -2.74 -4.12 7481
0.02 -0.00 2.40 0.89 8.07 -3.10 -2.68 -4.20 7487
0.00 -0.00 2.76 1.03 8.64 -3.21 -2.72 -4.20 7493
0.03 -0.00 3.24 0.96 8.98 -3.40 -2.81 -4.10 7499
0.04 -0.00 3.74 1.06 9.86 -3.64 -2.85 -3.94 7505
0.06 -0.01 4.63 1.06 10.88 -3.91 -2.86 -3.76 7513
0.05 -0.00 5.05 0.24 11.37 -4.12 -2.91 -3.57 7519
0.06 -0.01 5.36 -1.11 11.04 -4.23 -2.97 -3.24 7525
0.03 -0.00 6.25 -2.11 10.71 -4.27 -3.04 -2.85 7531
0.02 -0.00 7.35 -2.36 10.52 -4.28 -3.16 -2.46 7537
0.04 -0.00 8.08 -2.98 10.32 -4.28 -3.23 -2.09 7543
0.03 -0.00 8.51 -3.88 9.75 -4.28 -3.23 -1.74 7550
0.05 -0.00 9.03 -4.60 9.20 -4.28 -3.16 -1.40 7557
0.04 -0.00 9.63 -5.16 8.85 -4.28 -3.06 -1.09 7563
0.04 -0.00 10.22 -6.12 8.26 -4.27 -2.88 -0.77 7569
0.02 -0.00 10.85 -5.84 7.87 -4.22 -2.61 -0.57 7575
0.02 -0.00 11.55 -6.22 7.63 -4.09 -2.26 -0.32 7581
0.03 -0.00 11.85 -6.56 7.57 -3.87 -1.86 -0.07 7588
0.01 -0.00 12.21 -6.95 8.00 -3.61 -1.41 0.18 7595
0.03 -0.00 12.11 -7.26 8.53 -3.37 -0.98 0.42 7601
0.05 -0.00 11.87 -7.66 9.23 -3.16 -0.57 0.68 7607
0.03 -0.00 11.55 -8.16 9.88 -3.00 -0.21 0.92 7613
0.02 -0.00 11.35 -8.79 10.57 -2.84 0.07 1.16 7619
0.04 -0.00 11.19 -9.33 11.11 -2.71 0.30 1.37 7626
0.04 -0.00 10.93 -9.79 11.45 -2.60 0.46 1.57 7632
0.03 -0.00 10.85 -9.98 11.88 -2.51 0.62 1.74 7639
0.07 -0.01 10.78 -10.17 12.08 -2.44 0.80 1.87 7645
0.05 -0.01 10.62 -10.50 12.18 -2.39 0.97 2.01 7652
0.04 0.00 10.39 -10.70 12.14 -2.33 1.12 2.16 7658
0.05 -0.00 10.09 -10.74 12.05 -2.28 1.22 2.21 7664
0.05 -0.01 9.81 -10.72 11.91 -2.22 1.28 2.27 7670
0.04 -0.00 9.49 -10.78 11.73 -2.16 1.28 2.24 7677
0.05 -0.00 9.19 -10.98 11.56 -2.10 1.27 2.24 7684
0.04 0.01 8.97 -11.14 11.31 -2.02 1.24 2.11 7690
0.04 -0.00 8.69 -11.18 10.45 -1.94 1.21 2.01 7696
0.03 -0.00 8.52 -11.15 10.77 -1.86 1.18 1.83 7703
0.05 -0.01 8.28 -11.16 10.44 -1.76 1.19 1.61 7709
0.03 -0.00 7.95 -11.09 10.19 -1.65 1.23 1.37 7715
0.04 -0.00 7.70 -10.97 9.97 -1.53 1.30 1.12 7721
0.05 -0.00 7.36 -10.87 9.97 -1.41 1.41 0.86 7728
0.03 -0.00 7.04 -10.81 10.06 -1.28 1.57 0.60 7734
0.04 -0.00 6.79 -10.71 10.42 -1.15 1.77 0.36 7741
0.04 -0.00 6.73 -10.60 11.07 -1.04 2.05 0.14 7747
0.04 -0.00 6.82 -10.56 11.90 -1.01 2.40 -0.04 7753
0.03 -0.00 6.50 -10.55 12.51 -1.00 2.81 -0.19 7759
0.04 -0.00 5.87 -10.71 12.89 -1.04 3.24 -0.28 7767
0.04 -0.00 4.30 -10.73 13.13 -1.11 3.51 -0.32 7773
0.04 -0.00 3.91 -10.67 13.10 -1.19 3.68 -0.31 7779
0.04 -0.00 2.83 -10.63 12.80 -1.25 3.67 -0.27 7785
0.02 -0.00 1.86 -10.58 12.38 -1.29 3.54 -0.18 7791
0.04 -0.00 1.09 -10.68 11.86 -1.30 3.31 -0.13 7798
0.04 -0.00 0.56 -10.72 11.45 -1.27 3.05 -0.04 7804
0.02 -0.00 0.26 -10.75 11.11 -1.21 2.77 0.03 7811
0.04 -0.00 0.12 -10.76 10.88 -1.13 2.51 0.08 7817
0.03 -0.00 0.01 -10.69 10.67 -1.03 2.28 0.11 7823
0.03 -0.00 -0.14 -10.54 10.49 -0.91 2.09 0.11 7830
0.03 -0.00 -0.21 -10.36 10.42 -0.78 1.94 0.09 7836
0.03 -0.00 -0.23 -10.17 10.65 -0.65 1.83 0.06 7842
0.02 -0.00 -0.06 -9.96 10.99 -0.53 1.80 0.03 7848
0.04 -0.00 0.01 -9.83 11.22 -0.45 1.84 -0.00 7855
0.03 -0.00 -0.05 -9.71 11.42 -0.40 1.96 -0.03 7861
0.02 -0.00 -0.37 -9.39 11.49 -0.36 2.09 -0.04 7868
0.03 -0.00 -1.10 -9.16 11.40 -0.33 2.33 -0.02 7874
0.04 -0.00 -2.09 -9.15 11.43 -0.27 2.62 0.08 7880
0.03 -0.00 -3.25 -9.47 11.64 -0.20 2.84 0.23 7886
0.03 0.00 -4.71 -9.83 11.73 -0.13 2.85 0.40 7892
0.03 -0.00 -6.20 -10.22 11.64 -0.05 2.64 0.55 7899
0.03 -0.00 -7.50 -10.55 11.21 0.02 2.21 0.70 7906
0.03 -0.00 -8.30 -10.80 10.43 0.13 1.60 0.83 7912
0.03 -0.00 -8.43 -10.89 9.61 0.18 0.88 0.96 7918
0.04 -0.00 -7.78 -11.08 8.78 0.28 0.11 1.05 7924
0.03 0.00 -6.13 -11.35 8.10 0.40 -0.58 1.10 7930
0.03 -0.00 -5.26 -11.61 8.00 0.53 -1.04 1.10 7938
0.03 -0.00 -7.30 -9.58 17.23 0.86 -1.87 1.14 7944
0.02 -0.00 -7.22 -5.87 16.55 1.84 -3.88 1.52 7950
0.01 -0.00 4.91 0.11 9.82 1.79 -3.90 1.60 7956
0.02 -0.00 5.60 7.58 10.13 1.73 -3.79 1.61 7962
0.01 -0.00 10.61 11.09 11.19 1.54 -3.59 1.83 7968
0.03 -0.00 5.14 5.22 13.72 1.31 -3.29 2.07 7975
0.02 -0.00 2.14 1.34 11.36 1.25 -2.86 2.24 7982
0.03 -0.00 0.41 -0.98 9.70 1.24 -2.54 2.28 7988
0.03 -0.00 -1.06 -1.93 8.17 1.26 -2.41 2.22 7994
0.02 -0.00 -1.98 -1.09 8.02 1.26 -2.49 2.06 8000
0.02 0.00 -2.78 -0.00 9.40 1.30 -2.72 1.90 8006
0.02 0.01 -3.13 1.51 10.49 1.38 -2.94 1.63 8012
0.03 0.06 -3.34 2.15 13.06 1.47 -2.93 1.33 8019
0.03 0.17 -3.88 2.16 14.85 1.54 -2.59 1.02 8026
0.02 0.27 -4.48 1.98 14.81 1.55 -2.25 0.66 8032
0.03 0.30 -4.36 1.95 14.28 1.56 -2.15 0.25 8038
0.01 0.44 -2.45 0.70 15.79 1.54 -2.36 -0.17 8045
0.04 0.48 1.51 -1.60 16.68 1.39 -2.68 -0.36 8051
0.02 0.49 2.54 -2.28 16.48 1.20 -2.51 -0.20 8057
0.02 0.55 1.63 -1.45 14.21 0.86 -2.01 0.01 8064
0.03 0.65 0.67 -1.39 13.49 0.56 -1.51 0.08 8070
0.02 0.65 0.78 -1.84 12.50 0.36 -1.03 0.10 8077
0.01 0.72 0.30 -0.53 11.06 0.21 -0.70 0.08 8083
0.02 0.73 0.00 -0.44 10.70 0.14 -0.55 0.03 8089
0.02 0.76 1.13 -1.27 9.89 0.10 -0.45 0.02 8095
0.00 0.79 0.92 -0.83 10.26 0.04 -0.29 0.04 8101
0.01 0.73 0.76 -0.93 10.19 0.02 -0.19 0.06 8109
0.02 0.81 0.68 -0.83 9.94 -0.01 -0.11 0.06 8115
-0.01 0.78 0.75 -0.77 10.16 -0.01 -0.06 0.06 8121
0.01 0.82 0.84 -0.81 10.26 0.00 -0.04 0.07 8127
0.01 0.79 0.91 -0.83 10.10 0.01 -0.02 0.08 8133
0.02 0.81 0.94 -0.81 10.11 0.02 -0.01 0.08 8139
0.02 0.79 0.98 -0.74 9.98 0.03 -0.01 0.08 8146
0.01 0.72 1.01 -0.75 10.03 0.03 -0.01 0.08 8153
0.01 0.69 0.97 -0.71 9.95 0.03 -0.01 0.08 8159
0.03 0.70 0.96 -0.76 9.93 0.03 -0.01 0.07 8165
0.02 0.67 1.07 -0.76 9.98 0.02 0.00 0.07 8171
0.03 0.65 0.97 -0.78 10.02 0.02 0.02 0.06 8177
0.04 0.61 0.96 -0.76 10.03 0.02 0.02 0.06 8183
0.04 0.57 0.96 -0.75 9.98 0.02 0.04 0.06 8190
0.03 0.53 0.95 -0.78 10.04 0.02 0.06 0.06 8197
0.03 0.53 0.92 -0.77 10.06 0.02 0.09 0.06 8203
0.03 0.52 0.92 -0.79 9.97 0.02 0.12 0.07 8209
0.03 0.46 0.98 -0.80 10.06 0.02 0.15 0.07 8215
0.02 0.44 1.00 -0.75 9.96 0.02 0.16 0.08 8221
0.04 0.38 1.11 -0.89 10.04 0.03 0.17 0.08 8228
0.04 0.36 0.99 -0.71 9.96 0.03 0.17 0.09 8235
0.03 0.34 1.09 -0.72 9.98 0.04 0.17 0.10 8241
0.04 0.28 1.15 -0.76 9.97 0.04 0.16 0.10 8247
0.04 0.20 1.20 -0.80 9.95 0.04 0.16 0.11 8253
0.04 0.14 1.20 -0.80 10.02 0.00 0.17 0.11 8259
0.04 0.14 1.11 -0.89 10.13 0.04 0.17 0.12 8266
0.05 0.07 1.09 -0.90 10.03 0.04 0.17 0.13 8272
0.04 0.08 1.22 -0.81 9.96 0.04 0.17 0.13 8279
0.04 0.04 1.17 -0.80 10.00 0.04 0.18 0.13 8285
0.05 0.03 1.22 -0.86 10.00 0.05 0.18 0.10 8291
0.05 0.03 1.29 -0.75 9.95 0.05 0.18 0.13 8297
0.04 0.02 1.29 -0.94 9.97 0.05 0.19 0.12 8303
0.05 0.00 1.25 -0.87 10.00 0.05 0.20 0.12 8310
0.05 0.00 1.33 -0.84 9.92 0.05 0.20 0.10 8316
0.06 0.00 1.35 -0.88 9.83 0.05 0.19 0.09 8323
0.05 0.00 1.41 -0.80 9.86 0.04 0.18 0.08 8329
0.04 -0.00 1.48 -0.80 9.92 0.04 0.17 0.06 8335
0.06 -0.01 1.49 -0.94 9.89 0.03 0.16 0.05 8341
0.06 -0.01 1.47 -0.89 9.87 0.02 0.16 0.04 8347
0.05 -0.01 1.50 -0.74 9.86 0.01 0.15 0.03 8353
0.07 0.01 1.53 -0.85 9.88 0.02 0.13 0.02 8359
0.06 -0.01 1.06 -0.63 10.59 0.01 0.11 0.01 8367
0.05 -0.00 1.48 -1.30 9.94 0.02 0.12 0.01 8373
0.06 -0.01 1.50 -0.90 10.02 0.02 0.10 0.00 8379
0.05 -0.01 1.47 -0.77 9.91 0.03 0.08 0.00 8385
0.04 -0.00 1.48 -0.84 10.04 0.04 0.07 0.00 8391
0.05 -0.00 1.54 -0.97 9.91 0.04 0.05 -0.00 8397
0.04 -0.00 1.52 -0.94 9.96 0.05 0.04 -0.00 8403
0.05 -0.01 1.57 -0.92 10.00 0.05 0.05 -0.00 8410
0.05 -0.01 1.43 -0.91 9.97 0.05 0.05 -0.00 8416
0.05 -0.00 1.47 -0.94 9.98 0.06 0.07 0.00 8422
0.04 -0.00 1.45 -0.93 9.96 0.07 0.08 0.00 8428
0.05 -0.00 1.48 -0.93 10.00 0.07 0.09 0.00 8434
0.05 -0.01 1.50 -0.90 9.93 0.09 0.09 0.00 8441
0.05 -0.00 1.54 -0.96 9.87 0.10 0.09 0.00 8448
0.04 -0.00 1.61 -0.95 9.95 0.11 0.08 0.00 8454
0.04 -0.00 1.56 -0.98 9.95 0.12 0.04 -0.00 8460
0.04 -0.00 1.74 1.11 11.10 0.13 0.05 -0.12 8466
0.06 -0.01 3.45 0.44 7.67 0.18 -0.01 0.07 8472
0.04 -0.00 1.79 -1.13 9.13 0.05 -0.09 -0.03 8478
0.03 -0.00 1.95 -0.36 10.14 0.07 -0.15 -0.02 8484
0.04 -0.00 1.72 -1.07 9.69 0.12 -0.09 -0.05 8491
0.05 -0.01 1.84 -1.00 9.60 0.08 -0.22 -0.06 8497
0.06 -0.01 1.78 -1.02 9.79 0.06 -0.29 -0.08 8503
0.06 -0.01 1.66 -1.02 9.81 0.05 -0.31 -0.10 8510
0.06 -0.00 1.59 -0.97 9.94 0.05 -0.31 -0.10 8516
0.06 -0.01 1.54 -1.13 9.94 0.04 -0.28 -0.11 8522
0.07 -0.01 1.51 -1.11 9.96 0.04 -0.26 -0.11 8528
0.06 -0.01 1.47 -1.12 10.11 0.05 -0.22 -0.10 8535
0.08 -0.01 1.48 -1.07 10.08 0.08 -0.18 -0.11 8541
0.08 -0.01 1.42 -1.20 10.06 0.10 -0.14 -0.11 8547
0.08 -0.01 1.45 -1.21 10.14 0.14 -0.10 -0.11 8554
0.09 -0.00 1.26 -1.16 10.25 0.18 -0.07 -0.10 8560
0.11 -0.01 1.48 -1.19 10.20 0.23 -0.03 -0.10 8566
0.12 -0.01 1.38 -1.12 10.16 0.30 0.02 -0.10 8572
0.12 -0.01 1.52 -1.80 10.28 0.36 0.04 -0.11 8579
0.15 -0.02 1.45 -1.22 10.36 0.45 0.08 -0.12 8585
0.17 -0.02 1.52 -1.40 10.20 0.55 0.13 -0.12 8592
0.20 -0.01 1.46 -1.29 10.55 0.67 0.19 -0.13 8598
0.21 -0.02 1.54 -1.43 10.51 0.81 0.24 -0.14 8604
0.25 -0.03 1.55 -1.54 10.59 0.93 0.27 -0.15 8610
0.25 -0.01 1.57 -1.67 10.82 1.06 0.32 -0.16 8616
0.25 -0.02 1.71 -1.74 11.17 1.18 0.33 -0.17 8624
0.27 -0.02 1.56 -1.73 11.39 1.32 0.35 -0.18 8630
0.33 -0.02 1.63 -1.89 10.95 1.42 0.37 -0.19 8636
0.35 -0.02 1.71 -1.93 11.30 1.48 0.39 -0.20 8642
0.37 -0.02 1.79 -2.01 11.13 1.57 0.43 -0.21 8649
0.40 -0.03 1.76 -2.15 11.27 1.67 0.53 -0.21 8655
0.39 -0.04 1.70 -2.36 11.66 1.78 0.62 -0.22 8662
0.34 -0.02 1.82 -2.43 12.07 1.93 0.68 -0.21 8668
0.30 -0.02 1.65 -2.57 12.13 2.09 0.83 -0.21 8674
0.22 -0.02 1.37 -2.80 12.65 2.26 0.99 -0.18 8681
0.21 -0.01 1.53 -2.79 12.93 2.45 1.22 -0.13 8687
0.19 -0.02 1.95 -2.89 13.40 2.65 1.52 -0.12 8693
0.11 -0.01 1.71 -3.35 13.43 2.83 1.81 -0.11 8699
0.14 -0.01 0.90 -3.61 14.11 3.02 2.07 -0.04 8706
0.11 -0.01 1.00 -4.13 15.00 3.25 2.36 0.08 8713
0.11 -0.01 1.49 -4.64 15.95 3.49 2.64 0.20 8719
0.10 0.00 2.24 -5.15 16.48 3.71 2.89 0.31 8725
0.08 -0.01 2.88 -5.79 17.41 3.87 3.11 0.43 8731
0.07 -0.01 4.05 -6.70 20.05 3.96 3.35 0.50 8737
0.07 -0.01 6.03 -7.00 23.63 4.12 3.69 0.55 8743
0.06 -0.01 7.79 -7.33 23.85 4.24 4.20 0.54 8751
0.08 -0.01 10.53 -6.95 24.67 4.27 4.28 0.53 8757
0.09 -0.01 13.42 -7.67 24.53 4.26 4.28 0.56 8763
0.06 -0.01 14.65 -6.80 26.38 4.16 4.28 0.55 8769
0.04 -0.00 13.28 -6.52 26.47 3.96 4.28 0.34 8775
0.05 -0.01 8.74 -5.08 27.49 3.77 4.28 -0.02 8782
0.04 -0.00 1.68 -3.89 27.43 3.71 4.28 -0.47 8788
0.05 -0.00 -3.68 -0.81 25.93 3.77 4.28 -0.90 8795
0.04 -0.00 -8.04 1.66 22.43 3.84 4.28 -1.32 8801
0.04 -0.00 -10.26 4.57 17.02 3.80 4.28 -1.67 8807
0.04 -0.00 -12.87 9.36 14.92 3.48 4.28 -1.83 8813
0.04 0.00 -14.47 11.35 7.30 2.87 3.50 -1.84 8820
0.04 -0.00 -15.28 10.58 1.90 2.34 0.22 -2.33 8826
0.02 -0.00 -14.99 12.16 19.62 0.05 -2.23 -2.26 8833
0.04 0.01 -3.46 10.19 17.25 -1.94 -3.70 -2.04 8839
0.05 -0.00 0.48 5.09 18.47 -2.62 -4.28 -1.91 8846
0.03 -0.00 0.91 2.96 16.78 -2.99 -4.28 -1.95 8852
0.06 -0.01 1.16 1.99 13.24 -3.09 -4.28 -2.28 8858
0.04 -0.00 1.57 0.88 10.60 -3.00 -3.96 -2.71 8864
0.02 -0.00 1.75 0.69 8.91 -2.86 -3.49 -3.22 8870
0.04 -0.00 1.52 0.96 6.98 -2.71 -3.09 -3.59 8877
0.04 -0.00 1.12 1.31 6.37 -2.59 -2.75 -3.85 8883
0.04 -0.00 0.85 1.45 6.83 -2.54 -2.54 -4.03 8890
0.03 -0.00 0.85 1.61 7.02 -2.51 -2.50 -4.14 8896
0.04 -0.00 0.52 1.62 6.93 -2.53 -2.58 -4.17 8902
0.01 -0.00 0.37 1.48 6.97 -2.55 -2.78 -4.14 8908
0.03 -0.00 0.41 1.43 7.12 -2.57 -3.06 -4.04 8914
0.02 -0.00 1.58 1.52 8.41 -2.61 -3.35 -3.94 8921
0.05 -0.00 3.05 1.73 10.05 -2.70 -3.59 -3.80 8927
0.04 -0.00 4.56 1.37 10.89 -2.78 -3.70 -3.61 8933
0.04 -0.00 5.84 1.10 11.19 -2.94 -3.72 -3.37 8940
0.04 -0.00 6.80 1.02 11.22 -3.14 -3.64 -3.12 8946
0.04 -0.00 7.81 1.01 11.99 -3.38 -3.46 -2.85 8952
0.02 -0.00 9.16 0.18 11.69 -3.61 -3.15 -2.63 8958
0.04 0.01 9.60 -0.38 11.49 -3.84 -2.80 -2.37 8965
0.03 -0.00 9.58 -1.23 11.21 -4.01 -2.37 -2.10 8972
0.02 -0.00 9.68 -2.18 10.79 -4.09 -2.00 -1.83 8978
0.05 -0.00 9.53 -2.97 10.20 -4.13 -1.75 -1.56 8984
0.05 -0.01 9.37 -3.70 9.96 -4.12 -1.60 -1.29 8990
0.02 -0.00 9.51 -4.40 9.63 -4.09 -1.55 -1.00 8996
0.05 -0.00 9.87 -5.07 9.48 -4.04 -1.58 -0.73 9003
0.05 -0.00 10.55 -5.77 9.84 -3.95 -1.60 -0.46 9009
0.03 -0.00 11.27 -6.32 9.91 -3.85 -1.58 -0.21 9016
0.04 -0.00 11.93 -6.98 10.24 -3.74 -1.44 -0.00 9022
0.06 -0.01 12.40 -7.65 10.30 -3.62 -1.18 0.23 9028
0.07 -0.01 12.99 -8.71 9.85 -3.45 -0.80 0.45 9034
0.02 0.02 12.93 -9.00 9.85 -3.32 -0.43 0.68 9040
0.07 -0.01 12.73 -10.04 11.02 -3.13 -0.04 0.89 9048
0.05 -0.01 12.14 -10.51 10.92 -2.94 0.29 1.10 9054
0.05 -0.01 11.77 -10.75 11.43 -2.75 0.56 1.33 9060
0.04 -0.00 11.27 -11.03 11.70 -2.57 0.74 1.55 9067
0.05 -0.00 10.74 -11.21 11.97 -2.42 0.86 1.76 9073
0.04 -0.00 10.38 -11.36 12.14 -2.27 0.93 1.95 9079
0.03 -0.00 10.08 -11.50 12.19 -2.13 0.98 2.10 9085
0.04 -0.00 9.76 -11.66 12.10 -1.99 1.02 2.20 9093
0.04 -0.00 9.37 -11.85 11.86 -1.86 1.06 2.26 9099
0.03 -0.00 9.07 -12.04 11.65 -1.74 1.08 2.27 9105
0.05 -0.01 8.72 -12.03 11.34 -1.61 1.06 2.23 9111
0.03 -0.00 8.42 -11.92 11.01 -1.48 1.01 2.14 9117
0.04 -0.00 8.18 -11.85 10.64 -1.35 0.96 2.02 9124
0.03 -0.00 8.05 -11.74 10.26 -1.26 0.92 1.86 9131
0.04 -0.00 7.84 -11.55 10.19 -1.13 0.90 1.67 9137
0.04 0.00 7.86 -11.24 10.28 -1.01 0.91 1.48 9143
0.04 -0.00 7.94 -11.04 10.59 -0.91 0.97 1.30 9149
0.03 -0.00 7.98 -11.01 10.82 -0.83 1.13 1.11 9156
0.04 -0.00 7.83 -11.01 10.95 -0.79 1.36 0.94 9162
0.04 -0.00 7.59 -10.88 11.19 -0.77 1.61 0.78 9168
0.03 -0.00 7.51 -10.66 11.62 -0.77 1.88 0.62 9175
0.03 -0.00 7.45 -10.41 11.83 -0.80 2.18 0.53 9182
0.03 -0.00 6.95 -10.34 11.84 -0.87 2.51 0.43 9188
0.03 -0.00 6.19 -10.31 11.06 -0.96 2.82 0.36 9194
0.02 -0.00 5.44 -10.24 11.53 -1.03 3.06 0.32 9200
0.02 -0.00 4.79 -10.23 11.30 -1.09 3.20 0.29 9206
0.02 0.00 4.15 -10.16 11.18 -1.13 3.26 0.26 9213
0.02 -0.00 3.64 -10.11 11.04 -1.15 3.29 0.23 9220
0.01 -0.00 3.06 -10.06 10.89 -1.15 3.29 0.21 9226
0.04 -0.00 2.50 -9.90 10.78 -1.13 3.28 0.19 9232
0.04 -0.00 2.01 -9.83 10.74 -1.07 3.25 0.17 9238
0.02 -0.00 1.44 -9.78 10.75 -1.06 3.20 0.15 9244
0.03 0.00 1.04 -9.73 10.94 -1.02 3.11 0.13 9251
0.03 -0.00 0.78 -9.72 11.23 -0.96 3.07 0.11 9257
0.04 -0.00 0.58 -10.39 11.66 -0.92 3.00 0.08 9264
0.03 -0.00 0.40 -9.94 12.00 -0.90 2.93 0.05 9270
0.03 -0.00 0.19 -10.11 12.42 -0.92 2.87 0.02 9276
0.03 -0.00 -0.08 -10.35 12.76 -0.95 2.82 -0.01 9283
0.03 -0.00 -0.29 -10.41 12.73 -0.99 2.76 -0.04 9289
0.03 -0.00 -0.82 -10.26 12.22 -1.03 2.73 -0.04 9295
0.02 -0.00 -1.61 -10.14 11.56 -1.01 2.80 0.03 9302
0.03 -0.00 -2.58 -10.46 10.95 -0.95 2.90 0.18 9308
0.04 -0.00 -3.66 -10.88 10.68 -0.82 2.94 0.37 9315
0.03 -0.00 -5.08 -11.32 10.92 -0.67 2.83 0.55 9321
0.03 -0.00 -6.77 -11.71 10.98 -0.56 2.54 0.71 9327
0.02 -0.00 -8.50 -11.92 10.71 -0.43 2.10 0.86 9333
0.02 -0.00 -10.40 -12.13 10.14 -0.31 1.60 0.99 9339
0.04 -0.00 -10.56 -12.50 9.56 -0.19 1.05 1.10 9347
0.03 -0.00 -9.89 -13.12 9.04 -0.07 0.53 1.13 9353
0.03 -0.00 -9.99 -14.35 8.23 0.05 -0.20 1.08 9359
0.04 -0.00 -35.59 -15.80 26.04 1.40 -3.72 1.45 9365
0.03 -0.00 0.23 -6.24 9.66 1.63 -4.28 2.01 9371
0.02 -0.00 4.59 6.67 4.89 1.35 -4.28 1.58 9377
0.03 -0.00 6.10 7.48 9.16 1.26 -4.28 1.49 9384
0.04 -0.00 5.62 4.42 9.02 1.02 -4.28 1.69 9391
0.02 -0.00 2.65 3.43 10.36 0.96 -4.28 1.95 9397
0.02 -0.00 0.31 0.51 10.56 1.02 -4.28 2.11 9403
0.02 0.01 -0.79 -0.70 9.26 1.12 -4.05 2.13 9409
0.02 0.06 -2.33 0.74 11.62 1.32 -3.59 2.05 9415
0.02 0.25 -5.44 2.11 14.83 1.60 -3.09 1.84 9422
0.02 0.39 -8.63 3.48 14.93 1.98 -2.46 1.59 9428
0.02 0.51 -10.75 3.00 14.22 2.26 -1.99 1.08 9435
0.01 0.67 -9.17 1.32 15.27 2.42 -1.72 0.44 9441
0.01 0.73 -7.00 -0.63 15.34 2.50 -1.53 -0.17 9448
0.00 0.76 -2.75 -1.22 16.32 2.51 -1.52 -0.68 9454
0.02 0.85 5.91 -1.72 25.15 2.22 -2.33 -0.83 9460
0.01 0.78 6.78 -3.23 16.83 1.25 -2.43 -0.28 9466
0.01 0.85 1.88 -2.40 13.78 0.84 -1.60 0.17 9473
-0.00 0.90 1.58 -1.99 11.18 0.46 -1.02 0.22 9480
-0.01 0.87 0.29 -1.26 10.99 0.36 -0.87 0.24 9486
0.00 0.96 0.23 -0.24 10.40 0.29 -0.85 0.13 9492
0.00 0.99 0.68 -0.37 10.74 0.25 -0.75 0.06 9498
-0.02 1.02 0.95 -0.93 10.53 0.19 -0.57 0.05 9504
0.00 1.11 0.93 -1.11 10.38 0.11 -0.37 0.07 9511
0.00 1.11 0.69 -0.98 10.49 0.04 -0.23 0.08 9518
-0.01 1.11 0.58 -0.81 10.31 0.01 -0.14 0.06 9524
-0.01 1.13 0.76 -0.67 10.19 0.00 -0.09 0.05 9530
-0.01 1.15 0.89 -0.78 10.14 0.00 -0.05 0.04 9537
-0.00 1.11 0.88 -0.77 10.12 0.01 -0.02 0.06 9543
0.03 1.08 0.93 -0.73 10.11 0.01 -0.00 0.06 9549
0.01 1.03 0.93 -0.73 10.03 0.00 0.02 0.06 9555
0.00 1.00 0.97 -0.73 10.04 0.00 0.04 0.06 9562
0.02 0.98 0.92 -0.71 10.02 0.01 0.06 0.07 9568
0.00 0.96 0.95 -0.68 10.00 0.01 0.08 0.07 9575
0.01 0.88 0.98 -0.68 10.01 0.01 0.10 0.07 9581
0.02 0.89 1.10 -0.78 9.96 0.01 0.11 0.07 9587
0.02 0.83 1.04 -0.76 9.94 0.01 0.12 0.07 9593
0.01 0.79 1.05 -0.70 9.94 0.01 0.12 0.07 9600
0.02 0.75 1.04 -0.70 9.89 0.02 0.13 0.06 9606
0.02 0.72 0.97 -0.75 9.93 0.02 0.14 0.06 9612
0.01 0.70 1.06 -0.70 9.96 0.02 0.14 0.06 9619
0.02 0.66 1.06 -0.67 10.02 0.01 0.15 0.06 9625
0.02 0.61 1.12 -0.66 10.02 0.01 0.16 0.07 9631
0.03 0.55 1.09 -0.68 10.06 0.01 0.15 0.06 9637
0.02 0.52 1.20 -0.88 9.86 0.01 0.15 0.06 9644
0.03 0.50 1.16 -0.68 9.95 0.02 0.14 0.07 9650
0.03 0.43 1.80 -0.70 9.99 0.02 0.13 0.06 9657
0.03 0.33 1.23 -0.68 9.89 0.03 0.11 0.06 9663
0.03 0.37 1.24 -0.76 9.94 0.03 0.11 0.06 9669
0.05 0.30 1.18 -0.74 9.89 0.03 0.10 0.06 9675
0.04 0.26 1.20 -0.73 9.99 0.03 0.10 0.07 9681
0.03 0.24 1.26 -0.74 10.05 0.03 0.09 0.07 9688
0.05 0.21 1.21 -0.73 9.97 0.03 0.09 0.07 9694
0.04 0.14 1.31 -0.75 9.97 0.03 0.09 0.06 9701
0.03 0.13 1.83 -0.77 9.96 0.03 0.09 0.06 9707
0.03 0.12 1.28 -0.95 10.02 0.03 0.09 0.05 9713
0.05 0.09 1.27 -0.74 9.97 0.02 0.09 0.05 9719
0.04 0.07 1.36 -0.75 9.95 0.02 0.09 0.05 9725
0.04 0.06 1.39 -0.94 9.94 0.02 0.09 0.04 9732
0.05 0.06 1.34 -0.79 9.95 0.02 0.09 0.04 9738
0.05 0.03 1.36 -0.76 9.99 0.02 0.09 0.03 9744
0.05 0.02 1.29 -0.82 10.00 0.03 0.08 0.03 9751
0.05 0.02 1.37 -0.80 9.92 0.03 0.08 0.03 9757
0.07 0.02 1.37 -0.77 9.92 0.03 0.07 0.03 9763
0.04 0.04 1.41 -0.74 9.87 0.03 0.07 0.03 9769
0.06 -0.01 1.34 -0.94 10.03 0.03 0.06 0.02 9776
0.06 0.01 1.39 -0.77 9.96 0.03 0.05 0.02 9782
0.05 -0.01 1.44 -0.76 9.96 0.03 0.04 0.02 9788
0.06 -0.01 1.44 -0.82 9.89 0.04 0.03 0.02 9794
0.06 -0.01 1.52 -0.96 9.86 0.04 0.00 0.02 9800
0.04 -0.00 1.19 -0.77 10.15 0.04 -0.01 0.02 9807
0.06 -0.01 1.50 -0.79 10.10 0.04 -0.02 0.01 9814
0.04 -0.00 1.42 -0.81 9.95 0.04 -0.06 0.01 9820
0.03 -0.00 1.50 -0.78 10.03 0.05 -0.08 0.01 9826
0.06 -0.01 1.52 -0.64 9.92 0.05 -0.09 0.00 9832
0.04 -0.00 1.45 -1.07 9.97 0.05 -0.11 -0.00 9838
0.02 -0.00 1.45 -0.85 9.87 0.04 -0.11 -0.01 9844
0.06 -0.01 1.48 -0.85 9.90 0.04 -0.11 -0.02 9850
0.06 -0.01 1.39 -0.86 9.98 0.04 -0.11 -0.02 9857
0.08 -0.00 1.45 -0.88 10.01 0.04 -0.11 -0.02 9863
0.08 -0.01 1.35 -0.86 9.98 0.03 -0.11 -0.03 9870
0.07 -0.01 1.35 -0.91 9.97 0.04 -0.12 -0.04 9876
0.09 -0.00 1.36 -0.86 9.98 0.04 -0.13 -0.04 9882
0.11 -0.01 1.41 -0.82 9.91 0.04 -0.13 -0.04 9888
0.11 -0.01 1.29 -0.86 9.96 0.04 -0.12 -0.04 9894
0.11 -0.01 1.27 -0.92 9.99 0.03 -0.10 -0.03 9901
0.11 -0.00 1.37 -0.95 10.01 0.03 -0.09 -0.03 9907
0.12 -0.01 1.29 -0.93 9.96 0.03 -0.06 -0.03 9913
0.12 -0.01 1.30 -0.95 9.99 0.04 -0.05 -0.03 9920
0.15 -0.01 1.31 -0.92 10.03 0.03 -0.03 -0.03 9926
0.15 -0.02 1.26 -0.96 10.06 0.05 -0.01 -0.02 9932
0.16 -0.02 1.30 -1.03 10.02 0.06 0.00 -0.02 9938
0.16 -0.02 1.31 -1.01 10.01 0.07 0.01 -0.01 9945
0.16 -0.02 1.29 -0.97 10.04 0.09 0.02 -0.00 9951
0.18 -0.02 1.26 -0.94 10.05 0.10 0.02 0.00 9957
0.15 -0.01 1.37 -0.95 10.03 0.12 0.03 0.00 9963
0.17 -0.02 1.35 -0.94 10.20 0.15 0.04 0.00 9970
0.18 0.00 1.33 -0.96 10.09 0.18 0.04 0.01 9976
0.17 -0.02 1.47 -0.97 10.17 0.22 0.05 0.00 9982
0.18 -0.02 1.41 -0.93 10.15 0.27 0.06 -0.01 9989
0.20 -0.02 1.56 -1.08 10.08 0.33 0.07 -0.03 9995
0.20 -0.02 1.53 -1.04 10.11 0.38 0.08 -0.05 10001
0.20 -0.02 1.54 -1.09 10.20 0.42 0.09 -0.07 10008
0.23 -0.01 1.67 -1.17 10.04 0.46 0.09 -0.09 10014
0.25 -0.02 1.55 -1.24 10.10 0.53 0.09 -0.11 10020
0.27 -0.02 1.55 -1.37 10.15 0.54 0.10 -0.14 10027
0.30 -0.02 2.10 -1.00 9.69 0.60 0.10 -0.16 10034
0.31 -0.03 1.53 -1.44 10.38 0.66 0.10 -0.17 10040
0.34 -0.02 1.67 -1.43 10.80 0.75 0.11 -0.20 10046
0.39 -0.02 1.70 -1.47 10.83 0.86 0.11 -0.22 10052
0.44 -0.03 1.76 -1.64 11.00 0.95 0.09 -0.23 10059
0.48 -0.03 1.56 -1.72 10.53 1.04 0.09 -0.24 10065
0.54 -0.03 1.51 -1.77 10.61 1.09 0.10 -0.24 10072
0.58 -0.02 1.52 -1.88 10.47 1.14 0.13 -0.23 10078
0.64 -0.03 1.34 -1.88 10.82 1.21 0.17 -0.21 10085
0.61 -0.03 1.64 -2.15 10.97 1.28 0.23 -0.20 10091
0.66 -0.04 1.45 -2.10 10.70 1.34 0.31 -0.20 10097
0.63 -0.04 1.37 -2.16 10.53 1.41 0.38 -0.19 10103
0.64 -0.03 1.59 -2.28 11.18 1.50 0.45 -0.17 10110
0.59 -0.03 1.56 -2.45 11.08 1.62 0.58 -0.17 10117
0.53 -0.03 1.47 -2.52 10.86 1.72 0.75 -0.16 10123
0.47 -0.03 1.30 -2.65 10.49 1.81 0.96 -0.14 10130
0.36 -0.03 1.40 -2.85 11.41 1.91 1.21 -0.11 10136
0.33 -0.02 1.11 -3.01 12.19 2.05 1.51 -0.06 10142
0.22 -0.02 1.30 -3.26 13.08 2.21 1.79 0.01 10148
0.15 -0.02 2.08 -3.57 13.31 2.40 2.16 0.05 10156
0.16 -0.02 1.76 -3.70 13.41 2.57 2.41 0.10 10162
0.12 -0.01 1.06 -3.85 13.68 2.69 2.70 0.19 10168
0.12 -0.01 1.26 -4.90 16.07 2.84 3.03 0.32 10174
0.11 -0.01 1.37 -5.23 17.59 3.08 3.46 0.47 10180
0.07 -0.01 2.79 -5.33 19.13 3.32 3.84 0.54 10187
0.08 -0.01 4.36 -5.90 20.48 3.55 4.14 0.58 10193
0.06 -0.01 3.98 -5.48 22.29 3.83 4.27 0.60 10200
0.07 -0.01 4.74 -7.02 21.97 4.12 4.28 0.62 10206
0.08 -0.00 5.82 -6.40 22.92 4.25 4.27 0.66 10212
0.09 -0.01 7.95 -6.92 22.36 4.26 4.28 0.76 10219
0.07 0.01 10.88 -7.16 22.94 4.21 4.28 0.75 10225
0.08 -0.01 10.55 -6.37 23.80 4.12 4.28 0.63 10231
0.05 -0.00 8.61 -5.32 24.64 4.01 4.28 0.39 10237
0.07 -0.01 5.56 -3.76 24.30 3.97 4.28 0.09 10245
0.05 -0.01 2.34 -2.30 23.06 3.98 4.28 -0.20 10251
0.04 -0.00 -0.35 -0.02 23.72 4.01 4.28 -0.47 10257
0.05 -0.01 -3.57 1.78 21.46 4.02 4.28 -0.78 10263
0.04 -0.00 -5.08 4.68 18.76 3.94 4.28 -1.14 10269
0.04 0.00 -5.63 6.63 14.87 3.72 4.28 -1.39 10276
0.04 -0.00 -12.71 7.34 8.98 3.37 3.89 -1.66 10283
0.04 -0.00 -14.81 8.06 12.18 3.17 1.51 -2.58 10289
0.04 -0.00 -12.98 9.43 16.44 1.11 -0.63 -2.99 10295
0.02 -0.00 -5.52 12.35 11.76 -1.12 -2.09 -2.97 10302
0.05 -0.00 -0.22 7.88 17.69 -2.25 -3.32 -2.84 10308
0.06 -0.01 0.88 3.55 16.63 -2.83 -3.90 -2.79 10314
0.05 -0.01 0.69 1.62 15.82 -3.11 -3.80 -2.99 10320
0.05 -0.00 0.61 0.68 13.59 -3.21 -3.45 -3.39 10328
0.03 -0.00 0.83 0.14 11.48 -3.22 -3.16 -3.79 10334
0.02 -0.00 0.95 0.41 9.79 -3.21 -3.04 -4.05 10340
0.05 0.00 0.39 0.94 8.98 -3.22 -3.04 -4.17 10346
0.05 -0.00 0.07 1.16 9.26 -3.26 -3.13 -4.26 10352
0.03 -0.00 0.25 1.01 9.64 -3.33 -3.30 -4.28 10359
0.03 0.01 0.74 0.63 9.90 -3.40 -3.53 -4.28 10365
0.02 -0.00 1.44 0.27 10.13 -3.47 -3.77 -4.25 10372
0.02 -0.00 2.32 -0.07 10.16 -3.55 -3.95 -4.11 10378
0.03 0.01 3.55 -0.02 10.08 -3.66 -4.06 -3.97 10384
0.03 -0.00 4.71 -0.05 10.56 -3.75 -4.12 -3.86 10391
0.04 -0.00 5.76 -0.56 10.85 -3.83 -4.16 -3.73 10397
0.04 -0.00 6.64 -1.46 10.57 -3.88 -4.19 -3.54 10403
0.03 -0.00 7.60 -1.93 10.33 -3.93 -4.19 -3.29 10409
0.03 0.00 8.76 -2.13 10.41 -3.97 -4.14 -3.03 10417
0.04 -0.00 9.68 -2.42 10.68 -3.99 -3.91 -2.75 10423
0.03 -0.00 11.47 -2.82 10.84 -4.01 -3.69 -2.46 10429
0.05 -0.00 12.23 -3.08 10.63 -4.03 -3.40 -2.18 10435
0.03 -0.00 12.15 -3.36 10.40 -4.04 -3.12 -1.89 10442
0.04 0.00 12.57 -3.93 10.01 -4.05 -2.76 -1.59 10448
0.04 -0.00 12.92 -4.64 9.73 -4.05 -2.43 -1.30 10455
0.04 -0.00 12.99 -5.31 9.46 -4.02 -2.18 -1.00 10461
0.04 -0.00 13.12 -5.98 9.34 -3.96 -1.91 -0.68 10468
0.05 -0.00 13.22 -6.40 9.24 -3.84 -1.63 -0.36 10474
0.03 -0.00 13.69 -6.93 8.73 -3.68 -1.31 -0.05 10480
0.04 0.01 13.67 -7.94 8.72 -3.50 -0.93 0.27 10486
0.04 -0.00 13.73 -7.69 8.67 -3.32 -0.51 0.57 10492
0.04 0.01 13.37 -8.47 9.21 -3.11 -0.06 0.88 10500
0.03 -0.00 12.91 -9.08 9.95 -2.91 0.38 1.16 10506
0.04 -0.00 12.37 -9.56 10.67 -2.70 0.76 1.41 10512
0.05 -0.01 11.73 -9.83 10.87 -2.52 1.08 1.63 10518
0.03 -0.00 11.11 -10.08 11.36 -2.38 1.30 1.82 10525
0.03 -0.00 10.68 -10.33 11.71 -2.25 1.44 1.98 10531
0.03 -0.00 10.30 -10.65 11.91 -2.14 1.51 2.11 10537
0.05 -0.00 9.98 -10.92 11.85 -2.04 1.53 2.19 10545
0.04 -0.00 9.68 -11.17 11.78 -1.96 1.50 2.23 10551
0.03 -0.00 9.43 -11.36 11.54 -1.87 1.44 2.21 10557
0.04 -0.00 9.16 -11.47 11.25 -1.77 1.36 2.13 10563
0.03 -0.00 8.93 -11.47 10.86 -1.67 1.27 2.00 10570
0.04 -0.00 8.82 -11.44 10.68 -1.55 1.19 1.82 10576
0.04 -0.00 8.99 -11.30 10.98 -1.43 1.15 1.61 10583
0.05 -0.00 9.42 -11.02 11.66 -1.33 1.23 1.39 10589
0.04 -0.00 10.17 -10.67 13.34 -1.28 1.45 1.17 10596
0.02 -0.00 10.32 -10.44 13.33 -1.30 1.83 0.99 10602
0.04 -0.00 9.81 -10.32 13.61 -1.38 2.29 0.84 10608
0.03 -0.00 9.06 -10.44 13.59 -1.47 2.76 0.72 10615
0.04 -0.00 8.14 -10.61 13.44 -1.55 3.16 0.62 10621
0.03 -0.00 6.99 -10.91 13.13 -1.60 3.44 0.56 10628
0.04 -0.00 5.76 -11.29 12.64 -1.61 3.63 0.51 10634
0.03 -0.00 4.66 -11.48 12.18 -1.58 3.74 0.48 10641
0.04 -0.00 3.59 -11.59 11.83 -1.50 3.78 0.46 10647
0.02 -0.00 2.70 -11.61 11.58 -1.39 3.76 0.44 10653
0.02 -0.00 1.84 -11.58 11.43 -1.26 3.69 0.42 10659
0.02 -0.00 1.01 -11.47 11.31 -1.12 3.58 0.40 10667
0.03 -0.00 0.21 -11.37 11.12 -0.98 3.43 0.37 10673
0.02 -0.00 -0.43 -11.28 10.95 -0.84 3.26 0.33 10679
0.02 -0.00 -0.95 -11.08 10.94 -0.70 3.05 0.29 10685
0.02 -0.00 -1.10 -10.97 11.36 -0.58 2.84 0.25 10692
0.02 -0.00 -0.97 -10.93 12.01 -0.50 2.66 0.20 10698
0.03 -0.00 -0.82 -10.88 12.64 -0.47 2.53 0.14 10704
0.02 -0.00 -0.68 -10.81 13.40 -0.50 2.46 0.09 10711
0.03 -0.00 -0.52 -10.74 13.85 -0.59 2.41 0.04 10718
0.03 -0.00 -0.39 -10.75 14.03 -0.71 2.39 -0.01 10724
0.02 -0.00 -0.32 -10.65 13.80 -0.87 2.38 -0.04 10730
0.03 -0.00 -0.42 -10.54 13.18 -1.02 2.38 -0.07 10736
0.02 -0.00 -0.76 -10.61 12.20 -1.14 2.39 -0.08 10743
0.03 -0.00 -1.30 -10.92 11.35 -1.22 2.39 -0.08 10749
0.02 -0.00 -1.96 -11.42 10.62 -1.22 2.38 -0.06 10756
0.03 -0.00 -2.86 -11.96 9.96 -1.15 2.32 -0.02 10762
0.03 -0.00 -3.92 -12.29 9.36 -1.01 2.21 0.04 10769
0.03 -0.00 -4.87 -12.71 8.72 -0.80 2.03 0.13 10775
0.03 0.01 -5.72 -12.93 8.18 -0.56 1.78 0.23 10781
0.03 -0.00 -6.21 -13.06 7.57 -0.30 1.44 0.34 10787
0.03 -0.00 -6.53 -13.16 7.19 -0.05 1.01 0.45 10793
0.04 -0.00 -6.42 -13.30 7.01 0.21 0.52 0.54 10801
0.03 -0.00 -6.13 -13.45 6.96 0.45 0.03 0.61 10807
0.02 -0.00 -5.45 -13.61 7.29 0.67 -0.37 0.66 10813
0.03 -0.00 -4.80 -13.67 8.18 0.89 -0.75 0.73 10819
0.02 -0.00 -21.77 -0.62 29.45 2.03 -3.53 1.37 10825
0.01 -0.00 9.07 9.73 17.85 2.18 -4.25 2.06 10832
0.03 -0.00 10.05 13.82 14.99 1.67 -4.28 2.13 10839
0.04 -0.00 8.46 14.03 10.33 1.11 -4.26 2.41 10845
0.03 -0.00 1.46 2.23 7.79 0.82 -3.82 2.53 10851
0.02 -0.00 -0.30 -0.46 5.98 0.74 -3.68 2.51 10858
0.02 -0.00 -2.19 -0.86 6.87 0.82 -3.75 2.38 10864
0.02 0.01 -3.99 -0.61 6.99 0.94 -3.89 2.16 10870
0.03 0.02 -6.35 0.86 8.38 1.20 -4.16 1.82 10876
0.02 0.10 -6.05 3.34 12.19 1.55 -4.24 1.39 10883
0.02 0.25 -5.36 3.51 17.74 1.92 -3.70 1.01 10890
0.02 0.40 -6.74 2.14 17.84 2.17 -2.65 0.72 10896
0.02 0.48 -8.28 1.39 14.86 2.26 -1.98 0.32 10902
0.02 0.57 -6.78 0.36 14.26 2.30 -1.77 -0.22 10908
-0.01 0.57 -2.03 -1.12 15.85 2.34 -1.73 -0.66 10915
0.01 0.62 4.98 -2.98 25.00 2.06 -2.24 -0.76 10921
0.01 0.60 4.45 -3.68 18.00 1.06 -2.13 -0.33 10928
0.01 0.68 2.20 -2.83 13.75 0.58 -1.20 0.07 10935
0.01 0.67 1.36 -1.73 11.72 0.27 -0.49 0.16 10941
-0.02 0.66 1.30 -1.08 10.07 0.25 -0.38 0.21 10947
0.00 0.70 0.84 -0.41 10.33 0.30 -0.56 0.20 10953
0.01 0.68 0.27 -0.12 10.71 0.29 -0.63 0.13 10960
0.02 0.70 0.73 -0.68 10.89 0.22 -0.53 0.06 10967
0.01 0.68 1.26 -0.98 10.13 0.16 -0.39 0.08 10973
0.01 0.66 1.14 -0.96 10.08 0.12 -0.32 0.09 10979
0.02 0.69 0.91 -0.83 10.07 0.11 -0.30 0.10 10986
0.01 0.65 0.85 -0.61 10.20 0.09 -0.24 0.09 10992
0.01 0.63 0.81 -0.74 10.25 0.06 -0.18 0.07 10998
0.03 0.61 0.88 -0.80 10.14 0.04 -0.15 0.07 11004
0.02 0.59 0.95 -0.82 9.92 0.03 -0.13 0.06 11011
0.04 0.58 0.91 -0.74 10.03 0.03 -0.12 0.07 11018
0.03 0.54 0.86 -0.68 10.21 0.03 -0.10 0.06 11024
0.02 0.55 0.85 -0.72 10.07 0.03 -0.09 0.06 11030
0.03 0.54 0.90 -0.78 10.12 0.03 -0.10 0.06 11036
0.03 0.52 0.94 -0.83 9.92 0.03 -0.10 0.06 11043
0.03 0.50 0.97 -0.74 10.00 0.03 -0.10 0.05 11049
0.04 0.45 0.96 -0.70 9.99 0.03 -0.10 0.05 11056
0.04 0.42 0.98 -0.74 9.96 0.02 -0.10 0.05 11062
0.05 0.40 0.94 -0.77 9.95 0.02 -0.10 0.04 11068
0.06 0.38 0.95 -0.73 10.02 0.02 -0.11 0.04 11075
0.04 0.35 0.91 -0.71 10.05 0.02 -0.12 0.04 11081
0.06 0.32 0.96 -0.76 10.03 0.02 -0.12 0.04 11087
0.07 0.27 0.89 -0.74 10.04 0.02 -0.12 0.04 11094
0.07 0.26 0.90 -0.75 9.97 0.02 -0.11 0.04 11100
0.09 0.23 0.94 -0.75 9.99 0.02 -0.10 0.04 11107
0.08 0.21 0.94 -0.72 10.11 0.02 -0.09 0.04 11113
0.09 0.20 0.91 -0.78 10.02 0.02 -0.08 0.04 11119
0.09 0.14 0.88 -0.75 10.05 0.03 -0.08 0.04 11125
0.08 0.12 0.88 -0.78 10.05 0.03 -0.08 0.04 11132
0.09 0.11 0.88 -0.79 9.98 0.02 -0.08 0.04 11139
0.08 0.13 0.87 -0.78 10.04 0.02 -0.09 0.03 11145
0.08 0.09 0.90 -0.76 9.95 0.02 -0.09 0.04 11151
0.12 0.07 0.91 -0.77 10.04 0.02 -0.08 0.04 11157
0.13 0.06 0.88 -0.79 10.00 0.01 -0.07 0.04 11164
0.12 0.04 0.86 -0.77 9.88 0.02 -0.06 0.04 11170
0.13 0.02 0.87 -0.78 9.96 0.02 -0.05 0.04 11176
0.14 0.05 0.87 -0.78 9.94 0.02 -0.04 0.03 11183
0.14 0.04 0.88 -0.77 9.99 0.02 -0.03 0.04 11189
0.18 0.03 0.86 -0.78 10.01 0.02 -0.03 0.04 11196
0.18 0.03 0.86 -0.80 9.99 0.02 -0.03 0.04 11202
0.20 0.01 0.87 -0.77 10.01 0.02 -0.03 0.05 11208
0.22 0.00 0.91 -0.82 9.99 0.02 -0.02 0.04 11214
0.21 -0.01 0.89 -0.78 10.00 0.02 -0.02 0.04 11220
0.20 0.00 0.92 -0.84 10.00 0.02 -0.01 0.04 11228
0.21 -0.00 0.91 -0.81 9.89 0.02 -0.01 0.04 11234
0.22 -0.01 0.91 -0.84 9.95 0.02 -0.01 0.04 11240
0.22 -0.00 0.88 -0.80 9.95 0.02 -0.00 0.04 11246
0.24 -0.01 0.90 -0.84 10.00 0.02 0.00 0.04 11252
0.23 -0.02 0.91 -0.75 10.06 0.02 0.00 0.05 11258
0.24 -0.02 0.88 -0.84 9.95 0.03 0.01 0.05 11266
0.25 -0.02 0.82 -0.79 10.06 0.03 0.00 0.05 11272
0.24 -0.02 0.90 -0.82 10.03 0.03 0.00 0.05 11278
0.22 -0.01 0.93 -0.82 9.99 0.03 0.00 0.05 11284
0.23 -0.02 0.90 -0.87 10.03 0.03 0.00 0.06 11290
0.24 -0.02 0.93 -0.83 10.01 0.03 0.00 0.06 11296
0.24 -0.02 0.92 -0.84 9.99 0.03 0.00 0.05 11302
0.25 -0.02 0.94 -0.81 10.01 0.03 0.01 0.05 11310
0.24 -0.02 0.91 -0.85 9.98 0.03 0.01 0.05 11316
0.25 -0.03 0.92 -0.81 9.99 0.03 0.01 0.05 11322
0.27 -0.03 0.93 -0.84 9.97 0.03 0.01 0.06 11328
0.29 -0.02 0.97 -0.89 9.97 0.03 0.01 0.05 11334
0.31 -0.03 0.99 -0.84 9.99 0.04 0.01 0.05 11340
0.29 -0.02 0.92 -0.87 10.04 0.04 0.01 0.05 11347
0.31 -0.02 0.96 -0.85 9.95 0.05 0.02 0.06 11354
0.31 -0.03 0.98 -0.87 9.97 0.05 0.02 0.05 11360
0.30 -0.02 0.93 -0.86 9.98 0.05 0.02 0.05 11366
0.33 -0.02 1.00 -0.86 10.03 0.05 0.03 0.04 11372
0.31 -0.02 1.03 -0.91 10.04 0.06 0.03 0.04 11379
0.29 -0.02 1.06 -0.94 9.98 0.07 0.03 0.04 11385
0.30 -0.03 0.98 -0.88 9.98 0.08 0.04 0.04 11392
0.30 -0.02 0.97 -0.90 9.99 0.08 0.05 0.04 11398
0.33 -0.02 0.97 -0.94 9.99 0.09 0.05 0.04 11404
0.34 -0.02 1.01 -0.95 9.93 0.10 0.05 0.04 11410
0.32 -0.03 0.99 -1.00 10.00 0.11 0.06 0.04 11417
0.31 -0.03 1.00 -0.95 10.04 0.11 0.06 0.03 11423
0.36 -0.04 1.05 -0.94 9.95 0.12 0.07 0.03 11429
0.35 -0.03 1.06 -0.96 10.02 0.12 0.07 0.03 11436
0.36 -0.03 1.06 -1.01 10.09 0.14 0.08 0.02 11442
0.38 -0.02 1.08 -1.06 10.03 0.16 0.07 0.03 11449
0.39 -0.04 1.08 -0.99 10.04 0.18 0.07 0.02 11455
0.40 -0.03 1.15 -1.03 10.12 0.22 0.09 0.01 11461
0.44 -0.02 1.11 -1.07 10.19 0.25 0.09 0.01 11467
0.45 -0.03 1.14 -1.08 10.12 0.29 0.10 0.00 11474
0.47 -0.03 1.18 -1.09 10.28 0.34 0.11 -0.01 11481
0.51 -0.03 1.26 -1.20 10.32 0.43 0.12 -0.02 11487
0.54 -0.02 1.29 -0.64 10.51 0.51 0.13 -0.02 11493
0.58 -0.03 1.22 -1.26 10.56 0.61 0.14 -0.04 11500
0.57 -0.03 1.19 -1.37 10.44 0.72 0.15 -0.05 11506
0.62 -0.03 1.31 -1.36 10.66 0.83 0.16 -0.06 11512
0.59 -0.04 1.30 -1.44 10.52 0.92 0.16 -0.08 11518
0.62 -0.03 1.25 -1.51 10.81 1.00 0.16 -0.09 11526
0.67 -0.03 1.35 -1.56 10.62 1.06 0.15 -0.10 11532
0.70 -0.03 1.34 -1.65 10.80 1.13 0.14 -0.11 11538
0.72 -0.04 1.41 -1.81 10.92 1.19 0.14 -0.13 11544
0.74 -0.05 1.51 -1.82 10.78 1.27 0.15 -0.14 11551
0.75 -0.02 1.45 -2.02 10.54 1.31 0.15 -0.15 11557
0.76 -0.04 1.36 -1.95 10.64 1.37 0.17 -0.16 11564
0.76 -0.03 1.43 -2.12 10.94 1.42 0.18 -0.17 11571
0.77 -0.04 1.43 -2.24 10.54 1.48 0.21 -0.18 11577
0.78 -0.04 1.46 -2.42 10.77 1.56 0.25 -0.18 11583
0.81 -0.04 1.36 -3.05 10.93 1.65 0.29 -0.18 11589
0.77 -0.05 1.35 -2.53 10.75 1.75 0.34 -0.19 11596
0.78 -0.02 1.35 -2.61 10.51 1.85 0.44 -0.19 11602
0.75 -0.04 1.28 -2.81 10.72 1.96 0.59 -0.18 11609
0.68 -0.04 1.20 -2.88 10.96 2.07 0.79 -0.16 11615
0.64 -0.03 1.21 -3.62 11.05 2.21 1.05 -0.15 11622
0.55 -0.04 1.00 -3.34 12.22 2.36 1.32 -0.08 11628
0.42 -0.03 1.05 -3.50 12.60 2.54 1.62 -0.05 11634
0.22 -0.02 1.09 -3.78 13.78 2.73 1.89 0.00 11640
0.19 -0.01 0.89 -4.08 12.97 2.94 2.21 0.07 11648
0.20 -0.02 0.34 -4.13 13.15 3.11 2.44 0.17 11654
0.14 -0.01 0.56 -5.30 13.97 3.15 2.71 0.36 11660
0.14 0.00 0.80 -6.27 16.48 3.20 2.85 0.57 11667
0.16 -0.01 1.88 -6.65 19.23 3.42 3.21 0.72 11673
0.10 -0.00 2.97 -7.58 20.10 3.69 3.73 0.80 11679
0.10 -0.01 3.81 -7.75 21.20 3.99 4.07 0.86 11685
0.10 -0.01 4.73 -7.88 21.81 4.17 4.24 0.89 11692
0.11 0.01 5.52 -8.80 21.86 4.27 4.26 0.94 11699
0.08 -0.01 6.45 -8.45 22.08 4.28 4.28 1.01 11705
0.05 -0.01 7.46 -8.32 22.28 4.26 4.28 1.06 11711
0.07 -0.01 9.27 -7.98 22.21 4.18 4.28 0.99 11717
0.09 -0.01 8.47 -6.28 22.74 4.10 4.28 0.83 11724
0.06 -0.01 6.09 -4.81 23.09 3.98 4.28 0.56 11730
0.06 -0.00 2.61 -3.02 23.50 3.85 4.28 0.22 11737
0.05 -0.01 -0.74 -1.63 22.26 3.83 4.28 -0.06 11743
0.05 0.00 -3.86 0.88 20.38 3.79 4.28 -0.40 11749
0.04 0.00 -4.68 3.92 17.32 3.68 4.28 -0.75 11756
0.02 0.01 -5.46 6.14 14.12 3.46 4.28 -1.04 11762
0.07 -0.00 -9.71 5.13 13.90 3.16 3.26 -1.27 11768
0.06 -0.01 -17.39 8.03 4.15 2.99 1.42 -2.06 11774
0.05 -0.01 -14.32 7.75 22.83 2.04 -1.00 -2.69 11782
0.04 -0.00 -7.87 9.68 9.90 -0.25 -2.73 -2.80 11788
0.04 -0.00 -2.18 10.33 13.29 -1.85 -3.95 -2.73 11794
0.04 -0.00 1.30 5.67 18.02 -2.78 -4.28 -2.72 11800
0.04 -0.00 2.00 2.28 16.15 -3.31 -4.28 -2.95 11807
0.05 -0.00 2.76 0.35 15.14 -3.52 -4.27 -3.40 11813
0.07 -0.01 3.62 -0.82 13.14 -3.60 -3.71 -3.85 11820
0.04 -0.00 3.50 -1.20 10.43 -3.58 -3.04 -4.21 11826
0.03 0.01 2.71 -1.12 8.89 -3.52 -2.49 -4.28 11832
0.04 -0.00 1.90 -0.54 8.04 -3.47 -2.18 -4.28 11839
0.03 -0.00 1.22 -0.13 8.21 -3.44 -2.11 -4.28 11845
0.02 -0.00 1.19 0.09 8.68 -3.47 -2.26 -4.28 11851
0.04 -0.00 1.32 -0.00 9.35 -3.52 -2.50 -4.28 11857
0.02 -0.00 1.54 -0.65 9.62 -3.64 -2.77 -4.28 11864
0.02 -0.00 2.16 -0.89 9.66 -3.74 -3.01 -4.28 11870
0.05 -0.01 3.33 -0.47 10.83 -3.90 -3.22 -4.27 11877
0.04 -0.00 4.57 -0.52 11.95 -4.07 -3.46 -4.00 11883
0.04 -0.00 5.43 -1.51 11.79 -4.16 -3.74 -3.64 11889
0.04 -0.00 6.82 -2.56 11.73 -4.22 -3.89 -3.23 11895
0.04 -0.00 8.54 -3.02 11.43 -4.27 -3.95 -2.87 11901
0.03 -0.00 9.52 -3.54 11.09 -4.28 -3.90 -2.54 11909
0.04 -0.00 10.34 -4.05 10.58 -4.28 -3.74 -2.20 11915
0.03 -0.00 10.93 -4.40 10.35 -4.27 -3.49 -1.87 11921
0.05 -0.00 11.65 -4.74 8.95 -4.24 -3.17 -1.53 11927
0.04 -0.00 12.21 -5.02 8.41 -4.17 -2.79 -1.20 11934
0.04 -0.00 12.71 -5.20 7.81 -4.03 -2.36 -0.86 11940
0.05 -0.00 12.99 -5.39 7.80 -3.81 -1.92 -0.51 11947
0.03 -0.00 12.83 -5.82 7.88 -3.58 -1.47 -0.13 11953
0.04 0.00 12.49 -6.24 8.23 -3.37 -1.08 0.24 11960
0.04 -0.00 12.11 -6.61 8.50 -3.16 -0.75 0.63 11966
0.04 -0.00 11.75 -7.04 9.00 -2.97 -0.50 1.03 11972
0.05 -0.00 11.45 -7.61 9.35 -2.78 -0.33 1.42 11978
0.03 -0.00 11.29 -8.16 9.64 -2.59 -0.22 1.78 11984
0.05 -0.00 11.35 -8.67 9.97 -2.41 -0.14 2.08 11992
0.06 -0.01 11.50 -9.11 10.21 -2.30 -0.03 2.33 11998
0.05 -0.00 11.75 -9.45 10.43 -2.17 0.13 2.51 12004
0.05 0.00 12.03 -9.60 10.60 -2.07 0.32 2.65 12010
0.04 -0.00 12.32 -9.61 10.89 -1.98 0.56 2.75 12017
0.04 -0.00 12.67 -9.52 11.11 -1.93 0.85 2.83 12023
0.04 -0.00 12.76 -9.73 11.17 -1.89 1.16 2.89 12029
0.03 -0.00 12.50 -9.86 10.91 -1.87 1.44 2.90 12037
0.04 -0.00 12.13 -10.06 10.76 -1.85 1.64 2.88 12043
0.04 -0.00 11.84 -10.34 10.53 -1.81 1.76 2.81 12049
0.03 0.00 11.59 -10.56 10.41 -1.76 1.81 2.69 12056
0.04 -0.00 11.31 -10.61 10.25 -1.71 1.81 2.52 12062
0.04 -0.00 11.12 -10.54 9.93 -1.66 1.79 2.32 12068
0.04 -0.00 10.83 -10.43 9.74 -1.61 1.78 2.09 12075
0.03 -0.00 10.41 -10.43 9.45 -1.55 1.78 1.84 12082
0.04 -0.00 8.27 -11.81 8.65 -1.47 1.75 1.60 12088
0.04 -0.00 8.04 -10.61 9.37 -1.25 1.57 1.45 12094
0.05 0.00 6.40 -10.53 8.44 -1.12 1.33 1.27 12100
0.04 -0.00 7.89 -9.60 7.65 -0.99 1.20 1.01 12106
0.02 -0.00 7.95 -9.51 6.86 -0.98 1.32 0.63 12113
0.03 -0.00 7.78 -9.94 10.13 -0.88 1.62 0.33 12120
0.03 -0.00 7.62 -9.58 11.59 -0.78 1.98 0.12 12126
0.02 -0.00 6.76 -9.06 12.13 -0.72 2.32 -0.06 12132
0.03 -0.00 5.77 -8.02 12.36 -0.74 2.71 -0.17 12138
0.03 -0.00 5.01 -8.19 12.69 -0.84 3.02 -0.30 12145
0.02 -0.00 4.16 -7.80 13.08 -1.00 3.23 -0.31 12151
0.04 -0.00 3.40 -7.87 13.66 -1.15 3.38 -0.32 12157
0.03 -0.00 2.76 -7.89 14.38 -1.31 3.46 -0.30 12164
0.03 -0.00 2.06 -7.95 14.83 -1.47 3.49 -0.26 12170
0.04 -0.00 1.19 -8.27 15.17 -1.67 3.42 -0.20 12177
0.03 -0.00 0.25 -8.45 15.13 -1.90 3.28 -0.16 12183
0.02 -0.00 -0.60 -8.62 14.97 -2.14 3.04 -0.17 12189
0.03 -0.00 -1.24 -9.01 14.79 -2.35 2.75 -0.22 12195
0.03 -0.00 -1.72 -9.48 14.39 -2.49 2.43 -0.29 12203
0.03 -0.00 -1.88 -9.89 13.65 -2.61 2.18 -0.37 12209
0.04 -0.00 -2.16 -10.32 13.05 -2.57 2.04 -0.43 12215
0.02 -0.00 -2.68 -11.03 12.84 -2.49 2.03 -0.45 12221
0.04 -0.00 -3.76 -11.86 12.85 -2.39 2.04 -0.46 12228
0.03 -0.00 -5.18 -12.70 12.38 -2.28 2.05 -0.47 12234
0.04 0.01 -6.79 -13.46 11.98 -2.12 2.01 -0.48 12240
0.03 -0.00 -8.37 -14.12 11.47 -1.98 1.96 -0.49 12247
0.04 -0.00 -10.14 -14.62 11.02 -1.81 1.89 -0.49 12254
0.03 -0.00 -12.47 -14.86 10.80 -1.62 1.83 -0.44 12260
0.04 -0.00 -14.10 -15.57 11.53 -1.45 1.69 -0.37 12266
0.04 -0.00 -14.69 -16.94 11.33 -1.29 1.16 -0.35 12273
0.03 -0.00 -14.07 -18.48 9.86 -1.17 0.28 -0.36 12279
0.05 -0.01 -33.06 -22.68 19.10 -0.51 -1.98 -0.10 12285
0.04 -0.00 -16.40 -13.68 11.51 0.81 -4.28 1.05 12293
0.02 -0.00 7.43 0.87 0.06 0.39 -4.28 0.97 12299
0.05 -0.00 8.04 3.96 7.43 0.36 -4.28 0.89 12305
0.03 -0.00 14.84 9.11 13.76 0.82 -4.28 1.49 12311
0.02 0.10 9.43 16.45 10.02 1.37 -2.71 2.30 12317
0.01 0.16 3.04 7.85 -0.94 1.79 -1.29 2.89 12324
0.01 0.34 -6.22 4.00 2.50 2.60 -0.86 2.89 12331
0.02 0.48 -14.03 -2.24 11.49 3.19 -0.86 2.53 12337
-0.00 0.61 -16.39 -2.71 13.20 3.71 -0.74 1.92 12343
0.01 0.89 -18.13 -2.26 19.78 4.01 -0.58 0.97 12350
-0.01 0.93 -12.64 -0.67 24.13 3.87 -0.66 -0.16 12356
0.01 1.01 -1.35 -1.90 28.21 3.48 -1.15 -1.09 12362
0.01 0.99 11.28 -3.31 35.25 2.51 -2.43 -1.18 12369
0.00 1.09 8.34 -5.08 14.69 1.00 -2.06 -0.23 12376
-0.00 1.13 1.99 -3.35 14.20 0.65 -0.99 0.34 12382
-0.00 1.14 3.13 -2.16 9.58 0.51 -0.69 0.41 12389
-0.01 1.03 0.96 0.36 9.44 0.71 -1.23 0.54 12395
-0.03 0.99 -1.31 0.70 11.73 0.68 -1.49 0.23 12401
0.02 1.04 0.77 0.16 10.76 0.53 -1.39 -0.02 12407
-0.00 1.00 1.60 -0.75 10.33 0.41 -1.23 -0.05 12414
0.01 1.01 1.60 -1.23 9.94 0.32 -1.05 0.02 12421
0.02 1.01 1.01 -1.39 10.88 0.24 -0.84 0.07 12427
0.01 1.04 0.90 -0.65 10.27 0.12 -0.49 0.09 12433
0.00 1.04 0.32 -0.93 10.49 0.05 -0.30 0.05 12439
0.00 1.02 0.85 -0.89 10.12 0.03 -0.24 0.04 12446
0.01 0.97 0.85 -0.88 10.26 0.02 -0.21 0.06 12452
-0.00 0.94 0.68 -1.05 10.40 0.03 -0.17 0.07 12459
0.01 0.87 0.91 -0.78 10.15 0.03 -0.16 0.06 12465
0.01 0.83 0.95 -0.75 10.09 0.03 -0.16 0.06 12472
0.03 0.74 0.98 -0.86 10.04 0.04 -0.16 0.06 12478
0.02 0.66 1.02 -0.78 10.01 0.03 -0.15 0.06 12484
0.05 0.64 0.93 -0.74 10.06 0.03 -0.15 0.05 12490
0.04 0.58 1.00 -0.76 10.03 0.02 -0.15 0.04 12497
0.05 0.58 0.99 -0.76 9.99 0.01 -0.15 0.03 12504
0.07 0.50 0.94 -0.80 10.01 0.00 -0.14 0.03 12510
0.06 0.47 0.94 -0.77 10.00 -0.00 -0.13 0.02 12516
0.07 0.47 0.89 -0.80 9.99 -0.00 -0.12 0.02 12522
0.06 0.47 0.90 -0.81 10.04 0.00 -0.11 0.02 12529
0.05 0.43 0.85 -0.83 10.06 0.00 -0.09 0.03 12535
0.06 0.42 0.83 -0.82 10.01 0.01 -0.07 0.02 12541
0.05 0.40 0.86 -0.83 9.98 0.01 -0.05 0.03 12548
0.04 0.33 0.85 -0.82 9.98 0.01 -0.04 0.03 12554
0.06 0.36 0.87 -0.80 9.98 0.02 -0.03 0.03 12561
0.07 0.34 0.88 -0.84 9.98 0.01 -0.02 0.03 12567
0.06 0.27 0.90 -0.79 9.97 0.01 -0.01 0.03 12573
0.07 0.29 0.94 -0.81 9.95 0.01 -0.01 0.03 12579
0.07 0.27 0.93 -0.78 10.01 0.01 -0.00 0.03 12585
0.07 0.23 0.92 -0.79 9.95 0.01 -0.01 0.03 12593
0.07 0.24 0.96 -0.82 10.02 0.01 -0.01 0.03 12599
0.09 0.20 0.92 -0.82 9.98 0.01 -0.02 0.03 12605
0.08 0.21 0.96 -0.84 9.95 0.00 -0.02 0.02 12611
0.08 0.17 0.93 -0.84 9.99 0.00 -0.03 0.02 12617
0.08 0.18 0.93 -0.80 10.05 -0.00 -0.03 0.02 12623
0.07 0.20 0.91 -0.80 9.93 0.00 -0.03 0.02 12631
0.09 0.17 0.91 -0.82 9.99 0.00 -0.03 0.02 12637
0.09 0.18 0.90 -0.80 9.99 0.00 -0.03 0.02 12643
0.09 0.14 0.95 -0.82 9.98 0.00 -0.02 0.02 12649
0.11 0.13 0.92 -0.78 9.97 0.01 -0.02 0.02 12655
0.12 0.13 0.93 -0.84 10.01 0.01 -0.01 0.02 12662
0.10 0.11 0.89 -0.89 10.05 0.01 -0.00 0.02 12668
0.14 0.13 0.97 -0.84 9.98 0.01 0.00 0.02 12675
0.15 0.10 0.94 -0.82 9.96 0.01 0.00 0.03 12681
0.15 0.09 0.92 -0.81 10.00 0.01 0.01 0.02 12687
0.15 0.05 0.81 -0.84 10.02 0.01 0.01 0.02 12694
0.14 0.00 0.79 -0.70 9.98 0.01 0.01 0.03 12700
0.16 0.04 0.98 -0.94 9.95 0.00 0.01 0.03 12706
0.16 -0.01 0.92 -0.78 9.96 0.01 0.01 0.03 12712
0.15 0.02 1.13 -0.88 9.99 0.01 0.02 0.03 12719
0.18 0.01 0.88 -0.87 9.99 0.01 0.02 0.03 12725
0.17 0.00 0.94 -0.82 9.96 0.00 0.02 0.03 12732
0.16 -0.00 1.03 -0.85 9.98 0.01 0.02 0.04 12738
0.16 -0.00 0.95 -0.81 10.03 0.01 0.01 0.03 12744
0.17 0.00 0.97 -0.81 10.04 0.01 0.01 0.03 12750
0.21 -0.01 1.03 -0.82 10.04 0.01 0.01 0.04 12756
0.19 -0.00 0.93 -0.84 9.98 0.01 0.00 0.04 12764
0.18 0.02 0.95 -0.86 9.98 0.01 0.00 0.04 12770
0.22 0.00 0.94 -0.83 10.01 0.02 0.00 0.04 12776
0.22 0.01 0.95 -0.83 10.04 0.01 0.00 0.04 12782
0.24 -0.01 1.07 -0.84 9.98 0.01 0.00 0.04 12788
0.24 -0.01 1.01 -1.06 9.94 0.01 0.01 0.04 12794
0.22 -0.02 1.02 -0.84 9.97 0.02 0.01 0.04 12802
0.22 -0.02 1.02 -0.78 9.95 0.02 0.01 0.05 12808
0.21 -0.01 0.98 -0.80 10.08 0.02 0.01 0.04 12814
0.22 -0.02 0.97 -0.88 9.98 0.02 0.01 0.05 12820
0.23 -0.02 1.00 -0.99 10.06 0.03 0.01 0.05 12826
0.27 -0.02 0.99 -0.92 10.00 0.03 0.01 0.04 12832
0.26 -0.03 1.01 -0.85 9.98 0.03 0.01 0.05 12839
0.26 -0.03 1.04 -0.85 9.97 0.03 0.01 0.04 12846
0.27 -0.02 0.99 -0.90 10.01 0.04 0.02 0.04 12852
0.24 -0.02 1.02 -0.83 9.98 0.03 0.02 0.05 12858
0.23 -0.02 1.04 -0.89 9.99 0.03 0.03 0.04 12864
0.27 -0.02 1.02 -0.89 9.96 0.03 0.03 0.04 12870
0.31 -0.03 1.04 -0.87 10.01 0.04 0.03 0.04 12877
0.29 -0.03 1.08 -0.92 9.98 0.04 0.04 0.04 12883
0.26 -0.02 1.06 -0.93 9.99 0.05 0.04 0.04 12890
0.30 -0.02 1.12 -0.92 10.03 0.05 0.04 0.04 12896
0.30 -0.03 1.11 -0.91 9.99 0.05 0.04 0.03 12902
0.31 -0.02 1.09 -0.96 9.98 0.07 0.05 0.03 12908
0.37 -0.02 1.05 -0.93 9.99 0.07 0.06 0.03 12915
0.39 -0.03 1.10 -0.96 10.02 0.08 0.06 0.02 12921
0.37 -0.02 1.07 -0.97 10.08 0.10 0.07 0.02 12928
0.41 -0.03 1.08 -0.98 10.05 0.13 0.08 0.02 12934
0.39 -0.03 1.04 -0.98 10.05 0.15 0.09 0.02 12940
0.42 -0.02 1.11 -0.97 10.15 0.19 0.11 0.02 12947
0.43 -0.02 1.10 -0.99 10.20 0.24 0.14 0.02 12953
0.43 -0.02 1.19 -1.06 10.20 0.31 0.15 0.03 12959
0.44 -0.03 1.13 -1.07 10.40 0.37 0.19 0.02 12965
0.51 -0.03 1.15 -1.07 10.49 0.47 0.23 0.02 12973
0.51 -0.02 1.20 -1.15 10.46 0.58 0.28 0.01 12979
0.51 -0.03 1.28 -1.24 10.50 0.70 0.33 0.00 12985
0.51 -0.03 1.37 -1.28 10.53 0.80 0.37 -0.01 12991
0.54 -0.03 1.38 -1.30 10.95 0.93 0.41 -0.03 12998
0.52 -0.04 1.45 -1.41 10.98 1.07 0.47 -0.04 13004
0.52 -0.03 1.57 -1.60 10.72 1.20 0.50 -0.06 13010
0.49 -0.03 1.71 -1.58 11.24 1.31 0.53 -0.08 13017
0.44 -0.02 1.48 -1.71 11.38 1.43 0.59 -0.10 13024
0.49 -0.03 1.82 -1.88 11.48 1.55 0.64 -0.11 13030
0.44 -0.02 1.70 -1.94 11.30 1.67 0.73 -0.14 13036
0.46 -0.03 1.66 -2.27 11.47 1.76 0.83 -0.15 13043
0.38 -0.04 1.71 -2.28 11.62 1.87 0.98 -0.15 13049
0.33 -0.02 1.50 -2.28 11.88 1.99 1.13 -0.15 13056
0.22 -0.02 1.70 -2.68 12.98 2.15 1.40 -0.13 13062
0.18 -0.01 1.64 -2.65 13.02 2.33 1.67 -0.09 13069
0.13 -0.01 1.30 -2.95 12.90 2.50 1.97 -0.06 13075
0.10 -0.01 1.65 -3.28 13.38 2.65 2.18 -0.02 13081
0.11 -0.01 1.57 -4.19 14.05 2.80 2.55 0.05 13087
0.12 -0.01 0.90 -3.99 14.77 2.97 2.96 0.16 13093
0.08 -0.01 1.55 -4.18 16.12 3.17 3.38 0.22 13101
0.09 -0.01 1.88 -4.46 16.82 3.39 3.75 0.32 13107
0.09 -0.01 2.99 -5.26 19.05 3.61 4.00 0.37 13113
0.07 -0.01 3.85 -5.69 19.71 3.90 4.13 0.40 13119
0.09 0.00 3.93 -5.87 20.43 4.19 3.98 0.40 13125
0.10 -0.01 4.34 -6.23 19.82 4.28 3.68 0.42 13132
0.08 -0.01 5.16 -6.66 19.60 4.28 3.49 0.48 13138
0.11 -0.01 6.71 -6.14 22.14 4.28 3.55 0.54 13145
0.09 -0.01 8.96 -7.50 22.70 4.28 3.88 0.55 13151
0.07 -0.01 10.68 -6.81 23.54 4.28 4.26 0.50 13158
0.08 -0.01 10.92 -5.97 24.24 4.27 4.28 0.33 13164
0.05 -0.00 9.02 -4.13 23.60 4.23 4.28 0.08 13170
0.04 0.00 6.58 -2.54 24.04 4.17 4.28 -0.20 13176
0.05 -0.01 3.38 -0.49 24.03 4.12 4.28 -0.52 13182
0.03 -0.00 0.49 1.90 22.28 4.07 4.28 -0.87 13190
0.05 0.00 -1.87 4.75 19.68 3.91 4.28 -1.22 13196
0.05 -0.00 -4.71 7.18 15.90 3.63 4.28 -1.62 13202
0.05 -0.00 -8.29 7.40 12.16 3.35 4.28 -1.96 13208
0.04 -0.00 -14.74 7.84 6.26 3.17 3.86 -2.58 13215
0.05 -0.00 -15.45 7.45 19.36 1.77 1.39 -2.84 13221
0.03 -0.00 -11.20 12.68 7.11 -0.72 -0.85 -2.71 13228
0.03 -0.00 -4.96 12.14 14.79 -2.32 -2.91 -2.47 13234
0.03 -0.00 -1.94 5.02 17.01 -3.20 -4.10 -2.31 13241
0.05 -0.01 -0.98 1.33 15.07 -3.65 -4.28 -2.45 13247
0.04 -0.00 0.08 0.04 13.13 -3.76 -4.28 -2.78 13253
0.05 -0.01 1.09 -0.79 10.63 -3.69 -4.17 -3.23 13259
0.05 -0.00 1.48 -1.36 9.26 -3.55 -3.89 -3.63 13265
0.04 -0.00 1.38 -1.11 7.53 -3.40 -3.63 -3.93 13273
0.04 -0.00 1.13 -0.75 7.26 -3.28 -3.49 -4.15 13279
0.04 -0.00 1.05 -0.57 7.56 -3.23 -3.46 -4.27 13285
0.03 -0.00 1.31 -0.43 8.31 -3.22 -3.50 -4.28 13291
0.02 -0.00 2.12 -0.53 8.78 -3.23 -3.60 -4.28 13297
0.04 -0.00 2.79 -0.60 9.16 -3.31 -3.71 -4.28 13303
0.04 -0.00 3.25 -0.33 9.87 -3.45 -3.78 -4.28 13310
0.02 -0.00 4.56 -0.53 10.30 -3.60 -3.76 -4.22 13317
0.04 -0.00 5.29 -1.04 10.72 -3.73 -3.78 -4.04 13323
0.03 -0.00 6.22 -1.48 10.88 -3.85 -3.81 -3.82 13329
0.04 -0.00 7.40 -1.79 10.57 -3.95 -3.79 -3.51 13335
0.05 -0.00 8.36 -2.10 10.20 -4.04 -3.73 -3.19 13342
0.05 -0.00 9.29 -2.51 10.25 -4.10 -3.64 -2.86 13348
0.04 0.01 10.02 -3.03 10.02 -4.13 -3.50 -2.54 13355
0.04 -0.00 10.40 -3.62 9.23 -4.13 -3.32 -2.21 13361
0.02 -0.00 10.89 -4.39 8.87 -4.10 -3.08 -1.88 13368
0.05 -0.01 11.38 -5.06 8.55 -4.03 -2.80 -1.54 13374
0.04 -0.00 11.75 -5.67 7.98 -3.89 -2.51 -1.20 13380
0.04 -0.00 11.90 -6.11 7.48 -3.71 -2.21 -0.86 13386
0.06 -0.01 12.33 -6.55 7.45 -3.50 -1.89 -0.49 13392
0.04 -0.00 12.53 -6.90 7.42 -3.28 -1.57 -0.12 13400
0.05 0.00 12.77 -7.31 7.51 -3.06 -1.22 0.25 13406
0.03 -0.00 12.67 -7.66 7.86 -2.86 -0.84 0.62 13412
0.04 -0.00 12.67 -8.07 8.28 -2.70 -0.43 0.98 13418
0.05 -0.01 12.52 -8.49 8.84 -2.52 -0.05 1.33 13425
0.05 -0.00 12.29 -9.11 9.40 -2.36 0.32 1.65 13431
0.04 -0.00 11.85 -9.65 9.77 -2.23 0.61 1.94 13437
0.06 -0.01 11.37 -9.89 10.11 -2.11 0.85 2.18 13444
0.05 -0.00 11.12 -9.95 10.39 -2.01 1.07 2.40 13451
0.04 0.00 10.71 -9.98 10.49 -1.94 1.29 2.59 13457
0.04 -0.00 10.27 -10.11 10.54 -1.88 1.41 2.74 13463
0.05 -0.00 9.21 -10.24 10.62 -1.83 1.54 2.84 13469
0.03 -0.00 9.41 -10.35 10.52 -1.79 1.53 2.89 13476
0.02 -0.00 9.07 -10.27 10.43 -1.75 1.49 2.87 13483
0.05 -0.00 8.81 -10.10 10.11 -1.72 1.40 2.78 13489
0.03 -0.00 8.54 -9.84 9.80 -1.70 1.24 2.64 13495
0.02 -0.00 8.46 -9.53 9.37 -1.69 1.14 2.44 13502
0.03 -0.00 8.38 -9.35 9.14 -1.66 1.03 2.17 13508
0.03 -0.00 8.40 -9.38 9.02 -1.62 0.99 1.96 13514
0.02 -0.00 8.47 -9.58 9.02 -1.56 1.03 1.65 13520
0.03 -0.00 8.45 -9.70 9.17 -1.49 1.14 1.32 13527
0.03 -0.00 8.34 -9.78 9.40 -1.40 1.31 1.00 13533
0.02 -0.00 8.28 -9.60 9.85 -1.33 1.51 0.69 13539
0.02 -0.00 8.23 -9.35 10.43 -1.25 1.76 0.43 13546
0.03 -0.00 7.96 -9.08 10.85 -1.21 2.05 0.22 13552
0.02 -0.00 7.63 -8.76 11.48 -1.21 2.32 0.07 13558
0.03 -0.00 7.35 -8.43 12.35 -1.24 2.54 -0.02 13564
0.03 -0.00 6.99 -8.31 12.86 -1.30 2.77 -0.05 13571
0.03 -0.00 6.32 -8.36 13.05 -1.39 2.96 -0.00 13578
0.05 -0.01 5.52 -8.45 13.06 -1.47 3.11 -0.00 13584
0.04 -0.00 4.78 -8.64 13.00 -1.55 3.17 0.04 13590
0.03 -0.00 4.06 -8.73 12.96 -1.60 3.16 0.08 13596
0.04 -0.00 3.51 -9.00 12.67 -1.61 3.13 0.13 13602
0.02 -0.00 2.94 -9.16 12.48 -1.61 3.09 0.17 13609
0.02 -0.00 2.51 -9.17 12.51 -1.57 3.06 0.21 13616
0.04 -0.00 2.22 -9.27 12.73 -1.52 3.02 0.24 13622
0.03 -0.00 1.95 -9.47 13.10 -1.46 3.01 0.26 13628
0.03 -0.00 1.58 -9.75 13.45 -1.42 3.01 0.29 13634
0.04 -0.00 1.12 -9.90 13.98 -1.39 2.99 0.30 13641
0.02 -0.00 0.43 -10.13 14.39 -1.37 2.96 0.31 13647
0.02 -0.00 -0.11 -10.52 14.71 -1.36 2.90 0.30 13654
0.02 -0.00 -0.60 -10.83 14.81 -1.37 2.77 0.28 13660
0.02 -0.00 -0.99 -11.29 14.94 -1.38 2.62 0.27 13667
0.04 -0.00 -1.33 -11.60 14.13 -1.40 2.46 0.26 13673
0.02 -0.00 -2.37 -12.00 13.12 -1.39 2.28 0.26 13679
0.04 0.01 -2.25 -12.45 12.05 -1.35 2.19 0.28 13686
0.03 -0.00 -2.86 -13.11 10.86 -1.24 2.14 0.34 13692
0.03 -0.00 -3.62 -13.97 9.96 -1.06 2.14 0.46 13699
0.03 -0.00 -4.35 -14.70 9.53 -0.82 2.09 0.60 13705
0.03 -0.00 -5.48 -15.16 9.09 -0.55 1.95 0.77 13711
0.04 0.00 -6.44 -15.57 8.79 -0.28 1.68 0.94 13718
0.04 -0.00 -7.14 -16.49 8.47 -0.05 1.28 1.10 13724
0.02 -0.00 -7.54 -17.11 8.14 0.14 0.80 1.24 13730
0.03 -0.00 -14.84 -18.99 15.50 0.48 -0.21 1.48 13736
0.03 -0.00 -27.70 -17.84 17.17 1.85 -3.43 2.57 13744
0.02 -0.00 1.67 -7.36 4.92 1.74 -4.28 2.83 13750
0.04 -0.00 3.61 2.76 6.21 1.61 -4.28 2.58 13756
0.03 -0.00 8.04 5.93 8.62 1.61 -4.28 2.57 13762
0.03 -0.00 6.83 5.45 9.80 1.36 -4.28 2.83 13768
0.04 0.00 2.28 4.56 11.22 1.34 -4.20 3.13 13775
0.02 -0.00 -1.24 2.18 9.75 1.36 -3.73 3.21 13782
0.02 0.06 -3.65 2.13 10.17 1.52 -3.19 3.07 13788
0.04 0.13 -6.37 2.99 12.36 1.75 -2.52 2.79 13794
0.02 0.31 -13.39 3.74 14.88 2.06 -1.92 2.34 13801
0.03 0.46 -16.43 3.13 13.66 2.34 -1.64 1.61 13807
0.01 0.51 -15.75 2.33 16.14 2.48 -1.52 0.66 13813
0.01 0.73 -11.74 0.46 16.68 2.51 -1.31 -0.28 13820
0.00 0.76 -5.20 -0.14 16.28 2.46 -1.17 -1.07 13827
0.01 0.84 3.73 -1.77 17.86 2.37 -1.08 -1.43 13833
0.01 0.79 9.48 -3.74 25.46 1.88 -1.86 -1.17 13839
0.00 0.83 8.20 -4.66 11.70 1.04 -1.80 -0.33 13846
0.00 0.80 3.37 -2.80 13.29 0.92 -1.24 0.18 13852
0.00 0.80 3.01 -1.58 10.63 0.68 -0.85 0.33 13858
0.01 0.82 0.89 -0.73 10.60 0.63 -0.95 0.36 13864
0.01 0.79 -0.14 0.23 11.76 0.57 -1.12 0.19 13872
0.00 0.80 0.63 -0.04 11.21 0.43 -1.02 0.02 13878
0.01 0.80 1.20 -0.63 10.21 0.31 -0.80 -0.00 13884
-0.00 0.74 1.45 -1.11 10.04 0.22 -0.61 0.04 13890
0.02 0.77 1.02 -1.00 10.48 0.18 -0.48 0.06 13897
0.02 0.72 0.75 -0.69 10.75 0.14 -0.36 0.06 13903
0.00 0.78 0.80 -0.55 10.47 0.11 -0.25 0.05 13910
0.01 0.72 1.07 -0.81 10.40 0.09 -0.15 0.05 13916
-0.00 0.71 0.94 -0.95 10.24 0.09 -0.08 0.08 13923
0.02 0.65 0.72 -0.80 10.24 0.09 -0.03 0.10 13929
0.01 0.58 0.92 -0.72 10.04 0.08 0.03 0.11 13935
0.02 0.51 1.11 -0.79 10.16 0.08 0.07 0.12 13941
0.03 0.46 1.15 -0.76 10.04 0.07 0.08 0.12 13948
0.02 0.40 1.27 -0.79 9.99 0.07 0.08 0.11 13955
0.03 0.37 1.12 -0.77 10.04 0.06 0.08 0.10 13961
0.03 0.31 1.23 -0.66 9.95 0.05 0.08 0.08 13967
0.02 0.28 1.18 -0.86 9.92 0.04 0.07 0.07 13973
0.05 0.24 1.24 -0.72 9.87 0.03 0.07 0.06 13980
0.04 0.24 1.31 -0.65 10.00 0.03 0.07 0.05 13986
0.03 0.18 1.23 -0.74 9.96 0.02 0.07 0.04 13992
0.05 0.15 1.24 -0.72 9.98 0.02 0.07 0.04 13999
0.04 0.15 1.22 -0.77 9.96 0.02 0.07 0.04 14005
0.03 0.10 1.20 -0.74 9.99 0.02 0.06 0.04 14012
0.04 0.13 1.22 -0.75 9.94 0.02 0.06 0.04 14018
0.05 0.09 1.26 -0.79 10.00 0.02 0.07 0.04 14024
0.05 0.06 1.25 -0.77 9.96 0.02 0.07 0.04 14030
0.05 0.05 1.23 -0.76 9.98 0.02 0.08 0.04 14036
0.05 0.03 1.27 -0.76 9.83 0.01 0.07 0.04 14043
0.04 0.03 1.34 -0.73 9.94 0.01 0.07 0.04 14050
0.04 0.01 1.33 -0.75 9.92 0.01 0.06 0.03 14056
0.06 0.00 1.32 -0.74 9.89 0.01 0.06 0.03 14062
0.06 -0.00 1.35 -0.74 9.96 0.02 0.06 0.03 14068
0.04 -0.00 1.32 -0.73 9.95 0.02 0.06 0.03 14074
0.06 -0.00 1.33 -0.70 9.96 0.02 0.06 0.03 14081
0.04 -0.00 1.36 -0.79 9.94 0.02 0.06 0.03 14087
0.02 0.01 1.46 -0.84 9.97 0.02 0.06 0.03 14094
0.03 -0.00 1.32 -0.82 9.95 0.02 0.07 0.03 14100
0.05 -0.00 1.42 -0.88 10.00 0.03 0.07 0.03 14106
0.05 -0.00 1.35 -0.82 9.92 0.03 0.08 0.03 14112
0.04 0.02 1.42 -0.86 9.96 0.03 0.08 0.03 14118
0.06 -0.01 1.34 -0.82 9.92 0.03 0.09 0.03 14125
0.05 -0.01 1.40 -0.84 9.97 0.03 0.08 0.03 14131
0.04 -0.00 1.47 -0.87 9.89 0.03 0.07 0.03 14138
0.06 -0.01 1.32 -0.81 9.99 0.03 0.07 0.03 14144
0.06 -0.01 1.54 -1.46 10.00 0.03 0.07 0.03 14150
0.05 -0.00 1.39 -0.78 9.93 0.02 0.06 0.02 14156
0.04 0.01 1.49 -0.77 9.70 0.02 0.06 0.02 14162
0.02 0.01 1.35 -0.80 9.93 0.02 0.05 0.01 14169
0.07 -0.01 1.53 -0.86 9.81 0.03 0.03 0.02 14175
0.04 -0.00 1.47 -0.90 9.95 0.02 0.03 0.01 14181
0.04 -0.00 1.43 -0.85 10.02 0.03 0.02 0.01 14188
0.05 -0.00 1.55 -0.85 9.86 0.04 0.01 0.01 14194
0.03 -0.00 1.43 -0.83 9.92 0.04 -0.00 0.01 14200
0.04 -0.00 1.53 -0.91 9.99 0.04 -0.01 0.01 14206
0.05 -0.01 1.44 -0.86 9.99 0.05 0.00 0.01 14213
0.04 -0.00 1.43 -0.89 9.93 0.05 0.02 0.01 14219
0.04 -0.00 1.50 -0.91 9.98 0.05 0.03 0.01 14225
0.04 -0.00 1.47 -0.90 9.94 0.05 0.04 0.01 14231
0.06 -0.01 1.52 -0.82 10.04 0.06 0.05 0.01 14238
0.05 -0.01 1.52 -0.87 9.97 0.07 0.06 0.01 14244
0.05 -0.00 1.50 -0.83 10.06 0.06 0.07 0.01 14251
0.05 0.01 1.49 -0.88 9.98 0.08 0.09 0.01 14257
0.07 -0.01 1.43 -1.00 9.97 0.09 0.10 0.02 14263
0.05 -0.00 1.48 -0.89 9.99 0.10 0.12 0.01 14269
0.05 -0.01 1.53 -0.89 9.91 0.10 0.12 0.01 14275
0.06 -0.01 1.56 -0.97 9.98 0.10 0.12 0.01 14282
0.05 -0.01 1.65 -0.92 9.75 0.10 0.10 0.01 14288
0.04 -0.00 1.61 -0.95 9.87 0.09 0.08 0.00 14295
0.04 -0.00 1.66 -0.74 10.00 0.08 0.05 -0.00 14301
0.06 -0.01 1.73 -1.00 9.81 0.08 0.02 -0.02 14307
0.05 -0.01 1.61 -1.00 9.83 0.07 -0.02 -0.02 14313
0.05 -0.01 1.64 -1.00 9.83 0.06 -0.07 -0.03 14319
0.06 -0.01 1.59 -1.03 9.84 0.05 -0.11 -0.03 14325
0.05 -0.00 1.66 -1.04 9.84 0.05 -0.13 -0.04 14332
0.03 -0.00 1.66 -0.95 9.83 0.04 -0.17 -0.05 14339
0.07 -0.01 1.72 -0.96 9.93 0.04 -0.19 -0.06 14345
0.06 -0.01 1.45 -1.14 10.05 0.03 -0.23 -0.07 14351
0.06 -0.01 1.59 -0.95 9.94 0.04 -0.23 -0.08 14357
0.06 -0.01 1.69 -1.04 9.91 0.04 -0.23 -0.09 14363
0.07 -0.00 1.72 -1.07 9.99 0.04 -0.22 -0.09 14370
0.08 -0.01 1.62 -1.20 9.98 0.05 -0.20 -0.10 14376
0.08 -0.01 1.56 -1.06 10.09 0.07 -0.17 -0.11 14383
0.09 0.00 1.45 -1.13 10.14 0.09 -0.15 -0.12 14389
0.12 -0.01 1.44 -1.08 10.21 0.12 -0.12 -0.14 14395
0.10 -0.01 1.59 -1.10 10.15 0.20 -0.07 -0.14 14402
0.12 -0.01 1.59 -1.11 10.23 0.30 -0.02 -0.16 14408
0.15 -0.01 1.57 -1.11 10.30 0.40 0.02 -0.17 14414
0.14 -0.01 1.58 -1.26 10.39 0.52 0.09 -0.19 14420
0.20 -0.02 1.31 -1.29 10.50 0.63 0.15 -0.19 14427
0.18 -0.02 1.59 -1.32 10.27 0.76 0.21 -0.20 14434
0.24 -0.00 1.52 -1.50 10.56 0.88 0.27 -0.19 14440
0.27 -0.02 1.53 -1.61 10.76 1.02 0.34 -0.19 14446
0.27 -0.02 1.59 -1.58 10.61 1.14 0.38 -0.19 14452
0.31 -0.02 1.58 -1.55 10.80 1.24 0.44 -0.18 14459
0.31 -0.03 1.55 -1.86 10.47 1.33 0.51 -0.17 14466
0.31 -0.02 1.70 -1.86 11.25 1.42 0.57 -0.16 14472
0.26 -0.02 1.75 -1.96 11.27 1.54 0.68 -0.16 14478
0.23 -0.02 1.75 -2.12 11.44 1.66 0.84 -0.17 14485
0.21 -0.02 1.68 -2.17 11.47 1.76 1.10 -0.17 14491
0.17 -0.02 1.33 -2.58 12.27 1.86 1.40 -0.11 14497
0.12 -0.01 1.32 -2.79 13.00 2.00 1.71 -0.06 14503
0.08 -0.01 1.74 -2.91 13.73 2.19 2.00 0.00 14511
0.06 -0.01 2.56 -2.76 13.12 2.36 2.28 0.03 14517
0.08 -0.01 2.07 -3.14 13.91 2.52 2.52 0.03 14523
0.07 -0.01 1.60 -3.48 14.76 2.68 2.85 0.11 14529
0.09 -0.01 1.61 -4.20 15.56 2.86 3.21 0.22 14535
0.09 -0.01 2.26 -4.30 16.33 3.06 3.55 0.32 14542
0.08 -0.01 2.79 -4.39 17.13 3.29 3.72 0.37 14548
0.08 -0.01 4.24 -4.89 18.74 3.55 3.76 0.38 14555
0.10 -0.01 4.30 -4.97 19.72 3.86 3.73 0.38 14561
0.08 -0.01 4.26 -5.09 19.97 4.09 3.57 0.36 14567
0.08 0.01 4.85 -5.64 19.90 4.24 3.35 0.34 14574
0.09 -0.01 7.37 -5.90 21.92 4.28 3.26 0.38 14580
0.07 -0.01 8.90 -5.43 23.65 4.28 3.38 0.35 14586
0.07 -0.00 11.33 -6.49 23.24 4.27 3.92 0.32 14593
0.06 -0.01 12.74 -5.71 24.81 4.20 4.27 0.17 14600
0.05 -0.00 10.72 -4.10 25.59 4.12 4.28 -0.04 14606
0.04 -0.00 8.83 -2.35 24.80 3.99 4.28 -0.30 14612
0.03 -0.00 5.65 -0.68 23.23 3.84 4.28 -0.59 14618
0.05 -0.01 3.04 1.35 24.24 3.77 4.28 -0.98 14625
0.04 -0.00 -0.26 4.08 21.06 3.61 4.28 -1.40 14631
0.03 -0.00 -3.83 6.38 18.05 3.43 4.28 -1.90 14638
0.05 -0.01 -10.78 5.87 10.99 3.29 4.28 -2.39 14644
0.04 -0.00 -17.19 5.06 14.34 3.07 4.28 -3.25 14651
0.04 -0.00 -19.08 6.96 15.75 1.58 3.84 -3.60 14657
0.04 -0.00 -16.78 11.31 5.58 -0.56 1.29 -3.57 14663
0.03 -0.00 -11.59 11.88 13.63 -2.10 -1.39 -3.30 14669
0.05 -0.01 -7.30 5.52 16.86 -3.00 -3.15 -3.04 14676
0.06 -0.01 -5.10 1.07 15.67 -3.47 -4.08 -3.02 14683
0.05 -0.00 -2.64 -0.81 13.75 -3.60 -4.28 -3.21 14689
0.03 -0.00 -0.57 -1.61 11.67 -3.56 -4.28 -3.50 14695
0.03 -0.00 0.56 -1.87 10.35 -3.43 -4.26 -3.77 14702
0.07 -0.01 1.20 -1.71 9.14 -3.26 -4.06 -3.98 14708
0.05 -0.00 1.64 -1.29 8.48 -3.10 -3.80 -4.12 14714
0.04 -0.00 1.70 -0.75 8.54 -2.98 -3.61 -4.22 14721
0.06 -0.01 1.84 -0.38 8.24 -2.93 -3.47 -4.26 14727
0.03 -0.00 2.01 -0.40 7.84 -2.91 -3.39 -4.26 14733
0.01 -0.00 2.15 -0.23 7.70 -2.92 -3.37 -4.23 14740
0.03 -0.00 2.52 -0.22 8.15 -2.95 -3.38 -4.14 14746
0.03 -0.00 3.01 -0.20 8.74 -3.01 -3.44 -4.02 14752
0.03 -0.00 3.65 -0.04 9.70 -3.10 -3.48 -3.92 14758
0.05 -0.00 4.39 -0.08 10.51 -3.26 -3.39 -3.78 14765
0.06 -0.01 5.03 -0.09 11.03 -3.44 -3.30 -3.62 14771
0.06 -0.01 5.51 -0.16 11.40 -3.64 -3.24 -3.42 14778
0.05 0.00 6.34 -1.09 11.28 -3.83 -3.14 -3.15 14784
0.04 -0.00 7.26 -1.66 11.01 -3.99 -3.06 -2.84 14790
0.03 -0.00 7.95 -2.09 11.42 -4.08 -2.99 -2.52 14796
0.05 -0.01 8.48 -2.46 10.55 -4.11 -2.91 -2.19 14803
0.04 -0.00 8.97 -2.98 9.95 -4.12 -2.83 -1.88 14810
0.03 -0.00 9.71 -3.62 9.55 -4.11 -2.71 -1.57 14816
0.06 -0.01 10.51 -4.25 9.48 -4.07 -2.55 -1.28 14822
0.04 -0.00 11.08 -4.78 9.42 -3.99 -2.32 -0.99 14828
0.04 -0.00 11.52 -5.26 9.20 -3.88 -2.02 -0.69 14835
0.03 -0.00 11.84 -5.84 9.48 -3.76 -1.73 -0.39 14841
0.04 -0.00 11.88 -6.46 9.62 -3.63 -1.44 -0.09 14848
0.03 0.00 12.14 -6.90 9.82 -3.49 -1.13 0.21 14854
0.05 0.00 12.35 -7.39 9.93 -3.33 -0.84 0.50 14861
0.04 -0.00 12.28 -7.76 10.22 -3.21 -0.50 0.79 14867
0.05 -0.01 12.34 -8.68 10.77 -3.05 -0.15 1.06 14873
0.03 -0.00 12.18 -9.75 11.23 -2.90 0.13 1.30 14879
0.03 0.00 12.09 -9.47 12.09 -2.78 0.40 1.53 14886
0.05 -0.00 11.86 -9.66 12.65 -2.69 0.64 1.72 14893
0.03 -0.00 11.44 -9.95 13.14 -2.62 0.83 1.89 14899
0.04 -0.00 11.18 -10.19 13.40 -2.58 0.98 2.03 14905
0.04 -0.00 10.87 -10.41 13.40 -2.54 1.07 2.13 14912
0.05 -0.00 10.59 -10.56 13.33 -2.50 1.12 2.20 14918
0.03 -0.00 10.35 -10.76 13.09 -2.45 1.15 2.24 14924
0.03 -0.00 10.23 -10.93 12.88 -2.39 1.16 2.23 14931
0.02 -0.00 10.10 -11.01 12.47 -2.31 1.18 2.17 14938
0.03 -0.00 10.04 -10.98 12.05 -2.23 1.21 2.07 14944
0.03 -0.00 9.93 -10.97 11.64 -2.12 1.27 1.94 14951
0.03 0.00 9.76 -10.98 11.33 -2.00 1.37 1.78 14957
0.03 -0.00 9.41 -10.89 11.05 -1.87 1.49 1.59 14963
0.02 -0.00 8.97 -10.75 10.93 -1.72 1.63 1.39 14969
0.03 -0.00 8.42 -10.69 10.87 -1.55 1.79 1.19 14977
0.01 -0.00 7.82 -10.73 10.92 -1.39 1.96 0.99 14983
0.03 -0.00 7.27 -10.82 11.12 -1.22 2.14 0.78 14989
0.03 -0.00 6.71 -10.75 11.35 -1.08 2.30 0.60 14995
0.03 -0.00 6.10 -10.67 11.46 -0.95 2.45 0.44 15002
0.03 -0.00 5.56 -10.51 11.64 -0.85 2.60 0.30 15008
0.02 -0.00 5.12 -10.30 12.00 -0.78 2.73 0.19 15014
0.03 -0.00 4.76 -10.03 12.33 -0.74 2.84 0.10 15021
0.02 -0.00 4.34 -9.87 12.72 -0.73 2.93 0.04 15028
0.02 -0.00 3.88 -9.69 12.99 -0.76 2.98 0.01 15034
0.03 -0.00 3.26 -9.38 12.98 -0.80 2.99 0.00 15040
0.03 -0.00 2.83 -9.13 12.91 -0.85 2.94 0.00 15046
0.03 -0.00 2.42 -8.90 12.73 -0.90 2.85 0.02 15052
0.05 -0.00 2.07 -8.74 12.64 -0.94 2.73 0.04 15059
0.04 -0.00 1.83 -8.73 12.51 -0.95 2.64 0.07 15066
0.03 -0.00 1.70 -8.84 12.45 -0.95 2.58 0.10 15072
0.05 -0.00 1.67 -9.07 12.47 -0.95 2.59 0.12 15078
0.04 -0.00 1.52 -9.36 12.52 -0.95 2.61 0.12 15084
0.04 -0.00 1.04 -9.58 12.53 -0.97 2.64 0.12 15091
0.05 -0.00 0.50 -9.77 12.44 -0.98 2.63 0.11 15097
0.03 -0.00 -0.02 -10.06 12.41 -1.03 2.59 0.10 15104
0.02 -0.00 -0.70 -10.33 12.40 -1.02 2.51 0.08 15110
0.03 -0.00 -1.32 -10.60 12.23 -1.03 2.39 0.06 15116
0.01 -0.00 -2.00 -10.82 11.84 -1.03 2.24 0.05 15123
0.04 -0.00 -3.01 -10.64 11.33 -1.00 2.12 0.07 15129
0.02 -0.00 -4.36 -10.45 10.84 -0.93 2.12 0.18 15135
0.04 -0.00 -5.52 -10.81 10.77 -0.82 2.19 0.42 15142
0.03 -0.00 -6.77 -11.24 10.66 -0.70 2.11 0.71 15149
0.03 -0.00 -7.99 -11.50 10.62 -0.58 1.78 0.97 15155
0.03 -0.00 -8.85 -11.74 10.51 -0.49 1.23 1.17 15161
0.03 -0.00 -8.77 -11.96 9.86 -0.45 0.57 1.31 15168
0.03 -0.00 -7.44 -12.47 9.09 -0.41 -0.05 1.41 15174
0.03 -0.00 -6.92 -13.35 8.47 -0.34 -0.45 1.47 15180
0.03 -0.00 -6.08 -14.52 7.71 -0.21 -0.72 1.52 15186
0.04 -0.00 -19.07 -18.65 22.17 0.46 -1.89 1.80 15193
0.04 -0.00 -19.92 -11.35 10.61 1.47 -3.67 2.65 15200
0.04 -0.00 0.14 -3.81 3.60 1.44 -4.28 2.75 15206
0.05 -0.01 2.42 3.95 8.07 1.48 -4.28 2.51 15212
0.05 -0.00 5.56 3.61 9.83 1.59 -4.27 2.55 15218
0.05 -0.00 4.96 7.94 11.44 1.63 -3.82 2.74 15224
0.05 -0.00 0.84 7.55 14.07 1.76 -2.83 2.93 15232
0.04 -0.00 -3.89 4.34 11.68 1.87 -1.91 2.91 15238
0.05 0.07 -7.16 3.41 8.31 2.00 -1.47 2.64 15244
0.04 0.15 -10.73 2.42 10.26 2.20 -1.41 2.18 15250
0.02 0.26 -15.18 0.64 14.15 2.33 -1.40 1.58 15257
0.02 0.36 -15.47 -0.36 14.99 2.39 -1.38 0.79 15263
0.00 0.51 -12.11 -0.04 16.30 2.37 -1.24 -0.10 15269
0.01 0.57 -6.65 -0.20 16.10 2.26 -1.04 -0.88 15277
-0.01 0.66 -0.02 -0.93 17.46 2.15 -0.91 -1.37 15283
0.01 0.67 5.72 -2.07 18.56 2.02 -0.93 -1.44 15289
0.00 0.71 9.33 -3.26 21.79 1.32 -1.95 -1.04 15295
-0.00 0.72 7.93 -4.09 8.92 0.79 -1.75 -0.27 15302
0.01 0.70 3.40 -3.13 13.11 0.84 -1.47 0.17 15308
-0.01 0.75 1.84 -1.65 10.86 0.73 -1.33 0.33 15314
0.02 0.78 -0.11 -0.15 12.05 0.64 -1.36 0.31 15321
0.01 0.79 -0.52 -0.30 12.02 0.39 -1.01 0.16 15328
0.03 0.81 0.57 -0.73 11.16 0.19 -0.62 0.06 15334
0.02 0.89 0.95 -1.02 9.84 0.07 -0.32 0.05 15340
0.02 0.91 1.16 -1.21 9.51 0.01 -0.19 0.06 15346
0.01 0.98 1.08 -0.92 9.92 -0.01 -0.13 0.07 15353
0.02 0.95 0.55 -0.60 10.40 -0.02 -0.06 0.05 15360
0.01 0.96 0.71 -0.75 10.08 -0.02 -0.04 0.04 15366
0.02 0.94 0.79 -0.88 10.13 -0.03 -0.01 0.04 15372
0.00 0.89 0.85 -0.90 10.10 -0.02 0.01 0.06 15379
0.00 0.92 0.79 -0.78 10.11 -0.02 0.03 0.07 15385
0.01 0.92 0.82 -0.78 10.00 -0.01 0.05 0.07 15391
0.02 0.87 0.93 -0.74 9.98 0.00 0.06 0.08 15397
0.01 0.87 0.93 -0.76 9.92 0.02 0.06 0.09 15404
0.03 0.82 1.09 -0.63 9.95 0.02 0.06 0.09 15411
0.03 0.72 0.95 -0.71 9.92 0.02 0.05 0.08 15417
0.04 0.71 1.02 -0.83 9.95 0.03 0.04 0.07 15423
0.04 0.66 1.05 -0.77 9.96 0.02 0.03 0.06 15429
0.04 0.62 1.02 -0.77 10.00 0.02 0.02 0.06 15435
0.04 0.61 1.04 -0.76 9.98 0.02 0.01 0.05 15441
0.05 0.56 1.01 -0.80 9.95 0.02 0.01 0.04 15449
0.05 0.51 0.96 -0.75 10.00 0.02 0.01 0.04 15455
0.06 0.51 0.95 -0.77 9.96 0.02 0.01 0.04 15461
0.07 0.43 0.96 -0.78 9.97 0.02 0.02 0.04 15467
