Voltage_01 Voltage_02 Acc_x Acc_y Acc_z Gyro_x Gyro_y Gyro_z Time
5000
1.30 -0.06 0.95 -1.54 10.43 0.43 0.00 -0.12 17
1.33 -0.07 0.96 -1.59 10.44 0.50 -0.00 -0.13 23
1.34 -0.05 0.88 -1.58 10.45 0.56 -0.01 -0.14 29
1.37 -0.05 0.89 -1.67 10.45 0.61 -0.02 -0.14 35
1.40 -0.06 0.87 -1.65 10.48 0.64 -0.03 -0.14 41
1.42 -0.07 0.86 -1.75 10.45 0.69 -0.03 -0.14 48
1.42 -0.06 0.90 -1.69 10.51 0.74 -0.04 -0.14 55
1.45 -0.06 0.93 -1.26 10.80 0.79 -0.05 -0.16 61
1.48 -0.06 0.80 -1.89 10.49 0.84 -0.05 -0.14 67
1.48 -0.07 0.72 -1.96 10.52 0.89 -0.06 -0.13 73
1.50 -0.06 0.75 -1.94 10.56 0.95 -0.06 -0.13 79
1.50 -0.07 0.79 -2.11 10.58 1.03 -0.07 -0.12 86
1.48 -0.06 0.92 -2.26 10.85 1.06 -0.06 -0.12 92
1.47 -0.07 0.84 -2.20 10.45 1.13 -0.04 -0.13 98
1.47 -0.06 0.86 -2.28 10.84 1.19 -0.03 -0.13 105
1.46 -0.06 0.79 -2.35 10.61 1.26 -0.00 -0.13 111
1.40 -0.06 0.86 -2.43 10.22 1.33 0.03 -0.13 117
1.38 -0.04 0.76 -2.52 10.77 1.40 0.06 -0.12 123
1.33 -0.06 0.72 -2.62 11.02 1.51 0.11 -0.12 130
1.29 -0.06 0.56 -2.69 10.82 1.63 0.20 -0.11 136
1.17 -0.04 0.46 -2.79 10.95 1.71 0.27 -0.08 142
1.15 -0.05 0.35 -2.89 11.75 1.81 0.30 -0.05 149
1.01 -0.05 0.66 -3.27 12.23 1.97 0.40 -0.03 155
0.87 -0.03 0.88 -3.33 12.15 2.17 0.46 -0.02 161
0.86 -0.03 0.73 -3.47 12.15 2.37 0.61 -0.01 167
0.73 -0.03 0.56 -3.51 12.58 2.56 0.77 0.01 174
0.62 -0.03 0.22 -3.80 12.57 2.73 0.99 0.06 180
0.50 -0.03 0.34 -4.01 12.93 2.95 1.26 0.12 187
0.37 -0.02 -0.25 -4.17 12.82 3.16 1.49 0.19 193
0.29 -0.02 0.02 -4.35 12.56 3.30 1.73 0.30 199
0.23 -0.01 0.02 -5.09 13.94 3.36 1.81 0.40 205
0.17 -0.01 0.25 -5.69 15.61 3.53 1.88 0.51 211
0.14 -0.01 1.00 -6.42 16.69 3.74 2.03 0.59 218
0.14 -0.01 0.88 -7.08 16.91 3.95 2.24 0.66 224
0.13 -0.00 0.89 -7.55 17.03 4.05 2.44 0.78 231
0.12 -0.01 1.30 -8.13 17.70 4.10 2.62 0.88 237
0.09 -0.01 1.94 -8.61 18.74 4.15 2.75 0.96 243
0.08 -0.01 1.69 -8.68 18.54 4.17 2.84 1.05 249
0.07 -0.01 2.82 -8.67 18.89 4.16 2.96 1.13 256
0.07 -0.01 4.44 -8.82 18.58 4.12 3.24 1.26 262
0.06 -0.01 6.12 -8.69 19.51 4.05 3.85 1.30 268
0.05 -0.00 6.40 -7.98 19.50 3.95 4.28 1.29 274
0.06 -0.01 4.27 -7.07 20.25 3.86 4.28 1.18 280
0.05 -0.00 1.18 -5.88 21.37 3.81 4.28 1.00 287
0.05 -0.01 -2.09 -4.53 21.13 3.73 4.28 0.79 293
0.06 -0.01 -4.75 -1.33 20.19 3.61 4.28 0.55 300
0.06 -0.01 -7.12 0.29 20.05 3.34 4.15 0.30 306
0.05 -0.00 -8.92 2.83 17.71 3.09 3.05 0.21 312
0.05 -0.00 -9.08 7.65 11.57 2.74 2.03 0.22 318
0.04 -0.00 -18.58 13.00 2.21 2.42 0.58 -0.52 324
0.05 -0.00 -8.92 8.45 7.30 1.56 -2.37 -1.68 330
0.03 -0.00 -8.01 10.53 10.92 -0.27 -3.55 -2.29 336
0.03 -0.00 -2.40 7.43 15.87 -1.42 -3.71 -2.65 344
0.04 0.00 0.34 4.18 16.56 -1.86 -3.53 -3.03 350
0.04 -0.00 1.72 1.10 15.46 -2.01 -3.11 -3.59 356
0.04 -0.00 1.85 0.48 13.55 -2.10 -2.52 -4.07 362
0.03 -0.00 1.75 1.27 11.64 -2.13 -1.92 -4.28 368
0.04 -0.00 1.47 2.26 10.55 -2.16 -1.52 -4.28 374
0.04 -0.00 1.20 2.84 9.91 -2.27 -1.38 -4.28 380
0.03 -0.00 1.06 3.26 10.12 -2.46 -1.40 -4.28 387
0.02 -0.00 1.32 3.71 9.90 -2.71 -1.49 -4.28 393
0.03 -0.00 1.57 3.61 10.10 -2.98 -1.64 -4.28 399
0.04 -0.00 2.15 3.18 9.96 -3.24 -1.82 -4.28 406
0.03 -0.00 2.57 2.56 9.99 -3.45 -2.01 -4.28 412
0.03 -0.00 2.59 2.17 10.51 -3.65 -2.14 -4.28 418
0.02 -0.00 1.97 1.72 10.78 -3.81 -2.21 -4.04 424
0.04 -0.00 2.74 1.08 10.73 -3.91 -2.18 -3.57 431
0.04 -0.00 4.34 0.55 10.21 -4.01 -2.35 -3.15 437
0.05 -0.01 5.24 0.02 9.80 -4.10 -2.66 -2.82 443
0.04 -0.00 5.82 -0.73 9.70 -4.15 -2.97 -2.53 449
0.05 0.00 6.58 -1.56 9.44 -4.19 -3.14 -2.26 455
0.04 -0.00 7.77 -1.97 9.45 -4.21 -3.19 -2.04 461
0.04 -0.00 9.01 -2.42 9.57 -4.21 -3.07 -1.81 467
0.03 -0.00 9.96 -2.97 9.46 -4.19 -2.79 -1.61 474
0.05 0.01 10.80 -3.80 9.20 -4.16 -2.34 -1.45 481
0.05 -0.01 11.29 -4.50 8.91 -4.09 -1.81 -1.31 487
0.04 -0.00 11.73 -5.11 8.74 -3.99 -1.32 -1.17 493
0.03 0.00 11.63 -5.30 8.67 -3.84 -0.73 -1.06 499
0.06 -0.01 11.12 -5.57 8.92 -3.66 -0.18 -0.90 505
0.04 -0.00 10.43 -6.04 9.19 -3.48 0.30 -0.69 512
0.02 -0.00 9.64 -6.44 9.65 -3.30 0.62 -0.44 518
0.03 -0.00 8.91 -6.67 10.24 -3.17 0.83 -0.16 524
0.05 0.00 8.54 -6.84 10.83 -3.02 0.94 0.13 531
0.04 -0.00 8.24 -7.21 11.34 -2.88 1.04 0.41 537
0.04 -0.00 7.81 -7.56 11.95 -2.77 1.14 0.67 543
0.03 -0.00 7.84 -7.87 12.44 -2.65 1.28 0.94 549
0.03 -0.00 7.50 -8.41 12.78 -2.56 1.42 1.17 556
0.04 -0.00 7.17 -8.78 13.33 -2.49 1.60 1.38 562
0.03 -0.00 6.63 -9.28 13.63 -2.42 1.80 1.58 568
0.02 -0.00 6.13 -9.88 14.16 -2.37 1.93 1.74 574
0.02 -0.00 5.38 -10.51 14.36 -2.33 2.04 1.88 580
0.03 -0.00 4.66 -11.14 14.65 -2.31 2.06 2.02 587
0.02 -0.00 4.18 -11.47 14.75 -2.28 2.01 2.14 593
0.02 -0.00 3.81 -11.55 14.68 -2.25 1.89 2.23 600
0.03 -0.00 3.71 -11.67 14.46 -2.23 1.76 2.28 606
0.03 -0.00 3.80 -11.75 14.17 -2.20 1.62 2.29 612
0.02 -0.00 4.04 -11.73 13.76 -2.15 1.51 2.25 618
0.03 -0.00 4.26 -11.78 13.38 -2.07 1.44 2.17 625
0.02 -0.00 4.45 -11.80 13.12 -1.98 1.41 2.06 631
0.03 -0.00 4.61 -11.86 12.96 -1.87 1.44 1.92 637
0.04 -0.00 4.77 -11.82 12.95 -1.75 1.52 1.79 644
0.03 -0.00 4.85 -11.71 12.89 -1.63 1.63 1.62 650
0.02 -0.00 4.91 -11.58 12.99 -1.51 1.78 1.45 656
0.03 -0.00 4.91 -11.41 13.04 -1.40 1.97 1.28 663
0.03 -0.00 4.86 -11.19 12.97 -1.31 2.18 1.10 669
0.01 -0.00 4.58 -10.94 13.01 -1.25 2.40 0.95 675
0.03 -0.00 4.15 -10.67 13.05 -1.20 2.59 0.82 681
0.03 -0.00 3.62 -10.32 13.06 -1.17 2.72 0.71 688
0.03 -0.00 3.03 -10.14 13.06 -1.15 2.83 0.63 694
0.02 -0.00 2.50 -9.99 13.13 -1.15 2.85 0.55 700
0.03 -0.00 1.97 -9.81 13.19 -1.16 2.81 0.48 706
0.03 -0.00 1.36 -9.59 13.09 -1.17 2.72 0.42 713
0.03 -0.00 0.77 -9.45 12.77 -1.18 2.61 0.36 719
0.02 -0.00 0.20 -9.30 12.44 -1.18 2.46 0.31 726
0.03 -0.00 -0.18 -9.20 12.11 -1.17 2.32 0.26 732
0.02 -0.00 -0.56 -9.05 11.67 -1.15 2.18 0.22 738
0.03 -0.00 -0.64 -9.00 11.29 -1.11 2.06 0.15 744
0.03 -0.00 -0.62 -9.04 10.85 -1.06 1.97 0.07 750
0.04 -0.00 -0.52 -9.08 10.67 -1.01 1.90 -0.02 756
0.04 -0.00 -0.48 -9.18 10.55 -0.96 1.88 -0.12 762
0.04 -0.00 -0.50 -9.23 10.57 -0.90 1.89 -0.23 769
0.03 -0.00 -0.76 -9.21 10.46 -0.87 1.89 -0.32 776
0.04 -0.00 -1.17 -9.05 10.32 -0.84 1.86 -0.42 782
0.04 -0.00 -1.77 -8.85 9.88 -0.80 1.79 -0.51 788
0.04 -0.00 -2.22 -8.71 9.33 -0.76 1.69 -0.59 794
0.02 -0.00 -2.65 -8.56 8.65 -0.68 1.61 -0.62 800
0.03 -0.00 -3.01 -8.51 8.28 -0.55 1.58 -0.59 806
0.04 -0.00 -3.47 -8.53 8.26 -0.40 1.56 -0.54 813
0.04 -0.00 -3.86 -8.60 8.36 -0.23 1.48 -0.46 819
0.03 -0.00 -4.23 -8.75 8.57 -0.06 1.28 -0.38 825
0.03 -0.00 -4.61 -8.67 8.92 0.05 0.97 -0.30 831
0.03 -0.00 -4.87 -8.52 9.15 0.13 0.69 -0.18 837
0.03 -0.00 -4.93 -8.33 9.32 0.18 0.32 -0.11 843
0.03 -0.00 -4.78 -8.41 9.42 0.21 -0.06 -0.00 849
0.03 -0.00 -4.43 -8.64 9.24 0.22 -0.40 0.09 856
0.03 -0.00 -13.05 -8.50 15.05 0.40 -1.01 0.35 862
0.04 -0.00 -15.23 -7.15 14.60 1.37 -3.37 1.07 869
0.04 -0.00 1.65 -2.72 8.01 1.10 -3.83 1.17 875
0.04 -0.00 3.11 0.54 7.68 1.14 -4.05 1.01 881
0.04 -0.00 5.84 2.00 9.68 1.15 -3.72 1.11 887
0.01 -0.00 7.69 2.73 10.41 1.13 -3.25 1.31 893
0.03 -0.00 5.44 4.62 12.21 1.08 -2.84 1.58 900
0.03 -0.00 3.20 3.68 12.67 1.01 -2.45 1.81 906
0.03 -0.00 0.36 2.56 11.44 0.94 -2.19 1.86 912
0.03 -0.00 0.00 1.42 8.22 0.88 -2.14 1.80 918
0.04 -0.00 -1.55 1.80 7.42 0.96 -2.21 1.64 924
0.05 0.05 -4.56 3.16 10.57 1.13 -2.09 1.42 930
0.03 0.16 -6.80 3.04 12.03 1.41 -1.81 1.12 936
0.02 0.24 -7.64 2.17 10.49 1.62 -1.58 0.72 944
0.02 0.38 -7.87 1.42 11.67 1.81 -1.44 0.31 950
0.03 0.42 -5.50 0.01 12.86 1.94 -1.29 -0.14 956
0.00 0.45 -2.83 -0.61 12.58 1.99 -1.10 -0.46 962
0.01 0.44 0.41 -0.82 12.83 1.98 -0.85 -0.64 968
0.02 0.53 2.89 -1.46 13.43 1.96 -0.64 -0.63 974
0.01 0.55 4.89 -2.36 15.30 1.93 -0.65 -0.48 982
0.01 0.56 5.30 -2.48 21.67 1.41 -1.54 -0.21 988
0.02 0.61 2.66 -1.70 11.87 0.77 -1.27 0.11 994
0.01 0.66 0.31 -2.01 14.37 0.52 -1.12 0.17 1000
0.02 0.64 0.43 -1.24 11.13 0.28 -0.80 0.12 1006
0.01 0.76 0.24 -0.62 11.23 0.19 -0.68 0.06 1013
0.01 0.77 0.71 -0.53 10.00 0.12 -0.58 0.02 1019
0.00 0.76 0.91 -0.72 10.13 0.08 -0.50 0.02 1026
0.01 0.84 0.86 -0.65 10.33 0.05 -0.41 0.03 1032
0.00 0.87 0.68 -0.97 10.10 0.01 -0.29 0.04 1038
0.02 0.89 0.54 -0.80 10.13 -0.02 -0.20 0.04 1045
0.00 0.95 0.59 -0.82 10.23 -0.03 -0.14 0.03 1051
-0.01 0.96 0.68 -0.80 10.07 -0.02 -0.12 0.03 1057
-0.01 0.98 0.62 -0.84 10.13 -0.02 -0.09 0.03 1063
0.00 0.97 0.69 -0.77 10.03 -0.02 -0.07 0.04 1070
-0.01 0.94 0.73 -0.73 9.94 -0.01 -0.06 0.05 1076
0.00 0.99 0.74 -0.77 10.10 -0.01 -0.06 0.05 1083
0.01 1.00 0.77 -0.76 10.00 -0.01 -0.06 0.05 1089
-0.00 0.97 0.79 -0.69 9.97 -0.00 -0.06 0.05 1095
-0.01 0.96 0.72 -0.69 10.02 -0.00 -0.06 0.06 1101
0.01 0.94 0.71 -0.69 10.06 -0.01 -0.06 0.06 1107
0.01 0.87 0.69 -0.70 10.06 -0.00 -0.06 0.06 1115
0.02 0.87 0.74 -0.71 10.03 -0.00 -0.06 0.06 1121
0.03 0.82 0.74 -0.71 9.95 -0.00 -0.06 0.05 1127
0.03 0.81 0.77 -0.68 9.98 0.00 -0.07 0.05 1133
0.01 0.79 0.75 -0.68 9.98 0.00 -0.09 0.04 1139
0.04 0.76 0.73 -0.66 9.99 0.00 -0.09 0.04 1145
0.02 0.72 0.73 -0.70 9.90 0.00 -0.10 0.03 1152
0.03 0.69 0.75 -0.69 9.94 0.00 -0.11 0.03 1159
0.03 0.68 0.75 -0.68 9.93 -0.00 -0.11 0.03 1165
0.06 0.63 0.70 -0.69 10.01 -0.00 -0.12 0.03 1171
0.05 0.61 0.68 -0.66 9.98 -0.01 -0.12 0.03 1177
0.07 0.57 0.67 -0.72 10.00 -0.01 -0.12 0.03 1183
0.09 0.56 0.64 -0.68 10.11 -0.01 -0.12 0.03 1189
0.09 0.52 0.67 -0.70 10.02 -0.01 -0.12 0.03 1197
0.07 0.49 0.68 -0.68 9.99 -0.01 -0.12 0.03 1203
0.08 0.52 0.73 -0.68 10.03 -0.01 -0.12 0.03 1209
0.07 0.46 0.69 -0.72 9.91 -0.01 -0.11 0.03 1215
0.09 0.43 0.65 -0.74 9.95 -0.01 -0.10 0.03 1221
0.10 0.46 0.64 -0.72 10.00 -0.01 -0.09 0.03 1227
0.10 0.42 0.62 -0.72 10.07 -0.01 -0.08 0.03 1234
0.08 0.40 0.63 -0.75 10.01 -0.01 -0.07 0.03 1241
0.12 0.34 0.65 -0.75 10.06 -0.00 -0.06 0.04 1247
0.09 0.36 0.61 -0.71 10.00 -0.00 -0.06 0.04 1253
0.09 0.32 0.66 -0.78 10.00 -0.01 -0.06 0.04 1259
0.11 0.30 0.68 -0.75 10.01 -0.00 -0.06 0.04 1265
0.11 0.30 0.67 -0.73 9.96 -0.00 -0.05 0.04 1272
0.11 0.25 0.67 -0.72 9.99 0.00 -0.05 0.04 1278
0.12 0.25 0.61 -0.72 9.95 0.00 -0.05 0.04 1285
0.14 0.19 0.64 -0.73 9.98 0.00 -0.05 0.03 1291
0.13 0.19 0.67 -0.76 10.04 0.00 -0.05 0.03 1297
0.14 0.19 0.63 -0.74 9.99 0.01 -0.05 0.04 1303
0.16 0.16 0.63 -0.72 9.97 0.01 -0.04 0.03 1310
0.16 0.10 0.62 -0.70 9.98 0.01 -0.03 0.03 1316
0.14 0.08 0.59 -0.73 9.99 0.01 -0.02 0.03 1323
0.16 0.11 0.69 -0.67 10.06 0.01 -0.02 0.04 1329
0.23 0.02 0.63 -0.75 10.01 0.02 -0.02 0.04 1335
0.20 0.04 0.71 -0.80 10.06 0.02 -0.01 0.04 1341
0.21 0.07 0.66 -0.75 10.00 0.02 -0.01 0.04 1347
0.26 0.01 0.65 -0.76 10.01 0.03 -0.01 0.04 1354
0.22 -0.00 0.71 -0.76 10.04 0.03 -0.00 0.05 1360
0.23 0.00 0.69 -0.77 10.04 0.03 -0.01 0.05 1367
0.28 -0.01 0.71 -0.79 10.01 0.03 -0.01 0.04 1373
0.28 0.01 0.67 -0.73 10.01 0.04 -0.01 0.04 1379
0.29 -0.01 0.72 -0.82 10.01 0.04 -0.01 0.05 1386
0.35 -0.01 0.70 -0.81 10.02 0.04 -0.01 0.04 1392
0.38 -0.04 0.72 -0.80 9.97 0.05 -0.01 0.05 1398
0.42 -0.03 0.70 -0.65 10.14 0.06 -0.02 0.05 1404
0.46 -0.04 0.73 -0.79 10.04 0.06 -0.01 0.05 1411
0.49 -0.05 0.71 -0.78 9.89 0.07 -0.02 0.05 1417
0.49 -0.05 0.76 -0.78 10.04 0.08 -0.02 0.04 1423
0.50 -0.02 0.65 -0.81 10.02 0.09 -0.01 0.05 1430
0.50 -0.03 0.72 -0.80 10.06 0.09 -0.02 0.05 1436
0.53 -0.04 0.67 -0.83 10.02 0.09 -0.02 0.05 1442
0.61 -0.03 0.66 -0.84 9.99 0.10 -0.02 0.05 1448
0.64 -0.04 0.71 -0.82 9.99 0.11 -0.02 0.05 1455
0.62 -0.04 0.64 -0.87 10.06 0.12 -0.02 0.04 1461
0.63 -0.04 0.69 -0.87 10.04 0.13 -0.01 0.04 1468
0.65 -0.05 0.70 -0.86 10.08 0.15 0.00 0.04 1474
0.67 -0.06 0.74 -0.89 10.16 0.17 0.01 0.03 1480
0.74 -0.03 0.71 -0.93 10.18 0.21 0.01 0.03 1486
0.78 -0.05 0.79 -0.96 10.17 0.26 0.01 0.02 1492
0.81 -0.05 0.82 -0.95 10.32 0.33 0.02 0.01 1500
0.87 -0.03 0.79 -1.12 10.40 0.42 0.03 0.00 1506
0.89 -0.05 0.81 -1.11 10.43 0.50 0.03 -0.01 1512
0.92 -0.06 0.86 -1.12 10.52 0.61 0.03 -0.02 1518
0.95 -0.03 0.83 -1.15 10.53 0.73 0.02 -0.03 1524
0.96 -0.05 0.81 -1.24 10.83 0.83 0.01 -0.04 1531
1.00 -0.03 0.85 -1.26 10.50 0.87 0.00 -0.05 1538
1.03 -0.04 0.83 -1.34 10.79 0.95 -0.01 -0.06 1544
1.04 -0.05 0.75 -1.52 10.77 1.02 -0.02 -0.06 1550
1.10 -0.05 0.76 -1.49 10.86 1.08 -0.03 -0.06 1556
1.13 -0.06 0.80 -1.59 10.87 1.14 -0.05 -0.06 1563
1.16 -0.04 0.86 -1.63 11.00 1.20 -0.05 -0.07 1569
1.16 -0.05 0.94 -1.78 10.78 1.26 -0.06 -0.08 1575
1.19 -0.05 0.79 -1.85 10.91 1.32 -0.08 -0.08 1582
1.19 -0.06 0.84 -1.99 10.45 1.39 -0.08 -0.09 1588
1.20 -0.05 0.90 -2.04 11.07 1.47 -0.08 -0.09 1595
1.21 -0.05 0.84 -2.15 11.07 1.56 -0.06 -0.10 1601
1.25 -0.06 0.75 -2.22 11.16 1.67 -0.04 -0.11 1607
1.24 -0.05 0.79 -2.41 11.20 1.78 -0.01 -0.12 1613
1.25 -0.05 0.84 -2.43 11.08 1.91 0.05 -0.13 1620
1.20 -0.04 0.73 -2.56 11.21 2.04 0.15 -0.13 1627
1.19 -0.06 0.44 -2.56 11.03 2.18 0.25 -0.13 1633
1.12 -0.05 0.43 -2.79 11.88 2.33 0.38 -0.12 1639
1.07 -0.05 0.47 -2.92 12.12 2.53 0.56 -0.09 1645
1.04 -0.06 0.49 -3.05 12.47 2.75 0.73 -0.06 1652
0.91 -0.06 0.43 -3.42 12.66 2.94 0.91 -0.04 1658
0.79 -0.04 0.27 -3.26 12.76 3.18 1.14 -0.01 1665
0.66 -0.05 0.34 -4.19 13.18 3.41 1.34 0.03 1671
0.45 -0.04 0.27 -4.27 13.59 3.64 1.60 0.10 1678
0.33 -0.02 0.24 -4.57 14.53 3.88 1.73 0.18 1684
0.27 -0.02 -0.58 -5.39 13.91 4.03 1.75 0.27 1690
0.18 -0.01 0.14 -5.68 14.19 4.07 1.87 0.40 1696
0.19 -0.01 0.10 -7.02 18.46 4.06 1.85 0.58 1702
0.16 -0.02 1.77 -8.56 21.66 4.19 2.04 0.65 1710
0.13 -0.01 2.19 -9.14 22.65 4.28 2.33 0.71 1716
0.14 -0.01 2.36 -9.57 23.52 4.28 2.58 0.76 1722
0.12 -0.01 1.90 -9.92 22.74 4.28 2.75 0.85 1728
0.07 -0.01 1.08 -9.72 21.85 4.28 2.79 0.94 1734
0.09 -0.01 2.69 -8.97 21.68 4.28 2.95 1.05 1740
0.05 -0.01 5.90 -9.58 21.92 4.28 3.36 1.14 1747
0.04 -0.00 6.85 -8.70 22.64 4.28 3.93 1.10 1754
0.07 -0.01 6.35 -6.97 22.19 4.28 4.26 0.95 1760
0.07 -0.01 3.64 -4.39 22.47 4.28 4.28 0.72 1766
0.05 -0.00 0.58 -1.99 22.37 4.28 4.28 0.45 1772
0.05 0.01 -2.24 0.54 20.57 4.25 4.28 0.16 1778
0.04 -0.00 -3.49 4.04 18.26 4.13 4.02 -0.13 1785
0.04 -0.00 -4.34 7.10 15.99 3.88 3.28 -0.37 1792
0.04 -0.00 -4.91 10.26 14.74 3.48 2.46 -0.57 1798
0.04 -0.00 -11.13 13.04 5.38 3.14 1.49 -1.12 1804
0.05 -0.00 -5.96 9.98 9.81 2.50 -0.62 -1.83 1810
0.04 -0.00 -5.74 11.87 11.14 1.18 -2.04 -2.12 1817
0.06 -0.01 -2.44 12.98 12.90 -0.41 -2.52 -2.19 1823
0.04 -0.00 0.76 9.40 15.29 -1.34 -2.72 -2.30 1829
0.04 0.00 2.30 5.76 14.91 -1.83 -2.72 -2.53 1836
0.04 -0.00 2.77 4.68 12.85 -2.19 -2.47 -2.78 1842
0.04 -0.00 3.18 4.63 10.70 -2.43 -1.97 -2.97 1848
0.06 -0.01 3.41 4.71 9.21 -2.59 -1.46 -3.16 1855
0.06 -0.01 3.21 4.73 7.79 -2.74 -1.06 -3.32 1861
0.04 -0.00 2.70 4.62 7.24 -2.89 -0.80 -3.46 1867
0.03 -0.00 2.29 4.43 7.40 -3.02 -0.67 -3.54 1873
0.04 0.01 2.13 4.22 7.82 -3.17 -0.67 -3.58 1880
0.02 -0.00 2.15 3.85 8.24 -3.34 -0.77 -3.57 1886
0.02 -0.00 1.98 3.61 8.90 -3.53 -0.96 -3.49 1892
0.03 -0.00 2.05 3.18 9.35 -3.74 -1.16 -3.41 1898
0.05 -0.01 2.31 2.72 9.82 -3.94 -1.35 -3.23 1905
0.05 -0.00 2.71 2.07 10.19 -4.11 -1.50 -3.00 1911
0.03 -0.00 3.45 0.88 10.36 -4.23 -1.61 -2.72 1917
0.04 0.01 4.46 -0.02 10.26 -4.28 -1.73 -2.45 1924
0.03 -0.00 5.23 -0.77 10.37 -4.28 -1.86 -2.22 1930
0.03 -0.00 5.77 -1.85 10.48 -4.28 -1.92 -2.01 1936
0.03 -0.00 6.22 -3.08 10.66 -4.28 -1.92 -1.81 1943
0.03 -0.00 6.75 -4.05 11.05 -4.28 -1.88 -1.61 1949
0.03 -0.00 7.31 -4.93 10.99 -4.28 -1.83 -1.41 1955
0.04 -0.00 7.73 -5.50 10.56 -4.28 -1.77 -1.25 1961
0.04 -0.00 8.30 -5.87 10.00 -4.28 -1.69 -1.06 1968
0.04 -0.00 8.73 -6.22 9.66 -4.28 -1.58 -0.89 1974
0.04 -0.00 9.47 -6.73 9.57 -4.28 -1.40 -0.74 1981
0.05 -0.01 10.06 -7.21 9.57 -4.28 -1.16 -0.59 1987
0.04 -0.00 11.05 -7.82 10.15 -4.21 -0.82 -0.45 1993
0.02 -0.00 11.66 -8.43 10.64 -4.09 -0.41 -0.33 1999
0.04 -0.00 11.80 -9.21 10.98 -3.90 0.04 -0.23 2006
0.04 -0.00 11.54 -9.76 11.14 -3.72 0.47 -0.11 2013
0.04 0.00 11.22 -10.26 11.54 -3.53 0.93 0.01 2019
0.03 -0.00 10.49 -10.84 12.12 -3.35 1.27 0.14 2025
0.03 -0.00 10.15 -11.33 12.44 -3.17 1.58 0.30 2031
0.05 -0.00 9.60 -12.09 12.94 -2.97 1.83 0.48 2038
0.03 -0.00 8.99 -12.41 13.31 -2.80 1.98 0.70 2044
0.03 -0.00 8.43 -12.51 13.57 -2.63 2.06 0.97 2051
0.04 -0.00 8.05 -12.48 13.79 -2.47 2.08 1.15 2057
0.03 -0.00 7.81 -12.47 13.84 -2.33 2.10 1.40 2063
0.04 -0.00 7.55 -12.45 13.72 -2.20 2.11 1.62 2070
0.03 -0.00 7.29 -12.47 13.42 -2.07 2.14 1.78 2076
0.02 -0.00 6.94 -12.36 13.06 -1.94 2.19 1.90 2082
0.02 -0.00 6.56 -12.17 12.67 -1.81 2.26 1.97 2088
0.02 -0.00 6.06 -11.90 12.51 -1.66 2.34 1.99 2096
0.03 -0.00 5.64 -11.57 12.76 -1.50 2.42 1.95 2102
0.05 -0.00 5.13 -11.26 13.14 -1.35 2.52 1.88 2108
0.04 -0.00 4.61 -10.96 13.54 -1.21 2.64 1.79 2114
0.04 -0.00 4.11 -10.76 14.22 -1.11 2.80 1.68 2120
0.04 -0.00 3.44 -10.59 14.86 -1.07 2.95 1.58 2127
0.04 -0.00 2.71 -10.52 15.36 -1.06 3.10 1.49 2134
0.03 0.00 1.88 -10.46 15.61 -1.08 3.21 1.43 2140
0.04 -0.00 1.10 -10.38 15.44 -1.15 3.26 1.37 2146
0.03 -0.00 0.27 -10.38 15.25 -1.23 3.21 1.33 2153
0.04 -0.00 -0.45 -10.35 15.07 -1.30 3.14 1.29 2159
0.04 -0.00 -0.95 -10.31 14.73 -1.36 2.96 1.24 2165
0.03 -0.00 -1.31 -10.29 14.42 -1.41 2.73 1.20 2171
0.04 -0.00 -1.55 -10.15 14.14 -1.46 2.47 1.13 2178
0.03 -0.00 -1.81 -10.02 13.75 -1.50 2.17 1.06 2185
0.04 -0.00 -1.95 -9.90 13.29 -1.54 1.86 0.99 2191
0.05 -0.00 -1.83 -9.83 12.83 -1.58 1.56 0.90 2197
0.04 -0.00 -1.61 -10.02 12.27 -1.58 1.29 0.81 2203
0.04 -0.00 -1.37 -10.20 11.57 -1.56 1.10 0.71 2209
0.04 -0.00 -1.15 -10.46 10.96 -1.49 1.00 0.62 2216
0.05 -0.00 -1.10 -10.73 10.46 -1.39 1.01 0.54 2223
0.03 0.00 -1.39 -10.90 10.15 -1.27 1.13 0.48 2229
0.03 -0.00 -1.95 -11.17 9.99 -1.15 1.31 0.46 2235
0.02 -0.00 -2.77 -11.44 9.84 -1.00 1.47 0.45 2241
0.04 -0.00 -3.54 -11.83 9.73 -0.91 1.57 0.45 2248
0.04 -0.00 -4.82 -12.19 9.52 -0.79 1.59 0.48 2254
0.04 -0.00 -5.01 -12.55 9.28 -0.69 1.55 0.53 2260
0.04 0.00 -5.70 -12.96 8.78 -0.59 1.38 0.57 2267
0.04 -0.00 -6.23 -13.46 7.48 -0.48 1.10 0.61 2273
0.04 -0.00 -6.36 -14.10 7.13 -0.34 0.70 0.63 2279
0.03 -0.00 -6.16 -14.61 6.35 -0.19 0.28 0.60 2286
0.05 -0.00 -5.57 -15.07 5.87 -0.01 -0.09 0.56 2292
0.03 -0.00 -4.98 -15.56 5.83 0.19 -0.33 0.51 2298
0.02 -0.00 -4.45 -15.97 6.42 0.36 -0.44 0.46 2305
0.04 -0.00 -10.55 -14.67 9.86 0.65 -1.10 0.55 2311
0.04 -0.00 0.22 -7.72 13.10 2.33 -2.53 0.86 2317
0.02 -0.00 2.41 2.43 10.54 2.18 -2.33 0.66 2324
0.05 -0.01 3.79 6.32 6.89 2.06 -1.93 0.73 2330
0.04 -0.00 9.36 8.80 6.20 1.80 -1.90 0.79 2336
0.05 -0.00 3.80 5.95 7.89 1.42 -2.28 0.81 2342
0.02 0.00 -1.65 3.83 7.08 1.17 -2.78 0.70 2349
0.04 0.01 -3.53 0.93 5.84 1.17 -3.42 0.42 2355
0.03 0.03 -2.56 0.33 7.91 1.33 -3.96 0.13 2361
0.03 0.07 -0.73 -0.73 11.09 1.57 -4.03 -0.03 2368
0.05 0.22 -0.36 -0.05 14.44 1.88 -3.54 -0.07 2374
0.03 0.38 -2.35 0.51 17.71 2.19 -2.85 -0.11 2380
0.01 0.57 -1.75 -0.12 16.00 2.38 -1.93 -0.17 2386
0.01 0.68 -0.87 -0.89 15.57 2.50 -1.44 -0.26 2393
0.01 0.76 -0.86 -2.08 16.21 2.60 -1.26 -0.37 2400
0.01 0.83 1.44 -2.34 21.04 2.68 -1.38 -0.53 2406
0.01 0.90 4.05 -3.12 22.52 1.97 -2.56 -0.36 2412
-0.00 0.91 2.38 -3.27 18.74 1.28 -2.23 -0.01 2418
0.02 0.90 0.35 -2.35 12.89 0.68 -1.52 0.11 2425
0.02 0.91 0.57 -1.64 11.66 0.38 -1.04 0.11 2432
-0.00 0.91 0.52 -0.68 10.91 0.28 -0.84 0.08 2438
0.01 0.95 0.88 -0.59 10.58 0.21 -0.67 0.05 2444
-0.00 0.94 0.93 -0.86 10.48 0.17 -0.53 0.06 2450
0.00 0.94 0.97 -1.00 10.28 0.13 -0.41 0.08 2457
0.01 0.91 0.88 -0.94 10.37 0.10 -0.31 0.09 2463
0.00 0.88 0.86 -0.73 10.16 0.08 -0.22 0.08 2469
-0.01 0.83 0.82 -0.75 10.07 0.05 -0.17 0.06 2476
0.01 0.83 0.95 -0.86 10.05 0.04 -0.13 0.05 2482
0.01 0.80 0.91 -0.84 10.09 0.03 -0.11 0.06 2489
0.02 0.74 1.00 -0.76 10.05 0.03 -0.08 0.05 2495
0.01 0.70 0.87 -0.69 10.04 0.03 -0.06 0.05 2501
0.02 0.65 0.91 -0.72 10.01 0.02 -0.03 0.05 2507
0.02 0.62 0.92 -0.76 9.97 0.03 -0.02 0.05 2513
0.03 0.52 0.92 -0.75 9.94 0.03 -0.00 0.05 2520
0.03 0.49 0.93 -0.71 9.98 0.04 0.00 0.06 2526
0.01 0.43 0.94 -0.72 9.98 0.04 0.02 0.06 2533
0.03 0.42 1.01 -0.74 10.00 0.05 0.02 0.06 2539
0.04 0.37 1.00 -0.75 9.93 0.05 0.01 0.05 2545
0.04 0.31 1.01 -0.75 9.94 0.05 0.01 0.05 2551
0.04 0.32 0.89 -0.76 9.97 0.05 0.01 0.05 2557
0.07 0.21 0.98 -0.75 9.96 0.05 0.01 0.05 2564
0.06 0.17 1.02 -0.76 9.92 0.05 0.01 0.05 2570
0.05 0.15 1.04 -0.80 9.99 0.05 0.01 0.05 2577
0.05 0.14 1.07 -0.83 9.95 0.05 0.01 0.05 2583
0.08 0.09 1.04 -0.83 9.98 0.05 0.01 0.04 2589
0.09 0.06 1.03 -0.82 9.95 0.05 0.01 0.04 2595
0.08 0.02 1.04 -0.80 9.96 0.05 0.00 0.04 2601
0.10 0.02 1.02 -0.83 9.97 0.05 0.00 0.04 2608
0.11 0.01 1.15 -0.85 9.96 0.05 -0.01 0.03 2614
0.09 -0.01 1.02 -0.85 10.00 0.05 -0.02 0.03 2620
0.12 -0.01 1.06 -0.86 9.95 0.05 -0.03 0.03 2626
0.11 -0.01 1.07 -0.87 9.95 0.05 -0.04 0.03 2633
0.12 -0.01 1.02 -0.88 10.04 0.05 -0.04 0.03 2639
0.12 -0.01 0.98 -0.90 9.94 0.05 -0.04 0.02 2646
0.10 -0.01 1.09 -0.91 9.97 0.06 -0.06 0.02 2652
0.15 -0.01 1.04 -0.91 9.96 0.06 -0.07 0.02 2658
0.16 -0.02 1.03 -0.94 9.99 0.06 -0.09 0.02 2664
0.16 -0.02 1.12 -0.90 9.97 0.07 -0.10 0.01 2670
0.17 -0.02 1.01 -0.92 9.95 0.07 -0.10 0.01 2676
0.20 -0.00 1.02 -0.93 9.94 0.07 -0.09 0.00 2682
0.24 -0.02 1.04 -0.95 9.98 0.07 -0.09 0.01 2689
0.26 -0.02 1.01 -0.92 9.99 0.08 -0.08 -0.00 2696
0.23 -0.02 1.05 -0.97 10.02 0.09 -0.07 -0.01 2702
0.30 -0.02 0.96 -0.81 10.05 0.10 -0.05 -0.01 2708
0.28 -0.03 1.01 -0.96 9.97 0.11 -0.04 -0.02 2714
0.28 -0.03 1.12 -0.92 10.11 0.13 -0.03 -0.02 2720
0.31 -0.03 0.89 -0.91 10.02 0.16 -0.03 -0.02 2726
0.31 -0.01 1.08 -0.99 10.01 0.19 -0.02 -0.02 2734
0.30 -0.03 0.72 -0.98 9.98 0.21 -0.02 -0.02 2740
0.32 0.02 0.93 -1.00 9.95 0.24 0.00 -0.01 2746
0.35 -0.03 0.90 -0.97 9.90 0.22 -0.00 -0.01 2752
0.36 -0.04 0.92 -1.02 10.00 0.27 0.03 -0.02 2758
0.33 -0.03 1.10 -1.15 9.93 0.28 0.03 -0.00 2764
0.34 -0.02 1.03 -1.14 10.06 0.28 0.03 0.00 2770
0.38 -0.04 1.06 -1.17 10.08 0.30 0.03 0.00 2777
0.38 -0.03 1.13 -1.21 10.13 0.34 0.04 -0.00 2784
0.40 -0.02 1.09 -1.25 10.14 0.37 0.03 -0.00 2790
0.41 -0.02 1.11 -1.27 10.09 0.40 0.03 -0.01 2796
0.39 -0.02 1.08 -1.31 10.00 0.42 0.02 -0.02 2802
0.40 -0.01 1.06 -1.31 10.00 0.42 0.01 -0.02 2808
0.45 -0.03 1.07 -1.38 9.89 0.39 0.00 -0.02 2816
0.46 -0.03 1.09 -1.33 9.96 0.37 -0.00 -0.02 2822
0.45 -0.03 1.15 -1.42 9.94 0.35 -0.00 -0.03 2828
0.45 -0.02 1.16 -1.44 9.85 0.32 -0.01 -0.03 2834
0.45 -0.03 1.20 -1.50 9.86 0.29 -0.03 -0.03 2840
0.44 -0.03 1.16 -1.48 9.87 0.27 -0.04 -0.04 2846
0.45 -0.03 1.13 -1.53 9.99 0.27 -0.06 -0.05 2852
0.51 -0.04 1.23 -1.69 10.10 0.29 -0.07 -0.06 2860
0.55 -0.04 1.23 -1.66 10.20 0.31 -0.09 -0.08 2866
0.56 -0.03 1.18 -1.57 10.03 0.32 -0.09 -0.09 2872
0.57 -0.03 1.18 -1.64 10.13 0.32 -0.09 -0.09 2878
0.59 -0.04 1.17 -1.64 10.23 0.35 -0.09 -0.10 2885
0.60 -0.04 1.21 -1.69 10.10 0.38 -0.08 -0.11 2891
0.64 -0.04 1.20 -1.73 10.24 0.42 -0.08 -0.12 2897
0.66 -0.03 1.14 -1.75 10.38 0.50 -0.09 -0.12 2904
0.69 -0.04 1.11 -1.82 10.37 0.51 -0.09 -0.14 2910
0.73 -0.04 1.13 -1.78 10.31 0.56 -0.11 -0.14 2917
0.79 -0.02 1.15 -1.89 10.34 0.61 -0.12 -0.14 2923
0.84 -0.04 1.14 -1.94 10.34 0.66 -0.13 -0.15 2929
0.85 -0.04 1.08 -2.03 10.59 0.73 -0.14 -0.15 2935
0.91 -0.03 0.97 -2.02 10.45 0.78 -0.15 -0.15 2942
0.94 -0.05 0.99 -2.04 10.48 0.84 -0.15 -0.14 2949
0.99 -0.04 1.06 -2.17 10.64 0.90 -0.16 -0.13 2955
1.00 -0.05 1.00 -2.27 10.71 0.98 -0.16 -0.13 2961
1.03 -0.05 0.97 -2.31 10.79 1.06 -0.16 -0.13 2967
1.07 -0.04 0.89 -2.37 10.89 1.13 -0.16 -0.11 2974
1.11 -0.05 0.94 -3.05 10.90 1.22 -0.14 -0.11 2980
1.11 -0.05 1.09 -2.62 11.01 1.32 -0.14 -0.11 2987
1.17 -0.05 1.07 -2.66 10.90 1.42 -0.12 -0.11 2993
1.16 -0.06 0.94 -2.79 10.90 1.53 -0.10 -0.11 3000
1.16 -0.04 0.99 -2.87 11.11 1.65 -0.07 -0.12 3006
1.15 -0.05 0.99 -2.95 11.11 1.77 -0.03 -0.12 3012
1.12 -0.04 0.84 -3.08 11.76 1.93 0.00 -0.13 3018
1.12 -0.03 0.90 -2.89 11.05 2.10 0.08 -0.13 3025
1.12 -0.05 0.80 -3.32 11.08 2.22 0.21 -0.12 3032
1.05 -0.04 0.70 -3.42 11.36 2.40 0.35 -0.11 3038
1.01 -0.04 0.73 -3.56 11.40 2.57 0.55 -0.08 3044
0.90 -0.04 0.32 -3.83 12.12 2.78 0.79 -0.03 3050
0.78 -0.04 0.15 -3.92 12.42 3.01 1.07 0.02 3057
0.63 -0.03 -0.11 -4.24 13.23 3.25 1.37 0.11 3063
0.43 -0.03 0.14 -4.63 13.00 3.47 1.66 0.20 3069
0.34 -0.02 -0.95 -5.11 14.00 3.68 1.79 0.29 3076
0.23 -0.02 0.12 -5.94 15.75 3.90 1.97 0.43 3082
0.16 -0.02 -0.54 -6.23 16.27 4.07 2.15 0.60 3089
0.13 -0.01 -0.06 -8.02 18.36 4.08 2.37 0.80 3095
0.13 -0.01 1.51 -9.66 23.28 4.18 2.54 0.94 3101
0.10 -0.01 3.31 -10.59 25.52 4.28 2.92 1.04 3107
0.11 -0.01 4.10 -10.82 25.38 4.28 3.37 1.08 3113
0.11 -0.01 3.40 -10.32 22.64 4.28 3.64 1.16 3121
0.10 -0.01 4.20 -9.69 22.44 4.28 3.78 1.23 3127
0.11 -0.01 8.03 -9.83 22.40 4.28 4.17 1.30 3133
0.08 -0.01 8.66 -9.39 25.15 4.28 4.28 1.28 3139
0.05 -0.01 7.29 -8.28 25.57 4.28 4.28 1.09 3145
0.05 -0.01 3.43 -5.64 25.69 4.27 4.28 0.83 3151
0.05 -0.01 -0.74 -2.42 24.99 4.25 4.28 0.45 3159
0.05 -0.00 -3.69 0.92 22.75 4.20 4.28 0.05 3165
0.04 -0.00 -6.20 4.76 20.47 4.07 4.28 -0.30 3171
0.04 0.01 -6.68 8.24 18.36 3.73 4.25 -0.66 3177
0.05 -0.01 -11.24 12.82 15.67 3.09 3.10 -0.81 3183
0.03 -0.00 -9.00 11.63 4.73 2.64 1.22 -1.67 3190
0.04 -0.00 -10.83 10.72 13.54 1.57 -1.45 -2.13 3196
0.00 -0.00 -7.02 13.06 11.52 -0.09 -2.72 -2.20 3203
0.05 0.00 -1.71 11.61 13.17 -1.34 -3.25 -2.26 3209
0.04 -0.00 0.70 8.20 14.84 -1.94 -3.52 -2.46 3215
0.03 -0.00 2.12 4.98 14.40 -2.24 -3.47 -2.77 3222
0.04 -0.00 2.83 3.90 12.62 -2.38 -3.08 -3.11 3228
0.04 -0.00 3.29 3.69 10.38 -2.42 -2.49 -3.42 3234
0.03 -0.00 3.44 3.92 8.85 -2.43 -1.92 -3.67 3240
0.04 -0.00 3.24 4.27 7.87 -2.49 -1.58 -3.89 3247
0.05 -0.00 3.10 4.59 7.61 -2.62 -1.27 -4.01 3253
0.03 -0.00 2.90 4.77 7.80 -2.81 -1.09 -4.09 3259
0.02 -0.00 2.99 4.96 8.47 -3.02 -1.05 -4.09 3265
0.03 -0.00 3.11 4.81 9.11 -3.26 -1.15 -4.01 3272
0.03 -0.00 3.14 4.22 9.56 -3.48 -1.30 -3.84 3278
0.02 -0.00 3.14 3.69 10.49 -3.74 -1.37 -3.61 3284
0.04 -0.00 3.17 2.96 11.19 -3.99 -1.46 -3.27 3291
0.05 -0.01 3.64 2.01 11.30 -4.14 -1.60 -2.86 3297
0.05 -0.00 4.80 0.81 10.92 -4.24 -1.83 -2.51 3303
0.04 -0.00 6.05 0.01 11.00 -4.28 -2.15 -2.15 3310
0.05 -0.00 6.80 -0.86 10.96 -4.28 -2.44 -1.84 3316
0.04 -0.00 7.42 -1.83 11.02 -4.28 -2.64 -1.54 3322
0.02 -0.00 8.20 -2.66 11.17 -4.28 -2.73 -1.26 3329
0.04 0.01 9.26 -3.59 10.76 -4.28 -2.73 -1.01 3335
0.04 -0.00 9.92 -4.31 10.58 -4.28 -2.62 -0.79 3341
0.02 -0.00 10.48 -4.90 10.10 -4.28 -2.45 -0.61 3348
0.03 -0.00 11.10 -5.35 9.60 -4.28 -2.20 -0.47 3354
0.05 -0.00 11.79 -5.93 9.47 -4.28 -1.91 -0.34 3360
0.05 -0.00 12.96 -6.33 9.62 -4.27 -1.47 -0.22 3366
0.02 -0.00 12.92 -6.97 9.17 -4.20 -1.00 -0.13 3373
0.05 0.00 12.65 -6.69 11.18 -4.11 -0.51 0.02 3380
0.05 -0.00 12.67 -7.84 11.27 -3.97 0.09 0.18 3386
0.01 -0.00 14.50 -8.56 8.08 -3.84 0.51 0.36 3392
0.02 -0.00 12.98 -8.90 12.38 -3.65 0.75 0.51 3398
0.03 -0.00 11.37 -9.47 12.65 -3.53 1.02 0.71 3404
0.05 -0.00 11.06 -9.84 13.76 -3.37 1.21 0.92 3411
0.04 -0.00 10.64 -9.93 13.87 -3.24 1.34 1.12 3418
0.03 -0.00 10.39 -10.43 13.70 -3.11 1.46 1.29 3424
0.04 -0.00 10.07 -10.92 13.97 -2.97 1.62 1.46 3430
0.02 -0.00 9.82 -11.48 14.24 -2.84 1.77 1.59 3437
0.03 -0.00 9.34 -12.07 14.28 -2.71 1.88 1.70 3443
0.03 -0.00 8.85 -12.47 14.38 -2.59 1.95 1.79 3449
0.03 -0.00 8.50 -12.72 14.22 -2.49 1.98 1.87 3456
0.05 -0.00 8.19 -12.64 13.91 -2.36 1.97 1.92 3462
0.03 -0.00 7.91 -12.51 13.42 -2.23 1.98 1.92 3469
0.03 -0.00 7.70 -12.23 12.97 -2.08 2.04 1.88 3475
0.03 -0.00 7.61 -12.14 13.21 -1.93 2.07 1.80 3481
0.03 -0.00 7.51 -11.82 13.26 -1.79 2.20 1.67 3487
0.03 0.01 7.15 -11.47 13.18 -1.66 2.40 1.53 3494
0.03 -0.00 6.67 -11.12 13.14 -1.55 2.62 1.40 3501
0.02 -0.00 6.07 -10.81 13.44 -1.45 2.83 1.20 3507
0.05 -0.00 5.50 -10.61 13.70 -1.36 3.03 1.07 3513
0.03 -0.00 4.83 -10.65 14.11 -1.28 3.18 0.92 3519
0.02 -0.00 4.21 -10.65 14.58 -1.22 3.32 0.79 3526
0.04 -0.00 3.37 -10.75 14.92 -1.19 3.41 0.68 3532
0.03 -0.00 2.41 -10.88 15.21 -1.19 3.45 0.61 3538
0.04 -0.00 1.36 -10.91 15.48 -1.22 3.39 0.56 3545
0.04 -0.00 0.17 -10.83 15.44 -1.29 3.23 0.54 3552
0.04 -0.00 -0.84 -10.75 15.22 -1.37 2.97 0.53 3558
0.04 0.02 -1.56 -10.70 14.73 -1.46 2.63 0.51 3564
0.03 -0.00 -2.00 -10.59 14.18 -1.56 2.23 0.49 3570
0.03 -0.00 -2.13 -10.60 13.81 -1.67 1.82 0.45 3576
0.05 -0.01 -1.85 -10.71 13.34 -1.72 1.47 0.39 3584
0.04 -0.00 -1.15 -10.99 12.91 -1.79 1.24 0.32 3590
0.04 -0.00 -0.54 -11.41 12.34 -1.82 1.15 0.24 3596
0.04 -0.00 -0.30 -11.74 11.63 -1.81 1.18 0.17 3602
0.03 -0.00 -1.19 -11.89 10.73 -1.75 1.37 0.12 3609
0.03 -0.00 -1.22 -12.06 9.95 -1.63 1.60 0.12 3615
0.04 -0.00 -2.10 -12.43 9.58 -1.46 1.85 0.15 3621
0.04 -0.00 -3.20 -12.82 9.42 -1.25 1.98 0.20 3628
0.03 -0.00 -4.45 -13.23 9.19 -1.02 1.96 0.28 3634
0.05 -0.00 -5.53 -13.57 8.85 -0.79 1.80 0.38 3640
0.03 -0.00 -6.38 -13.77 8.48 -0.56 1.48 0.51 3646
0.03 -0.00 -6.90 -14.06 8.08 -0.36 1.03 0.66 3653
0.05 -0.00 -6.87 -14.23 7.65 -0.16 0.50 0.80 3659
0.04 -0.00 -6.37 -14.52 7.11 -0.02 -0.03 0.92 3665
0.03 -0.00 -5.65 -14.88 6.92 0.16 -0.46 1.00 3672
0.04 0.01 -4.85 -15.33 6.99 0.35 -0.70 1.06 3678
0.04 -0.00 -4.12 -15.57 7.05 0.55 -0.85 1.10 3684
0.03 -0.00 -9.30 -19.04 14.59 0.91 -1.27 1.19 3691
0.03 -0.00 -5.07 -13.41 10.41 2.42 -2.98 1.56 3697
0.02 -0.00 2.81 0.57 10.61 2.38 -2.96 1.41 3703
0.02 -0.00 3.22 4.07 6.92 2.33 -2.64 1.35 3709
0.03 -0.00 7.04 4.32 8.87 2.15 -2.61 1.41 3716
0.05 -0.00 3.41 6.03 10.13 1.84 -2.81 1.46 3722
0.03 -0.00 -1.65 5.27 9.46 1.49 -3.10 1.41 3729
0.01 0.01 -3.66 2.17 7.22 1.31 -3.43 1.21 3735
0.05 0.02 -3.21 1.98 10.01 1.40 -3.59 0.95 3741
0.03 0.12 -2.00 0.40 12.17 1.73 -3.17 0.77 3747
0.03 0.26 -2.14 1.63 11.98 2.16 -2.39 0.69 3753
0.04 0.47 -5.92 1.16 14.42 2.58 -1.71 0.52 3761
0.01 0.56 -6.12 0.64 15.84 2.74 -1.38 0.21 3767
0.01 0.67 -4.74 -0.68 17.06 2.78 -1.19 -0.22 3773
0.00 0.79 -1.61 -0.89 16.73 2.72 -0.99 -0.61 3779
-0.01 0.82 1.82 -1.79 17.24 2.65 -0.88 -0.82 3785
0.01 0.82 6.82 -3.29 25.88 2.35 -1.58 -0.80 3792
0.01 0.81 6.45 -3.93 16.11 1.24 -1.98 -0.25 3799
-0.00 0.85 2.24 -3.37 16.85 0.99 -1.47 0.18 3805
0.02 0.83 0.88 -2.28 12.71 0.57 -0.95 0.20 3811
0.00 0.91 0.27 -0.92 11.30 0.42 -0.84 0.19 3818
-0.01 0.94 0.49 -0.36 10.15 0.31 -0.77 0.07 3824
-0.01 0.94 0.90 -0.58 10.60 0.23 -0.64 0.01 3830
-0.02 0.90 1.17 -1.01 10.23 0.14 -0.50 0.02 3836
0.01 0.94 1.14 -1.04 10.04 0.13 -0.39 0.05 3843
0.02 0.90 0.98 -0.93 10.23 0.11 -0.33 0.06 3850
0.00 0.91 0.96 -0.71 10.18 0.08 -0.28 0.05 3856
-0.01 0.94 0.93 -0.73 10.14 0.06 -0.22 0.04 3862
0.01 0.91 1.08 -0.82 10.03 0.05 -0.19 0.03 3868
-0.00 0.88 1.10 -0.88 10.07 0.04 -0.16 0.04 3874
0.02 0.85 1.08 -0.82 10.04 0.04 -0.15 0.04 3881
0.01 0.83 1.00 -0.75 10.04 0.04 -0.14 0.05 3888
0.00 0.79 0.94 -0.76 10.06 0.03 -0.13 0.04 3894
0.02 0.77 1.00 -0.77 9.98 0.02 -0.10 0.04 3900
0.01 0.74 0.98 -0.74 10.04 0.02 -0.09 0.05 3906
-0.00 0.72 0.98 -0.72 9.96 0.02 -0.08 0.05 3912
0.01 0.68 1.03 -0.78 9.96 0.02 -0.07 0.05 3919
0.01 0.66 0.98 -0.69 9.98 0.02 -0.07 0.04 3926
0.02 0.62 1.07 -0.70 9.95 0.02 -0.06 0.05 3932
0.03 0.61 1.03 -0.74 9.95 0.03 -0.06 0.04 3938
0.03 0.57 1.10 -0.75 9.99 0.03 -0.06 0.04 3944
0.03 0.52 1.01 -0.74 9.94 0.02 -0.05 0.04 3950
0.01 0.46 0.99 -0.77 10.02 0.03 -0.05 0.04 3956
0.03 0.43 1.00 -0.80 9.95 0.02 -0.05 0.04 3963
0.04 0.40 0.97 -0.77 9.98 0.02 -0.05 0.04 3970
0.04 0.37 1.00 -0.76 9.96 0.02 -0.05 0.05 3976
0.05 0.33 0.99 -0.74 9.92 0.02 -0.05 0.04 3982
0.08 0.32 1.03 -0.71 9.87 0.03 -0.05 0.04 3988
0.07 0.31 1.04 -0.73 9.93 0.03 -0.06 0.04 3994
0.07 0.27 0.96 -0.76 10.01 0.03 -0.07 0.04 4000
0.10 0.24 0.95 -0.80 10.06 0.03 -0.07 0.04 4007
0.10 0.16 0.97 -0.75 9.92 0.03 -0.08 0.04 4014
0.10 0.14 0.97 -0.77 9.99 0.03 -0.09 0.04 4020
0.12 0.09 0.99 -0.75 9.97 0.03 -0.11 0.04 4026
0.12 0.09 0.95 -0.67 9.97 0.03 -0.12 0.04 4032
0.11 0.07 0.98 -0.83 10.01 0.03 -0.14 0.03 4038
0.12 0.05 0.98 -0.87 10.04 0.02 -0.16 0.02 4045
0.14 0.02 1.02 -0.78 10.05 0.01 -0.18 0.02 4051
0.15 0.01 0.96 -0.79 9.92 0.01 -0.19 0.02 4058
0.15 -0.00 0.91 -0.80 9.90 0.01 -0.20 0.02 4064
0.17 0.01 0.98 -0.81 9.99 0.00 -0.18 0.01 4070
0.18 -0.00 1.07 -0.79 9.99 0.00 -0.15 0.01 4076
0.22 -0.02 0.89 -0.76 9.99 0.01 -0.13 0.01 4082
0.23 -0.01 0.86 -0.85 9.99 0.01 -0.11 0.02 4088
0.29 -0.01 0.81 -0.84 10.00 0.02 -0.09 0.01 4096
0.27 -0.03 0.86 -0.87 10.01 0.03 -0.08 0.02 4102
0.30 -0.02 0.85 -0.68 10.05 0.04 -0.07 0.02 4108
0.30 -0.02 0.75 -0.84 9.94 0.05 -0.06 0.03 4114
0.31 -0.03 0.85 -0.89 10.18 0.05 -0.05 0.03 4120
0.36 -0.01 0.89 -0.96 10.02 0.06 -0.05 0.03 4126
0.32 -0.03 0.84 -0.91 9.95 0.08 -0.04 0.03 4133
0.40 0.00 0.71 -0.89 9.98 0.09 -0.04 0.03 4140
0.42 -0.02 0.94 -0.93 10.06 0.10 -0.04 0.03 4146
0.44 -0.04 0.98 -0.87 10.06 0.12 -0.03 0.03 4152
0.44 -0.04 0.90 -0.99 10.10 0.14 -0.04 0.03 4158
0.48 -0.05 0.87 -1.06 9.97 0.16 -0.04 0.02 4164
0.27 -0.03 0.94 -0.90 10.04 0.19 -0.05 0.02 4170
0.48 0.00 0.79 -0.98 10.09 0.22 -0.05 0.01 4177
0.51 -0.00 0.91 -1.02 10.03 0.24 -0.05 0.01 4184
0.50 -0.03 0.91 -1.04 10.04 0.26 -0.05 0.00 4190
0.59 -0.02 0.99 -1.08 10.04 0.27 -0.04 -0.00 4196
0.60 -0.05 0.88 -1.07 10.04 0.30 -0.03 -0.01 4202
0.63 -0.05 1.04 -1.17 9.99 0.31 -0.04 -0.01 4208
0.64 -0.02 1.07 -1.20 9.93 0.32 -0.03 -0.03 4215
0.62 -0.01 0.99 -1.13 10.04 0.33 -0.04 -0.03 4221
0.62 -0.03 1.03 -1.27 10.02 0.33 -0.04 -0.03 4228
0.61 -0.04 0.96 -1.19 9.86 0.32 -0.04 -0.03 4234
0.58 -0.03 1.03 -1.34 9.90 0.31 -0.04 -0.03 4240
0.64 -0.05 0.87 -1.29 9.85 0.29 -0.05 -0.03 4246
0.68 -0.04 0.89 -1.30 10.01 0.27 -0.05 -0.03 4253
0.69 -0.06 1.00 -1.34 10.15 0.27 -0.04 -0.04 4259
0.69 -0.06 0.99 -1.35 10.35 0.29 -0.04 -0.05 4265
0.71 -0.07 1.04 -1.39 10.20 0.34 -0.03 -0.06 4272
0.76 -0.04 1.02 -1.41 10.27 0.38 -0.03 -0.07 4278
0.79 -0.05 1.01 -1.45 10.35 0.44 -0.03 -0.08 4285
0.78 -0.04 0.91 -1.51 10.16 0.49 -0.03 -0.08 4291
0.79 -0.01 0.93 -1.54 10.21 0.53 -0.03 -0.08 4297
0.80 -0.06 0.91 -1.55 10.60 0.58 -0.03 -0.07 4303
0.83 -0.05 0.92 -1.56 10.64 0.65 -0.04 -0.07 4311
0.88 -0.05 0.98 -1.67 10.76 0.73 -0.05 -0.07 4317
0.90 -0.05 0.96 -1.71 10.67 0.80 -0.05 -0.08 4323
0.96 -0.04 0.95 -1.76 10.72 0.88 -0.05 -0.08 4329
0.97 -0.05 0.91 -1.84 10.59 0.97 -0.06 -0.08 4335
0.96 -0.04 0.92 -1.88 10.73 1.04 -0.08 -0.08 4342
1.00 -0.04 0.92 -2.02 10.94 1.13 -0.08 -0.08 4348
1.01 -0.05 0.93 -2.05 10.94 1.22 -0.09 -0.08 4355
1.04 -0.05 0.97 -2.18 10.98 1.33 -0.09 -0.08 4361
1.07 -0.05 0.97 -2.28 11.14 1.43 -0.09 -0.08 4367
1.09 -0.06 0.91 -2.32 11.04 1.51 -0.08 -0.08 4374
1.09 -0.04 0.99 -2.48 11.06 1.62 -0.08 -0.09 4380
1.10 -0.05 1.01 -2.54 11.19 1.73 -0.08 -0.10 4386
1.11 -0.04 1.10 -2.62 11.73 1.86 -0.04 -0.11 4392
1.10 -0.03 0.93 -2.73 11.43 1.99 0.00 -0.12 4400
1.11 -0.05 0.88 -2.81 11.48 2.13 0.04 -0.12 4406
1.09 -0.06 0.98 -2.94 11.28 2.28 0.09 -0.12 4412
1.10 -0.05 0.99 -3.17 11.40 2.44 0.15 -0.13 4418
1.06 -0.06 0.78 -3.41 11.87 2.64 0.26 -0.13 4424
1.02 -0.04 0.58 -3.48 11.99 2.86 0.40 -0.11 4431
0.95 -0.04 0.09 -3.57 12.27 3.11 0.59 -0.07 4438
0.85 -0.06 0.69 -4.01 12.61 3.40 0.83 -0.02 4444
0.71 -0.03 0.24 -3.74 11.91 3.65 1.07 0.01 4450
0.55 -0.04 0.35 -4.53 12.49 3.90 1.30 0.08 4456
0.47 -0.04 -0.22 -5.31 14.43 4.10 1.55 0.19 4463
0.30 -0.01 -0.67 -5.77 15.34 4.22 1.70 0.34 4469
0.21 -0.02 -0.35 -6.61 16.43 4.27 1.79 0.50 4475
0.18 -0.01 0.08 -8.35 17.67 4.28 2.02 0.69 4482
0.17 -0.01 0.16 -9.72 20.19 4.27 2.39 0.92 4488
0.13 -0.01 1.55 -11.15 25.26 4.28 2.62 1.06 4495
0.08 -0.01 3.05 -11.22 27.24 4.28 2.99 1.13 4501
0.11 -0.01 2.49 -11.08 24.91 4.28 3.18 1.13 4507
0.11 -0.01 2.04 -10.40 22.89 4.28 3.25 1.19 4513
0.08 -0.01 3.97 -8.39 21.83 4.28 3.30 1.23 4520
0.08 -0.01 6.14 -9.30 23.31 4.28 3.63 1.32 4527
0.07 -0.01 6.51 -9.11 23.40 4.28 4.22 1.25 4533
0.05 -0.00 4.03 -6.98 25.05 4.28 4.28 1.02 4539
0.08 -0.01 0.68 -3.35 24.20 4.28 4.28 0.73 4545
0.05 -0.00 -1.98 0.06 23.87 4.24 4.28 0.41 4551
0.05 0.01 -4.08 4.05 20.94 4.12 4.22 0.11 4558
0.06 0.00 -4.35 8.19 18.63 3.78 3.68 -0.18 4564
0.04 -0.00 -7.36 10.80 16.34 3.35 2.97 -0.55 4571
0.03 -0.00 -8.27 12.70 5.26 2.89 1.86 -1.52 4577
0.05 -0.01 -8.41 11.77 14.08 2.15 -0.01 -2.26 4583
0.03 -0.00 -7.84 13.87 12.82 0.50 -1.40 -2.59 4590
0.02 -0.00 -3.80 13.98 13.56 -1.14 -1.80 -2.75 4596
0.05 -0.00 0.19 9.40 15.02 -2.12 -2.05 -2.95 4602
0.05 -0.00 1.03 6.01 13.51 -2.61 -2.14 -3.18 4609
0.04 -0.00 1.00 4.31 13.67 -2.89 -1.93 -3.46 4615
0.06 -0.01 1.79 3.87 10.88 -3.04 -1.54 -3.71 4621
0.03 -0.00 2.04 3.77 8.73 -3.08 -1.15 -3.92 4628
0.02 -0.00 1.91 3.69 7.43 -3.12 -0.88 -4.08 4634
0.04 0.01 1.71 3.73 6.95 -3.18 -0.71 -4.19 4640
0.04 -0.00 1.66 3.88 7.24 -3.26 -0.67 -4.23 4646
0.04 -0.00 1.96 3.92 7.52 -3.38 -0.75 -4.21 4653
0.03 -0.00 2.18 3.74 8.00 -3.52 -0.95 -4.14 4659
0.03 -0.00 2.46 3.35 9.00 -3.69 -1.14 -4.00 4665
0.04 -0.00 3.10 3.16 10.14 -3.88 -1.31 -3.77 4671
0.03 -0.00 2.99 2.76 11.37 -4.07 -1.43 -3.42 4678
0.02 0.00 3.29 1.51 11.70 -4.19 -1.44 -2.93 4684
0.03 -0.00 5.42 0.46 10.64 -4.26 -1.55 -2.42 4690
0.05 -0.01 6.41 0.05 10.73 -4.28 -1.80 -2.03 4697
0.05 -0.00 6.34 -0.76 10.98 -4.28 -2.02 -1.70 4703
0.05 -0.00 6.48 -2.14 11.08 -4.28 -2.11 -1.37 4710
0.04 -0.00 7.20 -3.21 11.16 -4.28 -2.18 -1.04 4716
0.03 0.00 7.75 -4.13 10.95 -4.28 -2.23 -0.76 4722
0.03 -0.00 8.27 -4.82 10.65 -4.28 -2.24 -0.51 4728
0.03 -0.00 8.90 -5.26 10.01 -4.28 -2.19 -0.27 4734
0.04 0.01 9.76 -5.65 9.56 -4.28 -2.08 -0.07 4741
0.05 -0.01 10.83 -6.09 9.20 -4.28 -1.85 0.08 4748
0.05 -0.01 12.07 -6.77 9.32 -4.27 -1.45 0.21 4754
0.05 -0.00 12.83 -7.46 9.46 -4.21 -0.95 0.31 4760
0.04 -0.00 13.06 -8.08 9.89 -4.07 -0.37 0.38 4766
0.04 -0.00 12.32 -8.58 10.21 -3.86 0.22 0.46 4772
0.03 -0.00 12.45 -9.09 10.81 -3.66 0.65 0.56 4780
0.04 -0.00 11.62 -9.79 11.32 -3.48 1.03 0.70 4786
0.04 -0.00 10.77 -10.43 11.70 -3.32 1.26 0.86 4792
0.05 -0.00 10.12 -11.11 12.18 -3.15 1.34 1.05 4798
0.04 -0.00 10.06 -11.75 12.26 -2.98 1.33 1.24 4805
0.03 -0.00 9.84 -11.78 12.39 -2.81 1.31 1.42 4811
0.04 -0.00 10.04 -11.60 12.64 -2.65 1.34 1.60 4817
0.03 -0.00 10.26 -11.27 12.73 -2.51 1.43 1.77 4824
0.04 -0.00 10.35 -10.45 13.04 -2.40 1.57 1.88 4831
0.04 -0.00 10.15 -11.02 13.26 -2.32 1.76 1.98 4837
0.04 -0.00 9.81 -10.44 13.31 -2.24 1.94 2.04 4843
0.04 -0.00 9.31 -11.12 13.38 -2.17 2.09 2.06 4849
0.03 -0.00 8.56 -11.05 13.20 -2.11 2.21 2.04 4855
0.04 -0.00 7.82 -11.05 12.48 -2.01 2.28 1.96 4862
0.03 -0.00 7.05 -11.04 12.70 -1.91 2.34 1.85 4869
0.04 -0.00 6.41 -10.91 12.74 -1.79 2.39 1.69 4875
0.04 -0.00 5.76 -10.67 13.18 -1.66 2.43 1.50 4881
0.02 -0.00 5.32 -10.32 14.04 -1.55 2.50 1.31 4888
0.03 -0.00 4.95 -10.10 15.05 -1.49 2.62 1.13 4894
0.04 -0.00 4.33 -10.03 15.66 -1.51 2.77 0.97 4900
0.03 -0.00 3.52 -10.01 16.16 -1.59 2.94 0.84 4907
0.02 -0.00 2.59 -9.96 16.42 -1.68 3.05 0.74 4913
0.05 -0.00 1.67 -10.02 16.39 -1.80 3.09 0.66 4920
0.03 -0.00 0.76 -9.98 16.09 -1.92 3.02 0.61 4926
0.02 -0.00 0.19 -10.00 15.76 -2.00 2.91 0.57 4932
0.04 -0.00 -0.20 -10.04 15.36 -2.05 2.71 0.54 4938
0.03 -0.00 -0.35 -10.13 15.13 -2.07 2.49 0.47 4944
0.03 -0.00 -0.16 -10.30 14.94 -2.07 2.29 0.46 4951
0.05 -0.00 0.13 -10.71 14.52 -2.05 2.15 0.42 4958
0.03 -0.00 0.43 -11.29 13.83 -2.01 2.06 0.38 4964
0.04 -0.00 0.55 -11.75 13.30 -1.97 2.02 0.34 4970
0.05 -0.00 0.55 -12.25 13.02 -1.92 2.02 0.29 4976
0.03 -0.00 0.39 -12.75 12.53 -1.86 2.04 0.24 4982
0.03 -0.00 0.03 -13.20 12.02 -1.79 2.07 0.20 4989
0.05 -0.00 -0.65 -13.51 11.40 -1.68 2.11 0.18 4996
0.04 -0.00 -1.48 -13.68 10.56 -1.61 2.14 0.18 5002
0.04 0.00 -2.46 -13.94 9.63 -1.47 2.18 0.21 5008
0.05 -0.00 -3.42 -14.21 8.92 -1.29 2.22 0.27 5014
0.04 -0.00 -4.86 -14.56 8.41 -1.06 2.23 0.35 5021
0.05 -0.00 -5.25 -14.96 8.03 -0.82 2.18 0.43 5027
0.05 -0.01 -6.27 -15.62 7.69 -0.56 2.01 0.49 5033
0.04 -0.00 -7.13 -16.26 7.32 -0.33 1.75 0.54 5040
0.03 -0.00 -7.65 -16.86 6.99 -0.10 1.39 0.57 5046
0.05 -0.00 -8.10 -17.41 6.63 0.11 0.95 0.56 5052
0.04 -0.00 -22.40 -27.20 11.01 0.71 -0.46 0.67 5059
0.03 -0.00 -15.81 -22.03 8.96 2.17 -2.58 1.20 5065
0.03 -0.00 -9.06 -14.60 6.46 2.35 -4.12 1.19 5071
0.03 -0.00 -1.10 -2.47 0.49 2.34 -4.28 0.94 5078
0.03 -0.00 5.30 0.56 6.43 2.35 -4.28 0.78 5084
0.01 0.01 6.07 4.15 11.16 2.21 -4.28 0.83 5090
0.01 0.00 4.22 5.19 14.49 1.89 -4.28 1.12 5097
0.01 0.00 2.54 5.28 17.87 1.88 -4.28 1.47 5103
0.03 0.11 1.25 2.45 15.79 2.11 -3.18 1.67 5109
0.03 0.26 -2.42 0.53 11.91 2.34 -1.80 1.78 5115
0.03 0.44 -11.11 0.83 16.01 2.66 -1.18 1.54 5123
0.03 0.59 -15.21 -0.82 18.24 2.88 -1.23 0.87 5129
-0.01 0.72 -12.13 -1.08 17.51 2.96 -1.38 -0.01 5135
0.01 0.76 -6.49 -0.78 19.06 2.87 -1.25 -0.79 5141
0.01 0.77 -0.74 -1.40 18.43 2.60 -1.09 -1.27 5148
0.01 0.81 7.17 -2.11 20.25 2.28 -1.05 -1.31 5154
0.00 0.80 9.07 -3.25 23.90 1.28 -2.05 -0.75 5160
-0.01 0.83 5.41 -3.08 9.88 0.94 -1.49 0.04 5167
0.02 0.85 2.49 -2.59 12.52 0.71 -1.12 0.25 5173
0.00 0.82 0.98 -1.07 10.87 0.53 -0.98 0.30 5180
-0.02 0.90 -0.07 -0.03 11.22 0.44 -1.09 0.17 5186
0.01 0.90 0.43 -0.47 11.30 0.32 -0.94 0.05 5192
-0.00 0.89 1.09 -0.55 10.56 0.23 -0.71 0.03 5198
-0.02 0.88 1.20 -0.93 10.21 0.18 -0.61 0.04 5204
0.02 0.91 0.90 -0.97 10.42 0.15 -0.51 0.06 5212
0.01 0.89 0.77 -0.83 10.33 0.11 -0.43 0.06 5218
0.01 0.89 0.69 -0.74 10.13 0.07 -0.35 0.03 5224
0.02 0.90 0.86 -0.83 10.18 0.05 -0.31 0.02 5230
0.00 0.90 0.82 -0.78 10.19 0.04 -0.28 0.03 5236
-0.01 0.88 0.88 -0.90 10.10 0.03 -0.24 0.04 5243
0.01 0.88 0.81 -0.74 9.96 0.02 -0.20 0.04 5250
0.01 0.87 0.75 -0.76 10.10 0.01 -0.17 0.04 5256
0.01 0.86 0.83 -0.72 10.02 0.01 -0.15 0.04 5262
0.02 0.83 0.78 -0.70 10.06 0.01 -0.15 0.05 5268
0.02 0.79 0.78 -0.71 10.00 0.01 -0.15 0.05 5275
0.01 0.73 0.81 -0.75 10.05 0.01 -0.15 0.04 5281
0.02 0.70 0.91 -0.71 9.97 0.01 -0.16 0.04 5287
0.03 0.67 0.86 -0.77 10.03 0.01 -0.17 0.03 5294
0.04 0.63 0.85 -0.71 9.98 0.01 -0.19 0.02 5300
0.07 0.58 0.87 -0.74 9.96 0.00 -0.20 0.02 5306
0.06 0.52 0.86 -0.77 10.00 -0.01 -0.20 0.01 5313
0.06 0.41 0.85 -0.80 10.00 -0.02 -0.20 0.01 5319
0.08 0.47 1.00 -0.68 10.00 -0.02 -0.18 0.01 5325
0.09 0.41 0.72 -0.78 10.03 -0.01 -0.15 0.01 5331
0.09 0.42 0.66 -0.79 10.09 -0.00 -0.12 0.02 5338
0.12 0.36 0.72 -0.76 10.07 0.00 -0.10 0.02 5344
0.12 0.28 0.77 -0.80 10.07 0.01 -0.09 0.03 5351
0.13 0.27 0.71 -0.77 10.05 0.02 -0.08 0.03 5357
0.14 0.29 0.75 -0.90 10.07 0.02 -0.08 0.03 5363
0.18 0.20 0.74 -0.80 9.92 0.02 -0.07 0.03 5369
0.19 0.19 0.74 -0.23 9.97 0.02 -0.07 0.03 5376
0.24 0.14 0.73 -0.81 10.04 0.02 -0.07 0.03 5382
0.27 0.10 0.71 -0.83 10.00 0.02 -0.07 0.03 5389
0.26 0.10 0.78 -0.83 10.01 0.02 -0.07 0.03 5395
0.27 0.10 0.76 -0.83 10.05 0.02 -0.07 0.02 5401
0.32 0.08 0.80 -0.82 10.02 0.02 -0.06 0.02 5407
0.34 0.05 0.83 -0.87 10.09 0.02 -0.07 0.02 5413
0.37 0.03 0.72 -0.80 10.00 0.02 -0.07 0.02 5421
0.43 0.02 0.67 -0.67 10.00 0.02 -0.07 0.02 5427
0.42 -0.00 0.71 -0.80 10.03 0.02 -0.07 0.02 5433
0.45 -0.00 0.67 -0.99 10.12 0.02 -0.07 0.02 5439
0.47 -0.01 0.76 -0.82 10.07 0.03 -0.07 0.02 5445
0.50 0.00 0.70 -0.92 10.04 0.04 -0.08 0.01 5451
0.53 -0.00 0.86 -1.03 10.08 0.04 -0.08 0.02 5458
0.55 -0.01 0.77 -0.86 10.02 0.04 -0.08 0.02 5465
0.55 -0.03 0.71 -0.84 10.01 0.05 -0.08 0.02 5471
0.58 -0.02 0.74 -0.85 10.11 0.06 -0.08 0.02 5477
0.57 -0.06 0.63 -0.84 10.04 0.06 -0.08 0.01 5483
0.57 -0.05 0.71 -0.93 10.04 0.06 -0.08 0.01 5490
0.57 -0.02 0.84 -0.93 9.98 0.07 -0.08 0.01 5496
0.59 -0.02 0.71 -0.82 10.09 0.07 -0.08 0.01 5502
0.61 -0.05 0.03 -0.84 9.86 0.08 -0.09 0.01 5509
0.64 -0.02 0.81 -0.98 10.03 0.07 -0.09 0.01 5515
0.67 -0.06 0.64 -0.93 9.98 0.08 -0.09 0.00 5521
0.68 -0.03 0.64 -1.05 10.02 0.08 -0.08 0.01 5527
0.71 -0.07 0.79 -1.08 9.98 0.09 -0.08 0.01 5534
0.67 -0.07 0.82 -0.95 10.10 0.08 -0.08 0.02 5540
0.74 -0.04 0.70 -0.99 9.92 0.08 -0.08 0.01 5547
0.80 -0.01 0.59 -0.90 9.93 0.08 -0.08 0.02 5553
0.74 -0.02 0.66 -1.01 10.04 0.09 -0.06 0.02 5559
0.79 -0.02 0.66 -1.00 9.96 0.10 -0.06 0.02 5565
0.81 -0.05 0.63 -0.98 10.03 0.11 -0.05 0.02 5572
0.83 -0.06 0.63 -1.02 9.97 0.11 -0.04 0.03 5578
0.87 -0.04 0.65 -0.99 9.97 0.11 -0.02 0.03 5584
0.87 -0.01 0.74 -1.06 9.93 0.11 -0.01 0.03 5591
0.90 -0.04 0.65 -0.99 9.94 0.10 -0.00 0.03 5597
0.87 -0.04 0.69 -1.07 10.00 0.09 0.02 0.03 5603
0.86 -0.05 0.74 -1.07 10.04 0.09 0.02 0.03 5609
0.82 -0.05 0.82 -1.08 10.08 0.10 0.02 0.03 5616
0.89 -0.05 0.76 -1.08 9.99 0.11 0.02 0.02 5622
0.93 -0.04 0.77 -1.10 10.15 0.13 0.02 0.02 5628
0.93 -0.06 0.79 -1.09 10.13 0.16 0.03 0.01 5635
0.92 -0.05 0.73 -1.11 10.27 0.20 0.03 0.01 5641
0.93 -0.06 0.79 -1.19 10.27 0.26 0.03 0.01 5648
0.95 -0.04 0.82 -1.19 10.27 0.30 0.03 0.00 5654
0.98 -0.04 0.82 -1.19 10.36 0.37 0.03 -0.00 5660
1.03 -0.04 0.80 -1.32 10.34 0.43 0.02 -0.01 5666
1.05 -0.06 0.89 -1.26 10.26 0.49 0.02 -0.02 5672
1.07 -0.05 0.82 -1.30 10.35 0.54 0.01 -0.02 5680
1.13 -0.06 0.76 -1.33 10.38 0.58 -0.00 -0.03 5686
1.14 -0.06 0.83 -1.42 10.45 0.62 -0.01 -0.03 5692
1.17 -0.05 0.88 -1.43 10.40 0.70 -0.01 -0.03 5698
1.20 -0.06 0.90 -1.51 10.47 0.71 -0.02 -0.04 5704
1.22 -0.05 0.86 -1.59 10.52 0.76 -0.02 -0.05 5711
1.23 -0.04 0.85 -1.60 10.66 0.82 -0.00 -0.06 5718
1.24 -0.05 0.89 -1.63 10.59 0.88 0.02 -0.06 5724
1.25 -0.06 0.85 -1.72 11.10 0.95 0.02 -0.07 5730
1.29 -0.06 0.85 -1.78 11.23 1.04 -0.03 -0.07 5736
1.30 -0.05 0.86 -1.88 11.38 1.15 -0.07 -0.08 5743
1.34 -0.06 0.83 -1.97 11.10 1.26 -0.10 -0.08 5749
1.37 -0.05 0.78 -2.08 10.94 1.34 -0.11 -0.09 5755
1.39 -0.07 0.81 -2.14 11.17 1.42 -0.12 -0.09 5762
1.39 -0.05 0.79 -2.23 11.40 1.52 -0.13 -0.09 5769
1.40 -0.06 0.82 -2.35 11.15 1.61 -0.15 -0.09 5775
1.37 -0.05 0.81 -2.39 11.11 1.71 -0.14 -0.10 5781
1.40 -0.06 0.80 -2.53 10.92 1.81 -0.13 -0.12 5787
1.40 -0.06 0.71 -2.75 11.36 1.92 -0.09 -0.13 5794
1.40 -0.06 0.86 -2.72 11.24 2.03 -0.07 -0.13 5800
1.37 -0.06 0.73 -2.89 10.89 2.15 -0.03 -0.13 5807
1.36 -0.07 0.53 -3.13 11.15 2.27 0.06 -0.13 5813
1.31 -0.04 0.80 -3.21 10.86 2.42 0.20 -0.13 5819
1.23 -0.06 0.54 -3.21 11.09 2.59 0.36 -0.13 5826
1.15 -0.06 0.52 -3.48 11.29 2.77 0.53 -0.11 5832
1.07 -0.05 0.13 -3.64 11.64 3.01 0.78 -0.08 5838
0.99 -0.06 -0.51 -3.66 12.13 3.19 0.98 -0.01 5844
0.77 -0.05 -0.45 -4.29 13.13 3.41 1.24 0.08 5852
0.59 -0.04 -0.55 -4.65 13.80 3.63 1.51 0.18 5858
0.42 -0.04 -0.05 -5.26 13.91 3.87 1.82 0.27 5864
0.30 -0.02 -0.55 -6.22 13.86 4.04 2.08 0.42 5870
0.23 -0.01 -1.30 -6.75 15.35 4.12 2.40 0.63 5876
0.17 -0.02 0.01 -9.20 18.69 4.07 2.84 0.87 5883
0.13 -0.00 1.16 -10.31 23.17 4.17 3.18 1.04 5890
0.11 -0.01 3.29 -10.99 25.17 4.28 3.76 1.20 5896
0.10 -0.01 4.14 -10.32 23.63 4.28 4.26 1.24 5902
0.10 -0.01 4.36 -10.21 21.74 4.28 4.28 1.32 5909
0.06 -0.01 4.94 -9.58 23.88 4.28 4.28 1.42 5915
0.07 -0.01 8.40 -11.19 27.44 4.28 4.28 1.51 5921
0.08 -0.01 8.06 -11.10 27.42 4.28 4.28 1.52 5927
0.06 -0.01 4.44 -9.24 28.35 4.28 4.28 1.21 5934
0.06 -0.01 -0.85 -5.11 28.27 4.26 4.28 0.75 5940
0.05 -0.01 -6.34 -1.13 24.90 4.21 4.28 0.26 5947
0.05 -0.01 -9.17 2.51 20.54 4.12 4.28 -0.19 5953
0.05 0.00 -9.15 6.24 16.48 3.93 4.26 -0.55 5959
0.06 -0.01 -9.07 8.31 14.38 3.58 2.89 -0.80 5965
0.05 -0.00 -12.61 12.09 11.06 3.15 1.50 -1.35 5971
0.05 -0.00 -7.03 8.59 11.38 2.65 -0.94 -2.05 5979
0.05 -0.01 -6.56 8.99 14.36 1.47 -3.02 -2.19 5985
0.04 -0.00 -2.32 10.31 13.41 0.01 -3.73 -2.14 5991
0.02 -0.00 1.59 9.50 13.94 -1.07 -3.97 -2.17 5997
0.06 -0.01 3.02 6.39 14.64 -1.64 -3.94 -2.40 6003
0.05 -0.00 3.85 3.74 13.63 -1.96 -3.66 -2.78 6009
0.04 -0.00 4.26 2.65 11.70 -2.14 -3.22 -3.21 6017
0.05 -0.01 4.53 2.53 10.43 -2.21 -2.66 -3.60 6023
0.04 -0.00 4.14 2.60 8.28 -2.26 -2.14 -3.93 6029
0.03 -0.00 3.86 2.84 7.46 -2.35 -1.72 -4.17 6035
0.04 0.00 3.67 3.14 7.36 -2.48 -1.53 -4.28 6041
0.04 -0.00 3.40 3.33 7.74 -2.64 -1.42 -4.28 6047
0.04 -0.00 3.56 3.52 8.37 -2.82 -1.45 -4.28 6054
0.03 -0.00 4.01 3.47 9.03 -3.01 -1.57 -4.28 6061
0.05 -0.00 3.89 2.77 9.33 -3.23 -1.71 -4.19 6067
0.03 -0.00 3.46 1.81 8.59 -3.44 -1.78 -3.88 6073
0.04 -0.00 4.80 1.69 8.35 -3.63 -1.78 -3.50 6079
0.04 0.00 5.95 1.90 10.80 -3.85 -1.87 -3.22 6085
0.04 -0.00 6.44 0.63 11.02 -4.07 -2.14 -2.96 6091
0.04 -0.00 7.02 -0.21 10.64 -4.20 -2.34 -2.69 6097
0.04 -0.00 7.91 -1.27 10.27 -4.27 -2.46 -2.33 6105
0.05 -0.00 8.66 -1.80 10.19 -4.28 -2.55 -1.99 6111
0.04 -0.00 9.12 -2.38 10.29 -4.28 -2.59 -1.68 6117
0.02 -0.00 9.52 -3.00 9.87 -4.28 -2.56 -1.40 6123
0.04 -0.00 9.81 -3.62 9.49 -4.28 -2.48 -1.15 6129
0.03 -0.00 10.22 -4.14 8.98 -4.28 -2.34 -0.93 6135
0.03 -0.00 10.67 -4.55 8.62 -4.28 -2.14 -0.73 6142
0.05 -0.01 11.13 -5.04 8.42 -4.28 -1.91 -0.55 6149
0.04 -0.00 11.74 -5.40 8.56 -4.24 -1.56 -0.38 6155
0.03 -0.00 12.33 -5.79 8.98 -4.16 -1.10 -0.22 6161
0.03 0.00 13.00 -6.23 9.53 -4.06 -0.58 -0.09 6167
0.03 -0.00 13.02 -6.48 9.88 -3.93 -0.03 0.08 6174
0.02 -0.00 12.55 -6.76 10.54 -3.82 0.50 0.26 6180
0.04 -0.00 12.12 -7.26 11.16 -3.71 0.95 0.46 6187
0.04 -0.00 11.33 -8.03 11.52 -3.61 1.28 0.66 6193
0.03 -0.00 10.58 -8.76 11.80 -3.48 1.51 0.87 6199
0.05 -0.01 9.93 -9.65 11.87 -3.33 1.65 1.07 6206
0.04 -0.00 9.50 -10.41 11.85 -3.15 1.73 1.25 6212
0.03 -0.00 9.00 -10.88 11.68 -2.99 1.75 1.42 6218
0.05 -0.00 8.66 -11.13 11.75 -2.76 1.75 1.56 6224
0.04 -0.00 8.42 -11.26 11.86 -2.53 1.75 1.68 6231
0.04 -0.00 8.31 -11.06 12.19 -2.31 1.75 1.78 6238
0.04 -0.00 8.30 -10.67 12.80 -2.12 1.75 1.85 6244
0.03 -0.00 8.40 -10.42 13.33 -1.97 1.79 1.88 6250
0.04 0.00 8.53 -10.20 14.01 -1.88 1.87 1.89 6256
0.03 -0.00 8.50 -10.06 14.57 -1.84 1.98 1.88 6262
0.03 -0.00 8.34 -9.91 14.84 -1.84 2.12 1.85 6269
0.04 -0.00 7.99 -9.87 14.97 -1.87 2.27 1.80 6276
0.04 -0.00 7.53 -9.80 14.98 -1.90 2.40 1.72 6282
0.04 -0.00 7.07 -9.61 15.10 -1.92 2.53 1.63 6288
0.04 -0.00 6.61 -9.46 15.21 -1.94 2.64 1.54 6294
0.03 -0.00 6.04 -9.45 15.28 -1.95 2.74 1.43 6300
0.04 -0.00 5.48 -9.44 15.24 -1.95 2.82 1.33 6307
0.03 -0.00 5.04 -9.58 15.24 -1.94 2.88 1.22 6313
0.04 -0.00 4.46 -9.81 15.30 -1.93 2.92 1.11 6320
0.04 -0.00 3.88 -10.00 15.29 -1.91 2.93 1.02 6326
0.03 -0.00 3.26 -10.26 15.20 -1.88 2.89 0.92 6332
0.04 -0.00 2.67 -10.32 15.35 -1.84 2.81 0.84 6339
0.03 -0.00 2.10 -10.30 15.77 -1.81 2.69 0.76 6345
0.03 0.00 1.65 -10.23 16.12 -1.80 2.55 0.69 6351
0.03 -0.00 1.23 -10.24 16.22 -1.82 2.41 0.64 6358
0.02 -0.00 0.88 -10.31 16.37 -1.86 2.29 0.60 6364
0.04 -0.00 0.67 -10.43 16.20 -1.92 2.18 0.56 6371
0.04 -0.00 0.49 -10.97 15.69 -1.99 2.07 0.52 6377
0.02 -0.00 0.20 -11.82 14.74 -2.04 2.00 0.48 6383
0.05 -0.00 -0.02 -12.83 13.49 -2.05 1.98 0.44 6389
0.03 -0.00 -0.40 -13.81 12.33 -2.01 2.01 0.41 6395
0.03 -0.00 -1.13 -14.76 11.41 -1.92 2.11 0.41 6403
0.06 -0.01 -2.29 -15.57 10.56 -1.77 2.24 0.48 6409
0.05 -0.00 -3.68 -16.34 9.81 -1.59 2.27 0.61 6415
0.03 -0.00 -4.97 -17.02 9.19 -1.36 2.11 0.77 6421
0.05 -0.01 -6.54 -17.54 8.13 -1.12 1.72 0.92 6427
0.04 -0.00 -7.68 -17.83 6.98 -0.86 1.20 1.00 6434
0.03 -0.00 -8.04 -17.79 6.01 -0.59 0.62 1.09 6440
0.03 -0.00 -7.84 -18.03 5.28 -0.32 0.14 1.15 6447
0.02 -0.00 -7.86 -18.70 5.35 -0.05 -0.16 1.17 6453
0.03 -0.00 -7.87 -19.55 5.83 0.22 -0.27 1.15 6459
0.05 0.00 -7.32 -20.20 6.16 0.47 -0.34 1.05 6465
0.03 -0.00 -28.74 -29.91 26.79 1.11 -2.25 1.20 6472
0.04 -0.00 -12.59 -18.58 5.87 2.43 -3.27 1.65 6478
0.05 -0.00 -0.05 -5.07 2.91 2.37 -4.28 1.60 6484
0.04 -0.00 2.71 3.92 5.28 2.05 -4.28 1.39 6491
0.04 -0.00 6.25 1.64 14.54 1.97 -4.28 1.54 6497
0.04 0.02 7.29 10.15 18.97 1.95 -3.72 1.83 6504
0.02 0.09 1.15 12.44 6.22 1.90 -1.99 2.27 6510
0.01 0.24 -0.68 5.12 -2.74 2.11 -1.19 2.43 6516
0.03 0.38 -8.54 -1.37 12.38 2.86 -0.73 2.26 6522
0.01 0.54 -17.39 -4.34 14.56 3.34 -0.56 1.78 6529
-0.00 0.74 -17.93 -4.82 15.49 3.83 -0.80 0.85 6536
0.00 0.89 -10.64 -0.65 22.81 3.97 -0.78 -0.15 6542
-0.01 1.00 -5.83 -1.26 23.55 3.64 -0.67 -0.96 6548
0.01 1.03 2.75 -2.56 22.54 3.21 -0.66 -1.43 6554
-0.00 1.05 13.24 -4.69 33.14 2.62 -1.87 -1.26 6561
-0.00 1.11 9.41 -4.91 13.47 1.30 -2.06 -0.22 6567
0.01 1.08 2.23 -4.11 16.91 1.09 -1.58 0.29 6574
-0.01 1.08 1.00 -1.48 10.56 0.76 -1.33 0.34 6580
0.00 1.11 -0.51 -0.15 12.02 0.65 -1.47 0.19 6587
-0.00 1.07 0.10 -0.22 11.71 0.42 -1.17 0.00 6593
-0.02 1.08 1.00 -0.90 10.47 0.27 -0.90 -0.05 6599
0.01 1.07 1.37 -1.22 10.38 0.21 -0.75 -0.01 6605
-0.00 1.13 1.05 -1.15 10.07 0.17 -0.62 0.02 6611
0.02 1.11 0.80 -0.66 10.20 0.14 -0.54 0.03 6619
0.02 1.13 0.54 -0.74 10.41 0.10 -0.42 0.02 6625
0.00 1.06 0.68 -0.94 10.13 0.06 -0.33 0.02 6631
0.01 1.01 0.88 -0.93 10.14 0.04 -0.26 0.03 6637
0.00 1.01 0.89 -0.76 9.99 0.03 -0.21 0.04 6643
0.00 0.98 0.76 -0.73 10.02 0.02 -0.18 0.04 6650
0.00 0.96 0.74 -0.73 10.16 0.02 -0.15 0.04 6657
0.02 0.92 0.83 -0.74 10.08 0.02 -0.14 0.04 6663
0.01 0.90 0.78 -0.76 10.02 0.02 -0.13 0.05 6669
0.00 0.82 0.77 -0.72 10.00 0.02 -0.12 0.05 6675
0.01 0.80 0.80 -0.76 9.99 0.02 -0.11 0.05 6681
0.00 0.74 0.89 -0.72 9.96 0.02 -0.11 0.04 6688
0.02 0.66 0.87 -0.74 9.92 0.02 -0.12 0.04 6694
0.03 0.53 0.90 -0.74 9.86 0.02 -0.12 0.02 6701
0.03 0.58 0.93 -0.79 9.92 0.02 -0.12 0.02 6707
0.04 0.51 0.83 -0.76 10.02 0.02 -0.12 0.01 6713
0.05 0.45 0.81 -0.83 10.02 0.00 -0.12 0.01 6719
0.06 0.49 0.74 -0.79 10.10 0.01 -0.12 0.00 6726
0.07 0.38 0.70 -0.80 9.93 0.00 -0.10 0.00 6732
0.07 0.34 0.71 -0.78 10.00 0.00 -0.08 0.02 6738
0.09 0.28 0.97 -1.19 10.11 0.00 -0.07 0.02 6745
0.09 0.21 0.74 -0.81 9.98 0.01 -0.06 0.02 6751
0.09 0.18 0.68 -0.80 9.90 0.01 -0.05 0.02 6757
0.11 0.18 0.75 -0.89 10.02 0.02 -0.05 0.03 6764
0.11 0.12 0.77 -0.85 9.96 0.02 -0.05 0.03 6770
0.10 0.10 0.72 -0.84 9.99 0.02 -0.05 0.03 6776
0.11 0.11 0.83 -0.81 10.00 0.02 -0.05 0.03 6782
0.12 0.08 0.74 -0.67 9.97 0.02 -0.06 0.02 6789
0.13 0.06 0.83 -0.86 9.97 0.02 -0.07 0.02 6795
0.16 0.07 0.75 -0.85 9.98 0.01 -0.07 0.02 6801
0.21 0.04 0.78 -0.81 9.99 0.01 -0.07 0.01 6807
0.23 0.02 0.81 -0.81 9.97 0.01 -0.07 0.01 6814
0.23 0.00 0.80 -0.81 9.97 0.00 -0.08 0.01 6820
0.25 0.03 0.79 -0.86 10.02 0.00 -0.07 0.01 6827
0.28 -0.00 0.74 -0.82 9.98 0.00 -0.07 0.01 6833
0.31 -0.03 0.71 -0.84 10.03 0.01 -0.07 0.02 6839
0.33 -0.01 0.77 -0.80 9.98 0.01 -0.07 0.02 6845
0.35 -0.01 0.82 -0.88 10.01 0.02 -0.07 0.02 6852
0.39 -0.02 0.77 -0.85 10.04 0.03 -0.07 0.02 6858
0.41 -0.01 0.88 -0.92 10.14 0.04 -0.07 0.02 6864
0.46 -0.05 0.72 -0.84 9.93 0.05 -0.06 0.02 6871
0.50 -0.04 0.77 -0.87 10.05 0.05 -0.06 0.02 6877
0.46 -0.01 0.40 -0.65 10.16 0.07 -0.05 0.03 6883
0.53 -0.05 0.73 -0.86 10.12 0.08 -0.06 0.02 6890
0.58 -0.06 0.73 -0.88 10.05 0.09 -0.06 0.02 6896
0.57 -0.05 0.64 -0.91 10.07 0.10 -0.07 0.03 6902
0.57 -0.01 0.77 -0.98 10.02 0.11 -0.07 0.04 6908
0.63 -0.04 0.70 -0.95 10.13 0.13 -0.08 0.04 6915
0.63 -0.06 0.69 -0.93 10.02 0.14 -0.08 0.04 6921
0.68 -0.03 0.74 -0.85 10.04 0.16 -0.09 0.04 6928
0.69 -0.03 0.78 -0.98 10.10 0.17 -0.10 0.05 6934
0.70 -0.04 0.70 -0.97 10.08 0.20 -0.10 0.04 6940
0.70 -0.03 0.66 -1.03 10.16 0.22 -0.10 0.04 6946
0.70 -0.04 0.77 -1.02 10.10 0.25 -0.10 0.04 6952
0.72 -0.04 0.74 -1.06 10.15 0.28 -0.09 0.04 6960
0.75 -0.04 0.63 -1.12 10.07 0.29 -0.07 0.04 6966
0.74 -0.04 0.68 -1.13 10.06 0.30 -0.06 0.04 6972
0.74 -0.04 0.67 -1.13 10.07 0.31 -0.04 0.05 6978
0.75 -0.04 0.76 -1.19 10.06 0.32 -0.03 0.05 6984
0.74 -0.04 0.70 -1.21 9.99 0.33 -0.02 0.05 6991
0.74 -0.05 0.80 -1.25 10.10 0.34 -0.01 0.04 6998
0.78 -0.04 0.79 -1.25 10.11 0.34 -0.01 0.04 7004
0.78 -0.05 0.84 -1.30 10.10 0.36 -0.01 0.03 7010
0.78 -0.05 0.92 -1.33 10.10 0.37 -0.02 0.02 7016
0.82 -0.04 0.83 -1.38 10.03 0.38 -0.02 0.02 7023
0.82 -0.06 0.80 -1.44 10.06 0.38 -0.01 0.01 7029
0.84 -0.05 0.86 -1.36 10.12 0.38 -0.01 0.01 7035
0.87 -0.04 0.79 -1.40 10.09 0.37 -0.01 0.00 7042
0.90 -0.05 0.76 -1.44 10.12 0.38 -0.01 0.00 7048
0.93 -0.04 0.80 -1.51 10.08 0.39 -0.01 0.00 7055
0.95 -0.04 0.80 -1.53 10.19 0.40 -0.01 -0.01 7061
0.95 -0.06 0.88 -1.60 10.10 0.42 -0.01 -0.01 7067
0.96 -0.04 0.86 -1.62 10.30 0.44 -0.00 -0.02 7073
0.96 -0.05 0.76 -1.76 10.24 0.47 -0.01 -0.04 7079
0.98 -0.05 0.87 -1.65 10.26 0.50 -0.01 -0.03 7087
1.01 -0.04 0.86 -1.72 10.23 0.53 -0.00 -0.04 7093
1.03 -0.04 0.88 -1.76 10.26 0.56 -0.01 -0.05 7099
1.04 -0.05 0.85 -1.81 10.31 0.59 -0.00 -0.05 7105
1.07 -0.05 0.88 -1.86 10.32 0.62 -0.00 -0.06 7111
1.11 -0.06 0.97 -1.91 10.26 0.66 -0.00 -0.07 7118
1.11 -0.05 1.05 -2.05 10.53 0.71 -0.01 -0.08 7124
1.15 -0.05 0.84 -1.96 10.49 0.77 -0.03 -0.09 7131
1.16 -0.05 0.91 -2.10 10.62 0.84 -0.06 -0.10 7137
1.19 -0.05 0.98 -2.14 10.67 0.90 -0.09 -0.11 7143
1.22 -0.05 0.92 -2.22 10.66 0.97 -0.11 -0.12 7150
1.25 -0.06 1.05 -2.30 10.63 1.03 -0.13 -0.14 7156
1.25 -0.05 0.91 -2.34 10.63 1.10 -0.14 -0.15 7162
1.29 -0.06 0.87 -2.44 10.70 1.16 -0.15 -0.16 7169
1.31 -0.06 0.86 -2.48 10.72 1.24 -0.15 -0.17 7176
1.35 -0.06 0.91 -2.59 10.74 1.32 -0.16 -0.18 7182
1.35 -0.06 0.96 -2.64 10.45 1.41 -0.16 -0.18 7188
1.34 -0.05 0.63 -2.69 10.69 1.48 -0.14 -0.19 7194
1.37 -0.05 0.75 -2.77 10.57 1.58 -0.11 -0.18 7201
1.39 -0.06 0.60 -2.94 10.87 1.68 -0.07 -0.18 7207
1.40 -0.04 0.52 -3.07 11.33 1.80 -0.02 -0.17 7214
1.38 -0.06 0.54 -3.15 11.08 1.92 0.03 -0.16 7220
1.33 -0.05 0.63 -3.26 10.80 2.07 0.10 -0.15 7226
1.35 -0.05 0.43 -3.34 10.89 2.21 0.19 -0.14 7233
1.26 -0.05 0.22 -3.36 10.42 2.38 0.36 -0.11 7239
1.18 -0.05 -0.08 -3.54 10.29 2.51 0.55 -0.06 7245
1.07 -0.05 -0.20 -3.90 10.99 2.69 0.86 0.02 7251
0.89 -0.06 -0.62 -4.27 11.65 2.82 1.22 0.12 7259
0.70 -0.04 -0.22 -4.44 12.49 3.03 1.64 0.22 7265
0.54 -0.03 -0.47 -4.56 12.28 3.24 1.99 0.30 7271
0.38 -0.03 -1.16 -5.33 12.31 3.37 2.28 0.45 7277
0.33 -0.02 -2.02 -6.20 12.20 3.46 2.72 0.68 7283
0.21 -0.02 -1.16 -7.44 16.31 3.46 3.08 0.94 7290
0.14 -0.01 0.10 -8.38 19.87 3.60 3.42 1.15 7297
0.13 -0.01 1.73 -9.77 22.39 3.93 3.90 1.30 7303
0.09 -0.00 2.30 -11.56 23.85 4.19 4.22 1.35 7309
0.10 -0.01 3.57 -10.23 22.19 4.28 4.27 1.45 7316
0.09 -0.01 4.24 -10.23 21.90 4.28 4.27 1.52 7322
0.04 -0.00 6.14 -10.15 23.05 4.28 4.28 1.53 7328
0.04 0.02 9.63 -11.18 24.18 4.27 4.28 1.56 7334
0.07 -0.01 9.77 -9.93 24.53 4.23 4.28 1.56 7341
0.06 -0.01 7.29 -8.27 25.45 4.19 4.28 1.32 7348
0.06 0.00 3.08 -5.63 26.47 4.14 4.28 0.97 7354
0.06 -0.01 -2.45 -2.98 26.06 4.11 4.28 0.55 7360
0.03 -0.00 -6.65 -0.08 22.91 4.02 4.28 0.11 7366
0.04 0.00 -8.25 4.21 20.06 3.85 4.28 -0.31 7372
0.04 0.00 -8.14 6.36 21.53 3.50 3.68 -0.63 7379
0.05 -0.00 -10.66 11.12 15.44 3.04 2.08 -0.96 7386
0.07 -0.01 -11.41 11.52 6.44 2.74 0.23 -1.89 7392
0.04 -0.00 -10.10 9.11 15.00 1.84 -1.99 -2.32 7398
0.04 0.00 -5.65 10.36 11.96 0.11 -3.30 -2.42 7404
0.03 -0.00 -0.30 10.94 13.35 -1.42 -3.69 -2.53 7411
0.04 -0.00 2.71 7.45 15.68 -2.26 -3.65 -2.84 7417
0.06 -0.01 3.69 4.43 14.37 -2.71 -3.28 -3.36 7424
0.05 -0.00 4.05 2.67 12.71 -2.94 -2.66 -3.78 7430
0.04 -0.00 4.00 2.22 10.59 -2.99 -1.92 -4.25 7436
0.04 -0.00 3.23 2.19 8.77 -2.99 -1.25 -4.28 7442
0.06 -0.01 2.39 2.55 7.50 -3.02 -0.81 -4.28 7449
0.04 -0.00 2.08 2.91 7.03 -3.10 -0.61 -4.28 7455
0.03 -0.00 1.77 3.03 7.07 -3.15 -0.61 -4.28 7461
0.03 0.00 1.90 2.98 7.54 -3.26 -0.74 -4.28 7468
0.03 -0.00 2.47 3.05 8.16 -3.38 -1.01 -4.28 7474
0.04 -0.00 3.06 2.61 8.84 -3.52 -1.32 -4.28 7480
0.04 -0.00 2.76 1.29 8.90 -3.65 -1.50 -4.28 7486
0.04 -0.00 3.29 0.77 8.82 -3.81 -1.47 -4.27 7492
0.04 -0.00 5.04 1.36 10.25 -3.96 -1.56 -3.87 7499
0.03 -0.00 5.99 0.92 10.84 -4.11 -1.85 -3.44 7505
0.03 0.00 6.55 -0.28 10.64 -4.21 -2.19 -2.98 7512
0.04 -0.00 7.45 -1.26 10.41 -4.27 -2.42 -2.53 7518
0.04 -0.00 8.44 -1.72 10.43 -4.28 -2.64 -2.10 7524
0.04 -0.00 9.18 -2.28 10.67 -4.28 -2.76 -1.79 7531
0.04 -0.00 9.82 -3.21 10.55 -4.28 -2.76 -1.46 7537
0.05 -0.00 10.46 -4.15 10.09 -4.28 -2.64 -1.18 7543
0.04 0.01 11.16 -4.96 9.65 -4.28 -2.45 -0.94 7549
0.04 -0.00 11.79 -5.68 9.02 -4.28 -2.16 -0.75 7556
0.04 -0.00 12.43 -6.21 8.64 -4.28 -1.78 -0.58 7563
0.04 0.00 13.02 -6.73 8.38 -4.22 -1.31 -0.44 7569
0.04 -0.00 13.45 -6.96 8.07 -4.10 -0.80 -0.30 7575
0.03 -0.00 13.74 -7.51 8.52 -3.91 -0.25 -0.16 7581
0.04 0.01 13.58 -8.10 8.90 -3.74 0.30 -0.01 7587
0.04 -0.00 13.19 -8.60 9.60 -3.55 0.82 0.16 7593
0.03 -0.00 12.56 -9.07 10.26 -3.36 1.17 0.36 7601
0.03 0.01 11.83 -9.52 11.07 -3.16 1.54 0.58 7607
0.04 -0.00 11.06 -9.94 11.94 -2.97 1.82 0.83 7613
0.02 -0.00 10.26 -10.49 12.71 -2.80 2.05 1.03 7619
0.04 -0.00 9.61 -10.95 13.32 -2.65 2.22 1.21 7626
0.03 -0.00 8.81 -11.39 13.62 -2.53 2.33 1.42 7632
0.03 -0.00 8.42 -11.86 13.96 -2.42 2.42 1.63 7639
0.03 -0.00 7.90 -12.14 14.36 -2.33 2.43 1.83 7645
0.03 -0.00 7.30 -12.26 14.50 -2.25 2.38 1.99 7651
0.04 0.00 6.81 -12.23 14.18 -2.18 2.29 2.11 7658
0.04 -0.00 6.44 -12.12 13.79 -2.12 2.17 2.18 7664
0.03 -0.00 6.22 -11.97 13.47 -2.05 2.06 2.20 7670
0.04 -0.00 6.08 -11.81 13.09 -1.98 1.99 2.16 7676
0.03 -0.00 5.86 -11.62 12.87 -1.89 1.96 2.08 7684
0.03 -0.00 5.70 -11.44 12.88 -1.79 1.97 1.97 7690
0.04 -0.00 5.57 -11.20 12.87 -1.69 2.02 1.83 7696
0.04 -0.00 5.36 -10.87 12.83 -1.59 2.12 1.68 7702
0.02 -0.00 5.11 -10.67 12.92 -1.49 2.22 1.54 7708
0.02 -0.00 4.85 -10.39 13.20 -1.38 2.34 1.40 7715
0.02 -0.00 4.71 -10.15 13.67 -1.30 2.45 1.28 7721
0.03 -0.00 4.54 -9.92 14.27 -1.25 2.54 1.18 7728
0.04 -0.00 4.20 -9.78 14.91 -1.24 2.64 1.11 7734
0.02 -0.00 3.67 -9.64 15.06 -1.28 2.70 1.09 7740
0.03 0.00 2.94 -9.39 15.04 -1.35 2.67 1.08 7747
0.03 -0.00 2.27 -9.14 14.21 -1.43 2.57 1.09 7753
0.03 -0.00 1.66 -9.01 14.28 -1.51 2.37 1.10 7759
0.03 0.00 1.26 -9.01 13.76 -1.56 2.13 1.12 7766
0.03 -0.00 0.97 -9.10 13.27 -1.57 1.87 1.12 7772
0.03 -0.00 1.09 -9.28 12.85 -1.54 1.63 1.10 7778
0.04 0.00 1.31 -9.45 12.53 -1.50 1.44 1.05 7785
0.03 -0.00 1.71 -9.63 12.33 -1.41 1.34 0.98 7791
0.04 -0.00 2.15 -9.70 12.30 -1.33 1.36 0.90 7797
0.03 -0.00 2.53 -9.76 12.39 -1.27 1.42 0.81 7803
0.05 -0.00 2.53 -9.82 12.33 -1.24 1.60 0.73 7810
0.04 -0.00 2.14 -9.97 12.16 -1.22 1.82 0.63 7816
0.04 -0.00 1.62 -10.19 12.12 -1.22 2.03 0.54 7823
0.06 -0.01 0.86 -10.50 11.81 -1.20 2.18 0.44 7829
0.03 -0.00 -0.16 -10.66 11.19 -1.16 2.31 0.36 7835
0.02 -0.00 -1.68 -10.62 10.37 -1.09 2.46 0.34 7841
0.03 -0.00 -3.18 -10.91 9.92 -0.97 2.67 0.42 7847
0.04 -0.00 -4.60 -11.38 9.93 -0.81 2.79 0.58 7855
0.05 -0.00 -6.04 -12.04 9.90 -0.65 2.64 0.73 7861
0.07 -0.01 -7.37 -12.88 9.60 -0.47 2.19 0.84 7867
0.03 -0.00 -8.10 -13.52 8.76 -0.31 1.65 0.91 7873
0.02 -0.00 -8.37 -14.05 7.81 -0.20 0.89 0.95 7879
0.03 -0.00 -7.91 -14.58 7.19 -0.12 0.19 0.98 7885
0.04 -0.00 -7.14 -15.42 6.88 -0.03 -0.38 0.99 7891
0.04 -0.00 -6.20 -16.56 6.76 0.11 -0.75 0.97 7899
0.04 -0.00 -5.05 -17.46 6.58 0.31 -0.98 0.90 7905
0.04 -0.00 -3.94 -17.78 6.40 0.54 -1.06 0.79 7911
0.04 -0.00 -2.88 -17.60 6.33 0.78 -1.00 0.67 7917
0.04 -0.00 -31.02 -7.13 40.67 1.65 -3.47 1.08 7923
0.05 -0.00 10.74 -1.02 7.86 2.72 -3.57 1.84 7929
0.03 -0.00 5.42 2.85 7.85 2.44 -4.12 1.68 7937
0.03 -0.00 5.49 13.47 8.55 2.10 -3.93 1.90 7943
0.04 -0.00 7.36 7.40 8.61 1.88 -3.68 2.18 7949
0.01 -0.00 3.36 1.32 9.38 1.68 -3.44 2.38 7955
0.03 -0.00 0.79 0.40 7.19 1.65 -3.11 2.48 7961
0.03 0.02 -1.01 3.49 8.68 1.97 -2.47 2.47 7967
0.03 0.15 -5.83 2.75 7.23 2.29 -1.66 2.37 7973
0.03 0.33 -11.52 2.08 9.75 2.85 -1.36 2.07 7981
0.02 0.47 -13.53 0.00 15.04 3.29 -1.29 1.47 7987
0.01 0.69 -14.31 -0.38 19.52 3.47 -1.26 0.68 7993
-0.01 0.84 -11.93 -0.46 21.48 3.43 -1.25 -0.33 7999
0.00 0.90 -3.34 -1.10 20.24 3.16 -1.28 -1.22 8006
0.00 0.97 8.44 -2.69 24.48 2.93 -1.43 -1.55 8012
-0.01 0.93 9.69 -3.30 27.31 1.82 -2.91 -0.89 8018
-0.00 1.05 7.18 -3.66 10.21 1.09 -1.97 0.05 8025
-0.00 1.07 1.18 -3.18 12.96 0.79 -1.58 0.21 8032
-0.01 1.12 0.54 -1.08 11.77 0.66 -1.41 0.29 8038
-0.00 1.15 -0.44 -0.31 12.14 0.49 -1.18 0.15 8044
-0.02 1.18 0.33 -0.24 11.01 0.29 -0.82 0.02 8050
-0.01 1.21 0.95 -1.03 10.31 0.19 -0.62 0.00 8056
-0.01 1.21 1.22 -1.23 10.16 0.15 -0.46 0.05 8064
-0.02 1.19 0.85 -0.94 10.35 0.13 -0.37 0.08 8070
0.02 1.18 0.64 -0.64 10.33 0.09 -0.28 0.06 8076
-0.00 1.13 0.81 -0.66 10.09 0.06 -0.21 0.05 8082
-0.01 1.09 0.97 -0.81 9.96 0.05 -0.18 0.04 8088
0.00 1.06 0.95 -0.88 10.00 0.05 -0.18 0.05 8095
-0.00 1.00 0.88 -0.74 9.98 0.05 -0.16 0.06 8101
-0.01 0.97 0.82 -0.64 9.98 0.04 -0.15 0.05 8108
0.01 0.95 0.88 -0.65 9.84 0.04 -0.13 0.06 8114
0.01 0.86 0.87 -0.68 10.07 0.04 -0.11 0.05 8120
-0.00 0.84 0.87 -0.74 10.00 0.04 -0.09 0.06 8126
0.00 0.77 0.85 -0.73 10.03 0.04 -0.08 0.06 8133
0.01 0.65 0.88 -0.70 9.92 0.04 -0.06 0.06 8139
0.02 0.63 0.88 -0.70 10.03 0.04 -0.06 0.06 8145
0.01 0.56 0.86 -0.74 9.97 0.04 -0.05 0.06 8152
0.04 0.51 0.81 -0.71 9.98 0.04 -0.04 0.06 8158
0.03 0.45 0.81 -0.77 9.93 0.04 -0.03 0.05 8164
0.02 0.39 0.83 -0.81 9.99 0.04 -0.02 0.05 8170
0.03 0.34 0.83 -0.79 9.93 0.03 -0.01 0.04 8177
0.02 0.33 0.88 -0.79 10.06 0.03 -0.00 0.04 8183
0.03 0.26 0.88 -0.69 9.99 0.03 0.00 0.04 8189
0.04 0.24 0.90 -0.97 10.00 0.03 0.01 0.05 8196
0.06 0.17 0.75 -0.74 9.98 0.03 0.01 0.05 8202
0.06 0.15 0.89 -0.78 9.97 0.03 0.00 0.05 8208
0.06 0.15 0.93 -0.78 10.01 0.03 -0.01 0.04 8214
0.09 0.09 0.94 -0.80 9.91 0.03 -0.01 0.04 8221
0.09 0.12 0.89 -0.75 10.00 0.03 -0.02 0.04 8227
0.07 0.05 0.92 -0.79 9.98 0.02 -0.03 0.04 8233
0.08 0.08 0.96 -0.78 9.95 0.02 -0.04 0.03 8240
0.11 0.04 0.86 -0.81 9.98 0.02 -0.05 0.03 8246
0.11 0.02 0.90 -0.86 10.00 0.02 -0.06 0.03 8252
0.12 0.01 0.87 -0.80 10.01 0.02 -0.07 0.03 8258
0.13 -0.00 0.96 -0.79 10.07 0.02 -0.09 0.03 8265
0.13 -0.01 0.95 -0.94 10.01 0.02 -0.11 0.03 8271
0.11 -0.01 0.91 -0.90 10.04 0.02 -0.13 0.02 8278
0.16 -0.01 0.95 -0.83 10.02 0.02 -0.15 0.02 8284
0.15 -0.02 0.89 -0.84 10.04 0.01 -0.17 0.02 8290
0.16 -0.02 0.89 -0.80 10.05 0.01 -0.18 0.02 8296
0.22 -0.01 0.89 -0.87 10.01 0.01 -0.18 0.01 8303
0.24 -0.02 0.82 -0.85 10.02 0.00 -0.18 0.01 8309
0.26 -0.02 0.82 -0.85 10.00 0.00 -0.17 0.01 8315
0.28 -0.00 0.79 -0.78 10.04 0.00 -0.16 0.01 8322
0.32 -0.02 0.81 -0.89 10.08 0.00 -0.15 0.01 8328
0.34 -0.02 0.84 -0.85 10.08 0.01 -0.13 0.01 8335
0.40 -0.02 0.85 -0.83 10.01 0.02 -0.12 0.02 8341
0.41 -0.04 0.79 -0.85 10.05 0.02 -0.12 0.02 8347
0.39 -0.03 0.75 -0.85 9.97 0.03 -0.11 0.02 8353
0.42 -0.01 0.79 -0.88 10.03 0.04 -0.10 0.03 8359
0.44 -0.03 0.75 -0.88 10.02 0.06 -0.09 0.03 8366
0.45 -0.04 0.77 -0.86 10.03 0.07 -0.09 0.03 8373
0.49 -0.02 0.76 -0.89 10.06 0.08 -0.09 0.03 8379
0.53 -0.03 0.71 -0.88 10.02 0.09 -0.08 0.03 8385
0.52 -0.04 0.76 -0.91 10.06 0.11 -0.08 0.04 8391
0.55 -0.03 0.73 -0.91 10.09 0.12 -0.08 0.04 8397
0.57 -0.04 0.76 -0.94 10.20 0.16 -0.08 0.04 8404
0.57 -0.04 0.74 -0.96 10.17 0.23 -0.08 0.04 8411
0.62 -0.04 0.68 -0.92 10.21 0.24 -0.08 0.04 8417
0.64 -0.04 0.78 -1.06 10.25 0.30 -0.08 0.04 8423
0.66 -0.04 0.85 -1.06 10.22 0.35 -0.09 0.04 8429
0.70 -0.04 0.78 -1.10 10.23 0.40 -0.09 0.03 8436
0.69 -0.04 0.78 -1.16 10.30 0.44 -0.09 0.03 8442
0.70 -0.05 0.85 -1.09 10.13 0.47 -0.09 0.03 8449
0.73 -0.04 0.81 -1.21 10.29 0.49 -0.10 0.03 8455
0.74 -0.04 0.82 -1.23 10.27 0.51 -0.10 0.03 8461
0.75 -0.04 0.84 -1.29 10.17 0.53 -0.12 0.02 8468
0.77 -0.04 0.91 -1.36 10.14 0.54 -0.13 0.02 8474
0.79 -0.06 0.81 -1.43 10.16 0.54 -0.12 0.01 8480
0.80 -0.03 0.82 -1.37 10.09 0.54 -0.12 0.01 8486
0.83 -0.04 0.79 -1.45 10.13 0.55 -0.11 0.00 8494
0.83 -0.06 0.76 -1.48 10.01 0.55 -0.11 -0.00 8500
0.85 -0.04 0.72 -1.53 10.08 0.54 -0.09 -0.00 8506
0.86 -0.05 0.76 -1.59 10.06 0.54 -0.09 -0.00 8512
0.86 -0.05 0.72 -1.59 10.09 0.54 -0.09 0.00 8518
0.90 -0.05 0.79 -1.64 9.92 0.54 -0.09 -0.00 8524
0.92 -0.04 0.73 -1.72 9.84 0.54 -0.08 -0.00 8531
0.93 -0.04 0.77 -1.79 9.83 0.53 -0.07 -0.01 8538
0.95 -0.03 0.78 -2.40 9.86 0.51 -0.05 -0.01 8544
0.96 -0.04 0.80 -1.85 9.91 0.50 -0.04 -0.02 8550
0.96 -0.06 0.79 -1.84 9.91 0.51 -0.03 -0.02 8556
0.95 -0.04 0.85 -1.93 10.10 0.51 -0.04 -0.03 8562
0.96 -0.04 0.86 -1.97 10.10 0.53 -0.03 -0.04 8569
0.97 -0.05 0.74 -1.98 10.02 0.54 -0.04 -0.05 8576
0.97 -0.03 0.75 -2.03 10.04 0.56 -0.05 -0.06 8582
1.01 -0.05 0.74 -2.08 10.03 0.57 -0.05 -0.06 8588
1.02 -0.05 0.78 -2.14 10.09 0.60 -0.05 -0.06 8595
1.05 -0.04 0.79 -2.18 10.06 0.62 -0.04 -0.07 8601
1.08 -0.05 0.76 -2.21 9.98 0.65 -0.04 -0.07 8607
1.10 -0.05 0.80 -2.25 9.98 0.67 -0.03 -0.08 8613
1.11 -0.03 0.72 -2.31 9.89 0.68 -0.03 -0.08 8620
1.14 -0.06 0.83 -2.40 10.04 0.71 -0.02 -0.08 8626
1.13 -0.06 0.81 -2.39 10.09 0.73 -0.02 -0.09 8633
1.14 -0.04 0.83 -2.49 10.14 0.75 -0.01 -0.10 8639
1.15 -0.05 0.83 -2.58 10.14 0.79 -0.01 -0.11 8645
1.15 -0.05 0.88 -2.63 10.17 0.83 0.00 -0.12 8651
1.14 -0.05 0.74 -2.67 10.10 0.86 0.02 -0.13 8657
1.16 -0.05 0.68 -2.71 10.11 0.90 0.03 -0.14 8665
1.18 -0.06 0.80 -2.90 10.12 0.93 0.04 -0.14 8671
1.19 -0.05 0.79 -2.83 10.23 0.99 0.03 -0.12 8677
1.19 -0.06 0.74 -2.97 10.53 1.05 0.03 -0.12 8683
1.17 -0.05 0.96 -3.40 9.97 1.10 0.05 -0.14 8689
1.20 -0.06 0.79 -3.12 10.18 1.18 0.06 -0.14 8696
1.18 -0.06 0.62 -3.14 10.57 1.24 0.11 -0.16 8702
1.17 -0.04 0.62 -3.13 10.58 1.36 0.16 -0.15 8709
1.14 -0.05 0.12 -3.22 9.99 1.44 0.22 -0.14 8715
1.12 -0.05 0.51 -3.45 10.35 1.51 0.27 -0.12 8722
1.08 -0.04 0.69 -3.48 10.27 1.63 0.42 -0.12 8728
1.05 -0.05 0.42 -3.60 9.64 1.74 0.60 -0.10 8734
0.98 -0.04 0.41 -3.79 10.27 1.82 0.80 -0.06 8740
0.90 -0.04 0.02 -3.93 10.90 1.92 1.03 -0.00 8747
0.74 -0.04 0.04 -4.14 11.12 2.05 1.29 0.08 8754
0.68 -0.04 -0.06 -4.35 11.64 2.20 1.58 0.17 8760
0.50 -0.04 0.03 -4.59 11.50 2.36 1.87 0.26 8766
0.35 -0.03 -0.23 -4.64 11.59 2.45 2.17 0.37 8772
0.27 -0.03 0.04 -5.33 12.35 2.47 2.42 0.51 8778
0.17 -0.02 0.33 -5.78 14.76 2.58 2.68 0.65 8785
0.16 -0.02 1.12 -3.94 12.28 2.71 3.08 0.76 8792
0.10 -0.01 1.24 -7.93 18.95 3.01 3.48 0.89 8798
0.13 -0.01 1.79 -8.18 18.73 3.34 3.74 1.00 8804
0.08 -0.01 1.73 -8.75 21.11 3.61 3.77 1.12 8810
0.08 0.00 3.17 -8.91 21.70 3.88 3.85 1.19 8816
0.08 -0.01 5.19 -8.93 19.92 4.08 3.92 1.22 8823
0.07 -0.01 6.59 -9.05 20.92 4.10 4.07 1.26 8829
0.07 -0.01 10.21 -9.61 21.80 3.96 4.27 1.30 8836
0.09 -0.01 12.69 -8.84 22.77 3.76 4.28 1.25 8842
0.07 -0.01 14.09 -8.34 24.19 3.61 4.28 1.04 8848
0.05 -0.01 10.79 -6.84 25.54 3.51 4.28 0.77 8855
0.05 -0.00 5.96 -4.84 27.96 3.42 4.28 0.42 8861
0.04 -0.00 0.39 -3.48 26.52 3.33 4.28 0.02 8867
0.05 -0.01 -5.06 -0.16 24.77 3.22 4.28 -0.51 8873
0.08 -0.00 -8.45 4.31 22.07 2.99 4.28 -1.09 8880
0.07 -0.00 -10.72 7.69 19.49 2.68 4.28 -1.62 8887
0.07 -0.01 -24.22 11.36 6.43 2.29 4.28 -2.08 8893
0.05 -0.00 -17.76 8.56 9.26 1.96 2.87 -2.70 8899
0.04 -0.00 -17.70 8.57 9.47 0.25 -0.32 -2.74 8905
0.04 -0.00 -10.79 11.58 9.88 -1.80 -2.45 -2.71 8911
0.04 -0.00 -3.93 8.92 16.43 -2.91 -3.75 -2.71 8919
0.04 -0.00 -1.75 3.49 16.25 -3.47 -4.20 -2.90 8925
0.05 -0.00 0.20 0.18 13.65 -3.67 -4.16 -3.30 8931
0.06 -0.01 2.09 -0.74 12.32 -3.61 -3.71 -3.80 8937
0.04 -0.00 3.08 -1.02 10.29 -3.47 -3.02 -4.27 8943
0.05 -0.00 2.87 -1.05 7.75 -3.27 -2.29 -4.28 8949
0.05 -0.00 2.28 -0.44 6.24 -3.09 -1.70 -4.28 8955
0.04 -0.00 1.86 0.38 6.01 -2.99 -1.33 -4.28 8963
0.04 -0.00 1.59 1.14 6.46 -2.97 -1.13 -4.28 8969
0.05 -0.01 1.43 1.71 7.13 -3.01 -1.10 -4.28 8975
0.05 -0.00 1.94 1.95 8.33 -3.13 -1.22 -4.28 8981
0.04 -0.00 2.25 1.88 9.23 -3.27 -1.41 -4.28 8987
0.04 -0.00 1.84 0.92 9.37 -3.42 -1.54 -4.28 8993
0.04 -0.00 2.57 0.75 8.98 -3.56 -1.56 -4.28 8999
0.04 -0.00 3.71 1.15 10.33 -3.74 -1.70 -4.09 9006
0.04 -0.00 4.15 0.58 10.72 -3.93 -2.07 -3.70 9013
0.05 -0.00 4.90 -0.78 10.89 -4.07 -2.42 -3.35 9019
0.05 -0.01 6.26 -1.75 10.78 -4.17 -2.75 -2.92 9025
0.04 -0.00 7.33 -1.81 10.92 -4.24 -2.99 -2.52 9031
0.04 -0.00 8.91 -2.59 11.28 -4.27 -3.06 -2.15 9037
0.04 -0.00 9.79 -3.37 10.86 -4.28 -2.96 -1.81 9044
0.03 -0.00 10.39 -4.07 10.38 -4.28 -2.73 -1.52 9051
0.04 -0.00 10.83 -4.87 9.78 -4.28 -2.40 -1.26 9057
0.04 -0.00 11.15 -5.57 8.99 -4.27 -2.04 -1.03 9063
0.04 -0.00 11.51 -6.00 8.33 -4.22 -1.65 -0.82 9069
0.04 -0.00 11.11 -6.30 7.65 -4.11 -1.32 -0.61 9075
0.05 -0.01 11.68 -6.52 7.30 -3.91 -0.91 -0.38 9082
0.04 -0.00 11.83 -6.89 7.36 -3.66 -0.48 -0.10 9089
0.03 -0.00 11.69 -7.27 7.75 -3.41 -0.04 0.09 9095
0.04 -0.00 11.30 -7.46 8.25 -3.16 0.38 0.35 9101
0.04 -0.00 10.64 -7.71 9.04 -2.92 0.74 0.61 9107
0.03 -0.00 10.02 -8.06 9.79 -2.69 1.05 0.87 9113
0.04 0.01 9.37 -8.28 10.69 -2.50 1.26 1.10 9120
0.04 -0.00 9.00 -8.54 11.92 -2.37 1.43 1.32 9126
0.03 -0.00 8.77 -8.92 12.85 -2.26 1.59 1.52 9133
0.04 0.00 8.38 -9.36 13.60 -2.22 1.69 1.69 9139
0.04 -0.00 8.04 -9.81 14.20 -2.21 1.76 1.86 9145
0.03 -0.00 7.59 -10.13 14.50 -2.24 1.77 1.98 9152
0.04 -0.00 7.13 -10.33 14.26 -2.27 1.70 2.11 9158
0.03 -0.00 6.92 -10.47 13.98 -2.28 1.59 2.20 9164
0.02 -0.00 6.75 -10.50 13.48 -2.27 1.46 2.24 9170
0.04 -0.00 6.66 -10.45 12.74 -2.24 1.33 2.25 9177
0.04 -0.00 6.77 -10.28 12.21 -2.17 1.24 2.21 9184
0.04 -0.00 6.89 -10.04 11.68 -2.07 1.23 2.14 9190
0.04 -0.00 6.94 -9.80 11.36 -1.94 1.26 2.04 9196
0.03 -0.00 6.91 -9.62 11.26 -1.80 1.35 1.91 9202
0.04 -0.00 6.78 -9.57 11.34 -1.65 1.51 1.78 9208
0.05 -0.01 6.48 -9.53 11.56 -1.52 1.71 1.65 9214
0.04 -0.00 6.08 -9.58 12.00 -1.37 1.93 1.52 9222
0.04 -0.00 5.85 -9.56 12.61 -1.23 2.14 1.40 9228
0.04 -0.00 5.60 -9.48 13.38 -1.12 2.30 1.30 9234
0.04 -0.00 5.17 -9.43 13.91 -1.06 2.46 1.23 9240
0.03 -0.00 4.53 -9.35 14.26 -1.06 2.57 1.16 9246
0.03 -0.00 3.80 -9.15 14.26 -1.11 2.60 1.11 9252
0.03 -0.00 3.16 -8.96 14.13 -1.17 2.52 1.08 9260
0.03 -0.00 2.73 -8.74 14.05 -1.25 2.36 1.05 9266
0.03 0.00 2.52 -8.58 13.78 -1.33 2.16 1.02 9272
0.03 -0.00 2.32 -8.45 13.41 -1.38 1.94 1.00 9278
0.03 -0.00 2.24 -8.33 13.10 -1.43 1.73 0.96 9284
0.04 -0.00 2.21 -8.22 12.81 -1.46 1.55 0.92 9291
0.04 -0.00 2.39 -8.15 12.51 -1.46 1.45 0.87 9297
0.04 -0.00 2.49 -8.19 12.27 -1.45 1.37 0.81 9304
0.04 -0.00 2.55 -8.24 11.99 -1.39 1.35 0.75 9310
0.04 -0.00 2.50 -8.49 11.64 -1.32 1.37 0.68 9316
0.04 -0.00 2.35 -8.81 11.22 -1.23 1.43 0.62 9322
0.02 -0.00 2.09 -9.10 10.88 -1.12 1.51 0.55 9328
0.03 -0.00 1.77 -9.51 10.50 -1.00 1.61 0.48 9335
0.03 -0.00 1.49 -9.92 10.11 -0.90 1.73 0.40 9341
0.02 -0.00 1.13 -10.28 9.85 -0.77 1.84 0.32 9348
0.04 -0.00 0.86 -10.54 9.81 -0.65 1.91 0.24 9354
0.04 -0.00 0.43 -10.59 10.03 -0.56 1.96 0.16 9360
0.04 -0.00 0.04 -10.50 10.36 -0.51 1.98 0.12 9366
0.04 -0.00 -0.60 -10.16 10.44 -0.53 2.00 0.10 9373
0.05 -0.00 -1.64 -9.83 10.35 -0.58 2.05 0.16 9379
0.03 -0.00 -2.93 -9.68 10.28 -0.63 2.13 0.32 9385
0.04 -0.00 -4.17 -9.83 10.05 -0.65 2.09 0.54 9392
0.05 -0.00 -5.15 -10.36 9.63 -0.62 1.80 0.75 9398
0.05 -0.00 -6.03 -11.02 8.73 -0.57 1.29 0.91 9404
0.03 -0.00 -6.23 -11.61 7.46 -0.45 0.66 1.03 9411
0.05 -0.00 -5.80 -12.34 6.51 -0.30 0.03 1.09 9417
0.03 -0.00 -4.91 -12.82 6.12 -0.12 -0.42 1.10 9423
0.01 -0.00 -4.16 -13.27 6.12 0.08 -0.77 1.10 9430
0.04 -0.00 -15.09 -21.64 22.01 0.66 -1.80 1.22 9436
0.04 -0.00 -8.79 -16.54 5.31 1.71 -2.93 1.58 9443
0.01 -0.00 -10.51 -14.84 6.94 1.88 -3.91 1.75 9449
0.04 -0.00 -5.05 -11.06 3.92 1.98 -4.28 1.89 9455
0.03 -0.00 2.62 -2.66 5.83 1.95 -4.28 1.90 9461
0.01 -0.00 2.85 -1.02 10.91 1.89 -4.28 1.96 9467
0.02 0.01 3.80 4.14 15.66 1.82 -3.89 2.16 9474
0.03 0.02 -0.86 10.40 18.93 1.88 -2.48 2.34 9481
0.01 0.24 -6.61 6.76 8.17 1.90 -1.45 2.39 9487
0.04 0.46 -11.69 2.92 6.76 2.20 -1.34 1.99 9493
0.04 0.61 -14.46 -2.85 16.91 2.84 -1.13 1.36 9499
0.01 0.75 -16.47 -4.29 15.21 3.29 -1.09 0.54 9506
-0.01 0.85 -11.06 -2.46 17.40 3.66 -1.30 -0.48 9512
-0.00 0.85 -0.63 -2.06 21.67 3.58 -1.34 -1.21 9519
0.02 0.84 15.65 -4.19 39.91 3.16 -2.35 -1.25 9525
-0.01 0.94 6.87 -4.87 14.84 0.95 -2.41 -0.27 9532
0.00 0.96 1.47 -3.94 14.87 0.77 -1.72 0.14 9538
-0.01 0.93 1.06 -2.83 11.24 0.51 -1.15 0.25 9544
-0.00 0.99 -0.28 -0.50 11.77 0.45 -1.09 0.24 9550
0.02 0.98 0.22 -0.21 11.05 0.28 -0.84 0.12 9558
0.02 0.92 0.55 -0.76 10.37 0.15 -0.59 0.04 9564
0.01 0.92 0.79 -1.04 10.16 0.08 -0.43 0.05 9570
0.02 0.89 0.92 -1.05 9.43 0.03 -0.28 0.07 9576
0.01 0.89 0.46 -0.85 10.32 -0.01 -0.21 0.05 9582
0.01 0.85 0.57 -0.68 10.02 -0.01 -0.16 0.03 9589
0.02 0.82 2.17 -0.80 9.81 -0.01 -0.14 0.03 9595
0.02 0.77 0.70 -0.99 10.02 -0.02 -0.12 0.03 9602
0.02 0.75 0.68 -0.87 10.14 -0.01 -0.11 0.03 9608
0.06 0.68 0.66 -0.78 10.11 0.03 -0.08 0.04 9614
0.05 0.59 0.73 -0.75 10.07 0.01 -0.06 0.05 9620
0.06 0.55 0.75 -0.77 10.05 0.02 -0.05 0.06 9627
0.08 0.50 0.75 -0.77 9.99 0.03 -0.04 0.06 9633
0.06 0.47 0.79 -0.82 10.10 0.03 -0.02 0.06 9639
0.04 0.38 0.86 -0.82 9.97 0.03 -0.02 0.07 9646
0.05 0.42 0.83 -0.72 9.91 0.03 -0.01 0.06 9652
0.07 0.35 0.86 -0.82 10.00 0.03 -0.00 0.06 9658
0.07 0.26 0.90 -0.79 9.99 0.03 -0.00 0.05 9665
0.08 0.26 0.85 -0.83 9.98 0.03 -0.00 0.04 9671
0.10 0.20 0.84 -0.81 9.95 0.03 -0.00 0.03 9677
0.09 0.17 0.85 -0.73 10.06 0.03 0.00 0.03 9683
0.08 0.14 0.81 -0.80 9.95 0.03 0.00 0.03 9690
0.10 0.15 0.81 -0.80 9.97 0.02 0.01 0.03 9696
0.10 0.11 0.84 -0.77 9.95 0.02 0.02 0.03 9702
0.10 0.06 0.84 -0.77 9.97 0.03 0.02 0.03 9708
0.10 0.07 0.87 -0.79 9.95 0.03 0.03 0.03 9715
0.12 0.03 0.87 -0.80 9.96 0.03 0.03 0.03 9721
0.12 0.02 0.84 -0.85 9.97 0.03 0.04 0.04 9728
0.12 0.01 0.91 -0.84 9.95 0.03 0.04 0.04 9734
0.13 -0.01 0.88 -0.93 9.99 0.04 0.04 0.03 9740
0.15 -0.01 0.85 -0.83 9.97 0.03 0.04 0.04 9746
0.13 -0.01 0.99 -0.83 10.05 0.03 0.04 0.04 9752
0.12 -0.01 0.91 -0.86 10.01 0.04 0.04 0.04 9758
0.13 -0.01 0.88 -0.88 9.98 0.04 0.04 0.04 9765
0.16 -0.02 0.90 -0.87 10.06 0.04 0.04 0.04 9772
0.19 -0.02 0.82 -1.32 9.99 0.05 0.04 0.04 9778
0.20 -0.02 0.84 -0.89 9.97 0.05 0.04 0.04 9784
0.21 -0.01 0.89 -0.86 9.99 0.06 0.04 0.05 9790
0.22 -0.02 0.92 -0.90 10.01 0.07 0.04 0.05 9796
0.23 -0.02 0.99 -0.91 10.03 0.08 0.04 0.05 9802
0.23 -0.02 0.91 -0.92 10.00 0.08 0.04 0.05 9808
0.24 -0.02 0.97 -0.91 10.03 0.09 0.04 0.05 9816
0.26 -0.02 0.98 -0.95 10.01 0.10 0.05 0.05 9822
0.26 -0.02 0.98 -0.96 10.04 0.11 0.05 0.04 9828
0.30 -0.02 1.01 -0.92 10.08 0.13 0.06 0.04 9834
0.29 -0.02 0.98 -0.94 10.08 0.15 0.06 0.04 9840
0.29 -0.02 0.97 -0.99 10.10 0.19 0.07 0.04 9846
0.33 -0.02 0.99 -0.99 10.15 0.22 0.07 0.04 9853
0.35 -0.02 1.07 -0.96 10.15 0.28 0.07 0.03 9860
0.36 -0.03 1.02 -1.02 10.27 0.35 0.08 0.03 9866
0.39 -0.02 1.16 -1.07 10.15 0.41 0.08 0.03 9872
0.39 -0.02 1.03 -1.12 10.15 0.46 0.08 0.02 9878
0.40 -0.03 1.09 -1.19 10.17 0.50 0.07 0.01 9885
0.43 -0.03 1.12 -1.23 10.13 0.54 0.07 0.01 9891
0.43 -0.04 1.18 -1.28 10.07 0.56 0.06 -0.00 9897
0.42 -0.03 1.05 -1.34 10.39 0.57 0.00 -0.01 9904
0.45 -0.04 1.13 -1.40 10.07 0.56 0.01 -0.02 9910
0.44 -0.03 1.11 -1.47 9.98 0.54 0.00 -0.02 9917
0.46 -0.03 1.07 -1.45 10.04 0.53 -0.02 -0.03 9923
0.48 -0.03 1.12 -1.49 9.90 0.50 -0.04 -0.03 9929
0.47 -0.03 1.03 -1.59 9.88 0.47 -0.06 -0.02 9935
0.47 -0.03 1.09 -1.56 9.85 0.43 -0.07 -0.02 9942
0.49 -0.03 1.11 -1.63 9.89 0.41 -0.09 -0.02 9948
0.50 -0.04 1.16 -1.62 9.83 0.39 -0.10 -0.03 9954
0.51 -0.05 1.21 -1.67 9.75 0.38 -0.11 -0.03 9961
0.52 -0.02 1.23 -1.72 9.76 0.37 -0.11 -0.05 9967
0.54 -0.03 1.19 -1.71 9.93 0.35 -0.10 -0.06 9973
0.56 -0.05 1.10 -1.78 9.97 0.35 -0.11 -0.06 9979
0.57 -0.02 1.11 -1.78 9.95 0.36 -0.11 -0.07 9986
0.59 -0.04 1.12 -1.82 9.98 0.36 -0.10 -0.07 9993
0.60 -0.05 1.10 -1.83 9.90 0.37 -0.10 -0.07 9999
0.62 -0.03 1.03 -1.89 9.98 0.38 -0.09 -0.07 10005
0.64 -0.04 1.07 -1.90 10.01 0.39 -0.08 -0.07 10011
0.65 -0.04 1.08 -1.94 10.04 0.40 -0.08 -0.06 10017
0.65 -0.03 1.01 -1.97 10.07 0.42 -0.08 -0.06 10024
0.68 -0.04 1.02 -2.02 9.97 0.43 -0.08 -0.06 10031
0.67 -0.04 1.03 -2.05 9.92 0.45 -0.08 -0.05 10037
0.69 -0.04 1.08 -2.06 9.99 0.46 -0.08 -0.05 10043
0.70 -0.04 1.07 -2.09 10.00 0.47 -0.08 -0.06 10049
0.69 -0.04 1.02 -2.18 9.89 0.49 -0.07 -0.06 10056
0.72 -0.04 1.05 -2.22 10.06 0.50 -0.07 -0.06 10062
0.74 -0.05 1.08 -2.27 10.16 0.52 -0.08 -0.07 10068
0.75 -0.03 1.13 -2.28 10.23 0.56 -0.08 -0.07 10075
0.75 -0.04 1.21 -2.22 10.12 0.59 -0.09 -0.08 10082
0.76 -0.04 1.13 -2.42 10.33 0.64 -0.09 -0.08 10088
0.80 -0.04 1.14 -2.41 10.29 0.69 -0.09 -0.09 10094
0.84 -0.04 1.12 -2.51 10.42 0.75 -0.10 -0.10 10100
0.84 -0.04 1.09 -2.57 10.70 0.81 -0.11 -0.12 10107
0.85 -0.04 1.20 -2.63 10.66 0.89 -0.13 -0.13 10114
0.87 -0.03 1.06 -2.65 10.60 0.97 -0.14 -0.14 10120
0.91 -0.04 1.22 -2.87 10.42 1.03 -0.14 -0.16 10127
0.95 -0.04 1.18 -2.79 10.36 1.10 -0.14 -0.16 10133
1.00 -0.04 0.99 -3.17 10.43 1.17 -0.14 -0.19 10139
1.00 -0.05 0.95 -2.91 10.58 1.24 -0.14 -0.18 10145
0.98 -0.03 0.93 -3.03 10.66 1.31 -0.14 -0.17 10152
1.03 -0.04 0.99 -2.97 10.47 1.40 -0.14 -0.17 10159
1.06 -0.04 0.81 -3.30 10.98 1.48 -0.13 -0.21 10165
1.10 -0.05 1.03 -3.25 10.42 1.61 -0.08 -0.19 10171
1.09 -0.05 0.93 -3.37 10.43 1.69 -0.06 -0.19 10178
1.10 -0.05 0.74 -3.48 10.77 1.81 -0.00 -0.19 10184
1.05 -0.06 0.77 -3.58 10.94 1.94 0.06 -0.18 10190
1.07 -0.03 0.85 -3.70 10.84 2.07 0.13 -0.17 10196
1.03 -0.05 0.78 -3.91 10.92 2.23 0.23 -0.17 10204
0.98 -0.04 0.39 -4.02 11.13 2.39 0.32 -0.14 10210
0.90 -0.04 0.14 -4.17 10.74 2.55 0.46 -0.09 10216
0.80 -0.05 -0.22 -4.43 12.09 2.73 0.62 0.00 10223
0.65 -0.02 -0.16 -4.70 11.96 2.98 0.88 0.10 10229
0.53 -0.03 0.16 -5.02 12.96 3.23 1.16 0.19 10235
0.37 -0.02 -0.00 -5.71 13.37 3.48 1.41 0.28 10242
0.27 -0.02 -1.62 -6.32 14.90 3.67 1.70 0.41 10249
0.23 -0.02 -1.26 -7.69 16.15 3.83 2.04 0.64 10255
0.17 0.00 -0.71 -9.03 19.36 3.84 2.36 0.90 10261
0.14 -0.01 1.32 -10.96 22.90 4.09 2.69 1.09 10267
0.15 -0.01 3.31 -10.49 23.44 4.27 3.10 1.17 10274
0.10 -0.01 2.85 -10.52 21.57 4.28 3.45 1.22 10280
0.10 -0.01 2.86 -10.47 21.26 4.28 3.71 1.25 10287
0.08 -0.01 3.11 -10.50 22.01 4.28 3.78 1.26 10293
0.07 -0.01 6.01 -10.86 22.31 4.28 3.94 1.32 10300
0.07 -0.01 9.60 -10.94 21.94 4.28 4.28 1.39 10306
0.07 -0.01 9.47 -9.75 22.81 4.26 4.28 1.23 10312
0.05 -0.01 6.10 -7.18 23.71 4.19 4.28 0.99 10318
0.05 -0.00 1.64 -4.30 25.51 4.09 4.28 0.65 10326
0.07 -0.01 -3.00 -1.50 24.61 3.95 4.28 0.31 10332
0.02 0.00 -6.54 2.55 21.81 3.68 4.28 -0.12 10338
0.04 -0.00 -7.98 6.71 19.78 3.29 4.28 -0.55 10344
0.05 -0.00 -12.37 12.39 17.67 2.73 4.28 -0.90 10351
0.05 0.00 -14.80 11.64 2.85 2.21 2.97 -1.67 10357
0.04 -0.00 -12.78 9.36 10.05 1.27 0.18 -2.24 10363
0.02 -0.00 -10.73 10.89 9.49 -0.48 -1.57 -2.47 10370
0.05 -0.01 -4.46 10.67 13.44 -1.90 -2.34 -2.54 10377
0.05 -0.00 -0.93 6.54 14.68 -2.58 -2.77 -2.71 10383
0.05 -0.01 0.49 2.83 13.20 -2.85 -2.87 -3.02 10389
0.04 -0.00 1.22 1.34 11.79 -2.95 -2.60 -3.39 10395
0.03 -0.00 2.20 0.94 9.98 -2.92 -2.06 -3.72 10401
0.05 -0.01 2.68 1.06 7.97 -2.86 -1.50 -4.00 10408
0.04 -0.00 2.62 1.70 6.90 -2.83 -1.03 -4.23 10415
0.04 -0.00 2.30 2.44 6.43 -2.85 -0.69 -4.28 10421
0.04 0.00 2.13 2.74 6.83 -2.91 -0.47 -4.28 10427
0.04 -0.00 2.04 2.94 7.43 -3.00 -0.41 -4.28 10433
0.04 -0.00 2.19 2.93 8.05 -3.15 -0.49 -4.28 10439
0.04 0.01 2.31 2.91 9.10 -3.33 -0.70 -4.27 10446
0.04 -0.00 2.79 2.72 10.22 -3.54 -0.93 -4.11 10452
0.02 -0.00 3.42 2.30 11.36 -3.76 -1.13 -3.81 10459
0.04 -0.00 3.18 0.72 11.73 -3.98 -1.24 -3.36 10465
0.04 -0.00 4.37 -0.86 10.77 -4.14 -1.32 -2.79 10472
0.04 -0.00 5.92 -1.09 10.51 -4.25 -1.64 -2.29 10478
0.06 -0.01 6.21 -1.23 10.80 -4.28 -2.05 -1.86 10484
0.05 -0.01 6.43 -2.10 10.88 -4.28 -2.39 -1.45 10490
0.04 -0.00 7.09 -3.11 10.74 -4.28 -2.65 -1.05 10497
0.05 -0.00 8.03 -3.70 10.68 -4.28 -2.82 -0.68 10504
0.03 -0.00 8.74 -4.17 10.39 -4.28 -2.91 -0.37 10510
0.03 0.00 9.42 -4.65 9.84 -4.28 -2.88 -0.11 10516
0.04 -0.00 10.33 -5.02 9.40 -4.28 -2.73 0.08 10522
0.03 -0.00 11.31 -5.44 9.19 -4.28 -2.46 0.24 10528
0.05 -0.01 12.27 -5.92 9.18 -4.23 -2.07 0.36 10535
0.04 -0.00 12.92 -6.45 9.13 -4.14 -1.54 0.47 10542
0.04 -0.00 13.23 -6.98 9.14 -4.00 -0.99 0.57 10548
0.05 -0.00 13.06 -7.46 9.30 -3.82 -0.54 0.69 10554
0.04 -0.00 12.72 -8.54 9.73 -3.64 -0.04 0.84 10561
0.03 -0.00 12.33 -9.09 10.28 -3.46 0.35 1.03 10567
0.04 -0.00 11.73 -9.05 10.71 -3.30 0.60 1.26 10573
0.04 -0.00 11.20 -9.38 10.98 -3.13 0.71 1.48 10579
0.05 -0.01 10.89 -9.54 11.21 -2.96 0.71 1.76 10587
0.03 -0.00 10.89 -9.60 11.29 -2.81 0.66 2.00 10593
0.03 -0.00 10.99 -9.65 11.45 -2.67 0.61 2.20 10599
0.04 -0.00 10.98 -9.62 11.59 -2.55 0.59 2.34 10605
0.04 -0.00 11.27 -9.81 11.76 -2.43 0.66 2.40 10612
0.04 -0.00 11.48 -9.88 11.85 -2.31 0.79 2.39 10618
0.03 -0.00 11.47 -9.90 12.07 -2.21 0.96 2.32 10625
0.03 -0.00 11.34 -9.91 12.30 -2.12 1.17 2.20 10631
0.04 -0.00 10.96 -9.93 12.64 -2.03 1.41 2.06 10638
0.03 -0.00 10.52 -9.85 12.93 -1.96 1.65 1.89 10644
0.04 -0.00 9.98 -9.80 13.06 -1.91 1.85 1.73 10650
0.03 -0.00 9.34 -9.69 13.36 -1.87 2.03 1.57 10656
0.03 -0.00 8.72 -9.53 13.40 -1.84 2.17 1.41 10662
0.05 -0.00 8.18 -9.30 13.74 -1.81 2.29 1.26 10670
0.04 -0.00 7.67 -9.05 13.95 -1.80 2.40 1.13 10676
0.04 -0.00 7.02 -8.90 14.05 -1.80 2.51 1.03 10682
0.04 -0.00 6.44 -8.72 14.21 -1.82 2.59 0.94 10688
0.04 -0.00 5.84 -8.53 14.36 -1.84 2.63 0.86 10694
0.04 -0.00 5.23 -8.42 14.34 -1.84 2.66 0.81 10701
0.04 -0.00 4.79 -8.53 14.21 -1.84 2.68 0.77 10707
0.02 -0.00 4.30 -8.71 14.12 -1.82 2.68 0.73 10714
0.04 -0.00 4.00 -8.89 14.01 -1.76 2.68 0.70 10720
0.04 -0.00 3.79 -9.11 14.09 -1.69 2.69 0.66 10727
0.02 -0.00 3.72 -9.29 14.46 -1.64 2.70 0.63 10733
0.03 -0.00 3.59 -9.58 14.80 -1.60 2.73 0.57 10739
0.04 -0.00 3.42 -9.75 14.95 -1.59 2.75 0.58 10745
0.03 -0.00 3.13 -9.89 15.10 -1.61 2.76 0.56 10752
0.05 -0.00 2.47 -10.12 15.12 -1.67 2.73 0.53 10759
0.03 -0.00 1.73 -10.35 14.76 -1.73 2.65 0.51 10765
0.04 0.00 0.95 -10.67 14.30 -1.78 2.53 0.48 10771
0.04 -0.00 0.27 -11.08 13.50 -1.80 2.39 0.46 10777
0.03 -0.00 -0.25 -11.61 12.58 -1.79 2.21 0.42 10784
0.05 -0.01 -0.54 -12.01 11.98 -1.74 2.04 0.38 10790
0.04 -0.00 -0.70 -12.38 11.43 -1.66 1.90 0.35 10797
0.04 0.00 -1.03 -12.55 10.87 -1.56 1.84 0.34 10803
0.04 -0.00 -1.81 -12.73 10.32 -1.43 1.89 0.39 10810
0.04 -0.00 -2.88 -13.13 10.24 -1.28 1.98 0.50 10816
0.04 -0.00 -4.15 -13.57 10.29 -1.10 1.99 0.65 10822
0.04 -0.00 -5.60 -14.09 10.00 -0.94 1.84 0.79 10828
0.03 -0.00 -7.14 -14.60 9.38 -0.78 1.54 0.91 10835
0.02 -0.00 -8.25 -15.11 8.40 -0.61 1.12 0.99 10842
0.01 -0.00 -8.58 -15.64 7.46 -0.43 0.64 1.05 10848
0.05 -0.00 -8.18 -16.16 6.79 -0.24 0.15 1.07 10854
0.03 -0.00 -7.61 -16.56 6.50 -0.05 -0.24 1.04 10861
0.04 -0.00 -6.96 -17.11 6.61 0.14 -0.51 0.97 10867
0.03 -0.00 -6.36 -17.38 7.07 0.28 -0.70 0.86 10873
0.04 -0.00 -6.31 -17.20 7.52 0.44 -0.81 0.74 10880
0.03 -0.00 -26.54 -17.44 15.82 0.78 -2.29 0.91 10886
0.03 -0.00 1.86 -8.44 8.29 2.56 -4.00 1.78 10893
0.00 0.00 3.78 4.13 6.30 2.31 -4.28 1.36 10899
0.01 -0.00 2.45 9.65 4.05 2.04 -4.27 1.33 10905
0.03 0.01 5.91 2.15 7.89 1.78 -4.28 1.41 10911
0.02 0.01 1.07 7.17 8.89 1.61 -4.27 1.57 10917
0.02 0.08 -1.54 6.53 10.39 2.00 -3.30 1.67 10924
0.02 0.32 -2.79 2.60 5.12 2.53 -2.18 1.70 10931
0.03 0.40 -7.16 -0.65 11.44 3.27 -1.43 1.56 10937
0.01 0.64 -13.79 -3.02 15.92 3.86 -1.10 1.15 10943
0.00 0.81 -13.32 -2.77 17.94 4.11 -1.14 0.40 10950
0.00 0.95 -7.49 -1.92 23.57 4.13 -1.00 -0.40 10956
0.00 0.96 -0.70 -2.31 28.02 3.90 -1.02 -0.97 10962
-0.01 1.02 10.53 -2.98 41.11 2.95 -2.86 -1.04 10969
-0.01 1.04 6.78 -5.11 12.50 1.21 -2.40 -0.21 10976
-0.02 1.17 0.66 -3.70 14.78 0.74 -1.45 0.19 10982
-0.01 1.12 0.91 -2.11 14.03 0.43 -0.92 0.22 10988
-0.00 1.13 0.24 -0.06 10.41 0.43 -1.02 0.15 10995
0.00 1.12 0.65 -0.14 10.76 0.39 -1.09 0.01 11001
-0.01 1.09 1.31 -0.69 10.09 0.30 -0.94 -0.01 11008
-0.02 1.07 1.31 -1.04 16.50 0.24 -0.83 0.00 11014
0.00 1.04 1.14 -0.95 10.25 0.20 -0.73 0.03 11021
0.01 0.99 1.14 -0.48 11.01 0.17 -0.66 0.04 11027
0.01 0.97 0.56 -0.60 10.60 0.10 -0.52 0.03 11033
0.02 0.94 0.72 -0.89 10.47 0.05 -0.35 0.02 11039
-0.01 0.91 0.92 -0.81 10.04 0.02 -0.28 0.03 11046
0.01 0.86 0.68 -0.84 10.16 0.01 -0.22 0.04 11053
-0.01 0.84 0.72 -0.68 10.11 0.01 -0.17 0.04 11059
0.04 0.78 0.76 -0.72 10.01 0.02 -0.15 0.05 11065
0.04 0.72 0.87 -0.73 10.03 0.02 -0.14 0.04 11071
0.03 0.67 0.84 -0.74 10.07 0.02 -0.13 0.05 11078
0.04 0.61 0.85 -0.80 10.01 0.02 -0.11 0.05 11084
0.01 0.53 0.84 -0.75 10.00 0.02 -0.12 0.05 11090
0.03 0.52 0.87 -0.76 9.94 0.01 -0.12 0.03 11097
0.05 0.44 0.86 -0.76 9.97 0.00 -0.12 0.03 11104
0.08 0.36 0.85 -0.77 9.98 0.00 -0.12 0.02 11110
0.07 0.28 0.86 -0.72 10.07 0.00 -0.11 0.02 11116
0.09 0.24 0.81 -0.75 10.00 0.00 -0.10 0.01 11122
0.09 0.19 0.89 -0.69 9.96 0.01 -0.07 0.01 11128
0.09 0.22 0.83 -0.86 10.02 0.01 -0.09 0.01 11136
0.10 0.19 0.75 -0.74 9.94 0.01 -0.08 0.01 11142
0.09 0.16 0.80 -0.78 9.97 0.01 -0.07 0.01 11148
0.11 0.12 0.68 -0.72 10.03 0.02 -0.06 0.02 11154
0.14 0.05 0.76 -0.72 10.05 0.02 -0.04 0.02 11160
0.13 0.04 0.82 -0.77 10.02 0.03 -0.03 0.02 11167
0.15 0.05 0.76 -0.79 10.09 0.03 -0.01 0.03 11173
0.17 0.03 0.75 -0.69 9.99 0.04 -0.00 0.03 11180
0.16 0.00 0.85 -0.74 10.02 0.05 0.00 0.03 11186
0.22 0.01 0.78 -0.80 9.96 0.05 0.00 0.03 11192
0.23 -0.01 0.88 -0.76 10.02 0.06 0.00 0.03 11199
0.24 -0.01 0.90 -0.84 10.09 0.06 0.00 0.04 11205
0.26 -0.02 0.81 -0.84 10.10 0.07 0.01 0.04 11211
0.27 -0.03 0.69 -0.79 9.89 0.06 0.01 0.04 11217
0.29 -0.03 0.83 -0.78 10.06 0.07 0.01 0.04 11224
0.33 -0.02 0.81 -0.76 10.07 0.08 0.00 0.04 11231
0.33 -0.03 0.82 -0.83 10.05 0.09 -0.00 0.04 11237
0.34 -0.02 0.85 -0.81 10.06 0.10 -0.01 0.05 11243
0.39 -0.03 0.91 -0.81 10.04 0.11 -0.02 0.05 11249
0.40 -0.03 0.88 -0.87 10.02 0.13 -0.02 0.05 11256
0.39 -0.02 0.86 -0.84 10.14 0.15 -0.03 0.04 11262
0.42 -0.02 0.87 -0.92 10.13 0.19 -0.03 0.04 11269
0.43 -0.02 0.86 -0.96 10.13 0.22 -0.04 0.04 11275
0.48 -0.02 0.81 -0.94 10.15 0.26 -0.04 0.03 11282
0.51 -0.03 0.86 -1.08 10.08 0.29 -0.04 0.02 11288
0.56 -0.04 1.00 -0.98 10.14 0.32 -0.04 0.01 11294
0.62 -0.05 0.96 -1.11 10.04 0.35 -0.05 0.01 11300
0.62 -0.04 0.71 -1.09 10.23 0.38 -0.05 -0.02 11307
0.65 -0.04 0.89 -1.38 10.18 0.42 -0.07 -0.02 11314
0.66 -0.02 1.02 -1.23 10.04 0.45 -0.09 -0.02 11320
0.69 0.00 0.99 -1.31 10.21 0.46 -0.12 -0.03 11326
0.74 -0.07 0.86 -1.28 10.15 0.47 -0.13 -0.03 11332
0.69 -0.04 0.79 -1.28 10.03 0.48 -0.15 -0.03 11339
0.69 -0.03 0.89 -1.29 10.07 0.47 -0.16 -0.02 11345
0.70 -0.05 0.82 -1.35 10.06 0.46 -0.18 -0.02 11352
0.68 -0.03 0.92 -1.37 10.02 0.45 -0.18 -0.02 11358
0.75 -0.04 0.95 -1.38 10.05 0.45 -0.18 -0.03 11365
0.75 -0.03 0.88 -1.46 9.99 0.44 -0.18 -0.03 11371
0.77 -0.03 0.85 -1.48 9.94 0.44 -0.19 -0.04 11377
0.77 -0.04 0.86 -1.52 9.92 0.42 -0.18 -0.04 11383
0.79 -0.04 0.86 -1.60 10.00 0.41 -0.18 -0.04 11390
0.83 -0.04 0.81 -1.61 10.08 0.41 -0.18 -0.04 11397
0.84 -0.04 0.79 -1.64 10.05 0.42 -0.17 -0.04 11403
0.87 -0.04 0.79 -1.60 10.05 0.42 -0.17 -0.04 11409
0.85 -0.06 0.78 -1.70 10.06 0.42 -0.16 -0.04 11416
0.86 -0.03 0.69 -1.68 10.02 0.43 -0.16 -0.04 11422
0.90 -0.05 0.70 -1.75 9.93 0.44 -0.16 -0.04 11428
0.95 -0.06 0.61 -1.76 10.04 0.44 -0.15 -0.03 11435
0.98 -0.03 0.60 -1.79 10.00 0.44 -0.15 -0.02 11442
1.00 -0.06 0.68 -1.86 9.94 0.45 -0.14 -0.02 11448
1.01 -0.05 0.66 -1.88 10.06 0.46 -0.13 -0.01 11454
1.05 -0.06 0.70 -1.96 10.10 0.48 -0.13 -0.01 11460
1.05 -0.07 0.72 -2.00 10.02 0.49 -0.13 -0.01 11467
1.05 -0.03 0.66 -1.99 10.02 0.49 -0.13 -0.01 11473
1.08 -0.05 0.72 -2.05 9.88 0.49 -0.14 -0.02 11480
1.10 -0.05 0.74 -2.13 9.83 0.49 -0.13 -0.02 11486
1.12 -0.05 0.79 -2.15 9.84 0.48 -0.14 -0.03 11492
1.13 -0.05 0.72 -2.19 9.94 0.47 -0.14 -0.04 11499
1.15 -0.05 0.76 -2.20 9.92 0.48 -0.16 -0.04 11505
1.19 -0.06 0.77 -2.29 9.97 0.48 -0.16 -0.06 11511
1.22 -0.07 0.78 -2.31 9.87 0.50 -0.16 -0.07 11517
1.23 -0.05 0.69 -2.30 9.99 0.50 -0.17 -0.07 11525
1.23 -0.05 0.71 -2.35 10.13 0.51 -0.18 -0.08 11531
1.24 -0.05 0.68 -2.41 10.13 0.54 -0.19 -0.09 11537
1.27 -0.04 0.72 -2.48 10.14 0.56 -0.21 -0.09 11543
1.28 -0.07 0.67 -2.52 10.03 0.59 -0.22 -0.10 11550
1.31 -0.04 0.64 -2.58 10.10 0.62 -0.22 -0.12 11556
1.34 -0.05 0.64 -2.60 10.22 0.66 -0.21 -0.13 11563
1.34 -0.04 0.51 -2.63 10.15 0.69 -0.21 -0.13 11569
1.37 -0.05 0.43 -2.66 10.00 0.72 -0.21 -0.14 11576
1.36 -0.06 0.34 -2.70 9.93 0.74 -0.20 -0.13 11582
1.40 -0.05 0.30 -2.72 9.92 0.76 -0.19 -0.11 11588
1.44 -0.05 0.17 -2.78 9.98 0.79 -0.17 -0.10 11594
1.46 -0.05 0.30 -2.85 10.07 0.82 -0.16 -0.08 11601
1.48 -0.07 0.28 -3.07 10.21 0.86 -0.15 -0.07 11608
1.47 -0.08 0.40 -3.01 10.16 0.92 -0.14 -0.06 11614
1.48 -0.05 0.35 -2.98 10.28 0.98 -0.14 -0.05 11620
1.52 -0.06 0.37 -3.18 10.50 1.05 -0.13 -0.05 11627
1.53 -0.07 0.27 -3.18 10.18 1.13 -0.11 -0.05 11633
1.56 -0.05 0.41 -3.25 10.03 1.19 -0.07 -0.04 11639
1.56 -0.07 0.31 -3.40 10.18 1.27 -0.02 -0.04 11645
1.56 -0.06 0.28 -3.46 10.23 1.34 0.02 -0.03 11653
1.57 -0.07 0.42 -3.55 10.34 1.44 0.07 -0.03 11659
1.56 -0.06 0.43 -3.60 10.38 1.55 0.12 -0.04 11665
1.55 -0.07 0.41 -3.74 10.56 1.67 0.18 -0.04 11672
1.53 -0.07 0.45 -3.78 10.56 1.80 0.23 -0.04 11678
1.51 -0.05 0.29 -3.91 10.27 1.95 0.34 -0.04 11684
1.47 -0.08 -0.09 -4.06 9.92 2.10 0.48 -0.02 11691
1.37 -0.06 -0.25 -4.17 10.43 2.26 0.65 0.02 11698
1.24 -0.05 -0.25 -4.28 10.50 2.45 0.88 0.07 11704
1.10 -0.05 -0.50 -4.53 10.38 2.65 1.14 0.15 11710
0.95 -0.04 -1.08 -4.75 11.29 2.85 1.44 0.25 11716
0.79 -0.05 -1.01 -5.29 12.00 3.04 1.84 0.40 11723
0.60 -0.04 -1.16 -5.95 12.44 3.25 2.28 0.55 11729
0.41 -0.03 -1.29 -6.36 12.67 3.38 2.61 0.74 11736
0.28 -0.02 -1.07 -7.54 14.78 3.46 2.81 0.96 11742
0.22 -0.02 -1.80 -9.31 11.62 3.40 3.27 1.24 11749
0.19 -0.02 0.11 -8.42 18.19 3.24 3.34 1.46 11755
0.14 -0.01 1.07 -10.78 23.90 3.46 3.45 1.63 11761
0.14 -0.01 2.94 -11.37 25.89 3.95 3.72 1.65 11767
0.08 -0.01 1.37 -10.76 22.67 4.25 3.58 1.61 11774
0.07 -0.01 0.03 -10.04 18.95 4.28 3.24 1.66 11781
0.05 -0.00 1.50 -10.16 19.80 4.28 2.83 1.65 11787
0.07 -0.01 3.96 -10.00 20.49 4.28 2.66 1.67 11793
0.05 -0.01 5.77 -8.83 21.08 4.27 2.98 1.63 11800
0.06 -0.01 6.41 -7.34 20.40 4.27 3.41 1.51 11806
0.06 -0.01 6.37 -5.57 20.42 4.25 3.98 1.34 11812
0.07 -0.01 6.01 -3.90 21.86 4.22 4.27 1.12 11819
0.04 0.00 4.33 -2.35 23.33 4.18 4.28 0.83 11826
0.05 -0.00 2.76 0.46 23.72 4.06 4.28 0.51 11832
0.04 -0.00 -0.18 4.26 22.93 3.74 4.28 0.14 11838
0.05 0.00 -1.97 7.29 21.09 3.31 4.28 -0.23 11844
0.06 -0.01 -6.69 10.83 17.70 2.79 4.13 -0.54 11850
0.05 -0.01 -10.51 12.52 4.28 2.36 2.75 -1.49 11857
0.05 -0.01 -11.80 12.65 10.42 1.05 0.10 -2.10 11864
0.03 -0.00 -10.97 15.70 9.47 -1.36 -1.34 -2.37 11870
0.06 -0.01 -3.62 13.59 16.77 -3.04 -1.97 -2.50 11877
0.05 -0.00 -0.82 6.91 17.42 -3.77 -2.46 -2.82 11883
0.04 0.00 -0.57 2.88 14.21 -4.09 -2.65 -3.15 11889
0.06 -0.01 0.15 2.08 12.18 -4.15 -2.47 -3.57 11895
0.04 -0.00 1.30 1.82 9.20 -4.10 -2.02 -3.95 11901
0.06 0.00 1.56 1.45 7.60 -4.03 -1.60 -4.27 11909
0.05 -0.00 1.34 1.58 6.41 -3.97 -1.33 -4.28 11915
0.04 -0.00 1.27 2.06 6.37 -3.93 -1.19 -4.28 11921
0.03 0.00 1.32 2.52 6.82 -3.95 -1.21 -4.28 11927
0.04 -0.00 1.62 2.62 7.64 -4.01 -1.37 -4.28 11933
0.02 -0.00 3.02 2.56 8.68 -4.09 -1.61 -4.28 11940
0.05 0.00 4.14 2.04 9.81 -4.18 -1.87 -4.28 11947
0.04 -0.00 4.77 1.24 10.79 -4.25 -2.04 -4.28 11953
0.03 -0.00 4.11 -0.52 12.02 -4.28 -2.12 -3.94 11959
0.04 -0.00 4.52 -1.75 11.69 -4.28 -1.98 -3.21 11965
0.04 -0.00 7.23 -0.62 11.10 -4.28 -2.23 -2.55 11972
0.03 -0.00 7.96 -1.31 11.79 -4.28 -2.69 -2.08 11978
0.05 -0.01 7.72 -2.22 11.64 -4.28 -2.99 -1.66 11984
0.05 -0.00 8.52 -3.40 11.33 -4.28 -3.10 -1.32 11991
0.04 0.01 9.50 -4.61 11.50 -4.28 -3.12 -0.95 11998
0.04 -0.00 10.30 -5.50 11.30 -4.28 -3.03 -0.62 12004
0.03 -0.00 11.06 -6.29 10.44 -4.28 -2.82 -0.37 12010
0.03 -0.00 11.83 -6.88 10.35 -4.28 -2.47 -0.17 12016
0.03 -0.00 12.59 -7.14 9.49 -4.27 -2.02 0.00 12023
0.03 0.00 13.06 -7.45 9.28 -4.17 -1.52 0.15 12029
0.03 -0.00 13.21 -7.71 9.46 -3.98 -1.01 0.29 12036
0.03 -0.00 12.99 -8.02 9.84 -3.74 -0.54 0.42 12042
0.05 -0.01 12.72 -8.53 10.77 -3.52 -0.09 0.59 12049
0.03 -0.00 12.31 -9.00 11.38 -3.31 0.29 0.79 12055
0.04 -0.00 11.66 -9.27 12.05 -3.13 0.55 1.01 12061
0.04 -0.00 11.31 -9.35 12.71 -2.98 0.74 1.25 12067
0.03 -0.00 10.91 -9.47 13.12 -2.85 0.87 1.49 12075
0.05 -0.00 10.56 -9.64 13.29 -2.75 0.96 1.71 12081
0.04 -0.00 10.36 -9.88 13.45 -2.66 1.05 1.91 12087
0.04 0.00 10.30 -10.14 13.49 -2.56 1.14 2.06 12093
0.04 -0.00 10.25 -10.38 13.54 -2.47 1.28 2.16 12100
0.04 -0.00 10.04 -10.55 13.31 -2.38 1.45 2.22 12106
0.05 -0.00 9.73 -10.66 12.96 -2.29 1.64 2.23 12112
0.03 -0.00 9.23 -10.73 12.63 -2.19 1.81 2.21 12120
0.03 -0.00 8.67 -10.77 12.34 -2.08 1.94 2.17 12126
0.03 -0.00 8.15 -10.71 12.16 -1.95 2.01 2.09 12132
0.05 -0.00 7.72 -10.55 11.97 -1.82 2.03 1.98 12138
0.03 -0.00 7.26 -10.28 11.87 -1.68 2.01 1.84 12145
0.03 -0.00 6.91 -9.97 12.05 -1.55 1.96 1.68 12151
0.02 -0.00 6.59 -9.71 12.24 -1.44 1.92 1.49 12157
0.03 -0.00 6.34 -9.43 12.90 -1.36 1.91 1.29 12164
0.03 0.00 6.06 -9.13 13.57 -1.34 1.93 1.10 12171
0.02 -0.00 5.75 -8.91 14.12 -1.36 1.99 0.92 12177
0.01 -0.00 5.34 -8.73 14.32 -1.42 2.10 0.76 12183
0.04 -0.00 4.88 -8.53 14.44 -1.50 2.22 0.64 12189
0.02 -0.00 4.31 -8.36 14.35 -1.57 2.35 0.54 12195
0.02 -0.00 3.82 -8.22 14.24 -1.65 2.48 0.48 12203
0.04 -0.00 3.23 -8.14 14.14 -1.72 2.58 0.46 12209
0.03 -0.00 2.43 -8.16 13.87 -1.77 2.63 0.47 12215
0.02 -0.00 1.82 -8.25 13.56 -1.80 2.63 0.49 12221
0.03 -0.00 1.04 -8.39 13.21 -1.79 2.55 0.52 12227
0.03 -0.00 0.57 -8.44 13.03 -1.74 2.39 0.53 12234
0.03 0.00 0.38 -8.49 12.93 -1.66 2.19 0.53 12240
0.04 -0.00 0.44 -8.57 12.87 -1.55 1.98 0.53 12247
0.03 -0.00 0.66 -8.75 12.60 -1.42 1.82 0.53 12253
0.03 -0.00 0.92 -8.98 12.13 -1.30 1.72 0.52 12259
0.03 -0.00 1.04 -9.19 11.60 -1.17 1.69 0.51 12266
0.02 -0.00 0.88 -9.45 11.16 -1.05 1.72 0.49 12272
0.03 -0.00 0.46 -9.58 10.85 -0.93 1.78 0.48 12278
0.04 -0.00 -0.04 -9.69 10.83 -0.82 1.87 0.48 12284
0.04 -0.00 -0.58 -9.67 11.21 -0.73 1.97 0.52 12291
0.06 -0.01 -1.36 -9.68 11.70 -0.70 2.07 0.59 12298
0.04 -0.00 -2.45 -9.58 11.88 -0.72 2.11 0.69 12304
0.03 -0.00 -3.58 -9.55 11.74 -0.78 2.05 0.79 12310
0.05 -0.01 -4.56 -9.82 11.00 -0.85 1.87 0.86 12316
0.04 -0.00 -5.08 -10.22 10.02 -0.89 1.62 0.90 12323
0.05 -0.00 -5.51 -10.95 9.00 -0.86 1.30 0.90 12329
0.06 -0.01 -5.72 -11.90 8.16 -0.76 1.09 0.85 12336
0.04 -0.00 -5.54 -13.43 7.42 -0.60 0.82 0.75 12342
0.02 0.00 -4.88 -14.58 6.55 -0.40 0.53 0.57 12348
0.03 -0.00 -3.76 -15.03 5.79 -0.20 0.24 0.30 12355
0.03 -0.00 -2.64 -16.03 4.51 0.02 0.05 0.11 12361
0.03 -0.00 -21.97 -25.93 19.96 1.06 -1.64 0.17 12367
0.03 -0.00 -11.35 -20.36 3.45 1.74 -2.14 0.55 12374
0.02 -0.00 -11.76 -16.73 2.11 2.16 -3.72 0.90 12381
0.03 -0.00 -9.38 -11.73 4.72 2.14 -4.28 1.32 12387
0.03 -0.00 6.20 -1.31 8.30 2.05 -4.28 1.44 12393
0.03 0.01 4.64 1.72 16.78 2.14 -4.28 1.59 12399
0.03 0.04 5.17 7.67 22.55 2.50 -3.00 1.96 12405
-0.00 0.18 1.16 10.28 7.71 2.35 -1.49 2.47 12412
0.02 0.39 -5.56 4.46 5.99 2.60 -1.18 2.50 12419
0.04 0.54 -14.03 -3.09 20.24 3.04 -0.81 2.19 12425
0.04 0.77 -21.54 -5.70 15.77 3.24 -0.96 1.40 12432
-0.02 0.93 -15.55 -4.82 19.64 3.61 -0.97 0.28 12438
-0.01 1.00 -8.12 -1.00 24.88 3.48 -0.89 -0.70 12444
-0.01 1.11 -0.97 -1.67 25.12 2.88 -0.85 -1.38 12451
-0.01 1.17 11.34 -3.32 28.48 2.04 -1.36 -1.37 12457
-0.00 1.14 9.26 -4.85 10.72 0.63 -1.64 -0.53 12464
-0.02 1.15 3.92 -3.40 12.46 0.68 -1.16 0.09 12470
-0.00 1.13 2.42 -1.70 9.90 0.69 -1.04 0.32 12477
0.00 1.10 0.01 0.22 11.00 0.70 -1.33 0.28 12483
-0.01 1.06 -0.39 -0.16 11.44 0.61 -1.43 0.10 12489
0.00 1.03 0.74 -0.35 10.68 0.41 -1.16 0.02 12495
-0.03 1.03 1.08 -1.19 10.50 0.29 -0.95 0.01 12503
0.01 1.02 3.25 -0.55 7.12 0.25 -0.80 0.04 12509
0.02 1.02 1.35 -0.75 9.99 0.20 -0.67 0.06 12515
0.01 1.04 0.87 -0.33 9.74 0.12 -0.47 0.06 12521
0.01 1.00 0.30 -0.74 10.29 0.04 -0.31 0.04 12527
0.01 0.98 0.68 -0.90 10.01 0.02 -0.25 0.03 12534
0.01 0.93 0.90 -0.91 10.00 0.00 -0.21 0.04 12540
0.00 0.89 0.63 -0.76 10.11 0.00 -0.18 0.06 12547
0.01 0.83 0.57 -0.69 10.16 0.00 -0.16 0.05 12553
0.04 0.78 0.62 -0.65 10.06 0.00 -0.16 0.06 12560
0.05 0.70 0.68 -0.70 10.09 0.01 -0.15 0.06 12566
0.04 0.66 0.68 -0.70 10.00 0.01 -0.15 0.06 12572
0.04 0.64 0.72 -0.77 9.97 0.01 -0.14 0.05 12578
0.07 0.59 0.80 -0.78 10.06 0.01 -0.14 0.04 12584
0.09 0.59 0.76 -0.74 10.00 0.01 -0.14 0.03 12592
0.08 0.52 0.73 -0.74 10.05 0.01 -0.14 0.02 12598
0.07 0.46 0.77 -0.80 9.97 0.00 -0.13 0.02 12604
0.10 0.44 0.72 -0.76 10.00 0.01 -0.12 0.01 12610
0.13 0.38 0.67 -0.78 9.92 0.01 -0.11 0.01 12617
0.15 0.33 0.61 -0.79 10.00 0.01 -0.09 0.01 12623
0.16 0.31 0.79 -0.95 10.14 0.01 -0.08 0.01 12630
0.17 0.23 0.65 -0.74 10.02 0.02 -0.07 0.02 12636
0.20 0.23 0.62 -0.72 10.02 0.02 -0.07 0.02 12643
0.22 0.17 0.60 -0.74 10.13 0.03 -0.06 0.02 12649
0.23 0.14 0.71 -0.94 9.97 0.03 -0.06 0.02 12655
0.26 0.14 0.68 -0.79 10.01 0.03 -0.07 0.03 12661
0.29 0.08 0.61 -0.81 10.06 0.04 -0.07 0.03 12667
0.30 0.09 0.64 -0.84 9.99 0.04 -0.07 0.02 12675
0.34 0.06 0.68 -0.80 9.99 0.04 -0.07 0.02 12681
0.38 0.03 0.61 -0.74 9.98 0.04 -0.06 0.02 12687
0.37 0.00 0.65 -0.71 10.04 0.04 -0.06 0.02 12693
0.43 0.00 0.67 -0.86 10.04 0.04 -0.06 0.02 12699
0.45 -0.02 0.70 -0.82 10.03 0.04 -0.06 0.02 12706
0.48 -0.01 0.71 -0.98 10.07 0.04 -0.05 0.02 12712
0.52 -0.02 0.67 -0.82 10.02 0.04 -0.05 0.03 12719
0.54 -0.03 0.00 -0.81 10.01 0.04 -0.05 0.03 12725
0.55 -0.02 0.64 -0.80 10.04 0.04 -0.05 0.03 12731
0.56 -0.04 0.66 -0.60 9.98 0.04 -0.05 0.03 12738
0.57 -0.04 0.67 -0.83 10.02 0.05 -0.05 0.03 12744
0.59 -0.03 0.69 -0.83 10.11 0.05 -0.05 0.03 12750
0.61 -0.04 0.67 -0.85 10.02 0.05 -0.06 0.03 12756
0.63 -0.04 0.68 -0.86 10.12 0.06 -0.06 0.03 12764
0.67 -0.04 0.65 -0.85 10.10 0.06 -0.06 0.02 12770
0.68 -0.05 0.66 -0.85 10.02 0.07 -0.07 0.03 12776
0.70 -0.04 0.64 -0.85 10.05 0.08 -0.07 0.02 12782
0.72 -0.04 0.67 -0.83 10.01 0.08 -0.08 0.02 12789
0.74 -0.04 0.75 -0.95 10.03 0.09 -0.08 0.02 12795
0.76 -0.06 0.58 -0.95 10.05 0.10 -0.08 0.02 12802
0.77 -0.06 0.57 -0.94 10.00 0.10 -0.07 0.02 12808
0.78 -0.06 0.53 -0.94 10.00 0.11 -0.08 0.02 12814
0.81 -0.05 0.57 -0.86 10.08 0.12 -0.08 0.02 12821
0.82 -0.05 0.60 -0.97 10.09 0.13 -0.08 0.03 12827
0.86 -0.04 0.58 -0.92 10.08 0.14 -0.09 0.03 12833
0.86 -0.07 0.64 -1.02 10.06 0.16 -0.10 0.04 12839
0.84 -0.05 0.57 -0.99 10.06 0.18 -0.11 0.04 12847
0.91 -0.04 0.66 -1.05 10.10 0.19 -0.11 0.05 12853
0.90 -0.04 0.55 -1.04 10.11 0.21 -0.11 0.04 12859
0.92 -0.02 0.62 -1.04 10.15 0.23 -0.12 0.05 12865
0.95 -0.04 0.51 -1.07 10.06 0.25 -0.11 0.05 12872
0.98 -0.04 0.60 -1.12 10.16 0.28 -0.11 0.06 12878
1.00 -0.05 0.61 -1.13 10.14 0.33 -0.11 0.05 12884
0.99 -0.05 0.65 -1.17 10.15 0.32 -0.10 0.05 12891
0.99 -0.05 0.53 -1.14 10.32 0.34 -0.10 0.05 12898
0.98 -0.04 0.68 -1.24 10.13 0.35 -0.10 0.04 12904
0.98 -0.04 0.60 -1.24 10.09 0.36 -0.10 0.04 12910
1.01 -0.05 0.67 -1.31 10.10 0.36 -0.09 0.04 12916
1.01 -0.05 0.67 -1.31 10.16 0.37 -0.10 0.03 12923
1.03 -0.05 0.70 -1.37 10.16 0.38 -0.10 0.03 12930
1.03 -0.05 0.68 -1.42 10.13 0.38 -0.09 0.02 12936
1.01 -0.05 0.73 -1.40 10.15 0.41 -0.09 0.00 12942
1.03 -0.06 0.69 -1.43 10.13 0.42 -0.08 -0.01 12949
1.07 -0.05 0.74 -1.56 10.04 0.43 -0.07 -0.02 12955
1.05 -0.04 0.64 -1.53 9.97 0.42 -0.06 -0.03 12961
1.05 -0.04 0.59 -1.53 9.87 0.41 -0.05 -0.03 12967
1.05 -0.06 0.51 -1.51 9.90 0.40 -0.03 -0.03 12975
1.07 -0.04 0.57 -1.57 9.94 0.40 -0.03 -0.02 12981
1.10 -0.05 0.60 -1.63 10.10 0.40 -0.01 -0.02 12987
1.14 -0.05 0.59 -1.62 10.20 0.41 -0.01 -0.02 12993
1.19 -0.05 0.71 -1.71 10.34 0.44 -0.02 -0.03 12999
1.20 -0.06 0.63 -1.78 10.33 0.48 -0.02 -0.03 13006
1.22 -0.04 0.65 -1.75 10.36 0.51 -0.01 -0.04 13012
1.25 -0.05 0.61 -1.82 10.37 0.54 -0.01 -0.04 13019
1.24 -0.05 0.71 -1.86 10.36 0.58 -0.01 -0.04 13025
1.28 -0.04 0.79 -1.97 10.24 0.63 0.00 -0.06 13032
1.31 -0.06 0.75 -1.98 10.00 0.66 0.02 -0.09 13038
1.34 -0.05 0.65 -1.90 10.02 0.68 0.04 -0.10 13044
1.35 -0.04 0.57 -2.08 10.15 0.70 0.04 -0.09 13050
1.35 -0.05 0.47 -2.03 10.16 0.71 0.04 -0.08 13058
1.39 -0.06 0.66 -2.19 10.07 0.73 0.06 -0.08 13064
1.37 -0.06 0.63 -2.23 10.12 0.76 0.09 -0.09 13070
1.37 -0.05 0.65 -2.23 10.20 0.81 0.14 -0.09 13076
1.38 -0.06 0.65 -2.34 10.16 0.86 0.18 -0.10 13083
1.36 -0.06 0.58 -2.45 10.10 0.91 0.23 -0.10 13089
1.36 -0.06 0.60 -2.47 10.59 0.96 0.23 -0.09 13095
1.32 -0.06 0.89 -2.61 10.99 1.04 0.20 -0.08 13103
1.32 -0.04 0.86 -2.68 10.84 1.15 0.16 -0.09 13109
1.33 -0.06 0.64 -2.67 10.63 1.24 0.18 -0.09 13115
1.32 -0.06 0.57 -2.80 10.73 1.32 0.19 -0.09 13121
1.30 -0.05 0.74 -2.88 11.03 1.41 0.21 -0.07 13128
1.24 -0.06 0.86 -2.98 10.71 1.54 0.26 -0.08 13134
1.25 -0.05 0.82 -3.22 10.65 1.66 0.31 -0.08 13140
1.21 -0.06 0.81 -3.19 10.94 1.78 0.39 -0.08 13147
1.16 -0.04 0.45 -3.43 10.14 1.92 0.47 -0.08 13154
1.08 -0.05 0.89 -3.61 11.01 2.09 0.59 -0.08 13160
0.99 -0.04 0.64 -3.41 11.17 2.26 0.72 -0.08 13166
0.95 -0.04 0.80 -3.84 11.15 2.43 0.87 -0.06 13172
0.86 -0.05 0.32 -3.88 11.67 2.60 1.04 -0.02 13179
0.77 -0.02 0.44 -4.27 11.71 2.81 1.25 0.03 13186
0.62 -0.03 0.17 -4.35 12.75 3.00 1.51 0.11 13192
0.47 -0.02 0.41 -4.68 12.30 3.21 1.74 0.19 13198
0.33 -0.02 -0.06 -4.79 10.81 3.31 1.95 0.28 13205
0.26 -0.03 -0.53 -5.27 12.98 3.35 2.15 0.43 13211
0.18 -0.01 -0.03 -6.47 14.94 3.51 2.41 0.60 13217
0.14 -0.01 0.26 -9.45 17.94 3.68 2.75 0.76 13223
0.10 -0.01 0.91 -8.90 20.29 3.97 3.06 0.91 13231
0.16 -0.01 2.10 -10.12 23.02 4.21 3.34 1.04 13237
0.11 -0.01 3.05 -10.39 23.70 4.28 3.53 1.17 13243
0.08 0.00 4.50 -10.68 22.39 4.28 3.70 1.28 13249
0.07 -0.01 3.77 -10.69 22.58 4.28 3.86 1.33 13256
0.05 -0.00 5.97 -11.43 23.81 4.28 3.95 1.39 13262
0.06 -0.01 9.01 -10.58 22.81 4.28 4.27 1.50 13268
0.06 -0.01 10.26 -9.13 23.75 4.28 4.28 1.44 13276
0.06 -0.00 7.60 -7.91 26.46 4.27 4.28 1.20 13282
0.05 -0.00 2.79 -5.85 28.38 4.23 4.28 0.86 13288
0.03 -0.00 -3.02 -2.43 27.42 4.19 4.28 0.51 13294
0.06 -0.01 -7.21 1.33 24.19 4.08 4.28 0.09 13300
0.05 -0.01 -8.67 6.84 20.67 3.75 4.28 -0.36 13307
0.06 -0.00 -8.55 10.32 19.06 3.26 4.28 -0.73 13314
0.05 -0.01 -18.05 14.34 12.52 2.76 3.04 -1.46 13320
0.05 -0.01 -10.58 10.74 10.79 2.16 0.52 -2.38 13327
0.04 -0.00 -10.51 10.84 10.91 0.66 -2.23 -2.69 13333
0.03 -0.00 -6.09 12.89 12.92 -1.31 -3.00 -2.82 13339
0.05 -0.00 -0.32 10.18 16.28 -2.66 -3.25 -3.03 13345
0.05 -0.00 1.52 5.34 16.46 -3.22 -3.11 -3.46 13352
0.05 -0.00 2.06 2.59 14.22 -3.52 -2.63 -3.98 13359
0.04 -0.00 2.69 2.00 11.81 -3.62 -1.94 -4.28 13365
0.04 -0.00 2.66 2.20 9.74 -3.61 -1.12 -4.28 13371
0.04 0.00 2.18 2.69 8.15 -3.57 -0.48 -4.28 13377
0.04 -0.00 1.37 3.31 7.53 -3.60 -0.12 -4.28 13384
0.04 -0.00 0.95 3.78 7.54 -3.67 0.05 -4.28 13390
0.05 0.01 0.79 4.05 8.19 -3.79 0.01 -4.28 13396
0.05 -0.00 1.14 4.11 8.71 -3.95 -0.23 -4.28 13403
0.04 -0.00 1.86 3.65 9.23 -4.08 -0.63 -4.28 13409
0.04 -0.00 1.92 2.74 9.85 -4.21 -0.98 -4.28 13415
0.04 -0.00 1.25 1.61 11.58 -4.25 -1.13 -4.28 13422
0.03 -0.00 3.06 1.06 11.08 -4.28 -1.24 -3.94 13428
0.03 -0.00 5.52 0.76 11.16 -4.28 -1.71 -3.37 13434
0.03 -0.00 6.38 -0.07 11.41 -4.28 -2.25 -2.88 13441
0.04 -0.00 6.88 -1.12 11.50 -4.28 -2.67 -2.43 13448
0.05 -0.01 8.25 -2.05 11.18 -4.28 -2.99 -2.02 13454
0.05 -0.00 9.73 -3.51 11.34 -4.28 -3.16 -1.66 13460
0.04 -0.00 10.85 -3.83 11.04 -4.28 -3.14 -1.36 13466
0.04 -0.00 11.81 -5.40 10.68 -4.28 -2.95 -1.10 13473
0.04 -0.00 12.78 -5.68 10.12 -4.28 -2.59 -0.89 13479
0.04 -0.00 13.71 -6.40 9.68 -4.28 -2.12 -0.72 13486
0.03 -0.00 14.49 -6.94 9.30 -4.28 -1.57 -0.57 13492
0.04 -0.00 14.91 -7.28 8.89 -4.27 -0.95 -0.46 13498
0.06 -0.01 15.12 -7.70 8.96 -4.16 -0.31 -0.31 13505
0.04 -0.00 14.82 -8.01 9.36 -3.99 0.32 -0.12 13511
0.04 -0.00 14.33 -8.66 10.07 -3.76 0.88 0.10 13517
0.04 -0.00 13.82 -9.30 11.08 -3.55 1.32 0.37 13523
0.03 -0.00 13.03 -9.70 11.90 -3.35 1.65 0.66 13531
0.05 -0.01 12.28 -10.31 12.76 -3.17 1.90 0.97 13537
0.03 -0.00 11.43 -10.79 13.22 -3.03 2.04 1.29 13543
0.04 -0.00 10.91 -11.20 13.71 -2.88 2.16 1.58 13550
0.04 -0.00 10.54 -11.79 13.75 -2.73 2.25 1.83 13556
0.04 -0.00 10.12 -12.35 14.09 -2.58 2.38 2.02 13562
0.03 -0.00 9.53 -13.04 14.24 -2.42 2.51 2.17 13569
0.02 -0.00 8.82 -13.29 14.27 -2.27 2.59 2.27 13576
0.03 -0.00 7.93 -13.10 14.24 -2.12 2.59 2.34 13582
0.02 -0.00 7.23 -12.72 14.14 -1.97 2.54 2.36 13588
0.03 -0.00 6.68 -12.45 14.13 -1.84 2.43 2.35 13595
0.02 -0.00 6.19 -12.60 14.12 -1.72 2.32 2.28 13601
0.03 -0.00 5.76 -12.67 14.12 -1.61 2.20 2.20 13607
0.03 -0.00 6.98 -14.44 11.37 -1.52 2.12 2.09 13614
0.02 -0.00 8.07 -11.84 12.25 -1.37 2.02 2.03 13621
0.03 -0.00 5.36 -11.53 13.38 -1.36 1.97 1.85 13627
0.03 -0.00 5.32 -11.52 14.52 -1.30 2.07 1.71 13633
0.03 -0.00 5.36 -11.21 14.89 -1.29 2.20 1.58 13639
0.03 -0.00 5.29 -11.06 15.47 -1.29 2.36 1.47 13646
0.03 -0.00 4.97 -11.06 15.75 -1.32 2.55 1.37 13652
0.04 -0.00 4.60 -11.26 15.63 -1.39 2.75 1.29 13659
0.02 -0.00 4.16 -11.49 15.43 -1.48 2.91 1.23 13665
0.03 0.00 3.51 -11.72 15.18 -1.57 3.00 1.18 13672
0.02 -0.00 2.75 -11.92 14.93 -1.67 3.02 1.14 13678
0.03 -0.00 1.88 -12.00 14.34 -1.74 2.96 1.11 13684
0.03 -0.00 1.16 -12.19 13.47 -1.77 2.82 1.08 13691
0.01 -0.00 0.66 -12.29 12.55 -1.77 2.62 1.03 13698
0.04 -0.00 0.35 -12.37 11.05 -1.72 2.39 0.96 13704
0.03 -0.00 0.18 -12.50 10.91 -1.63 2.14 0.87 13710
0.03 -0.00 0.29 -12.56 10.39 -1.51 1.95 0.74 13717
0.03 -0.00 0.48 -12.49 10.02 -1.37 1.80 0.60 13723
0.02 -0.00 0.44 -12.29 9.79 -1.22 1.70 0.45 13729
0.04 -0.00 0.35 -12.07 9.66 -1.08 1.65 0.31 13735
0.05 -0.00 0.06 -11.86 9.49 -0.94 1.65 0.19 13742
0.04 -0.00 -0.36 -11.73 9.05 -0.82 1.67 0.10 13749
0.04 -0.00 -1.19 -11.56 8.39 -0.68 1.75 0.04 13755
0.05 -0.00 -2.15 -11.57 7.97 -0.51 1.92 0.05 13761
0.04 -0.00 -2.98 -11.70 8.00 -0.35 2.11 0.13 13767
0.06 -0.01 -3.75 -11.96 8.52 -0.14 2.19 0.22 13773
0.02 -0.00 -4.85 -12.43 8.81 0.06 2.08 0.29 13780
0.03 -0.00 -5.39 -12.83 8.64 0.22 1.84 0.34 13787
0.05 -0.00 -5.26 -13.10 8.55 0.34 1.43 0.38 13793
0.02 -0.00 -5.56 -13.23 8.71 0.41 0.92 0.42 13799
0.02 -0.00 -6.07 -13.33 8.64 0.47 0.37 0.48 13805
0.05 -0.00 -6.62 -13.45 8.42 0.52 -0.16 0.52 13812
0.03 -0.00 -6.68 -13.44 8.07 0.59 -0.68 0.56 13818
0.03 -0.00 -7.26 -14.20 8.16 0.70 -1.14 0.61 13825
0.04 -0.00 -34.85 -17.33 37.04 2.33 -4.27 1.27 13831
0.02 -0.00 -0.79 -4.93 12.60 2.20 -4.28 2.03 13837
0.03 -0.00 2.82 4.85 4.50 1.78 -4.28 1.78 13844
0.02 -0.00 5.55 1.72 7.30 1.44 -4.28 1.76 13850
0.02 0.01 3.07 3.19 10.33 1.05 -4.28 1.84 13856
0.02 0.02 -2.58 8.44 12.41 0.87 -4.28 1.97 13862
0.04 0.10 -3.49 8.44 13.90 1.25 -3.98 1.86 13870
0.03 0.34 -6.74 3.51 8.69 1.94 -2.54 1.79 13876
0.03 0.52 -10.46 0.32 8.80 2.75 -1.77 1.51 13882
0.01 0.75 -16.93 -2.57 17.28 3.45 -1.62 0.86 13888
0.01 0.95 -15.03 -2.26 17.22 3.83 -1.85 -0.12 13895
-0.02 0.97 -5.00 -1.19 20.96 3.86 -1.69 -0.99 13901
0.00 1.03 4.28 -3.11 25.72 3.59 -1.28 -1.30 13907
-0.01 1.06 6.67 -4.85 37.42 2.15 -2.65 -0.90 13915
-0.00 1.12 5.72 -4.51 10.84 0.96 -1.80 -0.01 13921
-0.00 1.10 1.03 -3.53 14.11 0.59 -0.96 0.29 13927
-0.02 1.20 0.53 -1.70 11.68 0.42 -0.64 0.38 13933
0.01 1.13 -0.58 0.09 11.09 0.39 -0.73 0.26 13940
-0.01 1.11 0.37 -0.06 10.73 0.29 -0.59 0.11 13946
0.00 1.09 1.29 -0.66 10.20 0.23 -0.45 0.09 13953
-0.01 1.04 1.17 -0.97 9.99 0.20 -0.37 0.12 13959
-0.01 1.00 1.01 -0.77 10.12 0.20 -0.37 0.13 13966
0.03 0.97 0.83 -0.44 10.24 0.17 -0.33 0.11 13972
0.02 0.94 0.89 -0.76 10.27 0.14 -0.30 0.07 13978
0.02 0.86 1.10 -0.92 9.98 0.11 -0.24 0.05 13984
0.02 0.79 1.07 -0.75 10.10 0.10 -0.22 0.05 13991
-0.01 0.75 0.93 -0.64 10.13 0.09 -0.19 0.06 13998
0.02 0.69 0.75 -0.74 10.16 0.09 -0.12 0.06 14004
0.02 0.58 0.81 -0.85 10.15 0.07 -0.07 0.07 14010
0.02 0.56 0.89 -0.77 10.17 0.06 -0.03 0.07 14017
0.02 0.56 0.91 -0.70 10.02 0.06 -0.01 0.08 14023
0.02 0.47 0.77 -0.66 9.95 0.06 0.02 0.08 14029
0.02 0.44 1.04 -0.71 9.95 0.06 0.02 0.08 14035
0.03 0.31 1.08 -0.72 10.05 0.06 0.03 0.07 14042
0.02 0.27 0.88 -0.74 9.97 0.06 0.03 0.07 14049
0.03 0.24 1.04 -0.73 9.95 0.06 0.04 0.06 14055
0.05 0.21 1.04 -0.76 9.93 0.06 0.04 0.06 14061
0.03 0.15 1.06 -0.75 10.03 0.05 0.04 0.05 14067
0.04 0.13 1.07 -0.71 9.94 0.05 0.03 0.04 14073
0.04 0.11 1.06 -0.75 9.98 0.05 0.03 0.03 14080
0.04 0.04 1.07 -0.79 9.99 0.05 0.03 0.03 14087
0.04 0.03 1.05 -0.79 10.00 0.05 0.03 0.03 14093
0.05 -0.00 1.11 -0.88 9.96 0.05 0.02 0.03 14099
0.04 -0.00 1.01 -0.85 10.00 0.05 0.02 0.03 14105
0.05 -0.00 1.11 -0.86 9.95 0.04 0.02 0.03 14111
0.05 -0.01 1.05 -0.81 9.88 0.05 0.02 0.07 14117
0.05 -0.01 1.11 -0.87 9.97 0.05 0.01 0.04 14125
0.04 -0.00 1.10 -0.86 9.97 0.05 0.00 0.03 14131
0.05 -0.00 1.13 -1.18 9.91 0.05 -0.01 0.03 14137
0.05 -0.01 1.15 -0.90 9.86 0.05 -0.02 0.03 14143
0.05 -0.01 1.52 -0.75 9.83 0.06 -0.03 0.03 14149
0.06 -0.01 1.17 -0.80 9.98 0.05 -0.04 0.02 14155
0.12 -0.01 1.21 -0.86 9.99 0.06 -0.07 0.02 14161
0.08 -0.01 1.17 -0.85 9.95 0.06 -0.10 0.01 14168
0.10 -0.01 1.22 -0.71 9.95 0.07 -0.14 0.01 14175
0.11 0.00 1.17 -0.99 10.10 0.08 -0.18 0.01 14181
0.13 -0.01 1.13 -0.86 10.12 0.09 -0.23 -0.00 14187
0.13 -0.00 1.27 -0.72 10.10 0.11 -0.28 -0.01 14193
0.22 -0.01 1.12 -0.93 10.04 0.11 -0.32 -0.01 14199
0.26 -0.02 1.13 -0.89 10.03 0.11 -0.34 -0.03 14206
0.28 -0.01 1.04 -1.02 10.03 0.10 -0.35 -0.04 14213
0.31 -0.01 1.02 -1.07 10.05 0.10 -0.34 -0.05 14219
0.33 -0.02 0.87 -1.03 10.07 0.10 -0.32 -0.05 14225
0.38 -0.01 0.90 -1.08 10.01 0.12 -0.30 -0.05 14232
0.39 -0.02 0.83 -0.99 10.07 0.13 -0.28 -0.06 14238
0.42 -0.02 0.88 -1.07 9.91 0.13 -0.25 -0.05 14244
0.45 -0.03 0.67 -1.06 10.06 0.14 -0.23 -0.05 14251
0.55 -0.05 0.72 -0.99 10.08 0.16 -0.23 -0.04 14258
0.57 -0.04 0.75 -1.07 10.10 0.18 -0.22 -0.02 14264
0.58 -0.05 0.77 -1.06 9.98 0.19 -0.20 -0.01 14270
0.60 -0.04 0.76 -1.08 10.06 0.19 -0.19 0.00 14276
0.63 -0.04 0.70 -1.06 10.03 0.21 -0.17 0.01 14283
0.64 -0.04 0.75 -1.10 10.08 0.23 -0.16 0.01 14289
0.67 -0.03 0.79 -1.19 10.16 0.26 -0.16 0.02 14296
0.68 -0.04 0.79 -1.15 10.13 0.30 -0.16 0.02 14302
0.68 -0.04 0.85 -1.22 10.09 0.33 -0.16 0.02 14309
0.71 -0.05 0.85 -1.18 10.16 0.35 -0.15 0.01 14315
0.74 -0.05 0.82 -1.28 10.09 0.38 -0.15 0.01 14321
0.74 -0.03 0.78 -1.31 10.10 0.40 -0.15 0.01 14327
0.78 -0.04 0.76 -1.34 10.10 0.41 -0.14 0.00 14334
0.78 -0.04 0.74 -1.35 10.13 0.42 -0.15 0.01 14341
0.81 -0.04 0.72 -1.41 10.11 0.43 -0.14 0.01 14347
0.79 -0.05 0.67 -1.39 10.06 0.43 -0.13 0.01 14353
0.81 -0.03 0.74 -1.48 9.99 0.44 -0.11 0.02 14360
0.82 -0.04 0.72 -1.50 9.80 0.42 -0.08 0.02 14366
0.82 -0.04 0.68 -1.56 9.78 0.39 -0.04 0.02 14372
0.83 -0.03 0.77 -1.57 9.74 0.37 0.00 0.02 14379
0.84 -0.04 0.74 -1.62 9.89 0.35 0.03 0.02 14385
0.84 -0.05 0.84 -1.64 9.96 0.35 0.05 0.02 14392
0.85 -0.04 0.84 -1.65 9.94 0.35 0.06 0.01 14398
0.85 -0.05 0.80 -1.66 10.01 0.37 0.07 0.00 14404
0.84 -0.04 0.79 -1.73 10.07 0.38 0.08 -0.00 14410
0.88 -0.04 0.86 -1.71 10.04 0.39 0.08 -0.00 14416
0.86 -0.06 0.86 -1.79 10.04 0.40 0.09 -0.01 14424
0.85 -0.03 0.82 -1.83 10.08 0.41 0.10 -0.01 14430
0.87 -0.04 0.83 -1.84 10.06 0.43 0.11 -0.01 14436
0.87 -0.04 0.86 -1.91 10.22 0.44 0.10 -0.01 14442
0.88 -0.04 0.95 -1.94 10.27 0.48 0.09 -0.03 14449
0.89 -0.05 1.00 -1.97 10.31 0.54 0.08 -0.04 14455
0.89 -0.03 0.98 -2.04 10.34 0.59 0.08 -0.06 14461
0.93 -0.03 0.95 -2.07 10.25 0.63 0.08 -0.07 14468
0.93 -0.04 0.94 -2.12 10.22 0.66 0.07 -0.07 14475
0.98 -0.04 1.02 -2.16 10.33 0.70 0.08 -0.09 14481
0.98 -0.05 1.01 -2.19 10.43 0.75 0.09 -0.10 14487
0.98 -0.04 1.13 -2.31 10.39 0.80 0.10 -0.11 14493
0.97 -0.05 1.05 -2.33 10.31 0.85 0.07 -0.13 14500
0.98 -0.04 0.98 -2.38 10.43 0.90 0.10 -0.14 14507
1.01 -0.04 1.01 -2.44 10.70 0.97 0.10 -0.14 14513
1.01 -0.05 0.89 -2.55 10.72 1.05 0.11 -0.14 14519
0.99 -0.03 0.79 -2.58 10.51 1.12 0.11 -0.14 14526
1.05 -0.05 0.84 -2.62 10.43 1.18 0.12 -0.13 14532
1.03 -0.04 0.95 -2.78 10.48 1.25 0.12 -0.14 14538
1.04 -0.05 0.97 -2.82 10.39 1.33 0.14 -0.14 14545
1.02 -0.04 0.95 -2.91 10.58 1.40 0.18 -0.13 14552
1.01 -0.04 0.96 -3.05 10.73 1.49 0.22 -0.13 14558
1.01 -0.04 0.98 -3.14 10.34 1.60 0.28 -0.13 14564
0.96 -0.04 1.09 -3.33 12.15 1.71 0.33 -0.12 14571
0.96 -0.04 1.15 -3.23 11.27 1.85 0.50 -0.11 14577
0.89 -0.04 0.75 -3.51 10.56 1.98 0.64 -0.11 14583
0.84 -0.04 0.09 -3.60 10.55 2.10 0.79 -0.07 14589
0.70 -0.05 0.23 -3.98 11.61 2.23 1.03 -0.01 14597
0.64 -0.03 0.54 -4.09 12.26 2.40 1.33 0.08 14603
0.50 -0.03 0.29 -4.39 12.20 2.62 1.69 0.17 14609
0.33 -0.03 0.58 -4.29 12.09 2.80 2.09 0.26 14615
0.29 -0.02 0.03 -4.84 12.54 2.90 2.51 0.38 14622
0.20 -0.02 -0.51 -5.92 15.51 2.99 2.83 0.55 14628
0.13 -0.01 -0.61 -6.13 17.60 3.20 3.49 0.78 14635
0.14 -0.01 0.66 -7.41 19.36 3.50 4.13 0.92 14641
0.11 -0.01 1.40 -8.30 21.13 3.82 4.28 1.10 14648
0.11 -0.01 2.81 -9.27 22.99 4.11 4.28 1.29 14654
0.09 -0.00 4.90 -9.55 23.31 4.24 4.28 1.45 14660
0.08 -0.01 5.78 -9.96 23.57 4.27 4.28 1.61 14666
0.11 -0.01 8.11 -9.92 24.30 4.27 4.28 1.73 14673
0.08 -0.01 10.74 -9.61 25.54 4.19 4.28 1.76 14680
0.09 0.00 10.10 -9.04 26.67 4.08 4.28 1.61 14686
0.05 -0.01 5.30 -7.53 27.50 4.00 4.28 1.27 14692
0.04 -0.00 -0.47 -4.89 28.40 4.02 4.28 0.82 14698
0.07 -0.01 -7.15 -2.12 24.42 4.09 4.28 0.38 14705
0.05 -0.01 -10.42 2.22 20.35 4.13 4.28 -0.07 14711
0.05 0.00 -10.29 5.06 16.92 4.01 4.28 -0.39 14717
0.05 -0.00 -8.29 7.16 17.72 3.53 2.66 -0.49 14724
0.03 -0.00 -14.23 9.91 14.71 3.07 0.74 -0.74 14731
0.07 -0.01 -14.37 10.36 9.24 2.77 -1.69 -1.48 14737
0.05 -0.00 -8.66 7.45 18.75 1.34 -3.87 -1.72 14743
0.04 0.00 -1.37 9.81 13.08 -0.63 -4.28 -1.69 14750
0.06 -0.01 2.55 10.05 15.91 -1.86 -4.28 -1.76 14756
0.05 -0.00 3.74 5.53 17.94 -2.53 -4.28 -2.21 14763
0.05 -0.00 4.71 2.63 15.37 -2.86 -3.87 -2.94 14769
0.05 -0.00 4.87 1.61 13.22 -2.93 -3.00 -3.72 14775
0.04 -0.00 3.83 1.56 10.54 -2.87 -2.10 -4.28 14782
0.05 -0.01 2.33 1.97 8.46 -2.82 -1.40 -4.28 14788
0.05 -0.01 1.70 2.70 7.83 -2.84 -1.06 -4.28 14794
0.05 -0.00 1.17 3.25 7.87 -2.93 -1.02 -4.28 14800
0.04 -0.00 0.95 3.47 8.25 -3.07 -1.20 -4.28 14807
0.02 -0.00 1.38 3.32 9.35 -3.22 -1.53 -4.28 14813
0.02 -0.00 1.97 2.43 9.60 -3.38 -1.85 -4.28 14820
0.07 -0.01 2.62 1.32 10.10 -3.55 -2.20 -4.28 14826
0.05 -0.01 3.30 1.03 9.98 -3.75 -2.51 -4.28 14832
0.04 -0.00 4.86 1.59 11.44 -3.98 -2.77 -4.28 14838
0.06 -0.01 6.29 1.56 12.54 -4.14 -3.12 -4.28 14844
0.04 -0.00 7.68 0.29 12.94 -4.23 -3.41 -3.94 14852
0.05 -0.00 9.62 -0.74 12.36 -4.28 -3.59 -3.45 14858
0.06 -0.01 10.81 -1.19 12.06 -4.28 -3.71 -3.02 14864
0.04 -0.00 11.58 -2.03 11.77 -4.28 -3.67 -2.65 14870
0.06 -0.01 12.27 -3.08 11.03 -4.28 -3.50 -2.34 14877
0.05 -0.00 12.90 -4.09 10.21 -4.28 -3.24 -2.07 14883
0.05 0.00 13.57 -4.88 9.48 -4.28 -2.91 -1.84 14889
0.04 -0.00 14.21 -5.65 8.79 -4.28 -2.50 -1.65 14896
0.03 -0.00 14.84 -6.40 8.09 -4.27 -2.00 -1.47 14903
0.05 -0.01 15.34 -7.02 7.99 -4.21 -1.45 -1.29 14909
0.04 -0.00 15.43 -7.16 8.12 -4.07 -0.91 -1.07 14915
0.04 -0.00 15.19 -7.24 8.43 -3.88 -0.39 -0.80 14921
0.04 -0.00 14.97 -7.53 8.84 -3.67 0.04 -0.47 14928
0.03 -0.00 14.40 -7.78 9.42 -3.47 0.45 -0.10 14935
0.03 -0.00 13.78 -7.98 9.88 -3.25 0.78 0.29 14941
0.03 -0.00 13.42 -8.27 10.75 -3.03 1.08 0.60 14947
0.04 -0.00 13.01 -8.67 11.42 -2.81 1.38 0.96 14953
0.04 -0.00 12.41 -8.97 12.85 -2.62 1.70 1.28 14960
0.04 -0.00 11.90 -9.10 13.08 -2.47 2.02 1.57 14966
0.03 -0.00 11.24 -9.32 13.77 -2.36 2.31 1.81 14972
0.04 -0.00 10.53 -9.75 14.30 -2.28 2.56 2.03 14979
0.03 -0.00 9.76 -10.22 14.59 -2.22 2.75 2.22 14986
0.06 -0.01 8.90 -10.75 14.69 -2.16 2.85 2.38 14992
0.03 -0.00 8.07 -11.12 14.64 -2.10 2.87 2.49 14998
0.04 -0.00 7.36 -11.44 14.55 -2.03 2.83 2.57 15005
0.04 -0.00 6.81 -11.75 14.27 -1.95 2.77 2.60 15011
0.03 -0.00 6.38 -11.98 13.83 -1.85 2.69 2.58 15017
0.06 -0.01 5.96 -11.94 13.42 -1.73 2.60 2.52 15024
0.05 -0.00 5.75 -11.71 12.99 -1.60 2.49 2.41 15031
0.04 -0.00 5.47 -11.38 12.72 -1.47 2.38 2.27 15037
0.03 -0.00 5.43 -11.11 12.78 -1.35 2.30 2.10 15043
0.04 -0.00 5.57 -10.88 13.40 -1.25 2.26 1.91 15049
0.04 -0.00 5.80 -10.84 14.63 -1.20 2.27 1.74 15056
0.03 -0.00 5.89 -10.84 15.32 -1.20 2.33 1.60 15063
0.03 -0.00 5.74 -10.71 15.20 -1.25 2.41 1.49 15069
0.03 -0.00 5.35 -10.50 15.46 -1.34 2.48 1.41 15075
0.04 -0.00 4.82 -10.28 15.27 -1.45 2.50 1.35 15082
0.04 -0.00 4.20 -10.21 14.77 -1.55 2.49 1.31 15088
0.02 -0.00 3.59 -10.23 13.89 -1.62 2.42 1.28 15094
0.05 -0.00 3.13 -10.27 13.12 -1.64 2.33 1.22 15101
0.03 -0.00 2.71 -10.34 12.38 -1.61 2.22 1.16 15108
0.04 -0.00 2.36 -10.42 11.71 -1.54 2.12 1.08 15114
0.04 -0.00 2.20 -10.50 11.30 -1.42 2.04 0.98 15120
0.03 -0.00 2.12 -10.60 11.05 -1.28 1.99 0.85 15127
0.06 -0.01 2.06 -10.81 11.07 -1.13 1.99 0.70 15133
0.04 -0.00 1.91 -10.96 11.33 -0.99 2.03 0.54 15139
0.04 -0.00 1.60 -11.07 11.59 -0.88 2.08 0.37 15145
0.04 -0.00 1.15 -11.11 12.02 -0.80 2.16 0.22 15153
0.03 -0.00 0.87 -11.07 12.70 -0.79 2.24 0.09 15159
0.05 -0.01 0.55 -11.07 12.98 -0.84 2.33 -0.02 15165
0.04 -0.00 -0.08 -10.94 12.62 -0.94 2.39 -0.08 15171
0.03 0.00 -1.08 -10.67 11.78 -1.04 2.42 -0.10 15178
0.03 -0.00 -2.25 -10.77 10.91 -1.09 2.46 -0.02 15184
0.03 -0.00 -3.16 -11.06 10.10 -1.06 2.45 0.13 15191
0.04 -0.00 -3.97 -11.48 9.53 -0.95 2.25 0.28 15197
0.04 -0.00 -4.77 -11.96 8.97 -0.79 1.84 0.40 15203
0.04 -0.00 -5.14 -12.27 8.36 -0.62 1.31 0.47 15210
0.04 -0.00 -4.88 -12.40 7.53 -0.44 0.74 0.53 15216
0.03 -0.00 -4.07 -12.65 7.20 -0.30 0.24 0.56 15222
0.04 0.01 -3.38 -12.93 7.31 -0.13 -0.11 0.57 15228
0.05 -0.00 -2.69 -13.17 7.34 0.05 -0.30 0.58 15236
0.02 -0.00 -2.16 -13.28 7.35 0.24 -0.36 0.58 15242
0.03 -0.00 -1.75 -13.33 7.56 0.43 -0.32 0.57 15248
0.04 -0.00 -1.57 -13.01 7.49 0.61 -0.22 0.56 15254
0.04 -0.00 -22.11 -18.60 27.29 1.49 -1.78 1.00 15260
0.03 -0.00 -10.59 -7.06 9.41 2.35 -3.14 1.93 15267
0.01 -0.00 4.69 -1.59 4.69 2.28 -4.17 1.94 15273
0.02 -0.00 2.06 3.91 7.59 2.09 -4.25 1.86 15280
0.03 -0.00 6.38 0.59 9.19 1.96 -4.13 1.97 15286
0.01 -0.00 3.38 3.19 9.85 1.69 -4.03 2.11 15292
0.01 -0.00 -1.18 3.86 10.09 1.53 -3.83 2.22 15299
0.05 0.01 -4.07 3.90 9.21 1.56 -3.51 2.13 15305
0.04 0.10 -6.48 4.81 12.73 1.96 -2.78 1.87 15311
0.03 0.28 -9.75 3.04 12.42 2.50 -1.94 1.52 15318
0.02 0.48 -12.59 1.55 13.01 3.04 -1.57 0.96 15325
0.01 0.61 -14.27 -0.43 16.21 3.36 -1.63 0.16 15331
-0.00 0.74 -8.93 -0.93 17.74 3.44 -1.56 -0.71 15337
-0.01 0.85 -0.05 -1.53 21.19 3.39 -1.44 -1.32 15343
0.02 0.83 10.08 -3.42 34.71 2.92 -2.29 -1.30 15350
0.01 0.86 8.83 -5.48 18.31 1.36 -2.35 -0.39 15356
0.01 0.87 2.38 -3.85 16.90 0.99 -1.53 0.20 15363
-0.01 0.94 0.74 -2.62 11.58 0.55 -0.89 0.23 15370
-0.01 0.97 -0.08 -0.21 10.93 0.54 -1.02 0.20 15376
0.01 0.93 0.47 0.07 11.04 0.52 -1.12 0.05 15382
0.00 0.89 1.22 -0.31 10.45 0.45 -1.03 -0.01 15388
0.02 0.89 0.56 -1.05 10.06 0.40 -0.93 0.01 15395
0.01 0.87 1.29 -1.00 10.22 0.33 -0.75 0.05 15401
0.02 0.82 0.90 -0.84 10.56 0.25 -0.59 0.07 15408
