Voltage_01 Voltage_02 Acc_x Acc_y Acc_z Gyro_x Gyro_y Gyro_z Time
5000
1.25 -0.05 0.58 -1.95 10.43 1.07 -0.13 -0.11 23
1.27 -0.06 1.16 -2.08 10.51 1.11 -0.12 -0.10 29
1.27 -0.05 0.64 -2.13 10.42 1.16 -0.11 -0.10 35
1.28 -0.04 0.71 -2.39 10.38 1.20 -0.08 -0.09 41
1.31 -0.05 0.70 -2.29 10.49 1.25 -0.05 -0.10 48
1.31 -0.06 0.81 -2.42 10.57 1.31 -0.01 -0.11 55
1.31 -0.05 0.82 -2.53 10.53 1.40 0.05 -0.13 61
1.32 -0.05 0.76 -2.62 10.52 1.47 0.17 -0.14 67
1.28 -0.05 0.85 -2.64 9.82 1.57 0.39 -0.16 73
1.19 -0.06 0.65 -2.81 10.13 1.66 0.58 -0.17 79
1.10 -0.06 0.26 -2.80 11.11 1.78 0.79 -0.15 86
1.00 -0.04 0.33 -2.90 11.99 1.95 0.95 -0.13 92
0.87 -0.04 0.36 -3.16 12.30 2.14 1.09 -0.09 98
0.73 -0.05 0.03 -3.23 12.73 2.34 1.29 -0.04 104
0.61 -0.03 0.07 -3.58 12.63 2.50 1.50 0.03 111
0.42 -0.02 0.40 -3.84 13.01 2.68 1.76 0.11 117
0.25 -0.03 0.70 -4.18 13.06 2.86 2.00 0.19 123
0.19 -0.02 0.42 -4.47 14.00 3.00 2.19 0.26 130
0.19 -0.01 -0.13 -4.72 13.38 3.10 2.31 0.37 136
0.10 -0.01 -0.50 -5.69 12.82 3.01 2.35 0.55 142
0.10 -0.01 0.79 -6.51 16.24 2.91 2.38 0.74 148
0.07 -0.01 2.53 -7.47 19.66 3.07 2.65 0.85 154
0.08 0.00 4.18 -7.77 20.92 3.40 3.04 0.87 161
0.07 -0.01 3.94 -6.84 19.87 3.75 3.46 0.86 167
0.06 -0.01 3.04 -7.50 18.76 3.93 3.69 0.88 174
0.06 -0.01 2.99 -7.63 18.70 3.94 3.74 0.92 180
0.06 -0.01 4.22 -7.92 19.07 3.92 3.83 1.00 186
0.06 -0.01 4.89 -7.74 20.02 3.86 4.15 1.05 192
0.05 -0.00 4.58 -7.15 19.92 3.78 4.28 1.01 198
0.04 -0.00 3.69 -6.50 20.14 3.72 4.28 0.88 204
0.04 0.01 1.77 -5.59 19.88 3.72 4.28 0.75 210
0.05 -0.00 -0.57 -4.01 18.70 3.74 4.28 0.58 217
0.05 -0.00 -2.15 -2.58 18.12 3.74 4.28 0.40 224
0.05 0.00 -3.75 -0.85 16.92 3.72 3.85 0.23 230
0.06 -0.01 -5.04 1.14 15.48 3.68 3.00 0.10 236
0.06 -0.01 -5.61 2.32 14.63 3.59 2.11 -0.01 242
0.04 -0.00 -6.49 2.94 14.07 3.45 0.91 -0.13 248
0.03 -0.00 -10.49 5.38 11.87 3.44 -0.24 -0.52 254
0.05 -0.00 -9.70 5.57 14.10 3.07 -1.85 -1.29 261
0.05 -0.01 -6.65 6.19 15.51 1.96 -3.18 -1.90 267
0.05 -0.01 -2.27 3.69 12.10 0.66 -3.68 -2.36 273
0.04 -0.00 0.02 7.64 13.59 -0.18 -3.68 -2.83 280
0.05 -0.01 1.47 4.91 14.50 -0.91 -3.38 -3.31 286
0.04 -0.00 1.89 2.84 13.89 -1.44 -2.86 -3.72 292
0.03 -0.00 2.29 1.84 13.03 -1.76 -2.24 -4.16 299
0.04 -0.00 2.26 1.51 11.62 -1.94 -1.66 -4.28 305
0.04 -0.00 1.95 1.34 10.18 -2.06 -1.23 -4.28 311
0.04 -0.00 1.50 1.37 9.43 -2.14 -0.98 -4.28 317
0.04 -0.00 1.14 1.50 9.05 -2.25 -0.88 -4.28 323
0.03 -0.00 1.03 1.50 9.06 -2.37 -0.89 -4.28 329
0.04 0.01 1.11 1.38 9.33 -2.49 -1.01 -4.28 335
0.04 -0.00 1.39 0.92 9.58 -2.63 -1.20 -4.28 342
0.03 -0.00 1.79 0.63 9.63 -2.76 -1.42 -4.28 349
0.03 -0.00 3.00 0.74 10.05 -2.94 -1.63 -4.24 355
0.04 0.00 3.16 0.69 10.51 -3.14 -1.88 -3.94 361
0.05 -0.00 3.93 0.16 10.65 -3.35 -2.17 -3.66 367
0.04 -0.00 4.96 -0.72 10.18 -3.56 -2.44 -3.33 373
0.03 -0.00 6.20 -1.20 10.47 -3.79 -2.69 -3.04 379
0.04 -0.00 7.07 -1.44 10.75 -3.99 -2.89 -2.76 386
0.05 -0.00 8.01 -2.08 10.79 -4.10 -2.97 -2.50 392
0.03 -0.00 8.68 -2.91 10.31 -4.18 -2.95 -2.24 398
0.04 0.00 9.45 -3.48 10.10 -4.22 -2.85 -2.00 405
0.06 -0.01 10.14 -4.11 9.20 -4.24 -2.69 -1.82 411
0.04 -0.00 10.70 -4.78 9.38 -4.24 -2.43 -1.62 417
0.04 -0.00 11.32 -5.20 8.93 -4.21 -2.07 -1.43 423
0.04 -0.00 11.63 -5.55 8.43 -4.16 -1.67 -1.24 430
0.06 -0.01 11.72 -5.98 7.98 -4.09 -1.25 -1.04 436
0.04 -0.00 11.81 -6.50 8.02 -3.95 -0.82 -0.85 442
0.04 -0.00 11.92 -6.95 8.11 -3.78 -0.45 -0.65 448
0.04 0.00 11.88 -7.53 8.45 -3.58 -0.04 -0.47 455
0.04 -0.00 11.69 -8.06 8.76 -3.38 0.32 -0.24 461
0.03 -0.00 11.36 -8.51 9.06 -3.18 0.60 0.01 467
0.03 -0.00 10.97 -8.88 9.41 -2.99 0.81 0.27 474
0.04 0.01 10.66 -9.31 9.73 -2.84 0.98 0.54 480
0.04 -0.00 10.38 -9.81 10.07 -2.68 1.11 0.79 486
0.04 -0.00 9.94 -10.26 10.35 -2.52 1.27 1.03 492
0.04 -0.00 9.63 -10.89 10.63 -2.37 1.44 1.21 499
0.04 -0.00 9.31 -11.20 10.74 -2.23 1.57 1.41 505
0.03 -0.00 9.00 -11.28 10.82 -2.09 1.69 1.60 512
0.03 -0.00 8.63 -11.55 10.60 -1.96 1.81 1.77 518
0.04 -0.00 8.03 -11.43 10.62 -1.83 1.90 1.92 524
0.04 -0.00 7.54 -11.51 10.62 -1.69 1.95 2.04 530
0.03 -0.00 7.14 -11.53 10.72 -1.60 1.97 2.11 536
0.03 0.01 6.68 -11.60 10.88 -1.47 1.97 2.14 543
0.04 -0.00 6.45 -11.62 11.02 -1.35 2.00 2.12 549
0.04 -0.00 6.14 -11.60 11.21 -1.25 2.03 2.02 556
0.04 0.01 5.81 -11.55 11.42 -1.16 2.08 1.93 562
0.04 0.00 5.54 -11.47 11.75 -1.10 2.16 1.77 568
0.04 -0.00 5.39 -11.33 12.26 -1.07 2.28 1.59 575
0.04 0.00 5.31 -11.21 12.78 -1.09 2.44 1.40 581
0.03 -0.00 4.93 -10.98 13.27 -1.14 2.66 1.22 587
0.04 -0.00 4.51 -10.80 13.69 -1.23 2.89 1.06 593
0.04 0.01 3.93 -10.67 14.02 -1.35 3.10 0.93 600
0.03 -0.00 3.25 -10.63 14.28 -1.48 3.20 0.83 606
0.03 -0.00 2.44 -10.65 14.36 -1.63 3.20 0.77 613
0.04 -0.00 1.75 -10.79 14.08 -1.77 3.10 0.73 619
0.05 -0.00 1.08 -11.04 13.76 -1.89 2.91 0.72 625
0.03 -0.00 0.56 -11.65 13.46 -1.96 2.67 0.72 631
0.04 -0.00 0.20 -12.17 13.08 -2.00 2.37 0.72 637
0.04 0.00 0.14 -12.61 12.66 -1.99 2.08 0.71 644
0.04 -0.00 0.26 -13.01 12.13 -1.96 1.85 0.69 651
0.03 -0.00 0.60 -13.34 11.81 -1.90 1.74 0.65 657
0.03 0.01 0.76 -13.43 11.51 -1.82 1.76 0.60 663
0.04 -0.00 0.25 -13.42 11.02 -1.71 1.92 0.58 669
0.04 -0.00 -1.16 -13.34 10.61 -1.55 2.19 0.61 675
0.04 0.01 -1.93 -13.35 10.49 -1.35 2.40 0.65 681
0.04 -0.00 -3.70 -13.46 10.35 -1.13 2.52 0.68 689
0.03 -0.00 -5.53 -13.39 10.13 -0.92 2.52 0.71 695
0.04 0.00 -7.28 -13.29 10.03 -0.71 2.43 0.73 701
0.04 -0.00 -8.51 -13.46 10.27 -0.52 2.22 0.71 707
0.03 -0.00 -9.23 -13.64 10.71 -0.39 1.85 0.65 713
0.03 -0.00 -9.40 -13.81 11.32 -0.31 1.37 0.56 719
0.04 -0.00 -8.79 -13.99 11.23 -0.30 0.88 0.48 727
0.03 -0.00 -7.84 -14.07 10.77 -0.32 0.48 0.38 733
0.03 -0.00 -6.98 -14.22 10.03 -0.35 0.21 0.28 739
0.05 -0.00 -6.41 -14.58 9.15 -0.34 0.10 0.20 745
0.04 -0.00 -5.88 -14.87 8.51 -0.25 0.07 0.10 751
0.03 -0.00 -5.77 -15.17 7.82 -0.08 0.12 0.08 757
0.04 -0.00 -9.48 -12.85 10.38 0.28 -0.09 0.13 763
0.05 -0.00 -23.27 -12.16 20.35 1.71 -2.84 1.13 771
0.03 -0.00 -1.07 -1.42 10.32 1.45 -3.87 1.61 777
0.02 -0.00 3.82 15.57 8.19 1.34 -4.28 1.63 783
0.02 0.00 10.35 17.06 14.34 1.13 -3.81 1.76 789
0.04 -0.00 4.39 11.98 15.87 1.04 -2.98 2.00 795
0.02 -0.00 0.71 5.80 7.45 0.99 -2.03 2.13 801
0.02 0.02 -4.82 2.89 4.42 1.17 -1.75 1.99 807
0.02 0.09 -9.06 2.61 7.47 1.50 -1.66 1.58 814
0.01 0.20 -11.29 1.46 10.66 1.79 -1.44 1.02 821
0.01 0.31 -11.16 1.22 11.46 2.13 -1.26 0.38 827
0.02 0.39 -8.25 1.07 13.53 2.41 -1.23 -0.26 833
0.01 0.45 -3.32 -0.33 16.79 2.52 -1.16 -0.79 839
-0.01 0.56 2.41 -1.88 21.68 2.47 -1.29 -1.10 845
0.01 0.57 7.55 -2.80 27.59 1.62 -2.41 -0.92 851
0.01 0.55 7.81 -3.64 11.54 0.81 -1.90 -0.18 859
0.01 0.53 2.56 -2.87 14.78 0.70 -1.12 0.14 865
0.02 0.53 1.94 -2.10 10.43 0.57 -0.83 0.23 871
0.02 0.52 0.93 -1.06 10.67 0.62 -0.98 0.30 877
0.01 0.43 0.06 -0.25 11.42 0.57 -1.15 0.19 883
-0.00 0.44 0.60 1.08 9.50 0.43 -1.03 0.06 889
0.04 0.39 0.97 -0.69 10.61 0.33 -0.78 0.02 897
0.02 0.37 1.22 -1.04 10.10 0.24 -0.56 0.05 903
0.02 0.33 1.14 -1.10 10.13 0.20 -0.48 0.08 909
0.03 0.32 0.72 -1.02 10.62 0.15 -0.33 0.09 915
0.05 0.27 0.74 -0.80 10.47 0.09 -0.16 0.08 921
0.04 0.23 0.90 -0.92 10.12 0.05 -0.08 0.07 927
0.05 0.22 0.94 -0.78 10.02 0.04 -0.04 0.08 933
0.06 0.23 0.81 -0.87 9.97 0.04 -0.02 0.09 940
0.06 0.23 0.78 -0.90 10.03 0.04 0.02 0.10 947
0.06 0.20 0.76 -0.99 9.99 0.03 0.04 0.11 953
0.07 0.18 0.88 -1.00 10.18 0.04 0.07 0.12 959
0.08 0.19 0.88 -0.99 10.15 0.05 0.09 0.13 965
0.08 0.15 0.88 -0.97 10.05 0.05 0.10 0.13 971
0.06 0.13 0.97 -0.93 10.11 0.05 0.10 0.13 977
0.09 0.10 1.08 -0.91 9.95 0.05 0.10 0.12 984
0.09 0.10 1.10 -0.96 9.91 0.04 0.10 0.12 990
0.08 0.02 1.12 -0.75 10.13 0.05 0.10 0.12 996
0.08 0.02 1.12 -0.82 10.02 0.05 0.10 0.11 1003
0.08 0.04 1.13 -0.87 9.95 0.04 0.09 0.10 1009
0.09 0.02 1.14 -0.73 9.90 0.04 0.08 0.09 1015
0.09 -0.01 1.19 -0.85 9.98 0.04 0.08 0.09 1021
0.09 0.01 1.11 -0.85 9.91 0.03 0.07 0.08 1028
0.10 0.00 1.12 -0.85 9.93 0.03 0.07 0.08 1034
0.10 0.00 1.21 -0.91 9.90 0.03 0.07 0.07 1040
0.10 -0.01 1.21 -0.89 9.97 0.03 0.06 0.06 1046
0.10 -0.01 1.21 -0.85 9.92 0.02 0.06 0.06 1052
0.10 -0.00 1.18 -0.83 9.99 0.03 0.06 0.05 1059
0.11 -0.01 1.17 -0.89 9.95 0.03 0.06 0.05 1065
0.11 -0.01 1.20 -0.86 9.93 0.03 0.06 0.04 1072
0.10 -0.01 1.21 -0.89 9.92 0.03 0.06 0.04 1078
0.10 -0.01 1.18 -0.90 9.96 0.03 0.06 0.04 1084
0.10 -0.01 1.24 -0.91 9.98 0.04 0.06 0.04 1090
0.10 -0.01 1.23 -0.92 9.97 0.04 0.07 0.04 1096
0.10 -0.01 1.26 -0.91 9.97 0.04 0.07 0.03 1102
0.09 -0.01 1.26 -0.95 9.94 0.04 0.06 0.03 1108
0.11 -0.01 1.30 -0.99 9.88 0.04 0.06 0.03 1115
0.11 -0.01 1.37 -0.80 9.85 0.04 0.06 0.02 1121
0.11 -0.01 1.32 -0.92 9.86 0.03 0.06 0.01 1127
0.11 -0.01 1.35 -0.90 9.86 0.03 0.04 0.01 1134
0.12 -0.00 1.35 -0.91 10.01 0.03 0.04 0.00 1140
0.12 -0.01 1.40 -0.77 9.86 0.02 0.02 -0.00 1146
0.13 -0.01 1.35 -0.94 9.93 0.03 0.02 -0.01 1153
0.11 0.01 1.37 -1.09 9.92 0.02 0.01 -0.01 1159
0.11 -0.00 1.36 -1.03 9.97 0.03 -0.01 -0.02 1165
0.12 -0.01 1.36 -0.97 9.93 0.03 -0.02 -0.02 1171
0.10 -0.01 1.35 -1.01 9.96 0.04 -0.04 -0.02 1177
0.08 -0.01 1.22 -0.97 10.10 0.05 -0.05 -0.03 1184
0.14 -0.01 1.44 -1.01 9.99 0.07 -0.10 -0.03 1190
0.16 -0.02 1.38 -1.04 9.94 0.08 -0.09 -0.03 1197
0.15 -0.01 1.21 -1.02 10.03 0.09 -0.11 -0.03 1203
0.15 -0.02 1.30 -1.01 9.99 0.11 -0.13 -0.03 1209
0.15 -0.01 1.37 -1.07 10.08 0.12 -0.16 -0.04 1215
0.19 -0.02 1.31 -1.10 10.03 0.13 -0.20 -0.04 1221
0.18 -0.02 1.26 -1.09 9.94 0.13 -0.22 -0.05 1227
0.21 -0.02 1.26 -1.01 9.98 0.13 -0.22 -0.04 1234
0.22 0.01 1.29 -1.11 9.92 0.13 -0.22 -0.05 1241
0.23 -0.02 1.23 -0.64 10.03 0.13 -0.22 -0.06 1247
0.26 -0.00 1.21 -1.22 9.91 0.13 -0.22 -0.07 1253
0.30 -0.03 1.18 -1.19 9.93 0.13 -0.21 -0.07 1259
0.30 -0.03 1.12 -1.19 9.94 0.14 -0.20 -0.07 1265
0.33 -0.02 1.19 -1.18 10.04 0.15 -0.20 -0.07 1271
0.37 -0.02 1.17 -1.17 9.99 0.16 -0.19 -0.07 1278
0.40 -0.03 1.18 -1.22 10.01 0.17 -0.18 -0.07 1285
0.42 -0.03 1.15 -1.23 10.05 0.18 -0.17 -0.08 1291
0.44 -0.02 1.11 -1.22 10.02 0.19 -0.16 -0.07 1297
0.44 -0.03 1.06 -1.24 10.06 0.21 -0.14 -0.06 1303
0.45 -0.03 1.04 -1.23 10.15 0.23 -0.13 -0.05 1310
0.49 -0.03 1.09 -1.28 10.31 0.27 -0.12 -0.05 1316
0.51 -0.04 1.08 -1.31 10.31 0.33 -0.14 -0.04 1323
0.54 -0.02 1.10 -1.36 10.21 0.39 -0.15 -0.04 1329
0.56 -0.04 1.06 -1.37 10.27 0.43 -0.15 -0.04 1336
0.57 -0.04 0.99 -1.42 10.12 0.46 -0.14 -0.04 1342
0.58 -0.04 1.00 -1.44 10.03 0.48 -0.13 -0.03 1348
0.63 -0.04 0.98 -1.49 10.16 0.50 -0.13 -0.03 1354
0.66 -0.04 1.08 -1.54 10.12 0.51 -0.12 -0.03 1360
0.68 -0.04 1.04 -1.60 10.26 0.53 -0.11 -0.03 1368
0.69 -0.05 1.06 -1.62 10.24 0.55 -0.10 -0.03 1374
0.72 -0.04 1.16 -1.70 10.30 0.60 -0.10 -0.03 1380
0.75 -0.04 1.09 -1.70 10.37 0.65 -0.10 -0.03 1386
0.78 -0.05 1.05 -1.77 10.42 0.70 -0.10 -0.04 1392
0.80 -0.02 1.00 -1.83 10.34 0.76 -0.10 -0.03 1399
0.84 -0.05 1.02 -1.88 10.36 0.76 -0.08 -0.04 1405
0.83 -0.04 1.06 -1.99 10.32 0.79 -0.06 -0.04 1412
0.85 -0.03 1.03 -2.04 10.32 0.83 -0.03 -0.04 1418
0.87 -0.04 1.07 -2.06 10.29 0.85 -0.01 -0.04 1425
0.87 -0.03 1.01 -2.20 10.35 0.89 0.01 -0.04 1431
0.90 -0.04 1.06 -2.20 10.25 0.92 0.04 -0.03 1437
0.91 -0.04 0.98 -2.18 10.16 0.96 0.06 -0.00 1443
0.92 -0.03 1.02 -2.29 10.17 1.00 0.10 -0.03 1449
0.93 -0.04 1.00 -2.35 10.28 1.04 0.16 -0.03 1456
0.88 -0.05 1.03 -2.55 10.60 1.10 0.21 -0.03 1463
0.84 -0.04 1.18 -2.60 10.40 1.17 0.26 -0.03 1469
0.86 -0.05 1.12 -2.58 10.44 1.24 0.33 -0.04 1475
0.86 -0.06 1.19 -2.77 10.51 1.31 0.40 -0.05 1481
0.81 -0.02 1.21 -2.94 10.68 1.40 0.48 -0.06 1488
0.78 -0.03 1.28 -3.05 10.94 1.49 0.58 -0.06 1495
0.76 -0.04 1.30 -3.06 11.06 1.62 0.69 -0.07 1501
0.69 -0.04 1.30 -3.17 11.13 1.76 0.82 -0.08 1507
0.64 -0.04 1.16 -3.39 11.24 1.92 0.96 -0.08 1513
0.58 -0.04 0.99 -3.39 11.52 2.08 1.17 -0.07 1520
0.47 -0.03 1.08 -3.74 12.07 2.23 1.42 -0.04 1526
0.38 -0.04 0.94 -3.82 12.99 2.45 1.69 -0.00 1532
0.26 -0.02 1.09 -4.16 13.42 2.68 1.90 0.04 1539
0.22 -0.02 1.25 -4.60 14.60 2.95 2.08 0.09 1545
0.14 -0.01 1.28 -4.90 14.88 3.21 2.29 0.16 1552
0.13 -0.01 0.43 -5.38 15.85 3.34 2.54 0.33 1558
0.15 -0.02 0.75 -6.27 18.25 3.41 2.64 0.50 1564
0.14 -0.01 2.40 -7.31 21.39 3.67 2.90 0.63 1570
0.09 -0.01 4.60 -8.22 24.00 4.05 3.24 0.70 1576
0.11 -0.00 5.44 -8.46 23.62 4.25 3.54 0.71 1583
0.07 -0.00 6.68 -8.37 23.17 4.28 3.79 0.77 1590
0.06 -0.01 7.40 -8.58 22.84 4.28 4.19 0.84 1596
0.07 -0.01 8.98 -8.69 25.18 4.28 4.28 0.84 1602
0.09 -0.01 10.17 -8.37 26.35 4.26 4.28 0.80 1608
0.04 -0.00 8.39 -6.56 26.60 4.23 4.28 0.59 1614
0.05 0.00 5.74 -5.19 26.48 4.17 4.28 0.30 1622
0.05 -0.00 2.18 -3.08 25.35 4.13 4.28 0.00 1628
0.04 -0.00 -1.40 -0.29 23.94 4.11 4.28 -0.36 1634
0.04 0.00 -4.47 3.04 21.41 4.04 4.28 -0.75 1640
0.03 -0.00 -6.40 5.46 17.98 3.83 4.28 -1.17 1646
0.03 -0.00 -8.09 6.47 15.12 3.48 4.28 -1.56 1652
0.06 -0.01 -15.62 7.65 5.44 3.23 3.53 -1.98 1659
0.05 -0.00 -12.81 6.38 14.34 2.80 1.06 -2.36 1666
0.04 -0.00 -11.20 8.22 11.54 1.21 -1.12 -2.44 1672
0.02 -0.00 -7.59 10.73 10.66 -0.42 -2.59 -2.42 1678
0.03 -0.00 -3.30 7.26 14.91 -1.43 -3.48 -2.44 1684
0.04 -0.00 -1.91 3.01 15.27 -2.07 -4.04 -2.61 1691
0.04 0.01 -0.46 1.15 13.72 -2.42 -4.20 -2.93 1697
0.04 -0.00 1.35 0.12 12.90 -2.51 -4.05 -3.24 1703
0.04 -0.00 2.52 -0.47 11.67 -2.48 -3.62 -3.63 1710
0.04 0.01 2.99 -0.78 9.68 -2.42 -3.11 -4.00 1716
0.03 -0.00 3.05 -0.46 8.49 -2.36 -2.62 -4.27 1722
0.04 -0.00 2.81 0.17 8.09 -2.36 -2.25 -4.28 1728
0.03 -0.00 2.82 0.56 8.31 -2.39 -2.00 -4.28 1735
0.03 0.01 3.07 1.02 8.81 -2.50 -1.89 -4.28 1741
0.03 -0.00 3.33 1.24 9.28 -2.65 -1.85 -4.28 1747
0.00 -0.00 3.68 1.21 9.39 -2.86 -1.89 -4.28 1754
0.03 0.00 3.84 0.80 8.89 -3.10 -1.94 -4.26 1760
0.05 -0.00 4.34 0.76 8.96 -3.36 -1.95 -3.99 1766
0.04 -0.00 5.00 0.76 10.52 -3.63 -2.04 -3.72 1772
0.04 -0.00 5.07 0.02 10.42 -3.87 -2.27 -3.41 1779
0.05 -0.00 5.46 -1.21 10.54 -4.01 -2.48 -3.01 1785
0.04 -0.00 6.42 -1.95 9.76 -4.13 -2.74 -2.59 1792
0.02 -0.00 7.32 -2.26 9.63 -4.21 -3.00 -2.22 1798
0.04 -0.00 8.25 -2.89 9.35 -4.25 -3.20 -1.95 1804
0.05 -0.00 9.09 -3.76 9.33 -4.26 -3.29 -1.66 1810
0.06 -0.01 9.97 -4.40 8.51 -4.26 -3.25 -1.39 1816
0.04 -0.00 10.83 -4.81 8.13 -4.23 -3.04 -1.16 1822
0.05 -0.00 11.77 -5.27 7.25 -4.20 -2.75 -0.95 1829
0.04 -0.00 12.36 -5.40 6.64 -4.14 -2.36 -0.76 1836
0.03 -0.00 12.99 -5.61 6.62 -4.03 -1.85 -0.58 1842
0.03 -0.00 13.60 -6.12 6.61 -3.87 -1.38 -0.41 1848
0.04 -0.00 13.73 -6.53 6.64 -3.69 -0.77 -0.22 1854
0.03 -0.00 13.32 -6.94 6.81 -3.52 -0.21 -0.04 1860
0.05 -0.01 12.85 -7.54 7.22 -3.35 0.27 0.20 1867
0.06 -0.01 12.15 -8.26 7.55 -3.18 0.56 0.46 1873
0.05 -0.00 11.60 -8.93 7.71 -3.02 0.70 0.71 1880
0.03 -0.00 11.37 -9.58 7.74 -2.85 0.75 0.94 1886
0.04 -0.00 11.26 -10.11 7.70 -2.71 0.78 1.14 1892
0.03 -0.00 11.41 -10.38 7.77 -2.54 0.87 1.31 1899
0.03 -0.00 11.59 -10.51 7.96 -2.37 1.01 1.44 1905
0.05 -0.00 11.56 -10.34 8.16 -2.21 1.20 1.56 1911
0.05 -0.00 11.19 -10.03 8.29 -2.07 1.46 1.65 1917
0.05 -0.00 10.61 -9.90 8.40 -1.92 1.65 1.72 1924
0.04 -0.00 9.75 -9.97 8.74 -1.78 1.86 1.75 1930
0.03 -0.00 8.92 -10.05 9.21 -1.63 2.02 1.78 1937
0.02 -0.00 8.37 -10.02 10.05 -1.50 2.13 1.77 1943
0.05 -0.00 7.94 -9.95 11.20 -1.40 2.23 1.74 1949
0.03 -0.00 7.59 -9.99 12.20 -1.38 2.34 1.70 1955
0.03 -0.00 7.28 -10.11 13.27 -1.42 2.48 1.64 1961
0.05 -0.01 6.82 -10.37 13.97 -1.52 2.63 1.58 1969
0.03 -0.00 6.13 -10.80 14.35 -1.68 2.79 1.51 1975
0.04 -0.00 5.39 -11.27 14.36 -1.79 2.93 1.43 1981
0.03 -0.00 4.70 -11.75 14.16 -1.92 3.02 1.34 1987
0.03 -0.00 3.86 -12.15 13.91 -2.02 3.05 1.22 1993
0.04 0.00 2.85 -12.47 13.52 -2.05 3.03 1.10 2000
0.04 -0.00 2.09 -12.54 13.04 -2.04 2.92 0.98 2007
0.03 -0.00 1.30 -12.41 12.58 -1.98 2.83 0.86 2013
0.03 -0.00 0.73 -12.25 12.39 -1.88 2.67 0.74 2019
0.04 -0.00 0.38 -12.14 12.34 -1.76 2.50 0.60 2026
0.02 -0.00 0.11 -12.16 12.36 -1.63 2.35 0.53 2032
0.05 -0.00 0.01 -12.22 12.48 -1.50 2.22 0.43 2038
0.02 -0.00 -0.01 -12.21 12.67 -1.38 2.15 0.34 2044
0.02 -0.00 0.06 -12.23 13.11 -1.29 2.12 0.26 2051
0.04 -0.00 0.22 -12.42 13.56 -1.23 2.14 0.20 2058
0.02 -0.00 0.31 -12.65 13.93 -1.22 2.20 0.14 2064
0.03 -0.00 0.06 -12.79 14.03 -1.23 2.27 0.11 2070
0.04 -0.00 -0.17 -12.78 14.09 -1.27 2.33 0.08 2076
0.02 -0.00 -0.52 -12.81 14.01 -1.33 2.35 0.07 2082
0.02 -0.00 -1.04 -12.86 13.73 -1.33 2.32 0.07 2089
0.03 -0.00 -1.87 -12.98 13.30 -1.34 2.25 0.09 2096
0.02 -0.00 -2.77 -13.23 12.65 -1.32 2.16 0.14 2102
0.02 -0.00 -3.49 -13.57 11.84 -1.27 2.02 0.22 2108
0.02 -0.00 -4.83 -13.96 10.91 -1.19 1.88 0.30 2114
0.02 -0.00 -4.87 -14.28 9.92 -1.06 1.66 0.37 2121
0.03 -0.00 -5.44 -14.39 8.98 -0.90 1.42 0.41 2127
0.03 -0.00 -5.91 -14.55 8.43 -0.69 1.22 0.45 2134
0.02 -0.00 -6.43 -14.77 8.07 -0.47 1.05 0.50 2140
0.03 -0.00 -7.44 -14.88 8.05 -0.23 0.90 0.55 2146
0.04 -0.00 -26.91 -21.03 20.93 0.49 -0.52 0.84 2152
0.03 -0.00 -21.65 -17.20 11.47 1.38 -2.57 1.63 2159
0.03 -0.00 -12.59 -9.75 6.21 1.48 -4.27 1.96 2165
0.05 -0.01 -1.91 -2.30 2.96 1.28 -4.28 1.67 2171
0.04 -0.00 1.90 -0.82 9.11 1.25 -4.28 1.36 2178
0.03 -0.00 3.75 0.42 12.14 1.20 -4.28 1.32 2184
0.03 -0.00 3.90 7.54 16.54 1.12 -4.28 1.48 2190
0.04 -0.00 0.37 7.51 19.05 1.13 -4.09 1.67 2197
0.04 0.03 -3.34 6.75 15.94 1.23 -2.92 1.67 2203
0.05 0.18 -5.76 3.69 10.38 1.37 -1.96 1.52 2209
0.01 0.36 -8.04 1.89 9.33 1.67 -1.51 1.20 2215
0.00 0.45 -10.25 -0.85 13.71 2.04 -1.35 0.73 2222
0.01 0.46 -10.99 -0.58 13.54 2.31 -1.38 0.12 2229
-0.00 0.52 -6.92 -0.92 14.07 2.50 -1.50 -0.55 2235
0.01 0.50 1.83 -1.88 19.12 2.51 -1.58 -0.98 2241
0.00 0.50 6.20 -3.61 27.41 1.36 -2.67 -0.80 2247
-0.00 0.53 4.39 -2.80 10.89 0.49 -1.44 -0.11 2254
0.02 0.59 1.71 -2.72 13.56 0.40 -0.92 0.10 2260
0.01 0.63 1.47 -2.42 11.18 0.25 -0.35 0.25 2267
0.01 0.60 0.87 -1.37 10.90 0.26 -0.44 0.29 2273
0.01 0.61 0.19 -0.93 11.14 0.22 -0.42 0.26 2280
-0.01 0.56 -0.11 -0.26 10.76 0.13 -0.25 0.15 2286
0.02 0.57 0.37 -0.69 9.98 0.04 -0.10 0.08 2292
0.04 0.57 0.93 -0.89 9.93 0.02 -0.07 0.08 2298
0.02 0.54 0.97 -1.00 9.91 0.02 -0.07 0.08 2305
0.03 0.55 0.95 -0.91 10.00 0.01 -0.08 0.07 2311
0.02 0.61 0.75 -0.72 10.09 0.00 -0.08 0.05 2318
0.01 0.64 0.72 -0.86 10.01 -0.01 -0.10 0.03 2324
0.02 0.62 0.88 -0.82 9.92 -0.03 -0.11 0.02 2330
0.03 0.57 1.46 -0.76 9.69 -0.04 -0.11 0.02 2336
0.03 0.66 0.57 -0.81 10.16 -0.04 -0.10 0.02 2342
0.02 0.65 0.58 -0.77 10.14 -0.04 -0.10 0.03 2349
0.03 0.66 0.57 -0.82 10.21 -0.03 -0.08 0.03 2356
0.02 0.65 0.65 -0.80 10.13 -0.02 -0.08 0.04 2362
0.01 0.66 0.66 -0.78 10.06 -0.01 -0.06 0.05 2368
0.04 0.65 0.75 -0.77 10.12 -0.00 -0.06 0.05 2374
0.03 0.62 0.80 -0.80 10.01 0.01 -0.06 0.05 2380
0.05 0.61 0.82 -0.76 9.96 0.01 -0.07 0.05 2386
0.07 0.57 0.91 -0.83 9.98 0.01 -0.09 0.04 2394
0.05 0.54 0.89 -0.77 9.95 0.00 -0.10 0.04 2400
0.05 0.53 0.91 -0.78 10.04 -0.01 -0.11 0.03 2406
0.06 0.53 0.81 -0.80 10.06 -0.01 -0.11 0.02 2412
0.06 0.51 0.77 -0.78 9.98 -0.02 -0.11 0.01 2418
0.06 0.49 0.70 -0.83 9.99 -0.01 -0.10 0.02 2424
0.09 0.45 0.75 -0.80 10.04 -0.01 -0.10 0.02 2432
0.09 0.47 0.71 -0.79 10.04 -0.00 -0.09 0.02 2438
0.09 0.40 0.71 -0.76 10.00 0.00 -0.08 0.03 2444
0.09 0.41 0.72 -0.76 10.01 0.01 -0.07 0.03 2450
0.10 0.33 0.74 -0.79 10.00 0.01 -0.05 0.03 2456
0.10 0.27 0.71 -0.80 9.96 0.02 -0.05 0.04 2462
0.10 0.24 0.74 -0.80 9.98 0.03 -0.03 0.04 2469
0.12 0.22 0.77 -0.80 9.98 0.03 -0.03 0.04 2476
0.11 0.20 0.78 -0.81 9.95 0.03 -0.02 0.04 2482
0.11 0.22 0.76 -0.81 10.00 0.03 -0.01 0.04 2488
0.12 0.16 0.75 -0.85 9.92 0.03 -0.01 0.04 2494
0.13 0.18 0.78 -0.86 10.00 0.03 -0.00 0.04 2500
0.13 0.12 0.70 -0.84 9.98 0.03 0.00 0.04 2506
0.14 0.10 0.74 -0.79 9.99 0.03 0.02 0.04 2513
0.15 0.11 0.77 -0.87 9.99 0.03 0.02 0.04 2520
0.14 0.05 0.79 -0.82 9.99 0.02 0.02 0.04 2526
0.12 0.06 0.77 -0.84 9.97 0.02 0.02 0.04 2532
0.14 0.07 0.81 -0.85 9.94 0.02 0.02 0.04 2538
0.16 0.06 0.85 -0.82 9.92 0.02 0.02 0.04 2544
0.15 0.02 0.83 -0.87 9.98 0.02 0.02 0.04 2550
0.14 0.04 0.81 -0.85 9.96 0.02 0.02 0.04 2556
0.16 0.04 0.86 -0.88 9.93 0.02 0.01 0.04 2564
0.15 0.03 0.83 -0.85 10.01 0.01 0.02 0.03 2570
0.14 0.02 0.86 -0.87 9.97 0.01 0.01 0.03 2576
0.14 0.04 0.84 -0.88 9.99 0.01 0.01 0.03 2582
0.17 0.01 0.85 -0.86 10.01 0.01 0.00 0.03 2588
0.16 -0.01 0.90 -0.88 10.03 0.02 -0.00 0.03 2594
0.15 0.01 0.88 -0.86 9.96 0.02 -0.01 0.03 2600
0.16 0.01 0.82 -0.90 9.98 0.01 -0.01 0.03 2608
0.17 -0.02 0.83 -0.87 9.98 0.01 -0.01 0.03 2614
0.17 -0.01 0.80 -0.83 9.99 0.01 -0.02 0.02 2620
0.22 -0.02 0.82 -0.88 9.99 0.01 -0.02 0.03 2626
0.23 -0.01 0.81 -0.85 9.97 0.01 -0.02 0.03 2632
0.21 -0.02 0.89 -0.89 10.01 0.01 -0.01 0.03 2638
0.22 -0.02 0.83 -0.87 10.01 0.01 -0.02 0.03 2644
0.22 -0.02 0.90 -0.93 10.02 0.02 -0.01 0.03 2651
0.27 -0.03 0.87 -0.90 10.01 0.02 -0.01 0.03 2658
0.28 -0.03 0.89 -0.84 10.02 0.02 -0.01 0.03 2664
0.23 -0.02 0.92 -0.88 9.93 0.03 -0.01 0.03 2670
0.23 0.01 0.90 -0.87 10.07 0.03 -0.01 0.03 2676
0.26 -0.01 0.97 -1.10 10.12 0.03 -0.01 0.04 2682
0.27 -0.02 0.80 -0.87 9.94 0.04 -0.01 0.04 2689
0.28 -0.02 0.86 -0.92 10.01 0.04 -0.02 0.04 2695
0.30 -0.03 0.86 -0.88 10.03 0.06 -0.01 0.04 2702
0.33 -0.03 0.87 -0.92 10.03 0.06 -0.02 0.04 2708
0.31 -0.02 0.91 -0.91 10.03 0.08 -0.02 0.04 2714
0.34 -0.02 0.88 -0.96 10.04 0.09 -0.02 0.04 2720
0.33 -0.03 0.88 -0.95 10.03 0.10 -0.03 0.03 2726
0.33 -0.03 0.94 -0.96 10.00 0.11 -0.03 0.03 2733
0.35 -0.03 0.89 -1.00 10.03 0.13 -0.03 0.03 2740
0.38 -0.03 0.89 -1.04 10.03 0.15 -0.03 0.02 2746
0.39 -0.03 0.94 -1.04 10.05 0.17 -0.03 0.02 2752
0.39 -0.03 0.89 -1.01 10.05 0.19 -0.02 0.02 2758
0.46 -0.04 0.94 -1.07 9.99 0.22 -0.01 0.01 2764
0.47 -0.03 0.99 -1.12 10.06 0.25 -0.01 -0.00 2770
0.52 -0.04 0.95 -1.10 10.26 0.30 0.00 -0.01 2778
0.55 -0.03 0.95 -1.14 10.29 0.36 0.00 -0.01 2784
0.56 -0.03 0.98 -1.15 10.28 0.45 0.01 -0.03 2790
0.60 -0.02 0.98 -1.16 10.40 0.54 0.01 -0.04 2796
0.65 -0.04 0.87 -1.21 10.49 0.65 0.02 -0.05 2802
0.68 -0.03 0.89 -1.29 10.55 0.75 0.01 -0.05 2809
0.72 -0.04 0.92 -1.42 10.57 0.80 -0.01 -0.05 2816
0.73 -0.03 0.98 -1.46 10.78 0.85 -0.04 -0.05 2822
0.77 -0.03 0.91 -1.49 10.81 0.91 -0.05 -0.05 2828
0.82 -0.04 0.96 -1.55 10.53 0.95 -0.05 -0.05 2835
0.82 -0.05 0.98 -1.62 10.71 0.99 -0.06 -0.06 2841
0.85 -0.03 0.98 -1.71 10.77 1.04 -0.06 -0.06 2847
0.90 -0.04 0.98 -1.82 10.95 1.11 -0.08 -0.06 2853
0.96 -0.06 0.93 -1.81 10.92 1.17 -0.09 -0.07 2860
1.00 -0.03 0.96 -1.93 10.78 1.24 -0.10 -0.07 2867
1.06 -0.05 1.06 -2.07 10.95 1.31 -0.09 -0.08 2873
1.06 -0.04 0.92 -2.13 10.86 1.38 -0.08 -0.08 2879
1.10 -0.03 0.99 -2.12 10.84 1.47 -0.05 -0.09 2885
1.08 -0.05 0.87 -2.28 10.54 1.54 -0.01 -0.09 2891
1.07 -0.04 0.86 -2.41 10.61 1.61 0.03 -0.10 2898
1.12 -0.05 0.76 -2.47 10.82 1.68 0.08 -0.09 2905
1.11 -0.07 0.94 -2.68 10.76 1.78 0.13 -0.09 2911
1.09 -0.05 0.82 -2.70 10.44 1.88 0.22 -0.09 2917
1.04 -0.05 0.85 -2.96 10.80 2.00 0.33 -0.10 2923
1.04 -0.05 0.88 -3.02 10.97 2.10 0.47 -0.10 2930
1.00 -0.04 0.56 -3.16 11.17 2.25 0.64 -0.09 2936
0.96 -0.05 0.87 -3.41 11.78 2.42 0.84 -0.07 2942
0.87 -0.05 0.41 -3.40 12.21 2.65 1.06 -0.04 2949
0.75 -0.03 0.57 -3.78 12.68 2.88 1.23 -0.00 2956
0.56 -0.03 1.08 -3.80 12.75 3.13 1.53 0.02 2962
0.42 -0.03 0.83 -4.15 13.39 3.40 1.86 0.04 2968
0.36 -0.03 0.59 -4.52 14.23 3.67 2.14 0.12 2974
0.23 -0.02 0.12 -5.04 16.00 3.94 2.23 0.18 2980
0.22 -0.02 0.07 -6.06 17.66 4.14 2.20 0.35 2987
0.23 -0.01 0.04 -6.73 17.85 4.24 2.15 0.52 2994
0.17 -0.01 0.23 -8.10 15.85 4.21 2.29 0.77 3000
0.12 -0.01 0.88 -9.38 21.25 4.17 2.31 0.95 3006
0.12 -0.01 3.18 -11.11 25.67 4.27 2.64 1.02 3012
0.11 -0.01 3.42 -11.36 26.78 4.28 2.93 1.03 3019
0.11 -0.01 1.91 -10.93 25.52 4.28 3.01 1.06 3025
0.09 -0.01 1.56 -9.95 24.26 4.28 3.03 1.18 3032
0.10 -0.01 3.07 -9.65 24.26 4.28 3.09 1.25 3038
0.07 0.00 3.93 -8.64 23.75 4.28 3.20 1.22 3044
0.08 -0.01 4.61 -6.44 22.90 4.28 3.39 1.07 3051
0.05 -0.00 4.20 -3.78 23.39 4.28 3.52 0.87 3057
0.05 0.00 2.90 -2.03 23.64 4.28 3.59 0.69 3063
0.06 -0.01 1.82 0.56 22.98 4.28 3.64 0.45 3069
0.04 -0.00 0.99 3.78 21.58 4.23 3.62 0.21 3076
0.03 0.00 -0.08 6.22 19.82 4.03 3.54 -0.04 3082
0.05 -0.00 -2.70 4.86 18.39 3.65 3.37 -0.43 3089
0.04 -0.00 -8.14 7.24 10.97 3.42 3.01 -1.18 3095
0.02 0.00 -7.18 7.67 15.61 3.02 1.47 -1.83 3101
0.05 -0.00 -7.84 9.13 14.32 1.47 -0.13 -2.15 3107
0.06 -0.01 -7.49 12.48 9.04 -0.65 -1.30 -2.40 3113
0.05 -0.01 -4.94 10.85 11.98 -2.29 -1.95 -2.60 3120
0.05 -0.01 -2.04 4.58 14.43 -3.22 -2.45 -2.87 3127
0.03 -0.00 -1.40 1.16 13.27 -3.77 -2.69 -3.11 3133
0.03 -0.00 -0.64 -0.58 11.56 -3.97 -2.61 -3.45 3139
0.05 -0.00 0.39 -1.30 10.22 -3.91 -2.28 -3.75 3145
0.05 -0.00 0.87 -1.76 8.64 -3.75 -1.90 -4.03 3151
0.05 -0.00 0.55 -1.25 7.07 -3.61 -1.67 -4.26 3158
0.03 0.02 0.15 -0.63 6.81 -3.53 -1.56 -4.28 3165
0.03 -0.00 0.79 -0.41 6.63 -3.47 -1.58 -4.28 3171
0.02 -0.00 1.77 -0.06 6.66 -3.50 -1.77 -4.28 3177
0.03 -0.00 2.01 0.15 7.23 -3.58 -1.94 -4.28 3183
0.06 -0.01 2.32 -0.41 7.98 -3.68 -2.05 -4.28 3189
0.04 -0.00 2.42 -1.06 8.97 -3.78 -2.04 -4.05 3195
0.04 -0.00 3.44 -0.90 9.45 -3.89 -2.11 -3.70 3202
0.05 -0.00 4.25 -0.56 9.30 -3.98 -2.34 -3.34 3208
0.05 -0.01 4.86 -1.19 9.11 -4.08 -2.56 -2.95 3215
0.03 -0.00 5.42 -1.93 8.44 -4.17 -2.73 -2.55 3221
0.02 -0.00 6.34 -2.18 8.27 -4.23 -2.96 -2.17 3227
0.03 -0.00 7.14 -2.93 8.06 -4.26 -3.12 -1.90 3233
0.04 -0.00 8.50 -3.00 8.02 -4.26 -3.17 -1.59 3239
0.05 -0.01 9.44 -4.08 7.16 -4.24 -3.04 -1.29 3246
0.04 -0.00 10.41 -4.06 7.74 -4.22 -2.84 -1.03 3252
0.05 -0.01 11.49 -4.48 6.26 -4.19 -2.42 -0.78 3258
0.04 -0.00 12.74 -4.85 6.46 -4.12 -1.88 -0.59 3265
0.03 0.00 13.32 -5.50 5.63 -4.03 -1.29 -0.41 3271
0.03 0.00 13.21 -5.76 7.01 -3.89 -0.83 -0.25 3277
0.03 -0.00 13.28 -6.34 6.08 -3.69 -0.31 -0.08 3283
0.04 -0.00 12.95 -6.92 6.27 -3.51 0.08 0.06 3290
0.04 -0.00 12.55 -7.34 6.56 -3.33 0.35 0.26 3297
0.04 -0.00 12.35 -7.91 6.63 -3.16 0.53 0.46 3303
0.03 -0.00 12.38 -8.42 6.67 -3.01 0.70 0.64 3309
0.04 -0.00 11.90 -9.11 7.06 -2.84 0.87 0.80 3315
0.03 -0.00 12.18 -9.62 7.04 -2.66 1.08 0.94 3321
0.04 -0.00 11.90 -10.02 7.25 -2.52 1.32 1.02 3328
0.04 -0.00 11.63 -10.20 7.74 -2.34 1.60 1.10 3335
0.03 -0.00 11.40 -10.25 8.37 -2.16 1.86 1.19 3341
0.04 -0.00 11.02 -9.74 9.08 -2.02 2.07 1.29 3347
0.04 0.01 10.46 -10.19 9.86 -1.91 2.35 1.41 3353
0.04 -0.00 9.84 -10.46 10.50 -1.85 2.58 1.55 3359
0.03 -0.00 9.15 -10.69 11.07 -1.81 2.73 1.69 3366
0.05 -0.01 8.46 -10.95 11.46 -1.77 2.80 1.79 3373
0.04 -0.00 7.89 -11.30 12.24 -1.72 2.79 1.90 3379
0.04 -0.00 7.37 -11.89 11.88 -1.67 2.75 1.95 3385
0.05 -0.00 7.03 -12.35 12.23 -1.62 2.73 1.95 3392
0.04 -0.00 6.69 -12.79 12.68 -1.58 2.75 1.88 3398
0.03 -0.00 6.49 -13.00 13.09 -1.54 2.83 1.78 3404
0.03 -0.00 6.21 -13.02 13.60 -1.51 2.98 1.63 3410
0.03 -0.00 5.59 -12.93 13.85 -1.51 3.16 1.47 3417
0.04 -0.00 4.83 -12.80 14.05 -1.52 3.35 1.31 3424
0.04 -0.00 3.87 -12.85 14.15 -1.55 3.50 1.16 3430
0.02 -0.00 2.89 -12.82 14.11 -1.59 3.57 1.03 3436
0.03 -0.00 2.02 -12.46 14.29 -1.61 3.53 0.94 3442
0.03 -0.00 1.23 -12.12 14.71 -1.62 3.39 0.89 3448
0.03 -0.00 0.74 -11.82 14.63 -1.63 3.23 0.86 3456
0.04 -0.00 0.17 -11.74 14.60 -1.64 3.07 0.87 3462
0.03 -0.00 -0.28 -11.78 14.43 -1.64 2.90 0.88 3468
0.03 -0.00 -0.57 -11.89 14.42 -1.64 2.76 0.90 3474
0.04 -0.00 -0.77 -12.08 14.29 -1.61 2.66 0.92 3480
0.02 -0.00 -1.11 -12.24 14.18 -1.57 2.58 0.94 3487
0.02 -0.00 -1.50 -12.38 14.03 -1.49 2.50 0.94 3493
0.03 -0.00 -1.98 -12.42 14.06 -1.39 2.45 0.94 3500
0.03 -0.00 -2.62 -12.55 14.34 -1.29 2.42 0.97 3506
0.02 -0.00 -3.33 -12.76 14.37 -1.20 2.35 1.02 3512
0.03 -0.00 -4.07 -13.05 14.09 -1.12 2.17 1.06 3519
0.02 -0.00 -4.73 -13.28 13.63 -1.07 1.86 1.07 3525
0.03 -0.00 -9.01 -18.47 13.40 -0.96 1.24 1.04 3531
0.02 -0.00 -18.59 -21.92 18.51 -0.06 -0.92 1.17 3537
0.02 -0.00 -11.10 -14.71 8.02 0.15 -1.87 1.23 3545
0.04 -0.00 -8.27 -14.15 4.63 0.18 -2.64 1.08 3551
0.03 -0.00 -8.99 -20.69 2.90 0.13 -3.19 0.98 3557
0.04 -0.00 -11.47 -23.64 5.88 0.44 -4.13 0.93 3563
0.04 -0.00 -10.67 -21.90 6.39 0.74 -4.28 0.89 3569
0.03 -0.00 -9.85 -15.21 6.80 1.05 -4.28 0.96 3576
0.02 -0.00 -0.48 -4.98 7.47 1.24 -4.28 1.00 3582
0.03 -0.00 2.07 2.57 16.99 1.47 -4.28 1.01 3589
0.03 0.03 0.11 4.92 22.70 2.03 -3.41 1.18 3595
0.02 0.18 -2.00 8.86 19.11 2.05 -2.16 1.48 3601
0.04 0.30 -4.51 6.38 5.85 1.94 -1.66 1.34 3607
0.03 0.36 -9.52 0.25 12.69 2.28 -1.56 0.93 3614
-0.01 0.34 -10.30 -3.34 15.91 2.39 -1.27 0.46 3620
0.01 0.39 -9.17 -2.43 15.71 2.43 -1.20 -0.18 3627
0.01 0.50 2.45 -2.36 32.89 2.15 -1.97 -0.78 3633
0.01 0.48 3.85 -3.42 18.95 0.31 -1.68 -0.47 3640
0.01 0.55 1.81 -2.04 10.73 0.06 -0.57 -0.01 3646
-0.00 0.55 1.43 -1.94 11.64 -0.08 -0.04 0.03 3652
-0.00 0.64 1.40 -1.18 9.05 -0.05 0.06 0.13 3658
0.01 0.60 1.54 -0.69 9.64 0.14 -0.22 0.14 3664
0.01 0.58 0.90 -0.72 10.97 0.23 -0.39 0.18 3671
0.01 0.55 0.68 -0.59 10.75 0.20 -0.37 0.18 3678
0.01 0.49 0.38 -0.58 10.67 0.11 -0.25 0.11 3684
0.01 0.47 0.76 -0.62 10.20 0.03 -0.15 0.06 3690
0.03 0.45 1.06 -0.87 9.46 0.02 -0.17 0.04 3696
0.02 0.46 1.11 -0.78 9.87 0.03 -0.20 0.04 3702
0.02 0.46 0.95 -0.64 10.09 0.03 -0.20 0.04 3709
0.02 0.51 0.88 -0.56 9.80 -0.01 -0.18 0.02 3716
0.03 0.52 0.58 -0.65 10.18 -0.02 -0.17 0.01 3722
0.02 0.52 0.75 -0.80 10.13 -0.04 -0.16 0.00 3728
0.03 0.58 0.58 -0.71 10.17 -0.05 -0.14 0.01 3734
0.03 0.65 1.19 -0.86 10.24 -0.05 -0.13 0.01 3740
0.03 0.60 0.64 -0.77 10.09 -0.05 -0.11 0.01 3747
0.03 0.62 0.61 -0.64 9.85 -0.04 -0.10 0.02 3753
0.03 0.59 0.77 -0.72 10.10 -0.03 -0.08 0.03 3760
0.03 0.61 0.70 -0.79 10.12 -0.02 -0.07 0.04 3766
0.05 0.61 0.80 -0.77 10.13 -0.02 -0.06 0.05 3772
0.03 0.61 0.83 -0.71 10.08 -0.02 -0.07 0.05 3779
0.04 0.62 0.85 -0.78 10.09 -0.01 -0.08 0.05 3785
0.04 0.63 0.86 -0.68 9.98 -0.01 -0.09 0.04 3791
0.04 0.63 0.83 -0.71 10.05 -0.02 -0.10 0.04 3798
0.03 0.63 0.87 -0.76 10.01 -0.02 -0.11 0.03 3804
0.03 0.63 0.87 -0.68 10.06 -0.02 -0.12 0.02 3810
0.06 0.62 0.76 -0.72 10.04 -0.02 -0.12 0.01 3817
0.07 0.59 0.78 -0.70 10.07 -0.02 -0.13 0.01 3823
0.09 0.61 0.74 -0.68 10.06 -0.01 -0.12 0.01 3829
0.11 0.58 0.70 -0.72 10.10 -0.01 -0.12 0.01 3835
0.10 0.56 0.68 -0.70 10.03 -0.01 -0.11 0.01 3842
0.10 0.57 0.75 -0.67 10.01 -0.00 -0.10 0.02 3849
0.10 0.54 0.70 -0.68 10.03 -0.00 -0.10 0.03 3855
0.10 0.51 0.69 -0.73 10.03 0.00 -0.09 0.02 3861
0.11 0.49 0.72 -0.72 10.04 0.01 -0.09 0.03 3867
0.14 0.45 0.70 -0.73 10.04 0.01 -0.08 0.03 3873
0.13 0.42 0.73 -0.74 10.03 0.02 -0.08 0.03 3880
0.14 0.43 0.74 -0.77 10.04 0.02 -0.08 0.03 3887
0.15 0.37 0.69 -0.74 10.02 0.02 -0.08 0.03 3893
0.15 0.30 0.72 -0.74 10.04 0.01 -0.07 0.03 3899
0.16 0.26 0.71 -0.75 10.00 0.01 -0.07 0.03 3905
0.18 0.26 0.67 -0.72 10.01 0.01 -0.06 0.03 3912
0.18 0.23 0.72 -0.71 9.99 0.02 -0.06 0.07 3918
0.20 0.23 0.70 -0.72 10.02 0.01 -0.06 0.03 3924
0.20 0.20 0.69 -0.72 9.99 0.01 -0.05 0.04 3931
0.22 0.16 0.72 -0.72 9.98 0.02 -0.05 0.03 3937
0.21 0.15 0.68 -0.75 9.99 0.01 -0.05 0.04 3943
0.23 0.17 0.65 -0.74 9.98 0.01 -0.04 0.04 3949
0.23 0.16 0.69 -0.76 9.95 0.01 -0.03 0.04 3956
0.22 0.13 0.68 -0.73 10.02 0.01 -0.03 0.04 3962
0.23 0.13 0.70 -0.77 10.05 0.01 -0.03 0.04 3969
0.25 0.07 0.74 -0.75 10.00 0.01 -0.02 0.04 3975
0.24 0.08 0.70 -0.74 10.00 0.01 -0.01 0.04 3981
0.26 0.09 0.71 -0.74 9.92 0.01 0.00 0.04 3987
0.27 0.04 0.65 -0.76 10.01 0.01 0.02 0.04 3994
0.27 0.02 0.71 -0.75 9.96 0.01 0.03 0.04 4000
0.26 0.04 0.72 -0.77 10.02 0.01 0.04 0.04 4006
0.27 0.05 0.80 -0.75 10.09 0.01 0.05 0.04 4013
0.25 0.00 0.82 -0.74 10.04 0.02 0.04 0.04 4019
0.24 0.02 0.79 -0.75 10.00 0.02 0.05 0.04 4025
0.27 0.03 0.76 -0.78 10.04 0.01 0.05 0.04 4032
0.26 0.02 0.72 -0.76 9.96 0.01 0.05 0.04 4038
0.23 0.00 0.77 -0.80 10.02 0.01 0.05 0.04 4044
0.23 0.00 0.79 -0.77 10.02 0.02 0.04 0.04 4050
0.25 -0.01 0.77 -0.67 9.96 0.02 0.04 0.04 4057
0.27 -0.01 0.77 -0.78 10.01 0.03 0.04 0.04 4063
0.26 0.01 0.84 -0.81 10.03 0.03 0.05 0.04 4070
0.27 0.00 0.78 -0.77 10.01 0.03 0.05 0.04 4076
0.26 -0.01 0.80 -0.79 10.04 0.04 0.05 0.05 4082
0.29 -0.00 0.78 -0.78 10.01 0.04 0.05 0.05 4088
0.31 -0.03 0.82 -0.74 10.00 0.05 0.05 0.04 4094
0.33 -0.03 0.79 -0.80 10.07 0.05 0.05 0.04 4101
0.33 -0.03 0.84 -0.80 10.06 0.05 0.05 0.04 4108
0.33 -0.03 0.80 -0.82 10.06 0.06 0.05 0.05 4114
0.33 -0.03 0.81 -0.88 10.03 0.06 0.05 0.05 4120
0.33 -0.03 0.83 -0.81 10.12 0.06 0.04 0.05 4126
0.33 -0.03 0.82 -0.86 10.02 0.07 0.04 0.05 4132
0.35 -0.04 0.92 -0.86 10.00 0.07 0.03 0.05 4139
0.36 -0.04 0.86 -0.85 9.94 0.07 0.03 0.04 4145
0.38 -0.03 0.85 -0.85 9.87 0.08 0.03 0.04 4151
0.40 -0.03 0.97 -0.97 9.98 0.08 0.03 0.04 4158
0.36 -0.04 0.80 -0.81 10.18 0.09 0.04 0.04 4164
0.38 -0.03 0.94 -0.96 9.98 0.11 0.03 0.03 4170
0.42 -0.03 0.98 -0.90 10.01 0.12 0.04 0.03 4176
0.41 -0.03 0.90 -0.91 10.05 0.13 0.04 0.03 4183
0.44 -0.03 0.89 -0.91 10.11 0.15 0.04 0.02 4189
0.46 -0.02 0.94 -0.98 10.07 0.17 0.04 0.01 4196
0.49 -0.03 0.86 -0.98 10.04 0.19 0.05 0.00 4202
0.51 -0.04 0.96 -1.02 9.98 0.22 0.05 0.00 4208
0.51 -0.01 1.03 -0.98 10.12 0.25 0.05 -0.00 4214
0.53 -0.03 0.94 -0.94 10.11 0.28 0.06 -0.01 4220
0.56 -0.04 1.00 -1.05 10.17 0.34 0.06 -0.02 4228
0.59 -0.02 0.92 -0.96 10.31 0.41 0.07 -0.02 4234
0.62 -0.03 0.97 -1.12 10.42 0.50 0.08 -0.02 4240
0.64 -0.04 1.13 -1.08 10.58 0.60 0.09 -0.02 4246
0.65 -0.03 1.03 -1.24 10.53 0.70 0.09 -0.04 4252
0.68 -0.03 1.04 -1.29 10.72 0.82 0.10 -0.05 4259
0.71 -0.04 1.08 -1.45 10.78 0.92 0.09 -0.06 4265
0.72 -0.03 1.14 -1.38 10.63 0.98 0.09 -0.07 4272
0.74 -0.04 1.07 -1.41 10.76 1.05 0.10 -0.07 4278
0.74 -0.04 1.15 -1.54 10.65 1.10 0.10 -0.08 4284
0.79 -0.04 1.13 -1.66 10.89 1.16 0.11 -0.09 4291
0.82 -0.05 1.09 -1.71 10.75 1.23 0.11 -0.09 4297
0.84 -0.03 1.19 -1.77 10.80 1.30 0.11 -0.10 4303
0.84 -0.04 1.16 -1.95 10.87 1.37 0.11 -0.11 4310
0.83 -0.05 1.16 -2.10 10.53 1.44 0.12 -0.12 4316
0.84 -0.04 1.26 -2.14 10.64 1.52 0.14 -0.12 4323
0.86 -0.04 1.19 -2.13 11.07 1.61 0.20 -0.13 4329
0.84 -0.05 1.17 -2.36 10.84 1.69 0.27 -0.13 4335
0.85 -0.04 1.26 -2.48 10.93 1.80 0.37 -0.14 4341
0.83 -0.05 1.03 -2.53 10.83 1.90 0.50 -0.15 4348
0.78 -0.04 1.11 -2.65 11.58 2.01 0.64 -0.15 4355
0.70 -0.05 1.04 -2.87 11.66 2.15 0.77 -0.15 4361
0.65 -0.04 1.05 -2.88 11.86 2.32 0.95 -0.13 4367
0.57 -0.03 0.72 -3.15 12.44 2.52 1.16 -0.10 4374
0.44 -0.03 1.28 -3.48 12.34 2.73 1.40 -0.07 4380
0.37 -0.02 1.12 -3.54 12.42 2.94 1.63 -0.03 4386
0.29 -0.02 0.89 -3.80 12.44 3.14 1.88 0.01 4392
0.19 -0.02 -0.08 -4.12 12.94 3.31 2.13 0.11 4399
0.12 -0.01 -0.50 -4.66 13.78 3.36 2.37 0.31 4406
0.14 -0.01 -0.22 -5.47 17.14 3.37 2.35 0.54 4412
0.15 -0.02 1.88 -6.64 19.67 3.59 2.62 0.69 4418
0.12 -0.01 2.90 -7.55 22.22 3.92 2.95 0.73 4424
0.12 -0.01 3.65 -8.10 23.28 4.19 3.32 0.80 4430
0.10 -0.01 3.73 -8.47 23.35 4.28 3.55 0.80 4436
0.09 -0.00 5.07 -9.50 23.80 4.28 3.67 0.84 4444
0.10 -0.01 5.90 -9.47 23.14 4.28 3.82 0.90 4450
0.09 -0.01 8.73 -9.54 24.43 4.28 4.12 0.95 4456
0.10 -0.01 10.27 -9.02 25.52 4.28 4.28 0.96 4462
0.07 -0.01 9.37 -7.52 25.21 4.26 4.28 0.81 4468
0.05 -0.01 6.79 -5.50 24.66 4.23 4.28 0.52 4474
0.03 -0.00 2.98 -2.57 24.77 4.17 4.28 0.18 4482
0.03 -0.00 -1.66 0.03 23.45 4.10 4.28 -0.18 4488
0.05 -0.00 -3.62 3.33 20.61 3.98 4.28 -0.59 4494
0.04 -0.00 -5.59 4.87 17.89 3.70 4.28 -1.03 4500
0.04 0.01 -8.10 5.76 16.45 3.33 4.24 -1.38 4506
0.04 -0.00 -13.79 -2.37 9.21 3.14 2.86 -2.10 4512
0.05 -0.00 -12.05 5.72 15.50 2.81 0.73 -2.67 4519
0.03 0.01 -10.03 7.29 14.59 1.46 -1.13 -2.72 4526
0.03 -0.00 -4.37 8.28 10.43 -0.04 -2.64 -2.66 4532
0.02 -0.00 -1.82 7.56 11.06 -1.17 -3.73 -2.70 4538
0.03 0.01 -0.29 4.64 13.82 -1.90 -4.13 -2.88 4544
0.04 -0.00 1.31 1.83 13.37 -2.31 -4.12 -3.17 4551
0.04 -0.00 2.73 0.39 12.28 -2.46 -3.90 -3.48 4557
0.05 0.00 3.58 -0.07 11.07 -2.46 -3.51 -3.79 4563
0.03 -0.00 3.65 -0.31 9.81 -2.39 -3.07 -4.05 4570
0.04 -0.00 3.70 -0.22 8.40 -2.32 -2.55 -4.26 4576
0.04 -0.00 3.75 0.21 7.78 -2.31 -2.13 -4.28 4582
0.04 -0.00 3.53 0.74 7.48 -2.35 -1.87 -4.28 4588
0.03 -0.00 3.37 1.11 7.80 -2.45 -1.77 -4.28 4595
0.01 -0.00 3.48 1.28 8.08 -2.57 -1.76 -4.28 4601
0.03 0.00 3.33 1.14 7.84 -2.76 -1.87 -4.20 4608
0.04 -0.00 3.10 0.78 7.63 -2.98 -1.95 -3.94 4614
0.04 -0.00 3.80 0.94 9.04 -3.21 -2.02 -3.69 4620
0.01 -0.00 4.46 0.53 9.99 -3.44 -2.17 -3.46 4626
0.04 -0.00 4.53 -0.52 9.76 -3.60 -2.40 -3.15 4632
0.03 -0.00 5.45 -1.63 9.22 -3.75 -2.64 -2.76 4638
0.03 -0.00 6.34 -1.76 8.53 -3.92 -2.98 -2.39 4645
0.03 -0.00 7.16 -1.94 8.23 -4.02 -3.30 -2.06 4652
0.03 -0.00 7.91 -2.53 8.20 -4.09 -3.48 -1.77 4658
0.04 -0.00 8.93 -3.01 8.03 -4.12 -3.56 -1.53 4664
0.04 -0.00 9.83 -3.59 7.39 -4.12 -3.48 -1.34 4670
0.04 -0.00 10.56 -4.14 7.80 -4.10 -3.23 -1.14 4676
0.05 -0.00 11.54 -4.61 7.60 -4.06 -2.86 -0.96 4682
0.03 -0.00 12.19 -5.05 7.28 -4.00 -2.38 -0.80 4689
0.02 -0.00 12.42 -5.33 6.93 -3.96 -1.83 -0.65 4696
0.05 -0.00 12.69 -5.82 6.85 -3.88 -1.26 -0.48 4702
0.03 -0.00 12.35 -6.24 6.98 -3.81 -0.77 -0.29 4708
0.02 -0.00 12.29 -6.88 7.73 -3.71 -0.46 -0.09 4714
0.04 0.00 12.36 -7.52 7.58 -3.58 -0.12 0.12 4720
0.04 -0.00 12.21 -8.11 7.73 -3.45 0.14 0.32 4727
0.03 -0.00 12.28 -8.74 7.92 -3.32 0.36 0.55 4733
0.04 -0.00 12.12 -9.53 8.08 -3.18 0.57 0.75 4740
0.04 -0.00 12.01 -10.12 8.23 -3.03 0.79 0.94 4746
0.02 -0.00 11.90 -10.60 8.27 -2.85 1.02 1.10 4752
0.03 0.01 11.54 -11.08 8.57 -2.68 1.26 1.24 4759
0.04 -0.00 11.24 -11.57 8.73 -2.51 1.50 1.36 4765
0.03 -0.00 11.04 -11.74 8.99 -2.37 1.72 1.46 4771
0.05 -0.00 10.64 -11.79 9.59 -2.18 1.94 1.56 4777
0.03 -0.00 10.21 -11.76 10.03 -2.07 2.17 1.67 4784
0.04 0.00 9.80 -11.70 10.53 -1.95 2.36 1.79 4791
0.04 -0.00 9.28 -11.54 10.83 -1.87 2.49 1.90 4797
0.02 -0.00 8.81 -11.47 11.24 -1.81 2.57 2.00 4803
0.03 -0.00 8.35 -11.52 11.51 -1.77 2.61 2.08 4809
0.03 -0.00 8.04 -11.57 11.69 -1.74 2.65 2.12 4816
0.02 -0.00 7.58 -11.39 11.89 -1.72 2.66 2.12 4823
0.04 -0.00 7.08 -11.20 12.08 -1.71 2.68 2.08 4829
0.03 -0.00 6.55 -10.98 12.28 -1.70 2.72 2.02 4835
0.03 -0.00 5.83 -10.76 12.52 -1.69 2.78 1.93 4841
0.03 -0.00 5.23 -10.51 12.79 -1.68 2.85 1.81 4848
0.03 -0.00 4.52 -10.36 13.08 -1.67 2.91 1.67 4854
0.03 -0.00 3.87 -10.42 13.27 -1.65 2.97 1.53 4860
0.03 -0.00 3.26 -10.56 13.60 -1.64 3.04 1.38 4867
0.02 -0.00 2.78 -10.73 13.84 -1.62 3.10 1.25 4874
0.03 -0.00 2.34 -10.71 13.89 -1.59 3.15 1.12 4880
0.02 -0.00 1.91 -10.65 13.82 -1.55 3.18 1.01 4886
0.01 -0.00 1.59 -10.52 13.95 -1.49 3.20 0.92 4892
0.03 -0.00 1.51 -10.64 14.20 -1.43 3.22 0.85 4898
0.02 -0.00 1.45 -10.92 14.65 -1.34 3.24 0.80 4905
0.02 -0.00 1.25 -11.41 15.12 -1.33 3.22 0.76 4912
0.02 -0.00 0.84 -12.08 15.62 -1.32 3.12 0.74 4918
0.02 -0.00 0.33 -12.56 15.73 -1.34 2.94 0.74 4924
0.02 0.00 -0.31 -12.85 15.42 -1.39 2.69 0.75 4930
0.02 -0.00 -0.79 -13.04 14.66 -1.44 2.38 0.76 4937
0.01 -0.00 -1.80 -13.24 13.75 -1.47 2.18 0.77 4943
0.02 0.00 -1.62 -13.62 12.83 -1.46 1.95 0.78 4950
0.02 -0.00 -2.05 -13.97 12.24 -1.38 1.80 0.81 4956
0.02 -0.00 -2.58 -14.26 11.89 -1.26 1.74 0.85 4963
0.04 -0.00 -3.22 -15.26 11.38 -1.11 1.71 0.89 4969
0.02 -0.00 -3.98 -15.00 10.97 -0.96 1.69 0.91 4975
0.03 0.00 -4.81 -15.29 10.51 -0.80 1.66 0.92 4981
0.02 -0.00 -5.58 -15.60 10.05 -0.63 1.61 0.90 4987
0.01 -0.00 -6.55 -15.75 9.48 -0.46 1.57 0.88 4995
0.03 0.00 -7.41 -15.91 9.06 -0.28 1.54 0.86 5001
0.02 -0.00 -7.94 -16.15 8.82 -0.07 1.46 0.82 5007
0.02 -0.00 -8.46 -16.44 8.77 0.12 1.22 0.72 5013
0.02 0.00 -9.34 -16.39 8.66 0.29 0.77 0.57 5019
0.02 -0.00 -30.68 -14.04 34.00 1.02 -1.88 0.73 5026
0.01 -0.00 -0.99 -3.35 10.76 1.78 -2.99 1.25 5032
0.02 -0.00 2.03 4.22 8.97 1.64 -3.99 0.79 5039
0.03 -0.00 4.48 13.65 10.66 1.35 -3.87 0.61 5045
0.03 -0.00 8.01 12.26 10.44 1.03 -3.82 0.63 5051
0.02 -0.00 2.52 5.20 11.63 0.76 -3.66 0.72 5057
0.02 -0.00 0.67 1.78 10.23 0.79 -3.32 0.78 5064
0.02 -0.00 -0.44 -0.08 8.13 0.92 -3.07 0.73 5070
0.02 -0.00 -0.90 -0.74 6.91 1.13 -3.06 0.59 5076
0.03 0.03 -1.73 -0.14 8.13 1.40 -3.28 0.41 5083
0.03 0.02 -1.67 0.72 10.58 1.61 -3.41 0.22 5089
0.00 0.07 -0.47 0.86 13.13 1.87 -3.19 0.07 5095
0.03 0.17 -0.59 -0.20 14.60 2.04 -2.81 -0.01 5102
0.03 0.24 -1.12 -0.31 14.20 2.15 -2.46 -0.10 5108
0.01 0.35 -1.10 -0.85 14.34 2.24 -2.27 -0.24 5114
0.03 0.38 0.27 -1.66 16.31 2.30 -2.28 -0.39 5121
0.01 0.43 2.91 -0.77 21.47 1.95 -3.03 -0.39 5127
0.01 0.44 3.42 -2.96 20.73 1.43 -2.95 -0.04 5134
0.02 0.53 0.86 -2.42 15.68 0.90 -2.19 0.14 5140
0.02 0.58 0.24 -2.07 13.29 0.42 -1.36 0.14 5146
0.02 0.66 0.19 -1.82 11.74 0.14 -0.75 0.14 5152
0.02 0.65 0.08 -0.94 10.47 0.05 -0.51 0.08 5159
0.00 0.67 0.52 -0.74 10.64 0.03 -0.41 0.05 5166
0.00 0.74 0.78 -0.82 10.33 0.02 -0.31 0.06 5172
-0.00 0.75 0.90 -0.87 10.31 -0.00 -0.20 0.07 5178
0.01 0.75 0.05 -0.31 10.05 -0.02 -0.14 0.07 5184
0.01 0.88 0.65 -0.77 10.13 -0.04 -0.09 0.06 5190
0.01 0.89 0.82 -0.78 10.13 -0.03 -0.07 0.06 5197
-0.01 0.91 0.83 -0.73 10.06 -0.03 -0.05 0.06 5203
0.01 0.88 0.86 -0.76 10.10 -0.02 -0.04 0.06 5210
0.01 0.88 0.78 -0.77 10.13 -0.02 -0.04 0.06 5216
-0.01 0.88 0.84 -0.79 10.04 -0.01 -0.02 0.06 5222
0.02 0.88 0.91 -0.77 10.02 -0.01 -0.02 0.06 5229
0.00 0.88 0.83 -0.73 9.98 -0.01 -0.01 0.06 5235
0.01 0.87 0.86 -0.71 10.02 -0.01 -0.01 0.06 5241
0.02 0.83 0.88 -0.74 9.98 -0.01 0.00 0.05 5248
0.02 0.81 0.88 -0.67 9.90 -0.01 -0.00 0.05 5254
0.01 0.78 0.96 -0.72 9.98 -0.01 0.00 0.05 5260
0.02 0.76 0.95 -0.71 9.94 -0.00 0.01 0.05 5266
0.03 0.76 0.97 -0.69 10.02 -0.00 0.00 0.05 5273
0.01 0.73 0.94 -0.69 9.96 0.00 0.00 0.05 5279
0.00 0.72 0.93 -0.70 9.95 0.00 0.00 0.05 5285
0.01 0.71 0.92 -0.64 9.96 0.00 0.01 0.04 5292
0.01 0.68 0.95 -0.73 9.98 0.01 0.01 0.04 5298
0.01 0.66 0.94 -0.68 9.97 0.00 0.01 0.04 5304
0.01 0.61 0.91 -0.68 9.93 0.01 0.01 0.05 5310
0.02 0.59 0.95 -0.70 9.99 0.00 0.00 0.04 5316
0.04 0.56 0.99 -0.68 9.98 0.00 -0.00 0.05 5323
0.04 0.52 0.96 -0.72 9.93 0.00 -0.01 0.04 5329
0.04 0.51 0.97 -0.68 9.98 0.01 -0.03 0.04 5336
0.05 0.52 0.93 -0.68 9.94 0.01 -0.04 0.04 5342
0.05 0.46 0.93 -0.72 9.95 0.01 -0.05 0.04 5348
0.03 0.49 0.94 -0.73 9.92 0.01 -0.06 0.04 5354
0.04 0.43 0.98 -0.70 10.02 0.02 -0.08 0.04 5360
0.04 0.37 0.95 -0.69 9.95 0.02 -0.13 0.04 5367
0.04 0.37 0.91 -0.73 9.91 0.02 -0.12 0.04 5373
0.05 0.32 1.01 -0.69 9.90 0.01 -0.15 0.03 5380
0.07 0.29 0.95 -0.71 10.06 0.01 -0.19 0.03 5386
0.06 0.29 0.95 -0.74 9.97 0.00 -0.21 0.02 5392
0.05 0.26 0.92 -0.77 9.97 -0.01 -0.24 0.02 5398
0.07 0.23 0.89 -0.73 10.03 -0.01 -0.25 0.01 5404
0.08 0.18 0.83 -0.79 10.08 -0.02 -0.27 0.01 5411
0.07 0.19 0.81 -0.74 10.07 -0.03 -0.27 0.00 5417
0.11 0.15 0.73 -0.86 10.19 -0.03 -0.26 -0.00 5424
0.11 0.19 0.92 -0.94 9.86 -0.03 -0.20 0.00 5430
0.09 0.15 0.79 -0.74 10.05 -0.02 -0.21 -0.00 5436
0.13 0.14 0.74 -0.75 10.05 -0.02 -0.19 -0.00 5443
0.15 0.08 0.76 -0.74 10.03 -0.02 -0.16 0.00 5449
0.15 0.05 0.72 -0.74 10.01 -0.01 -0.13 0.01 5455
0.17 0.06 0.76 -0.78 10.03 -0.01 -0.11 0.01 5462
0.20 0.07 0.70 -0.71 10.00 -0.00 -0.10 0.02 5468
0.20 0.03 0.74 -0.57 10.26 -0.01 -0.08 0.03 5475
0.23 0.02 0.91 -0.76 9.99 0.01 -0.07 0.02 5481
0.24 0.02 0.81 -0.76 10.12 0.02 -0.06 0.03 5487
0.26 -0.02 0.68 -0.75 10.00 0.02 -0.06 0.04 5493
0.29 0.03 0.71 -0.75 9.98 0.03 -0.05 0.04 5499
0.27 0.01 0.73 -0.71 10.04 0.03 -0.04 0.04 5506
0.26 -0.03 0.72 -0.80 10.05 0.03 -0.04 0.05 5512
0.32 -0.03 0.51 -1.32 10.38 0.03 -0.03 0.05 5519
0.34 -0.00 0.76 -0.86 10.03 0.04 -0.03 0.05 5525
0.33 -0.03 0.81 -0.86 10.00 0.05 -0.03 0.05 5531
0.36 0.00 0.77 -0.81 10.02 0.05 -0.03 0.06 5537
0.37 -0.02 0.77 -0.80 10.03 0.06 -0.03 0.06 5543
0.40 -0.03 0.78 -0.81 10.01 0.07 -0.03 0.06 5551
0.43 -0.04 0.74 -0.83 10.00 0.07 -0.03 0.06 5557
0.45 -0.04 0.76 -0.82 10.09 0.08 -0.03 0.06 5563
0.45 -0.05 0.75 -0.83 10.02 0.09 -0.02 0.06 5569
0.43 -0.02 0.78 -0.85 10.02 0.09 -0.02 0.06 5575
0.46 -0.04 0.76 -0.86 10.01 0.10 -0.03 0.06 5581
0.49 -0.03 0.76 -0.85 10.06 0.10 -0.02 0.06 5588
0.53 -0.04 0.81 -0.91 10.08 0.11 -0.02 0.06 5595
0.57 -0.04 0.75 -0.82 10.05 0.12 -0.02 0.06 5601
0.54 -0.05 0.83 -0.91 10.00 0.12 -0.02 0.06 5607
0.57 -0.03 0.69 -0.86 10.06 0.14 -0.02 0.06 5613
0.60 -0.06 0.80 -0.89 10.06 0.15 -0.01 0.05 5620
0.61 -0.03 0.80 -1.01 10.01 0.17 -0.00 0.05 5626
0.66 -0.04 0.79 -1.00 10.03 0.18 -0.00 0.05 5633
0.65 -0.04 0.76 -0.93 10.01 0.20 -0.00 0.05 5639
0.65 -0.02 0.80 -0.94 10.15 0.22 0.01 0.04 5645
0.66 -0.04 0.88 -1.01 10.10 0.25 0.01 0.04 5652
0.73 -0.03 0.84 -1.11 10.14 0.28 0.02 0.03 5658
0.73 -0.04 0.79 -1.00 10.08 0.32 0.02 0.03 5664
0.73 -0.03 0.85 -1.06 10.13 0.35 0.02 0.03 5670
0.76 -0.04 0.75 -1.12 10.18 0.39 0.03 0.02 5677
0.80 -0.05 0.80 -1.18 10.15 0.45 0.04 0.02 5683
0.80 -0.04 0.87 -1.21 10.14 0.50 0.04 0.01 5690
0.84 -0.04 0.94 -1.25 10.38 0.55 0.05 0.01 5696
0.87 -0.05 0.87 -1.26 10.48 0.61 0.05 0.01 5702
0.89 -0.05 0.93 -1.33 10.51 0.68 0.05 0.00 5708
0.93 -0.05 0.98 -1.38 10.42 0.75 0.05 -0.01 5714
0.92 -0.05 0.94 -1.43 10.68 0.81 0.05 -0.02 5722
0.96 -0.03 0.96 -1.51 10.78 0.88 0.04 -0.04 5728
0.97 -0.04 1.03 -1.59 10.77 0.96 0.05 -0.05 5734
0.96 -0.05 1.04 -1.70 10.70 1.03 0.05 -0.07 5740
1.00 -0.05 1.03 -1.69 10.66 1.09 0.05 -0.08 5746
1.02 -0.04 1.03 -1.81 10.69 1.16 0.06 -0.09 5753
1.05 -0.05 1.01 -1.88 10.69 1.22 0.07 -0.13 5760
1.05 -0.05 1.08 -2.01 11.04 1.29 0.08 -0.11 5766
1.07 -0.04 1.07 -2.10 10.67 1.36 0.10 -0.12 5772
1.08 -0.05 1.05 -2.18 10.88 1.44 0.13 -0.13 5779
1.08 -0.05 1.12 -2.18 11.03 1.53 0.19 -0.14 5785
1.05 -0.06 0.96 -2.38 10.77 1.62 0.26 -0.14 5791
1.02 -0.04 0.93 -2.42 11.08 1.72 0.35 -0.14 5797
1.00 -0.05 0.66 -2.44 11.33 1.85 0.46 -0.13 5804
0.98 -0.05 0.69 -2.68 11.92 2.00 0.58 -0.11 5811
0.90 -0.04 1.62 -2.38 11.20 2.17 0.72 -0.09 5817
0.84 -0.04 0.93 -3.21 11.26 2.35 0.90 -0.09 5823
0.77 -0.04 1.39 -3.23 11.53 2.53 1.12 -0.10 5829
0.62 -0.03 0.78 -3.34 11.83 2.70 1.41 -0.10 5836
0.47 -0.04 0.53 -3.81 12.72 2.88 1.78 -0.05 5842
0.32 -0.02 0.19 -3.96 12.51 3.01 2.09 0.03 5849
0.25 -0.02 0.51 -4.26 12.55 3.18 2.25 0.14 5855
0.14 -0.01 -0.21 -4.95 13.37 3.29 2.42 0.30 5861
0.12 -0.01 0.97 -5.82 15.49 3.24 2.41 0.47 5868
0.13 -0.01 0.97 -6.55 17.87 3.35 2.33 0.61 5874
0.10 -0.01 2.90 -7.23 20.44 3.59 2.56 0.63 5880
0.08 -0.00 3.58 -8.16 22.28 3.91 2.94 0.66 5886
0.08 -0.01 4.18 -8.50 22.82 4.15 3.22 0.69 5893
0.07 -0.01 5.52 -8.30 23.53 4.25 3.56 0.72 5899
0.07 -0.01 7.04 -8.83 22.68 4.28 3.94 0.74 5906
0.08 -0.01 8.27 -8.22 22.31 4.27 4.27 0.77 5912
0.09 -0.01 10.75 -8.35 22.72 4.18 4.28 0.77 5918
0.07 -0.01 9.12 -7.28 22.68 4.14 4.28 0.64 5924
0.07 -0.01 6.07 -6.16 23.20 4.06 4.28 0.39 5931
0.07 -0.01 1.60 -4.02 23.39 3.98 4.28 0.08 5937
0.04 -0.00 -1.40 -2.30 22.53 3.91 4.28 -0.25 5944
0.07 0.00 -4.52 0.62 19.95 3.81 4.28 -0.59 5950
0.05 -0.00 -7.04 3.29 17.57 3.65 4.28 -0.88 5956
0.04 -0.00 -7.87 4.86 16.34 3.35 4.05 -1.09 5962
0.06 -0.01 -10.28 6.29 12.99 3.06 2.75 -1.31 5968
0.05 -0.00 -12.27 7.85 6.50 2.86 1.05 -1.89 5976
0.03 -0.00 -10.51 6.79 15.24 1.84 -1.57 -2.28 5982
0.06 -0.01 -6.92 8.53 10.73 0.26 -3.10 -2.47 5988
0.03 -0.00 -2.34 8.07 11.52 -0.83 -3.86 -2.60 5994
0.02 0.01 0.40 4.48 14.21 -1.39 -4.16 -2.80 6000
0.04 -0.00 1.65 1.40 13.49 -1.68 -4.12 -3.10 6007
0.04 -0.00 2.98 0.17 12.40 -1.83 -3.82 -3.45 6013
0.04 -0.00 3.22 -0.06 11.10 -1.82 -3.44 -3.79 6020
0.06 -0.01 3.55 -0.08 9.75 -1.78 -2.93 -4.11 6026
0.03 -0.00 3.58 0.27 8.45 -1.77 -2.46 -4.26 6032
0.04 -0.00 3.42 0.98 7.80 -1.82 -2.10 -4.28 6038
0.03 -0.00 3.41 1.46 7.81 -1.93 -1.86 -4.28 6044
0.05 -0.01 3.31 1.77 8.27 -2.09 -1.74 -4.28 6050
0.03 -0.00 3.29 1.68 8.87 -2.25 -1.73 -4.28 6057
0.01 -0.00 3.31 1.25 9.33 -2.47 -1.75 -4.24 6064
0.02 0.01 3.25 0.80 8.81 -2.69 -1.81 -3.97 6070
0.05 -0.01 3.82 1.00 9.69 -2.95 -1.86 -3.72 6076
0.05 -0.00 4.15 1.22 10.83 -3.22 -2.01 -3.46 6082
0.04 -0.00 4.20 0.20 10.63 -3.47 -2.25 -3.16 6088
0.06 -0.01 4.73 -1.16 10.10 -3.68 -2.43 -2.80 6095
0.05 -0.00 5.68 -1.69 9.85 -3.89 -2.64 -2.45 6102
0.01 -0.00 6.35 -2.21 9.78 -4.02 -2.85 -2.15 6108
0.03 0.00 6.97 -2.94 9.54 -4.11 -3.01 -1.87 6114
0.03 -0.00 7.71 -3.83 9.34 -4.15 -3.01 -1.61 6120
0.04 -0.00 8.51 -4.32 9.08 -4.17 -2.98 -1.39 6126
0.04 -0.00 9.28 -4.76 8.84 -4.15 -2.87 -1.21 6132
0.05 -0.00 9.82 -5.20 8.41 -4.12 -2.66 -1.02 6138
0.04 -0.00 10.38 -5.60 7.81 -4.07 -2.36 -0.84 6146
0.02 -0.00 10.83 -6.06 7.53 -3.98 -2.01 -0.66 6152
0.04 -0.00 11.16 -6.54 7.20 -3.90 -1.62 -0.50 6158
0.04 -0.00 11.31 -7.03 7.31 -3.77 -1.21 -0.33 6164
0.03 -0.00 11.37 -7.55 7.31 -3.62 -0.86 -0.16 6170
0.04 -0.00 11.30 -8.01 7.60 -3.45 -0.47 0.02 6176
0.03 -0.00 11.17 -8.53 7.83 -3.28 -0.11 0.17 6183
0.04 -0.00 11.00 -8.93 8.07 -3.11 0.18 0.37 6190
0.03 -0.00 10.77 -9.41 8.38 -2.94 0.44 0.58 6196
0.04 -0.00 10.55 -9.89 8.55 -2.80 0.66 0.80 6202
0.04 -0.00 10.26 -10.34 8.96 -2.66 0.82 1.01 6208
0.03 -0.00 10.07 -10.60 9.09 -2.53 0.95 1.20 6214
0.05 -0.00 10.07 -10.75 9.20 -2.44 1.07 1.38 6221
0.04 -0.00 9.84 -11.08 9.34 -2.34 1.18 1.53 6227
0.03 -0.00 9.94 -11.33 9.51 -2.24 1.30 1.64 6234
0.05 -0.01 10.09 -11.44 9.39 -2.16 1.39 1.71 6240
0.04 -0.00 9.82 -11.70 9.38 -2.07 1.56 1.75 6246
0.03 -0.00 9.57 -11.75 9.38 -1.99 1.73 1.77 6252
0.04 -0.00 9.20 -11.74 9.45 -1.91 1.88 1.78 6259
0.04 -0.00 8.72 -11.66 9.48 -1.84 2.00 1.77 6265
0.02 -0.00 8.22 -11.51 9.45 -1.76 2.07 1.73 6272
0.04 -0.00 7.67 -11.31 9.45 -1.68 2.11 1.68 6278
0.04 -0.00 7.19 -11.12 9.52 -1.62 2.13 1.60 6284
0.03 -0.00 6.72 -11.03 9.58 -1.55 2.16 1.51 6290
0.03 -0.00 5.60 -10.95 9.81 -1.48 2.22 1.39 6297
0.03 -0.00 5.59 -10.96 10.30 -1.40 2.31 1.26 6303
0.04 -0.00 5.19 -10.95 10.96 -1.33 2.45 1.12 6309
0.03 -0.00 4.90 -10.78 11.76 -1.29 2.62 1.00 6316
0.04 -0.00 4.48 -10.55 12.47 -1.28 2.83 0.85 6322
0.02 -0.00 3.82 -10.24 13.02 -1.30 3.03 0.77 6329
0.04 -0.00 3.17 -9.83 13.75 -1.38 3.23 0.67 6335
0.03 -0.00 2.48 -9.50 14.07 -1.47 3.36 0.58 6341
0.02 -0.00 1.74 -9.31 14.20 -1.58 3.41 0.53 6347
0.02 -0.00 1.02 -9.15 14.19 -1.68 3.36 0.51 6353
0.03 -0.00 0.33 -9.03 13.98 -1.77 3.22 0.50 6360
0.02 -0.00 -0.12 -9.07 13.71 -1.77 3.02 0.51 6367
0.02 -0.00 -0.39 -9.16 13.36 -1.77 2.79 0.52 6373
0.03 -0.00 -0.58 -9.29 13.14 -1.75 2.61 0.53 6379
0.02 -0.00 -0.71 -9.43 12.83 -1.70 2.44 0.54 6385
0.02 -0.00 -0.92 -9.52 12.59 -1.63 2.34 0.58 6391
0.04 -0.00 -1.08 -9.59 12.60 -1.54 2.30 0.61 6397
0.02 -0.00 -1.54 -9.65 12.89 -1.46 2.27 0.65 6405
0.01 -0.00 -2.17 -9.68 13.05 -1.38 2.25 0.68 6411
0.02 -0.00 -2.99 -9.75 13.14 -1.31 2.22 0.69 6417
0.02 -0.00 -3.92 -9.81 12.99 -1.21 2.20 0.71 6423
0.02 -0.00 -5.17 -9.89 12.87 -1.15 2.23 0.72 6429
0.03 0.00 -6.50 -10.13 13.04 -1.04 2.31 0.77 6435
0.02 -0.00 -7.96 -10.74 13.64 -0.93 2.46 0.81 6443
0.01 -0.00 -8.32 -11.40 13.99 -0.83 2.45 0.80 6449
0.03 -0.00 -9.18 -12.77 13.74 -0.74 2.29 0.72 6455
0.02 -0.00 -10.60 -14.91 12.85 -0.65 1.93 0.63 6461
0.02 -0.00 -30.68 -22.19 23.66 0.42 -0.46 0.82 6468
0.02 -0.00 -16.83 -16.28 8.95 0.83 -1.62 0.99 6474
0.02 -0.00 -15.50 -16.25 2.47 0.96 -3.07 0.87 6480
0.03 -0.00 -8.10 -16.65 1.99 1.08 -4.01 0.64 6487
0.03 -0.00 -0.92 -7.11 4.19 1.23 -4.28 0.31 6493
0.02 -0.00 -0.48 -5.25 7.24 1.27 -4.28 0.18 6499
0.03 -0.00 3.25 1.09 13.15 1.38 -4.28 0.21 6506
0.04 -0.00 5.21 7.20 15.81 1.38 -4.28 0.42 6512
0.02 0.01 4.15 5.45 17.97 1.33 -4.28 0.75 6518
0.01 0.04 1.83 2.64 16.40 1.36 -3.55 1.01 6524
0.04 0.12 -0.89 1.46 14.02 1.52 -2.28 1.16 6531
0.03 0.21 -4.98 0.75 12.71 1.67 -1.58 1.08 6538
0.01 0.27 -7.59 0.11 12.43 1.85 -1.26 0.72 6544
0.03 0.36 -7.46 -0.27 13.73 1.99 -1.25 0.22 6550
0.03 0.44 -4.42 -0.90 17.18 2.10 -1.19 -0.25 6556
0.02 0.50 1.04 -1.77 26.22 1.81 -1.64 -0.53 6563
0.01 0.49 3.69 -2.91 15.51 0.62 -1.57 -0.24 6569
0.01 0.50 2.08 -1.86 12.76 0.24 -0.68 0.03 6576
0.03 0.53 1.43 -1.57 10.74 0.02 -0.10 0.12 6582
0.02 0.57 1.58 -1.07 9.13 0.08 -0.07 0.17 6588
0.01 0.58 1.51 -0.67 9.68 0.20 -0.33 0.18 6594
0.02 0.60 0.61 -0.28 10.21 0.26 -0.50 0.17 6601
0.03 0.58 0.68 -0.62 10.70 0.20 -0.47 0.09 6607
0.01 0.56 1.07 -0.97 14.01 0.13 -0.30 0.08 6614
0.02 0.55 1.11 -0.79 10.20 0.04 -0.18 0.09 6620
0.03 0.61 1.07 -0.84 9.90 0.04 -0.16 0.08 6626
0.02 0.58 1.07 -0.65 9.88 0.04 -0.17 0.07 6633
0.02 0.65 1.03 -0.68 9.99 0.03 -0.17 0.06 6639
0.03 0.69 1.03 -0.80 9.81 0.01 -0.14 0.05 6645
0.02 0.69 1.00 -0.75 10.00 -0.01 -0.11 0.05 6651
0.01 0.77 0.97 -0.73 10.15 -0.02 -0.09 0.05 6658
0.02 0.76 0.70 -0.51 10.16 -0.02 -0.07 0.05 6664
0.02 0.81 0.92 -0.71 10.23 -0.03 -0.04 0.05 6671
0.02 0.83 0.88 -0.70 10.14 -0.02 -0.01 0.05 6677
0.02 0.80 0.82 -0.69 10.09 -0.02 0.00 0.06 6683
0.01 0.81 0.92 -0.67 10.06 -0.02 0.03 0.06 6689
0.02 0.82 0.89 -0.64 10.04 -0.01 0.04 0.06 6695
0.01 0.81 1.02 -0.66 10.02 -0.00 0.04 0.07 6703
0.01 0.78 1.06 -0.69 9.98 0.00 0.04 0.07 6709
0.01 0.80 1.05 -0.63 10.01 0.01 0.03 0.07 6715
0.01 0.78 1.04 -0.67 10.00 0.01 0.03 0.06 6721
-0.00 0.73 1.05 -0.68 9.98 0.01 0.02 0.06 6727
0.00 0.70 1.05 -0.62 10.00 0.01 0.01 0.06 6733
0.01 0.68 1.08 -0.66 10.01 0.01 0.01 0.05 6739
0.02 0.67 1.08 -0.63 9.96 0.00 0.01 0.05 6747
0.01 0.65 1.01 -0.63 9.93 0.01 0.01 0.05 6753
0.01 0.64 0.98 -0.65 9.97 0.00 0.02 0.04 6759
0.02 0.58 1.01 -0.65 9.97 0.01 0.04 0.05 6765
0.02 0.59 1.02 -0.64 9.96 0.01 0.04 0.05 6771
0.01 0.59 1.06 -0.63 9.92 0.02 0.04 0.05 6777
0.02 0.54 1.08 -0.68 9.97 0.02 0.05 0.05 6784
0.02 0.51 1.08 -0.67 10.01 0.02 0.04 0.05 6791
0.02 0.45 1.10 -0.62 9.97 0.02 0.04 0.05 6797
0.03 0.44 1.12 -0.63 9.96 0.03 0.04 0.05 6803
0.03 0.40 1.11 -0.68 9.98 0.03 0.04 0.05 6809
0.02 0.39 1.08 -0.66 9.92 0.02 0.03 0.05 6815
0.02 0.34 1.07 -0.68 9.98 0.03 0.03 0.05 6821
0.04 0.29 1.13 -0.69 9.95 0.02 0.03 0.05 6828
0.03 0.32 1.10 -0.69 9.95 0.02 0.03 0.05 6834
0.02 0.29 1.11 -0.65 9.89 0.02 0.03 0.05 6841
0.03 0.24 1.10 -0.66 9.93 0.02 0.02 0.04 6847
0.06 0.20 1.17 -0.68 9.96 0.02 0.02 0.04 6853
0.05 0.18 1.12 -0.66 9.92 0.02 0.01 0.04 6859
0.05 0.15 1.10 -0.64 9.90 0.02 -0.00 0.04 6865
0.06 0.17 1.19 -0.70 9.95 0.02 -0.01 0.04 6872
0.05 0.15 1.16 -0.69 9.98 0.02 -0.03 0.04 6878
0.06 0.11 1.14 -0.66 9.93 0.02 -0.04 0.04 6884
0.07 0.12 1.14 -0.71 9.95 0.02 -0.05 0.03 6891
0.09 0.11 1.19 -0.65 9.95 0.02 -0.06 0.03 6897
0.06 0.13 1.14 -0.71 9.95 0.01 -0.08 0.03 6903
0.07 0.11 1.19 -0.71 9.96 0.01 -0.09 0.03 6909
0.10 0.09 1.21 -0.68 9.94 0.01 -0.12 0.03 6916
0.11 0.07 1.13 -0.70 10.03 0.01 -0.14 0.03 6922
0.12 0.06 1.20 -0.74 9.92 0.01 -0.16 0.03 6929
0.12 0.05 1.09 -0.71 9.92 0.01 -0.17 0.02 6935
0.12 0.04 1.05 -0.68 9.93 0.00 -0.15 0.03 6941
0.10 0.06 1.10 -0.68 9.95 0.00 -0.15 0.03 6947
0.10 0.04 1.06 -0.74 9.98 0.01 -0.10 0.04 6953
0.16 -0.01 0.97 -0.72 10.05 0.01 -0.12 0.03 6960
0.17 -0.02 1.01 -0.69 10.04 0.01 -0.10 0.04 6966
0.18 -0.01 1.00 -0.70 10.04 0.01 -0.09 0.04 6973
0.16 0.00 0.97 -0.70 9.97 0.02 -0.08 0.05 6979
0.16 -0.00 1.03 -0.75 10.01 0.02 -0.06 0.05 6985
0.16 -0.02 1.01 -0.78 9.96 0.03 -0.05 0.05 6991
0.16 -0.02 1.07 -0.68 10.00 0.03 -0.04 0.06 6998
0.16 -0.01 1.05 -0.72 9.99 0.03 -0.03 0.06 7004
0.15 -0.02 1.02 -0.74 10.01 0.03 -0.02 0.06 7010
0.14 -0.01 1.10 -0.72 10.02 0.03 -0.02 0.06 7017
0.16 0.00 1.08 -0.74 9.96 0.04 -0.02 0.06 7023
0.22 -0.02 1.08 -0.75 10.00 0.04 -0.02 0.06 7029
0.22 -0.02 1.08 -0.79 9.95 0.04 -0.03 0.06 7035
0.20 -0.01 1.10 -0.75 10.00 0.05 -0.02 0.06 7042
0.21 -0.00 1.03 -0.75 10.02 0.05 -0.03 0.05 7048
0.20 -0.02 1.03 -0.76 10.04 0.05 -0.04 0.05 7054
0.21 -0.02 1.10 -0.79 10.03 0.05 -0.03 0.05 7060
0.22 -0.02 1.08 -0.81 9.99 0.06 -0.04 0.05 7067
0.25 -0.02 1.14 -0.82 10.02 0.06 -0.05 0.04 7073
0.27 -0.02 1.13 -0.80 10.06 0.07 -0.06 0.04 7079
0.27 -0.03 1.11 -0.84 10.03 0.08 -0.07 0.03 7086
0.28 -0.02 1.14 -0.81 9.98 0.08 -0.08 0.03 7092
0.32 -0.02 1.14 -0.84 10.01 0.09 -0.09 0.02 7098
0.34 -0.03 1.08 -0.85 9.99 0.08 -0.09 0.01 7104
0.38 -0.02 1.13 -0.87 10.01 0.09 -0.09 0.01 7111
0.41 -0.03 1.08 -0.90 10.04 0.09 -0.09 0.00 7117
0.44 -0.04 1.06 -0.89 10.02 0.10 -0.08 0.03 7123
0.46 -0.02 1.07 -0.90 9.98 0.11 -0.07 -0.01 7130
0.50 -0.03 1.11 -0.89 10.04 0.12 -0.07 -0.01 7136
0.48 -0.03 1.06 -0.82 10.01 0.14 -0.06 -0.02 7142
0.50 -0.03 1.03 -0.91 10.04 0.16 -0.05 -0.02 7149
0.55 -0.03 1.06 -1.02 9.99 0.18 -0.04 -0.03 7155
0.57 -0.04 1.04 -1.02 10.04 0.22 -0.03 -0.03 7161
0.57 -0.03 1.06 -0.93 10.11 0.26 -0.01 -0.03 7168
0.66 -0.03 1.08 -1.05 10.24 0.31 0.01 -0.03 7174
0.68 -0.05 1.12 -1.03 10.20 0.39 0.03 -0.04 7181
0.72 -0.04 1.01 -1.11 10.45 0.48 0.06 -0.04 7187
0.77 -0.04 1.08 -1.13 10.37 0.59 0.09 -0.04 7193
0.78 -0.05 1.03 -1.16 10.44 0.71 0.12 -0.04 7199
0.79 -0.03 1.09 -0.63 10.67 0.82 0.14 -0.04 7205
0.82 -0.04 1.12 -1.30 10.89 0.93 0.14 -0.04 7213
0.84 -0.04 1.15 -1.32 10.93 1.05 0.16 -0.05 7219
0.85 -0.03 1.11 -1.44 10.89 1.15 0.17 -0.05 7225
0.85 -0.04 1.27 -1.53 11.08 1.24 0.19 -0.06 7231
0.87 -0.05 1.30 -1.63 11.09 1.32 0.23 -0.06 7238
0.91 -0.05 1.30 -1.75 10.87 1.39 0.26 -0.08 7244
0.89 -0.05 1.40 -1.85 11.06 1.45 0.29 -0.09 7250
0.89 -0.04 1.52 -1.82 10.51 1.53 0.32 -0.10 7257
0.89 -0.04 1.56 -2.11 10.84 1.62 0.35 -0.12 7263
0.82 -0.05 1.35 -2.14 11.01 1.72 0.41 -0.14 7270
0.78 -0.02 1.36 -2.28 11.13 1.83 0.48 -0.15 7276
0.73 -0.03 1.48 -2.45 11.46 1.96 0.58 -0.15 7282
0.73 -0.04 1.42 -2.56 12.14 2.14 0.71 -0.15 7288
0.66 -0.04 1.36 -2.71 12.14 2.34 0.89 -0.14 7296
0.58 -0.04 1.59 -2.89 12.28 2.53 1.06 -0.14 7302
0.49 -0.03 1.48 -2.97 12.70 2.70 1.25 -0.15 7308
0.38 -0.03 1.23 -3.25 12.78 2.90 1.47 -0.13 7314
0.25 -0.03 0.89 -3.49 12.34 3.10 1.68 -0.07 7320
0.16 -0.01 0.61 -3.77 13.75 3.29 1.88 0.02 7327
0.15 -0.01 -0.23 -3.90 14.30 3.45 2.06 0.17 7333
0.19 -0.02 0.35 -4.84 14.63 3.56 2.13 0.35 7340
0.16 0.00 1.24 -5.54 17.22 3.75 2.16 0.44 7346
0.13 -0.01 2.67 -6.33 18.41 4.03 2.35 0.48 7352
0.13 -0.01 2.78 -6.78 19.31 4.19 2.57 0.52 7359
0.09 0.01 3.13 -7.41 20.83 4.27 2.71 0.56 7365
0.10 -0.01 3.48 -8.47 22.47 4.28 2.86 0.62 7371
0.07 -0.01 4.19 -9.12 22.99 4.28 2.98 0.67 7377
0.07 -0.00 4.03 -9.16 22.14 4.28 2.99 0.74 7384
0.08 -0.01 5.06 -8.55 21.69 4.28 3.18 0.84 7390
0.08 -0.01 6.74 -7.95 22.92 4.28 3.56 0.88 7397
0.06 -0.01 7.07 -7.24 22.19 4.28 3.98 0.82 7403
0.07 -0.01 6.45 -6.01 21.73 4.28 4.27 0.67 7409
0.05 -0.01 5.34 -4.42 21.22 4.28 4.28 0.51 7415
0.06 -0.01 2.75 -2.26 21.97 4.26 4.28 0.29 7421
0.07 0.00 1.17 0.69 21.31 4.23 4.28 0.05 7428
0.06 0.00 -0.37 2.92 19.84 4.14 4.28 -0.24 7435
0.05 -0.00 -1.96 5.28 16.59 3.92 4.28 -0.55 7441
0.07 -0.01 -3.30 6.55 14.55 3.63 3.99 -0.86 7447
0.06 -0.01 -7.82 6.38 11.52 3.35 3.19 -1.27 7453
0.05 -0.00 -7.81 7.07 9.39 3.26 1.69 -1.88 7459
0.04 -0.00 -9.72 7.28 16.48 2.20 0.07 -2.10 7465
0.05 0.00 -7.98 10.87 10.16 0.32 -1.68 -2.12 7473
0.03 -0.00 -3.75 10.47 12.53 -1.10 -3.01 -2.04 7479
0.06 -0.00 -0.53 5.57 15.63 -2.07 -3.88 -2.01 7485
0.03 -0.00 0.33 3.06 14.56 -2.69 -4.22 -2.14 7491
0.05 -0.00 1.72 1.57 12.76 -2.96 -4.22 -2.41 7497
0.04 -0.00 3.09 0.75 11.40 -3.01 -3.99 -2.74 7504
0.04 -0.00 3.79 -0.02 9.56 -2.96 -3.55 -3.08 7511
0.03 -0.00 3.96 -0.37 7.86 -2.89 -3.06 -3.41 7517
0.04 0.01 3.88 -0.05 7.14 -2.83 -2.62 -3.67 7523
0.04 -0.00 3.73 0.36 7.05 -2.80 -2.29 -3.86 7529
0.03 -0.00 3.73 0.76 7.37 -2.85 -2.11 -4.00 7535
0.02 -0.00 3.66 0.75 7.62 -2.97 -2.00 -4.02 7541
0.03 0.01 3.71 0.62 7.83 -3.15 -1.97 -4.01 7548
0.04 -0.00 3.76 0.66 8.33 -3.37 -2.02 -3.95 7555
0.04 -0.00 4.04 0.34 9.12 -3.59 -2.12 -3.84 7561
0.04 -0.00 4.67 -0.39 9.65 -3.77 -2.24 -3.67 7567
0.06 -0.01 4.95 -1.47 10.02 -3.96 -2.39 -3.42 7573
0.04 -0.00 5.34 -2.27 10.01 -4.11 -2.52 -3.10 7579
0.04 -0.00 5.97 -2.86 10.04 -4.20 -2.69 -2.72 7585
0.04 -0.00 7.12 -3.43 9.95 -4.25 -2.88 -2.43 7592
0.03 -0.00 7.81 -4.03 9.93 -4.28 -3.06 -2.11 7599
0.04 -0.00 8.36 -4.80 9.44 -4.28 -3.20 -1.83 7605
0.03 -0.00 9.18 -5.23 8.91 -4.28 -3.25 -1.57 7611
0.06 -0.01 9.90 -5.83 8.77 -4.28 -3.18 -1.35 7617
0.04 -0.00 10.74 -6.22 8.43 -4.26 -2.99 -1.16 7623
0.04 -0.00 11.09 -6.67 8.21 -4.22 -2.71 -0.99 7629
0.03 -0.00 12.14 -6.16 6.74 -4.14 -2.27 -0.82 7636
0.04 -0.00 12.26 -7.17 7.51 -4.00 -1.75 -0.64 7643
0.02 -0.00 12.74 -7.52 5.61 -3.81 -1.20 -0.49 7649
0.03 -0.00 13.00 -7.82 7.48 -3.58 -0.67 -0.30 7655
0.03 -0.00 12.15 -8.61 7.96 -3.37 -0.20 -0.08 7661
0.03 -0.00 12.06 -9.05 7.73 -3.13 0.19 0.17 7667
0.03 0.00 11.43 -9.45 8.09 -2.94 0.48 0.44 7674
0.04 -0.00 10.72 -9.99 8.50 -2.74 0.70 0.73 7681
0.04 -0.00 10.33 -10.49 8.69 -2.59 0.86 1.01 7687
0.04 0.00 9.99 -10.79 8.92 -2.41 0.97 1.28 7693
0.03 -0.00 9.90 -11.05 9.14 -2.23 1.08 1.52 7699
0.03 -0.00 9.68 -11.28 9.57 -2.07 1.19 1.71 7705
0.03 -0.00 9.82 -11.61 9.58 -1.91 1.36 1.84 7712
0.04 -0.00 9.34 -11.60 9.77 -1.78 1.52 1.97 7718
0.03 -0.00 8.89 -11.59 9.85 -1.66 1.66 2.06 7725
0.03 -0.00 8.38 -11.49 10.09 -1.54 1.75 2.13 7731
0.05 -0.00 8.08 -11.42 10.38 -1.45 1.78 2.16 7737
0.04 -0.00 7.88 -11.28 10.75 -1.40 1.77 2.16 7744
0.04 0.01 7.81 -11.05 11.03 -1.38 1.75 2.12 7750
0.04 -0.00 7.85 -10.77 11.21 -1.38 1.74 2.05 7756
0.02 -0.00 7.93 -10.59 11.38 -1.41 1.79 1.96 7762
0.04 -0.00 7.82 -10.42 11.35 -1.50 1.92 1.85 7769
0.03 -0.00 7.64 -10.33 11.25 -1.53 2.09 1.71 7776
0.04 -0.00 7.21 -10.22 11.01 -1.58 2.31 1.57 7782
0.05 -0.00 6.64 -10.14 10.79 -1.60 2.53 1.41 7788
0.04 -0.00 5.55 -9.97 10.49 -1.60 2.75 1.26 7794
0.03 -0.00 5.53 -9.81 10.43 -1.56 2.89 1.10 7800
0.05 -0.00 4.90 -9.57 10.37 -1.50 3.05 0.96 7808
0.03 -0.00 4.34 -9.27 10.63 -1.41 3.17 0.86 7814
0.04 -0.00 3.88 -8.93 10.98 -1.33 3.28 0.75 7820
0.05 -0.01 3.31 -8.82 11.43 -1.24 3.37 0.67 7826
0.04 -0.00 2.72 -8.84 11.81 -1.16 3.49 0.61 7832
0.03 -0.00 2.06 -9.05 12.29 -1.09 3.59 0.58 7838
0.04 -0.00 1.47 -9.43 12.88 -1.05 3.66 0.57 7845
0.03 -0.00 0.79 -9.79 13.36 -1.01 3.69 0.58 7852
0.03 -0.00 0.26 -9.96 13.95 -1.00 3.66 0.61 7858
0.04 -0.00 -0.43 -10.03 14.37 -1.01 3.54 0.65 7864
0.03 -0.00 -0.91 -10.15 14.85 -1.05 3.36 0.71 7870
0.03 -0.00 -1.40 -10.23 15.17 -1.13 3.11 0.79 7877
0.02 0.00 -1.95 -10.26 14.96 -1.25 2.80 0.90 7883
0.02 -0.00 -2.46 -10.16 14.52 -1.39 2.43 1.00 7889
0.01 -0.00 -2.81 -10.37 13.85 -1.54 2.02 1.08 7896
0.03 -0.00 -3.07 -11.06 13.15 -1.66 1.60 1.11 7902
0.03 -0.00 -3.34 -11.75 12.47 -1.73 1.21 1.10 7909
0.03 -0.00 -3.55 -12.56 11.58 -1.73 0.87 1.06 7915
0.03 -0.00 -3.75 -13.15 10.81 -1.67 0.60 0.99 7921
0.03 -0.00 -4.10 -13.70 10.18 -1.56 0.40 0.88 7927
0.03 0.00 -4.56 -14.17 9.57 -1.40 0.26 0.75 7934
0.04 -0.00 -4.98 -14.61 8.93 -1.20 0.18 0.60 7941
0.03 -0.00 -9.44 -18.16 9.11 -1.00 -0.09 0.47 7947
0.03 -0.00 -24.13 -23.53 19.80 0.37 -2.52 0.75 7953
0.02 -0.00 -17.25 -18.99 6.56 0.78 -3.20 0.98 7959
0.03 -0.00 -14.88 -15.83 0.22 1.01 -4.13 1.06 7965
0.05 -0.00 -2.62 -7.65 3.06 1.18 -4.28 1.00 7972
0.04 -0.00 1.41 -4.52 8.25 1.24 -4.28 0.88 7979
0.03 -0.00 2.68 1.25 13.69 1.37 -4.28 0.98 7985
0.03 0.01 4.52 8.25 19.25 1.54 -4.28 1.21 7991
0.04 0.06 0.10 9.76 20.71 1.76 -3.20 1.51 7997
0.03 0.20 -3.15 5.23 10.01 1.77 -1.97 1.62 8004
0.03 0.36 -8.30 2.18 9.95 2.05 -1.48 1.34 8010
0.03 0.52 -11.80 -0.74 16.79 2.35 -1.33 0.81 8016
-0.01 0.62 -11.75 -1.12 14.48 2.48 -1.36 0.08 8023
0.01 0.69 -5.65 -0.74 15.38 2.60 -1.30 -0.64 8029
0.01 0.66 2.03 -1.62 20.38 2.57 -1.10 -1.02 8036
0.00 0.74 7.98 -2.83 30.29 1.82 -1.81 -0.87 8042
0.01 0.75 5.46 -3.60 13.38 0.57 -1.39 -0.21 8048
0.00 0.79 2.37 -2.51 13.59 0.40 -0.72 0.15 8054
0.00 0.77 1.16 -2.53 10.62 0.27 -0.30 0.25 8061
-0.01 0.77 0.71 -0.81 10.47 0.31 -0.46 0.26 8068
-0.02 0.75 0.53 -0.33 10.54 0.36 -0.72 0.14 8074
-0.00 0.74 0.89 -0.41 10.47 0.32 -0.68 0.08 8080
0.02 0.71 1.08 -0.92 10.18 0.24 -0.58 0.07 8086
0.01 0.69 1.36 -0.77 10.23 0.18 -0.47 0.08 8093
0.02 0.74 1.19 -0.70 10.15 0.15 -0.42 0.09 8099
0.00 0.77 0.95 -0.61 10.04 0.13 -0.39 0.08 8105
0.01 0.76 0.91 -0.53 10.11 0.11 -0.36 0.06 8112
0.01 0.81 0.82 -0.70 10.39 0.08 -0.30 0.04 8118
0.01 0.86 0.94 -0.90 10.16 0.04 -0.24 0.05 8125
0.02 0.80 0.81 -0.76 10.03 0.02 -0.21 0.05 8131
0.02 0.84 0.81 -0.81 10.22 0.01 -0.18 0.05 8137
0.01 0.81 0.76 -0.82 10.17 0.01 -0.15 0.05 8143
0.01 0.85 0.81 -0.78 10.08 0.01 -0.13 0.05 8150
0.01 0.84 0.78 -0.68 10.02 0.01 -0.12 0.06 8157
0.01 0.81 0.76 -0.69 10.03 0.01 -0.10 0.06 8163
0.00 0.77 0.86 -0.72 10.04 0.02 -0.09 0.06 8169
0.02 0.73 0.95 -0.76 9.95 0.01 -0.10 0.06 8175
0.03 0.72 0.95 -0.73 9.98 0.01 -0.11 0.06 8181
0.03 0.71 0.93 -0.76 9.98 0.01 -0.12 0.05 8187
0.04 0.71 0.88 -0.70 9.97 0.01 -0.11 0.05 8195
0.03 0.67 0.88 -0.70 9.94 0.00 -0.11 0.04 8201
0.03 0.67 0.88 -0.75 9.98 0.00 -0.10 0.04 8207
0.04 0.63 0.82 -0.69 10.04 0.00 -0.09 0.04 8213
0.05 0.59 0.83 -0.71 10.02 0.00 -0.07 0.04 8219
0.05 0.54 0.83 -0.67 10.04 0.00 -0.06 0.04 8225
0.04 0.54 0.82 -0.64 10.05 0.01 -0.05 0.04 8232
0.05 0.48 0.83 -0.71 9.94 0.01 -0.04 0.05 8239
0.05 0.46 0.82 -0.68 9.97 0.02 -0.03 0.05 8245
0.05 0.41 0.81 -0.72 9.98 0.02 -0.03 0.05 8251
0.08 0.39 0.82 -0.70 10.03 0.03 -0.02 0.05 8257
0.07 0.35 0.85 -0.75 10.03 0.03 -0.01 0.06 8263
0.07 0.27 0.81 -0.68 9.92 0.03 -0.00 0.06 8269
0.09 0.26 0.87 -0.75 10.00 0.03 -0.00 0.05 8276
0.08 0.22 0.90 -0.72 10.01 0.03 0.00 0.05 8283
0.07 0.22 0.91 -0.73 9.95 0.03 0.01 0.05 8289
0.08 0.22 0.91 -0.75 9.95 0.03 0.01 0.05 8295
0.09 0.18 0.82 -0.73 9.93 0.02 0.01 0.06 8301
0.09 0.12 0.88 -0.72 9.96 0.02 0.02 0.05 8307
0.08 0.12 0.88 -0.73 10.00 0.02 0.01 0.05 8313
0.10 0.09 0.91 -0.78 9.93 0.02 0.01 0.05 8321
0.10 0.07 0.91 -0.76 9.98 0.02 0.01 0.05 8327
0.10 0.11 0.90 -0.74 9.97 0.02 0.01 0.05 8333
0.10 0.07 0.93 -0.73 9.92 0.02 0.01 0.05 8339
0.12 0.07 0.94 -0.76 9.90 0.02 0.01 0.05 8345
0.12 0.05 0.95 -0.72 9.96 0.03 0.00 0.05 8351
0.12 0.04 0.91 -0.76 9.94 0.03 -0.00 0.05 8357
0.16 0.04 0.93 -0.88 9.96 0.02 -0.01 0.05 8364
0.18 0.01 1.03 -0.81 10.10 0.03 -0.01 0.05 8371
0.18 0.00 0.95 -0.80 9.99 0.03 -0.01 0.04 8377
0.18 0.02 0.96 -0.77 10.04 0.02 -0.01 0.05 8383
0.19 0.01 0.93 -0.79 9.98 0.03 -0.01 0.05 8389
0.18 -0.02 0.95 -0.82 10.00 0.02 -0.00 0.04 8395
0.18 -0.02 0.92 -0.82 9.98 0.02 -0.01 0.05 8401
0.20 -0.02 0.87 -0.80 10.04 0.02 -0.00 0.05 8408
0.23 -0.00 0.89 -0.75 10.00 0.02 -0.00 0.05 8414
0.25 -0.03 1.13 -0.85 10.10 0.02 -0.00 0.05 8421
0.23 -0.02 0.95 -0.81 9.96 0.02 -0.00 0.05 8427
0.24 -0.02 0.90 -0.80 9.88 0.02 0.00 0.05 8433
0.26 -0.03 0.92 -0.97 9.99 0.02 0.00 0.05 8439
0.25 -0.03 1.01 -0.75 9.92 0.03 0.00 0.06 8445
0.24 -0.02 0.93 -0.80 9.94 0.03 0.00 0.05 8452
0.25 -0.03 0.97 -0.80 10.02 0.02 0.01 0.05 8458
0.31 -0.02 0.94 -0.85 9.96 0.02 0.01 0.05 8464
0.32 -0.01 1.02 -0.85 9.97 0.02 0.01 0.05 8470
0.31 -0.02 0.97 -0.82 10.01 0.03 0.01 0.05 8477
0.33 -0.01 0.97 -0.83 10.03 0.03 0.01 0.04 8483
0.33 -0.02 0.97 -0.85 10.05 0.03 0.02 0.05 8489
0.32 -0.03 0.97 -0.83 10.02 0.04 0.02 0.04 8496
0.28 -0.02 1.00 -0.83 9.95 0.04 0.03 0.04 8502
0.27 -0.03 0.95 -0.81 10.00 0.05 0.03 0.04 8508
0.29 -0.02 0.98 -0.83 10.02 0.05 0.04 0.04 8515
0.31 -0.03 1.03 -0.84 9.91 0.06 0.05 0.04 8521
0.33 -0.03 1.00 -0.91 9.98 0.05 0.05 0.04 8527
0.31 -0.03 1.07 -0.86 9.99 0.06 0.05 0.04 8534
0.33 -0.03 1.02 -0.90 9.98 0.06 0.06 0.04 8540
0.34 -0.03 1.03 -0.86 9.96 0.06 0.06 0.04 8546
0.34 -0.02 1.05 -0.91 10.00 0.07 0.06 0.04 8552
0.33 -0.03 1.08 -0.88 9.94 0.07 0.05 0.04 8558
0.35 -0.04 1.13 -0.96 9.99 0.08 0.05 0.04 8564
0.35 -0.02 1.08 -0.93 9.92 0.08 0.06 0.03 8570
0.35 -0.02 1.08 -0.95 9.95 0.08 0.06 0.03 8578
0.37 -0.02 1.13 -0.90 9.90 0.08 0.06 0.02 8584
0.34 -0.02 1.16 -0.96 9.91 0.09 0.06 0.01 8590
0.34 -0.02 1.14 -0.90 9.99 0.10 0.06 0.01 8596
0.37 -0.02 1.12 -0.97 10.01 0.11 0.07 0.00 8602
0.39 -0.03 1.16 -0.94 10.04 0.14 0.07 0.00 8608
0.38 -0.02 1.14 -1.00 10.05 0.17 0.08 -0.00 8615
0.39 -0.02 1.09 -1.01 10.12 0.21 0.08 0.00 8622
0.39 -0.04 1.17 -0.99 10.18 0.25 0.10 0.00 8628
0.36 -0.03 1.15 -1.02 10.38 0.32 0.11 -0.01 8634
0.38 -0.03 1.23 -1.05 10.27 0.40 0.12 -0.02 8640
0.37 -0.04 1.31 -1.19 10.22 0.48 0.14 -0.03 8646
0.41 -0.02 1.31 -1.16 10.33 0.56 0.15 -0.04 8653
0.45 -0.03 1.32 -1.26 10.27 0.63 0.16 -0.06 8659
0.48 -0.03 1.40 -1.30 10.37 0.71 0.17 -0.08 8666
0.49 -0.01 1.45 -1.38 10.48 0.80 0.18 -0.10 8672
0.48 -0.03 1.58 -1.54 10.59 0.90 0.18 -0.12 8679
0.52 -0.04 1.52 -1.49 10.70 0.96 0.18 -0.15 8685
0.54 -0.02 1.61 -1.62 10.82 1.05 0.17 -0.18 8691
0.57 -0.03 1.43 -1.64 10.92 1.15 0.17 -0.20 8697
0.62 -0.04 1.54 -1.75 11.05 1.25 0.16 -0.21 8704
0.65 -0.04 1.61 -1.79 10.70 1.34 0.18 -0.22 8711
0.65 -0.05 1.40 -1.89 10.57 1.41 0.21 -0.22 8717
0.67 -0.03 1.29 -2.05 11.19 1.50 0.21 -0.21 8723
0.68 -0.04 1.23 -2.13 11.09 1.59 0.24 -0.20 8729
0.64 -0.04 1.34 -2.20 11.58 1.69 0.28 -0.19 8736
0.65 -0.02 1.31 -2.31 11.38 1.80 0.35 -0.18 8742
0.64 -0.04 1.52 -2.49 11.32 1.93 0.47 -0.16 8749
0.60 -0.04 1.25 -2.54 11.32 2.06 0.62 -0.15 8755
0.55 -0.04 1.25 -2.73 11.83 2.21 0.80 -0.13 8761
0.47 -0.04 1.20 -2.86 11.93 2.38 1.03 -0.09 8768
0.34 -0.02 1.38 -3.01 12.36 2.56 1.30 -0.06 8774
0.27 -0.02 1.48 -3.38 12.42 2.73 1.57 -0.04 8780
0.24 -0.02 1.80 -3.59 12.10 2.89 1.81 -0.00 8786
0.17 -0.02 0.72 -3.88 14.37 3.03 2.01 0.09 8793
0.18 -0.02 0.89 -4.42 14.42 3.24 2.32 0.19 8800
0.16 -0.02 0.56 -4.62 15.29 3.47 2.61 0.31 8806
0.11 -0.01 0.71 -5.63 17.70 3.75 2.89 0.42 8812
0.17 -0.01 2.04 -6.52 19.54 4.05 3.10 0.54 8818
0.13 -0.01 2.81 -7.42 21.23 4.23 3.31 0.61 8824
0.11 -0.01 3.86 -7.83 23.15 4.28 3.42 0.66 8830
0.12 -0.01 4.23 -7.88 22.98 4.28 3.46 0.70 8838
0.10 -0.01 4.52 -8.55 22.41 4.28 3.42 0.78 8844
0.09 -0.01 6.12 -9.16 22.84 4.28 3.42 0.83 8850
0.10 -0.01 7.83 -9.19 23.86 4.28 3.62 0.85 8856
0.07 -0.01 9.02 -8.39 23.77 4.28 4.09 0.83 8862
0.07 -0.01 9.12 -6.83 23.13 4.28 4.28 0.68 8868
0.06 -0.00 6.99 -4.31 23.32 4.27 4.28 0.45 8876
0.06 -0.00 4.35 -2.51 23.67 4.22 4.28 0.18 8882
0.04 -0.00 1.23 -0.11 23.56 4.18 4.28 -0.12 8888
0.05 -0.00 -0.86 2.47 22.41 4.09 4.28 -0.44 8894
0.04 -0.00 -2.32 5.53 18.49 3.87 4.28 -0.81 8900
0.03 0.00 -3.55 6.99 17.38 3.50 4.28 -1.17 8907
0.07 -0.01 -9.01 5.26 12.24 3.12 4.28 -1.77 8913
0.05 -0.00 -8.44 5.07 12.54 2.94 2.79 -2.53 8920
0.04 -0.00 -12.90 6.46 17.92 1.73 1.04 -2.75 8926
0.06 -0.01 -9.47 9.75 7.03 -0.22 -0.73 -2.78 8932
0.04 -0.00 -5.82 10.08 8.81 -1.74 -2.45 -2.83 8938
0.03 -0.00 -2.62 6.07 14.26 -2.69 -3.44 -2.92 8945
0.03 0.01 -1.28 1.51 13.66 -3.33 -3.84 -3.17 8951
0.05 -0.00 0.08 -0.76 11.85 -3.55 -3.91 -3.51 8957
0.04 -0.00 1.47 -1.98 10.99 -3.47 -3.77 -3.83 8964
0.04 -0.00 2.40 -2.54 9.70 -3.30 -3.37 -4.13 8970
0.04 -0.00 2.38 -2.74 8.36 -3.10 -2.93 -4.28 8976
0.03 -0.00 2.15 -2.32 6.94 -2.95 -2.57 -4.28 8983
0.03 -0.00 2.16 -1.49 6.73 -2.87 -2.37 -4.28 8989
0.05 -0.00 2.32 -0.86 6.92 -2.89 -2.32 -4.28 8995
0.04 -0.00 2.89 -0.36 6.89 -2.96 -2.34 -4.28 9001
0.07 -0.01 3.39 -0.25 7.32 -3.10 -2.42 -4.28 9008
0.05 -0.00 3.41 0.06 9.22 -3.31 -2.50 -4.28 9014
0.06 -0.01 4.42 -0.32 10.11 -3.54 -2.55 -4.28 9020
0.04 -0.00 4.79 -1.37 9.91 -3.78 -2.54 -4.12 9027
0.03 -0.00 5.10 -1.89 10.28 -3.99 -2.49 -3.69 9033
0.05 -0.01 5.73 -2.40 9.70 -4.12 -2.50 -3.21 9039
0.04 -0.00 6.22 -2.74 9.06 -4.21 -2.65 -2.76 9046
0.03 -0.00 6.27 -3.18 8.45 -4.25 -2.85 -2.35 9052
0.02 -0.00 7.24 -3.71 7.96 -4.26 -3.05 -1.96 9058
0.05 -0.01 7.49 -4.21 7.46 -4.26 -3.13 -1.61 9064
0.05 -0.01 8.34 -4.60 7.08 -4.22 -3.16 -1.34 9070
0.03 -0.00 9.18 -5.11 6.80 -4.15 -3.04 -1.03 9077
0.03 -0.00 10.15 -5.62 6.58 -4.04 -2.79 -0.75 9083
0.05 -0.01 11.14 -5.83 6.17 -3.90 -2.40 -0.50 9090
0.04 -0.00 11.63 -6.11 6.49 -3.72 -1.90 -0.26 9096
0.04 0.01 12.09 -6.19 6.25 -3.60 -1.30 -0.01 9102
0.05 -0.00 12.58 -6.52 7.14 -3.44 -0.68 0.23 9108
0.03 -0.00 11.67 -7.14 7.74 -3.30 -0.17 0.50 9115
0.04 -0.00 12.54 -7.28 7.72 -3.19 0.20 0.78 9121
0.03 -0.00 11.02 -7.74 8.33 -3.06 0.47 1.04 9127
0.03 -0.00 10.43 -8.60 7.87 -2.95 0.67 1.29 9134
0.04 -0.00 9.90 -9.17 8.12 -2.81 0.78 1.55 9140
0.04 0.00 9.29 -9.80 7.94 -2.68 0.84 1.79 9146
0.03 -0.00 8.79 -10.22 8.05 -2.51 0.86 1.98 9152
0.03 -0.00 9.14 -10.42 7.33 -2.32 0.86 2.14 9159
0.03 -0.00 9.21 -10.36 7.24 -2.17 0.87 2.26 9165
0.02 -0.00 9.31 -10.40 7.40 -1.98 0.99 2.34 9171
0.03 -0.00 9.51 -10.34 7.67 -1.80 1.13 2.37 9178
0.04 -0.00 9.78 -10.99 8.24 -1.64 1.35 2.31 9184
0.04 -0.00 9.37 -10.49 8.99 -1.53 1.57 2.29 9190
0.04 -0.00 8.83 -10.51 9.53 -1.46 1.74 2.21 9197
0.03 -0.00 8.39 -10.33 10.00 -1.43 1.79 2.11 9203
0.05 -0.01 8.14 -10.13 10.54 -1.44 1.75 1.99 9209
0.04 -0.00 7.91 -9.91 10.74 -1.50 1.65 1.85 9216
0.04 -0.00 7.85 -9.66 10.87 -1.57 1.53 1.69 9222
0.05 -0.01 7.91 -9.43 10.96 -1.65 1.42 1.53 9229
0.04 -0.00 7.93 -9.40 10.82 -1.74 1.39 1.36 9235
0.03 -0.00 8.00 -9.60 10.94 -1.82 1.44 1.18 9241
0.05 -0.01 8.06 -9.78 11.12 -1.87 1.58 1.01 9247
0.04 -0.00 7.91 -9.93 11.06 -1.89 1.82 0.84 9253
0.03 -0.00 7.47 -10.06 11.12 -1.87 2.11 0.71 9260
0.03 -0.00 6.93 -10.31 11.07 -1.81 2.43 0.56 9267
0.03 -0.00 6.16 -10.62 11.14 -1.71 2.73 0.43 9273
0.03 -0.00 5.27 -10.95 11.23 -1.60 2.98 0.31 9279
0.05 -0.00 4.59 -11.21 11.45 -1.47 3.19 0.22 9285
0.02 -0.00 3.58 -11.27 11.80 -1.34 3.32 0.15 9291
0.02 -0.00 2.52 -11.08 12.26 -1.24 3.35 0.11 9298
0.03 -0.00 1.46 -10.80 12.51 -1.18 3.28 0.09 9305
0.03 -0.00 0.65 -10.47 12.83 -1.16 3.11 0.11 9311
0.03 0.00 0.12 -10.14 12.98 -1.17 2.89 0.13 9317
0.04 -0.00 -0.21 -9.97 13.28 -1.20 2.68 0.14 9324
0.02 -0.00 -0.30 -9.97 13.57 -1.23 2.52 0.16 9330
0.03 -0.00 -0.42 -10.02 13.71 -1.28 2.38 0.16 9336
0.03 -0.00 -0.57 -10.05 13.60 -1.32 2.32 0.16 9342
0.02 -0.00 -0.80 -10.07 13.78 -1.36 2.25 0.14 9349
0.03 -0.00 -1.11 -10.07 13.98 -1.39 2.22 0.12 9356
0.02 -0.00 -1.71 -10.10 14.05 -1.42 2.20 0.10 9362
0.02 -0.00 -2.53 -10.08 13.80 -1.43 2.18 0.10 9368
0.04 -0.00 -3.38 -10.22 13.44 -1.42 2.14 0.11 9374
0.03 -0.00 -4.08 -10.52 13.02 -1.39 2.06 0.11 9380
0.03 -0.00 -4.67 -11.03 12.48 -1.33 1.94 0.10 9388
0.04 -0.00 -5.21 -11.62 11.87 -1.25 1.78 0.09 9394
0.03 -0.00 -5.69 -12.07 11.14 -1.13 1.63 0.07 9400
0.03 0.00 -6.19 -12.47 10.46 -0.98 1.50 0.07 9406
0.03 -0.00 -6.69 -12.89 10.02 -0.81 1.37 0.09 9412
0.02 -0.00 -7.11 -13.37 9.43 -0.63 1.18 0.10 9419
0.02 -0.00 -9.01 -14.67 8.65 -0.40 0.87 0.12 9425
0.04 -0.00 -33.97 -19.28 26.36 0.65 -2.22 0.67 9432
0.01 -0.00 -18.33 -13.04 9.03 1.13 -3.45 1.33 9438
0.03 -0.00 -3.32 -4.51 1.75 1.01 -4.28 1.35 9444
0.03 -0.00 2.71 1.35 5.88 0.91 -4.28 1.04 9451
0.03 -0.00 3.55 0.51 11.29 1.01 -4.28 0.96 9457
0.02 -0.00 3.89 5.86 13.43 0.98 -4.27 1.11 9463
0.03 0.00 0.37 7.63 14.07 0.99 -3.91 1.27 9469
0.02 0.00 -2.97 5.37 11.50 0.99 -3.45 1.21 9476
0.04 0.08 -4.96 3.48 11.24 1.14 -2.96 0.95 9482
0.03 0.20 -6.03 1.25 14.89 1.48 -2.30 0.63 9489
0.01 0.31 -6.22 1.04 13.18 1.84 -1.71 0.32 9495
0.02 0.41 -6.59 0.33 13.15 2.18 -1.56 -0.10 9501
0.02 0.46 -3.70 -0.11 15.08 2.41 -1.61 -0.55 9507
0.00 0.55 2.18 -1.49 17.68 2.47 -1.72 -0.82 9515
0.02 0.56 7.04 -1.94 26.86 1.85 -2.61 -0.67 9521
0.01 0.55 4.45 -3.45 13.19 1.11 -2.07 -0.05 9527
0.01 0.58 0.97 -2.01 14.72 0.80 -1.31 0.21 9533
0.02 0.58 1.01 -2.09 11.25 0.41 -0.71 0.24 9539
0.02 0.57 0.04 -1.01 10.89 0.33 -0.66 0.26 9546
0.01 0.59 0.11 -0.42 10.76 0.25 -0.57 0.18 9552
0.02 0.58 0.27 -0.53 10.65 0.18 -0.43 0.12 9559
0.01 0.56 0.89 -0.83 10.23 0.12 -0.33 0.10 9565
-0.00 0.61 0.97 -0.96 10.03 0.07 -0.19 0.11 9571
0.02 0.66 0.99 -0.98 9.98 0.06 -0.13 0.13 9578
0.02 0.70 0.85 -0.83 10.01 0.05 -0.12 0.12 9584
0.01 0.71 0.86 -0.71 10.07 0.04 -0.11 0.09 9590
0.02 0.67 1.01 -0.71 9.79 0.01 -0.08 0.07 9596
0.02 0.65 1.09 -0.87 9.89 0.01 -0.06 0.06 9603
0.02 0.70 1.03 -0.89 10.10 -0.03 -0.06 0.06 9610
0.03 0.70 0.91 -0.85 10.10 -0.01 -0.05 0.06 9616
0.02 0.73 0.77 -0.88 10.13 -0.01 -0.04 0.05 9622
0.02 0.70 0.91 -0.85 10.11 -0.02 -0.02 0.05 9628
0.02 0.72 0.86 -0.81 10.11 -0.01 -0.01 0.06 9634
0.01 0.70 0.84 -0.83 10.09 -0.01 0.00 0.06 9640
0.02 0.71 0.91 -0.85 9.98 -0.01 0.01 0.06 9648
0.03 0.68 0.96 -0.82 10.06 0.00 0.02 0.06 9654
0.04 0.66 1.00 -0.83 10.01 0.00 0.02 0.06 9660
0.03 0.65 1.00 -0.82 9.97 0.01 0.02 0.06 9666
0.05 0.63 1.04 -0.83 9.96 0.01 0.02 0.05 9672
0.03 0.62 1.00 -0.80 9.94 0.01 0.01 0.05 9678
0.03 0.59 1.07 -0.80 9.97 0.01 0.01 0.05 9684
0.03 0.57 1.02 -0.79 9.98 0.01 0.01 0.05 9692
0.05 0.54 1.01 -0.81 9.98 0.01 0.01 0.04 9698
0.04 0.51 1.03 -0.83 10.01 0.01 0.02 0.04 9704
0.03 0.47 1.03 -0.81 9.94 0.01 0.03 0.04 9710
0.05 0.46 1.05 -0.77 9.92 0.01 0.03 0.04 9716
0.04 0.42 1.04 -0.77 10.01 0.02 0.04 0.04 9722
0.04 0.35 1.01 -0.77 9.92 0.02 0.04 0.04 9729
0.05 0.38 1.06 -0.82 10.04 0.02 0.05 0.03 9736
0.06 0.33 1.05 -0.85 9.98 0.02 0.05 0.04 9742
0.07 0.30 0.98 -0.82 9.97 0.02 0.04 0.04 9748
0.07 0.26 1.07 -0.81 10.02 0.02 0.04 0.04 9754
0.09 0.21 1.06 -0.82 9.97 0.03 0.04 0.05 9760
0.08 0.21 1.13 -0.86 9.99 0.03 0.04 0.05 9766
0.07 0.15 1.11 -0.88 10.04 0.03 0.03 0.05 9773
0.08 0.16 1.13 -0.83 9.95 0.03 0.04 0.05 9780
0.08 0.13 1.15 -0.87 9.95 0.04 0.03 0.04 9786
0.07 0.12 1.16 -0.83 9.98 0.03 0.03 0.05 9792
0.07 0.10 1.11 -0.86 9.99 0.03 0.03 0.04 9798
0.10 0.05 1.14 -0.84 9.92 0.03 0.03 0.05 9804
0.09 0.04 1.15 -0.97 9.96 0.03 0.02 0.04 9810
0.08 0.04 1.13 -0.84 9.96 0.03 0.02 0.04 9817
0.10 0.04 1.16 -0.85 9.98 0.03 0.01 0.04 9823
0.10 0.01 1.09 -0.80 10.19 0.03 0.01 0.04 9830
0.11 0.01 1.15 -0.86 9.97 0.03 -0.00 0.04 9836
0.11 0.02 1.18 -0.86 9.96 0.02 -0.00 0.04 9842
0.14 0.00 1.14 -0.85 9.85 0.03 -0.02 0.04 9848
0.14 -0.01 1.18 -0.91 9.89 0.02 -0.02 0.03 9854
0.14 0.00 1.14 -0.89 9.93 0.02 -0.03 0.03 9861
0.14 -0.01 1.14 -0.87 9.98 0.02 -0.03 0.03 9867
0.16 -0.02 1.11 -0.92 9.86 0.02 -0.03 0.03 9873
0.17 -0.02 1.19 -0.94 10.01 0.02 -0.03 0.03 9880
0.14 0.01 1.10 -1.01 9.91 0.01 -0.03 0.03 9886
0.13 0.00 1.22 -0.80 10.01 0.01 -0.03 0.02 9892
0.18 -0.02 1.22 -0.83 10.02 0.01 -0.03 0.02 9899
0.16 -0.02 1.02 -0.81 10.01 0.01 -0.03 0.03 9905
0.13 -0.01 1.09 -0.94 10.02 0.01 -0.03 0.03 9911
0.13 -0.01 1.14 -0.88 9.96 0.02 -0.02 0.03 9917
0.20 -0.02 1.09 -0.91 9.92 0.02 -0.02 0.04 9923
0.21 -0.02 1.20 -0.93 9.98 0.02 -0.02 0.04 9929
0.21 -0.02 1.10 -0.95 9.96 0.03 -0.01 0.03 9936
0.18 -0.00 1.17 -0.92 9.97 0.03 -0.01 0.03 9943
0.20 -0.02 1.19 -0.94 9.99 0.04 -0.01 0.03 9949
0.21 -0.02 1.16 -0.93 9.99 0.04 -0.01 0.03 9955
0.24 -0.02 1.15 -0.97 9.99 0.05 -0.00 0.03 9961
0.27 -0.01 1.17 -1.00 9.94 0.06 0.00 0.03 9967
0.26 -0.02 1.19 -0.95 10.05 0.07 0.01 0.03 9973
0.24 -0.02 1.14 -0.93 9.98 0.07 0.01 0.03 9979
0.21 -0.01 1.19 -0.97 9.99 0.08 0.01 0.03 9987
0.20 -0.02 1.20 -1.01 9.98 0.10 0.01 0.03 9993
0.21 -0.02 1.15 -0.96 9.95 0.11 0.02 0.02 9999
0.19 -0.02 1.19 -1.07 9.97 0.12 0.01 0.02 10005
0.19 -0.02 1.22 -1.01 10.00 0.14 0.00 0.02 10011
0.19 -0.02 1.25 -1.01 10.05 0.15 -0.00 0.02 10017
0.20 -0.02 1.28 -1.05 10.00 0.16 -0.01 0.01 10023
0.22 -0.02 1.29 -1.03 9.91 0.17 -0.02 0.01 10031
0.25 -0.02 1.29 -1.09 9.99 0.18 -0.02 -0.00 10037
0.22 -0.02 1.27 -1.08 9.92 0.19 -0.02 -0.01 10043
0.23 -0.02 1.25 -1.13 9.88 0.19 -0.02 -0.02 10049
0.27 -0.03 1.31 -1.08 9.99 0.19 -0.02 -0.03 10055
0.31 -0.03 1.25 -1.17 10.10 0.20 -0.02 -0.03 10061
0.34 -0.02 1.34 -1.14 10.02 0.21 -0.01 -0.04 10068
0.37 -0.03 1.31 -1.27 9.99 0.23 -0.02 -0.04 10075
0.37 -0.02 1.30 -1.27 10.01 0.25 -0.02 -0.06 10081
0.38 -0.02 1.41 -1.27 10.06 0.28 0.00 -0.06 10087
0.41 -0.02 1.24 -1.32 9.97 0.32 0.02 -0.07 10094
0.45 -0.04 1.28 -1.33 10.11 0.35 0.04 -0.08 10100
0.50 -0.01 1.30 -1.29 10.23 0.41 0.05 -0.08 10106
0.54 -0.03 1.30 -1.44 10.19 0.48 0.07 -0.09 10113
0.55 -0.03 1.27 -1.41 10.25 0.56 0.09 -0.10 10120
0.58 -0.03 1.25 -1.55 10.17 0.64 0.10 -0.10 10126
0.59 -0.04 1.23 -1.54 10.32 0.73 0.12 -0.09 10132
0.62 -0.02 1.26 -1.55 10.37 0.79 0.11 -0.08 10138
0.62 -0.03 1.30 -1.68 10.36 0.84 0.12 -0.07 10145
0.65 -0.04 1.36 -1.72 10.24 0.89 0.14 -0.07 10151
0.63 -0.02 1.24 -1.81 10.61 0.93 0.17 -0.07 10158
0.65 -0.03 1.32 -1.89 10.64 0.97 0.18 -0.06 10164
0.66 -0.03 1.46 -2.00 10.77 1.05 0.22 -0.06 10171
0.65 -0.05 1.54 -1.99 10.73 1.14 0.27 -0.07 10177
0.64 -0.02 1.51 -2.15 10.72 1.23 0.35 -0.08 10183
0.60 -0.03 1.45 -2.14 10.46 1.31 0.43 -0.09 10189
0.59 -0.04 1.51 -2.26 10.62 1.37 0.55 -0.09 10196
0.57 -0.04 1.43 -2.32 10.41 1.44 0.68 -0.09 10203
0.50 -0.04 1.45 -2.55 10.93 1.54 0.83 -0.09 10209
0.41 -0.02 1.60 -2.64 11.60 1.66 1.01 -0.09 10216
0.34 -0.02 1.56 -2.95 12.68 1.81 1.21 -0.07 10222
0.27 -0.02 1.81 -3.18 12.75 1.99 1.46 -0.06 10228
0.18 -0.02 1.37 -3.49 13.96 2.21 1.74 -0.01 10234
0.13 -0.01 1.48 -3.60 14.74 2.47 2.08 0.03 10241
0.10 -0.00 1.27 -3.66 15.43 2.76 2.39 0.09 10248
0.10 -0.01 1.66 -3.89 17.10 3.10 2.70 0.14 10254
0.09 -0.01 2.19 -4.05 17.76 3.46 2.97 0.17 10260
0.09 -0.01 3.11 -4.58 19.50 3.81 3.22 0.20 10266
0.08 -0.01 3.46 -5.06 20.30 4.10 3.45 0.20 10273
0.11 -0.01 3.93 -5.69 21.17 4.27 3.44 0.21 10279
0.12 -0.01 3.26 -6.19 21.63 4.28 3.20 0.24 10286
0.11 -0.01 3.75 -6.57 20.27 4.28 2.85 0.30 10292
0.09 -0.00 4.69 -7.30 20.97 4.28 2.53 0.37 10298
0.09 -0.01 6.01 -7.71 21.61 4.28 2.35 0.41 10305
0.06 -0.01 6.32 -7.26 22.25 4.28 2.39 0.42 10311
0.07 -0.00 6.60 -6.76 23.10 4.28 2.59 0.38 10317
0.06 -0.01 6.42 -5.87 22.29 4.28 2.83 0.28 10323
0.06 -0.00 5.70 -5.01 23.22 4.28 3.08 0.17 10331
0.05 -0.01 4.83 -3.35 23.61 4.28 3.29 0.03 10337
0.06 -0.01 4.25 -1.56 23.56 4.28 3.46 -0.12 10343
0.04 0.01 3.91 1.37 23.74 4.28 3.61 -0.26 10349
0.04 -0.00 1.86 3.93 22.73 4.28 3.82 -0.46 10356
0.02 -0.00 0.34 6.70 20.44 4.28 3.96 -0.67 10362
0.03 0.02 0.42 7.13 17.34 4.23 3.97 -0.85 10369
0.02 -0.00 -7.13 9.98 7.87 3.98 3.74 -1.32 10375
0.05 -0.00 -5.59 9.44 15.06 3.60 2.34 -1.93 10381
0.05 -0.00 -8.24 9.28 13.90 2.09 0.80 -2.25 10388
0.05 -0.00 -9.52 13.28 5.36 -0.11 -0.79 -2.42 10394
0.04 -0.00 -5.19 11.74 11.96 -1.65 -2.01 -2.49 10400
0.05 -0.01 -3.27 6.62 16.02 -2.58 -2.96 -2.61 10406
0.04 -0.00 -2.60 2.63 13.47 -3.12 -3.52 -2.82 10413
0.02 -0.00 -1.25 0.94 11.42 -3.36 -3.69 -3.09 10420
0.05 -0.00 0.39 0.00 9.44 -3.44 -3.58 -3.39 10426
0.03 -0.00 1.39 -0.69 7.72 -3.45 -3.31 -3.70 10432
0.06 -0.00 1.66 -1.17 6.83 -3.43 -3.03 -4.01 10438
0.03 -0.00 1.85 -1.52 6.62 -3.39 -2.79 -4.27 10444
0.03 -0.00 1.83 -1.48 7.19 -3.35 -2.69 -4.28 10451
0.03 -0.00 2.08 -1.39 7.54 -3.33 -2.66 -4.28 10458
0.02 -0.00 2.36 -0.62 7.64 -3.36 -2.70 -4.28 10464
0.05 -0.00 3.15 -0.93 7.94 -3.45 -2.75 -4.28 10470
0.04 -0.00 3.73 -0.73 8.16 -3.61 -2.79 -4.28 10476
0.05 -0.01 4.72 -1.20 9.63 -3.79 -2.70 -4.23 10482
0.05 -0.00 5.54 -1.31 11.41 -4.02 -2.63 -3.96 10489
0.05 -0.00 5.95 -2.10 11.66 -4.18 -2.58 -3.61 10496
0.04 -0.00 6.02 -3.44 11.16 -4.26 -2.52 -3.15 10502
0.05 -0.01 6.86 -4.17 10.49 -4.28 -2.52 -2.67 10508
0.05 0.00 7.43 -4.32 10.37 -4.28 -2.59 -2.23 10515
0.05 -0.00 7.44 -4.95 9.81 -4.28 -2.68 -1.85 10521
0.03 -0.00 7.60 -6.13 9.10 -4.28 -2.70 -1.50 10527
0.04 -0.00 8.27 -6.99 8.24 -4.28 -2.69 -1.18 10533
0.03 -0.00 8.87 -7.53 7.70 -4.28 -2.64 -0.88 10540
0.04 -0.00 9.69 -7.76 7.19 -4.26 -2.49 -0.61 10546
0.05 0.00 10.27 -7.95 6.67 -4.15 -2.21 -0.36 10553
0.05 -0.01 10.96 -8.16 6.85 -3.95 -1.81 -0.17 10559
0.04 -0.00 11.52 -8.61 6.55 -3.71 -1.27 0.06 10565
0.05 -0.01 11.15 -8.61 7.67 -3.47 -0.72 0.30 10571
0.04 -0.00 11.17 -9.00 7.14 -3.22 -0.21 0.56 10577
0.04 -0.00 11.06 -9.11 7.93 -3.00 0.20 0.83 10585
0.04 -0.00 9.95 -9.21 9.13 -2.80 0.52 1.11 10591
0.04 -0.00 9.66 -9.48 10.93 -2.66 0.76 1.40 10597
0.04 -0.00 9.06 -9.82 9.93 -2.57 0.90 1.68 10603
0.05 -0.01 8.67 -10.06 9.72 -2.45 0.93 1.93 10609
0.03 -0.00 8.54 -10.34 9.83 -2.36 0.90 2.15 10616
0.03 -0.00 8.75 -10.82 9.56 -2.27 0.92 2.32 10622
0.04 -0.00 8.88 -11.37 9.47 -2.19 0.95 2.44 10629
0.02 -0.00 8.95 -11.60 9.47 -2.10 1.03 2.53 10635
0.03 -0.00 9.07 -11.75 9.32 -2.01 1.12 2.57 10641
0.04 -0.00 8.79 -11.87 9.11 -1.92 1.19 2.57 10648
0.04 -0.00 8.50 -11.81 8.79 -1.81 1.21 2.54 10654
0.05 0.00 8.22 -11.64 8.57 -1.70 1.17 2.47 10660
0.04 -0.00 8.04 -11.44 8.42 -1.58 1.09 2.38 10667
0.02 -0.00 7.96 -11.34 8.40 -1.47 1.01 2.26 10674
0.04 -0.00 8.10 -11.07 8.59 -1.35 0.98 2.11 10680
0.03 -0.00 8.13 -10.75 8.91 -1.26 0.99 1.95 10686
0.04 -0.00 8.06 -10.56 9.35 -1.17 1.06 1.78 10692
0.05 -0.00 8.23 -10.21 10.15 -1.10 1.21 1.62 10698
0.04 -0.00 8.33 -9.88 11.15 -1.11 1.44 1.46 10705
0.03 -0.00 7.98 -9.63 11.87 -1.17 1.75 1.34 10712
0.04 -0.00 7.42 -9.37 12.44 -1.28 2.07 1.24 10718
0.02 -0.00 6.69 -8.92 12.77 -1.44 2.34 1.18 10724
0.04 -0.00 5.81 -8.45 12.75 -1.54 2.51 1.15 10730
0.04 -0.00 4.94 -8.06 12.53 -1.66 2.57 1.15 10737
0.03 -0.00 4.15 -8.03 12.18 -1.72 2.56 1.16 10743
0.05 -0.00 3.48 -8.25 11.69 -1.73 2.52 1.16 10749
0.04 -0.00 2.88 -8.31 11.36 -1.70 2.49 1.13 10756
0.02 -0.00 2.35 -8.29 11.16 -1.61 2.46 1.07 10763
0.04 -0.00 1.90 -8.22 10.98 -1.49 2.44 0.98 10769
0.02 -0.00 1.54 -8.20 11.12 -1.36 2.43 0.85 10775
0.02 -0.00 1.27 -8.04 11.60 -1.24 2.44 0.75 10781
0.03 -0.00 1.19 -7.89 12.39 -1.14 2.48 0.60 10787
0.02 -0.00 1.37 -7.82 13.51 -1.09 2.56 0.45 10795
0.02 -0.00 1.43 -7.74 14.73 -1.13 2.69 0.30 10801
0.02 -0.00 1.09 -7.81 15.72 -1.24 2.82 0.17 10807
0.02 -0.00 0.11 -7.77 15.99 -1.40 2.95 0.07 10813
0.02 -0.00 -1.22 -8.13 15.93 -1.56 3.09 0.02 10819
0.02 -0.00 -2.47 -8.71 15.36 -1.69 3.11 0.02 10826
0.03 -0.00 -4.14 -9.36 14.62 -1.80 2.97 0.02 10832
0.03 -0.00 -5.99 -9.95 13.53 -1.80 2.76 0.00 10839
0.03 -0.00 -7.33 -10.62 13.13 -1.76 2.59 -0.03 10845
0.03 -0.00 -8.39 -11.65 12.83 -1.68 2.32 -0.10 10851
0.04 -0.00 -9.51 -12.54 12.36 -1.59 1.90 -0.20 10858
0.04 -0.00 -10.08 -13.08 11.65 -1.49 1.42 -0.32 10864
0.05 -0.00 -9.62 -13.50 10.43 -1.41 0.91 -0.47 10870
0.03 -0.00 -8.65 -13.97 9.27 -1.33 0.45 -0.65 10877
0.03 -0.00 -7.64 -14.86 8.15 -1.24 0.11 -0.85 10884
0.03 -0.00 -6.70 -15.93 7.11 -1.09 -0.09 -1.06 10890
0.02 -0.00 -5.76 -16.95 6.25 -0.87 -0.12 -1.24 10896
0.02 -0.00 -9.44 -17.65 9.55 -0.50 -0.28 -1.22 10902
0.03 -0.00 -26.47 -14.40 16.30 1.13 -3.28 -0.25 10909
0.02 -0.00 3.00 -3.48 6.85 1.03 -4.04 -0.01 10915
0.02 -0.00 4.91 6.57 7.77 0.96 -4.25 -0.07 10921
0.04 -0.00 12.42 12.63 12.67 1.01 -3.65 0.15 10928
0.03 -0.00 8.10 10.25 13.29 0.88 -2.93 0.57 10935
0.03 0.00 2.13 5.23 6.64 0.92 -2.28 0.88 10941
0.03 0.00 -2.05 2.20 5.28 1.08 -2.15 0.81 10947
0.02 0.09 -5.44 0.90 8.89 1.38 -2.23 0.51 10953
0.04 0.19 -4.19 0.43 11.32 1.77 -2.13 0.12 10959
0.02 0.31 -3.44 -0.15 12.85 2.22 -2.06 -0.23 10967
0.04 0.45 -2.70 -0.36 13.87 2.61 -2.09 -0.54 10973
0.02 0.55 1.00 -0.79 18.17 2.84 -2.10 -0.82 10979
0.02 0.58 6.18 -2.92 29.36 2.53 -3.05 -0.82 10985
0.01 0.66 5.72 -4.54 17.57 1.58 -3.07 -0.32 10992
0.00 0.69 1.62 -3.23 18.76 1.18 -2.07 0.12 10998
0.02 0.70 0.46 -2.68 13.63 0.57 -1.11 0.19 11004
0.01 0.72 0.26 -0.89 11.03 0.37 -0.82 0.19 11012
0.01 0.78 0.37 -0.40 10.69 0.35 -0.86 0.13 11018
0.02 0.80 0.60 -0.40 10.67 0.33 -0.87 0.06 11024
-0.00 0.82 0.81 -0.68 10.27 0.26 -0.71 0.04 11030
0.01 0.84 1.00 -0.98 10.36 0.18 -0.47 0.05 11037
0.00 0.86 1.03 -0.96 10.36 0.13 -0.32 0.08 11043
0.01 0.86 0.97 -0.83 10.00 0.10 -0.25 0.08 11049
-0.01 0.85 0.91 -0.66 10.14 0.09 -0.22 0.07 11056
-0.02 0.84 0.94 -0.64 10.02 0.08 -0.17 0.06 11062
0.03 0.80 1.10 -0.76 10.03 0.06 -0.14 0.06 11069
0.01 0.77 1.01 -0.65 9.97 0.06 -0.13 0.07 11075
0.01 0.76 1.01 -0.66 10.01 0.05 -0.10 0.07 11081
0.01 0.75 0.97 -0.60 10.02 0.05 -0.07 0.08 11087
0.02 0.72 0.95 -0.63 10.14 0.05 -0.05 0.08 11095
0.02 0.73 1.02 -0.71 9.98 0.05 -0.03 0.09 11101
0.01 0.71 1.09 -0.87 10.04 0.05 -0.02 0.10 11107
-0.00 0.64 1.07 -0.73 9.98 0.05 -0.00 0.10 11113
0.02 0.62 0.97 -0.64 10.14 0.05 0.01 0.10 11119
0.02 0.56 1.03 -0.73 10.08 0.05 0.02 0.09 11126
0.01 0.53 1.11 -0.80 9.96 0.04 0.02 0.09 11132
0.03 0.49 0.85 -0.77 10.06 0.03 0.05 0.08 11139
0.04 0.44 1.05 -0.52 10.04 0.01 0.09 0.07 11145
0.03 0.44 1.07 -0.74 10.00 0.01 0.11 0.07 11152
0.05 0.38 1.09 -0.69 10.00 0.01 0.12 0.06 11158
0.04 0.35 1.08 -0.76 9.96 0.01 0.13 0.07 11164
0.03 0.28 1.09 -0.65 9.90 0.02 0.13 0.07 11170
0.05 0.25 1.16 -0.67 9.99 0.02 0.13 0.07 11176
0.04 0.24 1.14 -0.70 9.90 0.02 0.13 0.07 11183
0.06 0.16 0.98 -0.74 10.11 0.02 0.13 0.07 11190
0.05 0.19 1.21 -0.65 9.98 0.02 0.12 0.07 11196
0.04 0.16 1.20 -0.67 9.93 0.03 0.11 0.07 11202
0.06 0.11 1.23 -0.67 9.92 0.03 0.10 0.07 11208
0.05 0.10 1.25 -0.66 9.90 0.03 0.09 0.06 11214
0.05 0.06 1.28 -0.71 9.91 0.03 0.08 0.06 11222
0.04 0.05 1.29 -0.67 9.94 0.03 0.07 0.06 11228
0.06 0.04 1.27 -0.72 9.97 0.04 0.06 0.06 11234
0.06 0.01 1.34 -0.72 9.98 0.03 0.05 0.06 11240
0.05 0.03 1.24 -0.76 9.99 0.04 0.05 0.05 11246
0.07 0.01 1.25 -0.74 9.97 0.04 0.06 0.05 11252
0.05 -0.01 1.27 -0.79 10.01 0.03 0.05 0.04 11259
0.06 -0.01 1.32 -0.80 9.91 0.03 0.05 0.04 11266
0.07 -0.01 1.34 -0.76 9.93 0.03 0.04 0.04 11272
0.05 -0.01 1.31 -0.73 9.92 0.03 0.04 0.03 11278
0.05 -0.00 1.32 -0.79 9.94 0.03 0.04 0.03 11284
0.05 0.00 1.34 -0.75 9.98 0.03 0.03 0.02 11290
0.07 -0.01 1.37 -0.79 10.00 0.03 0.03 0.02 11296
0.06 -0.01 1.34 -0.77 9.88 0.03 0.02 0.02 11303
0.07 -0.00 1.27 -0.72 9.94 0.04 0.01 0.02 11310
0.08 -0.00 1.37 -0.40 9.96 0.03 -0.00 0.02 11316
0.08 0.01 1.43 -1.43 9.99 0.03 -0.01 0.01 11322
0.07 0.02 1.65 -0.70 9.95 0.04 -0.01 0.01 11328
0.05 0.01 1.04 -1.12 10.04 0.03 -0.03 0.01 11334
0.04 -0.00 1.24 -0.83 9.82 0.02 -0.02 0.01 11341
0.04 -0.00 1.43 -0.91 10.37 0.02 -0.02 0.01 11347
0.10 -0.01 1.50 -0.84 9.95 0.03 -0.04 0.00 11354
0.07 -0.01 1.27 -0.85 10.06 0.03 -0.06 -0.00 11360
0.05 -0.00 1.57 -0.91 9.90 0.05 -0.06 -0.01 11366
0.08 -0.01 1.20 -0.90 10.02 0.05 -0.10 -0.00 11372
0.08 0.01 1.41 -1.06 10.01 0.05 -0.11 0.00 11379
0.09 -0.01 1.43 -0.90 9.87 0.06 -0.11 -0.00 11385
0.06 -0.01 1.31 -0.81 9.89 0.07 -0.11 -0.01 11392
0.13 -0.01 1.43 -0.89 9.90 0.07 -0.14 -0.01 11398
0.12 -0.01 1.40 -0.93 9.93 0.07 -0.15 -0.01 11404
0.04 0.00 1.36 -0.84 10.05 0.07 -0.15 -0.02 11410
0.10 0.01 1.26 -1.01 9.92 0.06 -0.14 -0.02 11417
0.13 -0.00 1.27 -0.97 9.93 0.05 -0.13 -0.02 11423
0.17 -0.01 1.25 -0.94 9.99 0.04 -0.11 -0.02 11429
0.21 -0.01 1.24 -0.91 10.08 0.04 -0.08 -0.02 11436
0.21 -0.02 1.27 -1.00 9.95 0.05 -0.07 -0.02 11442
0.18 0.01 1.27 -1.00 10.06 0.06 -0.07 -0.02 11449
0.19 -0.02 1.27 -0.93 9.99 0.07 -0.06 -0.02 11455
0.16 -0.02 1.18 -0.94 10.11 0.08 -0.05 -0.01 11461
0.13 -0.01 1.24 -0.96 9.92 0.10 -0.05 -0.01 11467
0.21 -0.02 1.22 -0.98 10.01 0.13 -0.05 -0.00 11473
0.20 -0.02 1.28 -0.94 9.92 0.15 -0.05 0.00 11480
0.22 -0.02 1.26 -1.10 9.98 0.17 -0.04 0.00 11487
0.20 -0.02 1.24 -0.99 10.05 0.19 -0.04 0.01 11493
0.18 -0.02 1.25 -1.01 10.00 0.21 -0.04 0.01 11499
0.22 -0.02 1.31 -0.98 9.99 0.23 -0.05 0.01 11505
0.25 -0.02 1.33 -1.06 9.98 0.27 -0.04 0.00 11511
0.28 -0.01 1.33 -1.17 9.98 0.27 -0.03 -0.01 11517
0.28 -0.02 1.38 -1.16 10.09 0.29 -0.02 -0.01 11525
0.32 -0.00 1.34 -1.20 9.97 0.32 -0.02 -0.02 11531
0.34 -0.01 1.30 -1.25 10.04 0.33 -0.02 -0.03 11537
0.35 -0.02 1.21 -1.22 10.13 0.35 -0.01 -0.04 11543
0.37 -0.02 1.32 -1.25 10.21 0.38 -0.02 -0.05 11550
0.35 -0.02 1.36 -1.30 10.19 0.43 -0.02 -0.06 11556
0.40 -0.02 1.40 -1.37 10.49 0.50 -0.01 -0.07 11563
0.42 -0.02 1.32 -1.37 10.11 0.57 -0.01 -0.08 11569
0.44 -0.03 1.35 -1.47 10.14 0.63 -0.01 -0.09 11576
0.49 -0.02 1.27 -1.54 10.49 0.69 -0.01 -0.10 11582
0.50 -0.02 1.37 -1.60 10.55 0.76 -0.01 -0.11 11588
0.52 -0.03 1.35 -1.67 10.51 0.83 -0.02 -0.11 11594
0.56 -0.05 1.30 -1.68 10.60 0.90 -0.02 -0.11 11601
0.62 -0.03 0.75 -1.76 10.57 0.97 -0.01 -0.12 11608
0.65 -0.05 1.37 -1.88 10.55 1.02 0.00 -0.12 11614
0.64 -0.04 1.37 -1.94 10.78 1.08 0.00 -0.12 11621
0.68 -0.04 1.31 -1.97 11.00 1.15 -0.01 -0.12 11627
0.68 -0.04 1.31 -2.07 10.77 1.23 -0.03 -0.12 11633
0.68 -0.02 1.46 -2.13 10.85 1.31 -0.05 -0.13 11639
0.74 -0.03 1.42 -2.26 11.06 1.38 -0.06 -0.13 11646
0.75 -0.03 1.34 -2.42 10.82 1.46 -0.06 -0.14 11653
0.80 -0.04 1.29 -2.45 10.91 1.52 -0.06 -0.14 11659
0.76 -0.04 1.31 -2.49 10.78 1.60 -0.05 -0.15 11665
0.77 -0.03 1.43 -2.71 11.02 1.68 -0.01 -0.16 11672
0.78 -0.06 1.41 -2.70 10.99 1.78 0.02 -0.16 11678
0.76 -0.02 1.32 -2.90 10.95 1.87 0.06 -0.16 11684
0.74 -0.04 1.10 -3.04 11.39 1.97 0.11 -0.15 11691
0.71 -0.04 0.87 -3.17 12.01 2.11 0.16 -0.12 11698
0.72 -0.04 1.12 -3.17 11.92 2.29 0.21 -0.09 11704
0.66 -0.05 1.46 -3.36 11.41 2.47 0.27 -0.08 11710
0.60 -0.03 1.73 -3.66 11.42 2.64 0.35 -0.10 11717
0.50 -0.04 1.18 -3.64 11.37 2.82 0.48 -0.09 11723
0.45 -0.04 0.68 -3.88 11.58 3.01 0.64 -0.06 11729
0.36 -0.03 0.44 -4.30 12.15 3.21 0.84 0.00 11736
0.24 -0.02 0.54 -5.27 13.02 3.41 1.07 0.10 11742
0.27 -0.01 0.38 -5.07 14.22 3.61 1.24 0.19 11749
0.25 -0.02 0.90 -6.21 15.97 3.81 1.47 0.29 11755
0.20 -0.01 1.03 -7.07 17.07 4.00 1.74 0.38 11761
0.20 -0.02 1.67 -8.16 18.73 4.13 2.01 0.50 11767
0.18 -0.02 2.29 -8.87 19.28 4.21 2.34 0.63 11774
0.12 0.00 2.85 -9.54 19.57 4.24 2.78 0.74 11781
0.11 -0.01 3.53 -10.11 21.53 4.26 3.20 0.81 11787
0.11 -0.01 4.80 -10.39 23.78 4.28 3.56 0.84 11793
0.11 -0.01 5.65 -10.39 20.54 4.28 3.96 0.88 11800
0.09 -0.01 6.66 -9.27 20.70 4.28 4.21 0.89 11806
0.09 0.00 8.19 -9.81 21.51 4.27 4.28 0.93 11812
0.08 -0.01 6.73 -8.99 21.90 4.23 4.28 0.82 11819
0.09 -0.01 4.22 -7.47 21.68 4.14 4.28 0.58 11826
0.05 -0.01 1.76 -4.46 21.90 4.00 4.28 0.30 11832
0.05 -0.01 -0.50 -1.48 20.13 3.78 4.28 -0.02 11838
0.03 0.00 -3.00 0.91 20.69 3.53 4.28 -0.34 11844
0.06 -0.00 -3.01 3.83 16.71 3.17 4.26 -0.64 11851
0.03 -0.00 -4.17 5.54 16.33 2.82 3.68 -0.94 11857
0.04 0.00 -10.05 7.36 10.91 2.51 3.09 -1.35 11864
0.06 -0.01 -5.72 5.81 8.80 2.21 1.49 -1.96 11870
0.04 -0.00 -6.89 5.38 13.93 1.31 -0.33 -2.21 11876
0.04 -0.00 -5.29 7.92 11.31 -0.26 -1.50 -2.28 11883
0.03 -0.00 -1.70 7.67 12.99 -1.41 -2.25 -2.30 11889
0.04 -0.00 0.47 3.82 14.34 -2.05 -2.64 -2.39 11895
0.06 -0.01 0.57 0.92 13.20 -2.43 -2.81 -2.57 11901
0.04 -0.00 1.16 0.12 12.32 -2.58 -2.81 -2.78 11909
0.04 -0.00 2.14 -0.06 11.10 -2.57 -2.61 -2.99 11915
0.04 -0.00 2.59 -0.06 9.38 -2.48 -2.35 -3.20 11921
0.05 -0.00 2.58 0.09 8.21 -2.41 -2.09 -3.34 11927
0.04 -0.00 2.69 0.49 7.50 -2.37 -1.87 -3.46 11933
0.04 -0.00 2.92 1.01 7.25 -2.39 -1.75 -3.52 11939
0.02 -0.00 3.12 1.37 7.41 -2.46 -1.68 -3.52 11947
0.02 -0.00 3.25 1.75 7.77 -2.58 -1.67 -3.45 11953
0.04 -0.00 3.47 1.94 8.08 -2.70 -1.69 -3.32 11959
0.04 -0.00 3.86 1.88 8.28 -2.88 -1.77 -3.14 11965
0.04 -0.00 4.10 1.60 8.41 -3.09 -1.85 -2.92 11971
0.05 0.01 4.25 0.69 8.90 -3.30 -2.01 -2.66 11977
0.05 -0.00 4.89 0.44 8.94 -3.52 -2.13 -2.35 11984
0.03 -0.00 5.32 -0.20 8.96 -3.71 -2.26 -2.10 11991
0.03 0.00 6.11 -0.63 8.79 -3.86 -2.37 -1.77 11997
0.04 -0.00 6.82 -0.89 8.70 -3.99 -2.52 -1.47 12003
0.03 -0.00 7.47 -1.53 8.37 -4.08 -2.63 -1.20 12009
0.04 -0.00 8.20 -2.20 8.19 -4.11 -2.65 -0.98 12015
0.04 -0.00 8.89 -2.99 7.68 -4.12 -2.55 -0.78 12022
0.04 -0.00 9.45 -3.81 6.45 -4.09 -2.37 -0.63 12028
0.04 -0.00 10.08 -4.61 5.50 -3.99 -2.06 -0.50 12035
0.05 -0.00 10.96 -5.06 4.95 -3.78 -1.76 -0.41 12041
0.03 -0.00 11.80 -5.40 4.73 -3.52 -1.34 -0.34 12047
0.04 -0.00 11.98 -5.65 4.77 -3.25 -0.91 -0.27 12054
0.04 -0.00 11.88 -5.67 5.61 -3.02 -0.51 -0.16 12060
0.03 -0.00 11.63 -5.58 7.24 -2.85 -0.19 -0.02 12066
0.03 -0.00 11.66 -5.67 8.33 -2.77 0.08 0.17 12072
0.03 -0.00 11.52 -6.14 9.23 -2.79 0.28 0.39 12079
0.02 -0.00 11.51 -6.60 9.88 -2.88 0.39 0.65 12086
0.04 -0.00 11.51 -7.32 10.22 -2.99 0.40 0.90 12092
0.04 -0.00 11.86 -7.89 10.40 -3.10 0.35 1.13 12098
0.04 -0.00 12.10 -8.82 10.42 -3.18 0.36 1.28 12104
0.04 -0.00 11.93 -10.03 9.92 -3.22 0.49 1.38 12111
0.03 -0.00 12.21 -10.94 9.87 -3.20 0.65 1.42 12118
0.03 -0.00 12.01 -11.60 9.73 -3.13 0.86 1.41 12124
0.03 -0.00 11.91 -12.20 9.58 -3.03 1.08 1.37 12130
0.04 -0.00 11.28 -12.39 9.55 -2.91 1.32 1.34 12137
0.04 -0.00 10.69 -12.41 9.66 -2.79 1.48 1.33 12143
0.03 -0.00 10.06 -12.36 9.76 -2.67 1.57 1.32 12149
0.06 -0.01 9.60 -12.48 9.87 -2.55 1.63 1.32 12155
0.04 -0.00 9.21 -12.58 10.02 -2.43 1.70 1.31 12163
0.03 -0.00 8.97 -12.60 10.17 -2.28 1.79 1.30 12169
0.05 -0.00 8.77 -12.59 10.43 -2.13 1.92 1.27 12175
0.03 -0.00 8.43 -12.65 11.00 -1.99 2.09 1.22 12181
0.05 -0.01 8.02 -12.68 11.46 -1.85 2.34 1.17 12188
0.04 -0.00 7.56 -12.50 12.12 -1.73 2.61 1.12 12194
0.04 0.00 7.12 -12.28 12.97 -1.64 2.88 1.09 12200
0.03 -0.00 6.56 -12.29 13.52 -1.59 3.15 1.08 12208
0.03 -0.00 5.74 -12.29 13.81 -1.57 3.38 1.10 12214
0.04 -0.00 4.82 -12.26 13.94 -1.56 3.53 1.13 12220
0.02 -0.00 3.89 -12.26 13.83 -1.54 3.59 1.17 12226
0.02 -0.00 2.96 -12.24 13.78 -1.52 3.56 1.23 12233
0.02 -0.00 2.01 -12.20 13.60 -1.48 3.45 1.28 12239
0.03 -0.00 0.99 -12.22 13.26 -1.42 3.29 1.33 12246
0.02 -0.00 0.09 -12.10 13.05 -1.36 3.07 1.36 12252
0.01 -0.00 -0.69 -11.95 12.75 -1.29 2.82 1.38 12259
0.02 -0.00 -1.36 -11.80 12.55 -1.22 2.56 1.36 12265
0.03 -0.00 -1.74 -11.70 12.54 -1.11 2.30 1.33 12271
0.03 -0.00 -1.77 -11.66 12.77 -1.04 2.09 1.27 12277
0.03 -0.00 -1.66 -11.70 12.89 -0.98 1.94 1.19 12284
0.02 -0.00 -1.67 -11.84 12.90 -0.97 1.87 1.09 12291
0.04 -0.00 -1.70 -11.96 13.00 -0.94 1.86 0.97 12297
0.04 -0.00 -1.96 -12.14 12.81 -0.93 1.89 0.83 12303
0.04 0.00 -2.29 -12.36 12.51 -0.92 1.91 0.69 12310
0.03 -0.00 -2.66 -12.54 12.19 -0.90 1.91 0.56 12316
0.02 -0.00 -3.07 -12.72 11.65 -0.86 1.91 0.44 12322
0.04 -0.00 -3.58 -12.98 11.01 -0.80 1.90 0.34 12328
0.04 -0.00 -4.07 -13.30 10.30 -0.71 1.87 0.25 12336
0.03 -0.00 -4.74 -13.67 9.88 -0.59 1.82 0.18 12342
0.03 -0.00 -5.25 -14.06 9.81 -0.44 1.74 0.14 12348
0.02 -0.00 -5.80 -14.43 9.80 -0.28 1.62 0.13 12354
0.04 -0.00 -6.46 -14.70 9.78 -0.11 1.47 0.15 12361
0.03 -0.00 -20.57 -21.26 25.13 0.38 0.32 0.42 12367
0.03 -0.00 -22.50 -15.32 14.16 1.61 -2.64 1.32 12374
0.02 -0.00 0.32 -5.10 4.72 1.64 -4.27 1.58 12380
0.04 -0.00 2.54 4.72 5.07 1.41 -4.28 1.20 12386
0.02 -0.00 4.05 -0.52 9.48 1.33 -4.28 1.06 12393
0.02 -0.00 4.05 5.13 11.47 1.13 -4.28 1.12 12399
0.03 -0.00 0.47 5.77 13.91 1.03 -4.28 1.25 12405
0.04 0.00 -2.81 2.89 12.02 1.00 -4.28 1.24 12411
0.03 0.01 -3.03 1.37 11.04 1.11 -4.28 1.04 12419
0.04 0.06 -2.73 0.34 13.17 1.38 -4.27 0.82 12425
0.05 0.17 -4.00 0.99 15.17 1.85 -3.87 0.62 12431
0.03 0.26 -5.67 1.99 14.91 2.30 -3.21 0.39 12437
0.02 0.39 -5.10 0.85 15.90 2.51 -2.64 0.08 12444
0.03 0.37 -2.54 -0.49 17.31 2.46 -2.12 -0.19 12450
0.02 0.51 0.56 -1.87 22.50 2.17 -2.01 -0.33 12456
0.01 0.49 2.48 -1.93 21.38 1.20 -2.10 -0.22 12463
0.00 0.58 1.88 -2.07 14.55 0.57 -1.22 0.04 12470
0.02 0.59 0.73 -1.43 12.53 0.25 -0.55 0.13 12476
-0.00 0.60 0.98 -1.58 10.64 0.17 -0.34 0.15 12482
0.02 0.63 1.26 -0.73 10.06 0.21 -0.38 0.17 12488
0.01 0.63 0.79 -0.70 10.68 0.24 -0.48 0.14 12495
0.01 0.62 0.83 -0.56 10.60 0.19 -0.44 0.09 12502
0.02 0.59 1.29 -0.55 9.97 0.14 -0.34 0.09 12508
0.00 0.51 1.26 -0.84 9.96 0.12 -0.33 0.08 12514
-0.01 0.55 1.14 -0.78 10.08 0.11 -0.36 0.07 12521
0.03 0.62 1.06 -0.73 10.10 0.09 -0.36 0.06 12527
0.02 0.64 0.98 -0.58 9.98 0.07 -0.37 0.05 12533
0.01 0.69 0.90 -1.09 10.28 0.05 -0.33 0.05 12539
0.01 0.64 1.00 -0.62 9.97 0.03 -0.29 0.04 12546
-0.00 0.71 0.74 -0.80 10.26 -0.00 -0.25 0.04 12553
0.01 0.78 0.51 -1.00 9.93 -0.02 -0.21 0.03 12559
0.01 0.76 0.74 -0.72 10.17 -0.02 -0.19 0.03 12565
-0.00 0.75 0.79 -0.68 10.07 -0.02 -0.18 0.03 12571
0.01 0.78 0.74 -0.77 10.15 -0.01 -0.17 0.03 12578
0.02 0.78 1.22 -0.69 9.91 -0.01 -0.16 0.04 12584
0.01 0.77 0.79 -0.68 10.00 -0.01 -0.16 0.04 12591
0.02 0.77 0.78 -0.78 9.93 -0.01 -0.17 0.04 12597
0.00 0.74 0.98 -0.74 9.88 -0.01 -0.18 0.03 12603
0.01 0.75 0.86 -0.65 10.05 -0.01 -0.19 0.03 12610
0.02 0.71 0.91 -0.62 9.96 -0.01 -0.20 0.02 12616
0.00 0.71 0.74 -0.69 10.00 -0.01 -0.21 0.01 12622
0.03 0.72 0.87 -0.63 9.81 -0.01 -0.21 0.01 12628
0.01 0.68 0.62 -0.48 10.29 -0.01 -0.21 0.00 12636
0.02 0.66 0.80 -0.69 10.00 -0.02 -0.20 0.01 12642
0.04 0.61 0.69 -0.70 10.10 -0.02 -0.18 0.01 12648
0.02 0.58 0.64 -0.71 10.04 -0.02 -0.15 0.02 12654
0.03 0.58 0.69 -0.70 10.05 -0.01 -0.13 0.02 12660
0.03 0.58 0.72 -0.69 10.10 -0.00 -0.12 0.03 12667
0.03 0.53 0.72 -0.65 10.04 0.00 -0.11 0.03 12674
0.06 0.47 0.72 -0.67 10.04 0.01 -0.11 0.03 12680
0.05 0.44 0.74 -0.69 10.01 0.00 -0.10 0.03 12686
0.07 0.41 0.74 -0.67 10.05 0.01 -0.10 0.03 12693
0.08 0.39 0.74 -0.70 10.04 0.01 -0.09 0.03 12699
0.07 0.36 0.68 -0.68 10.01 0.01 -0.09 0.04 12705
0.07 0.33 0.71 -0.71 9.99 0.01 -0.09 0.03 12711
0.07 0.35 0.75 -0.66 10.00 0.01 -0.09 0.04 12719
0.07 0.30 0.75 -0.69 9.95 0.01 -0.08 0.03 12725
0.09 0.32 0.75 -0.71 10.01 0.02 -0.08 0.03 12731
0.08 0.23 0.75 -0.74 10.01 0.01 -0.08 0.03 12737
0.11 0.26 0.71 -0.70 10.03 0.01 -0.07 0.03 12743
0.13 0.21 0.71 -0.68 10.01 0.01 -0.07 0.03 12750
0.14 0.16 0.70 -0.72 10.03 0.02 -0.06 0.03 12756
0.16 0.18 0.66 -0.74 10.01 0.02 -0.06 0.00 12763
0.16 0.12 0.70 -0.71 9.98 0.02 -0.06 0.03 12769
0.14 0.13 0.73 -0.78 10.05 0.02 -0.06 0.03 12776
0.22 0.12 0.73 -0.72 10.02 0.02 -0.05 0.03 12782
0.17 0.05 0.71 -0.72 9.95 0.02 -0.05 0.03 12788
0.16 0.04 0.74 -0.72 10.06 0.02 -0.06 0.03 12794
0.20 0.05 0.63 -0.73 10.02 0.02 -0.05 0.03 12801
0.19 0.01 0.69 -0.75 10.02 0.03 -0.05 0.03 12808
0.22 0.03 0.70 -0.74 10.03 0.02 -0.06 0.03 12814
0.24 0.01 0.33 -0.84 9.90 0.01 -0.06 0.03 12820
0.25 -0.00 0.61 -0.73 10.01 0.02 -0.05 0.02 12826
0.27 0.01 0.62 -0.80 10.05 0.02 -0.05 0.03 12832
0.30 -0.01 0.63 -0.75 10.03 0.03 -0.05 0.03 12839
0.31 -0.02 0.67 -0.74 10.00 0.03 -0.06 0.03 12846
0.34 -0.02 0.70 -0.82 10.05 0.03 -0.06 0.03 12852
0.35 -0.03 1.18 -0.75 10.08 0.04 -0.05 0.03 12858
0.37 -0.03 0.04 -0.88 10.08 0.04 -0.05 0.03 12865
0.39 -0.04 0.64 -0.77 10.06 0.04 -0.05 0.04 12871
0.36 -0.03 0.64 -0.76 9.99 0.05 -0.05 0.04 12877
0.39 -0.03 0.64 -0.72 10.06 0.05 -0.05 0.04 12883
0.41 -0.02 0.66 -0.78 10.03 0.05 -0.04 0.04 12890
0.43 -0.03 0.66 -0.79 10.00 0.05 -0.04 0.04 12897
0.45 -0.02 0.64 -0.79 9.96 0.06 -0.03 0.05 12903
0.46 -0.04 0.69 -0.84 10.02 0.06 -0.03 0.05 12909
0.47 -0.04 0.72 -0.81 10.05 0.07 -0.03 0.05 12915
0.50 -0.03 0.68 -0.79 10.01 0.07 -0.02 0.05 12922
0.49 -0.05 0.68 -0.80 9.98 0.08 -0.02 0.06 12929
0.47 -0.04 0.64 -0.84 10.01 0.08 -0.02 0.05 12935
0.49 -0.03 0.68 -0.85 10.01 0.08 -0.02 0.05 12941
0.51 -0.05 0.70 -0.84 9.98 0.08 -0.02 0.05 12947
0.51 -0.04 0.67 -0.89 9.96 0.09 -0.02 0.05 12953
0.55 -0.04 0.70 -0.78 10.05 0.09 -0.02 0.06 12960
0.55 -0.06 0.70 -0.86 10.00 0.09 -0.01 0.06 12966
0.54 -0.04 0.69 -0.87 10.01 0.10 -0.02 0.06 12973
0.58 -0.05 0.69 -0.85 10.01 0.11 -0.01 0.06 12979
0.60 -0.03 0.71 -0.94 9.94 0.11 -0.01 0.06 12986
0.64 -0.03 0.77 -0.92 10.00 0.12 -0.01 0.06 12992
0.66 -0.04 0.76 -0.91 10.00 0.13 -0.01 0.05 12998
0.64 -0.04 0.72 -0.92 9.98 0.14 -0.01 0.05 13004
0.70 -0.04 0.71 -0.95 10.02 0.15 -0.00 0.05 13010
0.69 -0.04 0.69 -0.97 10.00 0.16 0.01 0.04 13018
0.70 -0.04 0.74 -1.01 10.01 0.16 0.02 0.04 13024
0.74 -0.04 0.74 -1.01 10.09 0.18 0.03 0.03 13030
0.75 -0.04 0.71 -1.03 10.12 0.20 0.04 0.03 13036
0.75 -0.03 0.82 -1.01 10.12 0.24 0.04 0.02 13043
0.76 -0.04 0.83 -1.05 10.20 0.29 0.04 0.01 13049
0.79 -0.03 0.84 -1.11 10.17 0.35 0.03 0.01 13056
0.87 -0.04 0.86 -1.09 10.24 0.40 0.03 -0.00 13062
0.90 -0.05 0.84 -1.24 10.28 0.46 0.02 -0.01 13069
0.91 -0.03 0.82 -1.17 10.19 0.52 0.02 -0.02 13075
0.92 -0.03 0.77 -1.26 10.38 0.58 0.01 -0.03 13081
0.94 -0.04 0.82 -1.31 10.54 0.65 0.01 -0.03 13087
1.01 -0.04 0.84 -1.40 10.73 0.73 -0.00 -0.03 13094
1.01 -0.06 0.86 -1.38 10.91 0.82 -0.01 -0.04 13101
1.03 -0.04 0.88 -1.51 10.91 0.90 -0.03 -0.05 13107
1.06 -0.05 0.87 -1.56 10.79 0.98 -0.04 -0.05 13113
1.09 -0.04 0.87 -1.61 10.67 1.06 -0.05 -0.06 13120
1.14 -0.05 0.89 -1.70 10.79 1.13 -0.06 -0.06 13126
1.14 -0.06 0.89 -1.76 10.72 1.15 -0.06 -0.07 13132
1.17 -0.04 0.98 -1.85 10.84 1.24 -0.06 -0.08 13138
1.22 -0.05 0.88 -1.90 10.70 1.26 -0.08 -0.08 13146
1.22 -0.04 0.93 -2.06 10.78 1.32 -0.07 -0.09 13152
1.24 -0.05 0.96 -2.12 10.76 1.39 -0.08 -0.10 13158
1.24 -0.07 0.84 -2.18 10.93 1.46 -0.09 -0.10 13164
1.24 -0.06 0.79 -2.32 11.02 1.57 -0.09 -0.10 13171
1.24 -0.05 0.70 -2.31 11.07 1.62 -0.08 -0.09 13177
1.22 -0.05 0.68 -2.52 10.83 1.71 -0.06 -0.09 13184
1.22 -0.05 0.55 -2.60 11.00 1.81 -0.00 -0.08 13190
1.22 -0.05 0.69 -2.69 10.92 1.91 0.06 -0.07 13197
1.22 -0.05 0.71 -2.92 11.18 2.04 0.13 -0.07 13203
1.20 -0.05 0.77 -3.14 11.01 2.19 0.21 -0.07 13209
1.14 -0.05 0.61 -3.10 11.18 2.33 0.32 -0.08 13215
1.11 -0.05 0.40 -3.26 11.19 2.51 0.45 -0.06 13222
1.04 -0.05 0.54 -3.31 11.28 2.70 0.63 -0.04 13229
0.97 -0.04 0.47 -3.68 11.22 2.91 0.86 -0.01 13235
0.85 -0.05 0.38 -3.63 11.67 3.13 1.17 0.01 13242
0.73 -0.04 0.00 -4.18 12.26 3.35 1.46 0.05 13248
0.54 -0.03 -0.20 -4.35 12.81 3.58 1.83 0.12 13254
0.40 -0.03 -0.24 -4.99 13.65 3.82 2.17 0.22 13260
0.35 -0.02 0.30 -5.49 13.75 4.03 2.36 0.36 13267
0.24 -0.02 0.19 -6.65 15.78 4.16 2.29 0.48 13274
0.22 -0.02 0.99 -7.97 16.33 4.22 2.23 0.62 13280
0.19 -0.01 -0.24 -8.41 16.66 4.22 2.30 0.84 13286
0.12 -0.01 0.41 -10.21 16.62 4.07 2.50 1.06 13293
0.17 -0.02 0.70 -10.35 21.25 4.01 2.58 1.20 13299
0.10 -0.01 3.37 -11.53 24.10 4.19 2.96 1.24 13305
0.11 -0.01 3.56 -11.31 23.97 4.28 3.19 1.20 13312
0.06 -0.01 2.22 -9.98 21.29 4.28 3.12 1.21 13319
0.05 -0.01 3.25 -9.19 19.63 4.28 3.19 1.33 13325
0.06 -0.00 4.97 -9.34 21.76 4.28 3.53 1.38 13331
0.06 -0.01 6.64 -8.55 22.05 4.28 4.13 1.35 13337
0.05 -0.00 7.18 -7.60 22.40 4.28 4.28 1.21 13343
0.05 -0.01 5.56 -5.48 22.92 4.21 4.28 0.99 13350
0.04 -0.00 3.06 -2.65 22.80 4.05 4.28 0.69 13357
0.06 -0.00 -0.12 0.60 21.63 3.81 4.28 0.33 13363
0.05 -0.00 -2.90 4.38 19.37 3.53 4.28 -0.04 13369
0.03 -0.00 -5.63 6.93 17.60 3.12 4.28 -0.47 13375
0.05 -0.00 -9.57 5.88 13.35 2.63 4.26 -0.99 13382
0.04 -0.00 -9.77 8.70 1.97 2.24 2.70 -1.79 13388
0.04 -0.00 -11.98 8.75 15.56 1.34 -0.11 -2.19 13394
0.03 -0.00 -10.79 11.91 11.89 -0.66 -1.84 -2.27 13401
0.05 -0.00 -4.49 10.50 13.97 -2.41 -2.87 -2.26 13408
0.05 -0.01 -0.57 5.04 16.97 -3.24 -3.61 -2.35 13414
0.04 -0.00 0.64 1.13 16.24 -3.78 -3.88 -2.57 13420
0.03 -0.00 2.33 -0.40 14.41 -4.02 -3.71 -2.87 13426
0.04 -0.00 3.91 -0.78 12.87 -4.08 -3.23 -3.21 13433
0.03 -0.00 4.88 -1.12 11.41 -4.09 -2.57 -3.52 13440
0.03 -0.00 5.19 -0.81 9.84 -4.10 -1.95 -3.77 13446
0.05 -0.01 5.00 -0.16 8.80 -4.14 -1.46 -3.94 13452
0.04 -0.00 4.44 0.31 7.25 -4.18 -1.07 -4.00 13458
0.03 -0.00 3.80 0.53 7.21 -4.23 -0.86 -3.99 13464
0.04 0.00 2.84 0.42 7.51 -4.27 -0.93 -3.91 13471
0.04 -0.00 2.00 -0.49 8.37 -4.28 -1.21 -3.72 13477
0.02 -0.00 0.76 -2.42 8.82 -4.28 -1.66 -3.37 13484
0.03 -0.00 1.32 -3.08 7.80 -4.28 -2.25 -2.83 13490
0.04 -0.00 4.15 -1.90 6.94 -4.27 -3.08 -2.31 13496
0.04 -0.00 5.65 -2.10 7.55 -4.26 -3.82 -1.88 13502
0.03 -0.00 7.92 -2.97 6.91 -4.26 -4.21 -1.51 13509
0.04 -0.00 9.62 -3.26 7.30 -4.23 -4.26 -1.20 13515
0.03 -0.00 11.58 -3.62 7.04 -4.20 -4.18 -0.95 13521
0.04 -0.00 12.87 -3.80 6.37 -4.18 -3.74 -0.77 13528
0.04 -0.00 13.96 -3.65 6.42 -4.14 -3.05 -0.61 13534
0.03 -0.00 14.56 -4.11 5.55 -4.08 -2.20 -0.48 13541
0.04 -0.00 13.97 -4.74 5.37 -3.97 -1.42 -0.33 13547
0.04 -0.00 13.36 -4.96 5.24 -3.75 -0.76 -0.14 13553
0.03 -0.00 12.38 -5.48 5.50 -3.51 -0.32 0.10 13559
0.04 -0.00 11.82 -6.73 6.73 -3.27 -0.12 0.41 13565
0.04 -0.00 10.84 -6.03 7.23 -3.05 -0.10 0.71 13573
0.02 -0.00 11.69 -6.91 6.23 -2.87 -0.05 1.02 13579
0.03 -0.00 12.49 -7.52 6.53 -2.69 0.02 1.33 13585
0.02 -0.00 12.92 -8.09 6.78 -2.53 0.16 1.60 13591
0.04 -0.00 12.82 -8.82 6.92 -2.39 0.36 1.82 13598
0.05 -0.00 13.00 -9.22 6.91 -2.21 0.60 2.00 13604
0.04 -0.00 13.06 -9.59 7.05 -2.04 0.90 2.13 13611
0.04 -0.00 13.27 -9.44 7.22 -1.88 1.12 2.23 13617
0.04 -0.00 12.99 -8.59 7.41 -1.72 1.40 2.33 13623
0.04 -0.00 13.31 -8.88 7.95 -1.59 1.65 2.39 13630
0.04 0.01 13.24 -8.67 8.53 -1.50 1.86 2.47 13636
0.03 -0.00 13.19 -8.65 9.22 -1.45 2.03 2.46 13642
0.02 -0.00 13.18 -8.89 9.74 -1.45 2.18 2.46 13648
0.04 -0.00 13.04 -9.27 10.28 -1.49 2.30 2.44 13655
0.03 -0.00 12.97 -9.48 10.75 -1.56 2.40 2.41 13662
0.03 -0.00 12.68 -9.72 10.80 -1.64 2.48 2.38 13668
0.03 -0.00 12.19 -9.76 10.72 -1.72 2.54 2.35 13674
0.02 -0.00 11.56 -9.68 10.59 -1.78 2.57 2.31 13681
0.04 -0.00 10.88 -9.55 10.70 -1.82 2.55 2.27 13687
0.04 -0.00 10.15 -9.35 10.95 -1.83 2.53 2.24 13693
0.03 -0.00 9.59 -9.22 11.09 -1.85 2.51 2.21 13700
0.04 -0.00 9.02 -9.16 11.29 -1.85 2.50 2.18 13706
0.02 -0.00 8.26 -9.24 11.36 -1.82 2.50 2.14 13713
0.02 -0.00 7.54 -9.52 11.69 -1.77 2.52 2.07 13719
0.03 -0.00 6.87 -9.79 11.98 -1.69 2.54 1.97 13725
0.02 -0.00 6.22 -9.81 12.48 -1.61 2.54 1.85 13731
0.05 -0.00 5.64 -9.67 12.94 -1.51 2.56 1.72 13739
0.03 -0.00 5.07 -9.56 13.69 -1.50 2.57 1.57 13745
0.03 -0.00 4.36 -9.62 14.49 -1.52 2.54 1.41 13751
0.04 -0.00 3.61 -9.75 15.09 -1.59 2.47 1.24 13757
0.02 -0.00 2.47 -10.05 15.41 -1.70 2.33 1.05 13763
0.03 -0.00 1.35 -10.39 14.93 -1.84 2.22 0.85 13770
0.03 -0.00 0.19 -11.09 13.93 -1.92 2.25 0.71 13776
0.03 -0.00 -1.70 -11.52 13.60 -1.90 2.37 0.58 13783
0.04 -0.00 -3.10 -11.97 14.17 -1.82 2.35 0.42 13789
0.03 -0.00 -5.98 -12.48 15.18 -1.75 2.27 0.26 13796
0.03 -0.00 -7.76 -12.86 15.70 -1.74 2.01 0.07 13802
0.03 -0.00 -8.23 -12.97 15.73 -1.79 1.52 -0.12 13808
0.03 -0.00 -8.77 -13.06 15.70 -1.92 0.90 -0.32 13814
0.05 -0.00 -8.41 -13.41 15.03 -2.09 0.29 -0.54 13821
0.03 -0.00 -7.54 -14.24 13.89 -2.22 -0.19 -0.82 13828
0.03 0.00 -6.39 -15.25 12.12 -2.28 -0.49 -1.13 13834
0.03 -0.00 -5.24 -16.46 10.38 -2.21 -0.60 -1.46 13841
0.03 0.00 -4.51 -17.43 8.88 -2.01 -0.53 -1.79 13847
0.03 -0.00 -4.32 -18.17 7.47 -1.71 -0.33 -2.08 13853
0.01 -0.00 -4.44 -18.52 6.63 -1.33 -0.16 -2.28 13859
0.03 -0.00 -5.76 -19.28 6.36 -0.89 -0.01 -2.33 13867
0.02 -0.00 -29.66 -19.27 21.69 0.35 -1.97 -1.66 13873
0.02 -0.00 -15.33 -9.24 10.94 1.26 -3.99 -0.58 13879
0.02 -0.00 6.12 0.73 4.81 0.98 -4.28 -0.56 13885
0.03 -0.00 8.55 7.62 11.55 0.97 -4.28 -0.59 13891
0.02 0.01 10.00 7.30 13.57 0.96 -4.28 -0.23 13898
0.02 0.00 7.52 6.37 10.51 0.87 -3.80 0.23 13904
0.03 0.00 2.83 2.49 6.75 0.91 -3.34 0.50 13911
0.04 0.03 -0.27 0.05 7.69 1.12 -3.23 0.48 13917
0.01 0.12 -1.43 -0.38 12.25 1.44 -3.05 0.36 13924
0.03 0.24 -1.31 -1.10 13.19 1.80 -2.69 0.25 13930
0.02 0.39 -2.14 -0.15 14.73 2.20 -2.23 0.16 13936
0.01 0.47 -3.64 -0.19 16.43 2.40 -1.82 -0.05 13942
0.03 0.61 -2.78 0.01 16.87 2.36 -1.59 -0.37 13949
0.01 0.62 0.34 -1.28 16.13 2.26 -1.51 -0.60 13956
0.01 0.73 3.80 -2.57 19.03 2.22 -1.70 -0.60 13962
0.01 0.71 5.49 -2.08 18.67 1.67 -2.20 -0.30 13969
0.00 0.72 3.94 -2.19 13.90 1.26 -1.95 0.08 13975
0.01 0.68 1.33 -1.36 13.69 0.88 -1.45 0.23 13981
0.01 0.60 0.54 -1.41 12.00 0.56 -1.03 0.25 13987
0.03 0.66 0.17 -0.64 11.82 0.36 -0.76 0.19 13995
0.01 0.62 0.02 -0.67 10.46 0.25 -0.62 0.11 14001
0.01 0.69 0.56 -0.61 10.67 0.22 -0.58 0.07 14007
0.02 0.70 0.94 -0.90 10.52 0.18 -0.48 0.08 14013
0.02 0.70 1.02 -1.06 10.17 0.12 -0.34 0.11 14020
0.01 0.73 0.62 -0.79 10.46 0.08 -0.24 0.10 14026
0.01 0.73 0.71 -0.73 10.32 0.04 -0.15 0.08 14032
0.02 0.72 0.90 -0.82 10.18 0.03 -0.09 0.07 14039
0.01 0.72 0.93 -0.86 10.13 0.03 -0.07 0.08 14046
0.01 0.66 0.89 -0.82 10.18 0.02 -0.04 0.08 14052
0.00 0.68 0.85 -0.81 10.06 0.02 -0.01 0.07 14058
0.01 0.63 0.86 -0.78 10.04 0.02 0.01 0.07 14064
0.01 0.58 0.92 -0.79 10.03 0.02 0.02 0.07 14070
0.03 0.56 0.98 -0.79 10.00 0.02 0.03 0.07 14077
0.03 0.54 0.97 -0.75 9.99 0.02 0.03 0.07 14084
0.03 0.51 1.01 -0.78 10.02 0.02 0.03 0.06 14090
0.04 0.51 0.99 -0.79 9.97 0.03 0.03 0.06 14096
0.02 0.48 1.05 -0.72 10.00 0.03 0.02 0.06 14102
0.03 0.42 1.04 -0.75 9.99 0.03 0.02 0.06 14109
0.04 0.39 1.00 -0.77 10.14 0.03 0.03 0.06 14115
0.04 0.31 0.98 -0.80 9.99 0.02 0.04 0.06 14121
0.04 0.32 1.01 -0.78 10.02 0.02 0.05 0.05 14128
0.05 0.30 1.01 -0.80 10.00 0.02 0.05 0.05 14134
0.04 0.24 1.02 -0.75 9.94 0.02 0.05 0.05 14141
0.04 0.24 1.07 -0.77 9.96 0.02 0.05 0.05 14147
0.05 0.23 1.11 -0.75 9.98 0.02 0.05 0.05 14153
0.04 0.16 1.08 -0.78 9.94 0.02 0.04 0.05 14159
0.05 0.16 1.12 -0.77 9.93 0.03 0.03 0.05 14166
0.06 0.13 1.11 -0.80 9.92 0.02 0.03 0.05 14172
0.04 0.12 1.08 -0.80 9.90 0.03 0.02 0.04 14179
0.06 0.11 1.15 -0.79 9.95 0.03 0.02 0.04 14185
0.08 0.10 1.12 -0.86 9.95 0.02 0.01 0.04 14191
0.08 0.04 1.10 -0.82 9.97 0.02 0.01 0.04 14197
0.07 0.03 1.14 -0.84 9.95 0.02 0.00 0.04 14203
0.09 0.03 1.14 -0.86 9.93 0.03 -0.01 0.04 14210
0.09 0.02 1.14 -0.94 9.94 0.03 -0.02 0.04 14217
0.08 0.00 1.12 -0.86 9.97 0.03 -0.03 0.04 14223
0.10 0.01 1.14 -0.86 10.00 0.03 -0.03 0.04 14229
0.11 -0.00 1.05 -0.81 10.02 0.03 -0.04 0.04 14235
0.10 -0.00 1.10 -0.86 9.99 0.03 -0.04 0.04 14241
0.12 -0.00 1.09 -0.79 9.89 0.03 -0.05 0.04 14248
0.11 -0.01 1.10 -0.86 9.93 0.03 -0.05 0.04 14255
0.14 -0.00 1.15 -0.90 9.97 0.03 -0.04 0.04 14261
0.17 -0.01 1.12 -0.89 9.98 0.03 -0.05 0.04 14267
0.17 -0.00 1.13 -0.86 9.98 0.02 -0.05 0.03 14273
0.17 -0.02 1.13 -0.82 9.92 0.02 -0.05 0.03 14279
0.18 0.01 1.10 -0.83 9.95 0.02 -0.05 0.03 14286
0.19 0.00 1.16 -0.83 10.00 0.02 -0.07 0.03 14292
0.16 0.00 1.15 -0.89 10.04 0.02 -0.07 0.02 14299
0.17 -0.02 0.99 -0.84 9.90 0.01 -0.09 0.03 14305
0.19 -0.01 1.14 -0.76 9.92 0.01 -0.10 0.03 14311
0.23 -0.02 1.04 -1.02 10.00 0.02 -0.11 0.02 14318
0.23 0.00 1.05 -0.87 9.99 0.02 -0.12 0.02 14324
0.24 -0.01 1.19 -0.84 10.03 0.02 -0.12 0.01 14330
0.25 -0.02 1.03 -0.94 9.95 0.03 -0.11 0.01 14337
0.31 -0.03 1.06 -0.86 10.01 0.03 -0.11 0.02 14343
0.29 -0.03 1.08 -0.92 10.00 0.04 -0.10 0.02 14349
0.28 -0.03 1.04 -0.91 10.06 0.05 -0.11 0.02 14356
0.32 -0.03 1.12 -0.94 10.05 0.06 -0.11 0.02 14362
0.30 -0.02 1.03 -0.89 10.04 0.07 -0.11 0.02 14368
0.30 -0.03 1.15 -1.02 9.97 0.07 -0.11 0.03 14374
0.41 -0.04 1.07 -0.90 9.99 0.09 -0.11 0.03 14381
0.29 -0.00 1.04 -0.98 9.94 0.09 -0.09 0.03 14388
0.34 0.01 1.04 -0.98 9.97 0.10 -0.08 0.03 14394
0.33 -0.00 1.05 -0.99 9.97 0.10 -0.06 0.03 14400
0.40 -0.03 0.99 -1.00 10.01 0.12 -0.06 0.02 14406
0.42 -0.02 1.05 -1.01 10.02 0.13 -0.04 0.02 14412
0.43 -0.01 1.08 -1.06 10.02 0.13 -0.04 0.02 14419
0.43 -0.03 1.04 -1.04 9.99 0.14 -0.03 0.02 14426
0.41 -0.03 1.05 -1.00 9.94 0.15 -0.03 0.02 14432
0.46 -0.03 1.02 -1.05 10.02 0.16 -0.03 0.01 14438
0.48 -0.05 1.04 -1.08 10.03 0.18 -0.03 0.01 14444
0.50 -0.04 1.07 -1.10 10.05 0.20 -0.02 0.01 14451
0.54 -0.04 1.09 -1.18 9.97 0.22 -0.03 0.01 14457
0.51 -0.05 1.07 -1.08 10.02 0.25 -0.03 0.00 14464
0.52 -0.02 1.09 -1.14 10.03 0.27 -0.03 -0.00 14470
0.54 -0.02 1.04 -1.16 10.12 0.29 -0.02 -0.01 14477
0.60 -0.04 1.08 -1.20 10.19 0.33 -0.01 -0.01 14483
0.63 -0.03 1.02 -1.25 10.19 0.36 -0.01 -0.01 14489
0.61 -0.05 1.13 -1.31 10.10 0.40 -0.00 -0.02 14495
0.65 -0.02 1.07 -1.36 10.22 0.42 -0.01 -0.02 14502
0.68 -0.03 1.08 -1.35 10.13 0.47 0.00 -0.03 14509
0.69 -0.03 1.09 -1.39 10.19 0.49 0.00 -0.03 14515
0.72 -0.05 1.13 -1.44 10.11 0.51 0.00 -0.04 14521
0.70 -0.04 1.18 -1.47 10.13 0.53 0.01 -0.04 14528
0.70 -0.02 1.17 -1.51 10.23 0.55 0.01 -0.05 14534
0.71 -0.04 1.22 -1.61 10.35 0.59 0.01 -0.06 14540
0.72 -0.03 1.15 -1.64 10.46 0.63 0.00 -0.07 14546
0.77 -0.04 1.24 -1.70 10.48 0.67 -0.01 -0.07 14554
0.77 -0.05 1.17 -1.73 10.57 0.73 -0.01 -0.08 14560
0.81 -0.03 1.20 -1.74 10.44 0.78 -0.01 -0.09 14566
0.83 -0.04 1.19 -1.88 10.67 0.86 -0.01 -0.09 14572
0.85 -0.04 1.16 -1.92 10.50 0.89 -0.02 -0.10 14579
0.87 -0.04 1.18 -2.07 10.74 0.95 -0.03 -0.10 14585
0.91 -0.04 1.32 -2.02 10.61 1.02 -0.03 -0.10 14592
0.90 -0.03 1.15 -2.11 10.68 1.07 -0.04 -0.11 14598
0.95 -0.04 1.10 -2.15 10.63 1.17 -0.05 -0.10 14605
0.96 -0.04 1.02 -2.22 10.69 1.23 -0.04 -0.10 14611
0.96 -0.04 1.11 -2.41 10.71 1.26 -0.02 -0.09 14617
0.97 -0.05 1.19 -2.56 10.69 1.32 -0.00 -0.09 14624
1.01 -0.04 1.01 -2.57 10.58 1.38 0.04 -0.09 14630
1.00 -0.06 1.09 -2.60 10.52 1.45 0.07 -0.09 14637
0.99 -0.04 1.14 -2.67 10.62 1.53 0.14 -0.09 14643
0.96 -0.04 1.08 -2.87 10.68 1.62 0.21 -0.09 14650
0.95 -0.05 1.05 -2.95 10.79 1.73 0.26 -0.09 14656
0.93 -0.04 1.09 -3.10 10.77 1.84 0.39 -0.09 14662
0.88 -0.06 0.93 -3.20 10.71 1.96 0.54 -0.08 14668
0.78 -0.03 0.89 -3.32 11.18 2.09 0.71 -0.06 14675
0.68 -0.03 0.94 -3.57 11.69 2.24 0.91 -0.04 14682
0.64 -0.04 0.91 -3.71 12.08 2.43 1.12 -0.01 14688
0.49 -0.03 0.87 -3.90 12.04 2.63 1.31 0.02 14694
0.34 -0.03 0.92 -4.16 12.47 2.82 1.55 0.07 14701
0.23 -0.01 0.51 -4.67 13.45 2.99 1.74 0.14 14707
0.15 -0.01 0.30 -4.93 14.64 3.18 2.00 0.25 14713
0.17 -0.01 -0.03 -5.27 14.36 3.35 2.22 0.41 14720
0.17 -0.01 0.26 -6.54 14.91 3.32 2.29 0.58 14727
0.14 -0.01 1.56 -7.22 19.08 3.39 2.37 0.71 14733
0.15 -0.01 3.32 -8.23 20.57 3.68 2.66 0.74 14739
0.11 -0.01 3.96 -8.71 21.13 4.03 2.90 0.73 14745
0.07 -0.01 4.23 -8.46 21.69 4.20 3.01 0.74 14752
0.08 -0.01 4.42 -9.31 20.98 4.27 3.06 0.77 14758
0.07 -0.01 4.39 -9.79 20.42 4.28 3.13 0.81 14765
0.07 0.00 5.25 -9.73 21.21 4.27 3.26 0.84 14771
0.08 -0.01 6.62 -8.91 20.78 4.25 3.59 0.86 14778
0.06 -0.01 7.01 -7.88 21.16 4.22 4.06 0.78 14784
0.06 -0.01 6.35 -6.33 21.75 4.19 4.27 0.60 14790
0.04 -0.00 4.60 -4.86 22.05 4.14 4.28 0.39 14796
0.04 -0.00 2.91 -2.36 20.81 4.07 4.28 0.15 14802
0.05 -0.00 0.52 0.13 20.13 3.94 4.28 -0.11 14810
0.04 0.00 -0.98 2.35 18.71 3.66 4.28 -0.38 14816
0.03 -0.00 -2.44 3.63 17.40 3.31 3.88 -0.67 14822
0.05 -0.00 -4.24 6.27 15.98 2.98 3.09 -0.92 14828
0.04 -0.00 -11.24 9.58 4.25 2.77 2.29 -1.37 14834
0.06 -0.01 -9.06 6.64 13.25 2.12 0.07 -1.92 14841
0.05 -0.00 -7.21 8.34 9.24 0.67 -1.66 -2.23 14848
0.04 -0.00 -4.19 10.06 10.15 -0.92 -2.61 -2.41 14854
0.03 0.00 -1.02 6.72 14.12 -1.81 -3.15 -2.56 14860
0.03 0.00 0.26 2.31 13.97 -2.30 -3.32 -2.80 14867
0.04 -0.00 0.82 0.20 12.98 -2.56 -3.26 -3.12 14873
0.05 -0.01 2.41 -0.36 11.92 -2.61 -2.95 -3.44 14879
0.04 -0.00 2.62 -0.54 10.55 -2.56 -2.61 -3.73 14885
0.04 -0.00 2.69 -0.35 8.63 -2.52 -2.22 -3.99 14892
0.04 -0.00 2.43 0.11 7.64 -2.54 -1.92 -4.18 14899
0.03 -0.00 2.26 0.46 7.44 -2.60 -1.76 -4.27 14905
0.04 -0.00 2.07 0.67 7.49 -2.72 -1.75 -4.28 14911
0.05 -0.00 2.00 0.80 7.13 -2.88 -1.91 -4.28 14917
0.02 0.01 1.99 0.94 8.45 -3.06 -2.16 -4.26 14923
0.05 0.01 2.58 -0.81 8.99 -3.22 -2.30 -4.11 14929
0.04 -0.00 2.70 -1.68 9.09 -3.39 -2.34 -3.81 14937
0.04 -0.00 4.18 -1.39 10.24 -3.46 -2.26 -3.49 14943
0.05 -0.00 5.04 -1.41 10.78 -3.59 -2.37 -3.19 14949
0.04 -0.00 5.32 -2.21 10.02 -3.71 -2.56 -2.82 14955
0.03 -0.00 5.82 -2.80 9.35 -3.83 -2.73 -2.41 14962
0.03 -0.00 7.02 -2.63 8.93 -3.96 -2.91 -2.02 14968
0.06 -0.01 7.61 -2.72 8.73 -4.06 -3.09 -1.67 14974
0.04 -0.00 8.36 -3.31 8.27 -4.10 -3.11 -1.39 14981
0.05 -0.00 8.94 -4.10 7.96 -4.09 -3.00 -1.08 14987
0.05 -0.00 9.81 -4.68 7.24 -4.02 -2.81 -0.80 14993
0.03 -0.00 10.22 -4.97 6.91 -3.91 -2.57 -0.57 15000
0.04 -0.00 10.61 -5.43 6.55 -3.76 -2.20 -0.35 15006
0.04 -0.00 11.08 -5.94 5.67 -3.58 -1.76 -0.14 15012
0.03 0.01 11.05 -6.02 6.31 -3.40 -1.31 0.08 15019
0.04 0.00 11.43 -6.11 6.26 -3.23 -0.81 0.33 15025
0.04 -0.00 11.13 -6.27 7.42 -3.05 -0.37 0.60 15032
0.02 -0.00 10.54 -6.72 7.53 -2.89 0.01 0.89 15038
0.03 -0.00 10.17 -6.86 6.79 -2.78 0.25 1.17 15044
0.04 -0.00 9.36 -7.27 7.60 -2.65 0.41 1.43 15050
0.03 -0.00 9.02 -7.81 8.97 -2.52 0.47 1.68 15056
0.05 -0.00 8.49 -8.54 7.67 -2.39 0.51 1.88 15064
0.04 -0.00 8.28 -8.48 7.94 -2.26 0.56 2.01 15070
0.02 -0.00 8.45 -8.96 8.29 -2.13 0.65 2.12 15076
0.03 -0.00 8.73 -9.36 8.56 -2.01 0.77 2.21 15082
0.03 -0.00 8.92 -9.49 9.13 -1.93 0.93 2.27 15088
0.02 -0.00 8.98 -9.55 9.70 -1.88 1.10 2.32 15094
0.02 -0.00 9.32 -9.42 10.07 -1.87 1.22 2.34 15101
0.03 -0.00 9.38 -9.59 10.36 -1.90 1.29 2.31 15108
0.04 -0.00 9.47 -9.92 10.31 -1.93 1.32 2.26 15114
0.04 -0.00 9.75 -10.49 10.10 -1.96 1.27 2.17 15120
0.03 -0.00 10.09 -11.05 9.76 -1.98 1.22 2.03 15127
0.03 -0.00 10.50 -11.58 9.35 -1.98 1.14 1.85 15133
0.04 -0.00 11.08 -11.79 8.88 -1.95 1.13 1.63 15139
0.03 -0.00 11.53 -11.84 8.53 -1.90 1.14 1.40 15145
0.04 0.01 11.82 -11.89 8.37 -1.82 1.24 1.17 15153
0.04 -0.00 11.84 -11.81 8.41 -1.74 1.44 0.96 15159
0.03 -0.00 11.70 -11.51 8.90 -1.66 1.65 0.77 15165
0.03 -0.00 11.29 -11.08 9.43 -1.58 1.93 0.63 15171
0.03 -0.00 10.77 -10.57 9.93 -1.53 2.16 0.54 15178
0.05 -0.00 9.98 -10.02 10.12 -1.51 2.43 0.51 15184
0.03 -0.00 9.05 -9.68 10.41 -1.50 2.66 0.50 15191
0.03 -0.00 8.14 -9.37 10.79 -1.49 2.83 0.51 15197
0.04 -0.00 7.29 -9.22 11.31 -1.47 3.02 0.55 15204
0.03 -0.00 6.46 -9.10 11.63 -1.44 3.20 0.59 15210
0.02 0.00 5.50 -8.93 11.93 -1.42 3.35 0.64 15216
0.03 -0.00 4.52 -8.70 12.05 -1.38 3.45 0.70 15222
0.03 -0.00 3.46 -8.70 12.87 -1.33 3.49 0.76 15228
0.04 -0.00 2.46 -8.84 12.72 -1.25 3.48 0.79 15236
0.04 -0.00 1.43 -9.13 13.14 -1.16 3.42 0.81 15242
0.02 -0.00 0.61 -9.48 13.61 -1.07 3.31 0.81 15248
0.05 -0.00 0.18 -9.72 14.04 -1.02 3.19 0.78 15254
0.03 -0.00 0.01 -9.93 14.34 -1.00 3.06 0.72 15260
0.02 -0.00 -0.16 -10.12 14.80 -1.04 2.92 0.65 15267
0.05 -0.00 -0.27 -10.27 15.47 -1.11 2.77 0.57 15273
0.03 -0.00 -0.52 -10.51 16.03 -1.27 2.62 0.49 15280
0.04 0.00 -1.14 -10.71 16.15 -1.44 2.47 0.42 15286
0.03 -0.00 -2.19 -10.93 15.74 -1.61 2.32 0.37 15293
0.03 -0.00 -3.42 -11.36 14.85 -1.72 2.16 0.35 15299
0.04 -0.00 -4.82 -12.03 13.65 -1.77 1.97 0.34 15305
0.03 -0.00 -6.23 -12.85 12.43 -1.72 1.76 0.34 15312
0.06 -0.01 -9.48 -15.31 11.46 -1.54 1.45 0.31 15319
0.03 -0.00 -26.54 -22.50 23.13 -0.47 -0.59 0.54 15325
0.03 0.01 -14.82 -16.35 1.94 -0.27 -1.09 0.75 15331
0.03 -0.00 -19.12 -15.33 8.32 0.24 -2.97 0.91 15338
0.05 -0.00 -24.45 -21.02 8.48 0.34 -3.92 1.07 15344
0.03 -0.00 -19.91 -22.24 7.95 0.57 -4.28 1.16 15350
0.03 -0.00 -12.35 -10.49 7.98 0.43 -4.28 0.91 15357
0.05 -0.01 -4.18 -0.93 8.04 0.17 -4.28 0.50 15364
0.04 0.01 2.74 2.86 22.34 0.41 -4.28 0.38 15370
0.03 0.23 0.52 15.21 30.59 1.22 -2.87 0.80 15376
0.02 0.48 -4.02 7.62 1.72 1.38 -1.11 1.17 15382
-0.02 0.69 -12.00 2.34 10.09 2.08 -1.22 0.69 15389
0.02 0.78 -11.93 -2.86 18.90 2.44 -1.56 -0.07 15395
0.02 0.76 -4.40 -2.79 14.68 2.64 -1.60 -0.71 15401
-0.01 0.85 1.03 -1.73 21.14 2.78 -1.37 -1.01 15409
0.00 0.78 6.98 -1.75 29.25 1.95 -1.94 -0.93 15415
0.01 0.81 7.16 -2.85 12.89 0.81 -1.67 -0.31 15421
0.01 0.83 3.07 -2.45 13.50 0.60 -0.82 0.18 15427
-0.01 0.84 2.25 -1.78 9.34 0.47 -0.45 0.31 15434
0.02 0.77 1.59 -1.06 9.17 0.59 -0.80 0.41 15440
0.01 0.61 0.49 -0.44 10.78 0.66 -1.17 0.34 15447
0.01 0.58 0.38 -0.24 11.22 0.53 -1.10 0.22 15453
0.02 0.51 0.74 -0.36 10.82 0.38 -0.90 0.15 15460
0.01 0.52 1.02 -0.68 10.24 0.25 -0.69 0.11 15466
0.04 0.57 1.15 -0.77 9.90 0.19 -0.57 0.09 15472
