Voltage_01 Voltage_02 Acc_x Acc_y Acc_z Gyro_x Gyro_y Gyro_z Time
5000
1.22 -0.05 0.33 -2.03 10.83 0.76 0.18 -0.07 23
1.22 -0.04 0.57 -1.83 10.25 0.81 0.23 -0.06 29
1.23 -0.06 0.50 -1.86 10.55 0.86 0.27 -0.05 35
1.24 -0.06 0.56 -1.91 10.83 0.93 0.27 -0.04 41
1.23 -0.06 0.70 -2.02 11.12 1.01 0.26 -0.03 48
1.22 -0.04 0.85 -2.16 11.10 1.12 0.24 -0.03 54
1.19 -0.05 0.82 -2.13 11.07 1.22 0.22 -0.04 61
1.19 -0.06 0.76 -2.24 10.90 1.31 0.20 -0.04 67
1.17 -0.05 0.72 -2.39 11.05 1.43 0.22 -0.04 73
1.16 -0.05 0.74 -2.44 11.19 1.49 0.25 -0.04 79
1.13 -0.05 0.86 -2.62 11.35 1.61 0.27 -0.04 86
1.09 -0.06 1.01 -2.62 9.64 1.73 0.30 -0.05 92
1.02 -0.05 0.67 -2.80 11.38 1.86 0.35 -0.06 98
1.01 -0.04 1.05 -2.87 11.67 2.02 0.40 -0.07 104
0.94 -0.05 0.84 -2.92 11.51 2.19 0.47 -0.08 111
0.88 -0.04 0.83 -3.18 11.80 2.34 0.58 -0.08 117
0.81 -0.03 0.67 -3.27 11.61 2.52 0.72 -0.06 123
0.77 -0.04 0.37 -3.29 11.82 2.69 0.90 -0.03 130
0.59 -0.04 0.29 -3.71 12.38 2.88 1.06 0.02 136
0.51 -0.03 0.16 -3.78 12.72 3.09 1.27 0.08 142
0.40 -0.02 0.67 -4.22 12.81 3.29 1.44 0.16 148
0.30 -0.02 0.44 -4.58 13.33 3.49 1.60 0.22 155
0.23 -0.02 0.57 -4.99 13.53 3.66 1.69 0.28 161
0.17 -0.01 0.71 -5.60 14.21 3.80 1.75 0.37 167
0.15 -0.02 -0.03 -6.06 13.63 3.83 1.78 0.50 174
0.12 -0.01 -0.04 -7.20 12.86 3.74 1.98 0.69 180
0.09 -0.01 0.58 -8.00 17.20 3.64 2.00 0.80 186
0.08 -0.01 1.87 -8.81 18.63 3.77 2.24 0.88 192
0.07 -0.01 1.78 -9.16 20.55 3.97 2.42 0.93 198
0.06 -0.01 1.03 -9.21 19.62 4.15 2.53 1.02 204
0.07 -0.01 0.54 -9.18 19.41 4.22 2.47 1.11 211
0.07 -0.01 0.17 -8.83 18.88 4.25 2.42 1.21 218
0.05 -0.01 1.03 -8.80 18.88 4.24 2.42 1.32 224
0.05 -0.01 2.30 -8.22 18.96 4.21 2.64 1.40 230
0.04 -0.00 2.90 -7.20 18.60 4.19 3.03 1.42 236
0.04 0.00 2.56 -6.33 19.73 4.14 3.37 1.37 242
0.04 -0.00 1.41 -4.82 19.44 4.05 3.66 1.28 248
0.05 -0.01 -0.30 -3.05 19.72 3.99 3.78 1.13 254
0.05 -0.01 -1.93 -1.64 18.65 3.84 3.70 0.98 261
0.05 0.00 -3.74 0.36 18.30 3.69 3.46 0.86 268
0.04 -0.00 -5.51 2.77 17.81 3.42 2.90 0.74 274
0.05 -0.00 -8.27 5.65 16.72 3.09 2.07 0.60 280
0.04 -0.00 -14.19 9.30 11.68 2.79 1.25 0.17 286
0.05 -0.01 -12.45 11.96 7.94 2.36 -0.67 -1.02 292
0.04 -0.00 -11.42 12.28 11.63 0.77 -2.53 -1.93 299
0.03 -0.00 -7.09 13.04 12.93 -1.03 -2.92 -2.51 305
0.04 -0.00 -2.85 9.09 16.72 -2.03 -2.98 -3.02 312
0.04 0.00 -1.57 4.94 16.47 -2.51 -2.87 -3.59 318
0.04 -0.00 -1.06 3.53 15.22 -2.77 -2.50 -4.04 324
0.04 0.01 -0.35 3.63 13.04 -2.88 -1.98 -4.28 330
0.04 -0.00 0.17 3.87 11.16 -2.93 -1.52 -4.28 336
0.04 -0.00 0.26 4.24 10.71 -3.04 -1.27 -4.28 343
0.03 -0.00 -0.03 4.70 9.77 -3.14 -1.23 -4.28 349
0.04 -0.00 -0.02 5.13 9.86 -3.33 -1.33 -4.28 355
0.05 -0.01 0.30 4.62 11.02 -3.54 -1.58 -4.28 361
0.05 -0.00 0.92 3.73 10.73 -3.76 -1.87 -4.28 368
0.02 -0.00 0.55 2.77 11.05 -3.96 -2.07 -4.28 374
0.03 0.00 0.82 1.88 12.10 -4.09 -2.02 -4.16 380
0.03 -0.00 2.77 2.32 13.08 -4.18 -2.18 -3.71 387
0.04 -0.00 4.16 2.04 13.64 -4.25 -2.56 -3.33 393
0.02 -0.00 4.61 1.19 14.06 -4.28 -2.83 -2.96 399
0.05 0.00 5.26 0.31 13.75 -4.28 -3.06 -2.66 405
0.05 -0.01 6.27 -0.67 13.71 -4.28 -3.22 -2.30 411
0.05 -0.00 7.47 -1.61 13.89 -4.28 -3.29 -1.97 418
0.05 -0.01 8.38 -2.45 13.72 -4.28 -3.28 -1.68 424
0.05 -0.01 9.37 -3.27 13.28 -4.28 -3.12 -1.41 431
0.04 -0.00 10.79 -4.12 12.76 -4.28 -2.90 -1.16 437
0.03 -0.00 11.29 -4.94 12.24 -4.28 -2.62 -0.95 443
0.04 0.00 12.17 -5.42 12.05 -4.28 -2.22 -0.75 449
0.04 -0.00 12.93 -5.88 12.17 -4.28 -1.80 -0.56 455
0.04 -0.00 13.15 -6.18 12.20 -4.27 -1.36 -0.40 462
0.05 0.01 13.23 -6.55 12.54 -4.22 -0.92 -0.19 468
0.05 -0.01 13.32 -7.10 12.97 -4.14 -0.50 0.05 475
0.04 -0.00 13.12 -7.83 13.30 -4.05 -0.14 0.30 481
0.04 -0.00 12.75 -8.60 13.62 -3.91 0.17 0.56 487
0.04 -0.00 12.37 -9.35 13.82 -3.78 0.45 0.83 493
0.05 -0.00 12.00 -9.97 13.78 -3.59 0.69 1.08 500
0.04 -0.00 11.78 -10.62 13.65 -3.38 0.86 1.29 506
0.04 -0.00 11.40 -11.06 13.43 -3.15 1.06 1.46 513
0.03 -0.00 11.06 -11.40 13.38 -2.91 1.26 1.60 519
0.04 -0.00 10.62 -11.55 13.47 -2.67 1.48 1.66 525
0.04 -0.00 10.31 -11.58 13.86 -2.44 1.70 1.72 532
0.02 -0.00 9.83 -11.48 14.25 -2.24 1.91 1.75 538
0.05 -0.00 9.25 -11.24 14.56 -2.07 2.09 1.76 544
0.05 -0.00 8.66 -11.06 14.79 -1.94 2.23 1.73 550
0.04 -0.00 7.92 -10.93 14.86 -1.84 2.33 1.67 557
0.04 -0.00 7.23 -10.85 14.66 -1.77 2.38 1.57 563
0.04 -0.00 6.60 -10.78 14.34 -1.68 2.40 1.43 570
0.04 -0.00 6.10 -10.74 14.08 -1.58 2.40 1.24 576
0.02 -0.00 5.58 -10.77 13.84 -1.46 2.41 1.02 582
0.05 0.00 5.05 -10.91 13.71 -1.32 2.44 0.78 588
0.04 -0.00 4.54 -11.17 13.52 -1.16 2.50 0.56 594
0.04 -0.00 3.98 -11.46 13.44 -0.99 2.58 0.30 601
0.04 0.01 3.48 -11.64 13.50 -0.84 2.68 0.03 608
0.04 -0.00 3.17 -11.77 13.57 -0.70 2.81 -0.21 614
0.04 -0.00 2.86 -11.85 13.65 -0.59 2.98 -0.45 620
0.04 -0.00 2.42 -11.73 13.87 -0.53 3.18 -0.65 626
0.04 -0.00 1.90 -11.44 14.43 -0.49 3.38 -0.81 632
0.04 -0.00 1.53 -11.03 15.61 -0.51 3.53 -0.92 638
0.04 -0.00 0.99 -10.67 16.56 -0.63 3.67 -0.99 646
0.05 -0.00 0.20 -10.24 17.02 -0.84 3.78 -1.02 652
0.04 -0.00 -0.46 -9.86 16.92 -1.10 3.82 -1.02 658
0.04 -0.00 -1.21 -9.62 16.30 -1.37 3.75 -0.99 664
0.04 -0.00 -1.84 -9.81 15.52 -1.63 3.56 -0.95 670
0.05 -0.00 -2.39 -9.99 14.27 -1.82 3.32 -0.90 676
0.04 -0.00 -2.82 -10.40 13.08 -1.91 3.04 -0.84 683
0.04 -0.00 -3.39 -10.77 11.68 -1.93 2.87 -0.79 689
0.04 -0.00 -4.13 -10.78 10.38 -1.85 2.70 -0.71 696
0.04 -0.00 -5.12 -10.76 9.60 -1.67 2.65 -0.64 702
0.04 -0.00 -6.02 -10.96 9.03 -1.42 2.70 -0.49 708
0.04 -0.00 -6.88 -11.18 8.98 -1.17 2.68 -0.32 714
0.06 -0.01 -7.89 -11.58 9.11 -0.92 2.47 -0.21 720
0.04 -0.00 -8.71 -11.93 9.17 -0.76 2.09 -0.17 727
0.04 -0.00 -9.09 -12.27 8.98 -0.60 1.63 -0.16 733
0.04 -0.00 -9.15 -12.53 8.76 -0.48 1.22 -0.15 739
0.06 -0.01 -10.02 -13.41 10.55 -0.34 0.72 -0.12 746
0.04 -0.00 -11.90 -14.91 9.55 -0.12 0.12 -0.04 752
0.04 -0.00 -20.67 -16.42 14.65 0.62 -1.56 0.27 758
0.05 -0.00 -16.88 -16.08 9.38 0.80 -2.65 0.56 764
0.05 -0.00 -15.99 -13.69 7.14 1.10 -4.18 0.83 771
0.05 -0.00 -0.33 -6.25 5.90 1.17 -4.28 0.85 777
0.04 0.00 1.13 -4.24 7.25 1.13 -4.28 0.69 783
0.03 -0.00 3.45 -0.20 12.78 1.27 -4.28 0.75 790
0.04 -0.00 5.36 4.71 14.43 1.30 -4.27 0.94 796
0.02 -0.00 4.55 8.22 16.38 1.27 -3.63 1.22 802
0.05 0.01 1.98 6.55 16.51 1.23 -2.76 1.48 808
0.05 0.01 -0.98 3.74 11.59 1.21 -2.01 1.54 815
0.03 0.08 -3.56 2.99 8.19 1.34 -1.65 1.41 821
0.04 0.17 -6.85 1.22 10.27 1.63 -1.46 1.12 827
0.03 0.25 -9.30 0.47 11.32 1.97 -1.41 0.70 833
0.03 0.27 -8.94 0.23 11.06 2.32 -1.52 0.13 840
0.02 0.37 -6.32 -0.19 13.22 2.54 -1.66 -0.45 846
0.03 0.33 -2.23 -0.86 15.68 2.56 -1.65 -0.81 852
0.03 0.33 3.86 -2.56 18.95 2.40 -1.59 -0.97 859
0.02 0.32 6.72 -4.19 27.79 1.46 -2.22 -0.67 865
0.03 0.38 4.73 -2.57 10.75 0.53 -1.19 0.03 872
0.03 0.37 0.71 -1.73 13.46 0.36 -0.64 0.23 878
0.01 0.41 1.14 -1.95 10.99 0.14 -0.25 0.25 884
0.03 0.41 -0.01 -0.76 10.60 0.16 -0.29 0.26 890
0.02 0.43 -0.10 -0.56 10.47 0.14 -0.36 0.13 897
0.03 0.42 0.87 -0.71 10.12 0.07 -0.27 0.07 903
0.04 0.42 0.74 -0.79 10.09 0.03 -0.18 0.06 909
0.04 0.50 1.01 -1.11 9.89 0.01 -0.15 0.06 916
0.03 0.53 0.81 -0.90 10.08 0.00 -0.16 0.05 922
0.02 0.51 0.88 -0.70 9.93 -0.00 -0.17 0.04 928
0.03 0.54 0.74 -0.80 10.06 -0.01 -0.17 0.03 934
0.03 0.59 0.81 -0.74 9.91 -0.03 -0.17 0.01 941
0.04 0.61 0.73 -0.75 9.98 -0.04 -0.18 0.00 947
0.02 0.69 0.84 -0.66 10.04 -0.04 -0.19 -0.00 953
0.03 0.76 0.91 -0.66 9.89 -0.04 -0.19 -0.01 959
0.05 0.70 0.75 -0.69 10.12 -0.04 -0.20 -0.02 965
0.07 0.70 0.89 -0.83 10.05 -0.04 -0.20 -0.01 972
0.06 0.74 0.68 -0.80 9.94 -0.04 -0.19 -0.01 978
0.05 0.74 0.64 -0.76 10.35 -0.03 -0.18 -0.01 985
0.06 0.76 0.63 -0.71 10.10 -0.03 -0.15 -0.00 991
0.06 0.77 0.68 -0.77 10.02 -0.03 -0.13 0.01 997
0.06 0.76 0.60 -0.78 10.13 -0.02 -0.11 0.03 1003
0.05 0.76 0.67 -0.76 10.07 -0.01 -0.10 0.03 1009
0.06 0.75 0.73 -0.75 10.26 -0.01 -0.09 0.04 1016
0.05 0.77 0.72 -0.73 10.00 -0.01 -0.09 0.04 1022
0.07 0.74 0.76 -0.73 10.04 -0.00 -0.09 0.03 1029
0.06 0.74 0.73 -0.71 10.03 -0.00 -0.09 0.04 1035
0.06 0.74 0.73 -0.73 10.00 -0.00 -0.09 0.03 1041
0.06 0.71 0.69 -0.73 10.00 -0.00 -0.09 0.03 1048
0.06 0.70 0.69 -0.67 10.09 -0.00 -0.10 0.03 1054
0.07 0.67 0.75 -0.68 9.99 -0.01 -0.10 0.02 1060
0.09 0.61 0.65 -0.72 9.96 -0.00 -0.10 0.02 1067
0.08 0.59 0.68 -0.70 10.03 -0.00 -0.10 0.02 1073
0.08 0.55 0.62 -0.71 10.02 0.00 -0.09 0.02 1079
0.09 0.51 0.67 -0.73 10.03 0.00 -0.09 0.03 1086
0.11 0.43 0.64 -0.72 10.11 0.01 -0.09 0.03 1092
0.09 0.44 0.66 -0.76 10.03 0.01 -0.09 0.03 1098
0.12 0.44 0.68 -0.75 9.96 0.01 -0.09 0.03 1104
0.13 0.35 0.69 -0.75 10.04 0.01 -0.09 0.03 1111
0.13 0.35 0.67 -0.76 10.04 0.00 -0.08 0.02 1117
0.14 0.35 0.68 -0.71 10.00 0.00 -0.08 0.03 1124
0.14 0.37 0.64 -0.71 10.06 0.01 -0.08 0.02 1130
0.15 0.28 0.63 -0.75 10.04 0.01 -0.08 0.03 1136
0.17 0.31 0.62 -0.73 10.02 0.01 -0.07 0.02 1142
0.17 0.28 0.63 -0.76 10.02 0.01 -0.07 0.02 1148
0.19 0.27 0.57 -0.74 10.03 0.01 -0.06 0.03 1156
0.21 0.21 0.55 -0.78 9.98 0.01 -0.06 0.03 1162
0.20 0.21 0.63 -0.75 10.01 0.01 -0.06 0.03 1168
0.20 0.19 0.63 -0.75 9.98 0.01 -0.06 0.03 1174
0.23 0.19 0.58 -0.78 9.98 0.01 -0.06 0.03 1180
0.25 0.20 0.68 -0.79 9.99 0.01 -0.06 0.03 1186
0.26 0.12 0.62 -0.75 10.04 0.00 -0.06 0.03 1192
0.26 0.13 0.67 -0.77 9.97 0.01 -0.05 0.03 1200
0.29 0.12 0.64 -0.75 10.02 0.00 -0.06 0.03 1206
0.29 0.11 0.66 -0.78 10.07 0.01 -0.05 0.02 1212
0.28 0.09 0.66 -0.77 10.00 0.00 -0.05 0.02 1218
0.31 0.08 0.60 -0.74 9.99 0.01 -0.05 0.02 1224
0.33 0.04 0.58 -0.69 10.05 0.01 -0.04 0.02 1230
0.31 0.05 0.62 -0.73 10.04 0.02 -0.04 0.02 1238
0.34 0.05 0.75 -0.81 10.07 0.02 -0.05 0.02 1244
0.36 -0.03 0.54 -0.80 9.97 0.02 -0.05 0.02 1250
0.39 0.00 0.48 -0.75 10.10 0.02 -0.04 0.02 1256
0.39 0.01 0.68 -0.74 10.03 0.01 -0.05 0.03 1262
0.44 -0.01 0.60 -0.77 9.99 0.02 -0.04 0.03 1268
0.42 -0.04 0.60 -0.79 10.03 0.02 -0.04 0.03 1275
0.41 -0.00 0.64 -0.86 10.02 0.02 -0.04 0.03 1282
0.49 -0.03 0.67 -0.78 10.09 0.02 -0.04 0.03 1288
0.43 0.00 0.59 -0.77 10.06 0.03 -0.04 0.04 1294
0.47 -0.02 0.62 -0.81 10.02 0.03 -0.04 0.03 1300
0.53 0.00 0.52 -0.77 10.00 0.04 -0.03 0.04 1306
0.53 -0.02 0.62 -0.75 10.05 0.04 -0.03 0.04 1313
0.56 -0.04 0.59 -0.83 10.04 0.05 -0.03 0.04 1319
0.63 -0.02 0.62 -0.81 10.07 0.06 -0.03 0.04 1326
0.62 -0.04 0.62 -0.84 10.03 0.07 -0.03 0.04 1332
0.61 -0.03 0.58 -0.80 10.05 0.08 -0.03 0.04 1338
0.60 -0.04 0.68 -1.01 10.06 0.09 -0.03 0.04 1345
0.60 -0.04 0.61 -0.70 10.13 0.09 -0.03 0.05 1351
0.66 -0.04 0.59 -0.79 10.03 0.10 -0.03 0.04 1357
0.72 -0.04 0.63 -0.88 10.06 0.11 -0.03 0.05 1363
0.76 -0.06 0.58 -0.87 10.06 0.12 -0.03 0.05 1370
0.76 -0.04 0.59 -0.88 10.11 0.13 -0.03 0.05 1376
0.81 -0.05 0.63 -0.90 10.10 0.14 -0.02 0.05 1383
0.80 -0.06 0.61 -0.88 10.08 0.16 -0.02 0.05 1389
0.82 -0.04 0.65 -0.94 10.10 0.18 -0.02 0.05 1395
0.91 -0.05 0.74 -0.95 10.02 0.19 -0.02 0.05 1401
0.92 -0.05 0.70 -0.88 10.09 0.21 -0.01 0.04 1408
0.94 -0.05 0.66 -0.93 10.20 0.24 -0.00 0.04 1415
0.96 -0.05 0.64 -1.05 10.18 0.28 0.01 0.04 1421
0.97 -0.05 0.64 -1.08 10.20 0.33 0.01 0.04 1427
0.99 -0.04 0.64 -1.03 10.34 0.39 0.01 0.04 1433
1.02 -0.05 0.77 -1.15 10.42 0.47 0.01 0.03 1439
1.03 -0.05 0.71 -1.15 10.30 0.55 -0.00 0.03 1446
1.06 -0.04 0.81 -1.21 10.35 0.61 -0.01 0.01 1453
1.07 -0.04 0.80 -1.31 10.47 0.67 -0.01 -0.00 1459
1.12 -0.06 -0.14 -1.51 11.22 0.73 -0.04 -0.01 1465
1.13 -0.04 0.79 -1.42 10.42 0.79 -0.05 -0.03 1471
1.17 -0.04 0.76 -1.48 10.72 0.85 -0.05 -0.04 1478
1.20 -0.05 0.77 -1.55 10.65 0.91 -0.05 -0.05 1484
1.25 -0.05 0.85 -1.60 10.70 0.97 -0.05 -0.05 1490
1.29 -0.06 0.88 -1.68 10.82 1.04 -0.04 -0.06 1497
1.31 -0.05 0.79 -1.74 10.85 1.11 -0.03 -0.08 1503
1.33 -0.06 0.77 -1.82 10.74 1.18 -0.01 -0.09 1510
1.36 -0.05 0.81 -2.44 10.56 1.25 0.03 -0.10 1516
1.35 -0.05 0.65 -1.93 10.51 1.32 0.10 -0.10 1522
1.38 -0.06 0.58 -2.04 10.74 1.40 0.17 -0.10 1528
1.36 -0.06 0.66 -2.17 10.85 1.48 0.25 -0.09 1536
1.32 -0.04 0.66 -2.25 11.63 1.60 0.33 -0.09 1542
1.29 -0.06 0.50 -2.29 11.07 1.71 0.42 -0.09 1548
1.21 -0.06 0.39 -2.40 11.69 1.85 0.52 -0.07 1554
1.16 -0.04 0.34 -2.48 12.07 2.03 0.59 -0.04 1560
1.08 -0.05 0.91 -2.77 12.31 2.24 0.68 -0.02 1567
0.99 -0.05 1.31 -2.88 11.99 2.44 0.77 -0.04 1573
0.93 -0.04 0.97 -2.96 12.00 2.63 0.90 -0.06 1580
0.86 -0.05 0.49 -3.10 12.28 2.83 1.04 -0.05 1586
0.71 -0.04 0.17 -3.41 12.85 3.05 1.24 0.02 1592
0.54 -0.04 0.35 -3.65 12.94 3.24 1.44 0.10 1599
0.38 -0.04 0.65 -3.80 13.29 3.46 1.60 0.15 1605
0.28 -0.02 0.14 -4.24 13.62 3.65 1.71 0.21 1611
0.21 -0.02 0.54 -4.60 14.19 3.84 1.79 0.28 1617
0.16 -0.02 0.27 -5.13 14.71 3.99 1.80 0.37 1624
0.16 -0.01 0.27 -5.89 13.63 4.01 1.77 0.55 1631
0.11 -0.01 0.42 -7.00 15.55 3.92 1.69 0.65 1637
0.10 -0.01 2.28 -8.15 18.56 3.98 1.77 0.71 1643
0.09 -0.01 3.09 -8.64 21.20 4.12 2.00 0.69 1649
0.09 -0.00 2.79 -9.00 21.89 4.24 2.22 0.71 1655
0.07 -0.01 3.37 -9.79 22.55 4.28 2.42 0.75 1661
0.06 -0.01 3.38 -9.25 22.49 4.28 2.57 0.81 1669
0.06 -0.01 4.72 -8.67 20.80 4.28 2.88 0.91 1675
0.05 -0.01 7.02 -8.40 20.76 4.28 3.39 0.99 1681
0.04 -0.00 6.19 -7.93 21.28 4.27 3.97 0.92 1687
0.05 -0.01 4.82 -6.52 20.92 4.26 4.28 0.82 1693
0.06 -0.01 1.37 -4.98 20.86 4.22 4.28 0.62 1699
0.04 -0.00 -1.51 -2.91 20.37 4.18 4.28 0.41 1707
0.05 0.01 -3.60 -0.33 19.37 4.14 4.16 0.18 1713
0.04 -0.00 -5.96 2.99 17.93 3.95 3.42 -0.03 1719
0.04 -0.00 -6.23 5.34 15.97 3.64 2.47 -0.15 1725
0.04 0.00 -6.79 9.52 12.13 3.24 1.34 -0.15 1731
0.04 -0.00 -12.37 16.63 5.88 2.95 0.04 -0.46 1738
0.03 -0.00 -7.06 12.19 8.81 2.25 -2.16 -0.98 1744
0.05 -0.00 -5.95 13.66 11.14 0.54 -3.46 -1.13 1751
0.05 -0.01 -2.05 13.24 14.85 -0.86 -3.70 -1.22 1757
0.04 -0.00 -0.06 9.35 16.43 -1.50 -3.64 -1.47 1763
0.04 -0.00 1.45 6.64 15.25 -1.78 -3.34 -1.88 1770
0.03 -0.00 1.93 5.53 13.28 -1.93 -2.85 -2.26 1776
0.03 -0.00 2.05 5.54 10.74 -2.02 -2.22 -2.68 1782
0.04 -0.00 1.78 6.01 9.68 -2.12 -1.64 -3.01 1788
0.04 -0.00 1.54 6.33 8.85 -2.29 -1.27 -3.25 1795
0.04 -0.00 1.07 6.37 8.79 -2.56 -1.11 -3.43 1801
0.03 -0.00 0.76 6.25 9.22 -2.78 -1.12 -3.55 1807
0.03 -0.00 0.72 5.93 9.47 -3.06 -1.27 -3.61 1813
0.03 -0.00 0.91 4.94 9.70 -3.34 -1.49 -3.62 1820
0.03 -0.00 1.08 4.73 10.20 -3.59 -1.76 -3.56 1826
0.03 -0.00 1.31 3.51 10.34 -3.78 -1.97 -3.42 1832
0.04 -0.00 2.08 2.34 10.62 -3.95 -2.08 -3.21 1839
0.04 -0.00 3.55 2.14 11.34 -4.08 -2.20 -3.04 1845
0.05 -0.00 4.65 1.82 12.17 -4.18 -2.40 -2.89 1851
0.06 -0.01 5.59 0.63 12.57 -4.25 -2.59 -2.71 1858
0.04 -0.00 6.73 -0.61 12.58 -4.28 -2.70 -2.49 1864
0.04 -0.00 7.63 -1.54 12.74 -4.28 -2.74 -2.27 1870
0.05 -0.01 8.50 -2.31 12.97 -4.28 -2.75 -2.05 1876
0.04 -0.00 9.05 -3.67 12.79 -4.28 -2.73 -1.85 1883
0.03 -0.00 9.68 -4.11 12.58 -4.28 -2.67 -1.70 1889
0.05 -0.01 10.38 -5.05 11.73 -4.28 -2.56 -1.54 1896
0.07 -0.01 11.11 -5.87 11.75 -4.28 -2.43 -1.40 1902
0.03 0.01 13.05 -6.67 12.43 -4.28 -2.14 -1.27 1908
0.04 -0.00 13.58 -7.24 11.05 -4.28 -1.81 -1.12 1914
0.04 -0.00 14.14 -7.29 11.84 -4.26 -1.44 -0.97 1922
0.03 -0.00 14.68 -7.94 12.37 -4.20 -0.99 -0.80 1928
0.05 -0.00 14.76 -8.71 12.60 -4.10 -0.48 -0.64 1934
0.05 -0.00 14.51 -9.60 13.15 -3.95 0.03 -0.47 1940
0.04 -0.00 14.02 -10.28 13.88 -3.76 0.51 -0.26 1947
0.03 -0.00 13.54 -10.87 14.21 -3.56 0.93 -0.02 1953
0.05 -0.00 12.82 -11.43 14.73 -3.35 1.26 0.26 1959
0.04 -0.00 12.18 -11.93 14.80 -3.16 1.52 0.56 1966
0.03 -0.00 11.46 -12.27 14.86 -2.96 1.69 0.88 1973
0.05 -0.01 10.84 -12.47 14.82 -2.76 1.80 1.18 1979
0.04 -0.00 10.37 -12.55 14.68 -2.57 1.87 1.46 1985
0.04 -0.00 10.02 -12.56 14.26 -2.38 1.94 1.70 1991
0.05 -0.00 9.68 -12.53 13.76 -2.18 2.02 1.88 1998
0.05 -0.00 9.17 -12.50 13.21 -1.98 2.10 2.01 2004
0.07 -0.01 8.49 -12.52 12.69 -1.76 2.22 2.08 2011
0.04 -0.00 7.81 -12.67 12.38 -1.55 2.34 2.09 2017
0.04 -0.00 7.08 -12.83 12.27 -1.29 2.45 2.02 2023
0.04 -0.00 6.29 -12.93 12.49 -1.04 2.56 1.90 2030
0.04 -0.00 5.67 -12.82 12.82 -0.80 2.64 1.73 2036
0.04 0.00 5.05 -12.55 13.65 -0.60 2.67 1.54 2042
0.03 -0.00 4.64 -12.33 14.37 -0.48 2.73 1.33 2049
0.03 -0.00 4.24 -12.18 15.02 -0.43 2.81 1.12 2056
0.04 0.00 3.96 -11.91 15.68 -0.46 2.93 0.93 2062
0.04 -0.00 3.80 -11.63 16.15 -0.56 3.06 0.75 2068
0.03 -0.00 3.44 -11.44 16.37 -0.72 3.20 0.64 2074
0.05 -0.00 2.79 -11.30 16.33 -0.92 3.29 0.53 2080
0.03 -0.00 1.91 -11.01 15.83 -1.12 3.33 0.46 2087
0.03 -0.00 1.03 -10.78 14.93 -1.30 3.29 0.41 2094
0.04 -0.00 0.21 -10.71 13.86 -1.43 3.20 0.39 2100
0.04 -0.00 -0.43 -10.84 12.96 -1.50 3.06 0.39 2106
0.04 0.00 -1.03 -10.92 12.15 -1.50 2.88 0.39 2112
0.03 -0.00 -1.47 -11.17 11.72 -1.45 2.67 0.39 2119
0.02 -0.00 -1.75 -11.19 11.35 -1.36 2.47 0.37 2125
0.03 -0.00 -1.90 -11.27 11.09 -1.27 2.28 0.35 2131
0.03 -0.00 -1.95 -11.39 10.82 -1.11 2.12 0.32 2138
0.02 -0.00 -2.15 -11.43 10.58 -1.02 1.97 0.30 2145
0.04 -0.00 -2.38 -11.33 10.57 -0.91 1.84 0.29 2151
0.03 -0.00 -2.79 -11.05 10.52 -0.82 1.73 0.29 2157
0.03 -0.00 -3.27 -10.75 10.41 -0.74 1.64 0.33 2163
0.04 -0.00 -3.90 -10.65 10.62 -0.66 1.65 0.40 2169
0.03 -0.00 -4.43 -10.65 10.81 -0.60 1.63 0.50 2177
0.04 -0.00 -4.92 -10.81 10.70 -0.55 1.59 0.63 2183
0.04 -0.00 -5.32 -11.10 10.48 -0.51 1.49 0.71 2189
0.04 -0.00 -5.64 -11.45 10.18 -0.46 1.32 0.79 2195
0.04 -0.00 -5.60 -12.01 9.63 -0.40 1.11 0.86 2201
0.04 -0.00 -5.44 -12.71 8.91 -0.32 0.90 0.90 2208
0.04 -0.00 -9.57 -15.61 9.94 -0.04 0.44 0.99 2214
0.05 0.00 -14.79 -17.56 17.43 0.76 -0.93 1.28 2221
0.04 -0.00 -15.68 -18.04 11.19 1.16 -1.90 1.62 2227
0.03 -0.00 -14.53 -16.74 4.25 1.54 -2.90 1.94 2234
0.05 -0.01 -10.03 -15.57 3.64 1.82 -3.78 2.16 2240
0.04 -0.00 0.74 -5.76 5.16 1.97 -4.23 2.11 2246
0.03 -0.00 1.89 -3.00 8.92 2.01 -4.25 2.06 2252
0.03 0.01 3.18 -0.18 12.69 2.01 -4.13 2.16 2258
0.03 0.01 3.02 6.95 15.50 1.85 -3.81 2.34 2265
0.03 0.06 -0.47 8.13 16.96 1.69 -3.15 2.44 2272
0.04 0.17 -5.87 6.40 13.76 1.68 -2.12 2.28 2278
0.02 0.31 -11.18 2.61 12.78 1.86 -1.45 1.85 2284
0.02 0.45 -13.54 0.30 14.75 2.13 -1.23 1.19 2290
0.02 0.56 -14.03 -1.06 15.23 2.38 -1.22 0.32 2297
0.02 0.62 -10.75 0.33 15.55 2.52 -1.31 -0.61 2304
0.02 0.66 -1.57 -1.74 18.89 2.53 -1.44 -1.25 2310
0.01 0.62 7.62 -1.94 26.92 2.17 -1.99 -1.21 2316
0.02 0.65 8.39 -4.72 13.89 1.00 -2.23 -0.44 2323
0.01 0.64 3.99 -2.85 12.92 0.83 -1.56 0.09 2329
-0.00 0.65 1.89 -2.63 10.85 0.63 -1.17 0.18 2335
0.02 0.64 0.74 -1.06 11.21 0.60 -1.18 0.25 2341
0.02 0.64 -0.16 -0.28 12.27 0.46 -1.13 0.15 2349
0.02 0.67 0.18 -0.51 11.49 0.24 -0.79 0.05 2355
0.02 0.69 0.75 -0.61 10.56 0.10 -0.51 0.03 2361
0.02 0.71 1.06 -0.63 9.60 0.03 -0.35 0.03 2367
0.00 0.73 0.82 -1.01 10.14 -0.00 -0.25 0.04 2373
0.01 0.78 0.59 -0.81 10.23 -0.02 -0.18 0.04 2379
0.02 0.77 0.56 -0.79 10.09 -0.02 -0.12 0.03 2386
0.00 0.83 0.67 -0.89 10.15 -0.02 -0.09 0.03 2393
0.04 0.79 0.76 -0.87 10.15 -0.01 -0.07 0.04 2399
0.02 0.79 0.84 -0.82 10.07 -0.01 -0.06 0.05 2405
0.03 0.79 0.78 -0.80 10.13 0.00 -0.05 0.05 2411
0.04 0.76 0.81 -0.73 9.94 0.00 -0.05 0.06 2418
0.02 0.73 0.83 -0.73 10.04 0.01 -0.04 0.06 2424
0.02 0.69 0.81 -0.72 10.01 0.01 -0.04 0.06 2430
0.03 0.67 0.90 -0.75 9.94 0.01 -0.04 0.06 2437
0.03 0.66 0.91 -0.73 9.96 0.01 -0.05 0.06 2443
0.01 0.63 0.89 -0.77 9.93 0.01 -0.05 0.05 2449
0.04 0.60 0.87 -0.74 9.99 0.01 -0.06 0.04 2455
0.05 0.55 0.90 -0.72 10.03 0.01 -0.06 0.03 2462
0.04 0.51 0.90 -0.74 9.98 0.01 -0.07 0.03 2468
0.05 0.48 0.83 -0.78 10.00 0.01 -0.06 0.03 2475
0.06 0.45 0.82 -0.75 9.95 0.01 -0.06 0.03 2481
0.03 0.40 0.84 -0.72 9.98 0.02 -0.05 0.03 2487
0.04 0.38 0.81 -0.71 10.04 0.02 -0.04 0.03 2493
0.06 0.31 0.81 -0.71 9.99 0.02 -0.04 0.04 2499
0.06 0.33 0.83 -0.75 10.00 0.02 -0.04 0.04 2506
0.07 0.27 0.86 -0.75 10.01 0.03 -0.03 0.04 2512
0.08 0.26 0.85 -0.76 9.99 0.03 -0.03 0.04 2519
0.09 0.21 0.86 -0.77 9.94 0.03 -0.03 0.04 2525
0.07 0.20 0.84 -0.78 10.03 0.03 -0.04 0.04 2531
0.08 0.20 0.87 -0.71 9.89 0.03 -0.04 0.04 2537
0.12 0.19 0.85 -0.77 9.97 0.03 -0.05 0.04 2544
0.11 0.15 0.86 -0.78 9.98 0.03 -0.05 0.04 2550
0.10 0.13 0.89 -0.78 9.98 0.02 -0.06 0.04 2556
0.11 0.11 0.88 -0.80 9.98 0.02 -0.06 0.03 2563
0.12 0.09 0.84 -0.79 9.99 0.02 -0.07 0.03 2569
0.12 0.08 0.88 -0.83 9.96 0.02 -0.08 0.02 2575
0.12 0.06 0.87 -0.82 9.97 0.02 -0.10 0.02 2581
0.14 0.09 0.85 -0.83 9.99 0.02 -0.10 0.02 2587
0.13 0.04 0.84 -0.79 10.00 0.01 -0.10 0.02 2594
0.13 0.03 0.87 -0.82 10.01 0.01 -0.10 0.02 2600
0.16 0.03 0.86 -0.80 9.99 0.01 -0.10 0.01 2607
0.18 0.02 0.75 -0.81 10.02 0.01 -0.09 0.01 2613
0.18 0.02 0.79 -0.86 10.00 0.01 -0.08 0.02 2619
0.22 0.02 0.80 -0.87 10.03 0.01 -0.08 0.02 2626
0.23 0.01 0.82 -0.81 10.03 0.02 -0.07 0.02 2632
0.28 -0.03 0.71 -0.76 10.07 0.02 -0.06 0.02 2638
0.27 -0.01 0.99 -0.84 10.03 0.02 -0.06 0.02 2644
0.28 -0.02 0.74 -0.75 9.97 0.02 -0.05 0.02 2651
0.29 -0.03 0.79 -0.82 10.07 0.03 -0.04 0.02 2657
0.33 -0.03 0.77 -0.86 10.03 0.03 -0.04 0.03 2663
0.37 -0.03 0.80 -0.80 10.07 0.04 -0.03 0.03 2670
0.35 -0.04 0.78 -0.87 10.02 0.04 -0.03 0.03 2676
0.35 -0.03 0.76 -0.99 10.01 0.05 -0.02 0.03 2682
0.35 -0.02 0.81 -0.72 9.98 0.06 -0.02 0.04 2689
0.38 -0.03 0.78 -0.82 9.96 0.07 -0.01 0.04 2695
0.39 -0.04 0.79 -0.85 10.02 0.07 -0.01 0.04 2701
0.39 -0.03 0.76 -0.92 10.05 0.08 -0.01 0.04 2707
0.42 -0.03 0.78 -0.91 10.06 0.09 -0.01 0.04 2714
0.43 -0.04 0.83 -0.90 10.01 0.09 -0.01 0.04 2720
0.44 -0.03 0.79 -0.94 10.06 0.10 -0.00 0.04 2726
0.49 -0.03 0.85 -0.96 10.03 0.11 -0.01 0.04 2733
0.51 -0.03 0.80 -0.89 10.03 0.12 -0.01 0.04 2739
0.50 -0.03 0.74 -0.91 10.03 0.12 -0.01 0.04 2746
0.52 -0.04 0.85 -0.96 10.01 0.13 -0.00 0.04 2752
0.53 -0.04 0.86 -0.98 10.06 0.13 -0.00 0.04 2758
0.54 -0.03 0.86 -0.99 9.90 0.13 0.00 0.03 2764
0.57 -0.04 0.86 -0.97 9.99 0.14 0.00 0.03 2770
0.59 -0.04 0.84 -1.03 10.01 0.14 0.00 0.03 2777
0.58 -0.04 0.88 -1.02 10.01 0.15 0.01 0.02 2784
0.60 -0.03 0.88 -1.03 10.05 0.16 0.01 0.02 2790
0.60 -0.04 0.92 -1.04 10.02 0.18 0.01 0.02 2796
0.60 -0.04 0.91 -1.07 10.10 0.19 0.01 0.01 2802
0.62 -0.03 0.87 -1.10 10.08 0.22 0.01 0.01 2808
0.63 -0.04 0.87 -1.12 10.05 0.24 0.01 0.00 2814
0.64 -0.04 0.89 -1.13 10.11 0.26 0.01 -0.00 2822
0.68 -0.03 0.91 -1.16 10.04 0.29 0.02 -0.01 2828
0.70 -0.04 0.98 -1.15 10.10 0.32 0.02 -0.01 2834
0.74 -0.05 0.90 -1.20 10.12 0.34 0.03 -0.02 2840
0.74 -0.03 0.94 -1.19 10.16 0.38 0.04 -0.03 2846
0.74 -0.04 1.00 -1.26 10.20 0.42 0.04 -0.03 2853
0.78 -0.04 0.99 -1.30 10.30 0.46 0.03 -0.04 2860
0.81 -0.03 0.97 -1.36 10.29 0.52 0.03 -0.05 2866
0.84 -0.04 0.97 -1.44 10.43 0.57 0.03 -0.05 2872
0.89 -0.04 1.01 -1.43 10.47 0.63 0.02 -0.06 2878
0.92 -0.03 1.01 -1.54 10.53 0.68 0.01 -0.06 2885
0.94 -0.06 0.99 -1.52 10.62 0.77 0.01 -0.07 2891
0.97 -0.04 1.00 -1.58 10.74 0.81 -0.00 -0.07 2897
1.03 -0.04 1.05 -1.68 10.72 0.88 -0.00 -0.08 2904
1.04 -0.06 1.03 -1.77 10.76 0.95 -0.00 -0.09 2910
1.04 -0.04 1.03 -1.84 10.36 1.01 0.01 -0.09 2917
1.07 -0.05 0.97 -1.89 10.50 1.07 0.05 -0.09 2923
1.07 -0.06 1.03 -1.96 10.57 1.14 0.08 -0.10 2929
1.09 -0.04 1.03 -2.06 10.74 1.21 0.10 -0.10 2935
1.09 -0.05 1.10 -2.15 10.78 1.28 0.14 -0.11 2942
1.07 -0.05 1.06 -2.23 10.67 1.36 0.20 -0.11 2949
1.04 -0.04 1.02 -2.34 10.58 1.44 0.27 -0.12 2955
1.06 -0.05 1.07 -2.39 10.80 1.53 0.33 -0.12 2961
0.97 -0.04 0.98 -2.48 10.96 1.63 0.41 -0.13 2967
0.95 -0.04 0.90 -2.86 11.25 1.75 0.49 -0.13 2974
0.89 -0.05 0.95 -2.74 11.52 1.89 0.57 -0.12 2980
0.81 -0.04 0.82 -2.92 11.82 2.05 0.67 -0.10 2987
0.76 -0.04 0.82 -3.08 12.34 2.21 0.79 -0.07 2993
0.65 -0.05 0.98 -3.16 11.89 2.40 0.94 -0.05 2999
0.58 -0.02 1.10 -3.33 11.77 2.57 1.09 -0.03 3006
0.42 -0.03 0.80 -3.45 11.95 2.72 1.30 0.00 3012
0.32 -0.03 1.18 -4.08 10.51 2.83 1.45 0.06 3018
0.25 -0.01 0.82 -4.10 11.63 2.96 1.74 0.17 3024
0.19 -0.02 -0.42 -4.60 12.55 3.00 1.90 0.28 3031
0.11 -0.01 0.77 -4.95 14.49 3.09 2.04 0.41 3038
0.10 -0.00 0.92 -5.64 16.16 3.26 2.28 0.50 3044
0.07 -0.01 1.38 -6.05 18.36 3.49 2.55 0.58 3050
0.08 -0.01 1.92 -7.01 19.09 3.76 2.82 0.65 3056
0.09 0.00 3.19 -7.79 20.57 4.02 3.06 0.73 3062
0.09 -0.01 4.10 -8.16 21.11 4.18 3.31 0.77 3068
0.10 -0.01 5.17 -8.14 21.71 4.26 3.50 0.81 3076
0.07 -0.01 6.16 -7.64 21.14 4.26 3.77 0.87 3082
0.07 -0.01 9.58 -8.28 19.80 4.23 4.19 0.92 3088
0.06 -0.01 10.53 -8.17 21.54 4.14 4.28 0.85 3094
0.05 -0.01 10.64 -7.63 21.81 4.03 4.28 0.71 3100
0.06 -0.01 7.39 -5.94 22.95 3.94 4.28 0.49 3107
0.05 -0.01 3.94 -4.65 24.20 3.85 4.28 0.25 3113
0.08 -0.01 -0.86 -3.49 22.72 3.84 4.28 0.01 3120
0.06 -0.01 -4.91 -2.00 20.93 3.86 4.28 -0.31 3126
0.05 -0.00 -7.07 0.76 18.12 3.83 4.28 -0.66 3132
0.04 -0.00 -8.50 4.02 15.82 3.64 4.28 -0.95 3138
0.05 0.00 -8.44 6.80 14.49 3.35 2.93 -1.09 3145
0.05 -0.00 -13.10 11.30 9.30 3.05 1.43 -1.09 3151
0.04 -0.00 -13.90 11.41 5.93 3.01 -0.78 -1.53 3158
0.05 -0.00 -9.64 9.06 11.86 1.50 -3.23 -1.72 3164
0.04 -0.00 -3.83 11.94 10.77 -0.49 -4.20 -1.71 3170
0.04 -0.00 0.09 9.71 16.36 -1.50 -4.28 -1.74 3177
0.05 -0.01 1.58 5.81 17.04 -2.02 -4.28 -1.97 3183
0.04 -0.00 2.61 4.28 15.04 -2.36 -4.18 -2.37 3189
0.03 -0.00 3.66 3.71 13.35 -2.48 -3.53 -2.87 3195
0.06 -0.01 3.60 3.57 10.82 -2.52 -2.78 -3.34 3202
0.04 -0.00 2.71 3.65 8.80 -2.58 -2.13 -3.73 3208
0.02 -0.00 2.02 4.18 8.26 -2.66 -1.67 -4.04 3214
0.04 0.01 1.36 4.56 8.45 -2.82 -1.46 -4.25 3221
0.04 -0.00 1.00 4.54 8.68 -2.96 -1.45 -4.28 3227
0.02 -0.00 1.17 4.39 9.11 -3.14 -1.56 -4.28 3233
0.02 -0.00 1.28 4.07 9.79 -3.33 -1.80 -4.28 3239
0.05 0.00 1.33 3.30 10.10 -3.54 -2.03 -4.25 3246
0.04 -0.00 1.28 2.89 10.29 -3.77 -2.15 -4.01 3252
0.03 -0.00 2.35 2.97 11.18 -3.97 -2.25 -3.72 3259
0.05 -0.00 3.40 2.85 12.06 -4.13 -2.49 -3.44 3265
0.05 -0.00 4.17 1.94 12.10 -4.23 -2.75 -3.13 3271
0.03 -0.00 5.13 0.85 11.63 -4.27 -2.92 -2.79 3277
0.04 -0.00 6.23 0.14 11.63 -4.28 -3.00 -2.48 3283
0.04 -0.00 7.13 -0.63 11.75 -4.28 -3.01 -2.20 3290
0.04 -0.00 7.83 -1.60 11.52 -4.28 -2.96 -1.95 3297
0.05 0.00 8.50 -2.29 11.36 -4.28 -2.84 -1.73 3303
0.04 -0.00 9.31 -3.02 11.27 -4.28 -2.65 -1.55 3309
0.04 -0.00 10.23 -3.75 11.27 -4.28 -2.40 -1.36 3315
0.03 0.00 10.93 -4.20 11.25 -4.28 -2.13 -1.20 3321
0.04 -0.00 11.59 -4.65 11.45 -4.27 -1.84 -1.03 3329
0.03 -0.00 11.88 -4.93 11.69 -4.23 -1.54 -0.86 3335
0.06 -0.01 12.18 -5.40 11.94 -4.19 -1.24 -0.68 3341
0.04 -0.00 12.06 -5.97 12.44 -4.12 -0.95 -0.48 3347
0.04 -0.00 12.25 -6.80 13.22 -4.04 -0.64 -0.27 3354
0.06 -0.01 12.26 -7.74 13.90 -3.93 -0.31 -0.04 3360
0.03 -0.00 12.12 -8.48 14.66 -3.79 0.02 0.20 3366
0.03 -0.00 11.81 -9.08 15.21 -3.65 0.35 0.47 3373
0.03 -0.00 11.45 -9.61 15.50 -3.54 0.67 0.76 3379
0.02 -0.00 11.05 -10.22 15.31 -3.40 0.91 1.06 3386
0.05 -0.00 10.67 -10.30 15.65 -3.25 1.11 1.37 3392
0.04 -0.00 10.31 -10.66 15.58 -3.09 1.26 1.66 3398
0.04 0.00 9.92 -10.74 15.22 -2.89 1.36 1.93 3404
0.04 -0.00 9.67 -10.91 14.81 -2.74 1.45 2.15 3411
0.02 -0.00 9.33 -11.16 14.48 -2.57 1.50 2.32 3418
0.05 -0.00 9.03 -11.19 14.16 -2.39 1.53 2.43 3424
0.04 -0.00 8.77 -11.14 13.74 -2.19 1.54 2.47 3430
0.03 -0.00 8.34 -11.12 13.32 -1.99 1.56 2.46 3437
0.04 -0.00 7.86 -11.21 13.05 -1.77 1.59 2.38 3443
0.04 -0.00 7.37 -11.27 12.92 -1.54 1.61 2.23 3449
0.03 0.00 6.92 -11.33 13.22 -1.31 1.64 2.03 3456
0.04 -0.00 6.44 -11.43 13.48 -1.10 1.68 1.80 3462
0.02 -0.00 5.92 -11.46 13.59 -0.91 1.73 1.53 3469
0.04 -0.00 5.23 -11.56 13.71 -0.75 1.79 1.29 3475
0.03 -0.00 4.79 -11.61 13.88 -0.62 1.88 1.02 3481
0.03 -0.00 4.48 -11.56 14.06 -0.53 2.01 0.75 3487
0.04 -0.00 4.26 -11.48 14.41 -0.48 2.18 0.49 3493
0.03 -0.00 3.85 -11.29 14.72 -0.49 2.39 0.26 3501
0.04 -0.00 3.29 -11.01 15.06 -0.55 2.61 0.05 3507
0.04 -0.00 2.46 -10.63 15.50 -0.67 2.81 -0.12 3513
0.04 -0.00 1.52 -10.19 15.87 -0.84 2.96 -0.26 3519
0.03 -0.00 0.50 -9.82 16.03 -1.04 3.06 -0.37 3525
0.04 -0.00 -0.46 -9.75 15.66 -1.23 3.08 -0.45 3532
0.03 -0.00 -1.83 -9.84 15.26 -1.44 3.04 -0.53 3538
0.03 -0.00 -1.86 -10.08 14.65 -1.63 3.02 -0.60 3545
0.05 -0.00 -2.28 -10.29 13.92 -1.80 2.95 -0.67 3551
0.03 -0.00 -2.61 -10.85 12.85 -1.90 2.89 -0.74 3557
0.03 -0.00 -2.97 -11.26 11.69 -1.95 2.87 -0.81 3564
0.04 -0.00 -3.26 -11.67 10.71 -1.91 2.87 -0.88 3570
0.03 -0.00 -3.71 -11.93 9.70 -1.81 2.89 -0.95 3576
0.03 0.00 -4.39 -12.10 8.84 -1.64 2.94 -0.98 3582
0.04 -0.00 -5.24 -12.16 8.46 -1.43 3.00 -0.96 3589
0.03 -0.00 -6.26 -12.34 8.55 -1.20 2.99 -0.89 3596
0.04 -0.00 -7.57 -12.61 8.81 -0.97 2.82 -0.83 3602
0.04 -0.00 -8.84 -12.78 9.15 -0.80 2.44 -0.78 3608
0.03 -0.00 -9.77 -12.70 9.12 -0.64 1.89 -0.73 3614
0.03 -0.00 -9.92 -12.58 8.94 -0.54 1.28 -0.67 3620
0.05 -0.00 -9.34 -12.67 8.65 -0.47 0.79 -0.57 3627
0.04 -0.00 -8.36 -13.46 8.73 -0.41 0.32 -0.44 3634
0.03 -0.00 -7.30 -13.30 8.80 -0.32 0.02 -0.35 3640
0.05 -0.00 -6.39 -13.84 8.68 -0.19 -0.11 -0.23 3646
0.03 -0.00 -5.68 -14.27 8.28 -0.02 -0.13 -0.12 3652
0.03 -0.00 -5.35 -14.53 7.83 0.17 -0.14 -0.02 3658
0.03 0.00 -12.49 -11.71 14.15 0.70 -0.81 0.22 3665
0.03 -0.00 -12.60 -7.17 16.37 1.90 -3.08 1.07 3672
0.02 -0.00 5.18 0.65 9.94 1.71 -3.52 1.18 3678
0.06 -0.01 1.71 6.80 9.74 1.65 -3.45 1.11 3684
0.04 -0.00 11.31 13.45 10.08 1.56 -3.04 1.29 3690
0.03 -0.00 6.24 7.59 12.84 1.31 -2.74 1.49 3696
0.04 0.00 2.37 4.49 10.29 1.17 -2.27 1.62 3703
0.04 0.00 -0.94 1.54 7.20 1.14 -2.06 1.56 3709
0.01 -0.00 -2.79 0.44 6.24 1.22 -2.27 1.38 3716
0.03 0.03 -3.89 0.29 8.07 1.39 -2.56 1.08 3722
0.03 0.05 -4.82 1.23 10.59 1.57 -2.76 0.75 3728
0.03 0.15 -4.68 1.94 12.38 1.79 -2.68 0.40 3734
0.03 0.23 -4.30 1.70 14.90 1.97 -2.28 0.07 3741
0.03 0.33 -3.31 0.31 15.17 2.02 -1.79 -0.20 3747
0.01 0.41 -1.64 -0.45 14.06 2.02 -1.45 -0.44 3753
0.03 0.46 0.07 -1.00 15.05 2.03 -1.33 -0.64 3760
0.02 0.48 4.04 -2.16 17.97 2.01 -1.52 -0.67 3766
0.02 0.48 5.31 -3.26 20.57 1.50 -2.04 -0.39 3773
0.03 0.48 3.03 -3.30 14.54 1.02 -1.48 0.06 3779
0.02 0.49 0.42 -2.32 13.61 0.63 -0.81 0.20 3785
0.02 0.57 1.42 -2.19 10.46 0.39 -0.57 0.23 3791
0.02 0.60 -0.07 -0.71 11.20 0.36 -0.62 0.19 3799
0.02 0.57 0.36 -0.41 10.52 0.31 -0.64 0.08 3805
0.02 0.56 1.00 -0.57 10.34 0.27 -0.58 0.05 3811
0.03 0.51 1.34 -0.95 10.17 0.23 -0.45 0.06 3817
0.03 0.49 1.08 -0.92 9.23 0.20 -0.36 0.09 3823
0.03 0.48 0.95 -0.73 10.32 0.17 -0.30 0.09 3829
0.03 0.48 0.89 -0.80 10.16 0.14 -0.23 0.07 3836
0.03 0.48 0.90 -0.93 10.24 0.11 -0.16 0.07 3843
0.03 0.46 1.03 -0.98 10.13 0.08 -0.12 0.07 3849
0.03 0.45 0.97 -0.82 10.32 0.07 -0.08 0.08 3855
0.02 0.46 0.97 -0.74 10.04 0.06 -0.04 0.08 3861
0.04 0.44 0.96 -0.89 10.30 0.06 -0.01 0.09 3868
0.03 0.41 0.95 -0.88 10.16 0.06 0.02 0.10 3874
0.02 0.44 1.02 -0.84 10.12 0.06 0.05 0.09 3880
0.04 0.40 1.12 -0.90 10.02 0.06 0.07 0.10 3887
0.04 0.33 1.06 -0.88 10.11 0.06 0.07 0.09 3893
0.04 0.27 0.91 -0.74 10.10 0.06 0.06 0.09 3900
0.05 0.23 1.05 -0.82 10.08 0.06 0.06 0.09 3906
0.05 0.22 1.08 -0.84 10.00 0.05 0.06 0.08 3912
0.05 0.16 1.10 -0.85 9.95 0.05 0.06 0.07 3918
0.05 0.15 1.11 -0.82 9.98 0.05 0.05 0.07 3924
0.07 0.09 1.15 -0.87 9.99 0.05 0.04 0.06 3931
0.05 0.09 1.07 -0.84 10.07 0.04 0.04 0.07 3937
0.05 0.06 1.77 -0.73 10.04 0.05 0.03 0.06 3944
0.07 0.06 1.14 -0.84 9.92 0.04 0.02 0.06 3950
0.06 0.02 1.18 -0.87 9.93 0.04 0.02 0.05 3956
0.05 0.02 1.20 -0.93 9.97 0.04 0.00 0.05 3962
0.06 0.02 1.24 -0.87 9.93 0.04 -0.01 0.04 3969
0.07 -0.00 1.17 -0.83 9.95 0.04 -0.02 0.04 3975
0.07 -0.00 1.21 -0.85 9.92 0.04 -0.03 0.03 3981
0.06 -0.01 1.21 -0.89 9.96 0.04 -0.04 0.02 3987
0.07 -0.00 1.20 -0.90 10.02 0.05 -0.05 0.02 3994
0.07 -0.01 1.19 -0.88 9.99 0.04 -0.06 0.02 4000
0.06 -0.01 1.21 -0.92 9.94 0.04 -0.08 0.01 4006
0.05 -0.00 1.18 -0.89 9.89 0.04 -0.09 0.01 4013
0.05 -0.01 1.17 -0.89 10.00 0.04 -0.11 0.01 4019
0.07 -0.01 1.13 -0.98 9.98 0.04 -0.11 0.01 4025
0.06 -0.01 1.14 -0.97 9.94 0.04 -0.12 0.00 4031
0.07 -0.01 1.22 -0.89 9.96 0.04 -0.12 0.00 4037
0.07 -0.01 1.01 -1.10 9.90 0.04 -0.12 0.00 4043
0.09 -0.01 1.13 -1.06 9.96 0.04 -0.12 0.01 4049
0.09 -0.01 1.16 -0.94 10.01 0.04 -0.12 0.00 4057
0.09 -0.01 1.07 -0.95 10.04 0.05 -0.12 -0.00 4063
0.09 -0.00 1.14 -1.00 10.01 0.05 -0.12 -0.00 4069
0.11 -0.01 1.08 -0.98 9.93 0.05 -0.12 -0.00 4075
0.12 -0.01 1.18 -0.99 9.93 0.05 -0.12 -0.01 4081
0.13 -0.01 1.15 -0.99 9.93 0.05 -0.13 -0.01 4087
0.13 0.03 1.10 -1.01 9.98 0.05 -0.14 -0.02 4093
0.16 0.04 1.11 -0.92 9.96 0.05 -0.13 -0.02 4100
0.18 -0.01 1.02 -1.05 9.90 0.04 -0.13 -0.03 4107
0.16 -0.01 0.97 -0.96 10.06 0.05 -0.13 -0.02 4113
0.17 -0.02 1.02 -1.02 10.02 0.06 -0.13 -0.03 4119
0.18 0.00 1.00 -0.95 9.99 0.07 -0.13 -0.03 4125
0.19 -0.02 1.02 -1.03 10.03 0.07 -0.13 -0.03 4131
0.24 -0.02 0.95 -1.09 10.05 0.09 -0.13 -0.03 4137
0.25 -0.02 0.93 -1.09 10.06 0.09 -0.12 -0.02 4145
0.23 -0.02 1.05 -1.10 9.96 0.09 -0.11 -0.01 4151
0.26 -0.03 0.95 -1.07 10.07 0.09 -0.11 -0.01 4157
0.28 -0.02 0.99 -1.09 10.05 0.11 -0.10 -0.00 4163
0.30 -0.03 0.96 -1.09 9.99 0.10 -0.10 0.00 4169
0.30 -0.02 0.98 -1.11 10.01 0.10 -0.09 0.00 4175
0.33 -0.01 0.99 -1.12 9.97 0.09 -0.09 0.00 4182
0.36 -0.02 1.00 -1.14 9.96 0.09 -0.09 0.00 4188
0.37 -0.02 1.01 -1.11 9.89 0.08 -0.09 0.00 4195
0.36 -0.01 1.01 -1.10 9.87 0.06 -0.08 0.00 4201
0.38 -0.02 1.01 -1.17 9.88 0.04 -0.08 0.00 4207
0.37 -0.02 1.03 -1.17 9.92 0.02 -0.08 0.00 4213
0.37 -0.03 0.97 -1.17 9.92 -0.00 -0.08 0.00 4219
0.37 -0.03 1.04 -1.17 9.74 -0.02 -0.08 0.03 4226
0.37 -0.01 1.07 -1.12 9.91 -0.04 -0.08 -0.00 4232
0.40 -0.04 1.06 -1.12 9.97 -0.04 -0.08 -0.01 4239
0.43 -0.02 0.99 -1.15 10.00 -0.03 -0.09 -0.01 4245
0.45 -0.03 0.96 -1.12 10.08 -0.02 -0.09 -0.01 4251
0.47 -0.05 0.97 -1.15 10.04 0.03 -0.09 -0.01 4257
0.48 -0.03 0.97 -1.12 10.06 0.02 -0.09 -0.01 4263
0.51 -0.04 0.95 -1.15 10.15 0.04 -0.09 -0.02 4271
0.55 -0.04 0.92 -1.11 10.11 0.08 -0.09 -0.01 4277
0.57 -0.03 0.90 -1.15 10.10 0.12 -0.09 -0.01 4283
0.61 -0.03 0.94 -1.15 10.12 0.16 -0.08 -0.01 4289
0.64 -0.03 0.93 -1.14 10.27 0.21 -0.08 -0.01 4295
0.67 -0.03 1.00 -1.74 10.32 0.27 -0.07 -0.01 4302
0.69 -0.04 0.91 -0.62 10.26 0.34 -0.08 -0.01 4308
0.69 -0.04 0.91 -1.31 10.38 0.41 -0.08 -0.01 4315
0.74 -0.04 0.91 -1.31 9.82 0.49 -0.08 -0.01 4321
0.77 -0.04 1.01 -1.40 10.59 0.58 -0.10 -0.02 4327
0.80 -0.04 0.98 -1.41 10.68 0.68 -0.11 -0.02 4334
0.87 -0.04 1.02 -1.46 10.55 0.77 -0.11 -0.03 4340
0.87 -0.04 0.91 -1.54 10.71 0.85 -0.12 -0.03 4346
0.93 -0.04 0.97 -1.56 10.92 0.93 -0.12 -0.03 4353
0.99 -0.05 0.96 -1.66 10.85 1.01 -0.12 -0.03 4359
1.00 -0.06 0.99 -1.73 10.84 1.08 -0.12 -0.03 4366
1.00 -0.04 0.93 -1.85 10.86 1.14 -0.11 -0.03 4372
1.04 -0.05 0.85 -1.95 10.89 1.21 -0.08 -0.03 4378
1.03 -0.05 0.83 -1.95 10.78 1.28 -0.06 -0.03 4384
1.05 -0.04 0.92 -2.15 10.76 1.35 -0.03 -0.03 4391
1.08 -0.06 0.85 -2.15 10.65 1.42 -0.00 -0.02 4398
1.11 -0.06 0.83 -2.30 10.67 1.49 0.03 -0.02 4404
1.13 -0.04 0.80 -2.32 10.57 1.56 0.08 -0.02 4410
1.12 -0.05 0.81 -2.40 10.61 1.63 0.15 -0.02 4416
1.08 -0.05 0.75 -2.57 10.52 1.71 0.23 -0.01 4423
1.06 -0.05 0.76 -2.71 10.56 1.78 0.34 -0.00 4429
1.03 -0.06 0.77 -2.83 10.68 1.86 0.46 0.00 4435
0.97 -0.04 0.84 -2.95 11.00 1.97 0.58 0.01 4442
0.91 -0.05 0.85 -3.14 11.22 2.10 0.69 0.02 4448
0.83 -0.05 0.79 -3.22 11.21 2.23 0.82 0.03 4455
0.75 -0.03 0.91 -3.48 11.58 2.39 0.99 0.05 4461
0.68 -0.04 0.95 -3.66 11.73 2.56 1.13 0.07 4467
0.55 -0.04 0.76 -3.72 12.44 2.74 1.18 0.09 4473
0.49 -0.03 1.06 -3.97 12.74 2.95 1.20 0.11 4480
0.43 -0.03 0.88 -4.21 12.43 3.15 1.27 0.13 4487
0.31 -0.02 1.37 -4.55 12.47 3.35 1.33 0.16 4493
0.24 -0.02 1.59 -4.87 12.70 3.51 1.40 0.18 4499
0.22 -0.02 1.06 -5.31 13.09 3.68 1.42 0.21 4505
0.18 -0.02 1.97 -5.95 14.33 3.87 1.45 0.23 4511
0.20 -0.02 1.64 -6.39 15.26 4.02 1.46 0.25 4518
0.15 -0.02 1.84 -7.09 15.56 4.10 1.42 0.33 4525
0.13 -0.01 1.93 -7.66 16.10 4.14 1.46 0.37 4531
0.10 -0.01 1.82 -8.95 16.12 4.10 1.68 0.47 4537
0.09 -0.01 2.33 -10.24 20.52 4.08 1.79 0.57 4543
0.10 -0.01 3.40 -10.49 23.52 4.22 1.91 0.61 4550
0.09 -0.01 5.01 -10.48 23.10 4.28 2.18 0.62 4556
0.08 -0.01 4.58 -9.17 18.97 4.28 2.43 0.67 4562
0.06 -0.01 6.48 -8.74 18.43 4.28 2.80 0.71 4569
0.08 -0.01 7.71 -8.72 18.93 4.28 3.32 0.73 4575
0.05 -0.01 7.82 -8.01 20.48 4.26 3.95 0.67 4581
0.04 -0.00 5.84 -7.09 20.49 4.22 4.26 0.51 4588
0.05 -0.01 2.35 -4.97 20.53 4.15 4.28 0.31 4594
0.05 -0.00 -0.65 -2.99 20.14 4.08 4.28 0.12 4600
0.04 -0.00 -3.25 -0.69 19.53 3.95 4.17 -0.10 4606
0.04 0.00 -4.69 1.44 18.60 3.75 3.54 -0.32 4613
0.04 -0.00 -5.76 4.56 19.10 3.48 2.74 -0.45 4619
0.04 -0.00 -6.32 8.70 15.09 2.93 1.93 -0.45 4626
0.02 0.00 -9.31 15.42 6.89 2.45 0.71 -0.60 4632
0.03 -0.00 -7.12 14.40 3.44 1.92 -1.33 -0.98 4638
0.04 -0.00 -6.88 14.89 11.36 0.16 -2.94 -1.09 4644
0.03 0.00 -1.79 14.05 15.80 -1.58 -3.45 -1.16 4651
0.04 -0.00 0.35 10.12 16.54 -2.38 -3.49 -1.34 4658
0.03 -0.00 1.28 6.27 14.95 -2.72 -3.26 -1.64 4664
0.03 -0.00 1.75 4.33 13.07 -2.88 -2.83 -2.02 4670
0.04 -0.00 1.99 4.87 10.80 -2.94 -2.28 -2.35 4676
0.03 -0.00 1.90 5.00 8.68 -2.94 -1.76 -2.71 4682
0.04 0.01 1.48 5.04 8.23 -2.98 -1.39 -3.02 4688
0.04 -0.00 1.17 5.32 7.95 -3.10 -1.21 -3.26 4696
0.03 -0.00 0.97 5.48 8.38 -3.28 -1.20 -3.43 4702
0.03 -0.00 0.83 5.46 9.57 -3.49 -1.33 -3.53 4708
0.04 -0.00 1.17 5.17 10.22 -3.76 -1.53 -3.54 4714
0.03 -0.00 1.43 4.57 10.98 -4.03 -1.68 -3.46 4720
0.02 -0.00 1.96 3.57 11.26 -4.20 -1.80 -3.29 4726
0.03 0.01 3.02 2.64 11.64 -4.27 -1.85 -3.11 4733
0.04 -0.00 4.24 2.34 11.64 -4.28 -1.90 -2.94 4740
0.03 -0.00 4.69 1.74 12.55 -4.28 -2.00 -2.78 4746
0.05 0.00 5.18 0.12 12.32 -4.28 -2.09 -2.56 4752
0.05 -0.00 5.92 -1.48 11.82 -4.28 -2.15 -2.32 4758
0.04 -0.00 6.79 -2.50 11.53 -4.28 -2.18 -2.08 4764
0.04 0.01 7.31 -3.21 11.06 -4.28 -2.24 -1.85 4771
0.03 -0.00 7.97 -3.99 10.67 -4.28 -2.24 -1.64 4777
0.03 -0.00 8.77 -4.65 10.21 -4.28 -2.16 -1.44 4784
0.04 0.00 9.80 -5.32 10.27 -4.28 -2.00 -1.27 4790
0.04 -0.00 10.67 -5.84 10.70 -4.28 -1.81 -1.10 4796
0.04 -0.00 11.63 -5.95 11.05 -4.28 -1.51 -0.94 4803
0.05 -0.01 12.36 -5.98 11.52 -4.24 -1.13 -0.78 4809
0.03 -0.00 12.82 -5.95 12.06 -4.16 -0.64 -0.60 4815
0.03 -0.00 13.08 -6.31 12.91 -4.05 -0.09 -0.41 4822
0.04 -0.00 12.69 -6.98 13.68 -3.93 0.44 -0.26 4829
0.03 -0.00 11.95 -7.67 14.98 -3.80 0.88 -0.05 4835
0.04 0.01 11.18 -8.69 15.34 -3.69 1.22 0.19 4841
0.04 -0.00 10.37 -9.76 16.47 -3.58 1.44 0.46 4847
0.03 -0.00 9.61 -10.81 16.80 -3.47 1.55 0.75 4853
0.05 -0.01 8.97 -12.03 16.79 -3.36 1.57 1.06 4860
0.03 -0.00 8.65 -13.07 16.59 -3.24 1.52 1.37 4867
0.03 -0.00 8.38 -13.62 16.08 -3.09 1.41 1.67 4873
0.04 -0.00 8.30 -13.92 15.42 -2.92 1.29 1.93 4879
0.04 -0.00 8.43 -14.05 14.56 -2.71 1.24 2.12 4885
0.04 -0.00 8.49 -14.19 13.81 -2.51 1.25 2.24 4892
0.04 -0.00 8.39 -14.18 13.10 -2.32 1.30 2.29 4898
0.03 -0.00 8.13 -14.00 12.44 -2.07 1.37 2.26 4904
0.03 -0.00 7.75 -13.73 11.89 -1.79 1.44 2.17 4911
0.03 -0.00 7.32 -13.35 11.50 -1.50 1.48 2.03 4918
0.03 -0.00 6.90 -13.02 11.37 -1.19 1.50 1.84 4924
0.04 -0.00 6.41 -12.71 11.77 -0.90 1.48 1.62 4930
0.03 -0.00 6.09 -12.23 12.50 -0.65 1.45 1.39 4936
0.03 -0.00 5.93 -11.68 13.61 -0.45 1.43 1.18 4942
0.05 -0.00 5.91 -11.23 15.27 -0.33 1.48 0.95 4950
0.04 -0.00 5.80 -10.74 15.66 -0.31 1.62 0.73 4956
0.04 -0.00 5.30 -10.14 16.20 -0.39 1.86 0.53 4962
0.04 -0.00 4.71 -9.64 16.32 -0.53 2.18 0.36 4968
0.03 -0.00 4.15 -9.16 16.24 -0.70 2.51 0.24 4974
0.04 -0.00 3.59 -8.91 15.90 -0.88 2.85 0.14 4980
0.06 -0.01 2.90 -8.78 15.35 -1.07 3.17 0.07 4987
0.03 -0.00 2.00 -8.81 14.56 -1.19 3.45 0.03 4994
0.03 -0.00 0.63 -9.08 13.93 -1.31 3.64 -0.00 5000
0.04 -0.00 0.34 -9.30 13.29 -1.37 3.70 -0.04 5006
0.04 -0.00 -0.54 -9.63 12.76 -1.39 3.69 -0.07 5012
0.03 -0.00 -1.37 -10.03 12.46 -1.38 3.58 -0.11 5018
0.04 -0.00 -2.01 -10.38 12.16 -1.34 3.41 -0.15 5025
0.05 -0.00 -2.54 -10.67 11.75 -1.28 3.17 -0.20 5031
0.02 -0.00 -3.00 -10.82 11.28 -1.22 2.89 -0.27 5038
0.03 -0.00 -3.32 -10.82 10.79 -1.17 2.60 -0.34 5044
0.04 -0.00 -3.67 -10.68 10.11 -1.12 2.38 -0.39 5051
0.04 -0.00 -3.96 -10.67 9.57 -1.05 2.27 -0.38 5057
0.05 -0.01 -4.32 -10.79 9.49 -0.95 2.26 -0.31 5063
0.04 -0.00 -4.97 -11.05 9.61 -0.86 2.23 -0.21 5069
0.04 -0.00 -5.92 -11.47 9.66 -0.76 2.08 -0.12 5075
0.05 -0.01 -7.25 -11.80 9.41 -0.67 1.81 -0.03 5082
0.05 -0.00 -7.25 -12.11 8.94 -0.58 1.56 0.05 5089
0.04 -0.00 -7.51 -12.42 8.31 -0.52 1.19 0.12 5095
0.05 -0.00 -7.57 -12.88 7.37 -0.45 0.86 0.20 5101
0.04 -0.00 -7.45 -13.50 7.73 -0.36 0.60 0.27 5107
0.04 -0.00 -7.14 -14.36 7.49 -0.23 0.38 0.32 5113
0.04 -0.00 -6.66 -15.16 7.03 -0.07 0.12 0.31 5120
0.04 -0.00 -6.00 -15.70 6.36 0.13 -0.14 0.26 5127
0.03 -0.00 -9.97 -14.26 8.79 0.39 -0.70 0.29 5133
0.03 -0.00 -21.62 -9.10 23.70 1.83 -3.63 1.04 5139
0.05 -0.00 5.84 -2.68 9.50 1.97 -3.84 1.30 5145
0.03 -0.00 0.80 2.93 7.51 1.91 -4.15 1.21 5151
0.03 -0.00 9.96 13.78 9.37 1.86 -4.15 1.42 5157
0.03 -0.00 8.68 9.36 11.09 1.61 -4.11 1.68 5164
0.03 -0.00 4.26 4.30 11.83 1.43 -3.88 1.95 5171
0.03 -0.00 1.74 0.31 9.57 1.35 -3.53 2.11 5177
0.02 0.01 0.27 -0.99 8.63 1.40 -3.32 2.15 5183
0.04 0.04 -1.71 0.23 11.18 1.44 -3.21 2.08 5189
0.02 0.14 -4.40 2.30 15.52 1.55 -2.97 1.89 5195
0.03 0.24 -8.61 4.31 16.27 1.72 -2.53 1.55 5201
0.03 0.34 -9.31 2.76 15.38 1.90 -1.97 1.07 5209
0.01 0.44 -9.16 0.94 14.26 1.96 -1.73 0.53 5215
0.01 0.51 -7.37 -0.43 14.58 2.00 -1.45 -0.02 5221
0.01 0.57 -5.82 -0.38 14.37 2.01 -1.29 -0.54 5227
-0.01 0.64 -1.07 -1.63 14.35 2.00 -1.22 -0.87 5234
0.02 0.61 4.43 -1.85 17.57 1.95 -1.16 -0.86 5240
0.00 0.66 6.86 -3.10 19.41 1.38 -1.60 -0.45 5246
0.01 0.64 4.58 -2.75 12.14 0.76 -1.15 -0.00 5253
0.01 0.63 1.06 -2.63 13.45 0.52 -0.67 0.22 5259
0.01 0.61 0.93 -1.73 11.23 0.27 -0.33 0.24 5266
0.01 0.65 0.13 -0.50 10.67 0.24 -0.40 0.19 5272
-0.01 0.67 0.45 -0.20 10.83 0.20 -0.46 0.06 5278
0.01 0.68 1.11 -0.54 10.11 0.16 -0.43 0.02 5284
0.02 0.72 1.21 -0.75 10.00 0.13 -0.36 0.03 5292
0.02 0.70 1.17 -0.92 10.03 0.10 -0.31 0.05 5298
0.01 0.67 1.13 -0.71 9.93 0.09 -0.29 0.06 5304
0.01 0.80 0.97 -0.60 10.18 0.07 -0.28 0.05 5310
0.01 0.75 0.91 -0.65 9.98 0.05 -0.25 0.04 5316
0.00 0.74 0.94 -0.65 10.13 0.04 -0.21 0.04 5322
0.01 0.77 0.97 -0.70 9.89 0.03 -0.19 0.04 5329
0.00 0.77 0.97 -0.67 9.99 0.03 -0.18 0.04 5336
0.00 0.81 0.96 -0.75 10.05 0.02 -0.16 0.04 5342
0.00 0.85 0.89 -0.76 10.23 0.01 -0.14 0.05 5348
0.01 0.83 0.95 -0.72 10.03 0.00 -0.12 0.05 5354
-0.00 0.80 0.89 -0.70 10.14 0.00 -0.10 0.05 5360
-0.01 0.81 0.87 -0.64 9.94 -0.00 -0.09 0.05 5367
0.01 0.80 0.87 -0.66 10.10 -0.00 -0.09 0.05 5373
0.01 0.78 0.92 -0.64 10.04 0.00 -0.09 0.05 5380
0.02 0.80 0.97 -0.68 9.94 0.00 -0.08 0.05 5386
0.02 0.82 0.96 -0.67 9.91 0.01 -0.09 0.04 5392
0.02 0.81 0.93 -0.65 9.95 0.01 -0.10 0.04 5398
0.02 0.80 0.87 -0.63 10.01 0.01 -0.10 0.04 5404
0.01 0.77 0.95 -0.66 9.90 0.01 -0.11 0.04 5411
0.02 0.76 0.97 -0.63 10.05 0.01 -0.10 0.03 5417
0.01 0.72 0.92 -0.62 10.00 0.01 -0.11 0.03 5424
0.02 0.70 0.88 -0.62 9.96 0.00 -0.11 0.03 5430
0.05 0.68 0.89 -0.63 9.99 0.01 -0.11 0.03 5436
0.01 0.68 0.85 -0.66 10.06 0.01 -0.10 0.03 5442
0.02 0.60 0.83 -0.67 10.01 0.02 -0.09 0.04 5449
0.05 0.58 0.82 -0.69 9.91 0.02 -0.08 0.04 5455
0.03 0.55 0.82 -0.69 9.96 0.02 -0.06 0.04 5462
0.04 0.46 0.83 -0.67 10.03 0.02 -0.05 0.04 5468
0.05 0.49 0.86 -0.66 9.99 0.02 -0.05 0.05 5474
0.06 0.43 0.88 -0.70 10.02 0.02 -0.04 0.04 5480
0.06 0.38 0.84 -0.66 10.01 0.02 -0.04 0.05 5487
0.06 0.38 0.86 -0.68 10.03 0.02 -0.04 0.05 5493
0.06 0.35 0.86 -0.63 10.04 0.02 -0.03 0.05 5499
0.07 0.29 0.88 -0.66 9.98 0.02 -0.03 0.05 5506
0.07 0.29 0.91 -0.71 9.93 0.02 -0.03 0.05 5512
0.10 0.27 0.91 -0.72 9.97 0.02 -0.03 0.05 5518
0.08 0.26 0.88 -0.67 10.04 0.02 -0.03 0.05 5524
0.07 0.23 0.89 -0.70 10.00 0.02 -0.03 0.05 5531
0.10 0.22 0.90 -0.73 9.95 0.02 -0.03 0.04 5537
0.10 0.19 0.88 -0.70 9.94 0.02 -0.03 0.04 5543
0.08 0.18 0.85 -0.73 9.91 0.02 -0.02 0.04 5550
0.07 0.17 0.90 -0.76 10.03 0.02 -0.02 0.04 5556
0.10 0.18 0.88 -0.70 9.98 0.02 -0.03 0.04 5562
0.08 0.16 0.92 -0.74 10.01 0.02 -0.02 0.04 5569
0.09 0.11 0.93 -0.69 9.96 0.01 -0.01 0.04 5575
0.10 0.11 0.84 -0.68 9.97 0.01 -0.01 0.04 5581
0.07 0.06 0.93 -0.65 10.00 0.02 -0.01 0.04 5587
0.06 0.11 0.78 -0.66 10.06 0.02 -0.01 0.05 5594
0.09 0.05 0.80 -0.72 10.00 0.02 -0.00 0.04 5600
0.12 0.01 0.88 -0.74 10.00 0.02 -0.00 0.05 5606
0.08 0.00 0.94 -0.75 10.02 0.02 0.00 0.05 5613
0.12 0.03 0.86 -0.74 10.05 0.02 0.01 0.05 5619
0.13 0.01 0.91 -0.71 10.05 0.02 0.02 0.05 5625
0.14 -0.01 0.98 -0.80 10.01 0.02 0.02 0.04 5632
0.12 0.02 0.90 -0.79 10.02 0.02 0.02 0.05 5638
0.14 0.01 0.95 -0.80 10.01 0.02 0.02 0.05 5644
0.11 -0.01 0.94 -0.77 9.99 0.02 0.03 0.05 5651
0.15 -0.00 0.94 -0.75 10.02 0.02 0.03 0.05 5657
0.17 -0.01 0.93 -0.74 10.03 0.03 0.03 0.05 5663
0.16 -0.02 0.95 -0.75 9.99 0.03 0.00 0.05 5669
0.16 -0.02 0.94 -0.73 9.98 0.03 0.03 0.05 5676
0.14 -0.01 0.93 -0.78 10.02 0.03 0.04 0.05 5682
0.15 -0.01 0.91 -0.71 10.00 0.03 0.03 0.05 5688
0.10 -0.01 1.00 -0.77 9.97 0.03 0.03 0.05 5694
0.15 -0.01 0.97 -0.73 9.98 0.03 0.03 0.04 5701
0.19 -0.02 0.91 -0.78 10.03 0.03 0.04 0.04 5707
0.22 -0.02 0.97 -0.79 9.91 0.04 0.00 0.04 5713
0.21 -0.02 1.03 -1.00 9.98 0.04 0.03 0.04 5720
0.22 -0.02 1.00 -0.80 9.98 0.04 0.03 0.04 5726
0.20 -0.02 1.05 -0.81 10.04 0.05 0.04 0.04 5732
0.21 -0.02 0.97 -0.76 10.05 0.06 0.04 0.04 5738
0.23 -0.02 1.08 -0.83 10.06 0.10 0.04 0.03 5744
0.23 -0.02 0.98 -0.80 10.06 0.08 0.05 0.03 5750
0.23 -0.01 0.99 -0.81 10.07 0.10 0.05 0.04 5757
0.26 -0.02 1.07 -0.80 10.07 0.12 0.05 0.03 5764
0.29 -0.03 1.03 -0.85 10.08 0.15 0.05 0.03 5770
0.34 -0.01 1.07 -0.86 10.06 0.17 0.06 0.03 5776
0.38 -0.02 1.02 -0.86 10.17 0.20 0.07 0.02 5782
0.39 -0.03 1.14 -0.96 10.12 0.24 0.07 0.02 5788
0.39 -0.02 1.10 -0.89 10.25 0.29 0.08 0.01 5795
0.43 -0.03 1.13 -0.90 10.34 0.35 0.09 0.01 5801
0.40 -0.04 1.17 -0.92 10.44 0.43 0.11 -0.01 5808
0.41 -0.01 1.16 -1.04 10.51 0.56 0.13 -0.02 5814
0.45 -0.03 1.25 -1.13 10.77 0.71 0.17 -0.03 5821
0.49 -0.03 1.24 -1.19 10.76 0.84 0.21 -0.05 5827
0.52 -0.03 1.31 -1.23 10.82 1.00 0.23 -0.07 5833
0.54 -0.03 1.40 -1.32 11.07 1.17 0.26 -0.09 5839
0.61 -0.03 1.31 -1.44 10.95 1.29 0.26 -0.11 5846
0.63 -0.03 1.38 -1.52 11.24 1.39 0.26 -0.11 5853
0.68 -0.04 1.26 -1.66 11.36 1.50 0.27 -0.13 5859
0.66 -0.03 1.34 -1.75 11.58 1.61 0.28 -0.13 5865
0.70 -0.05 1.43 -1.23 11.55 1.72 0.30 -0.14 5871
0.68 -0.05 1.35 -1.91 11.58 1.83 0.34 -0.15 5878
0.67 -0.03 1.22 -2.07 11.34 1.94 0.38 -0.14 5884
0.65 -0.04 1.21 -2.16 11.63 2.04 0.46 -0.13 5891
0.63 -0.04 1.31 -2.35 11.35 2.16 0.59 -0.12 5897
0.56 -0.03 1.34 -2.54 11.86 2.30 0.75 -0.11 5903
0.48 -0.03 1.33 -2.75 12.29 2.46 0.94 -0.10 5910
0.38 -0.01 1.44 -2.90 12.60 2.65 1.12 -0.09 5916
0.30 -0.02 1.46 -2.96 12.72 2.85 1.34 -0.08 5922
0.24 -0.01 1.31 -3.31 12.66 3.06 1.54 -0.07 5928
0.21 -0.02 1.06 -3.58 13.41 3.25 1.71 -0.02 5936
0.13 -0.01 0.93 -3.79 14.46 3.48 1.91 0.05 5942
0.10 -0.01 0.67 -3.95 13.57 3.63 2.05 0.16 5948
0.12 -0.01 1.00 -4.51 15.26 3.75 2.00 0.26 5954
0.15 -0.01 1.93 -5.04 15.59 3.98 2.10 0.33 5960
0.09 -0.01 2.04 -5.68 17.71 4.14 2.18 0.36 5966
0.09 0.00 2.68 -6.58 19.17 4.23 2.39 0.43 5974
0.11 -0.01 2.91 -7.69 21.45 4.28 2.47 0.47 5980
0.11 -0.01 3.36 -8.23 22.81 4.28 2.50 0.53 5986
0.08 -0.01 4.04 -8.26 22.41 4.28 2.56 0.61 5992
0.11 -0.01 4.79 -8.36 21.17 4.28 2.70 0.71 5998
0.05 -0.01 5.78 -8.33 21.29 4.28 2.94 0.78 6004
0.06 -0.01 7.25 -8.35 22.13 4.28 3.40 0.80 6011
0.07 -0.01 8.03 -7.49 22.43 4.28 3.96 0.74 6018
0.08 -0.01 6.29 -6.47 21.88 4.28 4.27 0.59 6024
0.04 -0.00 3.69 -4.94 22.03 4.28 4.28 0.41 6030
0.07 -0.01 2.35 -2.16 22.34 4.28 4.28 0.19 6036
0.05 -0.01 -0.92 -0.41 21.56 4.26 4.28 -0.05 6042
0.03 -0.00 -3.23 3.07 18.64 4.19 4.28 -0.28 6049
0.05 0.01 -4.92 5.79 16.04 3.96 3.67 -0.53 6055
0.04 -0.00 -5.59 8.41 14.29 3.48 2.54 -0.70 6062
0.02 -0.00 -11.72 16.58 9.58 3.07 1.59 -0.84 6068
0.04 -0.00 -7.89 13.28 5.30 2.43 -0.47 -1.45 6074
0.04 -0.00 -9.67 13.03 10.91 0.35 -2.78 -1.72 6080
0.02 -0.00 -3.85 14.26 14.57 -1.21 -3.71 -1.76 6087
0.04 -0.00 -0.52 9.65 17.66 -2.15 -4.02 -1.82 6093
0.04 -0.00 0.71 5.66 15.91 -2.57 -3.80 -2.06 6099
0.03 -0.00 1.31 4.38 13.58 -2.78 -3.43 -2.44 6106
0.05 -0.00 1.72 3.95 11.42 -2.84 -2.85 -2.84 6112
0.04 -0.00 1.48 3.76 9.18 -2.85 -2.32 -3.21 6119
0.02 -0.00 0.88 3.87 8.26 -2.88 -1.98 -3.44 6125
0.04 0.01 0.30 4.21 8.03 -2.97 -1.83 -3.67 6131
0.03 -0.00 -0.05 4.56 8.59 -3.11 -1.87 -3.83 6137
0.03 -0.00 -0.03 4.40 9.12 -3.25 -2.04 -3.90 6144
0.01 -0.00 0.38 4.07 9.60 -3.42 -2.31 -3.89 6150
0.02 0.01 1.02 3.54 10.22 -3.63 -2.58 -3.80 6156
0.03 -0.00 1.59 2.86 10.48 -3.86 -2.75 -3.62 6163
0.03 -0.00 2.45 2.34 10.73 -4.07 -2.81 -3.34 6169
0.04 0.01 3.78 2.51 11.90 -4.20 -2.77 -3.16 6175
0.03 -0.00 4.69 2.18 12.22 -4.26 -2.80 -2.94 6181
0.04 -0.00 5.32 0.95 12.51 -4.28 -2.82 -2.68 6188
0.04 0.01 6.02 -0.44 12.15 -4.28 -2.79 -2.38 6194
0.04 -0.00 7.05 -1.25 12.45 -4.28 -2.74 -2.09 6201
0.03 -0.00 7.63 -1.89 11.97 -4.28 -2.74 -1.81 6207
0.04 -0.00 8.15 -2.53 11.81 -4.28 -2.74 -1.52 6213
0.04 -0.00 8.96 -3.09 11.41 -4.28 -2.72 -1.22 6219
0.03 -0.00 10.00 -3.54 11.31 -4.28 -2.66 -0.92 6225
0.05 0.00 11.28 -4.07 11.32 -4.28 -2.56 -0.65 6233
0.05 -0.00 12.86 -4.54 11.69 -4.28 -2.37 -0.41 6239
0.04 -0.00 13.35 -5.05 11.65 -4.28 -2.02 -0.19 6245
0.04 -0.00 13.85 -5.58 11.86 -4.25 -1.67 0.02 6251
0.04 -0.00 14.10 -6.43 12.38 -4.18 -1.17 0.24 6258
0.03 -0.00 13.71 -7.21 12.80 -4.09 -0.68 0.47 6264
0.03 -0.00 13.23 -7.89 13.40 -3.95 -0.28 0.74 6270
0.03 -0.00 12.82 -8.38 13.84 -3.79 0.00 1.00 6277
0.04 0.00 12.55 -8.89 14.20 -3.61 0.17 1.32 6283
0.04 -0.00 12.64 -9.14 14.41 -3.43 0.27 1.64 6290
0.03 -0.00 13.07 -9.45 14.99 -3.26 0.40 1.93 6296
0.05 -0.00 13.25 -9.82 15.49 -3.12 0.61 2.18 6302
0.04 -0.00 13.06 -10.20 15.78 -2.99 0.89 2.37 6308
0.04 -0.00 12.64 -10.49 15.76 -2.88 1.19 2.52 6316
0.04 -0.00 12.04 -10.67 15.61 -2.76 1.47 2.60 6322
0.03 -0.00 11.22 -10.77 15.35 -2.65 1.70 2.64 6328
0.05 -0.01 10.41 -10.90 15.06 -2.52 1.87 2.62 6334
0.03 -0.00 9.49 -11.12 14.72 -2.37 1.99 2.52 6341
0.03 0.00 8.59 -11.22 14.26 -2.22 2.06 2.35 6347
0.04 -0.00 7.76 -11.22 13.85 -2.05 2.09 2.11 6353
0.02 -0.00 6.97 -11.06 13.43 -1.88 2.11 1.79 6360
0.03 -0.00 6.16 -11.00 13.09 -1.70 2.10 1.43 6367
0.03 -0.00 5.57 -10.95 12.89 -1.52 2.07 1.04 6373
0.02 -0.00 5.20 -10.76 13.06 -1.36 2.07 0.63 6379
0.04 -0.00 5.15 -10.45 13.35 -1.26 2.13 0.24 6385
0.04 -0.00 5.05 -10.23 14.00 -1.17 2.27 -0.14 6391
0.03 -0.00 4.30 -10.06 14.39 -1.13 2.49 -0.50 6398
0.04 -0.00 4.50 -9.94 14.76 -1.13 2.78 -0.82 6405
0.03 -0.00 3.84 -9.83 15.02 -1.14 3.06 -1.09 6411
0.03 -0.00 3.14 -9.72 15.29 -1.17 3.35 -1.31 6417
0.05 -0.01 2.14 -9.50 15.44 -1.23 3.58 -1.43 6423
0.03 -0.00 1.06 -9.28 15.55 -1.31 3.75 -1.53 6429
0.03 -0.00 -0.11 -9.26 15.38 -1.40 3.84 -1.58 6436
0.05 -0.00 -1.33 -9.30 15.10 -1.47 3.82 -1.58 6443
0.03 -0.00 -2.25 -9.57 14.59 -1.53 3.68 -1.57 6449
0.02 -0.00 -3.01 -9.91 14.11 -1.60 3.45 -1.54 6455
0.03 -0.00 -3.57 -10.36 13.67 -1.61 3.13 -1.50 6461
0.03 -0.00 -3.98 -10.65 12.90 -1.65 2.80 -1.47 6468
0.03 -0.00 -4.90 -10.79 11.86 -1.67 2.41 -1.44 6474
0.05 -0.00 -4.61 -10.89 10.90 -1.66 2.20 -1.40 6480
0.03 -0.00 -4.95 -11.13 10.21 -1.60 2.04 -1.31 6487
0.04 -0.00 -5.39 -11.47 9.91 -1.49 2.00 -1.18 6493
0.04 -0.00 -5.92 -11.87 9.61 -1.34 1.94 -1.06 6500
0.03 -0.00 -6.40 -12.42 9.28 -1.17 1.79 -0.96 6506
0.03 -0.00 -6.92 -12.78 8.95 -1.00 1.54 -0.89 6512
0.05 -0.00 -7.22 -13.11 8.76 -0.84 1.27 -0.81 6518
0.03 -0.00 -7.42 -13.54 8.61 -0.70 0.99 -0.71 6524
0.02 -0.00 -7.46 -14.03 8.43 -0.59 0.71 -0.58 6531
0.03 -0.00 -7.51 -14.66 8.13 -0.44 0.44 -0.44 6538
0.03 -0.00 -7.38 -15.52 7.77 -0.26 0.18 -0.28 6544
0.03 -0.00 -14.76 -17.66 12.49 0.08 -0.65 -0.01 6550
0.04 -0.00 -23.65 -17.30 17.16 1.40 -3.23 0.87 6556
0.03 -0.00 1.31 -8.72 4.50 1.54 -4.09 1.22 6562
0.04 -0.00 2.54 0.03 5.59 1.49 -4.28 1.02 6568
0.04 -0.00 8.24 5.85 8.89 1.61 -4.28 1.08 6576
0.04 -0.00 9.89 6.83 10.93 1.60 -4.24 1.37 6582
0.03 -0.00 7.27 7.56 12.47 1.49 -3.68 1.79 6588
0.03 0.00 2.65 3.90 11.68 1.45 -3.11 2.12 6594
0.03 -0.00 -0.28 2.45 8.98 1.53 -2.59 2.18 6600
0.02 0.08 -2.91 2.06 9.45 1.68 -2.21 2.06 6606
0.02 0.16 -7.11 1.30 12.54 1.95 -1.82 1.83 6614
0.03 0.23 -10.53 1.61 12.85 2.22 -1.63 1.42 6620
0.02 0.33 -11.79 1.45 14.35 2.46 -1.56 0.78 6626
0.01 0.46 -10.08 0.17 15.86 2.54 -1.53 0.05 6632
0.01 0.46 -6.08 0.06 15.21 2.45 -1.35 -0.58 6639
0.01 0.43 -1.53 -0.92 16.48 2.29 -1.18 -0.99 6645
0.02 0.47 4.75 -3.13 20.34 2.08 -1.10 -1.02 6651
0.02 0.46 8.06 -4.25 19.41 1.19 -1.71 -0.50 6658
0.01 0.56 4.66 -3.43 11.85 0.69 -1.13 0.12 6664
0.01 0.54 1.16 -2.12 11.96 0.42 -0.56 0.25 6671
0.01 0.53 1.25 -1.83 10.59 0.31 -0.39 0.27 6677
0.01 0.53 0.51 -0.56 10.16 0.33 -0.54 0.26 6683
0.02 0.48 0.60 -0.69 7.97 0.28 -0.61 0.11 6689
0.01 0.51 1.00 -0.55 10.49 0.19 -0.51 0.03 6695
0.02 0.48 1.33 -0.83 10.04 0.13 -0.39 0.04 6703
0.03 0.47 1.34 -0.80 10.03 0.10 -0.35 0.05 6709
0.02 0.46 1.08 -0.78 9.98 0.08 -0.37 0.05 6715
0.02 0.46 1.02 -0.63 10.14 0.06 -0.33 0.03 6721
0.02 0.47 1.00 -0.78 10.08 0.04 -0.30 0.02 6727
0.02 0.47 1.09 -0.62 9.95 0.01 -0.26 0.02 6734
0.03 0.50 0.98 -0.69 10.28 -0.00 -0.21 0.04 6740
0.04 0.55 0.81 -0.64 9.92 -0.01 -0.17 0.04 6747
0.03 0.50 0.84 -0.75 10.09 -0.00 -0.13 0.05 6753
0.03 0.51 0.91 -0.75 10.12 -0.00 -0.12 0.05 6759
0.03 0.49 0.92 -0.69 10.09 0.00 -0.10 0.06 6765
0.02 0.49 0.91 -0.69 10.13 0.00 -0.09 0.06 6772
0.02 0.49 0.91 -0.73 10.13 0.01 -0.09 0.07 6778
0.03 0.46 0.95 -0.74 10.02 0.01 -0.08 0.06 6785
0.03 0.44 0.97 -0.70 10.04 0.01 -0.08 0.06 6791
0.03 0.46 1.06 -0.71 10.03 0.01 -0.08 0.05 6797
0.03 0.45 0.98 -0.69 9.91 0.01 -0.09 0.04 6804
0.03 0.43 1.00 -0.64 9.96 0.00 -0.09 0.04 6810
0.03 0.42 1.02 -0.67 9.90 -0.00 -0.10 0.03 6816
0.04 0.39 0.96 -0.65 10.01 0.01 -0.10 0.03 6822
0.04 0.36 0.93 -0.68 10.00 0.01 -0.10 0.03 6829
0.03 0.34 0.89 -0.68 10.15 0.01 -0.10 0.03 6835
0.06 0.34 0.89 -0.66 10.04 0.02 -0.09 0.03 6841
0.06 0.31 0.86 -0.68 10.06 0.02 -0.08 0.04 6848
0.07 0.27 0.88 -0.68 9.95 0.03 -0.06 0.05 6854
0.07 0.25 0.92 -0.68 9.97 0.03 -0.05 0.05 6860
0.07 0.24 0.91 -0.65 10.04 0.03 -0.04 0.05 6866
0.08 0.18 0.94 -0.67 9.98 0.04 -0.03 0.05 6873
0.08 0.15 0.93 -0.69 10.01 0.04 -0.02 0.05 6879
0.09 0.17 0.95 -0.70 9.99 0.05 -0.01 0.05 6886
0.10 0.11 0.92 -0.72 9.95 0.05 -0.01 0.05 6892
0.10 0.10 0.93 -0.70 10.01 0.05 0.01 0.04 6898
0.11 0.08 0.98 -0.76 9.99 0.05 0.01 0.05 6904
0.12 0.07 0.94 -0.74 9.97 0.05 0.02 0.04 6910
0.11 0.03 0.94 -0.81 10.00 0.04 0.02 0.04 6917
0.12 0.03 0.96 -0.76 9.98 0.04 0.03 0.04 6923
0.15 -0.00 0.95 -0.77 10.05 0.04 0.03 0.04 6930
0.18 -0.00 0.98 -0.74 9.95 0.04 0.03 0.04 6936
0.18 -0.02 0.94 -0.73 9.98 0.03 0.03 0.04 6942
0.18 -0.00 0.94 -0.70 9.86 0.03 0.03 0.04 6948
0.20 -0.02 1.02 -0.73 10.00 0.03 0.03 0.04 6955
0.22 -0.02 1.04 -0.78 9.95 0.04 0.02 0.04 6961
0.22 -0.02 0.96 -0.76 9.92 0.04 0.02 0.04 6967
0.24 0.00 1.04 -0.79 9.97 0.04 0.02 0.03 6973
0.25 -0.02 1.02 -0.81 9.96 0.04 0.01 0.03 6979
0.28 -0.03 1.01 -0.80 9.95 0.03 0.01 0.03 6986
0.26 0.00 1.08 -0.79 9.96 0.03 0.01 0.03 6992
0.26 -0.01 1.03 -0.83 9.98 0.03 0.00 0.03 6999
0.26 -0.01 1.00 -0.71 9.87 0.03 0.00 0.03 7005
0.25 -0.02 1.07 -0.78 9.90 0.03 -0.00 0.02 7011
0.25 -0.02 1.03 -0.79 10.10 0.02 -0.00 0.02 7017
0.25 -0.02 0.95 -0.81 10.06 0.03 0.01 0.02 7023
0.23 -0.02 1.04 -0.83 9.99 0.03 0.01 0.02 7029
0.25 -0.02 0.97 -0.86 10.02 0.03 0.02 0.02 7035
0.27 -0.02 0.97 -0.82 9.98 0.04 0.02 0.02 7043
0.33 -0.03 0.95 -0.82 9.99 0.05 0.02 0.03 7049
0.31 -0.03 1.07 -0.85 9.98 0.06 0.02 0.03 7055
0.30 -0.02 0.99 -0.81 10.03 0.07 0.02 0.03 7061
0.30 -0.03 1.09 -0.90 10.04 0.08 0.03 0.03 7067
0.37 -0.04 1.02 -0.82 10.05 0.09 0.03 0.03 7073
0.30 -0.03 1.03 -0.79 9.92 0.10 0.03 0.03 7079
0.26 -0.01 1.05 -0.86 9.97 0.11 0.03 0.04 7086
0.30 -0.01 1.07 -0.88 10.01 0.11 0.04 0.03 7093
0.31 -0.01 1.12 -0.88 10.01 0.12 0.04 0.03 7099
0.33 -0.03 1.18 -0.88 9.98 0.13 0.05 0.03 7105
0.40 -0.04 1.15 -0.94 10.02 0.15 0.06 0.03 7111
0.37 0.01 1.18 -0.95 9.92 0.15 0.05 0.03 7117
0.32 -0.02 1.13 -0.92 9.99 0.16 0.05 0.02 7123
0.32 -0.02 1.09 -0.95 10.07 0.19 0.05 0.02 7131
0.33 -0.01 1.17 -1.00 10.08 0.21 0.03 0.02 7137
0.38 -0.03 1.14 -1.00 10.01 0.23 0.03 0.02 7143
0.39 -0.03 1.21 -1.07 10.01 0.24 0.01 0.01 7149
0.37 -0.03 1.17 -1.03 10.15 0.26 -0.01 0.00 7155
0.39 -0.03 1.30 -1.06 10.20 0.28 -0.01 -0.01 7162
0.39 -0.02 1.35 -1.16 10.02 0.33 -0.02 -0.02 7169
0.39 -0.03 1.82 -1.20 10.04 0.34 -0.03 -0.03 7175
0.43 -0.03 1.23 -1.15 10.18 0.38 -0.03 -0.04 7181
0.46 -0.02 1.27 -1.25 9.91 0.43 -0.00 -0.06 7187
0.49 -0.03 1.29 -1.37 10.32 0.47 -0.00 -0.10 7194
0.50 -0.03 1.28 -1.31 10.27 0.52 0.00 -0.08 7200
0.59 -0.03 1.22 -1.37 10.32 0.59 -0.00 -0.09 7206
0.60 -0.03 1.32 -1.39 10.58 0.66 0.01 -0.10 7213
0.63 -0.03 1.18 -1.55 10.24 0.72 -0.00 -0.11 7219
0.68 -0.03 1.17 -1.58 10.53 0.77 -0.01 -0.12 7226
0.72 -0.04 1.21 -1.60 10.66 0.83 -0.01 -0.12 7232
0.75 -0.04 1.30 -1.70 10.65 0.90 -0.01 -0.11 7238
0.79 -0.04 1.19 -1.68 10.76 0.98 -0.01 -0.11 7244
0.80 -0.04 1.26 -1.85 10.75 1.05 -0.02 -0.11 7251
0.83 -0.03 1.17 -1.90 10.85 1.12 -0.03 -0.11 7258
0.85 -0.05 1.31 -1.95 11.03 1.19 -0.03 -0.11 7264
0.87 -0.04 1.26 -2.03 10.87 1.27 -0.03 -0.11 7270
0.89 -0.04 1.31 -2.13 10.90 1.35 -0.02 -0.12 7276
0.90 -0.05 1.30 -2.24 11.00 1.42 -0.00 -0.12 7283
0.91 -0.05 1.26 -2.36 10.97 1.51 0.06 -0.12 7289
0.92 -0.05 0.64 -2.40 11.05 1.62 0.10 -0.13 7296
0.91 -0.06 1.21 -2.46 11.17 1.73 0.09 -0.12 7302
0.89 -0.04 1.20 -2.61 11.05 1.84 0.12 -0.12 7309
0.90 -0.05 1.23 -2.76 10.96 1.96 0.16 -0.12 7315
0.85 -0.04 1.29 -2.90 11.32 2.08 0.23 -0.11 7321
0.87 -0.03 1.04 -2.95 11.66 2.23 0.32 -0.07 7327
0.83 -0.04 0.81 -3.09 11.98 2.42 0.46 -0.07 7333
0.76 -0.04 1.14 -3.44 11.83 2.62 0.62 -0.04 7341
0.66 -0.04 1.66 -3.37 11.83 2.83 0.83 -0.05 7347
0.54 -0.04 1.13 -3.66 11.51 3.02 1.01 -0.06 7353
0.45 -0.02 0.70 -3.80 12.78 3.26 1.30 -0.03 7359
0.36 -0.03 0.28 -4.12 12.80 3.52 1.52 0.03 7366
0.25 -0.03 0.51 -4.60 14.29 3.78 1.62 0.14 7372
0.22 -0.02 0.57 -4.98 14.94 4.00 1.61 0.24 7378
0.21 -0.02 0.66 -5.57 15.25 4.16 1.61 0.35 7385
0.18 -0.02 0.55 -6.35 14.78 4.19 1.71 0.51 7391
0.17 -0.00 1.04 -7.87 16.71 4.19 1.75 0.67 7397
0.16 -0.01 1.85 -8.58 19.74 4.23 1.88 0.76 7404
0.10 -0.01 2.49 -9.56 23.01 4.28 2.05 0.80 7410
0.10 -0.00 3.62 -9.97 23.38 4.28 2.32 0.82 7416
0.11 -0.01 1.95 -10.38 20.05 4.28 2.42 0.90 7422
0.08 -0.01 1.89 -9.83 20.85 4.28 2.39 0.93 7429
0.09 -0.01 3.26 -9.36 19.93 4.28 2.35 0.97 7436
0.07 -0.01 4.80 -9.07 20.11 4.28 2.47 0.97 7442
0.06 -0.01 5.97 -8.19 19.83 4.28 2.79 0.95 7448
0.06 0.00 5.98 -4.86 18.14 4.28 3.23 0.86 7454
0.05 -0.01 4.57 -5.30 19.99 4.28 3.56 0.73 7460
0.04 -0.00 2.16 -3.49 20.51 4.27 3.78 0.57 7467
0.06 0.01 -0.23 -1.69 21.21 4.25 3.82 0.41 7474
0.04 -0.00 -3.44 0.95 20.44 4.16 3.60 0.23 7480
0.04 -0.00 -3.93 4.41 18.75 3.84 3.13 0.07 7486
0.04 -0.00 -8.49 10.42 12.97 3.23 2.43 0.02 7492
0.04 -0.00 -7.70 13.01 11.08 2.51 1.77 -0.09 7498
0.03 -0.00 -11.09 17.40 -5.98 1.82 0.60 -0.78 7505
0.04 0.00 -11.42 14.88 12.16 0.16 -2.11 -1.49 7512
0.04 -0.00 -5.68 12.77 17.20 -1.82 -2.96 -1.86 7518
0.03 -0.00 -1.25 8.41 17.67 -2.82 -3.14 -2.16 7524
0.04 -0.00 0.08 4.27 15.56 -3.14 -3.01 -2.54 7530
0.03 -0.00 0.09 2.38 12.15 -3.22 -2.67 -2.99 7537
0.03 -0.00 0.49 2.22 9.43 -3.19 -2.14 -3.43 7543
0.04 0.01 0.89 2.42 8.00 -3.09 -1.62 -3.80 7549
0.04 -0.00 1.00 2.41 7.05 -3.01 -1.27 -4.09 7556
0.04 -0.00 0.88 2.47 6.82 -2.94 -1.09 -4.27 7562
0.03 -0.00 1.03 2.77 7.08 -2.94 -1.03 -4.28 7568
0.03 -0.00 1.44 3.25 7.55 -3.02 -1.07 -4.28 7574
0.03 -0.00 1.92 3.50 8.31 -3.18 -1.19 -4.28 7580
0.03 -0.00 2.41 3.37 9.14 -3.44 -1.30 -4.28 7587
0.03 -0.00 3.06 3.38 10.26 -3.63 -1.34 -4.15 7593
0.04 -0.00 3.49 3.27 11.31 -3.90 -1.36 -3.83 7600
0.03 -0.00 3.58 2.53 12.05 -4.11 -1.38 -3.39 7606
0.03 -0.00 4.11 1.46 11.44 -4.22 -1.40 -2.85 7612
0.05 -0.01 5.55 0.85 11.17 -4.28 -1.58 -2.47 7618
0.04 -0.00 6.04 0.68 11.25 -4.28 -1.85 -2.09 7625
0.02 -0.00 6.07 -0.18 11.43 -4.28 -2.11 -1.74 7631
0.04 -0.00 6.87 -1.80 11.37 -4.28 -2.31 -1.43 7638
0.03 -0.00 8.07 -3.00 11.52 -4.28 -2.46 -1.16 7644
0.03 -0.00 9.02 -3.68 11.68 -4.28 -2.51 -0.95 7650
0.04 -0.00 9.82 -4.15 11.51 -4.28 -2.44 -0.78 7656
0.04 -0.00 10.79 -4.78 11.24 -4.28 -2.24 -0.65 7663
0.03 -0.00 11.74 -5.59 11.03 -4.28 -1.93 -0.56 7669
0.05 -0.00 12.38 -6.40 11.27 -4.28 -1.55 -0.49 7675
0.04 -0.00 13.09 -6.80 11.19 -4.28 -1.18 -0.44 7682
0.03 -0.00 13.67 -7.49 12.23 -4.23 -0.68 -0.38 7689
0.05 -0.00 13.60 -8.12 12.52 -4.15 -0.15 -0.30 7695
0.04 -0.00 13.25 -8.81 13.11 -4.04 0.33 -0.18 7701
0.04 -0.00 12.95 -9.51 13.96 -3.89 0.73 -0.04 7707
0.04 -0.00 12.58 -10.24 14.50 -3.74 1.03 0.11 7713
0.04 -0.00 12.15 -10.86 14.79 -3.60 1.23 0.35 7720
0.05 -0.00 11.88 -11.10 15.42 -3.45 1.35 0.61 7727
0.04 -0.00 11.54 -11.45 15.02 -3.30 1.44 0.90 7733
0.04 -0.00 11.42 -11.55 15.02 -3.13 1.50 1.16 7739
0.04 -0.00 11.17 -11.55 15.12 -2.96 1.62 1.39 7746
0.02 -0.00 11.08 -11.72 14.90 -2.79 1.78 1.57 7752
0.05 -0.00 10.81 -11.89 14.14 -2.61 1.97 1.69 7758
0.04 -0.00 10.44 -11.81 14.50 -2.43 2.18 1.75 7766
0.04 0.01 9.96 -11.73 14.16 -2.25 2.40 1.77 7772
0.03 -0.00 9.27 -11.73 13.84 -2.04 2.62 1.76 7778
0.04 -0.00 8.45 -11.77 13.59 -1.82 2.82 1.69 7784
0.05 -0.00 7.64 -11.79 13.64 -1.59 3.01 1.58 7790
0.03 -0.00 7.16 -11.80 14.11 -1.35 3.20 1.44 7797
0.03 -0.00 6.78 -11.74 14.77 -1.14 3.44 1.28 7803
0.04 -0.00 6.31 -11.86 15.24 -0.97 3.71 1.11 7810
0.04 -0.00 5.63 -12.11 15.62 -0.83 4.01 0.93 7816
0.04 0.01 4.93 -12.33 16.14 -0.74 4.23 0.75 7823
0.05 -0.00 4.11 -12.48 16.72 -0.70 4.28 0.60 7829
0.02 -0.00 3.08 -12.55 17.20 -0.73 4.28 0.47 7835
0.05 -0.01 1.96 -12.55 17.34 -0.74 4.28 0.39 7841
0.04 -0.00 0.99 -12.46 17.10 -0.80 4.28 0.33 7847
0.05 -0.00 0.15 -12.24 16.64 -0.87 4.27 0.29 7855
0.06 -0.01 -0.44 -11.96 15.91 -0.95 4.14 0.25 7861
0.04 -0.00 -1.00 -11.75 15.37 -1.02 3.88 0.21 7867
0.04 -0.00 -1.52 -11.59 14.89 -1.10 3.55 0.18 7873
0.05 -0.00 -1.75 -11.55 14.15 -1.19 3.25 0.15 7879
0.04 -0.00 -2.06 -11.49 13.53 -1.27 2.95 0.12 7886
0.03 -0.00 -2.33 -11.50 13.06 -1.37 2.68 0.10 7892
0.03 -0.00 -2.47 -11.48 12.45 -1.46 2.48 0.07 7899
0.03 -0.00 -3.09 -11.58 11.49 -1.49 2.40 0.08 7905
0.04 -0.00 -3.98 -12.18 10.70 -1.46 2.53 0.18 7912
0.04 -0.00 -4.69 -12.64 10.22 -1.33 2.68 0.37 7918
0.03 -0.00 -5.74 -13.04 9.86 -1.13 2.63 0.53 7924
0.04 -0.00 -6.95 -13.37 9.03 -0.90 2.28 0.65 7930
0.03 -0.00 -7.56 -13.50 7.77 -0.69 1.71 0.70 7937
0.04 -0.00 -7.09 -13.63 6.57 -0.55 0.98 0.69 7943
0.04 -0.00 -6.17 -13.96 5.60 -0.41 0.24 0.64 7950
0.04 -0.00 -5.21 -14.55 5.66 -0.26 -0.22 0.58 7956
0.04 -0.00 -4.22 -15.12 6.15 -0.08 -0.55 0.55 7962
0.04 -0.00 -3.29 -15.73 7.03 0.17 -0.63 0.54 7968
0.04 -0.00 -2.59 -15.88 7.44 0.43 -0.53 0.54 7974
0.03 -0.00 -2.36 -15.67 7.71 0.68 -0.38 0.54 7981
0.03 -0.00 -2.92 -15.09 7.75 0.89 -0.31 0.55 7987
0.04 -0.00 -23.69 -12.56 25.27 1.98 -2.46 0.99 7994
0.03 -0.00 -1.63 -3.06 14.22 2.42 -3.76 1.89 8000
0.03 -0.00 4.82 2.10 9.71 2.14 -4.28 1.85 8006
0.04 -0.00 6.76 9.32 10.96 1.94 -4.28 1.89 8012
0.04 -0.00 7.42 5.22 8.55 1.67 -4.28 2.03 8018
0.02 -0.00 3.81 2.30 8.02 1.43 -4.27 2.14 8025
0.02 0.01 0.48 0.10 9.61 1.37 -4.27 2.23 8032
0.04 -0.00 -1.60 -1.08 10.07 1.40 -4.26 2.21 8038
0.03 -0.00 -2.64 -0.19 11.06 1.42 -4.25 2.09 8044
0.02 0.05 -3.75 1.24 13.52 1.47 -4.23 1.89 8050
0.04 0.14 -5.82 3.67 17.20 1.62 -3.81 1.60 8056
0.02 0.22 -7.64 3.45 18.66 1.82 -2.80 1.29 8064
0.01 0.34 -8.66 2.59 14.69 1.84 -2.03 0.92 8070
0.02 0.45 -9.41 0.90 14.28 1.84 -1.59 0.42 8076
0.01 0.49 -8.57 -0.29 14.32 1.83 -1.30 -0.15 8082
0.01 0.54 -4.00 0.00 12.48 1.81 -1.13 -0.65 8088
0.01 0.53 2.07 -1.21 13.47 1.88 -1.02 -0.88 8095
0.01 0.49 5.78 -2.75 20.77 1.86 -1.38 -0.75 8101
0.03 0.52 5.51 -2.69 16.24 1.11 -1.71 -0.30 8108
0.02 0.52 3.70 -1.38 11.49 0.73 -1.17 0.13 8114
0.01 0.52 1.23 -2.02 12.49 0.47 -0.70 0.23 8121
0.00 0.53 1.02 -1.40 10.52 0.31 -0.45 0.24 8127
0.03 0.51 0.66 0.24 12.60 0.28 -0.53 0.14 8133
0.02 0.51 0.79 -0.43 9.93 0.23 -0.52 0.09 8139
0.02 0.50 1.08 -0.44 10.06 0.19 -0.47 0.06 8145
0.02 0.54 1.11 -0.76 9.94 0.15 -0.41 0.06 8152
0.02 0.54 1.13 -0.79 10.12 0.11 -0.35 0.07 8159
0.02 0.57 0.89 -0.71 10.15 0.08 -0.32 0.06 8165
0.02 0.56 0.83 -0.65 10.24 0.04 -0.28 0.03 8171
0.01 0.61 0.84 -0.67 10.28 0.03 -0.23 0.02 8177
0.01 0.63 0.89 -0.72 10.11 0.00 -0.17 0.02 8183
0.01 0.61 0.89 -0.75 10.12 -0.01 -0.14 0.02 8190
0.01 0.68 0.91 -0.78 10.20 -0.01 -0.12 0.02 8197
0.02 0.65 0.92 -0.71 9.93 -0.02 -0.11 0.03 8203
0.02 0.65 0.84 -0.74 10.05 -0.01 -0.09 0.04 8209
0.03 0.61 0.88 -0.64 10.08 -0.01 -0.08 0.04 8215
0.03 0.59 0.88 -0.65 10.09 -0.00 -0.07 0.05 8222
0.03 0.57 0.91 -0.67 10.04 0.01 -0.07 0.05 8228
0.03 0.60 0.94 -0.68 10.01 0.02 -0.07 0.05 8235
0.03 0.53 0.95 -0.68 10.00 0.02 -0.08 0.05 8241
0.03 0.54 0.98 -0.64 9.95 0.01 -0.08 0.05 8247
0.03 0.51 0.93 -0.64 9.99 0.01 -0.09 0.04 8253
0.06 0.50 0.97 -0.61 10.01 0.01 -0.10 0.04 8260
0.03 0.48 0.94 -0.70 9.97 0.01 -0.10 0.03 8266
0.03 0.48 0.88 -0.66 9.99 0.01 -0.10 0.04 8272
0.05 0.43 0.89 -0.64 10.07 0.01 -0.09 0.03 8279
0.06 0.42 0.89 -0.63 10.00 0.02 -0.09 0.03 8285
0.05 0.39 0.91 -0.67 10.02 0.02 -0.08 0.04 8291
0.07 0.38 0.82 -0.66 10.03 0.02 -0.07 0.04 8298
0.06 0.36 0.83 -0.66 10.00 0.02 -0.06 0.05 8304
0.05 0.38 0.87 -0.70 10.05 0.03 -0.05 0.05 8310
0.07 0.30 0.87 -0.72 10.04 0.02 -0.04 0.05 8316
0.08 0.31 0.89 -0.70 9.96 0.02 -0.04 0.06 8323
0.08 0.28 0.90 -0.70 10.04 0.03 -0.03 0.05 8329
0.08 0.24 0.89 -0.69 9.94 0.03 -0.03 0.05 8335
0.10 0.20 0.90 -0.67 10.01 0.02 -0.03 0.05 8342
0.10 0.14 0.87 -0.72 10.01 0.03 -0.03 0.05 8348
0.11 0.15 0.93 -0.69 10.02 0.03 -0.02 0.05 8354
0.12 0.17 0.89 -0.70 9.99 0.02 -0.02 0.05 8360
0.11 0.13 0.91 -0.73 9.99 0.02 -0.02 0.04 8367
0.10 0.12 0.91 -0.68 9.94 0.02 -0.02 0.04 8373
0.11 0.11 0.91 -0.67 9.96 0.02 -0.03 0.04 8380
0.12 0.06 0.91 -0.69 9.97 0.02 -0.03 0.04 8386
0.12 0.07 0.91 -0.70 9.97 0.02 -0.03 0.04 8392
0.12 0.10 0.94 -0.69 9.95 0.02 -0.04 0.04 8398
0.13 0.08 0.87 -0.71 10.04 0.02 -0.04 0.04 8404
0.12 0.04 0.90 -0.73 9.97 0.02 -0.04 0.04 8411
0.12 0.05 0.90 -0.76 9.98 0.01 -0.04 0.04 8417
0.13 0.07 0.88 -0.74 9.94 0.01 -0.04 0.04 8424
0.15 0.05 0.90 -0.79 9.98 0.01 -0.03 0.04 8430
0.15 0.00 0.95 -0.75 9.98 0.01 -0.03 0.04 8436
0.17 0.03 0.97 -0.73 9.96 0.01 -0.02 0.03 8442
0.18 0.04 0.95 -0.74 9.95 0.01 -0.03 0.04 8449
0.17 0.01 0.94 -0.75 10.02 0.01 -0.02 0.03 8455
0.17 -0.01 0.92 -0.73 10.01 0.00 -0.02 0.03 8461
0.18 -0.00 0.92 -0.75 9.98 0.01 -0.02 0.03 8468
0.18 -0.00 0.93 -0.73 9.98 0.01 -0.02 0.04 8474
0.19 -0.02 0.92 -0.75 10.00 0.00 -0.01 0.04 8480
0.18 0.00 0.94 -0.81 9.97 0.01 -0.01 0.04 8486
0.20 -0.01 0.91 -0.76 9.96 0.01 -0.02 0.04 8493
0.19 0.00 0.93 -0.71 10.03 0.01 -0.02 0.04 8499
0.18 -0.01 0.95 -0.74 9.98 0.01 -0.02 0.04 8505
0.21 -0.00 0.95 -0.74 9.97 0.01 -0.01 0.04 8511
0.21 -0.02 0.91 -0.76 10.00 0.01 -0.00 0.04 8518
0.22 -0.02 0.92 -0.75 9.96 0.02 0.00 0.05 8524
0.22 -0.02 0.88 -0.76 10.05 0.02 0.01 0.05 8530
0.23 -0.02 0.92 -0.76 10.04 0.03 0.02 0.05 8537
0.24 -0.02 0.95 -0.77 10.09 0.03 0.02 0.05 8543
0.23 -0.02 0.89 -0.83 10.01 0.03 0.03 0.06 8549
0.23 -0.02 1.01 -0.78 9.89 0.03 0.03 0.05 8555
0.24 -0.02 1.01 -0.78 9.97 0.03 0.03 0.05 8561
0.24 -0.02 1.01 -0.72 9.98 0.03 0.03 0.05 8567
0.25 -0.03 0.96 -0.78 10.01 0.03 0.03 0.05 8574
0.25 -0.02 0.98 -0.75 9.89 0.03 0.03 0.05 8581
0.27 -0.02 1.05 -0.78 10.04 0.04 0.02 0.04 8587
0.28 -0.03 0.95 -0.76 10.03 0.04 0.02 0.04 8593
0.29 -0.02 0.99 -0.78 10.00 0.04 0.02 0.04 8599
0.32 -0.02 0.98 -0.78 10.05 0.05 0.02 0.04 8605
0.35 -0.03 1.01 -0.81 10.02 0.06 0.02 0.03 8612
0.34 -0.03 1.04 -0.83 9.99 0.07 0.01 0.02 8619
0.38 -0.01 1.07 -0.77 10.01 0.08 0.01 0.02 8625
0.41 -0.03 1.08 -0.82 10.05 0.09 0.01 0.02 8631
0.43 -0.04 1.10 -0.82 10.07 0.12 0.02 0.00 8637
0.45 -0.03 1.07 -0.86 10.11 0.14 0.03 -0.00 8643
0.51 -0.04 1.14 -0.90 10.17 0.18 0.04 -0.02 8650
0.52 -0.04 1.15 -0.98 10.21 0.22 0.05 -0.02 8656
0.55 -0.03 1.12 -0.97 10.24 0.27 0.05 -0.04 8663
0.60 -0.04 1.10 -0.91 10.23 0.34 0.06 -0.04 8669
0.62 -0.05 1.13 -1.00 10.35 0.43 0.07 -0.04 8675
0.64 -0.03 1.11 -1.09 10.48 0.54 0.08 -0.05 8682
0.71 -0.04 1.12 -1.06 10.64 0.68 0.09 -0.06 8688
0.75 -0.04 1.10 -1.18 10.67 0.82 0.12 -0.06 8694
0.76 -0.04 1.20 -1.20 10.92 0.98 0.15 -0.07 8700
0.79 -0.05 1.23 -1.30 11.11 1.13 0.15 -0.08 8707
0.83 -0.04 1.23 -1.44 10.73 1.21 0.14 -0.09 8714
0.86 -0.04 1.24 -1.51 11.06 1.32 0.14 -0.10 8720
0.88 -0.05 1.18 -1.63 11.19 1.41 0.15 -0.11 8726
0.91 -0.03 1.31 -1.67 10.94 1.49 0.14 -0.11 8732
0.91 -0.05 1.38 -1.79 11.14 1.57 0.13 -0.11 8739
0.91 -0.05 1.37 -1.90 11.22 1.65 0.12 -0.13 8745
0.95 -0.05 1.33 -2.00 11.20 1.73 0.11 -0.13 8752
0.95 -0.05 1.37 -2.17 11.53 1.83 0.10 -0.14 8758
0.96 -0.03 1.44 -2.22 11.34 1.93 0.09 -0.15 8765
0.97 -0.04 1.38 -2.28 11.57 2.04 0.11 -0.15 8771
0.98 -0.04 1.52 -1.86 11.71 2.16 0.12 -0.16 8777
0.95 -0.04 1.30 -2.46 11.88 2.31 0.16 -0.16 8783
0.94 -0.05 1.13 -2.67 11.82 2.47 0.21 -0.15 8790
0.90 -0.05 1.20 -2.87 12.07 2.64 0.29 -0.14 8797
0.86 -0.04 1.20 -3.01 11.86 2.81 0.41 -0.14 8803
0.79 -0.05 1.05 -3.10 11.85 2.98 0.57 -0.12 8809
0.67 -0.04 1.01 -3.52 11.81 3.16 0.79 -0.09 8815
0.55 -0.04 0.17 -3.47 12.07 3.35 1.04 -0.03 8822
0.42 -0.03 0.59 -3.99 12.57 3.54 1.29 0.05 8828
0.34 -0.01 0.57 -4.28 12.70 3.75 1.55 0.13 8835
0.27 -0.03 0.71 -4.65 13.19 3.95 1.70 0.21 8841
0.22 -0.02 0.80 -5.31 14.54 4.11 1.75 0.29 8847
0.15 -0.00 0.06 -6.08 15.57 4.14 1.70 0.40 8853
0.18 -0.02 0.61 -7.27 16.20 4.19 1.77 0.56 8860
0.11 -0.01 0.60 -8.43 14.63 4.14 1.94 0.75 8866
0.10 -0.01 1.08 -9.82 19.64 4.08 2.04 0.88 8872
0.11 -0.01 3.23 -10.34 23.83 4.21 2.25 0.97 8879
0.10 -0.01 4.04 -10.81 24.75 4.28 2.59 0.95 8885
0.09 -0.00 3.49 -10.40 21.53 4.28 2.85 0.99 8892
0.07 -0.01 3.93 -9.30 20.28 4.28 3.15 1.08 8898
0.05 -0.00 6.18 -9.55 20.80 4.28 3.52 1.14 8904
0.06 0.00 6.81 -8.56 21.18 4.28 4.08 1.11 8910
0.06 -0.01 6.90 -6.97 21.15 4.27 4.28 0.99 8916
0.06 -0.01 4.81 -5.08 21.90 4.22 4.28 0.76 8924
0.06 0.00 1.98 -2.77 20.95 4.16 4.28 0.48 8930
0.04 -0.00 -1.46 -0.26 19.96 4.07 4.28 0.19 8936
0.03 -0.00 -2.51 2.56 18.49 3.94 4.28 -0.09 8942
0.03 0.01 -3.93 5.49 16.20 3.68 4.10 -0.36 8948
0.04 -0.00 -4.85 8.39 15.14 3.28 3.19 -0.59 8954
0.03 -0.00 -8.93 12.18 8.94 2.85 2.32 -0.77 8962
0.04 -0.00 -9.29 13.51 4.51 2.52 0.91 -1.31 8968
0.04 -0.00 -8.91 12.25 11.81 0.90 -1.32 -1.67 8974
0.03 -0.00 -5.82 14.29 13.08 -1.10 -2.45 -1.78 8980
0.04 0.01 -1.69 11.06 16.51 -2.18 -2.98 -1.85 8986
0.04 -0.00 -0.22 5.77 16.26 -2.68 -3.19 -2.05 8993
0.02 -0.00 0.41 4.01 14.20 -2.99 -3.10 -2.36 8999
0.04 -0.00 1.04 3.68 11.68 -3.11 -2.74 -2.72 9006
0.03 -0.00 1.49 3.35 9.81 -3.14 -2.27 -3.07 9012
0.03 -0.00 1.52 2.97 8.55 -3.15 -1.92 -3.37 9018
0.04 -0.00 1.20 2.93 8.04 -3.17 -1.59 -3.62 9024
0.04 0.01 0.72 3.16 8.10 -3.23 -1.41 -3.78 9030
0.04 -0.00 0.60 3.31 8.28 -3.33 -1.37 -3.90 9037
0.03 -0.00 0.98 3.44 8.82 -3.47 -1.46 -3.94 9043
0.03 -0.00 1.27 3.26 9.48 -3.63 -1.63 -3.92 9050
0.04 -0.00 1.48 2.83 9.81 -3.79 -1.79 -3.80 9056
0.03 -0.00 1.52 2.53 10.53 -4.00 -1.82 -3.58 9062
0.02 -0.00 2.32 2.25 11.01 -4.14 -1.83 -3.31 9068
0.03 -0.00 3.39 1.86 11.37 -4.24 -1.93 -3.03 9074
0.03 -0.00 4.30 1.39 11.78 -4.28 -2.10 -2.76 9081
0.04 -0.00 5.11 0.46 11.70 -4.28 -2.26 -2.46 9088
0.03 -0.00 5.99 -0.58 11.56 -4.28 -2.40 -2.17 9094
0.04 -0.00 6.79 -1.43 11.64 -4.28 -2.52 -1.89 9100
0.04 -0.00 7.76 -2.28 11.82 -4.28 -2.60 -1.62 9106
0.04 -0.00 8.64 -2.97 11.71 -4.28 -2.63 -1.38 9112
0.05 -0.00 9.71 -3.70 11.76 -4.28 -2.58 -1.18 9119
0.05 -0.00 10.47 -4.51 11.72 -4.28 -2.45 -1.02 9125
0.03 0.00 11.69 -5.34 11.58 -4.28 -2.29 -0.90 9132
0.04 -0.00 12.39 -6.12 11.75 -4.28 -2.08 -0.82 9138
0.03 -0.00 13.35 -6.82 11.86 -4.28 -1.84 -0.77 9145
0.07 0.00 14.33 -7.48 11.68 -4.28 -1.48 -0.74 9151
0.05 -0.01 14.66 -8.17 12.05 -4.27 -1.07 -0.71 9157
0.03 0.01 14.63 -9.43 12.25 -4.21 -0.56 -0.69 9163
0.03 -0.00 14.37 -10.16 12.45 -4.11 -0.08 -0.66 9170
0.03 -0.00 13.92 -11.52 13.48 -3.92 0.36 -0.59 9177
0.04 -0.00 13.48 -11.87 13.88 -3.68 0.76 -0.46 9183
0.03 -0.00 12.90 -12.22 14.38 -3.44 1.09 -0.29 9189
0.03 0.00 12.36 -12.40 14.60 -3.20 1.38 -0.06 9196
0.04 -0.00 11.90 -12.18 14.86 -2.97 1.60 0.21 9202
0.05 -0.01 11.72 -12.04 14.80 -2.75 1.84 0.47 9208
0.05 -0.00 11.09 -12.09 14.96 -2.53 2.07 0.73 9214
0.04 -0.00 10.51 -12.18 14.83 -2.31 2.32 0.94 9222
0.06 -0.01 9.81 -12.24 14.74 -2.09 2.57 1.09 9228
0.03 -0.00 8.98 -12.35 14.61 -1.87 2.83 1.19 9234
0.03 -0.00 8.10 -12.37 14.65 -1.65 3.07 1.26 9240
0.05 -0.01 7.05 -12.38 14.67 -1.44 3.27 1.29 9247
0.05 -0.00 5.95 -12.38 14.69 -1.24 3.40 1.29 9253
0.05 -0.00 4.88 -12.37 14.72 -1.06 3.46 1.25 9260
0.04 -0.00 3.86 -12.26 14.93 -0.90 3.44 1.19 9266
0.03 -0.00 2.93 -12.11 15.27 -0.75 3.35 1.10 9272
0.03 0.01 2.23 -11.90 15.74 -0.63 3.21 1.01 9279
0.03 -0.00 1.67 -11.61 16.30 -0.55 3.05 0.92 9285
0.03 -0.00 1.32 -11.21 16.80 -0.52 2.90 0.83 9291
0.05 -0.01 1.20 -10.82 17.06 -0.56 2.83 0.77 9297
0.04 -0.00 1.03 -10.49 17.21 -0.66 2.81 0.73 9305
0.04 -0.00 0.57 -10.19 17.28 -0.82 2.85 0.72 9311
0.04 -0.00 0.06 -9.97 17.25 -0.97 2.91 0.75 9317
0.04 -0.00 -0.52 -9.95 16.91 -1.16 2.93 0.80 9323
0.04 -0.00 -1.00 -10.05 16.01 -1.34 2.92 0.87 9329
0.05 -0.01 -1.52 -10.30 14.82 -1.49 2.82 0.94 9336
0.03 -0.00 -1.96 -10.58 13.63 -1.60 2.64 0.99 9342
0.04 -0.00 -2.24 -11.09 12.68 -1.66 2.41 1.04 9349
0.03 -0.00 -2.37 -11.66 11.58 -1.66 2.18 1.07 9355
0.03 -0.00 -2.45 -12.33 10.78 -1.61 1.95 1.08 9361
0.03 0.01 -2.44 -12.88 10.02 -1.52 1.77 1.07 9368
0.03 -0.00 -2.56 -13.27 8.71 -1.38 1.62 1.04 9374
0.02 -0.00 -2.78 -13.53 8.63 -1.21 1.51 1.02 9380
0.04 -0.00 -3.03 -13.69 7.94 -1.02 1.45 1.00 9387
0.04 -0.00 -3.30 -13.83 7.49 -0.82 1.42 1.00 9393
0.03 -0.00 -3.82 -14.08 7.27 -0.57 1.41 1.01 9399
0.03 0.00 -4.48 -14.38 7.02 -0.41 1.39 1.02 9406
0.03 -0.00 -5.16 -14.70 6.92 -0.17 1.33 1.03 9412
0.03 -0.00 -5.73 -15.03 6.92 0.05 1.24 1.04 9418
0.02 -0.00 -6.59 -15.34 7.03 0.24 1.10 1.04 9424
0.04 -0.00 -7.19 -15.67 7.40 0.39 0.92 1.03 9431
0.03 -0.00 -7.45 -15.80 7.73 0.50 0.62 1.00 9437
0.01 -0.00 -7.60 -15.65 7.76 0.55 0.20 0.94 9444
0.03 -0.00 -7.21 -15.32 7.57 0.61 -0.19 0.85 9450
0.03 -0.00 -6.51 -15.04 7.64 0.70 -0.50 0.76 9456
0.02 -0.00 -16.21 -9.51 14.95 0.95 -1.47 0.87 9462
0.03 -0.00 -11.80 -5.97 17.60 2.43 -4.00 1.81 9468
0.02 -0.00 2.98 -1.16 10.19 2.06 -4.27 1.82 9475
0.01 -0.00 1.75 12.47 11.11 1.72 -4.28 1.73 9482
0.04 -0.00 8.65 11.98 10.32 1.47 -4.28 1.84 9488
0.03 -0.00 4.21 5.59 13.55 1.32 -4.26 2.04 9494
0.02 0.01 2.90 4.87 12.06 1.43 -3.30 2.18 9500
0.03 0.01 -0.22 4.22 9.40 1.67 -2.17 2.27 9506
0.04 0.07 -2.62 3.43 6.52 1.89 -1.48 2.26 9513
0.02 0.20 -8.30 1.61 8.86 2.22 -1.23 2.06 9520
0.02 0.34 -12.68 1.38 12.19 2.54 -1.09 1.64 9526
0.01 0.43 -14.23 -0.66 14.31 2.75 -1.04 0.98 9532
0.02 0.50 -11.80 -1.43 17.20 2.79 -0.98 0.24 9539
0.02 0.54 -7.77 -1.53 18.51 2.65 -0.86 -0.48 9545
0.01 0.53 -1.80 -1.72 19.61 2.45 -0.77 -1.04 9551
0.00 0.68 6.91 -2.30 27.64 2.03 -1.34 -1.19 9558
0.01 0.67 8.28 -4.39 16.46 0.77 -1.64 -0.61 9564
0.01 0.64 3.98 -3.74 13.75 0.59 -0.93 0.06 9571
0.02 0.72 2.28 -2.47 11.06 0.32 -0.39 0.22 9577
0.00 0.68 1.52 -1.24 9.82 0.35 -0.39 0.29 9583
0.01 0.68 0.25 -0.04 10.39 0.41 -0.65 0.22 9589
0.01 0.69 0.31 -0.00 10.38 0.39 -0.77 0.09 9595
0.00 0.68 0.86 -0.43 10.35 0.32 -0.75 0.03 9603
0.02 0.67 1.13 -0.67 10.29 0.24 -0.63 0.04 9609
0.02 0.71 0.85 -0.86 10.13 0.19 -0.51 0.06 9615
0.01 0.69 1.08 -0.78 10.27 0.16 -0.47 0.06 9621
0.00 0.71 0.90 -0.76 10.47 0.13 -0.41 0.05 9627
0.00 0.74 0.81 -0.64 10.04 0.10 -0.33 0.04 9634
0.01 0.70 0.78 -0.69 10.37 0.06 -0.24 0.04 9640
0.01 0.75 0.76 -0.82 10.36 0.04 -0.17 0.04 9647
0.01 0.73 0.89 -0.81 10.10 0.01 -0.12 0.04 9653
0.00 0.74 0.91 -0.76 10.05 0.01 -0.09 0.04 9659
0.00 0.75 0.89 -0.81 10.16 0.00 -0.06 0.05 9666
0.01 0.76 0.81 -0.71 10.12 -0.00 -0.04 0.06 9672
0.02 0.71 0.90 -0.70 10.03 0.01 -0.02 0.06 9678
0.02 0.71 0.93 -0.70 10.04 0.01 -0.01 0.06 9684
0.02 0.67 0.92 -0.68 10.03 0.01 -0.01 0.06 9691
0.02 0.63 0.99 -0.73 9.98 0.02 -0.01 0.06 9697
0.02 0.59 0.97 -0.71 9.97 0.01 -0.01 0.05 9704
0.03 0.60 0.97 -0.72 9.99 0.01 -0.01 0.04 9710
0.02 0.60 1.03 -0.70 9.92 0.02 -0.02 0.04 9716
0.01 0.58 0.99 -0.66 9.87 0.02 -0.02 0.03 9722
0.02 0.56 0.96 -0.67 9.95 0.02 -0.02 0.03 9729
0.03 0.53 0.96 -0.69 9.95 0.02 -0.02 0.03 9735
0.02 0.48 0.92 -0.69 10.01 0.02 -0.02 0.03 9741
0.03 0.44 0.97 -0.68 9.99 0.02 -0.02 0.00 9748
0.04 0.43 0.95 -0.70 9.98 0.03 -0.03 0.03 9754
0.04 0.38 0.94 -0.71 10.04 0.03 -0.02 0.04 9760
0.03 0.32 0.92 -0.73 9.98 0.03 -0.02 0.04 9766
0.04 0.30 0.95 -0.74 9.95 0.04 -0.02 0.04 9773
0.05 0.27 0.95 -0.69 10.02 0.00 -0.02 0.04 9779
0.05 0.21 0.98 -0.75 9.97 0.03 -0.02 0.04 9785
0.04 0.17 0.95 -0.75 10.04 0.03 -0.03 0.04 9792
0.06 0.18 0.95 -0.71 10.03 0.03 -0.02 0.04 9798
0.06 0.15 0.99 -0.75 10.00 0.03 -0.03 0.04 9804
0.07 0.17 1.01 -0.73 10.00 0.02 -0.03 0.03 9810
0.09 0.13 0.95 -0.73 9.93 0.03 -0.04 0.03 9817
0.08 0.13 1.01 -0.74 9.98 0.03 -0.04 0.03 9823
0.07 0.09 0.92 -0.72 9.99 0.02 -0.04 0.02 9829
0.08 0.11 1.01 -0.75 9.94 0.02 -0.06 0.03 9836
0.08 0.06 0.98 -0.75 9.95 0.02 -0.07 0.02 9842
0.08 0.04 0.99 -0.77 9.99 0.02 -0.09 0.02 9848
0.08 0.03 1.00 -0.79 10.01 0.02 -0.11 0.01 9854
0.11 0.03 1.02 -0.79 10.05 0.02 -0.12 0.01 9861
0.11 0.01 1.02 -0.82 10.03 0.03 -0.14 0.00 9867
0.11 -0.00 0.97 -0.91 9.98 0.02 -0.14 0.01 9874
0.13 0.01 1.03 -0.89 10.03 0.02 -0.13 0.01 9880
0.12 0.00 0.90 -0.81 10.03 0.02 -0.11 0.01 9886
0.13 0.00 0.93 -0.84 10.05 0.03 -0.09 0.01 9892
0.16 -0.01 0.87 -0.86 10.05 0.03 -0.08 0.01 9899
0.17 -0.02 0.87 -0.82 9.99 0.04 -0.07 0.02 9905
0.18 -0.02 0.91 -0.81 9.98 0.03 -0.06 0.02 9911
0.18 -0.02 0.88 -0.85 9.99 0.04 -0.04 0.03 9918
0.19 -0.02 0.91 -1.06 10.04 0.04 -0.03 0.03 9924
0.20 -0.02 0.89 -0.84 9.99 0.04 -0.02 0.03 9930
0.21 -0.02 0.84 -0.75 9.92 0.05 -0.01 0.04 9936
0.20 -0.02 0.93 -0.85 9.96 0.05 -0.01 0.04 9943
0.23 -0.02 0.90 -0.80 9.99 0.05 -0.01 0.04 9949
0.25 -0.03 0.89 -0.83 9.98 0.06 -0.00 0.04 9955
0.24 -0.02 0.91 -0.83 10.03 0.06 0.00 0.04 9961
0.22 -0.02 0.93 -0.86 10.03 0.06 0.01 0.04 9967
0.23 -0.02 0.93 -0.89 10.04 0.07 0.01 0.04 9974
0.23 -0.02 0.97 -0.91 10.00 0.07 0.01 0.04 9980
0.21 -0.02 1.00 -0.90 9.88 0.07 0.02 0.04 9987
0.23 -0.01 0.98 -0.89 10.00 0.08 0.02 0.04 9993
0.25 -0.03 0.98 -0.92 9.95 0.08 0.02 0.00 9999
0.26 -0.02 0.95 -0.95 10.00 0.08 0.02 0.03 10005
0.27 -0.02 1.00 -0.91 9.98 0.09 0.02 0.03 10011
0.31 -0.03 0.97 -0.94 9.99 0.10 0.02 0.03 10018
0.32 -0.03 1.05 -0.91 10.00 0.10 0.02 0.02 10024
0.32 -0.02 1.03 -0.94 9.94 0.10 0.01 0.01 10031
0.35 -0.02 1.03 -0.95 9.99 0.11 0.02 0.01 10037
0.35 -0.03 1.05 -0.98 9.99 0.12 0.02 0.00 10043
0.37 -0.03 1.01 -0.98 10.10 0.13 0.01 -0.00 10049
0.44 -0.03 1.02 -0.98 10.07 0.16 0.01 -0.01 10056
0.45 -0.04 0.99 -1.04 10.12 0.19 0.01 -0.01 10062
0.43 -0.03 1.00 -1.05 10.04 0.21 0.01 -0.01 10068
0.45 -0.03 1.02 -1.02 10.11 0.24 0.01 -0.01 10075
0.47 -0.03 1.04 -1.09 10.20 0.28 0.02 -0.02 10082
0.48 -0.02 1.08 -1.11 10.21 0.34 0.02 -0.02 10088
0.50 -0.03 1.07 -1.14 10.28 0.39 0.03 -0.03 10094
0.55 -0.04 1.11 -1.16 10.37 0.45 0.03 -0.04 10100
0.60 -0.04 1.15 -1.21 10.45 0.52 0.05 -0.05 10107
0.61 -0.03 1.09 -1.23 10.56 0.60 0.05 -0.06 10114
0.65 -0.03 1.23 -1.38 10.59 0.70 0.06 -0.08 10120
0.66 -0.04 1.19 -1.40 10.50 0.79 0.06 -0.09 10126
0.69 -0.03 1.17 -1.46 10.61 0.87 0.05 -0.10 10133
0.73 -0.03 1.25 -1.55 10.72 0.95 0.04 -0.10 10139
0.77 -0.03 1.16 -1.55 10.84 1.03 0.04 -0.11 10145
0.81 -0.03 1.19 -1.70 10.77 1.10 0.04 -0.12 10151
0.81 -0.04 1.22 -1.77 10.94 1.17 0.04 -0.13 10159
0.81 -0.03 1.15 -1.84 10.94 1.24 0.03 -0.14 10165
0.84 -0.04 1.28 -1.98 11.02 1.32 0.03 -0.14 10171
0.87 -0.04 1.19 -1.98 10.71 1.40 0.06 -0.15 10178
0.88 -0.04 1.24 -2.16 10.48 1.48 0.11 -0.16 10184
0.87 -0.05 1.06 -2.26 11.00 1.58 0.16 -0.16 10190
0.87 -0.03 1.08 -2.28 10.62 1.68 0.22 -0.15 10196
0.89 -0.04 1.01 -2.36 10.86 1.79 0.30 -0.15 10204
0.84 -0.05 1.08 -2.62 11.57 1.90 0.43 -0.14 10210
0.82 -0.04 0.89 -2.58 11.20 2.03 0.60 -0.12 10216
0.74 -0.05 0.95 -2.78 11.62 2.18 0.81 -0.10 10222
0.65 -0.03 1.07 -3.08 12.23 2.33 0.99 -0.08 10229
0.50 -0.05 1.04 -3.18 12.01 2.50 1.22 -0.06 10235
0.40 -0.02 0.72 -3.37 12.70 2.67 1.45 -0.01 10242
0.30 -0.02 0.47 -3.65 12.70 2.85 1.70 0.06 10248
0.20 -0.02 0.09 -3.99 13.56 3.00 1.83 0.15 10255
0.16 -0.02 0.36 -4.22 13.96 3.18 2.10 0.25 10261
0.12 -0.01 0.60 -4.48 12.96 3.27 2.31 0.39 10267
0.14 -0.01 0.45 -5.21 15.13 3.35 2.33 0.52 10273
0.16 -0.02 1.55 -5.84 17.57 3.53 2.50 0.62 10279
0.10 -0.01 2.67 -6.93 19.45 3.77 2.83 0.67 10287
0.09 -0.00 3.30 -7.35 20.87 4.06 3.07 0.72 10293
0.08 -0.01 4.42 -7.13 20.90 4.19 3.25 0.73 10299
0.09 -0.01 4.89 -7.59 21.49 4.26 3.40 0.75 10305
0.07 0.00 6.25 -7.85 21.23 4.27 3.61 0.81 10312
0.07 -0.01 8.84 -8.71 20.95 4.25 3.99 0.86 10318
0.06 -0.01 9.66 -8.48 20.56 4.20 4.28 0.87 10324
0.08 -0.01 9.19 -7.38 20.77 4.14 4.28 0.77 10331
0.04 -0.00 6.90 -6.10 22.76 4.09 4.28 0.58 10337
0.04 -0.00 3.12 -4.28 23.23 4.03 4.28 0.33 10344
0.06 -0.01 0.45 -2.47 22.23 4.00 4.28 0.09 10350
0.04 -0.00 -3.51 -0.85 21.06 3.92 4.28 -0.19 10356
0.04 -0.00 -5.17 2.07 17.81 3.78 4.28 -0.54 10362
0.05 -0.01 -6.86 4.81 16.42 3.51 4.27 -0.81 10369
0.05 -0.01 -8.65 8.57 13.86 3.18 2.92 -0.96 10376
0.06 0.01 -15.22 13.59 6.15 2.94 1.55 -1.16 10382
0.04 -0.00 -10.80 10.18 10.84 2.35 -0.92 -1.77 10388
0.05 -0.00 -9.02 10.73 10.53 0.25 -3.00 -2.06 10395
0.04 -0.00 -2.72 12.34 12.98 -1.31 -3.93 -2.12 10401
0.04 -0.00 0.84 7.97 17.23 -2.01 -4.24 -2.25 10407
0.05 -0.01 2.24 5.13 15.72 -2.39 -4.04 -2.59 10414
0.04 -0.00 2.99 4.03 13.62 -2.54 -3.47 -3.04 10420
0.05 -0.01 3.45 3.48 10.98 -2.54 -2.74 -3.48 10427
0.05 -0.01 3.12 3.41 8.69 -2.53 -2.10 -3.85 10433
0.03 -0.00 2.47 3.72 7.66 -2.56 -1.66 -4.13 10439
0.02 -0.00 2.02 4.18 7.58 -2.67 -1.40 -4.28 10445
0.03 0.00 1.73 4.58 7.90 -2.78 -1.36 -4.28 10451
0.03 -0.00 1.69 4.72 8.61 -2.97 -1.50 -4.28 10459
0.02 -0.00 2.05 4.39 9.44 -3.17 -1.65 -4.28 10465
0.02 -0.00 2.36 3.53 9.79 -3.38 -1.86 -4.19 10471
0.03 -0.00 2.21 2.53 9.71 -3.58 -1.99 -3.92 10477
0.02 -0.00 2.83 2.62 10.35 -3.77 -2.07 -3.56 10483
0.03 -0.00 3.86 2.82 10.95 -3.95 -2.32 -3.20 10489
0.03 -0.00 4.43 2.16 10.82 -4.08 -2.68 -2.82 10497
0.02 -0.00 4.98 1.09 10.56 -4.15 -3.00 -2.41 10503
0.06 -0.01 6.30 0.57 10.92 -4.22 -3.27 -2.01 10509
0.04 -0.00 7.52 0.16 11.46 -4.26 -3.47 -1.67 10515
0.04 -0.00 8.68 -0.60 12.12 -4.28 -3.49 -1.38 10522
0.05 -0.00 9.68 -1.50 12.12 -4.28 -3.32 -1.13 10528
0.04 -0.00 10.72 -2.28 11.75 -4.28 -2.98 -0.91 10534
0.04 -0.00 11.40 -2.81 11.85 -4.28 -2.60 -0.73 10541
0.03 -0.00 11.80 -3.34 11.62 -4.28 -2.17 -0.58 10548
0.04 -0.00 12.06 -4.15 11.41 -4.28 -1.73 -0.45 10554
0.04 -0.00 12.36 -4.93 11.35 -4.28 -1.30 -0.34 10560
0.03 0.00 12.43 -5.57 11.33 -4.24 -0.94 -0.23 10566
0.05 -0.00 12.40 -6.30 11.65 -4.18 -0.59 -0.11 10573
0.04 -0.00 12.23 -7.13 12.20 -4.08 -0.27 0.03 10579
0.04 -0.00 11.95 -8.00 12.46 -3.93 -0.03 0.17 10586
0.05 -0.00 11.64 -8.74 12.96 -3.76 0.15 0.34 10592
0.03 -0.00 11.44 -9.38 13.44 -3.58 0.30 0.52 10599
0.05 -0.01 11.43 -9.79 13.72 -3.39 0.41 0.71 10605
0.03 -0.00 11.43 -9.97 14.00 -3.20 0.55 0.91 10611
0.04 -0.00 11.47 -10.15 14.38 -3.05 0.71 1.11 10617
0.04 -0.00 11.49 -10.19 14.86 -2.86 0.91 1.31 10625
0.04 -0.00 11.41 -10.26 15.19 -2.71 1.14 1.50 10631
0.04 -0.00 11.14 -10.43 15.51 -2.60 1.40 1.68 10637
0.03 -0.00 10.70 -10.61 15.53 -2.49 1.66 1.83 10644
0.03 -0.00 10.09 -10.88 15.49 -2.40 1.86 1.94 10650
0.03 -0.00 9.51 -11.03 15.21 -2.30 2.00 2.02 10656
0.05 -0.01 8.91 -11.14 14.74 -2.18 2.11 2.05 10663
0.04 -0.00 8.38 -11.28 14.25 -2.05 2.20 2.03 10670
0.04 -0.00 7.78 -11.32 13.72 -1.89 2.29 1.95 10676
0.04 -0.00 7.23 -11.28 13.40 -1.73 2.37 1.82 10682
0.03 -0.00 6.62 -11.11 13.15 -1.54 2.45 1.64 10689
0.04 -0.00 5.82 -11.00 13.06 -1.36 2.51 1.43 10695
0.03 -0.00 5.03 -10.89 12.98 -1.19 2.56 1.20 10701
0.03 0.00 4.11 -10.87 12.97 -1.03 2.59 0.96 10707
0.04 -0.00 3.29 -10.89 12.97 -0.89 2.60 0.72 10715
0.04 -0.00 2.48 -10.97 13.00 -0.76 2.60 0.51 10721
0.05 -0.00 1.87 -11.01 13.24 -0.65 2.59 0.30 10727
0.04 -0.00 1.44 -10.98 13.55 -0.59 2.62 0.13 10733
0.04 -0.00 1.17 -10.97 13.84 -0.56 2.68 -0.01 10740
0.04 -0.00 0.91 -10.99 14.42 -0.56 2.79 -0.13 10746
0.04 -0.00 0.76 -10.92 15.08 -0.62 2.90 -0.24 10753
0.05 -0.00 0.54 -10.85 15.49 -0.74 3.02 -0.32 10759
0.04 -0.00 0.23 -10.74 15.53 -0.95 3.13 -0.38 10766
0.04 -0.00 -0.29 -10.64 14.96 -1.17 3.19 -0.43 10772
0.04 -0.00 -0.80 -10.66 14.03 -1.40 3.17 -0.47 10778
0.04 -0.00 -1.40 -10.80 13.12 -1.60 3.07 -0.51 10784
0.04 -0.00 -1.79 -11.17 12.04 -1.69 2.94 -0.57 10791
0.03 -0.00 -2.22 -11.56 11.05 -1.74 2.79 -0.63 10798
0.05 -0.00 -2.62 -11.95 10.15 -1.71 2.64 -0.71 10804
0.03 -0.00 -3.15 -12.27 9.34 -1.60 2.54 -0.79 10810
0.04 -0.00 -3.92 -12.39 8.61 -1.42 2.52 -0.81 10817
0.03 -0.00 -4.91 -12.43 8.28 -1.18 2.56 -0.76 10823
0.04 -0.00 -6.01 -12.44 8.48 -0.92 2.59 -0.62 10829
0.04 0.01 -7.81 -12.27 8.92 -0.67 2.35 -0.48 10835
0.04 -0.00 -9.19 -12.03 8.89 -0.48 1.88 -0.36 10843
0.02 -0.00 -9.31 -11.78 8.57 -0.35 1.30 -0.27 10849
0.04 -0.00 -8.98 -11.69 7.98 -0.29 0.52 -0.20 10855
0.03 -0.00 -7.70 -11.76 7.72 -0.25 -0.22 -0.15 10861
0.02 -0.00 -6.40 -12.13 8.05 -0.19 -0.78 -0.10 10867
0.03 -0.00 -4.98 -12.76 8.09 -0.09 -1.08 -0.07 10874
0.03 -0.00 -3.62 -13.10 8.15 0.08 -1.16 -0.05 10881
0.03 -0.00 -4.64 -12.86 9.11 0.34 -1.19 -0.01 10887
0.03 -0.00 -20.32 -9.29 26.21 1.69 -3.48 0.52 10893
0.02 -0.00 3.29 -2.74 10.58 1.68 -3.54 0.94 10900
0.04 -0.00 2.40 2.83 8.94 1.60 -3.88 0.83 10906
0.04 -0.00 8.28 9.51 10.02 1.47 -3.70 0.96 10912
0.03 -0.00 7.08 6.66 11.13 1.32 -3.52 1.14 10918
0.04 0.01 3.77 4.71 11.31 1.14 -3.25 1.33 10925
0.03 -0.00 0.84 2.01 9.79 1.12 -3.01 1.41 10932
0.03 -0.00 -0.97 0.42 7.57 1.15 -2.98 1.35 10938
0.02 -0.00 -2.11 0.12 8.44 1.27 -3.14 1.18 10944
0.03 0.04 -3.20 0.83 11.13 1.42 -3.33 0.96 10950
0.02 0.11 -4.09 1.67 13.65 1.61 -3.27 0.69 10956
0.04 0.18 -4.22 2.03 15.28 1.79 -2.87 0.39 10963
0.03 0.28 -4.09 1.21 15.22 1.91 -2.23 0.11 10970
0.02 0.32 -2.82 -0.21 13.63 1.93 -1.71 -0.13 10976
0.03 0.37 -2.14 -0.71 14.32 1.94 -1.44 -0.34 10982
0.01 0.45 0.24 -1.50 15.10 1.94 -1.32 -0.48 10989
0.01 0.48 4.25 -1.93 21.57 1.68 -1.75 -0.41 10995
0.01 0.40 3.58 -3.00 14.38 1.05 -1.67 -0.08 11001
0.02 0.54 1.35 -2.54 14.53 0.70 -1.06 0.15 11009
0.01 0.57 0.71 -2.09 11.91 0.36 -0.54 0.17 11015
0.01 0.49 0.79 -1.03 10.55 0.25 -0.40 0.17 11021
0.00 0.52 0.58 -0.58 10.42 0.23 -0.44 0.11 11027
-0.00 0.53 0.82 -0.60 10.47 0.22 -0.45 0.07 11034
0.03 0.54 1.12 -0.21 10.10 0.20 -0.43 0.06 11040
0.02 0.51 1.09 -0.73 10.03 0.17 -0.33 0.07 11046
0.01 0.55 0.96 -0.81 9.97 0.12 -0.25 0.07 11053
0.02 0.56 1.01 -0.76 10.23 0.09 -0.20 0.07 11059
0.02 0.58 1.05 -1.14 10.27 0.06 -0.15 0.07 11066
0.02 0.63 0.89 -0.82 10.21 0.04 -0.09 0.06 11072
0.01 0.60 0.98 -0.68 10.18 0.02 -0.04 0.06 11078
0.01 0.58 0.89 -0.79 9.96 0.01 -0.00 0.06 11084
0.03 0.56 1.02 -0.75 10.06 0.01 0.03 0.06 11091
0.02 0.55 1.00 -0.74 10.05 0.01 0.05 0.06 11098
0.02 0.54 0.92 -0.76 10.06 0.02 0.05 0.06 11104
0.03 0.52 1.06 -0.84 9.98 0.03 0.06 0.06 11110
0.02 0.46 1.02 -0.78 9.98 0.03 0.06 0.06 11116
0.02 0.44 1.07 -0.80 9.99 0.03 0.07 0.06 11123
0.04 0.44 1.11 -0.70 10.02 0.04 0.07 0.06 11129
0.04 0.40 1.11 -0.74 10.03 0.04 0.07 0.06 11136
0.03 0.36 1.13 -0.74 10.01 0.05 0.06 0.06 11142
0.05 0.32 1.10 -0.78 10.06 0.05 0.06 0.06 11148
0.04 0.28 1.11 -0.76 9.98 0.05 0.05 0.06 11155
0.06 0.23 1.17 -0.77 10.04 0.05 0.05 0.06 11161
0.07 0.20 1.11 -0.80 10.03 0.05 0.05 0.06 11167
0.06 0.22 1.15 -0.80 10.03 0.05 0.05 0.06 11173
0.09 0.15 1.12 -0.80 9.98 0.05 0.05 0.06 11180
0.07 0.11 1.28 -0.57 9.96 0.05 0.05 0.05 11187
0.06 0.09 1.20 -0.76 9.93 0.05 0.04 0.05 11193
0.07 0.09 1.20 -0.80 10.01 0.05 0.04 0.05 11199
0.08 0.07 1.22 -0.82 10.01 0.05 0.03 0.05 11205
0.07 0.04 1.20 -0.82 9.92 0.05 0.03 0.04 11211
0.09 0.02 1.17 -0.80 9.93 0.05 0.03 0.04 11218
0.08 0.01 1.13 -0.76 9.84 0.05 0.03 0.04 11225
0.08 -0.01 1.11 -0.83 9.98 0.05 0.03 0.04 11231
0.10 0.00 1.18 -0.86 9.97 0.05 0.03 0.04 11237
0.10 -0.01 1.11 -0.88 9.98 0.04 0.04 0.04 11243
0.09 -0.01 1.23 -0.82 9.98 0.05 0.04 0.04 11249
0.09 -0.01 1.24 -0.80 9.95 0.04 0.04 0.04 11255
0.11 -0.01 1.25 -0.87 9.98 0.04 0.04 0.04 11262
0.09 -0.01 1.29 -0.87 9.92 0.04 0.05 0.03 11269
0.09 -0.01 1.28 -0.79 9.98 0.04 0.05 0.03 11275
0.11 -0.01 1.23 -1.44 10.03 0.04 0.05 0.03 11281
0.11 -0.01 1.31 -0.56 9.92 0.03 0.05 0.03 11287
0.09 -0.01 1.28 -0.86 9.96 0.03 0.05 0.02 11293
0.10 -0.01 1.30 -0.86 10.03 0.04 0.05 0.02 11299
0.13 -0.01 1.30 -0.79 9.98 0.04 0.05 0.02 11305
0.11 -0.01 1.29 -0.91 9.89 0.05 0.05 0.02 11313
0.10 0.00 1.20 -0.90 9.97 0.05 0.04 0.01 11319
0.10 0.00 1.25 -0.85 9.98 0.05 0.04 0.02 11325
0.08 -0.01 1.30 -0.95 9.86 0.06 0.05 0.01 11331
0.07 -0.01 1.20 -0.89 9.93 0.06 0.05 0.01 11337
0.07 0.01 1.26 -0.95 10.09 0.06 0.05 0.01 11343
0.09 -0.01 1.31 -0.92 9.86 0.08 0.07 0.01 11351
0.11 -0.01 1.23 -1.00 10.06 0.08 0.07 0.01 11357
0.11 -0.01 1.28 -0.94 10.11 0.09 0.08 0.02 11363
0.06 -0.01 1.34 -0.98 9.98 0.09 0.08 0.01 11369
0.07 -0.01 1.31 -0.94 9.95 0.07 0.08 0.02 11375
0.07 -0.01 1.39 -0.98 9.87 0.11 0.09 0.02 11381
0.09 -0.00 1.39 -0.94 9.98 0.11 0.08 0.02 11387
0.09 -0.01 1.38 -0.99 10.00 0.13 0.09 0.02 11395
0.06 -0.01 1.43 -0.99 9.91 0.13 0.08 0.02 11401
0.06 -0.01 1.36 -1.01 9.97 0.14 0.08 0.02 11407
0.09 -0.01 1.41 -1.05 9.94 0.15 0.08 0.02 11413
0.08 -0.01 1.39 -1.01 9.94 0.14 0.08 0.02 11419
0.08 -0.01 1.45 -1.05 9.93 0.14 0.07 0.02 11425
0.08 0.00 1.50 -1.06 9.82 0.14 0.06 0.01 11431
0.08 -0.01 1.47 -1.08 9.95 0.13 0.04 0.01 11439
0.07 -0.01 1.44 -1.10 9.92 0.14 0.04 0.01 11445
0.06 -0.01 1.49 -1.09 9.82 0.14 0.03 0.00 11451
0.07 -0.01 1.54 -1.08 9.93 0.14 0.01 0.00 11457
0.08 -0.01 1.53 -1.06 9.99 0.15 -0.00 -0.01 11463
0.08 -0.01 1.53 -1.14 9.90 0.16 -0.01 -0.02 11469
0.08 -0.01 1.51 -1.16 9.92 0.16 -0.02 -0.03 11475
0.10 -0.01 1.49 -1.16 9.90 0.15 -0.04 -0.03 11482
0.10 -0.01 1.59 -1.17 9.87 0.16 -0.04 -0.04 11489
0.09 -0.01 1.55 -1.15 9.99 0.16 -0.05 -0.05 11495
0.12 -0.01 1.56 -1.18 10.07 0.17 -0.07 -0.06 11501
0.09 -0.01 1.58 -1.24 10.03 0.19 -0.07 -0.06 11507
0.08 -0.01 1.59 -1.19 10.14 0.22 -0.07 -0.07 11513
0.13 -0.01 1.56 -1.26 10.12 0.27 -0.06 -0.09 11521
0.14 -0.01 1.57 -1.36 10.20 0.33 -0.05 -0.10 11527
0.16 -0.02 1.58 -1.31 10.24 0.39 -0.03 -0.12 11533
0.17 -0.02 1.66 -1.46 10.29 0.47 -0.01 -0.13 11539
0.19 -0.02 1.58 -1.52 10.39 0.56 0.01 -0.15 11545
0.26 -0.03 1.58 -1.46 10.48 0.65 0.04 -0.17 11552
0.28 -0.03 1.54 -1.57 10.67 0.79 0.06 -0.18 11558
0.29 -0.03 1.52 -1.66 10.59 0.86 0.08 -0.19 11565
0.30 -0.01 1.51 -1.79 10.72 0.95 0.08 -0.19 11571
0.34 -0.02 1.47 -1.84 11.18 1.06 0.09 -0.19 11578
0.37 -0.02 1.51 -1.86 10.97 1.18 0.10 -0.19 11584
0.41 -0.02 1.54 -1.91 10.89 1.30 0.12 -0.19 11590
0.42 -0.04 1.40 -2.04 11.14 1.39 0.14 -0.19 11596
0.43 -0.02 1.50 -2.14 11.27 1.49 0.16 -0.18 11603
0.45 -0.03 1.54 -2.28 11.12 1.59 0.20 -0.17 11610
0.52 -0.03 1.58 -2.34 10.94 1.69 0.26 -0.17 11616
0.51 -0.03 1.39 -2.51 11.45 1.79 0.34 -0.16 11622
0.48 -0.02 1.12 -2.69 12.55 1.93 0.42 -0.13 11629
0.50 -0.03 1.20 -2.64 12.97 2.12 0.50 -0.08 11635
0.47 -0.04 2.03 -2.78 12.75 2.34 0.60 -0.07 11641
0.38 -0.01 2.22 -2.89 12.15 2.53 0.70 -0.10 11649
0.33 -0.03 1.64 -3.11 11.92 2.70 0.82 -0.13 11655
0.27 -0.03 1.06 -3.40 12.47 2.88 0.95 -0.09 11661
0.24 -0.02 1.07 -3.56 13.05 3.10 1.14 -0.02 11667
0.21 -0.02 1.36 -3.85 13.76 3.34 1.28 0.03 11673
0.18 -0.00 1.78 -4.21 14.27 3.60 1.36 0.06 11680
0.16 -0.02 2.01 -4.55 14.84 3.86 1.39 0.09 11686
0.16 -0.02 2.28 -4.88 15.90 4.09 1.38 0.11 11693
0.14 -0.01 2.32 -5.99 16.66 4.22 1.36 0.14 11699
0.16 -0.02 2.75 -6.29 17.74 4.27 1.34 0.17 11706
0.16 -0.01 2.93 -8.37 19.35 4.28 1.40 0.24 11712
0.15 -0.01 4.23 -9.09 22.59 4.28 1.56 0.36 11718
0.09 -0.01 5.86 -9.94 24.87 4.28 1.97 0.37 11724
0.09 -0.00 6.32 -9.18 23.00 4.28 2.56 0.40 11731
0.09 -0.01 7.15 -8.22 21.34 4.28 3.14 0.47 11738
0.09 -0.01 8.16 -8.03 21.87 4.28 3.82 0.52 11744
0.08 -0.01 8.85 -7.90 20.94 4.28 4.28 0.56 11750
0.07 -0.01 7.26 -7.01 20.74 4.28 4.28 0.50 11756
0.07 -0.01 4.49 -5.85 22.63 4.27 4.28 0.30 11763
0.09 -0.01 1.01 -3.55 22.69 4.22 4.28 0.06 11769
0.05 -0.00 -1.72 -1.56 21.74 4.15 4.28 -0.21 11776
0.04 -0.00 -5.05 1.58 20.94 4.03 4.28 -0.51 11782
0.04 0.00 -6.75 5.23 19.10 3.79 4.28 -0.84 11788
0.03 -0.00 -12.88 9.56 17.79 3.41 4.22 -1.03 11795
0.04 0.00 -12.31 13.88 7.98 2.69 2.79 -1.15 11801
0.05 -0.00 -11.63 11.99 0.36 2.08 0.10 -1.55 11807
0.03 -0.00 -13.16 12.44 11.18 0.46 -2.55 -1.64 11814
0.03 -0.00 -6.57 12.03 15.70 -1.32 -3.93 -1.59 11821
0.04 -0.00 -3.32 7.68 17.35 -2.17 -4.28 -1.65 11827
0.05 -0.01 -1.62 4.04 15.70 -2.52 -4.28 -1.86 11833
0.02 -0.00 0.03 2.52 13.70 -2.63 -4.28 -2.17 11839
0.03 -0.00 1.35 2.06 12.11 -2.59 -3.99 -2.54 11846
0.04 -0.00 2.28 1.83 10.57 -2.47 -3.42 -2.93 11852
0.04 -0.00 2.60 1.88 9.42 -2.36 -2.98 -3.30 11858
0.05 -0.00 2.45 2.99 8.30 -2.31 -2.50 -3.59 11865
0.04 -0.00 2.45 3.26 8.12 -2.35 -2.13 -3.75 11871
0.02 -0.00 2.45 3.72 8.05 -2.47 -1.88 -3.87 11878
0.01 -0.00 2.54 3.94 8.47 -2.68 -1.75 -3.90 11884
0.04 -0.00 2.51 4.07 9.07 -2.93 -1.75 -3.86 11890
0.03 -0.00 2.17 3.82 9.81 -3.19 -1.80 -3.71 11896
0.02 -0.00 2.07 3.32 9.92 -3.44 -1.81 -3.44 11902
0.05 -0.00 2.86 3.21 10.63 -3.66 -1.86 -3.13 11909
0.05 -0.00 3.67 3.21 12.27 -3.90 -1.99 -2.81 11916
0.03 -0.00 4.38 2.44 11.67 -4.08 -2.20 -2.48 11922
0.06 -0.01 5.08 1.47 11.00 -4.19 -2.31 -2.13 11928
0.02 -0.00 6.23 0.75 10.27 -4.26 -2.40 -1.81 11934
0.01 -0.00 7.24 -0.01 10.66 -4.28 -2.45 -1.56 11940
0.03 -0.00 7.93 -0.86 10.44 -4.28 -2.44 -1.35 11948
0.06 -0.01 8.64 -1.78 10.19 -4.28 -2.38 -1.21 11954
0.04 -0.00 9.43 -2.43 10.58 -4.28 -2.26 -1.07 11960
0.04 -0.00 10.09 -3.13 9.97 -4.28 -2.08 -0.96 11966
0.01 -0.00 11.45 -4.26 10.92 -4.28 -1.83 -0.88 11973
0.03 -0.00 11.76 -5.25 11.03 -4.28 -1.60 -0.83 11979
0.03 -0.00 12.21 -5.97 12.65 -4.28 -1.32 -0.78 11985
0.05 0.01 12.73 -6.67 12.26 -4.27 -1.05 -0.72 11992
0.03 -0.00 12.91 -7.13 12.94 -4.26 -0.80 -0.64 11999
0.04 -0.00 13.33 -8.08 13.69 -4.23 -0.52 -0.55 12005
0.07 -0.01 12.85 -9.24 13.66 -4.20 -0.23 -0.46 12011
0.04 -0.00 14.42 -10.26 12.58 -4.12 0.15 -0.33 12018
0.06 -0.01 12.53 -10.81 15.60 -4.01 0.37 -0.19 12024
0.04 -0.00 11.29 -10.99 15.66 -3.85 0.62 -0.06 12030
0.03 -0.00 12.88 -11.84 14.52 -3.61 1.07 0.15 12038
0.04 -0.00 12.65 -11.88 14.38 -3.36 1.41 0.41 12044
0.03 -0.00 12.50 -12.34 14.32 -3.11 1.73 0.69 12050
0.04 -0.00 11.64 -12.36 14.60 -2.84 2.03 0.91 12056
0.03 -0.00 10.74 -12.18 14.55 -2.59 2.32 1.15 12063
0.04 -0.00 10.15 -12.26 14.75 -2.34 2.57 1.34 12069
0.02 -0.00 9.45 -12.27 14.78 -2.10 2.77 1.50 12076
0.04 -0.00 8.97 -12.32 14.80 -1.86 2.95 1.63 12083
0.03 -0.00 8.29 -12.20 15.30 -1.66 3.04 1.72 12089
0.04 -0.00 7.76 -11.77 16.05 -1.48 3.13 1.76 12095
0.03 -0.00 7.12 -11.30 16.63 -1.36 3.24 1.79 12101
0.03 -0.00 6.55 -10.89 17.16 -1.28 3.30 1.79 12108
0.04 -0.00 5.99 -10.61 17.63 -1.27 3.33 1.78 12114
0.03 -0.00 5.42 -10.48 17.79 -1.29 3.43 1.76 12121
0.04 -0.00 4.83 -10.61 17.59 -1.33 3.48 1.73 12127
0.04 -0.00 4.23 -10.80 17.28 -1.35 3.55 1.67 12134
0.04 -0.00 3.64 -11.01 16.74 -1.37 3.61 1.61 12140
0.04 -0.00 3.08 -11.13 16.10 -1.36 3.64 1.55 12146
0.03 -0.00 2.39 -11.34 15.51 -1.32 3.64 1.48 12153
0.05 -0.01 1.74 -11.58 15.09 -1.27 3.60 1.40 12160
0.04 -0.00 0.95 -11.51 14.49 -1.18 3.49 1.33 12166
0.04 0.00 0.17 -11.51 14.30 -1.10 3.31 1.26 12172
0.04 -0.00 0.10 -11.34 13.52 -1.02 3.10 1.19 12179
0.03 -0.00 -0.32 -11.23 12.98 -0.93 2.85 1.11 12185
0.04 -0.00 -0.33 -11.26 12.83 -0.88 2.62 1.04 12191
0.03 -0.00 -0.19 -11.34 12.60 -0.84 2.43 0.97 12197
0.04 -0.00 -0.05 -11.40 12.27 -0.83 2.30 0.88 12205
0.04 -0.00 -0.02 -11.41 11.91 -0.85 2.23 0.78 12211
0.04 -0.00 -0.07 -11.49 11.35 -0.87 2.19 0.65 12217
0.04 -0.00 -0.24 -11.51 10.60 -0.90 2.16 0.51 12223
0.03 -0.00 -0.50 -11.67 9.95 -0.92 2.13 0.37 12230
0.03 -0.00 -0.75 -11.88 9.35 -0.91 2.14 0.22 12236
0.01 -0.00 -0.99 -12.15 8.98 -0.88 2.20 0.10 12242
0.01 -0.00 -1.51 -12.55 8.59 -0.80 2.34 -0.01 12249
0.03 -0.00 -2.52 -13.13 8.45 -0.69 2.59 -0.06 12255
0.03 -0.00 -3.74 -13.54 8.58 -0.53 2.83 -0.05 12262
0.02 -0.00 -5.37 -13.79 8.67 -0.35 2.84 -0.02 12268
0.05 -0.00 -7.00 -13.91 8.41 -0.20 2.55 0.00 12274
0.03 -0.00 -8.18 -13.71 7.53 -0.09 1.98 0.01 12280
0.02 -0.00 -8.54 -13.48 6.38 0.02 1.19 0.00 12286
0.03 -0.00 -7.86 -13.36 5.59 0.06 0.35 -0.03 12294
0.03 -0.00 -6.53 -13.58 5.58 0.14 -0.39 -0.06 12300
0.02 -0.00 -5.19 -14.01 6.06 0.30 -0.92 -0.09 12306
0.03 -0.00 -3.98 -14.06 6.63 0.52 -1.20 -0.12 12312
0.02 -0.00 -2.66 -13.72 7.39 0.78 -1.40 -0.15 12318
0.01 -0.00 -1.69 -13.24 7.97 1.02 -1.50 -0.17 12325
0.03 -0.00 -0.96 -12.51 8.36 1.23 -1.54 -0.18 12332
0.02 -0.00 -2.19 0.66 29.01 1.82 -2.61 -0.05 12338
0.01 -0.00 3.17 6.71 19.84 2.79 -4.14 0.73 12344
0.02 -0.00 15.26 17.32 16.31 2.22 -4.01 1.15 12350
0.02 -0.00 12.00 19.54 14.70 1.49 -3.95 1.46 12357
0.03 -0.00 6.79 11.96 6.60 1.22 -3.46 1.80 12363
0.01 -0.00 2.71 -3.13 6.75 1.14 -3.08 1.95 12369
0.01 -0.00 1.61 -3.04 6.09 1.26 -3.10 1.99 12376
0.03 -0.00 -0.83 -3.66 6.46 1.39 -3.20 1.97 12382
0.03 0.01 -3.18 -1.39 6.39 1.54 -3.50 1.83 12389
0.03 0.04 -4.96 1.30 9.29 1.69 -4.01 1.55 12395
0.03 0.08 -4.91 3.04 14.77 1.83 -4.25 1.18 12401
0.02 0.16 -4.44 3.02 18.32 1.81 -3.89 0.86 12407
0.02 0.27 -4.76 2.14 18.22 1.84 -3.03 0.57 12414
0.02 0.37 -7.21 0.81 16.54 1.89 -2.23 0.26 12421
0.02 0.46 -5.74 0.37 13.52 1.96 -1.89 -0.16 12427
0.02 0.48 -2.69 -0.72 13.40 2.08 -1.78 -0.53 12433
0.01 0.52 2.19 -2.07 17.55 2.14 -1.93 -0.71 12440
0.03 0.48 4.48 -3.30 21.82 1.63 -2.46 -0.55 12446
0.02 0.47 3.61 -3.22 15.15 0.96 -1.73 -0.06 12452
0.02 0.50 0.99 -2.68 13.90 0.44 -0.81 0.18 12460
0.01 0.56 0.63 -2.08 11.24 0.18 -0.23 0.22 12466
0.01 0.51 0.38 -0.80 9.27 0.15 -0.17 0.20 12472
0.02 0.55 0.49 -0.54 10.90 0.14 -0.23 0.11 12478
0.02 0.56 0.92 -0.67 10.24 0.13 -0.23 0.06 12485
0.03 0.52 1.28 -0.78 9.86 0.11 -0.17 0.07 12491
0.04 0.51 1.39 -0.82 9.83 0.09 -0.12 0.09 12497
0.03 0.51 1.23 -0.72 9.82 0.09 -0.11 0.10 12504
0.03 0.53 1.22 -0.68 10.15 0.10 -0.15 0.09 12510
0.02 0.53 0.97 -0.59 10.25 0.10 -0.17 0.08 12517
0.01 0.53 1.00 -0.74 10.03 0.08 -0.16 0.07 12523
0.04 0.56 1.02 -0.81 9.88 0.06 -0.15 0.06 12529
0.03 0.53 0.99 -0.78 10.11 0.05 -0.14 0.05 12535
0.02 0.55 1.01 -0.86 10.11 0.03 -0.14 0.04 12542
0.02 0.57 1.00 -0.80 10.07 0.01 -0.13 0.04 12549
0.02 0.56 0.96 -0.78 10.12 0.00 -0.11 0.03 12555
0.01 0.58 0.92 -0.70 10.10 -0.01 -0.09 0.03 12561
0.02 0.58 0.97 -0.75 10.10 0.00 -0.08 0.03 12567
0.02 0.55 0.92 -0.78 10.10 0.00 -0.07 0.04 12574
0.03 0.54 0.96 -0.79 10.23 0.00 -0.06 0.04 12580
0.03 0.51 0.93 -0.76 10.08 0.01 -0.05 0.05 12587
0.05 0.52 0.98 -0.76 10.02 0.02 -0.04 0.04 12593
0.04 0.49 0.95 -0.77 9.98 0.02 -0.03 0.05 12600
0.05 0.43 1.04 -0.76 9.97 0.03 -0.02 0.05 12606
0.04 0.46 1.01 -0.75 10.05 0.03 -0.02 0.05 12612
0.05 0.38 1.01 -0.76 10.02 0.03 -0.01 0.05 12618
0.04 0.34 0.98 -0.75 10.06 0.03 -0.01 0.06 12624
0.05 0.36 0.96 -0.73 10.08 0.03 0.00 0.05 12632
0.05 0.30 1.05 -0.80 9.94 0.03 0.01 0.05 12638
0.04 0.29 1.03 -0.77 9.90 0.03 0.01 0.05 12644
0.06 0.26 1.06 -0.73 9.98 0.03 0.01 0.05 12650
0.05 0.25 1.02 -0.76 9.98 0.03 0.02 0.05 12656
0.06 0.23 1.03 -0.77 9.99 0.03 0.02 0.05 12662
0.06 0.22 1.01 -0.72 9.98 0.03 0.02 0.06 12669
0.07 0.18 1.03 -0.76 9.97 0.03 0.03 0.06 12676
0.07 0.13 1.04 -0.80 9.98 0.02 0.04 0.06 12682
0.08 0.12 1.01 -0.77 9.99 0.02 0.05 0.06 12688
0.08 0.08 1.05 -0.77 10.00 0.02 0.06 0.06 12694
0.08 0.07 1.05 -0.83 9.98 0.03 0.06 0.06 12701
0.08 0.05 1.08 -0.85 10.03 0.03 0.06 0.06 12707
0.09 0.05 1.08 -0.75 9.89 0.03 0.06 0.05 12713
0.09 0.02 1.10 -0.81 9.93 0.03 0.06 0.05 12720
0.09 0.03 1.08 -0.78 9.96 0.03 0.06 0.06 12726
0.11 0.01 1.06 -0.80 10.03 0.03 0.06 0.06 12732
0.10 -0.00 1.13 -0.85 9.93 0.03 0.05 0.06 12739
0.10 0.02 1.16 -0.83 9.97 0.03 0.05 0.05 12745
0.12 0.00 1.14 -0.81 10.00 0.03 0.05 0.05 12751
0.12 -0.01 1.18 -0.82 9.94 0.02 0.04 0.05 12758
0.12 -0.01 1.18 -0.80 9.94 0.03 0.04 0.05 12764
0.13 -0.01 1.18 -0.81 9.94 0.03 0.03 0.04 12770
0.11 -0.01 1.82 -0.85 9.94 0.02 0.03 0.03 12777
0.11 -0.01 1.21 -0.86 9.96 0.02 0.02 0.03 12783
0.13 0.01 1.24 -0.83 9.97 0.02 0.02 0.03 12789
0.13 -0.01 1.18 -0.92 9.98 0.02 0.02 0.02 12795
0.11 -0.01 1.18 -0.88 9.97 0.02 0.01 0.02 12802
0.10 -0.01 1.25 -0.85 10.09 0.01 0.01 0.02 12808
0.13 -0.00 1.15 -0.89 10.02 0.02 0.01 0.02 12815
0.11 -0.01 1.13 -0.83 9.92 0.01 0.01 0.02 12821
0.10 -0.01 1.16 -0.80 9.96 0.02 0.01 0.02 12827
0.13 -0.01 1.19 -0.86 10.01 0.02 0.01 0.02 12833
0.11 -0.01 1.24 -0.87 9.84 0.02 0.01 0.02 12839
0.11 -0.01 1.18 -0.89 10.05 0.02 0.00 0.02 12846
0.10 -0.01 1.16 -0.86 10.04 0.02 0.00 0.02 12852
0.11 -0.01 1.20 -0.85 9.98 0.02 0.00 0.02 12859
0.13 -0.01 1.20 -0.90 9.99 0.03 0.00 0.02 12865
0.12 -0.01 1.21 -0.89 9.98 0.03 -0.00 0.02 12871
0.13 -0.01 1.19 -0.87 10.04 0.04 -0.01 0.02 12877
0.12 -0.01 1.24 -0.89 10.02 0.04 -0.01 0.01 12883
0.12 -0.01 1.25 -0.86 9.97 0.05 -0.02 0.01 12890
0.15 -0.02 1.28 -0.89 9.95 0.06 -0.02 0.01 12896
0.14 -0.01 1.25 -0.89 9.96 0.06 -0.03 0.00 12903
0.14 -0.01 1.26 -0.89 9.94 0.06 -0.03 -0.00 12909
0.17 -0.01 1.27 -0.96 9.92 0.05 -0.04 -0.01 12915
0.19 -0.02 1.25 -0.92 9.92 0.05 -0.04 -0.01 12921
0.20 -0.02 1.28 -0.97 9.97 0.06 -0.05 -0.02 12928
0.22 -0.02 1.25 -0.95 9.98 0.06 -0.05 -0.02 12934
0.24 -0.02 1.27 -0.97 10.06 0.07 -0.06 -0.02 12941
0.24 -0.02 1.30 -0.96 10.05 0.09 -0.07 -0.03 12947
0.28 -0.02 1.31 -0.99 10.04 0.11 -0.09 -0.04 12953
0.30 -0.02 1.31 -1.01 10.02 0.13 -0.08 -0.05 12959
0.30 -0.02 1.31 -1.05 10.06 0.15 -0.09 -0.06 12965
0.37 -0.02 1.31 -1.01 10.03 0.17 -0.09 -0.06 12973
0.40 -0.02 1.35 -1.11 10.11 0.21 -0.08 -0.07 12979
0.39 -0.02 1.33 -1.07 10.19 0.24 -0.07 -0.08 12985
0.44 -0.03 1.24 -1.12 10.10 0.29 -0.06 -0.08 12992
0.47 -0.03 1.24 -1.74 10.31 0.36 -0.04 -0.08 12998
0.54 -0.03 1.19 -1.18 10.44 0.46 -0.03 -0.09 13004
0.57 -0.04 1.24 -1.79 10.54 0.56 -0.01 -0.09 13010
0.62 -0.03 1.34 -1.30 10.49 0.68 0.00 -0.13 13018
0.69 -0.04 1.29 -1.33 10.67 0.80 0.02 -0.11 13024
0.70 -0.04 1.39 -1.49 10.75 0.91 0.02 -0.11 13030
0.75 -0.04 1.26 -1.48 11.03 1.01 0.03 -0.12 13036
0.77 -0.05 1.31 -1.57 10.80 1.09 0.04 -0.12 13043
0.78 -0.03 1.29 -1.68 10.74 1.17 0.06 -0.12 13049
0.84 -0.04 1.32 -1.67 10.78 1.24 0.09 -0.13 13056
0.86 -0.04 1.23 -1.89 10.83 1.31 0.13 -0.14 13062
0.90 -0.04 1.36 -1.96 11.15 1.38 0.16 -0.14 13069
0.91 -0.05 1.28 -1.99 11.24 1.47 0.19 -0.14 13075
0.94 -0.04 1.53 -2.15 11.23 1.57 0.21 -0.14 13081
0.94 -0.05 1.34 -2.19 11.30 1.68 0.24 -0.15 13087
0.91 -0.04 1.32 -2.32 11.17 1.80 0.28 -0.15 13094
0.89 -0.05 1.36 -2.45 11.11 1.91 0.33 -0.15 13101
0.83 -0.04 1.51 -3.01 11.57 2.02 0.42 -0.15 13107
0.83 -0.05 1.27 -2.68 11.72 2.16 0.53 -0.13 13114
0.75 -0.04 1.12 -2.80 11.71 2.32 0.67 -0.12 13120
0.69 -0.03 1.33 -3.66 11.95 2.50 0.85 -0.10 13126
0.59 -0.04 1.42 -3.25 12.02 2.69 1.04 -0.09 13132
0.53 -0.03 1.21 -3.30 12.07 2.90 1.24 -0.08 13139
0.43 -0.03 1.13 -4.22 12.81 3.11 1.46 -0.00 13146
0.26 -0.02 0.78 -4.01 13.34 3.33 1.69 0.06 13152
0.22 -0.02 0.76 -4.83 14.25 3.56 1.89 0.11 13158
0.20 -0.02 0.68 -4.54 13.92 3.78 2.02 0.21 13165
0.16 -0.01 0.15 -4.88 14.83 3.89 2.05 0.35 13171
0.17 -0.02 0.50 -6.13 14.14 3.87 2.19 0.53 13177
0.14 -0.01 0.89 -7.17 17.69 3.86 2.19 0.71 13184
0.14 -0.00 2.77 -8.10 20.87 4.03 2.35 0.80 13191
0.12 -0.01 3.99 -8.35 22.65 4.22 2.62 0.83 13197
0.09 -0.01 4.30 -8.62 23.43 4.28 2.76 0.82 13203
0.11 -0.01 3.64 -8.61 21.09 4.28 2.73 0.83 13209
0.09 -0.01 3.88 -8.61 20.22 4.28 2.74 0.93 13215
0.07 -0.01 5.29 -8.72 21.26 4.28 2.91 0.98 13222
0.08 -0.01 6.28 -7.60 21.02 4.28 3.35 1.00 13229
0.08 -0.01 6.75 -6.62 20.61 4.28 3.89 0.93 13235
0.04 -0.00 6.13 -5.42 21.84 4.27 4.26 0.77 13241
0.05 -0.00 3.93 -3.87 21.45 4.24 4.28 0.58 13247
0.08 -0.01 1.91 -1.97 20.67 4.20 4.28 0.38 13254
0.06 0.00 -0.83 0.28 20.41 4.14 4.28 0.13 13260
0.06 -0.01 -2.85 3.23 18.44 4.01 4.28 -0.13 13266
0.04 -0.00 -3.68 5.18 17.87 3.69 4.20 -0.41 13273
0.05 -0.00 -4.87 8.08 16.12 3.27 3.16 -0.68 13280
0.03 -0.00 -13.35 13.29 5.68 3.00 2.16 -1.14 13286
0.03 -0.00 -12.57 10.80 13.44 2.48 0.05 -1.70 13292
0.04 -0.00 -10.71 12.14 8.44 0.55 -1.94 -1.97 13298
0.05 -0.00 -6.77 13.02 12.18 -1.25 -3.22 -2.18 13305
0.06 -0.01 -2.15 8.20 17.49 -2.22 -3.93 -2.38 13312
0.04 -0.00 -0.55 4.42 15.99 -2.73 -4.11 -2.72 13318
0.05 0.00 0.28 2.87 14.01 -2.98 -3.91 -3.13 13324
0.04 -0.00 1.55 2.39 12.48 -3.03 -3.43 -3.48 13331
0.03 -0.00 2.17 2.24 10.95 -3.01 -2.84 -3.85 13337
0.04 -0.00 1.99 2.31 9.29 -2.99 -2.36 -4.16 13343
0.05 -0.00 1.69 2.59 8.54 -3.01 -2.02 -4.28 13349
0.04 -0.00 1.65 3.10 8.61 -3.09 -1.87 -4.28 13356
0.04 -0.00 1.54 3.39 9.16 -3.24 -1.86 -4.28 13362
0.03 -0.00 2.13 3.47 8.70 -3.42 -1.94 -4.28 13369
0.03 -0.00 2.27 3.03 10.07 -3.55 -2.06 -4.28 13375
0.04 0.00 2.68 2.27 10.67 -3.76 -2.10 -4.27 13381
0.03 -0.00 3.39 2.17 12.13 -3.99 -2.08 -3.98 13387
0.03 -0.00 4.18 2.11 12.91 -4.16 -2.19 -3.62 13394
0.04 -0.00 4.45 1.16 12.91 -4.26 -2.41 -3.23 13401
0.03 -0.00 5.05 -0.30 11.92 -4.28 -2.58 -2.82 13407
0.04 -0.00 6.22 -1.28 12.32 -4.28 -2.74 -2.44 13413
0.04 -0.00 6.90 -1.86 12.16 -4.28 -2.93 -2.08 13419
0.05 -0.00 7.07 -2.54 12.85 -4.28 -3.12 -1.74 13426
0.04 0.01 7.96 -3.08 12.34 -4.28 -3.14 -1.46 13432
0.04 -0.00 9.55 -3.68 11.30 -4.28 -3.04 -1.14 13438
0.03 -0.00 10.76 -4.19 11.05 -4.28 -2.85 -0.97 13445
0.06 -0.01 11.84 -4.94 10.86 -4.28 -2.54 -0.79 13452
0.05 -0.01 12.83 -5.64 10.90 -4.28 -2.10 -0.63 13458
0.06 0.02 13.68 -6.19 11.49 -4.25 -1.61 -0.49 13464
0.03 -0.00 13.93 -6.62 11.47 -4.18 -1.12 -0.32 13471
0.03 -0.00 13.63 -7.32 11.63 -4.08 -0.64 -0.17 13477
0.05 -0.01 13.13 -8.04 12.20 -3.95 -0.26 -0.00 13484
0.05 -0.00 12.59 -8.82 12.88 -3.78 0.06 0.15 13490
0.05 -0.00 12.18 -9.57 13.45 -3.61 0.31 0.37 13497
0.03 -0.00 11.81 -10.06 13.78 -3.42 0.53 0.61 13503
0.04 0.00 11.44 -10.52 14.05 -3.26 0.72 0.90 13509
0.03 -0.00 11.09 -10.75 14.34 -3.11 0.89 1.17 13516
0.04 -0.00 10.99 -10.70 14.57 -2.98 1.06 1.48 13522
0.04 -0.00 10.95 -10.54 14.66 -2.87 1.22 1.75 13529
0.04 -0.00 10.84 -10.54 14.73 -2.77 1.40 1.99 13535
0.03 -0.00 10.67 -10.81 14.67 -2.67 1.61 2.18 13542
0.04 -0.00 10.20 -11.11 14.41 -2.58 1.81 2.31 13548
0.03 -0.00 9.82 -11.37 14.11 -2.46 2.03 2.39 13554
0.02 -0.00 9.38 -11.61 13.83 -2.33 2.23 2.39 13561
0.05 -0.00 8.73 -11.64 13.48 -2.18 2.42 2.33 13568
0.03 -0.00 8.09 -11.58 13.19 -2.01 2.60 2.21 13574
0.03 0.00 7.37 -11.35 12.96 -1.83 2.74 2.03 13581
0.03 -0.00 6.55 -11.04 13.09 -1.67 2.85 1.80 13587
0.03 -0.00 5.69 -10.57 13.47 -1.51 2.90 1.54 13593
0.04 -0.00 4.75 -10.01 14.00 -1.41 2.88 1.27 13599
0.03 -0.00 3.94 -9.56 14.66 -1.34 2.83 1.00 13605
0.04 0.00 3.39 -9.17 15.46 -1.34 2.77 0.76 13613
0.04 -0.00 2.49 -8.81 16.42 -1.39 2.73 0.53 13619
0.02 -0.00 2.57 -8.42 16.98 -1.51 2.71 0.34 13625
0.03 -0.00 1.86 -8.17 17.12 -1.68 2.74 0.16 13631
0.03 -0.00 1.20 -8.00 16.83 -1.86 2.80 0.00 13638
0.02 -0.00 0.55 -8.15 16.27 -2.03 2.85 -0.09 13644
0.05 -0.00 -0.02 -8.48 15.79 -2.17 2.90 -0.21 13650
0.03 -0.00 -0.51 -8.89 15.06 -2.27 2.94 -0.32 13657
0.03 -0.00 -0.99 -9.35 14.60 -2.30 2.96 -0.43 13663
0.05 -0.00 -1.43 -9.95 14.11 -2.28 2.95 -0.56 13670
0.03 -0.00 -1.91 -10.70 13.50 -2.22 2.90 -0.68 13676
0.04 0.00 -2.35 -11.43 12.82 -2.12 2.83 -0.82 13682
0.03 -0.00 -2.81 -11.98 12.04 -1.98 2.73 -0.95 13688
0.03 -0.00 -3.24 -12.50 11.26 -1.80 2.63 -1.06 13696
0.05 -0.00 -3.66 -12.97 10.48 -1.58 2.55 -1.14 13702
0.02 -0.00 -4.18 -13.43 10.24 -1.33 2.47 -1.16 13708
0.04 -0.00 -4.77 -13.90 10.17 -1.09 2.38 -1.12 13715
0.03 -0.00 -5.69 -14.56 10.08 -0.87 2.25 -1.02 13721
0.03 0.00 -6.48 -15.20 9.75 -0.67 2.04 -0.87 13727
0.03 -0.00 -7.19 -15.83 9.13 -0.49 1.74 -0.67 13733
0.01 -0.00 -7.80 -16.45 8.38 -0.32 1.40 -0.44 13740
0.04 -0.00 -8.33 -17.17 7.41 -0.15 1.08 -0.20 13747
0.04 -0.00 -9.01 -18.09 6.99 0.04 0.84 0.01 13753
0.03 -0.00 -9.39 -19.33 7.04 0.25 0.64 0.16 13759
0.03 -0.00 -23.96 -23.67 15.19 0.65 -0.57 0.44 13765
0.03 -0.00 -23.85 -20.57 15.16 2.08 -3.10 1.23 13772
0.03 0.00 -1.43 -9.60 5.65 2.01 -4.28 1.36 13778
0.04 -0.00 3.02 0.56 4.58 1.85 -4.28 1.09 13785
0.04 -0.00 7.83 4.04 9.95 1.89 -4.28 1.15 13791
0.03 0.01 7.92 9.84 15.09 1.81 -4.27 1.53 13797
0.02 0.02 3.96 7.84 13.37 1.73 -3.59 1.95 13804
0.03 0.05 -0.40 5.77 9.65 1.88 -2.68 2.10 13810
0.05 0.16 -1.82 2.27 8.05 2.13 -2.12 2.05 13816
0.03 0.25 -4.89 -0.43 12.15 2.49 -1.63 1.92 13822
0.01 0.38 -9.94 -1.65 15.08 2.89 -1.36 1.63 13830
0.01 0.59 -12.56 -0.60 17.13 3.12 -1.24 1.06 13836
0.01 0.69 -10.83 -1.04 20.27 3.13 -1.05 0.29 13842
0.01 0.75 -5.20 -1.45 21.75 2.95 -0.85 -0.38 13849
-0.00 0.82 2.01 -2.56 25.90 2.67 -1.21 -0.78 13855
0.01 0.84 6.64 -3.22 21.70 1.67 -1.98 -0.58 13861
0.00 0.80 4.37 -4.02 13.94 0.81 -1.32 0.01 13868
0.00 0.80 1.93 -2.85 12.56 0.46 -0.64 0.24 13875
0.00 0.80 1.70 -1.30 9.64 0.34 -0.56 0.27 13881
-0.01 0.77 0.40 -0.28 10.54 0.38 -0.77 0.19 13887
0.02 0.77 0.50 -0.17 10.74 0.35 -0.88 0.03 13893
0.00 0.75 1.28 -0.28 10.01 0.29 -0.85 -0.03 13900
-0.01 0.82 1.48 -0.66 9.63 0.25 -0.76 -0.03 13906
0.02 0.79 1.38 -1.04 10.08 0.23 -0.73 -0.01 13913
0.01 0.86 1.08 -0.28 10.24 0.21 -0.69 0.01 13919
0.01 0.86 0.92 -0.73 10.68 0.18 -0.63 0.01 13926
0.01 0.83 0.84 -0.73 10.30 0.14 -0.53 0.01 13932
-0.00 0.80 0.82 -1.34 9.76 0.09 -0.40 0.02 13938
0.02 0.83 0.84 -0.89 10.27 0.05 -0.29 0.03 13944
0.01 0.79 0.85 -0.82 10.15 0.03 -0.22 0.04 13950
0.01 0.80 0.81 -0.80 10.13 0.03 -0.17 0.04 13958
0.02 0.74 0.92 -0.76 10.06 0.03 -0.14 0.05 13964
0.01 0.69 0.91 -0.81 10.15 0.02 -0.13 0.05 13970
0.03 0.68 0.91 -0.74 10.05 0.02 -0.12 0.05 13976
0.01 0.67 0.97 -0.79 10.02 0.02 -0.11 0.04 13983
0.01 0.64 0.98 -0.83 10.02 0.02 -0.11 0.05 13989
0.03 0.60 0.93 -0.76 9.94 0.02 -0.10 0.04 13996
0.03 0.57 0.94 -0.76 10.02 0.02 -0.10 0.04 14002
0.03 0.56 0.91 -0.71 9.97 0.02 -0.10 0.03 14008
0.02 0.52 0.88 -0.76 9.96 0.02 -0.08 0.03 14015
0.03 0.51 0.89 -0.79 9.98 0.02 -0.07 0.03 14021
0.03 0.46 0.90 -0.77 10.01 0.02 -0.07 0.03 14027
0.04 0.44 0.90 -0.79 9.97 0.02 -0.06 0.03 14033
0.03 0.35 0.85 -0.77 10.03 0.02 -0.05 0.03 14040
0.04 0.33 0.89 -0.81 9.98 0.02 -0.05 0.03 14047
0.05 0.28 0.91 -0.80 9.98 0.02 -0.05 0.03 14053
0.03 0.26 0.92 -0.78 9.97 0.02 -0.04 0.04 14059
0.06 0.22 0.91 -0.80 9.96 0.02 -0.04 0.03 14065
0.06 0.21 0.94 -0.76 9.95 0.02 -0.05 0.04 14071
0.03 0.22 0.92 -0.78 9.97 0.02 -0.05 0.03 14078
0.06 0.21 0.91 -0.80 9.99 0.03 -0.04 0.04 14085
0.06 0.16 0.91 -0.79 9.98 0.03 -0.04 0.03 14091
0.07 0.12 0.92 -0.80 10.02 0.03 -0.04 0.03 14097
0.09 0.16 0.93 -0.98 9.98 0.03 -0.05 0.03 14103
0.11 0.08 0.93 -0.83 10.02 0.02 -0.05 0.03 14109
0.09 0.09 0.92 -0.80 9.96 0.03 -0.05 0.03 14116
0.11 0.07 0.95 -0.79 9.92 0.03 -0.06 0.03 14123
0.12 0.05 0.95 -0.78 10.02 0.03 -0.06 0.03 14129
0.11 0.02 0.91 -0.84 10.03 0.03 -0.07 0.03 14135
0.14 0.02 0.96 -0.95 10.02 0.03 -0.07 0.03 14142
0.17 0.02 0.97 -0.84 10.04 0.03 -0.07 0.03 14148
0.17 0.02 0.97 -0.86 10.08 0.03 -0.07 0.02 14154
0.20 0.01 0.87 -0.81 10.01 0.03 -0.07 0.02 14160
0.20 -0.01 0.86 -0.86 10.00 0.03 -0.07 0.02 14167
0.22 0.00 0.94 -0.92 10.06 0.03 -0.08 0.02 14174
0.23 -0.02 0.95 -0.90 10.01 0.03 -0.08 0.01 14180
0.22 -0.02 0.85 -0.82 10.04 0.02 -0.08 0.01 14186
0.23 -0.00 0.84 -0.80 10.01 0.03 -0.09 0.02 14192
0.23 -0.02 0.89 -0.93 9.98 0.02 -0.09 0.01 14198
0.25 -0.03 0.97 -0.96 10.05 0.02 -0.09 0.01 14204
0.29 -0.02 0.81 -0.92 10.03 0.02 -0.08 0.01 14212
0.31 -0.03 0.90 -0.93 9.94 0.02 -0.08 0.01 14218
0.35 -0.03 0.88 -1.06 10.12 0.03 -0.07 0.02 14224
0.34 -0.03 0.84 -0.84 10.01 0.04 -0.06 0.02 14230
0.37 -0.04 0.83 -0.88 10.05 0.04 -0.05 0.03 14236
0.43 -0.04 0.85 -0.89 10.01 0.05 -0.05 0.03 14243
0.39 0.00 0.77 -0.88 10.00 0.06 -0.05 0.03 14249
0.43 -0.02 0.83 -0.89 10.02 0.07 -0.04 0.03 14256
0.43 -0.01 0.80 -0.90 10.04 0.07 -0.03 0.03 14262
0.47 -0.01 0.85 -0.89 10.00 0.08 -0.03 0.03 14269
0.49 -0.03 0.87 -0.97 10.04 0.09 -0.02 0.03 14275
0.56 -0.05 0.84 -0.97 10.05 0.09 -0.02 0.03 14281
0.54 -0.03 0.95 -0.95 10.00 0.10 -0.00 0.03 14287
0.54 -0.03 0.90 -0.98 10.06 0.10 -0.00 0.03 14294
0.51 -0.02 0.93 -1.02 10.11 0.11 0.01 0.03 14301
0.54 -0.03 0.91 -1.04 10.07 0.12 0.01 0.03 14307
0.55 -0.04 0.86 -0.91 10.05 0.13 0.01 0.03 14313
0.54 -0.03 0.99 -1.18 10.00 0.14 0.01 0.02 14319
0.59 -0.04 0.94 -0.99 9.98 0.13 0.01 0.02 14326
0.59 -0.04 0.89 -1.13 9.97 0.14 0.01 0.01 14332
0.60 -0.06 0.92 -1.15 10.03 0.15 0.01 0.01 14339
0.63 -0.04 0.91 -1.16 9.95 0.16 0.01 0.01 14345
0.65 -0.06 0.91 -1.04 10.12 0.17 0.01 0.01 14351
0.67 -0.04 1.06 -1.13 10.08 0.19 0.01 0.00 14358
0.67 -0.03 0.95 -0.78 10.13 0.21 0.02 0.00 14364
0.70 -0.03 1.04 -1.13 10.14 0.25 0.02 -0.01 14370
0.73 -0.03 0.99 -1.20 10.27 0.30 0.02 -0.02 14376
0.77 -0.04 0.97 -1.20 10.17 0.36 0.03 -0.02 14384
0.84 -0.04 0.99 -1.22 10.20 0.40 0.04 -0.02 14390
0.89 -0.04 0.92 -1.26 10.39 0.45 0.04 -0.03 14396
0.88 -0.03 0.97 -1.30 10.36 0.51 0.06 -0.03 14402
0.92 -0.05 0.97 -1.34 11.01 0.59 0.08 -0.04 14409
0.96 -0.05 0.88 -1.39 10.53 0.66 0.11 -0.04 14415
0.98 -0.05 1.01 -1.43 10.37 0.74 0.13 -0.04 14422
1.00 -0.05 1.00 -1.51 10.51 0.80 0.14 -0.03 14428
1.02 -0.04 0.98 -1.56 10.76 0.89 0.15 -0.03 14435
1.05 -0.05 1.04 -1.61 10.90 0.99 0.14 -0.03 14441
1.04 -0.05 1.15 -1.76 10.92 1.09 0.16 -0.04 14447
1.05 -0.05 1.11 -1.82 10.91 1.17 0.18 -0.04 14453
1.03 -0.05 1.18 -1.91 11.02 1.26 0.18 -0.05 14460
1.02 -0.05 1.22 -2.01 11.01 1.35 0.16 -0.05 14467
1.07 -0.05 1.21 -2.08 11.05 1.44 0.16 -0.05 14473
1.07 -0.04 1.25 -2.13 10.86 1.51 0.15 -0.06 14479
1.09 -0.05 1.29 -2.30 11.00 1.59 0.14 -0.07 14486
1.04 -0.06 1.30 -2.48 10.92 1.68 0.14 -0.08 14492
1.07 -0.05 1.27 -2.54 11.11 1.77 0.16 -0.09 14498
1.07 -0.06 1.25 -2.61 11.17 1.86 0.20 -0.09 14505
1.02 -0.04 1.26 -2.75 10.86 1.97 0.24 -0.10 14512
0.99 -0.05 1.25 -2.89 10.96 2.07 0.31 -0.10 14518
0.98 -0.04 1.23 -3.10 11.24 2.19 0.41 -0.10 14524
0.96 -0.05 1.22 -3.18 11.15 2.33 0.51 -0.10 14531
0.87 -0.04 0.90 -3.36 11.43 2.48 0.67 -0.08 14537
0.77 -0.04 0.97 -3.43 11.96 2.67 0.87 -0.06 14543
0.64 -0.04 1.08 -3.66 12.25 2.87 1.08 -0.02 14550
0.53 -0.03 0.97 -3.90 11.85 3.08 1.32 0.01 14557
0.37 -0.02 0.66 -4.02 12.24 3.27 1.53 0.05 14563
0.27 -0.02 0.43 -4.68 13.02 3.47 1.74 0.12 14569
0.21 -0.02 0.26 -5.22 13.55 3.65 1.93 0.23 14575
0.18 -0.02 0.48 -5.49 13.86 3.78 1.96 0.34 14582
0.13 -0.01 -0.37 -6.02 13.44 3.84 2.24 0.52 14588
0.16 -0.01 -0.14 -7.63 14.98 3.70 2.34 0.71 14595
0.12 -0.01 1.41 -8.56 19.46 3.80 2.49 0.85 14601
0.12 0.01 2.72 -9.58 22.60 4.07 2.75 0.92 14608
0.10 -0.01 3.64 -9.68 22.91 4.27 2.91 0.95 14614
0.10 -0.01 3.63 -9.82 21.99 4.28 2.97 0.98 14620
0.11 -0.01 4.26 -9.63 20.86 4.28 3.01 1.05 14626
0.07 -0.01 6.24 -9.42 19.66 4.28 3.20 1.08 14632
0.05 -0.00 7.56 -8.85 21.46 4.28 3.64 1.10 14640
0.07 -0.01 8.22 -7.93 21.34 4.26 4.18 1.03 14646
0.04 -0.00 7.07 -6.16 21.12 4.22 4.28 0.85 14652
0.06 -0.01 4.43 -5.52 21.79 4.18 4.28 0.58 14658
0.06 -0.01 0.63 -2.86 21.41 4.12 4.28 0.38 14664
0.04 -0.00 -2.21 -0.66 20.37 4.03 4.28 0.08 14671
0.06 0.00 -4.14 2.31 19.75 3.78 4.28 -0.18 14678
0.06 -0.01 -5.30 5.33 18.60 3.40 3.53 -0.44 14684
0.03 -0.00 -7.72 8.85 16.38 2.98 2.36 -0.61 14690
0.05 -0.01 -13.19 13.76 5.32 2.70 1.45 -1.01 14697
0.05 -0.00 -8.41 10.06 9.72 2.04 -0.72 -1.56 14703
0.04 -0.00 -7.44 11.28 8.95 0.10 -2.41 -1.89 14709
0.04 -0.00 -2.79 12.95 12.37 -1.45 -3.00 -2.11 14715
0.04 -0.00 0.27 8.71 15.95 -2.17 -3.21 -2.34 14723
0.05 0.00 1.11 4.37 14.84 -2.51 -3.06 -2.67 14729
0.06 -0.01 1.40 3.02 13.06 -2.69 -2.67 -3.06 14735
0.04 -0.00 1.79 3.27 11.12 -2.72 -2.13 -3.42 14741
0.05 -0.01 1.79 3.46 9.20 -2.72 -1.62 -3.74 14747
0.04 -0.00 1.51 3.71 7.99 -2.76 -1.28 -3.99 14754
0.03 -0.00 1.21 3.98 7.62 -2.85 -1.10 -4.19 14760
0.05 -0.00 1.00 4.21 7.76 -2.99 -1.00 -4.28 14767
0.03 -0.00 0.77 4.23 8.26 -3.16 -1.05 -4.28 14773
0.04 -0.00 0.82 3.80 8.99 -3.36 -1.21 -4.28 14779
0.05 0.00 1.03 3.45 9.75 -3.57 -1.44 -4.26 14785
0.04 -0.00 1.33 2.92 10.63 -3.78 -1.67 -4.10 14792
0.03 -0.00 1.83 2.28 11.24 -3.98 -1.85 -3.83 14798
0.03 -0.00 2.82 1.77 11.61 -4.13 -2.04 -3.49 14804
0.04 -0.00 4.27 1.32 11.86 -4.23 -2.27 -3.12 14811
0.03 -0.00 5.53 0.59 12.34 -4.28 -2.54 -2.77 14817
0.04 -0.00 6.46 -0.54 12.46 -4.28 -2.74 -2.45 14824
0.04 -0.00 7.30 -1.60 12.83 -4.28 -2.82 -2.14 14830
0.05 -0.00 7.98 -2.72 12.77 -4.28 -2.85 -1.83 14836
0.05 -0.00 8.54 -3.65 12.37 -4.28 -2.85 -1.54 14842
0.03 -0.00 9.27 -4.44 11.78 -4.28 -2.83 -1.28 14850
0.04 -0.00 10.03 -5.05 11.14 -4.28 -2.77 -1.07 14856
0.04 -0.00 10.83 -5.66 10.58 -4.28 -2.63 -0.89 14862
0.04 -0.00 11.90 -6.22 10.50 -4.28 -2.38 -0.75 14868
0.04 -0.00 12.99 -6.58 10.60 -4.28 -2.02 -0.61 14875
0.04 -0.00 13.81 -6.92 10.82 -4.23 -1.56 -0.47 14881
0.05 -0.00 14.30 -7.29 11.04 -4.13 -1.02 -0.32 14887
0.05 -0.00 14.38 -7.80 11.64 -4.00 -0.47 -0.17 14894
0.05 -0.00 13.99 -8.36 12.50 -3.87 0.06 0.00 14901
0.05 -0.00 12.97 -8.80 13.35 -3.75 0.47 0.21 14907
0.04 -0.00 13.00 -9.23 13.80 -3.63 0.78 0.48 14913
0.05 -0.01 12.47 -9.54 14.11 -3.52 1.01 0.76 14919
0.05 -0.00 12.06 -9.87 14.17 -3.40 1.15 1.05 14926
0.04 -0.00 11.75 -10.23 14.30 -3.27 1.29 1.32 14932
0.03 -0.00 11.45 -10.57 14.19 -3.13 1.46 1.55 14939
0.04 -0.00 11.21 -10.91 14.00 -2.96 1.62 1.73 14946
0.04 -0.00 10.83 -11.28 13.75 -2.79 1.82 1.86 14952
0.03 -0.00 10.44 -11.53 13.56 -2.61 2.03 1.94 14958
0.04 -0.00 9.98 -11.67 13.43 -2.40 2.24 1.97 14965
0.04 -0.00 9.53 -11.70 13.24 -2.19 2.44 1.96 14971
0.04 -0.00 8.98 -11.71 13.08 -1.97 2.61 1.91 14978
0.04 -0.00 8.32 -11.55 13.08 -1.74 2.75 1.82 14984
0.03 -0.00 7.50 -11.31 13.26 -1.53 2.84 1.70 14991
0.04 -0.00 6.54 -11.03 13.69 -1.34 2.87 1.55 14997
0.02 -0.00 5.71 -10.63 14.29 -1.19 2.86 1.37 15003
0.05 -0.00 5.22 -10.23 15.29 -1.09 2.85 1.20 15009
0.03 -0.00 4.81 -10.11 16.02 -1.06 2.88 1.02 15016
0.03 -0.00 4.38 -10.12 16.58 -1.10 2.93 0.85 15023
0.04 -0.00 3.81 -10.10 16.95 -1.18 3.02 0.69 15029
0.03 -0.00 3.12 -10.19 17.01 -1.30 3.09 0.55 15035
0.05 -0.00 2.45 -10.20 16.89 -1.43 3.15 0.44 15042
0.03 -0.00 1.61 -10.21 16.61 -1.56 3.18 0.34 15048
0.03 0.00 0.72 -10.27 16.21 -1.68 3.14 0.27 15054
0.03 -0.00 -0.22 -10.45 15.78 -1.77 3.02 0.22 15060
0.03 -0.00 -7.30 -14.80 19.82 -1.61 2.18 0.27 15068
0.04 -0.00 -2.57 -10.34 13.62 -1.52 1.72 0.30 15074
0.04 -0.00 -3.74 -9.17 12.09 -1.55 1.24 0.29 15080
0.04 0.00 0.26 -10.92 8.11 -1.83 1.52 0.21 15086
0.03 -0.00 -2.99 -14.59 16.17 -1.60 1.04 0.23 15093
0.03 -0.00 0.15 -12.01 10.74 -1.64 1.24 0.15 15099
0.04 -0.00 -1.01 -14.39 11.15 -1.51 1.55 0.02 15106
0.04 -0.00 -1.18 -13.08 12.34 -1.19 1.66 -0.02 15112
0.04 0.00 0.58 -11.71 9.44 -1.30 2.22 -0.15 15119
0.04 -0.00 -3.36 -14.54 13.57 -1.09 2.47 -0.17 15125
0.03 -0.00 -4.15 -12.97 9.66 -0.99 2.59 -0.14 15131
0.04 -0.00 -6.02 -13.08 11.32 -0.88 2.55 -0.12 15137
0.03 -0.00 -7.65 -14.02 9.94 -0.71 2.35 -0.01 15144
0.03 -0.00 -12.65 -16.65 10.80 -0.39 1.63 0.25 15151
0.04 -0.00 -14.57 -15.25 10.45 0.06 0.51 0.59 15157
0.04 -0.00 -10.28 -14.25 4.62 0.22 -0.30 0.81 15164
0.05 -0.00 -17.01 -20.04 6.84 0.44 -1.40 1.10 15170
0.04 -0.00 -14.72 -20.30 7.01 1.05 -2.81 1.50 15176
0.03 -0.00 -11.50 -19.07 4.43 1.28 -3.78 1.67 15182
0.03 -0.00 -9.41 -14.25 4.79 1.57 -4.28 1.74 15188
0.03 -0.00 2.07 -4.74 8.46 1.77 -4.28 1.75 15196
0.05 -0.00 3.72 -0.10 15.16 1.99 -4.28 1.72 15202
0.03 0.01 2.22 6.08 18.41 2.44 -3.28 1.95 15208
0.03 0.01 1.35 10.81 13.58 2.53 -2.14 2.36 15214
0.03 0.12 0.41 7.25 6.38 2.56 -1.56 2.51 15221
0.03 0.18 -4.38 0.38 10.79 2.75 -1.09 2.48 15227
0.02 0.31 -8.46 -3.98 14.55 2.87 -0.62 2.33 15234
0.02 0.29 -13.76 -4.56 15.19 2.87 -0.52 1.89 15241
0.01 0.44 -14.66 -2.23 17.73 2.80 -0.76 1.10 15247
0.01 0.54 -10.88 -0.54 19.41 2.57 -0.94 0.17 15253
0.01 0.54 -4.11 -0.60 19.72 2.26 -0.96 -0.63 15259
0.01 0.55 2.57 -2.13 24.33 1.90 -1.14 -0.85 15266
0.01 0.62 5.98 -2.03 17.22 0.81 -1.48 -0.51 15272
0.01 0.61 4.38 -1.50 11.79 0.34 -0.90 -0.02 15279
0.01 0.57 2.16 -1.89 11.27 0.26 -0.49 0.14 15286
0.03 0.62 2.12 -1.50 9.56 0.32 -0.49 0.27 15292
0.01 0.65 0.95 -0.73 10.02 0.40 -0.80 0.21 15298
0.00 0.66 0.22 -0.14 10.69 0.37 -0.94 0.08 15304
-0.00 0.67 0.73 -0.29 10.29 0.23 -0.79 -0.01 15310
0.00 0.69 1.25 -0.46 10.21 0.17 -0.70 -0.04 15318
0.01 0.72 1.02 -0.75 10.91 0.14 -0.67 -0.02 15324
0.02 0.74 0.72 -0.78 10.74 0.11 -0.58 -0.01 15330
0.02 0.75 0.33 -0.79 11.12 0.04 -0.43 -0.01 15336
0.01 0.81 0.89 -0.76 9.67 -0.00 -0.35 -0.03 15343
0.00 0.79 0.86 -1.10 10.24 -0.01 -0.32 -0.05 15349
0.01 0.79 0.61 -0.91 10.39 -0.01 -0.29 -0.05 15355
0.02 0.82 0.61 -0.78 10.11 -0.02 -0.26 -0.04 15362
0.01 0.83 0.60 -0.84 10.07 -0.02 -0.23 -0.03 15369
0.03 0.90 0.57 -0.79 10.27 -0.02 -0.20 -0.02 15375
0.01 0.89 0.59 -0.73 10.20 -0.02 -0.17 -0.01 15381
0.03 0.90 0.56 -0.73 10.08 -0.01 -0.14 0.01 15387
0.03 0.89 0.64 -0.67 10.13 -0.00 -0.13 0.02 15394
0.04 0.88 0.69 -0.77 10.04 -0.00 -0.12 0.02 15400
0.06 0.86 0.76 -0.77 9.99 -0.00 -0.11 0.03 15407
0.05 0.87 0.75 -0.77 10.12 -0.00 -0.11 0.02 15413
0.04 0.85 0.72 -0.74 10.04 -0.00 -0.11 0.02 15420
0.04 0.83 0.74 -0.68 10.04 -0.00 -0.11 0.02 15426
0.05 0.80 0.74 -0.70 10.04 -0.00 -0.11 0.02 15432
0.05 0.83 0.64 -0.74 10.02 -0.00 -0.11 0.01 15438
