Voltage_01 Voltage_02 Acc_x Acc_y Acc_z Gyro_x Gyro_y Gyro_z Time
5000
0.07 -0.01 1.67 -3.89 16.07 3.45 3.19 0.09 17
0.05 -0.01 2.47 -4.05 16.57 3.66 3.47 0.16 23
0.08 -0.00 3.77 -4.89 18.43 3.81 3.88 0.22 29
0.07 -0.01 5.13 -5.41 19.60 3.91 4.27 0.28 35
0.07 -0.01 6.05 -5.80 20.56 3.98 4.28 0.35 41
0.06 -0.01 7.82 -6.43 21.90 4.02 4.28 0.42 48
0.04 -0.00 9.51 -6.89 23.43 3.95 4.28 0.51 54
0.06 0.01 11.60 -6.81 24.26 3.80 4.28 0.52 60
0.05 -0.01 10.65 -5.96 26.27 3.62 4.28 0.35 66
0.05 -0.00 4.54 -4.63 27.76 3.43 4.28 -0.04 72
0.04 -0.00 -0.88 -3.75 26.35 3.47 4.28 -0.42 78
0.05 0.01 -5.56 -2.11 22.23 3.71 4.28 -0.68 86
0.05 -0.01 -7.15 0.23 18.28 3.93 4.28 -0.92 92
0.04 -0.00 -6.69 3.66 12.88 3.89 4.28 -1.06 98
0.03 -0.00 -6.36 6.57 9.13 3.55 4.17 -1.13 104
0.04 -0.00 -4.58 7.78 9.06 3.08 2.89 -1.17 110
0.04 -0.00 -11.62 11.88 3.67 2.77 1.41 -1.54 116
0.04 -0.00 -10.86 11.00 24.53 1.75 -0.91 -2.36 122
0.02 -0.00 -3.54 13.14 19.77 -0.64 -1.76 -2.36 129
0.04 0.00 2.95 12.41 17.25 -1.93 -2.68 -1.90 136
0.03 -0.00 0.39 10.04 21.00 -2.56 -3.30 -1.59 142
0.02 -0.00 -1.14 8.01 17.75 -3.14 -3.12 -1.87 148
0.03 -0.00 -1.13 6.17 13.14 -3.43 -3.12 -2.36 154
0.05 -0.00 -1.05 5.87 10.70 -3.61 -3.22 -2.73 160
0.04 -0.00 -1.23 5.97 8.82 -3.69 -3.28 -3.01 166
0.04 -0.00 -0.90 5.70 8.66 -3.69 -3.32 -3.17 173
0.02 -0.00 -0.16 5.12 8.43 -3.65 -3.37 -3.36 179
0.03 -0.00 0.41 4.59 7.35 -3.58 -3.35 -3.49 185
0.02 -0.00 1.66 4.11 6.34 -3.54 -3.14 -3.60 191
0.03 -0.00 2.74 4.03 6.00 -3.45 -2.95 -3.70 197
0.04 -0.00 4.26 4.31 6.63 -3.35 -2.67 -3.69 203
0.04 -0.00 5.24 4.69 7.48 -3.27 -2.44 -3.62 209
0.04 -0.00 5.83 4.73 8.48 -3.25 -2.24 -3.43 217
0.04 -0.00 6.72 4.56 8.60 -3.33 -2.11 -3.15 223
0.03 -0.00 6.38 4.15 8.61 -3.47 -2.13 -2.84 229
0.01 -0.00 6.87 3.47 8.76 -3.63 -2.22 -2.48 235
0.03 -0.00 7.69 2.53 9.24 -3.75 -2.40 -2.05 241
0.05 -0.00 8.74 1.49 9.82 -3.84 -2.59 -1.58 247
0.04 -0.00 10.42 0.85 10.29 -3.83 -2.74 -1.11 253
0.03 -0.00 10.99 0.32 10.78 -3.85 -2.88 -0.67 260
0.03 -0.00 12.12 -0.06 11.22 -3.87 -2.89 -0.26 266
0.04 -0.00 13.18 -0.63 11.50 -3.88 -2.79 0.03 272
0.04 -0.00 13.85 -1.23 11.84 -3.89 -2.60 0.33 279
0.03 -0.00 14.24 -1.88 12.10 -3.88 -2.33 0.57 285
0.04 -0.00 14.23 -2.82 12.23 -3.86 -2.06 0.75 291
0.02 -0.00 14.00 -3.74 12.27 -3.83 -1.82 0.87 297
0.02 -0.00 13.71 -4.74 12.38 -3.76 -1.61 0.95 304
0.03 -0.00 13.46 -5.82 12.45 -3.66 -1.43 0.98 310
0.02 -0.00 13.12 -6.92 12.64 -3.53 -1.31 0.97 317
0.02 -0.00 12.92 -7.75 12.94 -3.38 -1.19 0.90 323
0.02 -0.00 12.86 -8.43 13.12 -3.22 -1.06 0.89 329
0.02 -0.00 12.72 -8.89 13.02 -3.04 -0.93 0.84 335
0.02 -0.00 12.79 -9.03 12.96 -2.86 -0.78 0.80 342
0.02 -0.00 12.80 -9.12 12.74 -2.67 -0.61 0.79 348
0.03 -0.00 12.86 -9.16 12.80 -2.47 -0.39 0.78 355
0.02 -0.00 12.86 -9.41 13.00 -2.26 -0.11 0.77 361
0.01 -0.00 12.54 -9.81 13.39 -2.08 0.21 0.73 367
0.02 -0.00 11.87 -10.27 13.29 -1.89 0.51 0.67 373
0.01 -0.00 10.83 -10.54 13.17 -1.72 0.81 0.57 379
0.01 -0.00 10.00 -10.52 13.28 -1.55 1.04 0.44 386
0.03 -0.00 9.31 -10.52 13.55 -1.42 1.21 0.34 393
0.03 -0.00 8.71 -10.50 13.83 -1.32 1.36 0.19 399
0.01 -0.00 8.11 -10.49 13.99 -1.27 1.50 0.05 405
0.02 0.01 7.52 -10.32 14.03 -1.26 1.60 -0.08 411
0.02 -0.00 6.90 -10.06 14.04 -1.29 1.67 -0.19 417
0.02 -0.00 6.17 -9.86 14.00 -1.32 1.72 -0.28 423
0.02 -0.00 5.21 -9.74 13.87 -1.34 1.75 -0.35 430
0.04 -0.00 4.51 -9.73 13.41 -1.35 1.75 -0.41 437
0.02 -0.00 3.66 -9.65 12.91 -1.34 1.73 -0.44 443
0.01 -0.00 3.02 -9.55 12.57 -1.30 1.70 -0.47 449
0.02 0.00 2.70 -9.35 12.45 -1.24 1.71 -0.48 455
0.03 -0.00 2.53 -9.17 12.59 -1.16 1.78 -0.48 461
0.02 -0.00 2.31 -9.12 12.72 -1.07 1.93 -0.47 467
0.01 -0.00 1.98 -9.11 12.62 -1.06 2.14 -0.46 474
0.03 0.00 1.53 -9.06 12.26 -1.02 2.32 -0.44 480
0.02 -0.00 0.86 -9.11 12.02 -0.99 2.49 -0.41 487
0.02 -0.00 0.20 -9.29 11.90 -0.95 2.57 -0.37 493
0.01 0.00 -0.36 -9.44 11.83 -0.89 2.56 -0.32 499
0.02 -0.00 -0.88 -9.62 12.06 -0.83 2.46 -0.24 505
0.02 -0.00 -1.37 -9.85 12.38 -0.80 2.31 -0.14 512
0.02 -0.00 -1.75 -10.23 12.36 -0.78 2.17 -0.03 518
0.03 -0.00 -2.00 -10.58 12.11 -0.80 1.96 0.10 524
0.04 -0.00 -2.24 -10.70 11.56 -0.81 1.75 0.26 530
0.02 -0.00 -2.80 -10.70 10.88 -0.80 1.60 0.42 537
0.01 -0.00 -3.62 -10.76 10.13 -0.74 1.58 0.70 543
0.02 -0.00 -4.49 -11.16 9.62 -0.63 1.57 1.06 549
0.02 -0.00 -5.18 -11.81 9.44 -0.48 1.39 1.42 556
0.02 -0.00 -5.55 -12.58 9.47 -0.36 1.03 1.76 562
0.01 -0.00 -5.58 -13.32 9.65 -0.25 0.56 2.04 568
0.02 0.01 -5.40 -13.60 9.49 -0.19 0.11 2.25 574
0.02 -0.00 -5.13 -13.86 9.28 -0.16 -0.29 2.40 580
0.02 -0.00 -4.93 -14.14 8.96 -0.13 -0.53 2.55 586
0.02 -0.00 -4.99 -14.46 8.38 -0.07 -0.63 2.65 593
0.03 -0.00 -5.17 -14.96 7.67 0.05 -0.65 2.69 600
0.01 -0.00 -5.30 -15.24 7.20 0.17 -0.61 2.67 606
0.02 -0.00 -5.60 -15.81 6.74 0.36 -0.57 2.60 612
0.02 -0.00 -19.64 -22.24 28.92 1.23 -1.75 2.78 618
0.03 -0.00 -5.58 -12.26 5.57 1.86 -2.65 3.03 624
0.02 -0.00 -1.83 0.08 4.45 1.86 -3.28 2.70 630
0.02 -0.00 -3.29 2.01 11.99 2.11 -2.84 2.29 636
0.02 -0.00 -0.72 4.23 15.24 2.14 -2.13 2.09 643
0.03 0.02 -0.64 12.15 16.06 1.90 -1.65 2.01 650
0.01 0.01 -3.83 11.41 12.01 1.49 -1.47 1.95 656
0.02 0.03 -5.69 7.26 7.20 1.30 -1.27 1.73 662
0.02 0.08 -5.37 2.69 6.11 1.48 -1.00 1.45 668
0.02 0.16 -7.70 -0.92 8.78 1.90 -0.65 1.20 674
0.01 0.22 -11.05 -1.81 10.23 2.27 -0.52 0.81 680
0.01 0.27 -11.10 -1.81 10.91 2.58 -0.60 0.21 688
0.01 0.41 -7.30 -0.45 12.62 2.74 -0.71 -0.39 694
0.01 0.42 -3.76 -0.06 14.31 2.73 -0.72 -0.86 700
0.01 0.46 -1.05 -0.66 15.42 2.60 -0.63 -1.18 706
-0.00 0.54 2.30 -1.43 14.97 2.46 -0.46 -1.34 712
0.00 0.44 5.28 -2.17 15.09 2.34 -0.36 -1.28 718
0.01 0.52 10.05 -4.68 22.81 2.14 -0.84 -1.01 726
0.01 0.57 8.74 -4.05 17.23 0.87 -1.76 -0.36 732
0.00 0.58 3.78 -2.79 13.05 0.63 -1.08 0.15 738
0.01 0.55 0.40 -1.60 11.49 0.39 -0.74 0.29 744
0.03 0.52 -0.35 -1.24 12.07 0.27 -0.55 0.29 750
0.01 0.56 -0.47 -0.52 11.78 0.13 -0.32 0.15 756
0.00 0.57 0.34 -0.62 10.64 0.01 -0.08 0.06 763
0.01 0.58 0.92 -0.98 10.22 -0.02 0.03 0.05 770
0.02 0.57 1.02 -1.03 9.99 -0.02 0.07 0.09 776
0.02 0.56 0.90 -0.84 10.08 -0.01 0.11 0.10 782
0.02 0.55 0.79 -0.61 10.20 -0.00 0.13 0.09 788
0.02 0.58 0.80 -0.61 10.20 -0.00 0.15 0.07 794
0.02 0.54 0.85 -0.75 9.90 -0.00 0.15 0.06 800
0.03 0.52 1.09 -0.84 9.92 0.01 0.16 0.07 806
0.01 0.52 0.88 -0.72 10.10 0.01 0.18 0.08 813
0.03 0.49 0.85 -0.73 9.88 0.02 0.20 0.09 820
0.04 0.47 0.85 -0.80 10.41 0.02 0.21 0.08 826
0.04 0.42 0.98 -0.82 10.13 0.03 0.20 0.08 832
0.03 0.40 1.08 -0.67 9.93 0.05 0.18 0.08 838
0.04 0.34 1.08 -0.71 10.03 0.05 0.16 0.07 844
0.04 0.33 1.06 -0.77 10.02 0.05 0.14 0.06 850
0.04 0.31 1.11 -0.86 10.03 0.05 0.10 0.05 857
0.05 0.27 1.08 -0.84 10.09 0.04 0.12 0.04 863
0.05 0.23 1.08 -0.79 10.10 0.03 0.11 0.04 870
0.03 0.24 1.07 -0.82 10.09 0.02 0.11 0.03 876
0.03 0.19 1.11 -0.81 10.03 0.02 0.09 0.03 882
0.06 0.18 1.12 -0.78 10.06 0.02 0.08 0.04 888
0.06 0.16 1.13 -0.80 9.98 0.01 0.07 0.03 894
0.04 0.13 1.13 -0.77 9.93 0.01 0.06 0.03 901
0.04 0.11 1.12 -0.77 10.02 0.01 0.06 0.03 907
0.05 0.11 1.18 -0.78 9.98 0.01 0.06 0.03 913
0.06 0.08 1.19 -0.79 10.01 0.01 0.05 0.03 919
0.05 0.08 1.23 -0.80 9.98 0.01 0.06 0.03 925
0.04 0.07 1.18 -0.77 9.97 0.01 0.06 0.02 931
0.05 0.05 1.22 -0.79 9.99 0.01 0.05 0.02 939
0.07 0.05 1.21 -0.77 9.97 0.01 0.06 0.02 945
0.06 0.02 1.17 -0.81 9.98 0.01 0.06 0.02 951
0.05 0.02 1.23 -0.81 10.01 0.02 0.05 0.02 957
0.04 0.02 1.26 -0.79 9.93 0.01 0.05 0.02 963
0.05 0.01 1.25 -0.83 10.01 0.02 0.05 0.02 969
0.06 -0.00 1.26 -0.80 9.92 0.02 0.04 0.02 975
0.05 -0.00 1.29 -0.82 9.94 0.02 0.03 0.02 982
0.04 -0.00 1.26 -0.79 9.91 0.02 0.02 0.02 988
0.04 -0.00 1.31 -0.80 9.92 0.02 -0.00 0.01 994
0.05 -0.01 1.27 -0.81 9.88 0.03 -0.01 0.01 1000
0.07 -0.01 1.31 -0.86 9.89 0.03 -0.02 0.01 1006
0.06 -0.01 1.31 -0.89 9.93 0.03 -0.02 0.01 1012
0.06 -0.01 1.29 -0.81 9.95 0.03 -0.03 0.01 1018
0.05 -0.01 1.27 -0.82 9.91 0.03 -0.05 0.00 1025
0.07 -0.01 1.31 -0.84 9.95 0.03 -0.06 0.00 1031
0.07 -0.00 1.31 -0.87 10.06 0.03 -0.08 -0.00 1038
0.06 -0.01 1.29 -0.86 9.94 0.03 -0.09 -0.01 1044
0.05 -0.00 1.24 -0.83 9.93 0.02 -0.12 -0.01 1050
0.07 0.00 1.30 -0.80 9.92 0.03 -0.14 -0.01 1056
0.12 -0.01 1.25 -0.87 9.95 0.03 -0.16 -0.01 1062
0.09 -0.01 1.25 -0.90 10.04 0.03 -0.18 -0.02 1069
0.10 -0.01 1.23 -0.89 9.95 0.03 -0.22 -0.02 1075
0.11 -0.00 1.23 -0.82 9.83 0.02 -0.25 -0.02 1081
0.09 -0.01 1.23 -0.90 9.99 0.02 -0.28 -0.03 1087
0.11 -0.01 1.20 -0.91 9.94 0.01 -0.32 -0.03 1094
0.09 -0.01 1.24 -0.91 9.97 -0.00 -0.35 -0.04 1100
0.13 0.00 1.15 -0.91 9.97 -0.02 -0.35 -0.05 1106
0.15 -0.01 1.11 -0.96 10.00 -0.02 -0.35 -0.06 1113
0.16 -0.01 1.11 -0.95 10.07 -0.03 -0.35 -0.06 1119
0.18 0.00 0.97 -1.01 10.06 -0.03 -0.32 -0.07 1125
0.21 -0.02 1.18 -0.88 10.06 -0.03 -0.29 -0.06 1132
0.23 -0.02 0.84 -0.77 10.05 -0.04 -0.26 -0.05 1138
0.27 -0.01 0.78 -0.83 9.98 -0.04 -0.23 -0.04 1144
0.28 -0.01 0.97 -0.95 9.98 -0.03 -0.20 -0.03 1150
0.27 -0.03 0.83 -0.84 10.04 -0.02 -0.18 -0.01 1157
0.28 -0.01 0.87 -0.82 10.04 -0.01 -0.15 0.00 1164
0.31 -0.03 0.90 -0.86 10.02 -0.01 -0.12 0.01 1170
0.33 -0.03 0.94 -0.86 10.06 0.00 -0.10 0.02 1176
0.35 -0.02 0.94 -0.84 10.03 0.01 -0.08 0.02 1182
0.38 -0.04 0.87 -0.88 10.06 0.02 -0.07 0.03 1188
0.38 -0.04 0.95 -0.89 10.03 0.02 -0.06 0.02 1195
0.38 -0.02 0.95 -0.89 9.98 0.03 -0.05 0.02 1201
0.41 -0.03 0.93 -0.90 10.05 0.04 -0.05 0.02 1208
0.41 -0.04 0.96 -0.90 10.05 0.05 -0.04 0.02 1214
0.40 -0.03 0.92 -0.89 10.06 0.06 -0.05 0.02 1220
0.43 -0.03 0.94 -0.91 10.09 0.07 -0.04 0.02 1226
0.44 -0.03 0.91 -0.92 10.10 0.09 -0.05 0.02 1232
0.46 -0.03 0.92 -0.95 10.06 0.11 -0.05 0.02 1240
0.50 -0.03 0.91 -0.98 10.04 0.12 -0.05 0.02 1246
0.52 -0.04 0.91 -0.96 10.11 0.14 -0.05 0.02 1252
0.53 -0.04 0.91 -0.97 10.07 0.15 -0.04 0.02 1258
0.57 -0.03 0.98 -0.97 10.06 0.17 -0.03 0.01 1264
0.58 -0.04 0.98 -1.03 10.19 0.19 -0.03 0.01 1271
0.59 -0.03 1.16 -1.07 9.94 0.23 -0.02 -0.01 1277
0.60 -0.04 1.08 -1.07 10.16 0.26 -0.01 -0.02 1284
0.61 -0.04 1.01 -1.07 10.23 0.31 -0.00 -0.03 1290
0.60 -0.04 1.07 -1.14 10.29 0.39 0.01 -0.05 1296
0.63 -0.04 1.12 -1.18 10.33 0.49 0.02 -0.07 1302
0.64 -0.04 0.93 -1.27 10.27 0.57 0.03 -0.09 1309
0.66 -0.04 1.05 -1.25 10.30 0.64 0.04 -0.10 1315
0.67 -0.04 0.95 -1.31 10.49 0.72 0.04 -0.11 1321
0.67 -0.05 1.03 -1.40 10.78 0.81 0.04 -0.12 1328
0.69 -0.03 1.11 -1.38 10.78 0.89 0.04 -0.13 1335
0.71 -0.04 1.24 -1.48 10.88 0.96 0.05 -0.14 1341
0.72 -0.04 1.10 -1.61 10.74 1.06 0.05 -0.15 1347
0.75 -0.03 1.29 -1.72 11.10 1.11 0.03 -0.17 1353
0.75 -0.04 1.25 -1.84 10.93 1.19 0.03 -0.19 1359
0.73 -0.03 1.18 -1.87 10.93 1.26 0.03 -0.20 1367
0.77 -0.04 1.82 -1.97 11.23 1.32 0.07 -0.21 1373
0.74 -0.05 1.12 -1.93 10.93 1.40 0.10 -0.23 1379
0.75 -0.04 1.09 -2.05 10.99 1.48 0.10 -0.24 1385
0.78 -0.04 0.97 -2.20 11.26 1.56 0.13 -0.23 1391
0.78 -0.05 0.97 -2.18 11.48 1.67 0.19 -0.22 1398
0.74 -0.02 0.83 -2.09 10.91 1.79 0.30 -0.21 1404
0.68 -0.03 1.04 -2.42 10.89 1.94 0.45 -0.20 1411
0.62 -0.03 1.32 -2.63 11.81 2.08 0.60 -0.21 1417
0.55 -0.03 1.03 -2.73 11.96 2.25 0.75 -0.22 1424
0.41 -0.03 0.78 -2.87 12.31 2.45 0.93 -0.20 1430
0.35 -0.01 0.30 -3.28 12.73 2.63 1.14 -0.14 1436
0.27 -0.02 0.22 -3.41 13.13 2.82 1.32 -0.06 1442
0.17 -0.02 -0.06 -3.59 13.00 3.00 1.56 0.04 1448
0.13 -0.01 -0.15 -4.05 14.14 3.11 1.72 0.16 1456
0.10 -0.01 0.04 -4.66 15.69 3.21 2.00 0.32 1462
0.08 -0.01 0.39 -5.64 18.39 3.40 2.28 0.45 1468
0.07 -0.01 1.44 -6.54 20.03 3.66 2.68 0.58 1474
0.08 -0.01 2.29 -7.41 21.68 3.96 3.03 0.67 1480
0.08 -0.01 3.30 -7.40 22.38 4.14 3.45 0.79 1486
0.06 -0.01 4.59 -7.72 22.16 4.20 3.85 0.83 1494
0.07 -0.01 6.93 -7.60 21.86 4.20 4.27 0.88 1500
0.06 -0.01 9.35 -7.11 22.97 4.12 4.28 0.90 1506
0.05 -0.00 10.28 -7.15 23.89 3.95 4.28 0.85 1512
0.06 -0.01 7.96 -6.55 27.09 3.73 4.28 0.71 1518
0.06 -0.01 2.94 -5.39 26.25 3.66 4.28 0.44 1524
0.05 -0.01 -1.45 -3.45 25.23 3.67 4.28 0.09 1531
0.05 -0.00 -5.58 -0.07 21.65 3.73 4.28 -0.26 1538
0.05 -0.00 -6.85 3.31 18.48 3.72 4.28 -0.59 1544
0.04 -0.00 -8.14 5.69 16.38 3.49 4.28 -0.85 1550
0.04 -0.00 -9.12 9.52 13.44 3.04 3.44 -0.92 1556
0.05 -0.01 -15.63 17.43 8.91 2.63 1.57 -1.08 1562
0.04 -0.00 -12.42 12.95 14.98 1.83 -0.87 -1.66 1569
0.04 0.00 -8.20 13.23 14.89 -0.38 -2.50 -1.71 1575
0.03 -0.00 -1.34 13.43 16.75 -1.72 -3.34 -1.58 1582
0.03 -0.00 0.73 9.93 18.74 -2.26 -3.50 -1.63 1588
0.05 -0.00 0.88 7.78 14.91 -2.54 -3.09 -2.00 1594
0.04 -0.00 1.03 6.63 11.36 -2.60 -2.52 -2.49 1601
0.04 -0.00 0.60 6.36 8.43 -2.61 -2.03 -2.93 1607
0.03 -0.00 -0.32 6.61 6.53 -2.63 -1.73 -3.28 1613
0.05 -0.01 -1.25 6.71 6.19 -2.67 -1.60 -3.56 1619
0.02 -0.00 -1.50 6.33 6.54 -2.74 -1.66 -3.72 1626
0.02 -0.00 -1.40 6.01 7.43 -2.83 -1.90 -3.83 1632
0.04 0.00 -0.90 5.79 8.32 -2.93 -2.20 -3.84 1638
0.04 -0.00 0.30 5.24 8.95 -3.08 -2.47 -3.77 1645
0.04 -0.00 1.39 4.91 9.26 -3.27 -2.68 -3.64 1651
0.03 -0.00 2.51 4.80 10.27 -3.44 -2.79 -3.51 1657
0.04 -0.00 3.69 4.73 10.10 -3.67 -2.89 -3.34 1664
0.04 -0.00 4.85 4.13 10.60 -3.87 -3.00 -3.08 1670
0.02 -0.00 5.63 3.00 10.31 -4.04 -3.06 -2.83 1676
0.04 -0.00 6.32 1.97 10.14 -4.14 -3.01 -2.43 1682
0.04 -0.00 7.52 1.49 9.95 -4.19 -2.93 -2.02 1689
0.04 -0.00 8.56 1.14 10.13 -4.21 -2.86 -1.65 1695
0.04 -0.00 9.31 0.35 10.10 -4.22 -2.77 -1.30 1701
0.04 -0.00 9.95 -0.40 10.10 -4.22 -2.64 -0.98 1708
0.03 -0.00 10.67 -1.14 10.40 -4.20 -2.45 -0.68 1714
0.04 -0.00 11.22 -1.70 10.79 -4.17 -2.21 -0.39 1720
0.04 -0.00 11.72 -2.25 11.20 -4.12 -2.00 -0.14 1727
0.03 -0.00 12.25 -2.85 11.57 -4.06 -1.79 0.08 1733
0.03 -0.00 12.65 -3.53 11.97 -3.99 -1.57 0.26 1739
0.03 -0.00 12.87 -4.35 12.39 -3.89 -1.35 0.43 1745
0.03 -0.00 13.12 -5.11 13.10 -3.79 -1.14 0.53 1753
0.04 -0.00 13.28 -5.84 13.75 -3.67 -0.95 0.67 1759
0.04 -0.00 13.35 -6.59 14.47 -3.57 -0.74 0.81 1765
0.04 -0.00 13.40 -7.36 14.86 -3.47 -0.53 0.97 1771
0.06 -0.01 13.29 -8.00 15.38 -3.37 -0.36 1.13 1777
0.04 -0.00 13.05 -8.48 15.30 -3.25 -0.24 1.29 1784
0.02 -0.00 12.86 -8.95 15.05 -3.11 -0.13 1.45 1790
0.03 -0.00 12.77 -9.52 14.67 -2.94 0.01 1.60 1797
0.03 -0.00 12.50 -10.03 14.20 -2.74 0.18 1.71 1803
0.03 0.00 12.34 -10.32 14.05 -2.51 0.40 1.79 1810
0.03 -0.00 12.25 -10.64 14.36 -2.25 0.68 1.82 1816
0.03 -0.00 11.90 -10.79 14.45 -2.01 1.00 1.81 1822
0.04 -0.00 11.28 -10.79 14.55 -1.77 1.33 1.74 1828
0.02 -0.00 10.61 -10.58 14.41 -1.56 1.63 1.62 1836
0.03 -0.00 9.82 -10.58 14.34 -1.37 1.88 1.46 1842
0.02 -0.00 8.82 -10.65 14.39 -1.21 2.07 1.27 1848
0.02 -0.00 7.67 -10.76 14.60 -1.05 2.20 1.05 1854
0.03 -0.00 6.39 -10.88 14.78 -0.95 2.27 0.81 1860
0.02 -0.00 5.16 -10.89 15.05 -0.85 2.30 0.56 1867
0.02 -0.00 4.45 -10.71 15.76 -0.79 2.28 0.32 1873
0.04 -0.00 3.91 -10.44 16.49 -0.80 2.28 0.10 1880
0.02 -0.00 3.30 -10.28 16.83 -0.89 2.32 -0.09 1886
0.02 -0.00 2.45 -10.31 16.67 -1.06 2.40 -0.26 1892
0.03 -0.00 1.62 -10.30 16.18 -1.26 2.48 -0.37 1899
0.02 -0.00 0.78 -10.27 14.88 -1.45 2.52 -0.49 1905
0.02 0.00 0.13 -10.37 14.58 -1.61 2.51 -0.61 1911
0.02 -0.00 -0.46 -10.45 12.96 -1.71 2.47 -0.70 1917
0.01 -0.00 -1.03 -10.68 12.73 -1.77 2.41 -0.79 1925
0.03 -0.00 -1.46 -10.98 12.09 -1.76 2.34 -0.88 1931
0.03 -0.00 -1.63 -11.24 11.43 -1.72 2.28 -0.96 1937
0.02 -0.00 -1.69 -11.64 10.67 -1.67 2.22 -1.03 1943
0.03 -0.00 -1.74 -12.04 9.90 -1.59 2.15 -1.09 1949
0.03 -0.00 -1.80 -12.22 9.28 -1.49 2.06 -1.11 1956
0.02 -0.00 -1.99 -12.18 8.87 -1.34 2.00 -1.09 1963
0.03 -0.00 -2.52 -11.87 8.70 -1.22 2.00 -0.99 1969
0.03 -0.00 -3.39 -11.59 8.88 -1.04 2.06 -0.80 1975
0.02 -0.00 -4.32 -11.49 9.14 -0.87 2.09 -0.54 1981
0.03 -0.00 -5.67 -11.58 9.24 -0.70 1.96 -0.29 1987
0.02 -0.00 -6.69 -11.83 9.47 -0.59 1.61 -0.08 1994
0.01 -0.00 -7.36 -11.94 9.62 -0.50 1.10 0.14 2000
0.02 -0.00 -7.43 -12.06 9.79 -0.44 0.56 0.38 2007
0.02 -0.00 -7.15 -12.06 9.88 -0.40 0.10 0.64 2013
0.02 -0.00 -6.65 -11.97 9.74 -0.38 -0.25 0.88 2019
0.02 -0.00 -6.13 -11.90 9.25 -0.33 -0.50 1.09 2025
0.03 -0.00 -5.77 -11.97 8.69 -0.25 -0.66 1.24 2031
0.02 -0.00 -5.63 -12.04 7.93 -0.12 -0.67 1.35 2038
0.01 -0.00 -5.57 -12.82 7.20 0.07 -0.63 1.42 2044
0.03 -0.00 -23.41 -20.27 30.27 1.15 -2.21 1.70 2051
0.02 -0.00 -7.23 -12.43 7.52 1.68 -2.79 2.20 2057
0.02 -0.00 -1.94 -0.57 1.49 1.69 -3.49 2.04 2063
0.04 -0.00 0.58 3.06 9.71 1.87 -3.29 1.74 2069
0.02 -0.00 2.44 1.40 13.91 2.06 -2.65 1.66 2076
0.01 -0.00 2.23 8.20 15.46 2.01 -1.93 1.74 2082
0.02 0.02 -0.93 8.02 12.90 1.81 -1.41 1.79 2088
0.03 0.03 -4.47 5.86 8.33 1.62 -1.25 1.63 2095
0.02 0.09 -6.49 2.27 9.23 1.68 -1.28 1.28 2101
0.01 0.22 -6.93 -0.04 10.69 1.97 -1.20 0.89 2107
0.02 0.24 -6.73 -1.12 10.96 2.28 -1.03 0.55 2114
-0.01 0.35 -6.40 -1.27 12.04 2.59 -0.88 0.17 2120
0.00 0.39 -4.82 -0.93 14.48 2.75 -0.82 -0.22 2126
0.01 0.41 -1.33 -1.02 15.52 2.70 -0.88 -0.49 2132
0.01 0.37 2.27 -1.43 15.35 2.56 -0.94 -0.63 2140
0.03 0.37 4.30 -2.47 18.67 2.38 -1.06 -0.56 2146
0.00 0.34 3.89 -2.43 22.81 1.65 -1.99 -0.34 2152
0.00 0.30 3.22 -2.10 13.89 0.93 -1.64 0.04 2158
0.01 0.34 0.38 -2.04 14.94 0.56 -1.07 0.17 2164
0.01 0.34 0.40 -1.78 11.33 0.25 -0.54 0.15 2171
0.02 0.38 0.40 -0.83 10.69 0.12 -0.36 0.12 2178
0.04 0.33 0.76 -0.55 10.21 0.06 -0.32 0.05 2184
0.02 0.37 1.03 -0.74 10.15 0.02 -0.24 0.03 2190
0.03 0.40 1.22 -1.03 10.01 -0.02 -0.17 0.04 2196
0.04 0.40 1.06 -0.85 9.81 -0.05 -0.14 0.04 2203
0.02 0.46 0.66 -0.72 10.24 -0.06 -0.12 0.02 2209
0.02 0.50 0.70 -0.58 10.45 -0.07 -0.11 0.01 2215
0.04 0.52 0.73 -0.78 10.15 -0.06 -0.11 0.00 2222
0.01 0.54 1.17 -0.88 9.98 -0.06 -0.09 0.00 2228
0.03 0.58 0.66 -0.78 10.10 -0.05 -0.08 0.02 2235
0.03 0.59 0.68 -0.79 10.14 -0.04 -0.07 0.02 2241
0.02 0.57 0.73 -0.72 10.17 -0.03 -0.05 0.03 2247
0.03 0.57 0.73 -0.75 9.99 -0.02 -0.04 0.04 2253
0.03 0.56 0.76 -0.72 10.10 -0.01 -0.03 0.05 2259
0.02 0.53 0.77 -0.72 9.84 -0.00 -0.03 0.06 2266
0.03 0.53 0.88 -0.74 10.01 -0.00 -0.03 0.06 2273
0.06 0.51 0.94 -0.80 10.03 0.00 -0.03 0.06 2279
0.06 0.48 0.91 -0.77 9.97 0.00 -0.03 0.05 2285
0.06 0.48 0.97 -0.71 9.95 0.00 -0.04 0.05 2291
0.08 0.47 1.00 -0.78 9.96 0.00 -0.05 0.03 2297
0.07 0.44 0.93 -0.75 10.06 0.00 -0.05 0.02 2304
0.07 0.38 0.91 -0.72 10.05 0.00 -0.06 0.02 2310
0.09 0.37 0.86 -0.72 10.09 0.00 -0.06 0.02 2317
0.09 0.36 0.90 -0.70 10.04 0.01 -0.06 0.03 2323
0.09 0.30 0.91 -0.73 10.10 0.01 -0.05 0.03 2329
0.09 0.28 0.83 -0.73 9.99 0.02 -0.05 0.03 2335
0.10 0.24 0.84 -0.76 10.08 0.03 -0.04 0.03 2341
0.11 0.22 0.84 -0.75 10.09 0.03 -0.03 0.03 2349
0.10 0.21 0.82 -0.79 10.03 0.04 -0.02 0.03 2355
0.11 0.17 0.84 -0.75 9.97 0.04 -0.02 0.03 2361
0.13 0.15 0.88 -0.80 10.04 0.04 -0.01 0.03 2367
0.14 0.08 0.89 -0.81 9.95 0.04 -0.01 0.03 2373
0.16 0.08 0.88 -0.78 9.98 0.04 -0.00 0.03 2379
0.17 0.06 0.92 -0.80 10.01 0.04 -0.00 0.03 2385
0.17 0.03 0.91 -0.78 10.04 0.04 -0.00 0.03 2393
0.20 0.04 0.89 -0.79 10.03 0.04 -0.00 0.03 2399
0.19 0.02 0.87 -0.78 10.03 0.04 -0.01 0.03 2405
0.19 0.01 0.88 -0.79 10.03 0.04 -0.01 0.03 2411
0.20 0.03 0.93 -0.79 9.94 0.03 -0.01 0.03 2417
0.23 0.00 0.91 -0.80 9.96 0.03 -0.02 0.03 2423
0.23 -0.02 0.94 -0.81 10.00 0.03 -0.02 0.03 2430
0.22 -0.01 0.93 -0.83 9.96 0.03 -0.03 0.03 2437
0.25 -0.01 0.92 -0.85 10.02 0.02 -0.04 0.02 2443
0.24 -0.00 0.97 -0.78 9.97 0.02 -0.05 0.02 2449
0.23 -0.01 0.90 -0.83 9.98 0.02 -0.05 0.02 2455
0.24 0.00 0.92 -0.82 9.97 0.02 -0.05 0.02 2461
0.25 -0.01 0.90 -0.79 10.00 0.02 -0.05 0.02 2467
0.25 -0.02 0.89 -0.84 9.98 0.02 -0.04 0.02 2475
0.27 -0.02 0.89 -0.82 9.97 0.03 -0.03 0.02 2481
0.30 -0.01 0.88 -0.85 9.99 0.03 -0.02 0.02 2487
0.31 -0.02 0.91 -0.81 10.08 0.04 -0.01 0.02 2493
0.33 -0.01 0.87 -0.83 9.96 0.04 -0.00 0.02 2499
0.33 -0.02 0.87 -0.85 10.02 0.04 0.00 0.02 2505
0.33 -0.02 0.87 -0.84 10.06 0.05 0.00 0.02 2511
0.31 -0.02 0.93 -0.85 10.04 0.05 0.00 0.03 2519
0.32 -0.02 0.95 -0.86 9.98 0.05 -0.00 0.03 2525
0.34 -0.03 0.92 -0.87 10.00 0.05 -0.00 0.03 2531
0.34 -0.03 0.94 -0.87 10.06 0.06 -0.00 0.03 2537
0.35 -0.02 0.96 -0.87 10.06 0.07 -0.01 0.03 2543
0.36 -0.03 0.98 -0.91 10.05 0.07 -0.01 0.03 2550
0.37 -0.03 1.00 -0.94 10.02 0.08 -0.02 0.03 2556
0.36 -0.01 0.97 -0.95 10.02 0.08 -0.02 0.02 2563
0.39 -0.03 0.93 -0.90 10.05 0.08 -0.02 0.02 2569
0.39 -0.04 0.94 -0.94 10.02 0.09 -0.03 0.02 2575
0.39 -0.02 0.94 -0.94 10.03 0.10 -0.03 0.02 2581
0.43 -0.03 0.90 -0.92 10.06 0.10 -0.02 0.02 2588
0.42 -0.04 0.94 -0.96 10.07 0.12 -0.02 0.02 2594
0.40 -0.03 0.96 -0.98 10.08 0.13 -0.02 0.02 2600
0.44 -0.03 0.97 -1.00 10.06 0.14 -0.02 0.02 2607
0.44 -0.03 0.97 -0.98 10.01 0.16 -0.02 0.02 2613
0.44 -0.03 0.93 -1.00 9.99 0.16 -0.02 0.01 2619
0.47 -0.03 0.94 -1.04 10.03 0.17 -0.02 0.02 2626
0.46 -0.04 0.96 -1.06 10.06 0.17 -0.02 0.01 2632
0.46 -0.04 0.99 -1.08 10.05 0.18 -0.02 0.01 2638
0.48 -0.03 0.99 -1.07 10.00 0.19 -0.03 0.01 2644
0.48 -0.04 0.99 -1.08 10.07 0.21 -0.03 0.00 2651
0.50 -0.03 0.96 -1.15 9.94 0.22 -0.03 -0.01 2658
0.53 -0.03 1.05 -1.21 9.97 0.23 -0.02 -0.02 2664
0.51 -0.04 1.03 -1.15 9.94 0.24 -0.01 -0.03 2670
0.50 -0.03 1.01 -1.19 9.92 0.24 -0.00 -0.03 2676
0.53 -0.02 1.02 -1.21 9.97 0.24 0.01 -0.04 2682
0.57 -0.04 1.04 -1.25 9.93 0.24 0.03 -0.04 2689
0.58 -0.03 1.03 -1.23 9.95 0.24 0.04 -0.05 2695
0.58 -0.02 1.04 -1.28 9.99 0.24 0.06 -0.05 2702
0.61 -0.04 1.06 -1.32 10.06 0.25 0.07 -0.06 2708
0.62 -0.05 1.07 -1.46 10.04 0.28 0.08 -0.07 2714
0.62 -0.03 1.12 -1.32 10.17 0.32 0.08 -0.08 2720
0.62 -0.04 1.07 -1.40 10.27 0.38 0.08 -0.08 2726
0.62 -0.04 1.06 -1.39 10.18 0.43 0.08 -0.09 2734
0.63 -0.03 1.25 -1.53 10.25 0.47 0.09 -0.13 2740
0.65 -0.03 1.17 -1.54 10.38 0.52 0.08 -0.11 2746
0.64 -0.04 1.13 -1.48 10.48 0.58 0.07 -0.11 2752
0.68 -0.03 1.17 -1.56 10.68 0.65 0.08 -0.12 2758
0.67 -0.04 1.26 -1.67 10.49 0.72 0.07 -0.13 2765
0.69 -0.03 1.22 -1.72 10.75 0.80 0.06 -0.14 2771
0.73 -0.04 1.34 -1.75 10.75 0.88 0.05 -0.15 2778
0.74 -0.05 1.20 -1.77 10.88 0.97 0.05 -0.16 2784
0.73 -0.04 1.19 -1.86 10.84 1.05 0.04 -0.18 2791
0.73 -0.04 1.24 -2.00 11.10 1.13 0.04 -0.18 2797
0.75 -0.05 1.20 -2.08 10.97 1.20 0.04 -0.19 2803
0.79 -0.04 1.27 -2.20 11.19 1.33 0.04 -0.20 2809
0.82 -0.04 1.18 -2.15 11.05 1.39 0.05 -0.21 2816
0.78 -0.04 1.20 -2.41 11.16 1.49 0.10 -0.22 2823
0.78 -0.03 1.12 -2.43 11.08 1.63 0.18 -0.23 2829
0.76 -0.04 0.88 -2.46 11.05 1.77 0.28 -0.20 2835
0.74 -0.04 0.93 -2.58 12.00 1.91 0.39 -0.17 2841
0.72 -0.04 1.06 -2.76 12.68 2.11 0.56 -0.16 2847
0.63 -0.05 1.08 -2.81 12.77 2.34 0.74 -0.16 2854
0.46 -0.03 0.99 -2.50 12.80 2.56 0.88 -0.15 2861
0.40 -0.03 0.63 -3.25 13.52 2.76 1.05 -0.07 2867
0.32 -0.02 0.35 -3.36 13.22 2.97 1.28 -0.03 2873
0.22 -0.00 0.32 -3.65 12.99 3.19 1.47 0.06 2880
0.20 -0.02 -0.08 -3.79 13.78 3.34 1.65 0.18 2886
0.12 -0.01 0.46 -4.73 14.47 3.47 1.84 0.33 2892
0.08 -0.00 0.44 -5.21 16.55 3.62 2.12 0.47 2898
0.09 -0.01 1.35 -6.42 17.89 3.81 2.57 0.60 2905
0.07 -0.01 2.54 -6.80 20.15 3.98 3.04 0.68 2911
0.07 -0.00 3.29 -7.81 21.61 4.14 3.56 0.77 2918
0.07 -0.01 4.16 -7.72 21.61 4.25 3.98 0.85 2924
0.07 -0.01 5.19 -7.84 19.79 4.27 4.27 0.91 2930
0.06 -0.01 5.55 -8.29 23.55 4.26 4.28 0.98 2936
0.05 -0.00 7.87 -8.96 26.06 4.20 4.28 1.07 2942
0.05 -0.01 8.70 -8.35 26.51 4.10 4.28 1.04 2949
0.04 -0.00 8.51 -7.52 26.13 4.00 4.28 0.79 2956
0.08 -0.01 2.89 -4.63 25.21 4.00 4.28 0.40 2962
0.05 -0.01 -1.04 -2.58 22.65 4.02 4.28 -0.03 2968
0.05 -0.00 -5.70 1.69 19.57 4.05 4.28 -0.40 2974
0.05 0.00 -7.14 5.35 16.57 3.94 4.28 -0.76 2980
0.05 -0.01 -9.57 7.18 12.08 3.53 4.02 -0.89 2987
0.04 -0.00 -10.28 14.81 13.93 2.92 2.10 -0.78 2994
0.04 0.00 -16.28 20.05 2.59 2.36 0.34 -0.83 3000
0.03 -0.00 -10.70 13.31 17.27 1.32 -2.43 -1.00 3006
0.03 -0.00 -5.19 14.65 17.74 -0.97 -3.97 -0.84 3012
0.04 -0.00 0.42 13.15 19.13 -2.21 -4.28 -0.81 3019
0.04 -0.00 2.32 9.90 17.26 -2.70 -4.28 -0.97 3025
0.04 -0.00 2.55 7.55 13.31 -2.88 -3.99 -1.39 3032
0.04 -0.00 2.22 6.49 11.00 -2.86 -3.34 -1.96 3038
0.04 -0.00 1.42 5.98 8.36 -2.80 -2.73 -2.53 3044
0.04 -0.00 0.43 6.09 6.42 -2.76 -2.28 -2.99 3050
0.05 -0.01 -0.17 6.31 6.29 -2.78 -2.06 -3.34 3056
0.04 -0.00 -0.53 6.33 6.93 -2.86 -2.10 -3.58 3063
0.04 -0.00 -0.52 5.58 7.84 -2.98 -2.23 -3.73 3069
0.02 -0.00 0.02 5.98 8.63 -3.11 -2.49 -3.78 3076
0.04 -0.00 1.23 5.56 9.02 -3.27 -2.78 -3.76 3082
0.05 -0.00 2.45 5.30 9.68 -3.44 -2.99 -3.66 3088
0.04 -0.00 3.48 4.79 10.03 -3.61 -3.13 -3.47 3094
0.05 0.00 4.42 3.91 10.45 -3.75 -3.19 -3.20 3100
0.04 -0.00 5.35 2.96 10.49 -3.89 -3.28 -2.85 3107
0.02 -0.00 6.71 2.45 10.70 -4.01 -3.37 -2.47 3113
0.03 -0.00 8.03 2.12 10.89 -4.10 -3.41 -2.11 3120
0.03 -0.00 9.31 1.64 11.34 -4.17 -3.37 -1.76 3126
0.03 -0.00 10.41 0.81 11.49 -4.22 -3.25 -1.49 3132
0.05 -0.00 11.25 -0.01 11.97 -4.25 -3.05 -1.19 3139
0.04 -0.00 12.00 -0.74 12.31 -4.27 -2.77 -0.90 3145
0.03 -0.00 12.48 -1.60 12.37 -4.27 -2.48 -0.64 3151
0.05 -0.00 12.71 -2.48 12.41 -4.27 -2.20 -0.39 3158
0.03 -0.00 13.06 -3.31 12.34 -4.25 -1.95 -0.17 3164
0.03 -0.00 13.40 -4.13 12.37 -4.21 -1.73 0.04 3171
0.03 -0.00 13.79 -5.02 12.48 -4.15 -1.53 0.24 3177
0.03 -0.00 14.20 -6.00 12.82 -4.06 -1.35 0.42 3183
0.03 0.00 14.67 -6.92 13.42 -3.93 -1.12 0.58 3189
0.03 -0.00 15.07 -7.86 14.08 -3.78 -0.85 0.73 3196
0.02 -0.00 15.23 -8.75 14.48 -3.62 -0.55 0.88 3203
0.04 -0.00 15.15 -9.50 14.55 -3.45 -0.28 1.03 3209
0.03 -0.00 14.97 -10.09 14.54 -3.30 -0.05 1.18 3215
0.02 -0.00 14.62 -10.59 14.19 -3.08 0.16 1.33 3222
0.03 -0.00 14.23 -11.00 13.88 -2.86 0.34 1.48 3228
0.02 -0.00 14.11 -11.25 13.88 -2.65 0.53 1.62 3234
0.05 -0.00 13.97 -11.33 13.86 -2.41 0.75 1.75 3240
0.03 -0.00 13.44 -11.26 13.97 -2.17 0.98 1.84 3248
0.02 0.00 12.72 -11.07 13.95 -1.93 1.20 1.91 3254
0.03 -0.00 11.98 -10.89 13.88 -1.75 1.41 1.92 3260
0.02 -0.00 11.04 -10.77 13.78 -1.59 1.56 1.87 3266
0.02 -0.00 9.88 -10.72 13.62 -1.47 1.65 1.76 3273
0.02 -0.00 8.97 -10.55 13.35 -1.32 1.69 1.61 3279
0.03 0.01 8.17 -10.32 13.30 -1.17 1.70 1.40 3286
0.04 0.00 7.33 -10.05 13.34 -1.03 1.68 1.17 3292
0.02 0.01 6.78 -9.76 13.55 -0.91 1.68 0.92 3299
0.04 -0.00 6.61 -9.35 14.29 -0.81 1.74 0.69 3305
0.03 -0.00 6.65 -9.20 15.03 -0.75 1.91 0.48 3311
0.01 -0.00 6.27 -9.24 15.32 -0.76 2.20 0.29 3317
0.03 0.00 5.27 -9.31 15.27 -0.80 2.53 0.16 3323
0.02 -0.00 4.10 -9.53 15.05 -0.85 2.80 0.03 3330
0.02 -0.00 2.79 -9.66 14.58 -0.90 2.97 -0.08 3337
0.03 0.00 1.56 -9.83 14.13 -0.92 3.02 -0.15 3343
0.02 -0.00 0.46 -9.96 13.51 -0.93 2.95 -0.21 3349
0.02 -0.00 -0.36 -10.17 13.02 -0.91 2.78 -0.25 3355
0.02 -0.00 -0.82 -10.29 13.01 -0.87 2.54 -0.29 3361
0.02 -0.00 -0.75 -10.34 13.33 -0.85 2.31 -0.33 3368
0.01 -0.00 -0.33 -10.42 13.54 -0.88 2.11 -0.37 3375
0.03 -0.00 -0.12 -10.60 13.32 -0.98 2.02 -0.41 3381
0.02 -0.00 -0.13 -10.75 12.84 -1.13 1.94 -0.46 3387
0.02 -0.00 -0.22 -11.08 12.30 -1.28 1.91 -0.54 3393
0.03 -0.00 -0.27 -11.45 11.65 -1.39 1.89 -0.61 3400
0.02 -0.00 -0.46 -11.89 10.81 -1.46 1.90 -0.73 3406
0.02 -0.00 -0.80 -12.28 9.93 -1.44 1.94 -0.79 3412
0.03 -0.00 -1.35 -12.53 9.05 -1.36 2.01 -0.87 3419
0.02 -0.00 -2.39 -12.37 8.09 -1.20 2.15 -0.89 3425
0.01 -0.00 -3.94 -12.28 7.73 -0.98 2.40 -0.80 3431
0.03 -0.00 -5.58 -12.41 8.11 -0.72 2.63 -0.60 3438
0.02 -0.00 -7.29 -12.64 8.85 -0.48 2.62 -0.39 3444
0.01 -0.00 -9.18 -12.96 9.49 -0.31 2.27 -0.21 3450
0.02 -0.00 -10.45 -13.20 10.20 -0.19 1.74 -0.02 3457
0.02 -0.00 -11.02 -13.48 10.67 -0.17 1.04 0.19 3463
0.01 -0.00 -10.77 -13.69 10.38 -0.23 0.22 0.42 3470
0.02 -0.00 -9.93 -13.91 9.36 -0.31 -0.66 0.65 3476
0.02 -0.00 -24.97 -20.61 25.98 0.27 -2.52 1.20 3482
0.02 0.00 -15.63 -15.69 9.73 0.93 -4.25 1.95 3488
0.02 -0.00 -3.96 -7.35 1.78 0.93 -4.28 2.11 3495
0.02 -0.00 1.10 -4.44 4.19 0.82 -4.28 1.99 3502
0.02 0.00 5.36 -2.58 13.85 1.05 -4.28 2.04 3508
0.01 -0.00 8.42 4.21 17.03 1.33 -4.18 2.37 3514
0.02 -0.00 5.10 12.94 17.62 1.55 -2.11 2.87 3520
0.03 0.02 -0.02 9.47 8.46 1.42 -0.90 3.22 3526
0.03 0.11 -5.12 7.19 2.16 1.58 -0.74 3.12 3533
0.01 0.24 -9.02 3.43 9.49 1.97 -0.85 2.75 3539
0.00 0.33 -10.78 -2.87 9.88 2.28 -0.75 2.36 3546
0.00 0.40 -12.96 -3.73 8.84 2.71 -0.69 1.87 3552
-0.01 0.49 -13.10 -2.53 14.89 3.08 -0.59 1.21 3558
0.02 0.55 -10.72 -0.63 18.09 3.09 -0.51 0.45 3565
0.00 0.55 -5.53 -0.22 18.05 2.80 -0.58 -0.25 3571
0.01 0.59 0.06 -0.86 17.53 2.48 -0.67 -0.71 3577
0.02 0.58 6.51 -3.52 22.67 2.22 -1.22 -0.81 3584
0.02 0.56 6.11 -3.42 17.76 1.26 -2.08 -0.43 3591
0.02 0.57 3.77 -2.57 12.02 0.77 -1.71 0.02 3597
0.00 0.55 1.61 -1.46 11.95 0.58 -1.42 0.11 3603
0.00 0.53 0.61 -0.64 11.38 0.41 -1.05 0.15 3609
0.02 0.55 0.42 -0.53 11.35 0.25 -0.80 0.11 3615
0.01 0.61 0.48 -0.75 10.59 0.11 -0.55 0.05 3622
0.01 0.66 0.99 -0.75 9.59 0.03 -0.37 0.03 3629
0.01 0.68 0.87 -0.94 10.09 -0.00 -0.25 0.05 3635
0.02 0.74 0.54 -0.80 10.43 -0.01 -0.17 0.06 3641
0.01 0.79 0.76 -0.73 10.04 -0.02 -0.10 0.05 3647
0.02 0.77 0.54 -0.66 10.17 -0.03 -0.06 0.04 3654
0.00 0.74 0.75 -1.04 9.93 -0.03 -0.02 0.04 3660
0.01 0.72 0.82 -0.80 9.97 -0.02 -0.00 0.05 3666
0.03 0.71 0.79 -0.73 10.02 -0.01 0.00 0.06 3673
0.02 0.71 0.75 -0.73 10.07 0.00 -0.00 0.07 3679
0.02 0.66 0.79 -0.67 9.95 0.01 0.00 0.07 3685
0.01 0.63 0.82 -0.71 10.04 0.02 -0.00 0.08 3691
0.04 0.61 0.87 -0.79 9.99 0.02 -0.01 0.09 3698
0.02 0.55 0.88 -0.72 10.04 0.02 -0.01 0.08 3704
0.02 0.52 0.97 -0.72 9.97 0.03 -0.02 0.07 3710
0.05 0.48 0.93 -0.70 9.93 0.03 -0.03 0.06 3717
0.05 0.43 0.99 -0.71 9.96 0.02 -0.05 0.04 3723
0.05 0.37 0.85 -0.72 9.96 0.01 -0.06 0.03 3729
0.05 0.34 0.82 -0.73 9.96 0.01 -0.07 0.07 3735
0.10 0.34 0.80 -0.72 10.04 0.01 -0.08 0.03 3742
0.09 0.28 0.82 -0.74 10.09 0.01 -0.09 0.04 3748
0.09 0.27 0.82 -0.75 10.03 0.01 -0.10 0.04 3755
0.11 0.25 0.81 -0.71 10.05 0.01 -0.11 0.04 3761
0.10 0.23 0.85 -0.74 10.06 0.02 -0.12 0.04 3767
0.11 0.19 0.86 -0.74 10.16 0.02 -0.12 0.04 3774
0.11 0.16 0.83 -0.79 9.98 0.02 -0.12 0.03 3780
0.09 0.13 0.83 -0.74 10.03 0.02 -0.12 0.03 3786
0.10 0.13 0.83 -0.77 10.01 0.02 -0.12 0.03 3792
0.11 0.11 0.80 -0.80 9.99 0.02 -0.11 0.03 3799
0.12 0.07 0.83 -0.78 9.97 0.02 -0.09 0.03 3805
0.14 0.04 0.75 -0.72 10.00 0.03 -0.07 0.03 3812
0.15 0.05 0.80 -0.80 10.04 0.03 -0.06 0.03 3818
0.16 -0.01 0.80 -0.74 10.02 0.03 -0.05 0.03 3824
0.16 -0.00 0.77 -0.82 10.04 0.04 -0.04 0.03 3830
0.21 0.01 0.79 -0.77 10.06 0.04 -0.04 0.03 3836
0.21 -0.02 0.95 -0.89 10.01 0.04 -0.03 0.03 3843
0.20 -0.02 0.77 -0.77 10.01 0.04 -0.03 0.04 3850
0.23 -0.01 0.80 -0.80 9.98 0.04 -0.03 0.04 3856
0.26 -0.03 0.82 -0.82 9.98 0.04 -0.03 0.04 3862
0.26 -0.03 0.79 -0.85 10.01 0.05 -0.03 0.04 3868
0.27 -0.03 0.80 -0.83 9.99 0.04 -0.02 0.04 3874
0.28 -0.02 0.82 -0.85 9.96 0.04 -0.03 0.04 3880
0.29 -0.03 0.83 -0.79 9.85 0.03 -0.03 0.04 3887
0.29 -0.03 0.81 -0.85 10.04 0.03 -0.03 0.04 3893
0.29 -0.02 0.83 -0.86 9.91 0.02 -0.02 0.03 3900
0.31 -0.03 0.78 -0.86 9.95 0.02 -0.02 0.03 3906
0.30 -0.02 0.83 -0.87 9.98 0.02 -0.02 0.04 3912
0.31 -0.03 0.81 -0.81 10.03 0.02 -0.02 0.04 3918
0.31 -0.03 0.78 -0.89 9.98 0.02 -0.02 0.04 3924
0.34 -0.03 0.81 -0.86 10.00 0.02 -0.02 0.04 3931
0.36 -0.04 0.84 -0.86 9.96 0.02 -0.03 0.03 3937
0.36 -0.03 0.83 -0.85 10.01 0.02 -0.02 0.03 3944
0.39 -0.03 0.83 -0.86 9.96 0.02 -0.02 0.03 3950
0.39 -0.03 0.82 -0.86 9.96 0.02 -0.02 0.03 3956
0.40 -0.04 0.83 -0.88 10.02 0.01 -0.02 0.03 3962
0.42 -0.02 0.83 -0.84 10.00 0.01 -0.01 0.03 3969
0.41 -0.03 0.82 -0.86 10.04 0.01 -0.01 0.03 3975
0.41 -0.03 0.84 -0.82 9.96 0.02 -0.00 0.03 3981
0.42 -0.01 0.81 -0.81 10.03 0.02 -0.00 0.04 3988
0.44 -0.03 0.85 -0.85 9.98 0.02 0.00 0.04 3994
0.43 -0.03 0.82 -0.92 9.98 0.02 0.00 0.03 4000
0.43 -0.03 0.80 -0.85 9.99 0.03 0.01 0.03 4006
0.44 -0.03 0.79 -0.88 10.04 0.03 0.02 0.04 4013
0.43 -0.03 0.77 -0.85 10.04 0.03 0.03 0.04 4019
0.41 -0.03 0.83 -0.87 10.08 0.03 0.03 0.04 4026
0.41 -0.03 0.87 -0.86 10.08 0.05 0.02 0.04 4032
0.42 -0.04 0.91 -0.94 10.00 0.05 0.02 0.05 4038
0.40 -0.03 0.89 -0.92 10.00 0.07 0.02 0.05 4044
0.41 -0.02 0.88 -0.90 10.03 0.07 0.02 0.05 4050
0.41 -0.03 0.88 -0.94 10.01 0.08 0.02 0.04 4057
0.40 -0.03 0.94 -0.97 9.99 0.08 0.02 0.04 4064
0.42 -0.02 0.94 -0.95 9.96 0.08 0.02 0.03 4070
0.42 -0.03 0.93 -0.94 9.97 0.09 0.03 0.03 4076
0.41 -0.03 0.95 -0.99 10.01 0.09 0.03 0.02 4082
0.40 -0.02 0.93 -0.94 10.06 0.10 0.02 0.02 4088
0.44 -0.03 0.94 -0.93 10.03 0.12 0.01 0.02 4094
0.42 -0.03 0.91 -0.98 10.08 0.14 0.01 0.01 4102
0.43 -0.03 0.97 -1.04 10.04 0.16 0.01 0.01 4108
0.44 -0.02 0.90 -1.02 10.11 0.19 0.01 0.00 4114
0.44 -0.03 0.94 -1.05 10.13 0.22 0.01 -0.00 4120
0.46 -0.03 0.96 -1.12 10.10 0.25 0.01 -0.01 4126
0.49 -0.03 1.01 -1.12 10.10 0.29 -0.00 -0.01 4133
0.48 -0.03 0.99 -1.16 10.16 0.33 -0.00 -0.02 4140
0.50 -0.03 0.99 -1.21 10.16 0.38 -0.00 -0.03 4146
0.52 -0.03 1.09 -1.20 10.19 0.44 -0.00 -0.05 4152
0.52 -0.04 1.11 -1.23 10.08 0.49 0.00 -0.06 4158
0.53 -0.03 1.05 -1.27 10.20 0.53 0.00 -0.07 4165
0.56 -0.03 1.02 -1.36 10.21 0.57 0.00 -0.08 4171
0.57 -0.04 1.03 -1.32 10.21 0.60 -0.00 -0.09 4177
0.60 -0.03 1.06 -1.43 10.33 0.64 -0.01 -0.10 4184
0.61 -0.03 1.11 -1.50 10.33 0.68 -0.02 -0.12 4190
0.64 -0.04 1.14 -1.52 10.27 0.73 -0.03 -0.13 4197
0.68 -0.03 1.06 -1.63 10.27 0.76 -0.04 -0.13 4203
0.73 -0.03 1.04 -1.67 10.28 0.79 -0.06 -0.13 4209
0.73 -0.03 1.11 -1.75 10.58 0.82 -0.07 -0.13 4215
0.75 -0.03 1.01 -1.77 10.48 0.86 -0.09 -0.13 4221
0.75 -0.04 1.11 -1.88 10.54 0.89 -0.11 -0.13 4229
0.79 -0.04 1.17 -1.95 10.51 0.92 -0.11 -0.14 4235
0.82 -0.04 1.04 -1.93 10.52 0.97 -0.12 -0.15 4241
0.83 -0.05 1.17 -2.11 10.79 1.03 -0.12 -0.16 4247
0.82 -0.03 1.19 -2.24 10.89 1.09 -0.13 -0.17 4254
0.85 -0.05 1.03 -2.00 10.59 1.16 -0.12 -0.18 4260
0.86 -0.04 1.02 -2.33 10.51 1.24 -0.11 -0.18 4267
0.93 -0.05 0.90 -2.32 10.54 1.30 -0.03 -0.18 4273
0.96 -0.04 0.82 -2.42 10.90 1.38 -0.01 -0.17 4279
0.98 -0.04 0.82 -2.71 10.78 1.48 0.05 -0.17 4286
0.95 -0.04 0.63 -2.52 10.71 1.60 0.10 -0.15 4292
0.92 -0.05 0.69 -2.73 10.29 1.72 0.20 -0.10 4298
0.90 -0.03 0.57 -2.81 10.49 1.84 0.38 -0.11 4304
0.84 -0.04 0.43 -2.76 10.88 1.98 0.66 -0.08 4312
0.71 -0.04 0.59 -3.25 11.94 2.12 0.95 -0.04 4318
0.62 -0.03 0.72 -3.44 12.47 2.29 1.25 -0.01 4324
0.46 -0.03 0.41 -3.47 12.41 2.46 1.58 0.03 4330
0.28 -0.02 0.24 -3.77 12.19 2.60 1.84 0.11 4336
0.25 -0.02 0.17 -4.18 12.73 2.73 2.13 0.24 4343
0.16 -0.02 -0.41 -4.48 13.37 2.86 2.44 0.37 4349
0.10 -0.01 -0.33 -5.17 14.14 2.89 2.71 0.56 4356
0.12 -0.01 0.89 -5.83 16.55 3.01 3.03 0.73 4362
0.11 -0.01 2.35 -6.60 18.76 3.25 3.56 0.81 4368
0.11 -0.01 2.72 -7.39 19.02 3.50 4.13 0.86 4374
0.10 -0.01 2.24 -7.40 21.13 3.72 4.28 0.97 4381
0.09 -0.01 4.10 -8.43 21.71 3.92 4.28 1.04 4387
0.04 -0.00 5.62 -8.26 22.64 4.02 4.28 1.12 4393
0.07 -0.01 7.90 -7.98 22.30 3.97 4.28 1.17 4400
0.06 -0.01 10.37 -7.79 22.48 3.79 4.28 1.17 4406
0.05 -0.01 10.94 -7.20 22.77 3.63 4.28 1.05 4413
0.05 -0.01 6.71 -5.78 25.29 3.53 4.28 0.73 4419
0.04 -0.00 0.41 -4.95 24.22 3.59 4.28 0.34 4425
0.04 -0.00 -4.48 -3.15 22.04 3.75 4.28 0.01 4431
0.04 0.00 -8.67 0.08 19.24 3.93 4.28 -0.29 4438
0.05 -0.00 -8.29 2.96 16.38 3.86 4.28 -0.50 4444
0.04 -0.00 -8.01 4.93 15.82 3.43 3.22 -0.48 4451
0.04 0.00 -7.89 7.86 14.02 2.82 1.29 -0.33 4457
0.04 -0.00 -7.54 15.31 10.31 2.23 -0.25 -0.16 4463
0.02 -0.00 -10.90 13.62 10.69 1.53 -2.32 -0.45 4469
0.03 -0.00 -7.69 8.95 19.69 -0.90 -4.01 -0.48 4475
0.03 -0.00 0.07 11.13 20.03 -2.38 -4.28 -0.51 4483
0.04 -0.00 1.71 8.95 21.18 -2.87 -4.28 -0.84 4489
0.03 -0.00 0.27 6.11 14.52 -3.11 -4.18 -1.51 4495
0.03 -0.00 -0.25 4.38 9.32 -3.11 -3.56 -2.34 4501
0.05 -0.00 -0.51 4.53 7.39 -3.02 -3.04 -3.08 4507
0.04 -0.00 -1.36 5.03 5.50 -2.90 -2.63 -3.66 4513
0.03 -0.00 -1.85 5.30 5.19 -2.79 -2.41 -4.10 4519
0.02 -0.00 -1.38 5.55 6.52 -2.73 -2.35 -4.28 4527
0.00 -0.00 -0.58 6.04 7.19 -2.73 -2.48 -4.28 4533
0.02 0.01 0.31 6.50 8.47 -2.79 -2.71 -4.28 4539
0.06 -0.01 1.60 6.61 9.16 -2.94 -2.92 -4.28 4545
0.04 -0.00 2.52 6.53 9.75 -3.14 -3.14 -4.26 4551
0.03 -0.00 3.72 6.02 10.31 -3.31 -3.36 -3.98 4557
0.04 -0.00 5.03 5.22 10.88 -3.53 -3.50 -3.64 4563
0.03 -0.00 6.80 4.77 11.06 -3.75 -3.63 -3.30 4571
0.02 -0.00 8.36 3.98 11.31 -3.96 -3.69 -3.02 4577
0.05 -0.00 9.53 3.06 11.44 -4.11 -3.66 -2.71 4583
0.04 -0.00 10.62 2.06 11.55 -4.19 -3.53 -2.40 4589
0.03 -0.00 11.67 1.14 11.71 -4.23 -3.33 -2.10 4595
0.05 -0.01 12.27 0.09 11.64 -4.25 -3.04 -1.82 4602
0.04 -0.00 12.59 -0.86 11.20 -4.26 -2.69 -1.55 4609
0.03 -0.00 12.88 -1.83 10.90 -4.24 -2.32 -1.31 4615
0.05 -0.00 13.15 -2.69 10.78 -4.19 -1.95 -1.08 4621
0.03 -0.00 13.11 -3.50 10.88 -4.09 -1.57 -0.85 4627
0.04 -0.00 12.93 -4.31 11.12 -3.96 -1.19 -0.63 4634
0.04 -0.00 12.44 -5.12 11.48 -3.81 -0.85 -0.41 4640
0.03 -0.00 11.90 -5.70 11.87 -3.61 -0.59 -0.16 4646
0.04 -0.00 11.61 -6.17 12.44 -3.41 -0.40 0.09 4653
0.04 -0.00 11.29 -6.66 13.00 -3.21 -0.25 0.36 4660
0.02 -0.00 11.01 -7.32 13.16 -3.02 -0.10 0.63 4666
0.04 -0.00 10.89 -7.96 13.35 -2.81 -0.02 0.89 4672
0.03 -0.00 10.70 -8.28 13.56 -2.60 0.10 1.12 4678
0.03 -0.00 10.83 -8.43 13.93 -2.38 0.23 1.34 4684
0.04 -0.00 10.60 -8.80 14.36 -2.17 0.40 1.54 4691
0.03 -0.00 10.36 -9.06 14.38 -1.98 0.59 1.68 4698
0.03 -0.00 10.17 -9.26 14.74 -1.83 0.77 1.82 4704
0.03 -0.00 9.92 -9.34 15.02 -1.72 0.92 1.92 4710
0.02 -0.00 9.47 -9.50 15.11 -1.64 1.03 2.00 4716
0.02 -0.00 8.98 -9.61 14.81 -1.59 1.08 2.04 4722
0.03 -0.00 8.42 -9.66 14.33 -1.54 1.05 2.06 4729
0.02 -0.00 7.99 -9.72 13.84 -1.49 0.95 2.03 4736
0.02 -0.00 7.84 -9.76 13.46 -1.43 0.81 1.97 4742
0.04 -0.00 7.81 -9.76 13.01 -1.36 0.67 1.86 4748
0.03 -0.00 7.90 -9.80 12.70 -1.30 0.59 1.71 4754
0.01 -0.00 8.20 -9.76 12.66 -1.24 0.54 1.56 4760
0.02 0.00 8.47 -9.82 12.67 -1.18 0.55 1.36 4767
0.02 -0.00 8.42 -9.93 12.41 -1.13 0.66 1.14 4773
0.00 -0.00 8.01 -10.15 12.21 -1.07 0.83 0.91 4780
0.03 -0.00 7.44 -10.33 11.92 -0.99 1.03 0.67 4786
0.02 -0.00 7.01 -10.44 11.88 -0.90 1.24 0.42 4792
0.01 -0.00 6.87 -10.42 12.13 -0.81 1.47 0.20 4799
0.03 -0.00 6.93 -10.25 12.73 -0.76 1.77 -0.02 4805
0.02 -0.00 6.69 -9.99 13.01 -0.76 2.14 -0.20 4811
0.01 -0.00 5.90 -9.66 13.25 -0.81 2.54 -0.36 4817
0.02 -0.00 5.13 -9.31 13.42 -0.89 2.84 -0.50 4824
0.02 -0.00 4.19 -9.04 13.60 -1.00 3.12 -0.60 4830
0.01 -0.00 3.06 -8.78 13.63 -1.12 3.30 -0.67 4837
0.03 0.00 1.81 -8.66 12.94 -1.24 3.40 -0.72 4843
0.03 -0.00 0.63 -8.62 13.21 -1.32 3.41 -0.76 4849
0.02 -0.00 -0.40 -8.68 12.75 -1.36 3.33 -0.77 4855
0.02 -0.00 -1.32 -8.87 12.38 -1.36 3.14 -0.78 4861
0.03 -0.00 -3.11 -9.75 12.55 -1.28 2.81 -0.78 4869
0.02 -0.00 -2.53 -8.95 10.19 -1.14 2.44 -0.77 4875
0.02 0.00 -3.59 -9.00 11.19 -1.12 2.16 -0.81 4881
0.02 -0.00 -2.56 -9.23 11.49 -1.07 2.01 -0.84 4887
0.02 -0.00 -3.43 -9.31 10.02 -1.04 2.09 -0.84 4893
0.02 -0.00 -3.97 -9.73 10.38 -0.94 2.21 -0.77 4899
0.02 -0.00 -5.20 -10.05 10.57 -0.86 2.31 -0.69 4907
0.02 -0.00 -6.56 -10.44 10.55 -0.80 2.17 -0.61 4913
0.02 -0.00 -7.51 -10.84 10.55 -0.79 1.76 -0.54 4919
0.02 -0.00 -7.77 -11.51 10.05 -0.80 1.15 -0.47 4925
0.02 -0.00 -8.43 -13.29 10.52 -0.76 0.33 -0.34 4931
0.03 -0.00 -9.88 -15.91 13.09 -0.59 -0.67 -0.11 4938
0.03 -0.00 -7.81 -14.72 6.62 -0.40 -1.61 0.21 4944
0.01 -0.00 -13.49 -17.70 9.49 -0.29 -2.52 0.52 4951
0.03 -0.00 -3.50 -16.30 5.30 0.13 -3.38 1.01 4957
0.02 -0.00 -8.42 -17.22 8.38 0.27 -4.26 1.44 4963
0.01 -0.00 -8.58 -16.42 8.76 0.70 -4.28 2.11 4970
0.02 -0.00 0.51 -8.56 8.90 0.98 -4.28 2.80 4976
0.02 -0.00 9.67 3.25 15.58 1.40 -4.25 2.97 4982
0.01 -0.00 2.50 9.35 14.75 1.91 -2.17 3.32 4988
0.03 0.03 3.08 10.28 10.78 1.85 -0.83 3.76 4995
0.02 0.05 -0.20 8.48 6.45 1.80 -0.47 3.98 5001
0.02 0.07 -3.52 3.97 7.46 1.91 -0.37 3.90 5008
0.02 0.12 -7.99 -1.91 10.01 2.13 -0.13 3.69 5014
0.01 0.24 -10.84 -3.48 9.58 2.36 0.04 3.39 5020
0.01 0.30 -15.57 -6.95 11.09 2.61 -0.06 2.84 5026
0.02 0.39 -16.58 -4.59 13.92 2.75 -0.28 2.03 5033
0.01 0.41 -15.70 -0.08 16.46 2.69 -0.58 1.04 5040
0.01 0.47 -10.88 0.74 18.06 2.39 -0.75 0.06 5046
0.00 0.51 -4.35 0.11 16.38 2.05 -0.64 -0.65 5052
0.00 0.50 1.54 -1.00 15.67 1.85 -0.51 -1.00 5058
0.01 0.48 6.95 -2.75 19.15 1.56 -0.98 -0.94 5065
0.01 0.49 7.25 -3.22 14.49 0.79 -1.62 -0.45 5071
0.01 0.46 4.40 -2.59 10.58 0.77 -1.46 0.04 5078
0.03 0.46 1.17 -1.94 16.99 0.68 -1.22 0.20 5084
0.02 0.46 0.47 -1.25 12.26 0.50 -1.01 0.23 5091
0.02 0.52 -0.15 -1.01 11.24 0.30 -0.75 0.15 5097
0.02 0.53 0.48 -0.35 11.01 0.12 -0.53 0.07 5103
0.02 0.57 0.41 -0.58 10.01 -0.03 -0.29 -0.01 5109
0.01 0.64 1.50 -1.17 10.23 -0.04 -0.25 0.01 5115
0.02 0.64 1.15 -0.97 10.23 -0.05 -0.19 0.03 5123
0.02 0.66 0.51 -0.93 10.12 -0.05 -0.14 0.04 5129
0.01 0.69 0.28 -0.82 10.36 -0.05 -0.10 0.03 5135
0.01 0.72 0.56 -0.87 10.18 -0.04 -0.06 0.03 5141
0.00 0.74 0.68 -0.81 10.16 -0.03 -0.03 0.05 5147
0.00 0.72 0.63 -0.80 10.10 -0.03 -0.00 0.06 5154
0.01 0.71 0.71 -0.74 10.12 -0.01 0.02 0.07 5160
0.00 0.73 0.82 -0.76 9.96 -0.01 0.04 0.08 5167
0.01 0.67 0.86 -0.84 10.01 0.00 0.04 0.09 5173
0.03 0.63 0.92 -0.83 10.10 0.00 0.04 0.09 5179
0.02 0.58 0.86 -0.82 9.94 0.00 0.00 0.08 5185
0.03 0.56 0.97 -0.86 9.92 0.01 0.02 0.07 5191
0.05 0.53 0.96 -0.85 10.02 0.00 0.00 0.06 5198
0.05 0.51 0.97 -0.84 9.88 -0.00 -0.01 0.05 5204
0.03 0.48 0.93 -0.80 9.98 -0.01 -0.03 0.04 5211
0.04 0.50 0.86 -0.84 10.13 -0.01 -0.03 0.04 5217
0.06 0.45 0.85 -0.78 10.01 -0.00 -0.03 0.04 5223
0.06 0.41 0.78 -0.78 9.94 -0.00 -0.02 0.04 5229
0.07 0.43 0.82 -0.72 10.08 0.00 -0.01 0.04 5236
0.08 0.39 0.78 -0.79 10.04 0.01 0.00 0.04 5242
0.09 0.32 0.80 -0.80 9.98 0.02 0.02 0.04 5249
0.08 0.35 0.79 -0.76 10.07 0.03 0.03 0.04 5255
0.10 0.32 0.81 -0.80 10.04 0.03 0.04 0.05 5261
0.09 0.26 0.86 -0.84 9.99 0.04 0.06 0.05 5267
0.09 0.26 0.89 -0.76 9.99 0.04 0.07 0.05 5273
0.11 0.24 0.91 -0.84 10.00 0.04 0.09 0.05 5280
0.10 0.21 0.90 -0.82 10.06 0.04 0.10 0.05 5286
0.09 0.16 0.98 -0.87 10.03 0.04 0.11 0.05 5293
0.11 0.12 0.97 -0.83 9.98 0.04 0.12 0.05 5299
0.11 0.08 0.96 -0.83 9.97 0.04 0.12 0.05 5305
0.11 0.04 0.99 -0.82 10.02 0.04 0.13 0.05 5312
0.11 0.09 0.97 -0.87 9.96 0.03 0.13 0.05 5318
0.11 0.05 1.04 -0.85 9.90 0.03 0.12 0.05 5324
0.11 0.05 1.00 -0.81 9.91 0.02 0.12 0.05 5330
0.10 0.05 1.04 -0.85 9.98 0.02 0.11 0.05 5337
0.10 0.06 1.07 -0.85 9.93 0.02 0.10 0.05 5343
0.10 0.02 1.02 -0.85 9.94 0.01 0.10 0.05 5349
0.10 -0.01 1.04 -0.85 9.93 0.02 0.09 0.05 5355
0.11 0.00 1.07 -0.81 9.99 0.02 0.08 0.04 5361
0.11 -0.00 1.07 -0.87 9.95 0.01 0.07 0.05 5368
0.12 0.00 1.09 -0.90 9.96 0.02 0.06 0.04 5374
0.11 -0.01 1.12 -0.88 9.96 0.01 0.05 0.04 5381
0.09 0.01 1.08 -0.86 10.01 0.01 0.05 0.04 5387
0.12 -0.00 1.13 -0.90 9.95 0.02 0.04 0.04 5393
0.10 -0.01 1.11 -0.84 10.04 0.02 0.03 0.04 5399
0.10 -0.01 1.11 -0.90 9.99 0.02 0.03 0.04 5405
0.11 -0.01 1.12 -0.92 10.02 0.02 0.02 0.04 5411
0.13 -0.01 1.12 -0.87 9.99 0.02 0.01 0.04 5417
0.13 -0.01 1.12 -0.93 9.98 0.02 -0.00 0.03 5425
0.12 -0.01 1.11 -0.87 9.97 0.02 -0.01 0.04 5431
0.13 -0.01 1.14 -0.86 9.99 0.02 -0.02 0.03 5437
0.13 -0.01 1.10 -0.89 10.01 0.03 -0.03 0.04 5443
0.14 -0.01 1.11 -0.87 9.99 0.02 -0.03 0.04 5449
0.14 -0.01 1.13 -0.93 9.97 0.01 -0.02 0.04 5455
0.13 -0.01 1.12 -0.86 9.91 0.01 -0.02 0.04 5462
0.15 -0.01 1.13 -0.91 9.96 0.01 -0.02 0.04 5468
0.13 -0.01 1.12 -0.91 9.93 0.01 -0.03 0.04 5474
0.13 -0.01 1.09 -0.90 9.97 0.01 -0.03 0.04 5480
0.10 -0.01 1.13 -0.94 9.96 0.01 -0.03 0.04 5487
0.11 -0.01 1.14 -0.91 9.98 0.01 -0.03 0.03 5493
0.12 -0.01 1.13 -0.93 9.96 0.01 -0.04 0.03 5499
0.12 -0.01 1.10 -0.92 9.91 0.00 -0.04 0.03 5506
0.11 -0.01 1.12 -0.89 9.93 0.01 -0.05 0.03 5512
0.11 -0.01 1.14 -0.90 9.99 0.00 -0.04 0.02 5518
0.11 -0.01 1.09 -0.91 9.94 -0.00 -0.04 0.03 5524
0.10 -0.01 1.13 -0.91 9.93 -0.00 -0.04 0.03 5530
0.10 -0.01 1.14 -0.94 9.92 -0.01 -0.04 0.02 5536
0.11 -0.01 1.11 -0.90 9.92 -0.01 -0.04 0.02 5542
0.13 -0.01 1.14 -0.93 9.95 -0.01 -0.03 0.02 5549
0.15 -0.01 1.13 -0.92 9.98 -0.01 -0.03 0.02 5556
0.14 -0.01 1.08 -0.89 9.99 0.00 -0.03 0.02 5562
0.16 -0.02 1.14 -0.89 9.99 0.00 -0.03 0.02 5568
0.16 -0.02 1.14 -0.95 9.98 0.01 -0.04 0.02 5574
0.16 -0.02 1.09 -0.93 9.96 0.01 -0.03 0.02 5580
0.16 -0.02 1.09 -0.92 9.98 0.01 -0.03 0.02 5586
0.16 -0.02 1.14 -0.91 9.99 0.01 -0.04 0.02 5593
0.18 -0.01 1.12 -0.92 9.99 0.01 -0.04 0.02 5599
0.20 -0.02 1.14 -0.97 9.97 0.02 -0.04 0.02 5605
0.20 -0.02 1.18 -0.98 9.99 0.02 -0.04 0.01 5611
0.18 -0.01 1.21 -0.94 9.98 0.02 -0.04 0.01 5617
0.20 -0.02 1.20 -0.99 9.96 0.03 -0.04 0.00 5624
0.21 -0.02 1.19 -0.94 9.99 0.04 -0.04 -0.01 5630
0.23 -0.02 1.23 -0.96 9.97 0.05 -0.04 -0.02 5637
0.25 -0.02 1.22 -0.98 9.98 0.07 -0.04 -0.03 5643
0.26 -0.02 1.18 -0.98 10.00 0.08 -0.03 -0.04 5649
0.25 -0.02 1.23 -1.05 10.02 0.10 -0.03 -0.05 5655
0.24 -0.02 1.18 -1.00 10.04 0.12 -0.02 -0.06 5662
0.29 -0.01 1.14 -1.08 10.10 0.15 0.03 -0.07 5668
0.31 -0.03 1.28 -1.02 10.08 0.19 0.01 -0.07 5675
0.35 -0.02 1.11 -0.91 10.27 0.24 0.03 -0.09 5681
0.38 -0.03 1.10 -1.07 10.12 0.34 0.06 -0.09 5687
0.39 -0.03 1.23 -1.11 10.37 0.44 0.07 -0.10 5694
0.37 -0.03 1.19 -1.18 10.45 0.58 0.11 -0.10 5700
0.39 -0.02 1.33 -1.32 10.70 0.74 0.16 -0.11 5706
0.38 -0.04 1.26 -1.28 10.76 0.90 0.22 -0.12 5712
0.43 -0.03 1.21 -1.31 10.52 1.05 0.26 -0.13 5719
0.47 -0.03 1.45 -1.44 11.05 1.16 0.30 -0.14 5726
0.40 -0.03 1.40 -1.54 10.97 1.28 0.38 -0.16 5732
0.37 -0.02 1.48 -1.67 11.20 1.39 0.49 -0.17 5738
0.32 -0.03 1.32 -1.74 11.10 1.50 0.61 -0.18 5744
0.31 -0.02 1.89 -1.94 11.76 1.62 0.74 -0.18 5750
0.29 -0.02 1.36 -2.15 12.10 1.75 0.88 -0.18 5757
0.22 -0.02 1.50 -2.14 12.78 1.93 1.09 -0.17 5764
0.20 -0.02 1.66 -2.31 12.91 2.12 1.29 -0.17 5770
0.16 -0.02 1.55 -2.40 13.04 2.34 1.59 -0.16 5776
0.10 -0.01 1.09 -2.89 13.93 2.51 1.81 -0.12 5782
0.07 -0.01 1.33 -2.87 14.34 2.69 2.26 -0.04 5789
0.09 -0.01 1.13 -3.18 15.14 2.88 2.73 0.01 5795
0.06 -0.01 0.89 -3.45 15.87 3.08 3.13 0.10 5801
0.05 -0.00 1.48 -3.79 16.91 3.28 3.55 0.19 5808
0.08 -0.00 2.74 -3.65 16.75 3.49 3.97 0.25 5814
0.07 -0.01 3.81 -4.34 19.41 3.65 4.27 0.28 5820
0.08 -0.01 4.73 -5.19 20.96 3.88 4.28 0.27 5827
0.08 0.01 3.80 -5.41 20.48 4.09 4.28 0.32 5833
0.08 -0.01 5.90 -5.95 19.82 4.16 4.28 0.43 5839
0.06 -0.01 7.37 -6.29 21.73 4.18 4.28 0.44 5846
0.06 -0.01 9.57 -6.11 21.79 4.13 4.28 0.38 5852
0.05 -0.00 10.49 -5.50 21.68 4.03 4.28 0.25 5858
0.05 -0.01 7.93 -4.53 23.84 3.93 4.28 0.04 5865
0.05 -0.01 5.63 -4.01 23.98 3.90 4.28 -0.28 5871
0.05 -0.01 2.65 -2.40 22.98 4.02 4.28 -0.55 5877
0.05 -0.00 0.34 -0.99 22.47 4.12 4.28 -0.82 5883
0.05 -0.01 -0.86 0.99 20.11 4.10 4.28 -1.05 5890
0.05 -0.01 -0.84 4.14 14.33 3.94 4.28 -1.24 5896
0.05 -0.01 -3.45 6.90 12.49 3.42 3.79 -1.32 5903
0.05 -0.00 -4.16 10.79 11.83 2.90 2.35 -1.44 5909
0.05 -0.00 -17.98 18.39 4.01 2.32 0.62 -2.00 5915
0.03 -0.00 -15.76 13.86 23.98 0.31 -1.91 -2.26 5921
0.04 0.00 -4.33 13.19 17.74 -2.03 -3.30 -2.04 5928
0.03 -0.00 1.30 10.87 20.18 -2.88 -4.26 -1.79 5935
0.02 -0.00 -0.06 8.28 18.60 -3.23 -4.28 -1.85 5941
0.03 -0.00 -1.24 6.89 12.79 -3.36 -3.99 -2.20 5947
0.03 -0.00 -0.81 5.85 8.75 -3.29 -3.65 -2.72 5953
0.04 -0.00 -0.74 6.01 7.02 -3.23 -3.48 -3.12 5959
0.04 -0.00 -1.10 6.50 6.38 -3.16 -3.32 -3.37 5965
0.04 -0.00 -1.22 6.72 6.74 -3.10 -3.20 -3.53 5972
0.02 -0.00 -0.88 6.57 7.50 -3.06 -3.24 -3.63 5979
0.01 -0.00 -0.37 6.49 8.28 -3.08 -3.33 -3.66 5985
0.01 -0.00 0.52 6.38 8.85 -3.14 -3.52 -3.63 5991
0.05 -0.00 1.47 6.10 9.24 -3.25 -3.72 -3.53 5997
0.03 -0.00 2.42 5.67 9.08 -3.39 -3.88 -3.39 6003
0.03 -0.00 3.51 5.11 9.05 -3.52 -4.00 -3.23 6009
0.03 0.00 4.75 4.53 9.91 -3.66 -4.07 -3.06 6016
0.03 -0.00 6.30 4.14 10.36 -3.73 -4.07 -2.88 6023
0.04 -0.00 7.55 3.60 11.23 -3.83 -3.99 -2.69 6029
0.04 -0.00 8.94 2.50 12.01 -3.95 -3.81 -2.49 6035
0.05 -0.00 10.15 2.29 12.54 -4.07 -3.55 -2.26 6041
0.04 -0.00 11.12 1.54 13.44 -4.16 -3.26 -2.06 6047
0.04 -0.00 11.79 0.79 12.90 -4.22 -2.94 -1.78 6054
0.04 -0.00 12.20 0.00 12.74 -4.25 -2.63 -1.48 6061
0.04 -0.00 12.67 -1.03 12.76 -4.26 -2.32 -1.14 6067
0.03 0.01 13.05 -2.14 12.59 -4.25 -2.07 -0.77 6073
0.03 -0.00 13.38 -3.21 12.58 -4.21 -1.86 -0.39 6079
0.03 -0.00 13.79 -4.09 12.46 -4.14 -1.67 0.00 6086
0.05 -0.01 14.21 -4.97 12.54 -4.01 -1.49 0.40 6092
0.03 -0.00 14.63 -5.87 12.93 -3.80 -1.28 0.76 6098
0.03 -0.00 14.81 -6.83 12.98 -3.57 -1.03 1.10 6105
0.04 -0.00 14.72 -7.54 13.11 -3.33 -0.78 1.40 6112
0.03 -0.00 14.35 -8.10 12.91 -3.06 -0.53 1.68 6118
0.02 0.00 14.11 -8.56 12.90 -2.76 -0.27 1.93 6124
0.03 -0.00 13.69 -8.82 12.85 -2.49 -0.03 2.14 6130
0.02 -0.00 13.22 -9.07 13.00 -2.18 0.20 2.32 6136
0.03 -0.00 12.91 -9.17 13.68 -1.88 0.40 2.47 6144
0.03 -0.00 12.46 -9.18 14.37 -1.62 0.61 2.59 6150
0.02 -0.00 11.78 -9.24 14.87 -1.42 0.76 2.68 6156
0.03 -0.00 11.52 -9.23 15.53 -1.25 0.90 2.73 6162
0.03 -0.00 11.35 -8.61 16.10 -1.15 1.01 2.75 6169
0.03 -0.00 10.88 -9.16 16.05 -1.10 1.06 2.73 6175
0.03 -0.00 10.27 -9.17 15.90 -1.09 1.08 2.67 6181
0.02 -0.00 9.65 -9.25 15.60 -1.09 1.09 2.57 6188
0.02 0.00 9.10 -9.41 15.21 -1.09 1.06 2.44 6194
0.03 -0.00 8.63 -9.57 14.77 -1.07 1.03 2.25 6200
0.03 -0.00 8.16 -9.71 14.43 -1.05 1.02 2.02 6207
0.03 -0.00 7.62 -9.82 13.99 -1.03 1.03 1.75 6213
0.03 -0.00 7.10 -9.82 13.48 -1.01 1.07 1.45 6219
0.02 -0.00 6.62 -9.82 13.03 -0.99 1.14 1.12 6225
0.02 -0.00 6.33 -9.70 12.95 -0.98 1.23 0.79 6232
0.03 -0.00 6.29 -9.56 13.01 -0.97 1.39 0.49 6238
0.02 -0.00 6.43 -9.37 13.65 -1.00 1.63 0.22 6245
0.01 -0.00 6.41 -9.29 14.09 -1.07 1.95 -0.05 6251
0.03 0.01 5.91 -9.20 14.31 -1.20 2.35 -0.29 6257
0.02 -0.00 5.13 -9.07 14.52 -1.35 2.76 -0.49 6263
0.01 -0.00 4.27 -9.09 14.56 -1.52 3.09 -0.65 6269
0.02 0.01 3.12 -9.23 14.24 -1.69 3.31 -0.78 6276
0.01 -0.00 1.69 -9.50 13.80 -1.85 3.39 -0.90 6283
0.01 -0.00 0.27 -9.85 13.13 -1.95 3.35 -1.01 6289
0.02 0.00 -0.95 -10.33 12.36 -2.02 3.20 -1.12 6295
0.02 -0.00 -1.68 -10.74 11.64 -2.04 2.97 -1.26 6301
0.01 -0.00 -2.32 -11.06 10.94 -2.01 2.65 -1.40 6307
0.03 -0.00 -2.74 -11.40 10.27 -1.94 2.42 -1.56 6315
0.02 -0.00 -2.83 -11.83 9.77 -1.84 2.15 -1.74 6321
0.01 -0.00 -2.84 -12.07 9.28 -1.73 1.93 -1.91 6327
0.03 -0.00 -3.56 -11.79 8.45 -1.60 1.87 -2.02 6333
0.02 -0.00 -4.85 -11.80 8.48 -1.44 2.13 -2.00 6339
0.02 -0.00 -6.05 -12.28 9.05 -1.30 2.53 -1.79 6346
0.03 -0.00 -7.46 -13.06 9.41 -1.17 2.61 -1.50 6352
0.01 -0.00 -9.00 -13.87 9.44 -1.07 2.27 -1.21 6359
0.01 -0.00 -9.92 -14.65 8.84 -0.94 1.69 -0.90 6365
0.03 0.00 -9.81 -15.49 7.76 -0.85 0.95 -0.55 6371
0.02 -0.00 -8.89 -16.68 6.56 -0.65 0.15 -0.17 6377
0.01 -0.00 -6.88 -17.30 5.70 -0.41 -0.43 0.20 6384
0.02 0.00 -5.88 -17.49 5.70 -0.09 -0.93 0.53 6390
0.02 -0.00 -4.50 -17.44 5.62 0.25 -1.13 0.87 6396
0.02 -0.00 -22.47 -19.43 25.02 1.12 -2.49 1.45 6403
0.02 -0.00 -10.62 -12.81 9.58 2.14 -4.28 2.79 6409
0.02 -0.00 7.31 -1.61 3.10 1.87 -4.28 3.13 6416
0.01 -0.00 2.00 4.69 10.12 1.98 -4.28 3.04 6422
0.02 0.02 5.77 7.23 16.35 2.21 -3.35 3.31 6428
0.02 0.01 2.75 12.55 10.59 2.15 -1.62 3.64 6434
-0.00 0.15 -6.34 9.66 0.37 2.12 -1.06 3.71 6440
0.02 0.31 -14.74 4.61 7.06 2.67 -1.25 3.25 6448
0.01 0.48 -17.98 -3.61 15.07 3.15 -1.20 2.56 6454
0.01 0.71 -19.56 -6.02 14.63 3.71 -1.17 1.75 6460
0.01 0.81 -18.22 -5.15 19.52 4.11 -0.99 0.76 6466
0.00 0.91 -13.69 -2.19 21.39 4.16 -1.11 -0.41 6473
0.01 0.95 0.62 -2.60 29.94 4.15 -1.64 -1.37 6479
0.00 0.89 6.34 -2.39 26.95 1.43 -3.61 -1.07 6486
-0.01 0.97 4.12 -3.55 10.29 0.38 -1.34 -0.10 6492
-0.02 1.00 1.19 -4.79 12.08 0.11 -0.43 0.13 6499
-0.02 1.02 0.27 -1.23 11.14 0.12 -0.25 0.29 6505
-0.00 1.03 -0.34 -0.60 11.10 0.10 -0.17 0.22 6511
-0.01 1.05 -0.02 -0.25 10.52 0.04 -0.08 0.07 6517
-0.01 0.94 0.82 -0.72 9.84 0.01 -0.00 0.04 6523
0.02 0.95 -1.21 -1.12 12.22 0.00 -0.04 0.08 6531
0.00 0.93 1.07 -0.94 9.82 0.02 -0.04 0.13 6537
0.00 0.86 0.89 -0.48 9.88 0.02 -0.04 0.09 6543
0.02 0.86 0.60 -0.60 10.15 0.01 -0.03 0.06 6549
0.02 0.79 0.85 -0.85 9.99 0.01 -0.02 0.05 6555
0.03 0.75 0.74 -0.86 9.86 0.01 -0.00 0.07 6561
0.03 0.67 0.57 -0.74 10.05 0.01 0.02 0.08 6567
0.06 0.63 0.59 -0.74 9.92 0.03 0.04 0.08 6575
0.05 0.56 0.64 -0.82 10.10 0.03 0.06 0.09 6581
0.05 0.47 0.68 -0.72 10.05 0.04 0.08 0.11 6587
0.07 0.44 0.85 -0.83 10.02 0.06 0.09 0.11 6593
0.06 0.37 0.96 -0.70 9.99 0.07 0.09 0.11 6599
0.05 0.29 0.86 -0.74 10.05 0.08 0.10 0.10 6605
0.07 0.26 0.99 -0.66 9.99 0.08 0.09 0.09 6612
0.09 0.21 0.89 -0.79 9.99 0.07 0.07 0.08 6619
0.11 0.17 0.89 -0.83 10.01 0.07 0.06 0.07 6625
0.11 0.15 0.89 -0.85 10.02 0.06 0.06 0.06 6631
0.12 0.13 0.90 -0.84 9.97 0.06 0.05 0.06 6637
0.11 0.07 0.96 -0.89 10.05 0.06 0.04 0.06 6643
0.11 0.07 0.90 -0.85 10.08 0.05 0.04 0.06 6650
0.12 0.07 0.97 -0.91 10.01 0.05 0.04 0.06 6657
0.13 0.01 0.91 -0.87 10.05 0.05 0.04 0.06 6663
0.10 0.01 0.92 -0.85 10.05 0.05 0.03 0.05 6669
0.14 -0.01 0.95 -0.88 10.06 0.05 0.04 0.05 6675
0.11 -0.00 0.96 -0.85 10.04 0.06 0.04 0.04 6681
0.10 -0.01 1.00 -0.86 10.02 0.06 0.04 0.04 6688
0.11 -0.01 0.98 -0.83 10.03 0.06 0.04 0.04 6694
0.12 -0.01 0.97 -0.86 9.97 0.06 0.04 0.04 6701
0.12 -0.01 1.02 -0.84 10.05 0.07 0.04 0.04 6707
0.13 -0.01 1.03 -0.85 10.00 0.08 0.04 0.04 6713
0.18 -0.02 0.92 -0.95 9.99 0.08 0.04 0.04 6719
0.17 -0.02 1.02 -0.95 10.06 0.09 0.04 0.04 6725
0.16 -0.02 1.00 -0.87 10.11 0.10 0.03 0.03 6731
0.15 -0.01 1.00 -0.91 10.09 0.11 0.03 0.03 6738
0.18 -0.01 1.08 -0.96 10.02 0.12 0.03 0.03 6745
0.16 -0.02 1.08 -0.94 9.97 0.12 0.01 0.02 6751
0.16 -0.02 1.03 -0.94 10.01 0.13 -0.01 0.01 6757
0.17 -0.01 1.07 -1.00 10.00 0.13 -0.03 0.01 6763
0.16 -0.02 0.99 -1.04 9.98 0.13 -0.06 0.01 6769
0.17 -0.02 1.08 -1.00 9.98 0.13 -0.10 0.01 6775
0.18 -0.02 1.09 -0.98 10.03 0.13 -0.13 -0.00 6781
0.22 -0.01 1.07 -1.07 10.02 0.12 -0.16 -0.01 6789
0.23 -0.02 1.11 -1.04 9.89 0.11 -0.19 -0.01 6795
0.25 -0.03 1.06 -1.08 9.91 0.09 -0.23 -0.02 6801
0.28 -0.01 1.05 -1.07 9.21 0.05 -0.26 -0.02 6807
0.30 -0.03 1.08 -1.11 9.83 0.02 -0.27 -0.03 6813
0.31 -0.03 1.03 -1.14 9.82 -0.01 -0.29 -0.04 6819
0.34 -0.02 0.97 -1.09 9.84 -0.05 -0.30 -0.05 6825
0.39 -0.02 0.95 -1.10 9.79 -0.10 -0.29 -0.07 6833
0.44 -0.03 0.93 -1.08 9.83 -0.08 -0.27 -0.08 6839
0.46 -0.03 0.79 -1.07 10.04 -0.08 -0.20 -0.07 6845
0.52 -0.03 0.68 -1.04 10.05 -0.07 -0.20 -0.06 6851
0.52 -0.03 0.72 -1.01 10.04 -0.04 -0.18 -0.04 6857
0.53 -0.03 0.67 -1.01 10.12 -0.02 -0.15 -0.03 6864
0.57 -0.04 0.68 -1.04 10.03 -0.00 -0.12 -0.01 6871
0.56 -0.04 0.70 -1.03 10.10 0.01 -0.10 -0.00 6877
0.57 -0.04 0.73 -1.06 10.06 0.03 -0.09 0.01 6883
0.59 -0.03 0.83 -1.07 10.04 0.04 -0.08 0.02 6889
0.59 -0.04 0.83 -1.06 10.02 0.05 -0.07 0.02 6896
0.62 -0.04 0.83 -1.09 10.03 0.07 -0.07 0.02 6902
0.64 -0.04 0.88 -1.08 9.99 0.07 -0.06 0.02 6908
0.63 -0.03 0.87 -1.11 9.97 0.07 -0.05 0.02 6915
0.64 -0.04 0.88 -1.11 10.02 0.06 -0.04 0.01 6921
0.66 -0.04 0.88 -1.15 10.04 0.07 -0.03 0.01 6927
0.67 -0.04 0.84 -1.16 10.08 0.09 -0.03 0.00 6934
0.68 -0.04 0.83 -1.14 10.03 0.10 -0.03 0.00 6940
0.69 -0.04 0.88 -1.15 10.05 0.12 -0.03 -0.00 6946
0.69 -0.04 0.81 -1.14 10.22 0.15 -0.03 -0.00 6952
0.70 -0.04 0.84 -1.17 10.19 0.19 -0.04 -0.00 6959
0.71 -0.05 0.84 -1.19 10.14 0.23 -0.04 -0.00 6966
0.72 -0.04 0.81 -1.20 10.23 0.27 -0.04 -0.00 6972
0.72 -0.04 0.85 -1.23 10.20 0.32 -0.04 0.00 6978
0.73 -0.04 0.90 -1.27 10.18 0.36 -0.04 -0.00 6984
0.74 -0.05 0.87 -1.29 10.27 0.40 -0.05 -0.01 6990
0.75 -0.04 0.90 -1.31 10.16 0.43 -0.05 -0.01 6998
0.76 -0.04 0.88 -1.35 10.00 0.45 -0.04 -0.01 7004
0.77 -0.05 0.80 -1.40 10.02 0.44 -0.04 -0.01 7010
0.77 -0.03 0.81 -1.47 10.05 0.43 -0.04 -0.01 7016
0.77 -0.04 0.80 -1.47 9.97 0.42 -0.04 -0.00 7022
0.76 -0.05 0.85 -1.51 10.04 0.42 -0.03 -0.00 7029
0.78 -0.02 0.86 -1.57 9.98 0.41 -0.03 -0.00 7035
0.81 -0.05 0.94 -1.59 10.09 0.42 -0.02 -0.01 7042
0.80 -0.05 1.00 -1.60 10.12 0.43 -0.02 -0.02 7048
0.81 -0.03 0.93 -1.66 10.27 0.46 -0.03 -0.03 7054
0.82 -0.04 0.99 -1.69 10.31 0.50 -0.05 -0.05 7060
0.82 -0.05 1.03 -1.73 10.45 0.54 -0.07 -0.06 7067
0.85 -0.03 0.99 -1.79 10.33 0.57 -0.09 -0.07 7073
0.86 -0.04 0.88 -1.78 10.19 0.60 -0.10 -0.09 7079
0.87 -0.04 0.79 -1.84 9.95 0.61 -0.10 -0.08 7086
0.91 -0.04 0.81 -1.92 9.96 0.61 -0.10 -0.08 7092
0.92 -0.04 0.77 -1.92 10.19 0.62 -0.09 -0.08 7099
0.92 -0.04 0.83 -2.01 10.21 0.64 -0.07 -0.08 7105
0.94 -0.04 0.97 -2.16 9.85 0.66 -0.03 -0.09 7111
0.97 -0.04 0.91 -2.18 10.24 0.69 -0.06 -0.09 7117
0.99 -0.04 0.89 -2.22 10.15 0.72 -0.04 -0.09 7124
1.03 -0.05 0.95 -2.26 10.42 0.76 -0.02 -0.11 7131
1.03 -0.06 0.99 -2.25 10.45 0.82 -0.00 -0.12 7137
1.03 -0.04 0.90 -2.38 10.39 0.86 0.01 -0.13 7143
1.06 -0.04 0.93 -2.40 10.30 0.91 0.02 -0.14 7149
1.05 -0.05 0.90 -2.65 10.22 0.95 0.03 -0.16 7156
1.03 -0.03 0.79 -2.44 10.20 1.01 0.05 -0.17 7162
1.03 -0.04 0.82 -2.54 10.08 1.06 0.09 -0.17 7169
1.04 -0.05 0.68 -2.68 9.77 1.08 0.15 -0.16 7175
1.01 -0.03 0.64 -2.75 9.84 1.13 0.26 -0.16 7181
0.99 -0.04 0.68 -2.74 9.65 1.18 0.38 -0.15 7187
0.92 -0.04 0.74 -2.85 9.89 1.23 0.53 -0.14 7194
0.85 -0.03 0.64 -3.00 10.41 1.29 0.67 -0.13 7200
0.81 -0.04 1.10 -3.16 11.36 1.39 0.78 -0.11 7206
0.71 -0.04 0.29 -3.25 12.29 1.55 0.89 -0.06 7213
0.62 -0.02 0.32 -3.33 13.83 1.74 0.95 -0.00 7220
0.51 -0.02 0.60 -3.65 15.73 2.00 0.81 0.03 7226
0.41 -0.02 1.71 -3.59 14.70 2.32 0.62 0.06 7232
0.36 -0.01 1.33 -3.61 13.23 2.61 0.58 0.03 7238
0.30 -0.02 0.73 -3.74 12.50 2.79 0.60 0.05 7244
0.22 -0.01 0.78 -3.97 12.76 2.97 0.59 0.08 7251
0.23 -0.00 1.42 -4.16 12.75 3.16 0.66 0.10 7258
0.16 -0.02 1.87 -4.60 13.03 3.36 0.71 0.10 7264
0.16 -0.01 1.41 -5.15 13.61 3.53 0.74 0.10 7270
0.15 -0.00 1.51 -5.91 14.88 3.71 0.85 0.12 7276
0.12 -0.01 2.07 -6.97 16.48 3.87 1.06 0.16 7283
0.12 -0.00 2.79 -7.77 18.29 4.07 1.29 0.20 7289
0.12 -0.01 3.92 -8.97 19.38 4.21 1.64 0.24 7296
0.11 -0.01 5.42 -8.98 19.13 4.24 2.16 0.27 7302
0.10 -0.00 6.89 -9.22 19.01 4.27 2.67 0.25 7308
0.09 -0.01 7.97 -9.18 18.42 4.26 3.16 0.21 7315
0.08 -0.01 7.73 -8.38 19.51 4.25 3.74 0.16 7321
0.08 0.00 8.85 -8.29 20.25 4.22 4.23 0.13 7327
0.08 -0.01 10.67 -8.85 20.47 4.16 4.28 0.07 7333
0.07 -0.01 8.31 -8.16 20.65 4.08 4.28 -0.08 7340
0.07 -0.01 4.94 -6.66 22.17 4.01 4.28 -0.25 7346
0.07 -0.01 2.45 -5.67 22.87 3.93 4.28 -0.48 7353
0.05 -0.00 -0.57 -3.75 22.40 3.74 4.28 -0.74 7359
0.05 -0.01 -2.89 -0.46 21.04 3.48 4.28 -1.03 7365
0.04 -0.00 -4.91 3.31 17.23 3.17 4.28 -1.29 7371
0.04 -0.00 -7.13 7.42 14.76 2.65 4.28 -1.52 7377
0.03 -0.00 -7.19 12.17 10.89 2.04 4.18 -1.64 7385
0.04 -0.00 -12.00 20.75 -2.89 1.21 2.69 -1.71 7391
0.03 -0.00 -9.59 12.54 13.52 0.21 0.42 -1.58 7397
0.03 0.01 -6.54 9.33 19.91 -1.50 -1.24 -1.25 7403
0.04 -0.00 -2.19 9.72 19.40 -2.58 -2.06 -1.02 7409
0.03 -0.00 -0.06 8.82 16.55 -2.98 -2.33 -0.85 7415
0.03 0.00 -0.18 7.75 12.98 -3.14 -2.27 -0.86 7422
0.03 -0.00 0.09 7.17 10.32 -3.21 -2.01 -1.03 7429
0.04 -0.00 0.31 6.79 8.78 -3.20 -1.75 -1.28 7435
0.03 -0.00 -0.16 6.39 7.71 -3.11 -1.58 -1.54 7441
0.04 -0.00 -1.28 6.39 7.11 -3.12 -1.48 -1.78 7447
0.03 -0.00 -1.72 6.65 7.19 -3.13 -1.47 -1.97 7453
0.02 -0.00 -1.67 6.71 7.73 -3.18 -1.60 -2.08 7459
0.03 -0.00 -1.39 6.55 8.33 -3.30 -1.81 -2.16 7467
0.03 -0.00 -1.00 6.23 9.04 -3.46 -2.02 -2.20 7473
0.02 -0.00 -0.18 5.82 9.75 -3.63 -2.19 -2.21 7479
0.01 -0.00 0.78 5.32 10.40 -3.83 -2.34 -2.20 7485
0.03 -0.00 2.00 4.74 10.78 -3.98 -2.43 -2.17 7491
0.04 -0.00 3.55 4.35 11.13 -4.13 -2.44 -2.11 7497
0.03 -0.00 3.72 3.76 11.24 -4.23 -2.40 -2.03 7503
0.04 0.01 4.44 3.10 11.17 -4.28 -2.26 -1.93 7511
0.02 -0.00 5.07 2.17 11.40 -4.28 -2.09 -1.83 7517
0.01 -0.00 5.68 0.98 12.26 -4.28 -1.92 -1.71 7523
0.02 0.00 6.12 -0.52 12.75 -4.28 -1.77 -1.59 7529
0.02 -0.00 6.39 -1.94 12.88 -4.28 -1.66 -1.44 7535
0.01 -0.00 6.85 -3.11 13.06 -4.28 -1.57 -1.24 7542
0.02 0.00 7.55 -3.83 12.99 -4.28 -1.57 -1.00 7548
0.04 -0.00 8.43 -4.05 13.14 -4.28 -1.63 -0.73 7555
0.04 -0.00 9.09 -4.47 13.00 -4.27 -1.73 -0.44 7561
0.04 -0.00 9.82 -5.26 12.84 -4.25 -1.80 -0.15 7567
0.04 -0.00 10.27 -6.13 13.22 -4.20 -1.82 0.11 7574
0.02 -0.00 11.05 -6.99 13.86 -4.11 -1.75 0.35 7580
0.03 0.00 11.84 -7.73 14.47 -3.96 -1.63 0.57 7586
0.02 -0.00 12.53 -8.27 14.87 -3.75 -1.46 0.78 7592
0.03 -0.00 12.89 -8.68 14.75 -3.55 -1.17 0.97 7599
0.04 -0.00 13.07 -9.80 14.52 -3.36 -0.86 1.15 7606
0.03 -0.00 12.81 -9.87 14.34 -3.17 -0.58 1.27 7612
0.03 -0.00 12.47 -10.75 14.05 -2.95 -0.35 1.43 7618
0.03 -0.00 12.20 -11.34 13.81 -2.71 -0.18 1.58 7624
0.02 -0.00 11.96 -11.66 13.74 -2.46 -0.08 1.73 7631
0.04 -0.00 12.04 -11.56 13.97 -2.22 0.02 1.87 7638
0.03 -0.00 12.51 -11.44 14.88 -2.00 0.16 2.01 7644
0.04 0.00 13.01 -11.26 15.63 -1.85 0.41 2.13 7651
0.03 -0.00 13.27 -11.28 16.20 -1.76 0.72 2.22 7657
0.03 -0.00 12.90 -11.39 16.36 -1.73 1.07 2.28 7663
0.02 -0.00 12.14 -11.50 16.22 -1.72 1.37 2.30 7669
0.01 -0.00 11.24 -11.52 15.90 -1.70 1.60 2.29 7676
0.03 -0.00 10.18 -11.58 15.23 -1.66 1.73 2.24 7683
0.02 -0.00 9.06 -11.66 14.38 -1.60 1.79 2.15 7689
0.02 -0.00 7.96 -11.59 13.76 -1.50 1.80 2.02 7695
0.02 -0.00 6.99 -11.31 13.07 -1.36 1.78 1.84 7701
0.02 -0.00 6.25 -10.99 12.63 -1.21 1.77 1.62 7708
0.02 0.01 5.74 -10.77 12.41 -1.06 1.81 1.39 7714
0.02 -0.00 5.33 -10.54 12.45 -0.92 1.93 1.14 7720
0.02 -0.00 4.90 -10.29 12.44 -0.82 2.11 0.90 7727
0.02 -0.00 4.31 -10.23 12.49 -0.75 2.32 0.66 7734
0.02 -0.00 3.76 -10.11 12.81 -0.74 2.56 0.45 7740
0.02 0.00 3.26 -9.93 13.21 -0.77 2.81 0.26 7746
0.04 -0.00 2.61 -9.92 13.83 -0.84 3.03 0.10 7752
0.02 -0.00 1.72 -9.97 14.13 -0.97 3.17 -0.04 7758
0.01 -0.00 0.13 -10.11 14.13 -1.13 3.19 -0.16 7766
0.03 -0.00 -1.17 -10.37 13.99 -1.32 3.03 -0.27 7772
0.02 -0.00 -1.75 -10.74 13.61 -1.50 2.80 -0.38 7778
0.03 -0.00 -2.49 -11.60 12.91 -1.68 2.41 -0.49 7784
0.03 -0.00 -2.93 -11.47 11.77 -1.84 1.98 -0.62 7790
0.03 -0.00 -3.00 -12.06 10.53 -1.96 1.57 -0.73 7797
0.02 -0.00 -2.78 -12.85 9.44 -1.99 1.22 -0.80 7803
0.02 -0.00 -2.68 -13.66 8.08 -1.93 1.01 -0.87 7810
0.02 -0.00 -2.87 -14.04 7.72 -1.75 1.01 -0.84 7816
0.02 -0.00 -3.38 -14.21 7.07 -1.47 1.19 -0.70 7822
0.03 -0.00 -4.10 -14.42 6.51 -1.13 1.37 -0.48 7828
0.02 -0.00 -5.06 -14.83 6.22 -0.83 1.36 -0.25 7835
0.02 -0.00 -5.90 -15.33 6.39 -0.58 1.17 -0.05 7841
0.04 -0.00 -6.44 -15.64 6.71 -0.36 0.93 0.14 7847
0.02 -0.00 -7.30 -15.88 7.08 -0.19 0.75 0.36 7854
0.02 -0.00 -7.31 -16.26 7.27 -0.03 0.59 0.59 7860
0.02 -0.00 -7.71 -16.74 6.76 0.14 0.40 0.80 7866
0.03 -0.00 -7.61 -17.35 7.23 0.33 0.13 1.01 7873
0.02 -0.00 -7.34 -18.10 6.30 0.54 -0.19 1.18 7879
0.02 -0.00 -40.48 -18.30 44.98 2.25 -3.58 2.03 7885
0.02 -0.00 -1.67 -7.21 10.82 2.08 -4.18 2.91 7891
0.01 -0.00 4.85 3.58 3.76 1.92 -4.28 2.70 7898
0.01 0.00 5.11 3.44 13.60 1.98 -3.98 2.82 7904
0.03 0.00 7.97 9.64 14.55 2.17 -2.23 3.20 7911
0.02 0.02 0.80 12.94 7.65 2.06 -1.31 3.55 7917
0.02 0.10 -5.26 6.45 1.26 2.18 -1.25 3.49 7923
0.02 0.21 -9.89 0.73 7.54 2.74 -1.39 3.15 7929
0.02 0.35 -12.67 -3.78 12.67 3.21 -1.27 2.77 7937
0.00 0.49 -15.21 -3.59 14.56 3.59 -1.08 2.25 7943
0.01 0.62 -18.33 -3.82 18.57 3.80 -0.91 1.39 7949
-0.00 0.75 -15.08 -2.20 20.95 3.74 -0.74 0.30 7955
0.01 0.78 -7.41 -1.66 22.54 3.48 -0.87 -0.66 7962
-0.01 0.79 8.78 -4.97 47.46 3.19 -1.77 -1.12 7968
0.01 0.77 6.73 -5.42 15.11 0.72 -2.37 -0.34 7974
-0.00 0.77 2.34 -1.57 12.81 0.43 -1.26 0.05 7981
0.00 0.80 1.62 -3.53 11.57 0.21 -0.59 0.16 7987
-0.00 0.76 0.43 -0.85 10.66 0.17 -0.37 0.23 7994
0.01 0.75 0.29 -0.32 10.35 0.10 -0.28 0.16 8000
0.01 0.83 0.28 -0.39 10.26 0.03 -0.14 0.05 8006
0.01 0.81 1.25 -0.98 9.75 0.02 -0.10 0.05 8012
0.02 0.77 0.97 -1.19 10.05 0.02 -0.08 0.09 8018
0.04 0.74 0.50 -0.74 10.20 0.01 -0.05 0.08 8026
0.03 0.72 0.43 -0.79 10.35 0.02 -0.02 0.06 8032
0.02 0.67 0.92 -1.00 10.10 0.02 -0.01 0.05 8038
0.03 0.65 0.86 -0.88 10.25 0.02 -0.01 0.06 8044
0.05 0.58 0.75 -0.80 10.11 0.03 -0.01 0.07 8050
0.05 0.47 0.69 -0.90 10.07 0.04 0.02 0.08 8057
0.05 0.39 0.82 -0.89 10.08 0.05 0.03 0.09 8064
0.06 0.39 0.86 -0.86 10.09 0.05 0.04 0.09 8070
0.07 0.32 0.90 -0.81 10.02 0.06 0.05 0.08 8076
0.07 0.26 0.98 -0.86 9.98 0.05 0.06 0.07 8082
0.09 0.24 0.97 -0.88 10.00 0.05 0.06 0.06 8088
0.09 0.21 0.91 -0.87 10.00 0.05 0.07 0.06 8095
0.09 0.16 0.93 -0.86 9.94 0.05 0.08 0.06 8101
0.11 0.18 0.93 -0.82 10.02 0.05 0.08 0.05 8108
0.11 0.12 0.96 -0.84 9.99 0.04 0.07 0.05 8114
0.10 0.09 0.98 -0.93 10.22 0.04 0.08 0.05 8120
0.12 0.05 0.97 -0.94 9.98 0.03 0.09 0.04 8126
0.12 0.06 0.97 -0.94 10.01 0.03 0.09 0.05 8132
0.09 0.02 0.98 -0.90 9.99 0.03 0.10 0.04 8139
0.09 0.04 1.02 -0.88 10.05 0.03 0.10 0.04 8145
0.11 0.04 1.00 -0.89 9.95 0.03 0.11 0.04 8152
0.09 0.02 1.05 -0.91 9.97 0.03 0.11 0.04 8158
0.06 0.01 1.06 -0.89 9.87 0.03 0.11 0.04 8164
0.07 0.01 1.06 -0.86 9.94 0.03 0.11 0.04 8170
0.06 -0.00 1.10 -0.92 9.97 0.03 0.11 0.00 8176
0.05 -0.00 1.12 -0.95 9.95 0.02 0.10 0.03 8183
0.06 0.00 1.13 -0.95 10.01 0.02 0.10 0.03 8189
0.07 -0.01 1.09 -0.97 9.93 0.03 0.10 0.03 8196
0.06 -0.01 1.12 -0.92 9.99 0.03 0.09 0.03 8202
0.06 -0.01 1.18 -0.95 9.98 0.02 0.08 0.02 8208
0.05 -0.00 1.12 -0.93 9.90 0.03 0.07 0.02 8214
0.06 -0.00 1.14 -1.03 9.91 0.02 0.06 0.02 8220
0.07 -0.00 1.17 -1.00 9.94 0.02 0.05 0.02 8226
0.05 -0.01 1.13 -0.97 9.91 0.02 0.03 0.01 8232
0.04 -0.00 1.14 -0.65 9.92 0.02 0.02 0.02 8239
0.07 -0.00 1.13 -0.95 9.91 0.01 0.01 0.01 8245
0.08 -0.01 1.14 -0.94 9.91 0.01 0.00 0.01 8252
0.09 -0.01 1.18 -0.92 9.97 0.01 -0.01 0.01 8258
0.10 -0.01 1.14 -0.91 9.97 0.01 -0.02 0.01 8264
0.10 -0.01 1.16 -0.98 9.98 0.01 -0.03 0.01 8270
0.12 -0.01 1.21 -0.98 10.01 0.01 -0.04 0.01 8276
0.13 -0.01 1.15 -0.95 10.03 0.02 -0.06 -0.00 8283
0.13 -0.01 1.20 -1.01 9.97 0.03 -0.08 -0.00 8289
0.15 -0.01 1.17 -1.04 9.98 0.04 -0.09 -0.00 8295
0.16 -0.02 1.12 -1.01 9.96 0.03 -0.11 -0.00 8301
0.15 -0.01 1.11 -0.99 10.00 0.04 -0.12 -0.00 8308
0.15 -0.01 1.09 -1.01 9.96 0.04 -0.14 -0.00 8314
0.19 -0.01 1.10 -1.06 9.96 0.03 -0.16 -0.01 8321
0.20 -0.02 1.11 -1.05 9.90 0.03 -0.18 -0.01 8327
0.20 -0.02 1.10 -1.03 9.93 0.02 -0.19 -0.01 8333
0.21 -0.02 1.15 -1.07 9.91 0.01 -0.20 -0.01 8339
0.23 -0.02 1.09 -1.00 9.92 -0.00 -0.19 -0.01 8345
0.24 -0.02 1.10 -1.05 9.93 -0.01 -0.18 -0.01 8351
0.24 -0.02 1.08 -0.98 9.91 -0.01 -0.15 -0.01 8357
0.25 -0.02 0.99 -1.04 9.95 -0.02 -0.12 -0.01 8365
0.28 -0.02 1.01 -1.03 9.94 -0.02 -0.10 -0.01 8371
0.27 -0.02 0.98 -1.01 9.92 -0.02 -0.08 -0.01 8377
0.24 -0.01 0.89 -0.96 9.92 -0.02 -0.06 0.03 8383
0.27 -0.02 0.97 -1.00 9.98 -0.01 -0.04 0.01 8389
0.28 -0.02 0.98 -1.01 10.00 -0.00 -0.03 0.02 8395
0.28 -0.03 1.01 -1.02 10.02 -0.00 -0.02 0.02 8401
0.28 -0.02 1.00 -1.01 10.02 0.00 -0.02 0.03 8409
0.30 -0.03 1.03 -1.04 10.00 0.01 -0.02 0.03 8415
0.29 -0.03 1.07 -1.03 10.03 0.01 -0.01 0.03 8421
0.28 -0.02 1.06 -1.04 9.98 0.01 -0.01 0.03 8427
0.27 -0.02 1.07 -1.06 9.98 0.01 -0.02 0.03 8433
0.26 -0.02 1.11 -1.00 9.92 0.00 -0.02 0.02 8439
0.26 -0.03 1.10 -1.05 9.91 -0.00 -0.02 0.02 8445
0.24 -0.01 1.11 -1.06 9.96 -0.00 -0.03 0.02 8453
0.26 -0.02 1.08 -1.07 9.89 -0.01 -0.03 0.01 8459
0.25 -0.02 1.06 -1.02 9.97 -0.02 -0.03 0.01 8465
0.25 -0.02 1.06 -1.01 10.04 -0.02 -0.04 0.01 8471
0.26 -0.01 1.04 -1.04 9.96 -0.01 -0.04 0.01 8477
0.26 -0.02 1.11 -1.04 10.04 -0.01 -0.04 0.01 8483
0.27 -0.03 1.08 -1.04 10.02 -0.00 -0.03 -0.00 8489
0.27 -0.02 1.08 -1.05 9.98 0.00 -0.03 -0.01 8497
0.29 -0.02 1.08 -1.07 9.99 0.00 -0.03 -0.02 8503
0.28 -0.02 1.10 -1.05 9.97 0.01 -0.03 -0.02 8509
0.27 -0.02 1.08 -1.05 9.95 0.02 -0.03 -0.02 8515
0.30 -0.02 1.11 -1.07 10.02 0.03 -0.02 -0.03 8521
0.31 -0.03 1.06 -1.07 10.02 0.05 -0.02 -0.04 8527
0.30 -0.02 1.16 -1.05 10.11 0.07 -0.02 -0.04 8535
0.32 -0.01 1.16 -1.07 10.03 0.09 -0.01 -0.06 8541
0.32 -0.02 1.07 -1.04 10.10 0.12 -0.01 -0.07 8547
0.34 -0.02 1.15 -1.13 10.15 0.17 0.00 -0.07 8553
0.36 -0.02 1.12 -1.10 10.15 0.22 0.01 -0.08 8559
0.35 -0.02 1.19 -1.20 10.25 0.29 0.03 -0.10 8566
0.38 -0.02 1.24 -1.15 10.27 0.39 0.04 -0.11 8572
0.43 -0.03 1.24 -1.21 10.60 0.52 0.07 -0.13 8579
0.45 -0.04 1.32 -1.25 10.82 0.68 0.09 -0.15 8585
0.49 -0.02 1.20 -1.32 10.88 0.87 0.13 -0.17 8591
0.50 -0.03 1.27 -1.47 10.98 1.03 0.15 -0.19 8598
0.52 -0.02 1.74 -0.91 10.56 1.14 0.16 -0.22 8604
0.54 -0.02 1.21 -1.51 10.47 1.22 0.19 -0.22 8610
0.53 -0.03 1.04 -1.75 10.78 1.30 0.22 -0.22 8616
0.52 -0.02 1.29 -1.74 11.00 1.32 0.21 -0.23 8624
0.59 -0.03 1.21 -1.97 11.60 1.41 0.23 -0.24 8630
0.57 -0.04 0.97 -1.99 11.38 1.53 0.27 -0.23 8636
0.59 -0.03 0.77 -2.04 10.98 1.61 0.32 -0.22 8642
0.58 -0.03 0.76 -1.93 11.06 1.69 0.37 -0.19 8648
0.49 -0.04 1.13 -2.34 11.36 1.79 0.50 -0.16 8655
0.42 -0.01 1.30 -2.45 11.96 1.91 0.65 -0.16 8662
0.39 -0.02 1.32 -2.64 12.46 2.03 0.78 -0.14 8668
0.26 -0.02 1.02 -2.68 12.85 2.16 0.93 -0.11 8674
0.21 -0.01 0.94 -3.03 12.96 2.33 1.16 -0.04 8681
0.19 -0.02 1.28 -3.09 13.41 2.53 1.38 -0.03 8687
0.10 -0.01 0.71 -3.29 13.87 2.73 1.53 0.03 8693
0.11 -0.01 0.83 -3.45 15.06 2.98 1.77 0.08 8699
0.09 -0.01 1.59 -3.99 15.21 3.25 1.98 0.13 8706
0.08 -0.01 1.44 -4.23 15.89 3.50 2.18 0.18 8712
0.09 0.00 1.38 -4.80 16.82 3.67 2.38 0.25 8719
0.09 -0.01 1.76 -5.63 17.88 3.85 2.55 0.34 8725
0.10 -0.01 2.92 -6.34 19.91 4.04 2.73 0.45 8731
0.08 -0.01 3.58 -6.88 20.60 4.17 3.00 0.52 8737
0.08 -0.01 4.36 -6.89 19.62 4.24 3.35 0.57 8743
0.08 -0.01 5.06 -6.78 21.04 4.21 3.67 0.63 8750
0.08 -0.01 7.91 -7.43 21.81 4.15 4.14 0.66 8757
0.07 -0.01 10.96 -7.51 21.94 4.01 4.28 0.67 8763
0.05 -0.00 12.37 -6.29 20.88 3.85 4.28 0.54 8769
0.04 0.00 9.54 -4.04 22.43 3.72 4.28 0.26 8775
0.07 -0.01 5.98 -3.24 23.56 3.64 4.28 -0.03 8781
0.03 -0.00 1.29 -2.17 24.87 3.61 4.28 -0.32 8787
0.05 -0.01 -3.08 -0.12 22.99 3.53 4.28 -0.72 8795
0.06 -0.01 -6.56 2.04 20.17 3.46 4.28 -1.14 8801
0.05 -0.00 -10.61 3.40 12.22 3.26 4.28 -1.42 8807
0.05 -0.01 -11.40 8.78 11.21 2.73 4.28 -1.47 8813
0.03 -0.00 -21.81 15.73 -0.23 2.39 3.02 -1.78 8819
0.03 -0.00 -18.65 10.63 15.63 1.17 -0.13 -2.15 8826
0.03 -0.00 -10.89 10.79 16.44 -1.23 -2.77 -2.14 8833
0.03 -0.00 -3.01 9.99 19.23 -2.38 -4.24 -1.99 8839
0.03 -0.00 0.00 5.74 18.33 -2.83 -4.28 -1.93 8845
0.05 -0.01 1.71 4.14 15.19 -3.05 -4.28 -2.10 8852
0.04 -0.00 2.61 3.67 12.34 -3.05 -3.75 -2.49 8858
0.03 -0.00 3.14 3.00 9.52 -2.96 -3.00 -2.94 8864
0.05 -0.00 2.36 3.28 7.06 -2.89 -2.40 -3.33 8870
0.04 -0.00 1.34 3.92 6.06 -2.84 -1.87 -3.58 8877
0.03 -0.00 0.63 4.32 6.41 -2.83 -1.64 -3.76 8883
0.02 -0.00 0.07 4.55 7.18 -2.89 -1.55 -3.85 8889
0.03 0.00 -0.27 4.82 7.77 -3.00 -1.69 -3.89 8895
0.03 -0.00 -0.09 5.01 8.36 -3.14 -1.95 -3.85 8901
0.05 -0.01 0.47 4.89 9.07 -3.31 -2.23 -3.73 8908
0.03 -0.00 1.32 4.52 9.52 -3.45 -2.47 -3.53 8914
0.03 -0.00 1.88 3.81 10.06 -3.60 -2.63 -3.23 8921
0.02 -0.00 2.40 2.85 9.97 -3.73 -2.70 -2.85 8927
0.01 -0.00 3.76 2.50 9.62 -3.84 -2.82 -2.46 8933
0.02 -0.00 5.14 2.39 10.42 -3.94 -2.98 -2.17 8939
0.03 -0.00 6.32 1.90 9.96 -4.02 -3.10 -1.86 8945
0.03 -0.00 7.37 1.01 9.96 -4.07 -3.13 -1.57 8952
0.01 -0.00 8.41 0.21 9.98 -4.09 -3.04 -1.31 8958
0.02 -0.00 9.38 -0.49 10.31 -4.10 -2.84 -1.08 8965
0.02 -0.00 10.10 -0.97 10.67 -4.09 -2.55 -0.87 8971
0.01 -0.00 10.79 -1.49 11.00 -4.05 -2.32 -0.69 8977
0.02 -0.00 11.19 -2.05 11.29 -4.02 -1.99 -0.52 8983
0.02 -0.00 11.52 -2.68 11.73 -3.99 -1.66 -0.34 8990
0.02 -0.00 11.63 -3.40 12.36 -3.96 -1.40 -0.17 8996
0.04 -0.00 11.69 -4.29 12.72 -3.94 -1.19 -0.01 9003
0.03 -0.00 11.67 -5.02 12.96 -3.89 -1.07 0.23 9009
0.02 -0.00 11.67 -5.69 13.18 -3.81 -1.03 0.48 9016
0.03 -0.00 11.95 -6.52 13.34 -3.70 -1.01 0.73 9022
0.02 -0.00 12.35 -7.35 13.60 -3.57 -0.97 0.98 9028
0.03 0.00 12.93 -7.95 14.02 -3.43 -0.87 1.21 9034
0.02 -0.00 13.50 -8.27 14.12 -3.28 -0.71 1.43 9040
0.01 -0.00 13.82 -8.57 14.25 -3.13 -0.47 1.64 9048
0.03 -0.00 13.93 -8.95 14.33 -2.98 -0.17 1.84 9054
0.02 -0.00 13.82 -9.44 14.23 -2.83 0.16 2.00 9060
0.03 -0.00 13.30 -9.90 14.03 -2.66 0.48 2.15 9066
0.04 -0.00 12.60 -10.25 13.68 -2.48 0.75 2.26 9073
0.03 -0.00 11.76 -10.55 13.35 -2.29 0.94 2.35 9079
0.03 0.00 10.83 -10.69 12.81 -2.04 1.05 2.40 9085
0.04 -0.00 10.07 -10.66 12.59 -1.85 1.08 2.40 9092
0.01 -0.00 9.54 -10.44 12.49 -1.63 1.07 2.34 9099
0.03 -0.00 9.14 -10.15 12.70 -1.45 1.04 2.23 9105
0.02 -0.00 8.76 -9.86 12.84 -1.27 1.03 2.06 9111
0.03 -0.00 8.36 -9.75 12.91 -1.12 1.04 1.84 9117
0.03 -0.00 7.81 -9.57 12.85 -1.02 1.06 1.58 9123
0.03 -0.00 7.23 -9.44 12.68 -0.93 1.07 1.30 9129
0.02 -0.00 6.70 -9.42 12.49 -0.86 1.06 1.02 9137
0.03 -0.00 6.10 -9.49 12.36 -0.79 1.05 0.72 9143
0.02 -0.00 5.66 -9.44 12.27 -0.70 1.05 0.42 9149
0.02 -0.00 5.52 -9.48 12.54 -0.61 1.10 0.13 9155
0.02 -0.00 5.48 -9.34 12.72 -0.53 1.25 -0.13 9161
0.03 -0.00 5.42 -9.27 12.77 -0.47 1.51 -0.35 9167
0.02 -0.00 5.07 -9.01 12.92 -0.43 1.85 -0.54 9174
0.02 -0.00 4.56 -8.81 12.78 -0.44 2.17 -0.69 9181
0.03 -0.00 3.62 -8.62 12.74 -0.46 2.53 -0.78 9187
0.02 -0.00 2.46 -8.61 12.66 -0.50 2.80 -0.84 9193
0.02 -0.00 1.42 -8.66 12.56 -0.52 2.93 -0.88 9199
0.03 -0.00 0.46 -8.78 12.44 -0.54 2.91 -0.89 9205
0.03 -0.00 -0.27 -9.00 12.32 -0.56 2.78 -0.88 9211
0.02 -0.00 -0.71 -9.14 12.17 -0.56 2.54 -0.87 9219
0.03 -0.00 -0.84 -9.38 11.91 -0.58 2.23 -0.84 9225
0.02 -0.00 -1.00 -9.60 11.60 -0.59 1.88 -0.80 9231
0.02 -0.00 -0.96 -9.61 11.41 -0.61 1.54 -0.77 9237
0.03 -0.00 -0.65 -9.66 11.16 -0.64 1.34 -0.71 9243
0.02 -0.00 0.11 -9.68 11.09 -0.70 1.20 -0.66 9249
0.02 -0.00 0.73 -9.69 11.03 -0.79 1.21 -0.59 9256
0.02 -0.00 0.98 -9.68 10.77 -0.91 1.33 -0.52 9263
0.04 -0.00 0.97 -9.60 10.60 -1.03 1.55 -0.45 9269
0.02 -0.00 0.54 -9.71 10.19 -1.13 1.81 -0.36 9275
0.02 -0.00 -0.30 -9.89 9.74 -1.17 2.02 -0.27 9281
0.03 -0.00 -1.40 -10.18 8.96 -1.15 2.19 -0.18 9287
0.03 -0.00 -2.47 -10.63 8.23 -1.05 2.28 -0.06 9293
0.03 -0.00 -3.75 -11.12 7.66 -0.88 2.32 0.08 9300
0.03 -0.00 -4.96 -11.63 7.30 -0.64 2.26 0.23 9307
0.03 -0.00 -6.10 -12.09 7.03 -0.35 2.06 0.34 9313
0.04 -0.00 -7.12 -12.53 7.12 -0.06 1.74 0.48 9319
0.02 -0.00 -7.94 -12.71 7.24 0.20 1.30 0.62 9325
0.04 -0.00 -8.16 -12.96 7.22 0.40 0.81 0.74 9331
0.03 -0.00 -7.66 -13.18 7.40 0.51 0.28 0.85 9338
0.01 -0.00 -6.87 -13.45 7.65 0.61 -0.19 0.96 9345
0.03 -0.00 -13.83 -14.80 13.91 0.77 -1.06 1.18 9351
0.03 -0.00 -20.89 -13.13 13.60 1.84 -3.61 2.06 9357
0.03 -0.00 -4.13 -6.20 8.55 1.57 -4.28 2.62 9363
0.04 -0.00 2.38 0.29 7.06 1.33 -4.28 2.55 9369
0.02 -0.00 3.37 -0.06 12.58 1.27 -4.28 2.50 9376
0.01 -0.00 4.91 1.66 13.86 1.19 -4.28 2.69 9382
0.02 -0.00 4.27 7.03 14.77 1.28 -3.55 3.00 9389
0.03 0.00 -1.19 8.74 15.06 1.43 -2.31 3.18 9395
0.02 0.08 -7.43 7.14 8.57 1.51 -1.68 3.06 9401
0.02 0.26 -11.56 5.74 8.72 1.78 -1.71 2.57 9408
0.01 0.38 -14.69 1.37 12.26 2.05 -1.68 1.93 9414
-0.01 0.46 -15.19 -1.70 12.90 2.27 -1.44 1.22 9420
0.01 0.51 -14.70 -1.87 14.99 2.53 -1.16 0.42 9426
0.01 0.53 -9.61 -1.06 16.08 2.59 -0.99 -0.46 9434
0.01 0.58 2.61 -2.53 24.47 2.57 -1.28 -1.11 9440
0.01 0.59 7.18 -3.45 20.69 0.70 -2.47 -0.77 9446
-0.01 0.56 4.12 -1.67 10.28 0.34 -1.17 -0.01 9452
0.01 0.60 1.37 -3.64 12.56 0.20 -0.50 0.10 9458
0.00 0.62 1.05 -1.57 9.83 0.13 -0.11 0.24 9465
0.00 0.58 0.42 -1.19 11.35 0.15 -0.17 0.21 9472
0.01 0.61 0.11 -0.45 10.67 0.10 -0.12 0.14 9478
0.01 0.59 0.45 -1.21 10.25 0.05 -0.01 0.08 9484
0.01 0.58 0.96 -0.74 9.94 0.03 0.07 0.08 9490
0.03 0.54 0.95 -0.88 9.82 0.04 0.09 0.09 9497
0.03 0.50 1.20 -0.68 9.79 0.04 0.07 0.08 9503
0.01 0.48 0.83 -0.57 9.94 0.03 0.10 0.07 9509
0.03 0.47 0.77 -0.74 10.10 0.02 0.14 0.06 9516
0.03 0.46 0.89 -0.94 10.08 0.01 0.16 0.06 9522
0.01 0.42 0.95 -0.84 10.07 0.01 0.17 0.06 9528
0.02 0.40 0.95 -0.72 9.93 0.02 0.18 0.08 9535
0.03 0.36 0.90 -0.81 10.34 0.04 0.18 0.09 9541
0.03 0.34 0.94 -0.77 9.95 0.05 0.18 0.10 9547
0.03 0.34 0.97 -0.99 9.92 0.05 0.18 0.11 9553
0.04 0.27 1.13 -0.72 9.96 0.06 0.17 0.12 9560
0.04 0.20 1.04 -0.76 10.11 0.06 0.16 0.11 9566
0.04 0.17 1.08 -0.73 9.94 0.06 0.14 0.11 9572
0.06 0.17 1.21 -0.83 9.84 0.06 0.12 0.10 9579
0.04 0.14 1.12 -1.00 9.95 0.05 0.11 0.08 9585
0.03 0.09 1.08 -0.73 9.98 0.04 0.11 0.07 9591
0.04 0.10 1.20 -0.88 10.02 0.03 0.10 0.06 9597
0.04 0.07 1.24 -0.82 10.01 0.03 0.09 0.05 9604
0.04 0.06 1.13 -0.83 10.00 0.02 0.08 0.05 9610
0.04 0.05 1.14 -0.77 9.95 0.02 0.08 0.04 9617
0.05 0.05 1.16 -0.78 9.90 0.03 0.07 0.04 9623
0.06 0.02 1.20 -0.81 10.01 0.03 0.07 0.03 9629
0.05 0.01 1.16 -0.83 9.97 0.03 0.07 0.03 9635
0.07 0.02 1.21 -0.83 10.02 0.03 0.07 0.04 9641
0.05 0.01 0.65 -0.81 10.01 0.03 0.08 0.03 9648
0.04 0.01 1.16 -0.85 10.07 0.03 0.08 0.03 9654
0.05 0.01 1.18 -0.81 9.95 0.04 0.10 0.03 9661
0.05 -0.00 1.29 -0.84 9.92 0.04 0.10 0.03 9667
0.05 -0.00 1.27 -0.81 10.02 0.05 0.11 0.03 9673
0.04 -0.00 1.22 -0.84 10.02 0.05 0.13 0.03 9679
0.05 -0.01 1.15 -0.91 10.05 0.06 0.14 0.03 9686
0.04 -0.00 1.25 -1.48 10.12 0.07 0.17 0.03 9692
0.04 -0.00 1.09 -0.83 10.18 0.08 0.19 0.03 9698
0.05 -0.00 1.28 -0.92 9.87 0.09 0.22 0.04 9704
0.05 -0.01 1.32 -0.90 9.87 0.10 0.25 0.04 9710
0.04 -0.00 1.33 -0.91 9.99 0.11 0.27 0.04 9717
0.03 -0.00 1.31 -0.92 10.06 0.12 0.29 0.05 9723
0.04 -0.00 1.40 -0.92 10.04 0.12 0.30 0.05 9730
0.06 -0.01 1.45 -0.96 9.96 0.14 0.31 0.05 9736
0.04 -0.00 1.45 -0.93 10.02 0.14 0.32 0.05 9742
0.04 -0.00 1.53 -0.97 9.92 0.15 0.32 0.05 9748
0.04 -0.00 1.53 -0.97 9.82 0.15 0.32 0.05 9754
0.06 -0.01 1.60 -0.96 9.83 0.15 0.29 0.04 9760
0.05 -0.01 1.69 -0.91 9.81 0.14 0.26 0.03 9766
0.04 -0.00 1.65 -0.94 9.81 0.13 0.22 0.02 9773
0.04 -0.00 1.68 -0.93 9.79 0.12 0.17 0.01 9780
0.06 -0.01 1.69 -0.92 9.77 0.10 0.11 0.00 9786
0.05 -0.00 1.71 -0.97 9.74 0.08 0.06 -0.00 9792
0.05 -0.01 1.63 -1.02 9.75 0.07 0.01 -0.01 9798
0.04 -0.00 1.65 -1.06 9.86 0.06 -0.04 -0.01 9804
0.05 -0.01 1.63 -1.00 9.83 0.06 -0.06 -0.02 9810
0.06 -0.01 1.63 -1.08 9.90 0.06 -0.08 -0.02 9817
0.05 -0.01 1.62 -1.08 9.91 0.07 -0.07 -0.02 9823
0.04 -0.00 1.56 -1.09 9.96 0.07 -0.08 -0.01 9829
0.05 -0.01 1.55 -1.08 9.90 0.07 -0.06 -0.01 9835
0.06 -0.01 1.59 -1.10 9.94 0.07 -0.06 -0.00 9841
0.05 -0.00 1.57 -1.08 9.92 0.06 -0.08 -0.00 9847
0.05 -0.01 1.55 -1.06 9.87 0.06 -0.07 -0.00 9854
0.05 -0.00 1.56 -1.08 9.83 0.05 -0.08 -0.01 9861
0.05 -0.00 1.64 -1.09 9.86 0.04 -0.09 -0.00 9867
0.06 -0.01 1.60 -1.10 9.84 0.04 -0.09 -0.01 9873
0.05 -0.01 1.60 -1.13 9.84 0.03 -0.09 -0.01 9879
0.04 -0.00 1.49 -1.12 9.83 0.02 -0.09 -0.01 9885
0.05 0.00 1.59 -1.17 9.86 0.00 -0.08 -0.00 9891
0.05 -0.01 1.59 -1.11 9.83 -0.01 -0.09 0.00 9897
0.05 -0.00 1.62 -1.12 9.84 -0.02 -0.10 -0.00 9904
0.04 -0.00 1.58 -1.15 9.88 -0.02 -0.11 -0.01 9910
0.05 -0.00 1.63 -1.09 9.81 -0.03 -0.12 -0.01 9916
0.06 -0.01 1.64 -1.09 9.81 -0.04 -0.15 -0.02 9923
0.05 -0.01 1.63 -1.08 9.83 -0.06 -0.16 -0.03 9929
0.05 -0.00 1.58 -1.15 9.88 -0.07 -0.19 -0.04 9935
0.06 -0.01 1.54 -1.11 9.92 -0.09 -0.20 -0.04 9942
0.07 -0.01 1.51 -1.09 9.92 -0.09 -0.19 -0.04 9948
0.07 -0.01 1.49 -1.12 9.84 -0.10 -0.18 -0.04 9954
0.07 -0.01 1.53 -1.06 9.83 -0.11 -0.19 -0.05 9960
0.06 -0.01 1.48 -1.04 9.89 -0.10 -0.18 -0.05 9966
0.07 -0.01 1.53 -1.04 9.92 -0.08 -0.17 -0.05 9972
0.05 -0.01 1.55 -1.05 9.97 -0.06 -0.17 -0.05 9978
0.05 -0.01 1.51 -1.10 9.93 -0.04 -0.16 -0.06 9986
0.05 -0.01 1.48 -1.14 10.01 -0.02 -0.15 -0.07 9992
0.07 -0.01 1.49 -1.41 9.90 -0.02 -0.14 -0.08 9998
0.06 -0.01 1.40 -1.14 10.06 -0.02 -0.13 -0.08 10004
0.05 -0.00 1.44 -1.11 9.98 -0.00 -0.11 -0.08 10010
0.06 -0.01 1.45 -1.16 9.87 0.00 -0.10 -0.08 10016
0.06 -0.01 1.45 -1.14 9.93 0.00 -0.09 -0.07 10022
0.06 -0.01 1.48 -1.04 9.96 0.01 -0.10 -0.07 10030
0.06 -0.01 1.46 -1.03 10.07 0.06 -0.10 -0.08 10036
0.07 -0.01 1.54 -1.06 10.03 0.06 -0.10 -0.09 10042
0.09 -0.01 1.53 -1.20 9.99 0.09 -0.10 -0.11 10048
0.09 -0.01 1.61 -1.17 10.08 0.13 -0.09 -0.12 10054
0.12 -0.01 1.50 -1.20 10.10 0.17 -0.08 -0.13 10060
0.12 -0.01 1.56 -0.64 10.15 0.23 -0.05 -0.14 10067
0.13 -0.01 1.48 -1.83 10.14 0.29 -0.02 -0.16 10074
0.12 -0.01 1.56 -1.22 10.35 0.38 0.03 -0.18 10080
0.11 -0.01 1.67 -1.32 9.88 0.50 0.10 -0.20 10086
0.12 -0.00 1.53 -1.39 10.57 0.63 0.17 -0.22 10093
0.12 -0.01 1.60 -1.40 10.54 0.78 0.24 -0.23 10099
0.15 -0.01 1.53 -1.51 10.69 0.93 0.31 -0.24 10105
0.18 -0.01 1.54 -1.59 10.96 1.08 0.40 -0.24 10112
0.16 -0.02 1.54 -1.77 11.81 1.24 0.50 -0.23 10118
0.18 -0.02 1.46 -1.82 11.33 1.37 0.55 -0.21 10125
0.19 -0.02 1.18 -1.76 11.87 1.52 0.66 -0.18 10131
0.19 -0.02 1.58 -2.56 12.54 1.66 0.78 -0.17 10137
0.17 -0.01 1.91 -2.17 11.93 1.83 0.98 -0.18 10143
0.13 -0.01 1.73 -2.18 12.32 1.99 1.16 -0.18 10150
0.06 -0.01 1.17 -2.42 13.17 2.11 1.39 -0.14 10157
0.07 -0.01 1.09 -2.74 14.54 2.30 1.66 -0.07 10163
0.07 -0.01 1.56 -2.78 14.87 2.45 1.94 -0.00 10169
0.05 -0.01 1.60 -2.96 14.69 2.66 2.24 0.05 10175
0.08 -0.01 1.55 -3.41 15.22 2.85 2.55 0.10 10182
0.08 -0.01 2.11 -3.60 15.56 3.05 2.82 0.18 10188
0.08 0.00 2.56 -3.66 16.72 3.23 3.13 0.23 10194
0.06 -0.01 3.23 -4.25 16.89 3.36 3.46 0.27 10201
0.05 -0.00 3.60 -4.50 17.86 3.50 3.72 0.28 10208
0.05 -0.00 3.72 -4.93 18.72 3.66 3.89 0.37 10214
0.05 -0.01 4.52 -5.37 19.64 3.77 4.04 0.38 10220
0.04 -0.00 6.57 -5.74 20.37 3.82 4.20 0.45 10226
0.06 -0.01 8.49 -5.94 21.40 3.75 4.28 0.48 10232
0.05 -0.00 9.91 -5.13 22.10 3.58 4.28 0.40 10240
0.04 -0.00 10.23 -4.58 21.37 3.41 4.28 0.21 10246
0.04 -0.00 6.93 -3.68 21.12 3.31 4.28 -0.04 10252
0.03 -0.00 2.85 -2.57 20.90 3.32 4.28 -0.33 10258
0.03 0.00 -0.85 -1.65 20.15 3.42 4.28 -0.56 10264
0.03 -0.00 -3.23 -0.38 19.74 3.46 4.28 -0.72 10271
0.04 -0.00 -5.56 1.80 16.98 3.37 4.28 -0.84 10277
0.04 -0.00 -8.98 4.27 15.93 3.05 4.05 -0.89 10284
0.03 -0.00 -14.65 12.09 10.05 2.70 2.60 -1.02 10290
0.02 -0.00 -17.18 11.12 10.00 2.30 0.48 -1.66 10297
0.03 -0.00 -11.66 10.55 15.34 -0.06 -1.70 -1.87 10303
0.03 -0.00 -5.16 10.92 16.88 -1.54 -2.91 -1.80 10309
0.05 0.00 -1.80 7.19 17.87 -2.12 -3.38 -1.89 10316
0.03 -0.00 -0.90 3.90 16.01 -2.31 -3.16 -2.26 10322
0.03 0.01 -0.47 2.66 13.74 -2.32 -2.71 -2.79 10329
0.03 0.00 -0.30 3.09 10.56 -2.27 -2.27 -3.30 10335
0.04 -0.00 -0.85 4.29 8.56 -2.28 -2.00 -3.69 10341
0.04 -0.00 -1.34 5.20 8.28 -2.38 -1.91 -3.97 10348
0.04 -0.00 -1.63 5.75 9.11 -2.57 -1.99 -4.13 10354
0.02 -0.00 -1.34 5.90 9.84 -2.81 -2.23 -4.21 10360
0.02 0.00 -0.96 5.59 10.29 -3.07 -2.50 -4.20 10366
0.00 -0.00 -0.04 5.18 10.55 -3.33 -2.75 -4.08 10373
0.01 0.00 0.89 4.89 10.70 -3.56 -3.00 -3.86 10380
0.06 -0.00 1.99 4.32 9.83 -3.76 -3.22 -3.58 10386
0.03 -0.00 3.04 3.76 9.75 -3.91 -3.40 -3.28 10392
0.02 -0.00 4.06 3.24 9.21 -4.01 -3.51 -3.02 10398
0.04 -0.00 4.89 2.48 8.88 -4.06 -3.53 -2.81 10404
0.02 -0.00 5.65 1.69 8.54 -4.06 -3.42 -2.63 10411
0.01 -0.00 6.18 0.94 8.27 -4.03 -3.23 -2.49 10418
0.03 0.00 6.58 0.49 8.00 -3.96 -3.01 -2.38 10424
0.03 -0.00 6.83 0.07 7.79 -3.85 -2.82 -2.27 10430
0.03 -0.00 7.07 -0.26 7.56 -3.72 -2.61 -2.15 10436
0.04 0.01 7.23 -0.56 7.95 -3.58 -2.44 -2.01 10442
0.03 -0.00 7.75 -0.80 8.72 -3.43 -2.33 -1.90 10449
0.02 -0.00 8.43 -0.88 9.86 -3.30 -2.25 -1.72 10456
0.02 0.01 9.32 -1.02 10.88 -3.21 -2.16 -1.51 10462
0.02 -0.00 10.17 -1.21 11.72 -3.17 -2.05 -1.28 10468
0.02 -0.00 11.09 -1.70 12.29 -3.16 -1.91 -1.06 10474
0.03 -0.00 11.82 -2.13 12.57 -3.15 -1.73 -0.84 10481
0.04 -0.00 12.57 -2.81 12.84 -3.11 -1.47 -0.62 10487
0.04 0.00 13.38 -3.35 13.07 -3.04 -1.12 -0.42 10493
0.02 -0.00 14.15 -3.84 13.83 -2.96 -0.66 -0.22 10501
0.03 0.01 14.67 -4.46 14.66 -2.88 -0.09 -0.04 10507
0.03 -0.00 14.39 -5.30 15.23 -2.84 0.51 0.13 10513
0.02 0.00 13.44 -6.20 15.71 -2.78 1.04 0.29 10519
0.03 -0.00 12.16 -7.09 15.72 -2.71 1.42 0.46 10526
0.03 -0.00 10.88 -7.98 15.63 -2.62 1.61 0.62 10532
0.03 0.00 9.69 -8.97 15.22 -2.49 1.66 0.77 10539
0.03 -0.00 8.68 -9.84 14.60 -2.34 1.58 0.92 10545
0.01 -0.00 7.99 -10.32 13.96 -2.15 1.38 1.05 10552
0.03 -0.00 7.66 -10.53 13.44 -1.94 1.13 1.15 10558
0.02 -0.00 7.67 -10.47 13.10 -1.69 0.88 1.21 10564
0.02 0.00 7.92 -10.16 12.77 -1.46 0.68 1.23 10571
0.02 -0.00 8.24 -9.96 12.73 -1.25 0.56 1.22 10577
0.02 -0.00 8.43 -9.73 12.85 -1.06 0.54 1.17 10584
0.03 -0.00 8.69 -9.42 13.49 -0.91 0.62 1.12 10590
0.02 -0.00 8.90 -9.30 14.13 -0.79 0.79 1.07 10596
0.02 -0.00 8.94 -9.29 14.38 -0.72 1.02 1.03 10603
0.03 -0.00 8.75 -9.20 14.78 -0.68 1.30 1.01 10609
0.02 -0.00 8.41 -9.24 14.87 -0.66 1.60 1.01 10615
0.03 0.00 7.81 -9.33 14.73 -0.68 1.89 1.03 10621
0.02 -0.00 7.23 -9.37 14.66 -0.70 2.14 1.06 10628
0.02 -0.00 6.65 -9.39 14.72 -0.72 2.29 1.12 10635
0.02 0.00 5.88 -9.42 14.60 -0.78 2.42 1.19 10641
0.02 -0.00 4.88 -9.44 14.32 -0.84 2.48 1.27 10647
0.02 -0.00 3.92 -9.40 13.80 -0.91 2.45 1.34 10653
0.03 -0.00 3.08 -9.33 13.19 -0.96 2.34 1.42 10659
0.03 -0.00 2.35 -9.28 12.65 -0.99 2.15 1.48 10667
0.02 -0.00 1.80 -9.19 11.94 -0.98 1.92 1.51 10673
0.04 -0.00 1.41 -9.18 11.02 -0.92 1.68 1.52 10679
0.02 -0.00 1.30 -9.16 10.53 -0.83 1.47 1.50 10685
0.02 -0.00 1.15 -9.13 9.90 -0.71 1.28 1.45 10691
0.04 -0.00 1.05 -9.13 9.60 -0.57 1.13 1.38 10697
0.02 -0.00 1.14 -9.09 9.50 -0.45 1.01 1.31 10704
0.02 -0.00 1.48 -9.01 9.90 -0.31 0.94 1.24 10711
0.03 0.01 1.89 -8.84 10.64 -0.20 0.94 1.16 10717
0.03 -0.00 2.52 -8.59 11.58 -0.14 1.02 1.10 10723
0.02 -0.00 2.98 -8.39 12.05 -0.18 1.21 1.06 10729
0.03 0.00 2.88 -8.09 12.02 -0.29 1.45 1.02 10736
0.02 -0.00 2.34 -7.74 11.84 -0.45 1.66 1.02 10742
0.03 -0.00 1.57 -7.54 11.46 -0.61 1.77 1.02 10748
0.04 -0.00 0.63 -7.58 10.69 -0.71 1.83 1.05 10755
0.03 -0.00 -0.47 -7.63 9.81 -0.73 1.91 1.12 10761
0.03 -0.00 -1.57 -7.77 8.87 -0.65 2.03 1.25 10768
0.04 0.00 -2.58 -7.84 8.42 -0.50 2.08 1.39 10774
0.03 -0.00 -3.61 -8.19 8.25 -0.31 2.05 1.49 10780
0.03 -0.00 -4.21 -8.63 8.29 -0.15 1.89 1.51 10786
0.03 -0.00 -4.37 -8.86 8.40 0.01 1.55 1.46 10792
0.03 -0.00 -4.34 -8.98 8.30 0.14 1.20 1.35 10799
0.02 -0.00 -4.16 -8.95 8.09 0.23 0.82 1.19 10806
0.04 0.01 -3.85 -8.88 7.88 0.31 0.53 1.00 10812
0.03 -0.00 -3.21 -8.75 8.11 0.38 0.36 0.83 10818
0.03 -0.00 -2.49 -8.64 8.80 0.42 0.30 0.59 10824
0.03 -0.00 -1.96 -8.46 9.66 0.40 0.31 0.33 10830
0.04 -0.00 -1.77 -8.04 9.92 0.31 0.40 0.07 10836
0.03 -0.00 -1.73 -7.52 9.97 0.21 0.56 -0.18 10843
0.02 -0.00 -1.80 -7.06 9.59 0.08 0.67 -0.41 10850
0.03 0.00 -1.96 -6.82 9.20 -0.02 0.74 -0.61 10856
0.04 -0.00 -2.22 -6.88 8.84 -0.05 0.74 -0.76 10862
0.02 -0.00 -2.55 -7.03 8.62 -0.02 0.66 -0.85 10868
0.03 0.01 -2.98 -7.12 8.39 0.09 0.53 -0.90 10874
0.03 -0.00 -3.29 -7.10 8.29 0.24 0.35 -0.91 10881
0.03 -0.00 -3.48 -7.15 8.57 0.39 0.10 -0.87 10888
0.03 0.00 -4.16 -7.15 9.11 0.52 -0.19 -0.79 10894
0.03 -0.00 -4.72 -6.89 9.65 0.63 -0.51 -0.66 10900
0.03 -0.00 -4.85 -6.70 9.82 0.66 -0.87 -0.50 10906
0.03 -0.00 -9.87 0.36 20.61 0.80 -1.95 -0.20 10912
0.03 -0.00 2.01 3.32 17.46 1.72 -3.75 0.40 10918
0.02 -0.00 6.05 8.58 11.92 1.46 -3.85 0.45 10926
0.02 -0.00 6.08 14.16 11.96 1.27 -3.59 0.48 10932
0.02 -0.00 7.86 8.97 13.18 1.05 -3.16 0.65 10938
0.02 -0.00 2.59 3.48 10.61 0.82 -2.88 0.78 10944
0.02 -0.00 0.03 1.59 6.89 0.80 -2.66 0.81 10950
0.02 -0.00 -1.66 0.06 5.40 0.90 -2.74 0.67 10957
0.02 -0.00 -2.78 0.08 6.42 1.13 -3.00 0.47 10963
0.01 0.03 -3.18 1.51 9.99 1.52 -2.87 0.26 10970
0.02 0.09 -2.84 1.13 10.48 2.00 -2.40 0.14 10976
0.01 0.18 -2.91 0.96 10.81 2.44 -2.05 -0.00 10982
0.02 0.23 -3.40 0.21 11.63 2.78 -1.99 -0.22 10989
0.02 0.25 -1.58 -1.27 12.86 3.03 -2.05 -0.47 10995
0.02 0.20 3.05 -4.48 25.45 3.09 -2.65 -0.61 11001
0.02 0.26 1.37 -4.67 32.75 0.66 -2.75 -0.22 11009
-0.01 0.33 0.38 -1.67 9.78 0.02 -0.17 0.24 11015
0.01 0.34 0.67 -1.82 11.27 -0.20 0.22 0.11 11021
0.02 0.41 -0.25 -1.75 9.52 -0.08 0.10 0.14 11027
0.03 0.47 0.60 -1.10 10.79 -0.10 0.14 0.06 11033
0.04 0.45 0.94 -0.18 10.34 -0.02 0.10 0.10 11040
0.02 0.47 0.40 -0.61 10.22 -0.00 0.15 0.11 11046
0.01 0.48 0.51 -0.72 10.19 -0.01 0.19 0.10 11053
0.02 0.46 0.91 -0.68 9.94 -0.01 0.21 0.10 11059
0.03 0.47 1.10 -0.66 9.87 0.00 0.18 0.09 11066
0.04 0.46 1.16 -1.17 10.04 0.02 0.13 0.10 11072
0.04 0.42 1.01 -0.08 9.85 0.01 0.11 0.08 11078
0.02 0.44 0.99 -0.60 9.82 0.00 0.09 0.07 11084
0.03 0.47 1.10 -0.63 9.83 -0.00 0.08 0.06 11090
0.02 0.46 1.08 -0.73 9.90 -0.02 0.08 0.05 11097
0.01 0.49 0.99 -0.69 10.01 -0.04 0.08 0.05 11104
0.02 0.49 0.95 -0.64 10.19 -0.04 0.08 0.04 11110
0.02 0.50 0.89 -0.59 10.24 -0.04 0.08 0.04 11116
0.02 0.51 0.97 -0.65 10.07 -0.04 0.08 0.04 11122
0.03 0.48 0.87 -0.69 10.07 -0.03 0.08 0.04 11129
0.03 0.46 0.87 -0.66 10.08 -0.02 0.09 0.05 11136
0.02 0.51 0.89 -0.64 10.03 -0.01 0.10 0.05 11142
0.02 0.47 0.87 -0.66 10.04 -0.01 0.11 0.06 11148
0.01 0.46 0.97 -0.67 10.03 -0.00 0.12 0.05 11155
0.04 0.42 1.03 -0.69 10.07 -0.00 0.12 0.05 11161
0.03 0.39 1.06 -0.63 10.06 0.00 0.13 0.05 11167
0.02 0.39 1.07 -0.61 9.99 0.00 0.13 0.05 11173
0.04 0.37 1.07 -0.60 10.01 -0.00 0.14 0.05 11180
0.03 0.34 1.15 -0.61 9.99 -0.00 0.13 0.05 11187
0.02 0.34 1.14 -0.63 9.86 0.00 0.12 0.05 11193
0.04 0.32 1.14 -0.63 10.00 0.00 0.11 0.04 11199
0.03 0.28 1.16 -0.61 10.00 0.01 0.10 0.04 11205
0.03 0.28 1.14 -0.70 10.03 0.01 0.10 0.04 11211
0.03 0.23 1.17 -0.66 10.00 0.00 0.10 0.04 11218
0.02 0.24 1.08 -0.61 10.00 0.01 0.10 0.04 11225
0.04 0.17 1.14 -0.68 10.01 0.01 0.10 0.04 11231
0.04 0.19 1.16 -0.68 9.99 0.00 0.11 0.04 11237
0.04 0.14 1.18 -0.70 9.98 0.00 0.11 0.04 11243
0.06 0.13 1.22 -0.63 10.02 -0.00 0.11 0.03 11250
0.05 0.11 1.19 -0.65 9.98 0.00 0.11 0.04 11256
0.03 0.10 1.23 -0.69 9.95 -0.00 0.12 0.03 11262
0.04 0.07 1.22 -0.66 9.98 -0.00 0.12 0.03 11269
0.05 0.02 1.24 -0.69 9.96 -0.01 0.12 0.03 11275
0.04 0.02 0.66 -0.42 10.04 -0.01 0.12 0.03 11282
0.06 0.03 1.26 -0.68 9.91 -0.01 0.13 0.03 11288
0.04 0.01 1.29 -0.66 9.98 -0.01 0.12 0.03 11294
0.04 0.05 1.29 -0.65 9.92 -0.01 0.12 0.02 11300
0.04 0.01 1.30 -0.63 9.98 -0.00 0.12 0.02 11307
0.04 0.00 1.33 -0.64 9.98 -0.01 0.11 0.02 11314
0.04 0.00 1.36 -0.68 9.91 -0.01 0.12 0.02 11320
0.05 0.00 1.45 -0.72 9.94 -0.02 0.10 0.01 11326
0.04 -0.00 1.36 -0.61 9.96 -0.02 0.09 0.01 11332
0.03 -0.00 1.39 -0.73 9.99 -0.02 0.10 0.01 11338
0.04 0.00 1.48 -0.67 9.89 -0.02 0.07 0.01 11344
0.04 -0.00 1.43 -0.65 9.94 -0.02 0.10 0.01 11351
0.04 -0.00 1.43 -0.78 10.04 -0.02 0.10 0.01 11358
0.05 -0.00 1.33 -0.65 9.95 -0.02 0.11 0.00 11364
0.06 -0.01 1.40 -0.69 10.03 -0.02 0.12 0.01 11370
0.03 -0.00 1.54 -0.74 9.94 -0.02 0.13 0.01 11376
0.03 -0.00 1.35 -0.73 10.01 -0.02 0.13 0.01 11382
0.05 0.00 1.43 -0.74 10.04 -0.02 0.13 0.01 11388
0.04 -0.00 1.44 -0.72 9.92 -0.02 0.14 0.01 11396
0.03 -0.00 1.47 -0.71 10.00 -0.02 0.14 0.02 11402
0.04 -0.00 1.45 -0.70 9.94 -0.02 0.15 0.02 11408
0.04 -0.00 1.49 -0.72 9.98 -0.02 0.15 0.02 11414
0.05 -0.00 1.54 -0.74 9.89 -0.03 0.17 0.02 11420
0.04 -0.00 1.60 -0.74 9.97 -0.04 0.19 0.03 11426
0.05 -0.00 1.65 -0.65 9.92 -0.04 0.20 0.03 11432
0.04 -0.00 1.61 -0.65 10.00 -0.03 0.20 0.02 11439
0.04 -0.00 1.55 -0.75 10.01 -0.04 0.20 0.02 11446
0.05 -0.00 1.59 -0.74 9.94 -0.04 0.20 0.01 11452
0.05 -0.01 1.68 -0.71 9.89 -0.04 0.19 0.01 11458
0.04 -0.00 1.71 -0.66 9.86 -0.03 0.17 0.01 11464
0.03 -0.00 1.71 -0.73 9.87 -0.03 0.13 0.00 11470
0.05 -0.00 1.73 -0.68 9.87 -0.03 0.09 -0.01 11476
0.03 -0.00 1.78 -0.71 9.83 -0.03 0.04 -0.01 11483
0.05 -0.00 1.78 -0.66 9.83 -0.04 -0.01 -0.03 11489
0.04 -0.00 1.79 -0.68 9.81 -0.04 -0.07 -0.04 11496
0.06 -0.01 1.83 -0.64 9.77 -0.04 -0.14 -0.05 11502
0.03 -0.00 1.81 -0.68 9.82 -0.05 -0.21 -0.06 11508
0.03 -0.00 1.87 -0.63 9.74 -0.04 -0.27 -0.07 11514
0.04 0.01 1.81 -0.57 9.81 -0.04 -0.32 -0.09 11521
0.04 0.00 1.75 -0.61 9.84 -0.03 -0.37 -0.10 11527
0.03 0.00 1.65 -0.63 9.94 -0.02 -0.39 -0.12 11534
0.05 0.02 1.60 -0.70 10.07 -0.01 -0.37 -0.12 11540
0.04 0.02 1.61 -0.66 9.92 -0.00 -0.36 -0.12 11546
0.04 0.02 1.53 -0.66 9.95 0.01 -0.34 -0.12 11552
0.05 0.01 1.48 -0.75 9.95 0.02 -0.31 -0.11 11558
0.04 0.02 1.48 -0.76 10.05 0.02 -0.28 -0.11 11566
0.04 0.03 1.33 -0.75 10.13 0.01 -0.24 -0.10 11572
0.05 0.03 1.34 -0.72 10.06 0.01 -0.18 -0.07 11578
0.04 0.03 1.40 -0.78 10.01 0.01 -0.15 -0.07 11584
0.05 0.03 1.33 -0.73 10.07 0.02 -0.13 -0.05 11591
0.05 0.00 1.46 -0.76 10.07 0.02 -0.11 -0.04 11597
0.04 0.02 1.42 -0.73 10.07 0.03 -0.10 -0.04 11603
0.05 -0.00 1.20 -0.86 9.87 0.04 -0.10 -0.03 11610
0.04 -0.00 1.50 -0.77 9.98 0.05 -0.10 -0.04 11616
0.03 -0.00 1.65 -0.76 9.91 0.05 -0.10 -0.03 11623
0.05 0.00 1.49 -0.73 10.07 0.05 -0.10 -0.04 11629
0.04 -0.00 1.51 -0.78 9.94 0.06 -0.09 -0.04 11635
0.04 -0.00 1.48 -0.69 10.09 0.07 -0.10 -0.04 11641
0.04 -0.00 1.46 -0.87 10.07 0.08 -0.11 -0.04 11648
0.04 -0.00 1.54 -0.71 10.09 0.09 -0.11 -0.05 11654
0.04 -0.00 1.49 -0.80 10.09 0.12 -0.11 -0.06 11661
0.04 0.01 1.46 -0.77 10.16 0.15 -0.12 -0.07 11667
0.06 -0.01 1.48 -0.80 10.33 0.20 -0.11 -0.09 11673
0.06 -0.01 1.49 -0.86 10.46 0.29 -0.07 -0.11 11679
0.05 -0.01 1.36 -0.75 10.51 0.41 -0.01 -0.14 11685
0.05 -0.00 1.56 -1.02 10.86 0.58 0.10 -0.16 11693
0.04 -0.00 1.19 -0.93 11.23 0.83 0.25 -0.19 11699
0.07 -0.01 1.40 -0.98 11.70 1.12 0.47 -0.22 11705
0.06 -0.01 1.69 -1.13 12.48 1.53 0.77 -0.25 11711
0.06 -0.01 1.89 -1.28 13.72 1.94 1.00 -0.30 11717
0.08 -0.01 1.95 -1.13 13.57 2.33 1.25 -0.35 11724
0.06 -0.01 1.82 -1.64 13.82 2.56 1.43 -0.38 11730
0.05 -0.01 1.25 -1.57 13.97 2.67 1.49 -0.35 11737
0.06 -0.01 1.58 -1.92 14.42 2.81 1.67 -0.31 11743
0.05 -0.00 1.83 -2.05 14.62 2.93 1.96 -0.27 11750
0.05 -0.00 1.71 -2.33 15.31 3.07 2.27 -0.25 11756
0.04 -0.00 2.07 -2.69 15.87 3.19 2.51 -0.20 11762
0.05 -0.01 2.36 -2.75 15.57 3.34 2.75 -0.17 11768
0.06 -0.00 2.32 -2.90 16.64 3.49 2.99 -0.15 11774
0.07 -0.01 3.22 -3.37 17.50 3.63 3.21 -0.12 11782
0.07 -0.00 4.36 -3.92 19.49 3.81 3.42 -0.11 11788
0.08 -0.01 5.21 -4.42 19.87 3.96 3.68 -0.09 11794
0.05 -0.00 5.84 -4.98 20.57 4.06 3.94 -0.05 11800
0.04 0.01 8.49 -5.48 21.09 4.07 4.27 0.01 11807
0.03 -0.00 9.35 -5.44 22.69 3.98 4.28 0.03 11813
0.04 -0.00 9.76 -5.12 22.89 3.80 4.28 0.00 11820
0.05 -0.01 7.20 -4.30 23.62 3.62 4.28 -0.15 11826
0.04 -0.00 4.37 -3.98 23.46 3.56 4.28 -0.40 11832
0.03 -0.00 0.17 -3.02 22.35 3.61 4.28 -0.63 11839
0.05 -0.00 -3.18 -1.76 19.05 3.73 4.28 -0.81 11845
0.05 -0.00 -4.51 0.35 16.86 3.79 4.28 -0.92 11851
0.04 -0.00 -6.84 3.56 15.62 3.59 4.22 -0.98 11857
0.05 -0.01 -6.77 6.77 12.80 3.20 2.91 -0.90 11864
0.04 -0.00 -8.89 13.84 8.98 2.69 1.37 -0.88 11871
0.03 -0.00 -13.17 12.25 8.25 1.92 -0.87 -1.22 11877
0.03 -0.00 -10.57 10.87 21.29 0.27 -2.66 -1.20 11883
0.03 -0.00 -3.03 11.37 17.94 -1.32 -3.80 -1.09 11889
0.05 0.00 -1.16 8.67 18.39 -1.75 -4.19 -1.13 11896
0.03 -0.00 -1.08 6.83 14.64 -1.97 -3.83 -1.45 11902
0.04 -0.00 -0.80 5.76 10.41 -2.01 -3.36 -2.01 11909
0.03 -0.00 -0.48 5.43 7.78 -1.93 -2.97 -2.59 11915
0.04 -0.00 -0.80 5.48 6.03 -1.86 -2.59 -3.04 11921
0.03 -0.00 -1.30 5.54 6.12 -1.81 -2.39 -3.38 11928
0.03 -0.00 -1.35 5.75 6.79 -1.80 -2.31 -3.61 11934
0.03 -0.00 -1.22 5.95 7.08 -1.84 -2.41 -3.72 11940
0.01 -0.00 -1.22 5.91 7.26 -1.92 -2.63 -3.76 11947
0.02 -0.00 -0.87 5.78 7.78 -2.05 -2.90 -3.68 11953
0.03 -0.00 -0.01 5.83 8.87 -2.22 -3.18 -3.53 11959
0.02 -0.00 1.29 5.79 9.82 -2.41 -3.42 -3.32 11966
0.04 -0.00 2.84 5.61 10.83 -2.62 -3.62 -3.08 11972
0.03 -0.00 4.39 5.40 11.37 -2.85 -3.70 -2.84 11978
0.02 -0.00 5.84 5.05 11.58 -3.12 -3.64 -2.59 11984
0.03 -0.00 7.15 4.45 11.62 -3.39 -3.46 -2.36 11991
0.02 -0.00 8.52 3.67 11.29 -3.63 -3.18 -2.15 11998
0.03 0.00 8.44 2.68 10.97 -3.82 -2.89 -1.97 12004
0.03 -0.00 8.69 1.47 10.67 -3.94 -2.58 -1.82 12010
0.02 -0.00 8.94 0.16 10.59 -4.00 -2.39 -1.67 12016
0.02 -0.00 9.28 -0.75 10.65 -4.00 -2.21 -1.51 12023
0.02 -0.00 9.54 -1.54 10.78 -3.98 -2.13 -1.32 12029
0.02 -0.00 10.14 -2.18 10.90 -3.94 -2.12 -1.07 12036
0.03 -0.00 10.86 -2.82 11.08 -3.88 -2.15 -0.84 12042
0.03 -0.00 11.83 -3.48 11.49 -3.81 -2.17 -0.61 12049
0.03 -0.00 12.94 -4.04 11.78 -3.72 -2.11 -0.42 12055
0.03 -0.00 14.04 -4.74 12.30 -3.63 -1.96 -0.26 12061
0.02 -0.00 14.58 -5.54 12.23 -3.52 -1.68 -0.10 12067
0.03 -0.00 15.10 -6.31 12.76 -3.37 -1.27 0.01 12075
0.01 -0.00 15.86 -7.01 13.61 -3.19 -0.73 0.12 12081
0.04 -0.00 15.93 -7.88 14.05 -3.03 -0.07 0.23 12087
0.03 -0.00 15.46 -8.48 14.49 -2.90 0.56 0.37 12093
0.03 -0.00 14.53 -8.96 14.78 -2.78 1.05 0.55 12100
0.02 -0.00 13.40 -9.51 15.17 -2.67 1.35 0.77 12106
0.01 -0.00 12.35 -9.89 14.72 -2.57 1.47 1.03 12112
0.04 -0.00 11.64 -10.33 15.14 -2.46 1.46 1.29 12120
0.02 -0.00 11.14 -10.56 14.74 -2.33 1.42 1.52 12126
0.02 -0.00 10.87 -10.76 14.23 -2.20 1.39 1.68 12132
0.02 -0.00 10.63 -10.83 13.61 -2.06 1.42 1.77 12138
0.03 0.00 10.24 -10.87 13.09 -1.89 1.49 1.80 12145
0.02 -0.00 9.68 -10.69 12.58 -1.71 1.59 1.76 12151
0.02 -0.00 8.98 -10.53 12.19 -1.51 1.68 1.68 12157
0.02 -0.00 8.20 -10.34 11.90 -1.30 1.74 1.56 12165
0.01 -0.00 7.53 -10.15 11.65 -1.07 1.77 1.43 12171
0.03 -0.00 6.95 -9.90 11.75 -0.85 1.77 1.29 12177
0.01 -0.00 6.57 -9.72 12.28 -0.64 1.77 1.14 12183
0.01 -0.00 6.56 -9.46 12.95 -0.48 1.82 1.02 12189
0.03 -0.00 6.43 -9.37 13.33 -0.36 1.93 0.96 12196
0.02 -0.00 6.15 -9.28 13.60 -0.29 2.08 0.88 12203
0.01 -0.00 5.63 -9.24 13.66 -0.27 2.25 0.82 12209
0.02 -0.00 4.96 -9.28 13.47 -0.26 2.38 0.77 12215
0.02 -0.00 4.21 -9.30 13.22 -0.25 2.47 0.74 12222
0.02 -0.00 3.35 -9.30 12.83 -0.22 2.50 0.72 12228
0.03 -0.00 2.65 -9.23 12.46 -0.18 2.49 0.70 12234
0.02 -0.00 1.87 -9.19 12.08 -0.10 2.44 0.70 12240
0.02 -0.00 1.40 -9.07 11.92 -0.08 2.36 0.70 12247
0.02 -0.00 0.91 -9.05 11.71 -0.01 2.25 0.70 12253
0.03 -0.00 0.70 -9.07 11.72 0.04 2.12 0.70 12260
0.02 0.00 0.52 -9.14 11.76 0.07 2.01 0.70 12266
0.02 -0.00 0.45 -9.39 11.65 0.06 1.88 0.69 12272
0.02 -0.00 0.35 -9.47 11.28 0.03 1.74 0.67 12278
0.02 -0.00 0.23 -9.51 10.99 -0.04 1.59 0.64 12284
0.03 -0.00 0.25 -9.45 10.47 -0.13 1.45 0.59 12292
0.03 -0.00 0.32 -9.46 9.84 -0.23 1.32 0.54 12298
0.03 0.00 0.30 -9.50 9.60 -0.30 1.19 0.48 12304
0.03 -0.00 0.30 -9.54 9.17 -0.37 1.09 0.41 12310
0.02 -0.00 0.23 -9.58 8.89 -0.39 1.01 0.34 12316
0.02 -0.00 0.28 -9.62 8.78 -0.41 0.96 0.26 12322
0.03 -0.00 0.20 -9.58 8.61 -0.41 0.95 0.19 12328
0.03 -0.00 0.01 -9.50 8.46 -0.39 0.95 0.13 12336
0.01 -0.00 -0.17 -9.27 8.35 -0.37 1.01 0.07 12342
0.02 0.01 -0.42 -8.90 7.44 -0.34 1.12 0.03 12348
0.02 -0.00 -0.80 -8.69 7.82 -0.30 1.33 0.04 12354
0.02 -0.00 -1.41 -8.69 7.75 -0.24 1.58 0.10 12360
0.02 -0.00 -2.13 -8.77 7.88 -0.13 1.77 0.17 12366
0.04 -0.00 -3.14 -8.89 8.03 -0.07 1.81 0.22 12374
0.03 -0.00 -3.84 -9.00 8.07 0.05 1.71 0.27 12380
0.02 -0.00 -4.27 -9.11 8.08 0.14 1.54 0.29 12386
0.03 -0.00 -4.74 -9.29 8.07 0.23 1.21 0.29 12392
0.03 -0.00 -5.20 -9.40 8.08 0.30 0.74 0.27 12398
0.03 -0.00 -5.33 -9.42 8.17 0.35 0.21 0.25 12404
0.02 -0.00 -4.97 -9.36 8.10 0.39 -0.32 0.22 12410
0.03 -0.00 -4.30 -9.29 8.04 0.44 -0.76 0.21 12418
0.03 -0.00 -3.57 -9.30 8.14 0.52 -1.08 0.20 12424
0.01 -0.00 -2.74 -9.35 8.33 0.57 -1.27 0.21 12430
0.03 -0.00 -1.29 -9.41 8.63 0.67 -1.34 0.21 12436
0.02 -0.00 -1.40 -8.72 10.29 0.77 -1.38 0.24 12442
0.01 -0.00 -15.55 -1.06 23.07 1.63 -3.63 0.72 12448
0.03 -0.00 6.71 0.56 14.54 1.50 -4.27 1.11 12455
0.02 -0.00 6.57 6.90 11.43 1.22 -4.28 1.18 12462
0.01 -0.00 7.29 9.43 15.26 0.90 -4.28 1.36 12468
0.02 -0.00 5.08 2.46 15.39 0.51 -4.26 1.59 12474
0.02 -0.00 2.16 0.55 12.42 0.35 -3.87 1.78 12480
0.02 -0.00 1.18 -0.71 10.67 0.36 -3.35 1.90 12487
0.03 -0.00 -0.21 0.24 9.67 0.47 -2.91 1.94 12493
0.02 0.00 -2.60 1.97 9.10 0.68 -2.57 1.85 12499
0.02 0.09 -7.30 4.20 12.29 1.10 -2.10 1.60 12506
0.02 0.20 -8.47 3.14 11.49 1.39 -1.63 1.19 12512
0.01 0.26 -7.59 1.20 10.71 1.64 -1.43 0.65 12519
0.02 0.27 -6.19 -0.57 13.63 1.79 -1.20 0.17 12525
0.01 0.32 -5.08 -1.23 15.87 1.78 -1.04 -0.26 12531
-0.00 0.35 1.12 -1.53 23.48 1.25 -1.57 -0.60 12538
-0.00 0.37 4.25 -2.82 15.45 0.33 -1.15 -0.35 12545
-0.00 0.38 1.71 -1.33 12.06 0.09 -0.31 0.01 12551
0.01 0.41 1.33 -1.51 10.91 -0.02 0.09 0.05 12557
-0.00 0.38 1.46 -1.27 9.83 0.00 0.14 0.12 12564
-0.00 0.38 1.14 -0.82 9.84 0.09 -0.01 0.14 12570
0.00 0.39 0.83 -0.39 10.34 0.12 -0.06 0.13 12576
-0.01 0.40 0.60 -0.43 10.34 0.09 -0.05 0.10 12582
0.00 0.37 0.91 -0.66 10.03 0.05 0.02 0.09 12589
0.01 0.36 1.17 -0.62 9.93 0.03 0.08 0.10 12596
0.02 0.34 1.28 -0.69 9.73 0.03 0.08 0.10 12602
0.03 0.41 1.22 -0.69 9.68 0.05 0.02 0.09 12608
0.02 0.42 1.05 -0.61 9.96 0.06 -0.04 0.08 12614
0.01 0.39 1.14 -0.53 10.04 0.05 -0.05 0.06 12620
0.04 0.37 1.00 -0.65 10.08 0.03 -0.05 0.04 12627
0.01 0.41 1.08 -0.70 9.87 0.02 -0.05 0.03 12634
0.01 0.41 1.03 -0.70 9.85 0.02 -0.06 0.03 12640
0.02 0.44 0.99 -0.68 10.02 0.01 -0.05 0.04 12646
0.01 0.44 0.97 -0.63 10.18 0.00 -0.01 0.05 12652
0.01 0.49 0.89 -0.63 10.25 -0.00 0.03 0.05 12659
0.02 0.51 0.89 -0.65 10.07 -0.01 0.06 0.05 12665
0.02 0.48 0.97 -0.72 10.16 0.03 0.07 0.06 12672
0.02 0.53 0.98 -0.71 10.15 0.01 0.09 0.07 12678
0.02 0.54 0.96 -0.69 10.09 0.01 0.10 0.07 12685
0.01 0.54 0.99 -0.72 10.10 0.02 0.11 0.07 12691
0.03 0.51 1.05 -0.72 9.98 0.02 0.10 0.07 12697
0.02 0.49 1.10 -0.71 10.02 0.03 0.09 0.07 12703
0.02 0.47 1.12 -0.68 9.93 0.03 0.09 0.07 12709
0.04 0.44 1.10 -0.67 10.05 0.02 0.10 0.06 12717
0.03 0.41 1.15 -0.71 10.02 0.01 0.10 0.05 12723
0.05 0.43 1.13 -0.69 9.96 0.01 0.09 0.05 12729
0.05 0.41 1.13 -0.68 9.92 0.02 0.09 0.05 12735
0.03 0.39 1.11 -0.66 9.97 0.02 0.08 0.05 12741
0.04 0.37 1.03 -0.70 10.24 0.02 0.07 0.04 12748
0.05 0.31 1.11 -0.71 9.96 0.02 0.06 0.05 12754
0.04 0.28 1.17 -0.70 9.99 0.03 0.05 0.05 12761
0.04 0.24 1.18 -0.66 10.00 0.03 0.04 0.05 12767
0.05 0.20 1.17 -0.73 9.96 0.03 0.03 0.06 12773
0.05 0.16 1.16 -0.63 9.99 0.04 0.03 0.06 12780
0.05 0.12 1.23 -0.56 9.95 0.04 0.03 0.05 12786
0.06 0.10 1.15 -0.74 10.01 0.03 0.03 0.05 12792
0.05 0.08 1.18 -0.78 10.01 0.03 0.03 0.05 12798
0.04 0.10 1.19 -0.70 9.97 0.03 0.03 0.05 12805
0.05 0.06 1.19 -0.75 9.98 0.03 0.02 0.05 12811
0.06 0.04 1.29 -0.71 9.94 0.03 0.02 0.04 12818
0.04 0.04 1.20 -0.74 9.98 0.03 0.02 0.03 12824
0.05 -0.00 1.20 -0.71 10.00 0.02 0.01 0.03 12830
0.04 -0.00 1.23 -0.72 9.99 0.03 0.01 0.04 12836
0.05 0.00 1.17 -0.70 9.97 0.03 0.01 0.03 12843
0.05 -0.01 1.20 -0.72 9.96 0.02 0.01 0.03 12849
0.04 -0.00 0.64 -0.73 10.03 0.03 0.01 0.03 12856
0.04 -0.00 1.28 -0.77 9.91 0.02 0.01 0.03 12862
0.05 0.00 1.31 -0.75 9.97 0.02 -0.00 0.03 12868
0.05 -0.00 1.31 -0.76 9.95 0.02 -0.01 0.03 12874
0.04 -0.00 1.27 -0.75 9.92 0.03 -0.02 0.02 12880
0.05 -0.00 1.26 -0.78 10.02 0.02 -0.03 0.02 12887
0.06 -0.01 1.30 -0.80 9.95 0.03 -0.03 0.01 12893
0.05 -0.00 1.27 -0.79 9.99 0.02 -0.03 0.01 12899
0.04 -0.00 1.22 -0.70 9.82 0.02 -0.03 0.01 12906
0.05 -0.01 1.30 -0.80 9.95 0.01 -0.03 0.01 12912
0.06 -0.01 1.31 -0.75 9.98 0.01 -0.03 0.01 12918
0.05 -0.00 1.34 -1.00 9.97 0.00 -0.03 0.01 12924
0.04 -0.00 1.31 -0.78 9.97 0.00 -0.03 0.01 12931
0.05 -0.01 1.30 -0.76 10.03 -0.00 -0.03 0.01 12937
0.06 -0.01 1.20 -0.80 10.01 -0.00 -0.03 0.01 12943
0.05 -0.00 1.25 -0.85 10.03 0.00 -0.02 0.01 12950
0.05 -0.01 1.23 -0.80 9.99 -0.00 -0.02 0.01 12956
0.07 -0.01 1.25 -0.82 10.03 -0.00 -0.01 0.02 12962
0.05 -0.01 1.19 -0.84 10.03 -0.01 0.00 0.02 12968
0.04 -0.00 1.21 -0.83 9.98 -0.00 0.00 0.03 12975
0.05 -0.01 1.23 -0.80 10.00 0.00 0.00 0.03 12981
0.06 -0.01 1.21 -0.84 9.94 0.01 -0.00 0.03 12987
0.05 -0.01 1.25 -0.76 9.97 0.01 -0.01 0.04 12993
0.05 -0.00 1.29 -0.82 10.00 0.01 -0.01 0.03 13000
0.07 -0.01 1.25 -0.80 10.00 0.02 -0.02 0.03 13006
0.05 -0.01 1.30 -0.82 10.00 0.01 -0.02 0.02 13012
0.04 -0.00 1.29 -0.83 9.95 0.02 -0.04 0.02 13019
0.07 -0.00 1.35 -0.82 9.95 0.02 -0.05 0.02 13025
0.06 -0.01 1.33 -0.78 9.90 0.02 -0.06 0.01 13031
0.05 -0.01 1.34 -0.78 10.00 0.02 -0.08 0.00 13037
0.07 -0.01 1.32 -0.77 9.96 0.03 -0.10 -0.00 13044
0.09 -0.01 1.36 -0.79 10.00 0.03 -0.12 -0.01 13050
0.09 -0.01 1.33 -0.82 9.94 0.03 -0.15 -0.02 13057
0.06 -0.01 1.35 -0.86 9.96 0.04 -0.18 -0.03 13063
0.08 -0.01 1.33 -0.80 9.98 0.04 -0.20 -0.04 13069
0.11 -0.01 1.36 -0.86 10.00 0.04 -0.22 -0.05 13075
0.10 -0.01 1.28 -0.92 10.03 0.04 -0.24 -0.06 13082
0.12 0.00 1.33 -0.93 10.00 0.04 -0.26 -0.07 13088
0.13 -0.01 1.27 -1.06 10.00 0.04 -0.28 -0.08 13094
0.20 -0.02 1.22 -1.02 10.04 0.05 -0.27 -0.10 13101
0.27 -0.02 1.35 -0.97 9.96 0.05 -0.26 -0.12 13107
0.28 -0.02 1.18 -0.98 9.97 0.06 -0.24 -0.14 13114
0.27 -0.01 1.05 -0.91 9.95 0.07 -0.20 -0.15 13120
0.31 -0.02 1.04 -1.00 9.98 0.07 -0.16 -0.15 13126
0.29 -0.02 0.82 -0.97 10.07 0.08 -0.10 -0.13 13132
0.33 -0.02 0.91 -0.91 10.09 0.09 -0.06 -0.11 13139
0.37 -0.03 0.91 -0.89 10.18 0.10 -0.02 -0.08 13146
0.39 -0.03 0.87 -0.91 10.27 0.15 0.00 -0.05 13152
0.43 -0.02 0.98 -0.99 10.15 0.19 0.02 -0.04 13158
0.42 -0.03 1.06 -1.03 10.32 0.25 0.04 -0.02 13165
0.42 -0.02 1.04 -1.02 10.25 0.33 0.06 -0.02 13171
0.43 -0.03 1.16 -1.05 10.27 0.40 0.08 -0.02 13177
0.45 -0.04 1.19 -1.08 9.95 0.48 0.11 -0.02 13184
0.46 -0.02 1.28 -1.16 10.49 0.57 0.13 -0.07 13190
0.48 -0.03 1.31 -1.24 10.33 0.65 0.16 -0.05 13197
0.48 -0.03 1.30 -1.28 10.19 0.72 0.17 -0.06 13203
0.45 -0.03 1.37 -1.35 10.63 0.80 0.19 -0.08 13209
0.47 -0.03 1.55 -1.45 10.85 0.90 0.22 -0.10 13216
0.49 -0.02 1.41 -1.52 10.83 1.00 0.23 -0.13 13222
0.51 -0.03 1.45 -1.51 10.89 1.10 0.25 -0.15 13229
0.52 -0.03 1.45 -1.61 11.42 1.21 0.27 -0.17 13235
0.55 -0.03 1.54 -1.82 11.32 1.32 0.28 -0.19 13242
0.54 -0.03 1.70 -1.27 11.01 1.42 0.30 -0.21 13248
0.55 -0.03 1.44 -2.45 11.34 1.52 0.32 -0.22 13254
0.55 -0.04 1.22 -2.05 11.12 1.62 0.34 -0.22 13260
0.52 -0.02 1.37 -2.10 11.06 1.71 0.40 -0.22 13267
0.51 -0.03 1.09 -2.12 11.12 1.80 0.48 -0.22 13274
0.44 -0.03 0.99 -2.34 11.23 1.90 0.60 -0.17 13280
0.42 -0.03 1.06 -2.48 11.78 2.02 0.75 -0.17 13286
0.36 -0.03 1.19 -2.63 11.95 2.17 0.93 -0.13 13293
0.31 -0.03 1.61 -2.84 11.92 2.32 1.12 -0.11 13299
0.21 -0.02 1.59 -3.04 12.84 2.48 1.29 -0.10 13305
0.17 -0.01 1.11 -3.13 13.68 2.67 1.43 -0.07 13313
0.14 -0.01 0.95 -3.45 13.40 2.87 1.60 -0.01 13319
0.11 -0.01 0.97 -3.68 13.01 3.07 1.84 0.07 13325
0.11 -0.00 0.88 -4.17 13.54 3.24 2.08 0.16 13331
0.12 -0.01 0.90 -4.41 14.54 3.39 2.36 0.28 13337
0.08 -0.01 1.57 -5.34 14.26 3.45 2.64 0.42 13344
0.13 -0.01 2.78 -5.82 16.35 3.53 2.94 0.52 13350
0.09 -0.01 3.29 -6.38 20.96 3.66 3.29 0.55 13357
0.06 -0.01 5.76 -7.18 21.22 3.92 3.82 0.60 13363
0.07 -0.01 5.76 -7.50 21.31 4.12 4.20 0.62 13369
0.05 -0.01 7.42 -7.67 19.79 4.17 4.28 0.70 13376
0.06 -0.00 10.28 -7.26 21.48 4.09 4.28 0.74 13382
0.06 -0.01 13.13 -7.45 22.77 3.95 4.28 0.70 13388
0.03 -0.00 11.82 -6.26 22.86 3.82 4.28 0.56 13394
0.04 -0.00 9.38 -6.13 22.81 3.72 4.28 0.23 13402
0.04 -0.00 2.88 -4.22 23.73 3.75 4.28 -0.12 13408
0.04 -0.00 -2.71 -2.25 22.36 3.82 4.28 -0.47 13414
0.05 -0.01 -6.66 -0.55 18.84 3.87 4.28 -0.76 13420
0.04 -0.00 -9.61 2.12 16.84 3.73 4.28 -0.94 13427
0.05 0.00 -9.93 4.90 14.50 3.30 3.65 -0.88 13433
0.04 -0.00 -8.67 9.31 14.95 2.54 2.15 -0.62 13440
0.02 0.00 -7.55 20.09 5.40 1.69 0.22 -0.33 13446
0.03 -0.00 -9.28 12.87 17.50 0.84 -2.42 -0.27 13452
0.03 -0.00 -5.33 12.23 21.33 -1.46 -4.21 -0.08 13459
0.04 0.00 -0.28 11.68 19.78 -2.61 -4.28 -0.06 13465
0.05 -0.00 0.47 9.17 17.94 -2.99 -4.28 -0.30 13471
0.03 -0.00 -0.46 7.09 12.83 -3.14 -4.28 -0.90 13477
0.05 -0.00 -0.08 6.04 10.74 -3.08 -4.05 -1.52 13485
0.03 -0.00 -0.25 6.33 8.00 -2.98 -3.55 -2.29 13491
0.04 -0.00 -0.97 6.74 5.94 -2.89 -3.05 -2.92 13497
0.05 -0.01 -0.82 7.01 5.69 -2.85 -2.65 -3.42 13503
0.04 -0.00 -0.73 7.30 6.86 -2.87 -2.44 -3.83 13509
0.02 -0.00 -0.31 7.31 7.93 -2.93 -2.42 -4.11 13515
0.02 0.00 0.37 7.45 8.55 -3.03 -2.47 -4.25 13522
0.03 -0.00 0.71 7.32 8.82 -3.15 -2.55 -4.25 13529
0.03 -0.00 1.47 6.78 9.36 -3.32 -2.66 -4.15 13535
0.04 0.00 2.17 6.11 10.04 -3.49 -2.78 -3.98 13541
0.03 -0.00 3.57 5.41 10.85 -3.63 -2.95 -3.77 13547
0.02 -0.00 5.28 4.77 11.42 -3.76 -3.08 -3.53 13554
0.04 -0.00 6.90 3.98 12.08 -3.91 -3.17 -3.27 13560
0.02 -0.00 8.49 2.99 12.50 -4.06 -3.16 -3.03 13566
0.02 -0.00 9.93 2.06 12.94 -4.17 -3.05 -2.75 13573
0.04 -0.00 11.07 0.97 13.29 -4.24 -2.85 -2.45 13580
0.03 -0.00 11.65 -0.20 13.22 -4.27 -2.62 -2.14 13586
0.03 -0.00 12.06 -1.38 13.08 -4.28 -2.41 -1.81 13592
0.02 -0.00 12.42 -2.49 12.72 -4.27 -2.22 -1.47 13598
0.02 -0.00 12.92 -3.37 12.43 -4.24 -2.05 -1.13 13605
0.04 -0.00 13.43 -4.12 12.23 -4.17 -1.88 -0.80 13612
0.02 -0.00 13.91 -4.79 12.27 -4.05 -1.64 -0.49 13618
0.05 -0.01 14.21 -5.54 12.52 -3.89 -1.33 -0.20 13624
0.03 -0.00 14.39 -6.30 12.87 -3.69 -0.98 0.07 13631
0.02 0.00 14.23 -7.07 13.16 -3.48 -0.62 0.32 13637
0.03 -0.00 13.90 -7.85 13.22 -3.27 -0.30 0.57 13643
0.02 -0.00 13.34 -8.75 13.14 -3.05 -0.06 0.81 13650
0.03 -0.00 12.66 -9.47 12.79 -2.81 0.08 1.03 13657
0.03 -0.00 12.18 -9.96 12.55 -2.55 0.15 1.23 13663
0.02 -0.00 11.97 -10.29 12.29 -2.28 0.19 1.40 13669
0.02 -0.00 11.78 -10.27 12.11 -2.00 0.22 1.54 13676
0.02 0.00 11.61 -10.23 12.25 -1.73 0.30 1.65 13682
0.03 -0.00 11.44 -10.21 12.50 -1.48 0.39 1.72 13688
0.03 -0.00 11.10 -10.05 12.66 -1.26 0.48 1.71 13696
0.02 -0.00 10.60 -9.20 12.68 -1.09 0.58 1.72 13702
0.02 -0.00 10.20 -9.63 12.86 -0.96 0.68 1.64 13708
0.04 -0.00 10.02 -9.35 13.33 -0.86 0.78 1.60 13714
0.02 -0.00 10.07 -8.99 13.95 -0.81 0.90 1.52 13721
0.02 0.01 9.85 -8.79 14.32 -0.81 1.08 1.43 13727
0.02 -0.00 9.44 -8.76 14.39 -0.85 1.28 1.35 13733
0.02 -0.00 8.75 -8.85 14.30 -0.90 1.48 1.25 13740
0.03 0.00 8.20 -9.02 14.14 -0.95 1.65 1.14 13746
0.03 -0.00 7.55 -9.27 13.94 -0.98 1.77 1.04 13753
0.03 -0.00 6.71 -9.52 13.50 -1.00 1.86 0.92 13759
0.03 -0.00 5.86 -9.68 13.04 -1.00 1.92 0.81 13765
0.02 -0.00 4.99 -9.79 12.73 -0.98 1.93 0.70 13771
0.02 -0.00 4.41 -9.79 12.47 -0.95 1.92 0.59 13777
0.04 -0.00 3.78 -9.74 12.55 -0.92 1.91 0.49 13785
0.03 -0.00 3.55 -9.71 12.62 -0.89 1.93 0.41 13791
0.03 -0.00 3.50 -9.76 13.13 -0.86 2.00 0.35 13797
0.03 -0.00 3.44 -9.87 13.75 -0.85 2.11 0.30 13803
0.02 -0.00 3.19 -10.16 13.91 -0.89 2.28 0.26 13810
0.02 0.00 2.61 -10.44 13.95 -0.97 2.49 0.22 13816
0.03 -0.00 1.83 -10.66 13.47 -1.07 2.60 0.18 13822
0.02 -0.00 1.14 -10.84 12.90 -1.19 2.59 0.13 13829
0.03 -0.00 0.55 -11.03 12.22 -1.30 2.53 0.08 13836
0.02 -0.00 0.00 -11.27 11.61 -1.37 2.42 0.03 13842
0.03 0.01 -0.35 -11.45 10.93 -1.41 2.29 -0.01 13848
0.02 -0.00 -0.58 -11.70 10.62 -1.41 2.16 -0.06 13854
0.02 0.00 -0.84 -11.90 9.97 -1.38 2.06 -0.11 13861
0.02 -0.00 -1.35 -12.05 9.47 -1.31 1.97 -0.17 13868
0.02 -0.00 -1.94 -12.10 8.94 -1.21 1.90 -0.22 13874
0.02 0.01 -2.57 -12.03 8.55 -1.09 1.85 -0.24 13880
0.02 -0.00 -3.28 -11.85 8.32 -0.95 1.84 -0.20 13887
0.02 -0.00 -4.05 -11.58 8.26 -0.78 1.88 -0.17 13893
0.04 -0.00 -4.79 -11.39 8.43 -0.62 1.91 -0.06 13899
0.03 -0.00 -5.54 -11.41 8.60 -0.48 1.82 0.06 13905
0.02 -0.00 -6.12 -11.64 8.72 -0.37 1.60 0.14 13912
0.03 -0.00 -6.36 -12.09 8.85 -0.29 1.25 0.18 13919
0.03 -0.00 -6.11 -12.64 9.03 -0.25 0.81 0.20 13925
0.03 -0.00 -5.62 -12.95 8.85 -0.23 0.33 0.21 13931
0.03 -0.00 -5.02 -13.21 8.44 -0.18 -0.07 0.25 13937
0.02 -0.00 -4.35 -13.49 7.92 -0.12 -0.34 0.31 13943
0.02 0.01 -3.64 -13.62 7.41 0.05 -0.48 0.39 13950
0.02 -0.00 -4.24 -14.07 7.12 0.23 -0.59 0.49 13957
0.02 -0.00 -28.72 -13.43 25.57 1.25 -2.90 1.20 13963
0.03 -0.00 -10.34 -7.51 10.66 1.79 -4.16 2.17 13969
0.02 -0.00 0.75 0.56 4.31 1.53 -4.28 2.48 13976
0.02 -0.00 3.72 2.33 9.75 1.29 -4.28 2.50 13982
0.03 -0.00 6.08 0.97 14.91 1.36 -4.28 2.70 13988
0.03 -0.00 7.24 6.32 16.11 1.48 -4.02 3.06 13995
0.02 0.01 3.44 7.92 14.23 1.69 -2.15 3.41 14001
0.03 0.02 -1.13 5.97 7.52 1.71 -1.08 3.58 14008
0.03 0.09 -6.46 4.91 6.73 1.83 -0.93 3.35 14014
0.02 0.22 -10.78 1.54 11.74 2.11 -0.93 3.04 14020
0.01 0.35 -12.38 -0.85 10.67 2.38 -0.83 2.44 14026
-0.01 0.46 -15.19 -3.24 11.02 2.65 -0.75 1.80 14033
-0.00 0.51 -15.08 -2.19 15.66 2.84 -0.59 1.03 14040
-0.00 0.55 -12.29 -0.47 18.06 2.79 -0.56 0.13 14046
0.00 0.57 -4.94 -0.10 17.77 2.57 -0.76 -0.67 14053
0.00 0.60 3.30 -1.67 18.64 2.36 -0.83 -1.02 14059
0.01 0.56 7.25 -2.64 27.49 1.65 -1.88 -0.74 14065
-0.01 0.64 4.79 -2.89 11.12 0.54 -1.26 -0.03 14072
-0.00 0.59 1.63 -2.99 13.23 0.45 -0.79 0.17 14078
0.00 0.60 1.76 -2.02 10.13 0.34 -0.54 0.24 14085
0.01 0.56 1.00 -0.60 10.20 0.41 -0.84 0.23 14091
0.01 0.55 0.39 -0.33 11.04 0.34 -0.83 0.15 14098
0.01 0.52 0.43 -0.43 11.21 0.22 -0.64 0.07 14104
0.02 0.56 0.57 -0.63 10.46 0.11 -0.45 0.05 14110
0.02 0.56 0.78 -1.24 10.43 0.04 -0.31 0.04 14116
0.02 0.55 0.62 -1.17 10.43 0.01 -0.25 0.03 14124
0.03 0.60 0.45 -0.62 10.31 -0.01 -0.21 0.01 14130
0.02 0.60 0.54 -0.71 10.20 -0.02 -0.17 0.01 14136
0.03 0.64 0.41 -1.14 9.45 -0.01 -0.14 0.00 14142
0.03 0.64 0.83 -1.07 10.37 -0.00 -0.10 0.01 14148
0.04 0.63 0.46 -0.71 10.16 0.01 -0.08 0.03 14155
0.05 0.61 0.48 -0.73 10.22 0.02 -0.06 0.04 14161
0.05 0.54 0.59 -0.77 10.02 0.03 -0.05 0.06 14168
0.06 0.47 0.60 -0.75 10.04 0.03 -0.04 0.07 14174
0.07 0.44 0.73 -0.79 10.08 0.04 -0.05 0.07 14181
0.06 0.39 0.80 -0.77 9.99 0.03 -0.07 0.06 14187
0.07 0.35 0.91 -0.83 10.02 0.02 -0.08 0.06 14193
0.09 0.27 0.80 -0.79 10.02 0.01 -0.11 0.05 14199
0.07 0.28 0.83 -0.81 10.00 0.00 -0.13 0.03 14205
0.09 0.27 0.75 -0.80 10.05 -0.01 -0.15 0.02 14213
0.09 0.18 0.88 -0.77 9.98 -0.00 -0.16 0.01 14219
0.09 0.17 0.68 -0.73 10.17 -0.02 -0.15 -0.00 14225
0.11 0.20 0.72 -0.78 10.08 -0.01 -0.14 -0.00 14231
0.12 0.16 0.61 -0.78 10.06 -0.00 -0.12 0.00 14238
0.17 0.14 0.53 -0.78 10.13 0.01 -0.09 0.01 14244
0.17 0.12 0.59 -0.82 10.14 0.02 -0.07 0.02 14251
0.17 0.09 0.56 -0.84 10.05 0.02 -0.06 0.03 14257
0.21 0.09 0.60 -0.80 10.10 0.03 -0.04 0.03 14264
0.23 0.09 0.59 -0.81 9.98 0.03 -0.03 0.04 14270
0.23 0.06 0.63 -0.84 10.03 0.03 -0.03 0.03 14276
0.27 0.05 0.66 -0.81 10.00 0.03 -0.02 0.03 14282
0.25 0.01 0.69 -0.85 10.04 0.03 -0.02 0.03 14288
0.24 0.01 0.69 -0.85 10.06 0.03 -0.01 0.03 14296
0.27 0.01 0.65 -0.82 10.03 0.03 -0.01 0.03 14302
0.25 -0.02 0.65 -0.82 10.04 0.03 -0.00 0.03 14308
0.26 0.02 0.68 -0.83 9.95 0.02 0.00 0.03 14314
0.28 0.00 0.68 -0.87 9.97 0.03 0.01 0.03 14320
0.28 -0.02 0.64 -0.82 9.98 0.03 0.01 0.03 14327
0.26 -0.00 0.67 -0.83 10.00 0.03 0.02 0.03 14333
0.27 -0.01 0.67 -0.81 10.06 0.03 0.02 0.03 14340
0.25 -0.01 0.71 -0.84 10.04 0.03 0.03 0.03 14346
0.27 -0.01 0.70 -0.85 9.98 0.03 0.03 0.03 14352
0.27 -0.02 0.66 -0.81 9.98 0.03 0.04 0.03 14359
0.25 -0.03 0.75 -0.83 9.94 0.03 0.04 0.03 14365
0.25 -0.01 0.72 -0.76 9.96 0.02 0.04 0.03 14371
0.24 -0.01 0.73 -0.87 10.01 0.02 0.04 0.03 14377
0.24 -0.02 0.75 -0.86 10.00 0.02 0.04 0.03 14384
0.26 0.00 0.75 -0.86 10.01 0.02 0.04 0.03 14390
0.28 -0.01 0.77 -0.89 9.98 0.02 0.04 0.03 14397
0.28 -0.02 0.73 -0.85 10.06 0.02 0.04 0.03 14403
0.28 -0.01 0.75 -0.86 10.00 0.02 0.04 0.03 14409
0.29 -0.02 0.79 -0.85 10.06 0.02 0.05 0.02 14415
0.29 -0.02 0.74 -0.87 10.00 0.02 0.05 0.03 14422
0.33 -0.03 0.75 -0.87 10.05 0.02 0.05 0.03 14429
0.31 -0.03 0.83 -0.91 10.02 0.02 0.05 0.03 14435
0.31 -0.03 0.80 -0.85 10.05 0.02 0.05 0.03 14441
0.31 -0.03 0.70 -0.88 10.02 0.02 0.05 0.03 14447
0.31 -0.03 0.79 -0.90 10.03 0.03 0.05 0.04 14454
0.32 -0.03 0.73 -0.87 10.02 0.03 0.05 0.04 14460
0.32 -0.03 0.77 -0.91 9.99 0.03 0.05 0.04 14467
0.30 -0.03 0.79 -0.93 10.01 0.03 0.05 0.04 14473
0.29 -0.01 0.85 -0.92 10.02 0.03 0.05 0.04 14479
0.32 -0.03 0.79 -0.96 10.02 0.03 0.04 0.04 14486
0.29 -0.02 0.85 -0.92 10.00 0.02 0.04 0.04 14492
0.31 -0.02 0.87 -0.93 9.97 0.02 0.04 0.03 14498
0.31 -0.02 0.86 -0.91 9.94 0.01 0.03 0.03 14504
0.29 -0.02 0.84 -0.93 9.97 0.01 0.03 0.03 14511
0.27 -0.01 0.82 -0.91 9.97 0.00 0.02 0.03 14517
0.29 -0.02 0.88 -0.92 9.95 0.00 0.02 0.03 14524
0.26 -0.03 0.86 -0.92 9.98 0.00 0.01 0.03 14530
0.26 -0.02 0.89 -0.91 9.99 -0.00 0.01 0.02 14536
0.28 -0.02 0.93 -0.92 9.96 0.00 0.01 0.02 14542
0.25 -0.03 0.90 -0.95 10.04 0.00 0.01 0.02 14548
0.25 -0.02 0.91 -0.93 10.00 0.00 0.01 0.02 14555
0.27 -0.02 0.87 -0.95 9.98 0.00 0.01 0.02 14562
0.25 -0.03 0.91 -0.93 9.98 -0.00 0.01 0.01 14568
0.26 -0.02 0.85 -0.93 10.02 0.00 0.01 0.01 14574
0.29 -0.02 0.92 -0.95 10.00 0.00 0.01 0.01 14580
0.28 -0.02 0.86 -0.92 9.95 0.01 0.00 0.00 14586
0.28 -0.01 0.92 -0.97 9.97 0.01 -0.01 0.00 14593
0.29 -0.01 0.95 -0.96 10.02 0.02 -0.02 -0.00 14600
0.29 -0.03 0.96 -1.00 9.97 0.03 -0.07 -0.02 14606
0.29 -0.02 1.00 -1.00 9.96 0.04 -0.04 -0.02 14612
0.31 -0.02 0.97 -1.03 10.01 0.04 -0.04 -0.03 14618
0.30 -0.02 0.99 -1.02 9.98 0.05 -0.04 -0.04 14624
0.30 -0.02 0.92 -0.95 10.02 0.06 -0.03 -0.05 14631
0.34 -0.01 1.00 -1.01 10.02 0.08 -0.03 -0.06 14638
0.36 -0.03 1.00 -0.99 10.16 0.11 -0.02 -0.06 14644
0.39 -0.02 1.07 -1.06 10.11 0.16 -0.00 -0.07 14650
0.45 -0.03 1.03 -1.04 10.18 0.21 0.01 -0.09 14657
0.47 -0.03 0.89 -1.00 10.28 0.29 0.02 -0.09 14663
0.53 -0.03 1.03 -1.06 10.37 0.38 0.06 -0.09 14669
0.50 -0.05 1.02 -1.15 10.55 0.50 0.10 -0.10 14675
0.52 -0.02 1.02 -1.20 10.57 0.62 0.13 -0.11 14683
0.53 -0.03 0.90 -1.20 10.80 0.76 0.17 -0.12 14689
0.55 -0.03 1.13 -1.40 10.69 0.91 0.19 -0.13 14695
0.60 -0.04 1.16 -1.48 10.87 1.04 0.19 -0.14 14701
0.62 -0.04 1.22 -1.64 11.61 1.15 0.20 -0.16 14708
0.68 -0.03 1.07 -1.52 10.89 1.25 0.21 -0.17 14714
0.66 -0.04 1.09 -1.55 11.19 1.33 0.22 -0.18 14721
0.65 -0.03 1.52 -1.65 11.35 1.40 0.27 -0.20 14727
0.72 -0.04 1.12 -1.77 11.14 1.50 0.31 -0.19 14734
0.65 -0.04 0.97 -1.81 11.29 1.62 0.38 -0.18 14740
0.64 -0.04 1.04 -1.98 10.98 1.72 0.52 -0.17 14746
0.57 -0.04 1.43 -2.20 11.64 1.84 0.71 -0.18 14753
0.54 -0.02 1.45 -2.36 12.11 1.99 0.91 -0.20 14759
0.43 -0.03 1.16 -2.51 12.61 2.15 1.08 -0.20 14766
0.33 -0.02 1.06 -2.70 12.84 2.32 1.30 -0.17 14772
0.27 -0.01 0.68 -2.75 13.04 2.50 1.55 -0.13 14779
0.18 -0.02 1.08 -3.01 13.43 2.67 1.88 -0.07 14785
0.13 0.00 0.87 -3.14 13.53 2.81 2.27 0.00 14791
0.11 -0.00 -0.03 -3.51 14.00 2.95 2.63 0.11 14797
0.08 0.00 1.30 -4.20 15.28 3.12 2.96 0.22 14804
0.09 -0.00 1.47 -4.28 16.67 3.36 3.32 0.29 14811
0.07 -0.01 3.72 -5.02 18.65 3.58 3.90 0.34 14817
0.06 -0.00 4.12 -5.46 19.85 3.74 4.28 0.37 14823
0.08 -0.01 4.58 -6.30 22.19 3.90 4.28 0.44 14830
0.05 -0.01 6.92 -6.93 23.21 4.06 4.28 0.53 14836
0.07 0.00 9.23 -7.26 23.41 4.13 4.28 0.62 14842
0.07 0.00 11.06 -7.58 24.30 4.09 4.28 0.72 14849
0.06 -0.01 9.80 -6.63 27.23 3.93 4.28 0.68 14855
0.07 -0.01 7.11 -5.92 26.12 3.80 4.28 0.38 14862
0.05 -0.00 -1.46 -4.72 24.15 3.82 4.28 -0.03 14868
0.04 0.02 -4.84 -2.49 20.62 4.02 4.28 -0.40 14874
0.04 -0.00 -5.26 -0.77 17.40 4.16 4.28 -0.62 14880
0.04 0.01 -6.01 1.83 12.97 4.18 4.28 -0.80 14887
0.06 -0.00 -3.71 4.06 13.34 3.99 3.90 -0.93 14894
0.04 -0.00 -4.15 6.26 12.99 3.54 2.48 -0.88 14900
0.04 0.01 -3.47 10.91 14.88 3.00 1.01 -0.79 14906
0.03 -0.00 -11.52 15.48 4.75 2.54 -0.29 -1.04 14913
0.01 -0.00 -8.74 11.85 25.52 1.17 -2.47 -1.25 14919
0.05 -0.00 -1.61 13.72 17.18 -1.15 -3.30 -1.08 14925
0.04 -0.00 2.23 11.58 17.32 -2.20 -4.01 -1.01 14931
0.03 0.00 1.14 8.12 17.45 -2.63 -4.04 -1.24 14939
0.03 -0.00 0.37 6.24 13.72 -2.87 -3.49 -1.83 14945
0.04 -0.00 0.04 5.92 9.82 -2.89 -3.04 -2.49 14951
0.04 -0.00 0.01 5.73 6.93 -2.86 -2.71 -3.00 14957
0.05 -0.01 -0.15 6.08 6.31 -2.85 -2.43 -3.45 14963
0.04 -0.00 -0.47 6.22 6.44 -2.88 -2.25 -3.76 14970
0.02 -0.00 -0.41 6.36 7.07 -2.94 -2.19 -3.98 14977
0.02 -0.00 -0.02 6.40 7.80 -3.06 -2.26 -4.09 14983
0.01 -0.00 0.45 6.50 8.47 -3.16 -2.42 -4.06 14989
0.03 -0.00 0.91 6.42 9.08 -3.33 -2.62 -3.91 14995
0.06 -0.01 1.56 6.19 9.82 -3.52 -2.79 -3.66 15001
0.05 -0.00 2.64 5.83 10.34 -3.71 -3.04 -3.37 15008
0.03 -0.00 4.01 5.27 10.24 -3.90 -3.28 -3.00 15014
0.04 -0.00 5.66 4.68 10.38 -4.07 -3.47 -2.74 15021
0.03 -0.00 7.19 3.86 9.82 -4.17 -3.52 -2.45 15027
0.03 -0.00 8.61 2.90 10.43 -4.22 -3.39 -2.21 15033
0.04 -0.00 9.62 1.77 10.36 -4.25 -3.15 -2.00 15040
0.04 -0.00 10.26 0.77 10.28 -4.26 -2.86 -1.83 15046
0.04 -0.00 10.79 -0.03 10.26 -4.26 -2.56 -1.66 15052
0.03 -0.00 11.02 -0.77 10.30 -4.25 -2.28 -1.49 15058
0.02 -0.00 11.23 -1.41 10.25 -4.22 -2.04 -1.31 15066
0.02 -0.00 11.47 -2.15 10.49 -4.17 -1.85 -1.12 15072
0.01 -0.00 11.75 -2.83 10.72 -4.09 -1.70 -0.93 15078
0.04 -0.00 12.13 -3.44 11.25 -3.98 -1.58 -0.75 15084
0.02 -0.00 12.66 -4.03 12.16 -3.82 -1.45 -0.57 15091
0.02 0.01 13.13 -4.78 13.14 -3.69 -1.27 -0.41 15097
0.03 -0.00 13.38 -5.58 13.53 -3.57 -1.05 -0.25 15104
0.02 -0.00 13.50 -6.48 14.06 -3.45 -0.81 -0.11 15111
0.03 -0.00 13.51 -7.59 14.48 -3.33 -0.53 0.02 15117
0.02 -0.00 13.36 -8.59 14.86 -3.19 -0.26 0.15 15123
0.02 -0.00 13.02 -9.24 14.92 -3.03 -0.03 0.30 15129
0.02 -0.00 12.60 -9.75 14.68 -2.84 0.18 0.48 15136
0.03 -0.00 12.31 -10.06 14.11 -2.63 0.35 0.66 15142
0.03 -0.00 11.82 -10.60 13.74 -2.40 0.50 0.83 15149
0.02 -0.00 11.36 -11.11 13.47 -2.14 0.62 0.98 15155
0.04 -0.00 10.88 -11.29 13.29 -1.85 0.72 1.08 15162
0.01 -0.00 10.73 -11.17 13.51 -1.58 0.86 1.15 15168
0.03 -0.00 10.71 -11.07 14.07 -1.36 1.04 1.20 15174
0.02 -0.00 10.78 -10.90 15.09 -1.18 1.26 1.22 15181
0.02 -0.00 10.72 -10.51 16.09 -1.10 1.51 1.23 15187
0.03 -0.00 10.25 -10.15 17.12 -1.12 1.80 1.24 15194
0.03 0.01 9.58 -10.05 16.77 -1.20 2.08 1.25 15201
0.04 -0.00 8.58 -10.16 16.64 -1.31 2.29 1.26 15207
0.03 -0.00 7.44 -10.45 16.07 -1.40 2.42 1.27 15213
0.02 -0.00 6.19 -10.72 15.18 -1.46 2.43 1.27 15219
0.02 -0.00 5.05 -11.18 14.22 -1.47 2.35 1.26 15226
0.04 -0.00 4.13 -11.46 13.29 -1.43 2.20 1.22 15233
0.02 -0.00 3.42 -11.64 12.53 -1.36 2.01 1.15 15239
0.03 0.00 2.88 -11.68 11.86 -1.24 1.81 1.06 15246
0.03 -0.00 2.50 -11.50 11.41 -1.10 1.65 0.96 15252
0.03 -0.00 2.22 -11.33 11.07 -0.95 1.52 0.86 15258
0.04 -0.00 1.96 -11.07 10.81 -0.80 1.42 0.76 15264
0.03 -0.00 1.70 -10.82 10.81 -0.65 1.36 0.66 15271
0.03 0.00 1.52 -10.67 10.96 -0.52 1.32 0.54 15278
0.03 -0.00 1.48 -10.46 11.08 -0.42 1.33 0.49 15284
0.02 -0.00 1.32 -10.14 11.23 -0.34 1.36 0.42 15290
0.04 -0.00 1.38 -9.74 11.65 -0.29 1.45 0.35 15297
0.03 -0.00 1.64 -9.45 12.07 -0.30 1.62 0.29 15303
0.02 0.00 1.83 -9.10 12.22 -0.35 1.89 0.24 15309
0.03 -0.00 1.54 -8.83 12.15 -0.47 2.19 0.20 15315
0.02 -0.00 0.71 -8.54 12.03 -0.61 2.46 0.19 15322
0.04 0.00 -0.64 -8.30 11.70 -0.76 2.61 0.20 15329
0.03 -0.00 -2.49 -8.11 10.90 -0.86 2.70 0.26 15335
0.02 -0.00 -4.26 -8.09 10.28 -0.89 2.75 0.40 15341
0.04 -0.00 -5.72 -8.22 10.01 -0.85 2.63 0.56 15347
0.02 -0.00 -6.74 -8.52 9.64 -0.74 2.24 0.68 15353
0.03 -0.00 -7.45 -8.94 9.25 -0.68 1.63 0.73 15361
0.03 -0.00 -7.59 -9.15 8.69 -0.57 0.99 0.73 15367
0.03 -0.00 -7.05 -9.38 8.25 -0.46 0.55 0.71 15373
0.02 -0.00 -6.27 -9.72 7.85 -0.34 0.20 0.64 15379
0.03 0.01 -5.50 -10.27 7.86 -0.21 0.02 0.60 15385
0.03 -0.00 -4.87 -10.78 8.54 -0.09 -0.05 0.51 15391
0.01 -0.00 -4.49 -11.06 8.05 0.01 -0.04 0.37 15398
