Voltage_01 Voltage_02 Acc_x Acc_y Acc_z Gyro_x Gyro_y Gyro_z Time
5000
0.05 -0.00 4.47 11.57 19.85 -2.77 1.16 -1.49 23
0.04 -0.00 2.74 11.39 13.87 -3.25 1.01 -1.30 29
0.05 -0.00 2.15 10.39 10.92 -3.57 0.74 -1.08 35
0.05 -0.01 2.75 9.01 8.74 -3.89 0.53 -0.91 41
0.05 -0.01 3.18 7.64 7.55 -4.02 0.38 -0.82 48
0.06 -0.01 3.63 6.14 6.97 -4.02 0.27 -0.74 54
0.05 -0.00 3.64 4.88 7.14 -3.97 0.22 -0.66 60
0.05 -0.00 3.69 3.94 7.47 -3.89 0.25 -0.58 66
0.05 -0.01 4.15 3.39 7.65 -3.81 0.32 -0.52 72
0.05 -0.01 4.53 3.12 7.79 -3.78 0.42 -0.46 78
0.06 -0.01 4.54 3.19 7.96 -3.84 0.54 -0.41 84
0.07 -0.00 4.56 3.26 8.52 -3.89 0.70 -0.34 91
0.07 -0.01 4.61 3.08 9.32 -4.02 0.81 -0.24 97
0.06 -0.01 4.38 2.72 9.99 -4.14 0.93 -0.18 103
0.07 -0.01 3.89 2.26 10.47 -4.23 1.03 -0.06 109
0.05 -0.01 3.58 1.71 11.28 -4.27 1.11 0.07 115
0.06 -0.01 3.34 1.03 11.85 -4.28 1.20 0.21 122
0.06 -0.01 3.10 0.44 12.30 -4.28 1.22 0.34 129
0.05 -0.01 2.87 -0.32 12.53 -4.28 1.25 0.44 135
0.04 -0.00 2.73 -0.99 12.97 -4.28 1.27 0.52 141
0.04 -0.00 2.68 -1.65 13.40 -4.28 1.30 0.57 147
0.04 -0.00 2.62 -2.32 13.66 -4.28 1.38 0.60 153
0.04 -0.00 2.68 -3.07 13.80 -4.28 1.50 0.60 159
0.04 -0.00 2.65 -3.73 14.03 -4.28 1.60 0.57 165
0.04 0.00 2.57 -4.62 15.23 -4.28 1.75 0.54 172
0.04 -0.00 2.28 -5.30 15.51 -4.28 1.91 0.50 179
0.04 -0.00 1.76 -5.86 16.06 -4.28 2.11 0.45 185
0.03 -0.00 1.16 -6.25 16.40 -4.26 2.29 0.40 191
0.04 -0.00 0.66 -6.59 16.75 -4.22 2.43 0.36 197
0.04 -0.00 0.27 -6.87 17.26 -4.16 2.49 0.33 203
0.04 -0.00 -0.13 -7.16 17.61 -4.09 2.51 0.32 209
0.04 -0.00 -0.57 -7.45 18.08 -3.99 2.47 0.33 216
0.04 -0.00 -0.91 -7.72 18.33 -3.82 2.36 0.37 222
0.04 -0.00 -1.16 -7.77 18.64 -3.66 2.20 0.43 228
0.04 -0.00 -1.30 -7.66 18.99 -3.53 1.99 0.50 234
0.03 -0.00 -1.31 -7.58 19.39 -3.39 1.79 0.58 241
0.05 -0.00 -1.24 -7.57 19.90 -3.30 1.61 0.65 247
0.04 -0.00 -1.15 -7.83 20.10 -3.24 1.43 0.71 253
0.04 -0.00 -0.83 -8.37 20.25 -3.20 1.26 0.77 260
0.04 -0.00 -0.95 -8.97 20.38 -3.18 1.08 0.81 266
0.04 0.00 -0.97 -9.74 20.53 -3.16 0.94 0.87 272
0.04 0.00 -0.90 -10.50 20.41 -3.13 0.81 0.93 278
0.03 -0.00 -0.77 -11.45 20.15 -3.07 0.70 0.99 285
0.04 0.01 -0.54 -12.41 19.94 -3.01 0.63 1.06 291
0.04 0.00 -0.13 -13.22 19.62 -2.95 0.60 1.12 297
0.03 -0.00 -1.01 -21.26 23.14 -2.80 0.60 1.23 304
0.04 0.01 1.14 -16.48 12.48 -2.21 0.82 1.30 310
0.04 -0.00 0.57 -11.81 11.62 -2.57 0.97 1.34 316
0.03 -0.00 -0.69 -16.66 16.00 -2.83 1.35 1.41 323
0.04 0.01 -0.89 -16.32 17.52 -2.81 1.84 1.55 329
0.04 -0.00 -4.82 -23.88 22.71 -2.63 2.09 1.63 335
0.04 -0.00 -3.14 -20.52 7.12 -2.54 2.30 1.66 342
0.04 0.00 -4.26 -21.15 2.51 -2.43 2.09 1.63 348
0.04 0.00 -6.60 -24.66 8.36 -2.21 1.70 1.60 354
0.04 -0.00 -6.95 -25.14 4.44 -1.92 1.40 1.55 360
0.04 0.00 -7.78 -26.14 6.58 -1.38 0.94 1.43 367
0.05 -0.00 -7.02 -28.91 9.32 -0.89 0.52 1.32 373
0.04 -0.00 -5.55 -27.79 4.12 -0.38 0.23 1.14 379
0.04 -0.00 -6.67 -31.03 6.11 0.23 -0.11 0.97 386
0.04 -0.00 -5.66 -31.05 5.07 0.92 -0.38 0.81 392
0.05 -0.00 -4.78 -27.77 1.40 1.44 -0.62 0.69 398
0.04 0.00 -5.50 -29.24 3.75 1.87 -0.87 0.58 404
0.03 -0.00 -6.23 -30.05 3.62 2.35 -1.36 0.59 410
0.04 0.07 -6.75 -30.33 -0.10 2.51 -1.94 0.68 417
0.04 0.18 -5.76 -20.55 -2.17 2.86 -2.55 0.84 423
0.02 0.28 -0.09 0.76 5.14 3.61 -2.35 0.88 430
0.02 0.46 0.36 -4.50 16.72 4.27 -1.53 1.00 436
0.03 0.67 0.90 2.63 26.32 4.28 -1.07 1.13 442
-0.00 0.95 -4.54 -1.65 26.57 4.28 -1.15 1.04 448
-0.00 1.03 -7.53 -4.13 24.02 4.23 -1.44 0.70 455
0.00 1.11 -4.51 -4.89 19.62 4.02 -1.37 0.37 461
-0.01 1.15 -3.42 -6.09 20.55 4.00 -1.02 0.16 467
0.00 1.12 -3.88 -4.29 22.69 4.00 -0.62 -0.13 474
0.02 1.14 1.35 -5.18 44.76 2.99 -1.43 -0.40 480
0.02 1.16 2.70 -2.34 12.84 0.26 -0.82 -0.10 486
0.00 1.19 1.04 -3.57 11.98 0.01 -0.27 0.07 493
0.01 1.23 0.53 -2.01 11.06 -0.02 -0.14 0.12 499
0.03 1.19 0.21 -0.44 10.12 0.01 -0.09 0.12 505
0.02 1.21 0.21 -0.56 10.07 0.01 -0.06 0.09 512
0.01 1.19 1.19 -0.97 9.89 -0.03 -0.03 0.07 518
0.04 1.21 0.98 -1.23 10.06 -0.04 -0.03 0.08 524
0.04 1.20 0.81 -1.06 10.18 -0.04 -0.05 0.09 530
0.04 1.24 0.60 -0.73 10.14 -0.04 -0.05 0.08 537
0.05 1.25 0.58 -0.83 9.97 -0.03 -0.04 0.07 543
0.07 1.24 0.68 -0.85 10.00 -0.03 -0.04 0.07 549
0.05 1.24 0.70 -0.83 9.97 -0.04 -0.05 0.06 556
0.05 1.23 0.69 -0.77 9.94 -0.04 -0.05 0.06 562
0.07 1.22 0.61 -0.74 10.06 -0.03 -0.05 0.06 568
0.08 1.18 0.63 -0.79 10.04 -0.03 -0.04 0.06 574
0.07 1.16 0.64 -0.74 10.05 -0.02 -0.02 0.05 580
0.12 1.14 0.61 -0.83 10.06 -0.01 -0.02 0.06 587
0.13 1.11 0.66 -0.75 10.06 -0.00 -0.01 0.06 593
0.13 1.02 0.73 -0.78 10.03 0.00 -0.01 0.06 600
0.12 0.98 0.68 -0.87 10.04 0.01 -0.01 0.06 606
0.14 0.89 0.72 -0.73 10.01 0.01 -0.01 0.06 612
0.17 0.86 0.66 -0.69 10.00 0.01 -0.01 0.06 618
0.19 0.78 0.75 -0.74 10.04 0.02 -0.01 0.06 624
0.19 0.74 0.71 -0.74 10.05 0.02 -0.01 0.05 630
0.20 0.65 -0.13 -0.11 9.94 0.02 -0.00 0.06 637
0.21 0.62 0.73 -0.77 9.98 0.03 -0.01 0.05 644
0.22 0.51 0.78 -0.78 10.01 0.04 -0.01 0.05 650
0.23 0.45 0.75 -0.76 10.02 0.04 -0.02 0.04 656
0.25 0.42 0.80 -0.76 10.00 0.04 -0.02 0.04 662
0.22 0.36 0.77 -0.81 9.99 0.04 -0.03 0.03 668
0.26 0.29 0.80 -0.75 9.98 0.04 -0.04 0.03 674
0.27 0.27 0.75 -0.79 10.00 0.04 -0.05 0.03 680
0.28 0.29 0.71 -0.79 10.03 0.04 -0.05 0.03 687
0.29 0.19 0.73 -0.84 10.09 0.05 -0.05 0.02 694
0.28 0.14 0.68 -0.82 10.07 0.05 -0.05 0.03 700
0.30 0.15 0.68 -0.87 10.10 0.05 -0.04 0.03 706
0.38 0.10 0.68 -0.83 10.04 0.06 -0.04 0.03 712
0.40 0.09 0.70 -0.87 10.04 0.06 -0.04 0.03 718
0.42 0.04 0.74 -0.82 10.07 0.07 -0.04 0.02 724
0.44 0.03 0.72 -0.87 10.06 0.07 -0.04 0.02 731
0.46 0.03 0.74 -0.56 9.88 0.08 -0.04 0.02 737
0.47 0.02 0.79 -1.22 9.97 0.09 -0.04 0.02 743
0.54 0.00 0.78 -0.71 10.08 0.10 -0.04 0.01 750
0.57 -0.02 0.81 -0.92 10.06 0.11 -0.04 0.01 756
0.63 -0.02 0.75 -0.93 10.01 0.12 -0.04 0.00 762
0.69 -0.03 0.78 -0.94 10.06 0.14 -0.04 -0.01 769
0.70 -0.04 0.79 -0.92 10.05 0.14 -0.04 -0.02 775
0.76 -0.04 0.76 -0.97 9.99 0.15 -0.04 -0.02 781
0.80 -0.05 0.74 -0.97 10.08 0.16 -0.03 -0.03 787
0.80 -0.05 0.74 -1.00 9.96 0.16 -0.03 -0.03 793
0.83 -0.05 0.70 -1.07 10.02 0.17 -0.03 -0.03 800
0.88 -0.04 0.70 -1.02 10.00 0.17 -0.03 -0.03 806
0.92 -0.05 0.78 -1.04 10.12 0.18 -0.03 -0.03 813
0.95 -0.05 0.81 -1.10 10.09 0.21 -0.03 -0.03 819
0.99 -0.04 0.87 -1.15 10.20 0.23 -0.03 -0.04 825
1.04 -0.05 0.87 -1.16 10.27 0.27 -0.03 -0.05 831
1.04 -0.06 0.87 -1.18 10.37 0.33 -0.05 -0.06 837
1.07 -0.05 0.86 -1.18 10.37 0.40 -0.06 -0.07 844
1.15 -0.06 0.90 -1.31 10.44 0.49 -0.07 -0.09 850
1.19 -0.07 0.82 -1.34 10.50 0.57 -0.08 -0.10 857
1.22 -0.06 0.82 -1.31 10.52 0.63 -0.09 -0.11 863
1.28 -0.07 0.81 -1.36 10.43 0.69 -0.10 -0.11 869
1.31 -0.06 0.68 -1.44 10.42 0.74 -0.10 -0.11 875
1.37 -0.07 0.72 -1.46 10.46 0.80 -0.11 -0.11 882
1.45 -0.06 0.82 -1.56 10.72 0.82 -0.12 -0.10 888
1.49 -0.07 0.96 -1.62 11.13 0.90 -0.14 -0.11 894
1.52 -0.07 1.04 -1.77 11.32 1.00 -0.16 -0.13 901
1.62 -0.06 0.96 -1.81 11.41 1.10 -0.20 -0.15 907
1.67 -0.07 0.93 -1.87 11.30 1.22 -0.23 -0.17 913
1.71 -0.06 0.94 -1.99 11.76 1.34 -0.26 -0.18 920
1.75 -0.05 0.75 -1.90 12.06 1.47 -0.32 -0.19 926
1.81 -0.06 0.77 -2.02 12.40 1.63 -0.38 -0.19 932
1.83 -0.07 0.63 -2.27 12.35 1.80 -0.42 -0.18 939
1.87 -0.06 0.57 -2.27 12.64 2.00 -0.44 -0.15 945
1.90 -0.06 0.58 -2.29 13.10 2.20 -0.48 -0.14 952
1.94 -0.07 0.05 -2.58 13.12 2.38 -0.47 -0.13 958
1.94 -0.06 1.22 -2.64 13.57 2.58 -0.48 -0.15 964
1.96 -0.07 0.73 -2.61 13.62 2.81 -0.48 -0.17 970
1.95 -0.08 0.78 -2.89 13.82 3.05 -0.41 -0.19 976
1.94 -0.07 0.65 -2.84 14.70 3.34 -0.44 -0.21 983
1.94 -0.06 0.90 -3.03 14.14 3.64 -0.43 -0.24 990
1.82 -0.07 1.22 -3.27 14.18 3.94 -0.46 -0.29 996
1.76 -0.06 0.88 -3.25 14.74 4.19 -0.45 -0.35 1002
1.62 -0.06 0.55 -3.62 15.96 4.28 -0.46 -0.39 1008
1.48 -0.06 0.40 -3.89 18.18 4.28 -0.54 -0.39 1014
1.33 -0.06 1.68 -5.17 19.86 4.28 -0.64 -0.42 1021
1.11 -0.06 2.70 -6.36 21.49 4.28 -0.81 -0.53 1028
0.99 -0.05 2.70 -8.85 24.90 4.28 -1.00 -0.68 1034
0.85 -0.04 2.58 -13.20 30.67 4.28 -1.16 -0.77 1040
0.70 -0.04 3.45 -16.03 33.65 4.28 -1.03 -0.80 1047
0.60 -0.02 4.85 -16.57 32.88 4.28 -0.64 -0.80 1053
0.45 -0.02 3.66 -14.42 29.40 4.28 -0.33 -0.86 1059
0.40 -0.02 2.72 -11.09 28.23 4.28 -0.02 -0.93 1067
0.27 -0.01 1.30 -7.25 29.75 4.28 0.10 -0.99 1073
0.18 -0.01 0.80 -4.85 33.84 4.28 -0.15 -1.07 1079
0.17 -0.01 2.14 -3.15 33.95 4.28 -0.69 -1.16 1085
0.16 -0.02 5.52 0.39 33.92 4.28 -1.33 -1.27 1091
0.11 -0.01 8.32 4.41 33.92 4.28 -1.71 -1.30 1098
0.11 -0.01 9.67 11.21 29.69 4.28 -1.57 -1.23 1104
0.08 -0.01 11.85 18.59 22.71 4.28 -1.10 -1.34 1111
0.05 -0.00 9.24 20.09 6.30 4.15 -0.42 -1.79 1117
0.06 0.01 11.00 27.39 -4.05 2.95 -0.49 -2.32 1124
0.04 -0.00 9.43 21.69 24.88 1.17 0.16 -2.47 1130
0.07 -0.01 10.12 14.89 31.32 -0.78 1.21 -2.31 1136
0.05 -0.01 6.85 13.21 22.36 -2.12 1.61 -2.11 1142
0.07 -0.01 4.35 13.45 15.37 -2.80 1.44 -1.85 1149
0.06 -0.00 2.17 12.28 11.39 -3.30 1.03 -1.53 1156
0.05 -0.00 2.47 11.24 9.78 -3.75 0.71 -1.26 1162
0.06 -0.00 3.16 9.51 8.28 -3.99 0.49 -1.03 1168
0.05 -0.01 3.71 7.79 7.67 -4.05 0.36 -0.87 1174
0.05 -0.01 3.68 6.42 7.78 -4.05 0.33 -0.70 1180
0.05 -0.00 3.65 5.50 7.95 -4.05 0.39 -0.53 1186
0.06 -0.01 4.03 4.83 7.88 -4.04 0.51 -0.38 1193
0.05 -0.00 4.31 4.40 7.90 -4.07 0.60 -0.27 1200
0.05 -0.01 4.23 4.12 8.09 -4.12 0.71 -0.19 1206
0.05 -0.00 3.99 3.88 8.32 -4.19 0.82 -0.10 1212
0.07 -0.01 3.86 3.58 8.74 -4.24 0.92 0.00 1218
0.07 -0.01 3.57 3.22 9.20 -4.27 1.00 0.11 1224
0.06 -0.01 3.26 2.83 9.69 -4.28 1.06 0.23 1230
0.06 -0.00 2.98 2.28 10.26 -4.28 1.12 0.34 1236
0.07 -0.01 2.74 1.68 11.12 -4.28 1.18 0.45 1244
0.07 -0.01 2.51 1.21 11.86 -4.28 1.26 0.54 1250
0.06 -0.01 2.41 0.70 12.33 -4.28 1.34 0.63 1256
0.07 -0.01 2.37 0.15 12.79 -4.28 1.43 0.64 1262
0.07 -0.01 2.28 -0.37 13.17 -4.28 1.51 0.66 1268
0.06 -0.01 2.10 -0.96 13.70 -4.28 1.62 0.65 1274
0.07 0.00 1.94 -1.57 14.25 -4.28 1.74 0.61 1282
0.07 -0.01 1.88 -2.33 15.13 -4.28 1.87 0.56 1288
0.06 -0.01 1.60 -3.14 16.14 -4.28 2.01 0.48 1294
0.07 0.01 1.03 -3.88 17.15 -4.28 2.15 0.38 1300
0.06 -0.00 0.48 -4.59 17.60 -4.28 2.31 0.28 1306
0.04 -0.00 0.00 -5.04 17.92 -4.28 2.47 0.17 1312
0.05 0.01 -0.54 -5.29 18.21 -4.28 2.54 0.07 1319
0.04 0.00 -1.12 -5.64 18.48 -4.27 2.58 0.00 1326
0.03 -0.00 -1.59 -6.07 18.79 -4.23 2.57 -0.04 1332
0.05 0.00 -2.03 -6.42 18.82 -4.14 2.49 -0.04 1338
0.04 0.00 -2.25 -6.58 18.81 -3.98 2.35 -0.01 1344
0.03 -0.00 -2.26 -6.56 19.23 -3.75 2.17 0.05 1351
0.04 0.00 -2.06 -6.43 19.77 -3.54 1.97 0.15 1357
0.03 0.00 -1.91 -6.26 20.46 -3.38 1.77 0.26 1363
0.04 -0.00 -1.69 -6.56 21.90 -3.27 1.61 0.38 1370
0.05 0.00 -1.34 -7.22 22.86 -3.18 1.50 0.52 1376
0.04 0.00 -1.05 -8.21 23.03 -3.14 1.41 0.66 1383
0.04 0.00 -0.93 -9.76 22.67 -3.14 1.32 0.79 1389
0.07 -0.00 -0.63 -11.32 22.17 -3.06 1.25 0.92 1395
0.05 -0.01 -0.28 -13.06 21.66 -2.94 1.21 1.04 1401
0.05 0.01 0.25 -15.02 21.00 -2.77 1.21 1.14 1409
0.05 -0.00 0.76 -16.75 21.14 -2.62 1.25 1.24 1415
0.03 -0.00 0.29 -17.62 21.75 -2.52 1.34 1.35 1421
0.05 0.00 -0.82 -17.73 21.83 -2.55 1.58 1.49 1427
0.04 -0.00 -2.32 -17.88 21.50 -2.73 1.93 1.64 1434
0.05 0.00 -4.03 -20.01 20.28 -3.01 2.19 1.77 1440
0.05 -0.00 -5.86 -21.66 18.19 -3.25 2.20 1.88 1446
0.04 -0.00 -7.26 -24.56 15.06 -3.37 1.98 2.00 1453
0.05 0.01 -7.93 -27.32 11.96 -3.29 1.63 2.05 1459
0.04 -0.00 -7.93 -29.31 8.74 -3.03 1.19 2.08 1466
0.04 -0.00 -7.40 -30.93 5.55 -2.62 0.78 2.04 1472
0.05 -0.00 -6.44 -31.84 3.27 -2.15 0.46 1.91 1478
0.05 -0.00 -5.70 -32.00 2.51 -1.70 0.26 1.70 1484
0.04 -0.00 -5.10 -31.58 2.57 -1.28 0.21 1.43 1490
0.04 0.00 -4.63 -30.69 2.79 -0.89 0.28 1.12 1497
0.04 -0.00 -4.41 -29.43 3.35 -0.60 0.37 0.81 1504
0.04 -0.00 -4.27 -27.92 3.99 -0.24 0.41 0.51 1510
0.04 0.00 -6.43 -53.40 -3.72 0.16 -0.14 0.38 1516
0.04 -0.00 -5.84 -28.04 -4.90 2.87 -0.27 0.45 1522
0.04 -0.00 -4.73 -21.10 -4.15 2.91 -0.66 0.44 1528
0.04 0.04 -5.14 -26.05 -4.92 2.92 -1.65 0.44 1536
0.04 0.16 -1.50 -16.20 -3.29 2.91 -3.10 0.46 1542
0.03 0.29 2.45 3.90 5.25 3.17 -2.92 0.59 1548
0.02 0.57 6.57 2.26 22.19 4.07 -1.31 1.08 1554
0.00 0.96 2.46 1.20 23.95 4.27 -0.85 1.46 1560
-0.02 1.23 -7.70 -6.03 26.32 4.28 -1.01 1.29 1567
-0.01 1.43 -9.09 -7.78 27.60 4.28 -1.29 0.78 1573
-0.03 1.57 -6.56 -6.24 26.00 4.28 -1.08 0.31 1580
-0.01 1.61 -5.01 -3.86 27.28 3.99 -0.59 -0.09 1586
-0.01 1.62 -1.94 -2.54 22.07 3.25 -0.54 -0.54 1593
-0.02 1.60 4.13 -2.40 20.54 2.88 -0.71 -0.72 1599
-0.00 1.53 4.43 -1.26 19.29 1.62 -1.72 -0.47 1605
0.00 1.50 3.88 -2.30 12.75 0.73 -1.32 0.01 1611
-0.01 1.55 0.75 -1.71 12.10 0.39 -0.85 0.22 1617
0.01 1.58 -0.64 -0.96 11.35 0.18 -0.39 0.21 1625
-0.02 1.53 -0.36 -0.73 10.43 0.03 -0.15 0.09 1631
-0.01 1.49 1.05 -1.24 10.10 -0.02 -0.11 0.03 1637
0.03 1.47 1.19 -1.20 10.10 -0.03 -0.09 0.06 1643
0.02 1.45 1.08 -0.92 9.98 -0.05 -0.12 0.09 1649
0.02 1.44 0.49 -0.60 10.11 -0.06 -0.14 0.04 1656
0.04 1.44 0.68 -0.79 10.20 -0.05 -0.12 0.06 1662
0.08 1.41 0.77 -0.76 10.14 -0.04 -0.11 0.05 1669
0.08 1.35 0.77 -0.67 10.09 -0.03 -0.10 0.05 1675
0.08 1.31 0.64 -0.62 10.18 -0.02 -0.09 0.04 1681
0.08 1.27 0.63 -0.61 10.09 -0.01 -0.07 0.04 1688
0.12 1.16 0.67 -0.63 10.14 0.00 -0.06 0.04 1694
0.17 1.06 0.73 -0.62 10.18 0.01 -0.04 0.04 1700
0.19 0.99 0.69 -0.58 10.15 0.02 -0.04 0.04 1707
0.21 0.91 0.67 -0.62 10.13 0.03 -0.03 0.04 1713
0.20 0.83 1.05 -0.94 8.60 0.04 -0.02 0.04 1720
0.22 0.72 0.69 -0.58 9.99 0.04 -0.03 0.05 1726
0.21 0.68 0.71 -0.60 10.01 0.04 -0.02 0.05 1732
0.22 0.61 0.75 -0.03 10.09 0.05 -0.02 0.05 1738
0.26 0.51 0.74 -0.63 10.04 0.06 -0.02 0.04 1744
0.27 0.43 0.79 -0.65 10.06 0.06 -0.02 0.04 1751
0.32 0.35 0.78 -0.70 10.03 0.07 -0.02 0.04 1758
0.33 0.30 0.82 -0.66 9.99 0.07 -0.02 0.03 1764
0.34 0.26 0.80 -0.71 10.10 0.07 -0.03 0.02 1770
0.40 0.24 0.77 -0.68 10.05 0.07 -0.03 0.02 1776
0.39 0.13 0.93 -0.75 10.10 0.07 -0.03 0.01 1782
0.42 0.12 0.78 -0.73 10.04 0.07 -0.04 0.01 1789
0.48 0.05 0.69 -0.72 9.97 0.07 -0.04 0.01 1796
0.51 0.03 0.15 -0.60 10.07 0.08 -0.04 0.01 1802
0.52 0.03 0.71 -0.75 10.06 0.09 -0.04 0.00 1808
0.56 0.02 0.63 -0.62 10.20 0.10 -0.04 0.01 1814
0.59 -0.00 0.73 -0.81 10.08 0.11 -0.04 0.00 1820
0.61 0.01 0.68 -0.72 10.11 0.12 -0.04 0.00 1827
0.65 -0.02 0.73 -0.76 10.12 0.14 -0.05 -0.00 1833
0.71 -0.03 0.77 -0.76 10.05 0.15 -0.05 -0.01 1840
0.72 -0.04 0.76 -0.80 10.03 0.16 -0.05 -0.01 1846
0.72 -0.04 0.82 -0.82 10.04 0.17 -0.05 -0.02 1852
0.76 -0.05 0.83 -0.86 10.03 0.17 -0.05 -0.02 1859
0.79 -0.05 0.84 -0.84 10.01 0.17 -0.05 -0.02 1865
0.83 -0.05 0.87 -0.89 10.06 0.17 -0.05 -0.03 1871
0.84 -0.05 0.83 -0.95 9.96 0.17 -0.05 -0.04 1878
0.86 -0.04 0.79 -0.94 9.95 0.18 -0.04 -0.05 1884
0.88 -0.05 0.80 -0.95 9.97 0.17 -0.04 -0.06 1891
0.94 -0.06 0.78 -0.95 9.92 0.16 -0.04 -0.06 1897
0.93 -0.04 0.80 -0.97 9.91 0.16 -0.04 -0.06 1903
0.99 -0.04 0.85 -1.03 9.96 0.16 -0.04 -0.06 1909
1.03 -0.04 0.78 -0.97 10.02 0.16 -0.05 -0.07 1915
1.04 -0.05 0.81 -1.04 10.00 0.17 -0.04 -0.07 1922
1.08 -0.04 0.70 -1.02 10.04 0.18 -0.05 -0.07 1929
1.12 -0.05 0.74 -1.01 9.93 0.18 -0.05 -0.07 1935
1.15 -0.06 0.72 -1.10 10.01 0.19 -0.04 -0.06 1941
1.20 -0.04 0.75 -1.09 9.98 0.20 -0.04 -0.06 1947
1.23 -0.06 0.76 -1.11 10.04 0.21 -0.00 -0.06 1953
1.27 -0.04 0.69 -1.10 10.06 0.23 -0.03 -0.06 1960
1.32 -0.06 0.68 -1.13 10.18 0.26 -0.03 -0.05 1967
1.37 -0.06 0.70 -1.17 10.28 0.30 -0.03 -0.04 1973
1.40 -0.06 0.86 -1.28 10.44 0.37 -0.03 -0.05 1979
1.43 -0.07 0.91 -1.30 10.68 0.46 -0.04 -0.06 1985
1.48 -0.06 0.95 -1.32 10.87 0.58 -0.05 -0.07 1992
1.53 -0.05 0.98 -1.43 11.08 0.71 -0.07 -0.09 1998
1.56 -0.06 0.99 -1.47 11.23 0.84 -0.09 -0.10 2004
1.62 -0.06 1.08 -1.56 11.38 0.97 -0.12 -0.13 2011
1.67 -0.07 1.07 -1.62 11.64 1.12 -0.16 -0.14 2018
1.70 -0.07 1.06 -1.65 11.66 1.26 -0.21 -0.16 2024
1.79 -0.07 1.05 -1.77 11.98 1.40 -0.25 -0.17 2030
1.82 -0.07 0.97 -1.75 12.37 1.54 -0.30 -0.17 2036
1.89 -0.07 0.80 -1.93 12.53 1.68 -0.35 -0.17 2042
1.89 -0.05 0.61 -1.88 12.76 1.86 -0.40 -0.16 2050
1.91 -0.08 0.52 -1.98 13.01 2.04 -0.42 -0.14 2056
1.94 -0.07 0.72 -1.87 12.41 2.22 -0.41 -0.15 2062
1.97 -0.07 0.78 -2.37 12.92 2.41 -0.41 -0.12 2068
1.99 -0.07 0.89 -2.70 13.56 2.65 -0.42 -0.14 2075
2.00 -0.06 0.74 -2.33 13.45 2.86 -0.37 -0.17 2081
1.97 -0.06 0.79 -2.74 14.11 3.07 -0.33 -0.19 2087
1.89 -0.06 1.28 -3.04 14.31 3.33 -0.28 -0.24 2094
1.89 -0.06 1.09 -2.92 14.36 3.64 -0.29 -0.26 2101
1.83 -0.07 0.79 -2.98 14.67 3.96 -0.32 -0.30 2107
1.75 -0.08 0.25 -3.05 16.04 4.21 -0.33 -0.31 2113
1.63 -0.07 1.26 -3.30 16.82 4.28 -0.42 -0.34 2119
1.47 -0.06 2.87 -3.89 17.96 4.28 -0.48 -0.43 2125
1.31 -0.04 3.77 -4.93 19.43 4.28 -0.57 -0.60 2132
1.09 -0.05 3.47 -7.29 22.03 4.28 -0.71 -0.79 2139
0.96 -0.05 2.87 -7.91 25.54 4.28 -0.84 -0.86 2145
0.87 -0.04 2.03 -11.04 30.27 4.28 -0.88 -0.90 2151
0.73 -0.05 2.76 -15.58 34.16 4.28 -0.66 -0.83 2158
0.56 -0.03 3.68 -15.87 33.36 4.28 -0.21 -0.74 2164
0.50 -0.03 3.74 -14.89 28.88 4.28 0.19 -0.75 2170
0.40 -0.03 2.04 -11.79 28.92 4.28 0.58 -0.74 2178
0.30 -0.02 0.82 -7.09 31.34 4.28 0.76 -0.79 2184
0.23 -0.02 -0.51 -4.59 34.38 4.28 0.40 -0.91 2190
0.17 -0.01 0.39 -2.47 33.87 4.28 -0.36 -1.09 2196
0.13 -0.01 3.23 1.54 32.26 4.28 -1.18 -1.21 2202
0.10 -0.01 6.37 5.53 33.13 4.28 -1.69 -1.25 2209
0.07 -0.01 8.80 9.11 29.60 4.28 -1.78 -1.21 2215
0.08 -0.01 12.29 16.13 24.49 4.28 -1.52 -1.27 2222
0.05 -0.01 9.89 16.32 15.11 4.28 -0.89 -1.71 2228
0.07 -0.01 11.44 20.61 -5.72 4.09 -0.45 -2.35 2234
0.06 -0.01 10.27 22.10 15.99 2.47 0.19 -2.71 2241
0.07 -0.01 11.47 18.47 30.80 0.28 1.55 -2.64 2247
0.07 -0.01 8.42 15.13 27.09 -1.50 2.21 -2.46 2253
0.06 -0.01 4.63 14.54 19.43 -2.53 2.09 -2.27 2259
0.07 -0.01 2.14 13.71 14.99 -3.33 1.57 -1.95 2267
0.06 -0.00 1.39 11.94 12.78 -4.01 1.07 -1.57 2273
0.05 -0.01 2.01 9.65 11.48 -4.25 0.72 -1.21 2279
0.06 -0.01 2.78 7.57 9.92 -4.28 0.48 -0.92 2285
0.06 -0.01 3.31 5.53 8.65 -4.28 0.37 -0.68 2291
0.04 -0.00 3.46 4.81 7.76 -4.28 0.32 -0.50 2297
0.05 -0.01 3.65 3.72 7.07 -4.28 0.37 -0.31 2305
0.06 -0.01 3.93 2.92 6.75 -4.28 0.47 -0.16 2311
0.04 -0.00 4.22 2.42 6.85 -4.28 0.59 -0.05 2317
0.03 -0.00 4.16 1.92 7.24 -4.28 0.70 0.02 2323
0.04 0.00 4.09 1.55 7.84 -4.28 0.78 0.06 2329
0.05 -0.00 3.84 1.37 8.58 -4.28 0.86 0.13 2335
0.04 -0.00 3.47 1.27 9.08 -4.28 0.92 0.15 2341
0.03 -0.00 3.12 1.16 9.67 -4.28 1.01 0.22 2348
0.04 0.00 2.88 1.01 10.18 -4.28 1.11 0.31 2354
0.04 -0.00 2.59 0.83 10.80 -4.28 1.19 0.40 2361
0.04 -0.00 2.33 0.60 11.54 -4.28 1.27 0.50 2367
0.04 0.00 2.17 0.26 12.34 -4.28 1.34 0.57 2373
0.04 -0.00 2.08 -0.14 13.29 -4.28 1.43 0.62 2379
0.04 -0.00 2.09 -1.22 14.27 -4.28 1.48 0.65 2385
0.05 -0.01 2.10 -1.20 14.86 -4.28 1.60 0.61 2392
0.06 -0.01 2.07 -1.93 15.32 -4.28 1.76 0.59 2399
0.05 -0.01 1.96 -2.75 15.92 -4.28 1.94 0.50 2405
0.05 -0.01 1.71 -3.86 16.72 -4.28 2.14 0.39 2411
0.07 -0.01 1.11 -5.19 17.19 -4.28 2.34 0.26 2417
0.05 -0.01 0.31 -6.22 17.88 -4.28 2.51 0.12 2423
0.05 -0.01 -0.53 -6.69 18.11 -4.28 2.60 0.00 2429
0.07 -0.00 -1.29 -6.93 18.21 -4.28 2.60 -0.07 2437
0.06 -0.01 -1.63 -6.92 18.16 -4.27 2.50 -0.10 2443
0.06 -0.01 -1.87 -6.80 18.09 -4.21 2.32 -0.09 2449
0.07 -0.01 -2.10 -6.90 18.00 -4.10 2.14 -0.05 2455
0.05 -0.00 -1.75 -7.25 18.09 -3.90 1.93 -0.01 2461
0.05 -0.00 -1.46 -7.64 18.70 -3.64 1.75 0.03 2467
0.06 -0.00 -1.09 -7.74 19.80 -3.40 1.63 0.09 2475
0.06 -0.01 -0.88 -8.00 21.18 -3.21 1.54 0.15 2481
0.06 -0.01 -0.91 -8.41 22.38 -3.09 1.47 0.20 2487
0.06 -0.00 -0.82 -8.91 23.62 -3.05 1.41 0.27 2493
0.06 -0.01 -0.54 -9.43 24.36 -3.13 1.36 0.35 2499
0.06 -0.01 0.05 -10.10 24.40 -3.20 1.38 0.44 2506
0.06 -0.00 0.72 -11.19 23.96 -3.34 1.47 0.54 2512
0.06 -0.01 1.11 -12.48 23.17 -3.45 1.63 0.67 2519
0.05 -0.01 1.22 -13.82 22.12 -3.51 1.81 0.81 2525
0.07 -0.01 0.72 -15.00 20.97 -3.50 1.98 0.98 2532
0.06 -0.01 -0.32 -16.06 19.45 -3.42 2.17 1.18 2538
0.06 -0.01 -2.07 -16.95 18.01 -3.27 2.41 1.42 2544
0.06 -0.01 -3.79 -18.49 17.33 -3.09 2.64 1.64 2550
0.06 -0.01 -5.56 -20.61 16.93 -2.90 2.62 1.82 2556
0.06 0.00 -7.30 -23.32 15.84 -2.70 2.32 1.91 2564
0.06 -0.01 -8.45 -25.75 13.29 -2.52 1.82 1.97 2570
0.06 -0.01 -8.78 -27.62 10.60 -2.34 1.23 1.95 2576
0.08 -0.01 -8.37 -29.02 8.15 -2.15 0.70 1.86 2582
0.06 -0.01 -7.82 -30.27 5.61 -1.89 0.36 1.70 2588
0.06 -0.00 -7.21 -31.44 4.26 -1.59 0.26 1.50 2595
0.07 -0.01 -6.68 -32.09 3.16 -1.22 0.34 1.26 2601
0.06 -0.01 -6.44 -31.65 2.55 -0.80 0.47 0.98 2608
0.06 -0.01 -6.53 -30.21 2.55 -0.36 0.52 0.69 2614
0.07 -0.00 -6.56 -28.23 3.15 0.03 0.43 0.43 2620
0.06 -0.00 -6.37 -25.81 4.78 0.46 0.19 0.22 2627
0.06 -0.00 -11.78 -43.74 -4.86 0.84 -0.51 0.19 2633
0.07 -0.01 -12.80 -27.65 -2.07 3.57 -1.60 0.50 2639
0.06 -0.01 -7.45 -16.19 4.87 3.38 -2.05 0.53 2646
0.06 0.05 -3.16 -14.53 -1.78 3.24 -2.85 0.57 2652
0.06 0.21 2.03 -4.18 1.70 2.81 -3.68 0.49 2659
0.04 0.38 0.52 -1.03 14.16 2.97 -2.98 0.69 2665
0.03 0.62 3.62 10.64 17.90 3.58 -1.34 1.17 2671
0.01 0.87 -0.57 0.69 15.39 4.03 -0.81 1.45 2677
-0.01 1.15 -7.40 -3.68 22.78 4.28 -1.27 1.18 2684
-0.00 1.37 -8.82 -7.41 25.60 4.28 -1.48 0.73 2691
-0.01 1.51 -4.82 -6.74 25.27 4.28 -1.29 0.40 2697
-0.01 1.55 -4.93 -4.38 27.13 4.22 -0.79 0.10 2703
-0.02 1.57 -3.72 -3.16 23.35 3.62 -0.63 -0.30 2710
-0.03 1.55 1.43 -2.66 19.75 3.17 -0.47 -0.53 2716
-0.00 1.55 4.11 -3.50 29.16 2.37 -1.30 -0.45 2722
-0.00 1.46 3.75 -1.80 13.60 0.67 -1.16 -0.04 2728
-0.00 1.51 0.88 -2.73 11.69 0.28 -0.64 0.19 2735
0.01 1.48 -0.09 -1.15 10.84 0.10 -0.28 0.23 2742
-0.00 1.42 -0.54 -0.73 10.25 0.01 -0.10 0.13 2748
0.03 1.42 0.21 -0.88 9.93 -0.03 -0.05 0.05 2754
0.02 1.45 1.08 -1.16 10.21 -0.05 -0.04 0.05 2760
0.03 1.46 0.91 -1.07 9.82 -0.05 -0.05 0.08 2766
0.02 1.49 0.55 -0.81 10.15 -0.06 -0.07 0.08 2774
0.03 1.51 0.43 -0.73 10.03 -0.06 -0.07 0.06 2780
0.03 1.48 0.60 -0.81 9.73 -0.06 -0.05 0.06 2786
0.05 1.49 0.72 -0.72 10.01 -0.04 -0.04 0.07 2792
0.06 1.43 0.71 -0.66 10.05 -0.03 -0.03 0.06 2798
0.05 1.39 0.65 -0.71 10.06 -0.01 -0.03 0.06 2805
0.05 1.33 0.65 -0.68 10.06 -0.00 -0.03 0.06 2811
0.09 1.23 0.61 -0.69 10.13 0.01 -0.01 0.05 2818
0.11 1.15 0.65 -0.63 10.25 0.02 -0.00 0.05 2824
0.11 1.05 0.70 -0.73 10.13 0.03 0.00 0.05 2830
0.13 0.96 0.68 -0.69 10.01 0.04 0.00 0.06 2836
0.12 0.89 0.64 -0.73 10.10 0.04 -0.00 0.05 2843
0.15 0.81 0.65 -0.72 10.11 0.05 0.00 0.06 2849
0.17 0.72 0.69 -0.69 9.97 0.05 -0.03 0.06 2855
0.19 0.61 0.71 -0.69 10.01 0.06 -0.00 0.06 2862
0.24 0.55 0.75 -0.68 10.02 0.06 -0.00 0.06 2868
0.24 0.53 0.75 -0.70 10.02 0.06 0.00 0.05 2875
0.27 0.41 0.78 -0.72 10.00 0.07 -0.00 0.05 2881
0.28 0.37 0.80 -0.81 10.00 0.08 -0.00 0.04 2887
0.32 0.25 0.57 -0.65 9.88 0.08 -0.00 0.04 2893
0.31 0.20 0.78 -0.76 9.98 0.08 -0.01 0.03 2899
0.32 0.17 0.76 -0.77 9.97 0.08 -0.01 0.03 2906
0.35 0.14 0.18 -0.72 9.88 0.07 -0.00 0.03 2912
0.34 0.13 0.75 -0.86 10.04 0.08 -0.00 0.02 2919
0.34 0.06 0.73 -0.80 9.99 0.08 0.00 0.02 2925
0.36 0.06 0.63 -0.78 9.97 0.08 0.00 0.02 2931
0.38 0.04 0.68 -0.78 10.07 0.09 0.00 0.03 2937
0.42 -0.01 0.78 -0.84 10.02 0.10 0.00 0.03 2944
0.44 0.00 0.83 -0.81 10.16 0.11 -0.01 0.03 2950
0.48 -0.01 0.80 -0.89 10.16 0.13 -0.02 0.02 2957
0.52 -0.02 0.82 -0.86 10.04 0.14 -0.04 0.01 2963
0.52 -0.02 0.83 -0.88 10.05 0.16 -0.05 0.00 2969
0.57 -0.02 0.94 -0.95 10.08 0.17 -0.06 -0.02 2975
0.63 -0.04 0.88 -1.01 10.06 0.19 -0.07 -0.04 2981
0.66 -0.03 0.90 -1.03 9.87 0.19 -0.07 -0.07 2989
0.71 -0.04 0.92 -1.11 10.08 0.21 -0.07 -0.08 2995
0.77 -0.04 0.91 -1.06 10.02 0.21 -0.07 -0.09 3001
0.79 -0.04 0.89 -1.11 9.98 0.22 -0.07 -0.11 3007
0.82 -0.04 0.83 -1.05 10.11 0.23 -0.07 -0.12 3013
0.86 -0.05 0.75 -1.08 10.04 0.24 -0.07 -0.13 3020
0.96 -0.03 0.86 -1.13 10.08 0.26 -0.08 -0.13 3026
0.97 -0.05 0.82 -1.19 10.10 0.28 -0.09 -0.13 3033
0.99 -0.05 0.70 -1.16 10.00 0.29 -0.10 -0.13 3039
1.02 -0.04 0.67 -1.20 10.14 0.30 -0.10 -0.12 3045
1.08 -0.05 0.65 -1.14 10.22 0.31 -0.10 -0.11 3052
1.12 -0.05 0.58 -1.24 10.17 0.33 -0.09 -0.09 3058
1.22 -0.05 0.52 -1.18 10.25 0.36 -0.09 -0.08 3064
1.24 -0.07 0.62 -1.31 10.33 0.43 -0.09 -0.06 3070
1.29 -0.06 0.59 -1.33 10.47 0.45 -0.10 -0.04 3078
1.34 -0.06 0.65 -1.35 10.47 0.51 -0.11 -0.04 3084
1.38 -0.07 0.70 -1.46 10.63 0.58 -0.11 -0.03 3090
1.41 -0.05 0.77 -1.49 10.66 0.67 -0.12 -0.03 3096
1.45 -0.05 0.80 -1.54 10.74 0.75 -0.13 -0.04 3102
1.47 -0.06 0.78 -1.61 11.06 0.84 -0.13 -0.04 3109
1.55 -0.06 0.91 -1.76 10.71 0.92 -0.14 -0.05 3116
1.59 -0.06 0.95 -1.79 11.08 1.01 -0.14 -0.05 3122
1.66 -0.05 1.00 -1.85 11.20 1.09 -0.15 -0.10 3128
1.69 -0.06 1.11 -1.84 11.40 1.19 -0.16 -0.08 3135
1.70 -0.06 1.17 -2.21 11.56 1.31 -0.17 -0.11 3141
1.75 -0.07 0.90 -2.17 11.75 1.43 -0.21 -0.14 3147
1.79 -0.06 0.89 -2.18 12.06 1.58 -0.25 -0.15 3153
1.83 -0.08 0.54 -2.08 12.46 1.75 -0.30 -0.15 3161
1.87 -0.08 0.79 -2.29 12.77 1.93 -0.32 -0.14 3167
1.90 -0.07 0.48 -2.27 13.07 2.13 -0.34 -0.13 3173
1.90 -0.06 0.53 -2.44 13.25 2.34 -0.36 -0.12 3179
1.90 -0.05 0.50 -2.54 13.23 2.54 -0.36 -0.11 3185
1.88 -0.06 0.64 -2.72 13.52 2.79 -0.36 -0.12 3192
1.90 -0.07 0.69 -2.95 14.28 3.07 -0.32 -0.12 3198
1.86 -0.08 0.87 -3.13 13.88 3.36 -0.27 -0.16 3205
1.81 -0.07 0.73 -2.97 14.25 3.71 -0.23 -0.18 3211
1.72 -0.06 1.21 -3.33 14.11 4.04 -0.26 -0.24 3218
1.66 -0.07 1.01 -3.32 15.04 4.25 -0.25 -0.28 3224
1.54 -0.07 0.89 -3.49 16.44 4.28 -0.22 -0.32 3230
1.34 -0.06 1.32 -4.28 17.84 4.28 -0.23 -0.36 3236
1.19 -0.06 2.48 -5.33 19.63 4.28 -0.30 -0.44 3244
1.04 -0.05 3.02 -7.19 23.03 4.28 -0.42 -0.56 3250
0.90 -0.06 2.84 -9.58 26.28 4.28 -0.60 -0.69 3256
0.78 -0.04 2.58 -13.05 31.48 4.28 -0.66 -0.73 3262
0.73 -0.04 3.36 -16.42 35.07 4.28 -0.42 -0.69 3269
0.60 -0.03 4.81 -16.48 31.96 4.28 -0.05 -0.65 3275
0.50 -0.03 4.34 -14.66 30.95 4.28 0.34 -0.68 3281
0.40 -0.03 2.99 -11.12 29.81 4.28 0.71 -0.72 3288
0.31 -0.02 0.25 -7.65 31.76 4.28 0.78 -0.79 3295
0.23 -0.02 -0.23 -4.75 34.79 4.28 0.35 -0.95 3301
0.18 -0.02 1.36 -2.09 34.59 4.28 -0.38 -1.09 3307
0.16 -0.02 4.28 1.60 35.02 4.28 -0.97 -1.20 3313
0.15 -0.02 6.97 5.27 32.96 4.28 -1.28 -1.22 3319
0.10 -0.01 9.23 11.26 26.95 4.28 -1.13 -1.18 3326
0.07 -0.01 13.54 19.37 21.21 4.28 -0.75 -1.35 3333
0.05 -0.00 9.23 17.05 3.22 4.24 0.01 -1.94 3339
0.05 -0.00 10.84 24.38 -3.25 3.26 -0.10 -2.64 3345
0.06 -0.01 10.22 22.97 25.72 1.29 0.52 -2.83 3352
0.04 -0.00 9.59 17.61 33.70 -1.03 1.42 -2.65 3358
0.05 -0.01 6.05 15.30 25.37 -2.56 1.68 -2.44 3364
0.06 -0.01 3.32 14.57 17.71 -3.40 1.33 -2.16 3371
0.05 0.00 1.42 13.03 10.78 -4.03 0.78 -1.79 3377
0.06 -0.01 1.58 10.69 10.90 -4.27 0.42 -1.46 3384
0.05 -0.01 2.80 8.60 8.82 -4.28 0.18 -1.21 3390
0.04 -0.00 3.48 6.85 7.64 -4.28 0.03 -1.02 3396
0.05 -0.01 3.66 5.48 7.20 -4.28 -0.02 -0.86 3402
0.04 -0.00 3.68 4.68 7.20 -4.27 0.04 -0.71 3408
0.04 -0.00 4.04 4.13 7.17 -4.24 0.18 -0.59 3415
0.05 -0.01 4.33 3.87 7.23 -4.23 0.35 -0.48 3421
0.07 -0.00 4.29 3.82 7.57 -4.25 0.51 -0.41 3428
0.07 -0.01 4.05 3.90 7.98 -4.27 0.65 -0.35 3434
0.05 -0.01 3.69 3.79 8.69 -4.28 0.76 -0.28 3440
0.07 -0.00 3.38 3.43 9.38 -4.28 0.85 -0.20 3446
0.08 -0.01 3.06 2.91 10.13 -4.28 0.94 -0.10 3452
0.07 -0.01 2.88 2.50 11.04 -4.28 1.05 0.03 3459
0.06 -0.01 2.56 1.93 11.80 -4.28 1.19 0.12 3465
0.09 -0.01 2.06 1.37 12.28 -4.28 1.34 0.24 3472
0.08 -0.01 1.69 0.83 12.59 -4.28 1.47 0.35 3478
0.07 -0.01 1.42 0.27 12.89 -4.28 1.57 0.43 3484
0.08 -0.01 1.15 -0.28 13.32 -4.28 1.64 0.49 3490
0.06 -0.01 1.02 -0.86 14.11 -4.28 1.69 0.53 3496
0.05 -0.00 0.99 -1.40 15.00 -4.28 1.77 0.53 3503
0.06 0.00 0.87 -2.30 15.96 -4.28 1.85 0.52 3509
0.06 -0.01 0.60 -3.57 17.00 -4.28 1.93 0.47 3516
0.07 -0.01 0.15 -3.99 17.82 -4.28 2.02 0.37 3522
0.06 -0.01 -0.20 -4.91 18.27 -4.28 2.10 0.29 3528
0.06 -0.01 -0.59 -5.67 18.64 -4.28 2.14 0.17 3534
0.06 -0.01 -0.91 -6.20 18.95 -4.28 2.13 0.06 3540
0.05 -0.01 -1.18 -6.54 19.41 -4.28 2.09 -0.00 3547
0.07 -0.01 -1.25 -6.73 19.64 -4.27 2.01 -0.01 3554
0.06 -0.01 -1.27 -6.66 19.95 -4.21 1.89 0.04 3560
0.05 -0.01 -1.07 -6.63 20.26 -4.19 1.75 0.15 3566
0.07 -0.01 -0.86 -6.74 21.64 -4.10 1.64 0.30 3572
0.05 -0.01 -0.42 -6.89 23.25 -4.03 1.67 0.48 3578
0.03 -0.00 -0.00 -7.65 24.53 -3.98 1.75 0.64 3585
0.04 -0.00 0.01 -8.76 24.91 -3.96 1.87 0.82 3592
0.04 -0.00 -0.08 -10.16 24.54 -3.96 1.97 0.98 3598
0.03 -0.00 -0.23 -11.63 23.73 -3.95 2.04 1.13 3604
0.04 -0.00 -0.39 -13.33 22.58 -3.88 2.08 1.23 3610
0.05 -0.00 -0.68 -15.10 21.56 -3.74 2.08 1.28 3616
0.04 -0.00 -0.86 -16.80 20.52 -3.55 2.07 1.27 3623
0.05 -0.01 -1.17 -18.40 19.41 -3.31 2.02 1.22 3630
0.04 -0.00 -1.56 -19.34 18.14 -3.02 1.92 1.16 3636
0.05 -0.01 -2.25 -19.82 16.95 -2.75 1.81 1.10 3642
0.05 -0.00 -2.79 -20.32 16.48 -2.56 1.69 1.07 3649
0.04 -0.00 -3.84 -20.90 16.19 -2.32 1.57 1.07 3655
0.05 0.00 -5.59 -21.52 15.63 -2.11 1.53 1.12 3661
0.05 -0.01 -7.03 -21.94 15.51 -1.98 1.67 1.23 3667
0.04 -0.00 -9.17 -23.51 14.39 -1.97 1.75 1.32 3674
0.06 -0.01 -9.79 -25.57 12.13 -1.97 1.48 1.35 3681
0.04 -0.00 -10.34 -27.33 9.25 -1.92 1.12 1.34 3687
0.05 -0.01 -10.06 -28.48 6.35 -1.80 0.62 1.30 3693
0.05 -0.01 -9.07 -29.14 4.35 -1.57 0.20 1.21 3699
0.05 -0.01 -7.96 -29.44 2.51 -1.23 -0.11 1.05 3706
0.05 -0.01 -6.84 -29.17 2.68 -0.84 -0.28 0.89 3713
0.05 -0.01 -5.85 -27.96 3.07 -0.45 -0.35 0.65 3719
0.05 -0.01 -5.02 -26.29 4.32 -0.10 -0.35 0.41 3725
0.05 -0.00 -4.06 -40.76 -5.59 0.20 -0.39 0.19 3731
0.06 -0.01 -8.95 -29.38 -5.22 2.86 -0.57 -0.00 3737
0.05 -0.00 -7.31 -21.26 3.67 2.71 -0.58 -0.06 3744
0.04 0.02 -6.14 -26.20 -2.67 2.84 -1.45 -0.12 3750
0.06 0.15 -5.37 -24.95 -2.78 2.65 -2.79 -0.24 3757
0.05 0.26 -0.54 1.06 0.13 2.86 -2.99 -0.23 3763
0.03 0.53 3.04 -2.80 17.53 3.73 -2.04 -0.02 3769
0.02 0.88 8.18 4.16 22.72 4.28 -1.37 0.34 3776
-0.01 1.22 0.05 -4.54 26.03 4.28 -1.48 0.45 3782
-0.01 1.45 -3.15 -5.75 29.45 4.28 -1.58 0.32 3788
-0.01 1.58 -1.57 -7.61 25.37 4.28 -1.57 0.23 3794
-0.03 1.62 -3.24 -6.27 27.00 4.28 -0.89 0.13 3802
-0.02 1.59 -2.81 -4.07 36.18 4.28 -0.60 -0.11 3808
-0.01 1.59 0.74 -1.17 23.38 1.99 -1.92 -0.30 3814
-0.00 1.59 2.77 -3.05 13.40 0.23 -0.61 -0.03 3820
-0.02 1.56 0.74 -2.58 11.24 0.02 -0.22 0.12 3826
-0.01 1.55 0.28 -1.18 10.06 0.02 -0.12 0.17 3833
-0.00 1.51 0.12 -0.46 10.17 0.03 -0.08 0.12 3840
-0.00 1.47 0.56 -0.77 10.23 0.00 -0.04 0.09 3846
0.01 1.46 0.87 -1.37 10.10 -0.02 -0.03 0.09 3852
0.03 1.49 0.76 -1.17 10.12 -0.03 -0.05 0.10 3858
0.04 1.52 0.62 -0.74 10.11 -0.04 -0.06 0.09 3865
0.01 1.50 0.67 -0.82 10.12 -0.03 -0.06 0.08 3871
0.02 1.53 0.77 -0.94 10.10 -0.03 -0.06 0.07 3877
0.03 1.53 0.69 -0.81 9.92 -0.03 -0.06 0.08 3884
0.03 1.53 0.64 -0.67 9.82 -0.03 -0.06 0.07 3890
0.04 1.50 0.75 -0.69 9.92 -0.02 -0.06 0.07 3897
0.06 1.45 0.71 -0.68 10.14 -0.01 -0.05 0.10 3903
0.03 1.43 0.72 -0.70 9.95 -0.00 -0.05 0.07 3909
0.05 1.35 0.71 -0.64 9.92 0.00 -0.05 0.06 3915
0.06 1.26 0.62 -0.72 10.00 0.01 -0.05 0.06 3921
0.06 1.20 0.62 -0.68 10.08 0.02 -0.04 0.06 3928
0.08 1.10 0.69 -0.71 10.16 0.03 -0.02 0.05 3935
0.10 1.02 0.67 -0.74 10.08 0.04 -0.01 0.05 3941
0.10 0.91 0.63 -0.75 10.05 0.04 -0.00 0.06 3947
0.12 0.83 0.64 -0.75 9.96 0.04 0.01 0.06 3953
0.13 0.78 0.64 -0.76 10.06 0.05 0.02 0.06 3959
0.14 0.68 0.70 -0.72 10.02 0.05 0.03 0.06 3965
0.15 0.59 0.72 -0.76 9.98 0.05 0.04 0.06 3973
0.15 0.53 0.75 -0.72 10.00 0.06 0.04 0.06 3979
0.16 0.46 0.78 -0.75 10.05 0.06 0.04 0.06 3985
0.18 0.42 0.80 -0.81 10.00 0.07 0.05 0.05 3991
0.20 0.35 0.80 -0.27 9.93 0.07 0.04 0.05 3997
0.19 0.26 0.93 -0.99 10.15 0.07 0.04 0.05 4003
0.20 0.27 0.78 -0.81 9.96 0.07 0.04 0.04 4011
0.25 0.20 0.81 -0.84 9.95 0.07 0.03 0.04 4017
0.25 0.17 0.78 -0.83 10.01 0.06 0.02 0.04 4023
0.27 0.15 0.85 -0.84 10.01 0.06 0.01 0.03 4029
0.28 0.11 0.94 -0.88 10.12 0.06 0.01 0.03 4035
0.29 0.03 0.80 -0.82 9.97 0.06 0.01 0.03 4041
0.29 0.03 0.73 -0.80 9.99 0.06 0.01 0.03 4048
0.35 0.04 0.77 -0.86 10.00 0.06 0.01 0.03 4055
0.37 0.00 0.82 -0.88 9.99 0.07 0.01 0.04 4061
0.36 -0.00 0.80 -0.94 10.02 0.07 0.01 0.04 4067
0.39 -0.00 0.76 -1.06 9.98 0.07 0.01 0.03 4073
0.38 0.00 0.79 -0.89 10.12 0.08 0.01 0.02 4079
0.43 -0.02 0.83 -0.89 10.03 0.08 0.00 0.02 4086
0.46 -0.03 0.85 -0.92 9.99 0.09 -0.00 0.02 4092
0.48 -0.01 0.88 -0.96 9.98 0.09 -0.01 0.01 4099
0.49 -0.03 0.87 -0.96 9.94 0.09 -0.01 -0.00 4105
0.52 -0.04 0.92 -0.92 9.93 0.09 -0.02 -0.02 4111
0.50 -0.03 0.94 -0.98 9.97 0.09 -0.03 -0.02 4117
0.52 -0.03 0.84 -1.03 9.90 0.08 -0.03 -0.03 4123
0.56 -0.04 0.87 -0.97 10.00 0.07 -0.05 -0.03 4130
0.58 -0.03 0.83 -1.01 9.97 0.07 -0.04 -0.03 4136
0.60 -0.04 0.86 -1.01 9.99 0.07 -0.05 -0.04 4143
0.65 -0.05 0.89 -0.99 10.01 0.07 -0.05 -0.04 4149
0.69 -0.04 0.79 -1.00 9.98 0.06 -0.05 -0.04 4155
0.72 -0.03 0.81 -0.97 10.01 0.07 -0.05 -0.04 4161
0.74 -0.04 0.80 -1.02 10.00 0.08 -0.05 -0.03 4168
0.79 -0.04 0.79 -1.00 10.03 0.09 -0.04 -0.02 4174
0.84 -0.03 0.76 -1.02 10.05 0.11 -0.03 -0.02 4180
0.91 -0.05 0.85 -1.06 10.02 0.14 -0.03 -0.02 4187
0.95 -0.05 0.86 -1.08 10.06 0.20 -0.01 -0.01 4193
1.01 -0.05 0.83 -1.09 10.28 0.21 0.01 -0.01 4200
1.05 -0.05 0.81 -1.11 10.51 0.28 0.03 -0.02 4206
1.10 -0.06 0.89 -1.17 10.45 0.40 0.05 -0.03 4212
1.16 -0.05 0.89 -1.23 10.82 0.54 0.09 -0.04 4218
1.18 -0.06 1.08 -1.29 11.01 0.71 0.11 -0.05 4225
1.20 -0.05 1.04 -1.31 11.43 0.90 0.12 -0.07 4232
1.23 -0.05 1.14 -1.53 11.50 1.09 0.12 -0.08 4238
1.30 -0.07 1.07 -1.53 11.68 1.26 0.09 -0.09 4244
1.33 -0.04 1.03 -1.96 12.13 1.41 0.04 -0.11 4250
1.39 -0.06 0.95 -1.71 12.27 1.58 -0.01 -0.12 4256
1.41 -0.06 0.93 -1.62 11.85 1.71 -0.09 -0.11 4263
1.43 -0.06 1.07 -1.84 12.96 1.85 -0.16 -0.12 4270
1.51 -0.06 0.93 -1.88 13.28 2.05 -0.19 -0.13 4276
1.50 -0.06 1.12 -2.11 13.25 2.24 -0.22 -0.14 4282
1.53 -0.05 1.09 -2.22 14.15 2.45 -0.27 -0.20 4289
1.56 -0.05 0.83 -1.98 13.47 2.69 -0.29 -0.19 4295
1.58 -0.05 1.00 -2.38 13.36 2.91 -0.27 -0.17 4301
1.53 -0.06 1.44 -2.52 13.51 3.14 -0.29 -0.20 4307
1.53 -0.06 1.11 -2.57 13.84 3.41 -0.19 -0.22 4315
1.50 -0.05 1.24 -2.77 14.02 3.75 -0.16 -0.25 4321
1.45 -0.06 1.34 -2.80 14.81 4.07 -0.10 -0.27 4327
1.39 -0.05 1.25 -2.95 15.35 4.26 -0.02 -0.31 4333
1.35 -0.05 1.27 -3.09 17.01 4.28 -0.06 -0.35 4340
1.17 -0.05 1.69 -3.79 18.90 4.28 -0.12 -0.39 4346
1.02 -0.04 2.48 -4.38 19.65 4.28 -0.22 -0.46 4353
0.89 -0.05 2.70 -6.22 21.85 4.28 -0.34 -0.57 4359
0.79 -0.05 3.39 -8.61 25.47 4.28 -0.44 -0.67 4365
0.70 -0.05 3.38 -11.01 28.54 4.28 -0.36 -0.71 4372
0.60 -0.04 3.06 -14.61 34.39 4.28 -0.13 -0.66 4378
0.55 -0.03 3.82 -14.93 32.33 4.28 0.11 -0.58 4384
0.43 -0.03 3.77 -13.50 30.61 4.28 0.37 -0.52 4391
0.33 -0.01 3.73 -12.02 29.91 4.28 0.80 -0.54 4398
0.26 -0.02 1.48 -8.59 32.83 4.28 1.01 -0.63 4404
0.24 -0.02 -1.22 -5.48 33.94 4.28 0.78 -0.77 4410
0.21 -0.02 -0.74 -2.91 34.33 4.28 0.19 -0.90 4416
0.16 -0.02 0.61 -0.37 35.74 4.28 -0.55 -0.99 4423
0.12 -0.01 4.47 3.58 33.65 4.28 -1.01 -1.00 4429
0.13 -0.01 7.24 11.16 31.21 4.28 -1.17 -0.95 4435
0.11 -0.01 11.58 17.32 26.57 4.28 -1.14 -1.04 4442
0.09 -0.01 10.09 20.33 15.77 4.27 -0.49 -1.40 4449
0.06 -0.01 8.90 22.34 -4.51 3.43 0.17 -2.26 4455
0.07 -0.01 7.04 19.48 11.02 2.39 0.13 -2.81 4461
0.06 0.00 8.44 14.15 29.62 0.62 1.26 -2.80 4467
0.06 -0.01 7.56 15.07 30.76 -1.35 2.22 -2.65 4473
0.05 -0.01 3.38 16.05 20.98 -2.60 2.25 -2.55 4481
0.07 -0.00 0.46 15.07 14.74 -3.37 1.66 -2.35 4487
0.07 -0.01 -0.66 12.54 12.99 -4.08 0.96 -2.02 4493
0.08 -0.00 -0.27 10.06 11.99 -4.28 0.38 -1.68 4499
0.06 -0.01 0.52 8.01 10.69 -4.28 -0.07 -1.42 4506
0.06 -0.01 1.14 6.13 9.40 -4.28 -0.41 -1.22 4512
0.06 -0.01 1.60 4.59 8.09 -4.28 -0.64 -1.05 4518
0.07 -0.01 1.93 3.40 6.94 -4.28 -0.76 -0.91 4525
0.06 -0.01 2.62 2.73 6.29 -4.28 -0.81 -0.82 4531
0.05 -0.00 3.43 2.01 6.23 -4.28 -0.81 -0.75 4537
0.05 0.00 4.18 1.55 6.25 -4.28 -0.75 -0.73 4543
0.05 -0.01 4.73 1.41 6.68 -4.28 -0.62 -0.74 4549
0.06 -0.01 5.19 1.37 7.41 -4.27 -0.43 -0.76 4556
0.05 0.00 5.29 1.43 8.33 -4.27 -0.19 -0.77 4562
0.07 -0.01 5.23 1.55 9.31 -4.28 0.10 -0.74 4569
0.05 -0.00 5.01 1.64 10.42 -4.28 0.32 -0.67 4575
0.03 -0.00 4.71 1.92 11.93 -4.28 0.59 -0.60 4581
0.04 0.00 4.48 1.18 13.20 -4.28 0.90 -0.46 4587
0.04 -0.00 4.52 0.25 13.82 -4.28 1.12 -0.33 4594
0.04 -0.00 4.46 -0.39 14.27 -4.28 1.37 -0.18 4600
0.05 -0.00 4.02 -1.24 14.46 -4.28 1.51 -0.04 4606
0.05 -0.00 3.86 -2.17 14.30 -4.28 1.58 0.08 4613
0.05 -0.01 3.51 -2.99 15.33 -4.28 1.60 0.18 4619
0.05 -0.00 3.63 -3.98 15.25 -4.28 1.64 0.27 4625
0.06 -0.01 3.47 -4.95 15.72 -4.28 1.70 0.33 4632
0.05 -0.01 3.44 -6.58 16.31 -4.28 1.72 0.36 4638
0.05 -0.00 3.35 -7.88 17.50 -4.28 1.79 0.34 4644
0.05 -0.00 3.23 -8.12 18.04 -4.28 1.87 0.31 4651
0.05 -0.00 2.93 -8.49 18.71 -4.28 1.91 0.26 4657
0.04 -0.00 2.59 -8.72 18.63 -4.28 1.97 0.23 4663
0.06 -0.01 2.49 -8.96 18.41 -4.26 2.04 0.22 4670
0.05 -0.00 2.45 -9.38 18.40 -4.16 2.07 0.26 4676
0.04 -0.00 2.34 -9.82 18.83 -3.98 2.10 0.32 4682
0.05 -0.01 2.57 -9.90 20.15 -3.77 2.17 0.43 4688
0.05 -0.00 2.82 -10.15 22.19 -3.54 2.31 0.56 4695
0.04 -0.00 2.74 -10.27 23.89 -3.38 2.44 0.72 4702
0.05 -0.01 2.26 -10.44 25.17 -3.34 2.63 0.91 4708
0.05 -0.00 1.78 -11.09 25.82 -3.42 2.69 1.11 4714
0.04 -0.00 1.35 -11.92 25.40 -3.55 2.67 1.31 4720
0.06 -0.01 0.87 -13.21 24.59 -3.67 2.56 1.50 4726
0.05 -0.01 0.72 -14.53 23.44 -3.73 2.41 1.66 4733
0.06 0.00 0.76 -15.67 22.40 -3.72 2.25 1.74 4740
0.05 -0.00 0.97 -16.83 21.18 -3.62 2.12 1.81 4746
0.05 -0.01 1.26 -17.95 19.93 -3.45 2.02 1.84 4752
0.06 -0.01 1.13 -18.74 17.88 -3.23 2.01 1.86 4759
0.06 -0.01 0.62 -19.63 17.16 -2.98 2.12 1.91 4765
0.06 0.00 -0.51 -20.75 16.25 -2.75 2.27 1.98 4771
0.07 -0.01 -2.63 -21.67 15.42 -2.55 2.37 2.07 4777
0.05 -0.01 -5.45 -22.64 14.28 -2.39 2.48 2.18 4785
0.07 -0.00 -7.27 -24.58 13.43 -2.27 2.50 2.29 4791
0.05 -0.01 -8.86 -27.05 12.71 -2.17 2.12 2.30 4797
0.06 -0.01 -9.62 -29.75 8.76 -2.04 1.48 2.19 4803
0.06 -0.01 -8.83 -31.05 4.87 -1.84 0.81 2.00 4809
0.05 -0.01 -7.40 -32.01 2.30 -1.51 0.34 1.73 4816
0.05 -0.01 -6.08 -32.38 1.31 -1.09 0.16 1.40 4823
0.06 0.00 -5.31 -31.84 0.91 -0.66 0.22 1.02 4829
0.05 -0.00 -4.93 -30.12 2.03 -0.11 0.35 0.60 4835
0.05 -0.00 -5.07 -27.19 3.88 0.39 0.41 0.20 4841
0.06 -0.01 -16.86 -47.83 45.78 1.26 -0.09 0.17 4847
0.05 -0.01 -2.38 -25.30 -3.18 3.22 -0.37 0.43 4854
0.04 0.00 -9.60 -19.30 2.48 3.43 -1.37 0.50 4860
0.05 0.07 -8.09 -23.07 -0.80 3.27 -2.51 0.59 4867
0.04 0.19 -2.30 -12.52 0.50 3.04 -3.73 0.59 4873
0.03 0.37 -1.07 6.24 6.50 3.33 -3.01 0.83 4879
0.02 0.60 4.94 2.73 18.68 4.13 -0.98 1.38 4886
0.00 0.88 0.46 0.75 22.03 4.28 -0.34 1.72 4892
-0.01 1.20 -11.00 -5.52 26.62 4.28 -0.74 1.38 4898
-0.02 1.42 -10.29 -6.88 27.38 4.28 -1.20 0.74 4904
-0.03 1.51 -3.91 -6.52 25.03 4.28 -1.02 0.31 4912
-0.01 1.50 -4.48 -4.91 26.73 4.23 -0.37 0.03 4918
-0.02 1.56 -3.47 -2.84 22.21 3.67 -0.40 -0.41 4924
-0.02 1.55 4.33 -3.90 30.47 3.02 -1.37 -0.73 4930
-0.01 1.51 6.16 -1.90 16.88 1.17 -2.06 -0.40 4937
-0.01 1.48 2.95 -2.86 13.23 0.63 -1.34 0.08 4943
0.01 1.49 0.29 -1.61 11.65 0.36 -0.83 0.25 4950
0.00 1.43 -0.71 -0.50 11.18 0.14 -0.35 0.22 4956
-0.01 1.45 -0.44 -0.88 10.47 -0.02 -0.13 0.09 4963
-0.00 1.48 0.75 -1.34 9.86 -0.04 -0.09 0.04 4969
0.00 1.48 1.14 -1.26 9.78 -0.04 -0.09 0.06 4975
0.02 1.46 0.72 -0.86 10.08 -0.04 -0.09 0.08 4981
0.03 1.46 0.33 -0.72 10.20 -0.05 -0.10 0.05 4987
0.06 1.45 0.56 -0.83 10.11 -0.05 -0.10 0.04 4994
0.06 1.42 0.71 -0.79 10.05 -0.04 -0.10 0.05 5001
0.03 1.40 0.66 -0.66 10.06 -0.04 -0.10 0.04 5007
0.09 1.34 0.56 -0.58 10.00 -0.02 -0.10 0.04 5013
0.07 1.27 0.68 -0.67 10.12 -0.01 -0.09 0.03 5019
0.09 1.23 0.68 -0.70 10.15 -0.00 -0.09 0.03 5025
0.11 1.17 0.68 -0.60 11.39 0.00 -0.08 0.03 5032
0.15 1.11 0.65 -0.66 10.13 0.01 -0.08 0.03 5039
0.16 1.00 0.64 -0.70 10.05 0.02 -0.07 0.03 5045
0.18 0.91 0.66 -0.73 10.12 0.02 -0.06 0.03 5051
0.22 0.84 0.58 -0.71 10.04 0.03 -0.06 0.04 5057
0.23 0.70 1.19 -0.77 10.11 0.03 -0.05 0.04 5064
0.24 0.72 0.67 -0.80 9.96 0.04 -0.04 0.05 5070
0.26 0.61 0.63 -0.72 9.95 0.05 -0.04 0.04 5076
0.27 0.51 0.65 -0.49 9.95 0.05 -0.03 0.04 5083
0.30 0.42 0.73 -0.72 10.00 0.05 -0.03 0.04 5089
0.37 0.40 0.72 -0.80 10.00 0.06 -0.03 0.03 5095
0.39 0.27 0.72 -0.76 10.08 0.06 -0.03 0.03 5102
0.40 0.24 0.69 -0.88 9.98 0.06 -0.03 0.03 5108
0.40 0.23 0.73 -0.82 10.04 0.06 -0.03 0.02 5114
0.44 0.14 0.66 -0.77 10.00 0.06 -0.03 0.02 5121
0.44 0.12 0.74 -0.83 9.96 0.07 -0.03 0.02 5127
0.47 0.09 0.65 -0.77 10.08 0.07 -0.04 0.01 5134
0.55 0.04 0.60 -0.79 10.02 0.09 -0.04 0.01 5140
0.57 0.03 0.58 -0.75 10.04 0.10 -0.05 0.01 5146
0.62 0.02 0.63 -0.70 10.07 0.11 -0.06 0.01 5152
0.67 -0.01 0.57 -0.87 10.05 0.12 -0.06 0.01 5158
0.72 -0.01 0.61 -0.82 9.94 0.14 -0.06 0.01 5165
0.74 -0.01 0.68 -0.74 10.00 0.15 -0.06 0.01 5172
0.78 -0.02 0.69 -0.90 10.04 0.16 -0.06 0.00 5178
0.76 -0.03 0.69 -0.90 10.00 0.17 -0.06 0.00 5184
0.79 -0.04 0.76 -0.99 10.10 0.18 -0.06 -0.01 5190
0.86 -0.05 0.74 -0.95 10.03 0.18 -0.05 -0.01 5196
0.91 -0.05 0.74 -0.97 9.94 0.18 -0.05 -0.02 5202
0.93 -0.04 0.71 -0.96 10.04 0.18 -0.05 -0.02 5210
0.99 -0.06 0.73 -1.00 9.96 0.17 -0.05 -0.03 5216
1.01 -0.05 0.72 -1.04 10.03 0.17 -0.04 -0.03 5222
1.03 -0.05 0.73 -1.04 9.98 0.17 -0.04 -0.04 5228
1.07 -0.05 0.76 -1.05 10.04 0.18 -0.04 -0.05 5234
1.08 -0.05 0.72 -1.11 10.05 0.19 -0.04 -0.05 5241
1.07 -0.06 0.72 -1.13 10.13 0.21 -0.04 -0.06 5248
1.13 -0.04 0.77 -1.07 10.06 0.24 -0.05 -0.07 5254
1.16 -0.06 0.69 -1.11 10.09 0.27 -0.06 -0.07 5260
1.22 -0.05 0.72 -1.14 10.05 0.29 -0.07 -0.08 5266
1.27 -0.05 0.76 -1.19 10.10 0.32 -0.08 -0.08 5273
1.29 -0.07 0.67 -1.24 10.15 0.34 -0.08 -0.08 5279
1.36 -0.04 0.65 -1.24 10.31 0.38 -0.09 -0.08 5285
1.39 -0.06 0.78 -1.29 10.44 0.44 -0.09 -0.08 5292
1.40 -0.06 0.73 -1.32 10.46 0.52 -0.09 -0.09 5299
1.49 -0.05 0.70 -1.39 10.56 0.60 -0.10 -0.10 5305
1.52 -0.05 0.76 -1.46 10.87 0.69 -0.10 -0.10 5311
1.60 -0.06 0.74 -1.52 11.00 0.79 -0.11 -0.11 5317
1.67 -0.07 0.74 -1.66 11.20 0.90 -0.13 -0.12 5323
1.75 -0.06 0.86 -1.63 11.26 1.00 -0.15 -0.12 5330
1.78 -0.07 0.86 -1.75 11.52 1.10 -0.17 -0.13 5337
1.86 -0.06 0.89 -1.85 11.68 1.22 -0.19 -0.15 5343
1.92 -0.06 0.84 -1.82 11.91 1.35 -0.22 -0.15 5349
1.95 -0.05 0.66 -1.99 12.42 1.48 -0.26 -0.15 5356
1.98 -0.06 0.68 -2.07 12.14 1.61 -0.31 -0.15 5362
2.00 -0.07 0.61 -2.06 12.81 1.78 -0.35 -0.14 5368
2.04 -0.07 0.45 -1.98 13.27 1.97 -0.39 -0.13 5374
2.07 -0.07 0.32 -2.26 13.21 2.18 -0.43 -0.11 5382
2.05 -0.05 0.56 -2.39 13.16 2.37 -0.44 -0.10 5388
2.06 -0.07 0.32 -2.61 13.72 2.57 -0.43 -0.11 5394
2.04 -0.05 0.39 -2.63 13.69 2.81 -0.40 -0.11 5400
2.04 -0.05 0.66 -2.79 13.86 3.08 -0.40 -0.13 5406
2.01 -0.08 0.85 -2.77 14.02 3.37 -0.41 -0.17 5413
1.98 -0.08 1.11 -3.23 14.52 3.68 -0.41 -0.21 5420
1.88 -0.07 0.59 -3.09 14.88 4.01 -0.47 -0.26 5426
1.81 -0.08 0.68 -3.13 16.44 4.24 -0.53 -0.30 5432
1.67 -0.06 1.62 -3.12 17.03 4.28 -0.63 -0.34 5439
1.48 -0.06 2.92 -4.07 18.35 4.28 -0.82 -0.46 5445
1.31 -0.06 2.78 -5.24 20.05 4.28 -0.97 -0.65 5451
1.15 -0.07 3.57 -6.38 22.13 4.28 -1.18 -0.83 5457
1.03 -0.06 3.20 -9.75 26.88 4.28 -1.37 -1.00 5465
0.88 -0.04 2.68 -13.89 31.50 4.28 -1.41 -1.12 5471
0.78 -0.04 3.18 -16.74 35.01 4.28 -1.17 -1.12 5477
0.65 -0.04 3.68 -17.20 33.12 4.28 -0.76 -1.11 5483
0.56 -0.04 3.75 -14.09 29.91 4.28 -0.42 -1.12 5490
0.47 -0.04 3.54 -10.04 28.04 4.28 -0.15 -1.16 5496
0.35 -0.02 2.71 -5.95 30.58 4.28 0.09 -1.19 5502
0.26 -0.03 2.45 -3.50 32.93 4.28 -0.07 -1.27 5509
0.16 -0.02 3.65 -0.30 32.05 4.28 -0.61 -1.42 5516
0.17 -0.02 5.34 4.20 32.19 4.28 -1.12 -1.53 5522
0.10 -0.01 7.65 6.63 28.18 4.28 -1.39 -1.59 5528
0.09 -0.01 9.97 11.23 24.91 4.28 -1.38 -1.58 5534
0.09 -0.01 12.62 17.74 21.82 4.28 -1.16 -1.73 5540
0.04 -0.00 9.93 18.25 5.72 4.27 -0.74 -2.15 5548
0.05 0.01 10.95 23.68 -4.27 3.53 -0.85 -2.59 5554
0.07 -0.01 10.31 21.50 21.34 1.69 -0.20 -2.71 5560
0.06 -0.01 11.73 17.43 33.77 -0.59 0.96 -2.41 5566
0.07 -0.01 8.19 15.69 26.33 -2.39 1.58 -1.98 5573
0.07 -0.01 4.68 14.91 18.14 -3.39 1.66 -1.54 5579
0.07 0.00 3.32 13.13 12.29 -4.09 1.31 -1.10 5585
0.06 -0.00 2.78 10.88 12.59 -4.28 0.95 -0.72 5592
0.07 -0.01 3.27 8.69 10.50 -4.28 0.68 -0.43 5599
0.07 -0.01 3.62 6.61 8.68 -4.28 0.57 -0.20 5605
0.06 -0.01 3.83 4.97 7.47 -4.28 0.59 0.01 5611
0.06 -0.01 3.91 4.13 6.82 -4.28 0.71 0.17 5617
0.05 -0.00 4.03 3.53 6.60 -4.28 0.88 0.27 5623
0.07 -0.01 4.08 3.06 6.75 -4.27 1.03 0.31 5629
0.07 -0.01 3.99 2.72 7.00 -4.26 1.21 0.32 5636
0.08 -0.01 3.58 2.55 7.73 -4.26 1.40 0.31 5642
0.07 -0.01 3.14 2.62 8.52 -4.26 1.57 0.29 5648
0.08 -0.01 2.56 2.59 9.45 -4.27 1.72 0.28 5655
0.07 -0.01 2.08 2.43 10.48 -4.28 1.86 0.28 5661
0.07 -0.01 1.43 2.02 11.26 -4.28 1.91 0.30 5667
0.07 0.00 0.85 1.61 11.86 -4.28 1.96 0.32 5673
0.08 -0.01 0.53 0.94 12.20 -4.28 1.96 0.33 5680
0.08 -0.01 0.27 0.16 12.67 -4.28 1.91 0.33 5686
0.07 -0.00 0.17 -0.58 13.16 -4.28 1.82 0.32 5693
0.07 -0.01 0.13 -1.20 13.70 -4.28 1.74 0.30 5699
0.07 -0.01 0.12 -1.77 14.31 -4.28 1.74 0.28 5705
0.07 -0.01 0.27 -2.38 15.08 -4.28 1.82 0.23 5711
0.08 -0.01 0.30 -3.01 15.99 -4.28 1.98 0.17 5718
0.08 -0.01 0.28 -3.81 16.77 -4.28 2.16 0.09 5724
0.07 -0.01 0.11 -4.45 17.77 -4.28 2.29 -0.00 5730
0.08 -0.01 -0.28 -4.89 18.22 -4.28 2.42 -0.07 5737
0.07 -0.01 -0.71 -5.23 18.49 -4.28 2.52 -0.14 5743
0.06 -0.01 -1.06 -5.13 18.57 -4.28 2.55 -0.15 5749
0.07 -0.00 -1.29 -4.98 18.77 -4.27 2.52 -0.10 5755
0.07 -0.01 -1.50 -4.78 18.98 -4.24 2.44 -0.00 5762
0.06 -0.01 -1.69 -4.83 19.54 -4.18 2.37 0.12 5769
0.07 -0.00 -1.69 -5.33 19.98 -4.09 2.31 0.24 5775
0.07 -0.00 -1.77 -6.03 20.84 -3.96 2.26 0.35 5781
0.06 -0.01 -1.94 -6.73 21.75 -3.80 2.18 0.45 5787
0.07 -0.01 -2.43 -7.76 22.73 -3.69 2.06 0.52 5793
0.06 -0.01 -2.73 -8.74 23.21 -3.57 1.89 0.58 5800
0.06 -0.01 -2.90 -9.64 23.41 -3.46 1.67 0.62 5807
0.07 -0.01 -2.88 -10.23 23.65 -3.40 1.45 0.68 5813
0.06 -0.01 -2.46 -11.07 23.59 -3.39 1.21 0.74 5819
0.06 -0.01 -1.75 -12.09 23.02 -3.39 1.05 0.81 5825
0.06 -0.01 -1.10 -13.41 22.30 -3.39 0.96 0.89 5832
0.06 -0.01 -0.62 -14.85 21.00 -3.34 1.02 1.00 5838
0.06 -0.00 -0.52 -16.23 19.48 -3.22 1.19 1.11 5844
0.06 -0.01 -0.83 -17.49 18.10 -3.03 1.41 1.24 5851
0.05 -0.01 -1.51 -18.46 16.73 -2.80 1.65 1.38 5858
0.07 -0.00 -2.61 -19.68 16.24 -2.56 1.81 1.51 5864
0.07 -0.01 -4.09 -21.09 16.01 -2.36 1.85 1.65 5870
0.06 -0.01 -5.48 -22.96 14.97 -2.20 1.75 1.78 5876
0.07 -0.01 -6.50 -24.63 13.29 -2.10 1.55 1.89 5882
0.07 -0.01 -7.25 -26.40 10.95 -2.03 1.26 1.96 5890
0.07 -0.00 -7.85 -27.99 8.69 -1.94 0.95 1.98 5896
0.06 -0.01 -7.65 -29.94 6.60 -1.79 0.67 1.95 5902
0.05 -0.01 -7.71 -31.02 4.01 -1.56 0.43 1.85 5908
0.06 -0.00 -7.04 -31.87 2.90 -1.22 0.27 1.70 5914
0.06 -0.01 -6.51 -31.69 2.34 -0.89 0.16 1.50 5921
0.05 -0.00 -5.76 -30.67 2.31 -0.45 0.07 1.25 5927
0.05 -0.00 -8.31 -39.35 78.47 1.41 -0.58 1.06 5934
0.05 -0.00 -1.17 -26.82 0.82 2.27 0.16 0.99 5940
0.04 -0.00 -6.77 -25.46 -0.59 2.83 -0.29 0.85 5946
0.06 0.02 -8.27 -32.00 -0.73 3.03 -1.12 0.83 5953
0.04 0.15 -8.31 -28.75 -1.19 3.03 -2.41 0.78 5959
0.03 0.33 -2.63 5.54 -0.65 3.12 -2.69 0.68 5965
0.03 0.56 -1.06 -6.91 20.51 3.96 -1.90 0.71 5971
0.01 0.96 2.16 5.66 32.41 4.28 -1.18 0.80 5978
-0.01 1.27 -5.78 -3.81 27.59 4.28 -1.40 0.57 5985
-0.02 1.46 -5.63 -5.71 28.75 4.28 -1.69 0.12 5991
-0.02 1.61 -2.01 -7.16 23.76 4.27 -1.36 -0.05 5997
-0.01 1.66 -1.67 -5.30 25.68 4.13 -0.58 -0.08 6003
-0.02 1.66 -1.63 -2.61 21.46 3.45 -0.38 -0.27 6010
-0.01 1.59 1.68 -2.01 17.84 3.02 -0.44 -0.48 6017
-0.01 1.52 4.17 -2.94 24.92 2.65 -1.12 -0.44 6023
0.01 1.50 3.93 -1.29 13.83 0.97 -1.45 -0.12 6029
0.01 1.46 1.69 -2.23 12.91 0.41 -0.83 0.16 6036
0.02 1.45 -0.22 -1.69 11.36 0.12 -0.35 0.21 6042
0.00 1.44 -0.45 -0.92 10.45 0.02 -0.13 0.12 6048
0.02 1.44 0.35 -1.24 10.23 -0.03 -0.09 0.05 6054
0.04 1.49 1.06 -1.26 10.11 -0.04 -0.08 0.07 6062
0.04 1.52 1.06 -0.92 10.04 -0.06 -0.10 0.08 6068
0.05 1.50 0.57 -0.78 10.16 -0.05 -0.11 0.08 6074
0.07 1.46 0.55 1.06 10.63 -0.05 -0.09 0.08 6080
0.05 1.45 0.71 -0.81 9.88 -0.03 -0.07 0.06 6086
0.09 1.38 0.75 -0.74 9.95 -0.02 -0.07 0.06 6092
0.09 1.29 0.69 -0.72 10.13 -0.02 -0.06 0.06 6099
0.11 1.25 0.72 -0.78 10.13 -0.01 -0.05 0.05 6106
0.14 1.19 0.74 -0.79 10.11 0.00 -0.04 0.06 6112
0.18 1.12 0.70 -0.76 10.11 0.01 -0.03 0.05 6118
0.18 1.05 0.66 -0.73 10.04 0.02 -0.02 0.05 6124
0.18 0.93 0.75 -0.78 10.05 0.03 -0.02 0.05 6131
0.18 0.85 0.78 -0.78 10.03 0.04 -0.01 0.05 6137
0.18 0.77 0.76 -0.74 10.03 0.04 -0.00 0.05 6144
0.23 0.73 0.77 -0.76 10.05 0.05 -0.00 0.05 6150
0.23 0.62 0.70 -0.74 10.11 0.05 -0.03 0.05 6156
0.26 0.52 0.75 -0.67 9.98 0.06 0.00 0.05 6162
0.29 0.49 0.78 -0.78 10.00 0.06 0.01 0.05 6169
0.29 0.43 0.98 -1.13 10.12 0.07 0.01 0.05 6175
0.32 0.38 0.85 -0.80 10.01 0.07 0.01 0.04 6181
0.37 0.27 0.76 -0.86 9.99 0.07 0.01 0.04 6188
0.38 0.23 0.84 -0.84 10.04 0.07 0.01 0.03 6194
0.38 0.13 0.80 -0.89 9.96 0.07 0.01 0.03 6201
0.41 0.12 0.82 -0.73 10.02 0.07 0.01 0.03 6207
0.44 0.09 0.88 -0.83 10.03 0.07 0.01 0.02 6213
0.45 0.09 0.89 -0.80 10.01 0.06 0.01 0.02 6219
0.48 0.06 0.81 -0.99 10.03 0.07 0.00 0.02 6225
0.47 0.03 0.78 -0.89 10.03 0.07 0.00 0.02 6232
0.46 0.00 0.79 -0.90 10.04 0.08 0.00 0.02 6239
0.48 0.01 0.84 -0.86 10.08 0.08 -0.01 0.02 6245
0.50 0.01 0.86 -0.91 10.00 0.09 -0.02 0.02 6251
0.51 -0.03 0.88 -1.26 10.01 0.09 -0.03 0.02 6257
0.51 -0.02 0.92 -0.86 10.05 0.10 -0.04 0.02 6263
0.58 -0.01 0.89 -0.91 9.99 0.10 -0.05 0.00 6269
0.61 -0.04 0.91 -0.99 9.93 0.10 -0.07 -0.01 6277
0.65 -0.04 0.89 -0.98 9.92 0.10 -0.07 -0.02 6283
0.67 -0.04 0.86 -1.03 9.91 0.10 -0.07 -0.03 6289
0.64 -0.04 0.87 -1.03 9.92 0.09 -0.08 -0.03 6295
0.67 -0.04 0.87 -1.03 9.85 0.08 -0.08 -0.03 6301
0.73 -0.04 0.84 -1.08 9.91 0.07 -0.07 -0.04 6307
0.74 -0.04 0.82 -1.01 9.92 0.06 -0.07 -0.04 6313
0.77 -0.04 0.85 -1.02 9.90 0.05 -0.06 -0.04 6321
0.80 -0.03 0.80 -1.04 9.94 0.05 -0.06 -0.04 6327
0.85 -0.04 0.82 -1.08 9.91 0.04 -0.05 -0.04 6333
0.89 -0.06 0.84 -1.03 9.97 0.04 -0.05 -0.05 6339
0.91 -0.05 0.80 -1.03 9.96 0.05 -0.04 -0.05 6345
0.91 -0.05 0.81 -1.05 9.96 0.05 -0.04 -0.05 6351
0.94 -0.06 0.78 -1.01 9.97 0.06 -0.03 -0.04 6358
0.99 -0.05 0.73 -1.05 9.98 0.06 -0.03 -0.03 6365
1.01 -0.04 0.77 -1.02 10.03 0.07 -0.02 -0.02 6371
1.04 -0.05 0.71 -1.05 10.08 0.09 -0.02 -0.02 6377
1.09 -0.04 0.74 -1.06 10.09 0.10 -0.01 -0.01 6383
1.14 -0.04 0.78 -1.06 10.14 0.13 -0.01 -0.00 6389
1.17 -0.05 0.79 -1.15 10.13 0.16 -0.01 0.00 6396
1.22 -0.05 0.80 -1.14 10.26 0.21 -0.01 0.01 6403
1.27 -0.04 0.78 -1.20 10.37 0.27 -0.00 0.00 6409
1.33 -0.06 0.84 -1.21 10.60 0.37 0.01 0.00 6415
1.36 -0.05 0.96 -1.28 10.84 0.49 0.02 -0.01 6421
1.43 -0.05 1.04 -1.30 11.03 0.66 0.05 -0.02 6428
1.45 -0.06 1.06 -1.42 11.44 0.86 0.07 -0.05 6434
1.49 -0.05 1.24 -1.52 11.71 1.07 0.07 -0.08 6440
1.56 -0.05 1.14 -1.63 11.91 1.26 0.05 -0.11 6447
1.58 -0.06 1.15 -1.63 12.22 1.41 -0.00 -0.12 6453
1.62 -0.05 1.13 -1.71 12.40 1.55 -0.05 -0.13 6460
1.63 -0.06 1.07 -1.71 12.16 1.66 -0.11 -0.13 6466
1.67 -0.07 1.09 -1.86 12.34 1.80 -0.15 -0.14 6472
1.69 -0.06 0.88 -1.98 12.77 1.98 -0.16 -0.14 6478
1.73 -0.08 0.90 -1.98 13.16 2.17 -0.17 -0.14 6486
1.75 -0.07 1.13 -1.60 13.66 2.39 -0.20 -0.17 6492
1.79 -0.06 0.80 -2.43 13.09 2.65 -0.15 -0.15 6498
1.73 -0.07 1.09 -2.35 13.26 2.86 -0.16 -0.15 6504
1.76 -0.06 0.84 -2.44 14.03 3.08 -0.13 -0.16 6511
1.70 -0.05 1.03 -2.68 13.91 3.35 -0.06 -0.17 6517
1.69 -0.06 0.91 -2.45 13.85 3.65 0.03 -0.21 6523
1.65 -0.07 0.72 -2.94 14.74 3.99 0.03 -0.22 6530
1.54 -0.06 1.12 -2.94 15.39 4.23 0.04 -0.23 6537
1.44 -0.05 1.22 -3.27 16.80 4.28 0.02 -0.23 6543
1.27 -0.05 2.41 -3.79 17.89 4.28 -0.06 -0.28 6549
1.12 -0.06 3.14 -4.42 19.10 4.28 -0.28 -0.40 6555
0.94 -0.05 3.06 -5.96 21.28 4.28 -0.49 -0.55 6561
0.87 -0.04 3.21 -8.26 25.39 4.28 -0.69 -0.66 6568
0.74 -0.03 2.57 -10.81 27.90 4.28 -0.77 -0.74 6575
0.70 -0.04 2.63 -14.00 33.73 4.28 -0.79 -0.77 6581
0.58 -0.03 3.06 -15.78 35.87 4.28 -0.62 -0.70 6588
0.51 -0.02 3.73 -15.40 30.77 4.28 -0.48 -0.66 6594
0.39 -0.02 2.74 -12.49 28.60 4.28 -0.26 -0.70 6600
0.33 -0.01 0.96 -8.78 29.21 4.28 -0.08 -0.75 6606
0.23 -0.01 -0.16 -5.44 33.37 4.28 -0.31 -0.84 6614
0.22 -0.02 0.94 -3.48 33.69 4.28 -0.97 -0.91 6620
0.16 -0.02 4.38 -0.32 33.33 4.28 -1.51 -0.97 6626
0.15 -0.01 7.57 3.14 34.37 4.28 -1.81 -0.95 6632
0.10 -0.01 10.61 8.33 31.75 4.28 -1.55 -0.86 6638
0.10 -0.01 13.58 16.94 24.75 4.28 -0.93 -0.85 6645
0.08 -0.01 14.00 21.86 17.35 4.28 -0.09 -1.16 6651
0.08 -0.00 8.26 26.19 3.37 4.07 1.04 -1.88 6658
0.07 -0.01 8.75 25.66 0.29 2.76 1.18 -2.59 6664
0.06 -0.01 8.66 19.00 27.79 1.13 1.87 -2.68 6670
0.05 -0.00 7.81 17.79 34.31 -1.15 2.61 -2.48 6677
0.04 -0.00 3.29 18.72 23.72 -2.86 2.58 -2.25 6683
0.04 -0.00 0.06 17.18 15.62 -3.78 1.83 -1.96 6689
0.06 -0.01 -1.10 13.12 12.90 -4.24 0.91 -1.63 6695
0.06 -0.01 -0.37 10.11 12.92 -4.28 0.15 -1.33 6703
0.05 -0.01 1.07 8.34 11.79 -4.28 -0.38 -1.12 6709
0.06 -0.01 2.55 6.77 10.54 -4.28 -0.67 -0.95 6715
0.05 -0.00 3.46 5.44 9.48 -4.28 -0.70 -0.80 6721
0.03 -0.00 4.27 4.48 8.66 -4.28 -0.64 -0.65 6727
0.05 0.01 5.02 3.57 8.27 -4.28 -0.42 -0.59 6733
0.05 -0.00 5.66 2.65 8.03 -4.28 -0.15 -0.54 6739
0.05 -0.00 5.87 1.88 8.16 -4.28 0.12 -0.52 6747
0.04 -0.00 5.66 1.33 8.59 -4.28 0.38 -0.52 6753
0.05 -0.01 5.33 1.01 9.11 -4.28 0.64 -0.51 6759
0.05 -0.00 4.96 0.57 9.47 -4.28 0.88 -0.46 6765
0.05 -0.00 4.45 0.21 10.19 -4.28 1.08 -0.37 6771
0.04 -0.00 3.85 -0.28 10.48 -4.28 1.30 -0.30 6777
0.06 -0.01 3.45 -0.78 11.36 -4.28 1.46 -0.17 6784
0.05 -0.01 3.03 -1.22 12.28 -4.28 1.55 -0.03 6790
0.05 -0.00 2.77 -1.69 13.31 -4.28 1.58 0.09 6797
0.06 -0.01 2.63 -2.12 14.50 -4.28 1.58 0.19 6803
0.05 -0.00 2.51 -2.62 15.26 -4.28 1.58 0.27 6809
0.05 -0.00 2.37 -3.31 15.91 -4.28 1.61 0.33 6815
0.05 -0.01 2.29 -4.10 16.42 -4.28 1.65 0.36 6821
0.05 -0.01 2.22 -4.91 17.04 -4.28 1.72 0.36 6828
0.04 -0.00 2.11 -6.09 17.51 -4.28 1.80 0.34 6835
0.05 -0.00 2.07 -7.09 17.19 -4.28 1.87 0.27 6841
0.05 -0.00 1.79 -7.96 17.97 -4.28 1.94 0.26 6847
0.04 -0.00 1.58 -8.33 17.47 -4.28 1.98 0.23 6853
0.05 0.01 1.13 -8.86 17.28 -4.24 2.03 0.21 6859
0.06 -0.01 0.86 -9.30 17.17 -4.07 2.06 0.20 6866
0.04 -0.00 0.67 -9.54 18.01 -3.76 2.06 0.21 6873
0.05 0.00 0.43 -9.52 19.60 -3.47 2.06 0.23 6879
0.05 -0.00 0.39 -9.41 21.31 -3.26 2.09 0.26 6885
0.05 -0.00 0.38 -9.38 23.04 -3.14 2.17 0.30 6891
0.04 -0.00 0.04 -9.35 24.33 -3.13 2.18 0.33 6897
0.05 -0.00 -0.15 -9.64 25.07 -3.25 2.18 0.37 6903
0.04 -0.00 -0.13 -10.37 25.14 -3.43 2.11 0.41 6910
0.05 0.00 -0.08 -11.43 24.32 -3.62 2.02 0.45 6917
0.06 -0.01 -0.13 -12.58 22.34 -3.73 1.96 0.49 6923
0.05 -0.01 -0.41 -13.19 19.90 -3.72 2.00 0.57 6929
0.05 0.00 -1.18 -13.85 18.61 -3.62 2.16 0.72 6936
0.05 -0.00 -2.47 -14.46 18.01 -3.46 2.28 0.87 6942
0.04 -0.00 -3.73 -15.09 17.62 -3.27 2.26 1.03 6948
0.06 -0.01 -4.81 -15.81 17.55 -3.10 2.10 1.20 6955
0.05 -0.01 -5.96 -16.48 17.97 -2.92 1.82 1.41 6962
0.06 -0.01 -6.75 -16.94 17.90 -2.77 1.52 1.63 6968
0.06 -0.01 -6.47 -18.43 14.87 -2.74 1.29 1.82 6974
0.05 -0.00 -6.20 -20.10 14.57 -2.70 1.00 1.95 6980
0.06 -0.00 -5.83 -22.90 12.73 -2.66 0.73 1.98 6986
0.05 -0.01 -5.17 -25.16 10.66 -2.52 0.59 1.96 6993
0.04 -0.00 -5.15 -27.03 8.03 -2.35 0.62 1.89 7000
0.05 -0.01 -5.11 -28.64 5.41 -2.05 0.76 1.77 7006
0.05 -0.01 -5.52 -29.67 3.77 -1.65 0.91 1.63 7012
0.04 -0.00 -7.64 -34.83 10.76 -0.90 0.91 1.47 7018
0.05 -0.01 -8.83 -34.91 2.29 0.28 0.90 1.30 7025
0.05 -0.00 -9.87 -31.40 -4.45 1.01 0.69 1.19 7031
0.04 -0.00 -9.51 -28.04 -3.66 1.50 0.21 0.96 7037
0.05 0.00 -9.16 -29.96 8.01 2.22 -0.90 0.80 7044
0.05 0.02 -10.76 -30.51 5.84 2.57 -1.67 0.65 7050
0.03 0.10 -6.16 -31.71 -0.00 2.73 -2.55 0.51 7057
0.05 0.23 -7.18 -29.01 -5.93 2.81 -3.33 0.48 7063
0.04 0.39 0.42 -6.14 4.46 3.74 -2.98 0.75 7069
0.03 0.61 1.06 -6.84 25.23 4.28 -1.41 1.08 7075
0.02 1.01 0.39 0.44 29.62 4.28 -0.56 1.34 7081
-0.01 1.36 -8.75 -2.17 33.83 4.28 -1.08 1.06 7089
-0.00 1.49 -8.43 -5.47 30.42 4.28 -1.31 0.49 7095
-0.01 1.53 -3.21 -6.39 23.27 4.17 -0.99 0.11 7101
-0.01 1.53 -4.24 -5.03 23.28 3.99 -0.37 -0.15 7107
-0.00 1.52 -1.51 -3.05 21.06 3.57 -0.31 -0.49 7114
0.01 1.47 4.79 -3.15 29.54 3.00 -1.14 -0.65 7120
0.01 1.46 5.66 -1.77 14.12 1.07 -1.31 -0.27 7127
0.02 1.41 2.85 -2.42 12.08 0.45 -0.83 0.11 7133
0.02 1.35 0.89 -1.65 11.05 0.24 -0.55 0.22 7140
0.02 1.34 -0.31 -0.81 10.43 0.09 -0.23 0.19 7146
0.01 1.33 -0.18 -0.82 9.91 -0.01 -0.10 0.09 7152
-0.00 1.34 0.66 -1.24 10.02 -0.04 -0.06 0.05 7158
0.01 1.35 1.09 -1.34 10.22 -0.05 -0.07 0.07 7164
0.01 1.36 0.84 -0.95 9.88 -0.05 -0.08 0.08 7171
0.04 1.39 0.65 -0.89 9.95 -0.06 -0.09 0.07 7178
0.03 1.35 0.66 -0.76 10.06 -0.05 -0.10 0.05 7184
0.07 1.33 0.80 -0.88 10.05 -0.04 -0.08 0.06 7190
0.08 1.27 0.78 -0.78 9.98 -0.04 -0.08 0.05 7196
0.08 1.25 0.67 -0.73 10.04 -0.03 -0.07 0.05 7202
0.11 1.19 0.73 -0.77 10.03 -0.02 -0.07 0.05 7209
0.11 1.15 0.67 -0.80 10.11 -0.01 -0.06 0.05 7216
0.13 1.09 0.78 -0.80 10.12 0.00 -0.05 0.05 7222
0.17 1.01 0.79 -0.84 10.00 0.01 -0.05 0.04 7228
0.15 0.99 0.77 -0.76 10.03 0.02 -0.04 0.04 7234
0.20 0.89 0.77 -0.79 10.04 0.02 -0.05 0.04 7240
0.22 0.80 0.72 -0.73 10.06 0.03 -0.05 0.04 7247
0.21 0.71 0.74 -0.77 10.01 0.03 -0.05 0.04 7254
0.23 0.64 0.73 -0.52 10.00 0.04 -0.05 0.04 7260
0.25 0.56 0.76 -0.77 10.07 0.04 -0.04 0.04 7266
0.30 0.50 0.93 -1.23 10.17 0.05 -0.04 0.04 7272
0.34 0.46 0.76 -0.81 10.01 0.06 -0.04 0.03 7279
0.36 0.37 0.98 -0.73 10.13 0.06 -0.04 0.03 7285
0.37 0.27 0.90 -1.06 10.03 0.06 -0.04 0.03 7291
0.43 0.25 0.77 -0.91 9.99 0.06 -0.05 0.03 7298
0.45 0.24 0.79 -0.89 10.03 0.07 -0.05 0.02 7304
0.50 0.11 0.74 -0.87 10.04 0.06 -0.04 0.02 7311
0.53 0.09 0.72 -0.86 9.95 0.07 -0.04 0.02 7317
0.55 0.10 0.83 -0.94 10.05 0.07 -0.04 0.02 7323
0.57 0.05 0.75 -0.90 10.03 0.08 -0.04 0.02 7329
0.62 0.04 0.73 -0.90 10.05 0.09 -0.04 0.02 7335
0.65 0.01 0.73 -0.81 10.12 0.10 -0.04 0.02 7342
0.67 -0.02 0.77 -0.88 10.05 0.12 -0.04 0.02 7349
0.73 -0.01 0.75 -0.85 10.05 0.14 -0.04 0.02 7355
0.75 -0.03 0.74 -0.91 10.14 0.15 -0.04 0.01 7361
0.77 -0.03 0.74 -0.95 10.06 0.17 -0.05 0.01 7367
0.82 -0.02 0.75 -0.98 10.04 0.19 -0.04 0.01 7373
0.83 -0.05 0.81 -1.04 10.05 0.20 -0.05 0.00 7380
0.84 -0.04 0.82 -1.07 10.01 0.20 -0.06 0.00 7387
0.90 -0.05 0.80 -1.06 9.97 0.21 -0.07 -0.00 7393
0.93 -0.06 0.83 -1.10 9.99 0.22 -0.07 -0.00 7399
0.94 -0.06 0.85 -1.08 9.98 0.22 -0.07 -0.01 7405
0.95 -0.04 0.80 -1.07 9.95 0.22 -0.06 -0.02 7411
0.97 -0.04 0.79 -1.19 9.87 0.22 -0.06 -0.03 7418
0.99 -0.06 0.81 -1.15 9.94 0.22 -0.05 -0.03 7425
1.01 -0.04 0.78 -1.17 9.92 0.21 -0.04 -0.03 7431
1.04 -0.04 0.79 -1.21 9.85 0.20 -0.03 -0.04 7437
1.04 -0.05 0.81 -1.24 9.90 0.20 -0.01 -0.04 7443
1.04 -0.05 0.77 -1.22 9.94 0.19 -0.01 -0.04 7449
1.08 -0.04 0.76 -1.25 9.94 0.20 -0.02 -0.04 7455
1.12 -0.05 0.72 -1.24 9.87 0.21 -0.01 -0.04 7462
1.16 -0.05 0.75 -1.24 9.95 0.21 -0.01 -0.04 7469
1.19 -0.04 0.75 -1.28 9.98 0.21 -0.01 -0.03 7475
1.25 -0.07 0.73 -1.25 10.00 0.22 -0.01 -0.02 7481
1.27 -0.05 0.75 -1.34 10.15 0.25 -0.02 -0.02 7487
1.28 -0.05 0.76 -1.35 10.21 0.28 -0.02 -0.01 7494
1.31 -0.06 0.79 -1.37 10.30 0.32 -0.03 -0.01 7500
1.32 -0.05 0.88 -1.42 10.46 0.39 -0.03 -0.02 7506
1.39 -0.06 0.88 -1.53 10.56 0.47 -0.03 -0.03 7513
1.46 -0.07 0.88 -1.55 10.65 0.57 -0.04 -0.04 7519
1.49 -0.06 0.96 -1.60 10.78 0.66 -0.04 -0.06 7526
1.52 -0.07 0.97 -1.62 11.00 0.77 -0.05 -0.07 7532
1.59 -0.07 1.02 -1.68 11.29 0.88 -0.07 -0.08 7538
1.61 -0.06 1.03 -1.80 11.38 0.99 -0.09 -0.10 7544
1.67 -0.05 0.97 -1.86 11.58 1.10 -0.11 -0.11 7552
1.71 -0.07 0.94 -1.86 11.65 1.22 -0.15 -0.11 7558
1.76 -0.06 0.79 -1.93 11.72 1.34 -0.19 -0.10 7564
1.81 -0.07 0.78 -1.93 12.32 1.48 -0.22 -0.10 7570
1.79 -0.06 0.79 -2.05 12.53 1.64 -0.26 -0.09 7577
1.85 -0.07 0.86 -2.17 12.76 1.84 -0.28 -0.09 7583
1.88 -0.06 0.66 -2.33 13.07 2.05 -0.29 -0.07 7589
1.89 -0.05 0.48 -2.15 13.29 2.26 -0.29 -0.08 7596
1.92 -0.07 0.76 -2.44 13.28 2.46 -0.23 -0.09 7602
1.88 -0.06 0.57 -2.29 13.77 2.71 -0.24 -0.11 7609
1.90 -0.06 0.84 -2.59 13.65 2.99 -0.24 -0.12 7615
1.89 -0.08 1.00 -2.62 13.56 3.28 -0.24 -0.14 7621
1.80 -0.06 -3.76 5.35 15.42 3.57 -0.25 -0.21 7627
1.75 -0.06 1.23 -3.14 14.28 3.88 -0.28 -0.24 7634
1.68 -0.05 0.83 -2.82 15.54 4.16 -0.33 -0.26 7641
1.52 -0.05 1.28 -3.20 16.08 4.28 -0.40 -0.30 7647
1.39 -0.06 2.64 -4.09 17.54 4.28 -0.53 -0.38 7653
1.26 -0.05 3.64 -4.58 18.46 4.28 -0.68 -0.53 7660
1.07 -0.05 3.53 -6.09 20.01 4.28 -0.85 -0.72 7666
1.02 -0.05 3.24 -7.85 22.55 4.28 -1.07 -0.90 7672
0.89 -0.04 3.67 -11.31 28.75 4.28 -1.17 -1.00 7678
0.78 -0.04 3.43 -15.22 33.24 4.28 -1.01 -1.04 7686
0.70 -0.04 3.70 -17.36 34.22 4.28 -0.70 -0.97 7692
0.57 -0.03 3.39 -15.47 30.42 4.28 -0.42 -0.96 7698
0.46 -0.03 2.76 -12.71 27.10 4.28 -0.26 -0.98 7704
0.34 -0.01 2.10 -8.28 30.01 4.28 0.05 -1.00 7711
0.31 -0.02 0.90 -5.51 33.50 4.28 -0.05 -1.06 7717
0.20 -0.02 1.28 -3.23 33.52 4.28 -0.48 -1.18 7724
0.20 -0.02 3.60 0.09 33.06 4.28 -1.21 -1.28 7730
0.14 -0.01 6.29 3.20 33.16 4.28 -1.75 -1.33 7736
0.12 -0.01 9.15 6.99 31.11 4.28 -1.89 -1.32 7743
0.09 -0.01 10.18 13.05 23.13 4.28 -1.77 -1.28 7749
0.06 -0.01 12.30 17.62 18.65 4.28 -1.37 -1.57 7755
0.07 -0.00 11.44 19.87 -2.11 4.12 -0.86 -2.11 7761
0.05 -0.00 10.15 24.40 5.23 2.70 -0.87 -2.55 7769
0.04 -0.00 10.47 19.24 27.33 0.52 0.36 -2.59 7775
0.06 -0.01 10.19 14.63 30.53 -1.46 1.47 -2.38 7781
0.04 -0.00 6.37 13.55 21.30 -2.72 1.83 -2.14 7787
0.05 -0.00 3.50 13.11 14.63 -3.42 1.61 -1.86 7794
0.05 -0.01 1.61 11.69 11.68 -3.96 1.26 -1.55 7800
0.06 -0.00 2.13 9.59 9.46 -4.22 0.98 -1.26 7806
0.07 -0.00 2.79 7.62 7.93 -4.26 0.75 -1.04 7813
0.05 -0.01 3.06 5.92 7.19 -4.26 0.60 -0.86 7819
0.05 -0.01 3.15 4.69 6.74 -4.25 0.53 -0.67 7825
0.06 -0.01 3.26 4.03 6.39 -4.22 0.54 -0.50 7832
0.06 -0.01 3.70 3.65 5.95 -4.18 0.58 -0.36 7838
0.06 -0.01 3.97 3.41 5.83 -4.14 0.63 -0.27 7844
0.05 -0.00 4.02 3.18 6.14 -4.13 0.71 -0.18 7851
0.06 -0.00 4.01 2.94 6.87 -4.13 0.80 -0.10 7857
0.06 -0.01 3.99 2.74 7.88 -4.15 0.91 -0.01 7863
0.06 -0.01 3.82 2.51 8.88 -4.17 1.02 0.07 7869
0.06 -0.01 3.73 2.39 9.80 -4.20 1.14 0.17 7875
0.07 0.00 3.30 2.27 10.37 -4.25 1.28 0.28 7882
0.07 -0.01 2.91 2.04 10.89 -4.28 1.42 0.37 7888
0.07 -0.01 2.64 1.64 11.74 -4.28 1.53 0.48 7895
0.07 -0.00 2.38 1.03 12.63 -4.28 1.62 0.57 7901
0.05 -0.01 2.04 0.41 13.22 -4.28 1.67 0.64 7907
0.05 -0.00 1.85 -0.13 13.71 -4.28 1.71 0.68 7913
0.05 -0.01 1.72 -0.77 14.16 -4.28 1.75 0.70 7920
0.06 -0.01 1.58 -1.64 14.88 -4.28 1.81 0.67 7926
0.06 -0.01 1.46 -2.56 15.62 -4.28 1.90 0.60 7932
0.05 -0.01 1.26 -3.52 16.30 -4.28 2.03 0.51 7939
0.07 -0.01 0.90 -4.45 16.82 -4.28 2.14 0.39 7945
0.06 -0.01 0.54 -5.39 17.25 -4.28 2.29 0.23 7951
0.06 -0.01 0.14 -6.16 17.60 -4.28 2.41 0.12 7958
0.07 -0.01 -0.28 -6.66 17.84 -4.28 2.47 -0.02 7964
0.06 -0.01 -0.49 -6.81 18.23 -4.26 2.50 -0.11 7970
0.05 0.00 -0.68 -6.84 18.34 -4.18 2.47 -0.16 7976
0.07 -0.00 -0.75 -6.78 18.77 -4.05 2.39 -0.15 7983
0.06 -0.01 -0.72 -6.53 19.63 -3.86 2.30 -0.09 7989
0.06 -0.01 -0.59 -6.38 21.19 -3.68 2.20 -0.00 7996
0.07 -0.01 -0.69 -6.28 22.97 -3.61 2.12 0.12 8002
0.06 -0.01 -0.75 -6.48 24.45 -3.60 2.06 0.26 8008
0.05 -0.00 -0.93 -6.90 24.98 -3.68 1.94 0.41 8014
0.05 -0.01 -0.78 -8.07 24.96 -3.79 1.76 0.56 8020
0.05 -0.01 -0.75 -9.66 24.63 -3.87 1.59 0.66 8027
0.04 -0.00 -0.27 -11.49 23.67 -3.87 1.45 0.79 8034
0.05 -0.00 0.10 -13.41 22.48 -3.77 1.34 0.89 8040
0.05 -0.01 0.37 -15.01 21.51 -3.59 1.27 0.98 8046
0.05 -0.00 0.52 -16.31 21.16 -3.37 1.23 1.06 8052
0.07 -0.01 0.37 -17.25 20.84 -3.15 1.24 1.13 8059
0.06 -0.01 -0.01 -18.23 20.61 -3.00 1.28 1.21 8066
0.06 -0.01 -0.27 -19.10 19.65 -2.92 1.34 1.29 8072
0.06 -0.01 -1.16 -19.66 17.97 -2.89 1.50 1.40 8078
0.06 -0.01 -2.58 -20.58 16.80 -2.88 1.90 1.57 8084
0.06 -0.00 -3.77 -22.76 15.21 -2.85 2.27 1.72 8091
0.07 -0.01 -5.76 -25.98 13.11 -2.74 2.34 1.81 8097
0.06 -0.01 -7.77 -29.40 10.88 -2.62 2.22 1.88 8103
0.07 -0.01 -8.70 -32.36 7.56 -2.37 1.96 1.91 8110
0.06 -0.01 -9.46 -34.48 4.25 -2.02 1.63 1.86 8117
0.06 -0.01 -9.93 -35.43 1.81 -1.62 1.34 1.75 8123
0.07 -0.01 -10.17 -35.35 0.66 -1.16 1.07 1.56 8129
0.06 -0.01 -9.83 -34.34 1.20 -0.69 0.81 1.28 8135
0.06 -0.01 -11.69 -41.41 -4.13 -0.16 0.44 1.04 8141
0.06 -0.01 -17.05 -34.86 -2.68 2.54 -0.68 0.89 8148
0.06 -0.01 -14.56 -28.82 7.85 2.66 -1.14 0.73 8155
0.05 0.01 -11.25 -26.01 -0.29 3.10 -2.01 0.59 8161
0.05 0.07 -8.62 -32.93 -0.70 3.08 -3.27 0.58 8167
0.03 0.23 -3.71 -8.03 1.43 3.11 -4.02 0.59 8173
0.04 0.41 2.69 0.32 11.52 3.68 -2.73 0.91 8180
0.03 0.72 5.40 4.71 24.00 4.28 -0.69 1.60 8186
-0.01 1.13 -5.61 -1.59 27.41 4.28 -0.46 1.75 8193
-0.00 1.39 -14.94 -6.15 30.58 4.28 -1.05 1.11 8199
-0.00 1.51 -7.95 -6.97 26.51 4.28 -1.42 0.39 8206
-0.01 1.54 -4.01 -6.74 28.17 4.28 -0.86 0.00 8212
-0.01 1.48 -4.30 -3.65 25.79 4.09 -0.42 -0.36 8218
-0.00 1.46 1.83 -2.61 22.64 3.46 -0.71 -0.73 8224
0.01 1.44 4.74 -2.97 27.58 1.91 -2.00 -0.58 8231
0.01 1.44 4.50 -2.52 11.95 0.61 -1.30 0.01 8238
0.00 1.38 0.97 -2.46 12.21 0.38 -0.84 0.21 8244
0.04 1.37 -0.12 -1.16 11.61 0.16 -0.38 0.24 8250
0.04 1.37 -0.02 -0.82 10.45 0.01 -0.14 0.11 8256
0.05 1.40 0.46 -1.31 10.08 -0.04 -0.10 0.03 8263
0.03 1.39 1.34 -1.37 10.12 -0.05 -0.09 0.06 8269
0.04 1.36 1.03 -1.15 10.12 -0.06 -0.12 0.08 8275
0.11 1.41 -0.23 -0.60 9.82 -0.08 -0.12 0.04 8282
0.06 1.39 0.60 -0.91 9.97 -0.07 -0.13 0.04 8288
0.10 1.37 0.94 -0.90 10.10 -0.06 -0.12 0.04 8295
0.11 1.38 0.80 -0.81 10.08 -0.06 -0.11 0.04 8301
0.13 1.34 0.70 -0.77 10.06 -0.04 -0.09 0.04 8307
0.13 1.28 0.76 -0.78 10.02 -0.03 -0.08 0.03 8313
0.18 1.25 -0.62 -1.27 9.93 -0.01 -0.07 0.04 8320
0.19 1.14 0.77 -0.75 10.12 -0.00 -0.06 0.04 8327
0.20 1.10 0.78 -0.77 10.07 0.01 -0.05 0.04 8333
0.25 0.97 0.81 -0.78 10.08 0.02 -0.05 0.04 8339
0.27 0.92 0.78 -0.81 10.05 0.03 -0.04 0.04 8345
0.30 0.79 0.73 -0.82 10.06 0.04 -0.04 0.04 8351
0.32 0.70 0.77 -0.85 10.07 0.04 -0.04 0.04 8358
0.38 0.61 0.78 -0.86 10.03 0.05 -0.03 0.05 8365
0.41 0.54 0.77 -0.91 10.05 0.05 -0.03 0.05 8371
0.43 0.46 0.80 -0.82 10.04 0.06 -0.02 0.05 8377
0.44 0.38 0.77 -1.19 10.04 0.07 -0.02 0.04 8383
0.44 0.27 0.80 -0.87 9.98 0.07 -0.02 0.04 8389
0.46 0.28 0.91 -1.03 10.10 0.08 -0.01 0.03 8396
0.47 0.20 0.78 -0.86 9.87 0.08 -0.02 0.03 8402
0.48 0.15 0.89 -0.84 9.97 0.07 -0.02 0.02 8409
0.52 0.12 0.90 -0.90 10.06 0.07 -0.02 0.01 8415
0.57 0.09 0.92 -0.94 10.08 0.07 -0.02 0.01 8421
0.60 0.06 0.83 -0.87 10.09 0.08 -0.03 0.00 8427
0.63 0.04 0.84 -0.87 10.04 0.09 -0.03 0.00 8434
0.66 -0.01 0.85 -0.91 10.07 0.10 -0.03 0.00 8440
0.65 -0.04 0.75 -0.89 10.05 0.12 -0.03 0.00 8446
0.71 -0.00 0.77 -0.92 10.03 0.13 -0.02 0.01 8453
0.73 -0.01 0.77 -0.91 10.01 0.15 -0.02 0.00 8459
0.74 -0.03 0.80 -0.80 10.23 0.16 -0.02 0.00 8466
0.76 -0.03 0.86 -1.07 10.12 0.18 -0.02 0.01 8472
0.79 -0.04 0.91 -1.03 10.07 0.19 -0.03 -0.00 8478
0.82 -0.04 0.88 -1.01 10.05 0.20 -0.04 -0.01 8484
0.85 -0.04 0.90 -1.03 10.00 0.21 -0.04 -0.02 8491
0.89 -0.05 1.00 -1.15 10.04 0.23 -0.04 -0.03 8498
0.93 -0.05 0.95 -1.27 10.11 0.24 -0.03 -0.05 8504
0.96 -0.05 0.94 -1.19 9.96 0.26 -0.02 -0.06 8510
0.98 -0.05 0.93 -1.16 9.96 0.28 -0.01 -0.07 8516
0.98 -0.06 0.81 -1.21 9.92 0.29 -0.01 -0.08 8522
1.03 -0.04 0.86 -1.25 9.87 0.29 -0.00 -0.07 8528
1.05 -0.06 0.84 -1.22 9.88 0.28 0.00 -0.07 8536
1.08 -0.06 0.78 -1.24 9.93 0.27 -0.01 -0.07 8542
1.11 -0.06 0.80 -1.24 9.90 0.27 -0.01 -0.06 8548
1.17 -0.06 0.80 -1.31 10.02 0.26 -0.01 -0.05 8554
1.17 -0.06 0.84 -1.31 10.02 0.27 -0.02 -0.05 8560
1.22 -0.05 0.84 -1.30 10.13 0.29 -0.02 -0.04 8567
1.27 -0.06 0.86 -1.39 10.11 0.31 -0.02 -0.04 8573
1.28 -0.07 0.85 -1.38 10.18 0.34 -0.03 -0.05 8580
1.31 -0.05 0.82 -1.44 10.13 0.37 -0.03 -0.05 8586
1.37 -0.07 0.86 -1.45 10.26 0.41 -0.03 -0.04 8592
1.39 -0.06 0.88 -1.50 10.34 0.45 -0.04 -0.04 8599
1.45 -0.06 0.90 -1.50 10.26 0.49 -0.04 -0.04 8605
1.49 -0.06 0.92 -1.60 10.49 0.54 -0.04 -0.04 8611
1.53 -0.06 0.97 -1.62 10.66 0.61 -0.05 -0.05 8617
1.61 -0.06 1.08 -1.77 10.80 0.67 -0.07 -0.06 8624
1.65 -0.07 1.06 -1.77 10.91 0.75 -0.08 -0.08 8631
1.67 -0.06 1.03 -1.78 10.92 0.84 -0.10 -0.09 8637
1.72 -0.07 1.09 -1.92 11.09 0.93 -0.11 -0.10 8643
1.75 -0.07 1.10 -2.02 11.17 1.04 -0.13 -0.11 8649
1.78 -0.07 1.09 -2.09 11.33 1.16 -0.16 -0.12 8656
1.81 -0.07 0.94 -2.06 11.52 1.26 -0.19 -0.13 8663
1.83 -0.06 0.73 -2.22 11.70 1.37 -0.23 -0.13 8669
1.88 -0.07 0.69 -2.22 11.69 1.50 -0.27 -0.12 8675
1.92 -0.07 0.60 -2.40 11.45 1.65 -0.27 -0.10 8682
1.92 -0.06 0.74 -2.89 12.32 1.81 -0.29 -0.10 8688
1.93 -0.08 0.94 -2.48 12.59 2.02 -0.30 -0.11 8694
1.96 -0.06 0.82 -2.47 12.86 2.22 -0.29 -0.11 8700
1.93 -0.07 0.69 -2.71 13.07 2.43 -0.28 -0.12 8707
1.96 -0.09 0.82 -2.93 13.38 2.66 -0.26 -0.13 8714
1.95 -0.07 0.87 -2.83 13.58 2.90 -0.23 -0.16 8720
1.95 -0.07 1.46 -3.14 13.19 3.17 -0.21 -0.20 8726
1.89 -0.08 1.52 -3.39 13.72 3.47 -0.25 -0.24 8732
1.83 -0.05 1.33 -3.51 14.84 3.81 -0.24 -0.29 8739
1.80 -0.08 1.47 -3.40 15.32 4.15 -0.25 -0.34 8745
1.66 -0.06 1.37 -3.44 16.52 4.28 -0.27 -0.38 8752
1.51 -0.07 2.19 -4.01 18.07 4.28 -0.34 -0.46 8758
1.40 -0.08 2.80 -4.87 19.34 4.28 -0.52 -0.57 8765
1.13 -0.06 4.30 -6.07 20.69 4.28 -0.76 -0.74 8771
0.96 -0.06 3.74 -8.88 23.53 4.28 -0.94 -0.86 8777
0.88 -0.06 3.01 -9.16 26.12 4.28 -0.99 -0.92 8783
0.78 -0.04 1.84 -14.48 32.82 4.28 -0.85 -0.86 8791
0.65 -0.05 2.43 -16.22 34.25 4.28 -0.55 -0.72 8797
0.61 -0.02 3.22 -15.52 29.26 4.28 -0.19 -0.67 8803
0.49 -0.03 2.79 -13.56 27.09 4.28 0.08 -0.71 8809
0.38 -0.01 1.79 -8.87 29.56 4.28 0.34 -0.75 8816
0.29 -0.02 1.64 -6.42 31.89 4.28 0.28 -0.84 8822
0.18 -0.02 2.82 -3.89 31.52 4.28 -0.10 -0.94 8828
0.17 -0.01 5.38 0.64 31.37 4.28 -0.54 -1.07 8835
0.15 -0.01 8.02 4.69 31.51 4.28 -0.78 -1.16 8842
0.13 -0.01 10.13 7.65 31.55 4.28 -0.72 -1.21 8848
0.10 -0.01 8.58 13.00 27.71 4.28 -0.23 -1.24 8854
0.07 -0.01 10.25 18.31 21.19 4.28 0.38 -1.50 8860
0.06 -0.01 8.11 19.91 2.73 4.23 0.69 -2.07 8866
0.08 -0.00 6.94 26.67 1.49 2.77 0.14 -2.59 8873
0.07 -0.01 7.29 22.60 24.74 0.46 0.59 -2.73 8880
0.06 -0.01 8.09 16.86 31.96 -1.67 1.21 -2.57 8886
0.06 -0.01 4.72 14.92 22.55 -3.13 1.27 -2.33 8892
0.05 -0.01 2.34 14.20 15.77 -3.78 0.99 -2.03 8898
0.05 0.01 1.89 12.52 11.64 -4.22 0.70 -1.68 8905
0.05 -0.00 2.12 10.02 10.60 -4.28 0.48 -1.37 8911
0.05 -0.00 3.55 7.86 8.66 -4.28 0.34 -1.16 8918
0.06 -0.01 3.69 5.70 7.76 -4.28 0.29 -1.01 8924
0.05 -0.01 3.92 4.75 7.52 -4.28 0.34 -0.90 8930
0.05 -0.01 3.88 3.68 7.45 -4.28 0.52 -0.77 8936
0.05 -0.00 4.15 3.05 7.44 -4.28 0.81 -0.64 8943
0.06 -0.01 4.46 2.87 7.34 -4.28 1.11 -0.52 8949
0.06 -0.01 4.08 2.90 7.83 -4.28 1.36 -0.43 8955
0.05 -0.00 3.54 2.82 8.50 -4.28 1.55 -0.35 8962
0.05 -0.01 2.96 2.61 9.23 -4.28 1.66 -0.25 8968
0.07 -0.01 2.35 2.24 10.38 -4.28 1.75 -0.12 8974
0.06 -0.01 1.86 1.80 10.58 -4.28 1.80 -0.01 8980
0.05 -0.01 1.30 1.34 11.45 -4.28 1.81 0.14 8987
0.06 -0.01 0.91 0.84 11.98 -4.28 1.79 0.29 8993
0.06 -0.01 0.57 0.30 12.56 -4.28 1.76 0.43 8999
0.05 -0.00 0.42 -0.05 13.05 -4.28 1.73 0.55 9006
0.05 -0.01 0.43 -0.45 13.77 -4.28 1.73 0.63 9012
0.05 -0.01 0.38 -0.94 14.62 -4.28 1.80 0.67 9018
0.04 -0.00 0.46 -1.30 15.32 -4.28 1.86 0.67 9024
0.05 -0.00 0.47 -2.04 16.14 -4.28 1.99 0.63 9031
0.05 -0.00 0.29 -2.83 17.18 -4.28 2.14 0.55 9037
0.04 -0.00 -0.29 -3.61 18.14 -4.28 2.30 0.45 9043
0.04 -0.00 -1.11 -4.25 18.97 -4.28 2.45 0.35 9050
0.06 -0.01 -1.82 -4.71 19.43 -4.28 2.56 0.26 9056
0.04 0.00 -2.50 -4.83 19.68 -4.28 2.58 0.19 9062
0.04 -0.00 -3.09 -4.91 19.93 -4.28 2.52 0.16 9069
0.06 0.00 -3.38 -5.08 19.96 -4.28 2.42 0.17 9075
0.05 -0.00 -3.43 -5.26 19.88 -4.28 2.29 0.22 9081
0.04 -0.00 -3.26 -5.52 19.73 -4.26 2.17 0.30 9088
0.05 -0.00 -2.96 -5.70 19.71 -4.21 2.02 0.41 9094
0.04 -0.00 -2.77 -6.01 20.22 -4.10 1.87 0.51 9101
0.04 -0.00 -2.83 -6.39 21.22 -3.94 1.72 0.64 9107
0.05 -0.01 -2.92 -7.03 22.30 -3.76 1.57 0.77 9113
0.04 -0.00 -2.82 -7.74 23.50 -3.63 1.41 0.90 9119
0.04 -0.00 -2.72 -8.64 23.83 -3.57 1.20 1.02 9125
0.06 0.00 -2.53 -10.01 23.47 -3.53 0.97 1.11 9132
0.06 -0.00 -2.12 -11.77 22.78 -3.50 0.73 1.19 9139
0.05 0.00 -1.69 -13.56 21.84 -3.41 0.51 1.25 9145
0.06 -0.00 -1.02 -15.30 20.87 -3.26 0.35 1.27 9151
0.05 -0.00 -0.50 -16.66 19.85 -3.07 0.27 1.26 9157
0.06 0.00 -0.58 -19.96 22.48 -2.77 0.26 1.24 9164
0.05 -0.00 -0.19 -17.03 12.28 -2.51 0.44 1.21 9170
0.04 0.00 -1.24 -17.68 15.84 -2.56 0.56 1.18 9177
0.05 -0.00 -1.53 -20.35 16.55 -2.47 0.76 1.19 9184
0.04 -0.00 -2.26 -22.55 15.79 -2.36 1.05 1.21 9190
0.05 -0.00 -3.15 -24.42 13.80 -2.21 1.29 1.24 9196
0.05 -0.01 -4.37 -25.64 11.33 -2.15 1.41 1.27 9202
0.05 -0.01 -5.64 -27.11 9.05 -2.08 1.42 1.30 9208
0.06 -0.00 -6.83 -28.74 6.79 -1.99 1.32 1.30 9216
0.05 -0.01 -7.49 -30.47 5.25 -1.82 1.13 1.26 9222
0.05 -0.00 -7.95 -31.36 3.49 -1.55 0.89 1.19 9228
0.05 -0.00 -7.18 -31.57 2.16 -1.17 0.54 1.10 9234
0.04 -0.00 -6.82 -31.11 -1.70 -0.72 0.17 0.95 9240
0.04 -0.00 -7.66 -39.24 42.23 1.62 -0.16 0.64 9247
0.05 -0.00 -4.54 -26.54 -3.93 1.88 0.13 0.55 9253
0.04 -0.00 -4.16 -25.20 1.83 2.43 -0.32 0.34 9260
0.04 0.01 -4.76 -30.90 4.50 2.69 -1.19 0.13 9266
0.05 0.11 -6.48 -33.11 3.54 2.75 -2.00 -0.00 9272
0.03 0.26 -3.87 -11.21 -5.00 2.57 -2.48 0.08 9279
0.02 0.46 2.17 -1.39 5.26 3.24 -2.00 0.16 9285
0.02 0.75 4.49 -3.51 28.48 4.26 -1.14 0.41 9291
0.00 1.13 0.07 0.88 24.62 4.28 -1.24 0.41 9297
0.00 1.35 -2.91 -4.84 27.62 4.28 -1.63 0.16 9304
0.00 1.48 -1.44 -6.31 25.58 4.28 -1.55 0.06 9311
0.00 1.54 -2.11 -6.05 23.53 4.28 -1.13 0.07 9317
0.01 1.54 -2.68 -3.92 22.87 4.17 -0.63 -0.06 9323
0.01 1.54 -0.40 -3.45 27.91 3.89 -0.77 -0.33 9329
0.01 1.52 1.51 -0.15 21.71 1.91 -1.58 -0.32 9336
0.01 1.51 2.52 -2.78 11.89 0.31 -0.74 0.08 9342
-0.00 1.45 0.23 -2.63 11.46 0.08 -0.31 0.16 9349
0.04 1.44 -0.15 -1.33 10.32 0.02 -0.11 0.17 9355
0.04 1.41 0.05 -0.67 10.01 0.00 -0.05 0.11 9361
0.01 1.40 0.53 -1.05 10.10 -0.02 -0.02 0.07 9368
0.02 1.40 1.02 -1.40 10.19 -0.04 -0.03 0.09 9374
0.09 1.38 0.61 -1.07 10.27 -0.05 -0.05 0.09 9380
0.09 1.45 0.51 -0.79 10.05 -0.05 -0.05 0.08 9387
0.08 1.47 -0.45 -0.01 9.67 -0.06 -0.04 0.08 9393
0.09 1.45 0.72 -0.83 10.02 -0.05 -0.05 0.07 9400
0.09 1.41 0.65 -0.79 9.98 -0.04 -0.04 0.06 9406
0.12 1.38 0.61 -0.77 9.99 -0.03 -0.04 0.06 9412
0.16 1.35 0.66 -0.74 10.04 -0.03 -0.04 0.06 9418
0.16 1.30 0.75 -0.71 9.87 -0.02 -0.03 0.06 9424
0.18 1.29 0.65 -0.76 10.15 -0.01 -0.02 0.06 9431
0.19 1.22 0.64 -0.72 10.04 -0.00 -0.02 0.05 9438
0.15 1.19 0.70 -0.75 10.08 0.01 -0.01 0.05 9444
0.16 1.12 0.76 -0.77 10.12 0.02 -0.00 0.05 9450
0.17 1.01 0.67 -0.81 10.02 0.02 -0.00 0.05 9456
0.18 0.94 0.71 -0.79 10.06 0.03 -0.00 0.05 9462
0.21 0.85 0.72 -0.76 10.00 0.03 -0.01 0.05 9469
0.19 0.80 0.73 -0.76 10.02 0.03 -0.01 0.05 9476
0.17 0.75 0.73 -0.80 10.02 0.03 -0.00 0.05 9482
0.20 0.66 0.76 -0.74 9.99 0.03 -0.01 0.05 9488
0.22 0.56 0.77 -0.78 9.98 0.04 -0.01 0.05 9494
0.21 0.53 0.77 -0.80 9.94 0.04 -0.01 0.04 9500
0.25 0.46 0.77 -0.82 9.97 0.04 -0.01 0.04 9507
0.27 0.40 0.76 -0.83 9.95 0.04 -0.02 0.04 9513
0.28 0.35 0.75 -0.87 9.93 0.04 -0.02 0.04 9520
0.30 0.30 0.77 -0.81 10.04 0.04 -0.03 0.04 9526
0.32 0.28 0.75 -0.85 10.02 0.03 -0.03 0.04 9532
0.30 0.22 0.73 -1.03 9.92 0.03 -0.03 0.03 9538
0.31 0.19 0.77 -0.84 10.04 0.03 -0.03 0.03 9545
0.34 0.15 0.78 -0.83 9.99 0.03 -0.03 0.03 9551
0.33 0.15 0.72 -0.81 9.95 0.04 -0.03 0.03 9558
0.33 0.10 0.72 -0.74 9.98 0.04 -0.03 0.03 9564
0.33 0.10 0.76 -0.86 10.02 0.04 -0.03 0.03 9570
0.36 0.06 0.68 -0.87 9.99 0.05 -0.03 0.03 9576
0.39 0.04 0.77 -0.89 10.05 0.05 -0.04 0.02 9582
0.40 0.05 0.77 -0.88 9.99 0.06 -0.04 0.02 9589
0.41 0.01 0.80 -0.88 10.12 0.06 -0.05 0.01 9595
0.46 -0.03 0.75 -0.94 9.94 0.06 -0.05 0.01 9602
0.49 -0.01 0.90 -1.33 10.04 0.07 -0.06 0.00 9608
0.54 -0.02 0.78 -0.95 9.92 0.07 -0.06 -0.01 9614
0.57 -0.02 0.76 -0.92 10.01 0.07 -0.05 -0.01 9620
0.59 -0.03 0.78 -0.95 9.94 0.07 -0.05 -0.01 9627
0.65 -0.03 0.75 -0.97 9.94 0.07 -0.05 -0.01 9633
0.65 -0.03 0.76 -0.98 9.99 0.07 -0.05 -0.02 9639
0.69 -0.04 0.78 -1.00 9.99 0.07 -0.05 -0.02 9646
0.71 -0.03 0.77 -0.93 9.99 0.08 -0.05 -0.02 9652
0.76 -0.05 0.73 -0.99 9.99 0.08 -0.05 -0.03 9658
0.81 -0.05 0.76 -0.99 10.05 0.09 -0.04 -0.03 9664
0.84 -0.05 0.77 -0.96 10.04 0.10 -0.04 -0.03 9671
0.90 -0.05 0.80 -0.96 10.07 0.11 -0.04 -0.03 9677
0.92 -0.06 0.79 -1.03 10.16 0.14 -0.05 -0.03 9683
0.98 -0.04 0.82 -1.04 10.16 0.16 -0.05 -0.04 9690
1.04 -0.06 0.75 -1.04 10.11 0.19 -0.06 -0.04 9696
1.09 -0.06 0.76 -1.11 10.14 0.23 -0.06 -0.04 9703
1.17 -0.04 0.89 -1.10 10.32 0.27 -0.06 -0.05 9709
1.24 -0.05 0.79 -1.17 10.42 0.35 -0.09 -0.06 9715
1.26 -0.05 0.87 -1.18 10.45 0.44 -0.09 -0.07 9721
1.34 -0.05 0.86 -1.25 10.60 0.56 -0.11 -0.07 9729
1.42 -0.06 0.88 -1.39 10.88 0.70 -0.12 -0.09 9735
1.46 -0.05 0.82 -1.41 11.17 0.84 -0.13 -0.10 9741
1.51 -0.06 0.84 -1.49 11.43 0.97 -0.15 -0.11 9747
1.56 -0.06 0.72 -1.51 11.45 1.08 -0.17 -0.12 9753
1.62 -0.06 0.81 -1.57 11.76 1.19 -0.20 -0.12 9760
1.68 -0.07 0.82 -1.74 11.88 1.30 -0.22 -0.12 9766
1.70 -0.05 0.68 -1.73 11.69 1.40 -0.24 -0.11 9773
1.73 -0.05 0.72 -1.87 11.91 1.50 -0.27 -0.10 9779
1.78 -0.05 0.77 -1.90 11.63 1.61 -0.29 -0.09 9786
1.83 -0.07 0.70 -1.92 11.85 1.73 -0.32 -0.08 9792
1.86 -0.06 0.64 -2.02 12.20 1.86 -0.36 -0.08 9798
1.88 -0.07 0.55 -2.16 13.00 2.03 -0.37 -0.08 9804
1.90 -0.05 0.04 -2.29 13.57 2.23 -0.35 -0.07 9811
1.94 -0.08 0.78 -2.27 13.42 2.44 -0.36 -0.07 9818
1.93 -0.07 1.08 -2.51 13.96 2.68 -0.37 -0.11 9824
1.94 -0.07 1.05 -2.57 14.15 2.96 -0.40 -0.15 9830
1.94 -0.06 1.04 -2.74 14.39 3.29 -0.43 -0.20 9836
1.92 -0.07 1.40 -3.10 14.72 3.61 -0.47 -0.27 9843
1.85 -0.07 -0.29 -3.04 15.66 3.95 -0.46 -0.34 9849
1.76 -0.07 1.00 -3.10 16.83 4.21 -0.55 -0.40 9856
1.68 -0.06 1.79 -3.23 16.59 4.28 -0.67 -0.46 9862
1.54 -0.07 3.17 -4.18 18.35 4.28 -0.86 -0.55 9869
1.38 -0.07 3.22 -4.33 19.56 4.28 -0.99 -0.71 9875
1.20 -0.07 2.51 -6.05 21.00 4.28 -1.16 -0.88 9881
1.08 -0.07 2.80 -7.71 24.12 4.28 -1.26 -0.99 9887
0.96 -0.05 1.73 -11.01 29.68 4.28 -1.29 -1.05 9894
0.81 -0.05 1.81 -15.63 34.50 4.28 -1.11 -0.99 9901
0.64 -0.03 2.29 -20.42 35.17 4.28 -0.72 -0.91 9907
0.59 -0.03 4.34 -15.22 30.43 4.28 -0.30 -0.87 9914
0.46 -0.03 2.38 -10.94 27.92 4.28 0.04 -0.96 9920
0.35 -0.02 1.00 -6.71 30.95 4.28 0.27 -0.98 9926
0.31 -0.03 -0.01 -4.74 34.29 4.28 0.11 -1.03 9932
0.21 -0.02 0.41 -2.08 33.31 4.28 -0.53 -1.15 9938
0.20 -0.02 3.01 1.15 32.58 4.28 -1.30 -1.26 9946
0.16 -0.02 5.79 4.83 33.64 4.28 -1.72 -1.25 9952
0.12 -0.01 9.45 9.02 30.26 4.28 -1.76 -1.19 9958
0.11 -0.01 13.01 16.91 27.31 4.28 -1.49 -1.18 9964
0.08 -0.01 10.80 20.67 16.42 4.28 -0.99 -1.52 9971
0.07 0.00 10.94 26.14 -9.69 3.18 -0.70 -2.14 9977
0.07 -0.01 7.71 24.34 16.97 1.71 -0.27 -2.54 9984
0.07 -0.01 10.75 16.99 34.36 -0.46 1.04 -2.43 9990
0.06 -0.01 7.39 14.76 27.43 -2.13 1.67 -2.16 9997
0.05 -0.00 3.19 14.96 18.28 -3.27 1.57 -1.86 10003
0.06 -0.01 1.07 13.39 13.21 -3.91 1.10 -1.50 10009
0.07 -0.00 1.50 10.80 11.38 -4.25 0.65 -1.15 10015
0.06 -0.00 1.96 8.56 10.24 -4.28 0.27 -0.86 10022
0.06 -0.01 2.78 6.79 8.75 -4.28 0.04 -0.64 10029
0.06 -0.01 3.20 5.37 8.28 -4.28 -0.04 -0.45 10035
0.05 -0.00 3.70 4.52 7.76 -4.28 0.01 -0.27 10041
0.05 -0.00 4.30 3.90 7.38 -4.28 0.15 -0.17 10047
0.05 -0.00 4.86 3.54 7.18 -4.28 0.37 -0.08 10053
0.05 -0.00 5.05 3.26 7.37 -4.28 0.61 -0.05 10059
0.06 -0.01 5.02 2.88 7.98 -4.28 0.85 -0.05 10066
0.04 -0.00 4.64 2.36 8.56 -4.28 1.06 -0.05 10073
0.04 -0.00 4.20 1.86 8.98 -4.28 1.22 -0.04 10079
0.05 -0.00 3.58 1.40 9.56 -4.28 1.36 -0.00 10085
0.04 -0.00 3.08 0.81 10.05 -4.28 1.46 0.06 10091
0.04 -0.00 2.71 0.20 10.72 -4.28 1.52 0.13 10097
0.05 -0.00 2.30 -0.17 11.82 -4.28 1.50 0.22 10104
0.06 -0.01 2.25 -0.74 12.60 -4.28 1.47 0.28 10110
0.06 -0.01 2.24 -1.03 13.21 -4.28 1.42 0.37 10117
0.06 -0.01 2.36 -1.18 13.98 -4.28 1.41 0.46 10123
0.05 -0.01 2.63 -1.51 14.52 -4.28 1.39 0.54 10129
0.06 -0.01 2.61 -1.77 14.97 -4.28 1.40 0.60 10136
0.06 -0.01 2.99 -2.49 15.66 -4.28 1.51 0.63 10142
0.06 -0.01 3.15 -3.36 16.63 -4.28 1.67 0.62 10148
0.04 -0.00 3.13 -4.76 17.59 -4.28 1.89 0.58 10155
0.05 -0.01 2.82 -6.39 18.72 -4.28 2.12 0.51 10162
0.04 -0.00 2.35 -7.75 19.53 -4.28 2.33 0.45 10168
0.04 -0.00 1.61 -8.71 19.71 -4.28 2.51 0.41 10174
0.04 -0.00 0.91 -9.37 19.62 -4.28 2.62 0.44 10180
0.03 -0.00 0.52 -9.78 18.95 -4.27 2.64 0.52 10186
0.05 0.00 0.21 -9.83 18.85 -4.16 2.55 0.64 10193
0.04 -0.00 -0.15 -9.60 19.29 -3.90 2.35 0.79 10200
0.04 -0.00 -0.48 -9.34 19.91 -3.58 2.15 0.96 10206
0.05 -0.01 -0.50 -9.38 21.16 -3.30 2.00 1.13 10212
0.04 -0.00 -0.56 -10.40 22.84 -3.11 1.81 1.27 10219
0.04 -0.00 -0.76 -10.97 23.91 -3.02 1.65 1.37 10225
0.04 -0.00 -0.83 -11.22 24.02 -3.01 1.47 1.43 10231
0.02 -0.00 -0.61 -12.21 23.34 -3.05 1.30 1.46 10237
0.05 -0.00 -0.26 -13.28 22.30 -3.09 1.18 1.46 10245
0.04 -0.00 0.20 -14.21 21.35 -3.07 1.15 1.46 10251
0.04 -0.00 0.63 -15.30 20.32 -3.01 1.15 1.45 10257
0.04 -0.00 0.76 -16.14 19.06 -2.93 1.17 1.41 10263
0.03 -0.00 1.06 -16.89 18.98 -2.86 1.22 1.36 10270
0.04 -0.00 1.40 -17.41 18.45 -2.82 1.28 1.30 10276
0.05 -0.01 1.44 -17.98 18.14 -2.84 1.34 1.23 10283
0.05 -0.00 0.81 -18.45 16.16 -2.88 1.46 1.16 10289
0.05 -0.01 -0.42 -18.89 13.45 -2.87 1.76 1.22 10296
0.05 -0.00 -2.81 -19.52 11.38 -2.76 2.27 1.37 10302
0.05 -0.00 -5.71 -21.47 10.67 -2.59 2.77 1.54 10308
0.04 -0.00 -8.25 -23.97 9.80 -2.36 2.80 1.65 10314
0.05 -0.00 -10.32 -27.07 7.82 -2.07 2.24 1.65 10321
0.06 -0.01 -11.36 -28.16 5.27 -1.73 1.36 1.51 10328
0.05 0.00 -9.97 -28.02 2.61 -1.38 0.52 1.32 10334
0.05 -0.01 -8.45 -27.63 2.22 -1.02 -0.06 1.05 10340
0.04 -0.00 -6.88 -27.38 3.19 -0.65 -0.32 0.82 10347
0.05 -0.00 -5.47 -26.18 5.42 -0.29 -0.35 0.49 10353
0.05 -0.00 -4.14 -24.49 5.50 0.04 -0.25 0.15 10359
0.04 -0.00 -3.96 -30.29 0.90 0.30 -0.18 -0.15 10365
0.05 -0.00 -10.91 -25.89 2.75 3.04 -0.80 -0.17 10373
0.03 -0.00 -8.92 -17.82 8.06 2.49 -0.68 -0.14 10379
0.05 -0.00 -6.78 -20.87 0.23 2.83 -1.49 -0.11 10385
0.04 0.06 -5.42 -29.20 2.30 2.59 -2.66 0.05 10391
0.02 0.20 -2.67 -10.43 0.12 2.61 -3.31 0.23 10398
0.04 0.39 4.49 1.75 5.94 3.05 -2.49 0.48 10404
0.00 0.69 5.91 0.06 20.26 4.15 -0.91 0.97 10411
0.00 1.05 -1.01 0.39 22.43 4.28 -0.71 1.25 10417
0.01 1.33 -9.17 -3.90 27.15 4.28 -1.22 0.89 10424
-0.00 1.46 -5.96 -5.15 25.71 4.28 -1.47 0.37 10430
0.01 1.51 -3.61 -6.32 23.78 4.28 -1.08 0.11 10436
0.00 1.55 -4.56 -4.59 24.97 4.25 -0.36 -0.14 10442
-0.01 1.53 0.49 -4.05 31.62 3.92 -0.84 -0.55 10449
0.01 1.49 5.66 -0.96 19.45 1.12 -1.97 -0.45 10456
-0.00 1.52 2.57 -3.46 12.78 0.30 -0.85 0.05 10462
0.01 1.46 0.81 -2.07 11.09 0.14 -0.45 0.18 10469
-0.00 1.42 -0.29 -0.40 10.67 0.09 -0.26 0.20 10475
0.02 1.40 -0.38 -0.44 10.16 0.02 -0.14 0.10 10481
0.01 1.39 0.53 -0.99 10.05 -0.03 -0.09 0.06 10487
0.01 1.37 1.05 -1.42 10.11 -0.03 -0.08 0.07 10494
0.04 1.35 0.74 -1.05 10.11 -0.02 -0.09 0.09 10501
0.04 1.37 0.39 -0.62 10.08 -0.03 -0.08 0.08 10507
0.09 1.37 0.63 -0.76 10.06 -0.04 -0.09 0.06 10513
0.06 1.35 0.82 -0.83 10.01 -0.04 -0.09 0.06 10519
0.09 1.32 0.68 -0.74 10.10 -0.04 -0.08 0.06 10526
0.12 1.28 0.54 -0.68 10.01 -0.04 -0.08 0.05 10532
0.09 1.23 0.65 -0.71 10.01 -0.03 -0.06 0.05 10539
0.12 1.21 0.65 -0.64 9.99 -0.02 -0.05 0.04 10545
0.13 1.17 0.89 0.15 9.23 -0.01 -0.04 0.04 10552
0.14 1.14 0.01 -0.67 10.08 -0.00 -0.02 0.04 10558
0.15 1.04 0.69 -0.68 10.08 0.01 -0.01 0.04 10564
0.15 0.96 0.12 -0.51 9.94 0.02 -0.01 0.05 10570
0.18 0.92 0.67 -0.68 10.09 0.03 -0.01 0.04 10577
0.19 0.82 0.68 -0.70 10.08 0.04 -0.01 0.05 10584
0.21 0.72 0.66 -0.69 10.00 0.04 -0.00 0.05 10590
0.25 0.64 0.70 -0.71 10.10 0.05 0.00 0.06 10596
0.26 0.52 0.71 -0.70 10.01 0.05 0.01 0.06 10602
0.28 0.46 0.73 -0.68 10.02 0.05 0.01 0.05 10609
0.32 0.44 0.72 -0.75 10.01 0.06 0.01 0.05 10615
0.33 0.33 0.76 -0.75 9.98 0.06 0.01 0.04 10621
0.37 0.30 0.77 -0.74 10.03 0.06 0.01 0.04 10628
0.40 0.23 0.71 -0.87 9.96 0.06 0.01 0.03 10634
0.40 0.19 0.74 -0.74 10.03 0.06 0.01 0.03 10641
0.41 0.15 0.77 -0.77 10.02 0.06 0.01 0.03 10647
0.42 0.08 0.77 -0.76 10.04 0.07 0.01 0.02 10653
0.42 0.06 0.73 -0.78 9.91 0.07 0.01 0.02 10659
0.44 0.06 0.75 -0.76 10.03 0.08 0.01 0.02 10667
0.48 0.02 0.65 -0.80 9.98 0.08 0.01 0.02 10673
0.49 0.00 0.69 -0.81 9.99 0.09 0.01 0.03 10679
0.52 -0.00 0.72 -1.08 10.06 0.10 0.01 0.03 10685
0.57 -0.01 0.77 -0.76 10.09 0.11 0.01 0.03 10691
0.60 -0.02 0.76 -0.77 10.08 0.12 0.01 0.02 10698
0.62 -0.04 0.82 -0.85 10.06 0.13 0.00 0.01 10704
0.62 -0.05 0.78 -0.91 10.02 0.15 0.00 0.01 10711
0.65 -0.04 0.86 -0.93 10.10 0.17 -0.00 -0.01 10717
0.68 -0.03 1.18 -1.28 10.23 0.18 -0.01 -0.02 10724
0.72 -0.04 1.02 -0.93 10.21 0.20 -0.00 -0.04 10730
0.74 -0.04 1.08 -0.89 9.90 0.22 -0.01 -0.04 10736
0.77 -0.06 0.71 -1.05 10.09 0.21 -0.01 -0.06 10742
0.78 -0.04 0.91 -0.99 10.12 0.24 0.01 -0.06 10748
0.81 -0.05 0.74 -1.03 9.94 0.25 0.01 -0.07 10756
0.83 -0.06 0.84 -1.03 9.96 0.25 0.02 -0.07 10762
0.84 -0.05 0.75 -1.06 9.91 0.25 0.02 -0.06 10768
0.87 -0.04 0.75 -1.08 9.92 0.26 0.02 -0.06 10774
0.91 -0.06 0.81 -1.09 9.93 0.25 0.01 -0.05 10780
0.94 -0.05 0.79 -1.15 10.09 0.27 0.02 -0.05 10787
1.00 -0.06 0.80 -1.14 10.10 0.29 0.02 -0.04 10793
1.03 -0.06 0.81 -1.16 10.19 0.32 0.02 -0.04 10800
1.05 -0.05 0.86 -1.23 10.29 0.40 0.02 -0.04 10806
1.07 -0.06 0.89 -1.24 10.46 0.44 0.02 -0.04 10813
1.08 -0.05 0.80 -1.28 10.61 0.51 0.00 -0.04 10819
1.17 -0.05 0.86 -1.37 10.48 0.57 -0.01 -0.03 10825
1.21 -0.05 0.93 -1.45 10.35 0.62 -0.03 -0.04 10831
1.25 -0.05 0.94 -1.54 10.44 0.66 -0.04 -0.05 10839
1.34 -0.06 0.95 -1.48 10.61 0.72 -0.06 -0.05 10845
1.40 -0.05 0.97 -1.56 10.73 0.77 -0.07 -0.06 10851
1.44 -0.05 1.04 -1.66 10.72 0.83 -0.09 -0.07 10857
1.48 -0.06 1.19 -1.74 11.04 0.91 -0.10 -0.08 10864
1.58 -0.06 1.11 -1.88 11.30 0.99 -0.13 -0.10 10870
1.61 -0.08 1.23 -1.93 11.48 1.10 -0.15 -0.12 10876
1.63 -0.05 0.89 -1.88 11.70 1.23 -0.17 -0.13 10884
1.66 -0.06 0.93 -2.00 12.00 1.36 -0.19 -0.14 10890
1.69 -0.05 1.00 -2.06 11.99 1.53 -0.21 -0.14 10896
1.75 -0.06 0.40 -1.59 13.09 1.70 -0.23 -0.14 10902
1.76 -0.06 0.47 -2.33 12.70 1.89 -0.23 -0.12 10909
1.81 -0.06 0.60 -2.32 13.13 2.08 -0.23 -0.12 10915
1.81 -0.07 0.92 -2.49 12.98 2.30 -0.22 -0.11 10921
1.80 -0.04 0.80 -2.43 13.72 2.54 -0.21 -0.12 10928
1.78 -0.05 0.95 -2.64 13.85 2.82 -0.17 -0.13 10935
1.74 -0.05 1.05 -2.70 14.02 3.10 -0.16 -0.16 10941
1.74 -0.07 1.18 -2.80 13.71 3.39 -0.07 -0.20 10947
1.65 -0.06 1.11 -2.86 14.28 3.73 -0.08 -0.22 10954
1.59 -0.06 0.57 -2.90 15.28 4.09 -0.09 -0.23 10960
1.52 -0.05 0.74 -2.94 16.26 4.26 -0.09 -0.24 10967
1.40 -0.05 1.77 -3.73 16.71 4.28 -0.11 -0.29 10973
1.20 -0.05 3.01 -4.31 18.11 4.28 -0.20 -0.39 10980
1.11 -0.05 3.18 -5.64 19.85 4.28 -0.31 -0.54 10986
0.97 -0.04 2.68 -7.86 22.70 4.28 -0.49 -0.67 10992
0.82 -0.05 2.91 -11.01 28.09 4.28 -0.63 -0.72 10999
0.75 -0.04 3.39 -14.56 32.41 4.28 -0.56 -0.74 11005
0.63 -0.05 3.23 -16.85 36.49 4.28 -0.31 -0.67 11012
0.49 -0.04 3.31 -15.31 31.20 4.28 -0.17 -0.65 11019
0.42 -0.04 3.08 -13.42 27.93 4.28 0.00 -0.66 11025
0.35 -0.02 1.91 -9.74 29.05 4.28 0.31 -0.67 11031
0.25 -0.02 0.13 -7.08 33.44 4.28 0.25 -0.78 11037
0.25 -0.02 0.10 -4.57 34.33 4.28 -0.38 -0.90 11044
0.16 -0.02 3.29 -1.79 33.81 4.28 -1.13 -1.02 11051
0.13 -0.01 7.24 2.29 35.39 4.28 -1.66 -1.06 11057
0.10 -0.01 9.09 7.07 32.83 4.28 -1.69 -1.01 11063
0.09 -0.01 11.97 16.24 19.93 4.28 -1.31 -0.94 11070
0.06 -0.01 13.60 21.65 20.35 4.28 -0.69 -1.21 11076
0.07 -0.01 10.20 22.21 -3.88 3.72 0.17 -1.90 11082
0.05 -0.00 8.25 23.12 3.52 2.49 0.02 -2.50 11088
0.05 -0.00 9.08 17.32 27.53 0.75 0.92 -2.57 11096
0.05 -0.00 8.94 15.23 32.33 -1.27 1.75 -2.40 11102
0.04 -0.00 5.18 15.44 22.07 -2.61 1.89 -2.27 11108
0.05 -0.01 2.28 14.64 14.11 -3.21 1.41 -2.07 11114
0.06 -0.01 0.94 12.37 11.61 -3.88 0.82 -1.79 11121
0.06 -0.00 1.24 10.23 10.35 -4.24 0.40 -1.50 11127
0.06 -0.01 2.40 8.39 8.87 -4.28 0.13 -1.30 11133
0.04 -0.00 3.08 6.73 7.87 -4.28 -0.06 -1.16 11140
0.06 -0.01 3.40 5.27 7.18 -4.28 -0.12 -1.04 11146
0.05 -0.00 3.53 3.77 6.86 -4.28 -0.13 -0.91 11153
0.03 -0.00 3.85 3.69 6.58 -4.27 -0.08 -0.80 11159
0.04 0.01 4.31 3.12 6.50 -4.25 0.02 -0.77 11165
0.04 -0.00 4.75 2.73 6.58 -4.23 0.14 -0.72 11171
0.04 -0.00 4.96 2.55 7.06 -4.22 0.29 -0.69 11177
0.04 0.00 4.95 2.49 7.79 -4.23 0.45 -0.65 11184
0.06 -0.01 4.76 2.45 8.41 -4.25 0.64 -0.59 11191
0.06 -0.01 4.34 2.17 9.13 -4.26 0.82 -0.50 11197
0.04 -0.00 3.96 1.80 9.79 -4.28 1.01 -0.39 11203
0.04 -0.00 3.67 1.29 10.61 -4.28 1.17 -0.25 11209
0.05 -0.00 3.35 0.81 11.42 -4.28 1.24 -0.11 11215
0.04 -0.00 3.04 0.34 12.07 -4.28 1.32 0.02 11222
0.05 -0.01 2.82 -0.08 12.48 -4.28 1.39 0.16 11229
0.05 -0.00 2.73 -0.53 12.96 -4.28 1.46 0.24 11235
0.06 -0.01 2.61 -1.15 13.52 -4.28 1.54 0.33 11241
0.06 -0.01 2.56 -1.88 14.14 -4.28 1.67 0.38 11247
0.05 -0.01 2.50 -2.81 14.76 -4.28 1.82 0.40 11254
0.06 -0.01 2.44 -3.68 15.54 -4.28 2.01 0.38 11260
0.04 -0.00 2.34 -4.78 16.37 -4.28 2.21 0.34 11267
0.05 -0.00 2.08 -6.14 16.95 -4.28 2.42 0.27 11273
0.06 -0.01 1.82 -7.28 17.26 -4.28 2.59 0.20 11279
0.05 -0.01 1.40 -7.84 17.62 -4.25 2.68 0.14 11286
0.05 -0.00 0.82 -8.11 18.14 -4.17 2.71 0.13 11292
0.06 -0.01 0.24 -8.07 18.96 -3.96 2.67 0.17 11298
0.05 -0.00 -0.47 -7.98 20.08 -3.78 2.54 0.26 11304
0.06 -0.00 -0.72 -7.90 21.25 -3.63 2.38 0.36 11311
0.05 -0.01 -0.64 -7.88 22.71 -3.57 2.22 0.51 11318
0.05 0.00 -0.40 -8.06 24.21 -3.60 2.14 0.66 11324
0.06 -0.00 -0.23 -8.43 25.07 -3.71 2.07 0.83 11330
0.05 -0.00 -0.01 -8.94 25.41 -3.84 2.03 1.02 11336
0.05 -0.00 0.31 -9.88 25.21 -3.97 2.02 1.21 11343
0.05 -0.00 0.47 -11.51 24.24 -4.05 2.02 1.41 11350
0.05 0.00 0.44 -12.60 23.06 -4.07 2.03 1.59 11356
0.06 0.00 0.20 -13.94 22.14 -4.02 1.98 1.77 11363
0.05 -0.01 -0.35 -15.11 21.42 -3.91 1.92 1.92 11369
0.06 0.00 -0.91 -16.20 20.80 -3.77 1.78 2.03 11375
0.05 -0.01 -1.39 -17.13 19.96 -3.60 1.60 2.11 11381
0.05 -0.00 -1.84 -17.91 18.97 -3.42 1.38 2.17 11388
0.06 -0.01 -2.99 -18.49 17.46 -3.24 1.21 2.21 11395
0.05 -0.00 -3.37 -19.33 15.60 -3.04 1.21 2.25 11401
0.07 -0.01 -4.37 -21.21 14.52 -2.79 1.37 2.26 11407
0.06 -0.01 -5.99 -23.64 13.35 -2.55 1.48 2.19 11414
0.05 0.00 -6.75 -26.16 11.12 -2.30 1.39 2.02 11420
0.06 -0.01 -7.53 -28.50 9.64 -2.05 1.22 1.82 11426
0.06 -0.01 -8.14 -29.61 7.61 -1.80 1.05 1.59 11433
0.06 -0.01 -8.53 -30.86 5.17 -1.53 0.93 1.33 11440
0.06 -0.01 -8.79 -31.55 4.09 -1.22 0.78 1.06 11446
0.06 -0.00 -8.84 -31.33 3.38 -0.87 0.71 0.77 11452
0.06 -0.01 -8.79 -30.44 3.22 -0.51 0.54 0.47 11458
0.05 -0.00 -8.38 -28.68 3.65 -0.12 0.28 0.19 11465
0.06 -0.01 -7.37 -26.62 3.80 0.24 -0.05 -0.08 11471
0.05 -0.01 -10.94 -35.27 32.49 3.14 -1.90 -0.27 11478
0.05 -0.00 -7.02 -22.87 7.00 2.81 -1.24 -0.30 11484
0.05 0.00 -4.61 -20.97 1.21 3.21 -2.11 -0.41 11491
0.04 0.10 -3.47 -25.43 2.29 2.98 -3.06 -0.40 11497
0.04 0.25 0.48 -5.88 4.21 2.82 -3.81 -0.28 11503
0.03 0.37 5.76 1.07 14.33 2.97 -2.65 0.13 11509
0.02 0.65 9.65 5.15 21.18 3.71 -0.89 0.83 11516
0.01 1.01 4.49 -2.36 20.65 4.16 -0.56 1.15 11523
-0.01 1.30 -8.20 -3.55 27.57 4.28 -1.09 0.77 11529
-0.01 1.42 -5.72 -6.07 23.22 4.28 -1.53 0.32 11536
-0.02 1.48 -1.72 -4.41 22.24 4.24 -1.34 0.16 11542
-0.01 1.53 -3.06 -3.11 23.73 4.00 -0.68 0.02 11548
-0.01 1.54 -2.98 -2.31 19.74 3.35 -0.54 -0.31 11554
-0.01 1.52 1.43 -2.68 24.02 3.16 -0.66 -0.56 11561
0.02 1.45 3.46 -0.74 19.04 1.79 -1.68 -0.40 11568
0.03 1.46 3.07 -2.75 13.04 0.55 -1.14 0.01 11574
0.02 1.45 0.79 -2.37 11.10 0.21 -0.60 0.18 11581
-0.00 1.45 -0.29 -1.22 10.50 0.08 -0.29 0.19 11587
0.02 1.49 -0.36 -1.19 10.40 0.01 -0.14 0.10 11593
-0.01 1.52 0.32 -0.79 9.92 -0.02 -0.08 0.05 11599
0.00 1.50 1.09 -1.17 10.10 -0.03 -0.07 0.10 11607
0.00 1.46 0.81 -1.07 10.09 -0.03 -0.08 0.08 11613
0.03 1.49 0.49 -0.80 10.10 -0.04 -0.10 0.08 11619
0.02 1.50 0.56 -0.70 9.92 -0.04 -0.09 0.06 11625
0.02 1.53 0.75 -0.78 10.12 -0.04 -0.09 0.06 11631
0.02 1.51 0.65 -0.68 9.87 -0.03 -0.08 0.06 11638
0.05 1.50 0.63 -0.67 10.02 -0.03 -0.09 0.05 11644
0.05 1.44 0.71 -0.68 9.99 -0.02 -0.09 0.05 11651
0.01 1.37 0.70 -0.75 9.97 -0.02 -0.09 0.04 11657
0.06 1.33 0.66 -0.70 10.12 -0.01 -0.09 0.04 11663
0.07 1.25 0.15 -0.33 10.03 -0.00 -0.08 0.04 11670
0.11 1.18 0.66 -0.72 10.12 0.01 -0.08 0.04 11676
0.12 1.08 0.67 -0.70 10.05 0.01 -0.07 0.04 11682
0.13 0.99 0.63 -0.72 10.06 0.02 -0.07 0.04 11688
0.16 0.86 0.65 -0.74 10.08 0.02 -0.07 0.04 11696
0.16 0.83 0.62 -0.72 10.06 0.03 -0.06 0.04 11702
0.17 0.76 0.65 -0.69 10.09 0.03 -0.06 0.04 11708
0.21 0.70 0.62 -0.73 10.03 0.03 -0.05 0.04 11714
0.25 0.55 0.64 -0.72 10.04 0.04 -0.05 0.04 11721
0.29 0.52 0.66 -0.80 10.15 0.04 -0.05 0.04 11727
0.29 0.46 0.68 -0.79 10.01 0.04 -0.05 0.04 11734
0.28 0.39 0.63 -0.77 10.00 0.04 -0.04 0.03 11740
0.32 0.35 0.68 -1.07 10.06 0.04 -0.04 0.03 11747
0.34 0.27 0.68 -0.80 10.00 0.04 -0.04 0.02 11753
0.36 0.27 0.67 -0.80 10.01 0.04 -0.03 0.02 11759
0.39 0.23 0.67 -0.82 10.04 0.04 -0.04 0.02 11765
0.41 0.18 0.67 -0.82 10.05 0.04 -0.03 0.02 11772
0.43 0.14 0.66 -0.81 10.00 0.04 -0.03 0.01 11779
0.43 0.10 0.65 -0.81 10.09 0.04 -0.04 0.01 11785
0.44 0.10 0.59 -0.88 9.99 0.05 -0.03 0.01 11791
0.50 0.07 0.55 -0.80 10.04 0.05 -0.04 0.01 11797
0.53 0.02 0.61 -0.80 10.04 0.06 -0.03 0.01 11804
0.55 0.03 0.58 -0.80 9.98 0.06 -0.03 0.01 11810
0.57 0.02 0.61 -0.78 10.04 0.06 -0.03 0.01 11816
0.60 0.01 0.62 -0.83 10.10 0.07 -0.03 0.01 11823
0.63 0.00 0.62 -0.91 9.93 0.07 -0.03 0.02 11829
0.66 -0.02 0.70 -0.87 10.03 0.08 -0.02 0.01 11836
0.67 -0.02 0.66 -0.85 10.05 0.08 -0.02 0.01 11842
0.73 -0.02 0.70 -0.89 10.01 0.08 -0.02 -0.00 11848
0.78 -0.05 0.68 -0.88 9.93 0.08 -0.02 -0.00 11854
0.81 -0.04 0.69 -0.90 9.97 0.08 -0.02 -0.01 11862
0.86 -0.04 0.66 -0.94 10.01 0.08 -0.03 -0.01 11868
0.88 -0.05 0.69 -0.94 10.02 0.08 -0.03 -0.01 11874
0.92 -0.04 0.66 -0.92 10.09 0.08 -0.03 -0.01 11880
0.96 -0.05 0.66 -0.93 9.93 0.09 -0.04 -0.01 11886
0.97 -0.05 0.67 -0.94 10.04 0.10 -0.04 -0.02 11893
1.03 -0.05 0.63 -0.92 10.08 0.12 -0.04 -0.01 11899
1.09 -0.07 0.68 -0.97 10.11 0.14 -0.04 -0.02 11906
1.13 -0.05 0.65 -0.99 10.14 0.16 -0.04 -0.02 11912
1.17 -0.06 0.66 -0.94 10.17 0.20 -0.04 -0.02 11919
1.21 -0.05 0.61 -1.01 10.11 0.25 -0.05 -0.03 11925
1.28 -0.06 0.79 -1.10 10.20 0.30 -0.06 -0.03 11931
1.32 -0.07 0.74 -1.05 10.43 0.38 -0.07 -0.04 11937
1.42 -0.06 0.71 -1.07 10.70 0.48 -0.07 -0.05 11944
1.49 -0.07 0.82 -1.29 10.95 0.64 -0.08 -0.06 11951
1.52 -0.06 0.81 -1.25 11.16 0.82 -0.09 -0.08 11957
1.60 -0.06 0.88 -1.34 11.45 1.01 -0.10 -0.10 11963
1.64 -0.08 0.83 -1.48 11.83 1.19 -0.14 -0.13 11970
1.67 -0.05 0.95 -1.57 11.86 1.34 -0.18 -0.14 11976
1.72 -0.07 0.94 -1.61 12.29 1.47 -0.22 -0.15 11982
1.79 -0.07 0.98 -1.63 12.51 1.59 -0.27 -0.16 11990
1.84 -0.07 0.83 -1.69 12.57 1.71 -0.30 -0.15 11996
1.87 -0.06 0.58 -1.82 12.61 1.85 -0.34 -0.15 12002
1.94 -0.06 0.65 -1.85 12.94 2.01 -0.40 -0.13 12008
1.97 -0.08 0.60 -2.03 13.11 2.22 -0.44 -0.13 12015
1.97 -0.05 0.48 -2.15 13.82 2.46 -0.45 -0.12 12021
2.01 -0.07 0.55 -2.29 14.26 2.69 -0.45 -0.12 12027
2.03 -0.08 0.51 -2.38 13.86 2.93 -0.43 -0.13 12035
2.01 -0.08 0.87 -2.53 14.28 3.21 -0.41 -0.17 12041
2.01 -0.08 0.95 -2.61 14.55 3.51 -0.41 -0.21 12047
1.97 -0.09 0.82 -2.72 14.78 3.83 -0.41 -0.26 12053
1.92 -0.08 1.10 -2.97 15.59 4.12 -0.38 -0.32 12060
1.79 -0.07 1.52 -2.79 16.20 4.28 -0.52 -0.40 12066
1.69 -0.07 1.42 -2.78 17.56 4.28 -0.63 -0.47 12072
1.49 -0.06 2.15 -3.12 18.42 4.28 -0.77 -0.55 12080
1.32 -0.07 2.15 -4.53 20.76 4.28 -0.96 -0.66 12086
1.14 -0.05 2.67 -5.52 22.78 4.28 -1.17 -0.80 12092
1.01 -0.05 3.69 -9.05 28.54 4.28 -1.32 -0.95 12098
0.91 -0.05 1.92 -13.05 32.76 4.28 -1.28 -1.00 12105
0.78 -0.03 2.80 -16.53 36.22 4.28 -1.09 -0.99 12111
0.65 -0.04 4.09 -16.73 33.72 4.28 -0.73 -0.95 12118
0.54 -0.02 4.26 -14.60 30.54 4.28 -0.40 -1.01 12125
0.40 -0.03 3.53 -10.80 29.88 4.28 -0.06 -1.07 12131
0.35 -0.01 2.36 -6.58 31.99 4.28 0.02 -1.15 12137
0.26 -0.02 0.60 -1.31 31.02 4.28 -0.26 -1.25 12144
0.15 -0.01 2.34 0.45 32.69 4.28 -0.77 -1.34 12150
0.13 -0.01 4.91 4.00 33.42 4.28 -1.30 -1.38 12156
0.10 -0.01 7.06 6.65 31.32 4.28 -1.53 -1.37 12163
0.10 -0.01 10.34 13.24 25.85 4.28 -1.40 -1.39 12170
0.05 -0.00 11.06 17.58 20.00 4.28 -1.09 -1.71 12176
0.05 -0.01 10.01 19.82 -1.50 4.24 -0.69 -2.28 12182
0.07 -0.00 8.72 24.69 4.19 3.02 -0.84 -2.79 12188
0.06 -0.00 9.66 19.65 29.54 0.83 0.41 -2.89 12195
0.08 -0.01 9.73 14.98 31.96 -1.32 1.37 -2.63 12201
0.09 -0.01 5.35 14.22 21.76 -2.68 1.50 -2.29 12208
0.08 -0.00 2.60 13.65 15.34 -3.48 1.18 -1.88 12215
0.07 -0.01 1.48 11.93 13.97 -4.09 0.80 -1.43 12221
0.08 0.01 2.46 9.31 10.27 -4.28 0.45 -1.04 12227
0.07 -0.01 3.19 7.21 8.64 -4.28 0.19 -0.75 12233
0.06 -0.01 3.62 5.65 7.00 -4.28 0.06 -0.51 12239
0.06 -0.00 3.84 4.56 6.05 -4.28 0.06 -0.30 12247
0.05 -0.01 4.04 3.90 5.25 -4.27 0.14 -0.14 12253
0.06 -0.01 4.21 3.48 5.13 -4.24 0.30 -0.02 12259
0.05 -0.01 4.27 3.11 5.60 -4.20 0.51 0.05 12265
0.07 -0.01 4.11 2.91 6.34 -4.19 0.74 0.10 12271
0.06 -0.01 4.08 2.79 7.46 -4.20 0.97 0.13 12277
0.05 -0.01 3.88 2.54 8.55 -4.24 1.17 0.14 12284
0.05 -0.00 3.49 2.38 9.27 -4.27 1.34 0.15 12291
0.06 -0.01 3.04 2.19 10.03 -4.28 1.47 0.17 12297
0.05 -0.00 2.55 2.03 10.63 -4.28 1.55 0.23 12303
0.06 -0.01 1.94 1.64 11.12 -4.28 1.58 0.30 12309
0.05 -0.01 1.71 1.09 11.55 -4.28 1.56 0.38 12316
0.05 -0.01 1.50 0.38 12.03 -4.28 1.50 0.47 12322
0.06 -0.01 1.35 -0.34 12.35 -4.28 1.40 0.54 12328
0.04 -0.00 1.38 -0.81 12.82 -4.28 1.31 0.58 12335
0.04 -0.00 1.58 -1.25 13.37 -4.28 1.25 0.62 12341
0.05 -0.00 1.85 -1.69 14.17 -4.28 1.24 0.62 12348
0.04 -0.00 2.16 -2.27 14.90 -4.28 1.33 0.59 12354
0.04 -0.00 2.51 -3.00 16.04 -4.28 1.52 0.52 12360
0.05 -0.00 2.58 -3.91 17.07 -4.28 1.80 0.42 12366
0.04 -0.00 2.37 -5.06 17.96 -4.28 2.15 0.29 12372
0.05 0.00 1.99 -6.49 18.59 -4.28 2.52 0.15 12380
0.05 -0.00 1.46 -7.80 18.81 -4.28 2.87 0.03 12386
0.05 0.00 0.83 -8.69 19.18 -4.28 3.14 -0.05 12392
0.06 -0.01 -0.04 -9.36 19.64 -4.27 3.29 -0.06 12398
0.05 -0.00 -1.00 -9.67 20.10 -4.17 3.29 -0.00 12405
0.05 -0.00 -1.85 -9.56 20.44 -3.96 3.09 0.12 12411
0.05 -0.00 -2.49 -8.87 20.78 -3.72 2.74 0.27 12418
0.05 -0.00 -2.69 -8.26 21.43 -3.55 2.27 0.45 12424
0.05 0.00 -2.32 -8.14 22.34 -3.49 1.77 0.62 12430
0.05 -0.00 -1.61 -8.51 23.04 -3.47 1.33 0.78 12437
0.04 -0.00 -0.94 -9.49 23.47 -3.48 0.99 0.92 12443
0.06 -0.01 -0.52 -10.58 23.41 -3.49 0.79 1.02 12449
0.05 -0.00 0.20 -11.70 23.04 -3.48 0.72 1.10 12455
0.05 0.00 0.65 -12.72 22.35 -3.46 0.72 1.15 12463
0.05 -0.00 1.04 -13.74 21.60 -3.42 0.81 1.18 12469
0.05 -0.01 1.24 -14.57 21.10 -3.39 0.94 1.22 12475
0.06 -0.01 1.39 -15.34 20.66 -3.35 1.11 1.28 12482
0.05 -0.00 1.58 -16.13 20.11 -3.31 1.32 1.37 12488
0.07 -0.01 1.33 -17.11 19.48 -3.30 1.56 1.46 12494
0.06 -0.01 0.47 -18.18 17.83 -3.27 1.82 1.58 12500
0.06 0.01 -1.35 -19.02 16.16 -3.18 2.25 1.77 12508
0.06 -0.00 -2.98 -21.06 15.33 -3.03 2.76 2.00 12514
0.06 0.01 -5.17 -24.30 14.07 -2.82 2.91 2.15 12520
0.06 -0.01 -8.29 -28.06 12.29 -2.56 2.63 2.21 12527
0.06 -0.00 -8.81 -31.06 9.19 -2.22 2.10 2.21 12533
0.07 -0.00 -9.01 -32.97 6.27 -1.85 1.47 2.11 12539
0.05 -0.01 -9.04 -33.40 2.69 -1.45 0.88 1.91 12546
0.06 0.01 -8.32 -33.51 1.48 -1.03 0.51 1.62 12553
0.06 -0.01 -7.39 -32.93 1.93 -0.60 0.38 1.27 12559
0.06 -0.00 -6.47 -31.16 3.09 -0.15 0.37 0.90 12565
0.07 -0.00 -5.43 -33.52 1.65 0.22 0.37 0.55 12571
0.06 -0.01 -13.33 -34.13 33.36 2.88 -0.20 0.58 12578
0.06 -0.00 -11.40 -23.95 5.74 3.07 -0.50 0.68 12584
0.06 -0.01 -8.08 -19.81 -0.64 3.41 -1.22 0.69 12591
0.06 0.05 -4.48 -23.43 3.88 3.25 -2.42 0.82 12597
0.04 0.19 1.27 2.28 3.16 3.23 -2.86 0.81 12604
0.02 0.37 3.79 -0.20 10.51 3.32 -1.73 1.16 12610
0.04 0.55 6.57 6.35 17.34 3.95 -0.18 1.75 12616
0.01 0.81 -2.56 -8.05 17.93 4.23 0.01 1.97 12622
0.01 1.09 -13.05 -5.55 25.86 4.28 -0.56 1.50 12630
0.00 1.28 -10.57 -5.67 24.05 4.28 -1.26 0.79 12636
-0.01 1.42 -4.46 -6.65 23.38 4.28 -0.89 0.29 12642
-0.01 1.42 -6.39 -3.77 24.87 4.18 -0.36 -0.10 12649
-0.02 1.51 -2.84 -2.40 20.99 3.61 -0.41 -0.62 12655
-0.01 1.59 4.33 -2.71 19.53 3.29 -0.62 -0.88 12661
-0.01 1.55 4.38 -2.90 28.78 2.29 -2.29 -0.60 12668
-0.00 1.59 5.34 -3.33 12.51 1.00 -1.72 0.02 12675
0.00 1.57 0.16 -3.11 14.19 0.60 -1.08 0.29 12681
0.00 1.60 -0.98 -0.87 11.92 0.25 -0.51 0.26 12687
-0.01 1.58 -0.76 -0.79 10.96 0.05 -0.22 0.11 12694
-0.01 1.55 0.40 -1.19 10.23 -0.02 -0.13 0.03 12700
0.01 1.53 1.34 -1.46 10.09 -0.03 -0.11 0.06 12706
-0.01 1.54 0.80 -0.93 9.94 -0.02 -0.10 0.09 12712
-0.01 1.53 0.31 -0.64 10.24 -0.03 -0.10 0.08 12720
0.02 1.47 0.53 -0.79 10.08 -0.03 -0.10 0.06 12726
-0.02 1.43 0.80 -0.85 9.99 -0.03 -0.10 0.06 12732
0.02 1.43 0.74 -0.63 10.00 -0.02 -0.10 0.07 12738
0.04 1.37 0.68 -0.72 10.08 -0.01 -0.09 0.06 12744
0.07 1.37 0.67 -0.77 10.09 -0.00 -0.09 0.05 12751
0.08 1.25 0.72 -0.68 10.09 0.00 -0.08 0.05 12758
0.09 1.22 0.64 -0.67 10.06 0.00 -0.07 0.05 12764
0.11 1.15 0.58 -0.67 10.01 0.01 -0.04 0.05 12770
0.10 1.10 0.64 -0.70 10.04 0.02 -0.06 0.05 12777
0.08 1.00 0.63 -0.73 10.08 0.03 -0.05 0.05 12783
0.13 0.93 0.61 -0.74 10.00 0.03 -0.05 0.05 12789
0.15 0.82 0.62 -0.72 10.01 0.03 -0.04 0.05 12795
0.14 0.76 0.64 -0.67 10.05 0.03 -0.04 0.06 12803
0.15 0.76 0.68 -0.68 10.01 0.04 -0.04 0.06 12809
0.17 0.57 0.65 -0.64 9.96 0.04 -0.03 0.06 12815
0.20 0.54 0.70 -0.70 9.95 0.04 -0.04 0.06 12821
0.20 0.50 0.78 -1.02 9.92 0.05 -0.04 0.05 12827
0.22 0.40 0.74 -0.77 9.93 0.05 -0.04 0.04 12834
0.23 0.40 0.76 -0.75 9.96 0.05 -0.05 0.03 12840
0.25 0.32 0.73 -0.71 10.09 0.05 -0.06 0.02 12847
0.25 0.27 0.70 -0.74 9.93 0.05 -0.07 0.02 12853
0.29 0.25 0.73 -0.78 9.96 0.05 -0.07 0.01 12859
0.36 0.19 0.69 -0.82 10.01 0.05 -0.07 0.01 12866
0.38 0.11 0.64 -0.72 9.87 0.05 -0.07 0.00 12872
0.39 0.11 1.19 -0.80 10.05 0.05 -0.06 0.01 12878
0.41 0.10 0.02 -0.76 10.04 0.05 -0.06 0.01 12884
0.46 0.07 0.58 -0.87 10.04 0.06 -0.06 0.01 12891
0.49 0.04 0.59 -0.83 10.04 0.06 -0.06 0.01 12898
0.54 0.03 0.65 -0.83 10.05 0.07 -0.07 0.00 12904
0.57 0.04 0.67 -0.95 9.95 0.07 -0.07 -0.00 12910
0.62 0.01 0.68 -0.86 10.00 0.08 -0.08 -0.00 12916
0.69 -0.02 0.75 -0.92 9.99 0.08 -0.08 -0.01 12923
0.71 -0.00 0.69 -0.97 9.92 0.09 -0.08 -0.01 12930
0.78 -0.02 0.68 -0.86 9.97 0.09 -0.08 -0.02 12936
0.81 -0.04 0.68 -0.90 10.01 0.09 -0.08 -0.02 12942
0.85 -0.02 0.65 -0.91 9.99 0.08 -0.07 -0.02 12948
0.89 -0.04 0.70 -0.92 9.98 0.09 -0.07 -0.03 12955
0.92 -0.05 0.63 -0.95 9.98 0.09 -0.07 -0.03 12961
0.95 -0.04 0.69 -0.91 10.02 0.09 -0.07 -0.03 12967
1.01 -0.05 0.71 -0.94 10.08 0.10 -0.07 -0.04 12974
1.07 -0.05 0.63 -0.98 9.98 0.10 -0.07 -0.04 12980
1.11 -0.06 0.63 -0.96 9.99 0.11 -0.07 -0.03 12987
1.12 -0.07 0.08 -0.94 10.06 0.12 -0.07 -0.03 12993
1.16 -0.05 0.66 -0.96 10.08 0.14 -0.06 -0.04 12999
1.22 -0.06 0.68 -0.97 10.18 0.16 -0.06 -0.04 13005
1.25 -0.06 0.67 -0.97 10.27 0.20 -0.06 -0.05 13012
1.33 -0.06 0.69 -0.90 10.22 0.24 -0.10 -0.05 13019
1.34 -0.07 0.65 -1.10 10.21 0.29 -0.07 -0.06 13025
1.39 -0.06 0.73 -1.09 10.39 0.35 -0.08 -0.07 13031
1.47 -0.07 0.77 -1.19 10.61 0.43 -0.13 -0.08 13038
1.54 -0.07 0.84 -1.21 10.75 0.55 -0.12 -0.10 13044
1.61 -0.06 0.81 -1.24 11.17 0.71 -0.14 -0.11 13050
1.65 -0.07 0.69 -1.46 11.61 0.90 -0.17 -0.12 13058
1.71 -0.07 0.70 -1.41 12.00 1.10 -0.22 -0.13 13064
1.74 -0.08 0.78 -1.53 11.98 1.27 -0.25 -0.15 13070
1.83 -0.06 0.79 -1.58 12.28 1.42 -0.29 -0.15 13076
1.89 -0.06 0.74 -1.71 12.51 1.57 -0.31 -0.15 13083
1.93 -0.07 0.63 -1.86 12.45 1.71 -0.33 -0.15 13089
1.97 -0.05 0.67 -1.77 12.75 1.85 -0.35 -0.14 13095
1.98 -0.06 0.68 -1.96 12.79 2.00 -0.39 -0.13 13103
2.02 -0.07 0.56 -1.99 13.20 2.18 -0.43 -0.12 13109
2.04 -0.07 0.51 -2.16 13.45 2.40 -0.44 -0.11 13115
2.04 -0.06 0.50 -2.33 13.83 2.58 -0.42 -0.13 13121
2.09 -0.07 0.67 -2.05 12.84 2.80 -0.38 -0.14 13128
2.04 -0.03 0.70 -2.26 14.21 3.05 -0.39 -0.17 13134
2.05 -0.07 0.63 -2.43 13.99 3.34 -0.44 -0.20 13140
2.04 -0.08 0.58 -2.50 14.57 3.63 -0.46 -0.25 13147
1.91 -0.07 0.40 -2.68 15.52 3.96 -0.46 -0.28 13154
1.81 -0.07 0.93 -2.79 16.71 4.21 -0.53 -0.29 13160
1.67 -0.05 1.82 -3.05 16.38 4.28 -0.67 -0.36 13166
1.55 -0.07 3.10 -3.61 17.78 4.28 -0.85 -0.49 13173
1.36 -0.06 3.50 -4.35 18.74 4.28 -1.00 -0.68 13179
1.21 -0.05 2.38 -6.04 21.13 4.28 -1.22 -0.86 13186
1.07 -0.05 3.16 -7.47 25.53 4.28 -1.47 -1.01 13192
0.94 -0.05 2.65 -11.97 30.44 4.28 -1.50 -1.08 13199
0.75 -0.05 2.82 -14.83 35.50 4.28 -1.38 -1.09 13205
0.67 -0.04 3.19 -16.42 35.33 4.28 -1.07 -1.05 13211
0.52 -0.03 2.96 -13.53 30.73 4.28 -0.80 -1.03 13218
0.42 -0.01 1.79 -10.26 28.10 4.28 -0.61 -1.07 13224
0.32 -0.03 1.11 -5.92 30.39 4.28 -0.52 -1.08 13231
0.24 -0.02 1.66 -3.65 32.67 4.28 -0.81 -1.13 13238
0.21 -0.02 3.02 -0.50 32.75 4.28 -1.45 -1.22 13244
0.13 -0.01 6.24 3.26 31.76 4.28 -2.05 -1.29 13250
0.13 -0.01 8.64 5.93 31.72 4.28 -2.33 -1.31 13256
0.09 -0.01 9.83 10.64 28.35 4.28 -2.25 -1.25 13263
0.07 -0.01 13.53 17.56 22.68 4.28 -1.92 -1.36 13270
0.05 -0.00 9.77 18.55 9.28 4.27 -1.39 -1.75 13276
0.07 -0.00 10.72 24.72 -3.59 3.46 -1.29 -2.19 13282
0.09 -0.01 10.62 21.93 21.27 1.48 -0.34 -2.36 13289
0.06 -0.01 11.41 16.26 31.50 -0.60 0.93 -2.18 13295
0.08 -0.01 7.62 13.94 23.35 -2.08 1.44 -1.93 13301
0.06 -0.01 4.64 13.58 17.03 -2.87 1.36 -1.65 13308
0.07 -0.00 2.96 12.51 12.70 -3.51 1.02 -1.32 13315
0.07 -0.00 3.18 10.72 11.36 -4.01 0.73 -0.99 13321
0.07 -0.01 3.70 8.95 9.56 -4.20 0.54 -0.71 13327
0.06 -0.01 4.37 7.32 8.41 -4.25 0.44 -0.47 13333
0.06 -0.01 4.69 5.92 7.70 -4.27 0.45 -0.25 13340
0.05 -0.00 4.78 4.88 7.35 -4.27 0.57 -0.06 13346
0.06 -0.01 4.99 4.17 7.06 -4.27 0.72 0.09 13352
0.05 -0.01 5.06 3.61 7.16 -4.27 0.88 0.19 13359
0.04 -0.00 5.04 3.21 7.61 -4.28 0.98 0.26 13365
0.06 0.00 4.83 2.78 8.32 -4.28 1.08 0.33 13371
0.06 -0.01 4.60 2.35 8.92 -4.28 1.16 0.33 13378
0.06 -0.01 4.20 2.07 9.60 -4.28 1.21 0.38 13384
0.06 -0.01 3.74 1.72 10.01 -4.28 1.26 0.45 13390
0.06 -0.01 3.30 1.26 10.53 -4.28 1.29 0.53 13396
0.05 -0.01 3.02 0.69 10.93 -4.28 1.29 0.61 13403
0.06 -0.00 2.79 0.02 11.38 -4.28 1.25 0.68 13410
0.05 -0.00 2.71 -0.53 11.86 -4.28 1.19 0.74 13416
0.05 -0.00 2.83 -0.96 12.52 -4.28 1.16 0.79 13422
0.06 -0.01 3.04 -1.39 13.24 -4.28 1.19 0.82 13428
0.04 -0.00 3.19 -1.71 13.77 -4.28 1.29 0.83 13434
0.04 -0.00 3.33 -2.26 14.33 -4.28 1.44 0.82 13442
0.05 -0.00 3.41 -3.05 14.83 -4.28 1.62 0.77 13448
0.05 -0.00 3.36 -3.81 15.73 -4.28 1.77 0.71 13454
0.05 -0.00 3.08 -4.69 16.85 -4.28 1.96 0.62 13460
0.05 -0.00 2.75 -5.64 17.61 -4.28 2.16 0.54 13467
0.04 -0.00 2.34 -6.47 18.40 -4.28 2.32 0.47 13473
0.06 -0.00 2.01 -6.83 18.86 -4.28 2.43 0.42 13479
0.05 -0.00 1.64 -7.01 19.20 -4.26 2.47 0.41 13486
0.05 -0.01 1.33 -7.36 19.39 -4.22 2.46 0.44 13492
0.05 -0.01 1.06 -7.55 19.79 -4.14 2.38 0.49 13499
0.05 -0.01 0.86 -7.79 20.77 -4.03 2.23 0.58 13505
0.05 0.00 0.63 -8.09 21.60 -3.88 2.06 0.70 13511
0.05 -0.00 0.59 -8.60 22.77 -3.75 1.89 0.83 13517
0.04 -0.00 0.80 -9.04 23.63 -3.66 1.74 0.96 13524
0.04 0.01 1.04 -9.70 24.30 -3.60 1.59 1.10 13531
0.05 -0.00 1.11 -10.44 24.62 -3.59 1.44 1.24 13537
0.04 -0.00 1.49 -11.36 24.46 -3.59 1.31 1.36 13543
0.05 -0.00 2.02 -12.48 23.91 -3.59 1.23 1.47 13550
0.05 -0.00 2.35 -13.69 23.00 -3.56 1.20 1.58 13556
0.05 0.00 2.38 -14.98 22.23 -3.48 1.24 1.67 13562
0.04 -0.00 2.10 -16.24 21.57 -3.38 1.31 1.76 13569
0.05 -0.00 1.52 -17.54 20.49 -3.24 1.42 1.85 13576
0.05 -0.01 0.68 -18.67 19.33 -3.08 1.52 1.94 13582
0.04 -0.00 -0.35 -19.70 17.80 -2.93 1.63 2.05 13588
0.07 -0.01 -2.11 -20.41 16.11 -2.77 1.79 2.19 13594
0.06 -0.01 -3.84 -22.00 15.55 -2.63 2.13 2.36 13601
0.06 0.00 -5.10 -24.46 14.69 -2.52 2.27 2.48 13607
0.06 -0.01 -6.67 -27.90 13.08 -2.43 2.11 2.50 13614
0.05 -0.01 -8.17 -30.23 10.62 -2.33 1.78 2.45 13621
0.07 -0.01 -8.79 -32.57 7.54 -2.20 1.49 2.36 13627
0.05 -0.01 -9.22 -34.44 3.91 -1.96 1.31 2.20 13633
0.07 -0.00 -9.53 -35.69 1.42 -1.57 1.20 1.97 13639
0.06 -0.01 -9.73 -35.38 0.64 -1.07 1.09 1.65 13645
0.06 -0.01 -10.12 -33.12 1.83 -0.50 0.84 1.26 13652
0.06 -0.01 -10.21 -29.64 3.97 -0.03 0.48 0.83 13659
0.06 -0.01 -9.41 -25.82 6.27 0.31 0.03 0.41 13665
0.06 -0.00 -14.17 -54.01 15.35 1.27 -1.08 0.16 13672
0.06 -0.01 -1.12 -22.75 2.12 3.09 -0.94 -0.01 13678
0.05 0.01 -6.49 -17.63 -3.63 2.86 -1.50 -0.14 13684
0.04 0.14 -1.97 -15.97 -4.73 2.48 -2.51 -0.32 13690
0.03 0.29 -0.54 2.83 1.67 2.41 -3.19 -0.43 13698
0.04 0.51 4.31 2.74 18.85 3.26 -2.07 -0.19 13704
0.02 0.74 9.02 5.40 14.15 3.80 -0.86 0.31 13710
0.02 1.02 -0.26 -4.02 18.20 4.27 -1.04 0.52 13716
0.01 1.30 -4.60 -7.89 25.78 4.28 -1.27 0.42 13723
-0.01 1.51 -1.37 -7.16 25.20 4.28 -1.30 0.34 13729
0.00 1.57 -1.37 -3.89 25.41 4.28 -0.86 0.34 13735
-0.01 1.65 -4.51 -2.29 20.55 4.21 -0.63 0.10 13742
0.00 1.66 -2.64 -2.15 19.70 3.97 -0.68 -0.33 13749
-0.04 1.66 2.88 -2.74 21.80 3.84 -0.90 -0.55 13755
-0.03 1.59 2.65 -2.36 28.87 2.02 -2.31 -0.38 13761
-0.01 1.59 3.08 -4.47 14.94 0.58 -1.13 0.06 13768
-0.02 1.63 -0.02 -2.77 11.90 0.18 -0.50 0.18 13774
-0.01 1.62 -0.55 -0.59 10.45 0.08 -0.23 0.14 13780
-0.02 1.59 -0.05 -0.65 10.50 0.03 -0.14 0.06 13787
-0.01 1.56 0.94 -1.32 10.20 0.01 -0.11 0.04 13794
0.01 1.54 0.99 -1.19 9.98 -0.01 -0.11 0.07 13800
-0.02 1.54 0.53 -0.71 9.98 -0.01 -0.11 0.08 13806
0.01 1.53 0.35 -0.60 9.99 -0.01 -0.10 0.06 13812
0.02 1.50 0.55 -0.84 10.02 -0.03 -0.10 0.05 13818
0.03 1.46 0.71 -0.84 10.05 -0.03 -0.11 0.05 13826
0.04 1.44 0.03 -0.72 10.20 -0.03 -0.11 0.05 13832
0.05 1.35 1.09 -0.75 10.07 -0.03 -0.09 0.05 13838
0.03 1.34 0.05 -1.12 12.03 -0.01 -0.09 0.04 13844
0.08 1.24 0.59 -0.72 10.08 -0.01 -0.09 0.04 13851
0.11 1.18 0.51 -0.69 10.01 0.00 -0.07 0.04 13857
0.16 1.07 0.52 -0.72 10.05 0.02 -0.06 0.04 13863
0.14 1.04 0.52 -0.68 10.11 0.03 -0.05 0.04 13870
0.18 0.97 0.52 -0.71 10.07 0.03 -0.04 0.04 13877
0.23 0.91 0.52 -0.64 10.06 0.04 -0.04 0.04 13883
0.23 0.79 0.48 -0.69 9.98 0.05 -0.03 0.05 13889
0.24 0.61 0.50 -0.68 10.08 0.06 -0.02 0.05 13895
0.29 0.57 0.52 -0.66 10.00 0.07 -0.02 0.05 13902
0.31 0.51 0.51 -0.40 9.96 0.07 -0.02 0.05 13908
0.34 0.41 0.65 -0.78 10.06 0.08 -0.01 0.05 13915
0.37 0.31 0.88 -0.88 10.16 0.08 -0.01 0.04 13921
0.37 0.29 0.66 -0.74 9.98 0.09 -0.01 0.04 13927
0.43 0.23 0.57 -0.76 9.94 0.09 -0.01 0.03 13934
0.41 0.15 0.52 -0.73 9.98 0.08 -0.01 0.03 13940
0.41 0.13 0.62 -0.85 10.03 0.08 -0.01 0.02 13946
0.44 0.09 0.61 -0.79 10.02 0.08 -0.01 0.02 13953
0.44 0.07 0.62 -0.84 10.05 0.08 -0.01 0.01 13959
0.47 0.06 0.61 -0.85 10.03 0.07 -0.01 0.01 13966
0.49 0.03 0.58 -0.91 10.01 0.08 -0.01 0.01 13972
0.54 -0.00 0.60 -0.87 10.07 0.09 -0.01 0.01 13978
0.54 -0.02 0.55 -0.87 10.03 0.09 -0.01 0.02 13984
0.55 -0.01 0.62 -0.91 9.97 0.10 -0.01 0.02 13991
0.59 -0.02 0.63 -0.91 10.12 0.11 -0.02 0.01 13998
0.60 -0.01 0.65 -0.85 10.08 0.11 -0.03 0.00 14004
0.60 -0.04 0.69 -0.87 10.02 0.12 -0.05 -0.01 14010
0.62 -0.03 0.60 -0.98 10.00 0.12 -0.06 -0.02 14016
0.66 -0.05 0.69 -0.96 9.96 0.12 -0.07 -0.03 14023
0.68 -0.04 0.59 -0.94 9.86 0.11 -0.07 -0.03 14029
0.76 -0.04 0.70 -0.96 9.93 0.11 -0.07 -0.04 14035
0.76 -0.05 0.74 -1.02 9.95 0.10 -0.07 -0.05 14042
0.75 -0.05 0.68 -1.01 10.00 0.09 -0.06 -0.06 14049
0.84 -0.05 0.57 -1.01 10.03 0.09 -0.06 -0.06 14055
0.88 -0.06 0.65 -0.96 9.97 0.09 -0.05 -0.06 14061
0.88 -0.04 0.59 -1.05 9.99 0.09 -0.05 -0.06 14067
0.91 -0.05 0.59 -1.05 10.01 0.09 -0.05 -0.06 14073
0.96 -0.05 0.56 -1.02 9.91 0.08 -0.04 -0.06 14081
0.99 -0.05 0.55 -1.02 9.97 0.09 -0.03 -0.05 14087
1.03 -0.05 0.53 -1.04 9.98 0.09 -0.02 -0.05 14093
1.07 -0.05 0.55 -1.04 10.14 0.11 -0.02 -0.04 14099
1.08 -0.05 0.59 -1.06 10.16 0.13 -0.01 -0.03 14105
1.11 -0.05 0.58 -1.10 10.27 0.17 -0.01 -0.03 14112
1.16 -0.06 0.65 -1.14 10.24 0.22 -0.01 -0.03 14118
1.23 -0.05 0.64 -1.09 10.36 0.28 -0.01 -0.04 14125
1.27 -0.06 0.63 -1.13 10.51 0.37 -0.01 -0.04 14131
1.30 -0.05 0.70 -1.15 10.61 0.48 -0.00 -0.05 14138
1.34 -0.06 0.71 -0.64 10.98 0.60 0.00 -0.07 14144
1.42 -0.05 0.78 -1.31 11.11 0.73 0.00 -0.08 14150
1.43 -0.05 0.76 -1.39 11.33 0.88 -0.01 -0.09 14156
1.47 -0.06 0.79 -1.50 11.46 1.03 -0.03 -0.10 14163
1.51 -0.04 0.79 -1.62 11.68 1.17 -0.05 -0.11 14170
1.59 -0.07 0.72 -1.59 11.89 1.31 -0.07 -0.11 14176
1.62 -0.05 0.88 -1.72 11.92 1.43 -0.09 -0.11 14183
1.66 -0.05 0.81 -1.24 12.13 1.55 -0.12 -0.10 14189
1.69 -0.05 0.73 -1.25 12.13 1.67 -0.15 -0.11 14195
1.71 -0.05 0.64 -1.84 12.40 1.81 -0.19 -0.11 14201
1.76 -0.05 0.77 -2.09 13.00 1.98 -0.21 -0.11 14209
1.80 -0.04 0.64 -1.41 13.87 2.20 -0.21 -0.11 14215
1.84 -0.07 0.42 -2.97 13.32 2.43 -0.21 -0.13 14221
1.83 -0.04 0.80 -2.26 13.16 2.65 -0.19 -0.14 14227
1.82 -0.05 0.60 -2.31 13.53 2.88 -0.16 -0.16 14234
1.82 -0.04 0.95 -2.62 14.03 3.16 -0.15 -0.18 14240
1.81 -0.06 1.02 -2.74 14.48 3.48 -0.12 -0.22 14246
1.74 -0.07 1.05 -2.86 14.53 3.83 -0.12 -0.26 14254
1.69 -0.05 1.04 -2.78 14.93 4.14 -0.07 -0.31 14260
1.54 -0.07 0.69 -3.05 16.32 4.28 -0.12 -0.35 14266
1.41 -0.04 1.49 -3.41 18.04 4.28 -0.17 -0.43 14272
1.20 -0.05 3.02 -4.02 20.09 4.28 -0.40 -0.52 14279
1.12 -0.05 2.56 -5.48 21.55 4.28 -0.68 -0.64 14285
0.93 -0.05 3.31 -7.33 23.75 4.28 -0.93 -0.76 14291
0.82 -0.05 1.89 -10.16 28.92 4.28 -0.92 -0.82 14299
0.74 -0.04 0.54 -14.47 34.71 4.28 -0.82 -0.72 14305
0.62 -0.04 1.67 -15.66 34.13 4.28 -0.63 -0.58 14311
0.54 -0.02 1.91 -12.11 28.54 4.28 -0.58 -0.57 14318
0.39 -0.03 0.51 -10.61 27.26 4.28 -0.43 -0.60 14324
0.39 -0.02 -0.41 -8.45 29.85 4.28 -0.48 -0.63 14330
0.26 -0.03 0.38 -6.91 34.32 4.28 -0.99 -0.73 14337
0.18 -0.02 2.30 -4.97 33.54 4.28 -1.76 -0.85 14344
0.14 -0.01 5.62 -0.72 33.64 4.28 -2.41 -0.91 14350
0.10 -0.01 7.93 3.18 34.17 4.28 -2.61 -0.86 14356
0.08 -0.01 8.87 8.51 30.87 4.28 -2.47 -0.72 14362
0.08 -0.01 12.31 17.99 26.89 4.28 -2.11 -0.66 14369
0.05 -0.01 7.60 19.82 16.73 4.28 -1.67 -0.95 14375
0.05 -0.01 9.55 23.43 -7.80 3.51 -1.54 -1.59 14382
0.05 -0.01 8.41 22.77 13.20 1.90 -1.36 -1.96 14388
0.07 -0.00 9.25 16.07 28.14 -0.00 -0.33 -1.89 14395
0.06 -0.01 7.19 12.55 25.63 -1.64 0.44 -1.81 14401
0.07 -0.00 4.04 12.16 18.11 -2.53 0.56 -1.80 14407
0.06 -0.01 1.86 12.29 12.98 -3.02 0.19 -1.74 14414
0.06 -0.01 0.97 10.95 10.57 -3.50 -0.22 -1.60 14420
0.07 -0.00 1.60 9.14 6.56 -4.00 -0.50 -1.42 14427
0.07 -0.01 2.09 7.73 7.74 -4.15 -0.68 -1.27 14433
0.06 -0.00 3.07 6.21 7.44 -4.22 -0.83 -1.14 14439
0.07 -0.00 3.27 4.97 7.21 -4.25 -0.88 -1.02 14446
0.05 -0.01 3.61 4.07 6.96 -4.25 -0.92 -0.89 14452
0.06 0.00 4.16 3.31 6.93 -4.25 -0.95 -0.79 14458
0.06 0.00 4.87 2.83 6.88 -4.24 -0.95 -0.69 14465
0.05 -0.01 5.55 2.60 7.16 -4.24 -0.93 -0.60 14471
0.05 -0.00 6.00 2.49 7.58 -4.26 -0.86 -0.50 14478
0.06 0.00 6.41 2.30 8.14 -4.27 -0.76 -0.40 14484
0.06 -0.01 6.76 1.98 8.73 -4.28 -0.64 -0.26 14490
0.07 -0.00 6.96 2.17 8.27 -4.28 -0.53 -0.11 14496
0.06 -0.01 6.59 1.52 11.05 -4.28 -0.50 0.05 14502
0.04 -0.00 6.70 0.36 11.83 -4.28 -0.31 0.25 14510
0.05 0.01 7.63 -1.02 12.42 -4.28 -0.24 0.43 14516
0.07 -0.00 7.83 -1.68 12.25 -4.28 -0.02 0.62 14522
0.05 -0.00 7.87 -2.27 12.06 -4.28 0.12 0.78 14528
0.05 0.00 7.76 -2.79 11.94 -4.28 0.24 0.88 14534
0.04 -0.00 7.83 -3.33 12.86 -4.28 0.40 0.95 14541
0.05 0.00 7.98 -4.35 14.03 -4.28 0.58 0.98 14547
0.06 -0.01 8.06 -5.06 14.83 -4.28 0.71 0.96 14554
0.05 -0.01 8.36 -6.37 16.37 -4.28 0.83 0.88 14560
0.06 0.01 8.27 -8.02 17.42 -4.28 0.98 0.77 14567
0.05 -0.00 8.24 -9.71 17.88 -4.28 1.14 0.66 14573
0.05 -0.00 8.14 -10.80 18.31 -4.28 1.31 0.54 14579
0.06 -0.01 7.83 -11.88 18.17 -4.28 1.48 0.42 14585
0.04 -0.00 7.35 -12.43 17.29 -4.24 1.56 0.32 14593
0.04 0.01 7.13 -12.98 17.94 -4.17 1.58 0.26 14599
0.05 -0.00 6.96 -13.33 18.52 -4.05 1.53 0.27 14605
0.05 0.00 7.02 -13.18 18.88 -3.89 1.45 0.40 14611
0.05 -0.00 7.15 -12.58 19.26 -3.75 1.37 0.55 14618
0.04 -0.00 7.53 -12.11 19.59 -3.64 1.36 0.76 14624
0.05 -0.00 7.75 -12.27 19.77 -3.56 1.46 0.99 14630
0.03 -0.00 8.03 -12.68 20.12 -3.50 1.64 1.27 14638
0.04 0.00 8.03 -13.11 20.17 -3.45 1.86 1.48 14644
0.04 -0.00 7.62 -13.33 20.24 -3.39 2.08 1.69 14650
0.04 -0.00 6.88 -13.51 19.76 -3.32 2.30 1.89 14656
0.04 -0.00 6.01 -13.87 19.42 -3.23 2.50 2.06 14663
0.04 -0.00 5.14 -14.37 19.28 -3.12 2.66 2.23 14669
0.07 -0.01 4.21 -15.09 19.25 -2.99 2.76 2.39 14675
0.05 -0.00 3.30 -15.86 19.44 -2.88 2.75 2.51 14682
0.06 -0.00 2.62 -16.88 19.64 -2.78 2.62 2.65 14689
0.05 -0.01 2.34 -18.01 19.80 -2.72 2.42 2.72 14695
0.05 -0.01 2.23 -19.21 19.42 -2.69 2.18 2.75 14701
0.06 -0.01 2.23 -20.27 18.21 -2.66 1.96 2.74 14708
0.05 -0.00 2.33 -22.03 16.79 -2.62 1.81 2.69 14714
0.06 -0.01 2.41 -22.40 14.94 -2.55 1.75 2.63 14721
0.05 -0.01 2.36 -23.40 12.99 -2.44 1.82 2.56 14727
0.05 -0.00 1.88 -24.12 10.63 -2.28 1.96 2.49 14734
0.05 -0.00 0.11 -23.59 7.22 -2.01 2.24 2.49 14740
0.04 -0.00 -2.77 -22.20 5.54 -1.62 2.87 2.71 14746
0.06 -0.01 -6.00 -23.53 7.04 -1.17 3.67 3.13 14752
0.05 -0.00 -8.78 -25.84 8.97 -0.73 3.97 3.47 14759
0.05 -0.00 -11.46 -27.39 8.06 -0.35 3.23 3.51 14766
0.04 -0.00 -13.06 -26.70 5.88 -0.14 1.86 3.33 14772
0.03 -0.00 -11.29 -23.95 4.05 -0.07 0.55 3.06 14778
0.06 -0.01 -8.59 -38.66 -4.08 0.03 -0.40 2.76 14785
0.06 -0.01 -6.62 -30.60 9.24 2.33 -0.47 2.48 14791
0.05 -0.01 -6.05 -22.19 2.42 2.38 -0.05 2.30 14797
0.07 0.00 -5.99 -25.30 -1.76 2.69 -0.07 2.03 14803
0.05 0.10 -6.32 -34.67 1.60 2.71 -0.95 1.80 14811
0.05 0.25 -11.81 -24.59 -0.04 2.90 -1.62 1.86 14817
0.04 0.40 -2.73 -1.42 5.07 3.66 -1.31 1.97 14823
0.02 0.67 -2.89 -6.16 21.67 4.28 -0.62 2.03 14829
0.00 1.02 -6.59 -1.24 31.04 4.28 -0.54 1.90 14836
-0.00 1.27 -12.33 -2.72 29.90 4.28 -0.74 1.28 14842
0.00 1.44 -11.82 -5.58 28.38 4.28 -0.88 0.42 14849
-0.02 1.49 -7.16 -5.08 24.48 4.10 -0.47 -0.29 14856
0.00 1.47 -3.29 -3.32 23.88 3.57 0.05 -0.76 14862
0.00 1.47 1.48 -1.65 18.40 2.99 0.13 -1.07 14868
0.00 1.42 7.39 -2.13 25.60 2.20 -1.14 -1.04 14874
-0.01 1.41 9.34 -4.00 11.76 1.02 -1.50 -0.39 14881
-0.01 1.33 2.78 -3.04 11.79 0.78 -1.27 0.12 14887
0.01 1.26 0.51 -1.00 12.18 0.59 -1.11 0.20 14894
-0.00 1.28 -0.37 -0.32 12.08 0.29 -0.66 0.13 14900
0.01 1.19 0.35 -0.48 10.45 0.08 -0.34 0.03 14907
0.02 1.14 1.25 -1.25 10.09 0.00 -0.21 0.01 14913
0.01 1.16 1.21 -1.45 9.94 -0.02 -0.17 0.05 14919
0.04 1.15 0.84 -0.70 10.02 -0.03 -0.15 0.05 14925
0.06 1.04 0.69 -0.55 10.29 -0.05 -0.16 0.02 14932
0.08 1.05 0.84 -0.74 10.17 -0.05 -0.15 0.00 14939
0.11 0.97 0.82 -0.74 10.16 -0.03 -0.13 0.00 14945
0.14 0.87 0.61 -0.61 10.16 -0.01 -0.09 0.01 14951
0.16 0.81 0.74 -0.73 10.27 0.01 -0.06 0.01 14958
0.18 0.76 0.82 -0.71 10.05 0.03 -0.04 0.02 14964
0.21 0.67 0.61 -0.28 10.18 0.04 -0.03 0.03 14970
0.24 0.54 0.75 -0.60 10.16 0.06 -0.01 0.04 14977
0.23 0.48 0.84 -0.67 10.14 0.07 -0.01 0.05 14984
0.26 0.39 0.87 -0.62 10.00 0.08 -0.01 0.05 14990
0.29 0.31 0.89 -0.67 10.01 0.09 -0.01 0.05 14996
0.33 0.28 0.94 -0.69 9.93 0.09 -0.02 0.03 15002
0.38 0.19 0.96 -0.73 9.88 0.09 -0.03 0.02 15008
0.40 0.11 0.90 -0.68 10.08 0.10 -0.04 0.01 15015
0.42 0.13 0.87 -0.71 10.02 0.10 -0.05 0.00 15022
0.50 0.10 0.88 -0.73 10.05 0.12 -0.05 -0.01 15028
0.47 0.04 0.84 -0.77 10.09 0.12 -0.05 -0.00 15034
0.51 0.03 0.78 -0.74 10.06 0.13 -0.04 -0.00 15041
0.57 0.00 0.78 -0.72 10.11 0.14 -0.04 0.00 15047
0.59 -0.01 0.80 -0.81 10.03 0.15 -0.00 0.01 15053
0.64 -0.03 0.86 -0.85 10.09 0.17 -0.03 0.01 15059
0.67 -0.05 0.83 -0.80 10.01 0.18 -0.04 0.02 15067
0.69 -0.04 0.83 -0.77 10.17 0.21 -0.06 0.02 15073
0.71 -0.04 0.79 -0.84 10.05 0.24 -0.07 0.01 15079
0.76 -0.05 0.78 -0.84 10.18 0.27 -0.09 0.01 15085
0.84 -0.04 0.85 -0.92 10.17 0.31 -0.09 0.01 15092
0.86 -0.05 0.86 -0.97 10.20 0.36 -0.10 -0.03 15098
0.93 -0.03 0.96 -0.98 10.23 0.40 -0.11 -0.02 15105
1.00 -0.05 0.92 -1.07 10.39 0.45 -0.11 -0.03 15111
1.00 -0.05 1.00 -1.13 10.26 0.49 -0.12 -0.04 15118
1.05 -0.05 0.93 -1.19 10.07 0.52 -0.13 -0.05 15124
1.08 -0.05 0.86 -1.15 10.15 0.53 -0.15 -0.06 15130
1.08 -0.04 0.83 -1.18 9.89 0.53 -0.15 -0.07 15136
1.14 -0.06 0.80 -1.28 9.84 0.51 -0.14 -0.06 15143
1.13 -0.06 0.77 -1.29 9.77 0.48 -0.14 -0.06 15150
1.17 -0.05 0.68 -1.32 9.82 0.44 -0.13 -0.06 15156
1.21 -0.07 0.72 -1.39 9.95 0.42 -0.12 -0.05 15162
1.24 -0.06 0.77 -1.39 9.93 0.39 -0.11 -0.05 15168
1.27 -0.07 0.73 -1.43 9.92 0.38 -0.11 -0.04 15175
1.27 -0.06 0.78 -1.43 9.86 0.37 -0.10 -0.04 15181
1.31 -0.05 0.78 -1.52 9.82 0.35 -0.09 -0.03 15187
1.32 -0.06 0.84 -1.50 9.83 0.34 -0.09 -0.04 15194
1.35 -0.06 0.74 -1.52 9.83 0.33 -0.08 -0.04 15200
1.36 -0.06 0.76 -1.53 9.82 0.32 -0.08 -0.04 15207
1.38 -0.07 0.83 -1.61 9.93 0.31 -0.08 -0.04 15213
1.40 -0.06 0.86 -1.51 9.91 0.31 -0.08 -0.05 15219
1.46 -0.06 0.79 -1.64 9.84 0.31 -0.08 -0.05 15225
1.51 -0.07 0.78 -1.65 9.98 0.32 -0.08 -0.05 15233
1.54 -0.06 0.70 -1.68 10.13 0.34 -0.08 -0.05 15239
1.60 -0.08 0.73 -1.79 10.26 0.36 -0.09 -0.04 15245
1.64 -0.08 0.76 -1.77 10.15 0.39 -0.09 -0.04 15251
1.68 -0.08 0.70 -1.80 10.38 0.42 -0.09 -0.05 15258
1.72 -0.08 0.74 -2.41 10.47 0.47 -0.08 -0.05 15264
1.77 -0.07 0.66 -1.87 10.64 0.52 -0.08 -0.05 15270
1.80 -0.07 0.76 -1.91 10.85 0.59 -0.10 -0.06 15277
1.82 -0.07 0.78 -2.04 11.02 0.68 -0.11 -0.06 15284
1.86 -0.06 0.94 -2.10 11.49 0.78 -0.14 -0.08 15290
1.89 -0.07 0.87 -1.93 11.93 0.92 -0.18 -0.09 15296
1.93 -0.05 0.73 -2.17 12.18 1.09 -0.22 -0.09 15302
2.00 -0.07 0.66 -2.13 12.46 1.28 -0.27 -0.08 15309
2.05 -0.07 0.69 -2.22 12.64 1.48 -0.32 -0.08 15315
2.11 -0.05 0.67 -2.26 12.85 1.67 -0.36 -0.07 15322
2.11 -0.07 0.42 -2.27 13.08 1.88 -0.37 -0.06 15329
2.14 -0.06 0.44 -2.44 13.04 2.09 -0.37 -0.05 15335
2.17 -0.06 0.53 -2.63 13.16 2.30 -0.37 -0.04 15341
2.17 -0.07 0.52 -2.60 13.33 2.53 -0.35 -0.04 15347
2.14 -0.06 0.52 -2.77 13.54 2.78 -0.36 -0.05 15354
2.14 -0.04 0.80 -3.05 13.57 3.05 -0.37 -0.08 15361
2.10 -0.05 1.03 -2.99 13.46 3.32 -0.37 -0.12 15367
2.06 -0.08 0.95 -2.51 14.11 3.62 -0.42 -0.16 15373
1.97 -0.04 1.05 -3.15 14.90 3.94 -0.49 -0.22 15380
1.84 -0.05 1.13 -3.37 15.42 4.20 -0.59 -0.27 15386
1.73 -0.05 1.55 -4.22 16.31 4.28 -0.70 -0.34 15392
1.64 -0.05 2.78 -3.78 17.29 4.28 -0.88 -0.47 15399
