Voltage_01 Voltage_02 Acc_x Acc_y Acc_z Gyro_x Gyro_y Gyro_z Time
5000
0.20 -0.00 0.88 -0.83 9.96 0.02 0.03 0.01 23
0.20 -0.01 0.91 -0.86 9.99 0.02 0.02 0.01 29
0.20 -0.02 0.88 -0.82 9.92 0.02 0.02 -0.00 35
0.21 -0.02 0.84 -0.91 10.02 0.02 0.02 -0.00 41
0.20 -0.02 0.86 -0.85 9.93 0.02 0.02 -0.00 48
0.21 -0.02 0.85 -0.84 9.91 0.02 0.02 -0.00 54
0.23 -0.01 0.85 -0.61 9.92 0.02 0.02 0.00 60
0.26 -0.02 0.91 -0.84 10.01 0.02 0.01 0.00 66
0.27 -0.02 0.90 -0.82 10.09 0.03 0.00 0.00 72
0.29 -0.03 0.90 -0.82 10.09 0.04 -0.01 -0.00 78
0.30 -0.02 0.92 -0.85 10.12 0.04 -0.01 -0.01 84
0.32 -0.02 0.90 -0.84 9.99 0.05 -0.02 -0.02 91
0.34 -0.03 0.91 -1.05 10.03 0.06 -0.03 -0.02 97
0.37 -0.03 0.95 -0.83 10.03 0.07 -0.03 -0.07 103
0.39 -0.04 0.96 -0.86 10.06 0.09 -0.03 -0.04 109
0.39 -0.03 1.04 -0.97 10.09 0.11 -0.04 -0.05 115
0.41 -0.03 1.02 -0.98 10.09 0.14 -0.03 -0.06 122
0.44 -0.03 0.95 -0.97 10.15 0.20 -0.02 -0.08 129
0.51 -0.03 1.01 -0.92 10.15 0.19 -0.01 -0.09 135
0.55 -0.03 0.91 -1.07 10.15 0.23 0.01 -0.10 141
0.64 -0.04 0.92 -1.02 10.26 0.29 0.03 -0.11 147
0.66 -0.04 0.92 -1.08 10.37 0.38 0.06 -0.11 153
0.72 -0.03 1.03 -1.13 10.53 0.50 0.09 -0.11 159
0.81 -0.05 1.09 -1.30 10.82 0.67 0.12 -0.12 166
0.85 -0.05 1.08 -1.25 11.29 0.89 0.14 -0.13 173
0.91 -0.04 1.07 -1.37 11.13 1.11 0.11 -0.14 179
0.98 -0.05 1.52 -0.90 12.12 1.28 0.08 -0.16 185
1.02 -0.06 1.18 -1.57 11.41 1.41 -0.01 -0.13 191
1.07 -0.06 1.02 -1.53 11.86 1.52 -0.15 -0.12 197
1.17 -0.05 0.97 -1.69 12.52 1.61 -0.24 -0.12 204
1.23 -0.05 1.04 -1.83 12.14 1.73 -0.32 -0.11 210
1.24 -0.06 1.05 -1.81 12.47 1.88 -0.38 -0.11 217
1.30 -0.06 0.91 -2.07 12.72 2.04 -0.42 -0.11 223
1.33 -0.06 1.08 -2.30 12.43 2.18 -0.45 -0.12 229
1.40 -0.06 1.02 -1.94 13.50 2.30 -0.48 -0.20 235
1.44 -0.05 0.98 -2.24 12.33 2.51 -0.43 -0.15 242
1.42 -0.05 1.05 -2.37 13.00 2.67 -0.45 -0.16 248
1.42 -0.05 0.99 -2.64 13.03 2.88 -0.45 -0.17 254
1.40 -0.04 1.24 -2.64 13.48 3.09 -0.42 -0.18 261
1.36 -0.05 1.21 -2.85 13.86 3.35 -0.40 -0.20 267
1.35 -0.07 1.01 -2.86 14.16 3.61 -0.36 -0.22 273
1.29 -0.06 0.58 -3.60 15.14 3.91 -0.34 -0.24 280
1.24 -0.05 0.64 -3.07 15.73 4.18 -0.31 -0.23 286
1.17 -0.06 0.93 -3.91 16.93 4.28 -0.27 -0.24 292
1.08 -0.04 1.71 -4.14 16.34 4.28 -0.29 -0.31 299
0.96 -0.04 2.43 -5.17 18.75 4.28 -0.40 -0.43 305
0.85 -0.05 3.93 -3.79 19.79 4.28 -0.50 -0.57 311
0.75 -0.03 1.80 -7.31 21.52 4.28 -0.48 -0.59 318
0.70 -0.03 1.70 -11.02 27.07 4.28 -0.52 -0.60 324
0.62 -0.04 2.08 -13.71 31.34 4.28 -0.35 -0.54 330
0.47 -0.02 2.11 -14.64 31.14 4.28 -0.03 -0.46 336
0.37 -0.02 2.83 -12.08 31.15 4.28 0.21 -0.44 344
0.31 -0.03 2.69 -11.81 28.19 4.28 0.56 -0.44 350
0.23 0.01 1.82 -9.05 26.66 4.28 0.73 -0.44 356
0.18 -0.01 -0.40 -5.74 29.24 4.28 0.77 -0.48 362
0.13 -0.01 -1.00 -4.42 31.36 4.28 0.42 -0.58 368
0.10 -0.00 -0.11 -1.77 30.04 4.28 -0.22 -0.68 374
0.11 -0.01 2.34 1.84 28.77 4.28 -0.83 -0.76 380
0.09 -0.01 4.86 5.01 29.68 4.28 -1.24 -0.78 388
0.07 -0.00 7.35 8.45 30.49 4.28 -1.24 -0.75 394
0.08 0.00 8.97 12.27 25.43 4.28 -0.82 -0.74 400
0.06 -0.01 10.31 19.52 23.38 4.28 -0.24 -1.08 406
0.04 -0.00 6.36 20.97 1.13 3.97 0.48 -1.81 412
0.05 -0.00 7.47 26.72 6.27 2.36 0.63 -2.37 418
0.06 -0.01 5.99 24.60 22.48 -0.24 1.34 -2.67 424
0.05 -0.01 5.88 18.08 29.59 -2.31 2.20 -2.65 432
0.05 -0.01 2.75 13.70 22.21 -3.47 2.33 -2.61 438
0.08 -0.01 0.60 12.28 16.65 -4.05 2.01 -2.49 444
0.07 -0.01 -0.25 11.10 13.75 -4.24 1.59 -2.30 450
0.05 -0.01 -0.45 9.24 11.33 -4.28 1.33 -2.05 456
0.06 0.00 0.24 7.23 9.31 -4.28 1.16 -1.82 462
0.07 -0.01 0.89 5.92 8.37 -4.28 0.93 -1.66 468
0.06 -0.01 1.08 4.75 8.21 -4.28 0.73 -1.48 475
0.05 -0.01 0.92 3.88 8.27 -4.28 0.58 -1.30 482
0.05 -0.01 1.25 3.22 8.38 -4.28 0.46 -1.12 488
0.04 0.00 2.28 2.88 8.29 -4.28 0.39 -0.96 494
0.04 -0.00 2.28 2.86 8.27 -4.28 0.32 -0.86 500
0.05 -0.01 2.72 2.88 8.30 -4.28 0.27 -0.75 506
0.04 -0.00 2.91 2.73 8.64 -4.28 0.27 -0.65 513
0.05 -0.01 3.06 2.49 9.22 -4.28 0.32 -0.55 519
0.06 -0.01 3.09 2.02 9.82 -4.28 0.42 -0.44 525
0.05 -0.00 3.10 1.48 10.59 -4.28 0.61 -0.35 531
0.05 -0.00 3.05 0.93 11.48 -4.28 0.84 -0.25 537
0.04 -0.00 2.82 0.43 12.40 -4.28 1.08 -0.16 543
0.05 -0.01 2.52 0.00 13.19 -4.28 1.31 -0.08 549
0.06 -0.01 2.26 -0.35 14.06 -4.28 1.51 -0.03 556
0.05 -0.01 2.07 -0.79 14.60 -4.28 1.65 0.01 563
0.05 -0.00 1.77 -1.24 15.27 -4.28 1.80 0.02 569
0.05 -0.00 1.48 -1.91 15.99 -4.28 1.95 0.03 575
0.05 -0.01 1.22 -2.75 16.67 -4.28 2.09 0.01 581
0.05 -0.01 0.87 -3.69 17.03 -4.28 2.20 0.00 587
0.04 -0.00 0.46 -4.36 17.23 -4.28 2.29 -0.01 593
0.05 0.00 -0.12 -5.07 17.41 -4.28 2.34 0.01 600
0.06 -0.01 -0.19 -5.41 17.44 -4.28 2.37 0.07 606
0.05 -0.00 -0.48 -5.77 17.47 -4.28 2.35 0.07 612
0.04 -0.00 -0.71 -5.77 17.52 -4.26 2.33 0.14 618
0.04 0.00 -0.93 -6.00 17.81 -4.18 2.30 0.23 625
0.05 -0.01 -1.04 -6.26 17.80 -4.04 2.27 0.34 631
0.04 -0.00 -1.35 -6.41 18.21 -3.86 2.20 0.45 637
0.05 -0.00 -1.55 -6.77 18.96 -3.62 2.11 0.56 644
0.05 -0.01 -1.77 -6.94 19.78 -3.39 1.99 0.69 650
0.05 -0.00 -1.98 -7.05 20.44 -3.20 1.82 0.77 656
0.05 -0.00 -1.92 -7.30 21.17 -3.05 1.64 0.87 662
0.04 -0.00 -1.58 -7.66 22.09 -2.97 1.48 0.97 668
0.05 -0.00 -0.74 -8.25 22.51 -2.92 1.36 1.06 674
0.05 -0.01 -0.39 -8.97 22.77 -2.92 1.31 1.16 681
0.05 -0.01 -0.11 -9.62 22.66 -2.91 1.32 1.27 688
0.05 -0.00 -0.01 -10.69 22.64 -2.91 1.34 1.36 694
0.06 -0.00 -0.40 -11.95 22.29 -2.90 1.33 1.47 700
0.05 -0.01 -0.95 -15.04 23.51 -2.85 1.21 1.56 706
0.05 -0.01 -3.25 -19.85 27.79 -2.56 0.97 1.64 712
0.07 -0.01 -1.17 -13.35 21.97 -2.52 0.84 1.69 719
0.05 -0.00 -2.45 -15.15 16.47 -2.96 0.55 1.68 726
0.05 0.00 -1.95 -18.34 20.55 -3.19 0.27 1.67 732
0.06 -0.01 -2.01 -21.67 18.81 -3.29 0.21 1.67 738
0.04 -0.00 -1.23 -23.69 16.41 -3.25 0.48 1.66 744
0.04 -0.00 -2.22 -24.53 12.20 -3.14 0.89 1.69 750
0.05 -0.00 -3.07 -26.24 8.58 -2.99 1.48 1.72 757
0.05 -0.01 -4.97 -27.77 6.64 -2.83 1.81 1.71 763
0.05 -0.00 -7.20 -30.57 5.44 -2.58 1.82 1.65 770
0.04 0.00 -8.62 -33.33 2.93 -2.25 1.60 1.53 776
0.05 -0.00 -9.67 -34.55 1.88 -1.79 1.26 1.38 782
0.04 0.00 -9.27 -34.39 0.12 -1.33 0.84 1.17 788
0.03 -0.00 -6.20 -46.39 -0.33 -0.73 0.34 0.86 794
0.06 0.00 -10.52 -34.24 2.63 1.77 0.45 0.48 801
0.04 -0.00 -9.20 -31.52 -0.27 2.00 0.59 0.27 807
0.04 -0.00 -7.35 -28.69 -2.36 2.66 0.04 0.03 814
0.04 0.03 -7.77 -36.88 -1.40 2.70 -1.11 -0.28 820
0.06 0.10 -9.47 -24.83 -7.28 2.52 -2.62 -0.59 826
0.03 0.27 -2.71 0.88 -0.68 3.00 -3.13 -0.75 832
0.02 0.52 5.21 -3.07 29.52 4.26 -2.21 -0.64 838
0.00 0.92 6.07 2.24 26.33 4.28 -1.51 -0.35 845
-0.02 1.14 1.23 -3.35 30.42 4.28 -1.61 -0.25 851
-0.02 1.34 2.05 -7.55 32.90 4.28 -1.54 -0.16 858
-0.01 1.55 2.43 -7.07 23.65 4.28 -1.29 0.07 864
-0.02 1.54 0.66 -4.33 23.41 4.17 -0.79 0.26 870
-0.04 1.59 -2.69 -2.66 20.82 3.91 -0.76 0.17 876
-0.04 1.59 -1.36 -2.28 23.29 3.70 -0.94 -0.10 883
-0.03 1.46 -0.01 -2.07 25.34 2.20 -1.50 -0.27 889
-0.02 1.36 2.62 -2.05 13.22 0.69 -0.91 -0.08 896
-0.00 1.29 0.80 -2.45 11.83 0.19 -0.33 0.11 902
0.00 1.26 0.22 -1.54 10.41 0.04 -0.11 0.17 908
0.01 1.20 -0.21 -0.82 10.13 0.04 -0.05 0.12 914
0.00 1.20 0.09 -0.76 9.97 0.01 -0.01 0.06 921
0.01 1.17 0.72 -1.22 10.18 -0.01 -0.01 0.05 927
-0.00 1.17 0.72 -1.20 10.18 -0.02 -0.02 0.07 933
0.03 1.15 0.54 -1.05 10.13 -0.03 -0.03 0.07 940
0.04 1.19 0.50 -0.83 10.13 -0.02 -0.03 0.06 946
0.05 1.17 0.56 -0.80 9.98 -0.02 -0.02 0.05 952
0.04 1.15 0.64 -0.78 10.11 -0.02 -0.02 0.05 958
0.03 1.15 0.04 -0.68 9.93 -0.02 -0.02 0.05 964
0.05 1.11 0.65 -1.23 9.98 -0.01 -0.02 0.04 970
0.06 1.08 0.68 -0.67 9.98 -0.01 -0.01 0.05 977
0.06 1.00 0.67 -0.71 10.02 0.00 -0.02 0.04 984
0.06 1.00 0.58 -0.72 10.10 0.00 -0.01 0.04 990
0.07 0.93 0.65 -0.71 10.04 0.01 -0.00 0.04 996
0.08 0.87 0.61 -0.70 10.11 0.02 0.00 0.04 1002
0.08 0.77 0.63 -0.72 10.02 0.03 0.01 0.04 1008
0.09 0.76 0.66 -0.67 10.02 0.03 0.01 0.04 1014
0.10 0.71 0.67 -0.71 10.02 0.03 0.01 0.04 1021
0.09 0.63 0.71 -0.74 10.04 0.04 0.01 0.03 1028
0.08 0.61 0.70 -0.73 10.05 0.04 0.01 0.03 1034
0.11 0.51 0.68 -0.68 10.02 0.04 0.01 0.03 1040
0.13 0.47 0.69 -0.74 10.01 0.04 0.01 0.03 1046
0.13 0.40 0.72 -0.74 10.00 0.05 0.01 0.03 1053
0.14 0.39 0.68 -0.76 9.98 0.05 0.01 0.03 1059
0.14 0.30 0.74 -0.76 10.01 0.05 0.01 0.03 1065
0.15 0.25 0.77 -0.78 10.06 0.04 0.00 0.03 1072
0.16 0.24 0.74 -0.79 9.99 0.04 -0.00 0.02 1078
0.16 0.19 0.77 -0.79 9.99 0.04 -0.01 0.01 1084
0.17 0.13 0.74 -0.82 9.96 0.04 -0.01 0.01 1090
0.16 0.09 0.74 -0.81 10.03 0.03 -0.01 0.01 1097
0.16 0.12 0.71 -0.76 9.99 0.03 -0.02 0.01 1103
0.15 0.11 0.70 -0.77 10.02 0.03 -0.02 0.00 1110
0.15 0.08 0.72 -0.79 10.02 0.04 -0.02 0.00 1116
0.18 0.05 0.74 -0.80 10.02 0.03 -0.02 0.01 1122
0.19 0.03 0.72 -1.08 9.97 0.04 -0.03 0.00 1128
0.18 0.03 0.69 -0.79 10.05 0.04 -0.03 0.01 1135
0.22 0.03 0.73 -0.83 9.97 0.04 -0.02 0.01 1141
0.22 0.03 0.75 -0.84 9.97 0.04 -0.01 0.00 1147
0.22 -0.01 0.73 -0.81 9.99 0.04 -0.01 0.01 1154
0.23 -0.02 0.77 -0.97 9.93 0.04 -0.01 0.00 1160
0.23 -0.00 0.69 -0.93 9.99 0.04 -0.00 0.00 1166
0.25 -0.01 0.71 -0.87 10.00 0.00 -0.00 -0.00 1172
0.26 -0.02 0.74 -0.91 10.00 0.03 0.01 -0.00 1178
0.31 -0.03 0.71 -0.91 9.97 0.03 0.01 -0.01 1185
0.30 -0.01 0.74 -0.86 10.11 0.03 0.01 -0.00 1191
0.31 -0.03 0.74 -0.85 10.00 0.02 0.01 -0.00 1198
0.32 -0.02 0.76 -0.88 9.94 0.02 0.01 0.00 1204
0.33 -0.02 0.68 -0.95 9.88 0.03 0.01 0.00 1210
0.34 -0.02 0.76 -0.87 10.00 0.02 0.01 -0.00 1216
0.35 -0.03 0.79 -0.87 9.97 0.03 0.01 0.00 1222
0.38 -0.02 0.81 -0.87 10.02 0.03 0.01 -0.00 1229
0.43 -0.04 0.82 -0.88 10.06 0.03 0.01 -0.01 1235
0.44 -0.04 0.79 -0.88 10.02 0.03 0.01 -0.01 1242
0.45 -0.02 0.82 -0.88 10.04 0.04 0.00 -0.01 1248
0.46 -0.02 0.82 -0.89 10.04 0.04 0.00 -0.02 1254
0.48 -0.03 0.85 -0.92 9.99 0.05 -0.00 -0.02 1260
0.49 -0.03 0.84 -0.88 10.05 0.06 -0.01 -0.02 1267
0.54 -0.04 0.81 -0.90 10.06 0.06 -0.02 -0.03 1273
0.57 -0.05 0.85 -0.92 10.08 0.08 -0.03 -0.03 1280
0.62 -0.04 0.90 -0.94 10.10 0.13 -0.03 -0.04 1286
0.63 -0.04 0.92 -0.98 10.12 0.13 -0.04 -0.05 1292
0.68 -0.05 0.92 -1.02 10.15 0.17 -0.03 -0.07 1299
0.72 -0.04 0.93 -1.02 10.20 0.22 -0.03 -0.09 1305
0.78 -0.04 1.04 -1.12 10.37 0.28 -0.01 -0.10 1311
0.86 -0.06 0.98 -1.04 10.68 0.39 0.01 -0.13 1317
0.91 -0.04 1.02 -1.16 10.88 0.54 0.02 -0.14 1324
0.99 -0.05 1.01 -1.79 11.22 0.74 0.04 -0.15 1331
1.06 -0.05 0.82 -1.31 11.73 1.00 0.04 -0.16 1337
1.13 -0.06 0.91 -1.42 11.81 1.27 0.02 -0.15 1343
1.20 -0.05 0.94 -1.43 12.60 1.51 -0.02 -0.15 1349
1.27 -0.06 0.92 -1.70 12.73 1.69 -0.11 -0.14 1355
1.33 -0.07 0.92 -1.66 12.47 1.83 -0.21 -0.13 1362
1.40 -0.07 0.81 -1.55 12.38 1.92 -0.35 -0.13 1369
1.45 -0.05 1.02 -1.65 12.55 2.00 -0.44 -0.12 1375
1.48 -0.05 0.60 -1.81 13.28 2.15 -0.46 -0.11 1381
1.54 -0.07 0.62 -1.88 13.16 2.33 -0.46 -0.11 1388
1.57 -0.07 1.06 -2.15 12.95 2.51 -0.53 -0.12 1394
1.61 -0.06 0.89 -2.38 13.10 2.69 -0.52 -0.13 1400
1.57 -0.07 0.95 -2.58 13.53 2.91 -0.50 -0.13 1406
1.61 -0.06 0.92 -2.60 14.23 3.18 -0.47 -0.14 1414
1.54 -0.06 1.04 -2.70 14.57 3.48 -0.45 -0.16 1420
1.46 -0.05 1.20 -2.81 14.59 3.80 -0.41 -0.21 1426
1.37 -0.06 0.51 -2.47 15.29 4.11 -0.37 -0.23 1432
1.29 -0.06 0.50 -2.99 16.28 4.25 -0.36 -0.24 1438
1.23 -0.06 1.31 -3.30 16.87 4.28 -0.35 -0.25 1445
1.03 -0.06 1.11 -5.12 17.06 4.28 -0.47 -0.36 1452
0.95 -0.04 3.14 -5.00 18.75 4.28 -0.53 -0.50 1458
0.77 -0.04 1.89 -5.57 20.94 4.28 -0.59 -0.63 1464
0.71 -0.03 0.81 -8.85 25.23 4.28 -0.62 -0.66 1471
0.62 -0.03 0.84 -12.25 29.73 4.28 -0.61 -0.64 1477
0.50 -0.04 2.37 -14.72 33.66 4.28 -0.34 -0.54 1483
0.44 -0.03 2.87 -14.71 31.37 4.28 0.13 -0.45 1490
0.35 -0.03 1.57 -11.67 29.42 4.28 0.34 -0.45 1497
0.28 -0.02 0.78 -10.04 27.08 4.28 0.59 -0.45 1503
0.23 -0.02 -1.53 -6.63 30.16 4.28 0.69 -0.48 1509
0.18 -0.02 -1.64 -5.47 35.15 4.28 0.40 -0.55 1515
0.15 -0.02 -1.22 -3.15 34.33 4.28 -0.29 -0.68 1522
0.14 -0.01 1.60 -0.87 33.94 4.28 -1.09 -0.75 1528
0.09 -0.01 4.49 3.05 34.12 4.28 -1.61 -0.77 1534
0.09 -0.01 6.37 8.73 31.00 4.28 -1.77 -0.70 1541
0.05 -0.00 9.55 17.24 21.38 4.28 -1.52 -0.61 1547
0.03 -0.00 9.54 20.55 15.13 4.26 -0.85 -0.86 1554
0.07 -0.01 11.05 23.12 -9.44 3.34 -0.21 -1.66 1560
0.07 -0.01 6.88 22.00 11.58 2.05 -0.15 -2.31 1566
0.05 -0.01 7.76 15.48 30.19 0.19 0.86 -2.41 1572
0.04 -0.00 6.01 13.57 28.79 -1.60 1.58 -2.35 1579
0.04 -0.00 2.23 13.38 18.84 -2.40 1.55 -2.35 1586
0.03 -0.00 0.56 12.76 14.21 -2.95 0.98 -2.28 1592
0.07 -0.01 -0.04 11.42 12.01 -3.51 0.47 -2.08 1598
0.04 -0.00 0.40 9.63 10.06 -3.98 0.25 -1.85 1604
0.03 -0.00 1.73 7.52 8.89 -4.15 0.06 -1.63 1610
0.05 -0.00 2.70 6.66 8.46 -4.20 -0.11 -1.48 1616
0.06 -0.01 2.72 5.60 8.11 -4.22 -0.24 -1.31 1624
0.05 -0.00 2.77 4.86 7.58 -4.24 -0.29 -1.14 1630
0.03 -0.00 3.15 4.21 7.19 -4.25 -0.30 -0.97 1636
0.04 -0.00 3.72 3.74 7.13 -4.26 -0.28 -0.83 1642
0.04 -0.00 4.05 3.30 7.25 -4.26 -0.27 -0.73 1648
0.05 -0.01 4.34 2.95 7.69 -4.27 -0.23 -0.66 1654
0.05 -0.00 4.49 2.72 8.49 -4.28 -0.16 -0.60 1660
0.05 -0.01 4.88 2.36 9.53 -4.28 -0.03 -0.53 1667
0.04 -0.00 5.16 2.09 10.57 -4.28 0.19 -0.45 1674
0.03 -0.00 5.21 1.85 11.40 -4.28 0.51 -0.36 1680
0.04 0.00 5.06 1.47 12.00 -4.28 0.85 -0.26 1686
0.04 -0.00 4.77 0.98 12.55 -4.28 1.15 -0.15 1692
0.04 -0.00 4.36 0.27 12.92 -4.28 1.37 -0.06 1698
0.04 -0.00 3.99 -0.51 13.18 -4.28 1.45 0.02 1704
0.05 -0.00 3.60 -1.17 13.45 -4.28 1.50 0.08 1711
0.04 -0.00 3.33 -2.06 13.77 -4.28 1.49 0.14 1718
0.04 -0.00 3.29 -3.01 14.23 -4.28 1.48 0.17 1724
0.05 -0.00 3.27 -3.98 14.80 -4.28 1.48 0.19 1730
0.05 -0.01 3.40 -4.89 15.22 -4.28 1.54 0.17 1736
0.05 0.00 3.33 -5.57 15.81 -4.28 1.65 0.12 1742
0.06 -0.00 3.52 -6.43 16.73 -4.28 1.76 0.04 1750
0.05 -0.00 3.49 -6.72 17.14 -4.28 1.95 -0.05 1756
0.04 -0.00 2.86 -6.99 17.77 -4.28 2.14 -0.12 1762
0.05 -0.01 1.87 -7.19 18.54 -4.26 2.30 -0.16 1768
0.04 -0.00 1.95 -7.46 19.11 -4.22 2.37 -0.15 1774
0.03 -0.00 1.53 -7.46 19.68 -4.16 2.40 -0.10 1780
0.05 -0.00 1.09 -7.47 20.36 -4.08 2.39 0.01 1787
0.04 -0.00 1.03 -7.65 20.60 -3.96 2.37 0.15 1794
0.04 -0.00 0.96 -7.71 20.89 -3.82 2.35 0.34 1800
0.04 0.00 0.94 -7.77 21.48 -3.69 2.33 0.53 1806
0.05 -0.00 0.87 -8.01 22.35 -3.57 2.35 0.71 1812
0.03 -0.00 0.70 -8.40 22.93 -3.45 2.36 0.88 1818
0.05 0.00 0.44 -8.95 22.98 -3.42 2.35 1.02 1825
0.05 -0.00 0.16 -9.77 22.68 -3.34 2.29 1.12 1831
0.05 -0.00 -0.12 -10.83 22.59 -3.26 2.21 1.21 1838
0.04 -0.00 -0.68 -12.12 22.17 -3.14 2.06 1.28 1844
0.04 -0.00 -6.13 -30.19 41.41 -2.84 1.75 1.51 1850
0.03 -0.00 0.97 -14.54 10.48 -1.47 1.66 1.68 1857
0.06 -0.01 -1.11 -8.36 1.19 -2.06 1.12 1.57 1863
0.03 -0.00 -5.30 -15.22 27.13 -2.36 0.52 1.52 1869
0.03 -0.00 -5.73 -18.95 27.12 -2.49 0.17 1.63 1875
0.05 -0.01 -3.07 -17.11 18.30 -2.70 0.17 1.68 1882
0.04 -0.00 -1.33 -18.38 15.30 -2.92 0.39 1.64 1889
0.04 -0.00 -1.08 -21.45 15.65 -3.03 0.80 1.65 1895
0.05 -0.01 -2.74 -23.21 15.76 -3.02 1.56 1.74 1901
0.04 -0.00 -4.34 -25.97 13.43 -2.93 2.29 1.81 1907
0.05 0.01 -6.58 -28.79 10.36 -2.82 2.50 1.80 1914
0.04 -0.00 -9.43 -31.76 6.91 -2.63 2.35 1.74 1921
0.03 -0.00 -10.69 -34.16 3.00 -2.30 1.99 1.66 1927
0.04 0.00 -10.67 -35.25 0.39 -1.90 1.52 1.53 1933
0.04 -0.00 -10.21 -34.60 -1.07 -1.31 0.98 1.29 1939
0.04 -0.00 -12.01 -47.79 11.29 -0.25 0.19 0.97 1946
0.05 -0.00 -7.57 -30.51 -5.81 1.77 0.06 0.70 1952
0.04 -0.00 -11.45 -31.52 4.22 2.10 -0.40 0.41 1958
0.04 -0.00 -8.73 -29.56 2.88 2.71 -1.36 0.22 1965
0.05 0.01 -7.51 -32.33 0.60 2.86 -2.28 0.16 1971
0.05 0.07 -4.07 -13.18 -4.20 2.70 -3.31 0.20 1978
0.03 0.21 0.74 -0.92 7.82 3.30 -3.20 0.38 1984
0.04 0.44 4.78 1.54 21.55 4.26 -1.37 0.88 1990
0.02 0.73 4.34 1.82 20.33 4.28 -0.57 1.31 1996
0.01 1.01 -6.65 -4.76 28.35 4.28 -0.88 1.27 2003
0.01 1.22 -8.83 -5.94 31.03 4.28 -1.19 0.93 2010
-0.01 1.33 -3.37 -5.61 24.20 4.28 -1.07 0.63 2016
-0.02 1.39 -3.64 -5.24 22.55 4.25 -0.52 0.47 2022
-0.01 1.37 -5.18 -3.59 22.62 4.14 -0.23 0.16 2029
-0.01 1.34 -1.58 -3.45 37.62 3.78 -0.92 -0.34 2035
-0.00 1.36 3.48 -1.09 17.57 0.97 -1.24 -0.36 2041
-0.01 1.29 2.50 -3.29 12.68 0.15 -0.41 -0.02 2048
-0.00 1.35 1.31 -2.24 10.40 0.03 -0.15 0.13 2054
0.01 1.23 0.04 -0.77 10.16 0.04 -0.11 0.14 2061
-0.01 1.22 0.02 -0.64 10.31 0.04 -0.09 0.07 2067
0.02 1.13 0.73 -1.16 10.16 0.00 -0.06 0.02 2073
0.00 1.20 1.33 -1.22 10.48 -0.02 -0.08 0.03 2079
0.02 1.20 0.78 -0.93 10.13 -0.02 -0.08 0.04 2085
0.02 1.24 0.50 -0.55 10.01 -0.02 -0.08 0.04 2093
0.03 1.22 0.53 -0.70 9.82 -0.02 -0.07 0.02 2099
0.03 1.21 0.71 -0.72 9.90 -0.02 -0.07 0.02 2105
0.05 1.14 0.70 -0.62 10.02 -0.02 -0.08 0.02 2111
0.08 1.06 0.63 -0.62 10.03 -0.01 -0.07 0.01 2117
0.07 0.95 0.57 -0.66 10.07 0.00 -0.06 0.00 2123
0.08 0.94 0.49 -0.65 10.00 0.01 -0.04 0.00 2130
0.12 0.86 0.51 -0.60 10.09 0.02 -0.01 0.01 2137
0.12 0.79 0.64 -0.69 10.16 0.02 -0.00 0.01 2143
0.13 0.72 0.72 -0.67 10.24 0.03 -0.01 0.01 2149
0.16 0.62 0.64 -0.69 9.98 0.04 -0.01 0.01 2155
0.14 0.57 0.63 -0.70 10.07 0.04 -0.01 0.02 2161
0.17 0.54 0.67 -0.67 10.14 0.04 -0.01 0.01 2168
0.17 0.44 0.72 -0.81 10.06 0.04 -0.01 0.02 2174
0.18 0.41 0.71 -0.67 10.08 0.05 -0.01 0.02 2181
0.20 0.30 0.74 -0.67 10.06 0.05 -0.01 0.01 2187
0.24 0.24 0.74 -0.71 10.02 0.05 -0.01 0.01 2193
0.25 0.19 0.73 -0.73 9.99 0.06 -0.01 0.01 2200
0.25 0.16 0.74 -0.70 9.90 0.06 -0.02 0.00 2206
0.27 0.13 0.74 -0.70 10.04 0.06 -0.02 -0.00 2212
0.28 0.07 0.69 -0.73 9.97 0.06 -0.02 -0.00 2219
0.30 0.08 0.74 -0.73 10.06 0.06 -0.02 -0.01 2225
0.32 0.03 0.72 -0.74 9.99 0.06 -0.02 -0.01 2231
0.30 0.03 0.72 -0.74 10.03 0.06 -0.03 -0.01 2238
0.32 0.02 0.65 -0.76 10.06 0.07 -0.03 -0.01 2244
0.35 0.01 0.63 -0.62 10.01 0.07 -0.03 -0.01 2250
0.37 -0.02 0.66 -0.76 10.05 0.08 -0.03 -0.01 2256
0.37 -0.03 0.57 -0.80 9.90 0.09 -0.03 -0.00 2263
0.39 -0.01 0.71 -0.86 10.04 0.09 -0.03 -0.00 2269
0.41 -0.04 0.75 -0.86 10.09 0.10 -0.03 -0.00 2276
0.39 -0.03 0.73 -0.80 10.04 0.10 -0.03 -0.00 2282
0.42 -0.03 0.79 -0.81 10.02 0.11 -0.03 -0.01 2288
0.41 -0.03 0.71 -0.87 10.00 0.11 -0.04 -0.01 2294
0.40 -0.03 0.72 -0.89 9.90 0.10 -0.03 -0.02 2300
0.43 -0.03 0.76 -0.88 9.87 0.10 -0.03 -0.02 2307
0.44 -0.03 0.70 -0.91 9.96 0.09 -0.03 -0.02 2314
0.45 -0.04 0.79 -0.70 9.87 0.08 -0.02 -0.03 2320
0.46 -0.04 0.72 -0.92 9.94 0.07 -0.02 -0.03 2326
0.50 -0.04 0.75 -0.89 9.97 0.06 -0.02 -0.04 2332
0.51 -0.04 0.74 -0.90 9.97 0.06 -0.02 -0.04 2338
0.55 -0.04 0.71 -0.91 9.97 0.06 -0.02 -0.04 2344
0.58 -0.03 0.68 -0.90 9.99 0.06 -0.02 -0.04 2351
0.58 -0.04 0.72 -0.93 9.99 0.06 -0.02 -0.04 2358
0.57 -0.05 0.71 -0.93 9.97 0.05 -0.01 -0.03 2364
0.59 -0.04 0.71 -0.94 9.98 0.05 -0.02 -0.03 2370
0.64 -0.04 0.68 -0.90 9.97 0.05 -0.02 -0.03 2376
0.66 -0.04 0.70 -0.96 10.01 0.05 -0.02 -0.03 2382
0.71 -0.04 0.69 -0.96 10.07 0.06 -0.03 -0.03 2388
0.77 -0.04 0.70 -0.95 10.10 0.07 -0.04 -0.03 2395
0.82 -0.04 0.74 -0.97 10.06 0.10 -0.04 -0.03 2402
0.87 -0.05 0.81 -1.09 10.19 0.13 -0.04 -0.04 2408
0.97 -0.05 0.76 -1.03 10.22 0.18 -0.04 -0.05 2414
1.02 -0.05 0.84 -1.05 10.24 0.23 -0.04 -0.06 2420
1.08 -0.05 0.77 -1.07 10.37 0.31 -0.04 -0.07 2427
1.10 -0.05 0.92 -1.17 10.51 0.40 -0.04 -0.09 2434
1.17 -0.06 1.04 -1.23 10.90 0.54 -0.04 -0.11 2440
1.26 -0.05 1.03 -1.29 11.33 0.73 -0.04 -0.14 2446
1.36 -0.05 1.02 -1.45 11.46 0.96 -0.08 -0.16 2452
1.43 -0.06 1.04 -1.44 12.03 1.19 -0.11 -0.19 2459
1.48 -0.06 0.93 -1.44 12.12 1.37 -0.17 -0.20 2465
1.55 -0.06 0.77 -1.62 12.70 1.53 -0.22 -0.20 2471
1.58 -0.06 0.95 -1.77 12.75 1.67 -0.30 -0.19 2478
1.66 -0.05 0.83 -1.69 12.94 1.81 -0.38 -0.18 2485
1.72 -0.07 0.68 -1.70 13.33 1.99 -0.43 -0.18 2491
1.76 -0.07 0.52 -1.72 13.41 2.20 -0.45 -0.16 2497
1.81 -0.08 0.41 -1.83 13.46 2.39 -0.51 -0.15 2503
1.84 -0.07 1.52 -1.37 15.09 2.58 -0.52 -0.18 2509
1.85 -0.07 0.61 -2.31 13.26 2.83 -0.53 -0.19 2516
1.84 -0.07 0.83 -1.95 13.26 3.05 -0.55 -0.17 2523
1.82 -0.06 0.40 -2.68 14.71 3.32 -0.54 -0.18 2529
1.77 -0.06 0.66 -2.57 14.55 3.59 -0.48 -0.19 2535
1.72 -0.07 0.88 -2.21 14.49 3.91 -0.42 -0.23 2542
1.62 -0.05 0.76 -2.50 15.27 4.16 -0.34 -0.25 2548
1.54 -0.08 0.48 -3.25 16.66 4.28 -0.33 -0.28 2554
1.39 -0.06 1.36 -3.35 17.30 4.28 -0.42 -0.32 2561
1.22 -0.05 2.01 -3.86 18.02 4.28 -0.65 -0.41 2568
1.04 -0.07 3.08 -5.38 20.15 4.28 -0.84 -0.56 2574
0.92 -0.04 2.42 -6.80 22.73 4.28 -1.07 -0.72 2580
0.81 -0.04 3.06 -9.98 27.29 4.28 -1.27 -0.83 2586
0.66 -0.05 2.17 -14.02 33.68 4.28 -1.31 -0.92 2593
0.56 -0.04 2.43 -15.50 36.19 4.28 -1.16 -0.87 2599
0.47 -0.05 3.01 -15.51 32.91 4.28 -0.91 -0.86 2606
0.36 -0.02 3.25 -12.53 30.29 4.28 -0.67 -0.92 2612
0.30 -0.02 3.62 -9.19 29.55 4.28 -0.47 -0.98 2619
0.20 -0.02 2.52 -6.32 30.47 4.28 -0.38 -1.07 2625
0.16 -0.01 2.24 -3.21 31.26 4.28 -0.52 -1.10 2631
0.13 -0.01 4.36 0.08 31.72 4.28 -0.81 -1.15 2637
0.11 -0.00 7.02 3.03 32.14 4.28 -1.12 -1.21 2643
0.11 -0.01 8.93 6.74 32.36 4.28 -1.17 -1.24 2651
0.09 -0.01 9.66 13.02 28.35 4.28 -0.91 -1.20 2657
0.07 -0.00 10.27 19.82 22.46 4.28 -0.33 -1.38 2663
0.06 -0.01 6.53 18.79 4.14 4.01 0.13 -1.93 2669
0.04 -0.00 9.29 23.02 -2.46 2.93 -0.15 -2.50 2676
0.06 -0.00 7.97 19.24 21.39 0.91 0.28 -2.67 2682
0.06 -0.01 8.13 15.30 30.25 -1.03 1.02 -2.46 2689
0.03 -0.00 5.65 13.04 23.03 -2.35 1.19 -2.18 2695
0.07 -0.01 2.62 11.73 15.67 -3.01 0.94 -1.86 2701
0.05 -0.01 1.76 10.52 12.43 -3.48 0.62 -1.48 2708
0.04 -0.00 2.30 9.34 10.04 -3.95 0.35 -1.14 2714
0.07 -0.01 3.61 7.87 7.83 -4.16 0.10 -0.92 2720
0.06 -0.01 3.84 6.48 6.74 -4.19 -0.10 -0.77 2726
0.04 -0.00 3.96 5.19 6.27 -4.19 -0.21 -0.66 2733
0.04 -0.00 4.12 4.26 5.75 -4.17 -0.16 -0.53 2739
0.05 -0.01 4.30 3.66 5.45 -4.13 -0.02 -0.40 2745
0.05 -0.01 4.62 3.25 5.52 -4.10 0.16 -0.31 2752
0.04 -0.00 4.63 2.96 5.81 -4.07 0.34 -0.25 2758
0.05 0.00 4.65 2.65 6.38 -4.05 0.53 -0.20 2764
0.05 -0.01 4.55 2.56 7.29 -4.06 0.68 -0.16 2770
0.05 -0.01 4.47 2.37 8.20 -4.09 0.88 -0.09 2777
0.04 -0.00 4.17 2.16 9.13 -4.12 1.08 -0.02 2783
0.04 -0.00 3.68 2.10 9.80 -4.19 1.26 0.08 2789
0.05 -0.00 3.09 2.00 10.26 -4.23 1.40 0.20 2795
0.04 -0.00 2.70 1.60 10.75 -4.26 1.51 0.31 2801
0.03 -0.00 2.34 1.06 11.30 -4.28 1.55 0.41 2808
0.06 -0.01 2.14 0.51 12.00 -4.28 1.59 0.48 2814
0.05 -0.00 1.93 -0.11 12.68 -4.28 1.61 0.52 2821
0.04 -0.00 1.85 -0.95 13.33 -4.28 1.64 0.54 2827
0.05 -0.00 1.85 -1.76 14.17 -4.28 1.69 0.52 2833
0.06 -0.01 1.91 -2.66 15.20 -4.28 1.77 0.47 2839
0.05 0.01 1.99 -3.54 15.27 -4.28 1.90 0.40 2846
0.05 0.01 0.85 -4.21 15.82 -4.28 2.10 0.35 2852
0.04 -0.00 1.21 -4.78 16.33 -4.28 2.31 0.31 2859
0.03 -0.00 -0.02 -5.38 17.72 -4.28 2.35 0.27 2865
0.04 0.01 0.38 -5.63 17.08 -4.28 2.41 0.22 2871
0.04 -0.00 0.06 -5.97 17.32 -4.26 2.44 0.19 2877
0.04 -0.00 -0.16 -6.20 17.95 -4.22 2.46 0.21 2884
0.05 0.00 -0.58 -6.53 18.62 -4.17 2.47 0.25 2890
0.04 0.00 -0.94 -6.80 18.86 -4.10 2.45 0.30 2896
0.03 -0.00 -1.03 -7.14 19.24 -4.00 2.39 0.37 2903
0.04 0.01 -1.27 -7.41 19.74 -3.86 2.30 0.43 2909
0.04 -0.00 -1.47 -7.50 20.42 -3.71 2.19 0.50 2916
0.04 -0.00 -1.53 -7.57 21.13 -3.59 2.09 0.56 2922
0.04 0.01 -1.50 -7.63 21.75 -3.48 1.97 0.61 2928
0.04 -0.00 -1.39 -7.90 22.03 -3.46 1.86 0.66 2934
0.04 -0.00 -1.29 -8.34 22.06 -3.43 1.77 0.70 2940
0.03 0.00 -1.23 -9.06 22.02 -3.40 1.65 0.75 2947
0.05 -0.00 -1.28 -10.33 21.81 -3.35 1.50 0.83 2954
0.04 -0.00 -1.37 -10.58 21.67 -3.27 1.35 0.93 2960
0.04 -0.00 -1.40 -11.59 21.64 -3.15 1.18 0.98 2966
0.04 -0.00 -1.65 -12.60 21.44 -3.03 1.01 1.07 2972
0.04 -0.00 -1.65 -13.53 21.43 -2.93 0.88 1.17 2979
0.05 -0.00 -1.76 -14.32 21.44 -2.87 0.81 1.30 2985
0.05 -0.00 -1.92 -15.21 21.34 -2.90 0.82 1.44 2992
0.04 -0.00 -2.03 -16.32 20.50 -2.99 0.93 1.61 2998
0.05 -0.01 -2.72 -17.32 18.96 -3.13 1.18 1.81 3004
0.05 -0.00 -3.65 -19.34 17.16 -3.27 1.56 2.04 3011
0.04 -0.00 -4.55 -22.80 14.89 -3.31 1.73 2.20 3017
0.05 -0.01 -5.67 -26.81 11.91 -3.24 1.62 2.30 3023
0.04 -0.00 -6.93 -30.64 8.56 -2.98 1.38 2.36 3030
0.05 0.00 -8.83 -33.88 5.49 -2.55 1.18 2.37 3036
0.05 -0.00 -8.69 -36.07 1.38 -2.09 1.00 2.31 3043
0.05 -0.00 -9.53 -37.04 -1.15 -1.49 0.86 2.13 3049
0.05 0.00 -9.04 -35.98 -0.81 -0.87 0.75 1.81 3055
0.05 -0.01 -8.23 -43.58 -0.65 -0.22 0.58 1.39 3061
0.03 -0.00 -11.60 -35.85 3.23 2.27 0.45 0.97 3067
0.04 0.00 -11.39 -29.60 4.91 2.53 0.34 0.57 3075
0.05 -0.01 -10.37 -25.16 2.89 3.13 -0.35 0.31 3081
0.04 0.02 -9.15 -30.21 1.76 3.15 -1.45 0.03 3087
0.06 0.05 -6.21 -20.12 0.19 2.96 -2.79 -0.31 3093
0.04 0.17 -2.58 -0.56 5.93 3.02 -3.16 -0.49 3099
0.02 0.42 2.15 -0.06 27.22 3.85 -2.08 -0.32 3106
0.01 0.69 5.87 2.71 28.13 4.17 -0.93 -0.00 3112
-0.00 0.95 -0.67 -2.88 25.21 4.25 -1.00 0.02 3119
0.00 1.24 -3.24 -5.13 29.37 4.21 -1.43 -0.17 3125
-0.02 1.33 2.12 -4.48 21.88 4.04 -1.21 -0.21 3132
-0.04 1.48 1.91 -3.77 21.46 3.80 -0.69 -0.02 3138
-0.02 1.43 -1.47 -1.94 19.47 3.28 -0.41 -0.00 3144
-0.03 1.47 -1.01 -1.32 15.36 2.90 -0.55 -0.23 3150
-0.02 1.38 1.54 -1.17 14.29 2.91 -0.69 -0.36 3158
-0.01 1.38 2.30 -2.41 23.01 2.89 -1.21 -0.33 3164
-0.02 1.33 2.81 -1.36 18.77 1.30 -1.48 -0.16 3170
-0.01 1.36 1.28 -2.64 12.64 0.35 -0.61 0.13 3176
0.00 1.35 0.10 -1.77 11.55 0.11 -0.21 0.16 3182
-0.02 1.30 -0.46 -0.94 10.54 0.02 -0.07 0.12 3189
0.00 1.33 0.10 -0.77 10.18 0.01 -0.04 0.05 3195
-0.03 1.26 0.66 -0.93 10.17 -0.01 -0.02 0.03 3202
-0.02 1.26 0.85 -0.95 10.02 -0.03 -0.02 0.05 3208
0.03 1.23 0.70 -0.78 9.98 -0.03 -0.03 0.06 3214
0.02 1.20 0.44 -0.60 9.92 -0.02 -0.03 0.05 3221
0.03 1.15 0.54 -0.63 9.89 -0.02 -0.01 0.04 3227
0.06 1.12 0.63 -0.66 10.01 -0.02 -0.01 0.04 3233
0.04 1.01 0.62 -0.63 9.96 -0.01 -0.02 0.04 3239
0.03 0.94 0.57 -0.70 9.89 -0.01 -0.02 0.04 3246
0.06 0.89 0.56 -0.71 10.22 -0.00 -0.01 0.03 3252
0.07 0.80 0.60 -0.67 10.17 0.01 -0.00 0.03 3259
0.09 0.76 0.63 -0.74 10.23 0.01 0.00 0.02 3265
0.11 0.70 0.62 -0.67 10.04 0.02 0.00 0.02 3271
0.13 0.59 0.64 -0.67 10.14 0.03 -0.00 0.03 3277
0.14 0.50 0.69 -0.65 10.03 0.04 -0.01 0.02 3283
0.13 0.49 0.61 -0.71 10.04 0.05 -0.01 0.02 3290
0.16 0.44 0.66 -0.62 10.16 0.05 0.00 0.02 3297
0.17 0.34 0.83 -0.51 10.18 0.06 -0.00 0.02 3303
0.19 0.29 0.69 -0.72 10.11 0.07 0.00 0.02 3309
0.22 0.24 0.44 -0.61 9.95 0.07 -0.00 0.02 3315
0.24 0.16 0.72 -0.84 9.99 0.08 0.00 0.02 3321
0.22 0.12 1.22 -0.40 10.11 0.08 0.00 0.01 3328
0.24 0.10 0.74 -0.75 10.06 0.08 0.00 0.01 3335
0.26 0.04 0.69 -0.71 9.99 0.09 -0.01 0.01 3341
0.27 0.02 0.76 -0.75 10.04 0.09 -0.00 0.00 3347
0.29 0.02 0.71 -0.66 10.03 0.09 -0.01 0.00 3353
0.31 -0.00 0.74 -0.82 10.07 0.10 -0.02 0.00 3359
0.31 -0.01 0.53 -0.63 9.87 0.10 -0.02 0.00 3365
0.34 -0.02 0.75 -0.79 10.14 0.11 -0.03 0.00 3373
0.34 -0.01 0.65 -0.67 10.01 0.12 -0.04 0.00 3379
0.35 -0.03 0.70 -0.80 10.11 0.13 -0.04 0.01 3385
0.38 -0.02 0.70 -0.84 10.03 0.14 -0.04 0.00 3391
0.41 -0.03 0.74 -0.83 10.11 0.14 -0.04 -0.00 3397
0.43 -0.04 0.77 -0.91 10.08 0.16 -0.05 -0.00 3403
0.43 -0.02 0.74 -0.86 10.19 0.18 -0.07 -0.01 3410
0.47 -0.03 0.83 -0.97 10.04 0.20 -0.09 -0.02 3417
0.50 -0.04 0.81 -0.96 10.03 0.21 -0.10 -0.03 3423
0.53 -0.04 0.75 -1.00 9.90 0.22 -0.11 -0.04 3429
0.56 -0.05 0.77 -1.01 9.90 0.20 -0.11 -0.06 3435
0.57 -0.04 0.74 -1.04 9.81 0.18 -0.12 -0.06 3441
0.62 -0.04 0.76 -1.01 9.81 0.15 -0.11 -0.07 3448
0.65 -0.05 0.68 -1.03 9.74 0.10 -0.10 -0.07 3454
0.68 -0.04 0.64 -1.11 9.76 0.06 -0.09 -0.08 3461
0.70 -0.05 0.69 -1.05 9.82 0.02 -0.08 -0.08 3467
0.75 -0.03 0.74 -1.05 9.84 0.01 -0.06 -0.08 3473
0.78 -0.04 0.68 -1.06 9.94 0.01 -0.06 -0.09 3479
0.82 -0.06 0.69 -1.06 10.02 0.03 -0.05 -0.09 3486
0.86 -0.04 0.68 -1.05 10.08 0.05 -0.05 -0.09 3492
0.89 -0.04 0.69 -1.02 10.16 0.07 -0.04 -0.09 3499
0.92 -0.06 0.60 -1.00 10.14 0.10 -0.04 -0.09 3505
0.98 -0.04 0.58 -1.03 10.15 0.12 -0.04 -0.08 3511
1.05 -0.05 0.53 -1.02 10.18 0.14 -0.03 -0.06 3518
1.06 -0.06 0.49 -1.05 10.24 0.17 -0.04 -0.05 3524
1.11 -0.05 0.58 -1.11 10.38 0.23 -0.02 -0.04 3530
1.18 -0.05 0.65 -1.29 10.43 0.31 -0.03 -0.03 3536
1.23 -0.06 0.70 -1.20 10.69 0.40 -0.03 -0.04 3543
1.30 -0.06 0.96 -1.21 10.74 0.53 -0.03 -0.05 3550
1.33 -0.06 0.92 -1.49 11.03 0.67 -0.04 -0.08 3556
1.39 -0.06 1.05 -1.46 11.17 0.83 -0.05 -0.10 3562
1.47 -0.06 1.05 -1.47 11.50 1.00 -0.07 -0.13 3568
1.54 -0.08 1.05 -1.63 11.97 1.17 -0.12 -0.15 3575
1.58 -0.07 0.98 -1.66 12.39 1.33 -0.17 -0.16 3581
1.63 -0.06 0.91 -1.57 12.81 1.50 -0.25 -0.17 3588
1.66 -0.06 0.70 -1.65 12.43 1.67 -0.32 -0.17 3594
1.69 -0.06 0.62 -1.71 12.83 1.83 -0.36 -0.16 3600
1.74 -0.06 0.46 -1.77 13.56 2.01 -0.38 -0.14 3607
1.80 -0.07 0.51 -1.85 13.73 2.18 -0.43 -0.13 3613
1.84 -0.07 0.57 -1.87 13.18 2.40 -0.46 -0.13 3619
1.81 -0.08 0.88 -1.42 12.31 2.57 -0.45 -0.17 3625
1.80 -0.05 0.49 -2.16 13.31 2.82 -0.47 -0.13 3633
1.77 -0.08 0.54 -2.34 14.07 3.08 -0.48 -0.13 3639
1.70 -0.06 0.56 -2.58 14.27 3.37 -0.43 -0.14 3645
1.70 -0.07 0.71 -2.58 14.02 3.68 -0.38 -0.16 3651
1.61 -0.07 0.56 -2.86 14.60 3.99 -0.30 -0.19 3658
1.54 -0.06 0.32 -2.57 15.81 4.22 -0.24 -0.19 3664
1.40 -0.06 0.94 -2.94 16.45 4.28 -0.22 -0.19 3671
1.25 -0.06 2.03 -3.42 16.90 4.28 -0.33 -0.26 3677
1.10 -0.03 3.56 -4.28 17.36 4.28 -0.43 -0.40 3683
1.02 -0.05 2.49 -5.76 20.07 4.28 -0.62 -0.55 3690
0.93 -0.03 1.86 -9.40 23.81 4.28 -0.80 -0.69 3696
0.81 -0.03 2.22 -11.22 27.79 4.28 -0.84 -0.73 3702
0.70 -0.05 2.68 -14.57 33.40 4.28 -0.77 -0.74 3708
0.54 -0.02 3.08 -16.15 34.93 4.28 -0.49 -0.66 3716
0.41 -0.03 3.55 -15.11 30.51 4.28 -0.20 -0.66 3722
0.33 -0.01 3.20 -11.31 28.80 4.28 0.09 -0.73 3728
0.25 -0.02 2.16 -8.37 28.97 4.28 0.34 -0.79 3735
0.19 -0.02 1.03 -5.35 31.94 4.28 0.33 -0.88 3741
0.17 0.00 0.67 -2.88 32.96 4.28 -0.07 -1.02 3747
0.14 -0.01 3.25 0.27 32.85 4.28 -0.72 -1.13 3753
0.10 -0.01 6.78 3.30 32.36 4.28 -1.19 -1.19 3760
0.08 0.01 8.84 6.66 32.22 4.28 -1.32 -1.22 3766
0.08 -0.01 9.97 13.84 29.32 4.28 -1.05 -1.18 3773
0.04 -0.00 11.73 20.88 23.65 4.28 -0.45 -1.30 3779
0.07 -0.01 7.41 22.56 5.40 3.89 0.13 -1.77 3785
0.07 -0.01 9.99 26.64 -2.91 2.48 -0.19 -2.33 3791
0.05 -0.00 8.57 21.27 23.60 0.40 0.28 -2.43 3799
0.05 -0.00 8.27 16.76 32.44 -1.69 0.93 -2.17 3805
0.03 -0.00 5.38 14.76 23.70 -3.07 1.08 -1.88 3811
0.05 -0.00 2.46 13.30 16.22 -3.75 0.83 -1.58 3817
0.07 -0.01 1.67 11.93 13.13 -4.10 0.58 -1.23 3823
0.06 -0.01 2.38 10.40 10.75 -4.27 0.41 -0.95 3830
0.04 -0.00 3.31 8.53 8.34 -4.28 0.22 -0.79 3836
0.07 -0.01 3.68 6.80 7.08 -4.28 0.08 -0.72 3843
0.07 -0.01 3.57 5.65 6.79 -4.28 -0.01 -0.67 3849
0.04 -0.00 3.40 4.62 6.54 -4.28 0.03 -0.60 3855
0.05 -0.00 3.56 3.81 6.59 -4.27 0.16 -0.53 3861
0.07 -0.01 3.95 3.14 6.68 -4.24 0.33 -0.48 3867
0.05 -0.01 3.97 2.76 7.04 -4.21 0.47 -0.45 3873
0.05 -0.01 3.97 2.56 7.65 -4.20 0.62 -0.44 3880
0.05 0.00 3.75 2.54 8.50 -4.20 0.71 -0.42 3887
0.04 -0.00 3.53 2.57 9.13 -4.22 0.86 -0.38 3893
0.05 -0.01 3.29 2.38 9.64 -4.25 1.02 -0.32 3899
0.05 -0.00 3.00 2.09 10.66 -4.27 1.16 -0.25 3905
0.06 -0.01 2.54 1.74 11.63 -4.28 1.27 -0.17 3911
0.05 -0.00 2.09 1.37 12.46 -4.28 1.36 -0.09 3917
0.04 -0.00 1.82 0.77 13.16 -4.28 1.44 -0.03 3923
0.05 0.00 1.60 0.08 13.75 -4.28 1.49 0.01 3931
0.04 -0.00 1.50 -0.59 14.50 -4.28 1.54 0.03 3937
0.04 -0.00 1.48 -1.25 15.17 -4.28 1.61 0.03 3943
0.04 0.00 1.57 -2.17 15.71 -4.28 1.71 -0.02 3949
0.05 -0.01 1.50 -3.34 16.30 -4.28 1.82 -0.08 3955
0.05 -0.00 1.20 -4.42 17.00 -4.28 1.94 -0.16 3961
0.05 -0.00 0.58 -5.39 17.45 -4.28 2.09 -0.23 3969
0.06 -0.01 0.38 -6.12 17.65 -4.28 2.25 -0.27 3975
0.05 -0.00 0.00 -6.68 17.81 -4.28 2.31 -0.32 3981
0.04 -0.00 -0.44 -6.79 17.39 -4.27 2.32 -0.34 3987
0.06 -0.01 -1.23 -6.99 17.07 -4.21 2.28 -0.30 3993
0.05 -0.01 -0.70 -7.31 17.17 -4.09 2.21 -0.22 3999
0.03 -0.00 -0.60 -7.45 17.36 -3.87 2.12 -0.13 4006
0.06 -0.01 -0.39 -7.43 17.73 -3.60 2.03 -0.00 4013
0.05 -0.01 -0.20 -7.28 18.28 -3.33 1.97 0.14 4019
0.04 -0.00 0.06 -7.10 19.33 -3.09 1.97 0.28 4025
0.05 0.00 0.41 -7.02 20.71 -2.94 1.97 0.40 4031
0.06 -0.01 0.43 -7.13 22.41 -2.88 1.98 0.53 4037
0.05 -0.00 0.27 -7.55 23.86 -2.94 2.02 0.65 4044
0.05 0.00 -0.02 -8.27 24.62 -3.01 2.04 0.79 4050
0.05 -0.01 -0.38 -9.01 24.85 -3.17 2.03 0.94 4057
0.05 -0.01 -0.51 -9.76 24.59 -3.35 1.98 1.09 4063
0.05 -0.01 -0.59 -10.97 24.08 -3.53 1.91 1.25 4069
0.05 -0.01 -0.55 -11.30 23.11 -3.66 1.85 1.40 4076
0.05 -0.00 -0.69 -12.42 22.08 -3.72 1.82 1.52 4082
0.05 0.01 -0.75 -13.76 22.03 -3.72 1.80 1.66 4088
0.05 -0.00 -0.77 -15.43 20.63 -3.68 1.76 1.79 4094
0.04 -0.00 -1.11 -17.45 19.51 -3.59 1.70 1.90 4101
0.06 -0.01 -1.93 -19.31 17.52 -3.44 1.68 2.02 4108
0.05 -0.01 -3.58 -20.69 15.67 -3.22 1.90 2.19 4114
0.05 -0.00 -4.84 -23.14 14.12 -2.98 2.18 2.32 4120
0.05 -0.01 -6.48 -26.33 12.60 -2.75 2.19 2.35 4126
0.05 -0.00 -8.64 -29.56 10.71 -2.51 1.92 2.27 4133
0.04 0.00 -10.39 -32.11 7.70 -2.21 1.57 2.11 4140
0.05 -0.00 -11.35 -34.02 5.00 -1.89 1.23 1.86 4146
0.04 -0.00 -11.19 -35.19 2.29 -1.53 0.93 1.51 4152
0.06 -0.01 -11.25 -35.83 2.79 -1.11 0.64 1.06 4159
0.05 -0.01 -10.73 -35.44 2.76 -0.69 0.39 0.53 4165
0.05 -0.01 -9.77 -32.97 3.81 -0.24 0.12 -0.01 4171
0.05 -0.01 -8.68 -30.33 4.76 0.09 -0.19 -0.48 4177
0.05 -0.00 -24.78 -50.71 77.04 1.38 -2.14 -0.54 4184
0.05 -0.01 -5.53 -22.69 4.66 3.16 -1.61 -0.42 4191
0.05 -0.01 -7.83 -20.02 -6.18 3.36 -2.17 -0.43 4197
0.05 0.03 0.81 -15.80 -2.15 3.12 -3.47 -0.52 4203
0.03 0.15 0.82 0.19 7.19 2.94 -4.27 -0.46 4209
0.03 0.35 5.40 11.36 20.86 3.59 -2.71 0.00 4215
0.01 0.58 11.52 6.54 12.43 3.92 -0.84 0.73 4222
0.03 0.86 0.91 -5.27 22.43 4.28 -0.78 1.06 4229
0.01 1.13 -8.26 -7.74 27.64 4.28 -1.16 0.93 4235
0.01 1.38 -3.78 -7.64 24.76 4.28 -1.15 0.63 4241
-0.00 1.55 -2.09 -5.56 28.19 4.28 -0.65 0.51 4248
-0.02 1.58 -5.43 -2.86 24.67 4.26 -0.55 0.22 4254
-0.02 1.57 -2.77 -3.13 22.70 3.91 -0.76 -0.26 4260
-0.01 1.50 2.45 -4.57 32.94 3.48 -1.49 -0.47 4267
-0.03 1.45 3.81 -1.89 16.85 1.20 -1.76 -0.22 4274
-0.00 1.43 1.47 -3.41 13.55 0.46 -0.98 0.11 4280
-0.01 1.40 0.21 -1.75 11.07 0.18 -0.45 0.20 4286
-0.01 1.38 -0.51 -0.47 10.65 0.08 -0.25 0.15 4292
-0.01 1.34 -0.11 -0.83 10.37 0.04 -0.15 0.05 4298
-0.00 1.32 0.96 -1.92 10.16 0.02 -0.12 0.03 4305
-0.00 1.34 1.00 -1.41 10.21 0.01 -0.11 0.05 4312
-0.00 1.37 0.54 -0.85 9.90 -0.00 -0.11 0.05 4318
-0.00 1.37 0.36 -0.75 10.10 -0.01 -0.10 0.04 4324
0.01 1.35 1.13 -0.77 9.89 -0.00 -0.09 0.03 4330
0.02 1.33 0.74 -0.68 9.93 -0.00 -0.08 0.04 4336
0.01 1.25 0.68 -0.69 9.93 0.00 -0.07 0.04 4343
0.03 1.14 0.64 -0.61 9.89 0.01 -0.07 0.03 4349
0.04 1.09 0.60 -0.72 10.06 0.01 -0.07 0.03 4356
0.06 0.99 0.60 -0.70 10.09 0.01 -0.07 0.03 4362
0.06 0.95 0.54 -0.66 10.16 0.02 -0.05 0.03 4368
0.09 0.87 0.55 -0.73 10.14 0.03 -0.04 0.03 4374
0.07 0.79 0.60 -0.79 10.05 0.03 -0.04 0.04 4381
0.08 0.70 0.52 -0.77 10.07 0.04 -0.04 0.04 4387
0.12 0.61 0.59 -0.75 10.03 0.04 -0.07 0.04 4393
0.12 0.54 0.61 -0.78 10.10 0.04 -0.03 0.04 4400
0.11 0.50 0.45 -1.19 10.07 0.05 -0.03 0.04 4406
0.15 0.43 0.62 -0.66 9.99 0.05 -0.02 0.04 4413
0.15 0.32 0.57 -0.74 9.98 0.06 -0.02 0.04 4419
0.15 0.34 0.66 -0.76 10.03 0.06 -0.01 0.04 4425
0.20 0.21 0.61 -0.87 10.08 0.07 -0.00 0.03 4431
0.20 0.13 0.82 -0.92 10.04 0.08 -0.01 0.03 4438
0.20 0.07 0.69 -0.89 9.98 0.08 -0.01 0.02 4444
0.22 0.09 0.65 -0.84 10.04 0.08 -0.01 0.01 4451
0.26 0.05 0.71 -0.85 10.04 0.07 -0.01 0.00 4457
0.27 0.01 0.69 -0.86 9.87 0.07 -0.02 0.01 4463
0.30 0.00 0.64 -0.82 9.99 0.07 -0.02 -0.03 4469
0.35 -0.01 0.64 -0.84 10.05 0.07 -0.03 -0.00 4475
0.32 -0.02 0.50 -0.71 9.95 0.07 -0.03 -0.00 4482
0.34 -0.02 0.64 -0.83 9.99 0.07 -0.03 -0.00 4488
0.36 -0.02 0.58 -0.88 9.96 0.08 -0.03 -0.00 4495
0.39 -0.02 0.64 -0.94 9.97 0.08 -0.03 -0.00 4501
0.37 -0.04 0.68 -0.94 10.08 0.09 -0.04 -0.00 4507
0.42 -0.02 1.16 -0.92 10.11 0.09 -0.04 -0.01 4513
0.43 -0.04 0.88 -0.85 9.87 0.09 -0.05 -0.02 4519
0.44 -0.03 0.61 -1.01 9.96 0.09 -0.05 -0.02 4526
0.44 -0.03 0.74 -1.03 9.90 0.08 -0.05 -0.03 4532
0.48 -0.03 0.69 -0.99 9.94 0.08 -0.05 -0.04 4539
0.43 0.01 0.62 -0.94 10.01 0.08 -0.05 -0.05 4545
0.51 -0.05 0.74 -0.98 9.94 0.07 -0.05 -0.06 4551
0.56 -0.05 0.70 -1.03 9.93 0.04 -0.05 -0.06 4557
0.56 -0.05 0.71 -1.02 9.98 0.07 -0.05 -0.06 4563
0.60 -0.05 0.67 -0.97 10.00 0.07 -0.05 -0.06 4570
0.64 -0.03 0.72 -0.99 10.02 0.07 -0.04 -0.07 4577
0.68 -0.04 0.66 -0.98 10.01 0.09 -0.03 -0.07 4583
0.72 -0.05 0.61 -1.07 10.04 0.10 -0.03 -0.07 4589
0.77 -0.03 0.68 -1.05 10.13 0.12 -0.04 -0.07 4595
0.83 -0.05 0.67 -1.05 10.12 0.15 -0.03 -0.07 4601
0.86 -0.05 0.69 -1.10 10.14 0.18 -0.02 -0.07 4609
0.89 -0.04 0.61 -1.03 10.34 0.23 -0.03 -0.07 4615
0.95 -0.05 0.57 -1.15 10.32 0.29 -0.03 -0.06 4621
1.01 -0.05 0.63 -1.23 10.29 0.35 -0.03 -0.05 4627
1.07 -0.05 0.61 -1.21 10.44 0.42 -0.02 -0.05 4633
1.11 -0.05 0.66 -1.26 10.65 0.51 -0.02 -0.04 4640
1.19 -0.06 0.63 -1.31 10.73 0.60 -0.03 -0.04 4646
1.27 -0.05 0.70 -1.35 11.27 0.74 -0.04 -0.05 4653
1.33 -0.07 0.93 -1.48 11.33 0.89 -0.05 -0.06 4659
1.40 -0.06 0.87 -1.62 11.64 1.06 -0.09 -0.08 4665
1.42 -0.06 0.92 -1.59 11.95 1.22 -0.16 -0.09 4672
1.47 -0.07 0.91 -1.61 11.95 1.37 -0.19 -0.10 4678
1.55 -0.05 0.89 -1.75 12.09 1.51 -0.26 -0.11 4684
1.62 -0.07 0.84 -1.78 12.36 1.66 -0.32 -0.12 4690
1.66 -0.06 0.73 -1.91 12.82 1.83 -0.37 -0.12 4698
1.70 -0.06 0.68 -2.37 14.28 2.00 -0.40 -0.11 4704
1.74 -0.07 0.59 -1.96 13.11 2.21 -0.44 -0.11 4710
1.75 -0.06 1.25 -2.86 14.69 2.37 -0.44 -0.16 4716
1.77 -0.08 0.53 -2.28 13.27 2.62 -0.48 -0.15 4723
1.78 -0.07 0.49 -2.46 13.84 2.85 -0.48 -0.14 4729
1.77 -0.07 0.40 -2.73 14.29 3.14 -0.47 -0.14 4736
1.71 -0.07 0.68 -2.51 14.27 3.47 -0.44 -0.14 4742
1.66 -0.05 0.92 -2.79 14.89 3.82 -0.41 -0.17 4749
1.56 -0.07 0.76 -3.35 15.65 4.12 -0.33 -0.23 4755
1.44 -0.06 0.92 -2.96 16.79 4.28 -0.29 -0.28 4761
1.35 -0.06 0.44 -2.75 17.63 4.28 -0.35 -0.33 4767
1.28 -0.05 1.66 -3.45 19.34 4.28 -0.43 -0.37 4774
1.06 -0.03 2.59 -4.87 19.91 4.28 -0.67 -0.47 4781
0.93 -0.04 2.76 -5.69 21.94 4.28 -0.89 -0.63 4787
0.84 -0.04 3.23 -8.53 26.38 4.28 -1.04 -0.76 4793
0.72 -0.03 1.74 -12.79 33.03 4.28 -1.05 -0.82 4800
0.60 -0.03 1.59 -16.20 36.16 4.28 -0.93 -0.80 4806
0.50 -0.02 3.67 -16.89 34.77 4.28 -0.64 -0.74 4812
0.40 -0.02 3.83 -12.71 29.69 4.28 -0.39 -0.82 4818
0.32 -0.01 4.03 -9.73 30.08 4.28 -0.08 -0.89 4826
0.22 -0.01 3.24 -6.38 31.33 4.28 0.02 -0.98 4832
0.17 -0.01 2.41 -2.60 32.21 4.28 -0.13 -1.08 4838
0.14 0.00 4.02 0.17 32.09 4.28 -0.46 -1.17 4844
0.12 -0.01 6.74 3.62 32.69 4.28 -0.74 -1.24 4850
0.09 -0.01 9.06 7.32 33.19 4.28 -0.77 -1.29 4857
0.09 -0.00 10.08 14.19 29.79 4.28 -0.53 -1.31 4864
0.06 -0.01 11.97 22.28 24.34 4.28 -0.00 -1.52 4870
0.05 -0.01 7.80 24.62 8.35 4.19 0.59 -2.05 4876
0.06 -0.00 9.67 28.15 -3.02 3.02 0.24 -2.68 4883
0.06 -0.01 7.79 22.28 24.08 1.23 0.57 -2.83 4889
0.04 -0.00 9.08 17.40 33.53 -0.95 1.39 -2.53 4895
0.05 -0.01 7.00 16.01 25.60 -2.69 1.69 -2.12 4901
0.05 -0.01 3.60 15.63 17.82 -3.72 1.51 -1.76 4908
0.06 -0.01 2.27 13.54 14.27 -4.24 1.18 -1.29 4915
0.07 -0.01 2.74 11.52 13.29 -4.28 0.88 -0.88 4921
0.05 -0.01 3.47 9.44 11.36 -4.28 0.59 -0.60 4927
0.04 -0.00 3.70 7.49 9.78 -4.28 0.33 -0.42 4933
0.06 -0.01 3.60 5.80 9.21 -4.28 0.22 -0.27 4939
0.05 -0.00 3.70 4.65 8.60 -4.28 0.26 -0.13 4945
0.05 -0.00 3.91 3.78 8.23 -4.28 0.35 -0.02 4952
0.05 -0.01 4.26 2.96 8.30 -4.28 0.48 0.04 4959
0.05 -0.00 4.35 2.60 8.80 -4.28 0.66 0.06 4965
0.05 -0.01 4.31 2.20 9.21 -4.28 0.88 0.07 4971
0.04 -0.00 4.04 2.05 9.91 -4.28 1.11 0.07 4977
0.04 0.00 3.66 1.79 10.55 -4.28 1.37 0.08 4983
0.05 -0.01 3.31 1.34 11.36 -4.28 1.64 0.09 4989
0.05 -0.01 2.67 0.74 12.20 -4.28 1.86 0.11 4996
0.05 -0.00 2.01 0.17 12.73 -4.28 1.98 0.12 5003
0.05 -0.01 1.75 -0.61 13.35 -4.28 2.05 0.13 5009
0.06 -0.01 1.50 -1.48 14.10 -4.28 2.07 0.13 5015
0.04 -0.00 0.92 -2.53 14.87 -4.28 2.05 0.12 5021
0.06 -0.01 0.39 -3.47 15.48 -4.28 2.03 0.12 5027
0.05 -0.01 0.01 -4.16 15.97 -4.28 1.99 0.13 5033
0.04 -0.00 0.05 -4.67 16.50 -4.28 1.94 0.13 5041
0.06 0.00 0.00 -4.93 17.03 -4.28 1.85 0.11 5047
0.05 -0.01 -0.56 -5.02 17.59 -4.28 1.80 0.09 5053
0.03 -0.00 0.53 -5.01 18.18 -4.28 1.80 0.12 5059
0.05 0.01 0.73 -5.15 18.37 -4.27 1.80 0.10 5065
0.05 -0.01 0.18 -5.56 18.44 -4.25 1.91 0.09 5071
0.04 -0.00 0.10 -5.98 18.81 -4.21 2.10 0.08 5079
0.05 0.00 -0.10 -6.82 19.62 -4.12 2.27 0.08 5085
0.05 -0.00 -0.62 -7.60 20.32 -4.00 2.37 0.09 5091
0.04 -0.00 -1.26 -8.16 20.97 -3.84 2.41 0.13 5097
0.03 -0.00 -1.75 -8.74 21.67 -3.72 2.34 0.20 5103
0.05 -0.00 -2.06 -9.24 21.93 -3.65 2.17 0.31 5109
0.04 -0.00 -1.96 -9.61 21.99 -3.61 1.92 0.46 5116
0.04 -0.00 -1.67 -9.86 22.00 -3.60 1.64 0.64 5123
0.06 -0.01 -1.29 -9.94 21.64 -3.58 1.39 0.83 5129
0.04 -0.00 -0.93 -10.13 21.06 -3.56 1.21 1.02 5135
0.04 -0.00 -0.37 -10.52 20.36 -3.50 1.07 1.17 5141
0.06 -0.01 -0.03 -10.90 19.68 -3.44 1.03 1.32 5147
0.04 -0.00 -0.28 -11.50 19.24 -3.33 1.16 1.44 5154
0.05 -0.00 -0.89 -12.45 18.98 -3.20 1.39 1.50 5160
0.05 -0.00 -1.98 -13.28 18.64 -3.08 1.65 1.59 5167
0.04 -0.00 -3.31 -14.01 18.01 -2.96 1.89 1.66 5173
0.04 -0.00 -4.40 -14.82 17.40 -2.85 2.07 1.73 5180
0.05 -0.00 -5.06 -15.80 17.19 -2.77 2.13 1.78 5186
0.04 -0.00 -5.56 -16.87 17.37 -2.72 2.03 1.82 5192
0.05 -0.00 -6.18 -18.50 17.69 -2.71 1.74 1.81 5198
0.04 -0.00 -6.72 -20.17 16.83 -2.73 1.28 1.74 5204
0.04 -0.00 -6.85 -21.95 14.67 -2.74 0.75 1.59 5212
0.06 -0.01 -6.18 -23.81 11.23 -2.70 0.30 1.39 5218
0.05 -0.00 -5.11 -25.72 7.84 -2.51 0.04 1.14 5224
0.04 -0.00 -4.41 -27.83 5.19 -2.23 0.01 0.87 5230
0.06 -0.01 -4.25 -29.51 3.87 -1.79 0.16 0.60 5236
0.05 -0.00 -4.56 -29.88 3.52 -1.28 0.35 0.35 5243
0.03 -0.00 -5.32 -29.66 4.03 -0.77 0.53 0.12 5250
0.05 -0.00 -6.06 -29.00 5.24 -0.35 0.54 -0.08 5256
0.05 -0.00 -6.76 -27.56 6.56 -0.02 0.38 -0.21 5262
0.03 -0.00 -6.21 -26.42 7.24 0.23 0.09 -0.31 5268
0.05 -0.01 -19.08 -42.09 78.47 3.06 -1.88 -0.16 5274
0.04 -0.00 -6.00 -21.34 8.51 2.93 -1.47 0.10 5281
0.03 -0.00 -6.16 -22.46 -4.22 3.07 -2.20 0.18 5287
0.04 0.03 0.40 -22.31 -3.95 2.95 -3.14 0.26 5294
0.04 0.11 1.62 1.67 1.28 2.99 -3.64 0.31 5300
0.03 0.33 2.62 4.62 19.87 3.61 -2.06 0.72 5306
0.02 0.56 7.12 8.28 17.57 3.99 -0.59 1.23 5313
0.01 0.84 -1.55 -0.89 22.76 4.22 -0.80 1.32 5319
-0.01 1.04 -8.56 -6.69 28.39 4.28 -1.27 1.04 5325
0.00 1.35 -4.60 -6.84 24.81 4.28 -1.32 0.73 5331
-0.01 1.40 -2.80 -4.94 23.78 4.23 -0.85 0.59 5339
-0.02 1.55 -5.83 -2.65 22.54 3.93 -0.44 0.31 5345
-0.03 1.51 -4.74 -1.86 19.16 3.31 -0.56 -0.17 5351
-0.03 1.48 1.46 -1.67 15.17 2.99 -0.63 -0.37 5357
-0.00 1.47 3.45 -1.37 16.08 3.05 -0.45 -0.23 5363
-0.01 1.47 2.82 -3.51 26.94 3.00 -0.78 -0.10 5370
-0.02 1.43 1.40 -1.02 15.60 1.11 -1.06 0.07 5377
-0.00 1.41 0.60 -2.03 12.58 0.26 -0.44 0.12 5383
-0.02 1.41 -0.17 -1.67 10.70 0.02 -0.12 0.08 5389
-0.01 1.36 -0.05 -1.20 10.65 0.01 -0.05 0.05 5396
-0.02 1.33 0.29 -1.05 9.88 0.00 -0.02 0.01 5402
-0.02 1.33 0.89 -0.86 10.13 -0.00 -0.04 0.01 5408
0.02 1.30 0.71 -0.96 10.20 -0.02 -0.05 0.03 5414
0.02 1.30 0.51 -0.71 9.96 -0.02 -0.05 0.02 5421
0.01 1.28 0.51 -0.56 9.97 -0.01 -0.04 0.02 5427
0.02 1.25 0.57 -0.53 10.00 -0.01 -0.03 0.01 5434
0.04 1.17 0.67 -0.59 10.13 -0.01 -0.03 0.01 5440
0.04 1.05 0.75 -0.71 10.00 -0.01 -0.04 0.02 5446
0.05 1.04 0.61 -0.67 9.98 -0.00 -0.03 0.01 5452
0.08 0.93 0.60 -0.67 10.01 -0.00 -0.02 0.02 5458
0.06 0.94 0.60 -0.62 10.19 0.01 -0.00 0.02 5465
0.09 0.86 0.66 -0.70 10.10 0.02 -0.00 0.02 5472
0.09 0.77 0.62 -0.63 10.09 0.03 0.00 0.02 5478
0.12 0.66 0.64 -0.70 10.04 0.03 -0.00 0.03 5484
0.15 0.61 0.66 -0.68 10.12 0.04 -0.01 0.03 5490
0.19 0.56 0.66 -0.68 10.06 0.04 -0.01 0.03 5496
0.18 0.47 0.67 -0.89 10.07 0.05 -0.01 0.03 5502
0.17 0.39 0.68 -0.63 10.17 0.05 -0.01 0.03 5510
0.19 0.35 0.67 -0.65 10.05 0.06 -0.01 0.03 5516
0.20 0.28 0.68 -1.09 10.00 0.06 -0.01 0.02 5522
0.20 0.24 0.77 -0.68 10.03 0.07 -0.02 0.02 5528
0.26 0.12 0.75 -0.65 10.05 0.06 -0.02 0.01 5534
0.26 0.12 0.69 -0.73 10.00 0.07 -0.03 0.00 5541
0.27 0.08 0.75 -0.78 10.06 0.07 -0.04 0.00 5548
0.32 0.04 0.72 -0.74 10.05 0.06 -0.05 -0.00 5554
0.29 0.02 0.75 -0.75 10.03 0.06 -0.05 -0.00 5560
0.32 -0.01 0.68 -0.80 10.06 0.10 -0.05 -0.01 5566
0.37 -0.00 0.66 -0.80 10.05 0.07 -0.05 -0.01 5572
0.35 -0.01 0.65 -0.77 10.05 0.08 -0.05 -0.00 5579
0.39 -0.03 0.68 -0.70 10.10 0.08 -0.05 -0.00 5585
0.40 -0.02 0.65 -0.79 10.02 0.09 -0.05 -0.00 5592
0.39 -0.02 0.59 -0.93 10.16 0.10 -0.05 0.03 5598
0.41 -0.03 0.71 -0.81 10.15 0.11 -0.06 -0.00 5604
0.46 -0.03 0.70 -0.84 10.02 0.12 -0.06 -0.00 5611
0.47 -0.03 0.73 -0.88 10.03 0.12 -0.06 -0.02 5617
0.49 -0.03 0.74 -0.88 10.06 0.13 -0.07 -0.02 5623
0.53 -0.04 0.69 -0.92 9.97 0.13 -0.06 -0.03 5629
0.55 -0.05 0.71 -0.92 9.91 0.12 -0.07 -0.04 5636
0.59 -0.04 0.68 -0.92 9.96 0.12 -0.06 -0.04 5643
0.63 -0.03 0.67 -0.94 9.92 0.11 -0.05 -0.05 5649
0.64 -0.05 0.67 -0.97 9.92 0.10 -0.05 -0.05 5655
0.65 -0.05 0.68 -0.93 9.94 0.08 -0.04 -0.05 5661
0.69 -0.03 0.65 -0.95 9.89 0.07 -0.04 -0.05 5667
0.73 -0.04 0.67 -0.98 9.87 0.06 -0.04 -0.05 5673
0.75 -0.06 0.68 -0.93 9.96 0.05 -0.04 -0.05 5680
0.76 -0.04 0.69 -0.98 9.96 0.05 -0.04 -0.05 5687
0.84 -0.04 0.75 -0.95 10.05 0.05 -0.04 -0.05 5693
0.86 -0.05 0.71 -1.01 10.04 0.06 -0.04 -0.06 5699
0.93 -0.05 0.70 -0.98 10.06 0.07 -0.04 -0.06 5705
0.97 -0.05 0.68 -0.94 10.03 0.08 -0.04 -0.06 5711
1.00 -0.05 0.62 -0.97 10.05 0.10 -0.04 -0.06 5719
1.02 -0.05 0.65 -1.00 10.13 0.13 -0.03 -0.06 5725
1.06 -0.04 0.66 -1.04 10.24 0.16 -0.03 -0.05 5731
1.09 -0.06 0.66 -1.08 10.28 0.21 -0.03 -0.05 5737
1.15 -0.06 0.75 -1.09 10.43 0.28 -0.04 -0.05 5743
1.23 -0.05 0.75 -1.19 10.39 0.39 -0.05 -0.07 5750
1.31 -0.06 0.76 -1.12 10.72 0.51 -0.05 -0.08 5756
1.37 -0.05 0.93 -1.22 11.60 0.66 -0.06 -0.09 5763
1.42 -0.07 0.91 -1.32 11.50 0.85 -0.09 -0.12 5769
1.50 -0.06 1.02 -1.38 11.75 1.05 -0.14 -0.14 5775
1.53 -0.07 0.92 -1.46 12.17 1.23 -0.18 -0.16 5782
1.63 -0.08 0.81 -1.59 12.44 1.39 -0.24 -0.17 5788
1.71 -0.07 0.60 -1.55 12.30 1.55 -0.30 -0.15 5794
1.79 -0.07 0.60 -1.62 12.38 1.71 -0.35 -0.13 5800
1.80 -0.07 0.71 -1.69 12.93 1.87 -0.41 -0.13 5808
1.86 -0.07 0.56 -1.77 13.43 2.06 -0.43 -0.12 5814
1.85 -0.07 0.19 -1.99 13.00 2.26 -0.44 -0.09 5820
1.89 -0.07 0.41 -1.81 13.38 2.46 -0.48 -0.09 5826
1.94 -0.07 0.55 -2.06 13.34 2.66 -0.47 -0.08 5832
1.89 -0.08 0.51 -2.23 13.75 2.85 -0.47 -0.08 5839
1.86 -0.07 0.59 -2.30 14.89 3.12 -0.47 -0.09 5846
1.85 -0.07 0.66 -2.67 14.88 3.44 -0.46 -0.11 5852
1.82 -0.07 0.83 -2.87 15.11 3.77 -0.41 -0.15 5858
1.73 -0.05 0.53 -2.81 15.49 4.08 -0.37 -0.19 5865
1.60 -0.06 0.10 -2.61 16.71 4.26 -0.36 -0.19 5871
1.45 -0.05 1.48 -3.05 17.52 4.28 -0.36 -0.23 5877
1.34 -0.06 3.06 -3.65 17.34 4.28 -0.53 -0.36 5883
1.22 -0.04 4.23 -4.00 19.48 4.28 -0.77 -0.54 5891
1.08 -0.05 3.05 -5.19 20.49 4.28 -1.03 -0.71 5897
0.94 -0.04 2.51 -7.35 25.21 4.28 -1.31 -0.85 5903
0.80 -0.03 2.93 -10.84 30.11 4.28 -1.39 -0.94 5909
0.65 -0.03 1.72 -14.99 36.05 4.28 -1.27 -0.97 5916
0.52 -0.04 2.29 -17.17 36.87 4.28 -0.96 -0.89 5922
0.46 -0.01 2.50 -15.03 32.54 4.28 -0.64 -0.84 5928
0.35 -0.02 2.43 -10.35 29.15 4.28 -0.42 -0.88 5935
0.25 -0.02 1.18 -5.86 31.72 4.28 -0.26 -0.92 5942
0.22 -0.02 1.49 -4.45 34.94 4.28 -0.46 -0.96 5948
0.15 -0.02 3.57 -1.65 34.69 4.28 -0.92 -1.05 5954
0.10 -0.01 6.67 2.56 33.94 4.28 -1.38 -1.12 5960
0.09 -0.01 9.16 6.19 34.40 4.28 -1.64 -1.17 5966
0.06 -0.01 10.07 11.25 31.92 4.28 -1.51 -1.11 5974
0.04 -0.00 12.35 20.37 24.83 4.28 -0.92 -1.12 5980
0.05 -0.01 8.55 22.73 12.48 4.14 -0.38 -1.52 5986
0.03 -0.00 11.98 30.09 -10.84 2.97 -0.58 -2.05 5992
0.06 -0.01 8.08 23.98 19.30 1.04 -0.20 -2.28 5999
0.07 -0.01 9.57 16.74 32.70 -0.90 0.80 -2.04 6005
0.05 -0.00 7.06 14.44 26.62 -2.41 1.16 -1.76 6011
0.05 -0.01 3.84 14.07 17.96 -3.13 1.00 -1.51 6018
0.05 -0.00 2.09 13.56 13.31 -3.65 0.66 -1.23 6024
0.05 -0.00 2.38 11.95 11.64 -4.11 0.45 -0.95 6031
0.06 -0.01 4.11 9.92 10.26 -4.27 0.33 -0.76 6037
0.05 -0.00 4.44 8.04 9.20 -4.28 0.19 -0.65 6043
0.04 -0.00 4.48 6.86 8.40 -4.28 0.17 -0.58 6049
0.06 -0.01 4.16 5.76 8.05 -4.28 0.25 -0.51 6055
0.05 -0.00 4.09 5.07 8.01 -4.28 0.44 -0.43 6062
0.06 -0.01 4.29 4.18 8.04 -4.28 0.64 -0.38 6068
0.04 -0.00 4.27 3.43 8.50 -4.28 0.82 -0.35 6074
0.06 -0.00 4.19 2.93 8.91 -4.28 0.97 -0.33 6081
0.06 -0.01 3.97 2.58 9.59 -4.28 1.13 -0.31 6087
0.05 -0.00 3.58 2.40 10.01 -4.28 1.28 -0.29 6093
0.05 -0.00 3.07 2.19 10.59 -4.28 1.44 -0.25 6099
0.06 -0.01 2.62 1.88 11.34 -4.28 1.59 -0.19 6106
0.05 -0.01 2.18 1.37 11.94 -4.28 1.72 -0.13 6112
0.06 0.00 1.75 0.76 12.60 -4.28 1.80 -0.07 6119
0.06 -0.01 1.41 0.05 13.11 -4.28 1.83 -0.02 6125
0.05 -0.01 1.09 -0.50 13.87 -4.28 1.81 0.02 6131
0.05 -0.01 1.00 -0.97 14.68 -4.28 1.75 0.05 6137
0.06 -0.01 0.83 -1.63 15.33 -4.28 1.72 0.06 6144
0.06 -0.01 0.86 -2.04 16.07 -4.28 1.73 0.05 6150
0.04 -0.00 1.02 -2.63 16.61 -4.28 1.77 0.02 6157
0.06 -0.00 1.09 -3.14 17.23 -4.28 1.83 -0.02 6163
0.04 -0.00 1.11 -3.75 18.10 -4.28 1.96 -0.09 6169
0.04 -0.00 0.97 -4.14 18.34 -4.28 2.12 -0.14 6175
0.04 -0.00 0.76 -4.51 18.38 -4.28 2.25 -0.18 6181
0.05 -0.00 0.26 -4.59 18.60 -4.28 2.35 -0.18 6188
0.04 -0.00 -0.21 -5.20 19.01 -4.28 2.43 -0.15 6195
0.05 -0.00 -0.71 -5.91 19.49 -4.23 2.49 -0.11 6201
0.05 -0.00 -0.99 -6.52 20.38 -4.12 2.52 -0.06 6207
0.03 -0.00 -1.27 -7.16 21.37 -3.95 2.54 -0.01 6213
0.04 -0.00 -1.52 -7.44 22.61 -3.74 2.53 0.02 6219
0.04 -0.00 -1.78 -7.63 24.28 -3.56 2.50 0.06 6225
0.05 -0.00 -2.10 -7.93 25.06 -3.49 2.45 0.11 6233
0.05 -0.00 -2.38 -8.31 26.48 -3.50 2.39 0.17 6239
0.05 -0.00 -2.51 -9.21 27.35 -3.61 2.25 0.24 6245
0.05 -0.00 -2.28 -10.35 27.32 -3.75 2.07 0.30 6251
0.04 -0.00 -1.83 -11.72 26.83 -3.90 1.85 0.38 6257
0.05 -0.00 -1.29 -13.09 25.78 -3.98 1.67 0.47 6264
0.03 -0.00 -0.85 -14.17 24.28 -4.01 1.59 0.59 6270
0.05 -0.01 -0.56 -15.27 22.73 -3.95 1.64 0.76 6277
0.04 -0.00 -0.86 -16.79 21.55 -3.81 1.75 0.96 6283
0.04 -0.00 -1.06 -17.39 19.20 -3.67 1.92 1.20 6290
0.07 -0.01 -2.27 -18.51 17.40 -3.52 2.11 1.48 6296
0.05 -0.01 -3.90 -19.68 16.76 -3.33 2.35 1.83 6302
0.05 -0.01 -5.36 -22.07 16.43 -3.13 2.48 2.15 6308
0.06 -0.01 -6.82 -25.70 15.52 -2.93 2.27 2.39 6315
0.04 -0.00 -8.28 -29.12 13.37 -2.69 1.81 2.55 6322
0.05 -0.01 -9.13 -32.30 9.61 -2.45 1.33 2.62 6328
0.06 -0.01 -9.46 -34.50 6.09 -2.19 0.97 2.62 6334
0.04 -0.00 -9.64 -37.61 2.68 -1.84 0.82 2.51 6340
0.05 0.00 -9.92 -39.53 1.55 -1.40 0.77 2.30 6346
0.05 -0.00 -9.81 -38.76 0.35 -0.84 0.77 1.96 6353
0.05 -0.00 -9.67 -36.38 1.73 -0.25 0.73 1.49 6360
0.05 -0.00 -9.56 -33.66 3.17 0.28 0.61 0.94 6366
0.06 -0.01 -9.93 -29.80 3.64 0.71 0.26 0.44 6372
0.05 -0.00 -21.66 -36.97 58.76 3.72 -1.36 0.31 6378
0.04 -0.00 -13.86 -17.74 10.10 3.75 -1.48 0.34 6385
0.05 0.01 -8.25 -19.68 -3.31 3.47 -2.48 0.15 6391
0.06 0.06 -2.32 -11.37 -5.48 2.95 -4.08 -0.09 6397
0.04 0.22 0.58 1.54 13.57 3.00 -3.85 -0.02 6404
0.01 0.50 8.92 8.21 23.76 3.75 -1.33 0.67 6411
0.00 0.72 4.90 -0.13 20.04 3.99 -0.30 1.18 6417
0.00 0.98 -7.61 -6.37 29.99 4.28 -0.53 1.18 6423
-0.01 1.22 -9.03 -7.95 25.48 4.28 -1.06 0.78 6429
0.00 1.39 -2.45 -5.31 24.97 4.28 -1.03 0.49 6435
-0.02 1.52 -3.11 -2.78 25.98 4.20 -0.46 0.34 6443
-0.04 1.57 -5.79 -1.41 20.51 3.54 -0.30 -0.10 6449
-0.03 1.60 -1.65 -1.71 14.58 3.11 -0.49 -0.49 6455
-0.03 1.58 3.25 -1.54 13.35 3.14 -0.56 -0.55 6461
-0.02 1.62 4.55 -1.60 17.71 3.31 -0.69 -0.41 6468
-0.01 1.50 1.71 -3.24 26.58 2.68 -1.94 -0.23 6474
-0.01 1.50 2.06 -2.51 13.82 0.99 -1.61 0.03 6480
0.00 1.49 -0.27 -1.98 12.67 0.35 -0.79 0.15 6487
-0.01 1.47 -0.54 -1.48 11.09 0.08 -0.30 0.11 6494
-0.03 1.46 -0.15 -0.80 10.38 0.01 -0.13 0.02 6500
-0.02 1.44 0.74 -0.87 9.97 -0.00 -0.09 -0.01 6506
-0.00 1.40 1.11 -1.08 10.00 -0.00 -0.09 0.02 6512
-0.02 1.41 0.63 -0.91 9.94 -0.00 -0.10 0.03 6518
0.01 1.36 0.30 -0.65 9.93 -0.01 -0.08 0.02 6524
0.01 1.30 0.45 -0.67 10.13 -0.01 -0.07 0.01 6532
0.02 1.28 0.68 -0.72 9.87 -0.01 -0.06 0.01 6538
0.03 1.21 0.73 -0.76 10.12 -0.01 -0.08 0.02 6544
0.08 1.10 0.53 -0.77 10.09 -0.01 -0.07 0.02 6550
0.09 1.06 0.52 -0.80 10.22 0.00 -0.06 0.01 6556
0.11 0.94 0.57 -0.76 10.13 0.01 -0.05 0.01 6562
0.11 0.91 0.60 -0.75 10.04 0.02 -0.04 0.01 6569
0.12 0.80 0.59 -0.76 10.12 0.02 -0.04 0.02 6576
0.12 0.71 0.56 -0.74 10.20 0.03 -0.04 0.02 6582
0.13 0.61 0.63 -0.79 10.01 0.04 -0.03 0.02 6588
0.13 0.56 0.56 -0.73 10.14 0.05 -0.03 0.02 6594
0.15 0.45 0.62 -0.71 9.96 0.05 -0.03 0.02 6601
0.15 0.37 1.21 -0.69 10.23 0.06 -0.03 0.02 6607
0.17 0.30 0.65 -0.71 10.01 0.07 -0.03 0.02 6614
0.19 0.21 0.64 -0.76 10.15 0.07 -0.04 0.01 6620
0.23 0.14 0.74 -1.10 10.25 0.07 -0.04 0.01 6626
0.24 0.10 0.60 -0.81 9.95 0.07 -0.04 0.00 6632
0.24 0.09 0.54 -0.80 10.02 0.08 -0.04 -0.00 6639
0.31 0.03 0.69 -0.81 10.05 0.07 -0.04 -0.01 6645
0.31 -0.00 0.62 -0.90 10.05 0.07 -0.03 -0.01 6651
0.35 0.00 0.43 -0.72 10.03 0.07 -0.04 -0.01 6658
0.39 0.00 0.65 -0.88 10.12 0.08 -0.04 -0.01 6664
0.40 -0.04 0.58 -0.75 10.15 0.08 -0.04 -0.01 6670
0.42 -0.02 0.51 -0.84 10.34 0.10 -0.04 -0.01 6677
0.44 -0.02 0.06 -0.81 10.19 0.11 -0.04 -0.01 6683
0.45 -0.04 0.44 -0.82 10.17 0.13 -0.05 -0.00 6689
0.50 -0.02 0.58 -0.85 10.20 0.14 -0.06 -0.00 6695
0.53 -0.03 0.58 -0.92 10.10 0.16 -0.07 -0.01 6702
0.56 -0.05 0.69 -0.91 10.11 0.18 -0.08 -0.01 6709
0.57 0.03 0.44 -0.68 10.10 0.19 -0.10 -0.02 6715
0.59 -0.04 0.85 -1.07 10.42 0.22 -0.09 -0.03 6721
0.62 -0.05 0.81 -1.02 10.10 0.23 -0.09 -0.05 6727
0.65 -0.01 0.78 -1.03 10.15 0.23 -0.09 -0.06 6733
0.68 -0.07 0.61 -0.99 10.05 0.26 -0.07 -0.08 6740
0.67 -0.02 0.76 -1.15 9.84 0.25 -0.08 -0.09 6747
0.73 -0.04 0.56 -1.13 9.97 0.23 -0.06 -0.09 6753
0.75 -0.04 0.70 -1.12 9.93 0.22 -0.06 -0.10 6759
0.81 -0.04 0.64 -1.18 10.04 0.22 -0.06 -0.10 6765
0.84 -0.03 0.63 -1.18 9.95 0.22 -0.05 -0.10 6771
0.87 -0.05 0.58 -1.15 10.06 0.23 -0.04 -0.11 6778
0.91 -0.05 0.55 -1.14 9.96 0.22 -0.04 -0.10 6785
0.94 -0.04 0.52 -1.19 9.90 0.22 -0.05 -0.10 6791
1.01 -0.05 0.62 -1.20 9.95 0.21 -0.03 -0.09 6797
1.08 -0.06 0.47 -1.26 10.00 0.21 -0.03 -0.08 6803
1.12 -0.04 0.45 -1.24 10.04 0.21 -0.02 -0.06 6810
1.12 -0.05 0.51 -1.31 10.21 0.24 -0.01 -0.05 6816
1.14 -0.06 0.52 -1.33 10.24 0.29 -0.01 -0.04 6822
1.22 -0.05 0.64 -1.44 10.25 0.36 0.00 -0.04 6829
1.25 -0.06 0.60 -1.35 10.79 0.40 0.00 -0.04 6835
1.32 -0.06 0.68 -1.48 11.01 0.51 -0.00 -0.04 6842
1.35 -0.06 0.89 -1.55 11.30 0.65 -0.02 -0.06 6848
1.41 -0.06 0.84 -1.69 11.48 0.81 -0.04 -0.08 6854
1.46 -0.07 1.03 -1.68 11.87 0.96 -0.07 -0.10 6860
1.58 -0.06 0.91 -1.72 11.90 1.12 -0.10 -0.12 6866
1.63 -0.08 0.81 -1.71 12.07 1.27 -0.14 -0.13 6874
1.69 -0.06 0.82 -1.82 12.22 1.41 -0.20 -0.16 6880
1.71 -0.07 0.70 -2.44 12.46 1.56 -0.25 -0.14 6886
1.74 -0.08 0.61 -1.90 12.43 1.73 -0.29 -0.14 6892
1.77 -0.07 1.31 -1.56 12.46 1.93 -0.32 -0.13 6899
1.81 -0.06 1.44 -0.63 12.91 2.09 -0.34 -0.16 6905
1.79 -0.07 -0.24 -3.55 12.76 2.29 -0.36 -0.14 6912
1.83 -0.08 0.41 -2.71 12.32 2.50 -0.40 -0.13 6918
1.86 -0.07 0.82 -2.24 12.86 2.71 -0.42 -0.14 6925
1.80 -0.05 0.52 -2.33 13.74 2.98 -0.44 -0.14 6931
1.79 -0.07 0.40 -2.68 14.45 3.28 -0.43 -0.14 6937
1.72 -0.07 0.56 -2.85 14.37 3.60 -0.40 -0.17 6943
1.70 -0.06 0.50 -3.11 14.94 3.93 -0.33 -0.20 6950
1.59 -0.07 0.36 -3.08 15.47 4.20 -0.29 -0.25 6957
1.45 -0.05 0.85 -2.96 16.37 4.28 -0.27 -0.28 6963
1.31 -0.05 1.45 -3.42 16.98 4.28 -0.32 -0.31 6969
1.15 -0.05 1.86 -5.95 20.99 4.28 -0.49 -0.41 6975
0.99 -0.04 3.03 -5.84 20.70 4.28 -0.69 -0.53 6982
0.84 -0.05 2.43 -7.96 25.56 4.28 -0.91 -0.70 6988
0.72 -0.04 2.20 -11.98 30.61 4.28 -1.10 -0.81 6994
0.64 -0.04 2.01 -14.71 34.21 4.28 -1.02 -0.77 7001
0.52 -0.03 2.07 -17.54 36.92 4.28 -0.78 -0.70 7008
0.45 -0.02 3.30 -15.18 33.51 4.28 -0.51 -0.68 7014
0.38 -0.03 2.69 -11.99 30.11 4.28 -0.32 -0.73 7020
0.26 0.00 2.28 -8.59 31.25 4.28 -0.16 -0.80 7027
0.17 -0.00 0.99 -5.30 32.24 4.28 -0.24 -0.88 7033
0.15 -0.01 1.75 -1.36 32.88 4.28 -0.56 -0.97 7040
0.14 -0.00 3.78 2.29 32.41 4.28 -1.11 -1.01 7046
0.11 -0.01 6.62 5.98 31.61 4.28 -1.49 -1.03 7052
0.07 -0.00 9.45 9.46 32.12 4.28 -1.47 -1.02 7059
0.06 -0.01 10.86 14.40 26.99 4.28 -1.07 -1.04 7065
0.04 -0.00 9.27 19.43 23.69 4.28 -0.48 -1.44 7071
0.03 -0.00 8.26 21.49 -1.70 4.15 0.15 -2.05 7077
0.05 -0.00 9.73 26.06 6.36 2.88 -0.05 -2.57 7084
0.05 -0.01 7.66 22.26 28.70 0.40 0.65 -2.64 7091
0.05 -0.00 7.06 18.04 34.28 -1.73 1.52 -2.39 7097
0.03 -0.00 4.39 14.90 23.48 -3.14 1.54 -2.09 7103
0.04 -0.00 1.48 13.00 16.20 -3.95 1.01 -1.75 7109
0.04 0.01 0.46 11.16 13.82 -4.27 0.49 -1.39 7116
0.06 -0.01 1.50 9.32 11.63 -4.28 0.14 -1.09 7122
0.04 -0.00 2.94 7.58 9.45 -4.28 -0.14 -0.89 7129
0.05 -0.00 3.84 5.85 7.88 -4.28 -0.32 -0.76 7135
0.05 -0.01 4.06 4.46 6.94 -4.28 -0.30 -0.67 7141
0.05 -0.01 4.22 3.23 6.55 -4.28 -0.24 -0.59 7147
0.05 -0.00 4.64 3.04 6.53 -4.28 -0.04 -0.53 7153
0.05 -0.00 5.13 2.41 6.58 -4.28 0.22 -0.48 7159
0.06 -0.01 5.23 1.96 6.90 -4.27 0.48 -0.47 7166
0.05 -0.01 5.02 1.77 7.31 -4.26 0.72 -0.46 7173
0.05 -0.01 4.61 1.85 7.95 -4.25 0.96 -0.45 7179
0.05 -0.00 4.25 1.92 8.64 -4.25 1.18 -0.40 7185
0.06 -0.01 3.85 1.80 9.32 -4.26 1.33 -0.32 7191
0.05 -0.00 3.34 1.66 10.62 -4.27 1.50 -0.21 7197
0.05 0.00 2.81 1.46 11.69 -4.28 1.62 -0.14 7203
0.05 0.00 2.42 1.05 12.66 -4.28 1.72 -0.04 7211
0.04 -0.00 2.14 0.50 13.52 -4.28 1.78 0.06 7217
0.05 -0.01 1.97 -0.07 14.21 -4.28 1.82 0.15 7223
0.05 -0.01 1.85 -0.66 14.86 -4.28 1.83 0.22 7229
0.05 -0.00 1.82 -1.36 15.41 -4.28 1.84 0.26 7235
0.05 -0.00 1.84 -2.20 15.87 -4.28 1.88 0.28 7241
0.06 -0.01 1.77 -3.05 16.50 -4.28 1.94 0.27 7248
0.05 -0.00 1.58 -3.87 16.93 -4.28 2.06 0.25 7255
0.05 -0.00 0.88 -4.57 17.71 -4.28 2.23 0.21 7261
0.07 -0.01 1.05 -5.62 17.66 -4.28 2.45 0.17 7267
0.07 -0.01 0.30 -6.22 18.16 -4.28 2.61 0.11 7273
0.05 -0.01 -0.05 -6.73 18.04 -4.28 2.76 0.05 7279
0.06 -0.00 -0.42 -7.19 18.34 -4.24 2.89 0.03 7286
0.05 -0.01 -0.87 -7.81 18.76 -4.13 2.98 0.04 7292
0.04 -0.00 -1.61 -8.07 19.57 -3.91 2.99 0.09 7299
0.05 0.00 -2.44 -8.12 20.00 -3.72 2.91 0.18 7305
0.05 -0.00 -3.14 -7.79 20.91 -3.51 2.73 0.30 7311
0.04 -0.00 -3.47 -7.27 22.03 -3.38 2.49 0.44 7317
0.05 -0.00 -3.76 -6.83 23.31 -3.35 2.14 0.56 7324
0.05 -0.00 -3.60 -6.62 24.39 -3.43 1.78 0.67 7330
0.04 -0.00 -3.13 -6.75 24.90 -3.59 1.47 0.77 7336
0.05 0.00 -2.24 -7.23 25.09 -3.79 1.24 0.83 7343
0.04 -0.00 -1.31 -8.13 24.78 -3.99 1.15 0.86 7349
0.04 -0.00 -0.40 -9.47 24.04 -4.10 1.17 0.86 7356
0.04 0.00 0.19 -11.04 23.10 -4.14 1.27 0.84 7362
0.05 -0.01 0.51 -13.00 22.21 -4.13 1.40 0.81 7368
0.04 -0.00 0.54 -15.13 21.47 -4.05 1.51 0.78 7374
0.05 0.00 0.43 -17.70 20.10 -3.92 1.55 0.75 7380
0.05 -0.00 0.47 -20.14 19.12 -3.72 1.54 0.72 7388
0.04 -0.00 0.37 -22.24 18.03 -3.41 1.52 0.73 7394
0.06 -0.01 -0.13 -23.70 16.41 -3.08 1.58 0.79 7400
0.04 -0.00 -1.57 -24.57 13.80 -2.73 1.76 0.95 7406
0.05 -0.00 -3.10 -24.95 10.93 -2.38 2.02 1.22 7412
0.05 -0.01 -5.90 -25.81 9.94 -2.03 2.54 1.61 7419
0.04 -0.00 -8.78 -28.42 10.31 -1.72 2.89 1.95 7426
0.04 -0.00 -11.17 -31.13 9.80 -1.44 2.61 2.19 7432
0.04 -0.00 -13.23 -34.34 8.79 -1.22 1.84 2.23 7438
0.04 -0.00 -13.21 -35.06 4.16 -1.05 0.91 2.19 7445
0.05 0.00 -10.80 -33.72 1.63 -0.82 0.06 2.04 7451
0.04 -0.00 -8.62 -33.09 1.52 -0.51 -0.49 1.72 7457
0.03 -0.00 -6.56 -30.81 3.22 -0.12 -0.76 1.31 7463
0.05 0.00 -4.88 -27.57 5.65 0.28 -0.76 0.87 7470
0.05 -0.00 -17.37 -48.19 78.47 3.37 -2.03 0.60 7477
0.03 -0.00 -5.83 -17.70 6.81 3.42 -0.83 0.67 7483
0.05 0.03 -6.81 -15.53 -7.81 3.13 -1.26 0.65 7489
0.03 0.10 -4.16 -15.21 -7.60 2.45 -2.97 0.55 7495
0.01 0.24 -1.01 2.98 10.24 2.78 -3.34 0.55 7501
0.03 0.52 4.54 4.96 21.74 3.63 -1.24 0.94 7508
0.02 0.82 -0.35 3.03 19.19 4.24 -0.68 1.10 7515
-0.01 1.11 -8.23 -4.86 28.64 4.28 -1.20 0.87 7521
-0.00 1.39 -7.55 -8.14 28.66 4.28 -1.30 0.42 7527
-0.01 1.47 -2.44 -5.42 26.16 4.28 -0.88 0.16 7534
-0.00 1.63 -3.46 -2.91 24.36 4.20 -0.46 -0.04 7540
-0.03 1.67 -2.50 -1.94 18.66 3.64 -0.34 -0.40 7546
-0.04 1.61 1.31 -1.84 16.05 3.35 -0.46 -0.63 7553
-0.02 1.61 4.06 -1.97 16.93 3.31 -0.57 -0.57 7559
-0.02 1.54 4.11 -3.84 29.49 3.03 -1.35 -0.39 7566
-0.01 1.52 3.92 -2.80 14.57 1.28 -1.65 -0.06 7572
-0.01 1.52 0.54 -2.17 12.99 0.57 -0.98 0.17 7578
-0.01 1.47 -0.08 -1.21 12.18 0.25 -0.51 0.16 7584
0.00 1.39 -0.39 -0.72 10.07 0.11 -0.25 0.07 7591
-0.02 1.37 0.52 -0.83 10.16 0.04 -0.15 0.00 7598
0.00 1.39 1.11 -0.90 10.19 0.01 -0.12 0.01 7604
-0.01 1.34 0.92 -0.97 10.10 0.00 -0.12 0.04 7610
0.00 1.31 0.47 -0.64 10.17 -0.01 -0.10 0.04 7616
-0.00 1.25 0.48 -0.65 9.99 -0.01 -0.08 0.02 7623
0.01 1.18 0.74 -0.67 10.12 -0.01 -0.07 0.02 7629
0.02 1.12 0.72 -0.64 10.15 -0.01 -0.07 0.03 7635
0.03 1.05 0.65 -0.63 10.00 -0.00 -0.05 0.03 7642
0.05 1.01 0.54 -0.73 10.07 0.01 -0.04 0.02 7648
0.06 0.89 0.64 -0.65 10.15 0.02 -0.03 0.02 7654
0.08 0.81 0.71 -0.70 10.04 0.02 -0.02 0.03 7661
0.09 0.71 0.67 -0.71 10.00 0.03 -0.01 0.03 7667
0.07 0.59 0.70 -0.71 10.10 0.04 -0.01 0.03 7673
0.11 0.56 0.68 -0.70 10.02 0.04 -0.01 0.03 7680
0.12 0.53 0.71 -0.66 10.07 0.05 -0.01 0.04 7686
0.13 0.44 0.69 -0.63 9.98 0.05 -0.01 0.04 7693
0.14 0.35 0.75 -0.55 10.06 0.06 -0.00 0.03 7699
0.18 0.28 0.82 -0.70 10.05 0.10 -0.00 0.03 7705
0.21 0.16 0.76 -0.76 10.02 0.08 -0.00 0.03 7711
0.21 0.12 0.76 -0.44 9.94 0.08 0.00 0.02 7717
0.24 0.08 0.73 -0.80 10.01 0.09 0.00 0.01 7724
0.23 0.06 0.79 -0.78 9.95 0.09 0.00 0.01 7730
0.23 0.02 0.72 -0.79 10.02 0.08 0.00 0.00 7737
0.29 0.02 0.82 -0.84 10.15 0.09 0.01 0.00 7743
0.31 -0.01 0.73 -0.84 10.05 0.09 -0.00 -0.00 7749
0.32 -0.02 0.89 -0.91 10.17 0.09 -0.01 -0.00 7755
0.34 -0.02 0.86 -0.75 10.13 0.10 -0.02 -0.00 7761
0.35 -0.03 0.86 -0.77 10.19 0.11 -0.03 -0.00 7769
0.36 -0.03 0.69 -0.90 10.07 0.12 -0.04 -0.01 7775
0.39 -0.02 0.79 -0.88 10.01 0.12 -0.05 -0.01 7781
0.43 -0.03 0.80 -0.88 9.96 0.14 -0.05 -0.01 7787
0.42 -0.03 0.80 -0.92 10.09 0.15 -0.06 -0.02 7793
0.44 -0.02 0.78 -0.94 10.01 0.16 -0.06 -0.02 7800
0.49 -0.05 1.07 -0.76 10.24 0.16 -0.07 -0.07 7806
0.51 -0.04 0.83 -0.92 9.85 0.19 -0.06 -0.05 7813
0.51 -0.05 0.82 -0.91 10.01 0.18 -0.06 -0.06 7819
0.57 -0.06 0.88 -1.03 9.87 0.19 -0.06 -0.08 7825
0.56 -0.06 0.93 -1.06 10.00 0.18 -0.07 -0.09 7831
0.58 -0.02 0.46 -0.99 9.81 0.17 -0.05 -0.10 7838
0.58 -0.06 0.80 -1.14 9.78 0.15 -0.05 -0.09 7844
0.66 -0.06 0.66 -0.91 9.70 0.13 -0.05 -0.10 7851
0.65 -0.06 0.75 -1.16 9.89 0.11 -0.03 -0.10 7857
0.64 -0.03 0.79 -1.12 9.94 0.11 -0.04 -0.09 7863
0.71 -0.05 0.71 -1.03 9.90 0.10 -0.03 -0.09 7869
0.72 -0.04 0.72 -1.09 10.00 0.08 -0.02 -0.08 7875
0.79 -0.02 0.75 -1.04 9.91 0.08 -0.02 -0.08 7882
0.83 -0.03 0.74 -1.15 9.90 0.07 -0.02 -0.08 7888
0.86 -0.05 0.69 -1.11 10.00 0.07 -0.02 -0.07 7895
0.89 -0.04 0.69 -1.11 9.98 0.08 -0.03 -0.05 7901
0.95 -0.05 0.71 -1.11 10.04 0.08 -0.03 -0.04 7907
0.95 -0.05 0.79 -1.16 10.13 0.11 -0.04 -0.03 7913
1.01 -0.05 0.78 -1.19 10.24 0.15 -0.07 -0.03 7920
1.06 -0.05 0.79 -1.12 10.35 0.21 -0.04 -0.03 7926
1.13 -0.07 0.91 -1.23 10.55 0.29 -0.04 -0.03 7932
1.21 -0.05 0.89 -1.27 10.88 0.41 -0.04 -0.04 7939
1.32 -0.07 0.96 -1.36 10.98 0.57 -0.05 -0.06 7946
1.32 -0.06 1.02 -1.34 11.01 0.74 -0.06 -0.08 7952
1.39 -0.07 1.08 -1.52 11.50 0.92 -0.07 -0.09 7958
1.50 -0.07 1.16 -1.67 11.19 1.11 -0.10 -0.11 7964
1.52 -0.07 0.96 -1.55 12.00 1.28 -0.14 -0.13 7970
1.62 -0.08 0.96 -1.63 12.19 1.41 -0.19 -0.14 7977
1.62 -0.06 0.89 -1.65 12.10 1.54 -0.24 -0.14 7984
1.68 -0.07 0.79 -1.87 12.38 1.69 -0.31 -0.14 7990
1.75 -0.07 0.69 -1.57 12.98 1.87 -0.32 -0.13 7996
1.77 -0.07 0.62 -2.11 13.06 2.08 -0.36 -0.13 8003
1.81 -0.07 0.53 -1.59 13.77 2.32 -0.39 -0.13 8009
1.84 -0.08 0.65 -1.75 13.04 2.49 -0.40 -0.13 8015
1.81 -0.07 0.44 -2.23 13.73 2.72 -0.42 -0.12 8022
1.87 -0.08 0.56 -2.55 13.94 2.97 -0.43 -0.11 8029
1.85 -0.08 0.83 -2.36 14.69 3.28 -0.41 -0.11 8035
1.84 -0.07 0.72 -2.45 14.77 3.61 -0.35 -0.12 8041
1.72 -0.07 0.79 -2.48 14.74 3.94 -0.29 -0.16 8047
1.67 -0.05 0.49 -3.67 15.82 4.20 -0.22 -0.19 8054
1.53 -0.06 0.66 -2.89 16.89 4.28 -0.18 -0.19 8060
1.38 -0.06 3.24 -2.25 18.10 4.28 -0.25 -0.24 8067
1.26 -0.04 2.54 -3.97 18.91 4.28 -0.38 -0.33 8073
1.04 -0.04 2.22 -6.18 19.96 4.28 -0.52 -0.51 8080
0.90 -0.05 3.76 -6.61 22.40 4.28 -0.71 -0.66 8086
0.83 -0.05 2.56 -10.42 28.04 4.28 -0.90 -0.79 8092
0.71 -0.05 1.74 -16.13 32.05 4.28 -0.91 -0.85 8098
0.62 -0.03 3.45 -16.43 36.60 4.28 -0.71 -0.79 8105
0.47 -0.03 3.22 -15.97 35.07 4.28 -0.44 -0.76 8112
0.36 -0.01 2.91 -13.78 32.01 4.28 -0.24 -0.79 8118
0.25 -0.01 2.63 -9.39 30.13 4.28 -0.06 -0.84 8124
0.22 -0.00 1.54 -5.94 31.55 4.28 -0.07 -0.92 8131
0.17 -0.01 2.49 -3.22 33.63 4.28 -0.31 -1.00 8137
0.10 -0.01 5.37 0.40 34.22 4.28 -0.69 -1.06 8143
0.09 0.00 7.40 4.53 33.11 4.28 -0.97 -1.13 8150
0.09 -0.01 9.25 8.81 32.84 4.28 -1.04 -1.15 8156
0.07 -0.00 10.25 12.36 29.22 4.28 -0.73 -1.14 8163
0.05 0.00 11.30 19.97 26.13 4.28 -0.03 -1.39 8169
0.05 -0.00 5.85 20.02 4.58 4.26 0.62 -1.95 8175
0.05 -0.00 9.64 25.92 1.48 3.50 0.29 -2.39 8181
0.06 0.00 7.86 24.58 20.80 1.12 0.42 -2.58 8188
0.05 -0.00 7.29 20.03 33.92 -1.11 1.16 -2.34 8195
0.04 -0.00 5.87 16.32 27.09 -2.65 1.28 -2.01 8201
0.05 -0.00 3.32 14.46 18.49 -3.58 0.90 -1.68 8207
0.03 -0.00 2.06 13.61 14.83 -4.15 0.50 -1.30 8213
0.03 -0.00 2.49 12.16 12.71 -4.28 0.30 -0.98 8220
0.06 -0.01 3.43 10.10 10.22 -4.28 0.12 -0.78 8226
0.05 -0.01 3.96 8.16 8.98 -4.28 -0.07 -0.70 8232
0.04 -0.00 3.95 6.68 8.18 -4.28 -0.18 -0.65 8239
0.05 -0.01 3.68 5.64 7.59 -4.28 -0.14 -0.61 8245
0.06 -0.01 3.81 5.09 7.53 -4.28 0.02 -0.56 8251
0.06 -0.01 4.06 4.33 7.79 -4.28 0.26 -0.52 8257
0.04 -0.00 4.20 3.72 8.34 -4.28 0.52 -0.50 8263
0.07 -0.01 4.11 3.53 9.01 -4.28 0.79 -0.51 8270
0.06 -0.01 3.84 3.58 9.81 -4.28 1.06 -0.52 8276
0.05 -0.01 3.40 3.54 10.42 -4.28 1.34 -0.51 8283
0.05 0.00 3.02 3.03 11.53 -4.28 1.64 -0.49 8289
0.06 -0.01 2.53 2.42 12.38 -4.28 1.88 -0.46 8295
0.06 -0.01 1.92 1.60 12.85 -4.28 2.08 -0.44 8301
0.06 -0.01 1.28 0.70 13.28 -4.28 2.20 -0.41 8308
0.06 -0.01 0.97 -0.17 14.02 -4.28 2.23 -0.37 8314
0.05 -0.01 0.67 -1.16 14.64 -4.28 2.22 -0.34 8321
0.05 -0.01 0.18 -2.09 15.22 -4.28 2.20 -0.31 8327
0.07 -0.01 -0.10 -2.89 15.56 -4.28 2.19 -0.28 8333
0.05 -0.01 -0.12 -3.68 15.77 -4.28 2.21 -0.27 8339
0.04 -0.00 0.25 -5.03 16.25 -4.28 2.22 -0.29 8346
0.05 -0.00 0.15 -4.96 14.62 -4.28 2.28 -0.33 8352
0.06 -0.01 -0.02 -5.95 17.16 -4.28 2.24 -0.40 8358
0.04 -0.00 -0.11 -6.60 17.25 -4.27 2.28 -0.50 8365
0.05 -0.00 0.27 -7.12 16.91 -4.21 2.35 -0.50 8371
0.06 -0.01 0.00 -7.38 17.67 -4.09 2.40 -0.47 8377
0.05 -0.00 -0.20 -7.25 18.17 -3.88 2.43 -0.38 8384
0.05 0.00 -0.31 -6.70 20.00 -3.69 2.45 -0.25 8390
0.05 -0.01 -0.47 -5.93 22.36 -3.59 2.46 -0.08 8396
0.04 -0.00 -1.00 -5.52 24.20 -3.61 2.46 0.10 8402
0.05 0.00 -1.16 -5.45 25.59 -3.77 2.46 0.31 8409
0.06 -0.01 -1.16 -5.95 26.01 -3.93 2.40 0.50 8416
0.06 -0.01 -1.11 -7.00 25.84 -4.10 2.33 0.70 8422
0.06 -0.01 -0.80 -8.35 25.27 -4.19 2.26 0.90 8428
0.06 -0.01 -0.78 -9.58 24.20 -4.22 2.19 1.11 8434
0.05 -0.00 -0.86 -11.10 23.47 -4.20 2.14 1.30 8440
0.05 0.00 -1.03 -12.59 22.66 -4.14 2.05 1.53 8448
0.05 -0.00 -1.40 -13.80 21.94 -4.04 1.88 1.75 8454
0.04 -0.00 -1.74 -14.91 21.18 -3.87 1.64 1.93 8460
0.07 -0.01 -1.98 -16.05 20.52 -3.69 1.34 2.09 8466
0.06 -0.01 -2.15 -17.31 19.63 -3.52 1.03 2.22 8472
0.05 -0.00 -2.31 -18.64 18.52 -3.33 0.74 2.31 8479
0.06 -0.01 -2.70 -19.78 17.27 -3.11 0.56 2.39 8485
0.05 -0.01 -2.77 -21.78 16.08 -2.85 0.48 2.43 8492
0.05 0.00 -3.07 -23.82 14.86 -2.59 0.49 2.43 8498
0.04 -0.00 -3.19 -25.59 13.29 -2.32 0.55 2.40 8505
0.03 -0.00 -3.40 -27.43 11.10 -2.08 0.71 2.32 8511
0.05 0.00 -3.71 -29.56 9.23 -1.90 0.96 2.20 8517
0.04 -0.00 -4.27 -31.90 7.65 -1.74 1.26 2.03 8523
0.04 -0.00 -5.69 -34.30 5.63 -1.58 1.55 1.77 8529
0.05 -0.00 -6.96 -35.82 3.54 -1.35 1.79 1.47 8536
0.04 -0.00 -8.36 -35.71 2.17 -0.94 1.83 1.14 8543
0.03 -0.00 -9.46 -31.50 1.23 -0.40 1.69 0.78 8549
0.04 0.00 -9.92 -31.09 2.72 0.18 1.31 0.48 8555
0.05 -0.00 -10.80 -34.95 -2.18 0.70 0.64 0.14 8561
0.03 -0.00 -12.77 -31.13 -1.93 3.80 -0.69 0.17 8567
0.06 -0.01 -10.41 -18.28 6.40 3.48 -0.80 0.13 8574
0.04 0.03 -5.80 -24.29 -3.85 3.22 -2.06 0.07 8581
0.03 0.11 -5.14 -16.08 -6.66 2.62 -3.77 -0.06 8587
0.04 0.24 -2.06 2.69 13.08 3.17 -3.59 0.10 8593
0.01 0.57 5.74 3.69 25.42 4.16 -1.15 0.58 8600
-0.00 0.93 2.32 -0.14 22.73 4.28 -0.81 0.77 8606
-0.01 1.27 -8.44 -6.59 32.41 4.28 -1.34 0.50 8612
-0.03 1.48 -5.06 -7.74 30.07 4.28 -1.50 0.08 8619
-0.01 1.56 1.16 -5.49 25.92 4.28 -0.91 -0.00 8625
-0.03 1.69 -2.34 -3.30 25.89 4.01 -0.39 -0.04 8632
-0.04 1.66 -0.62 -1.81 17.97 3.44 -0.50 -0.31 8638
-0.03 1.63 2.57 -1.93 15.69 3.27 -0.58 -0.44 8644
-0.02 1.51 3.08 -3.48 28.68 3.33 -1.28 -0.38 8650
-0.01 1.52 3.44 -1.51 15.82 1.39 -1.72 -0.13 8657
-0.00 1.47 0.84 -2.72 13.67 0.47 -0.83 0.13 8664
-0.02 1.39 -0.08 -1.65 11.24 0.10 -0.24 0.15 8670
-0.01 1.40 -0.27 -0.90 10.40 0.02 -0.11 0.08 8676
0.00 1.35 0.29 -1.08 10.12 -0.00 -0.07 0.01 8682
-0.00 1.31 1.23 -2.36 10.16 -0.01 -0.07 0.03 8689
0.03 1.29 0.86 -1.02 10.26 -0.02 -0.08 0.05 8695
0.01 1.26 0.48 -0.81 10.10 -0.01 -0.09 0.05 8701
0.01 1.25 0.51 -0.66 9.97 -0.01 -0.07 0.04 8708
0.05 1.22 0.78 -0.69 10.06 -0.01 -0.07 0.04 8714
0.04 1.12 0.77 -0.68 10.00 -0.01 -0.06 0.04 8721
0.04 1.09 0.73 -0.64 9.99 -0.00 -0.06 0.04 8727
0.07 1.02 0.63 -0.70 9.92 0.00 -0.06 0.03 8733
0.09 0.96 0.66 -0.76 10.07 0.01 -0.05 0.02 8739
0.10 0.88 0.63 -0.69 10.17 0.02 -0.03 0.02 8745
0.12 0.75 0.68 -0.70 10.19 0.03 -0.02 0.02 8752
0.14 0.66 0.70 -0.68 10.08 0.04 -0.02 0.02 8759
0.16 0.58 0.67 -0.73 10.15 0.04 -0.01 0.02 8765
0.17 0.57 0.71 -0.73 10.05 0.04 -0.01 0.02 8771
0.20 0.45 0.73 -0.72 9.99 0.05 -0.00 0.02 8777
0.20 0.46 0.68 -0.74 10.06 0.05 -0.00 0.02 8783
0.22 0.36 0.62 -0.40 9.96 0.06 0.00 0.02 8790
0.23 0.26 0.70 -0.69 10.06 0.07 0.01 0.02 8797
0.24 0.20 0.69 -0.71 9.96 0.08 0.02 0.02 8803
0.22 0.13 0.76 -0.70 9.93 0.08 0.02 0.01 8809
0.25 0.10 0.85 -0.75 10.00 0.09 0.02 0.01 8815
0.26 0.06 0.79 -0.77 10.00 0.09 0.03 0.01 8821
0.23 0.03 0.81 -0.85 9.95 0.09 0.03 0.01 8827
0.27 0.02 0.77 -0.82 10.10 0.09 0.02 0.00 8834
0.30 -0.01 0.81 -0.82 10.11 0.09 0.02 0.00 8841
0.29 -0.02 0.83 -0.80 10.06 0.09 0.00 0.00 8847
0.28 -0.01 0.79 -0.75 10.20 0.10 0.00 -0.01 8853
0.32 -0.02 0.82 -1.07 10.01 0.10 -0.00 -0.01 8859
0.32 -0.03 0.84 -0.87 10.00 0.11 -0.02 -0.01 8865
0.34 -0.01 0.84 -0.88 10.13 0.12 -0.02 -0.02 8872
0.35 -0.02 0.80 -0.91 10.07 0.13 -0.02 -0.02 8879
0.35 -0.03 0.80 -0.92 10.07 0.15 -0.02 -0.03 8885
0.41 -0.02 0.85 -0.97 10.04 0.16 -0.02 -0.04 8891
0.42 -0.02 0.85 -0.92 10.03 0.18 -0.03 -0.04 8897
0.42 -0.03 0.87 -1.03 10.10 0.19 -0.03 -0.06 8904
0.46 -0.04 0.90 -1.02 10.07 0.21 -0.04 -0.07 8910
0.49 -0.03 0.90 -1.03 9.96 0.22 -0.05 -0.09 8916
0.49 -0.03 0.91 -1.06 9.86 0.22 -0.06 -0.10 8923
0.51 -0.02 0.85 -1.08 9.77 0.18 -0.07 -0.10 8929
0.56 -0.04 0.82 -1.13 9.80 0.14 -0.08 -0.11 8935
0.58 -0.04 0.82 -1.05 9.77 0.07 -0.08 -0.11 8942
0.61 -0.03 0.89 -1.14 9.88 0.08 -0.07 -0.11 8948
0.63 -0.04 0.86 -1.10 9.80 0.05 -0.08 -0.11 8954
0.65 -0.05 0.77 -1.10 9.92 0.04 -0.07 -0.10 8961
0.70 -0.05 0.72 -1.11 9.92 0.04 -0.06 -0.10 8967
0.74 -0.04 0.77 -1.16 9.99 0.03 -0.07 -0.10 8973
0.80 -0.05 0.76 -1.18 10.00 0.04 -0.06 -0.09 8980
0.80 -0.05 0.73 -1.13 10.09 0.05 -0.07 -0.09 8986
0.87 -0.05 0.70 -1.11 10.15 0.08 -0.06 -0.08 8992
0.93 -0.06 0.71 -1.12 10.16 0.11 -0.06 -0.07 8998
0.97 -0.04 0.73 -1.08 10.25 0.16 -0.06 -0.06 9005
1.06 -0.05 0.76 -1.18 10.25 0.21 -0.06 -0.06 9012
1.17 -0.07 0.79 -1.22 10.42 0.29 -0.06 -0.06 9018
1.20 -0.04 0.87 -1.23 10.52 0.39 -0.06 -0.06 9024
1.27 -0.06 0.88 -1.23 10.94 0.51 -0.07 -0.07 9030
1.37 -0.06 0.97 -1.41 10.89 0.67 -0.08 -0.09 9036
1.42 -0.05 0.97 -1.47 11.22 0.82 -0.10 -0.10 9043
1.50 -0.07 1.10 -1.56 11.38 0.99 -0.13 -0.12 9050
1.53 -0.06 1.10 -1.57 12.04 1.12 -0.16 -0.13 9056
1.58 -0.07 0.91 -1.65 11.87 1.26 -0.21 -0.13 9062
1.64 -0.07 0.91 -2.38 11.92 1.38 -0.25 -0.13 9069
1.71 -0.06 0.99 -1.67 12.03 1.52 -0.30 -0.13 9075
1.78 -0.08 0.89 -1.68 12.39 1.66 -0.36 -0.13 9081
1.79 -0.07 0.86 -1.68 13.27 1.83 -0.38 -0.14 9088
1.85 -0.06 0.86 -2.19 13.31 2.05 -0.42 -0.13 9095
1.88 -0.08 2.04 -2.60 13.76 2.28 -0.46 -0.14 9101
1.88 -0.07 -1.24 -4.55 13.50 2.46 -0.46 -0.17 9107
1.93 -0.08 0.65 -2.41 13.13 2.68 -0.49 -0.16 9113
1.91 -0.07 0.60 -2.37 13.82 2.93 -0.50 -0.17 9120
1.92 -0.05 0.53 -2.49 13.89 3.19 -0.49 -0.16 9126
1.91 -0.08 0.54 -2.43 14.62 3.49 -0.45 -0.17 9133
1.82 -0.07 1.01 -2.69 14.40 3.81 -0.40 -0.19 9139
1.72 -0.06 0.44 -2.50 15.25 4.11 -0.33 -0.20 9145
1.66 -0.08 1.82 -2.29 17.57 4.27 -0.34 -0.21 9152
1.51 -0.05 1.09 -3.05 17.57 4.28 -0.37 -0.21 9158
1.32 -0.06 3.00 -3.67 16.82 4.28 -0.53 -0.34 9164
1.21 -0.05 3.37 -4.74 19.26 4.28 -0.69 -0.51 9170
1.02 -0.04 2.22 -6.84 23.08 4.28 -0.89 -0.66 9178
0.85 -0.04 1.98 -9.02 26.56 4.28 -1.07 -0.80 9184
0.71 -0.03 2.04 -13.08 33.07 4.28 -1.13 -0.80 9190
0.61 -0.04 2.56 -16.56 36.08 4.28 -0.97 -0.79 9196
0.48 -0.04 3.24 -15.37 33.81 4.28 -0.63 -0.75 9203
0.41 -0.03 3.65 -14.30 30.70 4.28 -0.35 -0.79 9209
0.30 -0.02 1.97 -9.13 28.86 4.28 -0.11 -0.84 9216
0.21 -0.01 0.85 -5.27 32.54 4.28 0.01 -0.87 9222
0.13 -0.01 0.60 -3.34 35.25 4.28 -0.40 -0.97 9229
0.11 -0.01 2.91 -0.34 34.51 4.28 -1.10 -1.06 9235
0.10 -0.01 6.42 4.04 34.24 4.28 -1.67 -1.13 9241
0.09 -0.01 9.46 8.20 35.04 4.28 -1.94 -1.12 9247
0.07 -0.01 10.73 13.37 31.46 4.28 -1.78 -1.02 9253
0.06 -0.01 12.59 21.11 27.08 4.28 -1.08 -1.15 9261
0.05 -0.00 8.53 21.88 4.12 4.20 -0.39 -1.66 9267
0.04 -0.00 10.84 27.86 -1.52 3.21 -0.42 -2.12 9273
0.05 -0.00 9.01 24.49 23.14 0.95 0.17 -2.33 9279
0.04 -0.00 9.11 18.42 32.90 -1.16 1.21 -2.15 9286
0.04 -0.00 6.47 15.11 25.76 -2.62 1.55 -1.92 9292
0.05 -0.00 3.63 13.81 17.63 -3.42 1.26 -1.68 9298
0.02 -0.00 2.11 13.03 13.96 -4.00 0.87 -1.39 9305
0.03 -0.00 2.21 11.57 11.89 -4.26 0.66 -1.10 9311
0.05 -0.01 3.35 9.52 9.83 -4.28 0.52 -0.89 9318
0.04 -0.00 4.15 7.47 8.46 -4.28 0.33 -0.77 9324
0.04 0.01 4.17 6.04 8.03 -4.28 0.24 -0.67 9330
0.03 -0.00 3.99 5.22 7.81 -4.28 0.29 -0.57 9336
0.03 -0.00 4.06 4.70 7.93 -4.28 0.36 -0.49 9342
0.04 -0.00 4.50 3.89 8.22 -4.28 0.51 -0.39 9349
0.06 -0.00 4.68 3.33 8.81 -4.28 0.66 -0.33 9355
0.05 -0.00 4.60 3.03 9.43 -4.28 0.80 -0.28 9361
0.03 -0.00 4.33 2.78 10.14 -4.28 0.88 -0.24 9368
0.04 -0.00 3.87 2.55 10.43 -4.28 0.95 -0.18 9374
0.05 -0.01 3.34 2.27 11.01 -4.28 1.02 -0.11 9380
0.05 -0.01 2.99 1.75 11.26 -4.28 1.13 -0.03 9387
0.05 -0.00 2.78 1.04 11.60 -4.28 1.25 0.07 9393
0.06 -0.01 2.74 0.10 11.94 -4.28 1.35 0.10 9399
0.06 -0.01 2.63 -0.67 12.08 -4.28 1.40 0.14 9405
0.05 -0.00 2.45 -1.45 13.50 -4.28 1.46 0.15 9412
0.06 -0.00 2.30 -2.15 13.68 -4.28 1.55 0.14 9418
0.06 -0.01 2.22 -2.71 14.15 -4.28 1.70 0.13 9424
0.05 -0.00 2.25 -3.32 15.16 -4.28 1.86 0.07 9431
0.05 0.03 2.20 -5.08 15.66 -4.28 2.02 -0.04 9437
0.04 -0.00 0.94 -3.68 18.14 -4.28 2.19 -0.08 9444
0.05 -0.00 0.63 -4.99 18.00 -4.28 2.34 -0.21 9450
0.05 0.00 1.25 -5.99 17.20 -4.28 2.47 -0.32 9456
0.05 -0.01 0.30 -6.39 18.09 -4.28 2.58 -0.38 9462
0.05 -0.01 -0.13 -6.99 18.54 -4.26 2.65 -0.41 9468
0.05 -0.00 -0.67 -7.18 18.64 -4.19 2.63 -0.36 9475
0.06 -0.01 -0.98 -7.13 18.79 -4.07 2.49 -0.26 9482
0.06 -0.01 -1.06 -7.20 18.95 -3.89 2.32 -0.13 9488
0.06 -0.01 -0.72 -7.38 19.11 -3.66 2.16 0.02 9494
0.06 -0.01 -0.35 -7.65 19.54 -3.44 2.03 0.16 9500
0.06 -0.01 -0.00 -8.19 19.89 -3.26 1.91 0.29 9506
0.06 -0.01 0.14 -8.86 20.31 -3.04 1.78 0.39 9512
0.07 -0.01 0.25 -9.72 20.63 -2.84 1.72 0.50 9520
0.06 -0.01 0.25 -10.23 21.21 -2.66 1.63 0.58 9526
0.05 -0.00 0.30 -10.62 22.67 -2.53 1.56 0.68 9532
0.06 -0.01 0.52 -10.77 24.14 -2.48 1.56 0.77 9538
0.06 -0.01 0.81 -10.81 25.30 -2.54 1.67 0.86 9544
0.05 -0.01 1.16 -11.04 26.14 -2.72 1.86 0.93 9551
0.06 -0.01 0.99 -11.59 26.56 -3.03 2.08 1.02 9558
0.06 -0.01 0.22 -12.42 26.18 -3.40 2.25 1.14 9564
0.05 0.00 -0.41 -13.97 24.62 -3.75 2.28 1.30 9570
0.06 -0.01 -0.75 -16.10 22.49 -4.00 2.21 1.49 9577
0.04 -0.00 -1.40 -18.37 19.50 -4.08 2.05 1.72 9583
0.06 -0.01 -2.14 -20.76 16.98 -3.99 1.89 1.97 9589
0.05 -0.01 -3.17 -23.26 14.09 -3.69 1.79 2.22 9595
0.05 -0.01 -4.94 -24.95 11.40 -3.26 1.81 2.48 9602
0.06 -0.01 -6.64 -27.42 9.49 -2.83 1.90 2.68 9609
0.06 -0.01 -8.33 -30.83 7.64 -2.51 1.81 2.74 9615
0.06 -0.01 -9.95 -34.55 5.63 -2.15 1.51 2.65 9621
0.06 -0.01 -11.46 -37.64 2.91 -1.77 1.17 2.44 9627
0.05 -0.01 -11.49 -38.61 0.63 -1.31 0.83 2.14 9633
0.05 -0.00 -9.80 -37.69 -2.40 -0.77 0.52 1.72 9640
0.06 -0.01 -9.49 -34.41 2.20 -0.23 0.43 1.19 9647
0.05 -0.00 -8.69 -30.68 4.61 0.24 0.31 0.62 9653
0.06 0.00 -8.35 -26.60 6.23 0.62 0.10 0.21 9659
0.05 -0.00 -27.72 -42.61 78.47 3.89 -2.14 0.14 9665
0.04 -0.00 -11.71 -16.22 11.29 3.42 -1.59 0.27 9672
0.07 0.01 -9.03 -14.91 -2.45 3.25 -2.59 0.19 9678
0.07 0.07 -2.01 -19.69 -8.12 2.43 -4.17 0.04 9684
0.04 0.18 1.31 3.37 8.48 2.75 -4.24 0.16 9691
0.03 0.44 7.68 6.10 20.91 3.72 -1.60 0.85 9698
0.01 0.72 7.07 4.00 17.80 4.25 -0.08 1.50 9704
0.01 1.03 -7.11 -7.26 27.21 4.28 -0.37 1.53 9710
0.01 1.33 -12.40 -8.55 30.42 4.28 -0.92 0.98 9716
-0.01 1.50 -3.45 -6.84 25.80 4.28 -0.81 0.53 9723
0.02 1.60 -3.88 -3.31 24.97 4.27 -0.22 0.30 9730
-0.03 1.67 -5.70 -2.09 20.51 3.89 -0.15 -0.14 9736
-0.02 1.70 -0.36 -1.93 16.85 3.61 -0.45 -0.62 9742
-0.01 1.63 4.91 -2.34 17.70 3.73 -0.70 -0.70 9748
-0.01 1.56 2.54 -3.92 34.11 3.15 -2.26 -0.46 9755
0.01 1.51 3.13 -3.28 14.43 1.08 -1.68 0.01 9761
0.00 1.46 0.18 -2.42 12.57 0.40 -0.76 0.18 9767
-0.02 1.41 -0.70 -1.36 11.12 0.11 -0.30 0.14 9774
-0.01 1.40 -0.28 -0.78 10.57 0.03 -0.15 0.03 9781
0.00 1.38 0.87 -0.63 10.23 0.01 -0.10 0.00 9787
0.02 1.33 1.32 -1.17 9.86 0.00 -0.10 0.03 9793
0.02 1.28 0.85 -0.80 10.18 -0.01 -0.12 0.04 9799
-0.01 1.29 0.42 -0.59 10.03 -0.00 -0.10 0.03 9805
0.01 1.26 0.63 -0.75 10.15 -0.01 -0.09 0.02 9811
0.05 1.20 0.88 -0.70 9.81 -0.01 -0.09 0.02 9819
0.04 1.10 0.75 -0.72 9.93 -0.01 -0.09 0.02 9825
0.07 1.06 0.60 -0.70 10.07 -0.00 -0.08 0.02 9831
0.06 0.98 0.61 -0.76 10.10 0.01 -0.06 0.02 9837
0.09 0.85 0.61 -0.74 10.13 0.01 -0.04 0.02 9843
0.09 0.77 0.62 -0.72 10.19 0.02 -0.02 0.01 9849
0.12 0.78 0.71 -0.77 10.12 0.03 -0.01 0.02 9857
0.14 0.61 0.70 -0.76 10.03 0.04 -0.01 0.02 9863
0.16 0.51 0.63 -1.22 9.98 0.04 -0.00 0.02 9869
0.18 0.47 0.88 -0.76 10.10 0.05 -0.00 0.02 9875
0.17 0.42 0.51 -0.45 10.02 0.06 0.01 0.03 9881
0.20 0.36 0.77 -0.73 10.10 0.07 0.01 0.03 9888
0.19 0.30 0.83 -0.75 10.08 0.08 0.00 0.02 9894
0.24 0.16 0.81 -0.88 10.03 0.08 -0.01 0.01 9901
0.27 0.12 0.93 -0.74 10.08 0.08 -0.01 0.00 9907
0.28 0.08 0.81 -0.79 9.97 0.08 -0.02 -0.00 9913
0.31 0.05 0.85 -0.83 10.04 0.08 -0.07 -0.01 9919
0.37 0.01 0.79 -0.80 10.04 0.08 -0.04 -0.02 9926
0.33 0.04 0.85 -0.84 10.01 0.09 -0.05 -0.02 9932
0.36 -0.00 0.76 -0.78 10.14 0.09 -0.06 -0.02 9938
0.38 -0.03 0.63 -0.82 10.17 0.09 -0.07 -0.02 9945
0.41 -0.04 0.74 -0.85 10.25 0.11 -0.07 -0.02 9951
0.45 -0.03 0.72 -0.93 9.99 0.12 -0.08 -0.03 9958
0.50 -0.04 0.71 -0.87 10.17 0.14 -0.09 -0.03 9964
0.54 -0.03 0.69 -0.91 10.15 0.16 -0.10 -0.03 9970
0.58 -0.03 0.71 -0.92 10.12 0.17 -0.10 -0.04 9976
0.63 -0.04 0.77 -0.92 10.13 0.19 -0.10 -0.05 9982
0.66 -0.02 0.78 -0.90 10.09 0.20 -0.11 -0.05 9990
0.74 -0.05 0.75 -1.05 10.13 0.23 -0.11 -0.06 9996
0.75 -0.02 0.96 -1.00 10.07 0.25 -0.12 -0.08 10002
0.80 -0.04 0.80 -1.04 10.13 0.28 -0.12 -0.09 10008
0.82 -0.04 0.74 -1.14 9.94 0.30 -0.12 -0.10 10014
0.86 -0.06 0.79 -1.16 9.93 0.30 -0.12 -0.10 10021
0.88 -0.05 0.79 -1.17 9.91 0.30 -0.11 -0.11 10028
0.90 -0.06 0.78 -1.12 9.98 0.30 -0.11 -0.11 10034
0.95 -0.07 0.80 -1.23 9.89 0.29 -0.10 -0.12 10040
0.98 -0.04 0.76 -1.80 9.96 0.29 -0.09 -0.12 10046
1.01 -0.06 0.78 -1.23 10.06 0.30 -0.10 -0.13 10053
1.08 -0.04 0.66 -1.23 10.02 0.31 -0.10 -0.12 10059
1.10 -0.05 0.59 -1.21 10.00 0.30 -0.10 -0.12 10065
1.14 -0.05 0.61 -1.29 9.92 0.30 -0.10 -0.11 10072
1.18 -0.05 0.57 -1.34 9.96 0.28 -0.08 -0.10 10079
1.22 -0.06 0.57 -1.34 9.99 0.28 -0.07 -0.09 10085
1.27 -0.06 0.51 -1.34 10.04 0.29 -0.07 -0.08 10091
1.29 -0.06 0.48 -1.37 10.14 0.31 -0.06 -0.06 10097
1.35 -0.06 0.61 -1.46 10.07 0.34 -0.05 -0.05 10104
1.40 -0.05 0.54 -1.46 10.40 0.38 -0.06 -0.04 10110
1.43 -0.07 0.66 -1.52 10.59 0.44 -0.06 -0.03 10117
1.50 -0.06 0.74 -1.55 10.85 0.53 -0.07 -0.03 10123
1.56 -0.06 0.78 -1.66 10.97 0.62 -0.08 -0.03 10130
1.58 -0.06 0.97 -1.72 11.23 0.75 -0.10 -0.04 10136
1.66 -0.06 1.11 -1.84 11.58 0.89 -0.12 -0.06 10142
1.71 -0.08 1.08 -1.87 11.65 1.03 -0.16 -0.09 10148
1.76 -0.06 0.94 -1.84 11.92 1.18 -0.22 -0.11 10156
1.82 -0.07 0.74 -1.93 12.12 1.32 -0.27 -0.12 10162
1.84 -0.06 0.73 -1.95 12.34 1.46 -0.31 -0.13 10168
1.90 -0.08 0.21 -2.86 12.69 1.64 -0.36 -0.11 10175
1.93 -0.07 0.60 -2.00 12.78 1.82 -0.40 -0.12 10181
1.93 -0.08 0.06 -2.57 12.77 1.98 -0.43 -0.12 10187
1.94 -0.08 0.31 -3.18 12.73 2.17 -0.44 -0.10 10193
1.96 -0.06 0.88 -1.89 13.89 2.36 -0.46 -0.13 10201
1.94 -0.06 0.47 -2.57 13.07 2.60 -0.46 -0.09 10207
1.99 -0.08 -0.64 -3.53 14.48 2.85 -0.49 -0.10 10213
1.93 -0.06 0.84 -2.71 14.49 3.16 -0.46 -0.10 10220
1.90 -0.07 0.30 -2.83 14.61 3.48 -0.44 -0.13 10226
1.83 -0.06 0.55 -2.53 14.98 3.82 -0.41 -0.17 10232
1.75 -0.07 0.74 -2.96 15.69 4.14 -0.42 -0.21 10238
1.63 -0.04 1.24 -2.45 16.13 4.28 -0.45 -0.24 10246
1.53 -0.07 1.74 -3.14 17.31 4.28 -0.55 -0.30 10252
1.35 -0.05 2.52 -4.66 19.23 4.28 -0.77 -0.43 10258
1.20 -0.04 1.51 -6.82 18.86 4.28 -0.94 -0.62 10265
1.01 -0.05 1.80 -7.21 24.79 4.28 -1.08 -0.76 10271
0.90 -0.05 1.76 -10.40 27.65 4.28 -1.21 -0.84 10277
0.76 -0.05 1.00 -14.40 34.05 4.28 -1.19 -0.85 10284
0.59 -0.03 1.87 -20.42 34.85 4.28 -0.96 -0.78 10291
0.47 -0.04 2.99 -16.79 33.61 4.28 -0.59 -0.70 10297
0.40 -0.02 2.59 -13.88 31.06 4.28 -0.26 -0.77 10303
0.25 -0.03 1.93 -7.79 30.22 4.28 -0.01 -0.80 10310
0.21 -0.01 0.51 -5.41 33.15 4.28 0.08 -0.85 10316
0.18 -0.02 0.89 -2.11 35.07 4.28 -0.34 -0.97 10322
0.16 -0.02 3.70 0.91 34.82 4.28 -0.93 -1.04 10329
0.12 -0.00 7.22 5.38 33.47 4.28 -1.46 -1.12 10336
0.09 -0.01 10.05 9.15 33.81 4.28 -1.68 -1.12 10342
0.08 -0.01 10.13 13.10 28.28 4.28 -1.36 -1.09 10348
0.05 -0.01 9.97 18.57 18.81 4.28 -0.71 -1.43 10354
0.05 -0.00 10.25 21.42 -0.91 4.18 -0.39 -2.01 10361
0.08 -0.01 12.09 28.18 9.59 2.60 -0.35 -2.50 10368
0.06 -0.01 9.56 23.98 30.24 -0.01 0.71 -2.57 10374
0.06 -0.01 9.19 17.85 30.61 -1.97 1.65 -2.34 10380
0.05 -0.01 6.06 14.53 20.97 -3.21 1.75 -2.08 10387
0.06 -0.01 3.42 13.66 15.96 -3.93 1.39 -1.78 10393
0.05 -0.00 2.54 12.80 12.89 -4.26 1.11 -1.44 10399
0.04 -0.00 3.06 10.75 10.93 -4.28 0.95 -1.14 10406
0.04 -0.00 3.93 8.56 8.63 -4.28 0.74 -0.94 10413
0.04 -0.00 4.32 6.75 8.07 -4.28 0.56 -0.78 10419
0.04 -0.00 4.18 5.63 7.64 -4.28 0.52 -0.63 10425
0.05 0.01 4.01 5.00 7.37 -4.28 0.61 -0.49 10431
0.07 -0.01 4.08 4.42 7.33 -4.28 0.76 -0.36 10437
0.05 -0.00 4.14 3.95 7.59 -4.28 0.92 -0.25 10443
0.04 -0.00 4.07 3.55 7.99 -4.28 1.09 -0.16 10450
0.05 -0.01 3.79 3.33 8.68 -4.28 1.22 -0.09 10457
0.05 -0.00 3.30 3.21 9.58 -4.28 1.31 -0.01 10463
0.05 -0.00 2.94 2.97 10.44 -4.28 1.44 0.05 10469
0.06 -0.01 2.41 2.45 12.08 -4.28 1.58 0.13 10475
0.05 -0.01 1.90 1.98 12.28 -4.28 1.77 0.20 10482
0.04 -0.00 1.66 1.40 13.08 -4.28 1.93 0.26 10488
0.06 -0.01 1.34 0.80 13.91 -4.28 2.04 0.29 10494
0.05 -0.00 0.99 0.18 14.53 -4.28 2.09 0.30 10501
0.04 -0.00 0.72 -0.53 15.20 -4.28 2.12 0.28 10507
0.06 -0.01 0.31 -1.16 15.66 -4.28 2.15 0.25 10514
0.05 -0.01 0.00 -1.98 16.20 -4.28 2.21 0.20 10520
0.05 -0.00 -0.50 -2.79 16.96 -4.28 2.28 0.16 10526
0.06 -0.01 -0.88 -3.69 17.51 -4.28 2.37 0.10 10532
0.04 -0.00 -1.31 -4.37 17.86 -4.28 2.46 0.05 10539
0.06 -0.00 -1.45 -5.09 18.30 -4.28 2.54 -0.00 10546
0.06 -0.01 -2.04 -5.29 18.56 -4.28 2.51 -0.04 10552
0.04 0.00 -2.28 -5.36 18.72 -4.28 2.46 -0.06 10558
0.06 -0.01 -2.57 -5.42 18.92 -4.27 2.35 -0.04 10564
0.05 -0.00 -2.83 -5.47 19.20 -4.22 2.22 0.01 10571
0.05 0.01 -2.89 -5.36 19.50 -4.14 2.07 0.08 10577
0.05 -0.01 -2.75 -5.44 19.79 -4.01 1.92 0.15 10584
0.04 0.00 -2.40 -5.68 20.47 -3.83 1.81 0.24 10590
0.06 -0.00 -2.00 -5.71 21.35 -3.67 1.74 0.33 10597
0.04 -0.00 -1.62 -5.93 22.27 -3.54 1.71 0.42 10603
0.05 -0.00 -1.28 -6.42 23.73 -3.45 1.70 0.49 10609
0.06 -0.01 -0.98 -7.36 24.12 -3.39 1.67 0.55 10615
0.05 -0.01 -0.85 -8.61 24.78 -3.35 1.63 0.61 10621
0.05 0.00 -0.83 -9.99 25.23 -3.33 1.58 0.68 10629
0.05 0.00 -0.79 -11.78 24.92 -3.31 1.54 0.77 10635
0.05 0.00 -0.92 -13.75 24.01 -3.31 1.47 0.88 10641
0.05 -0.00 -1.27 -15.72 23.45 -3.31 1.37 1.00 10648
0.04 -0.00 -1.87 -17.49 23.31 -3.36 1.28 1.12 10654
0.06 -0.01 -2.33 -18.98 22.88 -3.47 1.25 1.24 10660
0.05 -0.00 -2.43 -20.43 21.86 -3.61 1.31 1.35 10667
0.05 0.01 -2.60 -22.61 19.71 -3.75 1.49 1.48 10674
0.05 -0.00 -3.09 -25.49 17.19 -3.80 1.66 1.60 10680
0.05 0.00 -3.90 -28.89 14.36 -3.69 1.77 1.71 10686
0.05 -0.01 -5.23 -32.06 9.93 -3.40 1.79 1.83 10692
0.04 -0.00 -6.51 -35.10 7.14 -2.94 1.72 1.92 10699
0.05 0.00 -7.96 -37.67 3.92 -2.38 1.58 1.96 10705
0.05 -0.01 -9.45 -39.58 1.60 -1.81 1.38 1.91 10712
0.04 -0.00 -10.30 -40.31 0.38 -1.28 1.13 1.74 10718
0.05 -0.01 -9.66 -39.70 0.60 -0.77 0.81 1.47 10725
0.05 -0.00 -9.26 -37.62 1.70 -0.29 0.48 1.10 10731
0.05 0.00 -18.65 -64.45 49.16 1.84 -1.07 0.89 10737
0.05 -0.00 -4.35 -29.61 -4.69 3.08 -0.28 0.88 10743
0.04 -0.00 -9.84 -27.98 -12.22 3.27 -0.88 0.70 10750
0.06 0.04 -7.27 -37.55 -6.25 3.24 -2.46 0.59 10757
0.04 0.13 -2.15 0.32 -1.59 3.38 -3.88 0.53 10763
0.02 0.42 -0.82 3.82 26.69 4.20 -2.15 0.80 10769
0.01 0.71 7.23 6.04 25.70 4.28 -0.62 1.21 10776
-0.00 1.06 -5.21 -6.82 32.61 4.28 -0.80 1.24 10782
-0.01 1.40 -11.04 -8.19 33.20 4.28 -1.05 0.84 10788
-0.04 1.53 -4.93 -7.40 28.24 4.28 -0.92 0.39 10796
-0.00 1.64 -4.05 -3.38 26.85 4.16 -0.44 0.08 10802
-0.03 1.62 -3.48 -1.74 21.02 3.44 -0.35 -0.31 10808
-0.03 1.58 0.94 -1.70 15.60 2.99 -0.45 -0.63 10814
-0.03 1.57 4.30 -1.48 13.50 3.05 -0.59 -0.64 10821
-0.02 1.49 5.50 -3.26 26.04 3.07 -1.43 -0.46 10827
-0.00 1.44 3.34 -1.90 18.26 1.52 -2.07 -0.10 10833
-0.02 1.45 0.40 -2.70 14.20 0.58 -1.16 0.12 10840
-0.02 1.47 -0.33 -1.61 11.77 0.16 -0.50 0.10 10847
-0.02 1.49 -0.18 -0.91 10.47 0.03 -0.23 0.02 10853
-0.02 1.49 0.54 -1.03 10.10 0.02 -0.16 -0.02 10859
-0.02 1.47 1.05 -1.07 10.22 0.00 -0.15 0.00 10865
-0.03 1.42 1.03 -0.92 9.96 -0.00 -0.14 0.03 10872
-0.03 1.42 0.45 -0.74 10.00 -0.01 -0.14 0.02 10878
0.01 1.33 0.53 -0.72 9.97 -0.02 -0.12 0.01 10885
0.01 1.24 0.76 -0.77 10.10 -0.02 -0.13 0.00 10891
0.04 1.14 0.76 -0.72 10.11 -0.02 -0.14 0.01 10898
0.03 1.05 0.64 -0.75 10.09 -0.01 -0.14 -0.00 10904
0.05 0.99 0.62 -0.80 10.08 -0.00 -0.13 -0.01 10910
0.07 0.90 0.65 -0.81 10.18 0.01 -0.11 -0.01 10916
0.09 0.80 0.70 -0.81 10.17 0.02 -0.10 -0.01 10924
0.14 0.70 0.68 -0.81 10.05 0.02 -0.09 -0.01 10930
0.13 0.65 0.65 -0.84 10.11 0.04 -0.09 -0.00 10936
0.15 0.63 0.73 -0.80 10.07 0.04 -0.09 0.01 10942
0.16 0.48 0.65 -0.80 10.12 0.04 -0.08 0.01 10949
0.17 0.41 0.66 -0.65 10.15 0.05 -0.07 0.01 10955
0.19 0.35 0.68 -0.77 10.03 0.05 -0.07 0.01 10961
0.24 0.27 0.65 -0.82 10.04 0.06 -0.06 0.00 10968
0.27 0.19 0.73 -0.84 9.87 0.07 -0.06 -0.00 10974
0.32 0.11 0.74 -0.72 10.08 0.07 -0.05 -0.00 10981
0.34 0.08 0.64 -0.94 10.00 0.08 -0.04 -0.01 10987
0.39 0.05 0.61 -0.89 10.06 0.09 -0.06 -0.01 10993
0.41 0.03 0.56 -0.80 10.13 0.10 -0.06 -0.02 10999
0.42 0.02 0.66 -0.94 10.08 0.12 -0.07 -0.03 11006
0.45 -0.01 0.66 -0.89 10.16 0.13 -0.08 -0.03 11013
0.47 -0.04 0.66 -0.91 10.18 0.15 -0.09 -0.04 11019
0.50 -0.03 0.53 -0.48 10.09 0.18 -0.08 -0.03 11025
0.55 -0.05 0.65 -0.93 10.30 0.19 -0.10 -0.04 11032
0.59 -0.04 0.54 -0.94 10.23 0.22 -0.10 -0.03 11038
0.66 -0.04 0.58 -1.01 10.20 0.23 -0.12 -0.02 11044
0.67 -0.05 0.72 -0.97 9.93 0.25 -0.12 -0.03 11051
0.70 -0.04 0.73 -1.06 10.22 0.27 -0.14 -0.03 11058
0.73 -0.02 0.89 -1.36 10.16 0.30 -0.15 -0.04 11064
0.77 -0.05 0.73 -0.95 10.39 0.35 -0.16 -0.06 11070
0.82 -0.05 0.82 -1.16 10.16 0.39 -0.17 -0.08 11076
0.86 -0.06 0.71 -1.31 10.19 0.43 -0.16 -0.10 11083
0.87 -0.04 0.79 -1.29 10.09 0.46 -0.15 -0.12 11089
0.92 -0.06 0.68 -1.28 9.95 0.47 -0.13 -0.14 11096
0.92 -0.05 0.53 -1.32 9.76 0.46 -0.11 -0.14 11102
0.95 -0.06 0.63 -1.39 10.04 0.45 -0.10 -0.14 11109
0.93 -0.06 0.51 -1.36 9.84 0.43 -0.10 -0.14 11115
0.97 -0.04 0.50 -1.39 9.71 0.40 -0.09 -0.14 11121
1.04 -0.06 0.41 -1.39 9.61 0.34 -0.07 -0.13 11127
1.07 -0.05 0.32 -1.42 9.70 0.29 -0.06 -0.11 11134
1.12 -0.04 0.34 -1.43 9.73 0.25 -0.05 -0.09 11141
1.17 -0.04 0.41 -1.46 9.90 0.24 -0.04 -0.07 11147
1.20 -0.06 0.47 -1.50 10.04 0.24 -0.04 -0.06 11153
1.25 -0.05 0.53 -1.52 10.42 0.26 -0.03 -0.05 11159
1.30 -0.05 0.51 -1.61 10.49 0.32 -0.03 -0.05 11166
1.35 -0.06 0.55 -1.60 10.79 0.40 -0.04 -0.05 11172
1.38 -0.06 0.68 -1.79 10.86 0.50 -0.06 -0.05 11179
1.47 -0.06 0.78 -1.69 10.90 0.62 -0.07 -0.07 11185
1.55 -0.05 0.87 -1.83 11.19 0.73 -0.13 -0.09 11192
1.58 -0.07 0.81 -2.07 11.33 0.86 -0.15 -0.10 11198
1.68 -0.06 0.80 -1.94 11.37 0.98 -0.19 -0.10 11204
1.71 -0.07 0.40 -2.15 10.91 1.10 -0.23 -0.11 11211
1.75 -0.07 0.74 -1.95 11.99 1.22 -0.27 -0.12 11217
1.84 -0.07 0.76 -2.16 12.04 1.36 -0.32 -0.14 11224
1.89 -0.08 0.58 -2.05 12.58 1.50 -0.37 -0.14 11230
1.93 -0.06 -0.04 -1.80 14.29 1.68 -0.45 -0.13 11237
2.01 -0.07 0.45 -2.37 12.60 1.89 -0.49 -0.14 11243
2.02 -0.08 0.40 -2.40 13.31 2.07 -0.53 -0.14 11249
2.02 -0.08 0.25 -2.24 13.42 2.25 -0.56 -0.14 11255
2.04 -0.07 0.20 -2.79 13.57 2.48 -0.58 -0.14 11262
2.03 -0.08 -0.21 -2.49 13.37 2.75 -0.55 -0.15 11269
2.00 -0.08 0.01 -2.82 14.65 3.04 -0.52 -0.13 11275
2.00 -0.07 0.80 -2.87 14.79 3.33 -0.51 -0.15 11282
1.96 -0.07 1.40 -1.79 13.88 3.65 -0.48 -0.19 11288
1.85 -0.06 0.55 -3.14 15.38 4.02 -0.44 -0.23 11294
1.80 -0.07 0.46 -2.87 16.31 4.26 -0.48 -0.26 11300
1.62 -0.06 1.27 -2.45 17.68 4.28 -0.56 -0.31 11308
1.40 -0.06 2.18 -4.44 18.89 4.28 -0.78 -0.38 11314
1.24 -0.05 2.83 -5.75 20.63 4.28 -0.98 -0.51 11320
1.08 -0.04 2.82 -7.60 23.70 4.28 -1.18 -0.68 11326
0.98 -0.04 3.57 -8.47 27.93 4.28 -1.32 -0.80 11333
0.80 -0.03 1.27 -14.09 32.58 4.28 -1.43 -0.83 11339
0.64 -0.03 1.59 -17.21 37.16 4.28 -1.32 -0.80 11345
0.52 -0.04 3.09 -16.92 35.98 4.28 -1.08 -0.80 11353
0.37 -0.02 2.70 -13.11 31.74 4.28 -0.83 -0.88 11359
0.26 -0.02 2.15 -8.10 31.54 4.28 -0.68 -0.94 11365
0.23 -0.02 1.97 -3.70 32.14 4.28 -0.66 -0.97 11372
0.15 -0.01 3.24 -1.15 34.32 4.28 -0.97 -0.99 11378
0.13 0.00 6.87 2.62 34.73 4.28 -1.41 -1.04 11384
0.13 -0.01 10.42 6.99 33.49 4.28 -1.69 -1.10 11390
0.10 -0.01 12.05 10.53 32.51 4.28 -1.60 -1.15 11398
0.07 -0.01 13.33 17.13 24.84 4.28 -0.95 -1.19 11404
0.06 -0.01 8.63 19.93 17.74 4.28 -0.10 -1.60 11410
0.06 -0.01 10.51 24.43 -1.56 4.19 0.01 -2.14 11417
0.05 -0.01 10.03 26.44 12.85 2.38 -0.02 -2.49 11423
0.06 -0.01 8.91 20.67 29.52 -0.02 1.00 -2.35 11429
0.06 -0.01 8.37 16.46 29.59 -1.81 1.58 -1.99 11436
0.05 -0.01 5.39 14.32 20.96 -3.00 1.50 -1.61 11443
0.05 -0.01 3.02 13.09 15.60 -3.77 1.08 -1.21 11449
0.05 -0.01 2.67 11.72 13.26 -4.22 0.74 -0.82 11455
0.07 -0.01 3.55 9.92 11.14 -4.28 0.48 -0.53 11461
0.05 -0.01 4.44 7.84 9.58 -4.28 0.27 -0.33 11468
0.05 -0.00 4.70 6.07 8.56 -4.28 0.16 -0.19 11474
0.05 -0.00 4.75 5.04 7.75 -4.28 0.21 -0.07 11481
0.04 -0.00 4.77 4.44 7.61 -4.28 0.37 0.02 11487
0.04 -0.00 4.92 3.96 7.97 -4.28 0.55 0.07 11493
0.04 -0.00 4.85 3.27 8.70 -4.28 0.79 0.08 11499
0.06 -0.01 4.79 2.64 8.74 -4.28 1.02 0.08 11505
0.05 -0.01 4.29 2.29 9.04 -4.28 1.23 0.07 11512
0.04 -0.00 3.55 2.13 9.36 -4.28 1.42 0.08 11518
0.06 -0.01 3.02 1.75 9.96 -4.28 1.60 0.10 11525
0.05 -0.01 2.51 1.20 10.63 -4.28 1.74 0.13 11531
0.04 -0.00 1.91 0.60 11.36 -4.28 1.85 0.16 11537
0.07 -0.01 1.49 0.12 12.24 -4.28 1.94 0.21 11543
0.06 -0.01 1.29 -0.20 13.09 -4.28 1.92 0.24 11550
0.05 0.00 1.21 -0.58 13.79 -4.28 1.91 0.27 11556
0.06 -0.01 1.06 -0.83 14.37 -4.28 1.91 0.29 11563
0.06 -0.01 1.03 -1.13 14.87 -4.28 1.92 0.32 11569
0.06 -0.01 0.97 -1.57 15.48 -4.28 1.96 0.33 11576
0.07 -0.01 1.06 -2.08 16.27 -4.28 2.04 0.34 11582
0.06 -0.01 0.90 -2.63 17.01 -4.28 2.14 0.33 11588
0.06 0.01 0.70 -3.38 17.99 -4.28 2.28 0.32 11594
0.07 -0.01 -0.26 -4.10 18.67 -4.28 2.44 0.31 11600
0.05 -0.00 0.23 -4.85 19.05 -4.28 2.57 0.31 11608
0.07 -0.01 -0.42 -5.23 19.48 -4.28 2.65 0.33 11614
0.05 -0.01 -0.91 -5.42 19.64 -4.28 2.67 0.39 11620
0.06 -0.01 -1.30 -5.73 20.07 -4.28 2.64 0.48 11626
0.07 -0.01 -1.75 -6.09 20.37 -4.25 2.55 0.59 11632
0.05 -0.01 -2.00 -6.53 20.65 -4.18 2.40 0.71 11639
0.06 -0.00 -2.07 -6.90 21.04 -4.07 2.22 0.82 11645
0.06 -0.01 -1.94 -7.22 21.25 -3.91 2.02 0.91 11652
0.05 -0.00 -1.62 -7.55 21.66 -3.77 1.81 0.99 11658
0.06 -0.01 -1.35 -7.96 22.33 -3.61 1.60 1.05 11665
0.05 -0.01 -1.07 -8.63 23.06 -3.46 1.40 1.10 11671
0.05 -0.01 -0.87 -9.62 24.03 -3.35 1.20 1.14 11677
0.07 -0.00 -0.74 -10.65 24.72 -3.27 0.99 1.18 11683
0.05 -0.01 -0.68 -11.73 25.13 -3.24 0.75 1.21 11691
0.07 0.00 -0.51 -12.82 25.49 -3.25 0.48 1.24 11697
0.05 -0.01 -0.01 -13.86 24.99 -3.30 0.24 1.25 11703
0.05 -0.00 0.88 -15.12 24.33 -3.37 0.08 1.25 11709
0.07 -0.01 1.75 -16.32 23.11 -3.44 0.07 1.25 11716
0.04 -0.00 2.31 -17.47 21.48 -3.49 0.29 1.27 11722
0.06 -0.00 2.28 -18.55 19.09 -3.50 0.81 1.34 11728
0.06 -0.01 0.85 -19.68 16.80 -3.46 1.64 1.51 11736
0.07 -0.00 -1.35 -22.96 15.63 -3.41 2.66 1.73 11742
0.06 -0.01 -4.31 -27.84 14.54 -3.40 3.29 1.89 11748
0.06 -0.00 -7.91 -32.89 12.99 -3.32 3.33 1.96 11754
0.07 -0.01 -11.33 -38.36 9.08 -3.02 2.96 1.98 11761
0.07 -0.01 -14.19 -42.78 4.65 -2.58 2.44 1.92 11767
0.08 -0.00 -12.79 -42.52 -2.85 -1.95 1.78 1.71 11773
0.06 -0.00 -11.73 -40.45 -4.21 -1.28 1.20 1.32 11781
0.08 -0.00 -10.68 -37.94 -1.78 -0.62 0.56 0.72 11787
0.06 -0.00 -9.57 -33.47 2.03 -0.05 -0.12 0.07 11793
0.07 0.00 -8.17 -28.75 6.69 0.38 -0.69 -0.47 11800
0.06 -0.00 -6.50 -23.80 11.29 0.52 -1.13 -0.85 11806
0.06 0.01 -17.40 -59.30 -1.20 1.02 -2.48 -0.85 11812
0.06 -0.01 4.36 -19.52 5.25 3.32 -2.55 -0.56 11819
0.06 0.04 0.68 -8.38 -18.62 2.65 -2.76 -0.41 11826
0.07 0.13 1.43 -12.00 -20.20 1.84 -4.19 -0.44 11832
0.04 0.33 6.94 7.59 18.95 3.23 -2.90 0.07 11838
0.04 0.64 14.03 6.86 15.65 4.02 -0.45 0.90 11845
0.01 0.90 0.45 -1.81 26.47 4.28 -0.30 1.25 11851
0.02 1.34 -9.66 -11.23 34.04 4.28 -0.79 1.09 11857
-0.01 1.62 -6.23 -9.20 29.04 4.28 -1.03 0.67 11864
-0.02 1.78 -2.27 -3.42 29.87 4.28 -0.48 0.44 11871
-0.03 1.86 -4.82 -1.87 23.13 4.06 -0.07 0.18 11877
-0.05 1.82 -3.74 -2.17 17.21 3.54 -0.17 -0.32 11883
-0.02 1.81 2.58 -1.84 15.17 3.41 -0.34 -0.58 11890
-0.03 1.73 4.82 -2.06 17.31 3.39 -0.46 -0.46 11896
0.00 1.68 3.93 -3.89 31.41 3.07 -1.31 -0.25 11902
0.00 1.60 3.12 -2.34 14.79 1.32 -1.86 -0.07 11909
-0.01 1.56 -0.15 -1.89 13.80 0.66 -1.24 0.11 11916
-0.02 1.49 0.03 -1.30 11.16 0.30 -0.70 0.10 11922
-0.05 1.46 0.30 -0.59 10.39 0.15 -0.42 0.03 11928
0.01 1.46 0.91 -1.03 10.04 0.10 -0.31 0.00 11934
-0.00 1.44 1.16 -1.01 10.38 0.07 -0.22 0.04 11941
-0.00 1.39 0.59 -0.82 10.22 0.04 -0.16 0.06 11948
-0.02 1.33 0.41 -0.53 9.94 0.03 -0.10 0.05 11954
-0.01 1.25 0.59 -0.71 10.00 0.02 -0.07 0.03 11960
0.02 1.21 0.86 -0.78 10.14 0.02 -0.07 0.03 11967
0.03 1.10 0.69 -0.83 9.94 0.03 -0.07 0.04 11973
0.03 1.03 0.55 -0.74 10.19 0.02 -0.07 0.04 11979
0.08 0.96 0.51 -0.77 10.16 0.02 -0.05 0.03 11985
0.10 0.87 0.67 -0.78 10.17 0.03 -0.03 0.04 11992
0.10 0.76 0.61 -0.81 10.14 0.04 -0.02 0.04 11999
0.12 0.66 0.61 -0.79 10.04 0.05 -0.01 0.04 12005
0.12 0.62 0.62 -0.77 10.08 0.05 0.01 0.04 12011
0.16 0.54 0.60 -0.71 10.08 0.05 0.02 0.04 12017
0.17 0.42 0.61 -0.69 9.99 0.06 0.03 0.05 12024
0.18 0.37 0.67 -0.74 9.96 0.07 0.03 0.05 12030
0.20 0.28 0.77 -0.85 10.13 0.08 0.04 0.05 12037
0.19 0.21 0.75 -0.45 9.99 0.10 0.04 0.05 12043
0.21 0.13 0.70 -0.64 9.97 0.10 0.04 0.04 12049
0.23 0.13 0.90 -0.77 10.04 0.10 0.04 0.00 12056
0.20 0.06 0.84 -0.98 9.94 0.09 0.03 0.03 12062
0.23 0.05 0.74 -0.90 9.90 0.10 0.03 0.03 12068
0.26 0.01 0.83 -0.84 10.06 0.09 0.03 0.02 12075
0.27 -0.03 0.78 -0.90 10.07 0.08 0.02 0.02 12081
0.28 -0.02 0.85 -0.85 10.15 0.08 0.02 0.01 12088
0.29 -0.03 0.74 -0.58 10.23 0.09 0.02 0.01 12094
0.30 -0.03 0.66 -0.98 9.97 0.09 0.03 0.00 12100
0.31 -0.03 0.82 -0.89 10.05 0.10 0.03 0.00 12106
0.34 -0.03 0.77 -0.92 10.01 0.12 0.03 0.00 12112
0.34 -0.03 0.75 -0.94 9.98 0.13 0.04 0.00 12119
0.33 -0.02 0.74 -0.94 9.99 0.15 0.05 0.00 12126
0.37 -0.03 0.86 -0.84 10.10 0.17 0.07 0.00 12132
0.35 -0.03 0.89 -0.95 10.06 0.19 0.09 -0.00 12138
0.34 -0.03 0.90 -1.05 10.91 0.18 0.08 -0.00 12144
0.35 -0.02 0.82 -0.81 9.30 0.22 0.12 -0.02 12150
0.34 -0.01 0.74 -1.04 9.82 0.23 0.12 -0.03 12157
0.34 -0.03 0.86 -1.21 9.66 0.20 0.10 -0.04 12164
0.36 -0.03 0.95 -1.19 9.98 0.18 0.10 -0.05 12170
0.30 -0.03 1.13 -0.97 9.88 0.20 0.12 -0.07 12176
0.32 -0.03 0.95 -1.08 9.83 0.19 0.08 -0.07 12182
0.34 -0.03 0.89 -1.10 9.91 0.13 0.05 -0.08 12188
0.29 -0.02 1.08 -1.18 9.94 0.11 0.03 -0.08 12195
0.35 -0.03 1.18 -1.20 9.87 0.09 0.02 -0.10 12201
0.37 -0.03 1.09 -1.16 9.81 0.09 0.01 -0.11 12208
0.38 -0.02 0.98 -1.25 9.83 0.07 -0.01 -0.12 12214
0.38 -0.01 0.92 -1.14 9.83 0.05 -0.03 -0.11 12220
0.41 -0.02 0.92 -1.17 9.96 0.07 -0.04 -0.11 12227
0.45 -0.02 0.84 -1.19 10.01 0.09 -0.04 -0.10 12233
0.53 -0.03 0.96 -1.20 10.13 0.12 -0.04 -0.10 12239
0.54 -0.03 0.88 -1.26 10.25 0.17 -0.02 -0.09 12246
0.62 -0.03 0.87 -1.25 10.40 0.25 -0.01 -0.08 12253
0.70 -0.03 0.86 -1.26 10.40 0.35 0.01 -0.07 12259
0.71 -0.04 0.95 -1.28 10.52 0.46 0.03 -0.07 12265
0.76 -0.05 0.93 -1.42 10.79 0.58 0.04 -0.08 12271
0.90 -0.05 1.05 -1.47 10.89 0.73 0.05 -0.08 12278
0.93 -0.05 1.24 -1.51 11.24 0.89 0.04 -0.10 12284
1.00 -0.06 1.33 -1.73 11.55 1.06 0.00 -0.12 12291
1.06 -0.07 1.28 -1.60 11.86 1.22 -0.06 -0.15 12297
1.11 -0.06 1.31 -1.71 12.26 1.38 -0.12 -0.16 12304
1.17 -0.06 1.21 -1.79 12.61 1.54 -0.19 -0.18 12310
1.22 -0.05 0.98 -1.93 12.69 1.71 -0.27 -0.18 12316
1.26 -0.06 0.87 -1.81 12.91 1.92 -0.32 -0.18 12323
1.31 -0.04 1.00 -1.98 13.23 2.12 -0.37 -0.18 12329
1.39 -0.04 1.20 -2.03 13.14 2.32 -0.43 -0.20 12336
1.41 -0.06 0.75 -2.04 13.67 2.54 -0.46 -0.19 12342
1.46 -0.04 0.92 -2.25 13.53 2.79 -0.45 -0.19 12349
1.39 -0.05 0.90 -2.19 13.83 3.07 -0.41 -0.20 12355
1.41 -0.06 0.68 -2.40 13.81 3.37 -0.37 -0.20 12361
1.39 -0.05 0.66 -2.86 15.28 3.79 -0.32 -0.20 12367
1.30 -0.05 0.40 -2.90 13.86 4.10 -0.19 -0.19 12375
1.21 -0.04 0.88 -2.92 14.29 4.25 0.03 -0.18 12381
1.14 -0.06 1.14 -2.93 16.89 4.28 0.14 -0.19 12387
0.97 -0.04 -0.11 -3.53 17.51 4.28 0.22 -0.12 12394
0.80 -0.04 0.36 -4.37 19.90 4.28 0.38 -0.06 12400
0.63 -0.04 1.46 -5.74 23.15 4.28 0.41 -0.06 12406
0.59 -0.04 3.02 -7.62 24.60 4.28 0.36 -0.12 12412
0.48 -0.04 1.21 -11.28 29.53 4.28 0.33 -0.16 12420
0.42 -0.02 1.94 -13.48 35.70 4.28 0.46 -0.09 12426
0.38 -0.03 1.65 -15.36 35.24 4.28 0.72 0.02 12432
0.29 -0.01 1.27 -14.28 33.96 4.28 0.84 0.07 12439
0.29 -0.02 1.00 -12.59 31.94 4.28 0.95 0.07 12445
0.18 -0.00 0.48 -10.31 31.78 4.28 0.89 0.05 12451
0.17 -0.01 -1.55 -6.80 36.30 4.28 0.74 -0.11 12457
0.10 -0.01 1.28 -3.52 35.99 4.28 0.22 -0.22 12465
0.12 -0.01 3.91 0.57 36.07 4.28 -0.42 -0.37 12471
0.09 -0.01 7.12 6.10 37.51 4.28 -0.77 -0.45 12477
0.08 -0.01 8.74 12.93 36.43 4.28 -0.66 -0.42 12483
0.07 -0.01 11.60 20.45 28.80 4.28 -0.03 -0.43 12490
0.05 -0.01 7.89 23.47 22.65 4.28 1.10 -0.81 12496
0.06 -0.01 9.02 26.35 -1.29 3.97 1.55 -1.72 12503
0.05 -0.01 7.98 27.88 8.78 2.22 1.04 -2.44 12509
0.06 -0.01 5.77 23.75 29.02 -0.43 1.51 -2.60 12516
0.06 -0.01 4.87 20.15 32.28 -2.55 2.20 -2.50 12522
0.05 -0.01 1.74 17.18 23.91 -3.81 2.02 -2.43 12528
0.07 -0.01 -0.46 15.28 17.93 -4.27 1.28 -2.32 12534
0.05 -0.00 -0.81 13.42 15.18 -4.28 0.65 -2.15 12541
0.04 -0.00 -0.52 10.87 13.06 -4.28 0.22 -1.96 12548
0.04 -0.00 0.66 8.34 11.01 -4.28 -0.10 -1.82 12554
0.05 -0.01 1.85 6.11 9.80 -4.28 -0.36 -1.73 12560
0.08 -0.00 2.50 4.25 9.03 -4.28 -0.52 -1.67 12567
0.06 -0.01 3.12 3.15 8.42 -4.28 -0.55 -1.63 12573
0.04 0.00 3.82 2.45 8.54 -4.28 -0.50 -1.59 12579
0.06 0.00 4.43 2.00 8.73 -4.28 -0.38 -1.56 12585
0.06 -0.01 4.67 1.86 9.20 -4.28 -0.24 -1.54 12592
0.07 -0.01 4.76 1.75 9.52 -4.28 -0.13 -1.51 12598
0.07 0.01 4.71 1.63 9.82 -4.28 0.02 -1.45 12605
0.05 -0.00 4.55 1.19 10.14 -4.28 0.19 -1.35 12611
0.04 0.00 4.36 0.36 10.67 -4.28 0.38 -1.24 12617
0.06 -0.01 4.32 -0.55 11.25 -4.28 0.56 -1.15 12623
0.04 -0.00 4.33 -1.38 11.77 -4.28 0.72 -1.02 12631
0.04 0.01 4.17 -1.93 12.53 -4.28 0.87 -0.90 12637
0.04 -0.00 4.21 -2.32 13.56 -4.28 1.05 -0.76 12643
0.04 -0.00 4.26 -2.70 14.69 -4.28 1.27 -0.63 12649
0.05 0.00 4.23 -3.16 15.65 -4.28 1.49 -0.51 12656
0.03 -0.00 4.10 -3.53 16.51 -4.28 1.70 -0.40 12662
0.03 -0.00 3.90 -4.07 17.84 -4.28 1.90 -0.31 12668
0.06 -0.01 3.54 -4.88 18.98 -4.28 2.09 -0.24 12675
0.06 -0.01 2.25 -5.78 19.97 -4.28 2.25 -0.15 12681
0.05 -0.00 2.60 -6.63 19.83 -4.28 2.36 -0.09 12688
0.05 -0.01 2.18 -7.15 19.76 -4.28 2.42 -0.03 12694
0.05 -0.00 1.85 -7.42 19.88 -4.28 2.45 0.07 12700
0.05 0.01 1.56 -7.63 19.84 -4.28 2.44 0.20 12706
0.05 -0.01 1.40 -7.94 19.58 -4.28 2.41 0.35 12713
0.04 -0.00 1.32 -8.23 19.23 -4.20 2.37 0.52 12720
0.05 -0.01 1.17 -8.65 19.40 -4.01 2.32 0.70 12726
0.04 -0.00 0.95 -9.08 19.96 -3.68 2.26 0.87 12732
0.04 -0.00 0.46 -9.72 20.73 -3.36 2.16 1.03 12738
0.05 -0.01 -0.07 -10.14 22.12 -3.06 1.99 1.19 12745
0.05 -0.00 -0.34 -10.50 23.62 -2.86 1.77 1.34 12751
0.05 0.00 -0.10 -10.94 24.43 -2.76 1.59 1.47 12758
0.05 -0.01 0.40 -11.72 24.52 -2.79 1.46 1.58 12764
0.05 -0.01 0.87 -12.70 24.38 -2.89 1.40 1.64 12771
0.05 -0.01 1.34 -13.73 23.97 -3.03 1.41 1.67 12777
0.04 -0.00 2.01 -15.07 23.84 -3.17 1.46 1.66 12783
0.07 -0.01 2.29 -17.12 23.07 -3.31 1.55 1.61 12789
0.05 -0.01 2.45 -18.29 21.75 -3.42 1.68 1.53 12796
0.06 -0.00 2.11 -18.80 20.36 -3.49 1.86 1.49 12803
0.05 -0.01 1.41 -19.88 18.67 -3.49 2.08 1.53 12809
0.05 -0.01 -0.00 -21.39 15.97 -3.42 2.32 1.63 12816
0.05 -0.01 -2.24 -22.87 13.94 -3.23 2.56 1.80 12822
0.05 -0.00 -4.23 -25.49 12.64 -2.93 2.75 1.96 12828
0.06 -0.01 -6.43 -28.76 10.41 -2.58 2.63 2.07 12834
0.06 -0.01 -8.30 -32.00 7.95 -2.23 2.25 2.08 12841
0.05 -0.00 -9.72 -34.82 5.48 -1.90 1.73 1.97 12848
0.06 -0.01 -9.91 -35.76 3.31 -1.60 1.22 1.78 12854
0.05 -0.00 -9.32 -36.02 1.93 -1.26 0.79 1.54 12860
0.05 -0.00 -8.46 -35.75 1.87 -0.85 0.45 1.16 12867
0.05 -0.01 -7.72 -33.60 2.84 -0.37 0.20 0.74 12873
0.04 -0.00 -6.57 -30.44 4.09 0.10 0.01 0.31 12879
0.05 -0.00 -5.43 -26.93 6.16 0.46 -0.18 -0.07 12886
0.05 -0.01 -4.41 -23.50 8.96 0.68 -0.41 -0.36 12892
0.04 -0.00 -38.67 -48.47 61.36 2.44 -2.41 -0.05 12899
0.05 -0.01 -5.43 -17.91 4.43 3.45 -2.29 0.62 12905
0.05 0.03 -2.06 -7.23 -10.97 3.16 -2.88 0.88 12911
0.04 0.11 3.91 -8.08 -13.30 2.28 -3.94 0.75 12917
0.02 0.24 6.04 4.62 13.78 3.08 -2.99 1.27 12924
0.03 0.52 9.30 7.68 13.01 3.81 -0.23 2.19 12931
-0.00 0.80 -2.36 1.20 17.71 4.28 0.39 2.55 12937
-0.02 1.14 -16.50 -7.01 30.97 4.28 -0.14 2.17 12944
0.01 1.44 -15.46 -9.92 25.86 4.28 -0.91 1.27 12950
-0.00 1.63 -8.54 -5.08 29.05 4.28 -0.60 0.55 12956
-0.02 1.75 -7.09 -3.07 27.01 4.28 -0.18 -0.01 12962
-0.03 1.74 -3.42 -2.78 21.18 4.01 -0.30 -0.66 12969
-0.02 1.75 4.67 -3.08 18.47 3.82 -0.49 -0.90 12976
-0.02 1.68 7.81 -4.15 32.79 3.64 -1.28 -0.63 12982
-0.00 1.64 5.00 -2.28 16.33 1.70 -2.23 -0.18 12989
0.00 1.61 0.74 -2.93 14.66 0.85 -1.41 0.18 12995
-0.01 1.53 -0.68 -1.21 11.66 0.35 -0.73 0.17 13001
-0.01 1.49 -0.64 -0.74 10.44 0.11 -0.26 0.07 13007
-0.00 1.50 0.40 -1.02 10.00 0.04 -0.15 -0.01 13015
-0.00 1.44 1.05 -0.98 10.30 0.01 -0.13 0.01 13021
-0.00 1.37 0.98 -0.88 9.82 0.01 -0.14 0.04 13027
0.00 1.33 0.39 -0.62 10.02 0.00 -0.12 0.03 13033
-0.00 1.30 0.51 -0.67 10.11 -0.01 -0.10 0.01 13040
0.02 1.21 0.78 -0.72 10.04 -0.01 -0.10 0.01 13046
0.02 1.14 0.81 -0.65 9.99 -0.01 -0.10 0.01 13052
0.04 1.09 0.56 -0.69 10.10 0.00 -0.09 0.02 13059
0.05 0.96 0.54 -0.66 10.25 0.02 -0.07 0.01 13065
0.07 0.87 0.67 -0.69 10.22 0.03 -0.05 0.01 13072
0.09 0.78 0.68 -0.66 10.15 0.04 -0.04 0.02 13078
0.09 0.68 0.63 -0.76 10.05 0.05 -0.03 0.02 13084
0.11 0.62 0.73 -0.59 10.09 0.05 -0.02 0.02 13090
0.11 0.54 0.80 -0.66 10.18 0.05 -0.01 0.03 13097
0.14 0.41 0.87 -0.79 10.19 0.06 -0.01 0.03 13104
0.17 0.36 0.71 -0.54 10.12 0.07 -0.00 0.03 13110
0.20 0.26 0.54 -0.68 10.01 0.09 0.01 0.03 13116
0.19 0.18 0.83 -0.76 10.11 0.09 0.01 0.02 13123
0.20 0.15 0.72 -0.68 9.95 0.10 0.01 0.01 13129
0.20 0.06 0.81 -0.71 10.07 0.10 0.01 0.01 13135
0.23 0.05 0.74 -0.81 10.06 0.10 0.00 0.00 13142
0.28 0.00 0.79 -0.80 10.06 0.10 -0.00 -0.00 13148
0.25 0.02 0.81 -0.80 10.04 0.10 -0.01 -0.01 13155
0.27 0.01 0.73 -0.79 10.10 0.10 -0.02 -0.01 13161
0.30 -0.02 0.81 -1.53 10.08 0.10 -0.04 -0.01 13167
0.33 -0.03 0.84 -0.85 10.24 0.12 -0.05 -0.01 13173
0.36 -0.04 0.74 -0.87 10.06 0.13 -0.07 -0.02 13180
0.38 -0.03 0.70 -0.83 10.08 0.14 -0.08 -0.02 13187
0.40 -0.03 0.67 -0.93 10.08 0.15 -0.08 -0.02 13193
0.42 -0.03 0.72 -0.93 10.05 0.16 -0.09 -0.02 13199
0.45 -0.02 0.77 -0.91 9.97 0.17 -0.08 -0.02 13205
0.47 -0.02 0.80 -1.05 10.08 0.17 -0.09 -0.03 13212
0.51 -0.05 0.97 -0.92 9.92 0.17 -0.09 -0.04 13218
0.53 -0.02 0.95 -1.04 9.90 0.18 -0.08 -0.05 13224
0.57 -0.04 0.83 -1.02 9.87 0.18 -0.08 -0.07 13231
0.58 -0.04 0.91 -1.08 9.84 0.17 -0.08 -0.08 13237
0.58 -0.00 0.67 -1.06 10.01 0.17 -0.07 -0.10 13244
0.66 -0.05 0.87 -1.07 9.95 0.17 -0.07 -0.11 13250
0.66 -0.06 0.74 -1.07 9.92 0.16 -0.06 -0.12 13256
0.66 -0.04 0.82 -1.16 9.95 0.14 -0.05 -0.13 13262
0.72 -0.05 1.17 -1.29 10.21 0.15 -0.04 -0.14 13270
0.72 -0.04 0.69 -1.04 9.95 0.15 -0.04 -0.14 13276
0.78 -0.04 0.67 -1.13 9.89 0.14 -0.04 -0.14 13282
0.81 -0.06 0.61 -1.19 9.83 0.11 -0.04 -0.12 13288
0.83 -0.04 0.51 -1.11 9.92 0.08 -0.04 -0.11 13294
0.91 -0.05 0.58 -1.13 9.95 0.07 -0.04 -0.09 13301
0.96 -0.06 0.65 -1.13 10.09 0.07 -0.04 -0.08 13307
1.05 -0.04 0.69 -1.14 10.18 0.10 -0.04 -0.07 13314
1.07 -0.05 0.78 -1.18 10.37 0.16 -0.05 -0.06 13320
1.12 -0.05 0.88 -1.18 9.87 0.24 -0.06 -0.07 13327
1.24 -0.05 0.82 -1.14 10.74 0.36 -0.07 -0.08 13333
1.29 -0.07 0.74 -1.26 10.83 0.49 -0.09 -0.09 13339
1.37 -0.05 0.97 -1.42 11.28 0.64 -0.12 -0.10 13345
1.45 -0.06 0.76 -1.41 11.25 0.79 -0.14 -0.11 13352
1.52 -0.06 0.92 -1.50 11.62 0.93 -0.17 -0.12 13359
1.60 -0.08 0.73 -1.63 11.56 1.06 -0.21 -0.13 13365
1.64 -0.07 0.68 -1.66 11.76 1.19 -0.24 -0.13 13372
1.70 -0.06 0.82 -1.62 11.86 1.32 -0.28 -0.12 13378
1.75 -0.08 0.74 -1.66 12.58 1.45 -0.32 -0.12 13384
1.80 -0.07 0.78 -1.92 12.27 1.59 -0.36 -0.12 13390
1.88 -0.08 0.81 -1.94 12.40 1.73 -0.41 -0.12 13398
1.90 -0.06 0.53 -1.91 13.47 1.90 -0.46 -0.12 13404
1.92 -0.06 0.92 -1.98 12.43 2.09 -0.51 -0.13 13410
1.93 -0.07 0.45 -2.19 13.56 2.24 -0.54 -0.14 13416
1.96 -0.06 0.60 -2.11 13.55 2.45 -0.56 -0.14 13423
1.99 -0.08 0.44 -2.49 13.97 2.70 -0.59 -0.15 13429
1.97 -0.05 0.40 -2.44 13.51 2.99 -0.61 -0.14 13435
1.92 -0.08 0.12 -2.54 14.20 3.29 -0.58 -0.14 13443
1.84 -0.08 1.58 -1.36 14.43 3.63 -0.57 -0.17 13449
1.76 -0.06 0.08 -2.54 15.83 3.99 -0.52 -0.17 13455
1.67 -0.06 0.31 -2.82 16.18 4.21 -0.44 -0.17 13461
1.53 -0.06 0.77 -3.21 17.23 4.28 -0.44 -0.20 13468
1.39 -0.06 1.04 -4.24 16.04 4.28 -0.56 -0.31 13474
1.25 -0.04 3.31 -4.38 19.50 4.28 -0.81 -0.51 13480
1.03 -0.04 2.44 -5.62 22.29 4.28 -1.02 -0.68 13488
0.92 -0.04 1.82 -7.43 25.36 4.28 -1.22 -0.78 13494
0.82 -0.05 2.11 -9.72 30.20 4.28 -1.36 -0.89 13500
0.68 -0.04 1.44 -14.97 35.59 4.28 -1.28 -0.90 13506
0.56 -0.04 2.20 -16.83 35.73 4.28 -1.08 -0.82 13513
0.43 -0.03 3.27 -15.42 32.97 4.28 -0.72 -0.80 13519
0.38 -0.02 3.28 -12.60 30.27 4.28 -0.31 -0.86 13526
0.25 -0.02 2.54 -7.13 30.52 4.28 -0.04 -0.89 13533
0.21 -0.02 1.26 -3.55 32.45 4.28 -0.02 -0.96 13539
0.15 -0.01 1.57 -1.20 33.75 4.28 -0.41 -1.04 13545
0.13 -0.01 4.46 2.83 34.27 4.28 -0.95 -1.10 13552
0.11 -0.01 7.33 6.93 33.94 4.28 -1.29 -1.13 13558
0.07 -0.01 9.91 10.22 32.05 4.28 -1.31 -1.13 13564
0.09 -0.00 10.24 17.30 26.76 4.28 -0.96 -1.17 13571
0.05 -0.00 6.60 18.76 16.73 4.28 -0.30 -1.55 13578
0.06 -0.01 9.73 25.07 -0.42 3.99 -0.33 -2.12 13584
0.06 -0.01 9.53 26.83 16.94 1.99 0.02 -2.48 13590
0.05 -0.01 8.57 21.09 33.66 -0.52 1.12 -2.36 13596
0.07 -0.01 7.04 16.07 28.64 -2.35 1.63 -2.07 13603
0.06 -0.01 3.99 14.14 20.42 -3.45 1.49 -1.76 13609
0.05 -0.01 2.68 13.46 16.37 -4.13 1.21 -1.39 13616
0.05 -0.01 2.99 12.07 13.26 -4.28 1.04 -1.03 13622
0.04 -0.00 3.07 9.78 10.94 -4.28 0.93 -0.76 13629
0.08 -0.01 3.71 7.62 9.25 -4.28 0.76 -0.58 13635
0.06 -0.01 3.87 6.33 8.45 -4.28 0.65 -0.46 13641
0.04 0.00 3.72 5.39 7.99 -4.28 0.69 -0.33 13647
0.07 0.00 3.52 4.70 7.87 -4.28 0.84 -0.21 13654
0.06 -0.01 3.58 4.10 7.67 -4.28 1.01 -0.11 13661
0.05 -0.00 3.35 3.62 7.88 -4.28 1.17 -0.05 13667
0.05 -0.00 3.08 3.22 8.21 -4.28 1.30 -0.01 13673
0.06 -0.00 2.75 2.97 8.89 -4.28 1.36 0.02 13679
0.06 0.00 2.19 2.78 9.76 -4.28 1.38 0.05 13685
0.07 -0.00 1.88 2.45 10.63 -4.28 1.43 0.09 13692
0.05 -0.01 1.55 1.87 11.62 -4.28 1.50 0.15 13699
0.05 -0.00 1.29 1.25 12.31 -4.28 1.57 0.20 13705
0.05 -0.00 1.13 0.74 13.02 -4.28 1.61 0.24 13711
0.05 -0.00 1.03 0.43 13.48 -4.28 1.66 0.27 13717
0.06 0.01 1.06 -0.01 14.08 -4.28 1.71 0.28 13724
0.06 -0.01 1.00 -0.36 14.95 -4.28 1.76 0.27 13730
0.05 -0.00 0.98 -0.92 15.71 -4.28 1.83 0.25 13736
0.07 0.00 0.87 -1.74 16.58 -4.28 1.91 0.19 13743
0.06 -0.00 0.71 -2.57 17.29 -4.28 2.00 0.13 13750
0.07 0.01 0.50 -3.32 17.93 -4.28 2.08 0.06 13756
0.07 -0.00 0.08 -4.01 18.43 -4.28 2.17 0.00 13762
0.05 -0.00 0.06 -4.79 18.49 -4.28 2.26 -0.05 13768
0.06 0.00 -0.23 -5.16 18.78 -4.28 2.33 -0.09 13775
0.05 -0.00 -0.33 -5.36 18.65 -4.28 2.35 -0.10 13782
0.06 -0.00 -0.53 -5.59 19.53 -4.28 2.35 -0.08 13788
0.06 -0.00 -0.72 -5.97 19.31 -4.25 2.34 -0.04 13794
0.05 -0.01 -0.80 -6.33 19.78 -4.16 2.30 0.01 13801
0.07 0.00 -0.92 -6.70 20.37 -4.02 2.23 0.08 13807
0.06 -0.01 -0.93 -7.11 21.32 -3.81 2.14 0.16 13813
0.06 -0.00 -0.94 -7.57 22.64 -3.64 2.01 0.25 13819
0.07 -0.01 -1.09 -7.87 24.41 -3.53 1.88 0.34 13826
0.05 -0.01 -1.03 -8.19 26.22 -3.51 1.76 0.46 13833
0.06 -0.00 -0.76 -8.72 27.20 -3.59 1.65 0.58 13839
0.06 -0.01 -0.35 -9.42 27.02 -3.75 1.57 0.72 13845
0.05 -0.00 -0.00 -10.49 26.53 -3.94 1.52 0.88 13851
0.07 -0.01 0.25 -11.94 25.49 -4.08 1.51 1.06 13858
0.06 -0.01 0.38 -13.74 24.23 -4.12 1.56 1.23 13864
0.06 -0.00 0.31 -15.68 22.65 -4.11 1.62 1.41 13871
0.06 -0.01 -0.20 -17.48 20.72 -4.01 1.71 1.60 13877
0.05 -0.00 -1.30 -18.88 19.20 -3.79 1.86 1.83 13884
0.06 -0.01 -2.34 -20.45 18.12 -3.52 1.99 2.05 13890
0.06 -0.01 -3.48 -22.51 17.27 -3.24 1.91 2.20 13896
0.07 -0.00 -4.58 -24.95 15.90 -2.96 1.66 2.31 13903
0.06 -0.01 -5.32 -27.60 13.64 -2.67 1.35 2.36 13910
0.07 -0.01 -5.82 -30.12 11.20 -2.38 1.10 2.31 13916
0.07 -0.01 -6.35 -32.97 8.63 -2.10 0.96 2.18 13922
0.06 -0.01 -6.95 -36.07 5.60 -1.80 0.95 1.96 13929
0.07 -0.01 -7.33 -38.66 3.10 -1.47 1.00 1.65 13935
0.06 -0.01 -8.26 -39.17 1.47 -1.04 1.06 1.28 13941
0.05 -0.00 -8.39 -37.70 0.97 -0.55 1.12 0.86 13947
0.07 -0.01 -8.83 -34.38 2.38 -0.11 0.99 0.44 13954
0.07 -0.01 -9.12 -30.62 4.13 0.39 0.65 0.03 13961
0.06 0.00 -8.91 -26.22 7.26 0.75 0.12 -0.31 13967
0.06 -0.01 -10.52 -37.29 -9.77 0.96 -0.79 -0.45 13973
0.04 -0.00 -4.88 -26.68 -5.75 4.11 -2.04 -0.07 13979
0.07 -0.00 -4.23 -8.70 2.27 3.67 -2.28 0.01 13986
0.06 0.03 5.37 -10.30 -11.43 2.83 -3.25 -0.12 13992
0.05 0.21 3.56 -3.15 5.69 2.40 -4.02 0.01 13999
0.04 0.40 6.32 12.15 20.60 3.36 -2.02 0.78 14005
0.01 0.69 9.38 3.05 12.46 3.89 -0.13 1.42 14012
0.03 0.91 -5.12 -7.21 27.43 4.28 -0.43 1.55 14018
0.01 1.19 -11.12 -9.66 27.20 4.28 -0.95 1.22 14024
0.01 1.41 -5.36 -7.07 28.09 4.28 -0.96 0.80 14031
-0.00 1.59 -4.52 -3.79 27.11 4.28 -0.34 0.55 14038
-0.02 1.66 -6.66 -2.73 21.57 4.08 -0.16 0.07 14044
-0.02 1.67 -3.12 -1.88 16.63 3.57 -0.38 -0.49 14050
-0.02 1.60 2.88 -2.08 16.85 3.49 -0.49 -0.72 14057
-0.00 1.60 6.54 -3.79 27.86 3.52 -1.07 -0.58 14063
-0.00 1.55 4.19 -1.66 18.49 1.76 -1.83 -0.21 14069
0.00 1.50 1.88 -2.67 13.92 0.68 -1.11 0.12 14076
0.00 1.46 0.56 -1.11 12.40 0.27 -0.55 0.16 14083
0.01 1.42 -0.48 -0.64 10.72 0.11 -0.27 0.07 14089
-0.01 1.40 0.37 -0.64 10.38 0.05 -0.17 -0.00 14095
-0.02 1.36 1.06 -1.16 9.64 0.02 -0.14 0.00 14102
0.01 1.39 1.12 -0.98 9.99 0.01 -0.13 0.04 14108
-0.00 1.33 0.07 -0.56 10.07 -0.00 -0.12 0.05 14114
-0.00 1.27 0.46 -0.57 10.07 -0.00 -0.11 0.03 14120
0.03 1.23 0.58 -0.63 9.91 -0.00 -0.08 0.02 14127
0.04 1.18 0.78 -0.67 10.06 -0.01 -0.09 0.02 14134
0.05 1.15 0.69 -0.67 10.10 -0.01 -0.10 0.02 14140
0.08 1.11 0.66 -0.63 10.15 -0.01 -0.09 0.02 14146
0.04 0.99 0.55 -0.61 10.18 0.01 -0.07 0.01 14152
0.06 0.90 0.62 -0.62 10.19 0.02 -0.06 0.01 14159
0.10 0.78 0.66 -0.61 10.12 0.03 -0.05 0.02 14166
0.11 0.73 0.60 -0.67 10.18 0.04 -0.05 0.02 14172
0.13 0.66 0.63 -0.71 10.09 0.04 -0.04 0.02 14178
0.14 0.53 0.65 -0.57 10.08 0.05 -0.04 0.03 14184
0.18 0.52 0.57 -0.62 10.05 0.05 -0.05 0.02 14191
0.20 0.47 0.70 -0.61 10.11 0.06 -0.05 0.02 14197
0.21 0.33 0.60 -0.67 10.05 0.07 -0.05 0.02 14203
0.25 0.26 0.61 -0.45 9.92 0.08 -0.06 0.02 14210
0.25 0.16 0.74 -0.71 10.07 0.09 -0.06 0.01 14217
0.27 0.13 0.68 -0.81 10.05 0.09 -0.06 0.01 14223
0.31 0.08 0.69 -0.68 10.03 0.10 -0.06 0.00 14229
0.37 0.03 0.73 -0.57 10.07 0.09 -0.05 0.00 14235
0.37 0.03 0.72 -0.64 10.11 0.10 -0.06 -0.00 14242
0.41 0.01 0.67 -0.79 10.10 0.11 -0.05 -0.01 14248
0.44 -0.00 0.58 -0.77 10.04 0.11 -0.06 -0.01 14255
0.52 -0.02 0.60 -1.26 10.02 0.12 -0.06 -0.01 14261
0.53 -0.04 0.57 -0.76 10.16 0.13 -0.06 -0.00 14267
0.59 -0.03 0.53 -0.74 10.04 0.15 -0.07 -0.00 14274
0.61 -0.04 0.57 -0.80 10.13 0.17 -0.08 -0.00 14280
0.63 -0.04 0.59 -0.80 10.21 0.18 -0.08 -0.00 14286
0.70 -0.03 0.64 -0.91 10.14 0.19 -0.09 -0.00 14292
0.71 -0.05 0.73 -0.92 10.10 0.20 -0.10 -0.01 14300
0.73 -0.04 0.77 -1.00 10.03 0.22 -0.10 -0.02 14306
0.78 -0.04 0.77 -1.00 10.08 0.23 -0.11 -0.03 14312
0.80 -0.05 0.72 -1.03 10.08 0.24 -0.11 -0.04 14318
0.83 -0.04 0.78 -0.99 10.09 0.26 -0.12 -0.06 14325
0.85 -0.05 0.79 -1.05 10.01 0.28 -0.12 -0.08 14331
0.91 -0.05 0.83 -1.14 9.98 0.29 -0.12 -0.10 14338
0.93 -0.05 0.72 -1.11 9.98 0.29 -0.12 -0.11 14344
1.00 -0.06 0.79 -1.08 9.93 0.28 -0.12 -0.13 14351
1.03 -0.04 0.79 -1.18 10.11 0.28 -0.13 -0.14 14357
1.06 -0.05 0.76 -1.21 10.04 0.28 -0.14 -0.15 14363
1.08 -0.06 0.65 -1.23 10.10 0.29 -0.13 -0.16 14369
1.13 -0.05 0.62 -1.25 10.03 0.29 -0.14 -0.16 14376
1.16 -0.06 0.64 -1.22 9.98 0.29 -0.14 -0.16 14383
1.18 -0.04 0.59 -1.26 10.06 0.29 -0.14 -0.16 14389
1.24 -0.06 0.58 -1.30 10.21 0.31 -0.14 -0.16 14395
1.26 -0.06 0.61 -1.32 10.33 0.35 -0.15 -0.16 14402
1.33 -0.06 0.65 -1.34 11.02 0.41 -0.17 -0.17 14408
1.37 -0.06 0.56 -1.37 10.74 0.50 -0.19 -0.17 14414
1.43 -0.06 0.46 -1.43 10.77 0.58 -0.22 -0.17 14422
1.51 -0.06 0.55 -1.43 10.97 0.69 -0.25 -0.16 14428
1.54 -0.04 0.49 -1.58 11.16 0.79 -0.29 -0.16 14434
1.62 -0.07 0.47 -1.59 11.21 0.90 -0.32 -0.16 14440
1.67 -0.06 0.60 -1.71 11.27 1.01 -0.37 -0.16 14447
1.76 -0.07 0.51 -1.67 11.35 1.12 -0.40 -0.15 14453
1.84 -0.07 0.54 -1.82 12.20 1.23 -0.44 -0.15 14459
1.90 -0.06 0.43 -1.96 11.80 1.35 -0.48 -0.15 14466
1.95 -0.08 0.54 -1.97 12.67 1.48 -0.52 -0.15 14473
2.00 -0.07 0.49 -1.86 12.77 1.63 -0.56 -0.15 14479
2.02 -0.08 0.44 -2.12 12.76 1.80 -0.61 -0.15 14485
2.06 -0.08 0.23 -2.26 12.34 1.98 -0.66 -0.15 14492
2.10 -0.06 0.30 -2.25 13.01 2.16 -0.68 -0.15 14498
2.16 -0.08 0.15 -2.38 13.78 2.37 -0.70 -0.15 14504
2.14 -0.07 0.19 -2.66 14.01 2.63 -0.69 -0.17 14511
2.15 -0.08 0.10 -3.12 14.87 2.91 -0.66 -0.17 14518
2.11 -0.09 -0.32 -2.94 14.95 3.20 -0.68 -0.19 14524
2.06 -0.06 -0.02 -2.79 14.76 3.51 -0.63 -0.19 14530
2.00 -0.06 0.50 -2.59 15.18 3.84 -0.61 -0.22 14536
1.87 -0.07 -0.23 -2.97 15.01 4.15 -0.62 -0.26 14543
1.80 -0.07 2.50 -2.03 15.62 4.28 -0.63 -0.31 14550
1.64 -0.05 0.97 -2.96 17.80 4.28 -0.68 -0.34 14556
1.44 -0.05 1.16 -3.89 19.70 4.28 -0.85 -0.40 14563
1.24 -0.05 3.71 -5.30 21.30 4.28 -1.14 -0.57 14569
1.10 -0.05 2.72 -8.68 25.14 4.28 -1.34 -0.74 14575
0.91 -0.04 1.35 -12.44 31.38 4.28 -1.53 -0.88 14581
0.81 -0.03 0.62 -16.23 37.84 4.28 -1.52 -0.92 14588
0.70 -0.04 1.93 -18.25 37.80 4.28 -1.30 -0.91 14595
0.54 -0.02 2.82 -16.44 34.51 4.28 -0.99 -0.94 14601
0.36 -0.02 2.48 -11.65 30.88 4.28 -0.74 -0.98 14608
0.34 -0.02 1.97 -6.25 31.37 4.28 -0.44 -1.00 14614
0.26 -0.02 2.30 -3.80 35.41 4.28 -0.49 -1.02 14620
0.15 0.00 3.90 -1.03 36.13 4.28 -0.87 -1.10 14627
0.12 -0.01 7.11 3.27 35.08 4.28 -1.35 -1.21 14633
0.11 -0.01 9.91 8.89 34.45 4.28 -1.68 -1.27 14640
0.11 -0.01 11.35 12.83 31.64 4.28 -1.62 -1.23 14647
0.07 -0.01 8.70 17.69 22.73 4.28 -1.05 -1.37 14653
0.08 -0.01 7.85 18.28 4.25 4.28 -0.90 -1.80 14659
0.06 -0.01 11.07 26.31 0.22 3.89 -1.16 -2.20 14665
0.07 0.00 9.59 24.53 19.97 1.38 -0.57 -2.31 14672
0.08 -0.01 9.94 18.11 30.24 -0.78 0.55 -2.03 14679
0.06 -0.01 7.35 13.51 23.86 -2.17 0.99 -1.73 14685
0.07 -0.01 4.69 12.27 17.76 -2.98 0.88 -1.41 14691
0.05 -0.00 3.31 12.10 14.03 -3.57 0.62 -1.07 14698
0.07 -0.01 3.44 11.36 11.66 -4.03 0.42 -0.78 14704
0.07 -0.01 4.37 9.48 9.68 -4.20 0.25 -0.57 14710
0.07 -0.01 4.95 7.70 8.46 -4.25 0.12 -0.43 14716
0.07 -0.01 5.00 6.57 7.59 -4.27 0.08 -0.31 14723
0.06 -0.01 4.87 5.67 7.47 -4.28 0.19 -0.17 14729
0.06 -0.01 5.10 4.87 7.59 -4.28 0.40 -0.11 14736
0.07 -0.00 5.41 3.90 8.27 -4.28 0.64 -0.04 14742
0.07 -0.01 5.48 3.27 8.72 -4.28 0.88 -0.01 14748
0.07 -0.01 5.44 2.78 9.41 -4.28 1.10 -0.00 14754
0.06 -0.01 4.95 2.55 9.71 -4.28 1.26 0.00 14760
0.07 -0.01 4.29 2.43 10.07 -4.28 1.43 0.02 14767
0.05 -0.01 3.76 2.14 10.56 -4.28 1.57 0.07 14774
0.05 -0.00 3.33 1.49 10.86 -4.28 1.67 0.14 14780
0.06 -0.00 2.85 0.72 11.41 -4.28 1.72 0.21 14786
0.04 -0.00 2.62 -0.08 12.14 -4.28 1.74 0.28 14792
0.06 -0.01 2.52 -0.74 12.88 -4.28 1.73 0.34 14799
0.06 -0.01 2.42 -1.32 13.31 -4.28 1.71 0.40 14806
0.06 -0.01 2.44 -1.77 13.91 -4.28 1.73 0.43 14812
0.06 -0.01 2.62 -2.19 14.70 -4.28 1.80 0.44 14818
0.05 -0.01 2.73 -2.83 15.50 -4.28 1.93 0.45 14824
0.05 -0.01 2.89 -3.49 16.06 -4.28 2.07 0.42 14831
0.07 -0.01 2.61 -4.14 16.83 -4.28 2.22 0.39 14837
0.06 -0.01 2.20 -4.84 17.70 -4.28 2.35 0.36 14843
0.07 0.01 1.51 -5.32 18.70 -4.28 2.48 0.38 14850
0.07 0.00 1.73 -6.07 19.21 -4.28 2.55 0.35 14857
0.06 0.00 1.09 -6.39 19.43 -4.28 2.60 0.35 14863
0.07 -0.00 0.72 -6.66 19.62 -4.28 2.62 0.39 14869
0.07 -0.01 0.41 -6.92 19.99 -4.27 2.58 0.46 14875
0.07 0.01 0.17 -7.08 20.58 -4.23 2.49 0.54 14882
0.07 0.00 0.07 -7.36 21.18 -4.15 2.38 0.63 14888
0.07 -0.00 0.06 -7.68 21.79 -4.04 2.24 0.72 14895
0.08 -0.01 0.01 -7.93 22.56 -3.92 2.11 0.81 14901
0.07 -0.01 0.00 -8.41 23.24 -3.80 1.99 0.89 14908
0.07 -0.01 0.07 -9.10 23.77 -3.68 1.86 0.95 14914
0.07 -0.01 0.26 -9.82 24.02 -3.62 1.74 1.01 14920
0.06 -0.01 0.56 -10.66 24.12 -3.52 1.66 1.04 14926
0.07 0.01 0.84 -11.74 24.22 -3.42 1.61 1.06 14934
0.06 -0.01 1.09 -12.97 24.32 -3.31 1.59 1.07 14940
0.06 -0.00 1.43 -14.27 24.70 -3.23 1.60 1.08 14946
0.06 -0.01 1.43 -16.28 24.51 -3.17 1.64 1.10 14952
0.05 -0.01 1.78 -17.38 22.46 -3.13 1.69 1.11 14959
0.08 -0.01 1.33 -16.98 21.75 -3.22 1.77 1.14 14965
0.06 -0.01 0.27 -18.36 19.99 -3.31 1.95 1.25 14971
0.07 0.01 -1.11 -20.14 18.95 -3.34 2.20 1.46 14978
0.06 -0.01 -3.09 -22.00 17.02 -3.23 2.43 1.74 14985
0.06 -0.01 -5.54 -24.14 15.36 -3.03 2.62 2.05 14991
0.07 -0.01 -7.47 -27.55 13.54 -2.79 2.63 2.34 14997
0.05 -0.01 -8.93 -31.98 11.56 -2.54 2.30 2.51 15004
0.09 -0.01 -9.83 -36.07 8.20 -2.32 1.80 2.55 15010
0.07 -0.01 -10.13 -39.33 3.84 -2.11 1.36 2.48 15016
0.07 0.01 -9.56 -40.78 -0.31 -1.65 1.05 2.31 15023
0.07 -0.01 -9.24 -39.60 -1.70 -1.11 0.90 2.03 15030
0.04 -0.00 -8.69 -37.43 -1.02 -0.49 0.74 1.63 15036
0.06 -0.00 -8.49 -33.16 1.60 0.23 0.44 1.17 15042
0.05 -0.01 -8.39 -28.10 5.25 0.82 0.02 0.73 15048
0.06 -0.01 -20.37 -53.17 3.55 1.35 -1.25 0.61 15054
0.07 -0.01 -3.06 -23.94 5.21 3.85 -1.96 0.86 15062
0.07 -0.01 -5.30 -13.50 -3.19 3.64 -2.18 0.90 15068
0.06 0.05 0.46 -18.03 -7.38 2.87 -3.11 0.86 15074
0.06 0.15 0.30 0.95 5.29 2.58 -3.75 0.92 15080
0.04 0.37 1.34 3.50 20.89 3.35 -1.83 1.53 15087
0.04 0.66 3.76 2.92 19.60 4.03 0.08 1.93 15093
0.03 0.94 -10.82 -5.87 28.46 4.28 -0.17 1.70 15099
0.01 1.19 -15.78 -9.98 29.79 4.28 -0.89 1.01 15107
0.00 1.42 -6.36 -5.64 25.59 4.28 -0.92 0.42 15113
0.02 1.56 -3.94 -2.36 26.33 4.26 -0.39 0.09 15119
-0.01 1.58 -4.17 -2.11 20.48 3.70 -0.27 -0.30 15125
-0.02 1.58 0.90 -1.72 15.20 3.28 -0.43 -0.60 15132
-0.02 1.58 5.33 -1.63 12.64 3.34 -0.51 -0.53 15138
-0.02 1.50 5.97 -1.95 16.18 3.61 -0.78 -0.23 15144
0.02 1.42 -0.03 -1.98 28.66 2.92 -2.53 0.01 15151
0.00 1.42 0.80 -2.88 15.35 1.03 -1.56 0.18 15158
0.00 1.36 -0.68 -2.14 12.25 0.29 -0.53 0.18 15164
0.01 1.37 -0.02 -1.16 10.28 0.02 -0.16 0.08 15170
-0.01 1.32 0.06 -1.06 10.26 -0.01 -0.12 0.01 15177
0.02 1.25 0.64 -1.34 10.23 -0.01 -0.11 0.01 15183
0.05 1.18 1.02 -0.98 10.21 -0.01 -0.11 0.03 15190
0.04 1.14 0.35 -0.78 10.04 -0.02 -0.13 0.03 15196
0.08 1.09 0.40 -0.72 10.19 -0.02 -0.13 0.01 15203
0.11 1.00 0.67 -0.66 9.94 -0.02 -0.11 0.01 15209
0.11 1.01 0.70 -0.74 10.23 -0.01 -0.09 0.01 15215
0.11 0.96 0.53 -0.67 10.25 0.01 -0.08 0.00 15221
0.15 0.85 0.48 -0.66 10.32 0.01 -0.06 0.03 15227
0.18 0.77 0.44 -0.78 10.22 0.03 -0.04 0.03 15235
0.20 0.71 0.63 -0.67 10.17 0.04 -0.03 0.00 15241
0.21 0.61 0.65 -0.79 10.10 0.04 -0.03 0.01 15247
0.24 0.53 0.63 -0.73 10.11 0.04 -0.03 0.01 15253
0.24 0.48 0.65 -0.72 9.99 0.05 -0.03 0.01 15260
0.29 0.37 0.60 -0.48 10.04 0.05 -0.03 0.02 15266
0.32 0.31 0.69 -0.63 10.04 0.07 -0.03 0.02 15272
0.34 0.22 0.73 -0.71 10.10 0.08 -0.02 0.01 15279
0.38 0.17 0.76 -0.74 10.11 0.09 -0.03 0.01 15286
0.42 0.08 0.75 -0.86 10.12 0.10 -0.02 0.00 15292
0.43 0.06 0.77 -0.63 10.03 0.10 -0.02 -0.01 15298
0.41 0.01 0.81 -0.68 10.00 0.11 -0.03 -0.01 15304
0.44 -0.01 0.65 -0.77 10.13 0.12 -0.03 -0.02 15310
0.48 -0.01 0.72 -0.84 10.13 0.13 -0.03 -0.02 15318
0.49 -0.05 0.74 -0.92 10.18 0.15 -0.04 -0.02 15324
0.55 -0.03 0.82 -0.87 10.22 0.17 -0.05 -0.03 15330
0.59 -0.04 0.68 -0.78 10.19 0.19 -0.07 -0.03 15336
0.57 -0.05 0.65 -0.78 10.19 0.21 -0.08 -0.03 15343
0.64 -0.04 0.53 -0.92 10.15 0.26 -0.11 -0.04 15349
0.66 -0.05 0.73 -0.92 10.25 0.30 -0.12 -0.04 15355
