Voltage_01 Voltage_02 Acc_x Acc_y Acc_z Gyro_x Gyro_y Gyro_z Time
5000
0.04 0.02 3.12 2.62 10.57 -3.68 0.35 0.28 17
0.05 0.01 2.78 1.99 11.06 -3.90 0.55 0.35 23
0.04 0.02 2.47 1.25 11.20 -4.11 0.72 0.41 29
0.05 0.01 2.37 0.89 11.12 -4.22 0.82 0.45 35
0.04 0.02 2.00 0.29 12.22 -4.27 0.94 0.47 41
0.04 0.01 1.76 -0.75 11.86 -4.28 1.05 0.49 48
0.04 0.02 1.53 -1.74 12.60 -4.28 1.15 0.50 54
0.05 0.02 1.18 -2.40 13.18 -4.28 1.24 0.51 60
0.04 0.02 0.81 -2.65 13.67 -4.28 1.30 0.50 67
0.05 0.01 0.56 -2.94 14.14 -4.28 1.34 0.48 73
0.05 0.01 0.25 -3.18 14.57 -4.28 1.36 0.45 79
0.06 0.01 0.15 -3.71 15.11 -4.28 1.37 0.42 86
0.05 -0.01 -0.06 -4.46 15.75 -4.28 1.38 0.36 92
0.05 -0.01 -0.14 -5.14 16.10 -4.28 1.37 0.30 98
0.05 -0.00 -0.23 -5.80 16.40 -4.28 1.36 0.24 104
0.05 -0.01 -0.11 -6.15 16.57 -4.28 1.34 0.18 110
0.05 -0.01 -0.12 -6.49 16.70 -4.28 1.34 0.13 116
0.04 -0.00 -0.20 -6.85 16.88 -4.27 1.37 0.08 122
0.04 -0.00 -0.18 -7.22 17.09 -4.25 1.41 0.04 130
0.05 -0.00 -0.19 -7.55 17.41 -4.18 1.46 0.00 136
0.04 -0.00 -0.22 -7.93 17.45 -4.15 1.52 -0.02 142
0.04 -0.00 -0.22 -8.33 17.52 -4.05 1.56 -0.03 148
0.04 -0.00 -0.24 -8.61 17.51 -3.91 1.57 -0.03 154
0.05 -0.00 -0.30 -8.84 17.43 -3.75 1.56 -0.01 160
0.05 -0.00 -0.30 -8.94 17.28 -3.58 1.50 0.03 166
0.04 -0.00 -0.14 -9.14 17.33 -3.41 1.39 0.06 173
0.03 -0.00 0.05 -9.51 17.48 -3.27 1.28 0.09 179
0.04 0.00 0.18 -9.90 17.68 -3.09 1.19 0.10 185
0.04 -0.00 0.42 -10.21 17.82 -2.92 1.12 0.11 192
0.04 -0.00 0.54 -10.45 18.00 -2.77 1.08 0.11 198
0.04 -0.00 0.69 -10.62 18.03 -2.64 1.06 0.11 204
0.06 -0.01 0.80 -10.70 17.91 -2.52 1.06 0.11 210
0.04 -0.00 0.76 -10.80 17.79 -2.42 1.09 0.14 217
0.03 -0.00 0.82 -11.02 17.49 -2.31 1.13 0.18 223
0.04 0.00 0.69 -11.32 17.64 -2.25 1.17 0.25 230
0.04 -0.00 0.61 -11.53 17.79 -2.19 1.19 0.33 236
0.04 -0.00 0.54 -11.73 17.76 -2.19 1.21 0.43 242
0.04 0.00 0.49 -11.86 17.27 -2.24 1.23 0.56 248
0.05 -0.00 0.53 -12.26 16.66 -2.33 1.27 0.65 254
0.04 -0.00 0.55 -12.73 15.72 -2.43 1.34 0.78 261
0.04 -0.00 0.26 -13.13 13.92 -2.51 1.45 0.93 267
0.04 -0.00 -0.30 -13.31 12.10 -2.52 1.71 1.14 274
0.04 -0.00 -1.28 -14.14 10.65 -2.44 2.10 1.43 280
0.04 -0.00 -2.95 -15.74 9.77 -2.28 2.42 1.76 286
0.06 -0.01 -4.44 -17.74 9.05 -2.11 2.45 2.01 292
0.05 -0.00 -5.64 -20.05 8.16 -1.91 2.13 2.12 299
0.05 -0.00 -6.62 -21.54 6.25 -1.71 1.45 2.07 305
0.05 -0.00 -6.71 -22.73 4.48 -1.50 0.74 2.03 311
0.06 -0.01 -5.74 -23.28 2.83 -1.24 0.22 1.88 317
0.05 -0.00 -4.92 -23.63 2.08 -0.89 -0.06 1.67 324
0.04 -0.00 -4.12 -23.52 1.89 -0.56 -0.19 1.41 330
0.05 -0.01 -3.49 -22.78 2.28 -0.12 -0.30 1.09 336
0.06 -0.01 -2.76 -20.96 3.54 0.27 -0.35 0.72 343
0.05 -0.00 -2.18 -19.88 5.40 0.58 -0.43 0.41 349
0.04 -0.00 -8.64 -32.60 13.06 1.23 -0.89 0.20 355
0.04 -0.00 -7.25 -23.80 6.55 2.60 -1.44 0.17 361
0.05 -0.00 -8.37 -19.55 -2.34 2.75 -2.32 0.08 367
0.03 0.00 -2.28 -15.94 4.45 2.83 -3.47 0.10 374
0.02 0.10 -0.21 0.86 4.57 3.03 -3.57 0.08 380
0.01 0.49 3.74 3.28 14.32 3.28 -2.73 0.41 387
0.01 0.57 5.76 3.80 17.44 3.35 -1.60 0.84 393
-0.01 0.63 4.29 1.30 15.31 3.15 -0.70 1.13 399
-0.01 0.71 1.26 -2.74 16.82 3.00 -0.22 1.30 405
-0.01 0.75 -1.61 -4.05 15.71 2.86 -0.03 1.35 411
-0.01 0.77 -3.35 -4.10 14.01 2.90 -0.10 1.27 418
-0.02 0.84 -4.94 -3.42 14.41 3.03 -0.08 1.08 424
-0.01 0.90 -7.57 -2.60 15.75 3.11 -0.01 0.77 431
-0.01 0.95 -7.92 -2.80 17.70 3.15 0.03 0.32 437
-0.02 1.00 -4.63 -3.08 17.71 3.18 0.21 -0.12 443
-0.01 1.08 -1.61 -2.88 17.37 3.20 0.57 -0.41 449
-0.03 1.11 2.02 -3.32 19.52 3.17 0.97 -0.50 456
-0.04 1.19 4.02 -3.12 20.96 3.03 1.20 -0.49 462
-0.02 1.25 5.01 -3.98 21.17 1.65 -0.19 -0.27 468
-0.02 1.30 3.20 -2.85 12.01 0.38 -0.65 0.09 475
-0.03 1.32 0.46 -1.96 11.02 0.19 -0.50 0.17 481
-0.02 1.34 0.04 -1.30 10.62 0.13 -0.37 0.12 487
-0.02 1.30 0.57 -0.44 10.27 0.00 -0.15 0.06 494
-0.01 1.28 2.47 -1.01 7.93 -0.01 -0.08 0.10 500
0.01 1.31 0.64 -1.43 10.15 0.03 -0.10 0.12 506
-0.00 1.32 1.07 -1.00 9.89 0.04 -0.12 0.11 513
0.00 1.31 0.37 0.77 9.98 0.04 -0.14 0.10 519
0.03 1.30 0.95 -1.39 9.92 0.05 -0.09 0.10 525
0.04 1.29 0.93 -1.06 9.93 0.04 -0.08 0.11 531
0.05 1.29 0.90 -1.05 9.92 0.04 -0.07 0.12 537
0.05 1.30 0.92 -1.05 9.87 0.04 -0.06 0.11 543
0.05 1.27 0.96 -1.04 9.86 0.04 -0.07 0.12 549
0.05 1.26 0.95 -1.04 9.83 0.05 -0.08 0.13 557
0.06 1.24 0.89 -1.02 9.84 0.05 -0.10 0.13 563
0.07 1.20 0.87 -1.03 9.86 0.06 -0.10 0.14 569
0.08 1.17 0.84 -0.98 9.83 0.06 -0.10 0.14 575
0.08 1.14 0.79 -1.00 9.87 0.06 -0.09 0.14 581
0.12 1.12 0.85 -1.01 9.90 0.06 -0.08 0.16 587
0.12 1.06 0.79 -1.01 9.87 0.06 -0.07 0.16 593
0.13 0.98 0.79 -1.04 9.94 0.05 -0.07 0.17 600
0.11 0.94 0.79 -1.03 9.85 0.05 -0.05 0.16 606
0.15 0.92 0.76 -1.00 9.90 0.04 -0.04 0.17 612
0.14 0.85 0.79 -0.98 9.84 0.04 -0.03 0.18 619
0.16 0.82 0.82 -1.01 9.87 0.04 -0.03 0.18 625
0.16 0.74 0.82 -1.04 9.84 0.04 -0.03 0.17 631
0.17 0.72 0.85 -1.02 9.85 0.04 -0.03 0.18 637
0.17 0.68 0.84 -1.02 9.84 0.04 -0.04 0.17 644
0.17 0.67 0.81 -1.02 9.81 0.05 -0.05 0.17 650
0.17 0.60 0.87 -1.05 9.81 0.04 -0.10 0.17 656
0.20 0.58 0.83 -1.06 9.82 0.05 -0.08 0.16 662
0.24 0.56 0.84 -1.08 9.81 0.05 -0.09 0.17 668
0.23 0.53 0.80 -1.07 9.83 0.05 -0.10 0.16 674
0.24 0.52 0.77 -1.09 9.82 0.04 -0.09 0.16 680
0.23 0.52 0.74 -1.04 9.82 0.05 -0.09 0.15 688
0.28 0.46 0.73 -1.06 9.82 0.05 -0.08 0.16 694
0.30 0.42 0.77 -1.05 9.88 0.05 -0.06 0.16 700
0.30 0.40 0.77 -1.07 9.85 0.05 -0.06 0.16 706
0.30 0.41 0.75 -1.03 9.83 0.05 -0.05 0.17 712
0.33 0.36 0.76 -1.11 9.85 0.06 -0.04 0.17 718
0.33 0.33 0.79 -1.11 9.84 0.05 -0.03 0.17 724
0.32 0.29 0.78 -1.11 9.83 0.05 -0.04 0.17 731
0.33 0.23 0.80 -1.08 9.84 0.05 -0.04 0.17 737
0.33 0.24 0.78 -1.06 9.83 0.05 -0.04 0.16 743
0.36 0.16 0.83 -1.14 9.81 0.05 -0.04 0.16 750
0.38 0.15 0.75 -1.14 9.82 0.05 -0.05 0.16 756
0.37 0.11 0.80 -1.12 9.81 0.05 -0.05 0.16 762
0.40 0.10 0.84 -1.12 9.83 0.05 -0.06 0.15 769
0.41 0.06 0.80 -1.16 9.83 0.05 -0.06 0.15 775
0.39 0.04 0.81 -1.17 9.81 0.06 -0.07 0.15 781
0.43 0.02 0.78 -1.17 9.81 0.05 -0.07 0.14 787
0.42 0.00 0.80 -1.17 9.82 0.05 -0.07 0.13 793
0.45 -0.01 0.75 -1.16 9.82 0.05 -0.07 0.14 799
0.47 -0.03 0.76 -1.19 9.83 0.05 -0.07 0.14 805
0.45 -0.02 0.75 -1.18 9.83 0.05 -0.07 0.14 813
0.46 -0.00 0.73 -1.20 9.85 0.04 -0.07 0.14 819
0.50 -0.03 0.77 -1.21 9.85 0.04 -0.07 0.15 825
0.53 -0.03 0.77 -1.21 9.85 0.04 -0.06 0.13 831
0.55 -0.03 0.84 -1.23 9.88 0.04 -0.06 0.12 837
0.56 -0.01 0.81 -1.20 9.86 0.05 -0.07 0.11 843
0.57 -0.02 0.83 -1.23 9.83 0.06 -0.07 0.11 849
0.58 -0.02 0.82 -1.25 9.84 0.06 -0.07 0.11 856
0.60 -0.03 0.82 -1.22 9.83 0.06 -0.07 0.10 862
0.65 -0.02 0.82 -1.18 9.87 0.07 -0.07 0.10 868
0.71 -0.05 0.79 -1.25 9.90 0.08 -0.07 0.08 875
0.70 -0.05 0.80 -1.25 9.94 0.09 -0.07 0.09 881
0.72 -0.03 0.85 -1.29 10.04 0.10 -0.08 0.08 887
0.76 -0.01 0.96 -1.28 9.94 0.13 -0.08 0.08 893
0.78 -0.03 0.91 -1.36 10.04 0.16 -0.10 0.07 900
0.83 -0.04 0.92 -1.37 10.15 0.20 -0.12 0.04 906
0.91 -0.04 1.00 -1.47 10.19 0.27 -0.16 0.01 912
0.99 -0.03 0.99 -1.54 10.29 0.35 -0.20 -0.02 918
1.03 -0.05 1.11 -1.65 10.46 0.44 -0.27 -0.06 925
1.05 -0.05 1.11 -1.75 10.77 0.57 -0.34 -0.09 931
1.17 -0.04 0.88 -1.64 11.08 0.72 -0.39 -0.12 937
1.23 -0.06 0.85 -1.76 11.28 0.85 -0.40 -0.14 944
1.26 -0.05 1.00 -1.87 11.70 0.98 -0.40 -0.16 950
1.35 -0.03 1.38 -2.42 12.59 1.09 -0.38 -0.17 956
1.38 -0.05 0.91 -1.89 11.76 1.17 -0.36 -0.19 963
1.45 -0.04 0.73 -2.12 11.89 1.26 -0.37 -0.20 969
1.50 -0.06 0.80 -2.29 11.79 1.37 -0.36 -0.20 975
1.54 -0.06 0.72 -2.28 11.90 1.48 -0.37 -0.20 982
1.57 -0.07 0.86 -2.53 12.22 1.60 -0.40 -0.20 988
1.52 -0.05 0.85 -2.24 12.43 1.64 -0.46 -0.20 994
1.57 -0.07 0.59 -2.43 12.06 1.71 -0.45 -0.20 1001
1.57 -0.07 0.78 -2.73 12.62 1.84 -0.43 -0.21 1007
1.56 -0.06 0.80 -2.78 13.47 2.07 -0.43 -0.23 1013
1.56 -0.04 0.80 -2.80 13.73 2.36 -0.43 -0.25 1019
1.50 -0.04 0.96 -3.15 13.92 2.68 -0.44 -0.28 1027
1.46 -0.04 0.86 -3.19 13.86 2.96 -0.45 -0.31 1033
1.40 -0.05 0.99 -3.24 14.16 3.23 -0.45 -0.34 1039
1.32 -0.04 1.18 -3.53 14.62 3.51 -0.48 -0.43 1045
1.20 -0.04 1.92 -4.16 15.43 3.82 -0.56 -0.48 1051
1.02 -0.06 1.37 -3.96 15.70 4.12 -0.56 -0.53 1058
0.82 -0.03 1.86 -3.89 17.94 4.27 -0.67 -0.59 1064
0.73 -0.04 2.40 -5.80 18.20 4.28 -0.77 -0.68 1071
0.55 -0.02 2.55 -5.99 19.36 4.28 -0.84 -0.76 1077
0.49 -0.03 2.16 -8.00 21.42 4.28 -0.88 -0.82 1084
0.45 -0.03 2.43 -9.28 22.91 4.28 -0.85 -0.85 1090
0.38 -0.01 2.34 -10.40 24.73 4.28 -0.74 -0.84 1096
0.32 -0.01 2.09 -11.21 24.22 4.28 -0.63 -0.87 1102
0.22 -0.02 1.85 -11.22 23.73 4.28 -0.62 -0.90 1110
0.19 -0.01 0.35 -10.32 22.87 4.28 -0.61 -0.88 1116
0.17 -0.02 -1.20 -8.65 26.07 4.28 -0.63 -0.79 1122
0.13 -0.01 -0.90 -7.98 27.66 4.28 -0.74 -0.70 1128
0.12 -0.01 0.25 -6.22 28.52 4.28 -0.99 -0.69 1135
0.12 -0.01 2.88 -3.14 28.12 4.28 -1.28 -0.71 1141
0.07 0.01 4.87 0.67 26.99 4.28 -1.54 -0.68 1147
0.07 -0.00 6.41 5.18 25.70 4.28 -1.46 -0.65 1154
0.04 0.00 6.38 8.47 21.82 4.28 -1.02 -0.63 1160
0.05 0.00 6.81 18.68 22.80 4.28 -0.34 -0.66 1167
0.05 0.00 4.33 13.82 11.79 4.28 0.18 -0.87 1173
0.04 -0.00 4.24 12.25 -7.82 4.28 -0.04 -1.15 1179
0.06 -0.01 4.88 18.86 4.64 3.33 -0.43 -1.37 1185
0.04 -0.00 5.23 16.83 24.66 1.28 0.27 -1.28 1191
0.05 -0.00 6.18 13.80 25.18 -0.06 0.96 -1.22 1199
0.06 -0.01 3.51 11.01 18.56 -1.06 1.03 -1.17 1205
0.04 -0.00 1.43 11.68 14.41 -1.97 0.79 -1.02 1211
0.05 -0.01 1.68 11.67 11.29 -2.62 0.68 -0.80 1217
0.05 -0.01 2.21 9.30 10.08 -2.97 0.58 -0.62 1223
0.05 -0.00 2.36 7.03 9.57 -3.16 0.48 -0.51 1230
0.05 -0.00 2.38 6.25 8.67 -3.25 0.45 -0.42 1236
0.06 -0.01 2.32 6.27 7.70 -3.34 0.45 -0.35 1243
0.05 -0.01 2.29 5.70 6.89 -3.43 0.47 -0.29 1249
0.05 -0.01 2.17 4.79 6.87 -3.52 0.51 -0.26 1255
0.05 -0.01 2.04 4.04 7.03 -3.60 0.58 -0.22 1261
0.05 -0.01 1.72 3.64 7.25 -3.67 0.64 -0.19 1267
0.05 -0.01 1.55 3.09 7.49 -3.74 0.67 -0.16 1273
0.05 -0.00 1.44 2.66 7.87 -3.78 0.66 -0.15 1280
0.05 -0.00 1.33 2.34 8.42 -3.84 0.65 -0.14 1287
0.06 -0.00 1.28 1.96 9.19 -3.89 0.64 -0.13 1293
0.05 -0.00 1.20 1.57 9.98 -3.96 0.65 -0.13 1299
0.04 -0.00 1.24 1.23 10.73 -4.05 0.69 -0.11 1305
0.05 0.00 1.23 0.85 11.42 -4.14 0.74 -0.10 1311
0.05 -0.01 1.29 0.51 12.03 -4.22 0.81 -0.10 1317
0.04 -0.00 1.40 0.21 12.60 -4.27 0.90 -0.09 1324
0.05 -0.01 1.50 -0.19 13.00 -4.28 1.03 -0.08 1331
0.05 -0.01 1.60 -0.81 13.00 -4.28 1.19 -0.07 1337
0.05 -0.00 1.44 -1.52 13.31 -4.28 1.38 -0.07 1343
0.05 -0.00 1.15 -2.13 13.41 -4.28 1.52 -0.06 1349
0.06 -0.01 1.00 -2.76 13.86 -4.28 1.69 -0.06 1355
0.06 -0.01 0.66 -3.44 14.49 -4.28 1.82 -0.07 1361
0.05 -0.00 0.16 -4.25 15.27 -4.28 1.93 -0.09 1369
0.06 -0.01 -0.32 -5.09 15.77 -4.26 2.01 -0.12 1375
0.06 -0.01 -0.64 -5.80 16.07 -4.22 2.06 -0.15 1381
0.04 -0.00 -0.93 -6.27 16.45 -4.17 2.07 -0.18 1387
0.05 -0.00 -1.21 -6.60 16.47 -4.08 2.03 -0.20 1393
0.05 -0.00 -1.37 -6.97 16.63 -4.03 1.97 -0.20 1399
0.04 -0.00 -1.61 -7.22 16.69 -3.91 1.85 -0.17 1406
0.04 -0.00 -1.75 -7.13 16.93 -3.78 1.74 -0.11 1413
0.05 -0.00 -1.58 -6.91 16.95 -3.65 1.57 -0.04 1419
0.04 -0.00 -1.38 -6.71 17.22 -3.54 1.41 0.02 1425
0.04 -0.00 -1.05 -6.77 17.42 -3.42 1.30 0.09 1431
0.06 -0.01 -0.84 -6.94 17.89 -3.29 1.25 0.17 1437
0.04 -0.00 -0.77 -7.36 18.51 -3.18 1.27 0.23 1444
0.04 -0.00 -0.85 -7.78 19.05 -3.09 1.34 0.27 1451
0.05 -0.00 -0.97 -8.27 19.39 -3.01 1.41 0.29 1457
0.04 -0.00 -0.96 -8.91 19.45 -3.01 1.45 0.30 1463
0.03 -0.00 -0.91 -9.63 19.32 -2.99 1.46 0.31 1469
0.05 0.00 -0.73 -10.45 18.91 -2.94 1.47 0.33 1475
0.04 -0.00 -0.56 -11.29 18.12 -2.86 1.48 0.35 1482
0.04 -0.00 -0.41 -12.04 17.40 -2.74 1.49 0.40 1488
0.06 -0.01 -0.40 -12.60 16.92 -2.60 1.49 0.44 1495
0.05 -0.00 -0.55 -13.33 16.43 -2.45 1.50 0.50 1501
0.04 -0.00 -0.53 -13.88 16.16 -2.30 1.47 0.58 1507
0.05 -0.01 -0.86 -14.33 16.45 -2.19 1.42 0.67 1514
0.04 -0.00 -1.29 -14.44 16.43 -2.13 1.34 0.78 1520
0.05 -0.00 -1.82 -14.61 16.10 -2.12 1.25 0.92 1526
0.04 -0.00 -2.14 -14.86 15.31 -2.14 1.15 1.09 1532
0.03 -0.00 -2.30 -15.23 14.14 -2.19 1.06 1.28 1540
0.06 -0.01 -2.36 -15.88 12.68 -2.23 1.00 1.48 1546
0.04 -0.00 -2.60 -16.58 11.36 -2.24 0.95 1.67 1552
0.04 -0.00 -3.01 -17.63 9.70 -2.19 0.88 1.84 1558
0.05 -0.01 -3.60 -18.80 8.07 -2.06 0.81 1.98 1564
0.04 -0.00 -4.14 -19.71 6.71 -1.90 0.74 2.09 1571
0.03 -0.00 -4.56 -20.98 5.55 -1.66 0.60 2.12 1577
0.04 -0.00 -5.00 -22.05 4.53 -1.38 0.41 2.05 1584
0.05 -0.00 -4.78 -22.57 4.15 -1.08 0.13 1.88 1590
0.04 -0.00 -4.23 -22.70 3.87 -0.78 -0.13 1.70 1596
0.04 0.00 -3.44 -22.47 3.83 -0.49 -0.26 1.43 1602
0.04 -0.00 -2.74 -21.97 4.29 -0.22 -0.28 1.13 1609
0.04 -0.00 -4.69 -36.24 12.64 0.53 -0.57 0.87 1615
0.05 0.00 -6.77 -27.50 -2.55 1.87 -0.48 0.66 1622
0.04 -0.00 -8.01 -27.42 -5.63 2.29 -1.10 0.47 1628
0.03 0.01 -7.89 -30.23 0.18 2.68 -2.23 0.35 1634
0.03 0.16 -3.17 0.08 0.74 3.10 -2.75 0.22 1641
0.02 0.55 0.59 -1.36 9.92 3.26 -2.47 0.26 1647
0.00 0.71 3.49 4.57 20.23 3.51 -1.67 0.47 1653
-0.00 0.75 2.89 1.79 16.54 3.26 -0.73 0.72 1659
-0.02 0.80 0.35 -2.41 16.72 3.09 -0.42 0.78 1666
-0.02 0.80 -2.39 -3.62 16.55 3.01 -0.29 0.75 1673
-0.01 0.88 -2.97 -3.86 14.98 3.09 -0.29 0.65 1679
-0.01 0.91 -3.25 -3.14 15.83 3.20 -0.25 0.49 1685
-0.01 0.98 -4.75 -2.86 18.46 3.21 -0.08 0.27 1691
-0.01 1.07 -4.95 -2.97 19.53 3.11 0.02 -0.08 1698
-0.02 1.11 -1.86 -2.55 17.25 3.03 0.20 -0.32 1704
-0.02 1.21 2.19 -2.68 15.98 3.03 0.49 -0.46 1711
-0.02 1.22 3.50 -3.01 18.92 2.99 0.80 -0.43 1717
-0.02 1.28 3.72 -2.99 19.10 2.86 0.82 -0.36 1723
-0.01 1.29 3.73 -3.53 24.65 1.59 -0.34 -0.20 1730
-0.02 1.32 1.90 -2.61 12.74 0.43 -0.72 0.07 1736
-0.02 1.35 0.16 -1.41 10.89 0.16 -0.45 0.13 1742
-0.01 1.37 0.31 -1.70 10.64 0.11 -0.28 0.08 1748
0.00 1.35 1.39 -0.32 9.91 0.05 -0.14 0.06 1755
0.02 1.34 1.00 -1.55 10.05 0.03 -0.10 0.11 1762
0.03 1.34 0.89 -1.17 9.84 0.05 -0.11 0.10 1768
0.03 1.36 0.81 -1.20 9.98 0.06 -0.11 0.11 1774
0.06 1.37 0.91 -1.22 9.95 0.06 -0.10 0.10 1780
0.07 1.37 0.88 -1.13 9.94 0.07 -0.11 0.11 1786
0.09 1.35 0.87 -1.07 9.97 0.07 -0.12 0.11 1793
0.09 1.34 0.92 -1.11 9.91 0.07 -0.12 0.11 1800
0.13 1.32 0.89 -1.08 9.86 0.07 -0.13 0.12 1806
0.13 1.26 0.97 -1.02 9.72 0.07 -0.15 0.11 1812
0.17 1.22 0.85 -1.05 9.85 0.07 -0.16 0.12 1818
0.17 1.19 0.80 -1.09 9.84 0.07 -0.16 0.13 1824
0.20 1.15 0.79 -1.04 9.83 0.07 -0.15 0.14 1830
0.21 1.09 0.79 -1.05 9.88 0.06 -0.14 0.14 1838
0.23 1.08 0.77 -1.06 9.85 0.06 -0.13 0.15 1844
0.23 1.04 0.72 -1.06 9.90 0.06 -0.12 0.15 1850
0.25 0.99 0.77 -1.02 9.89 0.06 -0.10 0.16 1856
0.26 0.95 0.72 -1.07 9.82 0.06 -0.09 0.17 1862
0.29 0.89 0.75 -1.05 9.92 0.05 -0.08 0.16 1868
0.31 0.84 0.75 -1.03 9.88 0.05 -0.08 0.17 1875
0.30 0.79 0.75 -1.03 9.91 0.06 -0.08 0.16 1882
0.32 0.73 0.76 -1.06 9.82 0.05 -0.08 0.15 1888
0.31 0.67 0.76 -1.07 9.85 0.05 -0.08 0.16 1894
0.35 0.59 0.76 -1.10 9.86 0.05 -0.07 0.16 1900
0.40 0.57 0.74 -1.09 9.86 0.06 -0.08 0.16 1906
0.39 0.55 0.76 -1.06 9.84 0.06 -0.08 0.16 1913
0.44 0.47 0.72 -1.09 9.87 0.06 -0.08 0.16 1920
0.47 0.47 0.79 -1.04 9.93 0.05 -0.07 0.16 1926
0.45 0.44 0.72 -1.10 9.85 0.06 -0.07 0.15 1932
0.50 0.38 0.68 -1.12 9.87 0.05 -0.06 0.16 1938
0.50 0.35 0.69 -1.11 9.85 0.06 -0.05 0.16 1944
0.54 0.26 0.70 -1.12 9.84 0.06 -0.04 0.16 1950
0.55 0.17 0.77 -1.15 9.85 0.06 -0.03 0.16 1957
0.53 0.16 0.71 -1.13 9.86 0.06 -0.03 0.14 1964
0.58 0.11 0.74 -1.18 9.88 0.07 -0.03 0.14 1970
0.58 0.07 0.75 -1.20 9.83 0.07 -0.02 0.14 1976
0.60 0.02 0.81 -1.22 9.84 0.07 -0.02 0.13 1982
0.62 -0.01 0.79 -1.22 9.87 0.07 -0.02 0.13 1988
0.64 -0.02 0.78 -1.20 9.87 0.07 -0.02 0.11 1995
0.65 -0.03 0.82 -1.26 9.87 0.07 -0.02 0.12 2001
0.65 -0.01 0.81 -1.26 9.88 0.07 -0.02 0.10 2008
0.68 -0.03 0.81 -1.27 9.89 0.08 -0.02 0.10 2014
0.68 -0.04 0.78 -1.29 9.85 0.08 -0.02 0.10 2020
0.68 -0.02 0.83 -1.32 9.84 0.08 -0.02 0.09 2026
0.69 -0.03 0.82 -1.34 9.87 0.08 -0.02 0.07 2032
0.71 -0.04 0.87 -1.32 9.27 0.09 -0.03 0.07 2039
0.68 -0.02 0.86 -1.39 9.92 0.09 -0.03 0.06 2045
0.70 -0.01 0.90 -1.33 9.87 0.10 -0.04 0.05 2052
0.72 -0.03 0.91 -1.42 9.87 0.11 -0.04 0.04 2058
0.72 -0.03 0.92 -1.40 9.89 0.11 -0.05 0.03 2064
0.73 -0.02 0.97 -1.39 9.86 0.13 -0.06 0.02 2070
0.76 -0.04 0.92 -1.39 9.92 0.14 -0.07 0.01 2076
0.77 -0.04 0.97 -1.46 9.98 0.16 -0.09 -0.00 2083
0.77 -0.03 0.93 -1.48 9.97 0.17 -0.10 -0.01 2089
0.82 -0.03 0.95 -1.45 9.98 0.19 -0.11 -0.01 2096
0.83 -0.05 0.82 -1.54 10.08 0.20 -0.11 -0.02 2102
0.87 -0.04 0.81 -1.56 10.04 0.23 -0.11 -0.02 2108
0.89 -0.04 0.83 -1.61 10.09 0.24 -0.12 -0.02 2115
0.92 -0.04 0.77 -1.62 10.14 0.26 -0.11 -0.02 2121
0.92 -0.04 0.88 -1.66 10.13 0.28 -0.11 -0.02 2127
0.97 -0.04 0.91 -1.70 10.07 0.32 -0.12 -0.03 2134
0.96 -0.04 0.88 -1.76 10.09 0.35 -0.12 -0.03 2140
0.97 -0.02 0.92 -1.73 10.26 0.39 -0.12 -0.04 2147
0.99 -0.02 0.95 -1.78 10.24 0.43 -0.12 -0.05 2153
1.04 -0.05 0.96 -1.88 10.63 0.48 -0.13 -0.06 2159
1.09 -0.03 0.95 -2.04 10.63 0.54 -0.13 -0.07 2165
1.12 -0.04 0.96 -2.01 10.60 0.60 -0.14 -0.09 2172
1.15 -0.04 0.91 -2.00 10.74 0.67 -0.15 -0.11 2179
1.20 -0.05 0.63 -1.96 10.87 0.74 -0.16 -0.11 2185
1.24 -0.04 0.84 -2.12 10.93 0.80 -0.17 -0.12 2191
1.26 -0.03 0.91 -2.15 11.06 0.88 -0.18 -0.13 2197
1.31 -0.05 0.81 -2.10 11.23 0.96 -0.21 -0.14 2204
1.34 -0.06 0.83 -2.29 11.21 1.06 -0.22 -0.13 2210
1.37 -0.04 0.75 -2.41 11.27 1.17 -0.24 -0.13 2216
1.39 -0.05 0.68 -2.49 11.59 1.27 -0.26 -0.12 2223
1.41 -0.04 0.60 -2.58 10.95 1.34 -0.31 -0.10 2230
1.48 -0.06 0.59 -2.48 11.72 1.43 -0.29 -0.08 2236
1.49 -0.06 0.75 -2.69 11.80 1.54 -0.26 -0.08 2242
1.51 -0.04 0.77 -2.81 12.41 1.71 -0.23 -0.09 2248
1.54 -0.06 1.00 -2.83 12.94 1.95 -0.21 -0.10 2255
1.50 -0.05 1.09 -3.05 13.64 2.25 -0.19 -0.13 2262
1.48 -0.04 1.05 -3.30 13.76 2.57 -0.20 -0.17 2268
1.44 -0.05 0.85 -3.14 13.57 2.87 -0.19 -0.21 2274
1.32 -0.06 0.72 -3.33 13.21 3.12 -0.17 -0.23 2280
1.28 -0.05 0.63 -3.62 13.96 3.37 -0.19 -0.26 2287
1.24 -0.06 1.71 -3.72 14.27 3.65 -0.17 -0.26 2293
1.10 -0.02 1.47 -3.93 14.56 3.97 -0.19 -0.29 2299
1.02 -0.03 2.47 -5.61 14.83 4.20 -0.23 -0.33 2306
0.87 -0.04 -0.63 -8.26 17.91 4.27 -0.27 -0.43 2313
0.77 -0.02 1.67 -5.97 17.54 4.28 -0.39 -0.51 2319
0.64 -0.02 1.68 -6.83 18.99 4.28 -0.57 -0.60 2325
0.57 -0.02 1.88 -7.83 20.92 4.28 -0.73 -0.65 2331
0.53 -0.01 2.11 -9.60 22.78 4.28 -0.90 -0.68 2338
0.38 -0.01 2.07 -11.75 24.18 4.28 -0.85 -0.65 2344
0.38 -0.02 2.39 -12.37 25.12 4.28 -0.75 -0.63 2351
0.33 -0.03 1.69 -12.85 24.66 4.28 -0.72 -0.66 2357
0.27 0.01 0.65 -12.39 24.99 4.28 -0.68 -0.65 2364
0.21 -0.00 -0.40 -11.17 25.15 4.28 -0.74 -0.58 2370
0.15 -0.00 -0.37 -8.78 26.44 4.28 -0.83 -0.50 2376
0.17 -0.00 0.36 -7.05 28.16 4.28 -0.86 -0.41 2382
0.11 -0.01 1.32 -3.90 28.94 4.28 -0.89 -0.38 2390
0.10 0.00 2.17 -1.23 28.48 4.28 -1.00 -0.37 2396
0.09 0.01 3.25 2.47 28.80 4.28 -1.16 -0.31 2402
0.08 0.01 4.54 7.06 27.38 4.28 -1.15 -0.26 2408
0.08 0.02 5.52 8.96 25.68 4.28 -0.86 -0.19 2414
0.07 -0.01 5.33 12.17 22.29 4.28 -0.14 -0.16 2421
0.05 0.00 -3.10 13.16 2.85 4.28 0.70 -0.54 2427
0.07 0.01 2.86 12.79 -7.11 4.28 0.46 -1.29 2434
0.05 -0.00 4.39 18.01 3.43 3.38 -0.17 -2.08 2440
0.04 -0.00 5.04 18.83 22.13 1.07 1.00 -2.24 2446
0.06 -0.01 6.61 14.65 27.88 -0.37 1.96 -2.22 2453
0.05 -0.01 1.96 12.18 22.91 -1.58 2.07 -2.25 2459
0.05 -0.01 -0.66 12.76 16.17 -2.77 1.69 -2.09 2465
0.06 -0.01 -0.70 12.36 14.04 -3.52 1.20 -1.78 2471
0.05 -0.01 -0.02 9.55 13.37 -4.08 0.74 -1.51 2478
0.05 -0.00 0.36 6.46 12.56 -4.25 0.40 -1.28 2485
0.07 -0.01 1.10 5.16 10.83 -4.28 0.19 -1.03 2491
0.05 -0.01 1.61 4.52 8.74 -4.28 0.06 -0.77 2497
0.05 0.00 2.07 4.04 7.41 -4.28 0.00 -0.64 2503
0.06 0.01 2.54 3.43 6.55 -4.28 0.01 -0.50 2509
0.06 -0.00 2.77 2.77 6.53 -4.27 0.10 -0.40 2515
0.06 -0.01 2.74 1.89 7.42 -4.26 0.25 -0.31 2522
0.05 -0.00 2.70 1.21 7.80 -4.24 0.43 -0.24 2529
0.06 0.00 2.59 1.11 8.37 -4.24 0.59 -0.20 2535
0.05 -0.00 2.35 1.35 9.32 -4.26 0.71 -0.18 2541
0.03 -0.00 2.07 1.32 10.17 -4.27 0.88 -0.16 2547
0.05 0.00 1.87 0.95 11.06 -4.28 1.03 -0.12 2553
0.05 -0.01 1.57 0.49 11.78 -4.28 1.14 -0.07 2560
0.04 0.00 1.29 0.15 12.44 -4.28 1.21 -0.02 2567
0.05 0.00 1.04 -0.27 12.83 -4.28 1.24 0.02 2573
0.05 0.00 0.96 -0.84 13.38 -4.28 1.25 0.06 2579
0.03 -0.00 0.86 -1.34 13.79 -4.28 1.26 0.09 2585
0.05 -0.00 0.84 -1.85 14.18 -4.28 1.30 0.10 2591
0.04 -0.00 0.67 -2.52 14.32 -4.28 1.34 0.11 2597
0.05 -0.00 0.67 -3.23 14.57 -4.28 1.43 0.09 2605
0.05 -0.00 0.59 -3.93 15.08 -4.28 1.53 0.05 2611
0.05 -0.01 0.42 -4.55 15.63 -4.28 1.65 -0.00 2617
0.05 -0.00 0.06 -5.23 16.11 -4.28 1.76 -0.07 2623
0.05 -0.00 -0.27 -5.76 16.54 -4.28 1.86 -0.15 2629
0.05 -0.01 -0.52 -5.96 16.95 -4.28 1.93 -0.22 2635
0.04 -0.00 -0.80 -6.08 17.30 -4.28 1.98 -0.27 2642
0.04 -0.00 -0.95 -6.20 17.99 -4.28 2.02 -0.29 2649
0.06 -0.01 -1.13 -6.44 18.39 -4.25 2.05 -0.27 2655
0.04 -0.00 -1.25 -6.71 18.75 -4.20 2.08 -0.22 2661
0.03 -0.00 -1.42 -7.15 19.20 -4.11 2.08 -0.14 2667
0.05 -0.00 -1.60 -7.65 19.59 -3.97 2.06 -0.06 2673
0.04 -0.00 -1.81 -8.14 20.11 -3.80 1.99 0.06 2680
0.04 -0.00 -2.05 -8.60 20.61 -3.65 1.89 0.20 2686
0.04 0.01 -2.21 -8.98 21.16 -3.55 1.70 0.32 2693
0.04 -0.00 -2.14 -9.30 21.43 -3.48 1.43 0.44 2699
0.04 -0.00 -1.85 -9.60 21.30 -3.44 1.16 0.54 2705
0.04 -0.00 -1.46 -10.07 21.03 -3.42 0.90 0.63 2711
0.05 -0.00 -0.96 -10.74 20.70 -3.34 0.68 0.71 2718
0.04 -0.00 -0.46 -11.65 20.05 -3.29 0.52 0.78 2724
0.05 -0.01 -0.06 -12.64 19.44 -3.17 0.43 0.85 2731
0.04 -0.00 0.11 -13.53 18.95 -3.01 0.40 0.91 2737
0.04 -0.00 0.30 -14.23 18.52 -2.85 0.44 0.98 2743
0.05 0.02 0.44 -14.87 18.01 -2.72 0.54 1.05 2750
0.04 0.00 0.32 -15.48 17.52 -2.64 0.68 1.11 2756
0.04 -0.00 0.17 -16.10 16.95 -2.60 0.87 1.18 2762
0.07 -0.01 -0.07 -16.95 15.92 -2.60 1.09 1.28 2768
0.04 -0.00 -0.63 -18.12 14.60 -2.62 1.33 1.41 2776
0.05 -0.00 -1.27 -18.81 12.36 -2.59 1.56 1.57 2782
0.06 -0.01 -2.50 -20.38 10.52 -2.50 1.79 1.74 2788
0.04 -0.00 -3.69 -22.21 9.38 -2.37 1.94 1.92 2794
0.05 -0.00 -5.08 -24.45 7.82 -2.17 1.89 2.03 2800
0.06 -0.01 -6.48 -26.77 5.61 -1.89 1.65 2.06 2807
0.04 -0.00 -7.24 -28.83 2.94 -1.51 1.28 2.00 2813
0.05 0.00 -7.19 -29.53 1.33 -1.04 0.84 1.84 2820
0.05 -0.01 -8.19 -29.41 -0.15 -0.50 0.42 1.58 2826
0.05 -0.00 -7.12 -28.17 1.10 -0.09 0.04 1.23 2832
0.06 -0.00 -6.53 -26.35 3.32 0.36 -0.30 0.82 2839
0.06 -0.01 -3.83 -36.34 5.70 0.72 -0.55 0.40 2845
0.05 -0.01 -3.65 -29.40 8.30 2.76 -0.49 0.00 2851
0.05 -0.00 -7.58 -27.15 -3.09 2.77 -0.77 -0.24 2857
0.06 -0.01 -7.63 -31.06 0.34 3.01 -1.73 -0.43 2864
0.03 0.24 -2.80 -0.22 0.64 3.28 -2.48 -0.59 2870
0.02 0.59 0.58 -2.80 8.55 3.50 -2.27 -0.52 2877
0.02 0.70 5.91 2.94 21.89 3.80 -1.65 -0.28 2883
0.01 0.78 6.11 -1.46 17.17 3.53 -0.84 0.06 2889
0.00 0.89 3.17 -3.68 21.21 3.40 -0.45 0.30 2895
-0.01 0.94 0.14 -5.75 22.20 3.23 -0.20 0.41 2902
-0.00 0.99 -0.29 -3.94 18.03 3.19 -0.37 0.38 2909
-0.00 1.03 -0.89 -3.40 18.73 3.24 -0.38 0.34 2915
-0.00 1.08 -2.68 -2.76 18.44 3.27 -0.08 0.27 2921
-0.02 1.15 -4.33 -2.87 19.20 3.24 0.21 0.04 2927
-0.01 1.23 -2.15 -2.27 17.02 3.10 0.53 -0.24 2933
-0.02 1.26 1.15 -2.61 16.96 3.04 0.91 -0.41 2940
-0.02 1.31 2.94 -2.44 18.36 3.03 1.26 -0.45 2947
-0.02 1.34 5.61 -4.21 30.08 2.28 0.58 -0.30 2953
-0.02 1.39 3.02 -2.89 11.95 0.38 -0.46 0.08 2959
-0.02 1.44 0.44 -2.33 10.85 0.17 -0.40 0.16 2966
-0.02 1.44 -0.10 -1.10 10.53 0.12 -0.27 0.07 2972
-0.02 1.43 0.58 -0.37 10.50 0.02 -0.09 0.09 2978
0.01 1.41 1.09 -2.04 9.57 -0.01 -0.01 0.10 2984
0.02 1.40 1.09 -1.20 10.08 0.00 -0.02 0.10 2991
0.04 1.37 1.02 -1.11 9.94 0.01 -0.03 0.10 2998
0.05 1.39 0.95 -1.14 9.89 0.01 -0.02 0.09 3004
0.05 1.39 0.98 -1.00 9.90 0.01 -0.02 0.10 3010
0.06 1.37 1.03 -1.00 9.94 0.03 -0.04 0.11 3016
0.09 1.38 1.02 -0.96 9.82 0.04 -0.06 0.10 3022
0.11 1.36 0.97 -0.96 9.82 0.06 -0.10 0.10 3028
0.13 1.33 1.08 -0.89 9.82 0.07 -0.14 0.11 3035
0.11 1.30 0.99 -0.91 9.82 0.08 -0.18 0.11 3042
0.11 1.28 0.87 -0.95 9.90 0.08 -0.19 0.11 3048
0.12 1.24 0.87 -0.94 9.88 0.08 -0.20 0.12 3054
0.17 1.18 0.86 -0.93 9.87 0.07 -0.19 0.13 3060
0.19 1.14 0.86 -0.96 9.96 0.07 -0.17 0.13 3066
0.20 1.12 0.80 -0.97 9.97 0.06 -0.15 0.15 3073
0.19 1.07 0.74 -0.97 9.98 0.05 -0.11 0.15 3080
0.25 1.02 0.70 -0.95 9.91 0.05 -0.09 0.16 3086
0.28 0.95 0.76 -0.96 9.86 0.04 -0.06 0.16 3092
0.29 0.91 0.75 -0.91 9.87 0.04 -0.05 0.16 3098
0.30 0.85 0.79 -0.93 9.89 0.04 -0.04 0.17 3104
0.32 0.78 0.77 -0.94 9.89 0.04 -0.03 0.18 3110
0.33 0.72 0.78 -0.94 9.90 0.04 -0.03 0.16 3117
0.31 0.68 0.80 -0.96 9.88 0.05 -0.02 0.16 3124
0.36 0.62 0.89 -1.00 9.87 0.05 -0.03 0.16 3130
0.40 0.56 0.84 -1.00 9.83 0.05 -0.03 0.16 3136
0.39 0.50 0.83 -1.01 9.87 0.05 -0.04 0.15 3142
0.38 0.47 0.85 -1.00 9.83 0.05 -0.04 0.15 3148
0.42 0.42 0.85 -1.00 9.84 0.05 -0.04 0.15 3154
0.43 0.34 0.84 -0.97 9.83 0.05 -0.04 0.15 3161
0.47 0.32 0.81 -1.04 9.85 0.05 -0.04 0.14 3168
0.51 0.31 0.81 -1.08 9.85 0.05 -0.04 0.15 3174
0.49 0.22 0.81 -1.01 9.87 0.05 -0.04 0.14 3180
0.50 0.19 0.79 -1.04 9.87 0.05 -0.03 0.14 3186
0.55 0.14 0.83 -1.08 9.86 0.05 -0.03 0.13 3192
0.56 0.10 0.83 -1.10 9.90 0.05 -0.03 0.14 3198
0.57 0.05 0.85 -1.07 9.85 0.05 -0.02 0.13 3206
0.57 0.04 0.86 -1.08 9.85 0.05 -0.02 0.12 3212
0.59 0.01 0.86 -1.13 9.85 0.04 -0.03 0.12 3218
0.59 -0.01 0.87 -1.12 9.83 0.04 -0.03 0.11 3224
0.58 -0.02 0.87 -1.11 9.81 0.03 -0.04 0.10 3230
0.61 -0.01 0.91 -1.14 9.83 0.03 -0.05 0.10 3236
0.62 -0.01 0.92 -1.10 9.83 0.04 -0.05 0.10 3243
0.61 -0.03 0.87 -1.14 9.83 0.03 -0.05 0.09 3250
0.63 -0.01 0.94 -1.12 9.85 0.03 -0.06 0.10 3256
0.65 -0.02 0.96 -1.14 9.87 0.04 -0.06 0.08 3262
0.66 -0.04 0.89 -1.13 9.88 0.04 -0.06 0.07 3268
0.64 -0.01 0.85 -1.13 9.88 0.04 -0.07 0.07 3274
0.67 -0.02 0.84 -1.22 9.82 0.04 -0.07 0.08 3280
0.71 -0.03 0.90 -1.14 9.83 0.05 -0.07 0.07 3288
0.72 -0.03 0.86 -1.21 9.85 0.05 -0.07 0.07 3294
0.72 -0.02 0.89 -1.21 9.85 0.05 -0.07 0.06 3300
0.77 -0.02 0.85 -1.21 9.87 0.06 -0.07 0.06 3306
0.79 -0.04 0.94 -1.22 9.91 0.06 -0.07 0.05 3312
0.85 -0.03 0.96 -1.82 9.87 0.07 -0.08 0.05 3318
0.93 -0.03 0.95 -1.26 10.03 0.09 -0.09 0.03 3325
0.93 -0.03 0.98 -1.23 9.96 0.11 -0.10 0.03 3332
0.92 -0.02 0.89 -1.25 10.03 0.13 -0.11 0.01 3338
0.96 -0.05 1.00 -1.28 10.03 0.16 -0.13 -0.01 3344
1.05 -0.05 1.02 -1.39 10.14 0.19 -0.16 -0.02 3350
1.06 -0.02 0.98 -1.36 10.17 0.24 -0.19 -0.04 3357
1.17 -0.04 1.17 -1.36 10.35 0.32 -0.25 -0.06 3363
1.20 -0.04 1.14 -1.61 10.62 0.44 -0.31 -0.09 3369
1.28 -0.04 1.21 -1.75 11.05 0.57 -0.36 -0.13 3376
1.32 -0.04 1.08 -1.75 11.70 0.78 -0.40 -0.16 3382
1.37 -0.05 1.14 -1.65 11.72 0.96 -0.42 -0.19 3389
1.45 -0.04 0.85 -1.64 11.81 1.07 -0.39 -0.21 3395
1.52 -0.05 0.68 -1.65 12.20 1.17 -0.35 -0.21 3401
1.56 -0.05 0.65 -1.93 11.79 1.26 -0.32 -0.20 3407
1.62 -0.06 0.57 -1.69 11.72 1.38 -0.32 -0.19 3415
1.68 -0.06 0.69 -2.19 11.71 1.47 -0.32 -0.18 3421
1.72 -0.06 0.07 -2.09 12.30 1.57 -0.34 -0.18 3427
1.76 -0.08 0.90 -2.16 12.40 1.64 -0.39 -0.16 3433
1.77 -0.03 0.79 -2.35 12.63 1.73 -0.42 -0.16 3440
1.79 -0.06 0.75 -2.58 13.44 1.94 -0.39 -0.17 3446
1.82 -0.07 0.86 -2.67 14.22 2.26 -0.38 -0.19 3452
1.78 -0.07 0.87 -2.72 14.20 2.61 -0.38 -0.22 3459
1.81 -0.07 0.85 -2.75 14.18 2.93 -0.38 -0.24 3465
1.77 -0.07 0.74 -2.80 14.28 3.20 -0.37 -0.27 3472
1.65 -0.05 0.91 -2.91 14.89 3.48 -0.36 -0.29 3478
1.56 -0.05 1.12 -3.10 15.26 3.81 -0.39 -0.33 3484
1.44 -0.04 1.46 -3.84 15.36 4.14 -0.47 -0.42 3490
1.32 -0.04 1.73 -4.08 16.52 4.28 -0.50 -0.49 3497
1.14 -0.04 2.09 -4.40 17.67 4.28 -0.61 -0.59 3504
1.00 -0.02 4.33 -4.91 17.04 4.28 -0.77 -0.68 3510
0.80 -0.03 2.87 -5.74 20.08 4.28 -0.90 -0.79 3516
0.68 -0.00 3.07 -7.76 21.11 4.28 -1.07 -0.89 3523
0.54 0.00 2.58 -9.81 25.41 4.28 -1.13 -0.93 3529
0.50 -0.03 1.80 -12.51 27.82 4.28 -1.15 -0.94 3535
0.39 -0.02 1.26 -15.08 29.44 4.28 -1.05 -0.88 3542
0.30 -0.03 0.90 -15.25 28.13 4.28 -0.97 -0.85 3549
0.29 -0.01 0.47 -12.79 26.61 4.28 -1.05 -0.82 3555
0.20 -0.01 0.17 -9.74 29.00 4.28 -1.03 -0.72 3561
0.15 -0.00 0.65 -7.65 31.05 4.28 -0.97 -0.60 3567
0.18 0.01 1.96 -4.66 32.10 4.28 -1.10 -0.58 3574
0.11 -0.00 4.24 -1.01 31.81 4.28 -1.31 -0.55 3580
0.09 0.01 6.52 3.40 29.83 4.28 -1.49 -0.53 3587
0.08 -0.00 7.13 9.27 29.02 4.28 -1.46 -0.54 3593
0.05 -0.00 5.36 14.28 26.70 4.28 -0.92 -0.58 3599
0.05 0.00 4.51 14.61 20.07 4.28 -0.16 -0.73 3606
0.04 -0.00 9.23 -1.14 -0.46 4.28 -0.01 -1.19 3612
0.05 -0.00 5.95 8.94 11.68 4.28 -0.52 -1.42 3618
0.05 0.02 5.73 20.61 0.08 2.85 -0.69 -1.55 3624
0.06 0.01 5.91 27.33 19.91 0.77 -0.10 -1.58 3631
0.04 0.01 7.02 16.40 24.49 -0.61 0.55 -1.43 3638
0.05 0.02 4.24 9.93 19.95 -1.69 0.79 -1.24 3644
0.05 0.02 3.04 11.18 14.97 -2.49 0.78 -1.01 3650
0.04 0.03 2.40 12.08 11.20 -2.99 0.63 -0.79 3656
0.05 0.01 2.67 10.10 8.87 -3.28 0.45 -0.62 3663
0.05 0.01 2.93 7.93 7.93 -3.43 0.33 -0.52 3670
0.05 0.02 3.11 6.66 7.17 -3.48 0.31 -0.42 3676
0.05 0.01 2.88 6.18 6.73 -3.49 0.38 -0.33 3682
0.04 0.01 2.77 5.66 6.31 -3.54 0.47 -0.26 3688
0.04 0.02 2.64 5.05 6.24 -3.55 0.57 -0.23 3694
0.05 0.01 2.45 4.53 6.90 -3.62 0.69 -0.19 3701
0.05 0.02 2.35 4.01 7.49 -3.70 0.80 -0.17 3707
0.04 0.02 2.18 3.89 7.99 -3.81 0.92 -0.16 3714
0.05 0.01 1.90 3.65 8.90 -3.95 1.02 -0.15 3720
0.05 0.01 1.65 3.34 9.60 -4.08 1.11 -0.14 3726
0.04 0.00 1.43 2.99 10.47 -4.18 1.20 -0.13 3732
0.04 0.02 1.27 2.36 11.04 -4.26 1.26 -0.12 3739
0.03 0.00 1.00 1.71 11.46 -4.28 1.30 -0.11 3745
0.03 0.00 0.97 1.02 12.03 -4.28 1.32 -0.09 3751
0.04 0.02 0.86 0.34 12.42 -4.28 1.34 -0.08 3758
0.04 0.01 0.82 -0.44 13.00 -4.28 1.36 -0.06 3764
0.04 0.01 0.64 -1.25 13.37 -4.28 1.39 -0.05 3771
0.05 0.01 0.70 -2.05 13.84 -4.28 1.42 -0.05 3777
0.05 0.00 0.64 -2.56 14.23 -4.28 1.46 -0.05 3783
0.04 0.01 0.60 -3.10 14.74 -4.28 1.51 -0.05 3789
0.06 -0.00 0.43 -3.67 15.21 -4.28 1.58 -0.07 3795
0.05 -0.00 0.41 -4.33 15.76 -4.28 1.68 -0.09 3803
0.04 0.00 0.17 -5.03 16.46 -4.28 1.80 -0.12 3809
0.06 0.01 0.00 -6.05 16.88 -4.28 1.93 -0.16 3815
0.05 0.00 -0.04 -6.65 17.36 -4.28 2.05 -0.21 3821
0.05 0.01 -0.19 -7.09 17.70 -4.28 2.17 -0.24 3827
0.05 0.00 -0.31 -7.46 18.03 -4.27 2.29 -0.24 3834
0.04 0.00 -0.68 -7.66 18.53 -4.22 2.39 -0.22 3841
0.05 0.01 -1.08 -7.77 19.11 -4.14 2.41 -0.16 3847
0.05 0.01 -1.55 -7.91 19.67 -4.05 2.36 -0.07 3853
0.03 0.01 -1.77 -8.08 20.20 -3.94 2.23 0.07 3859
0.05 0.01 -1.94 -8.30 21.04 -3.86 2.05 0.24 3866
0.05 0.00 -2.00 -8.63 21.61 -3.77 1.81 0.43 3872
0.04 0.00 -1.87 -9.30 21.78 -3.69 1.55 0.63 3878
0.06 0.00 -1.65 -9.93 21.56 -3.61 1.27 0.82 3885
0.04 -0.00 -1.46 -10.78 21.16 -3.51 0.99 0.98 3891
0.04 -0.00 -1.07 -11.82 20.56 -3.38 0.69 1.12 3898
0.05 -0.01 -0.71 -13.33 19.95 -3.22 0.44 1.23 3904
0.04 -0.00 -0.21 -13.86 19.58 -3.02 0.27 1.33 3910
0.04 0.01 0.18 -15.09 18.94 -2.81 0.20 1.35 3916
0.04 -0.00 0.51 -16.41 18.33 -2.58 0.21 1.40 3923
0.04 -0.00 0.58 -17.59 17.20 -2.36 0.29 1.45 3930
0.05 -0.00 0.51 -18.65 17.25 -2.18 0.39 1.52 3936
0.05 -0.00 0.60 -19.32 16.36 -2.05 0.54 1.60 3942
0.04 -0.00 0.50 -19.93 15.47 -2.01 0.76 1.70 3948
0.06 -0.01 -0.01 -20.43 14.52 -2.03 1.07 1.84 3955
0.05 -0.00 -1.24 -20.79 13.31 -2.08 1.44 2.02 3961
0.04 0.00 -2.46 -21.56 12.21 -2.15 1.85 2.22 3968
0.04 -0.00 -3.67 -22.70 10.93 -2.21 2.07 2.39 3974
0.04 -0.00 -5.33 -24.77 8.79 -2.25 2.01 2.50 3981
0.04 0.01 -6.36 -26.70 6.60 -2.20 1.76 2.58 3987
0.04 0.00 -7.55 -28.61 4.33 -2.05 1.43 2.61 3993
0.03 -0.00 -7.53 -29.77 2.60 -1.84 1.07 2.57 3999
0.04 0.00 -7.49 -30.38 1.30 -1.49 0.68 2.43 4005
0.04 -0.00 -7.02 -29.83 0.27 -1.04 0.28 2.16 4013
0.03 -0.00 -6.30 -28.40 0.10 -0.54 -0.05 1.78 4019
0.05 0.00 -4.82 -26.66 1.42 -0.04 -0.41 1.28 4025
0.05 -0.01 0.44 -45.08 18.05 0.65 -0.85 0.80 4031
0.05 -0.00 -3.06 -30.63 0.95 2.83 -0.43 0.30 4037
0.04 0.01 -7.28 -24.02 -6.80 3.22 -0.87 -0.01 4043
0.04 0.00 -4.10 1.32 2.01 3.35 -2.03 -0.39 4050
0.02 0.43 -1.86 2.71 12.19 3.36 -2.54 -0.49 4057
0.01 0.56 5.12 4.18 18.84 3.43 -2.06 -0.31 4063
0.00 0.69 6.32 0.41 15.09 3.23 -1.07 0.02 4069
-0.01 0.71 3.51 -3.42 16.90 3.19 -0.53 0.30 4075
-0.00 0.77 0.97 -4.14 16.97 3.08 -0.37 0.44 4082
-0.01 0.85 1.39 -4.06 14.53 3.16 -0.46 0.50 4088
-0.01 0.92 1.04 -3.33 14.78 3.33 -0.32 0.55 4094
-0.01 0.96 -2.55 -2.65 17.17 3.47 -0.10 0.51 4101
-0.03 1.03 -5.17 -3.32 19.65 3.49 -0.10 0.27 4108
-0.02 1.08 -2.10 -3.76 19.56 3.46 0.21 -0.04 4114
-0.02 1.14 -0.22 -3.30 18.42 3.44 0.69 -0.24 4120
-0.01 1.17 0.46 -3.29 22.03 3.42 1.15 -0.40 4126
-0.01 1.23 8.86 -4.82 35.44 2.78 0.61 -0.33 4132
-0.02 1.27 2.71 -3.61 11.52 0.43 -0.58 0.11 4140
-0.02 1.31 0.61 -1.97 11.13 0.16 -0.39 0.17 4146
-0.01 1.34 0.13 -1.12 10.61 0.10 -0.30 0.13 4152
-0.01 1.32 0.54 -3.66 11.45 0.02 -0.16 0.07 4158
0.01 1.30 1.10 -2.70 7.59 -0.01 -0.05 0.14 4165
0.01 1.30 0.88 -1.23 10.17 0.02 -0.07 0.13 4171
0.03 1.28 1.02 -1.15 9.81 0.02 -0.08 0.12 4177
0.04 1.29 0.86 -1.31 10.07 0.04 -0.11 0.12 4184
0.05 1.31 0.86 -1.25 10.05 0.05 -0.11 0.11 4190
0.06 1.32 0.86 -1.15 10.00 0.04 -0.10 0.11 4197
0.07 1.33 0.90 -1.12 10.03 0.04 -0.09 0.12 4203
0.08 1.32 0.96 -1.11 9.98 0.04 -0.10 0.13 4209
0.08 1.28 0.88 -1.04 9.92 0.03 -0.10 0.12 4215
0.08 1.26 0.89 -1.00 9.86 0.04 -0.10 0.13 4221
0.10 1.25 0.89 -1.00 9.84 0.05 -0.12 0.13 4228
0.11 1.24 0.87 -1.00 9.23 0.05 -0.13 0.12 4234
0.11 1.20 0.87 -0.97 9.86 0.05 -0.14 0.12 4241
0.15 1.16 0.77 -0.99 9.84 0.05 -0.14 0.13 4247
0.13 1.13 0.77 -1.03 9.89 0.05 -0.14 0.13 4253
0.13 1.09 0.80 -0.96 9.88 0.05 -0.14 0.14 4259
0.16 1.05 0.77 -0.97 9.84 0.05 -0.14 0.14 4265
0.16 1.00 0.71 -0.98 9.89 0.05 -0.14 0.14 4272
0.15 0.94 0.71 -0.99 9.86 0.05 -0.13 0.17 4279
0.18 0.89 0.71 -1.01 9.95 0.05 -0.12 0.16 4285
0.20 0.84 0.73 -1.03 9.88 0.05 -0.11 0.15 4291
0.21 0.82 0.76 -1.01 9.87 0.05 -0.11 0.16 4297
0.23 0.80 0.70 -1.03 9.88 0.05 -0.11 0.16 4303
0.25 0.77 0.72 -1.04 9.85 0.05 -0.11 0.15 4310
0.27 0.70 0.73 -1.03 9.83 0.05 -0.12 0.14 4317
0.31 0.63 0.76 -1.05 9.86 0.06 -0.11 0.15 4323
0.29 0.60 0.76 -1.04 9.90 0.06 -0.11 0.14 4329
0.29 0.57 0.74 -1.08 9.84 0.05 -0.11 0.14 4335
0.30 0.57 0.72 -1.11 9.88 0.05 -0.11 0.13 4341
0.34 0.48 0.70 -1.13 9.84 0.05 -0.11 0.12 4347
0.37 0.49 0.64 -1.13 9.93 0.05 -0.10 0.12 4355
0.35 0.48 0.66 -1.09 9.88 0.05 -0.10 0.12 4361
0.36 0.44 0.65 -1.13 9.89 0.05 -0.09 0.12 4367
0.36 0.46 0.69 -1.13 9.83 0.04 -0.09 0.11 4373
0.38 0.40 0.69 -1.09 9.84 0.05 -0.09 0.12 4379
0.38 0.38 0.68 -1.14 9.87 0.05 -0.09 0.12 4385
0.43 0.34 0.71 -1.15 9.87 0.05 -0.08 0.12 4392
0.44 0.27 0.72 -1.15 9.87 0.05 -0.08 0.11 4399
0.49 0.29 0.73 -1.17 9.87 0.05 -0.09 0.10 4405
0.56 0.19 0.76 -1.15 9.81 0.06 -0.09 0.10 4411
0.57 0.16 0.71 -1.18 9.89 0.06 -0.10 0.10 4417
0.57 0.17 0.70 -1.20 9.84 0.06 -0.10 0.10 4423
0.60 0.13 0.67 -1.16 9.84 0.06 -0.10 0.09 4429
0.62 0.10 0.66 -1.18 9.83 0.05 -0.10 0.08 4436
0.63 0.06 0.71 -1.18 9.85 0.06 -0.11 0.08 4443
0.65 0.04 0.68 -1.19 9.84 0.05 -0.10 0.07 4449
0.68 0.03 0.67 -1.22 9.85 0.06 -0.11 0.08 4455
0.70 -0.00 0.68 -1.22 9.86 0.06 -0.11 0.07 4461
0.70 0.00 0.68 -1.28 9.86 0.06 -0.10 0.07 4467
0.71 -0.02 0.69 -1.25 9.91 0.07 -0.10 0.07 4473
0.76 -0.03 0.68 -1.25 9.91 0.07 -0.10 0.07 4481
0.81 -0.04 0.67 -1.27 9.87 0.08 -0.10 0.05 4487
0.82 -0.02 0.70 -1.30 9.89 0.08 -0.10 0.05 4493
0.88 -0.05 0.70 -1.31 9.88 0.09 -0.10 0.04 4499
0.87 -0.05 0.71 -1.31 9.90 0.10 -0.10 0.04 4505
0.92 -0.04 0.68 -1.35 9.94 0.11 -0.11 0.03 4511
0.98 -0.03 0.71 -1.33 9.88 0.12 -0.11 0.02 4518
1.00 -0.04 0.70 -1.35 10.05 0.14 -0.11 -0.03 4525
1.08 -0.04 0.70 -1.37 10.11 0.17 -0.13 -0.01 4531
1.12 -0.04 0.82 -1.43 10.22 0.21 -0.15 -0.02 4537
1.16 -0.05 0.83 -1.48 10.32 0.26 -0.17 -0.04 4543
1.22 -0.03 0.84 -1.58 10.46 0.33 -0.21 -0.06 4550
1.27 -0.05 0.81 -1.78 10.57 0.42 -0.24 -0.10 4556
1.34 -0.06 0.75 -1.76 11.15 0.56 -0.30 -0.11 4562
1.43 -0.05 0.68 -1.73 11.35 0.74 -0.36 -0.11 4569
1.48 -0.05 0.78 -1.73 11.76 0.91 -0.39 -0.12 4576
1.50 -0.04 0.77 -1.83 11.70 1.07 -0.38 -0.13 4582
1.58 -0.05 0.51 -1.83 11.94 1.20 -0.35 -0.14 4588
1.58 -0.06 0.54 -2.14 12.24 1.31 -0.29 -0.14 4594
1.63 -0.06 0.78 -2.07 12.00 1.44 -0.26 -0.15 4600
1.69 -0.07 0.70 -2.02 12.34 1.59 -0.29 -0.15 4608
1.71 -0.05 0.73 -2.21 12.66 1.69 -0.31 -0.16 4614
1.73 -0.05 0.70 -2.42 12.71 1.78 -0.39 -0.17 4620
1.72 -0.06 0.51 -2.51 12.30 1.89 -0.38 -0.18 4626
1.75 -0.06 0.50 -2.51 12.51 2.04 -0.39 -0.20 4633
1.75 -0.06 0.67 -2.81 13.23 2.25 -0.38 -0.21 4639
1.74 -0.07 0.43 -2.75 14.33 2.55 -0.39 -0.21 4645
1.71 -0.06 0.48 -2.90 14.78 2.88 -0.37 -0.23 4652
1.61 -0.05 0.36 -3.05 14.77 3.23 -0.35 -0.24 4659
1.50 -0.05 0.16 -3.29 14.68 3.53 -0.32 -0.26 4665
1.44 -0.04 0.94 -3.34 15.05 3.84 -0.31 -0.30 4671
1.28 -0.05 1.46 -3.37 15.80 4.14 -0.36 -0.39 4677
1.11 -0.02 1.67 -3.84 16.58 4.27 -0.46 -0.47 4684
1.01 -0.04 2.16 -3.90 17.35 4.28 -0.56 -0.58 4690
0.87 -0.01 1.77 -4.99 18.38 4.28 -0.67 -0.65 4697
0.68 0.00 1.85 -6.11 20.35 4.28 -0.82 -0.72 4703
0.63 -0.01 1.78 -7.24 23.58 4.28 -0.98 -0.78 4709
0.50 0.00 2.05 -10.06 25.80 4.28 -1.03 -0.80 4716
0.45 -0.01 1.90 -13.10 28.52 4.28 -1.03 -0.78 4722
0.38 -0.03 1.78 -14.05 28.60 4.28 -0.92 -0.74 4728
0.29 -0.00 1.56 -13.29 28.12 4.28 -0.91 -0.74 4736
0.22 -0.01 0.90 -11.87 26.83 4.28 -0.95 -0.72 4742
0.20 -0.01 0.69 -9.19 27.37 4.28 -0.92 -0.63 4748
0.17 -0.01 1.19 -6.99 28.83 4.28 -0.81 -0.57 4754
0.10 0.00 1.66 -3.82 29.60 4.28 -0.85 -0.56 4760
0.11 0.00 3.34 -0.24 30.55 4.28 -0.95 -0.52 4767
0.07 0.01 4.90 4.07 29.93 4.28 -1.08 -0.49 4773
0.05 -0.00 5.87 8.84 28.29 4.28 -1.03 -0.48 4780
0.05 -0.00 5.78 12.97 27.45 4.28 -0.63 -0.52 4786
0.05 -0.00 4.80 14.45 22.16 4.28 0.16 -0.73 4793
0.05 0.01 2.02 11.79 16.06 4.28 0.20 -1.37 4799
0.05 0.00 8.01 7.67 3.53 4.27 -0.17 -1.93 4805
0.04 0.00 3.95 25.20 9.70 1.79 -0.03 -2.24 4811
0.04 0.01 7.58 21.85 27.16 0.26 1.16 -2.22 4817
0.04 0.00 5.61 14.23 25.68 -1.08 1.70 -2.12 4825
0.04 -0.00 2.20 11.79 19.20 -2.17 1.65 -1.99 4831
0.06 -0.01 0.97 12.29 13.74 -3.01 1.42 -1.73 4837
0.04 -0.00 1.81 11.24 10.96 -3.50 1.10 -1.46 4843
0.04 -0.00 1.53 8.72 9.17 -3.70 0.88 -1.24 4849
0.06 -0.00 1.87 6.25 7.75 -3.73 0.69 -1.05 4856
0.05 -0.00 2.24 6.12 6.23 -3.67 0.63 -0.90 4862
0.04 -0.00 2.26 5.70 6.31 -3.61 0.62 -0.72 4869
0.05 0.01 2.37 5.00 6.17 -3.57 0.66 -0.57 4875
0.05 -0.00 2.40 4.38 6.88 -3.59 0.75 -0.44 4881
0.06 -0.01 2.40 4.26 7.69 -3.65 0.88 -0.30 4887
0.05 -0.01 2.33 4.35 8.61 -3.76 1.02 -0.19 4893
0.05 0.00 2.02 4.22 9.52 -3.90 1.08 -0.09 4899
0.04 0.00 1.60 3.75 9.94 -4.05 1.17 -0.01 4907
0.04 -0.00 1.44 3.31 10.55 -4.15 1.25 0.08 4913
0.05 0.00 1.24 2.59 10.84 -4.23 1.33 0.16 4919
0.05 0.00 0.98 1.66 11.24 -4.27 1.39 0.22 4925
0.04 0.00 0.83 0.79 11.50 -4.28 1.44 0.28 4931
0.03 0.01 0.57 0.34 11.90 -4.28 1.49 0.34 4938
0.04 -0.00 0.49 -0.20 12.35 -4.28 1.55 0.39 4944
0.04 -0.00 0.44 -0.66 13.19 -4.28 1.62 0.42 4951
0.04 0.01 0.37 -1.05 13.88 -4.28 1.73 0.42 4957
0.05 0.00 0.20 -1.48 14.47 -4.28 1.86 0.39 4963
0.04 -0.00 -0.04 -1.97 15.09 -4.28 1.97 0.34 4969
0.04 0.00 -0.40 -2.80 15.74 -4.28 2.10 0.28 4976
0.04 -0.00 -0.81 -3.67 16.39 -4.28 2.19 0.20 4982
0.03 0.00 -1.27 -4.63 16.99 -4.28 2.26 0.10 4988
0.04 0.01 -1.81 -5.57 17.64 -4.28 2.29 -0.01 4995
0.04 0.01 -2.15 -6.35 17.67 -4.28 2.30 -0.13 5001
0.03 0.01 -2.40 -7.06 17.69 -4.28 2.28 -0.24 5008
0.04 0.02 -2.44 -7.43 17.61 -4.28 2.24 -0.34 5014
0.03 0.01 -2.58 -7.43 17.66 -4.25 2.17 -0.41 5020
0.03 0.01 -2.60 -7.38 17.77 -4.20 2.07 -0.45 5026
0.05 0.01 -2.53 -7.10 18.11 -4.12 1.93 -0.46 5033
0.03 0.00 -2.43 -6.95 18.79 -4.02 1.77 -0.43 5040
0.04 0.01 -2.17 -6.92 19.32 -3.89 1.66 -0.36 5046
0.04 0.01 -1.91 -7.04 19.88 -3.79 1.56 -0.27 5052
0.03 0.01 -1.63 -7.30 20.69 -3.74 1.49 -0.15 5058
0.04 0.01 -1.47 -7.84 21.15 -3.67 1.40 -0.02 5065
0.04 0.00 -1.32 -8.58 21.43 -3.62 1.33 0.11 5071
0.03 -0.00 -0.63 -9.62 21.82 -3.55 1.25 0.24 5078
0.04 -0.00 -0.96 -10.69 21.90 -3.49 1.16 0.37 5084
0.04 -0.00 -0.52 -12.25 21.91 -3.42 1.04 0.46 5090
0.03 -0.00 0.00 -13.85 21.85 -3.34 0.93 0.52 5097
0.05 -0.00 0.55 -15.58 21.45 -3.26 0.90 0.60 5103
0.04 -0.00 1.15 -17.12 20.24 -3.17 0.98 0.69 5109
0.04 0.00 1.64 -18.42 18.67 -3.05 1.14 0.77 5115
0.04 -0.00 1.65 -19.63 17.21 -2.90 1.39 0.86 5123
0.03 -0.00 1.29 -20.55 15.62 -2.73 1.72 0.97 5129
0.04 0.01 0.34 -20.99 14.31 -2.55 2.05 1.13 5135
0.04 -0.00 -1.30 -21.59 13.00 -2.36 2.37 1.34 5141
0.03 -0.00 -3.75 -21.72 11.37 -2.16 2.66 1.63 5147
0.06 -0.01 -6.05 -22.68 10.62 -1.96 2.87 1.97 5154
0.04 -0.00 -8.31 -24.63 10.21 -1.79 2.66 2.25 5160
0.04 0.00 -10.21 -26.43 9.43 -1.62 1.97 2.42 5167
0.05 0.00 -10.81 -27.08 7.18 -1.49 1.07 2.50 5173
0.04 0.00 -10.87 -27.18 5.50 -1.35 0.25 2.51 5180
0.06 -0.00 -9.58 -27.76 3.66 -1.16 -0.31 2.43 5186
0.05 -0.00 -8.64 -28.20 3.13 -0.85 -0.63 2.28 5192
0.04 0.00 -7.44 -27.90 2.64 -0.55 -0.83 2.03 5198
0.06 0.01 -6.24 -26.78 2.53 -0.16 -0.98 1.67 5206
0.05 -0.00 -4.55 -29.94 0.48 0.22 -1.11 1.27 5212
0.05 -0.00 -3.86 -34.86 22.42 3.13 -1.38 0.75 5218
0.04 0.00 -9.06 -26.19 -9.41 2.89 -1.12 0.49 5224
0.04 -0.00 -5.13 -6.60 -2.57 3.21 -2.17 0.20 5230
0.01 0.44 -5.73 2.41 10.94 3.35 -3.02 0.02 5237
0.00 0.67 1.57 6.09 18.89 3.56 -2.36 0.11 5243
-0.01 0.77 4.93 4.44 14.18 3.42 -1.49 0.32 5250
-0.01 0.77 2.37 -3.07 16.78 3.32 -0.84 0.52 5256
-0.01 0.84 -0.69 -4.29 19.34 3.27 -0.43 0.63 5262
-0.02 0.90 -1.43 -4.90 16.15 3.29 -0.45 0.63 5269
-0.00 0.96 -0.88 -4.47 17.01 3.39 -0.40 0.59 5275
-0.02 1.00 -2.65 -3.37 17.21 3.46 -0.10 0.52 5281
-0.03 1.10 -6.30 -3.24 19.63 3.42 0.07 0.27 5287
-0.03 1.17 -4.91 -3.01 19.72 3.36 0.23 -0.12 5295
-0.03 1.25 -0.29 -2.62 17.43 3.35 0.57 -0.40 5301
-0.02 1.35 1.78 -3.11 18.12 3.32 0.93 -0.50 5307
-0.02 1.34 3.83 -3.33 21.52 3.21 1.04 -0.50 5313
-0.03 1.40 5.28 -4.66 27.08 1.80 -0.22 -0.30 5319
-0.01 1.49 3.26 -2.84 13.30 0.46 -0.78 0.03 5326
-0.02 1.55 0.12 -2.08 11.00 0.22 -0.55 0.14 5332
-0.01 1.54 -0.15 -1.61 10.77 0.17 -0.43 0.11 5339
0.00 1.53 1.77 -0.41 10.51 0.07 -0.22 0.07 5345
0.00 1.49 0.85 0.15 11.73 0.04 -0.15 0.10 5352
-0.01 1.49 0.62 -1.19 10.26 0.06 -0.15 0.11 5358
0.02 1.49 0.93 -1.08 10.12 0.07 -0.15 0.10 5364
0.02 1.46 0.86 -1.12 9.99 0.07 -0.14 0.11 5370
0.02 1.46 0.88 -1.03 9.99 0.07 -0.14 0.11 5377
0.04 1.47 0.91 -1.02 9.98 0.07 -0.14 0.12 5383
0.05 1.44 0.89 -1.03 9.96 0.06 -0.13 0.12 5390
0.06 1.42 0.84 -1.04 9.91 0.05 -0.13 0.13 5396
0.06 1.39 0.88 -0.97 9.86 0.05 -0.13 0.14 5402
0.06 1.35 0.87 -0.97 9.86 0.05 -0.14 0.13 5408
0.08 1.32 0.79 -0.98 9.82 0.06 -0.14 0.13 5414
0.08 1.27 0.84 -0.97 9.83 0.06 -0.15 0.14 5421
0.08 1.25 0.77 -0.98 9.86 0.06 -0.16 0.14 5428
0.11 1.20 0.75 -0.94 9.95 0.05 -0.15 0.15 5434
0.14 1.18 0.74 -0.93 9.89 0.05 -0.14 0.16 5440
0.15 1.13 0.77 -0.96 9.87 0.05 -0.12 0.16 5446
0.14 1.10 0.69 -1.01 9.87 0.05 -0.11 0.16 5452
0.17 1.03 0.72 -1.00 9.88 0.05 -0.09 0.16 5458
0.19 0.99 0.71 -0.97 9.88 0.04 -0.07 0.16 5466
0.20 0.92 0.72 -0.98 9.86 0.04 -0.05 0.16 5472
0.21 0.87 0.68 -0.97 9.86 0.04 -0.05 0.17 5478
0.21 0.80 0.73 -0.97 9.85 0.04 -0.04 0.16 5484
0.21 0.77 0.74 -1.00 9.84 0.04 -0.04 0.16 5490
0.23 0.72 0.76 -0.99 9.85 0.04 -0.04 0.16 5496
0.25 0.68 0.74 -0.99 9.87 0.04 -0.05 0.16 5502
0.25 0.62 0.78 -0.98 9.90 0.03 -0.05 0.15 5510
0.22 0.56 0.78 -0.99 9.83 0.04 -0.05 0.16 5516
0.24 0.54 0.78 -1.00 9.84 0.04 -0.06 0.16 5522
0.24 0.51 0.75 -1.01 9.82 0.04 -0.06 0.15 5528
0.22 0.53 0.77 -1.03 9.82 0.03 -0.07 0.15 5534
0.23 0.52 0.73 -1.04 9.81 0.03 -0.07 0.14 5540
0.26 0.48 0.72 -1.04 9.84 0.03 -0.07 0.14 5548
0.26 0.45 0.70 -1.05 9.83 0.03 -0.06 0.15 5554
0.28 0.46 0.67 -1.08 9.87 0.03 -0.05 0.15 5560
0.29 0.41 0.68 -1.05 9.89 0.03 -0.04 0.15 5566
0.33 0.36 0.66 -1.04 9.85 0.03 -0.03 0.15 5572
0.35 0.29 0.71 -1.05 9.88 0.03 -0.02 0.15 5578
0.35 0.33 0.70 -1.03 9.84 0.04 -0.02 0.15 5584
0.38 0.31 0.76 -1.06 9.83 0.03 -0.01 0.15 5592
0.38 0.24 0.76 -1.06 9.83 0.03 -0.01 0.16 5598
0.36 0.22 0.73 -1.07 9.87 0.03 -0.01 0.15 5604
0.39 0.17 0.76 -1.07 9.83 0.04 -0.01 0.14 5610
0.39 0.14 0.73 -1.09 9.83 0.04 -0.01 0.14 5616
0.39 0.13 0.74 -1.07 9.85 0.04 -0.01 0.14 5622
0.41 0.10 0.72 -1.03 9.85 0.04 -0.02 0.14 5629
0.42 0.06 0.77 -1.10 9.87 0.04 -0.02 0.13 5636
0.43 0.04 0.79 -1.06 9.87 0.04 -0.02 0.14 5642
0.44 0.01 0.76 -1.08 9.84 0.04 -0.02 0.13 5648
0.44 -0.01 0.76 -1.09 9.87 0.04 -0.02 0.13 5654
0.46 -0.02 0.73 -1.13 9.81 0.04 -0.03 0.14 5660
0.48 -0.02 0.77 -1.13 9.84 0.04 -0.02 0.12 5666
0.49 -0.02 0.78 -1.10 9.84 0.04 -0.02 0.13 5673
0.48 -0.01 0.80 -1.14 9.87 0.04 -0.03 0.13 5680
0.50 -0.02 0.75 -1.10 9.88 0.05 -0.03 0.13 5686
0.52 -0.01 0.81 -1.16 9.91 0.05 -0.03 0.13 5692
0.53 -0.03 0.80 -1.14 9.88 0.06 -0.04 0.11 5698
0.54 -0.03 0.83 -1.18 9.98 0.08 -0.04 0.12 5704
0.65 -0.02 0.89 -1.19 9.98 0.10 -0.05 0.10 5710
0.68 -0.03 0.93 -1.19 10.14 0.13 -0.06 0.08 5718
0.71 -0.04 0.90 -1.83 10.20 0.17 -0.09 0.06 5724
0.79 -0.03 1.01 -1.24 10.25 0.23 -0.12 0.03 5730
0.87 -0.02 1.05 -1.34 10.25 0.30 -0.16 -0.00 5736
0.86 -0.03 1.03 -1.42 10.49 0.40 -0.21 -0.03 5743
0.91 -0.04 1.02 -1.48 10.63 0.54 -0.27 -0.06 5749
1.00 -0.04 1.16 -1.64 11.03 0.73 -0.34 -0.10 5755
1.03 -0.05 0.88 -1.59 11.46 0.92 -0.38 -0.10 5762
1.07 -0.03 0.80 -1.94 11.94 1.06 -0.32 -0.12 5768
1.14 -0.05 1.02 -1.75 12.13 1.19 -0.25 -0.14 5775
1.19 -0.02 1.17 -2.72 11.77 1.29 -0.20 -0.16 5781
1.24 -0.03 0.98 -2.02 12.08 1.40 -0.20 -0.19 5787
1.28 -0.05 0.84 -2.05 12.21 1.51 -0.23 -0.19 5793
1.34 -0.03 1.01 -2.28 12.12 1.64 -0.27 -0.20 5800
1.38 -0.06 0.86 -2.24 12.31 1.80 -0.32 -0.21 5807
1.37 -0.06 0.70 -2.16 12.27 1.88 -0.37 -0.18 5813
1.38 -0.06 0.72 -2.34 12.31 1.97 -0.38 -0.17 5819
1.40 -0.07 0.75 -2.60 12.32 2.10 -0.32 -0.18 5825
1.36 -0.05 0.91 -2.82 13.32 2.29 -0.29 -0.20 5832
1.33 -0.05 0.75 -2.79 14.29 2.59 -0.20 -0.22 5838
1.27 -0.04 0.76 -2.95 14.58 2.95 -0.19 -0.25 5844
1.25 -0.04 0.72 -3.01 14.55 3.31 -0.13 -0.26 5851
1.17 -0.04 0.72 -3.02 14.09 3.62 -0.09 -0.30 5858
1.04 -0.02 1.08 -7.71 20.31 3.98 -0.15 -0.37 5864
0.97 -0.04 1.91 -3.29 16.31 4.21 -0.18 -0.41 5870
0.87 -0.03 2.45 -4.89 16.80 4.28 -0.27 -0.50 5876
0.69 -0.01 2.43 -4.83 17.78 4.28 -0.35 -0.61 5883
0.62 -0.03 2.60 -6.18 19.16 4.28 -0.44 -0.70 5890
0.49 -0.01 2.31 -7.16 21.88 4.28 -0.56 -0.75 5896
0.43 -0.00 2.82 -9.09 23.88 4.28 -0.60 -0.77 5902
0.41 -0.01 2.44 -11.29 26.08 4.28 -0.59 -0.77 5909
0.30 -0.00 2.40 -13.18 27.21 4.28 -0.47 -0.71 5915
0.25 -0.01 1.96 -12.72 27.24 4.28 -0.40 -0.69 5921
0.21 -0.00 0.91 -12.74 26.47 4.28 -0.42 -0.71 5927
0.20 -0.01 -0.01 -10.83 26.31 4.28 -0.54 -0.66 5935
0.13 -0.00 0.56 -8.20 28.60 4.28 -0.65 -0.60 5941
0.15 0.00 1.27 -6.45 29.81 4.28 -0.73 -0.57 5947
0.10 -0.00 2.77 -3.24 30.77 4.28 -0.82 -0.56 5953
0.08 0.01 4.48 0.33 30.52 4.28 -0.97 -0.55 5959
0.06 0.02 5.59 5.10 30.44 4.28 -1.09 -0.55 5966
0.05 0.01 6.17 9.77 28.32 4.28 -0.91 -0.55 5972
0.04 0.02 7.41 8.33 26.71 4.28 -0.38 -0.55 5979
0.06 0.02 3.83 8.04 5.22 4.28 0.77 -0.79 5985
0.06 0.01 4.69 13.04 3.54 4.28 0.57 -1.35 5991
0.04 0.00 7.34 13.46 -3.83 4.28 -0.29 -2.04 5998
0.05 -0.01 2.66 23.41 13.92 2.19 0.04 -2.31 6004
0.05 -0.01 8.97 18.00 28.18 0.48 1.13 -2.22 6010
0.05 -0.00 6.00 12.67 24.99 -0.76 1.65 -2.17 6017
0.05 -0.01 1.98 12.07 18.22 -1.86 1.53 -2.07 6024
0.05 -0.00 0.34 12.68 13.63 -2.82 1.06 -1.83 6030
0.05 0.00 0.64 11.74 11.39 -3.42 0.60 -1.58 6036
0.05 -0.00 1.02 8.36 10.22 -3.70 0.19 -1.39 6042
0.05 -0.00 1.77 5.45 9.05 -3.78 -0.10 -1.24 6048
0.05 -0.00 2.19 4.25 7.67 -3.74 -0.27 -1.09 6054
0.05 -0.01 2.43 3.67 6.43 -3.65 -0.38 -0.95 6061
0.04 -0.00 2.97 3.29 5.57 -3.58 -0.45 -0.86 6068
0.03 -0.00 3.18 2.91 6.05 -3.53 -0.41 -0.80 6074
0.05 0.01 3.53 2.57 6.82 -3.52 -0.32 -0.75 6080
0.05 -0.00 3.86 2.29 7.84 -3.56 -0.12 -0.72 6086
0.06 -0.01 4.02 2.25 8.84 -3.68 0.12 -0.69 6092
0.05 0.00 4.21 2.40 10.09 -3.87 0.41 -0.66 6098
0.06 -0.00 4.18 2.39 11.16 -4.10 0.72 -0.64 6105
0.05 -0.00 3.84 2.14 11.93 -4.25 1.05 -0.60 6112
0.04 -0.00 3.64 1.71 12.26 -4.28 1.34 -0.54 6118
0.06 -0.01 2.77 1.46 12.66 -4.28 1.56 -0.48 6124
0.04 -0.00 1.84 0.06 13.05 -4.28 1.72 -0.40 6130
0.03 -0.00 2.04 -1.26 13.20 -4.28 1.80 -0.29 6136
0.04 0.01 1.72 -2.24 13.30 -4.28 1.85 -0.19 6144
0.05 0.00 1.47 -2.88 13.49 -4.28 1.86 -0.04 6150
0.04 -0.00 1.25 -3.42 12.91 -4.28 1.84 0.03 6156
0.05 0.00 0.91 -3.90 13.37 -4.28 1.80 0.12 6162
0.05 0.00 0.71 -4.11 13.62 -4.28 1.78 0.21 6168
0.04 0.00 0.70 -4.49 14.19 -4.28 1.79 0.27 6175
0.06 -0.00 0.90 -4.76 15.14 -4.28 1.84 0.29 6181
0.05 -0.01 0.79 -5.28 16.39 -4.28 1.94 0.29 6188
0.04 0.00 0.67 -5.74 17.56 -4.28 2.06 0.26 6194
0.07 -0.00 0.59 -5.98 18.23 -4.28 2.20 0.23 6200
0.05 -0.00 0.30 -6.14 18.64 -4.28 2.33 0.22 6206
0.05 -0.00 0.05 -6.40 18.99 -4.28 2.42 0.23 6213
0.07 -0.00 -0.14 -6.81 19.45 -4.28 2.50 0.27 6219
0.05 -0.01 -0.46 -7.18 19.64 -4.27 2.55 0.35 6225
0.05 -0.00 -0.75 -7.54 19.68 -4.25 2.54 0.46 6232
0.06 -0.00 -1.24 -8.01 19.58 -4.19 2.49 0.56 6238
0.05 -0.01 -1.47 -8.34 19.48 -4.08 2.38 0.70 6245
0.04 0.00 -1.75 -8.57 19.63 -3.90 2.17 0.84 6251
0.07 0.01 -2.03 -9.10 19.82 -3.69 1.92 0.97 6257
0.05 0.01 -2.09 -9.79 19.88 -3.49 1.63 1.08 6263
0.05 0.01 -1.94 -10.55 19.64 -3.28 1.31 1.14 6269
0.06 -0.01 -1.62 -11.29 19.15 -3.07 1.00 1.18 6277
0.05 0.01 -1.13 -12.07 18.68 -2.84 0.73 1.20 6283
0.06 0.01 -0.62 -13.00 18.70 -2.60 0.48 1.18 6289
0.05 0.00 -0.31 -14.05 18.90 -2.35 0.28 1.15 6295
0.06 0.00 -0.12 -15.09 19.41 -2.11 0.12 1.12 6302
0.06 0.01 -0.13 -16.04 19.87 -1.95 -0.00 1.09 6308
0.04 0.01 0.04 -17.07 19.98 -1.89 -0.08 1.06 6315
0.05 0.01 0.50 -17.89 19.52 -1.92 -0.09 1.03 6321
0.05 0.00 1.07 -18.41 18.10 -2.04 0.05 1.01 6328
0.05 0.00 1.39 -18.92 15.80 -2.17 0.46 1.06 6334
0.06 -0.00 0.89 -19.63 13.09 -2.40 1.13 1.20 6340
0.05 0.00 -0.34 -20.17 10.77 -2.51 1.96 1.43 6346
0.07 0.01 -1.93 -22.11 9.80 -2.56 2.71 1.73 6353
0.05 -0.01 -3.79 -24.59 8.60 -2.52 3.01 1.97 6360
0.05 -0.00 -5.94 -27.29 7.78 -2.37 2.79 2.12 6366
0.07 -0.00 -8.19 -28.84 5.63 -2.14 2.32 2.21 6372
0.05 -0.00 -8.45 -29.82 3.15 -1.85 1.88 2.26 6378
0.05 -0.00 -9.61 -29.27 1.48 -1.51 1.34 2.26 6385
0.06 -0.00 -8.47 -28.43 1.16 -1.10 0.81 2.10 6391
0.05 -0.01 -8.54 -28.16 1.01 -0.62 0.29 1.86 6397
0.05 -0.00 -8.39 -41.73 10.23 0.02 -0.41 1.51 6404
0.06 -0.01 -6.19 -33.17 1.42 2.44 -0.77 1.06 6410
0.05 -0.00 -9.25 -30.11 -11.86 2.81 -1.30 0.60 6417
0.06 -0.00 -8.30 -27.42 -0.38 3.21 -2.75 0.25 6423
0.05 0.31 -5.41 0.60 2.27 3.61 -3.42 -0.01 6429
0.00 0.59 0.63 -0.70 16.47 3.99 -2.98 0.07 6435
-0.00 0.67 5.48 4.25 22.13 3.92 -1.91 0.41 6441
-0.01 0.70 4.49 -0.67 19.76 3.51 -0.77 0.79 6449
-0.02 0.77 0.10 -4.16 22.20 3.12 -0.20 0.97 6455
-0.01 0.89 -4.32 -5.00 19.89 2.91 -0.12 0.94 6461
-0.01 0.88 -4.70 -4.42 16.50 2.87 -0.37 0.73 6467
-0.01 0.94 -4.57 -3.18 16.34 3.00 -0.38 0.48 6474
-0.00 1.02 -6.21 -2.66 18.48 3.01 -0.13 0.19 6480
-0.02 1.07 -6.07 -2.57 18.79 2.86 0.03 -0.18 6487
-0.02 1.11 -1.06 -2.23 16.10 2.74 0.30 -0.49 6493
-0.02 1.15 2.56 -2.11 14.01 2.76 0.59 -0.56 6500
-0.03 1.19 4.16 -2.50 15.23 2.87 0.79 -0.49 6506
-0.01 1.21 4.62 -1.79 18.48 2.91 0.81 -0.42 6512
-0.02 1.23 4.75 -3.32 24.55 1.93 -0.15 -0.19 6518
-0.02 1.28 2.17 -3.58 12.40 0.45 -0.76 0.09 6524
-0.01 1.36 0.06 -1.16 11.34 0.19 -0.54 0.13 6532
-0.02 1.37 0.04 -1.70 10.65 0.12 -0.33 0.09 6538
0.02 1.37 0.35 -0.51 9.81 0.05 -0.16 0.05 6544
0.03 1.35 0.75 -2.63 10.07 0.02 -0.10 0.10 6550
0.05 1.34 1.12 -1.18 10.08 0.06 -0.14 0.10 6556
0.08 1.34 0.82 -1.08 10.00 0.10 -0.17 0.10 6563
0.10 1.33 0.78 -1.11 9.89 0.10 -0.16 0.10 6569
0.12 1.31 0.80 -1.01 9.95 0.10 -0.15 0.11 6576
0.13 1.30 0.78 -1.02 9.94 0.08 -0.12 0.13 6582
0.16 1.25 0.78 -0.98 9.87 0.07 -0.12 0.14 6588
0.15 1.22 0.83 -0.99 9.94 0.07 -0.13 0.16 6594
0.15 1.16 0.72 -1.00 9.91 0.06 -0.14 0.16 6601
0.21 1.13 0.69 -0.98 9.83 0.05 -0.12 0.15 6607
0.23 1.07 0.69 -0.94 9.88 0.05 -0.11 0.16 6614
0.24 1.05 0.76 -0.92 9.90 0.06 -0.10 0.16 6620
0.27 1.01 0.75 -0.96 10.00 0.06 -0.10 0.16 6626
0.25 0.93 0.72 -0.98 9.91 0.06 -0.11 0.17 6632
0.28 0.88 0.73 -0.94 9.91 0.06 -0.11 0.17 6639
0.33 0.85 0.68 -0.98 9.95 0.10 -0.11 0.18 6645
0.37 0.75 0.73 -0.97 9.95 0.07 -0.11 0.19 6651
0.38 0.67 0.73 -0.96 9.89 0.06 -0.07 0.17 6658
0.40 0.63 0.70 -1.01 9.88 0.06 -0.10 0.17 6664
0.43 0.55 0.70 -1.03 9.89 0.06 -0.10 0.18 6670
0.45 0.48 0.71 -1.02 9.91 0.07 -0.10 0.17 6677
0.45 0.51 0.74 -1.06 9.90 0.07 -0.10 0.15 6683
0.50 0.47 0.74 -1.04 9.91 0.07 -0.10 0.15 6689
0.53 0.40 0.73 -1.03 9.94 0.08 -0.11 0.14 6695
0.52 0.29 0.69 -1.10 9.90 0.09 -0.11 0.14 6702
0.57 0.22 0.70 -1.14 9.96 0.09 -0.12 0.13 6708
0.58 0.15 0.72 -1.14 9.95 0.10 -0.12 0.12 6715
0.55 0.08 0.69 -1.18 9.90 0.10 -0.13 0.10 6721
0.59 0.03 0.73 -1.18 9.89 0.10 -0.13 0.09 6727
0.58 -0.03 0.65 -1.25 9.93 0.11 -0.14 0.08 6733
0.62 -0.02 0.74 -1.22 9.96 0.12 -0.14 0.07 6739
0.67 -0.01 0.72 -1.25 9.93 0.12 -0.15 0.06 6746
0.72 -0.03 0.73 -1.32 9.95 0.13 -0.15 0.05 6753
0.74 -0.04 0.78 -1.32 9.90 0.14 -0.15 0.04 6759
0.73 -0.03 0.75 -1.34 9.97 0.15 -0.15 0.02 6765
0.77 -0.04 0.75 -1.34 10.00 0.16 -0.16 0.01 6771
0.78 -0.04 0.79 -1.37 9.99 0.17 -0.16 0.00 6777
0.80 -0.04 0.73 -1.45 9.93 0.18 -0.16 -0.00 6784
0.87 -0.03 0.77 -1.43 9.81 0.18 -0.16 -0.01 6791
0.88 -0.04 0.74 -1.49 9.92 0.19 -0.16 -0.02 6797
0.87 -0.03 0.77 -1.48 9.83 0.19 -0.16 -0.02 6803
0.91 -0.03 0.73 -1.46 9.89 0.19 -0.14 -0.03 6809
0.93 -0.03 0.77 -1.50 9.90 0.19 -0.14 -0.03 6815
0.93 -0.04 0.73 -1.53 9.86 0.19 -0.13 -0.04 6821
0.95 -0.03 0.78 -1.54 9.89 0.19 -0.13 -0.05 6829
0.97 -0.03 0.76 -1.59 9.86 0.19 -0.13 -0.06 6835
0.97 -0.02 0.75 -1.60 9.83 0.19 -0.14 -0.06 6841
0.99 -0.01 0.76 -1.56 9.83 0.19 -0.14 -0.07 6847
1.05 -0.02 0.60 -1.61 9.83 0.19 -0.12 -0.07 6853
1.07 -0.03 0.64 -1.69 9.86 0.18 -0.11 -0.07 6859
1.09 -0.02 0.67 -1.68 10.00 0.18 -0.10 -0.07 6866
1.12 -0.03 0.65 -1.67 9.96 0.19 -0.11 -0.07 6873
1.13 -0.04 0.65 -1.68 10.03 0.21 -0.10 -0.06 6879
1.17 -0.02 0.62 -1.71 10.09 0.24 -0.11 -0.06 6885
1.20 -0.04 0.65 -1.74 10.26 0.27 -0.11 -0.06 6891
1.23 -0.05 0.61 -1.76 10.53 0.32 -0.12 -0.06 6898
1.31 -0.03 0.66 -1.84 10.62 0.39 -0.14 -0.06 6904
1.39 -0.04 0.70 -1.93 10.87 0.48 -0.16 -0.06 6910
1.44 -0.06 0.80 -1.96 10.85 0.59 -0.19 -0.07 6917
1.46 -0.04 0.75 -2.00 11.03 0.65 -0.20 -0.08 6923
1.49 -0.06 0.67 -1.97 11.14 0.74 -0.21 -0.09 6930
1.57 -0.05 0.85 -2.03 11.19 0.84 -0.21 -0.10 6936
1.59 -0.04 0.64 -2.02 11.31 0.92 -0.21 -0.11 6942
1.63 -0.04 0.04 -2.19 11.44 1.03 -0.22 -0.11 6948
1.65 -0.04 0.69 -2.20 11.66 1.15 -0.25 -0.11 6956
1.72 -0.06 0.16 -2.44 12.08 1.26 -0.28 -0.11 6962
1.74 -0.07 0.66 -2.41 11.82 1.37 -0.33 -0.12 6968
1.78 -0.07 0.68 -2.37 11.72 1.47 -0.35 -0.12 6974
1.79 -0.06 1.73 -1.67 12.97 1.59 -0.37 -0.13 6981
1.79 -0.04 0.58 -2.79 12.41 1.75 -0.36 -0.14 6987
1.82 -0.05 0.46 -2.72 13.08 1.97 -0.38 -0.15 6993
1.80 -0.05 0.54 -3.05 13.58 2.22 -0.38 -0.20 7000
1.78 -0.04 0.56 -3.17 12.98 2.50 -0.39 -0.19 7006
1.74 -0.07 0.70 -3.21 13.40 2.75 -0.39 -0.21 7013
1.65 -0.05 0.54 -3.33 13.46 2.99 -0.37 -0.24 7019
1.60 -0.04 0.33 -3.42 13.53 3.23 -0.34 -0.27 7025
1.52 -0.06 0.46 -3.76 14.37 3.50 -0.30 -0.29 7031
1.37 -0.02 -1.26 4.45 14.48 3.87 -0.47 -0.33 7038
1.24 -0.03 2.00 -4.45 16.08 4.17 -0.45 -0.42 7045
1.06 -0.04 1.75 -4.96 16.60 4.28 -0.59 -0.57 7051
0.92 -0.04 -0.29 -4.11 19.96 4.28 -0.72 -0.72 7057
0.79 -0.04 1.98 -6.56 19.64 4.28 -0.88 -0.82 7064
0.69 -0.02 2.02 -7.59 21.19 4.28 -1.05 -0.89 7070
0.62 -0.03 1.99 -9.77 23.44 4.28 -1.16 -0.96 7076
0.45 -0.02 2.92 -12.46 26.63 4.28 -1.12 -0.96 7083
0.44 -0.01 2.56 -14.69 28.09 4.28 -0.98 -0.95 7090
0.38 -0.02 2.26 -14.61 27.17 4.28 -0.80 -0.93 7096
0.30 -0.00 1.56 -12.74 26.17 4.28 -0.82 -0.96 7102
0.26 -0.01 0.61 -10.47 25.27 4.28 -0.77 -0.89 7109
0.16 -0.01 -0.17 -7.64 28.86 4.28 -0.68 -0.78 7115
0.14 -0.00 0.18 -5.60 30.60 4.28 -0.76 -0.73 7121
0.14 -0.00 0.96 -2.50 30.52 4.28 -1.08 -0.74 7128
0.09 0.01 3.00 0.90 29.72 4.28 -1.44 -0.69 7134
0.09 0.01 4.94 5.70 28.77 4.28 -1.73 -0.64 7141
0.05 0.00 6.13 10.15 26.85 4.28 -1.71 -0.61 7147
0.06 -0.01 5.51 12.78 23.81 4.28 -1.31 -0.66 7153
0.05 0.00 8.29 19.77 21.17 4.28 -0.58 -0.95 7159
0.05 0.02 3.59 9.38 5.59 4.28 -0.71 -1.55 7166
0.05 -0.01 8.27 10.02 9.77 4.25 -0.48 -1.92 7173
0.05 -0.00 7.22 26.86 9.78 1.62 -0.02 -2.25 7179
0.04 -0.00 7.97 23.55 24.98 -0.15 1.13 -2.32 7185
0.05 -0.01 6.40 14.01 23.84 -1.50 1.78 -2.26 7191
0.04 -0.00 3.13 11.29 18.18 -2.56 1.93 -2.09 7197
0.05 0.00 1.90 11.92 13.47 -3.24 1.86 -1.79 7204
0.04 0.00 1.63 10.93 10.52 -3.62 1.66 -1.45 7211
0.04 -0.00 1.81 8.66 9.14 -3.77 1.41 -1.14 7217
0.05 0.00 1.64 6.99 7.62 -3.80 1.18 -0.86 7223
0.04 -0.00 1.51 6.38 6.64 -3.77 1.01 -0.59 7229
0.05 -0.01 1.50 5.77 6.30 -3.71 0.89 -0.33 7236
0.05 0.00 1.51 5.03 6.18 -3.73 0.82 -0.12 7242
0.07 -0.00 1.54 4.49 6.77 -3.75 0.83 0.06 7248
0.05 -0.00 1.63 4.22 7.52 -3.80 0.83 0.22 7255
0.04 0.00 1.48 3.78 8.12 -3.87 0.90 0.32 7261
0.04 0.00 1.22 3.32 8.73 -3.95 0.98 0.41 7267
0.04 0.00 1.04 3.01 9.50 -4.04 1.08 0.48 7273
0.04 -0.00 0.74 2.66 10.16 -4.12 1.19 0.53 7280
0.04 0.00 0.42 2.10 10.99 -4.19 1.30 0.55 7286
0.04 -0.00 -0.01 1.46 11.70 -4.24 1.37 0.56 7292
0.04 -0.00 -0.23 0.93 12.04 -4.27 1.41 0.57 7299
0.03 -0.00 -0.53 0.46 12.50 -4.28 1.44 0.55 7305
0.05 0.00 -0.63 -0.53 13.03 -4.28 1.46 0.52 7311
0.04 -0.00 -0.61 -0.46 13.13 -4.28 1.49 0.48 7318
0.03 0.00 -0.70 -0.91 13.55 -4.28 1.55 0.42 7324
0.05 0.00 -0.66 -1.54 14.63 -4.28 1.62 0.34 7330
0.03 -0.00 -0.68 -2.33 14.50 -4.28 1.72 0.24 7336
0.03 -0.00 -0.69 -3.10 14.89 -4.28 1.82 0.13 7343
0.04 -0.00 -0.87 -3.98 15.46 -4.28 1.90 0.00 7349
0.03 -0.00 -0.94 -4.69 15.76 -4.28 1.98 -0.12 7356
0.03 -0.00 -1.07 -5.23 16.04 -4.28 2.04 -0.21 7362
0.04 0.00 -1.10 -5.70 16.17 -4.28 2.06 -0.29 7368
0.04 -0.00 -1.13 -5.90 16.56 -4.27 2.05 -0.33 7374
0.03 -0.00 -1.02 -6.17 17.12 -4.24 2.05 -0.33 7380
0.04 0.01 -1.06 -6.47 17.63 -4.18 2.04 -0.28 7388
0.04 0.00 -1.16 -6.79 18.18 -4.09 2.02 -0.25 7394
0.04 0.00 -1.25 -7.22 18.89 -3.96 1.99 -0.18 7400
0.06 0.01 -1.40 -7.69 19.51 -3.81 1.90 -0.10 7406
0.04 -0.00 -1.50 -7.94 20.31 -3.70 1.79 -0.01 7412
0.04 0.01 -1.36 -8.07 21.07 -3.63 1.65 0.08 7419
0.06 0.01 -1.13 -8.34 21.71 -3.62 1.50 0.17 7426
0.05 -0.00 -0.80 -8.81 21.75 -3.64 1.36 0.26 7432
0.04 0.01 -0.40 -9.48 21.73 -3.66 1.23 0.36 7438
0.05 0.00 -0.04 -10.21 21.42 -3.65 1.12 0.46 7444
0.05 0.00 0.41 -11.33 20.66 -3.60 1.02 0.56 7451
0.05 0.02 0.77 -12.42 19.91 -3.45 0.97 0.65 7457
0.05 0.00 1.13 -13.60 19.01 -3.26 0.93 0.73 7463
0.04 0.00 1.46 -14.72 18.11 -2.97 0.93 0.80 7470
0.06 -0.01 1.48 -15.74 17.46 -2.74 0.93 0.86 7477
0.03 -0.00 1.24 -16.63 17.10 -2.44 0.93 0.93 7483
0.03 0.01 0.92 -17.46 16.93 -2.17 0.90 1.00 7489
0.03 -0.00 0.71 -18.15 16.93 -1.98 0.89 1.08 7495
0.03 -0.00 0.44 -18.65 16.37 -1.89 0.97 1.19 7502
0.04 -0.00 0.07 -18.88 15.54 -1.93 1.21 1.36 7508
0.04 -0.00 -0.83 -19.12 13.77 -2.07 1.65 1.59 7515
0.03 -0.00 -2.84 -19.26 11.88 -2.21 2.18 1.88 7521
0.05 -0.01 -4.57 -20.67 10.58 -2.29 2.62 2.24 7527
0.04 -0.00 -6.40 -23.58 9.00 -2.27 2.63 2.42 7534
0.04 -0.00 -8.96 -26.73 7.93 -2.14 2.16 2.55 7540
0.05 -0.00 -10.26 -28.62 4.79 -1.86 1.47 2.60 7546
0.04 -0.00 -9.45 -29.32 1.72 -1.49 0.78 2.56 7553
0.04 -0.00 -7.67 -29.56 0.11 -1.03 0.18 2.39 7559
0.05 -0.00 -7.48 -29.51 0.04 -0.51 -0.25 2.07 7565
0.04 -0.00 -5.83 -49.78 3.49 0.43 -0.72 1.63 7572
0.03 -0.00 -5.49 -29.81 -8.77 2.20 -0.33 1.07 7578
0.05 -0.00 -9.76 -33.69 -3.79 2.60 -0.61 0.53 7584
0.04 -0.00 -12.73 -40.19 1.94 3.06 -1.67 0.20 7590
0.02 0.14 -10.45 -9.56 -1.41 3.45 -2.61 -0.07 7597
0.02 0.57 -5.95 -1.81 8.21 3.82 -2.91 -0.28 7604
-0.00 0.68 0.97 0.60 25.28 4.09 -2.32 -0.19 7610
-0.01 0.73 3.82 2.43 21.70 3.71 -1.26 0.01 7616
0.01 0.77 0.42 -3.77 23.29 3.31 -0.63 0.14 7622
-0.00 0.87 -3.14 -5.84 23.66 3.09 -0.45 0.10 7628
-0.01 0.99 -2.16 -4.85 17.55 3.06 -0.49 -0.04 7635
-0.01 1.04 0.58 -4.52 18.59 3.33 -0.43 -0.13 7642
-0.03 1.10 0.03 -3.67 20.09 3.45 0.02 -0.14 7648
-0.01 1.17 -0.77 -3.19 20.17 3.28 0.33 -0.27 7654
-0.01 1.22 1.33 -2.20 17.51 2.99 0.63 -0.37 7661
-0.02 1.26 2.68 -2.76 16.75 2.88 0.97 -0.37 7667
-0.01 1.34 2.86 -2.40 19.18 2.81 1.04 -0.38 7673
-0.02 1.35 3.43 -3.31 19.93 1.13 -0.48 -0.17 7680
-0.02 1.42 2.13 -2.46 12.45 0.35 -0.55 0.09 7687
-0.02 1.46 0.38 -1.94 10.84 0.16 -0.37 0.15 7693
-0.01 1.44 0.51 -1.52 10.42 0.10 -0.21 0.10 7699
0.02 1.44 1.37 -1.25 9.87 0.00 -0.07 0.10 7705
0.00 1.41 0.29 -0.79 10.02 -0.00 -0.04 0.10 7711
-0.00 1.41 1.19 -1.18 9.90 0.03 -0.06 0.12 7718
0.05 1.41 0.99 -1.26 10.10 0.03 -0.07 0.11 7725
0.02 1.40 0.99 -1.25 9.93 0.04 -0.08 0.10 7731
0.03 1.39 0.96 -1.07 9.98 0.05 -0.08 0.12 7737
0.06 1.39 1.00 -1.05 9.90 0.05 -0.07 0.12 7743
0.07 1.35 1.01 -1.04 9.83 0.06 -0.07 0.12 7749
0.07 1.31 1.02 -1.06 9.85 0.06 -0.08 0.12 7755
0.12 1.28 1.00 -1.04 9.84 0.07 -0.11 0.12 7762
0.13 1.23 0.96 -1.05 9.83 0.07 -0.12 0.13 7769
0.13 1.17 0.96 -1.02 9.92 0.07 -0.13 0.15 7775
0.13 1.13 0.97 -1.03 9.84 0.07 -0.13 0.15 7781
0.16 1.10 0.92 -1.01 9.90 0.07 -0.14 0.15 7787
0.15 1.04 0.87 -1.03 9.86 0.06 -0.14 0.14 7793
0.18 1.04 0.83 -0.98 9.86 0.06 -0.13 0.16 7800
0.20 0.97 0.78 -1.04 9.90 0.05 -0.10 0.15 7806
0.20 0.91 0.83 -1.04 9.88 0.05 -0.08 0.16 7813
0.22 0.88 0.83 -1.02 9.87 0.05 -0.06 0.16 7819
0.21 0.86 0.89 -0.97 9.85 0.05 -0.05 0.17 7825
0.24 0.77 0.87 -0.98 9.84 0.05 -0.05 0.16 7831
0.28 0.71 0.88 -1.01 9.88 0.05 -0.05 0.18 7838
0.31 0.66 0.87 -1.03 9.85 0.05 -0.05 0.15 7844
0.33 0.59 0.92 -1.05 9.86 0.06 -0.05 0.17 7851
0.33 0.52 0.92 -1.06 9.83 0.06 -0.06 0.15 7857
0.37 0.47 0.95 -1.07 9.82 0.06 -0.07 0.15 7863
0.39 0.39 0.91 -1.06 9.84 0.06 -0.08 0.15 7869
0.41 0.35 0.95 -1.10 9.88 0.07 -0.08 0.13 7875
0.42 0.34 0.89 -1.10 9.85 0.07 -0.08 0.13 7882
0.43 0.25 0.86 -1.08 9.89 0.08 -0.09 0.13 7888
0.46 0.18 0.87 -1.14 9.91 0.07 -0.08 0.13 7895
0.47 0.11 0.85 -1.13 9.86 0.08 -0.09 0.13 7901
0.50 0.08 0.86 -1.15 9.85 0.08 -0.08 0.12 7907
0.52 0.04 0.88 -1.16 9.85 0.08 -0.08 0.12 7913
0.53 -0.02 0.92 -1.21 9.90 0.08 -0.09 0.11 7920
0.52 0.01 0.87 -1.24 9.86 0.08 -0.08 0.10 7926
0.56 -0.00 0.94 -1.25 9.83 0.08 -0.08 0.09 7932
0.59 -0.01 0.93 -1.25 9.83 0.09 -0.10 0.08 7939
0.61 -0.02 0.95 -1.30 9.86 0.09 -0.10 0.07 7945
0.64 -0.02 0.92 -1.28 9.86 0.10 -0.11 0.05 7951
0.64 -0.02 0.98 -1.30 9.83 0.11 -0.11 0.03 7958
0.62 -0.01 0.99 -1.34 9.83 0.11 -0.12 0.02 7964
0.64 0.01 0.94 -1.36 9.83 0.12 -0.12 0.01 7970
0.66 -0.01 0.90 -1.37 9.81 0.12 -0.12 0.01 7976
0.69 -0.03 0.91 -1.37 9.83 0.11 -0.11 0.01 7983
0.71 -0.02 0.91 -1.35 9.92 0.12 -0.11 0.00 7989
0.71 -0.03 0.91 -1.36 9.85 0.12 -0.12 0.01 7996
0.78 -0.02 0.91 -1.39 9.88 0.13 -0.12 -0.00 8002
0.79 -0.02 0.86 -1.43 9.98 0.14 -0.12 0.00 8008
0.80 -0.03 0.90 -1.48 9.86 0.14 -0.12 -0.00 8014
0.83 -0.03 0.90 -1.49 9.94 0.15 -0.12 -0.01 8020
0.84 -0.03 0.87 -1.54 9.87 0.15 -0.12 -0.01 8027
0.84 -0.03 0.95 -1.53 9.91 0.16 -0.12 -0.02 8033
0.87 -0.02 0.88 -1.54 9.92 0.17 -0.13 -0.02 8040
0.90 -0.02 0.91 -1.54 9.90 0.18 -0.13 -0.02 8046
0.91 -0.01 1.01 -1.57 10.02 0.20 -0.15 -0.03 8052
0.96 -0.02 1.03 -1.68 10.14 0.23 -0.17 -0.05 8058
1.02 -0.04 1.03 -1.69 10.12 0.27 -0.19 -0.06 8065
1.13 -0.04 0.97 -1.72 10.46 0.32 -0.21 -0.07 8072
1.17 -0.04 1.04 -1.72 10.38 0.39 -0.23 -0.08 8078
1.23 -0.04 1.10 -1.81 10.53 0.48 -0.25 -0.10 8084
1.25 -0.05 1.11 -1.93 10.92 0.57 -0.27 -0.13 8090
1.29 -0.05 1.14 -1.94 11.10 0.72 -0.29 -0.15 8097
1.40 -0.03 0.91 -1.99 11.29 0.80 -0.29 -0.17 8103
1.44 -0.04 1.38 -1.37 11.58 0.90 -0.28 -0.18 8110
1.51 -0.05 0.77 -1.90 11.63 1.00 -0.27 -0.18 8116
1.55 -0.05 0.83 -2.08 11.59 1.10 -0.28 -0.18 8123
1.60 -0.06 0.92 -2.05 11.84 1.22 -0.33 -0.18 8129
1.68 -0.04 0.73 -2.35 11.76 1.35 -0.32 -0.18 8135
1.71 -0.05 0.74 -2.53 12.31 1.49 -0.37 -0.18 8141
1.77 -0.08 0.67 -2.18 12.27 1.61 -0.45 -0.16 8147
1.80 -0.07 0.70 -2.65 11.67 1.70 -0.46 -0.16 8155
1.80 -0.07 1.02 -2.72 12.77 1.83 -0.45 -0.17 8161
1.78 -0.05 0.90 -2.66 13.80 2.04 -0.43 -0.20 8167
1.79 -0.06 0.84 -2.91 14.30 2.36 -0.42 -0.21 8173
1.78 -0.07 0.89 -2.98 14.44 2.70 -0.42 -0.23 8180
1.74 -0.07 0.85 -3.06 13.99 3.03 -0.41 -0.26 8186
1.70 -0.07 0.74 -3.01 14.31 3.31 -0.38 -0.28 8193
1.64 -0.06 0.78 -3.11 15.19 3.61 -0.37 -0.31 8199
1.51 -0.04 0.83 -3.64 15.55 3.97 -0.37 -0.35 8206
1.35 -0.05 1.38 -3.88 16.31 4.23 -0.41 -0.41 8212
1.18 -0.04 1.76 -4.32 17.13 4.28 -0.45 -0.48 8218
0.97 -0.02 1.78 -5.13 18.05 4.28 -0.55 -0.58 8224
0.80 -0.03 3.05 -6.26 20.30 4.28 -0.68 -0.66 8230
0.69 -0.03 2.08 -7.45 21.81 4.28 -0.81 -0.74 8238
0.58 -0.04 2.92 -9.51 26.36 4.28 -0.96 -0.80 8244
0.46 -0.02 2.13 -12.16 27.76 4.28 -1.03 -0.84 8250
0.37 -0.02 1.86 -14.44 29.28 4.28 -0.97 -0.80 8257
0.34 -0.01 2.05 -14.69 28.51 4.28 -0.86 -0.77 8263
0.26 -0.00 1.59 -13.13 27.57 4.28 -0.89 -0.79 8269
0.22 -0.01 0.77 -10.21 26.94 4.28 -0.92 -0.74 8275
0.16 -0.00 1.31 -7.65 29.06 4.28 -0.73 -0.60 8283
0.13 0.00 2.00 -5.41 31.34 4.28 -0.68 -0.55 8289
0.07 -0.00 3.41 -1.83 31.90 4.28 -0.74 -0.58 8295
0.09 0.00 4.76 2.34 30.62 4.28 -0.91 -0.57 8301
0.08 0.00 5.87 8.67 30.34 4.28 -0.98 -0.58 8307
0.05 0.01 5.80 12.77 27.67 4.28 -0.67 -0.61 8314
0.06 0.01 4.00 15.38 22.87 4.28 0.03 -0.73 8321
0.04 -0.00 4.30 10.43 10.47 4.28 0.35 -1.24 8327
0.06 0.01 4.31 10.04 1.45 4.28 -0.26 -1.76 8333
0.05 -0.00 5.00 19.94 4.19 3.46 -0.65 -2.05 8340
0.04 0.01 6.45 24.29 22.60 1.04 0.35 -2.09 8346
0.05 0.01 7.79 16.59 28.66 -0.45 1.11 -1.93 8352
0.05 0.00 3.85 12.21 21.90 -1.72 1.33 -1.77 8358
0.04 0.00 2.12 12.26 16.30 -2.77 1.15 -1.51 8366
0.04 -0.00 1.75 11.77 12.78 -3.47 0.92 -1.21 8372
0.04 -0.00 1.80 9.29 10.65 -3.82 0.68 -0.96 8378
0.05 0.01 2.15 6.84 9.13 -3.95 0.43 -0.80 8384
0.05 -0.01 2.11 5.93 7.86 -3.96 0.25 -0.64 8390
0.04 -0.00 2.21 5.71 6.67 -3.93 0.13 -0.49 8396
0.04 0.00 2.28 5.23 6.02 -3.91 0.09 -0.36 8403
0.06 -0.00 2.47 4.37 5.97 -3.91 0.11 -0.26 8410
0.04 -0.00 2.72 3.56 6.56 -3.94 0.22 -0.18 8416
0.04 -0.00 2.86 3.22 7.05 -3.99 0.37 -0.10 8422
0.03 0.00 2.82 2.49 7.69 -4.04 0.54 -0.05 8428
0.05 0.00 2.57 2.89 8.21 -4.10 0.69 -0.01 8434
0.04 -0.00 2.34 2.51 8.95 -4.15 0.82 0.03 8440
0.03 0.01 2.01 2.06 9.48 -4.20 0.93 0.06 8446
0.04 0.01 1.57 1.60 10.03 -4.24 1.00 0.10 8454
0.04 0.01 1.26 0.94 10.86 -4.27 1.04 0.13 8460
0.03 0.00 1.14 0.38 11.63 -4.28 1.03 0.15 8466
0.03 0.01 1.06 -0.10 12.36 -4.28 1.02 0.17 8472
0.04 0.00 0.99 -0.64 13.13 -4.28 1.01 0.18 8478
0.03 0.00 1.26 -1.09 13.76 -4.28 1.03 0.17 8485
0.04 0.00 1.51 -1.79 14.06 -4.28 1.09 0.15 8492
0.04 -0.00 1.67 -2.26 14.43 -4.28 1.19 0.13 8498
0.03 -0.00 1.77 -3.03 14.31 -4.28 1.34 0.10 8504
0.04 0.00 1.76 -3.72 14.55 -4.28 1.50 0.07 8510
0.05 -0.00 1.66 -4.54 15.10 -4.28 1.67 0.03 8516
0.04 0.00 1.39 -5.39 15.59 -4.28 1.83 -0.00 8523
0.05 0.00 0.92 -5.98 16.14 -4.28 1.95 -0.04 8529
0.04 -0.00 0.63 -6.35 16.45 -4.28 2.02 -0.07 8536
0.03 -0.00 0.32 -6.69 16.88 -4.27 2.05 -0.09 8542
0.05 0.01 0.01 -6.97 17.59 -4.23 2.06 -0.08 8548
0.04 -0.00 -0.27 -7.18 18.41 -4.17 2.05 -0.05 8555
0.04 -0.00 -0.58 -7.47 19.43 -4.09 1.99 -0.00 8561
0.05 0.00 -0.72 -7.74 20.24 -4.01 1.90 0.09 8567
0.05 -0.00 -0.65 -8.07 20.70 -3.95 1.80 0.15 8573
0.04 -0.00 -0.54 -8.31 21.25 -3.91 1.70 0.28 8580
0.04 -0.00 -0.29 -8.66 21.81 -3.88 1.60 0.41 8586
0.05 -0.00 -0.07 -9.15 22.18 -3.87 1.52 0.54 8593
0.05 -0.00 0.15 -9.68 22.19 -3.85 1.46 0.65 8599
0.04 -0.00 0.39 -10.20 21.93 -3.83 1.42 0.74 8605
0.06 -0.01 0.71 -10.84 21.62 -3.78 1.39 0.79 8611
0.04 -0.00 1.11 -11.92 21.57 -3.69 1.35 0.81 8617
0.05 -0.00 1.53 -13.35 21.04 -3.54 1.30 0.81 8625
0.05 -0.00 1.64 -14.94 20.09 -3.33 1.29 0.81 8631
0.04 -0.00 1.77 -16.30 19.04 -3.07 1.28 0.82 8637
0.04 0.00 1.96 -17.23 17.78 -2.78 1.29 0.83 8643
0.05 0.00 2.39 -18.32 16.82 -2.48 1.35 0.85 8649
0.04 0.00 2.55 -19.41 16.50 -2.22 1.50 0.89 8656
0.05 -0.00 2.32 -20.25 16.67 -2.06 1.70 0.94 8663
0.05 -0.00 1.32 -20.67 16.47 -2.04 1.90 1.00 8669
0.05 0.01 -0.14 -20.51 15.03 -2.12 2.11 1.11 8675
0.04 0.00 -2.11 -20.53 12.97 -2.25 2.40 1.39 8682
0.04 -0.00 -4.41 -21.37 10.75 -2.33 2.68 1.71 8688
0.06 -0.01 -7.26 -23.21 8.71 -2.30 2.75 2.01 8694
0.04 -0.00 -9.52 -25.78 7.14 -2.15 2.49 2.35 8700
0.04 0.01 -10.70 -28.59 4.76 -1.89 1.79 2.56 8708
0.05 0.01 -11.29 -29.86 2.24 -1.55 0.86 2.61 8714
0.04 0.00 -10.26 -30.19 0.40 -1.15 -0.00 2.50 8720
0.05 0.02 -8.72 -29.62 0.25 -0.68 -0.58 2.27 8726
0.04 -0.00 -7.09 -28.53 0.92 -0.17 -0.88 1.95 8732
0.04 0.00 -5.27 -26.63 2.05 0.30 -1.00 1.53 8739
0.05 -0.00 -5.42 -46.44 1.03 1.05 -1.41 1.10 8745
0.05 -0.00 -6.44 -32.59 -4.68 2.98 -1.27 0.70 8752
0.04 -0.00 -8.82 -27.72 -12.80 3.30 -1.79 0.46 8758
0.04 0.18 -3.16 -4.33 -2.33 3.45 -3.16 0.26 8764
0.01 0.60 -2.47 1.77 12.67 3.89 -2.93 0.27 8771
-0.00 0.69 4.64 2.32 21.24 4.09 -1.78 0.56 8777
-0.01 0.83 3.21 -0.43 17.31 3.83 -0.77 0.86 8783
-0.02 0.86 -3.38 -5.65 23.87 3.64 -0.27 0.93 8790
-0.02 0.91 -7.66 -7.12 22.83 3.41 -0.09 0.69 8797
-0.02 0.98 -6.99 -5.36 18.62 3.44 -0.52 0.29 8803
-0.04 1.08 -2.87 -3.44 18.17 3.61 -0.49 0.03 8809
-0.01 1.13 -3.25 -3.38 21.22 3.72 -0.04 -0.14 8815
-0.02 1.16 -2.40 -2.62 20.59 3.56 0.30 -0.41 8822
-0.02 1.27 1.77 -2.93 18.46 3.36 0.59 -0.55 8828
-0.01 1.29 3.72 -3.17 17.87 3.24 0.95 -0.52 8835
-0.02 1.37 3.95 -2.64 19.73 3.09 0.91 -0.47 8841
-0.02 1.39 4.22 -3.47 19.67 1.62 -0.55 -0.27 8847
-0.04 1.45 2.15 -3.31 12.62 0.50 -0.91 0.08 8854
-0.03 1.44 0.24 -2.11 10.92 0.26 -0.65 0.14 8860
-0.01 1.46 0.04 -1.40 10.69 0.16 -0.40 0.09 8866
0.01 1.43 1.65 -1.12 10.26 0.07 -0.20 0.07 8872
0.01 1.41 0.83 -0.87 9.97 0.04 -0.15 0.10 8879
0.04 1.42 0.78 -1.28 9.93 0.08 -0.18 0.11 8886
0.06 1.41 0.95 -1.15 9.95 0.09 -0.18 0.10 8892
0.09 1.39 0.89 -1.20 9.99 0.10 -0.18 0.10 8898
0.11 1.38 0.87 -1.06 9.95 0.10 -0.16 0.11 8904
0.12 1.35 0.89 -1.08 9.99 0.09 -0.15 0.12 8910
0.12 1.31 0.92 -1.09 9.91 0.08 -0.14 0.13 8916
0.13 1.29 0.85 -1.04 10.42 0.07 -0.14 0.14 8924
0.16 1.25 0.91 -1.02 9.87 0.07 -0.14 0.15 8930
0.14 1.21 0.81 -1.03 9.90 0.07 -0.15 0.15 8936
0.18 1.18 0.84 -1.01 9.87 0.06 -0.14 0.16 8942
0.20 1.13 0.80 -1.05 9.86 0.06 -0.12 0.15 8948
0.20 1.05 0.78 -1.00 9.93 0.06 -0.12 0.17 8954
0.25 1.01 0.75 -1.08 9.89 0.06 -0.10 0.16 8962
0.30 0.97 0.74 -1.03 9.86 0.05 -0.09 0.17 8968
0.30 0.88 0.74 -1.01 9.92 0.05 -0.07 0.16 8974
0.31 0.81 0.79 -1.03 9.87 0.05 -0.06 0.17 8980
0.36 0.71 0.82 -1.02 9.86 0.05 -0.05 0.19 8986
0.34 0.67 0.82 -1.08 9.87 0.05 -0.04 0.18 8992
0.36 0.61 0.84 -1.06 9.88 0.06 -0.04 0.18 8999
0.40 0.53 0.82 -1.07 9.84 0.06 -0.05 0.16 9006
0.45 0.46 0.89 -1.08 9.84 0.06 -0.06 0.16 9012
0.44 0.43 0.86 -1.10 9.87 0.07 -0.07 0.15 9018
0.47 0.34 0.86 -1.10 9.83 0.07 -0.08 0.14 9024
0.49 0.29 0.87 -1.15 9.86 0.08 -0.08 0.13 9030
0.50 0.20 0.87 -1.16 9.88 0.09 -0.09 0.11 9036
0.54 0.12 0.85 -1.04 9.91 0.09 -0.09 0.13 9043
0.59 0.07 0.84 -1.18 9.91 0.10 -0.08 0.11 9050
0.61 -0.00 0.79 -1.21 9.91 0.10 -0.08 0.12 9056
0.60 -0.03 0.82 -1.25 9.90 0.10 -0.08 0.11 9062
0.62 -0.02 0.83 -1.27 9.95 0.10 -0.06 0.09 9068
0.63 -0.01 0.83 -1.27 9.90 0.11 -0.07 0.09 9074
0.66 -0.03 0.86 -1.33 9.90 0.12 -0.08 0.08 9081
0.69 -0.00 0.91 -1.32 9.84 0.13 -0.10 0.06 9088
0.71 -0.02 0.90 -1.38 9.90 0.16 -0.12 0.05 9094
0.74 -0.03 0.91 -1.38 9.88 0.17 -0.15 0.04 9100
0.74 -0.03 0.89 -1.40 9.86 0.19 -0.16 0.02 9106
0.78 -0.03 0.95 -1.49 9.91 0.20 -0.16 0.01 9112
0.76 -0.05 0.94 -1.51 9.82 0.19 -0.15 -0.00 9118
0.80 -0.04 0.88 -1.54 9.86 0.20 -0.14 -0.01 9125
0.82 -0.02 0.86 -1.61 9.89 0.19 -0.14 -0.02 9132
0.82 -0.02 0.88 -1.54 9.82 0.19 -0.13 -0.02 9138
0.85 -0.01 0.89 -1.53 9.87 0.18 -0.11 -0.02 9144
0.88 -0.02 0.84 -1.57 9.88 0.17 -0.10 -0.03 9150
0.87 -0.02 0.87 -1.54 10.05 0.18 -0.10 -0.03 9157
0.87 -0.01 0.91 -1.62 9.96 0.19 -0.10 -0.07 9163
0.88 -0.00 0.95 -1.66 9.97 0.21 -0.12 -0.05 9169
0.93 -0.02 0.86 -1.67 9.96 0.22 -0.12 -0.05 9176
0.95 -0.02 0.81 -1.64 9.95 0.22 -0.13 -0.05 9182
0.96 -0.01 0.86 -1.70 9.98 0.23 -0.11 -0.05 9188
1.03 -0.04 0.73 -1.67 10.02 0.24 -0.11 -0.05 9195
1.02 -0.05 0.78 -1.78 9.89 0.24 -0.10 -0.05 9201
1.04 -0.03 0.82 -1.76 9.94 0.24 -0.10 -0.04 9207
1.07 -0.03 0.81 -1.80 9.96 0.24 -0.10 -0.04 9213
1.11 -0.03 0.89 -1.86 9.95 0.25 -0.10 -0.04 9220
1.16 -0.02 0.86 -1.86 10.07 0.27 -0.10 -0.05 9226
1.23 -0.03 0.90 -1.88 10.16 0.29 -0.10 -0.06 9233
1.25 -0.05 0.92 -1.89 10.43 0.34 -0.11 -0.06 9239
1.27 -0.04 1.01 -1.94 10.73 0.41 -0.13 -0.07 9245
1.34 -0.05 1.12 -2.02 11.03 0.51 -0.16 -0.09 9251
1.39 -0.04 1.11 -2.06 11.19 0.61 -0.19 -0.11 9259
1.45 -0.05 1.02 -2.03 11.21 0.72 -0.21 -0.14 9265
1.48 -0.05 0.92 -2.12 11.29 0.82 -0.23 -0.15 9271
1.52 -0.06 0.87 -2.32 11.42 0.92 -0.23 -0.16 9277
1.56 -0.06 0.86 -2.34 11.28 1.02 -0.23 -0.15 9283
1.59 -0.06 0.78 -2.40 11.75 1.13 -0.23 -0.15 9290
1.62 -0.05 0.64 -2.58 11.91 1.27 -0.27 -0.14 9296
1.64 -0.06 0.74 -2.37 12.11 1.38 -0.32 -0.13 9303
1.70 -0.06 0.73 -2.50 12.02 1.48 -0.35 -0.13 9309
1.71 -0.06 0.81 -2.51 12.51 1.64 -0.34 -0.13 9316
1.73 -0.07 0.78 -2.28 13.29 1.85 -0.32 -0.14 9322
1.78 -0.04 0.86 -2.87 13.96 2.17 -0.30 -0.15 9328
1.75 -0.05 0.82 -2.92 14.16 2.50 -0.31 -0.18 9334
1.71 -0.04 0.99 -3.17 14.02 2.78 -0.31 -0.21 9341
1.65 -0.05 0.95 -3.22 13.56 3.10 -0.29 -0.24 9348
1.56 -0.04 0.78 -3.21 13.48 3.28 -0.28 -0.28 9354
1.49 -0.05 0.90 -3.37 13.87 3.54 -0.24 -0.30 9360
1.39 -0.04 0.40 -3.50 14.92 3.85 -0.21 -0.32 9367
1.25 -0.03 1.14 -3.82 15.21 4.11 -0.26 -0.36 9373
1.14 -0.04 1.42 -4.59 15.67 4.28 -0.33 -0.39 9379
0.94 -0.03 1.92 -4.98 16.62 4.28 -0.39 -0.48 9385
0.77 -0.02 2.44 -6.22 18.89 4.28 -0.45 -0.60 9393
0.67 -0.03 2.14 -7.67 20.48 4.28 -0.58 -0.68 9399
0.51 -0.03 2.13 -9.21 23.27 4.28 -0.67 -0.73 9405
0.45 -0.01 2.90 -11.98 25.91 4.28 -0.72 -0.73 9411
0.38 -0.01 3.34 -14.14 27.91 4.28 -0.58 -0.71 9418
0.31 -0.03 2.97 -14.13 26.93 4.28 -0.38 -0.72 9424
0.26 -0.02 1.46 -13.78 26.18 4.28 -0.29 -0.74 9431
0.22 -0.01 0.93 -12.38 26.43 4.28 -0.26 -0.68 9437
0.18 -0.01 0.33 -9.53 28.82 4.28 -0.13 -0.54 9444
0.15 -0.01 0.86 -8.50 31.40 4.28 -0.04 -0.51 9450
0.11 -0.00 2.68 -5.39 32.08 4.28 -0.17 -0.60 9456
0.10 0.00 2.89 -1.62 32.04 4.28 -0.41 -0.61 9462
0.07 -0.01 4.73 4.00 31.43 4.28 -0.71 -0.64 9468
0.07 0.00 5.46 9.92 30.20 4.28 -0.75 -0.66 9476
0.06 -0.00 4.30 12.78 27.83 4.28 -0.36 -0.71 9482
0.04 0.00 3.70 14.32 21.43 4.28 0.38 -1.00 9488
0.06 0.01 -0.80 12.29 -38.59 4.28 0.13 -1.71 9494
0.06 -0.01 7.06 6.65 8.95 4.27 -0.60 -2.18 9501
0.03 0.00 5.91 22.39 8.22 2.09 -0.42 -2.41 9507
0.06 -0.00 7.37 25.60 21.48 0.43 0.62 -2.35 9513
0.05 -0.01 6.73 14.57 23.97 -0.85 1.27 -2.15 9520
0.05 -0.01 3.81 10.88 19.76 -1.98 1.28 -1.97 9526
0.06 -0.00 2.10 11.81 15.99 -2.74 1.03 -1.70 9533
0.05 -0.01 1.57 11.45 12.32 -3.15 0.74 -1.41 9539
0.06 0.01 2.00 9.43 10.01 -3.43 0.43 -1.19 9545
0.05 -0.01 2.34 7.56 8.64 -3.58 0.17 -1.03 9551
0.04 -0.00 2.40 6.68 7.59 -3.67 0.05 -0.86 9558
0.05 0.00 2.79 6.47 7.04 -3.72 0.04 -0.68 9565
0.06 -0.01 3.13 6.02 6.64 -3.79 0.11 -0.56 9571
0.05 -0.00 3.33 5.48 6.82 -3.86 0.25 -0.43 9577
0.04 0.00 3.33 4.64 7.50 -3.95 0.43 -0.31 9583
0.06 0.00 3.20 3.69 7.78 -4.03 0.61 -0.21 9589
0.05 -0.00 2.86 3.32 8.15 -4.09 0.73 -0.11 9595
0.04 0.00 2.47 3.12 8.64 -4.16 0.80 -0.01 9602
0.05 0.01 2.13 2.65 9.19 -4.21 0.84 0.10 9609
0.05 -0.00 1.85 2.21 9.76 -4.24 0.85 0.21 9615
0.05 -0.00 1.46 1.76 10.16 -4.26 0.84 0.31 9621
0.04 -0.00 1.14 1.13 10.44 -4.28 0.83 0.42 9627
0.06 -0.00 0.99 0.48 11.00 -4.28 0.81 0.51 9633
0.05 -0.00 0.94 0.06 11.71 -4.28 0.80 0.57 9639
0.03 0.00 1.05 -0.47 12.46 -4.28 0.82 0.61 9647
0.06 0.00 1.12 -1.04 13.14 -4.28 0.88 0.62 9653
0.05 0.00 1.10 -1.41 13.79 -4.28 1.00 0.59 9659
0.05 -0.00 1.09 -2.14 14.54 -4.28 1.16 0.52 9665
0.06 -0.00 0.97 -2.96 15.26 -4.28 1.35 0.44 9671
0.05 -0.01 0.57 -3.69 15.78 -4.28 1.51 0.32 9677
0.04 -0.00 0.02 -4.31 16.46 -4.28 1.68 0.18 9684
0.06 -0.00 -0.53 -5.17 16.99 -4.28 1.80 0.04 9691
0.05 -0.01 -0.99 -5.99 17.06 -4.28 1.86 -0.07 9697
0.04 0.00 -1.42 -6.37 17.36 -4.28 1.87 -0.20 9703
0.07 -0.00 -1.52 -6.56 17.60 -4.28 1.86 -0.29 9709
0.05 -0.01 -1.45 -6.67 17.69 -4.28 1.82 -0.34 9716
0.05 -0.01 -1.32 -7.11 17.83 -4.27 1.77 -0.37 9722
0.06 -0.01 -1.09 -7.40 17.71 -4.23 1.74 -0.36 9729
0.05 -0.00 -0.79 -7.80 18.04 -4.13 1.71 -0.32 9735
0.05 0.00 -0.42 -8.04 18.65 -3.97 1.66 -0.25 9741
0.07 -0.01 -0.17 -8.22 19.62 -3.80 1.64 -0.16 9748
0.05 -0.01 -0.04 -8.72 20.63 -3.63 1.63 -0.04 9754
0.05 -0.00 -0.00 -9.46 21.65 -3.50 1.61 0.07 9760
0.07 0.00 0.06 -10.13 22.40 -3.41 1.55 0.18 9766
0.05 -0.01 0.08 -10.94 22.78 -3.37 1.48 0.30 9773
0.05 0.00 0.40 -11.70 22.73 -3.36 1.41 0.42 9780
0.05 -0.00 0.67 -12.49 22.27 -3.36 1.37 0.52 9786
0.04 -0.00 1.03 -13.65 21.86 -3.35 1.34 0.58 9792
0.05 -0.00 1.45 -14.86 21.20 -3.31 1.31 0.63 9798
0.05 -0.01 1.66 -16.16 20.48 -3.24 1.27 0.67 9805
0.04 -0.00 1.87 -17.40 19.45 -3.14 1.25 0.73 9811
0.06 -0.01 1.96 -18.09 18.44 -3.02 1.29 0.81 9818
0.05 -0.01 1.62 -18.65 17.49 -2.93 1.44 0.90 9824
0.05 -0.01 0.85 -19.12 16.40 -2.88 1.71 1.04 9830
0.06 -0.01 -0.50 -19.62 15.43 -2.86 2.03 1.20 9837
0.06 -0.01 -2.48 -19.97 14.01 -2.85 2.36 1.40 9843
0.06 0.01 -4.41 -21.52 13.01 -2.81 2.68 1.63 9849
0.05 -0.01 -6.08 -24.24 11.72 -2.71 2.66 1.82 9856
0.05 -0.00 -7.68 -26.71 9.45 -2.53 2.17 1.90 9862
0.07 -0.00 -8.43 -28.51 5.81 -2.22 1.42 1.92 9869
0.05 -0.01 -8.12 -29.39 2.28 -1.89 0.66 1.87 9875
0.05 0.00 -7.53 -29.90 0.16 -1.42 0.08 1.75 9881
0.06 -0.00 -7.00 -30.47 -0.56 -0.89 -0.23 1.56 9887
0.05 -0.01 -5.87 -29.89 1.15 -0.36 -0.33 1.31 9893
0.05 -0.00 -4.96 -28.57 2.31 0.12 -0.33 1.02 9901
0.07 -0.01 -10.22 -42.80 29.95 1.16 -0.77 0.82 9907
0.05 -0.01 -9.33 -29.71 -4.69 2.44 -0.93 0.64 9913
0.05 -0.00 -11.99 -34.27 -2.53 2.85 -1.83 0.46 9919
0.06 -0.01 -8.56 -33.62 -0.99 3.25 -3.21 0.43 9926
0.02 0.44 -4.16 4.37 -0.64 3.71 -3.50 0.33 9932
0.01 0.59 2.05 -2.26 15.00 4.17 -2.61 0.53 9938
0.01 0.72 5.13 3.68 20.77 4.19 -1.47 0.88 9945
-0.01 0.78 2.64 -2.52 17.01 3.96 -0.55 1.15 9951
0.01 0.85 -2.14 -5.03 21.78 3.84 -0.18 1.22 9958
-0.00 0.90 -7.02 -7.26 19.72 3.75 -0.17 1.08 9964
-0.00 0.96 -7.97 -5.68 18.88 3.83 -0.40 0.72 9970
-0.00 1.05 -5.81 -3.80 20.62 3.91 -0.29 0.32 9976
-0.02 1.10 -4.78 -5.14 22.03 3.92 0.03 -0.05 9984
-0.02 1.15 -1.57 -3.14 20.04 3.78 0.62 -0.36 9990
-0.03 1.18 1.34 -3.36 21.91 3.68 1.11 -0.55 9996
-0.03 1.24 13.22 -6.93 51.84 3.57 0.58 -0.58 10002
-0.02 1.28 4.05 -3.82 11.70 0.34 -0.77 0.01 10009
-0.03 1.37 0.99 -1.94 11.31 0.20 -0.59 0.19 10015
0.01 1.37 -0.05 -2.12 10.85 0.13 -0.45 0.12 10021
0.01 1.38 0.80 -2.01 10.31 0.06 -0.20 0.07 10028
0.03 1.38 0.69 -2.20 10.11 0.01 -0.10 0.11 10035
0.09 1.39 1.02 -1.29 10.00 0.06 -0.11 0.10 10041
0.12 1.39 0.83 -1.19 10.09 0.06 -0.14 0.12 10047
0.14 1.40 0.81 -1.33 10.07 0.05 -0.13 0.11 10053
0.15 1.40 0.85 -1.20 10.01 0.05 -0.10 0.12 10060
0.14 1.41 0.78 -1.12 9.98 0.03 -0.07 0.13 10066
0.16 1.40 0.80 -1.09 9.94 0.02 -0.04 0.13 10073
0.16 1.39 0.79 -1.09 9.89 0.01 -0.02 0.14 10079
0.16 1.39 0.88 -1.07 9.86 0.01 -0.02 0.15 10085
0.18 1.33 0.90 -1.04 9.89 0.01 -0.02 0.15 10092
0.16 1.29 0.89 -1.06 9.82 0.01 -0.04 0.13 10098
0.17 1.26 0.84 -1.07 9.84 0.02 -0.05 0.13 10104
0.19 1.22 0.80 -0.99 9.84 0.03 -0.05 0.14 10110
0.18 1.15 0.81 -1.00 9.82 0.02 -0.03 0.14 10117
0.18 1.10 0.84 -1.05 9.84 0.03 -0.02 0.13 10124
0.18 1.06 0.82 -1.00 9.87 0.04 -0.02 0.14 10130
0.19 0.98 0.81 -1.07 9.88 0.03 -0.02 0.13 10136
0.19 0.96 0.74 -1.11 9.84 0.04 -0.02 0.14 10142
0.22 0.85 0.80 -1.06 9.84 0.04 -0.02 0.15 10148
0.23 0.80 0.84 -1.04 9.91 0.04 -0.01 0.14 10156
0.27 0.73 0.84 -1.05 9.81 0.05 -0.02 0.15 10162
0.28 0.64 0.87 -1.02 9.86 0.05 -0.02 0.15 10168
0.31 0.60 0.92 -1.03 9.88 0.06 -0.03 0.15 10174
0.33 0.52 0.94 -1.11 9.85 0.07 -0.04 0.14 10180
0.33 0.48 0.91 -1.10 9.86 0.07 -0.06 0.14 10187
0.39 0.42 0.92 -1.05 9.86 0.08 -0.07 0.13 10193
0.43 0.35 0.91 -1.14 9.82 0.08 -0.08 0.12 10200
0.41 0.25 0.91 -1.14 9.85 0.09 -0.09 0.11 10206
0.43 0.17 0.90 -1.18 9.85 0.09 -0.09 0.10 10212
0.46 0.13 0.86 -1.23 9.85 0.09 -0.09 0.10 10219
0.49 0.07 0.87 -1.22 9.92 0.09 -0.09 0.10 10225
0.52 0.04 0.81 -1.20 9.88 0.10 -0.08 0.09 10231
0.55 -0.03 0.79 -1.25 9.90 0.10 -0.08 0.09 10237
0.53 -0.03 0.83 -1.26 9.95 0.10 -0.07 0.08 10244
0.54 -0.00 0.84 -1.28 9.97 0.11 -0.06 0.08 10251
0.54 -0.01 0.88 -1.30 9.91 0.12 -0.07 0.07 10257
0.56 -0.01 0.91 -1.34 9.94 0.14 -0.08 0.06 10263
0.59 -0.01 0.91 -1.31 9.87 0.15 -0.10 0.04 10269
0.61 -0.03 0.97 -1.42 9.85 0.18 -0.12 0.03 10275
0.59 -0.02 1.02 -1.44 9.77 0.20 -0.15 0.01 10283
0.58 -0.01 0.95 -1.45 9.93 0.22 -0.17 -0.00 10289
0.59 -0.02 0.95 -1.51 9.86 0.24 -0.19 -0.01 10295
0.65 -0.02 0.91 -1.43 9.85 0.24 -0.19 -0.02 10301
0.67 -0.00 0.94 -1.59 9.89 0.24 -0.19 -0.03 10307
0.70 -0.02 0.94 -1.55 9.82 0.23 -0.19 -0.04 10314
0.75 -0.02 0.97 -1.73 9.99 0.23 -0.18 -0.05 10320
0.79 -0.02 0.89 -1.62 9.92 0.23 -0.19 -0.06 10327
0.82 -0.02 0.94 -1.64 10.00 0.24 -0.20 -0.06 10333
0.85 -0.02 0.87 -1.64 9.96 0.24 -0.21 -0.07 10339
0.89 -0.02 0.86 -1.77 9.88 0.25 -0.21 -0.07 10346
0.91 -0.03 0.92 -1.80 9.86 0.25 -0.21 -0.08 10352
0.96 -0.02 0.95 -1.76 10.06 0.26 -0.21 -0.08 10358
1.00 -0.03 0.95 -1.77 10.12 0.28 -0.22 -0.09 10364
1.06 -0.03 0.89 -1.82 10.22 0.33 -0.23 -0.11 10372
1.10 -0.04 0.93 -1.86 10.32 0.37 -0.24 -0.12 10378
1.15 -0.03 0.86 -1.88 10.48 0.42 -0.24 -0.13 10384
1.18 -0.03 0.88 -1.88 10.61 0.48 -0.25 -0.14 10391
1.29 -0.05 0.71 -2.00 10.84 0.55 -0.25 -0.13 10397
1.33 -0.04 0.73 -2.07 10.83 0.66 -0.23 -0.13 10403
1.38 -0.04 0.65 -2.03 11.09 0.71 -0.21 -0.13 10409
1.41 -0.04 1.19 -2.99 10.94 0.82 -0.20 -0.13 10417
1.49 -0.06 0.70 -2.05 11.41 0.88 -0.18 -0.13 10423
1.52 -0.05 0.80 -2.30 11.40 1.03 -0.17 -0.13 10429
1.56 -0.05 0.60 -2.21 11.31 1.13 -0.17 -0.14 10435
1.61 -0.05 0.70 -2.45 11.39 1.23 -0.19 -0.12 10442
1.65 -0.06 0.80 -2.68 11.65 1.31 -0.24 -0.13 10448
1.64 -0.07 0.78 -2.62 11.95 1.43 -0.33 -0.13 10455
1.67 -0.06 0.85 -2.49 11.96 1.51 -0.37 -0.13 10462
1.68 -0.05 0.89 -2.44 12.24 1.63 -0.38 -0.14 10468
1.72 -0.07 0.68 -3.03 12.46 1.80 -0.38 -0.16 10474
1.74 -0.04 0.72 -2.97 13.92 2.06 -0.40 -0.17 10480
1.73 -0.06 0.65 -3.06 14.12 2.37 -0.38 -0.19 10487
1.70 -0.04 0.68 -3.27 13.91 2.71 -0.39 -0.22 10493
1.66 -0.04 0.80 -3.40 14.09 3.03 -0.38 -0.24 10500
1.59 -0.04 0.76 -3.44 13.65 3.32 -0.35 -0.27 10506
1.51 -0.03 0.40 -3.58 14.34 3.60 -0.30 -0.30 10513
1.37 -0.05 0.32 -3.76 15.45 3.94 -0.26 -0.32 10519
1.29 -0.03 1.41 -5.02 14.46 4.21 -0.37 -0.41 10525
1.12 -0.03 1.86 -4.57 16.82 4.28 -0.37 -0.43 10532
0.95 -0.03 3.06 -5.21 17.71 4.28 -0.47 -0.56 10539
0.83 -0.02 2.22 -5.95 19.38 4.28 -0.59 -0.71 10545
0.72 -0.03 1.83 -6.84 21.57 4.28 -0.75 -0.78 10551
0.63 -0.01 1.48 -9.47 24.11 4.28 -0.88 -0.80 10558
0.53 -0.03 1.63 -12.18 27.80 4.28 -0.90 -0.77 10564
0.40 -0.02 1.99 -15.23 29.91 4.28 -0.82 -0.70 10570
0.28 -0.03 2.14 -15.53 29.07 4.28 -0.68 -0.68 10577
0.26 -0.02 1.35 -14.29 28.99 4.28 -0.70 -0.71 10584
0.25 -0.02 1.50 -11.84 28.61 4.28 -0.70 -0.66 10590
0.15 -0.01 1.62 -8.95 31.01 4.28 -0.56 -0.56 10597
0.12 -0.01 2.21 -5.85 33.35 4.28 -0.51 -0.55 10603
0.08 -0.01 3.64 -1.89 33.57 4.28 -0.65 -0.59 10609
0.08 0.00 5.21 2.67 32.27 4.28 -0.88 -0.60 10615
0.05 0.01 6.71 9.13 32.55 4.28 -0.99 -0.62 10621
0.06 0.02 7.06 13.62 29.47 4.28 -0.67 -0.65 10629
0.06 0.00 6.16 15.84 25.49 4.28 0.24 -0.79 10635
0.05 -0.00 9.10 10.46 1.29 4.28 0.60 -1.45 10641
0.06 -0.01 7.06 8.95 8.02 4.28 -0.00 -2.00 10647
0.05 0.00 5.57 21.34 3.44 2.41 -0.22 -2.27 10654
0.05 -0.00 6.14 25.25 21.77 0.36 0.86 -2.26 10660
0.04 -0.00 6.67 15.78 25.98 -1.09 1.49 -2.04 10667
0.04 -0.00 3.15 10.23 21.11 -2.27 1.31 -1.87 10674
0.06 0.00 0.57 9.91 15.76 -3.13 0.88 -1.63 10680
0.05 -0.01 0.56 9.79 12.41 -3.60 0.44 -1.37 10686
0.04 -0.00 1.36 8.01 9.44 -3.83 0.03 -1.17 10692
0.06 -0.01 2.07 6.21 7.69 -3.86 -0.29 -1.04 10698
0.04 0.00 2.74 5.28 6.12 -3.83 -0.41 -0.91 10704
0.04 0.00 3.13 5.03 5.26 -3.76 -0.37 -0.78 10712
0.05 -0.00 3.63 4.69 5.00 -3.71 -0.30 -0.66 10718
0.04 -0.00 4.05 4.35 5.33 -3.70 -0.10 -0.54 10724
0.04 -0.00 4.36 4.09 5.87 -3.71 0.16 -0.49 10730
0.05 -0.00 4.22 3.83 6.70 -3.77 0.47 -0.41 10736
0.04 0.00 3.88 3.42 7.21 -3.85 0.76 -0.32 10743
0.03 -0.00 3.44 3.31 7.70 -3.96 0.97 -0.22 10749
0.05 0.00 2.94 3.15 8.61 -4.06 1.13 -0.11 10756
0.04 0.00 2.37 2.49 9.44 -4.13 1.24 -0.00 10762
0.03 -0.00 1.76 1.83 9.78 -4.19 1.30 0.12 10768
0.04 0.00 1.34 1.24 10.30 -4.25 1.31 0.25 10775
0.04 -0.00 1.11 0.75 11.05 -4.28 1.27 0.36 10781
0.03 0.00 0.96 0.13 11.89 -4.28 1.20 0.46 10787
0.05 0.00 0.95 -0.48 12.64 -4.28 1.16 0.53 10793
0.04 -0.00 1.03 -0.92 13.28 -4.28 1.14 0.58 10800
0.04 0.01 1.11 -1.46 13.67 -4.28 1.16 0.60 10807
0.04 -0.00 1.05 -1.94 13.83 -4.28 1.21 0.60 10813
0.03 -0.00 1.09 -2.57 14.20 -4.28 1.31 0.58 10819
0.04 0.00 1.03 -3.42 14.63 -4.28 1.44 0.51 10825
0.04 -0.00 0.79 -4.28 15.11 -4.28 1.59 0.48 10832
0.03 -0.00 0.52 -5.05 15.63 -4.28 1.74 0.41 10839
0.04 -0.00 0.28 -5.87 16.16 -4.28 1.88 0.34 10845
0.04 -0.00 -0.04 -6.39 16.68 -4.28 2.00 0.25 10851
0.03 0.00 -0.31 -6.91 17.29 -4.28 2.08 0.16 10857
0.04 -0.00 -0.59 -7.23 17.70 -4.27 2.14 0.08 10864
0.03 -0.00 -0.97 -7.67 18.16 -4.24 2.16 0.02 10870
0.04 0.01 -1.39 -8.16 18.58 -4.16 2.13 -0.02 10876
0.03 -0.00 -1.54 -8.34 19.53 -4.07 2.03 -0.04 10883
0.03 -0.00 -1.70 -8.74 20.03 -3.94 1.91 -0.03 10889
0.05 -0.00 -1.41 -8.99 20.76 -3.83 1.76 0.00 10896
0.04 -0.00 -1.04 -9.23 21.63 -3.72 1.63 0.06 10902
0.04 -0.00 -0.55 -9.67 22.64 -3.70 1.52 0.12 10908
0.05 -0.00 0.01 -10.08 23.08 -3.68 1.43 0.18 10914
0.04 -0.00 0.48 -10.93 22.91 -3.68 1.37 0.25 10921
0.05 0.00 0.78 -12.03 22.02 -3.67 1.36 0.32 10928
0.04 -0.00 1.03 -13.15 20.90 -3.59 1.37 0.40 10934
0.04 0.00 1.01 -14.18 19.79 -3.46 1.41 0.46 10941
0.04 -0.00 0.76 -15.08 19.32 -3.27 1.46 0.52 10947
0.03 -0.00 0.23 -15.78 18.65 -3.06 1.47 0.57 10953
0.05 -0.01 -0.29 -16.45 18.25 -2.86 1.44 0.62 10959
0.05 -0.00 -0.82 -16.94 17.85 -2.71 1.37 0.70 10967
0.03 0.00 -1.22 -17.48 17.45 -2.61 1.27 0.81 10973
0.04 -0.00 -1.82 -18.30 16.92 -2.57 1.21 0.95 10979
0.04 -0.00 -2.30 -19.21 15.84 -2.56 1.20 1.14 10985
0.05 -0.01 -3.05 -20.13 14.01 -2.58 1.28 1.36 10992
0.04 -0.00 -3.77 -21.05 11.66 -2.58 1.42 1.62 10998
0.05 -0.01 -5.05 -22.91 10.36 -2.52 1.58 1.89 11004
0.04 -0.00 -5.97 -25.18 9.10 -2.43 1.54 2.10 11011
0.04 0.01 -7.03 -27.99 6.51 -2.26 1.22 2.19 11018
0.04 -0.00 -7.63 -29.97 3.24 -1.94 0.81 2.21 11024
0.03 -0.00 -7.14 -31.19 0.52 -1.48 0.44 2.15 11030
0.04 0.01 -6.84 -31.31 -0.63 -0.91 0.21 2.00 11036
0.04 0.00 -6.52 -31.31 -0.76 -0.29 0.08 1.77 11043
0.04 0.00 -4.39 -29.53 1.98 0.28 0.03 1.46 11049
0.04 -0.00 -4.78 -27.10 3.84 0.69 -0.00 1.10 11056
0.04 -0.00 -4.13 -24.19 5.98 0.95 -0.03 0.73 11062
0.05 0.00 -11.40 -41.47 41.48 1.60 -0.68 0.66 11069
0.04 -0.00 -12.04 -25.73 -8.22 3.16 -1.13 0.72 11075
0.04 0.00 -4.42 -9.80 -8.12 3.44 -2.20 0.52 11081
0.04 0.25 -0.36 5.59 8.87 3.37 -3.29 0.36 11087
0.01 0.61 3.53 4.08 18.14 3.51 -2.44 0.65 11095
0.00 0.68 5.84 3.79 13.75 3.38 -1.25 1.02 11101
-0.01 0.83 1.20 -3.63 16.72 3.30 -0.68 1.21 11107
-0.01 0.90 -4.68 -6.74 20.84 3.27 -0.39 1.19 11113
-0.01 0.91 -6.93 -5.60 17.50 3.35 -0.57 0.96 11120
-0.02 1.00 -5.89 -4.73 18.11 3.57 -0.63 0.66 11126
-0.00 1.07 -7.94 -3.80 19.53 3.75 -0.19 0.31 11132
-0.02 1.19 -8.27 -3.22 22.47 3.76 0.14 -0.20 11140
-0.03 1.28 -1.49 -3.71 20.83 3.57 0.49 -0.59 11146
-0.03 1.34 3.65 -3.36 18.51 3.38 0.98 -0.62 11152
-0.04 1.39 4.20 -3.02 20.75 3.18 1.05 -0.51 11158
-0.03 1.41 4.73 -3.87 24.40 2.05 -0.18 -0.25 11165
-0.03 1.48 1.85 -2.68 13.07 0.53 -0.84 0.07 11171
-0.03 1.52 -0.12 -2.04 10.98 0.24 -0.60 0.12 11177
0.00 1.49 -0.15 -1.48 10.39 0.13 -0.34 0.08 11184
-0.01 1.47 1.66 -1.08 10.21 0.04 -0.12 0.06 11191
0.00 1.46 1.28 -1.21 10.11 0.02 -0.09 0.10 11197
0.00 1.46 0.89 -1.13 10.31 0.04 -0.12 0.10 11203
0.02 1.44 0.81 -1.15 10.00 0.04 -0.11 0.10 11209
0.04 1.43 0.83 -1.16 9.87 0.05 -0.11 0.10 11216
0.04 1.44 0.86 -1.06 9.90 0.06 -0.11 0.10 11223
0.10 1.41 0.82 -1.07 9.91 0.07 -0.14 0.10 11229
0.12 1.36 0.79 -0.99 9.27 0.08 -0.15 0.11 11235
0.13 1.31 0.76 -1.02 10.36 0.09 -0.17 0.12 11242
0.16 1.26 0.77 -1.06 9.88 0.08 -0.19 0.13 11248
0.15 1.23 0.68 -1.00 9.98 0.08 -0.19 0.13 11254
0.22 1.19 0.64 -1.02 9.90 0.07 -0.17 0.14 11260
0.20 1.16 0.70 -1.03 9.92 0.06 -0.16 0.15 11267
0.21 1.11 0.66 -1.00 9.93 0.06 -0.15 0.15 11274
0.26 1.06 0.61 -1.01 9.92 0.06 -0.14 0.16 11280
0.26 0.98 0.62 -1.05 9.88 0.06 -0.13 0.16 11286
0.30 0.89 0.63 -0.98 9.87 0.06 -0.12 0.16 11292
0.30 0.87 0.65 -0.99 9.90 0.06 -0.10 0.15 11298
0.31 0.77 0.63 -1.03 9.95 0.06 -0.09 0.15 11305
0.35 0.68 0.59 -1.05 9.91 0.06 -0.09 0.16 11312
0.37 0.63 0.68 -1.06 9.92 0.06 -0.08 0.16 11318
0.34 0.56 0.75 -1.12 9.84 0.06 -0.07 0.16 11324
0.40 0.51 0.66 -1.06 9.87 0.06 -0.08 0.15 11330
0.42 0.47 0.66 -1.10 9.87 0.07 -0.08 0.15 11337
0.44 0.42 0.69 -1.15 9.86 0.07 -0.09 0.14 11343
0.49 0.41 0.68 -1.15 9.88 0.07 -0.09 0.14 11350
0.52 0.33 0.67 -1.12 9.90 0.08 -0.09 0.13 11356
0.51 0.23 0.65 -1.16 9.92 0.08 -0.09 0.12 11363
0.54 0.13 0.64 -1.20 9.95 0.09 -0.09 0.12 11369
0.56 0.09 0.61 -1.22 9.87 0.09 -0.08 0.10 11375
0.59 0.04 0.63 -1.20 9.88 0.09 -0.08 0.10 11381
0.64 -0.02 0.61 -1.24 9.95 0.09 -0.07 0.10 11387
0.63 -0.04 0.67 -1.25 9.92 0.10 -0.07 0.09 11395
0.63 -0.01 0.67 -1.26 9.93 0.10 -0.07 0.08 11401
0.63 -0.01 0.74 -1.31 9.92 0.12 -0.08 0.06 11407
0.64 -0.02 0.73 -1.33 9.98 0.13 -0.09 0.06 11413
0.66 -0.01 0.75 -1.35 10.01 0.14 -0.11 0.04 11419
0.72 -0.02 0.81 -1.38 10.01 0.16 -0.17 0.03 11426
0.69 -0.02 0.78 -1.36 9.94 0.18 -0.15 0.01 11432
0.73 -0.02 0.77 -1.43 9.90 0.19 -0.16 -0.01 11439
0.77 -0.04 0.77 -1.48 9.88 0.19 -0.16 -0.01 11445
0.79 -0.02 0.72 -1.49 9.94 0.19 -0.16 -0.03 11451
0.81 -0.02 0.64 -1.48 9.86 0.18 -0.14 -0.03 11458
0.82 -0.04 0.64 -1.53 9.86 0.18 -0.13 -0.03 11464
0.84 -0.00 0.70 -1.52 9.93 0.18 -0.13 -0.03 11470
0.92 -0.01 0.72 -1.58 9.96 0.18 -0.13 -0.04 11476
0.92 -0.02 0.76 -1.50 10.01 0.20 -0.13 -0.04 11484
0.94 -0.02 0.74 -1.56 10.02 0.21 -0.15 -0.04 11490
0.96 -0.02 0.74 -1.68 10.05 0.23 -0.16 -0.05 11496
1.00 -0.04 0.73 -1.64 10.06 0.26 -0.18 -0.06 11502
1.06 -0.04 0.62 -1.72 10.01 0.28 -0.19 -0.06 11509
1.09 -0.04 0.63 -1.69 10.12 0.31 -0.19 -0.06 11515
1.17 -0.03 0.66 -1.70 10.24 0.34 -0.20 -0.06 11522
1.23 -0.04 0.68 -1.78 10.33 0.38 -0.20 -0.06 11528
1.27 -0.02 0.75 -1.83 10.45 0.43 -0.20 -0.07 11535
1.28 -0.03 0.74 -1.95 10.61 0.49 -0.21 -0.07 11541
1.34 -0.04 0.66 -1.95 10.65 0.56 -0.21 -0.08 11547
1.37 -0.05 0.74 -2.07 10.92 0.64 -0.21 -0.10 11554
1.42 -0.04 0.76 -2.06 11.00 0.72 -0.21 -0.10 11560
1.48 -0.04 0.69 -2.28 11.36 0.80 -0.19 -0.11 11567
1.52 -0.05 0.58 -2.25 11.29 0.90 -0.18 -0.12 11573
1.51 -0.05 0.61 -2.21 11.27 1.00 -0.19 -0.13 11580
1.59 -0.05 0.57 -2.23 11.44 1.11 -0.17 -0.13 11586
1.64 -0.06 0.55 -2.37 11.43 1.22 -0.20 -0.13 11592
1.70 -0.05 0.59 -2.54 11.52 1.35 -0.24 -0.13 11598
1.70 -0.06 0.55 -2.67 12.20 1.44 -0.31 -0.12 11606
1.70 -0.06 0.37 -2.37 11.98 1.54 -0.33 -0.11 11612
1.75 -0.06 0.37 -2.65 11.99 1.65 -0.33 -0.11 11618
1.76 -0.05 0.48 -2.89 12.79 1.83 -0.31 -0.12 11625
1.77 -0.05 0.53 -2.79 13.63 2.09 -0.27 -0.13 11631
1.75 -0.04 0.59 -3.08 14.42 2.43 -0.27 -0.15 11637
1.73 -0.04 0.62 -2.90 14.68 2.79 -0.27 -0.18 11643
1.66 -0.06 0.46 -3.28 14.10 3.11 -0.23 -0.21 11651
1.56 -0.03 0.39 -3.29 14.19 3.39 -0.18 -0.23 11657
1.44 -0.04 1.09 -3.72 14.84 3.69 -0.16 -0.26 11663
1.33 -0.04 0.97 -3.63 15.79 4.06 -0.15 -0.30 11670
1.21 -0.03 1.54 -4.11 16.16 4.27 -0.26 -0.38 11676
1.01 -0.03 2.32 -3.60 17.18 4.28 -0.32 -0.48 11682
0.94 -0.03 2.76 -5.94 18.71 4.28 -0.42 -0.62 11688
0.74 -0.04 2.23 -6.78 21.36 4.28 -0.58 -0.72 11696
0.71 -0.02 2.69 -8.39 23.96 4.28 -0.72 -0.79 11702
0.57 -0.01 2.31 -9.99 26.92 4.28 -0.87 -0.86 11708
0.46 -0.02 2.16 -13.18 31.40 4.28 -0.85 -0.82 11715
0.33 -0.02 1.83 -15.48 30.41 4.28 -0.74 -0.77 11721
0.29 -0.02 1.54 -14.92 27.58 4.28 -0.69 -0.78 11727
0.22 -0.01 1.45 -13.41 28.14 4.28 -0.66 -0.74 11735
0.18 -0.01 1.03 -9.57 30.12 4.28 -0.56 -0.62 11741
0.15 -0.01 1.43 -7.91 32.56 4.28 -0.37 -0.55 11747
0.10 -0.01 2.19 -3.92 33.86 4.28 -0.43 -0.56 11753
0.10 0.00 3.90 0.61 33.17 4.28 -0.60 -0.57 11760
0.08 0.01 5.56 6.79 31.79 4.28 -0.82 -0.60 11766
0.06 0.01 6.18 12.41 29.65 4.28 -0.74 -0.65 11772
0.05 0.01 4.49 14.65 27.78 4.28 -0.18 -0.77 11779
0.04 0.01 7.25 21.83 21.15 4.28 0.83 -1.23 11786
0.05 0.00 6.57 8.51 2.09 4.28 0.36 -1.90 11792
0.05 -0.01 8.27 10.22 7.49 4.27 -0.04 -2.22 11798
0.04 0.01 4.30 27.35 11.16 1.91 0.14 -2.44 11804
0.04 -0.00 7.41 21.12 25.86 0.30 1.07 -2.37 11811
0.04 -0.00 5.82 12.84 24.00 -1.01 1.41 -2.19 11817
0.06 -0.01 3.11 11.17 18.56 -2.12 1.30 -1.95 11824
0.06 -0.01 1.64 12.38 14.11 -2.94 1.01 -1.63 11830
0.05 -0.00 1.96 11.17 11.29 -3.43 0.74 -1.31 11837
0.04 -0.00 2.44 8.72 9.72 -3.69 0.46 -1.07 11843
0.04 0.00 2.71 6.98 8.18 -3.80 0.29 -0.86 11849
0.05 -0.00 2.75 6.22 6.98 -3.83 0.22 -0.65 11855
0.04 -0.00 2.86 5.90 6.34 -3.82 0.20 -0.48 11862
0.04 -0.00 3.01 5.35 5.86 -3.81 0.24 -0.32 11869
0.05 0.00 2.97 4.63 6.55 -3.81 0.33 -0.19 11875
0.05 -0.00 2.95 3.85 7.09 -3.84 0.48 -0.07 11881
0.03 0.00 2.74 3.63 7.80 -3.91 0.64 0.04 11887
0.04 0.01 2.38 3.60 8.42 -4.03 0.76 0.13 11893
0.04 -0.00 2.00 3.27 9.22 -4.10 0.84 0.20 11899
0.03 -0.00 1.62 2.63 10.00 -4.18 0.90 0.27 11907
0.05 0.01 1.19 2.00 10.71 -4.25 0.97 0.35 11913
0.04 -0.00 0.92 1.49 10.98 -4.28 1.02 0.41 11919
0.03 -0.00 0.63 1.01 11.64 -4.28 1.04 0.45 11925
0.05 0.00 0.44 0.38 11.93 -4.28 1.03 0.47 11932
0.04 -0.00 0.41 -0.37 12.30 -4.28 1.04 0.47 11938
0.03 -0.00 0.52 -0.83 12.80 -4.28 1.08 0.46 11944
0.05 -0.01 0.47 -1.42 13.52 -4.28 1.19 0.42 11951
0.04 -0.00 0.50 -2.19 13.98 -4.28 1.38 0.34 11957
0.05 0.00 0.31 -2.88 14.48 -4.28 1.60 0.24 11964
0.05 -0.01 0.07 -3.76 14.99 -4.28 1.84 0.12 11970
0.04 -0.00 -0.20 -4.74 15.50 -4.28 2.04 -0.01 11976
0.05 0.00 -0.79 -5.57 16.38 -4.28 2.18 -0.13 11982
0.05 -0.00 -1.38 -6.50 16.93 -4.28 2.30 -0.25 11988
0.03 -0.00 -1.70 -7.19 17.06 -4.28 2.33 -0.34 11996
0.05 -0.00 -2.12 -7.53 16.82 -4.28 2.27 -0.41 12002
0.04 -0.00 -2.43 -7.67 16.95 -4.28 2.13 -0.44 12008
0.04 -0.00 -2.42 -7.53 16.78 -4.25 1.94 -0.42 12014
0.04 -0.00 -2.30 -7.55 16.77 -4.17 1.74 -0.39 12021
0.04 -0.00 -2.06 -7.89 16.65 -4.04 1.58 -0.36 12027
0.04 0.01 -1.54 -8.45 16.80 -3.78 1.50 -0.33 12034
0.04 -0.00 -1.33 -8.79 17.36 -3.50 1.45 -0.31 12040
0.03 -0.00 -1.01 -8.77 18.13 -3.25 1.45 -0.29 12047
0.05 -0.01 -1.00 -8.84 18.90 -3.02 1.48 -0.27 12053
0.04 -0.00 -0.91 -8.98 19.37 -2.86 1.51 -0.25 12059
0.04 0.00 -0.99 -9.54 19.92 -2.74 1.51 -0.20 12065
0.04 0.00 -1.08 -10.26 20.06 -2.64 1.51 -0.08 12072
0.03 -0.00 -0.94 -11.57 20.22 -2.54 1.49 0.00 12079
0.05 -0.00 -0.51 -11.71 20.42 -2.46 1.48 0.16 12085
0.04 -0.00 -0.03 -12.32 20.70 -2.41 1.49 0.29 12091
0.04 0.00 0.59 -13.46 21.25 -2.40 1.59 0.44 12098
0.04 -0.00 1.32 -13.65 21.21 -2.43 1.76 0.57 12104
0.03 -0.00 1.62 -14.56 21.03 -2.51 1.93 0.77 12110
0.05 -0.00 1.45 -15.80 20.93 -2.64 2.07 0.96 12116
0.04 -0.00 0.70 -17.16 20.37 -2.81 2.11 1.17 12124
0.04 0.01 -0.16 -18.43 18.88 -3.02 2.04 1.44 12130
0.04 -0.00 -1.20 -19.79 16.65 -3.19 1.90 1.67 12136
0.05 0.00 -2.18 -21.46 13.84 -3.28 1.76 1.97 12142
0.04 -0.00 -3.13 -23.32 11.29 -3.25 1.67 2.35 12149
0.04 -0.00 -4.22 -25.60 8.87 -3.09 1.57 2.68 12155
0.06 -0.01 -5.72 -26.96 6.03 -2.76 1.46 3.03 12162
0.04 -0.00 -6.70 -29.71 2.57 -2.34 1.21 3.17 12168
0.04 -0.00 -7.12 -31.99 1.41 -1.87 0.80 3.21 12175
0.05 -0.01 -6.88 -33.05 -0.23 -1.38 0.36 3.06 12181
0.05 -0.00 -5.77 -33.20 -0.70 -0.89 0.05 2.78 12187
0.04 0.01 -6.29 -33.18 -1.10 -0.39 -0.04 2.41 12193
0.05 0.00 -8.20 -46.30 23.27 1.12 -0.50 1.94 12200
0.04 -0.00 -10.35 -36.27 -5.17 2.19 -0.21 1.43 12207
0.05 -0.00 -13.76 -39.95 -4.78 2.65 -1.06 0.97 12213
0.05 -0.00 -14.26 -36.59 -1.46 3.09 -2.54 0.54 12219
0.01 0.46 -9.04 6.84 0.89 3.43 -3.40 0.08 12226
-0.01 0.59 -2.77 -4.14 18.34 3.70 -3.31 -0.07 12232
-0.00 0.72 3.20 5.38 23.33 3.54 -2.30 0.10 12238
0.00 0.82 1.84 -2.51 18.73 3.26 -1.27 0.33 12244
-0.01 0.88 -2.14 -4.27 20.84 3.24 -0.76 0.41 12252
0.00 1.02 -3.46 -5.47 16.36 3.30 -0.70 0.31 12258
-0.01 1.08 0.00 -4.54 15.32 3.69 -0.58 0.24 12264
-0.01 1.13 -2.37 -4.06 19.65 4.01 -0.05 0.20 12271
-0.02 1.19 -5.26 -3.14 22.09 3.93 0.13 -0.09 12277
-0.04 1.32 0.16 -3.62 21.24 3.68 0.39 -0.41 12283
-0.02 1.34 1.91 -3.05 19.30 3.53 0.97 -0.45 12290
-0.02 1.34 3.87 -3.26 25.13 3.43 0.97 -0.48 12297
-0.03 1.42 3.72 -3.41 15.89 0.82 -0.94 -0.09 12303
-0.02 1.44 1.41 -3.01 12.89 0.29 -0.75 0.17 12309
-0.01 1.48 -0.24 -1.37 11.06 0.14 -0.44 0.16 12315
-0.00 1.44 0.66 -1.41 10.56 0.06 -0.19 0.09 12322
0.01 1.44 1.05 -1.58 9.99 0.01 -0.04 0.13 12328
0.04 1.43 0.77 -1.47 10.04 0.02 -0.05 0.12 12335
0.07 1.41 0.88 -1.16 10.08 0.04 -0.09 0.12 12341
0.09 1.41 0.86 -1.24 9.96 0.04 -0.08 0.13 12348
0.11 1.41 0.75 -1.11 9.94 0.04 -0.06 0.11 12354
0.11 1.38 0.81 -1.04 9.93 0.04 -0.05 0.12 12360
0.13 1.35 0.87 -0.96 9.90 0.04 -0.04 0.12 12366
0.13 1.31 0.87 -1.00 9.94 0.04 -0.04 0.13 12372
0.15 1.28 0.88 -1.02 9.88 0.04 -0.05 0.13 12380
0.18 1.23 0.86 -1.03 9.87 0.04 -0.06 0.13 12386
0.16 1.19 0.83 -1.01 9.89 0.04 -0.06 0.14 12392
0.16 1.17 0.83 -0.96 9.86 0.04 -0.05 0.14 12398
0.18 1.14 0.81 -0.97 9.90 0.03 -0.04 0.14 12404
0.17 1.10 0.78 -0.99 9.87 0.03 -0.03 0.14 12411
0.17 1.06 0.81 -0.98 9.88 0.03 -0.02 0.14 12418
0.22 0.99 0.79 -0.97 9.89 0.04 -0.01 0.15 12424
0.21 0.94 0.78 -0.98 9.88 0.04 -0.00 0.15 12430
0.20 0.89 0.77 -1.02 9.83 0.03 -0.00 0.16 12436
0.22 0.82 0.81 -1.03 9.84 0.03 0.01 0.16 12443
0.21 0.74 0.83 -1.01 9.88 0.03 0.02 0.16 12449
0.20 0.71 0.86 -1.00 9.85 0.03 0.03 0.15 12455
0.24 0.64 0.89 -1.00 9.86 0.04 0.03 0.14 12462
0.23 0.62 0.87 -0.99 9.84 0.03 0.02 0.15 12468
0.24 0.59 0.89 -1.01 9.84 0.04 0.02 0.13 12475
0.28 0.48 0.96 -1.07 9.83 0.04 -0.00 0.13 12481
0.27 0.42 0.92 -1.02 9.79 0.05 -0.01 0.14 12487
0.26 0.41 0.91 -1.04 9.85 0.05 -0.03 0.12 12493
0.28 0.43 0.89 -1.05 9.82 0.05 -0.05 0.12 12499
0.29 0.32 0.87 -1.08 9.87 0.06 -0.05 0.12 12507
0.28 0.28 0.86 -1.06 9.89 0.06 -0.06 0.12 12513
0.31 0.21 0.84 -1.09 9.86 0.06 -0.07 0.11 12519
0.33 0.19 0.85 -1.08 9.89 0.07 -0.07 0.10 12525
0.34 0.13 0.82 -1.14 9.90 0.07 -0.08 0.12 12531
0.34 0.09 0.94 -1.09 9.82 0.07 -0.09 0.10 12538
0.35 0.02 0.95 -1.15 9.93 0.07 -0.11 0.10 12545
0.38 0.01 0.92 -1.14 9.88 0.07 -0.13 0.09 12551
0.41 -0.01 0.90 -1.22 9.88 0.08 -0.15 0.07 12557
0.42 -0.04 0.92 -1.25 9.86 0.07 -0.16 0.06 12563
0.46 -0.01 0.86 -1.20 9.81 0.07 -0.16 0.05 12570
0.49 -0.02 0.91 -1.23 9.82 0.08 -0.16 0.03 12576
0.49 -0.01 0.96 -1.21 9.88 0.07 -0.17 0.03 12582
0.52 0.00 0.92 -1.26 9.91 0.07 -0.18 0.02 12589
0.56 -0.02 0.85 -1.84 9.86 0.07 -0.19 0.02 12595
0.61 -0.02 0.84 -1.27 9.84 0.07 -0.19 0.02 12602
0.66 -0.03 0.80 -1.20 9.83 0.07 -0.19 0.01 12608
0.67 -0.03 0.73 -1.24 9.86 0.07 -0.18 0.01 12614
0.67 -0.02 0.71 -1.30 9.88 0.07 -0.17 0.02 12620
0.75 -0.03 0.73 -1.30 9.87 0.07 -0.16 0.02 12626
0.77 -0.03 0.78 -1.29 9.94 0.07 -0.15 0.02 12634
0.80 -0.02 0.78 -1.34 9.89 0.08 -0.15 0.02 12640
0.85 -0.03 0.76 -1.29 9.90 0.08 -0.14 0.01 12646
0.95 -0.05 0.80 -1.32 9.91 0.09 -0.15 0.01 12652
0.94 -0.03 0.79 -1.39 9.93 0.07 -0.14 0.01 12658
0.97 -0.04 0.82 -1.32 9.98 0.11 -0.15 0.00 12665
1.02 -0.05 0.74 -1.38 10.00 0.12 -0.16 -0.00 12672
1.10 -0.03 0.75 -1.37 10.03 0.14 -0.16 -0.01 12678
1.17 -0.05 0.84 -1.43 10.15 0.16 -0.17 -0.02 12684
1.27 -0.05 0.91 -1.47 10.24 0.19 -0.20 -0.03 12691
1.35 -0.05 0.98 -1.56 10.38 0.25 -0.24 -0.05 12697
1.39 -0.07 1.03 -1.67 10.55 0.32 -0.29 -0.09 12703
1.41 -0.05 1.06 -1.62 10.72 0.42 -0.35 -0.13 12709
1.50 -0.05 0.94 -1.95 11.22 0.55 -0.43 -0.16 12717
1.55 -0.05 1.03 -1.84 11.80 0.75 -0.51 -0.18 12723
1.61 -0.05 0.98 -1.48 11.98 0.94 -0.56 -0.19 12729
1.69 -0.06 0.90 -1.68 12.13 1.11 -0.57 -0.21 12736
1.77 -0.06 0.69 -1.91 12.51 1.25 -0.55 -0.21 12742
1.75 -0.06 0.66 -1.62 12.15 1.40 -0.48 -0.20 12748
1.84 -0.05 0.43 -1.97 12.15 1.53 -0.43 -0.19 12754
1.86 -0.07 0.57 -2.34 12.09 1.66 -0.41 -0.18 12762
1.91 -0.05 0.34 -2.28 12.08 1.74 -0.46 -0.16 12768
1.94 -0.05 0.55 -2.25 12.68 1.82 -0.45 -0.16 12774
1.95 -0.05 0.61 -2.77 12.89 1.99 -0.43 -0.18 12780
1.95 -0.06 0.54 -2.59 14.13 2.22 -0.45 -0.21 12787
1.96 -0.07 0.45 -2.68 14.67 2.58 -0.46 -0.22 12793
1.95 -0.06 0.65 -2.89 15.15 2.95 -0.48 -0.25 12800
1.91 -0.07 0.82 -3.16 15.32 3.31 -0.50 -0.28 12807
1.79 -0.05 1.02 -3.21 14.96 3.66 -0.50 -0.33 12813
1.68 -0.06 1.22 -3.12 15.15 3.98 -0.50 -0.39 12819
1.48 -0.06 1.22 -3.38 16.34 4.22 -0.54 -0.47 12825
1.27 -0.05 1.78 -3.31 16.98 4.28 -0.66 -0.56 12832
1.10 -0.04 1.88 -3.95 17.32 4.28 -0.87 -0.67 12838
0.96 -0.03 2.23 -5.46 19.32 4.28 -0.95 -0.76 12845
0.81 -0.02 2.02 -6.62 21.70 4.28 -1.06 -0.84 12852
0.70 -0.01 2.80 -9.05 24.22 4.28 -1.14 -0.93 12858
0.56 -0.01 2.17 -11.17 28.31 4.28 -1.12 -0.95 12864
0.45 -0.02 1.55 -14.43 31.35 4.28 -1.02 -0.92 12871
0.38 -0.02 0.43 -15.71 31.03 4.28 -0.97 -0.89 12877
0.25 0.00 1.20 -14.01 29.41 4.28 -1.03 -0.88 12883
0.19 0.00 1.65 -10.86 29.06 4.28 -1.04 -0.82 12890
0.17 -0.00 2.57 -7.64 30.62 4.28 -0.70 -0.67 12897
0.12 -0.00 3.42 -5.19 32.06 4.28 -0.52 -0.64 12903
0.10 -0.01 4.60 -1.27 33.02 4.28 -0.54 -0.63 12909
0.09 0.02 5.86 3.60 32.54 4.28 -0.68 -0.68 12916
0.06 0.00 6.05 10.62 30.77 4.28 -0.56 -0.75 12922
0.05 0.00 4.30 16.06 27.15 4.28 -0.05 -0.87 12929
0.05 -0.00 4.00 17.71 19.93 4.28 0.65 -1.21 12935
0.04 0.02 1.70 13.54 4.22 4.28 0.23 -1.79 12942
0.06 0.01 8.14 9.66 3.59 4.25 -0.38 -2.12 12948
0.05 -0.00 4.61 28.25 9.10 1.65 -0.16 -2.33 12954
0.05 0.01 8.56 21.61 26.90 0.16 0.87 -2.21 12960
0.05 0.01 6.44 12.78 24.60 -1.00 1.32 -2.02 12967
0.05 0.01 3.95 11.29 18.36 -1.95 1.33 -1.79 12974
0.06 0.01 2.98 13.53 12.74 -2.64 1.07 -1.50 12980
0.05 0.00 2.80 12.65 9.87 -3.05 0.77 -1.23 12987
0.07 0.01 3.38 9.91 9.15 -3.26 0.54 -1.00 12993
0.05 0.00 3.82 7.86 8.38 -3.34 0.44 -0.79 12999
0.04 0.02 3.92 7.22 7.63 -3.37 0.45 -0.57 13005
0.05 0.01 3.97 6.88 6.94 -3.38 0.50 -0.37 13011
0.05 0.00 3.91 6.34 7.15 -3.45 0.58 -0.21 13019
0.05 0.00 3.83 5.51 7.67 -3.55 0.71 -0.06 13025
0.06 0.01 3.62 5.01 8.12 -3.68 0.87 0.07 13031
0.04 0.00 3.35 4.76 8.51 -3.83 1.01 0.18 13037
0.05 0.00 2.97 3.96 9.10 -3.95 1.10 0.27 13043
0.05 -0.00 2.71 3.43 9.68 -4.09 1.17 0.36 13050
0.04 -0.00 2.57 2.80 10.17 -4.18 1.22 0.45 13057
0.05 0.00 2.24 2.31 10.57 -4.24 1.27 0.53 13063
0.05 -0.00 1.98 1.81 10.98 -4.28 1.32 0.62 13069
0.03 -0.00 1.82 0.68 11.65 -4.28 1.34 0.68 13075
0.05 0.01 1.59 0.53 12.65 -4.28 1.36 0.77 13082
0.05 0.00 1.49 -0.06 13.41 -4.28 1.36 0.77 13088
0.04 0.01 1.37 -0.65 14.18 -4.28 1.38 0.77 13094
0.04 -0.00 1.23 -1.37 14.56 -4.28 1.42 0.77 13101
0.04 -0.00 1.20 -2.01 14.92 -4.28 1.48 0.73 13108
0.04 0.01 1.15 -2.91 15.33 -4.28 1.57 0.69 13114
0.05 -0.00 1.25 -3.88 15.29 -4.28 1.68 0.63 13120
0.04 -0.00 0.76 -4.84 16.30 -4.28 1.80 0.55 13126
0.06 -0.01 0.48 -5.92 16.80 -4.28 1.92 0.48 13133
0.04 -0.00 0.20 -6.95 17.16 -4.28 2.01 0.39 13139
0.04 -0.00 0.02 -7.64 17.16 -4.28 2.06 0.30 13146
0.06 -0.01 -0.06 -8.02 17.13 -4.28 2.08 0.22 13152
0.04 -0.00 -0.09 -8.43 17.14 -4.26 2.08 0.16 13158
0.04 -0.00 -0.17 -8.67 17.31 -4.15 2.02 0.12 13165
0.05 -0.01 -0.48 -9.02 18.17 -3.95 1.91 0.12 13171
0.05 -0.00 -0.67 -9.13 19.12 -3.71 1.78 0.17 13177
0.04 -0.00 -0.82 -9.26 20.27 -3.51 1.62 0.25 13184
0.05 -0.01 -0.86 -9.55 21.43 -3.38 1.46 0.33 13190
0.04 -0.00 -0.80 -9.82 22.43 -3.31 1.22 0.43 13197
0.04 0.01 -0.61 -10.58 23.01 -3.29 0.98 0.54 13203
0.04 0.00 -0.28 -11.49 23.05 -3.29 0.80 0.65 13209
0.05 0.00 0.14 -12.42 22.65 -3.29 0.69 0.76 13215
0.05 -0.00 0.59 -13.16 21.77 -3.29 0.66 0.85 13222
0.04 0.00 1.02 -13.75 20.75 -3.27 0.73 0.92 13229
0.06 -0.01 1.28 -14.13 19.79 -3.23 0.86 0.98 13235
0.04 -0.00 1.27 -14.59 19.24 -3.15 1.07 1.04 13242
0.05 0.00 1.11 -15.20 18.78 -3.07 1.31 1.11 13248
0.04 -0.00 0.72 -15.74 18.11 -2.97 1.53 1.21 13254
0.04 -0.00 0.23 -16.37 17.25 -2.90 1.70 1.31 13260
0.05 -0.00 -0.40 -17.24 16.48 -2.83 1.81 1.44 13267
0.04 0.01 -1.26 -18.08 15.66 -2.78 1.85 1.59 13274
0.05 0.00 -2.98 -19.08 14.74 -2.74 1.88 1.76 13280
0.04 -0.00 -3.91 -20.08 13.55 -2.72 1.98 1.96 13286
0.05 0.01 -5.98 -22.37 12.30 -2.71 2.06 2.17 13293
0.05 0.00 -7.10 -24.99 10.45 -2.69 1.79 2.30 13299
0.05 0.00 -7.80 -27.63 7.75 -2.65 1.31 2.34 13305
0.05 -0.00 -8.22 -29.73 4.26 -2.49 0.80 2.32 13313
0.03 -0.00 -7.40 -30.88 1.27 -2.18 0.38 2.26 13319
0.05 -0.00 -8.44 -31.60 -0.70 -1.73 0.19 2.11 13325
0.04 -0.00 -6.94 -30.76 -0.55 -1.14 0.01 1.86 13331
0.04 0.01 -6.07 -29.86 0.01 -0.52 -0.18 1.50 13337
0.06 0.00 -5.08 -26.83 1.62 0.05 -0.38 1.04 13344
0.04 -0.00 -4.39 -32.64 -3.43 0.54 -0.61 0.70 13350
0.05 -0.00 -2.54 -31.74 -0.74 3.24 -0.98 0.42 13357
0.05 -0.01 -10.40 -25.73 -9.45 3.09 -1.45 0.16 13363
0.03 -0.00 -5.27 -18.37 0.03 3.43 -2.76 0.02 13370
0.03 0.42 -4.56 0.63 6.23 3.89 -3.11 -0.10 13376
0.00 0.58 2.70 1.08 18.12 4.16 -2.23 0.12 13382
-0.01 0.72 5.10 2.53 19.92 4.05 -1.27 0.44 13388
-0.01 0.77 3.25 -2.46 19.63 3.67 -0.53 0.70 13395
-0.01 0.80 -0.54 -4.64 21.61 3.33 -0.16 0.81 13402
0.01 0.85 -3.77 -6.02 19.54 3.14 -0.06 0.77 13408
-0.01 0.91 -4.85 -3.59 17.39 3.19 -0.24 0.55 13414
-0.01 1.00 -5.33 -3.33 17.39 3.31 -0.20 0.25 13421
-0.02 1.06 -5.53 -3.16 19.37 3.35 -0.01 -0.10 13427
-0.03 1.11 -2.22 -3.00 18.43 3.33 0.32 -0.44 13433
-0.02 1.14 2.11 -2.96 18.35 3.30 0.75 -0.62 13441
-0.03 1.21 4.61 -3.04 19.66 3.25 1.12 -0.60 13447
-0.01 1.23 5.08 -3.52 21.96 3.02 1.11 -0.52 13453
-0.02 1.31 4.13 -3.69 17.81 1.23 -0.62 -0.21 13459
-0.02 1.35 1.87 -2.80 12.39 0.38 -0.72 0.09 13466
-0.01 1.39 0.01 -1.44 10.75 0.19 -0.49 0.13 13472
-0.01 1.39 0.37 -0.89 10.43 0.10 -0.27 0.06 13478
-0.01 1.38 0.92 -2.63 10.36 0.03 -0.10 0.07 13485
-0.00 1.37 1.12 -1.40 10.11 0.03 -0.09 0.12 13492
0.03 1.38 0.99 -1.08 9.90 0.04 -0.11 0.10 13498
0.04 1.36 0.10 -0.64 9.59 0.05 -0.12 0.10 13504
0.04 1.35 0.91 -1.21 9.94 0.08 -0.13 0.10 13510
0.10 1.34 0.91 -1.14 9.94 0.08 -0.14 0.10 13517
0.12 1.29 0.85 -1.06 9.90 0.09 -0.15 0.11 13523
0.12 1.27 0.83 -1.04 9.94 0.08 -0.15 0.12 13530
0.12 1.24 0.80 -1.06 9.93 0.07 -0.14 0.12 13536
0.13 1.20 0.77 -1.01 9.92 0.06 -0.14 0.15 13542
0.18 1.17 0.73 -0.98 9.89 0.06 -0.12 0.14 13549
0.20 1.10 0.74 -0.96 9.88 0.05 -0.10 0.15 13555
0.20 1.05 0.73 -1.00 9.93 0.05 -0.09 0.15 13561
0.23 1.00 0.77 -0.98 9.86 0.05 -0.09 0.16 13568
0.26 0.96 0.78 -1.00 9.90 0.06 -0.08 0.16 13574
0.26 0.86 0.75 -1.02 9.85 0.06 -0.08 0.17 13581
0.29 0.84 0.74 -0.96 9.89 0.05 -0.07 0.17 13587
0.31 0.71 0.77 -0.94 9.87 0.05 -0.05 0.17 13593
0.29 0.70 0.74 -1.01 9.91 0.05 -0.05 0.17 13599
0.32 0.62 0.77 -1.01 9.89 0.06 -0.06 0.16 13605
0.33 0.53 0.82 -1.00 9.85 0.05 -0.06 0.16 13613
0.35 0.52 0.82 -1.03 9.84 0.06 -0.07 0.16 13619
0.40 0.45 0.84 -1.06 9.85 0.06 -0.08 0.15 13625
0.42 0.40 0.85 -1.09 9.86 0.07 -0.10 0.15 13631
0.46 0.33 0.84 -1.09 9.85 0.07 -0.11 0.14 13637
0.51 0.25 0.87 -1.08 9.91 0.08 -0.12 0.12 13644
0.52 0.15 0.77 -1.09 9.91 0.08 -0.12 0.12 13650
0.58 0.10 0.74 -1.12 9.98 0.09 -0.12 0.11 13657
0.60 0.01 0.78 -1.16 9.93 0.09 -0.12 0.10 13663
0.63 -0.01 0.76 -1.17 9.94 0.10 -0.11 0.10 13669
0.61 -0.00 0.83 -1.20 9.98 0.10 -0.11 0.09 13676
0.66 -0.01 0.76 -0.65 10.05 0.12 -0.13 0.08 13682
0.68 -0.03 0.77 -1.30 9.97 0.14 -0.15 0.06 13688
0.71 -0.02 0.84 -1.26 9.97 0.17 -0.18 0.00 13694
0.73 -0.02 0.91 -1.33 9.99 0.20 -0.21 0.03 13701
0.73 -0.03 0.89 -1.41 9.99 0.22 -0.23 0.00 13708
0.79 -0.01 0.89 -1.44 10.04 0.23 -0.24 -0.01 13714
0.80 -0.04 0.91 -1.47 10.12 0.26 -0.26 -0.03 13720
0.83 -0.04 0.90 -1.50 10.05 0.28 -0.29 -0.05 13726
0.85 -0.03 0.85 -1.55 9.96 0.30 -0.29 -0.06 13733
0.92 -0.05 0.77 -1.55 9.81 0.29 -0.28 -0.07 13740
0.90 -0.02 0.73 -1.56 9.93 0.28 -0.26 -0.07 13746
0.96 -0.02 0.74 -1.66 9.88 0.28 -0.25 -0.07 13752
0.96 -0.02 0.69 -1.65 9.86 0.26 -0.22 -0.07 13759
0.98 -0.01 0.77 -1.65 9.88 0.26 -0.21 -0.07 13765
1.02 -0.02 0.71 -1.66 10.02 0.26 -0.20 -0.07 13771
1.06 -0.03 0.68 -1.66 9.91 0.26 -0.19 -0.07 13777
1.11 -0.03 0.71 -1.72 9.92 0.28 -0.20 -0.07 13784
1.12 -0.04 0.66 -1.75 9.93 0.29 -0.20 -0.07 13791
1.12 -0.04 0.68 -1.78 9.92 0.28 -0.18 -0.08 13797
1.13 -0.04 0.51 -1.78 9.82 0.28 -0.17 -0.08 13803
1.15 -0.04 0.59 -1.84 9.87 0.27 -0.16 -0.07 13809
1.23 -0.03 0.56 -1.86 9.87 0.27 -0.14 -0.06 13815
1.30 -0.03 0.58 -1.88 9.87 0.26 -0.13 -0.06 13822
1.27 -0.02 0.49 -1.85 9.94 0.27 -0.10 -0.06 13829
1.32 -0.03 0.62 -1.88 9.90 0.27 -0.09 -0.05 13835
1.38 -0.03 0.55 -1.93 10.00 0.28 -0.08 -0.05 13841
1.42 -0.04 0.69 -2.93 10.66 0.31 -0.07 -0.04 13848
1.46 -0.04 0.68 -2.06 11.01 0.35 -0.06 -0.04 13854
1.50 -0.04 0.70 -2.10 10.68 0.41 -0.06 -0.05 13860
1.53 -0.05 0.88 -2.08 10.93 0.49 -0.07 -0.06 13867
1.53 -0.04 0.85 -2.27 11.12 0.58 -0.09 -0.08 13874
1.61 -0.05 0.87 -2.19 11.26 0.69 -0.12 -0.10 13880
1.68 -0.06 0.80 -2.16 11.33 0.80 -0.14 -0.12 13886
1.69 -0.07 0.73 -2.27 11.42 0.93 -0.16 -0.13 13893
1.76 -0.07 0.67 -2.26 11.42 1.05 -0.19 -0.14 13899
1.78 -0.08 0.69 -2.39 12.25 1.15 -0.22 -0.14 13905
1.82 -0.06 0.48 -3.54 11.55 1.24 -0.25 -0.14 13912
1.82 -0.07 0.40 -2.49 11.77 1.33 -0.29 -0.13 13919
1.88 -0.06 0.39 -2.45 11.73 1.42 -0.30 -0.13 13925
1.92 -0.06 0.50 -0.06 14.08 1.58 -0.32 -0.17 13931
1.90 -0.05 0.35 -2.88 13.21 1.82 -0.31 -0.14 13937
1.95 -0.05 0.70 -3.07 13.52 2.11 -0.32 -0.15 13944
1.92 -0.05 0.72 -3.60 13.83 2.41 -0.31 -0.17 13950
1.86 -0.05 0.76 -3.21 13.73 2.69 -0.31 -0.21 13957
1.88 -0.07 0.73 -3.25 13.93 2.96 -0.30 -0.27 13964
1.82 -0.04 0.75 -3.43 14.36 3.24 -0.31 -0.27 13970
1.74 -0.05 0.21 -3.48 14.82 3.55 -0.34 -0.31 13976
1.61 -0.06 0.69 -4.26 15.79 3.92 -0.35 -0.35 13982
1.42 -0.04 1.50 -4.29 16.07 4.23 -0.47 -0.43 13989
1.29 -0.04 1.98 -2.85 16.57 4.28 -0.48 -0.53 13996
1.14 -0.04 2.21 -5.50 17.81 4.28 -0.58 -0.64 14002
0.97 -0.05 1.80 -6.06 19.32 4.28 -0.67 -0.74 14009
0.79 -0.01 2.16 -7.19 22.05 4.28 -0.80 -0.80 14015
0.71 -0.03 2.60 -9.29 24.47 4.28 -0.95 -0.87 14021
0.57 -0.02 2.53 -13.00 28.08 4.28 -0.97 -0.89 14027
0.48 -0.01 1.90 -16.36 30.08 4.28 -0.71 -0.80 14034
0.36 -0.02 1.12 -16.52 29.52 4.28 -0.57 -0.78 14041
0.30 -0.01 0.89 -14.85 28.53 4.28 -0.64 -0.79 14047
0.19 -0.01 0.17 -11.85 28.33 4.28 -0.67 -0.70 14054
0.22 -0.01 0.46 -8.78 30.94 4.28 -0.55 -0.57 14060
0.13 -0.01 1.60 -5.90 32.15 4.28 -0.55 -0.55 14066
0.08 0.01 3.15 -1.43 32.34 4.28 -0.65 -0.56 14073
0.09 0.01 4.99 2.97 30.89 4.28 -0.87 -0.56 14080
0.07 0.01 6.96 9.70 30.08 4.28 -0.95 -0.58 14086
0.05 0.00 6.74 13.40 27.56 4.28 -0.63 -0.64 14092
0.05 0.01 5.36 14.09 24.16 4.28 0.07 -0.86 14099
0.07 0.01 3.13 2.95 -11.22 4.28 0.72 -1.43 14105
0.05 -0.01 6.50 5.33 11.84 4.28 -0.17 -2.02 14111
0.04 0.00 6.98 13.42 12.13 4.10 -0.29 -2.24 14117
0.04 -0.00 5.53 27.49 14.67 1.61 0.34 -2.38 14125
0.04 -0.00 7.03 21.59 24.79 -0.11 1.13 -2.23 14131
0.06 -0.01 4.53 12.94 22.60 -1.62 1.25 -1.99 14137
0.05 -0.00 2.35 10.86 18.33 -2.82 1.02 -1.72 14144
0.05 0.00 1.45 10.99 14.36 -3.65 0.64 -1.42 14150
0.04 -0.00 1.61 9.22 11.10 -4.02 0.29 -1.17 14156
0.05 0.00 2.22 7.04 9.00 -4.12 -0.02 -0.99 14162
0.07 0.00 2.74 5.42 7.22 -4.12 -0.20 -0.85 14169
0.05 -0.00 2.95 4.89 5.93 -4.09 -0.25 -0.71 14176
0.05 0.00 3.36 4.37 5.33 -4.01 -0.21 -0.58 14182
0.06 -0.00 3.71 3.85 5.53 -3.93 -0.10 -0.49 14188
0.05 -0.00 4.05 3.27 6.15 -3.90 0.10 -0.42 14194
0.04 0.00 4.33 3.25 6.98 -3.93 0.37 -0.34 14200
0.05 -0.00 4.17 3.12 7.94 -4.02 0.65 -0.27 14206
0.05 -0.00 3.88 3.10 9.09 -4.11 0.89 -0.21 14214
0.03 -0.00 3.12 2.68 9.71 -4.20 1.09 -0.14 14220
0.04 -0.00 2.63 2.04 9.91 -4.25 1.24 -0.04 14226
0.04 -0.00 2.24 1.49 10.40 -4.28 1.32 0.05 14232
0.03 -0.00 1.75 0.62 11.05 -4.28 1.33 0.13 14238
0.04 -0.00 1.44 -0.30 11.64 -4.28 1.29 0.21 14245
0.04 -0.00 1.33 -1.03 12.00 -4.28 1.24 0.27 14252
0.03 -0.00 1.19 -1.60 12.50 -4.28 1.17 0.33 14258
0.06 -0.01 1.13 -2.14 12.93 -4.28 1.13 0.36 14264
0.04 -0.00 1.22 -2.61 13.40 -4.28 1.13 0.37 14270
0.05 -0.00 1.33 -3.14 13.85 -4.28 1.19 0.35 14277
0.05 -0.00 1.55 -3.68 14.35 -4.28 1.32 0.32 14283
0.05 -0.00 1.48 -4.38 14.74 -4.28 1.50 0.27 14289
0.05 0.01 1.40 -5.05 15.44 -4.28 1.69 0.21 14296
0.04 -0.00 1.18 -5.73 16.06 -4.28 1.89 0.15 14303
0.04 -0.00 0.96 -6.30 16.64 -4.28 2.05 0.08 14309
0.05 -0.00 0.68 -6.72 17.03 -4.28 2.17 0.02 14315
0.04 -0.00 0.41 -6.91 17.43 -4.28 2.23 -0.00 14321
0.04 -0.00 0.22 -7.12 17.97 -4.27 2.23 0.00 14327
0.06 -0.01 -0.04 -7.31 18.62 -4.26 2.20 0.04 14334
0.05 -0.00 -0.20 -7.53 19.18 -4.23 2.13 0.10 14341
0.04 -0.00 -0.35 -7.81 19.72 -4.19 2.04 0.19 14347
0.05 -0.01 -0.35 -8.11 20.21 -4.14 1.93 0.29 14353
0.04 -0.00 -0.45 -8.35 20.50 -4.07 1.81 0.40 14359
0.04 0.01 -0.32 -8.69 20.87 -3.99 1.76 0.51 14366
0.04 -0.00 -0.31 -9.35 21.15 -3.89 1.64 0.60 14372
0.03 -0.00 -0.27 -10.19 21.22 -3.78 1.59 0.67 14379
0.06 -0.01 -0.05 -11.09 20.95 -3.65 1.49 0.72 14385
0.05 -0.00 -0.09 -12.36 20.87 -3.48 1.41 0.75 14392
0.04 -0.00 0.31 -13.16 20.50 -3.28 1.31 0.77 14398
0.05 -0.00 0.64 -14.12 20.28 -3.05 1.20 0.77 14404
0.03 -0.00 0.92 -15.15 20.49 -2.81 1.12 0.77 14410
0.06 -0.01 1.06 -15.96 20.61 -2.61 1.09 0.77 14417
0.04 -0.00 1.05 -16.73 20.70 -2.47 1.09 0.78 14424
0.04 0.01 1.07 -17.54 20.59 -2.44 1.11 0.78 14430
0.05 0.00 1.01 -18.03 19.97 -2.49 1.15 0.79 14437
0.04 0.00 1.23 -18.88 18.69 -2.63 1.25 0.81 14443
0.05 -0.00 1.19 -19.12 15.93 -2.75 1.44 0.87 14449
0.04 -0.00 0.44 -19.26 12.78 -2.81 1.85 1.04 14455
0.06 -0.00 -0.85 -19.85 10.05 -2.76 2.51 1.37 14462
0.05 -0.00 -3.92 -22.10 9.25 -2.59 3.17 1.80 14469
0.04 0.00 -6.21 -25.54 9.45 -2.41 3.47 2.17 14475
0.04 -0.00 -9.13 -28.59 8.42 -2.23 3.11 2.39 14481
0.03 -0.00 -10.96 -30.91 5.60 -2.05 2.30 2.48 14488
0.05 -0.00 -11.41 -31.72 1.03 -1.80 1.40 2.49 14494
0.04 -0.00 -11.50 -31.06 -1.16 -1.40 0.64 2.42 14500
0.05 0.00 -9.37 -30.39 -1.13 -0.83 0.05 2.19 14507
0.04 0.00 -8.57 -29.11 -0.54 -0.14 -0.43 1.85 14514
0.04 0.00 -6.61 -26.58 1.89 0.51 -0.80 1.44 14520
0.05 0.00 -8.66 -41.79 8.18 1.12 -1.23 1.11 14526
0.04 -0.00 -6.38 -29.15 4.37 3.25 -2.04 0.90 14532
0.04 0.00 -11.90 -27.23 -4.58 3.27 -2.73 0.72 14539
0.04 0.05 -3.17 5.10 -0.01 3.48 -3.73 0.61 14545
0.01 0.58 -2.25 -3.32 9.91 3.65 -3.21 0.77 14552
0.01 0.69 3.83 4.46 18.61 4.00 -1.79 1.07 14558
-0.01 0.78 0.85 -2.64 15.26 3.83 -0.70 1.34 14565
-0.01 0.84 -3.98 -4.69 22.19 3.76 -0.29 1.33 14571
-0.01 0.90 -7.91 -6.94 20.18 3.52 -0.13 1.10 14577
-0.01 0.94 -7.72 -6.03 19.64 3.56 -0.26 0.71 14584
-0.01 1.01 -7.44 -4.39 19.75 3.69 -0.17 0.28 14590
-0.03 1.09 -6.24 -3.54 21.54 3.70 -0.01 -0.14 14597
-0.01 1.16 -1.84 -3.87 20.53 3.52 0.24 -0.48 14603
-0.03 1.20 2.91 -3.61 18.56 3.31 0.66 -0.56 14610
-0.02 1.26 4.94 -2.67 16.37 3.16 0.92 -0.45 14616
-0.02 1.30 5.30 -2.86 18.00 3.12 1.05 -0.30 14622
-0.03 1.37 6.17 -3.61 30.11 2.46 0.17 -0.13 14629
-0.03 1.41 1.11 -2.58 12.38 0.61 -0.93 0.11 14636
-0.02 1.41 -0.06 -2.48 11.51 0.30 -0.69 0.16 14642
-0.01 1.44 0.20 -1.65 10.86 0.15 -0.38 0.10 14648
0.02 1.42 2.01 -0.54 10.31 0.05 -0.18 0.07 14655
0.03 1.44 0.97 -2.08 10.15 0.04 -0.11 0.12 14661
0.06 1.45 0.83 -1.12 9.97 0.05 -0.13 0.12 14667
0.06 1.44 0.58 -0.67 9.95 0.08 -0.16 0.12 14673
0.12 1.42 0.82 -1.15 9.92 0.08 -0.17 0.11 14680
0.11 1.39 0.81 -1.06 9.92 0.08 -0.16 0.12 14687
0.11 1.38 0.81 -1.01 9.84 0.07 -0.15 0.12 14693
0.14 1.34 0.81 -1.06 9.84 0.06 -0.14 0.14 14699
0.15 1.31 0.76 -1.06 9.90 0.06 -0.14 0.15 14705
0.17 1.27 0.76 -1.02 9.91 0.06 -0.14 0.16 14712
0.19 1.22 0.74 -1.05 9.89 0.05 -0.14 0.16 14718
0.21 1.16 0.73 -0.97 9.95 0.05 -0.13 0.16 14725
0.25 1.10 0.15 -1.15 10.12 0.05 -0.12 0.17 14731
0.24 1.03 0.78 -0.97 9.83 0.06 -0.10 0.15 14737
0.27 0.98 0.72 -1.00 9.87 0.05 -0.09 0.17 14744
0.30 0.89 0.71 -0.99 9.85 0.06 -0.09 0.18 14750
0.29 0.83 0.72 -0.98 9.91 0.06 -0.08 0.17 14756
0.32 0.80 0.67 -0.95 9.87 0.06 -0.06 0.18 14763
0.36 0.70 0.73 -0.97 9.87 0.06 -0.06 0.17 14769
0.36 0.63 0.75 -0.99 9.87 0.06 -0.06 0.17 14776
0.39 0.57 0.77 -1.04 9.84 0.06 -0.06 0.17 14782
0.40 0.49 0.79 -0.98 9.87 0.07 -0.07 0.13 14788
0.39 0.49 0.79 -1.06 9.83 0.07 -0.08 0.16 14794
0.43 0.44 0.80 -1.08 9.86 0.08 -0.08 0.15 14800
0.43 0.35 0.80 -1.11 9.87 0.08 -0.09 0.14 14808
0.44 0.31 0.78 -1.12 9.84 0.09 -0.11 0.13 14814
0.46 0.25 0.78 -1.10 9.83 0.09 -0.12 0.12 14820
0.48 0.14 0.76 -1.20 9.90 0.10 -0.12 0.11 14826
0.50 0.08 0.65 -1.27 9.92 0.10 -0.12 0.09 14832
0.54 0.01 0.69 -1.18 9.98 0.11 -0.13 0.10 14839
0.56 -0.02 0.69 -1.19 9.94 0.11 -0.12 0.09 14845
0.57 -0.02 0.74 -1.27 9.92 0.12 -0.12 0.07 14852
0.62 -0.02 0.78 -1.23 10.03 0.13 -0.12 0.06 14858
0.66 -0.04 0.81 -1.30 9.93 0.15 -0.13 0.05 14865
0.67 -0.02 0.87 -1.31 9.94 0.17 -0.15 0.03 14871
0.68 -0.03 0.88 -1.32 9.98 0.19 -0.17 0.02 14877
0.66 -0.03 0.87 -1.37 9.92 0.21 -0.19 -0.01 14883
0.67 0.01 0.94 -1.45 9.98 0.23 -0.20 -0.03 14889
0.72 -0.04 0.75 -1.43 9.90 0.23 -0.19 -0.04 14897
0.72 -0.04 0.74 -1.48 10.11 0.24 -0.19 -0.05 14903
0.75 -0.01 0.82 -1.57 9.93 0.24 -0.18 -0.05 14909
0.78 -0.01 0.65 -1.57 9.93 0.24 -0.18 -0.05 14915
0.78 -0.01 0.73 -1.61 9.79 0.22 -0.17 -0.05 14921
0.83 -0.02 0.61 -1.58 9.81 0.20 -0.14 -0.05 14928
0.86 -0.02 0.64 -1.59 9.81 0.18 -0.14 -0.04 14935
0.88 -0.02 0.74 -1.56 9.86 0.18 -0.14 -0.04 14941
0.93 -0.04 0.76 -1.67 9.97 0.18 -0.14 -0.04 14947
0.92 -0.04 0.68 -1.60 10.02 0.19 -0.14 -0.05 14954
0.98 -0.02 0.65 -1.69 9.92 0.19 -0.13 -0.05 14960
1.01 -0.02 0.78 -1.78 9.96 0.19 -0.13 -0.05 14966
1.02 -0.02 0.75 -1.67 10.06 0.20 -0.14 -0.05 14972
1.06 -0.01 0.74 -1.75 10.04 0.22 -0.14 -0.05 14979
1.13 -0.04 0.60 -1.75 9.95 0.23 -0.16 -0.06 14986
1.16 -0.02 0.59 -1.82 9.96 0.23 -0.16 -0.06 14992
1.19 -0.03 0.63 -1.77 9.97 0.23 -0.16 -0.06 14998
1.28 -0.06 0.58 -1.83 10.08 0.25 -0.15 -0.06 15004
1.28 -0.03 0.70 -1.90 10.29 0.27 -0.15 -0.06 15011
1.33 -0.04 0.69 -1.90 10.34 0.31 -0.15 -0.06 15017
1.37 -0.04 0.77 -1.97 10.58 0.37 -0.16 -0.06 15024
1.49 -0.05 0.81 -2.05 10.89 0.45 -0.16 -0.07 15030
1.53 -0.04 0.77 -1.86 10.94 0.54 -0.18 -0.09 15037
1.59 -0.06 0.76 -2.14 11.05 0.63 -0.18 -0.10 15043
1.61 -0.06 0.71 -2.15 11.18 0.74 -0.18 -0.12 15049
1.65 -0.05 0.75 -2.16 11.24 0.85 -0.19 -0.12 15056
1.70 -0.06 0.58 -2.25 11.26 0.95 -0.20 -0.13 15063
1.74 -0.05 0.65 -2.34 11.36 1.07 -0.22 -0.13 15069
1.77 -0.06 0.71 -2.49 11.76 1.18 -0.23 -0.14 15075
1.80 -0.06 0.55 -2.53 11.81 1.31 -0.27 -0.14 15082
1.82 -0.05 0.82 -2.59 12.21 1.41 -0.33 -0.14 15088
1.87 -0.06 1.54 -3.04 10.98 1.55 -0.36 -0.14 15094
1.87 -0.04 0.72 -2.61 12.92 1.72 -0.40 -0.16 15101
1.90 -0.04 0.76 -2.83 13.70 1.95 -0.39 -0.18 15108
1.92 -0.06 0.42 -2.95 14.05 2.27 -0.41 -0.20 15114
1.95 -0.07 0.49 -3.01 14.30 2.64 -0.42 -0.21 15120
1.91 -0.06 0.56 -3.12 13.75 2.93 -0.39 -0.23 15127
1.86 -0.05 0.33 -3.24 14.18 3.16 -0.38 -0.25 15133
1.78 -0.07 0.68 -3.15 14.67 3.46 -0.34 -0.26 15139
1.65 -0.04 0.79 -3.28 15.01 3.80 -0.35 -0.29 15147
1.49 -0.04 1.23 -3.62 15.46 4.13 -0.40 -0.37 15153
1.33 -0.04 2.24 -4.38 16.81 4.28 -0.52 -0.49 15159
1.20 -0.04 0.81 -4.51 16.09 4.28 -0.59 -0.57 15165
1.05 -0.04 1.13 -1.39 18.30 4.28 -0.70 -0.64 15172
0.85 -0.03 2.09 -6.45 20.63 4.28 -0.81 -0.71 15178
0.72 -0.04 2.58 -8.50 23.74 4.28 -0.96 -0.78 15184
0.63 -0.01 2.83 -10.76 25.49 4.28 -1.03 -0.85 15192
0.55 -0.04 1.54 -13.33 28.93 4.28 -1.04 -0.84 15198
0.38 -0.01 1.33 -14.97 29.98 4.28 -0.93 -0.78 15204
0.31 -0.01 1.07 -14.28 28.12 4.28 -0.88 -0.75 15211
0.23 0.00 0.30 -12.79 25.67 4.28 -0.93 -0.70 15217
0.19 -0.01 0.02 -9.95 27.69 4.28 -0.78 -0.55 15223
0.15 0.00 0.31 -8.09 30.45 4.28 -0.73 -0.48 15229
0.12 0.01 1.73 -4.63 31.82 4.28 -0.87 -0.50 15237
0.08 0.01 3.61 -0.47 30.95 4.28 -1.09 -0.51 15243
0.08 0.02 5.82 4.11 29.09 4.28 -1.27 -0.50 15249
0.06 0.01 6.63 9.73 27.50 4.28 -1.24 -0.53 15255
0.05 0.01 6.59 12.85 26.10 4.28 -0.87 -0.59 15262
0.04 0.02 4.30 13.23 20.87 4.28 -0.19 -0.73 15268
0.04 0.01 13.76 4.70 5.54 4.28 0.07 -1.09 15275
0.06 0.00 6.76 5.46 13.75 4.28 -0.60 -1.24 15282
0.05 -0.01 4.38 15.92 8.86 3.14 -0.78 -1.23 15288
0.05 -0.00 3.67 28.54 12.95 0.77 -0.44 -1.24 15294
0.05 -0.00 6.13 18.79 23.37 -0.92 0.03 -1.07 15300
0.05 -0.00 4.01 10.70 21.87 -2.27 0.11 -0.87 15307
0.07 -0.01 2.82 9.83 17.63 -3.21 0.09 -0.63 15313
0.05 -0.01 2.42 10.09 13.49 -3.75 0.06 -0.36 15320
0.05 -0.00 2.67 8.47 10.55 -4.05 0.02 -0.17 15326
0.05 -0.01 2.93 6.63 8.84 -4.16 -0.05 -0.09 15332
0.05 -0.00 2.85 5.36 7.67 -4.20 -0.10 -0.05 15338
0.04 -0.00 2.66 4.67 6.68 -4.21 -0.07 -0.00 15345
0.05 -0.01 2.59 4.00 5.99 -4.20 -0.02 0.04 15351
0.05 -0.01 2.59 3.72 5.97 -4.19 0.02 0.04 15357
0.04 -0.00 2.55 3.29 6.11 -4.18 0.08 0.02 15364
0.05 -0.00 2.55 2.87 6.37 -4.18 0.15 -0.00 15370
0.06 -0.01 2.46 2.54 7.07 -4.20 0.22 -0.03 15376
0.05 -0.01 2.19 2.19 7.93 -4.21 0.28 -0.07 15383
0.05 -0.00 2.04 1.81 8.52 -4.23 0.32 -0.10 15389
0.05 -0.00 1.99 1.57 9.30 -4.26 0.33 -0.14 15395
0.05 -0.00 2.04 1.01 9.87 -4.27 0.30 -0.19 15401
0.05 -0.00 1.88 0.29 10.53 -4.28 0.24 -0.23 15408
0.05 -0.01 2.04 -0.19 11.13 -4.28 0.23 -0.27 15414
0.04 -0.00 2.35 -0.96 12.04 -4.28 0.20 -0.30 15421
0.05 -0.00 2.75 -1.44 12.81 -4.28 0.21 -0.32 15427
0.05 -0.01 3.21 -2.01 13.60 -4.28 0.28 -0.34 15433
0.05 -0.00 3.52 -2.57 13.83 -4.28 0.40 -0.36 15439
0.05 0.00 3.79 -3.09 14.18 -4.28 0.56 -0.36 15446
0.05 -0.00 3.81 -3.78 14.59 -4.28 0.73 -0.35 15453
0.03 -0.00 3.80 -4.67 14.88 -4.28 0.92 -0.34 15459
0.06 -0.01 3.91 -5.82 15.06 -4.28 1.11 -0.32 15465
0.04 -0.00 3.96 -6.90 15.36 -4.28 1.27 -0.28 15471
0.05 -0.00 3.93 -7.71 15.81 -4.28 1.40 -0.25 15478
0.05 -0.00 3.85 -8.17 16.20 -4.28 1.49 -0.19 15484
