Voltage_01 Voltage_02 Acc_x Acc_y Acc_z Gyro_x Gyro_y Gyro_z Time
5000
0.00 0.00 -0.65 -4.16 9.99 -0.31 -0.48 0.33 17
0.00 0.00 -0.15 -4.03 9.82 -0.30 -0.45 0.39 23
0.00 0.00 0.38 -3.99 9.77 -0.30 -0.39 0.45 29
0.00 0.00 0.56 -4.00 9.76 -0.30 -0.29 0.49 35
0.00 0.00 0.74 -4.13 9.82 -0.32 -0.17 0.52 41
0.00 0.00 0.68 -4.17 9.93 -0.34 -0.06 0.56 48
0.00 0.00 0.49 -4.24 9.22 -0.37 0.04 0.59 54
0.00 0.00 0.16 -4.41 9.49 -0.40 0.09 0.61 60
0.00 -0.00 -0.13 -4.55 9.08 -0.40 0.07 0.64 66
0.00 -0.00 -0.22 -4.74 8.54 -0.38 0.03 0.65 72
0.00 0.00 -0.25 -4.99 8.29 -0.33 -0.02 0.67 78
0.00 0.00 0.42 -6.75 8.39 -0.25 -0.05 0.67 84
0.00 0.00 0.82 -8.32 10.87 0.05 0.05 0.67 91
0.00 0.00 0.32 -6.16 5.96 0.30 0.10 0.65 97
0.00 0.00 0.28 -5.87 5.01 0.34 0.05 0.61 103
0.00 0.00 0.68 -6.93 8.29 0.41 0.03 0.56 109
0.00 0.00 0.89 -8.44 9.93 0.58 0.08 0.51 115
0.00 0.00 0.43 -7.94 7.68 0.71 0.13 0.44 121
0.00 -0.00 -0.06 -8.39 8.85 0.79 0.15 0.38 128
0.00 0.00 0.21 -9.42 7.90 0.86 0.11 0.31 135
0.00 0.00 0.50 -10.53 7.88 0.96 0.17 0.28 141
-0.00 0.01 0.15 -11.04 7.80 1.07 0.21 0.28 148
0.00 0.00 0.06 -5.25 8.03 1.25 0.24 0.29 155
0.00 0.00 0.37 -1.39 8.65 1.31 0.15 0.24 161
0.00 0.00 -0.03 -0.34 11.12 1.35 -0.14 0.17 167
-0.00 0.03 -0.41 0.60 13.72 1.28 -0.36 0.09 175
-0.01 0.09 -0.23 0.11 13.64 1.17 -0.39 0.01 182
-0.02 0.21 -0.26 1.26 11.52 1.06 -0.36 -0.02 189
-0.02 0.26 -1.50 -0.16 10.01 1.08 -0.36 -0.17 197
-0.02 0.25 -1.14 -0.61 9.65 1.23 -0.44 -0.32 203
-0.02 0.24 0.18 -0.97 10.47 1.40 -0.49 -0.44 211
-0.02 0.23 1.04 -1.25 12.02 1.47 -0.47 -0.44 218
-0.02 0.25 1.70 -1.49 13.42 1.43 -0.49 -0.38 225
-0.02 0.22 1.32 -2.21 16.52 1.20 -0.79 -0.28 233
-0.01 0.24 1.35 -1.36 11.63 0.47 -0.68 -0.13 240
-0.02 0.26 0.57 -1.42 10.88 0.18 -0.34 -0.04 247
-0.02 0.21 0.00 -1.29 10.46 0.04 -0.10 -0.02 253
-0.03 0.25 -0.11 -1.14 10.01 -0.01 -0.02 -0.03 261
-0.02 0.29 0.14 -1.04 9.90 -0.04 0.01 -0.05 268
-0.02 0.32 0.36 -1.06 9.75 -0.05 0.02 -0.06 275
-0.02 0.35 0.48 -1.11 9.83 -0.06 0.02 -0.06 282
-0.03 0.40 0.40 -0.99 9.75 -0.06 0.00 -0.04 289
-0.03 0.40 0.38 -0.93 9.85 -0.05 0.00 -0.05 296
-0.02 0.45 0.32 -0.94 9.86 -0.05 0.01 -0.06 304
-0.04 0.45 0.29 -0.95 9.85 -0.05 0.00 -0.06 311
-0.01 0.48 0.34 -1.00 9.82 -0.05 0.01 -0.07 318
-0.02 0.48 0.32 -0.96 9.82 -0.04 0.02 -0.07 325
-0.02 0.48 0.25 -0.93 9.82 -0.05 0.03 -0.07 332
-0.03 0.55 0.30 -0.88 9.85 -0.04 0.04 -0.07 339
-0.02 0.56 0.36 -0.90 9.79 -0.04 0.05 -0.07 347
-0.01 0.53 0.27 -0.92 9.81 -0.03 0.05 -0.07 354
-0.00 0.55 0.28 -0.92 9.83 -0.03 0.07 -0.07 361
-0.01 0.57 0.30 -0.88 10.00 -0.02 0.08 -0.03 368
-0.01 0.61 0.35 -0.89 9.83 -0.02 0.09 -0.07 375
-0.02 0.62 0.38 -0.88 9.82 -0.02 0.09 -0.06 382
-0.03 0.61 0.36 -0.85 9.80 -0.01 0.08 -0.07 390
-0.02 0.61 0.40 -0.90 9.80 -0.00 0.08 -0.07 397
0.00 0.58 0.41 -0.90 9.80 -0.00 0.08 -0.06 404
-0.00 0.59 0.39 -0.91 9.85 -0.00 0.07 -0.07 411
-0.01 0.57 0.37 -0.89 9.82 0.00 0.07 -0.08 418
-0.02 0.55 0.38 -0.89 10.41 0.00 0.07 -0.07 425
-0.00 0.53 0.44 -0.93 9.81 0.01 0.07 -0.08 433
0.00 0.53 0.36 -0.91 9.77 0.00 0.07 -0.08 440
0.01 0.52 0.40 -0.92 9.79 0.01 0.07 -0.08 447
-0.01 0.50 0.36 -0.92 9.80 0.01 0.08 -0.08 454
-0.00 0.49 0.39 -0.91 9.78 0.01 0.08 -0.08 461
-0.01 0.51 0.33 -0.89 9.80 0.02 0.09 -0.08 468
0.01 0.48 0.37 -0.91 9.79 0.02 0.10 -0.08 476
0.01 0.45 0.37 -0.91 9.77 0.02 0.10 -0.07 483
0.01 0.41 0.41 -0.93 9.79 0.02 0.11 -0.08 490
0.00 0.38 0.41 -0.89 9.76 0.03 0.11 -0.08 497
0.00 0.37 0.44 -0.90 9.70 0.03 0.11 -0.08 504
-0.00 0.37 0.48 -0.93 9.80 0.03 0.11 -0.08 512
0.01 0.31 0.46 -0.92 9.80 0.03 0.10 -0.08 519
0.03 0.28 0.44 -0.94 9.74 0.06 0.10 -0.09 526
0.03 0.22 0.43 -0.92 9.76 0.03 0.10 -0.08 533
0.03 0.18 0.46 -0.94 9.80 0.03 0.09 -0.08 540
0.01 0.22 0.46 -0.92 9.75 0.03 0.09 -0.08 547
0.01 0.21 0.46 -0.92 9.20 0.03 0.09 -0.09 555
0.03 0.21 0.46 -0.93 9.76 0.03 0.09 -0.09 562
0.05 0.14 0.41 -0.99 9.80 0.03 0.08 -0.08 569
0.07 0.15 0.48 -0.97 9.81 0.03 0.08 -0.09 576
0.05 0.10 0.46 -0.97 9.81 0.02 0.08 -0.09 583
0.01 0.11 0.51 -0.96 9.76 0.02 0.08 -0.09 590
0.02 0.11 0.52 -0.99 9.75 0.03 0.07 -0.09 598
0.03 0.13 0.50 -0.97 9.74 0.03 0.07 -0.09 605
0.06 0.07 0.49 -0.99 9.81 0.03 0.06 -0.09 612
0.06 0.06 0.48 -0.97 9.80 0.03 0.05 -0.09 619
0.07 0.05 0.51 -0.98 9.76 0.02 0.05 -0.09 626
0.05 0.04 0.45 -0.99 9.82 0.02 0.05 -0.09 633
0.08 0.05 0.54 -0.97 9.81 0.02 0.05 -0.08 641
0.08 0.06 0.51 -1.00 10.40 0.02 0.05 -0.09 648
0.08 0.03 0.50 -1.01 9.79 0.02 0.05 -0.09 655
0.08 0.01 0.48 -0.97 9.81 0.02 0.04 -0.09 662
0.10 0.01 0.55 -0.98 9.77 0.02 0.03 -0.09 669
0.13 0.01 0.51 -1.01 9.76 0.02 0.02 -0.09 676
0.14 0.00 0.54 -1.00 9.20 0.02 0.01 -0.09 684
0.16 -0.01 0.47 -1.02 9.81 0.02 0.01 -0.10 691
0.14 0.00 0.48 -0.97 9.77 0.02 0.01 -0.09 698
0.15 -0.00 0.48 -1.00 9.80 0.03 0.01 -0.10 705
0.18 -0.02 0.49 -1.02 9.79 0.02 0.01 -0.10 712
0.20 -0.02 0.45 -0.99 9.78 0.03 0.02 -0.10 719
0.21 -0.01 0.41 -1.05 9.81 0.04 0.03 -0.10 727
0.23 -0.00 0.39 -0.99 9.80 0.04 0.04 -0.10 734
0.25 -0.01 0.47 -1.02 9.82 0.05 0.05 -0.10 741
0.25 -0.01 0.44 -1.08 9.81 0.06 0.06 -0.10 748
0.27 -0.01 0.46 -1.07 9.83 0.07 0.06 -0.10 755
0.32 -0.01 0.45 -1.02 9.83 0.09 0.07 -0.10 762
0.33 -0.00 0.53 -1.04 9.83 0.11 0.08 -0.10 770
0.38 -0.02 0.51 -1.07 9.85 0.15 0.10 -0.10 777
0.36 -0.02 0.51 -1.07 9.89 0.18 0.11 -0.10 784
0.37 -0.03 0.47 -1.12 10.00 0.23 0.14 -0.10 791
0.40 -0.02 0.49 -1.12 10.07 0.30 0.17 -0.11 798
0.42 -0.02 0.53 -1.21 10.23 0.39 0.20 -0.11 806
0.46 -0.02 0.48 -1.17 10.33 0.52 0.21 -0.12 814
0.49 -0.03 0.61 -1.23 10.47 0.67 0.22 -0.12 821
0.52 -0.03 1.21 -1.32 10.45 0.82 0.20 -0.14 828
0.57 -0.04 0.62 -1.41 10.68 0.97 0.15 -0.15 835
0.62 -0.03 0.59 -1.51 11.03 1.07 0.05 -0.16 841
0.70 -0.04 0.66 -1.57 11.04 1.17 -0.01 -0.17 849
0.72 -0.03 0.67 -1.67 10.97 1.25 -0.07 -0.17 857
0.77 -0.03 0.63 -1.73 10.81 1.31 -0.12 -0.18 864
0.80 -0.03 0.57 -1.91 11.16 1.39 -0.19 -0.18 871
0.79 -0.04 0.78 -1.89 11.13 1.48 -0.24 -0.18 878
0.82 -0.03 0.76 -2.17 11.44 1.59 -0.28 -0.19 885
0.83 -0.02 0.68 -2.22 11.37 1.70 -0.32 -0.20 892
0.91 -0.04 0.68 -2.12 11.16 1.80 -0.40 -0.22 900
0.91 -0.04 0.69 -2.37 11.33 1.91 -0.42 -0.23 907
0.95 -0.04 0.39 -2.48 11.70 2.06 -0.48 -0.24 914
0.98 -0.04 0.26 -2.72 12.05 2.20 -0.52 -0.24 921
0.99 -0.04 0.31 -2.81 12.03 2.38 -0.56 -0.24 928
0.99 -0.03 0.30 -2.97 12.22 2.55 -0.60 -0.23 935
1.00 -0.04 -0.15 -2.97 13.25 2.76 -0.64 -0.22 943
0.95 -0.04 0.16 -3.12 13.23 3.04 -0.63 -0.19 950
0.90 -0.04 0.81 -3.37 13.45 3.29 -0.66 -0.21 957
0.84 -0.04 1.10 -3.79 13.87 3.58 -0.69 -0.27 964
0.71 -0.03 1.01 -4.30 14.48 3.87 -0.74 -0.34 971
0.54 -0.02 0.31 -4.88 15.34 4.15 -0.78 -0.43 978
0.45 -0.03 0.40 -5.45 15.67 4.27 -0.86 -0.44 986
0.33 -0.02 0.32 -6.83 17.40 4.28 -0.86 -0.47 993
0.27 -0.02 0.41 -7.67 18.63 4.28 -0.88 -0.51 1000
0.24 0.00 0.67 -8.82 19.83 4.28 -0.82 -0.53 1006
0.22 -0.01 0.74 -9.27 20.74 4.28 -0.66 -0.54 1014
0.18 -0.01 1.35 -9.73 20.67 4.28 -0.38 -0.54 1021
0.13 -0.01 1.14 -8.97 20.82 4.28 -0.05 -0.52 1028
0.10 -0.01 0.64 -7.78 20.22 4.28 0.15 -0.53 1035
0.07 -0.01 -0.23 -6.16 19.58 4.28 0.25 -0.55 1042
0.07 -0.01 -0.74 -4.73 20.94 4.28 0.26 -0.55 1049
0.04 -0.00 -1.03 -4.44 22.12 4.28 0.12 -0.57 1056
0.09 -0.01 -0.24 -3.18 22.29 4.28 -0.19 -0.58 1063
0.04 -0.00 1.27 -1.93 25.34 4.28 -0.47 -0.61 1071
0.04 -0.00 2.02 0.49 24.20 4.28 -0.75 -0.67 1078
0.01 -0.00 4.41 7.88 16.46 4.28 -0.73 -0.70 1085
0.00 0.00 5.95 10.61 10.57 3.79 -0.48 -0.74 1092
-0.00 0.00 5.40 20.86 3.87 2.67 -0.33 -0.91 1099
0.00 0.00 3.89 24.26 -3.54 1.76 -0.41 -1.25 1106
0.00 0.00 5.81 11.29 25.61 0.49 0.22 -1.38 1114
0.00 0.00 3.86 8.02 23.27 -1.26 0.48 -1.24 1121
0.00 0.00 1.66 9.34 15.41 -2.22 0.60 -1.05 1128
0.00 0.00 0.88 10.31 10.40 -2.66 0.47 -0.91 1135
0.00 0.00 1.11 9.64 6.89 -3.14 0.29 -0.83 1142
0.00 -0.00 1.58 7.50 6.50 -3.31 0.05 -0.79 1149
0.00 0.00 1.91 5.20 7.42 -3.31 -0.10 -0.77 1157
0.00 0.00 2.06 4.23 7.67 -3.29 -0.17 -0.75 1164
0.00 0.00 2.54 3.94 8.23 -3.27 -0.13 -0.74 1171
0.00 0.00 3.01 3.94 8.04 -3.32 -0.06 -0.76 1178
0.00 -0.00 3.15 4.27 7.98 -3.48 0.05 -0.75 1185
0.00 0.00 3.21 4.33 8.44 -3.67 0.18 -0.71 1192
0.00 0.00 3.39 3.96 9.00 -3.89 0.31 -0.66 1200
0.00 0.00 3.25 3.26 9.50 -4.07 0.45 -0.58 1207
0.00 0.00 3.26 2.62 9.63 -4.14 0.62 -0.45 1214
0.00 0.00 3.32 1.90 9.58 -4.20 0.81 -0.35 1221
0.00 0.00 3.11 1.25 9.74 -4.23 0.96 -0.22 1228
0.00 0.00 2.91 0.69 10.05 -4.24 1.00 -0.11 1235
0.00 0.00 2.68 -0.00 10.68 -4.25 1.04 -0.01 1243
0.00 0.00 2.56 -0.67 11.49 -4.25 1.07 0.09 1250
0.00 0.00 2.34 -1.07 12.60 -4.25 1.11 0.15 1257
0.00 0.00 2.21 -1.41 13.48 -4.25 1.16 0.18 1264
0.00 0.00 2.02 -1.71 14.39 -4.26 1.23 0.18 1271
0.00 0.00 1.90 -2.24 15.04 -4.27 1.35 0.13 1278
0.00 0.00 1.83 -3.20 15.50 -4.27 1.52 0.06 1286
0.00 0.00 1.60 -4.04 16.04 -4.28 1.71 -0.02 1293
0.00 0.00 1.24 -4.79 16.54 -4.28 1.86 -0.10 1300
0.00 0.00 0.90 -5.67 17.17 -4.27 1.96 -0.15 1307
0.00 0.00 0.59 -6.02 16.83 -4.25 2.02 -0.15 1314
0.00 0.00 0.40 -6.35 17.11 -4.20 1.96 -0.11 1321
0.00 0.00 0.03 -7.24 17.38 -4.07 1.86 -0.06 1329
0.00 0.00 -0.00 -7.70 16.93 -3.82 1.71 0.01 1336
0.00 0.00 -0.13 -8.11 17.12 -3.58 1.59 0.05 1343
0.00 0.00 0.05 -8.46 16.95 -3.29 1.50 0.10 1350
0.00 0.00 -0.22 -8.73 17.20 -3.08 1.45 0.13 1357
0.00 0.00 -0.51 -9.29 17.53 -2.88 1.46 0.13 1364
0.00 0.00 -0.78 -9.68 17.67 -2.69 1.49 0.12 1372
0.00 0.00 -0.99 -10.07 17.78 -2.56 1.51 0.10 1379
0.00 0.00 -0.77 -10.42 18.65 -2.44 1.55 0.08 1386
-0.00 0.00 -0.09 -10.58 19.71 -2.41 1.66 0.04 1393
0.00 0.00 0.22 -10.50 20.03 -2.50 1.84 0.00 1400
0.00 0.00 -0.30 -10.53 20.25 -2.71 2.06 -0.02 1408
0.00 0.00 -1.74 -10.68 19.89 -2.94 2.18 0.01 1415
0.00 0.00 -1.89 -11.25 18.67 -3.15 2.18 0.06 1422
0.00 0.00 -2.57 -12.29 16.56 -3.25 2.02 0.17 1429
-0.00 0.00 -2.86 -13.54 14.41 -3.19 1.83 0.27 1437
0.00 0.00 -3.00 -14.83 12.75 -2.98 1.60 0.40 1443
0.00 0.00 -2.92 -16.03 11.43 -2.71 1.41 0.54 1451
0.00 0.00 -2.84 -16.65 10.27 -2.37 1.32 0.66 1458
0.00 0.00 -3.03 -17.15 9.13 -2.05 1.26 0.78 1465
0.00 0.00 -3.42 -17.57 8.59 -1.79 1.23 0.92 1472
0.00 0.00 -4.24 -18.08 8.38 -1.52 1.19 1.05 1479
0.00 0.00 -5.11 -18.52 7.57 -1.29 1.10 1.21 1486
0.00 0.00 -5.71 -18.82 6.50 -1.03 0.92 1.33 1494
0.00 0.00 -6.10 -19.32 5.59 -0.76 0.62 1.45 1501
0.00 0.00 -5.93 -19.52 5.42 -0.53 0.38 1.53 1508
0.00 0.00 -5.35 -19.22 5.63 -0.25 0.16 1.54 1515
0.00 -0.00 -4.74 -18.62 6.07 -0.02 0.04 1.50 1522
0.00 0.00 -4.55 -17.57 6.32 0.18 -0.04 1.42 1529
0.00 0.00 -4.39 -16.15 6.65 0.36 -0.15 1.29 1537
0.00 0.00 -4.08 -15.04 7.30 0.52 -0.27 1.13 1544
0.00 0.00 -3.46 -14.10 7.68 0.74 -0.42 0.99 1551
0.00 0.00 -2.53 -13.00 8.27 0.98 -0.54 0.83 1558
0.00 0.00 -15.09 -15.15 62.64 2.08 -1.23 0.98 1565
0.00 0.00 0.38 -3.52 5.63 2.90 -1.41 1.14 1572
0.00 0.00 1.27 8.65 2.92 2.82 -1.48 0.89 1580
-0.00 0.03 2.42 2.19 7.45 2.34 -1.43 0.87 1587
-0.01 0.07 0.84 8.92 7.88 2.17 -0.77 1.13 1594
-0.01 0.10 1.13 3.20 4.63 2.24 -0.15 1.29 1601
-0.01 0.22 -3.57 -0.31 10.00 2.97 -0.11 1.23 1609
-0.03 0.36 -7.12 -3.75 15.70 3.59 -0.58 0.95 1616
-0.04 0.58 -5.71 -5.50 17.17 3.78 -0.67 0.59 1624
-0.05 0.69 -3.53 -4.11 20.44 3.68 -0.49 0.35 1631
-0.04 0.82 -4.05 -3.17 19.73 3.36 -0.19 0.04 1638
-0.04 0.89 -3.21 -2.68 17.47 3.00 -0.09 -0.28 1645
-0.05 0.95 0.29 -2.57 17.61 2.85 -0.06 -0.57 1652
-0.05 0.99 2.89 -2.35 21.09 2.73 -0.34 -0.58 1659
-0.05 0.93 3.53 -1.86 18.55 1.39 -1.15 -0.37 1667
-0.06 1.02 2.51 -2.70 11.81 0.64 -0.76 -0.02 1674
-0.05 1.01 0.55 -1.74 10.67 0.36 -0.51 0.08 1681
-0.04 0.98 -0.20 -0.75 10.39 0.22 -0.35 0.03 1688
-0.04 0.98 0.26 -0.90 10.17 0.13 -0.27 -0.06 1695
-0.05 0.98 0.83 -1.20 10.00 0.08 -0.18 -0.07 1701
-0.05 0.97 1.90 -1.42 10.87 0.07 -0.12 -0.03 1710
-0.07 0.99 0.59 -0.93 9.89 0.05 -0.11 -0.03 1716
-0.06 0.99 0.55 -0.84 9.84 0.04 -0.09 -0.05 1723
-0.05 0.94 0.60 -0.89 9.81 0.03 -0.07 -0.06 1730
-0.05 0.91 0.61 -0.92 9.82 0.03 -0.06 -0.06 1737
-0.06 0.88 0.50 -0.88 9.82 0.03 -0.04 -0.06 1744
-0.06 0.82 0.47 -0.93 9.82 0.02 -0.01 -0.06 1752
-0.05 0.81 0.41 -0.87 9.82 0.02 0.03 -0.05 1759
-0.04 0.74 0.43 -0.88 9.83 0.02 0.06 -0.05 1766
-0.03 0.71 0.46 -0.86 9.20 0.03 0.08 -0.05 1773
-0.00 0.61 0.53 -0.84 9.80 0.03 0.09 -0.04 1780
-0.00 0.54 0.53 -0.88 9.78 0.03 0.11 -0.04 1787
-0.00 0.52 0.54 -0.85 9.77 0.03 0.11 -0.05 1795
-0.00 0.49 0.54 -0.86 9.75 0.03 0.12 -0.05 1802
-0.01 0.47 0.63 -0.82 9.78 0.04 0.12 -0.05 1809
0.02 0.39 0.71 -0.90 9.73 0.04 0.11 -0.07 1816
0.01 0.41 0.71 -0.89 9.75 0.04 0.11 -0.08 1823
0.01 0.34 0.67 -0.90 9.71 0.04 0.10 -0.08 1830
0.00 0.32 0.67 -0.88 9.78 0.04 0.10 -0.08 1838
0.01 0.31 0.63 -0.86 9.79 0.04 0.09 -0.09 1845
0.02 0.23 0.61 -0.89 9.79 0.04 0.10 -0.08 1852
0.00 0.20 1.17 -0.90 9.81 0.04 0.13 -0.08 1859
0.01 0.19 0.59 -0.94 9.66 0.04 0.10 -0.08 1866
0.02 0.20 0.60 -0.93 9.77 0.03 0.11 -0.08 1873
0.02 0.16 0.64 -0.89 9.69 0.04 0.11 -0.07 1881
0.02 0.10 0.69 -0.89 9.75 0.04 0.11 -0.08 1888
0.03 0.11 0.70 -0.93 9.75 0.04 0.11 -0.08 1895
0.02 0.12 0.68 -0.91 9.76 0.04 0.11 -0.07 1902
0.03 0.08 0.72 -0.90 9.74 0.04 0.10 -0.08 1909
0.04 0.05 0.68 -0.91 9.79 0.04 0.10 -0.08 1916
0.04 0.08 0.70 -0.90 9.76 0.04 0.10 -0.08 1924
0.06 0.04 0.73 -0.95 9.81 0.04 0.09 -0.08 1931
0.06 0.05 0.70 -0.93 9.81 0.04 0.09 -0.08 1938
0.05 0.03 0.68 -0.95 9.71 0.04 0.08 -0.08 1945
0.06 0.04 0.66 -0.90 9.80 0.04 0.08 -0.08 1952
0.08 0.02 0.73 -0.94 9.77 0.05 0.07 -0.08 1959
0.07 0.03 0.74 -0.95 9.81 0.05 0.07 -0.08 1967
0.10 -0.00 0.72 -0.95 9.81 0.05 0.07 -0.08 1974
0.11 0.00 0.72 -0.98 9.74 0.05 0.06 -0.08 1981
0.11 -0.01 0.74 -0.99 9.77 0.05 0.07 -0.08 1988
0.09 -0.01 0.73 -0.96 9.78 0.05 0.07 -0.08 1995
0.08 -0.00 0.72 -0.99 9.79 0.05 0.07 -0.09 2002
0.11 -0.01 0.73 -0.98 9.76 0.05 0.06 -0.09 2010
0.11 -0.00 0.76 -1.02 9.76 0.05 0.05 -0.09 2017
0.12 -0.01 0.75 -1.01 9.79 0.06 0.05 -0.09 2024
0.13 -0.01 0.71 -1.01 9.80 0.06 0.04 -0.10 2031
0.15 -0.02 0.74 -1.02 9.73 0.06 0.03 -0.10 2038
0.16 -0.02 0.73 -1.05 9.72 0.06 0.03 -0.11 2045
0.18 -0.01 0.76 -1.00 9.75 0.07 0.03 -0.11 2053
0.19 -0.01 0.72 -0.98 9.76 0.08 0.03 -0.12 2060
0.22 -0.02 0.70 -0.95 9.80 0.08 0.04 -0.12 2067
0.25 -0.02 0.74 -1.07 9.81 0.10 0.04 -0.13 2074
0.24 -0.02 0.72 -1.06 9.87 0.13 0.07 -0.14 2081
0.30 -0.03 0.73 -1.10 9.95 0.18 0.10 -0.15 2088
0.35 -0.02 0.76 -1.09 9.91 0.25 0.14 -0.15 2096
0.35 -0.02 0.80 -1.23 10.04 0.34 0.18 -0.16 2104
0.41 -0.03 0.78 -1.23 10.29 0.48 0.22 -0.16 2111
0.45 -0.02 0.73 -1.30 10.36 0.63 0.26 -0.15 2118
0.48 -0.03 0.59 -1.33 10.80 0.81 0.26 -0.15 2124
0.58 -0.03 0.90 -1.45 11.04 1.02 0.21 -0.14 2131
0.69 -0.03 0.91 -1.57 11.01 1.16 0.13 -0.15 2140
0.76 -0.04 0.88 -1.70 11.65 1.31 0.01 -0.16 2147
0.80 -0.03 0.87 -1.69 11.84 1.43 -0.11 -0.16 2154
0.83 -0.03 0.86 -1.83 11.92 1.57 -0.18 -0.17 2161
0.87 -0.04 1.04 -1.82 12.38 1.74 -0.26 -0.18 2168
0.96 -0.04 0.84 -1.85 12.37 1.89 -0.31 -0.20 2176
0.98 -0.03 0.75 -1.93 12.79 2.10 -0.33 -0.20 2183
0.98 -0.03 1.04 -2.25 12.43 2.31 -0.35 -0.22 2190
1.00 -0.04 0.86 -2.34 12.42 2.53 -0.39 -0.23 2197
1.02 -0.05 0.84 -2.37 12.53 2.72 -0.39 -0.24 2204
1.03 -0.04 0.50 -2.59 12.79 2.89 -0.37 -0.24 2211
0.98 -0.03 0.13 -2.57 13.37 3.17 -0.34 -0.22 2219
0.89 -0.03 0.77 -3.09 14.50 3.53 -0.30 -0.20 2225
0.81 -0.04 1.35 -3.36 14.65 3.84 -0.26 -0.22 2233
0.66 -0.03 1.19 -3.56 14.96 4.17 -0.22 -0.26 2240
0.49 -0.03 0.66 -3.72 16.41 4.28 -0.21 -0.30 2247
0.36 -0.02 0.69 -4.71 18.25 4.28 -0.31 -0.31 2254
0.30 -0.02 1.51 -6.29 19.51 4.28 -0.25 -0.34 2262
0.27 -0.02 1.59 -7.93 21.21 4.28 -0.19 -0.38 2269
0.25 -0.02 1.82 -9.20 24.05 4.28 -0.05 -0.40 2276
0.22 -0.01 2.19 -9.68 24.57 4.28 0.19 -0.38 2283
0.17 -0.02 1.89 -9.46 23.37 4.28 0.52 -0.35 2289
0.09 -0.01 1.88 -7.04 20.70 4.28 0.90 -0.33 2296
0.05 -0.00 1.48 -5.93 19.88 4.28 1.37 -0.28 2305
0.05 -0.01 0.45 -6.10 22.98 4.28 1.73 -0.26 2311
0.02 -0.00 -0.23 -5.76 28.38 4.28 1.66 -0.30 2318
0.04 -0.00 0.02 -5.31 31.10 4.28 1.28 -0.43 2325
0.02 -0.00 -0.67 -2.04 29.98 4.28 0.56 -0.64 2332
0.02 -0.00 -1.22 6.08 26.42 4.28 -0.01 -0.71 2339
0.00 0.00 0.63 10.73 18.71 4.28 -0.39 -0.67 2347
0.03 0.00 3.94 15.88 10.90 4.20 -0.64 -0.64 2355
0.00 0.00 4.11 27.24 3.82 2.97 -0.73 -0.86 2361
0.00 0.00 3.20 22.01 1.16 2.25 -0.88 -1.64 2368
0.00 0.00 5.33 10.91 27.89 0.99 -0.37 -2.10 2375
0.00 0.00 4.13 11.02 25.16 -1.07 0.57 -2.19 2382
-0.00 0.01 1.67 14.08 16.07 -2.02 1.34 -2.19 2390
0.00 0.00 0.94 14.80 11.88 -2.53 1.46 -2.20 2397
0.00 0.00 0.43 13.00 10.04 -3.07 1.32 -2.19 2404
0.00 0.00 0.47 10.14 8.89 -3.34 1.12 -2.15 2411
0.00 0.00 0.27 8.39 9.81 -3.52 0.96 -2.07 2418
0.00 0.00 -0.12 7.11 9.40 -3.65 0.78 -1.94 2425
0.00 0.00 0.00 6.36 9.05 -3.77 0.61 -1.78 2433
0.00 0.00 0.31 5.56 8.92 -3.87 0.43 -1.69 2440
0.00 0.00 0.44 5.11 9.02 -4.00 0.27 -1.57 2447
0.00 0.00 0.73 4.78 9.34 -4.14 0.25 -1.46 2454
0.00 0.00 1.20 4.12 10.05 -4.23 0.31 -1.34 2461
0.00 0.00 1.65 3.47 10.85 -4.28 0.49 -1.21 2468
0.00 0.00 1.89 2.63 11.15 -4.28 0.79 -1.08 2476
0.00 0.00 1.83 1.96 11.12 -4.28 1.11 -0.90 2483
0.00 0.00 1.49 1.45 11.09 -4.28 1.33 -0.76 2490
0.00 0.00 0.76 0.56 11.21 -4.28 1.52 -0.56 2497
0.00 0.00 0.33 -0.36 11.45 -4.28 1.62 -0.35 2504
0.00 0.00 -0.11 -1.07 11.98 -4.28 1.66 -0.17 2511
0.00 0.00 -0.44 -1.81 13.33 -4.28 1.62 -0.01 2519
0.00 0.00 -0.73 -2.40 14.80 -4.28 1.54 0.10 2526
0.00 0.00 -0.91 -3.03 15.43 -4.28 1.45 0.17 2533
0.00 0.00 -0.65 -3.21 15.83 -4.28 1.35 0.20 2540
0.00 0.00 -0.50 -3.21 16.08 -4.28 1.31 0.19 2547
0.00 0.00 -0.14 -3.44 16.54 -4.28 1.30 0.18 2554
0.00 0.00 0.13 -3.72 16.65 -4.28 1.35 0.19 2562
0.00 0.00 0.27 -4.06 16.97 -4.28 1.44 0.24 2569
0.00 0.00 0.30 -4.58 17.27 -4.27 1.57 0.29 2576
0.00 0.00 0.21 -5.37 17.62 -4.23 1.63 0.33 2583
0.00 0.00 0.18 -6.80 17.94 -4.14 1.71 0.40 2590
0.00 0.00 0.21 -8.15 18.82 -3.94 1.76 0.47 2597
0.00 -0.00 -0.05 -9.16 19.68 -3.73 1.70 0.53 2605
0.00 0.00 -0.37 -10.46 20.54 -3.58 1.57 0.62 2612
0.00 0.00 -0.40 -11.43 20.71 -3.44 1.43 0.69 2619
0.00 0.00 -0.10 -12.15 20.51 -3.34 1.23 0.75 2626
0.00 0.00 0.38 -13.31 20.36 -3.27 1.11 0.76 2633
0.00 0.00 0.51 -14.15 20.11 -3.21 1.05 0.76 2640
0.00 0.00 0.53 -14.66 19.61 -3.16 1.08 0.76 2648
0.00 0.00 0.10 -15.26 19.31 -3.11 1.12 0.78 2655
0.00 0.00 -0.98 -16.06 18.53 -3.08 1.10 0.84 2662
0.00 0.00 -2.10 -16.97 17.35 -3.05 1.07 0.97 2669
0.00 0.00 -3.39 -17.94 16.21 -3.01 1.03 1.13 2676
0.00 0.00 -3.99 -19.56 14.89 -2.91 0.92 1.32 2683
0.00 0.00 -4.00 -21.15 13.40 -2.84 0.72 1.46 2691
0.00 0.00 -3.25 -22.55 11.26 -2.69 0.45 1.49 2698
0.00 0.00 -1.97 -23.63 8.71 -2.54 0.24 1.49 2705
0.00 0.00 -1.09 -24.77 6.53 -2.24 0.24 1.41 2712
0.00 0.00 -0.86 -26.02 4.02 -1.84 0.45 1.28 2719
0.00 -0.00 -1.24 -26.54 2.64 -1.44 0.72 1.11 2726
0.00 0.00 -2.16 -26.59 2.72 -0.94 0.98 0.94 2734
0.00 0.00 -3.60 -25.46 3.99 -0.56 1.04 0.71 2741
0.00 0.00 -4.61 -25.41 5.20 -0.16 0.95 0.51 2748
0.00 0.00 -9.12 -30.73 31.38 1.88 0.86 0.48 2755
0.00 0.00 -7.01 -18.87 6.17 1.92 0.70 0.45 2762
0.00 0.00 -6.24 -24.02 0.87 2.14 -0.08 0.34 2769
-0.00 0.02 -4.46 -27.38 2.82 2.32 -1.09 0.25 2777
-0.00 0.04 -1.84 8.09 -4.26 2.47 -1.17 0.04 2784
-0.01 0.12 0.58 -4.23 9.58 3.15 -0.68 0.11 2791
-0.01 0.27 -0.08 5.87 23.31 3.81 -0.62 0.15 2799
-0.04 0.61 -3.02 -1.41 20.80 3.96 -0.80 -0.02 2806
-0.04 0.70 -2.57 -4.22 20.87 3.96 -1.07 -0.27 2813
-0.06 0.86 0.05 -5.50 20.00 3.84 -0.94 -0.31 2821
-0.05 0.88 0.51 -4.46 20.65 3.58 -0.52 -0.23 2828
-0.06 0.93 -0.04 -2.29 18.86 3.23 -0.43 -0.27 2835
-0.06 0.94 1.17 -1.72 15.92 2.96 -0.40 -0.30 2842
-0.06 0.99 2.91 -1.91 18.37 3.01 -0.58 -0.22 2849
-0.05 0.92 0.97 -1.14 17.06 1.70 -1.51 -0.07 2856
-0.05 0.87 1.50 -2.41 12.62 0.55 -0.88 0.08 2864
-0.05 0.84 -0.10 -1.98 11.05 0.14 -0.34 0.09 2870
-0.06 0.82 -0.43 -1.23 10.49 0.05 -0.12 0.02 2877
-0.02 0.83 0.14 -1.12 10.11 -0.00 -0.02 -0.02 2884
-0.05 0.84 0.69 -1.09 9.84 -0.02 0.01 -0.03 2891
-0.05 0.78 0.62 -1.07 10.39 -0.02 0.01 -0.03 2898
-0.03 0.73 0.43 -0.91 9.86 -0.02 0.02 -0.03 2906
-0.02 0.78 0.43 -0.80 9.95 -0.01 0.02 -0.05 2913
-0.02 0.72 0.58 -0.77 9.83 0.00 0.02 -0.05 2920
-0.02 0.69 0.56 -0.72 9.75 0.01 0.01 -0.06 2927
-0.00 0.68 0.54 -0.74 9.21 0.01 0.01 -0.06 2934
-0.00 0.67 0.49 -0.73 9.69 0.01 0.01 -0.07 2941
-0.01 0.60 0.44 -0.79 9.82 0.02 0.02 -0.07 2949
-0.02 0.57 0.45 -0.76 9.87 0.02 0.02 -0.07 2956
0.00 0.51 0.42 -0.74 9.83 0.02 0.04 -0.07 2963
-0.01 0.50 0.43 -0.76 9.84 0.03 0.05 -0.08 2970
0.01 0.47 0.43 -0.79 9.82 0.03 0.05 -0.07 2977
0.02 0.39 0.43 -0.77 9.81 0.03 0.06 -0.07 2984
0.02 0.38 0.51 -0.75 9.80 0.03 0.07 -0.07 2992
0.03 0.37 0.50 -0.77 9.77 0.04 0.07 -0.08 2999
0.03 0.39 0.53 -0.79 9.80 0.04 0.08 -0.07 3006
0.04 0.31 0.48 -0.76 9.78 0.04 0.08 -0.09 3013
0.05 0.26 0.52 -0.77 9.81 0.04 0.08 -0.09 3020
0.04 0.22 0.52 -0.83 9.78 0.04 0.09 -0.10 3027
0.05 0.14 0.56 -0.77 9.78 0.04 0.09 -0.10 3035
0.04 0.15 0.53 -0.82 9.82 0.04 0.09 -0.10 3042
0.05 0.11 0.49 -0.79 9.78 0.04 0.09 -0.10 3049
0.08 0.06 0.51 -0.79 9.80 0.05 0.10 -0.10 3056
0.08 0.06 0.54 -0.82 9.77 0.05 0.10 -0.10 3063
0.07 0.07 0.53 -0.76 9.80 0.05 0.10 -0.09 3070
0.09 0.02 0.54 -0.82 9.81 0.05 0.11 -0.10 3078
0.08 0.02 0.57 -0.85 9.81 0.06 0.11 -0.09 3085
0.10 0.01 0.61 -0.87 9.81 0.06 0.11 -0.09 3092
0.10 0.03 0.59 -0.88 9.77 0.06 0.11 -0.10 3099
0.11 0.03 0.63 -0.88 9.79 0.06 0.11 -0.10 3106
0.12 0.03 0.63 -0.91 9.80 0.06 0.10 -0.10 3113
0.13 -0.00 0.62 -0.89 9.20 0.05 0.10 -0.11 3121
0.14 0.00 0.62 -0.92 9.81 0.05 0.10 -0.10 3128
0.16 0.02 0.61 -0.87 9.82 0.05 0.09 -0.10 3135
0.19 -0.02 0.65 -0.88 9.82 0.05 0.10 -0.12 3142
0.18 -0.01 0.57 -0.92 9.77 0.05 0.09 -0.11 3149
0.19 -0.02 0.64 -0.91 9.79 0.05 0.09 -0.11 3156
0.21 -0.02 0.63 -0.93 9.80 0.05 0.08 -0.12 3164
0.21 -0.01 0.65 -0.96 9.81 0.05 0.08 -0.11 3171
0.20 -0.00 0.64 -0.91 9.78 0.05 0.07 -0.11 3178
0.21 -0.01 0.66 -0.95 9.79 0.05 0.05 -0.12 3185
0.22 -0.01 0.66 -0.91 9.81 0.05 0.04 -0.11 3192
0.21 -0.02 0.63 -0.96 9.78 0.05 0.03 -0.11 3200
0.20 -0.02 0.69 -0.95 9.76 0.05 0.03 -0.11 3207
0.24 -0.01 0.70 -0.97 9.79 0.05 0.02 -0.11 3214
0.29 -0.01 0.65 -0.95 9.75 0.06 0.02 -0.13 3221
0.28 -0.01 0.66 -0.96 9.77 0.07 0.02 -0.13 3228
0.33 -0.01 0.68 -0.99 9.82 0.08 0.03 -0.14 3235
0.32 -0.02 0.64 -0.96 9.88 0.10 0.04 -0.15 3243
0.34 -0.02 0.68 -0.98 9.23 0.12 0.05 -0.15 3250
0.38 -0.02 0.59 -0.98 9.94 0.15 0.08 -0.16 3257
0.41 -0.02 0.62 -0.99 9.90 0.19 0.09 -0.16 3264
0.48 -0.02 0.59 -1.04 9.96 0.25 0.12 -0.15 3271
0.52 -0.03 0.49 -1.11 10.14 0.32 0.15 -0.15 3279
0.55 -0.04 0.63 -1.06 10.20 0.43 0.17 -0.16 3287
0.55 -0.03 0.64 -1.17 10.38 0.57 0.21 -0.15 3294
0.61 -0.03 0.68 -1.17 10.64 0.73 0.23 -0.15 3301
0.67 -0.02 0.80 -1.24 10.88 0.94 0.22 -0.16 3308
0.75 -0.02 0.80 -1.40 11.12 1.12 0.17 -0.18 3315
0.78 -0.03 0.91 -1.43 11.44 1.32 0.11 -0.17 3322
0.83 -0.04 0.91 -1.51 11.65 1.45 0.00 -0.21 3330
0.89 -0.04 0.84 -1.58 11.87 1.56 -0.09 -0.23 3337
0.92 -0.03 0.77 -1.72 12.07 1.68 -0.14 -0.23 3344
1.00 -0.04 0.63 -1.88 12.81 1.81 -0.20 -0.22 3351
1.05 -0.04 0.67 -1.92 12.33 2.00 -0.22 -0.22 3358
1.07 -0.05 0.58 -1.97 12.83 2.21 -0.24 -0.23 3365
1.06 -0.05 0.55 -2.08 12.31 2.42 -0.28 -0.22 3373
1.04 -0.04 0.66 -2.33 12.32 2.63 -0.31 -0.22 3380
1.04 -0.04 0.55 -2.31 12.72 2.83 -0.33 -0.22 3387
1.04 -0.05 0.02 -2.57 13.47 3.03 -0.34 -0.20 3393
1.01 -0.05 0.03 -2.82 14.14 3.37 -0.27 -0.16 3401
0.95 -0.04 0.42 -3.03 14.91 3.70 -0.24 -0.13 3408
0.87 -0.04 1.11 -3.46 15.39 4.11 -0.24 -0.15 3416
0.79 -0.03 1.57 -3.64 16.24 4.28 -0.27 -0.23 3423
0.55 -0.03 1.42 -3.43 15.75 4.28 -0.44 -0.33 3430
0.45 -0.03 1.26 -4.92 19.36 4.28 -0.58 -0.38 3437
0.31 -0.03 1.60 -6.27 19.44 4.28 -0.74 -0.47 3444
0.25 -0.02 1.21 -8.20 23.11 4.28 -0.76 -0.53 3450
0.19 -0.02 1.72 -9.39 25.48 4.28 -0.72 -0.58 3458
0.14 -0.01 2.33 -10.06 27.34 4.28 -0.54 -0.59 3466
0.13 -0.01 1.90 -9.84 26.18 4.28 -0.32 -0.61 3472
0.10 -0.01 1.69 -7.69 23.76 4.28 -0.13 -0.64 3479
0.08 -0.01 1.21 -6.41 22.86 4.28 0.04 -0.66 3486
0.02 -0.00 0.79 -5.01 25.00 4.28 0.15 -0.66 3493
0.02 -0.00 1.35 -3.59 28.10 4.28 0.02 -0.64 3501
0.01 -0.00 2.37 -2.11 29.22 4.28 -0.23 -0.69 3508
0.01 -0.00 3.15 2.43 27.30 4.28 -0.36 -0.74 3515
0.01 -0.00 5.15 11.56 16.48 4.28 -0.14 -0.72 3523
0.00 0.00 6.72 15.46 10.29 3.91 0.23 -0.79 3529
0.00 0.00 3.24 29.71 2.96 2.60 0.44 -1.14 3536
0.00 0.00 3.46 23.84 -0.56 1.76 0.34 -1.81 3544
-0.00 0.00 3.97 11.47 27.38 0.21 0.57 -2.04 3551
0.00 0.00 1.16 10.56 23.39 -1.53 0.65 -1.97 3558
0.00 0.00 -0.55 12.85 14.39 -2.43 0.61 -1.86 3565
0.00 0.00 -0.68 12.61 9.56 -2.81 0.28 -1.71 3572
0.00 0.00 -0.21 11.01 7.71 -3.28 -0.04 -1.59 3579
0.00 0.00 0.54 8.81 7.07 -3.50 -0.39 -1.48 3587
0.00 0.00 1.07 6.74 8.40 -3.54 -0.62 -1.38 3594
0.00 0.00 1.34 5.97 7.97 -3.56 -0.77 -1.28 3601
0.00 0.00 1.81 5.54 7.78 -3.57 -0.79 -1.15 3608
0.00 0.00 2.45 5.29 7.31 -3.61 -0.76 -1.05 3615
0.00 0.00 2.84 5.11 7.13 -3.73 -0.69 -0.93 3622
0.00 0.00 3.16 4.83 7.41 -3.85 -0.57 -0.81 3630
0.00 0.00 3.65 4.15 8.17 -3.99 -0.35 -0.71 3637
0.00 0.00 3.86 3.16 9.11 -4.10 -0.06 -0.60 3644
0.00 0.00 3.86 2.38 9.80 -4.19 0.23 -0.50 3651
0.00 0.00 3.63 1.77 9.84 -4.25 0.53 -0.37 3658
0.00 0.00 3.38 1.36 10.16 -4.28 0.75 -0.24 3665
0.00 0.00 2.94 0.82 10.45 -4.28 0.83 -0.13 3673
0.01 -0.00 2.85 -0.07 10.71 -4.28 0.90 -0.01 3680
0.00 0.00 2.85 -0.92 11.33 -4.28 0.92 0.12 3687
0.00 0.00 2.85 -1.88 12.04 -4.28 0.94 0.21 3694
0.00 0.00 2.97 -2.62 12.84 -4.28 0.97 0.31 3701
0.00 0.00 3.04 -3.19 14.09 -4.28 1.06 0.37 3708
0.00 0.00 2.91 -3.71 14.32 -4.26 1.20 0.39 3716
0.00 0.00 2.80 -4.04 14.95 -4.24 1.33 0.38 3723
0.00 0.00 2.27 -4.73 15.16 -4.23 1.49 0.36 3730
0.00 0.00 1.86 -4.51 16.25 -4.22 1.60 0.36 3737
0.00 0.00 1.31 -4.93 17.17 -4.20 1.65 0.34 3744
0.00 0.00 1.08 -5.97 17.49 -4.14 1.67 0.34 3751
0.00 0.00 0.06 -6.36 17.12 -4.06 1.70 0.34 3759
0.00 0.00 0.68 -6.33 16.19 -3.90 1.71 0.34 3766
0.00 0.00 0.67 -6.68 16.28 -3.74 1.70 0.31 3773
0.00 0.00 0.27 -8.03 17.37 -3.50 1.74 0.28 3780
0.00 0.00 0.45 -9.05 17.33 -3.20 1.76 0.23 3787
0.00 0.00 0.18 -9.90 16.89 -2.97 1.73 0.14 3794
-0.00 0.00 0.09 -11.12 16.80 -2.64 1.68 0.07 3802
0.00 0.00 0.11 -12.06 16.64 -2.25 1.56 -0.01 3809
0.00 0.00 -0.08 -12.61 17.30 -1.94 1.43 -0.05 3816
0.00 0.00 -0.20 -13.07 18.01 -1.64 1.31 -0.07 3823
0.00 0.00 0.14 -13.23 19.46 -1.53 1.26 -0.06 3830
0.00 0.00 0.57 -13.21 19.96 -1.59 1.33 -0.03 3837
0.00 0.00 0.46 -13.89 19.71 -1.82 1.50 0.02 3845
0.00 0.00 0.11 -14.82 18.41 -2.07 1.69 0.10 3852
0.00 0.00 -0.42 -15.70 16.78 -2.34 1.86 0.18 3859
0.00 0.00 -1.29 -16.65 14.98 -2.50 1.99 0.31 3866
0.00 0.00 -2.51 -17.01 12.63 -2.61 2.09 0.45 3873
0.00 0.00 -4.42 -17.42 10.86 -2.61 2.15 0.71 3880
0.00 -0.00 -6.50 -18.70 9.87 -2.52 2.05 1.05 3888
0.00 0.00 -7.53 -19.80 9.15 -2.30 1.80 1.35 3895
0.00 0.00 -8.32 -20.82 7.94 -2.04 1.29 1.66 3902
0.00 0.00 -8.05 -21.10 6.94 -1.86 0.76 1.91 3909
0.00 0.00 -6.89 -20.70 6.26 -1.69 0.14 2.02 3916
0.00 0.00 -4.96 -20.67 4.98 -1.53 -0.25 2.05 3923
0.00 -0.00 -4.01 -20.96 4.18 -1.28 -0.38 2.02 3931
0.00 0.00 -2.74 -21.10 4.12 -0.94 -0.34 1.88 3938
0.00 0.00 -6.86 -36.79 49.50 0.25 -0.49 1.71 3945
0.00 0.00 -3.62 -19.01 -3.59 1.35 0.11 1.63 3952
0.00 0.00 -3.87 -19.84 -5.87 1.54 -0.01 1.36 3959
-0.00 0.03 -5.54 -29.43 3.74 1.91 -0.48 1.19 3966
0.00 0.01 -6.87 -23.58 1.75 2.23 -0.94 1.21 3975
-0.01 0.05 -2.07 4.52 0.68 2.66 -0.65 1.14 3981
-0.01 0.10 -4.18 -4.65 17.96 3.56 -0.39 1.12 3988
-0.04 0.40 -5.73 2.50 25.20 3.87 -0.50 0.98 3995
-0.04 0.57 -7.67 -1.07 20.52 3.70 -0.77 0.44 4003
-0.04 0.66 -6.27 -4.34 20.43 3.51 -0.99 -0.02 4011
-0.05 0.76 -2.93 -3.59 17.04 3.29 -0.79 -0.36 4018
-0.04 0.73 -0.96 -2.55 17.15 3.09 -0.38 -0.50 4025
-0.04 0.75 1.04 -2.09 16.80 2.91 -0.23 -0.56 4032
-0.06 0.75 3.92 -2.93 24.46 2.83 -0.52 -0.54 4039
-0.05 0.73 3.81 -1.03 15.93 1.22 -1.52 -0.35 4046
-0.04 0.75 1.80 -2.33 12.72 0.57 -0.86 0.01 4054
-0.03 0.72 0.25 -1.56 11.06 0.20 -0.42 0.11 4061
-0.04 0.72 -0.52 -1.07 10.24 0.08 -0.16 0.04 4068
-0.04 0.70 -0.12 -1.13 10.15 0.02 -0.08 -0.05 4074
-0.01 0.68 0.60 -1.16 9.73 -0.00 -0.04 -0.06 4081
-0.01 0.68 0.70 -0.95 9.79 -0.00 -0.04 -0.03 4088
-0.00 0.71 0.22 -0.80 9.82 -0.01 -0.03 -0.04 4096
0.00 0.70 0.31 -0.87 9.91 -0.00 -0.02 -0.06 4103
-0.00 0.70 0.49 -0.85 9.82 0.00 0.03 -0.07 4110
0.01 0.66 0.42 -0.81 9.90 0.01 -0.00 -0.07 4117
-0.01 0.63 -0.06 -1.06 9.78 0.01 -0.00 -0.08 4124
-0.02 0.60 0.29 -0.80 9.86 0.01 0.01 -0.07 4131
-0.00 0.57 0.31 -0.85 9.84 0.01 0.02 -0.07 4139
-0.01 0.53 0.38 -0.86 9.83 0.01 0.03 -0.07 4146
-0.01 0.49 0.39 -0.82 9.85 0.01 0.03 -0.07 4153
-0.01 0.48 0.41 -0.80 9.83 0.01 0.03 -0.08 4160
-0.00 0.46 0.40 -0.82 9.79 0.01 0.04 -0.08 4167
0.01 0.44 0.37 -0.78 9.82 0.02 0.04 -0.08 4174
0.02 0.38 0.46 -0.84 9.85 0.02 0.05 -0.08 4182
0.02 0.38 0.43 -0.85 9.81 0.02 0.05 -0.09 4189
0.02 0.33 0.51 -0.84 9.81 0.03 0.04 -0.09 4196
0.02 0.31 0.50 -0.87 9.80 0.02 0.04 -0.10 4203
0.03 0.30 0.48 -0.89 9.75 0.02 0.03 -0.11 4210
0.04 0.22 0.45 -0.83 9.80 0.03 0.03 -0.11 4217
0.05 0.22 0.43 -0.84 9.75 0.03 0.03 -0.11 4225
0.07 0.20 0.38 -0.83 9.79 0.02 0.03 -0.11 4232
0.10 0.15 0.37 -0.84 9.81 0.03 0.03 -0.11 4239
0.10 0.11 0.39 -0.86 9.21 0.03 0.03 -0.10 4246
0.11 0.11 0.43 -0.83 9.79 0.03 0.04 -0.10 4253
0.13 0.06 0.39 -0.84 9.79 0.02 0.04 -0.10 4260
0.14 0.04 0.40 -0.84 9.80 0.03 0.04 -0.09 4268
0.16 0.02 0.41 -0.87 9.78 0.03 0.04 -0.10 4275
0.16 0.02 0.43 -0.91 9.81 0.03 0.04 -0.10 4282
0.15 0.00 0.44 -0.90 9.79 0.03 0.05 -0.10 4289
0.17 0.01 0.41 -0.89 9.82 0.03 0.04 -0.10 4296
0.20 -0.01 0.44 -0.92 9.79 0.03 0.05 -0.11 4303
0.21 -0.01 0.44 -0.94 9.80 0.04 0.04 -0.10 4311
0.25 -0.01 0.38 -0.89 9.81 0.04 0.04 -0.10 4318
0.27 -0.03 0.43 -0.90 9.80 0.04 0.04 -0.11 4325
0.29 -0.01 0.38 -0.93 9.79 0.04 0.04 -0.11 4332
0.31 -0.02 0.42 -0.92 9.81 0.05 0.04 -0.11 4339
0.35 -0.01 0.42 -0.94 9.80 0.05 0.04 -0.11 4346
0.35 -0.02 0.41 -0.94 9.82 0.05 0.03 -0.11 4354
0.40 -0.03 0.40 -0.93 9.81 0.06 0.03 -0.11 4361
0.40 -0.03 0.44 -0.95 9.83 0.07 0.03 -0.11 4368
0.38 -0.01 0.44 -0.97 9.81 0.08 0.03 -0.12 4375
0.42 -0.01 0.43 -0.99 9.81 0.09 0.03 -0.12 4382
0.43 -0.02 0.43 -0.98 9.87 0.11 0.04 -0.13 4389
0.53 -0.03 0.42 -1.05 9.82 0.12 0.04 -0.13 4397
0.56 -0.03 0.45 -1.05 9.83 0.13 0.04 -0.14 4404
0.58 -0.03 0.51 -1.05 9.84 0.17 0.04 -0.14 4411
0.64 -0.03 0.44 -1.06 9.91 0.20 0.05 -0.14 4418
0.69 -0.03 0.44 -1.09 9.96 0.25 0.05 -0.15 4425
0.73 -0.03 0.45 -1.06 10.13 0.32 0.05 -0.15 4432
0.79 -0.04 0.53 -1.13 10.15 0.41 0.05 -0.16 4441
0.81 -0.04 0.51 -1.15 10.50 0.56 0.05 -0.17 4448
0.86 -0.03 0.42 -1.31 10.72 0.74 0.04 -0.18 4455
0.92 -0.03 0.42 -1.33 10.76 0.91 0.04 -0.19 4462
1.01 -0.03 0.37 -1.35 10.99 1.06 0.04 -0.20 4468
1.02 -0.04 0.42 -1.52 11.40 1.17 0.03 -0.19 4475
1.09 -0.04 0.36 -1.55 11.29 1.28 -0.02 -0.18 4484
1.11 -0.04 0.56 -1.65 11.41 1.38 -0.06 -0.17 4491
1.20 -0.05 0.51 -1.72 11.69 1.47 -0.10 -0.17 4498
1.25 -0.04 0.53 -1.73 11.39 1.58 -0.14 -0.17 4505
1.31 -0.04 0.56 -1.71 11.39 1.68 -0.19 -0.18 4512
1.34 -0.05 0.40 -1.92 11.93 1.78 -0.24 -0.18 4519
1.36 -0.05 0.48 -2.16 12.10 1.92 -0.33 -0.19 4527
1.39 -0.06 0.39 -2.31 12.43 2.12 -0.36 -0.19 4534
1.39 -0.05 0.32 -2.46 12.54 2.35 -0.42 -0.20 4541
1.39 -0.05 0.45 -2.56 12.64 2.60 -0.48 -0.20 4548
1.41 -0.05 0.53 -2.75 12.96 2.83 -0.57 -0.23 4555
1.36 -0.04 0.36 -2.94 13.48 3.12 -0.64 -0.23 4562
1.34 -0.06 0.00 -3.00 14.60 3.47 -0.72 -0.24 4569
1.22 -0.05 0.55 -3.45 15.29 3.78 -0.80 -0.24 4577
1.11 -0.05 1.51 -3.92 15.21 4.14 -0.92 -0.31 4584
0.99 -0.03 2.07 -4.31 16.92 4.27 -1.09 -0.45 4591
0.74 -0.03 1.79 -4.90 17.98 4.28 -1.31 -0.58 4598
0.58 -0.03 2.16 -5.35 19.71 4.28 -1.63 -0.74 4605
0.45 -0.04 2.26 -6.89 22.27 4.28 -1.79 -0.88 4613
0.39 -0.03 1.29 -10.26 23.43 4.28 -1.90 -1.02 4620
0.32 -0.02 2.34 -12.99 25.30 4.28 -1.82 -1.14 4627
0.24 -0.01 3.71 -13.63 28.75 4.28 -1.53 -1.20 4634
0.19 -0.01 3.75 -10.56 26.99 4.28 -1.13 -1.26 4641
0.16 -0.02 2.15 -7.71 23.47 4.28 -0.81 -1.32 4647
0.07 -0.01 1.72 -4.41 24.87 4.28 -0.63 -1.34 4655
0.06 -0.01 2.01 -2.89 27.63 4.28 -0.75 -1.35 4662
0.02 -0.00 3.35 -1.52 30.39 4.28 -0.97 -1.40 4669
0.01 -0.00 4.21 1.10 29.51 4.28 -1.44 -1.52 4676
0.01 -0.00 6.69 7.96 16.46 4.28 -1.55 -1.53 4683
0.00 0.00 8.58 13.89 15.62 4.24 -1.34 -1.58 4690
0.00 0.00 5.40 18.39 3.60 3.27 -1.26 -1.66 4698
0.00 0.00 8.63 24.58 -1.25 2.47 -1.57 -1.87 4705
0.00 0.00 9.82 16.46 25.35 0.97 -0.66 -1.88 4712
0.01 -0.00 7.39 11.51 23.33 -0.75 0.09 -1.65 4719
0.00 0.00 5.59 11.86 17.20 -1.79 0.62 -1.34 4726
0.00 0.00 4.23 12.89 10.95 -2.39 0.66 -1.00 4733
0.00 0.00 3.91 12.57 7.76 -2.93 0.57 -0.78 4741
0.00 0.00 4.44 10.25 7.46 -3.16 0.48 -0.59 4748
0.00 0.00 4.35 7.98 7.82 -3.23 0.48 -0.41 4755
0.01 -0.00 4.14 7.07 7.77 -3.28 0.61 -0.28 4762
0.01 -0.00 3.96 6.66 7.22 -3.32 0.81 -0.19 4769
0.00 0.00 3.79 6.27 7.06 -3.39 0.99 -0.11 4776
0.00 0.00 3.20 5.79 7.14 -3.49 1.18 -0.09 4784
0.00 -0.00 2.58 5.15 7.77 -3.59 1.31 -0.03 4791
0.00 -0.00 2.10 4.60 8.73 -3.71 1.38 0.01 4798
0.01 -0.00 1.65 3.77 9.89 -3.83 1.43 0.06 4805
0.00 0.00 1.40 3.28 10.46 -3.96 1.48 0.13 4812
0.00 0.00 1.19 2.99 10.71 -4.13 1.53 0.18 4819
0.00 0.00 1.16 2.60 11.15 -4.23 1.56 0.23 4827
0.00 0.00 1.03 2.05 11.36 -4.28 1.57 0.26 4834
0.01 -0.00 1.01 1.34 11.81 -4.28 1.62 0.31 4841
0.01 -0.00 1.11 0.35 12.04 -4.28 1.69 0.37 4848
0.00 -0.00 1.11 -0.49 12.54 -4.28 1.80 0.41 4855
0.00 -0.00 0.91 -1.37 13.06 -4.28 1.91 0.45 4862
0.00 0.00 0.40 -2.09 14.12 -4.28 2.02 0.45 4870
0.00 0.00 -0.17 -3.03 14.85 -4.28 2.12 0.42 4877
0.00 -0.00 -0.80 -4.11 15.29 -4.26 2.23 0.36 4884
0.00 -0.00 -1.46 -4.73 15.91 -4.21 2.25 0.28 4891
0.00 0.00 -1.06 -5.25 16.96 -4.15 2.33 0.21 4898
0.00 0.00 -1.46 -5.71 18.15 -4.11 2.38 0.16 4905
0.00 0.00 -1.76 -5.18 18.79 -4.05 2.34 0.11 4913
0.00 0.00 -2.30 -6.02 19.35 -4.00 2.33 0.10 4920
0.00 0.00 -2.20 -6.22 20.20 -3.90 2.26 0.09 4927
0.00 0.00 -2.65 -6.44 20.06 -3.79 2.07 0.09 4934
0.00 0.00 -2.28 -7.10 20.44 -3.70 1.97 0.12 4941
0.00 0.00 -1.80 -6.84 19.96 -3.58 1.81 0.15 4948
0.00 0.00 -1.97 -7.59 19.90 -3.50 1.71 0.18 4956
0.00 0.00 -1.86 -8.01 20.07 -3.39 1.67 0.25 4963
0.00 0.00 -2.35 -8.56 19.92 -3.29 1.55 0.34 4970
0.00 0.00 -2.88 -9.05 19.62 -3.20 1.41 0.45 4977
0.00 0.00 -3.04 -9.70 19.34 -3.06 1.17 0.53 4984
0.00 0.00 -2.75 -16.39 18.02 -2.93 0.98 0.64 4992
0.00 0.00 -1.37 -13.29 9.14 -1.58 0.82 0.91 4999
0.00 0.00 -1.90 -8.45 14.63 -2.04 0.49 0.92 5006
0.00 0.00 -1.34 -13.49 21.05 -2.19 0.65 0.93 5013
0.00 0.00 0.46 -17.34 17.98 -2.31 1.06 0.93 5020
0.00 0.00 2.98 -12.76 9.19 -2.62 1.89 0.86 5027
0.00 0.00 0.56 -16.08 15.77 -2.94 2.49 0.82 5035
0.00 0.00 -1.65 -18.99 16.67 -3.27 2.85 0.85 5042
-0.00 0.00 -4.35 -20.83 13.42 -3.34 2.94 0.95 5050
0.00 0.00 -6.80 -23.44 9.46 -3.09 2.77 1.11 5056
0.00 0.00 -8.89 -27.18 6.06 -2.57 2.41 1.36 5063
0.00 0.00 -9.88 -29.55 2.34 -2.01 1.96 1.58 5070
0.00 0.00 -10.93 -30.90 2.65 -1.30 1.19 1.67 5078
0.00 0.00 -15.32 -33.24 17.81 -0.11 -0.08 1.69 5085
0.00 0.00 -10.08 -30.55 2.40 0.66 -0.71 1.51 5092
0.00 0.00 -8.05 -28.40 3.88 1.55 -1.45 1.17 5099
0.00 0.00 -5.98 -27.41 3.52 2.23 -1.79 0.83 5106
-0.00 0.02 -7.99 -30.70 6.87 2.69 -2.19 0.59 5113
-0.00 0.04 -7.70 -23.73 -1.11 2.93 -2.50 0.61 5121
-0.01 0.07 -0.25 4.84 4.12 3.44 -1.93 0.79 5128
-0.00 0.15 -1.71 -3.37 20.67 4.17 -0.90 0.93 5136
-0.03 0.41 -4.54 0.97 25.32 4.27 -0.78 0.94 5143
-0.04 0.58 -6.99 -2.17 24.32 4.22 -1.05 0.63 5150
-0.05 0.68 -6.56 -5.32 23.28 3.93 -1.15 0.21 5157
-0.05 0.77 -3.88 -5.16 20.25 3.57 -0.83 -0.12 5165
-0.04 0.73 -1.88 -3.24 18.91 3.25 -0.50 -0.33 5172
-0.04 0.77 0.45 -1.86 17.08 2.97 -0.34 -0.45 5179
-0.04 0.74 2.27 -1.93 19.55 2.82 -0.47 -0.44 5186
-0.04 0.74 2.30 -1.38 18.21 1.53 -1.52 -0.34 5193
-0.05 0.74 1.92 -2.25 12.18 0.68 -1.00 -0.03 5200
-0.05 0.71 0.32 -1.44 10.95 0.23 -0.51 0.08 5208
-0.04 0.72 -0.44 -1.20 10.20 0.04 -0.21 0.04 5215
-0.03 0.68 -0.33 -1.03 10.00 0.01 -0.13 -0.04 5221
-0.04 0.72 0.36 -1.09 9.98 -0.01 -0.10 -0.07 5228
-0.03 0.67 0.54 -1.08 9.97 -0.01 -0.08 -0.06 5235
-0.03 0.66 0.25 -0.92 9.87 0.00 -0.07 -0.06 5242
-0.01 0.66 0.25 -0.86 9.96 0.00 -0.06 -0.07 5250
0.00 0.70 0.34 -0.86 9.86 0.00 -0.04 -0.08 5257
-0.01 0.64 0.21 -0.89 9.86 0.01 -0.03 -0.08 5264
-0.01 0.61 0.26 -0.79 9.83 0.01 -0.02 -0.09 5271
0.01 0.57 0.28 -0.85 9.83 0.02 -0.01 -0.08 5278
-0.02 0.58 0.27 -0.86 9.82 0.02 -0.00 -0.08 5285
0.02 0.55 0.25 -0.84 9.83 0.01 0.01 -0.07 5293
0.02 0.51 0.30 -0.87 9.85 0.01 0.02 -0.08 5300
0.03 0.50 0.30 -0.85 9.82 0.02 0.02 -0.07 5307
0.03 0.44 0.31 -0.86 9.82 0.02 0.02 -0.08 5314
0.04 0.39 0.28 -0.86 9.82 0.02 0.03 -0.08 5321
0.03 0.40 0.28 -0.89 9.82 0.02 0.03 -0.08 5328
0.04 0.30 0.32 -0.84 9.80 0.03 0.04 -0.09 5336
0.06 0.30 0.34 -0.87 9.81 0.03 0.04 -0.09 5343
0.06 0.27 0.35 -0.90 9.82 0.03 0.04 -0.09 5350
0.09 0.27 0.37 -0.89 9.83 0.03 0.04 -0.10 5357
0.09 0.19 0.40 -0.88 9.80 0.03 0.04 -0.10 5364
0.09 0.12 0.34 -0.89 9.20 0.03 0.04 -0.10 5371
0.11 0.12 0.27 -0.87 9.77 0.03 0.04 -0.10 5379
0.12 0.10 0.27 -0.88 9.79 0.03 0.03 -0.10 5386
0.15 0.09 0.24 -0.86 9.80 0.03 0.04 -0.09 5393
0.15 0.06 0.28 -0.89 9.80 0.03 0.05 -0.09 5400
0.15 0.04 0.26 -0.89 9.79 0.03 0.04 -0.09 5407
0.17 0.01 0.29 -0.89 9.81 0.04 0.05 -0.09 5414
0.20 0.01 0.36 -0.92 9.81 0.04 0.05 -0.09 5422
0.20 0.01 0.33 -0.95 9.79 0.04 0.04 -0.09 5429
0.20 0.01 0.36 -0.92 9.71 0.04 0.04 -0.09 5436
0.24 0.01 0.36 -0.95 9.76 0.04 0.04 -0.13 5443
0.23 0.02 0.34 -0.95 9.79 0.04 0.04 -0.10 5450
0.23 0.01 0.38 -0.93 9.81 0.04 0.04 -0.10 5457
0.27 0.01 0.35 -0.97 9.79 0.04 0.03 -0.11 5465
0.32 -0.02 0.31 -0.92 9.80 0.04 0.03 -0.11 5472
0.37 0.01 0.34 -0.95 9.82 0.04 0.03 -0.11 5479
0.38 -0.01 0.30 -0.94 9.76 0.04 0.03 -0.12 5486
0.37 -0.01 0.26 -0.97 9.76 0.04 0.03 -0.12 5493
0.41 -0.01 0.32 -0.98 9.79 0.04 0.03 -0.11 5500
0.44 -0.02 0.34 -0.98 9.80 0.04 0.03 -0.12 5508
0.48 -0.02 0.33 -0.99 9.80 0.05 0.03 -0.11 5515
0.50 -0.03 0.32 -1.04 9.78 0.05 0.03 -0.12 5522
0.54 -0.03 0.30 -0.98 9.82 0.06 0.04 -0.12 5529
0.53 -0.02 0.34 -1.00 9.80 0.06 0.05 -0.13 5536
0.56 -0.02 0.33 -1.00 9.78 0.07 0.05 -0.13 5543
0.64 -0.03 0.35 -0.99 9.79 0.08 0.05 -0.12 5551
0.68 -0.02 0.31 -1.01 9.82 0.09 0.05 -0.13 5558
0.75 -0.03 0.33 -1.01 9.87 0.10 0.06 -0.13 5565
0.76 -0.03 0.38 -1.04 9.90 0.13 0.06 -0.13 5572
0.80 -0.04 0.30 -1.09 9.95 0.18 0.06 -0.14 5579
0.85 -0.03 0.40 -1.12 10.19 0.24 0.06 -0.14 5587
0.94 -0.04 0.36 -1.13 10.18 0.34 0.06 -0.14 5595
0.99 -0.03 0.46 -1.19 10.48 0.47 0.05 -0.15 5601
1.05 -0.05 0.37 -1.19 11.18 0.69 0.06 -0.16 5609
1.13 -0.04 0.39 -1.25 11.55 0.99 0.06 -0.15 5616
1.19 -0.05 0.40 -1.31 11.94 1.24 0.04 -0.17 5623
1.26 -0.05 0.50 -1.42 11.86 1.46 -0.00 -0.18 5630
1.36 -0.05 0.49 -1.53 12.21 1.64 -0.12 -0.17 5638
1.40 -0.05 0.57 -1.62 12.17 1.75 -0.19 -0.17 5645
1.49 -0.06 0.52 -1.71 12.28 1.90 -0.27 -0.18 5652
1.50 -0.05 0.24 -1.88 12.81 2.05 -0.32 -0.18 5659
1.51 -0.05 0.28 -1.80 12.90 2.23 -0.35 -0.18 5666
1.53 -0.05 0.20 -2.19 13.37 2.46 -0.42 -0.18 5673
1.59 -0.05 0.31 -2.33 12.92 2.69 -0.46 -0.19 5681
1.59 -0.05 0.45 -2.47 12.65 2.92 -0.49 -0.20 5688
1.55 -0.06 0.40 -2.68 13.43 3.20 -0.52 -0.22 5695
1.51 -0.05 0.28 -2.70 13.67 3.47 -0.56 -0.23 5702
1.42 -0.04 -0.16 -2.83 14.66 3.81 -0.57 -0.23 5709
1.29 -0.05 -0.13 -3.24 15.66 4.13 -0.63 -0.21 5716
1.21 -0.04 0.94 -3.54 17.10 4.28 -0.71 -0.25 5724
0.95 -0.04 1.94 -4.11 17.81 4.28 -0.89 -0.39 5731
0.69 -0.04 1.93 -4.93 18.56 4.28 -1.00 -0.56 5738
0.54 -0.03 0.17 -7.05 19.40 4.28 -1.11 -0.69 5745
0.40 -0.02 0.60 -6.76 22.15 4.28 -1.23 -0.76 5752
0.35 -0.02 0.40 -10.86 25.43 4.28 -1.24 -0.80 5760
0.22 -0.02 1.92 -14.04 28.02 4.28 -1.04 -0.82 5767
0.20 -0.02 2.53 -11.22 28.47 4.28 -0.65 -0.80 5774
0.12 -0.01 2.00 -10.81 27.41 4.28 -0.18 -0.80 5781
0.08 -0.01 1.36 -6.28 25.01 4.28 0.10 -0.80 5787
0.07 -0.01 0.28 -4.15 26.43 4.28 0.25 -0.81 5794
0.07 -0.01 0.29 -2.38 28.87 4.28 0.17 -0.84 5801
0.07 -0.01 1.43 0.42 30.83 4.28 -0.16 -0.92 5809
0.03 -0.00 1.88 3.73 29.04 4.28 -0.74 -1.02 5816
0.01 -0.00 6.19 12.22 24.76 4.28 -0.93 -1.03 5824
0.00 0.00 7.78 14.96 13.26 4.26 -0.67 -1.14 5830
0.00 0.00 2.48 20.89 2.60 3.07 -0.50 -1.65 5837
0.01 -0.00 5.71 24.01 8.79 2.43 -0.41 -2.30 5844
0.00 -0.00 8.32 16.43 25.93 0.63 0.63 -2.48 5852
0.00 0.00 5.18 12.64 23.89 -1.01 1.44 -2.41 5859
0.00 0.00 2.75 13.33 15.91 -2.09 1.65 -2.26 5866
0.00 0.00 1.43 13.79 11.19 -2.82 1.44 -2.02 5873
0.01 -0.00 1.27 12.18 8.36 -3.27 1.15 -1.78 5880
0.00 -0.00 1.64 9.88 7.91 -3.51 0.90 -1.57 5888
0.00 0.00 1.47 7.80 7.98 -3.56 0.71 -1.32 5895
0.00 0.00 1.80 7.01 7.93 -3.58 0.64 -1.08 5902
0.00 0.00 2.12 6.62 7.56 -3.62 0.65 -0.93 5909
0.00 0.00 2.53 6.34 7.49 -3.72 0.72 -0.78 5916
0.01 -0.00 2.40 6.10 7.53 -3.89 0.84 -0.67 5923
0.00 -0.00 2.27 5.48 8.28 -4.06 0.99 -0.54 5931
0.00 0.00 2.17 4.61 9.11 -4.14 1.12 -0.43 5938
0.00 0.00 1.79 3.84 9.41 -4.20 1.29 -0.34 5945
0.00 0.00 1.31 3.02 9.57 -4.23 1.48 -0.24 5952
0.00 0.00 0.91 2.37 9.85 -4.26 1.59 -0.16 5959
0.01 -0.00 0.41 1.77 10.29 -4.27 1.65 -0.07 5966
0.00 0.00 0.08 1.29 11.15 -4.28 1.67 -0.02 5974
0.00 -0.00 -0.23 0.71 12.22 -4.28 1.72 0.01 5981
0.00 0.00 -0.47 0.09 13.47 -4.28 1.85 0.01 5988
0.00 0.00 -0.67 -0.42 14.59 -4.28 1.97 -0.01 5995
0.00 0.00 -1.32 -1.11 15.35 -4.28 2.09 -0.10 6002
0.01 -0.00 -2.16 -1.81 15.97 -4.28 2.15 -0.22 6009
0.00 0.00 -2.63 -2.59 16.28 -4.28 2.22 -0.34 6017
0.00 0.00 -3.36 -3.99 16.20 -4.28 2.29 -0.48 6024
0.00 0.00 -3.93 -6.11 15.72 -4.27 2.29 -0.57 6031
0.00 -0.00 -4.23 -5.89 16.47 -4.20 2.23 -0.64 6038
0.00 -0.00 -4.41 -5.79 16.69 -4.08 2.11 -0.67 6045
0.01 -0.00 -4.22 -5.50 16.56 -3.89 2.09 -0.67 6052
0.00 0.00 -3.97 -4.90 16.25 -3.70 2.06 -0.65 6060
0.00 0.00 -3.65 -4.71 17.78 -3.55 2.02 -0.63 6067
0.00 0.00 -3.11 -4.90 19.15 -3.40 2.01 -0.62 6074
0.00 -0.00 -2.65 -5.06 20.28 -3.34 2.08 -0.60 6081
0.01 -0.00 -2.68 -4.94 20.94 -3.36 2.16 -0.56 6088
0.00 -0.00 -3.38 -5.26 21.43 -3.49 2.18 -0.50 6095
0.00 0.00 -3.75 -5.99 21.67 -3.63 2.14 -0.41 6103
0.00 0.00 -3.86 -7.06 21.56 -3.74 2.02 -0.32 6110
0.00 0.00 -3.76 -8.35 20.87 -3.78 1.87 -0.17 6117
0.00 0.00 -3.43 -9.49 20.01 -3.75 1.73 0.01 6124
0.00 -0.00 -2.81 -10.84 19.55 -3.62 1.63 0.19 6132
0.00 0.00 -2.11 -12.22 19.64 -3.46 1.60 0.41 6138
0.00 -0.00 -1.54 -13.65 19.73 -3.29 1.66 0.59 6147
0.00 0.00 -1.44 -15.34 19.59 -3.15 1.77 0.77 6153
0.00 0.00 -2.22 -16.63 17.80 -3.10 1.89 0.91 6160
0.00 -0.00 -3.73 -17.41 15.24 -3.05 2.03 1.09 6167
0.02 -0.00 -5.60 -18.85 13.50 -2.93 2.17 1.32 6175
0.01 -0.00 -6.94 -21.48 12.54 -2.67 2.18 1.54 6182
0.01 -0.00 -8.21 -24.69 9.99 -2.36 1.76 1.75 6189
0.01 -0.00 -7.62 -26.85 8.07 -2.05 1.20 1.88 6196
0.00 -0.00 -6.17 -27.56 6.22 -1.67 0.63 1.93 6203
0.00 0.00 -5.12 -28.26 3.93 -1.32 0.46 1.96 6210
0.01 -0.00 -4.84 -28.46 2.56 -0.89 0.56 1.96 6217
0.00 0.00 -4.88 -28.10 3.21 -0.42 0.71 1.93 6224
0.00 0.00 -5.42 -26.36 4.12 0.01 0.73 1.84 6232
0.00 0.00 -6.01 -24.07 4.99 0.49 0.57 1.72 6239
0.00 0.00 -10.11 -36.35 2.02 0.86 0.02 1.62 6246
0.00 0.00 -3.32 -23.91 -2.34 3.15 -0.21 1.73 6253
-0.00 0.01 -1.85 -20.18 -4.86 3.32 -0.73 1.54 6260
-0.00 0.04 -3.70 -3.86 -3.49 3.16 -1.64 1.14 6267
-0.01 0.07 -4.11 1.18 10.53 3.59 -1.47 1.08 6275
-0.02 0.16 -1.56 5.12 21.87 4.02 -0.89 1.09 6282
-0.03 0.38 -4.55 -0.08 21.05 4.14 -0.93 0.91 6290
-0.02 0.55 -7.30 -3.24 24.14 4.19 -1.12 0.61 6297
-0.04 0.78 -6.10 -6.44 20.71 4.01 -0.91 0.26 6304
-0.04 0.92 -3.70 -5.48 21.24 3.88 -0.44 0.00 6311
-0.04 0.97 -3.27 -3.24 20.37 3.56 -0.24 -0.27 6319
-0.05 1.02 -0.06 -1.94 18.52 3.20 -0.31 -0.58 6326
-0.05 1.01 2.59 -1.87 18.23 2.97 -0.36 -0.62 6333
-0.04 0.98 4.48 -2.28 20.59 2.83 -0.77 -0.40 6340
-0.04 0.98 2.48 -1.52 14.33 1.44 -1.55 -0.12 6347
-0.04 0.88 0.75 -2.24 12.27 0.66 -1.04 0.05 6354
-0.04 0.90 -0.17 -1.37 10.72 0.27 -0.52 0.06 6362
-0.04 0.86 -0.40 -1.14 10.38 0.09 -0.30 -0.01 6368
-0.05 0.84 0.20 -1.03 9.93 0.04 -0.16 -0.05 6375
-0.04 0.83 0.57 -1.01 9.87 0.02 -0.10 -0.05 6382
-0.04 0.71 0.40 -0.93 9.93 0.01 -0.07 -0.04 6389
-0.03 0.74 0.37 -0.91 9.84 0.01 -0.05 -0.06 6396
-0.02 0.73 0.32 -0.81 9.86 0.02 -0.04 -0.07 6404
-0.02 0.70 0.35 -0.82 9.87 0.02 -0.03 -0.07 6411
-0.00 0.68 0.33 -0.78 9.77 0.02 -0.02 -0.08 6418
0.04 0.63 0.35 -0.79 9.81 0.02 -0.01 -0.08 6425
0.03 0.58 0.34 -0.85 9.85 0.02 0.01 -0.08 6432
0.01 0.58 0.26 -0.83 9.87 0.02 0.02 -0.08 6439
0.01 0.54 0.32 -0.80 9.80 0.02 0.03 -0.08 6447
0.02 0.53 0.35 -0.79 9.81 0.02 0.04 -0.07 6454
0.04 0.52 0.33 -0.83 9.87 0.03 0.05 -0.08 6461
0.04 0.43 0.35 -0.79 9.79 0.03 0.05 -0.08 6468
0.04 0.39 0.35 -0.85 9.84 0.03 0.05 -0.08 6475
0.06 0.32 0.46 -0.85 9.83 0.03 0.05 -0.08 6482
0.05 0.27 0.45 -0.85 9.80 0.03 0.05 -0.08 6490
0.07 0.26 0.49 -0.96 9.77 0.03 0.05 -0.09 6497
0.08 0.25 0.45 -0.86 9.75 0.03 0.05 -0.10 6504
0.07 0.18 0.46 -0.87 9.80 0.02 0.04 -0.11 6511
0.07 0.17 0.41 -0.81 9.78 0.03 0.04 -0.11 6518
0.08 0.14 0.45 -0.83 9.78 0.03 0.03 -0.11 6525
0.10 0.11 0.44 -0.83 9.81 0.03 0.03 -0.11 6533
0.11 0.13 0.38 -0.86 9.81 0.03 0.04 -0.11 6540
0.11 0.07 0.37 -0.84 9.82 0.03 0.07 -0.10 6547
0.11 0.05 0.40 -0.84 9.79 0.03 0.03 -0.10 6554
0.14 0.02 0.36 -0.85 9.79 0.07 0.04 -0.10 6561
0.18 -0.00 0.41 -0.88 9.80 0.03 0.03 -0.10 6568
0.16 0.00 0.44 -0.88 9.79 0.03 0.03 -0.10 6576
0.18 0.04 0.39 -0.92 9.82 0.03 0.04 -0.10 6583
0.22 0.02 0.42 -0.90 9.80 0.03 0.03 -0.10 6590
0.23 -0.01 0.38 -0.91 9.77 0.03 0.03 -0.11 6597
0.25 -0.01 0.43 -0.94 9.76 0.03 0.03 -0.11 6604
0.24 -0.00 0.39 -0.96 9.79 0.03 0.03 -0.11 6611
0.24 0.02 0.40 -0.89 9.78 0.02 0.03 -0.11 6619
0.26 -0.00 0.44 -0.89 9.78 0.03 0.02 -0.11 6626
0.29 0.00 0.44 -0.93 9.83 0.02 0.01 -0.11 6633
0.29 -0.01 0.41 -0.88 9.80 0.03 0.02 -0.11 6640
0.32 -0.02 0.39 -0.94 9.80 0.03 0.01 -0.12 6647
0.34 -0.01 0.35 -0.94 9.81 0.04 0.02 -0.12 6654
0.36 -0.02 0.42 -0.93 9.78 0.03 0.01 -0.11 6662
0.40 -0.03 0.37 -0.97 9.78 0.03 0.02 -0.12 6669
0.46 -0.02 0.38 -0.97 9.79 0.04 0.03 -0.12 6676
0.45 -0.02 0.37 -0.99 9.81 0.03 0.03 -0.11 6683
0.46 -0.04 0.26 -0.98 9.78 0.04 0.04 -0.12 6690
0.51 -0.02 0.39 -0.95 9.79 0.04 0.04 -0.11 6697
0.55 -0.02 0.40 -0.95 9.82 0.05 0.04 -0.12 6705
0.60 -0.03 0.43 -0.98 9.80 0.06 0.04 -0.12 6712
0.61 -0.03 0.42 -1.00 9.83 0.08 0.04 -0.12 6719
0.68 -0.03 0.46 -0.99 9.84 0.11 0.05 -0.12 6726
0.71 -0.03 0.43 -1.02 9.93 0.14 0.05 -0.12 6733
0.75 -0.04 0.41 -1.06 10.01 0.19 0.06 -0.13 6740
0.86 -0.03 0.47 -1.05 10.10 0.26 0.06 -0.14 6748
0.94 -0.04 0.41 -1.12 10.37 0.37 0.06 -0.15 6756
1.04 -0.05 0.54 -1.20 10.64 0.56 0.08 -0.16 6762
1.08 -0.05 0.48 -1.28 11.32 0.83 0.11 -0.17 6770
1.11 -0.05 0.42 -1.31 12.01 1.21 0.14 -0.18 6777
1.18 -0.04 0.64 -1.36 12.30 1.48 0.10 -0.19 6785
1.22 -0.03 0.51 -1.59 12.38 1.68 0.02 -0.20 6792
1.29 -0.05 0.28 -1.47 12.40 1.83 -0.09 -0.19 6799
1.33 -0.06 0.28 -1.64 12.58 1.95 -0.17 -0.17 6806
1.37 -0.06 0.68 -1.77 12.34 2.09 -0.18 -0.16 6813
1.41 -0.05 0.35 -1.57 12.49 2.21 -0.23 -0.16 6820
1.42 -0.05 0.18 -1.29 9.15 2.38 -0.30 -0.17 6827
1.44 -0.04 0.41 -2.14 12.23 2.61 -0.29 -0.17 6835
1.46 -0.05 0.14 -2.22 12.78 2.80 -0.32 -0.17 6842
1.43 -0.05 0.49 -2.44 13.13 3.08 -0.37 -0.17 6849
1.38 -0.06 0.63 -2.69 13.50 3.39 -0.35 -0.18 6856
1.33 -0.05 0.38 -2.84 14.59 3.69 -0.36 -0.20 6863
1.28 -0.05 0.37 -2.95 14.97 4.05 -0.37 -0.22 6871
1.12 -0.04 0.90 -3.29 15.72 4.25 -0.40 -0.24 6878
0.97 -0.04 1.74 -3.88 16.53 4.28 -0.53 -0.30 6885
0.75 -0.04 2.15 -4.70 17.96 4.28 -0.69 -0.45 6892
0.47 -0.03 1.94 -5.84 19.43 4.28 -0.78 -0.62 6899
0.39 -0.03 1.34 -6.49 21.68 4.28 -0.89 -0.71 6906
0.29 -0.01 1.04 -9.41 24.80 4.28 -0.94 -0.77 6914
0.22 -0.01 1.40 -9.30 28.91 4.28 -0.82 -0.77 6921
0.18 -0.02 1.79 -13.80 28.04 4.28 -0.50 -0.72 6928
0.14 -0.01 2.05 -10.14 26.76 4.28 -0.13 -0.66 6935
0.11 -0.01 1.22 -7.36 24.71 4.28 0.17 -0.67 6941
0.06 -0.01 -0.40 -5.14 26.51 4.28 0.26 -0.69 6948
0.06 -0.01 -1.10 -3.81 31.07 4.28 0.15 -0.71 6956
0.06 -0.01 0.10 -2.83 34.13 4.28 -0.39 -0.78 6963
0.04 -0.00 1.33 0.13 34.15 4.28 -1.09 -0.87 6970
0.01 -0.00 5.42 8.54 21.73 4.28 -1.32 -0.83 6977
0.00 -0.00 9.57 17.19 16.58 4.28 -0.90 -0.80 6984
0.00 -0.00 9.39 30.52 3.23 3.18 -0.60 -0.84 6991
-0.00 0.01 4.32 34.44 0.25 1.96 -0.23 -1.37 6999
0.01 -0.00 6.73 17.00 29.64 1.51 0.48 -1.76 7006
0.00 -0.00 4.76 12.73 29.78 -1.02 0.92 -1.71 7013
0.00 -0.00 0.43 16.00 18.21 -2.38 1.14 -1.50 7020
0.00 0.00 -0.15 17.10 11.70 -2.92 0.95 -1.32 7027
0.00 -0.00 0.04 14.85 9.33 -3.62 0.52 -1.22 7034
0.00 0.00 0.87 11.42 8.82 -3.98 0.15 -1.17 7042
0.01 -0.00 1.32 9.23 8.50 -4.11 -0.03 -1.15 7049
0.01 -0.00 1.81 7.21 8.91 -4.16 -0.06 -1.12 7056
0.00 -0.00 2.05 6.38 8.36 -4.19 0.05 -1.07 7063
0.00 0.00 2.28 5.88 8.15 -4.22 0.24 -1.03 7070
0.00 -0.00 1.94 5.51 8.01 -4.26 0.40 -0.98 7077
0.01 -0.00 1.63 5.08 8.38 -4.28 0.51 -0.93 7085
0.01 -0.00 1.46 4.02 9.04 -4.28 0.60 -0.88 7092
0.00 -0.00 1.46 2.74 10.17 -4.28 0.69 -0.85 7099
0.00 -0.00 1.44 1.65 10.72 -4.28 0.79 -0.81 7106
0.00 0.00 1.40 0.64 10.73 -4.28 0.96 -0.74 7113
0.01 -0.00 1.34 -0.53 10.80 -4.28 1.07 -0.64 7120
0.02 -0.00 1.25 -0.57 11.22 -4.28 1.15 -0.61 7128
0.01 -0.00 1.20 -1.34 11.99 -4.28 1.24 -0.55 7135
0.01 -0.00 1.21 -2.11 13.07 -4.28 1.35 -0.49 7142
0.01 -0.00 0.96 -2.87 14.65 -4.28 1.47 -0.43 7149
0.01 -0.00 0.62 -3.72 15.85 -4.28 1.57 -0.40 7156
0.01 -0.00 0.09 -4.39 16.33 -4.28 1.68 -0.40 7163
0.02 -0.00 -0.17 -5.27 16.78 -4.28 1.76 -0.43 7171
0.02 -0.00 -0.50 -6.16 17.69 -4.28 1.82 -0.44 7178
0.01 -0.00 -0.29 -7.07 17.37 -4.27 1.92 -0.42 7185
0.00 0.00 -0.10 -7.13 18.40 -4.23 1.99 -0.37 7192
0.00 -0.00 -0.30 -8.08 17.17 -4.14 2.06 -0.32 7199
0.00 0.00 -0.18 -7.81 17.52 -4.00 2.12 -0.21 7206
0.01 -0.00 -0.09 -7.48 17.36 -3.77 2.10 -0.10 7214
0.01 -0.00 -0.12 -7.31 17.45 -3.58 2.00 0.03 7221
0.00 0.00 -0.47 -7.76 18.37 -3.43 1.95 0.17 7228
0.00 0.00 -0.09 -7.90 18.38 -3.26 1.92 0.29 7235
0.00 0.00 -0.60 -8.32 18.70 -3.17 1.90 0.40 7242
0.00 -0.00 -0.66 -8.99 19.13 -3.08 1.95 0.53 7249
0.01 -0.00 -0.93 -9.46 19.80 -3.02 1.95 0.57 7257
0.00 0.00 -1.38 -9.71 20.33 -3.03 1.91 0.62 7264
0.00 0.00 -1.48 -10.09 21.28 -3.10 1.83 0.64 7271
0.00 0.00 -1.60 -10.42 20.91 -3.19 1.70 0.67 7278
0.00 0.00 -1.75 -10.90 20.34 -3.30 1.61 0.70 7285
0.00 -0.00 -1.63 -12.10 19.61 -3.34 1.54 0.71 7293
0.00 0.00 -1.55 -13.92 18.22 -3.33 1.52 0.69 7300
0.00 0.00 -1.67 -15.84 16.16 -3.22 1.56 0.66 7307
0.00 0.00 -2.11 -17.04 14.11 -3.06 1.63 0.62 7314
0.00 0.00 -2.67 -18.58 12.46 -2.87 1.71 0.62 7321
0.00 0.00 -3.46 -20.07 11.21 -2.60 1.75 0.64 7328
0.00 0.00 -4.43 -21.64 9.85 -2.32 1.64 0.70 7335
0.00 0.00 -4.72 -22.84 8.94 -2.06 1.47 0.75 7343
0.00 0.00 -5.07 -23.68 7.70 -1.78 1.24 0.83 7350
0.00 0.00 -5.43 -24.31 6.09 -1.49 1.09 0.95 7357
0.00 0.00 -5.78 -25.05 5.13 -1.12 0.99 1.08 7364
0.00 0.00 -5.65 -25.31 4.21 -0.71 0.81 1.22 7371
0.00 -0.00 -5.14 -24.62 4.39 -0.36 0.57 1.28 7378
0.00 0.00 -4.31 -23.96 4.64 0.09 0.30 1.28 7386
0.00 0.00 -3.30 -21.92 5.45 0.43 0.10 1.24 7393
0.00 0.00 -2.61 -19.91 6.79 0.74 0.01 1.15 7400
0.00 0.00 -2.01 -17.49 8.10 0.91 -0.09 1.03 7407
0.00 0.00 -16.73 -43.76 48.24 1.52 -0.63 1.33 7415
0.00 0.00 -5.30 -16.48 3.99 3.15 -1.25 1.83 7421
-0.00 0.01 0.58 -1.24 -3.54 3.12 -1.59 1.84 7429
-0.00 0.04 1.24 2.60 1.20 2.60 -1.64 1.72 7436
-0.01 0.06 1.14 1.20 12.96 2.86 -0.42 2.25 7443
-0.01 0.19 -1.56 4.46 11.22 3.06 0.62 2.58 7451
-0.03 0.41 -10.44 -1.42 19.29 3.78 0.27 2.35 7458
-0.03 0.57 -13.33 -6.99 21.46 4.10 -0.70 1.56 7465
-0.04 0.70 -9.26 -5.93 19.59 4.15 -1.10 0.79 7473
-0.04 0.87 -5.63 -4.37 22.28 3.88 -0.56 0.44 7480
-0.07 0.93 -5.97 -2.81 19.47 3.36 -0.23 -0.04 7487
-0.05 0.93 -2.50 -2.07 16.56 2.97 -0.24 -0.53 7494
-0.05 0.97 3.07 -1.75 16.20 2.97 -0.34 -0.69 7501
-0.05 0.95 4.13 -3.22 26.17 2.67 -1.11 -0.41 7508
-0.05 0.94 3.03 -2.33 12.66 0.82 -1.23 -0.05 7516
-0.05 0.95 0.00 -2.14 11.58 0.36 -0.65 0.07 7522
-0.06 0.96 -0.63 -1.08 10.03 0.10 -0.34 -0.02 7530
-0.06 0.96 -0.02 -1.10 10.08 0.04 -0.17 -0.09 7536
-0.06 1.02 0.74 -1.10 9.82 0.01 -0.11 -0.10 7543
-0.06 0.99 0.74 -1.06 9.98 -0.01 -0.09 -0.08 7550
-0.05 0.96 0.38 -0.82 9.95 -0.01 -0.07 -0.07 7558
-0.06 0.99 0.33 -0.75 9.79 -0.01 -0.06 -0.09 7565
-0.04 0.93 0.56 -0.74 9.75 0.00 -0.06 -0.10 7572
-0.04 0.91 0.47 -0.71 9.78 0.00 -0.04 -0.09 7579
-0.02 0.83 0.48 -0.76 9.77 0.00 -0.04 -0.10 7586
-0.03 0.81 0.41 -0.79 9.83 0.01 -0.03 -0.10 7593
-0.04 0.77 0.37 -0.78 9.81 0.01 -0.03 -0.10 7601
-0.04 0.68 0.38 -0.76 9.82 0.01 -0.02 -0.10 7608
-0.03 0.64 0.39 -0.75 9.80 0.01 -0.01 -0.09 7615
0.01 0.57 0.40 -0.77 9.78 0.02 -0.00 -0.10 7622
0.02 0.53 0.39 -0.78 9.80 0.03 0.01 -0.10 7629
0.02 0.47 0.33 -0.87 9.79 0.03 0.01 -0.09 7636
0.02 0.43 0.36 -0.79 9.82 0.04 0.02 -0.10 7644
0.05 0.37 0.31 -0.83 9.82 0.03 0.02 -0.09 7651
0.07 0.35 0.35 -0.87 9.77 0.03 0.03 -0.09 7658
0.10 0.32 0.39 -0.83 9.80 0.03 0.03 -0.10 7665
0.12 0.24 0.41 -0.81 9.80 0.03 0.03 -0.10 7672
0.11 0.22 0.49 -0.84 9.78 0.03 0.03 -0.10 7680
0.10 0.17 0.49 -0.84 9.77 0.03 0.04 -0.10 7687
0.11 0.15 0.43 -0.81 9.79 0.02 0.03 -0.10 7694
0.11 0.15 0.39 -0.89 9.75 0.02 0.03 -0.11 7701
0.16 0.12 0.34 -0.83 9.80 0.02 0.03 -0.11 7708
0.18 0.12 0.38 -0.86 9.79 0.02 0.04 -0.10 7715
0.19 0.10 0.35 -0.84 9.81 0.02 0.04 -0.10 7723
0.18 0.06 0.35 -0.86 9.79 0.02 0.04 -0.10 7730
0.19 0.05 0.40 -0.83 9.81 0.02 0.04 -0.10 7737
0.21 0.07 0.41 -0.85 9.80 0.02 0.03 -0.10 7744
0.22 0.05 0.41 -0.84 9.75 0.02 0.04 -0.10 7751
0.24 0.02 0.45 -0.86 9.80 0.03 0.03 -0.11 7758
0.25 0.02 0.40 -0.86 9.76 0.03 0.03 -0.12 7766
0.25 -0.00 0.40 -0.85 9.77 0.02 0.03 -0.12 7773
0.25 0.00 0.38 -0.84 9.80 0.03 0.03 -0.12 7780
0.26 0.04 0.40 -0.82 9.81 0.03 0.03 -0.12 7787
0.29 -0.01 0.60 -0.82 9.80 0.04 0.03 -0.12 7794
0.28 -0.02 0.37 -0.88 9.81 0.04 0.04 -0.13 7801
0.29 -0.01 0.40 -0.85 9.81 0.05 0.04 -0.13 7809
0.34 0.01 0.38 -0.91 9.83 0.05 0.05 -0.13 7816
0.43 -0.01 0.39 -0.89 9.81 0.06 0.05 -0.13 7823
0.46 0.02 0.39 -0.91 9.80 0.07 0.05 -0.13 7830
0.52 0.01 0.40 -0.93 9.80 0.08 0.05 -0.13 7837
0.53 -0.03 0.44 -0.88 9.83 0.09 0.06 -0.13 7844
0.56 -0.04 0.43 -1.00 9.82 0.10 0.07 -0.14 7852
0.59 -0.02 0.46 -0.95 9.90 0.13 0.07 -0.14 7859
0.66 -0.03 0.47 -0.95 9.94 0.18 0.08 -0.15 7866
0.72 -0.03 0.48 -1.03 10.04 0.23 0.09 -0.17 7873
0.81 -0.04 0.57 -1.05 9.93 0.33 0.08 -0.18 7880
0.85 -0.04 0.73 -1.14 10.50 0.49 0.08 -0.20 7887
0.94 -0.05 0.69 -1.19 11.07 0.72 0.09 -0.22 7895
1.02 -0.04 0.43 -1.23 11.83 1.13 0.11 -0.22 7903
1.09 -0.04 0.39 -1.22 12.24 1.49 0.07 -0.24 7910
1.15 -0.05 0.56 -1.42 12.11 1.66 0.04 -0.25 7917
1.24 -0.05 0.36 -1.49 12.43 1.82 -0.05 -0.23 7924
1.27 -0.05 0.38 -1.69 12.41 1.94 -0.16 -0.22 7931
1.31 -0.05 0.63 -1.56 12.05 2.09 -0.18 -0.21 7939
1.35 -0.05 0.43 -1.78 12.03 2.20 -0.22 -0.22 7946
1.40 -0.04 0.37 -1.23 13.23 2.36 -0.27 -0.22 7953
1.42 -0.04 0.10 -2.27 13.21 2.57 -0.34 -0.24 7960
1.47 -0.05 0.51 -2.37 12.75 2.82 -0.39 -0.24 7967
1.46 -0.05 0.45 -2.44 14.07 3.09 -0.42 -0.24 7974
1.40 -0.05 0.08 -2.59 13.63 3.40 -0.49 -0.25 7982
1.36 -0.05 -0.04 -2.64 15.00 3.68 -0.57 -0.23 7989
1.28 -0.04 0.27 -3.03 15.67 4.08 -0.58 -0.21 7996
1.14 -0.05 1.37 -3.06 15.83 4.27 -0.67 -0.25 8003
0.94 -0.04 1.98 -4.04 16.57 4.28 -0.77 -0.36 8010
0.74 -0.04 2.13 -4.33 17.05 4.28 -0.97 -0.51 8017
0.51 -0.04 1.56 -5.47 19.81 4.28 -1.09 -0.64 8025
0.38 -0.02 1.29 -5.86 21.91 4.28 -1.18 -0.72 8032
0.35 -0.02 0.36 -10.19 25.72 4.28 -1.19 -0.77 8039
0.26 -0.02 1.57 -14.39 27.23 4.28 -1.09 -0.80 8046
0.22 -0.02 2.05 -11.06 29.67 4.28 -0.76 -0.82 8053
0.14 -0.01 2.98 -9.47 26.64 4.28 -0.39 -0.82 8059
0.08 -0.01 2.82 -7.85 25.44 4.28 -0.10 -0.87 8067
0.09 -0.01 1.24 -4.39 26.25 4.28 0.09 -0.90 8074
0.10 -0.01 1.34 -2.94 28.19 4.28 0.11 -0.97 8081
0.06 -0.01 2.75 -1.09 29.92 4.28 -0.16 -1.04 8088
0.05 -0.01 3.53 2.63 30.91 4.28 -0.60 -1.15 8095
0.00 -0.00 2.86 7.45 16.97 4.28 -0.55 -1.16 8102
0.00 0.00 8.93 15.24 16.69 4.28 -0.20 -1.30 8110
0.00 0.00 6.13 26.34 5.69 3.30 -0.05 -1.63 8117
-0.00 0.00 6.79 28.28 -3.45 2.18 -0.29 -2.14 8124
0.00 0.00 7.74 16.65 29.21 0.99 0.47 -2.25 8131
0.00 0.00 5.46 12.93 25.88 -1.31 0.86 -2.06 8138
0.00 0.00 3.09 14.28 16.73 -2.48 1.03 -1.71 8145
0.00 0.00 2.31 14.71 10.66 -2.97 0.88 -1.41 8153
0.00 0.00 2.62 13.06 8.14 -3.44 0.73 -1.22 8160
0.01 -0.00 3.21 10.43 7.08 -3.60 0.57 -1.07 8167
0.00 -0.00 3.11 8.43 7.69 -3.56 0.53 -0.95 8174
0.00 0.00 2.35 7.13 7.66 -3.52 0.64 -0.81 8181
0.00 0.00 2.00 6.67 7.24 -3.50 0.82 -0.68 8188
0.00 0.00 1.77 6.42 7.12 -3.54 0.96 -0.59 8196
0.00 0.00 1.11 6.32 7.42 -3.64 1.02 -0.50 8203
0.01 -0.00 0.73 5.93 8.25 -3.77 1.05 -0.42 8210
0.00 0.00 0.63 5.23 9.12 -3.91 1.08 -0.33 8217
0.00 -0.00 0.39 4.36 9.93 -4.03 1.16 -0.25 8224
0.00 0.00 0.30 3.70 10.30 -4.13 1.23 -0.17 8231
0.00 0.00 0.28 3.30 10.62 -4.24 1.35 -0.08 8239
0.00 -0.00 0.18 2.93 11.31 -4.27 1.43 -0.02 8246
0.00 -0.00 -0.23 2.42 12.02 -4.28 1.51 0.02 8253
0.00 0.00 -0.69 1.61 12.88 -4.28 1.56 0.05 8260
0.01 -0.00 -1.01 0.74 13.64 -4.28 1.63 0.06 8267
0.00 0.00 -1.40 -0.33 14.42 -4.28 1.70 0.02 8274
0.00 -0.00 -1.90 -1.35 15.05 -4.28 1.75 -0.06 8282
0.01 -0.00 -2.43 -2.30 15.42 -4.28 1.82 -0.18 8289
0.00 -0.00 -2.78 -3.49 15.57 -4.28 1.89 -0.35 8296
0.00 -0.00 -3.20 -4.56 15.60 -4.28 1.94 -0.52 8303
0.01 -0.00 -3.21 -5.28 15.83 -4.24 1.96 -0.71 8310
0.00 0.00 -3.29 -5.97 15.96 -4.15 1.96 -0.84 8317
0.01 -0.00 -3.35 -6.13 16.22 -3.95 1.93 -0.91 8325
0.02 -0.00 -2.90 -5.77 17.12 -3.70 1.91 -0.91 8332
0.01 -0.00 -2.44 -5.13 18.37 -3.54 1.92 -0.89 8339
0.00 -0.00 -1.89 -4.58 19.49 -3.44 1.97 -0.83 8346
0.00 0.00 -1.67 -4.68 20.80 -3.47 2.02 -0.74 8353
0.00 0.00 -1.57 -5.00 21.38 -3.60 2.09 -0.60 8360
0.00 -0.00 -1.67 -5.71 21.63 -3.79 2.06 -0.42 8368
0.01 -0.00 -1.97 -6.84 21.03 -3.90 1.94 -0.24 8375
0.00 0.00 -2.30 -8.13 20.74 -3.99 1.77 -0.09 8382
0.00 0.00 -2.16 -9.12 20.18 -3.98 1.61 0.08 8389
0.00 0.00 -2.24 -9.67 19.68 -3.94 1.56 0.22 8396
0.00 0.00 -2.31 -10.32 19.54 -3.87 1.54 0.39 8403
0.00 -0.00 -2.30 -11.39 19.64 -3.79 1.51 0.56 8411
0.01 -0.00 -2.39 -12.87 19.63 -3.68 1.48 0.72 8419
0.00 -0.00 -3.84 -18.67 21.89 -3.52 1.38 0.95 8425
0.00 0.00 -3.34 -18.89 18.17 -2.74 1.25 1.22 8432
0.00 0.00 -2.00 -15.83 9.58 -2.99 1.04 1.35 8439
0.00 0.00 -2.68 -21.14 14.80 -3.04 1.05 1.53 8446
0.00 -0.00 -3.92 -23.86 21.56 -2.69 1.28 1.71 8455
0.00 0.00 -3.83 -23.40 11.49 -2.49 1.53 1.77 8461
0.00 0.00 -5.66 -24.80 10.27 -2.18 1.55 1.79 8468
0.00 0.00 -6.36 -26.86 7.09 -1.90 1.51 1.79 8475
0.00 0.00 -7.03 -28.50 5.70 -1.52 1.38 1.75 8482
0.00 0.00 -8.38 -31.54 4.94 -0.90 1.14 1.68 8489
0.00 0.00 -10.50 -32.54 9.01 0.31 0.66 1.61 8497
0.00 0.00 -8.93 -29.88 3.75 1.02 0.26 1.44 8504
0.00 0.00 -9.76 -29.14 8.37 1.95 -0.22 1.27 8511
0.00 0.00 -8.11 -30.54 3.24 2.42 -0.73 1.06 8518
-0.00 0.01 -7.11 -36.89 -0.10 2.77 -1.15 0.95 8525
-0.00 0.03 -3.10 -7.99 0.51 3.27 -1.30 0.99 8532
-0.01 0.11 -1.32 -5.68 7.90 3.73 -0.73 0.89 8540
-0.01 0.21 -2.56 1.62 27.19 4.27 -0.39 0.92 8548
-0.03 0.44 -6.20 -0.07 25.14 4.21 -0.76 0.69 8555
-0.05 0.61 -6.60 -3.59 24.40 4.01 -1.01 0.26 8562
-0.05 0.74 -4.29 -5.01 21.27 3.50 -0.99 -0.04 8569
-0.05 0.82 -1.72 -3.71 18.37 3.29 -0.62 -0.26 8577
-0.04 0.79 -0.66 -2.12 16.80 3.05 -0.50 -0.37 8584
-0.05 0.82 0.70 -1.37 14.84 2.78 -0.42 -0.43 8591
-0.05 0.83 2.01 -1.19 14.26 2.67 -0.40 -0.41 8598
-0.06 0.81 3.32 -1.89 17.97 2.69 -0.66 -0.29 8605
-0.05 0.93 0.86 -2.02 17.01 1.60 -1.46 -0.07 8612
-0.05 0.87 0.51 -2.64 12.53 0.53 -0.93 0.04 8620
-0.04 0.87 -0.28 -2.02 11.23 0.12 -0.40 0.04 8627
-0.05 0.84 -0.36 -1.25 10.29 0.02 -0.22 -0.03 8634
-0.06 0.85 0.25 -1.01 10.07 0.01 -0.13 -0.08 8640
-0.06 0.82 0.48 -1.07 9.93 0.03 -0.08 -0.07 8647
-0.04 0.81 0.38 -1.08 10.08 -0.01 -0.05 -0.06 8654
-0.06 0.84 0.19 -0.93 9.93 -0.01 -0.03 -0.07 8662
-0.05 0.80 0.21 -0.91 9.90 -0.01 -0.01 -0.08 8669
-0.03 0.83 0.31 -0.90 9.23 -0.01 0.01 -0.07 8676
-0.01 0.81 0.30 -0.80 9.82 -0.01 0.01 -0.08 8683
-0.03 0.81 -0.14 -0.97 9.42 -0.01 0.01 -0.07 8690
-0.02 0.77 0.38 -0.81 9.81 -0.00 0.01 -0.08 8697
-0.01 0.73 0.35 -0.79 9.81 0.00 0.01 -0.08 8705
-0.01 0.73 0.36 -0.81 9.80 0.00 0.01 -0.08 8712
0.00 0.66 0.28 -0.79 9.84 0.01 0.01 -0.08 8719
0.01 0.61 0.28 -0.82 9.78 0.01 0.01 -0.08 8726
-0.01 0.56 0.30 -0.80 9.71 0.02 0.01 -0.08 8733
0.00 0.58 0.34 -0.81 9.81 0.02 0.01 -0.08 8740
-0.00 0.53 0.34 -0.82 9.82 0.02 0.02 -0.08 8748
0.00 0.49 0.35 -0.86 9.85 0.02 0.02 -0.08 8755
0.01 0.43 0.32 -0.86 9.82 0.02 0.02 -0.08 8762
0.01 0.39 0.31 -0.83 9.78 0.02 0.02 -0.08 8769
0.02 0.35 0.34 -0.81 9.82 0.02 0.03 -0.09 8776
0.04 0.32 0.38 -0.84 9.75 0.02 0.04 -0.09 8783
0.04 0.28 0.36 -0.84 9.80 0.02 0.04 -0.10 8791
0.04 0.21 0.32 -0.84 9.78 0.02 0.04 -0.10 8798
0.04 0.20 0.28 -0.87 9.81 0.02 0.04 -0.10 8805
0.03 0.24 0.30 -0.86 9.80 0.02 0.04 -0.10 8812
0.03 0.20 0.30 -0.84 9.78 0.01 0.04 -0.09 8819
0.04 0.23 0.29 -0.85 9.78 0.01 0.05 -0.09 8826
0.06 0.23 0.30 -0.87 9.79 0.01 0.05 -0.09 8834
0.06 0.14 0.33 -0.84 9.75 0.01 0.05 -0.09 8841
0.06 0.12 0.33 -0.80 9.76 0.01 0.06 -0.09 8848
0.05 0.14 0.34 -0.87 9.78 0.02 0.05 -0.08 8855
0.07 0.14 0.34 -0.82 9.76 0.01 0.05 -0.09 8862
0.08 0.11 0.34 -0.84 9.80 0.02 0.05 -0.09 8869
0.09 0.11 0.35 -0.87 9.79 0.01 0.06 -0.09 8877
0.09 0.10 0.35 -0.89 9.79 0.02 0.06 -0.09 8884
0.12 0.06 0.36 -0.88 9.67 0.02 0.06 -0.10 8891
0.14 0.06 0.27 -0.88 9.75 0.02 0.06 -0.10 8898
0.14 0.07 0.31 -0.81 9.82 0.03 0.06 -0.11 8905
0.16 0.07 0.29 -0.91 9.82 0.03 0.05 -0.11 8912
0.18 0.04 0.34 -0.89 9.83 0.03 0.06 -0.11 8920
0.19 0.00 0.34 -0.90 9.81 0.03 0.06 -0.10 8927
0.18 -0.01 0.34 -0.86 10.36 0.03 0.06 -0.10 8934
0.17 0.01 0.35 -0.85 9.81 0.04 0.06 -0.10 8941
0.20 0.04 0.40 -0.85 9.81 0.04 0.06 -0.09 8948
0.22 0.02 0.36 -0.81 9.83 0.05 0.06 -0.10 8955
0.29 -0.01 0.33 -0.85 9.84 0.06 0.05 -0.10 8963
0.28 0.00 0.36 -0.85 9.83 0.07 0.06 -0.10 8970
0.37 -0.02 0.32 -0.89 9.85 0.09 0.07 -0.10 8977
0.45 -0.03 0.29 -0.84 10.00 0.11 0.08 -0.10 8984
0.50 -0.02 0.33 -1.00 9.99 0.16 0.09 -0.10 8991
0.60 -0.03 0.35 -1.00 10.09 0.23 0.12 -0.11 8998
0.63 -0.04 0.28 -1.08 10.51 0.35 0.16 -0.13 9007
0.71 -0.05 0.51 -1.14 10.72 0.57 0.21 -0.14 9014
0.78 -0.04 0.57 -1.20 11.66 0.86 0.32 -0.17 9021
0.91 -0.04 0.69 -1.25 12.34 1.35 0.37 -0.19 9028
0.96 -0.03 0.75 -1.42 12.91 1.75 0.29 -0.21 9035
1.03 -0.04 0.74 -1.63 13.23 1.96 0.11 -0.23 9042
1.09 -0.04 0.39 -1.63 13.42 2.10 -0.01 -0.23 9050
1.14 -0.06 0.46 -1.45 12.62 2.21 -0.15 -0.22 9057
1.20 -0.04 0.28 -1.55 12.41 2.36 -0.24 -0.22 9064
1.20 -0.04 0.10 -1.89 12.30 2.51 -0.27 -0.21 9071
1.26 -0.04 0.07 -1.99 13.17 2.74 -0.25 -0.18 9078
1.26 -0.05 0.31 -2.10 13.34 3.03 -0.26 -0.17 9085
1.27 -0.04 0.09 -1.88 12.75 3.26 -0.25 -0.17 9093
1.25 -0.05 0.30 -2.46 13.55 3.53 -0.25 -0.17 9100
1.22 -0.04 0.05 -2.57 15.36 3.93 -0.18 -0.16 9107
1.12 -0.04 0.04 -2.88 16.11 4.22 -0.18 -0.14 9114
1.02 -0.04 1.02 -3.15 16.39 4.28 -0.22 -0.16 9121
0.87 -0.04 1.76 -3.28 16.05 4.28 -0.41 -0.26 9128
0.76 -0.03 1.73 -4.00 18.64 4.28 -0.49 -0.37 9136
0.53 -0.03 1.48 -4.92 18.81 4.28 -0.69 -0.50 9143
0.41 -0.03 1.52 -8.05 23.63 4.28 -0.74 -0.57 9150
0.31 -0.02 2.24 -10.37 25.85 4.28 -0.76 -0.63 9157
0.29 -0.02 1.67 -12.23 28.75 4.28 -0.59 -0.64 9164
0.21 -0.02 1.57 -11.79 30.05 4.28 -0.32 -0.62 9171
0.16 -0.02 1.60 -9.69 28.14 4.28 -0.12 -0.60 9178
0.12 -0.01 1.34 -7.20 26.35 4.28 0.05 -0.63 9185
0.09 -0.01 0.46 -5.41 28.98 4.28 0.16 -0.65 9192
0.07 -0.00 1.13 -3.42 32.26 4.28 -0.03 -0.70 9200
0.10 -0.01 3.13 -1.02 35.12 4.28 -0.43 -0.77 9206
0.05 -0.01 3.32 4.08 33.57 4.28 -0.78 -0.84 9213
0.03 -0.00 8.28 18.82 17.30 4.28 -0.43 -0.78 9221
0.00 0.00 7.89 21.62 10.11 4.10 -0.04 -0.82 9228
0.00 0.00 4.42 36.19 -1.69 2.27 0.11 -1.26 9235
0.01 0.00 6.49 22.39 18.19 1.75 0.01 -1.82 9243
0.01 -0.00 7.52 13.52 33.12 -0.23 0.45 -1.90 9250
0.00 0.00 2.45 14.20 23.06 -2.00 0.74 -1.76 9257
0.00 0.00 1.20 15.92 13.37 -2.81 0.72 -1.60 9264
0.00 0.00 0.97 15.05 10.85 -3.40 0.46 -1.44 9271
0.00 0.00 1.41 12.07 9.03 -3.83 0.21 -1.38 9278
0.00 -0.00 1.86 9.70 9.07 -4.01 -0.05 -1.38 9285
0.01 -0.00 2.24 7.50 9.33 -4.03 -0.19 -1.36 9292
0.00 0.00 2.02 6.39 8.85 -4.05 -0.16 -1.32 9299
0.00 0.00 2.41 5.55 8.49 -4.06 -0.02 -1.25 9307
0.00 0.00 2.59 5.09 8.17 -4.10 0.12 -1.18 9314
0.00 -0.00 2.31 5.06 8.18 -4.17 0.22 -1.10 9321
0.01 -0.00 2.21 4.78 8.90 -4.23 0.32 -1.00 9328
0.00 0.00 2.22 4.33 9.82 -4.28 0.41 -0.89 9335
0.00 0.00 2.37 3.31 10.66 -4.28 0.58 -0.76 9342
0.00 0.00 2.36 2.28 11.02 -4.28 0.82 -0.62 9350
0.00 0.00 2.14 1.65 10.90 -4.28 0.99 -0.49 9357
0.00 -0.00 1.82 1.09 11.01 -4.28 1.12 -0.35 9364
0.01 -0.00 1.65 0.36 11.43 -4.28 1.16 -0.25 9371
0.00 0.00 1.48 -0.47 11.86 -4.28 1.20 -0.18 9378
0.00 0.00 1.49 -1.52 12.81 -4.28 1.30 -0.12 9385
0.00 0.00 1.54 -2.44 14.27 -4.28 1.38 -0.09 9393
0.00 -0.00 1.54 -3.40 15.55 -4.28 1.54 -0.10 9400
0.00 -0.00 1.15 -4.31 16.48 -4.28 1.68 -0.16 9407
0.00 -0.00 0.77 -5.23 16.79 -4.28 1.87 -0.24 9414
0.01 -0.00 0.18 -6.65 16.85 -4.28 2.02 -0.33 9421
0.01 -0.00 0.12 -7.10 16.92 -4.27 2.08 -0.35 9428
0.00 0.00 -0.47 -7.97 17.44 -4.23 2.05 -0.32 9436
0.00 -0.00 -0.70 -8.64 18.02 -4.11 1.99 -0.19 9443
0.00 -0.00 -0.50 -8.24 17.88 -3.86 1.89 -0.02 9450
0.01 -0.00 0.01 -8.04 18.21 -3.63 1.79 0.20 9457
0.01 -0.00 0.69 -7.64 18.78 -3.46 1.70 0.41 9464
0.00 0.00 0.99 -7.81 19.82 -3.36 1.63 0.56 9472
0.00 0.00 1.46 -8.24 21.40 -3.35 1.67 0.75 9479
0.00 0.00 1.56 -8.47 22.36 -3.45 1.69 0.89 9486
0.00 -0.00 1.18 -8.85 22.32 -3.66 1.75 1.02 9493
0.00 -0.00 0.55 -9.59 22.36 -3.83 1.75 1.09 9500
0.00 -0.00 0.19 -10.32 21.89 -4.01 1.71 1.14 9507
0.00 -0.00 -0.08 -11.49 21.09 -4.06 1.64 1.18 9515
0.00 0.00 -0.33 -12.57 19.97 -4.03 1.59 1.22 9522
0.00 0.00 -0.61 -14.05 18.71 -3.89 1.59 1.29 9529
0.01 -0.00 -1.91 -21.14 25.45 -3.54 1.58 1.42 9537
0.00 0.00 0.32 -15.06 5.91 -3.15 1.65 1.50 9543
0.00 0.00 -2.59 -18.02 10.36 -3.15 1.50 1.50 9550
0.00 -0.00 -4.16 -20.89 15.18 -3.02 1.56 1.55 9558
0.00 0.00 -5.40 -23.93 14.96 -2.70 1.65 1.57 9565
0.01 -0.00 -7.29 -25.34 12.06 -2.42 1.44 1.46 9573
0.01 -0.00 -7.39 -26.27 8.47 -2.16 1.22 1.28 9579
0.00 0.00 -7.08 -28.10 6.08 -1.96 0.99 1.00 9586
0.00 -0.00 -6.70 -29.79 4.58 -1.65 0.89 0.69 9593
0.00 0.00 -6.73 -30.76 3.50 -1.20 0.85 0.42 9601
0.00 -0.00 -6.52 -30.10 2.66 -0.76 0.80 0.15 9608
0.00 0.00 -6.52 -30.21 2.07 -0.22 0.61 -0.04 9615
0.00 -0.00 -7.21 -26.64 14.23 2.23 0.12 0.12 9623
0.00 0.00 -10.57 -23.89 12.09 2.14 -0.42 0.19 9629
0.00 0.00 -5.77 -29.32 4.45 2.78 -1.46 0.31 9636
-0.00 0.04 -5.73 -30.42 -0.41 2.82 -2.16 0.59 9644
-0.01 0.07 2.60 4.43 1.14 3.18 -1.62 0.97 9651
-0.01 0.16 1.43 -6.66 14.10 3.86 -0.28 1.36 9659
-0.01 0.32 -4.47 3.08 26.31 4.26 0.03 1.52 9666
-0.04 0.59 -10.91 -2.35 25.95 4.27 -0.76 1.03 9673
-0.05 0.74 -7.97 -5.82 23.87 4.10 -1.26 0.29 9680
-0.06 0.84 -3.42 -5.48 19.39 3.82 -0.80 -0.02 9688
-0.05 0.91 -3.32 -3.69 20.28 3.53 -0.21 -0.20 9695
-0.04 0.85 -0.32 -2.01 18.07 3.13 -0.25 -0.50 9702
-0.05 0.96 2.92 -1.81 16.26 2.92 -0.31 -0.56 9709
-0.05 0.91 4.05 -2.32 20.68 2.90 -0.69 -0.36 9716
-0.05 0.90 1.54 -1.45 15.36 1.45 -1.53 -0.13 9723
-0.06 0.90 1.03 -2.38 12.30 0.47 -0.89 0.01 9730
-0.05 0.87 -0.00 -1.56 10.83 0.12 -0.37 0.02 9737
-0.04 0.86 -0.14 -1.20 10.23 0.02 -0.17 -0.04 9745
-0.04 0.90 0.36 -1.13 9.99 0.00 -0.09 -0.08 9751
-0.06 0.91 0.66 -1.05 9.92 -0.02 -0.05 -0.07 9758
-0.05 0.90 0.40 -1.00 9.90 -0.02 -0.03 -0.07 9765
-0.04 0.87 0.21 -0.83 9.86 -0.02 -0.02 -0.07 9773
-0.04 0.86 0.34 -0.76 9.82 -0.01 0.00 -0.08 9780
-0.02 0.80 0.41 -0.78 9.64 -0.01 0.01 -0.08 9787
0.00 0.80 0.45 -0.78 9.83 0.01 0.02 -0.08 9794
-0.01 0.72 0.40 -0.81 9.87 0.01 0.03 -0.08 9801
-0.02 0.69 0.38 -0.84 9.83 0.00 0.03 -0.08 9808
-0.01 0.65 0.41 -0.78 9.83 0.01 0.03 -0.08 9816
0.00 0.59 0.40 -0.79 9.79 0.01 0.04 -0.07 9823
0.03 0.56 0.37 -0.81 9.91 0.01 0.05 -0.08 9830
0.02 0.53 0.40 -0.78 9.78 0.02 0.05 -0.07 9837
0.02 0.50 0.42 -0.78 9.78 0.02 0.06 -0.08 9844
0.03 0.47 0.39 -0.73 9.80 0.03 0.06 -0.08 9851
0.03 0.47 0.40 -0.77 9.75 0.04 0.07 -0.08 9859
0.05 0.40 0.41 -0.76 9.81 0.04 0.07 -0.09 9866
0.07 0.28 0.40 -0.77 9.83 0.05 0.07 -0.09 9873
0.06 0.23 0.47 -0.81 9.81 0.04 0.08 -0.09 9880
0.08 0.20 0.52 -0.83 9.72 0.05 0.08 -0.10 9887
0.07 0.14 0.57 -0.84 9.77 0.05 0.08 -0.10 9894
0.11 0.12 0.48 -0.84 9.81 0.05 0.08 -0.10 9902
0.11 0.10 0.51 -0.79 9.73 0.05 0.08 -0.10 9909
0.10 0.07 0.51 -0.84 9.78 0.05 0.08 -0.10 9916
0.09 0.05 0.45 -0.83 9.80 0.05 0.08 -0.10 9923
0.09 0.03 0.44 -0.83 9.80 0.05 0.07 -0.10 9930
0.10 0.06 0.43 -0.83 9.82 0.06 0.08 -0.10 9937
0.12 0.02 0.44 -0.87 9.82 0.06 0.08 -0.10 9945
0.15 0.02 0.48 -0.86 9.76 0.06 0.08 -0.10 9952
0.16 0.00 0.52 -0.90 9.77 0.05 0.08 -0.10 9959
0.17 -0.01 0.54 -0.90 9.75 0.06 0.08 -0.10 9966
0.14 0.01 0.52 -0.90 9.73 0.05 0.08 -0.10 9973
0.16 -0.00 0.51 -0.91 9.77 0.05 0.08 -0.10 9980
0.15 -0.00 0.50 -0.92 9.76 0.04 0.07 -0.10 9988
0.17 -0.01 0.54 -0.92 9.79 0.04 0.06 -0.10 9995
0.16 -0.00 0.52 -0.92 9.79 0.04 0.05 -0.10 10002
0.19 -0.01 0.56 -0.88 9.79 0.04 0.04 -0.10 10009
0.21 -0.01 0.55 -0.93 9.78 0.04 0.03 -0.11 10016
0.20 -0.00 0.53 -0.91 9.81 0.05 0.03 -0.11 10023
0.24 0.01 0.50 -0.94 9.83 0.06 0.03 -0.12 10031
0.29 -0.01 0.52 -0.93 9.79 0.07 0.03 -0.12 10038
0.32 -0.03 0.53 -0.97 9.83 0.08 0.03 -0.13 10045
0.35 -0.03 0.55 -1.03 9.83 0.10 0.04 -0.14 10052
0.34 -0.02 0.53 -1.00 9.84 0.13 0.06 -0.14 10059
0.42 -0.03 0.49 -0.98 9.86 0.16 0.08 -0.15 10066
0.50 -0.02 0.48 -1.00 9.94 0.20 0.09 -0.15 10074
0.54 -0.03 0.53 -1.10 10.05 0.27 0.12 -0.15 10082
0.57 -0.03 0.56 -1.15 10.21 0.35 0.17 -0.16 10089
0.64 -0.04 0.49 -1.12 10.36 0.50 0.21 -0.17 10096
0.71 -0.03 0.62 -1.29 10.57 0.70 0.25 -0.18 10103
0.79 -0.04 0.60 -1.38 10.78 0.88 0.27 -0.19 10110
0.85 -0.03 0.68 -1.34 11.28 1.08 0.25 -0.20 10118
0.89 -0.03 0.79 -1.41 11.36 1.25 0.17 -0.20 10125
0.95 -0.04 0.67 -1.54 11.72 1.40 0.10 -0.20 10132
0.97 -0.04 0.66 -1.61 11.84 1.53 0.01 -0.21 10139
1.05 -0.04 0.77 -1.75 12.30 1.67 -0.12 -0.21 10146
1.07 -0.03 0.58 -1.67 12.08 1.82 -0.19 -0.21 10153
1.11 -0.04 0.40 -2.10 12.75 1.99 -0.20 -0.22 10161
1.17 -0.04 0.37 -1.44 12.78 2.17 -0.21 -0.21 10168
1.15 -0.05 0.31 -2.21 12.61 2.42 -0.22 -0.20 10175
1.17 -0.04 0.26 -2.45 12.90 2.66 -0.26 -0.19 10182
1.23 -0.04 0.73 -2.42 12.45 2.90 -0.27 -0.18 10189
1.20 -0.03 0.19 -2.62 13.06 3.17 -0.33 -0.19 10196
1.18 -0.04 0.74 -2.84 14.01 3.47 -0.25 -0.20 10204
1.18 -0.04 0.55 -2.86 14.56 3.88 -0.19 -0.23 10211
1.13 -0.05 0.02 -3.06 15.74 4.18 -0.15 -0.24 10218
1.04 -0.05 0.29 -3.23 17.30 4.28 -0.13 -0.24 10225
0.88 -0.04 1.90 -4.04 16.21 4.28 -0.28 -0.27 10232
0.66 -0.02 2.71 -4.47 18.95 4.28 -0.36 -0.38 10240
0.54 -0.03 2.45 -6.06 20.07 4.28 -0.48 -0.50 10247
0.37 -0.02 1.36 -8.38 23.40 4.28 -0.56 -0.58 10254
0.36 -0.04 2.07 -10.98 27.72 4.28 -0.58 -0.62 10261
0.29 -0.01 1.92 -13.76 32.17 4.28 -0.39 -0.62 10268
0.20 -0.02 2.68 -13.21 30.31 4.28 -0.04 -0.58 10275
0.16 -0.01 2.22 -10.79 27.35 4.28 0.14 -0.59 10283
0.08 -0.01 1.00 -8.29 27.58 4.28 0.45 -0.62 10289
0.06 -0.01 0.25 -6.06 31.45 4.28 0.52 -0.67 10296
0.08 -0.01 0.30 -3.66 34.23 4.28 0.27 -0.77 10303
0.05 -0.01 2.19 -0.62 35.51 4.28 -0.36 -0.88 10310
0.02 -0.00 2.62 4.54 33.42 4.28 -0.78 -0.94 10317
0.03 -0.00 8.01 18.11 28.48 4.28 -0.65 -0.86 10326
0.00 0.00 9.31 23.58 10.83 4.26 -0.23 -0.93 10332
0.00 0.00 7.02 33.28 1.88 2.72 0.17 -1.34 10339
0.01 -0.00 6.54 23.77 10.06 2.14 -0.00 -2.10 10346
0.01 -0.00 7.82 14.04 31.63 0.27 0.58 -2.25 10353
0.01 0.00 3.67 14.93 26.01 -1.97 1.02 -2.12 10361
0.01 -0.00 1.18 16.85 14.03 -2.92 0.99 -1.86 10369
0.01 -0.00 0.22 15.50 10.75 -3.63 0.58 -1.64 10375
0.01 -0.00 1.14 12.48 9.25 -4.12 0.17 -1.47 10382
0.01 -0.00 1.92 9.86 8.54 -4.24 -0.15 -1.40 10389
0.00 -0.00 2.74 7.34 8.19 -4.24 -0.37 -1.33 10396
0.01 -0.00 2.86 5.99 7.92 -4.24 -0.42 -1.25 10403
0.02 -0.00 3.81 5.60 7.94 -4.25 -0.26 -1.17 10411
0.01 -0.00 4.55 5.49 7.55 -4.27 -0.03 -1.11 10418
0.00 -0.00 4.41 5.60 7.60 -4.28 0.17 -1.05 10425
0.00 0.00 4.09 5.25 8.27 -4.28 0.39 -0.97 10432
0.01 -0.00 3.94 4.12 9.36 -4.28 0.54 -0.87 10439
0.01 -0.00 3.41 2.90 10.05 -4.28 0.69 -0.77 10446
0.02 -0.00 3.03 1.55 10.42 -4.28 0.84 -0.61 10454
0.00 -0.00 3.03 0.78 11.26 -4.28 0.94 -0.44 10461
0.01 -0.00 2.88 0.15 11.90 -4.28 1.02 -0.32 10468
0.00 -0.00 2.89 -0.47 12.23 -4.28 1.13 -0.19 10475
0.01 -0.00 3.04 -1.25 12.44 -4.28 1.23 -0.10 10482
0.00 0.00 3.48 -2.49 13.29 -4.28 1.43 -0.02 10489
0.01 -0.00 3.36 -3.94 14.46 -4.28 1.63 0.02 10497
0.01 -0.00 2.90 -5.28 15.45 -4.28 1.85 0.01 10504
0.00 -0.00 2.09 -6.63 16.16 -4.28 2.02 -0.02 10511
0.00 0.00 1.30 -7.68 17.57 -4.28 2.11 -0.04 10518
0.01 -0.00 0.45 -8.82 17.44 -4.28 2.17 0.01 10525
0.03 -0.00 0.46 -7.95 18.35 -4.25 2.09 0.10 10532
0.01 -0.00 -0.11 -7.78 17.41 -4.19 1.96 0.20 10540
0.00 -0.00 -0.18 -8.38 17.97 -4.09 1.86 0.36 10547
0.01 -0.00 -0.12 -8.63 18.55 -3.85 1.77 0.49 10554
0.01 -0.00 0.29 -8.35 18.88 -3.62 1.62 0.52 10561
0.02 0.01 0.55 -8.59 20.65 -3.50 1.57 0.55 10568
0.03 -0.00 0.94 -9.20 21.07 -3.40 1.59 0.57 10575
0.02 -0.00 0.45 -9.04 20.33 -3.41 1.58 0.56 10583
0.02 -0.00 0.14 -9.62 20.71 -3.39 1.59 0.50 10590
0.01 -0.00 0.12 -10.23 20.36 -3.36 1.61 0.51 10598
0.01 -0.00 -0.22 -10.30 19.21 -3.31 1.59 0.49 10604
0.02 0.00 -0.39 -10.48 19.12 -3.23 1.57 0.50 10612
0.02 -0.00 -0.47 -10.73 19.27 -3.15 1.54 0.52 10619
0.02 -0.00 -0.38 -11.14 19.43 -3.11 1.53 0.56 10627
0.01 -0.00 -0.33 -11.69 19.78 -3.10 1.52 0.61 10634
0.00 0.00 -0.44 -12.66 19.97 -3.13 1.54 0.68 10640
0.01 -0.00 -0.44 -13.79 19.14 -3.22 1.59 0.73 10648
0.01 -0.00 -0.39 -15.81 17.87 -3.29 1.68 0.76 10655
0.02 -0.00 -0.82 -17.93 14.93 -3.29 1.76 0.76 10662
0.02 -0.00 -1.23 -19.60 12.62 -3.21 1.84 0.77 10670
0.01 -0.00 -2.28 -21.56 9.98 -2.96 1.91 0.79 10676
0.01 -0.00 -3.95 -22.94 7.63 -2.58 2.04 0.89 10683
0.01 -0.00 -6.12 -24.13 5.86 -2.04 2.20 1.03 10690
0.01 -0.00 -8.22 -26.51 4.98 -1.60 2.17 1.22 10697
0.00 0.00 -9.72 -28.19 4.96 -1.15 1.79 1.34 10704
0.00 0.00 -10.17 -28.67 4.50 -0.77 1.04 1.38 10712
0.00 0.00 -9.14 -27.44 3.75 -0.48 0.38 1.32 10719
0.00 0.00 -7.51 -25.33 4.22 -0.10 -0.20 1.17 10726
0.00 0.00 -9.15 -34.24 -1.58 0.23 -0.57 0.99 10733
0.00 0.00 -7.67 -24.70 -8.97 2.71 -1.40 1.13 10740
0.00 0.00 -5.12 -18.36 1.97 2.76 -1.57 1.01 10747
-0.00 0.02 -5.16 -29.56 -0.58 2.90 -2.12 0.96 10755
-0.01 0.06 -3.82 -9.67 1.21 2.89 -2.30 1.26 10762
-0.01 0.15 -2.80 -1.87 10.57 3.28 -0.97 1.46 10769
-0.03 0.39 -5.35 4.73 29.67 4.16 -0.37 1.53 10777
-0.03 0.67 -12.17 -2.60 24.82 4.28 -0.95 1.04 10784
-0.05 0.82 -9.04 -5.65 25.78 4.26 -1.36 0.25 10791
-0.05 0.88 -3.39 -5.88 21.87 4.08 -0.96 -0.07 10799
-0.06 0.97 -1.89 -3.61 21.92 3.59 -0.48 -0.21 10806
-0.06 0.97 0.58 -1.73 17.40 3.03 -0.36 -0.32 10813
-0.05 0.93 2.55 -1.53 15.11 2.78 -0.34 -0.29 10820
-0.04 0.96 3.29 -1.29 13.55 2.85 -0.51 -0.11 10827
-0.05 0.96 1.81 -2.41 22.65 2.65 -1.12 0.07 10834
-0.05 0.91 0.16 -1.51 13.95 0.90 -1.24 0.12 10842
-0.05 0.88 -0.30 -2.11 11.74 0.29 -0.64 0.07 10849
-0.03 0.85 -0.17 -1.66 10.63 0.04 -0.18 0.03 10856
-0.02 0.87 0.17 -1.21 9.90 0.02 -0.07 -0.02 10862
-0.02 0.85 0.58 -0.82 9.99 0.01 -0.02 -0.03 10869
-0.02 0.80 0.56 -0.80 10.04 0.01 0.01 -0.03 10876
-0.02 0.75 0.29 -0.93 9.85 0.01 0.01 -0.04 10884
-0.01 0.73 0.23 -0.91 9.92 0.01 0.02 -0.05 10891
0.00 0.67 0.23 -0.80 9.70 0.02 0.03 -0.05 10898
0.03 0.61 0.41 -0.78 9.85 0.03 0.04 -0.06 10905
0.05 0.56 0.36 -0.87 9.82 0.03 0.05 -0.06 10912
0.06 0.51 0.38 -0.85 9.87 0.03 0.05 -0.06 10919
0.05 0.44 0.44 -0.79 9.21 0.04 0.06 -0.06 10927
0.03 0.43 0.40 -0.81 9.80 0.04 0.07 -0.06 10934
0.04 0.44 0.34 -0.80 9.79 0.04 0.09 -0.06 10941
0.07 0.34 0.34 -0.70 9.81 0.05 0.11 -0.07 10948
0.08 0.24 0.46 -0.86 9.81 0.05 0.12 -0.06 10955
0.07 0.22 0.54 -0.82 9.20 0.06 0.14 -0.07 10962
0.08 0.15 0.58 -0.87 9.79 0.07 0.14 -0.08 10970
0.08 0.12 0.63 -0.82 9.80 0.07 0.14 -0.08 10977
0.09 0.11 0.62 -0.82 9.81 0.08 0.14 -0.09 10984
0.12 0.05 0.67 -0.86 9.80 0.08 0.13 -0.10 10991
0.10 0.03 0.65 -0.85 9.76 0.07 0.12 -0.10 10998
0.13 0.03 0.58 -0.85 9.82 0.07 0.12 -0.10 11005
0.12 0.01 0.58 -0.82 9.81 0.07 0.12 -0.10 11013
0.16 0.00 0.52 -0.84 9.80 0.08 0.13 -0.09 11020
0.21 0.01 0.50 -0.91 9.84 0.09 0.13 -0.09 11027
0.21 -0.00 0.56 -0.92 9.82 0.10 0.14 -0.08 11034
0.20 -0.01 0.60 -0.83 9.81 0.11 0.15 -0.08 11041
0.25 -0.02 0.57 -0.97 9.83 0.13 0.16 -0.07 11048
0.23 -0.02 0.60 -0.93 9.82 0.14 0.18 -0.07 11056
0.26 -0.01 0.66 -0.94 9.83 0.16 0.19 -0.07 11063
0.24 -0.01 0.53 -0.91 9.81 0.17 0.20 -0.06 11070
0.25 -0.01 0.75 -1.11 9.81 0.19 0.21 -0.07 11077
0.25 -0.02 0.56 -1.15 9.97 0.19 0.22 -0.06 11084
0.27 -0.03 0.48 -0.91 9.46 0.23 0.22 -0.06 11091
0.25 -0.02 0.64 -1.10 9.80 0.22 0.19 -0.07 11099
0.29 -0.01 0.63 -0.99 9.73 0.21 0.16 -0.08 11106
0.30 -0.02 0.71 -1.07 9.70 0.21 0.13 -0.08 11113
0.30 -0.02 0.74 -1.03 9.69 0.21 0.10 -0.09 11120
0.33 -0.02 0.76 -1.14 9.65 0.19 0.07 -0.10 11127
0.34 -0.02 0.80 -1.15 9.68 0.17 0.04 -0.11 11134
0.35 -0.02 0.75 -1.16 9.67 0.15 0.02 -0.12 11142
0.37 -0.01 0.76 -1.14 9.68 0.15 0.02 -0.13 11149
0.40 -0.03 0.73 -1.15 9.78 0.15 0.00 -0.14 11156
0.39 -0.02 0.70 -1.15 9.75 0.15 -0.00 -0.14 11163
0.39 -0.02 0.63 -1.17 9.70 0.16 -0.01 -0.14 11170
0.42 -0.03 0.66 -1.17 9.79 0.16 -0.01 -0.14 11177
0.45 -0.03 0.64 -1.18 9.74 0.17 0.00 -0.15 11185
0.51 -0.03 0.62 -1.24 9.79 0.19 0.02 -0.14 11192
0.55 -0.03 0.49 -1.21 9.85 0.21 0.04 -0.13 11199
0.61 -0.03 0.52 -1.22 9.99 0.27 0.06 -0.12 11206
0.65 -0.03 0.60 -1.28 10.10 0.34 0.08 -0.11 11213
0.70 -0.04 0.62 -1.39 10.23 0.44 0.10 -0.11 11220
0.75 -0.03 0.58 -1.41 10.40 0.55 0.12 -0.11 11229
0.80 -0.03 1.18 -1.50 10.58 0.65 0.12 -0.10 11236
0.84 -0.04 0.64 -1.48 10.56 0.76 0.09 -0.09 11242
0.91 -0.03 0.85 -1.64 10.72 0.90 0.05 -0.10 11249
0.97 -0.04 0.80 -1.70 11.07 0.98 0.01 -0.11 11256
1.03 -0.04 0.86 -1.72 11.55 1.12 -0.03 -0.13 11265
1.06 -0.04 0.87 -1.77 11.88 1.26 -0.10 -0.15 11272
1.05 -0.04 0.90 -1.92 12.08 1.46 -0.11 -0.16 11279
1.11 -0.04 0.91 -2.03 12.44 1.64 -0.15 -0.18 11286
1.16 -0.04 0.63 -1.98 12.64 1.87 -0.16 -0.18 11293
1.13 -0.05 0.61 -2.17 12.62 2.13 -0.22 -0.17 11300
1.17 -0.05 0.63 -2.26 12.82 2.35 -0.26 -0.17 11308
1.22 -0.04 0.71 -2.41 12.41 2.59 -0.29 -0.17 11315
1.26 -0.04 0.72 -2.42 12.90 2.84 -0.29 -0.17 11322
1.25 -0.05 0.80 -2.76 13.53 3.11 -0.27 -0.17 11329
1.21 -0.05 0.79 -2.71 13.54 3.45 -0.23 -0.19 11336
1.17 -0.05 0.66 -2.99 13.62 3.76 -0.18 -0.20 11343
1.11 -0.04 0.01 -3.19 14.66 4.12 -0.12 -0.20 11351
0.98 -0.03 0.06 -3.10 15.22 4.28 -0.04 -0.17 11358
0.91 -0.03 1.17 -4.33 17.33 4.28 -0.08 -0.18 11365
0.69 -0.03 2.06 -5.03 18.18 4.28 -0.16 -0.25 11372
0.47 -0.03 1.75 -5.80 19.54 4.28 -0.26 -0.38 11379
0.38 -0.03 1.45 -7.94 21.44 4.28 -0.27 -0.47 11386
0.25 -0.02 1.04 -10.34 26.52 4.28 -0.30 -0.49 11394
0.22 -0.00 2.01 -13.43 29.47 4.28 -0.12 -0.46 11401
0.20 -0.02 2.51 -13.08 30.50 4.28 0.20 -0.43 11407
0.20 -0.01 2.54 -11.50 28.47 4.28 0.57 -0.42 11415
0.14 -0.01 1.79 -9.35 26.86 4.28 0.87 -0.45 11421
0.10 -0.01 -0.23 -6.74 27.92 4.28 1.15 -0.45 11428
0.03 -0.00 -0.06 -5.56 33.93 4.28 1.01 -0.50 11436
0.06 -0.01 1.01 -3.12 35.86 4.28 0.63 -0.59 11443
0.02 -0.00 2.13 0.29 35.93 4.28 -0.02 -0.74 11450
0.01 -0.00 2.51 8.31 15.20 4.28 -0.28 -0.80 11457
0.00 0.00 7.98 21.23 21.14 4.28 -0.06 -0.77 11464
0.00 0.00 5.88 28.03 7.22 3.55 0.44 -0.82 11471
0.01 -0.00 4.09 32.74 -7.72 2.16 0.47 -1.52 11479
-0.00 0.01 3.59 19.11 29.36 0.97 0.34 -1.99 11486
0.01 -0.00 3.65 14.70 33.53 -1.30 0.59 -2.01 11493
0.00 -0.00 1.04 16.94 22.13 -3.03 0.83 -1.87 11500
0.00 0.00 -0.08 16.77 14.43 -3.69 0.65 -1.68 11507
0.00 0.00 0.46 14.32 12.02 -4.24 0.43 -1.55 11514
0.00 0.00 1.54 11.19 10.81 -4.28 0.25 -1.47 11522
0.01 -0.00 2.01 8.47 10.17 -4.28 0.17 -1.43 11529
0.00 -0.00 2.16 6.75 9.98 -4.28 0.15 -1.39 11536
0.00 -0.00 1.96 5.55 9.44 -4.28 0.23 -1.33 11543
0.00 0.00 2.13 4.85 9.13 -4.28 0.33 -1.27 11550
0.00 0.00 2.05 4.63 8.88 -4.28 0.39 -1.20 11557
0.00 0.00 1.70 4.61 8.87 -4.28 0.41 -1.11 11565
0.00 -0.00 1.54 4.34 9.31 -4.28 0.40 -1.03 11572
0.00 0.00 1.77 3.38 10.26 -4.28 0.43 -0.94 11579
0.00 0.00 1.98 2.20 11.47 -4.28 0.50 -0.85 11586
0.00 0.00 1.92 1.17 11.91 -4.28 0.66 -0.75 11593
0.00 0.00 2.02 0.41 12.19 -4.28 0.85 -0.65 11600
0.00 0.00 1.97 0.11 12.41 -4.28 0.97 -0.56 11608
0.02 -0.00 2.02 -0.41 12.71 -4.28 1.11 -0.49 11615
0.00 -0.00 2.18 -1.43 13.37 -4.28 1.23 -0.43 11622
0.00 0.00 2.07 -2.35 14.44 -4.28 1.34 -0.40 11629
0.00 0.00 1.86 -3.64 15.46 -4.28 1.47 -0.38 11636
0.00 0.00 1.50 -4.88 16.12 -4.28 1.58 -0.40 11643
0.00 -0.00 1.03 -6.12 16.66 -4.28 1.71 -0.40 11651
0.01 -0.00 0.98 -6.65 16.87 -4.28 1.79 -0.38 11658
0.00 0.00 0.59 -6.03 16.28 -4.28 1.85 -0.31 11665
0.00 0.00 0.38 -6.41 15.88 -4.27 1.91 -0.20 11672
0.00 0.00 0.23 -7.53 16.03 -4.16 1.97 -0.11 11679
0.00 -0.00 0.03 -8.38 18.39 -3.85 2.01 -0.02 11686
0.00 0.00 -0.32 -8.36 19.60 -3.57 1.97 0.05 11694
0.00 0.00 0.06 -8.43 21.52 -3.37 1.96 0.09 11701
0.00 0.00 -0.05 -8.13 22.89 -3.39 1.85 0.13 11708
0.00 0.00 -0.34 -8.32 23.17 -3.60 1.72 0.17 11715
0.00 0.00 -0.34 -9.52 23.26 -3.85 1.55 0.24 11722
0.00 0.00 -0.26 -10.26 22.16 -4.05 1.36 0.34 11729
0.01 -0.00 -0.16 -11.28 21.27 -4.13 1.22 0.45 11738
0.00 0.00 0.13 -12.47 19.95 -4.12 1.16 0.60 11744
0.00 0.00 0.17 -13.23 18.85 -4.03 1.15 0.77 11751
0.00 0.00 0.21 -14.28 18.76 -3.85 1.23 0.94 11758
0.00 0.00 0.16 -15.23 19.19 -3.67 1.38 1.15 11765
0.00 0.00 0.09 -16.75 19.24 -3.51 1.53 1.32 11772
0.00 0.00 -0.24 -18.96 18.32 -3.38 1.71 1.48 11780
0.00 0.00 -0.92 -21.08 16.60 -3.28 1.82 1.63 11787
0.00 0.00 -1.93 -22.83 14.85 -3.13 1.88 1.71 11794
0.00 0.00 -3.15 -25.13 12.14 -2.92 1.80 1.77 11801
0.00 0.00 -4.21 -27.01 9.76 -2.58 1.62 1.75 11808
0.00 0.00 -5.24 -28.72 7.05 -2.17 1.38 1.66 11815
0.01 -0.00 -5.55 -29.96 4.93 -1.77 1.17 1.49 11823
0.01 -0.00 -6.02 -30.72 3.90 -1.26 1.01 1.30 11830
0.00 0.00 -6.59 -30.66 3.77 -0.77 0.85 1.06 11837
0.00 0.00 -7.01 -29.65 4.08 -0.36 0.69 0.82 11844
0.00 0.00 -7.37 -27.93 4.85 0.09 0.41 0.65 11851
0.00 0.00 -7.04 -25.41 6.23 0.44 0.04 0.48 11858
0.00 -0.00 -15.57 -57.61 76.15 1.72 -0.65 0.52 11867
0.00 0.00 -9.93 -22.14 7.23 3.15 -0.79 0.86 11873
-0.00 0.01 -4.15 -22.04 -3.39 3.37 -1.35 0.91 11880
-0.00 0.04 -1.02 -8.00 -3.09 3.04 -1.84 0.82 11887
-0.01 0.10 -0.12 2.52 9.92 3.31 -0.68 1.12 11894
-0.01 0.25 0.17 7.60 21.15 3.89 0.15 1.34 11902
-0.02 0.48 -8.16 -0.37 21.96 4.21 -0.21 1.09 11910
-0.04 0.66 -9.91 -5.64 23.53 4.27 -0.91 0.48 11917
-0.06 0.86 -4.33 -6.56 20.75 4.28 -0.94 0.08 11924
-0.05 0.96 -2.04 -4.80 24.48 4.18 -0.25 -0.13 11931
-0.05 0.94 -1.68 -2.40 20.35 3.67 -0.18 -0.37 11938
-0.05 1.00 1.55 -2.19 17.57 3.23 -0.22 -0.52 11945
-0.05 0.96 3.85 -2.00 19.30 3.27 -0.44 -0.46 11953
-0.05 0.98 2.56 -2.80 19.78 2.30 -1.67 -0.30 11960
-0.05 0.99 2.10 -2.13 12.85 0.77 -1.31 -0.07 11967
-0.06 0.95 0.26 -1.87 11.35 0.29 -0.70 0.00 11973
-0.05 0.93 -0.01 -1.12 10.59 0.11 -0.37 -0.03 11981
-0.04 0.92 0.41 -1.05 10.03 0.06 -0.23 -0.08 11987
-0.05 0.94 0.90 -1.20 10.06 0.02 -0.15 -0.08 11995
-0.06 0.93 0.75 -1.03 9.89 -0.00 -0.10 -0.07 12002
-0.05 0.88 0.42 -0.84 9.82 -0.01 -0.04 -0.07 12009
-0.05 0.87 0.53 -0.83 9.81 -0.01 -0.04 -0.07 12016
-0.03 0.85 0.66 -0.74 9.78 0.03 -0.03 -0.07 12023
-0.00 0.78 0.65 -0.70 9.78 0.01 -0.03 -0.08 12030
0.01 0.73 0.57 -0.72 9.82 0.02 -0.02 -0.08 12038
0.00 0.66 0.49 -0.81 9.81 0.02 -0.01 -0.08 12045
-0.01 0.63 0.50 -0.77 9.81 0.02 0.00 -0.08 12052
-0.01 0.61 0.52 -0.78 9.82 0.03 0.02 -0.08 12059
0.01 0.59 0.50 -0.83 9.84 0.03 0.03 -0.08 12066
0.04 0.55 0.52 -0.77 9.81 0.03 0.04 -0.08 12073
0.05 0.51 0.50 -0.77 9.80 0.03 0.05 -0.08 12081
0.04 0.48 0.49 -0.74 9.80 0.04 0.05 -0.08 12088
0.04 0.37 0.51 -0.77 9.79 0.04 0.05 -0.08 12095
0.07 0.26 0.54 -0.73 9.81 0.05 0.06 -0.08 12102
0.06 0.28 0.58 -0.77 9.80 0.05 0.06 -0.08 12109
0.07 0.18 0.62 -0.77 9.74 0.05 0.07 -0.09 12116
0.05 0.16 0.68 -0.84 9.79 0.06 0.07 -0.09 12124
0.06 0.13 0.64 -0.85 9.77 0.06 0.06 -0.10 12131
0.07 0.08 0.66 -0.81 9.74 0.06 0.06 -0.10 12138
0.10 0.06 0.66 -0.87 9.75 0.05 0.05 -0.11 12145
0.11 0.04 0.56 -0.85 9.80 0.06 0.04 -0.11 12152
0.10 0.04 0.62 -0.99 9.80 0.06 0.05 -0.11 12160
0.13 0.03 0.58 -0.90 9.82 0.05 0.04 -0.11 12167
0.14 0.02 0.56 -0.86 9.84 0.05 0.04 -0.11 12174
0.13 0.04 0.58 -0.88 9.78 0.05 0.04 -0.10 12181
0.17 0.00 0.58 -0.90 9.80 0.05 0.04 -0.09 12188
0.20 -0.00 0.65 -0.94 9.83 0.04 0.04 -0.10 12195
0.23 -0.00 0.64 -0.92 9.78 0.05 0.03 -0.11 12203
0.24 -0.01 0.61 -0.92 9.79 0.05 0.03 -0.11 12210
0.22 -0.02 0.63 -0.88 9.76 0.05 0.03 -0.11 12217
0.23 -0.01 0.60 -0.95 9.78 0.05 0.03 -0.11 12224
0.25 -0.01 0.55 -0.95 9.75 0.05 0.03 -0.11 12231
0.27 -0.01 0.58 -0.96 9.76 0.05 0.03 -0.11 12238
0.25 -0.01 0.54 -0.94 9.80 0.06 0.04 -0.11 12246
0.31 -0.02 0.61 -0.92 9.81 0.07 0.04 -0.11 12253
0.34 -0.01 0.57 -0.96 9.82 0.08 0.05 -0.12 12260
0.35 -0.01 0.63 -0.95 9.82 0.09 0.06 -0.12 12267
0.38 -0.01 0.64 -0.95 9.82 0.10 0.06 -0.12 12274
0.43 -0.02 0.62 -1.00 9.82 0.13 0.07 -0.13 12281
0.49 -0.02 0.57 -0.98 9.86 0.15 0.07 -0.13 12289
0.53 -0.04 0.63 -1.05 9.89 0.20 0.08 -0.14 12296
0.59 -0.02 0.62 -1.04 9.98 0.26 0.09 -0.13 12303
0.66 -0.04 0.61 -1.06 10.06 0.34 0.12 -0.14 12311
0.72 -0.03 0.54 -1.10 10.25 0.46 0.15 -0.14 12318
0.80 -0.04 0.63 -1.16 10.34 0.58 0.18 -0.14 12325
0.88 -0.04 0.59 -1.27 10.64 0.75 0.21 -0.13 12333
0.89 -0.04 0.62 -1.28 10.73 0.90 0.22 -0.14 12340
0.92 -0.03 0.71 -1.36 10.86 1.07 0.19 -0.14 12347
0.99 -0.04 0.72 -1.46 11.02 1.19 0.13 -0.14 12354
1.06 -0.04 0.80 -1.55 11.46 1.29 0.04 -0.14 12361
1.11 -0.04 0.84 -1.69 11.44 1.39 0.01 -0.15 12368
1.16 -0.04 0.87 -1.75 11.65 1.47 -0.05 -0.16 12376
1.20 -0.04 0.80 -1.90 12.13 1.60 -0.12 -0.17 12383
1.24 -0.05 0.82 -1.92 12.26 1.75 -0.17 -0.20 12390
1.28 -0.05 0.60 -2.04 12.55 1.92 -0.23 -0.21 12397
1.29 -0.05 0.27 -1.95 12.68 2.16 -0.23 -0.20 12404
1.30 -0.04 0.53 -2.17 12.82 2.42 -0.26 -0.19 12411
1.34 -0.05 0.46 -2.37 12.59 2.68 -0.29 -0.19 12419
1.38 -0.06 0.35 -2.22 13.28 2.96 -0.33 -0.19 12426
1.38 -0.05 0.68 -2.63 14.00 3.27 -0.32 -0.19 12433
1.37 -0.04 0.75 -2.81 14.07 3.66 -0.30 -0.20 12440
1.35 -0.05 0.94 -2.93 14.19 4.03 -0.27 -0.22 12447
1.26 -0.05 0.47 -3.14 14.99 4.24 -0.26 -0.24 12454
1.17 -0.05 0.04 -3.47 16.14 4.28 -0.26 -0.23 12462
1.00 -0.05 0.45 -4.22 16.62 4.28 -0.35 -0.22 12469
0.82 -0.04 1.90 -4.31 18.71 4.28 -0.45 -0.27 12476
0.60 -0.03 2.17 -6.21 20.96 4.28 -0.59 -0.40 12483
0.46 -0.03 1.85 -8.13 24.07 4.28 -0.71 -0.55 12490
0.36 -0.02 2.44 -10.95 27.21 4.28 -0.71 -0.63 12497
0.23 -0.02 2.62 -13.69 33.62 4.28 -0.57 -0.67 12505
0.19 -0.02 2.79 -13.13 30.78 4.28 -0.29 -0.60 12512
0.17 -0.01 1.80 -10.69 28.97 4.28 -0.07 -0.65 12519
0.09 -0.00 1.14 -8.37 28.84 4.28 0.18 -0.65 12526
0.09 -0.01 0.68 -6.41 31.73 4.28 0.27 -0.68 12532
0.07 -0.01 0.97 -3.15 34.92 4.28 0.02 -0.74 12539
0.04 -0.00 2.63 -0.21 37.09 4.28 -0.49 -0.81 12547
0.01 -0.00 3.10 5.48 34.89 4.28 -1.03 -0.88 12554
0.02 -0.00 8.76 20.37 29.24 4.28 -0.86 -0.81 12561
0.00 0.00 9.48 23.73 12.47 4.16 -0.42 -0.86 12568
0.00 0.00 6.07 30.65 -4.64 2.65 -0.21 -1.46 12575
0.02 -0.00 5.26 22.30 20.05 1.99 -0.40 -2.05 12582
0.01 -0.00 7.67 14.11 31.86 -0.18 0.45 -2.13 12591
0.00 -0.00 4.16 14.43 24.31 -1.91 0.92 -1.97 12597
0.00 -0.00 1.65 15.72 14.27 -2.89 0.84 -1.75 12604
0.01 -0.00 1.15 14.78 11.75 -3.61 0.51 -1.51 12612
0.01 -0.00 2.04 12.26 9.86 -4.08 0.27 -1.36 12618
0.00 0.00 2.80 9.72 9.05 -4.21 0.02 -1.29 12625
0.00 0.00 3.12 7.21 8.93 -4.23 -0.17 -1.22 12633
0.00 0.00 2.92 5.97 8.82 -4.24 -0.18 -1.16 12640
0.00 -0.00 3.44 5.24 8.75 -4.24 -0.05 -1.08 12647
0.01 -0.00 3.95 4.89 8.50 -4.26 0.12 -1.02 12654
0.00 -0.00 3.84 4.94 8.28 -4.28 0.25 -0.97 12661
0.00 -0.00 3.60 4.80 8.79 -4.28 0.43 -0.90 12668
0.00 0.00 3.36 4.23 9.58 -4.28 0.58 -0.83 12676
0.00 -0.00 3.29 3.03 10.19 -4.28 0.81 -0.73 12683
0.01 -0.00 3.08 1.88 10.43 -4.28 1.04 -0.62 12690
0.00 0.00 2.79 0.94 10.38 -4.28 1.20 -0.51 12697
0.00 0.00 2.34 0.13 10.81 -4.28 1.32 -0.40 12704
0.00 -0.00 1.95 -1.10 11.27 -4.28 1.36 -0.29 12711
0.00 0.00 1.77 -1.33 12.06 -4.28 1.39 -0.20 12719
0.00 0.00 1.65 -2.07 13.46 -4.28 1.42 -0.11 12726
0.00 0.00 1.67 -2.71 14.75 -4.28 1.47 -0.06 12733
0.00 0.00 1.71 -3.19 15.95 -4.28 1.60 -0.03 12740
0.00 0.00 1.45 -3.96 16.73 -4.28 1.79 -0.07 12747
0.00 0.00 0.93 -5.36 16.89 -4.28 2.07 -0.10 12754
0.00 0.00 1.26 -5.72 17.00 -4.28 2.30 -0.17 12762
0.00 -0.00 0.72 -6.98 18.48 -4.28 2.49 -0.22 12769
0.00 0.00 -0.21 -8.08 18.75 -4.28 2.60 -0.24 12776
0.00 0.00 -1.27 -8.83 19.15 -4.27 2.65 -0.20 12783
0.00 0.00 -1.97 -8.38 19.96 -4.15 2.60 -0.13 12790
0.00 0.00 -2.70 -7.31 20.40 -4.00 2.41 -0.02 12797
0.00 0.00 -2.54 -7.27 20.76 -3.85 2.25 0.15 12805
-0.00 0.00 -2.02 -6.97 21.24 -3.77 2.00 0.27 12812
0.01 -0.00 -1.97 -7.60 22.01 -3.77 1.78 0.40 12819
0.00 0.00 -1.54 -8.98 22.02 -3.72 1.74 0.53 12826
0.00 0.00 -1.76 -9.75 21.43 -3.64 1.66 0.66 12833
0.00 0.00 -2.10 -9.92 21.45 -3.65 1.62 0.78 12840
0.00 0.00 -2.57 -10.79 21.37 -3.66 1.54 0.90 12848
0.00 -0.00 -3.09 -11.85 21.93 -3.68 1.40 1.03 12855
0.01 -0.00 -3.30 -12.61 21.85 -3.73 1.27 1.12 12863
0.00 0.00 -3.14 -13.93 21.62 -3.77 1.13 1.22 12869
0.00 -0.00 -2.82 -15.68 20.47 -3.79 1.00 1.31 12876
0.00 0.00 -2.39 -18.06 19.66 -3.74 0.91 1.35 12883
0.00 0.00 -2.40 -20.47 16.71 -3.59 0.94 1.38 12891
0.00 0.00 -2.83 -22.36 13.52 -3.40 1.07 1.42 12898
0.00 0.00 -3.76 -25.73 10.84 -3.05 1.15 1.41 12905
0.00 0.00 -4.93 -29.03 8.42 -2.62 1.18 1.36 12912
0.00 0.00 -6.63 -30.53 5.69 -2.11 1.15 1.27 12919
0.00 0.00 -7.59 -32.12 4.58 -1.70 1.03 1.12 12926
0.00 0.00 -8.06 -33.07 4.11 -1.21 0.86 0.92 12934
0.00 -0.00 -8.00 -32.78 3.52 -0.74 0.65 0.74 12941
0.00 0.00 -6.86 -30.69 3.30 -0.33 0.39 0.52 12948
0.00 0.00 -6.55 -28.35 4.34 0.13 0.08 0.32 12955
0.00 0.00 -9.79 -44.19 2.73 0.96 -0.43 0.19 12962
0.00 0.00 1.31 -23.48 -9.51 2.94 -0.45 0.38 12969
-0.00 0.00 -2.69 -21.21 -4.25 3.14 -1.02 0.41 12977
0.00 0.03 -0.84 -20.69 -3.06 3.15 -1.62 0.46 12984
-0.00 0.05 -0.20 5.68 3.58 3.22 -1.08 0.66 12991
-0.01 0.14 2.29 -1.24 17.10 3.76 -0.16 0.97 12999
-0.03 0.32 -3.81 2.94 22.55 4.08 -0.08 0.96 13005
-0.05 0.57 -8.90 -3.56 25.30 4.23 -0.90 0.50 13014
-0.05 0.72 -4.94 -5.37 20.48 4.20 -1.43 -0.05 13021
-0.04 0.82 -0.69 -5.05 19.91 4.13 -0.95 -0.14 13028
-0.05 0.93 -1.67 -3.61 21.28 3.83 -0.36 -0.13 13035
-0.06 0.94 -0.81 -2.35 18.58 3.37 -0.37 -0.33 13042
-0.06 1.01 1.80 -2.03 16.71 3.14 -0.44 -0.42 13049
-0.05 0.98 3.24 -2.71 21.12 3.21 -0.71 -0.33 13057
-0.05 0.92 1.25 -1.40 16.67 1.55 -1.67 -0.16 13064
-0.05 0.94 0.90 -2.64 12.88 0.47 -0.89 -0.00 13070
-0.05 0.92 -0.06 -1.69 11.06 0.13 -0.33 0.02 13078
-0.05 0.83 -0.37 -1.14 10.11 0.04 -0.12 -0.02 13085
-0.06 0.82 0.30 -1.05 9.91 0.02 -0.05 -0.06 13091
-0.06 0.80 0.68 -0.92 9.83 0.01 -0.03 -0.05 13099
-0.03 0.77 0.48 -0.93 9.85 0.00 -0.03 -0.05 13106
-0.02 0.75 0.33 -0.82 9.87 0.00 -0.03 -0.06 13113
-0.01 0.75 0.02 -1.05 9.80 0.01 -0.02 -0.03 13120
0.00 0.70 0.53 -0.80 9.78 0.02 -0.01 -0.07 13127
-0.02 0.66 0.42 -0.84 9.84 0.02 -0.01 -0.07 13134
-0.00 0.64 0.36 -0.85 9.85 0.03 -0.00 -0.08 13142
0.03 0.61 0.39 -0.84 9.86 0.02 0.01 -0.08 13149
0.05 0.58 0.36 -0.85 9.85 0.02 0.02 -0.07 13156
0.03 0.52 0.35 -0.80 9.84 0.03 0.03 -0.07 13163
0.02 0.50 0.35 -0.80 9.82 0.03 0.04 -0.07 13170
0.02 0.43 0.36 -0.82 9.85 0.04 0.05 -0.07 13177
0.03 0.40 0.39 -0.82 9.83 0.04 0.06 -0.07 13185
0.05 0.35 0.41 -0.83 9.81 0.04 0.06 -0.07 13192
0.05 0.29 0.43 -0.80 9.79 0.04 0.07 -0.08 13199
0.05 0.25 0.49 -0.80 9.81 0.05 0.08 -0.08 13206
0.10 0.14 0.48 -0.87 9.80 0.06 0.08 -0.09 13213
0.09 0.14 0.50 -0.86 9.80 0.06 0.08 -0.09 13220
0.12 0.09 0.49 -0.86 9.76 0.06 0.08 -0.09 13228
0.14 0.05 0.49 -0.85 9.80 0.05 0.08 -0.10 13235
0.13 0.02 0.46 -0.91 9.79 0.06 0.07 -0.10 13242
0.15 0.01 0.43 -0.84 9.82 0.06 0.07 -0.09 13249
0.16 0.01 0.45 -0.85 9.81 0.06 0.07 -0.09 13256
0.22 0.03 0.42 -0.90 9.78 0.06 0.07 -0.09 13263
0.17 0.01 0.41 -0.91 10.42 0.06 0.08 -0.09 13271
0.19 0.02 0.44 -0.92 9.81 0.06 0.07 -0.08 13278
0.20 -0.01 0.51 -0.90 9.80 0.07 0.07 -0.08 13285
0.20 -0.02 0.46 -0.91 9.80 0.07 0.07 -0.08 13292
0.19 0.00 0.52 -0.93 9.82 0.07 0.06 -0.08 13299
0.20 -0.00 0.52 -0.93 9.80 0.07 0.05 -0.09 13306
0.23 -0.00 0.56 -0.95 9.80 0.08 0.04 -0.10 13314
0.25 -0.02 0.54 -1.09 9.82 0.08 0.03 -0.10 13321
0.29 -0.01 0.49 -0.97 9.77 0.07 0.02 -0.11 13328
0.32 -0.02 0.51 -1.01 9.71 0.07 0.01 -0.12 13335
0.33 -0.01 0.51 -1.04 9.71 0.06 0.01 -0.12 13342
0.36 -0.01 0.50 -0.99 9.74 0.05 0.00 -0.12 13349
0.42 -0.01 0.48 -1.01 9.74 0.05 0.01 -0.13 13357
0.42 -0.01 0.45 -1.05 9.72 0.04 0.01 -0.12 13364
0.44 -0.02 0.45 -1.03 9.74 0.04 0.01 -0.13 13371
0.46 -0.02 0.47 -1.00 9.79 0.04 0.02 -0.13 13378
0.44 -0.02 0.46 -1.00 9.80 0.05 0.02 -0.12 13385
0.50 -0.02 0.39 -0.97 9.84 0.06 0.03 -0.13 13392
0.51 -0.03 0.39 -1.02 9.84 0.09 0.04 -0.13 13400
0.56 -0.03 0.40 -1.01 9.89 0.12 0.05 -0.12 13407
0.62 -0.03 0.42 -1.02 10.00 0.17 0.06 -0.12 13414
0.66 -0.03 0.37 -1.06 10.13 0.25 0.09 -0.12 13421
0.70 -0.03 0.43 -1.15 10.28 0.34 0.13 -0.12 13429
0.84 -0.03 0.38 -1.24 10.44 0.52 0.16 -0.11 13436
0.88 -0.03 0.42 -1.32 10.82 0.73 0.22 -0.12 13444
0.92 -0.04 0.50 -1.34 11.01 0.94 0.25 -0.13 13451
0.98 -0.04 0.66 -1.48 11.22 1.14 0.24 -0.13 13458
1.06 -0.04 0.75 -1.51 11.32 1.27 0.16 -0.14 13465
1.13 -0.04 0.78 -1.58 11.80 1.39 0.09 -0.15 13472
1.16 -0.04 0.85 -1.65 11.77 1.53 -0.00 -0.17 13479
1.21 -0.04 0.75 -1.77 11.98 1.65 -0.08 -0.19 13487
1.27 -0.04 0.62 -1.67 12.45 1.81 -0.15 -0.19 13494
1.28 -0.06 0.38 -1.86 12.54 2.04 -0.16 -0.19 13501
1.30 -0.04 0.37 -1.94 12.60 2.25 -0.22 -0.19 13508
1.37 -0.06 0.41 -2.10 13.16 2.53 -0.28 -0.18 13515
1.40 -0.04 0.57 -2.30 13.26 2.78 -0.31 -0.17 13522
1.43 -0.05 0.30 -2.54 13.51 3.07 -0.37 -0.18 13530
1.48 -0.05 0.66 -2.60 14.15 3.42 -0.35 -0.18 13537
1.44 -0.07 0.70 -2.76 13.98 3.77 -0.34 -0.21 13544
1.33 -0.05 0.41 -2.79 15.12 4.13 -0.33 -0.23 13551
1.30 -0.04 -0.26 -2.91 16.47 4.28 -0.32 -0.21 13558
1.22 -0.04 0.62 -3.67 17.08 4.28 -0.40 -0.22 13565
1.01 -0.04 2.27 -4.66 17.29 4.28 -0.64 -0.32 13573
0.77 -0.03 3.15 -5.19 17.15 4.28 -0.80 -0.49 13580
0.54 -0.03 1.28 -6.43 22.67 4.28 -0.96 -0.60 13587
0.38 -0.02 1.69 -9.74 26.43 4.28 -1.06 -0.71 13594
0.33 -0.00 2.71 -13.07 31.93 4.28 -0.98 -0.77 13601
0.25 -0.02 2.98 -12.91 33.88 4.28 -0.71 -0.80 13608
0.13 -0.01 2.11 -11.65 30.78 4.28 -0.44 -0.79 13616
0.12 -0.01 1.33 -9.64 27.62 4.28 -0.26 -0.83 13622
0.08 -0.01 -0.15 -5.06 28.17 4.28 -0.14 -0.85 13629
0.10 -0.01 -0.17 -3.69 32.30 4.28 -0.34 -0.86 13636
0.11 -0.01 2.23 -0.85 34.32 4.28 -0.86 -0.91 13644
0.04 -0.00 4.53 2.71 35.99 4.28 -1.50 -0.97 13650
0.04 -0.00 5.85 9.18 31.99 4.28 -1.61 -0.95 13658
0.00 0.00 10.77 18.58 17.82 4.28 -1.13 -0.89 13665
0.00 0.00 7.84 22.15 7.13 3.69 -0.68 -1.11 13672
0.00 -0.00 10.14 31.15 -7.72 2.44 -0.81 -1.59 13680
0.01 -0.00 8.69 20.50 27.35 1.02 -0.06 -1.72 13686
0.02 -0.00 7.01 14.78 29.33 -1.45 0.54 -1.55 13693
0.01 -0.00 3.50 14.91 19.02 -2.92 0.76 -1.22 13701
0.01 -0.00 1.71 14.74 12.22 -3.47 0.55 -0.96 13708
0.00 0.00 1.76 13.02 9.88 -3.98 0.27 -0.82 13715
0.00 0.00 2.94 10.36 7.98 -4.15 0.03 -0.75 13722
0.00 0.00 3.33 8.22 8.59 -4.15 -0.08 -0.72 13729
0.01 -0.00 3.32 6.44 8.12 -4.12 -0.05 -0.70 13736
0.00 -0.00 3.31 5.56 8.14 -4.11 0.13 -0.67 13744
0.00 0.00 3.61 5.30 7.88 -4.15 0.40 -0.67 13751
0.00 0.00 3.01 5.38 7.87 -4.21 0.63 -0.68 13758
0.00 -0.00 2.43 5.22 8.33 -4.27 0.78 -0.67 13765
0.02 -0.00 2.02 4.56 8.96 -4.28 0.89 -0.66 13772
0.01 -0.00 1.71 3.48 9.83 -4.28 0.94 -0.63 13779
0.00 -0.00 1.36 2.41 9.92 -4.28 1.00 -0.58 13787
0.00 -0.00 1.27 1.31 10.09 -4.28 1.04 -0.52 13794
0.00 0.00 1.21 0.59 10.37 -4.28 1.03 -0.44 13801
0.01 -0.00 1.10 -0.02 11.00 -4.28 1.01 -0.42 13808
0.01 -0.00 1.25 -0.58 12.07 -4.28 1.04 -0.37 13815
0.01 -0.00 1.54 -1.14 13.07 -4.28 1.14 -0.33 13822
0.00 0.00 1.78 -1.74 14.06 -4.28 1.28 -0.29 13830
0.00 0.00 1.83 -2.27 15.11 -4.28 1.43 -0.29 13837
0.00 0.00 1.66 -2.96 15.86 -4.28 1.63 -0.29 13844
0.00 0.00 1.16 -4.08 16.37 -4.28 1.88 -0.31 13851
0.00 -0.00 0.84 -5.59 17.17 -4.28 2.07 -0.32 13858
0.00 0.00 1.24 -5.83 17.09 -4.28 2.19 -0.30 13865
0.00 0.00 0.98 -6.93 18.14 -4.28 2.28 -0.27 13873
0.00 0.00 0.18 -7.71 18.36 -4.28 2.31 -0.21 13880
0.00 0.00 -0.37 -8.43 18.36 -4.23 2.32 -0.11 13887
0.00 0.00 -0.77 -8.18 17.78 -4.07 2.27 -0.02 13894
0.00 0.00 -1.31 -7.88 18.35 -3.86 2.08 0.06 13901
0.00 0.00 -0.83 -8.26 19.73 -3.67 1.96 0.17 13908
0.00 0.00 -0.49 -7.92 20.68 -3.54 1.75 0.24 13916
0.00 0.00 -0.39 -8.36 21.87 -3.50 1.64 0.32 13923
0.00 0.00 0.03 -8.98 22.72 -3.51 1.62 0.39 13930
0.00 0.00 -0.17 -9.52 22.48 -3.58 1.61 0.46 13937
0.00 0.00 -0.59 -10.12 22.08 -3.65 1.62 0.52 13944
0.00 0.00 -1.16 -11.29 21.63 -3.70 1.63 0.58 13952
0.00 0.00 -1.60 -12.15 21.23 -3.68 1.65 0.66 13959
0.00 0.00 -2.01 -12.91 21.36 -3.64 1.66 0.76 13966
0.00 0.00 -2.21 -14.52 21.43 -3.57 1.67 0.80 13973
0.02 -0.00 -2.47 -16.37 21.10 -3.55 1.66 0.86 13981
0.01 -0.00 -2.69 -18.31 19.17 -3.48 1.66 0.89 13988
0.00 0.00 -3.46 -19.91 16.40 -3.44 1.68 0.93 13995
0.01 -0.00 -4.84 -22.42 13.01 -3.31 1.72 1.02 14003
0.00 -0.00 -6.16 -25.32 10.83 -2.97 1.80 1.12 14010
0.01 -0.00 -8.29 -28.53 7.68 -2.62 1.80 1.22 14016
0.00 0.00 -9.69 -31.13 5.38 -2.17 1.50 1.25 14023
0.00 0.00 -10.49 -34.33 3.71 -1.66 0.97 1.23 14030
0.00 0.00 -10.37 -35.01 2.25 -1.16 0.56 1.19 14038
0.00 0.00 -9.66 -33.40 1.42 -0.56 0.21 1.11 14045
0.00 0.00 -8.75 -30.22 2.24 -0.09 -0.10 0.95 14052
-0.00 0.00 -7.83 -26.42 5.16 0.41 -0.33 0.76 14059
0.00 -0.00 -6.70 -25.30 6.73 0.74 -0.52 0.61 14066
0.00 0.00 -3.37 -23.55 -1.38 3.71 -0.97 0.85 14073
-0.00 0.00 -4.66 -16.27 -0.86 2.97 -1.13 0.86 14081
-0.00 0.03 -0.35 -15.53 -11.45 2.67 -1.55 0.76 14089
-0.00 0.06 -0.64 4.68 7.26 2.95 -1.28 0.93 14095
-0.02 0.23 -1.77 -0.40 21.62 3.60 -0.06 1.13 14103
-0.02 0.41 -5.81 2.08 21.70 4.02 -0.34 0.95 14110
-0.03 0.63 -8.13 -3.48 25.08 4.22 -1.13 0.44 14117
-0.05 0.75 -3.65 -6.11 19.28 4.20 -1.32 0.16 14125
-0.06 0.92 -1.97 -5.26 21.01 4.17 -0.67 0.10 14132
-0.05 1.00 -2.65 -3.07 19.71 3.84 -0.50 -0.02 14138
-0.05 1.03 -1.09 -2.15 16.94 3.42 -0.48 -0.30 14146
-0.05 1.06 1.52 -2.03 16.51 3.38 -0.47 -0.40 14153
-0.05 1.04 3.02 -3.08 23.29 3.50 -0.73 -0.28 14160
-0.06 1.00 1.82 -1.42 15.56 1.31 -1.32 -0.10 14168
-0.07 1.05 0.80 -2.92 12.61 0.31 -0.65 0.02 14175
-0.06 1.03 -0.24 -1.49 10.66 0.06 -0.22 0.02 14181
-0.04 0.99 -0.13 -1.00 9.97 0.03 -0.10 -0.04 14188
-0.06 0.99 0.66 -1.02 9.88 0.03 -0.04 -0.07 14195
-0.04 1.01 0.79 -1.13 9.86 0.02 -0.03 -0.06 14202
-0.05 0.91 0.43 -0.99 9.76 0.01 -0.02 -0.06 14210
-0.03 0.88 0.26 -0.78 9.83 0.01 -0.01 -0.06 14217
-0.02 0.88 0.40 -0.81 9.70 0.01 0.01 -0.07 14224
0.01 0.80 0.56 -0.88 9.89 0.01 0.01 -0.07 14231
-0.01 0.82 0.48 -0.93 9.82 0.01 0.00 -0.08 14238
-0.01 0.74 0.39 -0.87 9.84 0.01 0.01 -0.08 14245
-0.02 0.68 0.41 -0.85 9.83 0.01 0.01 -0.08 14253
-0.01 0.59 0.38 -0.81 9.82 0.02 0.02 -0.07 14260
0.00 0.58 0.39 -0.82 9.84 0.02 0.03 -0.07 14267
0.02 0.52 0.45 -0.87 9.82 0.02 0.04 -0.07 14274
0.02 0.58 0.46 -0.82 9.76 0.03 0.04 -0.07 14281
0.01 0.50 0.48 -0.83 9.79 0.03 0.05 -0.07 14288
0.02 0.49 0.43 -0.82 9.77 0.04 0.05 -0.07 14296
0.05 0.40 0.42 -0.84 9.81 0.04 0.05 -0.07 14303
0.07 0.29 0.43 -0.88 9.81 0.04 0.06 -0.08 14310
0.06 0.28 0.40 -0.82 9.77 0.04 0.07 -0.09 14317
0.05 0.26 0.50 -0.85 9.76 0.04 0.07 -0.09 14324
0.08 0.18 0.50 -0.87 9.78 0.04 0.08 -0.09 14331
0.06 0.13 0.50 -0.88 9.79 0.04 0.08 -0.09 14339
0.10 0.11 0.54 -0.91 9.80 0.04 0.09 -0.10 14346
0.09 0.08 0.52 -0.89 9.78 0.04 0.08 -0.10 14353
0.09 0.07 0.48 -0.92 9.80 0.04 0.09 -0.10 14360
0.11 0.04 0.43 -0.86 9.76 0.04 0.09 -0.11 14367
0.11 0.01 0.43 -0.90 9.79 0.04 0.09 -0.10 14374
0.12 0.03 0.48 -0.88 9.79 0.04 0.09 -0.10 14382
0.13 0.04 0.46 -0.93 9.82 0.05 0.09 -0.10 14389
0.16 0.02 0.51 -0.92 9.81 0.04 0.09 -0.10 14396
0.17 0.04 0.54 -0.91 9.76 0.04 0.08 -0.10 14403
0.16 0.02 0.53 -0.97 9.80 0.04 0.08 -0.10 14410
0.16 0.02 0.59 -0.95 9.77 0.03 0.07 -0.10 14417
0.17 0.02 0.55 -0.94 9.78 0.03 0.06 -0.11 14425
0.20 0.01 0.55 -0.93 9.75 0.03 0.05 -0.11 14432
0.20 -0.00 0.55 -0.92 9.70 0.02 0.03 -0.11 14439
0.20 -0.01 0.58 -1.00 9.81 0.02 0.02 -0.11 14446
0.19 -0.01 0.55 -0.97 9.78 0.03 0.01 -0.12 14453
0.22 -0.01 0.55 -0.97 9.75 0.03 0.01 -0.12 14460
0.22 -0.01 0.52 -0.98 9.75 0.03 0.01 -0.12 14468
0.25 0.01 0.52 -0.95 9.75 0.03 0.01 -0.12 14475
0.28 -0.01 0.50 -0.99 9.74 0.03 0.01 -0.12 14482
0.30 -0.01 0.51 -0.98 9.83 0.03 0.01 -0.12 14489
0.34 -0.02 0.47 -0.92 9.83 0.04 0.03 -0.12 14496
0.36 -0.02 0.44 -1.01 9.85 0.05 0.03 -0.12 14503
0.42 -0.02 0.42 -0.89 9.90 0.08 0.05 -0.12 14511
0.51 -0.02 0.46 -0.99 9.92 0.11 0.06 -0.12 14518
0.57 -0.03 0.51 -1.08 9.94 0.16 0.08 -0.11 14525
0.63 -0.03 0.44 -1.09 10.07 0.25 0.11 -0.11 14532
0.70 -0.04 0.52 -1.15 10.24 0.35 0.13 -0.12 14540
0.75 -0.03 0.64 -1.19 10.72 0.56 0.19 -0.13 14547
0.82 -0.03 0.63 -1.21 11.28 0.84 0.27 -0.15 14555
0.92 -0.04 0.78 -1.33 11.66 1.21 0.31 -0.17 14562
0.97 -0.04 0.80 -1.51 12.02 1.51 0.23 -0.20 14569
1.03 -0.04 0.86 -1.65 12.59 1.67 0.11 -0.21 14576
1.14 -0.05 0.59 -1.50 12.38 1.81 -0.01 -0.22 14583
1.18 -0.04 0.61 -1.81 12.55 1.94 -0.16 -0.22 14590
1.25 -0.04 0.48 -1.63 13.12 2.11 -0.22 -0.22 14598
1.32 -0.05 0.42 -1.74 13.00 2.32 -0.25 -0.21 14605
1.34 -0.05 0.14 -1.94 13.38 2.57 -0.27 -0.20 14612
1.41 -0.05 0.18 -2.13 13.46 2.85 -0.29 -0.18 14619
1.41 -0.05 0.63 -2.36 12.96 3.13 -0.31 -0.18 14626
1.39 -0.05 0.63 -2.27 13.35 3.39 -0.31 -0.18 14633
1.36 -0.04 0.56 -2.51 14.15 3.75 -0.26 -0.20 14641
1.36 -0.04 0.61 -2.81 14.51 4.10 -0.23 -0.21 14648
1.29 -0.05 0.19 -2.93 16.31 4.28 -0.23 -0.22 14655
1.16 -0.06 0.89 -3.14 16.94 4.28 -0.29 -0.21 14662
0.97 -0.04 2.60 -3.17 16.48 4.28 -0.48 -0.31 14669
0.70 -0.03 2.43 -4.62 18.62 4.28 -0.70 -0.45 14676
0.58 -0.02 1.64 -5.76 21.95 4.28 -0.87 -0.59 14684
0.42 -0.02 1.28 -10.82 26.27 4.28 -1.03 -0.68 14691
0.30 -0.02 1.74 -13.86 29.65 4.28 -1.05 -0.74 14698
0.26 -0.03 2.44 -18.85 33.36 4.28 -0.87 -0.75 14705
0.22 -0.01 2.40 -14.98 33.85 4.28 -0.51 -0.70 14712
0.15 -0.01 2.31 -11.22 30.37 4.28 -0.22 -0.70 14720
0.10 -0.00 1.22 -6.78 28.80 4.28 0.01 -0.75 14726
0.09 -0.01 1.07 -3.94 33.13 4.28 0.10 -0.78 14733
0.07 -0.01 2.49 -0.74 36.40 4.28 -0.21 -0.84 14740
0.03 -0.00 4.22 2.67 37.23 4.28 -0.79 -0.94 14747
0.00 0.00 6.01 16.77 34.73 4.28 -0.91 -0.95 14754
0.00 0.00 9.05 19.68 18.30 4.28 -0.47 -0.96 14761
0.01 0.00 4.30 23.21 4.09 3.39 -0.01 -1.32 14769
0.01 -0.00 8.65 28.50 -4.91 2.67 -0.55 -2.09 14776
0.01 -0.00 7.64 18.17 26.99 1.38 -0.04 -2.23 14783
0.02 -0.00 5.75 12.95 28.89 -0.90 0.60 -2.12 14790
0.01 -0.00 3.36 14.27 18.20 -2.02 0.74 -1.78 14797
0.01 0.00 1.30 15.20 12.21 -2.81 0.47 -1.55 14806
0.03 -0.00 1.70 13.88 9.52 -3.39 0.11 -1.37 14812
0.02 -0.00 2.81 11.76 8.43 -3.76 -0.17 -1.30 14819
0.02 -0.00 3.32 8.91 8.11 -3.89 -0.42 -1.24 14826
0.02 -0.00 3.60 7.24 7.36 -3.93 -0.44 -1.16 14833
0.01 -0.00 3.75 6.73 7.37 -3.95 -0.22 -1.06 14840
0.01 -0.00 4.20 6.22 7.21 -3.97 0.07 -0.94 14848
0.03 -0.00 3.96 6.10 7.28 -4.04 0.31 -0.85 14855
0.01 -0.00 3.47 5.99 8.02 -4.15 0.55 -0.74 14862
0.00 -0.00 2.48 5.41 9.29 -4.24 0.76 -0.61 14869
0.00 0.00 2.69 4.61 10.49 -4.28 0.98 -0.48 14876
0.00 0.01 2.27 3.51 11.31 -4.28 1.18 -0.31 14884
-0.00 0.00 1.71 2.81 11.20 -4.28 1.27 -0.16 14891
0.01 -0.00 1.30 1.85 11.25 -4.28 1.30 0.01 14898
0.00 0.00 1.06 0.92 11.58 -4.28 1.26 0.14 14905
0.00 0.00 0.97 -0.02 11.98 -4.28 1.19 0.24 14912
0.00 0.00 0.87 -1.17 12.80 -4.28 1.17 0.31 14919
0.00 0.00 0.97 -2.22 13.99 -4.28 1.19 0.35 14926
0.00 0.00 0.97 -3.07 14.97 -4.28 1.29 0.36 14934
0.00 -0.00 0.81 -3.89 16.04 -4.28 1.46 0.30 14941
0.00 0.00 0.40 -4.66 16.55 -4.28 1.63 0.21 14948
0.00 0.00 0.31 -6.14 17.95 -4.28 1.85 0.07 14955
0.00 0.00 -0.18 -6.27 17.55 -4.28 1.97 -0.05 14962
0.00 0.00 -0.56 -7.29 18.12 -4.28 2.04 -0.17 14969
0.01 -0.00 -0.64 -7.71 18.10 -4.28 2.10 -0.23 14977
0.00 0.00 -1.50 -8.99 18.41 -4.28 2.15 -0.25 14984
0.00 0.00 -1.60 -9.21 19.08 -4.20 2.18 -0.19 14991
0.00 0.00 -2.07 -8.50 19.62 -4.04 2.11 -0.11 14998
0.00 0.00 -2.03 -8.40 20.14 -3.81 1.99 -0.02 15005
0.00 0.00 -1.97 -8.21 20.63 -3.69 1.80 0.08 15012
0.00 0.00 -1.80 -8.41 21.07 -3.64 1.67 0.17 15020
0.00 0.00 -1.47 -8.84 20.87 -3.65 1.55 0.27 15027
0.00 0.00 -1.73 -9.31 20.35 -3.66 1.44 0.35 15034
0.00 0.00 -1.96 -9.81 20.04 -3.64 1.29 0.42 15041
0.00 0.00 -1.72 -10.40 20.01 -3.61 1.19 0.48 15048
0.00 0.00 -1.45 -11.18 19.58 -3.53 1.12 0.52 15055
0.00 -0.00 -1.02 -12.40 19.21 -3.41 1.09 0.56 15063
0.00 0.00 -0.02 -14.32 19.03 -3.29 1.09 0.58 15070
0.00 0.00 -0.34 -16.04 19.10 -3.11 1.13 0.58 15077
0.00 0.00 -0.27 -18.46 19.00 -2.99 1.22 0.56 15084
0.00 0.00 -0.42 -20.38 18.00 -2.89 1.36 0.54 15091
0.00 0.00 -1.11 -21.31 15.75 -2.87 1.59 0.55 15098
0.00 0.00 -2.29 -22.02 13.26 -2.89 1.90 0.63 15106
0.00 0.00 -4.34 -23.27 11.02 -2.83 2.12 0.78 15113
0.01 -0.00 -7.15 -25.36 8.37 -2.55 2.26 1.06 15120
0.00 0.00 -9.33 -27.88 6.32 -2.21 2.17 1.35 15127
0.00 0.00 -11.06 -30.42 4.52 -1.71 1.50 1.52 15134
0.00 0.00 -10.83 -31.40 2.89 -1.23 0.50 1.54 15141
0.00 0.00 -8.83 -30.17 2.00 -0.69 -0.23 1.40 15149
0.00 0.00 -6.54 -28.71 2.49 -0.22 -0.66 1.17 15156
0.00 0.00 -4.70 -26.28 4.58 0.14 -0.61 0.89 15163
0.00 0.00 -3.18 -23.35 6.68 0.44 -0.38 0.59 15170
0.00 0.00 -2.79 -31.80 -4.70 0.64 -0.14 0.29 15177
0.00 0.00 7.90 -20.42 -16.12 3.06 -0.27 0.76 15184
-0.00 0.02 -2.96 -14.50 -8.74 2.80 -0.82 0.82 15192
-0.00 0.03 -2.37 -0.87 -8.18 2.34 -1.47 0.63 15199
-0.01 0.12 0.98 2.17 14.76 3.12 -0.72 0.92 15206
-0.03 0.30 0.60 8.57 16.95 3.79 0.06 1.18 15213
-0.04 0.60 -8.40 -2.30 20.69 4.27 -0.65 0.87 15221
-0.02 0.73 -8.11 -6.30 24.43 4.28 -1.35 0.41 15228
-0.04 0.89 -2.07 -6.12 22.09 4.28 -1.01 0.17 15236
-0.06 0.99 -3.08 -4.09 21.16 4.22 -0.42 0.08 15243
-0.05 1.06 -3.59 -2.87 19.68 3.89 -0.29 -0.22 15250
-0.04 1.12 -0.06 -2.16 18.67 3.65 -0.32 -0.56 15257
-0.05 1.07 3.03 -2.85 25.69 3.67 -0.38 -0.58 15264
-0.04 1.07 2.36 -1.83 18.62 1.24 -1.44 -0.33 15271
-0.04 1.06 1.94 -3.06 12.07 0.32 -0.75 -0.06 15279
-0.05 1.04 0.26 -1.70 10.37 0.07 -0.28 0.01 15285
-0.06 0.95 -0.18 -0.78 9.91 0.04 -0.14 -0.04 15292
-0.06 0.93 0.40 -0.97 9.97 0.03 -0.09 -0.09 15299
-0.05 0.93 1.01 -1.25 9.79 0.01 -0.07 -0.09 15306
-0.05 0.92 0.60 -0.99 9.87 0.00 -0.08 -0.07 15313
-0.04 0.89 0.31 -0.84 9.82 -0.00 -0.06 -0.08 15321
-0.03 0.85 2.00 -0.16 9.80 0.00 -0.05 -0.09 15328
-0.03 0.85 0.58 -0.91 10.06 0.00 -0.04 -0.09 15335
0.02 0.81 0.45 -0.87 9.81 0.01 -0.04 -0.10 15342
0.01 0.80 0.42 -0.89 9.84 0.01 -0.03 -0.10 15349
0.03 0.70 0.39 -0.92 9.75 0.01 -0.02 -0.10 15356
0.02 0.63 0.39 -0.83 9.85 0.01 -0.01 -0.10 15364
0.02 0.51 0.36 -0.90 9.82 0.02 0.00 -0.10 15371
0.01 0.50 0.39 -0.89 9.83 0.02 0.01 -0.09 15378
0.03 0.52 0.43 -0.85 9.86 0.03 0.01 -0.09 15385
0.06 0.54 0.35 -0.82 10.40 0.03 0.02 -0.09 15392
0.05 0.42 0.34 -0.81 9.81 0.03 0.03 -0.09 15399
0.04 0.30 0.34 -0.84 9.81 0.03 0.03 -0.09 15407
0.05 0.27 0.40 -0.92 9.81 0.04 0.03 -0.09 15414
0.06 0.23 0.43 -0.90 9.82 0.04 0.04 -0.09 15421
0.09 0.20 0.42 -0.92 9.82 0.04 0.04 -0.09 15428
0.10 0.15 0.48 -0.92 9.81 0.04 0.04 -0.09 15435
0.12 0.13 0.48 -0.94 9.81 0.04 0.04 -0.10 15442
0.15 0.07 0.47 -0.91 9.79 0.04 0.05 -0.11 15450
0.15 0.05 0.45 -0.88 9.82 0.03 0.05 -0.11 15457
0.17 0.03 0.41 -0.97 9.82 0.04 0.04 -0.12 15464
0.20 0.01 0.40 -0.94 9.81 0.04 0.04 -0.11 15471
0.24 0.04 0.42 -0.88 9.80 0.04 0.04 -0.10 15478
0.24 0.03 0.40 -0.89 9.80 0.04 0.03 -0.10 15485
0.25 0.01 0.41 -0.98 9.80 0.05 0.03 -0.10 15493
0.25 0.01 0.38 -0.93 9.80 0.04 0.03 -0.10 15500
0.28 0.04 0.45 -0.97 9.79 0.04 0.03 -0.11 15507
0.32 0.01 0.43 -1.00 9.80 0.04 0.03 -0.11 15514
0.36 -0.01 0.48 -0.96 9.82 0.05 0.03 -0.12 15521
0.40 -0.00 0.46 -0.98 9.75 0.05 0.03 -0.12 15528
0.42 -0.01 0.43 -0.99 9.79 0.05 0.03 -0.13 15536
0.41 -0.02 0.49 -0.99 9.78 0.05 0.03 -0.13 15543
0.40 -0.03 0.51 -0.98 9.80 0.06 0.04 -0.14 15550
0.43 -0.02 0.43 -0.97 9.79 0.06 0.04 -0.14 15557
0.51 -0.03 0.43 -1.00 9.75 0.06 0.05 -0.15 15564
0.52 -0.02 0.39 -0.97 9.76 0.06 0.05 -0.15 15571
0.53 -0.03 0.36 -0.98 9.76 0.07 0.06 -0.14 15579
0.61 -0.02 0.38 -1.00 9.78 0.07 0.06 -0.14 15586
0.66 -0.02 0.40 -1.01 9.81 0.07 0.07 -0.14 15593
0.72 -0.02 0.45 -0.98 9.88 0.09 0.08 -0.13 15600
0.77 -0.03 0.46 -1.00 9.91 0.12 0.08 -0.13 15607
0.80 -0.04 0.45 -1.09 9.97 0.17 0.08 -0.14 15614
0.90 -0.03 0.56 -1.08 10.11 0.24 0.08 -0.14 15622
0.96 -0.04 0.52 -1.14 10.26 0.37 0.08 -0.15 15630
1.01 -0.04 0.55 -1.25 10.67 0.56 0.08 -0.17 15637
1.05 -0.05 0.49 -1.23 11.17 0.82 0.09 -0.18 15644
1.14 -0.05 0.49 -1.33 11.46 1.13 0.09 -0.19 15651
1.22 -0.04 0.56 -1.37 12.02 1.36 0.08 -0.20 15659
1.22 -0.04 0.47 -1.58 12.40 1.49 0.06 -0.20 15665
1.34 -0.05 0.56 -1.72 12.59 1.67 -0.03 -0.20 15673
1.37 -0.04 0.69 -1.82 12.46 1.81 -0.12 -0.19 15680
1.43 -0.05 0.52 -1.96 12.34 1.97 -0.14 -0.21 15687
1.48 -0.04 0.37 -1.94 12.42 2.15 -0.19 -0.21 15694
1.51 -0.06 0.40 -2.00 12.25 2.32 -0.27 -0.22 15702
1.54 -0.05 0.76 -1.89 13.00 2.51 -0.34 -0.23 15709
1.58 -0.06 0.23 -2.11 13.78 2.75 -0.43 -0.25 15716
1.56 -0.04 0.29 -2.14 13.60 3.08 -0.41 -0.24 15723
1.58 -0.05 0.27 -2.50 14.12 3.42 -0.44 -0.25 15730
1.57 -0.05 0.38 -2.59 14.72 3.72 -0.47 -0.27 15737
1.54 -0.06 0.53 -2.80 14.93 4.11 -0.49 -0.29 15745
1.43 -0.05 0.05 -2.96 16.54 4.28 -0.51 -0.29 15752
1.30 -0.05 0.31 -3.61 17.87 4.28 -0.59 -0.30 15759
1.05 -0.04 2.12 -3.50 17.28 4.28 -0.75 -0.36 15766
0.84 -0.04 2.67 -4.85 19.15 4.28 -0.90 -0.50 15773
0.62 -0.03 1.24 -6.51 22.55 4.28 -0.94 -0.61 15780
0.46 -0.04 0.52 -9.66 25.61 4.28 -0.98 -0.67 15788
0.39 -0.02 1.07 -10.89 30.16 4.28 -0.97 -0.71 15795
0.28 -0.01 0.91 -13.19 33.40 4.28 -0.68 -0.69 15802
0.23 -0.01 2.23 -13.52 32.63 4.28 -0.27 -0.63 15809
0.14 -0.01 1.28 -9.80 28.63 4.28 -0.05 -0.67 15815
0.07 -0.01 0.85 -4.82 29.03 4.28 0.02 -0.70 15822
0.09 -0.01 0.70 -3.11 31.10 4.28 0.03 -0.72 15830
0.03 -0.00 1.47 -1.19 31.25 4.28 -0.34 -0.83 15837
0.06 -0.01 3.90 3.70 33.98 4.28 -0.95 -0.95 15844
0.03 -0.00 5.03 8.85 30.86 4.28 -1.03 -0.95 15851
0.00 -0.00 10.33 19.62 19.63 4.28 -0.63 -0.95 15859
0.00 0.00 8.75 22.32 10.46 4.13 -0.24 -1.16 15865
0.00 0.00 7.00 30.32 -5.81 2.86 -0.14 -1.64 15873
0.00 -0.00 7.02 20.99 22.99 1.97 0.25 -1.86 15880
0.00 -0.00 7.24 14.74 32.22 -0.51 0.72 -1.64 15887
0.01 -0.00 3.08 16.22 21.71 -2.46 0.87 -1.33 15895
0.01 -0.00 0.64 16.25 13.67 -3.28 0.57 -0.98 15901
0.01 -0.00 1.24 14.13 11.69 -4.06 0.25 -0.73 15909
0.00 0.00 2.79 11.02 10.36 -4.27 -0.02 -0.55 15916
0.01 -0.00 3.83 8.38 6.96 -4.28 -0.15 -0.45 15923
0.01 -0.00 3.64 6.18 8.33 -4.28 -0.13 -0.42 15930
0.01 -0.00 3.63 5.00 8.54 -4.28 0.05 -0.38 15937
0.00 -0.00 3.63 4.46 8.87 -4.28 0.28 -0.36 15944
0.00 -0.00 3.56 4.30 8.68 -4.28 0.55 -0.37 15951
0.00 0.00 3.03 3.71 8.88 -4.28 0.77 -0.42 15959
0.01 -0.00 2.33 3.79 9.38 -4.28 0.99 -0.45 15966
0.01 -0.00 1.79 2.85 10.40 -4.28 1.16 -0.48 15973
0.01 -0.00 1.34 1.78 11.27 -4.28 1.28 -0.49 15980
0.01 -0.00 0.93 0.76 11.61 -4.28 1.35 -0.49 15987
0.00 -0.00 0.79 -0.08 11.73 -4.28 1.36 -0.49 15994
0.00 -0.00 0.43 -0.75 11.93 -4.28 1.32 -0.48 16002
0.01 -0.00 0.26 -1.58 12.15 -4.28 1.29 -0.46 16009
0.02 -0.00 0.25 -2.93 12.57 -4.28 1.30 -0.44 16016
0.01 -0.00 0.47 -3.24 13.20 -4.28 1.38 -0.42 16023
0.01 -0.00 0.55 -4.10 14.37 -4.28 1.49 -0.43 16030
0.00 -0.00 0.34 -4.82 15.50 -4.28 1.61 -0.43 16037
0.01 -0.00 0.07 -5.36 16.01 -4.28 1.77 -0.45 16045
0.02 -0.00 0.05 -5.90 18.23 -4.28 1.90 -0.47 16052
0.03 -0.00 0.01 -5.61 17.01 -4.28 2.00 -0.45 16059
0.01 -0.00 -0.06 -5.98 18.74 -4.27 2.01 -0.38 16066
0.01 -0.00 -0.14 -5.93 19.92 -4.25 1.97 -0.28 16073
0.00 0.00 -0.31 -6.93 20.82 -4.21 1.94 -0.12 16080
0.01 -0.00 -0.24 -6.90 21.56 -4.16 1.85 0.06 16088
0.01 -0.00 -0.27 -7.06 22.00 -4.15 1.66 0.23 16095
0.01 -0.00 0.40 -7.52 21.90 -4.15 1.50 0.44 16102
0.02 -0.00 1.01 -8.26 22.00 -4.15 1.40 0.62 16109
0.00 -0.00 1.51 -9.84 21.60 -4.12 1.37 0.84 16116
0.00 0.00 1.68 -11.03 21.01 -4.05 1.35 1.04 16123
0.00 0.00 1.49 -12.20 19.88 -3.88 1.39 1.17 16131
0.01 -0.00 0.89 -13.24 18.92 -3.63 1.43 1.28 16139
0.01 -0.00 -0.15 -13.61 17.61 -3.33 1.54 1.39 16146
0.01 -0.00 -1.15 -14.61 18.11 -2.97 1.79 1.45 16153
0.01 -0.00 -2.94 -15.27 18.75 -2.73 2.05 1.49 16160
0.00 0.00 -4.32 -15.30 19.78 -2.62 2.40 1.50 16166
0.01 -0.00 -5.80 -16.80 20.65 -2.73 2.59 1.42 16174
0.02 -0.00 -7.40 -18.12 19.65 -2.89 2.39 1.27 16182
0.01 -0.00 -7.98 -20.28 17.13 -3.07 1.95 1.12 16189
0.01 -0.00 -7.09 -22.84 12.91 -3.11 1.34 0.88 16196
0.01 -0.00 -6.53 -25.58 9.24 -2.93 0.91 0.61 16202
0.00 0.00 -6.13 -28.46 5.44 -2.50 0.71 0.25 16209
0.00 -0.00 -6.19 -30.25 2.82 -2.05 0.73 -0.10 16217
0.02 -0.00 -6.93 -30.80 1.84 -1.46 0.79 -0.35 16224
0.01 -0.00 -7.67 -30.26 1.90 -0.96 0.77 -0.52 16231
0.00 0.00 -8.03 -28.76 2.58 -0.41 0.61 -0.59 16238
0.00 0.00 -7.71 -26.08 4.12 0.08 0.25 -0.57 16245
0.00 0.00 -26.49 -31.68 59.98 2.07 -1.27 -0.17 16252
0.00 0.00 -8.60 -21.86 7.86 2.45 -1.61 0.05 16260
-0.00 0.00 -4.00 -26.95 -1.75 2.88 -2.47 0.19 16267
-0.00 0.02 -2.45 -31.34 -3.67 2.92 -2.63 0.63 16274
-0.00 0.06 2.70 8.50 1.57 3.47 -1.41 1.10 16281
-0.02 0.17 -0.15 -7.02 17.74 4.12 0.01 1.49 16288
-0.03 0.48 -8.40 2.04 31.11 4.28 -0.50 1.40 16296
-0.04 0.69 -12.64 -4.08 29.23 4.28 -1.67 0.59 16304
-0.04 0.77 -6.36 -6.84 26.37 3.93 -1.73 -0.05 16311
-0.06 0.82 -4.85 -5.80 21.35 3.38 -0.90 -0.29 16318
-0.06 0.85 -2.61 -2.30 19.67 2.90 -0.57 -0.63 16325
-0.06 0.87 1.90 -1.63 14.81 2.39 -0.47 -0.71 16332
-0.05 0.83 3.98 -0.87 12.78 2.31 -0.34 -0.53 16339
-0.04 0.81 3.85 -1.23 15.01 2.50 -0.54 -0.24 16347
-0.03 0.81 0.80 -1.97 18.62 1.50 -1.19 -0.02 16354
-0.04 0.77 0.76 -2.33 12.61 0.34 -0.64 0.08 16361
-0.05 0.79 -0.17 -1.74 10.25 0.02 -0.19 0.01 16367
-0.05 0.84 -0.56 -1.61 10.15 -0.02 -0.09 -0.05 16375
-0.04 0.86 0.16 -1.02 9.93 -0.00 -0.04 -0.08 16381
-0.03 0.85 0.65 -0.96 9.83 0.00 -0.02 -0.07 16389
-0.01 0.85 0.38 -0.95 9.86 0.00 -0.01 -0.06 16396
-0.00 0.78 0.18 -0.83 9.84 0.00 0.00 -0.06 16403
-0.02 0.74 0.22 -0.82 9.83 0.00 0.02 -0.08 16410
0.01 0.67 0.32 -0.77 9.91 0.01 0.04 -0.07 16417
0.03 0.68 0.34 -0.74 9.92 0.02 0.05 -0.07 16424
0.03 0.68 0.27 -0.84 9.82 0.02 0.05 -0.08 16432
0.03 0.64 0.29 -0.84 9.82 0.02 0.06 -0.07 16439
0.04 0.58 0.34 -0.84 9.85 0.01 0.06 -0.07 16446
0.02 0.56 0.25 -0.78 10.04 0.02 0.06 -0.07 16453
0.01 0.53 0.35 -0.80 9.84 0.02 0.06 -0.06 16460
0.04 0.48 0.31 -0.82 9.86 0.02 0.06 -0.07 16467
0.06 0.46 0.38 -0.83 9.81 0.02 0.05 -0.07 16475
0.07 0.38 0.41 -0.85 9.82 0.03 0.05 -0.07 16482
0.08 0.38 0.43 -0.81 9.81 0.03 0.05 -0.08 16489
0.11 0.30 0.46 -0.83 9.80 0.03 0.05 -0.09 16496
0.13 0.26 0.47 -0.80 9.77 0.03 0.05 -0.10 16503
0.13 0.21 0.46 -0.81 9.79 0.03 0.04 -0.10 16510
0.16 0.14 0.42 -0.85 9.20 0.03 0.04 -0.11 16518
0.16 0.15 0.42 -0.88 9.80 0.03 0.04 -0.11 16525
0.15 0.12 0.38 -0.79 9.80 0.04 0.04 -0.11 16532
0.16 0.10 0.34 -0.84 9.82 0.04 0.04 -0.10 16539
0.18 0.05 0.36 -0.86 9.78 0.04 0.04 -0.09 16546
0.17 0.02 0.32 -0.83 9.81 0.04 0.04 -0.09 16553
0.21 0.03 0.36 -0.80 9.80 0.04 0.04 -0.10 16561
0.19 0.03 0.34 -0.88 9.80 0.04 0.04 -0.09 16568
0.20 0.03 0.42 -0.86 9.80 0.05 0.04 -0.09 16575
0.20 0.02 0.45 -0.93 9.80 0.05 0.05 -0.09 16582
0.23 0.02 0.41 -0.96 9.74 0.05 0.05 -0.07 16589
0.26 0.01 0.39 -0.90 9.75 0.06 0.05 -0.10 16596
0.26 0.02 0.38 -0.95 9.77 0.06 0.05 -0.10 16604
0.29 0.00 0.40 -0.97 9.80 0.05 0.05 -0.10 16611
0.32 -0.02 0.39 -0.93 9.80 0.05 0.05 -0.11 16618
0.32 -0.02 0.37 -0.94 9.75 0.05 0.05 -0.11 16625
0.34 -0.01 0.37 -0.99 9.78 0.05 0.05 -0.11 16632
0.37 -0.02 0.39 -0.92 9.80 0.05 0.05 -0.10 16640
0.37 -0.01 0.40 -0.93 9.81 0.05 0.05 -0.11 16647
0.41 -0.02 0.41 -0.97 9.78 0.06 0.05 -0.10 16654
0.43 -0.02 0.45 -0.97 9.78 0.06 0.05 -0.11 16661
0.44 -0.01 0.59 -1.05 9.81 0.07 0.05 -0.11 16668
0.48 -0.01 0.40 -0.95 9.80 0.08 0.05 -0.12 16675
0.54 -0.02 0.44 -1.00 9.79 0.08 0.05 -0.12 16683
0.58 -0.02 0.45 -1.01 9.81 0.10 0.05 -0.13 16690
0.62 -0.02 0.40 -1.02 9.82 0.12 0.05 -0.13 16697
0.64 -0.04 0.46 -0.99 9.91 0.16 0.05 -0.12 16704
0.70 -0.03 0.44 -1.04 10.00 0.20 0.05 -0.13 16711
0.82 -0.03 0.47 -1.11 10.09 0.28 0.04 -0.14 16719
0.86 -0.04 0.50 -1.20 10.25 0.39 0.04 -0.15 16727
0.93 -0.04 0.50 -1.17 10.40 0.52 0.04 -0.15 16734
1.03 -0.05 0.49 -1.21 10.68 0.71 0.05 -0.17 16741
1.08 -0.04 0.49 -1.34 11.10 0.94 0.04 -0.17 16747
1.16 -0.04 0.51 -1.38 11.58 1.11 0.03 -0.19 16755
1.25 -0.04 0.51 -1.53 11.76 1.30 -0.00 -0.20 16762
1.32 -0.05 0.72 -1.54 11.92 1.47 -0.06 -0.23 16770
1.37 -0.06 0.63 -1.70 12.04 1.61 -0.12 -0.23 16777
1.46 -0.06 0.42 -1.68 12.48 1.76 -0.19 -0.23 16784
1.49 -0.06 0.35 -1.76 12.49 1.90 -0.23 -0.22 16791
1.57 -0.05 0.27 -1.73 12.35 2.08 -0.29 -0.21 16798
1.60 -0.05 0.13 -1.98 12.90 2.26 -0.33 -0.20 16805
1.64 -0.05 -0.12 -2.00 13.02 2.52 -0.39 -0.19 16813
1.68 -0.05 0.29 -2.08 13.59 2.80 -0.39 -0.18 16820
1.69 -0.06 0.49 -2.40 12.94 3.07 -0.40 -0.18 16827
1.67 -0.05 0.39 -2.81 13.17 3.38 -0.42 -0.17 16834
1.61 -0.05 -0.01 -2.68 14.37 3.73 -0.50 -0.17 16841
1.51 -0.05 -0.16 -2.86 15.83 4.07 -0.50 -0.15 16848
1.44 -0.05 0.16 -3.28 16.18 4.28 -0.53 -0.14 16856
1.25 -0.05 1.54 -3.72 16.86 4.28 -0.67 -0.20 16863
1.06 -0.04 2.24 -3.65 16.82 4.28 -0.84 -0.32 16870
0.84 -0.04 1.61 -4.45 19.16 4.28 -1.02 -0.47 16877
0.72 -0.02 2.10 -6.31 20.04 4.28 -1.08 -0.60 16884
0.52 -0.03 1.16 -9.18 23.99 4.28 -1.16 -0.70 16891
0.40 -0.02 1.53 -16.32 27.90 4.28 -1.15 -0.81 16899
0.32 -0.03 1.49 -12.40 33.11 4.28 -0.99 -0.84 16906
0.27 -0.02 1.51 -12.94 31.84 4.28 -0.69 -0.82 16913
0.19 -0.01 0.32 -9.35 27.56 4.28 -0.51 -0.80 16920
0.07 -0.00 -0.01 -6.47 29.24 4.28 -0.47 -0.80 16926
0.10 -0.01 1.08 -4.34 31.74 4.28 -0.68 -0.77 16933
0.05 -0.00 3.54 -1.71 33.27 4.28 -1.03 -0.84 16941
0.07 -0.01 5.37 2.46 33.86 4.28 -1.53 -0.93 16948
0.01 -0.00 5.59 11.45 29.95 4.28 -1.56 -0.89 16956
0.00 0.00 10.28 18.84 17.41 4.28 -1.10 -0.95 16962
0.00 0.00 4.80 22.87 3.99 3.48 -1.05 -1.20 16969
0.02 -0.00 8.70 30.57 -1.66 2.30 -1.34 -1.67 16976
0.02 -0.00 9.48 19.02 25.69 0.60 -0.34 -1.81 16984
0.01 -0.00 7.26 12.82 26.96 -1.21 0.50 -1.72 16992
0.00 -0.00 4.40 13.22 18.32 -2.43 0.87 -1.56 16998
0.01 -0.00 2.74 13.83 11.86 -2.96 0.84 -1.38 17005
0.02 -0.00 2.78 12.32 9.47 -3.37 0.77 -1.21 17012
0.01 -0.00 3.58 10.72 8.67 -3.65 0.66 -1.13 17019
0.01 -0.00 2.85 8.91 9.62 -3.74 0.59 -1.03 17027
0.00 -0.00 3.09 7.42 9.25 -3.83 0.62 -0.93 17034
0.01 -0.00 2.83 6.40 9.32 -3.96 0.72 -0.82 17041
0.01 -0.00 2.94 5.92 9.19 -4.07 0.80 -0.72 17048
0.02 -0.00 2.57 5.72 9.05 -4.20 0.85 -0.63 17055
0.01 -0.00 2.16 5.39 9.21 -4.26 0.88 -0.54 17062
0.00 -0.00 2.06 4.72 9.64 -4.28 0.90 -0.46 17070
0.00 0.00 2.07 3.65 10.37 -4.28 0.98 -0.38 17077
0.01 -0.00 1.99 2.50 10.88 -4.28 1.11 -0.28 17084
0.01 0.00 1.68 1.69 10.97 -4.28 1.30 -0.23 17091
0.02 -0.00 1.56 1.07 11.08 -4.28 1.47 -0.19 17098
0.01 -0.00 1.31 0.59 11.49 -4.28 1.59 -0.18 17105
0.01 -0.00 0.89 -0.05 11.83 -4.28 1.70 -0.17 17113
0.00 -0.00 0.02 -0.85 13.01 -4.28 1.84 -0.17 17120
0.00 -0.00 0.32 -1.55 14.05 -4.28 1.90 -0.19 17127
0.01 -0.00 -0.27 -2.44 15.35 -4.28 1.99 -0.22 17134
0.02 -0.00 -0.77 -3.63 16.26 -4.28 2.07 -0.30 17141
0.01 -0.00 -1.26 -3.72 16.55 -4.28 2.15 -0.34 17148
0.01 -0.00 -1.83 -5.01 17.11 -4.28 2.22 -0.43 17156
0.00 -0.00 -1.69 -5.34 17.68 -4.28 2.29 -0.49 17163
0.01 -0.00 -2.00 -5.82 17.48 -4.28 2.29 -0.51 17170
0.02 -0.00 -2.33 -6.82 18.29 -4.27 2.28 -0.49 17177
0.01 -0.00 -2.35 -7.43 17.68 -4.17 2.31 -0.43 17184
0.01 -0.00 -2.16 -7.42 17.85 -3.96 2.27 -0.33 17191
0.01 -0.00 -1.68 -7.37 18.25 -3.65 2.22 -0.24 17199
0.00 -0.00 -1.47 -7.44 19.12 -3.43 2.14 -0.10 17206
0.00 -0.00 -1.40 -7.92 20.73 -3.30 2.11 0.06 17213
0.01 -0.00 -1.15 -8.08 21.32 -3.26 2.09 0.24 17220
0.01 -0.00 -1.60 -8.38 21.52 -3.30 2.01 0.47 17227
0.00 0.00 -1.87 -9.35 21.77 -3.37 1.93 0.67 17234
0.00 -0.00 -2.52 -10.46 20.91 -3.43 1.77 0.88 17243
0.01 -0.00 -3.17 -11.71 19.86 -3.41 1.56 1.05 17250
0.01 -0.00 -3.51 -12.77 18.92 -3.27 1.40 1.17 17257
0.01 -0.00 -3.73 -13.54 18.53 -3.04 1.26 1.26 17264
0.01 -0.00 -4.36 -16.87 23.05 -2.84 1.19 1.32 17271
0.01 -0.00 -2.58 -15.53 16.93 -2.62 1.16 1.36 17278
0.00 0.00 -2.94 -15.54 17.28 -2.77 1.12 1.33 17285
0.00 -0.00 -2.36 -17.65 19.31 -3.09 1.14 1.32 17293
0.01 -0.00 -2.91 -21.10 17.09 -3.28 1.24 1.31 17300
0.02 -0.00 -3.61 -24.04 13.08 -3.27 1.31 1.29 17307
0.01 -0.00 -4.81 -26.63 8.46 -3.02 1.36 1.26 17313
0.01 -0.00 -6.72 -29.40 4.29 -2.65 1.36 1.25 17320
0.00 -0.00 -7.94 -31.40 2.58 -2.07 1.26 1.23 17328
0.00 -0.00 -8.68 -32.81 2.03 -1.42 1.03 1.18 17335
0.02 -0.00 -8.78 -34.66 0.64 -0.88 0.75 1.06 17342
0.01 -0.00 -13.17 -38.59 19.25 0.78 0.04 1.01 17350
0.00 0.00 -8.10 -30.46 2.42 1.56 -0.14 0.93 17356
0.00 -0.00 -7.80 -28.28 -1.07 2.21 -0.65 0.75 17363
0.00 0.00 -7.98 -36.58 3.24 2.71 -1.40 0.67 17371
0.01 0.04 -7.50 -27.09 -3.76 2.81 -2.14 0.77 17378
0.02 0.12 -0.62 9.21 6.07 3.58 -1.63 0.89 17385
-0.00 0.25 -2.26 -4.98 23.45 4.28 -0.60 1.09 17393
-0.04 0.50 -5.01 -0.10 25.28 4.28 -0.82 0.99 17400
-0.04 0.68 -9.32 -3.70 27.15 4.28 -1.46 0.47 17408
-0.06 0.80 -5.43 -6.35 24.04 4.19 -1.31 0.01 17415
-0.05 0.81 -3.83 -5.27 20.73 3.76 -0.71 -0.19 17422
-0.04 0.86 -1.59 -3.01 19.37 3.41 -0.37 -0.41 17429
