Voltage_01 Voltage_02 Acc_x Acc_y Acc_z Gyro_x Gyro_y Gyro_z Time
5000
1.36 -0.05 0.88 -1.78 12.43 1.92 -0.32 -0.16 17
1.38 -0.06 0.88 -2.06 12.60 2.04 -0.36 -0.15 23
1.43 -0.06 0.76 -1.99 12.34 2.18 -0.39 -0.15 29
1.47 -0.05 0.66 -2.20 12.49 2.33 -0.41 -0.15 35
1.49 -0.05 0.68 -2.42 12.66 2.48 -0.42 -0.15 41
1.47 -0.06 0.55 -2.59 12.86 2.64 -0.41 -0.15 48
1.47 -0.06 0.63 -2.45 12.98 2.82 -0.39 -0.15 55
1.42 -0.06 0.56 -2.62 13.34 3.00 -0.37 -0.15 61
1.40 -0.06 0.57 -2.78 13.87 3.25 -0.33 -0.14 67
1.32 -0.05 0.58 -2.89 14.46 3.54 -0.31 -0.13 73
1.24 -0.06 1.26 -3.25 14.99 3.85 -0.32 -0.15 79
1.19 -0.05 1.71 -3.46 15.26 4.14 -0.36 -0.23 86
1.04 -0.04 1.67 -4.08 16.43 4.27 -0.44 -0.32 92
0.92 -0.05 2.16 -4.44 17.31 4.28 -0.54 -0.42 99
0.77 -0.04 2.04 -5.37 18.31 4.28 -0.64 -0.50 105
0.68 -0.03 0.91 -7.26 19.89 4.28 -0.76 -0.60 111
0.59 -0.04 1.99 -8.19 22.70 4.28 -0.84 -0.62 117
0.50 -0.03 1.96 -10.78 25.20 4.28 -0.85 -0.67 123
0.47 -0.02 1.94 -12.52 28.03 4.28 -0.71 -0.65 130
0.36 -0.03 2.83 -12.62 28.38 4.28 -0.47 -0.63 137
0.29 -0.02 2.07 -11.98 26.63 4.28 -0.27 -0.64 143
0.26 -0.02 1.21 -10.07 26.48 4.28 -0.12 -0.66 149
0.21 -0.02 0.57 -8.07 25.12 4.28 -0.17 -0.72 155
0.14 -0.01 0.19 -5.49 25.96 4.28 -0.38 -0.75 161
0.13 -0.01 1.01 -4.26 26.05 4.28 -0.68 -0.79 167
0.10 -0.01 2.85 -1.89 25.47 4.28 -0.94 -0.82 175
0.10 -0.01 5.13 0.93 24.74 4.28 -1.11 -0.83 181
0.09 -0.00 7.08 4.17 24.25 4.28 -1.17 -0.84 187
0.06 -0.01 7.71 5.68 23.94 4.28 -0.89 -0.86 193
0.05 -0.01 8.40 8.86 18.81 4.28 -0.27 -0.92 199
0.04 -0.00 9.10 14.77 17.03 4.27 0.44 -1.20 205
0.05 -0.00 5.47 14.44 4.73 3.98 1.08 -1.83 211
0.05 -0.00 6.07 17.39 3.43 3.39 1.06 -2.32 218
0.04 -0.00 5.08 17.09 18.11 1.57 1.25 -2.56 225
0.04 -0.00 4.75 15.38 25.50 -0.36 1.75 -2.51 231
0.05 -0.01 3.28 14.07 21.54 -1.70 2.00 -2.36 237
0.04 -0.00 1.44 12.00 14.89 -2.60 1.79 -2.16 243
0.03 -0.00 0.54 10.37 11.25 -3.23 1.29 -1.86 249
0.04 0.00 0.43 8.98 10.29 -3.72 0.85 -1.56 256
0.04 -0.00 1.03 7.61 8.33 -3.99 0.53 -1.32 262
0.03 -0.00 1.47 6.19 6.89 -4.04 0.29 -1.13 268
0.03 -0.00 1.69 5.12 6.04 -4.00 0.13 -0.98 274
0.03 -0.00 1.69 4.11 5.91 -3.89 0.03 -0.85 280
0.04 0.00 1.74 3.43 5.74 -3.75 -0.00 -0.70 287
0.05 -0.01 2.14 2.96 5.99 -3.60 0.00 -0.57 293
0.05 -0.00 2.62 2.85 6.39 -3.51 0.06 -0.48 300
0.04 -0.00 2.92 2.91 6.81 -3.47 0.09 -0.42 306
0.04 -0.00 3.24 3.25 7.70 -3.50 0.20 -0.38 312
0.04 0.01 3.39 3.43 8.54 -3.59 0.37 -0.32 318
0.05 -0.00 3.31 3.48 9.52 -3.75 0.57 -0.26 324
0.04 -0.00 3.20 3.26 10.51 -3.90 0.83 -0.18 330
0.04 -0.00 3.02 3.01 11.24 -4.08 0.98 -0.08 336
0.04 -0.00 2.62 2.39 11.91 -4.19 1.19 0.01 343
0.05 -0.01 2.18 1.76 12.49 -4.26 1.33 0.11 349
0.04 -0.00 1.86 1.08 12.94 -4.28 1.42 0.20 355
0.04 -0.00 1.59 0.36 13.35 -4.28 1.48 0.27 361
0.04 -0.00 1.53 -0.34 13.64 -4.28 1.50 0.32 368
0.05 -0.01 1.39 -0.87 14.09 -4.28 1.53 0.35 374
0.04 -0.00 1.28 -1.58 14.33 -4.28 1.58 0.36 380
0.04 -0.00 1.06 -2.23 14.79 -4.28 1.66 0.35 387
0.04 -0.00 0.81 -2.85 15.09 -4.28 1.80 0.34 393
0.04 -0.00 0.72 -3.29 15.68 -4.28 1.94 0.32 399
0.04 -0.00 0.40 -3.79 16.07 -4.28 2.09 0.29 405
0.04 -0.00 0.18 -4.22 16.64 -4.27 2.20 0.26 411
0.04 -0.00 0.02 -4.51 17.77 -4.25 2.31 0.24 417
0.04 -0.00 -0.31 -4.64 17.92 -4.23 2.37 0.23 423
0.03 -0.00 -0.61 -4.91 18.68 -4.20 2.40 0.25 431
0.04 -0.00 -0.86 -5.06 19.23 -4.14 2.39 0.30 437
0.04 -0.00 -1.20 -5.33 19.68 -4.14 2.33 0.37 443
0.04 -0.00 -1.42 -5.82 20.20 -4.09 2.26 0.46 449
0.04 -0.00 -1.59 -6.29 20.42 -4.02 2.16 0.57 455
0.04 -0.00 -1.72 -6.81 20.69 -3.92 2.04 0.63 461
0.04 -0.00 -1.58 -7.44 21.04 -3.81 1.92 0.71 467
0.04 -0.00 -1.41 -8.16 21.46 -3.71 1.79 0.77 474
0.03 -0.00 -1.12 -8.90 21.47 -3.64 1.68 0.81 480
0.04 -0.00 -0.61 -9.77 21.56 -3.57 1.60 0.84 486
0.03 -0.00 -0.41 -10.97 21.34 -3.50 1.49 0.87 493
0.04 -0.00 0.01 -11.13 21.37 -3.44 1.39 0.89 499
0.03 -0.00 0.32 -12.02 21.27 -3.35 1.26 0.91 505
0.02 -0.00 0.52 -12.75 20.92 -3.26 1.13 0.94 512
0.03 0.01 0.54 -13.37 20.29 -3.16 1.01 0.97 518
0.03 -0.00 0.32 -14.15 19.27 -3.04 0.95 1.04 524
0.03 -0.00 -1.81 -18.27 21.89 -2.73 0.85 1.17 531
0.03 -0.00 0.29 -15.20 10.41 -2.50 0.91 1.31 537
0.04 -0.00 -0.42 -14.28 13.94 -2.57 0.95 1.45 543
0.03 -0.00 -1.22 -16.18 15.77 -2.62 1.08 1.63 549
0.02 -0.00 -2.52 -17.79 17.61 -2.62 1.42 1.86 556
0.04 -0.00 -3.75 -19.78 16.19 -2.59 1.75 2.01 562
0.03 -0.00 -5.23 -21.77 14.32 -2.58 1.73 2.07 569
0.04 -0.00 -6.19 -23.73 10.57 -2.57 1.50 2.07 575
0.05 -0.01 -6.61 -25.97 6.70 -2.46 1.20 2.00 581
0.04 -0.00 -6.58 -28.17 3.54 -2.23 0.96 1.85 587
0.04 -0.00 -6.71 -30.03 1.91 -1.85 0.80 1.61 593
0.04 -0.00 -6.53 -31.00 0.74 -1.29 0.71 1.25 600
0.05 -0.00 -6.43 -33.00 -3.08 -0.67 0.57 0.88 606
0.04 -0.00 -10.46 -32.80 14.83 1.33 0.43 0.43 612
0.03 -0.00 -9.51 -29.78 -1.02 1.62 0.34 0.12 619
0.05 -0.00 -8.22 -25.09 2.24 2.41 -0.27 -0.22 625
0.05 -0.00 -9.00 -22.89 2.62 2.53 -1.22 -0.48 631
0.04 0.05 -8.25 -28.89 4.56 2.76 -2.57 -0.62 637
0.03 0.14 -6.60 -21.50 -0.26 2.67 -3.73 -0.63 644
0.04 0.25 1.74 1.19 5.34 3.17 -3.77 -0.47 650
0.02 0.44 6.17 -4.44 19.64 4.06 -2.19 0.01 656
0.01 0.61 7.51 2.07 22.08 4.28 -0.65 0.49 663
0.00 0.92 -2.01 -3.23 25.22 4.28 -0.53 0.69 669
-0.01 1.13 -6.32 -6.13 31.84 4.28 -0.93 0.48 675
-0.01 1.22 -2.27 -5.37 23.60 4.17 -0.97 0.18 681
-0.00 1.34 -0.94 -4.87 20.99 3.96 -0.45 0.06 688
-0.00 1.31 -2.88 -3.32 21.43 3.58 -0.22 -0.09 694
-0.02 1.31 -1.27 -2.25 21.13 3.24 -0.44 -0.42 701
-0.02 1.26 3.26 -3.41 30.17 2.68 -1.30 -0.57 707
-0.01 1.26 3.72 -2.30 14.57 0.97 -1.22 -0.26 713
-0.01 1.30 2.21 -2.17 12.36 0.40 -0.78 0.06 719
-0.01 1.23 0.74 -1.58 10.52 0.20 -0.47 0.14 726
0.00 1.24 0.01 -0.69 10.50 0.11 -0.27 0.13 732
-0.02 1.26 -0.04 -0.70 10.33 0.05 -0.16 0.06 739
-0.01 1.31 0.49 -1.01 10.26 -0.00 -0.09 0.02 745
-0.00 1.31 0.81 -1.32 10.34 -0.03 -0.07 0.04 751
0.00 1.29 0.79 -1.06 10.15 -0.02 -0.07 0.06 757
-0.01 1.30 0.54 -0.77 10.05 -0.03 -0.06 0.05 763
-0.01 1.30 0.52 -0.72 10.12 -0.03 -0.05 0.04 770
-0.01 1.32 0.67 -0.79 9.99 -0.03 -0.04 0.03 776
-0.00 1.30 0.67 -0.75 9.94 -0.03 -0.04 0.03 782
-0.01 1.30 0.62 -0.70 10.06 -0.02 -0.03 0.03 789
-0.01 1.29 0.61 -0.61 9.96 -0.01 -0.03 0.03 795
0.00 1.20 0.64 -0.66 9.96 -0.01 -0.02 0.03 801
0.00 1.13 0.57 -0.63 9.93 -0.01 -0.02 0.03 807
-0.00 1.07 0.53 -0.70 9.85 0.00 -0.00 0.03 814
0.01 1.02 0.63 -0.72 10.08 -0.00 -0.00 0.04 820
0.04 0.93 0.66 -0.75 10.08 0.00 -0.00 0.04 826
0.03 0.92 0.65 -0.75 10.05 0.01 -0.00 0.04 832
0.04 0.86 0.65 -0.71 10.08 0.01 0.00 0.04 838
0.06 0.78 0.64 -0.74 10.04 0.02 0.01 0.05 845
0.06 0.70 0.63 -0.73 10.04 0.03 0.01 0.04 851
0.06 0.66 0.67 -0.71 9.98 0.03 0.02 0.04 858
0.08 0.60 0.66 -0.75 9.98 0.03 0.02 0.04 864
0.10 0.58 0.74 -0.75 10.00 0.03 0.03 0.04 870
0.11 0.52 0.70 -0.74 9.97 0.03 0.03 0.04 876
0.10 0.51 0.72 -0.77 9.94 0.04 0.03 0.03 882
0.11 0.39 0.72 -0.77 9.98 0.04 0.03 0.03 888
0.11 0.32 0.71 -0.80 10.02 0.04 0.03 0.02 894
0.11 0.32 0.76 -0.76 9.98 0.04 0.04 0.02 901
0.11 0.27 0.73 -0.74 9.99 0.04 0.03 0.02 907
0.11 0.25 0.73 -0.77 10.01 0.03 0.03 0.02 914
0.11 0.22 0.72 -0.75 9.95 0.03 0.03 0.02 920
0.14 0.20 0.72 -0.80 9.99 0.04 0.03 0.02 926
0.14 0.16 0.72 -0.80 10.00 0.03 0.03 0.03 932
0.13 0.12 0.75 -0.80 10.02 0.03 0.04 0.03 939
0.12 0.13 0.76 -0.81 10.02 0.03 0.04 0.02 945
0.14 0.07 0.77 -0.80 10.04 0.03 0.04 0.02 951
0.14 0.06 0.76 -0.79 9.95 0.03 0.04 0.02 957
0.14 0.04 0.82 -0.76 9.92 0.03 0.03 0.02 963
0.14 0.04 0.79 -0.80 10.02 0.02 0.03 0.02 969
0.15 0.06 0.79 -0.83 9.94 0.02 0.03 0.02 976
0.16 0.04 0.76 -0.83 9.97 0.03 0.03 0.02 983
0.14 0.01 0.86 -0.89 9.90 0.02 0.02 0.01 989
0.13 0.01 0.78 -0.76 10.07 0.02 0.02 0.01 995
0.15 0.01 0.92 -0.85 9.95 0.02 0.02 0.01 1001
0.18 -0.01 0.83 -0.84 9.90 0.01 0.01 0.01 1007
0.17 0.02 0.79 -0.86 9.95 0.02 0.01 0.01 1013
0.17 -0.00 0.82 -0.86 10.01 0.02 0.01 0.01 1019
0.19 0.00 0.76 -0.84 10.01 0.02 0.00 0.01 1026
0.21 -0.02 0.83 -0.70 9.98 0.02 -0.00 0.01 1032
0.22 -0.02 0.90 -0.81 9.91 0.03 -0.00 0.01 1039
0.22 -0.01 0.79 -0.87 9.95 0.03 -0.01 0.01 1045
0.24 -0.02 0.87 -0.88 9.99 0.03 -0.01 0.00 1051
0.19 -0.02 0.86 -0.86 9.96 0.03 -0.02 0.00 1057
0.20 -0.02 0.87 -0.87 9.96 0.02 -0.02 -0.00 1063
0.22 -0.02 0.82 -0.90 9.95 0.03 -0.02 -0.01 1070
0.27 -0.01 0.85 -0.88 9.98 0.03 -0.02 -0.01 1076
0.30 -0.03 0.87 -0.83 10.01 0.04 -0.02 -0.01 1082
0.35 -0.04 0.85 -0.87 10.06 0.05 -0.02 -0.01 1088
0.37 -0.03 0.88 -0.89 10.07 0.08 -0.01 -0.02 1095
0.42 -0.03 0.83 -0.91 10.10 0.10 -0.01 -0.02 1101
0.47 -0.04 0.87 -0.96 10.08 0.13 0.01 -0.03 1107
0.49 -0.03 0.87 -0.96 10.17 0.17 0.03 -0.03 1114
0.54 -0.04 0.89 -1.03 10.22 0.23 0.07 -0.04 1120
0.57 -0.05 0.93 -1.00 10.36 0.32 0.11 -0.04 1127
0.59 -0.03 0.97 -1.09 10.46 0.44 0.17 -0.05 1133
0.65 -0.04 0.96 -1.07 10.74 0.57 0.22 -0.06 1139
0.69 -0.05 0.96 -1.17 11.43 0.77 0.26 -0.09 1145
0.72 -0.03 1.08 -1.23 11.60 1.03 0.28 -0.11 1152
0.80 -0.04 1.29 -1.36 11.60 1.29 0.23 -0.13 1159
0.86 -0.05 1.32 -1.46 12.63 1.52 0.11 -0.16 1165
0.94 -0.05 1.76 -1.60 12.65 1.71 0.06 -0.19 1171
0.96 -0.05 1.28 -1.54 13.24 1.93 -0.04 -0.21 1177
0.99 -0.05 1.14 -2.34 13.46 2.12 -0.17 -0.21 1184
1.07 -0.05 1.77 -1.24 14.20 2.26 -0.28 -0.25 1190
1.11 -0.07 1.21 -1.96 13.36 2.47 -0.33 -0.20 1197
1.14 -0.05 0.99 -2.10 12.57 2.64 -0.36 -0.19 1203
1.17 -0.04 0.86 -2.21 13.42 2.83 -0.38 -0.19 1209
1.09 -0.05 0.90 -2.17 13.15 3.03 -0.36 -0.18 1216
1.11 -0.04 0.94 -2.42 13.56 3.25 -0.33 -0.19 1222
1.08 -0.05 1.04 -2.24 13.55 3.51 -0.27 -0.20 1228
1.05 -0.04 1.23 -2.66 14.09 3.82 -0.16 -0.21 1234
1.02 -0.04 0.79 -2.66 14.50 4.11 -0.02 -0.21 1242
0.94 -0.06 0.56 -3.08 16.04 4.27 0.08 -0.22 1248
0.84 -0.04 0.71 -3.54 17.50 4.28 0.05 -0.19 1254
0.72 -0.04 1.12 -3.88 19.12 4.28 0.11 -0.17 1260
0.57 -0.03 2.05 -4.88 19.88 4.28 0.04 -0.22 1266
0.47 -0.01 1.99 -8.17 22.13 4.28 -0.04 -0.32 1273
0.41 -0.02 3.42 -9.56 25.11 4.28 -0.06 -0.39 1280
0.39 -0.03 2.19 -11.27 29.39 4.28 0.06 -0.35 1286
0.37 -0.02 3.16 -13.23 31.71 4.28 0.28 -0.33 1292
0.28 -0.02 3.13 -12.81 30.95 4.28 0.51 -0.30 1299
0.23 -0.02 1.85 -11.46 29.73 4.28 0.67 -0.33 1305
0.18 -0.01 0.77 -10.29 28.54 4.28 0.68 -0.35 1311
0.14 -0.01 0.23 -8.22 29.37 4.28 0.52 -0.43 1317
0.14 -0.01 1.00 -5.84 31.38 4.28 0.32 -0.51 1325
0.11 -0.01 3.02 -2.66 31.13 4.28 0.04 -0.57 1331
0.09 -0.01 4.42 0.59 29.82 4.28 -0.31 -0.67 1337
0.07 -0.01 6.01 4.47 30.77 4.28 -0.51 -0.71 1343
0.06 -0.01 7.33 9.41 29.78 4.28 -0.31 -0.70 1349
0.03 -0.00 8.78 15.82 20.46 4.28 0.26 -0.68 1355
0.05 -0.00 9.49 21.23 18.46 4.28 0.98 -0.93 1362
0.05 -0.01 4.74 21.58 1.34 3.76 1.44 -1.58 1369
0.05 -0.00 4.67 22.70 5.87 2.52 0.92 -2.20 1375
0.05 -0.00 4.17 18.69 25.25 0.46 1.12 -2.31 1381
0.04 -0.00 4.53 16.69 29.13 -1.22 1.61 -2.12 1387
0.03 -0.00 2.50 15.46 22.02 -2.54 1.56 -1.97 1394
0.05 -0.01 0.43 14.24 13.18 -3.32 1.05 -1.79 1400
0.04 -0.00 -1.08 12.65 13.20 -3.93 0.53 -1.54 1406
0.04 -0.00 -0.27 10.63 11.51 -4.25 0.14 -1.31 1413
0.05 -0.01 0.59 8.45 9.85 -4.28 -0.22 -1.16 1419
0.04 -0.00 1.35 6.99 8.85 -4.28 -0.53 -1.10 1425
0.04 -0.00 1.74 5.51 8.12 -4.28 -0.76 -1.04 1432
0.02 0.00 1.80 4.48 7.74 -4.28 -0.88 -1.01 1438
0.04 -0.00 2.56 3.55 7.44 -4.28 -0.93 -0.99 1444
0.05 -0.01 3.14 2.79 7.86 -4.28 -0.91 -0.99 1451
0.06 -0.01 3.88 2.27 7.83 -4.28 -0.78 -1.01 1457
0.06 -0.01 4.35 1.97 8.23 -4.28 -0.64 -1.03 1463
0.05 -0.01 4.51 1.95 8.73 -4.28 -0.43 -1.04 1469
0.03 -0.00 4.68 1.99 9.07 -4.28 -0.18 -1.03 1475
0.04 -0.00 4.53 1.95 9.90 -4.28 0.09 -0.98 1482
0.06 -0.01 4.29 1.78 10.73 -4.28 0.36 -0.92 1488
0.04 -0.00 4.04 1.17 11.20 -4.28 0.59 -0.84 1495
0.03 -0.00 3.92 0.41 11.70 -4.28 0.76 -0.76 1501
0.03 -0.00 3.19 -0.23 12.68 -4.28 0.90 -0.67 1507
0.03 -0.00 3.37 -0.95 13.60 -4.28 0.97 -0.57 1513
0.02 -0.00 3.24 -1.93 14.08 -4.28 1.06 -0.49 1519
0.03 -0.00 3.10 -2.77 14.19 -4.28 1.17 -0.39 1526
0.03 -0.00 3.06 -3.38 14.41 -4.28 1.27 -0.30 1532
0.02 -0.00 2.88 -3.89 14.59 -4.28 1.38 -0.23 1539
0.02 -0.00 2.94 -4.51 14.95 -4.28 1.51 -0.18 1545
0.04 -0.00 2.73 -5.25 15.53 -4.28 1.66 -0.14 1551
0.04 -0.00 2.48 -5.95 16.31 -4.28 1.83 -0.12 1557
0.03 -0.00 2.12 -6.33 16.75 -4.27 1.94 -0.11 1564
0.04 -0.00 1.78 -6.51 17.24 -4.23 2.03 -0.08 1570
0.03 -0.00 1.41 -6.63 17.35 -4.17 2.00 -0.02 1576
0.03 -0.00 1.16 -6.69 17.57 -4.07 1.97 0.04 1583
0.05 -0.01 0.87 -6.61 18.21 -3.94 1.92 0.15 1589
0.04 -0.00 0.89 -6.81 19.11 -3.79 1.90 0.27 1595
0.02 -0.00 0.94 -6.82 20.09 -3.67 1.90 0.42 1602
0.04 0.00 0.78 -6.86 21.09 -3.59 1.95 0.58 1608
0.03 -0.00 0.65 -6.99 22.01 -3.56 2.01 0.75 1614
0.03 -0.00 0.50 -7.19 22.84 -3.57 2.05 0.93 1620
0.04 -0.00 0.23 -7.57 23.29 -3.62 2.08 1.12 1627
0.04 -0.00 0.02 -7.93 23.01 -3.70 2.04 1.31 1633
0.04 -0.00 -0.37 -9.19 22.79 -3.77 1.96 1.51 1640
0.04 -0.00 -0.63 -9.55 22.53 -3.81 1.82 1.67 1646
0.04 -0.00 -0.77 -10.61 22.05 -3.80 1.61 1.83 1652
0.03 -0.00 -0.82 -11.73 21.56 -3.72 1.40 1.94 1658
0.03 -0.00 -0.80 -13.13 21.17 -3.59 1.17 2.01 1665
0.04 -0.00 -3.85 -21.77 29.65 -2.99 0.74 2.07 1672
0.03 -0.00 -0.39 -12.08 16.34 -2.61 0.65 2.07 1678
0.03 0.01 -1.77 -15.09 11.28 -2.96 0.38 1.98 1684
0.04 -0.00 -1.49 -20.51 16.70 -3.07 0.29 1.93 1690
0.03 -0.00 -2.03 -19.48 18.47 -3.05 0.59 1.94 1696
0.03 -0.00 -2.79 -22.32 17.84 -2.92 0.95 1.85 1703
0.03 -0.00 -3.47 -25.38 15.80 -2.82 1.11 1.68 1710
0.03 -0.00 -4.30 -27.08 11.64 -2.63 1.16 1.52 1716
0.05 -0.01 -4.84 -28.68 7.52 -2.37 1.21 1.36 1722
0.03 -0.00 -5.15 -30.69 4.21 -2.05 1.25 1.19 1728
0.03 -0.00 -5.90 -32.33 2.50 -1.66 1.23 0.96 1735
0.05 -0.00 -6.54 -33.04 1.89 -1.19 1.16 0.67 1741
0.03 -0.00 -6.80 -32.54 2.30 -0.70 0.99 0.43 1747
0.02 -0.00 -7.09 -37.52 -0.40 -0.21 0.69 0.13 1754
0.03 0.01 -7.24 -34.27 16.26 1.99 0.43 -0.02 1760
0.03 -0.00 -8.27 -31.20 2.39 2.02 0.16 -0.11 1766
0.02 -0.00 -7.70 -27.13 2.45 2.83 -0.52 -0.22 1773
0.03 0.03 -4.79 -33.41 0.07 2.84 -1.70 -0.26 1779
0.02 0.11 -5.60 -21.79 -3.96 2.85 -3.07 -0.34 1785
0.01 0.22 0.67 1.55 5.37 3.38 -3.13 -0.28 1792
0.03 0.44 5.84 -0.57 21.84 4.12 -1.63 0.15 1798
0.01 0.70 8.11 1.56 20.82 4.28 -0.50 0.67 1805
-0.02 0.90 -1.60 -4.90 26.12 4.28 -0.61 0.82 1811
-0.00 1.15 -6.42 -6.55 31.86 4.28 -0.95 0.63 1817
-0.01 1.25 -1.90 -5.62 23.58 4.27 -0.98 0.38 1823
-0.00 1.38 -1.45 -4.74 22.85 4.21 -0.43 0.28 1830
-0.01 1.41 -4.40 -2.80 21.59 3.97 -0.09 0.04 1837
-0.02 1.41 -2.96 -2.00 20.69 3.60 -0.23 -0.41 1843
-0.02 1.33 4.04 -4.57 36.40 2.97 -1.09 -0.59 1849
-0.02 1.34 4.55 -2.60 13.23 0.81 -1.35 -0.29 1856
-0.02 1.31 2.13 -2.68 12.53 0.33 -0.70 0.07 1862
-0.01 1.31 0.45 -1.56 10.98 0.15 -0.37 0.16 1868
-0.02 1.32 -0.01 -0.18 10.38 0.09 -0.22 0.13 1874
-0.01 1.30 0.46 -0.37 10.31 0.06 -0.17 0.06 1881
-0.03 1.28 0.76 -1.05 10.13 0.00 -0.09 0.02 1888
-0.01 1.30 1.01 -1.25 10.12 -0.01 -0.08 0.04 1894
-0.02 1.29 0.68 -0.93 10.20 -0.02 -0.08 0.05 1900
-0.01 1.30 0.50 -0.63 10.09 -0.02 -0.08 0.04 1906
-0.02 1.29 0.61 -0.74 10.11 -0.03 -0.07 0.03 1912
-0.01 1.32 0.72 -0.72 9.97 -0.02 -0.07 0.04 1920
-0.02 1.32 0.69 -0.61 9.96 -0.02 -0.06 0.04 1926
-0.01 1.27 0.67 -0.56 9.94 -0.01 -0.06 0.04 1932
-0.00 1.22 0.70 -0.60 9.82 0.00 -0.05 0.03 1938
0.00 1.15 0.74 -0.55 9.98 0.01 -0.06 0.03 1944
-0.01 1.09 0.78 -0.67 9.98 0.01 -0.06 0.02 1950
-0.02 1.05 0.64 -0.64 9.97 0.02 -0.06 0.03 1956
-0.02 1.01 0.82 -0.57 10.18 0.02 -0.06 0.03 1964
-0.00 0.97 0.40 -0.60 10.04 0.02 -0.07 0.04 1970
0.00 0.88 0.71 -0.60 10.08 0.02 -0.07 0.03 1976
0.00 0.85 0.68 -0.65 10.07 0.02 -0.07 0.04 1982
0.02 0.74 0.64 -0.67 9.98 0.02 -0.06 0.03 1988
0.03 0.65 0.68 -0.04 10.03 0.03 -0.05 0.07 1994
0.04 0.62 0.64 -0.60 9.98 0.03 -0.04 0.03 2001
0.06 0.58 0.64 -0.55 10.03 0.03 -0.04 0.04 2008
0.05 0.48 0.63 -0.71 10.00 0.03 -0.04 0.03 2014
0.05 0.43 0.68 -0.64 10.00 0.04 -0.03 0.04 2020
0.07 0.41 0.72 -0.63 9.98 0.04 -0.03 0.03 2026
0.07 0.34 1.07 -1.09 10.15 0.04 -0.04 0.03 2032
0.08 0.31 0.73 -0.66 9.95 0.04 -0.03 0.03 2039
0.11 0.29 0.68 -0.75 10.00 0.04 -0.07 0.02 2045
0.11 0.20 0.68 -0.71 9.94 0.04 -0.04 0.01 2052
0.10 0.18 0.65 -0.70 9.99 0.04 -0.04 0.01 2058
0.12 0.16 0.69 -0.73 9.99 0.04 -0.04 0.02 2064
0.13 0.16 0.59 -0.70 10.03 0.04 -0.03 0.01 2070
0.15 0.09 0.68 -0.71 10.01 0.04 -0.03 0.02 2076
0.15 0.08 0.63 -0.74 10.01 0.04 -0.02 0.02 2083
0.15 0.07 0.69 -0.74 10.03 0.03 -0.02 0.02 2089
0.17 0.04 0.67 -0.70 10.06 0.00 -0.02 0.02 2096
0.17 0.05 0.72 -0.87 9.93 0.03 -0.02 0.02 2102
0.16 0.04 0.40 -0.69 10.00 0.03 -0.02 0.01 2108
0.15 0.03 0.71 -0.08 9.93 0.04 -0.02 0.01 2114
0.17 0.03 0.72 -1.05 10.17 0.04 -0.02 0.01 2121
0.21 0.02 0.71 -0.64 10.06 0.03 -0.02 0.01 2127
0.21 0.00 0.80 -0.71 9.98 0.04 -0.03 -0.00 2134
0.24 0.00 0.56 -0.86 9.81 0.04 -0.04 -0.00 2140
0.28 -0.00 0.83 -0.85 9.94 0.04 -0.03 -0.01 2146
0.29 -0.02 0.73 -0.85 10.10 0.04 -0.04 -0.01 2152
0.35 -0.03 0.62 -0.83 9.93 0.04 -0.04 -0.01 2158
0.39 -0.02 0.67 -0.85 9.89 0.05 -0.04 -0.01 2165
0.46 -0.04 0.68 -0.95 9.99 0.06 -0.04 -0.02 2171
0.50 -0.03 0.68 -0.75 10.02 0.07 -0.04 -0.02 2178
0.55 -0.04 0.68 -0.75 10.08 0.09 -0.03 -0.02 2184
0.65 -0.04 0.67 -0.83 10.15 0.11 -0.03 -0.03 2190
0.65 -0.05 0.81 -0.84 10.19 0.15 -0.03 -0.03 2197
0.73 -0.05 0.73 -0.93 10.18 0.19 -0.03 -0.04 2203
0.83 -0.04 0.79 -0.85 10.21 0.23 -0.03 -0.05 2209
0.90 -0.07 0.79 -1.08 10.34 0.29 -0.03 -0.05 2215
0.97 -0.05 0.73 -0.99 10.35 0.38 -0.03 -0.06 2222
1.07 -0.06 0.84 -1.02 10.73 0.47 -0.03 -0.07 2229
1.16 -0.06 0.92 -1.10 11.07 0.67 -0.03 -0.08 2235
1.21 -0.05 1.02 -1.20 11.35 0.87 -0.03 -0.11 2241
1.27 -0.05 1.04 -1.32 11.68 1.14 -0.06 -0.14 2247
1.34 -0.07 1.16 -1.42 11.93 1.38 -0.11 -0.17 2254
1.42 -0.07 1.06 -1.48 12.45 1.56 -0.18 -0.19 2260
1.47 -0.06 0.92 -1.52 12.52 1.71 -0.30 -0.18 2267
1.54 -0.06 0.83 -2.12 13.06 1.87 -0.36 -0.18 2273
1.61 -0.07 0.69 -1.65 12.99 2.03 -0.40 -0.17 2279
1.66 -0.07 0.58 -1.71 13.60 2.21 -0.44 -0.14 2286
1.74 -0.06 0.49 -1.77 13.13 2.39 -0.49 -0.12 2292
1.74 -0.06 0.48 -1.91 13.27 2.56 -0.52 -0.11 2298
1.79 -0.07 0.63 -2.83 13.04 2.73 -0.53 -0.10 2305
1.81 -0.07 0.57 -2.12 13.78 2.91 -0.53 -0.10 2312
1.83 -0.07 0.55 -2.26 14.36 3.16 -0.52 -0.10 2318
1.76 -0.04 0.71 -2.47 14.65 3.46 -0.51 -0.12 2324
1.76 -0.05 0.49 -2.77 15.14 3.78 -0.50 -0.15 2330
1.66 -0.06 0.76 -2.60 15.91 4.09 -0.48 -0.18 2337
1.61 -0.06 0.87 -2.77 16.71 4.27 -0.43 -0.21 2343
1.47 -0.06 1.36 -3.05 17.89 4.28 -0.41 -0.24 2350
1.34 -0.05 1.47 -4.52 18.34 4.28 -0.60 -0.35 2356
1.17 -0.04 3.45 -4.71 19.86 4.28 -0.82 -0.51 2362
0.97 -0.06 2.83 -5.38 20.37 4.28 -1.09 -0.70 2369
0.89 -0.03 2.84 -8.88 25.22 4.28 -1.34 -0.84 2375
0.72 -0.03 2.41 -11.69 29.69 4.28 -1.48 -0.91 2381
0.63 -0.03 1.73 -14.04 35.44 4.28 -1.41 -0.93 2388
0.51 -0.04 2.86 -15.30 35.23 4.28 -1.20 -0.88 2395
0.39 -0.03 2.39 -13.86 30.75 4.28 -1.02 -0.91 2401
0.31 -0.02 1.94 -10.76 30.02 4.28 -0.81 -0.95 2407
0.21 -0.02 1.44 -6.73 29.69 4.28 -0.71 -0.99 2414
0.14 -0.01 0.96 -3.53 30.51 4.28 -0.89 -1.03 2420
0.10 -0.01 2.47 -0.74 31.59 4.28 -1.30 -1.01 2426
0.10 -0.01 5.81 3.02 30.93 4.28 -1.69 -0.99 2433
0.08 -0.01 8.72 7.13 30.40 4.28 -1.89 -0.99 2439
0.07 -0.01 10.58 10.03 29.42 4.28 -1.78 -0.99 2445
0.04 -0.00 10.69 12.95 23.04 4.28 -1.17 -1.07 2452
0.05 -0.01 9.16 15.51 17.32 4.28 -0.28 -1.49 2458
0.05 -0.00 8.87 20.10 3.13 4.25 0.09 -1.93 2464
0.06 -0.01 10.19 24.84 12.74 2.72 0.12 -2.24 2470
0.06 -0.01 6.69 23.85 28.19 -0.02 0.82 -2.23 2478
0.06 -0.01 6.80 18.88 28.16 -1.85 1.50 -1.95 2484
0.05 -0.00 4.30 14.66 19.60 -3.02 1.41 -1.74 2490
0.06 -0.01 2.54 12.79 17.77 -3.72 0.88 -1.45 2496
0.05 -0.00 1.56 11.81 13.19 -4.14 0.38 -1.18 2502
0.05 -0.01 2.47 10.27 10.47 -4.25 0.04 -1.00 2509
0.05 -0.01 3.47 8.63 8.56 -4.27 -0.19 -0.89 2515
0.04 -0.00 4.31 7.10 7.53 -4.26 -0.27 -0.82 2522
0.03 -0.00 4.55 5.97 7.13 -4.24 -0.19 -0.75 2528
0.05 -0.00 4.84 5.21 6.91 -4.21 0.02 -0.70 2534
0.05 -0.01 4.99 4.54 7.19 -4.18 0.23 -0.67 2540
0.06 -0.01 5.13 4.12 7.64 -4.17 0.50 -0.66 2546
0.05 -0.01 5.07 3.53 8.09 -4.19 0.78 -0.65 2553
0.06 -0.01 4.78 3.19 8.68 -4.22 1.03 -0.63 2560
0.05 -0.00 4.61 2.93 9.82 -4.26 1.25 -0.57 2566
0.06 -0.01 4.23 2.72 11.07 -4.28 1.44 -0.49 2572
0.06 -0.00 3.88 2.41 11.69 -4.28 1.60 -0.36 2578
0.06 -0.01 3.52 1.91 12.37 -4.28 1.71 -0.21 2584
0.05 -0.00 3.22 1.10 12.97 -4.28 1.82 -0.03 2590
0.05 0.00 2.89 0.32 13.34 -4.28 1.86 0.14 2597
0.05 -0.00 2.61 -0.59 13.77 -4.28 1.88 0.32 2604
0.04 -0.00 2.56 -1.46 14.56 -4.28 1.86 0.45 2610
0.05 -0.00 2.57 -2.28 14.16 -4.28 1.83 0.59 2616
0.05 -0.01 2.39 -3.01 14.59 -4.28 1.82 0.70 2622
0.05 -0.00 2.20 -3.66 14.92 -4.28 1.83 0.77 2628
0.04 -0.00 2.15 -4.33 15.37 -4.28 1.87 0.82 2635
0.06 -0.00 2.02 -4.96 16.26 -4.28 1.93 0.83 2641
0.04 -0.00 1.65 -5.59 17.06 -4.28 2.03 0.81 2648
0.04 -0.00 0.68 -5.76 16.84 -4.28 2.12 0.77 2654
0.05 -0.01 1.52 -6.47 18.26 -4.27 2.21 0.72 2660
0.05 -0.00 0.91 -6.50 18.87 -4.25 2.27 0.68 2667
0.03 -0.00 0.65 -6.67 20.02 -4.22 2.28 0.65 2673
0.04 0.01 0.47 -6.74 20.67 -4.18 2.26 0.66 2679
0.05 -0.00 0.33 -6.90 21.18 -4.14 2.20 0.69 2685
0.04 -0.00 0.41 -7.19 22.01 -4.10 2.12 0.73 2692
0.05 0.00 0.81 -7.49 22.61 -4.06 2.05 0.79 2698
0.05 -0.00 1.10 -7.88 23.37 -4.04 2.00 0.87 2705
0.04 -0.00 1.45 -8.54 24.13 -4.02 1.97 0.97 2711
0.05 0.00 1.74 -9.48 24.44 -4.02 1.94 1.09 2717
0.04 -0.00 1.87 -10.57 24.42 -4.01 1.92 1.22 2723
0.03 -0.00 2.01 -11.84 23.80 -3.98 1.87 1.35 2729
0.04 -0.00 2.04 -13.37 22.98 -3.91 1.80 1.49 2736
0.05 -0.00 1.89 -14.03 22.31 -3.78 1.75 1.59 2743
0.02 -0.00 -4.93 -28.13 62.39 -3.14 1.41 1.79 2749
0.04 -0.00 5.50 -10.21 -1.15 -2.31 1.63 1.92 2755
0.03 -0.00 -0.38 -14.98 10.60 -2.96 1.38 1.82 2761
0.03 -0.00 -3.45 -19.36 36.47 -2.74 1.25 1.82 2768
0.06 -0.01 -4.24 -19.33 21.02 -3.09 1.53 1.91 2775
0.04 -0.00 -2.87 -20.69 17.12 -3.12 1.92 1.89 2781
0.04 -0.00 -3.77 -24.56 21.00 -2.98 2.03 1.80 2787
0.05 -0.00 -5.61 -26.95 18.10 -2.87 1.90 1.69 2793
0.04 -0.00 -6.39 -28.11 13.33 -2.70 1.75 1.53 2800
0.05 -0.00 -6.60 -30.05 8.24 -2.56 1.57 1.31 2806
0.05 -0.00 -6.67 -33.01 4.39 -2.35 1.40 1.03 2812
0.04 -0.00 -7.14 -35.60 2.29 -2.05 1.31 0.70 2819
0.04 -0.00 -7.43 -36.77 0.95 -1.55 1.29 0.36 2825
0.04 -0.00 -7.99 -35.60 0.88 -0.94 1.22 0.03 2831
0.04 -0.00 -8.57 -33.89 1.25 -0.33 1.08 -0.21 2838
0.04 -0.00 -22.70 -45.77 41.70 1.42 -0.17 -0.17 2844
0.05 -0.01 -10.87 -29.37 -0.53 2.41 -0.50 0.01 2850
0.04 -0.00 -15.62 -27.22 2.07 2.86 -1.98 0.07 2856
0.05 0.05 -10.25 -29.62 1.20 3.01 -3.33 0.24 2864
0.04 0.12 -3.62 -21.59 -3.14 2.89 -4.28 0.25 2870
0.03 0.30 1.16 3.24 7.29 3.28 -4.09 0.44 2876
0.03 0.51 5.09 2.50 23.08 4.18 -1.45 1.10 2882
0.01 0.83 1.93 0.99 20.33 4.28 -0.33 1.56 2888
-0.02 1.13 -11.42 -6.22 29.91 4.28 -0.82 1.33 2895
-0.00 1.35 -11.10 -8.46 29.78 4.28 -1.16 0.76 2902
-0.02 1.45 -4.70 -5.94 23.75 4.28 -0.69 0.38 2908
-0.01 1.53 -5.54 -4.04 25.47 4.21 -0.18 0.05 2914
-0.03 1.58 -3.63 -2.53 22.25 3.77 -0.24 -0.47 2921
-0.03 1.58 2.73 -2.73 21.05 3.47 -0.51 -0.78 2927
-0.01 1.54 4.83 -3.00 29.78 2.27 -1.93 -0.61 2933
-0.01 1.49 4.26 -3.01 13.10 0.82 -1.52 -0.06 2939
-0.00 1.46 0.66 -2.55 12.42 0.38 -0.89 0.20 2947
-0.01 1.43 -0.51 -0.91 11.62 0.17 -0.45 0.22 2953
-0.02 1.38 -0.44 -0.25 10.59 0.10 -0.25 0.10 2959
0.01 1.38 0.33 -0.94 10.19 0.04 -0.15 0.02 2965
-0.00 1.36 1.01 -1.23 10.04 0.00 -0.12 0.03 2971
-0.01 1.38 0.97 -1.02 10.11 0.00 -0.11 0.06 2978
0.01 1.39 0.46 -0.74 10.11 -0.00 -0.11 0.05 2984
-0.02 1.38 0.45 -0.68 10.08 -0.01 -0.09 0.03 2991
-0.02 1.35 0.60 -0.71 9.95 -0.01 -0.08 0.03 2997
-0.02 1.33 0.65 -0.68 10.00 -0.01 -0.07 0.03 3003
-0.01 1.28 0.70 -0.53 9.86 -0.00 -0.06 0.03 3010
-0.01 1.20 0.62 -0.62 10.06 0.01 -0.06 0.03 3016
0.02 1.18 0.63 -0.67 10.01 0.01 -0.06 0.03 3022
0.01 1.13 0.60 -0.60 10.07 0.01 -0.05 0.03 3028
0.02 1.08 0.53 -0.58 10.03 0.01 -0.05 0.03 3035
0.04 1.01 0.61 -0.62 10.09 0.02 -0.04 0.03 3041
0.05 0.91 0.69 -0.63 10.07 0.03 -0.04 0.03 3048
0.04 0.78 0.59 -0.64 10.05 0.03 -0.03 0.03 3054
0.06 0.74 0.65 -0.68 10.00 0.04 -0.03 0.03 3060
0.08 0.65 0.62 -0.68 10.08 0.04 -0.02 0.04 3066
0.07 0.61 0.71 -0.67 10.11 0.04 -0.02 0.04 3073
0.10 0.52 0.48 -0.60 9.97 0.04 -0.02 0.04 3080
0.11 0.53 0.67 -0.71 10.00 0.05 -0.02 0.04 3086
0.12 0.44 0.65 -0.72 10.00 0.05 -0.01 0.03 3092
0.15 0.39 0.64 -0.70 10.04 0.05 -0.01 0.03 3098
0.14 0.36 0.69 -0.76 10.00 0.04 -0.01 0.02 3104
0.14 0.26 0.71 -0.72 9.98 0.04 -0.01 0.02 3110
0.16 0.23 0.75 -0.72 10.04 0.04 -0.01 0.01 3118
0.16 0.19 0.71 -0.70 10.02 0.04 -0.01 0.01 3124
0.16 0.18 0.73 -0.70 9.95 0.03 -0.02 0.01 3130
0.17 0.16 0.74 -0.74 10.00 0.03 -0.03 0.00 3136
0.20 0.10 0.79 -0.68 10.05 0.03 -0.03 -0.00 3142
0.20 0.08 0.68 -0.77 9.98 0.03 -0.03 -0.00 3148
0.22 0.07 0.67 -0.72 10.04 0.03 -0.03 0.01 3155
0.22 0.05 0.69 -0.78 10.02 0.04 -0.03 0.01 3162
0.22 0.06 0.68 -0.77 9.98 0.00 -0.03 0.01 3168
0.23 0.05 0.71 -0.80 9.98 0.04 -0.03 0.01 3174
0.24 0.04 0.70 -0.80 9.98 0.04 -0.02 0.01 3180
0.25 0.08 0.89 -0.91 10.12 0.04 -0.03 0.01 3186
0.27 0.01 0.73 -0.77 9.76 0.04 -0.02 0.00 3192
0.25 0.01 0.78 -0.78 10.08 0.04 -0.03 -0.01 3200
0.32 -0.01 0.69 -0.69 9.91 0.04 -0.03 -0.01 3206
0.33 -0.02 0.69 -0.74 10.01 0.04 -0.04 -0.01 3212
0.35 -0.02 0.71 -0.82 9.94 0.04 -0.03 -0.02 3218
0.38 -0.01 0.74 -0.85 9.98 0.03 -0.03 -0.02 3224
0.39 -0.02 0.73 -0.73 9.98 0.03 -0.03 -0.02 3230
0.41 -0.02 0.71 -0.84 9.93 0.04 -0.03 -0.03 3237
0.44 -0.01 0.69 -0.84 9.91 0.03 -0.03 -0.03 3244
0.48 -0.03 0.72 -0.82 9.97 0.03 -0.04 -0.03 3250
0.54 -0.05 0.72 -0.83 9.97 0.04 -0.04 -0.03 3256
0.62 -0.04 0.69 -0.80 10.01 0.05 -0.03 -0.03 3262
0.67 -0.04 0.68 -0.81 10.07 0.06 -0.03 -0.03 3268
0.72 -0.06 0.65 -0.78 10.08 0.08 -0.03 -0.02 3275
0.79 -0.05 0.73 -0.86 10.12 0.11 -0.02 -0.02 3281
0.87 -0.05 0.70 -0.88 10.22 0.15 -0.02 -0.02 3288
0.91 -0.06 0.67 -0.91 10.28 0.21 -0.01 -0.03 3294
0.98 -0.04 0.72 -0.99 10.35 0.27 -0.01 -0.03 3300
1.06 -0.06 0.72 -1.00 10.57 0.37 0.00 -0.03 3306
1.14 -0.06 0.84 -1.05 10.77 0.49 0.02 -0.05 3313
1.17 -0.04 0.92 -1.21 11.02 0.68 0.03 -0.06 3319
1.25 -0.06 1.15 -1.82 11.38 0.94 0.03 -0.09 3325
1.34 -0.06 1.18 -1.29 11.83 1.21 0.02 -0.13 3332
1.46 -0.05 1.12 -1.37 12.15 1.45 -0.01 -0.15 3339
1.49 -0.07 0.97 -1.39 12.64 1.63 -0.09 -0.16 3345
1.53 -0.07 0.91 -1.54 13.42 1.77 -0.20 -0.16 3351
1.60 -0.06 0.72 -1.76 13.23 1.93 -0.30 -0.15 3357
1.61 -0.07 0.60 -1.64 13.36 2.11 -0.35 -0.14 3363
1.68 -0.06 0.44 -1.62 13.48 2.31 -0.38 -0.12 3371
1.76 -0.07 0.64 -1.83 13.53 2.53 -0.40 -0.09 3377
1.74 -0.06 0.45 -2.72 12.96 2.70 -0.41 -0.09 3383
1.78 -0.08 1.72 -1.62 14.77 2.93 -0.42 -0.11 3389
1.75 -0.07 0.76 -2.28 14.29 3.23 -0.39 -0.10 3396
1.73 -0.08 0.87 -2.31 14.32 3.55 -0.36 -0.12 3402
1.71 -0.08 1.30 -2.41 14.84 3.90 -0.32 -0.16 3408
1.61 -0.07 1.32 -2.43 15.48 4.18 -0.30 -0.20 3415
1.50 -0.05 1.40 -2.71 15.44 4.28 -0.28 -0.25 3422
1.42 -0.07 0.84 -2.87 16.43 4.28 -0.27 -0.30 3428
1.27 -0.05 0.90 -2.96 18.27 4.28 -0.30 -0.33 3434
1.15 -0.04 2.28 -4.29 20.08 4.28 -0.44 -0.37 3440
0.98 -0.04 2.49 -6.02 20.94 4.28 -0.66 -0.47 3447
0.87 -0.03 4.74 -6.03 24.51 4.28 -0.86 -0.62 3453
0.74 -0.03 3.94 -9.44 28.34 4.28 -0.98 -0.70 3460
0.60 -0.04 1.01 -14.22 33.58 4.28 -0.96 -0.69 3466
0.56 -0.03 2.81 -14.34 36.77 4.28 -0.76 -0.63 3473
0.46 -0.04 2.35 -13.66 31.56 4.28 -0.60 -0.59 3479
0.38 -0.02 1.77 -11.44 29.72 4.28 -0.37 -0.62 3485
0.27 -0.03 0.84 -8.35 30.91 4.28 -0.27 -0.67 3491
0.20 -0.02 0.22 -5.77 32.45 4.28 -0.53 -0.77 3499
0.15 -0.01 1.63 -2.26 31.60 4.28 -0.88 -0.81 3505
0.12 -0.01 3.59 2.43 31.13 4.28 -1.30 -0.81 3511
0.08 -0.01 6.82 5.44 30.37 4.28 -1.55 -0.79 3517
0.07 -0.01 9.39 9.26 30.93 4.28 -1.48 -0.77 3523
0.06 -0.01 11.02 11.73 29.73 4.28 -0.95 -0.80 3529
0.06 -0.01 12.40 16.53 21.71 4.28 0.02 -1.08 3536
0.06 -0.01 7.42 17.73 15.13 4.28 1.17 -1.83 3543
0.04 -0.00 8.02 22.31 6.44 4.12 1.41 -2.38 3549
0.03 -0.00 7.44 25.90 19.77 1.58 1.57 -2.72 3555
0.05 -0.00 4.73 24.65 31.56 -1.11 2.27 -2.65 3562
0.04 -0.00 3.90 18.82 26.80 -2.92 2.41 -2.33 3568
0.04 0.00 1.31 14.82 21.09 -3.97 1.84 -1.95 3574
0.05 -0.00 -0.32 12.10 15.88 -4.27 1.14 -1.54 3580
0.03 -0.00 0.10 10.33 13.59 -4.28 0.58 -1.19 3587
0.05 -0.01 1.07 8.49 11.77 -4.28 0.16 -0.95 3594
0.04 -0.00 1.89 6.49 9.76 -4.28 -0.11 -0.81 3600
0.04 -0.00 2.32 5.37 8.34 -4.28 -0.19 -0.70 3606
0.04 0.00 2.58 4.18 8.01 -4.28 -0.12 -0.61 3612
0.03 -0.00 2.94 3.51 7.84 -4.28 0.03 -0.53 3618
0.05 -0.00 3.35 2.80 7.27 -4.28 0.28 -0.49 3624
0.04 -0.00 3.60 2.17 7.40 -4.28 0.58 -0.47 3631
0.04 -0.00 3.68 1.82 7.85 -4.28 0.85 -0.48 3637
0.05 -0.01 3.36 1.50 8.44 -4.28 1.08 -0.49 3644
0.04 -0.00 2.77 1.43 9.33 -4.28 1.25 -0.49 3650
0.04 -0.00 2.12 1.34 10.38 -4.28 1.46 -0.46 3656
0.05 -0.01 1.64 1.07 10.46 -4.28 1.63 -0.39 3662
0.05 -0.00 1.20 0.91 11.32 -4.28 1.71 -0.29 3668
0.02 -0.00 0.66 0.72 12.13 -4.28 1.71 -0.18 3675
0.04 0.01 0.24 0.47 12.90 -4.28 1.68 -0.06 3681
0.05 -0.01 0.02 0.19 13.57 -4.28 1.62 0.06 3688
0.05 -0.00 -0.03 -0.11 14.34 -4.28 1.58 0.17 3694
0.05 -0.00 0.11 -0.63 14.89 -4.28 1.56 0.25 3700
0.05 -0.01 0.33 -1.06 15.79 -4.28 1.60 0.27 3706
0.04 -0.00 0.74 -1.83 16.87 -4.28 1.71 0.25 3713
0.04 -0.00 0.60 -2.51 17.91 -4.28 1.89 0.18 3719
0.05 -0.01 0.48 -3.59 18.82 -4.28 2.12 0.07 3726
0.05 -0.00 0.22 -4.50 19.20 -4.28 2.37 -0.05 3732
0.03 -0.00 -0.29 -5.22 19.59 -4.28 2.61 -0.17 3738
0.03 -0.00 -0.97 -5.82 19.90 -4.28 2.78 -0.26 3744
0.04 -0.00 -1.90 -6.38 20.28 -4.28 2.89 -0.30 3750
0.03 -0.00 -2.62 -6.92 20.59 -4.28 2.89 -0.29 3757
0.05 0.00 -3.22 -7.39 20.95 -4.28 2.74 -0.25 3764
0.04 -0.00 -3.98 -7.53 20.92 -4.23 2.51 -0.15 3770
0.03 -0.00 -4.36 -7.60 21.05 -4.14 2.17 -0.00 3776
0.04 0.01 -4.29 -7.61 21.28 -3.99 1.80 0.13 3782
0.04 -0.00 -3.84 -7.92 21.53 -3.81 1.42 0.29 3788
0.03 -0.00 -3.39 -8.49 22.35 -3.64 1.09 0.45 3794
0.05 -0.00 -2.97 -9.34 23.49 -3.50 0.82 0.61 3802
0.05 -0.00 -2.47 -10.27 24.69 -3.41 0.67 0.77 3808
0.04 -0.00 -1.93 -11.30 25.60 -3.41 0.64 0.93 3814
0.05 0.00 -1.21 -12.24 25.43 -3.48 0.79 1.09 3820
0.05 -0.00 -1.26 -13.12 24.49 -3.64 1.14 1.28 3827
0.04 -0.00 -1.52 -14.66 23.62 -3.80 1.59 1.48 3833
0.05 -0.01 -2.08 -17.02 22.66 -3.98 1.88 1.62 3840
0.04 -0.00 -2.52 -20.09 21.83 -4.04 1.89 1.73 3846
0.04 -0.00 -2.80 -23.02 20.19 -4.01 1.66 1.83 3852
0.04 -0.00 -3.01 -25.52 18.20 -3.82 1.37 1.92 3859
0.04 -0.00 -3.14 -27.56 14.99 -3.51 1.09 1.99 3865
0.04 0.00 -3.29 -29.01 11.58 -3.15 0.96 2.03 3871
0.04 -0.00 -4.02 -31.06 8.40 -2.79 1.03 2.03 3877
0.04 -0.00 -5.13 -32.85 5.89 -2.41 1.23 2.00 3884
0.04 -0.00 -6.67 -35.40 4.16 -2.01 1.40 1.89 3891
0.05 -0.00 -8.19 -37.24 2.47 -1.55 1.44 1.70 3897
0.05 -0.00 -9.56 -37.73 1.48 -1.04 1.32 1.44 3903
0.05 -0.00 -10.31 -36.53 2.01 -0.49 1.02 1.11 3909
0.05 -0.00 -10.52 -33.78 2.41 0.00 0.65 0.75 3915
0.05 -0.00 -9.99 -30.59 4.05 0.45 0.19 0.39 3921
0.05 0.00 -8.56 -26.94 6.92 0.73 -0.30 0.05 3929
0.05 -0.01 -11.58 -53.01 78.47 1.85 -1.32 -0.14 3935
0.03 -0.00 -4.88 -18.96 6.07 3.78 -0.82 -0.11 3941
0.03 0.03 -3.37 -8.04 -7.67 3.39 -1.23 -0.23 3947
0.03 0.10 1.00 -6.95 -6.63 2.75 -2.16 -0.52 3953
0.02 0.25 1.21 8.41 17.37 3.01 -2.45 -0.31 3960
0.01 0.54 8.03 8.41 16.43 3.42 -0.77 0.19 3966
0.02 0.75 7.42 1.38 17.35 3.95 -0.29 0.41 3973
-0.01 1.06 -2.25 -5.77 26.64 4.28 -0.66 0.47 3979
0.01 1.29 -2.73 -9.07 24.42 4.28 -0.92 0.32 3986
-0.01 1.45 1.11 -5.91 26.96 4.28 -0.63 0.28 3992
-0.02 1.66 -2.33 -3.41 27.20 4.26 -0.21 0.26 3998
-0.03 1.74 -4.52 -2.06 21.07 3.68 -0.22 -0.10 4004
-0.03 1.75 -0.51 -2.14 17.38 3.29 -0.35 -0.46 4012
-0.01 1.71 2.58 -1.87 16.98 3.18 -0.45 -0.56 4018
-0.01 1.67 4.01 -2.97 24.73 3.00 -1.01 -0.47 4024
-0.01 1.63 3.98 -2.32 16.33 1.37 -1.59 -0.22 4030
-0.01 1.60 0.68 -3.08 13.79 0.64 -0.99 0.08 4036
-0.02 1.61 -0.21 -1.54 11.48 0.30 -0.58 0.11 4043
-0.01 1.59 -0.08 -0.72 10.48 0.15 -0.33 0.05 4049
-0.01 1.56 0.60 -0.97 10.38 0.08 -0.22 -0.00 4056
-0.02 1.56 1.08 -1.36 10.23 0.04 -0.17 0.01 4062
-0.01 1.57 0.84 -0.98 10.12 0.02 -0.14 0.04 4068
-0.01 1.54 0.50 -0.84 10.04 0.01 -0.12 0.04 4075
-0.02 1.51 0.51 -0.69 10.01 0.00 -0.09 0.04 4081
-0.01 1.51 0.66 -0.76 9.91 0.00 -0.07 0.03 4087
-0.00 1.45 0.85 -0.74 9.92 0.00 -0.07 0.03 4093
-0.01 1.38 0.77 -0.75 9.97 0.01 -0.08 0.03 4100
-0.01 1.31 0.67 -0.82 9.97 0.00 -0.08 0.02 4106
0.01 1.22 0.59 -0.73 10.02 0.01 -0.07 0.03 4113
0.02 1.13 0.60 -0.78 10.07 0.01 -0.06 0.03 4119
0.03 1.07 0.60 -0.74 10.10 0.01 -0.05 0.03 4125
0.03 1.03 0.63 -0.73 10.08 0.01 -0.04 0.03 4131
0.02 0.98 0.63 -0.66 9.99 0.02 -0.03 0.03 4137
0.02 0.86 0.62 -0.69 10.04 0.03 -0.03 0.04 4145
0.06 0.81 0.65 -0.74 10.00 0.04 -0.02 0.04 4151
0.03 0.67 0.59 -0.67 10.06 0.04 -0.02 0.04 4157
0.02 0.62 0.65 -0.63 9.99 0.05 -0.02 0.04 4163
0.07 0.56 0.71 -0.64 10.09 0.05 -0.02 0.04 4169
0.07 0.52 0.70 -0.91 10.02 0.05 -0.01 0.04 4175
0.06 0.47 0.70 -0.80 10.02 0.05 -0.00 0.03 4183
0.11 0.39 0.78 -1.03 9.93 0.05 -0.00 0.03 4189
0.10 0.34 0.72 -0.78 9.96 0.05 0.00 0.03 4195
0.13 0.23 0.76 -0.78 9.94 0.05 -0.00 0.02 4201
0.13 0.23 0.95 -0.73 10.10 0.04 -0.00 0.01 4207
0.13 0.22 0.74 -0.80 9.94 0.04 -0.00 0.01 4213
0.14 0.19 0.70 -0.87 10.02 0.04 -0.01 0.01 4219
0.15 0.18 0.71 -0.81 9.95 0.04 -0.01 0.01 4227
0.18 0.09 0.69 -0.83 9.98 0.04 -0.01 0.00 4233
0.18 0.10 0.70 -0.85 10.01 0.04 -0.01 0.00 4239
0.17 0.06 0.69 -0.74 10.06 0.04 -0.00 0.01 4245
0.21 0.06 0.68 -0.84 9.98 0.04 -0.00 0.01 4251
0.22 0.07 0.68 -0.87 9.99 0.04 0.00 0.01 4257
0.22 0.05 0.72 -0.93 9.94 0.04 0.00 0.01 4263
0.23 0.05 0.84 -1.12 10.23 0.03 0.01 0.01 4271
0.22 0.04 0.75 -0.54 10.03 0.01 -0.01 0.01 4277
0.25 0.02 0.56 -0.91 9.85 0.02 0.00 0.01 4283
0.22 0.01 0.70 -0.92 9.95 0.03 -0.00 0.00 4289
0.26 -0.00 0.64 -1.09 9.67 0.03 -0.00 0.00 4295
0.31 -0.01 0.82 -0.97 9.90 0.03 -0.01 -0.01 4301
0.30 -0.03 0.81 -0.93 9.97 0.03 -0.02 -0.01 4307
0.30 -0.02 0.77 -1.10 10.02 0.03 -0.03 -0.02 4315
0.36 -0.03 0.82 -1.20 9.91 0.03 -0.03 -0.02 4321
0.39 -0.03 0.74 -0.92 9.90 0.04 -0.03 -0.02 4327
0.38 -0.03 0.80 -0.93 9.98 0.05 -0.03 -0.03 4333
0.40 -0.01 0.73 -0.96 9.90 0.05 -0.03 -0.03 4339
0.48 -0.05 0.77 -1.01 9.99 0.05 -0.02 -0.03 4345
0.50 -0.05 0.78 -0.94 10.09 0.07 -0.01 -0.02 4352
0.54 -0.04 0.79 -0.93 10.08 0.08 0.03 -0.02 4359
0.60 -0.04 0.76 -1.00 10.10 0.11 0.01 -0.03 4365
0.60 -0.05 0.80 -0.89 10.23 0.14 0.01 -0.03 4371
0.69 -0.04 0.82 -0.97 10.24 0.18 0.03 -0.03 4377
0.77 -0.05 0.82 -1.03 10.30 0.24 0.05 -0.03 4383
0.80 -0.05 0.79 -1.06 11.03 0.32 0.07 -0.03 4389
0.84 -0.05 0.80 -1.13 10.65 0.45 0.10 -0.03 4397
0.92 -0.04 0.89 -1.17 10.81 0.62 0.14 -0.04 4403
0.99 -0.06 0.98 -1.31 11.29 0.86 0.16 -0.04 4409
1.03 -0.04 1.03 -1.31 11.31 1.11 0.17 -0.07 4415
1.10 -0.06 1.26 -1.47 12.26 1.34 0.12 -0.09 4422
1.14 -0.07 1.16 -1.47 12.39 1.55 0.06 -0.12 4428
1.19 -0.05 1.18 -1.49 12.64 1.70 -0.10 -0.14 4434
1.25 -0.06 1.11 -1.76 12.52 1.84 -0.19 -0.15 4441
1.34 -0.06 1.23 -1.79 12.73 2.00 -0.25 -0.16 4447
1.38 -0.06 1.70 -0.56 14.57 2.18 -0.29 -0.18 4454
1.44 -0.07 0.73 -2.16 13.49 2.35 -0.32 -0.17 4460
1.45 -0.05 0.63 -2.00 13.49 2.57 -0.37 -0.14 4466
1.48 -0.06 0.70 -2.04 13.53 2.75 -0.39 -0.14 4472
1.47 -0.06 0.45 -2.16 13.65 2.97 -0.39 -0.14 4480
1.43 -0.06 0.77 -2.41 14.00 3.23 -0.33 -0.13 4486
1.42 -0.06 0.83 -2.49 14.44 3.54 -0.26 -0.13 4492
1.37 -0.06 0.19 -3.78 14.52 3.86 -0.13 -0.11 4498
1.36 -0.05 1.04 -2.66 14.11 4.15 -0.08 -0.16 4505
1.25 -0.06 0.39 -2.77 15.96 4.28 -0.03 -0.15 4511
1.12 -0.04 0.66 -3.19 18.14 4.28 0.02 -0.13 4517
0.96 -0.05 1.70 -4.17 18.97 4.28 -0.03 -0.15 4524
0.82 -0.04 2.21 -4.81 20.19 4.28 -0.12 -0.24 4530
0.70 -0.03 2.42 -5.24 23.10 4.28 -0.28 -0.36 4537
0.61 -0.04 2.53 -9.30 27.57 4.28 -0.40 -0.46 4543
0.46 -0.02 2.01 -11.34 30.34 4.28 -0.44 -0.50 4549
0.45 -0.03 2.17 -15.40 38.53 4.28 -0.30 -0.43 4555
0.32 -0.03 2.38 -14.36 33.27 4.28 -0.16 -0.35 4562
0.31 -0.03 0.94 -12.78 30.97 4.28 -0.05 -0.35 4569
0.23 -0.02 0.77 -10.39 30.29 4.28 0.04 -0.35 4575
0.17 -0.01 -0.08 -8.19 31.77 4.28 -0.05 -0.43 4581
0.17 -0.02 -0.64 -4.70 32.74 4.28 -0.40 -0.54 4588
0.14 -0.01 1.38 -1.13 31.71 4.28 -0.99 -0.58 4594
0.13 -0.01 4.70 2.35 33.04 4.28 -1.49 -0.60 4600
0.08 -0.01 7.94 6.59 33.89 4.28 -1.60 -0.56 4606
0.06 -0.01 9.52 11.25 31.51 4.28 -1.18 -0.50 4613
0.04 0.00 13.29 18.47 25.77 4.28 -0.41 -0.62 4620
0.05 -0.00 6.40 19.44 17.56 4.28 0.76 -1.23 4626
0.04 -0.00 9.09 22.33 -4.67 3.91 1.07 -2.06 4632
0.04 -0.00 6.83 23.00 17.16 2.26 1.11 -2.59 4638
0.03 -0.00 6.21 20.40 31.83 -0.17 1.81 -2.63 4645
0.04 -0.00 4.99 17.59 30.15 -2.11 2.41 -2.56 4652
0.06 -0.01 1.72 15.76 19.99 -3.33 2.19 -2.46 4658
0.04 -0.00 -0.60 14.53 16.04 -4.04 1.53 -2.22 4664
0.05 0.00 -0.53 11.87 14.58 -4.28 0.89 -1.97 4670
0.05 -0.01 0.06 10.00 12.12 -4.28 0.40 -1.72 4677
0.04 -0.00 1.04 7.97 10.68 -4.28 0.01 -1.59 4683
0.04 0.00 1.90 6.16 9.66 -4.28 -0.24 -1.47 4689
0.07 -0.01 2.32 4.89 8.77 -4.28 -0.38 -1.36 4696
0.06 -0.01 2.67 3.93 7.93 -4.28 -0.42 -1.27 4702
0.04 -0.00 2.98 3.02 7.70 -4.28 -0.36 -1.18 4708
0.06 -0.01 3.56 2.32 7.77 -4.28 -0.22 -1.09 4714
0.03 -0.00 3.89 2.13 8.14 -4.28 -0.11 -1.03 4721
0.03 -0.00 4.16 2.13 8.31 -4.28 0.03 -0.94 4727
0.04 -0.00 4.13 2.10 8.68 -4.28 0.20 -0.91 4733
0.05 -0.01 4.22 1.83 9.28 -4.28 0.41 -0.81 4740
0.04 -0.00 4.07 1.42 9.96 -4.28 0.64 -0.70 4746
0.04 -0.00 3.86 0.96 10.61 -4.28 0.88 -0.57 4752
0.03 0.00 3.71 0.42 11.47 -4.28 1.09 -0.43 4758
0.04 -0.00 3.46 -0.01 12.34 -4.28 1.24 -0.28 4764
0.04 -0.00 3.19 -0.29 13.24 -4.28 1.35 -0.14 4771
0.03 -0.00 3.02 -0.80 14.09 -4.28 1.43 0.01 4777
0.04 -0.00 2.78 -1.30 14.51 -4.28 1.51 0.11 4784
0.04 -0.00 2.64 -1.85 14.92 -4.28 1.57 0.23 4790
0.03 -0.00 2.61 -2.58 15.38 -4.28 1.64 0.31 4796
0.05 -0.00 2.67 -3.34 15.95 -4.28 1.72 0.35 4802
0.04 -0.00 2.63 -4.35 16.78 -4.28 1.83 0.36 4809
0.03 -0.00 2.58 -5.53 17.35 -4.28 1.98 0.33 4815
0.04 -0.00 2.27 -6.50 18.00 -4.28 2.11 0.28 4822
0.03 -0.00 2.08 -7.14 18.20 -4.28 2.26 0.23 4828
0.03 -0.00 1.84 -7.62 17.97 -4.28 2.39 0.17 4834
0.04 -0.00 1.91 -8.18 17.59 -4.22 2.46 0.19 4840
0.04 -0.00 1.26 -8.70 18.17 -4.09 2.46 0.20 4847
0.03 -0.00 0.94 -9.12 18.75 -3.85 2.39 0.26 4853
0.03 -0.00 0.49 -9.04 20.15 -3.61 2.25 0.38 4859
0.04 -0.00 0.43 -8.92 21.66 -3.43 2.07 0.52 4866
0.03 -0.00 0.61 -8.73 23.21 -3.36 1.83 0.69 4872
0.03 -0.00 0.82 -8.85 24.80 -3.37 1.60 0.87 4878
0.04 -0.00 1.13 -9.28 26.04 -3.48 1.42 1.06 4884
0.03 -0.00 1.69 -9.93 26.42 -3.65 1.25 1.25 4891
0.02 -0.00 2.24 -10.91 25.99 -3.85 1.20 1.43 4897
0.03 -0.00 2.71 -12.25 24.58 -4.02 1.30 1.55 4903
0.03 -0.00 3.06 -13.81 23.48 -4.10 1.52 1.67 4910
0.04 -0.00 2.09 -15.34 22.98 -4.13 1.82 1.76 4916
0.05 -0.00 0.62 -16.56 21.32 -4.08 2.14 1.84 4923
0.04 -0.00 -1.15 -18.66 21.17 -3.94 2.40 1.93 4929
0.04 -0.00 -2.63 -20.23 18.14 -3.65 2.53 2.02 4935
0.04 -0.00 -4.57 -19.40 16.94 -3.48 2.41 2.04 4941
0.03 -0.00 -5.65 -21.67 16.83 -3.40 2.07 2.01 4948
0.03 -0.00 -6.47 -24.68 16.22 -3.22 1.67 1.93 4955
0.04 -0.00 -6.57 -26.93 13.94 -2.97 1.30 1.79 4961
0.02 -0.00 -6.34 -29.22 10.85 -2.63 1.03 1.56 4967
0.04 -0.00 -6.41 -31.40 7.68 -2.33 0.89 1.25 4973
0.04 -0.00 -6.79 -33.60 5.22 -2.00 0.88 0.89 4980
0.03 -0.00 -7.04 -35.57 3.60 -1.65 0.97 0.52 4986
0.04 0.00 -7.35 -36.32 2.92 -1.26 1.07 0.15 4993
0.03 -0.00 -7.96 -35.76 3.00 -0.82 1.15 -0.14 4999
0.04 -0.00 -8.76 -33.60 3.44 -0.34 1.08 -0.36 5005
0.03 0.01 -12.07 -42.87 -2.23 0.25 0.64 -0.47 5012
0.04 -0.00 -11.47 -34.15 0.70 2.72 -0.51 -0.18 5018
0.03 -0.00 -12.40 -26.86 7.18 3.04 -1.38 -0.05 5024
0.05 0.01 -9.14 -27.60 -3.10 3.21 -2.62 0.01 5030
0.03 0.08 -1.16 -17.88 -2.29 3.15 -3.79 -0.07 5037
0.02 0.21 0.95 2.85 7.06 3.33 -3.74 0.03 5044
0.03 0.41 4.40 6.34 24.37 4.06 -1.73 0.57 5050
0.01 0.69 3.64 2.01 20.94 4.17 -0.75 0.97 5056
0.00 0.94 -7.39 -5.67 30.02 4.28 -1.05 0.84 5062
-0.00 1.25 -7.97 -8.79 29.18 4.28 -1.25 0.47 5068
-0.00 1.38 -1.30 -5.78 22.67 4.28 -0.74 0.27 5075
-0.02 1.51 -4.00 -3.53 26.14 4.22 -0.24 0.16 5082
-0.02 1.60 -4.44 -1.33 21.14 3.60 -0.25 -0.26 5088
-0.04 1.57 0.93 -1.90 16.94 3.05 -0.37 -0.60 5094
-0.01 1.58 3.92 -1.85 14.25 2.96 -0.40 -0.58 5101
-0.02 1.47 5.46 -2.54 20.36 3.03 -0.96 -0.42 5107
-0.02 1.47 3.64 -1.56 18.38 1.76 -1.87 -0.18 5113
-0.01 1.43 0.76 -2.55 13.74 0.75 -1.21 0.14 5120
-0.03 1.42 -0.28 -1.53 12.09 0.28 -0.61 0.17 5127
-0.02 1.39 -0.53 -0.71 10.88 0.09 -0.23 0.10 5133
-0.02 1.35 0.12 -0.75 10.26 0.01 -0.09 0.03 5139
-0.01 1.37 0.85 -1.00 10.29 0.00 -0.05 0.03 5145
-0.01 1.32 0.92 -0.96 10.05 -0.00 -0.05 0.04 5151
-0.03 1.33 0.65 -0.70 10.07 -0.01 -0.05 0.04 5158
-0.02 1.26 0.53 -0.60 9.87 -0.01 -0.04 0.03 5165
-0.01 1.25 0.59 -0.57 9.99 -0.00 -0.02 0.03 5171
-0.00 1.20 0.80 -0.58 9.97 0.00 -0.02 0.03 5177
-0.01 1.14 0.79 -0.56 10.01 0.01 -0.02 0.03 5183
0.00 1.11 0.68 -0.60 10.04 0.01 -0.03 0.03 5189
-0.00 1.07 0.07 -0.62 10.11 0.01 -0.02 0.03 5195
0.02 0.99 0.62 -0.99 10.20 0.02 -0.01 0.03 5202
0.03 0.90 0.63 -0.06 10.01 0.02 -0.01 0.03 5209
0.04 0.82 0.66 -0.63 10.18 0.03 -0.00 0.03 5215
0.04 0.76 0.65 -0.61 10.13 0.03 -0.00 0.04 5221
0.06 0.71 0.71 -0.69 9.98 0.04 0.00 0.03 5227
0.05 0.68 0.67 -0.67 10.04 0.04 -0.00 0.04 5233
0.08 0.59 0.70 -0.69 9.99 0.04 -0.00 0.04 5240
0.08 0.50 0.70 -0.63 10.05 0.05 -0.00 0.04 5246
0.09 0.50 0.75 -0.63 9.93 0.05 0.01 0.03 5253
0.09 0.46 0.76 -0.62 9.98 0.05 0.00 0.03 5259
0.08 0.40 0.75 -0.61 10.02 0.05 0.00 0.03 5265
0.09 0.32 0.81 -0.66 10.00 0.05 0.00 0.02 5271
0.11 0.23 0.67 -0.56 9.99 0.04 -0.00 0.02 5277
0.10 0.19 0.78 -0.71 10.00 0.04 -0.00 0.01 5284
0.10 0.22 0.81 -0.70 9.95 0.04 -0.01 0.01 5291
0.13 0.16 0.97 -0.85 10.12 0.04 -0.01 0.01 5297
0.14 0.11 0.76 -0.67 10.00 0.04 -0.01 0.00 5303
0.15 0.11 0.74 -0.74 10.04 0.04 -0.02 0.01 5309
0.16 0.11 0.77 -0.70 10.05 0.04 -0.02 0.00 5316
0.15 0.07 0.71 -0.70 10.00 0.04 -0.01 0.01 5322
0.15 0.09 0.71 -0.72 10.02 0.05 -0.01 0.01 5328
0.17 0.07 0.73 -0.74 10.06 0.04 -0.01 0.01 5335
0.17 0.06 0.76 -0.70 9.98 0.04 -0.01 0.01 5341
0.17 0.06 0.76 -0.73 10.01 0.04 -0.01 0.01 5347
0.18 0.04 0.99 -0.85 10.14 0.04 -0.01 0.01 5354
0.21 0.03 0.86 -0.36 9.78 0.03 -0.02 0.00 5360
0.19 0.01 0.82 -0.64 10.08 0.04 -0.02 -0.00 5366
0.22 0.03 0.82 -0.76 10.05 0.03 -0.02 -0.01 5372
0.25 0.00 0.80 -0.80 9.84 0.04 -0.03 -0.01 5379
0.25 -0.02 0.87 -0.71 9.92 0.04 -0.04 -0.02 5385
0.24 -0.02 0.85 -1.20 10.04 0.03 -0.05 -0.02 5391
0.28 -0.03 0.77 -0.74 9.94 0.04 -0.06 -0.03 5398
0.27 -0.03 0.90 -0.75 10.04 0.04 -0.07 -0.03 5404
0.29 -0.03 0.75 -0.76 9.98 0.04 -0.08 -0.03 5410
0.36 -0.02 0.84 -0.81 9.96 0.04 -0.08 -0.04 5416
0.38 -0.03 0.77 -0.80 10.05 0.04 -0.08 -0.05 5423
0.40 -0.04 0.76 -0.87 10.05 0.05 -0.08 -0.05 5429
0.43 -0.02 0.72 -0.82 10.00 0.05 -0.08 -0.05 5435
0.50 -0.04 0.79 -0.82 10.01 0.06 -0.08 -0.05 5442
0.52 -0.05 0.83 -0.89 10.09 0.07 -0.07 -0.05 5448
0.55 -0.04 0.78 -0.79 10.11 0.09 -0.07 -0.05 5454
0.64 -0.04 0.76 -0.89 10.19 0.12 -0.06 -0.05 5460
0.68 -0.05 0.77 -0.91 10.19 0.15 -0.05 -0.05 5467
0.77 -0.05 0.75 -0.92 10.23 0.21 -0.04 -0.05 5474
0.82 -0.05 0.74 -0.89 10.39 0.28 -0.04 -0.06 5480
0.90 -0.06 0.83 -0.94 10.55 0.38 -0.03 -0.06 5486
0.95 -0.04 0.83 -1.03 10.92 0.53 -0.02 -0.07 5492
1.04 -0.05 0.96 -1.09 11.17 0.74 -0.01 -0.09 5498
1.10 -0.06 0.97 -1.18 11.70 0.97 -0.03 -0.12 5506
1.22 -0.04 1.06 -1.21 12.39 1.27 -0.05 -0.14 5512
1.30 -0.06 1.03 -1.47 12.53 1.54 -0.11 -0.15 5518
1.37 -0.06 0.79 -1.58 12.71 1.73 -0.17 -0.14 5524
1.47 -0.07 0.85 -1.57 12.72 1.87 -0.32 -0.14 5531
1.54 -0.08 0.90 -1.47 12.62 1.98 -0.39 -0.13 5537
1.58 -0.06 0.80 -1.48 13.09 2.11 -0.43 -0.13 5543
1.65 -0.08 0.80 -1.56 13.29 2.29 -0.43 -0.12 5550
1.70 -0.08 0.84 -1.81 13.64 2.49 -0.45 -0.13 5556
1.73 -0.06 0.92 -1.87 13.32 2.67 -0.49 -0.14 5563
1.71 -0.07 0.87 -2.18 14.24 2.92 -0.49 -0.15 5569
1.72 -0.06 0.91 -2.33 14.74 3.21 -0.54 -0.20 5575
1.73 -0.08 0.93 -2.42 14.81 3.55 -0.53 -0.19 5581
1.69 -0.08 1.11 -2.47 14.84 3.90 -0.54 -0.22 5588
1.59 -0.05 1.10 -2.51 15.35 4.18 -0.51 -0.27 5595
1.51 -0.06 2.31 -2.25 17.60 4.28 -0.43 -0.30 5601
1.33 -0.05 0.93 -2.97 18.87 4.28 -0.55 -0.33 5607
1.26 -0.05 2.47 -3.51 19.65 4.28 -0.77 -0.39 5614
1.07 -0.05 3.25 -3.49 20.19 4.28 -1.01 -0.55 5620
0.89 -0.03 2.57 -5.91 23.16 4.28 -1.20 -0.69 5626
0.76 -0.04 2.04 -8.68 27.02 4.28 -1.29 -0.78 5633
0.71 -0.04 0.16 -10.05 29.55 4.28 -1.24 -0.83 5640
0.59 -0.03 0.96 -15.19 37.34 4.28 -1.07 -0.72 5646
0.47 -0.04 1.74 -15.30 35.76 4.28 -0.91 -0.65 5652
0.31 -0.01 2.51 -12.04 30.07 4.28 -0.69 -0.67 5658
0.23 -0.02 2.05 -8.44 28.10 4.28 -0.50 -0.73 5665
0.20 -0.02 1.01 -5.03 30.77 4.28 -0.46 -0.80 5671
0.18 -0.02 1.42 -2.44 33.71 4.28 -0.75 -0.86 5678
0.11 -0.01 3.26 0.06 33.33 4.28 -1.32 -0.91 5684
0.12 -0.01 6.54 3.12 33.68 4.28 -1.78 -0.93 5690
0.12 -0.01 9.28 7.82 34.12 4.28 -1.79 -0.90 5697
0.06 -0.01 12.04 14.52 30.01 4.28 -1.43 -0.86 5703
0.04 -0.00 14.29 22.06 25.27 4.28 -0.74 -1.02 5709
0.05 -0.01 8.52 23.05 8.59 4.15 0.04 -1.56 5715
0.06 -0.01 9.87 28.76 -3.67 2.99 0.08 -2.16 5722
0.05 -0.01 7.41 22.37 26.35 1.10 0.50 -2.33 5729
0.05 -0.00 7.72 18.63 34.14 -1.09 1.44 -2.16 5735
0.05 -0.01 5.63 17.03 23.64 -2.71 1.77 -1.90 5741
0.06 -0.00 2.82 15.71 15.08 -3.51 1.40 -1.62 5747
0.05 -0.00 1.88 13.70 12.43 -4.00 0.78 -1.33 5754
0.03 -0.00 1.83 11.39 11.43 -4.25 0.30 -1.08 5761
0.06 -0.01 2.43 9.26 9.34 -4.28 0.02 -0.89 5767
0.04 -0.00 3.24 7.21 8.09 -4.28 -0.14 -0.75 5773
0.02 -0.00 3.72 5.53 7.54 -4.28 -0.18 -0.64 5779
0.03 -0.00 4.05 4.43 7.53 -4.26 -0.12 -0.54 5785
0.06 -0.01 4.20 3.43 7.41 -4.22 -0.02 -0.49 5791
0.06 -0.01 4.58 2.69 7.53 -4.19 0.11 -0.47 5797
0.05 -0.00 4.92 2.16 8.10 -4.19 0.28 -0.46 5805
0.04 -0.00 5.12 1.96 9.06 -4.20 0.45 -0.45 5811
0.05 -0.00 5.16 1.93 9.74 -4.25 0.64 -0.44 5817
0.05 -0.01 4.90 1.90 10.50 -4.27 0.83 -0.39 5823
0.04 -0.00 4.64 1.76 11.02 -4.28 1.01 -0.31 5829
0.05 -0.01 4.40 1.28 11.69 -4.28 1.13 -0.20 5835
0.04 -0.00 4.05 0.63 12.10 -4.28 1.28 -0.09 5841
0.05 -0.00 3.90 -0.25 12.50 -4.28 1.36 0.03 5848
0.04 -0.00 3.70 -1.08 12.91 -4.28 1.39 0.17 5855
0.06 -0.01 3.55 -1.88 13.44 -4.28 1.40 0.29 5861
0.04 -0.00 3.36 -2.61 13.90 -4.28 1.37 0.41 5867
0.05 -0.00 3.29 -3.30 14.76 -4.28 1.40 0.51 5873
0.06 -0.01 3.37 -3.89 15.31 -4.28 1.44 0.59 5879
0.05 -0.00 3.37 -4.47 15.75 -4.28 1.53 0.63 5885
0.05 -0.01 3.50 -5.15 16.14 -4.28 1.60 0.62 5893
0.05 -0.00 3.60 -6.03 17.02 -4.28 1.73 0.58 5899
0.05 -0.00 3.14 -6.74 17.67 -4.28 1.88 0.55 5905
0.04 -0.00 3.43 -6.84 18.76 -4.28 2.07 0.54 5911
0.04 0.01 2.90 -7.36 19.52 -4.28 2.13 0.51 5917
0.03 -0.00 2.71 -7.50 19.66 -4.28 2.22 0.50 5924
0.02 -0.00 2.22 -7.78 19.80 -4.26 2.30 0.52 5931
0.03 0.01 2.17 -8.31 20.71 -4.22 2.32 0.56 5937
0.04 -0.00 1.98 -8.83 21.18 -4.16 2.30 0.61 5943
0.04 -0.00 1.75 -9.44 21.93 -4.10 2.26 0.68 5949
0.04 0.01 1.65 -10.07 22.49 -4.00 2.20 0.76 5955
0.04 -0.00 1.59 -10.67 22.87 -3.88 2.13 0.86 5962
0.03 -0.00 1.65 -11.33 23.12 -3.78 2.03 0.98 5968
0.03 -0.00 1.75 -12.00 23.11 -3.70 1.92 1.09 5975
0.04 -0.00 1.91 -12.79 23.09 -3.63 1.81 1.18 5981
0.04 -0.00 2.04 -13.63 22.72 -3.56 1.71 1.24 5988
0.06 -0.01 2.17 -15.32 22.07 -3.47 1.65 1.29 5994
0.03 -0.00 2.05 -15.88 21.17 -3.37 1.62 1.31 6000
0.04 -0.00 0.39 -20.61 20.55 -3.14 1.62 1.35 6006
0.04 -0.00 1.42 -15.76 7.54 -2.69 1.76 1.46 6012
0.04 -0.00 -0.98 -14.63 13.34 -2.86 1.97 1.56 6020
0.05 -0.00 -2.93 -17.30 18.66 -3.02 2.35 1.67 6026
0.04 -0.00 -3.87 -20.20 20.28 -3.09 2.55 1.76 6032
0.03 -0.00 -5.05 -22.91 20.02 -3.04 2.46 1.76 6038
0.03 -0.00 -5.71 -25.42 17.69 -2.90 2.18 1.71 6044
0.03 -0.00 -5.95 -26.86 13.58 -2.73 1.77 1.64 6051
0.04 -0.00 -5.87 -27.95 8.83 -2.53 1.38 1.53 6057
0.06 -0.01 -5.65 -29.77 4.95 -2.22 1.11 1.38 6064
0.04 -0.00 -5.75 -31.71 3.37 -1.94 0.97 1.17 6070
0.02 -0.00 -6.18 -32.83 2.54 -1.54 0.98 0.92 6076
0.03 -0.00 -6.97 -32.58 2.77 -1.06 0.98 0.66 6083
0.03 -0.00 -7.59 -30.74 3.52 -0.57 0.95 0.43 6089
0.03 -0.00 -8.29 -29.10 4.68 -0.12 0.81 0.27 6095
0.04 0.00 -21.54 -44.35 32.47 1.36 -0.54 0.39 6102
0.04 -0.00 -7.45 -25.28 -0.87 2.37 -0.73 0.70 6108
0.02 -0.00 -9.47 -21.84 0.26 2.57 -1.68 0.76 6114
0.04 0.04 -7.55 -29.11 0.84 2.63 -2.78 0.88 6121
0.03 0.09 -5.28 -27.38 -3.58 2.52 -3.90 1.01 6127
0.02 0.25 0.19 4.51 5.99 2.94 -3.92 1.19 6133
0.02 0.43 0.22 -1.16 24.02 3.83 -1.65 1.62 6139
0.00 0.66 0.14 6.17 18.53 4.21 -0.06 2.00 6147
-0.01 0.97 -12.19 -2.48 24.87 4.28 -0.46 1.75 6153
-0.01 1.25 -13.89 -7.18 28.19 4.28 -0.96 1.06 6159
-0.02 1.41 -7.75 -6.03 23.63 4.28 -0.55 0.45 6165
-0.00 1.48 -5.86 -3.53 23.95 4.21 -0.08 0.01 6172
-0.03 1.58 -3.40 -2.02 21.60 3.90 -0.11 -0.50 6178
-0.03 1.58 2.83 -2.16 17.04 3.42 -0.34 -0.80 6184
-0.03 1.59 6.42 -2.65 17.93 3.32 -0.52 -0.67 6191
-0.03 1.57 4.13 -3.36 29.40 2.91 -1.83 -0.35 6198
-0.02 1.51 3.53 -2.90 14.86 1.31 -1.79 0.06 6204
-0.03 1.53 -0.15 -1.90 13.46 0.65 -1.09 0.22 6210
-0.04 1.48 -1.19 -1.03 11.97 0.26 -0.63 0.15 6216
-0.00 1.48 -0.39 -0.72 10.72 0.08 -0.29 0.04 6222
-0.01 1.46 0.70 -1.09 10.22 0.03 -0.17 0.01 6230
-0.02 1.45 1.17 -1.28 10.09 0.01 -0.14 0.07 6236
-0.02 1.43 0.78 -0.90 10.17 0.01 -0.12 0.06 6242
-0.03 1.42 0.36 -0.72 10.20 -0.00 -0.10 0.05 6248
-0.00 1.36 0.34 -0.57 10.21 -0.01 -0.07 0.03 6254
0.00 1.31 0.69 -0.66 9.95 -0.01 -0.06 0.03 6261
0.00 1.20 0.75 -0.68 9.94 -0.00 -0.05 0.03 6267
0.01 1.20 0.71 -0.63 9.94 0.01 -0.05 0.03 6274
0.05 1.16 0.70 -0.69 10.09 0.00 -0.05 0.03 6280
0.03 1.09 0.65 -0.72 10.07 0.01 -0.06 0.04 6286
0.01 1.00 0.63 -0.69 10.01 0.02 -0.06 0.04 6292
0.05 0.99 -0.09 -0.47 10.02 0.02 -0.05 0.04 6299
0.05 0.86 0.63 -0.69 10.06 0.02 -0.04 0.04 6305
0.05 0.82 0.66 -0.70 9.92 0.03 -0.03 0.04 6311
0.07 0.76 0.63 -0.67 10.01 0.03 -0.03 0.04 6318
0.09 0.66 0.64 -0.69 10.04 0.03 -0.02 0.04 6324
0.08 0.63 0.75 -0.68 10.10 0.04 -0.02 0.04 6330
0.09 0.57 0.68 -0.50 10.04 0.04 -0.02 0.04 6337
0.11 0.46 0.73 -0.68 10.00 0.05 -0.02 0.03 6343
0.12 0.45 0.69 -0.73 9.92 0.05 -0.01 0.03 6349
0.13 0.36 0.76 -0.80 9.98 0.05 -0.00 0.02 6355
0.15 0.33 0.73 -0.75 10.09 0.05 -0.01 0.02 6362
0.14 0.23 0.71 -0.75 10.06 0.05 -0.01 0.02 6368
0.15 0.21 0.80 -0.74 9.96 0.05 -0.01 0.02 6375
0.19 0.16 0.70 -0.75 9.98 0.05 -0.02 0.01 6381
0.20 0.12 0.78 -0.92 9.98 0.04 -0.02 0.00 6387
0.19 0.11 0.73 -0.79 10.00 0.04 -0.03 0.01 6393
0.21 0.08 0.77 -0.78 10.04 0.04 -0.03 0.00 6400
0.21 0.07 0.74 -0.75 10.00 0.04 -0.04 0.01 6406
0.21 0.07 0.67 -0.80 9.96 0.04 -0.05 0.01 6413
0.25 0.08 0.65 -0.80 10.04 0.04 -0.05 0.01 6419
0.25 0.03 0.72 -0.86 10.02 0.04 -0.05 0.01 6425
0.23 0.03 0.69 -0.72 10.12 0.04 -0.05 0.00 6431
0.30 0.06 0.66 -0.78 9.98 0.04 -0.07 -0.03 6437
0.34 0.03 0.87 -0.83 9.99 0.04 -0.07 -0.01 6444
0.36 -0.00 0.76 -0.88 9.98 0.04 -0.08 -0.01 6450
0.37 0.01 0.73 -1.02 9.94 0.04 -0.08 -0.02 6457
0.40 -0.00 0.78 -0.90 9.96 0.04 -0.08 -0.02 6463
0.44 -0.02 0.73 -0.82 9.92 0.04 -0.09 -0.03 6469
0.48 -0.03 1.16 -0.85 9.94 0.03 -0.08 -0.03 6475
0.51 -0.00 0.71 -0.93 9.97 0.03 -0.08 -0.04 6481
0.56 -0.03 0.70 -0.83 10.00 0.04 -0.08 -0.05 6488
0.57 -0.03 0.68 -0.91 10.04 0.04 -0.08 -0.04 6495
0.57 -0.02 0.67 -0.85 9.99 0.05 -0.07 -0.04 6501
0.63 -0.04 0.70 -0.88 9.97 0.05 -0.07 -0.05 6507
0.71 -0.05 0.58 -0.90 10.04 0.06 -0.06 -0.05 6513
0.77 -0.05 0.70 -0.90 10.01 0.07 -0.06 -0.05 6519
0.78 -0.05 0.62 -0.84 10.03 0.08 -0.05 -0.04 6525
0.86 -0.06 0.67 -0.86 10.08 0.09 -0.05 -0.04 6533
0.93 -0.04 0.69 -0.90 10.17 0.10 -0.05 -0.03 6539
1.01 -0.06 0.69 -0.93 10.10 0.13 -0.05 -0.03 6545
1.10 -0.08 0.65 -0.94 10.15 0.16 -0.00 -0.03 6551
1.14 -0.05 0.68 -1.03 10.33 0.21 -0.03 -0.04 6557
1.24 -0.07 0.75 -1.01 10.41 0.27 -0.02 -0.05 6564
1.29 -0.06 0.88 -1.15 10.51 0.36 -0.01 -0.06 6571
1.31 -0.05 1.05 -1.21 10.72 0.49 -0.01 -0.08 6577
1.39 -0.07 0.93 -1.21 11.52 0.69 -0.01 -0.09 6583
1.43 -0.07 1.08 -1.31 11.69 0.95 -0.01 -0.12 6590
1.55 -0.07 1.09 -1.36 12.15 1.25 -0.02 -0.15 6596
1.60 -0.08 0.94 -1.54 12.38 1.50 -0.06 -0.17 6602
1.66 -0.08 0.94 -1.57 12.83 1.70 -0.12 -0.18 6608
1.74 -0.08 0.63 -1.51 12.78 1.87 -0.22 -0.16 6615
1.76 -0.09 0.56 -1.50 13.21 2.01 -0.32 -0.14 6622
1.83 -0.08 0.71 -1.69 13.95 2.19 -0.35 -0.13 6628
1.83 -0.07 0.55 -2.05 13.75 2.40 -0.36 -0.12 6634
1.84 -0.07 0.70 -1.54 14.05 2.61 -0.39 -0.12 6640
1.86 -0.08 0.59 -3.06 13.15 2.79 -0.41 -0.14 6647
1.86 -0.09 0.58 -2.44 13.51 3.00 -0.43 -0.14 6653
1.84 -0.06 0.40 -2.18 14.34 3.24 -0.46 -0.14 6660
1.83 -0.07 0.82 -2.31 14.72 3.54 -0.43 -0.14 6666
1.72 -0.06 0.84 -2.40 14.88 3.81 -0.41 -0.15 6673
1.68 -0.08 0.80 -2.50 15.29 4.12 -0.40 -0.17 6679
1.55 -0.06 0.66 -2.93 16.25 4.26 -0.43 -0.19 6685
1.44 -0.06 2.30 -3.96 17.41 4.28 -0.54 -0.26 6691
1.26 -0.05 3.08 -3.83 18.82 4.28 -0.69 -0.35 6697
1.08 -0.05 2.61 -5.12 20.26 4.28 -0.88 -0.53 6705
0.93 -0.03 1.65 -6.03 23.08 4.28 -1.11 -0.68 6711
0.82 -0.04 2.35 -8.56 26.35 4.28 -1.33 -0.78 6717
0.70 -0.04 1.31 -12.66 31.85 4.28 -1.34 -0.84 6723
0.55 -0.04 1.82 -15.52 36.41 4.28 -1.14 -0.80 6730
0.43 -0.03 2.06 -14.55 33.43 4.28 -0.83 -0.76 6736
0.37 -0.02 1.46 -12.56 30.37 4.28 -0.62 -0.76 6743
0.27 -0.03 2.00 -8.50 28.71 4.28 -0.46 -0.78 6749
0.23 -0.02 0.80 -5.94 30.33 4.28 -0.40 -0.82 6756
0.20 -0.02 0.82 -3.74 32.24 4.28 -0.68 -0.85 6762
0.14 -0.01 3.69 -0.78 32.97 4.28 -1.13 -0.90 6768
0.12 -0.01 7.30 2.83 32.51 4.28 -1.45 -0.94 6774
0.11 -0.01 10.02 6.73 32.41 4.28 -1.50 -0.97 6780
0.07 -0.01 10.74 9.74 31.11 4.28 -1.15 -0.95 6788
0.06 -0.01 10.46 16.45 20.32 4.28 -0.33 -0.96 6794
0.05 -0.01 8.25 18.98 16.31 4.28 0.53 -1.25 6800
0.04 0.00 9.27 24.44 -2.68 3.98 0.55 -1.64 6806
0.05 -0.01 7.93 26.81 14.15 1.83 0.47 -1.91 6813
0.05 -0.00 7.33 21.73 30.17 -0.45 1.18 -1.79 6819
0.03 -0.00 6.42 16.84 28.41 -2.12 1.60 -1.54 6825
0.05 -0.01 4.10 14.65 18.82 -3.00 1.45 -1.27 6832
0.04 -0.00 2.14 13.57 15.44 -3.62 1.03 -0.99 6838
0.04 -0.00 2.22 12.49 12.94 -4.10 0.70 -0.78 6845
0.05 -0.00 2.62 10.73 10.85 -4.26 0.51 -0.65 6851
0.04 -0.00 3.44 8.84 9.19 -4.28 0.43 -0.59 6857
0.03 -0.00 3.65 7.49 8.52 -4.28 0.43 -0.56 6863
0.04 -0.00 3.39 6.23 8.28 -4.28 0.50 -0.53 6870
0.04 -0.00 3.08 5.24 8.25 -4.28 0.63 -0.50 6876
0.05 -0.00 3.17 4.31 8.48 -4.28 0.79 -0.48 6882
0.04 -0.00 3.19 3.63 8.59 -4.28 0.97 -0.47 6888
0.05 -0.01 3.22 3.28 9.09 -4.28 1.13 -0.46 6895
0.05 -0.00 2.91 3.15 9.82 -4.28 1.21 -0.44 6901
0.05 -0.01 2.64 3.05 10.22 -4.28 1.31 -0.42 6907
0.05 -0.00 2.36 2.84 11.02 -4.28 1.41 -0.36 6914
0.04 -0.00 2.17 2.48 10.96 -4.28 1.52 -0.28 6920
0.04 -0.00 1.85 1.93 11.62 -4.28 1.60 -0.18 6926
0.03 -0.00 1.46 1.34 12.39 -4.28 1.66 -0.08 6933
0.05 -0.00 1.22 0.80 13.40 -4.28 1.69 0.02 6939
0.04 -0.00 0.91 0.19 14.43 -4.28 1.73 0.11 6945
0.04 -0.00 0.58 -0.31 15.27 -4.28 1.76 0.18 6951
0.05 -0.00 0.34 -0.97 16.04 -4.28 1.81 0.24 6958
0.04 -0.00 0.30 -1.41 16.60 -4.28 1.85 0.26 6964
0.03 -0.00 0.14 -2.02 17.17 -4.28 1.87 0.25 6970
0.05 0.00 -0.01 -2.84 17.66 -4.28 1.90 0.21 6977
0.05 -0.00 -0.19 -3.91 18.08 -4.28 1.98 0.12 6983
0.05 -0.01 -0.51 -4.76 18.50 -4.28 2.07 0.02 6989
0.04 -0.00 -0.87 -5.58 18.66 -4.28 2.18 -0.08 6995
0.04 -0.00 -1.30 -6.15 18.78 -4.28 2.30 -0.18 7002
0.03 -0.00 -1.53 -6.38 18.83 -4.28 2.38 -0.24 7008
0.04 -0.00 -1.77 -6.39 18.70 -4.27 2.40 -0.26 7015
0.05 -0.00 -2.13 -6.70 18.45 -4.18 2.32 -0.26 7021
0.03 -0.00 -2.29 -6.91 18.54 -3.98 2.19 -0.22 7027
0.03 -0.00 -2.43 -7.12 19.58 -3.68 2.02 -0.14 7033
0.05 -0.01 -2.42 -7.26 19.83 -3.37 1.83 -0.03 7040
0.04 -0.00 -2.65 -7.24 21.28 -3.12 1.61 0.09 7047
0.03 -0.00 -2.78 -7.34 23.30 -2.95 1.39 0.24 7053
0.06 -0.01 -2.69 -7.60 25.46 -2.92 1.18 0.41 7059
0.03 -0.00 -2.31 -7.85 27.09 -3.01 1.00 0.58 7065
0.03 -0.00 -1.49 -8.41 27.38 -3.24 0.88 0.74 7071
0.04 -0.00 -0.46 -9.44 26.60 -3.55 0.86 0.91 7077
0.04 -0.00 0.35 -10.77 24.86 -3.84 0.92 1.08 7085
0.03 -0.00 0.87 -12.32 23.76 -4.02 1.12 1.24 7091
0.04 -0.00 0.60 -15.10 22.39 -4.05 1.40 1.40 7097
0.04 -0.00 -0.13 -16.92 21.55 -3.99 1.69 1.52 7103
0.04 -0.00 -1.15 -19.61 20.77 -3.83 1.87 1.62 7109
0.05 -0.01 -2.38 -22.33 19.05 -3.63 1.86 1.68 7116
0.04 -0.00 -3.74 -25.11 18.23 -3.42 1.72 1.71 7122
0.04 -0.00 -4.86 -27.89 15.81 -3.20 1.58 1.70 7129
0.04 -0.00 -5.87 -30.15 12.72 -3.00 1.51 1.67 7135
0.04 -0.00 -6.68 -32.69 9.62 -2.79 1.51 1.60 7141
0.04 -0.00 -7.48 -35.94 6.45 -2.53 1.55 1.46 7148
0.05 -0.00 -8.16 -38.89 3.70 -2.20 1.60 1.26 7154
0.04 -0.00 -9.26 -40.57 1.95 -1.84 1.53 1.01 7160
0.04 0.00 -9.90 -39.87 0.55 -1.34 1.41 0.71 7166
0.04 -0.00 -10.41 -37.67 0.65 -0.75 1.12 0.39 7173
0.04 -0.00 -10.42 -34.09 1.95 -0.12 0.76 0.08 7180
0.04 -0.00 -10.20 -30.34 4.01 0.45 0.16 -0.17 7186
0.04 -0.00 -8.92 -40.72 -11.29 0.88 -0.46 -0.20 7192
0.04 -0.00 -17.29 -31.15 -9.90 4.07 -2.35 0.20 7198
0.03 0.01 -8.48 -12.85 5.75 3.56 -2.37 0.27 7204
0.03 0.04 2.95 -8.00 -8.38 2.96 -3.08 0.17 7212
0.02 0.15 -1.09 -3.05 1.42 2.43 -3.91 0.07 7218
0.01 0.36 3.52 10.86 21.16 2.98 -2.08 0.55 7224
0.01 0.68 7.19 6.94 9.80 3.27 -0.64 1.06 7230
-0.01 0.89 -4.31 -3.45 22.11 4.18 -0.59 1.12 7236
-0.00 1.31 -9.90 -9.16 27.26 4.28 -1.04 0.83 7243
-0.03 1.52 -4.79 -7.32 23.00 4.28 -0.92 0.47 7249
-0.01 1.69 -3.31 -3.70 29.65 4.28 -0.45 0.22 7256
-0.05 1.81 -5.14 -2.27 23.73 4.08 -0.33 -0.20 7262
-0.06 1.83 -0.94 -2.57 19.80 3.47 -0.44 -0.66 7269
-0.04 1.85 4.54 -2.78 19.48 3.35 -0.55 -0.75 7275
-0.03 1.81 5.13 -3.61 27.23 2.94 -1.36 -0.54 7281
-0.03 1.73 3.94 -2.69 15.83 1.30 -1.67 -0.16 7287
-0.02 1.69 0.42 -2.39 13.76 0.66 -1.00 0.15 7294
-0.03 1.66 -0.21 -0.91 11.10 0.32 -0.54 0.14 7301
-0.03 1.67 -0.13 -0.49 10.55 0.15 -0.30 0.04 7307
-0.02 1.62 1.52 -0.95 10.70 0.08 -0.19 -0.00 7313
-0.02 1.57 1.84 -1.20 10.07 0.04 -0.15 0.02 7319
-0.02 1.60 0.98 -0.85 10.11 0.02 -0.13 0.05 7326
-0.01 1.58 0.55 -0.59 10.09 0.02 -0.10 0.04 7332
-0.03 1.52 0.51 -0.55 10.05 0.00 -0.07 0.03 7339
-0.02 1.48 0.76 -0.66 9.84 0.00 -0.06 0.02 7345
-0.02 1.42 0.83 -0.67 9.92 0.00 -0.06 0.03 7351
-0.02 1.31 0.74 -0.62 10.08 0.00 -0.06 0.04 7357
-0.01 1.27 0.63 -0.57 10.16 0.01 -0.05 0.03 7364
-0.01 1.20 0.67 -0.60 10.06 0.01 -0.03 0.04 7370
0.01 1.09 0.72 -0.62 10.00 0.01 -0.03 0.04 7376
0.03 1.03 0.72 -0.60 10.04 0.02 -0.02 0.04 7383
0.05 0.95 0.74 -0.57 10.04 0.02 -0.02 0.05 7389
0.07 0.85 0.67 -0.63 10.03 0.04 -0.02 0.04 7396
0.07 0.77 0.54 1.20 8.95 0.05 -0.01 0.04 7402
0.09 0.74 0.72 -0.71 10.04 0.06 -0.01 0.05 7408
0.11 0.61 0.66 -0.71 10.04 0.06 -0.00 0.05 7414
0.11 0.50 0.68 -0.66 10.00 0.06 0.00 0.05 7420
0.13 0.50 0.66 -0.62 9.92 0.06 0.01 0.05 7427
0.13 0.39 0.76 -0.69 10.04 0.07 0.02 0.04 7434
0.16 0.28 0.71 -0.71 10.04 0.07 0.02 0.04 7440
0.17 0.25 0.96 -0.92 10.09 0.07 0.02 0.03 7446
0.18 0.19 0.81 -0.69 9.96 0.06 0.02 0.02 7452
0.17 0.19 0.82 -0.73 9.83 0.06 0.02 0.02 7458
0.19 0.13 0.86 -0.74 9.92 0.06 0.02 0.02 7464
0.20 0.09 0.79 -0.71 9.95 0.05 0.02 0.01 7471
0.20 0.06 0.79 -0.73 9.96 0.05 0.02 0.01 7478
0.21 0.08 0.78 -0.75 9.97 0.05 0.03 0.01 7484
0.22 0.07 0.78 -0.75 10.04 0.05 0.02 0.01 7490
0.22 0.05 0.77 -0.71 10.07 0.04 0.02 0.01 7496
0.22 0.03 0.86 -0.74 9.98 0.04 0.02 0.01 7502
0.22 0.04 0.85 -1.15 9.77 0.04 0.02 0.01 7508
0.23 -0.00 0.91 -0.75 9.84 0.04 0.02 0.01 7515
0.23 -0.01 0.81 -0.63 9.89 0.03 0.02 0.01 7522
0.23 0.00 0.69 -0.75 10.05 0.04 0.02 0.00 7528
0.24 -0.02 0.72 -0.70 10.00 0.03 0.01 0.00 7534
0.22 -0.02 0.81 -0.87 9.94 0.03 0.01 -0.00 7540
0.24 -0.02 0.74 -0.78 10.04 0.06 0.00 -0.01 7546
0.26 -0.02 0.85 -0.81 10.00 0.03 -0.02 -0.01 7553
0.26 -0.03 0.91 -0.76 10.07 0.03 -0.03 -0.02 7559
0.30 -0.03 0.94 -0.79 9.97 0.04 -0.05 -0.03 7565
0.31 -0.03 1.08 -0.94 10.11 0.05 -0.07 -0.04 7572
0.37 -0.03 0.96 -0.83 9.98 0.06 -0.09 -0.06 7578
0.42 -0.03 0.92 -0.86 10.01 0.08 -0.10 -0.07 7584
0.47 -0.03 1.06 -0.84 9.97 0.09 -0.10 -0.10 7590
0.56 -0.03 1.04 -0.84 9.87 0.11 -0.11 -0.11 7597
0.64 -0.04 0.81 -0.86 10.07 0.13 -0.10 -0.12 7603
0.67 -0.04 0.78 -0.93 10.11 0.16 -0.08 -0.13 7610
0.81 -0.05 0.95 -0.92 10.15 0.20 -0.07 -0.13 7616
0.86 -0.05 0.80 -0.99 10.31 0.26 -0.05 -0.13 7622
0.90 -0.05 0.75 -0.99 10.46 0.34 -0.00 -0.13 7628
1.00 -0.06 0.95 -1.00 10.57 0.46 -0.01 -0.12 7635
1.11 -0.06 0.86 -1.13 10.70 0.62 -0.00 -0.12 7642
1.16 -0.06 0.91 -1.77 11.23 0.82 0.00 -0.12 7648
1.21 -0.06 1.04 -1.78 11.68 1.03 -0.01 -0.14 7654
1.29 -0.06 1.28 -1.37 11.90 1.25 -0.04 -0.15 7660
1.38 -0.04 1.11 -1.35 12.11 1.43 -0.10 -0.18 7667
1.45 -0.07 1.15 -1.42 12.68 1.58 -0.19 -0.18 7673
1.51 -0.06 0.98 -1.55 12.44 1.74 -0.27 -0.18 7680
1.60 -0.07 0.88 -1.65 12.62 1.90 -0.35 -0.18 7686
1.65 -0.08 0.76 -1.65 13.11 2.09 -0.41 -0.17 7693
1.67 -0.06 0.69 -1.75 13.35 2.31 -0.46 -0.16 7699
1.74 -0.07 0.61 -1.96 13.39 2.51 -0.48 -0.15 7705
1.77 -0.07 0.71 -2.31 13.10 2.69 -0.51 -0.14 7711
1.80 -0.06 0.38 -2.36 14.01 2.93 -0.52 -0.13 7718
1.80 -0.08 0.53 -2.32 12.89 3.06 -0.48 -0.11 7725
1.73 -0.07 0.72 -1.81 13.85 3.31 -0.42 -0.12 7731
1.71 -0.07 0.56 -2.48 14.44 3.61 -0.35 -0.11 7737
1.66 -0.07 0.76 -2.56 14.61 3.96 -0.26 -0.13 7743
1.55 -0.05 1.00 -2.94 14.96 4.21 -0.20 -0.16 7750
1.45 -0.07 1.10 -2.99 16.37 4.28 -0.17 -0.21 7756
1.34 -0.06 0.89 -3.27 17.62 4.28 -0.16 -0.25 7762
1.22 -0.05 1.00 -3.68 18.46 4.28 -0.24 -0.29 7769
1.03 -0.04 1.89 -3.77 20.94 4.28 -0.34 -0.33 7776
0.86 -0.03 2.46 -6.94 23.73 4.28 -0.48 -0.42 7782
0.76 -0.04 2.92 -10.93 27.36 4.28 -0.64 -0.57 7788
0.61 -0.04 1.48 -13.02 30.95 4.28 -0.62 -0.57 7794
0.56 -0.04 0.60 -15.93 37.56 4.28 -0.49 -0.47 7801
0.41 -0.04 2.91 -13.21 33.96 4.28 -0.29 -0.43 7808
0.33 -0.02 2.37 -13.32 31.27 4.28 -0.05 -0.42 7814
0.25 -0.02 1.61 -10.02 30.96 4.28 0.14 -0.42 7821
0.21 -0.02 0.30 -7.06 32.56 4.28 0.06 -0.50 7827
0.15 -0.02 0.60 -3.94 33.54 4.28 -0.27 -0.60 7833
0.11 -0.01 1.30 0.19 32.31 4.28 -0.68 -0.66 7839
0.13 -0.01 4.22 4.50 32.10 4.28 -1.14 -0.68 7845
0.10 -0.01 7.75 8.26 33.99 4.28 -1.41 -0.67 7852
0.06 -0.01 9.47 11.81 33.63 4.28 -1.17 -0.64 7859
0.06 -0.01 11.51 19.05 25.27 4.28 -0.37 -0.68 7865
0.04 -0.00 6.59 20.36 21.03 4.28 0.71 -1.27 7871
0.05 -0.01 8.47 24.29 0.31 3.90 0.98 -2.00 7877
0.05 -0.01 6.13 27.97 16.96 1.61 0.99 -2.50 7883
0.06 -0.01 5.80 24.22 31.87 -1.03 1.72 -2.55 7890
0.04 -0.00 4.85 18.43 29.66 -2.90 2.08 -2.42 7897
0.05 0.00 1.74 15.28 20.26 -3.94 1.72 -2.24 7903
0.04 -0.00 -0.06 13.29 18.95 -4.26 1.11 -1.96 7909
0.04 -0.00 0.14 11.64 15.05 -4.28 0.62 -1.68 7916
0.06 -0.01 1.33 9.69 12.27 -4.28 0.27 -1.46 7922
0.04 -0.00 2.54 7.74 10.83 -4.28 0.03 -1.33 7928
0.02 -0.00 3.19 5.91 9.70 -4.28 -0.07 -1.24 7934
0.04 0.01 3.57 4.84 8.96 -4.28 -0.05 -1.17 7941
0.06 -0.01 3.98 3.93 8.67 -4.28 0.08 -1.08 7947
0.04 -0.00 4.22 2.90 8.69 -4.28 0.30 -1.02 7953
0.04 -0.00 4.41 2.15 8.72 -4.28 0.56 -0.97 7960
0.03 -0.00 4.29 1.82 9.18 -4.28 0.81 -0.94 7966
0.03 -0.00 3.95 1.61 9.57 -4.28 1.03 -0.90 7972
0.04 -0.00 3.67 1.30 9.85 -4.28 1.19 -0.84 7979
0.05 -0.00 3.28 0.86 10.06 -4.28 1.34 -0.77 7985
0.06 -0.01 2.82 0.38 10.62 -4.28 1.44 -0.65 7991
0.04 -0.00 2.33 -0.07 11.40 -4.28 1.50 -0.51 7997
0.02 -0.00 1.96 -0.41 12.08 -4.28 1.52 -0.34 8003
0.05 -0.00 1.72 -0.68 12.82 -4.28 1.53 -0.17 8010
0.04 -0.00 1.72 -0.82 13.46 -4.28 1.50 0.00 8016
0.04 -0.00 1.89 -0.83 14.17 -4.28 1.50 0.14 8023
0.04 -0.00 2.08 -0.98 15.03 -4.28 1.54 0.24 8029
0.04 -0.00 2.17 -1.46 15.81 -4.28 1.65 0.27 8035
0.04 -0.00 2.49 -2.26 16.76 -4.28 1.81 0.24 8041
0.05 -0.00 2.33 -3.13 17.82 -4.28 2.02 0.17 8048
0.06 -0.01 1.98 -4.21 18.72 -4.28 2.30 0.07 8054
0.04 -0.00 1.50 -5.07 19.45 -4.28 2.60 -0.04 8060
0.03 -0.00 1.00 -5.80 19.73 -4.28 2.88 -0.14 8067
0.03 0.00 0.72 -6.79 20.20 -4.28 3.08 -0.22 8073
0.03 -0.00 0.08 -7.76 20.73 -4.28 3.15 -0.24 8079
0.03 -0.00 -0.72 -8.61 21.38 -4.26 3.06 -0.17 8086
0.03 -0.00 -1.29 -9.07 21.96 -4.21 2.83 -0.02 8092
0.03 -0.00 -1.25 -9.65 21.88 -4.14 2.53 0.22 8098
0.02 -0.00 -0.77 -9.88 22.26 -4.07 2.09 0.53 8104
0.03 0.00 -0.33 -10.04 22.45 -3.99 1.63 0.80 8111
0.03 -0.00 0.22 -10.39 22.66 -3.90 1.22 1.15 8117
0.02 -0.00 1.03 -10.68 22.48 -3.82 0.91 1.50 8124
0.05 -0.00 1.70 -10.61 22.19 -3.76 0.79 1.81 8130
0.03 -0.00 1.82 -10.93 22.32 -3.68 0.92 2.05 8136
0.03 -0.00 1.47 -12.03 22.52 -3.63 1.19 2.21 8142
0.03 -0.00 0.60 -13.35 22.50 -3.58 1.51 2.31 8150
0.03 -0.00 -0.85 -14.57 22.60 -3.52 1.78 2.38 8156
0.03 -0.00 -2.30 -15.77 22.15 -3.49 1.94 2.42 8162
0.04 -0.00 -3.62 -17.79 21.23 -3.46 1.90 2.42 8168
0.04 -0.00 -4.51 -19.77 19.90 -3.38 1.68 2.36 8174
0.04 -0.00 -5.03 -21.60 18.40 -3.31 1.39 2.27 8181
0.04 -0.00 -5.11 -23.47 16.31 -3.15 1.11 2.13 8187
0.03 -0.00 -4.76 -25.38 13.88 -2.91 0.90 1.92 8194
0.04 -0.00 -4.64 -27.36 11.36 -2.58 0.80 1.64 8200
0.03 -0.00 -4.64 -29.25 8.84 -2.21 0.78 1.32 8206
0.03 -0.00 -4.85 -30.67 6.84 -1.79 0.89 0.98 8213
0.06 -0.01 -5.52 -32.09 5.71 -1.40 1.08 0.65 8219
0.04 -0.00 -6.76 -33.07 5.08 -1.05 1.27 0.41 8225
0.03 -0.00 -7.79 -33.37 5.08 -0.73 1.34 0.13 8231
0.04 -0.00 -8.47 -32.89 5.36 -0.42 1.24 -0.10 8238
0.04 -0.00 -8.63 -31.03 5.92 -0.13 0.96 -0.28 8244
0.03 -0.00 -8.44 -28.84 6.51 0.10 0.55 -0.40 8251
0.04 0.00 -18.65 -40.90 78.47 2.18 -0.77 -0.30 8257
0.04 -0.00 -11.61 -24.10 10.49 2.85 -0.52 -0.04 8263
0.03 0.01 -7.36 -24.00 -8.05 2.81 -1.39 -0.01 8269
0.04 0.08 -4.52 -30.16 -10.97 2.49 -2.92 -0.17 8276
0.04 0.22 -2.07 4.02 5.93 2.97 -3.58 -0.22 8283
0.01 0.53 3.80 0.30 25.67 3.92 -1.85 0.04 8289
0.00 0.78 5.80 3.59 22.51 4.28 -1.12 0.30 8295
-0.01 1.11 -3.66 -3.85 28.21 4.28 -1.34 0.27 8301
-0.02 1.33 -4.65 -8.00 32.15 4.28 -1.39 0.08 8308
-0.03 1.54 2.17 -5.91 23.27 4.28 -1.04 0.07 8314
-0.03 1.64 -0.57 -4.20 25.40 4.26 -0.43 0.11 8321
-0.02 1.66 -3.00 -1.54 19.02 3.84 -0.32 -0.16 8327
-0.03 1.69 0.11 -1.66 16.38 3.50 -0.47 -0.44 8334
-0.03 1.64 2.85 -2.01 20.15 3.55 -0.48 -0.43 8340
-0.02 1.59 2.11 -3.80 30.27 2.84 -1.61 -0.42 8346
-0.02 1.54 3.58 -2.61 13.99 0.79 -1.31 -0.10 8352
-0.02 1.57 0.66 -2.90 11.06 0.22 -0.54 0.09 8359
-0.03 1.51 -0.10 -1.06 10.78 0.07 -0.21 0.11 8366
-0.03 1.48 0.21 -0.61 10.08 0.04 -0.12 0.04 8372
-0.02 1.46 0.97 -0.95 10.16 0.03 -0.10 0.01 8378
-0.02 1.47 1.14 -1.22 10.23 0.00 -0.09 0.03 8384
-0.02 1.45 0.73 -1.00 10.11 -0.01 -0.09 0.05 8391
-0.03 1.42 0.57 -0.70 10.02 -0.02 -0.07 0.04 8397
-0.02 1.39 0.74 -0.63 9.95 -0.01 -0.05 0.04 8403
0.01 1.36 0.94 -0.70 9.98 -0.01 -0.05 0.03 8410
0.01 1.33 0.86 -0.70 9.98 -0.01 -0.05 0.04 8416
0.00 1.26 0.78 -0.59 10.08 -0.00 -0.06 0.03 8422
0.01 1.18 0.73 -0.66 10.09 0.00 -0.05 0.03 8429
0.04 1.11 0.75 -0.62 10.04 0.01 -0.04 0.03 8435
0.04 1.05 0.77 -0.63 10.08 0.02 -0.02 0.03 8441
0.03 0.96 0.74 -0.63 10.03 0.03 -0.02 0.03 8448
0.06 0.85 0.82 -0.65 9.91 0.04 -0.02 0.03 8454
0.06 0.77 0.88 -0.68 10.09 0.04 -0.02 0.03 8460
0.07 0.70 0.78 -0.71 9.96 0.04 -0.01 0.03 8467
0.09 0.64 0.78 -0.78 10.17 0.05 -0.01 0.03 8473
0.10 0.49 0.77 -0.63 9.98 0.05 -0.01 0.03 8479
0.11 0.46 0.80 -0.71 10.04 0.05 -0.00 0.03 8485
0.12 0.39 0.79 -0.67 9.97 0.05 -0.00 0.03 8492
0.14 0.39 0.80 -0.72 10.04 0.06 0.00 0.03 8498
0.15 0.27 0.80 -0.75 10.04 0.06 0.01 0.03 8505
0.14 0.25 0.86 -0.75 9.92 0.06 0.00 0.02 8511
0.16 0.21 0.91 -0.77 9.97 0.06 0.00 0.02 8517
0.15 0.12 0.89 -0.77 9.96 0.06 -0.00 0.01 8523
0.14 0.14 0.89 -0.74 9.96 0.05 -0.01 0.01 8529
0.15 0.12 0.87 -0.70 9.94 0.05 -0.02 0.00 8536
0.19 0.09 0.88 -0.73 10.01 0.05 -0.02 -0.00 8542
0.19 0.08 0.78 -0.77 9.97 0.05 -0.02 -0.00 8549
0.23 0.06 0.81 -0.76 10.02 0.06 -0.03 -0.00 8555
0.27 0.05 0.78 -0.78 10.04 0.06 -0.03 -0.00 8561
0.26 0.03 0.81 -0.79 9.91 0.06 -0.03 0.00 8567
0.24 0.02 0.82 -0.84 9.98 0.06 -0.03 0.00 8573
0.26 0.03 0.91 -0.74 10.03 0.06 -0.04 0.00 8580
0.30 0.01 0.86 -0.71 9.97 0.06 -0.04 0.00 8586
0.30 -0.02 0.90 -0.70 9.99 0.06 -0.04 -0.00 8593
0.29 -0.02 0.79 -0.81 9.94 0.06 -0.04 -0.01 8599
0.31 -0.02 0.88 -0.91 9.94 0.06 -0.04 -0.01 8605
0.34 -0.03 0.94 -0.91 9.93 0.06 -0.04 -0.01 8611
0.37 -0.04 0.84 -0.79 10.04 0.05 -0.05 -0.02 8617
0.40 -0.02 0.86 -0.89 9.98 0.05 -0.05 -0.03 8624
0.42 -0.03 0.84 -0.86 9.99 0.05 -0.05 -0.03 8630
0.47 -0.05 0.85 -0.87 10.01 0.05 -0.05 -0.03 8637
0.51 -0.03 0.89 -0.90 9.95 0.05 -0.05 -0.04 8643
0.57 -0.04 0.82 -0.89 10.01 0.06 -0.04 -0.04 8649
0.58 -0.04 0.80 -0.90 9.97 0.07 -0.04 -0.04 8655
0.63 -0.04 0.79 -0.87 10.06 0.08 -0.03 -0.03 8662
0.70 -0.04 0.82 -0.93 10.07 0.10 -0.01 -0.03 8668
0.72 -0.04 0.77 -0.94 10.06 0.11 -0.01 -0.02 8675
0.78 -0.04 0.76 -0.96 10.14 0.14 0.00 -0.01 8681
0.85 -0.05 0.88 -0.91 10.15 0.18 0.01 -0.01 8687
0.88 -0.05 0.88 -1.03 10.29 0.24 0.04 -0.00 8693
0.94 -0.06 0.90 -1.09 10.41 0.30 0.05 0.00 8699
1.00 -0.05 0.96 -1.08 10.75 0.42 0.07 -0.00 8707
1.04 -0.06 0.97 -1.11 10.90 0.58 0.13 -0.01 8713
1.10 -0.06 1.05 -1.24 11.26 0.81 0.16 -0.03 8719
1.15 -0.05 1.66 -1.33 11.88 1.09 0.14 -0.06 8725
1.24 -0.07 1.28 -1.42 12.39 1.35 0.09 -0.09 8731
1.31 -0.06 1.43 -1.52 12.36 1.57 0.00 -0.11 8738
1.38 -0.07 1.23 -0.84 12.43 1.73 -0.12 -0.12 8744
1.45 -0.07 1.13 -1.66 12.67 1.87 -0.23 -0.14 8751
1.50 -0.07 1.01 -1.64 12.97 2.01 -0.30 -0.15 8757
1.51 -0.06 0.85 -1.68 12.88 2.19 -0.34 -0.14 8764
1.54 -0.06 1.05 -1.80 13.25 2.38 -0.37 -0.12 8770
1.61 -0.07 0.50 -2.02 13.18 2.58 -0.40 -0.11 8776
1.61 -0.08 0.76 -2.11 13.24 2.79 -0.39 -0.09 8782
1.58 -0.06 0.86 -2.36 13.75 3.02 -0.35 -0.09 8788
1.61 -0.08 0.92 -2.44 14.19 3.31 -0.32 -0.08 8796
1.60 -0.07 0.99 -2.45 14.80 3.66 -0.27 -0.09 8802
1.51 -0.07 0.93 -2.73 14.67 4.01 -0.25 -0.12 8808
1.45 -0.06 1.83 -2.86 14.87 4.23 -0.20 -0.17 8814
1.34 -0.06 1.39 -2.75 15.82 4.28 -0.18 -0.23 8821
1.22 -0.05 0.83 -2.98 17.79 4.28 -0.21 -0.27 8827
1.12 -0.06 1.69 -3.58 18.94 4.28 -0.33 -0.31 8834
0.95 -0.04 2.95 -4.77 20.09 4.28 -0.51 -0.38 8840
0.91 -0.04 4.29 -6.18 25.13 4.28 -0.75 -0.52 8847
0.80 -0.03 3.14 -8.85 26.32 4.28 -0.86 -0.65 8853
0.69 -0.03 2.77 -11.96 32.96 4.28 -0.94 -0.73 8859
0.56 -0.04 1.67 -15.20 38.62 4.28 -0.85 -0.64 8865
0.47 -0.01 2.90 -14.96 36.08 4.28 -0.73 -0.55 8872
0.35 -0.04 1.68 -12.75 31.94 4.28 -0.61 -0.60 8879
0.23 -0.02 1.36 -10.94 32.22 4.28 -0.42 -0.61 8885
0.23 -0.02 0.23 -7.25 34.51 4.28 -0.50 -0.66 8891
0.15 -0.01 0.29 -4.05 35.48 4.28 -0.86 -0.71 8898
0.15 -0.01 2.60 -0.08 34.78 4.28 -1.38 -0.73 8904
0.12 -0.01 6.63 4.83 35.36 4.28 -1.78 -0.70 8910
0.06 -0.01 8.69 10.10 35.66 4.28 -1.80 -0.60 8916
0.05 -0.01 10.33 17.01 29.80 4.28 -1.33 -0.52 8923
0.04 -0.00 13.40 22.38 25.37 4.28 -0.52 -0.86 8930
0.03 -0.00 8.76 21.32 5.35 4.27 0.56 -1.70 8936
0.05 0.00 9.51 25.93 3.26 3.63 0.66 -2.39 8942
0.03 -0.00 8.23 23.28 27.56 1.47 1.25 -2.63 8948
0.04 -0.00 8.07 20.08 34.60 -0.78 2.36 -2.57 8954
0.04 -0.00 5.18 17.89 28.38 -2.37 2.71 -2.43 8962
0.04 -0.00 1.54 17.11 19.01 -3.41 2.23 -2.21 8968
0.04 -0.00 0.48 15.01 14.97 -4.10 1.49 -1.89 8974
0.05 -0.00 0.56 12.63 14.78 -4.28 0.91 -1.57 8980
0.03 -0.00 1.40 10.33 12.96 -4.28 0.47 -1.32 8987
0.05 -0.00 2.23 8.11 11.77 -4.28 0.12 -1.14 8993
0.04 -0.00 2.85 6.30 10.87 -4.28 -0.09 -1.00 8999
0.04 -0.00 3.35 5.11 9.86 -4.28 -0.16 -0.86 9006
0.04 0.00 3.93 4.12 9.32 -4.28 -0.13 -0.75 9012
0.04 -0.00 4.57 3.26 8.75 -4.28 -0.03 -0.68 9018
0.04 -0.00 5.02 2.34 8.56 -4.28 0.13 -0.64 9024
0.03 -0.00 5.27 1.76 8.56 -4.28 0.32 -0.62 9030
0.02 -0.00 5.08 1.37 8.78 -4.28 0.51 -0.61 9037
0.03 -0.00 4.92 0.76 9.18 -4.28 0.70 -0.58 9043
0.04 -0.00 4.50 0.30 9.65 -4.28 0.91 -0.54 9050
0.04 -0.00 4.30 -0.23 9.75 -4.28 1.07 -0.47 9056
0.04 0.00 4.08 -0.74 10.26 -4.28 1.24 -0.37 9062
0.02 -0.00 3.84 -1.29 10.95 -4.28 1.34 -0.32 9068
0.02 -0.00 3.52 -1.62 11.85 -4.28 1.40 -0.22 9074
0.03 0.01 3.25 -1.91 12.90 -4.28 1.44 -0.10 9081
0.04 -0.00 3.14 -2.14 13.89 -4.28 1.48 0.03 9088
0.03 -0.00 3.13 -2.39 14.76 -4.28 1.54 0.15 9094
0.04 -0.00 3.23 -2.75 15.49 -4.28 1.62 0.25 9100
0.05 -0.00 3.28 -3.36 16.47 -4.28 1.74 0.30 9106
0.05 -0.01 3.23 -4.20 17.34 -4.28 1.91 0.30 9112
0.06 -0.01 3.11 -5.27 18.00 -4.28 2.09 0.28 9119
0.04 -0.00 2.86 -6.68 18.74 -4.28 2.31 0.25 9125
0.04 -0.00 2.36 -6.86 19.22 -4.28 2.52 0.22 9132
0.04 -0.00 2.05 -7.58 19.23 -4.28 2.72 0.20 9138
0.05 -0.00 1.46 -8.14 19.27 -4.27 2.82 0.21 9144
0.03 -0.00 0.76 -8.75 19.59 -4.18 2.82 0.24 9150
0.02 -0.00 0.46 -9.30 20.04 -4.00 2.71 0.30 9157
0.04 -0.00 -0.74 -9.65 20.32 -3.74 2.49 0.38 9163
0.04 -0.00 -0.75 -10.53 21.32 -3.52 2.19 0.49 9169
0.03 -0.00 -0.46 -11.08 23.14 -3.32 1.81 0.61 9176
0.05 -0.01 0.58 -11.45 25.16 -3.21 1.46 0.74 9182
0.04 -0.00 1.08 -11.80 26.11 -3.24 1.21 0.90 9189
0.03 -0.00 1.22 -12.14 25.59 -3.38 1.10 1.11 9195
0.05 -0.01 1.87 -13.47 24.72 -3.58 1.20 1.36 9201
0.05 -0.00 1.80 -13.82 23.06 -3.77 1.42 1.59 9207
0.05 -0.00 0.99 -14.38 22.07 -3.91 1.83 1.78 9213
0.05 -0.00 -0.31 -15.64 21.62 -3.99 2.32 1.97 9221
0.04 -0.00 -1.89 -17.56 20.91 -3.97 2.57 2.13 9227
0.05 0.00 -3.60 -19.65 20.03 -3.86 2.52 2.26 9233
0.04 -0.00 -4.95 -21.62 19.11 -3.68 2.23 2.39 9239
0.04 -0.00 -5.56 -23.45 17.68 -3.44 1.77 2.49 9246
0.05 -0.00 -5.56 -25.07 15.74 -3.19 1.28 2.51 9252
0.04 -0.00 -5.33 -26.94 13.47 -2.92 0.86 2.45 9259
0.04 -0.00 -5.05 -29.03 11.03 -2.64 0.61 2.30 9265
0.04 -0.00 -5.05 -31.09 8.83 -2.33 0.55 2.06 9271
0.04 -0.00 -5.28 -33.29 6.52 -2.03 0.68 1.78 9278
0.04 -0.00 -5.92 -35.05 4.57 -1.72 0.92 1.47 9284
0.05 -0.01 -6.95 -35.85 3.65 -1.35 1.10 1.14 9290
0.04 -0.00 -8.05 -35.25 3.21 -0.92 1.21 0.82 9296
0.03 -0.00 -9.19 -33.69 3.26 -0.44 1.13 0.53 9303
0.05 -0.00 -9.90 -30.93 4.84 0.01 0.81 0.32 9309
0.04 -0.00 -18.37 -51.81 5.06 0.97 -0.28 0.27 9316
0.03 -0.00 -1.79 -27.83 -5.64 2.98 -0.46 0.40 9322
0.04 -0.00 -7.41 -19.29 -4.61 2.93 -0.88 0.34 9328
0.04 0.06 -4.27 -30.38 -4.24 2.74 -2.12 0.28 9334
0.03 0.20 -5.77 -14.26 -3.70 2.56 -3.67 0.23 9340
0.03 0.36 -0.88 1.79 13.05 3.24 -2.73 0.44 9348
0.01 0.64 5.53 5.77 20.04 4.23 -0.52 0.92 9354
0.00 1.02 -2.37 -0.16 20.70 4.28 -0.49 1.04 9360
-0.01 1.32 -9.01 -6.29 32.78 4.28 -1.01 0.64 9366
-0.02 1.55 -4.82 -7.37 28.24 4.28 -1.01 0.20 9373
-0.01 1.73 -3.02 -6.44 27.78 4.28 -0.34 -0.03 9379
-0.02 1.78 -3.67 -3.30 25.22 4.28 -0.09 -0.37 9385
-0.03 1.78 0.65 -2.46 21.44 4.09 -0.36 -0.79 9392
-0.03 1.75 6.10 -4.53 35.25 3.83 -1.60 -0.85 9398
-0.02 1.69 6.23 -3.74 17.34 1.60 -2.13 -0.38 9405
-0.00 1.67 1.40 -3.46 13.81 0.68 -1.17 0.10 9411
-0.02 1.57 -0.23 -1.31 11.40 0.28 -0.56 0.19 9417
-0.04 1.56 -0.62 -0.36 10.72 0.12 -0.29 0.09 9423
-0.02 1.50 0.24 -0.83 10.33 0.05 -0.16 0.00 9431
-0.02 1.48 1.35 -1.66 9.89 0.02 -0.13 0.01 9437
0.01 1.45 1.12 -1.15 10.05 0.01 -0.15 0.05 9443
-0.04 1.46 0.50 -0.82 10.01 0.01 -0.14 0.05 9449
-0.03 1.43 0.45 -0.78 10.14 -0.01 -0.12 0.02 9455
-0.03 1.47 0.76 -0.80 10.00 -0.02 -0.10 0.02 9462
0.00 1.43 0.74 -0.77 9.93 -0.01 -0.09 0.03 9468
-0.00 1.40 0.68 -0.67 10.05 -0.01 -0.09 0.03 9475
-0.01 1.36 0.72 -0.63 10.03 0.00 -0.08 0.03 9481
0.00 1.31 0.73 -0.68 10.02 0.01 -0.08 0.02 9487
0.01 1.23 0.70 -0.67 9.86 0.01 -0.08 0.02 9493
-0.01 1.20 0.67 -0.69 10.01 0.01 -0.08 0.02 9500
0.02 1.11 0.63 -0.65 10.10 0.02 -0.06 0.02 9506
0.03 1.02 0.65 -0.69 9.78 0.02 -0.06 0.02 9512
0.04 0.94 0.71 -0.66 10.05 0.03 -0.05 0.02 9519
0.03 0.90 0.67 -0.71 10.09 0.04 -0.05 0.02 9525
0.04 0.78 0.63 -0.74 10.00 0.04 -0.03 0.02 9531
0.05 0.69 0.69 -0.73 10.00 0.04 -0.03 0.02 9538
0.07 0.59 0.65 -0.63 9.97 0.04 -0.02 0.02 9544
0.07 0.62 0.65 -0.72 9.98 0.04 -0.01 0.02 9550
0.10 0.51 0.62 -0.72 9.94 0.04 -0.00 0.03 9556
0.09 0.50 0.11 -0.71 9.95 0.04 -0.00 0.03 9563
0.10 0.43 0.75 -0.76 10.02 0.05 0.00 0.02 9569
0.10 0.37 0.83 -0.94 9.95 0.04 -0.00 0.02 9575
0.10 0.29 0.82 -0.76 9.96 0.04 -0.00 0.02 9582
0.12 0.25 0.61 -0.70 9.88 0.04 -0.01 0.01 9588
0.13 0.25 0.79 -0.80 9.94 0.03 -0.01 0.01 9594
0.17 0.23 0.74 -0.79 9.97 0.03 -0.02 0.00 9601
0.18 0.17 0.74 -0.79 10.04 0.03 -0.02 -0.00 9607
0.19 0.14 0.68 -0.81 10.02 0.02 -0.02 0.00 9613
0.21 0.11 0.71 -0.77 9.95 0.03 -0.02 -0.00 9620
0.19 0.09 0.66 -0.81 10.01 0.02 -0.02 0.00 9626
0.19 0.08 0.68 -0.79 9.97 0.02 -0.02 0.00 9632
0.20 0.09 0.72 -0.80 10.04 0.02 -0.02 0.00 9638
0.20 0.06 0.72 -0.74 9.97 0.03 -0.02 0.00 9645
0.20 0.04 0.75 -0.80 10.01 0.02 -0.02 0.00 9651
0.22 0.08 0.77 -0.79 10.01 0.02 -0.02 -0.00 9657
0.22 0.02 0.71 -0.79 9.96 0.02 -0.02 -0.01 9664
0.24 0.03 1.22 -0.89 10.13 0.02 -0.02 -0.01 9670
0.29 0.00 0.76 -1.44 10.04 0.02 -0.02 -0.01 9676
0.30 0.03 0.74 -0.85 9.96 0.02 -0.02 -0.01 9682
0.33 0.01 0.76 -0.86 9.95 0.02 -0.02 -0.02 9689
0.34 0.02 0.73 -0.81 9.98 0.02 -0.02 -0.01 9695
0.37 -0.01 0.73 -0.84 9.96 0.03 -0.02 -0.02 9701
0.40 -0.02 0.74 -1.06 9.97 0.02 -0.03 -0.01 9708
0.42 -0.01 0.58 -1.05 9.85 0.03 -0.02 -0.01 9714
0.48 -0.02 0.80 -1.04 9.92 0.03 -0.03 -0.01 9720
0.50 -0.01 0.70 -0.77 10.07 0.04 -0.03 -0.01 9726
0.54 -0.03 0.78 -0.81 10.00 0.05 -0.03 -0.01 9733
0.63 -0.04 0.77 -0.83 10.10 0.06 -0.03 -0.01 9739
0.70 -0.05 0.75 -0.90 10.16 0.09 -0.02 -0.02 9746
0.75 -0.04 0.75 -0.90 10.27 0.13 -0.02 -0.02 9752
0.86 -0.05 0.86 -0.97 10.38 0.19 -0.01 -0.02 9758
0.96 -0.06 0.88 -0.95 10.47 0.28 0.00 -0.04 9764
1.07 -0.06 0.87 -0.97 10.84 0.40 0.01 -0.05 9771
1.13 -0.06 0.88 -1.09 11.06 0.60 0.04 -0.08 9778
1.19 -0.07 1.05 -1.15 11.56 0.90 0.06 -0.10 9784
1.27 -0.06 1.01 -1.37 12.11 1.30 0.06 -0.12 9790
1.37 -0.06 1.11 -1.17 12.69 1.67 0.02 -0.15 9796
1.44 -0.07 1.17 -1.57 13.15 1.83 -0.07 -0.15 9802
1.48 -0.06 0.91 -1.45 12.95 1.99 -0.17 -0.15 9809
1.52 -0.07 0.66 -2.98 13.20 2.09 -0.33 -0.14 9816
1.56 -0.07 0.83 -1.58 13.24 2.23 -0.42 -0.13 9822
1.64 -0.07 0.69 -1.62 13.39 2.39 -0.44 -0.13 9828
1.68 -0.08 2.33 0.81 11.66 2.59 -0.44 -0.17 9835
1.65 -0.06 1.73 -0.08 11.58 2.79 -0.46 -0.17 9841
1.69 -0.07 0.16 -2.55 13.83 3.01 -0.43 -0.14 9847
1.66 -0.07 0.78 -2.27 14.65 3.26 -0.42 -0.15 9853
1.65 -0.06 0.89 -2.44 15.45 3.60 -0.44 -0.16 9861
1.60 -0.06 0.79 -3.00 15.75 3.98 -0.43 -0.18 9867
1.57 -0.07 0.22 -2.27 16.58 4.22 -0.41 -0.23 9873
1.46 -0.06 0.92 -3.16 18.04 4.28 -0.45 -0.22 9879
1.38 -0.07 2.26 -2.90 18.67 4.28 -0.57 -0.28 9886
1.19 -0.04 3.09 -2.68 18.52 4.28 -0.82 -0.44 9892
1.04 -0.05 4.71 -4.25 21.36 4.28 -1.05 -0.64 9899
0.90 -0.03 0.72 -9.07 22.44 4.28 -1.31 -0.81 9905
0.86 -0.04 1.48 -12.71 28.72 4.28 -1.46 -0.92 9912
0.71 -0.05 1.58 -12.88 32.80 4.28 -1.44 -0.95 9918
0.54 -0.03 1.45 -15.40 36.66 4.28 -1.35 -0.88 9924
0.43 -0.03 2.47 -14.73 32.81 4.28 -1.14 -0.82 9930
0.36 -0.02 2.53 -11.48 30.48 4.28 -1.02 -0.88 9937
0.27 -0.02 2.22 -7.96 31.48 4.28 -0.90 -0.94 9944
0.16 -0.01 1.50 -4.98 32.97 4.28 -1.02 -0.98 9950
0.12 -0.01 2.33 -1.50 32.28 4.28 -1.32 -1.01 9956
0.13 -0.01 4.52 2.31 31.40 4.28 -1.82 -1.00 9963
0.07 -0.01 7.54 6.87 31.48 4.28 -2.08 -0.96 9969
0.07 -0.01 10.33 9.88 31.96 4.28 -1.95 -0.89 9975
0.06 -0.01 12.72 14.67 25.62 4.28 -1.49 -0.87 9981
0.04 -0.00 12.41 20.30 22.76 4.28 -0.69 -1.23 9988
0.05 -0.00 9.50 21.59 1.52 4.23 -0.03 -1.82 9995
0.04 -0.00 10.21 26.19 7.29 3.36 0.11 -2.30 10001
0.04 -0.00 8.68 23.50 29.49 0.91 1.08 -2.39 10007
0.06 -0.01 7.25 19.94 32.70 -1.30 1.99 -2.17 10013
0.07 -0.01 4.13 17.62 22.65 -2.81 2.09 -1.89 10020
0.05 -0.00 2.39 15.53 18.69 -3.71 1.59 -1.58 10027
0.03 -0.00 1.29 13.38 14.65 -4.21 1.02 -1.29 10033
0.03 -0.00 1.67 11.09 12.49 -4.28 0.62 -1.05 10039
0.04 -0.00 2.50 8.98 10.27 -4.28 0.36 -0.89 10046
0.04 -0.00 3.23 7.13 9.02 -4.28 0.22 -0.76 10052
0.05 -0.01 3.27 5.78 8.15 -4.28 0.21 -0.67 10058
0.04 -0.00 3.31 4.89 7.89 -4.28 0.27 -0.60 10064
0.04 -0.00 3.52 3.92 7.71 -4.28 0.40 -0.56 10071
0.06 -0.01 3.89 3.11 8.05 -4.28 0.56 -0.55 10077
0.04 -0.00 4.16 2.39 8.17 -4.28 0.74 -0.57 10084
0.04 -0.00 4.06 2.05 8.34 -4.28 0.93 -0.58 10090
0.04 -0.00 3.80 1.96 8.54 -4.28 1.12 -0.58 10096
0.05 -0.01 3.55 1.82 9.17 -4.28 1.31 -0.54 10102
0.04 -0.00 3.37 1.60 10.02 -4.28 1.50 -0.46 10108
0.05 -0.00 2.52 1.25 11.02 -4.28 1.67 -0.36 10115
0.03 -0.00 2.73 0.80 11.60 -4.28 1.75 -0.24 10122
0.03 -0.00 2.30 0.38 12.42 -4.28 1.82 -0.10 10128
0.03 -0.00 2.04 -0.02 13.25 -4.28 1.83 0.01 10134
0.04 -0.00 1.82 -0.65 14.13 -4.28 1.81 0.13 10140
0.03 -0.00 1.60 -1.20 14.99 -4.28 1.78 0.26 10146
0.04 -0.00 1.56 -1.90 15.88 -4.28 1.77 0.35 10153
0.03 -0.00 1.55 -2.53 16.65 -4.28 1.78 0.41 10160
0.04 -0.00 1.58 -3.25 17.40 -4.28 1.83 0.44 10166
0.05 0.00 1.62 -4.23 18.09 -4.28 1.96 0.43 10172
0.06 -0.01 1.38 -5.30 18.33 -4.28 2.12 0.38 10178
0.04 -0.00 1.10 -6.22 18.49 -4.28 2.31 0.33 10185
0.06 -0.01 0.80 -6.93 18.46 -4.28 2.47 0.28 10191
0.03 -0.00 0.36 -7.68 18.18 -4.26 2.58 0.26 10198
0.04 -0.00 -0.10 -8.28 18.29 -4.20 2.63 0.28 10204
0.04 -0.00 -0.59 -8.54 19.26 -4.05 2.61 0.33 10210
0.04 -0.00 -0.69 -8.52 19.80 -3.81 2.52 0.42 10217
0.04 -0.00 -0.73 -8.18 20.84 -3.61 2.38 0.52 10223
0.04 -0.00 -0.56 -7.75 22.31 -3.50 2.27 0.64 10229
0.04 -0.00 -0.30 -7.56 24.00 -3.49 2.11 0.76 10235
0.03 -0.00 -0.26 -7.85 25.26 -3.59 1.98 0.87 10243
0.03 -0.00 0.02 -8.44 25.84 -3.74 1.89 1.06 10249
0.01 -0.00 0.20 -9.21 25.49 -3.94 1.78 1.18 10255
0.04 -0.00 0.56 -10.28 24.87 -4.08 1.69 1.33 10261
0.03 -0.00 0.56 -11.43 23.90 -4.14 1.66 1.46 10267
0.03 -0.00 0.70 -12.73 23.13 -4.15 1.68 1.57 10274
0.03 -0.00 0.63 -14.27 22.31 -4.12 1.75 1.66 10280
0.03 -0.00 0.20 -16.07 21.32 -4.05 1.83 1.72 10287
0.03 -0.00 -0.61 -17.93 19.79 -3.89 1.89 1.77 10293
0.04 -0.00 -1.77 -19.72 18.16 -3.66 1.99 1.84 10300
0.03 -0.00 -2.87 -21.78 16.89 -3.40 2.07 1.90 10306
0.03 -0.00 -3.96 -24.16 15.97 -3.11 1.96 1.90 10312
0.02 -0.00 -4.77 -26.57 14.26 -2.80 1.69 1.84 10318
0.05 -0.00 -5.15 -28.57 12.06 -2.48 1.38 1.71 10326
0.04 -0.00 -5.11 -30.15 9.33 -2.15 1.18 1.53 10332
0.04 -0.00 -5.07 -31.87 7.08 -1.82 1.12 1.29 10338
0.05 -0.00 -5.47 -33.68 5.79 -1.49 1.18 1.02 10344
0.04 -0.00 -5.62 -34.91 4.82 -1.15 1.30 0.74 10351
0.04 -0.00 -6.42 -34.81 4.29 -0.77 1.37 0.47 10357
0.03 -0.00 -7.23 -33.38 3.97 -0.31 1.35 0.25 10363
0.03 -0.00 -7.82 -31.00 4.62 0.08 1.17 0.08 10370
0.04 0.01 -8.18 -27.90 6.10 0.38 0.81 -0.03 10376
0.03 -0.00 -27.41 -44.33 67.96 1.43 -1.61 0.27 10383
0.04 -0.00 -6.44 -24.56 -1.74 3.01 -1.23 0.63 10389
0.03 -0.00 -8.62 -18.77 -5.80 3.11 -2.24 0.68 10395
0.03 0.05 -1.81 -25.26 -7.50 2.78 -3.61 0.64 10401
0.02 0.19 -1.44 0.35 -0.08 2.83 -4.26 0.65 10408
0.02 0.37 1.27 0.70 23.38 3.68 -2.45 0.99 10415
0.00 0.66 3.95 7.36 17.85 4.24 -0.68 1.43 10421
0.01 0.96 -8.92 -4.13 22.98 4.28 -0.93 1.38 10427
-0.01 1.32 -13.00 -9.94 32.31 4.28 -1.12 0.90 10434
-0.01 1.53 -6.78 -7.10 27.70 4.28 -0.79 0.37 10440
-0.01 1.68 -5.40 -4.04 29.42 4.28 -0.43 -0.09 10446
-0.04 1.78 -2.77 -2.84 24.91 4.15 -0.51 -0.59 10454
-0.05 1.80 3.12 -3.06 20.36 3.65 -0.62 -0.84 10460
-0.03 1.78 6.36 -4.09 31.96 3.10 -1.85 -0.74 10466
-0.01 1.73 5.17 -2.89 16.88 1.36 -2.20 -0.26 10473
-0.01 1.66 0.91 -2.54 13.41 0.61 -1.37 0.13 10479
-0.01 1.66 -0.57 -1.20 11.71 0.29 -0.69 0.17 10485
-0.03 1.60 -0.58 -0.64 10.95 0.07 -0.30 0.06 10491
0.02 1.60 0.52 -1.01 10.27 0.03 -0.17 -0.01 10499
-0.03 1.59 1.23 -1.32 10.25 0.01 -0.14 0.02 10505
-0.04 1.57 0.73 -0.84 10.21 -0.00 -0.14 0.06 10511
-0.02 1.54 0.39 -0.67 10.23 -0.01 -0.11 0.04 10517
-0.00 1.49 0.47 -0.67 10.03 -0.01 -0.09 0.04 10524
-0.01 1.44 0.76 -0.65 10.09 -0.00 -0.07 0.04 10530
0.01 1.35 0.71 -0.54 9.92 0.00 -0.07 0.04 10536
-0.01 1.31 0.67 -0.52 10.09 0.00 -0.07 0.04 10543
0.01 1.23 0.63 -0.66 10.04 0.01 -0.07 0.03 10550
0.01 1.12 0.61 -0.61 9.97 0.01 -0.06 0.03 10556
0.02 1.02 0.51 -0.64 10.28 0.02 -0.05 0.03 10562
0.04 0.94 0.61 -1.20 10.09 0.03 -0.03 0.03 10568
0.04 0.87 0.66 -0.65 10.10 0.03 -0.02 0.03 10574
0.04 0.80 1.16 -0.20 9.98 0.03 -0.01 0.03 10582
0.04 0.72 0.63 -0.74 10.03 0.04 -0.01 0.03 10588
0.03 0.65 0.64 -0.65 10.00 0.04 -0.00 0.03 10594
0.05 0.57 0.68 -0.67 9.98 0.04 0.00 0.03 10600
0.06 0.49 0.63 -0.61 9.98 0.05 0.00 0.04 10606
0.08 0.46 0.59 -0.36 9.89 0.06 0.01 0.04 10613
0.09 0.39 0.71 -0.63 9.98 0.06 0.00 0.04 10619
0.10 0.29 0.74 -0.70 9.91 0.06 0.00 0.03 10626
0.12 0.21 0.80 -0.66 9.97 0.07 0.00 0.02 10632
0.13 0.18 0.84 -0.84 10.05 0.07 -0.00 0.02 10638
0.12 0.17 0.80 -0.73 10.00 0.06 -0.01 0.01 10645
0.13 0.09 0.77 -0.70 10.03 0.06 -0.01 0.00 10651
0.13 0.12 0.73 -0.73 9.98 0.05 -0.01 -0.00 10657
0.14 0.08 0.74 -0.74 10.02 0.05 -0.02 -0.00 10663
0.15 0.06 0.73 -0.77 9.98 0.05 -0.02 -0.00 10670
0.19 0.06 0.67 -0.74 9.98 0.05 -0.01 -0.01 10676
0.23 0.02 0.76 -0.45 10.02 0.06 -0.02 0.00 10683
0.23 0.02 0.65 -0.79 10.10 0.06 -0.02 0.00 10689
0.28 0.02 0.80 -1.42 10.10 0.06 -0.02 0.00 10695
0.29 0.00 0.69 -0.95 9.85 0.07 -0.04 0.00 10701
0.27 0.01 0.23 -0.88 9.99 0.08 -0.04 0.00 10707
0.31 0.01 0.85 -1.00 9.99 0.09 -0.05 -0.01 10715
0.34 -0.01 0.92 -0.85 10.09 0.09 -0.06 -0.01 10721
0.36 -0.04 0.93 -0.88 10.01 0.08 -0.06 -0.03 10727
0.40 -0.02 0.81 -0.85 9.99 0.08 -0.05 -0.04 10733
0.43 -0.04 0.83 -0.94 9.94 0.08 -0.05 -0.04 10739
0.45 -0.03 0.74 -0.85 9.95 0.08 -0.05 -0.05 10746
0.50 -0.03 0.64 -0.91 10.03 0.08 -0.04 -0.06 10753
0.54 -0.05 0.75 -0.95 9.96 0.08 -0.03 -0.06 10759
0.56 -0.03 0.74 -0.92 9.92 0.08 -0.03 -0.06 10765
0.62 -0.03 0.72 -0.93 9.87 0.08 -0.02 -0.06 10771
0.66 -0.05 0.66 -0.92 9.98 0.08 -0.02 -0.06 10778
0.69 -0.03 0.70 -0.91 10.03 0.09 -0.01 -0.05 10784
0.73 -0.03 0.80 -0.96 10.11 0.11 -0.00 -0.05 10790
0.78 -0.04 0.80 -0.94 10.19 0.15 -0.00 -0.05 10797
0.87 -0.04 0.75 -0.92 10.18 0.21 -0.00 -0.05 10804
0.95 -0.04 0.68 -0.95 10.43 0.30 0.01 -0.05 10810
1.02 -0.06 0.71 -1.04 10.57 0.42 0.03 -0.04 10816
1.07 -0.06 0.73 -1.10 10.94 0.58 0.04 -0.04 10822
1.12 -0.06 0.78 -1.19 11.16 0.78 0.06 -0.05 10829
1.18 -0.05 0.95 -1.24 11.47 1.03 0.08 -0.06 10835
1.22 -0.05 1.01 -1.31 11.60 1.24 0.08 -0.08 10842
1.29 -0.06 1.11 -1.51 11.88 1.42 0.04 -0.09 10848
1.37 -0.06 1.10 -1.52 11.99 1.57 -0.01 -0.10 10855
1.41 -0.06 1.09 -1.48 12.28 1.71 -0.09 -0.11 10861
1.44 -0.06 0.80 -1.50 12.46 1.84 -0.17 -0.12 10867
1.49 -0.07 0.89 -1.72 12.77 2.00 -0.21 -0.12 10873
1.55 -0.06 0.81 -1.58 12.78 2.20 -0.25 -0.12 10881
1.63 -0.07 -0.40 -3.30 14.56 2.40 -0.32 -0.14 10887
1.56 -0.06 0.56 -2.11 13.29 2.60 -0.35 -0.11 10893
1.62 -0.07 0.31 -2.89 13.02 2.79 -0.38 -0.12 10900
1.62 -0.07 0.74 -2.23 14.04 3.04 -0.39 -0.11 10906
1.66 -0.06 0.88 -2.44 14.40 3.34 -0.36 -0.11 10912
1.60 -0.06 0.94 -2.48 14.73 3.68 -0.32 -0.12 10918
1.54 -0.04 1.03 -2.36 14.35 4.02 -0.27 -0.15 10926
1.48 -0.06 1.28 -2.81 14.66 4.22 -0.24 -0.19 10932
1.40 -0.05 1.03 -2.93 14.98 4.28 -0.20 -0.23 10938
1.29 -0.05 0.76 -3.21 17.61 4.28 -0.16 -0.26 10944
1.11 -0.05 0.72 -3.56 19.12 4.28 -0.22 -0.26 10951
0.99 -0.04 2.02 -4.68 20.58 4.28 -0.32 -0.29 10957
0.86 -0.04 2.68 -6.53 23.17 4.28 -0.51 -0.39 10963
0.71 -0.02 3.06 -9.39 25.78 4.28 -0.69 -0.54 10971
0.62 -0.03 2.23 -12.93 34.01 4.28 -0.65 -0.59 10977
0.54 -0.03 2.42 -14.76 38.11 4.28 -0.55 -0.57 10983
0.45 -0.03 1.55 -15.30 34.33 4.28 -0.35 -0.46 10990
0.36 -0.02 1.56 -13.33 32.26 4.28 -0.20 -0.47 10996
0.27 -0.02 1.66 -10.59 33.25 4.28 -0.04 -0.49 11002
0.23 -0.01 -0.07 -7.34 36.13 4.28 -0.16 -0.58 11010
0.15 -0.01 0.96 -4.22 35.48 4.28 -0.56 -0.66 11016
0.11 -0.01 3.22 -0.92 35.99 4.28 -1.01 -0.69 11022
0.14 -0.01 7.11 3.82 35.58 4.28 -1.37 -0.71 11028
0.07 -0.01 8.67 10.67 36.14 4.28 -1.37 -0.66 11034
0.05 -0.01 11.18 16.40 28.06 4.28 -0.80 -0.61 11041
0.06 -0.01 11.37 22.40 24.59 4.28 0.14 -1.03 11047
0.03 -0.00 8.52 23.30 -2.64 4.10 0.96 -1.84 11054
0.04 -0.00 8.30 27.34 6.76 2.74 0.87 -2.50 11061
0.06 -0.01 7.03 23.37 29.03 0.31 1.56 -2.70 11067
0.05 -0.00 6.33 19.37 34.35 -1.77 2.35 -2.64 11073
0.06 -0.01 3.52 16.88 24.45 -3.07 2.39 -2.52 11079
0.04 -0.00 1.62 16.19 18.42 -3.84 1.82 -2.28 11086
0.04 -0.00 0.39 13.83 15.34 -4.24 1.24 -1.99 11092
0.03 -0.00 0.85 11.53 12.94 -4.28 0.81 -1.75 11099
0.03 -0.00 1.83 9.49 10.87 -4.28 0.48 -1.59 11105
0.04 -0.00 2.47 7.52 10.10 -4.28 0.26 -1.48 11112
0.03 -0.00 2.68 6.13 8.96 -4.28 0.20 -1.37 11118
0.03 -0.00 2.93 5.16 8.47 -4.28 0.24 -1.26 11124
0.05 -0.01 3.27 4.23 8.14 -4.28 0.36 -1.17 11130
0.06 -0.01 3.54 3.47 7.91 -4.28 0.54 -1.10 11137
0.05 -0.00 3.77 2.89 8.08 -4.28 0.72 -1.05 11143
0.05 -0.01 3.58 2.71 8.64 -4.28 0.86 -0.99 11149
0.03 -0.00 3.36 2.59 9.30 -4.28 1.00 -0.93 11156
0.03 -0.00 3.08 2.45 9.90 -4.28 1.16 -0.82 11162
0.04 -0.00 2.91 1.97 10.57 -4.28 1.32 -0.69 11168
0.03 -0.00 2.68 1.57 11.83 -4.28 1.49 -0.53 11174
0.01 -0.00 2.21 1.20 12.91 -4.28 1.62 -0.36 11181
0.05 -0.00 1.75 0.76 13.54 -4.28 1.76 -0.19 11188
0.03 -0.00 1.56 0.19 13.67 -4.28 1.83 -0.01 11194
0.04 -0.00 1.22 -0.30 13.86 -4.28 1.85 0.14 11200
0.05 -0.00 1.17 -0.94 14.43 -4.28 1.86 0.26 11206
0.04 -0.00 0.94 -1.70 15.18 -4.28 1.89 0.35 11212
0.05 -0.00 0.83 -2.63 15.90 -4.28 1.93 0.39 11219
0.06 -0.01 0.58 -3.40 16.81 -4.28 1.98 0.40 11226
0.03 -0.00 0.21 -4.12 17.70 -4.28 2.06 0.38 11232
0.03 -0.00 0.06 -4.75 18.10 -4.28 2.16 0.30 11238
0.04 -0.00 -0.06 -5.24 18.25 -4.28 2.23 0.27 11244
0.03 -0.00 -0.17 -5.36 18.08 -4.28 2.27 0.23 11251
0.03 0.00 -0.34 -5.59 18.17 -4.26 2.31 0.22 11257
0.03 -0.00 -0.51 -5.89 18.42 -4.19 2.32 0.25 11264
0.02 -0.00 -0.93 -6.21 19.11 -4.07 2.29 0.30 11270
0.04 0.00 -1.35 -6.81 20.11 -3.86 2.25 0.37 11277
0.03 -0.00 -1.70 -7.09 21.27 -3.66 2.13 0.45 11283
0.03 -0.00 -1.95 -7.35 22.24 -3.50 1.95 0.55 11289
0.04 -0.00 -2.02 -7.51 23.27 -3.41 1.70 0.65 11295
0.03 -0.00 -1.79 -8.02 24.49 -3.40 1.41 0.75 11301
0.03 -0.00 -1.27 -8.95 25.83 -3.44 1.11 0.85 11309
0.04 -0.00 -0.36 -10.14 27.11 -3.51 0.85 0.94 11315
0.02 -0.00 0.84 -11.80 27.87 -3.64 0.70 1.03 11321
0.03 -0.00 2.19 -13.67 27.29 -3.81 0.71 1.12 11327
0.03 -0.00 3.13 -15.37 25.02 -4.03 1.01 1.23 11334
0.04 -0.00 2.52 -16.68 23.46 -4.14 1.65 1.37 11340
0.03 -0.00 1.00 -18.62 22.37 -4.22 2.38 1.49 11346
0.03 -0.00 -1.07 -21.22 21.37 -4.24 2.81 1.57 11353
0.05 -0.00 -3.38 -24.18 20.13 -4.20 2.88 1.67 11360
0.04 -0.00 -5.47 -26.67 18.52 -4.07 2.67 1.81 11366
0.03 0.01 -6.85 -28.97 16.01 -3.67 2.25 1.93 11372
0.04 -0.00 -7.48 -30.95 12.82 -3.25 1.70 1.99 11379
0.04 -0.00 -7.27 -32.88 9.82 -2.82 1.16 1.95 11385
0.05 -0.00 -6.57 -34.86 7.31 -2.45 0.71 1.80 11392
0.04 -0.00 -5.73 -36.65 5.32 -2.03 0.42 1.56 11398
0.04 -0.00 -5.15 -37.91 3.74 -1.63 0.37 1.28 11404
0.05 -0.00 -5.12 -38.19 2.84 -1.22 0.52 1.01 11411
0.04 -0.00 -5.28 -37.31 2.50 -0.81 0.76 0.78 11417
0.04 0.01 -5.76 -35.12 3.97 -0.37 0.93 0.58 11423
0.04 -0.00 -6.34 -32.27 5.55 0.06 0.95 0.42 11429
0.03 -0.00 -7.25 -28.35 7.54 0.40 0.77 0.33 11436
0.05 -0.01 -7.10 -25.23 9.85 0.65 0.39 0.30 11443
0.04 -0.00 -28.17 -53.56 78.47 3.73 -2.07 0.78 11449
0.03 -0.00 -7.71 -14.80 9.74 3.79 -1.25 1.13 11455
0.04 0.08 0.99 -5.38 -18.16 2.96 -1.97 1.02 11461
0.02 0.24 -0.53 0.42 1.99 2.71 -3.22 0.77 11468
0.02 0.46 1.28 10.39 16.71 3.58 -1.97 1.16 11474
0.00 0.71 4.68 5.56 9.10 3.95 -0.79 1.52 11481
-0.01 1.01 -5.55 -7.30 30.36 4.28 -0.71 1.47 11487
-0.02 1.39 -12.41 -11.01 26.98 4.28 -0.88 1.06 11494
-0.03 1.70 -7.87 -7.90 32.32 4.28 -0.83 0.37 11500
-0.03 1.86 -3.73 -4.20 27.86 4.28 -0.14 0.04 11506
-0.05 1.87 -5.57 -3.41 25.10 4.28 -0.11 -0.51 11513
-0.02 1.86 1.97 -3.32 21.56 4.11 -0.38 -0.90 11520
-0.02 1.80 6.93 -5.45 38.11 3.86 -1.15 -0.81 11526
-0.02 1.78 6.06 -4.11 15.51 1.50 -2.14 -0.27 11533
-0.03 1.72 1.12 -2.55 13.44 0.67 -1.27 0.14 11539
-0.02 1.69 -0.52 -0.60 11.09 0.29 -0.67 0.16 11545
-0.03 1.61 -0.64 -0.19 11.00 0.18 -0.48 0.01 11551
-0.03 1.60 0.78 -1.10 10.56 0.11 -0.34 -0.04 11558
-0.02 1.60 1.56 -1.42 9.94 0.05 -0.26 0.01 11565
-0.04 1.59 0.79 -1.06 10.16 0.04 -0.25 0.04 11571
-0.03 1.63 0.38 -0.12 10.23 0.02 -0.21 0.00 11577
-0.02 1.57 0.48 -1.22 10.04 0.01 -0.17 0.02 11584
-0.03 1.50 0.77 -0.73 9.99 0.00 -0.16 0.02 11590
-0.02 1.45 0.75 -0.70 10.04 0.01 -0.15 0.02 11596
-0.01 1.39 0.58 -0.62 9.94 0.00 -0.15 0.02 11602
-0.01 1.37 0.62 -0.65 10.06 -0.00 -0.15 0.02 11609
0.00 1.27 0.66 -0.69 10.04 0.00 -0.14 0.01 11616
-0.01 1.18 0.64 -0.64 10.01 0.01 -0.13 0.02 11622
-0.01 1.15 -1.32 -1.12 9.53 0.01 -0.12 0.01 11628
0.01 1.04 0.52 -0.69 10.07 0.02 -0.10 0.01 11634
0.02 0.95 0.52 -0.69 10.05 0.03 -0.09 0.01 11641
0.03 0.92 0.55 -0.69 10.01 0.03 -0.08 0.01 11648
0.06 0.78 0.56 -0.67 9.95 0.04 -0.07 0.02 11654
0.04 0.71 0.51 -0.77 10.05 0.04 -0.06 0.02 11660
0.06 0.62 0.56 -0.75 10.02 0.04 -0.05 0.02 11666
0.09 0.54 0.60 -0.76 9.95 0.05 -0.05 0.02 11673
0.09 0.46 0.84 -0.85 10.12 0.05 -0.04 0.03 11679
0.14 0.35 0.65 -0.66 10.02 0.06 -0.03 0.03 11685
0.13 0.32 0.64 -0.70 9.90 0.06 -0.03 0.02 11692
0.18 0.29 1.19 -0.62 10.09 0.06 -0.03 0.02 11699
0.21 0.21 0.64 -0.80 9.90 0.05 -0.03 0.01 11705
0.22 0.20 0.69 -0.64 9.82 0.05 -0.03 0.00 11711
0.21 0.17 0.66 -0.78 10.04 0.05 -0.04 0.00 11717
0.26 0.13 0.66 -0.80 9.99 0.05 -0.04 -0.00 11723
0.26 0.09 0.64 -0.79 9.98 0.05 -0.04 -0.00 11730
0.28 0.12 0.62 -0.77 10.00 0.05 -0.04 -0.01 11737
0.29 0.09 0.55 -0.76 10.00 0.05 -0.04 -0.01 11743
0.28 0.06 0.48 -0.80 10.02 0.05 -0.04 -0.00 11749
0.31 0.04 0.51 -1.16 10.00 0.06 -0.04 0.00 11755
0.32 0.03 0.64 -0.74 10.11 0.07 -0.03 -0.00 11762
0.35 0.01 0.67 -1.08 10.08 0.06 -0.04 0.00 11768
0.36 0.01 0.70 -0.88 9.97 0.08 -0.04 -0.00 11774
0.35 -0.02 0.74 -0.92 9.98 0.08 -0.04 -0.01 11781
0.41 -0.01 0.56 -0.81 9.97 0.08 -0.05 -0.02 11787
0.43 -0.01 0.61 -0.91 9.83 0.08 -0.05 -0.02 11794
0.49 -0.04 0.52 -0.76 10.00 0.08 -0.04 -0.02 11800
0.54 -0.02 0.70 -0.96 10.04 0.08 -0.04 -0.03 11806
0.65 -0.05 0.68 -0.93 10.07 0.09 -0.05 -0.04 11812
0.65 -0.04 0.74 -0.94 9.98 0.10 -0.05 -0.05 11820
0.71 -0.04 0.65 -0.97 10.03 0.12 -0.05 -0.06 11826
0.81 -0.06 0.65 -0.98 10.11 0.13 -0.06 -0.06 11832
0.92 -0.04 0.63 -0.95 10.14 0.16 -0.06 -0.07 11838
1.00 -0.05 0.63 -1.02 10.22 0.20 -0.07 -0.07 11845
1.07 -0.07 0.74 -1.01 10.36 0.26 -0.07 -0.09 11851
1.15 -0.06 0.86 -1.13 10.43 0.36 -0.08 -0.11 11857
1.19 -0.07 0.81 -1.12 10.69 0.50 -0.09 -0.12 11864
1.29 -0.05 0.80 -1.08 11.19 0.69 -0.11 -0.15 11871
1.37 -0.06 0.69 -1.21 11.50 0.94 -0.15 -0.16 11877
1.41 -0.06 0.64 -1.28 11.68 1.18 -0.20 -0.20 11883
1.54 -0.07 0.82 -1.49 11.88 1.37 -0.22 -0.17 11889
1.62 -0.08 0.77 -1.52 12.20 1.50 -0.27 -0.18 11896
1.72 -0.07 0.81 -1.68 12.41 1.63 -0.31 -0.18 11902
1.78 -0.08 0.77 -1.75 12.46 1.76 -0.37 -0.17 11909
1.83 -0.06 0.83 -1.62 12.32 1.89 -0.41 -0.17 11916
1.88 -0.07 0.75 -1.73 12.98 2.02 -0.46 -0.17 11922
1.96 -0.07 0.56 -1.94 12.77 2.17 -0.53 -0.16 11928
1.98 -0.07 0.48 -2.00 12.98 2.34 -0.60 -0.15 11934
2.02 -0.09 0.45 -2.41 13.40 2.50 -0.61 -0.15 11941
2.04 -0.08 0.21 -1.96 14.16 2.69 -0.63 -0.16 11948
2.02 -0.08 0.32 -2.45 14.35 2.98 -0.69 -0.16 11954
2.00 -0.06 -0.23 -1.67 14.72 3.29 -0.72 -0.17 11961
1.94 -0.09 1.38 -2.54 15.96 3.61 -0.68 -0.18 11967
1.89 -0.06 1.19 -2.39 15.33 3.95 -0.66 -0.22 11973
1.85 -0.06 1.22 -2.56 15.08 4.20 -0.58 -0.27 11979
1.72 -0.07 0.61 -3.04 16.56 4.28 -0.58 -0.35 11986
1.56 -0.05 0.26 -2.94 19.07 4.28 -0.66 -0.40 11993
1.39 -0.06 1.39 -3.84 19.15 4.28 -0.83 -0.44 11999
1.11 -0.03 2.77 -4.57 21.57 4.28 -1.09 -0.54 12006
1.03 -0.05 1.87 -8.04 24.82 4.28 -1.32 -0.68 12012
0.88 -0.04 1.37 -11.38 30.40 4.28 -1.40 -0.78 12018
0.72 -0.04 0.43 -15.06 35.36 4.28 -1.33 -0.76 12024
0.60 -0.03 0.34 -17.17 38.71 4.28 -1.11 -0.72 12032
0.45 -0.03 1.33 -15.58 35.68 4.28 -0.94 -0.70 12038
0.33 -0.02 0.60 -11.55 33.05 4.28 -0.85 -0.72 12044
0.27 -0.02 0.81 -6.33 31.46 4.28 -0.84 -0.75 12051
0.17 -0.02 0.75 -2.98 32.96 4.28 -1.04 -0.77 12057
0.17 -0.01 3.12 0.56 33.13 4.28 -1.48 -0.79 12063
0.13 -0.01 6.84 5.22 32.74 4.28 -1.98 -0.80 12069
0.11 -0.01 9.95 9.16 32.28 4.28 -2.20 -0.81 12077
0.09 -0.01 11.64 11.30 32.22 4.28 -2.02 -0.81 12083
0.04 -0.00 10.42 14.70 29.55 4.28 -1.29 -0.91 12089
0.06 -0.01 9.20 16.31 16.96 4.28 -0.33 -1.34 12096
0.05 -0.00 8.58 21.65 9.70 4.28 -0.07 -1.68 12102
0.05 -0.00 10.73 28.71 13.23 2.70 0.12 -1.94 12108
0.06 -0.01 7.62 26.34 27.75 -0.73 0.95 -1.93 12114
0.04 -0.00 6.51 18.49 27.50 -2.17 1.50 -1.67 12122
0.06 -0.01 4.41 13.90 20.39 -3.25 1.36 -1.39 12128
0.04 -0.00 2.95 12.60 16.43 -3.98 0.94 -1.08 12134
0.04 -0.00 2.59 11.73 13.69 -4.26 0.53 -0.82 12140
0.05 -0.00 2.63 9.90 11.10 -4.28 0.22 -0.64 12147
0.03 -0.00 3.71 7.82 9.17 -4.28 0.07 -0.54 12153
0.03 -0.00 4.39 6.36 8.50 -4.28 0.04 -0.47 12160
0.05 -0.00 4.62 5.41 8.04 -4.28 0.10 -0.43 12166
0.07 -0.01 4.55 4.39 8.18 -4.28 0.25 -0.42 12172
0.05 0.00 4.64 3.60 8.12 -4.28 0.45 -0.42 12178
0.05 -0.01 4.89 2.99 8.45 -4.28 0.67 -0.43 12185
0.05 -0.00 4.87 2.53 8.78 -4.28 0.89 -0.46 12191
0.04 -0.00 4.46 2.31 9.32 -4.28 1.10 -0.47 12197
0.04 -0.00 4.06 2.08 9.58 -4.28 1.29 -0.46 12204
0.06 -0.01 3.57 1.68 9.93 -4.28 1.45 -0.40 12210
0.04 -0.00 3.23 1.06 10.48 -4.28 1.55 -0.33 12216
0.06 -0.01 2.92 0.38 11.33 -4.28 1.62 -0.24 12223
0.03 -0.00 2.55 -0.18 12.13 -4.28 1.65 -0.14 12229
0.06 -0.01 2.22 -1.20 13.08 -4.28 1.65 -0.03 12235
0.05 -0.01 2.11 -0.97 13.95 -4.28 1.65 0.10 12241
0.05 -0.01 1.94 -1.37 14.50 -4.28 1.64 0.16 12248
0.05 -0.00 1.93 -1.85 14.74 -4.28 1.67 0.23 12255
0.06 -0.01 2.12 -2.41 15.10 -4.28 1.72 0.26 12261
0.06 -0.01 2.24 -2.99 15.68 -4.28 1.82 0.26 12267
0.06 0.00 2.36 -3.85 17.09 -4.28 1.99 0.23 12273
0.06 -0.01 1.95 -4.73 17.53 -4.28 2.20 0.19 12280
0.05 -0.01 1.48 -5.54 18.17 -4.28 2.43 0.14 12286
0.06 -0.01 1.03 -6.15 18.02 -4.28 2.61 0.10 12293
0.05 -0.00 0.59 -6.35 18.10 -4.28 2.70 0.08 12299
0.04 0.00 0.00 -6.84 18.14 -4.26 2.68 0.09 12305
0.05 -0.01 -0.70 -7.35 18.15 -4.19 2.59 0.13 12312
0.03 -0.00 -1.27 -7.90 18.68 -4.02 2.42 0.18 12318
0.04 0.01 -1.57 -8.20 20.01 -3.77 2.24 0.26 12324
0.04 -0.00 -1.09 -8.25 21.07 -3.57 2.05 0.36 12331
0.04 -0.00 -0.49 -8.12 22.54 -3.40 1.90 0.46 12337
0.06 -0.01 -0.11 -7.85 24.18 -3.35 1.85 0.57 12344
0.04 -0.00 0.33 -7.97 25.92 -3.41 1.87 0.73 12350
0.03 -0.00 0.74 -8.32 27.37 -3.58 1.96 0.94 12356
0.04 -0.00 0.88 -9.75 27.53 -3.82 2.10 1.16 12362
0.04 -0.00 0.40 -10.92 26.94 -4.05 2.23 1.41 12369
0.03 -0.00 -0.50 -11.70 25.19 -4.17 2.33 1.65 12376
0.05 -0.00 -3.06 -19.87 10.91 -4.20 2.38 1.91 12382
0.03 -0.00 -8.63 -12.96 23.19 -2.22 1.69 2.25 12388
0.07 -0.01 -6.60 -8.00 10.91 -3.46 2.13 2.32 12395
0.04 -0.00 -8.95 -26.19 21.10 -3.45 1.72 2.33 12401
0.05 -0.00 -3.73 -20.06 1.20 -3.39 1.46 2.35 12407
0.05 -0.00 -5.38 -24.26 17.51 -3.70 1.19 2.21 12413
0.03 -0.00 -6.37 -22.81 5.49 -3.30 0.93 2.00 12421
0.05 -0.01 -4.35 -24.44 10.21 -3.55 0.68 1.76 12427
0.05 -0.00 -5.44 -27.95 17.97 -3.29 0.45 1.42 12433
0.04 -0.00 -5.18 -32.76 12.62 -3.01 0.47 1.07 12439
0.05 -0.00 -5.64 -35.87 9.17 -2.40 0.76 0.71 12446
0.04 -0.00 -6.20 -36.47 4.05 -1.80 1.08 0.40 12452
0.05 0.00 -7.30 -36.19 0.84 -1.26 1.30 0.15 12459
0.04 -0.00 -12.04 -48.73 5.19 -0.38 1.07 0.02 12465
0.04 -0.00 -8.79 -36.13 -7.72 0.98 0.91 0.02 12471
0.07 -0.01 -12.92 -36.98 3.97 1.73 0.03 0.01 12478
0.06 -0.01 -12.36 -34.71 5.21 2.63 -1.18 0.05 12484
0.05 0.05 -9.36 -37.32 -0.00 2.80 -2.30 0.02 12490
0.05 0.14 -10.09 -43.21 -9.61 2.78 -3.78 -0.02 12496
0.03 0.30 0.91 1.45 3.00 3.78 -4.00 0.17 12504
0.04 0.55 1.40 -8.28 27.39 4.28 -1.75 0.54 12510
0.03 0.85 6.88 3.35 26.70 4.28 -0.27 0.94 12516
0.00 1.20 -7.38 -3.71 32.61 4.28 -0.81 0.81 12522
-0.01 1.42 -7.59 -7.49 34.12 4.28 -1.37 0.30 12529
-0.02 1.56 -0.33 -6.98 23.64 4.28 -0.91 0.07 12535
-0.01 1.60 -2.88 -4.98 24.34 4.28 -0.31 -0.02 12541
-0.02 1.55 -2.15 -2.90 22.93 4.18 -0.46 -0.35 12549
-0.01 1.52 4.27 -4.95 40.27 3.60 -1.71 -0.62 12555
-0.02 1.43 4.27 -2.67 15.80 0.90 -1.52 -0.22 12561
-0.01 1.44 1.55 -3.51 13.05 0.26 -0.68 0.10 12567
-0.02 1.37 0.18 -1.58 10.91 0.07 -0.26 0.18 12574
-0.01 1.33 -0.28 -0.50 10.33 0.03 -0.12 0.10 12580
-0.02 1.34 0.30 -0.75 10.13 0.00 -0.05 0.03 12587
-0.02 1.32 1.09 -1.17 10.15 -0.02 -0.04 0.04 12593
-0.00 1.30 0.95 -1.09 10.00 -0.02 -0.06 0.05 12600
0.02 1.29 0.59 -0.80 10.17 -0.02 -0.07 0.05 12606
-0.00 1.31 0.57 -0.74 10.08 -0.02 -0.07 0.04 12612
0.01 1.33 0.69 -0.78 10.07 -0.02 -0.06 0.03 12618
0.01 1.29 0.69 -0.72 9.99 -0.02 -0.05 0.04 12625
0.01 1.31 0.67 -0.66 9.97 -0.01 -0.05 0.04 12632
0.01 1.28 0.70 -0.57 9.97 -0.01 -0.05 0.04 12638
0.01 1.21 0.70 -0.66 9.95 -0.01 -0.05 0.03 12644
0.02 1.18 0.68 -0.45 9.98 0.00 -0.05 0.03 12650
0.02 1.14 0.56 -0.67 10.07 0.01 -0.04 0.03 12657
0.01 1.00 0.63 -0.65 10.04 0.01 -0.03 0.03 12663
0.02 0.92 0.69 -0.71 10.09 0.02 -0.03 0.02 12669
0.04 0.89 0.68 -0.74 10.07 0.02 -0.02 0.03 12676
0.04 0.77 0.71 -0.68 10.04 0.03 -0.02 0.03 12683
0.06 0.72 0.70 -0.75 10.04 0.03 -0.02 0.03 12689
0.05 0.65 0.69 -0.73 10.00 0.03 -0.02 0.03 12695
0.05 0.57 0.73 -0.73 10.03 0.03 -0.02 0.03 12701
0.06 0.56 0.68 -0.73 10.00 0.03 -0.01 0.03 12707
0.07 0.42 0.73 -0.76 9.96 0.03 -0.01 0.03 12715
0.10 0.42 0.72 -0.70 10.02 0.03 -0.01 0.03 12721
0.10 0.37 0.71 -0.78 10.00 0.04 -0.01 0.02 12727
0.09 0.34 0.77 -0.72 9.95 0.04 -0.01 0.02 12733
0.11 0.29 0.77 -0.72 9.86 0.04 -0.00 0.02 12739
0.11 0.23 0.75 -0.76 9.98 0.04 -0.01 0.01 12746
0.11 0.21 0.75 -0.77 9.95 0.04 -0.01 0.01 12752
0.15 0.20 0.78 -0.75 10.01 0.04 -0.01 0.00 12759
0.16 0.14 0.78 -0.71 9.95 0.03 -0.01 0.00 12765
0.17 0.10 0.73 -0.76 9.95 0.03 -0.02 0.00 12771
0.20 0.11 0.74 -0.79 9.99 0.03 -0.02 -0.00 12778
0.20 0.13 0.74 -0.82 9.97 0.03 -0.02 0.00 12784
0.21 0.07 0.71 -0.81 10.04 0.03 -0.02 -0.00 12790
0.24 0.08 0.73 -0.77 10.06 0.03 -0.02 0.00 12796
0.23 0.06 0.75 -0.79 9.96 0.04 -0.03 0.00 12803
0.23 0.04 0.80 -0.80 9.92 0.04 -0.03 0.00 12809
0.28 0.04 0.80 -0.83 9.88 0.05 -0.04 -0.01 12816
0.29 0.00 0.94 -0.85 10.02 0.05 -0.03 -0.01 12822
0.31 0.02 0.85 -0.98 10.05 0.06 -0.04 -0.02 12828
0.34 -0.01 0.78 -0.81 10.05 0.06 -0.05 -0.03 12834
0.36 -0.03 0.82 -0.86 10.13 0.06 -0.05 -0.04 12841
0.39 0.01 0.76 -0.91 9.94 0.07 -0.05 -0.05 12848
0.42 -0.04 0.79 -0.91 10.04 0.07 -0.05 -0.05 12854
0.43 -0.04 0.84 -0.91 9.95 0.07 -0.05 -0.05 12860
0.45 -0.02 0.72 -0.89 9.96 0.07 -0.05 -0.05 12866
0.54 -0.03 0.85 -0.88 9.97 0.07 -0.05 -0.05 12873
0.57 -0.04 0.70 -0.86 10.05 0.08 -0.05 -0.06 12879
0.59 -0.03 0.75 -0.91 10.12 0.10 -0.05 -0.06 12886
0.67 -0.04 0.76 -0.90 10.21 0.13 -0.04 -0.06 12892
0.74 -0.04 0.78 -0.98 10.17 0.17 -0.04 -0.06 12899
0.83 -0.05 0.75 -0.97 10.31 0.22 -0.04 -0.07 12905
0.91 -0.05 0.73 -1.00 10.38 0.30 -0.04 -0.07 12911
1.02 -0.05 0.76 -1.05 10.46 0.40 -0.04 -0.07 12917
1.16 -0.07 0.69 -1.13 10.78 0.54 -0.04 -0.06 12924
1.26 -0.07 0.91 -1.14 11.16 0.74 -0.05 -0.07 12931
1.28 -0.07 1.00 -1.39 11.52 0.97 -0.06 -0.10 12937
1.39 -0.07 1.04 -1.46 12.16 1.21 -0.10 -0.13 12943
1.43 -0.07 1.14 -1.45 12.08 1.40 -0.16 -0.15 12950
1.49 -0.07 1.01 -1.56 12.82 1.57 -0.25 -0.17 12956
1.58 -0.05 1.02 -1.52 12.66 1.71 -0.33 -0.18 12962
1.63 -0.07 0.96 -1.81 12.74 1.85 -0.41 -0.19 12968
1.66 -0.06 0.90 -1.59 12.50 2.03 -0.44 -0.20 12976
1.74 -0.08 0.60 -1.68 13.23 2.23 -0.46 -0.19 12982
1.79 -0.07 0.72 -1.89 14.03 2.44 -0.51 -0.18 12988
1.85 -0.07 0.71 -1.88 12.50 2.61 -0.53 -0.16 12995
1.83 -0.08 0.64 -2.32 13.84 2.80 -0.57 -0.16 13001
1.88 -0.07 0.57 -2.19 14.10 3.03 -0.57 -0.15 13007
1.86 -0.08 0.52 -2.13 15.07 3.32 -0.58 -0.16 13014
1.81 -0.07 1.77 -2.28 14.96 3.65 -0.52 -0.14 13021
1.78 -0.07 0.37 -2.48 15.80 4.03 -0.49 -0.18 13027
1.63 -0.06 0.52 -2.87 17.35 4.24 -0.39 -0.18 13033
1.53 -0.06 0.83 -2.59 17.52 4.28 -0.35 -0.18 13040
1.39 -0.07 1.46 -2.73 18.24 4.28 -0.38 -0.24 13046
1.22 -0.03 1.94 -5.28 19.10 4.28 -0.52 -0.38 13052
1.07 -0.04 2.32 -5.31 22.09 4.28 -0.68 -0.51 13059
0.88 -0.03 2.03 -8.48 26.87 4.28 -0.91 -0.63 13066
0.75 -0.03 1.15 -10.20 29.83 4.28 -1.01 -0.61 13072
0.59 -0.02 1.20 -13.10 38.03 4.28 -1.06 -0.65 13078
0.50 -0.02 1.98 -15.15 39.56 4.28 -0.83 -0.60 13085
0.37 -0.02 2.17 -12.88 37.50 4.28 -0.58 -0.57 13091
0.26 -0.02 1.03 -10.43 32.54 4.28 -0.43 -0.59 13097
0.18 -0.02 0.30 -6.20 32.81 4.28 -0.42 -0.66 13105
0.18 -0.00 -0.02 -3.19 35.88 4.28 -0.77 -0.70 13111
0.12 -0.01 2.48 0.16 36.08 4.28 -1.27 -0.71 13117
0.11 -0.01 6.24 4.68 35.39 4.28 -1.73 -0.71 13123
0.10 -0.01 9.33 9.09 35.52 4.28 -2.04 -0.71 13129
0.05 -0.01 11.26 13.66 32.34 4.28 -1.86 -0.60 13136
0.04 0.00 12.35 20.96 27.98 4.28 -1.06 -0.66 13143
0.03 -0.00 9.00 19.50 6.54 4.28 0.13 -1.17 13149
0.03 -0.00 10.35 29.50 0.73 3.87 0.32 -1.79 13156
0.04 -0.00 8.85 27.40 25.21 1.34 0.80 -2.06 13162
0.04 -0.00 8.24 21.12 35.64 -1.11 1.87 -1.94 13168
0.05 -0.00 6.21 16.70 25.39 -2.71 2.20 -1.71 13174
0.04 -0.00 3.94 15.94 17.45 -3.59 1.79 -1.49 13181
0.03 -0.00 1.70 14.37 15.49 -4.16 1.26 -1.22 13188
0.05 -0.00 1.28 12.72 12.91 -4.28 0.87 -1.03 13194
0.04 -0.00 2.30 10.42 10.86 -4.28 0.58 -0.87 13200
0.05 -0.00 3.07 8.34 9.88 -4.28 0.37 -0.81 13206
0.04 -0.00 3.24 6.67 9.43 -4.28 0.31 -0.80 13213
0.03 -0.00 3.18 5.72 9.01 -4.28 0.40 -0.75 13219
0.03 -0.00 3.58 4.75 8.94 -4.28 0.57 -0.72 13225
0.06 -0.01 3.92 3.85 8.94 -4.28 0.80 -0.72 13232
0.06 -0.01 3.91 3.41 9.14 -4.28 1.05 -0.74 13238
0.03 -0.00 3.55 3.26 9.28 -4.28 1.27 -0.76 13244
0.05 -0.00 2.53 3.17 9.64 -4.28 1.46 -0.74 13251
0.03 -0.00 2.66 2.86 10.05 -4.28 1.57 -0.70 13257
0.04 -0.00 2.14 2.43 10.58 -4.28 1.70 -0.61 13263
0.04 -0.00 1.76 1.74 11.47 -4.28 1.79 -0.56 13270
0.04 -0.00 1.24 1.07 12.84 -4.28 1.83 -0.46 13276
0.03 -0.00 0.70 0.47 13.46 -4.28 1.86 -0.36 13283
0.05 -0.01 0.37 -0.07 13.68 -4.28 1.90 -0.26 13289
0.05 -0.00 0.33 -0.51 14.30 -4.28 1.93 -0.16 13295
0.05 -0.00 0.21 -0.81 14.92 -4.28 1.97 -0.08 13301
0.03 -0.00 0.05 -1.16 15.71 -4.28 2.01 -0.04 13307
0.05 -0.00 -0.10 -1.57 16.88 -4.28 2.10 -0.03 13315
0.06 -0.01 -0.13 -2.20 17.78 -4.28 2.22 -0.03 13321
0.05 -0.00 -0.64 -3.09 18.45 -4.28 2.37 -0.06 13327
0.03 -0.00 -1.22 -4.05 18.86 -4.28 2.49 -0.10 13333
0.05 -0.01 -1.77 -4.79 19.29 -4.28 2.55 -0.13 13339
0.05 -0.00 -2.84 -5.22 18.77 -4.28 2.50 -0.14 13346
0.03 -0.00 -2.60 -5.81 19.17 -4.28 2.37 -0.12 13352
0.04 -0.00 -2.71 -6.35 18.74 -4.28 2.20 -0.07 13359
0.03 -0.00 -2.76 -7.04 18.74 -4.23 2.05 -0.00 13365
0.04 0.00 -2.51 -7.71 18.92 -4.08 1.87 0.08 13372
0.04 -0.00 -2.13 -8.18 19.58 -3.79 1.68 0.19 13378
0.02 -0.00 -1.75 -8.62 20.02 -3.48 1.52 0.33 13384
0.05 -0.00 -1.50 -9.10 20.75 -3.20 1.35 0.48 13390
0.05 -0.00 -1.19 -9.64 22.20 -2.97 1.18 0.62 13396
0.03 -0.00 -0.68 -10.24 24.56 -2.84 1.02 0.81 13404
0.05 -0.00 -0.02 -11.22 25.86 -2.84 0.92 1.00 13410
0.04 -0.00 0.43 -12.61 26.59 -2.97 0.91 1.19 13416
0.04 0.00 0.63 -13.94 26.17 -3.18 1.01 1.39 13422
0.03 -0.00 0.29 -14.76 25.14 -3.44 1.33 1.59 13429
0.04 -0.00 -0.79 -15.70 24.49 -3.72 1.82 1.77 13435
0.05 -0.01 -2.39 -17.40 23.19 -3.95 2.21 1.90 13442
0.05 -0.01 -3.89 -19.50 21.91 -4.06 2.35 2.00 13448
0.05 -0.01 -5.22 -21.89 20.38 -4.05 2.23 2.10 13455
0.05 -0.00 -6.16 -24.42 18.53 -3.94 1.89 2.16 13461
0.05 -0.00 -6.48 -27.08 16.16 -3.70 1.42 2.18 13467
0.05 -0.00 -6.57 -29.39 13.14 -3.38 0.95 2.15 13474
0.03 -0.00 -6.25 -31.32 9.39 -3.00 0.60 2.05 13480
0.04 -0.00 -6.19 -33.39 6.07 -2.60 0.44 1.87 13487
0.03 -0.00 -6.33 -35.90 3.20 -2.20 0.48 1.62 13493
0.03 -0.00 -6.68 -37.82 1.90 -1.79 0.65 1.33 13499
0.05 -0.01 -7.29 -38.43 1.70 -1.35 0.88 1.00 13506
0.04 -0.00 -7.88 -37.44 1.84 -0.89 1.05 0.66 13512
0.03 -0.00 -8.85 -35.15 2.87 -0.50 1.05 0.33 13518
0.05 -0.01 -9.14 -34.73 2.82 -0.04 0.84 0.03 13524
0.03 -0.00 -18.95 -40.00 24.75 3.33 0.16 -0.05 13531
0.05 -0.00 -12.39 -23.69 5.80 3.15 -0.10 0.07 13538
0.04 0.08 -6.86 -28.60 -10.29 2.89 -1.45 -0.07 13544
0.03 0.17 -7.39 -15.61 -8.39 2.53 -3.70 -0.42 13550
0.03 0.36 -2.45 3.38 17.36 3.08 -3.44 -0.45 13557
0.01 0.69 9.11 8.03 25.30 4.13 -1.44 -0.13 13563
-0.01 1.03 1.43 -3.26 24.91 4.28 -0.91 0.09 13570
-0.02 1.32 -6.17 -9.13 32.58 4.28 -1.30 -0.02 13576
-0.04 1.59 -0.95 -7.39 28.31 4.28 -1.30 -0.19 13583
-0.03 1.74 2.57 -4.37 28.44 4.28 -0.80 -0.09 13589
-0.04 1.79 -2.21 -2.14 22.62 3.81 -0.46 -0.10 13595
-0.04 1.83 -0.86 -1.60 16.55 3.33 -0.57 -0.38 13602
-0.06 1.77 2.39 -1.39 13.53 3.26 -0.64 -0.50 13608
-0.01 1.69 3.80 -2.38 19.03 3.43 -0.91 -0.45 13615
-0.02 1.65 2.96 -1.15 23.76 2.07 -2.24 -0.34 13621
-0.02 1.64 1.50 -3.38 15.13 0.83 -1.40 0.01 13628
-0.04 1.61 -0.14 -2.04 11.90 0.26 -0.55 0.14 13634
-0.04 1.55 -0.44 -0.89 10.93 0.07 -0.22 0.09 13640
-0.01 1.55 0.30 -0.76 10.28 0.04 -0.11 0.01 13646
-0.01 1.54 0.99 -1.14 10.32 0.02 -0.10 0.00 13654
-0.02 1.49 0.88 -0.99 10.25 0.01 -0.10 0.03 13660
-0.03 1.47 0.46 -0.74 9.99 0.01 -0.10 0.04 13666
-0.03 1.51 0.47 -0.61 10.02 0.01 -0.09 0.03 13672
-0.02 1.42 0.68 -0.70 9.96 0.00 -0.08 0.03 13679
-0.02 1.37 0.70 -0.65 9.94 0.01 -0.07 0.04 13685
-0.02 1.36 0.59 -0.55 10.06 0.01 -0.06 0.04 13691
0.02 1.30 0.58 -0.64 10.09 0.01 -0.06 0.03 13698
0.00 1.22 0.01 -0.67 9.99 0.01 -0.05 0.03 13704
0.00 1.14 0.61 -0.67 9.90 0.01 -0.05 0.04 13711
0.04 1.02 0.78 -0.75 9.84 0.02 -0.04 0.04 13717
0.04 0.95 0.63 -0.62 10.00 0.02 -0.03 0.04 13723
0.05 0.92 0.66 -0.64 10.02 0.03 -0.03 0.04 13729
0.05 0.88 0.62 -0.66 10.06 0.03 -0.03 0.04 13735
0.05 0.79 0.62 -0.63 10.00 0.03 -0.03 0.04 13743
0.05 0.71 0.66 -0.69 9.99 0.04 -0.03 0.04 13749
0.07 0.62 0.64 -0.68 10.01 0.04 -0.03 0.04 13755
0.09 0.54 0.63 -0.70 9.98 0.04 -0.03 0.03 13761
0.12 0.51 0.58 -0.46 10.09 0.05 -0.03 0.03 13768
0.12 0.45 0.67 -0.65 10.05 0.05 -0.02 0.03 13774
0.14 0.38 0.62 -0.68 9.95 0.04 -0.02 0.03 13780
0.16 0.27 0.68 -0.71 10.00 0.05 -0.01 0.03 13787
0.16 0.26 0.68 -0.96 9.97 0.05 -0.01 0.02 13793
0.17 0.19 0.76 -0.96 10.04 0.05 -0.01 0.02 13800
0.19 0.17 0.71 -0.74 10.00 0.05 -0.01 0.01 13806
0.19 0.12 0.66 -0.75 9.97 0.05 -0.01 0.01 13812
0.19 0.14 0.68 -0.64 9.97 0.05 -0.01 0.01 13818
0.22 0.08 0.66 -0.74 9.95 0.04 -0.01 0.01 13825
0.24 0.07 0.67 -0.70 9.98 0.04 -0.01 0.01 13832
0.24 0.08 0.62 -0.75 9.93 0.05 -0.01 0.01 13838
0.24 0.08 0.64 -0.76 10.02 0.05 -0.01 0.01 13844
0.24 0.05 0.66 -0.73 10.04 0.05 -0.01 0.01 13850
0.28 0.03 0.77 -0.82 9.96 0.05 -0.01 0.01 13856
0.28 0.01 0.75 -1.23 10.10 0.04 -0.01 0.01 13863
0.26 0.01 0.57 -0.70 10.01 0.05 -0.01 0.01 13870
0.28 0.02 0.62 -0.82 10.12 0.05 -0.01 0.01 13876
0.31 -0.03 0.91 -0.93 10.00 0.05 -0.02 -0.00 13882
0.35 -0.02 0.78 -0.75 10.09 0.05 -0.02 -0.01 13889
0.37 -0.02 0.68 -0.75 10.06 0.05 -0.02 -0.01 13895
0.40 -0.03 0.72 -0.82 10.01 0.05 -0.02 -0.02 13901
0.44 -0.03 0.71 -0.82 9.99 0.05 -0.02 -0.02 13907
0.42 -0.03 0.72 -0.86 9.96 0.05 -0.02 -0.03 13914
0.48 -0.04 0.68 -0.90 9.93 0.06 -0.02 -0.03 13921
0.53 -0.02 0.72 -0.87 9.92 0.06 -0.02 -0.03 13927
0.54 -0.03 0.74 -0.88 9.97 0.07 -0.02 -0.03 13933
0.54 -0.03 0.76 -0.86 10.02 0.08 -0.03 -0.00 13939
0.62 -0.04 0.76 -0.90 10.05 0.10 -0.03 -0.04 13945
0.69 -0.05 0.77 -0.92 10.10 0.13 -0.04 -0.04 13953
0.73 -0.04 0.81 -0.94 10.22 0.17 -0.04 -0.05 13959
0.86 -0.05 0.74 -0.94 10.34 0.24 -0.03 -0.06 13965
0.97 -0.05 0.81 -1.09 10.54 0.33 -0.03 -0.07 13971
1.07 -0.06 0.84 -1.10 10.80 0.48 -0.03 -0.07 13978
1.17 -0.07 0.90 -1.14 11.16 0.67 -0.03 -0.09 13984
1.22 -0.05 1.09 -1.24 11.16 0.94 -0.05 -0.11 13990
1.34 -0.06 1.25 -1.47 12.06 1.21 -0.07 -0.15 13997
1.41 -0.06 1.17 -1.49 11.67 1.44 -0.12 -0.18 14004
1.52 -0.07 1.08 -1.49 12.60 1.62 -0.18 -0.20 14010
1.58 -0.08 0.90 -1.54 12.28 1.78 -0.26 -0.20 14016
1.61 -0.05 0.65 -1.44 12.80 1.93 -0.34 -0.19 14023
1.70 -0.07 0.39 -3.04 13.58 2.11 -0.40 -0.18 14029
1.72 -0.07 0.67 -1.60 14.10 2.28 -0.43 -0.17 14035
1.81 -0.07 0.77 -1.71 13.92 2.52 -0.48 -0.17 14042
1.87 -0.07 0.66 -2.11 13.85 2.77 -0.54 -0.16 14049
1.89 -0.07 1.09 -2.13 14.41 2.99 -0.56 -0.18 14055
1.89 -0.08 0.70 -1.99 13.55 3.21 -0.55 -0.19 14061
1.88 -0.07 0.69 -2.46 15.24 3.50 -0.55 -0.20 14068
1.82 -0.06 0.70 -2.30 15.34 3.87 -0.51 -0.20 14074
1.78 -0.08 0.96 -2.43 15.26 4.17 -0.46 -0.24 14081
1.70 -0.07 1.28 -2.58 15.75 4.28 -0.39 -0.28 14087
1.53 -0.06 3.08 -1.69 16.61 4.28 -0.44 -0.37 14094
1.43 -0.05 1.33 -3.13 18.56 4.28 -0.49 -0.40 14100
1.18 -0.04 0.62 -4.10 20.82 4.28 -0.60 -0.44 14106
1.00 -0.03 1.48 -5.03 23.29 4.28 -0.76 -0.47 14112
0.88 -0.04 1.81 -9.08 29.20 4.28 -0.99 -0.56 14119
0.72 -0.03 2.13 -11.87 30.54 4.28 -1.12 -0.70 14126
0.63 -0.03 1.72 -16.35 38.70 4.28 -1.00 -0.61 14132
0.56 -0.03 2.59 -15.71 37.08 4.28 -0.92 -0.57 14139
0.41 -0.03 2.28 -14.23 31.91 4.28 -0.73 -0.62 14145
0.32 -0.02 2.08 -10.27 31.95 4.28 -0.51 -0.67 14151
0.21 -0.02 1.05 -7.02 34.37 4.28 -0.61 -0.78 14158
0.14 -0.01 1.01 -3.16 32.75 4.28 -0.98 -0.87 14164
0.15 -0.02 3.05 1.02 32.23 4.28 -1.48 -0.89 14171
0.14 -0.01 6.87 5.57 33.48 4.28 -1.92 -0.89 14177
0.11 -0.01 9.97 9.78 35.03 4.28 -2.01 -0.85 14184
0.09 -0.01 11.78 12.85 32.13 4.28 -1.72 -0.85 14190
0.04 -0.00 12.83 18.89 26.41 4.28 -0.96 -1.07 14196
0.07 -0.01 9.73 17.31 14.62 4.28 0.08 -1.64 14202
0.04 -0.00 9.52 22.83 2.89 4.28 0.48 -2.12 14210
0.05 -0.01 9.87 26.22 17.53 2.76 0.66 -2.41 14216
0.05 -0.01 7.36 24.36 30.96 -0.07 1.53 -2.31 14222
0.04 -0.00 6.13 19.38 28.47 -2.02 2.08 -1.99 14228
0.05 -0.00 3.67 15.61 16.50 -3.31 1.78 -1.62 14235
0.03 -0.00 1.39 13.84 16.74 -4.11 1.07 -1.24 14241
0.04 0.00 0.96 11.77 15.05 -4.28 0.41 -0.93 14247
0.05 -0.00 1.56 9.80 13.28 -4.28 -0.07 -0.72 14254
0.03 -0.00 2.76 7.42 11.78 -4.28 -0.39 -0.57 14261
0.04 -0.00 3.77 6.15 10.50 -4.28 -0.52 -0.47 14267
0.03 -0.00 4.39 4.68 9.94 -4.28 -0.46 -0.44 14273
0.04 -0.00 4.74 3.55 9.52 -4.28 -0.27 -0.41 14279
0.07 -0.01 5.18 2.56 9.31 -4.28 -0.00 -0.41 14285
0.06 -0.01 5.72 1.63 9.30 -4.28 0.34 -0.45 14292
0.03 -0.00 5.78 0.94 9.72 -4.28 0.65 -0.52 14299
0.05 -0.00 5.63 0.49 9.92 -4.28 0.94 -0.59 14305
0.04 -0.00 5.07 0.35 10.28 -4.28 1.22 -0.63 14311
0.04 -0.00 4.56 0.05 10.24 -4.28 1.46 -0.62 14317
0.04 0.01 3.89 -0.41 10.17 -4.28 1.65 -0.57 14323
0.03 -0.00 3.51 -1.04 10.44 -4.28 1.73 -0.50 14330
0.03 -0.00 3.23 -1.72 11.36 -4.28 1.75 -0.42 14337
0.07 -0.01 2.72 -2.23 12.41 -4.28 1.71 -0.33 14343
0.05 -0.00 2.17 -2.71 13.35 -4.28 1.67 -0.23 14349
0.05 -0.00 2.03 -3.11 14.06 -4.28 1.62 -0.09 14356
0.04 -0.00 2.25 -3.25 14.27 -4.28 1.57 0.05 14362
0.05 -0.00 2.74 -3.29 14.83 -4.28 1.53 0.14 14368
0.06 -0.01 3.02 -3.44 15.25 -4.28 1.57 0.19 14374
0.07 -0.01 3.22 -3.90 16.18 -4.28 1.69 0.21 14381
0.04 -0.00 3.18 -4.66 17.10 -4.28 1.86 0.21 14388
0.05 -0.01 3.02 -5.34 18.10 -4.28 2.07 0.21 14394
0.05 -0.00 3.07 -5.99 18.34 -4.28 2.26 0.20 14400
0.05 -0.01 2.65 -6.32 18.33 -4.28 2.43 0.20 14406
0.06 -0.01 2.21 -6.90 17.85 -4.26 2.59 0.24 14412
0.05 -0.01 2.22 -7.72 18.49 -4.14 2.69 0.29 14419
0.04 -0.00 1.70 -8.60 19.27 -4.02 2.76 0.36 14426
0.05 -0.00 0.99 -9.06 20.22 -3.79 2.76 0.45 14432
0.04 -0.00 0.38 -9.60 21.22 -3.55 2.67 0.57 14438
0.05 -0.00 0.13 -9.82 22.13 -3.37 2.53 0.70 14444
0.06 -0.01 0.15 -9.98 22.93 -3.25 2.29 0.86 14451
0.04 -0.00 0.15 -10.16 24.28 -3.21 1.99 1.00 14457
0.04 -0.00 0.41 -10.55 25.58 -3.23 1.68 1.17 14464
0.03 -0.00 0.63 -10.93 25.99 -3.31 1.44 1.38 14470
0.03 -0.00 1.03 -11.53 25.93 -3.45 1.38 1.55 14477
0.05 -0.01 1.65 -12.93 24.75 -3.62 1.49 1.80 14483
0.04 -0.00 1.08 -14.14 23.08 -3.78 1.75 1.96 14489
0.05 -0.00 -0.24 -15.18 22.30 -3.89 2.21 2.16 14495
0.04 -0.00 -1.52 -17.04 20.88 -3.93 2.60 2.30 14502
0.04 -0.00 -2.84 -19.33 20.80 -3.86 2.67 2.38 14509
0.05 -0.00 -4.10 -21.64 19.77 -3.71 2.49 2.42 14515
0.05 -0.00 -5.03 -23.90 18.35 -3.48 2.14 2.42 14522
0.05 -0.00 -5.19 -26.07 15.42 -3.20 1.69 2.35 14528
0.04 -0.00 -4.98 -28.10 12.53 -2.88 1.27 2.19 14534
0.05 -0.01 -4.80 -30.14 10.34 -2.56 1.01 1.94 14540
0.05 -0.00 -5.00 -32.66 7.94 -2.22 0.94 1.62 14547
0.04 -0.00 -5.76 -34.95 5.80 -1.89 1.04 1.27 14554
0.05 -0.00 -6.60 -36.63 4.10 -1.53 1.22 0.91 14560
0.05 -0.00 -7.59 -37.06 2.70 -1.11 1.35 0.61 14566
0.03 -0.00 -9.00 -36.35 2.68 -0.66 1.39 0.38 14572
0.05 -0.01 -9.94 -34.28 3.25 -0.16 1.21 0.23 14579
0.04 -0.00 -10.66 -31.31 4.30 0.33 0.74 0.14 14585
0.04 -0.00 -16.91 -48.85 -4.05 1.06 -0.40 0.23 14592
0.05 -0.00 -9.50 -33.30 1.99 3.52 -1.67 0.60 14598
0.04 -0.00 -7.23 -22.51 2.24 3.76 -2.34 0.70 14604
0.04 0.07 -1.28 -20.39 -5.75 3.48 -3.30 0.61 14611
0.03 0.21 -1.71 2.07 -0.86 3.32 -4.21 0.45 14617
0.01 0.37 -1.61 -1.61 25.41 3.89 -2.96 0.69 14623
0.02 0.66 4.09 6.50 23.78 4.16 -1.24 1.10 14630
-0.00 0.89 -6.29 -4.20 25.66 4.28 -1.15 1.12 14637
-0.02 1.20 -10.28 -7.70 29.63 4.28 -1.40 0.75 14643
-0.01 1.34 -5.56 -7.08 25.26 4.28 -1.12 0.38 14649
-0.02 1.53 -4.20 -4.91 26.87 4.27 -0.70 0.14 14656
-0.02 1.57 -4.67 -2.36 22.83 3.84 -0.53 -0.23 14662
-0.02 1.54 -0.04 -1.89 17.82 3.26 -0.53 -0.61 14668
-0.02 1.57 4.52 -1.96 16.32 3.14 -0.49 -0.62 14675
-0.02 1.51 4.39 -2.95 25.54 3.01 -1.27 -0.39 14682
0.00 1.53 3.86 -2.34 15.56 1.20 -1.72 -0.04 14688
-0.01 1.53 0.40 -3.30 13.89 0.51 -0.86 0.21 14694
-0.02 1.46 0.36 -1.48 12.38 0.14 -0.28 0.20 14701
-0.02 1.45 -0.50 -0.59 10.49 0.03 -0.12 0.08 14707
-0.03 1.42 0.44 -1.25 10.31 0.00 -0.10 0.00 14713
-0.02 1.40 1.12 -1.20 9.98 0.00 -0.09 0.03 14720
-0.02 1.41 0.74 -0.98 10.24 -0.01 -0.08 0.05 14727
-0.02 1.40 0.35 -0.69 10.04 -0.01 -0.08 0.04 14733
0.00 1.38 0.48 -0.73 10.01 -0.01 -0.07 0.03 14739
0.02 1.31 0.71 -0.68 9.94 -0.01 -0.07 0.03 14745
-0.01 1.28 0.69 -0.65 10.00 -0.01 -0.07 0.04 14751
0.01 1.20 0.64 -0.60 9.93 -0.01 -0.07 0.03 14758
0.06 1.13 0.59 -0.68 10.01 -0.00 -0.07 0.03 14765
0.06 1.11 0.60 -0.72 10.05 0.01 -0.06 0.03 14771
0.06 1.02 0.62 -0.70 10.07 0.01 -0.05 0.03 14777
0.08 0.91 0.61 -0.66 10.10 0.02 -0.05 0.03 14784
0.09 0.85 0.61 -0.65 10.04 0.03 -0.05 0.00 14790
0.09 0.79 0.57 -0.67 10.10 0.03 -0.04 0.03 14796
0.10 0.71 0.59 -0.70 10.02 0.04 -0.05 0.03 14802
0.12 0.64 0.63 -0.70 10.07 0.05 -0.04 0.03 14809
0.13 0.59 0.56 -0.67 10.10 0.05 -0.04 0.03 14816
0.16 0.50 0.65 -0.81 10.09 0.06 -0.03 0.03 14822
0.17 0.39 0.63 -0.74 10.03 0.06 -0.02 0.03 14828
0.15 0.34 0.65 -0.70 9.92 0.06 -0.02 0.03 14834
0.20 0.25 0.67 -0.77 10.03 0.06 -0.01 0.03 14841
0.19 0.23 0.68 -0.75 10.08 0.07 -0.01 0.02 14848
0.20 0.25 0.68 -0.99 10.10 0.07 -0.01 0.01 14854
0.21 0.15 0.59 -0.70 9.95 0.07 -0.01 0.01 14860
0.21 0.12 0.65 -0.82 9.95 0.07 -0.01 0.01 14866
0.24 0.10 0.66 -0.81 9.98 0.07 -0.01 0.00 14873
0.25 0.12 0.66 -0.81 10.00 0.07 -0.02 -0.00 14879
0.26 0.07 0.66 -0.79 9.97 0.07 -0.02 -0.00 14885
0.29 0.06 0.65 -0.76 10.08 0.08 -0.02 0.00 14892
0.30 0.02 0.75 -0.84 10.10 0.08 -0.02 0.00 14898
0.29 0.00 0.67 -0.66 9.86 0.08 -0.03 0.00 14905
0.31 0.01 0.69 -0.91 9.88 0.09 -0.03 0.01 14911
0.34 0.03 0.49 -0.56 9.89 0.10 -0.04 0.01 14917
0.38 0.03 1.23 -0.71 9.99 0.10 -0.03 0.01 14923
0.42 0.03 0.53 -0.84 10.16 0.10 -0.04 0.00 14929
0.42 -0.02 0.59 -0.75 10.08 0.10 -0.05 -0.01 14937
0.45 -0.03 0.86 -0.90 9.95 0.10 -0.05 -0.02 14943
0.48 -0.05 0.61 -0.81 9.96 0.09 -0.06 -0.03 14949
0.51 -0.05 0.78 -0.94 10.01 0.09 -0.06 -0.04 14955
0.49 -0.03 0.66 -0.99 9.85 0.09 -0.05 -0.05 14961
0.55 -0.04 0.72 -1.10 9.97 0.08 -0.05 -0.06 14968
0.53 -0.03 0.57 -0.97 9.94 0.08 -0.05 -0.06 14974
0.59 -0.04 0.65 -1.08 9.98 0.08 -0.05 -0.06 14981
0.65 -0.04 0.77 -0.91 9.91 0.09 -0.05 -0.07 14987
0.68 -0.04 0.70 -1.00 9.94 0.09 -0.04 -0.07 14993
0.74 -0.04 0.61 -0.98 10.04 0.11 -0.04 -0.07 15000
0.79 -0.05 0.61 -1.01 10.04 0.12 -0.03 -0.06 15006
0.86 -0.06 0.57 -0.98 10.13 0.15 -0.02 -0.06 15012
0.92 -0.05 0.61 -1.07 10.32 0.19 -0.01 -0.05 15019
0.92 -0.05 0.57 -1.05 10.28 0.25 -0.00 -0.05 15026
0.99 -0.05 0.67 -1.10 10.47 0.34 0.00 -0.05 15032
1.09 -0.06 0.83 -1.18 10.77 0.46 0.01 -0.05 15038
1.14 -0.08 0.91 -1.23 11.50 0.61 0.02 -0.07 15044
1.13 -0.04 0.96 -1.33 11.25 0.80 0.02 -0.09 15051
1.21 -0.06 0.94 -1.48 11.59 1.01 0.01 -0.11 15057
1.30 -0.05 1.08 -1.41 11.90 1.20 -0.02 -0.12 15064
1.39 -0.06 0.99 -1.52 12.43 1.39 -0.06 -0.14 15070
1.47 -0.07 1.13 -1.65 12.52 1.56 -0.14 -0.15 15077
1.51 -0.06 0.88 -1.61 12.76 1.73 -0.20 -0.16 15083
1.61 -0.08 0.75 -1.78 12.85 1.89 -0.29 -0.15 15089
1.64 -0.05 0.50 -1.69 13.36 2.06 -0.34 -0.14 15095
1.72 -0.07 0.40 -1.79 13.52 2.28 -0.39 -0.13 15102
1.73 -0.06 1.94 0.50 14.28 2.46 -0.39 -0.16 15109
1.75 -0.06 0.60 -2.43 14.06 2.74 -0.43 -0.12 15115
1.75 -0.08 1.11 -2.08 14.60 2.97 -0.45 -0.14 15122
1.74 -0.06 0.74 -2.11 14.24 3.27 -0.47 -0.12 15128
1.75 -0.07 0.82 -2.57 15.40 3.62 -0.47 -0.14 15134
1.64 -0.04 0.74 -2.57 15.24 3.99 -0.40 -0.15 15140
1.57 -0.07 0.89 -2.68 14.94 4.22 -0.36 -0.18 15148
1.50 -0.05 1.14 -2.63 16.54 4.28 -0.35 -0.22 15154
1.42 -0.05 0.82 -2.61 17.78 4.28 -0.43 -0.28 15160
1.26 -0.05 0.93 -3.37 18.87 4.28 -0.51 -0.33 15167
1.08 -0.04 1.58 -4.59 21.08 4.28 -0.72 -0.42 15173
0.95 -0.05 3.53 -4.46 22.13 4.28 -0.99 -0.52 15179
0.82 -0.03 3.17 -9.39 27.41 4.28 -1.18 -0.73 15185
0.70 -0.04 1.50 -13.57 35.20 4.28 -1.26 -0.76 15193
0.54 -0.03 0.84 -15.39 39.20 4.28 -1.28 -0.71 15199
0.42 -0.03 1.61 -13.59 33.45 4.28 -1.29 -0.68 15205
0.32 -0.03 2.06 -11.37 34.52 4.28 -1.17 -0.71 15212
0.25 -0.02 1.39 -9.32 32.84 4.28 -1.03 -0.75 15218
0.21 -0.02 1.73 -6.30 35.45 4.28 -1.23 -0.82 15224
0.15 -0.02 2.85 -2.41 34.67 4.28 -1.51 -0.84 15232
0.10 -0.01 5.58 1.52 34.30 4.28 -1.92 -0.84 15238
0.12 -0.00 8.78 5.96 34.50 4.28 -2.26 -0.80 15244
0.07 -0.01 10.08 10.03 33.43 4.28 -2.18 -0.73 15250
0.07 -0.01 12.81 18.30 25.26 4.28 -1.62 -0.68 15257
0.06 -0.01 11.73 22.41 19.78 4.28 -0.81 -1.08 15263
0.04 -0.00 10.71 22.32 -3.17 4.24 -0.19 -1.80 15269
0.06 -0.01 9.76 23.97 10.77 3.26 -0.16 -2.36 15276
0.04 -0.00 9.19 20.48 31.49 1.00 0.93 -2.43 15283
0.04 0.01 7.82 18.65 33.59 -1.19 1.79 -2.23 15289
0.04 -0.00 4.51 17.49 22.31 -2.70 1.81 -1.96 15295
0.03 -0.00 1.03 15.92 15.98 -3.64 1.19 -1.65 15302
0.04 -0.00 0.46 13.35 14.72 -4.24 0.50 -1.32 15308
0.04 -0.00 1.31 10.92 13.27 -4.28 0.03 -1.07 15314
0.04 -0.00 2.77 8.76 11.49 -4.28 -0.39 -0.91 15321
0.03 -0.00 3.12 7.01 9.96 -4.28 -0.59 -0.80 15327
0.01 -0.00 3.70 5.85 8.67 -4.28 -0.65 -0.71 15334
0.03 -0.00 4.38 4.72 8.25 -4.28 -0.56 -0.65 15340
0.05 -0.01 5.05 3.75 7.92 -4.28 -0.36 -0.62 15346
0.05 -0.01 5.64 2.75 7.85 -4.28 -0.10 -0.62 15352
0.05 -0.01 5.94 2.17 8.10 -4.28 0.20 -0.65 15358
0.04 -0.00 5.84 1.76 8.61 -4.28 0.48 -0.69 15365
0.04 -0.00 5.57 1.48 9.28 -4.28 0.75 -0.71 15372
