Voltage_01 Voltage_02 Acc_x Acc_y Acc_z Gyro_x Gyro_y Gyro_z Time
5000
-0.00 1.34 1.09 -1.06 9.22 0.00 0.00 0.11 23
-0.01 1.33 1.11 -1.04 9.83 0.01 0.00 0.10 29
-0.01 1.31 1.08 -1.05 9.77 0.01 0.00 0.10 35
-0.01 1.28 1.09 -1.10 9.85 0.01 0.00 0.10 41
-0.02 1.26 1.08 -1.04 9.89 0.01 0.01 0.11 48
-0.01 1.24 1.08 -1.05 9.83 0.00 0.01 0.11 54
-0.01 1.24 1.13 -1.02 9.84 0.00 0.02 0.11 60
-0.01 1.22 1.07 -1.08 9.89 0.00 0.02 0.11 66
-0.02 1.22 1.08 -1.06 9.90 0.00 0.02 0.11 72
-0.02 1.19 1.09 -1.03 9.85 -0.00 0.03 0.11 78
-0.02 1.19 1.15 -1.06 9.83 0.00 0.03 0.11 84
-0.01 1.15 1.14 -1.05 9.84 0.01 0.02 0.11 91
0.01 1.11 1.11 -1.04 9.85 0.01 0.02 0.11 97
0.00 1.09 1.13 -1.03 9.82 0.01 0.02 0.11 103
-0.00 1.03 1.14 -1.01 9.23 0.01 0.02 0.11 109
-0.01 1.03 1.10 -1.05 9.85 0.01 0.02 0.11 115
-0.00 1.03 1.12 -1.04 9.87 0.02 0.02 0.11 121
0.01 1.01 1.09 -1.03 9.84 0.01 0.03 0.12 129
0.01 0.97 1.10 -1.05 9.86 0.01 0.03 0.11 135
0.01 0.95 1.11 -1.02 9.81 0.01 0.04 0.12 141
0.02 0.91 1.14 -1.06 9.83 0.01 0.04 0.12 147
0.02 0.89 1.15 -1.01 9.87 0.02 0.04 0.13 153
0.01 0.85 1.15 -1.02 9.84 0.02 0.04 0.13 159
0.01 0.82 1.16 -1.05 9.83 0.02 0.04 0.12 165
0.02 0.81 1.15 -1.02 9.83 0.02 0.03 0.13 172
0.03 0.79 1.20 -1.00 9.81 0.02 0.03 0.13 178
0.02 0.73 1.18 -1.03 9.83 0.02 0.03 0.13 184
0.02 0.67 1.16 -1.02 9.82 0.02 0.03 0.13 190
0.01 0.68 1.19 -1.09 9.85 0.02 0.03 0.13 196
0.02 0.68 1.16 -1.06 9.82 0.02 0.03 0.13 203
0.02 0.63 1.20 -1.00 9.82 0.01 0.02 0.13 209
0.02 0.60 1.18 -0.97 10.40 0.02 0.01 0.13 216
0.02 0.59 1.17 -1.03 9.78 0.02 0.00 0.13 222
0.04 0.58 1.19 -1.00 9.81 0.02 -0.00 0.14 228
0.04 0.59 1.14 -1.00 9.82 0.02 -0.01 0.13 234
0.04 0.57 1.15 -1.04 9.87 0.03 -0.01 0.13 240
0.03 0.54 1.20 -1.04 9.79 0.02 -0.02 0.13 246
0.04 0.51 1.13 -1.05 10.40 0.03 -0.02 0.12 252
0.05 0.52 1.17 -1.01 9.82 0.02 -0.03 0.13 259
0.05 0.50 1.17 -1.00 9.83 0.03 -0.03 0.14 265
0.03 0.46 1.14 -1.01 9.82 0.03 -0.04 0.13 272
0.06 0.42 1.12 -1.02 9.79 0.03 -0.05 0.15 278
0.08 0.39 1.12 -1.02 9.78 0.03 -0.06 0.14 284
0.11 0.40 1.16 -1.02 9.82 0.03 -0.06 0.14 290
0.08 0.37 1.15 -1.01 9.83 0.04 -0.06 0.15 296
0.08 0.37 1.15 -0.99 9.82 0.03 -0.06 0.14 303
0.11 0.30 1.13 -1.01 9.81 0.04 -0.07 0.14 309
0.13 0.28 1.14 -1.03 9.83 0.04 -0.07 0.15 315
0.12 0.21 1.12 -1.04 9.86 0.04 -0.07 0.14 321
0.15 0.20 1.10 -0.99 9.21 0.04 -0.07 0.16 327
0.16 0.21 1.09 -1.00 9.83 0.04 -0.07 0.14 334
0.22 0.12 1.12 -1.03 9.81 0.04 -0.07 0.15 340
0.21 0.08 1.14 -1.02 9.78 0.04 -0.08 0.15 347
0.21 0.07 1.13 -1.04 9.80 0.04 -0.09 0.15 353
0.20 0.04 1.14 -1.03 9.78 0.05 -0.11 0.15 359
0.23 0.01 1.12 -1.02 9.80 0.05 -0.12 0.14 365
0.27 -0.01 1.12 -1.07 9.83 0.06 -0.13 0.14 371
0.26 0.00 1.14 -1.06 9.82 0.06 -0.15 0.14 377
0.31 0.02 1.17 -1.15 9.76 0.07 -0.17 0.13 384
0.31 -0.01 1.15 -1.14 9.74 0.08 -0.18 0.12 390
0.31 -0.01 1.12 -1.07 9.85 0.08 -0.18 0.12 397
0.33 -0.01 1.10 -1.06 9.84 0.08 -0.19 0.11 403
0.36 0.01 1.09 -1.08 9.92 0.09 -0.18 0.12 409
0.39 -0.02 1.05 -1.25 10.07 0.10 -0.17 0.11 415
0.42 -0.01 1.07 -1.17 9.98 0.12 -0.17 0.10 421
0.48 -0.01 1.14 -1.26 9.98 0.14 -0.17 0.08 428
0.50 -0.00 1.15 -1.27 10.05 0.18 -0.19 0.06 434
0.54 -0.02 1.17 -1.29 10.16 0.23 -0.22 0.00 440
0.63 -0.02 1.30 -1.25 10.23 0.30 -0.24 -0.00 447
0.66 -0.02 1.24 -1.37 10.24 0.40 -0.27 -0.04 453
0.69 -0.03 1.36 -1.49 10.60 0.52 -0.31 -0.09 459
0.75 -0.03 1.39 -1.54 10.86 0.70 -0.36 -0.12 465
0.80 -0.02 1.33 -1.56 11.12 0.87 -0.41 -0.16 472
0.89 -0.04 1.21 -1.65 11.53 1.02 -0.45 -0.18 478
0.95 -0.04 1.15 -1.87 11.77 1.11 -0.49 -0.20 485
1.03 -0.03 1.02 -1.91 11.77 1.19 -0.49 -0.21 491
1.11 -0.01 0.98 -2.01 11.79 1.25 -0.46 -0.21 497
1.14 -0.04 0.87 -2.08 11.72 1.31 -0.43 -0.19 503
1.22 -0.03 0.93 -2.17 11.91 1.38 -0.41 -0.19 509
1.30 -0.05 0.99 -2.19 11.95 1.46 -0.43 -0.18 516
1.31 -0.05 0.95 -2.23 11.79 1.50 -0.48 -0.17 523
1.32 -0.04 0.78 -2.39 11.59 1.58 -0.44 -0.17 529
1.34 -0.04 1.00 -2.53 12.11 1.70 -0.40 -0.18 535
1.37 -0.05 0.91 -2.61 12.68 1.87 -0.38 -0.18 541
1.36 -0.05 0.87 -2.68 13.06 2.10 -0.36 -0.19 547
1.36 -0.03 0.94 -2.91 12.90 2.31 -0.35 -0.21 553
1.33 -0.04 1.15 -3.01 12.37 2.52 -0.34 -0.22 561
1.33 -0.04 0.95 -3.17 12.84 2.71 -0.35 -0.24 567
1.28 -0.03 0.95 -3.22 12.51 2.90 -0.34 -0.26 573
1.13 -0.04 0.83 -3.31 12.77 3.11 -0.31 -0.27 579
1.05 -0.03 0.89 -3.54 13.00 3.35 -0.29 -0.29 585
0.93 -0.01 1.10 -3.79 13.33 3.59 -0.29 -0.33 591
0.82 -0.02 1.59 -4.34 14.04 3.86 -0.26 -0.37 599
0.74 -0.01 0.17 -4.31 13.10 4.12 -0.29 -0.43 605
0.65 -0.01 1.88 -5.07 15.46 4.25 -0.34 -0.48 611
0.54 -0.02 1.65 -5.80 16.20 4.28 -0.38 -0.52 617
0.46 -0.01 1.42 -6.69 17.61 4.28 -0.42 -0.55 623
0.44 0.01 1.25 -7.86 19.51 4.28 -0.44 -0.55 630
0.35 -0.01 1.50 -9.92 21.57 4.28 -0.36 -0.49 636
0.31 -0.02 1.94 -11.06 21.81 4.28 -0.20 -0.43 643
0.25 0.00 2.23 -11.47 21.95 4.28 0.01 -0.39 649
0.27 -0.02 1.93 -11.15 20.65 4.28 0.14 -0.39 655
0.15 -0.01 0.99 -10.06 20.65 4.28 0.25 -0.36 662
0.16 0.01 0.34 -10.13 19.78 4.28 0.37 -0.26 668
0.14 -0.00 0.65 -9.46 23.28 4.28 0.57 -0.16 674
0.11 -0.01 0.93 -8.62 25.23 4.28 0.67 -0.14 680
0.06 -0.00 1.23 -6.61 25.89 4.28 0.64 -0.21 687
0.08 -0.01 1.68 -3.85 25.57 4.28 0.49 -0.27 693
0.07 -0.01 2.20 -0.42 24.98 4.28 0.30 -0.33 699
0.05 0.01 2.33 3.43 25.14 4.28 0.11 -0.40 706
0.05 0.01 2.57 7.51 22.66 4.28 0.18 -0.45 712
0.05 0.01 2.32 9.09 18.03 4.28 0.49 -0.55 718
0.04 0.01 5.25 10.52 8.25 4.28 0.61 -0.87 724
0.04 0.01 1.15 8.49 -0.73 4.27 -0.22 -1.47 731
0.04 0.01 4.32 10.91 6.47 2.86 -1.01 -1.91 737
0.04 -0.00 2.70 20.53 11.45 0.76 -0.68 -1.99 743
0.04 0.01 6.51 16.17 20.68 -0.22 0.19 -1.90 750
0.05 0.00 5.91 9.88 18.54 -1.11 0.76 -1.89 756
0.04 0.01 3.16 8.73 15.80 -1.91 0.89 -1.90 762
0.04 0.00 2.55 10.04 12.55 -2.50 0.98 -1.80 769
0.06 0.00 2.28 10.32 10.14 -2.88 1.03 -1.67 775
0.05 0.00 2.08 8.91 8.67 -3.13 0.99 -1.52 781
0.04 0.01 1.58 7.39 8.14 -3.30 0.85 -1.40 788
0.05 0.01 1.42 6.53 7.62 -3.40 0.66 -1.28 794
0.05 0.01 1.32 5.97 7.41 -3.44 0.46 -1.15 800
0.05 0.00 1.40 5.11 6.99 -3.47 0.28 -1.03 806
0.03 0.01 1.67 4.16 6.87 -3.50 0.15 -0.91 813
0.04 0.02 1.94 3.79 7.05 -3.54 0.04 -0.78 819
0.04 0.01 2.33 3.48 7.51 -3.61 -0.02 -0.70 825
0.04 0.01 2.65 3.44 8.19 -3.69 -0.06 -0.59 831
0.03 0.01 2.96 3.38 8.88 -3.81 -0.06 -0.49 837
0.04 0.01 3.32 3.44 9.65 -3.92 -0.01 -0.39 843
0.05 0.01 3.36 3.06 10.27 -4.07 0.08 -0.29 850
0.04 0.00 3.41 2.40 10.95 -4.18 0.23 -0.17 857
0.04 0.01 3.32 1.84 11.34 -4.26 0.38 -0.10 863
0.04 0.01 3.40 1.01 11.82 -4.28 0.52 -0.03 869
0.04 0.01 3.23 0.20 12.36 -4.28 0.64 0.02 875
0.04 0.01 2.91 -0.54 12.57 -4.28 0.74 0.07 881
0.04 0.01 2.69 -1.24 12.66 -4.28 0.83 0.10 888
0.05 0.01 2.50 -1.93 12.72 -4.28 0.92 0.12 894
0.04 0.00 2.36 -2.71 12.91 -4.28 0.97 0.12 901
0.05 0.00 2.32 -3.50 13.25 -4.28 1.05 0.09 907
0.06 0.01 2.30 -4.81 13.80 -4.28 1.13 0.00 913
0.04 0.01 2.28 -4.96 14.33 -4.28 1.23 -0.04 919
0.04 0.01 2.19 -5.60 14.84 -4.28 1.36 -0.14 925
0.05 0.01 2.17 -6.03 15.39 -4.24 1.52 -0.25 932
0.05 0.00 1.99 -6.26 15.95 -4.19 1.66 -0.34 939
0.04 -0.00 1.76 -6.50 16.62 -4.14 1.78 -0.41 945
0.05 0.01 1.45 -6.92 17.32 -4.07 1.88 -0.43 951
0.05 0.00 1.11 -7.28 18.05 -3.98 1.94 -0.39 957
0.05 0.00 0.94 -7.50 18.61 -3.87 1.99 -0.31 963
0.04 0.01 0.80 -7.68 19.02 -3.76 2.02 -0.16 969
0.03 0.00 0.77 -7.92 19.40 -3.66 2.03 -0.01 976
0.03 -0.00 0.62 -8.19 19.71 -3.56 2.00 0.21 983
0.03 -0.00 0.72 -8.64 20.02 -3.47 1.93 0.45 989
0.03 0.00 0.76 -9.33 19.93 -3.35 1.82 0.69 995
0.04 -0.00 0.15 -10.18 19.76 -3.26 1.67 0.91 1001
0.03 0.00 0.44 -11.48 19.63 -3.09 1.54 1.09 1007
0.03 0.01 0.21 -12.75 19.02 -2.88 1.41 1.22 1014
0.04 0.00 -0.30 -13.96 18.44 -2.63 1.25 1.30 1020
0.03 0.00 -0.82 -14.84 18.05 -2.37 1.12 1.34 1027
0.05 0.00 -0.98 -15.41 17.54 -2.13 0.96 1.34 1033
0.03 -0.00 -0.97 -15.86 16.93 -1.92 0.86 1.31 1040
0.04 0.00 -0.73 -16.19 16.42 -1.75 0.87 1.29 1046
0.04 0.00 -0.69 -16.56 15.85 -1.62 0.98 1.28 1052
0.03 0.00 -0.92 -16.83 15.47 -1.53 1.15 1.29 1058
0.06 -0.01 -1.40 -17.14 15.10 -1.49 1.31 1.31 1065
0.04 -0.00 -2.28 -17.46 14.70 -1.50 1.41 1.35 1072
0.05 -0.00 -3.62 -17.90 13.78 -1.57 1.42 1.46 1078
0.05 0.00 -5.04 -18.29 12.75 -1.69 1.32 1.54 1084
0.05 0.00 -6.13 -18.51 11.16 -1.84 1.15 1.66 1091
0.06 0.01 -6.98 -18.82 9.40 -1.96 1.00 1.80 1097
0.05 0.00 -7.46 -19.96 7.96 -2.02 0.79 1.92 1103
0.05 0.00 -7.63 -21.41 5.55 -2.00 0.47 1.97 1110
0.06 0.01 -7.37 -22.50 4.77 -1.88 0.08 1.95 1116
0.05 0.00 -7.07 -23.22 3.37 -1.63 -0.27 1.88 1123
0.05 0.00 -6.10 -23.21 2.36 -1.28 -0.52 1.76 1129
0.06 0.01 -5.33 -22.77 1.65 -0.89 -0.67 1.61 1135
0.05 -0.01 -4.61 -22.13 1.80 -0.45 -0.78 1.41 1141
0.05 0.00 -3.86 -21.04 2.49 -0.01 -0.87 1.16 1147
0.06 -0.00 -2.90 -19.87 3.96 0.38 -0.95 0.87 1155
0.05 -0.01 0.05 -25.61 3.08 0.63 -1.02 0.56 1161
0.05 0.00 0.84 -23.72 10.49 2.73 -0.47 0.26 1167
0.04 0.01 -5.84 -14.31 -1.21 2.53 -0.72 0.17 1173
0.04 0.01 -1.90 -2.60 6.24 2.62 -1.19 0.01 1179
0.04 0.02 -0.59 4.31 12.66 2.65 -1.40 -0.06 1186
0.02 0.37 3.10 6.23 13.62 2.47 -1.11 0.08 1192
-0.02 0.53 3.99 3.00 11.80 2.40 -0.76 0.24 1199
-0.01 0.62 2.28 -0.25 12.32 2.40 -0.40 0.39 1205
-0.01 0.66 0.35 -2.54 12.60 2.47 -0.13 0.43 1211
-0.01 0.72 -1.50 -2.96 13.20 2.46 -0.30 0.37 1218
-0.01 0.74 -0.92 -2.53 12.87 2.52 -0.44 0.27 1224
-0.02 0.78 -0.47 -1.91 12.75 2.61 -0.38 0.21 1230
-0.02 0.83 -1.07 -1.60 12.87 2.68 -0.22 0.13 1236
-0.01 0.92 -2.17 -2.83 15.80 2.77 -0.14 0.00 1244
-0.02 1.00 -1.15 -3.21 17.04 2.87 0.08 -0.16 1250
-0.02 1.04 0.86 -2.90 17.78 2.96 0.57 -0.29 1256
-0.01 1.07 1.09 -2.77 18.85 2.97 1.06 -0.38 1262
-0.01 1.17 3.74 -4.37 27.74 2.67 1.07 -0.44 1269
-0.01 1.22 3.30 -3.23 11.56 0.31 -0.28 -0.02 1275
-0.01 1.25 1.18 -1.89 11.31 0.08 -0.22 0.14 1282
-0.02 1.28 0.33 -1.47 10.10 0.09 -0.22 0.10 1288
-0.01 1.30 0.96 -2.33 10.67 0.04 -0.09 0.05 1294
-0.00 1.30 0.68 -2.06 10.13 -0.02 0.00 0.11 1301
-0.00 1.34 0.99 -1.29 9.71 -0.02 0.00 0.11 1307
0.02 1.32 1.16 -2.30 9.94 -0.00 -0.01 0.10 1313
0.02 1.31 0.99 -1.33 10.04 0.01 -0.01 0.11 1319
0.05 1.33 0.97 -1.32 9.89 0.02 -0.04 0.11 1326
0.08 1.34 0.98 -1.19 9.95 0.02 -0.04 0.10 1332
0.06 1.35 1.07 -1.15 9.84 0.03 -0.06 0.12 1339
0.08 1.35 1.01 -1.19 9.93 0.02 -0.06 0.11 1345
0.07 1.37 0.98 -1.15 9.87 0.02 -0.07 0.12 1351
0.07 1.35 0.99 -1.10 9.87 0.02 -0.08 0.12 1357
0.07 1.34 0.94 -1.09 9.82 0.03 -0.08 0.12 1363
0.08 1.32 0.94 -1.04 9.83 0.03 -0.08 0.13 1370
0.11 1.30 0.91 -1.06 9.83 0.03 -0.09 0.12 1376
0.10 1.28 0.91 -1.06 9.84 0.04 -0.09 0.13 1383
0.12 1.26 0.90 -1.07 9.85 0.04 -0.09 0.13 1389
0.11 1.21 0.88 -1.08 9.87 0.04 -0.09 0.14 1395
0.13 1.16 0.89 -1.08 9.82 0.03 -0.08 0.14 1401
0.14 1.14 0.88 -1.08 9.81 0.03 -0.07 0.15 1408
0.15 1.11 0.89 -1.07 9.83 0.03 -0.07 0.15 1414
0.16 1.06 0.84 -1.07 9.83 0.03 -0.06 0.16 1421
0.17 1.02 0.87 -1.08 9.82 0.03 -0.05 0.15 1427
0.18 0.98 0.84 -1.04 9.82 0.03 -0.06 0.16 1433
0.21 0.93 0.90 -1.07 9.84 0.03 -0.06 0.16 1439
0.22 0.90 0.88 -1.06 10.42 0.03 -0.06 0.15 1445
0.24 0.86 0.86 -1.09 9.82 0.04 -0.07 0.15 1452
0.25 0.83 0.87 -1.05 9.87 0.04 -0.07 0.15 1459
0.24 0.79 0.88 -1.09 9.84 0.04 -0.06 0.15 1465
0.24 0.75 0.88 -1.11 9.84 0.04 -0.06 0.16 1471
0.25 0.68 0.85 -1.09 9.82 0.04 -0.06 0.17 1477
0.30 0.61 0.83 -1.12 9.81 0.03 -0.06 0.16 1483
0.29 0.64 0.86 -1.14 9.84 0.03 -0.05 0.16 1489
0.31 0.59 0.85 -1.13 9.84 0.03 -0.05 0.16 1496
0.32 0.61 0.86 -1.08 9.84 0.03 -0.04 0.16 1503
0.30 0.58 0.88 -1.09 9.82 0.03 -0.04 0.17 1509
0.33 0.52 0.85 -1.08 9.84 0.03 -0.03 0.16 1515
0.32 0.47 0.90 -1.12 9.83 0.03 -0.04 0.16 1521
0.33 0.41 0.89 -1.12 9.81 0.03 -0.04 0.15 1527
0.33 0.43 0.88 -1.08 9.80 0.04 -0.05 0.15 1533
0.36 0.41 0.84 -1.14 9.83 0.04 -0.06 0.15 1541
0.37 0.37 0.92 -1.14 9.82 0.04 -0.06 0.15 1547
0.41 0.35 0.85 -1.15 9.87 0.04 -0.07 0.14 1553
0.42 0.30 0.89 -1.16 9.83 0.04 -0.07 0.14 1559
0.44 0.23 0.91 -1.15 9.84 0.04 -0.07 0.14 1565
0.46 0.19 0.89 -1.15 9.84 0.04 -0.07 0.14 1571
0.52 0.15 0.88 -1.19 9.86 0.04 -0.07 0.13 1579
0.50 0.14 0.86 -1.16 9.83 0.04 -0.07 0.13 1585
0.52 0.10 0.92 -1.22 9.86 0.05 -0.08 0.12 1591
0.55 0.07 0.90 -1.19 9.85 0.05 -0.09 0.12 1597
0.57 0.04 0.86 -1.17 9.85 0.05 -0.09 0.11 1603
0.60 -0.01 0.87 -1.23 9.88 0.06 -0.10 0.10 1609
0.59 -0.02 0.96 -1.26 9.89 0.07 -0.11 0.11 1615
0.64 -0.02 0.90 -1.25 9.87 0.07 -0.12 0.08 1623
0.66 -0.03 0.89 -1.27 9.83 0.07 -0.12 0.07 1629
0.66 -0.02 0.88 -1.28 9.87 0.08 -0.13 0.07 1635
0.75 -0.02 0.93 -1.31 9.87 0.09 -0.13 0.06 1641
0.78 -0.03 0.94 -1.31 9.90 0.10 -0.15 0.05 1647
0.82 -0.03 0.98 -1.31 9.95 0.11 -0.16 0.04 1653
0.84 -0.03 0.87 -1.35 9.89 0.12 -0.17 0.02 1660
0.93 -0.04 0.85 -1.38 9.99 0.14 -0.18 0.01 1667
0.92 -0.04 0.88 -1.40 9.94 0.15 -0.19 -0.00 1673
0.99 -0.02 0.91 -1.45 9.99 0.18 -0.20 -0.02 1679
1.05 -0.04 1.03 -1.46 9.91 0.20 -0.22 -0.03 1685
1.13 -0.05 0.95 -1.51 10.05 0.23 -0.24 -0.05 1691
1.16 -0.02 0.90 -1.54 10.04 0.26 -0.25 -0.06 1698
1.23 -0.04 0.93 -1.59 10.27 0.30 -0.26 -0.08 1704
1.21 -0.03 0.88 -1.58 10.28 0.35 -0.28 -0.09 1711
1.32 -0.03 0.86 -1.72 10.49 0.41 -0.30 -0.10 1717
1.40 -0.05 0.85 -1.67 10.63 0.50 -0.34 -0.10 1724
1.39 -0.04 0.88 -1.79 10.78 0.60 -0.35 -0.09 1730
1.46 -0.03 0.90 -1.78 10.98 0.65 -0.36 -0.10 1736
1.49 -0.05 0.62 -1.78 11.06 0.72 -0.36 -0.10 1742
1.52 -0.05 0.94 -1.90 11.22 0.82 -0.36 -0.10 1748
1.56 -0.05 0.88 -2.11 11.39 0.92 -0.36 -0.12 1756
1.62 -0.07 0.89 -2.06 11.44 1.01 -0.35 -0.12 1762
1.68 -0.05 0.81 -2.14 11.29 1.07 -0.30 -0.12 1768
1.73 -0.08 1.19 -2.24 11.33 1.10 -0.35 -0.12 1774
1.73 -0.07 0.65 -2.12 11.61 1.18 -0.36 -0.12 1781
1.74 -0.06 0.11 -2.42 11.64 1.27 -0.34 -0.12 1787
1.75 -0.06 0.79 -2.47 11.78 1.39 -0.34 -0.13 1794
1.79 -0.04 0.77 -2.42 11.55 1.51 -0.34 -0.15 1800
1.78 -0.04 0.84 -2.64 11.87 1.65 -0.37 -0.18 1807
1.79 -0.05 0.78 -2.75 12.49 1.83 -0.41 -0.20 1813
1.80 -0.06 0.86 -2.87 13.17 2.04 -0.43 -0.22 1819
1.79 -0.05 0.63 -3.07 13.45 2.30 -0.48 -0.23 1825
1.74 -0.03 0.66 -3.14 12.89 2.58 -0.50 -0.25 1831
1.71 -0.04 0.74 -3.29 13.46 2.81 -0.52 -0.28 1839
1.63 -0.06 0.90 -3.54 14.08 3.04 -0.53 -0.31 1845
1.51 -0.03 1.00 -3.57 13.95 3.29 -0.56 -0.35 1851
1.35 -0.04 2.01 -3.32 14.74 3.58 -0.62 -0.41 1857
1.19 -0.04 1.48 -3.94 14.96 3.91 -0.66 -0.48 1864
1.10 -0.05 1.29 -3.98 16.34 4.17 -0.73 -0.58 1870
0.93 -0.05 4.61 -4.42 13.97 4.28 -0.74 -0.65 1876
0.81 -0.03 1.74 -5.21 16.69 4.28 -0.84 -0.73 1883
0.67 -0.03 1.09 -6.13 18.15 4.28 -0.87 -0.78 1890
0.53 -0.02 1.29 -7.40 20.38 4.28 -0.91 -0.81 1896
0.47 -0.01 1.18 -9.03 21.84 4.28 -0.89 -0.79 1902
0.38 -0.00 1.20 -11.96 24.72 4.28 -0.71 -0.71 1908
0.35 0.01 0.96 -13.23 26.06 4.28 -0.53 -0.66 1915
0.33 -0.01 0.83 -12.86 24.85 4.28 -0.41 -0.63 1922
0.24 -0.00 0.96 -11.33 23.12 4.28 -0.41 -0.61 1928
0.23 -0.01 0.76 -9.57 23.22 4.28 -0.32 -0.55 1934
0.17 -0.01 0.65 -7.72 25.83 4.28 -0.12 -0.48 1941
0.13 0.00 0.97 -6.28 26.48 4.28 -0.06 -0.47 1947
0.07 -0.00 1.72 -3.90 27.54 4.28 -0.12 -0.51 1953
0.07 0.00 3.33 -0.86 26.98 4.28 -0.23 -0.52 1959
0.07 0.00 3.64 3.40 27.60 4.28 -0.36 -0.54 1966
0.05 0.01 4.49 9.02 25.48 4.28 -0.31 -0.58 1973
0.05 0.01 4.08 11.92 21.62 4.28 0.02 -0.68 1979
0.06 0.00 6.53 12.24 9.67 4.28 0.34 -1.05 1985
0.05 -0.00 2.74 8.69 -0.87 4.28 -0.22 -1.62 1991
0.04 0.02 5.47 12.66 0.49 2.84 -0.80 -1.92 1997
0.06 0.03 4.07 24.38 16.66 0.40 -0.58 -1.97 2004
0.05 0.01 6.58 16.29 23.34 -0.78 0.24 -1.89 2011
0.05 0.03 4.79 9.15 18.94 -1.64 0.60 -1.84 2017
0.06 0.02 2.97 8.29 13.10 -2.37 0.61 -1.71 2023
0.04 0.02 2.30 10.05 9.94 -2.80 0.52 -1.52 2030
0.05 0.03 2.77 9.61 7.65 -3.04 0.39 -1.36 2036
0.05 0.03 2.97 7.77 6.56 -3.16 0.26 -1.25 2042
0.05 0.02 3.04 6.24 6.31 -3.21 0.24 -1.15 2049
0.04 0.03 3.19 5.91 6.02 -3.23 0.28 -1.01 2055
0.05 0.02 3.25 5.43 5.98 -3.24 0.37 -0.88 2061
0.05 0.01 3.19 4.90 5.88 -3.27 0.44 -0.76 2068
0.05 0.03 2.86 4.51 6.28 -3.32 0.53 -0.64 2074
0.06 0.02 2.54 4.34 6.92 -3.41 0.59 -0.53 2080
0.05 0.01 2.44 4.16 7.55 -3.51 0.62 -0.41 2086
0.04 0.02 2.30 4.05 8.21 -3.62 0.62 -0.29 2093
0.05 0.03 2.17 3.87 8.81 -3.75 0.64 -0.17 2099
0.04 0.02 2.12 3.67 9.68 -3.90 0.71 -0.05 2106
0.03 0.02 1.99 3.25 10.41 -4.05 0.80 0.04 2112
0.04 0.03 1.86 2.36 10.63 -4.16 0.91 0.10 2118
0.04 0.02 1.69 1.49 11.35 -4.24 1.03 0.14 2124
0.03 0.02 1.41 0.77 11.82 -4.28 1.15 0.17 2130
0.05 0.02 1.37 -0.04 12.43 -4.28 1.25 0.17 2138
0.03 0.03 1.14 -0.80 12.97 -4.28 1.39 0.16 2144
0.04 0.03 0.92 -1.57 13.41 -4.28 1.48 0.12 2150
0.05 0.03 0.57 -2.14 13.81 -4.28 1.62 0.08 2156
0.04 0.02 0.26 -2.81 14.19 -4.28 1.75 0.03 2162
0.04 0.03 -0.01 -3.68 14.76 -4.28 1.88 -0.03 2169
0.04 0.03 -0.40 -4.65 15.24 -4.28 1.99 -0.10 2176
0.04 0.02 -0.70 -5.45 15.61 -4.28 2.05 -0.18 2182
0.04 0.04 -1.08 -6.38 15.79 -4.28 2.08 -0.25 2188
0.04 0.04 -1.36 -6.99 16.07 -4.26 2.08 -0.30 2194
0.03 0.04 -1.44 -7.36 16.08 -4.20 2.04 -0.32 2201
0.04 0.04 -1.52 -7.46 16.34 -4.10 1.98 -0.30 2207
0.04 0.03 -1.54 -7.59 16.31 -3.96 1.89 -0.24 2213
0.03 0.03 -1.53 -7.53 16.49 -3.77 1.77 -0.15 2220
0.04 0.03 -1.32 -7.34 16.91 -3.59 1.62 -0.03 2227
0.04 0.02 -0.82 -7.10 17.47 -3.41 1.50 0.12 2233
0.04 0.03 -0.35 -6.92 18.26 -3.25 1.43 0.27 2239
0.04 0.03 -0.05 -7.05 19.04 -3.16 1.41 0.44 2245
0.04 0.02 0.11 -7.54 19.63 -3.07 1.42 0.61 2251
0.04 0.03 0.15 -8.26 19.71 -3.00 1.38 0.76 2258
0.04 0.01 0.19 -9.20 19.68 -2.94 1.38 0.91 2265
0.03 -0.00 0.27 -10.10 19.54 -2.84 1.33 1.04 2271
0.05 0.00 0.46 -11.27 19.42 -2.72 1.28 1.17 2277
0.05 -0.00 0.53 -12.57 19.32 -2.57 1.24 1.26 2283
0.04 0.01 0.65 -13.80 18.94 -2.40 1.20 1.31 2290
0.05 0.01 0.78 -15.11 18.52 -2.22 1.15 1.38 2296
0.04 0.01 0.83 -16.25 18.65 -2.06 1.08 1.43 2302
0.04 0.01 0.92 -17.40 18.55 -1.94 1.03 1.46 2310
0.04 0.00 1.27 -18.44 18.16 -1.88 0.98 1.49 2316
0.04 -0.00 1.57 -19.24 17.54 -1.89 0.94 1.50 2322
0.06 -0.01 1.66 -19.89 16.35 -1.93 0.96 1.50 2328
0.05 -0.00 1.10 -19.99 13.85 -2.00 1.07 1.51 2334
0.04 0.00 -0.51 -19.49 10.59 -2.04 1.53 1.60 2341
0.05 0.00 -2.56 -20.22 9.35 -2.04 2.49 1.87 2348
0.04 -0.00 -4.96 -22.67 9.20 -2.08 3.32 2.14 2354
0.05 0.01 -8.02 -24.58 10.27 -2.18 3.30 2.19 2360
0.05 -0.00 -10.61 -26.69 7.58 -2.31 2.64 2.05 2367
0.05 -0.00 -11.75 -27.15 5.91 -2.34 1.80 1.87 2373
0.06 -0.01 -10.21 -27.38 2.66 -2.18 1.08 1.71 2379
0.04 -0.00 -9.90 -26.58 -0.02 -1.82 0.57 1.49 2385
0.05 -0.00 -7.89 -26.49 -0.69 -1.34 0.17 1.18 2392
0.07 -0.01 -6.71 -25.45 -0.16 -0.67 -0.21 0.80 2398
0.05 -0.01 -5.19 -23.76 1.08 0.00 -0.54 0.36 2405
0.05 -0.00 -15.64 -33.67 37.98 1.65 -1.83 0.13 2411
0.06 -0.01 -7.81 -20.46 -5.75 2.27 -2.15 -0.09 2417
0.05 -0.01 -7.70 -17.60 4.53 2.71 -3.15 -0.09 2423
0.04 -0.00 0.65 -2.40 9.19 2.85 -3.88 -0.18 2429
0.03 0.06 2.71 8.77 11.71 2.86 -3.18 -0.05 2437
0.01 0.49 6.81 3.26 15.20 2.81 -2.06 0.43 2443
-0.01 0.66 5.64 4.16 11.54 2.79 -1.14 0.91 2449
-0.01 0.70 2.69 -2.15 12.83 2.82 -0.34 1.18 2455
-0.02 0.73 -1.20 -3.13 14.56 2.82 -0.05 1.27 2461
-0.02 0.77 -4.09 -4.34 15.05 2.73 -0.07 1.20 2468
-0.02 0.80 -5.61 -3.80 15.00 2.72 -0.11 0.98 2475
-0.02 0.88 -7.15 -2.82 15.44 2.75 -0.10 0.65 2481
-0.02 0.98 -7.76 -2.44 16.31 2.81 -0.07 0.22 2487
-0.02 1.01 -4.39 -2.79 18.03 2.87 0.11 -0.22 2494
-0.02 1.02 0.90 -2.64 17.66 2.91 0.52 -0.48 2500
-0.01 1.11 3.19 -2.92 18.02 2.88 0.90 -0.51 2506
-0.02 1.16 4.56 -3.46 21.59 2.76 0.99 -0.44 2512
-0.00 1.19 4.61 -3.63 20.42 1.41 -0.31 -0.11 2520
-0.02 1.24 1.60 -2.77 12.40 0.30 -0.54 0.14 2526
-0.03 1.26 -0.28 -1.30 10.36 0.15 -0.42 0.13 2532
-0.01 1.28 0.29 -1.48 10.47 0.08 -0.27 0.07 2538
-0.01 1.30 1.88 -1.42 10.03 -0.00 -0.11 0.08 2544
-0.01 1.30 0.43 -0.64 10.40 -0.02 -0.08 0.08 2551
0.04 1.29 0.89 -1.42 9.90 -0.01 -0.09 0.10 2557
0.01 1.30 -0.29 -0.59 10.25 0.00 -0.10 0.08 2564
0.00 1.33 1.01 -1.25 9.94 0.03 -0.09 0.10 2570
0.02 1.33 0.94 -1.13 9.96 0.04 -0.11 0.10 2576
0.05 1.34 1.01 -1.13 10.01 0.05 -0.11 0.10 2582
0.04 1.33 0.96 -1.11 9.95 0.05 -0.12 0.10 2589
0.06 1.33 0.92 -1.08 9.95 0.05 -0.13 0.11 2595
0.09 1.32 0.87 -1.03 9.89 0.05 -0.13 0.10 2601
0.10 1.31 0.85 -1.03 9.91 0.05 -0.13 0.12 2608
0.10 1.29 0.80 -1.03 9.92 0.05 -0.11 0.13 2614
0.12 1.26 0.83 -0.99 9.88 0.04 -0.10 0.12 2620
0.15 1.22 0.82 -0.99 9.88 0.04 -0.10 0.13 2627
0.13 1.20 0.82 -1.03 9.84 0.03 -0.09 0.14 2633
0.16 1.18 0.85 -1.02 9.86 0.04 -0.09 0.14 2639
0.16 1.16 0.82 -1.01 9.86 0.03 -0.09 0.13 2646
0.17 1.12 0.81 -1.01 9.84 0.03 -0.08 0.14 2652
0.17 1.11 0.78 -1.00 9.89 0.03 -0.08 0.15 2658
0.17 1.07 0.76 -1.00 9.93 0.03 -0.08 0.15 2664
0.16 1.02 0.80 -1.03 9.87 0.03 -0.08 0.16 2671
0.20 0.99 0.80 -0.99 9.81 0.02 -0.08 0.16 2677
0.21 0.95 0.78 -1.01 9.84 0.03 -0.08 0.17 2683
0.21 0.90 0.75 -1.02 9.81 0.03 -0.08 0.15 2690
0.23 0.83 0.78 -0.98 9.83 0.03 -0.08 0.15 2696
0.26 0.80 0.79 -0.98 9.89 0.03 -0.08 0.14 2702
0.23 0.75 0.75 -1.03 9.82 0.04 -0.09 0.16 2709
0.26 0.71 0.79 -1.01 9.85 0.03 -0.08 0.15 2715
0.27 0.68 0.74 -1.03 9.83 0.03 -0.08 0.15 2721
0.29 0.64 0.75 -1.04 9.85 0.03 -0.07 0.15 2727
0.31 0.62 0.73 -1.04 9.85 0.03 -0.06 0.15 2734
0.32 0.58 0.74 -1.02 9.84 0.03 -0.05 0.14 2740
0.32 0.56 0.71 -1.01 9.88 0.03 -0.04 0.15 2747
0.34 0.52 0.71 -1.04 9.84 0.02 -0.04 0.15 2753
0.37 0.52 0.78 -1.04 9.83 0.03 -0.03 0.14 2759
0.39 0.51 0.78 -1.06 9.83 0.03 -0.02 0.15 2765
0.38 0.45 0.76 -1.04 9.80 0.03 -0.03 0.15 2771
0.39 0.39 0.83 -1.02 9.87 0.03 -0.03 0.15 2778
0.41 0.44 0.81 -1.09 9.83 0.03 -0.03 0.15 2784
0.42 0.40 0.79 -1.08 9.91 0.03 -0.03 0.16 2791
0.41 0.34 0.83 -1.07 9.86 0.03 -0.03 0.14 2797
0.43 0.38 0.79 -1.07 9.84 0.03 -0.03 0.14 2803
0.43 0.33 0.78 -1.06 9.84 0.03 -0.03 0.14 2809
0.44 0.23 0.75 -1.06 9.83 0.04 -0.03 0.15 2816
0.47 0.22 0.75 -1.07 9.84 0.04 -0.03 0.14 2822
0.47 0.18 0.79 -1.12 9.89 0.04 -0.03 0.14 2828
0.48 0.12 0.77 -1.07 9.87 0.04 -0.03 0.15 2835
0.46 0.12 0.76 -1.10 9.85 0.04 -0.03 0.14 2841
0.49 0.09 0.84 -1.09 9.88 0.04 -0.02 0.15 2847
0.51 0.07 0.78 -1.13 9.87 0.03 -0.02 0.14 2853
0.51 0.05 0.78 -1.13 9.92 0.04 -0.02 0.14 2860
0.55 0.01 0.74 -1.10 9.85 0.04 -0.02 0.15 2866
0.57 -0.01 0.81 -1.12 9.89 0.04 -0.02 0.13 2873
0.56 -0.03 0.79 -1.10 9.90 0.04 -0.02 0.14 2879
0.59 -0.02 0.84 -1.15 9.89 0.05 -0.02 0.13 2885
0.58 -0.01 0.84 -1.14 9.87 0.05 -0.03 0.14 2891
0.60 -0.02 0.84 -1.17 9.88 0.06 -0.04 0.12 2897
0.62 -0.01 0.85 -1.16 9.90 0.06 -0.04 0.12 2904
0.64 -0.02 0.86 -1.16 9.90 0.08 -0.06 0.10 2910
0.70 -0.02 0.90 -1.23 9.87 0.09 -0.08 0.09 2917
0.72 -0.02 0.91 -1.23 9.88 0.10 -0.10 0.08 2923
0.77 -0.01 0.87 -1.21 9.91 0.11 -0.11 0.05 2929
0.82 -0.03 0.88 -1.27 9.92 0.16 -0.12 0.04 2935
0.87 -0.04 0.92 -1.28 9.89 0.15 -0.12 0.03 2941
0.89 -0.03 0.87 -1.33 10.02 0.18 -0.13 0.02 2948
0.97 -0.03 0.94 -1.32 10.12 0.22 -0.14 0.00 2955
0.98 -0.04 0.93 -1.43 10.12 0.27 -0.17 -0.01 2961
1.06 -0.02 0.88 -1.55 10.42 0.36 -0.22 -0.03 2967
1.05 -0.03 1.01 -0.97 10.56 0.47 -0.28 -0.04 2973
1.11 -0.03 0.93 -1.73 10.78 0.61 -0.33 -0.06 2980
1.19 -0.04 0.94 -1.65 11.18 0.72 -0.34 -0.07 2987
1.24 -0.04 0.69 -1.76 11.37 0.81 -0.32 -0.07 2993
1.29 -0.04 0.92 -1.75 11.49 0.90 -0.29 -0.08 2999
1.33 -0.05 0.93 -1.90 11.64 0.98 -0.24 -0.09 3005
1.37 -0.05 1.16 -1.80 11.57 1.08 -0.22 -0.11 3012
1.41 -0.03 0.98 -1.99 11.64 1.18 -0.21 -0.13 3018
1.46 -0.04 0.91 -1.99 11.78 1.29 -0.22 -0.14 3024
1.47 -0.04 0.62 -3.01 11.75 1.39 -0.24 -0.16 3031
1.53 -0.03 0.98 -2.25 11.87 1.47 -0.34 -0.17 3038
1.56 -0.04 1.07 -2.29 11.82 1.57 -0.39 -0.18 3044
1.58 -0.04 1.52 -4.79 12.09 1.67 -0.41 -0.21 3050
1.61 -0.04 0.91 -2.54 12.58 1.83 -0.43 -0.23 3056
1.60 -0.03 0.99 -2.57 13.09 2.02 -0.44 -0.24 3063
1.59 -0.03 0.92 -2.90 13.64 2.30 -0.45 -0.26 3069
1.56 -0.06 0.98 -2.95 13.84 2.58 -0.46 -0.28 3076
1.53 -0.06 1.16 -3.06 13.73 2.86 -0.48 -0.32 3082
1.48 -0.04 1.16 -3.33 13.90 3.08 -0.48 -0.36 3088
1.38 -0.07 0.98 -3.46 14.64 3.34 -0.49 -0.41 3095
1.23 -0.04 1.69 -3.80 15.15 3.63 -0.49 -0.44 3101
1.08 -0.05 1.16 -3.70 15.58 3.98 -0.51 -0.48 3107
0.97 -0.04 1.77 -4.43 16.24 4.22 -0.55 -0.54 3113
0.84 -0.04 1.78 -4.59 15.35 4.28 -0.59 -0.61 3121
0.61 -0.03 1.76 -5.02 17.23 4.28 -0.62 -0.68 3127
0.56 -0.00 1.13 -6.37 18.71 4.28 -0.70 -0.72 3133
0.53 -0.00 1.69 -7.34 20.67 4.28 -0.67 -0.72 3139
0.43 -0.01 1.29 -9.92 23.04 4.28 -0.59 -0.68 3146
0.35 0.00 0.95 -11.90 25.32 4.28 -0.44 -0.61 3152
0.28 -0.02 1.37 -13.20 24.79 4.28 -0.25 -0.55 3159
0.26 -0.01 1.07 -12.09 23.87 4.28 -0.09 -0.51 3165
0.23 -0.01 0.76 -11.62 23.40 4.28 0.01 -0.44 3172
0.16 -0.01 1.39 -9.95 25.90 4.28 0.23 -0.34 3178
0.13 0.00 2.10 -8.09 27.24 4.28 0.40 -0.35 3184
0.11 -0.00 2.71 -6.19 26.75 4.28 0.37 -0.44 3190
0.09 0.00 3.40 -2.56 26.08 4.28 0.21 -0.52 3197
0.08 -0.00 4.52 1.89 25.47 4.28 0.15 -0.60 3204
0.07 -0.01 4.62 6.59 25.54 4.28 0.25 -0.67 3210
0.05 -0.01 4.00 9.99 22.18 4.28 0.59 -0.79 3216
0.07 0.01 3.21 13.78 17.74 4.28 1.02 -1.01 3222
0.05 0.00 1.28 10.44 6.76 4.28 0.76 -1.57 3229
0.06 0.02 4.92 7.77 2.37 3.77 -0.25 -1.97 3235
0.05 0.04 1.62 23.32 1.99 1.19 -0.56 -2.11 3241
0.04 0.03 4.83 20.10 17.93 0.06 0.06 -1.97 3248
0.05 0.05 5.43 10.53 20.17 -0.79 0.39 -1.88 3254
0.04 0.03 3.59 7.82 15.83 -1.44 0.40 -1.83 3261
0.04 0.04 2.73 9.72 11.48 -1.85 0.34 -1.68 3267
0.06 0.04 2.73 10.76 7.85 -2.11 0.24 -1.48 3273
0.04 0.03 2.97 9.66 6.33 -2.29 0.16 -1.34 3279
0.04 0.04 3.12 7.58 6.54 -2.42 0.03 -1.25 3286
0.07 0.04 3.09 7.21 6.81 -2.54 -0.03 -1.11 3293
0.05 0.04 3.27 6.82 7.12 -2.64 -0.04 -1.00 3299
0.04 0.04 3.37 6.33 7.12 -2.76 -0.02 -0.85 3305
0.05 0.04 3.47 5.94 7.21 -2.90 -0.00 -0.71 3311
0.05 0.03 3.60 5.59 7.58 -3.06 0.03 -0.57 3317
0.05 0.03 3.71 5.07 8.17 -3.25 0.07 -0.44 3323
0.04 0.04 3.66 4.51 8.54 -3.39 0.11 -0.30 3330
0.04 0.04 3.07 4.05 8.70 -3.56 0.15 -0.17 3337
0.04 0.03 3.65 3.46 9.11 -3.72 0.23 -0.05 3343
0.03 0.04 3.68 2.98 9.48 -3.88 0.32 0.04 3349
0.04 0.04 3.43 2.15 9.91 -4.03 0.41 0.13 3355
0.04 0.04 3.43 1.06 10.06 -4.14 0.51 0.20 3361
0.04 0.04 3.47 0.07 10.72 -4.21 0.62 0.27 3367
0.05 0.04 3.39 -0.54 11.17 -4.25 0.74 0.34 3375
0.04 0.03 3.24 -1.25 11.65 -4.26 0.89 0.42 3381
0.04 0.04 3.02 -1.59 12.09 -4.27 1.04 0.48 3387
0.05 0.03 2.81 -1.98 12.57 -4.27 1.19 0.53 3393
0.04 0.03 2.47 -2.37 13.05 -4.27 1.34 0.55 3400
0.04 0.03 2.28 -2.99 13.58 -4.27 1.48 0.57 3406
0.05 0.03 2.06 -3.79 14.19 -4.27 1.61 0.55 3412
0.04 0.04 1.76 -4.77 14.90 -4.27 1.73 0.52 3419
0.04 0.05 1.43 -5.66 15.60 -4.26 1.79 0.49 3425
0.04 0.03 1.10 -6.32 16.00 -4.23 1.85 0.46 3432
0.03 0.02 0.85 -6.71 16.05 -4.19 1.89 0.45 3438
0.04 0.01 0.45 -6.88 16.18 -4.13 1.88 0.44 3444
0.04 -0.00 0.05 -7.23 16.37 -4.03 1.83 0.44 3450
0.03 -0.00 -0.11 -7.50 16.77 -3.90 1.74 0.47 3457
0.04 0.00 -0.31 -7.78 17.32 -3.75 1.64 0.52 3464
0.04 -0.00 -0.30 -8.05 18.01 -3.63 1.51 0.59 3470
0.03 -0.00 -0.29 -8.20 18.62 -3.51 1.37 0.69 3476
0.04 0.01 -0.06 -8.72 19.46 -3.44 1.23 0.81 3482
0.04 -0.00 0.11 -9.17 19.99 -3.40 1.06 0.94 3488
0.04 -0.00 0.29 -9.85 20.60 -3.37 0.88 1.08 3494
0.04 0.00 0.68 -10.69 20.49 -3.34 0.75 1.21 3502
0.04 0.00 1.14 -11.65 20.44 -3.32 0.59 1.33 3508
0.03 -0.00 1.54 -12.71 20.38 -3.28 0.45 1.41 3514
0.05 -0.01 2.03 -14.02 19.82 -3.22 0.36 1.47 3520
0.04 -0.00 2.47 -14.65 19.39 -3.16 0.32 1.48 3526
0.03 -0.00 2.71 -14.37 18.52 -3.07 0.41 1.49 3533
0.05 0.00 2.56 -14.26 17.47 -2.97 0.63 1.49 3539
0.04 -0.00 2.04 -14.03 16.67 -2.85 0.99 1.51 3546
0.04 -0.00 1.26 -14.29 16.14 -2.73 1.41 1.55 3552
0.05 -0.00 0.23 -14.91 15.94 -2.61 1.73 1.59 3559
0.03 -0.00 -0.81 -15.55 15.71 -2.52 1.87 1.59 3565
0.04 -0.00 -1.96 -16.56 15.45 -2.44 1.84 1.57 3571
0.04 -0.00 -2.91 -17.18 14.31 -2.38 1.66 1.53 3577
0.03 -0.00 -3.74 -17.67 12.73 -2.33 1.37 1.46 3584
0.05 -0.01 -4.22 -18.34 11.02 -2.27 1.06 1.37 3591
0.04 -0.00 -4.60 -19.26 9.34 -2.20 0.81 1.26 3597
0.04 -0.00 -4.59 -20.36 7.71 -2.08 0.61 1.13 3603
0.06 -0.01 -4.55 -21.69 6.32 -1.98 0.48 0.97 3609
0.04 -0.00 -3.69 -23.19 4.95 -1.80 0.40 0.78 3615
0.04 -0.00 -4.03 -24.46 4.03 -1.57 0.34 0.58 3622
0.05 -0.01 -3.66 -24.93 2.84 -1.30 0.32 0.38 3629
0.04 -0.00 -3.19 -24.87 2.28 -0.97 0.31 0.20 3635
0.03 -0.00 -2.97 -24.32 2.07 -0.62 0.29 -0.01 3641
0.05 0.00 -8.10 -32.77 20.85 0.66 -0.14 -0.05 3647
0.04 -0.00 -7.90 -23.09 -3.97 1.34 -0.62 -0.07 3653
0.03 0.00 -7.58 -24.39 -3.48 1.75 -1.41 -0.08 3660
0.05 -0.00 -6.93 -29.68 6.48 2.42 -2.44 0.14 3666
0.04 -0.00 -2.90 -19.57 2.92 2.88 -2.89 0.37 3673
0.03 0.03 1.27 3.72 4.26 3.04 -2.72 0.45 3679
0.02 0.42 3.70 0.52 15.48 3.14 -1.91 0.73 3685
0.02 0.61 5.00 2.98 20.34 3.05 -0.93 1.12 3692
0.00 0.66 2.95 1.04 16.31 2.70 -0.32 1.39 3698
0.01 0.72 -0.20 -2.25 15.91 2.50 -0.15 1.44 3704
-0.01 0.74 -2.48 -3.70 14.88 2.35 -0.28 1.39 3710
-0.00 0.79 -4.22 -3.68 13.90 2.41 -0.37 1.25 3717
0.01 0.86 -5.51 -2.98 14.55 2.54 -0.42 1.02 3724
-0.01 0.85 -7.12 -2.54 15.65 2.58 -0.29 0.73 3730
0.01 0.87 -7.57 -2.71 16.06 2.52 -0.18 0.31 3736
-0.00 0.91 -5.23 -2.51 15.93 2.48 -0.01 -0.03 3742
-0.01 0.96 -1.13 -2.39 15.53 2.50 0.34 -0.33 3749
0.01 1.01 2.12 -2.10 15.78 2.53 0.74 -0.44 3756
-0.01 1.07 3.57 -1.85 18.92 2.52 1.02 -0.42 3762
-0.00 1.08 5.03 -3.75 25.80 1.36 0.58 -0.23 3768
-0.01 1.12 1.93 -2.77 11.72 0.24 -0.21 0.07 3775
-0.02 1.13 0.47 -1.15 10.40 0.11 -0.25 0.12 3781
0.01 1.16 0.22 -1.44 10.34 0.13 -0.18 0.08 3787
0.02 1.14 1.24 -0.85 10.27 0.06 -0.04 0.05 3793
0.02 1.15 0.84 -1.07 9.86 -0.01 0.04 0.08 3800
0.04 1.15 0.89 -1.33 10.09 0.01 0.00 0.09 3806
0.09 1.16 0.95 -1.16 9.98 0.03 -0.03 0.10 3813
0.12 1.16 0.71 -0.86 9.98 0.05 -0.06 0.09 3819
0.14 1.17 0.85 -0.62 10.09 0.07 -0.07 0.10 3825
0.11 1.17 0.76 -1.09 9.95 0.06 -0.08 0.11 3831
0.11 1.14 0.75 -1.09 10.03 0.05 -0.08 0.13 3837
0.11 1.14 0.73 -1.09 9.97 0.05 -0.08 0.14 3844
0.16 1.13 0.69 -1.02 9.98 0.04 -0.07 0.15 3851
0.15 1.11 0.67 -1.00 9.92 0.04 -0.07 0.15 3857
0.17 1.10 0.74 -1.01 9.90 0.03 -0.06 0.16 3863
0.23 1.08 0.69 -0.98 9.88 0.03 -0.07 0.16 3869
0.22 1.06 0.66 -0.98 9.87 0.05 -0.06 0.17 3875
0.22 1.01 0.68 -0.99 9.90 0.03 -0.06 0.18 3881
0.29 0.97 0.71 -1.00 9.86 0.04 -0.06 0.17 3889
0.28 0.93 0.68 -0.97 9.92 0.04 -0.05 0.18 3895
0.28 0.88 0.75 -0.97 9.92 0.04 -0.05 0.18 3901
0.30 0.85 0.72 -0.98 9.84 0.03 -0.06 0.18 3907
0.32 0.80 0.72 -0.99 9.82 0.04 -0.07 0.17 3913
0.32 0.73 0.70 -1.00 9.86 0.04 -0.07 0.16 3919
0.37 0.72 0.67 -1.02 9.90 0.04 -0.08 0.17 3927
0.38 0.67 0.69 -1.02 9.86 0.04 -0.09 0.17 3933
0.39 0.66 0.71 -1.01 9.87 0.04 -0.08 0.17 3939
0.41 0.61 0.66 -1.04 9.87 0.04 -0.08 0.15 3945
0.43 0.59 0.64 -1.04 9.89 0.04 -0.07 0.20 3951
0.45 0.50 0.68 -1.05 9.92 0.05 -0.07 0.17 3957
0.44 0.49 0.67 -1.09 9.90 0.05 -0.06 0.16 3963
0.47 0.47 0.69 -1.09 9.86 0.05 -0.06 0.17 3971
0.48 0.38 0.69 -1.04 9.86 0.05 -0.06 0.16 3977
0.49 0.32 0.69 -1.05 9.87 0.05 -0.06 0.15 3983
0.50 0.26 0.70 -1.07 9.85 0.06 -0.06 0.15 3989
0.51 0.22 0.70 -1.06 9.82 0.06 -0.06 0.15 3995
0.53 0.12 0.72 -1.14 9.82 0.06 -0.06 0.14 4001
0.56 0.07 0.72 -1.14 9.90 0.06 -0.07 0.13 4007
0.60 0.08 0.72 -1.11 9.87 0.06 -0.07 0.13 4015
0.63 0.01 0.71 -1.11 9.85 0.05 -0.07 0.11 4021
0.60 0.00 0.71 -1.14 9.87 0.06 -0.07 0.10 4027
0.62 -0.01 0.72 -1.18 9.89 0.05 -0.07 0.10 4033
0.65 -0.02 0.65 -1.21 9.87 0.06 -0.08 0.10 4039
0.64 -0.03 0.72 -1.14 9.88 0.06 -0.08 0.09 4045
0.67 -0.01 0.73 -1.21 9.84 0.06 -0.09 0.08 4052
0.72 -0.03 0.72 -1.26 9.86 0.06 -0.09 0.08 4059
0.76 -0.03 0.71 -1.24 9.82 0.06 -0.08 0.07 4065
0.75 -0.02 0.71 -1.25 9.85 0.06 -0.08 0.07 4071
0.77 -0.02 0.75 -1.24 9.84 0.06 -0.08 0.07 4077
0.80 -0.02 0.72 -1.29 9.87 0.06 -0.08 0.06 4083
0.84 -0.04 0.74 -1.25 9.89 0.06 -0.08 0.06 4089
0.88 -0.03 0.75 -1.26 9.90 0.07 -0.08 0.05 4097
0.89 -0.03 0.71 -1.32 9.87 0.07 -0.08 0.05 4103
0.91 -0.04 0.69 -1.34 9.91 0.07 -0.08 0.05 4109
0.89 -0.03 0.67 -1.31 9.91 0.08 -0.07 0.05 4115
0.93 -0.02 0.71 -1.33 9.93 0.08 -0.07 0.05 4121
0.99 -0.04 0.72 -1.36 9.97 0.08 -0.07 0.04 4127
1.00 -0.04 0.74 -1.37 9.92 0.08 -0.07 0.05 4134
1.02 -0.02 0.75 -1.35 9.96 0.09 -0.07 0.04 4141
1.05 -0.03 0.78 -1.41 9.93 0.10 -0.08 0.03 4147
1.04 -0.03 0.80 -1.40 9.90 0.10 -0.09 0.02 4153
1.06 -0.03 0.82 -1.43 9.99 0.12 -0.09 0.01 4159
1.07 -0.03 0.83 -1.49 10.00 0.13 -0.11 0.00 4165
1.08 -0.04 0.84 -1.50 10.02 0.15 -0.11 -0.01 4171
1.08 -0.04 0.84 -1.52 10.00 0.17 -0.13 -0.02 4178
1.16 -0.03 0.90 -1.46 10.20 0.20 -0.14 -0.03 4185
1.20 -0.04 0.75 -1.59 10.07 0.23 -0.15 -0.04 4191
1.23 -0.03 0.78 -1.55 10.22 0.27 -0.16 -0.04 4197
1.31 -0.04 0.79 -1.55 10.32 0.32 -0.17 -0.05 4204
1.35 -0.04 0.86 -1.72 10.47 0.37 -0.19 -0.06 4210
1.36 -0.04 0.87 -2.00 10.29 0.44 -0.20 -0.06 4216
1.41 -0.04 0.69 -1.74 10.59 0.51 -0.21 -0.06 4222
1.43 -0.04 0.77 -1.73 10.72 0.58 -0.22 -0.06 4229
1.47 -0.05 0.73 -1.77 10.95 0.67 -0.22 -0.06 4236
1.52 -0.06 0.80 -1.78 11.01 0.76 -0.21 -0.07 4242
1.58 -0.05 0.67 -1.88 11.09 0.85 -0.20 -0.07 4248
1.62 -0.05 0.75 -2.01 11.36 0.92 -0.16 -0.07 4254
1.65 -0.05 0.76 -2.11 11.54 1.02 -0.14 -0.07 4261
1.67 -0.04 0.80 -2.30 12.18 1.13 -0.13 -0.09 4268
1.73 -0.04 0.95 -2.24 11.77 1.23 -0.15 -0.09 4274
1.72 -0.05 0.88 -2.32 11.66 1.31 -0.21 -0.11 4280
1.74 -0.06 0.61 -1.86 11.77 1.40 -0.25 -0.12 4286
1.80 -0.07 0.98 -2.63 12.61 1.53 -0.29 -0.13 4293
1.77 -0.07 0.83 -2.65 12.70 1.71 -0.31 -0.15 4299
1.81 -0.06 0.92 -2.63 12.98 1.95 -0.33 -0.17 4305
1.79 -0.06 0.91 -2.86 13.12 2.20 -0.37 -0.21 4312
1.74 -0.06 0.89 -2.81 12.61 2.43 -0.41 -0.24 4319
1.72 -0.06 0.92 -3.10 13.17 2.64 -0.42 -0.27 4325
1.68 -0.07 1.04 -3.42 13.73 2.86 -0.43 -0.29 4331
1.61 -0.06 0.85 -3.26 13.88 3.10 -0.44 -0.31 4337
1.45 -0.06 0.83 -3.56 14.62 3.38 -0.48 -0.35 4344
1.35 -0.05 1.69 -3.84 15.47 3.67 -0.52 -0.39 4350
1.17 -0.04 1.71 -4.20 15.42 4.01 -0.59 -0.48 4357
1.03 -0.04 1.72 -4.60 16.66 4.23 -0.60 -0.57 4363
0.88 -0.04 1.94 -4.88 16.30 4.28 -0.65 -0.66 4370
0.70 -0.03 2.91 -5.50 19.63 4.28 -0.79 -0.74 4376
0.57 -0.01 2.38 -6.32 18.96 4.28 -0.86 -0.81 4382
0.49 -0.02 2.35 -7.69 20.06 4.28 -0.94 -0.88 4388
0.45 -0.01 2.18 -10.31 22.40 4.28 -0.85 -0.88 4396
0.41 -0.00 1.73 -12.51 24.18 4.28 -0.67 -0.84 4402
0.31 -0.01 1.53 -13.35 24.30 4.28 -0.42 -0.78 4408
0.25 0.03 1.27 -12.43 22.79 4.28 -0.27 -0.74 4414
0.22 0.01 1.10 -10.21 22.40 4.28 -0.09 -0.63 4421
0.18 0.02 2.04 -9.19 24.31 4.28 0.17 -0.55 4427
0.11 0.01 2.19 -7.13 25.25 4.28 0.36 -0.54 4433
0.11 0.01 2.90 -5.81 25.29 4.28 0.44 -0.61 4440
0.07 0.03 3.31 -2.42 24.61 4.28 0.40 -0.68 4447
0.08 0.02 4.10 0.91 24.66 4.28 0.32 -0.77 4453
0.05 0.01 3.98 5.10 25.04 4.28 0.24 -0.89 4459
0.06 0.01 3.04 8.93 22.61 4.28 0.39 -1.02 4465
0.05 0.01 2.38 10.84 20.46 4.28 0.64 -1.19 4471
0.03 -0.00 -3.16 15.32 -27.80 4.28 0.53 -1.59 4478
0.05 -0.00 4.83 8.58 3.53 4.27 -0.32 -1.92 4485
0.05 -0.00 3.08 19.75 1.81 2.03 -0.61 -1.96 4491
0.04 0.00 4.15 22.14 17.28 0.17 -0.29 -1.90 4497
0.06 -0.01 5.44 13.16 21.85 -0.86 0.14 -1.81 4503
0.05 -0.01 3.62 9.04 17.46 -1.62 0.30 -1.73 4510
0.05 -0.00 2.78 8.99 13.15 -2.13 0.34 -1.54 4516
0.06 -0.00 2.41 10.49 9.41 -2.45 0.33 -1.40 4523
0.05 -0.00 2.83 9.90 7.84 -2.64 0.30 -1.28 4529
0.04 0.00 3.15 8.15 7.15 -2.76 0.33 -1.20 4535
0.06 -0.00 3.01 6.91 7.39 -2.83 0.43 -1.09 4541
0.05 0.00 2.78 6.53 7.45 -2.88 0.57 -0.96 4548
0.04 -0.00 2.67 6.21 7.46 -2.93 0.69 -0.82 4554
0.05 0.01 2.43 5.91 7.23 -3.02 0.78 -0.68 4560
0.06 -0.01 2.14 5.77 7.51 -3.13 0.85 -0.56 4567
0.06 -0.01 1.84 5.39 7.93 -3.26 0.89 -0.45 4573
0.05 -0.00 1.49 5.04 8.53 -3.40 0.92 -0.32 4579
0.07 0.00 1.32 4.21 9.00 -3.54 0.92 -0.21 4585
0.05 0.00 1.27 3.70 9.38 -3.69 0.92 -0.10 4591
0.04 -0.00 1.26 3.23 9.92 -3.86 0.96 -0.01 4598
0.05 0.01 1.26 2.61 10.36 -3.98 1.02 0.06 4604
0.05 -0.01 1.81 1.63 10.96 -4.12 1.12 0.10 4611
0.06 -0.01 1.06 0.88 11.55 -4.21 1.19 0.14 4617
0.05 -0.01 0.96 0.16 12.12 -4.27 1.30 0.15 4623
0.06 -0.01 0.78 -0.49 12.43 -4.28 1.40 0.15 4629
0.05 -0.01 0.74 -1.35 13.09 -4.28 1.50 0.13 4636
0.05 -0.00 0.67 -2.09 13.31 -4.28 1.60 0.10 4642
0.07 -0.01 0.40 -2.90 13.81 -4.28 1.70 0.06 4648
0.05 -0.01 0.33 -3.90 14.00 -4.28 1.79 0.01 4655
0.04 -0.00 0.06 -4.91 14.34 -4.28 1.87 -0.06 4661
0.06 -0.00 -0.01 -5.80 14.56 -4.28 1.93 -0.14 4667
0.05 -0.01 -0.15 -6.73 14.73 -4.25 1.97 -0.22 4674
0.04 -0.00 -0.33 -7.23 15.05 -4.19 2.02 -0.28 4680
0.06 0.01 -0.39 -7.52 15.18 -4.09 2.05 -0.31 4686
0.06 -0.01 -0.47 -7.49 15.39 -3.95 2.08 -0.30 4692
0.05 -0.00 -0.74 -7.41 15.71 -3.78 2.10 -0.25 4699
0.05 0.00 -1.09 -7.29 16.31 -3.62 2.13 -0.16 4705
0.05 -0.00 -1.43 -7.16 17.01 -3.45 2.12 -0.04 4712
0.04 -0.00 -1.71 -7.14 17.76 -3.32 2.06 0.08 4718
0.05 0.00 -1.92 -7.34 18.59 -3.22 1.94 0.20 4724
0.06 -0.01 -2.02 -7.66 19.40 -3.17 1.75 0.31 4730
0.05 -0.00 -1.93 -8.15 19.79 -3.15 1.52 0.42 4737
0.06 -0.00 -1.76 -8.84 19.78 -3.16 1.27 0.51 4744
0.05 -0.01 -1.52 -9.57 19.52 -3.16 1.05 0.59 4750
0.04 0.00 -1.18 -10.37 18.96 -3.13 0.86 0.67 4756
0.06 0.00 -0.77 -10.96 18.57 -3.07 0.74 0.73 4762
0.06 -0.01 -0.53 -11.56 18.30 -2.98 0.65 0.77 4769
0.05 0.00 -0.23 -12.37 17.75 -2.87 0.62 0.81 4775
0.05 0.01 -0.02 -13.21 17.06 -2.70 0.65 0.85 4782
0.05 0.01 -0.03 -13.93 16.31 -2.50 0.69 0.88 4788
0.07 0.01 -0.06 -14.80 15.34 -2.25 0.72 0.93 4795
0.06 0.00 -0.07 -15.65 14.71 -2.00 0.72 0.99 4801
0.06 0.00 -0.04 -16.25 13.97 -1.75 0.74 1.07 4807
0.06 -0.00 0.09 -16.74 13.28 -1.54 0.83 1.18 4813
0.05 0.00 0.12 -17.09 12.89 -1.39 1.03 1.31 4820
0.06 0.00 -0.18 -17.45 12.72 -1.33 1.34 1.46 4827
0.06 -0.01 -1.12 -17.87 12.56 -1.39 1.70 1.62 4833
0.06 0.00 -2.57 -18.11 11.95 -1.54 2.02 1.78 4839
0.06 0.00 -4.07 -18.64 11.01 -1.74 2.23 1.94 4846
0.05 -0.00 -5.31 -19.63 9.29 -1.90 2.17 2.07 4852
0.06 0.01 -7.22 -20.79 7.81 -1.98 1.82 2.14 4858
0.06 0.00 -7.93 -22.04 6.55 -1.97 1.35 2.17 4865
0.06 0.00 -7.45 -23.36 3.99 -1.81 0.86 2.17 4871
0.08 0.00 -6.69 -24.24 2.11 -1.51 0.41 2.10 4878
0.06 -0.00 -6.32 -24.70 1.02 -1.08 0.03 1.93 4884
0.06 0.01 -5.76 -25.19 0.34 -0.58 -0.27 1.69 4890
0.07 -0.01 -11.43 -34.63 25.60 1.18 -1.23 1.28 4896
0.05 -0.00 -7.99 -24.29 -9.29 1.53 -1.18 0.89 4903
0.05 -0.00 -7.89 -29.29 -0.24 1.97 -1.76 0.50 4910
0.05 -0.01 -8.31 -29.89 5.32 2.44 -2.49 0.23 4916
0.03 0.01 -3.92 -10.12 4.62 2.64 -2.68 0.10 4922
0.05 0.15 -1.24 6.32 8.44 2.65 -2.63 0.06 4928
0.01 0.56 4.04 2.29 17.38 2.69 -1.83 0.31 4935
-0.01 0.66 4.32 4.03 15.51 2.58 -0.93 0.60 4941
0.00 0.76 0.39 -1.54 13.31 2.46 -0.52 0.75 4947
-0.01 0.78 -3.21 -3.56 16.83 2.54 -0.45 0.70 4954
-0.02 0.82 -5.08 -4.38 14.95 2.59 -0.51 0.53 4960
-0.00 0.90 -3.69 -3.96 15.61 2.79 -0.45 0.34 4967
-0.01 0.98 -5.04 -3.52 18.66 2.99 -0.15 0.07 4973
-0.02 1.05 -4.84 -2.91 20.11 3.05 0.20 -0.28 4979
-0.01 1.11 0.23 -2.57 18.52 2.85 0.59 -0.52 4985
-0.02 1.15 3.99 -2.87 19.53 2.63 0.98 -0.53 4993
-0.01 1.21 5.73 -3.85 28.09 2.00 0.75 -0.41 4999
-0.02 1.22 2.97 -2.90 11.95 0.36 -0.43 0.00 5005
-0.01 1.29 0.80 -2.04 11.07 0.21 -0.45 0.14 5011
-0.01 1.32 0.06 -1.21 10.61 0.19 -0.42 0.10 5018
-0.01 1.30 1.04 -0.55 10.59 0.07 -0.20 0.07 5024
-0.01 1.32 1.27 -0.22 9.97 -0.01 -0.04 0.07 5030
0.01 1.32 0.13 -0.82 9.97 -0.01 -0.04 0.09 5037
0.00 1.31 0.91 -1.22 10.01 0.00 -0.05 0.11 5043
0.01 1.31 0.82 -1.23 9.91 0.01 -0.03 0.10 5049
0.08 1.29 0.80 -1.18 9.94 0.01 -0.02 0.10 5056
0.08 1.27 0.91 -1.12 9.83 0.01 -0.01 0.10 5062
0.11 1.26 0.89 -1.09 9.80 0.03 -0.04 0.11 5068
0.11 1.26 0.92 -1.05 9.87 0.04 -0.06 0.10 5074
0.09 1.24 0.88 -1.10 9.91 0.05 -0.08 0.11 5081
0.10 1.22 0.82 -1.09 9.84 0.05 -0.08 0.11 5087
0.12 1.21 0.79 -1.02 9.90 0.06 -0.08 0.12 5093
0.11 1.18 0.76 -1.00 9.94 0.06 -0.07 0.13 5100
0.11 1.16 0.79 -1.00 9.95 0.05 -0.06 0.13 5106
0.16 1.14 0.75 -1.02 9.91 0.05 -0.04 0.14 5112
0.15 1.10 0.75 -1.07 9.91 0.04 -0.02 0.14 5118
0.17 1.05 0.78 -0.99 9.86 0.04 -0.01 0.15 5125
0.18 1.02 0.75 -0.99 9.87 0.04 -0.00 0.15 5131
0.20 0.98 0.72 -1.02 9.87 0.04 0.01 0.16 5138
0.20 0.93 0.76 -1.00 9.92 0.03 0.01 0.17 5144
0.21 0.89 0.79 -1.04 9.87 0.03 0.01 0.16 5150
0.20 0.85 0.81 -1.00 9.90 0.03 0.01 0.16 5156
0.21 0.74 0.81 -1.00 9.86 0.04 0.01 0.17 5163
0.24 0.70 0.85 -1.04 9.86 0.04 0.01 0.16 5169
0.24 0.64 0.84 -1.02 9.91 0.04 0.00 0.15 5175
0.26 0.60 0.79 -1.04 9.84 0.04 -0.01 0.16 5182
0.26 0.54 0.84 -1.07 9.87 0.04 -0.02 0.15 5188
0.26 0.50 0.85 -1.06 9.89 0.04 -0.02 0.15 5194
0.30 0.50 0.81 -1.05 9.83 0.04 -0.03 0.14 5200
0.31 0.45 0.82 -1.03 9.86 0.04 -0.02 0.14 5207
0.30 0.35 0.81 -1.09 9.84 0.04 -0.02 0.14 5213
0.30 0.35 0.79 -1.06 9.83 0.04 -0.02 0.14 5219
0.32 0.26 0.79 -1.11 9.85 0.04 -0.02 0.14 5226
0.31 0.24 0.83 -1.08 9.85 0.04 -0.01 0.13 5232
0.33 0.21 0.84 -1.12 9.82 0.04 -0.01 0.14 5238
0.33 0.19 0.82 -1.13 9.82 0.04 -0.01 0.14 5244
0.34 0.13 0.87 -1.13 9.85 0.04 -0.01 0.13 5251
0.33 0.11 0.84 -1.17 9.85 0.04 -0.01 0.13 5257
0.35 0.07 0.87 -1.12 9.85 0.04 -0.01 0.12 5263
0.36 0.02 0.90 -1.13 9.83 0.04 -0.02 0.12 5270
0.36 -0.00 0.86 -1.13 9.84 0.04 -0.02 0.12 5276
0.37 -0.00 0.85 -1.16 9.86 0.04 -0.03 0.11 5282
0.35 -0.01 0.86 -1.16 9.83 0.04 -0.03 0.12 5288
0.34 -0.01 0.85 -1.18 9.87 0.04 -0.03 0.12 5295
0.36 -0.00 0.90 -1.14 9.89 0.04 -0.04 0.10 5301
0.39 -0.01 0.88 -1.21 9.85 0.04 -0.05 0.10 5308
0.40 -0.02 0.87 -1.18 9.83 0.04 -0.06 0.10 5314
0.40 -0.02 0.94 -1.19 9.86 0.05 -0.07 0.09 5320
0.43 -0.00 0.94 -1.20 9.89 0.05 -0.09 0.10 5326
0.45 -0.01 0.90 -1.22 9.83 0.05 -0.10 0.08 5332
0.46 -0.02 0.93 -1.22 9.88 0.05 -0.11 0.07 5339
0.47 0.00 0.93 -1.21 9.82 0.06 -0.12 0.07 5345
0.52 -0.01 0.93 -1.27 9.85 0.07 -0.12 0.06 5352
0.51 -0.02 0.89 -1.25 9.92 0.07 -0.14 0.05 5358
0.55 -0.02 0.89 -1.26 9.88 0.08 -0.15 0.04 5364
0.62 -0.01 0.91 -1.28 9.84 0.08 -0.16 0.04 5370
0.66 -0.02 0.90 -1.29 9.86 0.08 -0.17 0.03 5377
0.67 -0.02 0.90 -1.29 9.86 0.08 -0.16 0.03 5383
0.70 -0.01 0.86 -1.31 9.88 0.08 -0.16 0.03 5389
0.77 -0.02 0.82 -1.31 9.90 0.09 -0.16 0.02 5396
0.82 -0.03 0.86 -1.34 9.93 0.10 -0.15 0.01 5402
0.83 -0.03 0.85 -1.35 9.98 0.11 -0.15 0.01 5408
0.86 -0.02 0.84 -1.40 10.05 0.12 -0.15 0.00 5414
0.89 -0.03 0.93 -1.46 10.07 0.15 -0.17 -0.01 5421
0.93 -0.03 0.88 -1.45 10.04 0.18 -0.19 -0.01 5428
0.99 -0.04 0.94 -1.47 10.23 0.23 -0.21 -0.03 5434
1.00 -0.03 0.86 -1.58 10.30 0.30 -0.23 -0.04 5440
1.05 -0.02 0.97 -1.72 10.48 0.39 -0.26 -0.05 5446
1.08 -0.04 0.80 -1.61 10.88 0.47 -0.28 -0.07 5452
1.12 -0.05 0.85 -1.74 10.87 0.57 -0.29 -0.07 5459
1.20 -0.04 0.82 -1.65 11.19 0.68 -0.28 -0.08 5466
1.27 -0.04 0.74 -1.67 11.17 0.76 -0.28 -0.08 5472
1.30 -0.04 0.63 -1.88 11.14 0.84 -0.26 -0.08 5478
1.34 -0.03 0.74 -1.98 11.18 0.90 -0.22 -0.08 5485
1.41 -0.04 0.64 -1.88 11.29 0.97 -0.17 -0.08 5491
1.41 -0.03 0.70 -2.00 11.47 1.05 -0.15 -0.08 5497
1.45 -0.04 0.70 -2.08 11.62 1.15 -0.12 -0.07 5504
1.48 -0.04 0.76 -1.53 11.91 1.29 -0.13 -0.08 5510
1.54 -0.03 0.81 -2.25 11.96 1.41 -0.14 -0.08 5517
1.53 -0.05 0.76 -2.38 11.77 1.48 -0.21 -0.09 5523
1.53 -0.06 0.96 -2.48 12.06 1.58 -0.24 -0.10 5529
1.56 -0.06 0.82 -2.54 12.49 1.70 -0.23 -0.12 5535
1.54 -0.06 0.95 -2.61 12.36 1.88 -0.23 -0.14 5542
1.53 -0.04 1.01 -2.89 13.37 2.13 -0.24 -0.16 5549
1.54 -0.05 1.08 -2.89 13.47 2.40 -0.26 -0.19 5555
1.49 -0.03 1.13 -3.08 13.18 2.67 -0.30 -0.23 5561
1.43 -0.05 1.25 -3.29 13.27 2.89 -0.31 -0.27 5568
1.41 -0.04 1.29 -3.31 13.44 3.11 -0.33 -0.32 5574
1.24 -0.05 1.28 -3.52 13.72 3.35 -0.34 -0.37 5580
1.18 -0.05 1.08 -3.61 14.04 3.63 -0.35 -0.41 5586
1.04 -0.05 1.06 -3.90 14.11 3.94 -0.39 -0.47 5593
0.89 -0.02 1.41 -4.17 14.49 4.18 -0.43 -0.52 5600
0.76 -0.01 2.16 -5.04 16.55 4.28 -0.46 -0.58 5606
0.66 -0.02 1.88 -5.46 15.79 4.28 -0.56 -0.67 5612
0.58 -0.02 2.30 -6.12 17.75 4.28 -0.60 -0.72 5618
0.47 -0.02 1.82 -7.79 20.43 4.28 -0.63 -0.76 5625
0.43 -0.00 1.74 -10.03 23.15 4.28 -0.58 -0.72 5632
0.38 -0.01 1.55 -12.32 25.05 4.28 -0.46 -0.66 5638
0.35 -0.01 1.50 -13.29 25.28 4.28 -0.27 -0.59 5645
0.28 -0.00 1.65 -12.60 23.19 4.28 -0.12 -0.55 5651
0.23 -0.00 0.68 -10.84 22.96 4.28 -0.08 -0.55 5657
0.23 -0.00 0.06 -9.39 23.10 4.28 0.04 -0.44 5663
0.15 -0.00 0.85 -8.31 25.86 4.28 0.14 -0.36 5669
0.10 -0.01 1.81 -6.68 27.39 4.28 0.10 -0.40 5677
0.08 0.00 2.69 -4.11 27.13 4.28 0.00 -0.47 5683
0.07 -0.00 3.68 -0.82 26.46 4.28 -0.10 -0.50 5689
0.06 0.01 4.77 3.90 26.70 4.28 -0.18 -0.56 5695
0.07 0.01 4.71 8.27 24.63 4.28 -0.11 -0.63 5701
0.05 0.00 3.76 11.01 22.07 4.28 0.27 -0.70 5708
0.07 0.02 10.06 14.47 29.89 4.28 0.89 -1.02 5714
0.06 -0.01 2.84 11.32 -3.35 4.28 0.53 -1.52 5721
0.05 -0.00 5.24 11.39 -0.98 3.87 -0.30 -1.95 5727
0.05 -0.00 3.18 24.26 11.45 1.27 -0.35 -2.12 5734
0.05 -0.00 6.21 18.91 25.29 -0.26 0.51 -1.99 5740
0.05 -0.01 5.02 11.85 22.92 -1.32 1.03 -1.87 5746
0.05 -0.01 2.48 9.54 16.87 -2.24 1.05 -1.73 5752
0.05 -0.01 1.08 11.30 12.62 -2.92 0.84 -1.52 5758
0.05 -0.00 1.34 10.75 9.98 -3.30 0.64 -1.34 5766
0.07 -0.01 1.68 8.37 8.43 -3.50 0.42 -1.22 5772
0.05 -0.00 1.72 6.43 7.63 -3.57 0.25 -1.12 5778
0.04 -0.00 1.84 5.93 7.13 -3.62 0.17 -1.01 5784
0.04 0.01 2.10 5.84 6.74 -3.64 0.13 -0.88 5790
0.06 -0.01 2.31 5.08 6.14 -3.66 0.14 -0.81 5796
0.05 -0.01 2.39 4.29 6.82 -3.72 0.20 -0.71 5803
0.05 -0.00 2.62 4.13 7.24 -3.79 0.30 -0.60 5809
0.05 0.00 2.70 3.96 7.85 -3.89 0.41 -0.51 5816
0.05 -0.00 2.65 3.66 8.38 -3.96 0.49 -0.44 5822
0.04 -0.00 2.54 3.04 8.80 -4.05 0.56 -0.38 5828
0.04 -0.00 2.43 2.38 9.23 -4.13 0.67 -0.28 5834
0.04 -0.00 2.32 1.89 9.87 -4.20 0.77 -0.24 5840
0.05 -0.00 2.08 1.32 10.55 -4.25 0.85 -0.17 5847
0.04 -0.00 1.96 0.68 11.32 -4.28 0.93 -0.11 5853
0.05 -0.01 1.76 0.02 11.94 -4.28 1.01 -0.05 5859
0.06 -0.01 1.67 -0.31 12.54 -4.28 1.09 0.01 5866
0.04 -0.00 1.57 -0.86 12.94 -4.28 1.18 0.05 5872
0.04 -0.00 1.47 -1.58 13.08 -4.28 1.31 0.08 5878
0.05 -0.00 1.34 -2.22 13.14 -4.28 1.46 0.09 5884
0.04 -0.00 1.16 -3.03 13.66 -4.28 1.61 0.10 5891
0.04 -0.00 0.81 -4.09 14.06 -4.28 1.73 0.08 5897
0.05 0.00 0.57 -4.93 14.72 -4.28 1.84 0.04 5904
0.05 -0.00 0.10 -5.69 15.30 -4.28 1.93 -0.01 5910
0.04 -0.00 -0.17 -6.10 15.64 -4.26 1.98 -0.06 5916
0.05 0.00 -0.46 -6.07 16.32 -4.22 2.00 -0.11 5922
0.05 -0.00 -0.61 -6.13 16.93 -4.17 2.02 -0.15 5928
0.04 -0.00 -0.71 -6.44 17.63 -4.12 2.07 -0.17 5935
0.05 0.00 -1.03 -6.80 17.92 -4.07 2.06 -0.17 5942
0.05 -0.01 -1.33 -7.06 17.94 -3.98 2.07 -0.14 5948
0.04 -0.00 -1.66 -7.39 18.00 -3.84 2.04 -0.10 5954
0.05 0.01 -1.90 -7.61 18.18 -3.69 1.95 -0.03 5960
0.05 -0.00 -1.97 -7.81 18.27 -3.52 1.81 0.04 5966
0.05 -0.00 -1.97 -8.03 18.77 -3.38 1.63 0.12 5974
0.05 0.00 -1.73 -8.26 19.49 -3.25 1.43 0.19 5980
0.05 -0.00 -1.36 -8.89 20.24 -3.17 1.25 0.26 5986
0.04 0.00 -0.90 -9.54 20.48 -3.12 1.14 0.33 5992
0.06 0.01 -0.54 -10.18 20.20 -3.08 1.10 0.41 5998
0.04 0.01 -0.27 -11.02 19.73 -3.03 1.13 0.48 6005
0.04 0.01 -0.13 -11.88 18.96 -2.94 1.21 0.56 6011
0.05 0.00 -0.15 -12.73 18.18 -2.81 1.32 0.64 6018
0.03 0.01 -0.30 -13.50 17.38 -2.62 1.42 0.72 6024
0.05 0.01 -0.38 -14.04 16.54 -2.41 1.49 0.81 6031
0.04 -0.00 -0.67 -14.38 16.64 -2.21 1.52 0.90 6037
0.04 0.01 -1.39 -15.08 17.04 -2.09 1.47 0.99 6043
0.05 0.01 -2.11 -15.60 17.02 -2.01 1.34 1.08 6049
0.04 0.01 -2.83 -16.16 16.19 -2.04 1.12 1.18 6056
0.06 0.00 -3.57 -16.77 14.94 -2.05 0.92 1.32 6063
0.05 0.00 -4.04 -17.39 13.16 -2.11 0.80 1.49 6069
0.05 0.01 -4.57 -18.02 11.44 -2.15 0.75 1.68 6076
0.04 0.01 -5.06 -18.95 9.91 -2.15 0.74 1.86 6082
0.03 0.01 -5.47 -19.86 8.44 -2.10 0.72 2.02 6088
0.04 0.02 -5.65 -21.22 7.20 -2.00 0.61 2.12 6094
0.04 0.01 -5.96 -22.72 5.95 -1.85 0.37 2.14 6100
0.04 0.02 -5.86 -23.52 4.26 -1.63 0.07 2.09 6108
0.06 0.01 -5.53 -23.97 2.66 -1.35 -0.13 1.99 6114
0.05 0.00 -4.75 -33.34 0.69 -0.97 -0.27 1.84 6120
0.04 0.01 -3.84 -25.90 1.75 0.78 -0.22 1.53 6126
0.05 0.00 -6.21 -30.03 -7.13 0.98 -0.18 1.25 6132
0.04 -0.00 -5.79 -33.20 2.73 1.92 -0.51 0.98 6139
0.04 -0.00 -7.74 -32.99 0.30 2.54 -0.87 0.57 6146
0.05 0.00 -9.42 -30.62 -4.18 3.00 -1.54 0.22 6152
0.04 0.17 -6.51 1.29 2.09 3.60 -2.12 -0.11 6158
0.01 0.48 -3.57 -1.57 11.91 3.87 -2.22 -0.29 6164
0.02 0.63 0.46 0.95 23.01 3.88 -1.96 -0.37 6171
0.01 0.70 1.92 0.07 21.96 3.44 -1.45 -0.28 6177
0.01 0.73 2.00 -3.06 19.72 3.00 -0.91 -0.19 6183
0.01 0.75 1.34 -4.52 18.83 2.74 -0.61 -0.07 6190
-0.01 0.82 0.48 -3.97 16.91 2.68 -0.44 0.02 6196
0.00 0.91 0.24 -3.49 17.45 2.80 -0.42 0.03 6203
-0.01 0.97 0.76 -2.53 19.73 2.90 -0.32 0.01 6209
-0.01 1.00 -0.17 -3.00 19.84 2.82 0.06 -0.05 6215
0.01 1.03 -0.34 -1.50 18.04 2.57 0.40 -0.14 6221
0.00 1.06 0.08 -2.00 17.51 2.35 0.83 -0.22 6228
0.00 1.10 2.21 -3.28 24.91 1.91 0.90 -0.24 6235
0.00 1.12 2.02 -1.80 11.20 0.31 -0.08 0.01 6241
-0.01 1.19 1.36 -1.29 10.67 0.10 -0.16 0.10 6247
-0.01 1.21 0.69 -1.53 10.22 0.10 -0.21 0.11 6253
0.00 1.20 0.64 -0.70 10.43 0.08 -0.17 0.07 6260
0.01 1.20 0.75 -0.24 11.43 0.01 -0.05 0.07 6266
0.01 1.20 0.73 -1.48 9.87 -0.02 0.02 0.10 6273
0.04 1.20 0.89 -1.17 10.10 -0.01 0.02 0.09 6279
0.07 1.21 0.82 -1.20 10.10 -0.02 0.02 0.10 6285
0.06 1.25 0.84 -1.17 10.02 -0.02 0.04 0.09 6291
0.07 1.25 0.84 -1.08 10.05 -0.02 0.04 0.09 6298
0.06 1.28 0.86 -1.08 9.89 -0.01 0.05 0.10 6304
0.07 1.29 0.86 -1.03 9.92 -0.01 0.04 0.10 6310
0.08 1.30 0.84 -1.03 9.82 -0.01 0.04 0.10 6317
0.07 1.29 0.89 -1.02 9.90 0.00 0.02 0.11 6323
0.08 1.27 0.86 -0.97 9.86 0.02 0.00 0.10 6329
0.08 1.26 0.87 -1.03 9.85 0.02 -0.02 0.11 6335
0.09 1.24 0.84 -1.03 9.87 0.03 -0.04 0.11 6342
0.11 1.22 0.82 -1.04 9.92 0.06 -0.05 0.12 6348
0.10 1.21 0.82 -1.00 9.90 0.04 -0.06 0.12 6354
0.13 1.21 0.85 -0.99 9.91 0.04 -0.06 0.14 6361
0.14 1.20 0.84 -1.03 9.93 0.04 -0.06 0.12 6367
0.13 1.19 0.76 -0.99 9.92 0.03 -0.04 0.14 6373
0.16 1.16 0.78 -0.99 9.90 0.03 -0.03 0.13 6380
0.14 1.16 0.77 -0.99 9.82 0.02 -0.02 0.14 6386
0.15 1.11 0.80 -0.94 9.85 0.02 -0.01 0.14 6392
0.15 1.09 0.79 -0.96 9.86 0.02 -0.01 0.14 6398
0.16 1.04 0.78 -0.97 9.88 0.02 -0.01 0.14 6405
0.16 0.99 0.78 -0.98 9.92 0.02 -0.01 0.13 6411
0.16 0.96 0.80 -0.99 9.88 0.02 -0.02 0.14 6417
0.18 0.90 0.86 -0.99 9.86 0.03 -0.02 0.14 6424
0.20 0.88 0.81 -0.99 9.83 0.03 -0.03 0.14 6430
0.18 0.86 0.77 -1.01 9.83 0.03 -0.04 0.14 6436
0.20 0.83 0.81 -0.99 9.87 0.03 -0.04 0.14 6443
0.20 0.77 0.81 -1.03 9.87 0.03 -0.04 0.13 6449
0.18 0.72 0.77 -1.04 9.90 0.07 -0.05 0.15 6455
0.22 0.68 0.77 -0.99 9.91 0.03 -0.05 0.15 6461
0.23 0.63 0.77 -1.03 9.86 0.03 -0.04 0.15 6468
0.24 0.60 0.77 -1.01 9.82 0.03 -0.04 0.16 6474
0.25 0.58 0.75 -0.98 9.83 0.03 -0.03 0.15 6480
0.27 0.58 0.75 -0.95 9.89 0.03 -0.03 0.15 6487
0.27 0.56 0.78 -0.97 9.82 0.02 -0.04 0.15 6493
0.26 0.54 0.76 -1.03 9.84 0.03 -0.04 0.16 6499
0.26 0.51 0.77 -0.99 9.82 0.03 -0.05 0.15 6506
0.28 0.49 0.81 -1.01 9.82 0.00 -0.06 0.15 6512
0.30 0.43 0.77 -1.00 9.82 0.03 -0.07 0.14 6518
0.30 0.43 0.79 -0.99 9.84 0.04 -0.08 0.14 6524
0.30 0.43 0.73 -1.03 9.87 0.04 -0.08 0.14 6531
0.33 0.37 0.76 -0.98 9.84 0.04 -0.09 0.14 6537
0.33 0.35 0.78 -1.00 9.86 0.04 -0.09 0.13 6543
0.37 0.31 0.75 -1.00 9.87 0.03 -0.09 0.14 6550
0.37 0.28 0.76 -1.05 9.86 0.04 -0.10 0.16 6556
0.39 0.24 0.72 -1.06 9.85 0.04 -0.09 0.14 6562
0.39 0.25 0.73 -1.05 9.88 0.03 -0.09 0.14 6568
0.39 0.21 0.72 -1.04 9.86 0.03 -0.09 0.14 6575
0.43 0.20 0.73 -1.05 9.83 0.03 -0.08 0.13 6581
0.45 0.17 0.71 -1.02 9.85 0.03 -0.09 0.14 6588
0.49 0.12 0.71 -1.04 9.85 0.04 -0.08 0.15 6594
0.52 0.09 0.71 -1.10 9.88 0.04 -0.08 0.14 6600
0.54 0.07 0.74 -1.05 9.89 0.04 -0.08 0.15 6606
0.56 0.05 0.75 -1.08 9.90 0.04 -0.07 0.14 6612
0.58 0.00 0.75 -1.07 9.97 0.05 -0.07 0.14 6619
0.58 0.00 0.75 -1.15 9.90 0.05 -0.08 0.13 6625
0.60 -0.02 0.80 -1.13 9.89 0.06 -0.09 0.13 6632
0.64 -0.02 0.76 -1.13 10.05 0.06 -0.10 0.10 6638
0.65 -0.02 0.76 -1.02 9.92 0.07 -0.11 0.09 6644
0.71 -0.01 0.79 -1.17 9.89 0.07 -0.12 0.09 6650
0.74 -0.02 0.80 -1.19 9.84 0.07 -0.12 0.08 6657
0.80 -0.04 0.75 -1.20 9.90 0.08 -0.12 0.07 6663
0.87 -0.02 0.78 -1.20 9.92 0.09 -0.12 0.06 6670
0.89 -0.02 0.81 -1.25 10.00 0.10 -0.12 0.05 6676
0.89 -0.03 0.79 -1.24 10.06 0.12 -0.12 0.04 6682
0.96 -0.03 0.86 -1.27 10.06 0.15 -0.14 0.03 6688
1.03 -0.03 0.78 -1.29 10.14 0.18 -0.16 0.01 6694
1.10 -0.05 0.82 -1.34 10.11 0.22 -0.19 -0.01 6702
1.16 -0.02 0.73 -1.39 10.15 0.28 -0.22 -0.02 6708
1.17 -0.03 0.87 -1.50 10.39 0.35 -0.26 -0.05 6714
1.24 -0.04 0.87 -1.61 10.67 0.46 -0.31 -0.07 6720
1.30 -0.04 0.91 -1.54 11.08 0.59 -0.35 -0.08 6727
1.40 -0.05 0.81 -1.60 11.13 0.74 -0.37 -0.10 6733
1.43 -0.05 0.86 -1.88 11.81 0.87 -0.37 -0.10 6739
1.51 -0.05 0.94 -1.76 11.72 1.00 -0.35 -0.12 6746
1.53 -0.05 0.75 -2.38 11.82 1.10 -0.32 -0.12 6752
1.54 -0.05 0.82 -1.72 11.61 1.18 -0.25 -0.12 6759
1.61 -0.05 0.65 -1.40 11.68 1.27 -0.24 -0.12 6765
1.65 -0.06 0.80 -2.28 11.89 1.36 -0.21 -0.17 6771
1.67 -0.05 0.85 -2.20 12.12 1.46 -0.24 -0.14 6777
1.68 -0.05 0.86 -2.11 12.18 1.53 -0.32 -0.15 6785
1.73 -0.04 0.85 -2.17 11.94 1.64 -0.34 -0.16 6791
1.77 -0.05 0.72 -2.38 12.35 1.79 -0.37 -0.18 6797
1.75 -0.05 0.87 -2.58 13.02 2.00 -0.39 -0.20 6803
1.74 -0.04 0.87 -2.81 13.50 2.27 -0.41 -0.23 6810
1.73 -0.05 0.85 -2.78 13.22 2.55 -0.43 -0.25 6816
1.67 -0.06 1.02 -2.80 13.37 2.79 -0.46 -0.29 6822
1.63 -0.06 1.12 -3.19 13.27 3.03 -0.47 -0.33 6829
1.55 -0.05 1.14 -3.30 13.70 3.25 -0.47 -0.38 6835
1.43 -0.04 0.86 -3.55 14.51 3.52 -0.50 -0.42 6842
1.35 -0.06 1.12 -3.74 14.97 3.84 -0.56 -0.47 6848
1.15 -0.03 1.81 -3.89 15.61 4.14 -0.63 -0.55 6854
1.03 -0.03 1.95 -4.29 16.44 4.28 -0.73 -0.65 6860
0.89 -0.03 1.65 -5.04 15.56 4.28 -0.81 -0.75 6867
0.81 -0.01 2.29 -5.59 17.85 4.28 -0.94 -0.84 6874
0.63 -0.02 2.17 -6.84 18.91 4.28 -1.04 -0.92 6880
0.56 -0.01 2.39 -8.63 21.25 4.28 -1.03 -0.95 6886
0.50 -0.02 2.16 -11.20 24.69 4.28 -0.90 -0.92 6893
0.42 -0.03 1.91 -13.29 26.40 4.28 -0.74 -0.88 6899
0.38 -0.00 1.47 -13.80 25.25 4.28 -0.58 -0.85 6905
0.29 -0.00 1.44 -12.05 23.73 4.28 -0.50 -0.85 6913
0.22 0.01 0.86 -10.19 22.47 4.28 -0.50 -0.83 6919
0.17 -0.00 0.91 -8.70 24.81 4.28 -0.42 -0.76 6925
0.14 0.00 1.27 -6.77 26.41 4.28 -0.36 -0.71 6931
0.09 0.02 2.17 -4.54 26.81 4.28 -0.48 -0.75 6937
0.09 0.01 3.59 -1.35 25.34 4.28 -0.61 -0.75 6944
0.05 0.01 4.56 2.33 25.86 4.28 -0.79 -0.77 6950
0.07 0.01 5.11 6.52 25.15 4.28 -0.80 -0.81 6957
0.07 0.00 4.83 10.54 22.35 4.28 -0.64 -0.85 6963
0.05 0.02 4.38 21.36 24.11 4.28 -0.15 -0.98 6970
0.06 0.00 9.42 13.57 -0.45 4.28 -0.11 -1.38 6976
0.05 0.00 6.28 6.76 -0.87 4.27 -0.79 -1.69 6982
0.05 0.02 5.21 21.16 5.13 1.89 -0.92 -1.73 6988
0.06 0.00 7.42 21.16 24.00 0.23 -0.12 -1.58 6994
0.04 0.01 6.91 13.10 23.23 -0.91 0.55 -1.35 7002
0.06 0.00 4.63 8.98 16.83 -1.87 0.77 -1.11 7008
0.06 0.00 3.16 10.76 12.95 -2.67 0.65 -0.83 7014
0.05 0.01 2.78 11.34 9.84 -3.16 0.48 -0.61 7020
0.07 0.01 2.95 8.96 8.00 -3.42 0.31 -0.46 7027
0.06 -0.00 2.99 6.39 7.11 -3.52 0.21 -0.34 7033
0.05 0.00 2.82 5.48 6.50 -3.54 0.17 -0.23 7040
0.07 0.01 2.84 5.32 6.03 -3.53 0.14 -0.14 7046
0.05 0.00 2.92 4.53 5.80 -3.51 0.12 -0.08 7052
0.04 0.01 2.81 3.62 5.77 -3.50 0.14 -0.03 7058
0.05 0.01 2.94 3.41 6.13 -3.53 0.19 0.02 7064
0.05 -0.00 3.02 3.34 7.14 -3.58 0.27 0.06 7071
0.05 -0.00 3.05 3.11 7.75 -3.67 0.36 0.10 7077
0.05 0.00 3.02 2.91 8.27 -3.77 0.45 0.13 7084
0.05 0.00 2.89 2.84 8.73 -3.89 0.55 0.18 7090
0.05 0.01 2.75 2.50 9.36 -4.04 0.66 0.21 7096
0.03 0.01 2.57 1.75 10.08 -4.12 0.76 0.24 7102
0.04 0.01 2.38 0.85 10.73 -4.21 0.82 0.27 7109
0.04 0.01 2.32 0.12 11.59 -4.26 0.87 0.29 7115
0.03 0.01 2.25 -0.48 12.18 -4.28 0.92 0.31 7121
0.05 0.01 2.07 -1.05 12.38 -4.28 0.95 0.31 7128
0.04 -0.00 1.98 -1.70 12.61 -4.28 0.99 0.31 7134
0.04 -0.00 1.81 -2.33 12.98 -4.28 1.04 0.31 7140
0.05 -0.00 1.71 -2.87 13.18 -4.28 1.10 0.30 7147
0.04 -0.00 1.67 -3.64 13.66 -4.28 1.17 0.28 7153
0.03 0.00 1.77 -4.59 14.12 -4.28 1.27 0.24 7159
0.05 -0.00 1.70 -5.48 14.53 -4.28 1.39 0.20 7165
0.05 -0.00 1.59 -6.21 15.02 -4.28 1.51 0.14 7172
0.04 0.01 1.65 -6.65 15.27 -4.25 1.62 0.10 7179
0.06 -0.00 1.52 -6.87 15.53 -4.20 1.75 0.07 7185
0.04 -0.00 1.43 -7.00 15.99 -4.12 1.89 0.08 7191
0.04 -0.00 1.21 -7.18 16.50 -4.01 1.97 0.12 7197
0.06 -0.01 0.71 -7.36 16.99 -3.87 2.03 0.18 7203
0.04 -0.00 0.34 -7.68 17.69 -3.72 2.02 0.27 7209
0.03 -0.00 0.01 -7.89 18.38 -3.58 1.96 0.39 7217
0.04 0.00 -0.08 -8.09 19.06 -3.46 1.82 0.52 7223
0.04 -0.00 -0.16 -8.19 19.55 -3.35 1.65 0.65 7229
0.04 -0.00 -0.08 -8.50 19.81 -3.27 1.44 0.78 7235
0.04 0.01 0.08 -8.89 19.96 -3.18 1.23 0.88 7241
0.04 -0.00 0.24 -9.45 20.08 -3.13 1.03 0.96 7247
0.04 -0.00 0.38 -9.92 19.88 -3.03 0.86 1.03 7255
0.04 0.00 0.59 -10.55 19.55 -2.93 0.78 1.08 7261
0.04 -0.00 0.53 -11.15 19.16 -2.81 0.70 1.13 7267
0.04 -0.00 0.56 -12.15 18.65 -2.68 0.64 1.20 7273
0.04 0.01 0.26 -12.82 18.55 -2.55 0.58 1.23 7280
0.04 -0.00 0.18 -12.82 18.38 -2.42 0.51 1.23 7286
0.03 -0.00 0.15 -13.50 18.27 -2.30 0.42 1.25 7292
0.05 -0.01 0.20 -14.25 18.13 -2.21 0.35 1.26 7299
0.04 -0.00 0.47 -15.07 17.71 -2.17 0.31 1.25 7305
0.04 -0.00 0.75 -15.83 17.07 -2.18 0.30 1.24 7312
0.06 -0.00 1.21 -16.77 16.11 -2.23 0.40 1.21 7318
0.04 0.00 1.54 -17.55 14.96 -2.33 0.59 1.18 7324
0.04 0.02 1.50 -18.29 13.54 -2.45 0.87 1.14 7330
0.04 0.01 1.20 -19.22 11.74 -2.56 1.21 1.12 7337
0.03 0.01 0.43 -19.99 9.15 -2.58 1.58 1.11 7344
0.05 0.00 -1.10 -20.17 5.99 -2.47 2.08 1.18 7350
0.04 -0.00 -3.50 -20.29 3.49 -2.20 2.87 1.40 7356
0.03 0.00 -6.12 -22.99 3.74 -1.83 3.60 1.72 7362
0.05 0.01 -10.00 -26.10 4.77 -1.41 3.51 1.88 7369
0.04 0.01 -11.71 -26.70 4.30 -1.02 2.64 1.81 7375
0.05 0.01 -13.45 -25.39 3.02 -0.61 1.37 1.67 7382
0.05 0.00 -12.12 -22.90 1.55 -0.24 0.16 1.54 7388
0.05 0.01 -10.98 -21.59 2.44 0.08 -0.80 1.36 7395
0.04 0.00 -11.87 -33.90 31.16 1.63 -2.16 1.03 7401
0.04 0.01 -6.61 -20.32 -6.55 1.99 -2.26 0.65 7407
0.06 -0.00 -3.32 -27.74 1.26 2.53 -2.63 0.23 7413
0.04 -0.00 -4.48 -23.82 4.53 2.89 -2.93 -0.08 7420
0.04 0.02 -2.99 2.63 3.75 3.06 -2.75 -0.13 7427
0.03 0.40 0.80 3.03 13.83 3.14 -2.31 -0.01 7433
0.01 0.56 4.00 2.07 19.75 3.09 -1.81 0.22 7439
-0.01 0.71 3.82 1.46 15.06 2.85 -1.02 0.44 7445
-0.00 0.74 1.06 -2.62 15.35 2.76 -0.57 0.60 7452
-0.01 0.79 -2.67 -3.69 15.73 2.74 -0.38 0.59 7458
-0.01 0.80 -4.77 -4.25 16.30 2.83 -0.40 0.37 7464
-0.01 0.91 -3.94 -3.06 16.10 2.91 -0.47 0.20 7471
-0.02 0.94 -2.76 -2.57 17.60 2.93 -0.36 -0.00 7478
0.00 1.01 -2.03 -3.09 18.54 2.87 -0.12 -0.17 7484
-0.01 1.03 0.70 -3.20 18.43 2.77 0.24 -0.31 7490
-0.02 1.08 1.72 -2.57 17.06 2.71 0.65 -0.38 7496
-0.01 1.08 2.70 -1.94 17.31 2.65 0.96 -0.39 7502
-0.00 1.11 3.98 -3.92 26.69 2.28 0.90 -0.36 7510
0.00 1.20 2.32 -2.26 11.50 0.38 -0.39 -0.01 7516
-0.01 1.24 0.92 -2.22 10.77 0.15 -0.36 0.12 7522
-0.03 1.26 0.24 -1.20 10.48 0.14 -0.31 0.10 7528
0.00 1.27 1.27 -0.58 10.37 0.08 -0.17 0.06 7535
0.00 1.28 0.24 -3.57 10.29 -0.03 -0.01 0.09 7541
0.02 1.29 0.83 -1.39 9.98 -0.00 0.01 0.11 7547
0.05 1.30 0.85 -1.10 10.16 0.01 -0.00 0.11 7554
0.05 1.31 0.89 -1.22 9.90 0.02 -0.02 0.10 7560
0.05 1.30 0.46 -0.91 10.01 0.04 -0.04 0.07 7566
0.06 1.30 0.89 -1.12 9.99 0.04 -0.05 0.11 7573
0.09 1.27 0.82 -1.10 9.92 0.04 -0.07 0.11 7579
0.11 1.25 0.79 -1.06 9.87 0.04 -0.07 0.11 7585
0.11 1.25 0.78 -1.03 9.88 0.04 -0.07 0.12 7591
0.13 1.23 0.80 -1.02 9.92 0.04 -0.07 0.13 7598
0.15 1.20 0.69 -1.00 9.87 0.04 -0.07 0.14 7604
0.17 1.18 0.73 -0.96 9.83 0.03 -0.06 0.15 7611
0.20 1.15 0.72 -0.97 9.92 0.03 -0.06 0.15 7617
0.20 1.12 0.71 -1.01 9.98 0.03 -0.05 0.15 7623
0.17 1.09 0.75 -1.01 9.90 0.04 -0.05 0.16 7629
0.18 1.06 0.74 -1.01 9.90 0.04 -0.04 0.16 7635
0.19 1.03 0.68 -1.04 9.91 0.04 -0.04 0.17 7642
0.19 0.96 0.68 -1.01 9.85 0.03 -0.04 0.17 7648
0.19 0.92 0.69 -0.95 9.87 0.03 -0.03 0.19 7655
0.23 0.88 0.67 -1.01 9.88 0.03 -0.02 0.17 7661
0.27 0.82 0.66 -1.01 9.89 0.03 -0.01 0.18 7667
0.27 0.79 0.73 -0.98 9.86 0.03 -0.01 0.17 7673
0.28 0.70 0.68 -1.01 9.84 0.03 -0.01 0.17 7680
0.27 0.64 0.76 -0.98 9.84 0.03 -0.02 0.20 7686
0.28 0.61 0.74 -0.99 9.87 0.03 -0.02 0.18 7693
0.28 0.58 0.74 -0.98 9.85 0.03 -0.03 0.16 7699
0.30 0.52 0.75 -1.06 9.84 0.04 -0.03 0.17 7705
0.31 0.47 0.75 -1.04 9.88 0.04 -0.04 0.16 7711
0.33 0.48 0.73 -1.03 9.86 0.03 -0.04 0.15 7717
0.36 0.41 0.71 -1.06 9.83 0.04 -0.04 0.16 7724
0.35 0.38 0.74 -1.03 9.84 0.04 -0.05 0.16 7730
0.36 0.38 0.73 -1.05 9.89 0.04 -0.05 0.16 7737
0.38 0.33 0.76 -1.07 9.85 0.04 -0.05 0.15 7743
0.39 0.28 0.74 -1.08 9.85 0.04 -0.05 0.14 7749
0.41 0.24 0.75 -1.08 9.87 0.04 -0.06 0.15 7755
0.44 0.19 0.79 -1.10 9.84 0.04 -0.06 0.14 7761
0.44 0.15 0.78 -1.10 9.81 0.04 -0.07 0.13 7768
0.45 0.12 0.75 -1.13 9.87 0.04 -0.07 0.12 7775
0.50 0.11 0.78 -1.09 9.85 0.04 -0.08 0.13 7781
0.49 0.07 0.79 -1.13 9.86 0.04 -0.08 0.12 7787
0.51 0.00 0.80 -1.19 9.92 0.04 -0.09 0.11 7793
0.54 0.02 0.77 -1.12 9.87 0.04 -0.10 0.10 7799
0.59 -0.01 0.79 -1.18 9.89 0.04 -0.11 0.10 7805
0.61 -0.02 0.77 -1.24 9.85 0.04 -0.12 0.10 7812
0.65 -0.02 0.78 -1.15 9.83 0.04 -0.12 0.09 7819
0.68 -0.02 0.73 -1.17 9.82 0.04 -0.12 0.10 7825
0.68 -0.03 0.68 -1.17 9.87 0.04 -0.11 0.08 7831
0.71 -0.03 0.72 -1.18 9.88 0.03 -0.11 0.08 7837
0.72 -0.01 0.72 -1.20 9.86 0.03 -0.10 0.08 7843
0.73 -0.02 0.74 -1.24 9.90 0.04 -0.10 0.08 7849
0.77 -0.03 0.74 -1.81 9.85 0.04 -0.11 0.08 7857
0.80 -0.03 0.78 -1.21 9.89 0.05 -0.11 0.08 7863
0.85 -0.03 0.78 -1.20 9.91 0.06 -0.11 0.07 7869
0.78 -0.04 0.74 -1.28 9.91 0.06 -0.11 0.05 7875
0.83 -0.03 0.76 -1.28 9.91 0.07 -0.11 0.05 7881
0.91 -0.03 0.80 -1.26 9.89 0.07 -0.13 0.04 7887
0.94 -0.03 0.78 -1.29 9.93 0.08 -0.13 0.03 7895
0.94 -0.04 0.72 -1.28 9.92 0.09 -0.14 0.03 7901
1.07 -0.02 0.72 -1.33 9.94 0.10 -0.15 0.02 7907
1.14 -0.04 0.70 -1.29 9.96 0.11 -0.15 0.01 7913
1.17 -0.05 0.76 -1.37 9.99 0.11 -0.16 0.01 7919
1.24 -0.04 0.71 -1.38 10.03 0.13 -0.17 0.01 7925
1.26 -0.04 0.79 -1.43 10.03 0.15 -0.19 -0.00 7932
1.32 -0.04 0.77 -1.42 10.10 0.17 -0.20 -0.02 7939
1.40 -0.04 0.82 -1.47 10.24 0.21 -0.22 -0.04 7945
1.47 -0.05 0.87 -1.51 10.26 0.26 -0.23 -0.06 7951
1.52 -0.05 0.91 -1.63 10.45 0.32 -0.27 -0.08 7957
1.55 -0.05 0.84 -1.69 10.67 0.41 -0.32 -0.11 7964
1.59 -0.06 0.93 -1.74 10.98 0.53 -0.38 -0.12 7970
1.69 -0.04 0.80 -1.81 11.02 0.67 -0.43 -0.13 7976
1.76 -0.07 0.77 -1.69 11.36 0.80 -0.47 -0.14 7983
1.80 -0.05 0.73 -1.88 11.54 0.92 -0.48 -0.14 7990
1.86 -0.05 0.70 -2.04 11.61 1.05 -0.46 -0.14 7996
1.89 -0.04 0.63 -1.92 11.87 1.17 -0.44 -0.13 8002
1.90 -0.05 0.63 -1.99 11.82 1.29 -0.40 -0.14 8008
1.93 -0.05 0.32 -2.11 11.57 1.35 -0.36 -0.13 8015
1.96 -0.06 0.50 -2.29 11.81 1.39 -0.38 -0.13 8022
1.96 -0.05 0.94 -1.11 12.28 1.46 -0.36 -0.13 8028
1.98 -0.05 0.37 -2.35 11.81 1.56 -0.36 -0.15 8034
1.97 -0.04 0.56 -2.49 12.26 1.71 -0.35 -0.15 8040
1.98 -0.04 0.56 -2.69 12.20 1.90 -0.39 -0.16 8047
1.96 -0.06 0.46 -2.68 12.88 2.12 -0.43 -0.18 8053
1.92 -0.06 0.42 -2.79 13.57 2.37 -0.44 -0.19 8059
1.87 -0.07 0.73 -2.93 13.33 2.62 -0.45 -0.21 8066
1.82 -0.07 0.61 -3.16 13.39 2.87 -0.45 -0.23 8073
1.73 -0.03 0.99 -3.15 13.89 3.11 -0.45 -0.28 8079
1.60 -0.05 0.84 -3.63 13.75 3.36 -0.47 -0.37 8085
1.43 -0.05 1.31 -3.81 14.44 3.63 -0.52 -0.41 8091
1.28 -0.03 1.37 -3.94 14.89 3.95 -0.52 -0.48 8098
1.13 -0.03 1.87 -4.43 15.63 4.19 -0.56 -0.56 8104
0.95 -0.02 -0.51 -8.22 16.99 4.28 -0.54 -0.64 8111
0.83 -0.03 1.33 -5.45 17.54 4.28 -0.61 -0.72 8117
0.71 -0.03 1.62 -5.99 18.63 4.28 -0.61 -0.76 8124
0.56 -0.02 1.58 -7.74 20.47 4.28 -0.60 -0.78 8130
0.44 -0.02 1.35 -9.90 23.27 4.28 -0.53 -0.75 8136
0.41 -0.00 1.40 -12.37 25.52 4.28 -0.36 -0.65 8142
0.33 -0.00 1.24 -13.21 26.56 4.28 -0.14 -0.59 8150
0.28 0.00 0.90 -11.79 23.56 4.28 0.01 -0.57 8156
0.23 -0.00 -0.34 -10.69 22.76 4.28 0.11 -0.50 8162
0.19 -0.02 -0.25 -9.35 25.10 4.28 0.19 -0.39 8168
0.12 -0.00 0.84 -8.70 26.96 4.28 0.23 -0.37 8174
0.11 -0.01 2.41 -6.44 28.35 4.28 0.14 -0.45 8181
0.07 -0.01 3.65 -3.96 27.26 4.28 -0.02 -0.54 8187
0.07 -0.00 4.65 0.23 26.66 4.28 -0.17 -0.64 8194
0.07 -0.01 5.24 5.14 26.50 4.28 -0.23 -0.73 8200
0.05 -0.00 4.86 9.75 25.77 4.28 -0.02 -0.80 8206
0.05 0.00 3.54 12.85 20.24 4.28 0.36 -0.93 8213
0.06 0.01 4.56 11.63 4.53 4.28 0.52 -1.28 8219
0.05 0.00 5.20 10.10 0.68 4.28 -0.50 -1.66 8225
0.05 0.02 5.04 14.89 -2.50 2.80 -1.18 -1.78 8231
0.05 0.01 5.82 25.01 19.58 0.76 -0.71 -1.71 8239
0.04 0.01 8.22 16.67 24.26 -0.44 0.12 -1.49 8245
0.07 0.02 5.75 10.39 18.64 -1.38 0.53 -1.31 8251
0.05 0.00 4.24 10.69 13.95 -2.21 0.66 -1.09 8257
0.06 0.02 3.26 12.85 10.05 -2.78 0.66 -0.86 8264
0.06 0.01 3.02 11.29 8.54 -3.12 0.61 -0.71 8270
0.04 0.01 3.01 8.39 7.75 -3.29 0.55 -0.62 8276
0.05 0.01 2.61 6.65 7.25 -3.36 0.54 -0.54 8283
0.06 0.01 2.28 6.15 6.80 -3.37 0.55 -0.45 8289
0.04 0.01 2.02 5.57 6.60 -3.37 0.53 -0.37 8295
0.05 0.01 1.87 4.91 6.44 -3.38 0.51 -0.31 8302
0.05 0.00 1.67 4.45 6.73 -3.43 0.49 -0.25 8308
0.05 -0.01 1.61 4.14 7.28 -3.51 0.48 -0.20 8314
0.05 0.00 1.65 3.93 8.14 -3.61 0.46 -0.14 8321
0.06 -0.00 1.71 3.78 8.99 -3.74 0.44 -0.11 8327
0.05 -0.00 1.78 3.53 9.52 -3.89 0.47 -0.08 8333
0.04 0.01 1.89 3.16 9.99 -4.06 0.56 -0.05 8339
0.05 0.01 1.99 2.63 10.54 -4.18 0.69 -0.03 8346
0.04 0.00 2.05 1.65 11.01 -4.26 0.83 -0.04 8352
0.04 0.00 1.93 0.81 11.56 -4.28 0.97 -0.06 8358
0.06 0.00 1.78 -0.11 12.09 -4.28 1.11 -0.08 8365
0.05 -0.00 1.61 -1.07 12.89 -4.28 1.24 -0.10 8371
0.04 0.01 1.33 -1.88 13.38 -4.28 1.39 -0.12 8378
0.06 -0.00 1.12 -2.49 13.96 -4.28 1.48 -0.14 8384
0.05 -0.00 0.86 -3.09 14.22 -4.28 1.59 -0.15 8390
0.04 -0.00 0.76 -4.18 14.79 -4.28 1.69 -0.17 8396
0.06 -0.01 0.62 -4.43 15.09 -4.28 1.79 -0.21 8402
0.04 -0.00 0.46 -5.29 15.66 -4.28 1.87 -0.25 8410
0.03 -0.00 0.34 -6.42 15.88 -4.28 1.94 -0.30 8416
0.04 0.01 0.17 -7.21 16.03 -4.28 2.01 -0.33 8422
0.04 0.00 0.07 -7.48 16.05 -4.26 2.10 -0.34 8428
0.04 -0.00 -0.10 -7.49 16.32 -4.19 2.18 -0.31 8434
0.05 0.00 -0.37 -7.53 16.38 -4.04 2.25 -0.26 8440
0.04 -0.00 -0.83 -7.67 16.61 -3.87 2.29 -0.18 8448
0.03 -0.00 -1.30 -7.82 17.24 -3.64 2.29 -0.07 8454
0.05 0.00 -1.65 -8.20 18.02 -3.43 2.23 0.07 8460
0.05 -0.00 -2.01 -8.34 18.71 -3.26 2.11 0.23 8466
0.04 -0.00 -2.28 -8.41 19.02 -3.12 1.93 0.42 8472
0.05 0.00 -2.31 -8.51 19.53 -3.02 1.68 0.58 8479
0.04 0.00 -2.21 -8.79 19.72 -2.94 1.39 0.77 8485
0.04 0.01 -1.94 -9.38 20.08 -2.87 1.09 0.95 8492
0.06 0.01 -1.41 -9.82 20.46 -2.82 0.82 1.11 8498
0.04 0.01 -0.91 -10.43 20.70 -2.78 0.59 1.25 8504
0.05 0.00 -0.47 -11.01 20.82 -2.74 0.41 1.36 8511
0.05 0.00 -0.07 -11.85 20.67 -2.71 0.28 1.44 8517
0.03 -0.00 0.20 -12.86 19.98 -2.69 0.17 1.51 8523
0.05 -0.00 0.56 -13.91 19.00 -2.64 0.11 1.56 8529
0.04 -0.00 0.91 -14.94 17.57 -2.59 0.05 1.58 8537
0.04 0.01 1.11 -16.18 16.34 -2.51 0.03 1.59 8543
0.06 0.01 1.31 -17.38 14.94 -2.41 0.04 1.58 8549
0.05 0.00 1.41 -18.48 13.74 -2.30 0.09 1.56 8555
0.05 0.01 1.48 -19.25 12.76 -2.20 0.21 1.52 8562
0.05 0.01 1.50 -19.65 11.75 -2.11 0.42 1.48 8568
0.04 0.01 1.37 -19.79 10.53 -2.06 0.72 1.42 8574
0.05 -0.01 0.43 -19.45 8.66 -2.03 1.15 1.37 8581
0.04 -0.00 -1.42 -18.59 6.81 -1.97 1.83 1.42 8587
0.04 0.00 -4.13 -18.68 6.11 -1.86 2.62 1.59 8594
0.05 -0.00 -6.03 -19.65 7.22 -1.70 3.12 1.77 8600
0.05 -0.00 -9.33 -21.73 7.31 -1.52 2.92 1.78 8606
0.05 0.01 -11.57 -22.94 6.58 -1.32 2.24 1.64 8612
0.05 0.00 -11.17 -23.92 3.71 -1.08 1.18 1.45 8620
0.04 0.01 -12.91 -30.88 7.62 -0.56 -0.30 1.22 8626
0.05 -0.00 -11.98 -26.37 0.12 0.66 -1.22 0.84 8632
0.04 -0.00 -8.67 -26.26 -4.92 1.13 -1.54 0.42 8638
0.05 0.01 -6.39 -30.54 4.02 1.82 -2.00 0.03 8645
0.05 0.00 -5.89 -32.10 1.85 2.33 -2.19 -0.33 8651
0.03 0.01 -7.20 -26.41 0.39 2.60 -2.47 -0.41 8657
0.04 0.28 -3.25 -0.99 5.50 2.91 -2.66 -0.47 8664
0.00 0.59 0.60 0.44 16.33 3.15 -2.14 -0.35 8670
-0.00 0.68 5.92 3.00 20.46 3.14 -1.24 -0.06 8677
0.01 0.71 4.66 1.78 16.37 2.93 -0.55 0.21 8683
-0.01 0.78 1.20 -3.02 16.24 2.85 -0.37 0.33 8689
-0.01 0.85 -1.27 -4.35 17.22 2.89 -0.41 0.33 8695
-0.01 0.88 -1.27 -3.45 16.03 2.97 -0.54 0.26 8702
-0.02 0.90 -0.91 -3.25 17.81 3.01 -0.47 0.20 8709
-0.01 0.96 -2.58 -3.48 20.92 2.97 -0.15 0.10 8715
-0.02 0.98 -2.97 -2.68 18.25 2.79 0.27 -0.14 8721
-0.02 1.03 -0.29 -2.13 17.11 2.62 0.72 -0.36 8727
0.00 1.02 1.92 -3.22 19.16 2.58 1.17 -0.47 8734
-0.01 1.04 4.12 -3.45 21.76 0.89 0.12 -0.25 8740
-0.01 1.10 2.40 -2.43 11.64 0.17 -0.22 0.06 8747
0.00 1.13 0.56 -1.17 10.18 0.11 -0.34 0.12 8753
-0.01 1.13 0.21 -1.66 10.50 0.14 -0.29 0.09 8760
0.01 1.15 0.70 -1.64 10.19 0.03 -0.08 0.09 8766
0.05 1.15 1.14 -1.35 9.94 -0.02 -0.03 0.10 8772
0.07 1.15 1.03 -1.04 10.05 -0.01 -0.04 0.08 8778
0.10 1.16 0.93 -1.09 10.21 0.04 -0.10 0.10 8784
0.13 1.17 0.80 -1.14 9.94 0.06 -0.13 0.09 8792
0.15 1.16 0.77 -1.06 9.95 0.07 -0.13 0.10 8798
0.16 1.18 0.77 -1.04 9.98 0.05 -0.12 0.10 8804
0.18 1.17 0.77 -0.98 9.96 0.04 -0.10 0.11 8810
0.20 1.15 0.76 -1.00 10.00 0.03 -0.09 0.13 8816
0.20 1.14 0.70 -1.00 9.90 0.03 -0.08 0.13 8822
0.23 1.14 0.75 -0.94 9.88 0.03 -0.06 0.14 8828
0.27 1.11 0.72 -0.97 9.90 0.03 -0.06 0.14 8836
0.26 1.08 0.73 -0.96 9.94 0.03 -0.05 0.14 8842
0.32 1.04 0.76 -0.94 9.91 0.03 -0.05 0.16 8848
0.29 1.03 0.73 -0.96 9.89 0.03 -0.05 0.15 8854
0.32 0.98 0.74 -0.93 9.89 0.04 -0.05 0.16 8860
0.33 0.94 0.76 -0.94 9.89 0.03 -0.05 0.15 8866
0.38 0.86 0.73 -0.96 9.88 0.04 -0.06 0.17 8873
0.38 0.81 0.75 -0.96 9.92 0.04 -0.06 0.17 8880
0.38 0.78 0.75 -0.97 9.90 0.03 -0.06 0.16 8886
0.37 0.72 0.83 -1.00 9.84 0.03 -0.06 0.16 8892
0.42 0.65 0.76 -0.99 9.87 0.03 -0.06 0.15 8898
0.41 0.65 0.79 -1.01 9.86 0.04 -0.07 0.14 8904
0.46 0.59 0.76 -0.97 9.89 0.04 -0.08 0.15 8911
0.48 0.56 0.74 -1.03 9.90 0.04 -0.07 0.14 8918
0.46 0.55 0.73 -1.01 9.93 0.05 -0.07 0.15 8924
0.51 0.51 0.72 -1.01 9.93 0.05 -0.07 0.15 8930
0.50 0.47 0.71 -1.04 9.92 0.05 -0.06 0.15 8936
0.52 0.43 0.73 -1.04 9.89 0.05 -0.06 0.14 8942
0.51 0.37 0.70 -1.06 9.91 0.05 -0.06 0.13 8948
0.55 0.28 0.71 -1.09 9.88 0.05 -0.06 0.13 8955
0.58 0.19 0.78 -1.05 9.90 0.06 -0.06 0.12 8962
0.60 0.15 0.81 -1.08 9.85 0.06 -0.07 0.13 8968
0.65 0.11 0.77 -1.09 9.89 0.06 -0.07 0.12 8974
0.67 0.05 0.78 -1.13 9.86 0.06 -0.07 0.11 8980
0.67 0.02 0.76 -1.15 9.88 0.06 -0.08 0.10 8986
0.73 -0.00 0.80 -1.13 9.87 0.07 -0.08 0.09 8993
0.74 -0.03 0.79 -1.17 9.88 0.07 -0.08 0.08 8999
0.75 -0.03 0.78 -1.20 9.92 0.07 -0.08 0.07 9006
0.77 -0.02 0.82 -1.18 9.90 0.07 -0.09 0.07 9012
0.81 -0.02 0.79 -1.20 9.89 0.07 -0.09 0.06 9018
0.83 -0.04 0.78 -1.22 9.93 0.08 -0.10 0.05 9024
0.85 -0.04 0.75 -1.23 9.92 0.08 -0.10 0.05 9030
0.90 -0.03 0.80 -1.23 9.89 0.08 -0.10 0.05 9037
0.86 -0.03 0.80 -1.29 9.90 0.08 -0.11 0.04 9043
0.91 -0.05 0.79 -1.27 9.89 0.08 -0.11 0.03 9050
0.93 -0.03 0.79 -1.31 9.91 0.08 -0.10 0.03 9056
0.96 -0.04 0.82 -1.30 9.96 0.08 -0.11 0.03 9062
1.00 -0.04 0.80 -1.32 9.89 0.08 -0.10 0.02 9068
1.00 -0.03 0.75 -1.34 9.91 0.08 -0.10 0.02 9074
1.03 -0.04 0.83 -1.32 9.92 0.08 -0.10 0.01 9081
1.06 -0.05 0.80 -1.37 9.96 0.09 -0.10 0.00 9088
1.06 -0.03 0.80 -1.37 9.92 0.09 -0.10 0.00 9094
1.09 -0.04 0.84 -1.39 9.94 0.10 -0.11 -0.01 9100
1.13 -0.04 0.83 -1.35 9.94 0.10 -0.12 -0.01 9106
1.12 -0.04 0.73 -1.41 9.88 0.10 -0.12 -0.02 9112
1.15 -0.03 0.79 -1.40 9.87 0.10 -0.11 -0.02 9119
1.17 -0.04 0.83 -1.41 9.97 0.10 -0.12 -0.03 9125
1.19 -0.04 0.79 -1.43 9.89 0.10 -0.12 -0.00 9132
1.22 -0.02 0.74 -1.40 9.92 0.10 -0.12 -0.03 9138
1.24 -0.04 0.77 -1.49 9.89 0.10 -0.12 -0.04 9144
1.28 -0.05 0.75 -1.50 9.91 0.10 -0.11 -0.04 9150
1.30 -0.05 0.89 -1.57 9.99 0.11 -0.12 -0.05 9157
1.32 -0.04 0.84 -1.52 10.06 0.13 -0.12 -0.06 9163
1.38 -0.06 0.83 -1.51 10.05 0.16 -0.14 -0.07 9169
1.42 -0.06 0.72 -1.62 10.13 0.17 -0.15 -0.08 9176
1.45 -0.05 0.77 -1.60 10.18 0.20 -0.17 -0.08 9182
1.49 -0.05 0.85 -1.62 10.33 0.24 -0.18 -0.09 9189
1.53 -0.05 0.91 -1.62 10.43 0.30 -0.21 -0.10 9195
1.56 -0.04 0.91 -1.81 10.69 0.38 -0.25 -0.11 9201
1.60 -0.02 0.84 -1.62 11.39 0.46 -0.28 -0.13 9207
1.71 -0.03 0.81 -1.79 10.95 0.56 -0.36 -0.13 9214
1.74 -0.04 0.83 -1.69 11.27 0.68 -0.40 -0.14 9221
1.78 -0.04 0.83 -1.82 11.49 0.80 -0.40 -0.14 9227
1.81 -0.05 0.64 -1.77 11.40 0.93 -0.41 -0.14 9233
1.87 -0.05 0.40 -1.93 11.53 1.04 -0.40 -0.13 9239
1.92 -0.06 0.52 -2.03 11.83 1.13 -0.38 -0.11 9246
1.91 -0.06 0.64 -2.18 11.58 1.21 -0.34 -0.11 9252
1.94 -0.06 0.58 -2.26 12.05 1.26 -0.35 -0.10 9259
1.96 -0.07 0.15 -2.10 12.44 1.33 -0.33 -0.11 9265
1.96 -0.07 0.61 -2.42 11.70 1.46 -0.32 -0.12 9272
2.00 -0.06 0.45 -2.40 12.87 1.66 -0.33 -0.13 9278
1.99 -0.07 0.65 -2.54 12.78 1.88 -0.39 -0.14 9284
1.94 -0.06 0.61 -2.73 12.95 2.13 -0.43 -0.16 9290
1.92 -0.07 0.79 -2.84 13.30 2.37 -0.45 -0.19 9297
1.89 -0.07 0.86 -2.87 13.35 2.60 -0.48 -0.23 9304
1.84 -0.06 0.91 -3.14 13.87 2.85 -0.52 -0.27 9310
1.82 -0.07 0.87 -3.27 14.29 3.11 -0.56 -0.32 9316
1.69 -0.07 1.33 -3.39 15.00 3.39 -0.63 -0.37 9323
1.54 -0.06 0.85 -4.16 14.73 3.70 -0.68 -0.43 9329
1.40 -0.05 1.86 -3.89 15.85 4.03 -0.78 -0.52 9335
1.26 -0.05 2.28 -4.17 16.34 4.24 -0.85 -0.63 9341
1.12 -0.04 2.27 -4.77 17.06 4.28 -0.97 -0.75 9348
0.92 -0.04 1.52 -4.89 16.56 4.28 -1.01 -0.86 9355
0.80 -0.03 2.06 -5.84 18.04 4.28 -1.12 -0.95 9361
0.70 -0.03 2.17 -7.34 19.68 4.28 -1.14 -1.01 9367
0.61 -0.03 2.02 -9.62 22.64 4.28 -1.05 -1.00 9373
0.49 -0.01 1.01 -12.43 25.13 4.28 -0.93 -0.97 9380
0.39 -0.01 0.10 -14.14 26.22 4.28 -0.78 -0.92 9387
0.36 0.01 -0.17 -13.36 24.18 4.28 -0.68 -0.84 9393
0.30 -0.00 0.03 -11.66 23.80 4.28 -0.52 -0.72 9400
0.22 0.01 0.26 -9.77 25.50 4.28 -0.33 -0.60 9406
0.19 0.01 0.62 -7.54 26.48 4.28 -0.29 -0.60 9412
0.12 -0.01 1.28 -4.82 26.35 4.28 -0.40 -0.62 9418
0.09 0.01 3.04 -0.66 26.33 4.28 -0.50 -0.61 9424
0.08 -0.00 3.91 1.98 24.31 4.28 -0.68 -0.66 9432
0.06 -0.01 4.58 6.11 23.64 4.28 -0.83 -0.71 9438
0.06 0.01 4.52 9.61 24.70 4.28 -0.76 -0.77 9444
0.06 -0.00 3.76 12.20 19.89 4.28 -0.46 -0.88 9450
0.04 -0.00 3.26 4.55 18.71 4.28 -0.08 -1.08 9456
0.06 0.01 4.95 7.77 8.56 4.28 -0.74 -1.38 9463
0.06 -0.00 5.25 10.47 5.62 3.39 -1.00 -1.48 9469
0.04 0.00 4.50 24.49 8.10 1.06 -0.59 -1.58 9476
0.05 0.01 7.36 18.25 21.79 -0.33 0.16 -1.53 9482
0.05 0.00 5.58 10.83 20.80 -1.41 0.67 -1.43 9488
0.06 0.01 4.01 9.85 16.10 -2.26 1.00 -1.25 9495
0.06 0.00 3.05 11.34 11.45 -2.86 1.10 -1.03 9501
0.06 -0.00 2.68 10.44 8.86 -3.25 1.08 -0.84 9507
0.05 0.00 2.60 8.07 7.75 -3.44 1.00 -0.71 9513
0.06 0.00 2.40 6.28 7.24 -3.56 0.96 -0.58 9520
0.05 -0.00 2.20 5.63 6.87 -3.59 0.94 -0.45 9527
0.05 0.00 1.91 5.11 6.48 -3.57 0.89 -0.36 9533
0.07 0.00 1.66 4.34 6.14 -3.55 0.84 -0.28 9539
0.06 0.00 1.51 3.75 6.08 -3.54 0.81 -0.21 9545
0.05 0.00 1.53 3.32 6.71 -3.54 0.79 -0.15 9551
0.06 0.01 1.59 2.80 7.62 -3.56 0.80 -0.11 9558
0.06 0.01 1.52 2.32 8.47 -3.64 0.82 -0.09 9564
0.06 0.01 1.66 2.39 9.20 -3.71 0.87 -0.07 9571
0.05 0.02 1.68 2.22 9.97 -3.87 0.95 -0.05 9577
0.06 0.01 1.61 1.77 10.76 -4.05 1.06 -0.03 9583
0.06 0.00 1.83 1.75 11.53 -4.18 1.14 -0.01 9589
0.06 0.02 1.48 0.85 12.27 -4.26 1.22 0.02 9595
0.05 0.01 1.42 0.15 12.60 -4.28 1.30 0.07 9603
0.06 0.00 1.25 -0.23 12.31 -4.28 1.37 0.14 9609
0.06 0.02 1.12 -0.81 12.53 -4.28 1.47 0.19 9615
0.06 0.01 1.24 -1.50 12.02 -4.28 1.57 0.23 9621
0.04 0.02 1.29 -2.67 12.35 -4.28 1.69 0.26 9627
0.06 0.02 1.26 -4.17 12.76 -4.28 1.82 0.24 9634
0.05 0.01 1.04 -5.25 13.58 -4.26 1.94 0.19 9640
0.05 0.00 0.71 -5.95 14.21 -4.15 2.04 0.12 9647
0.07 0.01 0.25 -6.57 14.69 -3.98 2.14 0.06 9653
0.05 0.00 -0.20 -6.78 15.20 -3.79 2.24 0.03 9659
0.05 0.00 -0.75 -6.64 16.18 -3.71 2.32 0.04 9666
0.06 0.01 -1.22 -6.68 17.29 -3.65 2.35 0.08 9672
0.05 0.00 -1.59 -6.46 18.21 -3.64 2.34 0.13 9678
0.05 0.02 -2.01 -6.29 18.96 -3.64 2.25 0.22 9684
0.05 0.01 -2.29 -6.30 19.25 -3.65 2.14 0.34 9692
0.04 0.01 -2.39 -6.65 19.49 -3.64 2.00 0.47 9698
0.05 0.02 -2.31 -7.31 19.39 -3.63 1.76 0.59 9704
0.05 0.01 -1.91 -8.51 19.51 -3.61 1.49 0.67 9710
0.04 0.02 -1.38 -8.55 19.31 -3.58 1.24 0.74 9716
0.05 0.01 -0.85 -9.17 18.89 -3.55 1.03 0.83 9723
0.05 0.00 -0.51 -9.71 18.60 -3.49 0.87 0.83 9730
0.04 0.00 -0.38 -10.33 17.94 -3.39 0.73 0.84 9736
0.05 -0.00 -0.38 -11.21 17.08 -3.20 0.65 0.86 9742
0.04 -0.00 -0.45 -12.16 16.60 -2.93 0.58 0.87 9749
0.04 0.00 -0.44 -13.14 16.61 -2.61 0.52 0.87 9755
0.05 -0.01 -0.14 -14.03 16.61 -2.28 0.45 0.85 9761
0.04 -0.00 0.53 -14.83 16.87 -2.00 0.47 0.85 9767
0.06 -0.01 1.35 -15.56 17.00 -1.82 0.61 0.86 9774
0.06 -0.01 2.02 -16.10 17.38 -1.78 0.91 0.89 9781
0.04 -0.00 2.10 -16.46 17.58 -1.88 1.35 0.95 9787
0.07 -0.01 1.34 -16.77 16.94 -2.03 1.83 1.04 9793
0.06 -0.01 0.06 -17.31 15.88 -2.28 2.19 1.17 9799
0.06 -0.01 -1.65 -17.88 14.55 -2.51 2.36 1.33 9805
0.06 -0.01 -3.17 -18.49 12.66 -2.70 2.32 1.54 9812
0.05 -0.00 -4.63 -19.00 10.57 -2.78 2.13 1.78 9819
0.05 -0.00 -5.90 -20.07 8.82 -2.74 1.80 2.03 9825
0.05 -0.01 -7.18 -21.56 6.88 -2.56 1.47 2.26 9831
0.04 -0.00 -7.26 -22.60 4.62 -2.30 0.98 2.43 9837
0.05 -0.00 -6.75 -23.67 3.67 -1.97 0.43 2.44 9844
0.05 -0.01 -7.58 -32.94 4.49 -1.52 -0.17 2.39 9850
0.05 -0.00 -8.35 -26.61 2.10 -0.08 -0.82 2.11 9857
0.05 -0.01 -7.88 -30.20 -5.78 0.35 -1.12 1.75 9863
0.05 -0.01 -6.22 -33.20 0.17 1.20 -1.39 1.32 9869
0.05 -0.00 -7.21 -33.82 -2.36 1.79 -1.43 0.88 9876
0.06 0.00 -8.59 -37.19 -3.71 2.24 -1.86 0.52 9882
0.06 0.02 -9.15 -25.45 -2.33 2.84 -2.37 0.30 9888
0.01 0.46 -5.83 2.11 4.38 3.41 -2.51 0.17 9894
0.01 0.61 -0.20 -2.66 17.25 3.76 -2.09 0.18 9901
0.01 0.70 2.23 3.08 23.04 3.66 -1.34 0.31 9908
-0.01 0.73 0.37 -0.89 19.74 3.16 -0.73 0.42 9914
0.00 0.78 -1.19 -4.22 19.90 2.78 -0.48 0.42 9920
-0.02 0.86 -2.39 -4.40 18.12 2.65 -0.26 0.39 9926
-0.01 0.93 -3.05 -4.05 15.83 2.71 -0.11 0.27 9932
-0.01 0.96 -3.48 -3.21 18.30 2.83 -0.05 0.07 9939
-0.02 1.00 -2.66 -3.40 20.27 2.81 0.07 -0.15 9946
-0.01 1.07 -0.20 -2.60 18.47 2.60 0.38 -0.31 9952
-0.02 1.13 1.89 -2.77 17.69 2.38 0.77 -0.38 9958
-0.02 1.15 2.31 -2.35 16.28 2.20 1.05 -0.37 9965
0.00 1.20 3.96 -3.73 23.64 1.50 0.74 -0.30 9971
-0.02 1.23 3.29 -2.49 11.23 0.33 -0.22 0.01 9977
-0.01 1.23 0.88 -1.49 10.71 0.16 -0.30 0.11 9984
-0.01 1.22 0.36 -1.44 10.24 0.14 -0.29 0.08 9990
-0.01 1.23 1.21 -0.30 11.06 0.09 -0.20 0.05 9997
0.01 1.25 1.20 -1.70 8.67 0.02 -0.08 0.07 10003
0.01 1.27 0.90 -1.25 10.06 -0.00 -0.01 0.10 10009
0.03 1.27 1.14 -1.14 10.32 -0.02 -0.01 0.08 10015
0.01 1.30 0.89 -1.28 10.15 -0.01 -0.02 0.10 10022
0.01 1.30 0.93 -1.16 9.95 -0.01 -0.01 0.09 10029
0.04 1.30 0.86 -1.18 10.04 -0.01 -0.01 0.09 10035
0.08 1.30 0.88 -1.10 9.96 -0.01 -0.02 0.09 10041
0.05 1.31 0.92 -1.08 9.95 0.00 -0.04 0.09 10047
0.04 1.32 0.94 -1.08 9.88 0.02 -0.06 0.10 10054
0.10 1.31 0.91 -1.09 9.89 0.03 -0.08 0.09 10060
0.10 1.31 0.92 -1.04 9.85 0.04 -0.10 0.11 10066
0.09 1.28 0.89 -1.07 9.87 0.04 -0.12 0.10 10073
0.13 1.26 0.90 -1.04 9.92 0.05 -0.13 0.11 10079
0.14 1.24 0.85 -1.03 9.91 0.05 -0.13 0.11 10086
0.15 1.24 0.77 -1.03 9.97 0.05 -0.14 0.12 10092
0.20 1.21 0.83 -1.06 9.89 0.05 -0.14 0.13 10098
0.24 1.18 0.79 -1.07 9.92 0.04 -0.13 0.12 10104
0.26 1.16 0.79 -1.07 9.88 0.03 -0.12 0.13 10110
0.28 1.12 0.81 -1.03 9.92 0.03 -0.11 0.15 10118
0.28 1.09 0.82 -1.05 9.86 0.03 -0.10 0.14 10124
0.30 1.07 0.81 -1.04 9.90 0.03 -0.10 0.13 10130
0.31 1.04 0.78 -1.05 9.89 0.03 -0.10 0.14 10136
0.35 1.01 0.79 -1.10 9.86 0.03 -0.11 0.13 10142
0.38 0.97 0.74 -1.08 9.86 0.03 -0.10 0.13 10149
0.40 0.92 0.77 -1.10 9.87 0.03 -0.10 0.12 10156
0.37 0.88 0.77 -1.07 9.84 0.02 -0.10 0.12 10162
0.40 0.86 0.76 -1.10 9.91 0.02 -0.10 0.12 10168
0.39 0.83 0.74 -1.09 9.83 0.02 -0.10 0.11 10174
0.37 0.81 0.78 -1.09 9.89 0.03 -0.09 0.11 10181
0.40 0.77 0.75 -1.10 9.84 0.03 -0.09 0.12 10187
0.39 0.72 0.70 -1.08 9.85 0.02 -0.08 0.11 10193
0.42 0.69 0.75 -1.10 9.86 0.03 -0.08 0.11 10200
0.44 0.67 0.76 -1.08 9.85 0.02 -0.08 0.11 10206
0.45 0.62 0.74 -1.11 9.84 0.02 -0.08 0.12 10213
0.44 0.62 0.74 -1.12 9.87 0.03 -0.07 0.11 10219
0.45 0.63 0.74 -1.14 9.90 0.02 -0.08 0.11 10225
0.45 0.61 0.76 -1.12 9.86 0.02 -0.08 0.11 10231
0.44 0.64 0.78 -1.11 9.85 0.02 -0.08 0.11 10237
0.48 0.59 0.77 -1.14 9.86 0.02 -0.08 0.11 10245
0.51 0.58 0.75 -1.13 9.81 0.02 -0.08 0.11 10251
0.51 0.58 0.72 -1.14 9.85 0.02 -0.09 0.10 10257
0.53 0.56 0.73 -1.08 9.86 0.02 -0.09 0.10 10263
0.53 0.57 0.77 -1.10 9.86 0.02 -0.09 0.10 10269
0.56 0.55 0.75 -1.15 9.86 0.02 -0.09 0.10 10276
0.60 0.53 0.70 -1.12 9.84 0.02 -0.09 0.10 10283
0.60 0.50 0.73 -1.13 9.85 0.02 -0.08 0.10 10289
0.65 0.49 0.71 -1.17 9.85 0.02 -0.08 0.09 10295
0.65 0.48 0.72 -1.14 9.90 0.02 -0.07 0.10 10301
0.66 0.48 0.68 -1.16 9.90 0.02 -0.07 0.10 10308
0.66 0.49 0.72 -1.14 9.90 0.03 -0.07 0.09 10314
0.71 0.44 0.69 -1.18 9.92 0.03 -0.06 0.09 10320
0.79 0.39 0.71 -1.16 9.86 0.03 -0.07 0.09 10327
0.85 0.37 0.69 -1.18 9.85 0.03 -0.03 0.09 10333
0.81 0.37 0.71 -1.20 9.84 0.03 -0.07 0.08 10340
0.85 0.31 0.72 -1.19 9.83 0.04 -0.07 0.08 10346
0.86 0.29 0.71 -1.19 9.87 0.04 -0.07 0.07 10352
0.92 0.21 0.69 -1.14 9.92 0.05 -0.07 0.07 10358
0.95 0.16 0.71 -1.15 9.91 0.05 -0.07 0.08 10364
1.03 0.12 0.71 -1.20 9.96 0.06 -0.07 0.08 10372
1.10 0.05 0.69 -1.19 9.97 0.07 -0.07 0.08 10378
1.07 0.04 0.71 -1.20 9.99 0.08 -0.08 0.07 10384
1.16 -0.03 0.78 -1.23 10.05 0.10 -0.09 0.07 10390
1.18 -0.04 0.76 -1.23 10.08 0.11 -0.11 0.05 10396
1.30 -0.04 0.81 -1.28 10.14 0.14 -0.13 0.03 10403
1.38 -0.06 0.83 -1.30 10.19 0.17 -0.16 0.01 10409
1.45 -0.04 0.84 -1.37 10.23 0.21 -0.20 -0.01 10416
1.49 -0.05 0.64 -1.46 10.48 0.25 -0.23 -0.04 10422
1.51 -0.05 0.86 -1.58 10.69 0.32 -0.29 -0.08 10429
1.61 -0.05 1.02 -2.03 10.88 0.41 -0.37 -0.11 10435
1.64 -0.07 0.98 -1.59 11.18 0.52 -0.46 -0.15 10441
1.70 -0.04 0.85 -1.82 11.67 0.69 -0.54 -0.16 10448
1.79 -0.05 0.90 -1.24 12.24 0.93 -0.63 -0.17 10455
1.85 -0.05 0.35 -2.06 12.31 1.16 -0.71 -0.17 10461
1.90 -0.05 0.52 -1.82 12.24 1.37 -0.68 -0.18 10467
1.91 -0.04 0.62 -2.09 12.44 1.54 -0.65 -0.18 10474
1.94 -0.04 0.58 -2.00 12.32 1.58 -0.58 -0.16 10480
1.96 -0.06 0.50 -2.33 11.83 1.60 -0.51 -0.17 10486
1.97 -0.04 0.57 -1.97 12.21 1.67 -0.41 -0.18 10493
1.97 -0.03 0.74 -1.94 12.61 1.81 -0.37 -0.20 10500
1.95 -0.06 0.77 -2.44 13.14 2.00 -0.39 -0.23 10506
1.96 -0.06 0.64 -2.45 13.47 2.27 -0.47 -0.26 10512
1.91 -0.04 0.48 -2.66 14.25 2.56 -0.53 -0.30 10519
1.94 -0.06 0.77 -2.74 14.22 2.86 -0.55 -0.32 10525
1.86 -0.07 0.73 -2.92 14.68 3.15 -0.54 -0.36 10531
1.78 -0.06 1.07 -3.83 15.15 3.46 -0.59 -0.42 10539
1.61 -0.05 1.53 -3.48 15.69 3.79 -0.60 -0.47 10545
1.47 -0.05 1.93 -3.75 16.41 4.11 -0.67 -0.58 10551
1.23 -0.04 2.18 -3.74 16.25 4.28 -0.79 -0.69 10557
1.02 -0.03 2.36 -3.71 16.02 4.28 -0.87 -0.80 10564
0.83 -0.02 1.62 -3.99 17.26 4.28 -0.96 -0.89 10570
0.70 -0.02 1.20 -5.45 18.23 4.28 -0.99 -0.93 10576
0.64 -0.03 1.22 -7.23 20.70 4.28 -0.94 -0.92 10583
0.54 -0.02 0.50 -8.97 22.77 4.28 -0.80 -0.89 10590
0.42 -0.02 0.09 -11.69 26.91 4.28 -0.65 -0.80 10596
0.36 -0.01 -0.75 -13.75 28.55 4.28 -0.56 -0.71 10602
0.28 0.00 -1.08 -13.41 26.55 4.28 -0.55 -0.61 10609
0.22 -0.01 -0.59 -10.57 25.32 4.28 -0.62 -0.59 10615
0.23 0.02 -0.66 -8.06 25.91 4.28 -0.66 -0.53 10621
0.17 -0.01 -0.23 -5.81 26.43 4.28 -0.79 -0.53 10629
0.09 0.02 1.12 -3.40 26.54 4.28 -0.98 -0.54 10635
0.10 0.03 3.08 -0.46 25.70 4.28 -1.22 -0.54 10641
0.09 0.02 5.02 2.42 24.83 4.28 -1.41 -0.56 10647
0.07 0.01 6.11 5.61 25.47 4.28 -1.51 -0.59 10654
0.05 -0.00 6.36 9.74 24.97 4.28 -1.27 -0.61 10660
0.04 0.01 5.15 13.46 23.01 4.28 -0.73 -0.66 10667
0.06 0.01 1.40 19.67 -24.30 4.28 -0.32 -0.97 10674
0.04 0.01 4.92 12.88 -6.49 4.28 -0.97 -1.36 10680
0.05 0.01 3.20 21.87 -2.38 2.74 -1.47 -1.64 10686
0.05 -0.01 5.52 20.87 22.51 0.50 -0.44 -1.67 10692
0.05 0.00 8.19 14.03 25.44 -0.77 0.74 -1.63 10699
0.05 0.00 3.90 10.38 18.08 -1.77 1.22 -1.55 10705
0.04 0.01 2.41 12.56 11.75 -2.67 1.37 -1.37 10712
0.06 -0.00 2.68 12.62 9.24 -3.31 1.34 -1.17 10719
0.05 0.00 2.50 9.60 8.36 -3.67 1.21 -1.02 10725
0.06 0.00 2.41 6.67 8.07 -3.83 1.15 -0.88 10731
0.05 -0.00 2.49 5.88 7.00 -3.89 1.14 -0.72 10737
0.04 0.00 2.47 5.75 6.58 -3.91 1.09 -0.57 10743
0.06 0.01 2.17 4.62 6.45 -3.91 1.01 -0.50 10750
0.05 -0.00 2.12 3.46 6.51 -3.91 0.96 -0.40 10757
0.04 0.00 2.09 2.94 6.82 -3.93 0.93 -0.28 10763
0.06 -0.00 2.01 2.91 7.51 -3.98 0.90 -0.18 10769
0.04 -0.00 2.05 2.71 8.30 -4.04 0.86 -0.10 10775
0.04 0.01 1.95 2.53 8.82 -4.11 0.83 -0.04 10781
0.05 0.01 1.93 2.15 9.38 -4.18 0.83 0.02 10788
0.05 0.00 2.00 1.72 10.08 -4.22 0.87 0.07 10795
0.04 0.01 1.88 0.94 10.53 -4.26 0.92 0.09 10801
0.05 0.00 1.92 0.13 11.12 -4.28 1.00 0.11 10807
0.05 -0.00 1.87 -0.52 11.63 -4.28 1.09 0.10 10814
0.05 0.00 1.83 -1.20 12.00 -4.28 1.20 0.09 10820
0.05 -0.00 1.82 -1.85 12.35 -4.28 1.36 0.07 10826
0.04 -0.00 1.66 -2.35 12.63 -4.28 1.51 0.04 10832
0.05 0.00 1.32 -2.96 13.04 -4.28 1.71 0.02 10839
0.05 -0.00 0.86 -3.57 13.58 -4.28 1.94 0.01 10846
0.05 -0.01 0.44 -4.20 14.57 -4.27 2.14 -0.01 10852
0.06 -0.01 -0.19 -4.77 15.39 -4.24 2.29 -0.03 10858
0.05 -0.01 -0.93 -5.30 16.11 -4.19 2.36 -0.06 10864
0.05 0.00 -1.55 -5.91 16.87 -4.13 2.36 -0.09 10871
0.05 0.00 -2.00 -6.32 17.74 -4.07 2.30 -0.12 10877
0.03 -0.00 -2.44 -6.65 17.27 -3.98 2.20 -0.14 10884
0.05 0.00 -2.52 -6.97 17.14 -3.88 2.07 -0.13 10890
0.05 -0.00 -2.50 -7.09 17.10 -3.76 1.94 -0.10 10896
0.04 0.00 -2.28 -7.13 17.54 -3.64 1.82 -0.04 10903
0.05 -0.01 -1.89 -7.05 18.12 -3.53 1.75 0.03 10909
0.05 -0.00 -1.61 -7.06 18.98 -3.44 1.70 0.12 10915
0.04 0.01 -1.40 -7.12 19.68 -3.39 1.67 0.23 10921
0.05 0.00 -1.22 -7.17 20.20 -3.37 1.63 0.34 10929
0.04 0.02 -1.06 -7.48 20.39 -3.38 1.55 0.46 10935
0.06 0.01 -0.89 -8.13 20.28 -3.38 1.45 0.57 10941
0.05 0.00 -0.66 -9.03 19.97 -3.33 1.34 0.68 10947
0.05 0.02 -0.46 -10.21 19.60 -3.23 1.21 0.79 10954
0.05 0.01 -0.26 -11.53 18.89 -3.07 1.10 0.90 10960
0.04 0.02 0.06 -12.79 18.15 -2.86 1.00 0.99 10967
0.05 0.02 0.28 -13.90 17.44 -2.62 0.93 1.08 10974
0.04 0.02 0.43 -14.78 16.67 -2.36 0.90 1.15 10980
0.06 0.01 0.38 -15.36 16.36 -2.11 0.90 1.22 10986
0.04 0.02 0.10 -15.89 16.21 -1.89 0.93 1.27 10993
0.06 0.01 -0.62 -16.20 16.39 -1.77 0.95 1.33 10999
0.05 0.00 -1.48 -16.50 16.35 -1.74 0.94 1.38 11005
0.06 0.01 -2.11 -16.68 15.33 -1.79 0.93 1.45 11013
0.04 0.01 -2.78 -16.80 14.20 -1.91 0.92 1.53 11019
0.05 0.03 -3.33 -17.02 11.90 -2.03 0.95 1.68 11025
0.05 0.01 -4.07 -17.25 9.70 -2.09 1.07 1.84 11031
0.04 0.02 -4.94 -18.77 8.38 -2.07 1.30 2.01 11038
0.05 0.01 -5.99 -21.27 7.28 -1.99 1.41 2.14 11044
0.04 0.01 -6.69 -22.78 5.72 -1.87 1.21 2.11 11051
0.05 0.01 -6.98 -24.64 4.45 -1.68 0.86 1.99 11057
0.04 -0.00 -6.93 -25.53 1.58 -1.41 0.54 1.86 11064
0.04 0.01 -6.66 -25.44 0.57 -1.06 0.35 1.60 11070
0.05 -0.00 -6.38 -25.07 0.46 -0.63 0.27 1.33 11076
0.03 -0.00 -5.90 -24.14 1.68 -0.16 0.19 0.95 11082
0.04 0.01 -5.30 -22.37 2.56 0.28 0.08 0.50 11089
0.04 -0.00 -4.49 -20.46 4.68 0.61 -0.09 0.04 11096
0.03 -0.00 -3.31 -18.63 7.10 0.79 -0.25 -0.39 11102
0.06 -0.01 -17.33 -32.92 59.31 2.71 -1.16 -0.40 11108
0.03 -0.00 -9.79 -16.76 -2.96 2.50 -1.50 -0.32 11115
0.04 0.02 -2.06 -8.42 1.13 2.61 -2.57 -0.37 11121
0.03 0.01 3.34 2.76 9.51 2.66 -2.84 -0.37 11127
0.01 0.51 6.56 7.79 12.34 2.69 -1.71 0.00 11133
0.02 0.67 7.16 4.28 12.70 2.74 -0.65 0.51 11141
-0.01 0.71 3.74 -0.26 9.88 2.77 -0.06 0.81 11147
0.01 0.75 -0.37 -4.16 13.63 2.98 -0.07 0.90 11153
-0.00 0.78 -3.52 -4.67 14.19 3.19 -0.25 0.80 11159
-0.01 0.81 -4.62 -3.67 13.64 3.36 -0.57 0.58 11166
0.01 0.90 -4.46 -3.49 17.07 3.43 -0.51 0.35 11172
-0.00 0.94 -5.57 -4.39 22.35 3.53 -0.15 0.05 11179
-0.01 1.04 -3.82 -3.33 21.36 3.54 0.44 -0.38 11185
-0.01 1.08 1.42 -3.33 21.28 3.54 1.04 -0.70 11192
0.01 1.12 8.50 -6.02 45.20 2.06 0.09 -0.63 11198
0.01 1.15 3.24 -3.34 10.33 0.13 -0.46 0.01 11204
-0.01 1.15 0.52 -2.19 10.02 0.11 -0.50 0.16 11210
0.03 1.19 0.03 -2.31 10.58 0.10 -0.35 0.08 11217
0.04 1.19 0.88 -1.33 10.72 0.01 -0.12 0.07 11224
0.04 1.22 0.72 -1.74 9.97 -0.00 -0.04 0.08 11230
0.07 1.23 0.98 -1.16 10.04 0.01 -0.04 0.09 11236
0.11 1.25 0.88 -1.22 10.07 0.01 -0.03 0.11 11243
0.14 1.28 0.80 -1.25 10.03 0.02 -0.03 0.11 11249
0.13 1.30 0.95 -1.20 9.93 0.02 -0.01 0.12 11255
0.12 1.31 0.90 -1.13 9.95 0.01 -0.01 0.12 11261
0.14 1.31 0.93 -1.12 9.85 0.01 -0.02 0.11 11269
0.14 1.32 0.91 -1.10 9.86 0.01 -0.03 0.12 11275
0.13 1.31 0.87 -1.07 9.82 0.02 -0.03 0.12 11281
0.15 1.29 0.91 -1.03 9.81 0.02 -0.04 0.13 11287
0.14 1.26 0.90 -1.05 9.81 0.04 -0.05 0.12 11293
0.16 1.23 0.87 -1.07 9.80 0.04 -0.04 0.13 11300
0.19 1.19 0.80 -1.00 9.86 0.05 -0.04 0.14 11307
0.19 1.13 0.80 -1.06 9.96 0.05 -0.05 0.15 11313
0.22 1.11 0.79 -1.06 9.94 0.04 -0.04 0.14 11319
0.23 1.06 0.87 -1.04 9.93 0.04 -0.05 0.16 11325
0.25 1.00 0.83 -1.06 9.88 0.04 -0.05 0.16 11332
0.27 0.97 0.80 -1.07 9.89 0.04 -0.05 0.16 11338
0.30 0.89 0.79 -1.10 9.84 0.04 -0.04 0.15 11344
0.30 0.85 0.82 -1.06 9.87 0.04 -0.04 0.16 11351
0.31 0.83 0.78 -1.06 9.85 0.03 -0.03 0.17 11357
0.33 0.74 0.80 -1.07 9.92 0.03 -0.02 0.17 11364
0.34 0.69 0.77 -1.07 9.83 0.03 -0.01 0.17 11370
0.32 0.67 0.80 -1.05 9.87 0.02 0.03 0.17 11376
0.31 0.63 0.83 -1.08 9.83 0.02 0.01 0.15 11382
0.31 0.61 0.89 -1.12 9.83 0.03 0.01 0.16 11388
0.32 0.59 0.86 -1.08 9.81 0.02 0.00 0.16 11395
0.32 0.53 0.87 -1.09 9.82 0.03 0.00 0.15 11402
0.32 0.52 0.88 -1.07 9.82 0.03 -0.00 0.15 11408
0.34 0.51 0.87 -1.08 9.84 0.03 -0.01 0.14 11414
0.35 0.47 0.86 -1.08 9.81 0.03 -0.01 0.14 11420
0.36 0.46 0.85 -1.09 9.84 0.04 -0.01 0.15 11426
0.39 0.41 0.85 -1.12 9.83 0.03 -0.00 0.14 11433
0.37 0.34 0.79 -1.12 9.84 0.03 0.00 0.14 11440
0.37 0.30 0.85 -1.13 9.87 0.03 0.00 0.14 11446
0.40 0.22 0.87 -1.16 9.89 0.04 0.01 0.14 11452
0.40 0.20 0.88 -1.13 9.84 0.04 0.01 0.15 11458
0.40 0.15 0.92 -1.16 9.84 0.04 0.01 0.14 11465
0.44 0.13 0.92 -1.15 9.85 0.04 0.01 0.13 11471
0.45 0.08 0.94 -1.19 9.90 0.04 0.00 0.13 11478
0.45 0.03 0.96 -1.18 9.81 0.04 -0.00 0.13 11484
0.45 0.02 0.91 -1.20 9.83 0.04 -0.01 0.13 11490
0.41 -0.01 0.94 -1.16 9.82 0.04 -0.01 0.11 11497
0.41 -0.01 0.93 -1.19 9.83 0.04 -0.01 0.11 11503
0.44 -0.01 0.98 -1.20 9.85 0.04 -0.01 0.11 11509
0.43 -0.01 0.91 -1.21 9.86 0.04 -0.01 0.11 11515
0.42 -0.01 0.94 -1.16 9.86 0.04 -0.01 0.10 11522
0.44 -0.02 0.90 -1.26 9.84 0.04 -0.01 0.10 11529
0.42 -0.02 0.95 -1.25 9.84 0.04 -0.01 0.10 11535
0.42 -0.01 0.94 -1.24 9.82 0.03 -0.01 0.10 11541
0.44 -0.01 0.92 -1.24 9.88 0.03 -0.02 0.09 11547
0.44 -0.02 0.91 -1.26 9.84 0.03 -0.02 0.10 11553
0.43 0.01 0.95 -1.27 9.79 0.02 -0.02 0.10 11559
0.45 -0.00 0.94 -1.26 9.82 0.02 -0.02 0.10 11567
0.43 -0.01 0.95 -1.24 9.86 0.01 -0.02 0.10 11573
0.44 -0.00 0.96 -1.26 10.40 0.02 -0.03 0.09 11579
0.45 -0.02 0.97 -1.24 9.82 0.02 -0.03 0.09 11585
0.45 -0.01 1.02 -1.24 9.83 0.02 -0.05 0.09 11591
0.47 0.00 0.99 -1.23 9.85 0.03 -0.07 0.08 11598
0.49 -0.01 1.06 -1.25 9.87 0.05 -0.08 0.07 11604
0.48 -0.01 1.00 -1.30 9.86 0.06 -0.09 0.07 11611
0.54 -0.02 1.00 -1.24 9.92 0.07 -0.09 0.06 11617
0.54 -0.02 0.96 -1.33 9.97 0.09 -0.10 0.06 11623
0.63 -0.02 0.97 -1.29 9.98 0.11 -0.10 0.05 11630
0.69 -0.02 1.04 -1.34 10.11 0.14 -0.11 0.03 11636
0.73 -0.02 1.01 -1.38 10.18 0.19 -0.13 0.02 11642
0.74 -0.02 1.06 -1.40 10.17 0.25 -0.15 -0.00 11649
0.80 -0.03 1.10 -1.64 10.35 0.33 -0.18 -0.03 11656
0.83 -0.02 1.13 -1.52 10.59 0.44 -0.21 -0.06 11662
0.89 -0.04 1.78 -1.64 10.87 0.59 -0.25 -0.09 11668
0.95 -0.03 1.19 -1.70 11.50 0.77 -0.24 -0.11 11675
0.99 -0.02 1.20 -1.62 11.72 0.94 -0.29 -0.14 11681
1.08 -0.03 0.45 -1.31 10.72 1.06 -0.27 -0.17 11687
1.12 -0.03 1.09 -2.00 12.15 1.20 -0.28 -0.19 11694
1.16 -0.03 1.03 -2.16 11.92 1.33 -0.29 -0.20 11701
1.26 -0.05 0.87 -2.19 12.02 1.46 -0.30 -0.20 11707
1.29 -0.03 0.89 -2.01 12.09 1.58 -0.30 -0.20 11713
1.28 -0.05 0.72 -2.15 12.33 1.68 -0.29 -0.19 11719
1.29 -0.03 0.92 -2.29 12.54 1.80 -0.28 -0.18 11726
1.32 -0.04 0.73 -2.41 12.57 1.90 -0.31 -0.16 11732
1.34 -0.03 0.81 -2.55 13.31 2.12 -0.27 -0.16 11739
1.34 -0.03 0.87 -2.72 13.86 2.42 -0.21 -0.16 11746
1.33 -0.05 1.08 -2.93 14.03 2.73 -0.17 -0.17 11752
1.28 -0.05 1.08 -2.90 13.83 3.02 -0.13 -0.19 11758
1.23 -0.06 1.25 -2.99 13.60 3.31 -0.11 -0.22 11764
1.13 -0.03 1.55 -3.56 14.04 3.59 -0.08 -0.26 11771
1.07 -0.03 1.68 -3.53 14.42 3.90 -0.08 -0.33 11778
0.87 -0.03 1.70 -3.85 15.64 4.17 -0.08 -0.38 11784
0.75 -0.04 1.74 -4.38 16.60 4.28 -0.13 -0.46 11790
0.66 -0.03 2.84 -4.22 17.58 4.28 -0.23 -0.55 11797
0.52 -0.02 2.85 -5.60 18.47 4.28 -0.30 -0.64 11803
0.43 -0.03 2.52 -6.69 19.55 4.28 -0.40 -0.73 11809
0.39 -0.01 2.52 -8.86 23.56 4.28 -0.43 -0.75 11816
0.33 -0.01 2.85 -11.53 25.89 4.28 -0.39 -0.70 11823
0.27 -0.00 2.63 -13.40 28.10 4.28 -0.20 -0.63 11829
0.22 -0.01 3.22 -13.46 26.99 4.28 -0.02 -0.59 11836
0.20 0.02 2.92 -12.09 24.63 4.28 0.09 -0.59 11842
0.19 0.00 3.00 -11.04 24.28 4.28 0.29 -0.53 11848
0.14 -0.01 2.62 -8.96 26.18 4.28 0.58 -0.46 11854
0.09 0.02 3.20 -7.16 28.82 4.28 0.72 -0.49 11862
0.08 0.01 3.48 -3.86 30.33 4.28 0.71 -0.60 11868
0.06 0.02 4.51 -1.00 30.82 4.28 0.56 -0.72 11874
0.06 -0.01 4.87 4.31 30.27 4.28 0.40 -0.84 11880
0.05 -0.00 4.28 9.98 29.07 4.28 0.53 -0.90 11887
0.05 0.01 4.78 10.82 27.01 4.28 1.20 -0.95 11893
0.05 -0.00 10.98 6.33 8.42 4.28 1.65 -1.26 11899
0.05 0.00 2.56 16.31 -9.46 4.28 0.53 -1.83 11906
0.04 -0.00 1.08 25.78 -4.53 3.06 -1.08 -2.26 11913
0.06 -0.01 5.05 24.49 21.70 0.61 -0.37 -2.04 11919
0.06 -0.01 7.41 15.41 28.14 -0.73 0.33 -1.69 11925
0.07 -0.01 3.84 9.64 20.17 -1.73 0.40 -1.48 11931
0.06 -0.01 1.99 10.43 13.83 -2.68 0.07 -1.30 11938
0.07 -0.01 1.48 13.15 10.57 -3.40 -0.19 -1.11 11944
0.05 -0.00 2.11 11.72 8.93 -3.77 -0.33 -0.99 11951
0.06 0.00 2.58 8.07 8.01 -3.96 -0.36 -0.95 11957
0.05 -0.01 2.95 6.34 8.04 -4.05 -0.37 -0.94 11963
0.05 -0.00 3.01 6.08 8.13 -4.08 -0.28 -0.91 11970
0.06 -0.00 3.15 4.91 7.51 -4.11 -0.16 -0.88 11976
0.06 -0.01 3.19 3.99 7.02 -4.15 -0.04 -0.84 11982
0.06 -0.01 3.04 3.82 6.90 -4.19 0.06 -0.80 11988
0.06 -0.01 2.92 3.53 7.14 -4.21 0.15 -0.76 11995
0.08 -0.01 2.75 2.95 7.56 -4.23 0.20 -0.71 12001
0.06 -0.01 2.45 2.17 8.15 -4.23 0.21 -0.66 12008
0.04 -0.00 2.55 1.55 8.60 -4.24 0.23 -0.60 12014
0.05 -0.01 2.71 1.05 9.22 -4.25 0.26 -0.54 12020
0.04 -0.00 2.74 0.54 9.98 -4.25 0.32 -0.49 12026
0.03 -0.00 2.78 0.12 10.88 -4.26 0.41 -0.44 12033
0.04 0.00 2.95 -0.07 12.21 -4.28 0.54 -0.39 12039
0.04 -0.00 3.09 -0.51 12.81 -4.28 0.71 -0.34 12046
0.04 -0.00 3.02 -0.90 12.78 -4.28 0.90 -0.30 12052
0.05 -0.01 2.89 -1.53 13.32 -4.28 1.11 -0.27 12058
0.04 -0.00 2.64 -2.14 13.68 -4.28 1.33 -0.24 12064
0.04 -0.00 2.39 -3.02 14.06 -4.28 1.53 -0.21 12070
0.05 -0.00 2.00 -3.89 14.54 -4.28 1.68 -0.19 12078
0.04 -0.00 1.43 -4.65 15.07 -4.28 1.78 -0.17 12084
0.05 -0.00 0.95 -5.28 15.37 -4.28 1.81 -0.16 12090
0.05 -0.00 0.67 -5.60 15.71 -4.27 1.82 -0.13 12096
0.04 -0.00 0.34 -5.74 15.99 -4.23 1.82 -0.10 12103
0.05 0.00 0.07 -5.76 16.13 -4.18 1.80 -0.05 12109
0.04 0.00 -0.03 -5.81 16.33 -4.10 1.75 0.01 12115
0.04 -0.00 -0.12 -6.05 16.50 -3.99 1.67 0.06 12122
0.05 -0.01 -0.23 -6.23 16.68 -3.84 1.65 0.13 12128
0.05 -0.00 -0.28 -6.28 16.90 -3.66 1.62 0.20 12135
0.04 -0.00 -0.30 -6.39 17.30 -3.47 1.56 0.25 12141
0.06 0.00 -0.40 -6.49 17.58 -3.28 1.49 0.31 12147
0.05 -0.00 -0.49 -6.84 18.03 -3.09 1.41 0.38 12153
0.04 0.01 -0.51 -7.49 18.56 -2.92 1.31 0.46 12160
0.05 0.01 -0.43 -8.38 19.57 -2.75 1.19 0.55 12167
0.04 0.02 -0.30 -9.45 19.51 -2.60 1.04 0.64 12173
0.06 0.01 -0.15 -10.54 19.89 -2.46 0.88 0.74 12179
0.05 0.00 -0.01 -11.55 20.71 -2.35 0.71 0.85 12186
0.04 0.02 0.11 -12.42 20.24 -2.27 0.55 0.97 12192
0.04 0.02 0.24 -12.99 20.36 -2.21 0.40 1.08 12198
0.04 0.02 0.31 -13.35 20.63 -2.20 0.28 1.18 12206
0.04 0.01 0.33 -13.92 20.78 -2.24 0.18 1.25 12212
0.04 0.02 0.57 -14.69 20.82 -2.33 0.13 1.29 12218
0.05 0.00 0.92 -15.64 20.34 -2.46 0.13 1.32 12224
0.04 0.01 1.24 -16.39 19.25 -2.61 0.18 1.33 12231
0.06 0.01 1.55 -16.82 16.79 -2.75 0.37 1.36 12237
0.05 0.00 1.23 -17.18 14.25 -2.85 0.71 1.44 12243
0.06 -0.00 0.57 -17.91 11.50 -2.90 1.32 1.63 12251
0.05 -0.00 -0.97 -18.38 10.08 -2.87 2.06 1.90 12257
0.05 0.01 -2.72 -19.96 9.81 -2.79 2.68 2.19 12263
0.05 -0.00 -4.58 -21.85 9.61 -2.69 2.82 2.36 12269
0.04 -0.00 -6.18 -23.91 8.29 -2.57 2.53 2.42 12276
0.05 -0.01 -8.09 -25.82 5.06 -2.42 2.00 2.42 12282
0.05 -0.00 -8.71 -26.83 2.84 -2.20 1.56 2.39 12289
0.05 -0.01 -8.80 -27.86 0.90 -1.85 1.12 2.30 12295
0.05 -0.01 -8.62 -28.77 -0.80 -1.38 0.74 2.13 12302
0.05 -0.00 -8.54 -27.65 -0.56 -0.79 0.35 1.87 12308
0.05 -0.00 -8.14 -25.96 0.74 -0.19 -0.03 1.47 12314
0.05 -0.00 -7.64 -23.35 2.87 0.32 -0.40 1.10 12320
0.04 -0.00 -6.74 -20.67 4.60 0.68 -0.71 0.65 12326
0.06 -0.01 -3.31 -41.07 32.26 2.01 -1.30 0.24 12334
0.05 -0.00 -7.64 -21.82 -7.10 2.84 -1.00 -0.12 12340
0.06 -0.01 -6.44 -11.58 -2.59 3.06 -1.55 -0.45 12346
0.05 0.02 -2.51 2.41 7.22 3.08 -2.36 -0.72 12352
0.02 0.52 -0.36 5.38 14.19 3.18 -2.11 -0.76 12359
0.02 0.66 4.32 3.80 17.19 3.17 -1.55 -0.60 12365
0.01 0.73 4.22 -0.40 13.18 3.02 -0.87 -0.42 12371
-0.01 0.73 2.55 -3.60 16.75 2.97 -0.56 -0.25 12378
-0.01 0.83 0.48 -4.15 15.79 2.94 -0.37 -0.15 12385
-0.01 0.86 0.76 -4.04 15.26 3.06 -0.35 -0.12 12391
0.01 0.93 0.50 -2.91 16.61 3.18 -0.23 -0.13 12397
0.00 0.94 -0.92 -2.48 18.73 3.18 -0.21 -0.19 12404
-0.01 1.03 -0.31 -3.16 20.99 3.05 -0.17 -0.31 12410
-0.02 1.09 1.58 -2.84 18.48 2.90 0.20 -0.36 12417
-0.01 1.12 1.77 -2.42 17.01 2.81 0.59 -0.36 12423
-0.02 1.20 1.94 -2.46 17.92 2.74 0.85 -0.40 12430
-0.02 1.20 3.82 -2.57 20.36 2.52 0.86 -0.41 12436
-0.00 1.22 3.63 -2.68 15.44 0.67 -0.48 -0.09 12442
-0.02 1.21 1.51 -2.60 12.01 0.22 -0.42 0.11 12448
-0.02 1.26 0.24 -0.84 10.38 0.16 -0.35 0.11 12455
-0.02 1.23 0.75 -0.78 10.22 0.12 -0.23 0.08 12462
0.01 1.24 1.01 -0.27 10.33 0.01 -0.05 0.07 12468
0.02 1.26 0.19 -0.54 10.04 -0.01 -0.02 0.10 12474
0.02 1.26 1.09 -1.20 10.01 0.01 -0.01 0.12 12481
0.04 1.26 0.91 -1.08 9.93 0.01 0.01 0.12 12487
0.03 1.28 0.93 -1.03 9.88 0.01 0.01 0.11 12493
0.02 1.30 1.13 -1.09 10.12 0.02 -0.00 0.11 12499
0.04 1.31 0.95 -1.07 9.99 0.02 -0.02 0.11 12507
0.05 1.30 1.07 -1.01 9.96 0.02 -0.03 0.12 12513
0.05 1.29 0.97 -1.02 9.88 0.02 -0.04 0.11 12519
0.06 1.29 0.95 -0.97 9.88 0.02 -0.05 0.12 12525
0.06 1.28 0.93 -0.95 9.84 0.03 -0.05 0.13 12531
0.08 1.24 0.80 -0.99 9.85 0.03 -0.05 0.13 12537
0.10 1.23 0.88 -0.92 9.90 0.04 -0.06 0.13 12545
0.10 1.19 0.89 -0.94 9.91 0.04 -0.06 0.12 12551
0.10 1.13 0.87 -0.94 9.89 0.04 -0.05 0.13 12557
0.13 1.11 0.89 -0.92 9.88 0.04 -0.05 0.13 12563
0.12 1.09 0.85 -0.97 9.92 0.04 -0.05 0.14 12569
0.12 1.06 0.80 -0.96 9.89 0.03 -0.03 0.15 12576
0.16 1.03 0.84 -0.92 9.88 0.03 -0.02 0.15 12582
0.15 0.99 0.83 -0.93 9.89 0.02 -0.01 0.15 12589
0.16 0.93 0.85 -0.90 9.88 0.02 0.00 0.15 12595
0.19 0.89 0.88 -0.94 9.83 0.01 0.00 0.15 12601
0.18 0.86 0.90 -0.94 9.88 0.02 0.00 0.14 12608
0.18 0.84 0.90 -0.92 9.83 0.02 -0.00 0.15 12614
0.20 0.77 0.92 -0.93 9.85 0.02 -0.01 0.13 12620
0.19 0.73 0.87 -0.96 9.83 0.02 -0.02 0.14 12626
0.19 0.69 0.93 -0.94 9.84 0.03 -0.03 0.13 12633
0.19 0.62 0.96 -0.96 9.84 0.02 -0.03 0.17 12640
0.18 0.63 0.91 -0.95 9.83 0.03 -0.04 0.13 12646
0.18 0.61 0.89 -0.96 9.85 0.03 -0.04 0.14 12652
0.19 0.59 0.89 -0.95 9.86 0.03 -0.05 0.13 12658
0.19 0.55 0.85 -0.99 9.83 0.03 -0.05 0.13 12664
0.19 0.55 0.89 -0.97 9.87 0.03 -0.05 0.13 12672
0.21 0.53 0.88 -0.95 9.86 0.02 -0.06 0.13 12678
0.21 0.50 0.91 -0.97 9.82 0.03 -0.07 0.14 12684
0.22 0.49 0.88 -0.97 9.81 0.03 -0.06 0.13 12690
0.24 0.47 0.88 -0.97 9.82 0.03 -0.07 0.13 12696
0.22 0.42 0.89 -1.00 9.82 0.02 -0.07 0.13 12703
0.25 0.45 0.88 -0.98 9.83 0.03 -0.07 0.12 12709
0.24 0.42 0.84 -0.98 9.85 0.03 -0.08 0.12 12716
0.27 0.41 0.87 -1.02 9.86 0.03 -0.08 0.13 12722
0.25 0.42 0.86 -1.00 9.84 0.03 -0.08 0.10 12728
0.26 0.37 0.89 -0.98 9.84 0.03 -0.08 0.13 12734
0.28 0.36 0.85 -1.00 9.87 0.03 -0.08 0.14 12741
0.29 0.34 0.83 -1.01 9.86 0.03 -0.09 0.13 12747
0.31 0.30 0.86 -0.98 9.90 0.03 -0.09 0.12 12753
0.30 0.28 0.81 -1.00 9.85 0.03 -0.09 0.13 12760
0.33 0.24 0.80 -1.01 9.90 0.02 -0.09 0.13 12766
0.35 0.20 0.80 -1.00 9.83 0.03 -0.09 0.14 12773
0.37 0.21 0.83 -1.02 9.88 0.02 -0.09 0.13 12779
0.40 0.17 0.82 -1.00 9.84 0.03 -0.08 0.14 12785
0.41 0.16 0.82 -0.98 9.87 0.03 -0.08 0.14 12791
0.42 0.17 0.82 -1.03 9.87 0.03 -0.08 0.14 12797
0.44 0.15 0.83 -1.05 9.85 0.03 -0.08 0.14 12805
0.43 0.12 0.81 -1.03 9.86 0.03 -0.08 0.13 12811
0.45 0.11 0.80 -1.06 9.85 0.03 -0.08 0.14 12817
0.49 0.10 0.80 -1.05 9.83 0.03 -0.08 0.13 12823
0.54 0.08 0.81 -1.03 9.83 0.03 -0.09 0.14 12829
0.54 0.07 0.86 -1.03 9.83 0.04 -0.09 0.13 12836
0.57 0.03 0.87 -1.10 9.83 0.04 -0.09 0.12 12843
0.58 0.01 0.82 -1.01 9.89 0.04 -0.08 0.12 12849
0.65 -0.00 0.81 -1.07 9.90 0.05 -0.08 0.12 12855
0.67 -0.01 0.81 -1.08 9.90 0.06 -0.07 0.12 12861
0.71 -0.03 0.80 -1.05 9.95 0.07 -0.07 0.11 12868
0.74 -0.04 0.82 -1.08 9.94 0.07 -0.06 0.12 12874
0.78 -0.03 0.85 -1.06 10.11 0.09 -0.06 0.10 12880
0.83 -0.03 0.88 -1.15 10.03 0.10 -0.06 0.09 12887
0.84 -0.03 0.85 -1.19 10.09 0.13 -0.07 0.09 12893
0.86 -0.03 0.92 -1.20 10.07 0.17 -0.09 0.06 12900
0.96 -0.03 0.91 -1.25 10.15 0.21 -0.12 0.03 12906
1.01 -0.04 1.00 -1.29 10.32 0.28 -0.16 0.00 12912
1.05 -0.05 1.08 -1.41 10.49 0.38 -0.21 -0.03 12918
1.09 -0.03 1.08 -1.57 10.91 0.54 -0.30 -0.06 12925
1.18 -0.04 1.15 -1.61 11.18 0.74 -0.39 -0.09 12932
1.24 -0.04 0.88 -1.63 11.98 0.94 -0.41 -0.11 12938
1.32 -0.04 1.06 -1.87 12.30 1.11 -0.37 -0.13 12945
1.34 -0.04 0.99 -1.51 12.18 1.26 -0.32 -0.14 12951
1.42 -0.04 0.93 -1.68 11.92 1.39 -0.27 -0.15 12957
1.42 -0.06 0.78 -1.60 12.29 1.52 -0.27 -0.16 12963
1.47 -0.04 0.91 -1.94 12.14 1.63 -0.25 -0.16 12971
1.47 -0.04 0.79 -1.98 12.55 1.74 -0.26 -0.17 12977
1.51 -0.04 0.97 -2.10 12.46 1.83 -0.29 -0.17 12983
1.54 -0.03 1.03 -2.35 12.48 1.91 -0.33 -0.19 12990
1.58 -0.04 1.14 -2.39 13.03 2.06 -0.31 -0.21 12996
1.59 -0.03 0.83 -2.60 14.02 2.34 -0.34 -0.23 13002
1.60 -0.05 1.08 -2.47 13.62 2.68 -0.36 -0.26 13008
1.58 -0.03 1.37 -2.83 13.95 2.99 -0.39 -0.30 13016
1.49 -0.04 1.37 -3.19 13.75 3.25 -0.42 -0.36 13022
1.39 -0.03 1.28 -3.12 14.07 3.49 -0.43 -0.42 13028
1.30 -0.03 0.89 -3.54 15.18 3.77 -0.43 -0.46 13035
1.20 -0.04 1.32 -3.77 15.80 4.08 -0.49 -0.50 13041
1.04 -0.02 2.23 -3.97 16.19 4.26 -0.57 -0.56 13047
0.88 -0.05 2.33 -4.72 16.87 4.28 -0.68 -0.67 13053
0.72 -0.01 2.00 -8.75 18.26 4.28 -0.77 -0.79 13061
0.63 -0.03 2.35 -5.69 18.36 4.28 -0.88 -0.86 13067
0.50 -0.01 2.17 -7.33 20.79 4.28 -0.97 -0.90 13073
0.45 -0.02 2.21 -9.38 23.43 4.28 -0.93 -0.90 13079
0.37 -0.01 2.32 -12.22 25.38 4.28 -0.77 -0.85 13086
0.30 -0.00 2.09 -13.77 26.36 4.28 -0.58 -0.80 13092
0.30 -0.01 1.47 -12.66 25.29 4.28 -0.47 -0.79 13099
0.23 0.00 0.51 -10.97 23.35 4.28 -0.49 -0.77 13106
0.20 -0.01 0.00 -8.75 24.84 4.28 -0.46 -0.68 13112
0.15 0.01 1.13 -7.32 26.90 4.28 -0.42 -0.61 13118
0.10 -0.00 2.15 -5.35 27.33 4.28 -0.49 -0.62 13125
0.06 0.00 3.97 -1.85 26.81 4.28 -0.64 -0.66 13131
0.07 -0.00 4.92 0.95 26.31 4.28 -0.79 -0.67 13137
0.06 0.00 5.81 5.56 26.42 4.28 -0.84 -0.70 13144
0.06 0.01 5.85 9.92 23.96 4.28 -0.59 -0.73 13151
0.05 0.00 4.66 12.22 20.55 4.28 0.04 -0.84 13157
0.05 0.01 7.87 11.88 6.59 4.28 0.39 -1.27 13163
0.05 0.00 5.54 9.93 1.76 4.28 -0.30 -1.69 13169
0.04 0.03 5.70 15.40 -1.90 2.94 -0.68 -1.90 13176
0.05 0.03 5.83 24.20 18.04 0.92 -0.07 -1.86 13182
0.04 0.02 7.58 16.32 24.95 -0.39 0.70 -1.62 13189
0.05 0.03 4.92 10.46 20.51 -1.45 0.91 -1.41 13195
0.05 0.02 2.99 10.67 15.31 -2.38 0.76 -1.15 13202
0.05 0.03 2.13 12.07 12.03 -3.01 0.52 -0.87 13208
0.06 0.02 2.46 10.37 9.76 -3.39 0.26 -0.68 13214
0.04 0.02 2.74 7.78 8.58 -3.59 0.03 -0.57 13221
0.05 0.03 2.84 6.38 7.69 -3.67 -0.07 -0.46 13228
0.05 0.03 3.08 5.82 6.89 -3.69 -0.09 -0.35 13234
0.04 0.03 3.33 5.22 6.35 -3.64 -0.05 -0.28 13240
0.07 0.03 3.43 4.48 6.08 -3.65 0.05 -0.24 13246
0.06 0.02 3.37 3.76 6.30 -3.64 0.18 -0.20 13253
0.05 0.03 3.30 3.44 6.97 -3.67 0.35 -0.16 13259
0.06 0.03 3.19 3.23 7.87 -3.73 0.49 -0.12 13265
0.05 0.03 2.89 3.25 8.67 -3.82 0.58 -0.10 13272
0.05 0.04 2.57 3.17 9.42 -3.95 0.67 -0.07 13278
0.05 0.04 2.17 2.78 10.27 -4.09 0.74 -0.05 13285
0.04 0.03 2.06 2.11 10.93 -4.21 0.82 -0.02 13291
0.06 0.03 1.98 1.39 11.59 -4.27 0.88 -0.00 13297
0.05 0.02 1.90 0.53 12.17 -4.28 0.94 0.00 13303
0.04 0.03 1.88 -0.28 12.67 -4.28 1.03 -0.01 13310
0.06 0.03 1.81 -1.10 13.48 -4.28 1.13 -0.02 13317
0.04 0.03 1.83 -1.86 13.03 -4.28 1.26 -0.04 13323
0.05 0.03 1.81 -2.61 13.26 -4.28 1.40 -0.07 13329
0.05 0.03 1.46 -3.37 12.92 -4.28 1.55 -0.09 13336
0.05 0.03 1.33 -4.23 13.01 -4.28 1.68 -0.12 13342
0.06 0.03 1.13 -4.99 14.08 -4.28 1.80 -0.14 13348
0.04 0.02 0.78 -5.63 14.54 -4.28 1.87 -0.17 13355
0.06 0.01 0.57 -6.43 15.06 -4.28 1.91 -0.19 13362
0.05 -0.01 0.40 -6.87 15.55 -4.25 1.90 -0.22 13368
0.05 -0.01 0.37 -6.82 15.85 -4.19 1.87 -0.22 13374
0.06 -0.01 0.37 -6.77 16.34 -4.10 1.83 -0.20 13380
0.05 -0.01 0.31 -6.78 16.87 -4.01 1.81 -0.14 13387
0.05 -0.01 0.20 -6.83 17.47 -3.88 1.80 -0.05 13393
0.05 -0.00 0.20 -6.96 18.11 -3.75 1.82 0.07 13400
0.04 -0.00 0.15 -6.96 18.91 -3.62 1.83 0.21 13406
0.06 0.00 0.06 -7.07 19.81 -3.56 1.86 0.36 13412
0.06 -0.00 -0.21 -7.51 20.78 -3.50 1.87 0.53 13419
0.05 0.00 -0.38 -8.21 21.66 -3.46 1.83 0.69 13425
0.06 -0.01 -0.71 -9.13 21.97 -3.45 1.74 0.83 13431
0.05 -0.01 -0.93 -10.36 22.04 -3.43 1.57 0.95 13437
0.05 -0.00 -0.90 -11.59 21.52 -3.41 1.37 1.06 13445
0.05 -0.01 -0.62 -12.61 20.81 -3.36 1.14 1.13 13451
0.05 -0.01 -0.32 -13.52 19.92 -3.28 0.94 1.17 13457
0.06 -0.01 0.01 -14.21 19.31 -3.16 0.79 1.19 13464
0.04 -0.00 0.08 -14.68 18.64 -3.00 0.71 1.18 13470
0.06 -0.01 0.25 -15.21 17.95 -2.81 0.70 1.17 13476
0.05 -0.01 0.29 -15.87 17.26 -2.62 0.69 1.15 13483
0.06 0.00 0.09 -16.60 16.74 -2.43 0.69 1.13 13490
0.05 -0.01 -0.01 -17.05 16.08 -2.29 0.71 1.12 13496
0.06 -0.01 -0.07 -17.33 14.92 -2.18 0.82 1.15 13502
0.05 -0.01 -0.35 -17.75 13.80 -2.12 1.06 1.23 13508
0.04 -0.00 -0.96 -18.00 12.46 -2.11 1.49 1.37 13515
0.05 -0.00 -2.27 -18.27 11.63 -2.14 2.07 1.57 13521
0.05 -0.00 -3.82 -19.82 11.30 -2.20 2.55 1.76 13528
0.05 0.00 -5.63 -22.23 10.25 -2.26 2.61 1.88 13535
0.05 0.00 -7.48 -24.82 8.33 -2.26 2.27 1.92 13541
0.04 0.01 -8.47 -26.58 5.19 -2.07 1.77 1.92 13547
0.05 0.01 -8.43 -27.56 2.04 -1.77 1.25 1.90 13553
0.04 0.01 -8.69 -27.49 0.21 -1.29 0.76 1.81 13560
0.05 0.02 -8.48 -26.67 -0.60 -0.71 0.27 1.62 13566
0.05 0.01 -10.85 -37.08 10.32 0.56 -0.68 1.33 13573
0.06 0.02 -9.01 -25.09 -3.51 1.85 -1.21 0.93 13579
0.05 0.00 -8.52 -27.70 -4.16 2.32 -1.78 0.56 13586
0.05 0.00 -6.62 -30.15 5.20 2.94 -2.67 0.27 13592
0.06 -0.00 -6.59 -20.89 4.34 3.34 -3.10 0.03 13598
0.04 0.02 -1.66 3.19 5.51 3.43 -3.23 -0.06 13604
0.02 0.46 2.00 0.26 16.65 3.51 -2.62 0.10 13612
0.01 0.61 5.74 2.08 20.43 3.34 -1.57 0.46 13618
0.01 0.67 5.32 0.50 15.18 3.07 -0.61 0.80 13624
0.02 0.70 1.71 -3.26 17.17 2.94 -0.16 1.02 13631
-0.01 0.75 -2.37 -4.92 16.38 2.83 0.02 1.08 13637
-0.00 0.82 -4.91 -4.56 16.67 2.88 -0.19 0.92 13643
-0.00 0.88 -4.91 -3.29 17.31 2.96 -0.45 0.63 13649
-0.01 0.88 -4.61 -2.87 19.18 2.89 -0.48 0.34 13657
-0.00 0.94 -3.49 -3.04 18.86 2.74 -0.30 0.10 13663
-0.01 0.95 -1.73 -2.43 17.03 2.55 0.08 -0.10 13669
0.01 1.00 -1.09 -2.35 14.85 2.44 0.40 -0.24 13675
0.00 1.00 0.86 -2.39 15.82 2.42 0.66 -0.35 13682
0.01 1.06 2.67 -2.48 17.24 2.33 0.90 -0.36 13688
0.01 1.05 2.96 -2.75 20.71 1.09 -0.03 -0.22 13694
-0.01 1.09 2.25 -2.23 11.81 0.25 -0.32 0.01 13701
-0.00 1.15 0.88 -1.48 10.06 0.10 -0.28 0.08 13708
0.00 1.16 0.41 -1.10 10.08 0.12 -0.27 0.05 13714
0.01 1.18 0.69 -0.79 10.13 0.08 -0.16 0.03 13720
0.01 1.22 1.72 -1.38 8.76 -0.01 -0.06 0.06 13726
0.02 1.24 0.98 -1.38 10.06 0.01 -0.06 0.07 13733
0.05 1.26 1.03 -1.22 9.97 0.02 -0.06 0.07 13740
0.04 1.27 0.91 -1.22 9.97 0.02 -0.08 0.08 13746
0.04 1.28 0.80 -1.09 9.91 0.02 -0.07 0.09 13752
0.09 1.32 0.82 -1.07 10.00 0.03 -0.07 0.09 13758
0.07 1.32 0.83 -1.13 9.96 0.03 -0.07 0.10 13765
0.08 1.33 0.84 -1.04 9.89 0.03 -0.07 0.10 13771
0.07 1.32 0.84 -1.03 9.84 0.03 -0.07 0.11 13777
0.07 1.30 0.82 -1.03 9.85 0.03 -0.08 0.11 13784
0.10 1.29 0.80 -1.03 9.83 0.03 -0.09 0.13 13790
0.10 1.26 0.80 -1.00 9.85 0.03 -0.09 0.14 13797
0.10 1.24 0.76 -1.02 9.90 0.03 -0.10 0.14 13803
0.13 1.23 0.73 -1.07 9.90 0.04 -0.09 0.15 13809
0.13 1.20 0.73 -1.04 9.93 0.03 -0.09 0.15 13815
0.11 1.14 0.74 -1.05 9.87 0.03 -0.08 0.16 13821
0.13 1.12 0.71 -1.04 9.85 0.03 -0.08 0.16 13829
0.17 1.08 0.73 -1.06 9.89 0.03 -0.07 0.16 13835
0.16 1.03 0.71 -1.03 9.88 0.03 -0.07 0.16 13841
0.17 1.00 0.75 -1.04 9.86 0.03 -0.06 0.16 13847
0.18 0.96 0.75 -1.03 9.83 0.03 -0.06 0.20 13853
0.18 0.91 0.75 -1.02 9.85 0.03 -0.06 0.16 13860
0.17 0.89 0.74 -1.03 9.88 0.03 -0.06 0.16 13867
0.19 0.84 0.74 -1.03 9.86 0.03 -0.06 0.17 13873
0.21 0.76 0.74 -1.03 9.87 0.04 -0.07 0.17 13879
0.24 0.70 0.78 -1.05 9.86 0.03 -0.07 0.16 13885
0.23 0.66 0.75 -1.02 9.84 0.03 -0.07 0.15 13892
0.23 0.67 0.72 -1.06 9.86 0.04 -0.08 0.15 13898
0.28 0.63 0.74 -1.08 9.87 0.03 -0.08 0.15 13904
0.26 0.63 0.68 -1.09 9.83 0.03 -0.09 0.14 13911
0.27 0.59 0.71 -1.09 9.83 0.04 -0.08 0.14 13917
0.34 0.55 0.73 -1.09 9.86 0.04 -0.08 0.14 13924
0.35 0.53 0.73 -1.10 9.86 0.04 -0.08 0.14 13930
0.36 0.52 0.73 -1.09 9.84 0.03 -0.07 0.14 13936
0.42 0.51 0.74 -1.09 9.85 0.04 -0.07 0.14 13942
0.43 0.41 0.71 -1.11 9.84 0.03 -0.06 0.13 13948
0.46 0.38 0.72 -1.12 9.82 0.03 -0.06 0.13 13956
0.47 0.33 0.75 -1.12 9.83 0.03 -0.06 0.13 13962
0.46 0.28 0.71 -1.16 9.84 0.04 -0.06 0.13 13968
0.48 0.29 0.75 -1.09 9.83 0.04 -0.06 0.12 13974
0.50 0.22 0.73 -1.09 9.85 0.04 -0.06 0.13 13980
0.52 0.16 0.70 -1.15 9.89 0.04 -0.06 0.12 13987
0.54 0.16 0.75 -1.15 9.85 0.04 -0.05 0.13 13993
0.54 0.12 0.71 -1.14 9.85 0.04 -0.05 0.11 14000
0.57 0.07 0.74 -1.15 9.89 0.05 -0.04 0.11 14006
0.63 0.06 0.65 -1.15 9.88 0.05 -0.04 0.12 14012
0.62 0.03 0.73 -1.19 9.90 0.05 -0.03 0.12 14019
0.65 0.01 0.72 -1.17 9.87 0.05 -0.03 0.11 14025
0.67 -0.02 0.72 -1.18 9.86 0.05 -0.03 0.11 14031
0.69 -0.03 0.71 -1.22 9.84 0.05 -0.02 0.11 14038
0.69 -0.02 0.74 -1.23 9.83 0.05 -0.02 0.11 14044
0.71 -0.02 0.74 -1.19 9.83 0.05 -0.02 0.10 14051
0.72 -0.03 0.73 -1.19 9.89 0.06 -0.02 0.11 14057
0.74 -0.02 0.74 -1.20 9.91 0.06 -0.01 0.10 14063
0.78 -0.02 0.74 -1.22 9.94 0.07 -0.02 0.10 14069
0.79 -0.03 0.77 -1.28 9.94 0.08 -0.02 0.09 14075
0.83 -0.02 0.81 -1.27 9.92 0.09 -0.03 0.08 14083
0.86 -0.03 0.80 -1.32 10.03 0.11 -0.03 0.08 14089
0.85 -0.03 0.80 -1.33 10.00 0.13 -0.03 0.07 14095
0.88 -0.02 0.83 -1.30 10.01 0.16 -0.05 0.05 14101
0.91 -0.03 0.86 -1.31 10.12 0.19 -0.06 0.04 14108
0.94 -0.02 0.90 -1.44 10.23 0.24 -0.08 0.02 14114
0.97 -0.03 0.90 -1.45 10.42 0.31 -0.11 0.01 14120
1.07 -0.03 0.98 -1.50 10.58 0.42 -0.15 -0.02 14127
1.11 -0.03 0.89 -1.74 10.75 0.55 -0.19 -0.04 14134
1.15 -0.04 1.04 -1.79 11.17 0.72 -0.20 -0.06 14140
1.18 -0.04 1.03 -1.80 11.41 0.86 -0.21 -0.07 14146
1.25 -0.04 1.08 -1.77 11.52 1.00 -0.20 -0.08 14152
1.28 -0.03 1.00 -1.75 11.47 1.11 -0.17 -0.10 14159
1.33 -0.04 0.89 -2.19 11.47 1.21 -0.16 -0.11 14166
1.36 -0.05 0.88 -1.93 11.88 1.31 -0.16 -0.12 14172
1.40 -0.03 0.75 -2.13 12.11 1.43 -0.13 -0.13 14179
1.44 -0.04 0.97 -2.20 12.44 1.59 -0.13 -0.14 14185
1.47 -0.04 0.75 -2.22 12.20 1.75 -0.15 -0.15 14191
1.49 -0.04 0.91 -2.32 12.04 1.84 -0.21 -0.15 14197
1.46 -0.04 0.95 -2.47 12.53 1.97 -0.22 -0.16 14204
1.50 -0.02 1.04 -2.56 13.18 2.20 -0.22 -0.18 14211
1.50 -0.04 1.68 -4.19 11.10 2.49 -0.21 -0.20 14217
1.48 -0.04 0.95 -2.91 13.71 2.79 -0.20 -0.22 14224
1.43 -0.04 0.86 -2.96 13.60 3.06 -0.18 -0.24 14230
1.39 -0.04 1.10 -3.08 13.67 3.31 -0.14 -0.27 14236
1.30 -0.04 1.77 -4.22 13.57 3.59 -0.16 -0.31 14242
1.13 -0.03 1.49 -3.46 14.60 3.91 -0.15 -0.35 14249
1.02 -0.02 1.65 -3.84 15.78 4.18 -0.17 -0.41 14256
0.81 -0.03 1.47 -3.86 17.69 4.28 -0.24 -0.49 14262
0.69 -0.01 -0.19 -8.20 17.94 4.28 -0.31 -0.60 14269
0.58 -0.03 2.90 -5.62 17.62 4.28 -0.44 -0.70 14275
0.48 -0.00 3.04 -7.00 20.58 4.28 -0.57 -0.78 14281
0.39 -0.01 2.80 -8.42 21.96 4.28 -0.61 -0.83 14287
0.38 -0.01 2.46 -11.11 24.07 4.28 -0.55 -0.80 14295
0.37 -0.01 2.22 -12.64 26.43 4.28 -0.36 -0.72 14301
0.26 -0.00 1.96 -12.69 24.97 4.28 -0.25 -0.70 14307
0.20 -0.01 1.65 -11.45 24.50 4.28 -0.23 -0.71 14314
0.18 -0.01 0.55 -10.55 23.22 4.28 -0.24 -0.69 14320
0.16 -0.01 0.35 -8.04 25.32 4.28 -0.22 -0.57 14326
0.12 -0.01 1.27 -7.37 27.77 4.28 -0.21 -0.54 14332
0.08 0.01 2.32 -5.02 28.44 4.28 -0.31 -0.60 14340
0.08 0.02 4.19 -2.05 27.95 4.28 -0.48 -0.62 14346
0.06 0.02 5.58 1.19 27.67 4.28 -0.63 -0.64 14352
0.07 0.00 6.23 5.67 27.18 4.28 -0.61 -0.69 14359
0.04 0.02 6.15 10.32 25.51 4.28 -0.20 -0.72 14365
0.05 0.02 5.56 22.33 25.81 4.28 0.63 -0.89 14371
0.05 -0.00 7.60 13.84 2.12 4.28 0.79 -1.39 14377
0.06 0.01 7.02 10.70 -9.74 4.28 0.09 -2.01 14385
0.06 0.01 3.61 24.13 7.98 2.23 -0.46 -2.27 14391
0.05 0.01 7.35 20.59 26.08 0.46 0.56 -2.09 14397
0.06 0.01 8.10 13.37 25.54 -0.76 1.26 -1.87 14404
0.04 0.01 4.16 10.58 19.82 -1.84 1.28 -1.70 14410
0.07 0.01 1.98 12.78 15.04 -2.85 0.92 -1.42 14416
0.06 -0.00 1.62 12.66 12.35 -3.57 0.59 -1.12 14423
0.06 0.02 2.11 9.74 11.13 -3.98 0.34 -0.91 14430
0.05 0.01 1.94 6.84 9.94 -4.14 0.17 -0.78 14436
0.05 0.01 2.52 6.01 8.64 -4.19 0.07 -0.66 14442
0.06 0.01 2.71 5.73 7.62 -4.18 0.04 -0.54 14448
0.04 0.00 2.75 4.72 6.78 -4.17 0.08 -0.50 14455
0.04 0.01 2.84 3.66 6.54 -4.15 0.17 -0.44 14461
0.06 0.00 2.86 3.19 6.79 -4.14 0.29 -0.39 14468
0.05 -0.00 2.86 3.20 7.20 -4.14 0.42 -0.35 14474
0.04 0.00 2.62 3.30 7.72 -4.16 0.56 -0.33 14480
0.05 -0.00 2.35 2.71 8.53 -4.19 0.70 -0.33 14486
0.04 -0.00 1.99 2.34 9.15 -4.22 0.83 -0.32 14493
0.04 0.00 1.83 1.89 10.33 -4.26 0.97 -0.32 14499
0.05 -0.00 1.69 1.14 11.21 -4.28 1.09 -0.32 14505
0.04 -0.00 1.39 0.39 12.06 -4.28 1.20 -0.32 14512
0.05 0.01 1.10 -0.14 12.82 -4.28 1.26 -0.32 14519
0.05 -0.00 0.81 -0.76 13.32 -4.28 1.30 -0.31 14525
0.03 -0.00 0.69 -1.40 13.56 -4.28 1.37 -0.30 14531
0.05 -0.00 0.59 -2.09 13.77 -4.28 1.39 -0.28 14537
0.05 -0.00 0.60 -2.80 13.93 -4.28 1.46 -0.26 14543
0.04 -0.00 0.55 -3.52 14.00 -4.28 1.56 -0.25 14551
0.05 -0.01 0.56 -4.83 14.67 -4.28 1.68 -0.25 14557
0.05 -0.00 0.36 -5.09 15.28 -4.28 1.81 -0.25 14563
0.05 0.00 0.10 -5.51 15.80 -4.28 1.92 -0.25 14569
0.05 -0.00 -0.13 -5.99 16.45 -4.27 2.02 -0.26 14576
0.04 0.01 -0.36 -6.30 16.89 -4.21 2.08 -0.27 14582
0.06 -0.00 -0.58 -6.46 17.00 -4.13 2.12 -0.27 14588
0.05 -0.00 -0.80 -6.74 17.75 -4.01 2.14 -0.24 14595
0.05 -0.00 -1.04 -7.09 17.51 -3.83 2.13 -0.18 14602
0.06 -0.01 -1.23 -7.35 18.10 -3.65 2.10 -0.09 14608
0.05 -0.00 -1.24 -7.25 18.82 -3.49 2.05 0.02 14614
0.05 0.00 -1.34 -7.23 19.51 -3.37 1.95 0.17 14620
0.05 0.00 -1.40 -7.53 20.04 -3.27 1.82 0.33 14626
0.05 0.01 -1.38 -8.26 20.28 -3.17 1.68 0.51 14633
0.07 0.01 -1.38 -9.27 20.43 -3.06 1.51 0.68 14640
0.06 0.01 -1.57 -10.23 20.50 -2.94 1.27 0.84 14646
0.07 0.01 -1.56 -11.22 20.44 -2.81 0.97 0.97 14653
0.05 -0.00 -1.46 -12.02 20.39 -2.69 0.64 1.08 14659
0.05 0.01 -1.05 -12.81 20.15 -2.60 0.33 1.16 14665
0.05 0.00 -0.57 -13.65 19.87 -2.53 0.06 1.22 14672
0.06 0.02 0.09 -14.45 19.01 -2.47 -0.11 1.26 14679
0.05 0.01 0.75 -15.15 19.16 -2.43 -0.18 1.29 14685
0.05 0.01 1.23 -15.85 18.31 -2.39 -0.11 1.31 14692
0.05 0.01 1.47 -17.10 17.45 -2.36 0.09 1.33 14698
0.05 0.01 1.39 -17.72 16.36 -2.35 0.44 1.40 14704
0.07 -0.00 0.91 -17.59 14.64 -2.39 0.95 1.47 14710
0.04 0.00 -0.48 -17.72 13.05 -2.46 1.66 1.64 14717
0.06 -0.00 -1.88 -19.79 12.63 -2.55 2.49 1.89 14724
0.03 0.01 -4.09 -22.36 12.63 -2.65 2.93 2.07 14730
0.06 0.00 -5.10 -23.89 11.64 -2.72 2.72 2.15 14737
0.04 -0.00 -6.84 -26.23 9.54 -2.74 2.20 2.16 14743
0.04 0.01 -7.07 -27.54 6.16 -2.68 1.67 2.15 14749
0.04 0.00 -6.90 -28.76 2.03 -2.49 1.29 2.14 14755
0.04 -0.00 -7.41 -29.52 0.81 -2.14 0.99 2.08 14763
0.06 -0.00 -6.50 -29.88 -0.48 -1.62 0.68 1.92 14769
0.04 -0.00 -6.50 -28.86 -1.71 -0.98 0.43 1.65 14775
0.05 0.01 -6.45 -30.40 -3.38 -0.29 0.05 1.33 14781
0.04 -0.00 -9.97 -31.88 16.73 1.98 -0.94 0.92 14788
0.04 -0.00 -9.79 -26.41 -8.49 2.30 -1.12 0.55 14794
0.06 -0.01 -8.37 -29.64 1.31 2.92 -2.10 0.29 14800
0.05 -0.00 -6.48 -11.04 4.62 3.39 -3.02 0.05 14807
0.04 0.02 -2.86 5.91 7.24 3.38 -3.19 -0.07 14814
0.03 0.51 1.53 2.33 18.38 3.48 -2.58 0.02 14820
-0.00 0.62 5.17 3.16 19.75 3.30 -1.64 0.35 14826
-0.01 0.73 3.95 -0.17 15.66 3.01 -0.65 0.64 14832
-0.01 0.74 0.78 -3.14 16.89 2.85 -0.23 0.79 14839
-0.02 0.76 -2.10 -4.25 15.64 2.75 -0.13 0.83 14845
-0.02 0.79 -2.31 -4.31 15.21 2.84 -0.16 0.75 14852
-0.03 0.84 -3.75 -3.09 17.25 2.95 -0.18 0.50 14858
-0.01 0.90 -5.33 -2.74 18.79 2.90 -0.13 0.24 14865
-0.02 0.94 -4.76 -2.76 19.32 2.73 -0.08 -0.10 14871
-0.02 1.04 -1.51 -2.55 17.43 2.55 0.22 -0.34 14877
-0.01 1.05 1.09 -2.36 16.11 2.45 0.64 -0.44 14884
-0.02 1.12 2.74 -2.36 15.00 2.38 0.90 -0.45 14891
-0.01 1.13 3.98 -2.57 20.35 2.36 1.01 -0.39 14897
-0.02 1.15 3.39 -1.98 15.35 0.91 -0.29 -0.12 14903
-0.01 1.16 1.91 -2.81 12.21 0.25 -0.46 0.08 14910
-0.01 1.16 0.34 -1.73 10.48 0.13 -0.34 0.10 14916
-0.01 1.21 0.44 -1.70 10.43 0.12 -0.24 0.05 14922
-0.00 1.21 1.63 -1.72 10.00 0.03 -0.09 0.05 14928
0.01 1.22 1.17 -2.51 9.62 0.01 -0.06 0.04 14936
0.02 1.22 0.82 -1.16 10.21 0.03 -0.08 0.08 14942
0.01 1.24 0.98 -1.18 10.13 0.03 -0.07 0.09 14948
0.02 1.26 0.97 -1.16 9.96 0.03 -0.06 0.09 14954
0.03 1.27 0.95 -1.06 9.92 0.04 -0.07 0.09 14961
0.02 1.27 0.93 -1.07 10.01 0.03 -0.07 0.10 14967
0.04 1.28 0.95 -1.05 9.88 0.03 -0.08 0.09 14973
0.05 1.28 0.95 -1.02 9.88 0.03 -0.08 0.10 14980
0.05 1.26 0.95 -0.96 9.82 0.03 -0.09 0.11 14986
0.07 1.25 0.94 -1.00 9.82 0.04 -0.10 0.11 14993
0.06 1.23 0.95 -0.95 9.90 0.04 -0.12 0.12 14999
0.07 1.22 0.89 -0.97 9.86 0.04 -0.12 0.12 15005
0.10 1.19 0.87 -0.94 9.86 0.04 -0.13 0.12 15011
0.10 1.17 0.86 -0.96 9.92 0.04 -0.13 0.13 15017
0.14 1.15 0.86 -0.97 9.94 0.04 -0.13 0.14 15025
0.18 1.11 0.86 -0.99 9.93 0.05 -0.12 0.14 15031
0.19 1.08 0.81 -1.00 9.87 0.04 -0.11 0.15 15037
0.18 1.06 0.77 -0.98 9.85 0.03 -0.10 0.15 15043
0.18 1.05 0.81 -0.97 9.85 0.03 -0.10 0.16 15049
0.17 1.00 0.79 -0.95 9.89 0.03 -0.09 0.15 15056
0.20 0.98 0.82 -0.96 9.88 0.03 -0.09 0.15 15063
0.22 0.93 0.78 -0.98 9.83 0.03 -0.08 0.15 15069
0.22 0.90 0.82 -0.94 9.85 0.03 -0.08 0.15 15075
0.22 0.85 0.82 -0.98 9.89 0.03 -0.08 0.16 15081
0.24 0.82 0.84 -0.97 9.84 0.03 -0.08 0.15 15088
0.24 0.78 0.76 -0.98 9.85 0.03 -0.08 0.16 15094
0.27 0.76 0.80 -1.03 9.82 0.03 -0.09 0.16 15100
0.29 0.72 0.80 -1.00 9.87 0.03 -0.08 0.16 15107
0.29 0.69 0.73 -1.01 9.83 0.03 -0.08 0.16 15113
0.34 0.65 0.71 -1.05 9.83 0.03 -0.08 0.15 15120
0.32 0.64 0.74 -1.03 9.84 0.02 -0.07 0.15 15126
0.33 0.61 0.73 -1.02 9.84 0.03 -0.07 0.15 15132
0.36 0.57 0.77 -1.01 9.85 0.03 -0.06 0.15 15138
0.36 0.55 0.77 -1.01 9.83 0.03 -0.06 0.15 15144
0.37 0.54 0.79 -1.06 9.88 0.03 -0.06 0.14 15152
0.39 0.53 0.76 -1.05 9.87 0.03 -0.06 0.15 15158
0.39 0.48 0.77 -1.03 9.87 0.03 -0.06 0.15 15164
0.39 0.46 0.78 -1.03 9.83 0.03 -0.06 0.15 15170
0.44 0.45 0.77 -1.04 9.84 0.03 -0.07 0.14 15176
0.45 0.44 0.79 -1.07 9.85 0.03 -0.06 0.14 15183
0.46 0.45 0.74 -1.03 9.84 0.03 -0.06 0.14 15190
0.50 0.36 0.80 -1.13 9.94 0.07 -0.06 0.14 15196
0.51 0.32 0.77 -1.09 9.90 0.03 -0.06 0.13 15202
0.54 0.33 0.80 -1.08 9.83 0.03 -0.05 0.12 15208
0.54 0.29 0.76 -1.05 9.89 0.03 -0.06 0.13 15215
0.55 0.23 0.74 -1.06 9.83 0.04 -0.06 0.12 15221
0.57 0.18 0.74 -1.07 9.85 0.04 -0.05 0.13 15227
0.63 0.16 0.76 -1.07 9.87 0.04 -0.05 0.13 15234
0.63 0.12 0.75 -1.09 9.83 0.04 -0.04 0.12 15240
0.68 0.10 0.77 -1.14 9.87 0.04 -0.04 0.11 15247
0.70 0.06 0.75 -1.13 9.85 0.04 -0.04 0.12 15253
0.71 0.03 0.76 -1.08 9.85 0.05 -0.04 0.12 15259
0.73 0.03 0.77 -1.09 9.85 0.05 -0.04 0.11 15265
0.70 -0.01 0.75 -1.13 9.89 0.05 -0.04 0.12 15271
0.73 -0.03 0.78 -1.19 9.86 0.06 -0.04 0.11 15279
0.78 -0.02 0.80 -1.11 9.91 0.06 -0.04 0.11 15285
0.81 -0.02 0.75 -1.10 9.93 0.07 -0.04 0.11 15291
0.84 -0.03 0.82 -1.11 9.87 0.08 -0.04 0.09 15297
0.86 -0.02 0.80 -1.16 9.90 0.09 -0.05 0.09 15303
0.88 -0.03 0.84 -1.17 10.00 0.10 -0.05 0.08 15310
0.92 -0.03 1.21 -1.26 9.87 0.12 -0.06 0.08 15316
0.98 -0.04 0.84 -1.24 10.09 0.15 -0.07 0.07 15323
1.04 -0.04 0.89 -1.25 10.16 0.20 -0.09 0.04 15329
1.09 -0.02 0.92 -1.35 10.27 0.25 -0.11 0.03 15336
1.16 -0.03 0.98 -1.37 10.47 0.33 -0.15 -0.00 15342
1.20 -0.04 1.11 -1.58 10.63 0.44 -0.20 -0.04 15348
1.25 -0.05 1.11 -1.47 11.15 0.60 -0.23 -0.06 15354
1.30 -0.04 1.17 -1.52 11.58 0.82 -0.30 -0.08 15362
1.36 -0.04 1.15 -1.88 11.41 0.98 -0.35 -0.10 15368
1.39 -0.06 0.99 -1.81 11.75 1.15 -0.32 -0.11 15374
1.43 -0.04 0.88 -1.78 11.97 1.27 -0.26 -0.11 15380
1.47 -0.03 0.90 -1.86 11.57 1.36 -0.19 -0.11 15387
1.52 -0.04 0.00 -2.05 11.99 1.46 -0.15 -0.11 15393
1.56 -0.05 0.66 -2.22 12.50 1.58 -0.09 -0.10 15399
1.57 -0.05 0.96 -2.35 12.44 1.72 -0.10 -0.11 15407
1.58 -0.04 1.00 -2.33 12.16 1.82 -0.14 -0.11 15413
1.59 -0.04 0.93 -2.40 12.01 1.91 -0.20 -0.13 15419
1.60 -0.04 0.88 -2.62 12.77 2.07 -0.19 -0.14 15425
1.57 -0.05 0.87 -2.62 13.36 2.30 -0.20 -0.16 15432
1.56 -0.04 0.91 -2.80 13.93 2.60 -0.17 -0.18 15438
1.54 -0.05 0.92 -2.83 13.67 2.89 -0.20 -0.20 15444
1.47 -0.06 1.07 -3.04 13.54 3.15 -0.17 -0.24 15451
1.35 -0.04 1.40 -3.37 13.79 3.39 -0.20 -0.28 15458
1.24 -0.04 1.73 -3.41 14.28 3.65 -0.26 -0.35 15464
1.15 -0.03 1.20 -4.33 13.87 3.97 -0.32 -0.43 15470
1.03 -0.03 2.23 -4.08 15.82 4.20 -0.46 -0.53 15477
0.90 -0.03 2.46 -4.75 16.16 4.28 -0.56 -0.63 15483
0.74 -0.04 2.59 -5.14 17.01 4.28 -0.69 -0.76 15490
0.62 -0.02 3.04 -6.07 19.02 4.28 -0.83 -0.87 15496
0.52 -0.01 3.02 -7.37 20.78 4.28 -0.96 -0.96 15503
0.46 -0.03 2.86 -9.50 22.46 4.28 -1.04 -1.00 15509
0.39 -0.02 2.86 -11.59 25.35 4.28 -0.94 -0.96 15515
0.36 -0.00 2.19 -12.90 25.94 4.28 -0.80 -0.94 15522
0.34 -0.00 1.83 -12.78 24.90 4.28 -0.70 -0.93 15528
0.27 -0.01 1.04 -11.61 24.97 4.28 -0.76 -0.93 15535
0.20 0.02 0.46 -9.99 24.58 4.28 -0.83 -0.88 15542
0.18 0.01 0.81 -8.18 26.51 4.28 -0.81 -0.80 15548
0.11 0.01 1.78 -6.50 28.27 4.28 -0.82 -0.74 15554
0.08 0.03 3.50 -3.73 28.46 4.28 -0.95 -0.74 15560
0.08 0.02 5.37 -0.49 27.79 4.28 -1.07 -0.71 15567
0.06 0.00 6.36 4.06 27.90 4.28 -1.19 -0.72 15574
0.06 -0.00 7.17 8.96 26.43 4.28 -0.95 -0.73 15580
0.04 0.01 5.93 12.91 21.10 4.28 -0.39 -0.79 15586
