Voltage_01 Voltage_02 Acc_x Acc_y Acc_z Gyro_x Gyro_y Gyro_z Time
5000
1.16 -0.03 1.14 -2.90 12.11 2.18 -0.27 -0.18 23
1.10 -0.04 1.08 -3.08 12.01 2.32 -0.27 -0.20 29
1.03 -0.04 1.08 -3.30 12.10 2.44 -0.28 -0.21 35
0.98 -0.03 1.83 -3.47 12.13 2.60 -0.29 -0.25 41
0.88 -0.02 1.41 -4.17 12.75 2.79 -0.32 -0.29 48
0.83 -0.02 1.43 -3.99 13.16 2.98 -0.36 -0.36 55
0.73 -0.02 1.54 -4.17 13.31 3.18 -0.40 -0.38 61
0.67 -0.01 1.74 -4.60 13.87 3.40 -0.44 -0.43 67
0.58 -0.01 1.74 -4.99 14.37 3.60 -0.48 -0.48 73
0.48 0.00 1.82 -5.40 14.94 3.74 -0.54 -0.54 79
0.39 -0.01 1.70 -5.77 15.64 3.91 -0.58 -0.58 86
0.35 -0.00 1.82 -6.27 16.34 4.02 -0.64 -0.60 92
0.35 -0.03 1.83 -7.29 17.01 4.04 -0.65 -0.60 98
0.33 -0.02 1.76 -8.66 17.75 4.06 -0.58 -0.59 105
0.23 -0.01 1.45 -9.43 18.80 4.04 -0.49 -0.58 111
0.23 -0.01 1.30 -9.68 18.71 4.00 -0.41 -0.56 117
0.18 -0.00 1.55 -9.22 18.23 3.98 -0.34 -0.54 123
0.12 0.00 1.64 -8.48 18.25 3.91 -0.32 -0.55 130
0.13 -0.00 1.55 -8.07 17.00 3.91 -0.30 -0.54 136
0.10 -0.01 1.67 -7.36 16.58 3.91 -0.28 -0.54 143
0.08 -0.01 1.95 -6.40 17.03 3.88 -0.26 -0.57 149
0.08 -0.00 2.19 -5.27 17.45 3.82 -0.23 -0.59 155
0.07 -0.00 2.67 -3.95 16.95 3.78 -0.20 -0.59 161
0.06 -0.01 2.72 -3.10 16.96 3.79 -0.23 -0.62 167
0.05 -0.01 2.95 -1.85 17.79 3.94 -0.28 -0.65 174
0.07 -0.00 2.69 -0.41 17.03 4.13 -0.14 -0.67 180
0.07 -0.01 2.61 2.61 16.98 4.22 0.08 -0.70 186
0.05 -0.00 3.86 2.93 -10.11 4.21 0.34 -0.80 192
0.04 -0.00 2.68 6.18 3.86 4.02 0.32 -0.98 199
0.05 0.00 -0.06 14.48 -5.76 3.17 0.02 -1.31 205
0.05 -0.00 2.62 17.74 2.44 1.77 -0.21 -1.77 211
0.04 -0.00 4.10 11.94 19.29 0.41 0.18 -1.87 218
0.04 -0.00 2.91 7.53 20.58 -0.35 0.66 -1.87 224
0.04 -0.00 1.90 5.56 16.92 -0.93 0.92 -1.88 230
0.05 -0.01 0.95 7.17 11.71 -1.43 0.84 -1.89 236
0.05 -0.00 0.22 9.54 8.44 -1.85 0.57 -1.86 242
0.03 -0.00 0.37 9.17 6.63 -2.13 0.31 -1.82 248
0.05 -0.00 0.66 6.65 6.74 -2.25 0.07 -1.78 254
0.05 -0.01 1.01 5.04 7.34 -2.33 -0.08 -1.71 261
0.05 -0.01 1.47 4.86 7.53 -2.37 -0.17 -1.63 267
0.05 -0.01 1.90 4.73 7.20 -2.40 -0.18 -1.52 274
0.03 -0.00 2.33 4.79 6.84 -2.48 -0.16 -1.40 280
0.04 -0.00 2.66 4.66 6.88 -2.58 -0.11 -1.27 286
0.05 -0.01 2.88 4.62 7.12 -2.72 -0.05 -1.14 292
0.05 -0.00 3.06 4.12 7.91 -2.85 0.04 -1.03 299
0.04 -0.00 3.18 3.57 8.34 -2.98 0.14 -0.89 305
0.04 -0.00 3.08 2.74 8.81 -3.11 0.26 -0.74 311
0.04 -0.00 3.18 2.22 9.13 -3.22 0.42 -0.60 317
0.05 -0.01 3.23 1.89 9.56 -3.37 0.55 -0.46 323
0.04 -0.00 3.20 1.72 9.94 -3.51 0.70 -0.36 329
0.04 -0.00 3.08 0.92 10.11 -3.65 0.85 -0.25 335
0.04 -0.00 2.99 -0.03 10.52 -3.77 0.99 -0.13 342
0.04 0.01 2.67 -0.66 11.03 -3.85 1.11 -0.01 348
0.05 -0.00 2.46 -1.26 11.40 -3.92 1.24 0.09 354
0.05 -0.00 2.17 -1.76 11.69 -3.96 1.28 0.19 361
0.04 -0.00 1.95 -2.18 12.14 -3.99 1.34 0.27 367
0.04 0.01 1.52 -2.87 12.36 -3.99 1.39 0.35 373
0.04 -0.00 1.14 -3.55 12.99 -3.96 1.43 0.42 379
0.04 -0.00 0.86 -4.28 13.43 -3.91 1.47 0.49 386
0.04 -0.00 0.64 -4.88 13.80 -3.85 1.48 0.54 392
0.04 0.01 0.40 -5.21 14.12 -3.78 1.49 0.58 398
0.04 -0.00 0.18 -5.47 14.34 -3.69 1.50 0.61 404
0.04 -0.00 -0.01 -5.52 14.54 -3.62 1.50 0.64 410
0.03 0.01 -0.17 -5.60 15.11 -3.55 1.52 0.66 417
0.05 0.00 -0.29 -5.81 15.42 -3.48 1.55 0.69 423
0.04 0.01 -0.42 -6.09 15.69 -3.41 1.58 0.70 430
0.03 0.01 -0.58 -6.32 15.93 -3.36 1.63 0.70 436
0.04 0.02 -0.78 -6.45 16.19 -3.29 1.67 0.70 442
0.04 0.01 -1.06 -6.75 16.21 -3.21 1.67 0.70 448
0.04 -0.00 -1.28 -6.94 16.44 -3.12 1.62 0.70 454
0.04 0.00 -1.42 -7.12 16.45 -3.02 1.54 0.69 461
0.05 0.00 -1.39 -7.41 16.27 -2.92 1.41 0.68 467
0.04 -0.00 -1.13 -7.67 15.93 -2.82 1.25 0.65 474
0.03 0.00 -0.69 -7.97 15.47 -2.72 1.10 0.62 480
0.04 0.01 -0.27 -8.31 15.11 -2.60 0.96 0.59 486
0.04 0.00 0.09 -8.70 14.79 -2.44 0.85 0.56 492
0.03 -0.00 0.22 -9.08 14.49 -2.29 0.79 0.54 498
0.04 0.00 0.24 -9.48 14.52 -2.10 0.73 0.51 505
0.06 -0.01 0.11 -9.60 14.64 -1.90 0.67 0.49 512
0.05 0.00 0.02 -9.82 14.92 -1.72 0.61 0.47 518
0.04 -0.00 -0.14 -9.83 15.09 -1.58 0.55 0.46 524
0.05 0.01 -0.06 -9.83 15.11 -1.49 0.53 0.46 530
0.05 -0.00 0.01 -9.84 15.02 -1.43 0.56 0.48 536
0.05 -0.01 0.18 -9.98 14.80 -1.40 0.65 0.53 542
0.04 -0.00 0.32 -10.12 14.27 -1.38 0.75 0.58 548
0.05 0.00 0.50 -11.00 13.77 -1.37 0.88 0.66 556
0.05 -0.00 0.54 -10.78 12.88 -1.38 1.03 0.70 562
0.04 -0.00 0.12 -11.12 13.36 -1.41 1.15 0.77 568
0.05 0.00 -0.32 -11.41 12.94 -1.46 1.23 0.85 574
0.05 -0.01 -0.97 -11.70 12.40 -1.53 1.25 0.94 580
0.05 -0.00 -1.54 -11.94 11.66 -1.59 1.23 1.03 586
0.05 -0.00 -2.29 -12.17 10.71 -1.65 1.21 1.14 593
0.05 -0.01 -2.91 -12.63 9.81 -1.68 1.18 1.28 600
0.05 -0.00 -3.38 -13.15 8.75 -1.67 1.13 1.43 606
0.04 -0.00 -3.76 -13.63 7.72 -1.62 1.01 1.54 612
0.04 0.00 -3.98 -14.50 6.94 -1.51 0.82 1.64 618
0.05 -0.01 -3.99 -15.43 5.87 -1.33 0.57 1.71 624
0.05 -0.00 -3.80 -15.99 4.94 -1.11 0.31 1.73 630
0.04 -0.00 -3.63 -16.30 4.13 -0.81 0.08 1.70 636
0.05 -0.01 -3.49 -16.52 3.71 -0.59 -0.08 1.62 644
0.04 -0.00 -3.46 -16.48 3.91 -0.31 -0.16 1.50 650
0.04 -0.00 -3.43 -16.34 4.57 -0.05 -0.21 1.34 656
0.04 -0.00 -3.28 -16.49 5.13 0.16 -0.22 1.18 662
0.06 -0.01 -5.36 -29.41 19.62 1.07 -0.51 0.92 668
0.04 -0.00 -5.69 -17.61 -1.59 1.65 -0.51 0.69 674
0.04 -0.00 -5.85 -19.62 1.79 1.90 -0.84 0.43 680
0.04 -0.00 -4.22 -15.87 8.25 2.15 -1.39 0.27 687
0.05 0.00 -3.08 -2.60 4.89 2.18 -1.63 0.05 693
0.04 0.05 -0.89 3.18 12.49 2.16 -1.71 -0.02 700
0.01 0.40 1.79 7.14 15.67 2.14 -1.40 0.00 706
0.00 0.58 3.21 3.64 14.40 2.03 -0.98 0.17 712
-0.01 0.66 2.10 0.57 11.09 2.05 -0.65 0.27 718
-0.01 0.70 0.06 -1.71 11.01 2.18 -0.42 0.30 724
-0.00 0.72 -1.23 -2.63 11.45 2.32 -0.45 0.27 731
0.00 0.72 -0.69 -2.47 12.48 2.43 -0.49 0.21 738
-0.00 0.79 -0.45 -2.30 14.77 2.50 -0.37 0.17 744
-0.01 0.79 -1.83 -2.62 16.96 2.44 -0.25 0.10 750
0.00 0.83 -1.51 -2.54 17.45 2.36 -0.04 -0.02 756
-0.02 0.90 -0.49 -2.40 15.44 2.24 0.18 -0.16 762
-0.01 0.93 0.52 -2.26 14.84 2.20 0.44 -0.21 769
0.00 0.97 1.38 -2.60 17.51 2.22 0.69 -0.29 776
-0.00 0.99 2.85 -2.96 22.90 1.35 0.45 -0.26 782
-0.02 1.07 2.80 -2.47 11.88 0.13 -0.15 0.01 788
-0.02 1.10 0.79 -1.81 10.40 0.01 -0.12 0.11 794
-0.02 1.09 0.49 -1.69 10.15 0.03 -0.15 0.07 800
-0.01 1.09 1.36 -0.59 10.19 0.03 -0.12 0.04 806
-0.00 1.14 0.91 -0.64 10.89 -0.01 -0.06 0.06 813
-0.00 1.14 0.72 -1.50 10.01 -0.03 -0.01 0.09 820
0.01 1.16 1.34 -0.92 10.30 -0.01 -0.03 0.07 826
0.01 1.17 0.89 -1.37 10.10 -0.01 -0.02 0.09 832
0.02 1.20 0.88 -1.25 10.03 -0.01 -0.02 0.08 838
0.02 1.22 0.89 -1.16 9.92 -0.00 -0.02 0.09 844
0.02 1.22 0.95 -1.18 9.84 -0.00 -0.03 0.08 850
0.01 1.24 0.92 -1.17 9.90 0.01 -0.04 0.09 857
0.02 1.28 0.98 -1.11 9.91 0.01 -0.04 0.09 863
0.02 1.29 0.94 -1.10 9.94 0.01 -0.03 0.10 869
0.04 1.29 0.93 -1.06 9.83 0.02 -0.05 0.09 876
0.03 1.29 0.90 -1.06 9.83 0.03 -0.05 0.10 882
0.06 1.30 0.89 -1.03 9.87 0.03 -0.06 0.10 888
0.09 1.26 0.87 -1.06 9.84 0.04 -0.07 0.11 894
0.08 1.25 0.87 -1.06 9.85 0.04 -0.07 0.11 901
0.07 1.22 0.81 -1.04 9.90 0.03 -0.06 0.13 907
0.08 1.21 0.83 -1.07 9.91 0.03 -0.05 0.13 913
0.10 1.18 0.85 -1.07 9.99 0.02 -0.05 0.14 919
0.09 1.16 0.81 -1.02 9.93 0.02 -0.05 0.14 925
0.09 1.13 0.85 -1.01 9.90 0.02 -0.05 0.15 931
0.09 1.11 0.86 -1.04 9.87 0.02 -0.05 0.15 937
0.10 1.11 0.87 -1.02 9.88 0.02 -0.06 0.15 945
0.12 1.08 0.81 -1.04 9.84 0.02 -0.06 0.15 951
0.11 1.06 0.83 -1.03 9.83 0.02 -0.07 0.15 957
0.13 1.05 0.80 -1.02 9.83 0.02 -0.07 0.15 963
0.12 1.04 0.83 -1.04 9.84 0.02 -0.08 0.16 969
0.14 1.02 0.77 -1.04 9.86 0.02 -0.08 0.16 975
0.14 0.98 0.82 -1.02 9.86 0.02 -0.08 0.15 982
0.15 0.96 0.77 -1.03 9.85 0.02 -0.08 0.15 988
0.15 0.96 0.81 -1.04 9.88 0.02 -0.09 0.16 994
0.16 0.95 0.81 -1.04 9.90 0.03 -0.09 0.16 1000
0.17 0.89 0.77 -1.08 9.83 0.02 -0.09 0.16 1007
0.17 0.88 0.80 -1.04 9.87 0.03 -0.09 0.16 1013
0.19 0.87 0.74 -1.04 9.83 0.02 -0.09 0.15 1019
0.17 0.82 0.76 -1.02 9.85 0.03 -0.09 0.16 1026
0.18 0.78 0.79 -1.04 9.82 0.03 -0.09 0.16 1032
0.20 0.77 0.77 -1.06 9.84 0.03 -0.09 0.16 1038
0.22 0.76 0.78 -1.08 9.84 0.03 -0.09 0.16 1044
0.22 0.74 0.80 -1.04 9.84 0.03 -0.09 0.16 1051
0.25 0.72 0.76 -1.10 9.83 0.03 -0.09 0.15 1057
0.27 0.68 0.76 -1.06 9.85 0.03 -0.09 0.15 1063
0.26 0.65 0.78 -1.08 9.86 0.03 -0.08 0.15 1070
0.29 0.67 0.67 -1.09 9.84 0.03 -0.08 0.16 1076
0.33 0.62 0.75 -1.07 9.83 0.03 -0.08 0.15 1082
0.32 0.60 0.77 -1.07 9.84 0.03 -0.08 0.15 1089
0.33 0.58 0.75 -1.07 9.84 0.03 -0.09 0.15 1095
0.34 0.54 0.73 -1.09 9.87 0.03 -0.09 0.14 1101
0.37 0.55 0.75 -1.09 9.83 0.03 -0.09 0.15 1107
0.38 0.52 0.66 -1.10 9.85 0.04 -0.09 0.14 1114
0.40 0.50 0.74 -1.09 9.87 0.03 -0.08 0.14 1120
0.44 0.46 0.74 -1.06 9.90 0.04 -0.08 0.16 1126
0.40 0.47 0.70 -1.13 9.90 0.04 -0.08 0.14 1133
0.46 0.41 0.72 -1.08 9.86 0.04 -0.07 0.16 1139
0.50 0.39 0.73 -1.11 9.86 0.04 -0.07 0.16 1145
0.51 0.36 0.72 -1.12 9.89 0.04 -0.07 0.15 1152
0.52 0.31 0.72 -1.12 9.88 0.05 -0.06 0.15 1158
0.52 0.27 0.71 -1.11 9.90 0.05 -0.06 0.15 1164
0.55 0.19 0.71 -1.14 9.89 0.04 -0.06 0.15 1171
0.55 0.21 0.71 -1.12 9.85 0.05 -0.05 0.15 1177
0.60 0.15 0.72 -1.15 9.85 0.05 -0.05 0.15 1183
0.62 0.10 0.75 -1.14 9.85 0.05 -0.06 0.15 1189
0.62 0.05 0.73 -1.16 9.91 0.06 -0.05 0.14 1196
0.66 0.05 0.70 -1.19 9.90 0.06 -0.05 0.13 1202
0.69 0.00 0.73 -1.16 9.89 0.07 -0.06 0.13 1208
0.75 -0.03 0.72 -1.15 9.89 0.08 -0.06 0.12 1215
0.74 -0.02 0.74 -1.17 9.90 0.08 -0.05 0.12 1221
0.80 -0.03 0.69 -1.20 9.97 0.09 -0.05 0.11 1227
0.82 -0.02 0.75 -1.25 9.79 0.09 -0.05 0.11 1233
0.84 -0.02 0.65 -1.25 9.97 0.10 -0.05 0.10 1240
0.84 -0.01 0.75 -1.24 9.98 0.11 -0.05 0.10 1246
0.85 -0.03 0.71 -1.31 10.00 0.12 -0.04 0.09 1253
0.88 -0.03 0.78 -1.31 10.11 0.14 -0.04 0.08 1259
0.95 -0.02 0.74 -1.26 10.02 0.17 -0.05 0.07 1265
1.00 -0.04 0.78 -1.43 10.05 0.19 -0.07 0.05 1271
0.99 -0.03 0.92 -1.47 10.15 0.24 -0.09 0.03 1277
1.01 -0.04 0.92 -1.48 10.15 0.30 -0.12 0.01 1285
1.06 -0.03 0.89 -1.57 10.45 0.39 -0.15 -0.01 1291
1.09 -0.03 1.00 -1.64 10.81 0.53 -0.19 -0.03 1297
1.10 -0.03 0.82 -1.40 10.43 0.65 -0.24 -0.05 1303
1.15 -0.05 0.94 -1.82 11.35 0.79 -0.26 -0.07 1309
1.16 -0.04 0.86 -1.72 11.21 0.92 -0.26 -0.08 1316
1.22 -0.03 0.95 -1.85 11.49 1.04 -0.24 -0.08 1323
1.27 -0.04 0.78 -2.11 11.50 1.12 -0.19 -0.09 1329
1.31 -0.03 0.85 -2.11 11.49 1.20 -0.15 -0.09 1335
1.34 -0.04 0.81 -1.99 11.69 1.29 -0.13 -0.09 1342
1.38 -0.03 0.85 -2.17 11.55 1.36 -0.12 -0.10 1348
1.40 -0.03 0.81 -2.40 11.89 1.43 -0.14 -0.11 1354
1.37 -0.04 0.88 -2.29 11.52 1.48 -0.23 -0.12 1360
1.38 -0.04 0.76 -3.02 11.63 1.57 -0.24 -0.12 1368
1.40 -0.03 0.89 -2.53 11.87 1.69 -0.23 -0.12 1374
1.39 -0.03 0.82 -2.79 12.49 1.87 -0.24 -0.14 1380
1.37 -0.03 1.05 -2.89 12.68 2.10 -0.26 -0.17 1386
1.37 -0.04 0.99 -2.92 12.50 2.31 -0.28 -0.20 1392
1.34 -0.03 0.97 -3.01 12.60 2.48 -0.31 -0.22 1399
1.29 -0.03 0.82 -4.34 12.45 2.65 -0.31 -0.24 1405
1.24 -0.04 0.79 -3.33 13.08 2.83 -0.33 -0.26 1412
1.16 -0.01 1.02 -3.46 13.13 3.04 -0.35 -0.27 1418
1.06 -0.02 1.37 -3.69 14.31 3.27 -0.41 -0.32 1425
0.87 -0.02 1.60 -4.33 14.17 3.54 -0.46 -0.38 1431
0.80 -0.02 1.61 -4.20 15.11 3.82 -0.54 -0.46 1437
0.70 -0.03 1.89 -5.12 15.88 4.08 -0.65 -0.55 1443
0.65 -0.02 2.20 -5.64 16.53 4.22 -0.77 -0.63 1451
0.54 -0.02 2.10 -6.34 16.16 4.28 -0.88 -0.71 1457
0.47 -0.01 2.46 -6.87 17.87 4.28 -0.98 -0.77 1463
0.46 0.00 2.07 -8.76 18.77 4.28 -1.03 -0.81 1469
0.39 -0.01 2.21 -10.42 20.60 4.28 -0.92 -0.80 1476
0.35 -0.01 2.11 -11.39 22.20 4.28 -0.74 -0.78 1482
0.31 -0.01 1.69 -11.25 21.64 4.28 -0.56 -0.76 1488
0.22 -0.00 0.85 -9.79 20.85 4.28 -0.48 -0.74 1495
0.18 0.01 0.16 -8.73 19.79 4.28 -0.55 -0.71 1502
0.15 -0.00 0.18 -7.60 21.20 4.28 -0.57 -0.64 1508
0.10 -0.01 0.48 -6.61 22.33 4.28 -0.56 -0.59 1514
0.10 -0.01 1.10 -5.55 22.29 4.28 -0.66 -0.59 1520
0.09 -0.00 2.57 -3.00 22.08 4.27 -0.74 -0.57 1526
0.06 -0.00 2.98 -4.10 22.71 4.27 -0.87 -0.54 1533
0.06 -0.01 3.47 1.73 22.46 4.28 -0.93 -0.54 1540
0.05 -0.00 3.74 3.91 21.12 4.28 -0.85 -0.55 1546
0.05 0.00 6.58 3.89 22.61 4.28 -0.55 -0.57 1552
0.06 -0.00 1.89 9.81 -17.10 4.27 -0.12 -0.77 1558
0.05 -0.01 0.79 12.61 -4.99 4.20 -0.48 -1.16 1565
0.06 0.00 5.34 15.21 -3.61 2.68 -0.83 -1.58 1571
0.06 0.00 5.30 18.63 18.74 0.65 -0.44 -1.61 1577
0.05 -0.00 5.76 13.55 24.01 -0.45 0.34 -1.52 1584
0.06 0.00 4.25 8.51 19.49 -1.17 0.80 -1.51 1590
0.05 0.00 2.47 8.48 13.69 -1.88 0.78 -1.45 1597
0.05 0.00 1.39 10.55 9.97 -2.38 0.61 -1.35 1603
0.07 0.00 1.99 9.68 7.82 -2.66 0.47 -1.27 1609
0.05 -0.00 2.40 7.24 7.42 -2.79 0.35 -1.22 1615
0.05 0.00 2.40 5.95 7.48 -2.87 0.31 -1.15 1622
0.06 0.01 2.45 5.83 7.22 -2.91 0.32 -1.07 1629
0.06 0.00 2.33 5.47 6.78 -2.96 0.35 -0.99 1635
0.04 0.00 2.37 5.01 6.47 -3.03 0.39 -0.90 1641
0.06 0.01 2.28 4.78 6.77 -3.12 0.41 -0.80 1647
0.05 0.00 2.11 4.50 7.35 -3.21 0.42 -0.71 1653
0.05 -0.00 2.20 4.21 7.82 -3.31 0.43 -0.63 1659
0.04 0.00 2.06 3.80 8.56 -3.39 0.44 -0.54 1666
0.06 -0.01 2.31 3.21 8.57 -3.51 0.53 -0.47 1673
0.05 -0.00 2.38 2.69 8.97 -3.63 0.61 -0.41 1679
0.05 -0.00 2.61 2.26 9.38 -3.78 0.74 -0.38 1685
0.05 -0.00 2.46 1.52 10.37 -3.93 0.89 -0.35 1691
0.06 -0.00 2.37 0.74 10.37 -4.07 1.05 -0.32 1697
0.04 -0.00 2.19 0.16 10.75 -4.16 1.20 -0.28 1703
0.05 -0.00 1.97 -0.31 11.25 -4.22 1.33 -0.24 1710
0.06 -0.00 1.67 -0.71 11.47 -4.25 1.44 -0.19 1717
0.05 -0.00 1.56 -1.32 11.69 -4.26 1.54 -0.14 1723
0.05 -0.00 1.38 -2.06 11.86 -4.26 1.64 -0.09 1729
0.06 -0.01 1.28 -2.89 12.45 -4.25 1.76 -0.05 1735
0.05 -0.01 1.25 -3.69 13.23 -4.22 1.84 -0.03 1741
0.05 -0.00 0.93 -4.65 13.85 -4.17 1.94 -0.04 1748
0.06 -0.01 0.62 -5.33 14.39 -4.11 2.03 -0.04 1755
0.04 -0.00 0.43 -5.73 14.96 -4.02 2.09 -0.03 1761
0.05 0.00 0.08 -5.67 15.93 -3.93 2.12 -0.02 1767
0.05 0.00 -0.11 -5.72 15.83 -3.84 2.12 -0.02 1773
0.05 -0.00 -0.35 -6.03 16.33 -3.77 2.11 -0.00 1779
0.04 0.00 -0.58 -6.26 16.81 -3.71 2.07 0.02 1786
0.05 -0.00 -0.86 -6.47 16.97 -3.62 2.02 0.05 1793
0.04 -0.00 -1.02 -6.71 17.03 -3.53 1.97 0.08 1799
0.04 0.01 -1.14 -7.06 17.09 -3.40 1.93 0.11 1805
0.05 -0.00 -1.24 -7.33 17.24 -3.26 1.90 0.15 1811
0.04 -0.00 -1.29 -7.45 17.43 -3.11 1.86 0.20 1818
0.05 0.00 -1.46 -7.79 17.66 -2.98 1.76 0.23 1824
0.05 0.00 -1.60 -8.38 17.81 -2.83 1.61 0.28 1830
0.05 -0.00 -1.79 -8.98 17.60 -2.68 1.43 0.36 1837
0.05 0.00 -1.87 -9.82 17.45 -2.50 1.22 0.39 1843
0.05 -0.00 -1.70 -10.51 17.07 -2.31 1.00 0.47 1850
0.06 -0.01 -1.54 -11.24 16.76 -2.11 0.82 0.56 1856
0.05 0.00 -1.18 -11.79 16.48 -1.89 0.67 0.66 1862
0.05 0.00 -0.89 -12.17 16.28 -1.68 0.58 0.78 1868
0.05 0.02 -0.66 -12.52 16.16 -1.48 0.55 0.89 1875
0.06 0.02 -0.45 -12.97 16.21 -1.31 0.57 1.02 1882
0.05 -0.01 -0.50 -13.53 16.45 -1.20 0.59 1.14 1888
0.06 0.00 -0.71 -13.97 16.46 -1.16 0.61 1.25 1894
0.05 -0.01 -0.80 -14.57 16.25 -1.18 0.61 1.37 1901
0.05 -0.00 -1.22 -15.02 15.75 -1.27 0.58 1.48 1907
0.06 -0.01 -1.76 -15.30 14.89 -1.42 0.56 1.60 1913
0.05 -0.00 -2.29 -15.63 13.78 -1.64 0.57 1.74 1920
0.05 0.00 -2.76 -15.79 12.61 -1.89 0.64 1.91 1927
0.05 -0.01 -3.16 -16.03 11.08 -2.16 0.83 2.08 1933
0.04 -0.00 -3.46 -17.32 9.44 -2.38 1.06 2.24 1939
0.05 0.01 -3.84 -19.14 8.10 -2.55 1.18 2.36 1945
0.05 -0.00 -3.78 -20.76 6.86 -2.59 1.18 2.44 1951
0.04 -0.00 -4.10 -22.46 4.82 -2.50 1.13 2.45 1958
0.06 -0.00 -4.88 -23.83 2.72 -2.24 1.06 2.40 1965
0.06 -0.01 -4.41 -24.46 1.25 -1.84 0.96 2.31 1971
0.04 -0.00 -6.40 -40.74 23.73 -0.89 0.43 2.11 1977
0.06 -0.01 -6.59 -25.49 -12.25 0.57 0.34 1.86 1983
0.05 -0.00 -7.49 -27.55 -6.88 1.22 -0.06 1.46 1990
0.04 -0.00 -8.05 -31.66 -0.06 1.96 -0.91 1.08 1996
0.06 -0.00 -10.22 -28.74 0.02 2.55 -1.61 0.71 2002
0.05 -0.00 -5.76 -7.31 1.66 3.03 -2.17 0.40 2009
0.04 0.06 -4.20 -1.74 7.77 3.11 -2.53 0.15 2015
0.03 0.37 -0.74 3.53 19.55 3.20 -2.04 0.11 2021
0.00 0.61 1.09 3.43 20.19 2.94 -1.29 0.27 2028
-0.01 0.69 0.86 0.64 18.14 2.63 -0.79 0.39 2034
-0.00 0.72 -0.88 -2.58 15.85 2.44 -0.41 0.38 2040
-0.00 0.76 -2.17 -3.47 14.20 2.43 -0.34 0.32 2046
-0.01 0.86 -2.12 -3.22 13.49 2.59 -0.39 0.22 2054
-0.01 0.89 -1.69 -3.56 18.43 2.86 -0.16 0.09 2060
-0.01 0.92 -1.98 -3.78 21.03 2.91 0.22 -0.08 2066
-0.00 0.94 -0.27 -3.00 21.43 2.61 0.57 -0.26 2072
0.00 0.96 2.14 -3.37 24.95 2.03 0.87 -0.29 2078
-0.00 0.95 2.46 -2.45 11.92 0.38 0.18 -0.07 2085
0.01 0.99 1.73 -1.73 10.51 0.03 0.01 0.07 2092
0.01 0.99 0.81 -1.25 10.13 0.06 -0.09 0.07 2098
-0.00 0.99 0.91 -0.67 10.90 0.08 -0.14 0.05 2104
0.01 1.01 0.77 -0.12 10.13 0.03 -0.09 0.06 2110
-0.00 1.03 0.40 -0.23 9.34 0.01 -0.06 0.07 2117
0.02 1.06 0.48 0.04 11.01 0.00 -0.04 0.07 2123
0.03 1.08 0.93 -1.44 9.90 0.00 -0.02 0.09 2129
0.05 1.09 0.82 -1.24 9.80 0.01 -0.04 0.09 2136
0.04 1.11 0.74 -1.14 9.91 0.02 -0.06 0.09 2142
0.06 1.14 0.89 -1.07 9.98 0.03 -0.06 0.10 2148
0.09 1.15 0.83 -1.04 9.90 0.03 -0.06 0.10 2154
0.09 1.15 0.77 -0.96 9.86 0.03 -0.06 0.11 2161
0.08 1.17 0.82 -1.00 9.97 0.03 -0.06 0.12 2167
0.10 1.17 0.78 -0.91 9.92 0.03 -0.07 0.13 2173
0.13 1.17 0.72 -0.91 9.94 0.03 -0.07 0.14 2180
0.13 1.14 0.75 -0.91 9.95 0.04 -0.06 0.15 2186
0.13 1.13 0.70 -0.88 9.97 0.04 -0.05 0.15 2192
0.15 1.11 0.68 -0.91 9.93 0.03 -0.03 0.16 2199
0.17 1.10 0.69 -0.90 9.92 0.03 -0.02 0.16 2205
0.18 1.08 0.68 -0.85 9.87 0.03 -0.00 0.16 2211
0.17 1.04 0.70 -0.92 9.92 0.03 0.01 0.18 2217
0.19 1.02 0.70 -0.92 9.91 0.02 0.02 0.19 2224
0.20 0.99 0.76 -0.91 9.94 0.03 0.02 0.19 2230
0.20 0.97 0.79 -0.86 9.88 0.03 0.01 0.19 2236
0.21 0.94 0.76 -0.89 9.91 0.03 0.01 0.18 2243
0.22 0.87 0.79 -0.89 9.87 0.03 0.00 0.19 2249
0.23 0.83 0.81 -0.89 9.81 0.04 -0.01 0.19 2255
0.27 0.77 0.75 -0.88 9.82 0.04 -0.02 0.16 2262
0.30 0.71 0.75 -0.89 9.85 0.04 -0.03 0.17 2268
0.29 0.68 0.75 -0.91 9.86 0.04 -0.03 0.18 2274
0.30 0.63 0.74 -0.90 9.91 0.05 -0.03 0.18 2280
0.30 0.60 0.74 -0.90 9.90 0.05 -0.03 0.18 2287
0.28 0.54 0.73 -0.91 9.94 0.05 -0.02 0.18 2293
0.33 0.48 0.70 -0.94 9.90 0.06 -0.01 0.18 2299
0.34 0.43 0.77 -0.92 9.89 0.06 -0.01 0.18 2306
0.34 0.35 0.79 -0.93 9.90 0.06 -0.01 0.17 2312
0.37 0.31 0.75 -0.94 9.87 0.07 -0.00 0.18 2318
0.39 0.23 0.80 -0.98 9.92 0.07 -0.00 0.17 2324
0.42 0.11 0.81 -0.99 9.90 0.07 -0.00 0.16 2331
0.41 0.07 0.80 -0.97 9.90 0.08 -0.00 0.16 2337
0.44 0.02 0.80 -1.04 9.87 0.08 -0.00 0.16 2343
0.44 -0.01 0.82 -1.05 9.88 0.08 -0.00 0.15 2350
0.45 -0.01 0.84 -1.06 9.90 0.09 -0.00 0.14 2356
0.43 0.00 0.85 -1.09 9.83 0.09 -0.00 0.14 2362
0.48 0.01 0.87 -1.07 9.97 0.09 -0.00 0.12 2368
0.49 -0.01 0.84 -1.08 9.90 0.10 -0.01 0.13 2375
0.49 0.01 0.87 -1.12 9.87 0.11 -0.01 0.11 2381
0.52 0.00 0.84 -1.14 9.88 0.11 -0.02 0.10 2387
0.49 -0.00 0.86 -1.16 9.90 0.12 -0.03 0.09 2394
0.47 -0.00 0.96 -1.17 9.92 0.17 -0.05 0.10 2400
0.53 0.00 1.00 -1.15 9.93 0.15 -0.07 0.08 2406
0.52 -0.02 0.95 -1.25 9.92 0.16 -0.08 0.07 2412
0.52 -0.02 0.96 -1.24 9.95 0.17 -0.10 0.05 2419
0.54 -0.01 0.96 -1.31 9.92 0.17 -0.10 0.04 2425
0.59 -0.02 1.01 -1.30 9.91 0.18 -0.12 0.03 2432
0.58 -0.03 1.01 -1.33 9.89 0.17 -0.14 0.02 2438
0.61 -0.02 0.98 -1.35 9.88 0.17 -0.15 0.01 2444
0.64 -0.02 0.93 -1.38 9.83 0.17 -0.17 -0.00 2450
0.65 -0.02 0.91 -1.34 9.81 0.15 -0.17 -0.01 2457
0.68 -0.01 0.93 -1.43 9.93 0.14 -0.18 -0.02 2463
0.73 -0.02 0.95 -1.44 9.89 0.14 -0.19 -0.03 2469
0.76 -0.02 0.92 -1.45 9.92 0.13 -0.19 -0.04 2476
0.78 -0.02 0.97 -1.47 10.03 0.14 -0.19 -0.04 2482
0.85 -0.02 0.92 -1.50 9.98 0.15 -0.20 -0.05 2488
0.87 -0.02 0.89 -1.49 9.96 0.15 -0.20 -0.06 2495
0.90 -0.02 0.89 -1.54 10.02 0.16 -0.20 -0.06 2501
0.92 -0.01 0.90 -1.58 9.91 0.17 -0.20 -0.07 2507
0.96 -0.01 0.84 -1.56 9.99 0.18 -0.19 -0.07 2513
0.99 -0.02 0.88 -1.60 10.07 0.19 -0.19 -0.07 2520
1.01 -0.01 0.81 -1.59 10.08 0.20 -0.19 -0.07 2527
1.07 -0.02 0.85 -1.63 9.98 0.21 -0.19 -0.07 2533
1.10 -0.03 0.82 -1.61 10.02 0.22 -0.18 -0.07 2539
1.13 -0.02 0.77 -1.67 10.11 0.24 -0.19 -0.08 2545
1.19 -0.03 0.83 -1.66 10.16 0.26 -0.19 -0.08 2551
1.21 -0.02 0.79 -1.74 10.15 0.28 -0.19 -0.08 2558
1.27 -0.02 0.84 -1.71 10.27 0.32 -0.19 -0.08 2565
1.31 -0.03 0.78 -1.76 10.37 0.36 -0.20 -0.08 2571
1.37 -0.03 0.75 -1.96 10.50 0.42 -0.19 -0.09 2577
1.39 -0.03 0.80 -1.92 10.67 0.48 -0.20 -0.09 2584
1.42 -0.03 0.76 -1.34 10.60 0.54 -0.21 -0.10 2590
1.48 -0.05 0.73 -1.92 10.76 0.61 -0.22 -0.10 2596
1.48 -0.04 0.66 -2.03 10.75 0.67 -0.21 -0.11 2603
1.56 -0.03 0.66 -2.01 10.84 0.73 -0.21 -0.10 2609
1.57 -0.05 0.69 -1.89 11.01 0.80 -0.20 -0.09 2616
1.60 -0.07 0.66 -2.14 11.26 0.86 -0.17 -0.09 2622
1.63 -0.05 0.60 -2.19 11.27 0.94 -0.17 -0.09 2628
1.66 -0.05 0.71 -2.30 11.42 1.02 -0.18 -0.09 2634
1.69 -0.06 0.69 -2.27 11.35 1.07 -0.22 -0.09 2641
1.72 -0.04 0.75 -2.43 11.65 1.17 -0.24 -0.10 2648
1.72 -0.06 0.72 -2.33 11.51 1.31 -0.26 -0.11 2654
1.74 -0.06 0.67 -2.63 11.73 1.47 -0.26 -0.12 2660
1.74 -0.05 0.63 -2.68 12.02 1.65 -0.28 -0.13 2666
1.74 -0.08 0.73 -2.80 11.93 1.81 -0.28 -0.13 2673
1.74 -0.05 0.85 -2.89 11.98 1.98 -0.30 -0.15 2679
1.72 -0.07 0.87 -3.03 12.49 2.15 -0.33 -0.17 2685
1.64 -0.05 0.71 -3.11 12.75 2.31 -0.35 -0.18 2692
1.63 -0.05 0.84 -3.34 12.79 2.52 -0.37 -0.22 2699
1.55 -0.06 0.87 -3.55 12.95 2.71 -0.40 -0.25 2705
1.50 -0.06 1.21 -3.80 12.88 2.89 -0.45 -0.30 2711
1.38 -0.03 1.20 -3.90 12.89 3.10 -0.49 -0.35 2717
1.22 -0.02 1.12 -4.00 13.23 3.31 -0.51 -0.41 2724
1.16 -0.00 1.02 -4.38 13.57 3.57 -0.51 -0.46 2731
0.96 -0.00 0.97 -4.67 14.36 3.82 -0.52 -0.52 2737
0.86 -0.01 1.47 -5.25 14.63 4.08 -0.52 -0.57 2743
0.75 -0.03 1.50 -5.87 15.46 4.23 -0.57 -0.63 2750
0.66 -0.03 1.39 -6.32 16.06 4.28 -0.59 -0.67 2756
0.56 -0.00 1.46 -7.14 17.39 4.28 -0.64 -0.70 2762
0.46 -0.01 1.06 -9.08 19.50 4.28 -0.64 -0.69 2768
0.48 -0.01 1.06 -10.56 21.96 4.28 -0.54 -0.65 2776
0.41 -0.01 0.85 -12.37 22.41 4.28 -0.39 -0.60 2782
0.32 -0.02 0.81 -12.73 22.23 4.28 -0.24 -0.56 2788
0.27 0.00 0.34 -11.88 21.60 4.28 -0.20 -0.54 2794
0.21 -0.01 -0.09 -10.72 20.25 4.28 -0.20 -0.48 2801
0.17 -0.00 0.01 -9.60 21.87 4.28 -0.14 -0.42 2807
0.16 0.00 0.26 -8.17 23.24 4.28 -0.14 -0.43 2813
0.12 -0.01 0.81 -6.38 23.35 4.28 -0.23 -0.42 2820
0.08 0.00 2.54 -2.62 24.05 4.26 -0.39 -0.46 2826
0.08 -0.00 2.83 -1.70 22.15 4.24 -0.60 -0.48 2833
0.05 -0.00 4.04 1.14 21.28 4.22 -0.77 -0.51 2839
0.06 -0.00 4.54 4.45 20.57 4.26 -0.84 -0.56 2845
0.06 -0.00 4.34 7.51 19.24 4.28 -0.58 -0.63 2851
0.04 -0.00 3.60 8.84 15.56 4.28 -0.24 -0.78 2857
0.05 0.00 -2.92 10.95 -21.70 4.28 -0.26 -1.22 2865
0.05 -0.00 5.29 5.42 3.82 4.01 -0.82 -1.64 2871
0.05 0.00 4.55 13.36 6.84 2.38 -0.90 -1.82 2877
0.05 0.01 3.86 18.65 12.73 0.69 -0.27 -1.86 2883
0.05 0.00 6.10 12.73 17.18 -0.41 0.31 -1.86 2890
0.04 0.01 4.29 10.02 14.81 -1.31 0.57 -1.89 2896
0.05 0.00 3.27 7.81 13.28 -1.94 0.89 -1.79 2903
0.05 -0.01 3.00 8.28 10.25 -2.43 0.96 -1.62 2909
0.05 0.01 2.87 8.26 8.36 -2.77 0.96 -1.49 2915
0.06 0.01 2.57 7.29 7.31 -3.00 0.92 -1.36 2921
0.05 0.00 2.55 5.91 6.79 -3.16 0.89 -1.22 2928
0.05 0.01 2.33 4.90 6.65 -3.26 0.84 -1.06 2934
0.06 0.01 2.15 4.28 6.47 -3.29 0.76 -0.90 2940
0.05 0.00 1.97 3.68 6.11 -3.29 0.67 -0.75 2947
0.04 0.01 1.83 3.19 5.85 -3.29 0.55 -0.59 2953
0.05 0.01 1.71 2.94 6.14 -3.28 0.43 -0.44 2959
0.05 0.00 2.40 2.71 6.54 -3.29 0.33 -0.30 2966
0.05 -0.01 2.02 2.54 7.52 -3.32 0.24 -0.17 2972
0.05 0.00 2.36 2.29 8.51 -3.41 0.20 -0.08 2978
0.06 -0.01 2.65 2.02 9.32 -3.55 0.24 0.02 2984
0.04 -0.00 2.95 1.64 10.21 -3.74 0.35 0.11 2991
0.04 -0.00 2.96 1.13 10.82 -3.95 0.52 0.18 2997
0.05 0.00 2.91 0.61 11.25 -4.13 0.71 0.25 3003
0.05 -0.01 2.85 0.48 11.59 -4.21 0.88 0.31 3010
0.04 -0.00 2.60 -0.48 11.83 -4.26 1.06 0.36 3016
0.06 -0.00 2.39 -1.16 11.91 -4.28 1.19 0.40 3022
0.05 0.00 2.13 -1.92 12.10 -4.28 1.34 0.44 3028
0.04 0.00 1.69 -2.56 12.50 -4.28 1.48 0.46 3035
0.05 0.01 1.45 -3.40 12.91 -4.28 1.60 0.46 3042
0.05 0.01 1.12 -4.24 13.26 -4.27 1.70 0.44 3048
0.04 -0.00 0.77 -4.98 13.70 -4.25 1.78 0.40 3054
0.05 0.01 0.42 -5.59 14.28 -4.21 1.83 0.35 3060
0.05 -0.00 0.02 -5.96 14.91 -4.16 1.86 0.30 3066
0.04 -0.00 -0.30 -6.18 15.81 -4.10 1.87 0.25 3073
0.05 0.01 -0.60 -6.13 16.55 -4.08 1.87 0.21 3080
0.05 0.00 -0.96 -6.00 17.25 -4.06 1.87 0.20 3086
0.04 0.01 -1.26 -6.11 17.64 -4.07 1.87 0.21 3092
0.05 0.00 -1.48 -6.38 17.94 -4.06 1.86 0.25 3098
0.05 0.00 -1.76 -6.62 17.92 -4.04 1.85 0.29 3104
0.04 0.00 -1.81 -6.95 17.79 -3.98 1.80 0.32 3111
0.06 -0.00 -1.91 -7.45 17.84 -3.87 1.71 0.35 3118
0.05 -0.01 -1.88 -7.92 17.85 -3.73 1.59 0.36 3124
0.05 -0.00 -1.69 -8.42 17.75 -3.57 1.44 0.36 3130
0.06 -0.01 -1.36 -8.90 17.68 -3.41 1.30 0.34 3136
0.05 -0.00 -0.94 -9.51 17.46 -3.24 1.17 0.32 3143
0.05 -0.00 -0.58 -10.09 17.11 -3.06 1.07 0.29 3149
0.06 -0.01 -0.29 -10.68 16.70 -2.86 0.97 0.28 3155
0.06 -0.01 -0.02 -11.21 16.15 -2.63 0.87 0.27 3162
0.05 -0.01 0.12 -11.62 15.87 -2.36 0.76 0.27 3168
0.06 -0.01 0.17 -11.92 15.66 -2.05 0.66 0.28 3175
0.06 -0.01 0.40 -12.15 15.75 -1.80 0.58 0.30 3181
0.06 -0.00 0.57 -12.28 15.58 -1.57 0.55 0.34 3187
0.06 -0.01 0.59 -12.57 16.08 -1.34 0.56 0.38 3193
0.05 -0.00 0.27 -12.82 17.02 -1.19 0.58 0.44 3201
0.06 -0.01 -0.29 -13.06 17.54 -1.16 0.59 0.49 3207
0.06 -0.01 -0.62 -13.23 17.67 -1.27 0.60 0.54 3213
0.05 -0.01 -0.89 -12.77 16.20 -1.47 0.66 0.61 3219
0.07 -0.01 -1.33 -12.21 14.07 -1.69 0.89 0.75 3225
0.06 -0.01 -1.96 -12.49 12.28 -1.91 1.33 0.98 3232
0.06 -0.01 -3.14 -13.18 11.27 -2.09 1.78 1.27 3238
0.06 -0.01 -4.69 -14.42 10.94 -2.19 2.07 1.52 3245
0.05 -0.01 -5.81 -16.52 10.25 -2.22 2.05 1.73 3251
0.06 -0.01 -6.90 -18.13 9.24 -2.19 1.66 1.87 3257
0.07 -0.01 -7.53 -19.18 7.36 -2.09 1.08 1.92 3264
0.05 -0.00 -7.60 -20.13 4.96 -1.93 0.52 1.93 3270
0.06 -0.00 -7.16 -20.84 3.09 -1.70 0.10 1.91 3276
0.07 -0.01 -6.54 -21.41 2.15 -1.40 -0.16 1.85 3282
0.06 -0.01 -5.87 -21.84 1.85 -1.05 -0.33 1.73 3289
0.06 -0.00 -4.98 -21.86 2.00 -0.73 -0.43 1.55 3296
0.06 -0.01 -3.71 -38.99 16.58 -0.06 -0.78 1.28 3302
0.05 -0.00 -6.07 -22.38 -6.85 1.46 -0.57 0.98 3308
0.06 -0.00 -5.78 -25.76 -1.81 1.83 -0.91 0.66 3314
0.05 -0.01 -6.94 -28.98 2.77 2.32 -1.46 0.44 3320
0.04 -0.00 -4.96 -13.15 2.92 2.81 -1.94 0.29 3328
0.05 0.12 -3.04 0.02 5.19 2.88 -2.16 0.18 3334
0.03 0.42 0.82 2.63 17.76 3.14 -1.83 0.20 3340
-0.01 0.62 2.70 4.76 18.49 3.01 -1.16 0.39 3346
0.00 0.65 2.46 0.95 16.76 2.73 -0.60 0.56 3352
0.00 0.69 0.22 -2.51 15.62 2.57 -0.27 0.63 3359
-0.01 0.77 -2.17 -3.43 15.40 2.43 -0.20 0.62 3365
0.01 0.79 -3.95 -3.50 13.61 2.46 -0.23 0.50 3372
-0.01 0.85 -4.56 -3.41 14.98 2.63 -0.19 0.28 3378
-0.00 0.92 -4.45 -2.86 17.59 2.75 -0.01 0.02 3384
0.00 0.93 -2.83 -2.57 19.23 2.68 0.18 -0.29 3391
-0.01 0.98 2.05 -2.60 19.22 2.50 0.49 -0.49 3397
-0.01 1.08 3.92 -2.47 17.01 2.25 0.85 -0.44 3403
-0.01 1.10 4.10 -2.72 19.69 2.00 0.81 -0.30 3409
-0.03 1.11 2.55 -2.25 13.36 0.66 -0.24 -0.04 3417
0.01 1.15 1.28 -1.57 11.59 0.22 -0.31 0.11 3423
-0.01 1.19 0.38 -1.22 10.58 0.13 -0.28 0.10 3429
-0.01 1.20 0.51 -1.57 10.42 0.11 -0.22 0.07 3435
0.01 1.21 1.21 -1.30 10.42 0.06 -0.13 0.06 3441
-0.01 1.22 1.12 -0.11 10.62 0.01 -0.07 0.07 3448
0.01 1.22 0.96 -1.08 10.10 0.01 -0.05 0.09 3454
0.02 1.22 1.09 -2.27 10.80 -0.00 -0.06 0.07 3461
0.04 1.24 0.91 -1.21 10.06 0.00 -0.03 0.09 3467
0.05 1.25 0.88 -1.16 9.91 0.00 -0.04 0.09 3473
0.05 1.26 0.85 -1.06 9.81 0.03 -0.06 0.09 3480
0.03 1.25 0.84 -1.05 9.93 0.03 -0.07 0.10 3486
0.05 1.26 0.80 -1.07 9.93 0.04 -0.08 0.10 3492
0.08 1.26 0.83 -1.06 9.87 0.04 -0.09 0.10 3499
0.07 1.27 0.82 -1.00 9.90 0.03 -0.10 0.10 3505
0.06 1.25 0.79 -1.01 9.98 0.03 -0.09 0.11 3511
0.08 1.26 0.78 -0.98 10.03 0.02 -0.08 0.12 3517
0.06 1.25 0.72 -0.95 9.94 0.03 -0.08 0.12 3524
0.06 1.23 0.74 -0.99 9.92 0.03 -0.08 0.13 3530
0.09 1.22 0.73 -0.98 9.89 0.03 -0.08 0.13 3536
0.12 1.19 0.74 -0.99 9.88 0.03 -0.08 0.13 3543
0.12 1.16 0.70 -0.97 9.87 0.03 -0.08 0.14 3549
0.13 1.14 0.66 -0.99 9.88 0.03 -0.09 0.15 3555
0.15 1.11 0.69 -0.93 9.85 0.03 -0.07 0.15 3562
0.13 1.08 0.71 -0.95 9.90 0.04 -0.08 0.15 3568
0.15 1.04 0.72 -0.95 9.84 0.04 -0.08 0.14 3574
0.17 1.02 0.69 -0.97 9.83 0.04 -0.09 0.16 3580
0.15 1.02 0.74 -0.98 9.88 0.04 -0.09 0.16 3587
0.15 0.99 0.71 -0.96 9.90 0.05 -0.10 0.15 3593
0.18 0.94 0.74 -0.96 9.87 0.05 -0.11 0.15 3599
0.20 0.89 0.69 -0.95 9.87 0.05 -0.11 0.16 3606
0.21 0.83 0.70 -0.94 9.87 0.05 -0.11 0.15 3612
0.23 0.83 0.63 -0.97 9.90 0.05 -0.10 0.16 3618
0.23 0.79 0.63 -0.98 9.85 0.05 -0.10 0.16 3624
0.24 0.72 0.62 -0.99 9.90 0.05 -0.09 0.16 3631
0.27 0.67 0.62 -0.99 9.90 0.05 -0.08 0.16 3637
0.31 0.66 0.65 -0.99 9.89 0.05 -0.07 0.17 3644
0.32 0.62 0.66 -1.01 9.87 0.05 -0.07 0.18 3650
0.30 0.56 0.70 -1.02 9.88 0.05 -0.07 0.17 3656
0.32 0.55 0.69 -1.03 9.85 0.05 -0.07 0.18 3662
0.36 0.48 0.67 -1.04 9.88 0.06 -0.08 0.17 3668
0.38 0.44 0.68 -1.01 9.87 0.06 -0.08 0.16 3675
0.41 0.36 0.67 -1.07 9.90 0.06 -0.08 0.15 3681
0.42 0.35 0.67 -1.06 9.84 0.06 -0.08 0.15 3688
0.43 0.28 0.64 -1.07 9.84 0.06 -0.08 0.15 3694
0.46 0.24 0.66 -1.09 9.91 0.07 -0.08 0.15 3700
0.48 0.17 0.69 -1.10 9.87 0.06 -0.07 0.14 3706
0.50 0.13 0.64 -1.12 9.85 0.06 -0.07 0.14 3713
0.49 0.10 0.68 -1.11 9.84 0.07 -0.07 0.13 3719
0.54 0.04 0.64 -1.13 9.90 0.06 -0.07 0.12 3726
0.57 0.02 0.64 -1.09 9.87 0.06 -0.07 0.12 3732
0.59 0.00 0.67 -1.17 9.86 0.07 -0.08 0.11 3738
0.64 -0.02 0.67 -1.14 9.93 0.07 -0.08 0.11 3744
0.70 -0.02 0.71 -1.17 9.87 0.08 -0.09 0.10 3750
0.70 -0.02 0.72 -1.19 9.91 0.08 -0.10 0.09 3757
0.70 -0.02 0.71 -1.19 9.94 0.09 -0.11 0.09 3763
0.78 -0.02 0.68 -1.15 9.94 0.09 -0.12 0.08 3770
0.80 -0.03 0.64 -1.21 9.96 0.10 -0.12 0.07 3776
0.88 -0.02 0.71 -1.26 9.98 0.11 -0.13 0.06 3782
0.90 -0.01 0.69 -1.24 10.02 0.12 -0.13 0.05 3788
0.94 -0.03 0.73 -1.29 10.08 0.13 -0.13 0.04 3794
0.94 -0.03 0.70 -1.33 10.04 0.14 -0.14 0.03 3802
0.96 -0.02 0.69 -1.40 9.96 0.15 -0.14 0.02 3808
0.98 -0.02 0.69 -1.36 10.05 0.15 -0.13 0.01 3814
1.03 -0.02 0.68 -1.44 9.99 0.17 -0.14 0.00 3820
1.07 -0.02 0.77 -1.46 10.04 0.19 -0.15 -0.01 3826
1.07 -0.02 0.74 -1.47 9.99 0.20 -0.16 -0.02 3832
1.09 -0.04 0.75 -1.51 10.05 0.22 -0.17 -0.03 3840
1.13 -0.02 0.70 -1.52 9.93 0.23 -0.17 -0.04 3846
1.17 -0.03 0.72 -1.55 10.00 0.25 -0.18 -0.04 3852
1.17 -0.04 0.73 -1.65 9.99 0.26 -0.19 -0.05 3858
1.19 -0.04 0.63 -1.57 10.16 0.28 -0.19 -0.06 3864
1.25 -0.04 0.63 -1.60 10.35 0.30 -0.20 -0.07 3871
1.29 -0.05 0.72 -1.64 10.20 0.33 -0.19 -0.07 3877
1.29 -0.03 0.68 -1.66 10.31 0.38 -0.19 -0.07 3884
1.32 -0.04 0.62 -1.82 10.57 0.44 -0.19 -0.07 3890
1.34 -0.02 0.66 -1.82 10.49 0.49 -0.20 -0.07 3897
1.38 -0.04 0.65 -1.81 10.59 0.55 -0.19 -0.07 3903
1.45 -0.05 0.57 -1.79 10.70 0.62 -0.19 -0.07 3909
1.48 -0.04 0.54 -1.77 10.76 0.69 -0.18 -0.07 3915
1.51 -0.03 0.51 -1.90 10.91 0.75 -0.18 -0.06 3921
1.54 -0.04 0.62 -1.87 11.14 0.81 -0.17 -0.06 3929
1.56 -0.04 0.65 -2.04 11.27 0.89 -0.17 -0.06 3935
1.56 -0.06 0.63 -2.12 11.39 0.95 -0.15 -0.06 3941
1.56 -0.05 0.71 -2.23 11.59 1.02 -0.16 -0.07 3947
1.61 -0.04 0.62 -2.28 11.36 1.07 -0.19 -0.07 3954
1.63 -0.05 0.60 -2.36 11.42 1.16 -0.20 -0.08 3960
1.68 -0.04 0.69 -2.34 11.43 1.26 -0.22 -0.09 3966
1.70 -0.05 0.56 -2.43 11.44 1.38 -0.24 -0.10 3973
1.71 -0.07 0.69 -2.72 12.09 1.52 -0.26 -0.11 3979
1.71 -0.06 0.79 -2.76 12.57 1.72 -0.29 -0.12 3986
1.67 -0.07 0.70 -2.83 12.69 1.94 -0.32 -0.14 3992
1.63 -0.04 0.80 -2.95 12.41 2.13 -0.34 -0.17 3998
1.63 -0.05 0.79 -3.19 12.37 2.30 -0.37 -0.20 4004
1.55 -0.05 0.84 -2.79 12.85 2.44 -0.38 -0.23 4012
1.51 -0.04 0.97 -3.45 12.89 2.66 -0.41 -0.27 4018
1.43 -0.04 1.10 -3.74 13.26 2.88 -0.44 -0.32 4024
1.31 -0.04 1.26 -3.81 13.47 3.07 -0.47 -0.38 4030
1.24 -0.05 1.22 -4.10 14.19 3.33 -0.52 -0.44 4037
1.12 -0.04 0.97 -4.56 14.51 3.62 -0.58 -0.52 4043
0.95 -0.02 1.75 -4.76 15.25 3.92 -0.64 -0.60 4049
0.82 -0.03 1.95 -5.31 15.12 4.15 -0.73 -0.68 4056
0.68 -0.03 1.44 -5.78 16.17 4.26 -0.78 -0.75 4063
0.60 -0.03 1.81 -6.85 17.46 4.28 -0.85 -0.81 4069
0.51 -0.03 1.62 -8.14 19.25 4.28 -0.85 -0.83 4075
0.45 -0.01 1.75 -9.79 21.57 4.28 -0.73 -0.81 4081
0.40 -0.02 1.65 -12.06 22.96 4.28 -0.58 -0.78 4088
0.35 -0.02 1.93 -12.71 22.90 4.28 -0.37 -0.76 4094
0.36 -0.01 1.87 -11.94 21.76 4.28 -0.21 -0.76 4101
0.26 -0.02 1.42 -10.40 21.45 4.28 -0.10 -0.74 4107
0.19 0.00 1.31 -9.04 22.65 4.28 0.07 -0.65 4114
0.14 -0.00 1.81 -8.12 23.75 4.28 0.25 -0.61 4120
0.10 0.00 2.40 -6.55 23.96 4.28 0.34 -0.64 4126
0.10 -0.00 2.85 -4.85 24.12 4.27 0.34 -0.67 4132
0.07 0.00 3.36 -2.00 24.26 4.24 0.27 -0.75 4139
0.06 0.01 3.59 1.13 23.95 4.23 0.20 -0.83 4146
0.07 0.02 3.51 4.69 22.59 4.28 0.25 -0.92 4152
0.06 -0.00 2.25 8.47 18.07 4.28 0.40 -1.05 4158
0.04 0.00 0.40 10.85 15.97 4.28 0.46 -1.28 4164
0.06 0.00 1.88 9.22 0.46 4.25 -0.35 -1.63 4170
0.06 -0.01 3.33 9.71 1.13 2.76 -1.02 -1.74 4177
0.05 -0.00 4.00 21.22 9.64 0.74 -0.96 -1.61 4184
0.06 -0.01 6.20 15.36 21.90 -0.48 -0.47 -1.42 4190
0.05 -0.01 5.19 8.09 18.11 -1.26 -0.24 -1.31 4196
0.06 -0.01 4.35 6.16 12.39 -1.84 -0.12 -1.16 4202
0.07 -0.01 3.52 8.31 8.21 -2.22 -0.05 -1.03 4208
0.05 -0.00 3.54 9.18 5.71 -2.41 0.02 -0.93 4214
0.05 -0.00 3.46 7.30 4.28 -2.48 0.08 -0.90 4221
0.06 -0.01 3.21 5.56 4.04 -2.48 0.19 -0.86 4228
0.07 -0.01 3.01 5.14 4.21 -2.47 0.32 -0.79 4234
0.06 -0.01 2.81 4.96 4.48 -2.45 0.41 -0.71 4240
0.05 -0.00 2.55 4.63 4.51 -2.45 0.50 -0.64 4246
0.05 -0.00 2.22 4.51 5.03 -2.50 0.55 -0.57 4252
0.06 -0.01 1.90 4.54 5.76 -2.60 0.56 -0.47 4258
0.05 -0.01 1.70 4.48 6.73 -2.72 0.53 -0.36 4264
0.04 -0.00 1.75 4.34 7.60 -2.86 0.46 -0.25 4271
0.06 0.00 1.78 4.16 8.11 -3.00 0.39 -0.14 4278
0.05 -0.01 1.91 3.89 8.45 -3.19 0.38 -0.02 4284
0.05 -0.01 2.11 3.54 8.81 -3.39 0.41 0.09 4290
0.05 -0.00 2.17 2.96 9.78 -3.58 0.46 0.17 4296
0.06 0.00 2.24 2.64 9.65 -3.75 0.56 0.24 4302
0.05 -0.01 2.33 1.47 10.38 -3.92 0.65 0.28 4308
0.05 -0.00 2.39 0.19 10.63 -4.05 0.78 0.32 4315
0.05 0.00 2.23 -0.47 11.30 -4.12 0.92 0.36 4322
0.05 -0.01 2.01 -1.01 11.73 -4.17 1.06 0.38 4328
0.04 -0.00 1.87 -1.63 11.99 -4.19 1.17 0.39 4334
0.04 -0.00 1.59 -2.19 12.18 -4.20 1.29 0.38 4340
0.06 -0.01 1.26 -2.68 12.60 -4.19 1.39 0.36 4346
0.05 -0.01 0.99 -3.37 13.17 -4.17 1.45 0.33 4353
0.05 -0.01 0.78 -4.07 13.54 -4.13 1.48 0.28 4360
0.07 -0.01 0.32 -4.70 14.25 -4.08 1.50 0.22 4366
0.05 -0.01 0.10 -5.13 14.69 -4.02 1.50 0.16 4372
0.04 -0.00 -0.16 -5.51 15.21 -3.95 1.50 0.11 4378
0.06 -0.01 -0.52 -5.89 15.60 -3.90 1.48 0.05 4384
0.06 -0.01 -0.80 -6.16 15.84 -3.83 1.45 -0.00 4390
0.05 -0.00 -1.00 -6.49 16.27 -3.77 1.37 -0.04 4398
0.05 -0.00 -1.14 -6.68 16.53 -3.70 1.36 -0.07 4404
0.05 -0.01 -1.34 -6.71 16.68 -3.62 1.32 -0.07 4410
0.04 -0.00 -1.21 -6.84 16.72 -3.53 1.29 -0.07 4416
0.06 -0.00 -1.18 -6.93 16.84 -3.44 1.26 -0.05 4422
0.05 -0.01 -1.19 -7.15 16.97 -3.33 1.22 -0.03 4428
0.04 -0.00 -1.14 -7.41 16.99 -3.22 1.16 -0.01 4435
0.05 0.01 -1.12 -7.68 16.92 -3.10 1.09 0.02 4442
0.06 -0.00 -1.13 -7.97 17.01 -2.98 1.01 0.04 4448
0.04 0.00 -1.17 -8.32 17.23 -2.86 0.90 0.06 4454
0.05 0.00 -1.14 -8.82 17.41 -2.75 0.77 0.08 4460
0.06 -0.01 -1.00 -9.34 17.62 -2.67 0.65 0.09 4467
0.04 -0.00 -0.71 -9.74 17.72 -2.56 0.56 0.10 4473
0.06 0.00 -0.33 -10.13 17.61 -2.45 0.52 0.11 4480
0.05 -0.01 0.06 -10.73 17.32 -2.32 0.55 0.13 4486
0.05 -0.00 0.56 -11.18 17.08 -2.18 0.66 0.18 4492
0.07 -0.01 0.89 -11.48 16.79 -2.04 0.85 0.25 4499
0.05 -0.01 0.94 -11.84 17.09 -1.94 1.07 0.31 4505
0.05 -0.00 0.55 -11.97 17.33 -1.89 1.26 0.40 4511
0.06 -0.01 -0.10 -12.11 17.46 -1.92 1.39 0.49 4517
0.05 -0.01 -0.59 -12.34 17.04 -2.01 1.44 0.59 4525
0.05 -0.01 -1.01 -12.78 16.23 -2.14 1.42 0.69 4531
0.06 -0.01 -1.21 -13.44 14.90 -2.28 1.39 0.81 4537
0.05 -0.00 -1.17 -14.17 13.25 -2.37 1.35 0.92 4543
0.05 -0.01 -1.17 -14.88 11.58 -2.39 1.32 1.03 4549
0.05 -0.01 -1.07 -15.48 9.74 -2.32 1.32 1.12 4556
0.04 -0.00 -1.43 -16.20 7.92 -2.15 1.34 1.21 4562
0.05 0.00 -2.18 -16.30 5.69 -1.90 1.40 1.29 4569
0.05 -0.00 -3.41 -16.05 4.23 -1.64 1.59 1.40 4575
0.04 -0.00 -5.23 -16.12 3.76 -1.30 1.87 1.58 4581
0.05 0.00 -6.84 -17.01 4.63 -0.96 2.02 1.72 4587
0.04 -0.00 -8.50 -18.04 5.67 -0.70 1.80 1.73 4594
0.04 -0.00 -9.31 -18.73 5.98 -0.50 1.16 1.63 4600
0.05 0.00 -9.03 -18.39 5.46 -0.33 0.38 1.47 4606
0.05 -0.00 -7.51 -17.77 4.96 -0.17 -0.25 1.30 4613
0.04 -0.00 -5.98 -17.40 4.97 0.02 -0.57 1.13 4619
0.05 0.00 -4.41 -16.92 5.53 0.24 -0.65 0.96 4626
0.05 -0.00 -4.46 -20.22 4.13 0.47 -0.67 0.79 4632
0.04 -0.00 -6.33 -22.76 19.91 2.23 -1.42 0.77 4638
0.04 0.00 -8.53 -16.32 -2.45 2.18 -1.77 0.65 4644
0.05 -0.00 -4.13 -13.18 5.17 2.42 -2.48 0.63 4651
0.03 0.00 -0.94 0.64 7.00 2.51 -2.60 0.52 4657
0.03 0.21 0.88 7.09 11.23 2.57 -1.99 0.63 4664
0.02 0.52 1.88 3.62 14.44 2.62 -1.50 0.83 4670
0.01 0.60 0.46 2.65 11.25 2.61 -1.11 0.92 4676
0.01 0.65 -0.34 -1.79 11.82 2.67 -0.77 0.91 4682
0.00 0.70 -1.51 -2.30 11.98 2.78 -0.61 0.90 4689
0.00 0.73 -1.93 -3.21 13.06 2.83 -0.40 0.90 4696
0.01 0.76 -3.13 -3.55 15.19 2.85 -0.20 0.84 4702
-0.01 0.84 -5.39 -2.97 17.02 2.79 -0.09 0.66 4708
-0.01 0.88 -6.33 -2.91 18.50 2.70 -0.14 0.33 4714
-0.00 0.94 -4.75 -3.16 18.58 2.61 -0.12 -0.05 4721
-0.01 1.00 -1.04 -2.71 16.40 2.55 0.22 -0.31 4727
-0.00 1.03 1.63 -2.25 16.01 2.50 0.63 -0.40 4733
-0.00 1.06 2.51 -2.87 16.78 2.42 0.96 -0.41 4740
-0.01 1.13 4.50 -3.60 26.27 1.97 0.92 -0.33 4747
-0.00 1.16 2.62 -2.72 10.70 0.27 -0.18 0.03 4753
0.01 1.18 1.09 -1.52 10.61 0.09 -0.23 0.14 4759
0.01 1.23 0.29 -1.47 10.61 0.12 -0.25 0.11 4765
0.02 1.25 0.63 -0.48 11.08 0.10 -0.17 0.06 4771
0.02 1.25 0.52 -2.54 9.77 0.03 -0.05 0.09 4779
0.04 1.27 0.90 -1.31 10.08 -0.00 -0.00 0.11 4785
0.05 1.29 0.87 -1.18 9.98 -0.00 0.00 0.10 4791
0.06 1.32 0.80 -1.25 10.06 -0.02 0.04 0.10 4797
0.06 1.32 0.77 -1.83 9.90 -0.02 0.06 0.10 4803
0.06 1.32 0.88 -1.14 9.96 -0.01 0.06 0.10 4809
0.05 1.34 0.87 -1.12 9.89 -0.00 0.05 0.10 4816
0.06 1.32 0.91 -1.13 9.91 0.04 0.04 0.11 4823
0.06 1.32 0.90 -1.16 9.87 0.02 0.03 0.10 4829
0.05 1.30 0.86 -1.14 9.84 0.02 0.03 0.11 4835
0.07 1.27 0.84 -1.04 9.85 0.03 0.02 0.11 4841
0.07 1.25 0.86 -1.10 9.98 0.04 0.01 0.11 4847
0.09 1.23 0.79 -1.12 9.94 0.05 0.01 0.12 4853
0.09 1.18 0.87 -1.10 9.86 0.05 0.01 0.13 4860
0.07 1.15 0.82 -1.09 9.90 0.05 0.01 0.14 4867
0.10 1.12 0.85 -1.07 9.87 0.05 0.01 0.15 4873
0.10 1.07 0.84 -1.11 9.89 0.04 0.01 0.15 4879
0.11 1.05 0.80 -1.11 9.90 0.04 0.01 0.15 4885
0.12 1.03 0.84 -1.07 9.88 0.04 0.02 0.17 4891
0.13 0.99 0.81 -1.03 9.89 0.03 0.02 0.17 4897
0.13 0.94 0.88 -1.08 9.85 0.03 0.02 0.17 4904
0.13 0.90 0.87 -1.07 9.82 0.03 0.01 0.16 4911
0.16 0.86 0.89 -1.07 9.83 0.04 0.00 0.16 4917
0.15 0.85 0.90 -1.03 9.83 0.04 -0.01 0.16 4923
0.16 0.80 0.86 -1.09 9.83 0.04 -0.02 0.15 4929
0.18 0.77 0.87 -1.11 9.81 0.05 -0.03 0.16 4935
0.20 0.72 0.87 -1.09 9.88 0.04 -0.04 0.15 4941
0.19 0.68 0.85 -1.08 9.83 0.04 -0.04 0.16 4948
0.20 0.62 0.79 -1.10 9.87 0.04 -0.04 0.16 4955
0.21 0.57 0.81 -1.08 9.83 0.04 -0.03 0.14 4961
0.22 0.55 0.83 -1.12 9.84 0.04 -0.03 0.16 4967
0.20 0.49 0.81 -1.14 9.85 0.04 -0.03 0.17 4973
0.22 0.49 0.84 -1.11 9.83 0.04 -0.03 0.16 4979
0.24 0.46 0.84 -1.13 9.82 0.04 -0.03 0.16 4985
0.25 0.43 0.85 -1.17 9.87 0.04 -0.03 0.15 4993
0.25 0.40 0.88 -1.14 9.82 0.04 -0.04 0.15 4999
0.27 0.31 0.87 -1.12 9.81 0.04 -0.05 0.15 5005
0.28 0.30 0.86 -1.13 9.83 0.05 -0.05 0.14 5011
0.30 0.28 0.86 -1.14 9.82 0.05 -0.07 0.14 5017
0.31 0.24 0.84 -1.15 9.83 0.05 -0.07 0.13 5023
0.32 0.20 0.88 -1.14 9.83 0.05 -0.08 0.14 5030
0.30 0.20 0.88 -1.16 9.83 0.05 -0.09 0.14 5037
0.33 0.13 0.86 -1.16 9.87 0.05 -0.10 0.14 5043
0.34 0.08 0.88 -1.12 9.88 0.05 -0.10 0.13 5049
0.32 0.04 0.84 -1.22 9.91 0.05 -0.10 0.13 5055
0.36 0.05 0.86 -1.17 9.84 0.06 -0.11 0.13 5061
0.39 0.01 0.83 -1.21 9.87 0.05 -0.11 0.13 5067
0.42 -0.01 0.83 -1.22 9.88 0.05 -0.11 0.12 5074
0.46 -0.00 0.86 -1.23 9.91 0.06 -0.11 0.12 5081
0.48 0.00 0.84 -1.23 9.87 0.06 -0.11 0.11 5087
0.52 -0.01 0.82 -1.26 9.85 0.06 -0.10 0.11 5093
0.53 -0.02 0.83 -1.23 9.87 0.06 -0.10 0.10 5099
0.57 -0.01 0.84 -1.27 9.90 0.06 -0.09 0.10 5105
0.60 -0.02 0.81 -1.27 9.88 0.06 -0.09 0.09 5112
0.61 -0.03 0.86 -1.27 9.93 0.07 -0.08 0.09 5118
0.64 -0.00 0.84 -1.29 9.89 0.07 -0.08 0.08 5125
0.61 -0.02 0.83 -1.34 9.89 0.08 -0.08 0.08 5131
0.63 -0.02 0.85 -1.32 9.86 0.09 -0.08 0.07 5137
0.66 -0.02 0.85 -1.37 9.91 0.10 -0.07 0.07 5143
0.68 -0.01 0.88 -1.35 9.92 0.11 -0.08 0.07 5149
0.66 -0.02 0.84 -1.38 10.00 0.13 -0.09 0.06 5156
0.71 -0.02 0.88 -1.40 9.87 0.14 -0.10 0.05 5163
0.75 -0.02 0.87 -1.44 9.99 0.16 -0.11 0.04 5169
0.77 -0.02 0.93 -1.54 9.98 0.17 -0.12 0.03 5175
0.73 -0.03 0.95 -1.47 10.01 0.20 -0.14 0.02 5181
0.76 -0.02 0.97 -1.59 10.01 0.23 -0.15 0.00 5188
0.78 -0.03 0.96 -1.56 10.13 0.27 -0.17 -0.02 5194
0.83 -0.02 0.96 -1.65 10.22 0.31 -0.20 -0.03 5200
0.87 -0.02 0.97 -1.72 10.28 0.37 -0.23 -0.04 5207
0.90 -0.04 0.93 -1.68 10.31 0.42 -0.24 -0.06 5213
0.93 -0.02 0.95 -1.58 10.20 0.46 -0.24 -0.07 5220
0.98 -0.03 0.89 -1.74 10.95 0.51 -0.23 -0.07 5226
1.02 -0.03 0.88 -1.92 10.58 0.56 -0.22 -0.08 5232
1.05 -0.01 0.86 -1.86 10.65 0.61 -0.21 -0.08 5238
1.11 -0.03 0.78 -1.99 10.54 0.67 -0.21 -0.09 5245
1.13 -0.02 0.84 -1.97 10.61 0.72 -0.20 -0.09 5252
1.20 -0.03 0.80 -1.97 10.82 0.77 -0.18 -0.09 5258
1.22 -0.03 0.71 -2.00 11.00 0.83 -0.17 -0.09 5264
1.27 -0.03 0.84 -2.17 11.18 0.90 -0.16 -0.10 5270
1.30 -0.03 0.82 -2.21 11.20 0.99 -0.17 -0.10 5277
1.36 -0.04 0.83 -2.34 11.17 1.08 -0.18 -0.11 5283
1.38 -0.02 0.68 -2.90 11.33 1.15 -0.20 -0.13 5289
1.42 -0.05 0.78 -2.49 11.41 1.21 -0.26 -0.13 5296
1.43 -0.06 0.79 -2.56 11.40 1.28 -0.27 -0.12 5303
1.49 -0.06 0.89 -2.69 11.68 1.39 -0.28 -0.14 5309
1.51 -0.06 1.07 -2.93 12.45 1.56 -0.28 -0.15 5315
1.53 -0.04 1.02 -2.83 12.66 1.77 -0.29 -0.17 5321
1.55 -0.05 1.03 -2.97 12.65 2.01 -0.31 -0.20 5328
1.51 -0.06 0.95 -3.09 12.61 2.22 -0.31 -0.22 5335
1.50 -0.05 0.99 -3.30 13.00 2.41 -0.33 -0.25 5341
1.45 -0.07 1.27 -3.42 13.08 2.61 -0.34 -0.29 5347
1.38 -0.05 1.27 -3.53 13.56 2.86 -0.36 -0.34 5353
1.32 -0.05 1.25 -3.79 13.48 3.11 -0.38 -0.39 5360
1.23 -0.05 1.09 -3.72 14.03 3.38 -0.38 -0.44 5366
1.10 -0.02 1.10 -3.84 14.69 3.71 -0.38 -0.48 5372
0.96 -0.03 1.56 -4.36 15.24 4.05 -0.41 -0.54 5379
0.80 -0.02 1.97 -4.31 15.33 4.25 -0.43 -0.60 5386
0.72 -0.01 2.08 -5.13 16.45 4.28 -0.49 -0.68 5392
0.65 -0.03 2.00 -6.22 17.48 4.28 -0.56 -0.75 5398
0.54 -0.02 2.25 -7.58 19.43 4.28 -0.58 -0.80 5404
0.47 -0.02 1.73 -9.13 20.59 4.28 -0.50 -0.80 5411
0.39 -0.03 1.86 -11.01 23.52 4.28 -0.33 -0.72 5417
0.35 -0.02 1.77 -13.44 24.53 4.28 -0.11 -0.65 5424
0.30 -0.00 2.08 -13.17 24.45 4.28 0.06 -0.61 5430
0.22 0.03 1.83 -12.28 22.61 4.28 0.08 -0.63 5437
0.18 0.01 1.66 -11.15 21.60 4.28 0.12 -0.61 5443
0.15 0.02 1.29 -8.71 22.53 4.28 0.26 -0.57 5449
0.12 0.02 1.03 -6.80 23.36 4.28 0.23 -0.60 5455
0.09 0.01 0.98 -4.52 23.67 4.28 0.08 -0.66 5463
0.09 0.03 1.32 -1.85 23.31 4.28 -0.13 -0.70 5469
0.09 0.03 2.78 0.51 22.46 4.28 -0.41 -0.76 5475
0.07 0.00 3.00 2.04 23.50 4.28 -0.60 -0.79 5481
0.06 0.00 3.96 6.69 21.73 4.28 -0.64 -0.85 5487
0.06 0.00 3.16 7.54 19.58 4.28 -0.47 -0.92 5494
0.04 0.02 2.90 10.93 19.10 4.28 -0.19 -1.03 5500
0.04 0.00 -0.62 11.47 7.91 4.28 -0.33 -1.36 5507
0.05 -0.00 4.39 7.28 -0.13 4.27 -0.85 -1.69 5513
0.04 -0.00 2.56 20.35 1.99 1.94 -1.12 -1.84 5519
0.05 -0.00 4.98 18.49 19.27 0.09 -0.43 -1.79 5526
0.04 -0.00 6.89 12.71 21.25 -1.07 0.22 -1.71 5532
0.04 -0.00 3.86 9.03 16.83 -2.01 0.57 -1.72 5538
0.06 -0.00 2.41 9.30 12.26 -2.78 0.73 -1.63 5544
0.04 -0.00 1.74 9.57 10.45 -3.33 0.80 -1.45 5551
0.04 -0.00 1.79 7.88 9.22 -3.69 0.85 -1.26 5557
0.06 0.00 2.05 6.01 8.51 -3.90 0.87 -1.11 5564
0.06 -0.01 1.83 5.00 7.68 -3.99 0.85 -0.99 5570
0.05 -0.01 1.58 4.72 6.85 -4.04 0.81 -0.86 5576
0.04 -0.00 1.51 4.22 6.16 -4.04 0.75 -0.74 5582
0.05 0.00 1.31 3.20 5.84 -4.02 0.67 -0.64 5588
0.06 -0.01 1.18 2.24 6.07 -3.99 0.58 -0.54 5595
0.05 -0.01 1.10 1.82 6.16 -3.96 0.51 -0.43 5601
0.04 -0.00 1.12 1.50 6.67 -3.91 0.42 -0.33 5607
0.04 -0.00 1.31 1.07 7.31 -3.92 0.32 -0.26 5613
0.05 -0.00 1.51 0.88 8.06 -3.94 0.26 -0.21 5620
0.04 -0.00 1.72 0.81 8.95 -3.99 0.24 -0.14 5626
0.04 -0.00 1.96 0.64 9.64 -4.06 0.29 -0.12 5633
0.04 0.01 2.26 0.35 10.46 -4.14 0.38 -0.08 5639
0.05 -0.00 2.36 0.14 11.42 -4.22 0.52 -0.04 5645
0.04 -0.00 2.55 -0.45 12.14 -4.27 0.69 0.00 5651
0.05 0.00 2.48 -0.78 12.53 -4.28 0.88 0.05 5657
0.06 -0.01 2.37 -1.16 12.98 -4.28 1.07 0.09 5664
0.05 -0.00 2.11 -1.83 13.11 -4.28 1.25 0.13 5670
0.06 -0.00 1.32 -2.73 13.21 -4.28 1.40 0.16 5677
0.05 -0.00 1.59 -3.61 13.50 -4.28 1.55 0.18 5683
0.04 0.00 1.30 -4.45 14.06 -4.28 1.66 0.19 5689
0.05 0.00 1.00 -5.34 14.52 -4.28 1.71 0.18 5696
0.05 -0.00 0.72 -5.92 14.84 -4.28 1.71 0.17 5702
0.04 0.00 0.34 -6.24 15.04 -4.26 1.66 0.16 5708
0.06 0.00 0.12 -6.29 15.33 -4.21 1.59 0.15 5714
0.05 0.00 -0.00 -6.34 15.74 -4.14 1.51 0.15 5721
0.04 0.00 -0.06 -6.51 16.31 -4.06 1.42 0.15 5728
0.07 0.01 -0.15 -6.70 16.89 -3.96 1.32 0.16 5734
0.05 -0.01 -0.11 -6.81 17.54 -3.86 1.26 0.19 5740
0.04 0.01 -0.03 -6.93 18.25 -3.77 1.26 0.24 5746
0.06 0.00 -0.01 -7.24 18.96 -3.68 1.30 0.30 5752
0.05 -0.00 0.03 -7.59 19.42 -3.66 1.35 0.38 5760
0.04 0.01 0.01 -7.91 19.83 -3.61 1.39 0.46 5766
0.06 0.01 -0.01 -8.48 20.19 -3.58 1.41 0.55 5772
0.05 -0.00 -0.14 -9.77 20.20 -3.53 1.40 0.64 5778
0.04 0.00 -0.21 -9.92 19.96 -3.49 1.31 0.71 5784
0.05 -0.01 -0.12 -10.84 19.55 -3.43 1.18 0.79 5791
0.05 -0.00 0.05 -12.01 18.40 -3.33 0.99 0.86 5797
0.05 0.00 0.51 -13.01 18.13 -3.19 0.79 0.92 5804
0.05 -0.00 0.89 -13.92 17.39 -3.00 0.61 0.98 5810
0.04 -0.00 -5.80 -31.65 46.07 -1.62 0.70 1.36 5816
0.04 0.01 0.26 -11.60 1.04 -1.23 0.41 1.53 5823
0.04 -0.00 -1.24 -17.49 2.86 -1.33 -0.21 1.41 5829
0.03 -0.00 2.27 -21.20 13.22 -1.13 -0.25 1.55 5835
0.04 0.00 2.79 -17.45 10.36 -0.76 -0.16 1.74 5841
0.04 -0.00 2.08 -11.68 6.42 -0.76 -0.04 1.68 5848
0.04 -0.00 1.12 -16.34 14.22 -1.00 0.09 1.57 5855
0.06 -0.01 0.15 -16.54 16.20 -1.05 0.59 1.63 5861
0.04 -0.00 -2.20 -13.60 12.58 -1.20 1.37 1.76 5867
0.04 -0.00 -3.76 -13.37 12.66 -1.31 2.26 1.96 5873
0.05 -0.01 -5.42 -15.45 11.59 -1.53 2.87 2.08 5880
0.05 -0.00 -6.98 -16.46 11.38 -1.78 2.71 2.03 5886
0.05 0.01 -7.84 -18.61 10.74 -1.97 2.06 1.90 5893
0.05 -0.01 -7.97 -23.33 11.09 -1.80 1.25 1.75 5899
0.05 -0.00 -8.16 -23.64 3.18 -1.31 0.58 1.63 5905
0.05 -0.01 -6.90 -23.51 -3.64 -0.73 0.09 1.48 5912
0.05 -0.01 -7.02 -26.48 -0.94 -0.01 -0.37 1.28 5918
0.04 -0.00 -5.23 -26.83 -3.36 0.71 -0.64 1.07 5924
0.05 -0.00 -6.07 -29.41 -3.35 1.44 -0.90 0.84 5931
0.05 -0.00 -7.30 -31.11 -1.65 2.21 -1.29 0.67 5937
0.04 -0.00 -7.57 -29.44 -1.40 2.96 -1.73 0.65 5943
0.04 0.03 -2.41 -8.90 2.79 3.62 -1.90 0.65 5950
0.05 0.03 -1.07 -3.28 9.47 3.73 -1.75 0.59 5956
0.03 0.26 0.34 0.30 21.57 3.68 -1.13 0.71 5962
0.02 0.47 0.11 2.87 24.01 3.25 -0.36 0.93 5968
0.01 0.59 -0.08 -0.81 22.31 2.67 -0.00 1.04 5975
0.00 0.63 -1.61 -3.55 17.31 2.27 0.13 1.00 5982
0.01 0.68 -4.71 -4.63 14.72 2.10 0.04 0.77 5988
0.01 0.75 -5.32 -3.84 14.44 2.21 -0.11 0.49 5994
-0.00 0.81 -2.82 -3.15 18.38 2.45 -0.01 0.20 6000
0.02 0.85 -3.77 -3.71 20.51 2.45 0.35 -0.15 6007
0.00 0.87 -0.10 -3.03 19.79 2.07 0.77 -0.41 6013
0.00 0.92 4.25 -3.47 21.64 1.31 0.87 -0.39 6020
0.00 0.92 2.97 -2.53 11.46 0.29 0.48 -0.10 6026
-0.01 0.95 1.72 -2.01 10.13 0.06 -0.00 0.07 6032
0.00 1.01 0.80 -1.52 10.22 0.13 -0.18 0.07 6039
0.00 1.00 0.51 -1.20 10.72 0.10 -0.16 0.05 6045
-0.00 0.99 0.64 -1.65 10.15 0.03 -0.07 0.04 6051
-0.01 1.00 0.68 -0.72 9.46 0.01 -0.06 0.04 6057
0.00 0.99 0.97 -0.48 9.48 0.02 -0.10 0.05 6064
0.01 0.99 0.46 -0.46 9.42 0.02 -0.12 0.07 6070
0.04 1.01 0.37 -0.09 10.04 0.02 -0.13 0.03 6077
0.06 1.03 0.62 -1.58 9.96 0.01 -0.11 0.07 6083
0.06 1.04 0.94 -1.30 10.02 0.00 -0.10 0.06 6089
0.05 1.07 0.74 -1.28 9.99 0.01 -0.11 0.07 6095
0.11 1.11 0.83 -1.12 9.97 0.03 -0.13 0.07 6102
0.10 1.11 0.70 -1.14 9.95 0.03 -0.14 0.08 6108
0.09 1.11 0.74 -1.14 9.93 0.00 -0.14 0.09 6114
0.13 1.12 0.65 -1.09 9.91 0.03 -0.14 0.10 6121
0.15 1.11 0.65 -1.02 9.95 0.03 -0.13 0.10 6127
0.17 1.09 0.60 -1.04 10.07 0.03 -0.12 0.11 6133
0.20 1.09 0.56 -1.09 9.98 0.02 -0.11 0.13 6139
0.22 1.06 0.58 -1.07 9.97 0.02 -0.10 0.13 6146
0.24 1.04 0.56 -1.08 9.95 0.01 -0.08 0.14 6152
0.26 1.03 0.63 -1.04 9.92 0.01 -0.07 0.14 6159
0.31 1.00 0.60 -1.06 9.92 0.01 -0.06 0.14 6165
0.33 1.00 0.60 -1.02 9.90 0.01 -0.05 0.15 6171
0.29 1.00 0.57 -1.04 9.91 0.01 -0.05 0.15 6177
0.32 0.96 0.57 -1.01 9.90 0.02 -0.04 0.15 6183
0.32 0.93 0.61 -0.99 9.94 0.02 -0.05 0.16 6190
0.35 0.89 0.60 -0.98 9.92 0.02 -0.05 0.15 6196
0.35 0.87 0.63 -1.03 9.88 0.02 -0.05 0.16 6203
0.40 0.85 0.62 -1.03 9.89 0.03 -0.05 0.15 6209
0.43 0.80 0.56 -1.06 9.88 0.03 -0.06 0.16 6215
0.43 0.77 0.58 -1.05 9.86 0.04 -0.06 0.16 6221
0.48 0.74 0.60 -1.03 9.92 0.04 -0.07 0.14 6227
0.47 0.68 0.57 -1.02 9.90 0.04 -0.07 0.15 6234
0.50 0.65 0.58 -1.02 9.90 0.04 -0.08 0.14 6241
0.48 0.65 0.58 -1.01 9.97 0.05 -0.07 0.14 6247
0.52 0.62 0.57 -1.04 9.90 0.05 -0.07 0.15 6253
0.54 0.55 0.59 -1.10 9.89 0.05 -0.07 0.15 6259
0.58 0.49 0.57 -1.09 9.90 0.06 -0.07 0.14 6265
0.62 0.45 0.57 -1.09 9.90 0.06 -0.07 0.13 6272
0.64 0.37 0.57 -1.08 9.94 0.06 -0.07 0.13 6278
0.63 0.34 0.61 -1.12 9.89 0.06 -0.08 0.14 6285
0.71 0.24 0.58 -1.22 9.84 0.07 -0.08 0.13 6291
0.75 0.16 0.00 -1.18 9.92 0.07 -0.08 0.12 6297
0.74 0.10 0.63 -1.19 9.88 0.07 -0.08 0.10 6303
0.78 0.09 0.61 -1.16 9.89 0.08 -0.09 0.10 6309
0.85 0.02 0.63 -1.18 9.95 0.08 -0.09 0.09 6316
0.81 -0.00 0.59 -1.19 9.94 0.08 -0.10 0.09 6323
0.83 -0.03 0.60 -1.31 9.92 0.10 -0.11 0.08 6329
0.85 -0.03 0.65 -1.28 9.97 0.10 -0.12 0.07 6335
0.90 -0.04 0.64 -1.25 9.91 0.11 -0.12 0.04 6341
0.93 -0.03 0.62 -1.31 9.93 0.11 -0.13 0.04 6347
1.02 -0.02 0.63 -1.30 9.91 0.12 -0.13 0.02 6353
1.07 -0.02 0.57 -1.32 10.03 0.13 -0.13 0.02 6361
1.08 -0.04 0.60 -1.37 10.01 0.14 -0.13 0.01 6367
1.10 -0.03 0.70 -1.23 10.07 0.15 -0.14 0.00 6373
1.12 -0.04 0.72 -1.41 10.01 0.16 -0.15 -0.01 6379
1.17 -0.04 0.70 -1.42 9.98 0.17 -0.16 -0.02 6385
1.23 -0.04 0.74 -1.48 10.09 0.18 -0.17 -0.03 6392
1.22 -0.04 0.70 -1.51 10.08 0.20 -0.17 -0.04 6398
1.27 -0.04 0.68 -1.55 10.01 0.22 -0.18 -0.05 6405
1.29 -0.04 0.70 -1.52 10.10 0.24 -0.19 -0.06 6411
1.33 -0.04 0.69 -1.48 10.08 0.27 -0.20 -0.06 6417
1.34 -0.03 0.70 -1.62 10.22 0.30 -0.22 -0.07 6424
1.35 -0.04 0.60 -1.60 10.24 0.32 -0.22 -0.08 6430
1.36 -0.04 0.57 -1.65 10.25 0.35 -0.22 -0.08 6436
1.40 -0.04 0.68 -1.80 10.37 0.38 -0.22 -0.09 6443
1.44 -0.04 0.55 -1.51 10.41 0.41 -0.22 -0.09 6450
1.46 -0.04 0.50 -1.77 10.19 0.44 -0.21 -0.09 6456
1.49 -0.06 0.51 -1.87 10.29 0.47 -0.21 -0.09 6462
1.51 -0.05 0.50 -1.83 10.35 0.51 -0.20 -0.09 6468
1.52 -0.04 0.38 -1.92 10.36 0.56 -0.20 -0.08 6474
1.57 -0.04 0.52 -1.90 10.56 0.59 -0.20 -0.08 6481
1.59 -0.06 0.46 -2.03 10.51 0.64 -0.19 -0.08 6488
1.60 -0.05 0.46 -2.07 10.63 0.68 -0.19 -0.08 6494
1.64 -0.05 0.47 -2.20 10.56 0.72 -0.16 -0.08 6500
1.66 -0.05 0.50 -2.14 10.76 0.74 -0.14 -0.08 6507
1.70 -0.05 0.51 -2.19 10.79 0.79 -0.15 -0.08 6513
1.71 -0.05 0.51 -2.22 11.41 0.82 -0.17 -0.08 6519
1.74 -0.03 0.44 -2.21 10.93 0.88 -0.17 -0.08 6525
1.74 -0.06 0.26 -2.31 10.92 0.93 -0.17 -0.08 6532
1.77 -0.06 0.40 -2.45 11.06 1.00 -0.16 -0.07 6539
1.80 -0.06 0.27 -2.53 11.11 1.09 -0.16 -0.07 6545
1.82 -0.07 0.51 -2.66 11.37 1.20 -0.18 -0.07 6551
1.84 -0.06 0.50 -3.25 11.87 1.34 -0.20 -0.08 6557
1.84 -0.05 0.51 -2.89 12.35 1.52 -0.22 -0.09 6564
1.85 -0.07 0.54 -2.86 12.24 1.70 -0.24 -0.10 6571
1.83 -0.06 0.57 -3.00 12.37 1.88 -0.27 -0.13 6577
1.82 -0.06 0.56 -3.09 12.60 2.06 -0.28 -0.14 6583
1.80 -0.06 0.56 -3.26 12.66 2.23 -0.30 -0.16 6589
1.76 -0.07 0.69 -3.49 13.01 2.44 -0.34 -0.20 6596
1.71 -0.06 0.91 -3.67 13.14 2.65 -0.35 -0.23 6602
1.65 -0.05 0.87 -3.75 13.31 2.89 -0.38 -0.27 6608
1.52 -0.06 0.95 -3.84 13.76 3.15 -0.40 -0.32 6615
1.39 -0.06 1.05 -4.06 14.44 3.43 -0.43 -0.39 6622
1.25 -0.04 1.83 -4.30 14.99 3.75 -0.44 -0.46 6628
1.10 -0.03 1.47 -4.66 15.66 4.08 -0.50 -0.54 6634
0.97 -0.03 1.01 -5.29 16.85 4.25 -0.53 -0.61 6640
0.78 -0.03 1.75 -5.74 17.48 4.28 -0.58 -0.69 6647
0.72 -0.04 1.38 -6.79 19.24 4.28 -0.66 -0.75 6653
0.63 -0.03 1.20 -8.03 20.65 4.28 -0.75 -0.74 6660
0.56 -0.03 1.51 -10.72 23.12 4.28 -0.74 -0.71 6666
0.45 -0.02 1.39 -13.04 24.99 4.28 -0.59 -0.68 6673
0.43 -0.02 1.35 -13.99 25.17 4.28 -0.42 -0.63 6679
0.31 -0.02 0.44 -11.87 23.07 4.28 -0.29 -0.59 6685
0.20 0.01 0.58 -10.81 21.17 4.28 -0.26 -0.56 6691
0.21 0.00 0.55 -9.26 22.97 4.28 -0.15 -0.47 6699
0.16 0.00 1.36 -8.38 24.79 4.28 -0.01 -0.43 6705
0.11 0.00 2.32 -6.54 25.13 4.28 0.02 -0.48 6711
0.08 -0.01 3.30 -3.83 25.72 4.28 -0.04 -0.57 6717
0.06 0.00 4.01 -0.87 24.42 4.28 -0.10 -0.62 6723
0.08 -0.00 4.89 2.52 22.99 4.28 -0.15 -0.69 6730
0.06 -0.01 4.99 6.59 22.55 4.28 -0.10 -0.79 6736
0.05 0.00 4.33 9.99 20.29 4.28 0.16 -0.91 6743
0.05 0.00 0.82 5.71 8.54 4.28 0.64 -1.16 6749
0.04 -0.00 2.92 8.84 -1.34 4.28 0.15 -1.72 6755
0.04 -0.00 3.94 6.49 6.75 4.16 -0.55 -2.08 6761
0.05 0.01 3.97 19.76 5.36 1.84 -0.50 -2.23 6768
0.06 -0.00 6.34 18.79 19.35 0.30 0.29 -2.16 6774
0.05 0.00 6.22 11.31 20.66 -0.84 0.85 -2.12 6780
0.06 -0.01 3.70 9.03 16.69 -1.81 1.14 -2.04 6787
0.04 -0.00 2.78 9.55 13.46 -2.53 1.24 -1.82 6793
0.05 -0.00 2.09 9.74 9.39 -2.98 1.21 -1.58 6800
0.06 -0.01 1.92 8.20 8.07 -3.24 1.11 -1.41 6806
0.05 -0.01 1.82 6.32 7.04 -3.34 1.01 -1.26 6812
0.06 -0.01 1.61 5.03 6.39 -3.35 0.94 -1.11 6818
0.06 -0.00 1.47 4.46 6.08 -3.31 0.90 -0.94 6824
0.06 -0.01 1.41 4.06 5.76 -3.25 0.87 -0.78 6831
0.06 -0.00 1.38 3.85 5.75 -3.23 0.84 -0.66 6837
0.05 0.00 1.43 3.74 6.16 -3.26 0.83 -0.52 6844
0.07 -0.00 1.47 3.61 6.96 -3.33 0.83 -0.37 6850
0.04 -0.00 1.59 3.47 7.78 -3.43 0.83 -0.23 6856
0.05 -0.00 1.61 3.48 8.59 -3.56 0.83 -0.10 6862
0.05 -0.01 1.67 3.33 9.24 -3.69 0.86 0.02 6868
0.06 -0.00 1.51 2.69 9.65 -3.86 0.92 0.14 6875
0.05 -0.01 1.41 2.35 10.14 -4.03 0.99 0.26 6881
0.04 0.00 1.30 1.74 10.65 -4.14 1.06 0.34 6888
0.06 -0.00 1.10 0.89 10.92 -4.21 1.12 0.41 6894
0.05 0.00 0.80 0.10 11.31 -4.26 1.16 0.47 6900
0.04 -0.00 0.73 -0.40 11.66 -4.28 1.19 0.50 6906
0.05 -0.00 0.51 -0.94 12.05 -4.28 1.25 0.52 6913
0.05 -0.00 0.46 -1.46 12.50 -4.28 1.32 0.51 6919
0.05 -0.00 0.33 -1.92 12.97 -4.28 1.42 0.49 6926
0.05 0.00 0.28 -2.44 13.56 -4.28 1.52 0.45 6932
0.05 -0.00 0.13 -3.06 14.41 -4.28 1.64 0.38 6938
0.04 -0.00 -0.04 -3.88 15.06 -4.28 1.74 0.30 6944
0.04 0.01 -0.37 -4.72 15.63 -4.28 1.85 0.21 6950
0.05 -0.00 -0.58 -5.25 16.07 -4.28 1.95 0.13 6957
0.05 -0.00 -0.76 -5.65 16.35 -4.27 2.03 0.06 6964
0.05 -0.01 -1.00 -6.12 16.66 -4.26 2.09 0.01 6970
0.05 -0.01 -1.31 -6.55 16.91 -4.22 2.14 -0.01 6976
0.05 -0.01 -1.51 -6.88 17.22 -4.16 2.16 -0.00 6982
0.05 -0.00 -1.68 -7.21 17.39 -4.07 2.14 0.03 6988
0.05 -0.01 -1.89 -7.61 17.82 -3.92 2.06 0.08 6994
0.05 -0.00 -2.11 -7.94 18.17 -3.78 1.92 0.15 7002
0.05 -0.00 -2.08 -8.21 18.71 -3.61 1.73 0.25 7008
0.06 -0.01 -1.94 -8.64 19.03 -3.47 1.48 0.36 7014
0.05 -0.00 -1.67 -9.80 19.30 -3.35 1.28 0.46 7020
0.04 -0.00 -1.31 -9.80 19.45 -3.24 1.01 0.55 7026
0.05 -0.01 -0.79 -10.55 19.56 -3.13 0.76 0.65 7033
0.04 -0.00 -0.28 -11.15 19.53 -3.03 0.56 0.75 7040
0.04 -0.00 0.29 -11.67 19.26 -2.91 0.44 0.83 7046
0.07 -0.01 0.74 -12.15 18.93 -2.79 0.39 0.89 7052
0.05 -0.01 1.04 -12.75 18.56 -2.64 0.42 0.93 7058
0.05 -0.00 1.35 -13.52 17.95 -2.48 0.51 0.96 7065
0.06 -0.01 1.44 -14.51 17.44 -2.30 0.61 0.99 7071
0.04 -0.00 1.58 -15.71 16.74 -2.11 0.74 1.02 7077
0.05 0.01 1.17 -16.57 15.90 -1.91 0.85 1.07 7084
0.05 -0.01 0.55 -17.12 14.74 -1.77 0.99 1.16 7091
0.05 -0.00 -0.32 -17.47 13.49 -1.61 1.19 1.28 7097
0.07 -0.01 -1.55 -17.84 12.70 -1.58 1.43 1.45 7103
0.04 -0.00 -3.13 -17.98 12.05 -1.62 1.72 1.64 7109
0.05 -0.00 -4.73 -18.23 11.67 -1.73 2.00 1.85 7115
0.05 -0.00 -5.54 -19.28 11.09 -1.89 2.10 2.02 7122
0.05 -0.00 -6.75 -20.49 9.76 -2.01 1.82 2.09 7129
0.05 -0.01 -7.18 -21.78 7.39 -2.03 1.46 2.10 7135
0.05 -0.00 -6.88 -22.92 5.14 -1.93 0.98 2.08 7141
0.05 -0.01 -6.71 -23.80 2.13 -1.69 0.58 2.02 7147
0.05 -0.00 -6.56 -24.33 0.85 -1.30 0.28 1.90 7153
0.07 -0.01 -5.97 -24.34 0.14 -0.80 0.06 1.71 7160
0.05 -0.01 -5.40 -23.79 0.52 -0.26 -0.14 1.45 7166
0.05 -0.00 -4.45 -22.43 2.02 0.22 -0.33 1.13 7173
0.07 -0.00 -3.27 -22.51 3.47 0.62 -0.49 0.76 7179
0.05 -0.01 -7.42 -30.89 31.61 2.04 -0.95 0.53 7185
0.05 -0.00 -8.11 -20.33 -4.99 2.56 -1.11 0.39 7191
0.06 -0.01 -1.34 -10.87 5.09 2.94 -1.72 0.30 7198
0.05 -0.00 -0.99 0.77 8.96 2.94 -2.21 0.12 7204
0.03 0.15 1.34 5.70 13.91 2.79 -1.96 0.28 7211
0.01 0.58 4.33 3.55 15.69 2.63 -1.35 0.54 7217
0.00 0.64 3.45 1.54 12.38 2.49 -0.67 0.79 7223
0.01 0.66 0.69 -1.78 12.86 2.55 -0.27 0.91 7230
0.01 0.72 -3.01 -3.57 14.96 2.59 -0.21 0.89 7236
-0.00 0.76 -4.14 -3.67 14.86 2.67 -0.39 0.71 7242
-0.01 0.83 -3.99 -3.09 15.29 2.72 -0.53 0.47 7248
0.00 0.86 -3.45 -2.34 16.21 2.74 -0.41 0.26 7256
-0.02 0.93 -3.17 -2.81 17.89 2.74 -0.21 0.05 7262
-0.01 0.99 -1.90 -2.80 17.61 2.72 0.05 -0.17 7268
-0.01 1.04 0.57 -2.88 17.54 2.65 0.42 -0.32 7274
-0.01 1.07 2.47 -2.77 17.23 2.53 0.73 -0.35 7280
0.02 1.10 2.31 -3.87 21.86 2.28 0.76 -0.33 7287
0.01 1.05 2.63 -2.46 13.20 0.52 -0.52 -0.08 7293
0.00 1.12 1.03 -1.92 11.49 0.20 -0.41 0.10 7300
0.01 1.17 0.39 -1.56 10.37 0.11 -0.35 0.09 7306
0.01 1.17 0.36 -3.66 10.51 0.11 -0.27 0.05 7313
0.02 1.22 1.22 -1.85 10.32 0.03 -0.11 0.08 7319
0.03 1.24 0.88 -1.42 10.03 -0.01 -0.07 0.10 7325
0.04 1.26 0.02 -0.70 10.22 -0.01 -0.05 0.09 7331
0.05 1.27 0.83 -1.23 10.15 0.00 -0.04 0.11 7337
0.06 1.27 0.79 -1.21 10.05 0.01 -0.04 0.10 7345
0.06 1.26 0.82 -1.10 10.06 0.02 -0.04 0.11 7351
0.10 1.29 0.84 -1.10 10.01 0.02 -0.05 0.12 7357
0.10 1.29 0.78 -1.07 9.94 0.02 -0.05 0.12 7363
0.09 1.29 0.81 -1.07 9.91 0.02 -0.05 0.13 7369
0.11 1.29 0.78 -1.03 9.94 0.02 -0.06 0.13 7375
0.13 1.26 0.74 -0.99 9.93 0.02 -0.07 0.13 7383
0.14 1.24 0.68 -1.01 9.90 0.02 -0.07 0.13 7389
0.12 1.22 0.70 -1.01 9.97 0.02 -0.07 0.14 7395
0.14 1.21 0.70 -0.92 9.88 0.02 -0.08 0.15 7401
0.14 1.19 0.89 -0.80 9.76 0.03 -0.08 0.15 7407
0.16 1.16 0.69 -1.01 9.94 0.03 -0.08 0.14 7413
0.17 1.11 0.68 -0.99 9.88 0.03 -0.07 0.15 7419
0.19 1.07 0.70 -1.00 9.91 0.02 -0.07 0.15 7427
0.20 1.05 0.66 -1.00 9.88 0.02 -0.07 0.15 7433
0.23 1.01 0.68 -0.97 9.92 0.02 -0.06 0.16 7439
0.23 0.97 0.67 -0.96 9.92 0.03 -0.06 0.16 7445
0.27 0.91 0.67 -0.96 9.89 0.02 -0.06 0.15 7451
0.28 0.89 0.71 -0.98 9.86 0.02 -0.06 0.16 7457
0.28 0.86 0.75 -0.99 9.88 0.03 -0.06 0.15 7464
0.31 0.74 0.71 -1.04 9.85 0.03 -0.07 0.16 7471
0.32 0.70 0.72 -1.02 9.85 0.03 -0.07 0.15 7477
0.36 0.64 0.72 -1.01 9.86 0.03 -0.07 0.15 7483
0.35 0.66 0.73 -1.07 9.92 0.04 -0.08 0.15 7489
0.36 0.59 0.67 -1.03 9.86 0.04 -0.08 0.15 7495
0.37 0.57 0.73 -1.06 9.88 0.04 -0.07 0.14 7501
0.41 0.58 0.69 -1.03 9.87 0.04 -0.07 0.15 7508
0.42 0.53 0.67 -1.06 9.91 0.04 -0.07 0.15 7515
0.45 0.54 0.65 -1.07 9.89 0.04 -0.06 0.13 7521
0.46 0.44 0.68 -1.06 9.90 0.04 -0.05 0.13 7527
0.45 0.38 0.65 -1.06 9.89 0.04 -0.05 0.13 7533
0.46 0.39 0.65 -1.05 9.91 0.04 -0.04 0.14 7539
0.48 0.30 0.69 -1.05 9.86 0.05 -0.04 0.13 7546
0.48 0.23 0.70 -1.08 9.87 0.05 -0.04 0.14 7553
0.48 0.21 0.71 -1.12 9.83 0.05 -0.04 0.14 7559
0.50 0.15 0.71 -1.11 9.94 0.05 -0.04 0.13 7565
0.54 0.14 0.70 -1.14 9.87 0.05 -0.04 0.13 7571
0.53 0.10 0.71 -1.15 9.87 0.05 -0.04 0.13 7577
0.56 0.08 0.69 -1.10 9.92 0.05 -0.03 0.13 7583
0.58 0.03 0.70 -1.13 9.87 0.05 -0.03 0.12 7590
0.58 0.02 0.71 -1.14 9.87 0.06 -0.03 0.11 7597
0.62 0.00 0.72 -1.17 9.91 0.06 -0.03 0.12 7603
0.67 -0.01 0.73 -1.13 9.84 0.06 -0.03 0.11 7609
0.66 -0.02 0.70 -1.17 9.87 0.05 -0.03 0.12 7615
0.65 -0.02 0.67 -1.18 9.94 0.06 -0.03 0.11 7621
0.67 -0.02 0.69 -1.20 9.88 0.05 -0.02 0.10 7628
0.69 -0.02 0.72 -1.17 9.85 0.06 -0.02 0.11 7634
0.71 -0.00 0.75 -1.20 9.92 0.06 -0.02 0.11 7641
0.74 0.00 0.75 -1.23 9.91 0.06 -0.03 0.10 7647
0.76 -0.01 0.75 -1.26 9.95 0.07 -0.03 0.09 7653
0.74 -0.03 0.76 -1.23 9.87 0.08 -0.03 0.08 7659
0.74 -0.02 0.78 -1.26 9.91 0.08 -0.04 0.08 7665
0.76 -0.02 0.79 -1.31 9.91 0.08 -0.04 0.07 7672
0.76 -0.01 0.79 -1.30 9.93 0.09 -0.04 0.06 7678
0.76 -0.02 0.77 -1.29 9.92 0.10 -0.05 0.06 7685
0.77 0.00 0.79 -1.29 9.90 0.10 -0.06 0.06 7691
0.81 -0.02 0.81 -1.32 9.95 0.11 -0.06 0.05 7697
0.81 -0.03 0.80 -1.34 9.90 0.12 -0.06 0.05 7703
0.83 -0.02 0.88 -1.37 9.87 0.13 -0.07 0.04 7709
0.88 -0.03 0.80 -1.42 9.95 0.15 -0.07 0.03 7716
0.89 -0.02 0.85 -1.43 10.02 0.16 -0.08 0.02 7723
0.92 -0.02 0.87 -1.47 10.14 0.20 -0.09 0.01 7729
0.98 -0.03 0.85 -1.50 10.20 0.25 -0.12 -0.01 7735
0.98 -0.05 0.93 -1.56 10.21 0.31 -0.14 -0.02 7741
1.02 -0.03 0.95 -1.40 10.36 0.39 -0.17 -0.04 7748
1.08 -0.04 0.90 -1.66 10.57 0.47 -0.19 -0.06 7754
1.09 -0.04 0.89 -1.55 10.87 0.56 -0.20 -0.07 7760
1.09 -0.02 0.84 -1.73 11.13 0.65 -0.22 -0.08 7767
1.15 -0.03 0.78 -1.69 10.97 0.74 -0.21 -0.09 7773
1.19 -0.03 0.84 -1.84 11.17 0.82 -0.20 -0.09 7780
1.25 -0.03 0.79 -1.86 10.65 0.90 -0.19 -0.10 7786
1.25 -0.04 0.76 -2.00 11.18 0.97 -0.17 -0.11 7792
1.30 -0.05 0.93 -1.96 11.26 1.04 -0.15 -0.11 7798
1.37 -0.05 0.86 -1.99 11.37 1.13 -0.12 -0.12 7805
1.39 -0.05 0.84 -2.17 11.43 1.22 -0.12 -0.13 7812
1.41 -0.03 0.82 -2.33 11.42 1.32 -0.13 -0.14 7818
1.43 -0.05 0.94 -2.25 11.44 1.40 -0.15 -0.14 7824
1.43 -0.05 0.80 -2.51 11.48 1.45 -0.22 -0.15 7831
1.50 -0.05 0.95 -2.61 11.53 1.54 -0.25 -0.16 7837
1.51 -0.06 1.03 -2.68 12.33 1.69 -0.28 -0.18 7843
1.51 -0.05 0.92 -2.66 12.73 1.91 -0.30 -0.21 7849
1.48 -0.05 1.00 -2.94 13.06 2.15 -0.30 -0.22 7857
1.48 -0.05 1.04 -2.99 12.96 2.38 -0.32 -0.26 7863
1.43 -0.04 1.25 -3.29 13.17 2.61 -0.33 -0.29 7869
1.37 -0.05 1.27 -3.42 13.50 2.84 -0.34 -0.33 7875
1.31 -0.05 2.42 -3.44 13.80 3.06 -0.37 -0.38 7881
1.18 -0.04 1.29 -3.71 14.24 3.34 -0.39 -0.44 7888
1.12 -0.04 1.43 -3.90 15.11 3.65 -0.41 -0.49 7895
0.98 -0.02 1.54 -3.51 14.32 4.01 -0.45 -0.57 7901
0.88 -0.03 1.93 -4.46 15.12 4.23 -0.50 -0.64 7907
0.70 -0.02 1.91 -4.85 16.25 4.28 -0.60 -0.73 7914
0.63 -0.01 2.33 -5.93 16.96 4.28 -0.54 -0.77 7920
0.54 -0.03 2.14 -6.83 19.09 4.28 -0.54 -0.79 7926
0.47 -0.01 2.23 -8.46 20.72 4.28 -0.43 -0.76 7932
0.37 -0.01 1.92 -10.94 23.48 4.28 -0.18 -0.67 7940
0.33 -0.01 0.72 -13.32 26.17 4.28 0.08 -0.58 7946
0.30 -0.02 0.50 -13.52 25.18 4.28 0.25 -0.50 7952
0.21 -0.02 0.96 -11.28 22.56 4.28 0.34 -0.46 7958
0.20 -0.00 0.68 -10.37 22.13 4.28 0.42 -0.39 7965
0.14 -0.00 0.80 -9.01 23.59 4.28 0.58 -0.33 7971
0.11 -0.01 1.14 -7.60 25.11 4.28 0.61 -0.35 7977
0.10 -0.01 1.44 -5.44 25.51 4.28 0.55 -0.42 7984
0.08 0.01 2.35 -2.83 25.16 4.28 0.38 -0.51 7990
0.05 0.02 3.19 0.62 24.12 4.28 0.20 -0.59 7997
0.07 0.00 3.72 5.01 23.79 4.28 0.11 -0.66 8003
0.06 0.00 3.26 8.36 22.28 4.28 0.24 -0.75 8009
0.03 0.01 2.94 9.96 19.28 4.28 0.60 -0.88 8015
0.06 0.00 6.22 6.95 13.74 4.28 0.62 -1.21 8022
0.04 -0.00 2.28 10.46 -1.43 4.28 -0.33 -1.68 8029
0.04 0.01 1.73 14.21 -0.34 3.26 -1.13 -1.97 8035
0.05 -0.00 2.42 21.64 13.87 0.96 -0.80 -1.96 8041
0.04 -0.00 6.67 14.58 22.65 -0.33 -0.10 -1.84 8047
0.05 -0.00 5.36 9.19 19.24 -1.25 0.22 -1.82 8053
0.05 -0.00 3.47 9.19 14.64 -2.08 0.43 -1.74 8060
0.05 -0.01 2.28 10.51 10.47 -2.72 0.61 -1.52 8067
0.06 0.00 2.66 10.21 8.45 -3.14 0.78 -1.29 8073
0.06 -0.01 2.67 8.10 7.58 -3.41 0.83 -1.15 8079
0.06 -0.01 2.18 6.15 7.01 -3.54 0.82 -1.02 8085
0.06 -0.00 1.78 5.36 6.44 -3.60 0.78 -0.87 8091
0.06 -0.00 1.50 4.89 6.37 -3.61 0.68 -0.72 8098
0.05 -0.00 1.15 3.93 6.12 -3.60 0.56 -0.57 8104
0.04 0.00 0.91 3.26 5.99 -3.59 0.41 -0.43 8111
0.05 0.01 0.83 3.11 6.64 -3.62 0.24 -0.29 8117
0.05 -0.00 0.85 2.96 7.23 -3.67 0.09 -0.16 8123
0.05 -0.01 1.14 2.85 7.76 -3.75 -0.08 -0.08 8129
0.05 -0.00 1.50 2.49 8.47 -3.85 -0.19 0.00 8135
0.06 -0.00 1.97 1.96 8.96 -3.98 -0.22 0.06 8142
0.05 -0.01 2.34 1.41 9.69 -4.09 -0.16 0.08 8148
0.04 -0.00 2.77 0.88 10.31 -4.17 -0.03 0.08 8155
0.05 0.00 2.82 0.17 10.74 -4.24 0.17 0.08 8161
0.04 -0.00 2.92 -0.23 11.24 -4.27 0.35 0.05 8167
0.04 -0.00 2.66 -0.70 11.68 -4.28 0.58 0.02 8173
0.04 0.00 2.32 -1.36 11.75 -4.28 0.79 -0.02 8180
0.05 -0.01 2.05 -2.08 11.98 -4.28 0.99 -0.07 8186
0.04 -0.00 1.52 -2.67 12.42 -4.28 1.15 -0.12 8193
0.05 -0.01 1.17 -3.51 12.71 -4.28 1.28 -0.18 8199
0.06 -0.01 0.92 -4.40 13.14 -4.28 1.36 -0.24 8205
0.06 -0.01 0.69 -5.31 13.59 -4.28 1.39 -0.32 8211
0.05 -0.00 0.45 -6.10 14.20 -4.26 1.40 -0.39 8218
0.05 -0.01 0.39 -6.65 14.68 -4.21 1.42 -0.46 8224
0.05 -0.01 0.39 -6.84 15.13 -4.14 1.43 -0.52 8230
0.05 0.00 0.39 -6.88 15.41 -4.06 1.45 -0.56 8237
0.06 -0.01 0.46 -6.86 15.86 -3.97 1.48 -0.57 8243
0.04 -0.00 0.49 -6.96 16.45 -3.88 1.52 -0.56 8249
0.04 -0.00 0.35 -7.19 16.98 -3.78 1.59 -0.51 8256
0.06 -0.01 0.23 -7.40 17.32 -3.68 1.67 -0.44 8262
0.04 -0.00 0.02 -7.61 17.69 -3.59 1.74 -0.33 8268
0.04 -0.00 -0.26 -7.99 18.09 -3.49 1.78 -0.22 8274
0.05 0.00 -0.45 -8.32 18.40 -3.39 1.79 -0.08 8281
0.05 -0.00 -0.63 -8.79 18.48 -3.30 1.75 0.05 8287
0.04 -0.00 -0.92 -9.29 18.55 -3.20 1.66 0.17 8294
0.05 0.00 -0.98 -9.84 17.81 -3.09 1.56 0.29 8300
0.05 -0.00 -0.97 -10.15 17.04 -2.96 1.40 0.40 8306
0.04 -0.00 -0.90 -10.61 16.48 -2.79 1.22 0.50 8312
0.05 -0.00 -0.58 -10.83 15.75 -2.59 1.06 0.60 8318
0.04 -0.00 -0.22 -11.26 15.82 -2.37 0.94 0.63 8326
0.04 -0.00 0.04 -11.62 16.00 -2.12 0.87 0.69 8332
0.05 -0.01 0.07 -11.97 16.42 -1.86 0.86 0.74 8338
0.04 -0.00 -0.14 -12.31 16.72 -1.65 0.86 0.80 8344
0.04 -0.00 -0.57 -12.64 16.93 -1.51 0.86 0.86 8350
0.06 -0.00 -1.00 -12.88 17.02 -1.45 0.81 0.92 8357
0.05 -0.01 -1.24 -13.33 16.98 -1.46 0.75 0.99 8364
0.04 -0.00 -1.23 -13.80 16.46 -1.51 0.68 1.05 8370
0.05 -0.01 -0.91 -14.25 15.38 -1.62 0.65 1.12 8376
0.04 -0.00 -0.40 -14.40 14.01 -1.76 0.75 1.21 8383
0.05 0.01 -0.19 -14.68 12.50 -1.90 0.99 1.31 8389
0.04 -0.00 -0.42 -15.25 11.24 -2.01 1.36 1.47 8395
0.04 0.00 -1.39 -16.05 10.51 -2.15 1.75 1.65 8401
0.06 -0.01 -2.53 -16.86 10.01 -2.23 2.03 1.82 8409
0.04 -0.00 -4.08 -17.88 8.37 -2.25 2.17 1.98 8415
0.04 -0.00 -6.09 -19.47 6.84 -2.20 2.12 2.10 8421
0.05 -0.01 -6.60 -21.25 4.39 -2.04 1.90 2.13 8427
0.05 -0.00 -8.27 -23.19 3.11 -1.76 1.44 2.10 8433
0.04 -0.00 -8.53 -23.40 1.17 -1.36 0.92 2.00 8439
0.06 -0.01 -8.10 -23.11 0.14 -0.85 0.40 1.83 8446
0.04 -0.00 -7.64 -22.20 0.40 -0.32 -0.09 1.56 8453
0.04 -0.00 -6.71 -21.07 2.03 0.16 -0.53 1.20 8459
0.05 -0.00 -7.96 -35.68 28.39 1.49 -1.43 0.80 8465
0.04 -0.00 -7.78 -20.42 -5.58 2.13 -1.46 0.43 8471
0.03 -0.00 -7.05 -20.57 0.54 2.50 -2.05 0.13 8477
0.04 0.01 -4.14 -12.72 5.45 2.78 -2.81 -0.03 8484
0.05 0.02 -2.28 2.70 6.55 2.77 -2.86 -0.12 8491
0.01 0.41 1.44 6.64 14.15 2.85 -2.28 0.04 8497
0.01 0.65 4.70 3.42 17.29 2.76 -1.46 0.35 8503
0.00 0.68 4.45 0.78 13.01 2.57 -0.56 0.61 8509
-0.02 0.75 1.26 -2.80 14.80 2.55 -0.15 0.75 8516
0.01 0.77 -2.74 -4.39 15.17 2.58 -0.08 0.75 8522
-0.02 0.84 -3.88 -3.88 14.26 2.74 -0.24 0.59 8528
-0.01 0.88 -4.17 -3.10 16.31 2.89 -0.34 0.36 8535
-0.02 0.93 -3.99 -2.60 17.95 2.91 -0.24 0.12 8542
-0.02 0.96 -3.55 -2.57 18.38 2.83 -0.04 -0.14 8548
-0.00 1.00 -0.19 -2.68 18.34 2.70 0.33 -0.36 8554
-0.01 1.06 1.97 -2.68 16.99 2.58 0.76 -0.44 8560
-0.01 1.07 3.34 -2.37 18.49 2.44 0.96 -0.43 8566
0.01 1.15 3.93 -3.10 21.56 1.20 -0.07 -0.22 8573
-0.00 1.14 2.38 -2.91 12.26 0.31 -0.46 0.07 8580
-0.01 1.20 0.23 -1.31 10.82 0.16 -0.39 0.13 8586
-0.01 1.22 0.41 -1.23 10.29 0.16 -0.35 0.09 8592
-0.02 1.20 1.29 -0.43 10.17 0.09 -0.20 0.05 8599
0.01 1.21 0.85 0.10 11.44 0.02 -0.11 0.07 8605
0.01 1.23 0.82 -1.37 9.98 0.03 -0.11 0.09 8611
0.00 1.25 0.89 -1.21 10.00 0.04 -0.11 0.08 8617
0.01 1.27 0.86 -1.31 9.84 0.05 -0.11 0.08 8624
0.03 1.26 0.91 -1.83 10.13 0.06 -0.13 0.08 8630
0.04 1.25 0.91 -1.08 9.96 0.07 -0.14 0.10 8637
0.05 1.27 0.85 -1.12 9.92 0.06 -0.14 0.08 8643
0.05 1.28 0.83 -1.08 9.92 0.07 -0.15 0.10 8649
0.06 1.27 0.81 -1.07 9.88 0.05 -0.15 0.11 8655
0.06 1.27 0.78 -1.07 9.93 0.04 -0.15 0.10 8662
0.10 1.27 0.78 -1.04 9.90 0.04 -0.14 0.12 8668
0.07 1.26 0.78 -1.03 9.83 0.04 -0.14 0.12 8675
0.09 1.23 0.14 -1.00 9.88 0.04 -0.15 0.12 8681
0.13 1.21 0.74 -1.07 9.90 0.04 -0.14 0.13 8687
0.12 1.18 0.71 -1.05 9.89 0.04 -0.14 0.13 8693
0.14 1.15 0.67 -1.04 9.88 0.03 -0.13 0.15 8699
0.15 1.13 0.72 -1.02 9.91 0.03 -0.12 0.14 8706
0.16 1.08 0.62 -1.07 9.88 0.03 -0.12 0.15 8713
0.16 1.05 0.68 -1.03 9.92 0.03 -0.10 0.16 8719
0.18 1.03 0.64 -1.03 9.85 0.03 -0.09 0.15 8725
0.21 1.01 0.66 -1.03 9.87 0.03 -0.08 0.16 8731
0.20 0.97 0.70 -0.98 9.86 0.03 -0.07 0.16 8737
0.22 0.93 0.68 -1.05 9.81 0.03 -0.07 0.16 8743
0.21 0.91 0.70 -1.06 9.88 0.03 -0.07 0.15 8750
0.20 0.87 0.70 -1.03 9.86 0.03 -0.07 0.15 8757
0.23 0.83 0.69 -1.07 9.83 0.03 -0.07 0.16 8763
0.24 0.82 0.68 -1.02 9.84 0.04 -0.08 0.15 8769
0.27 0.75 0.70 -1.02 9.88 0.04 -0.07 0.15 8775
0.28 0.72 0.64 -1.06 9.93 0.04 -0.07 0.16 8781
0.30 0.69 0.64 -1.04 9.88 0.04 -0.07 0.15 8787
0.33 0.64 0.63 -1.04 9.87 0.04 -0.06 0.15 8795
0.35 0.59 0.02 -1.08 9.87 0.03 -0.05 0.16 8801
0.38 0.61 0.63 -1.08 9.86 0.04 -0.05 0.16 8807
0.41 0.55 0.64 -1.06 9.86 0.04 -0.04 0.16 8813
0.40 0.55 0.63 -1.07 9.83 0.04 -0.04 0.16 8819
0.41 0.49 0.64 -1.07 9.85 0.03 -0.03 0.16 8825
0.43 0.48 0.64 -1.12 9.86 0.04 -0.03 0.17 8832
0.46 0.48 0.69 -1.09 9.84 0.03 -0.03 0.15 8839
0.47 0.40 0.68 -1.04 9.84 0.04 -0.03 0.15 8845
0.48 0.40 0.68 -1.05 9.86 0.04 -0.03 0.16 8851
0.49 0.35 0.68 -1.11 9.85 0.04 -0.03 0.16 8857
0.47 0.29 0.68 -1.13 9.90 0.04 -0.03 0.14 8863
0.48 0.28 0.67 -1.12 9.89 0.04 -0.03 0.14 8869
0.52 0.20 0.67 -1.17 9.87 0.04 -0.03 0.14 8877
0.53 0.17 0.67 -1.12 9.85 0.04 -0.03 0.15 8883
0.53 0.14 0.66 -1.13 9.87 0.04 -0.03 0.15 8889
0.55 0.08 0.67 -1.14 9.87 0.04 -0.02 0.14 8895
0.56 0.08 0.69 -1.14 9.87 0.04 -0.03 0.14 8901
0.59 0.02 0.68 -1.13 9.86 0.04 -0.03 0.14 8907
0.62 0.04 0.68 -1.22 9.85 0.05 -0.03 0.14 8913
0.60 0.00 0.69 -1.14 9.85 0.05 -0.03 0.12 8921
0.62 -0.02 0.73 -1.15 9.92 0.05 -0.03 0.13 8927
0.65 -0.01 0.70 -1.19 9.90 0.05 -0.03 0.12 8933
0.67 -0.01 0.69 -1.18 9.90 0.05 -0.03 0.13 8939
0.68 -0.02 0.69 -1.21 9.92 0.06 -0.03 0.13 8945
0.70 -0.02 0.73 -1.20 9.93 0.06 -0.03 0.11 8951
0.73 -0.02 0.73 -1.21 9.92 0.06 -0.03 0.10 8958
0.76 -0.03 0.71 -1.22 9.94 0.07 -0.04 0.11 8965
0.78 -0.03 0.77 -1.28 9.92 0.08 -0.04 0.10 8971
0.81 -0.01 0.78 -1.24 9.90 0.09 -0.05 0.08 8977
0.84 -0.04 0.77 -1.30 9.91 0.09 -0.06 0.08 8983
0.85 -0.05 0.78 -1.34 9.97 0.11 -0.07 0.07 8989
0.86 -0.02 0.78 -1.36 9.92 0.12 -0.08 0.06 8995
0.86 -0.03 0.77 -1.36 9.90 0.13 -0.09 0.04 9003
0.90 -0.03 0.80 -1.41 9.99 0.15 -0.10 0.04 9009
0.95 -0.02 0.85 -1.56 10.12 0.17 -0.11 0.02 9015
1.00 -0.03 0.77 -1.39 10.05 0.19 -0.12 0.01 9021
1.01 -0.04 0.74 -1.43 10.11 0.22 -0.13 -0.00 9027
1.03 -0.03 0.77 -1.54 10.21 0.25 -0.14 -0.01 9034
1.08 -0.04 0.80 -1.56 10.24 0.30 -0.16 -0.02 9040
1.07 -0.05 0.80 -1.66 10.38 0.36 -0.18 -0.03 9047
1.12 -0.02 0.95 -1.56 10.59 0.43 -0.20 -0.04 9053
1.16 -0.04 0.81 -1.68 10.60 0.51 -0.22 -0.05 9059
1.20 -0.03 0.87 -1.71 10.78 0.58 -0.23 -0.07 9066
1.29 -0.03 0.90 -1.78 11.07 0.67 -0.23 -0.07 9072
1.31 -0.02 0.89 -1.87 11.15 0.77 -0.25 -0.09 9078
1.32 -0.03 0.87 -2.00 11.22 0.85 -0.26 -0.10 9084
1.36 -0.03 0.65 -1.95 11.41 0.95 -0.25 -0.10 9092
1.40 -0.04 0.61 -2.02 11.12 1.02 -0.22 -0.11 9098
1.43 -0.03 0.75 -2.09 11.26 1.09 -0.21 -0.12 9104
1.47 -0.06 0.71 -2.14 11.28 1.16 -0.18 -0.12 9110
1.46 -0.06 0.75 -2.09 11.33 1.24 -0.18 -0.12 9117
1.49 -0.04 0.81 -2.29 11.40 1.32 -0.19 -0.12 9123
1.54 -0.06 0.84 -2.30 11.29 1.36 -0.25 -0.13 9129
1.55 -0.05 0.79 -2.55 11.32 1.44 -0.29 -0.15 9136
1.59 -0.05 0.75 -2.54 11.64 1.55 -0.28 -0.16 9142
1.55 -0.06 0.80 -2.65 12.29 1.70 -0.30 -0.18 9149
1.55 -0.04 0.78 -2.76 12.73 1.91 -0.31 -0.19 9155
1.55 -0.05 0.83 -2.97 12.81 2.13 -0.32 -0.21 9161
1.51 -0.06 0.80 -3.23 12.96 2.35 -0.33 -0.23 9167
1.48 -0.06 0.86 -3.37 12.72 2.55 -0.34 -0.26 9175
1.41 -0.05 1.13 -3.40 13.13 2.74 -0.35 -0.30 9181
1.34 -0.03 1.09 -3.68 12.43 2.95 -0.36 -0.34 9187
1.22 -0.04 1.24 -3.62 13.40 3.15 -0.36 -0.40 9193
1.10 -0.04 1.13 -3.91 13.83 3.42 -0.34 -0.45 9200
0.93 -0.03 1.29 -3.96 14.51 3.72 -0.37 -0.50 9206
0.85 -0.02 1.51 -4.56 15.04 4.04 -0.38 -0.55 9212
0.69 -0.03 1.28 -4.90 15.68 4.23 -0.41 -0.61 9219
0.60 -0.02 1.47 -5.58 16.87 4.28 -0.49 -0.65 9225
0.51 -0.02 1.68 -6.84 17.73 4.28 -0.55 -0.69 9232
0.44 -0.01 1.39 -8.33 19.78 4.28 -0.52 -0.68 9238
0.43 -0.02 1.29 -9.69 22.25 4.28 -0.41 -0.64 9244
0.34 -0.01 0.57 -12.24 23.50 4.28 -0.26 -0.58 9250
0.33 -0.01 0.34 -11.97 24.08 4.28 -0.21 -0.53 9257
0.22 -0.02 0.13 -11.56 21.88 4.28 -0.24 -0.51 9264
0.22 -0.01 -0.14 -10.41 21.54 4.28 -0.36 -0.50 9270
0.18 -0.01 0.25 -9.57 21.90 4.28 -0.42 -0.46 9276
0.14 -0.01 1.18 -8.23 22.64 4.28 -0.40 -0.42 9283
0.11 -0.01 2.17 -6.74 22.93 4.28 -0.40 -0.43 9289
0.08 -0.01 3.44 -4.21 23.09 4.28 -0.43 -0.45 9295
0.07 -0.00 4.27 -2.22 22.77 4.28 -0.50 -0.49 9302
0.08 0.02 4.97 0.76 23.40 4.28 -0.53 -0.54 9309
0.06 0.02 5.07 3.84 22.78 4.28 -0.35 -0.59 9315
0.04 0.01 4.37 6.99 20.83 4.28 0.05 -0.64 9321
0.05 0.00 2.98 16.05 20.36 4.28 0.69 -0.77 9327
0.04 -0.00 4.51 12.82 6.10 4.28 0.52 -1.15 9333
0.04 0.01 4.05 8.78 -7.29 4.15 -0.19 -1.66 9339
0.05 -0.00 2.02 19.03 1.98 2.29 -0.67 -1.92 9347
0.05 -0.01 4.92 17.77 20.51 0.61 -0.01 -1.85 9353
0.05 -0.00 4.99 11.34 21.78 -0.47 0.43 -1.76 9359
0.05 -0.00 3.49 7.60 17.32 -1.34 0.61 -1.69 9365
0.04 -0.00 2.17 9.07 12.59 -2.14 0.50 -1.51 9371
0.05 0.00 1.85 11.16 9.65 -2.72 0.34 -1.33 9378
0.05 0.00 2.37 9.55 7.37 -3.07 0.23 -1.17 9384
0.04 -0.00 2.54 6.82 7.20 -3.27 0.14 -1.06 9391
0.05 0.00 2.53 5.42 6.79 -3.35 0.13 -0.96 9397
0.06 0.00 2.63 5.01 6.24 -3.36 0.16 -0.85 9403
0.05 0.00 2.66 4.50 5.76 -3.34 0.21 -0.75 9409
0.04 0.00 2.63 3.85 5.22 -3.29 0.28 -0.65 9416
0.05 0.00 2.62 3.33 5.48 -3.27 0.34 -0.56 9422
0.05 0.00 2.59 2.45 6.47 -3.26 0.44 -0.46 9428
0.04 -0.00 2.48 2.80 7.43 -3.29 0.51 -0.38 9435
0.05 -0.00 2.51 2.96 8.47 -3.37 0.58 -0.29 9441
0.06 -0.01 2.49 2.86 9.59 -3.52 0.64 -0.22 9447
0.04 -0.00 2.44 2.58 10.77 -3.74 0.73 -0.14 9453
0.04 0.00 2.32 2.23 11.77 -4.04 0.82 -0.08 9460
0.06 0.00 2.43 2.00 12.56 -4.23 0.90 -0.03 9466
0.06 -0.01 2.04 0.90 12.97 -4.28 0.97 0.00 9473
0.04 0.01 2.01 -0.13 13.07 -4.28 1.04 0.04 9479
0.06 -0.01 1.82 -0.91 12.85 -4.28 1.09 0.07 9485
0.05 -0.01 1.69 -2.03 12.39 -4.28 1.14 0.09 9491
0.04 -0.00 1.59 -3.58 12.25 -4.28 1.21 0.09 9498
0.05 0.00 1.40 -4.68 12.04 -4.28 1.28 0.07 9504
0.05 -0.00 1.10 -5.61 12.08 -4.28 1.34 0.05 9510
0.04 -0.00 0.82 -6.22 12.56 -4.28 1.40 0.01 9517
0.05 0.00 0.61 -6.53 13.01 -4.21 1.45 -0.02 9523
0.05 -0.01 0.48 -6.70 13.78 -4.12 1.50 -0.05 9529
0.04 -0.00 0.35 -6.60 14.63 -4.00 1.57 -0.06 9536
0.04 -0.00 0.12 -6.35 15.51 -3.89 1.63 -0.04 9542
0.05 -0.01 -0.15 -6.13 16.09 -3.82 1.70 -0.00 9548
0.04 -0.00 -0.42 -5.85 16.55 -3.77 1.73 0.05 9554
0.04 0.00 -0.72 -5.82 17.01 -3.73 1.73 0.12 9561
0.06 -0.01 -0.98 -5.82 17.36 -3.68 1.69 0.22 9567
0.04 -0.00 -1.12 -5.99 17.59 -3.62 1.61 0.30 9574
0.04 -0.00 -1.11 -6.36 17.66 -3.56 1.51 0.37 9580
0.05 -0.01 -0.93 -6.87 17.85 -3.48 1.43 0.41 9586
0.05 -0.00 -0.81 -7.67 17.84 -3.40 1.37 0.44 9592
0.04 -0.00 -0.71 -8.57 17.50 -3.27 1.36 0.45 9598
0.05 -0.00 -0.05 -9.44 16.98 -3.10 1.35 0.44 9605
0.05 -0.00 -1.04 -10.90 16.56 -2.88 1.32 0.42 9612
0.03 -0.00 -1.32 -11.22 16.20 -2.62 1.25 0.42 9618
0.05 -0.01 -1.45 -11.88 15.79 -2.34 1.10 0.43 9624
0.04 -0.00 -1.33 -12.42 15.52 -2.04 0.93 0.45 9630
0.04 -0.00 -1.01 -12.84 15.37 -1.76 0.75 0.50 9636
0.06 -0.01 -0.48 -13.07 15.17 -1.49 0.63 0.56 9644
0.04 -0.00 0.12 -13.16 15.29 -1.26 0.60 0.64 9650
0.04 -0.00 0.76 -13.26 15.55 -1.09 0.69 0.73 9656
0.05 -0.00 1.31 -13.15 15.91 -1.00 0.88 0.82 9662
0.04 -0.00 1.53 -13.04 16.14 -0.99 1.15 0.93 9668
0.05 -0.01 1.73 -13.21 16.38 -1.07 1.45 1.04 9675
0.05 -0.00 1.48 -13.46 16.65 -1.24 1.73 1.16 9681
0.04 0.00 0.50 -13.35 16.34 -1.51 1.93 1.29 9688
0.06 -0.00 -0.69 -13.51 15.41 -1.83 2.02 1.45 9694
0.05 -0.00 -2.00 -13.79 14.08 -2.14 1.99 1.63 9701
0.05 0.00 -3.25 -14.43 12.33 -2.44 1.85 1.83 9707
0.05 0.00 -4.35 -15.18 10.57 -2.54 1.65 2.04 9713
0.03 0.00 -5.59 -15.86 8.28 -2.54 1.41 2.24 9719
0.06 -0.01 -6.28 -16.96 7.52 -2.48 1.15 2.41 9726
0.05 -0.00 -7.09 -18.07 6.73 -2.30 0.80 2.50 9733
0.04 -0.00 -8.22 -19.35 5.20 -2.07 0.39 2.50 9739
0.05 -0.01 -8.53 -19.81 3.51 -1.81 -0.24 2.37 9745
0.05 -0.00 -7.77 -20.28 1.94 -1.48 -0.87 2.10 9751
0.04 -0.00 -6.23 -20.29 1.15 -1.08 -1.29 1.86 9757
0.05 -0.00 -4.58 -20.32 1.30 -0.63 -1.43 1.49 9764
0.05 -0.00 -2.90 -19.86 2.03 -0.20 -1.33 1.08 9771
0.05 -0.00 -0.69 -33.79 8.30 0.54 -1.15 0.65 9777
0.04 -0.00 -2.85 -20.57 -3.41 1.83 -0.44 0.27 9783
0.05 -0.01 -4.21 -20.73 -0.97 2.01 -0.39 0.02 9789
0.04 -0.00 -6.82 -25.04 7.89 2.33 -1.08 0.03 9795
0.04 0.00 -3.46 -3.51 3.53 2.65 -1.48 -0.04 9802
0.04 0.19 -1.50 1.91 5.48 2.57 -1.58 -0.07 9808
0.01 0.56 2.81 3.74 16.03 2.80 -1.31 -0.01 9815
-0.00 0.66 2.37 3.52 16.08 2.75 -0.77 0.08 9821
0.01 0.70 0.59 -0.15 13.58 2.66 -0.51 0.11 9827
-0.01 0.75 -0.55 -2.76 14.17 2.69 -0.58 0.06 9834
-0.02 0.79 -1.24 -3.52 14.52 2.77 -0.53 0.01 9840
-0.01 0.78 -1.10 -3.44 15.36 2.85 -0.47 -0.05 9846
-0.02 0.84 -0.30 -3.26 18.32 2.87 -0.38 -0.13 9852
-0.02 0.89 -0.46 -3.02 20.05 2.79 -0.19 -0.21 9860
-0.02 0.94 0.34 -2.76 18.31 2.61 0.15 -0.29 9866
-0.02 0.97 1.70 -2.39 16.86 2.47 0.52 -0.33 9872
0.00 0.99 1.19 -3.14 19.17 2.42 0.83 -0.35 9878
0.00 1.00 3.49 -3.87 26.08 1.21 -0.09 -0.25 9884
-0.01 1.06 2.80 -2.53 11.33 0.21 -0.44 0.04 9891
-0.00 1.10 0.31 -1.77 10.56 0.10 -0.37 0.12 9897
-0.01 1.14 0.23 -1.79 10.37 0.12 -0.29 0.09 9904
0.00 1.16 1.22 -0.56 10.69 0.08 -0.20 0.06 9910
-0.01 1.13 0.72 -0.01 11.26 0.00 -0.08 0.07 9916
0.01 1.15 0.83 -1.38 10.00 0.00 -0.04 0.09 9923
0.02 1.16 0.91 -1.09 10.09 0.02 -0.06 0.08 9929
0.05 1.19 1.06 0.57 10.64 0.01 -0.05 0.08 9935
0.04 1.19 0.95 -1.24 9.97 0.01 -0.03 0.09 9942
0.04 1.22 0.91 -1.11 9.97 0.01 -0.03 0.11 9948
0.05 1.22 0.89 -1.03 9.93 0.01 -0.04 0.10 9954
0.05 1.22 0.88 -1.09 9.91 0.01 -0.04 0.10 9961
0.05 1.21 0.85 -1.07 9.87 0.00 -0.05 0.11 9967
0.07 1.21 0.84 -1.04 9.88 0.01 -0.05 0.11 9973
0.07 1.23 0.83 -1.03 9.90 0.01 -0.05 0.11 9979
0.06 1.23 0.89 -1.03 9.87 0.02 -0.06 0.11 9986
0.05 1.25 0.84 -1.03 9.93 0.02 -0.07 0.12 9992
0.08 1.24 0.84 -1.00 9.84 0.02 -0.08 0.12 9998
0.08 1.23 0.84 -0.99 9.84 0.03 -0.09 0.12 10005
0.10 1.21 0.81 -1.00 9.84 0.03 -0.09 0.12 10011
0.10 1.18 0.82 -1.04 9.95 0.03 -0.09 0.13 10017
0.11 1.17 0.78 -1.03 9.91 0.02 -0.09 0.12 10023
0.13 1.16 0.76 -1.01 9.89 0.02 -0.08 0.13 10030
0.12 1.13 0.80 -0.98 9.87 0.02 -0.08 0.14 10037
0.13 1.10 0.75 -0.98 9.84 0.02 -0.08 0.14 10043
0.14 1.09 0.76 -0.96 9.84 0.02 -0.07 0.13 10049
0.14 1.07 0.76 -1.00 9.91 0.02 -0.07 0.15 10055
0.15 1.05 0.75 -0.99 9.85 0.02 -0.07 0.15 10061
0.17 1.02 0.78 -0.98 9.87 0.02 -0.08 0.14 10068
0.19 0.98 0.78 -0.98 9.84 0.03 -0.08 0.14 10075
0.20 0.97 0.79 -1.02 9.82 0.03 -0.09 0.14 10081
0.21 0.97 0.72 -1.03 9.85 0.03 -0.09 0.14 10087
0.21 0.94 0.74 -1.01 9.85 0.03 -0.09 0.14 10093
0.21 0.92 0.74 -1.03 9.86 0.03 -0.09 0.15 10100
0.24 0.87 0.74 -1.02 9.88 0.03 -0.08 0.14 10106
0.24 0.82 0.71 -1.02 9.90 0.03 -0.08 0.15 10113
0.25 0.79 0.72 -1.03 9.89 0.03 -0.07 0.15 10119
0.28 0.76 0.71 -1.01 9.88 0.03 -0.06 0.15 10125
0.29 0.72 0.69 -1.03 9.85 0.03 -0.06 0.15 10132
0.26 0.72 0.71 -1.04 9.84 0.03 -0.05 0.15 10138
0.31 0.67 0.79 -0.95 9.81 0.03 -0.05 0.14 10144
0.33 0.64 0.70 -1.03 9.91 0.03 -0.05 0.16 10150
0.33 0.65 0.75 -1.03 9.89 0.03 -0.05 0.15 10157
0.36 0.59 0.72 -1.02 9.87 0.03 -0.05 0.15 10164
0.36 0.54 0.74 -1.03 9.83 0.04 -0.06 0.16 10170
0.38 0.54 0.74 -1.02 9.84 0.03 -0.06 0.15 10176
0.38 0.51 0.69 -1.05 9.85 0.04 -0.07 0.15 10182
0.40 0.49 0.72 -1.05 9.86 0.04 -0.07 0.14 10188
0.42 0.49 0.71 -1.05 9.85 0.04 -0.08 0.14 10195
0.44 0.48 0.72 -1.01 9.83 0.04 -0.08 0.14 10202
0.45 0.46 0.72 -1.06 9.87 0.04 -0.09 0.13 10208
0.45 0.41 0.71 -1.07 9.86 0.04 -0.10 0.14 10214
0.46 0.36 0.73 -1.07 9.89 0.04 -0.09 0.13 10220
0.51 0.30 0.67 -1.07 9.87 0.04 -0.09 0.14 10227
0.57 0.31 0.68 -1.06 9.88 0.04 -0.09 0.13 10233
0.56 0.29 0.68 -1.09 9.87 0.04 -0.09 0.13 10240
0.59 0.22 0.64 -1.07 9.96 0.05 -0.08 0.14 10246
0.60 0.20 0.67 -1.01 9.92 0.05 -0.08 0.13 10252
0.63 0.14 0.67 -1.11 9.95 0.05 -0.08 0.13 10259
0.69 0.11 0.68 -1.11 9.89 0.05 -0.08 0.12 10265
0.74 0.07 0.76 -1.14 9.89 0.05 -0.09 0.12 10271
0.77 0.05 0.69 -1.13 9.90 0.06 -0.08 0.10 10277
0.79 0.02 0.69 -1.19 9.88 0.07 -0.09 0.10 10284
0.80 0.01 0.63 -1.12 9.86 0.07 -0.09 0.10 10291
0.86 -0.03 0.71 -1.19 9.88 0.07 -0.08 0.08 10297
0.92 -0.02 0.70 -1.26 9.91 0.08 -0.08 0.09 10303
0.94 -0.02 0.68 -1.17 9.93 0.08 -0.08 0.09 10309
0.98 -0.03 0.75 -1.27 9.92 0.09 -0.08 0.08 10315
1.00 -0.02 0.73 -1.21 9.98 0.09 -0.08 0.07 10322
1.02 -0.04 0.71 -1.18 9.97 0.10 -0.08 0.05 10329
1.03 -0.04 1.11 -1.59 9.59 0.11 -0.09 0.05 10335
1.10 -0.03 0.74 -1.31 9.96 0.13 -0.10 0.04 10341
1.10 -0.04 0.71 -1.32 10.04 0.14 -0.11 0.02 10347
1.12 -0.03 0.83 -1.37 10.07 0.16 -0.13 0.01 10354
1.16 -0.04 0.86 -1.40 10.18 0.18 -0.15 -0.01 10360
1.23 -0.04 0.80 -1.42 10.22 0.21 -0.17 -0.03 10366
1.25 -0.03 0.82 -1.50 10.25 0.25 -0.19 -0.04 10374
1.31 -0.04 0.87 -1.56 10.43 0.32 -0.22 -0.06 10380
1.33 -0.04 0.74 -1.57 10.69 0.39 -0.25 -0.07 10386
1.39 -0.04 0.98 -1.60 10.93 0.50 -0.33 -0.08 10392
1.44 -0.05 0.90 -1.69 10.87 0.63 -0.34 -0.10 10399
1.48 -0.04 0.75 -1.61 11.04 0.76 -0.36 -0.11 10405
1.54 -0.06 0.86 -1.88 11.42 0.90 -0.37 -0.11 10412
1.62 -0.04 0.72 -1.88 11.49 1.01 -0.35 -0.11 10418
1.63 -0.05 1.17 -1.92 11.51 1.12 -0.33 -0.10 10425
1.65 -0.04 0.52 -1.96 11.25 1.19 -0.27 -0.11 10431
1.71 -0.05 0.68 -1.29 11.92 1.23 -0.21 -0.10 10437
1.72 -0.05 0.75 -2.11 11.65 1.29 -0.19 -0.12 10444
1.75 -0.06 0.61 -2.36 11.41 1.33 -0.23 -0.12 10450
1.76 -0.07 0.65 -2.31 11.76 1.42 -0.24 -0.14 10457
1.76 -0.04 0.78 -2.44 11.81 1.54 -0.27 -0.15 10463
1.76 -0.05 0.89 -2.47 11.90 1.67 -0.32 -0.18 10470
1.74 -0.06 0.70 -2.66 12.83 1.85 -0.33 -0.20 10476
1.76 -0.06 0.76 -2.67 13.23 2.08 -0.35 -0.22 10482
1.70 -0.05 0.75 -2.96 13.11 2.33 -0.38 -0.24 10489
1.68 -0.05 1.00 -3.17 13.12 2.56 -0.39 -0.27 10496
1.57 -0.05 0.91 -3.25 12.98 2.76 -0.39 -0.30 10502
1.49 -0.04 0.65 -3.39 13.22 2.97 -0.40 -0.34 10508
1.38 -0.04 0.86 -3.58 13.64 3.20 -0.41 -0.37 10515
1.24 -0.05 1.12 -3.66 14.28 3.54 -0.44 -0.42 10521
1.15 -0.04 1.31 -3.79 14.76 3.81 -0.47 -0.48 10527
1.00 -0.03 1.61 -4.56 15.37 4.12 -0.49 -0.54 10533
0.88 -0.03 2.23 -4.67 16.12 4.25 -0.54 -0.64 10541
0.69 -0.03 1.05 -4.77 15.92 4.28 -0.63 -0.69 10547
0.54 -0.01 1.76 -5.98 17.34 4.28 -0.69 -0.74 10553
0.48 -0.01 1.77 -7.46 19.47 4.28 -0.70 -0.79 10560
0.44 -0.01 1.95 -9.62 21.76 4.28 -0.57 -0.76 10566
0.37 -0.01 1.77 -11.87 23.13 4.28 -0.36 -0.71 10572
0.30 -0.00 1.52 -13.12 23.71 4.28 -0.17 -0.66 10579
0.31 -0.01 1.56 -12.58 22.38 4.28 -0.04 -0.64 10586
0.21 0.00 0.91 -10.67 22.41 4.28 -0.09 -0.67 10592
0.17 -0.01 1.06 -9.21 22.10 4.28 -0.12 -0.65 10598
0.13 -0.01 1.74 -8.01 22.83 4.28 -0.06 -0.62 10605
0.11 -0.00 2.54 -5.78 23.31 4.28 -0.02 -0.65 10611
0.08 -0.00 3.21 -3.48 22.70 4.28 -0.01 -0.70 10617
0.06 0.00 3.47 -1.54 22.43 4.28 -0.07 -0.75 10624
0.06 -0.00 4.32 1.20 23.44 4.28 -0.16 -0.82 10631
0.05 -0.00 4.24 4.27 22.64 4.28 -0.17 -0.89 10637
0.06 0.01 3.58 7.29 21.76 4.28 0.04 -0.97 10643
0.06 -0.00 4.01 2.89 5.58 4.28 0.58 -1.09 10649
0.04 0.01 4.44 12.14 7.09 4.28 0.22 -1.42 10656
0.06 -0.01 2.11 13.92 -13.92 3.73 -0.74 -1.79 10662
0.05 -0.01 2.87 22.10 6.83 1.43 -1.07 -1.88 10669
0.05 0.01 5.86 16.71 24.91 -0.16 -0.35 -1.71 10675
0.06 -0.00 6.26 10.20 22.96 -1.14 0.22 -1.55 10682
0.05 -0.00 4.17 6.78 16.62 -1.95 0.41 -1.38 10688
0.06 -0.00 2.69 9.54 11.67 -2.67 0.40 -1.14 10694
0.05 -0.00 2.93 10.89 9.05 -3.12 0.38 -0.95 10701
0.07 0.00 3.16 8.39 7.65 -3.35 0.35 -0.84 10707
0.06 0.00 3.10 5.65 7.23 -3.45 0.37 -0.77 10714
0.05 -0.00 3.00 4.99 7.05 -3.50 0.42 -0.67 10720
0.07 -0.01 2.67 4.49 6.83 -3.49 0.44 -0.58 10726
0.06 -0.01 2.49 3.67 6.19 -3.48 0.46 -0.50 10732
0.05 0.00 2.29 3.23 6.14 -3.49 0.46 -0.43 10739
0.07 0.00 2.21 3.04 6.26 -3.52 0.46 -0.36 10745
0.05 -0.01 2.17 2.99 6.82 -3.56 0.46 -0.29 10752
0.05 -0.00 2.14 2.65 7.70 -3.60 0.46 -0.22 10758
0.06 -0.01 2.23 2.23 8.56 -3.68 0.49 -0.16 10764
0.05 -0.00 2.35 1.96 8.83 -3.79 0.56 -0.11 10771
0.04 -0.00 2.43 1.71 9.40 -3.92 0.67 -0.07 10777
0.04 0.00 2.34 1.09 9.97 -4.06 0.79 -0.04 10783
0.05 -0.00 2.25 0.20 10.50 -4.14 0.92 -0.02 10789
0.03 -0.00 2.18 -0.64 11.21 -4.21 1.01 0.02 10796
0.05 0.00 1.98 -1.29 11.93 -4.25 1.11 0.06 10802
0.04 -0.00 1.71 -1.70 12.26 -4.27 1.20 0.10 10809
0.04 -0.00 1.48 -2.07 12.52 -4.27 1.27 0.14 10815
0.06 -0.01 1.25 -3.04 12.93 -4.28 1.32 0.20 10821
0.04 -0.00 0.89 -3.04 12.99 -4.28 1.37 0.18 10827
0.04 -0.00 0.87 -3.66 13.29 -4.27 1.42 0.17 10834
0.06 -0.00 0.77 -4.44 13.83 -4.27 1.46 0.15 10841
0.05 -0.00 0.70 -5.18 14.55 -4.25 1.49 0.11 10847
0.05 0.00 0.68 -5.87 14.92 -4.20 1.55 0.07 10853
0.05 -0.01 0.54 -6.27 15.04 -4.14 1.63 0.05 10859
0.04 -0.00 0.27 -6.12 15.24 -4.07 1.73 0.05 10866
0.05 -0.00 0.15 -6.14 15.48 -3.97 1.84 0.07 10872
0.05 -0.00 -0.19 -6.37 15.96 -3.85 1.92 0.11 10878
0.05 -0.01 -0.67 -6.63 16.64 -3.71 1.96 0.17 10885
0.06 -0.01 -0.95 -6.82 16.99 -3.57 1.97 0.24 10892
0.05 -0.01 -1.33 -7.12 17.61 -3.44 1.94 0.32 10898
0.05 0.01 -1.53 -7.41 17.96 -3.33 1.87 0.41 10904
0.05 -0.00 -1.72 -7.80 18.26 -3.24 1.75 0.51 10910
0.04 0.00 -1.65 -8.26 18.47 -3.15 1.59 0.60 10917
0.06 -0.01 -1.64 -8.93 18.36 -3.04 1.39 0.69 10924
0.05 -0.00 -1.35 -9.53 17.91 -2.96 1.16 0.76 10930
0.04 0.01 -0.99 -10.05 17.30 -2.83 0.94 0.82 10936
0.05 -0.00 -0.52 -10.59 16.85 -2.67 0.74 0.86 10943
0.05 -0.00 -0.01 -11.11 16.46 -2.49 0.59 0.89 10949
0.06 -0.01 0.52 -11.64 16.27 -2.28 0.49 0.90 10955
0.05 -0.00 1.12 -12.25 16.21 -2.06 0.46 0.91 10961
0.05 -0.00 1.53 -12.87 16.23 -1.82 0.49 0.92 10969
0.05 -0.01 1.82 -13.45 16.35 -1.62 0.57 0.94 10975
0.04 -0.00 1.79 -13.95 16.75 -1.46 0.68 0.96 10981
0.06 -0.01 1.72 -14.26 16.89 -1.39 0.80 0.99 10987
0.05 -0.00 1.48 -14.41 16.94 -1.43 0.85 1.01 10994
0.05 0.00 0.97 -14.50 16.44 -1.55 0.95 1.04 11000
0.04 -0.00 0.54 -14.53 15.30 -1.75 1.01 1.08 11006
0.05 -0.00 -0.61 -14.18 13.29 -1.95 1.20 1.14 11013
0.05 -0.01 -0.86 -14.23 11.03 -2.11 1.56 1.29 11020
0.04 -0.00 -2.29 -14.75 9.45 -2.20 2.06 1.55 11026
0.05 -0.01 -4.11 -15.44 8.61 -2.17 2.49 1.82 11032
0.05 -0.00 -5.42 -17.23 8.55 -2.06 2.57 2.01 11038
0.05 -0.00 -7.25 -19.23 7.41 -1.90 2.22 2.06 11045
0.07 -0.01 -8.92 -20.61 6.34 -1.70 1.46 2.02 11052
0.05 -0.01 -9.04 -21.10 4.31 -1.48 0.63 1.89 11058
0.04 -0.00 -7.78 -21.05 2.62 -1.25 -0.05 1.79 11064
0.06 -0.01 -6.49 -21.20 2.21 -0.97 -0.45 1.60 11070
0.05 -0.01 -5.19 -21.45 2.52 -0.64 -0.61 1.37 11077
0.05 0.00 -3.90 -20.86 3.25 -0.30 -0.64 1.07 11083
0.05 -0.01 -2.84 -19.70 3.88 -0.00 -0.60 0.70 11089
0.04 -0.00 -2.08 -18.43 4.77 0.23 -0.52 0.31 11096
0.06 -0.01 -9.85 -34.20 5.98 0.80 -0.89 0.12 11102
0.05 -0.00 -7.07 -20.92 -4.65 2.16 -1.20 0.16 11109
0.04 0.00 -6.43 -11.57 -0.74 2.43 -1.98 0.09 11115
0.06 0.02 0.38 -5.08 4.20 2.40 -2.73 0.02 11121
0.03 0.13 2.28 8.92 12.05 2.53 -2.22 0.08 11127
-0.00 0.55 5.90 4.42 14.66 2.46 -1.19 0.46 11134
-0.01 0.66 4.14 3.92 13.56 2.36 -0.47 0.75 11141
-0.02 0.69 1.15 -1.78 11.41 2.35 -0.05 0.88 11147
-0.01 0.75 -2.53 -3.09 13.94 2.40 -0.03 0.84 11153
-0.01 0.73 -4.83 -3.97 13.61 2.52 -0.25 0.65 11160
-0.01 0.83 -3.48 -2.74 13.31 2.68 -0.47 0.40 11166
-0.02 0.86 -3.23 -1.88 13.89 2.80 -0.35 0.19 11172
-0.01 0.87 -4.22 -2.35 16.46 2.84 -0.11 -0.03 11180
-0.02 0.96 -2.75 -2.81 17.97 2.87 0.14 -0.32 11186
-0.03 1.05 1.25 -3.40 17.03 2.84 0.59 -0.50 11192
-0.00 1.10 3.84 -2.78 18.52 2.86 1.07 -0.53 11198
-0.02 1.11 4.45 -3.42 23.84 2.65 1.11 -0.50 11205
-0.02 1.15 4.19 -2.64 13.21 0.55 -0.56 -0.10 11211
-0.02 1.23 1.63 -2.11 11.70 0.23 -0.52 0.12 11217
-0.01 1.25 -0.05 -1.53 10.37 0.20 -0.47 0.11 11225
-0.01 1.23 0.29 -4.38 11.00 0.11 -0.26 0.03 11231
-0.02 1.24 1.13 -1.66 10.17 0.02 -0.10 0.09 11237
0.00 1.26 1.09 -1.39 9.83 0.03 -0.10 0.09 11243
-0.01 1.27 1.00 -1.19 10.03 0.05 -0.13 0.09 11249
0.01 1.26 0.88 -1.15 10.12 0.05 -0.13 0.09 11256
0.01 1.27 1.00 -1.13 9.90 0.06 -0.12 0.10 11262
0.02 1.27 0.96 -1.10 9.92 0.04 -0.11 0.11 11269
0.01 1.31 0.98 -1.08 9.90 0.04 -0.11 0.11 11275
0.04 1.31 1.00 -1.03 9.94 0.04 -0.11 0.12 11282
0.03 1.29 0.94 -1.04 9.87 0.04 -0.10 0.12 11288
0.04 1.29 0.91 -1.02 9.92 0.03 -0.11 0.13 11294
0.07 1.26 0.96 -0.99 9.85 0.03 -0.11 0.14 11300
0.07 1.25 0.92 -0.99 9.83 0.03 -0.12 0.13 11307
0.07 1.24 0.94 -0.98 9.83 0.03 -0.12 0.14 11314
0.12 1.21 0.87 -0.97 9.88 0.04 -0.12 0.15 11320
0.12 1.19 0.86 -1.00 9.88 0.03 -0.12 0.14 11326
0.14 1.17 0.90 -1.00 9.91 0.03 -0.12 0.15 11332
0.14 1.12 0.88 -1.03 9.90 0.03 -0.11 0.16 11338
0.16 1.09 0.83 -1.00 9.84 0.03 -0.10 0.16 11345
0.16 1.08 0.83 -1.01 9.86 0.03 -0.09 0.16 11352
0.16 1.04 0.83 -0.99 9.86 0.02 -0.08 0.16 11358
0.15 1.02 0.82 -1.01 9.87 0.02 -0.07 0.16 11364
0.19 1.00 0.84 -0.98 9.87 0.02 -0.06 0.15 11370
0.18 0.95 0.84 -1.01 9.84 0.02 -0.06 0.17 11377
0.18 0.94 0.86 -1.03 9.83 0.02 -0.06 0.15 11383
0.19 0.92 0.86 -1.02 9.85 0.02 -0.05 0.17 11389
0.20 0.88 0.89 -1.01 9.84 0.02 -0.06 0.16 11396
0.21 0.86 0.85 -1.03 9.84 0.02 -0.06 0.16 11402
0.22 0.82 0.85 -1.01 9.84 0.03 -0.05 0.16 11409
0.23 0.76 0.86 -1.02 9.85 0.02 -0.05 0.16 11415
0.25 0.75 0.85 -1.01 9.85 0.02 -0.05 0.15 11421
0.26 0.71 0.84 -1.04 9.83 0.02 -0.05 0.15 11427
0.24 0.71 0.81 -1.02 9.83 0.02 -0.05 0.16 11433
0.25 0.69 0.84 -1.02 9.86 0.02 -0.04 0.15 11441
0.22 0.66 0.85 -1.03 9.83 0.01 -0.03 0.15 11447
0.24 0.63 0.83 -1.03 9.84 0.01 -0.03 0.17 11453
0.26 0.61 0.84 -1.03 9.83 0.02 -0.03 0.15 11459
0.28 0.60 0.85 -1.04 9.83 0.02 -0.03 0.16 11465
0.29 0.61 0.88 -1.03 9.82 0.02 -0.03 0.16 11472
0.32 0.58 0.87 -1.01 9.83 0.02 -0.03 0.16 11479
0.33 0.55 0.83 -1.02 9.85 0.02 -0.04 0.15 11485
0.31 0.54 0.85 -1.05 9.85 0.03 -0.03 0.16 11491
0.35 0.52 0.77 -1.05 9.90 0.02 -0.03 0.16 11497
0.35 0.48 0.85 -1.07 9.82 0.02 -0.03 0.15 11504
0.36 0.49 0.81 -1.04 9.87 0.02 -0.03 0.15 11510
0.39 0.45 0.84 -1.08 9.87 0.02 -0.03 0.15 11516
0.39 0.45 0.82 -1.04 9.86 0.03 -0.03 0.16 11523
0.39 0.41 0.81 -1.09 9.83 0.03 -0.02 0.17 11529
0.42 0.39 0.84 -1.05 9.89 0.03 -0.02 0.15 11536
0.44 0.34 0.86 -1.05 9.84 0.03 -0.01 0.15 11542
0.41 0.34 0.82 -1.05 9.86 0.03 -0.01 0.15 11548
0.44 0.27 0.86 -1.06 9.83 0.03 -0.00 0.15 11554
0.43 0.25 0.84 -1.06 9.81 0.03 -0.00 0.15 11560
0.41 0.22 0.90 -1.05 9.86 0.03 -0.01 0.15 11567
0.44 0.15 0.87 -1.04 9.84 0.04 -0.01 0.16 11574
0.45 0.10 0.87 -1.09 9.84 0.03 -0.01 0.15 11580
0.48 0.09 0.90 -1.07 9.81 0.04 -0.02 0.15 11586
0.51 0.06 0.90 -1.07 9.84 0.04 -0.02 0.15 11592
0.52 0.04 0.89 -1.07 9.87 0.04 -0.02 0.14 11598
0.54 0.02 0.86 -1.08 9.86 0.05 -0.02 0.14 11606
0.57 -0.01 0.91 -1.09 9.90 0.06 -0.02 0.14 11612
0.58 -0.03 0.93 -1.11 9.89 0.07 -0.03 0.13 11618
0.62 -0.00 0.93 -1.12 9.85 0.07 -0.03 0.12 11624
0.68 -0.02 0.95 -1.20 9.87 0.08 -0.04 0.12 11630
0.67 -0.02 0.98 -1.21 9.93 0.09 -0.05 0.10 11637
0.68 -0.01 0.98 -1.18 9.93 0.10 -0.05 0.09 11643
0.72 -0.02 0.96 -1.19 9.93 0.11 -0.06 0.08 11650
0.72 -0.02 0.94 -1.23 10.00 0.13 -0.10 0.07 11656
0.77 -0.02 0.98 -1.30 9.98 0.15 -0.08 0.05 11662
0.79 -0.03 1.01 -1.29 10.05 0.18 -0.09 0.03 11669
0.81 -0.03 1.03 -1.39 10.16 0.23 -0.11 0.02 11675
0.88 -0.03 1.11 -1.41 10.24 0.29 -0.15 0.00 11681
0.88 -0.03 1.06 -1.48 10.43 0.37 -0.19 -0.02 11687
0.96 -0.01 1.09 -1.62 10.85 0.49 -0.24 -0.04 11695
0.99 -0.03 1.24 -1.59 11.08 0.64 -0.30 -0.07 11701
1.03 -0.03 1.13 -1.68 11.21 0.78 -0.30 -0.09 11707
1.15 -0.03 1.05 -1.83 11.38 0.90 -0.28 -0.10 11713
1.18 -0.04 1.09 -1.79 11.53 1.01 -0.23 -0.10 11720
1.22 -0.03 1.23 -1.90 11.45 1.10 -0.18 -0.11 11726
1.21 -0.04 0.98 -1.95 11.35 1.20 -0.17 -0.12 11732
1.24 -0.02 0.94 -1.99 11.32 1.28 -0.15 -0.13 11740
1.27 -0.04 0.89 -1.94 11.44 1.34 -0.15 -0.13 11746
1.30 -0.02 0.91 -1.96 11.12 1.42 -0.15 -0.12 11752
1.32 -0.02 0.96 -2.10 11.68 1.51 -0.15 -0.13 11758
1.32 -0.03 1.08 -2.50 11.63 1.56 -0.20 -0.13 11765
1.35 -0.03 1.11 -2.59 11.51 1.65 -0.21 -0.14 11771
1.38 -0.05 0.93 -2.59 11.87 1.80 -0.23 -0.15 11778
1.36 -0.02 1.01 -2.85 12.80 1.99 -0.20 -0.17 11785
1.34 -0.05 1.16 -2.94 13.44 2.21 -0.19 -0.19 11791
1.27 -0.04 0.68 -3.02 13.07 2.47 -0.19 -0.21 11797
1.21 -0.04 1.40 -3.28 13.47 2.72 -0.22 -0.26 11803
1.16 -0.03 1.43 -3.31 13.39 2.95 -0.23 -0.30 11810
1.11 -0.03 1.51 -3.50 13.48 3.17 -0.26 -0.35 11816
1.03 -0.04 1.49 -3.83 13.97 3.44 -0.26 -0.40 11823
0.94 -0.02 1.70 -3.89 14.40 3.74 -0.30 -0.46 11830
0.79 -0.02 1.91 -3.54 14.14 4.03 -0.34 -0.52 11836
0.64 -0.02 3.00 -6.47 17.08 4.24 -0.39 -0.59 11842
0.54 -0.02 2.43 -5.11 16.29 4.28 -0.44 -0.66 11848
0.42 -0.01 2.37 -6.01 17.78 4.28 -0.46 -0.71 11855
0.41 -0.01 2.00 -7.50 19.07 4.28 -0.47 -0.73 11862
0.38 -0.02 1.82 -9.48 21.45 4.28 -0.40 -0.69 11868
0.35 0.01 1.99 -11.37 23.01 4.28 -0.23 -0.62 11874
0.30 -0.01 1.86 -11.88 23.09 4.28 -0.06 -0.56 11881
0.22 0.00 1.64 -11.62 22.19 4.28 0.00 -0.55 11887
0.22 -0.01 1.42 -10.20 21.86 4.28 0.03 -0.54 11893
0.16 -0.00 0.99 -9.33 21.36 4.28 0.02 -0.51 11900
0.13 -0.01 0.80 -7.66 22.35 4.28 0.04 -0.48 11907
0.09 -0.00 0.97 -6.23 23.69 4.28 0.00 -0.49 11913
0.09 0.01 1.67 -4.30 24.18 4.28 -0.10 -0.51 11919
0.07 0.00 2.72 -2.18 24.06 4.28 -0.28 -0.53 11926
0.06 0.00 3.73 0.70 24.93 4.28 -0.47 -0.56 11932
0.07 -0.00 4.11 3.95 23.98 4.28 -0.47 -0.59 11938
0.04 0.00 3.47 6.89 22.66 4.28 -0.19 -0.60 11944
0.06 0.00 1.88 5.07 14.47 4.28 0.43 -0.70 11952
0.05 -0.01 1.60 12.13 6.19 4.28 0.25 -1.09 11958
0.05 -0.01 3.84 11.96 -12.22 4.09 -0.55 -1.72 11964
0.06 -0.01 1.91 21.93 7.22 1.88 -0.90 -2.03 11970
0.05 -0.01 5.26 16.24 23.74 0.25 -0.13 -1.95 11977
0.05 0.00 6.12 10.30 22.30 -0.72 0.77 -1.95 11983
0.05 -0.00 4.18 7.70 17.55 -1.50 0.98 -2.00 11990
0.05 -0.00 2.10 10.47 12.85 -2.21 1.00 -1.94 11996
0.06 -0.01 1.68 11.67 10.10 -2.73 1.00 -1.78 12003
0.05 -0.01 2.04 9.69 8.71 -3.07 0.96 -1.64 12009
0.05 -0.00 2.05 6.88 8.58 -3.29 0.88 -1.50 12015
0.06 -0.01 1.79 6.48 8.49 -3.44 0.79 -1.41 12021
0.05 -0.01 1.50 5.87 7.90 -3.54 0.68 -1.27 12027
0.05 -0.00 1.46 5.00 7.14 -3.61 0.54 -1.13 12034
0.06 -0.00 1.39 3.93 6.66 -3.67 0.41 -0.99 12041
0.05 -0.01 1.46 3.39 6.47 -3.72 0.27 -0.85 12047
0.05 -0.00 1.48 3.10 6.77 -3.75 0.12 -0.73 12053
0.06 -0.00 1.78 2.88 7.35 -3.78 -0.00 -0.61 12059
0.06 -0.01 2.10 2.54 8.04 -3.83 -0.07 -0.49 12065
0.06 -0.01 2.36 2.45 8.86 -3.90 -0.10 -0.38 12071
0.06 0.00 2.73 2.19 9.52 -3.99 -0.05 -0.27 12079
0.05 0.00 2.97 1.72 10.30 -4.10 0.07 -0.17 12085
0.05 -0.00 3.15 1.26 10.81 -4.19 0.25 -0.13 12091
0.06 -0.01 3.24 0.88 11.31 -4.26 0.45 -0.06 12097
0.05 -0.01 2.98 0.10 11.58 -4.28 0.67 -0.00 12104
0.04 0.00 2.71 -0.53 11.95 -4.28 0.88 0.04 12110
0.05 -0.00 2.56 -1.32 12.34 -4.28 1.08 0.08 12116
0.04 0.01 2.25 -2.19 12.53 -4.28 1.28 0.10 12123
0.05 0.00 1.88 -2.96 12.63 -4.28 1.44 0.11 12130
0.05 -0.00 1.57 -3.72 13.17 -4.28 1.57 0.10 12136
0.04 0.01 1.21 -4.59 13.91 -4.28 1.65 0.07 12142
0.05 -0.01 0.84 -5.21 14.66 -4.25 1.69 0.04 12148
0.05 -0.00 0.44 -5.89 15.04 -4.20 1.72 0.01 12154
0.04 0.01 0.19 -6.18 15.46 -4.12 1.74 0.00 12162
0.05 -0.00 -0.10 -6.20 15.74 -4.05 1.76 0.01 12168
0.04 -0.00 -0.41 -6.40 16.27 -3.97 1.77 0.04 12174
0.04 0.00 -0.84 -6.64 16.72 -3.86 1.74 0.10 12180
0.05 -0.01 -1.02 -7.00 17.12 -3.74 1.69 0.18 12187
0.04 -0.00 -1.11 -7.27 17.74 -3.62 1.63 0.29 12193
0.05 -0.01 -1.08 -7.43 17.98 -3.52 1.52 0.42 12199
0.04 -0.00 -0.87 -8.05 18.37 -3.42 1.41 0.58 12206
0.04 -0.00 -0.63 -8.63 18.61 -3.33 1.26 0.74 12212
0.05 -0.01 -0.35 -9.45 18.55 -3.22 1.09 0.90 12219
0.04 -0.00 -0.11 -10.37 18.27 -3.10 0.88 1.02 12225
0.05 0.00 0.30 -11.03 17.43 -2.96 0.65 1.18 12231
0.04 -0.00 0.51 -11.54 16.68 -2.79 0.44 1.30 12237
0.04 -0.00 0.79 -12.04 16.12 -2.60 0.30 1.35 12244
0.05 -0.01 1.03 -12.25 15.60 -2.39 0.22 1.41 12251
0.04 -0.00 1.13 -12.37 15.49 -2.17 0.22 1.46 12257
0.05 0.00 1.17 -12.37 15.51 -1.96 0.30 1.49 12263
0.04 0.01 1.07 -12.63 15.71 -1.76 0.43 1.50 12270
0.05 0.01 0.88 -13.05 16.06 -1.58 0.58 1.50 12276
0.04 -0.00 0.55 -13.51 16.46 -1.43 0.70 1.50 12282
0.03 -0.00 -0.05 -13.84 16.64 -1.35 0.80 1.50 12290
0.06 -0.01 -0.45 -14.21 16.43 -1.34 0.87 1.51 12296
0.05 -0.00 -0.95 -14.59 15.97 -1.42 0.90 1.51 12302
0.04 -0.00 -1.55 -14.78 14.86 -1.56 0.98 1.52 12308
0.04 -0.00 -2.38 -14.94 13.55 -1.76 1.14 1.54 12315
0.04 -0.00 -3.10 -15.39 12.63 -1.98 1.40 1.60 12321
0.05 -0.01 -3.75 -16.61 11.58 -2.20 1.56 1.57 12327
0.04 -0.00 -4.24 -17.94 10.26 -2.38 1.53 1.49 12334
0.05 -0.01 -4.11 -19.02 8.19 -2.47 1.34 1.32 12341
0.05 -0.00 -4.50 -20.39 6.58 -2.43 1.11 1.19 12347
0.04 -0.00 -4.39 -21.35 4.22 -2.24 0.94 1.02 12353
0.06 -0.01 -4.47 -22.45 2.26 -1.90 0.81 0.83 12359
0.05 -0.00 -4.67 -22.83 1.24 -1.46 0.66 0.61 12365
0.04 0.00 -4.46 -22.69 0.93 -0.97 0.50 0.37 12372
0.05 -0.01 -3.97 -22.17 1.19 -0.49 0.35 0.08 12379
0.05 -0.00 -3.13 -21.09 2.39 -0.09 0.22 -0.21 12385
0.05 0.01 -2.16 -19.78 3.87 0.22 0.16 -0.50 12391
0.05 0.00 -1.27 -18.36 5.25 0.41 0.17 -0.73 12398
0.05 0.00 -17.06 -30.56 40.30 1.91 -0.62 -0.47 12404
0.04 0.00 -8.48 -17.19 -2.91 2.12 -1.16 -0.15 12410
0.04 0.01 -0.32 -10.17 3.08 2.34 -2.24 -0.04 12418
0.05 0.00 4.14 -1.39 8.54 2.30 -2.56 -0.04 12424
0.01 0.27 5.42 10.47 12.19 2.27 -1.56 0.22 12430
0.00 0.58 5.90 4.15 13.06 2.17 -0.66 0.64 12436
-0.00 0.61 2.54 3.12 10.48 2.18 -0.23 0.84 12443
-0.01 0.64 -0.87 -1.89 11.16 2.32 -0.23 0.83 12449
-0.01 0.76 -4.21 -3.10 12.62 2.48 -0.42 0.68 12455
-0.02 0.80 -4.35 -3.34 11.57 2.71 -0.60 0.46 12462
-0.01 0.85 -2.41 -2.28 12.57 2.95 -0.53 0.27 12469
-0.02 0.89 -3.12 -2.92 15.51 3.12 -0.16 0.13 12475
-0.02 0.98 -4.03 -3.76 18.81 3.20 0.07 -0.10 12481
-0.02 1.05 -0.85 -2.62 18.58 3.19 0.34 -0.41 12488
-0.01 1.16 3.15 -2.70 18.62 3.24 0.92 -0.55 12494
-0.02 1.19 4.05 -3.56 25.79 3.21 1.31 -0.58 12500
-0.02 1.24 4.25 -2.65 14.88 0.51 -0.57 -0.13 12507
-0.01 1.30 1.74 -3.04 12.09 0.14 -0.40 0.15 12514
-0.02 1.28 -0.17 -1.67 10.70 0.12 -0.35 0.13 12520
-0.02 1.28 0.78 -0.98 10.72 0.06 -0.17 0.06 12526
-0.01 1.31 1.47 -1.08 10.48 -0.01 -0.01 0.08 12532
-0.00 1.31 0.52 -0.97 9.88 -0.01 -0.02 0.09 12539
0.01 1.33 1.10 -1.17 10.06 0.02 -0.04 0.11 12546
0.01 1.30 0.89 -1.34 9.87 0.03 -0.06 0.11 12552
0.01 1.30 0.88 -1.14 9.81 0.03 -0.05 0.10 12558
0.05 1.29 1.00 -1.13 9.89 0.04 -0.06 0.11 12564
0.06 1.28 0.90 -1.10 9.95 0.04 -0.07 0.11 12571
0.07 1.28 0.92 -1.06 9.91 0.04 -0.08 0.11 12577
0.10 1.27 0.95 -1.11 9.91 0.04 -0.08 0.12 12583
0.10 1.26 0.88 -1.07 9.84 0.03 -0.09 0.12 12590
0.10 1.25 0.86 -1.01 9.85 0.03 -0.08 0.12 12597
0.12 1.22 0.86 -1.01 9.86 0.03 -0.07 0.13 12603
0.11 1.18 0.83 -0.97 9.87 0.03 -0.06 0.14 12609
0.13 1.14 0.82 -1.00 9.92 0.03 -0.05 0.15 12615
0.14 1.09 0.83 -1.03 9.88 0.03 -0.05 0.14 12621
0.15 1.06 0.84 -1.04 9.88 0.03 -0.05 0.16 12628
0.17 1.04 0.83 -0.97 9.83 0.04 -0.04 0.16 12635
0.21 0.97 0.81 -1.02 9.83 0.03 -0.04 0.15 12641
0.18 0.96 0.87 -0.98 9.84 0.04 -0.04 0.15 12647
0.21 0.93 0.86 -1.02 9.87 0.04 -0.04 0.17 12653
0.19 0.85 0.86 -1.02 9.87 0.04 -0.05 0.16 12660
0.22 0.81 0.86 -1.04 9.86 0.04 -0.06 0.16 12666
0.26 0.75 0.94 -1.04 9.82 0.04 -0.07 0.15 12673
0.25 0.67 0.84 -1.00 9.85 0.04 -0.09 0.16 12679
0.26 0.61 0.88 -1.02 9.83 0.04 -0.11 0.15 12685
0.28 0.62 0.87 -1.07 9.87 0.05 -0.12 0.15 12692
0.30 0.57 0.88 -1.00 9.85 0.05 -0.13 0.15 12698
0.28 0.55 0.84 -1.08 9.90 0.05 -0.14 0.14 12704
0.34 0.51 0.80 -1.11 9.85 0.05 -0.14 0.13 12710
0.39 0.50 0.80 -1.07 9.86 0.05 -0.14 0.14 12717
0.43 0.46 0.79 -1.07 9.87 0.05 -0.14 0.10 12724
0.45 0.39 0.82 -1.11 9.89 0.05 -0.13 0.13 12730
0.47 0.31 0.77 -1.10 9.87 0.05 -0.13 0.13 12736
0.50 0.28 0.79 -1.14 9.87 0.05 -0.12 0.13 12742
0.55 0.24 0.81 -1.16 9.87 0.06 -0.11 0.13 12748
0.54 0.21 0.83 -1.14 9.90 0.06 -0.10 0.12 12755
0.61 0.13 0.82 -1.15 9.93 0.06 -0.10 0.11 12762
0.62 0.11 0.78 -1.17 9.86 0.06 -0.09 0.12 12768
0.65 0.07 0.74 -1.16 9.87 0.06 -0.08 0.10 12774
0.70 0.04 0.82 -1.19 9.89 0.06 -0.08 0.10 12780
0.69 0.01 0.79 -1.18 9.88 0.06 -0.06 0.11 12787
0.74 -0.02 0.79 -1.24 9.91 0.06 -0.05 0.10 12793
0.80 -0.01 0.80 -1.24 9.86 0.06 -0.05 0.10 12800
0.81 -0.03 0.80 -1.28 9.93 0.07 -0.04 0.09 12806
0.79 -0.03 0.80 -1.29 9.95 0.07 -0.04 0.09 12812
0.81 -0.02 0.77 -1.24 9.89 0.07 -0.04 0.09 12819
0.82 -0.02 0.86 -1.31 9.87 0.08 -0.03 0.08 12825
0.79 -0.01 0.79 -1.29 9.87 0.08 -0.03 0.08 12831
0.84 -0.01 0.85 -1.25 9.93 0.09 -0.04 0.08 12837
0.86 -0.04 0.81 -1.31 9.89 0.09 -0.04 0.07 12844
0.84 -0.01 0.88 -1.33 9.91 0.10 -0.05 0.06 12851
0.86 -0.02 0.89 -1.33 9.92 0.11 -0.05 0.05 12857
0.86 -0.03 0.91 -1.34 9.96 0.12 -0.06 0.05 12863
0.89 -0.02 0.88 -1.38 9.92 0.16 -0.07 0.04 12869
0.92 -0.02 0.93 -1.44 9.93 0.14 -0.08 0.03 12875
0.91 -0.02 0.92 -1.43 10.03 0.16 -0.09 0.02 12882
0.92 -0.01 0.94 -1.43 10.03 0.18 -0.10 0.01 12889
0.93 -0.02 0.88 -1.49 10.02 0.21 -0.11 -0.00 12895
0.93 -0.03 0.94 -1.48 10.04 0.23 -0.12 -0.01 12901
0.97 -0.04 0.91 -1.52 10.04 0.25 -0.14 -0.02 12908
0.99 -0.04 1.02 -1.59 10.12 0.27 -0.15 -0.03 12914
1.02 -0.04 0.95 -1.61 10.07 0.30 -0.16 -0.03 12920
1.04 -0.05 0.90 -1.64 10.16 0.32 -0.16 -0.04 12926
1.06 -0.02 0.92 -1.72 10.00 0.33 -0.20 -0.04 12934
1.06 -0.02 0.90 -1.71 9.98 0.35 -0.16 -0.05 12940
1.09 -0.02 0.92 -1.79 10.24 0.36 -0.16 -0.06 12946
1.13 -0.02 0.87 -1.79 10.12 0.38 -0.16 -0.06 12952
1.18 -0.03 0.94 -1.82 10.19 0.40 -0.15 -0.07 12959
1.19 -0.02 0.94 -1.85 10.20 0.42 -0.15 -0.07 12965
1.23 -0.03 0.91 -1.94 10.25 0.46 -0.16 -0.08 12972
1.25 -0.03 0.95 -1.98 10.34 0.49 -0.17 -0.09 12979
1.34 -0.03 0.86 -2.04 10.48 0.53 -0.19 -0.10 12985
1.34 -0.06 0.92 -2.00 10.45 0.58 -0.20 -0.10 12991
1.41 -0.03 0.95 -2.05 10.60 0.62 -0.21 -0.11 12997
1.44 -0.04 0.93 -2.18 10.54 0.66 -0.21 -0.12 13004
1.46 -0.05 0.85 -2.16 10.69 0.70 -0.21 -0.12 13010
1.50 -0.05 0.73 -2.12 10.71 0.75 -0.21 -0.12 13017
1.53 -0.05 0.73 -2.29 10.79 0.80 -0.21 -0.12 13023
1.55 -0.05 0.72 -2.40 10.93 0.86 -0.22 -0.11 13030
1.58 -0.05 1.18 -2.43 10.88 0.92 -0.21 -0.11 13036
1.59 -0.05 0.70 -2.47 10.90 0.97 -0.24 -0.11 13042
1.64 -0.05 0.51 -2.54 10.61 1.03 -0.25 -0.10 13049
1.65 -0.05 0.67 -2.57 10.88 1.11 -0.26 -0.11 13056
1.68 -0.05 0.61 -2.64 10.90 1.17 -0.26 -0.11 13062
1.67 -0.06 0.64 -2.77 11.19 1.26 -0.26 -0.11 13068
1.70 -0.06 0.72 -2.88 11.50 1.39 -0.26 -0.12 13075
1.69 -0.05 0.76 -2.97 11.71 1.53 -0.26 -0.12 13081
1.71 -0.04 0.78 -3.16 12.10 1.71 -0.28 -0.14 13087
1.67 -0.05 0.90 -3.24 12.20 1.89 -0.29 -0.16 13094
1.66 -0.05 0.92 -3.42 12.14 2.06 -0.31 -0.19 13101
1.64 -0.05 1.08 -3.48 12.17 2.22 -0.33 -0.23 13107
1.58 -0.06 0.97 -3.66 12.34 2.38 -0.35 -0.27 13113
1.52 -0.06 0.42 -3.81 12.47 2.58 -0.39 -0.30 13120
1.44 -0.05 1.35 -4.04 13.22 2.79 -0.43 -0.36 13126
1.37 -0.04 1.37 -4.15 13.74 3.02 -0.45 -0.43 13132
1.20 -0.05 1.57 -4.39 13.71 3.28 -0.47 -0.49 13138
1.02 -0.03 2.35 -5.29 13.71 3.60 -0.51 -0.56 13146
0.92 -0.03 1.55 -5.00 14.53 3.89 -0.53 -0.63 13152
0.75 -0.03 1.71 -5.72 15.34 4.13 -0.60 -0.70 13158
0.66 -0.02 1.99 -6.25 15.68 4.25 -0.64 -0.75 13165
0.51 -0.01 2.12 -6.81 16.60 4.28 -0.64 -0.79 13171
0.50 -0.00 1.97 -8.36 18.51 4.28 -0.52 -0.80 13177
0.42 -0.02 1.73 -10.37 20.92 4.28 -0.27 -0.74 13184
0.36 -0.00 1.29 -12.55 22.74 4.28 0.04 -0.65 13191
0.30 -0.01 1.38 -12.99 22.36 4.28 0.29 -0.58 13197
0.24 -0.00 1.79 -11.85 21.39 4.28 0.48 -0.55 13203
0.18 -0.01 1.18 -10.93 20.25 4.28 0.56 -0.53 13210
0.17 -0.01 1.18 -8.96 20.12 4.28 0.68 -0.51 13216
0.13 -0.01 1.27 -8.03 21.14 4.28 0.80 -0.49 13222
0.09 -0.01 0.89 -6.75 22.45 4.28 0.83 -0.54 13229
0.09 0.00 1.55 -4.26 23.08 4.26 0.76 -0.61 13236
0.07 -0.01 1.28 -2.66 22.51 4.25 0.52 -0.70 13242
0.06 -0.00 2.04 0.55 22.83 4.26 0.27 -0.78 13248
0.06 -0.01 2.44 4.04 21.47 4.28 0.06 -0.86 13254
0.05 -0.01 2.13 5.85 19.70 4.28 0.02 -0.96 13261
0.05 -0.00 1.47 13.59 20.02 4.28 0.19 -1.08 13267
0.05 0.01 0.05 10.01 8.14 4.28 -0.31 -1.43 13274
0.04 0.00 2.54 7.88 -2.15 3.78 -1.25 -1.91 13280
0.06 0.00 2.33 14.41 4.39 2.34 -1.74 -2.16 13287
0.06 -0.00 3.06 17.30 14.17 0.54 -1.17 -2.14 13293
0.05 0.01 6.74 11.33 19.31 -0.55 -0.33 -2.09 13299
0.06 -0.00 5.28 7.05 16.07 -1.36 0.08 -2.14 13305
0.07 0.01 3.80 7.39 13.13 -2.00 0.39 -2.13 13313
0.06 0.01 3.41 9.20 10.02 -2.45 0.71 -1.99 13319
0.05 -0.01 3.49 8.57 8.03 -2.70 0.95 -1.83 13325
0.05 0.01 2.86 6.96 7.23 -2.92 1.06 -1.68 13331
0.05 0.00 2.39 5.72 6.84 -3.07 1.09 -1.52 13338
0.04 -0.00 1.97 5.03 6.58 -3.17 1.03 -1.32 13344
0.05 0.01 1.54 4.58 6.27 -3.22 0.88 -1.12 13350
0.05 0.00 1.35 4.01 6.05 -3.24 0.69 -0.92 13357
0.04 0.00 1.20 3.41 6.10 -3.27 0.47 -0.74 13363
0.05 0.01 1.28 2.99 6.26 -3.30 0.23 -0.53 13370
0.06 -0.00 1.54 2.89 6.59 -3.35 -0.00 -0.32 13376
0.04 0.00 2.10 2.86 7.22 -3.40 -0.17 -0.12 13382
0.05 0.00 2.74 2.41 7.80 -3.47 -0.23 0.05 13388
0.05 -0.00 3.39 1.84 8.44 -3.58 -0.17 0.19 13394
0.04 -0.00 3.93 1.41 9.19 -3.74 0.01 0.30 13401
0.05 0.00 4.17 0.84 10.00 -3.90 0.27 0.38 13408
0.05 -0.01 4.11 0.18 10.79 -4.03 0.58 0.46 13414
0.03 -0.00 4.00 -0.08 11.44 -4.15 0.92 0.52 13420
0.04 0.00 3.26 -1.08 12.01 -4.22 1.17 0.57 13426
0.05 -0.00 2.62 -1.87 12.35 -4.27 1.35 0.60 13432
0.05 -0.00 1.97 -3.07 12.72 -4.28 1.45 0.62 13440
0.07 -0.01 1.37 -3.36 12.66 -4.28 1.48 0.64 13446
0.05 -0.01 1.12 -4.10 12.93 -4.28 1.46 0.65 13452
0.06 -0.01 0.88 -5.00 13.09 -4.28 1.40 0.65 13458
0.06 -0.00 0.79 -5.86 13.42 -4.27 1.31 0.64 13465
0.04 -0.00 0.74 -6.33 13.46 -4.22 1.22 0.62 13471
0.06 0.00 0.73 -6.63 13.66 -4.15 1.14 0.59 13477
0.05 -0.01 0.94 -6.48 14.10 -4.04 1.08 0.56 13484
0.05 -0.00 1.00 -6.47 14.46 -3.91 1.08 0.53 13490
0.06 -0.01 0.88 -6.50 14.97 -3.80 1.13 0.51 13497
0.06 -0.01 0.79 -6.66 15.40 -3.69 1.19 0.51 13503
0.05 -0.01 0.56 -6.72 15.88 -3.59 1.25 0.52 13509
0.07 -0.01 0.34 -6.91 16.34 -3.49 1.29 0.55 13515
0.05 -0.01 0.16 -7.18 16.76 -3.40 1.34 0.60 13522
0.05 -0.01 0.07 -7.40 17.28 -3.30 1.36 0.65 13529
0.06 -0.01 -0.02 -7.67 17.82 -3.22 1.37 0.70 13535
0.05 -0.01 -0.16 -7.87 18.34 -3.14 1.35 0.76 13541
0.06 0.00 -0.29 -8.15 18.61 -3.09 1.30 0.81 13547
0.05 0.00 -0.23 -8.65 18.68 -3.06 1.18 0.86 13554
0.04 0.00 -0.10 -9.15 18.44 -3.03 1.07 0.89 13560
0.06 -0.00 0.12 -9.75 18.28 -2.98 0.95 0.92 13566
0.05 -0.00 0.41 -10.27 18.20 -2.92 0.87 0.93 13573
0.05 -0.00 0.71 -10.82 17.99 -2.83 0.78 0.93 13580
0.05 -0.00 1.01 -11.34 17.88 -2.70 0.72 0.92 13586
0.05 -0.00 1.14 -11.80 17.81 -2.58 0.71 0.92 13592
0.05 -0.01 1.22 -12.20 17.41 -2.46 0.72 0.92 13598
0.04 -0.00 1.19 -12.41 16.94 -2.36 0.75 0.91 13605
0.05 -0.00 1.05 -12.59 16.26 -2.27 0.78 0.90 13612
0.04 -0.00 1.11 -12.93 15.65 -2.19 0.85 0.91 13618
0.04 -0.00 0.86 -13.22 15.09 -2.11 0.92 0.91 13624
0.05 -0.00 0.44 -14.07 14.33 -2.05 1.01 0.92 13631
0.04 -0.00 0.00 -13.73 13.72 -2.02 1.07 0.94 13637
0.05 -0.00 -0.34 -13.95 13.05 -2.02 1.12 0.95 13643
0.04 -0.00 -0.62 -14.20 11.97 -2.04 1.15 0.96 13649
0.04 -0.00 -1.20 -14.07 10.01 -2.06 1.26 0.97 13657
0.05 -0.01 -2.28 -13.73 8.09 -2.05 1.55 1.05 13663
0.05 -0.00 -3.85 -13.99 7.18 -1.97 2.05 1.23 13669
0.04 0.00 -5.76 -15.71 7.42 -1.84 2.47 1.45 13675
0.04 -0.00 -7.43 -17.50 7.34 -1.68 2.40 1.54 13682
0.04 -0.00 -8.82 -19.69 6.10 -1.50 1.78 1.46 13688
0.05 -0.00 -9.18 -20.53 4.38 -1.28 0.95 1.33 13694
0.04 -0.00 -8.41 -20.48 2.60 -0.99 0.21 1.20 13701
0.04 -0.00 -7.25 -19.97 2.01 -0.63 -0.33 1.04 13707
0.06 -0.01 -5.76 -19.63 2.41 -0.21 -0.67 0.84 13714
0.05 -0.01 -4.06 -18.64 3.60 0.17 -0.87 0.60 13720
0.05 -0.00 -2.29 -17.07 5.14 0.46 -0.95 0.33 13726
0.06 -0.01 -0.73 -15.43 6.79 0.61 -0.90 0.03 13732
0.05 -0.00 0.11 -14.52 7.66 0.69 -0.73 -0.26 13739
0.04 -0.00 -8.32 -25.02 47.11 2.09 -1.12 -0.11 13746
0.05 -0.01 -8.69 -11.54 -0.60 2.24 -1.51 0.07 13752
0.04 -0.00 -0.18 -1.63 1.93 2.36 -2.18 0.01 13758
0.04 0.02 2.55 3.44 10.68 2.41 -2.35 0.02 13764
0.02 0.35 4.44 5.39 12.03 2.42 -1.49 0.34 13771
0.01 0.59 5.26 3.94 11.17 2.45 -0.65 0.69 13777
0.01 0.67 2.69 -0.00 11.87 2.46 -0.13 0.88 13784
0.00 0.69 0.48 -2.51 12.29 2.53 0.03 0.94 13790
-0.00 0.76 -1.31 -3.42 13.11 2.59 -0.07 0.88 13797
-0.00 0.76 -1.84 -2.47 14.44 2.67 -0.29 0.76 13803
-0.01 0.78 -1.77 -1.95 14.98 2.67 -0.42 0.63 13809
-0.00 0.82 -2.69 -1.77 14.95 2.57 -0.39 0.49 13815
-0.02 0.89 -3.47 -2.41 15.10 2.46 -0.29 0.32 13822
0.01 0.90 -3.71 -2.31 14.94 2.44 -0.18 0.09 13829
-0.01 0.93 -2.26 -2.53 15.19 2.51 -0.01 -0.14 13835
-0.00 1.01 0.24 -2.52 16.77 2.62 0.37 -0.29 13842
-0.01 1.09 1.37 -2.69 16.89 2.62 0.81 -0.36 13848
-0.01 1.14 2.94 -3.65 21.94 2.48 1.07 -0.37 13854
-0.01 1.13 2.89 -2.67 14.82 0.83 -0.14 -0.11 13860
-0.02 1.20 2.30 -2.22 11.23 0.19 -0.30 0.08 13868
0.00 1.21 0.16 -2.07 10.34 0.13 -0.33 0.11 13874
0.00 1.21 0.40 -1.62 10.50 0.15 -0.29 0.07 13880
-0.01 1.25 1.40 -1.55 10.35 0.07 -0.14 0.07 13886
0.00 1.29 1.33 -1.17 9.88 0.02 -0.08 0.06 13893
-0.01 1.30 1.00 -1.39 10.08 0.03 -0.07 0.08 13899
0.01 1.33 0.95 -1.16 10.09 0.03 -0.06 0.08 13905
0.01 1.35 0.89 -1.20 9.93 0.03 -0.06 0.09 13912
0.06 1.37 0.84 -1.17 9.92 0.03 -0.06 0.10 13919
0.05 1.36 0.87 -1.17 9.99 0.03 -0.06 0.09 13925
0.06 1.38 0.86 -1.17 10.02 0.04 -0.06 0.10 13931
0.06 1.38 0.91 -1.10 9.91 0.03 -0.06 0.10 13937
0.06 1.36 0.89 -1.12 9.92 0.03 -0.07 0.11 13943
0.05 1.34 0.85 -1.08 9.89 0.03 -0.08 0.13 13950
0.06 1.32 0.83 -1.09 9.88 0.03 -0.07 0.13 13957
0.08 1.30 0.82 -1.07 9.85 0.02 -0.06 0.13 13963
0.07 1.26 0.81 -1.07 9.92 0.02 -0.06 0.14 13969
0.08 1.25 0.81 -1.05 9.82 0.02 -0.05 0.15 13975
0.09 1.19 0.80 -1.05 9.84 0.03 -0.05 0.16 13982
0.11 1.16 0.75 -1.08 9.88 0.02 -0.04 0.15 13988
0.11 1.12 0.81 -1.02 9.89 0.02 -0.04 0.16 13995
0.11 1.07 0.84 -1.03 9.92 0.02 -0.04 0.16 14001
0.12 1.03 0.80 -1.04 9.84 0.03 -0.04 0.17 14007
0.16 1.00 0.81 -1.06 9.83 0.03 -0.06 0.17 14014
0.17 0.97 0.83 -1.08 9.81 0.03 -0.07 0.15 14020
0.18 0.94 0.82 -1.03 9.85 0.03 -0.07 0.15 14026
0.20 0.92 0.82 -1.07 9.84 0.03 -0.08 0.16 14032
0.20 0.87 0.80 -1.06 9.85 0.04 -0.08 0.17 14039
0.20 0.78 0.79 -1.08 9.87 0.04 -0.08 0.16 14045
0.24 0.76 0.78 -1.07 9.87 0.04 -0.07 0.15 14052
0.27 0.73 0.80 -1.08 9.87 0.04 -0.06 0.17 14058
0.25 0.65 0.74 -1.08 9.87 0.04 -0.06 0.16 14064
0.27 0.65 0.76 -1.10 9.87 0.04 -0.05 0.16 14070
0.30 0.61 0.76 -1.12 9.85 0.04 -0.04 0.16 14076
0.30 0.58 0.69 -1.11 9.81 0.04 -0.04 0.15 14084
0.35 0.52 0.74 -1.09 9.82 0.03 -0.03 0.16 14090
0.35 0.47 0.79 -1.13 9.82 0.03 -0.03 0.15 14096
0.38 0.46 0.81 -1.13 9.83 0.04 -0.04 0.15 14102
0.39 0.38 0.79 -1.10 9.87 0.04 -0.04 0.17 14108
0.38 0.33 0.85 -1.12 9.84 0.04 -0.04 0.16 14115
0.42 0.32 0.87 -1.14 9.85 0.04 -0.05 0.15 14121
0.44 0.26 0.81 -1.17 9.82 0.04 -0.05 0.16 14128
0.47 0.22 0.85 -1.17 9.84 0.04 -0.05 0.14 14134
0.46 0.17 0.83 -1.19 9.86 0.04 -0.05 0.14 14141
0.49 0.11 0.76 -1.17 9.83 0.04 -0.06 0.14 14147
0.46 0.11 0.78 -1.17 9.86 0.04 -0.06 0.15 14153
0.50 0.08 0.80 -1.19 9.87 0.05 -0.06 0.14 14159
0.53 0.04 0.83 -1.21 9.87 0.04 -0.06 0.13 14166
0.59 0.03 0.83 -1.18 9.88 0.04 -0.06 0.13 14173
0.64 0.01 0.79 -1.19 9.95 0.05 -0.07 0.12 14179
0.65 -0.02 0.80 -1.22 9.89 0.05 -0.07 0.12 14185
0.68 -0.02 0.83 -1.24 9.86 0.05 -0.08 0.12 14191
0.76 -0.02 0.82 -0.62 9.87 0.06 -0.08 0.11 14197
0.73 -0.02 0.86 -1.25 9.88 0.06 -0.08 0.11 14204
0.73 -0.02 0.81 -1.23 9.87 0.06 -0.08 0.10 14211
0.73 -0.02 0.83 -1.27 9.86 0.06 -0.08 0.09 14217
0.73 -0.03 0.83 -1.31 9.89 0.06 -0.08 0.08 14223
0.75 -0.02 0.78 -1.36 9.88 0.07 -0.08 0.08 14229
0.75 -0.03 0.82 -1.31 9.91 0.07 -0.08 0.07 14236
0.76 -0.04 0.85 -1.35 9.92 0.07 -0.07 0.06 14242
0.79 -0.03 0.82 -1.38 9.86 0.08 -0.07 0.05 14248
0.79 -0.03 0.83 -1.35 9.86 0.09 -0.07 0.05 14255
0.79 -0.04 0.87 -1.36 9.91 0.09 -0.08 0.05 14261
0.82 -0.01 0.87 -1.38 9.95 0.11 -0.09 0.03 14268
0.86 -0.03 0.85 -1.39 9.92 0.11 -0.10 0.03 14274
0.91 -0.03 0.90 -1.41 9.92 0.13 -0.11 0.02 14280
0.92 -0.01 0.87 -1.51 9.96 0.15 -0.12 0.01 14286
0.93 -0.03 0.92 -1.49 10.02 0.16 -0.14 0.00 14292
0.96 -0.02 0.94 -1.55 10.02 0.18 -0.15 -0.02 14300
1.01 -0.03 0.83 -1.59 10.03 0.21 -0.16 -0.02 14306
1.06 -0.04 0.73 -1.32 10.30 0.24 -0.16 -0.03 14312
1.08 -0.02 0.92 -1.67 10.23 0.29 -0.18 -0.04 14318
1.14 -0.04 0.93 -1.68 10.38 0.35 -0.19 -0.05 14325
1.20 -0.04 0.97 -1.70 10.50 0.42 -0.20 -0.06 14331
1.25 -0.04 0.95 -2.38 10.08 0.50 -0.21 -0.07 14338
1.30 -0.03 0.86 -1.85 10.67 0.57 -0.22 -0.07 14345
1.36 -0.03 0.86 -1.79 10.83 0.66 -0.22 -0.08 14351
1.39 -0.03 0.89 -2.43 10.88 0.74 -0.22 -0.09 14357
1.40 -0.03 0.82 -1.94 10.90 0.83 -0.22 -0.09 14363
1.42 -0.04 0.78 -2.02 10.85 0.89 -0.21 -0.09 14370
1.41 -0.03 0.72 -2.12 11.27 0.95 -0.17 -0.09 14376
1.44 -0.04 0.86 -2.39 10.93 1.02 -0.14 -0.08 14383
1.47 -0.06 0.76 -2.26 11.36 1.10 -0.12 -0.09 14389
1.51 -0.04 0.83 -2.42 11.44 1.20 -0.11 -0.10 14396
1.57 -0.05 0.83 -2.25 11.42 1.31 -0.13 -0.11 14402
1.56 -0.04 0.83 -2.47 11.38 1.38 -0.18 -0.11 14408
1.57 -0.06 0.74 -2.62 11.46 1.45 -0.21 -0.12 14415
1.60 -0.05 0.87 -2.64 11.84 1.57 -0.22 -0.14 14422
1.63 -0.04 0.82 -2.85 12.51 1.75 -0.24 -0.15 14428
1.62 -0.06 0.94 -2.84 12.55 1.96 -0.25 -0.17 14434
1.60 -0.05 0.81 -3.05 12.66 2.19 -0.26 -0.19 14441
1.58 -0.06 0.93 -3.12 12.64 2.40 -0.27 -0.21 14447
1.49 -0.04 1.02 -3.27 12.77 2.58 -0.28 -0.24 14453
1.42 -0.06 1.09 -3.43 13.02 2.78 -0.29 -0.27 14460
1.35 -0.04 0.68 -3.45 13.04 2.99 -0.31 -0.31 14467
1.28 -0.03 1.64 -3.91 13.42 3.22 -0.33 -0.36 14473
1.13 -0.03 0.74 -3.92 13.45 3.48 -0.35 -0.41 14479
1.02 -0.02 1.51 -4.32 14.59 3.77 -0.37 -0.47 14486
0.90 -0.03 1.48 -4.75 15.01 4.08 -0.41 -0.54 14492
0.74 -0.00 1.30 -5.02 14.67 4.24 -0.47 -0.62 14498
0.63 -0.00 2.40 -5.46 16.45 4.28 -0.51 -0.68 14504
0.52 -0.02 2.12 -6.68 17.50 4.28 -0.58 -0.73 14512
0.48 -0.02 2.19 -8.18 19.56 4.28 -0.61 -0.76 14518
0.39 -0.03 2.51 -10.25 21.38 4.28 -0.46 -0.72 14524
0.37 -0.01 1.94 -12.52 23.37 4.28 -0.25 -0.67 14531
0.31 -0.03 1.40 -13.04 23.47 4.28 -0.08 -0.61 14537
0.30 -0.01 1.64 -12.16 22.31 4.28 0.01 -0.60 14543
0.22 -0.02 1.02 -11.05 21.59 4.28 -0.06 -0.62 14551
0.17 -0.01 0.62 -10.01 21.64 4.28 -0.07 -0.56 14557
0.14 -0.01 0.76 -8.04 22.41 4.28 -0.05 -0.53 14563
0.08 -0.00 0.98 -6.29 23.00 4.28 -0.06 -0.54 14569
0.08 0.00 1.29 -3.94 23.04 4.28 -0.11 -0.54 14576
0.08 -0.01 2.16 -1.52 22.94 4.28 -0.22 -0.54 14582
0.06 0.02 3.46 1.36 23.20 4.28 -0.34 -0.56 14588
0.07 0.01 3.97 4.60 22.49 4.28 -0.42 -0.60 14595
0.04 0.00 4.09 7.39 20.95 4.28 -0.22 -0.67 14602
0.05 -0.00 3.30 8.68 17.77 4.28 0.22 -0.79 14608
0.05 -0.00 4.26 6.77 -19.30 4.28 0.25 -1.16 14614
0.04 -0.00 3.95 8.13 -3.31 4.28 -0.27 -1.70 14620
0.04 0.00 3.84 15.60 1.09 2.85 -0.76 -2.01 14626
0.04 -0.00 2.82 18.89 17.07 0.93 -0.28 -2.05 14633
0.05 0.01 6.34 13.73 22.55 -0.27 0.47 -2.01 14640
0.04 0.00 4.25 9.82 19.49 -1.27 0.81 -2.02 14646
0.04 0.00 2.20 10.49 15.11 -2.21 0.86 -1.91 14653
0.05 -0.00 1.26 11.51 12.13 -2.96 0.78 -1.71 14659
0.03 0.00 1.50 9.91 10.40 -3.49 0.69 -1.52 14665
0.06 0.00 1.68 7.17 9.29 -3.80 0.60 -1.36 14671
0.05 -0.00 1.95 5.77 7.98 -3.95 0.52 -1.21 14678
0.05 0.00 1.89 5.18 6.91 -3.97 0.45 -1.08 14685
0.05 0.00 1.99 4.63 6.00 -3.92 0.39 -0.99 14691
0.05 -0.00 1.91 3.68 5.61 -3.84 0.37 -0.88 14697
0.06 -0.00 1.97 2.82 5.74 -3.78 0.38 -0.76 14703
0.07 -0.00 1.97 2.75 6.62 -3.76 0.42 -0.64 14709
0.05 -0.01 1.97 2.48 7.51 -3.79 0.48 -0.53 14716
0.05 0.00 2.02 2.32 8.39 -3.87 0.54 -0.44 14723
0.07 -0.00 1.96 2.22 9.29 -4.01 0.63 -0.37 14729
0.05 -0.01 1.83 1.89 10.02 -4.09 0.74 -0.29 14735
0.05 0.00 1.72 1.25 11.08 -4.19 0.85 -0.24 14741
0.05 0.00 1.68 0.44 11.31 -4.25 0.99 -0.18 14748
0.04 -0.00 1.43 -0.28 11.74 -4.28 1.12 -0.13 14754
0.05 0.01 1.13 -0.98 11.90 -4.28 1.23 -0.09 14760
0.05 -0.01 0.93 -1.67 12.09 -4.28 1.29 -0.05 14767
0.05 0.00 0.11 -2.42 12.33 -4.28 1.36 -0.01 14774
0.06 -0.00 0.29 -3.05 12.35 -4.28 1.41 0.00 14780
0.05 -0.01 0.08 -3.79 12.46 -4.28 1.46 0.01 14786
0.05 0.01 0.00 -4.36 13.10 -4.28 1.49 -0.00 14792
0.06 -0.01 -0.13 -5.16 13.69 -4.27 1.52 -0.06 14798
0.05 -0.00 -0.25 -5.84 14.33 -4.23 1.54 -0.08 14806
0.05 -0.01 -0.37 -6.15 15.29 -4.18 1.57 -0.14 14812
0.05 -0.00 -0.56 -6.11 15.18 -4.12 1.61 -0.19 14818
0.04 -0.00 -0.78 -6.12 15.51 -4.06 1.65 -0.24 14824
0.06 -0.01 -0.80 -6.36 15.99 -4.01 1.69 -0.27 14831
0.05 -0.01 -0.77 -6.65 16.32 -3.95 1.72 -0.27 14837
0.05 -0.00 -0.76 -6.92 16.54 -3.86 1.76 -0.25 14843
0.06 -0.01 -0.88 -7.05 16.79 -3.75 1.80 -0.20 14850
0.05 -0.00 -1.06 -7.38 17.01 -3.62 1.84 -0.12 14856
0.04 0.01 -1.15 -7.78 17.23 -3.49 1.86 -0.03 14863
0.05 -0.00 -1.23 -8.17 17.17 -3.36 1.84 0.07 14869
0.04 -0.00 -1.14 -8.62 17.05 -3.22 1.76 0.17 14875
0.06 -0.01 -0.94 -9.19 17.09 -3.13 1.64 0.27 14881
0.05 -0.00 -0.65 -9.76 16.80 -2.99 1.49 0.36 14888
0.06 -0.01 -0.22 -10.23 16.64 -2.83 1.30 0.46 14895
0.07 -0.01 0.15 -10.83 16.30 -2.64 1.12 0.53 14901
0.06 -0.01 0.39 -11.29 16.08 -2.41 1.00 0.61 14907
0.06 -0.01 0.65 -11.96 15.78 -2.17 0.87 0.68 14914
0.06 -0.01 0.77 -12.49 15.86 -1.93 0.86 0.75 14920
0.06 -0.01 0.76 -12.89 16.05 -1.72 0.88 0.82 14926
0.07 -0.01 0.66 -13.12 16.83 -1.56 0.92 0.89 14932
0.06 -0.01 0.31 -13.30 17.74 -1.49 0.96 0.96 14940
0.06 0.00 0.61 -13.44 18.68 -1.56 1.00 1.03 14946
0.07 -0.01 0.01 -13.50 18.32 -1.76 1.08 1.10 14952
0.07 0.00 -0.03 -13.27 16.95 -2.02 1.20 1.20 14958
0.06 -0.00 -0.42 -13.63 15.05 -2.27 1.50 1.35 14965
0.06 -0.00 -1.44 -14.63 13.19 -2.43 1.75 1.54 14971
0.06 -0.00 -2.56 -15.62 11.37 -2.48 1.93 1.75 14978
0.05 0.00 -3.84 -16.90 9.70 -2.40 1.93 1.93 14985
0.07 0.00 -4.98 -18.05 8.51 -2.21 1.77 2.08 14991
0.06 -0.01 -6.35 -19.41 7.14 -1.95 1.47 2.19 14997
0.06 0.01 -7.26 -19.98 6.24 -1.65 1.07 2.23 15003
0.06 -0.01 -7.38 -20.32 5.22 -1.36 0.56 2.18 15010
0.05 -0.01 -6.89 -20.33 4.45 -1.10 0.06 2.05 15016
0.07 -0.01 -5.57 -20.25 4.23 -0.85 -0.36 1.84 15023
0.06 -0.01 -5.13 -20.17 4.40 -0.63 -0.49 1.60 15029
0.06 -0.01 -5.17 -35.25 12.90 -0.23 -0.66 1.35 15036
0.07 -0.01 -4.56 -21.36 -4.79 1.10 -0.47 1.08 15042
0.06 -0.01 -5.91 -24.70 -1.84 1.34 -0.60 0.79 15048
0.06 -0.00 -6.60 -32.21 6.41 1.88 -1.19 0.63 15054
0.06 -0.00 -8.15 -28.48 1.14 2.31 -1.60 0.63 15062
0.05 0.03 -1.30 -0.92 1.24 2.65 -1.84 0.59 15068
0.04 0.43 -0.83 0.79 10.06 2.84 -1.75 0.57 15074
0.01 0.60 2.28 2.12 20.82 2.93 -1.08 0.75 15080
-0.00 0.67 1.16 3.63 16.21 2.64 -0.43 0.85 15087
-0.02 0.72 -2.38 -1.50 15.81 2.37 -0.29 0.80 15093
-0.02 0.76 -5.12 -4.01 15.41 2.30 -0.36 0.57 15099
-0.01 0.82 -6.18 -3.31 13.42 2.43 -0.47 0.27 15106
-0.03 0.89 -4.53 -2.87 13.66 2.67 -0.43 0.02 15113
0.00 0.90 -2.88 -2.50 16.50 2.84 -0.22 -0.22 15119
-0.01 0.96 -1.42 -2.94 18.49 2.85 0.04 -0.42 15125
-0.02 1.05 1.83 -2.57 17.95 2.69 0.33 -0.50 15131
-0.02 1.06 4.10 -2.61 16.47 2.51 0.64 -0.44 15138
-0.01 1.13 3.91 -2.67 17.50 2.40 0.81 -0.38 15144
-0.01 1.15 5.08 -3.70 25.95 1.96 0.42 -0.24 15151
-0.02 1.20 2.31 -2.24 12.14 0.44 -0.68 0.04 15158
0.00 1.26 0.34 -1.28 10.95 0.20 -0.53 0.10 15164
0.00 1.25 0.20 -1.27 10.42 0.17 -0.37 0.04 15170
-0.03 1.28 0.57 -1.00 9.99 0.11 -0.24 0.04 15176
0.02 1.28 0.97 -2.57 9.35 0.03 -0.09 0.08 15182
0.02 1.27 0.90 -1.37 10.26 0.02 -0.07 0.10 15190
0.05 1.29 0.53 -1.11 9.92 0.02 -0.06 0.09 15196
0.05 1.25 1.17 -0.68 10.32 0.03 -0.06 0.10 15202
0.03 1.26 0.85 -1.21 9.90 0.05 -0.07 0.09 15208
0.05 1.27 0.84 -1.06 9.87 0.04 -0.07 0.10 15215
0.07 1.27 0.91 -1.06 9.94 0.05 -0.08 0.11 15221
0.06 1.28 0.82 -1.06 9.96 0.05 -0.08 0.11 15227
0.09 1.28 0.89 -1.04 9.94 0.04 -0.08 0.13 15234
0.09 1.25 0.82 -1.08 9.90 0.04 -0.09 0.13 15240
0.08 1.24 0.78 -1.05 9.89 0.04 -0.09 0.13 15246
0.12 1.22 0.76 -1.05 9.93 0.03 -0.09 0.13 15253
0.13 1.19 0.74 -1.02 9.91 0.03 -0.09 0.15 15259
0.11 1.16 0.73 -1.01 9.91 0.03 -0.08 0.15 15265
0.15 1.13 0.73 -1.00 9.83 0.03 -0.08 0.15 15271
0.15 1.08 0.73 -1.02 9.80 0.03 -0.07 0.15 15279
0.14 1.07 0.72 -0.99 9.85 0.03 -0.06 0.16 15285
0.15 1.03 0.71 -1.00 9.88 0.03 -0.05 0.15 15291
0.15 1.01 0.74 -1.00 9.87 0.03 -0.04 0.16 15297
0.15 1.00 0.77 -0.98 9.90 0.03 -0.04 0.17 15303
0.16 0.93 0.73 -0.96 9.87 0.02 -0.03 0.16 15310
0.18 0.87 0.79 -1.01 9.87 0.03 -0.03 0.16 15316
0.19 0.88 0.78 -1.01 9.89 0.03 -0.04 0.16 15323
0.23 0.81 0.77 -1.01 9.83 0.02 -0.04 0.16 15329
0.23 0.78 0.76 -1.02 9.87 0.03 -0.05 0.17 15335
0.25 0.73 0.74 -0.99 9.87 0.03 -0.05 0.16 15342
0.26 0.68 0.73 -1.04 9.88 0.03 -0.06 0.16 15348
0.27 0.63 0.74 -1.03 9.88 0.03 -0.06 0.16 15354
0.31 0.61 0.74 -1.05 9.83 0.03 -0.06 0.16 15361
0.30 0.59 0.73 -1.04 9.85 0.03 -0.06 0.16 15367
0.30 0.57 0.72 -1.02 9.87 0.03 -0.06 0.16 15374
0.36 0.54 0.70 -1.02 9.82 0.03 -0.06 0.16 15380
0.34 0.49 0.72 -1.05 9.87 0.03 -0.06 0.15 15386
0.36 0.47 0.76 -1.07 9.83 0.03 -0.06 0.15 15392
0.39 0.44 0.75 -1.07 9.88 0.03 -0.06 0.14 15398
0.40 0.35 0.73 -1.07 9.83 0.04 -0.06 0.14 15406
0.42 0.33 0.73 -1.08 9.87 0.04 -0.06 0.15 15412
0.42 0.27 0.76 -1.09 9.85 0.04 -0.06 0.14 15418
0.45 0.21 0.74 -1.11 9.89 0.04 -0.05 0.15 15424
0.44 0.22 0.75 -1.10 9.84 0.04 -0.05 0.14 15430
0.50 0.14 0.72 -1.07 9.86 0.04 -0.05 0.12 15437
0.51 0.10 0.77 -0.97 9.89 0.04 -0.05 0.13 15443
0.52 0.12 0.73 -1.14 9.85 0.04 -0.05 0.13 15450
0.56 0.08 0.74 -1.12 9.91 0.04 -0.05 0.13 15456
0.57 0.04 0.77 -1.14 9.86 0.05 -0.05 0.13 15462
0.59 0.04 0.72 -1.11 9.83 0.05 -0.05 0.12 15469
0.61 0.01 0.75 -1.15 9.83 0.04 -0.05 0.12 15475
0.61 -0.03 0.74 -1.11 9.86 0.05 -0.05 0.12 15481
0.65 -0.01 0.76 -1.20 9.87 0.05 -0.05 0.12 15488
0.67 -0.01 0.73 -1.14 9.89 0.05 -0.05 0.11 15494
0.66 -0.02 0.79 -1.16 9.90 0.05 -0.05 0.11 15501
0.72 -0.02 0.79 -1.20 9.87 0.05 -0.05 0.10 15507
0.74 -0.02 0.82 -1.19 9.88 0.06 -0.05 0.10 15513
0.73 -0.01 0.79 -1.20 9.91 0.06 -0.05 0.09 15519
0.78 -0.02 0.81 -1.27 9.88 0.06 -0.06 0.09 15525
