Voltage_01 Voltage_02 Acc_x Acc_y Acc_z Gyro_x Gyro_y Gyro_z Time
5000
0.01 0.81 0.76 -0.73 10.09 -0.02 -0.02 0.03 17
0.02 0.80 0.77 -0.75 10.04 -0.02 -0.00 0.02 23
0.02 0.76 0.78 -0.73 10.07 -0.01 0.01 0.04 29
0.04 0.71 0.77 -0.73 10.07 0.00 0.01 0.03 35
0.04 0.67 0.80 -0.68 9.99 0.00 0.02 0.04 41
0.03 0.66 0.80 -0.71 9.95 0.01 0.01 0.04 48
0.04 0.63 0.79 -0.69 9.98 0.02 0.02 0.04 54
0.03 0.58 0.86 -0.69 10.04 0.02 0.02 0.04 60
0.03 0.54 0.81 -0.70 10.03 0.02 0.03 0.04 66
0.04 0.52 0.84 -0.69 10.01 0.02 0.03 0.04 72
0.05 0.44 0.82 -0.68 10.05 0.02 0.02 0.04 78
0.07 0.42 0.83 -0.70 9.96 0.02 0.02 0.04 84
0.05 0.41 0.88 -0.73 9.95 0.03 0.02 0.03 91
0.05 0.34 0.91 -0.69 9.95 0.03 0.02 0.03 97
0.05 0.31 0.97 -0.72 9.97 0.03 0.01 0.02 103
0.04 0.27 0.91 -0.70 9.91 0.02 0.00 0.01 109
0.06 0.26 0.88 -0.72 9.94 0.02 -0.01 0.01 116
0.07 0.27 0.98 -0.73 9.92 0.03 -0.01 0.01 122
0.08 0.22 0.82 -0.74 9.93 0.03 -0.01 0.01 129
0.06 0.23 0.83 -0.73 10.16 0.03 -0.00 0.01 135
0.08 0.17 0.77 -0.70 9.97 0.03 -0.00 0.01 141
0.09 0.11 0.84 -0.77 10.02 0.03 0.01 0.02 147
0.09 0.11 0.86 -0.79 9.98 0.03 0.01 0.02 153
0.07 0.12 0.87 -0.71 9.98 0.03 0.01 0.02 159
0.08 0.08 0.86 -0.74 9.94 0.03 0.01 0.02 165
0.09 0.05 0.88 -0.78 9.98 0.03 0.02 0.02 172
0.09 0.05 0.93 -0.68 9.99 0.03 0.02 0.02 178
0.09 0.02 0.95 -0.79 9.99 0.03 0.02 0.01 184
0.08 0.02 0.98 -0.76 9.97 0.03 0.01 0.01 190
0.08 0.01 0.95 -0.80 9.92 0.03 0.01 0.01 196
0.09 0.02 0.89 -0.80 10.01 0.03 0.00 0.01 203
0.10 -0.00 0.93 -0.80 9.99 0.03 -0.00 0.01 209
0.09 -0.01 0.93 -0.79 9.96 0.03 -0.01 0.01 216
0.09 0.00 0.92 -0.79 9.94 0.03 -0.01 0.01 222
0.10 0.01 0.95 -0.84 9.98 0.02 -0.02 0.01 228
0.12 0.00 0.94 -0.85 9.96 0.02 -0.03 0.01 234
0.13 -0.01 0.92 -0.34 10.00 0.02 -0.04 0.01 240
0.13 -0.01 0.94 -0.80 9.99 0.02 -0.05 0.00 246
0.08 -0.01 0.93 -0.84 9.95 0.02 -0.05 0.00 252
0.11 0.00 0.95 -0.97 10.04 0.02 -0.05 -0.00 259
0.14 -0.01 0.96 -0.85 10.01 0.02 -0.05 -0.01 265
0.15 -0.02 0.97 -0.76 10.03 0.02 -0.05 -0.01 271
0.15 -0.02 0.90 -0.85 10.03 0.02 -0.05 -0.01 277
0.15 -0.02 0.89 -0.83 10.01 0.03 -0.05 -0.01 283
0.17 -0.01 0.91 -0.79 9.99 0.03 -0.05 -0.01 289
0.19 -0.02 0.91 -0.82 10.02 0.04 -0.05 -0.01 295
0.20 -0.02 0.92 -0.85 10.01 0.06 -0.04 -0.02 303
0.20 -0.01 0.93 -0.87 10.02 0.07 -0.04 -0.02 309
0.24 -0.02 0.93 -0.92 10.06 0.08 -0.04 -0.02 315
0.27 -0.02 0.94 -0.90 10.04 0.10 -0.04 -0.02 321
0.32 -0.03 0.93 -0.94 10.06 0.12 -0.02 -0.02 327
0.32 -0.02 0.92 -0.96 10.05 0.15 -0.02 -0.02 333
0.39 -0.02 0.84 -0.87 10.08 0.18 0.00 -0.03 339
0.41 -0.03 0.98 -0.98 10.17 0.21 0.01 -0.03 347
0.46 -0.03 1.02 -1.00 10.21 0.27 0.03 -0.04 353
0.53 -0.02 1.04 -1.01 10.21 0.33 0.04 -0.05 359
0.62 -0.03 0.98 -1.11 10.40 0.40 0.06 -0.06 365
0.67 -0.05 1.09 -1.15 10.54 0.53 0.08 -0.07 371
0.69 -0.04 1.08 -1.17 10.72 0.67 0.08 -0.08 377
0.81 -0.05 1.12 -1.24 10.96 0.84 0.07 -0.10 384
0.89 -0.05 1.06 -0.64 11.12 0.99 0.06 -0.10 391
0.96 -0.04 0.97 -1.30 11.10 1.11 -0.00 -0.11 397
1.06 -0.04 0.95 -1.47 11.50 1.22 -0.07 -0.11 403
1.13 -0.06 1.05 -1.54 11.89 1.33 -0.14 -0.10 409
1.18 -0.06 1.05 -1.67 12.05 1.47 -0.21 -0.10 415
1.22 -0.04 1.00 -1.76 12.25 1.61 -0.29 -0.11 421
1.28 -0.06 1.00 -1.80 12.28 1.77 -0.36 -0.10 429
1.31 -0.06 1.03 -1.93 12.32 1.86 -0.43 -0.10 435
1.39 -0.05 1.03 -1.95 12.20 1.98 -0.48 -0.10 441
1.39 -0.06 0.90 -2.39 12.20 2.11 -0.53 -0.10 447
1.48 -0.07 1.10 -2.18 12.45 2.28 -0.54 -0.10 453
1.57 -0.07 0.94 -2.23 12.47 2.43 -0.60 -0.11 459
1.57 -0.07 0.88 -2.43 12.52 2.60 -0.61 -0.11 466
1.59 -0.07 0.89 -2.57 12.88 2.79 -0.61 -0.12 473
1.61 -0.06 0.96 -2.69 13.15 3.00 -0.61 -0.14 479
1.59 -0.06 0.71 -2.90 13.27 3.23 -0.61 -0.16 485
1.59 -0.06 0.88 -3.08 13.95 3.50 -0.60 -0.18 491
1.51 -0.06 1.28 -3.31 14.86 3.78 -0.60 -0.22 497
1.42 -0.05 2.11 -3.41 14.62 4.05 -0.65 -0.29 504
1.26 -0.06 2.41 -3.80 14.43 4.23 -0.70 -0.42 510
1.09 -0.05 1.68 -4.28 15.94 4.28 -0.69 -0.51 517
0.97 -0.04 1.57 -5.05 17.88 4.28 -0.80 -0.58 523
0.83 -0.03 2.20 -5.70 18.48 4.28 -0.93 -0.65 529
0.75 -0.05 1.74 -6.57 19.66 4.28 -1.12 -0.75 536
0.67 -0.05 2.72 -10.05 23.81 4.28 -1.17 -0.84 542
0.56 -0.03 1.84 -12.83 27.30 4.28 -1.17 -0.88 548
0.46 -0.03 2.40 -14.24 28.40 4.28 -1.05 -0.84 555
0.36 -0.03 1.95 -13.08 27.15 4.28 -0.86 -0.84 561
0.29 -0.03 1.46 -11.09 26.11 4.28 -0.72 -0.87 568
0.26 -0.03 0.93 -8.84 24.34 4.28 -0.57 -0.89 574
0.20 -0.02 -0.08 -6.14 24.50 4.28 -0.57 -0.90 580
0.13 -0.01 -0.73 -5.01 26.18 4.28 -0.79 -0.91 586
0.10 -0.01 0.07 -3.65 26.65 4.28 -1.31 -0.91 592
0.09 -0.00 2.07 -1.07 26.22 4.28 -1.81 -0.89 599
0.08 -0.01 5.23 1.67 25.44 4.28 -2.22 -0.83 605
0.05 -0.01 7.16 3.58 28.05 4.28 -2.59 -0.83 611
0.06 -0.01 7.54 6.87 26.34 4.28 -2.50 -0.73 618
0.07 -0.00 6.73 14.74 13.37 4.28 -2.00 -0.53 624
0.05 -0.01 9.09 19.33 13.77 4.06 -1.51 -0.61 630
0.04 -0.00 10.30 24.37 -7.61 3.06 -1.34 -1.02 636
0.04 -0.00 6.87 22.93 11.53 1.58 -1.26 -1.37 643
0.04 -0.00 7.08 17.71 26.49 -0.31 -0.23 -1.39 649
0.03 -0.00 7.20 13.59 26.60 -1.91 0.55 -1.25 656
0.05 -0.01 3.67 12.70 19.59 -2.86 0.81 -1.12 662
0.07 -0.01 2.80 12.49 14.73 -3.45 0.72 -0.96 668
0.06 -0.01 2.11 12.03 12.48 -4.02 0.55 -0.75 674
0.06 -0.01 2.42 10.40 10.72 -4.24 0.41 -0.55 680
0.07 -0.01 3.14 8.32 9.82 -4.28 0.25 -0.40 687
0.06 -0.01 3.70 6.54 8.95 -4.28 0.15 -0.29 693
0.04 -0.00 3.79 5.41 8.68 -4.28 0.05 -0.21 699
0.04 -0.00 3.71 4.56 8.83 -4.28 -0.03 -0.12 705
0.04 -0.00 3.80 3.85 9.21 -4.28 -0.04 -0.02 711
0.02 -0.00 4.07 3.38 9.87 -4.28 -0.03 0.06 717
0.05 -0.00 4.44 3.08 10.61 -4.28 0.03 0.12 724
0.03 -0.00 4.67 2.56 11.23 -4.28 0.12 0.16 731
0.04 -0.00 4.72 1.50 11.15 -4.28 0.21 0.17 737
0.06 -0.00 4.86 0.21 11.09 -4.28 0.25 0.13 743
0.06 -0.01 4.84 -0.99 11.12 -4.28 0.27 0.07 749
0.05 -0.01 4.68 -2.30 11.17 -4.28 0.28 0.01 755
0.04 -0.00 4.56 -3.37 11.80 -4.28 0.31 -0.01 761
0.05 0.01 4.60 -4.44 12.30 -4.28 0.38 -0.02 768
0.04 -0.00 4.48 -5.35 12.10 -4.28 0.42 -0.00 774
0.04 -0.00 4.51 -5.95 11.95 -4.28 0.47 0.04 780
0.06 -0.01 4.42 -6.06 11.94 -4.28 0.47 0.10 787
0.06 0.00 4.69 -6.14 12.39 -4.28 0.44 0.17 793
0.06 -0.01 5.09 -6.45 13.08 -4.28 0.44 0.23 799
0.05 0.01 6.04 -7.21 13.59 -4.26 0.48 0.27 805
0.03 -0.00 5.87 -7.10 15.86 -4.25 0.51 0.36 812
0.07 -0.00 6.58 -7.96 15.95 -4.19 0.63 0.44 818
0.05 -0.00 6.44 -8.20 15.55 -4.15 0.72 0.54 824
0.05 -0.00 6.58 -8.52 16.31 -4.08 0.79 0.66 830
0.06 -0.01 6.17 -8.53 16.65 -4.05 0.85 0.81 837
0.05 -0.01 6.26 -8.75 16.36 -3.93 0.93 0.98 843
0.05 -0.00 6.29 -8.87 16.55 -3.79 0.99 1.17 849
0.04 -0.00 6.38 -8.93 16.61 -3.65 1.04 1.35 856
0.04 -0.00 6.46 -8.90 16.92 -3.50 1.12 1.56 862
0.05 -0.00 6.53 -8.90 17.19 -3.37 1.23 1.78 868
0.04 -0.00 6.58 -8.98 17.43 -3.27 1.36 1.99 874
0.05 -0.00 6.45 -9.28 17.81 -3.15 1.53 2.18 880
0.05 0.00 5.95 -9.61 18.21 -3.05 1.66 2.35 886
0.05 -0.01 5.36 -9.84 18.19 -2.95 1.80 2.47 893
0.04 -0.00 4.69 -10.12 18.39 -2.84 1.88 2.58 900
0.03 -0.00 4.04 -10.52 18.62 -2.73 1.91 2.66 906
0.04 -0.00 3.37 -11.15 19.00 -2.60 1.87 2.70 912
0.04 -0.00 2.61 -11.80 19.40 -2.46 1.77 2.71 918
0.03 -0.00 1.92 -12.33 20.28 -2.35 1.64 2.69 924
0.05 0.00 1.46 -12.72 21.35 -2.26 1.50 2.66 931
0.04 0.00 1.25 -12.96 21.96 -2.26 1.40 2.59 937
0.04 0.00 1.35 -13.32 21.83 -2.36 1.38 2.48 944
0.05 0.00 1.36 -13.96 21.56 -2.57 1.40 2.33 950
0.04 -0.00 1.08 -14.73 20.31 -2.85 1.46 2.16 956
0.03 -0.00 0.70 -15.83 18.53 -3.12 1.54 2.00 963
0.05 0.00 0.50 -17.15 16.18 -3.30 1.62 1.78 969
0.05 -0.01 0.13 -18.83 14.36 -3.34 1.70 1.54 975
0.04 -0.00 -0.45 -20.25 11.50 -3.20 1.80 1.31 982
0.05 -0.00 -2.41 -20.78 7.53 -2.86 2.03 1.12 988
0.05 -0.00 -4.65 -21.31 4.57 -2.37 2.62 1.15 994
0.04 -0.00 -7.55 -22.96 5.87 -1.94 3.35 1.40 1000
0.05 -0.00 -10.39 -25.80 7.56 -1.46 3.59 1.57 1007
0.04 -0.00 -12.48 -27.82 7.62 -1.07 3.01 1.45 1013
0.04 -0.00 -14.35 -27.75 4.71 -0.81 1.85 1.17 1019
0.04 0.01 -12.77 -25.99 2.29 -0.66 0.66 0.89 1026
0.04 -0.00 -10.27 -25.07 2.34 -0.54 -0.22 0.63 1033
0.03 -0.00 -8.38 -24.08 3.76 -0.31 -0.76 0.34 1039
0.05 0.00 -6.25 -22.33 6.02 0.04 -1.12 -0.04 1045
0.03 -0.00 -1.83 -46.56 12.37 1.05 -1.53 -0.50 1051
0.03 -0.00 3.59 -19.47 1.19 2.87 -0.74 -0.77 1057
0.05 -0.00 -1.66 -13.06 -1.80 2.88 -0.64 -0.91 1063
0.04 0.01 -1.71 -16.80 -0.20 2.72 -1.25 -0.97 1071
0.02 0.08 1.29 -8.98 5.75 2.55 -2.50 -0.92 1077
0.02 0.15 4.15 4.25 6.98 2.51 -2.18 -0.67 1083
0.02 0.26 11.94 3.12 12.96 3.02 -0.59 0.02 1089
0.02 0.45 9.24 -0.56 14.22 3.63 0.58 0.62 1095
0.03 0.62 -5.78 -5.57 26.89 4.13 0.30 0.65 1102
0.02 0.76 -7.68 -4.47 26.06 4.10 -0.56 0.09 1108
0.00 0.96 1.93 -3.89 22.51 3.90 -1.01 -0.32 1115
0.01 1.04 4.23 -3.14 23.56 3.56 -0.61 -0.16 1121
0.01 1.02 0.64 -1.88 19.33 3.01 -0.22 -0.07 1128
-0.02 1.02 -0.11 -1.41 14.91 2.56 -0.34 -0.23 1134
0.00 0.97 1.84 -1.38 12.97 2.41 -0.48 -0.28 1140
0.00 0.91 1.67 -0.88 13.64 2.45 -0.51 -0.26 1146
0.02 0.94 2.11 -1.26 19.91 2.25 -1.20 -0.29 1153
0.01 0.89 3.36 -2.64 15.58 1.32 -1.85 -0.16 1160
0.00 0.92 1.35 -2.95 13.76 0.76 -1.46 0.06 1166
0.01 0.94 0.64 -1.62 11.72 0.41 -1.05 0.10 1172
0.00 0.96 0.14 -0.95 11.24 0.25 -0.75 0.06 1178
0.00 1.00 0.36 -0.13 10.05 0.13 -0.53 0.02 1185
0.00 0.98 0.87 -1.19 10.28 0.06 -0.37 0.00 1191
0.00 0.97 0.97 -1.07 10.26 0.01 -0.27 0.01 1198
0.00 0.98 0.82 -0.86 9.90 -0.01 -0.21 0.02 1204
0.02 1.00 0.65 -0.73 10.10 -0.02 -0.17 0.01 1210
-0.01 0.98 0.75 -0.72 10.00 -0.03 -0.15 -0.01 1216
0.00 0.96 0.77 -0.80 10.06 -0.03 -0.14 -0.01 1223
0.01 0.87 0.78 -0.69 10.00 -0.02 -0.12 -0.00 1229
0.00 0.84 0.71 -0.74 10.05 -0.01 -0.10 -0.00 1235
0.02 0.83 0.60 -0.75 10.03 -0.00 -0.09 0.01 1242
0.04 0.74 0.80 -0.81 10.00 0.00 -0.08 0.02 1248
0.04 0.68 0.77 -0.79 9.99 0.01 -0.07 0.02 1254
0.03 0.63 0.75 -0.79 10.10 0.01 -0.07 0.03 1261
0.05 0.56 0.74 -0.78 10.05 0.01 -0.07 0.03 1267
0.05 0.51 0.72 -0.78 10.12 0.02 -0.06 0.04 1273
0.04 0.49 0.68 -0.82 10.12 0.02 -0.05 0.04 1280
0.07 0.45 0.71 -0.73 10.03 0.03 -0.04 0.04 1286
0.07 0.32 0.66 -0.74 9.99 0.04 -0.03 0.04 1293
0.06 0.29 0.70 -0.72 9.99 0.05 -0.03 0.04 1299
0.07 0.26 0.69 -0.80 10.11 0.05 -0.02 0.04 1305
0.07 0.22 0.81 -0.78 9.94 0.05 -0.03 0.03 1311
0.07 0.21 0.73 -0.77 10.04 0.05 -0.04 0.02 1317
0.09 0.14 0.82 -0.85 10.00 0.04 -0.04 0.01 1324
0.10 0.12 0.80 -0.82 9.94 0.04 -0.05 0.01 1330
0.12 0.08 0.78 -0.80 9.96 0.03 -0.05 0.00 1337
0.13 0.07 0.74 -0.86 9.97 0.03 -0.05 -0.00 1343
0.15 0.03 0.70 -0.86 10.02 0.03 -0.05 0.00 1349
0.14 0.02 0.71 -0.84 10.00 0.03 -0.05 0.00 1355
0.14 0.02 0.64 -0.80 10.05 0.04 -0.04 0.01 1361
0.17 0.02 0.79 -0.76 10.10 0.04 -0.04 0.01 1368
0.16 -0.02 0.70 -0.88 10.03 0.04 -0.04 0.02 1375
0.16 -0.00 0.73 -0.85 9.99 0.05 -0.04 0.02 1381
0.19 -0.00 0.82 -0.80 10.00 0.05 -0.04 0.01 1387
0.21 -0.02 0.79 -0.87 9.97 0.05 -0.04 0.01 1393
0.23 -0.02 0.81 -0.91 9.99 0.05 -0.04 0.01 1399
0.24 -0.02 0.86 -0.92 9.88 0.04 -0.04 0.00 1405
0.26 -0.01 0.85 -0.94 9.93 0.05 -0.05 -0.00 1412
0.29 -0.03 0.84 -0.89 9.96 0.05 -0.04 -0.00 1418
0.33 -0.03 0.75 -0.87 9.97 0.05 -0.04 -0.01 1424
0.34 -0.03 0.81 -0.93 10.00 0.04 -0.04 -0.01 1431
0.38 -0.03 0.78 -0.93 10.01 0.04 -0.04 -0.02 1437
0.39 -0.03 0.83 -0.89 10.03 0.05 -0.04 -0.02 1443
0.39 -0.02 0.81 -0.94 9.99 0.05 -0.04 -0.02 1449
0.43 -0.01 0.75 -0.94 9.96 0.05 -0.04 -0.02 1456
0.44 -0.04 0.76 -0.92 9.96 0.06 -0.04 -0.02 1462
0.43 -0.04 0.76 -0.96 10.00 0.05 -0.04 -0.02 1469
0.49 -0.03 0.74 -0.91 9.99 0.06 -0.04 -0.02 1475
0.53 -0.04 0.78 -0.95 10.02 0.07 -0.04 -0.02 1481
0.55 -0.04 0.84 -1.00 9.92 0.07 -0.04 -0.02 1487
0.60 -0.04 0.82 -0.96 10.07 0.08 -0.03 -0.03 1494
0.65 -0.05 0.82 -0.98 10.05 0.09 -0.03 -0.03 1500
0.67 -0.04 0.78 -0.98 10.04 0.10 -0.03 -0.03 1507
0.69 -0.04 0.83 -1.00 10.03 0.12 -0.02 -0.04 1513
0.73 -0.03 0.78 -0.98 10.05 0.15 -0.01 -0.05 1519
0.76 -0.05 0.81 -1.04 10.13 0.18 -0.00 -0.05 1525
0.83 -0.05 0.75 -0.96 10.16 0.23 0.00 -0.05 1531
0.91 -0.05 0.75 -1.14 10.31 0.29 0.01 -0.05 1539
0.97 -0.05 0.83 -1.12 10.42 0.36 0.02 -0.05 1545
1.04 -0.05 0.75 -1.13 10.52 0.45 0.03 -0.05 1551
1.08 -0.06 0.82 -1.44 10.77 0.58 0.05 -0.06 1557
1.09 -0.07 0.81 -1.29 10.85 0.70 0.06 -0.06 1563
1.16 -0.05 0.88 -1.34 11.06 0.83 0.05 -0.05 1570
1.21 -0.05 0.94 -1.46 11.24 0.96 0.02 -0.06 1576
1.24 -0.06 0.54 -4.02 11.22 1.06 -0.03 -0.06 1583
1.32 -0.05 0.88 -1.75 11.23 1.20 -0.11 -0.06 1589
1.34 -0.06 0.96 -1.65 11.45 1.24 -0.19 -0.07 1595
1.40 -0.07 1.03 -1.75 11.73 1.34 -0.26 -0.07 1602
1.43 -0.06 0.98 -1.73 12.02 1.46 -0.30 -0.07 1608
1.48 -0.07 0.91 -1.86 12.28 1.59 -0.34 -0.08 1614
1.53 -0.07 1.00 -2.11 12.27 1.75 -0.37 -0.09 1620
1.53 -0.06 0.68 -1.94 12.19 1.90 -0.41 -0.09 1628
1.59 -0.08 0.74 -2.11 12.33 2.03 -0.45 -0.09 1634
1.62 -0.06 0.67 -2.22 12.53 2.17 -0.50 -0.09 1640
1.62 -0.07 0.60 -2.31 12.84 2.34 -0.52 -0.09 1646
1.59 -0.06 0.68 -3.03 12.72 2.54 -0.53 -0.09 1653
1.58 -0.06 0.84 -2.67 12.74 2.75 -0.54 -0.09 1659
1.60 -0.07 0.69 -2.63 13.13 2.97 -0.53 -0.10 1666
1.54 -0.05 1.05 -2.71 12.96 3.21 -0.52 -0.12 1672
1.53 -0.06 0.82 -3.09 13.28 3.44 -0.49 -0.15 1678
1.48 -0.06 0.62 -3.26 13.77 3.71 -0.44 -0.19 1685
1.42 -0.05 1.10 -3.42 15.67 4.03 -0.40 -0.21 1691
1.26 -0.05 1.29 -3.79 15.61 4.24 -0.44 -0.26 1697
1.15 -0.04 2.46 -4.28 16.76 4.28 -0.57 -0.36 1703
1.00 -0.05 3.17 -4.60 16.93 4.28 -0.75 -0.51 1711
0.86 -0.05 2.50 -5.95 18.56 4.28 -0.97 -0.66 1717
0.69 -0.03 2.67 -8.68 21.22 4.28 -1.18 -0.81 1723
0.68 -0.03 1.69 -10.13 24.40 4.28 -1.28 -0.89 1729
0.54 -0.03 2.26 -10.91 28.01 4.28 -1.28 -0.94 1736
0.49 -0.04 1.69 -14.54 30.59 4.28 -1.13 -0.89 1742
0.30 -0.03 1.86 -14.04 29.78 4.28 -0.93 -0.85 1748
0.26 -0.02 2.40 -13.36 26.44 4.28 -0.77 -0.88 1755
0.24 -0.02 1.23 -10.04 27.07 4.28 -0.54 -0.90 1762
0.19 -0.01 0.70 -7.54 27.93 4.28 -0.55 -0.90 1768
0.15 -0.02 0.23 -5.23 27.70 4.28 -0.74 -0.90 1774
0.11 -0.01 0.98 -2.27 27.25 4.28 -1.09 -0.89 1780
0.09 -0.01 3.34 1.13 26.58 4.28 -1.54 -0.88 1786
0.07 -0.01 6.06 3.68 28.17 4.28 -2.01 -0.87 1794
0.07 -0.01 6.69 6.41 27.90 4.28 -2.09 -0.81 1800
0.06 -0.01 8.12 12.99 21.36 4.28 -1.80 -0.70 1806
0.05 -0.01 10.30 17.87 17.21 4.27 -1.17 -0.75 1812
0.05 -0.00 8.75 18.18 -2.28 3.61 -0.67 -1.22 1818
0.04 -0.00 9.13 23.19 6.19 2.40 -0.70 -1.66 1825
0.05 -0.00 7.11 19.30 23.15 0.47 0.12 -1.85 1831
0.04 -0.00 7.41 15.35 28.87 -1.38 0.98 -1.71 1838
0.06 -0.01 4.53 13.46 20.93 -2.62 1.19 -1.53 1844
0.05 -0.01 2.28 12.81 14.63 -3.30 0.99 -1.31 1850
0.05 -0.01 1.60 11.98 11.39 -3.86 0.74 -1.04 1857
0.05 0.00 1.88 10.40 9.83 -4.18 0.56 -0.78 1863
0.04 -0.00 2.67 8.35 8.17 -4.25 0.42 -0.59 1869
0.03 -0.00 3.25 6.50 7.24 -4.26 0.31 -0.45 1875
0.04 -0.00 3.38 5.31 6.73 -4.24 0.26 -0.34 1882
0.06 -0.01 3.37 4.68 6.79 -4.21 0.28 -0.26 1888
0.04 -0.00 3.44 4.15 7.19 -4.17 0.37 -0.16 1894
0.03 -0.00 3.63 3.75 7.78 -4.13 0.52 -0.08 1900
0.04 0.00 3.75 3.55 8.55 -4.13 0.71 -0.04 1907
0.06 -0.00 3.61 3.44 8.97 -4.15 0.90 -0.04 1913
0.05 -0.00 3.41 2.99 9.15 -4.20 1.08 -0.06 1920
0.03 -0.00 3.20 2.48 9.62 -4.26 1.19 -0.10 1926
0.05 0.00 2.77 1.96 9.95 -4.28 1.30 -0.15 1932
0.06 -0.01 2.42 1.29 10.68 -4.28 1.41 -0.20 1938
0.06 -0.01 2.33 0.48 11.69 -4.28 1.53 -0.24 1944
0.04 -0.00 2.30 -0.29 12.71 -4.28 1.63 -0.29 1951
0.06 -0.01 2.02 -0.96 13.50 -4.28 1.72 -0.33 1957
0.03 -0.00 1.83 -1.64 13.80 -4.28 1.83 -0.37 1964
0.04 -0.00 1.47 -2.13 14.00 -4.28 1.93 -0.40 1970
0.05 -0.01 0.63 -2.58 14.17 -4.28 2.01 -0.41 1976
0.04 -0.00 1.08 -3.06 14.14 -4.28 2.08 -0.41 1982
0.04 -0.00 0.90 -4.26 14.61 -4.28 2.12 -0.41 1989
0.04 0.00 0.75 -4.45 15.20 -4.28 2.17 -0.42 1995
0.04 -0.00 0.38 -5.31 16.44 -4.28 2.20 -0.41 2001
0.04 -0.00 -0.42 -5.64 16.20 -4.27 2.26 -0.37 2008
0.03 0.01 0.82 -6.19 17.42 -4.22 2.26 -0.35 2014
0.04 -0.00 0.19 -6.58 17.16 -4.13 2.31 -0.33 2020
0.04 -0.00 0.09 -6.55 17.05 -4.02 2.40 -0.26 2027
0.04 0.00 0.00 -6.73 17.42 -3.86 2.47 -0.17 2033
0.04 -0.00 -0.35 -6.93 18.29 -3.72 2.49 -0.06 2039
0.04 -0.00 -0.81 -7.05 19.23 -3.58 2.47 0.06 2045
0.03 0.00 -1.84 -7.02 19.85 -3.45 2.41 0.22 2052
0.04 -0.00 -1.43 -6.90 20.54 -3.38 2.31 0.40 2058
0.04 -0.00 -1.52 -6.78 21.11 -3.35 2.19 0.55 2065
0.04 -0.00 -1.38 -7.05 21.54 -3.36 2.04 0.75 2071
0.05 -0.00 -1.23 -7.47 21.66 -3.40 1.87 0.93 2077
0.04 -0.00 -0.99 -8.22 21.30 -3.42 1.71 1.12 2083
0.05 -0.00 -0.81 -9.01 20.77 -3.42 1.58 1.31 2089
0.07 -0.01 -0.59 -10.09 20.28 -3.34 1.47 1.49 2097
0.05 -0.00 -0.64 -11.28 19.69 -3.27 1.37 1.66 2103
0.05 -0.00 -0.70 -12.38 19.11 -3.11 1.26 1.80 2109
0.06 -0.01 -0.85 -13.39 18.36 -2.92 1.12 1.92 2115
0.05 -0.00 -1.22 -14.26 18.20 -2.72 0.96 2.03 2121
0.05 -0.01 -1.37 -15.07 18.42 -2.56 0.74 2.10 2128
0.05 -0.00 -1.68 -16.08 18.53 -2.43 0.56 2.16 2135
0.04 -0.00 -1.83 -17.26 18.06 -2.37 0.39 2.22 2141
0.05 -0.01 -2.05 -17.97 16.82 -2.34 0.25 2.30 2147
0.05 -0.00 -2.62 -18.41 15.05 -2.33 0.33 2.43 2154
0.04 -0.00 -3.00 -19.65 13.64 -2.30 0.66 2.56 2160
0.06 -0.01 -3.37 -21.27 12.39 -2.26 0.93 2.59 2166
0.05 -0.01 -4.07 -22.89 11.29 -2.19 0.96 2.59 2172
0.05 -0.00 -4.88 -24.52 9.52 -2.04 0.87 2.54 2179
0.04 -0.00 -5.37 -25.57 7.32 -1.82 0.71 2.44 2185
0.04 -0.00 -5.56 -26.42 5.06 -1.51 0.57 2.30 2192
0.05 -0.00 -5.67 -27.35 3.62 -1.15 0.47 2.09 2198
0.06 -0.01 -5.85 -27.78 2.96 -0.77 0.40 1.80 2204
0.04 -0.00 -5.89 -27.49 3.18 -0.46 0.30 1.43 2210
0.04 -0.00 -5.84 -26.35 3.99 -0.09 0.16 1.02 2216
0.05 -0.00 -5.76 -26.20 4.29 0.25 0.00 0.60 2223
0.05 -0.01 -5.44 -39.97 59.17 2.38 -0.31 0.16 2230
0.04 -0.00 -3.21 -21.58 4.44 2.75 0.14 0.05 2236
0.05 -0.00 -5.81 -18.18 1.77 3.11 -0.26 -0.16 2242
0.04 -0.00 -5.24 -13.36 5.56 3.17 -1.07 -0.30 2248
0.04 0.01 -0.41 -1.44 5.71 2.95 -2.05 -0.60 2254
0.04 0.10 1.26 3.50 10.01 2.78 -2.38 -0.64 2260
0.03 0.21 7.54 9.86 14.43 2.99 -1.57 -0.29 2268
0.02 0.35 7.83 -0.86 9.20 3.12 -0.63 0.15 2274
0.02 0.52 2.36 -4.31 18.94 3.65 -0.30 0.42 2280
0.02 0.65 -5.08 -5.95 20.23 3.92 -0.55 0.40 2286
0.00 0.80 -2.76 -6.16 22.15 4.00 -0.88 0.15 2293
0.00 0.97 1.43 -3.10 22.82 3.91 -0.90 0.06 2299
0.01 1.02 0.42 -2.35 19.22 3.43 -0.60 0.13 2306
0.00 1.05 -1.26 -2.16 17.51 3.02 -0.36 0.06 2312
0.01 1.03 -1.13 -2.23 15.82 2.81 -0.29 -0.10 2318
0.00 0.99 -0.12 -2.20 17.81 2.76 -0.37 -0.24 2325
0.00 0.96 1.53 -2.68 24.83 1.83 -1.43 -0.26 2331
0.01 0.96 2.49 -1.79 11.95 0.52 -1.00 -0.00 2337
-0.00 0.99 0.25 -2.66 11.99 0.22 -0.51 0.12 2343
-0.01 1.02 0.28 -1.29 11.01 0.07 -0.23 0.14 2350
-0.00 1.01 -0.11 -0.73 10.40 0.01 -0.11 0.10 2357
-0.00 0.99 0.50 -0.70 10.22 -0.03 -0.07 0.06 2363
0.01 1.03 0.82 -1.01 10.36 -0.04 -0.05 0.06 2369
0.02 0.99 0.69 -1.09 10.25 -0.05 -0.04 0.06 2375
0.00 0.96 0.61 -0.90 10.14 -0.05 -0.04 0.06 2381
0.01 1.02 0.57 -0.63 10.14 -0.05 -0.04 0.05 2388
0.01 1.06 0.70 -0.69 10.01 -0.04 -0.04 0.04 2395
-0.01 1.02 0.68 -0.54 10.04 -0.04 -0.00 0.04 2401
-0.00 1.04 0.68 -0.64 9.99 -0.03 -0.03 0.05 2407
0.01 1.01 0.67 -0.01 9.93 -0.03 -0.03 0.05 2413
0.01 0.97 0.72 -0.61 10.00 -0.02 -0.04 0.04 2419
0.03 0.90 0.72 -0.61 10.02 -0.01 -0.05 0.04 2426
0.03 0.85 0.68 -0.64 10.03 -0.01 -0.06 0.04 2433
0.03 0.78 0.68 -0.62 10.06 -0.01 -0.06 0.04 2439
0.03 0.71 0.68 -0.63 10.05 0.01 -0.06 0.04 2445
0.03 0.70 0.68 -0.62 10.09 0.01 -0.06 0.04 2451
0.04 0.57 0.67 -0.70 10.01 0.01 -0.06 0.04 2458
0.04 0.59 0.63 -0.65 10.06 0.02 -0.05 0.04 2464
0.06 0.51 0.67 -0.62 10.01 0.02 -0.04 0.04 2470
0.06 0.48 0.64 -0.65 10.04 0.02 -0.04 0.04 2477
0.07 0.41 0.62 -0.67 10.03 0.02 -0.03 0.05 2483
0.07 0.34 0.68 -0.67 10.02 0.03 -0.03 0.04 2489
0.09 0.31 0.66 -0.62 9.98 0.03 -0.02 0.04 2496
0.09 0.30 0.69 -0.65 9.98 0.03 -0.02 0.04 2502
0.10 0.26 0.70 -0.66 10.00 0.03 -0.02 0.04 2508
0.09 0.24 0.74 -0.64 9.98 0.03 -0.02 0.03 2514
0.09 0.20 0.72 -0.69 9.98 0.02 -0.02 0.03 2521
0.11 0.21 0.68 -0.66 9.96 0.03 -0.02 0.02 2527
0.14 0.14 0.70 -0.69 9.96 0.02 -0.03 0.02 2533
0.13 0.14 0.71 -0.71 10.04 0.03 -0.03 0.03 2540
0.14 0.11 0.70 -0.68 10.05 0.02 -0.03 0.02 2546
0.14 0.15 0.70 -0.69 9.99 0.02 -0.02 0.02 2552
0.14 0.11 0.68 -0.71 10.04 0.03 -0.02 0.02 2558
0.14 0.09 0.68 -0.70 10.03 0.03 -0.02 0.02 2565
0.15 0.06 0.68 -0.64 10.05 0.03 -0.01 0.03 2571
0.17 0.04 0.68 -0.71 10.01 0.03 -0.01 0.02 2578
0.15 0.05 0.72 -0.73 9.96 0.03 -0.01 0.03 2584
0.16 0.07 0.69 -0.73 10.01 0.03 -0.00 0.02 2590
0.16 0.04 0.74 -0.74 9.99 0.03 -0.01 0.02 2596
0.15 -0.00 0.70 -0.72 10.02 0.03 -0.01 0.02 2603
0.18 0.01 0.74 -0.73 9.97 0.03 -0.01 0.02 2609
0.17 0.01 0.70 -0.72 10.00 0.02 -0.02 0.01 2615
0.15 -0.01 0.77 -0.74 9.99 0.02 -0.02 0.01 2622
0.18 -0.01 0.75 -0.73 10.00 0.02 -0.03 0.01 2628
0.20 -0.02 0.74 -0.77 10.01 0.01 -0.03 0.01 2634
0.17 -0.00 0.76 -0.78 9.94 0.01 -0.04 0.00 2640
0.18 -0.02 0.75 -0.76 10.02 0.01 -0.05 0.00 2647
0.19 0.02 0.75 -0.78 10.02 0.01 -0.06 0.00 2653
0.21 -0.02 0.79 -0.68 10.01 0.01 -0.06 -0.00 2660
0.22 -0.02 0.77 -0.70 10.01 0.02 -0.08 -0.00 2666
0.25 -0.02 0.72 -0.76 10.06 0.02 -0.08 -0.01 2672
0.31 -0.03 0.74 -0.80 10.05 0.03 -0.08 -0.01 2678
0.31 -0.03 0.76 -0.79 10.15 0.03 -0.08 -0.01 2684
0.37 -0.04 0.69 -0.77 10.10 0.04 -0.08 -0.01 2691
0.43 -0.03 0.67 -0.80 10.05 0.05 -0.07 -0.01 2698
0.47 -0.04 0.70 -0.78 10.08 0.06 -0.06 -0.02 2704
0.53 -0.03 0.73 -0.77 10.03 0.08 -0.05 -0.02 2710
0.62 -0.04 0.73 -0.66 10.15 0.11 -0.05 -0.02 2716
0.69 -0.05 0.80 -0.86 10.24 0.14 -0.05 -0.03 2722
0.72 -0.05 0.80 -0.91 10.17 0.17 -0.04 -0.04 2729
0.78 -0.04 0.80 -0.83 10.27 0.22 -0.03 -0.06 2736
0.81 -0.05 0.90 -0.91 10.28 0.27 -0.02 -0.09 2742
0.90 -0.04 0.92 -0.97 10.40 0.35 -0.00 -0.11 2748
0.95 -0.05 0.89 -1.02 10.51 0.45 0.01 -0.14 2754
1.01 -0.06 0.89 -1.01 10.94 0.62 0.02 -0.15 2761
1.11 -0.05 0.90 -1.11 11.58 0.87 0.02 -0.15 2767
1.18 -0.06 0.89 -1.20 12.11 1.16 0.01 -0.16 2774
1.23 -0.06 0.91 -1.30 12.24 1.41 -0.04 -0.16 2780
1.29 -0.05 1.00 -1.38 12.27 1.59 -0.11 -0.16 2786
1.30 -0.06 0.95 -1.51 12.54 1.71 -0.23 -0.15 2793
1.36 -0.06 0.94 -1.57 12.97 1.89 -0.32 -0.15 2799
1.42 -0.06 0.88 -1.58 13.00 2.07 -0.36 -0.15 2805
1.45 -0.07 0.79 -1.68 13.07 2.21 -0.38 -0.15 2811
1.49 -0.06 0.53 -1.67 12.82 2.39 -0.38 -0.15 2819
1.53 -0.06 0.85 -2.03 13.00 2.56 -0.40 -0.14 2825
1.54 -0.07 0.81 -2.09 12.99 2.72 -0.43 -0.15 2831
1.51 -0.06 0.94 -2.09 13.46 2.92 -0.47 -0.17 2837
1.51 -0.05 1.14 -2.35 13.88 3.16 -0.44 -0.17 2843
1.46 -0.06 0.59 -2.34 14.33 3.44 -0.40 -0.17 2850
1.43 -0.06 0.67 -2.65 15.16 3.74 -0.39 -0.18 2856
1.33 -0.06 1.63 -3.49 15.18 4.07 -0.38 -0.22 2863
1.16 -0.03 2.07 -3.18 16.68 4.26 -0.39 -0.30 2869
1.03 -0.04 1.94 -3.39 17.00 4.28 -0.43 -0.42 2876
0.83 -0.05 2.14 -3.88 18.38 4.28 -0.53 -0.50 2882
0.69 -0.02 1.78 -5.19 20.29 4.28 -0.69 -0.58 2888
0.58 -0.04 2.71 -6.90 23.15 4.28 -0.83 -0.64 2894
0.49 -0.03 2.54 -9.56 26.32 4.28 -0.89 -0.70 2902
0.41 -0.02 2.91 -10.76 29.68 4.28 -0.75 -0.72 2908
0.33 -0.03 2.26 -12.90 30.62 4.28 -0.44 -0.66 2914
0.24 -0.01 2.46 -11.94 27.70 4.28 -0.24 -0.66 2920
0.21 -0.02 1.99 -10.08 26.05 4.28 -0.03 -0.71 2927
0.20 -0.02 0.89 -8.03 25.76 4.28 0.11 -0.73 2933
0.18 -0.02 0.23 -5.84 27.74 4.28 0.05 -0.75 2939
0.11 -0.01 1.03 -5.28 29.51 4.28 -0.29 -0.81 2946
0.12 -0.01 3.26 -3.08 28.47 4.28 -0.74 -0.89 2952
0.09 -0.01 5.91 1.12 27.73 4.28 -1.09 -0.94 2959
0.06 -0.01 6.22 3.76 29.99 4.28 -1.21 -0.94 2965
0.05 -0.00 5.71 9.27 25.65 4.28 -0.77 -0.83 2971
0.06 -0.01 9.11 16.14 19.34 4.28 -0.28 -0.89 2977
0.04 -0.00 6.78 20.84 7.09 3.76 0.14 -1.39 2983
0.04 -0.00 7.06 23.35 -6.83 2.82 -0.01 -1.98 2990
0.05 -0.01 5.29 19.08 15.93 1.48 0.10 -2.40 2997
0.04 -0.00 6.49 13.45 24.58 -0.03 0.85 -2.42 3003
0.04 -0.00 6.19 11.24 22.37 -1.16 1.35 -2.35 3009
0.06 -0.01 3.54 11.32 15.12 -1.78 1.36 -2.28 3015
0.06 -0.01 2.80 11.94 11.71 -2.20 1.09 -2.15 3021
0.05 0.00 2.63 11.58 9.23 -2.67 0.88 -1.93 3028
0.05 -0.00 3.09 10.03 7.59 -3.06 0.74 -1.68 3035
0.03 -0.00 3.73 8.37 7.01 -3.29 0.60 -1.45 3041
0.04 -0.00 3.80 7.17 6.97 -3.42 0.44 -1.25 3047
0.06 -0.01 3.71 6.34 6.86 -3.53 0.33 -1.07 3053
0.04 -0.00 3.66 5.75 6.86 -3.60 0.23 -0.90 3059
0.04 -0.00 3.86 4.86 6.92 -3.62 0.17 -0.70 3065
0.04 -0.00 4.17 4.07 7.34 -3.62 0.13 -0.50 3072
0.06 -0.01 4.54 3.78 7.69 -3.64 0.11 -0.32 3079
0.04 -0.00 4.86 3.73 7.83 -3.68 0.13 -0.15 3085
0.04 -0.00 4.95 3.80 8.14 -3.77 0.18 0.00 3091
0.04 -0.00 5.06 3.69 8.76 -3.90 0.30 0.16 3097
0.05 -0.01 5.10 3.36 9.32 -4.04 0.49 0.25 3103
0.04 -0.00 5.07 2.50 9.66 -4.15 0.74 0.35 3109
0.05 -0.00 4.93 1.51 10.07 -4.23 0.98 0.42 3116
0.05 0.00 4.79 0.60 10.64 -4.27 1.16 0.45 3122
0.05 -0.00 4.52 0.01 11.73 -4.28 1.29 0.47 3129
0.05 -0.00 4.38 -0.62 12.74 -4.28 1.43 0.46 3135
0.04 -0.00 3.87 -1.15 13.23 -4.28 1.54 0.45 3141
0.06 -0.01 3.49 -1.78 13.59 -4.28 1.69 0.44 3147
0.04 -0.00 3.24 -2.59 13.70 -4.28 1.81 0.42 3153
0.04 -0.00 2.88 -3.43 14.20 -4.28 1.88 0.39 3160
0.06 -0.01 2.38 -4.34 14.37 -4.28 1.91 0.35 3167
0.04 -0.00 1.64 -5.29 16.00 -4.28 2.00 0.35 3173
0.03 -0.00 0.82 -6.52 16.35 -4.28 2.02 0.35 3179
0.04 0.01 1.66 -6.90 17.24 -4.28 1.96 0.35 3185
0.06 -0.01 2.06 -7.35 16.80 -4.25 1.91 0.31 3191
0.04 -0.00 1.43 -7.50 17.09 -4.18 1.88 0.27 3197
0.04 -0.00 1.39 -7.55 16.90 -4.09 1.92 0.26 3205
0.04 -0.00 1.33 -7.71 16.88 -3.96 1.96 0.27 3211
0.04 -0.00 1.23 -8.00 17.08 -3.80 2.00 0.28 3217
0.03 -0.00 1.13 -8.47 17.52 -3.61 2.02 0.31 3223
0.04 0.00 0.92 -8.87 17.80 -3.40 2.03 0.37 3229
0.03 -0.00 0.60 -9.04 18.26 -3.18 2.03 0.46 3235
0.03 -0.00 0.31 -9.20 18.70 -2.98 1.99 0.56 3241
0.03 -0.00 0.13 -9.39 18.73 -2.83 1.91 0.68 3249
0.04 -0.00 0.09 -9.57 18.78 -2.66 1.79 0.81 3255
0.04 -0.00 0.29 -9.83 19.33 -2.51 1.70 0.93 3261
0.04 0.00 0.60 -10.19 19.63 -2.39 1.61 1.05 3267
0.05 -0.00 1.00 -10.67 20.33 -2.30 1.56 1.12 3273
0.03 -0.00 1.64 -11.11 20.57 -2.25 1.57 1.21 3280
0.06 -0.01 2.17 -11.57 20.76 -2.24 1.63 1.28 3287
0.04 -0.00 2.58 -12.09 20.95 -2.25 1.77 1.35 3293
0.05 -0.00 2.54 -12.89 21.30 -2.31 1.93 1.43 3299
0.04 -0.00 1.74 -13.57 21.41 -2.42 2.02 1.53 3306
0.04 -0.00 0.76 -14.54 20.71 -2.55 2.02 1.65 3312
0.05 -0.00 0.00 -15.95 19.68 -2.71 1.88 1.76 3318
0.04 -0.00 -0.70 -17.65 18.09 -2.84 1.68 1.86 3324
0.04 -0.00 -1.36 -19.28 15.66 -2.88 1.49 1.97 3331
0.05 -0.01 -2.04 -20.56 13.01 -2.82 1.42 2.09 3338
0.04 -0.00 -2.72 -21.98 11.08 -2.65 1.50 2.25 3344
0.05 -0.00 -3.64 -23.62 9.08 -2.41 1.61 2.41 3350
0.05 -0.01 -4.91 -25.11 7.55 -2.09 1.69 2.55 3356
0.05 -0.00 -6.46 -26.56 6.51 -1.83 1.70 2.63 3362
0.04 -0.00 -7.42 -28.26 5.28 -1.51 1.60 2.62 3369
0.06 -0.01 -8.56 -29.97 3.63 -1.20 1.36 2.49 3376
0.05 -0.00 -8.96 -30.51 1.84 -0.87 0.95 2.21 3382
0.03 -0.00 -8.84 -29.45 0.22 -0.50 0.53 1.94 3388
0.05 -0.00 -8.54 -28.39 1.23 -0.07 0.18 1.55 3394
0.03 -0.00 -14.82 -40.75 52.49 2.30 -1.58 1.17 3400
0.04 -0.00 -8.42 -24.15 1.05 2.68 -1.17 1.01 3407
0.05 -0.00 -9.55 -20.39 1.20 3.21 -2.06 0.69 3414
0.04 -0.00 -8.57 -15.81 3.79 3.24 -2.90 0.50 3420
0.02 0.00 0.11 0.60 8.15 3.12 -3.70 0.22 3426
0.03 0.08 -0.68 1.25 12.38 2.76 -3.74 0.10 3432
0.04 0.22 3.49 10.04 17.48 2.87 -2.37 0.52 3439
0.02 0.36 5.59 2.28 9.18 2.93 -0.92 1.01 3445
0.02 0.54 -2.42 -3.37 21.08 3.65 -0.56 1.13 3451
0.01 0.70 -10.72 -6.05 23.35 3.92 -0.56 0.83 3458
-0.01 0.86 -9.17 -5.48 21.93 3.97 -0.86 0.20 3464
0.00 0.96 -1.95 -3.66 24.92 3.79 -0.69 -0.20 3471
-0.01 1.03 -2.22 -2.09 22.58 3.13 -0.38 -0.43 3477
-0.00 1.06 -0.26 -2.24 18.45 2.44 -0.31 -0.61 3483
0.00 1.05 3.50 -2.31 14.35 2.15 -0.34 -0.62 3489
-0.01 1.01 4.62 -2.09 13.96 2.09 -0.49 -0.43 3496
0.01 0.99 3.58 -2.06 17.28 1.80 -1.34 -0.20 3503
0.01 0.98 2.64 -1.61 13.26 1.10 -1.59 0.01 3509
-0.00 0.96 0.44 -1.57 13.08 0.75 -1.36 0.12 3515
0.00 0.97 0.01 -0.96 12.08 0.42 -1.01 0.10 3521
0.00 0.97 -0.09 -0.93 11.62 0.21 -0.64 0.05 3528
-0.01 0.96 -0.05 -1.33 10.95 0.07 -0.35 0.03 3534
-0.01 0.98 0.58 -1.21 10.58 0.01 -0.23 0.03 3540
0.02 0.99 0.74 -1.06 10.04 -0.01 -0.16 0.04 3547
0.01 1.04 0.62 -0.83 10.16 -0.02 -0.13 0.04 3553
-0.01 1.03 0.47 -0.79 10.12 -0.02 -0.12 0.03 3560
-0.01 1.08 0.52 -0.80 10.14 -0.03 -0.10 0.02 3566
-0.02 1.09 0.00 -0.79 10.16 -0.03 -0.09 0.02 3572
-0.00 1.07 0.63 -0.70 10.06 -0.03 -0.07 0.03 3578
-0.00 1.04 0.59 -0.63 10.04 -0.02 -0.06 0.03 3585
-0.01 1.03 0.57 -0.61 10.01 -0.01 -0.06 0.03 3592
-0.00 0.99 0.68 -0.68 9.99 -0.01 -0.05 0.03 3598
0.00 0.96 0.64 -0.65 9.98 -0.01 -0.05 0.03 3604
0.01 0.87 0.63 -0.67 9.97 -0.00 -0.05 0.04 3610
0.03 0.87 0.59 -0.63 9.95 0.00 -0.04 0.04 3616
0.02 0.83 0.61 -0.69 9.99 0.00 -0.03 0.04 3622
0.02 0.78 0.00 -0.68 10.08 0.00 -0.04 0.04 3629
0.03 0.77 0.62 -0.68 10.01 0.01 -0.03 0.04 3636
0.03 0.73 0.59 -0.70 10.00 0.01 -0.02 0.05 3642
0.03 0.65 0.60 -0.68 9.99 0.01 -0.02 0.05 3648
0.02 0.62 0.66 -0.63 10.02 0.01 -0.02 0.05 3654
0.04 0.55 0.65 -0.64 10.00 0.02 -0.02 0.05 3660
0.04 0.50 0.81 -0.50 10.05 0.02 -0.02 0.05 3666
0.05 0.49 0.67 -0.66 9.90 0.02 -0.03 0.04 3673
0.05 0.46 0.70 -0.67 9.93 0.02 -0.03 0.04 3680
0.06 0.40 0.68 -0.65 9.98 0.02 -0.04 0.03 3686
0.06 0.34 0.68 -0.69 9.97 0.03 -0.04 0.03 3692
0.07 0.33 0.64 -0.70 10.02 0.03 -0.04 0.02 3698
0.09 0.28 0.69 -0.69 9.98 0.03 -0.04 0.02 3704
0.11 0.26 0.56 -0.71 9.91 0.02 -0.04 0.02 3710
0.11 0.24 0.61 -0.69 9.98 0.02 -0.04 0.02 3717
0.12 0.22 0.62 -0.67 10.03 0.03 -0.04 0.02 3724
0.10 0.20 0.57 -0.73 9.83 0.03 -0.03 0.02 3730
0.10 0.16 0.63 -0.72 10.02 0.04 -0.04 0.03 3736
0.13 0.16 0.65 -0.72 9.97 0.04 -0.03 0.03 3742
0.12 0.08 0.70 -0.34 9.95 0.04 -0.04 0.03 3748
0.14 0.07 0.66 -0.77 9.98 0.04 -0.04 0.02 3755
0.14 0.09 0.70 -0.71 9.93 0.05 -0.05 0.01 3761
0.18 0.06 0.71 -0.75 10.03 0.04 -0.05 0.01 3768
0.18 0.01 0.70 -0.75 10.03 0.04 -0.06 0.01 3774
0.17 -0.01 0.69 -0.74 10.00 0.04 -0.07 0.00 3780
0.19 0.01 0.66 -0.79 9.97 0.03 -0.07 -0.00 3786
0.21 -0.01 0.71 -0.78 10.05 0.03 -0.07 -0.00 3792
0.22 -0.02 0.64 -0.78 10.02 0.03 -0.08 -0.01 3799
0.27 -0.03 0.67 -0.80 10.00 0.03 -0.07 -0.01 3806
0.27 -0.02 0.63 -0.77 10.05 0.03 -0.07 -0.01 3812
0.28 -0.03 0.63 -0.81 10.08 0.04 -0.06 -0.01 3818
0.36 -0.02 0.66 -0.83 9.98 0.05 -0.06 -0.01 3824
0.37 -0.04 0.59 -0.93 10.03 0.05 -0.06 -0.01 3830
0.41 -0.04 0.68 -0.98 10.08 0.07 -0.05 -0.01 3836
0.48 -0.03 0.64 -0.76 10.04 0.08 -0.05 -0.01 3844
0.53 -0.04 0.67 -0.86 10.05 0.09 -0.05 -0.02 3850
0.60 -0.06 0.67 -0.83 10.08 0.11 -0.05 -0.02 3856
0.62 -0.04 0.71 -0.87 10.12 0.13 -0.05 -0.03 3862
0.66 -0.04 0.68 -0.92 10.17 0.15 -0.04 -0.03 3868
0.69 -0.06 0.70 -0.92 10.19 0.18 -0.04 -0.05 3875
0.74 -0.04 0.75 -0.93 10.25 0.23 -0.03 -0.05 3881
0.80 -0.04 0.78 -1.04 10.30 0.29 -0.03 -0.07 3888
0.84 -0.06 0.78 -1.03 10.44 0.38 -0.02 -0.09 3894
0.95 -0.04 0.80 -1.03 10.68 0.52 -0.01 -0.10 3900
1.02 -0.05 0.80 -1.13 10.86 0.70 0.00 -0.12 3907
1.08 -0.05 0.97 -1.20 11.14 0.90 0.00 -0.13 3913
1.16 -0.05 0.99 -1.27 11.41 1.10 -0.01 -0.15 3919
1.20 -0.05 0.82 -1.37 11.61 1.28 -0.05 -0.17 3926
1.23 -0.07 0.85 -1.48 11.92 1.43 -0.11 -0.17 3932
1.31 -0.07 0.88 -1.58 12.15 1.56 -0.19 -0.17 3939
1.34 -0.07 0.74 -1.74 12.19 1.67 -0.26 -0.17 3945
1.38 -0.05 0.63 -1.67 11.98 1.80 -0.32 -0.15 3951
1.44 -0.07 0.58 -1.65 12.09 1.92 -0.38 -0.14 3957
1.47 -0.07 0.58 -1.96 12.24 2.01 -0.41 -0.12 3964
1.47 -0.05 0.60 -2.02 12.62 2.14 -0.40 -0.13 3971
1.49 -0.06 0.65 -2.19 12.40 2.29 -0.42 -0.12 3977
1.50 -0.08 0.63 -2.19 12.62 2.43 -0.44 -0.12 3983
1.51 -0.06 0.57 -2.41 12.76 2.58 -0.45 -0.14 3990
1.50 -0.07 0.01 -2.63 12.99 2.77 -0.47 -0.14 3996
1.44 -0.04 0.42 -2.51 13.69 3.01 -0.48 -0.15 4002
1.44 -0.06 0.45 -2.79 13.97 3.29 -0.44 -0.13 4008
1.37 -0.06 0.46 -2.93 14.51 3.60 -0.40 -0.13 4015
1.29 -0.05 1.16 -3.19 15.45 3.94 -0.39 -0.16 4022
1.16 -0.05 1.90 -3.71 16.15 4.21 -0.39 -0.27 4028
1.08 -0.03 2.21 -3.98 16.87 4.28 -0.46 -0.39 4034
0.92 -0.04 2.01 -4.05 18.06 4.28 -0.52 -0.45 4040
0.78 -0.03 1.55 -5.48 19.70 4.28 -0.67 -0.52 4047
0.64 -0.03 2.25 -6.90 21.53 4.28 -0.87 -0.61 4054
0.54 -0.03 2.27 -9.22 24.11 4.28 -0.93 -0.67 4060
0.45 -0.03 2.28 -10.90 27.69 4.28 -0.92 -0.74 4066
0.41 -0.04 2.86 -12.52 29.58 4.28 -0.73 -0.73 4073
0.32 -0.02 3.06 -11.86 26.61 4.28 -0.51 -0.77 4079
0.27 -0.01 2.33 -10.27 26.88 4.28 -0.28 -0.81 4085
0.22 -0.02 2.17 -8.76 26.06 4.28 -0.15 -0.86 4091
0.14 -0.01 1.44 -6.34 25.57 4.28 -0.17 -0.90 4099
0.13 -0.01 1.13 -4.59 26.37 4.28 -0.35 -0.93 4105
0.09 -0.01 1.77 -3.13 26.76 4.28 -0.63 -0.99 4111
0.12 -0.01 3.62 -0.45 26.24 4.28 -0.98 -1.02 4117
0.11 -0.01 5.65 2.35 26.21 4.28 -1.30 -1.05 4123
0.06 -0.01 6.05 5.72 26.39 4.28 -1.29 -1.01 4130
0.05 -0.01 6.42 12.08 19.96 4.28 -0.85 -0.92 4136
0.06 -0.01 9.00 15.37 16.09 4.27 -0.34 -1.09 4143
0.05 -0.00 7.50 19.23 -1.96 3.54 -0.07 -1.67 4149
0.06 -0.01 6.34 22.54 6.75 2.38 -0.28 -2.23 4155
0.07 -0.01 5.87 18.77 24.34 0.51 0.40 -2.42 4161
0.06 -0.01 6.74 13.74 25.63 -1.17 1.20 -2.36 4168
0.07 -0.01 4.61 11.42 20.14 -2.19 1.43 -2.24 4174
0.08 -0.01 3.22 11.16 14.28 -2.78 1.22 -2.10 4180
0.06 -0.01 2.23 11.11 10.61 -3.26 0.95 -1.90 4187
0.06 -0.01 2.69 9.88 7.96 -3.60 0.78 -1.68 4193
0.04 -0.00 3.63 8.10 6.44 -3.75 0.68 -1.50 4200
0.04 -0.00 4.17 6.45 5.70 -3.78 0.62 -1.34 4206
0.06 -0.01 4.15 5.44 5.29 -3.76 0.64 -1.19 4212
0.05 -0.01 4.19 4.87 5.39 -3.71 0.72 -1.03 4218
0.05 -0.00 4.14 4.39 5.71 -3.64 0.84 -0.89 4225
0.04 -0.00 4.14 3.92 6.12 -3.58 0.97 -0.73 4231
0.05 -0.01 4.07 3.75 6.92 -3.56 1.08 -0.59 4237
0.05 -0.00 3.96 3.81 7.76 -3.59 1.15 -0.46 4243
0.05 -0.01 3.79 3.82 8.41 -3.68 1.19 -0.33 4249
0.05 -0.00 3.54 3.78 9.04 -3.81 1.23 -0.21 4256
0.05 -0.01 3.25 3.53 9.49 -3.97 1.31 -0.10 4262
0.05 -0.01 3.08 2.94 9.84 -4.11 1.43 0.02 4269
0.05 -0.00 2.83 2.11 10.22 -4.20 1.55 0.13 4275
0.04 -0.00 2.80 1.19 10.86 -4.25 1.65 0.21 4281
0.05 -0.01 2.44 0.48 11.65 -4.28 1.69 0.26 4287
0.05 -0.01 2.09 -0.09 12.43 -4.28 1.73 0.29 4293
0.05 -0.00 1.99 -0.81 12.98 -4.28 1.79 0.29 4300
0.05 -0.00 1.93 -1.62 13.45 -4.28 1.86 0.28 4306
0.05 -0.00 1.82 -2.05 13.97 -4.28 1.95 0.26 4313
0.04 -0.00 1.66 -2.60 14.28 -4.28 2.04 0.22 4319
0.03 -0.00 1.29 -3.19 14.77 -4.28 2.17 0.18 4325
0.05 -0.01 1.15 -4.00 15.14 -4.28 2.30 0.14 4331
0.05 -0.00 0.71 -4.83 15.78 -4.28 2.43 0.11 4338
0.04 -0.00 0.38 -5.60 16.56 -4.26 2.55 0.08 4344
0.05 -0.00 0.01 -6.10 17.20 -4.21 2.62 0.06 4350
0.05 -0.00 -0.39 -6.46 17.54 -4.15 2.65 0.06 4357
0.05 -0.00 -0.87 -6.74 17.84 -4.05 2.67 0.09 4363
0.05 -0.00 -1.37 -7.01 18.21 -3.90 2.65 0.14 4369
0.04 -0.00 -1.97 -7.23 18.83 -3.73 2.57 0.23 4376
0.04 -0.00 -2.45 -7.51 19.10 -3.56 2.43 0.28 4382
0.03 0.00 -2.65 -7.55 19.11 -3.40 2.25 0.39 4388
0.04 -0.00 -2.64 -7.63 19.41 -3.26 2.09 0.49 4395
0.04 -0.00 -2.40 -7.73 19.71 -3.13 1.92 0.59 4401
0.04 -0.00 -2.31 -7.99 20.02 -3.04 1.78 0.67 4407
0.06 -0.01 -2.06 -8.34 20.10 -2.94 1.65 0.75 4414
0.04 -0.00 -1.69 -8.52 19.71 -2.90 1.53 0.81 4420
0.03 -0.00 -1.43 -8.85 19.78 -2.84 1.41 0.87 4426
0.06 -0.01 -0.94 -9.50 20.08 -2.75 1.34 0.94 4432
0.06 -0.01 -0.79 -9.92 19.97 -2.67 1.24 1.00 4439
0.04 -0.00 -0.57 -10.48 20.03 -2.58 1.17 1.06 4445
0.04 0.01 -0.34 -11.17 20.48 -2.52 1.13 1.15 4452
0.04 -0.00 -0.47 -11.96 20.85 -2.51 1.12 1.26 4458
0.04 -0.00 -1.03 -12.85 21.41 -2.54 1.11 1.38 4464
0.05 -0.00 -1.64 -14.08 20.24 -2.64 1.08 1.53 4470
0.04 -0.00 -1.68 -15.04 18.59 -2.77 1.06 1.68 4477
0.04 -0.00 -1.75 -16.48 17.12 -2.92 1.08 1.84 4484
0.05 -0.01 -2.13 -18.49 15.84 -3.02 1.13 2.01 4490
0.04 -0.00 -2.58 -20.89 13.59 -3.01 1.20 2.16 4496
0.04 0.00 -3.38 -23.08 10.96 -2.86 1.26 2.30 4502
0.05 -0.00 -4.56 -24.84 8.40 -2.59 1.35 2.43 4509
0.04 -0.00 -5.71 -26.87 6.40 -2.21 1.46 2.53 4515
0.05 -0.01 -6.62 -29.42 4.89 -1.87 1.42 2.52 4521
0.04 -0.00 -7.66 -31.40 3.31 -1.45 1.19 2.38 4528
0.03 -0.00 -9.18 -34.31 1.52 -1.04 0.93 2.15 4534
0.04 -0.00 -10.11 -39.00 28.67 0.55 0.15 1.84 4541
0.04 -0.00 -7.55 -29.94 -2.89 1.27 0.43 1.60 4547
0.04 -0.00 -10.44 -31.16 2.65 1.86 0.04 1.18 4553
0.06 -0.01 -11.07 -27.32 0.87 2.41 -0.63 0.86 4559
0.04 0.01 -11.99 -29.84 3.23 2.66 -1.65 0.48 4566
0.05 0.02 -7.99 -11.57 0.76 2.84 -2.85 0.04 4573
0.04 0.09 -4.33 2.62 4.45 2.79 -3.43 -0.29 4579
0.04 0.22 1.20 4.93 21.68 3.54 -2.66 -0.27 4585
0.03 0.40 7.40 2.54 17.95 3.53 -1.31 0.07 4591
0.01 0.60 2.97 -2.87 21.04 3.78 -0.65 0.34 4597
0.01 0.79 -4.73 -6.37 23.44 3.89 -0.56 0.40 4604
0.01 0.90 -4.83 -7.20 22.18 3.81 -0.61 0.19 4611
-0.01 1.01 -0.05 -3.14 22.94 3.65 -0.49 -0.02 4617
-0.01 1.04 -0.02 -1.57 20.32 3.18 -0.38 -0.12 4623
0.00 1.10 -0.16 -1.41 16.60 2.74 -0.44 -0.25 4630
-0.00 1.10 1.49 -1.91 13.79 2.56 -0.45 -0.34 4636
-0.00 1.07 2.22 -1.87 13.97 2.60 -0.54 -0.33 4642
0.01 1.05 3.25 -1.97 22.76 2.57 -1.30 -0.29 4648
-0.00 1.02 2.97 -1.91 16.05 1.50 -1.91 -0.13 4655
-0.00 1.03 0.68 -2.16 13.29 0.80 -1.47 0.06 4662
0.01 1.06 0.36 -1.68 12.42 0.40 -0.93 0.09 4668
0.00 1.01 0.07 -1.25 11.17 0.18 -0.57 0.08 4674
0.00 1.07 0.03 -0.98 10.35 0.07 -0.31 0.05 4680
0.00 1.03 0.85 -1.00 10.07 0.02 -0.20 0.03 4686
-0.01 0.99 0.70 -1.02 9.92 0.00 -0.17 0.04 4694
0.02 1.01 0.68 -0.96 10.21 -0.00 -0.15 0.04 4700
0.02 0.98 0.54 -0.91 10.18 -0.01 -0.13 0.04 4706
0.01 0.94 0.53 -0.91 10.06 -0.01 -0.12 0.03 4712
0.03 0.90 0.63 -0.99 10.15 -0.02 -0.11 0.04 4718
0.04 0.87 0.56 -0.91 10.10 -0.02 -0.11 0.03 4725
0.05 0.80 0.50 -0.86 10.09 -0.01 -0.10 0.04 4731
0.06 0.74 0.56 -0.84 10.04 -0.01 -0.08 0.04 4738
0.06 0.71 0.56 -0.83 10.13 -0.00 -0.04 0.04 4744
0.05 0.72 0.57 -0.89 10.08 0.00 -0.06 0.04 4750
0.07 0.67 0.61 -0.82 10.05 0.01 -0.05 0.04 4756
0.08 0.56 0.65 -0.82 10.16 0.01 -0.04 0.04 4763
0.08 0.50 0.66 -0.86 10.05 0.02 -0.04 0.04 4769
0.11 0.47 0.62 -0.83 9.94 0.02 -0.03 0.04 4775
0.13 0.42 0.58 -0.86 9.99 0.03 -0.04 0.05 4782
0.14 0.38 0.64 -0.81 10.03 0.03 -0.03 0.04 4788
0.13 0.31 0.61 -0.83 10.04 0.03 -0.03 0.04 4795
0.13 0.30 0.62 -0.85 9.94 0.04 -0.03 0.04 4801
0.15 0.27 0.74 -0.87 9.99 0.04 -0.03 0.04 4807
0.15 0.24 0.70 -0.84 10.01 0.04 -0.04 0.03 4813
0.16 0.17 0.69 -0.93 9.97 0.04 -0.04 0.03 4819
0.17 0.14 0.72 -0.89 10.04 0.04 -0.05 0.02 4826
0.19 0.17 0.70 -0.88 9.97 0.04 -0.05 0.02 4832
0.22 0.09 0.65 -0.82 10.14 0.04 -0.05 0.02 4839
0.22 0.05 0.64 -0.86 10.03 0.04 -0.05 0.02 4845
0.23 0.03 0.57 -0.88 9.94 0.05 -0.04 0.02 4851
0.25 0.02 0.48 -0.88 9.96 0.05 -0.04 0.02 4857
0.26 0.00 0.55 -0.93 10.02 0.05 -0.03 0.02 4864
0.25 -0.01 0.62 -0.83 9.93 0.05 -0.03 0.03 4870
0.26 -0.00 0.65 -0.92 10.03 0.06 -0.02 0.03 4877
0.29 -0.02 0.73 -0.93 10.05 0.06 -0.02 0.03 4883
0.29 -0.03 0.73 -1.45 10.00 0.06 -0.01 0.03 4889
0.30 -0.02 0.68 -0.95 9.97 0.07 -0.02 0.03 4895
0.34 -0.02 0.66 -0.96 10.04 0.08 -0.02 0.03 4901
0.35 -0.04 0.74 -0.96 9.96 0.08 -0.01 0.02 4908
0.37 -0.02 0.67 -0.94 10.08 0.08 -0.02 0.02 4914
0.40 -0.03 0.70 -1.00 9.99 0.08 -0.02 0.02 4921
0.41 -0.03 0.69 -0.94 10.02 0.08 -0.02 0.02 4927
0.43 -0.04 0.63 -0.99 9.98 0.08 -0.02 0.01 4933
0.43 -0.03 0.65 -1.02 9.98 0.09 -0.02 0.01 4939
0.47 -0.04 0.72 -1.04 9.95 0.09 -0.01 0.01 4945
0.45 -0.04 0.66 -1.03 9.95 0.09 -0.01 0.00 4952
0.45 -0.03 0.64 -1.00 9.98 0.09 -0.01 0.00 4958
0.50 -0.04 0.67 -1.04 10.03 0.09 -0.01 -0.00 4965
0.50 -0.03 0.65 -1.03 9.98 0.09 -0.01 -0.00 4971
0.54 -0.05 0.68 -1.08 10.00 0.10 -0.01 -0.00 4977
0.57 -0.03 0.68 -1.04 9.99 0.10 -0.01 -0.01 4983
0.61 -0.04 0.70 -1.05 10.00 0.12 -0.00 -0.01 4989
0.64 -0.05 0.69 -1.08 10.02 0.12 -0.00 -0.01 4996
0.68 -0.04 0.73 -1.07 10.04 0.13 0.00 -0.02 5003
0.71 -0.05 0.68 -1.10 10.06 0.15 0.01 -0.01 5009
0.70 -0.06 0.72 -1.22 10.04 0.17 0.02 -0.02 5015
0.73 -0.04 0.80 -0.75 9.98 0.21 0.03 -0.03 5021
0.77 -0.04 0.63 -1.15 10.21 0.26 0.05 -0.02 5027
0.81 -0.05 0.68 -1.18 10.24 0.32 0.06 -0.02 5035
0.83 -0.03 0.79 -1.28 10.41 0.39 0.08 -0.02 5041
0.85 -0.05 0.79 -1.32 10.38 0.50 0.09 -0.03 5047
0.87 -0.05 0.73 -1.17 10.80 0.56 0.10 -0.04 5053
0.89 -0.03 0.86 -1.41 10.61 0.67 0.11 -0.05 5059
0.90 -0.05 0.87 -1.59 10.47 0.76 0.07 -0.06 5066
0.93 -0.04 0.11 -1.80 11.08 0.82 0.09 -0.07 5072
0.98 -0.04 0.94 -1.40 10.80 0.91 0.06 -0.07 5079
1.02 -0.04 1.05 -2.09 11.39 0.99 0.02 -0.09 5085
1.07 -0.05 0.97 -1.73 11.28 1.11 -0.05 -0.08 5091
1.13 -0.05 0.87 -1.80 11.61 1.21 -0.12 -0.08 5098
1.19 -0.05 0.89 -1.86 11.65 1.32 -0.17 -0.08 5104
1.24 -0.06 0.90 -1.96 11.44 1.43 -0.20 -0.09 5110
1.30 -0.06 0.86 -2.06 11.75 1.56 -0.23 -0.09 5116
1.31 -0.06 0.78 -2.15 11.99 1.69 -0.26 -0.09 5124
1.36 -0.05 0.80 -2.21 11.97 1.83 -0.28 -0.10 5130
1.40 -0.06 0.94 -2.44 12.12 1.98 -0.30 -0.11 5136
1.43 -0.06 0.89 -2.59 12.29 2.14 -0.32 -0.13 5142
1.44 -0.06 0.93 -2.57 12.94 2.32 -0.36 -0.14 5148
1.43 -0.06 1.16 -2.68 12.52 2.52 -0.36 -0.15 5155
1.38 -0.06 1.05 -2.80 13.03 2.74 -0.36 -0.18 5161
1.38 -0.06 1.05 -2.99 13.28 2.97 -0.36 -0.20 5168
1.38 -0.07 0.47 -2.94 13.86 3.21 -0.36 -0.22 5174
1.31 -0.03 0.35 -3.21 14.46 3.51 -0.31 -0.21 5181
1.23 -0.05 1.04 -3.43 14.79 3.83 -0.31 -0.22 5187
1.15 -0.05 2.04 -3.73 15.34 4.14 -0.32 -0.28 5193
1.04 -0.05 2.21 -4.20 15.96 4.28 -0.34 -0.39 5199
0.87 -0.05 1.73 -4.40 16.31 4.28 -0.40 -0.48 5207
0.72 -0.03 1.99 -4.78 20.56 4.28 -0.47 -0.54 5213
0.60 -0.03 2.06 -7.06 20.74 4.28 -0.56 -0.55 5219
0.50 -0.02 2.45 -9.33 23.59 4.28 -0.60 -0.60 5225
0.46 -0.01 2.35 -11.98 27.63 4.28 -0.56 -0.60 5231
0.37 -0.02 2.27 -13.74 30.01 4.28 -0.31 -0.55 5238
0.30 -0.02 2.59 -12.20 27.59 4.28 -0.01 -0.56 5244
0.29 -0.03 1.80 -11.10 27.21 4.28 0.20 -0.57 5251
0.20 -0.02 1.90 -9.36 25.00 4.28 0.31 -0.58 5257
0.19 -0.01 -0.15 -7.19 25.10 4.28 0.34 -0.62 5264
0.10 -0.01 -0.56 -6.13 28.12 4.28 0.08 -0.67 5270
0.06 -0.01 0.35 -5.04 29.09 4.28 -0.37 -0.72 5276
0.09 0.00 3.14 -2.16 28.14 4.28 -0.79 -0.77 5282
0.08 -0.01 5.80 1.83 27.10 4.28 -1.13 -0.79 5288
0.08 -0.01 6.18 4.57 28.49 4.28 -1.17 -0.74 5296
0.06 0.00 6.02 10.80 24.33 4.28 -0.69 -0.61 5302
0.05 -0.00 9.59 17.67 16.31 4.28 0.02 -0.74 5308
0.04 -0.00 6.07 18.82 1.05 3.55 0.44 -1.32 5314
0.05 -0.00 4.92 23.00 0.10 2.42 0.12 -2.05 5320
0.05 -0.00 4.46 18.38 20.00 0.79 0.47 -2.37 5326
0.03 -0.00 4.91 14.00 26.34 -0.84 1.13 -2.38 5334
0.04 -0.00 4.29 11.53 20.32 -1.99 1.49 -2.38 5340
0.05 -0.01 2.56 11.10 11.92 -2.62 1.37 -2.38 5346
0.05 -0.01 1.60 11.38 11.57 -3.03 1.13 -2.29 5352
0.07 -0.00 1.53 10.42 9.11 -3.41 1.00 -2.14 5359
0.07 -0.01 2.17 8.56 7.38 -3.64 0.93 -1.97 5365
0.04 -0.00 2.76 6.77 6.70 -3.69 0.85 -1.82 5371
0.05 0.00 2.73 5.54 6.61 -3.70 0.78 -1.67 5378
0.04 -0.00 2.53 5.03 6.55 -3.68 0.75 -1.53 5384
0.05 -0.00 2.36 4.58 6.47 -3.64 0.75 -1.37 5390
0.03 -0.00 2.44 4.24 7.14 -3.58 0.80 -1.23 5396
0.05 0.00 2.57 3.81 7.62 -3.54 0.86 -1.08 5402
0.04 -0.00 2.81 3.43 7.97 -3.56 0.91 -0.95 5408
0.04 -0.00 3.01 3.16 8.43 -3.63 0.96 -0.86 5415
0.03 -0.00 3.15 2.83 9.22 -3.77 1.00 -0.78 5422
0.04 -0.00 3.15 2.45 10.19 -3.91 1.07 -0.71 5428
0.03 -0.00 3.14 2.01 11.09 -4.08 1.16 -0.63 5434
0.04 -0.00 3.03 1.69 11.74 -4.20 1.30 -0.56 5440
0.04 0.00 2.98 1.18 12.29 -4.27 1.45 -0.46 5446
0.04 -0.00 2.89 0.67 12.65 -4.28 1.57 -0.38 5452
0.04 -0.00 2.64 0.07 12.86 -4.28 1.66 -0.31 5459
0.05 -0.00 2.50 -0.59 12.83 -4.28 1.75 -0.25 5466
0.05 -0.01 2.33 -1.35 12.86 -4.28 1.83 -0.19 5472
0.04 -0.00 2.10 -2.08 13.00 -4.28 1.94 -0.12 5478
0.04 -0.00 1.77 -2.86 13.58 -4.28 2.04 -0.07 5484
0.05 -0.01 1.54 -3.50 14.12 -4.28 2.12 -0.02 5490
0.05 -0.00 1.41 -4.08 14.66 -4.28 2.22 0.01 5497
0.03 -0.00 1.36 -4.47 15.28 -4.26 2.30 0.02 5504
0.05 -0.00 0.13 -4.59 15.75 -4.21 2.37 0.05 5510
0.05 -0.00 0.85 -5.02 16.20 -4.14 2.43 0.08 5516
0.05 -0.00 0.59 -5.37 16.36 -4.07 2.45 0.09 5522
0.05 -0.00 -0.02 -5.35 16.68 -3.99 2.49 0.12 5528
0.05 -0.00 -0.37 -5.78 17.10 -3.87 2.53 0.19 5535
0.04 -0.00 -0.60 -6.10 17.61 -3.77 2.51 0.26 5541
0.03 0.00 -0.80 -6.36 18.03 -3.62 2.47 0.34 5548
0.05 -0.00 -1.01 -6.64 18.52 -3.47 2.42 0.44 5554
0.05 -0.00 -0.86 -6.67 18.98 -3.31 2.36 0.56 5560
0.06 -0.00 -0.91 -6.67 19.76 -3.18 2.28 0.68 5566
0.06 -0.01 -1.06 -6.79 20.34 -3.10 2.21 0.82 5573
0.04 -0.00 -1.11 -7.22 20.50 -3.05 2.11 0.92 5579
0.05 0.01 -1.33 -7.72 20.80 -3.03 1.97 1.05 5585
0.07 0.00 -1.36 -8.44 20.99 -3.01 1.78 1.18 5592
0.04 -0.00 -1.42 -9.20 21.12 -2.98 1.56 1.31 5598
0.03 -0.00 -1.31 -10.05 21.06 -2.93 1.32 1.43 5605
0.04 -0.00 -1.04 -11.02 20.85 -2.86 1.08 1.55 5611
0.05 -0.00 -0.80 -11.90 20.73 -2.80 0.91 1.65 5617
0.06 -0.00 -0.50 -12.95 20.93 -2.72 0.81 1.75 5623
0.05 -0.01 -0.57 -14.26 21.28 -2.68 0.79 1.85 5629
0.03 -0.00 -0.78 -15.57 21.14 -2.70 0.84 1.95 5637
0.05 -0.01 -1.29 -17.14 20.52 -2.79 0.93 2.06 5643
0.05 -0.00 -2.00 -18.60 19.33 -2.91 1.04 2.18 5649
0.03 -0.00 -3.57 -20.09 17.68 -3.05 1.25 2.31 5655
0.07 -0.01 -3.63 -22.60 15.45 -3.12 1.46 2.39 5662
0.05 -0.01 -4.52 -25.48 12.64 -3.09 1.44 2.42 5668
0.04 -0.00 -5.28 -27.97 9.50 -2.93 1.27 2.41 5675
0.06 -0.01 -5.96 -29.98 6.45 -2.63 1.11 2.36 5681
0.05 -0.00 -6.44 -32.18 2.67 -2.25 1.05 2.26 5687
0.04 -0.00 -6.84 -34.03 1.50 -1.78 1.09 2.09 5693
0.05 -0.01 -7.51 -34.58 0.44 -1.27 1.14 1.82 5700
0.04 -0.00 -8.26 -33.23 0.70 -0.74 1.11 1.48 5706
0.04 -0.00 -10.88 -48.65 3.60 0.21 0.63 1.09 5712
0.06 -0.01 -9.35 -31.03 -6.04 2.17 0.43 0.85 5719
0.05 -0.01 -11.50 -26.60 0.65 2.47 -0.11 0.54 5725
0.04 -0.00 -10.77 -22.96 2.43 2.92 -1.23 0.22 5732
0.05 0.01 -7.56 -22.89 3.43 2.91 -2.53 -0.06 5738
0.04 0.02 -2.16 4.68 3.29 2.78 -3.55 -0.42 5744
0.03 0.15 0.02 0.99 12.89 2.68 -3.23 -0.37 5750
0.04 0.38 7.97 9.03 16.71 3.24 -1.65 0.15 5756
0.03 0.52 5.63 -2.71 16.51 3.64 -0.57 0.59 5764
0.01 0.75 -5.53 -5.98 25.24 4.14 -0.61 0.55 5770
0.01 0.96 -7.73 -5.91 22.12 4.20 -0.89 0.26 5776
-0.01 1.12 -0.05 -4.84 24.13 4.18 -0.92 -0.03 5782
-0.01 1.19 -0.06 -2.39 23.03 3.79 -0.44 -0.07 5789
-0.01 1.26 -1.96 -2.10 19.87 3.14 -0.36 -0.24 5795
-0.02 1.23 0.47 -2.43 16.69 2.81 -0.52 -0.49 5801
0.01 1.10 3.94 -2.00 18.41 2.79 -0.86 -0.53 5808
0.00 1.11 3.85 -2.01 21.28 1.80 -2.03 -0.31 5814
0.01 1.05 2.48 -2.47 13.64 0.93 -1.65 0.05 5821
0.00 1.08 -0.68 -2.22 13.18 0.47 -1.06 0.17 5827
-0.01 1.07 -0.23 -1.23 11.94 0.20 -0.57 0.13 5833
0.00 1.05 -0.10 -0.88 10.85 0.06 -0.28 0.06 5839
-0.01 1.04 0.49 -0.98 10.30 0.01 -0.18 0.03 5846
-0.01 1.03 0.99 -1.20 10.12 -0.01 -0.13 0.04 5853
0.01 1.03 0.71 -1.17 10.71 -0.01 -0.09 0.06 5859
0.01 1.00 1.22 -0.77 9.99 -0.01 -0.08 0.05 5865
0.00 1.00 0.61 -0.76 10.04 -0.01 -0.08 0.04 5871
0.01 1.01 0.71 -0.71 10.04 -0.02 -0.07 0.03 5877
0.01 0.99 0.77 -0.69 10.01 -0.01 -0.06 0.03 5884
0.01 0.94 0.70 -0.68 10.09 -0.01 -0.05 0.03 5891
0.01 0.89 0.72 -0.71 10.04 -0.00 -0.05 0.03 5897
-0.00 0.82 0.69 -0.73 10.03 0.00 -0.05 0.04 5903
-0.00 0.76 0.68 -0.68 10.06 0.01 -0.05 0.03 5909
0.02 0.69 0.74 -0.61 10.08 0.01 -0.04 0.04 5915
0.04 0.65 0.75 -0.69 9.98 0.02 -0.05 0.04 5922
0.05 0.54 0.75 -0.73 10.09 0.02 -0.05 0.03 5928
0.07 0.53 0.73 -0.72 10.00 0.02 -0.05 0.03 5935
0.09 0.43 0.70 -0.77 10.02 0.03 -0.05 0.03 5941
0.09 0.41 0.69 -0.70 10.03 0.03 -0.04 0.03 5947
0.09 0.34 0.68 -0.67 10.09 0.04 -0.04 0.03 5954
0.11 0.31 0.84 -0.88 10.11 0.04 -0.02 0.03 5960
0.12 0.26 0.69 -0.73 10.00 0.05 -0.02 0.04 5966
0.13 0.23 0.75 -0.71 10.03 0.05 -0.02 0.03 5972
0.15 0.21 0.77 -0.71 9.99 0.05 -0.02 0.03 5979
0.17 0.12 0.78 -0.69 9.85 0.05 -0.02 0.02 5985
0.16 0.15 0.81 -0.74 10.00 0.05 -0.03 0.02 5992
0.18 0.09 0.76 -0.70 9.87 0.05 -0.03 0.01 5998
0.22 0.08 0.80 -0.78 9.98 0.05 -0.03 0.01 6004
0.24 0.05 0.77 -0.92 10.03 0.05 -0.02 0.01 6010
0.26 0.05 0.76 -0.80 10.04 0.05 -0.02 0.01 6017
0.26 0.03 0.71 -0.78 10.03 0.05 -0.02 0.01 6023
0.26 -0.00 0.71 -0.65 10.07 0.05 -0.01 0.01 6030
0.26 0.02 0.72 -0.81 10.00 0.05 -0.01 0.01 6036
0.28 -0.01 0.74 -0.80 10.00 0.05 -0.00 0.01 6042
0.31 -0.02 0.76 -0.80 10.00 0.05 0.00 0.01 6048
0.31 -0.01 0.74 -0.79 10.07 0.05 0.00 0.02 6054
0.32 -0.02 0.78 -0.84 10.06 0.05 0.01 0.02 6061
0.32 -0.03 0.82 -0.80 9.98 0.05 0.01 0.01 6067
0.31 -0.02 0.86 -0.82 9.96 0.05 0.00 0.01 6074
0.31 -0.03 0.78 -0.69 10.00 0.05 0.00 0.01 6080
0.29 -0.02 0.83 -0.82 9.94 0.05 -0.00 0.01 6086
0.29 -0.03 0.87 -0.85 10.04 0.05 -0.01 0.00 6092
0.29 -0.03 0.86 -0.89 9.98 0.04 -0.01 -0.00 6098
0.32 -0.03 0.87 -0.93 9.99 0.04 -0.02 -0.01 6105
0.31 -0.03 0.84 -0.86 10.06 0.04 -0.02 -0.01 6111
0.31 -0.03 0.79 -0.92 9.94 0.03 -0.03 -0.01 6117
0.36 -0.03 0.82 -0.85 9.99 0.03 -0.03 -0.01 6124
0.40 -0.03 0.82 -0.85 9.98 0.03 -0.03 -0.01 6130
0.41 -0.04 0.83 -0.86 9.97 0.03 -0.04 -0.01 6136
0.40 -0.03 0.80 -0.91 10.01 0.03 -0.04 -0.01 6142
0.42 -0.03 0.81 -0.91 9.98 0.03 -0.04 -0.01 6149
0.42 -0.04 0.80 -0.91 9.97 0.03 -0.04 -0.01 6155
0.45 -0.03 0.82 -0.90 9.99 0.03 -0.05 -0.01 6161
0.48 -0.02 0.79 -0.87 10.02 0.04 -0.05 -0.02 6168
0.49 -0.03 0.82 -0.91 10.02 0.04 -0.05 -0.02 6174
0.52 -0.03 0.78 -0.92 10.02 0.05 -0.05 -0.02 6180
0.57 -0.03 0.80 -0.91 9.98 0.05 -0.05 -0.02 6187
0.59 -0.04 0.84 -0.91 10.06 0.07 -0.05 -0.03 6193
0.63 -0.04 0.85 -0.95 10.04 0.08 -0.05 -0.03 6200
0.68 -0.02 0.87 -0.94 10.03 0.09 -0.06 -0.04 6206
0.74 -0.05 0.89 -1.00 10.06 0.11 -0.05 -0.05 6212
0.80 -0.05 0.90 -0.99 10.06 0.13 -0.06 -0.06 6218
0.84 -0.03 0.90 -0.96 10.15 0.17 -0.05 -0.07 6224
0.90 -0.05 0.96 -1.04 10.18 0.22 -0.04 -0.09 6232
0.97 -0.04 0.97 -1.02 10.47 0.30 -0.00 -0.11 6238
1.08 -0.06 0.90 -1.07 10.72 0.41 -0.02 -0.12 6244
1.16 -0.06 0.86 -1.18 10.84 0.58 -0.01 -0.12 6250
1.18 -0.06 0.75 -1.17 11.40 0.78 -0.01 -0.12 6256
1.24 -0.06 0.69 -1.83 11.65 1.01 -0.03 -0.12 6263
1.30 -0.07 0.80 -1.42 11.69 1.23 -0.08 -0.11 6269
1.38 -0.07 0.74 -1.49 11.94 1.37 -0.14 -0.08 6276
1.43 -0.06 0.87 -1.47 11.96 1.49 -0.22 -0.07 6282
1.47 -0.07 0.80 -1.59 12.87 1.62 -0.27 -0.06 6288
1.49 -0.06 0.87 -1.61 12.50 1.77 -0.28 -0.05 6295
1.54 -0.06 0.85 -1.73 12.43 1.93 -0.29 -0.05 6301
1.56 -0.06 0.70 -1.88 12.28 2.07 -0.31 -0.06 6307
1.60 -0.07 0.83 -1.93 12.03 2.21 -0.29 -0.06 6313
1.56 -0.07 0.72 -2.13 12.11 2.35 -0.30 -0.07 6321
1.59 -0.05 0.83 -2.36 12.31 2.51 -0.30 -0.08 6327
1.59 -0.06 -0.37 -3.27 13.03 2.68 -0.28 -0.10 6333
1.56 -0.07 1.06 -2.62 12.67 2.88 -0.28 -0.11 6339
1.50 -0.05 1.12 -2.72 13.04 3.11 -0.27 -0.14 6346
1.45 -0.06 1.00 -2.93 14.04 3.35 -0.25 -0.17 6352
1.37 -0.06 0.85 -2.99 13.94 3.61 -0.24 -0.19 6359
1.31 -0.06 1.07 -3.25 15.05 3.97 -0.23 -0.21 6365
1.23 -0.06 2.25 -3.28 14.91 4.22 -0.29 -0.28 6371
1.06 -0.03 2.34 -3.86 15.39 4.28 -0.32 -0.38 6378
0.91 -0.04 2.28 -3.91 16.75 4.28 -0.35 -0.50 6384
0.81 -0.04 1.29 -4.91 17.13 4.28 -0.49 -0.58 6390
0.73 -0.03 1.58 -6.35 19.73 4.28 -0.57 -0.61 6396
0.65 -0.04 1.33 -8.07 22.61 4.28 -0.57 -0.62 6404
0.52 -0.03 0.03 -10.59 25.44 4.28 -0.54 -0.59 6410
0.50 -0.03 1.21 -12.86 29.36 4.28 -0.33 -0.48 6416
0.38 -0.02 2.20 -13.31 28.28 4.28 0.03 -0.37 6423
0.33 -0.02 2.14 -12.43 26.35 4.28 0.28 -0.34 6429
0.24 -0.02 1.06 -10.98 26.90 4.28 0.45 -0.37 6435
0.20 -0.02 -0.44 -8.82 26.10 4.28 0.44 -0.38 6441
0.11 -0.01 -0.69 -7.29 27.03 4.28 0.34 -0.43 6448
0.13 -0.01 -0.50 -5.02 28.23 4.28 -0.01 -0.52 6455
0.08 0.00 0.64 -3.23 27.76 4.28 -0.50 -0.56 6461
0.09 -0.01 3.15 0.53 27.67 4.28 -1.06 -0.60 6467
0.06 -0.01 4.35 3.04 29.93 4.28 -1.38 -0.54 6473
0.08 0.01 4.26 8.38 27.49 4.28 -1.20 -0.42 6479
0.05 -0.01 9.20 16.27 22.01 4.26 -0.72 -0.41 6486
0.04 -0.00 6.35 20.06 10.74 3.40 -0.16 -0.93 6493
0.05 -0.01 6.99 24.74 -7.59 2.31 -0.18 -1.82 6499
0.04 -0.00 5.06 19.54 15.11 1.18 0.21 -2.38 6505
0.02 -0.00 6.07 14.19 27.40 -0.43 1.18 -2.51 6511
0.05 -0.00 4.74 12.26 22.67 -1.77 1.82 -2.54 6518
0.05 -0.01 2.82 12.33 16.05 -2.44 1.86 -2.57 6524
0.07 -0.01 1.29 12.68 11.67 -2.83 1.67 -2.51 6531
0.08 -0.01 1.30 11.55 9.54 -3.25 1.40 -2.35 6537
0.06 -0.01 1.44 9.31 7.49 -3.60 1.16 -2.15 6543
0.04 -0.00 1.93 8.13 7.04 -3.79 0.91 -1.99 6549
0.05 -0.01 2.20 6.81 7.25 -3.89 0.69 -1.82 6555
0.05 -0.00 2.22 5.90 7.05 -3.97 0.52 -1.63 6562
0.05 -0.00 2.73 5.01 7.02 -4.00 0.42 -1.42 6568
0.04 -0.00 2.71 4.24 7.40 -3.99 0.38 -1.21 6575
0.05 -0.00 3.18 3.60 8.12 -3.97 0.36 -0.99 6581
0.06 -0.01 3.58 3.20 8.67 -3.97 0.37 -0.82 6587
0.05 -0.00 3.94 3.38 9.19 -4.02 0.39 -0.64 6593
0.03 -0.00 4.01 3.34 9.47 -4.10 0.47 -0.48 6599
0.05 0.00 4.05 2.81 9.80 -4.18 0.63 -0.35 6605
0.06 -0.01 4.11 1.98 10.24 -4.25 0.83 -0.24 6611
0.05 -0.01 4.02 0.97 10.89 -4.28 1.02 -0.16 6619
0.05 -0.01 4.01 0.25 11.59 -4.28 1.17 -0.10 6625
0.07 -0.01 4.12 -0.46 12.33 -4.28 1.33 -0.07 6631
0.05 -0.01 3.82 -1.27 13.43 -4.28 1.47 -0.05 6637
0.04 -0.00 3.38 -2.05 13.30 -4.28 1.65 -0.03 6643
0.05 -0.00 2.80 -2.74 13.69 -4.28 1.81 -0.01 6649
0.04 -0.00 2.19 -3.32 13.97 -4.28 1.95 0.03 6657
0.04 -0.00 1.74 -3.94 14.19 -4.28 2.05 0.06 6663
0.04 -0.00 1.52 -4.54 14.74 -4.28 2.10 0.08 6669
0.05 -0.01 1.31 -5.15 15.30 -4.28 2.12 0.07 6675
0.04 -0.00 0.28 -5.69 16.94 -4.28 2.15 0.08 6681
0.04 -0.00 0.37 -6.45 16.72 -4.24 2.17 0.08 6687
0.05 -0.01 0.59 -6.28 17.77 -4.19 2.14 0.08 6693
0.04 -0.00 0.07 -6.38 17.36 -4.12 2.16 0.07 6701
0.04 -0.00 -0.07 -6.41 17.02 -4.05 2.21 0.10 6707
0.04 0.01 -0.34 -6.28 17.09 -3.96 2.23 0.15 6713
0.04 -0.00 -0.56 -6.26 17.33 -3.85 2.19 0.22 6719
0.03 -0.00 -0.74 -6.17 17.87 -3.72 2.14 0.31 6725
0.03 0.00 -0.84 -6.28 18.54 -3.62 2.08 0.42 6732
0.04 -0.00 -0.96 -6.50 19.03 -3.49 2.06 0.53 6738
0.03 -0.00 -1.08 -6.78 19.54 -3.39 2.05 0.64 6745
0.06 -0.00 -1.21 -6.99 19.60 -3.29 2.02 0.74 6751
0.05 -0.01 -1.30 -7.25 19.63 -3.21 1.96 0.86 6757
0.03 -0.00 -1.49 -7.52 19.02 -3.12 1.86 0.93 6763
0.05 0.00 -1.42 -8.05 19.23 -3.02 1.73 1.04 6770
0.05 -0.01 -1.43 -8.71 18.92 -2.89 1.54 1.16 6776
0.04 -0.00 -1.20 -9.64 18.75 -2.72 1.33 1.28 6782
0.06 -0.01 -1.16 -10.60 19.09 -2.51 1.06 1.39 6789
0.05 -0.00 -1.43 -11.50 19.62 -2.31 0.75 1.49 6795
0.04 -0.00 -1.78 -12.41 20.40 -2.15 0.43 1.58 6802
0.06 -0.01 -1.91 -13.48 21.11 -2.13 0.10 1.65 6808
0.05 -0.00 -1.83 -14.52 21.04 -2.16 -0.22 1.71 6814
0.05 -0.00 -1.06 -15.57 20.28 -2.28 -0.44 1.76 6820
0.05 -0.00 -0.34 -16.56 18.68 -2.43 -0.44 1.83 6827
0.05 -0.00 0.20 -17.62 16.76 -2.57 -0.23 1.92 6834
0.04 -0.00 0.38 -18.60 14.32 -2.69 0.23 2.05 6840
0.05 -0.01 -0.03 -19.65 12.48 -2.76 1.03 2.23 6846
0.06 -0.01 -0.68 -22.59 11.47 -2.77 1.82 2.34 6852
0.05 0.00 -2.58 -24.61 10.28 -2.71 2.18 2.42 6859
0.05 -0.00 -5.24 -27.18 8.51 -2.53 2.20 2.45 6865
0.03 -0.00 -7.39 -29.39 6.08 -2.20 2.01 2.45 6872
0.04 -0.00 -8.33 -30.83 3.24 -1.79 1.75 2.37 6878
0.05 -0.00 -8.88 -31.65 0.91 -1.32 1.42 2.17 6884
0.04 -0.00 -9.16 -31.27 0.53 -0.82 1.06 1.84 6890
0.04 0.01 -6.84 -47.28 7.95 0.11 0.54 1.34 6897
0.05 -0.01 -6.04 -30.38 -5.53 2.03 0.71 0.82 6903
0.04 -0.00 -10.47 -27.15 -0.15 2.22 0.43 0.36 6909
0.05 -0.00 -9.18 -24.45 2.86 2.75 -0.44 -0.13 6916
0.04 -0.00 -9.71 -24.49 4.96 2.83 -1.72 -0.51 6922
0.04 0.01 -2.71 1.28 3.99 2.87 -2.75 -0.95 6929
0.04 0.12 -1.35 2.02 9.30 2.56 -3.21 -1.08 6935
0.05 0.24 7.73 10.50 16.30 3.01 -2.17 -0.68 6941
0.02 0.43 11.79 -0.04 13.09 3.15 -0.79 -0.15 6947
0.03 0.57 3.39 -3.12 22.30 3.75 -0.46 0.13 6953
0.03 0.77 -5.53 -5.35 21.79 3.92 -0.67 0.10 6961
0.00 0.93 0.39 -5.22 21.27 3.97 -0.86 -0.08 6967
-0.01 1.04 3.29 -3.18 22.55 3.86 -0.63 -0.01 6973
-0.01 1.05 -0.87 -1.85 19.97 3.36 -0.34 0.03 6979
-0.00 1.15 -0.97 -1.99 16.41 2.92 -0.40 -0.14 6986
0.01 1.01 0.86 -2.30 15.28 2.78 -0.49 -0.30 6992
-0.01 0.97 1.23 -1.81 15.58 2.72 -0.58 -0.34 6999
0.02 0.98 2.40 -2.53 27.17 2.08 -1.59 -0.31 7005
-0.00 1.01 3.40 -2.21 12.75 0.81 -1.48 -0.06 7012
0.01 1.00 0.52 -2.11 12.56 0.41 -0.97 0.11 7018
0.00 1.02 0.27 -1.57 11.36 0.17 -0.58 0.13 7024
-0.01 1.03 0.06 -0.88 10.57 0.05 -0.28 0.09 7030
0.00 1.02 0.26 -0.88 10.27 -0.00 -0.15 0.05 7036
0.00 1.06 0.05 -1.49 10.01 -0.03 -0.11 0.04 7044
0.00 1.10 0.82 -1.17 10.21 -0.04 -0.08 0.05 7050
-0.00 1.11 0.66 -0.86 10.01 -0.04 -0.07 0.05 7056
-0.00 1.13 0.47 -0.74 10.08 -0.04 -0.06 0.04 7062
-0.00 1.09 0.55 -0.72 10.04 -0.04 -0.05 0.03 7068
0.01 1.09 0.71 -0.69 9.99 -0.03 -0.05 0.03 7074
0.00 1.08 0.68 -0.67 9.90 -0.02 -0.05 0.03 7081
-0.00 1.02 0.71 -0.67 9.94 -0.02 -0.05 0.03 7088
0.00 0.99 0.71 -0.68 9.92 -0.01 -0.05 0.03 7094
0.02 0.94 0.71 -0.71 9.99 -0.00 -0.05 0.04 7100
0.01 0.89 0.66 -0.72 10.06 -0.00 -0.05 0.04 7106
0.00 0.83 0.68 -0.66 10.03 0.00 -0.05 0.04 7112
0.05 0.79 0.67 -0.65 9.92 0.01 -0.05 0.04 7118
0.05 0.74 0.68 -0.68 10.12 0.02 -0.06 0.04 7126
0.06 0.72 0.71 -0.70 10.06 0.02 -0.06 0.04 7132
0.05 0.67 0.67 -0.72 10.04 0.02 -0.05 0.04 7138
0.06 0.63 0.63 -0.72 10.01 0.02 -0.05 0.04 7144
0.06 0.56 0.64 -0.72 10.03 0.02 -0.04 0.04 7150
0.09 0.53 0.68 -0.68 10.01 0.02 -0.03 0.04 7157
0.09 0.43 0.68 -0.73 10.03 0.02 -0.03 0.04 7163
0.08 0.39 0.70 -0.76 10.00 0.03 -0.03 0.04 7170
0.11 0.33 0.73 -0.71 9.98 0.02 -0.03 0.03 7176
0.12 0.30 0.83 -0.85 10.09 0.02 -0.03 0.03 7182
0.11 0.23 0.76 -0.73 9.94 0.02 -0.04 0.03 7188
0.12 0.22 0.74 -0.74 10.04 0.02 -0.04 0.02 7195
0.14 0.22 0.68 -0.72 9.95 0.02 -0.05 0.02 7201
0.14 0.18 1.04 -0.80 10.06 0.02 -0.04 0.02 7207
0.14 0.15 0.68 -0.75 9.96 0.02 -0.04 0.01 7214
0.16 0.12 0.68 -0.71 9.99 0.02 -0.03 0.02 7220
0.16 0.12 0.66 -0.79 9.94 0.03 -0.03 0.02 7226
0.16 0.08 0.66 -0.74 10.00 0.03 -0.03 0.02 7232
0.17 0.08 0.66 -0.72 10.02 0.03 -0.03 0.02 7239
0.17 0.06 0.69 -0.77 9.97 0.03 -0.02 0.02 7245
0.17 0.04 0.70 -0.75 10.03 0.03 -0.02 0.02 7251
0.18 0.05 0.71 -0.78 9.97 0.03 -0.02 0.02 7258
0.21 0.04 0.73 -0.80 10.04 0.03 -0.02 0.02 7264
0.20 0.01 0.70 -0.83 9.99 0.03 -0.02 0.02 7270
0.21 0.01 0.69 -0.90 9.98 0.02 -0.03 0.01 7276
0.22 -0.00 0.71 -0.83 9.93 0.02 -0.03 0.01 7283
0.17 -0.01 0.72 -0.80 10.00 0.01 -0.04 0.01 7289
0.24 -0.02 0.74 -0.80 9.97 0.01 -0.04 0.01 7296
0.23 -0.02 0.77 -0.80 9.97 0.01 -0.05 0.01 7302
0.26 -0.03 0.73 -0.81 10.00 0.01 -0.05 0.00 7308
0.28 -0.03 0.70 -0.84 10.04 0.01 -0.05 0.00 7314
0.27 -0.03 0.71 -0.80 10.02 0.01 -0.05 -0.00 7320
0.27 -0.02 0.73 -0.82 10.01 0.01 -0.05 0.00 7326
0.30 -0.02 0.67 -0.82 10.02 0.01 -0.04 -0.00 7333
0.33 -0.03 0.78 -0.83 9.96 0.02 -0.04 -0.00 7340
0.32 -0.03 0.72 -0.80 9.97 0.02 -0.04 -0.00 7346
0.38 -0.02 0.70 -0.86 9.97 0.02 -0.04 -0.00 7352
0.41 -0.04 0.75 -1.07 10.01 0.02 -0.04 0.00 7358
0.41 -0.04 0.73 -0.85 10.00 0.02 -0.04 0.00 7364
0.42 -0.04 0.73 -0.83 10.04 0.02 -0.04 0.00 7370
0.46 -0.03 0.74 -0.82 10.06 0.03 -0.03 0.01 7377
0.48 -0.03 0.74 -0.85 10.05 0.03 -0.03 0.01 7384
0.49 -0.03 0.71 -0.88 10.04 0.04 -0.03 0.00 7390
0.57 -0.04 0.74 -0.88 10.10 0.05 -0.03 0.00 7396
0.59 -0.04 0.75 -0.85 10.05 0.07 -0.02 -0.00 7402
0.61 -0.04 0.80 -0.88 10.11 0.09 -0.02 -0.01 7408
0.67 -0.04 0.79 -0.84 10.13 0.12 -0.01 -0.02 7415
0.70 -0.05 0.79 -0.90 10.15 0.16 -0.01 -0.03 7421
0.76 -0.05 0.84 -0.91 10.27 0.21 0.00 -0.04 7428
0.82 -0.04 0.91 -1.00 10.40 0.29 0.02 -0.07 7434
0.91 -0.05 0.89 -1.08 10.40 0.38 0.03 -0.09 7440
0.95 -0.05 0.93 -1.17 10.88 0.52 0.03 -0.11 7447
1.03 -0.05 0.85 -1.13 11.28 0.74 0.05 -0.12 7453
1.10 -0.07 0.79 -1.16 11.72 1.08 0.05 -0.11 7459
1.18 -0.06 0.98 -1.36 11.96 1.34 0.02 -0.12 7465
1.23 -0.06 1.03 -1.49 12.26 1.56 -0.03 -0.14 7473
1.31 -0.06 1.01 -1.65 12.29 1.70 -0.12 -0.13 7479
1.36 -0.05 0.99 -1.60 12.78 1.83 -0.28 -0.14 7485
1.44 -0.06 0.99 -1.71 13.31 1.97 -0.37 -0.14 7491
1.48 -0.06 0.96 -1.83 13.22 2.16 -0.37 -0.15 7497
1.52 -0.06 1.17 -1.99 12.90 2.33 -0.39 -0.15 7504
1.50 -0.07 0.79 -1.98 12.67 2.50 -0.42 -0.15 7511
1.52 -0.05 0.56 -1.88 13.32 2.62 -0.46 -0.15 7517
1.55 -0.07 0.64 -2.16 12.90 2.79 -0.48 -0.15 7523
1.57 -0.06 0.54 -2.22 13.19 2.99 -0.46 -0.14 7530
1.54 -0.05 0.99 -2.65 13.63 3.24 -0.44 -0.16 7536
1.53 -0.06 1.03 -2.74 14.00 3.50 -0.42 -0.18 7542
1.43 -0.06 0.83 -2.82 15.02 3.80 -0.38 -0.20 7548
1.38 -0.07 0.71 -2.91 15.74 4.11 -0.37 -0.22 7556
1.22 -0.06 1.40 -2.99 15.96 4.27 -0.36 -0.25 7562
1.07 -0.02 2.04 -4.10 16.99 4.28 -0.45 -0.34 7568
0.94 -0.03 2.69 -3.99 17.05 4.28 -0.55 -0.47 7574
0.80 -0.04 1.65 -5.32 18.31 4.28 -0.69 -0.59 7580
0.70 -0.03 1.75 -6.09 20.51 4.28 -0.82 -0.66 7587
0.60 -0.04 1.78 -8.38 22.73 4.28 -0.90 -0.70 7593
0.52 -0.03 1.68 -11.29 26.85 4.28 -0.78 -0.69 7600
0.45 -0.03 1.79 -13.34 29.77 4.28 -0.55 -0.64 7606
0.40 -0.03 1.80 -14.96 28.44 4.28 -0.27 -0.59 7613
0.34 -0.03 2.40 -12.03 27.46 4.28 -0.03 -0.59 7619
0.25 -0.02 1.08 -10.02 26.78 4.28 0.14 -0.63 7625
0.19 -0.01 0.01 -7.45 27.19 4.28 0.11 -0.68 7631
0.18 -0.02 -0.86 -5.65 27.38 4.28 -0.19 -0.72 7639
0.12 -0.01 -0.08 -3.53 26.61 4.28 -0.63 -0.75 7645
0.09 0.00 2.15 -0.34 26.51 4.28 -1.07 -0.76 7651
0.09 -0.01 5.35 2.89 26.63 4.28 -1.49 -0.75 7657
0.07 -0.01 6.56 5.17 29.00 4.28 -1.61 -0.70 7663
0.06 0.01 7.29 8.52 26.58 4.28 -1.29 -0.59 7670
0.05 -0.01 7.65 14.19 22.76 4.28 -0.61 -0.61 7676
0.04 -0.00 7.67 17.80 10.90 4.14 0.18 -1.03 7683
0.03 -0.00 8.39 22.80 -4.54 3.32 0.39 -1.58 7689
0.01 -0.00 5.18 22.21 12.81 1.64 0.49 -1.99 7695
0.04 -0.00 5.79 17.81 27.15 -0.38 1.27 -2.00 7702
0.05 -0.01 5.02 14.60 26.12 -1.99 1.73 -1.86 7708
0.05 -0.01 1.83 13.26 18.60 -2.95 1.62 -1.68 7714
0.05 -0.00 0.73 12.30 13.82 -3.58 1.16 -1.43 7720
0.06 -0.01 0.76 10.94 11.69 -4.12 0.79 -1.13 7727
0.05 -0.01 1.54 9.08 9.84 -4.27 0.54 -0.87 7734
0.04 -0.00 2.29 7.09 8.23 -4.28 0.37 -0.68 7740
0.06 -0.00 2.85 5.42 7.95 -4.28 0.22 -0.55 7746
0.05 -0.01 2.89 3.82 7.67 -4.28 0.14 -0.44 7752
0.03 -0.00 2.90 3.73 7.66 -4.28 0.07 -0.36 7758
0.03 -0.00 3.07 3.00 8.05 -4.28 0.06 -0.27 7764
0.05 -0.01 3.51 2.35 8.68 -4.28 0.09 -0.19 7771
0.06 -0.01 3.96 1.91 9.08 -4.27 0.14 -0.15 7777
0.05 -0.00 4.29 1.98 9.35 -4.27 0.21 -0.13 7783
0.04 -0.00 4.22 2.19 9.59 -4.28 0.27 -0.12 7790
0.05 -0.01 4.02 2.17 9.83 -4.28 0.40 -0.13 7796
0.05 -0.00 3.98 1.78 10.29 -4.28 0.59 -0.13 7802
0.05 -0.00 3.84 1.11 10.89 -4.28 0.75 -0.15 7809
0.04 0.01 3.81 0.09 11.74 -4.28 0.95 -0.17 7815
0.05 -0.00 3.78 -0.74 12.31 -4.28 1.10 -0.21 7821
0.04 -0.00 3.59 -1.60 13.15 -4.28 1.21 -0.24 7828
0.05 -0.01 3.35 -2.11 13.45 -4.28 1.31 -0.29 7834
0.05 -0.00 3.05 -2.61 13.61 -4.28 1.41 -0.31 7840
0.04 -0.00 3.56 -3.27 13.92 -4.28 1.49 -0.32 7846
0.04 -0.00 2.81 -4.18 13.91 -4.28 1.59 -0.31 7853
0.05 -0.01 0.29 -3.64 15.54 -4.28 1.65 -0.29 7859
0.05 -0.00 2.71 -4.93 16.54 -4.28 1.84 -0.27 7866
0.05 -0.00 2.17 -5.55 16.73 -4.28 1.87 -0.26 7872
0.07 -0.01 2.58 -6.06 17.19 -4.28 2.00 -0.25 7878
0.04 -0.00 2.27 -6.59 17.77 -4.26 2.10 -0.28 7884
0.04 -0.00 1.66 -6.80 18.04 -4.22 2.23 -0.30 7890
0.05 -0.01 0.96 -7.09 18.35 -4.17 2.36 -0.28 7897
0.05 -0.01 0.42 -7.56 18.68 -4.10 2.42 -0.26 7904
0.04 -0.00 -0.02 -7.96 18.95 -3.99 2.37 -0.21 7910
0.05 0.00 -0.58 -8.11 19.32 -3.85 2.36 -0.12 7916
0.04 -0.00 -0.84 -8.11 19.84 -3.71 2.28 0.02 7922
0.04 -0.00 -1.04 -8.20 19.86 -3.56 2.15 0.12 7928
0.05 -0.00 -0.99 -8.15 20.21 -3.44 2.00 0.25 7934
0.04 -0.00 -0.96 -8.36 20.31 -3.36 1.83 0.39 7942
0.04 -0.00 -1.02 -8.65 20.52 -3.28 1.66 0.53 7948
0.04 -0.00 -0.95 -9.12 20.54 -3.21 1.51 0.66 7954
0.07 -0.01 -0.96 -9.66 20.46 -3.13 1.36 0.80 7960
0.04 -0.00 -0.85 -10.27 20.33 -3.01 1.19 0.92 7966
0.05 -0.00 -0.96 -11.11 19.91 -2.86 1.02 1.04 7972
0.06 -0.01 -6.65 -20.16 33.71 -2.34 0.41 1.25 7980
0.06 -0.01 0.65 -10.15 6.39 -1.50 0.39 1.43 7986
0.05 -0.00 -0.35 -13.04 5.24 -2.06 0.12 1.43 7992
0.06 -0.01 -0.31 -13.01 13.99 -1.95 -0.03 1.46 7998
0.05 -0.01 0.29 -16.18 19.27 -2.34 -0.00 1.54 8004
0.05 -0.00 2.21 -16.63 20.82 -2.54 0.41 1.58 8011
0.05 -0.00 2.54 -18.97 19.97 -2.67 1.04 1.59 8017
0.04 -0.00 1.37 -19.91 17.65 -2.76 1.83 1.70 8024
0.07 -0.01 -0.45 -20.27 13.79 -2.80 2.60 1.92 8030
0.06 -0.01 -3.16 -21.58 10.35 -2.76 3.17 2.21 8037
0.06 -0.01 -6.23 -23.58 8.65 -2.58 3.50 2.55 8043
0.06 -0.01 -9.25 -26.33 8.29 -2.25 3.42 2.86 8049
0.05 -0.01 -11.51 -29.36 7.39 -1.81 2.83 3.03 8055
0.05 -0.01 -13.03 -32.50 5.58 -1.32 1.86 3.04 8061
0.06 -0.01 -13.98 -39.46 13.89 -0.18 0.52 2.83 8069
0.04 -0.00 -11.10 -32.98 -5.17 0.69 0.03 2.48 8075
0.04 -0.00 -11.20 -33.10 -0.04 1.33 -0.50 1.97 8081
0.05 -0.01 -9.21 -32.71 0.80 2.00 -0.90 1.36 8087
0.04 -0.00 -10.55 -31.48 2.54 2.58 -1.32 0.74 8093
0.04 0.01 -10.88 -30.72 1.52 2.86 -1.81 0.21 8100
0.05 0.06 -6.72 -1.22 -1.74 2.91 -3.09 -0.16 8107
0.04 0.11 -4.85 -2.28 12.35 3.25 -3.05 -0.35 8113
0.05 0.32 2.49 9.71 22.20 4.07 -2.11 -0.18 8119
0.02 0.50 5.06 -0.60 18.87 4.08 -1.33 -0.02 8126
0.04 0.69 0.97 -3.53 24.73 4.24 -1.01 0.04 8132
0.02 0.88 -3.63 -6.40 24.42 4.21 -1.06 -0.00 8138
-0.00 0.99 0.18 -5.54 22.34 4.13 -0.92 -0.09 8144
-0.01 1.07 1.50 -3.12 22.10 3.91 -0.51 -0.06 8151
-0.01 1.07 -0.61 -2.23 20.42 3.46 -0.39 -0.06 8158
-0.03 0.98 -0.10 -2.31 18.48 3.04 -0.51 -0.21 8164
-0.01 1.01 1.81 -2.82 21.15 2.84 -0.76 -0.30 8170
-0.00 0.96 2.09 -1.97 21.16 1.55 -1.71 -0.23 8176
0.00 1.00 2.24 -2.25 12.39 0.58 -1.15 0.02 8183
0.02 0.96 0.47 -1.91 11.66 0.26 -0.68 0.13 8189
0.01 0.95 0.17 -1.08 11.05 0.13 -0.35 0.14 8196
-0.00 0.98 0.02 -0.57 10.43 0.03 -0.16 0.10 8202
0.01 0.95 0.29 -0.70 10.21 -0.01 -0.10 0.05 8208
0.01 0.99 0.62 -1.03 10.09 -0.03 -0.07 0.04 8215
-0.00 0.97 0.75 -1.08 10.18 -0.04 -0.05 0.05 8221
0.00 1.01 0.54 -0.81 10.14 -0.04 -0.05 0.05 8227
0.02 0.96 0.39 -0.72 10.18 -0.04 -0.05 0.04 8233
0.02 1.01 0.49 -0.64 10.11 -0.04 -0.04 0.03 8240
0.01 1.00 0.59 -0.62 9.96 -0.03 -0.05 0.04 8246
0.02 1.00 0.57 -0.52 10.00 -0.03 -0.04 0.04 8253
0.01 0.98 0.52 -0.49 9.97 -0.02 -0.03 0.03 8259
0.03 0.94 0.58 -0.47 10.01 -0.01 -0.03 0.03 8265
0.01 0.88 0.64 -0.56 9.99 -0.01 -0.03 0.03 8271
0.02 0.86 0.63 -0.57 9.93 -0.00 -0.03 0.04 8278
0.04 0.85 0.60 -0.58 10.04 -0.00 -0.00 0.03 8284
0.03 0.77 0.58 -0.62 10.06 0.00 -0.04 0.04 8291
0.03 0.67 0.60 -0.61 10.04 0.01 -0.04 0.04 8297
0.05 0.69 0.62 -0.61 10.04 0.02 -0.04 0.04 8303
0.06 0.68 0.60 -0.64 10.07 0.02 -0.04 0.04 8309
0.03 0.58 0.61 -0.63 10.06 0.02 -0.04 0.04 8315
0.02 0.58 0.59 -0.60 10.08 0.02 -0.03 0.04 8322
0.03 0.51 0.61 -0.58 10.06 0.02 -0.04 0.04 8329
0.03 0.49 0.61 -0.61 10.02 0.02 -0.04 0.04 8335
0.04 0.47 0.64 -0.58 10.02 0.02 -0.04 0.04 8341
0.05 0.39 0.67 -0.61 10.00 0.02 -0.05 0.03 8347
0.05 0.37 0.63 -0.59 10.07 0.01 -0.05 0.03 8353
0.06 0.38 0.62 -0.59 9.97 0.01 -0.06 0.02 8359
0.06 0.32 0.64 -0.61 9.96 0.01 -0.07 0.02 8367
0.05 0.31 0.62 -0.58 9.97 0.01 -0.07 0.01 8373
0.07 0.27 0.65 -0.59 9.97 0.00 -0.08 0.01 8379
0.12 0.24 0.59 -0.62 9.97 0.01 -0.08 0.01 8385
0.11 0.24 0.57 -0.58 9.98 0.01 -0.08 0.01 8391
0.09 0.22 0.55 -0.60 10.01 0.01 -0.07 0.01 8397
0.11 0.21 0.54 -0.58 9.97 0.01 -0.07 0.02 8403
0.12 0.20 0.54 -0.66 10.03 0.01 -0.06 0.02 8411
0.12 0.15 0.54 -0.59 10.01 0.01 -0.05 0.02 8417
0.13 0.15 0.56 -0.63 10.01 0.01 -0.04 0.02 8423
0.15 0.08 0.58 -0.65 10.01 0.02 -0.04 0.02 8429
0.14 0.07 0.61 -0.63 9.98 0.01 -0.04 0.02 8435
0.15 0.10 0.63 -0.65 9.99 0.01 -0.04 0.02 8441
0.20 0.01 0.68 -0.67 10.03 0.01 -0.04 0.02 8449
0.20 0.03 0.63 -0.63 10.00 0.02 -0.04 0.01 8455
0.18 0.05 0.64 -0.69 10.02 0.01 -0.04 0.01 8461
0.24 0.03 0.57 -0.64 9.99 0.01 -0.04 0.00 8467
0.19 0.03 0.62 -0.66 10.05 0.01 -0.04 0.00 8473
0.21 0.03 0.63 -0.68 10.00 0.01 -0.04 0.00 8479
0.23 0.00 0.65 -0.66 10.08 0.01 -0.03 -0.00 8486
0.26 -0.01 0.63 -0.72 10.04 0.01 -0.03 -0.00 8493
0.27 -0.01 0.61 -0.65 10.03 0.02 -0.03 -0.00 8499
0.29 -0.01 0.64 -0.68 10.08 0.02 -0.04 -0.00 8505
0.34 -0.03 0.59 -0.71 10.07 0.02 -0.04 -0.00 8511
0.35 -0.03 0.58 -0.68 10.02 0.03 -0.04 -0.01 8517
0.40 -0.04 0.65 -0.71 10.06 0.04 -0.04 -0.01 8524
0.43 -0.03 0.57 -0.67 10.15 0.04 -0.04 -0.00 8530
0.46 -0.05 0.59 -0.25 10.06 0.04 -0.04 -0.01 8537
0.47 -0.05 0.60 -0.69 10.05 0.05 -0.04 -0.00 8543
0.54 -0.03 0.63 -0.71 10.03 0.06 -0.03 -0.01 8549
0.54 -0.04 0.55 -0.74 10.00 0.07 -0.03 -0.01 8555
0.58 -0.05 0.59 -0.70 10.20 0.08 -0.02 -0.01 8562
0.64 -0.04 0.62 -0.67 10.18 0.10 -0.01 -0.01 8568
0.67 -0.04 0.62 -0.76 10.16 0.13 -0.00 -0.02 8574
0.70 -0.04 0.62 -0.74 10.17 0.17 0.01 -0.02 8581
0.80 -0.05 0.71 -0.76 10.24 0.20 0.01 -0.03 8587
0.81 -0.05 0.67 -0.81 10.35 0.24 0.03 -0.05 8594
0.88 -0.06 0.77 -0.99 10.48 0.35 0.04 -0.06 8600
0.96 -0.05 0.70 -0.84 10.67 0.42 0.06 -0.09 8606
1.03 -0.06 0.74 -0.95 10.94 0.57 0.08 -0.09 8612
1.07 -0.05 0.05 -1.05 11.57 0.81 0.11 -0.09 8619
1.16 -0.06 0.80 -1.06 12.01 1.11 0.13 -0.09 8626
1.19 -0.07 0.80 -1.17 12.09 1.40 0.11 -0.09 8632
1.28 -0.06 0.81 -1.37 12.12 1.58 0.04 -0.09 8638
1.29 -0.07 0.77 -1.33 12.35 1.71 -0.08 -0.08 8644
1.35 -0.06 0.89 -1.48 12.30 1.84 -0.17 -0.08 8650
1.40 -0.06 0.60 -1.48 13.03 2.00 -0.24 -0.09 8657
1.43 -0.06 0.80 -1.57 13.17 2.18 -0.31 -0.09 8664
1.43 -0.06 0.85 -2.25 12.80 2.39 -0.34 -0.09 8670
1.48 -0.06 0.64 -1.81 12.83 2.55 -0.39 -0.09 8676
1.49 -0.07 0.68 -2.13 12.95 2.72 -0.43 -0.09 8683
1.53 -0.06 0.80 -2.34 13.02 2.89 -0.45 -0.11 8689
1.56 -0.06 0.90 -2.13 13.08 3.11 -0.46 -0.12 8695
1.53 -0.06 0.77 -2.35 13.64 3.35 -0.44 -0.13 8701
1.50 -0.04 0.39 -2.38 14.03 3.60 -0.41 -0.13 8709
1.41 -0.06 0.11 -2.66 14.55 3.89 -0.35 -0.12 8715
1.33 -0.06 1.05 -2.90 15.37 4.15 -0.32 -0.13 8721
1.25 -0.05 2.12 -3.15 15.61 4.27 -0.36 -0.19 8727
1.13 -0.05 2.44 -3.78 16.37 4.28 -0.42 -0.31 8733
0.96 -0.02 2.03 -3.93 17.47 4.28 -0.53 -0.42 8740
0.85 -0.04 1.33 -4.98 18.75 4.28 -0.74 -0.51 8747
0.70 -0.03 1.41 -6.65 21.77 4.28 -0.93 -0.59 8753
0.64 -0.05 2.36 -8.02 23.78 4.28 -1.05 -0.67 8759
0.59 -0.03 1.38 -11.06 27.51 4.28 -1.10 -0.71 8766
0.51 -0.03 1.69 -13.18 30.45 4.28 -1.02 -0.69 8772
0.47 -0.04 1.91 -14.09 30.65 4.28 -0.71 -0.66 8778
0.32 -0.03 1.45 -12.12 28.20 4.28 -0.53 -0.67 8785
0.25 -0.02 1.35 -9.71 26.12 4.28 -0.31 -0.68 8792
0.23 -0.02 -0.08 -7.32 25.88 4.28 -0.23 -0.70 8798
0.18 -0.01 -1.03 -4.90 26.69 4.28 -0.41 -0.71 8804
0.13 -0.01 -0.44 -2.47 26.55 4.28 -0.80 -0.71 8810
0.10 -0.01 1.30 0.18 25.50 4.28 -1.29 -0.71 8817
0.10 0.00 3.65 2.90 24.06 4.28 -1.71 -0.68 8823
0.08 -0.01 5.78 5.38 26.01 4.28 -1.98 -0.64 8829
0.08 -0.01 7.46 6.96 25.90 4.28 -1.81 -0.56 8836
0.05 -0.00 7.46 9.06 24.75 4.28 -1.25 -0.55 8842
0.06 -0.01 9.45 12.39 20.97 4.28 -0.50 -0.87 8849
0.04 -0.00 7.75 16.54 3.78 4.19 0.22 -1.47 8855
0.05 -0.01 7.49 23.98 6.89 2.85 0.52 -1.99 8861
0.04 -0.00 6.41 23.04 22.14 0.75 1.32 -2.24 8867
0.04 -0.00 6.54 18.61 28.53 -1.48 2.23 -2.18 8873
0.05 -0.01 3.28 14.56 21.27 -3.04 2.35 -1.96 8880
0.07 -0.01 1.14 12.58 17.33 -3.99 2.06 -1.66 8887
0.05 -0.00 0.19 10.85 14.50 -4.28 1.69 -1.32 8893
0.06 -0.01 0.39 8.80 12.22 -4.28 1.22 -1.01 8899
0.04 -0.00 1.31 6.29 9.83 -4.28 0.82 -0.76 8905
0.02 -0.00 2.05 4.93 8.48 -4.28 0.51 -0.61 8911
0.04 -0.00 2.44 3.54 7.19 -4.28 0.29 -0.46 8918
0.06 -0.01 2.64 2.74 6.99 -4.28 0.16 -0.34 8925
0.04 -0.00 3.06 2.18 7.39 -4.28 0.14 -0.24 8931
0.04 -0.00 3.49 1.74 8.06 -4.28 0.25 -0.15 8937
0.05 0.00 3.92 1.61 8.46 -4.28 0.38 -0.10 8943
0.05 -0.00 4.48 1.66 8.76 -4.27 0.57 -0.10 8949
0.04 -0.00 4.44 1.64 8.88 -4.27 0.78 -0.16 8955
0.04 -0.00 4.01 1.50 9.11 -4.28 0.97 -0.23 8962
0.05 0.01 3.47 1.15 9.52 -4.28 1.17 -0.28 8968
0.04 -0.00 3.11 0.52 10.36 -4.28 1.34 -0.29 8975
0.04 -0.00 2.97 -0.21 11.19 -4.28 1.46 -0.29 8981
0.04 -0.00 2.94 -0.88 12.20 -4.28 1.54 -0.29 8987
0.04 -0.00 2.85 -1.38 13.17 -4.28 1.53 -0.28 8993
0.04 -0.00 2.55 -1.69 13.78 -4.28 1.54 -0.26 8999
0.04 -0.00 2.25 -1.94 14.13 -4.28 1.56 -0.20 9006
0.05 -0.01 2.08 -2.41 14.47 -4.28 1.60 -0.12 9013
0.04 -0.00 2.13 -2.89 14.64 -4.28 1.63 -0.04 9019
0.04 -0.00 2.21 -3.41 14.82 -4.28 1.65 0.01 9025
0.05 -0.01 1.79 -4.00 15.25 -4.28 1.69 0.05 9031
0.05 -0.00 2.41 -4.72 16.58 -4.28 1.75 0.07 9037
0.03 -0.00 2.32 -5.10 17.77 -4.28 1.81 0.08 9043
0.05 -0.00 2.16 -5.51 18.07 -4.28 1.88 0.05 9050
0.05 -0.00 1.97 -5.72 18.40 -4.28 2.03 0.02 9057
0.04 -0.00 1.85 -5.91 18.49 -4.26 2.22 0.02 9063
0.05 -0.00 1.63 -6.42 18.62 -4.22 2.39 0.02 9069
0.05 -0.00 1.34 -6.98 18.64 -4.17 2.50 0.04 9075
0.04 -0.00 0.81 -7.64 18.57 -4.06 2.56 0.08 9081
0.04 0.00 0.16 -8.30 18.63 -3.89 2.54 0.15 9088
0.04 -0.00 -0.17 -8.94 19.18 -3.61 2.48 0.24 9095
0.04 -0.00 -0.60 -9.46 19.38 -3.40 2.31 0.34 9101
0.04 -0.00 -0.85 -9.66 19.53 -3.11 2.07 0.47 9107
0.05 -0.00 -1.29 -9.69 19.63 -2.86 1.77 0.59 9113
0.05 -0.01 -1.35 -9.76 20.07 -2.65 1.38 0.73 9119
0.04 -0.00 -1.30 -10.06 20.64 -2.49 0.99 0.83 9125
0.05 -0.00 -0.91 -10.45 21.91 -2.36 0.63 0.94 9133
0.05 -0.01 -0.33 -11.05 21.90 -2.27 0.39 1.06 9139
0.04 -0.00 0.43 -11.86 22.53 -2.20 0.31 1.17 9145
0.06 -0.00 1.21 -12.78 22.61 -2.17 0.42 1.28 9151
0.05 -0.00 2.12 -13.85 21.75 -2.19 0.71 1.39 9158
0.05 -0.00 2.21 -14.91 21.22 -2.27 1.11 1.50 9164
0.05 -0.01 1.31 -16.09 20.62 -2.44 1.47 1.63 9170
0.05 -0.00 -0.04 -17.22 20.19 -2.66 1.77 1.79 9177
0.04 0.00 -1.51 -18.68 18.69 -2.92 2.00 1.98 9183
0.05 -0.01 -3.01 -20.41 16.07 -3.12 2.20 2.21 9190
0.05 -0.00 -5.04 -22.25 12.44 -3.18 2.39 2.48 9196
0.05 -0.01 -7.16 -24.82 9.87 -3.04 2.58 2.80 9202
0.05 -0.01 -9.17 -28.41 7.49 -2.81 2.53 3.05 9208
0.04 -0.00 -11.39 -32.19 5.29 -2.41 2.07 3.16 9214
0.07 -0.01 -12.55 -35.15 2.12 -1.95 1.45 3.14 9222
0.04 -0.00 -12.31 -35.47 -0.94 -1.46 0.92 2.98 9228
0.05 -0.01 -11.58 -34.18 -1.99 -0.94 0.34 2.64 9234
0.05 -0.01 -10.21 -32.23 -0.45 -0.39 -0.10 2.16 9240
0.04 -0.00 -8.94 -28.98 2.04 0.11 -0.42 1.57 9247
0.05 -0.00 -7.55 -25.95 5.18 0.54 -0.67 0.92 9253
0.05 -0.00 -6.18 -22.25 8.38 0.79 -0.90 0.39 9260
0.04 -0.00 -4.28 -19.43 10.32 0.89 -1.05 -0.16 9266
0.04 0.01 -1.49 -16.83 11.92 0.89 -1.04 -0.62 9272
0.04 -0.00 -20.52 -24.05 78.47 4.27 -1.78 -0.42 9279
0.05 -0.01 2.11 2.68 14.09 3.31 -1.20 -0.30 9285
0.05 0.00 2.05 11.67 -4.20 2.60 -1.45 -0.33 9291
0.04 0.04 5.76 -1.41 0.60 1.91 -2.06 -0.30 9297
0.02 0.14 6.30 15.20 2.08 2.08 -1.31 0.17 9304
0.03 0.24 8.21 3.05 1.26 2.82 0.12 0.75 9311
0.03 0.37 2.87 -3.22 10.09 3.70 0.62 1.07 9317
0.04 0.59 -6.81 -7.48 20.74 4.28 0.08 0.92 9323
0.03 0.74 -6.75 -7.59 20.32 4.28 -0.83 0.43 9329
0.01 0.87 1.50 -4.21 24.15 4.28 -1.03 0.13 9335
0.02 1.01 1.91 -3.17 22.71 4.27 -0.59 0.18 9342
0.00 1.11 -2.66 -2.80 22.32 4.09 -0.49 0.03 9349
-0.01 1.17 -1.65 -3.25 22.99 3.67 -0.67 -0.25 9355
0.00 1.19 0.85 -3.39 26.92 3.26 -0.83 -0.40 9361
-0.01 1.20 0.99 -3.32 24.44 2.00 -1.78 -0.32 9368
-0.01 1.27 2.27 -3.41 13.68 0.63 -1.22 -0.13 9374
0.01 1.22 0.90 -2.26 11.60 0.28 -0.70 0.01 9380
-0.01 1.24 0.81 -0.91 10.45 0.18 -0.46 0.07 9387
-0.00 1.18 0.42 -0.28 10.24 0.16 -0.40 0.06 9393
-0.00 1.13 0.59 -0.88 10.29 0.11 -0.35 0.02 9400
-0.00 1.13 0.82 -1.26 10.41 0.04 -0.23 0.02 9406
0.00 1.14 0.83 -1.29 10.13 0.00 -0.16 0.03 9412
-0.00 1.15 0.69 -0.97 10.16 -0.01 -0.13 0.03 9418
-0.00 1.18 0.60 -0.74 10.07 -0.02 -0.12 0.03 9424
0.01 1.22 0.72 -0.73 10.00 -0.02 -0.10 0.02 9432
0.00 1.14 0.80 -0.73 10.00 -0.02 -0.10 0.02 9438
0.00 1.09 0.86 -0.68 9.94 -0.01 -0.11 0.01 9444
0.01 1.05 0.81 -0.64 9.92 -0.00 -0.12 0.01 9450
0.00 1.02 0.68 -0.64 10.04 0.00 -0.12 0.01 9456
0.00 0.95 0.74 -0.64 10.05 0.01 -0.12 0.01 9462
0.02 0.86 0.73 -0.71 10.04 0.01 -0.13 0.02 9469
0.03 0.85 0.70 -0.68 10.11 0.01 -0.13 0.02 9476
0.02 0.76 0.66 -0.68 10.09 0.02 -0.12 0.02 9482
0.02 0.67 0.63 -0.73 10.06 0.03 -0.12 0.02 9488
0.04 0.62 0.62 -0.76 10.18 0.03 -0.10 0.02 9494
0.05 0.54 0.57 -0.84 10.10 0.04 -0.09 0.02 9501
0.08 0.47 0.62 -0.91 10.09 0.04 -0.07 0.03 9507
0.09 0.37 0.59 -0.76 10.07 0.04 -0.05 0.03 9513
0.11 0.28 0.14 -0.64 10.05 0.04 -0.00 0.03 9520
0.12 0.25 0.63 -0.58 10.14 0.05 -0.03 0.04 9526
0.15 0.18 0.65 -0.73 10.05 0.06 -0.02 0.04 9533
0.16 0.16 0.83 -0.80 10.05 0.06 -0.01 0.03 9539
0.17 0.13 0.74 -0.82 9.98 0.06 -0.01 0.03 9545
0.18 0.09 0.73 -0.93 10.02 0.07 -0.01 0.02 9551
0.18 0.04 0.74 -0.84 10.02 0.06 -0.01 0.02 9558
0.21 0.06 0.95 -0.73 10.15 0.06 -0.02 0.01 9564
0.25 0.03 0.72 -0.81 10.00 0.05 -0.02 0.01 9571
0.25 0.01 0.64 -0.81 9.92 0.04 -0.02 0.01 9577
0.25 0.02 0.67 -0.82 10.12 0.04 -0.02 -0.00 9583
0.27 -0.01 0.72 -0.79 10.10 0.05 -0.02 0.00 9589
0.25 -0.02 1.12 -0.92 10.11 0.05 -0.03 0.00 9595
0.26 -0.02 0.73 -0.84 9.97 0.06 -0.04 0.01 9602
0.31 -0.02 0.72 -0.78 9.98 0.06 -0.04 0.00 9609
0.30 -0.02 0.67 -1.04 9.90 0.07 -0.05 0.00 9615
0.31 -0.03 0.75 -0.90 10.05 0.06 -0.06 -0.00 9621
0.34 -0.02 0.73 -0.88 9.98 0.06 -0.06 -0.00 9627
0.36 -0.04 0.78 -0.87 9.98 0.05 -0.07 -0.01 9633
0.42 -0.04 0.77 -0.94 9.88 0.05 -0.07 -0.02 9639
0.36 -0.04 0.70 -0.95 9.95 0.04 -0.07 -0.02 9646
0.43 -0.03 0.73 -0.96 9.94 0.03 -0.07 -0.03 9652
0.44 -0.04 0.62 -0.90 9.92 0.02 -0.07 -0.04 9659
0.43 -0.04 0.71 -0.89 9.96 0.03 -0.06 -0.04 9665
0.46 -0.04 0.65 -0.93 9.97 0.02 -0.05 -0.04 9671
0.49 -0.04 0.62 -0.95 9.98 0.03 -0.05 -0.04 9677
0.50 -0.04 0.65 -0.91 9.99 0.03 -0.05 -0.03 9683
0.56 -0.05 0.64 -0.89 9.96 0.03 -0.04 -0.03 9690
0.58 -0.04 0.67 -0.91 10.01 0.03 -0.03 -0.03 9696
0.61 -0.05 0.65 -0.92 9.97 0.04 -0.03 -0.03 9703
0.63 -0.06 0.65 -0.93 10.03 0.04 -0.02 -0.03 9709
0.65 -0.03 0.66 -0.91 10.06 0.05 -0.02 -0.03 9715
0.71 -0.05 0.69 -0.90 10.05 0.07 -0.02 -0.03 9721
0.75 -0.07 0.73 -0.97 10.09 0.08 -0.01 -0.03 9728
0.79 -0.04 0.74 -0.97 10.11 0.10 -0.00 -0.03 9735
0.81 -0.05 0.74 -0.99 10.18 0.13 -0.00 -0.04 9741
0.87 -0.04 0.78 -1.03 10.23 0.17 0.00 -0.05 9747
0.91 -0.03 0.92 -1.11 10.28 0.21 0.00 -0.06 9753
1.00 -0.06 0.85 -1.05 10.45 0.27 0.00 -0.09 9759
1.06 -0.06 1.03 -1.18 10.41 0.36 0.01 -0.11 9766
1.11 -0.05 0.85 -1.18 10.59 0.47 0.01 -0.12 9773
1.18 -0.05 0.94 -1.18 11.06 0.65 0.02 -0.14 9779
1.23 -0.06 0.93 -1.36 10.98 0.87 0.02 -0.15 9785
1.31 -0.05 0.84 -1.43 11.62 1.09 0.03 -0.17 9791
1.38 -0.07 0.95 -1.52 11.90 1.29 -0.01 -0.17 9798
1.38 -0.06 0.82 -1.50 11.97 1.43 -0.05 -0.16 9804
1.43 -0.06 0.83 -1.79 11.92 1.56 -0.11 -0.15 9810
1.47 -0.07 1.26 -1.97 12.32 1.69 -0.20 -0.15 9817
1.51 -0.04 0.77 -1.77 12.87 1.83 -0.26 -0.12 9824
1.56 -0.06 0.75 -1.93 12.95 1.99 -0.27 -0.12 9830
1.54 -0.07 0.87 -2.05 13.11 2.18 -0.28 -0.14 9836
1.61 -0.05 0.85 -1.74 12.75 2.38 -0.29 -0.13 9842
1.63 -0.08 0.48 -2.04 13.25 2.58 -0.33 -0.14 9848
1.66 -0.06 0.65 -2.13 12.91 2.74 -0.34 -0.13 9856
1.67 -0.08 0.86 -2.34 12.35 2.93 -0.35 -0.12 9862
1.60 -0.06 0.91 -2.57 13.50 3.14 -0.33 -0.13 9868
1.59 -0.07 0.80 -2.66 13.10 3.39 -0.30 -0.14 9874
1.55 -0.06 0.81 -2.85 14.26 3.70 -0.26 -0.17 9881
1.45 -0.05 1.17 -3.32 14.32 4.00 -0.21 -0.22 9887
1.35 -0.05 0.88 -3.19 13.87 4.20 -0.14 -0.25 9893
1.26 -0.06 0.86 -3.30 16.03 4.28 -0.14 -0.27 9900
1.15 -0.04 1.89 -4.13 17.54 4.28 -0.24 -0.33 9907
0.95 -0.05 2.72 -4.73 18.61 4.28 -0.38 -0.45 9913
0.82 -0.03 1.77 -5.87 18.46 4.28 -0.62 -0.59 9919
0.75 -0.04 2.26 -7.94 21.28 4.28 -0.80 -0.68 9925
0.63 -0.05 1.41 -9.99 24.72 4.28 -0.93 -0.73 9932
0.56 -0.02 1.98 -10.42 28.85 4.28 -0.87 -0.72 9938
0.48 -0.03 2.21 -15.01 31.96 4.28 -0.59 -0.61 9945
0.32 -0.01 2.34 -14.71 28.80 4.28 -0.28 -0.58 9951
0.27 -0.01 1.62 -12.44 28.52 4.28 0.02 -0.59 9958
0.21 -0.02 1.54 -10.51 28.50 4.28 0.24 -0.60 9964
0.16 -0.01 0.58 -7.51 29.51 4.28 0.20 -0.65 9970
0.10 -0.01 0.43 -5.26 28.92 4.28 -0.07 -0.71 9976
0.08 -0.01 1.28 -1.91 27.48 4.28 -0.30 -0.74 9982
0.10 -0.00 4.04 2.18 27.31 4.28 -0.60 -0.75 9990
0.07 -0.01 6.83 5.26 27.68 4.28 -0.84 -0.76 9996
0.05 -0.00 7.47 6.89 28.73 4.28 -0.76 -0.76 10002
0.07 -0.01 7.54 9.33 21.55 4.28 -0.08 -0.72 10008
0.05 -0.00 5.36 14.07 20.33 4.28 0.83 -0.96 10014
0.05 -0.00 5.58 12.76 -0.31 3.93 0.96 -1.51 10021
0.07 -0.01 5.45 21.06 6.11 2.84 0.39 -2.06 10028
0.05 -0.01 4.79 20.26 18.96 0.63 0.48 -2.24 10034
0.03 -0.00 4.73 17.07 25.98 -1.25 1.09 -2.13 10040
0.05 -0.00 3.16 13.73 20.63 -2.49 1.22 -1.97 10047
0.06 -0.01 1.47 11.79 14.91 -3.24 0.87 -1.76 10053
0.06 -0.01 0.50 11.01 12.75 -3.82 0.48 -1.49 10059
0.05 -0.00 1.20 9.89 11.00 -4.20 0.25 -1.25 10065
0.05 -0.00 2.34 8.38 9.44 -4.27 0.13 -1.06 10072
0.06 -0.01 3.24 6.62 7.95 -4.28 0.08 -0.92 10079
0.03 -0.00 3.67 5.31 6.51 -4.28 0.12 -0.82 10085
0.05 -0.00 3.65 4.39 5.92 -4.28 0.21 -0.73 10091
0.05 -0.00 3.53 3.62 5.86 -4.28 0.34 -0.65 10097
0.04 -0.00 3.54 2.89 6.31 -4.28 0.50 -0.59 10103
0.03 -0.00 3.65 2.23 6.98 -4.27 0.64 -0.54 10109
0.05 0.00 3.57 2.02 7.96 -4.25 0.75 -0.50 10117
0.04 -0.00 3.15 1.94 8.53 -4.24 0.84 -0.47 10123
0.03 -0.00 2.72 1.92 8.93 -4.24 0.92 -0.44 10129
0.04 0.00 2.38 1.74 9.53 -4.26 0.99 -0.39 10135
0.05 -0.01 2.34 1.41 10.10 -4.28 1.07 -0.35 10141
0.05 -0.00 2.43 0.96 10.92 -4.28 1.13 -0.30 10148
0.06 0.00 2.50 0.32 12.26 -4.28 1.19 -0.26 10155
0.05 -0.00 2.36 -0.26 12.93 -4.28 1.22 -0.23 10161
0.05 -0.00 2.32 -0.88 13.22 -4.28 1.28 -0.21 10167
0.05 -0.01 2.32 -1.47 13.48 -4.28 1.33 -0.20 10173
0.04 -0.00 2.17 -1.97 13.78 -4.28 1.42 -0.19 10180
0.05 -0.00 2.04 -3.25 14.19 -4.28 1.53 -0.18 10186
0.05 -0.01 1.93 -3.43 12.84 -4.28 1.68 -0.18 10192
0.05 -0.01 0.37 -4.89 15.91 -4.28 1.78 -0.19 10199
0.05 -0.00 1.19 -4.92 15.68 -4.28 1.97 -0.21 10206
0.06 -0.01 0.57 -5.44 16.02 -4.28 2.02 -0.25 10212
0.04 -0.00 0.35 -5.69 17.23 -4.28 2.15 -0.29 10218
0.06 -0.01 0.18 -6.11 17.70 -4.27 2.24 -0.35 10224
0.05 -0.01 -0.41 -6.36 18.02 -4.23 2.34 -0.39 10230
0.05 -0.01 -1.07 -6.56 18.18 -4.18 2.41 -0.40 10237
0.05 -0.01 -1.48 -6.93 18.35 -4.09 2.40 -0.40 10244
0.05 -0.00 -2.05 -7.39 18.73 -3.96 2.34 -0.37 10250
0.04 0.01 -2.31 -7.64 18.85 -3.79 2.22 -0.31 10256
0.03 -0.00 -2.08 -8.00 19.36 -3.59 2.14 -0.21 10263
0.03 -0.00 -1.72 -8.14 19.65 -3.39 2.07 -0.10 10269
0.05 -0.01 -1.47 -8.26 20.22 -3.22 2.00 0.02 10275
0.04 -0.00 -1.10 -8.44 20.73 -3.11 1.96 0.15 10281
0.04 -0.00 -0.65 -8.80 21.14 -3.01 1.90 0.28 10288
0.06 -0.01 -0.18 -9.32 21.45 -2.95 1.84 0.43 10295
0.05 -0.00 0.21 -9.82 21.76 -2.91 1.83 0.60 10301
0.05 -0.00 0.30 -10.49 21.63 -2.88 1.80 0.79 10307
0.06 -0.01 0.24 -11.16 21.49 -2.84 1.76 1.01 10313
0.06 -0.01 -0.07 -12.77 21.58 -2.80 1.69 1.23 10320
0.06 -0.01 -0.39 -13.16 20.66 -2.77 1.59 1.46 10327
0.05 -0.00 -0.80 -14.44 19.93 -2.73 1.46 1.69 10333
0.05 -0.01 -1.43 -15.66 19.31 -2.71 1.30 1.97 10339
0.05 -0.01 -1.87 -16.90 18.44 -2.69 1.15 2.19 10346
0.04 -0.00 -2.41 -18.81 17.50 -2.69 1.05 2.44 10352
0.07 -0.01 -3.32 -19.33 15.82 -2.71 1.09 2.70 10358
0.05 -0.01 -4.78 -20.85 14.44 -2.72 1.32 2.96 10365
0.06 0.00 -5.68 -22.95 12.76 -2.71 1.52 3.13 10372
0.05 -0.01 -6.67 -25.58 10.85 -2.62 1.36 3.16 10378
0.05 -0.00 -7.57 -27.98 8.03 -2.42 0.97 3.10 10384
0.05 -0.00 -7.68 -29.49 4.51 -2.09 0.59 2.96 10391
0.05 -0.01 -7.51 -30.72 1.73 -1.66 0.37 2.74 10397
0.06 -0.00 -6.73 -32.11 0.51 -1.15 0.30 2.38 10403
0.05 -0.00 -6.32 -32.11 0.25 -0.62 0.34 2.00 10409
0.04 -0.00 -3.00 -46.76 9.83 0.11 0.28 1.46 10416
0.05 -0.01 -6.15 -29.02 -1.95 2.39 0.72 0.98 10423
0.06 -0.01 -9.73 -29.63 -0.23 2.47 0.82 0.64 10429
0.04 -0.00 -10.03 -25.66 5.02 3.19 0.12 0.31 10435
0.06 0.01 -9.11 -28.38 1.87 3.27 -1.18 0.07 10441
0.05 0.03 -4.42 -0.20 1.64 3.20 -2.65 -0.32 10448
0.05 0.17 -0.91 -0.53 8.05 3.30 -2.67 -0.45 10455
0.03 0.30 6.44 6.91 19.88 3.98 -1.50 -0.13 10461
0.01 0.51 6.13 -2.67 19.68 4.17 -0.65 0.22 10467
0.03 0.71 -3.29 -5.10 26.80 4.27 -0.63 0.31 10474
0.01 0.85 -6.33 -7.46 25.15 4.24 -0.91 0.06 10480
0.00 1.06 0.01 -6.56 24.72 4.13 -0.79 -0.19 10486
-0.01 1.16 1.44 -3.28 24.79 3.68 -0.48 -0.22 10492
-0.00 1.09 0.11 -1.89 20.48 3.02 -0.55 -0.29 10500
-0.01 1.04 2.09 -2.28 16.90 2.61 -0.66 -0.36 10506
-0.03 1.09 3.01 -2.58 23.63 2.19 -1.36 -0.30 10512
0.01 0.99 3.01 -1.65 15.09 1.08 -1.73 -0.09 10518
0.00 1.02 1.57 -1.55 13.75 0.62 -1.28 0.10 10525
-0.00 1.07 0.05 -1.19 11.57 0.25 -0.77 0.13 10531
0.01 1.01 -0.08 -1.01 10.89 0.07 -0.38 0.11 10537
-0.00 1.01 0.17 -1.00 10.35 -0.02 -0.15 0.07 10544
0.01 1.02 0.72 -0.92 10.23 -0.04 -0.09 0.05 10551
-0.00 1.01 1.49 0.03 10.08 -0.04 -0.07 0.05 10557
0.01 1.01 0.78 -0.79 9.99 -0.04 -0.05 0.05 10563
0.01 1.03 0.63 -0.72 10.00 -0.04 -0.05 0.05 10569
0.01 1.00 0.70 -0.60 10.05 -0.05 -0.04 0.03 10576
0.01 0.97 0.77 -0.56 10.04 -0.04 -0.04 0.04 10583
0.01 0.94 0.75 -0.47 9.98 -0.03 -0.03 0.04 10589
0.01 0.88 0.72 -0.50 10.09 -0.02 -0.03 0.03 10595
0.03 0.83 0.76 -0.56 10.02 -0.02 -0.03 0.04 10601
0.01 0.78 0.79 -0.56 10.00 -0.01 -0.02 0.04 10608
0.03 0.76 0.78 -0.57 10.03 -0.00 -0.02 0.03 10614
0.04 0.69 0.75 -0.55 10.05 0.00 -0.02 0.04 10620
0.04 0.67 0.73 -0.51 10.05 0.01 -0.02 0.04 10627
0.05 0.63 0.79 -0.58 10.04 0.02 -0.02 0.04 10634
0.05 0.58 0.76 -0.55 10.06 0.02 -0.02 0.03 10640
0.05 0.53 0.76 -0.59 9.98 0.02 -0.02 0.04 10646
0.08 0.45 0.75 -0.55 10.08 0.02 -0.01 0.04 10652
0.09 0.39 0.75 -0.59 10.06 0.03 -0.01 0.04 10658
0.07 0.36 0.74 -0.59 10.03 0.04 0.00 0.04 10665
0.11 0.32 0.77 -0.49 9.94 0.04 0.00 0.04 10672
0.10 0.30 0.81 -0.60 10.02 0.05 0.01 0.03 10678
0.09 0.23 1.14 -0.74 10.27 0.05 0.01 0.04 10684
0.11 0.16 0.85 -0.63 9.97 0.05 0.01 0.03 10690
0.09 0.12 0.88 -0.58 9.96 0.05 -0.00 0.02 10697
0.12 0.11 0.87 -0.60 9.85 0.05 -0.00 0.02 10703
0.16 0.06 0.85 -0.65 9.99 0.05 -0.01 0.02 10710
0.16 0.06 0.88 -0.61 10.04 0.04 -0.01 0.01 10716
0.16 0.02 0.76 -0.65 10.04 0.04 -0.01 0.01 10722
0.19 0.03 0.84 -0.63 10.00 0.04 -0.01 0.01 10729
0.17 -0.00 0.80 -0.65 10.02 0.04 -0.01 0.01 10735
0.17 0.02 0.82 -0.63 10.03 0.05 -0.01 0.01 10741
0.18 0.02 0.81 -0.71 10.04 0.04 -0.01 0.01 10747
0.18 0.00 0.80 -0.69 10.04 0.05 -0.01 0.01 10754
0.22 -0.00 0.81 -0.69 10.04 0.04 -0.01 0.01 10761
0.25 -0.02 0.88 -0.67 10.01 0.05 -0.02 0.01 10767
0.24 -0.01 0.87 -0.31 9.94 0.05 -0.02 0.01 10773
0.28 -0.02 0.86 -0.70 10.07 0.05 -0.03 0.01 10779
0.28 -0.01 0.86 -0.69 10.05 0.05 -0.04 -0.00 10786
0.27 -0.02 0.99 -0.64 9.90 0.05 -0.06 -0.01 10792
0.29 0.01 0.98 -0.73 9.97 0.06 -0.07 -0.02 10799
0.32 -0.03 0.91 -0.78 10.03 0.06 -0.08 -0.03 10805
0.38 -0.04 0.95 -0.79 9.94 0.06 -0.08 -0.04 10811
0.37 -0.03 0.90 -0.77 9.97 0.05 -0.08 -0.04 10817
0.38 -0.03 0.88 -0.79 9.98 0.05 -0.08 -0.05 10824
0.41 -0.02 0.90 -0.77 9.88 0.05 -0.09 -0.05 10830
0.49 -0.04 0.86 -0.75 9.98 0.05 -0.09 -0.06 10836
0.51 -0.03 0.88 -0.80 10.06 0.06 -0.09 -0.06 10843
0.55 -0.05 0.86 -0.77 10.10 0.07 -0.09 -0.06 10850
0.58 -0.04 0.84 -0.82 10.05 0.08 -0.09 -0.07 10856
0.61 -0.04 0.84 -0.79 10.06 0.10 -0.08 -0.07 10862
0.69 -0.03 0.91 -0.81 10.08 0.11 -0.08 -0.08 10868
0.76 -0.04 0.80 -0.84 10.03 0.12 -0.07 -0.08 10874
0.78 -0.03 0.88 -1.09 10.07 0.14 -0.07 -0.08 10882
0.83 -0.05 0.91 -0.87 10.13 0.16 -0.06 -0.08 10888
0.89 -0.05 0.85 -0.87 10.22 0.19 -0.06 -0.09 10894
0.92 -0.06 0.90 -0.91 10.21 0.22 -0.06 -0.09 10900
0.93 -0.05 0.86 -0.97 10.21 0.27 -0.07 -0.10 10907
1.01 -0.04 0.99 -1.05 10.31 0.33 -0.08 -0.11 10913
1.08 -0.05 0.89 -1.08 10.38 0.41 -0.09 -0.12 10919
1.17 -0.06 0.91 -1.12 10.64 0.51 -0.10 -0.12 10927
1.21 -0.05 1.01 -1.15 10.79 0.65 -0.12 -0.13 10933
1.30 -0.05 1.10 -1.17 10.95 0.80 -0.13 -0.15 10939
1.36 -0.06 1.19 -1.28 11.46 0.97 -0.15 -0.17 10945
1.41 -0.07 1.07 -1.41 11.66 1.12 -0.20 -0.19 10952
1.46 -0.05 0.97 -1.46 12.00 1.25 -0.25 -0.20 10958
1.56 -0.06 0.80 -1.43 12.00 1.39 -0.30 -0.19 10964
1.61 -0.07 0.77 -1.53 12.18 1.53 -0.37 -0.16 10971
1.67 -0.06 0.65 -1.59 12.33 1.67 -0.40 -0.14 10978
1.72 -0.07 0.65 -1.70 12.45 1.80 -0.42 -0.12 10984
1.77 -0.07 0.63 -1.80 12.52 1.95 -0.43 -0.10 10990
1.77 -0.07 0.71 -1.97 12.46 2.12 -0.42 -0.10 10997
1.76 -0.06 0.75 -2.02 12.67 2.31 -0.42 -0.10 11003
1.82 -0.07 1.35 -0.34 11.67 2.43 -0.41 -0.15 11010
1.80 -0.07 0.61 -2.44 13.55 2.72 -0.45 -0.14 11016
1.81 -0.05 0.71 -2.46 13.44 2.93 -0.49 -0.14 11023
1.82 -0.07 0.95 -2.49 14.05 3.16 -0.50 -0.16 11029
1.76 -0.06 0.97 -2.66 13.78 3.42 -0.48 -0.18 11035
1.72 -0.06 0.82 -2.80 13.84 3.67 -0.44 -0.22 11041
1.63 -0.06 0.77 -2.99 14.20 3.97 -0.38 -0.26 11048
1.53 -0.06 0.36 -2.87 14.76 4.19 -0.33 -0.28 11055
1.39 -0.06 1.76 -2.98 17.37 4.28 -0.33 -0.31 11061
1.28 -0.05 2.08 -3.65 16.20 4.28 -0.37 -0.38 11068
1.05 -0.05 2.50 -4.77 17.78 4.28 -0.45 -0.52 11074
0.91 -0.04 2.51 -5.82 18.21 4.28 -0.52 -0.64 11080
0.75 -0.04 2.47 -7.88 22.70 4.28 -0.69 -0.71 11086
0.66 -0.03 2.45 -10.36 28.20 4.28 -0.77 -0.75 11094
0.56 -0.04 2.17 -14.20 29.85 4.28 -0.57 -0.72 11100
0.44 -0.03 2.08 -15.41 31.97 4.28 -0.14 -0.58 11106
0.31 -0.02 1.56 -13.39 27.24 4.28 0.22 -0.62 11113
0.27 -0.02 1.54 -11.20 27.70 4.28 0.46 -0.64 11119
0.23 -0.02 0.61 -8.22 28.43 4.28 0.57 -0.69 11125
0.22 -0.02 -0.73 -5.64 29.55 4.28 0.40 -0.79 11132
0.11 -0.00 -1.40 -3.57 28.64 4.28 -0.10 -0.88 11139
0.10 -0.01 0.25 -0.16 27.45 4.28 -0.74 -0.94 11145
0.12 -0.01 3.50 3.01 25.87 4.28 -1.28 -0.96 11151
0.09 -0.01 7.20 5.84 28.75 4.28 -1.62 -0.95 11157
0.07 -0.01 8.10 7.57 28.10 4.28 -1.44 -0.90 11164
0.05 -0.00 11.20 15.00 23.70 4.28 -0.87 -0.82 11170
0.06 -0.01 13.41 20.87 16.48 4.28 -0.02 -0.99 11176
0.03 -0.00 7.93 22.14 -1.62 3.89 0.71 -1.51 11184
0.02 -0.00 6.28 24.23 1.52 2.70 0.96 -2.13 11190
0.05 -0.01 5.70 17.84 23.87 1.07 1.78 -2.28 11196
0.05 -0.00 5.71 15.45 29.51 -1.01 2.42 -2.10 11202
0.06 -0.01 2.44 15.78 22.34 -2.56 2.34 -1.85 11208
0.07 -0.01 -0.35 14.66 16.56 -3.52 1.74 -1.56 11215
0.07 -0.01 -0.62 12.05 14.77 -4.21 1.07 -1.20 11222
0.04 -0.00 0.37 9.84 13.80 -4.28 0.55 -0.85 11228
0.04 -0.00 1.41 7.88 12.78 -4.28 0.18 -0.59 11234
0.05 -0.00 2.26 5.70 11.17 -4.28 -0.03 -0.41 11241
0.05 -0.00 2.95 3.91 9.73 -4.28 -0.13 -0.28 11247
0.04 -0.00 3.37 2.66 8.87 -4.28 -0.14 -0.19 11253
0.05 -0.01 3.82 1.69 8.28 -4.28 -0.05 -0.13 11259
0.04 -0.00 4.36 0.86 8.84 -4.28 0.12 -0.09 11266
0.04 -0.00 4.94 0.45 9.62 -4.28 0.34 -0.06 11272
0.05 0.00 5.43 0.15 10.18 -4.28 0.64 -0.08 11279
0.03 -0.00 5.21 -0.31 10.60 -4.28 0.93 -0.14 11285
0.04 -0.00 4.46 -0.60 10.84 -4.28 1.22 -0.23 11291
0.05 -0.00 3.67 -0.79 10.82 -4.28 1.49 -0.30 11297
0.05 -0.00 3.26 -1.42 11.44 -4.28 1.67 -0.34 11303
0.04 -0.00 3.10 -2.20 11.93 -4.28 1.73 -0.37 11311
0.05 -0.01 2.80 -3.05 12.68 -4.28 1.70 -0.39 11317
0.04 -0.00 2.11 -3.88 13.49 -4.28 1.65 -0.40 11323
0.04 -0.00 1.40 -4.61 14.15 -4.28 1.62 -0.36 11329
0.05 -0.00 1.06 -5.35 14.66 -4.28 1.61 -0.29 11336
0.04 -0.00 1.20 -5.95 14.40 -4.28 1.58 -0.22 11342
0.05 0.01 1.79 -6.43 14.78 -4.28 1.53 -0.20 11348
0.04 -0.00 -0.27 -6.78 13.16 -4.28 1.43 -0.22 11355
0.04 -0.00 1.71 -7.02 15.21 -4.28 1.47 -0.23 11361
0.06 -0.00 2.14 -7.51 16.24 -4.28 1.48 -0.26 11368
0.05 -0.00 2.49 -7.68 16.97 -4.24 1.58 -0.31 11374
0.03 -0.00 3.05 -7.86 16.24 -4.17 1.71 -0.36 11380
0.07 -0.01 2.10 -7.71 16.09 -4.07 1.83 -0.37 11386
0.05 -0.01 1.73 -7.80 15.76 -3.90 1.92 -0.36 11394
0.05 0.00 1.47 -7.87 16.02 -3.68 1.96 -0.32 11400
0.04 -0.00 1.41 -7.91 16.65 -3.46 1.96 -0.27 11406
0.03 -0.00 1.25 -8.00 18.05 -3.26 2.01 -0.14 11412
0.04 0.00 1.31 -8.08 18.85 -3.09 2.10 -0.06 11418
0.04 -0.00 1.27 -8.13 19.41 -2.97 2.20 0.05 11425
0.03 -0.00 1.03 -7.93 19.68 -2.93 2.28 0.18 11431
0.06 -0.01 0.84 -7.97 20.02 -2.92 2.36 0.33 11438
0.04 -0.00 0.39 -8.06 19.88 -2.93 2.40 0.50 11444
0.04 -0.00 0.13 -8.42 19.75 -2.92 2.40 0.67 11450
0.06 -0.01 -0.11 -8.90 19.53 -2.86 2.34 0.84 11457
0.05 -0.00 -0.39 -9.65 18.96 -2.74 2.23 1.02 11463
0.05 -0.01 -0.75 -10.43 18.73 -2.58 2.08 1.19 11469
0.04 -0.00 -0.92 -11.24 18.71 -2.41 1.90 1.36 11475
0.04 0.00 -1.27 -12.12 18.60 -2.26 1.69 1.51 11483
0.08 -0.01 -1.47 -13.06 18.54 -2.17 1.45 1.64 11489
0.05 -0.01 -1.87 -14.06 18.63 -2.12 1.21 1.74 11495
0.04 -0.00 -2.12 -15.05 18.56 -2.13 1.03 1.84 11502
0.05 -0.01 -2.01 -16.09 18.22 -2.20 0.98 1.92 11508
0.05 -0.00 -1.71 -17.31 17.23 -2.32 1.08 1.98 11514
0.05 -0.00 -2.11 -18.58 15.59 -2.42 1.29 2.04 11521
0.04 -0.00 -2.87 -20.04 13.46 -2.49 1.57 2.11 11528
0.06 -0.01 -4.04 -22.03 11.19 -2.42 1.78 2.18 11534
0.05 -0.00 -5.60 -24.04 9.38 -2.24 1.88 2.25 11540
0.05 -0.00 -6.89 -26.43 7.84 -1.96 1.82 2.28 11546
0.05 -0.01 -8.12 -28.86 5.72 -1.56 1.53 2.23 11552
0.06 -0.01 -9.28 -30.38 3.21 -1.10 1.14 2.09 11559
0.05 -0.00 -9.23 -30.49 1.89 -0.67 0.79 1.86 11566
0.05 -0.00 -9.41 -29.61 2.42 -0.23 0.48 1.57 11572
0.04 -0.00 -9.45 -27.89 3.88 0.15 0.28 1.22 11578
0.07 -0.01 -9.87 -33.75 -0.37 0.48 -0.01 0.87 11585
0.05 -0.00 -20.30 -29.63 0.30 3.12 -1.70 0.84 11591
0.05 -0.01 -13.75 -21.70 8.84 2.86 -1.66 0.73 11597
0.05 -0.00 -9.16 -15.25 3.10 3.17 -2.41 0.60 11603
0.06 -0.00 1.24 -8.16 2.32 3.04 -3.04 0.38 11610
0.04 0.09 -0.54 3.12 9.21 2.90 -3.47 0.30 11617
0.04 0.19 2.94 11.87 13.74 3.15 -2.15 0.68 11623
0.03 0.41 5.69 4.82 8.04 3.31 -0.66 1.18 11629
0.05 0.53 -1.58 -1.36 22.52 4.06 -0.15 1.35 11635
0.02 0.71 -11.66 -6.27 24.98 4.26 -0.39 1.03 11642
0.00 0.93 -9.74 -7.56 22.83 4.23 -1.03 0.34 11649
-0.01 1.04 -0.88 -3.79 24.32 4.13 -0.91 -0.09 11655
0.00 1.10 -0.35 -2.55 22.20 3.61 -0.42 -0.16 11662
-0.00 1.23 -0.79 -2.32 18.02 3.06 -0.42 -0.38 11668
-0.01 1.20 2.22 -3.03 16.25 2.84 -0.69 -0.51 11674
0.01 1.20 4.83 -2.53 21.27 2.85 -1.02 -0.41 11680
-0.01 1.16 2.44 -1.46 17.52 1.59 -2.15 -0.16 11687
-0.02 1.17 1.70 -2.69 13.52 0.80 -1.69 0.08 11694
-0.01 1.15 0.07 -2.44 12.39 0.35 -1.02 0.11 11700
-0.02 1.11 0.04 -0.75 11.61 0.10 -0.48 0.10 11707
-0.00 1.18 0.22 -0.86 10.11 -0.00 -0.22 0.06 11713
-0.01 1.15 0.50 -1.02 9.99 -0.02 -0.15 0.03 11719
-0.00 1.16 0.97 -1.03 10.15 -0.03 -0.11 0.03 11725
-0.00 1.18 0.73 -0.97 10.15 -0.03 -0.09 0.04 11731
-0.01 1.13 0.67 -0.84 10.24 -0.03 -0.10 0.03 11739
0.01 1.14 0.62 -0.64 10.04 -0.03 -0.09 0.03 11745
0.03 1.11 0.69 -0.65 10.05 -0.02 -0.08 0.03 11751
0.00 1.12 0.73 -0.56 9.93 -0.01 -0.07 0.03 11757
0.02 1.01 0.73 -0.61 9.97 -0.01 -0.07 0.03 11764
0.00 0.94 0.69 -0.65 9.96 -0.00 -0.08 0.02 11770
0.02 0.88 0.70 -0.68 9.91 -0.01 -0.08 0.02 11777
0.03 0.77 0.64 -0.66 9.94 -0.00 -0.08 0.03 11783
0.05 0.72 0.69 -0.74 10.06 0.00 -0.07 0.03 11789
0.07 0.64 0.68 -0.68 10.07 0.01 -0.06 0.03 11796
0.07 0.60 0.68 -0.69 10.13 0.01 -0.06 0.02 11802
0.09 0.52 0.66 -0.69 10.05 0.02 -0.05 0.03 11808
0.10 0.51 0.62 -0.67 10.14 0.02 -0.04 0.03 11814
0.12 0.41 0.67 -0.78 10.09 0.02 -0.04 0.03 11821
0.12 0.35 0.70 -0.56 9.97 0.04 -0.03 0.04 11828
0.14 0.30 0.72 -0.62 10.02 0.04 -0.03 0.03 11834
0.13 0.21 0.71 -0.64 10.04 0.05 -0.02 0.03 11840
0.14 0.20 0.75 -0.75 10.07 0.05 -0.03 0.02 11846
0.17 0.14 0.69 -0.86 10.03 0.05 -0.03 0.01 11853
0.16 0.11 0.78 -0.76 9.98 0.06 -0.04 0.01 11859
0.22 0.11 0.74 -0.64 9.89 0.06 -0.04 0.00 11866
0.24 0.05 0.76 -0.82 10.03 0.05 -0.04 -0.00 11872
0.23 0.09 0.70 -0.76 10.10 0.05 -0.05 -0.00 11878
0.25 0.02 0.88 -0.63 10.11 0.05 -0.05 -0.01 11885
0.24 -0.00 0.70 -0.80 10.04 0.05 -0.05 -0.01 11891
0.27 0.01 0.64 -0.78 10.02 0.05 -0.05 -0.01 11897
0.27 -0.01 0.67 -0.76 10.01 0.05 -0.04 0.00 11904
0.29 -0.00 0.66 -0.78 10.04 0.06 -0.04 0.01 11911
0.30 -0.00 0.66 -0.85 10.02 0.06 -0.03 0.01 11917
0.32 -0.02 0.78 -0.76 10.02 0.06 -0.03 0.01 11923
0.33 -0.02 0.73 -0.82 10.00 0.07 -0.03 0.00 11929
0.38 -0.02 0.78 -0.81 10.01 0.08 -0.03 0.00 11936
0.38 -0.04 0.72 -0.82 9.99 0.08 -0.03 -0.00 11942
0.39 -0.02 0.74 -0.82 10.09 0.08 -0.04 -0.01 11949
0.43 -0.03 0.78 -0.90 10.01 0.08 -0.04 -0.02 11955
0.44 -0.03 0.74 -0.88 9.97 0.08 -0.04 -0.02 11961
0.48 -0.02 0.70 -0.89 10.01 0.08 -0.04 -0.02 11968
0.52 -0.03 0.73 -0.85 9.98 0.08 -0.03 -0.02 11974
0.51 -0.04 0.70 -0.86 10.00 0.07 -0.03 -0.02 11980
0.55 -0.04 0.69 -0.89 9.96 0.07 -0.03 -0.02 11986
0.58 -0.04 0.62 -0.42 9.96 0.07 -0.03 -0.03 11993
0.59 -0.04 0.74 -0.91 9.98 0.07 -0.03 -0.02 12000
0.60 -0.04 0.75 -0.87 10.05 0.06 -0.03 -0.02 12006
0.62 -0.05 0.81 -0.95 10.00 0.07 -0.04 -0.02 12012
0.65 -0.04 0.78 -0.91 10.07 0.08 -0.05 -0.03 12018
0.71 -0.05 0.83 -0.93 10.10 0.10 -0.05 -0.04 12024
0.76 -0.05 0.80 -0.97 10.08 0.11 -0.06 -0.04 12032
0.81 -0.03 0.70 -0.95 10.05 0.12 -0.07 -0.05 12038
0.89 -0.05 0.76 -0.99 10.03 0.14 -0.07 -0.04 12044
0.94 -0.05 0.71 -1.03 10.09 0.16 -0.07 -0.05 12050
0.97 -0.05 0.72 -1.04 10.11 0.18 -0.07 -0.06 12057
1.00 -0.06 0.78 -1.00 10.19 0.21 -0.07 -0.06 12063
1.06 -0.05 0.74 -1.03 10.27 0.24 -0.07 -0.07 12069
1.10 -0.06 0.78 -1.08 10.40 0.30 -0.07 -0.08 12076
1.17 -0.05 0.74 -1.08 10.55 0.42 -0.07 -0.10 12083
1.25 -0.06 0.85 -1.18 10.72 0.52 -0.08 -0.10 12089
1.29 -0.08 0.83 -1.21 10.81 0.65 -0.08 -0.12 12095
1.33 -0.04 0.89 -1.31 10.99 0.79 -0.10 -0.13 12101
1.38 -0.05 0.80 -1.36 10.98 0.88 -0.11 -0.14 12108
1.41 -0.06 0.72 -1.39 11.01 1.03 -0.14 -0.14 12114
1.46 -0.05 0.59 -1.48 11.42 1.13 -0.16 -0.13 12121
1.52 -0.07 0.63 -1.44 11.61 1.22 -0.19 -0.12 12128
1.57 -0.07 0.67 -1.75 11.78 1.33 -0.22 -0.10 12134
1.62 -0.07 0.73 -1.73 11.83 1.45 -0.25 -0.08 12140
1.64 -0.05 0.65 -1.81 12.15 1.59 -0.29 -0.07 12146
1.66 -0.05 0.69 -1.99 12.29 1.71 -0.31 -0.06 12153
1.70 -0.06 0.51 -2.44 12.66 1.90 -0.31 -0.06 12160
1.69 -0.06 0.86 -2.05 12.78 2.09 -0.34 -0.07 12166
1.72 -0.07 0.64 -2.06 12.89 2.28 -0.36 -0.07 12173
1.72 -0.08 0.74 -2.38 12.92 2.46 -0.39 -0.07 12179
1.74 -0.07 0.38 -2.42 12.23 2.65 -0.43 -0.07 12185
1.71 -0.05 0.86 -2.56 13.28 2.87 -0.45 -0.09 12191
1.72 -0.06 0.87 -2.78 13.60 3.12 -0.44 -0.12 12198
1.67 -0.06 0.80 -2.80 13.80 3.37 -0.42 -0.15 12205
1.61 -0.06 0.45 -2.91 14.09 3.64 -0.39 -0.17 12211
1.51 -0.06 0.73 -3.01 14.29 3.94 -0.34 -0.17 12217
1.40 -0.06 1.32 -3.69 14.98 4.19 -0.37 -0.21 12224
1.27 -0.06 2.04 -3.54 15.46 4.28 -0.44 -0.30 12230
1.10 -0.02 1.75 -4.31 16.38 4.28 -0.50 -0.44 12236
1.00 -0.05 2.29 -4.38 16.03 4.28 -0.64 -0.55 12243
0.83 -0.03 1.67 -5.91 19.25 4.28 -0.76 -0.63 12250
0.79 -0.03 1.75 -7.62 22.72 4.28 -0.93 -0.67 12256
0.63 -0.03 2.08 -10.24 25.77 4.28 -0.98 -0.73 12262
0.57 -0.04 1.37 -13.83 30.47 4.28 -0.86 -0.74 12269
0.48 -0.03 4.56 -12.32 30.58 4.28 -0.56 -0.69 12275
0.37 -0.02 2.57 -14.37 27.86 4.28 -0.23 -0.63 12281
0.29 -0.03 2.11 -11.62 26.24 4.28 0.04 -0.67 12289
0.18 -0.01 1.49 -8.44 26.96 4.28 0.18 -0.72 12295
0.16 -0.02 0.15 -5.64 27.43 4.28 0.05 -0.76 12301
0.13 -0.01 -0.01 -3.40 27.40 4.28 -0.27 -0.82 12307
0.14 -0.01 1.37 -0.25 26.86 4.28 -0.74 -0.86 12314
0.09 -0.01 3.84 3.05 26.19 4.28 -1.18 -0.88 12320
0.05 0.01 5.88 4.91 27.63 4.28 -1.42 -0.86 12326
0.04 -0.00 6.74 7.58 26.37 4.28 -1.17 -0.78 12333
0.03 -0.00 9.67 14.66 15.71 4.28 -0.67 -0.81 12340
0.05 -0.01 6.99 14.69 13.17 4.10 -0.02 -1.29 12346
0.05 -0.01 8.31 20.90 -3.68 3.22 0.11 -2.00 12352
0.03 -0.00 5.85 22.41 15.03 1.51 0.47 -2.44 12358
0.05 -0.00 6.36 18.83 28.38 -0.58 1.47 -2.45 12365
0.06 -0.01 5.10 14.93 25.22 -2.20 1.98 -2.30 12371
0.08 -0.01 2.43 13.01 18.19 -3.12 1.81 -2.10 12378
0.06 -0.01 0.90 11.97 14.12 -3.73 1.40 -1.85 12384
0.05 0.00 1.20 10.52 11.25 -4.15 1.02 -1.57 12391
0.05 -0.01 1.96 8.67 8.93 -4.26 0.75 -1.33 12397
0.05 -0.01 2.78 6.71 7.25 -4.28 0.56 -1.15 12403
0.05 -0.01 3.33 5.18 6.56 -4.27 0.48 -0.99 12409
0.06 -0.01 3.21 4.24 6.53 -4.25 0.45 -0.84 12416
0.05 -0.01 3.20 3.84 6.89 -4.20 0.51 -0.69 12423
0.05 -0.00 3.31 3.45 7.13 -4.16 0.64 -0.56 12429
0.05 -0.01 3.58 3.12 7.96 -4.12 0.79 -0.43 12435
0.05 -0.01 3.79 2.89 7.71 -4.11 0.91 -0.34 12441
0.05 -0.00 3.75 2.85 8.02 -4.13 0.98 -0.28 12447
0.05 -0.01 3.43 2.79 8.45 -4.17 1.05 -0.24 12453
0.05 -0.00 3.06 2.60 9.11 -4.20 1.17 -0.20 12461
0.04 -0.00 2.83 1.97 10.04 -4.23 1.33 -0.14 12467
0.07 -0.01 2.63 1.37 11.45 -4.26 1.50 -0.10 12473
0.05 -0.01 1.85 0.81 12.52 -4.28 1.65 -0.07 12479
0.05 -0.00 2.37 0.21 13.28 -4.28 1.77 -0.07 12485
0.05 -0.01 2.01 -0.33 14.08 -4.28 1.87 -0.09 12492
0.04 -0.00 1.67 -0.79 14.09 -4.28 1.98 -0.13 12498
0.06 -0.01 1.14 -1.32 14.21 -4.28 2.07 -0.12 12505
0.06 -0.01 0.93 -2.00 14.45 -4.28 2.15 -0.13 12511
0.04 -0.00 0.53 -2.96 14.89 -4.28 2.23 -0.16 12517
0.06 -0.01 0.21 -3.94 14.80 -4.28 2.29 -0.17 12524
0.05 -0.00 -0.04 -4.74 15.13 -4.28 2.39 -0.15 12530
0.05 -0.01 -1.40 -5.13 16.85 -4.28 2.34 -0.13 12536
0.07 -0.01 -0.28 -5.61 17.36 -4.26 2.29 -0.14 12542
0.04 -0.00 -0.86 -5.61 17.03 -4.19 2.21 -0.17 12549
0.06 -0.01 -1.25 -5.26 16.82 -4.11 2.17 -0.17 12556
0.06 -0.01 -1.20 -5.27 16.85 -4.01 2.14 -0.14 12562
0.04 -0.00 -1.31 -5.27 17.11 -3.88 2.03 -0.10 12568
0.05 0.00 -1.39 -5.23 17.02 -3.74 1.88 -0.04 12574
0.05 -0.00 -1.42 -5.46 17.88 -3.61 1.76 0.04 12581
0.03 -0.00 -1.39 -5.69 18.64 -3.41 1.67 0.14 12588
0.04 0.00 -1.39 -5.76 19.66 -3.21 1.59 0.26 12594
0.04 -0.00 -1.60 -5.92 21.05 -3.05 1.55 0.36 12600
0.05 -0.00 -1.84 -6.27 22.88 -2.96 1.56 0.45 12607
0.07 -0.01 -1.90 -6.90 24.04 -2.98 1.63 0.52 12613
0.04 -0.00 -1.79 -7.68 24.61 -3.07 1.66 0.58 12619
0.04 -0.00 -1.52 -8.60 23.82 -3.19 1.69 0.63 12625
0.06 -0.01 -1.40 -10.41 22.81 -3.29 1.69 0.68 12632
0.05 -0.00 -1.44 -11.16 21.52 -3.31 1.66 0.80 12639
0.07 -0.01 -1.39 -13.32 20.09 -3.23 1.60 0.90 12645
0.05 -0.01 -1.11 -14.30 19.21 -3.06 1.51 0.97 12651
0.05 0.00 -0.95 -15.97 20.32 -2.83 1.38 1.08 12658
0.06 -0.01 -1.19 -17.41 18.85 -2.63 1.26 1.20 12664
0.05 -0.00 -1.51 -18.42 18.49 -2.48 1.19 1.33 12670
0.06 -0.01 -2.19 -19.39 17.94 -2.43 1.23 1.49 12677
0.05 -0.01 -3.54 -20.03 16.45 -2.47 1.42 1.69 12684
0.06 -0.01 -5.17 -21.28 14.62 -2.54 1.79 1.94 12690
0.05 -0.01 -6.30 -22.72 13.46 -2.63 2.13 2.17 12696
0.06 -0.00 -7.32 -25.56 11.51 -2.65 2.11 2.32 12702
0.08 -0.01 -8.64 -28.76 8.92 -2.56 1.77 2.40 12709
0.06 -0.01 -9.26 -31.67 5.48 -2.32 1.35 2.42 12716
0.07 -0.01 -9.43 -33.35 2.28 -1.95 0.94 2.35 12722
0.05 -0.01 -9.02 -34.30 -0.03 -1.48 0.62 2.18 12728
0.05 -0.01 -8.64 -33.42 -0.64 -0.92 0.36 1.90 12735
0.06 -0.01 -7.61 -31.58 1.82 -0.35 0.09 1.53 12741
0.05 -0.01 -8.33 -49.33 20.15 0.45 -0.41 1.07 12747
0.07 -0.01 -7.87 -28.93 -7.44 2.82 -0.47 0.79 12753
0.06 -0.01 -9.40 -21.90 1.94 3.05 -0.63 0.56 12760
0.05 -0.01 -8.58 -19.51 0.88 3.26 -1.41 0.42 12767
0.08 0.01 0.32 -8.00 3.86 3.12 -2.65 0.20 12773
0.04 0.09 -1.49 4.78 8.30 2.93 -3.12 0.06 12779
0.00 0.25 4.56 9.83 15.61 3.26 -1.88 0.44 12785
0.04 0.40 7.65 1.72 9.81 3.47 -0.65 0.93 12792
0.02 0.54 -0.63 -3.65 21.48 4.12 -0.22 1.17 12798
0.03 0.80 -11.65 -7.97 24.12 4.24 -0.39 0.94 12805
0.00 0.95 -8.67 -7.67 22.93 4.24 -0.94 0.32 12811
-0.01 1.04 -0.32 -3.02 24.33 4.09 -0.91 -0.09 12818
-0.01 1.09 -0.20 -2.37 21.34 3.53 -0.58 -0.16 12824
-0.02 1.08 -1.02 -2.47 17.87 3.10 -0.50 -0.31 12830
0.00 1.14 1.39 -2.73 16.76 2.95 -0.69 -0.48 12837
-0.01 1.13 4.22 -2.61 24.46 2.90 -1.37 -0.48 12844
-0.00 1.11 3.51 -1.79 18.49 1.33 -2.11 -0.21 12850
0.00 1.11 1.22 -2.82 13.51 0.60 -1.38 0.09 12856
0.01 1.16 0.02 -2.10 12.00 0.22 -0.74 0.14 12863
0.01 1.13 -0.25 -1.09 10.98 0.05 -0.32 0.10 12869
0.00 1.12 0.10 -0.90 10.35 -0.00 -0.19 0.03 12875
-0.01 1.13 0.66 -1.03 10.12 -0.02 -0.15 0.01 12881
-0.01 1.15 1.18 -1.06 10.43 -0.02 -0.12 0.02 12889
-0.00 1.15 0.74 -0.97 10.09 -0.02 -0.13 0.03 12895
0.02 1.12 0.55 -0.77 10.06 -0.02 -0.13 0.03 12901
0.01 1.09 0.49 -0.76 10.04 -0.02 -0.11 0.02 12907
0.01 1.06 0.73 -0.78 9.96 -0.02 -0.10 0.02 12914
0.00 1.00 0.65 -0.73 9.99 -0.02 -0.10 0.02 12920
0.00 0.94 0.56 -0.71 10.13 -0.01 -0.10 0.02 12926
0.02 0.88 0.55 -0.71 10.00 -0.01 -0.09 0.02 12933
0.02 0.82 0.62 -0.76 10.04 -0.00 -0.08 0.03 12939
0.02 0.78 1.22 -0.71 10.14 0.01 -0.08 0.02 12946
0.04 0.70 0.68 -0.75 10.02 0.01 -0.07 0.03 12952
0.06 0.61 0.61 -0.78 10.03 0.02 -0.07 0.03 12958
0.08 0.57 0.57 -0.81 10.06 0.03 -0.07 0.02 12964
0.10 0.45 0.55 -0.71 10.05 0.04 -0.06 0.02 12972
0.08 0.41 0.52 -0.68 10.18 0.04 -0.05 0.03 12978
0.12 0.36 0.60 -0.72 10.10 0.04 -0.05 0.03 12984
0.12 0.25 0.62 -0.17 10.06 0.05 -0.04 0.03 12990
0.15 0.23 0.62 -0.77 10.11 0.06 -0.03 0.02 12997
0.19 0.20 0.59 -0.68 10.03 0.06 -0.03 0.02 13003
0.20 0.15 0.74 -0.77 10.04 0.07 -0.03 0.02 13009
0.21 0.10 0.68 -0.76 9.94 0.07 -0.04 0.01 13016
0.24 0.07 0.56 -0.85 9.96 0.07 -0.05 0.01 13022
0.25 0.01 0.69 -0.81 10.01 0.06 -0.05 0.00 13029
0.26 0.03 0.61 -0.80 9.90 0.06 -0.05 -0.00 13035
0.29 0.00 0.62 -0.82 10.04 0.06 -0.05 -0.01 13041
0.28 0.01 0.71 -0.86 10.04 0.06 -0.05 -0.01 13047
0.32 -0.00 0.60 -0.86 9.99 0.06 -0.04 -0.01 13053
0.32 -0.02 0.57 -0.86 9.97 0.07 -0.04 -0.00 13061
0.34 -0.02 0.61 -0.80 10.19 0.07 -0.04 0.00 13067
0.37 -0.02 0.67 -1.19 10.11 0.08 -0.04 0.00 13073
0.39 -0.03 0.58 -0.76 10.03 0.10 -0.04 0.00 13079
0.45 -0.02 0.64 -0.80 9.99 0.11 -0.04 0.00 13085
0.47 -0.03 0.69 -0.98 9.96 0.12 -0.04 -0.00 13092
0.48 -0.04 0.74 -1.05 9.98 0.12 -0.05 -0.01 13099
0.51 -0.01 0.68 -0.95 10.04 0.12 -0.04 -0.02 13105
0.55 -0.05 0.70 -0.93 10.05 0.13 -0.04 -0.03 13111
0.56 -0.03 0.63 -0.94 10.05 0.12 -0.04 -0.04 13118
0.62 -0.06 0.71 -1.07 9.97 0.12 -0.05 -0.04 13124
0.62 -0.03 0.63 -0.97 10.06 0.12 -0.05 -0.04 13130
0.67 -0.04 0.77 -0.96 9.99 0.13 -0.05 -0.05 13136
0.70 -0.06 0.75 -1.04 9.96 0.13 -0.06 -0.06 13143
0.70 -0.07 0.68 -1.03 9.92 0.13 -0.07 -0.06 13150
0.74 -0.03 0.66 -1.02 9.95 0.13 -0.07 -0.06 13156
0.76 -0.04 0.65 -1.11 9.94 0.13 -0.06 -0.07 13162
0.76 -0.06 0.72 -1.09 9.97 0.12 -0.06 -0.07 13168
0.80 -0.05 0.59 -1.08 10.01 0.11 -0.06 -0.07 13174
0.86 -0.05 0.62 -1.11 9.98 0.11 -0.06 -0.06 13181
0.89 -0.04 0.64 -1.12 10.01 0.10 -0.05 -0.07 13188
0.94 -0.04 0.66 -1.13 10.06 0.10 -0.05 -0.07 13194
0.99 -0.05 0.62 -1.17 10.08 0.12 -0.04 -0.07 13200
1.01 -0.05 0.63 -1.15 10.12 0.13 -0.03 -0.06 13207
1.03 -0.05 0.61 -1.12 10.11 0.15 -0.03 -0.06 13213
1.07 -0.06 0.61 -1.11 10.14 0.17 -0.02 -0.06 13219
1.09 -0.05 0.62 -1.14 10.15 0.21 -0.01 -0.05 13225
1.14 -0.06 0.64 -1.23 10.29 0.25 -0.00 -0.05 13233
1.18 -0.05 0.67 -1.24 10.38 0.30 0.00 -0.05 13239
1.22 -0.05 0.72 -1.30 10.44 0.37 0.01 -0.06 13245
1.25 -0.06 0.71 -1.35 10.56 0.45 0.01 -0.06 13251
1.32 -0.05 0.74 -1.38 10.62 0.54 0.02 -0.07 13258
1.36 -0.08 0.83 -1.44 10.82 0.65 0.01 -0.08 13264
1.38 -0.06 0.90 -1.52 11.09 0.77 -0.00 -0.09 13271
1.43 -0.07 0.82 -1.60 11.57 0.91 -0.03 -0.10 13277
1.48 -0.06 0.85 -1.64 11.71 1.06 -0.07 -0.11 13284
1.50 -0.05 0.84 -1.62 11.78 1.21 -0.12 -0.10 13290
1.54 -0.07 0.72 -1.67 11.96 1.34 -0.18 -0.10 13296
1.54 -0.04 0.77 -1.74 12.12 1.48 -0.24 -0.10 13303
1.61 -0.07 0.57 -1.88 12.59 1.65 -0.26 -0.09 13309
1.63 -0.05 1.38 -1.25 12.67 1.79 -0.26 -0.12 13316
1.64 -0.07 0.35 -2.12 12.38 2.03 -0.27 -0.08 13322
1.65 -0.07 1.22 -1.46 12.97 2.16 -0.27 -0.11 13329
1.68 -0.06 1.01 -2.50 13.12 2.39 -0.30 -0.10 13335
1.68 -0.06 0.77 -2.45 12.83 2.58 -0.33 -0.10 13341
1.70 -0.05 0.89 -2.77 12.92 2.81 -0.34 -0.11 13347
1.66 -0.06 0.57 -2.69 13.79 3.05 -0.34 -0.13 13355
1.62 -0.06 0.25 -3.04 14.13 3.31 -0.32 -0.12 13361
1.49 -0.07 0.31 -3.00 14.61 3.59 -0.29 -0.11 13367
1.47 -0.07 1.79 -3.19 14.56 3.91 -0.28 -0.14 13374
1.39 -0.05 2.13 -3.43 15.23 4.17 -0.32 -0.23 13380
1.21 -0.06 1.95 -3.72 15.31 4.28 -0.32 -0.34 13386
1.09 -0.02 1.45 -4.31 17.14 4.28 -0.35 -0.43 13392
0.94 -0.04 1.80 -4.95 18.14 4.28 -0.43 -0.51 13400
0.78 -0.03 1.87 -6.58 21.57 4.28 -0.59 -0.59 13406
0.70 -0.03 1.19 -11.90 24.73 4.28 -0.74 -0.69 13412
0.62 -0.03 2.48 -11.59 28.40 4.28 -0.76 -0.72 13419
0.48 -0.03 2.61 -14.17 31.67 4.28 -0.56 -0.69 13425
0.38 -0.03 2.95 -14.63 30.53 4.28 -0.25 -0.64 13431
0.29 -0.02 2.10 -12.50 27.01 4.28 0.02 -0.64 13438
0.23 -0.02 1.82 -9.75 26.12 4.28 0.20 -0.68 13445
0.21 -0.02 0.15 -6.68 26.43 4.28 0.29 -0.71 13451
0.11 -0.01 -0.47 -5.30 28.49 4.28 0.06 -0.75 13457
0.12 -0.01 0.81 -4.15 29.44 4.28 -0.42 -0.83 13464
0.12 -0.01 3.51 -0.64 28.58 4.28 -0.89 -0.89 13470
0.05 -0.00 6.45 2.75 28.64 4.28 -1.24 -0.90 13476
0.06 -0.00 6.67 5.82 28.61 4.28 -1.12 -0.84 13483
0.04 -0.00 9.97 14.57 23.23 4.28 -0.60 -0.74 13490
0.04 -0.00 10.49 17.90 16.40 4.27 0.06 -1.00 13496
0.05 -0.01 7.74 18.98 -2.02 3.48 0.32 -1.65 13502
0.04 -0.00 5.78 21.33 4.44 2.50 0.11 -2.26 13508
0.04 -0.00 5.92 16.50 22.12 0.89 0.74 -2.43 13515
0.05 -0.01 6.49 13.65 27.14 -0.79 1.44 -2.34 13521
0.04 -0.00 3.83 12.41 20.59 -1.96 1.65 -2.25 13528
0.05 -0.01 1.86 11.90 14.16 -2.59 1.35 -2.11 13534
0.04 -0.00 1.16 11.00 11.55 -3.09 0.91 -1.90 13541
0.05 -0.01 1.43 9.80 9.78 -3.55 0.66 -1.65 13547
0.04 -0.00 2.25 8.32 8.29 -3.85 0.49 -1.45 13553
0.04 -0.00 2.91 7.02 7.37 -3.98 0.35 -1.28 13559
0.05 -0.00 3.28 5.82 6.84 -4.03 0.26 -1.18 13565
0.04 -0.00 3.18 5.06 6.55 -4.05 0.24 -1.05 13572
0.04 -0.00 3.36 4.50 6.67 -4.05 0.30 -0.91 13579
0.04 0.01 3.61 3.90 6.96 -4.02 0.42 -0.78 13585
0.05 -0.01 3.97 3.54 7.46 -4.01 0.57 -0.66 13591
0.05 -0.00 4.12 3.49 7.77 -4.01 0.74 -0.55 13597
0.05 -0.01 3.89 3.41 8.12 -4.05 0.88 -0.47 13603
0.06 -0.01 3.55 3.12 8.34 -4.12 1.01 -0.40 13609
0.04 -0.00 3.16 2.64 8.73 -4.19 1.17 -0.33 13617
0.04 -0.00 2.79 2.06 9.26 -4.23 1.31 -0.28 13623
0.06 -0.01 2.47 1.25 9.92 -4.26 1.44 -0.23 13629
0.06 -0.01 2.25 0.47 11.02 -4.28 1.51 -0.20 13635
0.04 -0.00 2.13 -0.05 12.06 -4.28 1.57 -0.19 13641
0.06 -0.01 1.91 -0.60 12.92 -4.28 1.64 -0.19 13648
0.06 -0.01 1.84 -1.05 13.56 -4.28 1.73 -0.19 13655
0.05 -0.01 1.80 -1.45 13.79 -4.28 1.84 -0.21 13661
0.05 -0.01 1.72 -1.89 14.02 -4.28 1.96 -0.22 13667
0.05 -0.00 1.61 -2.54 14.38 -4.28 2.07 -0.25 13673
0.05 0.00 1.51 -3.44 14.68 -4.28 2.19 -0.28 13680
0.05 -0.01 1.05 -4.74 15.19 -4.28 2.30 -0.31 13686
0.04 -0.00 0.73 -5.70 15.01 -4.28 2.44 -0.29 13692
0.05 -0.01 0.47 -6.01 16.71 -4.28 2.42 -0.25 13699
0.05 -0.01 0.51 -6.31 16.33 -4.24 2.38 -0.22 13706
0.05 -0.01 0.40 -6.37 15.85 -4.13 2.34 -0.18 13712
0.06 -0.01 -0.04 -6.11 15.51 -3.95 2.29 -0.10 13718
0.05 -0.00 -0.12 -6.32 15.64 -3.73 2.22 -0.01 13724
0.04 -0.00 -0.02 -6.44 16.20 -3.50 2.13 0.04 13730
0.05 -0.00 -0.05 -6.99 17.98 -3.30 2.07 0.11 13737
0.04 -0.00 0.08 -7.14 19.64 -3.12 2.07 0.19 13744
0.04 -0.00 0.29 -7.13 21.18 -3.01 2.11 0.28 13750
0.05 -0.01 0.37 -7.00 22.48 -2.99 2.14 0.39 13756
0.05 -0.00 0.35 -6.92 22.97 -3.07 2.17 0.51 13762
0.05 0.00 0.25 -7.20 23.02 -3.19 2.16 0.65 13769
0.04 -0.00 0.23 -7.96 22.77 -3.30 2.13 0.81 13775
0.04 -0.00 0.15 -9.11 22.09 -3.37 2.04 0.98 13782
0.05 -0.01 0.14 -10.44 21.62 -3.35 1.92 1.15 13788
0.05 -0.01 0.02 -11.90 20.95 -3.22 1.75 1.33 13795
0.06 -0.01 -0.15 -13.34 20.39 -3.04 1.58 1.51 13801
0.06 -0.01 -0.28 -14.50 20.06 -2.82 1.41 1.67 13807
0.05 -0.00 -0.42 -15.36 19.66 -2.59 1.27 1.82 13813
0.05 -0.00 -0.40 -16.08 19.31 -2.43 1.21 1.97 13820
0.04 -0.00 -0.51 -16.84 19.51 -2.33 1.23 2.12 13827
0.05 -0.00 -0.82 -17.90 19.89 -2.31 1.31 2.26 13833
0.05 -0.01 -1.71 -19.08 19.66 -2.40 1.43 2.41 13839
0.04 -0.00 -2.91 -20.16 18.17 -2.58 1.55 2.54 13846
0.06 -0.01 -3.94 -22.02 15.51 -2.80 1.66 2.66 13852
0.05 -0.00 -4.97 -24.54 12.55 -2.85 1.66 2.72 13858
0.06 -0.00 -6.15 -27.52 9.04 -2.75 1.50 2.73 13864
0.06 -0.01 -7.75 -30.62 5.55 -2.49 1.28 2.67 13872
0.04 -0.00 -9.08 -33.76 2.79 -2.14 1.05 2.52 13878
0.06 -0.01 -10.22 -35.06 -0.91 -1.57 0.87 2.27 13884
0.05 -0.01 -10.68 -34.71 -0.90 -0.95 0.63 1.90 13890
0.05 -0.00 -9.99 -32.66 -0.31 -0.28 0.33 1.41 13897
0.05 -0.01 -9.84 -29.56 1.82 0.30 0.01 0.88 13903
0.05 -0.00 -8.14 -25.97 4.31 0.74 -0.29 0.40 13910
0.06 -0.01 -6.92 -22.47 7.60 1.01 -0.46 0.01 13916
0.06 -0.01 -19.62 -39.50 39.62 1.53 -1.29 0.20 13923
0.04 -0.00 2.59 -7.54 9.22 3.52 -2.05 0.53 13929
0.06 -0.01 -3.84 8.29 1.18 3.32 -2.31 0.24 13935
0.04 0.03 3.58 -2.84 3.16 2.76 -2.59 0.09 13941
0.03 0.09 2.90 7.40 8.30 2.37 -2.64 0.18 13947
0.04 0.22 4.88 13.13 4.33 2.29 -1.38 0.70 13955
0.01 0.36 5.31 1.31 3.88 2.79 -0.08 1.12 13961
0.02 0.52 -1.60 -4.29 15.54 3.75 0.30 1.28 13967
0.02 0.70 -10.77 -8.64 20.74 4.24 -0.01 1.02 13973
-0.00 0.94 -8.47 -6.17 21.00 4.28 -0.54 0.40 13980
0.01 1.10 -2.46 -4.06 25.04 4.28 -0.76 -0.11 13986
-0.02 1.18 -0.17 -2.31 22.44 4.03 -0.51 -0.31 13992
0.00 1.21 0.48 -3.36 20.41 3.58 -0.46 -0.44 13999
-0.01 1.21 1.91 -3.22 20.80 3.34 -0.70 -0.55 14006
-0.01 1.18 4.44 -3.74 32.67 2.65 -2.05 -0.50 14012
-0.01 1.25 3.17 -3.78 13.89 1.07 -1.87 -0.04 14018
-0.00 1.24 -0.07 -3.03 12.88 0.53 -1.10 0.16 14025
0.02 1.24 -0.48 -1.58 11.24 0.21 -0.60 0.14 14031
0.00 1.21 0.03 -0.54 10.65 0.08 -0.35 0.07 14038
0.01 1.20 0.15 -1.74 12.56 0.04 -0.27 0.02 14044
0.00 1.18 1.11 -1.18 10.27 0.02 -0.20 0.03 14051
-0.01 1.21 0.89 -1.21 10.03 0.00 -0.16 0.06 14057
0.00 1.20 0.56 -0.82 10.21 -0.01 -0.12 0.05 14063
-0.01 1.23 0.59 -0.80 10.10 -0.02 -0.10 0.04 14069
0.00 1.20 0.70 -0.73 9.94 -0.03 -0.10 0.03 14075
0.01 1.16 0.95 -0.74 10.17 -0.02 -0.09 0.02 14083
-0.01 1.17 0.70 -0.65 9.89 -0.01 -0.10 0.03 14089
0.02 1.08 0.76 -0.60 10.00 -0.00 -0.10 0.02 14095
0.01 1.04 0.73 -0.63 10.00 0.03 -0.11 0.02 14101
0.00 0.96 0.73 -0.63 9.95 0.00 -0.10 0.02 14107
0.02 0.96 0.72 -0.63 9.88 0.01 -0.11 0.02 14114
0.00 0.87 0.68 -0.68 9.98 0.01 -0.12 0.02 14120
0.01 0.79 0.72 -0.65 10.06 0.01 -0.13 0.02 14127
0.03 0.69 0.71 -0.74 10.11 0.01 -0.14 0.02 14133
0.04 0.56 0.67 -0.81 10.02 0.01 -0.14 0.02 14140
0.04 0.54 0.67 -0.74 10.04 0.01 -0.13 0.02 14146
0.06 0.50 0.57 -0.75 10.06 0.01 -0.12 0.02 14152
0.06 0.44 0.73 -0.70 10.06 0.02 -0.10 0.02 14158
0.08 0.39 0.62 -0.74 10.09 0.02 -0.09 0.02 14164
0.09 0.38 0.61 -0.75 10.03 0.02 -0.08 0.02 14172
0.11 0.30 0.79 -0.47 10.13 0.03 -0.07 0.02 14178
0.15 0.26 0.68 -0.75 10.05 0.03 -0.07 0.01 14184
0.12 0.22 0.63 -0.73 10.01 0.03 -0.06 0.01 14190
0.13 0.20 0.63 -0.76 10.05 0.03 -0.05 0.01 14197
0.17 0.14 0.70 -0.75 10.00 0.03 -0.06 0.00 14203
0.18 0.16 0.63 -0.63 10.15 0.03 -0.05 -0.00 14210
0.19 0.14 0.65 -0.74 9.97 0.03 -0.05 0.00 14216
0.21 0.10 0.59 -0.78 10.00 0.02 -0.04 0.00 14222
0.22 0.08 0.60 -0.80 9.97 0.03 -0.04 0.00 14229
0.26 0.09 0.56 -0.74 10.01 0.07 -0.03 0.01 14235
0.29 0.05 0.61 -0.73 10.03 0.03 -0.02 0.02 14241
0.28 0.05 0.51 -0.85 10.01 0.04 -0.02 0.02 14247
0.34 0.02 0.59 -0.76 10.05 0.03 -0.02 0.02 14255
0.33 0.00 0.68 -0.74 10.02 0.04 -0.01 0.02 14261
0.33 0.01 0.66 -0.79 10.03 0.04 -0.01 0.02 14267
0.33 0.01 0.69 -0.83 10.06 0.04 -0.02 0.01 14273
0.34 -0.00 0.72 -0.78 10.04 0.04 -0.01 0.01 14279
0.37 -0.00 0.68 -0.84 9.98 0.04 -0.02 0.01 14286
0.44 -0.04 0.66 -0.72 10.10 0.04 -0.01 0.01 14292
0.39 -0.03 0.60 -0.91 9.96 0.04 -0.02 0.01 14299
0.37 -0.03 0.73 -0.79 10.06 0.04 -0.02 0.00 14305
0.44 -0.04 0.67 -0.83 10.00 0.05 -0.02 0.01 14311
0.44 -0.02 0.73 -0.84 10.06 0.05 -0.02 0.00 14318
0.46 -0.03 0.63 -0.80 10.05 0.05 -0.02 -0.00 14324
0.52 -0.04 0.66 -0.88 10.02 0.06 -0.03 0.00 14330
0.56 -0.04 0.67 -0.85 10.04 0.06 -0.04 -0.00 14337
0.62 -0.04 0.70 -0.83 10.04 0.07 -0.04 -0.00 14343
0.65 -0.06 0.66 -0.89 10.05 0.08 -0.05 -0.01 14350
0.65 -0.04 0.70 -0.87 10.01 0.07 -0.05 -0.01 14356
0.69 -0.05 0.65 -0.89 9.97 0.08 -0.05 -0.01 14362
0.75 -0.05 0.67 -0.89 9.94 0.08 -0.05 -0.02 14368
0.78 -0.04 0.65 -0.84 10.06 0.08 -0.05 -0.02 14375
0.82 -0.04 0.69 -1.00 10.04 0.08 -0.04 -0.02 14382
0.83 -0.05 0.68 -0.89 9.98 0.09 -0.04 -0.02 14388
0.88 -0.05 0.68 -0.93 10.03 0.09 -0.04 -0.02 14394
0.94 -0.07 0.68 -0.96 10.12 0.11 -0.03 -0.03 14400
0.97 -0.05 0.67 -0.96 10.06 0.13 -0.04 -0.03 14407
0.99 -0.05 0.70 -0.96 10.16 0.16 -0.04 -0.04 14413
1.04 -0.06 0.79 -0.98 10.21 0.20 -0.04 -0.05 14419
1.11 -0.05 0.77 -1.02 10.25 0.25 -0.05 -0.06 14426
1.10 -0.07 0.87 -1.07 10.39 0.32 -0.05 -0.08 14433
1.15 -0.05 0.69 -1.04 10.63 0.43 -0.06 -0.09 14439
1.25 -0.06 0.86 -1.21 10.89 0.57 -0.07 -0.11 14445
1.32 -0.06 0.75 -1.22 11.30 0.78 -0.08 -0.12 14452
1.38 -0.07 0.72 -1.28 11.59 0.99 -0.10 -0.12 14458
1.45 -0.07 0.72 -1.38 11.76 1.17 -0.14 -0.12 14465
1.51 -0.06 0.86 -1.45 11.90 1.30 -0.19 -0.12 14471
1.55 -0.06 0.80 -1.45 11.91 1.40 -0.23 -0.12 14478
1.57 -0.06 0.74 -1.62 12.06 1.52 -0.30 -0.10 14484
1.64 -0.07 0.70 -1.64 12.69 1.66 -0.33 -0.09 14490
1.70 -0.07 0.73 -1.77 12.49 1.84 -0.34 -0.09 14496
1.72 -0.07 0.62 -1.88 12.88 2.00 -0.34 -0.08 14503
1.76 -0.08 0.58 -1.73 12.91 2.18 -0.36 -0.08 14510
1.78 -0.07 0.67 -2.11 12.47 2.37 -0.38 -0.09 14516
1.77 -0.07 0.70 -2.23 12.76 2.53 -0.41 -0.10 14523
1.78 -0.07 0.72 -2.20 12.99 2.72 -0.43 -0.11 14529
1.77 -0.07 0.65 -2.40 13.81 2.94 -0.43 -0.13 14535
1.74 -0.06 0.71 -2.66 13.37 3.19 -0.42 -0.15 14541
1.70 -0.05 0.72 -2.74 13.34 3.43 -0.38 -0.17 14548
1.59 -0.06 0.90 -2.74 14.30 3.69 -0.34 -0.20 14555
1.52 -0.05 0.61 -2.90 13.93 3.99 -0.29 -0.22 14561
1.42 -0.06 0.64 -3.23 15.43 4.20 -0.29 -0.25 14567
1.28 -0.05 1.52 -3.33 15.05 4.28 -0.27 -0.31 14574
1.17 -0.05 2.50 -4.15 16.71 4.28 -0.34 -0.43 14580
1.03 -0.04 2.04 -4.93 16.96 4.28 -0.36 -0.55 14586
0.93 -0.03 1.91 -6.00 18.80 4.28 -0.55 -0.64 14594
0.79 -0.03 1.71 -8.27 22.34 4.28 -0.70 -0.68 14600
0.69 -0.03 1.30 -11.08 26.45 4.28 -0.72 -0.67 14606
0.57 -0.03 0.57 -14.16 30.17 4.28 -0.51 -0.59 14612
0.44 -0.02 2.28 -15.11 29.64 4.28 -0.12 -0.47 14619
0.36 -0.03 1.62 -13.18 26.20 4.28 0.16 -0.43 14625
0.25 -0.02 1.73 -11.38 26.55 4.28 0.38 -0.44 14631
0.27 -0.02 0.64 -8.53 26.94 4.28 0.47 -0.48 14639
0.14 -0.01 -0.88 -6.55 27.47 4.28 0.28 -0.57 14645
0.15 -0.01 -1.17 -4.40 27.21 4.28 -0.15 -0.66 14651
0.09 -0.01 0.74 -1.62 27.12 4.28 -0.68 -0.71 14657
0.11 -0.01 4.09 2.00 26.92 4.28 -1.14 -0.73 14664
0.07 -0.01 7.07 4.93 27.67 4.28 -1.44 -0.73 14670
0.06 -0.01 7.29 7.64 28.00 4.28 -1.36 -0.67 14676
0.06 0.00 7.13 13.28 26.78 4.28 -0.89 -0.62 14683
0.05 -0.01 9.39 16.46 16.95 4.27 -0.21 -0.91 14690
0.04 -0.00 7.93 19.74 -1.09 3.77 0.26 -1.53 14696
0.05 -0.00 6.23 23.31 6.37 2.34 0.01 -2.03 14702
0.01 -0.00 5.42 20.42 21.30 0.19 0.61 -2.17 14708
0.07 -0.01 6.02 15.82 25.74 -1.52 1.36 -2.09 14715
0.05 -0.01 2.73 12.43 20.10 -2.66 1.55 -1.99 14722
0.06 -0.01 1.26 11.50 14.44 -3.29 1.30 -1.87 14728
0.07 -0.01 0.62 10.90 11.50 -3.80 0.93 -1.68 14734
0.05 -0.01 1.17 9.65 9.46 -4.16 0.66 -1.48 14741
0.05 -0.01 1.97 7.82 8.49 -4.26 0.47 -1.33 14747
0.05 -0.01 2.80 6.09 7.57 -4.28 0.35 -1.21 14753
0.05 -0.00 3.07 4.73 6.97 -4.28 0.30 -1.11 14759
0.04 -0.00 2.92 3.84 6.74 -4.28 0.30 -1.00 14766
0.05 -0.01 3.02 3.17 7.21 -4.28 0.37 -0.89 14772
0.05 -0.01 3.30 2.63 7.94 -4.27 0.47 -0.79 14778
0.04 -0.00 3.72 2.17 8.73 -4.26 0.58 -0.71 14785
0.04 0.00 4.08 2.09 9.29 -4.26 0.72 -0.65 14791
0.04 -0.00 4.08 2.11 9.62 -4.27 0.86 -0.61 14797
0.04 -0.00 3.73 1.96 9.79 -4.28 1.00 -0.57 14803
0.04 -0.00 3.43 1.44 9.88 -4.28 1.15 -0.52 14810
0.04 -0.00 3.12 0.79 10.18 -4.28 1.29 -0.47 14816
0.04 -0.00 2.92 0.09 10.65 -4.28 1.37 -0.41 14823
0.05 -0.00 2.84 -0.67 11.28 -4.28 1.40 -0.37 14829
0.05 -0.00 2.68 -1.37 12.15 -4.28 1.41 -0.33 14835
0.05 -0.01 2.41 -2.01 12.84 -4.28 1.43 -0.30 14841
0.05 -0.00 1.96 -2.52 13.67 -4.28 1.51 -0.26 14849
0.04 -0.00 1.87 -3.07 14.20 -4.28 1.63 -0.22 14855
0.04 -0.00 1.85 -3.45 14.86 -4.28 1.73 -0.20 14861
0.06 -0.01 2.41 -3.74 15.46 -4.28 1.86 -0.21 14867
0.05 -0.01 1.93 -4.26 16.23 -4.28 2.02 -0.25 14873
0.05 -0.01 1.72 -4.44 17.37 -4.28 2.18 -0.27 14880
0.05 -0.01 1.88 -4.96 18.08 -4.28 2.36 -0.30 14886
0.05 -0.00 1.44 -6.08 18.84 -4.28 2.49 -0.35 14893
0.05 0.00 0.81 -5.93 19.04 -4.28 2.64 -0.40 14899
0.05 -0.00 0.30 -6.32 19.25 -4.27 2.80 -0.41 14906
0.04 -0.00 0.01 -7.06 19.38 -4.25 2.91 -0.38 14912
0.04 0.01 -0.28 -7.52 18.89 -4.19 2.93 -0.34 14918
0.04 -0.00 -0.82 -8.21 18.84 -4.08 2.90 -0.29 14924
0.04 -0.00 -1.25 -8.95 18.94 -3.85 2.83 -0.20 14930
0.06 -0.01 -1.45 -9.29 18.99 -3.56 2.69 -0.09 14938
0.06 -0.01 -1.59 -9.29 19.37 -3.29 2.51 0.03 14944
0.06 -0.01 -1.41 -9.37 19.78 -3.06 2.29 0.17 14950
0.05 -0.01 -1.16 -9.39 20.34 -2.89 2.05 0.30 14956
0.05 -0.00 -0.95 -9.49 20.84 -2.78 1.80 0.44 14962
0.06 -0.01 -0.62 -9.85 20.95 -2.72 1.57 0.56 14969
0.06 -0.01 -0.33 -10.34 20.96 -2.66 1.39 0.70 14976
0.05 -0.00 -0.12 -11.06 20.74 -2.54 1.24 0.83 14982
0.06 -0.01 -0.10 -11.67 20.07 -2.47 1.17 0.97 14988
0.05 -0.00 0.03 -12.38 19.76 -2.34 1.20 1.14 14995
0.04 0.00 0.46 -13.18 19.92 -2.18 1.31 1.32 15001
0.05 -0.00 0.87 -14.21 20.54 -2.17 1.49 1.49 15007
0.05 -0.00 0.71 -15.39 21.01 -2.22 1.70 1.66 15014
0.05 -0.01 0.11 -16.60 20.94 -2.40 1.89 1.84 15021
0.05 -0.00 -0.67 -17.82 19.66 -2.65 2.04 2.04 15027
0.06 -0.01 -1.96 -19.53 17.05 -2.89 2.15 2.25 15033
0.05 -0.01 -3.28 -21.24 13.60 -3.02 2.21 2.49 15040
0.06 -0.01 -4.82 -23.24 10.58 -2.94 2.21 2.73 15046
0.05 -0.01 -6.43 -26.24 7.74 -2.65 2.13 2.92 15052
0.04 -0.00 -7.59 -29.38 5.19 -2.19 1.85 3.00 15058
0.05 -0.01 -8.89 -31.77 2.63 -1.66 1.42 2.96 15066
0.04 -0.00 -9.38 -32.54 0.46 -1.13 0.99 2.80 15072
0.05 -0.00 -9.25 -32.28 -0.47 -0.57 0.62 2.51 15078
0.06 -0.01 -8.96 -30.79 0.40 -0.01 0.36 2.15 15084
0.05 -0.01 -8.16 -28.70 2.34 0.46 0.17 1.73 15090
0.05 -0.00 -7.19 -25.36 5.09 0.85 0.02 1.30 15097
0.06 -0.01 -6.36 -23.08 5.96 1.11 -0.14 0.94 15104
0.04 -0.00 -22.07 -34.43 38.62 4.02 -2.36 0.94 15110
0.04 -0.00 -10.75 -15.17 15.18 3.50 -1.86 1.12 15116
0.05 -0.00 -2.81 -1.05 2.70 3.60 -2.46 1.01 15123
0.05 0.00 3.75 -2.78 5.45 3.01 -2.97 0.81 15129
0.03 0.07 0.39 2.47 12.97 2.71 -3.42 0.73 15135
0.04 0.20 3.75 13.52 12.57 2.66 -1.98 1.20 15141
0.04 0.35 5.49 3.08 3.70 2.93 -0.62 1.69 15149
0.04 0.47 -1.88 -4.06 16.38 3.86 -0.14 1.87 15155
0.03 0.66 -12.17 -7.44 20.45 4.23 -0.27 1.60 15161
0.02 0.81 -13.06 -7.62 22.54 4.28 -0.86 0.90 15167
0.00 0.98 -5.73 -3.67 25.44 4.21 -1.05 0.22 15174
0.01 1.00 -3.47 -2.20 23.08 3.66 -0.72 -0.15 15180
0.00 1.02 -3.08 -3.07 20.20 3.05 -0.69 -0.51 15186
-0.01 1.10 1.65 -2.71 17.25 2.79 -0.69 -0.75 15194
0.00 1.10 5.72 -3.37 27.13 2.63 -1.31 -0.67 15200
0.00 1.04 4.81 -2.27 15.78 1.09 -2.00 -0.25 15206
0.01 1.03 1.30 -2.70 13.92 0.59 -1.35 0.10 15212
-0.00 1.11 0.00 -1.88 11.89 0.25 -0.76 0.16 15219
-0.00 1.14 -0.59 -0.58 10.17 0.09 -0.38 0.11 15225
0.00 1.11 -0.03 -0.67 10.34 0.00 -0.19 0.04 15232
0.01 1.09 0.48 -1.01 10.40 -0.03 -0.13 0.02 15238
-0.01 1.08 0.89 -1.12 10.11 -0.03 -0.10 0.03 15245
-0.01 1.13 0.65 -0.96 10.12 -0.03 -0.09 0.04 15251
0.01 1.15 0.44 -0.73 10.06 -0.04 -0.07 0.03 15257
0.01 1.14 0.52 -0.63 9.93 -0.03 -0.07 0.02 15263
-0.00 1.13 0.65 -0.68 9.96 -0.03 -0.07 0.02 15269
0.02 1.11 0.74 -0.65 9.97 -0.03 -0.06 0.02 15277
0.02 1.06 0.59 -0.63 10.08 -0.02 -0.06 0.02 15283
0.03 0.99 0.65 -0.64 10.12 -0.01 -0.06 0.02 15289
0.03 0.95 0.63 -0.67 10.03 -0.01 -0.06 0.02 15295
0.01 0.89 0.58 -0.62 9.94 -0.01 -0.07 0.03 15302
0.03 0.84 0.58 -0.56 10.07 -0.01 -0.06 0.03 15308
0.03 0.78 0.58 -0.66 10.01 0.00 -0.05 0.03 15314
0.04 0.68 0.59 -0.68 10.15 0.01 -0.05 0.03 15321
0.09 0.61 0.61 -0.66 10.02 0.01 -0.06 0.04 15327
0.08 0.58 0.60 -0.71 10.04 0.02 -0.05 0.03 15334
0.11 0.50 0.63 -0.62 9.98 0.02 -0.04 0.04 15340
0.12 0.47 0.61 -0.67 10.05 0.03 -0.03 0.03 15346
0.13 0.35 0.47 -0.46 10.15 0.03 -0.03 0.03 15352
0.14 0.33 0.63 -0.63 10.08 0.04 -0.02 0.03 15360
0.16 0.27 0.61 -0.62 10.01 0.04 -0.02 0.03 15366
