Voltage_01 Voltage_02 Acc_x Acc_y Acc_z Gyro_x Gyro_y Gyro_z Time
5000
0.08 0.01 1.61 0.69 12.65 -4.25 1.76 1.00 17
0.06 -0.00 1.51 -0.07 13.00 -4.27 1.78 1.03 23
0.06 -0.01 1.39 -0.74 14.00 -4.28 1.81 1.05 29
0.05 0.00 1.22 -1.58 14.13 -4.28 1.86 1.04 35
0.05 0.01 0.96 -2.35 14.81 -4.27 1.90 1.01 41
0.05 0.01 0.45 -2.99 15.61 -4.26 1.95 0.96 48
0.06 -0.01 -0.01 -3.53 16.16 -4.25 1.99 0.88 54
0.04 -0.00 -0.54 -3.99 16.53 -4.23 2.00 0.78 60
0.05 0.01 -0.92 -4.34 16.89 -4.21 1.97 0.68 66
0.06 -0.01 -1.07 -4.43 17.42 -4.20 1.90 0.57 73
0.05 -0.01 -1.10 -4.44 18.16 -4.19 1.82 0.48 79
0.05 -0.01 -1.11 -4.63 18.80 -4.18 1.77 0.42 86
0.05 0.00 -1.04 -4.97 19.41 -4.16 1.78 0.36 92
0.06 0.00 -0.94 -5.32 20.01 -4.14 1.83 0.32 98
0.05 0.00 -0.89 -5.92 20.74 -4.12 1.89 0.28 104
0.05 0.00 -0.90 -6.60 21.36 -4.09 1.96 0.26 110
0.05 0.01 -1.00 -7.28 21.99 -4.07 2.03 0.26 116
0.05 -0.00 -1.05 -7.94 22.47 -4.03 2.08 0.30 122
0.05 -0.00 -1.11 -8.46 22.81 -4.00 2.06 0.35 130
0.04 0.00 -1.12 -9.05 22.79 -3.96 2.00 0.41 136
0.04 0.01 -1.16 -9.47 22.63 -3.91 1.88 0.47 142
0.04 -0.00 -1.13 -9.80 22.43 -3.85 1.73 0.52 148
0.04 -0.00 -0.99 -10.03 22.34 -3.78 1.59 0.56 154
0.04 -0.00 -0.93 -10.60 22.57 -3.70 1.48 0.59 160
0.05 -0.01 -1.90 -15.69 21.54 -3.56 1.33 0.64 166
0.04 -0.00 -2.35 -16.46 29.93 -2.32 1.03 0.80 174
0.04 -0.00 -0.62 -9.27 11.18 -2.86 0.72 0.86 180
0.05 0.00 -3.00 -12.52 12.59 -3.21 0.68 0.94 186
0.05 -0.00 -1.20 -15.65 15.49 -3.14 1.19 1.21 192
0.05 0.01 -3.45 -20.12 24.10 -3.21 1.79 1.53 198
0.07 -0.00 -3.77 -22.49 17.99 -2.88 2.42 1.70 205
0.05 -0.00 -6.44 -25.45 15.68 -2.69 2.40 1.78 211
0.05 -0.01 -8.70 -27.35 12.64 -2.53 2.10 1.85 218
0.07 -0.00 -10.62 -29.35 8.47 -2.38 1.68 1.90 224
0.07 -0.01 -11.52 -31.36 4.52 -2.15 1.23 1.89 230
0.06 -0.00 -12.05 -33.47 1.82 -1.76 0.84 1.82 236
0.07 0.00 -11.74 -34.94 0.45 -1.25 0.53 1.65 243
0.06 -0.01 -11.73 -42.83 -1.77 -0.58 0.17 1.39 249
0.06 0.01 -12.56 -37.28 6.77 1.60 -0.24 1.09 256
0.07 -0.00 -12.89 -33.59 0.91 2.14 -0.59 0.80 262
0.06 -0.00 -10.52 -32.93 -0.95 2.68 -1.07 0.47 268
0.06 0.01 -10.42 -38.42 3.17 3.18 -2.15 0.21 275
0.05 0.08 -9.35 -26.98 -3.24 3.32 -3.04 0.03 281
0.04 0.22 -1.17 0.17 5.47 3.70 -3.08 -0.01 287
0.03 0.39 0.83 -4.17 25.80 4.27 -2.07 0.18 293
0.02 0.79 5.28 4.93 27.69 4.28 -0.82 0.50 300
0.00 1.13 -3.76 -2.71 25.09 4.28 -1.10 0.45 306
-0.01 1.37 -6.91 -6.50 31.33 4.28 -1.56 0.11 313
-0.01 1.51 -1.61 -6.35 25.46 4.16 -1.44 -0.09 319
-0.00 1.53 0.30 -4.76 22.47 4.00 -0.88 -0.06 325
-0.01 1.56 -1.65 -2.93 20.94 3.62 -0.60 -0.10 331
-0.01 1.55 0.19 -2.40 20.03 3.29 -0.72 -0.30 337
-0.02 1.52 2.07 -3.15 27.91 2.54 -1.53 -0.33 345
-0.00 1.49 2.58 -1.97 13.07 0.79 -1.07 -0.02 351
0.00 1.47 0.99 -2.27 12.50 0.32 -0.62 0.16 357
-0.00 1.45 0.14 -1.41 10.61 0.09 -0.28 0.20 363
-0.01 1.47 -0.28 -0.87 10.93 0.02 -0.15 0.16 369
0.02 1.45 -0.10 -1.22 10.44 -0.01 -0.11 0.08 375
0.03 1.48 0.75 -1.24 10.12 -0.04 -0.09 0.06 381
0.00 1.51 0.82 -1.15 10.25 -0.06 -0.10 0.08 389
0.04 1.53 0.50 -0.92 10.05 -0.06 -0.09 0.09 395
0.05 1.55 0.56 -0.84 9.98 -0.06 -0.09 0.08 401
0.00 1.57 0.58 -0.81 10.06 -0.05 -0.07 0.07 407
0.01 1.56 0.66 -0.80 9.96 -0.04 -0.06 0.07 413
0.03 1.57 0.61 -0.73 9.98 -0.04 -0.06 0.07 419
0.02 1.52 0.59 -0.69 9.97 -0.03 -0.05 0.06 425
0.04 1.47 0.60 -0.64 9.81 -0.02 -0.03 0.06 432
0.03 1.38 0.55 -0.74 10.20 -0.01 -0.02 0.05 438
0.03 1.33 0.67 -0.70 9.96 -0.01 -0.01 0.05 445
0.06 1.25 0.65 -0.75 10.06 0.00 -0.00 0.05 451
0.07 1.18 0.70 -0.76 10.20 0.01 -0.00 0.05 457
0.09 1.07 0.64 -0.80 10.07 0.02 -0.00 0.05 463
0.11 0.96 0.61 -0.76 10.07 0.03 -0.00 0.05 470
0.14 0.85 0.64 -0.77 10.05 0.03 0.00 0.06 476
0.14 0.81 0.74 -0.75 10.02 0.03 0.00 0.05 482
0.15 0.73 0.67 -0.70 10.02 0.04 0.00 0.05 488
0.17 0.62 0.73 -0.74 10.05 0.05 -0.00 0.05 495
0.19 0.47 0.75 -0.82 10.01 0.05 -0.00 0.05 501
0.21 0.43 0.78 -0.79 10.14 0.06 -0.00 0.05 507
0.24 0.34 0.76 -0.78 10.07 0.06 -0.01 0.05 514
0.27 0.33 0.73 -0.93 10.14 0.06 -0.01 0.04 520
0.27 0.27 0.68 -0.82 10.05 0.06 -0.01 0.04 526
0.29 0.20 0.74 -0.86 10.02 0.06 -0.02 0.03 532
0.32 0.13 0.69 -0.82 9.97 0.06 -0.02 0.03 538
0.37 0.11 0.72 -0.86 10.05 0.06 -0.02 0.03 545
0.40 0.06 0.73 -0.78 10.04 0.06 -0.02 0.03 551
0.40 0.03 0.93 -0.81 10.21 0.07 -0.02 0.03 558
0.43 0.02 0.68 -0.89 10.05 0.08 -0.02 0.03 564
0.46 -0.02 0.67 -0.87 10.06 0.09 -0.02 0.03 570
0.49 -0.01 0.75 -0.96 10.10 0.10 -0.02 0.03 576
0.51 -0.03 0.76 -0.78 10.04 0.12 -0.02 0.03 582
0.57 -0.04 0.74 -0.97 10.10 0.15 -0.02 0.02 588
0.60 -0.03 0.75 -0.97 10.11 0.17 -0.03 0.02 595
0.62 -0.04 0.75 -0.94 10.05 0.20 -0.03 0.01 602
0.70 -0.04 0.74 -1.02 10.04 0.20 -0.04 -0.01 608
0.74 -0.05 0.82 -1.02 10.01 0.22 -0.04 -0.02 614
0.80 -0.04 0.85 -1.04 9.97 0.23 -0.04 -0.04 620
0.80 -0.04 0.86 -1.01 10.02 0.23 -0.03 -0.05 626
0.85 -0.02 0.78 -1.04 10.15 0.25 -0.03 -0.06 632
0.86 -0.03 0.74 -1.03 10.17 0.28 -0.04 -0.10 640
0.89 -0.04 0.82 -1.09 10.17 0.32 -0.05 -0.07 646
0.93 -0.03 0.85 -1.14 10.18 0.37 -0.05 -0.08 652
0.96 -0.04 0.85 -1.16 10.23 0.42 -0.06 -0.09 658
1.01 -0.05 0.80 -1.25 10.19 0.47 -0.06 -0.10 664
1.03 -0.04 0.76 -1.29 10.10 0.49 -0.07 -0.11 670
1.09 -0.04 0.71 -1.31 10.20 0.52 -0.06 -0.11 676
1.07 -0.05 0.67 -1.40 10.15 0.54 -0.07 -0.11 684
1.11 -0.05 0.70 -1.45 10.18 0.55 -0.08 -0.10 690
1.13 -0.05 0.73 -1.46 10.10 0.56 -0.10 -0.09 696
1.20 -0.05 0.72 -1.47 10.23 0.57 -0.12 -0.09 702
1.21 -0.05 0.66 -1.49 10.31 0.59 -0.14 -0.09 708
1.24 -0.05 0.74 -1.65 10.42 0.62 -0.16 -0.08 714
1.29 -0.06 0.91 -1.69 10.63 0.68 -0.18 -0.09 721
1.36 -0.05 0.95 -1.73 10.81 0.76 -0.21 -0.11 728
1.42 -0.04 0.95 -1.84 11.02 0.86 -0.25 -0.13 734
1.49 -0.07 1.03 -1.93 11.29 0.93 -0.30 -0.15 740
1.56 -0.07 1.13 -2.00 11.50 1.06 -0.34 -0.17 746
1.64 -0.06 1.09 -2.03 11.73 1.20 -0.39 -0.20 752
1.71 -0.06 1.03 -2.10 11.91 1.32 -0.46 -0.24 759
1.75 -0.07 0.87 -2.14 11.82 1.46 -0.51 -0.26 765
1.76 -0.06 0.84 -2.36 12.15 1.61 -0.58 -0.27 772
1.83 -0.06 0.49 -2.24 12.24 1.78 -0.62 -0.28 778
1.87 -0.07 0.36 -2.38 12.65 1.95 -0.66 -0.26 784
1.90 -0.06 0.20 -2.21 12.96 2.13 -0.68 -0.24 790
1.93 -0.07 0.43 -2.37 12.97 2.32 -0.69 -0.23 797
1.94 -0.06 0.43 -2.65 13.75 2.48 -0.67 -0.22 803
1.95 -0.05 0.28 -2.44 12.95 2.65 -0.63 -0.23 809
1.93 -0.06 0.19 -2.92 14.12 2.90 -0.56 -0.23 816
1.93 -0.07 6.22 -3.79 12.85 3.17 -0.50 -0.26 822
1.85 -0.06 0.15 -3.57 14.37 3.48 -0.49 -0.24 829
1.78 -0.06 0.15 -3.27 14.97 3.84 -0.48 -0.25 835
1.71 -0.06 0.08 -3.31 16.25 4.16 -0.50 -0.25 841
1.56 -0.06 0.18 -3.51 16.93 4.28 -0.53 -0.24 847
1.43 -0.04 1.10 -4.39 18.54 4.28 -0.62 -0.26 854
1.26 -0.05 2.66 -5.87 20.13 4.28 -0.72 -0.38 860
1.08 -0.05 2.78 -6.82 22.81 4.28 -0.84 -0.54 867
0.99 -0.04 1.01 -8.20 25.75 4.28 -0.96 -0.66 873
0.87 -0.04 2.32 -12.36 30.48 4.28 -1.06 -0.73 879
0.75 -0.04 3.01 -16.55 34.45 4.28 -0.98 -0.79 885
0.65 -0.03 5.11 -15.89 33.88 4.28 -0.60 -0.81 891
0.56 -0.04 5.91 -13.75 31.50 4.28 -0.17 -0.90 899
0.43 -0.02 4.17 -10.02 30.52 4.28 0.28 -0.98 905
0.30 -0.03 2.19 -6.23 31.48 4.28 0.51 -1.05 911
0.22 -0.02 1.12 -4.25 34.11 4.28 0.47 -1.16 917
0.16 -0.01 2.04 -1.87 35.84 4.28 -0.06 -1.26 923
0.14 -0.01 5.28 1.12 36.21 4.28 -0.66 -1.37 930
0.13 -0.01 8.67 4.50 35.92 4.28 -1.06 -1.46 936
0.10 -0.01 10.01 12.35 28.22 4.28 -0.86 -1.45 943
0.11 -0.01 12.70 19.97 23.41 4.28 -0.46 -1.57 949
0.07 -0.01 10.84 22.72 7.93 4.23 -0.00 -1.99 955
0.07 -0.01 9.40 25.87 -4.51 2.83 -0.04 -2.60 961
0.08 -0.01 8.81 18.98 31.05 1.65 0.76 -2.64 968
0.06 -0.01 9.93 14.69 35.51 -0.54 1.49 -2.28 974
0.05 -0.00 6.25 15.11 23.74 -2.28 1.75 -1.84 980
0.06 -0.00 3.84 15.11 15.48 -3.13 1.46 -1.45 987
0.06 -0.01 2.76 12.53 13.42 -3.73 0.97 -1.14 993
0.05 -0.01 3.16 10.06 11.56 -4.14 0.58 -0.84 999
0.07 -0.01 3.81 8.28 9.40 -4.23 0.36 -0.62 1006
0.06 -0.01 4.31 6.72 8.18 -4.21 0.33 -0.44 1012
0.06 -0.01 4.56 5.50 7.53 -4.17 0.48 -0.28 1018
0.04 -0.00 4.60 4.91 7.28 -4.13 0.75 -0.16 1025
0.06 -0.01 4.42 4.75 7.33 -4.11 1.01 -0.08 1031
0.07 -0.01 4.16 4.55 7.63 -4.13 1.32 -0.03 1037
0.06 -0.01 3.57 4.24 8.28 -4.19 1.58 -0.00 1043
0.05 -0.00 2.96 3.86 9.13 -4.25 1.76 0.02 1049
0.07 -0.01 2.35 3.32 9.85 -4.28 1.86 0.05 1055
0.07 -0.01 1.85 2.83 10.43 -4.28 1.88 0.10 1062
0.06 -0.01 1.37 2.41 10.99 -4.28 1.85 0.18 1069
0.07 -0.00 0.95 1.92 11.58 -4.28 1.77 0.27 1075
0.07 -0.01 0.54 1.60 12.00 -4.28 1.75 0.37 1081
0.07 -0.01 0.28 1.20 12.35 -4.28 1.68 0.50 1087
0.07 -0.01 0.27 0.89 12.61 -4.28 1.62 0.55 1093
0.07 -0.01 0.36 0.58 12.96 -4.28 1.57 0.61 1100
0.06 -0.01 0.57 0.27 13.40 -4.28 1.56 0.65 1106
0.06 -0.01 0.71 -0.06 14.15 -4.28 1.61 0.66 1113
0.07 -0.01 0.89 -0.51 14.91 -4.28 1.68 0.64 1119
0.06 -0.01 1.00 -0.96 15.80 -4.28 1.81 0.59 1125
0.06 0.00 0.95 -1.47 16.61 -4.28 1.96 0.52 1131
0.07 0.01 0.68 -1.87 17.43 -4.28 2.13 0.43 1138
0.06 0.00 0.11 -2.57 18.13 -4.28 2.28 0.33 1144
0.05 0.01 -0.39 -2.90 18.82 -4.28 2.43 0.22 1150
0.07 0.01 -0.98 -3.29 19.34 -4.28 2.53 0.11 1157
0.05 -0.00 -1.51 -3.63 19.90 -4.28 2.58 0.08 1163
0.05 -0.00 -1.78 -4.14 20.48 -4.28 2.57 0.04 1170
0.05 -0.00 -2.04 -4.72 20.88 -4.28 2.52 0.05 1176
0.05 -0.00 -2.21 -5.33 21.06 -4.28 2.43 0.08 1182
0.04 -0.00 -2.29 -5.91 21.19 -4.28 2.28 0.14 1188
0.06 -0.00 -2.26 -6.28 21.31 -4.22 2.10 0.22 1195
0.05 -0.01 -1.92 -6.58 22.01 -4.12 1.89 0.32 1202
0.05 0.00 -1.16 -6.87 23.26 -4.01 1.70 0.41 1208
0.05 0.00 -0.48 -7.38 24.83 -3.84 1.55 0.50 1214
0.05 -0.00 0.60 -8.50 26.01 -3.82 1.41 0.61 1220
0.05 -0.01 0.54 -10.09 26.52 -3.81 1.29 0.75 1226
0.06 -0.00 0.96 -11.81 26.43 -3.80 1.14 0.92 1233
0.05 -0.00 1.42 -14.15 25.41 -3.77 1.02 1.13 1240
0.05 0.01 1.34 -16.25 24.30 -3.68 1.03 1.38 1246
0.05 -0.01 0.91 -17.88 24.81 -3.59 1.38 1.65 1252
0.05 -0.00 0.18 -20.81 24.87 -3.57 1.87 1.87 1259
0.06 0.00 -1.35 -23.55 24.33 -3.63 2.16 2.04 1265
0.06 -0.00 -2.76 -26.53 22.64 -3.72 2.20 2.22 1271
0.07 -0.00 -4.32 -28.84 19.22 -3.74 2.06 2.40 1277
0.07 -0.01 -5.17 -31.39 14.09 -3.59 1.78 2.57 1285
0.06 -0.01 -5.97 -34.31 9.03 -3.24 1.45 2.66 1291
0.07 -0.01 -6.63 -37.26 4.67 -2.73 1.20 2.70 1297
0.07 -0.01 -7.27 -39.64 1.58 -2.15 1.03 2.60 1303
0.06 0.00 -7.97 -41.05 0.29 -1.53 0.88 2.36 1309
0.08 -0.00 -8.45 -41.07 0.53 -0.92 0.74 1.99 1316
0.06 -0.01 -8.79 -39.41 2.03 -0.35 0.59 1.54 1323
0.07 -0.00 -8.83 -36.49 3.90 0.16 0.38 1.07 1329
0.07 -0.01 -8.42 -32.83 5.82 0.54 0.09 0.66 1335
0.06 -0.01 -9.97 -55.46 -6.59 0.89 -0.59 0.43 1341
0.06 -0.00 0.24 -31.48 -5.95 4.11 -0.90 0.54 1347
0.05 -0.01 -5.86 -16.84 -5.38 3.94 -1.76 0.55 1354
0.06 0.07 0.53 -14.83 -5.95 3.75 -2.63 0.37 1360
0.05 0.18 1.34 0.53 11.10 3.63 -3.28 0.43 1367
0.05 0.39 1.84 15.86 20.24 4.16 -1.71 1.03 1373
0.00 0.68 8.01 2.53 16.09 4.23 -0.37 1.47 1380
-0.00 1.07 -1.92 -7.86 27.02 4.28 -0.52 1.46 1386
-0.00 1.45 -10.29 -7.41 26.37 4.28 -0.92 1.13 1392
-0.01 1.63 -6.36 -8.22 29.52 4.28 -1.10 0.63 1398
0.00 1.73 -4.70 -4.86 29.42 4.28 -0.57 0.28 1405
-0.02 1.75 -6.67 -2.50 22.92 4.03 -0.44 -0.30 1412
-0.03 1.82 -0.95 -2.40 17.20 3.52 -0.50 -0.67 1418
-0.02 1.75 4.58 -2.59 18.30 3.47 -0.58 -0.76 1424
0.00 1.74 5.02 -2.42 28.58 2.58 -2.11 -0.53 1430
0.01 1.72 4.29 -3.48 14.55 1.00 -1.79 -0.02 1437
0.00 1.73 0.25 -2.43 12.26 0.47 -0.96 0.23 1443
-0.01 1.71 -0.89 -1.16 11.43 0.20 -0.48 0.21 1449
0.01 1.71 -0.47 -0.76 10.53 0.05 -0.20 0.10 1456
-0.00 1.69 0.67 -1.35 10.25 -0.00 -0.12 0.06 1463
0.01 1.70 1.27 -1.31 9.96 -0.03 -0.10 0.08 1469
0.02 1.70 0.71 -0.92 10.06 -0.04 -0.11 0.10 1475
0.01 1.70 0.38 -0.70 10.12 -0.04 -0.10 0.08 1481
0.01 1.71 0.53 -0.72 10.12 -0.04 -0.07 0.07 1487
-0.00 1.67 0.76 -0.79 10.02 -0.03 -0.06 0.08 1495
0.01 1.60 0.74 -0.85 10.10 -0.02 -0.05 0.08 1501
0.03 1.54 0.60 -0.68 10.18 -0.01 -0.03 0.07 1507
0.04 1.46 0.64 -0.66 10.13 -0.00 -0.02 0.06 1513
0.03 1.40 0.29 -0.91 10.24 0.01 0.00 0.06 1519
0.06 1.31 0.68 -0.60 10.00 0.02 0.01 0.06 1525
0.08 1.19 0.75 -0.69 10.07 0.03 0.00 0.06 1532
0.08 1.07 0.72 -0.71 10.04 0.04 0.01 0.06 1539
0.10 1.00 0.73 -0.68 10.04 0.05 0.00 0.07 1545
0.11 0.87 0.76 -0.68 10.00 0.05 0.01 0.07 1551
0.14 0.78 0.76 -0.73 10.05 0.06 0.01 0.07 1557
0.16 0.63 0.78 -0.58 10.09 0.06 0.00 0.06 1564
0.18 0.52 0.76 -0.84 10.18 0.07 0.00 0.07 1570
0.19 0.44 0.77 -0.74 9.95 0.08 -0.00 0.06 1576
0.18 0.33 0.71 -0.67 9.89 0.09 -0.00 0.05 1583
0.20 0.27 0.64 -1.13 9.86 0.09 -0.01 0.06 1589
0.21 0.20 0.82 -0.79 9.98 0.09 -0.01 0.04 1595
0.21 0.20 0.81 -0.81 9.95 0.09 -0.01 0.03 1601
0.25 0.13 0.82 -0.88 10.16 0.08 -0.02 0.02 1608
0.28 0.07 0.76 -0.83 9.97 0.08 -0.03 0.02 1614
0.27 0.05 0.81 -0.82 9.94 0.08 -0.04 0.01 1620
0.29 0.02 0.83 -0.90 9.96 0.07 -0.04 0.01 1627
0.34 0.01 0.81 -0.83 9.92 0.08 -0.05 0.00 1633
0.32 -0.02 0.68 -1.09 9.87 0.08 -0.05 0.00 1639
0.35 -0.02 0.64 -1.05 9.87 0.08 -0.06 0.00 1645
0.35 -0.01 0.72 -0.91 10.03 0.08 -0.06 -0.00 1652
0.39 -0.02 0.74 -0.88 9.96 0.08 -0.06 -0.00 1658
0.42 -0.01 0.82 -0.99 9.98 0.08 -0.06 -0.01 1665
0.44 -0.02 0.75 -0.93 9.88 0.07 -0.06 -0.00 1671
0.47 -0.03 0.78 -0.95 9.94 0.07 -0.06 -0.01 1677
0.52 -0.03 0.65 -0.95 9.98 0.06 -0.06 -0.01 1683
0.54 -0.03 0.86 -1.02 9.98 0.06 -0.06 -0.01 1689
0.58 -0.03 0.80 -0.99 9.97 0.06 -0.06 -0.02 1696
0.57 -0.04 0.83 -0.97 9.93 0.06 -0.05 -0.02 1702
0.58 -0.04 0.76 -0.98 9.99 0.07 -0.05 -0.02 1709
0.62 -0.03 0.74 -0.99 10.03 0.07 -0.04 -0.03 1715
0.63 -0.04 0.80 -0.95 10.06 0.08 -0.03 -0.04 1721
0.65 -0.04 0.74 -0.94 10.02 0.10 -0.03 -0.04 1727
0.73 -0.03 0.77 -1.02 10.02 0.11 -0.01 -0.04 1734
0.75 -0.05 0.69 -1.03 9.95 0.13 -0.00 -0.03 1740
0.79 -0.05 0.68 -1.05 10.05 0.14 -0.00 -0.02 1746
0.86 -0.03 0.71 -1.04 10.09 0.15 0.01 -0.01 1753
0.91 -0.05 0.71 -1.02 10.03 0.18 0.01 -0.01 1759
0.93 -0.04 0.84 -1.10 10.13 0.19 0.01 0.00 1766
0.99 -0.05 0.73 -1.11 10.28 0.28 0.00 0.01 1772
1.03 -0.05 0.75 -1.12 10.44 0.37 0.01 0.01 1778
1.14 -0.05 0.88 -1.20 10.56 0.50 0.01 0.00 1784
1.23 -0.05 0.96 -1.28 10.91 0.67 0.03 -0.02 1790
1.26 -0.06 0.98 -1.36 11.29 0.87 0.03 -0.04 1798
1.32 -0.05 1.12 -1.45 11.77 1.10 0.03 -0.08 1804
1.41 -0.06 1.24 -1.46 12.00 1.31 -0.00 -0.11 1810
1.44 -0.07 1.35 -1.75 12.29 1.51 -0.05 -0.16 1816
1.48 -0.05 1.32 -1.66 12.91 1.68 -0.12 -0.20 1822
1.55 -0.06 1.11 -1.73 12.39 1.78 -0.18 -0.22 1829
1.58 -0.06 0.87 -1.91 12.49 1.93 -0.27 -0.23 1836
1.60 -0.05 0.85 -1.98 13.04 2.08 -0.33 -0.22 1842
1.64 -0.06 0.70 -1.86 13.71 2.25 -0.39 -0.21 1848
1.63 -0.05 0.90 -2.21 12.77 2.43 -0.40 -0.19 1855
1.65 -0.05 0.63 -2.18 13.06 2.63 -0.40 -0.17 1861
1.67 -0.08 0.46 -2.30 12.98 2.82 -0.40 -0.16 1867
1.63 -0.05 0.60 -2.82 12.89 2.99 -0.39 -0.15 1873
1.65 -0.06 0.68 -2.67 14.20 3.24 -0.29 -0.14 1881
1.62 -0.07 0.83 -2.76 13.80 3.56 -0.22 -0.15 1887
1.57 -0.06 0.90 -2.90 13.90 3.90 -0.14 -0.17 1893
1.53 -0.08 0.83 -3.03 14.45 4.14 -0.02 -0.18 1899
1.47 -0.05 0.94 -3.33 15.74 4.27 0.02 -0.24 1905
1.34 -0.06 0.42 -3.36 16.51 4.28 0.03 -0.26 1912
1.18 -0.06 1.11 -4.24 18.57 4.28 -0.01 -0.27 1918
1.01 -0.04 2.45 -5.35 20.42 4.28 -0.12 -0.31 1925
0.90 -0.04 2.90 -6.97 23.16 4.28 -0.24 -0.44 1931
0.79 -0.04 3.49 -9.27 26.22 4.28 -0.37 -0.58 1938
0.71 -0.04 2.81 -12.65 31.50 4.28 -0.39 -0.62 1944
0.66 -0.04 3.89 -15.48 35.60 4.28 -0.19 -0.57 1950
0.51 -0.03 4.33 -15.42 34.83 4.28 0.16 -0.55 1957
0.45 -0.03 2.31 -13.95 33.01 4.28 0.56 -0.53 1964
0.34 -0.02 1.82 -10.82 31.22 4.28 0.77 -0.51 1970
0.24 -0.02 -0.01 -8.01 32.89 4.28 0.81 -0.54 1976
0.20 -0.02 -0.76 -5.39 38.13 4.28 0.51 -0.67 1982
0.19 -0.01 1.24 -2.28 37.95 4.28 -0.15 -0.77 1989
0.14 -0.01 4.22 1.58 40.19 4.28 -0.77 -0.85 1995
0.10 -0.01 7.06 8.12 35.04 4.28 -0.96 -0.82 2001
0.09 -0.00 10.81 16.99 29.06 4.28 -0.73 -0.80 2008
0.08 -0.01 12.09 21.14 20.23 4.28 -0.13 -1.10 2015
0.05 -0.00 9.26 23.14 0.21 4.10 0.75 -1.94 2021
0.06 -0.01 8.38 22.32 6.57 2.96 0.68 -2.72 2027
0.05 -0.00 8.40 16.96 33.56 1.40 1.44 -2.83 2033
0.06 -0.01 8.39 17.09 34.50 -0.82 2.36 -2.68 2039
0.07 -0.01 4.03 17.34 22.57 -2.31 2.38 -2.55 2046
0.06 -0.01 1.11 16.65 16.12 -3.11 1.73 -2.37 2053
0.06 -0.00 0.52 14.06 16.54 -3.89 1.00 -2.01 2059
0.05 -0.00 0.35 11.76 12.57 -4.27 0.50 -1.71 2065
0.05 -0.00 1.97 9.68 11.42 -4.28 0.15 -1.44 2071
0.05 -0.01 2.88 7.84 10.15 -4.28 -0.07 -1.24 2078
0.05 -0.01 3.29 6.40 9.12 -4.28 -0.15 -1.07 2084
0.05 -0.01 3.75 5.30 8.28 -4.28 -0.08 -0.92 2091
0.05 -0.00 4.22 4.47 7.76 -4.28 0.10 -0.78 2097
0.07 -0.01 4.51 3.73 7.51 -4.28 0.32 -0.68 2103
0.05 -0.01 4.66 3.24 7.85 -4.28 0.52 -0.61 2109
0.05 -0.01 4.50 2.85 8.39 -4.28 0.74 -0.57 2115
0.05 -0.01 4.31 2.54 9.04 -4.28 0.91 -0.51 2121
0.06 -0.01 3.94 2.17 9.54 -4.28 1.04 -0.44 2127
0.05 -0.01 3.56 1.86 10.09 -4.28 1.15 -0.35 2135
0.04 -0.00 3.28 1.47 10.58 -4.28 1.24 -0.23 2141
0.05 0.00 2.93 1.00 11.39 -4.28 1.29 -0.09 2147
0.05 -0.01 2.77 0.58 12.34 -4.28 1.31 0.05 2153
0.05 -0.00 2.66 0.22 13.14 -4.28 1.30 0.19 2159
0.05 0.00 2.68 -0.14 13.85 -4.28 1.29 0.33 2165
0.06 -0.01 2.68 -0.46 14.48 -4.28 1.26 0.40 2172
0.05 -0.01 2.84 -0.81 15.10 -4.28 1.27 0.48 2179
0.05 -0.01 3.14 -1.39 15.53 -4.28 1.32 0.52 2185
0.05 -0.00 3.37 -2.37 15.97 -4.28 1.43 0.52 2191
0.06 -0.01 3.43 -3.42 16.60 -4.28 1.61 0.47 2197
0.05 -0.00 3.18 -4.62 17.55 -4.28 1.84 0.40 2203
0.05 -0.01 2.79 -5.76 18.46 -4.28 2.11 0.30 2210
0.04 -0.00 2.36 -6.44 18.95 -4.28 2.35 0.19 2216
0.04 -0.00 1.82 -6.79 19.00 -4.28 2.54 0.11 2223
0.05 -0.01 1.37 -6.93 19.09 -4.28 2.69 0.05 2229
0.06 -0.01 1.14 -7.16 19.51 -4.28 2.78 0.03 2235
0.05 -0.01 0.97 -7.42 20.13 -4.22 2.81 0.04 2241
0.07 -0.01 0.58 -7.73 21.20 -4.11 2.74 0.10 2248
0.07 -0.00 0.32 -7.77 22.92 -3.95 2.61 0.21 2254
0.05 0.00 0.34 -7.79 24.61 -3.82 2.43 0.34 2260
0.07 0.01 0.81 -8.10 26.15 -3.81 2.21 0.50 2267
0.06 -0.01 1.06 -8.80 27.22 -3.90 1.98 0.68 2273
0.04 -0.00 1.46 -9.89 27.23 -3.99 1.76 0.90 2280
0.05 -0.01 1.67 -11.25 26.35 -4.08 1.58 1.13 2286
0.04 -0.00 1.82 -12.69 24.95 -4.12 1.47 1.38 2292
0.04 -0.00 1.65 -14.02 23.23 -4.11 1.49 1.61 2298
0.06 -0.01 0.82 -14.82 21.48 -4.02 1.60 1.81 2305
0.04 -0.00 -0.40 -15.62 20.87 -3.84 1.85 2.01 2312
0.05 -0.01 -2.11 -16.80 21.18 -3.64 2.10 2.19 2318
0.05 -0.01 -3.81 -18.67 22.02 -3.45 2.14 2.30 2324
0.05 -0.00 -5.13 -20.58 21.95 -3.32 1.91 2.33 2330
0.05 0.00 -5.80 -22.49 20.28 -3.22 1.52 2.34 2337
0.05 -0.01 -5.83 -24.78 17.77 -3.11 1.09 2.27 2343
0.05 -0.00 -5.40 -27.57 14.77 -2.98 0.75 2.10 2350
0.07 -0.01 -4.99 -31.01 11.51 -2.79 0.66 1.83 2356
0.05 -0.01 -4.81 -35.15 7.69 -2.51 0.80 1.48 2362
0.04 -0.00 -5.31 -38.71 4.11 -2.12 1.08 1.06 2369
0.06 -0.01 -6.62 -40.26 1.41 -1.60 1.38 0.65 2375
0.05 -0.01 -8.21 -39.82 0.19 -0.99 1.56 0.29 2381
0.04 -0.00 -9.90 -37.80 0.60 -0.43 1.49 -0.00 2387
0.05 -0.01 -10.70 -34.36 2.46 0.20 1.10 -0.22 2394
0.05 -0.00 -15.88 -57.15 19.87 0.93 0.15 -0.17 2401
0.04 -0.00 -6.44 -28.32 -5.63 3.44 -0.90 -0.01 2407
0.05 -0.00 -8.45 -24.55 -0.03 3.62 -2.08 -0.05 2413
0.04 0.01 -6.13 -28.24 -0.45 3.76 -3.39 -0.06 2419
0.04 0.12 -2.56 -12.48 -4.22 3.51 -4.25 -0.09 2425
0.04 0.24 3.38 -1.21 9.82 3.66 -3.65 0.15 2432
0.03 0.56 8.73 8.27 27.44 4.28 -1.58 0.72 2439
0.01 0.97 4.53 -1.29 26.46 4.28 -0.86 1.16 2445
-0.01 1.38 -7.39 -4.95 34.28 4.28 -1.16 1.08 2451
-0.01 1.62 -7.20 -8.34 28.27 4.28 -1.39 0.69 2457
-0.01 1.77 -3.58 -5.91 29.04 4.28 -1.04 0.39 2464
-0.02 1.81 -4.61 -2.39 24.67 3.85 -0.55 0.12 2470
-0.04 1.83 -3.12 -1.56 17.99 3.16 -0.59 -0.32 2477
-0.03 1.78 1.50 -1.69 13.47 3.02 -0.61 -0.57 2483
-0.02 1.73 4.05 -1.51 15.15 3.25 -0.75 -0.52 2490
-0.03 1.74 2.77 -2.87 28.80 2.47 -1.98 -0.33 2496
-0.03 1.77 2.79 -3.55 14.61 0.90 -1.49 0.03 2502
-0.04 1.78 0.06 -2.39 12.46 0.32 -0.72 0.18 2508
-0.00 1.79 -0.57 -1.37 10.82 0.12 -0.36 0.14 2515
-0.02 1.80 -0.01 -0.77 10.34 0.05 -0.17 0.06 2522
-0.00 1.80 1.06 -1.08 10.24 0.02 -0.11 0.04 2528
-0.00 1.81 1.09 -1.18 10.16 -0.01 -0.09 0.07 2534
0.00 1.77 0.69 -0.82 10.06 -0.01 -0.08 0.09 2540
-0.01 1.74 0.51 -0.68 9.99 -0.02 -0.08 0.08 2546
0.01 1.68 0.64 -0.64 9.96 -0.02 -0.07 0.07 2553
0.01 1.67 0.77 -0.66 10.05 -0.02 -0.06 0.07 2560
0.00 1.67 0.57 -0.46 9.84 -0.02 -0.06 0.08 2566
0.03 1.58 0.72 -0.73 10.06 -0.01 -0.07 0.07 2572
0.02 1.47 0.68 -0.73 10.08 0.00 -0.06 0.07 2578
0.04 1.37 0.63 -0.68 10.04 0.01 -0.05 0.07 2585
0.07 1.31 0.64 -0.64 10.07 0.01 -0.03 0.07 2591
0.05 1.21 0.65 -0.69 10.21 0.02 -0.03 0.07 2597
0.04 1.18 0.68 -0.71 10.04 0.03 -0.02 0.07 2604
0.06 1.07 0.68 -0.71 10.21 0.03 -0.01 0.07 2610
0.06 0.96 1.29 -1.28 10.21 0.04 -0.00 0.07 2617
0.09 0.93 0.72 -0.73 10.06 0.04 -0.00 0.07 2623
0.12 0.82 0.73 -0.70 10.04 0.05 -0.00 0.07 2629
0.14 0.67 0.76 -0.70 9.97 0.05 -0.00 0.07 2635
0.14 0.66 0.75 -0.74 9.98 0.06 -0.00 0.06 2641
0.15 0.57 0.57 -0.62 9.93 0.06 -0.00 0.06 2648
0.15 0.44 0.74 -0.69 9.97 0.06 0.00 0.06 2654
0.15 0.40 0.62 -0.68 9.87 0.06 0.00 0.05 2661
0.17 0.31 0.83 -0.74 9.96 0.06 0.01 0.04 2667
0.19 0.24 0.80 -0.80 9.96 0.06 -0.00 0.04 2673
0.19 0.18 0.76 -0.64 10.03 0.05 -0.00 0.04 2679
0.20 0.20 0.79 -0.80 9.92 0.05 -0.00 0.03 2685
0.25 0.14 0.77 -0.78 9.92 0.05 -0.01 0.03 2692
0.25 0.13 0.71 -0.79 10.00 0.05 -0.01 0.03 2698
0.26 0.08 0.79 -0.79 9.97 0.05 -0.01 0.03 2705
0.26 0.08 0.71 -0.75 9.88 0.05 -0.00 0.03 2711
0.30 0.08 0.70 -0.84 10.04 0.05 -0.01 0.03 2717
0.31 0.03 0.79 -0.84 10.00 0.05 -0.01 0.03 2723
0.31 0.01 0.77 -0.84 9.97 0.04 -0.01 0.03 2729
0.32 0.04 0.80 -0.86 9.99 0.04 -0.03 0.03 2736
0.33 -0.01 0.83 -0.86 9.95 0.04 -0.03 0.02 2742
0.32 -0.00 0.81 -0.84 9.90 0.04 -0.05 0.02 2749
0.35 -0.00 0.86 -0.92 9.97 0.03 -0.06 0.01 2755
0.40 -0.02 0.88 -0.86 9.97 0.03 -0.07 -0.00 2761
0.44 -0.04 0.85 -0.89 9.90 0.02 -0.07 -0.01 2767
0.43 -0.03 0.77 -0.90 9.96 0.02 -0.07 -0.02 2774
0.48 -0.01 0.79 -0.93 9.87 0.02 -0.07 -0.02 2780
0.49 -0.02 0.77 -0.92 9.91 0.01 -0.06 -0.03 2786
0.52 -0.02 0.73 -0.90 9.93 0.02 -0.06 -0.03 2792
0.55 -0.03 0.71 -0.87 10.00 0.02 -0.06 -0.03 2799
0.63 -0.02 0.74 -0.88 9.99 0.03 -0.06 -0.03 2805
0.67 -0.04 0.72 -0.92 9.95 0.03 -0.06 -0.02 2811
0.72 -0.03 0.72 -0.89 10.10 0.04 -0.05 -0.02 2818
0.76 -0.04 0.70 -0.87 10.06 0.06 -0.05 -0.01 2824
0.81 -0.05 0.68 -0.79 9.99 0.08 -0.05 -0.01 2831
0.83 -0.05 0.72 -0.97 10.09 0.09 -0.05 -0.01 2837
0.92 -0.04 0.75 -0.87 10.15 0.12 -0.04 -0.01 2843
0.99 -0.06 0.82 -0.95 10.27 0.16 -0.03 -0.02 2849
1.08 -0.04 0.87 -0.95 10.35 0.21 -0.04 -0.03 2855
1.17 -0.05 1.02 -1.05 10.96 0.29 -0.04 -0.05 2863
1.22 -0.06 0.99 -1.08 10.72 0.41 -0.05 -0.07 2869
1.29 -0.05 1.03 -1.19 10.90 0.58 -0.06 -0.09 2875
1.34 -0.07 1.16 -1.26 11.46 0.83 -0.08 -0.12 2881
1.44 -0.07 1.08 -1.26 12.05 1.16 -0.10 -0.16 2887
1.51 -0.06 1.21 -1.48 12.52 1.46 -0.12 -0.19 2894
1.57 -0.07 1.25 -1.54 12.54 1.69 -0.15 -0.22 2900
1.62 -0.05 1.05 -1.65 13.19 1.85 -0.24 -0.24 2907
1.65 -0.06 1.10 -1.76 13.45 2.00 -0.32 -0.24 2913
1.67 -0.07 0.87 -1.83 13.29 2.17 -0.39 -0.23 2920
1.72 -0.06 1.07 -1.85 12.73 2.34 -0.44 -0.20 2926
1.77 -0.07 0.28 -1.78 12.88 2.52 -0.51 -0.19 2932
1.76 -0.07 0.52 -1.98 13.86 2.71 -0.54 -0.18 2938
1.79 -0.05 0.42 -2.35 14.15 2.88 -0.52 -0.19 2946
1.76 -0.07 0.75 -2.37 14.07 3.09 -0.49 -0.19 2952
1.75 -0.06 0.86 -2.45 14.65 3.31 -0.46 -0.20 2958
1.74 -0.07 0.89 -2.47 14.43 3.60 -0.40 -0.20 2964
1.71 -0.07 0.01 -2.43 15.51 3.94 -0.34 -0.22 2970
1.62 -0.06 -0.31 -3.03 16.08 4.20 -0.27 -0.24 2977
1.52 -0.06 1.30 -3.23 17.12 4.28 -0.31 -0.25 2983
1.39 -0.07 2.56 -3.23 18.57 4.28 -0.54 -0.35 2990
1.22 -0.06 4.11 -4.42 19.90 4.28 -0.72 -0.54 2996
1.05 -0.05 2.25 -3.87 20.85 4.28 -0.88 -0.75 3003
0.94 -0.03 3.70 -7.86 25.41 4.28 -1.12 -0.90 3009
0.80 -0.04 3.71 -11.74 29.81 4.28 -1.27 -1.01 3015
0.68 -0.04 4.23 -15.11 35.88 4.28 -1.21 -1.07 3021
0.61 -0.04 5.04 -13.81 35.57 4.28 -0.89 -1.12 3028
0.47 -0.03 5.81 -14.78 31.91 4.28 -0.46 -1.17 3035
0.40 -0.03 3.95 -10.61 29.84 4.28 -0.10 -1.22 3041
0.32 -0.03 3.14 -6.72 32.19 4.28 0.23 -1.25 3047
0.20 -0.01 2.25 -3.70 37.47 4.28 0.14 -1.33 3054
0.12 -0.01 3.22 -1.49 38.40 4.28 -0.41 -1.48 3060
0.12 -0.01 6.16 1.88 38.74 4.28 -1.18 -1.61 3066
0.11 -0.01 7.71 5.94 36.04 4.28 -1.60 -1.64 3073
0.09 -0.01 11.63 17.40 27.82 4.28 -1.56 -1.55 3080
0.06 -0.01 12.77 23.77 21.85 4.28 -1.29 -1.61 3086
0.06 -0.01 12.41 28.06 -1.53 3.57 -0.83 -1.98 3092
0.05 -0.01 9.13 26.73 6.98 2.13 -0.81 -2.48 3098
0.06 -0.01 11.65 17.82 34.48 0.61 0.20 -2.44 3104
0.06 -0.01 10.26 15.43 33.87 -1.41 1.00 -2.08 3111
0.04 -0.00 5.99 17.18 21.42 -2.60 1.28 -1.64 3118
0.06 -0.01 4.18 16.64 14.12 -3.17 1.09 -1.24 3124
0.06 -0.01 3.88 14.56 12.13 -3.75 0.69 -0.90 3130
0.05 -0.00 3.98 12.20 10.06 -4.13 0.34 -0.66 3137
0.07 -0.01 4.28 10.07 8.88 -4.20 0.14 -0.47 3143
0.05 -0.01 4.60 8.26 8.62 -4.20 0.14 -0.30 3149
0.04 -0.00 4.69 7.12 8.24 -4.19 0.27 -0.15 3155
0.05 0.00 4.85 6.53 7.45 -4.18 0.48 -0.04 3162
0.05 -0.01 4.90 6.06 7.07 -4.17 0.73 0.01 3168
0.06 -0.01 4.61 5.55 7.12 -4.20 0.97 0.04 3174
0.06 -0.01 4.16 5.03 7.91 -4.24 1.22 0.06 3180
0.07 -0.00 3.70 4.47 8.84 -4.27 1.43 0.07 3187
0.06 -0.01 3.36 3.84 9.72 -4.28 1.58 0.08 3193
0.06 -0.01 2.91 3.25 10.60 -4.28 1.64 0.10 3200
0.05 -0.00 2.33 2.67 11.50 -4.28 1.69 0.14 3206
0.06 -0.01 1.55 2.55 12.20 -4.28 1.67 0.19 3212
0.05 -0.00 1.36 1.83 12.03 -4.28 1.70 0.26 3218
0.05 -0.00 1.41 0.52 13.27 -4.28 1.67 0.32 3225
0.07 -0.01 1.26 0.13 13.80 -4.28 1.66 0.37 3231
0.06 -0.01 1.84 -0.73 13.74 -4.28 1.73 0.42 3237
0.03 -0.00 1.53 -1.20 14.78 -4.28 1.74 0.44 3244
0.05 0.00 1.31 -1.42 15.43 -4.28 1.81 0.43 3250
0.05 -0.00 1.48 -1.73 15.97 -4.28 1.92 0.40 3256
0.04 -0.00 1.23 -2.34 16.83 -4.28 2.02 0.35 3263
0.05 -0.00 0.79 -2.79 18.07 -4.28 2.12 0.28 3269
0.05 -0.01 0.39 -3.34 18.84 -4.28 2.27 0.23 3275
0.04 -0.00 0.20 -3.89 19.38 -4.28 2.40 0.18 3281
0.05 0.00 -0.23 -4.14 20.16 -4.28 2.50 0.15 3288
0.05 -0.00 -0.67 -4.28 20.69 -4.28 2.55 0.18 3294
0.04 -0.00 -1.16 -4.51 21.10 -4.28 2.57 0.24 3301
0.04 0.01 -1.48 -4.85 21.31 -4.27 2.56 0.34 3307
0.05 -0.00 -1.85 -5.54 21.85 -4.24 2.49 0.46 3313
0.05 -0.00 -2.11 -6.31 22.48 -4.15 2.37 0.58 3319
0.05 0.00 -2.36 -7.17 23.18 -4.07 2.18 0.70 3325
0.05 -0.01 -2.31 -8.02 23.84 -3.90 1.93 0.81 3333
0.04 -0.00 -2.04 -8.83 24.90 -3.74 1.62 0.92 3339
0.04 0.00 -1.33 -9.44 26.31 -3.65 1.38 1.02 3345
0.05 -0.00 -0.61 -10.20 27.30 -3.66 1.09 1.12 3351
0.04 -0.00 0.38 -11.35 27.51 -3.75 0.87 1.17 3357
0.04 0.00 1.33 -13.04 26.77 -3.87 0.75 1.26 3364
0.04 -0.00 1.92 -14.70 24.77 -3.97 0.79 1.39 3371
0.05 -0.00 1.74 -16.87 22.74 -4.00 1.09 1.57 3377
0.06 -0.01 -1.75 -24.15 25.60 -3.48 1.40 1.78 3383
0.05 -0.01 -0.84 -18.21 11.54 -3.36 1.79 1.94 3389
0.05 -0.01 -1.23 -20.62 10.47 -3.63 1.73 2.04 3396
0.06 -0.01 -2.18 -25.44 20.04 -3.52 1.50 2.17 3402
0.06 -0.01 -3.67 -29.31 17.19 -3.30 1.37 2.29 3408
0.06 0.00 -3.61 -32.16 15.83 -2.82 1.26 2.33 3415
0.06 -0.01 -4.22 -33.64 10.81 -2.35 1.16 2.30 3422
0.06 -0.01 -5.13 -34.83 6.42 -1.99 1.17 2.19 3428
0.07 -0.01 -5.72 -36.69 3.49 -1.70 1.22 2.00 3434
0.06 -0.01 -6.28 -38.09 2.43 -1.44 1.21 1.70 3440
0.05 -0.00 -6.82 -38.07 2.23 -1.03 1.16 1.33 3446
0.07 -0.01 -7.41 -37.86 1.35 -0.54 1.02 0.93 3453
0.05 -0.01 -12.74 -42.64 29.77 1.39 0.53 0.58 3460
0.05 -0.01 -10.22 -33.04 6.83 2.35 0.42 0.44 3466
0.06 -0.01 -9.28 -25.82 -1.14 2.86 -0.31 0.22 3472
0.06 -0.00 -10.44 -33.15 1.51 3.08 -1.69 0.06 3478
0.04 0.09 -8.31 -35.49 -0.11 3.11 -3.16 -0.04 3485
0.05 0.23 -1.55 -1.28 -1.77 3.09 -3.67 0.01 3491
0.03 0.49 4.80 -6.37 18.32 4.01 -2.46 0.27 3497
0.01 0.83 9.03 6.06 28.50 4.28 -0.70 0.84 3504
0.00 1.25 -3.34 -2.51 26.03 4.28 -0.67 1.06 3510
-0.02 1.56 -8.61 -8.30 33.83 4.28 -1.24 0.71 3517
-0.00 1.72 -3.19 -7.30 26.19 4.28 -1.36 0.42 3523
-0.04 1.81 -2.45 -5.01 26.92 4.27 -0.70 0.30 3529
-0.03 1.80 -4.57 -2.37 22.02 3.76 -0.46 -0.03 3535
-0.01 1.74 -0.68 -1.99 18.48 3.26 -0.69 -0.45 3543
-0.01 1.70 3.64 -2.65 22.52 3.05 -1.15 -0.54 3549
-0.01 1.71 4.02 -1.28 19.44 1.63 -1.99 -0.31 3555
-0.00 1.63 2.32 -3.02 14.14 0.73 -1.29 0.09 3561
-0.01 1.66 0.09 -2.00 12.15 0.30 -0.62 0.21 3568
0.01 1.64 -0.64 -1.00 10.90 0.13 -0.27 0.16 3574
-0.02 1.62 -0.01 -0.88 10.20 0.03 -0.14 0.06 3580
-0.01 1.59 0.80 -1.24 10.14 -0.00 -0.11 0.04 3587
-0.01 1.63 0.69 -1.11 10.05 -0.02 -0.11 0.07 3593
0.01 1.61 0.76 -0.84 9.79 -0.02 -0.12 0.09 3600
-0.01 1.60 0.37 -1.21 10.05 -0.03 -0.11 0.07 3606
0.00 1.59 0.55 -0.72 10.00 -0.03 -0.09 0.06 3612
0.01 1.54 0.75 -0.72 10.06 -0.02 -0.09 0.06 3618
0.00 1.46 0.75 -0.65 10.04 -0.01 -0.08 0.07 3624
0.01 1.43 0.61 -0.62 10.11 -0.00 -0.08 0.06 3632
-0.00 1.37 0.66 -0.72 10.05 0.01 -0.06 0.06 3638
0.04 1.33 0.71 -0.70 10.10 0.01 -0.05 0.06 3644
0.07 1.25 0.66 -0.60 10.08 0.02 -0.04 0.06 3650
0.09 1.12 0.66 -0.70 10.09 0.03 -0.03 0.05 3656
0.11 1.03 0.66 -0.72 9.99 0.03 -0.02 0.06 3662
0.13 0.96 0.05 -0.75 9.97 0.04 -0.02 0.06 3670
0.12 0.91 0.72 -0.69 11.69 0.04 -0.02 0.06 3676
0.12 0.78 0.69 -0.66 10.02 0.05 -0.01 0.06 3682
0.15 0.68 0.80 -0.55 9.97 0.05 -0.01 0.05 3688
0.16 0.60 0.78 -0.88 9.94 0.06 -0.01 0.06 3694
0.19 0.46 0.72 -0.68 9.99 0.07 -0.00 0.05 3700
0.20 0.43 0.68 -0.48 10.07 0.07 -0.00 0.05 3707
0.22 0.33 0.75 -0.78 9.98 0.08 -0.00 0.05 3714
0.22 0.25 0.73 -0.80 9.99 0.08 -0.00 0.04 3720
0.24 0.21 0.77 -0.64 10.01 0.07 -0.01 0.04 3726
0.28 0.16 0.81 -0.89 10.00 0.07 -0.02 0.04 3732
0.31 0.10 0.72 -0.69 10.05 0.07 -0.02 0.03 3738
0.34 0.11 0.78 -0.74 9.99 0.07 -0.03 0.02 3745
0.36 0.06 0.75 -0.76 10.03 0.07 -0.03 0.02 3751
0.37 0.02 0.75 -0.79 10.04 0.08 -0.03 0.01 3758
0.37 0.04 0.76 -0.78 10.08 0.08 -0.03 0.02 3764
0.40 -0.02 0.74 -0.95 10.02 0.09 -0.03 0.01 3770
0.45 -0.04 0.66 -1.01 9.90 0.09 -0.03 0.01 3776
0.47 -0.02 0.74 -0.98 10.05 0.10 -0.03 0.01 3783
0.47 -0.03 0.72 -0.83 9.95 0.13 -0.03 0.01 3789
0.48 -0.01 0.75 -0.92 9.97 0.10 -0.03 0.00 3795
0.47 -0.03 0.82 -0.88 9.99 0.11 -0.03 -0.00 3802
0.54 -0.00 0.81 -0.86 9.96 0.11 -0.03 -0.01 3808
0.57 -0.03 0.78 -0.87 9.98 0.11 -0.03 -0.02 3814
0.57 -0.03 0.82 -0.93 10.01 0.11 -0.03 -0.03 3821
0.64 -0.01 0.74 -0.95 9.96 0.12 -0.03 -0.03 3827
0.69 -0.03 0.79 -0.94 9.98 0.12 -0.03 -0.03 3833
0.69 -0.03 0.76 -0.97 10.01 0.12 -0.02 -0.04 3840
0.71 -0.01 0.74 -1.01 9.96 0.13 -0.02 -0.05 3846
0.76 -0.04 0.76 -0.98 9.94 0.12 -0.02 -0.05 3852
0.75 -0.05 0.80 -0.97 9.95 0.12 -0.01 -0.05 3858
0.75 -0.03 0.71 -1.04 9.88 0.11 -0.01 -0.04 3865
0.79 -0.03 0.71 -1.04 9.93 0.12 -0.01 -0.04 3871
0.84 -0.04 0.75 -1.03 10.05 0.12 0.00 -0.03 3877
0.85 -0.03 0.73 -1.07 10.06 0.15 0.01 -0.03 3884
0.91 -0.03 0.69 -1.01 10.26 0.19 0.02 -0.02 3890
0.96 -0.05 0.80 -1.07 10.35 0.25 0.02 -0.01 3897
1.00 -0.04 0.86 -1.16 10.45 0.34 0.02 -0.02 3903
1.06 -0.04 0.87 -1.21 10.57 0.46 0.02 -0.02 3909
1.13 -0.05 0.96 -1.26 10.87 0.61 0.00 -0.04 3915
1.20 -0.05 0.95 -1.31 11.13 0.79 -0.00 -0.06 3921
1.27 -0.05 1.13 -1.41 11.42 0.96 -0.02 -0.08 3929
1.30 -0.05 1.23 -1.48 11.72 1.11 -0.05 -0.10 3935
1.38 -0.04 1.00 -1.54 12.16 1.28 -0.09 -0.14 3941
1.43 -0.04 0.79 -1.66 12.31 1.45 -0.13 -0.16 3947
1.48 -0.04 1.19 -1.64 12.44 1.61 -0.18 -0.18 3954
1.53 -0.04 0.96 -1.78 12.78 1.76 -0.22 -0.19 3960
1.56 -0.05 0.78 -1.83 12.71 1.94 -0.28 -0.18 3966
1.65 -0.04 0.74 -1.98 13.19 2.12 -0.34 -0.17 3973
1.67 -0.06 0.64 -1.98 13.75 2.32 -0.37 -0.17 3980
1.68 -0.05 0.45 -1.99 13.56 2.55 -0.37 -0.16 3986
1.73 -0.06 0.65 -2.27 13.60 2.79 -0.31 -0.14 3992
1.71 -0.07 0.72 -2.50 14.25 3.02 -0.27 -0.14 3998
1.69 -0.07 0.98 -2.61 14.90 3.32 -0.23 -0.15 4004
1.68 -0.05 0.70 -2.38 14.30 3.68 -0.16 -0.16 4012
1.63 -0.07 0.86 -2.38 16.26 4.03 -0.13 -0.21 4018
1.54 -0.04 1.05 -2.80 15.64 4.25 -0.11 -0.24 4024
1.50 -0.07 0.85 -2.68 16.59 4.28 -0.13 -0.30 4030
1.35 -0.05 0.85 -3.11 18.56 4.28 -0.15 -0.32 4037
1.23 -0.06 1.88 -4.50 20.46 4.28 -0.26 -0.35 4043
1.09 -0.07 3.87 -5.70 22.07 4.28 -0.44 -0.47 4049
0.96 -0.04 3.89 -8.10 25.00 4.28 -0.65 -0.66 4056
0.84 -0.04 4.02 -10.87 30.89 4.28 -0.79 -0.79 4063
0.72 -0.04 3.16 -14.61 35.52 4.28 -0.83 -0.85 4069
0.61 -0.04 4.85 -15.11 38.81 4.28 -0.59 -0.84 4075
0.49 -0.04 4.73 -18.55 34.28 4.28 -0.42 -0.85 4081
0.37 -0.02 3.23 -12.77 33.36 4.28 -0.06 -0.86 4088
0.29 -0.02 1.50 -9.07 34.10 4.28 -0.01 -0.94 4094
0.20 -0.02 -0.03 -4.79 36.07 4.28 -0.33 -1.05 4101
0.16 -0.02 1.53 -0.68 35.65 4.28 -0.90 -1.12 4107
0.14 -0.01 4.96 1.94 36.33 4.28 -1.61 -1.16 4114
0.14 -0.01 8.42 6.17 36.43 4.28 -1.88 -1.13 4120
0.10 -0.01 11.36 13.10 29.00 4.28 -1.67 -1.07 4126
0.07 -0.01 15.43 20.58 24.81 4.28 -1.17 -1.28 4132
0.06 -0.01 12.52 24.29 10.23 4.28 -0.13 -1.88 4140
0.05 -0.00 13.32 25.80 -6.95 3.55 0.31 -2.64 4146
0.04 -0.00 10.00 20.43 28.57 2.02 1.25 -2.79 4152
0.06 -0.01 10.89 18.18 37.84 -0.36 2.40 -2.49 4158
0.04 -0.00 6.37 18.59 26.91 -2.39 2.55 -2.15 4165
0.05 0.01 1.22 17.62 18.41 -3.44 1.84 -1.80 4171
0.05 -0.01 0.15 14.04 14.52 -4.06 0.94 -1.40 4177
0.03 -0.00 0.73 10.95 13.12 -4.28 0.20 -1.05 4184
0.06 -0.01 1.96 8.74 10.89 -4.28 -0.22 -0.83 4190
0.04 -0.00 3.32 7.77 9.42 -4.28 -0.58 -0.68 4196
0.04 -0.00 4.16 6.19 8.65 -4.28 -0.72 -0.61 4203
0.05 -0.00 4.84 5.10 7.82 -4.28 -0.62 -0.53 4209
0.05 -0.01 5.58 4.35 7.16 -4.28 -0.34 -0.47 4215
0.05 -0.00 6.24 3.70 6.96 -4.28 0.02 -0.45 4221
0.04 -0.00 6.14 3.14 7.17 -4.28 0.42 -0.47 4228
0.05 0.00 5.90 2.80 7.46 -4.28 0.77 -0.50 4234
0.05 -0.00 5.30 2.62 8.29 -4.28 1.08 -0.51 4240
0.05 -0.01 4.72 2.32 8.96 -4.28 1.34 -0.50 4246
0.04 -0.00 4.12 2.00 9.53 -4.28 1.53 -0.46 4253
0.06 -0.01 3.39 1.59 10.11 -4.28 1.65 -0.38 4259
0.05 -0.00 2.88 0.99 10.88 -4.28 1.71 -0.28 4265
0.05 -0.00 2.52 0.40 11.67 -4.28 1.72 -0.16 4272
0.06 -0.01 2.32 -0.14 12.37 -4.28 1.68 -0.03 4278
0.06 -0.01 2.24 -0.52 12.93 -4.28 1.63 0.08 4284
0.05 -0.00 2.19 -0.74 13.81 -4.28 1.56 0.19 4290
0.06 -0.01 2.45 -1.11 14.52 -4.28 1.53 0.27 4297
0.06 -0.01 2.73 -1.54 15.17 -4.28 1.55 0.34 4303
0.04 -0.00 2.94 -2.07 15.92 -4.28 1.63 0.38 4310
0.04 -0.00 3.03 -2.74 16.75 -4.28 1.78 0.39 4316
0.06 -0.01 2.96 -3.64 17.59 -4.28 2.00 0.36 4322
0.06 -0.01 2.87 -4.77 18.40 -4.28 2.27 0.30 4329
0.05 -0.00 2.49 -5.94 19.24 -4.28 2.51 0.23 4335
0.06 -0.01 1.89 -6.65 19.53 -4.28 2.72 0.16 4341
0.04 -0.00 1.58 -7.01 19.56 -4.28 2.89 0.12 4347
0.05 -0.01 1.28 -7.30 19.41 -4.28 2.97 0.12 4354
0.07 -0.01 0.95 -7.79 19.63 -4.22 2.98 0.15 4360
0.06 -0.01 0.60 -8.19 20.84 -4.09 2.92 0.21 4367
0.05 -0.00 0.18 -8.22 21.54 -3.87 2.75 0.30 4373
0.06 -0.00 -0.03 -8.19 23.48 -3.67 2.50 0.42 4379
0.05 -0.01 0.13 -7.96 25.23 -3.58 2.21 0.58 4385
0.05 -0.00 0.53 -8.03 26.63 -3.62 1.91 0.76 4391
0.06 -0.00 0.85 -8.61 27.54 -3.75 1.65 0.97 4398
0.06 -0.01 1.22 -9.43 27.96 -3.93 1.45 1.22 4405
0.05 -0.00 1.74 -10.85 27.54 -4.05 1.34 1.49 4411
0.06 -0.00 2.20 -12.86 26.47 -4.14 1.32 1.73 4417
0.06 -0.01 1.85 -15.15 24.89 -4.17 1.36 1.95 4423
0.06 -0.01 2.19 -17.55 22.83 -4.14 1.50 2.13 4430
0.05 -0.01 1.31 -19.51 20.81 -4.02 1.71 2.29 4436
0.05 -0.00 -0.02 -20.90 20.23 -3.78 2.02 2.45 4443
0.05 -0.00 -1.53 -22.82 19.00 -3.51 2.31 2.53 4449
0.05 -0.01 -3.15 -25.52 17.94 -3.26 2.31 2.54 4455
0.03 -0.00 -4.53 -28.32 16.03 -3.01 2.12 2.50 4462
0.05 -0.01 -5.75 -30.65 14.19 -2.77 1.84 2.41 4468
0.05 -0.01 -6.73 -32.76 11.24 -2.48 1.58 2.27 4474
0.05 -0.01 -7.66 -35.25 8.22 -2.15 1.42 2.08 4481
0.06 -0.01 -8.50 -37.90 4.95 -1.76 1.33 1.83 4487
0.05 -0.00 -9.20 -39.80 2.89 -1.32 1.26 1.53 4494
0.05 -0.00 -9.70 -40.20 1.82 -0.80 1.16 1.20 4500
0.05 -0.01 -10.09 -38.30 2.07 -0.24 1.00 0.87 4506
0.05 -0.00 -10.22 -35.13 3.42 0.28 0.74 0.58 4512
0.04 -0.00 -9.77 -31.31 5.32 0.69 0.36 0.34 4518
0.05 -0.01 -8.82 -27.35 7.59 1.06 -0.12 0.18 4525
0.05 -0.01 -8.76 -39.60 -7.49 1.31 -0.53 0.19 4532
0.03 -0.00 -17.21 -32.40 7.33 4.27 -2.67 0.55 4538
0.05 0.02 -3.38 -6.43 3.13 4.12 -2.27 0.54 4544
0.04 0.17 2.40 -2.29 -9.13 3.42 -2.84 0.45 4550
0.03 0.37 1.34 -3.02 4.71 3.09 -3.30 0.54 4556
0.03 0.57 3.18 13.29 19.79 3.70 -1.87 0.93 4563
0.01 0.87 2.57 4.28 14.72 4.05 -0.85 1.28 4570
-0.01 1.11 -3.31 -5.06 23.88 4.28 -0.97 1.19 4576
-0.01 1.42 -8.14 -8.77 24.92 4.28 -1.15 0.87 4582
-0.02 1.62 -6.30 -8.11 29.74 4.28 -1.08 0.47 4589
-0.03 1.71 -5.00 -4.38 30.38 4.28 -0.68 0.10 4595
-0.02 1.74 -4.87 -3.13 23.47 3.95 -0.70 -0.40 4601
-0.03 1.78 0.83 -2.99 21.07 3.60 -0.77 -0.80 4608
-0.02 1.72 5.18 -3.83 33.45 2.89 -2.04 -0.77 4615
-0.03 1.68 6.24 -2.80 14.26 0.98 -1.96 -0.19 4621
-0.02 1.72 1.08 -3.25 13.64 0.53 -1.19 0.18 4627
-0.02 1.71 -0.40 -0.79 11.74 0.25 -0.66 0.22 4633
-0.02 1.65 -0.64 -0.35 10.73 0.13 -0.34 0.10 4639
-0.02 1.68 0.28 -1.04 10.54 0.03 -0.20 0.02 4646
-0.03 1.69 1.47 -1.37 10.06 0.00 -0.16 0.04 4653
-0.02 1.66 1.12 -0.97 10.03 -0.01 -0.16 0.08 4659
0.01 1.67 0.49 -0.63 10.21 -0.01 -0.14 0.08 4665
-0.02 1.67 0.52 -0.55 10.09 -0.02 -0.12 0.06 4671
-0.01 1.67 0.69 -0.67 10.04 -0.03 -0.11 0.06 4678
0.02 1.62 0.86 -0.82 9.86 -0.03 -0.10 0.07 4684
0.01 1.60 0.70 -0.52 9.99 -0.02 -0.11 0.06 4690
-0.01 1.52 0.75 -0.75 9.87 -0.01 -0.10 0.06 4697
0.04 1.45 0.63 -0.64 10.15 -0.00 -0.09 0.05 4703
0.06 1.38 0.62 -0.62 10.08 0.00 -0.08 0.05 4710
0.07 1.35 0.62 -0.60 10.12 0.01 -0.06 0.05 4716
0.10 1.29 0.66 -0.59 10.11 0.02 -0.05 0.06 4722
0.10 1.19 0.61 -0.60 10.13 0.02 -0.04 0.05 4728
0.12 1.10 0.64 -0.65 10.01 0.04 -0.03 0.05 4734
0.17 0.96 0.04 -0.63 10.07 0.04 -0.03 0.06 4741
0.15 0.90 0.68 -0.61 10.02 0.04 -0.02 0.06 4748
0.15 0.84 0.65 -0.58 10.00 0.05 -0.02 0.06 4754
0.21 0.75 0.75 -0.76 10.01 0.05 -0.01 0.06 4760
0.22 0.65 0.68 -0.57 10.02 0.06 -0.01 0.06 4766
0.22 0.53 0.70 -0.62 9.94 0.06 -0.00 0.06 4772
0.27 0.48 0.73 -0.69 10.00 0.07 -0.00 0.05 4780
0.29 0.40 0.67 -0.60 9.86 0.07 0.00 0.04 4786
0.30 0.31 0.77 -0.69 9.97 0.07 0.00 0.04 4792
0.31 0.28 0.77 -0.74 10.11 0.08 0.00 0.03 4798
0.32 0.21 0.79 -0.73 9.94 0.07 0.00 0.03 4804
0.36 0.17 0.73 -0.68 10.03 0.08 0.00 0.03 4810
0.35 0.15 0.80 -0.18 9.99 0.08 0.00 0.02 4816
0.38 0.15 0.72 -0.69 10.03 0.09 0.01 0.03 4824
0.40 0.09 0.72 -0.69 10.07 0.10 0.01 0.03 4830
0.41 0.06 0.69 -0.73 10.03 0.10 0.01 0.04 4836
0.42 0.05 0.63 -0.91 9.89 0.11 0.01 0.03 4842
0.46 0.06 0.75 -0.72 10.06 0.12 -0.00 0.04 4848
0.50 0.01 0.74 -0.79 10.03 0.13 -0.00 0.04 4855
0.52 0.00 0.74 -0.75 10.03 0.14 -0.00 0.02 4861
0.56 -0.01 0.77 -0.79 9.99 0.16 -0.01 0.01 4868
0.59 0.00 0.80 -0.82 10.04 0.16 -0.01 0.01 4874
0.63 -0.01 0.77 -0.81 10.02 0.17 -0.01 0.00 4880
0.64 -0.00 0.79 -0.83 9.93 0.18 -0.02 -0.00 4886
0.67 -0.02 0.84 -0.90 9.98 0.19 -0.01 -0.01 4892
0.71 -0.03 0.89 -0.91 10.00 0.19 -0.01 -0.02 4899
0.75 -0.04 0.85 -0.89 10.02 0.19 -0.01 -0.03 4905
0.77 -0.04 0.87 -0.97 10.01 0.20 -0.01 -0.03 4912
0.79 -0.04 0.79 -0.95 9.98 0.21 -0.00 -0.04 4918
0.85 -0.04 0.77 -0.99 10.03 0.23 0.00 -0.03 4924
0.87 -0.04 0.74 -1.05 10.06 0.25 0.01 -0.04 4931
0.89 -0.03 0.76 -1.01 10.24 0.28 0.01 -0.04 4937
0.95 -0.05 0.73 -1.10 10.30 0.34 0.01 -0.04 4943
0.97 -0.04 0.68 -1.10 10.35 0.41 0.01 -0.03 4950
1.04 -0.05 0.77 -1.08 10.41 0.48 0.01 -0.03 4956
1.08 -0.04 0.83 -1.13 10.47 0.57 0.00 -0.03 4963
1.13 -0.04 0.81 -1.19 10.77 0.65 -0.00 -0.04 4969
1.20 -0.04 0.86 -1.36 10.86 0.76 -0.01 -0.04 4975
1.27 -0.05 0.90 -1.38 11.59 0.88 -0.01 -0.04 4981
1.32 -0.05 0.96 -1.47 11.40 1.01 -0.02 -0.04 4987
1.38 -0.04 1.11 -1.63 11.72 1.15 -0.05 -0.06 4995
1.47 -0.06 1.14 -1.59 12.03 1.29 -0.09 -0.08 5001
1.51 -0.04 1.26 -1.72 12.21 1.45 -0.13 -0.11 5007
1.55 -0.05 1.31 -1.78 12.44 1.61 -0.18 -0.13 5013
1.52 -0.05 0.97 -1.82 12.37 1.77 -0.23 -0.15 5020
1.61 -0.05 0.60 -1.98 12.99 1.95 -0.28 -0.15 5026
1.65 -0.06 0.68 -1.93 13.05 2.16 -0.31 -0.14 5032
1.65 -0.04 0.67 -2.19 13.30 2.38 -0.31 -0.12 5039
1.69 -0.05 0.82 -2.16 13.15 2.61 -0.30 -0.11 5046
1.71 -0.06 0.71 -2.38 13.89 2.82 -0.29 -0.11 5052
1.76 -0.05 0.61 -2.56 14.63 3.12 -0.27 -0.11 5058
1.70 -0.05 1.00 -2.87 14.47 3.44 -0.26 -0.13 5064
1.65 -0.05 0.92 -2.73 14.91 3.79 -0.20 -0.15 5071
1.66 -0.05 1.29 -2.62 14.62 4.12 -0.24 -0.18 5078
1.62 -0.06 1.36 -2.96 15.26 4.26 -0.19 -0.24 5084
1.53 -0.04 0.89 -3.15 16.06 4.28 -0.17 -0.30 5090
1.33 -0.06 0.63 -3.74 18.49 4.28 -0.23 -0.32 5096
1.17 -0.05 1.87 -4.57 20.65 4.28 -0.36 -0.34 5103
1.09 -0.06 2.50 -6.50 22.65 4.28 -0.54 -0.45 5109
1.00 -0.07 3.70 -8.07 24.89 4.28 -0.72 -0.61 5115
0.83 -0.04 3.74 -11.91 31.80 4.28 -0.95 -0.75 5122
0.75 -0.04 3.51 -15.20 36.18 4.28 -0.94 -0.82 5129
0.67 -0.04 4.73 -16.01 36.14 4.28 -0.75 -0.82 5135
0.57 -0.04 3.24 -15.39 34.47 4.28 -0.53 -0.85 5141
0.41 -0.03 2.96 -13.68 34.21 4.28 -0.18 -0.85 5148
0.35 -0.02 1.70 -9.99 34.35 4.28 -0.05 -0.91 5154
0.26 -0.03 0.93 -5.96 36.31 4.28 -0.29 -1.03 5160
0.17 -0.02 1.51 -0.86 36.46 4.28 -0.78 -1.08 5167
0.18 -0.02 4.15 1.46 36.58 4.28 -1.34 -1.08 5173
0.14 -0.01 6.88 4.65 35.73 4.28 -1.61 -1.05 5180
0.11 -0.01 9.34 10.84 31.58 4.28 -1.44 -1.00 5186
0.10 -0.01 14.34 19.63 27.37 4.28 -0.90 -1.21 5192
0.05 -0.00 12.38 20.03 12.28 4.28 0.25 -1.91 5198
0.05 0.03 13.69 23.21 -9.21 4.05 0.66 -2.78 5206
0.04 -0.00 9.50 20.53 29.63 2.48 1.47 -3.04 5212
0.04 -0.00 11.24 19.33 40.65 -0.13 2.77 -2.78 5218
0.07 -0.01 5.63 19.15 28.50 -2.29 2.91 -2.42 5224
0.06 -0.01 1.40 18.21 18.45 -3.44 2.13 -2.00 5230
0.07 0.00 0.13 14.58 16.49 -4.20 1.20 -1.50 5237
0.08 -0.00 0.85 11.37 15.25 -4.28 0.43 -1.06 5243
0.06 -0.01 2.21 9.17 12.80 -4.28 -0.14 -0.74 5250
0.07 -0.00 3.31 7.33 10.55 -4.28 -0.47 -0.54 5256
0.07 -0.01 4.20 5.88 8.75 -4.28 -0.56 -0.38 5263
0.05 -0.00 4.88 4.84 7.08 -4.28 -0.45 -0.27 5269
0.06 0.00 5.32 3.99 6.41 -4.28 -0.19 -0.21 5275
0.06 -0.01 5.70 3.45 6.21 -4.28 0.11 -0.19 5281
0.06 -0.01 5.58 2.97 6.44 -4.28 0.49 -0.20 5287
0.05 -0.00 5.24 2.64 7.00 -4.28 0.85 -0.23 5294
0.06 0.01 4.65 2.57 8.14 -4.28 1.16 -0.26 5300
0.06 -0.00 4.07 2.34 8.67 -4.28 1.39 -0.28 5306
0.07 -0.01 3.50 2.12 9.47 -4.28 1.59 -0.27 5313
0.07 -0.00 2.99 1.86 10.17 -4.28 1.74 -0.23 5319
0.08 -0.01 1.93 1.46 10.93 -4.28 1.82 -0.14 5325
0.07 -0.01 1.97 0.98 11.59 -4.28 1.85 -0.04 5331
0.07 -0.00 1.66 0.43 12.06 -4.28 1.82 0.08 5338
0.07 -0.00 1.47 -0.10 12.77 -4.28 1.74 0.22 5344
0.07 -0.01 1.48 -0.49 13.29 -4.28 1.65 0.30 5351
0.07 -0.01 1.63 -0.84 14.07 -4.28 1.58 0.41 5357
0.08 -0.01 1.66 -1.17 14.95 -4.28 1.57 0.49 5363
0.07 -0.01 1.77 -1.48 15.83 -4.28 1.65 0.55 5369
0.07 -0.01 1.78 -2.10 16.60 -4.28 1.80 0.56 5376
0.07 0.00 1.77 -2.94 17.36 -4.28 2.01 0.54 5383
0.07 -0.01 1.46 -3.93 18.37 -4.28 2.23 0.47 5389
0.06 -0.01 1.09 -4.85 19.28 -4.28 2.42 0.38 5395
0.08 -0.01 0.40 -5.43 19.82 -4.28 2.56 0.31 5401
0.06 -0.01 -0.13 -5.80 20.22 -4.28 2.68 0.24 5407
0.05 -0.01 -0.70 -5.96 20.76 -4.28 2.73 0.25 5413
0.06 -0.00 -1.07 -6.22 21.10 -4.28 2.69 0.26 5421
0.06 -0.01 -1.26 -6.45 21.62 -4.28 2.57 0.30 5427
0.04 -0.00 -1.42 -6.76 22.28 -4.24 2.37 0.37 5433
0.05 -0.01 -1.43 -7.26 23.21 -4.16 2.14 0.47 5439
0.05 -0.00 -1.10 -7.83 24.33 -4.06 1.88 0.58 5445
0.04 -0.00 -0.66 -8.62 25.56 -3.95 1.61 0.71 5451
0.05 -0.01 -0.25 -9.63 26.40 -3.91 1.30 0.84 5458
0.05 -0.01 0.25 -11.05 27.33 -3.90 0.98 0.98 5465
0.04 -0.00 0.95 -12.55 27.35 -3.91 0.83 1.13 5471
0.06 -0.01 1.84 -14.37 26.12 -3.91 0.75 1.28 5477
0.06 -0.01 2.27 -16.00 24.26 -3.89 0.89 1.41 5483
0.05 -0.00 2.20 -18.25 22.34 -3.82 1.34 1.51 5490
0.07 -0.01 1.06 -21.43 21.87 -3.62 1.85 1.58 5496
0.06 -0.01 0.28 -20.55 15.95 -3.44 2.22 1.60 5502
0.05 -0.01 -1.66 -22.02 19.10 -3.40 2.27 1.61 5509
0.06 -0.01 -3.89 -25.33 20.24 -3.27 2.17 1.66 5516
0.05 -0.01 -5.82 -27.85 19.01 -3.08 1.95 1.70 5522
0.05 0.00 -7.03 -29.81 15.68 -2.83 1.65 1.69 5528
0.06 -0.01 -8.21 -32.51 12.12 -2.60 1.36 1.64 5534
0.05 -0.01 -8.79 -35.45 8.64 -2.36 1.15 1.54 5540
0.07 -0.00 -9.61 -38.78 4.81 -2.05 1.02 1.37 5548
0.07 -0.01 -10.08 -41.29 2.29 -1.63 0.94 1.14 5554
0.08 -0.01 -10.32 -41.77 0.78 -1.09 0.86 0.88 5560
0.09 -0.00 -10.43 -39.83 0.29 -0.48 0.72 0.59 5566
0.08 -0.01 -10.45 -36.63 1.38 0.13 0.48 0.30 5573
0.07 0.00 -10.22 -32.70 4.13 0.67 0.15 0.04 5579
0.07 -0.01 -20.76 -48.93 78.47 1.92 -1.86 0.06 5585
0.07 -0.01 -4.58 -24.21 4.03 3.89 -1.26 0.19 5592
0.08 0.04 -7.04 -14.16 -3.50 3.91 -2.19 0.02 5598
0.07 0.16 -0.05 -3.47 -3.69 3.33 -3.15 -0.24 5605
0.04 0.39 -0.40 -0.73 13.07 2.96 -3.38 -0.27 5611
0.06 0.63 4.47 14.21 20.78 3.56 -2.22 0.04 5617
0.03 0.85 4.37 -1.95 16.84 3.74 -1.10 0.33 5623
0.00 1.15 -2.17 -8.52 26.71 4.28 -1.27 0.26 5630
0.00 1.40 -4.85 -9.13 21.83 4.28 -1.61 0.07 5637
-0.01 1.57 1.88 -6.36 28.15 4.28 -1.47 0.09 5643
-0.01 1.74 0.74 -3.57 26.88 4.28 -0.82 0.24 5649
-0.01 1.76 -3.23 -3.32 21.68 3.84 -0.72 0.06 5655
-0.03 1.77 -1.07 -2.65 16.99 3.50 -0.80 -0.24 5662
-0.02 1.75 2.38 -1.81 17.93 3.56 -0.89 -0.35 5668
-0.01 1.70 1.60 -3.00 30.11 2.56 -2.10 -0.23 5675
-0.02 1.67 2.78 -2.79 15.10 0.90 -1.47 0.11 5681
-0.00 1.65 -0.35 -3.07 12.78 0.33 -0.69 0.23 5688
-0.02 1.67 -0.68 -1.50 11.05 0.12 -0.28 0.20 5694
0.01 1.62 -0.17 -1.03 10.57 0.04 -0.14 0.11 5700
0.00 1.63 0.66 -1.14 10.26 0.01 -0.09 0.07 5706
0.01 1.61 1.01 -1.31 10.06 -0.00 -0.08 0.10 5712
0.03 1.62 0.61 -0.99 10.16 -0.01 -0.08 0.10 5720
0.00 1.58 0.51 -0.75 9.88 -0.01 -0.08 0.09 5726
-0.01 1.55 0.59 -0.70 10.01 -0.01 -0.07 0.08 5732
0.02 1.48 0.68 -0.68 10.03 -0.01 -0.06 0.08 5738
0.02 1.44 0.72 -0.67 10.03 -0.01 -0.06 0.08 5744
0.06 1.42 0.61 -0.67 10.06 -0.00 -0.06 0.07 5751
0.07 1.35 0.65 -0.74 10.06 0.00 -0.05 0.06 5757
0.08 1.31 0.56 -0.69 10.15 0.01 -0.05 0.07 5764
0.11 1.26 0.62 -0.70 10.01 0.01 -0.04 0.07 5770
0.13 1.15 0.62 -0.70 10.12 0.02 -0.02 0.06 5776
0.11 1.10 0.58 -0.71 10.04 0.03 -0.01 0.06 5783
0.12 1.06 0.64 -0.68 10.03 0.03 -0.00 0.07 5789
0.12 0.96 0.66 -0.70 9.99 0.04 -0.00 0.07 5795
0.12 0.90 0.72 -0.69 9.97 0.04 0.00 0.07 5801
0.14 0.84 0.71 -0.68 9.98 0.05 0.00 0.07 5808
0.17 0.74 0.70 -0.65 10.03 0.06 0.00 0.07 5814
0.19 0.66 0.74 -0.67 10.03 0.06 0.01 0.06 5821
0.21 0.56 0.70 -0.76 9.92 0.07 0.01 0.06 5827
0.22 0.48 0.69 -0.79 9.99 0.07 0.01 0.05 5833
0.25 0.39 0.68 -0.81 9.90 0.07 0.02 0.05 5839
0.27 0.32 0.76 -0.71 9.94 0.07 0.01 0.05 5846
0.28 0.31 0.86 -0.83 10.04 0.06 0.01 0.05 5852
0.29 0.28 0.80 -0.80 9.93 0.06 0.01 0.04 5858
0.31 0.21 0.81 -0.69 10.01 0.06 0.00 0.04 5865
0.29 0.17 0.75 -0.88 9.99 0.06 0.00 0.03 5871
0.31 0.16 0.75 -0.77 10.07 0.06 -0.00 0.03 5877
0.31 0.10 0.72 -0.85 9.96 0.06 -0.00 0.03 5883
0.31 0.10 0.74 -0.80 10.07 0.06 0.00 0.03 5890
0.32 0.08 0.65 -0.87 10.03 0.06 0.01 0.03 5896
0.35 0.04 0.67 -0.83 9.94 0.06 0.01 0.03 5903
0.35 0.05 0.69 -0.85 9.93 0.06 0.01 0.03 5909
0.35 0.06 0.80 -0.76 10.06 0.06 0.01 0.04 5915
0.38 0.03 0.86 -0.84 10.02 0.06 0.01 0.03 5921
0.38 0.01 0.77 -0.98 9.91 0.06 0.02 0.03 5927
0.37 0.03 0.78 -0.87 9.99 0.06 0.01 0.03 5934
0.38 0.01 0.80 -0.97 9.93 0.06 0.01 0.02 5940
0.38 0.00 0.78 -0.93 9.91 0.06 0.01 0.02 5947
0.38 -0.01 0.79 -0.91 9.86 0.05 0.00 0.01 5953
0.41 0.01 0.83 -0.93 9.92 0.04 -0.00 0.01 5959
0.44 -0.01 0.81 -0.88 9.90 0.00 -0.01 0.01 5965
0.45 -0.00 0.84 -0.89 9.91 0.03 -0.02 0.01 5971
0.48 -0.02 0.80 -0.87 10.00 0.04 -0.03 0.01 5978
0.51 -0.01 0.77 -0.96 9.94 0.04 -0.03 -0.00 5984
0.55 -0.03 0.75 -0.95 9.98 0.04 -0.04 0.00 5990
0.60 -0.03 0.72 -0.93 10.00 0.05 -0.04 0.00 5997
0.66 -0.01 0.78 -0.93 10.03 0.07 -0.04 0.01 6003
0.72 -0.03 0.77 -0.93 10.09 0.08 -0.03 0.00 6009
0.78 -0.03 0.80 -0.93 10.15 0.11 -0.02 0.00 6016
0.80 -0.03 0.77 -0.91 10.24 0.16 -0.01 -0.00 6022
0.86 -0.04 0.79 -0.99 10.25 0.21 0.02 -0.01 6029
0.93 -0.04 0.81 -1.02 10.40 0.28 0.05 -0.01 6035
0.97 -0.03 0.92 -1.13 10.48 0.38 0.09 -0.02 6041
1.03 -0.04 0.80 -1.13 10.89 0.56 0.15 -0.03 6047
1.09 -0.04 0.97 -1.24 11.36 0.77 0.20 -0.05 6053
1.12 -0.03 1.09 -1.31 11.77 1.03 0.25 -0.08 6061
1.22 -0.05 1.13 -0.97 12.41 1.29 0.27 -0.14 6067
1.27 -0.04 1.31 -1.52 12.45 1.58 0.23 -0.15 6073
1.34 -0.05 1.30 -1.63 12.53 1.79 0.12 -0.17 6079
1.38 -0.06 0.98 -1.70 12.89 1.95 -0.06 -0.18 6086
1.42 -0.04 0.96 -2.73 12.74 2.09 -0.20 -0.22 6092
1.49 -0.04 0.73 -1.93 13.97 2.28 -0.27 -0.19 6098
1.52 -0.06 0.75 -1.50 14.37 2.49 -0.31 -0.18 6105
1.57 -0.05 0.83 -1.93 14.15 2.74 -0.34 -0.17 6111
1.60 -0.04 0.44 -1.97 13.95 3.00 -0.35 -0.16 6118
1.57 -0.05 1.17 -2.29 14.12 3.26 -0.31 -0.15 6124
1.56 -0.06 1.04 -2.41 14.43 3.56 -0.23 -0.16 6130
1.53 -0.05 1.11 -2.15 14.74 3.88 -0.14 -0.18 6136
1.46 -0.03 1.13 -2.40 15.11 4.17 -0.05 -0.19 6144
1.42 -0.04 0.61 -2.71 16.33 4.28 0.06 -0.20 6150
1.31 -0.05 0.48 -2.93 17.72 4.28 0.10 -0.20 6156
1.19 -0.04 2.17 -3.10 18.89 4.28 -0.01 -0.24 6162
1.01 -0.04 3.63 -4.09 20.76 4.28 -0.25 -0.37 6169
0.89 -0.03 3.47 -5.09 22.56 4.28 -0.42 -0.53 6175
0.84 -0.03 3.42 -8.65 27.52 4.28 -0.66 -0.68 6181
0.70 -0.03 3.77 -11.99 32.35 4.28 -0.72 -0.79 6188
0.61 -0.03 3.40 -14.57 37.40 4.28 -0.63 -0.79 6195
0.54 -0.04 4.04 -14.67 36.62 4.28 -0.45 -0.72 6201
0.41 -0.03 2.99 -12.29 36.06 4.28 -0.36 -0.74 6207
0.38 -0.03 2.64 -11.43 33.40 4.28 -0.12 -0.72 6213
0.30 -0.02 1.95 -7.92 33.80 4.28 -0.11 -0.75 6220
0.26 -0.02 1.55 -4.50 36.84 4.28 -0.32 -0.86 6226
0.20 -0.02 3.53 -1.65 37.26 4.28 -0.86 -0.95 6233
0.15 -0.01 7.11 2.21 40.44 4.28 -1.32 -1.00 6239
0.12 -0.01 9.55 9.01 38.04 4.28 -1.38 -0.93 6245
0.09 -0.01 11.53 21.03 29.46 4.28 -1.02 -0.79 6252
0.07 -0.01 14.91 26.01 19.77 4.28 -0.22 -0.94 6258
0.06 -0.01 9.07 28.38 -4.63 3.89 0.89 -1.68 6264
0.06 0.01 9.18 29.80 12.54 2.10 0.96 -2.35 6270
0.05 -0.01 9.20 22.17 35.30 0.08 1.59 -2.34 6278
0.05 -0.01 6.55 16.57 32.88 -2.01 2.02 -2.12 6284
0.06 -0.01 3.77 15.91 21.28 -3.09 1.84 -1.97 6290
0.07 -0.00 1.81 14.76 15.47 -3.56 1.17 -1.76 6296
0.05 -0.01 0.29 12.49 13.23 -4.02 0.57 -1.47 6302
0.06 0.01 1.03 10.44 11.38 -4.24 0.13 -1.19 6309
0.05 -0.00 2.51 9.09 10.27 -4.28 -0.24 -1.00 6316
0.06 -0.01 3.49 7.84 9.92 -4.28 -0.51 -0.88 6322
0.05 0.00 4.01 6.64 9.91 -4.28 -0.61 -0.79 6328
0.05 -0.01 4.66 5.51 9.74 -4.28 -0.55 -0.69 6334
0.04 -0.00 5.32 4.60 9.79 -4.28 -0.36 -0.62 6340
0.03 -0.00 5.85 3.84 9.69 -4.28 -0.15 -0.58 6347
0.06 0.00 5.87 3.05 9.70 -4.28 0.11 -0.55 6353
0.06 -0.01 5.61 2.39 9.78 -4.28 0.37 -0.52 6360
0.05 -0.01 5.30 1.80 10.15 -4.28 0.60 -0.49 6366
0.04 -0.00 4.92 1.19 10.41 -4.28 0.76 -0.45 6372
0.05 -0.00 4.48 0.53 10.69 -4.28 0.90 -0.39 6378
0.04 -0.00 3.71 0.21 10.87 -4.28 0.98 -0.32 6384
0.06 -0.00 3.76 -0.75 10.63 -4.28 1.12 -0.22 6391
0.08 -0.01 3.96 -1.45 11.24 -4.28 1.18 -0.12 6397
0.06 -0.01 3.69 -1.38 12.21 -4.28 1.31 0.00 6404
0.06 -0.01 3.94 -1.66 12.23 -4.28 1.38 0.10 6410
0.06 -0.01 3.64 -1.82 13.03 -4.28 1.43 0.18 6416
0.05 -0.00 3.60 -1.70 13.98 -4.28 1.50 0.25 6423
0.04 -0.00 3.59 -1.84 14.82 -4.28 1.58 0.31 6429
0.06 -0.00 3.54 -2.38 15.87 -4.28 1.67 0.33 6435
0.05 -0.00 3.42 -3.11 16.96 -4.28 1.81 0.32 6441
0.04 -0.00 3.45 -3.89 17.87 -4.28 1.98 0.27 6448
0.04 0.01 3.31 -4.77 18.63 -4.28 2.15 0.19 6454
0.05 0.00 3.05 -5.59 19.09 -4.28 2.33 0.10 6461
0.04 0.00 2.80 -6.20 19.23 -4.28 2.52 0.04 6467
0.06 -0.01 2.72 -6.62 19.32 -4.28 2.64 0.01 6473
0.04 -0.00 2.44 -7.07 19.42 -4.28 2.73 0.03 6479
0.04 -0.00 2.17 -7.43 19.82 -4.20 2.74 0.12 6486
0.05 -0.01 1.94 -7.82 21.27 -4.02 2.65 0.22 6493
0.05 -0.00 1.62 -7.90 22.25 -3.74 2.51 0.40 6499
0.03 -0.00 1.64 -8.15 23.81 -3.53 2.32 0.61 6505
0.04 0.00 1.41 -8.66 25.05 -3.41 2.06 0.84 6511
0.04 -0.00 1.13 -9.64 26.47 -3.37 1.76 1.09 6517
0.04 -0.00 0.81 -11.10 27.39 -3.38 1.45 1.33 6523
0.04 0.00 0.49 -12.69 26.58 -3.41 1.26 1.58 6531
0.04 -0.00 0.13 -13.86 25.63 -3.45 1.38 1.82 6537
0.04 0.00 -0.57 -15.37 25.42 -3.52 1.80 2.04 6543
0.05 -0.00 -1.57 -17.84 25.25 -3.58 2.21 2.15 6549
0.05 -0.00 -2.51 -20.14 24.28 -3.62 2.44 2.21 6556
0.05 0.00 -4.15 -22.59 22.62 -3.62 2.45 2.26 6562
0.04 -0.00 -4.39 -25.38 21.21 -3.56 2.21 2.28 6568
0.04 -0.00 -4.64 -27.95 19.20 -3.45 1.79 2.23 6575
0.06 -0.00 -4.77 -30.30 15.36 -3.28 1.29 2.11 6582
0.06 -0.01 -5.23 -32.68 11.11 -3.03 0.93 1.92 6588
0.05 -0.00 -4.97 -35.62 8.21 -2.73 0.84 1.70 6594
0.06 -0.01 -5.53 -39.01 4.29 -2.34 1.00 1.45 6600
0.05 -0.01 -6.51 -41.35 2.25 -1.87 1.27 1.17 6606
0.05 0.01 -8.03 -42.61 1.17 -1.31 1.52 0.99 6614
0.06 -0.00 -9.31 -41.81 1.40 -0.71 1.61 0.76 6620
0.05 -0.00 -9.85 -39.27 2.27 -0.12 1.43 0.52 6626
0.06 0.01 -15.62 -55.72 -0.10 0.71 0.57 0.36 6632
0.06 -0.01 -12.42 -38.86 3.14 3.23 -0.63 0.44 6638
0.04 -0.00 -9.82 -27.31 3.26 3.66 -1.80 0.32 6645
0.05 0.06 -9.15 -31.18 -5.07 3.61 -3.18 0.22 6651
0.04 0.25 -2.77 -15.31 1.88 3.43 -4.28 0.16 6658
0.03 0.38 2.21 3.29 11.36 3.43 -4.00 0.45 6664
0.04 0.68 10.24 9.05 27.46 4.26 -1.76 1.08 6671
0.00 1.08 0.68 -1.13 24.78 4.28 -1.07 1.55 6677
-0.01 1.42 -9.52 -6.61 30.49 4.28 -1.26 1.33 6683
-0.02 1.59 -8.64 -8.44 27.04 4.28 -1.52 0.85 6689
-0.02 1.67 -6.01 -5.97 28.61 4.28 -0.94 0.47 6696
-0.02 1.72 -8.16 -3.06 26.26 4.22 -0.48 -0.05 6703
-0.01 1.68 -2.86 -1.94 19.38 3.51 -0.60 -0.71 6709
-0.02 1.68 5.04 -2.80 20.36 3.34 -0.89 -0.93 6715
-0.00 1.66 5.89 -1.78 24.94 2.45 -2.24 -0.61 6721
-0.00 1.56 4.39 -3.39 13.31 0.99 -1.62 0.02 6728
0.00 1.62 0.74 -2.44 12.73 0.52 -0.97 0.26 6734
-0.00 1.56 -0.85 -1.03 11.13 0.22 -0.49 0.22 6740
-0.03 1.60 -0.89 -1.18 10.29 0.06 -0.20 0.06 6747
-0.02 1.65 0.57 -1.30 10.10 -0.00 -0.13 0.01 6754
-0.00 1.62 1.40 -1.23 10.04 -0.03 -0.13 0.05 6760
0.04 1.60 -1.60 1.05 9.92 -0.04 -0.13 0.10 6766
0.07 1.59 0.37 -0.67 10.10 -0.05 -0.15 0.06 6772
0.05 1.57 0.42 -0.71 9.91 -0.04 -0.13 0.03 6778
0.06 1.55 0.82 -0.83 10.07 -0.04 -0.12 0.04 6785
0.12 1.53 0.71 -0.66 10.03 -0.03 -0.11 0.04 6792
0.11 1.45 0.60 -0.67 10.12 -0.02 -0.11 0.03 6798
0.14 1.40 0.60 -0.73 10.19 -0.00 -0.10 0.03 6804
0.17 1.32 0.64 -0.71 10.13 0.00 -0.08 0.03 6810
0.16 1.27 0.67 -0.69 10.13 0.01 -0.07 0.04 6816
0.20 1.17 0.97 -0.85 9.77 0.02 -0.06 0.03 6823
0.22 1.04 0.66 -0.72 10.07 0.03 -0.07 0.04 6830
0.25 0.96 0.63 -0.74 10.10 0.03 -0.07 0.04 6836
0.29 0.88 0.63 -0.69 10.03 0.04 -0.06 0.05 6842
0.29 0.81 0.73 -0.91 10.10 0.04 -0.05 0.05 6848
0.32 0.68 0.66 -0.91 10.04 0.05 -0.04 0.05 6855
0.36 0.61 0.66 -0.67 10.08 0.06 -0.04 0.05 6861
0.39 0.48 0.80 -0.89 10.15 0.06 -0.04 0.05 6867
0.37 0.43 0.72 -0.75 10.00 0.08 -0.03 0.04 6874
0.42 0.38 0.65 -0.63 10.11 0.07 -0.02 0.03 6880
0.42 0.29 0.73 -0.79 10.06 0.09 -0.02 0.03 6887
0.42 0.25 0.70 -0.85 10.03 0.09 -0.02 0.03 6893
0.47 0.22 0.72 -0.86 10.07 0.10 -0.03 0.02 6899
0.52 0.17 0.70 -0.79 10.01 0.10 -0.03 0.01 6905
0.52 0.11 0.67 -0.85 10.14 0.10 -0.07 0.01 6912
0.56 0.10 0.71 -0.85 10.05 0.11 -0.04 -0.00 6919
0.56 0.06 0.66 -0.86 10.25 0.13 -0.04 -0.01 6925
0.58 0.03 0.69 -0.80 9.90 0.14 -0.05 -0.01 6931
0.58 0.05 0.64 -0.85 10.11 0.15 -0.06 -0.00 6937
0.64 0.04 0.62 -0.87 10.03 0.16 -0.06 -0.00 6943
0.65 0.02 0.65 -0.87 10.05 0.17 -0.06 -0.00 6950
0.70 -0.00 0.68 -0.90 10.05 0.18 -0.07 -0.00 6957
0.76 -0.00 0.73 -0.93 10.04 0.19 -0.08 -0.01 6963
0.78 -0.02 0.74 -0.93 10.04 0.20 -0.08 -0.02 6969
0.83 -0.01 0.75 -1.01 9.98 0.21 -0.08 -0.03 6975
0.84 -0.03 0.78 -1.05 9.99 0.21 -0.07 -0.05 6981
0.88 -0.03 0.73 -1.05 9.94 0.23 -0.07 -0.06 6988
0.94 -0.02 0.79 -1.03 10.05 0.24 -0.07 -0.07 6994
1.00 -0.03 0.73 -1.10 9.95 0.26 -0.06 -0.08 7001
1.02 -0.04 0.73 -1.12 9.93 0.27 -0.06 -0.09 7007
1.03 -0.03 0.65 -1.13 9.88 0.27 -0.05 -0.09 7013
1.11 -0.04 0.59 -1.11 9.94 0.27 -0.05 -0.09 7019
1.16 -0.04 0.62 -1.12 10.02 0.29 -0.04 -0.08 7026
1.20 -0.04 0.53 -1.16 10.11 0.30 -0.04 -0.07 7032
1.24 -0.05 0.57 -1.23 10.21 0.34 -0.05 -0.06 7038
1.30 -0.06 0.74 -1.27 10.46 0.40 -0.06 -0.06 7045
1.33 -0.04 0.70 -1.28 10.55 0.47 -0.06 -0.06 7051
1.38 -0.06 0.82 -1.38 10.80 0.62 -0.08 -0.07 7058
1.50 -0.07 0.78 -1.43 11.03 0.71 -0.10 -0.08 7064
1.52 -0.06 0.83 -1.53 11.16 0.83 -0.11 -0.08 7070
1.57 -0.07 0.89 -1.53 11.39 0.95 -0.12 -0.09 7076
1.60 -0.06 0.95 -1.64 11.50 1.06 -0.14 -0.11 7084
1.65 -0.06 0.87 -1.85 11.51 1.17 -0.20 -0.12 7090
1.68 -0.07 0.93 -1.89 11.77 1.30 -0.19 -0.13 7096
1.71 -0.04 1.01 -1.93 12.05 1.44 -0.21 -0.14 7102
1.76 -0.06 1.01 -1.96 12.36 1.59 -0.25 -0.16 7108
1.78 -0.05 0.81 -2.01 12.32 1.74 -0.30 -0.17 7115
1.85 -0.05 0.72 -2.10 12.57 1.90 -0.36 -0.19 7121
1.88 -0.06 0.42 -2.13 12.29 2.06 -0.43 -0.18 7128
1.92 -0.05 0.42 -2.14 12.90 2.26 -0.48 -0.17 7134
1.93 -0.05 0.62 -2.23 13.55 2.46 -0.49 -0.16 7141
1.96 -0.07 0.26 -2.52 13.45 2.64 -0.49 -0.16 7147
1.97 -0.06 0.29 -2.64 13.95 2.90 -0.47 -0.16 7153
1.90 -0.04 0.29 -2.81 13.86 3.18 -0.48 -0.17 7159
1.88 -0.05 0.16 -2.41 14.33 3.52 -0.43 -0.19 7166
1.86 -0.06 0.74 -3.02 14.64 3.87 -0.41 -0.20 7173
1.81 -0.06 1.09 -3.22 14.59 4.16 -0.44 -0.24 7179
1.65 -0.04 1.24 -3.33 16.07 4.28 -0.48 -0.30 7185
1.52 -0.05 1.31 -3.75 16.86 4.28 -0.60 -0.37 7191
1.36 -0.05 1.57 -4.54 19.90 4.28 -0.72 -0.42 7198
1.23 -0.04 2.48 -5.59 21.29 4.28 -0.91 -0.52 7204
1.07 -0.04 3.72 -7.62 24.29 4.28 -1.12 -0.69 7211
0.93 -0.04 3.30 -11.31 28.63 4.28 -1.31 -0.89 7218
0.82 -0.04 3.77 -14.26 34.27 4.28 -1.34 -1.00 7224
0.73 -0.03 4.17 -16.79 37.33 4.28 -1.12 -1.02 7230
0.57 -0.03 3.70 -16.02 34.10 4.28 -0.87 -1.04 7236
0.47 -0.03 2.66 -13.02 32.95 4.28 -0.60 -1.08 7243
0.34 -0.01 2.57 -8.66 33.80 4.28 -0.34 -1.10 7249
0.27 -0.02 2.24 -5.30 36.28 4.28 -0.29 -1.14 7256
0.20 -0.02 3.67 -1.83 38.12 4.28 -0.71 -1.22 7262
0.19 -0.01 6.59 1.72 39.49 4.28 -1.38 -1.29 7269
0.12 -0.01 9.16 6.48 37.37 4.28 -1.59 -1.31 7275
0.09 -0.01 12.76 16.49 29.32 4.28 -1.48 -1.29 7281
0.08 -0.01 13.76 22.09 21.16 4.28 -1.20 -1.53 7287
0.07 -0.01 11.32 25.05 -1.89 4.02 -0.71 -2.12 7294
0.06 0.01 9.63 26.49 8.22 2.68 -0.73 -2.67 7301
0.06 -0.01 12.56 18.74 35.13 1.07 0.51 -2.61 7307
0.05 -0.01 9.93 15.41 32.25 -1.04 1.34 -2.30 7313
0.03 -0.00 6.57 16.11 21.54 -2.27 1.47 -1.97 7319
0.04 -0.00 4.07 15.84 15.08 -2.87 1.19 -1.63 7326
0.06 -0.01 3.54 13.61 11.74 -3.43 0.68 -1.31 7332
0.06 -0.01 3.47 11.34 10.44 -3.89 0.23 -1.05 7339
0.05 -0.00 4.34 9.94 9.36 -4.07 -0.04 -0.86 7345
0.06 -0.01 4.91 8.18 8.73 -4.11 -0.10 -0.71 7351
0.06 -0.01 5.18 6.84 8.19 -4.14 0.05 -0.55 7357
0.04 -0.00 5.48 6.06 7.59 -4.15 0.34 -0.41 7364
0.03 -0.00 5.83 5.48 7.46 -4.17 0.68 -0.32 7370
0.05 -0.00 5.73 4.84 7.62 -4.20 1.05 -0.25 7376
0.05 -0.00 5.31 4.26 8.09 -4.24 1.31 -0.20 7383
0.04 -0.00 4.64 3.67 8.47 -4.27 1.59 -0.15 7389
0.04 -0.00 4.04 3.13 8.98 -4.28 1.78 -0.08 7395
0.05 -0.00 3.44 2.55 9.36 -4.28 1.89 0.01 7401
0.05 -0.00 2.79 1.98 10.02 -4.28 1.90 0.11 7407
0.05 -0.00 2.25 1.46 10.71 -4.28 1.87 0.24 7413
0.04 -0.00 1.99 0.94 11.12 -4.28 1.82 0.38 7420
0.06 -0.01 1.76 0.00 11.55 -4.28 1.72 0.53 7427
0.05 -0.00 1.64 0.25 11.92 -4.28 1.61 0.64 7433
0.05 -0.00 1.86 -0.09 12.52 -4.28 1.51 0.75 7439
0.05 -0.01 2.17 -0.53 13.27 -4.28 1.44 0.84 7445
0.04 -0.00 2.41 -0.99 13.97 -4.28 1.42 0.89 7451
0.06 -0.01 2.61 -1.53 14.63 -4.28 1.48 0.90 7458
0.06 0.00 2.83 -2.14 15.57 -4.28 1.60 0.87 7464
0.06 -0.01 2.87 -2.74 16.63 -4.28 1.78 0.82 7471
0.04 -0.00 2.50 -3.47 17.74 -4.28 2.01 0.72 7477
0.05 0.00 2.11 -4.36 18.49 -4.28 2.30 0.59 7483
0.05 -0.01 1.52 -5.12 19.21 -4.28 2.46 0.44 7490
0.05 -0.01 0.73 -6.04 19.68 -4.28 2.61 0.29 7496
0.06 -0.00 0.10 -6.58 20.26 -4.28 2.69 0.19 7502
0.06 -0.01 -0.32 -6.96 20.54 -4.28 2.69 0.11 7508
0.05 -0.00 -0.58 -7.30 20.89 -4.27 2.63 0.06 7515
0.05 0.00 -0.59 -7.84 21.17 -4.22 2.53 0.06 7521
0.05 -0.00 -0.28 -8.34 21.83 -4.12 2.41 0.09 7528
0.05 -0.01 0.17 -8.75 22.89 -3.99 2.27 0.14 7534
0.05 -0.00 0.84 -9.08 24.40 -3.87 2.12 0.22 7540
0.05 -0.01 1.38 -9.75 25.82 -3.83 1.97 0.32 7546
0.05 -0.00 1.88 -10.68 27.10 -3.82 1.82 0.44 7553
0.04 0.00 2.28 -11.86 27.76 -3.86 1.73 0.62 7560
0.04 -0.00 2.54 -13.31 27.38 -3.92 1.67 0.83 7566
0.04 -0.00 2.70 -15.24 26.27 -3.96 1.70 1.06 7572
0.05 0.00 2.18 -16.13 24.34 -3.97 1.86 1.30 7578
0.05 -0.01 -4.34 -21.58 33.08 -3.75 2.00 1.62 7584
0.05 -0.00 -2.03 -16.86 16.20 -3.20 2.44 1.92 7591
0.06 -0.01 -4.18 -16.36 7.77 -3.44 2.83 2.08 7598
0.06 -0.01 -5.71 -20.24 20.94 -3.51 2.88 2.30 7604
0.06 -0.01 -7.86 -22.89 19.77 -3.43 2.64 2.47 7610
0.06 -0.00 -8.29 -25.92 21.62 -3.24 2.14 2.51 7617
0.05 -0.00 -6.93 -29.03 13.78 -3.03 1.75 2.44 7623
0.06 0.00 -8.05 -31.97 11.56 -2.68 1.22 2.29 7629
0.06 -0.00 -8.05 -35.14 7.63 -2.30 0.97 2.03 7635
0.06 0.00 -8.38 -38.33 4.10 -1.89 0.91 1.67 7642
0.08 -0.00 -8.87 -40.38 1.83 -1.42 1.00 1.26 7649
0.07 -0.01 -9.48 -40.65 0.98 -0.89 1.15 0.86 7655
0.07 -0.01 -10.08 -38.85 1.43 -0.33 1.22 0.50 7661
0.07 -0.01 -20.58 -55.07 12.85 0.99 0.31 0.34 7667
0.06 -0.01 -10.35 -37.83 -6.41 2.71 -0.04 0.42 7674
0.06 0.00 -13.82 -27.86 0.76 3.45 -1.40 0.34 7681
0.05 0.05 -14.56 -33.14 -3.42 3.63 -3.02 0.31 7687
0.05 0.21 -7.04 -20.66 -0.83 3.59 -4.28 0.15 7693
0.05 0.36 -0.37 2.97 4.68 3.62 -4.27 0.14 7699
0.04 0.62 6.31 4.78 28.98 4.28 -2.25 0.56 7706
0.02 0.95 1.00 0.73 26.82 4.28 -1.08 1.01 7712
0.02 1.28 -7.97 -6.95 32.80 4.28 -1.19 0.86 7718
0.00 1.52 -11.18 -8.56 30.79 4.28 -1.45 0.32 7725
0.01 1.73 -4.11 -6.38 26.59 4.28 -1.40 -0.06 7732
0.00 1.72 -3.34 -3.74 26.36 4.27 -0.75 -0.30 7738
-0.01 1.71 -2.02 -2.69 21.86 3.86 -0.62 -0.65 7744
0.01 1.72 5.01 -4.08 26.63 3.45 -0.93 -0.78 7750
0.02 1.66 5.60 -1.91 19.81 1.97 -2.27 -0.39 7757
0.02 1.68 3.87 -3.22 14.30 0.89 -1.57 0.12 7763
0.04 1.58 0.51 -2.03 12.09 0.46 -0.90 0.26 7770
0.02 1.60 -0.53 -0.68 11.49 0.21 -0.44 0.22 7776
0.03 1.61 -0.49 -0.88 10.45 0.06 -0.19 0.10 7782
0.03 1.57 0.48 -1.33 9.85 0.01 -0.12 0.05 7789
0.03 1.61 1.16 -1.23 10.03 -0.01 -0.11 0.07 7795
0.05 1.62 0.79 -0.92 10.10 -0.02 -0.11 0.09 7801
0.01 1.65 0.47 -0.78 10.17 -0.03 -0.12 0.08 7808
0.02 1.65 0.71 -1.11 9.88 -0.03 -0.11 0.06 7814
0.07 1.59 0.75 -0.80 9.94 -0.03 -0.11 0.06 7821
0.05 1.52 0.67 -0.74 9.97 -0.02 -0.10 0.06 7827
0.10 1.45 0.59 -0.69 10.32 -0.02 -0.09 0.05 7833
0.12 1.42 0.69 -0.76 10.02 -0.01 -0.08 0.06 7839
0.10 1.39 0.65 -0.70 10.14 -0.01 -0.07 0.05 7845
0.12 1.30 0.57 -0.73 10.06 0.00 -0.06 0.05 7852
0.15 1.25 0.59 -0.77 10.13 0.01 -0.04 0.05 7859
0.14 1.22 0.70 -0.75 10.02 0.02 -0.03 0.05 7865
0.15 1.15 0.69 -0.74 10.07 0.03 -0.03 0.06 7871
0.19 1.07 0.66 -0.74 10.06 0.03 -0.02 0.05 7877
0.18 0.96 0.75 -0.78 10.05 0.03 -0.02 0.05 7883
0.19 0.86 0.71 -0.75 10.03 0.04 -0.02 0.06 7890
0.21 0.79 0.70 -0.68 10.01 0.04 -0.02 0.05 7897
0.20 0.73 0.70 -0.88 9.95 0.04 -0.02 0.05 7903
0.21 0.64 0.78 -0.70 10.02 0.04 -0.02 0.05 7909
0.25 0.57 0.70 -1.05 10.10 0.04 -0.03 0.04 7915
0.25 0.46 0.79 -0.74 9.99 0.05 -0.03 0.04 7922
0.26 0.36 0.89 -1.12 10.09 0.05 -0.04 0.03 7928
0.32 0.31 0.81 -0.82 9.97 0.05 -0.04 0.02 7934
0.36 0.29 0.86 -0.74 9.98 0.05 -0.05 0.02 7941
0.38 0.19 0.80 -0.82 10.00 0.05 -0.05 0.02 7947
0.39 0.21 0.75 -0.88 10.10 0.05 -0.05 0.01 7953
0.43 0.18 0.77 -0.85 9.98 0.05 -0.06 0.01 7960
0.43 0.14 0.65 -0.74 9.98 0.05 -0.05 0.01 7966
0.42 0.11 0.63 -0.83 9.98 0.06 -0.05 0.01 7972
0.45 0.09 0.63 -0.82 10.01 0.06 -0.05 0.01 7979
0.44 0.07 0.69 -0.84 10.06 0.07 -0.05 0.01 7985
0.47 0.06 0.73 -0.80 10.05 0.08 -0.05 0.01 7991
0.50 0.07 0.66 -0.68 10.01 0.09 -0.04 0.00 7998
0.54 0.02 0.76 -0.89 10.03 0.11 -0.04 0.00 8004
0.60 0.03 0.75 -0.92 9.98 0.12 -0.04 -0.00 8010
0.64 0.01 0.69 -0.91 10.07 0.12 -0.05 -0.01 8016
0.67 -0.01 0.71 -0.93 10.09 0.14 -0.04 -0.01 8023
0.69 0.00 0.76 -0.98 10.05 0.14 -0.05 -0.01 8029
0.73 -0.02 0.81 -0.97 10.06 0.16 -0.05 -0.02 8036
0.81 -0.03 0.78 -0.91 10.04 0.16 -0.05 -0.03 8042
0.81 -0.01 0.83 -0.98 9.96 0.16 -0.06 -0.04 8048
0.92 -0.03 0.80 -1.04 9.94 0.16 -0.06 -0.04 8054
0.94 -0.04 0.76 -1.04 9.92 0.16 -0.06 -0.05 8060
0.98 -0.03 0.70 -1.06 10.02 0.15 -0.05 -0.05 8068
1.05 -0.03 0.68 -1.02 9.99 0.15 -0.05 -0.04 8074
1.07 -0.05 0.68 -1.08 10.11 0.17 -0.06 -0.04 8080
1.13 -0.04 0.74 -1.10 10.18 0.20 -0.06 -0.05 8086
1.19 -0.05 0.78 -1.09 10.29 0.25 -0.06 -0.05 8092
1.24 -0.06 0.84 -1.24 10.38 0.33 -0.07 -0.05 8099
1.30 -0.06 0.80 -1.15 10.69 0.43 -0.08 -0.07 8105
1.36 -0.05 0.87 -1.25 10.70 0.57 -0.09 -0.08 8112
1.41 -0.06 0.95 -1.37 10.87 0.72 -0.11 -0.10 8118
1.47 -0.05 0.95 -1.44 11.13 0.86 -0.13 -0.12 8124
1.51 -0.05 0.91 -1.54 11.36 0.98 -0.16 -0.14 8131
1.57 -0.06 0.95 -1.52 11.66 1.13 -0.20 -0.15 8137
1.66 -0.05 0.84 -1.64 11.73 1.26 -0.23 -0.16 8143
1.72 -0.07 1.04 -1.74 12.09 1.35 -0.26 -0.17 8150
1.76 -0.04 1.07 -1.77 12.51 1.50 -0.31 -0.19 8157
1.79 -0.06 0.98 -1.93 12.61 1.66 -0.36 -0.20 8163
1.84 -0.05 1.04 -1.79 12.95 1.82 -0.43 -0.20 8169
1.92 -0.05 0.56 -1.94 13.11 1.99 -0.45 -0.19 8175
1.93 -0.06 -0.43 -2.19 13.09 2.17 -0.49 -0.16 8181
1.97 -0.05 0.38 -2.06 13.48 2.38 -0.52 -0.13 8188
1.98 -0.06 0.63 -2.10 13.56 2.58 -0.48 -0.12 8195
1.99 -0.07 0.51 -2.57 13.76 2.77 -0.44 -0.13 8201
1.98 -0.06 0.48 -2.60 14.37 3.04 -0.40 -0.14 8207
1.98 -0.06 0.74 -2.54 14.52 3.36 -0.36 -0.15 8214
1.93 -0.07 0.72 -2.85 15.67 3.69 -0.38 -0.18 8220
1.86 -0.06 0.90 -3.07 15.70 4.05 -0.31 -0.25 8226
1.78 -0.07 0.83 -2.41 16.52 4.26 -0.37 -0.28 8232
1.64 -0.08 1.06 -3.10 18.34 4.28 -0.49 -0.29 8240
1.48 -0.06 2.38 -4.35 18.47 4.28 -0.68 -0.38 8246
1.29 -0.06 3.45 -4.52 21.15 4.28 -0.86 -0.52 8252
1.15 -0.04 3.48 -6.30 24.01 4.28 -1.10 -0.71 8258
1.02 -0.05 2.72 -9.28 28.30 4.28 -1.31 -0.89 8265
0.85 -0.04 3.18 -11.44 33.11 4.28 -1.45 -1.00 8271
0.77 -0.05 2.67 -17.42 37.62 4.28 -1.37 -1.06 8278
0.65 -0.04 4.41 -16.37 37.57 4.28 -1.05 -1.05 8284
0.50 -0.03 3.83 -14.13 33.17 4.28 -0.78 -1.08 8291
0.37 -0.04 3.63 -10.35 32.21 4.28 -0.48 -1.11 8297
0.27 -0.01 3.16 -5.76 34.85 4.28 -0.30 -1.13 8303
0.21 -0.02 3.37 -2.43 36.11 4.28 -0.45 -1.20 8309
0.18 -0.02 5.03 1.35 36.35 4.28 -0.98 -1.31 8316
0.14 -0.01 7.26 5.66 37.42 4.28 -1.40 -1.36 8323
0.09 -0.01 9.65 11.83 30.75 4.28 -1.33 -1.37 8329
0.08 -0.01 12.96 19.49 24.14 4.28 -1.11 -1.50 8335
0.07 -0.01 10.42 21.83 10.99 4.28 -0.72 -1.97 8342
0.05 -0.01 11.46 26.75 -8.40 3.35 -0.76 -2.66 8348
0.05 0.00 9.33 21.63 25.32 1.90 -0.03 -2.91 8354
0.06 -0.01 11.82 16.31 37.45 -0.33 1.20 -2.71 8360
0.05 -0.01 7.90 15.96 26.63 -2.05 1.69 -2.38 8368
0.06 -0.01 4.46 16.18 17.38 -2.82 1.53 -2.04 8374
0.05 -0.01 2.58 14.59 15.39 -3.50 1.11 -1.66 8380
0.08 -0.01 3.36 11.81 11.31 -4.08 0.71 -1.33 8386
0.08 -0.01 4.15 9.49 9.47 -4.25 0.45 -1.07 8392
0.07 -0.01 4.74 7.77 8.22 -4.26 0.36 -0.86 8398
0.05 -0.01 5.13 6.11 6.75 -4.25 0.41 -0.70 8406
0.05 -0.01 5.40 5.08 6.50 -4.22 0.57 -0.52 8412
0.05 -0.00 5.63 4.57 6.07 -4.19 0.82 -0.40 8418
0.05 -0.01 5.70 4.03 6.25 -4.16 1.09 -0.32 8424
0.05 -0.01 6.09 3.56 6.90 -4.16 1.36 -0.26 8430
0.05 -0.01 5.22 3.16 7.93 -4.19 1.57 -0.20 8436
0.05 -0.01 4.70 2.76 8.35 -4.23 1.78 -0.11 8442
0.05 -0.00 4.12 2.54 9.04 -4.26 1.91 -0.05 8449
0.05 -0.01 3.46 2.24 9.75 -4.28 1.97 0.06 8455
0.06 -0.01 3.01 1.87 10.46 -4.28 1.98 0.20 8462
0.05 -0.00 2.68 1.41 10.92 -4.28 1.96 0.35 8468
0.05 -0.01 2.31 0.96 11.41 -4.28 1.91 0.51 8474
0.07 -0.01 2.11 0.40 11.82 -4.28 1.84 0.65 8480
0.07 -0.01 2.03 -0.59 12.31 -4.28 1.83 0.75 8486
0.06 -0.01 2.10 -0.46 12.79 -4.28 1.80 0.81 8493
0.06 0.00 2.19 -0.98 14.02 -4.28 1.81 0.86 8500
0.06 -0.01 2.28 -1.54 14.21 -4.28 1.86 0.86 8506
0.06 -0.01 2.35 -2.16 14.98 -4.28 1.96 0.84 8512
0.06 0.00 2.34 -2.82 15.89 -4.28 2.11 0.78 8518
0.06 -0.00 2.19 -3.39 16.91 -4.28 2.29 0.69 8524
0.05 0.00 1.92 -4.18 17.69 -4.28 2.50 0.58 8531
0.05 0.01 1.51 -5.00 18.37 -4.28 2.72 0.45 8538
0.05 0.00 1.04 -5.78 18.79 -4.28 2.90 0.33 8544
0.03 -0.00 0.62 -6.41 19.35 -4.28 3.02 0.24 8550
0.05 0.01 0.17 -7.02 19.71 -4.27 3.07 0.18 8556
0.05 -0.00 -0.33 -7.76 20.12 -4.24 3.01 0.16 8562
0.04 -0.00 -0.76 -8.31 20.94 -4.14 2.91 0.19 8569
0.05 0.00 -1.23 -8.58 22.00 -3.99 2.70 0.24 8576
0.06 -0.01 -1.02 -8.52 22.96 -3.83 2.43 0.33 8582
0.05 -0.00 -0.34 -8.40 24.00 -3.74 2.14 0.41 8588
0.06 0.01 0.36 -8.46 25.04 -3.76 1.88 0.51 8594
0.06 -0.01 1.09 -9.03 25.70 -3.82 1.71 0.63 8600
0.05 -0.01 1.60 -10.14 26.13 -3.90 1.63 0.79 8607
0.05 -0.00 2.09 -11.46 26.11 -3.97 1.67 0.96 8613
0.06 -0.01 2.34 -13.01 25.62 -3.99 1.83 1.15 8620
0.06 -0.00 2.07 -14.65 24.76 -3.98 2.06 1.35 8626
0.08 -0.00 1.18 -16.17 23.44 -3.88 2.30 1.55 8633
0.07 -0.01 -0.43 -17.63 21.55 -3.75 2.55 1.78 8639
0.07 0.00 -2.55 -18.94 20.15 -3.51 2.79 2.04 8645
0.07 -0.00 -4.38 -20.77 19.93 -3.29 2.89 2.28 8651
0.07 -0.01 -6.37 -23.40 19.46 -3.05 2.59 2.42 8658
0.08 -0.00 -7.72 -26.06 17.90 -2.84 1.96 2.47 8665
0.07 -0.01 -8.10 -28.55 15.28 -2.69 1.24 2.42 8671
0.07 0.01 -7.81 -30.17 11.25 -2.52 0.69 2.29 8677
0.08 -0.00 -7.59 -32.43 8.46 -2.30 0.46 2.09 8684
0.07 -0.00 -7.64 -35.01 5.63 -1.98 0.51 1.84 8690
0.09 -0.00 -8.57 -36.90 3.58 -1.57 0.70 1.54 8696
0.08 -0.01 -8.50 -37.47 2.12 -1.10 0.88 1.23 8702
0.07 -0.00 -9.26 -36.52 1.93 -0.59 0.99 0.91 8710
0.09 0.00 -10.07 -34.07 2.89 -0.07 0.95 0.65 8716
0.07 -0.01 -10.54 -30.76 4.87 0.41 0.72 0.44 8722
0.07 0.00 -10.51 -27.08 7.16 0.80 0.33 0.33 8728
0.06 -0.01 -25.66 -45.59 78.47 3.36 -2.67 0.50 8735
0.06 -0.01 -3.49 -21.80 6.33 3.67 -2.06 0.73 8741
0.06 0.05 -6.52 -15.13 -4.12 3.50 -3.17 0.57 8748
0.06 0.19 -1.90 -9.61 -5.67 2.86 -4.21 0.45 8754
0.04 0.38 -0.04 1.63 8.81 2.87 -3.87 0.48 8760
0.05 0.66 3.09 10.35 24.85 3.71 -1.96 0.73 8767
0.02 0.99 -2.62 3.50 17.78 4.04 -1.33 0.91 8773
-0.01 1.37 -7.10 -5.73 25.71 4.28 -1.65 0.59 8779
0.01 1.64 -7.24 -9.41 26.66 4.28 -1.56 0.17 8785
-0.02 1.79 -3.62 -6.83 28.12 4.28 -1.26 -0.10 8792
-0.04 1.86 -3.03 -3.55 28.54 4.27 -0.82 -0.35 8799
0.00 1.87 -0.30 -2.90 21.94 3.80 -0.75 -0.64 8805
-0.03 1.88 4.64 -3.07 19.78 3.56 -0.80 -0.68 8811
-0.01 1.77 3.94 -2.85 28.09 2.47 -2.16 -0.43 8817
-0.01 1.75 3.71 -2.78 15.16 0.93 -1.64 0.06 8824
-0.02 1.71 -0.07 -2.25 13.04 0.45 -0.79 0.28 8830
-0.01 1.70 -0.83 -0.89 10.97 0.16 -0.30 0.23 8837
0.00 1.68 -0.12 -0.80 10.37 0.05 -0.11 0.10 8843
0.01 1.60 0.82 -1.22 10.20 0.01 -0.10 0.07 8849
-0.01 1.66 1.28 -0.65 10.15 -0.01 -0.08 0.10 8856
-0.01 1.60 0.80 -0.96 10.25 -0.02 -0.08 0.11 8862
0.03 1.59 0.49 -0.72 9.93 -0.03 -0.09 0.09 8868
0.07 1.54 0.71 -0.81 9.99 -0.04 -0.08 0.08 8875
0.07 1.51 0.85 -0.77 10.00 -0.03 -0.08 0.07 8881
0.09 1.50 0.76 -0.73 10.04 -0.03 -0.07 0.07 8888
0.09 1.42 0.65 -0.69 10.14 -0.02 -0.06 0.06 8894
0.07 1.40 0.70 -0.70 10.12 -0.01 -0.05 0.05 8900
0.10 1.27 0.63 -0.71 10.09 0.00 -0.04 0.05 8906
0.12 1.21 0.65 -0.68 10.13 0.01 -0.03 0.05 8912
0.14 1.14 0.83 -0.59 10.14 0.02 -0.01 0.05 8920
0.18 1.00 0.75 -0.72 10.06 0.03 0.00 0.06 8926
0.17 0.97 0.73 -0.71 10.03 0.03 0.01 0.05 8932
0.17 0.87 0.72 -0.72 10.01 0.04 0.01 0.05 8938
0.18 0.82 0.75 -0.70 10.07 0.05 0.02 0.06 8944
0.22 0.74 0.76 -0.65 10.04 0.06 0.02 0.06 8950
0.23 0.67 0.81 -0.70 10.02 0.07 0.03 0.06 8957
0.26 0.54 1.02 -1.07 10.07 0.08 0.03 0.05 8964
0.29 0.45 0.83 -0.70 9.98 0.08 0.03 0.05 8970
0.29 0.38 0.85 -0.78 9.83 0.09 0.03 0.04 8976
0.29 0.33 0.97 -0.53 10.00 0.08 0.03 0.04 8982
0.31 0.24 0.87 -0.80 9.95 0.08 0.02 0.03 8988
0.32 0.18 0.81 -0.68 9.94 0.08 0.02 0.03 8995
0.33 0.17 0.88 -0.91 10.04 0.08 0.02 0.03 9001
0.35 0.14 0.84 -0.89 9.98 0.08 0.01 0.03 9008
0.38 0.10 0.85 -0.85 9.96 0.08 0.01 0.03 9014
0.41 0.09 0.81 -0.83 9.94 0.08 0.00 0.03 9020
0.45 0.08 0.75 -0.80 9.94 0.09 0.01 0.03 9026
0.46 0.04 0.78 -0.74 10.11 0.10 0.01 0.03 9032
0.50 0.04 0.71 -0.86 9.98 0.10 0.00 0.03 9039
0.52 -0.01 0.86 -0.82 10.02 0.11 0.00 0.03 9046
0.57 -0.02 0.86 -0.93 10.03 0.13 0.00 0.02 9052
0.58 -0.01 0.86 -0.90 10.01 0.15 -0.01 0.02 9058
0.61 -0.01 0.94 -0.90 10.05 0.17 -0.01 0.01 9064
0.65 -0.03 0.80 -0.32 10.14 0.18 -0.01 -0.00 9070
0.65 -0.05 0.96 -0.89 10.08 0.22 -0.01 -0.02 9077
0.67 -0.03 1.05 -0.99 10.04 0.23 -0.01 -0.03 9083
0.73 -0.04 0.99 -1.02 10.14 0.26 -0.01 -0.04 9090
0.73 -0.05 1.01 -1.00 10.06 0.30 -0.02 -0.05 9096
0.75 -0.02 0.91 -1.03 9.99 0.33 -0.01 -0.06 9102
0.81 -0.04 0.95 -1.05 10.01 0.34 -0.02 -0.07 9109
0.82 -0.05 0.92 -1.14 10.00 0.34 -0.02 -0.07 9115
0.84 -0.03 0.81 -1.16 9.85 0.34 -0.03 -0.07 9121
0.89 -0.04 0.82 -1.21 9.95 0.33 -0.03 -0.07 9127
0.91 -0.05 0.83 -1.17 10.01 0.34 -0.05 -0.06 9134
0.93 -0.03 0.86 -1.25 10.00 0.34 -0.05 -0.06 9141
0.98 -0.03 0.88 -1.24 10.15 0.36 -0.06 -0.06 9147
1.01 -0.04 0.94 -1.31 10.16 0.38 -0.07 -0.06 9153
1.06 -0.03 0.91 -1.35 10.22 0.43 -0.09 -0.05 9159
1.13 -0.05 0.83 -1.36 9.86 0.48 -0.09 -0.05 9165
1.20 -0.04 0.85 -1.42 10.52 0.54 -0.11 -0.04 9172
1.25 -0.04 0.78 -1.45 10.66 0.61 -0.12 -0.03 9179
1.29 -0.04 0.83 -1.52 10.77 0.70 -0.13 -0.03 9185
1.35 -0.04 0.94 -1.64 10.82 0.78 -0.13 -0.03 9191
1.40 -0.05 0.98 -1.77 11.01 0.87 -0.13 -0.03 9197
1.46 -0.06 1.14 -1.76 11.34 0.96 -0.14 -0.04 9204
1.50 -0.06 1.18 -1.76 11.44 1.08 -0.14 -0.06 9210
1.55 -0.06 1.17 -1.81 11.48 1.20 -0.15 -0.08 9217
1.58 -0.06 1.25 -1.96 11.64 1.33 -0.18 -0.11 9223
1.63 -0.04 1.08 -1.98 11.68 1.44 -0.21 -0.14 9230
1.65 -0.03 0.99 -2.07 12.12 1.62 -0.26 -0.16 9236
1.70 -0.03 0.80 -2.18 12.47 1.77 -0.30 -0.16 9242
1.75 -0.04 0.99 -2.36 12.65 1.92 -0.32 -0.15 9248
1.79 -0.05 0.71 -2.39 12.98 2.11 -0.33 -0.17 9255
1.78 -0.02 0.75 -2.34 13.20 2.35 -0.32 -0.15 9262
1.79 -0.04 0.79 -2.58 13.58 2.55 -0.33 -0.16 9268
1.76 -0.05 0.68 -2.65 14.19 2.80 -0.33 -0.17 9274
1.78 -0.05 0.75 -2.96 14.31 3.13 -0.32 -0.18 9281
1.73 -0.05 0.85 -2.74 14.78 3.46 -0.30 -0.19 9287
1.67 -0.05 1.22 -2.55 14.43 3.81 -0.26 -0.23 9293
1.64 -0.04 0.76 -2.98 14.79 4.12 -0.26 -0.26 9299
1.52 -0.05 0.57 -3.21 15.82 4.27 -0.28 -0.28 9306
1.39 -0.04 0.44 -3.53 17.98 4.28 -0.25 -0.28 9313
1.21 -0.04 1.38 -4.31 19.62 4.28 -0.32 -0.31 9319
1.01 -0.04 2.78 -5.58 20.87 4.28 -0.44 -0.40 9325
0.96 -0.03 4.11 -7.98 23.59 4.28 -0.54 -0.56 9331
0.90 -0.05 3.22 -10.48 29.68 4.28 -0.73 -0.71 9338
0.82 -0.03 3.12 -13.97 34.54 4.28 -0.82 -0.78 9345
0.64 -0.04 5.08 -14.77 35.03 4.28 -0.65 -0.81 9351
0.57 -0.03 6.12 -15.65 32.89 4.28 -0.32 -0.86 9358
0.48 -0.03 5.01 -13.98 30.64 4.28 0.08 -0.89 9364
0.35 -0.02 4.21 -10.13 30.94 4.28 0.46 -0.96 9370
0.31 -0.02 2.10 -6.52 34.72 4.28 0.57 -1.04 9376
0.22 -0.02 1.33 -3.79 36.20 4.28 0.25 -1.19 9383
0.19 -0.01 3.12 -0.80 36.56 4.28 -0.39 -1.31 9390
0.15 -0.01 5.96 3.25 37.25 4.28 -0.89 -1.36 9396
0.12 -0.01 8.08 10.51 32.80 4.28 -0.98 -1.34 9402
0.07 -0.01 12.78 18.91 26.26 4.28 -0.78 -1.44 9408
0.06 -0.01 11.74 22.08 14.78 4.28 -0.25 -1.87 9415
0.04 -0.00 11.77 24.39 -9.23 3.40 0.26 -2.73 9421
0.06 -0.01 8.26 20.39 17.64 2.39 0.55 -3.20 9427
0.05 -0.00 11.28 15.26 36.31 0.48 1.89 -3.10 9434
0.06 -0.01 8.84 16.19 31.47 -1.57 2.66 -2.83 9441
0.07 -0.01 4.34 17.34 20.00 -2.75 2.43 -2.53 9447
0.05 -0.00 1.38 15.36 13.35 -3.57 1.75 -2.12 9453
0.06 -0.01 1.33 12.79 13.93 -4.20 1.17 -1.67 9459
0.06 -0.01 2.26 10.29 11.84 -4.28 0.69 -1.28 9465
0.06 -0.01 2.83 8.26 10.14 -4.28 0.33 -1.00 9473
0.06 -0.01 3.01 6.42 9.05 -4.28 0.10 -0.76 9479
0.05 -0.00 3.33 5.38 7.83 -4.28 0.06 -0.55 9485
0.05 -0.00 4.09 4.62 6.92 -4.28 0.11 -0.40 9491
0.05 -0.00 4.66 4.13 6.57 -4.28 0.26 -0.27 9497
0.06 -0.01 4.76 3.74 6.57 -4.28 0.47 -0.19 9503
0.07 -0.01 4.71 3.46 7.08 -4.27 0.71 -0.14 9509
0.08 -0.01 4.67 3.22 7.89 -4.28 1.00 -0.09 9516
0.06 -0.01 4.40 3.06 8.71 -4.28 1.18 -0.04 9523
0.07 -0.01 3.85 2.79 9.78 -4.28 1.40 0.01 9529
0.06 -0.01 3.30 2.52 9.80 -4.28 1.58 0.10 9535
0.07 -0.01 2.76 2.11 10.51 -4.28 1.71 0.21 9541
0.07 -0.00 2.17 1.70 11.11 -4.28 1.78 0.33 9547
0.06 -0.01 1.76 1.17 11.78 -4.28 1.82 0.47 9553
0.06 -0.01 1.46 0.61 12.53 -4.28 1.82 0.58 9560
0.05 -0.00 1.25 0.15 13.20 -4.28 1.81 0.67 9567
0.06 -0.01 1.11 -0.14 14.11 -4.28 1.80 0.73 9573
0.05 -0.01 1.08 -0.39 15.03 -4.28 1.81 0.75 9579
0.04 -0.00 1.08 -0.93 15.79 -4.28 1.87 0.71 9585
0.06 -0.01 0.97 -1.81 16.57 -4.28 1.98 0.69 9591
0.05 -0.00 0.80 -2.79 17.43 -4.28 2.14 0.60 9597
0.03 -0.00 0.56 -3.85 18.03 -4.28 2.32 0.49 9605
0.04 0.00 0.15 -4.97 18.56 -4.28 2.47 0.35 9611
0.04 -0.00 -0.28 -5.86 18.97 -4.28 2.59 0.21 9617
0.03 -0.00 -0.80 -6.33 19.07 -4.28 2.64 0.11 9623
0.05 0.00 -1.11 -6.73 19.43 -4.28 2.63 0.06 9629
0.05 -0.00 -1.31 -6.97 19.42 -4.27 2.56 0.05 9635
0.04 -0.00 -1.58 -7.21 19.68 -4.20 2.41 0.09 9643
0.04 0.00 -1.60 -7.40 20.36 -4.04 2.21 0.18 9649
0.04 -0.00 -1.38 -7.50 21.90 -3.80 1.98 0.27 9655
0.03 -0.00 -0.93 -7.66 22.67 -3.60 1.74 0.40 9661
0.04 -0.00 -0.51 -8.11 24.09 -3.48 1.47 0.53 9667
0.04 -0.00 -0.03 -8.89 25.34 -3.42 1.20 0.68 9673
0.04 -0.00 0.81 -10.19 26.35 -3.42 1.00 0.83 9680
0.05 -0.00 2.06 -11.94 26.72 -3.46 0.95 1.01 9687
0.04 -0.00 3.33 -13.79 25.99 -3.49 1.10 1.20 9693
0.04 -0.00 3.59 -15.59 24.50 -3.54 1.45 1.41 9699
0.04 0.01 2.17 -16.74 23.53 -3.60 2.01 1.65 9706
0.05 -0.00 -0.70 -21.97 21.73 -3.67 2.57 1.88 9712
0.04 -0.00 -5.76 -24.84 38.33 -3.17 2.49 2.08 9718
0.06 -0.01 -3.93 -18.82 7.69 -3.23 2.50 2.21 9724
0.05 -0.01 -6.86 -22.04 9.91 -3.41 1.95 2.28 9731
0.05 0.00 -5.94 -22.59 20.04 -3.59 1.35 2.40 9738
0.06 -0.01 -6.78 -28.98 25.71 -3.37 0.69 2.38 9744
0.05 -0.00 -4.64 -29.57 14.17 -3.11 0.48 2.33 9750
0.06 0.01 -4.18 -31.48 9.72 -2.68 0.29 2.15 9756
0.06 -0.00 -4.20 -34.32 4.11 -2.26 0.32 1.92 9762
0.05 -0.00 -4.33 -36.70 3.49 -1.82 0.51 1.65 9769
0.06 0.01 -4.98 -38.50 5.36 -1.18 0.83 1.36 9776
0.06 -0.01 -6.25 -40.77 5.27 -0.41 1.16 1.09 9782
0.04 -0.00 -10.43 -39.85 9.95 1.05 1.18 0.93 9788
0.05 -0.00 -10.44 -38.29 -1.94 1.55 1.15 0.84 9794
0.05 -0.01 -11.24 -33.08 3.50 2.57 0.35 0.78 9801
0.05 0.00 -13.50 -33.58 3.04 3.08 -0.75 0.73 9807
0.05 0.11 -9.85 -36.12 0.08 3.23 -2.02 0.62 9814
0.04 0.26 -7.46 -10.97 -6.90 3.19 -3.10 0.42 9820
0.03 0.44 -1.77 -3.42 7.33 3.83 -2.90 0.35 9827
0.01 0.69 3.76 4.79 32.81 4.28 -1.40 0.51 9833
-0.00 1.02 -3.06 -1.49 26.70 4.28 -1.05 0.58 9839
-0.02 1.30 -6.19 -5.45 29.03 4.28 -1.32 0.29 9845
-0.03 1.50 -2.98 -7.10 26.69 4.28 -1.42 -0.03 9851
-0.02 1.57 -0.91 -6.05 25.04 4.28 -1.04 -0.18 9859
-0.02 1.61 -0.51 -3.69 25.17 4.23 -0.77 -0.32 9865
-0.02 1.58 0.56 -2.70 21.06 3.85 -1.00 -0.53 9871
-0.02 1.56 3.52 -3.82 32.11 3.34 -1.90 -0.53 9877
-0.03 1.59 4.19 -3.02 15.36 1.31 -2.08 -0.13 9884
-0.02 1.58 1.16 -3.66 12.24 0.56 -1.15 0.15 9890
-0.00 1.52 -0.17 -2.19 11.85 0.22 -0.57 0.20 9896
-0.01 1.55 -0.29 -0.92 10.59 0.07 -0.25 0.10 9903
-0.01 1.54 0.44 -1.10 10.23 0.02 -0.15 0.05 9910
-0.00 1.54 1.11 -1.53 10.11 -0.00 -0.13 0.05 9916
0.01 1.54 1.03 -1.32 10.19 -0.02 -0.14 0.08 9922
0.05 1.56 0.59 -0.92 10.03 -0.03 -0.14 0.08 9928
0.04 1.57 0.60 -0.85 10.00 -0.03 -0.13 0.06 9934
0.05 1.55 0.78 -0.85 10.03 -0.02 -0.12 0.06 9942
0.02 1.51 0.79 -0.79 9.97 -0.02 -0.11 0.06 9948
0.06 1.48 0.73 -0.78 9.99 -0.01 -0.10 0.06 9954
0.05 1.46 0.74 -0.81 10.06 -0.00 -0.10 0.05 9960
0.06 1.43 0.72 -0.84 10.07 -0.01 -0.09 0.05 9966
0.07 1.36 0.72 -0.80 10.03 -0.00 -0.08 0.05 9972
0.07 1.27 0.65 -0.80 10.10 0.01 -0.07 0.05 9979
0.08 1.23 0.72 -0.77 10.09 0.01 -0.06 0.05 9986
0.10 1.16 0.75 -0.83 10.11 0.02 -0.05 0.05 9992
0.09 1.13 0.04 -1.26 9.79 0.02 -0.04 0.05 9998
0.11 1.08 0.72 -0.80 9.99 0.02 -0.04 0.05 10004
0.13 0.97 0.74 -0.81 9.99 0.03 -0.04 0.05 10010
0.15 0.91 0.77 -0.81 9.96 0.03 -0.03 0.05 10017
0.16 0.85 0.78 -0.83 9.99 0.03 -0.03 0.05 10023
0.17 0.76 0.78 -0.86 9.99 0.03 -0.03 0.05 10030
0.19 0.66 0.76 -0.85 9.95 0.03 -0.03 0.04 10036
0.20 0.61 0.78 -0.83 9.94 0.03 -0.02 0.04 10042
0.21 0.50 0.74 -0.84 9.94 0.03 -0.03 0.03 10049
0.20 0.52 0.79 -0.88 9.95 0.03 -0.02 0.03 10055
0.19 0.48 0.79 -0.89 9.94 0.03 -0.02 0.03 10061
0.24 0.43 0.74 -0.47 9.92 0.03 -0.02 0.03 10067
0.24 0.37 0.78 -0.91 9.98 0.03 -0.02 0.02 10074
0.24 0.37 0.78 -0.86 10.00 0.03 -0.03 0.02 10081
0.27 0.27 0.77 -0.87 9.98 0.03 -0.03 0.02 10087
0.26 0.26 0.78 -0.87 10.01 0.03 -0.03 0.03 10093
0.29 0.25 0.80 -0.90 9.99 0.03 -0.03 0.02 10099
0.30 0.17 0.72 -0.95 10.05 0.03 -0.03 0.02 10105
0.29 0.16 0.78 -0.91 9.97 0.04 -0.03 0.02 10113
0.32 0.17 0.75 -0.91 9.91 0.04 -0.03 0.02 10119
0.35 0.13 0.83 -0.87 9.99 0.04 -0.03 0.02 10125
0.40 0.11 0.79 -0.92 10.01 0.04 -0.02 0.02 10131
0.45 0.09 0.75 -0.96 9.99 0.04 -0.03 0.01 10137
0.47 0.07 0.79 -0.90 9.98 0.04 -0.03 0.01 10144
0.49 0.07 0.84 -0.71 10.03 0.05 -0.03 0.01 10150
0.54 0.03 0.74 -1.02 10.04 0.05 -0.04 -0.03 10157
0.54 0.03 0.75 -0.97 9.92 0.06 -0.04 -0.00 10163
0.59 0.02 0.82 -0.94 9.97 0.06 -0.05 -0.01 10169
0.64 0.01 0.80 -0.95 9.96 0.06 -0.05 -0.01 10176
0.68 0.00 0.80 -0.94 9.97 0.07 -0.05 -0.01 10182
0.74 0.00 0.80 -0.99 9.98 0.07 -0.05 -0.01 10188
0.78 0.00 0.80 -1.00 9.97 0.08 -0.04 -0.01 10194
0.82 -0.02 0.73 -0.93 9.99 0.09 -0.03 -0.01 10201
0.88 -0.01 0.74 -0.98 10.10 0.11 -0.03 -0.01 10208
0.97 -0.03 0.81 -0.98 10.14 0.13 -0.02 -0.02 10214
1.02 -0.04 0.80 -1.02 10.21 0.16 -0.02 -0.02 10220
1.05 -0.03 0.85 -1.07 10.22 0.21 -0.02 -0.02 10226
1.12 -0.05 0.81 -1.13 10.28 0.26 -0.03 -0.03 10232
1.17 -0.04 0.84 -1.15 10.41 0.33 -0.03 -0.04 10240
1.26 -0.04 0.84 -1.18 10.56 0.43 -0.03 -0.05 10246
1.32 -0.06 0.88 -1.31 10.85 0.58 -0.05 -0.05 10252
1.35 -0.05 0.88 -1.31 11.32 0.80 -0.06 -0.07 10259
1.46 -0.05 0.97 -1.39 11.83 1.05 -0.08 -0.08 10265
1.52 -0.06 0.89 -1.43 11.97 1.30 -0.11 -0.10 10271
1.57 -0.05 1.02 -1.64 12.61 1.49 -0.15 -0.11 10277
1.63 -0.06 1.05 -1.77 12.34 1.63 -0.21 -0.12 10285
1.69 -0.05 1.05 -1.72 12.40 1.76 -0.25 -0.12 10291
1.74 -0.05 1.04 -1.80 12.71 1.90 -0.28 -0.13 10297
1.78 -0.05 0.76 -2.02 12.86 2.03 -0.32 -0.13 10303
1.80 -0.05 0.10 -1.89 13.89 2.17 -0.39 -0.12 10310
1.83 -0.08 0.74 -2.10 13.29 2.33 -0.40 -0.12 10316
1.83 -0.06 0.32 -2.39 13.67 2.50 -0.37 -0.13 10322
1.83 -0.07 0.63 -2.19 13.73 2.72 -0.32 -0.12 10330
1.80 -0.06 0.86 -2.48 13.63 2.96 -0.31 -0.13 10336
1.83 -0.08 0.66 -2.44 14.34 3.25 -0.32 -0.14 10342
1.80 -0.06 1.15 -2.59 14.85 3.57 -0.35 -0.16 10348
1.73 -0.06 7.76 -10.43 14.90 3.96 -0.37 -0.23 10355
1.71 -0.07 1.18 -2.94 14.30 4.20 -0.37 -0.26 10361
1.60 -0.06 1.02 -3.04 15.75 4.28 -0.38 -0.32 10368
1.45 -0.06 1.26 -3.39 17.99 4.28 -0.51 -0.37 10375
1.32 -0.05 2.45 -4.11 18.85 4.28 -0.68 -0.44 10381
1.24 -0.07 3.65 -5.66 20.54 4.28 -0.94 -0.59 10387
1.12 -0.05 3.83 -7.02 23.25 4.28 -1.16 -0.80 10393
0.95 -0.06 4.12 -7.71 26.54 4.28 -1.33 -1.01 10400
0.82 -0.03 3.60 -14.10 33.42 4.28 -1.35 -1.09 10406
0.77 -0.04 4.29 -15.86 36.92 4.28 -1.13 -1.09 10413
0.63 -0.03 4.03 -16.29 34.08 4.28 -0.89 -1.09 10420
0.45 -0.03 4.69 -13.75 31.68 4.28 -0.55 -1.10 10426
0.36 -0.02 3.99 -9.94 31.97 4.28 -0.17 -1.14 10432
0.30 -0.02 2.25 -5.74 34.07 4.28 -0.09 -1.22 10439
0.24 -0.02 2.43 -2.42 37.07 4.28 -0.38 -1.28 10445
0.20 -0.02 4.86 0.17 37.95 4.28 -0.96 -1.36 10451
0.13 -0.01 7.48 4.17 37.67 4.28 -1.37 -1.41 10458
0.07 -0.00 9.51 11.02 30.51 4.28 -1.38 -1.39 10465
0.07 -0.01 13.60 17.85 28.79 4.28 -1.11 -1.52 10471
0.06 -0.01 11.08 20.68 12.88 4.28 -0.59 -1.93 10477
0.06 0.00 12.96 25.27 -6.89 3.54 -0.49 -2.58 10484
0.05 -0.00 10.30 21.65 28.52 2.11 0.06 -2.80 10490
0.05 -0.01 12.85 16.90 37.62 -0.17 1.36 -2.43 10497
0.05 -0.01 8.75 16.61 25.35 -2.06 1.92 -1.99 10504
0.09 -0.01 4.68 16.44 16.57 -2.99 1.74 -1.57 10510
0.07 -0.01 2.74 14.67 13.18 -3.64 1.20 -1.15 10516
0.07 -0.00 3.04 12.02 11.93 -4.15 0.66 -0.84 10522
0.06 -0.01 3.50 9.34 9.71 -4.26 0.26 -0.63 10529
0.06 -0.01 4.21 8.13 8.43 -4.27 0.04 -0.47 10535
0.07 -0.01 4.84 6.63 7.67 -4.25 0.04 -0.37 10542
0.06 -0.01 5.30 5.72 6.98 -4.23 0.23 -0.26 10548
0.04 -0.00 5.71 5.20 6.58 -4.21 0.56 -0.18 10554
0.06 -0.00 5.78 4.81 6.47 -4.20 0.96 -0.13 10560
0.06 -0.01 5.48 4.35 6.85 -4.22 1.37 -0.10 10567
0.05 -0.00 4.85 3.93 7.57 -4.25 1.72 -0.07 10573
0.06 0.00 3.69 3.54 8.44 -4.27 1.98 -0.03 10579
0.05 -0.00 3.54 3.11 9.37 -4.28 2.11 0.02 10586
0.05 -0.01 2.79 2.56 10.04 -4.28 2.17 0.12 10592
0.05 -0.00 2.07 2.02 10.82 -4.28 2.15 0.22 10599
0.05 -0.00 1.51 1.37 11.30 -4.28 2.07 0.36 10605
0.04 -0.00 1.09 0.74 11.64 -4.28 1.92 0.48 10611
0.05 -0.00 0.92 0.19 12.17 -4.28 1.73 0.64 10617
0.05 -0.00 1.05 -0.07 12.87 -4.28 1.52 0.79 10624
0.05 -0.00 1.31 -0.42 13.52 -4.28 1.34 0.91 10631
0.06 -0.01 1.79 -0.67 14.33 -4.28 1.22 1.00 10637
0.06 -0.01 2.27 -1.03 15.17 -4.28 1.20 1.05 10643
0.04 -0.00 2.74 -1.68 16.04 -4.28 1.29 1.05 10649
0.07 -0.01 3.11 -2.51 16.90 -4.28 1.49 1.00 10655
0.05 -0.01 3.22 -3.58 18.06 -4.28 1.77 0.91 10662
0.04 -0.00 3.15 -4.88 19.00 -4.28 2.09 0.78 10669
0.05 -0.01 2.92 -6.03 19.79 -4.28 2.38 0.65 10675
0.05 -0.00 2.34 -6.99 20.16 -4.28 2.61 0.53 10681
0.05 -0.00 1.67 -7.56 21.03 -4.28 2.77 0.45 10687
0.05 -0.00 1.07 -8.26 21.45 -4.28 2.84 0.41 10694
0.04 -0.00 0.38 -9.13 22.22 -4.28 2.76 0.40 10700
0.05 0.01 -0.08 -9.81 22.50 -4.26 2.56 0.44 10706
0.05 -0.01 -0.03 -10.24 22.54 -4.21 2.28 0.53 10713
0.05 -0.00 -0.04 -10.62 22.63 -4.13 1.97 0.65 10720
0.06 -0.01 0.37 -10.87 22.70 -4.02 1.79 0.80 10726
0.04 -0.00 0.90 -11.35 23.28 -3.87 1.72 0.97 10732
0.05 0.00 0.97 -11.99 24.44 -3.73 1.75 1.11 10738
0.04 -0.00 0.65 -12.79 24.42 -3.63 1.87 1.24 10745
0.05 -0.00 -0.05 -13.71 23.97 -3.60 2.06 1.34 10752
0.06 -0.01 -1.07 -14.54 24.03 -3.61 2.25 1.44 10758
0.05 -0.00 -2.28 -15.63 23.11 -3.62 2.36 1.53 10764
0.07 -0.00 -3.35 -16.91 22.26 -3.63 2.34 1.62 10771
0.07 -0.01 -4.24 -18.65 21.36 -3.58 2.17 1.69 10777
0.06 -0.00 -4.65 -20.44 20.13 -3.48 1.87 1.75 10783
0.05 -0.01 -4.38 -22.59 18.61 -3.34 1.47 1.77 10790
0.06 -0.01 -3.72 -24.99 16.72 -3.17 1.02 1.70 10797
0.05 -0.01 -2.97 -27.76 13.92 -2.97 0.66 1.58 10803
0.05 -0.00 -2.23 -30.68 11.42 -2.72 0.51 1.40 10809
0.07 -0.01 -1.98 -32.94 8.23 -2.44 0.60 1.22 10816
0.06 -0.01 -2.37 -34.60 6.06 -2.10 0.90 1.05 10822
0.07 -0.01 -4.06 -35.46 4.46 -1.71 1.29 0.96 10828
0.07 -0.01 -5.58 -35.98 3.35 -1.28 1.58 0.87 10834
0.07 -0.01 -7.22 -35.62 3.24 -0.83 1.63 0.82 10842
0.07 0.00 -8.80 -33.95 3.82 -0.39 1.42 0.77 10848
0.07 -0.01 -9.88 -31.54 4.43 0.02 0.97 0.75 10854
0.05 -0.00 -23.59 -41.98 68.62 2.80 -1.72 0.86 10860
0.07 -0.01 -8.65 -27.26 1.66 2.72 -1.25 1.01 10867
0.06 -0.01 -9.24 -24.70 -2.71 3.22 -2.47 0.92 10873
0.05 0.12 -4.95 -32.06 -2.98 3.15 -3.42 0.88 10880
0.05 0.25 -5.32 -4.08 -1.87 3.13 -4.18 0.82 10886
0.03 0.43 -0.29 -0.91 11.32 3.56 -3.24 0.92 10893
0.03 0.74 1.69 9.35 31.17 4.28 -1.82 1.11 10899
-0.00 1.09 -4.14 0.25 22.76 4.28 -1.43 1.17 10905
-0.02 1.41 -8.01 -6.53 28.12 4.28 -1.45 0.85 10911
-0.02 1.57 -8.95 -8.47 27.14 4.28 -1.29 0.42 10918
-0.01 1.69 -5.71 -5.35 27.30 4.28 -0.94 -0.06 10925
-0.02 1.69 -2.41 -3.33 24.86 3.94 -0.72 -0.51 10931
-0.01 1.70 2.06 -2.62 19.33 3.43 -0.79 -0.78 10938
0.01 1.68 6.85 -4.16 29.92 2.96 -1.94 -0.68 10944
-0.01 1.66 4.88 -3.50 15.24 1.15 -2.20 -0.12 10950
0.00 1.67 1.23 -2.75 13.96 0.59 -1.35 0.21 10956
0.01 1.62 -0.83 -1.52 11.87 0.23 -0.65 0.25 10963
0.01 1.62 -0.85 -0.73 10.77 0.06 -0.25 0.12 10970
0.01 1.59 0.47 -1.22 10.06 0.01 -0.15 0.04 10976
0.00 1.58 1.36 -1.28 9.94 -0.01 -0.13 0.07 10982
0.02 1.56 0.92 -1.02 10.04 -0.01 -0.13 0.09 10989
0.01 1.59 0.47 -0.69 10.01 -0.03 -0.13 0.08 10995
0.03 1.57 -1.25 0.23 9.85 -0.04 -0.11 0.06 11001
0.06 1.53 0.79 -0.81 10.09 -0.04 -0.11 0.06 11008
0.06 1.48 0.72 -0.79 9.88 -0.03 -0.09 0.06 11015
0.07 1.42 0.58 -0.71 9.90 -0.02 -0.09 0.05 11021
0.09 1.37 0.66 -0.77 10.22 -0.02 -0.07 0.04 11027
0.08 1.31 0.68 -0.79 10.18 -0.01 -0.07 0.06 11033
0.10 1.25 0.71 -0.73 10.08 -0.00 -0.06 0.06 11039
0.08 1.20 0.60 -0.74 10.04 0.00 -0.04 0.05 11046
0.11 1.11 1.86 -0.38 11.12 0.02 -0.04 0.05 11053
0.12 1.06 0.63 -0.76 10.13 0.02 -0.02 0.05 11059
0.15 0.92 0.67 -0.74 10.03 0.03 -0.02 0.05 11065
0.21 0.86 0.74 -0.73 10.01 0.04 -0.02 0.06 11072
0.22 0.75 0.73 -0.62 9.96 0.04 -0.01 0.05 11078
0.24 0.62 0.75 -0.74 10.10 0.05 -0.01 0.05 11084
0.26 0.55 0.78 -0.79 9.96 0.05 -0.01 0.05 11090
0.28 0.48 0.83 -0.76 10.04 0.06 -0.01 0.05 11098
0.28 0.45 0.78 -0.76 10.05 0.06 -0.01 0.04 11104
0.32 0.35 0.78 -0.80 9.95 0.06 -0.01 0.04 11110
0.35 0.30 0.75 -0.78 9.91 0.06 -0.01 0.00 11116
0.36 0.30 0.80 -0.82 9.98 0.07 -0.01 0.03 11122
0.38 0.18 0.77 -0.82 9.96 0.06 -0.02 0.02 11128
0.39 0.17 0.81 -0.78 9.95 0.06 -0.02 0.02 11136
0.44 0.14 0.83 -0.89 10.12 0.06 -0.02 0.02 11142
0.44 0.09 0.73 -0.85 10.04 0.06 -0.02 0.02 11148
0.43 0.08 0.76 -0.82 10.02 0.07 -0.02 0.02 11154
0.46 0.07 0.70 -0.81 10.05 0.07 -0.02 0.02 11161
0.49 0.03 0.67 -0.88 10.01 0.08 -0.02 0.02 11167
0.50 0.04 0.74 -0.93 10.00 0.10 -0.03 0.02 11173
0.53 0.03 0.70 -0.93 9.98 0.11 -0.04 0.02 11180
0.57 0.01 0.78 -0.94 10.02 0.12 -0.04 0.02 11186
0.59 0.00 0.84 -0.88 9.99 0.13 -0.05 0.01 11193
0.60 -0.02 0.81 -0.96 10.00 0.14 -0.06 0.01 11199
0.65 -0.02 0.76 -0.96 9.99 0.14 -0.06 -0.00 11205
0.70 -0.01 0.86 -0.98 10.01 0.15 -0.06 -0.01 11211
0.73 -0.02 0.86 -1.00 10.03 0.16 -0.06 -0.02 11218
0.76 -0.03 0.91 -1.08 9.97 0.17 -0.05 -0.03 11225
0.81 -0.04 0.80 -0.95 10.10 0.18 -0.04 -0.05 11231
0.83 -0.04 0.82 -1.03 9.89 0.20 -0.04 -0.05 11237
0.88 -0.03 0.74 -1.06 10.10 0.21 -0.04 -0.05 11243
0.91 -0.05 0.70 -1.09 10.00 0.23 -0.03 -0.05 11250
0.95 -0.05 0.71 -1.11 9.95 0.25 -0.03 -0.04 11256
1.00 -0.04 0.72 -1.12 10.09 0.28 -0.03 -0.03 11262
1.04 -0.06 0.73 -1.19 10.26 0.33 -0.04 -0.03 11269
1.06 -0.05 0.78 -1.17 10.31 0.39 -0.04 -0.03 11276
1.07 -0.05 0.77 -1.23 10.39 0.45 -0.05 -0.03 11282
1.11 -0.05 0.73 -1.29 10.45 0.52 -0.05 -0.04 11288
1.18 -0.05 0.80 -1.34 10.52 0.60 -0.06 -0.03 11294
1.22 -0.05 0.74 -1.41 10.68 0.68 -0.07 -0.04 11301
1.28 -0.05 0.88 -1.47 10.82 0.76 -0.08 -0.04 11308
1.32 -0.06 1.01 -1.48 10.86 0.84 -0.08 -0.05 11314
1.36 -0.05 0.97 -1.63 10.98 0.93 -0.10 -0.07 11320
1.45 -0.05 1.04 -1.70 11.15 1.02 -0.12 -0.08 11327
1.50 -0.07 1.00 -1.78 11.24 1.12 -0.14 -0.10 11333
1.58 -0.05 1.01 -1.81 11.69 1.23 -0.18 -0.12 11339
1.64 -0.06 1.08 -2.00 11.99 1.35 -0.21 -0.13 11346
1.67 -0.05 0.98 -1.95 12.09 1.48 -0.24 -0.15 11353
1.71 -0.05 1.04 -2.05 12.13 1.64 -0.30 -0.17 11359
1.71 -0.05 0.81 -2.18 12.36 1.80 -0.34 -0.18 11365
1.76 -0.05 0.46 -2.07 12.60 1.96 -0.37 -0.17 11372
1.81 -0.06 0.40 -2.18 12.99 2.13 -0.39 -0.16 11378
1.84 -0.04 0.55 -2.43 12.84 2.31 -0.39 -0.14 11384
1.81 -0.04 0.61 -2.61 13.46 2.48 -0.38 -0.13 11392
1.84 -0.03 0.48 -2.43 13.16 2.71 -0.37 -0.13 11398
1.84 -0.03 0.52 -2.70 13.87 2.99 -0.33 -0.12 11404
1.77 -0.04 0.54 -2.89 13.68 3.28 -0.31 -0.13 11410
1.76 -0.04 -1.25 -4.64 15.09 3.59 -0.22 -0.17 11417
1.70 -0.05 0.41 -3.18 13.65 3.91 -0.20 -0.17 11423
1.62 -0.05 0.89 -3.41 14.26 4.18 -0.23 -0.21 11429
1.49 -0.07 0.88 -3.47 16.51 4.28 -0.17 -0.25 11436
1.35 -0.05 0.92 -4.25 17.79 4.28 -0.15 -0.29 11443
1.22 -0.05 1.34 -5.25 20.06 4.28 -0.21 -0.31 11449
1.09 -0.06 2.38 -6.56 22.34 4.28 -0.38 -0.40 11455
0.96 -0.05 3.46 -9.03 25.34 4.28 -0.66 -0.56 11462
0.91 -0.06 3.15 -11.74 29.45 4.28 -0.86 -0.73 11468
0.81 -0.04 3.19 -15.91 34.18 4.28 -0.86 -0.76 11474
0.66 -0.06 4.12 -15.48 33.88 4.28 -0.60 -0.73 11482
0.54 -0.03 2.64 -14.42 32.43 4.28 -0.31 -0.75 11488
0.38 -0.03 2.37 -12.31 32.12 4.28 -0.06 -0.75 11494
0.35 -0.01 0.67 -8.52 32.38 4.28 0.00 -0.79 11501
0.22 -0.01 0.01 -5.11 34.11 4.28 -0.22 -0.86 11507
0.22 -0.02 2.38 -1.99 34.86 4.28 -0.68 -0.93 11513
0.16 -0.02 5.06 1.72 35.23 4.28 -1.21 -0.99 11520
0.13 -0.01 7.96 5.88 36.03 4.28 -1.53 -0.99 11527
0.10 -0.01 9.99 13.96 29.56 4.28 -1.39 -0.94 11533
0.07 -0.01 13.99 19.74 24.95 4.28 -0.93 -1.07 11539
0.09 -0.01 10.11 21.98 11.54 4.28 0.03 -1.55 11545
0.08 0.00 10.80 26.53 -3.56 3.60 0.15 -2.23 11552
0.05 -0.01 8.63 23.36 26.35 1.87 0.69 -2.45 11558
0.06 -0.01 9.26 18.03 35.75 -0.37 1.44 -2.28 11565
0.05 -0.00 5.27 16.52 24.99 -2.16 1.53 -2.02 11572
0.06 -0.01 2.29 15.89 17.50 -3.05 1.16 -1.72 11578
0.05 -0.01 0.79 13.80 13.04 -3.70 0.69 -1.36 11584
0.05 -0.00 1.90 11.35 11.61 -4.18 0.25 -1.06 11590
0.06 -0.01 3.13 9.39 9.68 -4.28 -0.05 -0.90 11596
0.05 -0.00 3.91 7.92 8.57 -4.28 -0.16 -0.79 11603
0.05 -0.01 4.21 6.34 7.91 -4.28 -0.12 -0.72 11610
0.05 -0.00 4.40 5.15 7.67 -4.28 0.10 -0.63 11616
0.05 -0.01 4.63 4.39 7.36 -4.28 0.42 -0.55 11622
0.04 -0.00 4.82 3.83 7.51 -4.28 0.79 -0.48 11628
0.07 -0.01 4.57 3.37 8.12 -4.28 1.12 -0.45 11634
0.06 -0.01 4.05 3.04 8.71 -4.28 1.39 -0.41 11641
0.05 -0.00 3.44 2.70 9.33 -4.28 1.57 -0.37 11648
0.05 -0.00 2.61 2.40 9.82 -4.28 1.69 -0.30 11654
0.05 -0.00 2.10 1.76 10.22 -4.28 1.74 -0.20 11660
0.05 -0.00 1.50 0.66 10.81 -4.28 1.77 -0.09 11666
0.06 -0.01 1.11 0.75 11.47 -4.28 1.72 0.03 11673
0.05 -0.01 0.68 0.18 12.03 -4.28 1.62 0.16 11679
0.04 -0.00 0.57 -0.20 12.48 -4.28 1.50 0.23 11685
0.06 -0.01 0.63 -0.50 13.15 -4.28 1.39 0.30 11692
0.05 -0.01 0.87 -0.69 13.90 -4.28 1.34 0.34 11698
0.06 -0.01 1.16 -1.00 14.63 -4.28 1.37 0.34 11705
0.07 -0.01 1.32 -1.47 15.24 -4.28 1.49 0.29 11711
0.06 -0.01 1.39 -2.00 16.13 -4.28 1.67 0.22 11717
0.06 -0.01 1.18 -2.75 17.10 -4.28 1.91 0.11 11723
0.06 -0.01 0.61 -3.78 18.01 -4.28 2.16 -0.00 11729
0.06 -0.01 -0.09 -4.76 18.78 -4.28 2.40 -0.13 11737
0.06 0.00 -0.86 -5.44 19.34 -4.28 2.56 -0.23 11743
0.05 -0.01 -1.71 -5.76 19.63 -4.28 2.65 -0.30 11749
0.05 -0.00 -2.43 -5.97 19.82 -4.28 2.70 -0.32 11755
0.07 -0.01 -2.80 -6.27 19.95 -4.28 2.68 -0.29 11762
0.06 -0.01 -3.09 -6.58 20.25 -4.24 2.60 -0.22 11768
0.07 -0.01 -3.15 -7.04 20.56 -4.15 2.49 -0.13 11774
0.07 -0.01 -3.18 -7.40 20.72 -3.98 2.36 -0.00 11781
0.06 -0.01 -2.91 -7.48 21.77 -3.74 2.22 0.14 11787
0.05 -0.00 -2.72 -7.02 23.25 -3.55 2.09 0.30 11794
0.05 -0.00 -2.26 -6.88 24.75 -3.46 1.98 0.47 11800
0.06 -0.01 -1.93 -7.19 25.67 -3.48 1.87 0.65 11806
0.06 -0.01 -1.94 -8.21 25.55 -3.58 1.76 0.84 11812
0.06 -0.01 -2.07 -9.66 24.95 -3.69 1.60 1.04 11820
0.06 -0.01 -2.08 -11.43 23.81 -3.75 1.41 1.19 11826
0.06 -0.01 -2.23 -13.32 22.36 -3.72 1.18 1.35 11832
0.04 -0.00 -2.17 -15.31 21.19 -3.60 0.95 1.48 11838
0.06 -0.00 -1.98 -17.17 19.88 -3.41 0.72 1.62 11845
0.05 -0.00 -1.85 -19.02 18.88 -3.18 0.54 1.68 11851
0.05 0.00 -1.70 -20.47 16.88 -2.95 0.50 1.74 11857
0.05 -0.01 -1.90 -22.24 17.37 -2.76 0.70 1.83 11865
0.05 -0.00 -2.27 -24.55 17.33 -2.66 1.03 1.81 11871
0.06 -0.01 -3.64 -26.91 15.82 -2.63 1.28 1.77 11877
0.05 -0.01 -5.29 -29.03 12.87 -2.62 1.41 1.74 11883
0.06 -0.01 -6.81 -31.74 9.24 -2.55 1.43 1.73 11890
0.05 -0.00 -8.24 -33.37 5.81 -2.33 1.37 1.71 11896
0.05 0.00 -9.05 -35.70 3.35 -1.94 1.19 1.67 11902
0.05 -0.00 -9.34 -36.52 1.65 -1.44 0.88 1.57 11909
0.04 0.00 -9.17 -35.70 1.54 -0.90 0.54 1.36 11916
0.05 -0.01 -8.08 -33.80 2.74 -0.40 0.25 1.13 11922
0.05 -0.00 -4.73 -61.45 -14.97 0.25 -0.17 0.91 11928
0.04 0.00 -1.10 -33.00 -9.56 2.55 0.30 0.59 11934
0.05 -0.00 -6.28 -27.34 -2.31 2.86 0.00 0.39 11941
0.04 0.06 -5.92 -33.75 -2.59 3.20 -0.76 0.16 11948
0.05 0.24 -9.76 -28.95 -2.84 3.18 -2.19 -0.11 11954
0.03 0.36 -1.22 6.29 -1.29 3.28 -2.72 -0.28 11960
0.02 0.59 3.07 -2.41 24.85 4.20 -2.40 -0.40 11967
-0.01 0.98 8.02 3.36 29.64 4.28 -1.62 -0.15 11973
-0.01 1.35 2.86 -7.04 27.30 4.28 -1.39 0.10 11979
-0.02 1.58 -1.61 -8.08 30.64 4.28 -1.41 0.13 11985
-0.03 1.72 -0.51 -6.85 27.29 4.28 -1.22 0.07 11993
-0.02 1.83 -1.50 -4.76 27.43 4.09 -0.66 0.02 11999
-0.02 1.83 -2.53 -2.29 21.59 3.35 -0.66 -0.24 12005
-0.02 1.77 0.93 -2.28 18.72 2.92 -0.81 -0.51 12012
-0.03 1.69 3.92 -2.45 22.35 2.39 -1.46 -0.46 12018
-0.02 1.69 3.68 -1.89 12.65 1.10 -1.67 -0.13 12024
-0.02 1.62 1.16 -1.65 12.51 0.60 -1.20 0.16 12030
-0.04 1.68 -0.18 -1.17 11.20 0.28 -0.70 0.15 12038
-0.02 1.61 -0.13 -1.08 10.56 0.11 -0.36 0.09 12044
0.00 1.60 0.34 -1.31 10.28 0.03 -0.20 0.05 12050
-0.00 1.59 0.85 -1.30 10.02 -0.01 -0.14 0.05 12056
-0.01 1.62 0.92 -1.16 10.14 -0.02 -0.13 0.06 12063
-0.00 1.55 0.53 -0.91 10.09 -0.02 -0.12 0.07 12069
0.02 1.58 0.53 -0.86 10.02 -0.02 -0.10 0.06 12076
0.01 1.57 0.64 -0.80 9.91 -0.03 -0.09 0.06 12082
0.03 1.54 0.51 -0.74 10.01 -0.02 -0.08 0.06 12089
0.04 1.54 0.60 -0.74 10.00 -0.02 -0.08 0.06 12095
0.02 1.48 0.63 -0.74 10.24 -0.01 -0.07 0.05 12101
0.03 1.44 0.65 -0.77 10.04 -0.00 -0.07 0.05 12107
0.07 1.33 0.59 -0.74 9.96 0.00 -0.06 0.05 12114
0.06 1.26 0.43 -0.77 10.28 0.01 -0.05 0.05 12121
0.11 1.23 0.64 -0.73 10.07 0.02 -0.04 0.05 12127
0.09 1.10 0.67 -0.76 10.05 0.02 -0.03 0.05 12133
0.10 1.04 0.72 -0.80 10.02 0.03 -0.03 0.05 12140
0.12 1.02 0.71 -0.75 10.00 0.04 -0.02 0.06 12146
0.12 0.98 0.73 -0.79 10.01 0.04 -0.02 0.05 12152
0.14 0.85 0.72 -0.79 9.94 0.05 -0.01 0.05 12158
0.17 0.72 0.72 -0.74 9.93 0.05 -0.02 0.05 12165
0.16 0.68 0.72 -0.76 9.99 0.05 -0.02 0.05 12172
0.21 0.54 0.75 -0.49 10.13 0.05 -0.02 0.05 12178
0.23 0.49 0.77 -0.82 9.84 0.05 -0.02 0.04 12184
0.22 0.41 0.72 -0.85 9.97 0.05 -0.02 0.04 12190
0.25 0.36 0.73 -0.56 10.24 0.05 -0.01 0.04 12196
0.27 0.29 0.72 -0.80 9.98 0.05 -0.01 0.04 12204
0.24 0.27 0.71 -0.85 9.98 0.05 -0.01 0.04 12210
0.26 0.21 0.67 -0.88 10.00 0.06 -0.01 0.03 12216
0.30 0.13 0.69 -0.84 10.04 0.07 -0.01 0.03 12222
0.32 0.15 0.71 -0.90 9.94 0.07 -0.00 0.03 12228
0.34 0.10 0.73 -0.67 10.00 0.07 0.01 0.03 12235
0.34 0.08 0.77 -0.94 10.13 0.08 0.01 0.03 12241
0.36 0.07 0.70 -0.91 10.01 0.08 0.02 0.04 12248
0.40 0.04 0.74 -0.94 9.95 0.09 0.02 0.04 12254
0.43 0.04 0.74 -0.97 9.99 0.09 0.02 0.04 12260
0.48 0.02 0.78 -0.87 10.00 0.11 0.01 0.04 12267
0.49 -0.02 0.76 -0.92 10.04 0.12 0.00 0.03 12273
0.50 -0.02 0.80 -0.93 10.08 0.13 -0.00 0.02 12279
0.55 -0.02 0.84 -0.96 10.08 0.15 -0.02 0.02 12285
0.55 -0.05 0.82 -1.00 10.03 0.16 -0.03 0.00 12293
0.59 -0.02 0.84 -1.00 9.84 0.17 -0.04 -0.01 12299
0.66 -0.03 0.82 -1.02 9.94 0.18 -0.05 -0.03 12305
0.69 -0.04 0.82 -1.08 10.01 0.18 -0.05 -0.04 12311
0.77 -0.03 0.82 -1.05 10.04 0.19 -0.06 -0.05 12317
0.77 -0.05 0.80 -1.15 9.92 0.19 -0.06 -0.05 12324
0.82 -0.04 0.73 -1.11 9.84 0.19 -0.07 -0.05 12331
0.84 -0.04 0.75 -1.15 9.97 0.19 -0.06 -0.05 12337
0.88 -0.05 0.82 -1.13 10.09 0.22 -0.06 -0.05 12343
0.92 -0.05 0.74 -1.20 10.10 0.26 -0.05 -0.05 12350
1.02 -0.05 0.66 -1.20 10.29 0.33 -0.04 -0.05 12356
1.06 -0.06 0.66 -1.27 10.31 0.41 -0.04 -0.05 12362
1.13 -0.05 0.67 -1.25 10.51 0.50 -0.03 -0.04 12368
1.18 -0.06 0.71 -1.36 10.66 0.61 -0.01 -0.04 12376
1.19 -0.05 0.74 -1.43 10.93 0.73 -0.01 -0.05 12382
1.27 -0.06 0.81 -1.54 10.97 0.85 -0.00 -0.05 12388
1.31 -0.06 0.99 -1.57 11.14 0.97 -0.01 -0.06 12394
1.39 -0.06 1.15 -1.71 11.45 1.08 -0.03 -0.08 12401
1.46 -0.06 1.17 -1.69 11.38 1.21 -0.05 -0.11 12407
1.52 -0.05 1.17 -1.76 11.77 1.34 -0.09 -0.13 12413
1.60 -0.06 0.93 -1.83 11.86 1.47 -0.13 -0.14 12420
1.59 -0.04 1.09 -2.15 12.19 1.61 -0.18 -0.16 12427
1.68 -0.05 0.96 -2.10 12.06 1.77 -0.23 -0.16 12433
1.67 -0.05 0.79 -2.16 12.66 1.93 -0.28 -0.17 12439
1.69 -0.05 0.55 -2.06 13.22 2.13 -0.33 -0.16 12446
1.72 -0.07 0.40 -2.25 13.35 2.35 -0.32 -0.14 12452
1.76 -0.04 0.03 -2.88 13.31 2.54 -0.27 -0.17 12459
1.74 -0.05 0.69 -2.40 13.59 2.80 -0.24 -0.15 12465
1.75 -0.05 0.70 -2.60 14.49 3.09 -0.21 -0.15 12472
1.71 -0.06 1.05 -2.93 13.86 3.42 -0.16 -0.16 12478
1.67 -0.07 0.85 -2.88 14.26 3.77 -0.13 -0.18 12484
1.64 -0.06 0.89 -3.05 13.98 4.09 -0.08 -0.21 12491
1.58 -0.06 0.59 -2.98 15.31 4.27 -0.06 -0.23 12497
1.44 -0.04 0.36 -3.15 16.69 4.28 -0.00 -0.22 12504
1.25 -0.06 1.59 -3.60 17.97 4.28 0.01 -0.22 12510
1.09 -0.04 2.59 -4.95 20.03 4.28 -0.02 -0.29 12517
1.02 -0.04 2.94 -7.03 23.72 4.28 -0.13 -0.43 12523
0.84 -0.05 2.97 -10.77 29.42 4.28 -0.30 -0.55 12529
0.77 -0.04 4.35 -13.56 35.08 4.28 -0.41 -0.62 12536
0.63 -0.04 4.03 -15.80 37.68 4.28 -0.19 -0.58 12542
0.54 -0.03 4.59 -15.98 36.10 4.28 0.06 -0.56 12549
0.40 -0.04 1.91 -13.65 33.03 4.28 0.28 -0.58 12555
0.31 -0.02 2.16 -10.88 32.01 4.28 0.40 -0.58 12562
0.26 -0.02 -0.51 -7.66 35.21 4.28 0.35 -0.72 12568
0.19 -0.02 -0.43 -4.12 36.46 4.28 -0.17 -0.84 12574
0.19 -0.02 2.10 -1.44 37.03 4.28 -1.03 -0.97 12580
0.14 -0.01 6.17 2.38 38.61 4.28 -1.62 -0.99 12588
0.11 -0.01 9.70 8.28 35.49 4.28 -1.76 -0.95 12594
0.07 -0.01 14.60 17.88 32.03 4.28 -1.52 -0.94 12600
0.05 -0.01 15.38 22.97 18.59 4.28 -0.81 -1.30 12607
0.05 -0.01 12.47 24.65 -6.16 3.82 0.33 -2.14 12613
0.03 -0.00 10.56 22.64 7.73 2.64 0.53 -2.77 12619
0.05 -0.01 11.67 16.82 34.44 0.81 1.80 -2.75 12625
0.05 -0.00 9.73 17.12 34.19 -1.44 2.73 -2.52 12633
0.05 0.00 4.20 17.78 20.74 -2.85 2.55 -2.30 12639
0.04 -0.00 0.19 15.73 16.29 -3.57 1.70 -2.01 12645
0.05 -0.00 0.41 12.55 13.94 -4.16 0.87 -1.74 12651
0.07 -0.01 1.21 10.12 12.17 -4.28 0.23 -1.44 12658
0.04 -0.00 2.53 8.44 10.69 -4.28 -0.22 -1.23 12664
0.04 -0.00 3.59 6.69 9.71 -4.28 -0.47 -1.08 12670
0.04 -0.00 4.42 5.30 8.63 -4.28 -0.53 -0.94 12677
0.05 -0.00 4.99 4.48 7.88 -4.28 -0.40 -0.82 12683
0.05 0.00 5.71 3.81 7.44 -4.28 -0.16 -0.73 12690
0.05 -0.01 6.09 3.19 7.32 -4.28 0.13 -0.68 12696
0.05 -0.01 6.00 2.81 7.33 -4.28 0.42 -0.66 12702
0.06 -0.01 5.74 2.64 7.66 -4.28 0.71 -0.64 12708
0.05 -0.01 5.47 2.39 8.12 -4.28 0.95 -0.60 12715
0.05 -0.00 4.94 2.08 8.78 -4.28 1.13 -0.53 12721
0.04 -0.00 4.41 1.75 9.63 -4.28 1.33 -0.41 12728
0.06 -0.01 3.89 1.37 10.16 -4.28 1.51 -0.32 12734
0.04 -0.00 3.35 0.92 11.84 -4.28 1.60 -0.18 12740
0.05 -0.00 3.16 0.42 12.15 -4.28 1.69 -0.03 12746
0.06 -0.01 2.56 0.45 12.78 -4.28 1.72 0.10 12752
0.05 -0.00 2.75 -0.14 13.02 -4.28 1.83 0.24 12760
0.04 -0.00 2.57 -0.66 13.41 -4.28 1.81 0.33 12766
0.07 -0.01 2.38 -1.30 13.57 -4.28 1.79 0.40 12772
0.06 -0.01 2.37 -2.03 14.37 -4.28 1.77 0.44 12778
0.05 -0.00 2.32 -2.69 15.01 -4.28 1.78 0.45 12785
0.05 -0.01 2.22 -3.65 15.99 -4.28 1.84 0.42 12791
0.04 -0.00 1.98 -4.44 17.01 -4.28 1.94 0.35 12797
0.06 -0.01 1.96 -5.30 17.76 -4.28 2.06 0.25 12804
0.05 -0.00 1.69 -5.80 17.89 -4.28 2.17 0.13 12810
0.04 -0.00 1.23 -5.87 17.81 -4.27 2.29 0.05 12817
0.05 -0.01 1.24 -5.97 18.10 -4.20 2.34 0.01 12823
0.04 -0.00 1.08 -6.18 19.38 -4.09 2.39 -0.00 12829
0.04 -0.00 1.31 -6.62 20.46 -3.91 2.47 0.02 12835
0.05 -0.00 1.58 -6.93 23.16 -3.73 2.56 0.08 12841
0.03 -0.00 1.48 -7.20 24.91 -3.63 2.68 0.20 12849
0.04 -0.00 1.25 -7.61 26.60 -3.65 2.78 0.36 12855
0.04 -0.00 1.06 -8.18 27.38 -3.75 2.77 0.57 12861
0.05 -0.00 0.63 -9.42 27.78 -3.90 2.67 0.82 12867
0.04 0.00 0.36 -11.11 27.60 -4.03 2.47 1.11 12873
0.04 -0.00 0.20 -13.15 26.85 -4.10 2.18 1.43 12880
0.03 -0.00 0.05 -15.07 25.55 -4.11 1.87 1.72 12887
0.04 -0.00 -0.18 -16.43 23.87 -4.08 1.63 1.98 12893
0.04 -0.00 -0.61 -17.55 22.36 -4.01 1.57 2.19 12900
0.04 -0.00 -1.30 -19.03 21.39 -3.90 1.66 2.37 12906
0.05 -0.00 -2.06 -20.85 20.91 -3.78 1.71 2.50 12912
0.05 -0.01 -2.68 -23.09 20.36 -3.65 1.61 2.56 12918
0.06 -0.01 -3.06 -25.57 19.36 -3.49 1.37 2.57 12925
0.04 -0.00 -3.01 -27.96 17.18 -3.29 1.08 2.54 12932
0.07 -0.01 -2.66 -30.13 13.86 -3.03 0.85 2.46 12938
0.06 -0.01 -3.32 -32.44 11.20 -2.70 0.79 2.35 12944
0.06 -0.00 -3.16 -35.44 7.54 -2.29 0.91 2.19 12951
0.05 -0.00 -4.41 -37.72 5.31 -1.84 1.17 2.00 12957
0.04 -0.00 -5.76 -39.47 3.53 -1.38 1.47 1.78 12963
0.05 -0.00 -7.38 -40.10 2.52 -0.89 1.67 1.55 12969
0.05 -0.01 -9.13 -39.22 2.28 -0.40 1.67 1.31 12977
0.05 -0.01 -11.33 -45.54 -3.10 0.16 1.40 1.09 12983
0.05 -0.01 -18.82 -39.17 -2.93 3.15 0.07 1.17 12989
0.04 -0.00 -16.51 -30.98 4.94 3.18 -0.35 1.13 12995
0.06 0.03 -12.62 -31.86 -3.77 3.64 -1.65 1.00 13002
0.06 0.17 -8.95 -33.43 -1.98 3.49 -3.25 0.81 13008
0.04 0.33 -2.18 5.64 -0.18 3.46 -3.88 0.64 13015
0.02 0.58 -0.26 -1.52 28.67 4.25 -2.52 0.75 13021
-0.01 0.99 1.15 5.77 29.99 4.28 -1.48 0.93 13028
-0.02 1.38 -9.64 -5.83 31.71 4.28 -1.45 0.74 13034
-0.01 1.63 -11.25 -7.92 29.00 4.28 -1.54 0.18 13040
-0.00 1.78 -3.17 -6.66 27.57 4.28 -1.20 -0.21 13047
-0.02 1.86 -1.89 -3.56 28.15 4.13 -0.52 -0.38 13053
-0.02 1.88 -0.20 -2.09 21.22 3.32 -0.40 -0.62 13060
-0.00 1.79 3.97 -2.21 16.74 2.93 -0.54 -0.72 13066
0.00 1.73 6.72 -2.97 21.72 2.81 -1.18 -0.52 13073
-0.01 1.73 4.39 -1.83 15.73 1.67 -2.03 -0.15 13079
-0.01 1.71 1.31 -2.37 14.22 0.91 -1.53 0.18 13085
-0.00 1.65 -0.61 -1.48 12.12 0.38 -0.82 0.21 13092
-0.01 1.60 -0.63 -1.05 11.06 0.11 -0.32 0.12 13099
0.01 1.63 0.20 -1.05 10.35 0.00 -0.15 0.05 13105
0.00 1.61 1.10 -1.11 10.15 -0.02 -0.12 0.05 13111
-0.01 1.58 1.08 -0.80 10.12 -0.02 -0.10 0.08 13118
0.02 1.58 0.67 -0.61 10.07 -0.03 -0.11 0.07 13124
0.00 1.58 0.53 -0.61 10.03 -0.04 -0.10 0.06 13130
0.02 1.49 0.70 -0.63 10.07 -0.04 -0.09 0.06 13136
0.03 1.48 0.79 -0.58 10.28 -0.03 -0.08 0.05 13144
0.06 1.42 0.68 -0.57 10.06 -0.01 -0.07 0.06 13150
0.04 1.35 0.62 -0.59 10.08 -0.00 -0.06 0.05 13156
0.07 1.22 0.66 -0.57 10.12 0.01 -0.03 0.05 13162
0.10 1.16 0.69 -0.59 10.17 0.02 -0.02 0.05 13169
0.12 1.07 0.68 -0.59 10.18 0.04 -0.02 0.05 13175
0.12 0.98 0.81 -0.64 10.23 0.04 -0.01 0.05 13181
0.18 0.91 0.72 -0.66 9.97 0.04 -0.01 0.06 13188
0.21 0.76 0.76 -0.63 10.04 0.05 -0.00 0.06 13194
0.20 0.71 0.77 -0.41 10.09 0.06 -0.00 0.06 13201
0.22 0.54 0.76 -0.67 10.01 0.07 -0.03 0.05 13207
0.24 0.49 0.80 -0.63 10.03 0.07 -0.00 0.05 13213
0.28 0.44 0.95 -0.53 10.08 0.08 -0.00 0.04 13219
0.34 0.35 0.83 -0.65 9.95 0.09 -0.01 0.04 13227
0.30 0.29 0.76 -0.94 10.00 0.09 -0.01 0.03 13233
0.33 0.21 0.86 -0.71 9.94 0.09 -0.02 0.03 13239
0.35 0.14 0.84 -0.68 10.07 0.09 -0.02 0.02 13245
0.39 0.15 0.80 -0.71 9.97 0.09 -0.02 0.02 13251
0.46 0.09 0.84 -0.68 10.04 0.09 -0.03 0.01 13258
0.49 0.05 0.80 -0.75 10.08 0.10 -0.02 0.01 13264
0.50 0.05 0.63 -0.63 9.98 0.11 -0.03 0.01 13271
0.52 0.04 0.76 -0.72 10.31 0.12 -0.03 0.01 13277
0.55 0.00 0.69 -0.76 10.01 0.14 -0.04 0.01 13284
0.59 0.00 0.74 -0.75 10.11 0.15 -0.05 0.00 13290
0.60 -0.00 0.80 -0.83 10.15 0.17 -0.07 -0.00 13296
0.66 -0.02 0.79 -0.81 10.09 0.19 -0.09 -0.01 13302
0.71 -0.02 0.83 -0.92 10.04 0.20 -0.10 -0.02 13308
0.75 -0.05 0.86 -0.88 10.00 0.22 -0.10 -0.03 13316
0.79 -0.03 0.87 -0.93 10.03 0.23 -0.11 -0.05 13322
0.84 -0.04 0.88 -0.95 9.99 0.24 -0.10 -0.06 13328
0.88 -0.05 0.86 -1.03 10.02 0.26 -0.10 -0.07 13334
0.92 -0.04 0.81 -0.98 10.09 0.28 -0.09 -0.09 13341
0.95 -0.07 0.85 -1.04 10.10 0.31 -0.09 -0.10 13347
1.01 -0.05 0.75 -1.05 10.07 0.34 -0.08 -0.10 13353
1.04 -0.06 0.76 -1.08 10.02 0.37 -0.08 -0.10 13360
1.08 -0.05 0.72 -1.03 10.06 0.37 -0.09 -0.10 13367
1.14 -0.06 0.72 -1.11 10.11 0.37 -0.09 -0.09 13373
1.20 -0.06 0.75 -1.16 10.01 0.38 -0.11 -0.08 13379
1.23 -0.05 0.75 -1.25 10.08 0.39 -0.11 -0.07 13385
1.28 -0.07 0.75 -1.28 10.14 0.40 -0.12 -0.07 13392
1.29 -0.06 0.72 -1.27 10.22 0.44 -0.13 -0.07 13399
1.36 -0.06 0.75 -1.28 10.39 0.49 -0.13 -0.07 13405
1.42 -0.07 0.75 -1.38 10.48 0.54 -0.14 -0.07 13412
1.46 -0.05 0.68 -1.40 10.77 0.61 -0.14 -0.07 13418
1.51 -0.07 0.78 -1.47 10.76 0.68 -0.16 -0.08 13424
1.55 -0.06 0.74 -1.58 10.85 0.76 -0.13 -0.09 13430
1.65 -0.06 0.76 -1.63 10.97 0.84 -0.20 -0.09 13437
1.73 -0.06 0.84 -1.71 11.04 0.92 -0.17 -0.10 13444
1.78 -0.06 0.80 -1.69 11.35 1.02 -0.19 -0.11 13450
1.80 -0.06 0.96 -1.94 11.52 1.13 -0.20 -0.11 13456
1.85 -0.04 1.06 -2.00 11.92 1.26 -0.23 -0.13 13463
1.91 -0.06 1.06 -2.04 11.87 1.39 -0.26 -0.15 13469
1.93 -0.04 0.86 -1.99 11.92 1.53 -0.29 -0.17 13475
1.96 -0.05 0.03 -2.16 12.12 1.68 -0.35 -0.18 13483
2.02 -0.07 0.06 -2.30 12.46 1.85 -0.41 -0.17 13489
2.03 -0.06 0.36 -2.28 13.04 2.05 -0.44 -0.16 13495
2.06 -0.08 0.33 -2.35 13.14 2.23 -0.46 -0.15 13501
2.06 -0.06 0.44 -2.52 13.57 2.43 -0.46 -0.15 13508
2.08 -0.06 0.03 -2.63 14.45 2.66 -0.43 -0.16 13514
2.06 -0.07 0.19 -2.62 14.14 2.95 -0.42 -0.18 13520
2.05 -0.06 0.16 -2.92 14.47 3.25 -0.42 -0.20 13527
2.01 -0.08 0.72 -2.77 14.47 3.58 -0.40 -0.23 13534
1.93 -0.05 0.90 -2.83 15.03 3.93 -0.39 -0.27 13540
1.90 -0.06 0.54 -3.12 15.57 4.20 -0.42 -0.30 13546
1.77 -0.07 0.44 -3.38 16.67 4.28 -0.42 -0.32 13553
1.59 -0.07 1.18 -4.01 18.12 4.28 -0.45 -0.33 13559
1.38 -0.06 3.23 -5.13 19.90 4.28 -0.55 -0.45 13565
1.22 -0.05 3.13 -6.39 21.98 4.28 -0.64 -0.62 13572
1.07 -0.06 2.77 -8.37 26.26 4.28 -0.83 -0.78 13579
1.01 -0.05 1.62 -13.44 32.66 4.28 -0.95 -0.83 13585
0.83 -0.06 2.24 -16.96 37.94 4.28 -0.84 -0.78 13591
0.72 -0.03 4.44 -17.28 36.67 4.28 -0.51 -0.73 13598
0.55 -0.05 4.04 -15.71 32.59 4.28 -0.19 -0.74 13604
0.46 -0.01 2.96 -11.52 31.99 4.28 0.23 -0.77 13611
0.32 -0.01 1.08 -7.08 33.72 4.28 0.42 -0.84 13618
0.24 -0.00 -0.37 -3.92 35.97 4.28 0.09 -0.98 13624
0.22 -0.01 1.56 -0.67 35.80 4.28 -0.77 -1.13 13630
0.13 -0.01 5.23 4.04 35.62 4.28 -1.56 -1.20 13636
0.13 -0.01 8.53 6.99 35.69 4.28 -1.90 -1.21 13643
0.08 -0.01 10.85 12.41 29.77 4.28 -1.78 -1.21 13649
0.09 -0.01 14.51 19.31 24.97 4.28 -1.38 -1.48 13656
0.07 -0.01 12.22 19.41 5.67 4.28 -0.60 -2.08 13662
0.07 0.00 12.00 24.27 0.55 3.65 -0.51 -2.63 13669
0.06 -0.01 12.03 21.39 28.69 1.48 0.72 -2.68 13675
0.04 -0.00 11.81 18.51 36.27 -0.96 1.95 -2.37 13681
0.05 -0.01 6.54 17.13 23.67 -2.64 2.21 -2.01 13688
0.05 -0.01 3.07 15.65 15.10 -3.58 1.77 -1.64 13694
0.05 -0.00 1.60 13.33 14.80 -4.20 1.17 -1.24 13701
0.05 -0.00 1.85 10.59 13.31 -4.28 0.62 -0.88 13707
0.04 -0.00 2.49 8.27 10.89 -4.28 0.22 -0.63 13714
0.07 -0.01 3.34 6.41 8.80 -4.28 -0.03 -0.45 13720
0.05 -0.01 3.81 5.03 7.33 -4.28 -0.12 -0.30 13726
0.04 -0.00 4.17 4.05 6.44 -4.28 -0.07 -0.20 13732
0.05 -0.01 4.67 3.27 5.97 -4.28 0.09 -0.13 13739
0.05 -0.00 5.08 2.62 5.95 -4.28 0.31 -0.10 13745
0.04 -0.00 5.47 2.23 6.46 -4.28 0.56 -0.12 13752
0.05 -0.01 5.51 2.04 7.36 -4.28 0.87 -0.15 13758
0.05 -0.00 5.35 2.00 8.04 -4.28 1.18 -0.20 13764
0.05 -0.00 4.85 1.94 8.59 -4.28 1.46 -0.23 13770
0.06 -0.00 4.24 1.88 9.46 -4.28 1.71 -0.21 13776
0.06 -0.01 3.58 1.76 10.33 -4.28 1.89 -0.15 13783
0.04 -0.00 2.86 1.73 10.82 -4.28 1.97 -0.06 13790
0.06 -0.00 2.65 0.94 11.60 -4.28 2.01 0.06 13796
0.06 -0.01 2.12 0.24 12.64 -4.28 1.97 0.19 13802
0.04 -0.00 1.85 -0.09 13.26 -4.28 1.92 0.32 13808
0.06 -0.01 1.96 -0.70 13.75 -4.28 1.83 0.44 13815
0.05 -0.00 1.91 -1.08 14.61 -4.28 1.75 0.52 13821
0.04 -0.00 2.16 -1.55 15.24 -4.28 1.71 0.57 13828
0.05 -0.00 2.33 -2.05 15.99 -4.28 1.72 0.59 13834
0.04 -0.00 2.45 -2.62 16.90 -4.28 1.81 0.57 13840
0.05 -0.00 2.44 -4.29 17.64 -4.28 1.98 0.51 13847
0.05 -0.00 2.31 -4.87 18.66 -4.28 2.20 0.43 13853
0.04 -0.00 2.02 -5.98 19.14 -4.28 2.42 0.28 13859
0.04 0.00 1.63 -6.67 19.57 -4.28 2.60 0.22 13865
0.05 -0.00 1.12 -7.03 19.87 -4.28 2.74 0.14 13872
0.03 -0.00 0.74 -7.21 20.23 -4.28 2.80 0.11 13879
0.05 -0.00 0.29 -7.38 20.61 -4.26 2.76 0.13 13885
0.04 -0.00 -0.11 -7.59 21.33 -4.19 2.62 0.20 13891
0.03 -0.00 -0.19 -7.59 22.47 -4.08 2.40 0.31 13897
0.05 -0.00 0.08 -7.93 24.04 -3.94 2.15 0.43 13903
0.04 -0.00 0.33 -8.43 25.84 -3.84 1.92 0.56 13911
0.03 -0.00 0.81 -9.13 27.44 -3.82 1.73 0.69 13917
0.04 -0.00 1.15 -9.94 28.44 -3.90 1.59 0.83 13923
0.04 -0.00 1.69 -11.22 28.22 -3.98 1.52 0.96 13929
0.04 -0.00 2.10 -12.61 27.74 -4.09 1.56 1.11 13936
0.04 -0.00 2.36 -14.26 26.60 -4.14 1.70 1.28 13942
0.03 -0.00 2.11 -16.09 25.04 -4.14 1.91 1.46 13948
0.05 -0.01 1.41 -17.88 23.68 -4.09 2.10 1.65 13955
0.05 -0.00 0.29 -19.54 22.09 -3.95 2.24 1.84 13962
0.05 0.00 -1.47 -21.20 20.87 -3.75 2.33 2.04 13968
0.05 -0.00 -2.95 -23.16 19.91 -3.55 2.35 2.21 13974
0.06 -0.01 -4.33 -25.83 18.02 -3.34 2.18 2.32 13981
0.06 -0.01 -5.79 -28.77 14.88 -3.12 1.90 2.35 13987
0.04 -0.00 -7.01 -31.59 11.34 -2.84 1.68 2.31 13993
0.07 -0.01 -8.01 -35.13 7.62 -2.50 1.56 2.19 14000
0.05 -0.01 -9.51 -38.37 4.59 -2.08 1.50 1.97 14006
0.05 -0.01 -10.09 -41.12 1.25 -1.58 1.46 1.64 14013
0.05 -0.00 -10.49 -41.75 0.23 -1.03 1.36 1.26 14019
0.04 -0.00 -10.74 -39.49 0.64 -0.45 1.15 0.83 14025
0.06 -0.01 -10.71 -35.68 2.08 0.12 0.84 0.42 14032
0.05 -0.00 -9.89 -31.29 4.59 0.61 0.45 0.07 14039
0.05 -0.00 -8.66 -27.14 7.01 0.98 0.04 -0.19 14045
0.05 -0.01 -6.96 -25.30 1.02 1.21 -0.45 -0.27 14051
0.04 -0.00 -28.44 -35.15 19.70 4.26 -3.75 0.38 14057
0.03 0.01 -6.81 -8.55 10.12 4.00 -3.25 0.61 14064
0.04 0.13 3.58 -4.62 -11.99 3.25 -4.00 0.63 14070
0.04 0.28 4.25 -3.68 5.22 2.77 -4.26 0.89 14076
0.04 0.56 6.71 12.12 19.81 3.60 -1.99 1.68 14084
-0.00 0.84 6.66 3.31 12.47 4.00 -0.12 2.36 14090
-0.01 1.22 -7.63 -4.87 29.22 4.28 -0.42 2.26 14096
-0.02 1.50 -15.63 -11.24 27.27 4.28 -0.93 1.66 14102
-0.03 1.77 -10.28 -7.04 30.20 4.28 -1.05 0.91 14109
-0.03 1.88 -7.45 -3.21 32.24 4.28 -0.58 0.35 14115
-0.02 1.93 -6.85 -2.51 23.15 3.80 -0.53 -0.31 14121
-0.02 1.94 0.07 -2.58 16.93 3.26 -0.60 -0.80 14129
-0.01 1.92 6.12 -2.35 16.98 3.23 -0.80 -0.79 14135
0.02 1.88 5.91 -3.23 25.47 2.90 -1.95 -0.41 14141
-0.00 1.83 3.31 -2.65 14.97 1.44 -2.05 0.07 14147
0.02 1.78 -0.46 -1.62 13.83 0.83 -1.43 0.27 14154
0.00 1.75 -1.23 -0.81 12.19 0.44 -0.87 0.18 14160
-0.00 1.75 -0.39 -0.86 11.30 0.20 -0.46 0.06 14167
-0.00 1.80 0.83 -1.36 10.67 0.08 -0.28 0.02 14174
-0.02 1.78 1.12 -1.21 10.20 0.04 -0.22 0.06 14180
-0.00 1.76 0.68 -0.88 10.15 0.03 -0.17 0.07 14186
0.00 1.79 0.37 -0.70 10.07 0.01 -0.14 0.07 14192
-0.01 1.75 0.39 -0.75 10.07 -0.01 -0.12 0.06 14199
-0.01 1.71 0.63 -0.66 9.90 -0.01 -0.11 0.06 14205
-0.00 1.65 0.71 -0.65 9.87 -0.01 -0.11 0.06 14212
0.02 1.61 0.66 -2.54 10.35 0.00 -0.11 0.06 14218
0.02 1.51 0.52 -1.19 10.14 0.00 -0.10 0.06 14224
0.06 1.44 0.54 -0.74 10.33 0.01 -0.09 0.06 14231
0.07 1.34 0.53 -0.74 10.10 0.02 -0.07 0.05 14237
0.08 1.31 0.50 -0.69 10.16 0.02 -0.05 0.06 14243
0.10 1.25 0.57 -0.74 10.07 0.03 -0.04 0.06 14249
0.09 1.12 0.50 -0.73 10.04 0.04 -0.03 0.06 14257
0.11 1.00 0.51 -0.74 10.00 0.04 -0.01 0.06 14263
0.15 0.89 0.61 -0.69 10.03 0.04 -0.01 0.06 14269
0.12 0.84 0.55 -0.64 10.00 0.05 -0.01 0.06 14275
0.12 0.73 0.61 -0.74 9.95 0.06 -0.01 0.07 14281
0.14 0.66 0.62 -0.66 10.03 0.07 -0.01 0.06 14288
0.15 0.54 0.58 -0.78 10.03 0.07 -0.01 0.06 14295
0.18 0.49 0.65 -0.48 10.14 0.07 -0.01 0.05 14301
0.21 0.35 0.67 -0.76 9.97 0.07 -0.00 0.04 14307
0.20 0.26 0.63 -0.77 9.93 0.07 -0.01 0.04 14314
0.24 0.26 0.65 -0.63 9.86 0.08 -0.00 0.03 14320
0.25 0.17 0.63 -0.97 10.06 0.06 -0.01 0.03 14326
0.28 0.11 0.69 -0.86 9.97 0.06 -0.01 0.03 14332
0.32 0.12 0.60 -0.79 9.92 0.07 -0.00 0.02 14339
0.36 0.06 0.61 -0.79 10.07 0.07 0.00 0.02 14346
0.37 0.07 0.58 -0.82 9.99 0.07 0.01 0.02 14352
0.41 0.06 0.53 -0.82 9.97 0.07 0.01 0.03 14358
0.43 0.04 0.53 -0.94 10.18 0.07 0.01 0.07 14364
0.45 0.02 0.55 -0.84 9.94 0.08 0.00 0.04 14370
0.45 0.03 0.69 -1.02 10.05 0.08 0.00 0.04 14377
0.45 -0.01 0.62 -0.85 10.05 0.09 0.00 0.03 14384
0.46 0.01 0.72 -0.87 10.04 0.10 -0.00 0.02 14390
0.53 -0.02 0.70 -0.94 10.00 0.11 -0.01 0.02 14396
0.54 -0.03 0.72 -0.87 10.00 0.11 -0.01 0.01 14402
0.56 -0.02 0.71 -0.99 9.89 0.11 -0.02 -0.01 14409
0.58 -0.03 0.75 -0.98 9.97 0.11 -0.02 -0.02 14415
0.59 -0.03 0.68 -0.94 9.95 0.11 -0.03 -0.03 14422
0.63 -0.02 0.71 -0.98 9.99 0.11 -0.03 -0.04 14428
0.66 -0.04 0.67 -0.94 9.98 0.11 -0.04 -0.04 14434
0.68 -0.04 0.73 -0.97 9.97 0.12 -0.04 -0.05 14441
0.73 -0.04 0.65 -0.98 9.99 0.12 -0.04 -0.05 14447
0.74 -0.04 0.70 -1.04 10.07 0.13 -0.04 -0.05 14453
0.81 -0.04 0.64 -1.03 10.05 0.15 -0.04 -0.05 14459
0.88 -0.04 0.64 -0.98 10.03 0.16 -0.03 -0.04 14467
0.90 -0.05 0.64 -1.06 10.10 0.19 -0.02 -0.03 14473
0.96 -0.04 0.63 -1.06 10.15 0.23 -0.02 -0.03 14479
0.98 -0.04 0.67 -1.11 10.29 0.29 -0.01 -0.03 14485
1.02 -0.05 0.69 -1.16 10.52 0.39 -0.00 -0.03 14492
1.10 -0.06 0.64 -1.23 10.67 0.52 0.02 -0.03 14498
1.13 -0.05 0.80 -1.27 10.80 0.68 0.05 -0.04 14504
1.20 -0.04 0.86 -1.34 11.20 0.86 0.06 -0.06 14511
1.28 -0.07 0.85 -1.37 11.43 1.04 0.05 -0.07 14518
1.30 -0.05 1.11 -1.54 11.09 1.22 0.03 -0.10 14524
1.35 -0.06 1.14 -1.71 11.64 1.38 -0.00 -0.12 14530
1.46 -0.06 1.10 -1.64 12.11 1.52 -0.04 -0.15 14536
1.50 -0.06 0.86 -1.75 11.99 1.65 -0.10 -0.16 14543
1.59 -0.06 0.82 -1.86 12.54 1.80 -0.16 -0.17 14550
1.61 -0.04 0.83 -1.94 13.35 1.96 -0.21 -0.17 14556
1.65 -0.05 0.44 -1.92 12.55 2.15 -0.24 -0.17 14562
1.70 -0.06 0.85 -2.29 12.28 2.37 -0.25 -0.17 14569
1.75 -0.04 0.71 -1.99 13.64 2.61 -0.26 -0.18 14575
1.74 -0.06 0.52 -2.24 13.98 2.85 -0.27 -0.19 14581
1.73 -0.06 0.26 -2.27 14.04 3.10 -0.24 -0.19 14588
1.74 -0.07 0.69 -2.71 14.27 3.34 -0.20 -0.19 14595
1.65 -0.05 0.82 -2.43 14.84 3.65 -0.11 -0.23 14601
1.63 -0.06 0.55 -2.56 15.08 3.98 0.01 -0.23 14607
1.52 -0.06 0.17 -3.31 16.11 4.23 0.03 -0.22 14614
1.43 -0.06 0.77 -3.43 16.73 4.28 0.07 -0.20 14620
1.30 -0.06 1.39 -3.71 18.23 4.28 0.00 -0.23 14626
1.18 -0.05 2.72 -4.29 19.27 4.28 -0.12 -0.34 14633
0.99 -0.05 3.12 -5.95 21.87 4.28 -0.27 -0.47 14640
0.83 -0.03 2.86 -9.81 26.73 4.28 -0.48 -0.60 14646
0.79 -0.04 3.50 -12.72 32.75 4.28 -0.60 -0.68 14652
0.66 -0.03 3.57 -14.42 36.36 4.28 -0.56 -0.69 14659
0.60 -0.04 4.62 -15.00 34.89 4.28 -0.35 -0.70 14665
0.45 -0.03 4.10 -13.30 33.35 4.28 -0.14 -0.74 14671
0.38 -0.02 3.32 -12.83 32.37 4.28 0.09 -0.77 14679
0.24 -0.02 1.14 -8.01 32.86 4.28 0.10 -0.86 14685
0.22 -0.02 0.34 -4.94 35.80 4.28 -0.19 -1.01 14691
0.21 -0.02 1.64 -1.72 34.57 4.28 -0.96 -1.12 14697
0.14 -0.00 4.63 1.55 35.56 4.28 -1.71 -1.16 14704
0.14 -0.01 8.96 6.24 35.10 4.28 -1.89 -1.12 14710
0.08 -0.01 12.22 14.65 25.19 4.28 -1.60 -1.01 14716
0.07 -0.01 16.34 21.68 23.29 4.28 -1.00 -1.16 14724
0.04 -0.00 12.09 26.11 9.56 4.27 0.25 -1.64 14730
0.06 0.00 11.84 26.41 -6.10 3.01 0.90 -2.42 14736
0.04 -0.00 7.94 19.84 28.41 1.54 1.59 -2.62 14742
0.07 -0.00 9.13 17.55 38.02 -0.80 2.51 -2.40 14749
0.05 -0.00 4.71 18.37 26.99 -2.86 2.55 -2.14 14755
0.05 -0.00 0.96 16.58 15.67 -3.86 1.82 -1.86 14761
0.06 -0.01 -0.33 12.86 14.19 -4.23 0.98 -1.51 14769
0.05 -0.00 0.69 9.54 12.24 -4.28 0.37 -1.19 14775
0.06 -0.01 1.84 7.80 9.83 -4.28 -0.07 -0.98 14781
0.07 -0.01 3.00 6.37 8.57 -4.28 -0.35 -0.86 14787
0.08 -0.01 3.57 5.26 8.04 -4.28 -0.46 -0.77 14793
0.07 -0.00 4.12 4.40 7.69 -4.28 -0.44 -0.70 14799
0.06 -0.01 4.90 3.83 7.45 -4.28 -0.29 -0.63 14807
0.05 -0.01 5.47 3.47 7.58 -4.28 -0.04 -0.58 14813
0.06 -0.01 5.55 3.26 8.09 -4.28 0.22 -0.56 14819
0.06 -0.01 5.41 3.17 8.74 -4.28 0.48 -0.55 14825
0.06 -0.01 5.11 3.04 9.61 -4.28 0.70 -0.50 14831
0.05 -0.01 4.80 2.70 10.25 -4.28 0.88 -0.44 14837
0.06 -0.00 4.43 2.20 10.73 -4.28 1.03 -0.35 14844
0.05 -0.00 4.06 1.45 11.00 -4.28 1.13 -0.24 14851
0.05 -0.01 2.92 1.38 11.68 -4.28 1.14 -0.13 14857
0.06 -0.01 3.45 0.09 12.44 -4.28 1.22 0.01 14863
0.05 -0.00 3.70 -1.11 12.13 -4.28 1.23 0.12 14869
0.05 0.00 3.81 -1.38 12.86 -4.28 1.39 0.26 14876
0.06 -0.01 3.81 -1.86 12.60 -4.28 1.49 0.36 14882
0.06 -0.01 3.44 -1.88 13.39 -4.28 1.55 0.46 14888
0.07 -0.01 3.49 -2.35 14.71 -4.28 1.60 0.48 14895
0.06 -0.01 3.34 -2.72 15.45 -4.28 1.63 0.50 14902
0.07 -0.01 3.16 -3.68 16.76 -4.28 1.69 0.49 14908
0.07 -0.01 2.89 -4.62 18.25 -4.28 1.79 0.44 14914
0.06 -0.01 2.86 -5.46 19.22 -4.28 1.91 0.37 14920
0.07 0.00 2.55 -6.07 19.89 -4.28 2.04 0.29 14926
0.06 -0.01 2.48 -6.62 19.90 -4.28 2.19 0.22 14934
0.05 -0.01 2.31 -7.04 20.00 -4.28 2.32 0.18 14940
0.07 -0.00 2.09 -7.34 19.92 -4.28 2.40 0.17 14946
0.06 -0.01 1.89 -7.92 20.41 -4.25 2.44 0.18 14952
0.06 -0.00 1.77 -8.45 21.14 -4.16 2.44 0.24 14959
0.06 -0.01 1.83 -8.78 21.98 -4.01 2.39 0.32 14965
0.05 -0.00 1.80 -9.03 23.09 -3.82 2.28 0.43 14971
0.05 -0.01 2.12 -9.51 24.20 -3.69 2.17 0.56 14978
0.06 -0.01 2.35 -10.11 25.32 -3.66 2.03 0.72 14985
0.05 -0.01 2.39 -11.08 25.98 -3.69 1.90 0.89 14991
0.07 -0.01 2.59 -12.17 25.82 -3.77 1.79 1.07 14997
0.06 -0.01 2.78 -12.99 24.81 -3.85 1.70 1.22 15003
0.06 0.00 2.76 -13.97 23.72 -3.90 1.71 1.36 15010
0.06 -0.01 2.70 -14.89 22.42 -3.87 1.82 1.47 15016
0.06 -0.01 2.46 -16.20 21.50 -3.77 1.96 1.59 15023
0.08 -0.01 2.00 -17.95 20.84 -3.60 2.04 1.72 15029
0.05 -0.01 1.37 -19.76 19.79 -3.41 2.02 1.84 15036
0.08 -0.01 0.66 -21.76 18.49 -3.18 1.95 1.97 15042
0.07 -0.01 -0.22 -23.80 16.60 -2.93 1.91 2.10 15048
0.07 -0.01 -1.44 -25.77 14.95 -2.65 2.04 2.25 15054
0.07 -0.01 -3.85 -27.83 13.50 -2.38 2.36 2.41 15062
0.07 -0.01 -6.27 -30.90 12.98 -2.14 2.48 2.48 15068
0.08 -0.01 -8.04 -34.50 9.65 -1.93 2.30 2.42 15074
0.07 -0.01 -9.60 -37.68 5.99 -1.70 1.96 2.25 15080
0.07 -0.00 -9.97 -39.33 2.62 -1.44 1.58 2.01 15087
0.07 -0.01 -10.20 -39.29 0.43 -1.05 1.21 1.69 15093
0.06 -0.01 -9.20 -37.72 0.27 -0.52 0.90 1.30 15099
0.07 -0.01 -9.30 -34.29 2.00 0.08 0.64 0.89 15106
0.06 -0.01 -8.61 -29.48 4.38 0.64 0.28 0.54 15113
0.06 -0.01 -7.22 -26.74 4.79 1.03 -0.08 0.28 15119
0.07 -0.01 -25.35 -38.95 38.62 4.19 -2.75 0.80 15125
0.06 -0.01 -9.34 -18.07 9.92 4.10 -2.27 1.10 15131
0.06 0.13 -4.03 -11.96 -8.89 3.65 -3.21 1.17 15138
0.06 0.30 0.40 -2.34 -0.17 3.09 -4.16 1.08 15144
0.05 0.46 1.99 1.11 20.27 3.69 -2.73 1.66 15151
0.05 0.80 8.01 7.19 17.35 4.19 -0.39 2.38 15157
0.02 1.07 -7.23 -4.90 24.17 4.28 -0.16 2.46 15164
0.02 1.40 -17.41 -11.25 29.60 4.28 -0.64 1.82 15170
0.01 1.63 -12.80 -8.16 27.52 4.28 -1.11 0.93 15176
0.01 1.76 -6.42 -4.21 30.05 4.28 -0.62 0.37 15183
-0.03 1.83 -7.30 -2.60 24.54 4.23 -0.40 -0.22 15190
-0.03 1.86 -0.51 -3.05 19.23 3.78 -0.51 -0.76 15196
-0.01 1.82 6.42 -2.75 21.26 3.73 -0.90 -0.81 15203
-0.02 1.78 4.57 -2.49 23.52 2.66 -2.65 -0.36 15209
-0.01 1.81 3.56 -3.81 14.56 1.14 -1.74 0.20 15215
-0.02 1.77 -0.77 -2.32 13.22 0.52 -0.93 0.28 15221
0.02 1.70 -1.16 -0.82 11.41 0.19 -0.47 0.14 15228
0.01 1.66 -0.04 -1.10 10.42 0.03 -0.24 0.02 15235
0.01 1.65 1.27 -1.60 10.22 -0.02 -0.19 0.01 15241
0.02 1.63 1.45 -1.18 9.95 -0.03 -0.19 0.05 15247
0.02 1.63 0.64 -0.69 10.04 -0.04 -0.19 0.06 15254
0.03 1.60 0.41 -0.58 10.00 -0.04 -0.18 0.03 15260
0.02 1.55 0.78 -0.73 10.10 -0.04 -0.16 0.02 15266
0.02 1.51 1.01 -0.67 10.03 -0.03 -0.17 0.02 15272
0.03 1.48 0.72 1.18 9.68 -0.01 -0.16 0.02 15280
0.08 1.40 0.53 -0.87 10.08 0.00 -0.15 0.02 15286
0.09 1.31 0.67 -0.72 10.14 0.01 -0.13 0.02 15292
0.09 1.21 0.70 -0.70 10.15 0.02 -0.11 0.02 15298
0.09 1.15 0.74 -0.74 10.12 0.03 -0.10 0.02 15305
0.16 1.04 0.66 -0.76 10.11 0.04 -0.09 0.03 15311
0.14 0.98 0.72 -0.80 10.11 0.05 -0.08 0.03 15318
0.18 0.84 0.58 -0.71 10.15 0.06 -0.06 0.03 15324
0.21 0.81 0.68 -0.76 10.12 0.06 -0.05 0.04 15330
0.23 0.66 0.63 -0.69 10.04 0.07 -0.04 0.05 15337
0.26 0.53 0.71 -0.68 10.04 0.08 -0.03 0.05 15343
0.28 0.46 0.57 -0.64 9.98 0.10 -0.03 0.04 15349
0.32 0.37 0.78 -0.98 9.98 0.10 -0.02 0.03 15355
0.34 0.34 0.81 -0.71 10.06 0.10 -0.02 0.03 15363
0.34 0.23 0.83 -0.89 10.06 0.12 -0.02 0.02 15369
0.37 0.19 0.74 -0.79 9.96 0.11 -0.02 0.01 15375
0.42 0.15 0.80 -0.87 10.08 0.11 -0.02 0.00 15381
0.43 0.12 0.76 -0.90 10.01 0.12 -0.02 -0.01 15388
0.45 0.08 0.74 -0.88 10.06 0.13 -0.01 -0.01 15394
0.48 0.01 0.64 -0.83 10.09 0.14 -0.02 -0.02 15400
0.50 0.03 0.68 -0.82 10.25 0.16 -0.03 -0.03 15407
