Voltage_01 Voltage_02 Acc_x Acc_y Acc_z Gyro_x Gyro_y Gyro_z Time
5000
0.15 0.47 0.37 -1.12 10.07 0.04 0.05 0.14 17
0.15 0.46 0.43 -1.16 9.99 0.04 0.05 0.14 23
0.14 0.46 0.40 -1.15 9.97 0.04 0.05 0.13 29
0.13 0.46 0.38 -1.12 9.90 0.05 0.05 0.13 35
0.15 0.46 0.41 -1.14 9.93 0.04 0.05 0.13 41
0.15 0.46 0.43 -1.12 9.95 0.05 0.05 0.13 48
0.15 0.45 0.46 -1.08 9.92 0.05 0.04 0.12 54
0.14 0.42 0.47 -1.10 9.92 0.05 0.04 0.12 60
0.14 0.40 0.50 -1.14 9.90 0.05 0.02 0.12 66
0.16 0.38 0.46 -1.16 9.91 0.05 0.02 0.12 72
0.17 0.35 0.46 -1.13 9.93 0.05 0.02 0.11 78
0.18 0.33 0.48 -1.16 9.94 0.06 0.01 0.11 84
0.18 0.31 0.51 -1.13 9.95 0.05 0.00 0.11 91
0.18 0.25 0.52 -1.17 9.96 0.05 -0.01 0.11 97
0.19 0.21 0.52 -1.15 9.95 0.05 -0.02 0.10 103
0.22 0.19 0.57 -1.19 9.98 0.04 -0.04 0.10 109
0.21 0.20 0.51 -1.17 9.95 0.04 -0.04 0.10 116
0.22 0.14 0.46 -1.14 9.90 0.04 -0.05 0.10 122
0.21 0.11 0.46 -1.20 9.96 0.04 -0.05 0.10 129
0.24 0.12 0.46 -1.12 9.94 0.04 -0.05 0.09 135
0.27 0.07 0.46 -1.19 9.95 0.04 -0.06 0.09 141
0.27 0.06 0.47 -1.18 9.97 0.03 -0.06 0.09 147
0.26 0.05 0.42 -1.25 9.96 0.03 -0.06 0.09 153
0.27 0.04 0.46 -1.82 9.95 0.03 -0.06 0.09 159
0.29 0.07 0.44 -1.23 9.93 0.03 -0.07 0.09 165
0.30 0.00 0.47 -1.21 9.91 0.03 -0.07 0.09 172
0.31 -0.00 0.44 -1.20 9.93 0.02 -0.07 0.08 178
0.31 0.00 0.44 -1.24 9.94 0.02 -0.07 0.09 184
0.35 0.00 0.31 -0.82 9.96 0.03 -0.07 0.09 190
0.40 -0.03 0.47 -1.23 9.98 0.03 -0.08 0.09 197
0.40 -0.02 0.49 -1.20 9.95 0.03 -0.08 0.09 203
0.42 -0.04 0.48 -1.22 10.00 0.04 -0.08 0.08 209
0.43 -0.03 0.41 -1.17 9.93 0.04 -0.08 0.08 216
0.46 -0.02 0.42 -1.25 10.03 0.04 -0.09 0.09 222
0.46 -0.03 0.37 -1.84 10.00 0.05 -0.08 0.08 228
0.51 -0.05 0.38 -1.25 9.95 0.05 -0.08 0.08 234
0.56 -0.03 0.43 -1.22 9.98 0.07 -0.09 0.08 240
0.62 -0.03 0.34 -1.20 9.94 0.07 -0.09 0.08 246
0.61 -0.03 0.40 -1.22 9.95 0.08 -0.10 0.08 252
0.65 -0.05 0.42 -1.31 9.98 0.09 -0.10 0.07 259
0.68 -0.04 0.44 -0.64 9.97 0.10 -0.11 0.07 266
0.70 -0.03 0.44 -1.31 9.98 0.11 -0.10 0.06 272
0.72 -0.04 0.34 -1.28 9.96 0.12 -0.10 0.06 278
0.75 -0.05 0.32 -1.24 9.97 0.14 -0.09 0.07 284
0.76 -0.04 0.39 -1.26 10.04 0.15 -0.09 0.06 290
0.77 -0.03 0.41 -1.31 10.00 0.17 -0.09 0.06 296
0.82 -0.04 0.44 -1.35 10.14 0.19 -0.10 0.06 303
0.84 -0.04 0.38 -1.38 10.05 0.21 -0.10 0.05 309
0.85 -0.04 0.36 -1.42 9.97 0.24 -0.11 0.05 316
0.87 -0.03 0.44 -1.46 10.12 0.25 -0.12 0.05 322
0.89 -0.04 0.30 -1.38 10.00 0.28 -0.12 0.05 328
0.90 -0.04 0.42 -1.52 10.08 0.30 -0.12 0.05 334
0.91 -0.03 0.46 -1.49 10.15 0.31 -0.12 0.04 340
0.93 -0.04 0.57 -1.56 10.21 0.33 -0.13 0.04 347
0.93 -0.05 0.42 -1.49 10.21 0.34 -0.12 0.03 353
0.94 -0.04 0.20 -1.56 10.18 0.35 -0.12 0.03 360
0.99 -0.04 0.36 -1.62 10.21 0.37 -0.12 0.02 366
1.01 -0.06 0.37 -1.69 10.05 0.38 -0.12 0.02 372
1.01 -0.05 0.45 -1.68 10.07 0.39 -0.13 0.02 378
1.01 -0.05 0.23 -1.69 10.18 0.40 -0.13 0.02 385
1.01 -0.05 0.45 -1.75 10.09 0.43 -0.13 0.01 391
1.00 -0.05 0.12 -1.83 9.98 0.44 -0.13 0.01 397
1.03 -0.04 0.31 -1.80 9.89 0.45 -0.11 0.01 404
1.06 -0.05 0.24 -1.62 9.90 0.45 -0.10 0.01 410
1.08 -0.04 0.30 -1.90 9.88 0.45 -0.10 0.00 416
1.12 -0.05 0.02 -1.85 9.82 0.45 -0.10 0.01 422
1.14 -0.05 0.24 -1.98 9.75 0.43 -0.07 0.02 429
1.14 -0.05 0.11 -1.91 9.63 0.42 -0.05 0.03 435
1.12 -0.04 -0.37 -2.02 8.99 0.40 -0.04 0.02 441
1.15 -0.05 0.41 -2.11 9.81 0.41 -0.04 0.03 447
1.14 -0.05 0.23 -2.12 9.86 0.42 -0.03 0.03 453
1.18 -0.05 0.36 -2.12 9.84 0.42 -0.02 0.03 459
1.18 -0.06 0.41 -2.20 10.00 0.44 -0.02 0.03 465
1.20 -0.06 0.42 -2.26 10.19 0.46 -0.02 0.02 473
1.21 -0.05 0.57 -2.23 10.05 0.51 -0.03 0.01 479
1.23 -0.05 0.41 -2.40 10.25 0.52 -0.04 -0.00 485
1.22 -0.05 0.41 -2.45 10.51 0.57 -0.06 -0.01 491
1.20 -0.05 0.45 -2.41 10.28 0.61 -0.08 -0.02 497
1.21 -0.05 0.38 -2.55 10.33 0.65 -0.09 -0.03 503
1.22 -0.05 0.36 -2.44 10.36 0.69 -0.10 -0.03 510
1.25 -0.06 0.37 -2.53 10.43 0.73 -0.10 -0.04 517
1.25 -0.04 0.45 -2.55 10.21 0.80 -0.11 -0.04 523
1.25 -0.06 0.40 -2.67 10.35 0.79 -0.10 -0.05 529
1.27 -0.05 0.22 -2.87 10.46 0.82 -0.09 -0.05 535
1.26 -0.05 0.14 -2.91 10.23 0.85 -0.08 -0.05 541
1.23 -0.05 0.44 -2.89 9.94 0.90 -0.08 -0.06 547
1.27 -0.05 0.31 -2.86 10.31 0.92 -0.08 -0.07 555
1.22 -0.05 0.46 -2.90 10.81 0.97 -0.09 -0.07 561
1.20 -0.04 0.29 -3.15 11.04 1.04 -0.10 -0.08 567
1.18 -0.05 0.65 -3.23 10.88 1.10 -0.10 -0.10 573
1.14 -0.06 0.56 -3.22 11.40 1.18 -0.14 -0.11 579
1.12 -0.04 0.49 -3.34 11.26 1.27 -0.14 -0.12 585
1.10 -0.05 0.56 -3.45 11.35 1.37 -0.15 -0.14 591
1.03 -0.06 0.55 -3.50 12.21 1.46 -0.17 -0.15 599
1.02 -0.05 0.47 -4.03 11.62 1.60 -0.18 -0.16 605
0.99 -0.05 0.49 -3.78 11.90 1.74 -0.18 -0.17 611
0.87 -0.05 0.53 -3.88 12.94 1.92 -0.20 -0.19 617
0.82 -0.04 0.70 -4.12 13.78 2.13 -0.19 -0.21 623
0.81 -0.04 1.11 -4.47 13.14 2.35 -0.19 -0.25 629
0.65 -0.04 1.08 -4.91 13.89 2.57 -0.20 -0.30 636
0.67 -0.04 1.24 -5.32 14.17 2.82 -0.16 -0.35 643
0.60 -0.03 2.98 -5.14 13.12 3.00 -0.16 -0.39 649
0.57 -0.04 0.82 -6.24 16.01 3.23 -0.03 -0.40 655
0.48 -0.03 1.24 -6.01 15.72 3.45 0.04 -0.40 661
0.42 -0.02 1.05 -6.58 15.94 3.58 0.12 -0.39 667
0.39 -0.02 1.32 -6.68 16.37 3.67 0.16 -0.39 674
0.31 -0.03 0.53 -7.08 15.75 3.74 0.19 -0.39 680
0.32 -0.02 1.10 -7.42 15.98 3.78 0.21 -0.39 687
0.28 -0.02 1.92 -7.59 16.51 3.80 0.32 -0.39 693
0.25 -0.02 0.99 -6.55 17.41 3.75 0.42 -0.40 699
0.24 -0.02 0.26 -6.66 17.81 3.71 0.40 -0.43 705
0.25 -0.02 0.49 -6.56 16.59 3.63 0.33 -0.46 712
0.20 -0.01 1.26 -6.12 16.12 3.59 0.22 -0.50 718
0.15 -0.01 2.40 -5.67 15.65 3.56 0.21 -0.54 724
0.16 -0.01 3.69 -5.13 14.24 3.55 0.28 -0.60 731
0.16 -0.02 4.56 -4.40 13.71 3.56 0.43 -0.69 737
0.12 -0.01 4.99 -3.49 12.58 3.59 0.64 -0.79 743
0.10 -0.01 5.02 -2.37 11.55 3.67 0.89 -0.92 749
0.09 -0.01 4.60 -1.79 11.88 3.75 1.10 -1.08 755
0.08 -0.01 3.72 -1.71 14.28 4.09 1.23 -1.23 762
0.07 -0.01 3.20 -1.03 13.94 4.28 1.41 -1.40 769
0.06 -0.01 3.96 2.24 11.09 4.28 1.75 -1.51 775
0.08 -0.01 2.17 4.45 6.67 4.24 1.64 -1.76 781
0.08 -0.01 2.35 13.19 3.69 3.67 1.29 -2.07 787
0.08 -0.01 1.50 14.13 8.33 2.32 0.95 -2.47 793
0.07 -0.01 -0.34 11.08 15.75 0.33 0.72 -2.47 799
0.09 -0.01 0.69 5.65 20.33 -0.81 0.60 -2.27 805
0.08 -0.01 0.78 4.69 16.52 -1.56 0.48 -2.14 812
0.08 -0.01 0.62 5.43 12.50 -2.02 0.23 -1.99 818
0.09 -0.01 0.86 4.91 8.54 -2.29 0.02 -1.78 825
0.09 -0.01 1.85 3.53 6.20 -2.44 -0.10 -1.61 831
0.08 -0.01 2.41 2.55 5.45 -2.46 -0.12 -1.47 837
0.08 -0.01 2.43 2.07 5.32 -2.45 -0.03 -1.31 843
0.08 -0.01 2.30 1.81 5.12 -2.41 0.12 -1.19 849
0.08 -0.01 2.15 1.85 4.98 -2.36 0.25 -1.02 856
0.09 -0.01 1.77 1.99 4.96 -2.33 0.33 -0.85 862
0.09 -0.01 1.45 2.07 5.24 -2.32 0.35 -0.66 868
0.09 -0.01 1.19 2.13 5.83 -2.32 0.32 -0.46 874
0.07 -0.01 1.14 2.16 6.38 -2.35 0.26 -0.28 880
0.08 -0.01 1.26 2.33 6.97 -2.39 0.18 -0.08 886
0.07 -0.01 1.46 2.32 7.29 -2.45 0.13 0.12 892
0.08 -0.01 1.71 2.01 7.66 -2.55 0.17 0.29 899
0.09 -0.01 2.10 1.65 8.17 -2.66 0.21 0.45 905
0.08 -0.01 2.24 1.20 8.61 -2.79 0.34 0.52 911
0.08 -0.01 2.24 0.96 9.20 -2.94 0.51 0.61 917
0.07 -0.00 1.98 0.79 9.67 -3.08 0.68 0.66 923
0.08 -0.01 1.68 0.57 9.99 -3.25 0.80 0.69 930
0.07 -0.01 1.22 0.23 10.42 -3.41 0.92 0.71 936
0.07 -0.01 0.92 -0.34 10.75 -3.55 1.00 0.71 943
0.06 -0.01 0.50 -1.11 10.84 -3.65 1.06 0.69 949
0.08 -0.01 0.15 -1.97 11.00 -3.71 1.11 0.66 955
0.09 -0.01 -0.08 -2.91 11.20 -3.74 1.13 0.60 961
0.08 -0.01 -0.24 -3.72 11.46 -3.72 1.15 0.53 967
0.09 -0.00 -0.48 -4.37 11.58 -3.68 1.16 0.46 973
0.09 -0.01 -0.69 -5.00 11.83 -3.62 1.17 0.38 979
0.08 -0.01 -0.87 -5.60 12.10 -3.54 1.16 0.31 986
0.07 -0.01 -0.95 -5.90 12.39 -3.46 1.15 0.25 993
0.08 -0.01 -0.96 -6.02 12.72 -3.39 1.11 0.23 999
0.09 -0.01 -0.92 -5.93 13.09 -3.31 1.05 0.23 1005
0.09 -0.01 -0.83 -5.77 13.44 -3.24 0.99 0.27 1011
0.08 -0.01 -0.66 -5.75 13.78 -3.17 0.93 0.33 1017
0.08 -0.01 -0.53 -5.81 13.96 -3.11 0.88 0.38 1024
0.07 -0.01 -0.29 -5.90 14.25 -3.03 0.86 0.45 1030
0.07 -0.01 -0.15 -6.13 14.80 -2.96 0.87 0.52 1037
0.09 -0.01 -0.05 -6.44 15.26 -2.90 0.90 0.57 1043
0.08 -0.01 0.01 -6.81 15.75 -2.86 0.94 0.61 1049
0.07 -0.01 0.07 -7.21 16.11 -2.85 0.96 0.64 1055
0.07 -0.00 0.01 -7.70 16.27 -2.84 0.97 0.67 1061
0.08 -0.01 -0.01 -8.35 16.24 -2.83 0.95 0.68 1068
0.07 -0.01 -0.02 -9.04 15.82 -2.80 0.94 0.70 1075
0.08 -0.00 0.02 -9.46 15.18 -2.76 0.92 0.72 1081
0.08 -0.01 0.04 -9.89 14.67 -2.67 0.89 0.73 1087
0.08 -0.01 0.10 -10.17 14.03 -2.56 0.87 0.75 1093
0.07 -0.00 0.07 -10.27 13.45 -2.41 0.86 0.78 1099
0.07 -0.01 -0.03 -10.21 12.90 -2.23 0.84 0.80 1106
0.07 -0.01 -0.34 -10.06 12.74 -2.04 0.81 0.83 1113
0.07 -0.01 -0.92 -9.92 12.66 -1.84 0.75 0.86 1119
0.07 -0.01 -1.40 -9.82 12.78 -1.66 0.65 0.90 1125
0.07 -0.01 -2.03 -9.64 12.79 -1.49 0.48 0.94 1131
0.08 0.00 -2.56 -9.46 12.68 -1.39 0.29 1.00 1137
0.08 -0.01 -2.95 -9.34 12.43 -1.29 0.07 1.07 1144
0.09 -0.01 -2.96 -9.13 11.98 -1.20 -0.08 1.14 1150
0.10 -0.00 -3.11 -9.26 11.60 -1.13 -0.22 1.22 1157
0.09 -0.01 -2.93 -9.51 11.40 -1.08 -0.33 1.28 1163
0.10 -0.01 -2.62 -9.92 10.44 -1.03 -0.41 1.33 1169
0.10 -0.00 -2.10 -10.49 10.53 -0.97 -0.49 1.34 1176
0.09 -0.01 -1.46 -11.12 9.22 -0.92 -0.54 1.32 1182
0.09 -0.01 -0.76 -11.72 9.16 -0.84 -0.56 1.27 1188
0.10 -0.00 -0.03 -12.28 8.56 -0.75 -0.52 1.22 1195
0.09 -0.01 0.50 -12.89 7.99 -0.65 -0.42 1.15 1201
0.09 -0.01 1.08 -13.67 7.40 -0.52 -0.26 1.08 1208
0.10 0.00 1.27 -14.78 7.19 -0.34 -0.02 1.03 1214
0.11 -0.01 0.64 -14.43 6.86 -0.20 0.27 0.99 1220
0.09 -0.01 -0.65 -17.23 7.90 -0.07 0.54 0.98 1226
0.10 -0.00 -2.37 -16.01 6.68 0.19 0.78 0.97 1232
0.09 -0.01 -4.17 -18.99 5.86 0.31 0.75 0.93 1239
0.10 -0.01 -5.29 -19.63 6.12 0.65 0.63 0.88 1246
0.11 -0.00 -4.88 -18.03 3.02 0.91 0.41 0.76 1252
0.11 -0.01 -4.90 -21.24 1.73 1.04 0.16 0.57 1258
0.10 -0.01 -5.08 -21.58 1.54 1.37 -0.08 0.35 1264
0.10 0.02 -3.38 -6.00 3.43 1.80 -0.26 0.11 1270
0.10 0.06 -2.43 -0.87 10.04 1.97 -0.54 -0.12 1276
0.09 0.13 -0.13 5.30 16.16 2.04 -0.71 -0.30 1284
0.06 0.26 2.02 1.09 18.64 1.97 -0.57 -0.34 1290
0.07 0.34 1.39 -0.80 15.89 1.97 -0.36 -0.34 1296
0.05 0.44 1.06 -2.62 15.52 2.07 -0.37 -0.37 1302
0.05 0.49 2.09 -2.89 15.18 2.26 -0.55 -0.35 1309
0.07 0.54 2.06 -3.31 20.11 2.31 -1.19 -0.31 1315
0.07 0.60 2.91 -2.53 18.03 1.52 -1.37 -0.15 1321
0.08 0.64 0.29 -2.18 13.83 0.74 -0.78 0.18 1328
0.06 0.67 -0.69 -1.80 11.15 0.31 -0.46 0.18 1334
0.07 0.70 -0.51 -1.12 11.07 0.21 -0.32 0.09 1341
0.06 0.72 0.41 -1.05 10.37 0.10 -0.14 0.08 1347
0.06 0.74 0.77 -1.01 9.85 0.08 -0.07 0.10 1353
0.07 0.74 0.61 -0.94 9.91 0.10 -0.09 0.13 1359
0.07 0.73 0.28 -0.73 9.87 0.09 -0.08 0.14 1366
0.06 0.72 0.43 -0.69 9.76 0.08 -0.06 0.14 1372
0.06 0.70 0.47 -0.68 9.90 0.08 -0.06 0.14 1379
0.08 0.70 0.67 -1.29 9.88 0.09 -0.08 0.16 1385
0.08 0.71 0.50 -0.99 9.93 0.07 -0.08 0.16 1391
0.07 0.72 0.39 -1.03 9.99 0.06 -0.08 0.15 1397
0.07 0.75 0.45 -1.01 9.94 0.05 -0.06 0.15 1403
0.07 0.77 0.40 -0.98 9.91 0.04 -0.05 0.16 1410
0.07 0.78 0.43 -0.96 9.89 0.03 -0.03 0.16 1416
0.07 0.80 0.46 -0.91 9.80 0.02 -0.01 0.16 1423
0.08 0.83 0.45 -0.93 9.88 0.02 0.00 0.16 1429
0.07 0.85 0.43 -0.94 9.91 0.02 0.00 0.15 1435
0.06 0.86 0.39 -0.94 9.90 0.02 0.01 0.14 1441
0.07 0.87 0.40 -0.96 9.84 0.02 0.02 0.16 1447
0.08 0.88 0.43 -1.00 10.02 0.02 0.03 0.16 1454
0.07 0.86 0.46 -1.01 10.03 0.02 0.04 0.17 1460
0.07 0.88 0.51 -0.99 10.02 0.02 0.04 0.16 1467
0.07 0.87 0.50 -0.99 9.93 0.02 0.04 0.16 1473
0.07 0.85 0.53 -1.01 9.92 0.02 0.03 0.16 1479
0.07 0.85 0.53 -1.00 9.92 0.02 0.02 0.16 1485
0.09 0.84 0.51 -0.96 9.88 0.02 0.02 0.16 1491
0.08 0.82 0.56 -0.97 9.90 0.02 0.01 0.15 1498
0.09 0.82 0.51 -1.00 9.86 0.02 0.00 0.14 1504
0.09 0.82 0.54 -0.97 9.91 0.02 -0.01 0.15 1511
0.08 0.82 0.54 -0.98 9.89 0.02 -0.01 0.14 1517
0.07 0.82 0.57 -0.96 9.90 0.02 -0.03 0.14 1523
0.07 0.78 0.55 -1.00 9.96 0.02 -0.04 0.13 1529
0.08 0.76 0.58 -1.01 9.90 0.02 -0.05 0.13 1536
0.10 0.72 0.51 -0.99 9.85 0.03 -0.05 0.12 1542
0.09 0.71 0.51 -1.00 9.94 0.02 -0.06 0.12 1548
0.09 0.70 0.48 -1.03 9.98 0.02 -0.07 0.11 1555
0.11 0.69 0.55 -1.03 9.95 0.02 -0.07 0.11 1561
0.10 0.64 0.51 -0.99 9.94 0.02 -0.08 0.11 1567
0.08 0.63 0.51 -0.99 9.91 0.02 -0.09 0.11 1573
0.10 0.61 0.50 -1.01 9.90 0.03 -0.07 0.11 1580
0.12 0.58 0.50 -1.03 9.93 0.03 -0.06 0.11 1586
0.11 0.56 0.48 -1.01 9.91 0.04 -0.04 0.11 1592
0.11 0.54 0.48 -1.03 9.94 0.04 -0.03 0.11 1599
0.12 0.51 0.53 -1.04 9.89 0.05 -0.03 0.11 1605
0.11 0.48 0.55 -1.03 9.86 0.05 -0.02 0.10 1611
0.11 0.47 0.57 -1.04 9.94 0.05 -0.02 0.11 1617
0.12 0.45 0.56 -1.09 9.87 0.04 -0.02 0.10 1624
0.14 0.39 0.55 -1.09 9.95 0.05 -0.01 0.10 1630
0.14 0.36 0.55 -1.07 9.95 0.04 -0.01 0.10 1636
0.15 0.35 0.53 -1.05 9.92 0.05 -0.01 0.10 1643
0.16 0.32 0.57 -1.06 9.92 0.05 -0.01 0.10 1649
0.16 0.26 0.60 -1.10 9.98 0.05 -0.02 0.10 1655
0.17 0.24 0.48 -1.11 10.02 0.04 -0.03 0.09 1661
0.19 0.25 0.64 -1.05 9.91 0.05 -0.03 0.08 1668
0.18 0.21 0.63 -1.11 9.92 0.05 -0.04 0.08 1674
0.19 0.18 0.65 -1.13 9.97 0.04 -0.06 0.07 1680
0.20 0.19 0.57 -1.10 9.96 0.03 -0.07 0.07 1687
0.21 0.15 0.53 -1.12 9.99 0.02 -0.08 0.06 1693
0.23 0.13 0.57 -1.12 10.01 0.02 -0.09 0.07 1699
0.24 0.14 0.61 -1.15 9.90 0.01 -0.10 0.05 1705
0.26 0.11 0.51 -1.19 9.91 0.01 -0.11 0.06 1712
0.25 0.08 0.51 -1.15 9.92 0.01 -0.11 0.06 1718
0.26 0.09 0.55 -1.15 10.03 0.00 -0.11 0.06 1725
0.30 0.10 0.55 -1.10 9.97 0.00 -0.12 0.05 1731
0.30 0.05 0.58 -1.16 9.94 0.00 -0.12 0.05 1737
0.30 0.04 0.54 -1.16 9.99 0.00 -0.12 0.05 1743
0.32 0.05 0.51 -1.10 10.00 0.00 -0.13 0.04 1750
0.32 0.03 0.46 -1.15 10.02 0.03 -0.13 0.04 1756
0.35 0.01 0.51 -1.08 9.96 0.00 -0.12 0.04 1762
0.38 0.03 0.66 -1.19 9.63 0.01 -0.12 0.03 1769
0.43 0.02 0.47 -1.13 9.96 0.01 -0.11 0.04 1775
0.46 0.01 0.49 -0.82 10.03 0.02 -0.10 0.03 1781
0.48 -0.02 0.32 -0.94 10.18 0.03 -0.11 0.04 1787
0.52 -0.02 0.54 -1.14 9.98 0.04 -0.11 0.04 1794
0.55 -0.02 0.30 -1.60 10.03 0.04 -0.11 0.03 1801
0.58 -0.03 0.46 -1.20 9.96 0.05 -0.11 0.04 1807
0.64 -0.03 0.46 -1.15 9.99 0.07 -0.11 0.03 1813
0.61 -0.04 0.39 -1.31 9.90 0.07 -0.10 0.03 1819
0.63 -0.04 0.43 -1.18 9.96 0.08 -0.10 0.04 1825
0.69 -0.03 0.39 -1.13 10.07 0.10 -0.10 0.04 1831
0.71 -0.04 0.51 -1.15 9.95 0.10 -0.10 0.03 1838
0.70 -0.05 0.29 -0.77 10.05 0.11 -0.10 0.04 1845
0.73 -0.02 0.40 -1.27 9.94 0.12 -0.10 0.03 1851
0.76 -0.05 0.41 -1.29 10.04 0.13 -0.11 0.03 1857
0.81 -0.05 0.41 -1.21 10.02 0.15 -0.11 0.03 1863
0.86 -0.03 0.33 -1.34 10.02 0.17 -0.12 0.03 1869
0.88 -0.04 0.45 -1.32 10.10 0.20 -0.12 0.03 1876
0.91 -0.04 0.32 -1.33 10.12 0.22 -0.12 0.02 1883
0.96 -0.04 0.42 -1.37 10.09 0.26 -0.13 0.02 1889
0.95 -0.04 0.39 -1.22 10.28 0.30 -0.13 0.01 1895
1.01 -0.04 0.39 -1.48 10.42 0.35 -0.13 0.02 1901
1.06 -0.05 0.42 -1.54 10.48 0.42 -0.14 0.02 1908
1.05 -0.05 0.40 -1.39 10.48 0.49 -0.15 0.01 1914
1.07 -0.04 0.49 -1.51 10.35 0.55 -0.14 0.01 1921
1.11 -0.05 0.30 -1.59 10.52 0.61 -0.13 0.00 1927
1.13 -0.06 0.42 -1.60 10.54 0.66 -0.12 -0.00 1933
1.15 -0.04 0.41 -1.55 10.56 0.71 -0.11 -0.01 1940
1.19 -0.06 0.42 -1.74 10.89 0.75 -0.10 -0.01 1946
1.21 -0.06 0.40 -1.23 10.59 0.80 -0.09 -0.00 1952
1.22 -0.05 0.42 -1.91 10.74 0.85 -0.07 -0.01 1958
1.22 -0.05 0.38 -1.87 10.89 0.89 -0.05 -0.01 1966
1.22 -0.06 0.32 -2.01 10.90 0.94 -0.04 -0.01 1972
1.22 -0.05 0.24 -2.10 10.90 1.02 -0.04 -0.02 1978
1.21 -0.05 0.55 -2.18 10.67 1.06 -0.03 -0.03 1984
1.21 -0.05 0.40 -2.26 11.06 1.14 -0.04 -0.04 1990
1.22 -0.05 0.34 -2.35 11.17 1.22 -0.04 -0.05 1997
1.20 -0.05 0.30 -2.48 11.33 1.28 -0.04 -0.05 2003
1.20 -0.05 0.42 -2.72 11.37 1.34 -0.03 -0.06 2010
1.22 -0.05 0.50 -2.75 11.26 1.43 -0.03 -0.06 2016
1.12 -0.06 0.67 -2.60 11.10 1.50 -0.02 -0.07 2022
1.08 -0.04 0.52 -2.99 11.82 1.58 -0.00 -0.10 2029
1.03 -0.05 0.81 -3.09 12.43 1.68 -0.02 -0.13 2035
0.99 -0.04 0.92 -3.01 11.76 1.84 -0.02 -0.16 2041
0.93 -0.03 0.45 -3.33 11.92 1.96 -0.02 -0.18 2048
0.92 -0.04 0.63 -3.44 12.30 2.11 -0.01 -0.19 2054
0.87 -0.04 0.68 -3.50 12.90 2.30 -0.01 -0.20 2061
0.78 -0.04 1.50 -3.95 13.21 2.52 0.02 -0.21 2067
0.72 -0.03 1.67 -3.87 14.08 2.77 0.04 -0.24 2073
0.66 -0.03 0.93 -4.32 15.77 3.06 0.03 -0.26 2079
0.54 -0.03 1.84 -4.75 16.79 3.39 0.02 -0.30 2086
0.56 -0.05 1.45 -5.49 17.44 3.72 -0.03 -0.36 2093
0.49 -0.02 1.65 -5.79 18.24 4.01 -0.10 -0.40 2099
0.53 -0.03 1.57 -5.83 17.78 4.17 -0.19 -0.45 2105
0.47 -0.03 1.84 -6.54 17.36 4.25 -0.21 -0.49 2111
0.42 -0.02 1.57 -6.87 18.25 4.27 -0.16 -0.52 2118
0.39 -0.02 0.89 -7.55 18.70 4.28 -0.19 -0.53 2124
0.35 -0.02 1.01 -7.70 18.61 4.28 -0.23 -0.52 2130
0.33 -0.02 1.98 -7.42 19.07 4.28 -0.22 -0.53 2137
0.30 -0.03 1.81 -6.93 19.60 4.28 -0.19 -0.57 2144
0.30 -0.02 1.13 -6.65 19.44 4.27 -0.26 -0.61 2150
0.23 -0.01 0.58 -6.04 18.17 4.25 -0.42 -0.64 2156
0.20 -0.02 1.39 -4.84 17.60 4.22 -0.62 -0.66 2162
0.21 -0.01 1.93 -4.16 16.60 4.19 -0.73 -0.67 2168
0.15 -0.01 2.70 -3.02 15.62 4.16 -0.78 -0.70 2176
0.14 -0.01 3.12 -1.26 14.39 4.15 -0.81 -0.72 2182
0.15 -0.00 3.44 -0.66 13.23 4.17 -0.85 -0.75 2188
0.14 -0.01 3.21 0.18 14.47 4.25 -0.89 -0.79 2194
0.10 -0.01 2.82 1.07 14.59 4.28 -0.90 -0.86 2200
0.09 0.00 3.39 1.99 13.30 4.28 -0.75 -0.91 2207
0.10 -0.01 5.06 5.83 7.89 4.28 -0.43 -0.96 2213
0.08 -0.01 6.34 6.27 6.81 4.28 -0.06 -1.18 2220
0.08 -0.01 5.98 11.86 1.45 4.28 0.26 -1.60 2226
0.09 -0.01 7.60 13.74 4.04 3.37 0.76 -2.08 2232
0.09 -0.01 4.90 13.39 16.96 1.51 1.39 -2.26 2238
0.09 -0.01 3.86 8.28 22.76 0.16 2.12 -2.22 2244
0.10 -0.01 1.59 8.98 19.59 -1.12 2.20 -2.11 2251
0.09 -0.01 -2.09 10.87 16.07 -2.19 1.72 -1.93 2257
0.09 -0.01 -2.85 9.73 13.12 -3.01 1.03 -1.52 2264
0.11 -0.01 -1.12 6.81 11.29 -3.59 0.29 -1.13 2270
0.10 -0.01 0.46 4.74 9.56 -3.94 -0.31 -0.89 2276
0.09 -0.01 1.67 3.29 7.91 -4.07 -0.61 -0.70 2282
0.10 -0.01 2.83 2.17 6.53 -4.09 -0.64 -0.54 2289
0.09 -0.01 3.80 1.45 5.33 -4.05 -0.53 -0.42 2295
0.09 -0.01 4.30 1.19 4.44 -3.95 -0.32 -0.34 2301
0.08 -0.01 4.63 1.05 4.15 -3.82 -0.06 -0.29 2308
0.10 -0.01 4.55 1.01 4.42 -3.69 0.31 -0.24 2314
0.08 -0.01 4.10 1.12 5.20 -3.57 0.67 -0.20 2320
0.08 -0.01 3.46 1.18 6.22 -3.49 0.96 -0.16 2326
0.07 -0.01 2.76 1.40 7.50 -3.47 1.14 -0.12 2332
0.09 -0.01 2.08 1.48 8.93 -3.51 1.26 -0.07 2339
0.08 -0.01 1.64 1.45 10.31 -3.63 1.28 0.00 2345
0.06 -0.01 1.25 1.31 11.45 -3.79 1.28 0.10 2352
0.07 -0.01 1.13 0.81 12.07 -3.98 1.22 0.15 2358
0.07 -0.01 1.06 0.23 12.53 -4.13 1.12 0.23 2364
0.06 -0.01 1.31 -0.43 12.83 -4.22 1.02 0.30 2370
0.07 -0.00 1.56 -1.13 12.99 -4.26 0.97 0.37 2377
0.08 -0.01 1.78 -1.92 12.99 -4.28 0.98 0.42 2383
0.07 -0.01 1.96 -2.75 12.94 -4.28 1.06 0.46 2390
0.08 -0.00 1.99 -3.68 12.86 -4.28 1.19 0.48 2396
0.07 -0.01 2.02 -4.85 13.01 -4.27 1.34 0.48 2402
0.08 -0.01 1.71 -5.72 13.65 -4.23 1.43 0.49 2408
0.08 -0.00 1.34 -6.24 14.07 -4.17 1.52 0.50 2415
0.09 -0.01 1.11 -6.50 14.59 -4.08 1.56 0.51 2421
0.08 -0.01 0.98 -6.80 15.19 -3.95 1.58 0.55 2427
0.07 -0.01 0.82 -7.13 15.61 -3.82 1.58 0.59 2434
0.07 -0.01 0.77 -7.55 16.10 -3.70 1.59 0.65 2440
0.07 -0.01 0.57 -7.97 16.58 -3.58 1.59 0.72 2446
0.06 -0.01 0.25 -8.29 16.96 -3.45 1.58 0.79 2453
0.08 -0.01 -0.10 -8.64 17.32 -3.34 1.54 0.87 2459
0.07 -0.01 -0.39 -8.89 17.52 -3.22 1.51 0.96 2465
0.06 -0.01 -0.03 -9.18 17.72 -3.11 1.44 1.05 2471
0.07 -0.01 -0.93 -9.42 17.83 -3.01 1.41 1.14 2478
0.07 -0.01 -1.25 -9.53 17.88 -2.92 1.32 1.21 2484
0.06 -0.01 -1.55 -9.81 17.74 -2.85 1.19 1.28 2491
0.07 -0.01 -1.75 -9.98 17.51 -2.77 1.03 1.34 2497
0.08 -0.01 -1.63 -10.21 17.11 -2.70 0.85 1.36 2503
0.06 -0.01 -1.28 -10.59 16.68 -2.62 0.67 1.36 2509
0.08 -0.01 -0.85 -11.17 16.41 -2.54 0.51 1.34 2515
0.08 -0.01 -0.41 -11.99 16.00 -2.44 0.39 1.31 2523
0.07 -0.01 -0.07 -12.77 15.43 -2.33 0.31 1.27 2529
0.08 -0.01 0.05 -13.41 14.69 -2.21 0.28 1.24 2535
0.07 -0.01 0.43 -14.02 13.80 -2.10 0.31 1.20 2541
0.06 -0.01 0.46 -14.58 13.36 -1.94 0.34 1.18 2548
0.08 -0.01 0.29 -15.03 13.32 -1.86 0.40 1.15 2554
0.07 -0.01 0.07 -15.43 13.31 -1.80 0.46 1.13 2561
0.07 0.00 -0.06 -15.44 12.36 -1.82 0.54 1.12 2567
0.07 -0.00 -0.45 -15.14 10.69 -1.86 0.71 1.16 2573
0.07 -0.01 -1.28 -15.50 9.23 -1.87 1.02 1.33 2580
0.08 -0.01 -2.89 -15.80 7.94 -1.81 1.29 1.58 2586
0.07 -0.00 -5.09 -16.53 7.36 -1.68 1.53 1.86 2592
0.07 -0.01 -7.50 -17.95 6.97 -1.51 1.53 2.08 2598
0.09 -0.01 -9.20 -19.27 6.56 -1.32 1.08 2.17 2605
0.08 -0.01 -9.68 -19.88 5.52 -1.10 0.33 2.19 2612
0.08 -0.01 -8.53 -20.29 4.24 -0.83 -0.35 2.12 2618
0.09 -0.00 -7.00 -20.53 3.26 -0.51 -0.76 1.99 2624
0.08 -0.01 -5.59 -20.44 2.92 -0.16 -0.92 1.78 2630
0.08 -0.01 -3.37 -22.09 2.69 0.18 -0.92 1.47 2636
0.10 -0.01 0.33 -31.39 14.60 1.49 -0.06 0.72 2642
0.08 -0.00 -5.03 -19.58 -3.94 2.01 0.32 0.26 2650
0.08 -0.00 -6.87 -10.90 3.59 2.40 -0.03 -0.15 2656
0.09 -0.01 -4.96 -2.18 11.65 2.50 -0.70 -0.54 2662
0.08 0.01 -1.90 7.49 15.97 2.38 -1.08 -0.82 2668
0.06 0.05 1.48 5.84 15.25 1.96 -1.23 -0.92 2674
0.07 0.12 4.55 5.50 13.64 1.63 -1.03 -0.85 2681
0.06 0.14 3.74 1.82 9.25 1.40 -0.65 -0.69 2688
0.06 0.21 3.15 -2.60 8.08 1.64 -0.52 -0.57 2694
0.08 0.30 3.49 -2.77 8.29 2.16 -0.50 -0.42 2700
0.06 0.31 3.94 -3.27 11.61 2.66 -0.41 -0.24 2706
0.05 0.39 3.14 -3.03 16.98 2.91 -0.17 -0.03 2713
0.06 0.45 0.68 -3.24 21.20 2.82 -0.08 0.06 2719
0.05 0.57 0.16 -2.32 19.48 2.45 -0.11 0.01 2725
0.05 0.63 0.17 -2.02 15.64 2.17 -0.19 -0.04 2732
0.07 0.65 0.30 -2.30 16.53 2.09 -0.50 -0.12 2738
0.06 0.67 1.21 -2.14 16.57 1.64 -0.84 -0.18 2745
0.07 0.75 2.41 -2.38 14.39 1.08 -0.81 -0.01 2751
0.06 0.76 0.98 -2.17 11.88 0.56 -0.46 0.20 2757
0.07 0.78 -0.03 -1.42 11.08 0.39 -0.38 0.22 2763
0.09 0.79 -0.42 -0.80 10.77 0.28 -0.28 0.17 2770
0.06 0.83 0.50 -0.45 10.14 0.13 -0.14 0.12 2777
0.07 0.82 0.60 -1.40 9.96 0.08 -0.07 0.14 2783
0.08 0.86 1.20 -1.02 10.00 0.08 -0.07 0.19 2789
0.07 0.86 0.49 -1.13 10.16 0.07 -0.04 0.17 2795
0.07 0.89 0.40 -1.12 10.09 0.03 0.00 0.16 2801
0.09 0.91 0.52 -1.08 9.96 0.01 0.04 0.16 2808
0.07 0.93 0.53 -1.07 10.02 -0.00 0.05 0.14 2814
0.05 0.96 0.54 -1.04 10.03 -0.00 0.06 0.15 2821
0.05 0.98 0.50 -0.99 9.86 -0.01 0.08 0.15 2827
0.06 0.98 0.69 -1.07 9.88 -0.01 0.07 0.15 2833
0.07 0.98 0.64 -1.04 9.99 -0.02 0.08 0.14 2839
0.07 1.02 0.69 -1.07 9.99 -0.03 0.09 0.15 2846
0.07 1.03 0.60 -1.04 9.98 -0.03 0.09 0.14 2852
0.05 1.03 0.68 -1.03 9.98 -0.04 0.11 0.14 2859
0.04 1.05 0.67 -1.02 9.99 -0.05 0.11 0.14 2865
0.06 1.07 0.72 -1.02 9.97 -0.05 0.11 0.14 2871
0.04 1.07 0.72 -1.02 9.89 -0.05 0.11 0.14 2877
0.02 1.08 0.72 -1.00 9.85 -0.04 0.10 0.13 2883
0.04 1.09 0.72 -0.98 9.89 -0.03 0.09 0.12 2890
0.04 1.10 0.69 -0.99 9.92 -0.02 0.08 0.12 2896
0.04 1.09 0.72 -1.01 9.96 -0.02 0.08 0.12 2903
0.02 1.10 0.71 -0.99 9.92 -0.02 0.09 0.12 2909
0.04 1.10 0.76 -0.97 9.87 -0.02 0.08 0.11 2915
0.04 1.09 0.80 -1.00 9.85 -0.02 0.07 0.11 2921
0.02 1.07 0.83 -1.01 9.87 -0.01 0.05 0.10 2927
0.04 1.07 0.85 -0.95 9.83 -0.01 0.03 0.10 2934
0.04 1.05 0.77 -1.00 9.80 0.00 0.01 0.09 2940
0.04 1.03 0.82 -1.03 9.89 0.01 -0.01 0.09 2947
0.03 1.02 0.86 -0.99 9.89 0.01 -0.02 0.08 2953
0.05 1.01 0.82 -1.00 9.87 0.02 -0.02 0.08 2959
0.04 1.00 0.76 -1.02 9.89 0.02 -0.03 0.09 2965
0.04 0.98 0.74 -1.04 9.92 0.02 -0.03 0.08 2971
0.03 0.97 0.73 -1.00 9.93 0.02 -0.01 0.08 2977
0.05 0.97 0.75 -1.01 9.95 0.02 -0.00 0.08 2984
0.04 0.96 0.75 -1.04 9.92 0.02 0.01 0.08 2991
0.03 0.94 0.80 -1.04 9.90 0.01 0.02 0.08 2997
0.03 0.93 0.77 -1.02 9.87 0.01 0.03 0.08 3003
0.04 0.91 0.81 -1.04 9.87 0.02 0.02 0.09 3009
0.04 0.90 0.82 -1.03 9.84 0.02 0.02 0.09 3015
0.03 0.89 0.79 -1.04 9.87 0.03 0.02 0.08 3021
0.04 0.88 0.82 -1.05 9.81 0.03 0.01 0.09 3027
0.03 0.85 0.87 -1.04 9.89 0.04 0.01 0.08 3035
0.04 0.84 0.88 -1.04 9.82 0.05 -0.00 0.09 3041
0.04 0.82 0.81 -1.06 9.85 0.05 0.01 0.08 3047
0.06 0.79 0.82 -1.06 9.88 0.05 0.02 0.08 3053
0.04 0.79 0.95 -1.13 9.82 0.05 0.02 0.10 3059
0.04 0.76 0.74 -1.06 9.93 0.05 0.02 0.10 3065
0.05 0.76 0.82 -1.09 9.93 0.05 0.03 0.08 3072
0.05 0.74 0.84 -1.08 9.92 0.04 0.04 0.08 3078
0.05 0.71 0.84 -1.10 9.92 0.03 0.04 0.08 3085
0.05 0.71 0.88 -1.08 9.94 0.03 0.04 0.10 3091
0.07 0.68 0.83 -1.11 9.93 0.02 0.06 0.09 3097
0.05 0.65 0.84 -1.05 9.92 0.02 0.07 0.08 3103
0.05 0.66 1.00 -1.07 9.84 0.02 0.06 0.08 3109
0.06 0.64 0.83 -1.09 9.85 0.03 0.06 0.09 3116
0.06 0.62 0.93 -1.04 9.82 0.03 0.06 0.08 3122
0.06 0.58 0.94 -1.08 9.88 0.03 0.06 0.08 3128
0.05 0.58 1.15 -1.13 9.84 0.04 0.04 0.09 3135
0.07 0.58 0.93 -1.10 9.92 0.04 0.05 0.08 3141
0.06 0.56 0.90 -1.11 9.88 0.03 0.05 0.07 3147
0.04 0.57 0.94 -1.12 9.82 0.04 0.04 0.07 3153
0.05 0.58 1.67 -1.15 9.81 0.04 0.00 0.08 3160
0.06 0.56 0.90 -1.14 9.83 0.04 0.02 0.07 3166
0.06 0.52 1.03 -1.12 9.87 0.04 -0.00 0.06 3172
0.05 0.50 1.00 -1.12 9.85 0.06 -0.02 0.05 3179
0.06 0.52 0.97 -1.11 9.86 0.06 -0.05 0.06 3185
0.06 0.52 0.64 -1.07 9.97 0.07 -0.08 0.07 3191
0.05 0.49 0.99 -1.18 9.81 0.07 -0.07 0.05 3197
0.06 0.49 0.98 -1.05 9.82 0.07 -0.10 0.05 3204
0.05 0.47 0.97 -1.10 9.84 0.08 -0.12 0.05 3210
0.05 0.43 0.96 -1.13 9.83 0.08 -0.14 0.06 3216
0.07 0.41 0.96 -1.11 9.83 0.09 -0.15 0.04 3223
0.09 0.41 0.90 -1.15 9.81 0.09 -0.16 0.05 3229
0.09 0.39 1.67 -1.29 10.01 0.09 -0.16 0.08 3235
0.07 0.40 0.82 -1.24 10.01 0.09 -0.12 0.08 3241
0.09 0.40 0.84 -1.22 9.94 0.08 -0.10 0.08 3248
0.08 0.34 0.87 -1.18 9.90 0.08 -0.08 0.08 3254
0.09 0.26 0.83 -1.21 9.89 0.09 -0.07 0.08 3261
0.09 0.28 0.89 -1.21 9.86 0.08 -0.06 0.08 3267
0.10 0.20 0.89 -1.26 9.90 0.08 -0.05 0.08 3273
0.11 0.19 0.92 -1.23 9.84 0.08 -0.05 0.07 3279
0.11 0.14 0.84 -1.23 9.94 0.08 -0.05 0.08 3286
0.12 0.11 0.93 -1.28 9.92 0.07 -0.05 0.06 3292
0.12 0.09 0.97 -1.32 10.00 0.07 -0.05 0.06 3298
0.12 0.06 0.93 -1.30 9.99 0.07 -0.05 0.06 3305
0.12 0.04 0.99 -1.32 9.93 0.08 -0.07 0.06 3311
0.13 0.01 0.86 -1.32 9.96 0.08 -0.08 0.05 3317
0.12 -0.01 0.92 -1.32 9.90 0.09 -0.11 0.04 3323
0.15 -0.00 0.93 -1.28 9.97 0.09 -0.13 0.04 3330
0.17 -0.02 0.93 -0.89 10.05 0.09 -0.14 0.03 3336
0.17 -0.02 0.97 -1.40 10.04 0.10 -0.13 0.02 3342
0.20 -0.02 0.82 -1.28 10.05 0.12 -0.10 0.01 3349
0.22 -0.02 1.13 -0.93 9.92 0.13 -0.05 -0.00 3355
0.22 -0.02 1.43 -1.49 9.96 0.16 -0.00 -0.01 3361
0.23 -0.02 0.99 -1.21 10.15 0.22 0.03 -0.02 3367
0.27 -0.02 0.84 -1.11 10.43 0.32 0.08 -0.04 3374
0.27 -0.02 1.04 -1.39 10.84 0.47 0.10 -0.06 3380
0.34 -0.03 0.91 -1.47 10.97 0.67 0.15 -0.07 3387
0.35 -0.02 0.68 -1.59 12.38 0.87 0.20 -0.07 3393
0.38 -0.03 0.68 -1.57 12.19 1.05 0.32 -0.06 3399
0.35 -0.03 0.60 -1.74 12.09 1.25 0.36 -0.06 3405
0.38 -0.02 0.96 -1.86 12.15 1.38 0.35 -0.06 3412
0.44 -0.03 1.06 -2.00 12.03 1.54 0.32 -0.06 3419
0.36 -0.02 0.99 -2.01 12.04 1.68 0.29 -0.07 3425
0.39 -0.03 1.06 -1.90 11.71 1.81 0.27 -0.08 3431
0.39 -0.03 0.98 -2.34 12.26 1.92 0.24 -0.07 3437
0.38 -0.02 1.16 -2.31 11.97 2.04 0.21 -0.07 3444
0.38 -0.02 0.81 -2.36 13.05 2.19 0.19 -0.06 3450
0.38 -0.04 1.31 -2.83 13.21 2.38 0.22 -0.04 3457
0.36 -0.02 1.15 -2.89 13.48 2.60 0.22 -0.05 3463
0.38 -0.02 1.61 -3.08 13.26 2.80 0.28 -0.06 3469
0.32 -0.02 1.91 -3.30 13.72 3.01 0.36 -0.08 3476
0.30 -0.01 1.60 -3.09 14.64 3.24 0.44 -0.09 3482
0.33 -0.02 1.84 -3.72 15.38 3.48 0.52 -0.12 3488
0.28 -0.02 2.44 -6.48 15.35 3.72 0.49 -0.16 3494
0.27 -0.01 2.64 -4.40 16.30 4.02 0.49 -0.22 3501
0.27 -0.02 2.40 -5.57 16.85 4.19 0.47 -0.26 3508
0.26 -0.02 2.36 -6.17 18.90 4.26 0.46 -0.29 3514
0.27 -0.03 2.87 -7.59 19.69 4.28 0.45 -0.31 3520
0.27 -0.03 2.43 -7.70 19.63 4.28 0.42 -0.34 3526
0.26 -0.02 2.85 -8.03 19.66 4.28 0.36 -0.35 3532
0.28 -0.02 1.71 -7.79 20.55 4.28 0.25 -0.38 3539
0.24 -0.02 0.49 -7.50 20.61 4.28 0.08 -0.39 3546
0.24 -0.01 1.69 -7.03 19.79 4.28 -0.13 -0.37 3552
0.22 -0.02 3.25 -6.49 19.35 4.28 -0.15 -0.36 3558
0.17 -0.02 4.10 -5.68 18.65 4.26 -0.04 -0.36 3564
0.17 -0.01 3.89 -4.21 17.95 4.25 0.12 -0.39 3571
0.18 -0.02 3.15 -2.82 16.58 4.23 0.16 -0.42 3577
0.16 -0.02 2.49 -1.71 16.14 4.22 0.09 -0.48 3584
0.16 -0.01 2.44 -0.58 15.96 4.25 -0.02 -0.52 3590
0.12 -0.01 2.58 -0.03 18.89 4.28 -0.12 -0.56 3596
0.09 -0.01 2.95 1.47 18.31 4.28 -0.08 -0.58 3603
0.09 -0.01 2.84 2.56 16.74 4.28 0.10 -0.59 3609
0.09 -0.01 1.51 6.13 10.99 4.28 0.47 -0.61 3615
0.05 -0.01 3.66 9.52 7.81 4.28 0.61 -0.77 3621
0.06 -0.01 2.86 16.32 2.12 4.28 0.34 -1.11 3628
0.06 -0.01 1.87 22.20 0.69 2.92 -0.05 -1.76 3634
0.05 -0.01 2.18 17.52 17.21 0.57 -0.07 -2.04 3641
0.05 -0.01 3.86 9.49 25.76 -0.97 0.37 -1.96 3647
0.06 -0.01 2.46 9.27 21.28 -2.06 0.77 -1.97 3653
0.05 -0.01 0.39 11.28 15.31 -2.83 0.77 -2.03 3659
0.03 -0.00 -0.54 10.10 11.50 -3.31 0.57 -1.99 3665
0.05 -0.00 -0.37 6.89 9.97 -3.55 0.44 -1.89 3672
0.04 -0.00 0.11 4.35 9.22 -3.66 0.34 -1.80 3678
0.05 -0.00 0.55 3.60 8.06 -3.65 0.26 -1.71 3685
0.03 -0.00 0.27 3.40 6.82 -3.64 0.10 -1.70 3691
0.05 -0.01 0.31 3.20 6.95 -3.64 -0.04 -1.63 3697
0.06 -0.01 0.64 2.98 6.90 -3.67 -0.15 -1.54 3703
0.06 -0.01 0.98 2.84 7.21 -3.72 -0.23 -1.43 3709
0.07 -0.01 1.20 2.77 7.66 -3.78 -0.28 -1.34 3716
0.07 -0.01 1.44 2.74 8.15 -3.87 -0.35 -1.23 3722
0.05 -0.01 1.87 2.70 8.61 -3.96 -0.40 -1.13 3728
0.05 -0.00 2.46 2.49 8.95 -4.04 -0.39 -1.03 3734
0.07 -0.01 3.07 2.01 9.21 -4.10 -0.31 -0.94 3741
0.07 -0.01 3.58 1.32 9.41 -4.14 -0.14 -0.86 3747
0.07 -0.01 3.79 0.79 9.60 -4.17 0.08 -0.78 3753
0.06 -0.01 3.78 0.40 9.90 -4.19 0.32 -0.70 3760
0.06 -0.01 3.56 0.18 10.02 -4.20 0.52 -0.63 3766
0.07 -0.01 3.19 -0.21 10.39 -4.21 0.72 -0.55 3772
0.06 -0.01 2.82 -0.78 10.72 -4.21 0.87 -0.46 3778
0.06 -0.01 2.61 -1.38 11.35 -4.21 0.99 -0.37 3785
0.08 -0.01 2.48 -1.98 12.29 -4.20 1.08 -0.29 3791
0.08 -0.01 2.33 -2.53 13.24 -4.18 1.15 -0.22 3798
0.07 -0.01 2.08 -3.11 14.10 -4.17 1.21 -0.15 3804
0.08 -0.01 1.95 -3.72 14.68 -4.16 1.27 -0.09 3810
0.07 -0.01 1.79 -4.39 15.29 -4.14 1.33 -0.03 3816
0.07 -0.01 1.68 -5.13 15.71 -4.11 1.37 0.04 3823
0.09 -0.00 1.58 -5.75 15.95 -4.07 1.41 0.12 3829
0.09 -0.01 1.38 -6.18 16.11 -3.99 1.45 0.20 3835
0.07 -0.01 1.04 -6.64 16.38 -3.86 1.47 0.31 3842
0.09 -0.01 0.72 -7.28 16.69 -3.71 1.48 0.43 3848
0.09 -0.01 0.52 -7.90 16.88 -3.52 1.49 0.55 3854
0.06 -0.01 0.29 -8.25 17.10 -3.34 1.49 0.67 3861
0.07 -0.00 0.06 -8.71 17.33 -3.16 1.48 0.79 3867
0.08 -0.01 -0.10 -9.12 17.74 -3.04 1.42 0.90 3873
0.06 -0.01 -0.29 -9.42 17.94 -2.90 1.30 1.01 3879
0.06 -0.00 -0.42 -9.73 17.93 -2.78 1.14 1.13 3886
0.07 -0.01 -0.36 -10.07 17.81 -2.67 0.95 1.25 3893
0.06 -0.01 -0.21 -10.55 17.30 -2.55 0.79 1.35 3899
0.07 -0.01 0.01 -11.26 16.72 -2.42 0.61 1.44 3905
0.07 -0.01 0.19 -11.92 16.21 -2.27 0.48 1.49 3911
0.06 -0.01 0.33 -13.46 15.82 -2.11 0.39 1.52 3917
0.08 -0.01 0.14 -13.60 15.40 -1.96 0.33 1.52 3924
0.08 -0.01 -0.11 -14.31 14.78 -1.81 0.27 1.49 3931
0.07 -0.01 -0.47 -14.94 14.65 -1.67 0.21 1.46 3937
0.08 -0.01 -1.10 -15.57 14.62 -1.56 0.13 1.43 3943
0.07 -0.01 -1.84 -16.24 13.99 -1.48 0.04 1.42 3949
0.09 -0.00 -2.30 -16.64 13.19 -1.44 -0.06 1.44 3956
0.09 -0.01 -2.51 -17.24 12.08 -1.43 -0.12 1.48 3962
0.07 -0.01 -2.19 -17.48 11.06 -1.45 -0.04 1.55 3969
0.09 -0.01 -1.68 -18.31 10.20 -1.49 0.26 1.62 3975
0.08 -0.01 -1.61 -19.48 9.54 -1.57 0.55 1.62 3982
0.08 -0.01 -1.99 -20.48 8.24 -1.63 0.72 1.56 3988
0.09 -0.01 -2.31 -21.21 6.17 -1.63 0.81 1.46 3994
0.09 -0.01 -2.77 -21.84 4.43 -1.55 0.87 1.35 4000
0.07 -0.01 -3.33 -22.25 3.02 -1.35 0.89 1.23 4006
0.09 -0.01 -4.00 -22.54 2.47 -1.06 0.83 1.09 4013
0.08 -0.01 -4.61 -22.40 2.43 -0.74 0.69 0.92 4020
0.07 -0.01 -4.89 -22.02 2.68 -0.41 0.47 0.75 4026
0.07 0.00 -4.53 -22.25 2.31 -0.10 0.19 0.53 4032
0.07 -0.01 -4.42 -34.08 19.40 1.19 0.18 0.25 4038
0.07 -0.01 -4.82 -19.52 -3.64 1.80 -0.19 0.04 4044
0.07 0.00 -3.96 -15.25 1.26 2.16 -0.68 -0.17 4051
0.07 -0.01 -0.63 -6.94 6.21 2.40 -1.08 -0.31 4058
0.06 0.01 2.65 6.65 12.84 2.46 -1.11 -0.35 4064
0.06 0.10 5.13 5.81 13.80 2.16 -0.99 -0.21 4070
0.04 0.15 5.93 5.56 13.59 1.95 -0.67 0.05 4076
0.04 0.32 2.86 0.57 10.10 1.78 -0.33 0.26 4083
0.05 0.38 0.97 -3.06 10.99 2.21 -0.20 0.37 4089
0.04 0.37 -2.56 -3.93 15.14 2.92 -0.27 0.33 4096
0.03 0.47 -3.48 -4.27 20.43 3.50 -0.31 0.09 4102
0.05 0.51 -1.06 -3.13 21.38 3.47 -0.35 -0.09 4108
0.04 0.59 -0.24 -4.10 24.21 3.02 -0.46 -0.19 4115
0.04 0.68 0.49 -2.69 20.78 1.88 -1.03 -0.31 4121
0.05 0.69 2.77 -3.15 14.15 0.76 -0.80 -0.04 4127
0.03 0.69 1.04 -2.44 10.46 0.42 -0.51 0.10 4133
0.04 0.72 0.38 -1.40 10.70 0.41 -0.51 0.15 4140
0.06 0.72 0.56 -0.47 11.04 0.30 -0.40 0.13 4147
0.05 0.71 0.08 -0.29 10.02 0.15 -0.20 0.12 4153
0.07 0.72 0.23 -0.27 9.79 0.13 -0.17 0.11 4159
0.06 0.72 1.02 -0.73 9.13 0.15 -0.18 0.12 4165
0.05 0.74 0.25 -1.38 9.92 0.13 -0.17 0.15 4171
0.06 0.75 0.26 -1.07 9.84 0.09 -0.12 0.15 4178
0.08 0.75 0.42 -1.14 9.90 0.07 -0.07 0.14 4185
0.08 0.74 0.54 -1.12 10.01 0.05 -0.09 0.16 4191
0.08 0.76 0.46 -1.08 9.89 0.04 -0.08 0.16 4197
0.09 0.77 0.44 -1.07 9.94 0.03 -0.06 0.15 4203
0.09 0.79 0.47 -1.02 9.92 0.02 -0.05 0.15 4209
0.08 0.82 0.51 -1.02 9.90 0.02 -0.05 0.15 4215
0.08 0.84 0.47 -1.00 9.88 0.02 -0.05 0.14 4222
0.08 0.85 0.51 -0.94 9.89 0.02 -0.05 0.14 4229
0.08 0.85 0.51 -0.99 9.90 0.02 -0.06 0.14 4235
0.09 0.87 0.49 -1.02 9.95 0.02 -0.06 0.14 4241
0.09 0.87 0.50 -1.08 9.98 0.02 -0.06 0.13 4247
0.09 0.85 0.42 -1.07 9.99 0.02 -0.05 0.13 4253
0.09 0.84 0.43 -1.04 9.91 0.02 -0.04 0.13 4259
0.09 0.84 0.40 -1.09 9.94 0.02 -0.02 0.14 4267
0.08 0.81 0.38 -1.08 9.93 0.03 -0.01 0.14 4273
0.08 0.80 0.43 -1.05 9.94 0.03 0.01 0.14 4279
0.09 0.79 0.48 -1.03 9.86 0.03 0.03 0.13 4285
0.10 0.78 0.49 -1.02 9.91 0.04 0.03 0.14 4291
0.08 0.76 0.51 -1.03 9.89 0.04 0.04 0.14 4297
0.08 0.73 0.54 -1.05 9.89 0.04 0.04 0.14 4303
0.09 0.72 0.57 -1.04 9.89 0.04 0.04 0.13 4310
0.09 0.68 0.55 -1.04 9.88 0.05 0.03 0.13 4317
0.09 0.65 0.57 -1.08 9.90 0.05 0.02 0.12 4323
0.10 0.61 0.73 -1.13 9.77 0.05 0.02 0.12 4329
0.12 0.56 0.57 -1.10 9.87 0.05 0.02 0.12 4335
0.11 0.54 0.53 -1.08 9.88 0.05 0.02 0.11 4341
0.10 0.51 0.51 -1.08 9.92 0.05 0.03 0.11 4347
0.12 0.48 0.45 -1.13 9.93 0.05 0.05 0.11 4354
0.12 0.44 0.57 -1.20 9.90 0.05 0.06 0.12 4361
0.11 0.42 0.58 -1.11 9.92 0.06 0.07 0.11 4367
0.13 0.40 0.56 -1.10 9.92 0.06 0.07 0.12 4373
0.14 0.36 0.61 -1.08 9.89 0.06 0.08 0.11 4379
0.13 0.35 0.61 -1.16 9.89 0.06 0.08 0.11 4385
0.13 0.31 0.63 -1.13 9.95 0.06 0.08 0.11 4391
0.14 0.27 0.67 -1.19 9.90 0.07 0.07 0.11 4398
0.13 0.21 0.66 -1.14 9.90 0.07 0.07 0.11 4405
0.11 0.17 0.67 -1.17 9.91 0.06 0.06 0.10 4411
0.13 0.17 0.66 -1.16 9.88 0.06 0.06 0.10 4417
0.15 0.14 0.73 -1.18 9.89 0.06 0.05 0.11 4423
0.15 0.12 0.69 -1.19 9.87 0.06 0.04 0.10 4429
0.14 0.11 0.71 -1.31 9.87 0.06 0.04 0.10 4435
0.16 0.11 0.73 -1.19 9.93 0.06 0.03 0.09 4443
0.14 0.08 0.69 -1.22 9.83 0.05 0.03 0.09 4449
0.14 0.08 0.73 -1.26 9.88 0.05 0.03 0.09 4455
0.15 0.06 0.77 -1.21 9.94 0.05 0.02 0.08 4461
0.16 0.06 0.71 -1.27 9.91 0.04 0.02 0.09 4467
0.16 0.02 0.73 -1.23 9.93 0.04 0.01 0.08 4473
0.16 0.08 0.75 -1.25 9.90 0.04 0.01 0.09 4480
0.18 0.04 0.69 -1.25 9.90 0.00 0.01 0.08 4486
0.18 0.05 0.72 -1.28 9.89 0.03 0.01 0.09 4493
0.17 0.01 0.69 -1.25 9.83 0.04 0.00 0.08 4499
0.18 0.03 0.69 -0.72 9.93 0.03 0.01 0.08 4505
0.18 0.02 0.77 -1.29 9.88 0.03 0.00 0.07 4511
0.17 -0.01 0.74 -1.34 9.92 0.03 0.00 0.08 4517
0.17 -0.00 0.76 -1.29 9.91 0.03 0.00 0.08 4524
0.18 -0.00 0.73 -1.27 9.84 0.03 -0.00 0.08 4530
0.19 -0.00 0.75 -1.33 9.95 0.02 -0.00 0.07 4536
0.20 -0.02 0.80 -1.29 9.83 0.02 -0.01 0.07 4543
0.21 -0.01 0.77 -1.31 9.86 0.02 -0.01 0.07 4549
0.23 -0.01 0.80 -1.28 9.88 0.02 -0.03 0.07 4555
0.21 -0.02 0.78 -1.33 9.82 0.02 -0.03 0.07 4561
0.22 -0.02 1.43 -2.14 10.14 0.02 -0.05 0.06 4568
0.21 -0.01 0.72 -1.32 9.86 0.02 -0.05 0.06 4574
0.22 -0.02 0.81 -1.25 10.02 0.03 -0.06 0.06 4580
0.22 -0.02 0.79 -1.34 9.85 0.03 -0.08 0.05 4586
0.24 -0.02 0.75 -1.32 9.93 0.03 -0.09 0.05 4593
0.24 -0.01 0.78 -1.35 9.97 0.03 -0.10 0.04 4599
0.27 -0.03 0.80 -1.30 10.01 0.03 -0.11 0.03 4605
0.28 -0.02 0.72 -1.27 9.95 0.04 -0.13 0.02 4612
0.30 -0.02 0.79 -1.32 9.97 0.05 -0.14 0.02 4618
0.33 -0.02 0.87 -1.34 9.92 0.07 -0.14 0.01 4624
0.34 -0.03 0.70 -1.22 9.92 0.07 -0.13 -0.01 4630
0.35 -0.02 0.73 -1.36 9.99 0.08 -0.12 -0.01 4637
0.37 -0.03 0.65 -1.43 10.04 0.10 -0.11 -0.02 4643
0.39 -0.03 0.89 -1.44 10.09 0.13 -0.10 -0.02 4649
0.46 -0.03 0.75 -2.07 10.03 0.16 -0.09 -0.04 4656
0.53 -0.03 0.95 -0.83 10.24 0.20 -0.09 -0.05 4662
0.58 -0.04 0.85 -1.31 10.42 0.27 -0.09 -0.06 4669
0.63 -0.03 0.84 -1.47 10.56 0.36 -0.12 -0.06 4675
0.68 -0.04 0.86 -1.63 10.78 0.49 -0.17 -0.08 4681
0.72 -0.04 0.57 -1.46 11.31 0.64 -0.21 -0.10 4687
0.76 -0.03 0.60 -1.68 11.18 0.78 -0.23 -0.10 4695
0.82 -0.04 0.73 -1.86 11.26 0.89 -0.23 -0.09 4701
0.88 -0.04 0.65 -1.75 11.55 1.00 -0.20 -0.09 4707
0.91 -0.04 0.43 -1.84 11.57 1.05 -0.18 -0.07 4713
0.95 -0.04 0.71 -1.74 11.12 1.12 -0.18 -0.07 4719
1.01 -0.05 0.57 -1.92 11.56 1.21 -0.19 -0.07 4726
1.04 -0.05 0.55 -1.88 11.59 1.29 -0.18 -0.07 4732
1.05 -0.06 0.68 -2.06 11.40 1.38 -0.19 -0.07 4739
1.07 -0.03 0.57 -2.13 11.55 1.49 -0.20 -0.07 4745
1.11 -0.05 0.61 -2.13 11.25 1.61 -0.21 -0.08 4752
1.12 -0.04 0.42 -2.55 11.34 1.68 -0.22 -0.08 4758
1.11 -0.04 0.55 -2.48 12.03 1.75 -0.19 -0.08 4764
1.11 -0.06 0.74 -2.57 11.25 1.82 -0.14 -0.08 4770
1.08 -0.05 0.73 -2.85 12.55 1.88 -0.11 -0.08 4776
1.06 -0.05 0.99 -3.16 12.09 1.99 -0.07 -0.11 4784
0.98 -0.05 0.82 -3.16 12.25 2.10 -0.11 -0.14 4790
0.88 -0.03 0.86 -3.31 12.75 2.23 -0.12 -0.16 4796
0.91 -0.05 0.49 -3.44 12.60 2.41 -0.10 -0.16 4802
0.81 -0.05 0.69 -3.64 13.37 2.63 -0.07 -0.16 4809
0.72 -0.04 0.77 -3.95 14.00 2.90 -0.05 -0.16 4815
0.72 -0.04 0.66 -3.86 14.65 3.17 -0.02 -0.18 4822
0.63 -0.03 0.49 -4.70 16.30 3.47 -0.01 -0.20 4828
0.54 -0.03 1.69 -5.44 17.75 3.84 -0.02 -0.23 4834
0.51 -0.05 1.88 -6.13 17.51 4.10 -0.06 -0.29 4841
0.47 -0.03 2.21 -6.58 18.10 4.22 -0.11 -0.34 4847
0.46 -0.03 3.17 -7.64 19.03 4.27 -0.14 -0.40 4853
0.39 -0.02 2.39 -7.76 19.44 4.28 -0.10 -0.44 4859
0.35 -0.01 2.55 -8.58 19.64 4.28 -0.07 -0.48 4867
0.34 -0.02 2.07 -8.05 20.19 4.28 -0.13 -0.51 4873
0.27 -0.02 3.48 -7.78 19.87 4.28 -0.06 -0.54 4879
0.27 -0.02 2.85 -7.65 19.88 4.28 0.11 -0.57 4885
0.23 -0.02 1.95 -6.76 19.63 4.25 0.15 -0.61 4891
0.17 -0.01 2.15 -5.77 18.41 4.22 0.14 -0.65 4898
0.19 -0.02 2.55 -4.61 17.41 4.18 0.17 -0.69 4904
0.15 -0.01 3.42 -3.10 16.63 4.16 0.18 -0.73 4911
0.13 -0.01 4.01 -1.29 15.77 4.15 0.29 -0.77 4917
0.14 -0.01 4.29 -0.81 14.85 4.17 0.45 -0.85 4923
0.11 -0.01 4.30 0.15 15.76 4.24 0.61 -0.96 4929
0.10 -0.01 3.36 1.09 16.91 4.28 0.80 -1.10 4936
0.10 -0.01 3.02 2.51 16.77 4.28 0.97 -1.26 4942
0.08 -0.01 2.22 5.33 14.31 4.28 1.09 -1.46 4948
0.07 -0.01 1.26 11.81 10.96 4.28 1.20 -1.85 4955
0.08 -0.01 1.99 10.13 7.85 4.17 0.95 -2.28 4961
0.07 -0.01 0.37 13.54 5.96 2.49 0.64 -2.47 4968
0.06 -0.01 0.27 16.08 16.27 0.69 0.52 -2.46 4974
0.08 -0.01 1.14 9.51 19.37 -0.69 0.46 -2.28 4980
0.07 -0.01 0.93 6.86 17.09 -1.57 0.19 -2.09 4986
0.07 -0.01 0.33 7.16 13.44 -2.15 -0.09 -1.91 4993
0.08 0.00 0.64 6.63 10.08 -2.51 -0.33 -1.66 4999
0.07 -0.01 2.09 5.42 8.28 -2.75 -0.50 -1.44 5006
0.07 -0.01 3.09 4.43 6.72 -2.89 -0.60 -1.29 5012
0.07 -0.01 3.35 3.69 5.88 -2.96 -0.57 -1.15 5018
0.09 -0.01 3.59 3.25 5.41 -2.99 -0.42 -1.00 5024
0.07 -0.01 3.79 3.01 5.30 -2.99 -0.24 -0.85 5030
0.06 -0.01 3.80 2.78 5.33 -2.98 -0.13 -0.73 5037
0.07 0.00 3.47 2.86 5.40 -2.98 -0.00 -0.58 5043
0.08 -0.01 2.92 2.88 5.95 -2.99 0.06 -0.42 5049
0.08 -0.01 2.75 2.82 6.74 -3.03 0.05 -0.24 5055
0.06 -0.01 2.78 2.77 7.42 -3.09 -0.02 -0.06 5062
0.06 -0.00 2.98 2.74 8.03 -3.18 -0.10 0.11 5068
0.06 -0.01 3.22 2.51 8.46 -3.29 -0.13 0.29 5074
0.06 -0.01 3.71 2.20 9.01 -3.44 -0.10 0.45 5081
0.05 -0.00 4.12 1.69 9.43 -3.59 -0.00 0.55 5087
0.07 -0.00 4.21 1.10 9.84 -3.75 0.14 0.66 5093
0.06 -0.01 4.12 0.59 10.16 -3.90 0.31 0.74 5099
0.07 -0.01 3.73 0.06 10.41 -4.04 0.46 0.80 5105
0.07 -0.01 3.43 -0.51 10.64 -4.10 0.59 0.83 5112
0.08 -0.01 3.07 -1.31 11.06 -4.15 0.67 0.84 5118
0.07 -0.01 2.91 -2.09 11.58 -4.19 0.76 0.83 5125
0.07 -0.01 2.69 -2.77 12.09 -4.20 0.83 0.81 5131
0.07 -0.01 2.44 -3.65 12.51 -4.20 0.90 0.77 5137
0.06 -0.01 2.29 -4.57 12.94 -4.20 0.95 0.73 5143
0.05 -0.01 2.18 -5.41 13.49 -4.19 0.98 0.69 5150
0.07 0.00 2.24 -6.12 13.96 -4.16 0.99 0.66 5156
0.07 -0.01 2.35 -6.67 14.46 -4.13 0.99 0.63 5163
0.06 -0.01 2.65 -7.10 15.11 -4.09 1.00 0.62 5169
0.07 0.00 2.88 -7.52 15.77 -4.03 1.02 0.61 5175
0.07 -0.01 3.02 -8.02 16.22 -3.99 1.09 0.62 5181
0.06 -0.01 3.09 -8.44 16.61 -3.94 1.17 0.63 5188
0.07 0.00 3.02 -8.77 16.65 -3.87 1.18 0.67 5194
0.06 -0.01 2.86 -8.97 16.61 -3.78 1.20 0.71 5200
0.05 -0.01 2.75 -9.14 16.47 -3.65 1.20 0.77 5207
0.07 0.00 2.82 -9.27 16.46 -3.50 1.17 0.84 5213
0.07 -0.01 3.03 -9.34 16.44 -3.34 1.12 0.90 5220
0.06 -0.00 3.22 -9.27 16.45 -3.18 1.09 0.95 5226
0.07 0.00 3.55 -9.43 16.83 -3.02 1.08 0.98 5232
0.07 -0.01 3.77 -9.51 17.01 -2.87 1.10 1.00 5238
0.06 -0.01 3.66 -9.57 17.22 -2.76 1.15 1.01 5244
0.06 -0.00 3.30 -9.58 17.30 -2.61 1.19 1.04 5251
0.07 -0.01 2.79 -9.61 17.35 -2.54 1.24 1.07 5258
0.06 -0.01 2.21 -9.82 17.34 -2.43 1.26 1.12 5264
0.06 -0.00 1.46 -10.01 17.01 -2.32 1.21 1.18 5270
0.06 -0.01 0.64 -10.09 16.46 -2.19 1.18 1.25 5276
0.05 -0.01 0.00 -10.45 15.92 -2.05 1.08 1.31 5283
0.07 -0.01 -0.42 -10.87 15.48 -1.91 0.96 1.40 5289
0.07 -0.01 -0.59 -11.25 15.05 -1.76 0.85 1.42 5296
0.06 -0.01 -0.60 -11.80 14.79 -1.64 0.75 1.45 5302
0.07 -0.01 -0.61 -12.43 14.58 -1.54 0.68 1.45 5308
0.06 -0.01 -0.67 -13.02 14.32 -1.49 0.64 1.41 5315
0.06 -0.01 -0.86 -13.66 14.08 -1.50 0.60 1.33 5321
0.07 -0.01 -0.87 -14.29 13.63 -1.58 0.58 1.21 5327
0.06 -0.01 -0.63 -14.98 12.46 -1.71 0.59 1.03 5334
0.06 -0.01 -0.39 -15.84 10.98 -1.83 0.69 0.82 5340
0.06 -0.01 -0.38 -16.73 8.93 -1.89 0.87 0.61 5347
0.06 -0.01 -1.28 -17.02 5.81 -1.82 1.21 0.44 5353
0.07 -0.00 -3.67 -17.31 3.65 -1.61 1.86 0.42 5359
0.06 -0.01 -6.96 -20.00 3.56 -1.39 2.59 0.53 5365
0.05 -0.01 -10.50 -21.62 4.71 -1.10 2.63 0.55 5371
0.07 -0.01 -12.48 -21.71 5.20 -0.88 1.85 0.43 5379
0.06 -0.01 -12.97 -21.51 4.74 -0.69 0.93 0.27 5385
0.06 -0.01 -10.97 -20.82 3.84 -0.48 -0.03 0.12 5391
0.08 -0.01 -8.51 -20.20 3.43 -0.22 -0.65 -0.02 5397
0.06 -0.01 -5.87 -19.59 3.87 0.09 -0.99 -0.13 5403
0.05 -0.01 -3.12 -18.55 4.65 0.40 -1.13 -0.32 5410
0.07 -0.01 -9.05 -25.57 7.55 0.81 -1.44 -0.44 5416
0.06 -0.01 -3.43 -15.62 11.38 2.09 -2.49 -0.29 5423
0.05 -0.01 0.15 -0.43 4.34 2.18 -2.91 -0.44 5429
0.07 -0.01 4.55 3.92 13.19 2.19 -2.92 -0.40 5435
0.06 0.03 7.31 5.12 16.10 1.97 -2.37 -0.08 5441
0.06 0.09 7.64 6.50 12.31 1.66 -1.53 0.44 5448
0.07 0.13 5.75 3.80 7.97 1.39 -0.77 0.89 5454
0.06 0.19 4.27 0.26 7.36 1.59 -0.24 1.23 5460
0.05 0.30 1.06 -1.88 6.85 2.16 -0.04 1.40 5467
0.04 0.34 -2.28 -1.87 10.23 2.80 -0.05 1.40 5473
0.05 0.38 -5.53 -2.88 12.96 3.19 -0.21 1.23 5480
0.06 0.41 -7.23 -2.68 18.09 3.32 -0.40 0.94 5486
0.08 0.45 -6.76 -3.42 21.02 3.28 -0.46 0.48 5492
0.07 0.51 -3.93 -3.04 18.80 3.11 -0.34 0.06 5498
0.06 0.57 -1.22 -2.46 17.57 2.90 -0.42 -0.23 5506
0.07 0.62 0.79 -2.93 20.72 2.64 -0.89 -0.42 5512
0.05 0.65 3.88 -2.70 19.90 1.66 -1.42 -0.35 5518
0.05 0.67 2.22 -3.06 13.97 0.81 -0.94 0.11 5524
0.08 0.68 0.02 -1.81 11.29 0.44 -0.67 0.24 5530
0.08 0.70 -0.79 -0.98 11.16 0.32 -0.58 0.13 5537
0.10 0.72 -0.10 -0.21 10.38 0.15 -0.34 0.05 5543
0.10 0.73 1.09 -0.63 10.20 0.10 -0.27 0.10 5550
0.10 0.77 0.58 -1.34 10.16 0.05 -0.20 0.14 5556
0.11 0.80 0.20 -1.13 10.00 0.01 -0.16 0.10 5562
0.10 0.82 0.44 -1.13 10.01 -0.00 -0.15 0.10 5569
0.09 0.86 0.47 -1.13 10.12 -0.01 -0.14 0.09 5575
0.11 0.87 0.53 -1.09 10.07 -0.01 -0.14 0.10 5581
0.09 0.90 0.35 -1.06 9.96 -0.01 -0.13 0.09 5587
0.09 0.93 0.40 -1.03 9.86 -0.01 -0.13 0.08 5594
0.11 0.93 0.42 -1.01 9.85 -0.01 -0.13 0.09 5600
0.10 0.93 0.41 -0.99 9.98 -0.00 -0.13 0.09 5607
0.09 0.92 0.51 -1.17 9.98 0.00 -0.12 0.09 5613
0.12 0.93 0.32 -1.05 9.88 0.00 -0.12 0.08 5619
0.13 0.91 0.35 -1.13 9.97 0.00 -0.11 0.09 5625
0.11 0.89 0.29 -1.06 10.07 0.01 -0.09 0.09 5632
0.12 0.90 0.31 -1.17 9.98 0.01 -0.08 0.10 5638
0.12 0.88 0.31 -1.04 9.92 0.01 -0.07 0.10 5645
0.11 0.85 0.35 -1.08 9.93 0.01 -0.07 0.10 5651
0.12 0.83 0.36 -1.09 9.94 0.02 -0.06 0.11 5657
0.14 0.82 0.39 -1.08 9.95 0.02 -0.06 0.11 5663
0.12 0.82 0.36 -1.08 9.97 0.02 -0.06 0.11 5669
0.12 0.80 0.35 -1.10 9.95 0.02 -0.06 0.11 5676
0.14 0.77 0.35 -1.09 9.96 0.02 -0.06 0.11 5682
0.14 0.75 0.38 -1.08 9.94 0.02 -0.06 0.10 5689
0.14 0.73 0.37 -1.11 9.97 0.02 -0.06 0.10 5695
0.14 0.71 0.38 -1.12 10.00 0.02 -0.06 0.09 5701
0.15 0.69 0.37 -1.08 9.85 0.02 -0.06 0.10 5707
0.15 0.63 0.41 -1.09 9.91 0.02 -0.06 0.10 5713
0.15 0.63 0.38 -1.08 9.94 0.02 -0.06 0.09 5720
0.17 0.58 0.36 -1.08 9.93 0.02 -0.06 0.09 5726
0.17 0.54 0.28 -1.09 9.90 0.02 -0.06 0.09 5733
0.18 0.53 0.36 -1.08 9.93 0.02 -0.05 0.09 5739
0.19 0.52 0.32 -1.09 9.89 0.02 -0.05 0.09 5745
0.20 0.49 0.36 -1.10 9.90 0.02 -0.04 0.10 5751
0.18 0.48 0.33 -1.07 9.93 0.03 -0.03 0.10 5757
0.19 0.46 0.32 -1.09 9.90 0.02 -0.03 0.10 5764
0.22 0.42 0.33 -1.12 9.89 0.02 -0.03 0.10 5770
0.21 0.40 0.35 -1.12 9.90 0.03 -0.02 0.10 5777
0.21 0.36 0.41 -1.12 9.90 0.03 -0.03 0.10 5783
0.21 0.35 0.40 -1.15 9.92 0.02 -0.03 0.10 5789
0.22 0.33 0.36 -1.12 9.86 0.02 -0.03 0.10 5795
0.23 0.28 0.36 -1.14 9.91 0.02 -0.03 0.10 5801
0.25 0.30 0.39 -1.14 9.93 0.02 -0.04 0.10 5808
0.25 0.31 0.34 -1.13 9.92 0.02 -0.03 0.09 5814
0.23 0.29 0.36 -1.14 9.93 0.02 -0.03 0.09 5821
0.25 0.27 0.35 -1.14 9.91 0.02 -0.03 0.09 5827
0.26 0.27 0.37 -1.12 9.91 0.02 -0.03 0.08 5833
0.28 0.25 0.38 -1.13 9.94 0.03 -0.03 0.09 5839
0.28 0.21 0.39 -1.12 9.92 0.02 -0.03 0.09 5846
0.28 0.19 0.37 -1.20 9.89 0.02 -0.02 0.09 5852
0.28 0.18 0.39 -1.15 9.93 0.03 -0.03 0.09 5858
0.27 0.16 0.38 -1.21 9.87 0.03 -0.02 0.08 5865
0.28 0.15 0.38 -1.13 9.92 0.03 -0.03 0.09 5871
0.30 0.17 0.35 -1.18 9.94 0.03 -0.02 0.08 5877
0.32 0.12 0.41 -1.14 9.97 0.03 -0.02 0.07 5883
0.34 0.08 0.47 -1.14 9.94 0.03 -0.03 0.08 5890
0.37 0.10 0.40 -1.19 9.93 0.03 -0.03 0.08 5896
0.41 0.09 0.39 -1.19 9.91 0.02 -0.03 0.07 5902
0.42 0.09 0.42 -1.16 9.92 0.02 -0.03 0.07 5909
0.40 0.09 0.37 -1.18 9.92 0.02 -0.04 0.07 5915
0.42 0.08 0.40 -1.15 9.94 0.02 -0.04 0.07 5921
0.44 0.05 0.40 -1.16 9.91 0.02 -0.05 0.07 5927
0.49 0.04 0.39 -1.16 9.94 0.02 -0.05 0.06 5934
0.51 0.04 0.41 -1.21 9.96 0.02 -0.04 0.06 5940
0.54 0.06 0.34 -1.20 9.99 0.02 -0.04 0.06 5946
0.55 0.03 0.47 -1.14 9.95 0.02 -0.04 0.05 5953
0.58 0.01 0.34 -0.64 10.00 0.03 -0.04 0.06 5959
0.64 0.01 0.29 -1.26 10.08 0.04 -0.04 0.05 5965
0.62 -0.02 0.39 -1.20 9.99 0.05 -0.04 0.05 5971
0.63 -0.02 0.48 -1.26 9.84 0.05 -0.03 0.04 5978
0.68 -0.02 0.33 -1.31 9.93 0.07 0.00 0.05 5984
0.70 -0.03 0.40 -1.17 10.04 0.08 -0.03 0.04 5990
0.74 -0.05 0.35 -1.34 10.02 0.08 -0.04 0.05 5997
0.77 -0.05 0.35 -1.17 10.00 0.10 -0.04 0.05 6003
0.81 -0.05 0.47 -1.19 10.11 0.12 -0.05 0.05 6009
0.86 -0.06 0.40 -1.25 10.20 0.14 -0.06 0.04 6016
0.89 -0.05 0.44 -1.30 10.24 0.17 -0.07 0.05 6022
0.93 -0.04 0.48 -1.29 10.28 0.19 -0.10 0.05 6029
0.97 -0.05 0.46 -1.48 10.35 0.24 -0.12 0.04 6035
1.02 -0.04 0.51 -1.34 10.53 0.31 -0.16 0.04 6041
1.06 -0.05 0.52 -1.68 10.74 0.39 -0.20 0.02 6047
1.05 -0.05 0.44 -1.50 10.99 0.51 -0.23 0.02 6053
1.10 -0.05 0.21 -1.43 11.35 0.67 -0.25 0.00 6061
1.14 -0.05 0.41 -1.64 11.38 0.83 -0.26 0.01 6067
1.18 -0.06 0.32 -1.45 11.53 0.95 -0.25 0.00 6073
1.22 -0.05 0.44 -1.71 11.56 1.03 -0.20 -0.00 6079
1.21 -0.05 0.36 -1.70 11.50 1.12 -0.17 -0.01 6086
1.24 -0.06 -0.75 0.63 12.02 1.21 -0.15 -0.02 6092
1.26 -0.05 0.49 -1.87 11.47 1.27 -0.08 -0.04 6098
1.30 -0.07 0.33 -2.10 11.46 1.35 -0.08 -0.06 6105
1.30 -0.05 0.29 -2.16 11.46 1.42 -0.07 -0.06 6111
1.29 -0.05 0.39 -2.41 11.77 1.51 -0.09 -0.07 6118
1.27 -0.06 0.42 -2.21 11.09 1.61 -0.14 -0.07 6124
1.25 -0.05 0.54 -2.60 11.67 1.71 -0.12 -0.09 6130
1.20 -0.06 0.76 -2.79 11.83 1.79 -0.09 -0.12 6136
1.17 -0.05 0.89 -2.98 11.10 1.88 -0.07 -0.15 6144
1.12 -0.05 0.79 -2.64 11.84 1.95 -0.06 -0.19 6150
1.03 -0.06 0.47 -3.14 12.42 2.03 -0.07 -0.21 6156
0.96 -0.04 0.48 -2.98 12.56 2.15 -0.07 -0.22 6162
0.85 -0.04 0.49 -3.39 13.10 2.32 -0.08 -0.23 6168
0.76 -0.05 0.61 -3.54 13.31 2.53 -0.08 -0.25 6175
0.70 -0.02 0.81 -3.73 13.75 2.78 -0.07 -0.27 6181
0.60 -0.04 1.18 -3.85 14.42 3.07 -0.06 -0.30 6188
0.52 -0.03 1.63 -5.00 15.64 3.35 -0.05 -0.35 6194
0.53 -0.03 1.62 -5.50 17.24 3.67 -0.04 -0.38 6201
0.48 -0.03 1.90 -5.94 17.22 3.90 -0.08 -0.43 6207
0.42 -0.03 2.62 -6.56 18.29 4.08 -0.10 -0.48 6213
0.39 -0.03 3.07 -7.44 19.02 4.15 -0.02 -0.51 6219
0.36 -0.03 1.45 -7.55 18.41 4.17 0.06 -0.53 6225
0.31 -0.01 1.35 -7.64 19.20 4.18 0.11 -0.52 6233
0.27 -0.01 1.76 -7.00 19.75 4.14 0.19 -0.50 6239
0.22 -0.01 1.21 -6.39 18.73 4.05 0.22 -0.52 6245
0.22 -0.01 0.64 -5.44 18.75 3.98 0.16 -0.57 6251
0.18 -0.01 0.78 -5.29 18.81 3.91 0.00 -0.61 6258
0.15 -0.01 1.84 -4.41 17.82 3.85 -0.11 -0.65 6264
0.13 -0.01 2.87 -3.24 16.06 3.83 -0.16 -0.69 6270
0.10 -0.01 3.47 -2.30 13.96 3.85 -0.14 -0.76 6277
0.11 -0.01 4.24 -0.97 13.31 3.94 -0.07 -0.84 6283
0.12 -0.01 3.92 -0.30 14.81 4.19 0.03 -0.97 6290
0.10 -0.01 3.74 0.32 13.80 4.28 0.26 -1.05 6296
0.08 -0.01 4.57 3.48 8.08 4.28 0.62 -1.17 6302
0.10 -0.01 4.07 5.65 8.88 4.28 0.82 -1.40 6308
0.07 -0.01 2.91 11.48 6.15 4.16 0.75 -1.74 6315
0.06 -0.01 2.26 13.04 6.71 2.85 0.52 -2.23 6321
0.07 -0.00 0.22 13.15 12.21 1.24 0.33 -2.38 6327
0.07 -0.01 0.31 9.38 19.66 -0.08 0.42 -2.29 6334
0.06 -0.01 0.44 6.85 17.60 -1.01 0.38 -2.21 6340
0.07 -0.01 0.07 7.13 12.84 -1.61 0.12 -2.19 6346
0.06 -0.00 0.39 6.14 9.13 -1.95 -0.21 -2.12 6352
0.07 -0.01 1.47 5.18 6.27 -2.14 -0.41 -2.03 6359
0.06 -0.01 2.53 3.90 5.50 -2.21 -0.44 -1.96 6365
0.08 -0.01 2.99 3.20 4.94 -2.23 -0.34 -1.90 6371
0.07 -0.01 3.22 2.96 4.44 -2.21 -0.16 -1.80 6378
0.06 -0.01 3.36 2.99 4.22 -2.19 0.02 -1.67 6384
0.07 -0.01 3.16 3.16 4.24 -2.19 0.13 -1.52 6390
0.07 -0.01 3.00 3.09 4.70 -2.20 0.21 -1.33 6396
0.07 -0.01 2.78 3.04 5.27 -2.22 0.21 -1.14 6403
0.06 -0.01 2.75 3.14 5.78 -2.26 0.15 -0.90 6409
0.07 -0.00 2.83 3.25 6.25 -2.31 0.09 -0.62 6415
0.09 -0.01 3.18 3.27 6.59 -2.37 0.03 -0.35 6421
0.08 -0.01 3.63 3.02 7.13 -2.47 0.03 -0.08 6428
0.08 -0.01 4.17 2.63 7.54 -2.56 0.09 0.16 6434
0.07 -0.01 4.48 2.24 7.90 -2.67 0.24 0.37 6440
0.06 -0.01 4.51 1.65 8.24 -2.79 0.47 0.52 6447
0.06 -0.01 4.21 1.08 8.72 -2.90 0.70 0.67 6453
0.06 -0.01 3.82 0.45 9.24 -3.01 0.90 0.78 6459
0.07 -0.01 3.33 -0.12 9.80 -3.11 1.05 0.85 6465
0.07 -0.01 2.95 -0.70 10.30 -3.21 1.13 0.92 6471
0.06 -0.01 2.45 -1.83 10.79 -3.30 1.19 0.97 6477
0.07 -0.01 2.00 -1.92 11.28 -3.37 1.21 1.03 6484
0.07 -0.01 1.66 -2.63 11.57 -3.42 1.19 1.04 6491
0.06 -0.01 1.40 -3.36 11.95 -3.44 1.15 1.06 6497
0.06 -0.01 1.35 -4.07 12.30 -3.44 1.12 1.08 6503
0.08 -0.01 1.35 -4.81 12.65 -3.42 1.09 1.09 6509
0.07 -0.01 1.42 -5.45 12.89 -3.41 1.08 1.10 6515
0.07 -0.01 1.48 -6.01 13.16 -3.37 1.09 1.10 6522
0.08 -0.01 1.51 -6.44 13.36 -3.32 1.10 1.11 6529
0.07 -0.01 1.47 -6.53 13.54 -3.26 1.09 1.12 6535
0.06 -0.01 1.49 -6.54 13.79 -3.19 1.06 1.13 6541
0.07 -0.01 1.53 -6.53 14.20 -3.11 1.03 1.15 6547
0.07 -0.01 1.65 -6.70 14.54 -3.03 1.02 1.16 6553
0.06 -0.01 1.91 -6.89 14.97 -2.95 1.03 1.17 6560
0.07 0.00 2.07 -6.92 15.41 -2.89 1.05 1.18 6566
0.07 -0.01 2.16 -6.95 15.76 -2.84 1.07 1.18 6573
0.06 -0.01 2.22 -6.96 16.06 -2.80 1.10 1.18 6579
0.06 -0.00 2.18 -7.04 16.22 -2.76 1.12 1.18 6585
0.06 -0.01 2.17 -7.25 16.31 -2.73 1.11 1.18 6592
0.05 -0.01 2.21 -7.67 16.21 -2.69 1.09 1.18 6598
0.07 -0.00 2.29 -8.02 15.91 -2.63 1.04 1.18 6604
0.06 -0.01 2.35 -8.42 15.42 -2.55 0.99 1.18 6610
0.06 -0.01 2.43 -8.78 15.11 -2.43 0.94 1.18 6617
0.07 0.00 2.43 -8.99 14.69 -2.29 0.89 1.19 6624
0.07 -0.01 2.23 -9.24 14.48 -2.12 0.85 1.20 6630
0.05 -0.01 1.74 -9.28 14.37 -1.95 0.83 1.23 6636
0.07 0.00 1.18 -9.25 14.30 -1.77 0.79 1.27 6642
0.07 -0.01 0.56 -9.17 14.28 -1.62 0.70 1.31 6648
0.07 -0.01 -0.02 -9.04 14.10 -1.48 0.57 1.35 6654
0.07 0.00 -0.30 -9.00 14.17 -1.37 0.44 1.40 6662
0.07 -0.01 -0.46 -9.07 14.04 -1.30 0.32 1.43 6668
0.07 -0.01 -0.42 -9.12 13.85 -1.24 0.26 1.46 6674
0.07 -0.01 -0.24 -9.07 13.59 -1.21 0.24 1.47 6680
0.08 -0.01 0.14 -9.10 13.26 -1.22 0.30 1.46 6686
0.08 -0.01 0.57 -9.25 12.90 -1.26 0.44 1.43 6692
0.07 -0.00 0.68 -9.49 12.58 -1.32 0.64 1.37 6700
0.08 -0.01 0.06 -9.83 12.42 -1.39 0.83 1.29 6706
0.07 -0.01 -0.89 -10.17 12.17 -1.49 0.95 1.19 6712
0.07 -0.00 -1.66 -10.57 11.57 -1.59 0.98 1.08 6718
0.08 -0.01 -2.38 -11.03 10.42 -1.67 0.94 0.94 6724
0.08 -0.01 -3.05 -11.74 8.90 -1.71 0.90 0.81 6731
0.07 0.00 -3.79 -12.27 7.19 -1.67 0.95 0.70 6737
0.07 -0.00 -4.90 -13.64 6.16 -1.54 1.13 0.63 6744
0.07 -0.01 -5.84 -15.30 5.91 -1.36 1.24 0.55 6750
0.07 0.00 -6.80 -16.35 5.87 -1.21 1.06 0.39 6756
0.07 -0.00 -7.08 -17.01 5.37 -1.02 0.67 0.18 6763
0.07 -0.00 -6.39 -17.43 4.66 -0.83 0.26 -0.06 6769
0.08 0.00 -4.93 -17.65 4.34 -0.61 -0.02 -0.29 6775
0.08 -0.01 -4.47 -17.43 4.36 -0.38 -0.14 -0.51 6781
0.07 -0.01 -6.30 -24.81 5.54 -0.12 -0.32 -0.65 6788
0.09 -0.00 -8.28 -23.11 7.82 0.99 -1.25 -0.71 6795
0.10 -0.01 -7.04 -17.51 0.24 1.31 -1.88 -0.87 6801
0.08 -0.00 -5.45 -18.09 4.90 1.55 -2.60 -0.93 6807
0.11 -0.00 -1.14 -11.45 7.76 1.88 -2.90 -0.96 6813
0.08 0.00 1.23 -3.90 9.93 1.89 -2.64 -0.88 6819
0.07 0.02 4.73 4.51 13.86 1.86 -1.99 -0.63 6827
0.07 0.09 6.58 4.37 14.54 1.65 -1.18 -0.19 6833
0.05 0.14 5.95 4.42 11.50 1.53 -0.36 0.27 6839
0.06 0.27 2.57 0.02 9.28 1.70 0.17 0.55 6845
0.06 0.34 -1.77 -2.01 10.00 2.25 0.18 0.57 6851
0.05 0.34 -3.79 -3.00 12.77 2.69 -0.14 0.36 6858
0.05 0.42 -2.96 -3.26 16.97 3.03 -0.45 0.04 6864
0.06 0.46 -1.17 -3.08 19.63 3.16 -0.43 -0.21 6871
0.04 0.53 1.55 -3.13 20.09 2.86 -0.46 -0.28 6877
0.04 0.57 0.64 -2.86 18.34 2.42 -0.56 -0.27 6884
0.04 0.59 1.81 -2.17 17.16 1.78 -1.09 -0.31 6890
0.05 0.66 2.62 -2.34 13.81 1.05 -1.13 -0.06 6896
0.07 0.66 0.45 -2.19 12.30 0.60 -0.78 0.16 6902
0.06 0.68 -0.40 -1.61 10.44 0.39 -0.62 0.15 6908
0.06 0.70 -0.39 -1.21 10.44 0.27 -0.48 0.10 6916
0.08 0.72 0.21 -1.00 10.24 0.19 -0.36 0.08 6922
0.07 0.73 0.86 -1.08 10.06 0.14 -0.28 0.12 6928
0.09 0.77 0.36 -1.16 10.70 0.07 -0.20 0.15 6934
0.09 0.78 -1.38 -1.96 11.39 0.04 -0.13 0.13 6940
0.08 0.79 0.34 -1.12 10.00 0.03 -0.11 0.13 6947
0.09 0.80 0.47 -1.17 9.92 0.02 -0.12 0.13 6953
0.09 0.81 0.61 -1.11 9.64 0.02 -0.13 0.11 6960
0.09 0.81 0.39 -1.06 9.93 0.02 -0.14 0.10 6966
0.09 0.84 0.37 -1.12 9.87 0.02 -0.15 0.08 6972
0.09 0.85 0.36 -1.11 9.94 0.02 -0.15 0.09 6978
0.10 0.83 0.38 -1.08 10.06 0.02 -0.14 0.08 6985
0.11 0.82 0.35 -1.03 10.03 0.02 -0.14 0.08 6991
0.14 0.81 0.27 -1.10 10.01 0.02 -0.13 0.07 6998
0.12 0.79 0.27 -1.13 10.02 0.02 -0.11 0.08 7004
0.13 0.80 0.25 -1.19 10.23 0.02 -0.11 0.09 7010
0.15 0.76 0.26 -1.14 9.92 0.02 -0.09 0.10 7017
0.17 0.73 0.31 -1.09 9.97 0.03 -0.08 0.10 7023
0.17 0.73 0.32 -1.11 9.99 0.02 -0.09 0.10 7029
0.18 0.68 0.37 -1.12 10.03 0.03 -0.07 0.10 7035
0.20 0.62 0.30 -1.09 10.03 0.03 -0.06 0.11 7042
0.19 0.58 0.35 -1.16 9.89 0.03 -0.10 0.09 7048
0.22 0.56 0.34 -1.12 9.87 0.03 -0.07 0.09 7055
0.23 0.54 0.38 -1.09 9.95 0.03 -0.07 0.09 7061
0.24 0.52 0.36 -1.10 9.90 0.03 -0.08 0.09 7067
0.26 0.52 0.28 -1.14 9.96 0.03 -0.08 0.09 7073
0.27 0.49 0.29 -1.10 9.92 0.03 -0.08 0.09 7079
0.29 0.45 0.25 -1.13 9.93 0.02 -0.07 0.09 7086
0.32 0.43 0.36 -1.14 10.03 0.02 -0.07 0.09 7092
0.31 0.39 0.24 -1.14 9.98 0.02 -0.07 0.11 7099
0.33 0.33 0.26 -1.09 9.93 0.02 -0.06 0.10 7105
0.33 0.33 0.28 -1.09 9.96 0.03 -0.06 0.10 7111
0.36 0.32 0.25 -1.14 9.95 0.03 -0.05 0.10 7117
0.37 0.29 0.27 -1.10 9.93 0.03 -0.04 0.09 7123
0.39 0.27 0.28 -1.15 9.92 0.03 -0.04 0.10 7130
0.40 0.23 0.26 -1.13 9.95 0.04 -0.04 0.10 7136
0.42 0.18 0.29 -1.14 9.90 0.03 -0.03 0.10 7143
0.41 0.17 0.31 -1.12 9.91 0.03 -0.03 0.10 7149
0.41 0.15 0.28 -1.16 9.86 0.04 -0.03 0.10 7155
0.45 0.11 0.28 -1.14 9.86 0.03 -0.03 0.10 7161
0.45 0.11 0.30 -1.20 9.93 0.03 -0.03 0.10 7168
0.43 0.12 0.27 -1.18 9.94 0.03 -0.02 0.10 7174
0.46 0.10 0.31 -1.18 9.91 0.03 -0.02 0.10 7180
0.48 0.07 0.30 -1.16 9.92 0.03 -0.03 0.10 7187
0.53 0.07 0.32 -1.17 9.93 0.03 -0.03 0.09 7193
0.53 0.06 0.30 -1.17 9.94 0.03 -0.03 0.09 7199
0.55 0.04 0.29 -1.15 9.95 0.03 -0.03 0.09 7205
0.54 0.05 0.28 -1.21 9.91 0.03 -0.07 0.09 7212
0.58 0.02 0.29 -1.80 9.87 0.03 -0.04 0.09 7218
0.61 0.02 0.29 -1.17 9.96 0.03 -0.04 0.10 7224
0.65 0.02 0.29 -1.19 9.91 0.03 -0.04 0.10 7231
0.65 0.00 0.30 -1.20 9.90 0.03 -0.04 0.10 7237
0.66 0.01 0.29 -1.23 9.89 0.03 -0.03 0.09 7243
0.69 0.01 0.27 -1.19 9.89 0.02 -0.04 0.09 7249
0.69 0.02 0.21 -1.19 9.90 0.03 -0.04 0.09 7256
0.68 -0.01 0.31 -1.22 9.86 0.03 -0.04 0.09 7262
0.71 0.02 0.33 -1.24 9.90 0.03 -0.04 0.08 7268
0.73 -0.00 0.33 -1.17 9.87 0.03 -0.04 0.09 7275
0.71 -0.01 0.27 -1.23 9.83 0.03 -0.04 0.09 7281
0.70 0.00 0.33 -1.22 9.99 0.03 -0.04 0.07 7287
0.72 -0.02 0.27 -1.22 9.92 0.03 -0.05 0.08 7293
0.73 -0.03 0.28 -1.24 9.89 0.03 -0.05 0.07 7300
0.72 -0.03 0.29 -1.20 9.98 0.03 -0.06 0.07 7306
0.77 -0.02 0.33 -1.20 9.88 0.04 -0.06 0.06 7312
0.79 -0.04 0.27 -1.24 9.94 0.04 -0.06 0.07 7319
0.80 -0.03 0.34 -1.82 9.96 0.04 -0.06 0.10 7325
0.84 -0.04 0.25 -1.27 9.94 0.04 -0.06 0.07 7331
0.85 -0.05 0.29 -1.22 9.96 0.04 -0.06 0.07 7337
0.86 -0.06 0.15 -1.41 9.85 0.04 -0.06 0.07 7344
0.86 -0.04 0.27 -1.22 9.92 0.05 -0.06 0.07 7350
0.87 -0.04 0.35 -1.14 9.92 0.05 -0.06 0.06 7357
0.90 -0.05 0.28 -1.31 9.98 0.06 -0.06 0.06 7363
0.94 -0.05 0.28 -1.26 10.03 0.06 -0.03 0.06 7369
1.00 -0.05 0.43 -1.27 10.14 0.08 -0.07 0.05 7375
1.01 -0.05 0.25 -1.48 10.03 0.10 -0.08 0.05 7382
1.03 -0.06 0.22 -1.32 10.09 0.12 -0.10 0.04 7388
1.03 -0.05 0.23 -1.38 10.15 0.14 -0.11 0.04 7395
1.06 -0.06 0.28 -1.37 10.17 0.17 -0.13 0.04 7401
1.07 -0.05 0.29 -1.33 10.19 0.19 -0.15 0.03 7407
1.12 -0.05 0.29 -1.43 10.17 0.21 -0.17 0.03 7413
1.17 -0.06 0.36 -1.36 10.17 0.24 -0.19 0.02 7419
1.20 -0.04 0.31 -1.50 10.37 0.27 -0.20 0.02 7427
1.24 -0.06 0.32 -1.42 10.22 0.32 -0.22 0.02 7433
1.26 -0.06 0.29 -1.71 10.47 0.37 -0.21 0.02 7439
1.26 -0.05 0.18 -1.50 10.55 0.47 -0.22 0.03 7445
1.25 -0.05 0.07 -1.58 10.91 0.55 -0.21 0.04 7452
1.33 -0.07 0.21 -1.52 10.85 0.64 -0.21 0.04 7458
1.31 -0.05 0.21 -1.89 10.91 0.73 -0.19 0.04 7464
1.35 -0.06 0.29 -1.77 10.98 0.81 -0.18 0.04 7471
1.39 -0.06 0.48 -1.76 11.16 0.87 -0.15 0.04 7477
1.41 -0.06 0.21 -2.02 10.92 0.96 -0.13 0.03 7484
1.42 -0.07 0.31 -2.05 10.88 1.05 -0.14 0.02 7490
1.42 -0.06 0.15 -1.54 10.41 1.10 -0.10 -0.01 7496
1.47 -0.07 0.63 -1.92 10.72 1.15 -0.08 -0.01 7502
1.47 -0.07 0.27 -2.18 11.03 1.22 -0.10 -0.02 7508
1.44 -0.05 0.37 -2.24 11.25 1.28 -0.11 -0.04 7516
1.47 -0.06 0.21 -2.42 11.20 1.36 -0.13 -0.04 7522
1.44 -0.07 0.32 -2.70 11.38 1.48 -0.16 -0.05 7528
1.43 -0.05 0.51 -2.65 11.43 1.56 -0.14 -0.07 7534
1.43 -0.07 0.40 -2.59 11.39 1.65 -0.14 -0.11 7541
1.37 -0.06 0.43 -3.13 11.78 1.73 -0.13 -0.14 7547
1.34 -0.05 0.36 -3.28 11.56 1.83 -0.14 -0.17 7554
1.22 -0.05 0.03 -3.23 11.94 1.95 -0.15 -0.18 7560
1.19 -0.05 0.47 -3.22 12.50 2.05 -0.17 -0.19 7567
1.06 -0.04 0.24 -3.57 13.10 2.21 -0.17 -0.20 7573
0.96 -0.04 0.54 -3.54 13.30 2.41 -0.16 -0.22 7579
0.92 -0.04 0.72 -3.93 13.89 2.63 -0.16 -0.26 7585
0.84 -0.05 1.47 -4.32 12.94 2.85 -0.16 -0.32 7591
0.66 -0.03 0.91 -4.53 14.51 3.10 -0.13 -0.36 7599
0.62 -0.03 0.91 -4.95 14.94 3.36 -0.13 -0.40 7605
0.61 -0.04 1.23 -5.60 15.99 3.60 -0.12 -0.43 7611
0.57 -0.03 1.33 -5.83 17.29 3.88 -0.10 -0.45 7617
0.54 -0.03 2.06 -6.15 17.63 4.06 -0.10 -0.48 7624
0.46 -0.03 2.03 -7.51 18.19 4.14 -0.04 -0.50 7630
0.43 -0.02 1.69 -8.27 17.99 4.18 0.06 -0.51 7636
0.39 -0.03 2.44 -8.45 18.59 4.19 0.11 -0.51 7643
0.31 -0.02 1.82 -7.55 19.45 4.17 0.27 -0.50 7649
0.31 -0.02 1.35 -6.43 19.82 4.11 0.37 -0.53 7656
0.26 -0.03 -0.08 -6.38 19.33 4.02 0.30 -0.55 7662
0.20 -0.01 0.39 -5.64 17.88 3.94 0.14 -0.59 7668
0.16 -0.02 1.46 -4.82 17.30 3.88 -0.01 -0.63 7674
0.14 -0.01 2.73 -3.70 16.36 3.85 -0.05 -0.68 7681
0.12 -0.00 3.64 -2.85 14.84 3.86 0.01 -0.75 7688
0.12 -0.01 4.14 -1.69 13.42 3.90 0.12 -0.83 7694
0.10 -0.01 4.41 -1.14 13.21 4.02 0.21 -0.95 7700
0.10 -0.01 3.57 -0.58 15.57 4.21 0.24 -1.09 7706
0.09 -0.01 2.99 0.63 15.28 4.28 0.28 -1.23 7712
0.08 -0.01 3.26 5.09 10.51 4.28 0.36 -1.38 7718
0.08 -0.01 2.62 9.65 8.11 4.28 0.22 -1.67 7726
0.09 -0.01 1.51 12.63 6.20 4.00 -0.06 -2.00 7732
0.08 -0.01 1.32 10.48 6.36 2.20 -0.33 -2.25 7738
0.07 -0.01 0.96 13.59 14.94 0.61 -0.36 -2.23 7744
0.08 -0.01 2.51 8.69 19.18 -0.48 -0.13 -2.11 7750
0.08 -0.01 2.40 6.12 16.12 -1.19 -0.10 -2.05 7756
0.08 -0.01 1.88 6.83 12.22 -1.65 -0.16 -1.95 7763
0.08 -0.00 2.39 6.39 8.95 -1.92 -0.16 -1.82 7770
0.08 -0.01 3.20 5.43 6.77 -2.10 -0.15 -1.70 7776
0.08 -0.01 3.39 4.49 6.08 -2.23 -0.06 -1.59 7782
0.08 -0.01 3.25 3.86 5.82 -2.29 0.11 -1.49 7788
0.09 -0.01 3.11 3.47 5.56 -2.32 0.29 -1.35 7794
0.08 -0.01 2.78 3.35 5.27 -2.33 0.40 -1.20 7800
0.08 -0.01 2.33 3.32 5.16 -2.36 0.44 -1.04 7806
0.08 -0.01 1.95 3.17 5.44 -2.38 0.41 -0.85 7814
0.10 -0.01 1.94 3.03 6.00 -2.41 0.30 -0.64 7820
0.08 -0.01 2.02 3.03 6.58 -2.46 0.22 -0.44 7826
0.08 -0.01 2.25 3.07 6.96 -2.53 0.12 -0.25 7832
0.08 -0.01 2.77 3.06 7.21 -2.62 0.07 -0.03 7838
0.09 -0.01 3.25 2.78 7.89 -2.74 0.09 0.16 7844
0.08 -0.01 3.82 2.32 8.60 -2.89 0.21 0.33 7851
0.09 -0.01 4.16 1.94 9.24 -3.02 0.41 0.47 7857
0.08 -0.01 4.18 1.57 9.61 -3.20 0.62 0.59 7863
0.09 -0.01 3.91 1.19 10.01 -3.39 0.85 0.67 7870
0.08 -0.01 3.37 0.60 10.37 -3.56 1.04 0.77 7876
0.07 -0.01 2.70 -0.07 10.72 -3.71 1.15 0.84 7882
0.08 -0.01 2.10 -0.87 10.87 -3.81 1.19 0.91 7888
0.08 -0.01 1.77 -1.67 11.05 -3.87 1.19 0.96 7895
0.08 -0.01 1.50 -2.60 11.41 -3.88 1.16 0.99 7901
0.08 -0.00 1.48 -3.48 11.90 -3.86 1.14 1.01 7908
0.08 -0.01 1.35 -4.21 12.27 -3.83 1.15 1.01 7914
0.08 -0.01 1.26 -4.89 12.69 -3.79 1.16 1.00 7920
0.08 0.00 1.26 -5.37 13.11 -3.75 1.17 0.99 7926
0.08 -0.01 1.25 -5.64 13.52 -3.69 1.17 0.98 7932
0.08 -0.01 1.24 -5.95 13.93 -3.63 1.19 0.98 7939
0.07 -0.01 1.24 -6.25 14.46 -3.58 1.21 0.98 7946
0.08 -0.01 1.19 -6.62 14.86 -3.52 1.23 0.99 7952
0.08 -0.01 1.19 -6.96 15.34 -3.47 1.24 0.99 7958
0.07 -0.01 1.06 -7.14 15.74 -3.42 1.25 1.01 7964
0.08 -0.01 0.87 -7.33 16.12 -3.34 1.24 1.03 7970
0.07 -0.01 0.76 -7.41 16.53 -3.31 1.23 1.05 7976
0.07 -0.01 0.10 -7.70 16.87 -3.26 1.17 1.08 7984
0.08 -0.01 0.76 -7.99 16.96 -3.20 1.17 1.10 7990
0.08 -0.01 0.87 -8.29 17.15 -3.13 1.13 1.07 7996
0.06 -0.01 1.06 -8.81 17.03 -3.06 1.09 1.09 8002
0.07 -0.01 1.24 -9.23 17.04 -2.99 1.06 1.08 8008
0.08 -0.01 1.37 -9.66 17.00 -2.89 1.03 1.07 8014
0.07 -0.01 1.36 -10.05 16.73 -2.79 0.98 1.05 8022
0.07 -0.00 1.28 -10.47 16.40 -2.66 0.94 1.04 8028
0.08 -0.01 1.09 -10.79 15.99 -2.52 0.89 1.03 8034
0.07 -0.01 0.77 -10.88 15.58 -2.36 0.83 1.04 8040
0.09 -0.01 0.47 -11.04 15.10 -2.22 0.76 1.05 8046
0.08 -0.01 0.17 -11.10 14.60 -2.05 0.69 1.08 8053
0.08 -0.01 0.05 -11.18 14.13 -1.86 0.61 1.12 8059
0.10 -0.01 -0.14 -11.24 13.70 -1.68 0.61 1.16 8066
0.09 -0.01 -0.37 -11.28 13.34 -1.52 0.58 1.22 8072
0.08 -0.01 -0.44 -11.34 12.91 -1.38 0.58 1.27 8078
0.09 -0.01 -0.57 -11.44 12.86 -1.27 0.57 1.31 8085
0.08 -0.01 -0.80 -11.61 12.78 -1.21 0.56 1.34 8091
0.09 -0.00 -1.27 -11.68 12.85 -1.20 0.54 1.35 8097
0.09 -0.01 -1.78 -11.76 12.74 -1.25 0.50 1.33 8103
0.08 -0.01 -1.85 -11.91 12.20 -1.36 0.48 1.27 8111
0.10 -0.01 -1.87 -12.33 11.30 -1.50 0.50 1.17 8117
0.09 -0.01 -1.77 -13.09 9.38 -1.59 0.59 1.04 8123
0.08 -0.01 -1.98 -13.83 8.38 -1.60 0.74 0.89 8129
0.10 -0.01 -2.72 -14.23 6.18 -1.49 0.93 0.75 8135
0.08 -0.01 -4.47 -14.49 4.52 -1.29 1.19 0.66 8142
0.08 -0.01 -6.30 -15.57 4.21 -1.00 1.51 0.64 8148
0.10 -0.01 -8.01 -16.78 5.06 -0.78 1.53 0.58 8155
0.09 -0.01 -9.23 -17.16 6.17 -0.56 1.04 0.43 8161
0.07 -0.01 -9.11 -16.93 6.37 -0.40 0.31 0.23 8167
0.08 -0.01 -7.43 -16.52 5.83 -0.27 -0.18 0.03 8173
0.08 -0.01 -5.58 -17.45 4.97 -0.16 -0.53 -0.11 8180
0.07 -0.01 -7.49 -27.67 14.99 0.72 -0.99 -0.26 8186
0.09 -0.00 -5.02 -16.65 -1.56 1.21 -1.37 -0.44 8193
0.08 -0.01 -5.52 -18.70 3.48 1.47 -1.78 -0.59 8199
0.08 -0.01 -2.61 -11.65 6.89 1.88 -2.09 -0.66 8205
0.08 0.01 -0.61 -2.51 9.63 2.00 -1.99 -0.69 8212
0.07 0.02 3.41 4.78 13.90 1.96 -1.64 -0.61 8218
0.06 0.08 5.20 4.64 15.14 1.69 -1.18 -0.37 8224
0.07 0.12 5.42 4.13 13.29 1.40 -0.52 -0.04 8230
0.06 0.18 3.17 1.02 9.71 1.34 -0.05 0.19 8237
0.05 0.29 0.90 -1.49 9.30 1.64 0.11 0.30 8244
0.06 0.33 -0.77 -2.69 10.90 2.13 -0.01 0.28 8250
0.05 0.36 -1.20 -2.51 14.03 2.52 -0.15 0.18 8256
0.05 0.43 -1.16 -2.65 18.04 2.70 -0.24 0.01 8262
0.05 0.47 -0.71 -2.37 18.29 2.65 -0.19 -0.14 8268
0.05 0.52 0.97 -2.23 16.92 2.34 -0.20 -0.20 8275
0.05 0.58 1.12 -1.97 15.08 2.06 -0.28 -0.20 8282
0.06 0.59 1.00 -2.13 16.79 1.80 -0.70 -0.22 8288
0.05 0.62 2.74 -2.02 13.75 1.19 -0.99 -0.17 8294
0.07 0.65 1.60 -1.42 11.73 0.76 -0.78 0.08 8300
0.06 0.66 0.17 -1.56 11.06 0.51 -0.62 0.18 8307
0.05 0.68 -0.28 -1.15 10.92 0.36 -0.51 0.15 8313
0.08 0.69 0.02 -1.01 10.39 0.21 -0.36 0.09 8320
0.07 0.70 0.58 -1.09 10.07 0.16 -0.27 0.08 8326
0.06 0.72 0.63 -1.00 10.20 0.13 -0.23 0.11 8333
0.08 0.75 0.35 -1.08 9.96 0.10 -0.21 0.14 8339
0.08 0.75 0.26 -1.06 10.22 0.06 -0.16 0.12 8345
0.08 0.78 0.45 -1.02 9.93 0.03 -0.11 0.13 8351
0.08 0.80 0.47 -1.12 9.96 0.01 -0.09 0.13 8357
0.08 0.81 0.50 -1.04 9.90 0.00 -0.10 0.13 8364
0.05 0.84 0.36 -0.96 9.87 0.01 -0.10 0.12 8370
0.09 0.84 0.46 -0.99 9.86 0.01 -0.10 0.12 8377
0.09 0.85 0.47 -0.97 9.85 0.01 -0.10 0.11 8383
0.09 0.84 0.51 -0.92 9.69 0.01 -0.10 0.11 8389
0.08 0.85 0.41 -1.08 9.91 0.01 -0.10 0.09 8395
0.11 0.85 0.58 -1.05 10.06 0.01 -0.10 0.11 8401
0.10 0.84 0.38 -1.07 10.03 0.01 -0.09 0.11 8408
0.09 0.84 0.39 -1.06 9.91 0.01 -0.09 0.11 8415
0.11 0.85 1.59 -1.39 9.69 0.01 -0.08 0.12 8421
0.10 0.84 0.40 -1.02 9.94 0.01 -0.07 0.11 8427
0.11 0.84 0.37 -1.05 9.93 0.01 -0.07 0.11 8433
0.11 0.85 0.38 -1.04 9.85 0.01 -0.07 0.10 8439
0.12 0.82 0.44 -1.05 9.93 0.01 -0.07 0.11 8445
0.11 0.81 0.44 -1.01 10.05 0.01 -0.07 0.10 8452
0.11 0.82 0.47 -1.02 9.88 0.01 -0.07 0.10 8459
0.11 0.79 0.51 -1.06 9.95 0.01 -0.08 0.10 8465
0.11 0.75 0.47 -1.07 9.97 0.01 -0.08 0.10 8471
0.13 0.73 0.44 -1.03 9.87 0.01 -0.09 0.09 8477
0.15 0.72 0.37 -1.06 9.84 0.01 -0.08 0.09 8483
0.15 0.70 0.40 -1.04 10.04 0.02 -0.10 0.09 8489
0.14 0.68 0.36 -1.02 9.98 0.01 -0.08 0.08 8497
0.17 0.65 0.38 -0.99 9.92 0.02 -0.09 0.09 8503
0.19 0.62 0.34 -1.06 9.98 0.02 -0.08 0.09 8509
0.19 0.57 0.34 -1.03 9.90 0.02 -0.07 0.09 8515
0.20 0.57 0.41 -1.10 9.96 0.02 -0.07 0.10 8521
0.20 0.54 0.40 -1.07 9.96 0.02 -0.06 0.10 8527
0.18 0.52 0.33 -1.05 9.93 0.03 -0.06 0.11 8534
0.17 0.49 0.35 -1.09 9.86 0.03 -0.05 0.11 8541
0.21 0.47 0.33 -1.05 9.87 0.03 -0.04 0.10 8547
0.22 0.46 0.41 -1.09 9.89 0.03 -0.04 0.10 8553
0.19 0.41 0.36 -1.10 9.88 0.03 -0.04 0.10 8559
0.22 0.39 0.39 -1.05 9.90 0.03 -0.04 0.10 8565
0.24 0.33 0.36 -1.11 9.90 0.04 -0.03 0.10 8571
0.24 0.31 0.37 -1.09 9.87 0.03 -0.02 0.10 8578
0.24 0.32 0.40 -1.09 9.84 0.03 -0.02 0.10 8585
0.27 0.29 0.38 -1.15 9.91 0.03 -0.01 0.10 8591
0.27 0.27 0.37 -1.08 9.91 0.03 -0.00 0.10 8597
0.26 0.25 0.36 -1.12 9.87 0.03 0.00 0.10 8603
0.27 0.20 0.35 -1.09 9.88 0.04 0.01 0.11 8609
0.30 0.19 0.41 -1.11 9.88 0.03 0.02 0.10 8615
0.29 0.16 0.43 -1.13 9.90 0.03 0.03 0.10 8622
0.28 0.13 0.40 -1.12 9.94 0.04 0.03 0.10 8628
0.30 0.13 0.41 -1.14 9.91 0.04 0.04 0.11 8635
0.30 0.12 0.44 -1.14 9.97 0.04 0.05 0.11 8641
0.31 0.12 0.42 -1.12 9.94 0.04 0.05 0.10 8647
0.33 0.12 0.44 -1.08 9.91 0.04 0.05 0.10 8653
0.36 0.13 0.42 -1.18 9.92 0.04 0.05 0.10 8659
0.36 0.09 0.45 -1.14 9.92 0.04 0.05 0.09 8666
0.36 0.06 0.50 -1.14 9.93 0.04 0.05 0.09 8672
0.37 0.05 0.45 -1.16 9.93 0.04 0.05 0.08 8679
0.39 0.07 0.50 -1.14 9.98 0.04 0.05 0.09 8685
0.39 0.06 0.53 -1.20 9.92 0.04 0.05 0.09 8691
0.40 0.03 0.51 -1.16 9.89 0.04 0.05 0.08 8697
0.41 0.04 0.54 -1.19 9.95 0.04 0.05 0.08 8704
0.40 0.02 0.49 -1.18 9.92 0.04 0.05 0.08 8710
0.40 0.01 0.49 -1.14 9.95 0.04 0.05 0.08 8716
0.42 0.03 0.51 -1.23 9.95 0.04 0.04 0.08 8723
0.44 -0.01 0.50 -1.15 9.96 0.05 0.05 0.08 8729
0.47 -0.02 0.44 -1.14 9.94 0.05 0.04 0.08 8735
0.49 -0.01 0.52 -1.20 9.86 0.05 0.04 0.08 8741
0.50 -0.03 0.48 -1.28 9.87 0.06 0.04 0.08 8748
0.50 -0.03 0.52 -1.13 9.96 0.06 0.04 0.08 8754
0.48 -0.04 0.87 -0.69 9.87 0.06 0.04 0.08 8760
0.50 -0.02 0.61 -1.22 10.01 0.08 0.03 0.08 8767
0.54 -0.03 0.64 -1.29 10.02 0.09 0.03 0.09 8773
0.53 -0.03 0.74 -1.54 9.85 0.10 0.02 0.06 8779
0.56 -0.03 0.66 -1.31 10.02 0.13 0.02 0.06 8785
0.59 -0.04 0.83 -1.17 10.12 0.15 0.02 0.05 8792
0.59 -0.04 0.66 -1.26 10.10 0.18 0.02 0.05 8798
0.62 -0.02 0.85 -1.04 10.19 0.21 0.02 0.04 8805
0.67 -0.04 0.67 -1.43 10.18 0.26 0.02 0.03 8811
0.68 -0.04 0.55 -1.37 10.24 0.32 -0.00 0.02 8817
0.70 -0.03 0.57 -1.46 10.46 0.41 -0.01 0.01 8823
0.72 -0.04 0.67 -1.54 10.44 0.51 -0.02 0.00 8829
0.74 -0.04 0.57 -1.53 10.92 0.62 -0.03 -0.00 8837
0.75 -0.03 0.66 -1.53 11.09 0.73 -0.02 -0.01 8843
0.80 -0.05 0.76 -1.62 11.24 0.81 -0.01 -0.00 8849
0.81 -0.04 0.63 -1.65 11.29 0.87 0.01 -0.02 8855
0.88 -0.04 0.84 -1.94 11.06 0.95 -0.00 -0.03 8861
0.93 -0.05 0.46 -1.83 11.04 1.02 -0.02 -0.03 8868
0.95 -0.05 0.57 -1.83 10.71 1.08 -0.00 -0.03 8875
1.00 -0.05 0.50 -2.16 10.88 1.12 -0.05 -0.02 8881
1.02 -0.06 0.42 -2.01 10.99 1.21 -0.05 -0.03 8887
1.04 -0.05 0.72 -2.25 10.79 1.29 -0.04 -0.03 8893
1.07 -0.04 0.71 -2.41 10.58 1.36 -0.04 -0.05 8900
1.05 -0.05 0.69 -2.45 10.98 1.43 -0.01 -0.05 8906
1.08 -0.06 0.86 -2.51 10.74 1.50 -0.01 -0.06 8912
1.05 -0.05 0.60 -2.62 10.73 1.56 0.02 -0.08 8919
1.01 -0.05 0.85 -2.95 10.53 1.61 0.05 -0.08 8925
1.00 -0.03 0.62 -2.95 10.63 1.70 0.08 -0.07 8932
0.97 -0.05 0.49 -2.79 11.58 1.75 0.12 -0.06 8938
0.96 -0.05 0.88 -3.09 11.67 1.86 0.13 -0.06 8944
0.88 -0.04 1.17 -3.03 11.26 1.97 0.14 -0.08 8950
0.82 -0.05 1.41 -3.41 11.58 2.10 0.16 -0.13 8957
0.78 -0.04 1.29 -3.40 12.37 2.29 0.13 -0.17 8964
0.73 -0.03 1.23 -3.73 12.10 2.49 0.10 -0.21 8970
0.70 -0.04 1.07 -3.74 12.27 2.69 0.10 -0.24 8976
0.62 -0.03 0.77 -3.78 13.64 2.94 0.13 -0.26 8982
0.60 -0.03 1.26 -4.17 15.11 3.21 0.13 -0.28 8989
0.54 -0.03 2.05 -5.23 16.53 3.58 0.16 -0.29 8995
0.50 -0.03 1.62 -5.28 17.37 3.94 0.15 -0.30 9001
0.47 -0.03 2.36 -6.97 18.23 4.16 0.11 -0.32 9008
0.46 -0.03 2.16 -8.08 17.96 4.26 0.07 -0.37 9015
0.44 -0.03 2.96 -8.30 19.65 4.28 0.05 -0.41 9021
0.39 -0.04 2.37 -8.44 20.30 4.28 0.06 -0.44 9027
0.35 -0.02 1.76 -8.84 19.87 4.28 0.04 -0.46 9033
0.32 -0.02 1.77 -8.30 19.92 4.28 -0.10 -0.47 9039
0.29 -0.02 2.98 -7.67 20.09 4.28 -0.12 -0.49 9047
0.24 -0.01 3.14 -7.39 20.31 4.28 -0.02 -0.53 9053
0.26 -0.02 3.94 -7.51 19.35 4.28 0.10 -0.57 9059
0.19 -0.02 3.20 -6.23 18.50 4.26 0.13 -0.62 9065
0.20 -0.01 3.19 -5.13 17.87 4.24 0.13 -0.67 9071
0.17 -0.01 3.51 -3.92 17.03 4.22 0.13 -0.72 9078
0.15 -0.01 3.94 -2.13 15.78 4.21 0.16 -0.78 9084
0.17 -0.02 4.41 -1.13 15.62 4.22 0.20 -0.85 9091
0.13 -0.01 4.39 0.20 16.73 4.27 0.27 -0.94 9097
0.08 -0.01 3.93 1.28 17.91 4.28 0.42 -1.06 9103
0.09 -0.01 3.09 2.16 17.41 4.28 0.59 -1.19 9110
0.11 -0.01 2.24 6.06 14.57 4.28 0.70 -1.35 9116
0.07 -0.01 3.09 9.95 6.31 4.28 0.89 -1.59 9122
0.08 -0.00 1.68 13.63 3.56 4.27 0.78 -2.21 9128
0.08 -0.01 2.31 13.92 3.46 2.47 0.71 -2.66 9135
0.07 -0.01 1.28 14.84 17.42 0.70 0.93 -2.79 9141
0.08 0.00 1.80 8.17 21.90 -0.62 1.24 -2.77 9148
0.07 -0.01 0.12 7.28 18.72 -1.64 1.14 -2.76 9154
0.06 -0.01 -1.55 8.87 14.56 -2.43 0.77 -2.69 9160
0.07 -0.00 -1.34 7.82 11.89 -2.85 0.37 -2.49 9166
0.07 -0.01 -0.08 5.73 10.50 -3.21 0.03 -2.25 9172
0.06 -0.01 1.10 4.05 8.71 -3.42 -0.13 -2.06 9179
0.07 -0.01 1.98 3.39 7.37 -3.53 -0.29 -1.88 9186
0.08 -0.01 2.29 2.87 6.48 -3.60 -0.37 -1.75 9192
0.07 -0.00 2.75 2.45 5.99 -3.62 -0.38 -1.57 9198
0.06 -0.01 3.13 1.97 5.60 -3.60 -0.36 -1.38 9204
0.07 0.01 3.32 1.76 5.47 -3.56 -0.30 -1.20 9210
0.07 -0.01 3.31 1.72 5.46 -3.51 -0.23 -1.01 9217
0.07 -0.01 3.36 1.68 5.79 -3.46 -0.19 -0.82 9223
0.06 -0.01 3.83 1.56 6.40 -3.43 -0.15 -0.65 9229
0.08 -0.01 4.17 1.55 7.30 -3.42 -0.07 -0.51 9236
0.06 -0.01 4.64 1.54 7.93 -3.45 0.09 -0.34 9242
0.06 -0.01 4.97 1.38 8.70 -3.52 0.33 -0.17 9248
0.06 -0.01 5.09 1.23 9.52 -3.62 0.61 -0.01 9254
0.07 -0.00 4.84 0.98 10.32 -3.74 0.87 0.15 9261
0.05 -0.00 4.36 0.55 11.11 -3.90 1.09 0.29 9267
0.05 -0.00 3.79 0.09 11.68 -4.06 1.22 0.42 9273
0.05 0.00 3.14 -0.46 12.08 -4.16 1.31 0.55 9280
0.05 -0.01 2.58 -1.33 12.18 -4.22 1.34 0.63 9286
0.04 -0.00 2.13 -2.17 12.19 -4.25 1.34 0.72 9292
0.05 -0.01 1.89 -3.30 12.19 -4.25 1.33 0.78 9298
0.04 -0.00 1.76 -4.40 12.20 -4.23 1.34 0.82 9305
0.05 -0.00 1.64 -5.28 12.30 -4.19 1.38 0.83 9311
0.05 0.01 1.51 -5.92 12.42 -4.11 1.44 0.83 9318
0.06 -0.01 1.38 -6.28 12.70 -3.98 1.51 0.83 9324
0.05 -0.00 1.13 -6.49 13.34 -3.87 1.56 0.83 9330
0.05 0.00 0.82 -6.38 14.14 -3.74 1.59 0.85 9336
0.06 -0.00 0.61 -6.30 14.83 -3.64 1.62 0.87 9342
0.04 -0.00 0.41 -6.39 15.36 -3.57 1.61 0.89 9350
0.05 0.00 0.25 -6.38 15.89 -3.51 1.60 0.91 9356
0.05 -0.00 0.18 -6.51 16.44 -3.45 1.56 0.93 9362
0.05 -0.00 0.16 -6.67 16.81 -3.39 1.53 0.95 9368
0.05 -0.00 0.20 -7.01 17.28 -3.33 1.53 0.96 9374
0.05 -0.01 0.32 -7.34 17.52 -3.28 1.53 0.95 9380
0.06 -0.01 0.31 -7.76 17.69 -3.22 1.51 0.93 9388
0.05 -0.01 0.31 -8.12 17.85 -3.17 1.48 0.90 9394
0.06 -0.01 0.46 -8.66 17.81 -3.10 1.46 0.86 9400
0.05 -0.00 1.15 -9.17 17.66 -3.03 1.43 0.81 9406
0.05 -0.01 0.66 -9.67 17.42 -2.93 1.39 0.77 9412
0.07 -0.01 0.92 -10.11 17.03 -2.81 1.35 0.74 9418
0.05 -0.01 1.08 -10.72 16.77 -2.65 1.30 0.71 9425
0.05 -0.01 1.10 -11.41 16.39 -2.46 1.24 0.71 9432
0.06 -0.01 0.94 -12.09 16.19 -2.27 1.15 0.72 9438
0.05 -0.01 0.77 -12.62 15.95 -2.07 1.04 0.75 9444
0.05 0.01 0.48 -12.97 15.67 -1.89 0.93 0.79 9451
0.06 -0.00 0.26 -13.16 15.27 -1.73 0.80 0.85 9457
0.05 -0.00 0.04 -13.43 15.11 -1.61 0.68 0.92 9463
0.07 -0.00 -0.06 -13.81 15.02 -1.52 0.56 1.01 9469
0.06 -0.01 -0.05 -14.18 14.70 -1.49 0.45 1.09 9476
0.06 -0.00 0.05 -14.56 14.14 -1.50 0.40 1.17 9483
0.07 -0.01 0.32 -14.73 13.31 -1.57 0.44 1.24 9489
0.07 -0.01 0.08 -14.57 11.93 -1.68 0.63 1.33 9495
0.06 0.00 -0.83 -15.04 10.60 -1.80 1.03 1.48 9501
0.07 -0.00 -2.66 -15.78 9.54 -1.87 1.43 1.68 9508
0.05 -0.01 -4.99 -16.87 8.84 -1.87 1.66 1.85 9515
0.07 -0.00 -7.53 -18.75 7.92 -1.80 1.61 1.96 9521
0.07 -0.01 -9.67 -20.17 6.76 -1.66 1.21 1.97 9527
0.06 -0.01 -10.25 -21.60 5.30 -1.49 0.73 1.86 9533
0.07 -0.01 -9.85 -22.82 3.74 -1.25 0.13 1.62 9540
0.06 -0.01 -9.23 -29.25 3.19 -0.91 -0.38 1.28 9546
0.06 -0.01 -10.00 -33.39 6.48 0.19 -0.93 0.88 9552
0.07 -0.00 -7.51 -26.88 -4.90 0.94 -1.20 0.37 9559
0.07 -0.01 -8.69 -28.89 -0.41 1.41 -1.53 -0.09 9565
0.07 -0.00 -8.62 -24.58 5.33 1.97 -2.00 -0.34 9572
0.09 0.00 -3.98 -8.40 5.58 2.17 -2.30 -0.48 9578
0.07 0.04 0.07 4.57 13.04 2.09 -2.20 -0.52 9584
0.05 0.13 4.57 4.35 16.18 1.86 -1.62 -0.32 9590
0.06 0.25 5.37 7.36 14.03 1.59 -0.81 0.01 9596
0.04 0.32 2.33 0.91 10.16 1.57 -0.26 0.22 9604
0.05 0.36 -0.90 -1.37 9.26 2.08 -0.17 0.27 9610
0.05 0.44 -2.76 -3.28 13.14 2.52 -0.22 0.19 9616
0.06 0.51 -2.34 -3.03 13.12 2.92 -0.20 0.01 9622
0.05 0.60 -1.00 -2.77 18.91 3.24 -0.12 -0.17 9628
0.05 0.69 0.61 -2.54 21.35 3.32 0.04 -0.31 9635
0.04 0.75 2.29 -2.27 18.17 2.90 -0.10 -0.33 9641
0.05 0.77 2.72 -2.60 17.56 2.56 -0.41 -0.29 9648
0.07 0.82 2.46 -2.25 16.37 2.07 -1.04 -0.23 9654
0.07 0.85 3.12 -2.54 14.57 1.52 -1.31 0.03 9661
0.07 0.90 0.93 -1.86 12.83 1.06 -1.09 0.23 9667
0.06 0.94 -0.93 -1.58 12.21 0.78 -0.87 0.24 9673
0.06 0.97 -0.78 -1.31 11.64 0.48 -0.63 0.16 9679
0.07 1.00 0.09 -1.10 10.51 0.22 -0.34 0.12 9686
0.06 1.00 0.38 -1.91 10.13 0.16 -0.22 0.13 9693
0.06 1.02 0.35 -1.22 10.17 0.14 -0.19 0.15 9699
0.06 1.02 0.23 -1.11 10.19 0.09 -0.12 0.15 9705
0.06 1.02 0.26 -1.04 9.93 0.06 -0.07 0.13 9711
0.07 1.04 0.50 -1.08 10.00 0.05 -0.05 0.14 9717
0.07 1.03 0.41 -1.06 9.97 0.04 -0.05 0.15 9723
0.07 1.04 0.39 -0.99 9.97 0.03 -0.04 0.14 9731
0.07 1.05 0.42 -1.01 9.98 0.02 -0.04 0.14 9737
0.08 1.04 0.44 -0.99 9.87 0.02 -0.04 0.13 9743
0.08 1.03 0.41 -1.02 9.87 0.02 -0.04 0.13 9749
0.07 1.01 0.37 -0.98 9.89 0.02 -0.03 0.14 9755
0.07 1.00 0.41 -0.99 9.89 0.02 -0.02 0.14 9761
0.08 0.98 0.38 -1.00 9.89 0.03 -0.01 0.14 9767
0.07 0.94 0.40 -0.99 9.87 0.03 0.01 0.14 9775
0.07 0.91 0.39 -1.00 9.93 0.03 0.02 0.14 9781
0.08 0.90 0.39 -1.02 10.03 0.04 0.03 0.14 9787
0.08 0.87 0.43 -1.01 9.98 0.04 0.03 0.15 9793
0.08 0.85 0.42 -1.02 9.90 0.04 0.04 0.14 9799
0.09 0.82 0.48 -1.03 9.91 0.05 0.05 0.14 9805
0.09 0.79 0.50 -1.03 9.89 0.04 0.05 0.14 9811
0.09 0.75 0.49 -0.99 9.89 0.04 0.04 0.12 9819
0.09 0.71 0.51 -1.03 9.87 0.04 0.03 0.13 9825
0.11 0.69 0.53 -1.04 9.91 0.04 0.02 0.12 9831
0.09 0.71 0.54 -1.03 9.90 0.03 0.01 0.12 9837
0.08 0.70 0.50 -1.04 9.89 0.03 0.01 0.11 9843
0.09 0.67 0.52 -1.05 9.87 0.03 0.00 0.12 9849
0.10 0.64 0.46 -1.08 9.88 0.03 0.00 0.12 9856
0.09 0.62 0.49 -1.05 9.92 0.03 0.01 0.11 9862
0.09 0.61 0.46 -1.05 9.94 0.03 0.01 0.11 9869
0.11 0.59 0.50 -1.11 9.97 0.04 0.02 0.12 9875
0.10 0.56 0.52 -1.04 9.92 0.03 0.02 0.11 9881
0.09 0.54 0.53 -1.09 9.96 0.04 0.02 0.12 9887
0.09 0.56 0.54 -1.10 9.90 0.04 0.01 0.12 9893
0.12 0.52 0.56 -1.10 9.92 0.04 0.01 0.12 9900
0.10 0.46 0.62 -1.08 9.89 0.04 -0.00 0.11 9906
0.11 0.43 0.59 -1.09 9.86 0.03 -0.01 0.11 9913
0.11 0.44 0.60 -1.09 9.93 0.03 -0.02 0.10 9919
0.12 0.39 0.61 -1.06 9.91 0.03 -0.02 0.10 9925
0.10 0.39 0.60 -1.08 9.85 0.03 -0.03 0.10 9931
0.12 0.38 0.61 -1.14 9.84 0.03 -0.03 0.10 9937
0.12 0.34 0.58 -1.13 9.89 0.03 -0.04 0.09 9944
0.11 0.31 0.61 -1.20 9.98 0.03 -0.05 0.09 9950
0.13 0.31 0.59 -1.20 9.94 0.03 -0.06 0.09 9957
0.15 0.30 0.57 -1.14 9.94 0.03 -0.07 0.08 9963
0.13 0.30 0.57 -1.15 9.95 0.03 -0.07 0.08 9969
0.11 0.26 0.49 -0.96 10.03 0.03 -0.08 0.08 9975
0.14 0.24 0.57 -1.19 9.92 0.02 -0.09 0.08 9981
0.14 0.18 0.59 -1.17 9.91 0.02 -0.10 0.07 9988
0.15 0.17 0.58 -1.18 9.91 0.02 -0.11 0.07 9994
0.16 0.17 0.58 -1.12 9.87 0.02 -0.13 0.06 10001
0.15 0.15 0.62 -1.11 9.89 0.01 -0.14 0.06 10007
0.18 0.11 0.57 -1.19 9.92 0.01 -0.14 0.06 10013
0.19 0.14 0.56 -1.21 9.90 0.01 -0.14 0.06 10019
0.19 0.10 0.50 -1.19 9.95 0.01 -0.13 0.05 10025
0.18 0.08 0.52 -1.20 9.97 0.01 -0.13 0.05 10033
0.21 0.15 0.60 -1.18 10.08 0.01 -0.12 0.05 10039
0.23 0.12 0.58 -1.06 10.04 0.00 -0.12 0.04 10045
0.25 0.09 0.47 -1.18 9.93 0.01 -0.12 0.04 10051
0.26 0.06 0.72 -1.76 9.87 0.01 -0.12 0.04 10057
0.26 0.07 0.48 -1.23 9.92 0.01 -0.11 0.04 10064
0.28 0.07 1.05 -0.91 9.76 0.01 -0.10 0.03 10071
0.34 0.03 0.50 -1.26 9.96 0.01 -0.10 0.04 10077
0.34 -0.00 0.68 -1.18 9.85 0.01 -0.10 0.03 10083
0.37 0.01 0.49 -0.66 9.92 0.02 -0.09 0.04 10089
0.43 -0.01 0.45 -0.98 10.05 0.03 -0.06 0.04 10096
0.47 -0.03 0.41 -1.36 10.07 0.05 -0.04 0.05 10102
0.47 -0.03 0.39 -1.16 10.41 0.05 -0.02 0.03 10108
0.46 -0.03 0.37 -1.22 9.97 0.07 -0.01 0.05 10115
0.50 -0.03 0.52 -1.09 10.04 0.08 0.00 0.05 10121
0.53 -0.02 0.36 -1.55 10.03 0.08 0.01 0.05 10128
0.56 -0.04 0.48 -1.21 10.03 0.09 0.02 0.06 10134
0.55 -0.04 0.43 -1.30 10.05 0.10 0.02 0.06 10140
0.60 -0.04 0.49 -1.24 10.10 0.12 0.02 0.05 10146
0.61 -0.04 0.55 -1.31 10.08 0.14 0.03 0.06 10153
0.63 -0.03 0.54 -1.25 10.10 0.17 0.04 0.05 10160
0.64 -0.04 0.61 -1.39 10.17 0.20 0.04 0.04 10166
0.65 -0.04 0.73 -1.52 10.30 0.26 0.04 0.04 10172
0.71 -0.03 0.73 -1.39 10.51 0.33 0.02 0.03 10179
0.71 -0.04 0.68 -1.47 10.67 0.46 -0.01 0.02 10185
0.75 -0.04 0.48 -1.50 11.17 0.62 -0.04 0.01 10191
0.76 -0.04 0.48 -1.70 10.82 0.79 -0.03 0.01 10198
0.78 -0.04 0.37 -1.51 11.28 0.87 0.04 0.02 10205
0.81 -0.04 0.51 -1.61 11.21 0.95 0.08 0.01 10211
0.85 -0.05 0.61 -1.79 11.16 1.06 0.08 -0.01 10217
0.85 -0.04 0.71 -1.73 11.10 1.09 0.06 -0.02 10223
0.86 -0.04 0.66 -1.81 11.24 1.15 0.04 -0.03 10230
0.88 -0.04 0.90 -2.98 10.73 1.22 0.04 -0.03 10236
0.89 -0.04 0.62 -2.03 11.15 1.29 0.01 -0.04 10243
0.88 -0.04 0.66 -2.26 11.13 1.37 0.01 -0.06 10249
0.90 -0.04 0.74 -2.27 11.60 1.46 -0.02 -0.06 10256
0.88 -0.04 0.73 -2.42 11.31 1.56 -0.04 -0.07 10262
0.86 -0.05 0.57 -2.55 10.95 1.66 -0.06 -0.08 10268
0.85 -0.04 0.57 -2.69 11.26 1.73 -0.05 -0.08 10274
0.89 -0.04 0.76 -2.88 11.23 1.81 -0.03 -0.08 10281
0.84 -0.03 1.13 -2.79 10.68 1.89 -0.01 -0.09 10288
0.81 -0.05 1.01 -3.02 11.27 1.96 0.07 -0.12 10294
0.72 -0.04 0.89 -3.18 12.00 2.06 0.11 -0.14 10300
0.73 -0.04 0.93 -3.18 12.47 2.19 0.14 -0.17 10307
0.64 -0.04 1.00 -3.44 12.36 2.34 0.12 -0.18 10313
0.58 -0.02 0.83 -3.73 13.20 2.57 0.15 -0.20 10319
0.58 -0.03 0.66 -3.88 14.16 2.85 0.18 -0.21 10327
0.53 -0.02 0.83 -4.05 14.68 3.14 0.18 -0.21 10333
0.48 -0.03 0.86 -4.51 15.81 3.45 0.21 -0.22 10339
0.41 -0.03 1.48 -5.37 16.55 3.79 0.19 -0.24 10345
0.42 -0.02 1.94 -6.61 17.49 4.08 0.17 -0.27 10352
0.40 -0.04 1.97 -6.85 17.97 4.22 0.14 -0.31 10358
0.33 -0.01 2.26 -7.19 18.81 4.27 0.12 -0.35 10364
0.35 -0.02 2.70 -8.48 19.91 4.28 0.15 -0.38 10371
0.29 -0.02 1.11 -8.16 19.85 4.28 0.11 -0.41 10378
0.27 -0.02 1.66 -7.68 20.28 4.28 -0.05 -0.41 10384
0.25 -0.03 3.27 -7.40 19.67 4.28 -0.05 -0.44 10390
0.22 -0.01 2.66 -7.13 19.95 4.28 0.07 -0.50 10397
0.22 -0.02 2.80 -7.00 19.30 4.27 0.08 -0.53 10403
0.19 -0.02 2.68 -6.17 18.53 4.26 0.11 -0.57 10409
0.17 -0.01 3.28 -4.98 18.21 4.23 0.15 -0.60 10416
0.14 -0.01 3.56 -3.48 17.29 4.22 0.19 -0.65 10422
0.16 -0.01 3.44 -2.00 16.75 4.22 0.21 -0.72 10429
0.15 -0.02 3.40 -0.17 18.18 4.27 0.20 -0.80 10435
0.12 -0.01 2.88 0.78 18.19 4.28 0.21 -0.87 10441
0.11 -0.01 2.36 2.23 16.10 4.28 0.23 -0.96 10447
0.10 -0.01 1.90 2.97 13.75 4.28 0.22 -1.05 10455
0.08 -0.01 3.66 6.92 10.58 4.28 0.27 -1.17 10461
0.10 -0.01 1.30 10.03 5.27 4.28 0.01 -1.52 10467
0.08 -0.01 1.68 14.14 5.82 3.89 -0.33 -2.10 10473
0.09 -0.01 2.74 14.56 10.08 1.93 -0.51 -2.37 10479
0.08 -0.01 3.59 10.87 20.90 0.48 -0.13 -2.36 10486
0.07 -0.01 4.12 7.73 20.48 -0.68 0.40 -2.28 10492
0.07 -0.01 2.79 8.91 16.39 -1.61 0.56 -2.25 10499
0.07 -0.01 1.50 9.61 12.78 -2.34 0.46 -2.19 10505
0.06 -0.01 1.22 7.73 10.48 -2.82 0.35 -2.06 10512
0.08 -0.01 1.78 5.36 9.28 -3.09 0.28 -1.92 10518
0.07 -0.01 2.24 3.92 7.80 -3.20 0.20 -1.81 10524
0.06 -0.01 2.21 3.39 6.59 -3.26 0.12 -1.72 10530
0.08 -0.01 2.23 2.99 5.68 -3.29 0.05 -1.61 10536
0.07 -0.00 2.52 1.94 5.37 -3.30 0.02 -1.49 10543
0.06 -0.01 2.94 2.23 5.49 -3.29 0.01 -1.34 10550
0.06 -0.00 3.03 2.17 5.60 -3.30 0.04 -1.22 10556
0.06 -0.01 3.12 2.30 6.16 -3.33 0.07 -1.05 10562
0.05 -0.01 3.38 2.52 6.82 -3.39 0.07 -0.86 10568
0.08 -0.01 3.82 2.64 7.43 -3.47 0.08 -0.67 10574
0.07 -0.01 4.24 2.71 7.98 -3.55 0.12 -0.47 10580
0.05 -0.01 4.46 2.51 8.57 -3.65 0.22 -0.27 10588
0.05 -0.00 4.65 2.00 9.07 -3.76 0.39 -0.07 10594
0.06 -0.01 4.66 1.31 9.63 -3.85 0.55 0.09 10600
0.05 -0.01 4.43 0.85 9.96 -3.95 0.77 0.21 10606
0.05 -0.00 3.90 0.26 10.22 -4.03 0.96 0.32 10612
0.08 -0.01 3.38 -0.39 10.57 -4.10 1.10 0.41 10618
0.07 -0.01 2.84 -1.11 10.90 -4.13 1.20 0.47 10626
0.06 -0.01 2.45 -1.80 11.29 -4.15 1.27 0.52 10632
0.08 -0.01 2.05 -2.48 11.71 -4.15 1.33 0.55 10638
0.07 -0.01 1.87 -3.23 12.32 -4.12 1.37 0.57 10644
0.07 -0.01 1.64 -3.90 13.09 -4.09 1.42 0.57 10650
0.07 -0.01 1.33 -4.51 13.82 -4.05 1.46 0.55 10657
0.07 -0.01 1.02 -5.12 14.53 -4.02 1.49 0.53 10663
0.06 -0.00 0.86 -5.77 15.12 -3.99 1.52 0.50 10670
0.06 -0.01 0.71 -6.31 15.43 -3.95 1.54 0.49 10676
0.05 -0.01 0.57 -6.78 15.72 -3.90 1.53 0.49 10683
0.07 -0.01 0.40 -7.03 15.81 -3.83 1.49 0.52 10689
0.06 -0.01 0.29 -7.18 15.72 -3.74 1.45 0.57 10695
0.05 -0.01 0.26 -7.24 15.89 -3.62 1.39 0.64 10701
0.08 -0.01 0.38 -7.27 16.27 -3.49 1.34 0.72 10707
0.07 -0.01 0.51 -7.47 16.58 -3.35 1.33 0.78 10715
0.07 -0.01 0.47 -7.73 17.00 -3.21 1.35 0.87 10721
0.07 -0.01 0.28 -8.18 17.29 -3.07 1.37 0.88 10727
0.07 -0.01 0.03 -8.69 17.60 -2.94 1.37 0.91 10733
0.07 -0.00 -0.17 -9.25 17.82 -2.82 1.34 0.92 10739
0.08 -0.01 -0.38 -9.72 17.67 -2.70 1.24 0.93 10746
0.06 -0.01 -0.43 -10.26 17.36 -2.58 1.12 0.94 10753
0.09 -0.01 -0.23 -10.83 17.02 -2.46 1.02 0.94 10759
0.07 -0.01 0.10 -11.40 16.87 -2.33 0.96 0.95 10765
0.08 0.00 0.41 -11.87 16.73 -2.19 0.94 0.96 10772
0.08 -0.01 0.69 -12.15 16.62 -2.07 0.99 0.97 10778
0.07 -0.01 0.94 -12.32 16.50 -1.97 1.09 1.00 10784
0.08 -0.01 0.97 -12.48 16.45 -1.92 1.20 1.03 10790
0.08 -0.01 0.89 -12.58 16.29 -1.91 1.31 1.07 10798
0.08 -0.00 0.82 -12.92 16.04 -1.94 1.38 1.11 10804
0.08 -0.01 0.86 -13.57 15.56 -1.99 1.43 1.18 10810
0.07 -0.01 0.77 -14.35 14.78 -2.04 1.44 1.25 10817
0.07 -0.01 0.76 -15.21 13.82 -2.07 1.43 1.32 10823
0.05 -0.01 0.56 -16.03 12.52 -2.08 1.38 1.39 10829
0.08 -0.01 0.20 -16.66 11.14 -2.04 1.32 1.44 10835
0.06 -0.01 -0.27 -17.25 9.73 -1.94 1.24 1.46 10843
0.06 -0.01 -0.91 -17.46 8.06 -1.78 1.17 1.46 10849
0.07 -0.01 -1.92 -17.02 6.01 -1.57 1.18 1.48 10855
0.06 -0.01 -3.63 -16.91 4.62 -1.29 1.38 1.59 10861
0.06 -0.00 -5.61 -17.40 4.65 -0.99 1.64 1.76 10868
0.06 -0.01 -7.38 -18.57 5.54 -0.74 1.60 1.83 10874
0.05 -0.00 -8.31 -18.93 6.19 -0.59 1.06 1.71 10881
0.08 -0.01 -8.13 -18.86 5.95 -0.44 0.31 1.48 10887
0.06 -0.01 -6.68 -18.61 5.34 -0.34 -0.28 1.22 10893
0.06 -0.01 -5.22 -18.24 4.59 -0.17 -0.54 0.96 10900
0.07 -0.01 -3.99 -17.72 4.47 0.04 -0.60 0.69 10906
0.06 -0.01 -14.61 -29.33 15.22 0.44 -1.09 0.44 10912
0.06 -0.01 -7.37 -19.57 1.21 1.63 -1.70 0.18 10918
0.06 -0.01 -6.74 -12.10 1.66 1.96 -2.24 -0.09 10926
0.06 -0.01 -2.82 -6.10 8.28 2.00 -2.64 -0.31 10932
0.07 0.00 0.66 3.44 15.79 1.97 -2.67 -0.41 10938
0.06 0.01 2.79 7.03 14.83 1.65 -2.22 -0.27 10944
0.05 0.11 5.12 5.08 12.25 1.22 -1.70 -0.03 10950
0.05 0.17 3.53 4.87 9.10 1.02 -1.17 0.21 10957
0.04 0.27 1.60 0.22 7.36 1.31 -0.79 0.35 10963
0.05 0.32 -1.13 -1.03 8.85 1.99 -0.65 0.41 10970
0.04 0.35 -2.74 -1.95 11.58 2.52 -0.54 0.36 10976
0.04 0.44 -2.46 -2.29 13.51 2.87 -0.31 0.24 10983
0.05 0.56 -3.10 -2.35 18.85 3.03 -0.06 0.06 10989
0.04 0.59 -3.12 -2.34 19.92 2.94 0.06 -0.22 10995
0.04 0.73 0.35 -2.30 17.51 2.63 -0.01 -0.44 11001
0.04 0.75 2.55 -2.19 16.37 2.49 -0.06 -0.46 11009
0.04 0.78 3.31 -2.41 17.21 2.29 -0.46 -0.38 11015
0.04 0.79 3.98 -2.32 15.34 1.69 -1.10 -0.22 11021
0.02 0.82 2.98 -2.39 13.26 1.10 -1.04 0.09 11028
0.04 0.83 0.35 -1.85 11.70 0.82 -0.83 0.27 11034
0.05 0.82 -0.26 -0.97 11.26 0.69 -0.76 0.21 11040
0.06 0.87 0.77 -0.59 11.29 0.54 -0.66 0.14 11046
0.05 0.90 -0.03 -1.42 10.77 0.35 -0.47 0.14 11054
0.04 0.91 0.40 -1.50 10.12 0.27 -0.37 0.16 11060
0.07 0.94 1.27 -1.12 10.33 0.22 -0.30 0.14 11066
0.05 0.95 0.36 -1.14 10.42 0.16 -0.23 0.13 11072
0.04 0.95 0.39 -1.04 10.10 0.11 -0.16 0.11 11079
0.05 0.97 0.53 -1.09 9.95 0.09 -0.14 0.12 11085
0.05 0.99 0.48 -1.12 9.98 0.07 -0.11 0.12 11091
0.07 1.00 0.45 -1.01 9.86 0.06 -0.10 0.13 11098
0.04 1.00 0.46 -0.98 9.95 0.05 -0.08 0.12 11104
0.03 1.03 0.51 -1.03 9.87 0.05 -0.08 0.12 11111
0.06 1.03 0.46 -0.94 9.87 0.05 -0.06 0.13 11117
0.05 1.02 0.44 -0.99 9.92 0.05 -0.05 0.14 11123
0.05 1.00 0.41 -0.97 9.84 0.05 -0.03 0.14 11129
0.07 0.99 0.43 -0.99 9.92 0.05 -0.01 0.14 11136
0.06 0.96 0.35 -1.05 9.87 0.04 0.01 0.14 11143
0.05 0.91 0.43 -0.98 9.92 0.04 0.04 0.15 11149
0.08 0.89 0.45 -1.05 9.98 0.05 0.06 0.15 11155
0.06 0.87 0.45 -1.03 10.00 0.05 0.07 0.14 11161
0.07 0.85 0.44 -1.05 9.96 0.05 0.09 0.15 11167
0.07 0.82 0.54 -1.03 9.92 0.05 0.11 0.15 11174
0.09 0.78 0.56 -1.05 9.91 0.05 0.11 0.15 11181
0.08 0.77 0.63 -1.01 9.90 0.06 0.11 0.14 11187
0.09 0.73 0.63 -1.00 9.91 0.06 0.10 0.14 11193
0.08 0.67 0.69 -1.08 9.86 0.06 0.08 0.13 11199
0.09 0.65 0.61 -1.06 9.84 0.06 0.07 0.13 11205
0.09 0.61 0.63 -1.11 9.95 0.06 0.06 0.11 11212
0.08 0.57 0.61 -1.15 9.89 0.06 0.05 0.12 11218
0.08 0.56 0.61 -1.12 9.92 0.06 0.06 0.11 11225
0.10 0.52 1.22 -1.10 9.93 0.06 0.07 0.11 11231
0.09 0.50 0.60 -1.09 9.98 0.06 0.07 0.11 11237
0.09 0.48 0.61 -1.12 9.95 0.06 0.07 0.11 11244
0.10 0.42 0.66 -1.12 9.95 0.06 0.08 0.12 11250
0.08 0.38 0.67 -1.10 9.88 0.06 0.07 0.12 11256
0.09 0.37 0.64 -1.12 9.91 0.06 0.07 0.11 11262
0.10 0.35 0.68 -1.18 9.90 0.05 0.07 0.12 11269
0.09 0.31 0.71 -1.11 9.89 0.05 0.06 0.11 11276
0.10 0.28 0.75 -1.16 9.89 0.05 0.06 0.11 11282
0.10 0.25 0.73 -1.16 9.84 0.05 0.05 0.11 11288
0.10 0.20 0.76 -1.18 9.92 0.05 0.05 0.10 11294
0.11 0.20 0.73 -1.16 9.92 0.04 0.04 0.10 11300
0.11 0.17 0.76 -1.17 9.86 0.04 0.04 0.09 11308
0.10 0.17 0.77 -1.18 9.88 0.03 0.04 0.09 11314
0.11 0.18 0.75 -1.24 9.96 0.03 0.03 0.09 11320
0.12 0.15 0.74 -0.62 9.87 0.03 0.02 0.09 11326
0.11 0.15 0.74 -1.21 9.91 0.03 0.02 0.08 11332
0.11 0.15 0.79 -1.24 9.92 0.03 0.01 0.08 11338
0.11 0.13 0.74 -1.21 9.89 0.03 -0.00 0.08 11345
0.11 0.10 0.73 -1.20 9.92 0.03 -0.01 0.08 11352
0.11 0.12 0.81 -1.21 9.90 0.02 -0.02 0.07 11358
0.11 0.09 0.82 -1.25 9.91 0.02 -0.03 0.08 11364
0.11 0.08 0.78 -1.20 9.90 0.02 -0.04 0.07 11370
0.11 0.08 0.78 -1.19 9.89 0.01 -0.04 0.06 11377
0.13 0.06 0.76 -1.10 9.87 0.01 -0.06 0.07 11383
0.12 0.05 0.80 -1.20 9.92 0.01 -0.07 0.06 11389
0.13 0.06 0.79 -1.25 9.90 0.00 -0.08 0.06 11396
0.12 0.06 0.78 -0.62 9.90 0.00 -0.08 0.05 11402
0.12 0.04 0.83 -1.19 9.89 0.00 -0.09 0.06 11408
0.13 0.05 0.77 -1.27 9.89 0.00 -0.10 0.05 11415
0.13 0.04 0.84 -1.23 9.92 -0.00 -0.10 0.05 11421
0.12 0.03 0.80 -1.21 9.92 -0.01 -0.12 0.05 11427
0.13 0.06 0.82 -1.26 9.87 -0.01 -0.13 0.04 11433
0.14 0.04 0.74 -1.25 9.91 -0.01 -0.15 0.04 11440
0.14 0.04 0.76 -1.27 9.90 -0.01 -0.16 0.03 11447
0.14 0.05 0.76 -1.24 9.93 -0.01 -0.18 0.04 11453
0.16 0.02 0.64 -1.15 9.96 -0.02 -0.19 0.02 11459
0.16 0.00 0.77 -1.26 9.96 -0.01 -0.20 0.02 11465
0.19 0.01 0.12 -2.10 10.51 -0.01 -0.21 0.02 11471
0.20 -0.00 0.71 -1.30 9.98 -0.01 -0.22 0.01 11479
0.20 0.01 0.65 -0.71 10.06 -0.01 -0.23 0.00 11485
0.26 0.00 0.63 -1.23 9.98 -0.01 -0.24 0.00 11491
0.23 0.01 0.74 -1.46 9.94 -0.01 -0.24 -0.01 11497
0.28 0.00 0.62 -1.02 9.91 -0.01 -0.24 -0.02 11503
0.33 -0.00 0.96 -0.73 9.96 -0.01 -0.24 -0.03 11510
0.32 -0.00 0.65 -1.56 9.83 -0.00 -0.22 -0.03 11516
0.35 0.00 0.51 -1.09 9.87 0.01 -0.21 -0.03 11523
0.41 -0.01 0.17 -1.80 9.98 0.02 -0.19 -0.02 11529
0.48 -0.03 0.37 -1.90 9.85 0.03 -0.18 -0.01 11535
0.50 -0.04 0.51 -1.60 10.22 0.05 -0.17 -0.02 11542
0.59 -0.04 0.48 -1.47 10.05 0.08 -0.17 -0.01 11548
0.61 -0.04 0.48 -1.33 10.21 0.09 -0.16 -0.02 11554
0.67 -0.03 0.45 -1.32 10.15 0.12 -0.17 -0.03 11560
0.74 -0.04 0.55 -1.30 10.23 0.16 -0.18 -0.03 11568
0.77 -0.04 0.59 -1.47 10.31 0.20 -0.19 -0.04 11574
0.85 -0.05 0.57 -1.49 10.49 0.30 -0.23 -0.06 11580
0.92 -0.05 0.65 -1.35 10.60 0.34 -0.26 -0.07 11586
1.00 -0.05 0.62 -1.60 10.62 0.44 -0.30 -0.09 11593
1.04 -0.06 0.72 -1.76 10.99 0.59 -0.35 -0.08 11599
1.12 -0.05 0.54 -1.51 11.54 0.76 -0.38 -0.08 11606
1.19 -0.06 0.35 -1.63 11.75 0.95 -0.39 -0.07 11612
1.20 -0.05 0.29 -1.76 11.74 1.12 -0.39 -0.06 11619
1.24 -0.06 0.30 -1.72 11.74 1.22 -0.35 -0.04 11625
1.26 -0.06 0.27 -1.69 11.80 1.28 -0.30 -0.03 11631
1.30 -0.05 0.26 -2.11 11.65 1.37 -0.23 -0.03 11638
1.31 -0.05 0.15 -1.89 11.35 1.43 -0.19 -0.02 11644
1.33 -0.06 0.22 -2.21 11.44 1.51 -0.18 -0.02 11651
1.35 -0.05 0.15 -2.31 11.53 1.60 -0.16 -0.01 11657
1.30 -0.05 0.11 -2.73 11.66 1.70 -0.16 -0.01 11664
1.33 -0.06 0.43 -2.41 11.57 1.76 -0.12 -0.02 11670
1.29 -0.06 0.82 -2.54 10.86 1.84 -0.10 -0.04 11676
1.24 -0.05 0.36 -3.07 11.81 1.90 -0.06 -0.06 11682
1.23 -0.06 0.44 -2.95 11.86 1.97 -0.07 -0.08 11689
1.14 -0.05 0.27 -2.97 12.11 2.03 -0.06 -0.10 11696
1.09 -0.05 0.38 -3.17 12.66 2.16 -0.03 -0.10 11702
0.99 -0.06 0.39 -3.43 12.77 2.35 0.02 -0.12 11708
0.85 -0.03 0.76 -3.35 13.19 2.55 0.06 -0.13 11715
0.85 -0.04 0.76 -3.39 14.13 2.77 0.09 -0.16 11721
0.68 -0.04 1.17 -3.92 14.78 3.06 0.11 -0.19 11727
0.62 -0.04 1.36 -4.17 14.93 3.37 0.13 -0.24 11735
0.56 -0.04 1.35 -4.76 15.63 3.67 0.14 -0.29 11741
0.55 -0.03 1.46 -5.69 17.18 4.00 0.09 -0.35 11747
0.47 -0.03 1.52 -6.74 18.75 4.19 -0.01 -0.39 11753
0.44 -0.03 1.37 -6.39 18.39 4.27 -0.08 -0.41 11760
0.37 -0.02 1.28 -7.38 19.95 4.28 -0.06 -0.41 11766
0.32 -0.02 -0.01 -7.90 19.66 4.28 -0.09 -0.38 11772
0.34 -0.02 0.54 -8.23 19.63 4.28 -0.16 -0.35 11779
0.29 -0.03 1.51 -7.67 20.05 4.28 -0.20 -0.34 11786
0.27 -0.01 0.86 -7.03 20.23 4.28 -0.16 -0.35 11792
0.28 -0.03 0.52 -6.64 19.53 4.28 -0.21 -0.37 11798
0.20 -0.02 0.74 -5.92 18.55 4.27 -0.34 -0.39 11804
0.21 -0.02 1.79 -5.13 18.57 4.25 -0.41 -0.40 11811
0.19 -0.02 2.82 -4.12 17.76 4.22 -0.37 -0.42 11817
0.13 -0.01 3.99 -2.68 16.65 4.21 -0.30 -0.46 11824
0.15 -0.01 4.39 -1.43 16.12 4.22 -0.23 -0.51 11830
0.15 -0.01 4.51 -0.35 17.80 4.27 -0.14 -0.58 11837
0.11 -0.01 4.17 1.71 17.88 4.28 -0.03 -0.70 11843
0.12 -0.01 4.01 2.18 16.60 4.28 0.18 -0.80 11849
0.09 -0.01 5.62 7.27 7.31 4.28 0.53 -0.93 11855
0.09 -0.01 4.37 9.81 7.62 4.28 0.66 -1.24 11862
0.08 -0.01 3.61 20.61 2.42 4.14 0.59 -1.78 11869
0.07 -0.01 3.88 20.35 9.76 1.96 0.63 -2.28 11875
0.09 -0.01 1.06 15.21 23.84 -0.00 0.84 -2.29 11881
0.08 -0.01 1.19 10.08 24.89 -1.36 1.00 -2.14 11887
0.09 -0.00 -0.42 10.87 19.39 -2.28 0.82 -2.01 11894
0.08 -0.01 -1.28 11.30 13.85 -2.90 0.35 -1.82 11900
0.07 -0.01 -0.29 8.74 11.19 -3.26 -0.07 -1.60 11907
0.09 -0.01 1.46 6.24 9.44 -3.47 -0.37 -1.45 11913
0.08 -0.01 2.38 5.09 8.23 -3.55 -0.49 -1.34 11919
0.07 -0.01 2.94 4.53 7.67 -3.59 -0.43 -1.24 11926
0.08 -0.01 3.50 4.12 7.02 -3.62 -0.25 -1.14 11932
0.08 -0.01 3.81 3.84 6.76 -3.64 -0.04 -1.04 11938
0.07 -0.01 3.55 3.65 6.67 -3.65 0.14 -0.94 11944
0.08 -0.01 3.10 3.54 6.83 -3.66 0.32 -0.81 11951
0.08 -0.01 2.80 3.42 7.37 -3.66 0.42 -0.73 11957
0.08 -0.01 2.79 3.30 8.12 -3.68 0.45 -0.61 11963
0.08 -0.00 2.80 3.18 8.90 -3.73 0.49 -0.49 11970
0.08 -0.01 2.89 2.95 9.66 -3.82 0.55 -0.37 11976
0.08 -0.01 2.97 2.40 10.16 -3.94 0.66 -0.27 11982
0.08 -0.00 3.01 1.75 10.73 -4.04 0.77 -0.17 11988
0.08 -0.01 2.95 1.20 11.05 -4.17 0.88 -0.09 11995
0.07 -0.01 2.77 0.53 11.28 -4.20 0.99 -0.02 12002
0.08 -0.00 2.65 -0.26 11.46 -4.24 1.09 0.02 12008
0.07 -0.01 1.87 -0.96 11.79 -4.26 1.19 0.07 12014
0.09 -0.01 2.35 -1.71 12.08 -4.26 1.23 0.10 12020
0.10 -0.01 2.28 -2.49 12.54 -4.25 1.31 0.12 12027
0.09 -0.01 2.25 -3.21 13.29 -4.23 1.39 0.12 12034
0.09 -0.01 2.00 -3.98 13.92 -4.19 1.50 0.12 12040
0.09 -0.01 1.70 -4.55 14.57 -4.14 1.59 0.12 12046
0.07 -0.01 1.44 -5.02 15.82 -4.10 1.66 0.12 12052
0.08 -0.01 1.28 -5.44 16.49 -4.04 1.70 0.15 12059
0.08 -0.01 1.02 -6.07 16.17 -3.96 1.73 0.20 12065
0.08 -0.01 0.81 -6.64 16.21 -3.86 1.74 0.27 12071
0.08 -0.00 0.63 -7.11 16.41 -3.73 1.73 0.37 12078
0.09 -0.01 0.39 -7.44 16.91 -3.58 1.72 0.47 12084
0.07 -0.01 0.24 -7.76 17.36 -3.43 1.72 0.57 12091
0.10 -0.01 -0.16 -8.04 17.94 -3.28 1.74 0.69 12097
0.08 -0.01 -0.67 -8.44 18.46 -3.15 1.77 0.81 12103
0.08 -0.01 -1.41 -8.99 19.03 -3.07 1.75 0.92 12109
0.09 -0.01 -2.13 -9.64 19.36 -2.95 1.67 1.03 12116
0.08 -0.01 -2.71 -10.27 19.27 -2.92 1.52 1.13 12123
0.08 -0.00 -3.02 -10.90 18.72 -2.87 1.30 1.21 12129
0.09 -0.01 -2.96 -11.42 17.89 -2.80 1.06 1.26 12135
0.08 -0.01 -2.52 -12.06 16.93 -2.68 0.85 1.28 12142
0.08 -0.01 -1.98 -12.54 16.04 -2.60 0.71 1.27 12148
0.07 -0.01 -1.43 -13.03 15.29 -2.41 0.64 1.23 12154
0.09 -0.01 -0.87 -13.54 14.84 -2.23 0.63 1.17 12161
0.09 -0.01 -0.71 -14.10 14.82 -2.07 0.66 1.11 12168
0.09 -0.00 -0.97 -14.48 15.02 -1.87 0.68 1.06 12174
0.08 -0.01 -1.45 -14.85 15.04 -1.79 0.65 1.01 12180
0.09 -0.01 -1.87 -15.16 15.08 -1.74 0.55 0.99 12187
0.09 -0.01 -2.03 -15.54 14.76 -1.76 0.42 0.98 12193
0.08 -0.01 -1.72 -15.96 13.77 -1.82 0.31 1.00 12199
0.09 -0.01 -1.11 -16.47 12.03 -1.88 0.29 1.04 12206
0.09 -0.01 -0.56 -17.27 10.32 -1.93 0.39 1.12 12213
0.09 -0.01 -0.53 -18.04 8.73 -1.88 0.60 1.25 12219
0.09 -0.01 -1.14 -18.93 6.95 -1.80 0.88 1.42 12225
0.09 -0.01 -2.63 -19.52 5.39 -1.62 1.12 1.61 12231
0.09 -0.00 -4.65 -20.39 4.54 -1.36 1.25 1.81 12238
0.09 -0.01 -6.86 -21.44 4.08 -1.07 1.15 1.95 12244
0.09 -0.01 -8.27 -21.79 3.85 -0.77 0.72 2.01 12251
0.10 -0.01 -8.93 -21.99 3.44 -0.45 0.25 1.97 12257
0.09 -0.01 -6.75 -32.71 9.88 0.04 -0.37 1.79 12263
0.09 -0.01 -4.71 -25.28 -1.13 1.15 -0.41 1.42 12270
0.10 -0.01 -3.98 -24.09 -1.70 1.70 -0.40 0.95 12276
0.07 -0.01 -5.18 -23.24 2.41 2.20 -0.44 0.56 12282
0.08 0.00 -6.10 -11.74 5.32 2.62 -0.74 0.20 12289
0.07 0.01 -5.68 -2.81 10.37 2.53 -1.13 -0.11 12296
0.05 0.05 -1.17 6.31 16.01 2.39 -1.36 -0.32 12302
0.07 0.15 2.08 4.79 16.33 2.04 -1.21 -0.33 12308
0.06 0.23 3.93 5.94 13.89 1.76 -0.73 -0.22 12314
0.05 0.33 2.03 -1.07 12.21 1.74 -0.36 -0.11 12321
0.05 0.37 1.13 -2.41 12.09 2.15 -0.16 -0.01 12327
0.05 0.40 0.53 -3.38 14.59 2.65 -0.14 0.02 12334
0.04 0.47 0.00 -3.76 18.66 2.99 -0.17 0.00 12340
0.04 0.48 0.21 -2.80 19.32 3.07 -0.11 -0.05 12347
0.04 0.60 1.11 -2.39 19.29 2.81 -0.13 -0.07 12353
0.04 0.62 0.23 -2.11 17.35 2.35 -0.43 -0.09 12359
0.05 0.65 0.91 -1.99 16.05 1.82 -0.71 -0.15 12365
0.04 0.69 2.16 -2.01 13.74 1.27 -0.85 -0.08 12372
0.04 0.71 1.49 -1.84 12.49 0.84 -0.71 0.09 12379
0.07 0.72 0.95 -1.13 10.95 0.62 -0.61 0.19 12385
0.05 0.72 -0.09 -1.31 11.07 0.49 -0.55 0.17 12392
0.06 0.75 0.13 -0.99 10.79 0.31 -0.40 0.12 12398
0.06 0.74 -0.02 -0.42 10.03 0.18 -0.26 0.11 12404
0.05 0.75 0.13 -0.35 10.43 0.15 -0.20 0.11 12410
0.07 0.79 0.37 -1.27 10.11 0.14 -0.17 0.15 12418
0.06 0.79 0.57 -1.09 10.25 0.09 -0.11 0.14 12424
0.05 0.83 0.33 -1.12 10.11 0.06 -0.08 0.14 12430
0.05 0.84 0.41 -1.07 10.06 0.04 -0.05 0.14 12436
0.05 0.87 0.39 -1.04 10.04 0.03 -0.04 0.14 12443
0.08 0.88 0.38 -1.03 10.00 0.02 -0.02 0.14 12449
0.06 0.88 0.39 -0.96 9.98 0.01 -0.01 0.14 12455
0.05 0.90 0.43 -0.98 9.94 0.01 0.00 0.14 12462
0.07 0.92 0.46 -0.98 9.96 0.01 0.01 0.14 12468
0.06 0.92 0.44 -0.95 9.91 -0.03 0.02 0.13 12474
0.06 0.96 0.46 -0.92 9.92 0.00 0.02 0.15 12481
0.08 0.96 0.43 -0.96 9.92 0.01 0.02 0.15 12487
0.07 0.97 0.44 -0.97 9.95 0.01 0.02 0.15 12493
0.06 0.97 0.43 -0.96 10.04 0.01 0.03 0.15 12499
0.07 0.97 0.46 -0.97 9.86 0.01 0.02 0.15 12506
0.06 0.94 0.46 -0.95 9.90 0.02 0.01 0.15 12513
0.06 0.95 0.48 -0.99 9.92 0.01 0.01 0.14 12519
0.08 0.95 0.48 -0.98 9.92 0.01 0.01 0.14 12525
0.07 0.94 0.48 -0.95 9.94 0.02 0.01 0.14 12531
0.07 0.94 0.52 -0.98 9.93 0.02 0.00 0.14 12537
0.08 0.94 0.54 -0.96 9.90 0.01 -0.01 0.14 12544
0.08 0.93 0.53 -0.96 9.91 0.01 -0.02 0.13 12551
0.07 0.92 0.52 -0.97 9.92 0.01 -0.04 0.13 12557
0.10 0.92 0.50 -0.96 9.98 0.01 -0.05 0.13 12563
0.09 0.92 0.51 -0.97 9.90 0.01 -0.07 0.13 12569
0.07 0.92 0.52 -0.96 9.91 0.01 -0.07 0.13 12575
0.09 0.92 0.54 -0.95 9.90 0.01 -0.08 0.12 12582
0.07 0.91 0.46 -1.00 9.87 0.01 -0.09 0.12 12589
0.05 0.90 0.44 -0.93 9.89 0.02 -0.09 0.12 12595
0.08 0.91 0.46 -0.99 9.91 0.02 -0.09 0.12 12601
0.06 0.89 0.46 -0.96 9.93 0.02 -0.09 0.12 12607
0.06 0.87 0.42 -0.99 9.92 0.01 -0.09 0.11 12613
0.08 0.86 0.49 -0.96 9.90 0.01 -0.09 0.12 12620
0.07 0.85 0.46 -0.99 9.92 0.01 -0.09 0.12 12626
0.06 0.84 0.44 -0.95 9.90 0.01 -0.10 0.11 12633
0.07 0.83 0.51 -0.97 9.88 0.01 -0.10 0.12 12639
0.07 0.82 0.46 -0.99 9.86 0.01 -0.10 0.11 12645
0.07 0.80 0.41 -0.97 9.89 0.01 -0.10 0.11 12652
0.09 0.80 0.41 -0.98 9.86 0.01 -0.10 0.11 12658
0.07 0.78 0.42 -0.97 9.88 0.01 -0.10 0.10 12664
0.07 0.77 0.47 -0.99 9.84 0.01 -0.10 0.10 12670
0.08 0.77 0.44 -0.98 9.87 0.01 -0.09 0.10 12677
0.08 0.76 0.41 -1.03 9.92 0.02 -0.09 0.10 12684
0.07 0.73 0.34 -1.00 9.91 0.02 -0.08 0.10 12690
0.09 0.72 0.39 -1.07 9.92 0.02 -0.07 0.10 12696
0.09 0.70 0.42 -1.02 9.92 0.02 -0.07 0.09 12702
0.08 0.69 0.35 -1.06 9.91 0.02 -0.06 0.09 12708
0.09 0.69 0.41 -1.05 9.90 0.02 -0.06 0.09 12715
0.09 0.68 0.38 -1.05 9.88 0.02 -0.05 0.10 12722
0.08 0.64 0.33 -1.07 10.03 0.03 -0.03 0.10 12728
0.11 0.62 0.43 -1.01 9.82 0.03 -0.02 0.10 12734
0.10 0.59 0.42 -1.03 9.86 0.04 -0.01 0.10 12740
0.08 0.57 0.37 -0.99 9.92 0.04 0.01 0.10 12746
0.09 0.55 0.38 -1.06 9.87 0.04 0.00 0.10 12753
0.10 0.53 0.43 -1.12 9.92 0.05 0.00 0.10 12760
0.09 0.48 0.45 -1.05 9.98 0.05 0.01 0.10 12766
0.09 0.47 0.45 -1.09 9.92 0.05 0.01 0.09 12772
0.11 0.43 0.48 -1.13 9.89 0.05 0.00 0.09 12778
0.10 0.40 0.48 -1.04 9.92 0.05 0.00 0.08 12784
0.11 0.41 0.50 -1.11 9.93 0.05 -0.00 0.09 12791
0.13 0.36 0.48 -1.13 9.95 0.05 -0.00 0.09 12797
0.12 0.36 0.49 -1.16 9.93 0.05 -0.01 0.09 12804
0.14 0.34 0.51 -1.14 9.98 0.05 -0.01 0.09 12810
0.14 0.31 0.47 -1.11 9.91 0.05 -0.02 0.08 12816
0.14 0.25 0.49 -1.11 9.95 0.05 -0.02 0.08 12823
0.15 0.26 0.54 -1.10 9.94 0.05 -0.03 0.08 12829
0.14 0.19 0.52 -1.08 9.90 0.05 -0.03 0.07 12835
0.12 0.17 0.50 -1.14 9.88 0.05 -0.04 0.08 12841
0.15 0.16 0.43 -1.01 9.86 0.05 -0.04 0.06 12848
0.18 0.15 0.51 -1.15 9.96 0.05 -0.04 0.06 12854
0.19 0.13 0.50 -1.09 9.89 0.05 -0.04 0.06 12861
0.20 0.13 0.47 -1.18 9.93 0.05 -0.01 0.05 12867
0.21 0.11 0.47 -1.11 10.07 0.05 0.03 0.05 12873
0.20 0.07 0.54 -1.11 9.98 0.06 0.01 0.06 12879
0.23 0.08 0.50 -1.15 10.02 0.06 0.01 0.06 12886
0.25 0.05 0.51 -1.15 10.09 0.06 0.02 0.06 12893
0.26 0.02 0.58 -2.26 10.03 0.07 0.02 0.05 12899
0.31 -0.00 0.48 -1.28 10.05 0.07 0.02 0.05 12905
0.31 -0.01 0.58 -1.12 10.02 0.07 0.01 0.06 12911
0.32 -0.01 0.62 -1.16 10.08 0.08 0.01 0.06 12918
0.36 -0.03 0.65 -1.19 10.07 0.08 0.01 0.05 12924
0.39 -0.03 0.68 -1.36 10.01 0.10 0.02 0.06 12931
0.39 -0.02 0.75 -1.18 9.96 0.11 0.02 0.05 12937
0.44 -0.03 0.59 -1.29 10.08 0.15 0.03 0.06 12943
0.46 -0.03 0.67 -1.34 10.18 0.19 0.06 0.05 12950
0.51 -0.03 0.54 -1.37 10.27 0.26 0.10 0.04 12956
0.53 -0.04 0.68 -1.20 10.50 0.33 0.12 0.03 12962
0.55 -0.03 0.81 -1.57 10.77 0.47 0.12 0.01 12968
0.57 -0.03 0.89 -1.42 10.98 0.67 0.11 -0.01 12976
0.59 -0.03 0.39 -1.67 11.78 0.88 0.13 -0.02 12982
0.66 -0.04 0.44 -1.54 11.58 1.03 0.25 -0.02 12988
0.67 -0.04 0.66 -1.55 11.58 1.17 0.25 -0.04 12994
0.69 -0.02 0.39 -1.59 11.43 1.27 0.20 -0.05 13001
0.73 -0.04 0.64 -1.81 11.58 1.34 0.14 -0.05 13007
0.75 -0.04 0.78 -1.91 11.73 1.41 0.08 -0.06 13014
0.77 -0.04 0.69 -2.09 11.62 1.49 0.05 -0.07 13020
0.78 -0.05 0.68 -2.05 11.53 1.58 0.02 -0.07 13027
0.79 -0.03 0.65 -2.10 11.46 1.69 -0.02 -0.06 13033
0.83 -0.04 0.87 -2.20 11.70 1.83 -0.06 -0.07 13039
0.73 -0.03 0.83 -2.47 11.66 1.95 -0.09 -0.09 13046
0.72 -0.04 0.91 -2.76 11.35 2.06 -0.09 -0.12 13052
0.72 -0.04 1.02 -2.61 11.59 2.13 -0.09 -0.14 13059
0.67 -0.03 0.87 -3.03 10.87 2.22 -0.04 -0.15 13065
0.59 -0.04 0.64 -3.07 12.19 2.31 0.01 -0.15 13072
0.59 -0.03 0.77 -3.44 13.00 2.43 0.04 -0.15 13078
0.56 -0.04 0.85 -3.64 13.58 2.62 0.01 -0.16 13084
0.47 -0.03 1.16 -3.50 14.63 2.96 0.04 -0.18 13090
0.49 -0.03 1.59 -4.09 15.46 3.28 0.06 -0.21 13097
0.45 -0.04 1.48 -4.39 16.37 3.66 0.07 -0.24 13104
0.40 -0.02 2.26 -5.10 16.92 4.01 0.07 -0.28 13110
0.32 -0.02 2.79 -6.43 18.16 4.20 0.06 -0.34 13116
0.27 -0.02 2.88 -7.32 18.86 4.26 0.04 -0.40 13123
0.32 -0.02 2.80 -7.58 20.43 4.28 0.06 -0.46 13129
0.31 -0.03 1.38 -8.31 20.90 4.28 0.03 -0.48 13135
0.26 -0.01 1.14 -7.53 20.47 4.28 -0.15 -0.49 13142
0.23 -0.02 2.57 -7.26 20.07 4.28 -0.26 -0.50 13149
0.20 -0.02 2.06 -6.49 20.40 4.27 -0.25 -0.54 13155
0.21 -0.02 2.36 -6.50 19.76 4.25 -0.28 -0.55 13161
0.21 -0.02 2.87 -5.86 18.64 4.23 -0.25 -0.57 13167
0.15 -0.00 2.88 -4.67 18.04 4.20 -0.27 -0.60 13174
0.15 -0.01 3.15 -3.34 17.54 4.18 -0.26 -0.63 13180
0.14 -0.01 3.39 -2.03 16.86 4.18 -0.26 -0.66 13187
0.15 -0.01 3.68 -0.89 16.87 4.21 -0.26 -0.72 13193
0.11 -0.01 3.75 0.25 18.13 4.28 -0.22 -0.78 13200
0.11 -0.01 3.36 1.49 17.95 4.28 -0.11 -0.86 13206
0.10 -0.01 2.98 3.45 16.07 4.28 0.04 -0.96 13212
0.07 -0.01 3.82 8.13 8.45 4.28 0.30 -0.99 13218
0.08 -0.01 2.81 11.14 6.72 4.28 0.24 -1.24 13224
0.10 -0.01 2.51 18.58 2.78 4.13 0.06 -1.70 13232
0.07 -0.01 2.52 17.56 7.05 1.97 -0.14 -2.07 13238
0.07 -0.01 1.86 13.95 20.94 0.29 -0.01 -2.08 13244
0.08 -0.01 3.12 8.66 21.89 -0.87 0.32 -1.96 13250
0.06 -0.01 2.08 9.11 17.41 -1.61 0.47 -1.90 13256
0.09 -0.00 1.08 9.91 12.29 -2.15 0.39 -1.80 13263
0.08 -0.01 1.04 8.16 9.73 -2.49 0.28 -1.66 13270
0.07 -0.01 2.03 6.01 8.48 -2.68 0.20 -1.55 13276
0.08 -0.00 2.40 4.90 7.81 -2.81 0.16 -1.46 13282
0.08 -0.01 2.07 4.43 7.37 -2.89 0.14 -1.39 13288
0.06 -0.01 1.77 4.08 7.21 -2.97 0.12 -1.28 13294
0.07 -0.00 1.84 3.77 7.15 -3.04 0.06 -1.14 13301
0.06 -0.01 1.83 3.53 6.99 -3.11 -0.01 -1.05 13307
0.08 -0.01 1.93 3.35 7.13 -3.17 -0.12 -0.91 13314
0.09 -0.00 2.13 3.29 7.36 -3.24 -0.24 -0.76 13320
0.07 -0.01 2.71 3.16 7.73 -3.30 -0.34 -0.60 13326
0.06 -0.01 3.40 3.01 8.35 -3.37 -0.37 -0.46 13333
0.07 -0.00 3.96 2.83 8.90 -3.45 -0.30 -0.32 13339
0.07 -0.01 4.44 2.31 9.30 -3.57 -0.13 -0.20 13345
0.07 -0.01 4.54 1.81 9.79 -3.65 0.10 -0.09 13351
0.07 -0.01 4.43 1.26 10.02 -3.76 0.29 -0.00 13358
0.07 -0.01 4.05 0.78 10.42 -3.87 0.49 0.07 13364
0.06 -0.01 3.67 0.20 10.75 -3.97 0.66 0.12 13371
0.06 -0.01 3.34 -0.38 10.96 -4.04 0.78 0.17 13377
0.06 -0.01 3.01 -0.89 11.17 -4.08 0.84 0.22 13383
0.07 -0.01 2.76 -1.46 11.45 -4.10 0.90 0.27 13389
0.06 -0.01 2.65 -2.00 11.96 -4.10 0.93 0.31 13395
0.06 -0.01 2.57 -2.53 12.46 -4.07 0.97 0.34 13403
0.06 -0.01 2.46 -2.96 13.05 -4.05 1.02 0.35 13409
0.05 -0.00 2.32 -3.36 13.57 -4.02 1.09 0.35 13415
0.05 -0.01 2.11 -3.81 14.11 -4.00 1.17 0.35 13421
0.05 -0.00 1.85 -4.22 14.66 -3.97 1.25 0.35 13427
0.07 -0.01 1.39 -4.73 14.91 -3.92 1.31 0.35 13434
0.06 -0.01 0.99 -5.21 15.11 -3.86 1.33 0.36 13441
0.06 -0.01 0.69 -5.58 15.32 -3.78 1.32 0.37 13447
0.07 -0.01 0.48 -5.83 15.57 -3.67 1.31 0.40 13453
0.05 -0.00 0.43 -6.26 15.72 -3.53 1.32 0.42 13460
0.05 -0.01 0.63 -6.62 15.98 -3.38 1.38 0.42 13466
0.06 -0.01 0.77 -6.99 16.68 -3.21 1.48 0.41 13472
0.05 -0.01 0.63 -7.30 17.41 -3.06 1.59 0.38 13478
0.06 -0.00 0.13 -7.53 18.40 -2.93 1.68 0.33 13485
0.05 -0.01 -0.50 -8.02 19.04 -2.86 1.70 0.36 13492
0.04 -0.00 -1.16 -8.61 19.31 -2.82 1.60 0.36 13498
0.07 -0.01 -1.42 -9.44 18.51 -2.78 1.42 0.37 13504
0.05 -0.01 -1.31 -10.23 18.45 -2.72 1.21 0.39 13510
0.06 -0.01 -0.86 -10.94 17.45 -2.61 1.02 0.41 13517
0.07 -0.01 -0.45 -11.41 16.55 -2.46 0.86 0.42 13523
0.05 -0.01 0.10 -12.01 16.15 -2.25 0.78 0.44 13530
0.07 -0.01 0.53 -12.53 15.98 -2.03 0.75 0.46 13536
0.07 -0.01 0.66 -12.91 15.99 -1.82 0.79 0.50 13543
0.08 -0.00 0.72 -13.21 15.92 -1.67 0.87 0.57 13549
0.07 -0.01 0.36 -13.30 15.87 -1.60 0.99 0.68 13555
0.06 -0.01 -0.36 -13.49 15.67 -1.59 1.13 0.82 13561
0.07 -0.01 -0.98 -13.80 15.26 -1.64 1.28 1.00 13569
0.07 -0.01 -1.54 -14.22 14.60 -1.74 1.39 1.19 13575
0.07 -0.00 -2.03 -14.91 13.90 -1.88 1.48 1.38 13581
0.07 -0.01 -2.32 -15.70 12.89 -2.00 1.53 1.54 13588
0.07 -0.01 -2.59 -16.64 11.68 -2.10 1.54 1.67 13594
0.07 -0.01 -3.09 -17.79 10.18 -2.11 1.45 1.76 13600
0.06 -0.01 -3.38 -18.98 8.33 -2.03 1.27 1.81 13606
0.08 -0.01 -3.64 -19.80 6.54 -1.85 1.04 1.80 13614
0.06 -0.01 -3.88 -20.44 4.81 -1.59 0.85 1.75 13620
0.06 -0.01 -4.07 -20.93 3.49 -1.30 0.72 1.67 13626
0.07 -0.01 -4.50 -21.31 3.16 -0.98 0.60 1.53 13632
0.06 -0.01 -4.71 -21.40 3.08 -0.67 0.47 1.35 13638
0.06 -0.01 -4.47 -20.97 3.22 -0.37 0.35 1.14 13645
0.07 -0.01 -4.01 -20.14 3.89 -0.11 0.27 0.91 13651
0.05 -0.01 -8.52 -27.68 6.13 0.26 -0.01 0.73 13658
0.06 -0.00 -9.17 -24.23 9.44 1.43 -0.86 0.68 13664
0.06 -0.01 -7.65 -19.26 -0.67 1.68 -1.44 0.48 13671
0.05 -0.01 -4.65 -16.89 4.45 1.93 -2.22 0.36 13677
0.06 -0.01 -0.09 -8.99 5.82 2.22 -2.53 0.25 13683
0.05 0.02 2.22 4.00 11.73 2.24 -2.32 0.30 13689
0.04 0.07 5.40 7.90 14.65 2.17 -1.89 0.54 13696
0.05 0.15 4.52 4.74 14.45 1.88 -1.39 0.88 13703
0.02 0.28 2.27 4.33 11.54 1.71 -0.91 1.10 13709
0.04 0.30 -0.38 -0.54 10.04 1.91 -0.61 1.19 13715
0.06 0.32 -3.04 -2.05 11.00 2.44 -0.49 1.18 13721
0.05 0.41 -5.11 -2.50 12.77 2.88 -0.41 1.02 13728
0.05 0.44 -6.23 -3.33 17.08 3.13 -0.31 0.75 13734
0.04 0.52 -7.47 -3.55 21.20 3.23 -0.19 0.33 13741
0.06 0.59 -4.79 -2.35 18.52 2.99 -0.11 -0.13 13748
0.05 0.68 0.38 -2.32 17.34 2.71 -0.22 -0.42 13754
0.05 0.74 2.70 -2.30 17.85 2.50 -0.45 -0.46 13760
0.04 0.77 4.01 -2.37 18.17 1.88 -0.94 -0.33 13766
0.04 0.80 3.09 -3.03 13.42 1.01 -0.84 0.09 13773
0.06 0.82 0.56 -2.00 11.46 0.59 -0.57 0.29 13779
0.06 0.84 -0.80 -1.07 11.50 0.46 -0.51 0.22 13786
0.06 0.85 0.19 -1.03 10.84 0.27 -0.34 0.13 13792
0.06 0.85 0.89 -1.21 10.28 0.13 -0.17 0.11 13799
0.06 0.86 0.69 -1.17 10.24 0.15 -0.19 0.12 13805
0.06 0.86 0.61 -1.32 10.21 0.15 -0.19 0.15 13811
0.05 0.88 0.23 -0.99 9.93 0.10 -0.13 0.14 13817
0.08 0.90 0.26 -1.18 10.04 0.07 -0.10 0.13 13825
0.08 0.92 0.49 -1.12 10.01 0.05 -0.09 0.14 13831
0.06 0.94 0.40 -1.06 9.94 0.04 -0.08 0.14 13837
0.07 0.96 0.35 -0.98 9.87 0.03 -0.07 0.13 13843
0.07 0.96 0.38 -0.98 9.92 0.02 -0.05 0.14 13849
0.06 0.97 0.42 -1.03 9.91 0.02 -0.04 0.14 13856
0.10 0.97 0.40 -1.04 10.06 0.02 -0.03 0.14 13862
0.09 0.96 0.45 -1.05 9.89 0.02 -0.02 0.13 13869
0.09 0.95 0.39 -1.05 9.98 0.02 -0.01 0.12 13875
0.09 0.94 0.33 -1.04 9.95 0.02 0.00 0.13 13881
0.07 0.92 0.34 -1.06 9.97 0.03 0.02 0.14 13888
0.07 0.92 0.35 -1.08 9.97 0.03 0.03 0.14 13894
0.08 0.91 0.41 -1.05 9.99 0.03 0.04 0.14 13900
0.08 0.86 0.41 -1.08 9.99 0.04 0.04 0.14 13906
0.09 0.84 0.47 -1.09 9.96 0.04 0.05 0.13 13913
0.10 0.84 0.46 -1.08 9.88 0.04 0.04 0.13 13919
0.09 0.79 0.46 -1.07 9.89 0.04 0.03 0.13 13926
0.09 0.75 0.46 -1.08 9.92 0.04 0.02 0.13 13932
0.11 0.73 0.51 -1.06 9.95 0.04 0.01 0.12 13938
0.11 0.71 0.51 -1.07 9.91 0.04 -0.00 0.12 13944
0.11 0.67 0.51 -1.06 9.93 0.04 -0.01 0.11 13950
0.12 0.64 0.53 -1.07 9.86 0.04 -0.02 0.11 13958
0.11 0.61 0.50 -1.09 9.94 0.04 -0.03 0.11 13964
0.11 0.60 0.47 -1.10 9.91 0.04 -0.03 0.11 13970
0.12 0.59 0.44 -1.16 9.87 0.03 -0.04 0.11 13976
0.11 0.56 0.47 -1.11 9.89 0.03 -0.05 0.11 13982
0.12 0.52 0.51 -1.10 9.93 0.03 -0.04 0.10 13989
0.12 0.51 0.44 -1.12 9.89 0.03 -0.03 0.11 13996
0.11 0.48 0.45 -1.06 9.88 0.03 -0.02 0.10 14002
0.12 0.48 0.48 -1.11 9.91 0.04 -0.02 0.11 14008
0.12 0.41 0.49 -1.10 9.92 0.03 -0.01 0.11 14014
0.12 0.39 0.49 -1.12 9.91 0.04 -0.01 0.10 14021
0.12 0.38 0.50 -1.15 9.88 0.04 -0.01 0.10 14027
0.13 0.34 0.51 -1.16 9.84 0.03 -0.01 0.10 14033
0.12 0.33 0.55 -1.16 9.91 0.03 -0.01 0.09 14040
0.13 0.33 0.54 -1.15 9.89 0.03 -0.02 0.10 14046
0.13 0.32 0.55 -1.14 9.91 0.03 -0.02 0.09 14053
0.12 0.31 0.55 -1.16 9.92 0.02 -0.03 0.08 14059
0.14 0.28 0.55 -1.13 9.95 0.02 -0.04 0.08 14065
0.14 0.25 0.57 -1.15 9.94 0.02 -0.05 0.07 14071
0.14 0.20 0.51 -1.18 9.99 0.02 -0.10 0.07 14077
0.15 0.18 0.57 -1.25 9.92 0.02 -0.08 0.07 14084
0.15 0.17 0.51 -1.17 9.85 0.02 -0.09 0.06 14091
0.15 0.17 0.54 -1.23 9.93 0.01 -0.10 0.06 14097
0.17 0.17 0.51 -1.21 10.02 0.01 -0.10 0.06 14103
0.17 0.12 0.49 -1.20 9.87 0.01 -0.11 0.05 14109
0.17 0.12 0.52 -1.17 9.97 0.00 -0.11 0.04 14116
0.19 0.11 0.55 -1.19 9.88 0.01 -0.11 0.05 14123
0.18 0.10 0.53 -1.19 9.96 0.01 -0.11 0.04 14129
0.19 0.11 0.51 -1.20 9.94 0.01 -0.10 0.04 14135
0.24 0.11 0.43 -1.16 9.94 0.00 -0.10 0.04 14141
0.23 0.10 0.42 -1.24 9.91 0.00 -0.11 0.04 14147
0.23 0.09 0.78 -1.85 9.88 0.01 -0.11 0.03 14154
0.26 0.10 0.48 -1.24 9.96 0.00 -0.10 0.04 14160
0.26 0.07 0.38 -2.25 10.29 0.01 -0.09 0.03 14167
0.29 0.08 0.44 -1.23 9.99 0.01 -0.10 0.03 14173
0.28 0.06 0.12 -0.99 9.71 0.00 -0.09 0.03 14179
0.30 0.04 0.46 -1.20 10.00 0.01 -0.09 0.03 14186
0.33 0.04 0.45 -1.20 10.07 0.01 -0.08 0.02 14192
0.35 0.01 0.45 -1.06 9.96 0.02 -0.08 0.03 14198
0.40 -0.00 0.46 -1.42 9.91 0.03 -0.08 0.02 14204
0.41 -0.00 0.27 -1.58 9.92 0.03 -0.07 0.02 14211
0.42 -0.01 0.46 -1.27 10.02 0.05 -0.08 0.02 14218
0.48 -0.03 0.45 -1.14 9.98 0.05 -0.07 0.02 14224
0.49 -0.02 0.43 -1.37 9.93 0.06 -0.07 0.03 14230
0.54 -0.02 0.46 -1.24 9.99 0.07 -0.06 0.02 14236
0.57 -0.05 0.44 -1.22 10.02 0.08 -0.06 0.02 14242
0.61 -0.03 0.37 -1.35 10.11 0.10 -0.05 0.02 14249
0.63 -0.04 0.40 -1.37 10.03 0.11 -0.06 0.03 14256
0.67 -0.04 0.42 -1.27 10.10 0.13 -0.05 0.02 14262
0.75 -0.04 0.42 -1.20 10.18 0.15 -0.05 0.02 14268
0.77 -0.05 0.42 -1.36 10.17 0.18 -0.06 0.02 14275
0.80 -0.04 0.34 -1.38 10.24 0.23 -0.07 0.03 14281
0.81 -0.04 0.49 -1.46 10.50 0.30 -0.08 0.02 14287
0.84 -0.05 0.31 -1.41 10.57 0.39 -0.11 0.02 14294
0.89 -0.04 0.64 -1.43 10.89 0.51 -0.14 0.03 14301
0.91 -0.06 0.59 -1.39 11.20 0.68 -0.17 0.02 14307
0.93 -0.04 0.54 -1.69 11.30 0.84 -0.20 0.01 14313
0.98 -0.04 0.37 -1.75 11.28 0.96 -0.19 -0.00 14319
0.99 -0.04 0.44 -1.70 11.24 1.04 -0.13 0.00 14326
1.06 -0.05 0.48 -1.83 11.35 1.11 -0.10 -0.01 14332
1.08 -0.06 0.40 -1.99 11.01 1.20 -0.08 -0.02 14339
1.14 -0.05 0.46 -2.00 11.04 1.28 -0.09 -0.01 14345
1.13 -0.05 0.40 -1.99 10.92 1.36 -0.09 -0.02 14352
1.11 -0.05 0.48 -2.22 11.11 1.44 -0.09 -0.03 14358
1.14 -0.05 0.49 -2.23 10.98 1.51 -0.07 -0.03 14364
1.19 -0.06 0.68 -2.37 11.49 1.60 -0.05 -0.04 14370
1.17 -0.04 0.23 -2.43 11.47 1.69 -0.04 -0.04 14377
1.18 -0.05 0.51 -2.38 11.81 1.75 -0.03 -0.03 14384
1.16 -0.05 0.21 -2.80 11.19 1.80 0.01 -0.02 14390
1.18 -0.05 0.66 -2.88 11.68 1.88 0.03 -0.03 14396
1.11 -0.05 0.81 -3.29 11.67 1.98 0.04 -0.06 14403
1.05 -0.03 0.54 -3.25 12.55 2.10 0.02 -0.10 14409
0.98 -0.04 0.76 -3.20 12.60 2.25 -0.00 -0.14 14415
0.90 -0.04 0.88 -3.30 12.80 2.43 -0.00 -0.17 14422
0.87 -0.04 -0.22 -3.97 12.61 2.61 -0.03 -0.20 14429
0.78 -0.04 1.02 -3.70 13.10 2.84 -0.00 -0.21 14435
0.73 -0.03 0.65 -3.80 14.20 3.12 -0.00 -0.25 14441
0.67 -0.04 -0.07 -4.02 14.96 3.42 -0.01 -0.28 14447
0.65 -0.03 1.45 -5.25 16.40 3.78 -0.03 -0.32 14454
0.63 -0.03 1.44 -5.61 17.86 4.10 -0.07 -0.36 14460
0.58 -0.03 2.20 -6.82 18.53 4.25 -0.14 -0.41 14467
0.52 -0.03 2.42 -8.03 18.88 4.28 -0.14 -0.46 14474
0.47 -0.04 1.83 -8.06 19.55 4.28 -0.13 -0.50 14480
0.42 -0.02 1.56 -8.43 20.17 4.28 -0.11 -0.51 14486
0.38 -0.03 1.48 -8.67 20.21 4.28 -0.11 -0.51 14492
0.31 -0.02 2.88 -8.31 20.82 4.28 -0.08 -0.50 14499
0.28 -0.02 2.53 -7.76 20.61 4.28 0.08 -0.51 14505
0.24 -0.02 1.20 -6.95 20.05 4.28 0.12 -0.54 14512
0.23 -0.02 1.11 -6.03 19.26 4.25 0.00 -0.57 14518
0.18 -0.02 1.80 -4.48 18.41 4.22 -0.08 -0.59 14525
0.15 -0.02 2.48 -3.11 17.18 4.21 -0.13 -0.61 14531
0.12 -0.01 3.47 -1.95 16.15 4.21 -0.11 -0.64 14537
0.16 -0.02 3.92 -0.57 16.20 4.24 -0.03 -0.70 14543
0.13 -0.01 3.85 0.63 17.24 4.28 0.07 -0.77 14551
0.12 -0.01 3.63 1.56 17.37 4.28 0.23 -0.88 14557
0.09 -0.01 3.53 2.66 16.06 4.28 0.45 -1.01 14563
0.10 -0.01 4.25 6.72 11.27 4.28 0.74 -1.18 14569
0.09 -0.01 2.51 11.60 8.01 4.28 0.91 -1.60 14575
0.07 -0.01 3.83 13.16 4.66 4.26 0.97 -2.17 14582
0.10 -0.01 1.89 15.42 8.83 2.31 0.95 -2.47 14588
0.09 -0.01 0.87 14.26 21.33 0.64 1.12 -2.52 14595
0.09 -0.00 1.02 8.87 21.44 -0.67 1.15 -2.40 14601
0.08 -0.01 -0.34 8.78 17.74 -1.61 0.81 -2.26 14608
0.06 -0.01 -1.16 9.10 13.78 -2.29 0.37 -2.04 14614
0.10 -0.01 -0.35 7.29 11.17 -2.74 0.07 -1.76 14620
0.08 -0.01 1.52 5.36 9.18 -3.03 -0.20 -1.53 14626
0.08 -0.01 2.58 4.47 7.71 -3.19 -0.36 -1.35 14632
0.08 -0.01 2.84 3.81 6.88 -3.26 -0.35 -1.22 14640
0.09 -0.01 3.06 3.26 6.27 -3.30 -0.24 -1.06 14646
0.07 -0.01 3.42 2.88 5.72 -3.30 -0.12 -0.91 14652
0.09 -0.00 3.22 2.61 5.75 -3.29 0.01 -0.77 14658
0.08 -0.01 2.98 2.54 5.94 -3.28 0.12 -0.64 14664
0.08 -0.01 2.91 2.67 6.63 -3.29 0.20 -0.51 14670
0.08 -0.00 2.91 2.83 7.33 -3.33 0.24 -0.37 14678
0.06 -0.01 3.00 2.82 8.12 -3.39 0.27 -0.24 14684
0.06 -0.01 3.08 2.75 8.60 -3.48 0.32 -0.11 14690
0.07 -0.01 3.17 1.89 9.17 -3.59 0.38 0.00 14696
0.07 -0.01 3.17 1.93 9.50 -3.72 0.48 0.12 14702
0.06 -0.01 3.18 1.20 9.85 -3.84 0.59 0.23 14708
0.06 -0.01 2.98 0.58 10.12 -3.95 0.68 0.31 14715
0.07 -0.01 2.95 0.09 10.58 -4.04 0.77 0.37 14722
0.07 -0.01 2.87 -0.40 11.17 -4.11 0.88 0.40 14728
0.06 -0.01 2.65 -0.82 11.59 -4.16 0.99 0.42 14734
0.07 -0.01 2.51 -1.38 12.09 -4.20 1.09 0.43 14740
0.06 -0.01 2.29 -2.18 12.49 -4.22 1.20 0.42 14746
0.06 -0.01 2.06 -3.14 12.92 -4.23 1.33 0.40 14753
0.06 -0.01 1.25 -4.18 13.44 -4.22 1.46 0.36 14759
0.05 -0.01 1.50 -5.06 13.93 -4.19 1.56 0.31 14766
0.06 -0.01 1.07 -5.86 14.42 -4.15 1.60 0.27 14772
0.06 -0.01 0.65 -6.39 14.72 -4.10 1.65 0.23 14779
0.06 -0.01 0.23 -7.11 15.34 -4.02 1.66 0.22 14785
0.06 -0.01 0.15 -7.60 15.51 -3.93 1.63 0.26 14791
0.06 -0.01 0.15 -7.67 15.61 -3.82 1.56 0.27 14797
0.06 -0.01 0.23 -7.64 15.76 -3.70 1.47 0.34 14803
0.08 -0.01 0.39 -7.55 16.10 -3.57 1.37 0.42 14811
0.07 -0.01 0.57 -7.62 16.49 -3.45 1.32 0.50 14817
0.08 -0.01 0.71 -7.77 16.96 -3.33 1.31 0.55 14823
0.09 -0.01 0.65 -8.11 17.29 -3.24 1.33 0.59 14829
0.09 -0.01 0.36 -8.55 17.48 -3.16 1.34 0.61 14835
0.08 -0.01 0.07 -9.01 17.41 -3.08 1.32 0.61 14842
0.09 -0.01 -0.08 -9.44 17.22 -2.97 1.25 0.60 14849
0.09 -0.01 -0.32 -9.81 16.78 -2.90 1.14 0.59 14855
0.09 -0.00 -0.39 -9.94 16.31 -2.77 1.01 0.58 14861
0.09 -0.01 -0.38 -10.09 15.87 -2.63 0.88 0.57 14868
0.09 -0.01 -0.29 -10.20 15.63 -2.46 0.75 0.57 14874
0.10 -0.01 -0.14 -10.31 15.58 -2.29 0.65 0.57 14880
0.09 -0.01 0.04 -10.56 15.48 -2.11 0.59 0.59 14886
0.09 0.00 0.30 -10.90 15.17 -1.95 0.58 0.63 14894
0.09 -0.01 0.51 -11.35 14.89 -1.79 0.62 0.69 14900
0.08 -0.01 0.54 -11.85 14.77 -1.65 0.69 0.78 14906
0.08 -0.01 0.47 -12.37 14.54 -1.54 0.76 0.88 14912
0.07 -0.01 0.52 -12.92 14.36 -1.48 0.83 0.98 14919
0.07 -0.01 0.78 -13.54 14.28 -1.46 0.89 1.09 14925
0.08 -0.01 1.22 -14.03 14.39 -1.51 0.98 1.18 14931
0.08 -0.01 1.46 -14.43 14.38 -1.63 1.10 1.26 14938
0.09 -0.01 1.27 -14.83 13.85 -1.82 1.27 1.32 14945
0.07 -0.01 0.85 -15.45 12.66 -2.03 1.43 1.36 14951
0.09 -0.01 0.01 -16.10 10.59 -2.19 1.55 1.40 14957
0.08 -0.01 -1.57 -16.25 7.84 -2.23 1.71 1.49 14964
0.08 0.00 -3.85 -16.70 5.57 -2.08 1.97 1.70 14970
0.08 -0.01 -7.28 -18.28 4.82 -1.77 2.23 1.98 14977
0.07 -0.01 -10.26 -20.29 5.26 -1.40 2.08 2.15 14983
0.09 -0.01 -11.19 -21.15 5.16 -1.06 1.31 2.12 14990
0.08 -0.01 -10.87 -21.49 4.30 -0.74 0.23 1.94 14996
0.08 -0.00 -7.55 -21.43 3.51 -0.43 -0.75 1.68 15002
0.08 -0.01 -5.25 -22.73 3.33 -0.11 -1.02 1.39 15008
0.07 -0.01 -6.52 -30.52 12.73 0.55 -1.13 1.04 15015
0.08 -0.01 -4.49 -22.56 1.24 1.43 -1.24 0.70 15022
0.06 -0.01 -6.35 -22.89 2.63 1.78 -1.44 0.42 15028
0.07 -0.01 -5.90 -11.82 8.73 2.13 -1.90 0.31 15034
0.07 0.01 -0.93 -0.89 8.58 2.15 -2.00 0.25 15040
0.05 0.08 1.33 2.97 12.67 1.85 -1.77 0.34 15047
0.05 0.16 4.25 3.62 14.22 1.57 -1.09 0.63 15053
0.05 0.26 2.32 4.80 11.56 1.52 -0.27 0.95 15059
0.05 0.34 -1.47 0.59 9.37 1.83 0.09 1.06 15066
0.06 0.39 -4.09 -1.89 11.89 2.39 0.01 0.94 15073
0.05 0.45 -5.48 -2.65 13.51 2.83 -0.05 0.68 15079
0.05 0.56 -5.37 -2.56 15.36 3.12 -0.01 0.36 15085
0.05 0.59 -4.24 -2.68 19.66 3.20 0.01 -0.02 15091
0.06 0.65 -0.29 -2.51 19.26 2.98 0.05 -0.32 15098
0.07 0.73 2.06 -2.13 16.46 2.65 0.03 -0.40 15105
0.05 0.74 3.01 -2.55 16.20 2.47 -0.24 -0.36 15111
0.06 0.76 3.21 -2.27 16.44 2.08 -0.88 -0.27 15118
0.06 0.77 3.65 -2.02 14.09 1.49 -1.25 -0.04 15124
0.04 0.81 2.41 -2.32 12.75 1.12 -1.11 0.23 15130
0.06 0.83 0.20 -1.59 12.62 0.92 -0.98 0.28 15136
0.06 0.81 -0.34 -1.34 12.32 0.65 -0.84 0.19 15143
0.05 0.81 -0.03 -1.35 10.56 0.30 -0.51 0.13 15150
0.06 0.81 0.53 -1.31 10.23 0.18 -0.36 0.10 15156
0.06 0.84 0.83 -1.06 10.14 0.15 -0.32 0.08 15162
0.06 0.86 0.37 -1.24 10.41 0.12 -0.29 0.13 15169
0.07 0.89 0.27 -1.00 10.11 0.08 -0.24 0.12 15175
0.07 0.93 0.39 -1.10 10.10 0.04 -0.18 0.11 15181
0.06 0.93 0.46 -1.12 10.02 0.02 -0.15 0.13 15187
0.06 0.95 0.45 -0.99 10.04 0.01 -0.12 0.12 15195
0.08 0.95 0.42 -0.95 10.03 0.00 -0.11 0.11 15201
0.08 0.96 0.48 -0.99 10.00 -0.00 -0.10 0.12 15207
0.09 0.96 0.45 -0.98 9.92 -0.00 -0.10 0.12 15213
0.08 0.95 0.48 -1.01 9.93 -0.00 -0.10 0.11 15219
0.07 0.95 0.49 -0.98 9.96 0.00 -0.10 0.11 15226
0.08 0.94 0.46 -0.98 9.87 0.01 -0.11 0.10 15233
0.08 0.94 0.45 -0.98 10.03 0.01 -0.11 0.10 15239
0.08 0.94 0.42 -1.02 9.96 0.01 -0.12 0.11 15245
0.08 0.93 0.41 -1.01 9.94 0.01 -0.12 0.10 15251
0.07 0.90 0.45 -0.99 9.90 0.01 -0.12 0.09 15258
0.07 0.87 0.52 -0.97 9.93 0.02 -0.12 0.10 15264
0.08 0.85 0.43 -0.96 9.92 0.02 -0.12 0.09 15270
0.08 0.83 0.47 -0.98 9.93 0.01 -0.11 0.09 15277
0.08 0.83 0.44 -0.98 9.87 0.02 -0.11 0.09 15283
0.09 0.78 0.47 -0.95 9.91 0.02 -0.11 0.09 15290
0.08 0.75 0.46 -1.02 9.93 0.02 -0.11 0.08 15296
0.12 0.71 0.45 -1.00 9.97 0.03 -0.11 0.08 15302
0.13 0.66 0.46 -1.07 9.91 0.02 -0.11 0.08 15308
0.13 0.63 0.42 -1.03 9.91 0.03 -0.10 0.08 15314
0.13 0.62 0.41 -1.00 9.94 0.02 -0.10 0.08 15322
0.14 0.59 0.38 -0.98 9.95 0.03 -0.09 0.08 15328
0.14 0.60 0.39 -1.01 10.04 0.03 -0.08 0.08 15334
0.16 0.56 0.78 -1.05 9.75 0.03 -0.07 0.08 15340
0.16 0.52 0.35 -1.04 9.93 0.04 -0.06 0.09 15346
0.16 0.46 0.40 -1.02 9.95 0.04 -0.06 0.09 15353
0.18 0.43 0.32 -1.01 9.92 0.04 -0.05 0.09 15360
0.19 0.42 0.40 -1.03 9.88 0.05 -0.05 0.09 15366
0.18 0.39 0.42 -1.07 9.93 0.04 -0.04 0.09 15372
0.19 0.39 0.62 -1.14 10.01 0.05 -0.04 0.09 15378
0.20 0.35 0.44 -1.08 9.91 0.04 -0.04 0.08 15385
0.19 0.34 0.47 -1.11 9.91 0.04 -0.04 0.08 15391
0.20 0.32 0.40 -1.10 9.92 0.04 -0.04 0.08 15397
0.20 0.27 0.37 -1.09 9.93 0.04 -0.04 0.08 15404
0.20 0.29 0.38 -1.11 9.94 0.03 -0.03 0.09 15410
0.23 0.27 0.41 -1.09 9.96 0.04 -0.03 0.08 15416
0.23 0.24 0.36 -1.13 9.97 0.03 -0.04 0.08 15423
0.24 0.19 0.44 -1.09 9.88 0.03 -0.04 0.08 15429
0.25 0.17 0.45 -1.09 9.87 0.03 -0.05 0.07 15435
0.26 0.16 0.41 -1.12 9.90 0.03 -0.05 0.07 15441
0.29 0.14 0.44 -1.13 9.92 0.03 -0.05 0.07 15448
0.30 0.11 0.44 -1.12 9.95 0.03 -0.05 0.07 15455
0.33 0.10 0.57 -1.09 9.99 0.03 -0.05 0.07 15461
0.34 0.11 0.43 -1.10 9.98 0.04 -0.05 0.07 15467
0.39 0.09 0.43 -1.13 10.01 0.03 -0.05 0.06 15473
0.37 0.07 0.40 -1.08 9.93 0.03 -0.04 0.06 15479
0.37 0.08 0.35 -1.16 9.98 0.04 -0.04 0.07 15486
0.41 0.04 0.43 -1.18 9.99 0.04 -0.04 0.06 15493
0.42 0.06 0.45 -1.14 9.98 0.04 -0.04 0.05 15499
0.44 0.05 0.45 -1.10 10.01 0.04 -0.04 0.05 15505
0.48 0.04 0.44 -1.16 10.02 0.04 -0.05 0.05 15511
0.48 0.01 0.60 -1.01 9.97 0.04 -0.05 0.04 15518
0.51 0.01 0.41 -1.15 9.93 0.05 -0.07 0.05 15524
0.57 -0.01 0.56 -1.04 9.99 0.06 -0.07 0.03 15531
0.58 -0.02 0.38 -1.63 9.99 0.08 -0.08 0.00 15537
0.66 -0.04 0.16 -1.11 10.12 0.09 -0.09 0.04 15543
0.69 -0.02 0.34 -1.13 10.11 0.09 -0.08 0.03 15550
0.70 -0.05 0.50 -1.10 10.12 0.11 -0.09 0.03 15556
0.79 -0.04 0.21 -1.40 10.00 0.12 -0.10 0.03 15562
0.83 -0.05 0.15 -1.33 10.03 0.14 -0.10 0.03 15568
0.84 -0.05 0.21 -1.29 10.17 0.16 -0.10 0.02 15576
0.89 -0.05 0.30 -1.20 10.12 0.18 -0.11 0.04 15582
0.91 -0.05 0.38 -1.27 10.18 0.21 -0.11 0.04 15588
