Voltage_01 Voltage_02 Acc_x Acc_y Acc_z Gyro_x Gyro_y Gyro_z Time
5000
1.24 -0.05 0.30 -1.97 11.28 1.76 -0.25 -0.21 18
1.23 -0.05 0.38 -2.13 11.41 1.85 -0.28 -0.22 25
1.24 -0.05 0.34 -2.30 11.60 1.98 -0.30 -0.23 32
1.25 -0.05 0.06 -2.46 11.92 2.14 -0.35 -0.22 39
1.26 -0.04 0.29 -2.59 12.45 2.31 -0.43 -0.21 47
1.24 -0.04 0.50 -2.82 13.02 2.56 -0.54 -0.20 54
1.17 -0.05 1.11 -3.28 13.85 2.78 -0.72 -0.24 61
1.09 -0.05 1.37 -3.46 13.90 3.07 -0.74 -0.32 68
1.02 -0.04 1.03 -3.32 14.33 3.35 -0.84 -0.41 75
0.90 -0.04 1.09 -3.42 14.27 3.61 -0.99 -0.50 82
0.74 -0.02 1.15 -4.33 15.88 3.92 -1.07 -0.56 90
0.53 -0.02 0.94 -4.52 15.65 4.21 -1.11 -0.65 97
0.37 -0.02 0.82 -4.87 16.72 4.28 -1.15 -0.70 104
0.25 -0.03 0.68 -4.46 18.08 4.28 -1.18 -0.76 110
0.17 -0.01 0.29 -5.31 18.55 4.28 -1.15 -0.77 118
0.13 -0.01 0.06 -7.84 20.66 4.28 -1.08 -0.76 124
0.13 -0.01 0.57 -10.11 21.74 4.28 -0.78 -0.72 133
0.11 -0.01 0.66 -9.61 21.12 4.28 -0.54 -0.69 139
0.08 -0.01 1.13 -8.61 19.79 4.28 -0.27 -0.68 146
0.04 -0.00 1.23 -6.69 19.80 4.28 -0.05 -0.70 153
0.08 -0.01 0.85 -4.68 20.25 4.28 0.07 -0.72 160
0.06 -0.01 0.50 -3.37 20.64 4.28 0.03 -0.79 167
0.05 -0.01 0.62 -2.48 21.22 4.28 -0.18 -0.87 175
0.03 -0.00 1.44 -0.91 21.94 4.28 -0.51 -0.94 182
0.01 -0.00 2.56 1.60 20.28 4.28 -0.67 -1.00 189
0.00 0.00 4.51 5.81 14.13 4.27 -0.66 -1.05 196
0.00 0.00 5.20 9.39 8.57 3.67 -0.46 -1.16 203
0.00 0.00 5.53 17.39 3.16 2.91 -0.46 -1.31 209
0.00 0.00 5.70 24.40 -0.89 1.91 -0.60 -1.57 217
0.00 0.00 5.33 13.49 19.90 1.24 0.01 -1.65 224
0.00 0.00 5.19 8.43 23.14 -0.51 0.55 -1.50 231
0.00 0.00 3.52 9.08 16.70 -1.63 0.78 -1.25 238
0.00 0.00 2.24 10.56 11.53 -2.11 0.67 -1.00 245
-0.00 0.00 1.75 10.89 8.24 -2.65 0.55 -0.83 252
0.00 -0.00 2.16 9.64 7.45 -3.01 0.33 -0.72 260
0.00 0.00 2.25 7.05 8.21 -3.16 0.14 -0.60 267
0.00 0.00 2.19 6.23 7.18 -3.26 0.04 -0.54 273
0.00 0.00 1.91 5.74 8.33 -3.33 0.02 -0.46 279
0.00 0.00 2.38 5.40 8.03 -3.38 0.04 -0.37 285
0.00 -0.00 2.82 5.07 7.57 -3.44 0.09 -0.37 291
0.00 0.00 3.02 4.88 7.50 -3.52 0.18 -0.35 299
0.00 0.00 3.09 4.67 7.96 -3.62 0.29 -0.33 305
0.00 0.00 3.10 4.30 8.58 -3.72 0.47 -0.32 311
0.00 0.00 3.13 3.89 9.19 -3.81 0.69 -0.29 317
0.00 0.00 3.05 3.56 9.74 -3.91 0.89 -0.26 323
0.00 0.00 2.79 3.39 9.82 -4.02 1.12 -0.21 329
0.00 0.00 2.43 3.22 9.96 -4.10 1.29 -0.16 335
0.01 -0.00 2.02 2.87 10.22 -4.17 1.41 -0.10 343
0.00 0.00 1.67 2.12 10.87 -4.21 1.48 -0.02 350
0.00 0.00 1.52 1.13 11.86 -4.23 1.52 0.05 357
0.00 0.00 1.43 0.32 12.68 -4.23 1.58 0.12 364
0.00 0.00 1.27 -0.37 13.45 -4.22 1.63 0.19 371
0.00 0.00 1.07 -0.75 14.43 -4.20 1.70 0.22 378
0.00 0.00 0.90 -0.92 15.20 -4.17 1.79 0.24 386
0.00 0.00 0.58 -1.36 16.17 -4.15 1.90 0.24 393
0.00 0.00 0.12 -1.88 16.53 -4.15 2.09 0.22 400
0.00 0.00 -0.30 -2.57 17.07 -4.16 2.25 0.19 407
0.00 0.00 -0.97 -2.90 17.98 -4.17 2.32 0.15 414
0.00 0.00 -1.60 -3.49 18.16 -4.15 2.35 0.15 421
0.00 0.00 -2.28 -4.47 18.07 -4.10 2.32 0.16 429
0.00 0.00 -2.62 -5.34 17.74 -3.95 2.24 0.16 436
0.00 0.00 -2.93 -6.17 17.51 -3.71 2.07 0.15 443
0.00 0.00 -3.07 -6.84 17.73 -3.44 1.84 0.11 450
0.00 0.00 -2.97 -7.01 17.79 -3.13 1.54 0.08 457
0.00 0.00 -2.57 -6.95 17.43 -2.91 1.29 0.07 464
0.00 0.00 -2.14 -6.92 17.18 -2.71 1.14 0.08 472
0.00 0.00 -1.90 -7.02 17.27 -2.54 0.99 0.12 479
0.00 0.00 -1.73 -7.20 17.37 -2.41 0.90 0.19 486
0.00 0.00 -1.22 -7.47 17.58 -2.26 0.86 0.24 493
0.00 0.00 -0.56 -7.83 17.99 -2.13 0.92 0.32 500
0.00 0.00 0.16 -8.09 18.48 -2.04 1.11 0.37 507
0.00 0.00 0.93 -8.64 18.54 -2.04 1.50 0.43 515
0.00 0.00 0.45 -9.29 18.54 -2.13 1.94 0.52 522
0.00 0.00 -0.57 -10.12 18.46 -2.28 2.28 0.61 529
0.00 0.00 -2.07 -11.45 18.38 -2.47 2.45 0.77 536
0.00 0.00 -3.35 -12.57 17.40 -2.61 2.38 0.96 543
0.00 0.00 -4.55 -14.34 15.95 -2.74 2.07 1.12 550
0.00 0.00 -4.88 -16.15 13.57 -2.75 1.61 1.32 558
0.00 0.00 -4.81 -17.40 11.21 -2.64 1.22 1.47 565
0.00 0.00 -4.37 -18.31 9.40 -2.41 0.84 1.61 572
0.00 0.00 -4.15 -18.75 7.49 -2.16 0.65 1.69 579
0.00 0.00 -4.09 -19.12 6.84 -1.87 0.57 1.71 586
0.00 -0.00 -4.22 -19.84 6.30 -1.60 0.54 1.64 593
0.00 0.00 -4.51 -20.38 5.50 -1.37 0.45 1.52 601
0.00 0.00 -4.63 -20.88 4.88 -1.08 0.31 1.29 608
0.00 0.00 -4.51 -20.87 4.38 -0.79 0.19 1.03 615
0.00 0.00 -4.35 -20.37 4.34 -0.41 0.08 0.77 622
0.00 0.00 -5.06 -24.89 1.26 -0.01 -0.08 0.46 629
0.00 0.00 -7.16 -20.88 -2.31 2.17 -0.42 0.28 636
0.00 0.00 -4.62 -15.77 5.59 2.00 -0.56 0.10 644
0.00 0.00 -3.58 -20.75 5.73 2.26 -1.16 -0.07 651
-0.00 0.01 -5.50 -22.02 7.24 2.52 -1.71 -0.10 658
-0.01 0.05 0.41 0.47 3.76 2.54 -1.60 -0.03 665
-0.01 0.09 1.64 2.10 6.64 2.69 -0.86 0.11 672
-0.01 0.11 1.35 3.65 19.12 3.15 -0.28 0.29 679
-0.02 0.24 -2.85 0.90 17.34 3.24 -0.34 0.24 688
-0.02 0.38 -5.21 -1.94 18.27 3.33 -0.84 -0.15 695
-0.05 0.57 -2.09 -3.92 18.08 3.27 -1.06 -0.41 702
-0.04 0.66 -0.39 -2.96 17.36 3.17 -0.80 -0.49 709
-0.03 0.72 -0.55 -2.41 18.08 2.91 -0.58 -0.55 716
-0.04 0.79 0.80 -1.30 15.65 2.53 -0.56 -0.63 723
-0.03 0.80 2.48 -1.07 13.12 2.33 -0.52 -0.57 731
-0.04 0.78 3.48 -1.71 13.12 2.36 -0.45 -0.38 738
-0.05 0.78 2.62 -1.82 15.09 2.50 -0.50 -0.12 745
-0.04 0.80 0.16 -2.85 20.72 1.95 -1.20 -0.00 752
-0.03 0.83 0.84 -1.55 12.40 0.52 -0.85 0.02 759
-0.05 0.81 -0.17 -1.75 11.22 0.14 -0.37 0.03 766
-0.05 0.79 0.03 -1.21 10.16 0.00 -0.09 0.00 773
-0.05 0.80 0.26 -1.02 10.09 0.00 -0.02 -0.03 780
-0.06 0.80 0.50 -0.99 9.92 -0.00 0.00 -0.04 787
-0.03 0.80 0.57 -0.95 9.86 -0.01 0.03 -0.03 794
-0.01 0.79 1.54 -0.89 10.67 -0.00 0.03 -0.04 801
-0.03 0.79 0.42 -0.84 9.85 -0.01 0.04 -0.05 808
-0.04 0.80 0.52 -0.79 9.81 0.03 0.05 -0.05 816
-0.04 0.79 0.44 -0.83 9.84 0.00 0.04 -0.05 823
-0.03 0.75 0.46 -0.84 9.81 0.00 0.04 -0.06 830
-0.03 0.73 0.44 -0.84 9.79 0.00 0.04 -0.06 837
-0.02 0.69 0.48 -0.80 9.81 0.00 0.04 -0.05 844
-0.02 0.64 0.50 -0.81 9.80 0.01 0.05 -0.06 851
-0.02 0.60 0.46 -0.83 9.79 0.01 0.05 -0.06 859
-0.01 0.59 0.47 -0.81 9.83 0.01 0.05 -0.06 866
0.01 0.57 0.49 -0.86 9.82 0.02 0.06 -0.07 873
0.02 0.53 0.50 -0.82 9.78 0.02 0.06 -0.07 880
0.03 0.48 0.53 -0.78 9.74 0.02 0.06 -0.07 887
0.04 0.47 0.52 -0.84 9.81 0.02 0.06 -0.07 894
0.04 0.38 0.57 -0.80 9.80 0.02 0.06 -0.08 902
0.03 0.36 0.57 -0.83 9.77 0.03 0.06 -0.08 909
0.04 0.38 0.54 -0.83 9.79 0.02 0.06 -0.08 916
0.08 0.28 0.50 -0.82 9.79 0.03 0.07 -0.09 923
0.07 0.28 0.53 -0.84 9.79 0.03 0.07 -0.09 930
0.07 0.19 0.52 -0.89 9.84 0.03 0.07 -0.09 937
0.08 0.19 0.49 -0.86 9.80 0.03 0.08 -0.09 945
0.09 0.14 0.48 -0.86 9.80 0.03 0.08 -0.09 952
0.10 0.17 0.54 -0.87 9.81 0.03 0.08 -0.08 959
0.12 0.10 0.56 -0.85 9.81 0.03 0.09 -0.08 966
0.12 0.07 0.59 -0.85 9.80 0.03 0.09 -0.08 973
0.12 0.07 0.57 -0.86 9.76 0.03 0.09 -0.08 980
0.13 0.06 0.58 -0.85 9.78 0.03 0.09 -0.08 988
0.13 0.06 0.59 -0.88 9.78 0.03 0.08 -0.09 995
0.13 0.02 0.62 -0.92 9.72 0.03 0.08 -0.09 1002
0.14 0.01 0.60 -0.94 9.76 0.03 0.08 -0.09 1009
0.15 0.01 0.59 -0.90 9.78 0.02 0.08 -0.09 1016
0.16 -0.01 0.57 -0.91 9.79 0.03 0.07 -0.09 1024
0.14 0.01 0.61 -0.90 9.79 0.03 0.07 -0.09 1031
0.11 -0.00 0.52 -0.89 9.79 0.02 0.06 -0.09 1038
0.12 0.01 0.56 -0.95 9.83 0.03 0.06 -0.09 1045
0.12 -0.00 0.59 -0.87 9.80 0.03 0.05 -0.09 1052
0.14 -0.01 0.00 -0.87 9.81 0.02 0.05 -0.09 1059
0.15 -0.01 0.62 -0.89 9.80 0.03 0.04 -0.09 1067
0.14 -0.01 0.61 -0.88 9.81 0.03 0.03 -0.10 1074
0.15 -0.02 0.60 -0.88 9.80 0.03 0.03 -0.07 1081
0.16 -0.02 0.62 -0.88 9.82 0.04 0.03 -0.10 1088
0.19 -0.01 0.63 -0.93 9.83 0.04 0.02 -0.11 1095
0.21 -0.02 0.62 -0.96 9.20 0.06 0.02 -0.12 1102
0.25 -0.03 0.64 -0.96 9.80 0.06 0.02 -0.12 1110
0.28 -0.02 0.62 -0.99 9.77 0.07 0.02 -0.13 1117
0.30 -0.01 0.58 -0.99 9.81 0.07 0.02 -0.13 1124
0.35 -0.01 0.55 -0.96 9.81 0.08 0.02 -0.13 1131
0.38 -0.02 0.65 -1.00 9.81 0.09 0.03 -0.14 1138
0.43 -0.02 0.65 -1.03 9.83 0.11 0.05 -0.15 1145
0.48 -0.02 0.69 -1.04 9.85 0.13 0.06 -0.15 1153
0.51 -0.03 0.64 -0.97 9.95 0.16 0.06 -0.16 1160
0.52 -0.02 0.63 -1.04 9.95 0.20 0.07 -0.17 1167
0.59 -0.03 0.56 -1.08 10.07 0.26 0.08 -0.18 1174
0.64 -0.04 0.52 -1.11 10.05 0.34 0.09 -0.18 1182
0.69 -0.03 0.49 -1.08 10.09 0.42 0.13 -0.16 1188
0.76 -0.04 0.38 -1.25 10.22 0.55 0.12 -0.15 1197
0.81 -0.04 0.54 -1.29 10.47 0.68 0.14 -0.14 1204
0.87 -0.03 0.72 -1.38 10.58 0.85 0.13 -0.16 1211
0.92 -0.03 0.57 -1.37 11.00 0.98 0.14 -0.14 1217
0.95 -0.04 0.70 -1.46 11.26 1.11 0.07 -0.14 1225
0.99 -0.04 0.72 -1.57 11.44 1.23 0.01 -0.14 1232
1.03 -0.05 0.77 -1.60 11.58 1.35 -0.06 -0.15 1240
1.09 -0.04 0.75 -1.73 11.79 1.46 -0.14 -0.15 1247
1.13 -0.04 0.72 -1.71 11.93 1.62 -0.21 -0.16 1254
1.20 -0.04 0.68 -2.03 12.16 1.75 -0.21 -0.16 1261
1.25 -0.05 0.41 -1.94 12.20 1.94 -0.24 -0.17 1268
1.32 -0.05 0.47 -2.00 12.17 2.16 -0.29 -0.15 1275
1.34 -0.05 0.45 -2.22 11.59 2.32 -0.32 -0.15 1283
1.34 -0.05 0.67 -2.45 12.12 2.52 -0.34 -0.16 1290
1.33 -0.05 0.87 -2.48 12.30 2.75 -0.38 -0.16 1297
1.30 -0.05 0.23 -2.52 13.29 2.97 -0.39 -0.15 1304
1.28 -0.05 0.06 -2.61 13.49 3.29 -0.38 -0.13 1311
1.29 -0.06 1.12 -2.99 14.33 3.59 -0.38 -0.11 1318
1.17 -0.05 1.43 -3.29 14.18 3.96 -0.40 -0.16 1326
1.04 -0.05 1.23 -3.94 14.69 4.22 -0.41 -0.27 1333
0.91 -0.03 0.79 -4.11 15.46 4.28 -0.45 -0.35 1340
0.72 -0.03 0.96 -4.24 16.21 4.28 -0.52 -0.41 1347
0.50 -0.03 1.00 -5.37 17.86 4.28 -0.57 -0.47 1354
0.34 -0.02 0.90 -7.18 18.64 4.28 -0.58 -0.52 1361
0.29 -0.02 0.70 -9.19 21.75 4.28 -0.53 -0.56 1369
0.22 -0.01 1.03 -11.10 25.31 4.28 -0.37 -0.53 1376
0.17 -0.02 1.73 -12.01 26.50 4.28 0.02 -0.47 1382
0.13 -0.01 2.88 -11.91 24.67 4.28 0.65 -0.34 1390
0.13 -0.01 1.96 -9.65 21.65 4.28 1.32 -0.26 1396
0.08 -0.01 0.92 -6.85 23.59 4.28 1.79 -0.22 1403
0.09 -0.01 -0.33 -6.06 27.78 4.28 1.83 -0.31 1411
0.06 -0.00 -0.29 -4.98 30.26 4.28 1.51 -0.49 1419
0.06 -0.01 0.09 -2.02 29.86 4.28 0.88 -0.73 1425
0.02 -0.00 0.43 2.22 28.13 4.28 0.27 -0.86 1432
0.01 -0.00 0.64 14.15 25.87 4.28 -0.08 -0.88 1439
0.00 0.00 4.07 15.84 15.13 4.23 -0.14 -0.94 1446
0.00 0.00 3.49 21.84 4.69 3.18 -0.36 -1.13 1454
-0.00 0.00 5.86 26.00 -1.80 2.27 -1.12 -1.54 1461
0.01 -0.00 6.85 16.70 23.51 0.54 -0.90 -1.63 1468
0.01 -0.00 6.45 12.13 24.24 -1.34 -0.34 -1.54 1476
0.00 0.00 3.75 11.89 16.58 -2.22 0.11 -1.38 1482
0.00 0.00 2.62 12.48 11.76 -2.72 0.32 -1.25 1489
0.00 -0.00 1.99 12.09 8.76 -3.11 0.34 -1.14 1497
0.00 0.00 2.21 9.83 7.72 -3.34 0.25 -1.12 1504
0.00 -0.00 2.24 8.22 7.28 -3.45 0.03 -1.12 1511
0.00 0.00 1.37 6.95 8.50 -3.52 -0.16 -1.11 1518
0.00 0.00 1.81 6.05 8.87 -3.60 -0.22 -1.09 1525
0.00 0.00 2.35 5.38 9.08 -3.69 -0.24 -1.05 1532
0.00 0.00 2.81 5.06 9.16 -3.83 -0.23 -1.01 1540
0.00 0.00 3.09 4.95 9.27 -4.03 -0.19 -0.97 1547
0.00 0.00 3.45 4.62 9.72 -4.16 -0.08 -0.93 1554
0.00 0.00 3.85 4.11 10.14 -4.25 0.10 -0.88 1561
0.00 0.00 4.06 3.20 10.62 -4.28 0.41 -0.81 1568
0.00 0.00 3.88 2.40 10.69 -4.28 0.69 -0.71 1575
0.00 0.00 3.46 1.76 11.09 -4.28 0.94 -0.60 1583
0.00 0.00 2.89 1.13 11.58 -4.28 1.07 -0.46 1590
0.00 0.00 2.34 0.45 12.28 -4.28 1.11 -0.32 1597
0.00 0.00 2.19 -0.45 12.87 -4.28 1.13 -0.15 1604
0.00 0.00 2.18 -1.14 13.57 -4.28 1.12 0.01 1611
0.00 0.00 2.15 -1.63 14.46 -4.28 1.12 0.12 1618
0.00 0.00 2.19 -2.08 15.47 -4.28 1.17 0.21 1626
0.00 -0.00 2.22 -2.68 16.50 -4.28 1.29 0.24 1633
0.00 0.00 2.21 -3.19 16.86 -4.28 1.49 0.22 1640
0.00 0.00 2.06 -3.56 17.45 -4.28 1.72 0.15 1647
0.00 0.00 1.48 -3.98 18.22 -4.28 1.92 0.09 1654
0.00 0.00 0.89 -4.31 18.78 -4.28 2.12 0.05 1661
-0.00 0.00 0.08 -4.86 19.57 -4.28 2.22 0.06 1669
0.00 0.00 -0.68 -5.42 19.96 -4.28 2.31 0.11 1676
0.00 0.00 -1.54 -6.12 20.63 -4.27 2.32 0.22 1683
0.00 0.00 -2.30 -6.63 20.91 -4.22 2.21 0.32 1690
0.00 0.00 -3.21 -7.41 20.97 -4.12 1.95 0.44 1697
0.00 0.00 -3.50 -8.38 20.73 -4.00 1.66 0.53 1704
0.00 0.00 -3.36 -9.46 20.47 -3.83 1.24 0.58 1712
0.00 0.00 -2.80 -10.36 20.01 -3.69 0.87 0.62 1719
0.00 0.00 -2.03 -11.22 19.46 -3.48 0.61 0.62 1726
0.00 0.00 -1.22 -11.94 19.10 -3.27 0.44 0.64 1733
0.00 0.00 -0.51 -12.58 19.28 -3.08 0.42 0.65 1740
0.00 0.00 -0.08 -13.19 19.63 -2.90 0.54 0.67 1747
0.00 0.00 0.01 -13.73 20.33 -2.84 0.81 0.69 1755
0.00 0.00 -0.11 -14.28 20.29 -2.92 1.10 0.72 1762
0.00 0.00 -0.87 -15.15 19.21 -3.14 1.45 0.78 1769
0.00 0.00 -2.92 -16.34 16.99 -3.33 1.77 0.89 1776
0.00 0.00 -4.18 -17.87 14.84 -3.42 2.02 1.04 1783
0.00 0.00 -5.85 -20.41 12.48 -3.31 2.08 1.24 1790
0.00 0.00 -7.24 -22.85 10.09 -3.05 1.79 1.40 1798
0.00 0.00 -8.54 -25.21 7.97 -2.56 1.16 1.46 1805
0.00 0.00 -8.67 -25.93 5.34 -2.09 0.43 1.42 1812
0.00 0.00 -7.82 -25.86 3.12 -1.55 -0.09 1.29 1819
0.00 0.00 -6.22 -26.12 3.33 -1.06 -0.43 1.07 1826
0.00 0.00 -5.04 -26.05 3.97 -0.68 -0.49 0.81 1833
0.00 0.00 -3.81 -25.20 4.99 -0.28 -0.37 0.56 1841
0.00 0.00 -1.53 -32.03 1.12 -0.02 -0.15 0.27 1848
0.00 0.00 -2.45 -22.94 -7.04 2.31 0.48 0.09 1855
0.00 0.00 -3.47 -17.81 2.89 1.96 0.55 -0.03 1862
-0.00 0.00 -4.56 -28.58 7.65 2.36 -0.01 -0.11 1869
-0.00 0.03 -3.94 -34.10 -3.01 2.45 -0.68 -0.14 1876
0.00 0.07 0.43 3.38 -3.11 2.89 -0.54 -0.12 1884
-0.01 0.11 2.16 -7.89 13.53 3.69 -0.50 -0.17 1891
-0.02 0.29 2.20 4.98 28.71 4.27 -0.68 -0.10 1899
-0.06 0.59 -1.24 -1.96 23.40 4.27 -1.17 -0.21 1905
-0.05 0.76 -0.13 -3.69 23.85 4.14 -1.45 -0.30 1913
-0.05 0.85 1.12 -5.30 20.64 3.76 -1.13 -0.16 1921
-0.06 0.94 1.12 -3.88 18.50 3.57 -0.70 -0.00 1928
-0.06 0.96 -0.48 -2.06 16.58 3.31 -0.63 0.02 1935
-0.06 0.89 -0.11 -1.47 15.50 3.06 -0.56 -0.08 1942
-0.06 0.96 0.85 -1.54 16.90 3.11 -0.54 -0.10 1949
-0.05 0.85 -0.73 -3.48 26.55 2.02 -1.34 -0.07 1956
-0.04 0.85 0.96 -2.56 12.78 0.47 -0.77 0.02 1964
-0.04 0.87 -0.28 -2.16 10.42 0.06 -0.26 0.04 1971
-0.05 0.82 -0.28 -1.25 10.03 0.01 -0.08 0.00 1977
-0.05 0.84 -0.05 -1.00 9.97 0.00 -0.01 -0.05 1984
-0.04 0.83 0.54 -1.16 9.90 -0.01 0.02 -0.05 1991
-0.03 0.83 0.48 -1.12 10.04 -0.01 0.01 -0.04 1998
-0.02 0.79 0.39 -0.84 9.30 -0.01 0.01 -0.05 2006
-0.02 0.76 0.41 -0.77 9.84 -0.00 0.02 -0.06 2013
0.01 0.72 0.53 -0.82 9.86 0.00 0.03 -0.07 2020
0.01 0.66 0.40 -0.83 9.81 0.00 0.03 -0.07 2027
-0.01 0.63 0.42 -0.87 9.80 0.01 0.04 -0.08 2034
0.01 0.59 0.36 -0.85 9.88 0.01 0.04 -0.07 2041
0.04 0.59 0.40 -0.92 9.81 0.01 0.05 -0.07 2049
0.04 0.52 0.39 -0.83 9.82 0.01 0.05 -0.08 2056
0.05 0.44 0.43 -0.82 9.94 0.02 0.06 -0.08 2063
0.04 0.41 0.40 -0.86 9.83 0.02 0.06 -0.07 2070
0.07 0.35 0.40 -0.82 9.81 0.02 0.07 -0.07 2077
0.08 0.37 0.42 -0.84 9.82 0.02 0.06 -0.07 2084
0.09 0.29 0.47 -0.82 9.80 0.03 0.10 -0.08 2092
0.08 0.19 0.46 -0.83 9.82 0.04 0.07 -0.08 2099
0.08 0.21 0.50 -0.82 9.81 0.04 0.07 -0.08 2106
0.10 0.17 0.51 -0.89 9.82 0.04 0.07 -0.09 2113
0.12 0.13 0.52 -0.94 9.78 0.04 0.06 -0.09 2120
0.13 0.07 0.52 -0.86 9.77 0.04 0.06 -0.09 2127
0.15 0.06 0.48 -0.92 10.42 0.04 0.05 -0.09 2135
0.14 0.04 0.61 -0.87 9.72 0.04 0.05 -0.10 2142
0.16 -0.00 0.52 -0.91 9.83 0.04 0.04 -0.10 2149
0.14 0.02 0.41 -0.94 9.79 0.04 0.04 -0.10 2156
0.16 0.02 0.40 -0.95 9.77 0.04 0.04 -0.10 2163
0.17 0.01 0.46 -0.89 9.79 0.04 0.05 -0.09 2170
0.17 -0.00 0.47 -0.94 9.79 0.04 0.04 -0.09 2178
0.17 -0.01 0.49 -0.88 9.80 0.04 0.05 -0.10 2185
0.19 -0.02 0.48 -0.93 9.81 0.04 0.05 -0.10 2192
0.22 -0.02 0.49 -0.94 9.79 0.04 0.05 -0.10 2199
0.21 0.00 0.50 -1.00 9.81 0.03 0.04 -0.13 2206
0.20 -0.02 0.50 -0.97 9.75 0.02 0.04 -0.10 2213
0.21 -0.01 0.51 -0.97 9.76 0.02 0.03 -0.11 2221
0.21 -0.01 0.46 -0.96 9.75 0.02 0.03 -0.10 2228
0.23 -0.01 0.52 -0.96 9.76 0.01 0.03 -0.10 2235
0.23 -0.02 0.48 -0.94 9.78 0.00 0.03 -0.11 2242
0.24 -0.01 0.47 -0.96 9.80 0.01 0.03 -0.11 2249
0.26 -0.01 0.50 -0.99 9.72 0.01 0.03 -0.11 2256
0.28 -0.01 0.45 -0.94 9.79 0.01 0.03 -0.11 2264
0.29 -0.02 0.44 -0.97 9.79 0.02 0.03 -0.11 2271
0.31 -0.02 0.44 -0.97 9.77 0.02 0.03 -0.11 2278
0.33 -0.01 0.42 -0.97 9.79 0.02 0.03 -0.10 2285
0.36 -0.02 0.43 -0.98 9.79 0.02 0.04 -0.10 2292
0.39 -0.03 0.42 -0.93 9.76 0.02 0.04 -0.07 2299
0.37 -0.02 0.46 -0.95 9.81 0.03 0.04 -0.09 2307
0.39 -0.03 0.45 -0.98 9.85 0.03 0.04 -0.10 2314
0.41 -0.02 0.49 -0.98 9.83 0.05 0.05 -0.10 2321
0.49 -0.02 0.54 -1.00 9.87 0.10 0.05 -0.10 2328
0.52 -0.02 0.51 -0.96 9.91 0.09 0.06 -0.11 2335
0.62 -0.03 0.52 -1.01 9.90 0.13 0.07 -0.12 2342
0.64 -0.03 0.54 -1.06 10.01 0.18 0.08 -0.13 2350
0.74 -0.05 0.53 -1.10 10.09 0.27 0.09 -0.13 2357
0.76 -0.04 0.61 -1.12 10.43 0.42 0.12 -0.14 2365
0.82 -0.04 0.45 -1.14 10.93 0.62 0.16 -0.15 2372
0.85 -0.03 0.51 -1.39 11.26 0.94 0.22 -0.17 2379
0.99 -0.04 0.56 -1.21 11.85 1.21 0.23 -0.17 2386
1.03 -0.04 0.66 -1.47 12.17 1.45 0.17 -0.18 2394
1.11 -0.05 0.73 -1.59 12.22 1.60 0.06 -0.20 2401
1.08 -0.04 0.63 -1.56 12.26 1.69 -0.02 -0.20 2408
1.13 -0.04 0.49 -1.65 11.93 1.78 -0.10 -0.19 2415
1.19 -0.05 0.51 -1.65 11.80 1.88 -0.15 -0.18 2422
1.21 -0.04 0.46 -2.42 12.06 2.00 -0.17 -0.18 2429
1.21 -0.04 0.49 -1.98 12.07 2.14 -0.18 -0.18 2437
1.24 -0.05 0.23 -2.04 12.30 2.30 -0.21 -0.18 2444
1.27 -0.04 0.56 -2.16 12.43 2.50 -0.24 -0.18 2451
1.25 -0.04 0.77 -2.36 12.80 2.76 -0.31 -0.18 2458
1.25 -0.05 0.61 -2.63 12.73 3.02 -0.33 -0.19 2465
1.24 -0.05 -0.02 -2.68 14.27 3.39 -0.30 -0.18 2472
1.20 -0.04 0.21 -3.07 15.19 3.73 -0.29 -0.16 2480
1.07 -0.05 1.10 -3.12 14.73 4.14 -0.33 -0.17 2487
0.94 -0.04 1.95 -3.47 15.60 4.28 -0.38 -0.27 2494
0.82 -0.02 1.50 -3.94 15.91 4.28 -0.53 -0.40 2501
0.70 -0.03 1.06 -4.25 18.59 4.28 -0.65 -0.47 2508
0.47 -0.02 2.21 -4.81 21.25 4.28 -0.83 -0.55 2515
0.33 -0.03 0.91 -7.47 22.12 4.28 -0.85 -0.59 2523
0.27 -0.01 1.19 -9.87 24.66 4.28 -0.80 -0.62 2530
0.23 -0.02 1.32 -12.31 28.17 4.28 -0.61 -0.59 2537
0.17 -0.01 0.98 -12.29 27.09 4.28 -0.18 -0.51 2544
0.13 -0.01 -0.01 -10.68 25.57 4.28 0.36 -0.38 2551
0.14 -0.01 -0.38 -8.97 27.29 4.28 0.57 -0.33 2557
0.11 -0.01 -0.53 -7.22 30.12 4.28 0.40 -0.40 2565
0.06 -0.01 1.74 -5.46 32.52 4.28 0.09 -0.53 2572
0.05 -0.01 2.99 -2.46 33.22 4.28 -0.38 -0.65 2579
0.05 -0.00 3.13 3.82 30.31 4.28 -0.78 -0.75 2586
0.02 -0.00 3.21 11.34 18.97 4.28 -0.65 -0.69 2594
0.00 -0.00 8.14 20.07 14.87 4.21 -0.31 -0.78 2600
0.00 0.00 4.71 27.73 -2.02 3.14 -0.28 -1.13 2608
0.00 0.00 6.97 25.98 1.18 2.25 -0.85 -1.61 2615
0.00 0.00 7.93 15.31 25.21 0.90 -0.25 -1.76 2622
0.00 -0.00 6.10 12.95 23.10 -0.98 0.38 -1.70 2629
0.00 0.00 3.58 14.46 16.55 -2.01 0.81 -1.61 2636
0.00 0.00 2.05 15.13 10.25 -2.58 0.80 -1.47 2643
0.00 0.00 2.00 13.68 8.83 -3.16 0.64 -1.38 2651
0.00 0.00 2.53 11.09 8.31 -3.51 0.41 -1.35 2658
-0.00 0.00 2.44 8.76 6.69 -3.68 0.24 -1.32 2665
0.00 -0.00 2.24 7.42 8.52 -3.84 0.14 -1.27 2672
0.00 0.00 2.62 6.46 8.51 -3.96 0.20 -1.18 2679
0.00 0.00 2.91 5.77 8.42 -4.07 0.26 -1.09 2686
0.00 0.00 2.86 5.28 8.51 -4.17 0.34 -1.00 2694
0.01 0.00 2.71 4.85 9.03 -4.24 0.43 -0.90 2701
0.00 0.00 2.71 4.18 9.53 -4.28 0.47 -0.81 2708
0.01 -0.00 2.78 3.15 10.14 -4.28 0.61 -0.71 2715
0.01 -0.00 2.80 2.19 10.88 -4.28 0.78 -0.57 2722
0.00 -0.00 2.80 1.26 11.54 -4.28 0.97 -0.48 2729
0.00 0.00 2.60 0.71 11.92 -4.28 1.11 -0.36 2737
0.00 -0.00 2.27 0.38 12.29 -4.28 1.24 -0.27 2744
0.01 -0.00 2.05 -0.29 12.51 -4.28 1.36 -0.18 2751
0.01 -0.00 1.98 -1.74 13.07 -4.28 1.46 -0.08 2758
0.00 -0.00 1.91 -2.19 13.80 -4.28 1.55 -0.05 2765
0.00 0.00 1.67 -3.32 14.81 -4.28 1.61 -0.02 2772
0.00 0.00 1.31 -4.30 15.84 -4.28 1.71 -0.02 2780
0.01 -0.00 1.05 -5.46 16.41 -4.28 1.81 -0.02 2787
0.01 -0.00 0.82 -6.66 17.07 -4.28 1.88 -0.05 2794
0.00 -0.00 0.55 -6.50 17.28 -4.28 1.90 -0.03 2801
0.01 -0.00 0.64 -5.51 17.96 -4.26 1.85 -0.02 2808
0.00 -0.00 0.17 -6.53 18.34 -4.22 1.85 0.02 2816
0.00 0.00 0.60 -6.53 17.47 -4.14 1.87 0.10 2823
0.00 0.00 0.57 -6.79 17.91 -4.01 1.89 0.20 2830
0.00 0.00 0.66 -6.89 18.31 -3.80 1.88 0.26 2837
0.00 0.00 0.39 -7.24 19.13 -3.64 1.88 0.34 2844
0.00 0.00 0.50 -7.91 20.11 -3.48 1.95 0.42 2851
0.00 0.00 0.02 -7.93 20.01 -3.40 1.96 0.49 2859
0.00 0.00 -0.57 -8.87 20.53 -3.36 1.94 0.54 2866
0.00 0.00 -1.01 -9.95 20.01 -3.30 1.80 0.55 2873
0.00 0.00 -1.31 -10.97 19.29 -3.21 1.59 0.56 2880
0.00 0.00 -1.00 -11.71 18.28 -3.02 1.44 0.57 2887
0.00 0.00 -0.49 -12.38 17.48 -2.76 1.29 0.56 2894
0.00 0.00 -0.20 -13.01 17.30 -2.50 1.20 0.52 2902
0.00 0.00 0.22 -13.64 17.88 -2.22 1.18 0.50 2909
0.00 0.00 0.42 -14.57 18.92 -2.04 1.22 0.47 2916
0.00 0.00 0.50 -15.41 19.05 -2.07 1.30 0.46 2923
0.00 0.00 0.40 -16.39 18.11 -2.18 1.42 0.46 2930
0.00 0.00 -0.02 -16.72 15.70 -2.36 1.59 0.53 2937
0.00 0.00 -1.03 -16.63 12.56 -2.56 1.85 0.67 2945
0.00 0.00 -2.89 -17.61 10.65 -2.65 2.23 1.00 2952
0.00 0.00 -4.82 -19.75 9.85 -2.57 2.40 1.41 2959
0.00 0.00 -7.36 -22.07 8.54 -2.31 2.21 1.74 2966
0.00 0.00 -8.65 -24.66 6.49 -2.03 1.62 2.05 2973
0.00 0.00 -8.69 -26.43 3.57 -1.69 0.93 2.20 2980
0.00 0.00 -7.54 -26.92 1.60 -1.23 0.15 2.22 2988
0.00 0.00 -5.54 -26.53 1.42 -0.76 -0.28 2.05 2995
0.00 0.00 -4.63 -25.53 2.24 -0.17 -0.48 1.77 3002
0.00 0.00 -3.32 -23.84 4.03 0.33 -0.38 1.34 3009
0.00 0.00 -19.91 -25.00 31.20 2.76 -1.17 1.11 3016
0.00 0.00 -6.20 -15.09 10.26 2.26 -0.56 0.87 3023
-0.00 0.00 -5.50 -21.92 5.26 2.47 -1.13 0.67 3031
-0.00 0.02 -7.36 -30.77 0.47 2.44 -1.99 0.79 3038
0.00 0.09 -0.14 4.39 0.54 2.62 -1.97 1.08 3045
-0.01 0.11 1.04 -6.81 11.35 3.15 -0.87 1.32 3052
-0.02 0.39 -4.85 3.89 30.30 4.12 -0.36 1.46 3060
-0.04 0.63 -11.64 -2.23 23.57 4.17 -0.94 0.90 3067
-0.06 0.85 -8.23 -5.87 22.33 4.06 -1.33 0.16 3075
-0.06 0.92 -3.19 -4.98 20.51 3.76 -0.87 -0.13 3082
-0.05 0.95 -1.82 -2.54 19.61 3.36 -0.42 -0.30 3089
-0.06 0.97 0.76 -1.62 16.29 2.85 -0.41 -0.42 3096
-0.06 0.95 3.06 -1.60 14.89 2.74 -0.46 -0.38 3103
-0.06 0.86 3.43 -2.06 18.82 2.79 -0.86 -0.19 3110
-0.05 0.83 0.90 -1.30 16.15 1.34 -1.66 -0.05 3118
-0.05 0.87 0.08 -2.17 12.76 0.53 -0.92 0.07 3124
-0.03 0.84 -0.34 -1.64 10.70 0.11 -0.41 0.03 3132
-0.04 0.81 -0.15 -1.00 10.00 0.03 -0.15 -0.03 3138
-0.03 0.81 0.32 -1.25 10.02 0.01 -0.09 -0.06 3145
-0.04 0.76 0.53 -1.04 10.02 -0.00 -0.05 -0.05 3152
-0.04 0.80 0.39 -0.88 9.83 -0.01 -0.04 -0.05 3160
-0.03 0.74 0.28 -0.75 9.81 -0.01 -0.02 -0.06 3167
-0.01 0.69 0.38 -0.73 10.02 -0.00 0.00 -0.07 3174
-0.01 0.62 0.36 -0.83 9.82 0.01 0.02 -0.07 3181
-0.01 0.61 0.34 -0.76 9.83 0.01 0.03 -0.07 3188
-0.01 0.59 0.29 -0.82 9.99 0.01 0.03 -0.07 3195
0.04 0.55 0.35 -0.76 9.87 0.01 0.04 -0.04 3203
0.06 0.51 0.38 -0.77 9.83 0.02 0.04 -0.07 3210
0.04 0.52 0.36 -0.84 9.95 0.02 0.05 -0.07 3217
0.04 0.48 0.30 -0.80 9.77 0.02 0.06 -0.08 3224
0.03 0.46 0.36 -0.78 9.81 0.02 0.07 -0.07 3231
0.03 0.41 0.37 -0.72 9.83 0.02 0.08 -0.08 3238
0.04 0.33 0.35 -0.74 9.85 0.03 0.09 -0.07 3246
0.07 0.27 0.39 -0.63 9.73 0.04 0.09 -0.07 3253
0.08 0.22 0.43 -0.76 9.82 0.05 0.09 -0.08 3260
0.10 0.20 0.43 -0.72 9.78 0.05 0.10 -0.09 3267
0.10 0.13 0.47 -0.80 9.81 0.05 0.09 -0.09 3274
0.10 0.12 0.48 -0.80 9.78 0.05 0.09 -0.10 3281
0.09 0.07 0.51 -0.78 9.80 0.05 0.09 -0.09 3289
0.11 0.06 0.50 -0.85 9.80 0.05 0.09 -0.09 3296
0.12 0.00 0.47 -0.79 9.82 0.05 0.09 -0.09 3303
0.12 0.04 0.48 -0.84 9.83 0.05 0.09 -0.09 3310
0.13 0.03 0.50 -0.81 9.81 0.06 0.09 -0.09 3317
0.12 0.02 0.44 -0.90 9.78 0.05 0.09 -0.08 3324
0.12 0.02 0.45 -0.83 9.81 0.05 0.10 -0.09 3332
0.14 0.04 0.47 -0.88 9.82 0.06 0.10 -0.09 3339
0.14 0.03 0.47 -0.87 9.82 0.05 0.10 -0.08 3346
0.14 -0.01 0.49 -0.89 9.77 0.05 0.10 -0.08 3353
0.13 -0.01 0.51 -0.86 9.79 0.05 0.09 -0.09 3360
0.17 -0.01 0.51 -0.88 9.75 0.04 0.08 -0.09 3367
0.17 0.00 0.54 -0.90 9.74 0.03 0.07 -0.09 3375
0.18 -0.00 0.52 -0.87 9.75 0.02 0.05 -0.09 3382
0.18 -0.01 0.51 -0.85 9.72 0.00 0.04 -0.09 3389
0.19 -0.02 0.55 -0.88 9.75 -0.00 0.02 -0.09 3396
0.18 -0.01 0.53 -0.91 9.77 -0.01 0.02 -0.10 3403
0.19 -0.01 0.48 -0.86 9.80 -0.02 0.01 -0.10 3410
0.20 -0.01 0.46 -0.86 9.80 -0.02 -0.00 -0.10 3418
0.21 -0.02 0.47 -0.88 9.75 -0.02 -0.01 -0.10 3425
0.21 -0.02 0.46 -0.91 9.80 -0.02 -0.01 -0.11 3432
0.22 -0.02 0.44 -0.89 9.73 -0.02 -0.00 -0.10 3439
0.22 -0.01 0.42 -0.88 9.75 -0.02 -0.00 -0.10 3446
0.24 0.01 0.46 -0.91 9.79 -0.02 -0.00 -0.10 3453
0.27 -0.01 0.43 -0.85 9.70 -0.02 0.01 -0.10 3461
0.27 -0.01 0.47 -0.84 9.72 -0.02 0.01 -0.10 3468
0.27 -0.02 0.47 -0.91 9.79 -0.02 0.01 -0.10 3475
0.28 -0.02 0.40 -0.88 9.79 -0.01 0.01 -0.10 3482
0.28 -0.01 0.41 -0.83 9.77 -0.00 0.02 -0.09 3489
0.30 -0.01 0.43 -0.89 9.81 0.01 0.02 -0.08 3496
0.33 -0.01 0.43 -0.87 9.82 0.03 0.04 -0.08 3504
0.41 -0.02 0.41 -0.91 9.82 0.03 0.05 -0.09 3511
0.42 -0.02 0.45 -0.83 9.90 0.05 0.06 -0.09 3518
0.46 -0.03 0.47 -0.90 9.91 0.08 0.07 -0.10 3525
0.54 -0.03 0.46 -1.01 9.97 0.11 0.09 -0.10 3532
0.63 -0.02 0.50 -0.97 10.08 0.18 0.12 -0.12 3539
0.74 -0.04 0.67 -1.10 10.31 0.30 0.19 -0.14 3548
0.79 -0.04 0.70 -1.06 10.79 0.53 0.27 -0.16 3554
0.86 -0.05 0.77 -1.16 11.49 0.94 0.42 -0.18 3562
0.87 -0.04 0.82 -1.28 12.84 1.43 0.51 -0.20 3569
0.94 -0.04 0.92 -1.45 13.08 1.82 0.37 -0.22 3576
1.00 -0.04 0.97 -1.24 13.50 2.00 0.11 -0.24 3582
1.06 -0.04 0.73 -1.55 13.44 2.09 -0.09 -0.24 3591
1.13 -0.05 0.86 -1.59 13.55 2.26 -0.20 -0.26 3598
1.18 -0.05 0.69 -1.64 13.41 2.44 -0.20 -0.27 3605
1.20 -0.05 0.69 -1.89 13.03 2.68 -0.25 -0.27 3612
1.21 -0.04 0.51 -1.94 12.76 2.95 -0.33 -0.27 3619
1.26 -0.04 0.62 -2.07 12.37 3.13 -0.37 -0.27 3627
1.26 -0.04 0.58 -1.95 13.09 3.33 -0.41 -0.26 3634
1.25 -0.05 0.10 -2.46 14.08 3.59 -0.34 -0.24 3641
1.20 -0.06 0.19 -2.61 14.79 3.97 -0.30 -0.21 3648
1.11 -0.04 0.27 -2.92 15.34 4.25 -0.21 -0.19 3655
0.96 -0.03 1.48 -3.36 14.82 4.28 -0.26 -0.24 3662
0.84 -0.04 1.89 -3.75 16.85 4.28 -0.38 -0.32 3670
0.62 -0.03 1.46 -4.07 18.31 4.28 -0.45 -0.43 3677
0.47 -0.03 1.16 -6.09 19.07 4.28 -0.58 -0.49 3684
0.35 -0.03 1.71 -7.91 21.99 4.28 -0.62 -0.53 3691
0.28 -0.02 1.45 -10.17 24.80 4.28 -0.59 -0.58 3698
0.21 -0.00 1.44 -12.90 30.08 4.28 -0.45 -0.57 3705
0.14 -0.01 2.35 -13.03 29.57 4.28 -0.06 -0.51 3713
0.14 -0.01 2.35 -10.32 26.19 4.28 0.21 -0.52 3720
0.09 -0.01 1.77 -7.41 23.50 4.28 0.44 -0.55 3726
0.06 -0.01 0.55 -4.48 25.84 4.28 0.66 -0.58 3733
0.04 -0.00 -0.86 -3.63 28.84 4.28 0.52 -0.65 3740
0.03 -0.00 0.03 -1.50 31.02 4.28 -0.03 -0.75 3747
0.04 -0.00 1.35 1.77 30.96 4.28 -0.56 -0.82 3755
0.02 -0.00 3.11 7.16 28.75 4.28 -0.89 -0.83 3762
0.00 0.00 8.99 16.84 16.02 4.28 -0.62 -0.80 3769
0.00 0.00 7.46 20.20 8.05 3.64 -0.21 -0.95 3776
0.00 0.00 5.12 30.84 -7.14 2.18 -0.04 -1.78 3783
0.01 0.00 4.90 18.89 23.21 1.31 0.19 -2.39 3791
0.03 -0.00 6.36 12.00 29.66 -0.88 1.01 -2.52 3798
0.01 -0.00 3.12 13.44 21.19 -2.30 1.58 -2.47 3806
0.01 -0.00 1.48 14.68 12.83 -3.05 1.55 -2.35 3813
0.00 0.00 0.91 13.30 9.82 -3.64 1.20 -2.13 3819
0.00 0.00 1.57 10.83 8.27 -4.03 0.88 -1.92 3826
0.00 0.00 1.88 8.68 8.36 -4.16 0.54 -1.73 3833
0.00 0.00 1.91 6.58 9.15 -4.20 0.24 -1.52 3841
0.00 0.00 1.97 5.46 9.26 -4.21 0.06 -1.32 3848
0.00 0.00 2.63 4.57 9.26 -4.23 -0.05 -1.10 3855
0.00 0.00 3.31 4.34 8.83 -4.26 -0.08 -0.91 3862
0.00 0.00 3.58 4.29 8.87 -4.28 -0.05 -0.76 3869
0.00 -0.00 3.77 3.87 9.17 -4.28 0.10 -0.60 3876
0.00 0.00 4.10 3.15 9.81 -4.28 0.28 -0.44 3884
0.00 0.00 4.22 2.03 10.67 -4.28 0.56 -0.36 3891
0.00 0.00 3.96 0.84 11.31 -4.28 0.87 -0.24 3898
0.00 0.00 3.42 0.17 11.52 -4.28 1.13 -0.13 3905
0.00 0.00 3.07 -0.31 11.47 -4.28 1.35 -0.02 3912
0.00 0.00 2.67 -0.92 11.64 -4.28 1.47 0.05 3919
0.00 0.00 2.38 -1.85 11.98 -4.28 1.58 0.14 3927
0.00 0.00 2.21 -2.83 12.89 -4.28 1.68 0.21 3934
0.00 0.00 2.08 -3.46 14.69 -4.28 1.79 0.26 3941
0.00 0.00 1.53 -4.16 15.30 -4.28 1.90 0.29 3948
0.00 0.00 0.89 -4.70 16.37 -4.28 2.01 0.29 3955
0.00 0.00 0.28 -5.25 17.36 -4.28 2.15 0.29 3962
0.00 0.00 -0.09 -5.23 17.31 -4.28 2.25 0.29 3970
0.00 0.00 -0.64 -5.02 17.68 -4.27 2.25 0.25 3977
0.00 0.00 -1.17 -5.92 18.19 -4.25 2.27 0.22 3984
0.00 0.00 -1.67 -6.60 17.86 -4.21 2.27 0.20 3991
0.00 0.00 -1.95 -7.12 17.90 -4.09 2.23 0.18 3998
0.00 0.00 -1.85 -6.74 18.05 -3.93 2.09 0.16 4005
0.00 0.00 -1.64 -6.84 18.18 -3.73 1.95 0.13 4013
0.00 0.00 -0.83 -7.82 18.86 -3.53 1.90 0.14 4020
0.00 0.00 -0.17 -7.91 18.69 -3.35 1.84 0.14 4027
0.00 0.00 0.09 -8.77 18.77 -3.20 1.79 0.16 4034
0.00 0.00 0.60 -9.84 19.12 -3.00 1.77 0.21 4041
0.00 0.00 0.01 -10.73 19.12 -2.85 1.64 0.27 4048
0.00 0.00 -0.88 -11.53 19.63 -2.67 1.42 0.39 4056
0.00 0.00 -1.52 -12.00 20.35 -2.56 1.11 0.51 4063
0.00 0.00 -1.45 -12.04 21.36 -2.53 0.90 0.62 4070
0.00 0.00 -2.90 -17.43 22.46 -2.51 0.71 0.74 4077
0.00 0.00 -0.95 -12.16 17.74 -2.40 0.66 0.87 4084
0.00 0.00 0.49 -12.35 14.98 -2.74 0.88 0.94 4091
0.00 0.00 0.34 -15.34 17.00 -3.08 1.33 1.05 4099
0.00 0.00 -1.05 -17.90 16.83 -3.26 1.79 1.18 4106
0.00 0.00 -2.48 -20.08 15.52 -3.20 2.18 1.35 4113
0.00 0.00 -4.38 -22.71 12.43 -3.03 2.23 1.49 4120
0.00 -0.00 -7.18 -24.74 9.38 -2.70 1.92 1.56 4127
0.00 0.00 -8.92 -27.02 6.17 -2.40 1.37 1.56 4134
0.00 0.00 -9.27 -28.33 3.71 -2.01 0.86 1.48 4142
0.00 0.00 -8.62 -29.35 3.25 -1.52 0.34 1.39 4149
0.00 0.00 -8.12 -29.59 2.16 -1.04 -0.01 1.20 4156
0.00 0.00 -7.32 -28.60 2.19 -0.51 -0.27 1.01 4163
0.00 0.00 -14.43 -41.05 47.45 1.50 -1.11 0.81 4170
0.00 0.00 -4.32 -24.65 3.52 1.81 -0.77 0.60 4177
0.00 0.00 -5.28 -22.66 -2.53 2.36 -1.19 0.43 4185
-0.00 0.00 -6.43 -29.87 2.97 2.69 -1.91 0.31 4192
-0.01 0.06 -5.45 -21.28 1.92 2.78 -2.34 0.40 4199
-0.01 0.07 -0.89 11.08 3.67 3.12 -1.26 0.55 4206
-0.00 0.14 1.16 -0.22 21.93 3.72 -0.41 0.83 4213
-0.02 0.33 -3.48 1.89 22.84 3.94 -0.48 0.88 4221
-0.04 0.54 -8.29 -3.21 23.22 4.03 -0.98 0.40 4229
-0.06 0.71 -5.17 -5.28 20.95 3.81 -1.23 -0.06 4236
-0.05 0.75 -1.11 -4.34 19.59 3.62 -0.95 -0.22 4243
-0.05 0.77 0.14 -2.49 18.85 3.30 -0.61 -0.23 4250
-0.05 0.78 0.58 -1.38 15.13 2.87 -0.57 -0.23 4257
-0.05 0.75 1.06 -1.58 13.34 2.71 -0.52 -0.23 4264
-0.05 0.72 1.53 -1.76 15.85 2.91 -0.60 -0.16 4272
-0.05 0.76 -0.20 -1.89 21.23 1.50 -1.63 -0.10 4279
-0.05 0.74 1.04 -2.93 12.35 0.37 -0.69 0.04 4286
-0.04 0.77 -0.13 -2.02 10.29 -0.02 -0.18 0.03 4292
-0.05 0.74 -0.29 -1.37 10.21 -0.02 -0.07 -0.01 4300
-0.05 0.75 0.11 -0.90 9.67 -0.02 -0.00 -0.05 4306
-0.03 0.77 0.50 -0.98 10.05 -0.02 -0.01 -0.06 4314
-0.04 0.78 0.42 -1.00 10.05 -0.02 -0.01 -0.05 4321
-0.03 0.78 0.20 -0.91 9.95 -0.02 -0.01 -0.05 4328
-0.01 0.78 0.27 -0.79 9.76 -0.02 0.00 -0.06 4335
-0.01 0.77 0.32 -0.80 10.54 -0.01 0.01 -0.06 4342
-0.01 0.71 0.35 -0.78 9.86 -0.01 0.02 -0.07 4349
-0.01 0.69 0.32 -0.85 9.82 -0.00 0.03 -0.08 4357
0.02 0.71 0.34 -0.89 9.83 -0.01 0.03 -0.08 4364
0.03 0.68 0.27 -0.86 9.86 -0.00 0.03 -0.07 4371
0.07 0.59 0.29 -0.81 9.84 0.00 0.04 -0.07 4378
0.05 0.59 0.31 -0.84 9.84 0.00 0.04 -0.07 4385
0.05 0.52 0.30 -0.79 9.79 0.01 0.05 -0.08 4392
0.04 0.52 0.28 -0.82 9.82 0.01 0.05 -0.08 4400
0.04 0.48 0.31 -0.81 9.83 0.01 0.05 -0.08 4407
0.05 0.48 0.32 -0.81 9.82 0.01 0.05 -0.08 4414
0.06 0.41 0.33 -0.81 9.82 0.02 0.06 -0.08 4421
0.06 0.39 0.34 -0.81 9.81 0.02 0.06 -0.08 4428
0.05 0.34 0.34 -0.79 9.82 0.02 0.06 -0.09 4435
0.04 0.31 0.38 -0.82 9.77 0.02 0.06 -0.09 4443
0.06 0.26 0.39 -0.79 9.82 0.02 0.05 -0.09 4450
0.06 0.22 0.39 -0.85 9.82 0.02 0.05 -0.09 4457
0.06 0.19 0.42 -0.86 9.80 0.02 0.04 -0.10 4464
0.06 0.18 0.40 -0.83 9.76 0.02 0.04 -0.10 4471
0.07 0.12 0.38 -0.85 9.79 0.02 0.03 -0.10 4478
0.05 0.10 0.39 -0.85 9.74 0.02 0.03 -0.10 4486
0.07 0.08 0.39 -0.86 9.82 0.02 0.03 -0.10 4493
0.10 0.05 0.35 -0.82 9.79 0.02 0.03 -0.10 4500
0.10 0.06 0.33 -0.87 9.80 0.02 0.04 -0.11 4507
0.10 0.04 0.34 -0.89 9.79 0.02 0.03 -0.10 4514
0.09 0.01 0.36 -0.88 9.76 0.02 0.03 -0.10 4521
0.08 0.03 0.34 -0.86 9.81 0.02 0.04 -0.10 4529
0.09 0.04 0.42 -0.92 9.79 0.01 0.04 -0.10 4536
0.11 0.04 0.40 -0.90 9.80 0.02 0.04 -0.10 4543
0.13 0.01 0.38 -0.92 9.81 0.01 0.04 -0.10 4550
0.12 0.00 0.37 -0.88 9.76 0.01 0.04 -0.11 4557
0.12 -0.00 0.38 -0.91 9.72 0.01 0.04 -0.10 4564
0.13 -0.01 0.34 -0.87 9.79 0.01 0.04 -0.11 4572
0.15 0.02 0.34 -0.91 9.75 0.01 0.04 -0.11 4579
0.18 0.04 0.37 -0.86 9.81 0.01 0.04 -0.11 4586
0.18 0.02 0.33 -0.86 9.82 0.02 0.05 -0.11 4593
0.19 0.00 0.35 -0.87 9.79 0.02 0.05 -0.11 4600
0.20 0.00 0.33 -0.88 9.82 0.02 0.05 -0.10 4608
0.23 0.01 0.39 -0.87 9.78 0.02 0.05 -0.10 4615
0.24 -0.00 0.37 -0.87 9.79 0.03 0.05 -0.10 4622
0.24 -0.01 0.38 -0.89 9.81 0.03 0.05 -0.10 4629
0.32 -0.02 0.37 -0.90 9.85 0.04 0.06 -0.11 4636
0.36 -0.04 0.37 -0.87 9.85 0.05 0.06 -0.11 4643
0.39 -0.02 0.35 -0.94 9.88 0.07 0.06 -0.11 4651
0.41 -0.02 0.43 -0.88 9.83 0.09 0.07 -0.11 4658
0.46 -0.02 0.45 -0.93 9.93 0.13 0.08 -0.13 4665
0.57 -0.02 0.52 -0.99 10.04 0.17 0.09 -0.14 4672
0.64 -0.04 0.53 -1.04 9.96 0.25 0.11 -0.16 4679
0.69 -0.04 0.55 -1.04 10.23 0.36 0.13 -0.18 4687
0.75 -0.04 1.22 -1.14 10.61 0.52 0.15 -0.21 4695
0.89 -0.04 0.52 -1.16 11.22 0.84 0.20 -0.23 4702
1.01 -0.04 0.73 -1.25 11.89 1.25 0.21 -0.24 4709
1.05 -0.05 0.74 -1.47 12.11 1.52 0.15 -0.25 4716
1.08 -0.05 0.38 -1.44 12.61 1.73 -0.02 -0.25 4723
1.15 -0.05 0.46 -1.60 12.59 1.86 -0.13 -0.24 4730
1.18 -0.04 0.37 -1.53 11.87 1.99 -0.23 -0.23 4738
1.22 -0.03 0.25 -1.60 12.88 2.14 -0.27 -0.22 4745
1.31 -0.04 0.15 -1.68 13.13 2.31 -0.25 -0.21 4752
1.35 -0.05 0.28 -1.64 13.08 2.59 -0.27 -0.20 4759
1.38 -0.05 0.34 -2.00 12.55 2.80 -0.31 -0.20 4766
1.42 -0.05 0.18 -2.11 12.69 3.02 -0.31 -0.19 4773
1.38 -0.06 0.09 -2.18 13.61 3.28 -0.38 -0.18 4781
1.33 -0.04 -0.06 -2.42 14.77 3.56 -0.43 -0.16 4788
1.31 -0.05 0.51 -2.84 15.34 3.95 -0.41 -0.15 4795
1.22 -0.04 1.35 -3.15 15.11 4.22 -0.45 -0.19 4802
1.15 -0.06 1.77 -3.26 16.03 4.28 -0.48 -0.32 4809
0.94 -0.04 1.47 -4.11 16.75 4.28 -0.68 -0.41 4816
0.76 -0.04 1.68 -4.65 18.75 4.28 -0.80 -0.52 4824
0.51 -0.02 1.96 -5.63 19.74 4.28 -0.96 -0.63 4831
0.40 -0.02 1.12 -7.76 21.79 4.28 -1.07 -0.72 4838
0.36 -0.02 1.14 -9.71 27.73 4.28 -1.05 -0.79 4845
0.25 -0.03 2.52 -11.05 27.85 4.28 -0.77 -0.78 4852
0.15 -0.01 2.34 -13.11 29.43 4.28 -0.27 -0.73 4859
0.13 -0.01 0.79 -10.43 25.69 4.28 0.17 -0.69 4867
0.08 -0.01 -0.05 -7.25 27.22 4.28 0.40 -0.65 4873
0.09 -0.01 -0.71 -5.92 29.20 4.28 0.23 -0.68 4880
0.03 -0.00 1.35 -3.82 30.88 4.28 -0.16 -0.80 4887
0.04 -0.00 3.97 -0.38 31.52 4.28 -0.67 -0.93 4894
0.00 0.00 4.70 4.13 30.89 4.28 -1.08 -1.00 4901
0.00 0.00 5.31 21.23 30.75 4.28 -1.03 -0.95 4909
0.00 0.00 7.78 18.52 13.85 4.28 -0.66 -1.07 4916
0.00 0.00 4.79 22.83 -0.66 3.41 -0.63 -1.36 4923
0.00 -0.00 6.83 26.81 5.28 2.63 -0.97 -1.79 4930
0.01 -0.00 8.81 18.08 26.01 0.90 -0.16 -1.82 4937
0.00 -0.00 7.21 13.32 25.06 -0.95 0.54 -1.64 4944
0.01 0.00 4.74 14.06 17.56 -1.92 0.84 -1.33 4953
0.02 -0.00 2.73 14.90 12.64 -2.73 0.84 -1.06 4959
0.00 -0.00 2.51 13.83 10.34 -3.31 0.66 -0.83 4966
0.01 -0.00 2.89 11.46 9.46 -3.71 0.46 -0.71 4973
0.01 -0.00 3.41 8.72 7.00 -3.88 0.23 -0.60 4980
0.00 0.00 2.64 7.08 9.36 -3.94 0.15 -0.51 4987
0.00 0.00 2.75 6.05 9.27 -3.96 0.16 -0.46 4995
0.01 -0.00 3.26 5.34 8.95 -4.01 0.24 -0.41 5002
0.00 -0.00 3.31 4.99 8.71 -4.06 0.34 -0.40 5009
0.00 0.00 3.33 4.89 9.02 -4.17 0.53 -0.39 5016
0.00 0.00 3.31 4.50 9.74 -4.25 0.79 -0.37 5023
0.00 0.00 3.11 3.89 10.19 -4.28 1.04 -0.35 5030
0.00 0.00 2.82 2.78 10.72 -4.28 1.35 -0.31 5038
0.00 -0.00 2.47 1.77 11.62 -4.28 1.56 -0.25 5045
0.00 0.00 1.87 1.09 12.33 -4.28 1.69 -0.19 5052
0.00 0.00 1.26 0.55 13.07 -4.28 1.71 -0.13 5059
0.00 0.00 0.93 0.00 13.89 -4.28 1.71 -0.07 5066
0.00 0.00 0.89 -0.69 15.07 -4.28 1.70 -0.01 5073
0.00 0.00 0.93 -1.43 15.95 -4.28 1.72 0.02 5081
0.00 0.00 0.96 -2.11 16.68 -4.28 1.79 0.03 5088
0.00 0.00 1.03 -2.93 17.20 -4.28 1.92 0.02 5095
0.00 0.00 0.95 -4.01 17.52 -4.28 2.07 -0.01 5102
0.00 0.00 0.77 -5.34 18.19 -4.28 2.23 -0.07 5109
0.00 0.00 0.32 -5.98 18.06 -4.28 2.34 -0.10 5116
0.00 -0.00 -0.08 -6.34 18.99 -4.28 2.36 -0.10 5124
0.00 -0.00 -0.62 -7.02 19.48 -4.28 2.31 -0.09 5131
0.00 0.00 -0.71 -7.06 19.45 -4.28 2.24 -0.05 5138
0.00 -0.00 -0.98 -7.19 18.93 -4.23 2.11 0.02 5145
0.01 -0.00 -0.97 -7.34 18.60 -4.07 1.97 0.09 5152
0.01 -0.00 -1.10 -7.85 18.78 -3.76 1.79 0.12 5159
0.02 -0.00 -1.01 -8.59 19.52 -3.43 1.64 0.14 5167
0.01 -0.00 -1.14 -9.50 20.37 -3.17 1.50 0.12 5174
0.00 0.00 -1.25 -10.11 21.32 -2.99 1.37 0.11 5181
0.00 0.00 -1.12 -10.55 22.54 -2.95 1.32 0.08 5188
0.00 0.00 -0.82 -10.89 22.86 -3.04 1.34 0.06 5195
0.00 0.00 -9.82 -29.73 28.62 -2.84 1.01 0.13 5202
0.00 0.00 6.57 -7.64 3.20 -2.31 0.90 0.24 5210
0.00 0.00 0.09 -10.74 6.90 -3.06 0.79 0.21 5217
0.00 0.00 -0.73 -15.90 26.74 -2.82 0.81 0.40 5224
0.00 0.00 -2.66 -18.24 21.09 -2.99 0.92 0.55 5231
0.00 0.00 2.01 -12.92 10.16 -3.43 1.51 0.58 5238
0.00 0.00 -0.21 -20.88 18.01 -3.49 1.96 0.73 5245
0.00 -0.00 -1.83 -22.61 15.17 -3.20 2.48 0.95 5253
0.00 0.00 -4.19 -23.77 15.17 -2.84 2.68 1.18 5260
0.00 0.00 -7.01 -25.34 8.41 -2.39 2.65 1.42 5267
0.00 0.00 -9.58 -28.65 6.52 -1.96 2.28 1.59 5274
0.00 0.00 -10.34 -31.16 4.45 -1.63 1.62 1.69 5281
-0.00 0.01 -11.21 -34.08 3.41 -1.16 0.85 1.68 5289
0.00 0.00 -13.75 -38.71 9.18 0.16 -0.32 1.65 5296
0.00 0.00 -9.30 -35.51 -1.42 1.01 -0.92 1.51 5303
0.00 0.00 -6.10 -26.06 -0.98 1.88 -1.63 1.27 5310
0.00 0.00 -7.13 -33.92 4.64 2.55 -2.28 1.04 5317
-0.00 0.02 -6.54 -34.45 1.50 3.11 -2.61 1.04 5324
-0.00 0.06 -3.59 -4.59 0.02 3.39 -2.54 1.39 5331
-0.00 0.08 -1.76 -5.13 11.03 3.90 -1.11 1.67 5340
-0.02 0.29 -5.83 2.04 28.70 4.28 -0.63 1.79 5347
-0.04 0.51 -12.87 -1.81 24.37 4.28 -1.23 1.31 5354
-0.05 0.74 -11.31 -5.56 24.89 4.27 -1.49 0.57 5361
-0.05 0.79 -7.37 -7.71 21.02 4.13 -1.11 0.12 5368
-0.04 0.83 -5.51 -4.34 21.19 3.92 -0.66 -0.39 5376
-0.05 0.84 0.11 -2.56 20.50 3.58 -0.62 -0.69 5383
-0.04 0.79 5.13 -3.16 28.05 3.36 -0.88 -0.65 5390
-0.05 0.77 3.10 -1.33 14.61 1.13 -1.52 -0.22 5397
-0.05 0.75 1.33 -2.58 12.26 0.32 -0.67 0.06 5404
-0.05 0.72 -0.12 -1.38 10.40 0.06 -0.18 0.10 5411
-0.02 0.74 -0.64 -0.92 10.02 0.03 -0.08 0.02 5417
-0.04 0.67 -0.03 -1.01 9.77 0.01 -0.05 -0.06 5425
-0.02 0.66 0.77 -1.20 9.78 -0.00 -0.03 -0.06 5432
-0.03 0.63 0.35 -1.04 9.80 -0.01 -0.04 -0.05 5439
-0.03 0.65 0.18 -0.70 9.66 -0.01 -0.03 -0.06 5446
-0.00 0.66 0.28 -0.83 9.92 -0.01 -0.02 -0.07 5453
0.04 0.61 0.23 -0.86 9.72 -0.00 -0.01 -0.08 5460
0.07 0.56 0.20 -0.77 9.90 0.01 0.00 -0.09 5468
0.05 0.54 0.21 -0.75 9.82 0.01 0.02 -0.09 5475
0.06 0.48 0.05 -0.78 9.87 0.02 0.03 -0.08 5482
0.07 0.46 -0.31 -0.83 9.32 0.02 0.05 -0.08 5489
0.10 0.42 0.17 -0.88 9.83 0.03 0.06 -0.07 5496
0.09 0.41 0.29 -0.83 9.86 0.03 0.06 -0.08 5504
0.11 0.37 0.27 -0.84 9.21 0.03 0.06 -0.08 5511
0.11 0.24 0.29 -0.84 9.84 0.04 0.06 -0.08 5518
0.11 0.21 0.26 -0.80 9.84 0.04 0.06 -0.08 5525
0.12 0.18 0.29 -0.83 9.88 0.05 0.06 -0.09 5532
0.14 0.25 0.38 -0.72 9.84 0.05 0.06 -0.09 5539
0.16 0.11 0.38 -0.86 9.82 0.06 0.07 -0.09 5547
0.18 0.04 0.38 -0.88 9.82 0.06 0.06 -0.11 5554
0.19 0.02 0.39 -0.86 9.83 0.06 0.06 -0.10 5561
0.22 0.04 0.34 -0.86 9.82 0.06 0.06 -0.10 5568
0.26 -0.00 0.37 -0.87 9.82 0.06 0.06 -0.11 5575
0.26 0.02 0.32 -0.88 9.85 0.07 0.06 -0.11 5582
0.26 -0.01 0.34 -0.89 9.84 0.08 0.06 -0.10 5590
0.28 0.02 0.28 -0.86 9.84 0.09 0.06 -0.10 5597
0.31 -0.02 0.27 -0.92 9.83 0.11 0.07 -0.09 5604
0.33 -0.02 0.30 -0.94 9.86 0.12 0.07 -0.09 5611
0.36 -0.01 0.32 -0.95 9.88 0.15 0.07 -0.08 5618
0.39 -0.03 0.36 -1.00 9.90 0.17 0.07 -0.09 5625
0.41 -0.03 0.35 -1.00 9.80 0.19 0.08 -0.09 5633
0.43 -0.02 0.41 -1.07 9.84 0.21 0.08 -0.10 5640
0.44 -0.03 0.39 -1.01 9.83 0.24 0.08 -0.11 5647
0.44 -0.02 0.40 -1.08 9.85 0.26 0.08 -0.12 5654
0.46 -0.01 0.45 -1.08 9.81 0.28 0.08 -0.12 5661
0.50 -0.03 0.42 -1.07 9.77 0.30 0.08 -0.13 5668
0.52 -0.03 0.40 -1.16 9.76 0.30 0.08 -0.13 5676
0.53 -0.03 0.43 -1.16 9.68 0.30 0.08 -0.15 5683
0.53 -0.03 0.45 -1.16 9.66 0.29 0.07 -0.16 5690
0.56 -0.03 0.36 -1.17 9.60 0.26 0.07 -0.16 5697
0.58 -0.02 0.41 -1.20 9.66 0.24 0.07 -0.16 5704
0.63 -0.03 0.36 -1.24 9.68 0.22 0.07 -0.16 5711
0.64 -0.03 0.33 -1.21 9.58 0.20 0.08 -0.16 5719
0.66 -0.04 0.31 -1.24 9.58 0.17 0.08 -0.14 5726
0.69 -0.03 0.31 -1.20 9.64 0.14 0.08 -0.14 5733
0.73 -0.02 0.35 -1.27 9.70 0.12 0.08 -0.13 5740
0.75 -0.03 0.29 -1.20 9.82 0.12 0.08 -0.13 5747
0.78 -0.03 0.37 -1.27 9.87 0.15 0.08 -0.12 5754
0.83 -0.02 0.33 -1.36 9.84 0.18 0.07 -0.12 5762
0.87 -0.04 0.40 -1.31 10.07 0.24 0.09 -0.12 5769
0.90 -0.03 0.47 -1.41 10.27 0.32 0.09 -0.12 5777
0.94 -0.03 0.36 -1.44 10.47 0.40 0.11 -0.13 5784
0.96 -0.03 0.50 -1.38 10.88 0.52 0.12 -0.14 5791
1.00 -0.05 0.53 -1.46 10.49 0.63 0.11 -0.15 5798
1.06 -0.04 0.60 -1.60 10.66 0.76 0.10 -0.16 5805
1.13 -0.05 0.42 -1.67 11.06 0.87 0.08 -0.17 5813
1.19 -0.05 0.45 -1.73 11.40 0.98 0.05 -0.17 5819
1.23 -0.04 0.53 -1.77 11.09 1.11 0.02 -0.17 5827
1.26 -0.05 0.52 -1.85 11.43 1.21 -0.03 -0.18 5834
1.33 -0.05 0.55 -2.02 11.79 1.35 -0.05 -0.18 5841
1.34 -0.05 0.46 -1.93 12.29 1.52 -0.09 -0.18 5849
1.40 -0.05 0.34 -2.03 12.49 1.73 -0.13 -0.18 5856
1.42 -0.05 0.32 -2.10 12.34 1.98 -0.17 -0.18 5863
1.45 -0.04 0.37 -2.12 12.26 2.21 -0.21 -0.18 5870
1.49 -0.06 0.18 -2.21 13.22 2.41 -0.24 -0.18 5877
1.54 -0.05 0.34 -2.54 12.70 2.70 -0.35 -0.17 5884
1.53 -0.06 0.41 -2.46 12.83 2.95 -0.36 -0.17 5892
1.50 -0.05 0.39 -2.59 13.38 3.27 -0.38 -0.18 5899
1.45 -0.05 0.25 -3.06 13.51 3.60 -0.38 -0.19 5906
1.38 -0.05 -0.55 -3.06 14.29 3.90 -0.39 -0.17 5913
1.29 -0.05 0.46 -3.20 14.58 4.21 -0.42 -0.16 5920
1.12 -0.04 1.64 -4.26 16.35 4.28 -0.50 -0.20 5927
0.95 -0.05 2.72 -4.35 15.56 4.28 -0.60 -0.31 5935
0.72 -0.03 1.35 -5.16 18.51 4.28 -0.73 -0.45 5942
0.53 -0.03 0.11 -6.21 18.98 4.28 -0.87 -0.57 5949
0.40 -0.02 1.42 -9.03 22.49 4.28 -0.87 -0.64 5956
0.35 -0.03 1.56 -12.35 25.53 4.28 -0.94 -0.70 5963
0.25 -0.02 3.26 -14.25 28.97 4.28 -0.67 -0.77 5970
0.19 -0.02 2.88 -14.09 29.89 4.28 -0.18 -0.74 5978
0.12 -0.01 1.17 -10.62 25.84 4.28 0.18 -0.73 5985
0.10 -0.00 0.09 -7.77 27.50 4.28 0.42 -0.72 5991
0.10 -0.01 -0.47 -6.12 30.91 4.28 0.35 -0.76 5998
0.04 -0.00 0.97 -4.25 31.68 4.28 -0.03 -0.90 6005
0.06 -0.01 4.03 -0.91 31.90 4.28 -0.52 -0.99 6012
0.02 -0.00 5.57 4.94 31.70 4.28 -0.89 -1.05 6020
0.00 0.00 6.55 12.79 27.33 4.28 -0.64 -1.03 6027
0.00 0.00 8.90 18.02 15.02 4.27 -0.01 -1.19 6034
0.01 -0.00 4.79 21.07 -2.13 3.33 0.15 -1.64 6041
0.01 -0.00 6.65 25.13 5.34 2.37 -0.47 -1.95 6048
0.00 0.00 6.57 16.71 25.80 0.62 0.18 -1.90 6055
0.00 0.00 5.47 13.40 24.66 -1.35 0.55 -1.74 6063
0.00 -0.00 2.76 13.02 17.80 -2.48 0.51 -1.45 6070
0.00 0.00 1.12 12.71 12.85 -3.07 0.22 -1.16 6077
0.00 -0.00 1.65 11.67 10.66 -3.62 -0.03 -0.99 6084
0.00 0.00 2.95 9.70 9.51 -3.89 -0.23 -0.91 6091
0.00 0.00 2.99 7.85 8.08 -4.00 -0.35 -0.86 6098
0.00 0.00 3.10 6.39 8.62 -4.06 -0.36 -0.83 6106
0.00 -0.00 3.42 5.48 8.05 -4.07 -0.23 -0.80 6113
0.00 0.00 3.83 5.01 7.89 -4.07 -0.01 -0.77 6120
0.01 -0.00 3.83 4.79 7.70 -4.14 0.22 -0.74 6127
0.01 -0.00 3.80 4.80 8.32 -4.18 0.44 -0.67 6134
0.00 -0.00 3.62 4.61 9.41 -4.26 0.70 -0.65 6141
0.00 0.00 3.38 3.98 10.87 -4.28 0.98 -0.57 6149
0.01 -0.00 3.02 3.39 11.68 -4.28 1.24 -0.48 6156
0.00 -0.00 2.35 2.50 12.11 -4.28 1.44 -0.36 6163
0.01 -0.00 1.78 1.56 12.33 -4.28 1.51 -0.24 6170
0.00 0.00 1.19 0.62 12.50 -4.28 1.48 -0.15 6177
0.00 0.00 1.03 -0.61 13.06 -4.28 1.37 -0.06 6184
0.00 0.00 0.94 -1.80 13.39 -4.28 1.35 -0.00 6192
0.01 -0.00 1.00 -2.99 13.86 -4.28 1.31 0.04 6199
0.01 -0.00 1.00 -3.91 14.64 -4.28 1.33 0.03 6206
0.00 0.00 1.14 -4.47 15.41 -4.28 1.42 -0.01 6213
0.00 0.00 1.11 -4.97 16.25 -4.28 1.59 -0.10 6220
0.00 0.00 0.83 -5.33 17.14 -4.28 1.76 -0.19 6227
0.00 0.00 0.61 -5.36 17.27 -4.28 1.94 -0.25 6235
0.00 0.00 0.51 -4.73 18.19 -4.28 2.04 -0.26 6242
0.00 0.00 0.18 -4.77 18.46 -4.28 2.09 -0.21 6249
0.00 0.00 -0.21 -5.51 19.81 -4.28 2.10 -0.09 6256
0.00 0.00 -0.29 -6.16 19.93 -4.27 2.10 0.09 6263
0.00 0.00 -0.45 -6.89 20.03 -4.21 2.06 0.24 6270
0.00 0.00 -0.30 -8.16 20.32 -4.11 1.95 0.39 6278
0.00 0.00 -0.10 -9.23 20.24 -3.94 1.85 0.50 6285
0.00 -0.00 0.19 -10.57 20.36 -3.77 1.76 0.62 6292
0.00 0.00 0.69 -11.15 20.09 -3.58 1.72 0.72 6299
0.00 0.00 0.71 -11.50 20.54 -3.39 1.75 0.78 6306
0.00 0.00 0.65 -11.89 20.64 -3.25 1.89 0.84 6313
0.00 0.00 0.27 -12.60 21.87 -3.13 2.05 0.88 6321
0.00 0.00 -1.03 -13.72 22.43 -3.09 2.20 0.96 6328
0.00 0.00 -2.94 -14.44 22.83 -3.12 2.30 1.07 6335
0.00 0.00 -5.15 -14.88 22.33 -3.24 2.47 1.21 6342
0.00 0.00 -6.61 -16.64 21.71 -3.38 2.55 1.38 6349
0.00 0.00 -7.37 -18.88 19.96 -3.51 2.37 1.50 6356
0.01 -0.00 -7.77 -21.87 18.04 -3.56 1.90 1.59 6365
0.01 -0.00 -5.82 -25.21 14.94 -3.47 1.17 1.56 6372
0.00 0.00 -4.83 -28.14 10.96 -3.20 0.61 1.42 6378
0.00 0.00 -3.23 -31.16 6.89 -2.85 0.27 1.16 6385
0.00 0.00 -2.93 -33.35 3.17 -2.41 0.35 0.90 6392
0.00 0.00 -3.11 -35.49 1.48 -1.89 0.75 0.68 6400
0.00 0.00 -4.73 -36.12 0.59 -1.36 1.20 0.48 6407
0.00 -0.00 -5.46 -34.61 0.65 -0.65 1.38 0.36 6414
0.00 0.00 -6.51 -31.03 2.07 0.06 1.25 0.24 6421
0.00 0.00 -6.44 -26.53 5.10 0.59 0.84 0.15 6428
0.00 0.00 -5.49 -22.30 7.76 0.98 0.15 0.05 6435
0.00 0.00 -38.90 -35.65 78.47 2.71 -2.54 0.63 6443
0.00 0.00 -10.11 -16.86 16.90 3.30 -2.52 1.09 6450
0.00 0.03 5.11 -3.50 -4.75 3.05 -3.04 1.10 6457
-0.00 0.05 3.25 4.68 2.94 2.72 -2.46 1.37 6464
-0.01 0.09 4.25 4.48 17.35 3.02 -0.36 2.09 6471
-0.03 0.32 -4.03 4.88 13.05 3.28 0.43 2.39 6479
-0.04 0.50 -14.26 -5.28 23.53 3.88 -0.27 1.83 6487
-0.04 0.71 -13.83 -7.30 19.49 4.07 -1.17 1.03 6494
-0.04 0.77 -7.47 -5.81 19.82 4.17 -0.73 0.38 6501
-0.06 0.91 -7.80 -3.49 21.80 3.88 -0.23 -0.05 6508
-0.05 0.96 -3.60 -2.03 19.18 3.22 -0.27 -0.71 6515
-0.07 0.91 3.02 -1.47 13.65 2.98 -0.35 -0.92 6522
-0.05 0.96 6.46 -1.92 15.02 3.24 -0.47 -0.64 6530
-0.05 0.98 2.73 -3.56 28.50 3.08 -1.88 -0.22 6537
-0.04 0.87 1.89 -2.13 12.81 0.98 -1.65 0.02 6544
-0.04 0.86 -1.05 -1.88 12.33 0.28 -0.70 0.08 6551
-0.05 0.85 -0.84 -1.32 10.19 0.03 -0.21 -0.01 6558
-0.06 0.79 0.00 -1.07 9.87 0.01 -0.09 -0.08 6564
-0.03 0.73 0.82 -0.94 9.86 0.01 -0.06 -0.07 6572
-0.02 0.73 0.63 -0.91 9.87 0.01 -0.05 -0.06 6579
-0.02 0.66 0.10 -0.76 9.82 0.01 -0.04 -0.07 6586
-0.01 0.62 0.25 -0.84 9.85 0.02 -0.03 -0.09 6593
-0.01 0.61 0.38 -0.81 9.92 0.03 -0.01 -0.09 6600
0.03 0.52 0.16 -0.82 9.90 0.03 -0.01 -0.10 6607
0.07 0.45 0.06 -0.77 9.96 0.03 0.01 -0.09 6615
0.07 0.45 0.30 -0.85 9.89 0.03 0.01 -0.08 6622
0.05 0.43 0.27 -0.86 9.85 0.03 0.02 -0.09 6629
0.08 0.36 0.28 -0.77 9.24 0.03 0.02 -0.09 6636
0.10 0.31 0.25 -0.82 9.82 0.04 0.02 -0.09 6643
0.12 0.23 0.32 -0.81 9.83 0.04 0.02 -0.09 6650
0.13 0.17 0.32 -0.75 9.83 0.05 0.03 -0.09 6658
0.16 0.16 0.35 -0.86 9.84 0.05 0.02 -0.10 6665
0.17 0.08 0.42 -0.84 9.83 0.05 0.03 -0.10 6672
0.23 0.06 0.33 -0.88 9.82 0.06 0.02 -0.11 6679
0.27 0.02 0.36 -0.84 9.81 0.06 0.02 -0.11 6686
0.27 0.04 0.30 -0.96 9.83 0.06 0.02 -0.11 6693
0.31 0.02 0.34 -0.87 9.85 0.07 0.01 -0.11 6701
0.35 0.01 0.29 -0.89 9.84 0.08 0.01 -0.11 6708
0.37 -0.02 0.25 -0.88 9.82 0.10 0.01 -0.11 6715
0.38 0.01 0.23 -0.88 9.87 0.10 0.01 -0.11 6722
0.43 -0.03 0.24 -0.93 9.90 0.12 0.01 -0.10 6729
0.45 -0.03 0.24 -0.89 9.92 0.13 0.01 -0.10 6736
0.47 -0.01 0.29 -0.91 9.90 0.15 0.01 -0.10 6744
0.50 -0.03 0.35 -0.98 9.91 0.18 0.00 -0.09 6751
0.50 -0.03 0.40 -0.99 9.91 0.20 -0.00 -0.10 6758
0.53 -0.04 0.45 -1.04 10.03 0.22 -0.00 -0.10 6765
0.56 -0.03 0.41 -1.06 9.85 0.24 -0.00 -0.11 6772
0.59 -0.03 0.38 -1.07 9.80 0.26 -0.00 -0.13 6779
0.65 -0.03 0.41 -1.10 9.76 0.27 0.01 -0.14 6787
0.66 -0.03 0.39 -1.14 9.77 0.27 0.01 -0.15 6794
0.69 -0.03 0.34 -1.14 9.73 0.25 0.02 -0.15 6801
0.72 -0.04 0.42 -1.16 9.66 0.24 0.03 -0.16 6808
0.71 -0.03 0.41 -1.21 9.63 0.23 0.03 -0.17 6815
0.73 -0.02 0.39 -1.20 9.69 0.22 0.04 -0.18 6822
0.76 -0.03 0.30 -1.24 9.71 0.21 0.05 -0.19 6830
0.78 -0.04 0.40 -1.19 9.88 0.21 0.06 -0.19 6837
0.81 -0.04 0.39 -1.26 9.84 0.24 0.07 -0.20 6844
0.84 -0.04 0.31 -1.28 9.86 0.26 0.07 -0.21 6851
0.84 -0.03 0.30 -1.28 9.81 0.28 0.08 -0.21 6858
0.86 -0.02 0.24 -1.29 9.87 0.30 0.08 -0.20 6865
0.90 -0.04 0.18 -1.35 9.83 0.32 0.08 -0.19 6873
0.94 -0.04 0.24 -1.40 9.79 0.33 0.07 -0.18 6880
1.00 -0.04 0.26 -1.31 9.83 0.34 0.08 -0.16 6887
1.05 -0.04 0.25 -1.34 10.11 0.37 0.07 -0.16 6895
1.13 -0.05 0.40 -1.49 10.18 0.44 0.06 -0.15 6901
1.21 -0.03 0.38 -1.61 10.36 0.52 0.06 -0.15 6909
1.23 -0.05 0.30 -1.54 10.78 0.63 0.05 -0.15 6917
1.27 -0.05 0.40 -1.76 11.18 0.77 0.03 -0.16 6924
1.33 -0.05 0.23 -1.63 11.78 0.93 0.01 -0.17 6931
1.38 -0.05 0.29 -1.48 11.54 1.08 -0.03 -0.19 6938
1.42 -0.05 0.36 -1.82 11.40 1.19 -0.06 -0.18 6945
1.48 -0.04 0.39 -1.90 11.56 1.33 -0.10 -0.19 6952
1.51 -0.06 0.18 -1.97 11.54 1.48 -0.15 -0.19 6960
1.54 -0.05 0.33 -1.89 12.25 1.62 -0.19 -0.19 6967
1.56 -0.06 0.34 -2.07 12.38 1.86 -0.24 -0.20 6974
1.57 -0.05 0.50 -2.29 12.55 2.07 -0.27 -0.21 6981
1.62 -0.05 0.08 -2.46 12.84 2.30 -0.34 -0.22 6988
1.65 -0.05 0.13 -2.50 13.13 2.54 -0.39 -0.23 6995
1.64 -0.06 0.44 -2.63 12.88 2.80 -0.45 -0.24 7003
1.58 -0.05 0.07 -2.63 13.71 3.10 -0.53 -0.25 7010
1.57 -0.07 0.29 -2.95 14.59 3.34 -0.61 -0.28 7017
1.53 -0.06 -0.07 -2.83 14.52 3.71 -0.62 -0.29 7024
1.43 -0.05 -0.40 -3.60 15.45 4.10 -0.65 -0.26 7031
1.29 -0.05 0.18 -3.66 16.20 4.27 -0.71 -0.26 7038
1.07 -0.04 2.39 -4.55 16.43 4.28 -0.85 -0.34 7046
0.85 -0.04 2.20 -5.02 17.59 4.28 -0.97 -0.51 7053
0.70 -0.04 1.54 -5.68 19.80 4.28 -0.99 -0.62 7060
0.45 -0.02 -0.42 -7.97 22.34 4.28 -1.07 -0.70 7067
0.41 -0.01 -0.17 -10.99 25.53 4.28 -1.19 -0.71 7074
0.33 -0.02 0.17 -11.35 29.22 4.28 -1.11 -0.72 7081
0.28 -0.02 2.40 -14.96 30.79 4.28 -0.73 -0.70 7089
0.19 -0.02 1.92 -12.86 26.02 4.28 -0.22 -0.67 7096
0.14 -0.01 0.23 -8.88 27.44 4.28 0.25 -0.64 7102
0.09 -0.01 -0.10 -6.43 30.96 4.28 0.23 -0.68 7109
0.07 -0.00 0.87 -3.99 32.04 4.28 -0.09 -0.77 7117
0.06 -0.01 4.46 0.07 30.61 4.28 -0.52 -0.92 7123
0.01 -0.00 6.35 5.82 29.99 4.28 -0.78 -1.00 7131
0.04 -0.00 5.46 10.49 26.62 4.28 -0.68 -1.04 7139
0.00 0.00 8.63 17.29 19.46 4.28 -0.31 -1.20 7145
0.00 0.00 5.56 17.07 7.61 4.09 -0.17 -1.60 7152
0.00 0.00 7.80 23.87 1.74 3.28 -0.82 -2.00 7159
0.02 -0.00 6.89 20.24 22.49 1.37 -0.38 -2.09 7166
0.01 -0.00 6.93 15.28 24.84 -0.72 0.51 -2.00 7174
0.01 -0.00 5.07 13.29 18.53 -1.99 0.75 -1.75 7181
0.00 0.00 2.69 12.92 12.31 -2.95 0.61 -1.48 7188
0.00 0.00 1.87 11.84 9.75 -3.55 0.48 -1.22 7195
0.00 -0.00 2.91 9.91 8.07 -3.84 0.41 -1.04 7202
0.00 0.00 3.80 8.11 7.42 -3.95 0.29 -0.94 7209
0.00 0.00 3.26 6.39 7.09 -3.96 0.33 -0.84 7217
0.00 0.00 3.29 5.33 7.47 -3.93 0.47 -0.76 7224
0.00 0.00 3.33 4.63 7.23 -3.91 0.67 -0.66 7231
0.00 0.00 3.10 4.40 7.07 -3.94 0.84 -0.56 7238
0.00 0.00 2.65 4.38 7.58 -4.02 0.98 -0.47 7245
0.00 0.00 2.37 4.13 8.59 -4.11 1.09 -0.36 7252
0.00 0.00 2.15 3.74 9.82 -4.20 1.16 -0.26 7260
0.00 0.00 1.97 3.08 10.82 -4.26 1.27 -0.12 7267
0.00 0.00 1.81 2.48 11.61 -4.28 1.35 0.03 7274
0.00 0.00 1.68 2.00 11.91 -4.28 1.42 0.15 7281
0.00 0.00 1.44 1.48 12.15 -4.28 1.44 0.28 7288
0.00 0.00 1.37 0.77 12.43 -4.28 1.42 0.40 7296
0.00 0.00 1.23 -0.23 12.74 -4.28 1.41 0.46 7303
0.00 -0.00 1.31 -1.43 13.43 -4.28 1.45 0.53 7310
0.01 -0.00 1.23 -2.11 13.71 -4.28 1.52 0.56 7317
0.00 -0.00 0.91 -2.87 14.62 -4.28 1.66 0.55 7324
0.01 -0.00 0.67 -3.53 15.23 -4.28 1.81 0.48 7331
0.00 -0.00 0.18 -4.11 15.69 -4.28 2.01 0.39 7339
0.00 0.00 -0.28 -4.65 16.07 -4.28 2.19 0.26 7346
0.00 0.00 -0.77 -5.43 16.84 -4.28 2.34 0.17 7353
0.00 -0.00 -0.90 -5.19 17.87 -4.26 2.45 0.10 7360
0.01 -0.00 -0.62 -5.47 19.08 -4.23 2.48 0.08 7367
0.00 -0.00 -2.04 -6.44 20.08 -4.16 2.49 0.11 7374
0.00 -0.00 -2.64 -6.66 20.42 -4.05 2.36 0.18 7382
0.01 -0.00 -2.80 -6.65 21.08 -4.00 2.19 0.24 7389
0.00 -0.00 -2.95 -6.87 21.21 -3.92 1.91 0.32 7396
0.00 -0.00 -2.71 -7.45 21.62 -3.88 1.62 0.37 7403
0.01 -0.00 -2.30 -8.07 21.73 -3.86 1.43 0.41 7410
0.02 -0.00 -2.00 -9.06 22.06 -3.84 1.26 0.43 7417
0.01 -0.00 -1.83 -10.09 21.57 -3.78 1.19 0.45 7426
0.01 -0.00 -1.70 -11.02 21.00 -3.68 1.14 0.48 7432
0.00 0.00 -1.62 -11.59 20.27 -3.56 1.13 0.52 7439
0.01 -0.00 -0.57 -28.06 15.27 -3.37 1.08 0.59 7446
0.01 -0.00 6.67 -9.09 10.24 -1.90 1.01 0.90 7453
0.01 -0.00 -2.28 -13.31 3.52 -2.88 0.51 0.82 7460
0.01 -0.00 3.20 -18.71 12.44 -2.59 0.50 0.88 7468
0.01 -0.00 1.45 -16.38 10.60 -2.79 0.68 0.91 7475
0.00 -0.00 0.92 -16.69 17.42 -3.17 1.10 0.80 7482
0.01 -0.00 0.09 -21.25 16.85 -3.37 1.66 0.69 7489
0.02 -0.00 -1.86 -22.32 14.07 -3.38 2.13 0.61 7497
0.01 -0.00 -5.55 -22.51 8.55 -3.21 2.60 0.59 7503
0.01 -0.00 -10.23 -25.99 4.45 -2.81 3.26 0.80 7512
0.01 -0.00 -13.25 -31.02 4.09 -2.38 3.22 0.99 7518
0.00 0.00 -16.80 -33.75 3.88 -1.70 2.06 0.91 7525
0.00 -0.00 -19.00 -42.02 3.64 -1.03 0.33 0.71 7532
0.01 -0.00 -11.32 -34.19 -4.97 0.55 -0.82 0.54 7540
0.00 0.00 -11.31 -32.91 0.44 1.58 -2.13 0.21 7546
0.00 -0.00 -3.45 -29.29 -1.41 2.39 -2.39 -0.09 7554
-0.00 0.02 -2.53 -34.56 0.18 2.89 -2.32 -0.21 7561
0.00 0.05 -4.77 -29.51 -3.63 3.05 -2.22 0.22 7569
0.01 0.09 1.00 6.41 11.52 3.99 -1.11 0.56 7575
0.01 0.20 -3.11 -4.82 26.21 4.28 -0.20 0.72 7583
-0.02 0.48 -7.92 -2.02 28.17 4.28 -1.01 0.41 7590
-0.05 0.72 -7.30 -3.76 29.64 4.28 -1.62 -0.10 7598
-0.05 0.81 -2.79 -6.50 24.68 3.88 -1.53 -0.45 7605
-0.04 0.78 0.17 -3.75 21.26 3.36 -0.88 -0.45 7612
-0.05 0.84 2.78 -2.59 18.82 2.90 -0.58 -0.31 7619
-0.04 0.80 2.27 -1.73 16.52 2.69 -0.44 -0.05 7626
-0.04 0.73 0.46 -2.44 21.87 2.25 -0.74 0.04 7633
-0.04 0.72 0.17 -0.78 12.35 0.70 -0.89 -0.01 7640
-0.05 0.71 0.19 -1.44 11.54 0.24 -0.47 0.00 7647
-0.04 0.74 0.23 -1.24 10.07 0.01 -0.14 0.01 7654
-0.04 0.72 0.42 -1.15 9.70 0.00 -0.06 -0.02 7661
-0.04 0.72 0.23 -1.16 9.92 -0.01 -0.04 -0.03 7668
-0.02 0.74 0.38 -1.02 9.99 -0.03 -0.01 -0.04 7675
-0.02 0.73 0.48 -0.89 9.76 -0.03 0.00 -0.05 7683
-0.03 0.72 0.41 -0.76 9.89 -0.02 0.01 -0.05 7690
-0.03 0.72 0.27 -0.70 9.68 -0.02 0.02 -0.06 7697
-0.01 0.68 0.28 -0.82 9.88 -0.01 0.03 -0.07 7704
0.00 0.67 0.35 -0.81 9.87 -0.00 0.04 -0.07 7711
-0.02 0.58 0.31 -0.74 9.86 0.01 0.05 -0.08 7718
0.01 0.51 0.34 -0.76 9.84 0.01 0.06 -0.07 7726
0.03 0.50 0.32 -0.79 9.72 0.01 0.07 -0.07 7733
0.06 0.48 0.41 -0.81 9.83 0.02 0.08 -0.08 7740
0.07 0.44 0.49 -0.80 9.83 0.02 0.08 -0.07 7747
0.05 0.41 0.45 -0.78 9.84 0.02 0.07 -0.07 7754
0.04 0.38 0.41 -0.77 9.81 0.02 0.07 -0.07 7761
0.05 0.31 0.43 -0.76 9.83 0.03 0.07 -0.07 7769
0.07 0.27 0.47 -0.82 9.80 0.03 0.08 -0.07 7776
0.08 0.24 0.51 -0.80 9.83 0.04 0.08 -0.08 7783
0.10 0.16 0.52 -0.80 9.77 0.04 0.08 -0.09 7790
0.11 0.13 0.50 -0.81 9.80 0.04 0.08 -0.10 7797
0.12 0.09 0.54 -0.85 9.80 0.05 0.07 -0.10 7804
0.12 0.06 0.49 -0.82 9.78 0.04 0.07 -0.10 7812
0.13 0.05 0.45 -0.83 9.81 0.05 0.06 -0.10 7819
0.13 0.02 0.48 -0.81 9.81 0.04 0.06 -0.10 7826
0.13 0.01 0.44 -0.84 9.83 0.05 0.06 -0.10 7833
0.11 0.01 0.41 -0.85 9.82 0.05 0.07 -0.10 7840
0.15 0.01 0.41 -0.77 9.87 0.06 0.07 -0.10 7847
0.14 0.02 0.44 -0.85 9.82 0.06 0.07 -0.09 7855
0.18 -0.01 0.47 -0.87 9.83 0.07 0.07 -0.09 7862
0.22 -0.01 0.51 -0.85 9.83 0.08 0.07 -0.10 7869
0.26 -0.01 0.53 -0.87 9.81 0.09 0.07 -0.10 7876
0.27 -0.01 0.49 -0.88 9.82 0.09 0.07 -0.10 7883
0.25 -0.02 0.46 -0.90 9.78 0.10 0.06 -0.11 7890
0.23 -0.02 0.45 -0.90 9.79 0.09 0.06 -0.11 7898
0.28 -0.00 0.51 -0.91 9.76 0.09 0.06 -0.11 7905
0.32 -0.01 0.54 -0.94 9.78 0.09 0.05 -0.12 7912
0.32 -0.02 0.55 -0.96 9.74 0.08 0.05 -0.12 7919
0.35 -0.02 0.51 -0.94 9.76 0.08 0.05 -0.12 7926
0.38 -0.03 0.56 -0.98 9.76 0.08 0.04 -0.13 7933
0.37 -0.02 0.52 -0.96 9.82 0.08 0.05 -0.14 7941
0.38 -0.01 0.54 -0.97 9.81 0.10 0.05 -0.15 7948
0.43 -0.02 0.52 -0.99 9.78 0.11 0.06 -0.15 7955
0.45 -0.03 0.57 -0.99 9.80 0.13 0.07 -0.16 7962
0.51 -0.03 0.52 -0.99 9.83 0.15 0.07 -0.15 7969
0.52 -0.03 0.53 -0.97 9.83 0.17 0.08 -0.15 7976
0.54 -0.03 0.41 -1.04 9.83 0.19 0.09 -0.14 7984
0.58 -0.02 0.47 -1.07 9.84 0.21 0.09 -0.14 7991
0.59 -0.03 0.37 -1.08 9.83 0.24 0.09 -0.13 7998
0.61 -0.03 0.46 -1.11 9.82 0.27 0.08 -0.12 8005
0.63 -0.04 0.54 -1.10 9.84 0.29 0.09 -0.12 8012
0.65 -0.03 0.52 -1.09 10.15 0.35 0.09 -0.12 8019
0.71 -0.03 0.51 -1.29 9.95 0.45 0.09 -0.12 8027
0.75 -0.03 0.62 -1.27 10.37 0.53 0.09 -0.14 8035
0.84 -0.03 0.56 -1.30 10.76 0.70 0.10 -0.13 8041
0.88 -0.04 0.57 -1.47 10.87 0.84 0.10 -0.15 8049
0.98 -0.04 0.68 -1.41 11.25 0.99 0.08 -0.17 8056
1.06 -0.04 0.56 -1.53 11.43 1.13 0.04 -0.17 8064
1.12 -0.03 0.01 -1.60 11.88 1.27 0.00 -0.18 8070
1.18 -0.04 0.64 -1.75 11.74 1.40 -0.05 -0.18 8078
1.18 -0.04 0.48 -1.76 11.65 1.51 -0.11 -0.18 8085
1.27 -0.04 0.59 -2.25 11.84 1.66 -0.12 -0.17 8092
1.32 -0.05 0.63 -1.83 12.36 1.83 -0.15 -0.18 8099
1.35 -0.04 0.36 -2.00 12.12 2.02 -0.18 -0.18 8107
1.36 -0.04 0.58 -2.12 12.46 2.24 -0.23 -0.18 8114
1.36 -0.04 0.70 -2.26 12.86 2.44 -0.27 -0.19 8121
1.38 -0.05 0.77 -1.91 12.60 2.64 -0.35 -0.20 8128
1.40 -0.05 0.78 -2.76 12.94 2.94 -0.39 -0.23 8135
1.40 -0.06 0.73 -2.67 13.84 3.21 -0.40 -0.26 8142
1.37 -0.05 0.43 -2.87 13.80 3.54 -0.41 -0.28 8150
1.35 -0.04 -0.02 -3.08 14.72 3.93 -0.43 -0.26 8157
1.26 -0.05 0.32 -2.88 15.50 4.20 -0.45 -0.26 8164
1.11 -0.04 1.72 -3.69 16.09 4.28 -0.49 -0.30 8171
0.92 -0.03 1.72 -4.03 16.72 4.28 -0.62 -0.42 8178
0.72 -0.04 1.77 -4.67 18.63 4.28 -0.67 -0.53 8185
0.47 -0.02 0.72 -6.61 20.59 4.28 -0.73 -0.59 8193
0.35 -0.02 0.57 -9.44 25.22 4.28 -0.80 -0.60 8200
0.30 -0.02 0.33 -12.09 29.57 4.28 -0.72 -0.59 8207
0.25 -0.02 2.27 -14.41 28.36 4.28 -0.46 -0.59 8214
0.17 -0.02 3.87 -16.65 29.14 4.28 -0.07 -0.60 8221
0.08 -0.01 3.10 -9.33 25.54 4.28 0.39 -0.62 8227
0.09 -0.01 0.51 -5.56 26.59 4.28 0.73 -0.66 8235
0.06 -0.01 -1.20 -5.07 29.92 4.28 0.66 -0.71 8242
0.02 -0.00 -0.17 -3.18 32.32 4.28 -0.00 -0.85 8249
0.08 -0.01 2.51 0.05 31.94 4.28 -0.65 -1.00 8256
0.00 0.00 4.43 5.04 32.23 4.28 -1.27 -1.05 8263
0.00 0.00 6.02 15.93 26.53 4.28 -1.32 -1.00 8270
0.00 0.00 9.03 17.95 16.38 4.28 -0.86 -1.07 8278
0.00 -0.00 4.88 21.29 1.27 3.41 -0.53 -1.52 8285
0.01 -0.00 7.64 25.16 6.34 2.68 -0.75 -2.13 8292
0.00 0.00 8.41 16.50 25.33 0.78 0.33 -2.23 8299
0.00 0.00 6.01 12.67 25.32 -1.00 1.03 -2.12 8306
0.00 0.00 3.15 13.41 18.51 -2.28 1.17 -1.90 8313
0.00 0.00 1.28 13.92 12.54 -3.14 0.92 -1.63 8321
0.00 0.00 1.33 12.61 10.28 -3.70 0.66 -1.39 8328
0.00 0.00 2.20 9.95 9.34 -4.07 0.38 -1.21 8335
0.00 0.00 2.64 7.47 8.18 -4.17 0.19 -1.04 8342
0.00 0.00 2.63 6.22 8.46 -4.21 0.15 -0.89 8349
0.00 0.00 2.91 5.28 8.32 -4.22 0.22 -0.75 8356
-0.00 0.00 3.31 4.71 8.10 -4.23 0.32 -0.66 8364
0.00 0.00 3.42 4.28 8.06 -4.25 0.46 -0.61 8371
0.00 0.00 3.12 3.95 8.51 -4.27 0.61 -0.57 8378
0.00 0.00 2.86 3.46 9.05 -4.28 0.75 -0.52 8385
0.00 0.00 2.49 2.73 9.89 -4.28 0.90 -0.45 8392
0.00 0.00 2.29 1.76 10.66 -4.28 1.05 -0.36 8399
0.00 0.00 2.09 1.09 10.92 -4.28 1.20 -0.26 8407
0.00 0.00 1.73 0.72 11.14 -4.28 1.29 -0.15 8414
0.00 0.00 1.43 0.50 11.64 -4.28 1.34 -0.06 8421
0.00 0.00 1.31 0.01 12.17 -4.28 1.39 0.06 8428
0.00 0.00 1.29 -0.50 13.01 -4.28 1.48 0.15 8435
0.00 0.00 1.10 -1.04 13.97 -4.28 1.60 0.20 8442
-0.00 0.00 0.52 -1.76 15.17 -4.28 1.75 0.21 8450
0.00 0.00 0.15 -3.03 16.00 -4.28 1.88 0.17 8457
0.00 0.00 -0.44 -3.08 16.87 -4.28 2.04 0.09 8464
0.00 0.00 -1.08 -3.53 17.07 -4.28 2.21 -0.02 8471
0.00 0.00 -1.57 -4.05 18.95 -4.28 2.34 -0.12 8478
0.00 0.00 -2.03 -4.19 18.05 -4.28 2.44 -0.21 8485
0.00 0.00 -2.19 -4.27 18.81 -4.28 2.45 -0.26 8493
0.00 0.00 -2.49 -4.97 19.05 -4.28 2.46 -0.27 8500
0.00 0.00 -2.57 -5.31 18.98 -4.28 2.45 -0.24 8507
0.00 0.00 -2.91 -5.59 19.41 -4.22 2.38 -0.21 8514
0.00 0.00 -2.96 -6.09 19.24 -4.10 2.24 -0.18 8521
0.00 0.00 -2.95 -6.94 19.36 -3.91 2.05 -0.16 8528
0.00 0.00 -2.47 -8.07 19.36 -3.67 1.86 -0.14 8536
0.00 0.00 -1.67 -8.96 19.07 -3.41 1.67 -0.11 8543
0.00 0.00 -1.31 -9.35 19.24 -3.19 1.54 -0.04 8550
0.00 0.00 -1.18 -9.98 19.63 -2.95 1.42 0.03 8557
0.00 0.00 -1.33 -10.14 20.34 -2.78 1.33 0.15 8564
0.01 -0.00 -1.61 -10.33 21.92 -2.64 1.23 0.29 8572
0.00 -0.00 -2.09 -13.16 21.73 -2.58 1.09 0.48 8579
0.00 0.00 -0.78 -13.45 22.37 -2.58 0.95 0.67 8586
0.01 -0.00 -0.60 -15.03 22.68 -2.81 0.83 0.84 8593
0.00 0.00 -0.23 -17.74 21.69 -3.04 0.85 1.08 8600
0.00 0.00 -0.40 -19.30 19.47 -3.29 1.00 1.33 8607
0.00 0.00 -1.02 -20.64 16.43 -3.50 1.37 1.63 8614
0.00 -0.00 -2.36 -22.56 13.30 -3.57 1.76 1.96 8623
0.00 0.00 -3.55 -25.48 11.06 -3.47 2.08 2.23 8629
0.00 0.00 -5.87 -29.36 7.62 -3.20 2.07 2.46 8636
0.00 -0.00 -8.08 -33.53 3.97 -2.76 1.89 2.59 8643
0.00 -0.00 -10.22 -35.85 0.57 -2.21 1.44 2.58 8651
0.00 0.00 -11.16 -36.45 -1.97 -1.61 0.90 2.30 8657
0.00 -0.00 -10.70 -34.83 -1.73 -0.80 0.18 1.84 8665
0.00 0.00 -9.20 -30.79 0.50 0.00 -0.45 1.11 8672
0.00 0.00 -7.13 -26.07 4.25 0.57 -0.81 0.34 8679
0.00 0.00 -16.88 -50.77 78.47 3.19 -1.60 -0.09 8686
0.00 0.00 -7.51 -15.30 12.04 3.15 -1.29 -0.37 8693
-0.00 0.03 -2.96 -18.66 1.22 3.24 -1.71 -0.48 8700
0.00 0.03 -1.79 -11.36 -0.36 2.76 -2.52 -0.31 8709
-0.01 0.09 4.14 4.85 11.42 3.20 -1.23 0.28 8715
-0.01 0.24 5.65 2.91 19.72 3.96 0.16 0.79 8723
-0.03 0.48 -5.05 -1.76 22.51 4.28 -0.01 0.93 8730
-0.04 0.67 -8.75 -5.07 25.14 4.28 -0.93 0.40 8737
-0.05 0.79 -1.85 -5.81 21.87 4.20 -1.25 0.10 8744
-0.05 0.86 -0.77 -4.28 21.60 3.92 -0.60 0.09 8752
-0.05 0.87 -2.62 -2.59 18.15 3.44 -0.47 -0.03 8759
-0.04 0.89 -0.95 -1.80 15.18 3.11 -0.52 -0.30 8766
-0.06 0.89 1.07 -1.97 15.22 3.12 -0.57 -0.42 8773
-0.05 0.81 2.80 -3.31 25.83 3.20 -1.17 -0.38 8780
-0.04 0.84 2.19 -1.49 14.43 1.12 -1.66 -0.18 8787
-0.04 0.79 0.66 -3.06 12.44 0.29 -0.81 -0.03 8795
-0.05 0.79 -0.31 -1.50 10.36 0.04 -0.29 -0.00 8801
-0.05 0.81 -0.30 -1.25 10.19 0.02 -0.16 -0.06 8809
-0.05 0.76 0.29 -1.20 10.06 -0.00 -0.08 -0.09 8815
-0.03 0.77 0.59 -1.29 10.01 -0.00 -0.05 -0.06 8822
-0.00 0.76 0.18 -1.01 9.88 -0.00 -0.05 -0.06 8829
0.00 0.74 0.20 -0.85 9.85 0.00 -0.03 -0.08 8837
-0.01 0.70 0.27 -0.90 9.85 0.00 -0.01 -0.08 8844
-0.01 0.66 0.33 -0.85 9.89 0.01 0.00 -0.08 8851
0.03 0.65 3.66 -1.03 10.28 0.02 0.01 -0.08 8858
0.02 0.62 0.32 -0.92 9.78 0.02 0.01 -0.08 8865
0.03 0.56 0.23 -0.94 9.91 0.02 0.02 -0.08 8872
0.04 0.55 0.21 -0.93 9.81 0.02 0.03 -0.09 8880
0.05 0.48 0.18 -0.91 10.42 0.02 0.04 -0.08 8887
0.05 0.46 0.29 -0.91 9.81 0.02 0.05 -0.09 8894
0.08 0.37 0.29 -0.92 9.79 0.03 0.05 -0.08 8901
0.10 0.29 0.24 -0.90 9.82 0.03 0.05 -0.08 8908
0.08 0.29 0.28 -0.86 9.82 0.03 0.06 -0.08 8915
0.08 0.33 0.33 -0.88 9.81 0.03 0.06 -0.08 8923
0.10 0.27 0.36 -0.89 9.81 0.03 0.05 -0.08 8930
0.10 0.17 0.41 -0.86 9.79 0.04 0.05 -0.09 8937
0.13 0.17 0.39 -0.92 9.81 0.04 0.05 -0.09 8944
0.13 0.11 0.41 -0.94 9.81 0.04 0.05 -0.10 8951
0.15 0.10 0.38 -1.00 9.80 0.04 0.04 -0.10 8958
0.17 0.03 0.35 -1.01 9.81 0.04 0.04 -0.10 8966
0.20 0.02 0.35 -0.95 9.81 0.04 0.04 -0.10 8973
0.20 0.05 0.26 -0.99 9.79 0.04 0.04 -0.11 8980
0.21 0.05 0.21 -0.98 9.78 0.04 0.05 -0.10 8987
0.21 0.02 0.27 -0.96 9.76 0.05 0.05 -0.10 8994
0.21 0.02 0.28 -0.96 9.77 0.05 0.06 -0.09 9001
0.21 -0.00 0.28 -0.97 9.85 0.04 0.06 -0.09 9009
0.20 0.04 0.29 -1.03 9.20 0.05 0.07 -0.09 9016
0.22 -0.01 0.33 -1.02 9.82 0.05 0.07 -0.09 9023
0.23 -0.01 0.37 -1.00 9.78 0.06 0.07 -0.09 9030
0.26 -0.02 0.35 -1.04 9.78 0.05 0.07 -0.09 9037
0.28 -0.00 0.35 -1.08 9.76 0.05 0.07 -0.09 9044
0.26 -0.02 0.34 -1.04 9.76 0.04 0.07 -0.10 9052
0.23 -0.01 0.37 -1.06 9.71 0.03 0.06 -0.10 9059
0.26 -0.01 0.40 -1.09 9.74 0.02 0.05 -0.11 9066
0.27 -0.00 0.34 -1.03 9.77 0.02 0.05 -0.11 9073
0.27 -0.01 0.33 -1.04 9.77 0.02 0.05 -0.11 9080
0.30 -0.02 0.35 -0.98 9.76 0.03 0.05 -0.12 9088
0.31 -0.02 0.33 -1.02 9.80 0.03 0.04 -0.11 9095
0.33 -0.01 0.33 -1.04 9.76 0.03 0.04 -0.11 9102
0.36 -0.01 0.34 -1.06 9.81 0.03 0.04 -0.11 9109
0.37 -0.01 0.35 -1.09 9.78 0.03 0.04 -0.11 9116
0.39 -0.02 0.32 -1.02 9.81 0.03 0.04 -0.11 9123
0.42 -0.01 0.33 -1.09 9.79 0.04 0.05 -0.12 9131
0.44 -0.02 0.36 -1.03 9.81 0.05 0.05 -0.11 9138
0.43 -0.02 0.31 -1.02 9.87 0.06 0.06 -0.11 9145
0.51 -0.02 0.40 -1.05 9.87 0.09 0.07 -0.12 9152
0.63 -0.02 0.39 -1.07 9.93 0.12 0.08 -0.13 9159
0.67 -0.04 0.45 -1.12 10.00 0.18 0.11 -0.15 9167
0.69 -0.03 0.56 -1.22 10.08 0.25 0.13 -0.17 9175
0.76 -0.04 0.65 -1.25 10.18 0.36 0.17 -0.19 9182
0.80 -0.03 0.64 -1.24 10.56 0.54 0.22 -0.21 9189
0.87 -0.02 0.54 -1.27 11.14 0.77 0.28 -0.23 9196
0.91 -0.04 0.58 -1.38 11.55 1.09 0.30 -0.24 9203
1.03 -0.04 0.57 -1.49 11.99 1.32 0.25 -0.25 9210
1.14 -0.05 0.85 -1.69 12.44 1.56 0.12 -0.25 9218
1.17 -0.04 0.75 -1.68 12.77 1.73 -0.03 -0.26 9225
1.22 -0.04 0.68 -1.85 12.58 1.86 -0.19 -0.26 9232
1.29 -0.04 0.42 -1.80 13.09 2.04 -0.22 -0.25 9239
1.36 -0.04 0.34 -1.77 13.20 2.21 -0.21 -0.26 9246
1.36 -0.05 0.31 -1.88 13.50 2.49 -0.22 -0.26 9253
1.37 -0.06 0.41 -1.95 13.42 2.81 -0.24 -0.25 9261
1.35 -0.04 0.38 -2.23 13.35 3.06 -0.27 -0.26 9268
1.37 -0.05 0.30 -2.68 12.65 3.33 -0.31 -0.26 9275
1.34 -0.04 0.60 -2.86 13.86 3.63 -0.38 -0.27 9282
1.33 -0.05 0.35 -2.61 14.66 3.94 -0.31 -0.30 9289
1.24 -0.05 -0.05 -2.66 15.45 4.25 -0.21 -0.31 9296
1.14 -0.05 0.30 -2.93 16.43 4.28 -0.16 -0.30 9304
0.98 -0.03 0.47 -3.47 18.42 4.28 -0.26 -0.30 9311
0.78 -0.03 1.82 -4.31 19.43 4.28 -0.36 -0.36 9318
0.47 -0.03 1.79 -5.72 20.82 4.28 -0.46 -0.47 9325
0.32 -0.02 0.78 -7.58 23.38 4.28 -0.53 -0.51 9332
0.29 -0.02 ˜Éþ0 -10.34 28.15 4.28 -0.42 -0.49 9339
0.26 -0.03 0.60 -13.18 30.48 4.28 -0.09 -0.42 9346
0.16 -0.02 1.76 -13.64 29.76 4.28 0.29 -0.35 9354
0.11 -0.01 1.83 -9.39 26.14 4.28 0.52 -0.40 9360
0.07 -0.01 0.17 -6.34 26.00 4.28 0.70 -0.47 9367
0.08 -0.01 0.51 -5.72 33.51 4.28 0.55 -0.55 9374
0.06 -0.01 2.21 -3.85 34.55 4.28 0.14 -0.74 9381
0.05 -0.00 4.13 -1.14 35.03 4.28 -0.47 -0.88 9389
0.01 -0.00 4.50 6.41 31.46 4.28 -0.64 -0.93 9396
0.00 -0.00 8.68 19.40 26.65 4.28 -0.41 -0.90 9403
0.00 -0.00 7.74 23.35 11.97 4.05 -0.02 -1.00 9410
0.00 0.00 5.69 31.35 -2.39 2.76 0.02 -1.46 9417
0.00 -0.00 5.28 22.57 6.96 2.21 -0.52 -1.85 9424
0.02 -0.00 7.63 12.61 29.37 0.64 -0.11 -1.87 9433
0.01 -0.00 5.08 13.08 22.78 -1.51 0.14 -1.63 9439
0.01 -0.00 1.98 15.31 14.55 -2.51 0.13 -1.27 9447
0.02 -0.00 0.90 14.65 10.51 -3.10 -0.12 -1.00 9453
0.02 -0.00 1.82 12.79 9.68 -3.79 -0.42 -0.87 9460
0.01 -0.00 2.95 9.94 8.69 -4.10 -0.66 -0.82 9467
0.00 0.00 3.76 7.53 7.15 -4.21 -0.72 -0.80 9475
0.00 0.00 3.62 6.29 7.39 -4.25 -0.64 -0.79 9482
0.00 0.00 3.91 5.30 7.22 -4.25 -0.47 -0.78 9489
0.00 0.00 4.22 4.65 7.62 -4.25 -0.23 -0.79 9496
0.00 0.00 4.24 4.38 7.82 -4.27 -0.01 -0.81 9503
0.00 0.00 3.85 4.30 8.61 -4.28 0.19 -0.82 9510
0.00 0.00 3.49 3.91 9.41 -4.28 0.42 -0.80 9518
0.00 0.00 3.45 2.98 10.52 -4.28 0.61 -0.74 9525
0.00 0.00 3.24 2.05 11.14 -4.28 0.82 -0.67 9532
0.00 0.00 2.82 1.03 11.37 -4.28 0.97 -0.57 9539
0.00 0.00 2.77 0.20 11.62 -4.28 1.04 -0.46 9546
0.00 0.00 2.69 -0.73 12.12 -4.28 1.09 -0.34 9553
0.00 0.00 2.69 -1.77 12.77 -4.28 1.14 -0.21 9561
0.00 0.00 2.74 -2.61 13.38 -4.28 1.21 -0.10 9568
0.00 -0.00 2.87 -3.63 14.46 -4.28 1.31 -0.00 9575
0.00 0.00 2.82 -4.42 15.79 -4.28 1.43 0.10 9582
0.00 0.00 2.55 -5.33 16.56 -4.28 1.58 0.10 9589
0.00 0.00 2.28 -6.13 17.43 -4.28 1.75 0.11 9596
0.00 0.00 1.77 -6.63 18.28 -4.28 1.86 0.11 9604
0.00 0.00 1.54 -6.65 18.45 -4.28 1.95 0.14 9611
0.00 0.00 1.51 -6.02 19.39 -4.28 1.95 0.15 9618
0.00 0.00 0.60 -6.93 19.78 -4.28 1.98 0.18 9625
0.00 0.00 0.35 -7.64 19.48 -4.28 2.03 0.24 9632
0.00 0.00 -0.45 -7.66 19.28 -4.25 1.97 0.28 9639
0.00 0.00 -0.70 -7.81 18.93 -4.16 1.85 0.30 9647
0.00 0.00 -0.85 -8.42 19.50 -4.04 1.67 0.28 9654
0.00 0.00 -0.33 -9.04 19.78 -3.82 1.55 0.26 9661
0.00 0.00 0.02 -9.14 19.75 -3.64 1.44 0.23 9668
0.00 0.00 0.26 -9.52 20.20 -3.48 1.41 0.21 9675
0.00 0.00 0.51 -9.92 20.01 -3.34 1.38 0.20 9682
0.00 0.00 0.21 -10.63 19.74 -3.23 1.35 0.20 9690
0.01 -0.00 0.15 -11.25 19.47 -3.07 1.33 0.22 9697
0.01 -0.00 0.06 -11.90 19.09 -2.89 1.27 0.25 9704
0.01 -0.00 0.16 -12.71 19.86 -2.72 1.27 0.29 9711
0.00 -0.00 0.58 -13.45 20.66 -2.59 1.35 0.31 9718
0.00 0.00 0.40 -14.49 20.80 -2.57 1.52 0.32 9725
0.00 -0.00 0.11 -15.63 19.63 -2.66 1.70 0.33 9733
0.00 -0.00 -0.62 -16.91 17.71 -2.81 1.94 0.35 9741
0.01 -0.00 -2.42 -17.59 13.92 -2.91 2.16 0.44 9748
0.00 -0.00 -3.86 -18.98 11.64 -2.88 2.51 0.64 9755
0.00 0.00 -6.61 -21.72 9.35 -2.66 2.74 0.97 9761
0.00 0.00 -9.35 -24.58 8.00 -2.28 2.69 1.26 9768
0.00 0.00 -11.65 -28.62 6.28 -1.81 2.10 1.48 9776
0.00 0.00 -12.70 -31.18 3.71 -1.45 1.26 1.53 9783
0.00 0.00 -11.70 -30.89 1.92 -1.02 0.21 1.47 9790
0.00 0.00 -9.15 -29.44 2.25 -0.52 -0.51 1.27 9797
0.00 0.00 -6.76 -27.08 3.24 -0.08 -0.77 0.95 9804
0.00 0.00 -4.20 -24.39 4.65 0.40 -0.76 0.67 9811
0.00 0.00 -2.02 -20.75 7.10 0.68 -0.59 0.29 9819
0.00 0.00 -16.49 -44.12 14.68 1.55 -1.04 0.14 9826
0.00 0.00 -2.21 -16.59 -0.80 2.93 -1.48 0.51 9833
-0.00 0.00 -3.49 -12.99 -2.91 2.92 -2.04 0.54 9840
-0.00 0.03 0.70 -8.32 -3.86 2.46 -2.69 0.61 9847
-0.01 0.08 1.59 4.99 9.04 2.89 -0.88 1.14 9854
-0.02 0.26 2.03 5.18 17.84 3.62 0.28 1.54 9863
-0.02 0.46 -10.05 -0.55 20.44 4.25 -0.09 1.36 9870
-0.04 0.69 -11.18 -5.67 23.85 4.28 -1.10 0.55 9877
-0.05 0.77 -3.65 -6.11 21.04 4.25 -1.26 0.10 9884
-0.06 0.88 -1.57 -5.19 23.55 4.00 -0.63 -0.00 9891
-0.06 0.93 -1.43 -2.37 19.22 3.43 -0.45 -0.16 9899
-0.06 0.96 0.81 -2.02 16.71 3.11 -0.45 -0.26 9906
-0.04 0.94 2.00 -2.35 19.15 3.21 -0.59 -0.24 9913
-0.05 0.87 0.77 -1.75 19.54 1.85 -1.71 -0.20 9920
-0.05 0.87 1.38 -2.75 12.39 0.47 -0.92 0.01 9927
-0.06 0.91 0.18 -1.82 10.99 0.10 -0.38 0.04 9933
-0.06 0.91 -0.11 -1.05 10.12 0.02 -0.14 -0.00 9940
-0.05 0.87 0.33 -0.93 9.93 0.02 -0.07 -0.06 9948
-0.04 0.84 0.74 -0.98 9.74 -0.00 -0.05 -0.06 9955
-0.02 0.81 0.70 -0.95 9.62 -0.00 -0.05 -0.05 9962
-0.03 0.81 0.51 -0.72 9.81 0.00 -0.04 -0.06 9969
-0.05 0.80 0.43 -0.74 9.85 -0.00 -0.03 -0.07 9976
-0.02 0.74 0.34 -0.86 9.85 0.00 -0.01 -0.09 9984
-0.02 0.65 0.54 -0.95 9.84 0.01 0.00 -0.08 9991
0.00 0.63 0.38 -0.85 9.86 0.01 0.01 -0.09 9998
0.00 0.59 0.37 -0.76 9.88 0.01 0.03 -0.08 10005
0.01 0.55 0.39 -0.83 9.84 0.01 0.04 -0.08 10012
0.00 0.58 0.43 -0.81 9.82 0.02 0.05 -0.08 10019
0.02 0.48 0.46 -0.79 9.82 0.03 0.05 -0.08 10027
0.02 0.44 0.43 -0.80 9.83 0.03 0.06 -0.08 10034
0.04 0.36 0.47 -0.74 9.82 0.03 0.06 -0.08 10041
0.05 0.32 0.47 -0.80 9.85 0.04 0.07 -0.08 10048
0.05 0.29 0.50 -0.75 9.83 0.04 0.07 -0.08 10055
0.11 0.24 0.53 -0.79 9.81 0.05 0.07 -0.09 10062
0.13 0.20 0.56 -0.82 9.80 0.05 0.07 -0.09 10070
0.13 0.12 0.61 -0.80 9.81 0.05 0.08 -0.10 10077
0.13 0.08 0.60 -0.80 9.82 0.06 0.07 -0.10 10084
0.11 0.06 0.56 -0.86 9.79 0.06 0.07 -0.11 10091
0.12 -0.00 0.55 -0.86 9.81 0.05 0.07 -0.11 10098
0.12 0.06 0.54 -0.83 9.82 0.05 0.07 -0.11 10105
0.13 0.04 0.49 -0.85 9.80 0.05 0.07 -0.11 10113
0.15 0.01 0.39 -0.83 9.75 0.05 0.07 -0.07 10120
0.16 0.02 0.44 -0.85 9.81 0.06 0.07 -0.10 10127
0.16 -0.01 0.50 -0.89 9.81 0.06 0.08 -0.09 10134
0.15 -0.00 0.53 -0.88 9.81 0.06 0.08 -0.09 10141
0.20 -0.01 0.55 -0.91 9.81 0.06 0.09 -0.08 10148
0.20 -0.01 0.58 -0.89 9.79 0.07 0.09 -0.09 10156
0.25 -0.02 0.59 -0.91 9.80 0.07 0.09 -0.09 10163
0.25 -0.01 0.55 -0.92 9.79 0.07 0.09 -0.10 10170
0.25 -0.02 0.57 -0.91 9.80 0.07 0.09 -0.10 10177
0.26 -0.00 0.60 -0.92 9.81 0.07 0.09 -0.11 10184
0.27 -0.01 0.58 -0.91 9.77 0.06 0.09 -0.11 10191
0.28 -0.00 0.59 -0.95 9.79 0.06 0.09 -0.11 10199
0.29 -0.00 0.60 -0.95 9.75 0.06 0.09 -0.12 10206
0.28 -0.01 0.60 -0.95 9.77 0.05 0.07 -0.12 10213
0.28 -0.02 0.59 -0.97 9.76 0.04 0.06 -0.12 10220
0.29 -0.00 0.61 -0.96 9.80 0.04 0.04 -0.12 10227
0.33 0.00 0.63 -0.98 9.78 0.04 0.03 -0.13 10234
0.35 -0.02 0.61 -0.96 9.72 0.04 0.02 -0.13 10242
0.34 -0.02 0.64 -0.97 9.77 0.04 0.02 -0.13 10249
0.35 -0.02 0.57 -0.96 9.83 0.05 0.00 -0.14 10256
0.40 -0.03 0.58 -0.98 9.72 0.06 -0.00 -0.14 10263
0.46 -0.02 0.58 -1.01 9.21 0.07 0.00 -0.14 10270
0.53 -0.01 0.52 -1.00 9.81 0.08 0.01 -0.14 10277
0.54 -0.03 0.55 -1.06 9.83 0.10 0.01 -0.15 10285
0.67 -0.03 0.59 -1.03 9.95 0.14 0.03 -0.15 10292
0.73 -0.03 0.62 -1.08 10.04 0.20 0.05 -0.16 10299
0.76 -0.04 0.63 -1.12 10.28 0.30 0.08 -0.17 10307
0.80 -0.03 0.65 -1.17 10.29 0.47 0.12 -0.19 10314
0.83 -0.02 0.03 -1.12 10.56 0.63 0.15 -0.20 10320
0.94 -0.04 0.76 -1.18 11.11 0.85 0.17 -0.20 10329
1.04 -0.04 0.71 -1.34 11.09 1.03 0.16 -0.22 10336
1.09 -0.05 0.59 -1.47 11.51 1.22 0.13 -0.23 10343
1.14 -0.05 0.49 -1.48 11.60 1.38 0.02 -0.21 10350
1.19 -0.04 0.47 -1.44 11.77 1.47 -0.07 -0.19 10357
1.25 -0.04 0.41 -1.72 12.20 1.60 -0.17 -0.18 10364
1.26 -0.05 0.59 -1.82 13.00 1.79 -0.18 -0.18 10372
1.33 -0.04 0.51 -1.75 13.09 2.01 -0.17 -0.18 10379
1.39 -0.05 0.29 -1.85 12.96 2.29 -0.19 -0.17 10386
1.38 -0.05 0.67 -2.01 12.83 2.52 -0.18 -0.18 10393
1.42 -0.05 0.64 -2.24 13.16 2.77 -0.20 -0.18 10400
1.42 -0.05 0.45 -2.37 12.49 3.03 -0.24 -0.19 10407
1.46 -0.05 0.59 -2.66 15.24 3.24 -0.33 -0.19 10415
1.40 -0.05 0.29 -2.74 13.98 3.59 -0.22 -0.19 10422
1.34 -0.05 0.06 -2.72 14.51 3.92 -0.22 -0.16 10429
1.20 -0.04 0.76 -3.30 14.83 4.22 -0.18 -0.15 10436
1.08 -0.04 1.90 -3.47 14.85 4.28 -0.17 -0.20 10443
0.94 -0.04 1.23 -3.90 16.99 4.28 -0.29 -0.29 10450
0.75 -0.04 1.70 -4.58 17.57 4.28 -0.30 -0.36 10458
0.50 -0.03 0.48 -5.50 19.33 4.28 -0.29 -0.40 10465
0.35 -0.02 0.98 -8.01 23.27 4.28 -0.31 -0.43 10472
0.37 -0.02 1.44 -11.92 24.80 4.28 -0.31 -0.43 10479
0.27 -0.01 2.08 -13.67 30.24 4.28 -0.04 -0.40 10486
0.25 -0.02 2.27 -13.90 30.45 4.28 0.30 -0.34 10493
0.17 -0.02 1.44 -11.37 26.63 4.28 0.59 -0.33 10501
0.11 -0.01 0.75 -7.71 24.27 4.28 0.71 -0.35 10507
0.08 -0.01 -0.52 -5.90 27.36 4.28 0.85 -0.41 10514
0.08 -0.01 0.06 -5.11 31.75 4.28 0.52 -0.51 10521
0.02 -0.00 2.44 -3.13 32.02 4.28 0.13 -0.62 10528
0.02 -0.00 3.81 1.38 32.04 4.28 -0.38 -0.75 10535
0.01 -0.00 4.37 16.94 32.01 4.28 -0.42 -0.74 10543
0.00 0.00 9.43 18.03 16.39 4.28 0.05 -0.82 10550
0.00 0.00 4.63 23.39 5.22 3.47 0.52 -1.17 10557
0.00 0.00 6.73 29.12 -9.54 2.37 0.35 -1.91 10564
-0.00 0.00 6.32 17.34 23.55 1.05 0.58 -2.29 10571
0.00 0.00 5.88 12.43 29.45 -0.82 1.02 -2.34 10578
0.00 0.00 2.40 14.19 21.51 -2.35 1.27 -2.22 10586
0.00 0.00 0.22 14.53 13.43 -3.03 0.99 -2.04 10593
0.00 0.00 0.11 13.08 10.96 -3.70 0.57 -1.88 10600
0.00 0.00 1.08 10.42 9.40 -4.11 0.13 -1.78 10607
0.00 0.00 1.52 7.69 9.40 -4.18 -0.19 -1.73 10614
0.00 0.00 2.11 6.00 8.48 -4.17 -0.45 -1.69 10621
0.00 0.00 2.42 4.72 8.03 -4.13 -0.53 -1.63 10629
0.00 0.00 3.23 4.12 7.77 -4.04 -0.43 -1.58 10636
0.00 0.00 4.25 4.17 7.33 -3.99 -0.18 -1.49 10643
0.00 0.00 4.51 4.51 7.67 -4.03 0.08 -1.39 10650
0.00 -0.00 4.50 4.68 8.53 -4.14 0.47 -1.28 10657
0.00 0.00 4.36 4.41 10.22 -4.23 0.91 -1.11 10664
0.00 0.00 3.88 3.79 11.36 -4.28 1.27 -0.91 10672
0.00 0.00 3.09 2.76 11.74 -4.28 1.62 -0.70 10679
0.00 0.00 2.26 1.84 11.78 -4.28 1.83 -0.44 10686
0.00 0.00 1.48 1.09 11.81 -4.28 1.84 -0.21 10693
0.00 0.00 0.83 0.15 12.07 -4.28 1.74 0.04 10700
0.00 0.00 0.63 -0.62 12.65 -4.28 1.63 0.27 10707
0.00 0.00 0.69 -1.69 13.33 -4.28 1.51 0.42 10715
0.00 0.00 0.64 -2.39 14.51 -4.28 1.42 0.54 10722
0.00 0.00 0.78 -2.95 15.88 -4.28 1.40 0.59 10729
0.00 0.00 0.90 -3.36 15.91 -4.28 1.44 0.56 10736
0.00 -0.00 0.59 -4.00 16.35 -4.28 1.57 0.49 10743
0.00 0.00 0.70 -3.90 17.05 -4.28 1.75 0.39 10750
0.00 0.00 0.21 -5.03 17.74 -4.28 1.95 0.27 10758
0.00 0.00 0.17 -4.81 18.41 -4.28 2.12 0.18 10765
0.00 0.00 -0.64 -5.57 19.16 -4.27 2.27 0.11 10772
0.00 0.00 -1.17 -5.95 20.45 -4.25 2.39 0.10 10779
0.00 0.00 -2.20 -5.89 21.28 -4.21 2.39 0.14 10786
0.00 0.00 -2.67 -6.49 22.00 -4.18 2.31 0.23 10793
0.00 0.00 -2.81 -6.88 21.95 -4.14 2.12 0.33 10801
0.00 0.00 -2.74 -7.89 21.56 -4.11 1.84 0.38 10808
0.00 0.00 -1.28 -9.19 21.08 -4.06 1.59 0.46 10815
0.00 0.00 -1.25 -10.30 20.73 -3.94 1.37 0.49 10822
0.00 0.00 -0.46 -11.41 19.33 -3.75 1.18 0.51 10829
0.00 0.00 -0.07 -12.46 18.17 -3.51 1.01 0.52 10836
0.00 0.00 0.05 -13.32 18.10 -3.18 0.88 0.54 10844
0.00 0.00 0.29 -13.85 18.84 -2.90 0.87 0.60 10851
0.00 0.00 -0.94 -17.79 28.50 -2.52 0.87 0.69 10858
0.00 0.00 1.20 -14.38 18.16 -2.24 0.94 0.85 10865
0.00 0.00 -0.61 -13.72 17.18 -2.65 0.96 0.95 10872
0.00 0.00 -1.02 -17.13 21.04 -2.96 1.14 1.11 10880
0.00 0.00 -1.98 -20.19 19.14 -3.16 1.39 1.35 10887
0.00 0.00 -2.95 -21.33 14.59 -3.23 1.59 1.57 10894
0.00 0.00 -4.11 -23.60 10.75 -3.16 1.63 1.81 10901
0.00 -0.00 -5.97 -27.14 7.26 -2.93 1.43 1.95 10908
0.00 0.00 -6.72 -30.07 4.62 -2.45 1.15 1.99 10915
0.00 0.00 -7.64 -31.94 2.28 -2.00 0.81 1.90 10923
0.00 0.00 -7.84 -32.27 0.96 -1.41 0.52 1.66 10930
0.00 0.00 -7.17 -31.46 0.73 -0.82 0.24 1.30 10937
0.00 0.00 -5.76 -32.16 0.52 -0.36 0.04 0.79 10944
0.00 0.00 -13.48 -34.96 56.18 2.50 -0.15 0.46 10951
0.00 0.00 -8.49 -22.78 9.37 2.27 -0.06 0.17 10958
0.00 0.00 -5.63 -25.70 -0.19 2.66 -0.62 -0.08 10966
-0.00 0.02 -8.50 -37.43 -2.22 2.78 -1.80 -0.03 10973
-0.01 0.05 1.79 8.20 -1.56 3.06 -1.68 0.29 10980
-0.02 0.17 2.85 -7.71 16.47 3.98 -0.74 0.53 10987
-0.02 0.36 0.15 4.18 30.34 4.28 -0.15 0.85 10995
-0.04 0.63 -7.59 -2.93 26.98 4.28 -0.84 0.51 11002
-0.06 0.84 -5.38 -6.41 26.11 4.27 -1.27 0.08 11010
-0.07 0.92 -2.34 -5.81 22.37 3.91 -0.80 -0.10 11017
-0.06 0.97 -2.08 -3.39 21.28 3.48 -0.39 -0.26 11024
-0.06 0.98 0.03 -1.74 17.88 3.03 -0.41 -0.44 11031
-0.06 1.01 2.65 -1.82 16.44 2.88 -0.48 -0.46 11038
-0.04 0.92 2.40 -2.49 20.49 2.32 -1.18 -0.32 11045
-0.06 0.89 1.93 -1.57 12.84 0.72 -1.09 -0.09 11053
-0.06 0.93 0.55 -1.50 10.89 0.27 -0.61 0.02 11060
-0.06 0.92 -0.15 -1.12 10.78 0.06 -0.28 -0.01 11067
-0.04 0.89 0.01 -1.12 10.16 0.02 -0.13 -0.07 11073
-0.06 0.88 0.62 -1.13 10.04 -0.00 -0.08 -0.09 11081
-0.05 0.90 0.72 -1.01 9.81 -0.01 -0.05 -0.07 11087
-0.05 0.89 0.36 -0.81 9.93 -0.01 -0.00 -0.06 11095
-0.05 0.86 0.35 -0.68 9.82 -0.01 -0.01 -0.07 11102
-0.03 0.81 0.51 -0.65 9.68 0.00 0.00 -0.09 11109
-0.01 0.77 0.53 -0.70 9.88 0.01 0.00 -0.08 11116
-0.00 0.71 0.57 -0.76 9.93 0.02 0.01 -0.09 11123
-0.00 0.61 0.18 -0.19 9.48 0.02 0.01 -0.09 11130
0.02 0.59 0.40 -0.75 9.84 0.02 0.02 -0.09 11138
0.02 0.56 0.44 -0.75 9.85 0.02 0.02 -0.08 11145
0.05 0.52 0.45 -0.78 9.77 0.02 0.03 -0.08 11152
0.07 0.49 0.43 -0.77 9.83 0.03 0.04 -0.08 11159
0.07 0.43 0.39 -0.76 9.82 0.03 0.04 -0.09 11166
0.05 0.38 0.42 -0.74 9.21 0.03 0.05 -0.08 11173
0.06 0.30 0.47 -0.79 9.81 0.03 0.05 -0.09 11181
0.05 0.29 0.45 -0.74 9.79 0.03 0.05 -0.09 11188
0.05 0.22 0.50 -0.74 9.82 0.04 0.05 -0.09 11195
0.06 0.19 0.53 -0.81 9.80 0.04 0.05 -0.10 11202
0.06 0.19 0.54 -0.81 9.75 0.03 0.05 -0.10 11209
0.08 0.11 0.58 -0.84 9.75 0.03 0.05 -0.11 11216
0.05 0.09 0.53 -0.81 9.81 0.03 0.04 -0.11 11224
0.07 0.06 0.51 -0.80 9.81 0.03 0.04 -0.11 11231
0.10 0.07 0.54 -0.82 9.82 0.03 0.04 -0.12 11238
0.12 0.03 0.50 -0.74 9.80 0.03 0.04 -0.11 11245
0.14 0.03 0.46 -0.76 9.80 0.03 0.04 -0.11 11252
0.15 0.05 0.44 -0.80 9.78 0.03 0.04 -0.11 11259
0.15 0.03 0.42 -0.83 9.80 0.03 0.05 -0.11 11267
0.17 0.01 0.45 -0.85 9.78 0.03 0.05 -0.10 11274
0.19 0.01 0.46 -0.83 9.79 0.03 0.05 -0.11 11281
0.18 0.01 0.51 -0.86 9.79 0.03 0.05 -0.10 11288
0.18 -0.00 0.51 -0.86 9.78 0.02 0.06 -0.11 11295
0.18 -0.01 0.56 -0.90 9.78 0.02 0.05 -0.11 11302
0.18 -0.00 0.53 -0.84 9.79 0.02 0.05 -0.11 11310
0.21 0.01 0.50 -0.85 9.78 0.02 0.05 -0.11 11317
0.21 -0.01 0.51 -0.83 9.78 0.02 0.05 -0.12 11324
0.23 -0.01 0.47 -0.84 9.78 0.03 0.04 -0.12 11331
0.23 -0.01 0.47 -0.84 9.80 0.03 0.05 -0.12 11338
0.23 -0.02 0.46 -0.88 9.79 0.03 0.05 -0.12 11345
0.26 -0.02 0.46 -0.86 9.82 0.02 0.05 -0.12 11353
0.30 -0.01 0.44 -0.88 9.79 0.03 0.06 -0.11 11360
0.31 -0.03 0.46 -0.88 9.79 0.03 0.05 -0.11 11367
0.32 -0.01 0.48 -0.88 9.86 0.03 0.06 -0.10 11374
0.34 -0.02 0.49 -0.89 9.78 0.03 0.05 -0.10 11381
0.35 -0.01 0.48 -0.87 9.82 0.04 0.05 -0.10 11388
0.39 -0.02 0.54 -0.86 9.22 0.05 0.05 -0.10 11396
0.43 -0.01 0.49 -0.88 9.83 0.05 0.06 -0.11 11403
0.51 -0.03 0.50 -0.87 9.86 0.08 0.06 -0.11 11410
0.58 -0.03 0.54 -0.91 9.88 0.11 0.06 -0.12 11417
0.62 -0.03 0.56 -0.92 9.92 0.15 0.08 -0.13 11424
0.72 -0.04 0.57 -0.97 9.96 0.21 0.09 -0.14 11431
0.77 -0.04 0.55 -1.00 10.09 0.29 0.10 -0.14 11439
0.82 -0.03 0.63 -1.06 10.33 0.40 0.12 -0.16 11447
0.87 -0.04 0.63 -1.08 10.63 0.58 0.16 -0.18 11454
0.91 -0.03 0.68 -1.17 11.33 0.80 0.21 -0.19 11461
1.00 -0.05 0.69 -1.21 11.64 1.11 0.23 -0.20 11468
1.03 -0.05 0.67 -1.29 12.06 1.37 0.19 -0.23 11475
1.08 -0.04 0.67 -1.40 12.14 1.55 0.09 -0.24 11482
1.11 -0.04 0.80 -1.44 12.67 1.70 -0.04 -0.23 11490
1.20 -0.05 0.56 -1.64 12.45 1.85 -0.14 -0.23 11497
1.26 -0.05 0.72 -1.71 11.97 1.98 -0.22 -0.22 11504
1.26 -0.05 0.37 -1.69 12.25 2.15 -0.27 -0.21 11511
1.31 -0.05 0.32 -1.71 12.15 2.30 -0.28 -0.21 11518
1.36 -0.03 0.53 -1.78 12.32 2.52 -0.29 -0.21 11526
1.40 -0.05 0.49 -2.10 12.72 2.77 -0.33 -0.20 11533
1.45 -0.05 0.68 -2.36 12.87 2.96 -0.36 -0.20 11540
1.45 -0.05 0.75 -2.40 13.23 3.22 -0.44 -0.22 11547
1.43 -0.05 0.40 -2.56 13.81 3.48 -0.41 -0.23 11554
1.36 -0.04 0.08 -2.80 14.81 3.87 -0.38 -0.23 11561
1.33 -0.04 0.25 -3.07 16.07 4.22 -0.41 -0.20 11569
1.22 -0.04 1.25 -3.40 15.43 4.28 -0.54 -0.24 11576
1.04 -0.05 2.46 -3.82 16.41 4.28 -0.69 -0.33 11583
0.81 -0.04 2.14 -4.42 16.91 4.28 -0.85 -0.50 11590
0.67 -0.04 1.46 -5.75 18.79 4.28 -0.97 -0.63 11597
0.48 -0.02 0.54 -7.26 22.77 4.28 -1.04 -0.65 11604
0.37 -0.02 0.53 -10.05 25.07 4.28 -1.09 -0.68 11612
0.29 -0.01 1.25 -12.66 29.51 4.28 -0.96 -0.68 11619
0.21 -0.02 2.43 -16.47 29.22 4.28 -0.59 -0.65 11626
0.19 -0.02 1.75 -12.17 26.67 4.28 -0.18 -0.59 11633
0.10 -0.01 -0.66 -8.72 24.66 4.28 0.21 -0.57 11639
0.10 -0.01 -1.40 -6.26 27.92 4.28 0.22 -0.55 11646
0.03 -0.00 -0.61 -5.02 31.13 4.28 -0.01 -0.58 11654
0.04 -0.00 1.56 -2.11 32.07 4.28 -0.55 -0.68 11661
0.04 -0.00 2.79 2.61 31.94 4.28 -1.00 -0.72 11668
0.03 -0.00 4.12 8.44 27.81 4.28 -1.14 -0.68 11675
0.00 0.00 8.24 18.09 19.58 4.28 -0.86 -0.66 11682
0.00 0.00 6.53 19.60 10.82 3.98 -0.56 -0.88 11689
0.00 -0.00 8.19 24.59 -5.83 3.07 -0.80 -1.43 11697
0.00 0.00 6.27 19.81 18.94 1.99 -0.63 -1.74 11704
0.00 0.00 7.01 13.81 27.74 -0.19 0.33 -1.72 11711
0.00 0.00 3.74 12.84 21.03 -1.72 0.78 -1.53 11718
0.00 0.00 1.38 13.23 13.59 -2.80 0.66 -1.29 11725
0.00 0.00 0.31 12.48 11.22 -3.58 0.30 -1.03 11732
0.00 -0.00 0.83 10.19 9.70 -4.05 0.02 -0.82 11740
0.00 0.00 1.82 8.06 8.65 -4.21 -0.31 -0.70 11747
0.00 0.00 2.28 5.97 7.74 -4.23 -0.51 -0.57 11754
0.00 0.00 2.59 4.77 7.89 -4.21 -0.56 -0.47 11761
0.00 0.00 3.18 4.00 8.09 -4.18 -0.50 -0.37 11768
0.00 0.00 3.79 4.02 7.59 -4.17 -0.37 -0.30 11776
0.01 -0.00 3.96 4.15 7.37 -4.21 -0.15 -0.27 11783
0.00 -0.00 3.85 3.87 7.66 -4.26 0.11 -0.23 11790
0.00 0.00 3.56 3.26 8.46 -4.28 0.33 -0.18 11797
0.00 0.00 3.29 2.39 9.41 -4.28 0.58 -0.12 11804
0.00 0.00 2.68 1.52 10.15 -4.28 0.74 -0.04 11811
0.00 0.00 2.11 0.90 10.37 -4.28 0.83 0.03 11819
0.00 0.00 1.82 0.25 10.97 -4.28 0.81 0.09 11826
0.00 0.00 1.76 -0.29 11.75 -4.28 0.77 0.12 11833
0.00 0.00 1.82 -1.05 12.26 -4.28 0.76 0.15 11840
0.00 0.00 1.92 -1.87 12.85 -4.28 0.83 0.16 11847
0.00 0.00 2.06 -2.63 13.51 -4.28 0.89 0.16 11854
0.00 0.00 2.19 -3.39 14.30 -4.28 1.03 0.13 11862
0.00 0.00 2.30 -4.30 15.11 -4.28 1.20 0.08 11869
0.00 0.00 2.16 -4.97 15.62 -4.28 1.41 0.02 11876
0.00 0.00 1.65 -5.54 16.44 -4.28 1.59 -0.06 11883
0.00 0.00 0.96 -6.10 17.15 -4.28 1.71 -0.12 11890
0.00 0.00 1.11 -5.62 17.53 -4.28 1.81 -0.19 11897
0.00 -0.00 -0.53 -6.88 18.13 -4.28 1.87 -0.28 11905
0.00 0.00 0.34 -7.27 17.92 -4.28 1.97 -0.32 11912
0.00 0.00 -0.06 -7.59 18.02 -4.23 1.98 -0.36 11919
0.00 0.00 -0.59 -7.86 18.22 -4.14 1.95 -0.37 11926
0.00 0.00 -1.04 -8.15 18.35 -3.96 1.81 -0.39 11933
0.00 0.00 -1.06 -9.11 18.67 -3.75 1.65 -0.39 11940
0.00 0.00 -1.05 -9.24 18.97 -3.52 1.47 -0.40 11948
0.00 0.00 -1.05 -9.63 18.99 -3.33 1.29 -0.42 11955
0.00 0.00 -0.65 -9.69 19.03 -3.23 1.18 -0.44 11962
0.00 0.00 -0.47 -9.62 18.84 -3.12 1.08 -0.43 11969
0.00 0.00 -0.12 -9.73 18.74 -3.02 1.06 -0.39 11976
-0.00 0.00 0.17 -9.74 18.93 -2.90 1.07 -0.32 11983
0.00 0.00 -5.63 -25.08 26.46 -2.38 1.20 -0.05 11991
0.00 0.00 6.39 -5.59 4.44 -1.71 1.24 0.21 11998
0.00 0.00 0.79 -5.89 7.47 -2.65 1.08 0.15 12005
0.00 0.00 3.22 -15.09 20.60 -2.91 1.59 0.34 12012
0.00 0.00 5.20 -15.11 13.98 -3.09 2.19 0.56 12019
0.00 0.00 1.82 -14.49 14.78 -3.23 2.64 0.67 12026
0.00 0.00 -1.16 -17.45 14.75 -3.34 2.83 0.82 12034
0.00 0.00 -2.48 -20.21 13.09 -3.26 2.80 1.03 12041
0.00 0.00 -4.62 -22.96 9.60 -2.96 2.56 1.26 12048
0.00 0.00 -6.51 -24.97 6.07 -2.40 2.30 1.57 12055
0.00 0.00 -8.49 -26.77 3.83 -1.75 1.98 1.85 12062
0.00 0.00 -9.66 -29.22 3.31 -1.17 1.63 2.13 12069
0.00 -0.00 -10.06 -31.02 2.69 -0.58 1.20 2.19 12077
0.00 0.00 -9.88 -30.40 1.98 -0.15 0.54 2.05 12084
0.00 0.00 -8.99 -27.85 3.17 0.13 -0.03 1.73 12091
0.00 0.00 -18.27 -50.07 52.59 2.03 -1.26 1.42 12098
0.00 0.00 -9.92 -22.36 2.34 2.56 -1.00 1.17 12105
-0.00 0.00 -5.30 -22.45 -0.34 2.98 -1.39 0.79 12112
-0.00 0.01 -6.51 -32.53 -0.14 3.00 -2.26 0.53 12120
-0.00 0.03 -0.65 4.29 4.23 3.26 -2.25 0.71 12127
-0.01 0.08 1.01 -3.63 11.57 3.78 -0.75 0.94 12134
-0.04 0.40 -2.96 3.71 28.29 4.28 -0.57 1.12 12141
-0.05 0.65 -8.29 -3.39 24.39 4.28 -1.02 0.70 12149
-0.03 0.73 -4.24 -6.01 26.05 4.28 -1.56 0.26 12156
-0.04 0.75 -0.67 -5.02 21.90 4.12 -1.20 0.20 12164
-0.04 0.80 -1.82 -3.87 20.74 3.59 -0.52 0.24 12171
-0.04 0.82 -2.62 -2.55 19.38 3.25 -0.43 0.04 12178
-0.05 0.85 -0.14 -3.05 27.55 3.16 -0.59 -0.20 12185
-0.04 0.82 1.08 -0.35 15.13 0.90 -0.92 -0.23 12192
-0.04 0.84 1.45 -2.07 11.23 0.20 -0.40 -0.08 12199
-0.05 0.76 0.51 -1.77 10.23 -0.00 -0.17 -0.03 12207
-0.05 0.78 0.08 -1.05 10.07 0.01 -0.09 -0.04 12213
-0.05 0.78 0.30 -1.03 9.99 -0.00 -0.04 -0.09 12220
-0.04 0.79 0.75 -1.19 10.01 -0.02 -0.03 -0.08 12227
-0.04 0.80 0.60 -0.97 9.94 -0.02 -0.03 -0.08 12234
-0.02 0.77 0.45 -0.75 9.60 -0.02 -0.03 -0.08 12241
0.01 0.78 0.53 -0.69 9.82 -0.01 -0.01 -0.08 12249
0.00 0.77 0.01 -0.71 9.83 0.00 -0.00 -0.09 12256
-0.02 0.74 0.55 -0.75 10.41 0.01 -0.00 -0.09 12263
0.03 0.61 0.51 -0.76 9.78 0.02 -0.00 -0.09 12270
0.04 0.56 0.51 -0.74 9.89 0.02 0.00 -0.09 12277
0.06 0.51 0.50 -0.73 9.87 0.02 0.01 -0.09 12284
0.07 0.45 0.51 -0.80 9.97 0.03 0.01 -0.09 12292
0.12 0.42 0.50 -0.73 9.83 0.03 0.01 -0.09 12299
0.11 0.35 0.44 -0.77 9.81 0.03 0.01 -0.09 12306
0.13 0.34 0.46 -0.76 9.84 0.03 0.02 -0.08 12313
0.15 0.30 0.46 -0.77 9.81 0.03 0.03 -0.08 12320
0.17 0.25 0.52 -0.77 9.79 0.03 0.03 -0.09 12327
0.19 0.21 0.51 -0.75 9.82 0.04 0.04 -0.09 12335
0.15 0.19 0.52 -0.82 9.82 0.04 0.04 -0.09 12342
0.17 0.13 0.48 -0.80 9.80 0.04 0.04 -0.09 12349
0.18 0.09 0.48 -0.83 9.82 0.04 0.04 -0.10 12356
0.20 0.08 0.49 -0.80 9.83 0.04 0.05 -0.10 12363
0.21 0.01 0.51 -0.86 9.79 0.05 0.05 -0.10 12370
0.24 0.01 0.52 -0.84 9.82 0.05 0.05 -0.10 12378
0.24 0.01 0.47 -0.82 9.83 0.06 0.05 -0.10 12385
0.25 0.02 0.46 -0.83 9.81 0.06 0.04 -0.10 12392
0.30 0.01 0.52 -0.85 9.82 0.07 0.05 -0.10 12399
0.33 -0.01 0.52 -0.82 9.82 0.07 0.04 -0.10 12406
0.35 0.03 0.48 -0.87 9.81 0.08 0.04 -0.10 12413
0.36 0.02 0.49 -0.88 9.83 0.09 0.03 -0.09 12421
0.37 -0.02 0.51 -0.91 9.79 0.08 0.04 -0.10 12428
0.36 -0.02 0.55 -0.91 9.81 0.08 0.03 -0.10 12435
0.39 -0.01 0.55 -0.96 9.81 0.08 0.03 -0.11 12442
0.44 -0.02 0.56 -0.97 9.81 0.08 0.03 -0.12 12449
0.44 -0.02 0.59 -0.97 9.75 0.08 0.02 -0.13 12456
0.46 -0.03 0.58 -0.95 9.79 0.07 0.03 -0.13 12464
0.53 -0.02 0.54 -0.91 9.77 0.07 0.02 -0.14 12471
0.55 -0.02 0.49 -0.99 9.76 0.06 0.03 -0.14 12478
0.55 -0.02 0.50 -0.96 9.78 0.06 0.03 -0.14 12485
0.59 -0.03 0.52 -0.96 9.80 0.06 0.03 -0.15 12492
0.60 -0.04 0.51 -0.97 9.78 0.07 0.04 -0.16 12499
0.66 -0.05 0.53 -0.98 9.83 0.08 0.05 -0.16 12507
0.65 -0.03 0.56 -1.01 9.83 0.09 0.04 -0.17 12514
0.73 -0.03 0.54 -0.99 9.20 0.11 0.05 -0.18 12521
0.75 -0.03 0.52 -1.00 9.81 0.12 0.04 -0.18 12528
0.78 -0.04 0.48 -1.03 9.75 0.12 0.04 -0.18 12535
0.80 -0.04 0.55 -1.04 9.81 0.12 0.04 -0.17 12542
0.86 -0.04 0.51 -1.04 9.89 0.13 0.04 -0.16 12550
0.86 -0.03 0.52 -1.06 9.97 0.18 0.04 -0.17 12557
0.94 -0.03 0.55 -1.13 9.98 0.25 0.03 -0.18 12564
1.00 -0.03 0.60 -1.17 10.13 0.33 0.03 -0.19 12571
1.04 -0.04 0.51 -1.03 10.41 0.45 0.03 -0.19 12578
1.11 -0.05 0.67 -1.30 10.32 0.58 0.03 -0.20 12585
1.16 -0.05 0.60 -1.29 10.72 0.75 0.03 -0.21 12593
1.21 -0.03 0.76 -1.36 11.09 0.91 0.03 -0.23 12601
1.28 -0.04 0.60 -1.31 11.48 1.06 0.02 -0.24 12607
1.34 -0.05 0.40 -1.41 11.80 1.24 -0.01 -0.24 12615
1.41 -0.04 0.46 -1.48 11.77 1.40 -0.07 -0.23 12622
1.42 -0.05 0.44 -1.47 11.91 1.53 -0.14 -0.22 12630
1.50 -0.05 0.52 -1.74 12.13 1.70 -0.21 -0.20 12637
1.50 -0.05 0.45 -1.77 11.92 1.83 -0.24 -0.19 12644
1.56 -0.04 0.39 -1.91 13.32 2.02 -0.31 -0.20 12651
1.59 -0.05 0.44 -2.08 13.76 2.27 -0.33 -0.20 12658
1.61 -0.05 0.52 -1.99 12.89 2.51 -0.37 -0.22 12665
1.62 -0.06 0.36 -2.46 13.34 2.76 -0.41 -0.23 12673
1.62 -0.05 0.44 -2.61 13.70 3.00 -0.50 -0.23 12680
1.53 -0.05 0.34 -2.68 14.48 3.31 -0.58 -0.23 12687
1.51 -0.05 0.47 -2.79 15.14 3.70 -0.73 -0.23 12694
1.38 -0.05 1.63 -2.95 15.18 4.06 -0.81 -0.27 12701
1.26 -0.05 2.04 -3.11 15.62 4.27 -0.90 -0.36 12708
1.09 -0.05 2.18 -3.52 16.95 4.28 -1.04 -0.50 12716
0.86 -0.03 1.37 -4.14 17.77 4.28 -1.10 -0.63 12723
0.65 -0.04 1.13 -5.26 19.04 4.28 -1.19 -0.70 12730
0.42 -0.02 0.51 -6.86 21.42 4.28 -1.25 -0.78 12737
0.39 -0.02 0.03 -9.84 24.57 4.28 -1.27 -0.84 12744
0.31 -0.02 1.64 -10.67 28.87 4.28 -1.08 -0.84 12751
0.24 -0.02 1.91 -13.79 28.80 4.28 -0.75 -0.83 12759
0.18 -0.01 1.11 -10.98 25.72 4.28 -0.16 -0.76 12766
0.10 -0.00 0.39 -8.44 27.49 4.28 0.28 -0.69 12772
0.10 -0.01 -0.15 -6.36 29.97 4.28 0.15 -0.73 12779
0.06 -0.01 1.12 -4.18 30.81 4.28 -0.21 -0.83 12786
0.07 -0.01 2.94 -0.29 29.30 4.28 -0.63 -0.98 12793
0.02 -0.00 4.77 4.97 28.91 4.28 -1.08 -1.05 12801
0.01 -0.00 4.94 10.04 24.35 4.28 -1.10 -1.04 12808
0.00 0.00 7.94 15.80 16.78 4.28 -0.75 -1.12 12815
0.01 -0.00 5.66 16.93 4.28 3.93 -0.65 -1.52 12822
0.00 -0.00 8.58 24.84 4.55 3.23 -1.08 -1.88 12829
0.00 0.00 7.91 21.38 21.32 1.10 -0.35 -1.95 12836
0.00 0.00 7.65 15.01 22.82 -0.60 0.63 -1.83 12844
0.00 0.00 5.79 13.30 17.48 -1.94 0.96 -1.61 12851
0.00 0.00 3.42 13.36 12.05 -2.83 0.96 -1.31 12858
0.00 -0.00 2.60 12.68 8.79 -3.34 0.94 -1.05 12865
0.00 0.00 3.39 11.05 7.42 -3.64 0.89 -0.88 12872
0.00 0.00 3.43 8.86 7.08 -3.74 0.80 -0.72 12879
0.00 0.00 2.81 7.19 8.11 -3.77 0.81 -0.60 12887
0.00 0.00 2.45 6.25 7.30 -3.77 0.90 -0.48 12894
0.00 0.00 2.27 5.50 7.16 -3.78 0.99 -0.36 12901
0.00 0.00 1.93 5.13 6.95 -3.84 1.04 -0.27 12908
0.00 0.00 1.42 4.87 7.26 -3.91 1.05 -0.16 12915
0.00 0.00 1.16 4.45 8.12 -3.99 1.05 -0.08 12922
0.00 0.00 1.10 3.80 9.05 -4.06 1.08 0.01 12930
0.00 0.00 1.18 2.97 10.03 -4.12 1.18 0.11 12937
0.00 0.00 1.13 2.38 10.39 -4.18 1.33 0.19 12944
0.00 0.00 0.86 1.84 11.02 -4.27 1.48 0.27 12951
0.00 0.00 0.52 1.51 11.78 -4.28 1.57 0.34 12958
0.00 0.00 0.25 1.07 12.68 -4.28 1.67 0.41 12965
0.00 0.00 -0.09 0.50 13.86 -4.28 1.75 0.48 12973
0.00 0.00 -0.26 -0.13 15.25 -4.28 1.83 0.53 12980
0.00 0.00 -0.29 -1.03 15.28 -4.28 1.91 0.56 12987
0.00 0.00 -0.38 -2.40 15.79 -4.28 1.99 0.55 12994
0.00 0.00 -0.77 -3.13 16.27 -4.28 2.13 0.51 13001
0.00 0.00 -1.28 -4.46 16.60 -4.28 2.30 0.45 13008
0.00 0.00 -1.75 -5.20 16.84 -4.28 2.41 0.39 13016
0.00 0.00 -2.28 -5.84 17.87 -4.28 2.46 0.30 13023
0.00 -0.00 -2.74 -5.96 18.50 -4.27 2.41 0.24 13030
0.00 0.00 -3.49 -5.91 19.18 -4.22 2.32 0.21 13037
0.00 0.00 -3.96 -5.77 19.42 -4.14 2.14 0.18 13044
0.00 0.00 -4.07 -5.66 19.83 -4.06 1.91 0.16 13051
0.00 0.00 -3.99 -5.88 20.37 -3.97 1.60 0.13 13059
0.00 0.00 -3.11 -6.22 21.04 -3.91 1.30 0.09 13066
0.00 0.00 -2.97 -6.41 20.91 -3.86 1.11 0.06 13073
0.00 0.00 -2.32 -7.18 21.21 -3.83 0.93 0.01 13080
0.01 -0.00 -1.71 -8.14 21.02 -3.81 0.85 -0.05 13087
0.00 0.00 -1.32 -9.13 20.82 -3.77 0.84 -0.08 13094
0.00 0.00 -0.76 -9.91 20.51 -3.71 0.91 -0.10 13102
0.00 0.00 -0.79 -10.65 19.97 -3.58 0.99 -0.08 13109
0.00 0.00 -0.85 -11.88 19.24 -3.39 1.05 -0.04 13116
0.00 0.00 -0.82 -13.28 18.29 -3.16 1.02 0.01 13123
0.00 0.00 -0.58 -14.66 17.71 -2.84 0.97 0.07 13130
0.00 0.00 -0.13 -16.37 17.40 -2.53 0.97 0.14 13137
0.00 -0.00 0.20 -17.45 16.41 -2.24 1.08 0.22 13145
0.00 0.00 0.07 -18.25 15.06 -2.08 1.38 0.35 13152
0.00 0.00 -0.62 -18.65 13.26 -2.09 1.77 0.57 13159
0.00 0.00 -2.31 -19.81 12.79 -2.16 2.24 0.79 13166
0.00 -0.00 -4.31 -22.78 11.41 -2.21 2.44 1.01 13174
0.00 0.00 -6.78 -25.34 8.76 -2.26 2.30 1.20 13180
0.00 0.00 -8.82 -28.12 5.69 -2.18 1.88 1.32 13188
0.00 0.00 -9.96 -29.66 2.68 -1.98 1.23 1.44 13195
0.00 0.00 -10.00 -29.65 1.53 -1.53 0.57 1.47 13202
0.00 0.00 -9.29 -28.13 1.74 -0.92 -0.21 1.37 13209
0.00 0.00 -8.16 -25.69 2.87 -0.39 -0.81 1.14 13216
0.00 0.00 -6.42 -22.32 4.70 0.13 -1.39 0.87 13223
-0.00 0.00 -4.36 -19.15 7.81 0.39 -1.71 0.53 13231
0.00 0.00 -7.75 -50.07 78.25 2.34 -2.29 0.19 13238
0.00 0.00 -3.74 -12.86 5.92 2.58 -1.75 -0.04 13245
-0.00 0.01 -0.15 -13.66 -4.28 2.66 -1.74 -0.08 13252
-0.00 0.03 -0.79 -5.91 -2.69 2.24 -1.99 -0.03 13259
-0.01 0.10 2.14 5.18 13.77 2.77 -0.84 0.34 13266
-0.02 0.25 2.76 6.73 17.38 3.26 -0.06 0.59 13274
-0.03 0.46 -4.59 0.01 19.72 3.76 -0.36 0.51 13282
-0.04 0.60 -5.32 -4.33 22.35 3.93 -0.95 0.18 13289
-0.04 0.72 -1.46 -5.47 17.46 3.94 -0.92 0.00 13296
-0.07 0.88 -0.75 -3.31 20.13 3.85 -0.49 -0.02 13303
-0.06 1.00 -1.23 -1.77 18.29 3.45 -0.36 -0.13 13310
-0.06 0.99 -0.06 -1.69 14.74 3.05 -0.36 -0.27 13318
-0.05 0.96 1.80 -1.89 13.53 3.03 -0.38 -0.32 13325
-0.06 0.96 2.43 -1.81 16.76 3.25 -0.41 -0.24 13332
-0.06 1.03 0.63 -3.68 29.83 2.44 -1.34 -0.14 13339
-0.07 1.00 1.50 -2.92 12.74 0.65 -1.08 -0.04 13346
-0.05 0.98 0.23 -2.49 11.33 0.15 -0.42 -0.01 13353
-0.05 0.94 -0.11 -1.28 10.27 0.03 -0.15 -0.02 13361
-0.05 0.97 0.24 -0.94 9.92 0.03 -0.08 -0.06 13367
-0.06 0.99 0.70 -1.04 9.90 0.02 -0.03 -0.07 13374
-0.07 0.92 0.66 -1.09 9.89 -0.00 -0.02 -0.06 13381
-0.05 0.90 0.39 -0.93 9.81 -0.00 -0.01 -0.06 13388
-0.02 0.89 0.43 -0.77 9.92 0.01 0.01 -0.07 13395
0.00 0.91 0.57 -0.92 9.84 0.01 0.02 -0.07 13403
-0.00 0.84 0.58 -0.99 9.83 0.02 0.02 -0.08 13410
0.01 0.71 0.38 -0.97 9.79 0.01 0.02 -0.07 13417
0.03 0.62 0.41 -0.93 9.84 0.02 0.02 -0.07 13424
0.00 0.59 0.39 -0.90 9.82 0.02 0.03 -0.08 13431
0.02 0.57 0.41 -0.90 9.82 0.02 0.04 -0.07 13438
0.03 0.53 0.42 -0.90 9.84 0.02 0.05 -0.07 13446
0.04 0.51 0.45 -0.89 9.78 0.02 0.06 -0.07 13453
0.05 0.49 0.50 -0.88 9.80 0.03 0.06 -0.08 13460
0.06 0.41 0.51 -0.86 9.78 0.03 0.06 -0.07 13467
0.05 0.39 0.57 -0.83 9.79 0.03 0.05 -0.07 13474
0.05 0.36 0.53 -0.89 9.80 0.04 0.05 -0.08 13481
0.06 0.26 0.51 -0.93 9.79 0.04 0.05 -0.08 13489
0.07 0.25 0.56 -0.90 9.79 0.04 0.05 -0.09 13496
0.08 0.28 0.54 -0.95 9.79 0.04 0.05 -0.09 13503
0.09 0.18 0.56 -0.93 9.78 0.04 0.05 -0.09 13510
0.11 0.16 0.59 -0.93 9.78 0.03 0.05 -0.10 13517
0.14 0.15 0.53 -0.97 9.80 0.03 0.04 -0.10 13524
0.16 0.07 0.50 -0.91 9.79 0.03 0.05 -0.10 13532
0.16 0.04 0.49 -0.96 9.77 0.03 0.05 -0.09 13539
0.15 0.00 0.50 -0.96 9.82 0.03 0.04 -0.10 13546
0.18 0.02 0.46 -0.96 9.77 0.03 0.06 -0.10 13553
0.20 0.00 0.46 -0.93 9.76 0.03 0.06 -0.10 13560
0.20 0.03 0.53 -0.96 9.81 0.03 0.06 -0.09 13568
0.20 -0.00 0.47 -0.99 9.81 0.03 0.06 -0.09 13575
0.22 -0.00 0.56 -0.99 9.80 0.03 0.06 -0.10 13582
0.22 0.02 0.56 -0.98 9.79 0.03 0.06 -0.10 13589
0.19 -0.00 0.56 -1.02 9.81 0.02 0.05 -0.10 13596
0.20 -0.01 0.53 -0.97 9.77 0.02 0.05 -0.10 13603
0.24 0.00 0.57 -1.02 9.75 0.02 0.05 -0.10 13611
0.22 -0.00 0.61 -1.01 9.79 0.02 0.04 -0.11 13618
0.23 -0.00 0.56 -0.97 9.76 0.02 0.03 -0.11 13625
0.22 -0.02 0.52 -1.02 9.78 0.02 0.03 -0.11 13632
0.21 -0.01 0.57 -1.02 9.77 0.03 0.02 -0.11 13639
0.23 -0.00 0.49 -0.99 9.79 0.02 0.03 -0.11 13646
0.25 -0.02 0.49 -1.04 9.75 0.03 0.03 -0.11 13654
0.28 -0.01 0.49 -1.01 9.80 0.03 0.03 -0.11 13661
0.27 -0.01 0.52 -1.00 9.75 0.03 0.04 -0.11 13668
0.30 -0.01 0.51 -1.03 9.74 0.03 0.04 -0.11 13675
0.33 0.00 0.53 -0.99 10.38 0.03 0.05 -0.11 13682
0.39 -0.01 0.51 -0.96 9.81 0.03 0.05 -0.11 13689
0.41 -0.02 0.53 -1.01 9.79 0.04 0.05 -0.11 13697
0.45 -0.02 0.54 -1.01 9.85 0.06 0.05 -0.11 13704
0.51 -0.03 0.48 -1.06 9.85 0.08 0.06 -0.12 13711
0.53 -0.02 0.53 -1.03 9.87 0.10 0.07 -0.13 13718
0.56 -0.02 0.55 -1.11 9.86 0.14 0.09 -0.14 13725
0.61 -0.01 1.20 -1.14 9.95 0.18 0.10 -0.15 13732
0.73 -0.03 0.63 -1.13 10.08 0.25 0.13 -0.17 13741
0.74 -0.04 0.58 -1.25 10.36 0.40 0.16 -0.18 13748
0.80 -0.05 0.58 -1.81 10.80 0.57 0.21 -0.18 13754
0.85 -0.03 0.48 -1.24 11.35 0.88 0.27 -0.18 13762
0.88 -0.03 0.58 -1.53 11.56 1.18 0.27 -0.17 13769
0.93 -0.03 0.34 -1.50 12.70 1.45 0.20 -0.17 13775
1.04 -0.05 0.57 -1.64 12.08 1.65 0.10 -0.17 13783
1.08 -0.04 0.77 -1.70 11.94 1.75 0.05 -0.16 13791
1.12 -0.05 0.57 -1.70 11.95 1.85 -0.06 -0.16 13798
1.10 -0.04 0.35 -1.67 11.89 1.93 -0.11 -0.14 13805
1.17 -0.04 0.63 -1.85 12.77 2.07 -0.10 -0.14 13812
1.18 -0.05 0.63 -2.15 12.48 2.27 -0.15 -0.15 13819
1.26 -0.04 0.94 -2.19 12.86 2.49 -0.20 -0.16 13827
1.24 -0.05 1.05 -2.30 13.17 2.74 -0.27 -0.18 13834
1.26 -0.05 0.67 -2.41 13.58 2.97 -0.27 -0.20 13841
1.20 -0.05 0.79 -2.62 13.87 3.30 -0.26 -0.23 13848
1.14 -0.04 0.68 -2.56 13.56 3.62 -0.24 -0.24 13855
1.05 -0.04 -0.57 -3.02 14.76 3.91 -0.26 -0.23 13862
0.98 -0.03 0.57 -3.45 15.39 4.22 -0.35 -0.21 13870
0.81 -0.04 2.25 -4.05 15.29 4.28 -0.42 -0.27 13877
0.67 -0.03 2.07 -3.84 16.48 4.28 -0.51 -0.37 13884
0.48 -0.02 1.26 -5.21 18.59 4.28 -0.58 -0.46 13891
0.31 -0.01 0.67 -6.79 21.73 4.28 -0.64 -0.51 13898
0.25 -0.02 1.69 -7.50 24.48 4.28 -0.66 -0.54 13905
0.24 -0.02 1.81 -9.53 28.23 4.28 -0.57 -0.54 13913
0.19 -0.02 3.02 -9.61 26.84 4.28 -0.35 -0.52 13919
0.13 -0.01 2.66 -9.44 27.82 4.28 0.09 -0.51 13927
0.09 -0.01 0.14 -8.27 23.94 4.28 0.50 -0.48 13933
0.09 -0.01 -0.74 -7.23 26.26 4.28 0.58 -0.44 13940
0.03 -0.00 -0.43 -6.61 30.60 4.28 0.47 -0.44 13947
0.05 -0.01 1.23 -4.76 32.97 4.28 0.17 -0.55 13955
0.03 -0.00 3.19 -1.24 33.34 4.28 -0.35 -0.66 13962
0.00 0.00 3.66 5.04 29.93 4.28 -0.67 -0.75 13969
0.00 -0.00 5.82 14.76 23.73 4.28 -0.55 -0.72 13976
0.00 0.00 7.57 18.22 12.85 4.18 -0.22 -0.89 13983
0.01 -0.00 3.78 23.57 -4.61 3.27 -0.22 -1.41 13990
-0.00 0.00 5.67 23.30 8.27 2.34 -0.65 -1.85 13998
0.00 0.00 7.09 14.45 26.30 0.70 0.08 -1.98 14005
0.00 0.00 5.39 12.02 23.16 -1.03 0.63 -1.95 14012
0.00 0.00 2.89 12.78 16.45 -1.98 0.85 -1.81 14019
0.00 -0.00 1.46 13.41 11.43 -2.59 0.73 -1.62 14026
0.01 -0.00 1.43 12.52 9.39 -3.17 0.55 -1.50 14033
0.00 -0.00 2.18 10.01 8.42 -3.47 0.31 -1.42 14041
0.00 -0.00 2.52 7.59 8.68 -3.65 0.11 -1.36 14048
0.00 -0.00 2.20 6.66 8.65 -3.78 -0.03 -1.27 14055
0.01 0.00 2.49 5.78 8.38 -3.86 -0.02 -1.15 14062
0.01 -0.00 2.87 5.43 8.03 -3.95 0.03 -1.04 14069
0.01 -0.00 3.02 5.36 7.85 -4.05 0.10 -0.91 14076
0.00 -0.00 3.17 5.19 8.03 -4.15 0.18 -0.78 14084
0.00 0.00 3.30 4.72 8.46 -4.23 0.32 -0.68 14091
0.00 -0.00 3.35 3.77 9.11 -4.26 0.53 -0.54 14098
0.01 -0.00 3.23 3.00 9.43 -4.28 0.77 -0.41 14105
0.03 -0.00 3.03 2.29 9.82 -4.28 1.02 -0.24 14112
0.00 -0.00 2.58 1.91 10.27 -4.28 1.17 -0.09 14119
0.00 -0.00 2.07 1.63 11.04 -4.28 1.28 0.02 14127
0.00 0.00 1.76 1.09 11.94 -4.28 1.36 0.14 14134
0.01 -0.00 1.60 0.29 12.94 -4.28 1.45 0.24 14141
0.01 -0.00 1.55 -0.53 13.78 -4.28 1.52 0.31 14148
0.02 -0.00 1.42 -1.31 14.71 -4.28 1.58 0.34 14155
0.01 -0.00 1.03 -2.08 15.46 -4.28 1.66 0.34 14162
0.01 -0.00 0.67 -3.21 16.31 -4.28 1.80 0.33 14170
0.00 -0.00 0.36 -4.12 16.81 -4.28 1.91 0.30 14177
0.01 -0.00 -0.06 -4.75 17.01 -4.28 1.98 0.26 14184
0.01 -0.00 -0.53 -4.92 17.41 -4.28 2.00 0.22 14191
0.01 -0.00 -1.01 -5.43 17.85 -4.28 1.97 0.22 14198
0.01 -0.00 -1.36 -5.67 18.31 -4.28 1.92 0.24 14205
0.01 -0.00 -1.79 -6.16 18.35 -4.24 1.82 0.27 14213
0.00 0.00 -1.98 -6.68 18.37 -4.14 1.65 0.28 14220
0.00 -0.00 -1.86 -7.34 18.79 -3.98 1.45 0.28 14227
0.01 -0.00 -1.56 -7.82 19.24 -3.74 1.31 0.26 14234
0.00 0.00 -1.30 -8.38 19.96 -3.52 1.16 0.22 14241
0.00 0.00 -0.93 -8.69 20.76 -3.43 1.10 0.19 14248
0.00 0.00 -0.44 -9.39 21.34 -3.40 1.07 0.18 14256
0.00 0.00 -0.24 -10.09 21.79 -3.43 1.05 0.18 14263
0.00 0.00 0.19 -10.74 21.42 -3.47 1.05 0.20 14270
0.00 0.00 0.35 -11.76 20.69 -3.48 1.06 0.23 14277
0.00 0.00 0.58 -12.65 19.83 -3.44 1.06 0.29 14284
0.00 0.00 0.97 -13.52 18.96 -3.33 1.08 0.35 14291
0.00 0.00 1.25 -14.88 18.41 -3.18 1.12 0.47 14299
0.00 0.00 1.11 -15.65 17.48 -2.98 1.18 0.60 14306
0.00 0.00 0.48 -16.85 16.93 -2.79 1.31 0.80 14313
0.00 0.00 -0.26 -17.78 15.81 -2.67 1.46 1.03 14320
0.00 0.00 -1.47 -18.56 14.51 -2.60 1.58 1.27 14327
0.00 0.00 -3.16 -19.63 13.70 -2.59 1.71 1.57 14334
0.00 0.00 -4.64 -21.33 11.92 -2.56 1.72 1.86 14342
0.00 0.00 -6.47 -22.90 9.87 -2.45 1.58 2.06 14349
0.01 -0.00 -7.34 -25.67 6.98 -2.26 1.17 2.18 14356
0.02 -0.00 -7.43 -27.37 3.92 -1.92 0.66 2.15 14363
0.00 0.00 -6.39 -28.26 2.63 -1.41 0.11 1.98 14370
0.00 0.00 -5.12 -27.60 2.18 -0.95 -0.18 1.67 14377
0.00 0.00 -3.83 -26.97 2.82 -0.41 -0.27 1.33 14385
0.00 0.00 -3.03 -24.45 4.29 -0.03 -0.16 0.89 14392
0.00 0.00 -2.67 -21.83 6.33 0.26 -0.02 0.50 14399
0.00 0.00 -2.68 -19.03 8.15 0.38 0.06 0.11 14406
0.00 0.00 -16.16 -20.50 42.91 3.49 0.23 0.09 14413
0.00 0.00 -9.92 -13.74 10.84 2.52 0.07 0.20 14420
-0.00 0.01 -1.83 -19.10 -5.31 2.69 -0.61 0.16 14428
-0.00 0.03 -1.72 2.14 -2.98 2.61 -1.18 0.09 14435
-0.01 0.11 1.31 -1.96 13.92 3.35 -0.61 0.21 14443
-0.01 0.29 3.03 5.28 19.71 3.94 -0.20 0.35 14450
-0.04 0.61 -3.59 -1.94 22.88 4.28 -0.60 0.24 14457
-0.04 0.80 -3.56 -4.75 22.28 4.28 -1.06 -0.01 14465
-0.06 1.00 0.02 -6.05 22.77 4.28 -0.89 -0.07 14471
-0.05 1.00 0.01 -3.77 22.02 4.11 -0.44 -0.02 14478
-0.03 1.05 -0.97 -2.57 19.41 3.68 -0.42 -0.15 14486
-0.05 1.01 0.58 -2.39 18.55 3.36 -0.46 -0.30 14493
-0.06 0.99 2.15 -2.93 24.49 3.19 -0.87 -0.31 14500
-0.06 1.00 2.34 -1.38 15.94 1.47 -1.50 -0.18 14508
-0.06 0.94 0.97 -2.29 12.24 0.51 -0.86 -0.03 14515
-0.05 0.92 0.17 -1.24 10.21 0.20 -0.39 0.02 14522
-0.05 0.92 0.04 -0.85 9.97 0.11 -0.25 -0.06 14528
-0.06 0.93 0.63 -1.01 9.91 0.07 -0.16 -0.07 14535
-0.05 0.89 0.77 -1.07 9.71 0.03 -0.11 -0.06 14542
-0.06 0.88 0.61 -1.00 9.23 0.01 -0.08 -0.05 14550
-0.06 0.85 0.46 -0.62 9.80 0.01 -0.06 -0.05 14557
-0.04 0.84 0.54 -0.79 9.81 0.00 -0.03 -0.06 14564
-0.03 0.79 0.58 -0.82 9.85 0.01 -0.02 -0.07 14571
-0.03 0.76 0.49 -0.77 9.82 0.01 -0.01 -0.07 14578
-0.00 0.70 0.42 -0.81 9.83 0.02 0.00 -0.07 14585
-0.02 0.67 0.48 -0.79 9.89 0.02 0.02 -0.07 14593
0.00 0.64 0.46 -0.78 9.95 0.02 0.03 -0.07 14600
0.01 0.59 0.47 -0.80 9.89 0.03 0.03 -0.07 14607
0.05 0.55 0.47 -0.83 9.83 0.03 0.04 -0.07 14614
0.02 0.51 0.45 -0.77 9.83 0.03 0.05 -0.08 14621
0.02 0.43 0.48 -0.78 9.82 0.04 0.05 -0.07 14628
0.01 0.33 0.51 -0.79 9.80 0.04 0.06 -0.08 14636
0.04 0.26 0.52 -0.75 9.79 0.04 0.07 -0.07 14643
0.07 0.24 0.49 -0.81 9.80 0.04 0.07 -0.08 14650
0.07 0.23 0.58 -0.83 9.75 0.05 0.07 -0.08 14657
0.07 0.15 0.62 -0.86 9.77 0.05 0.08 -0.09 14664
0.08 0.09 0.61 -0.87 9.81 0.05 0.08 -0.09 14671
0.10 0.08 0.63 -0.85 9.80 0.04 0.07 -0.10 14679
0.13 0.08 0.58 -0.87 9.78 0.04 0.07 -0.10 14686
0.13 0.06 0.53 -0.87 9.79 0.04 0.07 -0.10 14693
0.13 0.03 0.57 -0.86 9.81 0.04 0.06 -0.10 14700
0.15 0.03 0.53 -0.85 9.78 0.03 0.07 -0.10 14707
0.17 0.03 0.51 -0.88 9.79 0.03 0.07 -0.09 14714
0.16 0.03 0.53 -0.87 9.80 0.04 0.07 -0.09 14722
0.19 0.03 0.57 -0.86 9.81 0.04 0.07 -0.09 14729
0.20 0.02 0.60 -0.92 9.79 0.04 0.07 -0.09 14736
0.18 0.01 0.62 -0.95 9.77 0.03 0.07 -0.09 14743
0.18 0.00 0.58 -0.92 9.78 0.04 0.07 -0.10 14750
0.17 0.00 0.58 -0.89 9.79 0.03 0.06 -0.10 14757
0.17 -0.00 0.00 -0.89 9.74 0.03 0.06 -0.10 14765
0.17 0.00 0.62 -0.92 9.79 0.02 0.05 -0.10 14772
0.22 -0.00 0.62 -0.88 9.73 0.02 0.04 -0.11 14779
0.22 -0.01 0.62 -0.92 9.77 0.02 0.03 -0.10 14786
0.23 -0.02 0.63 -0.92 9.79 0.02 0.03 -0.11 14793
0.23 -0.01 0.55 -0.91 9.80 0.02 0.03 -0.12 14800
0.25 -0.02 0.55 -0.94 9.80 0.03 0.03 -0.11 14808
0.28 -0.00 0.59 -0.95 9.77 0.03 0.03 -0.12 14815
0.30 -0.01 0.57 -0.88 9.83 0.03 0.04 -0.12 14822
0.31 -0.02 0.54 -0.89 9.80 0.04 0.04 -0.12 14829
0.33 -0.01 0.55 -0.93 9.76 0.04 0.05 -0.12 14836
0.33 -0.01 0.55 -0.95 9.81 0.04 0.06 -0.12 14843
0.34 -0.01 0.53 -0.91 9.81 0.06 0.07 -0.11 14851
0.37 -0.01 0.59 -0.93 9.83 0.07 0.07 -0.11 14858
0.38 -0.02 0.58 -0.96 9.80 0.09 0.09 -0.11 14865
0.42 -0.03 0.60 -0.96 9.86 0.11 0.11 -0.11 14872
0.45 -0.04 0.61 -0.96 9.92 0.16 0.13 -0.12 14879
0.49 -0.03 0.73 -1.01 10.08 0.25 0.15 -0.13 14887
0.58 -0.02 0.69 -1.08 10.14 0.34 0.19 -0.14 14895
0.64 -0.03 0.60 -1.17 10.20 0.51 0.23 -0.16 14902
0.70 -0.03 0.77 -1.18 10.81 0.75 0.27 -0.15 14909
0.79 -0.03 0.60 -1.15 11.07 0.96 0.30 -0.17 14915
0.85 -0.04 0.68 -1.35 11.36 1.18 0.25 -0.16 14923
0.85 -0.04 0.75 -1.43 11.68 1.36 0.15 -0.15 14930
0.90 -0.03 0.79 -1.60 11.75 1.50 0.07 -0.15 14938
0.99 -0.04 0.68 -1.66 11.80 1.60 -0.04 -0.16 14945
1.00 -0.04 0.72 -1.74 11.93 1.68 -0.13 -0.16 14952
1.01 -0.04 0.66 -1.71 12.24 1.81 -0.17 -0.17 14959
1.09 -0.05 0.45 -1.82 12.24 1.96 -0.17 -0.17 14966
1.13 -0.04 0.46 -2.09 12.02 2.14 -0.20 -0.15 14973
1.17 -0.03 0.95 -2.06 11.94 2.31 -0.29 -0.14 14981
1.20 -0.05 0.32 -2.13 12.79 2.49 -0.30 -0.12 14988
1.18 -0.04 0.48 -2.66 12.74 2.77 -0.25 -0.13 14995
1.21 -0.05 0.59 -2.48 12.88 3.10 -0.22 -0.14 15002
1.19 -0.05 0.80 -2.79 13.42 3.33 -0.17 -0.16 15009
1.16 -0.04 0.62 -2.82 13.71 3.65 -0.14 -0.18 15016
1.09 -0.04 -0.48 -3.31 14.12 3.95 -0.11 -0.18 15024
1.01 -0.04 0.45 -3.59 15.37 4.24 -0.06 -0.15 15031
0.91 -0.03 1.69 -3.42 15.40 4.28 -0.13 -0.19 15038
0.68 -0.04 2.09 -4.33 16.48 4.28 -0.17 -0.30 15045
0.46 -0.03 1.08 -5.10 18.65 4.28 -0.25 -0.40 15052
0.28 -0.02 1.33 -7.49 21.35 4.28 -0.27 -0.46 15059
0.28 -0.02 2.15 -9.34 25.90 4.28 -0.21 -0.49 15067
0.22 -0.02 2.56 -11.75 29.43 4.28 -0.01 -0.50 15074
0.14 -0.01 2.25 -13.39 29.73 4.28 0.34 -0.44 15081
0.14 -0.01 1.28 -10.40 28.87 4.28 0.72 -0.42 15088
0.06 -0.01 -0.32 -8.32 24.32 4.28 1.00 -0.37 15094
0.08 -0.01 -1.66 -7.06 27.43 4.28 1.12 -0.32 15101
0.05 -0.00 -3.02 -6.42 33.05 4.28 0.84 -0.34 15109
0.07 -0.01 -1.73 -3.98 34.74 4.28 0.23 -0.46 15116
0.01 -0.00 0.16 -0.97 34.08 4.28 -0.70 -0.54 15123
0.01 -0.00 1.91 6.51 30.31 4.28 -1.27 -0.53 15130
0.00 0.00 6.97 18.20 14.14 4.28 -1.21 -0.44 15137
0.00 0.00 7.03 19.15 11.05 4.02 -0.76 -0.64 15144
0.02 -0.00 8.44 23.92 -6.00 3.14 -0.63 -1.44 15152
0.01 0.00 5.82 21.10 14.97 2.16 -0.63 -1.93 15160
0.01 -0.00 7.11 13.56 26.91 0.43 0.51 -2.14 15167
0.00 -0.00 4.88 12.65 21.85 -1.23 1.20 -2.24 15173
0.01 -0.00 1.35 13.96 16.00 -2.18 1.35 -2.21 15181
0.01 -0.00 -0.11 14.16 12.06 -2.87 1.06 -2.16 15187
0.01 -0.00 -0.27 12.65 10.00 -3.50 0.66 -2.10 15195
0.00 0.00 0.25 9.84 8.78 -3.79 0.20 -2.02 15202
0.00 0.00 0.60 7.10 8.63 -3.95 -0.18 -1.96 15209
0.00 0.00 0.78 6.18 8.55 -4.02 -0.54 -1.87 15216
0.00 0.00 1.31 5.18 8.29 -4.02 -0.76 -1.74 15223
0.00 0.00 2.27 4.72 8.15 -4.01 -0.83 -1.63 15230
0.00 0.00 3.35 4.83 8.31 -4.10 -0.83 -1.50 15238
0.00 0.00 4.18 4.98 9.07 -4.17 -0.73 -1.37 15245
0.00 0.00 4.82 4.74 9.65 -4.27 -0.46 -1.28 15252
0.00 0.00 4.95 4.08 9.98 -4.28 -0.06 -1.13 15259
0.00 0.00 4.93 3.20 10.30 -4.28 0.34 -0.99 15266
0.00 0.00 4.28 2.28 10.38 -4.28 0.74 -0.82 15273
0.00 0.00 3.62 1.22 10.54 -4.28 0.98 -0.63 15281
0.00 0.00 2.94 0.38 10.83 -4.28 1.14 -0.47 15288
0.00 0.00 2.56 -0.53 11.44 -4.28 1.22 -0.29 15295
0.00 0.00 2.33 -1.49 12.20 -4.28 1.25 -0.15 15302
0.00 0.00 2.35 -2.36 13.02 -4.28 1.27 0.00 15309
0.00 -0.00 2.66 -2.88 14.05 -4.28 1.31 0.09 15316
0.00 0.00 2.67 -3.41 15.07 -4.28 1.41 0.13 15324
0.00 0.00 2.37 -4.31 15.76 -4.28 1.62 0.14 15331
0.00 0.00 1.81 -5.08 16.43 -4.28 1.80 0.11 15338
0.00 0.00 1.24 -6.22 16.40 -4.28 1.93 0.06 15345
0.00 0.00 1.13 -5.81 16.36 -4.28 2.00 -0.01 15352
0.01 -0.00 0.65 -6.85 17.35 -4.24 2.05 -0.06 15360
0.00 0.00 0.01 -7.79 17.74 -4.10 2.08 -0.06 15367
0.00 0.00 -0.08 -8.20 18.25 -3.87 2.14 -0.02 15374
0.00 0.00 -0.01 -7.27 18.64 -3.62 2.12 0.05 15381
0.00 0.00 0.02 -6.76 19.62 -3.50 2.04 0.13 15388
-0.00 0.01 0.19 -7.39 19.95 -3.39 2.05 0.25 15395
0.00 0.00 0.25 -7.72 19.54 -3.32 1.99 0.38 15403
0.00 0.00 0.18 -8.54 19.91 -3.26 1.94 0.51 15410
0.00 0.00 0.24 -9.65 20.15 -3.13 1.89 0.59 15417
0.00 0.00 -0.27 -10.32 20.49 -3.03 1.76 0.66 15424
0.00 0.00 -0.41 -10.78 21.59 -2.99 1.68 0.69 15431
0.00 0.00 -0.33 -11.29 22.38 -3.04 1.54 0.71 15438
0.00 0.00 -0.19 -11.86 23.19 -3.15 1.44 0.70 15446
0.00 0.00 0.12 -12.48 23.45 -3.37 1.40 0.67 15453
0.00 0.00 0.51 -14.08 22.64 -3.63 1.44 0.63 15460
0.00 0.00 0.52 -16.40 20.83 -3.84 1.49 0.59 15467
0.00 0.00 0.48 -18.36 18.52 -3.92 1.61 0.54 15474
0.00 0.00 -0.22 -20.53 14.64 -3.83 1.73 0.51 15481
0.00 0.00 -0.83 -21.79 10.84 -3.58 1.82 0.52 15489
0.00 0.00 -3.04 -22.88 8.09 -3.09 2.07 0.64 15496
0.00 0.00 -5.13 -24.58 6.67 -2.53 2.37 0.93 15503
0.00 0.00 -8.37 -26.99 6.03 -1.87 2.50 1.22 15510
0.00 0.00 -10.70 -30.03 5.99 -1.44 2.14 1.42 15517
0.01 -0.00 -11.68 -32.51 4.34 -1.11 1.46 1.48 15525
0.00 0.00 -11.16 -31.97 2.48 -0.88 0.62 1.46 15532
0.00 0.00 -9.78 -29.68 2.60 -0.63 0.07 1.33 15539
0.00 0.00 -8.26 -27.68 3.66 -0.21 -0.34 1.10 15546
0.00 0.00 -6.40 -23.89 5.48 0.14 -0.60 0.76 15553
0.00 0.00 -25.55 -46.17 77.34 2.61 -1.90 0.65 15560
0.00 0.00 -9.79 -17.06 11.56 2.72 -1.30 0.64 15567
-0.00 0.02 -3.74 -20.53 -5.22 2.89 -1.99 0.60 15575
-0.00 0.04 -2.03 -9.55 -3.01 2.55 -2.51 0.70 15582
-0.01 0.09 -0.22 3.19 13.06 3.33 -1.04 1.12 15589
-0.03 0.37 -0.64 6.97 22.31 4.01 -0.16 1.37 15597
-0.04 0.63 -8.24 -2.26 21.27 4.28 -0.74 1.11 15604
-0.04 0.75 -7.31 -6.13 23.14 4.28 -1.29 0.58 15611
-0.05 0.91 -2.77 -6.63 23.17 4.28 -0.93 0.37 15619
-0.05 0.98 -4.28 -4.04 22.45 4.14 -0.50 0.22 15626
-0.06 1.08 -2.59 -2.51 19.34 3.77 -0.51 -0.13 15633
-0.06 1.06 0.41 -2.43 20.24 3.72 -0.59 -0.35 15640
-0.06 0.99 0.74 -2.56 27.19 2.23 -2.00 -0.35 15647
-0.04 1.00 2.57 -2.10 12.55 0.56 -1.15 -0.05 15654
-0.04 0.89 0.04 -2.31 11.21 0.05 -0.31 0.06 15661
-0.05 0.88 -0.74 -1.28 10.42 -0.01 -0.11 0.02 15669
-0.07 0.87 -0.02 -0.98 10.04 -0.01 -0.03 -0.05 15675
-0.04 0.85 0.79 -0.90 9.92 -0.01 -0.00 -0.06 15682
-0.03 0.88 0.80 -0.89 9.91 -0.01 -0.02 -0.05 15689
-0.03 0.84 0.29 -0.63 9.88 -0.01 -0.02 -0.05 15696
-0.01 0.81 0.42 -0.69 9.82 0.00 -0.01 -0.06 15704
0.00 0.76 0.52 -0.67 9.22 0.01 -0.00 -0.07 15711
-0.00 0.67 0.43 -0.65 9.83 0.02 0.00 -0.07 15718
0.04 0.65 0.40 -0.61 9.79 0.02 0.00 -0.08 15725
0.05 0.58 0.40 -0.72 9.80 0.02 0.01 -0.08 15732
0.07 0.51 0.29 -0.72 9.89 0.03 0.02 -0.08 15739
0.07 0.46 0.36 -0.65 9.83 0.03 0.03 -0.08 15747
0.08 0.42 0.37 -0.69 9.83 0.03 0.04 -0.07 15754
0.07 0.37 0.35 -0.67 9.82 0.04 0.05 -0.07 15761
0.08 0.35 0.40 -0.62 9.83 0.04 0.05 -0.07 15768
0.09 0.28 0.37 -0.63 9.84 0.05 0.06 -0.07 15775
0.10 0.22 0.45 -0.68 9.81 0.05 0.07 -0.08 15782
0.14 0.21 0.49 -0.67 9.78 0.06 0.07 -0.09 15790
0.14 0.13 0.48 -0.70 9.83 0.07 0.07 -0.09 15797
0.14 0.14 0.54 -0.74 10.40 0.06 0.07 -0.10 15804
0.17 0.07 0.42 -0.74 9.80 0.06 0.07 -0.11 15811
0.20 0.01 0.47 -0.69 9.81 0.06 0.06 -0.10 15818
0.19 0.02 0.46 -0.76 9.82 0.06 0.07 -0.10 15825
0.21 0.02 0.46 -0.74 9.83 0.06 0.06 -0.10 15833
0.21 0.02 0.44 -0.77 9.21 0.06 0.06 -0.10 15840
0.20 0.01 0.48 -0.77 9.82 0.06 0.06 -0.10 15847
0.22 0.00 0.48 -0.79 9.82 0.06 0.06 -0.09 15854
0.22 -0.00 0.44 -0.75 9.80 0.06 0.05 -0.09 15861
0.19 -0.00 0.44 -0.78 9.80 0.07 0.05 -0.10 15868
0.22 -0.01 0.47 -0.78 9.80 0.07 0.05 -0.09 15876
0.23 -0.02 0.50 -0.83 9.81 0.07 0.05 -0.10 15883
0.24 -0.01 0.50 -0.80 9.81 0.07 0.05 -0.10 15890
0.28 -0.01 0.49 -0.81 9.77 0.06 0.05 -0.10 15897
0.32 0.00 0.52 -0.80 9.81 0.06 0.04 -0.11 15904
0.34 -0.01 0.52 -0.83 9.79 0.05 0.03 -0.12 15911
0.36 -0.02 0.50 -0.80 9.78 0.04 0.03 -0.12 15919
0.36 -0.01 0.51 -0.81 9.80 0.03 0.03 -0.12 15926
0.41 -0.00 0.47 -0.83 9.81 0.03 0.02 -0.13 15933
0.44 -0.01 0.56 -0.83 9.81 0.03 0.01 -0.14 15940
0.45 -0.01 0.52 -0.84 9.75 0.04 0.01 -0.14 15947
0.47 -0.01 0.46 -0.84 9.75 0.04 0.02 -0.15 15954
0.49 -0.02 0.47 -0.86 9.74 0.03 0.02 -0.15 15962
0.48 -0.01 0.48 -0.80 9.81 0.04 0.02 -0.14 15969
0.51 -0.00 0.46 -0.83 9.80 0.04 0.03 -0.14 15976
0.57 -0.01 0.46 -0.93 9.78 0.04 0.03 -0.14 15983
0.59 -0.02 0.38 -0.87 9.78 0.04 0.04 -0.14 15990
0.63 -0.02 0.40 -0.86 9.80 0.05 0.05 -0.14 15997
0.63 -0.02 0.41 -0.90 9.87 0.06 0.05 -0.13 16005
0.67 -0.02 0.45 -0.91 9.86 0.08 0.06 -0.14 16012
0.71 -0.02 0.54 -0.92 9.88 0.11 0.10 -0.14 16019
0.73 -0.03 0.51 -0.92 9.91 0.15 0.07 -0.14 16026
0.80 -0.03 0.53 -0.95 10.03 0.20 0.08 -0.15 16033
0.83 -0.04 0.55 -0.97 10.21 0.29 0.09 -0.16 16041
0.85 -0.03 0.55 -0.98 10.24 0.41 0.09 -0.16 16049
0.91 -0.03 0.48 -1.18 10.34 0.55 0.11 -0.16 16056
0.95 -0.03 0.56 -1.09 10.52 0.74 0.10 -0.16 16062
1.03 -0.04 0.53 -1.28 10.98 0.90 0.09 -0.16 16069
1.04 -0.04 0.57 -1.26 10.98 1.05 0.07 -0.17 16077
1.09 -0.06 0.58 -1.40 11.53 1.20 0.02 -0.17 16083
1.10 -0.04 0.65 -1.52 11.60 1.30 -0.05 -0.17 16092
1.16 -0.04 0.52 -1.55 12.04 1.42 -0.13 -0.17 16099
1.26 -0.04 0.55 -1.64 11.97 1.54 -0.20 -0.18 16106
1.32 -0.05 0.03 -1.50 12.05 1.67 -0.25 -0.17 16113
1.33 -0.06 0.59 -1.78 12.57 1.84 -0.28 -0.19 16120
1.35 -0.05 0.47 -1.78 12.61 2.01 -0.28 -0.20 16128
1.38 -0.05 0.68 -2.13 12.92 2.25 -0.34 -0.21 16135
1.41 -0.05 0.38 -2.05 12.73 2.47 -0.37 -0.23 16142
1.41 -0.04 1.02 -2.39 12.92 2.68 -0.41 -0.24 16149
1.39 -0.05 0.63 -2.75 12.40 2.88 -0.53 -0.26 16156
1.35 -0.05 0.65 -2.68 13.53 3.18 -0.47 -0.29 16163
1.31 -0.05 0.18 -2.66 13.95 3.46 -0.49 -0.30 16171
1.21 -0.04 -0.14 -2.68 14.42 3.80 -0.52 -0.28 16178
1.10 -0.04 0.68 -3.42 15.05 4.12 -0.57 -0.27 16185
0.93 -0.04 1.89 -3.85 16.34 4.28 -0.65 -0.35 16192
0.77 -0.03 2.36 -4.28 16.83 4.28 -0.70 -0.50 16199
0.59 -0.03 1.65 -4.83 18.17 4.28 -0.69 -0.61 16206
0.37 -0.02 0.47 -5.53 17.53 4.28 -0.68 -0.67 16214
0.32 -0.02 0.67 -7.83 23.43 4.28 -0.56 -0.68 16221
0.28 -0.01 1.61 -8.50 26.35 4.28 -0.42 -0.69 16228
0.22 -0.02 1.53 -11.69 28.92 4.28 0.00 -0.66 16235
0.15 -0.02 1.81 -11.06 26.03 4.28 0.40 -0.61 16242
0.14 -0.01 0.32 -8.93 25.21 4.28 0.83 -0.60 16248
0.08 -0.01 -0.89 -6.48 26.19 4.28 0.81 -0.64 16256
0.07 -0.01 -0.39 -4.77 29.06 4.28 0.53 -0.71 16263
0.03 -0.00 1.40 -3.41 30.57 4.28 -0.02 -0.87 16270
0.06 -0.01 4.09 -0.06 30.25 4.28 -0.44 -1.00 16277
0.01 -0.00 4.83 4.27 28.74 4.28 -0.92 -1.07 16284
0.00 0.00 5.72 16.45 26.78 4.28 -0.85 -1.10 16291
0.00 0.00 8.10 15.49 13.12 4.25 -0.50 -1.27 16299
0.00 0.00 4.64 17.63 -3.34 3.43 -0.31 -1.84 16306
-0.00 0.00 8.32 21.69 5.60 2.65 -0.38 -2.41 16313
0.00 -0.00 8.23 15.71 21.46 0.77 0.40 -2.57 16320
0.00 0.00 6.78 10.81 21.01 -0.58 1.13 -2.57 16327
0.00 0.00 4.46 10.62 14.65 -1.56 1.35 -2.42 16334
0.00 0.00 2.53 11.53 10.10 -2.26 1.24 -2.24 16342
0.00 0.00 1.90 11.29 6.67 -2.72 1.03 -2.03 16349
0.00 0.00 2.64 9.57 6.62 -3.06 0.82 -1.88 16356
0.00 0.00 2.61 7.63 9.19 -3.27 0.65 -1.71 16363
0.00 0.00 2.57 6.34 6.73 -3.37 0.59 -1.52 16370
0.00 0.00 2.65 5.45 6.33 -3.46 0.67 -1.36 16377
0.00 0.00 2.83 5.01 6.08 -3.51 0.80 -1.17 16385
0.00 0.00 2.65 4.95 5.93 -3.58 0.91 -1.03 16392
0.00 0.00 2.26 4.78 6.29 -3.67 1.03 -0.87 16399
0.00 0.00 1.90 4.47 7.22 -3.77 1.15 -0.73 16406
0.00 0.00 1.53 4.04 7.89 -3.88 1.30 -0.62 16413
0.00 0.00 1.20 3.42 8.34 -3.98 1.50 -0.50 16420
0.00 0.00 0.86 2.97 8.88 -4.08 1.64 -0.43 16428
0.00 -0.00 0.34 2.50 9.40 -4.15 1.75 -0.37 16435
0.00 0.00 -0.13 1.89 10.08 -4.20 1.82 -0.35 16442
0.00 -0.00 -0.53 1.20 11.02 -4.23 1.90 -0.35 16449
0.00 0.00 -0.97 0.62 12.24 -4.25 2.01 -0.36 16456
0.00 0.00 -1.31 -0.02 13.60 -4.27 2.13 -0.43 16463
0.01 -0.00 -1.88 -0.73 14.32 -4.27 2.27 -0.46 16471
0.01 -0.00 -2.55 -1.43 15.27 -4.27 2.38 -0.57 16478
0.01 -0.00 -3.14 -2.13 15.99 -4.28 2.44 -0.68 16485
0.01 -0.00 -3.70 -2.91 16.25 -4.27 2.48 -0.82 16492
0.01 -0.00 -3.87 -3.73 16.69 -4.27 2.50 -0.93 16499
0.00 0.00 -4.07 -4.34 16.92 -4.25 2.50 -0.99 16506
0.00 -0.00 -4.41 -4.66 16.66 -4.20 2.54 -1.01 16514
0.01 -0.00 -4.24 -4.70 17.43 -4.14 2.61 -0.98 16521
0.01 -0.00 -4.56 -4.72 17.69 -4.01 2.59 -0.92 16528
0.01 -0.00 -5.14 -5.15 18.62 -3.88 2.56 -0.83 16535
0.00 -0.00 -5.23 -5.35 19.26 -3.73 2.51 -0.74 16542
0.00 0.00 -5.10 -5.44 19.44 -3.61 2.42 -0.66 16549
0.00 0.00 -5.08 -5.31 19.13 -3.51 2.34 -0.61 16557
0.00 -0.00 -4.93 -5.73 19.39 -3.44 2.29 -0.57 16564
0.00 0.00 -4.98 -6.35 19.33 -3.36 2.28 -0.54 16571
0.00 0.00 -5.09 -6.85 18.99 -3.26 2.27 -0.54 16578
0.00 0.00 -5.30 -7.61 18.72 -3.15 2.23 -0.55 16585
0.00 0.00 -5.55 -8.36 18.38 -2.97 2.12 -0.56 16592
0.00 0.00 -5.75 -9.26 18.42 -2.76 1.94 -0.57 16600
0.00 0.00 -4.92 -9.75 18.61 -2.58 1.83 -0.57 16607
0.00 0.00 -4.96 -10.13 18.96 -2.40 1.76 -0.56 16614
0.00 0.00 -4.28 -10.22 19.31 -2.28 1.84 -0.52 16621
0.00 0.00 -4.41 -10.52 18.57 -2.30 1.99 -0.48 16628
0.00 0.00 -5.52 -10.74 17.10 -2.36 2.17 -0.39 16635
0.00 0.00 -6.92 -11.75 16.08 -2.40 2.22 -0.27 16643
0.00 0.00 -8.21 -12.78 14.24 -2.40 2.16 -0.14 16650
0.01 -0.00 -9.80 -14.24 13.21 -2.36 1.94 -0.01 16658
0.00 -0.00 -10.70 -15.97 11.21 -2.29 1.72 0.11 16665
0.00 0.00 -11.33 -17.41 9.51 -2.16 1.44 0.19 16671
0.00 0.00 -10.85 -19.68 7.92 -2.00 1.07 0.22 16678
0.00 0.00 -10.14 -21.87 6.15 -1.77 0.65 0.18 16686
0.00 0.00 -9.03 -23.99 4.32 -1.47 0.24 0.11 16693
0.00 0.00 -7.76 -24.80 2.79 -1.12 0.04 0.06 16700
0.00 0.00 -6.61 -24.68 2.21 -0.64 -0.03 0.03 16707
0.00 0.00 -5.82 -23.40 3.15 -0.15 -0.04 0.00 16714
0.00 0.00 -5.41 -21.40 4.60 0.22 -0.07 -0.00 16721
0.00 0.00 -10.55 -29.32 5.25 0.71 -0.45 0.04 16729
0.00 0.00 -5.10 -21.22 -1.53 2.67 -2.05 0.58 16736
0.00 0.00 -3.58 -14.02 -0.96 2.49 -3.10 0.59 16743
0.00 0.00 0.13 -8.56 1.40 2.39 -4.25 0.40 16750
-0.00 0.04 1.55 6.84 9.92 2.56 -3.90 0.45 16757
-0.01 0.09 2.05 1.94 16.61 2.69 -1.76 0.85 16764
-0.02 0.35 -3.40 6.23 18.52 2.97 -0.80 1.06 16773
-0.03 0.58 -7.83 -1.87 19.52 3.30 -1.36 0.67 16780
-0.04 0.69 -6.06 -5.21 18.01 3.57 -2.03 0.30 16787
-0.05 0.72 -1.53 -5.04 19.08 3.69 -1.52 0.19 16794
-0.05 0.80 -2.22 -3.56 21.77 3.35 -1.02 0.25 16801
-0.05 0.84 -1.43 -2.74 19.29 2.68 -0.82 0.14 16808
-0.04 0.85 0.38 -1.77 15.26 2.39 -0.71 0.09 16816
-0.05 0.84 1.17 -1.89 17.36 2.31 -0.83 0.16 16823
-0.05 0.82 -1.13 -1.59 16.22 1.34 -1.14 0.19 16830
-0.05 0.78 -0.18 -1.48 12.08 0.37 -0.75 0.15 16837
-0.04 0.83 -0.65 -1.64 10.71 0.04 -0.22 0.08 16844
-0.04 0.82 -0.30 -1.50 10.09 -0.00 -0.11 0.01 16850
-0.03 0.82 -0.01 -1.22 9.89 0.00 -0.03 -0.03 16858
-0.04 0.77 0.32 -1.00 9.84 -0.00 -0.01 -0.05 16865
-0.03 0.78 0.31 -0.98 9.83 -0.01 -0.00 -0.06 16872
-0.04 0.80 0.22 -0.96 9.87 -0.02 0.01 -0.06 16879
-0.01 0.75 0.23 -0.90 9.83 -0.01 0.02 -0.06 16886
-0.01 0.74 0.36 -0.88 9.80 -0.01 0.03 -0.06 16893
-0.01 0.70 -0.24 -1.04 9.53 -0.00 0.04 -0.06 16901
-0.01 0.66 0.37 -0.94 9.81 0.00 0.04 -0.06 16908
-0.00 0.67 0.34 -0.94 9.85 0.00 0.04 -0.06 16915
-0.00 0.60 0.32 -0.88 9.82 -0.00 0.05 -0.06 16922
0.02 0.58 0.35 -0.90 9.84 0.01 0.05 -0.06 16929
0.04 0.54 0.30 -0.88 9.82 0.01 0.05 -0.07 16936
0.06 0.53 0.37 -0.90 9.83 0.01 0.06 -0.06 16944
0.07 0.48 0.34 -0.88 9.75 0.01 0.06 -0.06 16951
0.06 0.46 0.34 -0.86 9.79 0.02 0.06 -0.06 16958
0.05 0.45 0.38 -0.88 9.80 0.02 0.06 -0.06 16965
0.07 0.43 0.39 -0.86 9.78 0.03 0.06 -0.06 16972
0.10 0.35 0.42 -0.88 9.82 0.02 0.06 -0.07 16979
0.08 0.32 0.40 -0.95 10.10 0.03 0.06 -0.07 16987
0.08 0.33 0.47 -0.84 9.82 0.03 0.07 -0.08 16994
0.08 0.22 0.48 -0.86 9.84 0.03 0.07 -0.08 17001
0.08 0.22 0.44 -0.97 9.79 0.03 0.06 -0.09 17008
0.09 0.22 0.44 -0.92 9.78 0.03 0.06 -0.09 17015
0.13 0.18 0.42 -0.91 9.80 0.03 0.06 -0.09 17022
0.13 0.14 0.45 -0.92 9.78 0.03 0.06 -0.09 17030
0.14 0.15 0.42 -0.91 9.78 0.02 0.06 -0.09 17037
0.15 0.10 0.44 -0.91 9.77 0.02 0.06 -0.08 17044
0.14 0.06 0.43 -0.91 9.78 0.03 0.06 -0.08 17051
0.17 0.04 0.47 -0.95 9.81 0.03 0.06 -0.09 17058
0.20 0.05 0.45 -0.89 9.78 0.03 0.06 -0.09 17065
0.21 0.02 0.47 -0.96 9.76 0.03 0.05 -0.09 17073
0.20 0.02 0.43 -0.98 9.78 0.03 0.05 -0.10 17080
0.22 0.01 0.46 -0.95 9.77 0.03 0.05 -0.10 17087
0.22 -0.01 0.40 -0.92 9.20 0.03 0.05 -0.10 17094
0.22 0.00 0.46 -0.94 9.77 0.02 0.05 -0.10 17101
0.23 0.01 0.44 -0.94 9.81 0.03 0.04 -0.10 17108
0.26 0.00 0.40 -0.93 9.77 0.02 0.04 -0.11 17116
0.26 -0.00 0.42 -0.92 9.81 0.03 0.04 -0.10 17123
0.26 -0.01 0.41 -0.94 9.81 0.03 0.04 -0.07 17130
0.28 -0.01 0.39 -0.96 9.80 0.03 0.04 -0.10 17137
0.31 0.00 0.39 -0.94 9.81 0.03 0.04 -0.10 17144
0.33 -0.01 0.39 -0.98 9.81 0.03 0.04 -0.09 17152
0.32 -0.01 0.41 -0.97 9.83 0.00 0.05 -0.09 17159
0.34 -0.03 0.43 -0.99 9.80 0.04 0.05 -0.09 17166
0.34 -0.02 0.42 -1.04 9.81 0.04 0.05 -0.10 17173
0.40 -0.02 0.45 -0.98 9.83 0.05 0.06 -0.10 17180
0.41 -0.01 0.42 -1.03 9.83 0.06 0.06 -0.11 17187
0.47 -0.02 0.46 -1.00 9.79 0.08 0.07 -0.11 17195
0.50 -0.02 0.52 -1.06 9.83 0.09 0.07 -0.12 17202
0.49 -0.03 0.48 -1.03 9.82 0.11 0.08 -0.13 17209
0.49 -0.02 0.49 -1.06 9.83 0.12 0.08 -0.14 17216
0.56 -0.02 0.51 -1.05 9.83 0.15 0.08 -0.15 17223
0.58 -0.03 0.51 -1.07 9.93 0.20 0.10 -0.14 17230
0.63 -0.03 0.34 -1.09 10.02 0.25 0.10 -0.15 17238
0.66 -0.03 0.50 -1.12 10.15 0.34 0.12 -0.13 17246
0.71 -0.04 0.50 -1.17 10.39 0.47 0.15 -0.13 17253
0.74 -0.03 0.58 -1.82 10.61 0.69 0.18 -0.13 17260
0.82 -0.02 0.68 -1.30 11.29 0.94 0.20 -0.13 17267
0.86 -0.03 0.52 -1.37 11.50 1.13 0.18 -0.14 17274
0.91 -0.04 0.57 -1.56 11.64 1.30 0.13 -0.14 17282
1.01 -0.04 0.67 -1.55 11.76 1.46 0.05 -0.15 17289
1.03 -0.04 0.73 -1.68 11.86 1.55 -0.05 -0.16 17296
1.06 -0.04 0.69 -1.70 11.87 1.69 -0.13 -0.17 17303
1.13 -0.03 0.64 -1.94 12.20 1.83 -0.19 -0.18 17310
1.07 -0.04 0.86 -2.00 12.37 1.98 -0.20 -0.20 17316
1.10 -0.04 1.02 -2.13 11.58 2.16 -0.25 -0.24 17325
1.15 -0.05 0.56 -2.29 12.30 2.34 -0.26 -0.26 17332
1.18 -0.05 0.37 -2.30 12.66 2.56 -0.24 -0.27 17339
1.13 -0.04 0.52 -2.54 12.07 2.76 -0.25 -0.28 17346
1.10 -0.04 0.69 -2.53 12.63 2.96 -0.24 -0.30 17353
1.09 -0.05 0.09 -2.89 12.90 3.20 -0.18 -0.30 17359
0.95 -0.04 -0.49 -3.02 13.66 3.44 -0.14 -0.26 17368
0.88 -0.04 0.22 -3.15 13.53 3.77 -0.23 -0.25 17375
0.77 -0.04 1.50 -3.73 15.11 4.11 -0.17 -0.28 17382
0.63 -0.03 1.57 -4.09 15.24 4.28 -0.09 -0.39 17389
0.40 -0.02 0.87 -4.57 16.14 4.28 0.03 -0.43 17396
0.30 -0.02 0.96 -5.65 18.77 4.28 0.18 -0.42 17403
0.22 -0.02 1.85 -7.39 20.70 4.28 0.43 -0.39 17411
0.19 -0.02 2.07 -9.00 21.91 4.28 0.87 -0.30 17417
0.14 -0.01 2.12 -11.03 24.80 4.28 1.42 -0.17 17425
0.14 -0.01 1.53 -10.07 22.24 4.28 2.21 -0.09 17432
0.11 -0.01 1.17 -8.77 23.47 4.28 2.97 0.01 17438
0.05 -0.01 0.60 -8.22 26.34 4.28 3.07 0.03 17445
0.07 -0.01 -0.61 -7.87 27.65 4.28 2.82 -0.06 17453
