Voltage_01 Voltage_02 Acc_x Acc_y Acc_z Gyro_x Gyro_y Gyro_z Time
5000
0.06 -0.01 -1.11 -13.82 18.33 -2.47 1.92 0.78 23
0.05 -0.00 -1.50 -13.91 17.54 -2.42 1.86 0.82 29
0.05 -0.01 -1.87 -13.86 16.77 -2.39 1.81 0.88 35
0.05 -0.01 -2.43 -13.61 15.64 -2.36 1.81 0.96 41
0.05 -0.00 -3.16 -13.61 14.53 -2.31 1.88 1.08 48
0.05 -0.01 -4.00 -14.03 13.21 -2.21 1.92 1.23 55
0.06 -0.01 -5.53 -14.72 12.24 -2.12 1.82 1.38 61
0.05 -0.01 -5.65 -15.45 10.69 -1.96 1.57 1.52 67
0.06 -0.01 -6.28 -15.83 9.16 -1.76 1.35 1.63 73
0.07 0.00 -6.70 -16.23 8.39 -1.55 1.06 1.71 79
0.08 -0.01 -6.89 -16.60 7.87 -1.33 0.80 1.77 86
0.07 -0.01 -6.75 -17.28 7.44 -1.11 0.55 1.76 92
0.06 -0.01 -6.35 -17.96 7.04 -0.93 0.33 1.69 98
0.07 -0.01 -5.80 -18.32 6.35 -0.73 0.17 1.57 104
0.08 -0.01 -5.25 -18.51 5.93 -0.52 0.07 1.41 110
0.07 -0.01 -4.88 -18.54 5.62 -0.29 0.04 1.29 116
0.07 -0.01 -4.65 -18.20 5.68 -0.04 0.04 1.12 123
0.06 -0.00 -4.53 -17.48 5.92 0.21 0.02 0.96 130
0.08 -0.01 -4.28 -16.54 6.46 0.44 -0.04 0.82 136
0.07 -0.01 -4.07 -15.52 7.22 0.62 -0.16 0.70 142
0.06 -0.01 -3.70 -14.67 8.03 0.80 -0.28 0.60 148
0.07 -0.01 -9.65 -28.16 18.11 1.16 -0.87 0.63 154
0.08 -0.01 -4.91 -17.70 5.26 2.79 -1.68 0.79 160
0.06 -0.01 -3.16 -10.39 6.19 2.79 -2.04 0.73 166
0.06 -0.01 -1.11 -9.05 3.24 2.86 -2.46 0.71 174
0.07 0.05 1.61 -2.51 8.67 2.83 -2.61 0.72 180
0.06 0.08 1.43 4.34 12.05 2.85 -2.20 0.77 186
0.05 0.15 2.37 0.49 12.76 2.65 -1.79 0.93 192
0.05 0.29 1.69 4.86 13.85 2.56 -1.30 1.12 198
0.05 0.50 -0.79 1.94 11.45 2.61 -0.88 1.20 204
0.03 0.71 -4.59 -1.59 13.60 3.10 -0.98 1.07 210
0.01 0.87 -6.29 -3.35 17.12 3.49 -1.18 0.80 218
0.02 1.03 -6.27 -3.73 17.27 3.58 -1.26 0.41 224
0.00 1.15 -3.77 -3.85 19.73 3.54 -1.12 0.08 230
-0.01 1.11 -2.18 -3.15 20.23 3.25 -0.83 -0.17 236
0.02 1.16 -0.49 -2.82 19.27 2.90 -0.60 -0.34 242
0.02 1.15 1.47 -2.78 19.17 2.66 -0.45 -0.41 248
-0.02 1.17 2.06 -3.32 24.95 1.86 -1.22 -0.31 256
-0.00 1.23 2.48 -2.43 11.45 0.46 -0.86 -0.00 262
-0.01 1.23 1.03 -2.35 11.97 0.24 -0.50 0.12 268
-0.01 1.23 0.35 -1.06 9.88 0.10 -0.27 0.15 274
0.01 1.26 0.18 -0.62 10.29 0.05 -0.18 0.12 280
0.02 1.28 0.37 -0.82 10.32 0.01 -0.11 0.09 286
0.00 1.29 0.49 -1.28 10.11 -0.03 -0.06 0.06 293
-0.02 1.30 0.84 -1.37 10.11 -0.03 -0.06 0.08 300
-0.00 1.39 0.80 -1.13 10.24 -0.04 -0.06 0.09 306
0.01 1.33 0.63 -1.16 9.95 -0.04 -0.05 0.08 312
0.01 1.33 0.58 -0.87 10.00 -0.04 -0.04 0.07 318
0.01 1.40 0.77 -1.00 10.00 -0.04 -0.04 0.07 324
0.01 1.43 0.74 -0.93 10.02 -0.04 -0.04 0.07 330
0.02 1.44 0.67 -0.89 9.95 -0.03 -0.05 0.07 336
0.01 1.46 0.64 -0.81 9.91 -0.03 -0.04 0.07 344
0.02 1.44 0.74 -0.80 9.88 -0.03 -0.04 0.07 350
0.06 1.42 0.75 -0.79 9.93 -0.02 -0.04 0.07 356
0.02 1.42 0.64 -0.80 9.84 -0.02 -0.04 0.06 362
0.03 1.38 0.70 -0.82 9.95 -0.02 -0.03 0.07 368
0.04 1.35 0.69 -0.83 10.00 -0.02 -0.03 0.07 374
0.06 1.31 0.66 -0.82 10.09 -0.02 -0.02 0.07 380
0.05 1.25 0.72 -0.91 10.07 -0.01 -0.02 0.08 387
0.07 1.21 0.74 -0.85 9.98 -0.00 -0.02 0.07 393
0.11 1.14 0.70 -0.81 10.02 -0.00 -0.02 0.07 400
0.12 1.10 0.74 -0.80 9.98 0.00 -0.02 0.08 406
0.10 1.02 0.75 -0.83 9.96 0.01 -0.02 0.07 412
0.08 0.97 0.70 -0.85 9.99 0.01 -0.01 0.08 418
0.10 0.91 0.70 -0.83 9.99 0.01 -0.01 0.07 424
0.14 0.87 0.72 -0.83 9.99 0.02 -0.01 0.07 431
0.15 0.79 0.72 -0.84 9.98 0.02 -0.01 0.06 437
0.16 0.75 0.76 -0.84 9.97 0.02 -0.01 0.07 443
0.15 0.71 0.73 -0.86 9.90 0.02 -0.01 0.06 449
0.18 0.63 0.78 -0.86 9.98 0.02 -0.01 0.06 455
0.19 0.55 0.78 -0.83 9.98 0.02 -0.01 0.05 461
0.19 0.52 0.74 -0.87 9.92 0.02 -0.01 0.06 467
0.21 0.49 0.74 -0.87 9.94 0.02 -0.02 0.06 474
0.23 0.46 0.73 -0.89 9.97 0.02 -0.02 0.06 481
0.25 0.44 0.68 -0.88 9.92 0.02 -0.01 0.06 487
0.24 0.42 0.68 -0.86 9.92 0.02 -0.01 0.06 493
0.24 0.38 0.72 -0.86 9.97 0.02 -0.01 0.05 499
0.25 0.34 0.75 -0.86 9.97 0.02 -0.01 0.06 505
0.27 0.32 0.80 -0.87 9.94 0.02 -0.00 0.06 512
0.26 0.31 0.80 -0.86 9.96 0.03 -0.01 0.06 518
0.27 0.26 0.80 -0.88 10.03 0.03 -0.00 0.05 524
0.28 0.22 0.79 -0.84 9.94 0.03 -0.01 0.06 530
0.30 0.21 0.76 -0.91 9.89 0.03 -0.01 0.04 536
0.29 0.16 0.76 -0.90 9.95 0.02 -0.01 0.05 542
0.30 0.17 0.79 -0.89 9.95 0.03 -0.01 0.04 549
0.32 0.15 0.81 -0.92 9.93 0.02 -0.01 0.04 556
0.35 0.15 0.76 -0.89 9.96 0.02 -0.02 0.04 562
0.35 0.13 0.79 -0.90 9.94 0.02 -0.02 0.04 568
0.35 0.10 0.77 -0.90 9.96 0.02 -0.02 0.04 574
0.37 0.07 0.79 -0.92 9.97 0.02 -0.03 0.04 580
0.38 0.06 0.80 -0.92 9.96 0.02 -0.03 0.03 586
0.39 0.06 0.81 -0.93 9.95 0.02 -0.03 0.04 592
0.43 0.04 0.81 -0.92 9.92 0.02 -0.03 0.03 599
0.44 0.02 0.81 -0.95 10.00 0.03 -0.04 0.03 605
0.47 0.02 0.82 -0.98 9.99 0.03 -0.04 0.03 611
0.48 0.03 0.79 -0.91 10.03 0.03 -0.03 0.03 617
0.55 0.00 0.83 -0.91 10.09 0.04 -0.03 0.03 624
0.62 -0.03 0.73 -0.90 10.06 0.05 -0.02 0.03 630
0.61 -0.02 0.80 -0.98 10.05 0.05 -0.02 0.03 636
0.65 -0.01 0.76 -0.92 10.00 0.06 -0.01 0.03 643
0.70 -0.04 0.83 -0.98 10.01 0.08 0.03 0.02 649
0.78 -0.04 0.80 -1.01 10.00 0.10 0.00 0.02 655
0.79 -0.04 0.81 -1.00 10.08 0.12 0.01 0.01 661
0.81 -0.04 0.84 -1.03 10.09 0.14 0.02 0.01 667
0.82 -0.05 0.97 -1.03 10.19 0.17 0.02 -0.00 674
0.84 -0.05 0.98 -1.07 10.27 0.22 0.02 -0.02 680
0.89 -0.04 0.93 -1.13 10.39 0.28 0.03 -0.03 687
0.95 -0.05 0.93 -1.12 10.59 0.39 0.04 -0.04 693
0.97 -0.06 1.05 -0.66 10.84 0.56 0.07 -0.05 699
1.04 -0.05 1.01 -1.29 11.10 0.80 0.09 -0.06 705
1.10 -0.06 1.08 -1.42 11.69 1.06 0.11 -0.08 711
1.15 -0.05 1.03 -1.41 11.66 1.30 0.10 -0.10 718
1.21 -0.05 1.02 -1.60 12.14 1.47 0.05 -0.10 724
1.24 -0.05 1.03 -1.60 12.20 1.59 -0.01 -0.11 731
1.29 -0.06 0.97 -1.69 12.20 1.72 -0.10 -0.11 737
1.32 -0.06 0.90 -1.77 12.03 1.79 -0.17 -0.10 743
1.37 -0.05 0.90 -1.90 11.96 1.89 -0.26 -0.10 749
1.41 -0.06 0.70 -1.97 12.28 2.00 -0.27 -0.09 756
1.46 -0.06 0.84 -2.09 12.26 2.14 -0.30 -0.09 762
1.46 -0.06 0.91 -2.23 12.69 2.30 -0.30 -0.09 769
1.51 -0.06 0.86 -2.25 11.79 2.43 -0.27 -0.11 775
1.46 -0.06 0.78 -2.56 12.15 2.56 -0.27 -0.11 781
1.47 -0.06 1.07 -2.59 12.70 2.72 -0.21 -0.11 787
1.48 -0.05 1.07 -2.65 12.60 2.94 -0.19 -0.13 794
1.42 -0.05 1.24 -2.84 12.82 3.20 -0.16 -0.16 800
1.34 -0.04 1.22 -3.01 13.90 3.50 -0.12 -0.18 806
1.31 -0.04 0.98 -3.54 15.17 3.74 -0.11 -0.19 813
1.23 -0.02 1.67 -3.40 16.03 4.08 -0.11 -0.22 819
1.14 -0.04 2.26 -3.98 16.43 4.27 -0.14 -0.32 825
0.99 -0.03 2.56 -4.32 17.31 4.28 -0.23 -0.41 832
0.91 -0.03 2.49 -4.90 18.47 4.28 -0.33 -0.55 838
0.80 -0.04 2.75 -5.87 19.65 4.28 -0.45 -0.60 844
0.76 -0.04 3.02 -8.23 21.92 4.28 -0.51 -0.68 850
0.63 -0.04 2.94 -10.71 26.29 4.28 -0.46 -0.72 857
0.52 -0.04 3.36 -12.55 29.10 4.28 -0.27 -0.70 864
0.44 -0.03 4.42 -13.33 28.16 4.28 0.01 -0.67 870
0.38 -0.04 4.32 -11.76 27.55 4.28 0.24 -0.70 876
0.27 -0.01 3.60 -10.77 26.65 4.28 0.45 -0.73 882
0.28 -0.02 2.35 -9.05 26.24 4.28 0.46 -0.78 888
0.19 -0.02 1.55 -6.32 28.27 4.28 0.27 -0.87 894
0.16 -0.02 1.74 -4.21 33.31 4.28 0.00 -1.02 902
0.13 -0.00 1.59 -3.59 29.15 4.28 -0.46 -1.13 908
0.11 -0.01 4.53 -0.68 30.15 4.28 -0.97 -1.16 914
0.09 -0.01 4.13 3.56 28.62 4.28 -1.20 -1.14 920
0.08 -0.01 7.20 11.23 21.51 4.28 -1.12 -1.04 926
0.05 -0.01 10.36 16.27 17.66 4.28 -0.88 -1.04 932
0.05 -0.00 9.64 21.46 9.87 3.72 -0.29 -1.30 940
0.05 0.00 8.67 23.74 -8.44 2.60 0.01 -2.07 946
0.06 -0.01 6.35 18.28 20.40 1.52 0.19 -2.45 952
0.05 -0.00 8.16 13.74 29.51 -0.18 1.01 -2.38 958
0.03 -0.00 5.88 12.95 23.47 -1.72 1.59 -2.29 964
0.05 -0.01 3.37 13.88 17.71 -2.48 1.65 -2.24 970
0.04 -0.00 1.94 13.38 13.57 -3.02 1.27 -2.10 976
0.04 -0.00 1.48 11.27 10.22 -3.54 0.89 -1.87 984
0.05 0.00 1.94 9.45 8.51 -3.92 0.61 -1.66 990
0.05 -0.00 2.56 7.90 8.23 -4.05 0.43 -1.48 996
0.04 -0.00 2.90 6.58 8.04 -4.11 0.35 -1.31 1002
0.04 -0.00 2.97 5.39 8.06 -4.13 0.29 -1.14 1008
0.04 -0.00 3.19 4.54 7.81 -4.12 0.28 -1.01 1014
0.07 -0.01 3.45 4.00 7.50 -4.10 0.32 -0.86 1020
0.06 -0.01 3.58 3.73 7.66 -4.10 0.38 -0.73 1027
0.04 -0.00 3.66 3.56 8.10 -4.13 0.43 -0.62 1033
0.05 -0.00 3.77 3.44 8.73 -4.18 0.49 -0.51 1039
0.06 -0.01 3.99 3.24 9.19 -4.23 0.57 -0.38 1046
0.05 -0.00 4.02 2.90 9.45 -4.27 0.66 -0.29 1052
0.05 -0.00 3.85 2.51 9.80 -4.28 0.79 -0.17 1058
0.04 -0.00 3.65 1.95 10.08 -4.28 0.93 -0.03 1064
0.05 -0.01 3.52 1.41 10.98 -4.28 1.06 0.09 1071
0.05 -0.00 3.48 0.49 12.19 -4.28 1.21 0.23 1077
0.04 -0.00 3.32 -0.01 12.41 -4.28 1.35 0.35 1083
0.06 -0.01 3.26 -1.14 12.82 -4.28 1.51 0.48 1090
0.04 -0.00 3.11 -1.20 13.41 -4.28 1.62 0.60 1096
0.03 -0.00 2.79 -1.42 14.57 -4.28 1.69 0.65 1102
0.05 -0.00 2.66 -1.84 15.28 -4.28 1.77 0.70 1108
0.04 -0.00 2.51 -2.47 16.48 -4.28 1.86 0.73 1115
0.03 -0.00 2.12 -3.31 17.60 -4.28 1.94 0.73 1121
0.04 0.00 1.69 -4.13 18.49 -4.28 2.02 0.70 1128
0.05 -0.01 1.19 -4.96 18.93 -4.28 2.12 0.66 1134
0.05 -0.00 0.80 -5.77 18.99 -4.28 2.20 0.61 1140
0.05 -0.00 0.47 -6.24 19.17 -4.28 2.22 0.57 1146
0.05 -0.01 0.11 -6.58 19.63 -4.28 2.21 0.56 1153
0.05 -0.01 -0.12 -6.82 20.00 -4.28 2.19 0.58 1159
0.04 -0.00 -0.17 -7.19 20.19 -4.27 2.15 0.62 1166
0.05 -0.01 -0.08 -7.48 20.17 -4.24 2.09 0.69 1172
0.04 -0.00 0.04 -7.74 20.08 -4.17 2.01 0.81 1178
0.04 -0.00 0.20 -8.23 20.15 -4.07 1.89 0.95 1184
0.06 -0.01 0.30 -8.74 20.17 -3.93 1.76 1.11 1190
0.05 -0.00 0.45 -9.32 20.04 -3.75 1.61 1.29 1197
0.03 -0.00 0.50 -10.15 20.49 -3.62 1.48 1.45 1204
0.05 -0.01 0.43 -10.78 20.69 -3.44 1.39 1.60 1210
0.04 -0.00 0.12 -11.38 21.01 -3.27 1.35 1.71 1216
0.04 -0.00 -0.45 -11.84 21.10 -3.13 1.32 1.79 1222
0.06 -0.01 -1.35 -12.15 21.28 -3.02 1.28 1.82 1228
0.05 -0.00 -2.09 -12.36 21.48 -2.96 1.26 1.83 1235
0.04 -0.00 -2.76 -12.81 21.11 -2.94 1.20 1.82 1242
0.05 -0.00 -3.20 -13.78 20.29 -2.92 1.14 1.80 1248
0.04 -0.00 -3.57 -15.27 19.76 -2.85 1.03 1.76 1254
0.06 0.00 -3.60 -16.37 18.75 -2.83 0.85 1.69 1261
0.06 -0.01 -3.58 -18.07 17.09 -2.78 0.63 1.58 1267
0.05 -0.01 -3.41 -20.10 16.19 -2.71 0.40 1.42 1273
0.07 -0.01 -3.32 -22.12 14.51 -2.62 0.25 1.22 1280
0.05 -0.01 -3.31 -24.10 12.04 -2.52 0.30 0.99 1286
0.06 -0.01 -3.25 -25.98 8.99 -2.40 0.54 0.74 1293
0.06 -0.01 -3.57 -28.07 6.27 -2.19 0.89 0.49 1299
0.06 -0.01 -4.51 -30.10 4.12 -1.87 1.24 0.26 1305
0.06 -0.01 -5.74 -31.37 2.73 -1.46 1.49 0.07 1311
0.07 -0.01 -6.92 -31.43 2.02 -1.01 1.56 -0.08 1317
0.07 -0.01 -7.87 -29.89 2.28 -0.47 1.37 -0.20 1324
0.06 -0.01 -8.64 -27.29 3.56 -0.00 1.07 -0.31 1331
0.08 -0.01 -8.71 -43.06 7.60 0.45 0.38 -0.36 1337
0.06 -0.01 -7.92 -28.91 -0.55 2.60 -0.29 -0.37 1343
0.05 -0.01 -6.21 -21.18 5.28 2.78 -1.11 -0.40 1349
0.06 0.02 -4.83 -22.95 -1.89 2.82 -1.96 -0.57 1355
0.05 0.08 -3.10 -22.81 2.46 2.79 -2.88 -0.73 1362
0.04 0.22 1.17 3.08 2.44 2.88 -3.05 -0.72 1369
0.04 0.38 5.73 -3.79 13.38 3.35 -2.28 -0.51 1375
0.02 0.63 9.03 7.30 23.15 3.94 -1.42 -0.14 1381
0.01 0.87 3.55 -3.46 20.16 4.12 -1.11 0.20 1387
-0.01 1.14 -1.92 -5.38 25.65 4.23 -1.41 0.22 1394
-0.03 1.30 -0.44 -5.51 23.23 4.19 -1.51 0.13 1400
-0.02 1.41 0.68 -4.70 23.81 4.06 -1.23 0.16 1406
-0.01 1.42 -1.88 -3.35 23.14 3.62 -0.83 0.16 1413
-0.03 1.45 -2.59 -1.89 18.61 3.05 -0.78 -0.08 1420
-0.00 1.46 -0.14 -1.90 15.79 2.83 -0.81 -0.33 1426
-0.01 1.42 3.55 -2.43 21.63 2.81 -1.06 -0.39 1432
-0.01 1.39 3.46 -1.32 16.40 1.53 -1.68 -0.18 1438
-0.02 1.43 1.37 -2.41 13.11 0.62 -0.95 0.12 1445
-0.02 1.40 0.22 -2.05 11.42 0.22 -0.43 0.20 1452
0.00 1.38 -0.33 -1.04 10.32 0.04 -0.17 0.16 1458
-0.01 1.38 0.19 -0.89 10.21 -0.01 -0.10 0.09 1464
-0.00 1.39 0.72 -1.09 10.21 -0.03 -0.06 0.07 1470
-0.00 1.40 0.88 -1.23 10.06 -0.04 -0.05 0.08 1477
0.01 1.40 0.77 -1.01 9.88 -0.04 -0.05 0.08 1483
-0.03 1.44 0.51 -0.77 10.03 -0.05 -0.05 0.08 1489
0.01 1.48 0.66 -0.73 10.06 -0.05 -0.04 0.07 1496
0.01 1.42 0.71 -0.81 10.01 -0.05 -0.04 0.07 1502
-0.01 1.41 0.75 -0.80 10.06 -0.05 -0.03 0.07 1509
0.02 1.38 0.68 -0.71 10.02 -0.04 -0.03 0.07 1515
0.05 1.31 0.67 -0.71 9.98 -0.03 -0.02 0.07 1521
0.09 1.24 0.69 -0.72 10.04 -0.03 -0.01 0.06 1527
0.10 1.20 0.11 -0.81 10.04 -0.02 -0.01 0.07 1533
0.10 1.12 0.75 -0.72 10.06 -0.01 -0.00 0.07 1540
0.11 1.06 1.09 -0.97 9.81 0.00 -0.00 0.07 1547
0.14 1.01 0.76 -0.81 10.00 0.01 -0.00 0.10 1553
0.14 0.95 0.73 -0.76 9.98 0.02 -0.01 0.07 1559
0.13 0.89 0.77 -0.74 9.97 0.02 -0.01 0.07 1565
0.15 0.82 0.75 -0.74 10.04 0.03 -0.01 0.07 1571
0.16 0.75 0.77 -0.78 10.02 0.03 -0.01 0.07 1577
0.16 0.66 0.79 -0.81 9.96 0.03 -0.01 0.07 1585
0.21 0.58 0.78 -0.77 10.01 0.04 -0.01 0.07 1591
0.22 0.52 0.77 -0.80 10.01 0.04 -0.01 0.06 1597
0.22 0.47 0.80 -0.80 10.00 0.04 -0.01 0.06 1603
0.24 0.46 0.81 -0.80 9.95 0.03 -0.01 0.05 1609
0.25 0.41 0.42 -0.59 9.92 0.03 -0.00 0.06 1615
0.27 0.31 0.84 -0.87 9.99 0.03 -0.01 0.05 1623
0.26 0.30 0.80 -0.80 9.95 0.02 -0.01 0.04 1629
0.27 0.31 0.80 -0.75 10.00 0.02 -0.01 0.05 1635
0.27 0.26 0.77 -0.81 9.96 0.03 -0.01 0.04 1641
0.27 0.23 0.80 -0.83 9.95 0.03 -0.01 0.04 1647
0.27 0.22 0.78 -0.78 9.85 0.03 -0.00 0.04 1653
0.29 0.16 0.84 -0.82 9.94 0.03 -0.00 0.05 1659
0.30 0.12 0.76 -0.78 9.92 0.03 -0.00 0.05 1667
0.31 0.09 0.79 -0.81 9.93 0.03 -0.00 0.05 1673
0.32 0.08 0.81 -0.81 9.94 0.02 -0.00 0.05 1679
0.31 0.08 0.82 -0.86 9.93 0.02 -0.01 0.05 1685
0.29 0.08 0.83 -0.85 9.92 0.02 -0.01 0.05 1691
0.31 0.09 0.85 -0.85 9.99 0.02 -0.01 0.05 1697
0.32 0.08 0.86 -0.81 9.95 0.02 -0.02 0.05 1703
0.33 0.03 0.83 -0.88 9.92 0.01 -0.02 0.04 1710
0.34 0.03 0.85 -0.86 9.96 0.01 -0.03 0.04 1717
0.36 0.02 0.83 -0.85 9.97 0.01 -0.03 0.04 1723
0.33 0.02 0.86 -0.86 9.97 0.01 -0.04 0.03 1729
0.32 -0.00 0.85 -0.89 9.96 0.01 -0.04 0.03 1735
0.36 0.01 0.82 -0.89 9.94 0.01 -0.04 0.03 1741
0.40 0.00 0.88 -0.74 9.92 0.01 -0.05 0.03 1747
0.43 -0.01 0.79 -0.64 9.92 0.01 -0.04 0.02 1754
0.41 -0.01 0.83 -0.84 10.01 0.01 -0.04 0.02 1761
0.45 -0.01 0.76 -0.93 10.03 0.01 -0.04 0.02 1767
0.46 -0.02 0.82 -0.90 9.95 0.02 -0.03 0.02 1773
0.44 -0.01 0.82 -0.85 10.01 0.02 -0.03 0.02 1779
0.50 -0.02 0.81 -0.87 10.00 0.03 -0.02 0.01 1785
0.57 -0.03 0.85 -0.89 9.98 0.04 -0.02 0.02 1792
0.60 -0.03 0.83 -0.86 10.02 0.05 -0.02 0.02 1799
0.65 -0.03 0.87 -0.88 10.03 0.05 -0.02 0.02 1805
0.70 -0.04 0.88 -0.91 10.03 0.07 -0.01 0.01 1811
0.73 -0.04 0.83 -0.91 10.13 0.09 -0.01 0.01 1817
0.79 -0.03 0.84 -0.91 10.18 0.12 -0.01 0.01 1823
0.87 -0.04 0.93 -0.95 10.13 0.16 0.00 -0.00 1829
0.89 -0.06 0.88 -0.89 10.32 0.22 0.02 -0.02 1837
0.93 -0.03 0.98 -1.03 10.27 0.29 0.04 -0.07 1843
0.97 -0.05 0.92 -1.08 10.56 0.39 0.06 -0.05 1849
0.97 -0.05 0.88 -1.15 10.77 0.56 0.09 -0.06 1855
1.04 -0.05 1.10 -1.17 11.37 0.80 0.13 -0.08 1862
1.11 -0.05 1.08 -1.30 11.82 1.09 0.15 -0.10 1868
1.21 -0.05 1.12 -1.35 11.91 1.34 0.14 -0.12 1874
1.28 -0.06 1.10 -1.46 12.01 1.54 0.09 -0.13 1881
1.31 -0.06 1.09 -1.56 12.08 1.67 0.02 -0.14 1887
1.36 -0.05 0.96 -1.66 12.36 1.78 -0.06 -0.13 1894
1.41 -0.06 1.03 -1.70 12.13 1.89 -0.16 -0.13 1900
1.42 -0.07 0.93 -1.76 12.50 2.02 -0.25 -0.13 1906
1.43 -0.05 0.84 -1.91 12.79 2.18 -0.27 -0.12 1912
1.46 -0.06 0.95 -1.93 13.02 2.41 -0.30 -0.13 1920
1.47 -0.06 0.50 -2.19 12.86 2.57 -0.33 -0.13 1926
1.52 -0.07 1.03 -2.21 12.72 2.72 -0.32 -0.13 1932
1.49 -0.07 0.80 -2.54 12.97 2.88 -0.24 -0.15 1938
1.48 -0.04 0.95 -2.68 13.19 3.10 -0.17 -0.14 1944
1.46 -0.06 0.63 -2.79 13.86 3.36 -0.13 -0.13 1951
1.38 -0.04 0.40 -2.89 14.65 3.67 -0.08 -0.13 1957
1.36 -0.03 1.30 -3.19 15.57 4.01 -0.07 -0.12 1964
1.27 -0.05 2.30 -3.38 16.04 4.24 -0.12 -0.20 1970
1.18 -0.05 2.95 -3.51 16.45 4.28 -0.26 -0.33 1977
1.03 -0.05 2.70 -4.61 18.54 4.28 -0.38 -0.45 1983
0.91 -0.05 2.56 -5.13 20.56 4.28 -0.57 -0.56 1989
0.73 -0.03 2.85 -6.87 23.10 4.28 -0.71 -0.63 1995
0.67 -0.05 2.53 -7.77 25.21 4.28 -0.77 -0.69 2002
0.57 -0.04 3.61 -11.41 29.96 4.28 -0.80 -0.74 2009
0.52 -0.04 3.14 -12.43 32.32 4.28 -0.66 -0.74 2015
0.41 -0.03 4.09 -13.70 30.63 4.28 -0.40 -0.77 2021
0.32 0.00 3.03 -11.09 27.17 4.28 -0.23 -0.76 2028
0.26 -0.03 2.14 -8.60 24.84 4.28 0.09 -0.75 2034
0.24 -0.02 0.60 -6.59 27.77 4.28 0.28 -0.75 2040
0.21 -0.02 -0.47 -6.06 33.22 4.28 -0.04 -0.83 2046
0.18 -0.02 0.46 -4.77 33.80 4.28 -0.75 -0.93 2053
0.12 -0.01 3.04 -2.25 34.80 4.28 -1.46 -0.98 2060
0.11 -0.01 5.97 2.59 31.99 4.28 -1.77 -0.93 2066
0.09 -0.01 7.56 12.59 19.65 4.28 -1.66 -0.79 2072
0.06 -0.01 11.28 18.16 17.88 4.28 -1.38 -0.78 2078
0.05 -0.01 10.01 24.10 6.11 3.87 -0.64 -1.05 2084
0.05 -0.01 9.70 24.51 -9.25 2.56 -0.21 -1.84 2092
0.05 -0.00 6.27 16.40 19.95 1.87 0.17 -2.24 2098
0.06 -0.01 8.71 11.36 30.61 0.36 1.10 -2.29 2104
0.04 -0.00 7.29 12.80 25.11 -1.25 1.71 -2.28 2110
0.06 -0.01 3.99 14.17 17.27 -2.11 1.81 -2.26 2117
0.05 -0.01 2.05 13.92 13.30 -2.70 1.47 -2.12 2123
0.04 -0.00 1.88 12.43 10.68 -3.39 1.09 -1.86 2129
0.06 -0.01 1.91 10.36 10.13 -3.96 0.76 -1.61 2136
0.04 -0.00 2.29 8.41 9.34 -4.17 0.51 -1.36 2142
0.04 -0.00 2.43 6.72 9.01 -4.23 0.30 -1.15 2148
0.04 -0.00 2.46 5.50 8.38 -4.25 0.11 -0.95 2155
0.04 -0.00 2.81 4.65 7.78 -4.21 -0.02 -0.77 2161
0.04 -0.00 3.25 3.99 7.15 -4.23 -0.10 -0.63 2167
0.04 -0.00 3.60 3.61 6.66 -4.21 -0.12 -0.52 2173
0.05 -0.00 3.77 3.27 6.65 -4.21 -0.11 -0.41 2180
0.05 -0.00 3.88 3.02 7.19 -4.20 -0.07 -0.36 2186
0.05 -0.01 4.02 2.89 7.94 -4.20 0.02 -0.29 2192
0.04 -0.00 4.11 2.71 8.96 -4.22 0.14 -0.22 2198
0.04 -0.00 4.08 2.56 9.64 -4.24 0.33 -0.13 2204
0.05 -0.01 4.01 2.34 10.18 -4.27 0.54 -0.05 2211
0.06 -0.01 3.78 2.11 10.51 -4.28 0.70 0.03 2217
0.05 -0.00 3.39 1.59 11.03 -4.28 0.87 0.11 2224
0.05 -0.01 3.10 0.90 11.82 -4.28 1.00 0.19 2230
0.05 -0.00 2.75 0.41 12.76 -4.28 1.11 0.27 2236
0.05 -0.01 2.77 -0.23 13.09 -4.28 1.22 0.34 2242
0.07 -0.01 2.51 -0.78 13.75 -4.28 1.28 0.40 2249
0.06 -0.01 2.57 -1.35 14.67 -4.28 1.37 0.43 2255
0.06 -0.01 2.62 -1.93 15.65 -4.28 1.52 0.45 2262
0.08 -0.01 2.59 -2.52 16.80 -4.28 1.68 0.43 2268
0.06 -0.01 2.37 -3.23 17.96 -4.28 1.88 0.39 2274
0.06 -0.01 2.24 -4.04 18.93 -4.28 2.06 0.33 2280
0.07 -0.01 1.90 -5.03 19.59 -4.28 2.22 0.24 2287
0.06 -0.01 1.41 -5.84 20.79 -4.28 2.34 0.20 2293
0.04 -0.00 0.93 -6.68 20.60 -4.28 2.43 0.16 2299
0.06 -0.01 0.79 -7.69 20.82 -4.28 2.52 0.14 2306
0.05 -0.01 0.62 -8.93 21.01 -4.28 2.55 0.14 2312
0.06 -0.01 0.10 -10.03 20.83 -4.27 2.53 0.16 2318
0.06 -0.01 -0.24 -10.91 20.81 -4.16 2.47 0.20 2325
0.06 -0.01 -0.63 -11.83 20.89 -3.94 2.35 0.26 2331
0.05 -0.00 -0.75 -12.37 21.33 -3.64 2.15 0.33 2337
0.07 -0.01 -0.73 -12.55 22.02 -3.37 1.88 0.41 2343
0.06 -0.01 -0.56 -12.47 22.53 -3.20 1.59 0.50 2351
0.06 -0.01 -0.26 -12.69 22.86 -3.11 1.29 0.58 2357
0.07 -0.01 0.29 -13.10 22.60 -3.09 1.03 0.67 2363
0.06 -0.01 1.02 -13.56 21.99 -3.08 0.90 0.76 2369
0.06 -0.01 1.51 -14.23 20.92 -3.06 0.85 0.84 2375
0.06 -0.01 1.74 -14.95 19.34 -2.99 0.95 0.94 2382
0.05 -0.00 1.39 -15.48 17.85 -2.87 1.17 1.08 2388
0.06 0.00 0.80 -16.07 17.96 -2.75 1.48 1.26 2395
0.06 -0.01 -0.22 -16.65 17.55 -2.64 1.75 1.46 2401
0.05 -0.00 -1.49 -17.42 17.48 -2.58 1.95 1.69 2407
0.07 -0.01 -2.82 -18.76 17.24 -2.57 2.02 1.93 2414
0.05 -0.01 -4.61 -20.18 15.82 -2.59 1.96 2.17 2420
0.06 -0.01 -6.21 -21.70 13.81 -2.59 1.89 2.41 2426
0.06 -0.01 -7.54 -23.46 11.56 -2.52 1.74 2.62 2433
0.05 -0.01 -8.38 -26.09 7.99 -2.37 1.40 2.71 2440
0.06 0.00 -9.05 -28.62 5.37 -2.11 0.95 2.68 2446
0.06 -0.01 -8.98 -30.34 2.97 -1.74 0.52 2.53 2452
0.04 -0.00 -8.20 -30.61 1.62 -1.28 0.22 2.28 2458
0.05 -0.00 -7.27 -29.98 1.86 -0.92 0.06 1.92 2464
0.05 -0.00 -5.84 -34.18 -0.21 -0.49 -0.02 1.46 2471
0.04 -0.00 -11.41 -29.09 16.69 2.21 0.03 0.94 2478
0.05 -0.01 -8.01 -27.74 3.84 1.68 0.42 0.63 2484
0.05 -0.00 -5.99 -22.20 2.01 2.61 0.07 0.21 2490
0.06 0.01 -8.77 -28.18 2.43 2.43 -0.74 -0.01 2496
0.06 0.10 -9.04 -32.42 4.55 2.66 -2.10 -0.14 2502
0.05 0.26 -4.40 -6.79 -2.34 2.65 -2.84 -0.16 2509
0.02 0.38 2.35 -1.85 7.07 3.33 -2.20 -0.08 2515
0.03 0.64 7.62 3.37 21.85 4.26 -0.74 0.35 2522
0.01 0.98 1.13 -1.56 23.09 4.28 -0.41 0.61 2528
-0.01 1.25 -6.05 -5.07 27.79 4.28 -0.79 0.40 2534
0.01 1.41 -2.86 -6.10 28.85 4.28 -1.27 0.00 2541
-0.01 1.46 1.77 -5.73 22.66 4.18 -1.02 -0.10 2547
-0.01 1.51 -0.78 -3.98 23.17 3.87 -0.46 -0.05 2553
-0.02 1.57 -1.18 -2.50 19.92 3.32 -0.42 -0.23 2560
-0.02 1.53 2.04 -2.29 21.11 2.99 -0.66 -0.44 2567
-0.01 1.45 2.68 -2.32 23.45 1.76 -1.63 -0.37 2573
-0.01 1.49 2.74 -2.20 12.31 0.73 -1.10 -0.02 2579
0.00 1.43 0.59 -1.99 11.47 0.37 -0.67 0.14 2585
0.01 1.39 0.27 -1.05 10.71 0.18 -0.36 0.17 2592
-0.01 1.41 0.02 -0.72 10.50 0.06 -0.19 0.11 2598
0.01 1.42 0.43 -1.18 10.32 -0.00 -0.08 0.07 2605
0.01 1.43 0.85 -1.35 10.13 -0.02 -0.08 0.07 2611
0.02 1.39 0.91 -1.08 10.03 -0.03 -0.08 0.08 2617
0.02 1.42 0.66 -0.85 10.14 -0.03 -0.08 0.08 2624
0.01 1.42 0.64 -0.72 9.95 -0.03 -0.07 0.07 2630
0.02 1.43 0.77 -0.68 9.97 -0.03 -0.07 0.07 2636
0.01 1.44 0.83 -0.68 9.94 -0.03 -0.07 0.07 2642
0.03 1.37 0.82 -0.62 10.01 -0.02 -0.06 0.07 2649
0.04 1.31 0.77 -0.63 9.87 -0.01 -0.06 0.06 2655
0.04 1.29 0.79 -0.64 10.04 -0.01 -0.06 0.05 2662
0.05 1.19 0.62 -0.66 10.20 -0.00 -0.04 0.05 2668
0.04 1.12 0.68 -0.72 10.08 0.01 -0.04 0.05 2674
0.03 1.09 0.75 -0.68 10.09 0.01 -0.03 0.05 2680
0.07 0.93 0.74 -0.68 10.05 0.02 -0.02 0.05 2686
0.09 0.90 0.79 -0.77 10.05 0.02 -0.02 0.05 2693
0.10 0.82 0.75 -0.75 9.99 0.03 -0.02 0.06 2700
0.15 0.76 0.72 -0.73 10.02 0.04 -0.01 0.06 2706
0.14 0.66 0.78 -0.70 10.06 0.03 -0.01 0.05 2712
0.14 0.66 0.78 -0.74 10.01 0.04 -0.00 0.05 2718
0.18 0.57 0.95 -0.86 10.05 0.04 -0.00 0.06 2724
0.19 0.50 0.80 -0.74 10.05 0.04 -0.00 0.06 2732
0.19 0.47 0.86 -0.73 9.97 0.05 -0.00 0.05 2738
0.22 0.39 0.84 -0.76 9.93 0.05 -0.01 0.04 2744
0.22 0.35 0.87 -0.76 10.01 0.05 -0.01 0.04 2750
0.22 0.33 0.85 -0.80 9.92 0.04 -0.02 0.03 2756
0.25 0.26 0.89 -0.80 9.92 0.04 -0.03 0.03 2762
0.26 0.21 0.87 -0.75 9.93 0.03 -0.05 0.03 2768
0.28 0.20 0.81 -0.80 9.98 0.03 -0.06 0.03 2776
0.29 0.14 0.84 -0.78 9.99 0.03 -0.06 0.02 2782
0.31 0.12 0.84 -0.75 9.97 0.03 -0.07 0.01 2788
0.36 0.07 0.79 -0.79 10.00 0.04 -0.07 0.01 2794
0.37 0.04 0.75 -1.23 9.90 0.04 -0.07 0.01 2800
0.40 0.06 0.72 -0.86 10.05 0.04 -0.07 0.01 2806
0.45 0.05 0.74 -0.82 9.99 0.04 -0.06 0.01 2812
0.50 0.04 0.77 -0.79 9.99 0.05 -0.06 0.01 2820
0.51 0.01 0.82 -0.86 9.96 0.05 -0.07 0.00 2826
0.58 0.01 0.82 -0.91 10.13 0.05 -0.06 -0.00 2832
0.61 -0.02 0.82 -0.88 10.00 0.06 -0.06 -0.01 2838
0.67 -0.00 0.85 -0.87 9.98 0.06 -0.06 -0.02 2844
0.70 -0.02 0.83 -0.87 9.98 0.07 -0.06 -0.02 2850
0.69 -0.03 0.67 -0.89 10.02 0.07 -0.05 -0.03 2857
0.77 -0.03 0.83 -0.86 9.98 0.07 -0.05 -0.03 2864
0.77 -0.04 0.80 -0.83 9.96 0.08 -0.05 -0.03 2870
0.80 -0.04 0.78 -0.87 10.03 0.08 -0.05 -0.03 2876
0.82 -0.03 0.80 -0.90 9.97 0.08 -0.04 -0.03 2882
0.85 -0.02 0.78 -0.91 10.01 0.09 -0.03 -0.04 2888
0.87 -0.04 0.84 -0.91 10.02 0.10 -0.03 -0.04 2895
0.89 -0.05 0.81 -0.94 9.97 0.11 -0.03 -0.04 2902
0.95 -0.02 0.79 -0.97 9.98 0.11 -0.03 -0.04 2908
0.99 -0.05 0.74 -1.02 9.95 0.11 -0.02 -0.04 2914
1.01 -0.06 0.72 -0.98 9.99 0.11 -0.02 -0.04 2920
1.04 -0.05 0.79 -0.95 10.00 0.11 -0.02 -0.03 2926
1.09 -0.06 0.78 -1.01 10.07 0.13 -0.02 -0.02 2933
1.12 -0.05 0.84 -1.00 10.01 0.14 -0.02 -0.02 2939
1.16 -0.04 0.79 -0.98 10.06 0.15 -0.02 -0.02 2946
1.19 -0.06 0.81 -1.04 10.12 0.18 -0.02 -0.02 2952
1.21 -0.06 0.83 -1.03 10.23 0.22 -0.02 -0.02 2958
1.26 -0.04 0.91 -1.09 10.35 0.30 -0.03 -0.03 2965
1.33 -0.06 0.93 -1.21 10.49 0.40 -0.03 -0.03 2971
1.37 -0.05 0.95 -1.22 10.44 0.52 -0.04 -0.04 2977
1.44 -0.06 1.02 -1.34 10.94 0.68 -0.04 -0.06 2983
1.48 -0.06 1.04 -1.36 11.32 0.85 -0.06 -0.08 2991
1.58 -0.06 1.20 -1.44 11.52 1.02 -0.09 -0.10 2997
1.62 -0.06 1.21 -1.54 11.85 1.18 -0.12 -0.13 3003
1.63 -0.07 1.06 -1.59 11.84 1.32 -0.16 -0.16 3009
1.68 -0.05 1.16 -1.65 11.94 1.46 -0.21 -0.17 3015
1.77 -0.06 1.02 -1.72 12.49 1.55 -0.25 -0.17 3022
1.83 -0.08 0.88 -1.76 12.38 1.69 -0.30 -0.17 3028
1.83 -0.06 0.75 -1.92 12.71 1.83 -0.32 -0.16 3035
1.87 -0.07 1.14 -1.91 12.39 2.00 -0.37 -0.14 3041
1.88 -0.06 0.88 -2.21 13.17 2.17 -0.38 -0.13 3048
1.90 -0.08 0.50 -1.64 12.89 2.36 -0.34 -0.11 3054
1.91 -0.07 0.39 -2.30 12.84 2.54 -0.33 -0.10 3060
1.92 -0.07 0.62 -3.25 12.85 2.67 -0.28 -0.11 3066
1.92 -0.06 0.76 -3.04 13.22 2.88 -0.23 -0.13 3074
1.94 -0.06 0.68 -2.61 13.49 3.14 -0.20 -0.14 3080
1.93 -0.06 0.87 1.85 13.26 3.40 -0.18 -0.19 3086
1.84 -0.08 0.86 -3.09 14.34 3.71 -0.19 -0.20 3092
1.78 -0.07 0.52 -2.96 14.59 4.04 -0.24 -0.22 3098
1.67 -0.08 1.25 -3.32 15.90 4.25 -0.34 -0.23 3105
1.50 -0.07 2.78 -3.54 16.22 4.28 -0.43 -0.32 3111
1.41 -0.06 3.50 -4.28 17.32 4.28 -0.61 -0.48 3118
1.23 -0.06 3.42 -4.50 18.42 4.28 -0.76 -0.65 3124
1.11 -0.05 3.00 -6.62 21.03 4.28 -0.99 -0.79 3131
1.02 -0.05 2.74 -9.36 24.37 4.28 -1.10 -0.91 3137
0.91 -0.05 2.17 -12.21 29.33 4.28 -1.09 -0.98 3143
0.76 -0.03 2.66 -15.06 32.08 4.28 -0.95 -0.95 3149
0.65 -0.03 4.26 -16.85 31.33 4.28 -0.61 -0.89 3156
0.55 -0.02 3.94 -14.25 28.56 4.28 -0.30 -0.91 3163
0.41 -0.02 2.84 -11.01 27.43 4.28 -0.03 -0.94 3169
0.34 -0.02 2.05 -7.55 28.72 4.28 0.15 -0.99 3176
0.26 -0.03 1.11 -4.53 31.28 4.28 0.01 -1.06 3182
0.19 -0.02 1.84 -2.78 30.84 4.28 -0.43 -1.15 3188
0.14 -0.01 4.86 0.22 31.32 4.28 -0.98 -1.24 3194
0.15 -0.02 7.17 4.07 32.95 4.28 -1.21 -1.28 3201
0.09 -0.01 9.21 8.56 28.90 4.28 -1.09 -1.25 3207
0.07 -0.01 12.89 19.17 26.79 4.28 -0.76 -1.30 3214
0.08 -0.01 9.45 19.80 15.43 4.27 -0.20 -1.61 3220
0.06 -0.01 9.88 23.57 -8.26 3.45 -0.00 -2.16 3226
0.06 -0.01 6.90 21.74 15.29 2.15 -0.06 -2.45 3232
0.07 -0.01 9.31 17.58 31.86 0.30 0.80 -2.30 3238
0.07 -0.01 7.89 15.35 27.98 -1.65 1.32 -1.97 3246
0.06 0.00 4.22 15.47 18.54 -2.78 1.24 -1.67 3252
0.06 -0.01 2.75 14.29 11.81 -3.40 0.81 -1.40 3258
0.06 -0.00 2.59 12.23 12.55 -3.99 0.37 -1.06 3264
0.07 -0.00 2.90 10.48 11.33 -4.25 0.04 -0.78 3271
0.07 -0.01 3.65 8.94 9.94 -4.28 -0.14 -0.59 3277
0.06 -0.01 4.22 7.33 9.09 -4.28 -0.19 -0.45 3283
0.06 -0.01 4.40 5.88 8.42 -4.28 -0.13 -0.34 3290
0.08 -0.01 4.66 4.84 7.91 -4.28 0.02 -0.25 3296
0.07 -0.01 4.99 3.98 7.83 -4.28 0.25 -0.18 3302
0.06 -0.01 5.30 3.49 8.15 -4.28 0.47 -0.15 3308
0.07 -0.01 5.30 3.14 8.65 -4.28 0.74 -0.13 3315
0.06 -0.01 4.99 3.09 9.57 -4.28 1.01 -0.11 3321
0.06 -0.01 4.33 3.04 10.38 -4.28 1.24 -0.07 3328
0.06 -0.00 3.59 2.81 11.06 -4.28 1.44 -0.01 3334
0.06 -0.01 2.87 2.33 11.45 -4.28 1.58 0.06 3340
0.07 -0.01 2.32 1.50 12.01 -4.28 1.66 0.14 3346
0.07 -0.01 1.90 0.58 12.53 -4.28 1.69 0.22 3352
0.07 -0.01 1.83 -0.28 13.09 -4.28 1.69 0.28 3359
0.06 -0.01 1.69 -1.72 13.36 -4.28 1.69 0.32 3365
0.07 -0.01 1.74 -1.86 13.80 -4.28 1.69 0.35 3372
0.08 -0.01 1.61 -2.63 14.71 -4.28 1.75 0.36 3378
0.07 -0.01 1.48 -3.15 14.73 -4.28 1.86 0.37 3384
0.06 -0.01 1.39 -3.61 15.68 -4.28 2.04 0.36 3391
0.08 -0.01 1.18 -4.23 16.85 -4.28 2.24 0.33 3397
0.06 -0.01 0.63 -4.81 18.01 -4.28 2.45 0.27 3403
0.06 -0.01 -0.04 -5.35 18.94 -4.28 2.62 0.19 3409
0.07 -0.01 -0.87 -5.88 19.60 -4.28 2.71 0.10 3416
0.07 -0.01 -1.62 -6.17 20.29 -4.28 2.68 0.05 3422
0.05 -0.01 -2.18 -6.32 20.50 -4.28 2.64 0.03 3429
0.06 0.00 -2.45 -6.57 20.21 -4.27 2.50 0.05 3435
0.06 -0.01 -2.40 -6.85 20.11 -4.24 2.33 0.09 3441
0.05 -0.01 -2.20 -7.12 19.96 -4.18 2.14 0.16 3447
0.06 -0.00 -1.97 -7.43 19.96 -4.08 1.94 0.26 3453
0.06 -0.01 -1.70 -7.82 20.36 -3.92 1.74 0.39 3460
0.06 -0.01 -1.37 -8.21 20.66 -3.74 1.56 0.52 3467
0.06 0.00 -1.08 -8.74 20.91 -3.56 1.37 0.66 3473
0.07 -0.01 -0.78 -9.39 21.12 -3.41 1.15 0.81 3479
0.06 -0.01 -0.40 -9.92 21.56 -3.30 0.94 0.96 3485
0.07 0.00 0.01 -10.57 21.83 -3.21 0.79 1.10 3491
0.07 -0.01 0.54 -11.42 21.79 -3.14 0.75 1.24 3499
0.06 -0.01 0.99 -12.31 21.77 -3.10 0.79 1.34 3505
0.08 -0.01 1.25 -13.42 21.28 -3.08 0.92 1.42 3511
0.06 -0.01 1.52 -14.72 20.66 -3.06 1.07 1.48 3517
0.06 -0.01 1.28 -15.68 19.68 -3.03 1.30 1.54 3523
0.08 -0.01 0.27 -16.61 18.81 -2.96 1.57 1.63 3530
0.07 -0.01 -0.95 -17.69 17.86 -2.88 1.84 1.73 3536
0.07 -0.01 -2.04 -19.06 16.93 -2.77 1.96 1.76 3543
0.08 -0.01 -3.29 -20.82 15.85 -2.68 1.91 1.78 3549
0.06 -0.01 -4.35 -22.64 14.60 -2.57 1.75 1.77 3556
0.08 -0.01 -5.54 -24.63 12.44 -2.46 1.53 1.70 3562
0.07 -0.01 -5.15 -26.08 10.15 -2.33 1.35 1.59 3568
0.07 -0.01 -5.50 -27.87 7.49 -2.15 1.22 1.44 3574
0.08 -0.01 -5.52 -29.49 5.39 -1.90 1.12 1.23 3580
0.07 -0.01 -5.84 -30.71 3.65 -1.56 1.05 0.99 3588
0.06 -0.01 -5.96 -30.75 2.58 -1.15 1.00 0.72 3594
0.07 -0.01 -6.06 -29.66 2.54 -0.71 0.91 0.45 3600
0.07 -0.01 -6.27 -27.57 3.45 -0.33 0.73 0.20 3606
0.05 -0.01 -8.68 -41.55 2.67 0.14 0.13 0.08 3612
0.07 -0.00 -13.89 -28.26 -1.11 2.52 -0.61 0.16 3619
0.06 -0.01 -8.37 -18.97 5.43 2.62 -0.95 0.14 3625
0.06 -0.01 -5.79 -19.41 -0.34 2.74 -1.67 0.14 3632
0.07 0.09 -4.94 -29.02 2.31 2.55 -2.68 0.17 3638
0.06 0.22 -7.36 -5.46 -2.74 2.58 -3.46 0.30 3644
0.03 0.40 3.04 1.65 5.72 3.05 -2.54 0.46 3650
0.03 0.65 6.66 1.58 20.92 4.11 -1.00 0.84 3657
0.02 0.88 0.35 0.73 20.55 4.28 -0.54 1.12 3663
-0.00 1.16 -6.17 -1.60 25.94 4.28 -0.96 0.92 3670
0.01 1.39 -5.21 -6.26 27.74 4.28 -1.23 0.56 3676
-0.01 1.50 -2.81 -6.37 24.78 4.26 -0.96 0.35 3683
-0.01 1.56 -4.36 -3.82 23.45 4.04 -0.49 0.10 3689
-0.02 1.56 -3.00 -2.39 20.06 3.48 -0.57 -0.32 3695
-0.03 1.53 1.99 -2.07 17.45 3.15 -0.70 -0.59 3701
0.00 1.53 6.38 -3.01 20.99 3.03 -0.99 -0.50 3707
-0.01 1.51 4.17 -1.71 18.41 1.98 -2.07 -0.14 3715
-0.01 1.47 1.91 -2.45 13.64 1.02 -1.59 0.20 3721
0.00 1.49 -0.27 -1.64 12.63 0.52 -0.92 0.24 3727
-0.01 1.47 -0.16 -0.98 10.97 0.21 -0.45 0.15 3733
-0.01 1.54 0.47 -1.02 10.48 0.05 -0.21 0.07 3740
-0.01 1.52 0.89 -1.49 9.93 -0.00 -0.15 0.06 3746
-0.02 1.50 1.05 -1.37 10.21 -0.01 -0.11 0.08 3752
0.01 1.51 0.79 -0.97 10.10 -0.01 -0.10 0.09 3759
0.02 1.54 0.54 -0.80 10.15 -0.02 -0.09 0.08 3765
-0.01 1.54 0.65 -0.85 10.01 -0.02 -0.07 0.06 3772
0.03 1.51 0.80 -0.80 9.96 -0.02 -0.07 0.07 3778
0.02 1.48 0.73 -0.77 9.94 -0.02 -0.07 0.07 3784
-0.00 1.44 0.71 -0.76 10.05 -0.01 -0.07 0.07 3790
0.02 1.41 0.68 -0.82 9.86 -0.01 -0.07 0.07 3796
0.01 1.36 0.75 -0.97 10.00 -0.02 -0.06 0.06 3803
0.02 1.32 -1.17 -1.67 9.78 -0.00 -0.06 0.06 3810
0.02 1.26 0.06 -0.77 10.04 0.01 -0.04 0.06 3816
0.05 1.21 0.71 -0.79 10.06 0.01 -0.03 0.05 3822
0.06 1.12 0.71 -0.77 10.00 0.02 -0.02 0.06 3828
0.09 0.97 0.75 -0.75 10.03 0.03 -0.01 0.06 3834
0.10 0.92 0.71 -0.75 9.98 0.03 -0.01 0.06 3841
0.13 0.80 0.82 -0.89 10.12 0.04 -0.00 0.06 3848
0.14 0.81 0.72 -0.78 9.97 0.05 -0.00 0.07 3854
0.17 0.72 0.77 -0.82 9.97 0.05 -0.00 0.06 3860
0.17 0.61 0.95 -1.04 10.07 0.05 -0.00 0.06 3866
0.17 0.53 0.81 -0.83 9.92 0.05 -0.00 0.06 3872
0.22 0.50 0.78 -0.82 9.96 0.05 -0.01 0.06 3878
0.21 0.39 0.85 -0.82 9.91 0.05 -0.01 0.05 3886
0.23 0.31 0.83 -0.84 10.00 0.05 -0.01 0.05 3892
0.24 0.30 0.78 -1.01 9.88 0.04 -0.02 0.04 3898
0.25 0.23 0.86 -0.88 9.96 0.04 -0.02 0.04 3904
0.28 0.17 0.80 -0.88 9.95 0.04 -0.02 0.03 3910
0.28 0.15 0.81 -0.87 9.97 0.03 -0.02 0.03 3916
0.31 0.14 0.85 -0.94 10.02 0.03 -0.03 0.03 3922
0.29 0.13 0.76 -0.88 9.95 0.03 -0.03 0.03 3930
0.29 0.12 0.71 -0.88 10.06 0.03 -0.03 0.03 3936
0.33 0.10 0.74 -0.85 10.02 0.03 -0.03 0.03 3942
0.31 0.05 0.79 -0.90 9.94 0.03 -0.03 0.03 3948
0.33 0.06 0.79 -0.94 9.99 0.03 -0.03 0.04 3954
0.36 0.06 0.79 -0.86 9.94 0.03 -0.03 0.03 3960
0.38 0.03 0.82 -0.90 9.90 0.03 -0.03 0.03 3968
0.40 0.02 0.82 -0.91 9.95 0.03 -0.03 0.02 3974
0.42 -0.01 0.87 -0.91 10.00 0.04 -0.03 0.02 3980
0.45 -0.01 0.80 -0.95 10.08 0.03 -0.03 0.01 3986
0.44 -0.02 0.82 -0.84 9.92 0.04 -0.03 0.01 3992
0.46 -0.01 0.81 -0.93 9.91 0.04 -0.03 0.00 3998
0.50 0.01 0.76 -0.95 10.01 0.04 -0.03 0.00 4004
0.53 -0.03 0.80 -0.95 9.96 0.04 -0.03 0.00 4012
0.55 -0.04 0.83 -1.00 10.01 0.04 -0.02 -0.00 4018
0.59 -0.03 0.82 -0.92 10.00 0.05 -0.02 -0.00 4024
0.64 -0.04 0.80 -0.98 10.02 0.05 -0.02 -0.01 4030
0.67 -0.02 0.76 -0.99 10.01 0.05 -0.01 -0.00 4036
0.70 -0.02 0.74 -0.95 10.00 0.06 -0.01 -0.00 4043
0.73 -0.04 0.76 -0.94 10.02 0.07 -0.01 0.00 4049
0.75 -0.05 0.82 -1.00 10.05 0.07 -0.01 0.01 4056
0.78 -0.04 0.86 -1.01 10.05 0.09 -0.01 0.01 4062
0.82 -0.05 0.80 -1.01 10.10 0.11 -0.02 0.01 4068
0.85 -0.05 0.86 -1.05 10.11 0.14 -0.01 -0.00 4074
0.92 -0.04 0.88 -1.01 10.10 0.17 -0.01 -0.00 4081
0.97 -0.05 0.92 -1.01 10.10 0.20 -0.00 -0.01 4087
1.03 -0.05 1.01 -1.16 10.23 0.26 0.01 -0.02 4093
1.09 -0.06 0.94 -1.12 10.46 0.36 0.03 -0.04 4100
1.12 -0.05 1.03 -1.14 10.69 0.50 0.05 -0.05 4106
1.19 -0.06 1.03 -1.32 10.99 0.68 0.08 -0.08 4113
1.24 -0.05 1.13 -1.38 11.14 0.90 0.09 -0.11 4119
1.30 -0.06 1.20 -1.50 11.80 1.12 0.08 -0.14 4125
1.33 -0.06 1.01 -1.48 11.67 1.33 0.04 -0.16 4131
1.39 -0.05 1.23 -1.69 12.12 1.50 -0.03 -0.18 4139
1.48 -0.08 1.29 -1.64 12.12 1.61 -0.11 -0.19 4145
1.55 -0.06 1.25 -1.78 12.32 1.72 -0.18 -0.20 4151
1.59 -0.08 1.04 -1.79 12.68 1.85 -0.26 -0.21 4157
1.63 -0.06 1.07 -1.83 13.24 2.01 -0.30 -0.20 4163
1.67 -0.06 0.66 -1.88 13.15 2.20 -0.31 -0.20 4170
1.68 -0.07 1.75 -1.10 12.05 2.37 -0.27 -0.25 4176
1.76 -0.06 0.43 -2.29 12.68 2.62 -0.31 -0.21 4183
1.79 -0.07 0.77 -2.24 13.45 2.80 -0.31 -0.20 4189
1.76 -0.07 0.89 -2.41 12.58 2.99 -0.30 -0.21 4196
1.76 -0.06 0.89 -3.06 13.06 3.18 -0.22 -0.21 4202
1.72 -0.07 0.74 -2.63 13.85 3.39 -0.09 -0.23 4208
1.70 -0.07 0.78 -2.96 14.29 3.66 -0.06 -0.27 4214
1.59 -0.05 0.33 -3.18 14.77 4.00 -0.02 -0.23 4221
1.51 -0.05 0.63 -2.92 15.98 4.23 -0.04 -0.22 4228
1.42 -0.06 1.77 -3.57 17.54 4.28 -0.06 -0.24 4234
1.28 -0.05 2.77 -4.16 17.65 4.28 -0.17 -0.34 4240
1.07 -0.04 2.83 -5.17 19.15 4.28 -0.33 -0.47 4246
0.89 -0.04 2.57 -6.77 22.28 4.28 -0.53 -0.56 4253
0.78 -0.05 2.44 -8.84 24.62 4.28 -0.65 -0.63 4259
0.64 -0.04 2.20 -11.59 30.25 4.28 -0.65 -0.66 4265
0.61 -0.04 2.93 -14.65 33.02 4.28 -0.46 -0.59 4273
0.48 -0.03 3.07 -13.14 31.50 4.28 -0.22 -0.58 4279
0.38 -0.02 3.42 -13.26 28.60 4.28 -0.00 -0.58 4285
0.34 -0.03 2.70 -10.61 26.91 4.28 0.25 -0.58 4291
0.22 -0.01 1.33 -7.36 29.73 4.28 0.50 -0.61 4298
0.23 -0.02 1.84 -6.70 34.45 4.28 0.27 -0.74 4304
0.18 -0.02 3.73 -3.87 33.48 4.28 -0.28 -0.88 4311
0.15 -0.01 6.38 0.38 34.09 4.28 -0.71 -0.97 4317
0.08 -0.01 8.09 4.85 33.29 4.28 -0.74 -1.01 4323
0.08 -0.01 8.76 14.23 22.56 4.28 -0.40 -0.95 4330
0.06 -0.01 11.56 21.55 18.76 4.28 0.06 -1.09 4336
0.05 -0.00 7.17 25.15 5.41 4.06 0.59 -1.58 4342
0.05 -0.00 7.42 25.45 -4.68 2.64 0.49 -2.36 4348
0.06 -0.01 6.23 18.41 23.87 1.36 0.67 -2.63 4355
0.06 -0.01 8.09 15.13 33.22 -0.50 1.30 -2.52 4362
0.05 -0.01 5.65 15.44 25.63 -2.14 1.67 -2.46 4368
0.06 -0.01 2.50 15.97 16.60 -3.02 1.41 -2.36 4374
0.05 -0.01 0.76 14.57 13.22 -3.62 0.84 -2.17 4380
0.06 -0.01 0.88 12.27 12.72 -4.18 0.34 -1.91 4386
0.06 0.00 1.74 10.24 11.02 -4.28 -0.00 -1.68 4393
0.04 -0.00 2.68 8.38 10.20 -4.28 -0.22 -1.51 4400
0.05 -0.00 3.22 6.71 9.74 -4.28 -0.34 -1.37 4406
0.05 -0.01 3.58 5.29 9.27 -4.28 -0.38 -1.24 4412
0.05 -0.01 4.10 4.12 8.59 -4.28 -0.35 -1.13 4418
0.07 -0.00 4.76 3.19 8.20 -4.28 -0.25 -1.05 4424
0.07 -0.01 5.12 2.71 7.79 -4.28 -0.10 -0.99 4431
0.06 -0.01 5.15 2.55 7.77 -4.28 0.04 -0.92 4438
0.05 -0.01 5.03 2.41 8.05 -4.28 0.24 -0.81 4444
0.07 -0.00 4.97 2.19 8.62 -4.28 0.43 -0.74 4450
0.09 -0.01 4.84 1.86 9.41 -4.28 0.62 -0.62 4456
0.08 -0.01 4.78 1.44 10.36 -4.28 0.83 -0.47 4462
0.06 -0.01 3.93 2.05 11.12 -4.28 0.89 -0.30 4468
0.07 -0.01 4.15 1.04 12.55 -4.28 1.15 -0.11 4475
0.06 -0.01 4.68 -0.12 13.53 -4.28 1.28 0.07 4482
0.05 -0.01 3.76 -0.18 13.94 -4.28 1.48 0.27 4488
0.06 -0.01 3.86 -0.75 13.82 -4.28 1.68 0.43 4494
0.05 -0.00 3.44 -1.07 14.00 -4.28 1.84 0.54 4500
0.04 -0.00 3.37 -1.89 14.31 -4.28 1.95 0.64 4506
0.05 0.00 3.27 -2.79 15.49 -4.28 2.00 0.68 4513
0.05 -0.00 2.93 -3.81 16.52 -4.28 2.04 0.68 4519
0.03 -0.00 2.28 -5.07 17.61 -4.28 2.05 0.62 4526
0.05 0.00 1.91 -6.24 18.37 -4.28 2.12 0.53 4532
0.05 -0.00 1.67 -7.16 18.75 -4.28 2.20 0.42 4538
0.05 -0.00 1.18 -7.43 18.33 -4.25 2.26 0.33 4544
0.05 -0.01 0.89 -7.50 18.27 -4.16 2.26 0.27 4551
0.05 -0.01 0.51 -7.57 18.90 -4.00 2.23 0.25 4557
0.05 -0.00 0.25 -7.21 19.93 -3.80 2.18 0.28 4563
0.05 -0.01 0.30 -6.86 20.88 -3.64 2.12 0.34 4570
0.06 -0.01 0.47 -6.54 22.21 -3.56 2.03 0.41 4576
0.05 -0.00 0.78 -6.47 23.33 -3.55 1.95 0.49 4582
0.05 -0.01 1.12 -6.83 24.16 -3.60 1.86 0.59 4589
0.07 -0.01 1.46 -7.55 24.53 -3.68 1.81 0.68 4595
0.05 -0.01 1.79 -8.46 24.23 -3.75 1.78 0.78 4601
0.04 -0.00 1.96 -9.77 23.81 -3.81 1.81 0.88 4608
0.06 -0.00 1.83 -11.04 22.96 -3.83 1.87 0.98 4614
0.05 -0.01 1.51 -12.25 22.19 -3.77 1.99 1.09 4621
0.05 -0.01 0.85 -13.04 21.64 -3.67 2.04 1.21 4627
0.06 -0.01 0.06 -14.11 21.29 -3.51 2.09 1.33 4633
0.06 -0.01 -0.96 -15.00 20.75 -3.36 2.09 1.48 4639
0.06 -0.00 -2.43 -15.86 19.86 -3.23 2.06 1.62 4645
0.07 -0.01 -3.92 -16.55 18.79 -3.12 2.04 1.77 4653
0.06 -0.01 -5.21 -17.84 18.64 -3.03 2.10 1.88 4659
0.08 -0.01 -5.93 -19.97 18.02 -2.95 2.01 1.94 4665
0.07 -0.01 -6.54 -22.89 16.52 -2.86 1.69 1.90 4671
0.06 -0.01 -6.62 -25.81 14.09 -2.72 1.31 1.81 4678
0.08 -0.01 -6.18 -28.36 10.66 -2.49 0.98 1.66 4684
0.07 -0.01 -5.75 -30.62 7.65 -2.17 0.79 1.44 4690
0.07 0.00 -5.52 -32.58 5.29 -1.79 0.74 1.17 4697
0.07 -0.01 -5.55 -33.72 3.83 -1.38 0.81 0.87 4703
0.06 -0.01 -6.10 -33.79 3.28 -0.93 0.91 0.58 4710
0.06 0.01 -6.67 -32.53 3.54 -0.48 0.93 0.32 4716
0.06 -0.01 -6.98 -30.30 4.20 -0.00 0.80 0.11 4722
0.06 -0.01 -6.73 -27.70 4.99 0.31 0.49 -0.04 4728
0.06 -0.01 -6.62 -40.92 -9.01 0.67 0.10 -0.03 4734
0.06 -0.01 -10.82 -30.86 -5.66 3.43 -1.32 0.37 4741
0.06 -0.01 -7.76 -18.41 5.97 3.17 -1.77 0.55 4748
0.05 -0.00 -3.89 -20.28 0.22 3.33 -2.65 0.79 4754
0.05 0.11 1.56 -20.91 3.33 3.10 -3.47 0.98 4760
0.03 0.31 2.06 0.16 6.17 3.05 -3.28 1.29 4766
0.03 0.45 4.71 3.42 14.84 3.63 -1.52 1.90 4772
0.02 0.75 2.49 4.79 15.93 4.19 -0.02 2.45 4780
0.01 1.02 -8.07 -3.97 22.48 4.28 -0.41 2.33 4786
-0.00 1.32 -14.78 -6.73 29.46 4.28 -1.09 1.63 4792
-0.02 1.47 -10.60 -7.18 26.61 4.28 -1.36 0.89 4798
-0.02 1.57 -6.91 -5.41 26.33 4.27 -0.75 0.36 4805
-0.01 1.60 -7.14 -2.99 24.27 3.93 -0.38 -0.21 4811
-0.03 1.61 -1.30 -2.20 18.95 3.30 -0.41 -0.76 4817
0.01 1.58 5.83 -2.61 19.64 3.14 -0.50 -0.85 4824
-0.00 1.54 5.05 -1.83 24.75 1.87 -1.95 -0.47 4831
-0.00 1.52 3.81 -3.03 12.26 0.77 -1.44 0.10 4837
0.02 1.54 0.01 -1.82 12.71 0.39 -0.83 0.27 4843
0.00 1.54 -0.93 -0.45 10.91 0.13 -0.38 0.20 4849
-0.01 1.49 -0.43 -0.84 10.50 0.03 -0.16 0.07 4856
-0.02 1.54 0.81 -1.36 10.24 -0.02 -0.11 0.03 4862
-0.01 1.52 1.30 -1.33 10.12 -0.03 -0.10 0.06 4869
0.01 1.57 0.82 -0.82 9.83 -0.04 -0.11 0.07 4875
0.01 1.57 0.38 -0.60 10.05 -0.05 -0.11 0.05 4881
-0.01 1.57 0.56 -0.73 10.07 -0.06 -0.09 0.04 4888
0.02 1.55 0.75 -0.74 9.96 -0.06 -0.09 0.04 4894
0.02 1.54 0.75 -0.62 10.12 -0.05 -0.09 0.05 4900
-0.01 1.50 0.71 -0.58 10.04 -0.04 -0.09 0.04 4907
0.04 1.44 0.68 -0.65 9.96 -0.03 -0.08 0.03 4913
0.02 1.40 0.69 -0.69 10.06 -0.02 -0.07 0.03 4919
0.02 1.35 0.69 -0.65 10.11 -0.01 -0.06 0.03 4926
0.05 1.27 0.66 -0.65 10.20 0.00 -0.05 0.03 4932
0.06 1.17 0.67 -0.65 10.08 0.01 -0.05 0.04 4938
0.07 1.13 0.63 -0.65 10.07 0.02 -0.05 0.04 4944
0.08 1.03 0.65 -0.67 10.07 0.03 -0.05 0.04 4951
0.11 0.91 0.67 -0.59 10.07 0.03 -0.05 0.04 4958
0.15 0.82 0.64 -0.63 10.11 0.04 -0.05 0.04 4964
0.19 0.71 0.72 -0.59 9.99 0.05 -0.05 0.04 4970
0.19 0.62 0.85 -0.77 9.99 0.05 -0.05 0.00 4976
0.23 0.51 0.79 -0.66 10.04 0.05 -0.06 0.03 4982
0.30 0.46 0.77 -0.72 9.99 0.06 -0.07 0.02 4988
0.32 0.38 0.80 -0.78 10.02 0.06 -0.07 0.01 4996
0.29 0.33 0.61 -0.65 9.97 0.05 -0.07 0.01 5002
0.34 0.27 0.82 -0.95 10.16 0.05 -0.06 0.01 5008
0.37 0.21 0.74 -0.71 10.02 0.05 -0.06 0.00 5014
0.41 0.15 0.64 -0.79 9.98 0.05 -0.07 -0.00 5020
0.46 0.14 1.21 -0.74 10.08 0.05 -0.07 -0.01 5027
0.47 0.12 0.54 -0.76 10.01 0.06 -0.07 -0.00 5033
0.47 0.11 0.64 -0.48 10.14 0.06 -0.07 -0.00 5040
0.52 0.09 0.56 -0.79 9.92 0.07 -0.07 -0.00 5046
0.55 0.07 0.62 -0.78 10.04 0.07 -0.08 0.01 5052
0.62 0.03 0.65 -0.78 10.03 0.08 -0.08 0.01 5058
0.64 0.02 0.64 -0.82 10.01 0.09 -0.08 0.01 5065
0.71 0.02 0.68 -0.78 10.00 0.09 -0.09 0.01 5071
0.74 -0.02 0.70 -0.90 9.96 0.09 -0.08 0.01 5078
0.79 -0.01 0.72 -0.88 10.03 0.10 -0.08 -0.00 5084
0.79 -0.00 0.72 -0.85 10.08 0.11 -0.08 -0.01 5090
0.85 -0.02 0.71 -0.89 9.98 0.12 -0.08 -0.02 5096
0.87 -0.01 0.70 -0.91 9.95 0.12 -0.08 -0.03 5103
0.94 -0.04 0.68 -0.93 10.03 0.13 -0.07 -0.03 5109
0.95 -0.06 0.67 -0.92 10.04 0.14 -0.06 -0.03 5115
1.02 -0.05 0.66 -0.91 10.06 0.15 -0.07 -0.04 5122
1.08 -0.05 0.68 -0.91 10.07 0.16 -0.07 -0.04 5128
1.10 -0.07 0.68 -0.96 10.11 0.17 -0.07 -0.05 5135
1.13 -0.05 0.74 -1.03 10.15 0.19 -0.06 -0.06 5141
1.16 -0.06 0.75 -1.00 10.08 0.22 -0.06 -0.07 5147
1.21 -0.07 0.73 -1.05 10.04 0.25 -0.06 -0.07 5153
1.25 -0.06 0.72 -1.03 10.22 0.27 -0.06 -0.08 5159
1.33 -0.06 0.77 -1.15 10.16 0.30 -0.07 -0.10 5167
1.36 -0.07 0.78 -1.14 10.22 0.35 -0.07 -0.11 5173
1.44 -0.07 0.68 -1.13 10.26 0.40 -0.09 -0.11 5179
1.46 -0.08 0.78 -1.20 10.46 0.45 -0.11 -0.12 5185
1.50 -0.07 0.83 -1.26 10.71 0.56 -0.13 -0.13 5192
1.60 -0.07 0.70 -1.29 10.76 0.64 -0.16 -0.14 5198
1.64 -0.08 0.80 -1.31 11.02 0.75 -0.21 -0.16 5204
1.71 -0.06 0.78 -1.37 11.25 0.87 -0.25 -0.17 5211
1.78 -0.07 0.71 -1.46 11.49 0.99 -0.30 -0.18 5218
1.82 -0.09 0.81 -1.50 11.86 1.12 -0.34 -0.18 5224
1.84 -0.08 0.61 -1.61 12.09 1.24 -0.38 -0.18 5230
1.91 -0.08 0.56 -1.76 12.29 1.38 -0.42 -0.18 5236
1.99 -0.07 0.45 -2.33 12.48 1.52 -0.44 -0.17 5242
2.01 -0.08 0.60 -1.78 12.46 1.66 -0.48 -0.16 5250
2.04 -0.07 0.47 -1.95 12.72 1.82 -0.51 -0.15 5256
2.06 -0.06 0.62 -1.99 13.03 2.00 -0.53 -0.13 5262
2.08 -0.07 0.50 -1.94 12.74 2.18 -0.56 -0.13 5268
2.11 -0.07 0.38 -2.08 13.29 2.38 -0.58 -0.13 5275
2.12 -0.05 0.52 -2.45 13.41 2.55 -0.60 -0.14 5281
2.12 -0.07 0.24 -2.21 13.75 2.77 -0.60 -0.15 5287
2.13 -0.07 0.67 -2.79 14.30 3.02 -0.60 -0.18 5294
2.09 -0.08 0.38 -2.74 13.80 3.27 -0.62 -0.21 5300
2.02 -0.07 -5.63 -2.88 12.51 3.53 -0.66 -0.29 5307
1.95 -0.06 0.18 -2.76 15.08 3.87 -0.67 -0.28 5313
1.86 -0.07 0.25 -2.65 16.08 4.17 -0.74 -0.30 5319
1.74 -0.08 1.76 -5.41 18.90 4.28 -0.91 -0.34 5325
1.56 -0.07 2.78 -4.37 17.62 4.28 -1.10 -0.49 5332
1.34 -0.06 4.47 -3.92 19.31 4.28 -1.28 -0.69 5339
1.19 -0.05 2.66 -6.02 22.19 4.28 -1.44 -0.85 5345
1.08 -0.06 2.61 -8.29 25.20 4.28 -1.63 -1.00 5351
0.98 -0.04 2.43 -11.81 28.97 4.28 -1.73 -1.13 5358
0.80 -0.05 2.51 -15.50 33.48 4.28 -1.57 -1.18 5364
0.69 -0.04 3.29 -17.27 34.75 4.28 -1.21 -1.18 5370
0.62 -0.03 2.58 -14.78 30.81 4.28 -0.82 -1.17 5378
0.52 -0.04 1.56 -10.88 29.36 4.28 -0.53 -1.16 5384
0.37 -0.01 1.57 -7.25 32.58 4.28 -0.37 -1.13 5390
0.31 -0.03 1.92 -4.34 34.62 4.28 -0.57 -1.18 5396
0.23 -0.02 3.81 -1.44 33.97 4.28 -1.17 -1.30 5403
0.19 -0.02 7.05 2.51 31.45 4.28 -1.78 -1.40 5409
0.13 -0.01 9.45 7.18 32.83 4.28 -2.08 -1.44 5415
0.11 -0.01 9.21 11.88 25.24 4.28 -1.88 -1.40 5422
0.11 -0.01 10.73 17.28 19.37 4.28 -1.64 -1.60 5428
0.07 -0.01 10.59 20.09 0.20 4.15 -1.68 -1.97 5435
0.08 -0.00 11.64 25.06 5.37 2.99 -1.57 -2.28 5441
0.08 -0.01 11.44 20.16 26.98 0.85 -0.60 -2.25 5447
0.07 -0.01 11.75 14.13 27.79 -0.97 0.64 -2.00 5453
0.09 -0.01 8.05 12.20 20.23 -1.98 1.22 -1.70 5460
0.07 -0.01 5.74 12.18 14.58 -2.54 1.28 -1.37 5467
0.07 0.01 3.63 11.41 11.36 -3.01 1.06 -1.04 5473
0.07 -0.01 4.44 10.90 8.74 -3.33 0.86 -0.77 5479
0.04 -0.00 4.99 9.24 7.74 -3.51 0.74 -0.57 5485
0.07 -0.01 5.23 7.73 7.67 -3.59 0.75 -0.37 5492
0.06 -0.01 5.07 6.66 7.75 -3.65 0.89 -0.18 5498
0.06 -0.01 4.92 6.06 7.61 -3.71 1.11 -0.02 5505
0.06 -0.01 4.82 5.50 7.57 -3.77 1.32 0.10 5511
0.07 -0.00 3.81 4.97 7.93 -3.88 1.47 0.19 5517
0.06 -0.01 3.74 4.52 8.33 -4.02 1.62 0.26 5523
0.06 -0.01 3.14 4.03 8.67 -4.12 1.71 0.31 5529
0.05 -0.00 2.55 3.48 9.29 -4.19 1.74 0.38 5535
0.06 -0.01 2.09 2.92 9.58 -4.23 1.72 0.45 5541
0.06 -0.01 1.64 2.40 9.89 -4.26 1.67 0.52 5549
0.07 -0.01 1.33 2.00 10.35 -4.27 1.60 0.60 5555
0.06 -0.01 1.09 1.61 10.91 -4.28 1.55 0.67 5561
0.08 -0.01 1.12 1.36 11.30 -4.28 1.53 0.73 5567
0.06 -0.01 1.16 1.00 11.65 -4.28 1.53 0.80 5573
0.06 -0.01 1.14 0.70 12.82 -4.28 1.56 0.78 5579
0.07 -0.01 1.04 0.26 13.13 -4.28 1.62 0.78 5586
0.06 -0.01 0.96 -0.06 14.07 -4.28 1.70 0.75 5593
0.04 -0.00 0.94 -0.45 15.28 -4.28 1.82 0.70 5599
0.05 -0.01 0.77 -0.98 16.36 -4.28 1.99 0.62 5605
0.06 -0.01 0.40 -1.59 17.38 -4.28 2.18 0.52 5611
0.06 -0.01 -0.03 -2.24 18.29 -4.28 2.38 0.40 5617
0.05 -0.00 -0.69 -2.90 18.79 -4.28 2.52 0.27 5623
0.06 -0.01 -1.23 -3.65 19.31 -4.28 2.64 0.12 5630
0.06 -0.01 -1.82 -4.40 19.63 -4.28 2.68 -0.03 5637
0.05 -0.01 -2.40 -5.18 20.12 -4.28 2.64 -0.10 5643
0.07 -0.01 -2.71 -5.59 20.79 -4.28 2.57 -0.15 5649
0.06 -0.01 -2.75 -5.82 21.21 -4.28 2.45 -0.16 5655
0.06 -0.01 -2.50 -5.91 21.44 -4.28 2.32 -0.13 5662
0.06 -0.01 -1.91 -6.02 21.69 -4.27 2.17 -0.08 5668
0.06 -0.01 -1.43 -6.32 22.28 -4.24 2.03 -0.02 5675
0.06 -0.01 -0.99 -6.92 23.14 -4.20 1.95 0.06 5681
0.07 -0.01 -0.57 -7.98 23.94 -4.14 1.88 0.13 5687
0.07 -0.01 -0.09 -9.33 24.54 -4.07 1.83 0.21 5693
0.05 -0.00 0.29 -10.42 24.85 -3.96 1.77 0.28 5700
0.07 -0.01 0.57 -11.50 24.82 -3.83 1.71 0.33 5706
0.07 -0.01 0.85 -12.49 24.33 -3.69 1.72 0.40 5712
0.05 -0.00 -14.31 -24.59 78.47 -2.04 1.35 0.76 5719
0.06 -0.01 1.47 -7.32 -0.03 -2.65 1.53 0.84 5725
0.06 -0.01 -2.37 -13.83 13.23 -3.03 1.33 0.80 5732
0.05 -0.00 0.80 -17.64 10.79 -2.99 1.38 1.00 5738
0.06 -0.01 -0.80 -16.75 19.51 -3.08 1.76 1.27 5744
0.06 -0.01 -2.61 -15.43 21.77 -3.18 2.61 1.54 5750
0.06 -0.00 -3.71 -18.58 21.77 -3.10 3.29 1.80 5757
0.06 -0.01 -6.20 -23.06 19.89 -2.97 3.36 1.98 5764
0.06 -0.01 -8.76 -26.43 18.67 -2.72 2.96 2.08 5770
0.08 -0.01 -10.84 -28.62 13.78 -2.43 2.39 2.15 5776
0.07 -0.01 -11.03 -30.74 8.60 -2.20 1.73 2.14 5782
0.07 0.00 -10.39 -33.10 4.29 -1.96 1.04 1.98 5789
0.08 -0.01 -9.47 -35.31 1.75 -1.66 0.50 1.69 5795
0.07 -0.01 -8.43 -36.25 1.20 -1.29 0.22 1.34 5801
0.08 0.00 -6.81 -35.67 1.45 -0.75 0.19 0.96 5808
0.07 -0.01 -6.46 -33.43 1.94 -0.17 0.25 0.60 5814
0.06 -0.01 -6.05 -31.03 2.45 0.39 0.28 0.29 5821
0.06 -0.00 -21.10 -42.82 64.77 2.62 -1.50 0.39 5827
0.06 -0.01 -5.93 -26.74 3.44 3.10 -1.20 0.55 5833
0.04 0.00 -8.17 -19.81 -0.02 3.48 -2.45 0.55 5839
0.06 0.06 -4.46 -22.86 2.58 3.34 -3.62 0.72 5847
0.05 0.19 2.52 -1.60 4.28 3.21 -4.24 0.78 5853
0.04 0.32 4.25 1.89 12.09 3.41 -2.87 1.14 5859
0.04 0.53 7.70 8.92 17.44 3.94 -0.90 1.78 5865
0.02 0.75 -2.80 -0.68 17.41 4.20 -0.24 2.10 5871
0.01 1.08 -10.36 -5.71 24.09 4.28 -0.63 1.81 5878
-0.01 1.32 -12.54 -9.01 23.55 4.28 -1.13 1.24 5884
-0.02 1.50 -6.98 -6.00 23.48 4.28 -1.00 0.65 5891
-0.02 1.61 -7.56 -4.22 26.25 4.28 -0.53 0.11 5897
-0.01 1.64 -5.26 -3.01 23.77 4.06 -0.48 -0.53 5904
-0.02 1.65 3.37 -3.88 25.92 3.69 -0.67 -0.94 5910
-0.02 1.65 5.53 -2.09 27.71 2.04 -2.23 -0.67 5916
-0.03 1.66 4.60 -4.21 12.34 0.82 -1.50 0.00 5922
0.00 1.63 0.78 -2.20 12.07 0.50 -1.01 0.26 5929
-0.00 1.57 -0.74 -0.34 11.66 0.27 -0.61 0.24 5936
-0.01 1.55 -0.63 -0.34 10.83 0.13 -0.32 0.11 5942
-0.01 1.61 0.53 -1.06 10.19 0.03 -0.17 0.05 5948
0.00 1.61 1.06 -1.59 10.00 -0.00 -0.12 0.08 5954
0.01 1.64 0.90 -1.07 10.15 -0.01 -0.12 0.10 5961
0.02 1.59 0.38 -0.76 10.28 -0.01 -0.07 0.08 5967
0.00 1.56 0.44 -0.84 10.07 -0.02 -0.08 0.06 5974
-0.01 1.59 0.64 -0.90 10.07 -0.02 -0.07 0.06 5980
-0.01 1.57 0.65 -0.78 9.97 -0.02 -0.07 0.07 5986
-0.01 1.52 0.59 -0.67 9.98 -0.02 -0.07 0.07 5993
0.00 1.50 0.64 -0.70 9.90 -0.01 -0.06 0.07 5999
0.04 1.44 0.69 -0.74 9.99 -0.00 -0.07 0.06 6005
0.01 1.37 0.63 -0.75 9.64 -0.01 -0.05 0.06 6011
0.03 1.33 0.57 -0.68 10.10 0.01 -0.05 0.05 6018
0.09 1.22 0.62 -0.73 10.02 0.02 -0.04 0.06 6024
0.07 1.19 0.66 -0.75 10.03 0.02 -0.03 0.06 6031
0.09 1.06 0.60 -0.72 10.04 0.03 -0.03 0.06 6037
0.15 1.01 0.63 -0.77 10.05 0.04 -0.02 0.06 6043
0.15 0.87 0.61 -0.76 10.03 0.04 -0.02 0.06 6049
0.17 0.81 0.61 -0.75 10.01 0.04 -0.02 0.06 6055
0.20 0.74 0.58 -0.75 10.01 0.05 -0.01 0.06 6062
0.23 0.63 0.68 -0.79 9.96 0.05 -0.00 0.07 6069
0.22 0.52 0.66 -0.77 10.04 0.05 0.00 0.06 6075
0.23 0.46 0.86 -0.74 10.05 0.05 0.00 0.06 6081
0.24 0.44 0.72 -0.83 9.92 0.05 0.01 0.05 6087
0.26 0.33 0.75 -0.68 10.17 0.06 0.00 0.04 6093
0.30 0.29 0.75 -0.85 9.98 0.06 -0.00 0.04 6099
0.29 0.26 0.71 -0.87 10.03 0.05 -0.01 0.03 6107
0.32 0.20 0.70 -0.75 9.98 0.05 -0.00 0.03 6113
0.34 0.14 0.70 -0.86 10.00 0.04 -0.01 0.03 6119
0.37 0.11 0.70 -0.84 10.05 0.04 -0.01 0.02 6125
0.37 0.10 0.68 -0.79 9.94 0.04 -0.01 0.02 6131
0.35 0.07 0.66 -0.87 9.99 0.04 -0.00 0.02 6137
0.39 0.04 0.69 -0.86 10.05 0.04 -0.00 0.03 6145
0.39 0.02 0.68 -0.75 10.00 0.05 -0.00 0.03 6151
0.39 0.03 0.70 -0.92 9.97 0.05 -0.00 0.03 6157
0.42 0.05 0.68 -1.31 10.14 0.05 -0.01 0.03 6163
0.43 0.01 0.81 -0.88 10.04 0.05 -0.01 0.02 6169
0.41 -0.00 0.76 -0.91 9.99 0.05 -0.02 0.02 6175
0.42 0.01 0.80 -0.90 9.97 0.05 -0.03 0.01 6182
0.47 -0.02 0.77 -0.96 9.95 0.06 -0.04 -0.00 6189
0.48 -0.02 0.76 -0.96 9.97 0.05 -0.04 -0.01 6195
0.52 -0.02 0.76 -0.96 9.93 0.05 -0.05 -0.02 6201
0.55 -0.03 0.76 -0.95 9.98 0.05 -0.04 -0.03 6207
0.58 -0.04 0.74 -1.01 9.99 0.05 -0.04 -0.04 6213
0.61 -0.04 0.77 -0.90 9.98 0.05 -0.04 -0.04 6219
0.65 -0.02 0.79 -0.94 9.98 0.05 -0.04 -0.05 6226
0.69 -0.03 0.74 -1.01 9.99 0.06 -0.05 -0.05 6233
0.71 -0.05 0.76 -1.00 9.98 0.06 -0.05 -0.05 6239
0.75 -0.03 0.77 -1.01 9.94 0.06 -0.06 -0.05 6245
0.77 -0.05 0.71 -0.98 10.02 0.07 -0.05 -0.05 6251
0.81 -0.05 0.64 -0.97 9.99 0.08 -0.06 -0.05 6257
0.82 -0.04 0.70 -1.01 10.09 0.08 -0.05 -0.04 6263
0.93 -0.04 0.74 -0.98 10.13 0.10 -0.05 -0.04 6270
0.97 -0.06 0.76 -1.00 10.07 0.12 -0.04 -0.04 6277
1.05 -0.06 0.82 -1.04 10.21 0.16 -0.03 -0.05 6283
1.12 -0.05 0.81 -1.12 10.24 0.21 -0.02 -0.05 6289
1.18 -0.06 0.78 -1.16 10.27 0.28 -0.02 -0.06 6296
1.20 -0.04 0.79 -1.82 10.56 0.41 -0.01 -0.07 6302
1.25 -0.05 0.85 -1.22 10.91 0.58 -0.00 -0.08 6308
1.32 -0.06 1.09 -1.40 11.34 0.81 0.02 -0.11 6315
1.39 -0.05 1.02 -1.37 12.03 1.06 0.01 -0.14 6321
1.48 -0.06 1.17 -1.59 12.08 1.30 -0.03 -0.17 6328
1.51 -0.07 1.08 -1.52 12.28 1.48 -0.10 -0.19 6334
1.59 -0.07 0.94 -1.61 12.54 1.63 -0.17 -0.21 6340
1.64 -0.07 1.09 -1.66 12.59 1.78 -0.23 -0.21 6346
1.66 -0.05 0.58 -1.66 13.11 1.94 -0.30 -0.21 6353
1.73 -0.06 0.86 -1.80 13.19 2.12 -0.34 -0.21 6360
1.77 -0.07 0.62 -1.94 13.25 2.32 -0.38 -0.20 6366
1.81 -0.05 0.74 -1.76 14.36 2.55 -0.40 -0.20 6372
1.79 -0.06 0.65 -2.57 13.72 2.77 -0.40 -0.20 6378
1.83 -0.07 0.86 -2.19 13.98 3.02 -0.37 -0.20 6385
1.81 -0.07 0.57 -2.53 14.29 3.24 -0.34 -0.20 6391
1.76 -0.08 0.29 -2.44 14.39 3.47 -0.28 -0.19 6397
1.71 -0.06 0.65 -2.64 15.13 3.72 -0.22 -0.18 6404
1.65 -0.06 1.32 -2.60 15.48 4.05 -0.07 -0.21 6411
1.52 -0.07 1.64 -3.23 16.43 4.24 -0.16 -0.25 6417
1.36 -0.05 1.98 -3.31 16.98 4.28 -0.19 -0.34 6423
1.20 -0.06 2.07 -3.90 17.96 4.28 -0.26 -0.44 6429
1.04 -0.04 2.34 -5.05 20.59 4.28 -0.42 -0.53 6436
0.89 -0.05 2.37 -6.66 22.99 4.28 -0.59 -0.60 6443
0.82 -0.05 2.20 -8.96 26.92 4.28 -0.71 -0.64 6449
0.71 -0.04 2.02 -12.87 31.67 4.28 -0.74 -0.64 6455
0.60 -0.04 2.48 -15.23 33.51 4.28 -0.53 -0.58 6462
0.48 -0.03 3.77 -14.12 31.26 4.28 -0.09 -0.52 6468
0.38 -0.03 2.51 -11.38 27.14 4.28 0.28 -0.55 6474
0.27 -0.02 1.08 -8.07 28.59 4.28 0.62 -0.53 6480
0.24 -0.02 0.98 -6.45 34.18 4.28 0.51 -0.61 6488
0.18 -0.02 1.49 -5.39 35.08 4.28 -0.05 -0.78 6494
0.12 -0.01 4.13 -2.18 33.43 4.28 -0.68 -0.96 6500
0.12 -0.01 6.73 3.17 34.12 4.28 -1.17 -1.02 6506
0.09 -0.01 8.05 7.80 32.05 4.28 -1.15 -1.01 6512
0.08 -0.01 11.73 14.87 22.76 4.28 -0.84 -0.96 6519
0.06 -0.01 12.27 20.90 17.92 4.28 -0.36 -1.19 6525
0.06 -0.01 8.27 21.88 0.77 4.17 0.22 -1.78 6532
0.08 -0.01 7.58 24.51 2.73 2.94 0.15 -2.38 6538
0.07 -0.01 8.46 19.00 27.67 1.12 0.95 -2.48 6544
0.05 -0.01 9.10 15.83 30.96 -0.87 1.74 -2.34 6551
0.05 -0.00 5.22 15.47 21.67 -2.07 1.85 -2.25 6557
0.06 -0.01 2.79 15.13 15.85 -2.62 1.50 -2.09 6563
0.03 -0.00 1.76 13.17 12.60 -3.24 1.03 -1.82 6569
0.05 -0.01 2.42 10.94 11.13 -3.77 0.65 -1.53 6577
0.06 -0.01 2.51 9.27 9.82 -4.05 0.41 -1.30 6583
0.05 -0.00 3.23 7.40 9.30 -4.13 0.30 -1.11 6589
0.06 -0.00 3.62 6.67 8.96 -4.16 0.24 -0.94 6595
0.06 -0.01 3.86 5.70 8.67 -4.19 0.28 -0.83 6601
0.06 -0.01 4.18 4.99 8.49 -4.21 0.38 -0.70 6607
0.07 -0.00 4.44 4.55 8.36 -4.24 0.53 -0.59 6614
0.08 -0.01 4.42 4.21 8.39 -4.26 0.71 -0.51 6620
0.06 -0.01 4.24 3.83 8.75 -4.28 0.88 -0.43 6627
0.06 -0.01 3.99 3.49 9.18 -4.28 1.01 -0.36 6633
0.07 -0.01 3.71 3.02 9.67 -4.28 1.13 -0.29 6639
0.06 -0.01 3.34 2.51 10.04 -4.28 1.25 -0.19 6645
0.05 -0.01 2.92 1.94 10.63 -4.28 1.35 -0.08 6651
0.05 -0.00 2.34 1.50 11.13 -4.28 1.40 0.04 6658
0.06 -0.01 2.18 0.67 12.00 -4.28 1.46 0.17 6664
0.05 -0.01 1.91 0.11 12.50 -4.28 1.47 0.28 6671
0.04 -0.00 1.81 -0.37 13.11 -4.28 1.54 0.38 6677
0.05 -0.01 1.84 -0.83 13.58 -4.28 1.60 0.44 6683
0.06 -0.01 1.63 -1.03 14.08 -4.28 1.59 0.46 6689
0.06 -0.01 1.50 -1.58 14.73 -4.28 1.67 0.46 6695
0.07 0.00 1.59 -2.17 15.47 -4.28 1.79 0.42 6702
0.06 -0.01 1.33 -2.96 16.70 -4.28 1.91 0.34 6709
0.05 -0.00 0.91 -4.05 17.63 -4.28 2.07 0.23 6715
0.05 0.00 0.60 -5.13 18.34 -4.28 2.25 0.08 6721
0.06 -0.01 0.05 -5.95 18.56 -4.28 2.36 -0.06 6727
0.05 -0.00 -0.38 -6.36 18.88 -4.28 2.43 -0.17 6733
0.04 -0.00 -0.69 -6.39 19.12 -4.28 2.43 -0.24 6739
0.06 -0.01 -0.95 -6.62 19.52 -4.28 2.37 -0.25 6747
0.04 -0.00 -1.20 -6.90 19.38 -4.23 2.26 -0.21 6753
0.04 -0.00 -1.18 -7.17 19.76 -4.11 2.17 -0.13 6759
0.05 -0.01 -1.01 -7.60 20.48 -3.90 2.05 -0.01 6765
0.04 -0.00 -0.70 -7.80 21.36 -3.68 1.92 0.09 6771
0.04 -0.00 -0.29 -8.07 22.55 -3.51 1.84 0.23 6777
0.05 -0.01 -0.08 -8.71 23.43 -3.44 1.76 0.40 6785
0.05 -0.00 -0.11 -9.66 23.52 -3.41 1.67 0.58 6791
0.04 -0.00 -0.22 -10.82 23.02 -3.39 1.55 0.78 6797
0.05 -0.01 -0.45 -12.08 22.23 -3.31 1.41 0.99 6803
0.05 -0.00 -0.76 -13.24 21.53 -3.22 1.26 1.19 6809
0.05 -0.00 -0.97 -14.27 21.39 -3.04 1.14 1.37 6816
0.06 -0.01 -0.88 -15.20 21.71 -2.87 1.10 1.51 6822
0.05 -0.01 -0.76 -16.17 21.80 -2.78 1.19 1.61 6829
0.06 -0.01 -0.72 -17.39 21.05 -2.77 1.36 1.68 6835
0.06 -0.01 -1.50 -18.86 19.53 -2.82 1.62 1.75 6841
0.06 -0.01 -2.65 -19.69 17.88 -2.88 2.04 1.82 6848
0.07 -0.00 -3.90 -22.97 16.01 -2.91 2.33 1.85 6854
0.07 -0.01 -5.55 -26.30 14.16 -2.85 2.33 1.84 6860
0.06 -0.01 -7.35 -28.88 12.02 -2.70 2.11 1.83 6866
0.07 -0.01 -9.04 -31.54 9.14 -2.45 1.77 1.75 6874
0.07 -0.01 -9.36 -33.26 6.31 -2.15 1.38 1.71 6880
0.06 -0.01 -9.81 -34.28 3.51 -1.80 1.00 1.61 6886
0.07 -0.01 -9.71 -34.86 2.02 -1.41 0.70 1.47 6892
0.06 -0.01 -9.19 -34.44 1.71 -0.99 0.43 1.27 6898
0.06 -0.01 -8.23 -32.74 2.00 -0.53 0.21 1.04 6904
0.07 -0.01 -7.25 -30.78 2.91 -0.09 -0.01 0.78 6912
0.06 -0.01 -18.34 -39.15 75.35 2.36 -1.74 0.56 6918
0.06 -0.01 -8.45 -25.28 2.81 2.82 -1.04 0.56 6924
0.08 -0.00 -6.91 -21.83 -3.45 3.10 -1.77 0.37 6930
0.07 0.07 -4.42 -29.14 0.27 2.95 -2.87 0.37 6937
0.06 0.28 -3.04 -1.13 2.30 2.91 -3.65 0.37 6943
0.04 0.41 0.91 0.94 16.09 3.20 -2.66 0.66 6949
0.01 0.76 7.17 6.67 22.71 4.01 -0.87 1.12 6956
0.00 1.16 -2.12 -1.47 22.82 4.26 -0.81 1.19 6962
-0.02 1.41 -9.96 -6.30 28.90 4.28 -1.34 0.78 6969
-0.03 1.56 -6.03 -7.28 22.77 4.28 -1.50 0.35 6975
-0.02 1.68 -3.84 -5.93 26.51 4.28 -0.93 0.11 6981
-0.02 1.78 -4.15 -3.38 25.30 3.96 -0.56 -0.22 6987
-0.02 1.76 -0.31 -2.45 20.53 3.27 -0.66 -0.61 6994
-0.02 1.72 5.22 -3.23 22.67 3.03 -0.97 -0.68 7001
-0.03 1.72 4.54 -1.14 18.10 1.41 -2.02 -0.34 7007
-0.02 1.66 2.42 -2.24 12.66 0.68 -1.39 0.11 7013
0.01 1.64 -0.10 -1.65 12.03 0.30 -0.76 0.23 7020
-0.01 1.63 -0.80 -0.75 11.06 0.09 -0.31 0.17 7026
-0.00 1.61 -0.13 -0.89 10.27 0.00 -0.13 0.08 7032
0.00 1.57 0.93 -1.37 10.16 -0.02 -0.10 0.05 7038
0.01 1.61 0.97 -1.12 10.10 -0.03 -0.08 0.09 7045
0.01 1.54 0.60 -0.76 10.16 -0.00 -0.09 0.10 7052
-0.01 1.56 0.44 -0.73 10.04 -0.04 -0.09 0.07 7058
0.02 1.53 0.70 -0.74 10.01 -0.04 -0.08 0.07 7064
0.04 1.45 0.80 -0.73 10.08 -0.03 -0.07 0.08 7070
0.09 1.42 0.62 -0.61 10.08 -0.02 -0.08 0.07 7076
0.06 1.40 0.59 -0.64 10.03 -0.01 -0.07 0.06 7083
0.08 1.30 0.65 -0.67 10.13 -0.00 -0.06 0.06 7090
0.07 1.28 0.58 -0.73 10.11 0.00 -0.06 0.06 7096
0.10 1.18 0.58 -0.66 10.09 0.01 -0.04 0.06 7102
0.12 1.11 0.67 -0.65 10.12 0.02 -0.03 0.05 7108
0.14 0.95 0.62 -0.64 10.12 0.02 -0.02 0.05 7114
0.14 0.93 0.60 -0.71 10.05 0.04 -0.01 0.05 7121
0.17 0.82 0.60 -0.77 10.08 0.04 0.00 0.05 7128
0.16 0.77 0.64 -0.65 10.00 0.05 0.01 0.06 7134
0.18 0.68 0.64 -0.68 10.04 0.05 0.01 0.06 7140
0.20 0.52 0.64 -0.43 10.08 0.06 0.01 0.06 7146
0.21 0.49 0.73 -0.71 9.93 0.06 0.02 0.05 7153
0.24 0.44 0.73 -0.34 9.85 0.07 0.02 0.05 7159
0.27 0.36 0.74 -0.76 9.98 0.07 0.02 0.04 7165
0.28 0.31 0.64 -0.75 9.91 0.07 0.01 0.04 7172
0.28 0.24 0.76 -0.77 9.98 0.07 0.02 0.04 7178
0.31 0.20 0.70 -0.68 10.01 0.07 0.01 0.03 7184
0.33 0.15 0.78 -0.77 10.10 0.07 0.01 0.03 7190
0.35 0.09 0.74 -0.74 10.08 0.07 0.01 0.03 7197
0.38 0.09 0.79 -0.76 10.04 0.07 0.01 0.03 7203
0.38 0.06 0.70 -0.83 10.00 0.07 0.00 0.02 7209
0.39 0.02 0.74 -0.53 10.05 0.07 0.01 0.02 7216
0.37 0.03 0.69 -0.14 10.04 0.08 0.00 0.02 7222
0.39 0.02 0.79 -0.59 9.97 0.09 -0.00 0.02 7228
0.43 -0.00 0.82 -1.01 10.07 0.10 -0.01 0.02 7235
0.45 0.01 0.76 -0.85 10.07 0.11 -0.01 0.02 7241
0.48 -0.02 0.79 -0.86 10.05 0.11 -0.01 0.00 7247
0.51 -0.03 0.84 -0.85 10.02 0.13 -0.01 -0.01 7254
0.56 -0.01 0.90 -0.76 10.04 0.13 -0.02 -0.02 7260
0.56 -0.03 1.05 -0.91 10.12 0.14 -0.03 -0.04 7267
0.60 -0.03 0.82 -1.01 10.11 0.10 -0.04 -0.05 7273
0.65 -0.02 0.85 -0.99 9.91 0.13 -0.05 -0.07 7279
0.68 -0.04 0.78 -0.98 9.83 0.11 -0.05 -0.08 7285
0.73 -0.05 0.92 -0.99 9.93 0.10 -0.05 -0.08 7291
0.74 -0.04 0.75 -0.94 9.97 0.09 -0.06 -0.08 7298
0.77 -0.04 0.87 -1.01 9.90 0.09 -0.06 -0.09 7305
0.79 -0.05 0.74 -1.00 9.93 0.10 -0.07 -0.09 7311
0.85 -0.05 0.82 -1.03 9.99 0.10 -0.07 -0.09 7317
0.90 -0.05 0.69 -1.08 10.03 0.11 -0.07 -0.09 7323
0.96 -0.05 0.74 -1.02 10.00 0.12 -0.07 -0.08 7329
1.03 -0.04 0.70 -1.08 10.10 0.17 -0.07 -0.08 7335
1.07 -0.05 0.69 -1.04 10.01 0.15 -0.06 -0.07 7343
1.13 -0.06 0.67 -1.04 10.07 0.18 -0.06 -0.07 7349
1.16 -0.05 0.70 -1.13 10.09 0.20 -0.06 -0.06 7355
1.21 -0.05 0.69 -1.10 10.22 0.24 -0.06 -0.05 7361
1.28 -0.06 0.76 -1.19 10.33 0.30 -0.06 -0.05 7367
1.34 -0.06 0.73 -1.80 10.38 0.38 -0.05 -0.05 7374
1.38 -0.06 0.79 -1.24 10.61 0.49 -0.05 -0.05 7380
1.45 -0.06 0.91 -1.30 10.76 0.61 -0.05 -0.06 7387
1.48 -0.05 1.08 -1.48 11.53 0.76 -0.06 -0.09 7393
1.54 -0.05 1.13 -1.50 11.13 0.91 -0.07 -0.12 7400
1.58 -0.06 1.19 -1.51 11.75 1.06 -0.11 -0.15 7406
1.67 -0.06 1.06 -1.64 12.05 1.22 -0.16 -0.18 7412
1.70 -0.05 0.96 -1.67 12.01 1.34 -0.22 -0.19 7418
1.76 -0.06 0.95 -1.72 12.29 1.48 -0.27 -0.19 7425
1.81 -0.05 0.65 -1.82 12.65 1.64 -0.33 -0.19 7432
1.87 -0.07 0.55 -1.84 12.68 1.80 -0.39 -0.17 7438
1.90 -0.04 0.42 -1.99 12.53 1.98 -0.44 -0.15 7444
1.95 -0.06 0.23 -1.93 13.26 2.17 -0.45 -0.13 7450
1.93 -0.03 0.54 -2.14 13.54 2.37 -0.46 -0.11 7457
1.98 -0.06 0.73 -1.58 13.18 2.58 -0.44 -0.12 7463
1.96 -0.09 0.45 -2.40 13.92 2.81 -0.42 -0.12 7470
1.94 -0.06 0.65 -2.46 14.19 3.04 -0.36 -0.14 7476
1.94 -0.07 0.75 -2.57 14.75 3.32 -0.30 -0.16 7483
1.85 -0.08 0.83 -2.38 15.02 3.67 -0.27 -0.20 7489
1.80 -0.06 0.71 -2.76 16.29 3.94 -0.23 -0.22 7495
1.66 -0.06 0.87 -3.10 16.51 4.23 -0.29 -0.24 7501
1.56 -0.07 1.95 -3.38 17.74 4.28 -0.44 -0.31 7508
1.39 -0.05 4.22 -3.73 18.19 4.28 -0.60 -0.48 7515
1.22 -0.05 3.87 -4.62 19.68 4.28 -0.80 -0.69 7521
1.11 -0.04 3.91 -5.28 21.87 4.28 -0.99 -0.85 7527
0.92 -0.04 2.24 -8.92 26.64 4.28 -1.13 -0.95 7533
0.85 -0.04 2.47 -12.59 30.70 4.28 -1.19 -0.97 7540
0.73 -0.04 2.68 -15.21 36.63 4.28 -1.00 -0.97 7546
0.60 -0.05 3.53 -16.33 34.25 4.28 -0.56 -0.86 7553
0.49 -0.02 3.96 -13.47 29.08 4.28 -0.13 -0.86 7560
0.37 -0.04 1.73 -9.03 28.07 4.28 0.26 -0.83 7566
0.26 -0.02 1.03 -5.70 33.78 4.28 0.44 -0.87 7572
0.21 -0.02 0.60 -4.70 36.68 4.28 -0.01 -1.03 7578
0.17 -0.02 2.28 -2.16 34.42 4.28 -0.76 -1.16 7584
0.13 -0.01 5.80 2.82 33.72 4.28 -1.41 -1.26 7591
0.09 -0.01 8.62 6.57 33.94 4.28 -1.59 -1.26 7598
0.07 -0.01 10.69 12.93 24.19 4.28 -1.33 -1.17 7604
0.07 -0.01 13.17 20.03 21.51 4.28 -0.90 -1.38 7610
0.07 -0.01 9.72 23.53 1.67 4.10 -0.40 -1.83 7616
0.06 -0.01 8.38 26.24 0.10 2.74 -0.47 -2.31 7623
0.06 -0.01 9.86 19.36 27.52 0.94 0.52 -2.31 7629
0.06 -0.01 9.84 15.46 32.88 -0.79 1.43 -2.06 7635
0.07 -0.01 5.40 15.18 20.79 -2.27 1.57 -1.80 7642
0.04 -0.00 2.47 14.41 13.81 -2.92 1.16 -1.52 7648
0.05 -0.01 2.45 12.37 11.18 -3.39 0.69 -1.18 7655
0.05 -0.01 1.94 10.27 10.52 -3.84 0.35 -0.88 7661
0.07 -0.01 2.74 9.02 9.09 -4.06 0.16 -0.64 7667
0.06 -0.01 3.58 7.67 8.09 -4.09 0.07 -0.46 7673
0.08 -0.01 4.05 6.56 7.56 -4.10 0.10 -0.33 7680
0.06 -0.01 4.23 5.74 7.17 -4.13 0.22 -0.21 7686
0.06 -0.01 4.42 5.18 6.93 -4.16 0.40 -0.11 7692
0.05 -0.00 4.58 4.67 7.12 -4.19 0.59 -0.05 7698
0.06 -0.01 4.47 4.22 7.63 -4.23 0.74 -0.01 7705
0.06 -0.01 4.15 3.79 8.22 -4.26 0.88 0.02 7711
0.08 -0.01 3.78 3.18 8.59 -4.28 0.98 0.04 7717
0.07 -0.01 3.45 2.67 9.01 -4.28 1.03 0.09 7724
0.08 -0.01 3.14 2.18 9.39 -4.28 1.06 0.16 7730
0.07 -0.01 2.83 1.65 10.08 -4.28 1.08 0.23 7736
0.08 -0.01 2.13 1.66 10.21 -4.28 1.06 0.32 7742
0.06 -0.01 2.32 0.97 11.12 -4.28 1.07 0.42 7748
0.06 -0.01 2.35 0.37 12.07 -4.28 1.05 0.49 7755
0.07 -0.01 2.29 0.19 13.00 -4.28 1.07 0.54 7761
0.07 -0.01 2.65 -0.41 13.35 -4.28 1.16 0.58 7768
0.06 -0.01 2.56 -0.84 13.54 -4.28 1.23 0.59 7774
0.06 -0.00 2.70 -1.27 13.89 -4.28 1.33 0.57 7780
0.07 -0.01 2.97 -2.16 14.67 -4.28 1.48 0.49 7786
0.05 -0.01 3.14 -3.15 15.73 -4.28 1.66 0.37 7793
0.06 -0.01 2.95 -4.59 16.52 -4.28 1.92 0.22 7799
0.06 -0.01 2.60 -6.00 17.49 -4.28 2.20 0.04 7805
0.06 -0.01 2.33 -6.82 18.37 -4.28 2.44 -0.13 7812
0.06 -0.00 1.46 -7.18 18.85 -4.28 2.59 -0.25 7818
0.06 -0.01 0.58 -7.38 19.11 -4.28 2.73 -0.32 7825
0.05 -0.01 -0.10 -7.62 19.12 -4.24 2.74 -0.34 7831
0.06 -0.00 -0.86 -7.81 19.23 -4.16 2.63 -0.34 7837
0.05 -0.01 -1.51 -8.14 20.45 -4.03 2.41 -0.30 7843
0.05 -0.00 -1.74 -8.25 21.45 -3.86 2.17 -0.24 7849
0.05 -0.01 -1.07 -8.18 22.48 -3.70 1.95 -0.18 7856
0.06 -0.01 -0.38 -8.07 23.18 -3.62 1.79 -0.11 7863
0.05 -0.00 0.28 -8.42 24.10 -3.59 1.75 -0.04 7869
0.04 0.00 0.66 -9.03 24.48 -3.62 1.83 0.04 7875
0.05 -0.00 0.76 -9.83 24.32 -3.66 1.98 0.16 7881
0.04 -0.00 0.63 -10.85 23.86 -3.70 2.11 0.31 7887
0.05 -0.00 0.13 -11.85 23.16 -3.69 2.22 0.48 7895
0.05 -0.01 -0.57 -13.12 22.49 -3.62 2.24 0.69 7901
0.05 -0.01 -1.27 -14.39 21.54 -3.51 2.15 0.94 7907
0.07 -0.01 -1.99 -15.55 20.77 -3.36 2.00 1.23 7913
0.06 -0.01 -2.70 -16.32 20.19 -3.22 1.82 1.53 7919
0.06 -0.01 -3.47 -17.00 19.68 -3.13 1.69 1.77 7926
0.07 -0.01 -4.65 -17.68 19.31 -3.11 1.70 2.08 7932
0.06 -0.01 -5.59 -19.64 18.92 -3.13 1.74 2.34 7939
0.06 -0.00 -6.43 -22.50 17.10 -3.14 1.58 2.50 7945
0.07 -0.01 -7.02 -25.98 13.99 -3.05 1.23 2.57 7952
0.05 -0.01 -6.86 -28.77 10.30 -2.84 0.83 2.55 7958
0.08 -0.01 -6.36 -30.26 7.23 -2.47 0.52 2.44 7964
0.07 -0.01 -6.26 -32.41 4.52 -1.98 0.40 2.26 7970
0.05 -0.01 -6.26 -33.51 2.44 -1.45 0.44 2.03 7976
0.06 -0.00 -6.36 -33.87 1.79 -0.91 0.55 1.72 7984
0.06 -0.01 -6.59 -33.02 2.47 -0.37 0.63 1.36 7990
0.04 -0.00 -6.92 -31.51 3.77 -0.01 0.64 0.98 7996
0.05 -0.01 -13.19 -41.84 68.39 1.48 -0.41 0.73 8002
0.05 -0.01 -3.74 -27.65 -1.85 2.56 0.11 0.66 8008
0.05 -0.00 -9.18 -24.22 -0.37 2.88 -0.66 0.49 8015
0.06 0.01 -10.55 -29.95 6.00 3.12 -2.13 0.43 8022
0.04 0.12 -7.31 -24.31 3.68 3.16 -3.42 0.30 8028
0.04 0.29 -1.37 3.44 3.33 3.02 -3.79 0.30 8034
0.04 0.42 3.13 -2.02 19.03 3.60 -2.29 0.51 8040
0.02 0.71 7.08 9.01 21.74 4.10 -0.60 1.06 8047
0.00 1.02 -3.69 1.48 24.37 4.27 -0.54 1.18 8053
-0.01 1.28 -10.97 -5.91 29.40 4.27 -1.04 0.73 8059
-0.01 1.52 -5.87 -7.22 22.32 4.24 -1.31 0.20 8066
-0.01 1.62 -1.71 -4.37 22.59 4.21 -0.82 -0.03 8073
-0.01 1.61 -2.97 -2.30 22.87 3.80 -0.44 -0.22 8079
-0.02 1.64 -0.41 -1.83 17.98 3.18 -0.41 -0.51 8085
-0.02 1.57 3.09 -2.09 15.67 3.04 -0.44 -0.59 8091
-0.03 1.60 4.67 -3.25 29.14 2.62 -1.66 -0.46 8098
-0.01 1.60 4.81 -2.60 14.31 1.06 -1.85 -0.05 8104
-0.03 1.61 0.57 -2.97 13.97 0.54 -1.07 0.22 8111
-0.02 1.67 -1.08 -1.57 11.39 0.19 -0.49 0.22 8117
-0.02 1.67 -0.55 -0.89 10.69 0.05 -0.21 0.12 8124
-0.00 1.62 0.38 -1.14 10.29 0.00 -0.12 0.06 8130
0.00 1.61 1.03 -1.16 10.24 -0.01 -0.10 0.07 8136
-0.01 1.64 0.76 -0.95 10.24 -0.02 -0.09 0.09 8142
0.01 1.66 0.49 -0.70 10.21 -0.02 -0.08 0.08 8148
0.02 1.64 0.42 -0.65 9.90 -0.02 -0.07 0.08 8155
0.01 1.57 0.71 -0.69 10.01 -0.02 -0.06 0.07 8162
0.00 1.52 0.73 -0.65 9.92 -0.01 -0.06 0.07 8168
0.01 1.46 0.65 -0.63 9.99 -0.00 -0.07 0.07 8174
0.05 1.39 0.65 -0.63 10.03 0.01 -0.08 0.07 8180
0.06 1.37 0.64 -0.72 10.01 0.00 -0.07 0.06 8186
0.06 1.29 1.91 -1.14 11.53 0.02 -0.07 0.05 8194
0.10 1.21 0.58 -0.69 10.07 0.02 -0.05 0.05 8200
0.10 1.07 0.57 -0.67 10.06 0.02 -0.05 0.06 8206
0.12 1.03 0.61 -0.70 10.09 0.03 -0.03 0.05 8212
0.14 0.95 0.61 -0.71 10.09 0.03 -0.03 0.06 8218
0.16 0.89 0.58 -0.72 10.05 0.04 -0.02 0.06 8224
0.15 0.81 0.57 -0.68 10.03 0.04 -0.02 0.06 8231
0.18 0.74 0.63 -0.73 10.00 0.05 -0.02 0.06 8238
0.20 0.63 0.64 -0.70 10.07 0.05 -0.02 0.06 8244
0.23 0.49 0.66 -1.03 9.95 0.05 -0.01 0.06 8250
0.23 0.48 0.72 -0.70 10.00 0.06 -0.02 0.05 8256
0.25 0.38 0.69 -0.75 9.98 0.06 -0.02 0.05 8262
0.23 0.40 0.90 -1.16 10.11 0.06 -0.03 0.04 8269
0.27 0.31 0.73 -0.74 10.00 0.06 -0.03 0.04 8275
0.27 0.25 0.68 -0.76 9.97 0.05 -0.04 0.04 8282
0.32 0.19 0.72 -0.78 10.01 0.05 -0.05 0.03 8288
0.35 0.16 0.67 -0.78 10.04 0.05 -0.05 0.03 8294
0.37 0.13 0.69 -0.68 9.92 0.05 -0.05 0.03 8301
0.37 0.11 0.67 -0.78 9.98 0.05 -0.06 0.02 8307
0.41 0.08 0.66 -0.67 10.09 0.05 -0.06 0.01 8313
0.43 0.05 0.63 -0.77 10.07 0.06 -0.07 0.02 8320
0.46 0.08 0.55 -0.75 9.97 0.06 -0.07 0.02 8326
0.51 0.04 0.65 -0.95 10.05 0.06 -0.07 0.02 8332
0.57 0.02 0.63 -0.81 10.10 0.06 -0.07 0.01 8339
0.59 -0.00 0.55 -0.80 9.97 0.07 -0.07 0.01 8345
0.67 -0.02 0.64 -0.86 10.01 0.07 -0.07 -0.00 8351
0.70 -0.01 0.65 -0.86 10.02 0.07 -0.07 -0.00 8357
0.73 -0.02 0.68 -0.86 10.03 0.07 -0.07 -0.01 8364
0.77 0.00 0.67 -0.88 9.98 0.08 -0.07 -0.02 8370
0.82 -0.01 0.71 -0.89 9.92 0.08 -0.06 -0.02 8377
0.84 -0.04 0.64 -0.89 9.98 0.08 -0.06 -0.03 8383
0.88 -0.03 0.69 -0.89 9.97 0.09 -0.06 -0.04 8389
0.94 -0.05 0.58 -0.29 10.05 0.10 -0.05 -0.04 8395
0.94 -0.05 0.64 -0.92 10.00 0.10 -0.04 -0.05 8401
0.99 -0.05 0.61 -0.93 9.96 0.11 -0.04 -0.04 8408
1.03 -0.05 0.58 -0.93 10.00 0.11 -0.03 -0.04 8415
1.07 -0.05 0.62 -0.97 10.03 0.11 -0.03 -0.03 8421
1.09 -0.05 0.64 -0.98 10.07 0.11 -0.02 -0.03 8427
1.19 -0.07 0.64 -0.97 10.08 0.14 -0.01 -0.03 8433
1.24 -0.07 0.66 -1.03 10.16 0.17 -0.01 -0.04 8439
1.26 -0.05 0.76 -1.02 10.44 0.23 -0.01 -0.05 8446
1.31 -0.06 0.95 -1.13 10.43 0.32 -0.01 -0.07 8453
1.37 -0.08 0.81 -1.03 10.75 0.45 -0.02 -0.09 8459
1.41 -0.06 0.80 -1.15 11.51 0.62 -0.03 -0.11 8465
1.46 -0.07 0.77 -1.19 11.20 0.85 -0.04 -0.12 8472
1.52 -0.07 0.80 -1.39 11.64 1.06 -0.05 -0.13 8478
1.59 -0.07 0.77 -1.36 11.63 1.22 -0.06 -0.14 8484
1.67 -0.07 0.61 -1.34 11.49 1.33 -0.08 -0.14 8491
1.70 -0.07 0.67 -1.51 11.71 1.44 -0.11 -0.13 8497
1.73 -0.07 0.83 -1.64 11.86 1.56 -0.15 -0.13 8504
1.79 -0.07 0.88 -1.77 12.34 1.69 -0.19 -0.13 8510
1.84 -0.07 0.83 -1.90 12.53 1.83 -0.22 -0.13 8516
1.87 -0.08 0.87 -1.83 12.73 1.98 -0.30 -0.13 8522
1.89 -0.08 0.64 -2.02 12.89 2.16 -0.36 -0.13 8529
1.92 -0.07 0.78 -2.22 13.55 2.37 -0.38 -0.12 8536
1.94 -0.08 1.14 -2.31 13.40 2.58 -0.37 -0.15 8542
1.92 -0.05 0.72 -2.23 13.60 2.79 -0.38 -0.17 8548
1.91 -0.06 0.82 -2.47 13.84 3.02 -0.37 -0.19 8555
1.93 -0.08 0.67 -2.61 13.95 3.27 -0.33 -0.21 8561
1.91 -0.07 0.76 -2.85 14.15 3.57 -0.29 -0.23 8567
1.83 -0.08 1.08 -2.45 14.55 3.92 -0.24 -0.27 8573
1.75 -0.06 0.96 -2.84 16.21 4.18 -0.25 -0.31 8581
1.69 -0.07 1.02 -2.84 16.31 4.28 -0.32 -0.35 8587
1.53 -0.07 1.53 -3.24 17.91 4.28 -0.44 -0.42 8593
1.36 -0.05 2.79 -4.03 18.64 4.28 -0.62 -0.52 8599
1.17 -0.06 4.22 -5.35 20.25 4.28 -0.90 -0.68 8605
1.01 -0.05 3.88 -7.24 23.56 4.28 -1.07 -0.86 8612
0.93 -0.05 2.49 -10.37 28.75 4.28 -1.11 -0.99 8619
0.82 -0.05 2.59 -14.26 32.84 4.28 -1.05 -1.03 8625
0.69 -0.03 3.42 -16.94 36.33 4.28 -0.72 -0.96 8632
0.59 -0.04 3.16 -15.02 31.63 4.28 -0.39 -0.94 8638
0.45 -0.02 3.42 -13.11 29.30 4.28 -0.11 -0.95 8644
0.39 -0.02 2.00 -8.26 30.43 4.28 0.24 -0.98 8650
0.28 -0.02 1.64 -5.64 35.39 4.28 0.19 -1.07 8657
0.21 -0.02 1.14 -2.97 36.37 4.28 -0.43 -1.24 8664
0.14 -0.01 3.40 0.05 34.49 4.28 -1.08 -1.38 8670
0.11 -0.01 7.29 4.14 36.13 4.28 -1.69 -1.45 8676
0.12 -0.01 9.87 7.65 31.99 4.28 -1.83 -1.43 8682
0.09 -0.01 12.42 16.83 22.24 4.28 -1.57 -1.35 8689
0.07 -0.01 11.23 19.33 20.56 4.28 -1.12 -1.53 8695
0.08 -0.01 11.93 22.87 -5.52 4.00 -0.72 -1.97 8701
0.07 -0.01 9.00 24.05 10.43 2.40 -0.74 -2.32 8708
0.08 -0.00 11.35 18.37 31.57 0.23 0.36 -2.20 8715
0.08 -0.01 9.51 14.91 29.48 -1.78 1.10 -1.88 8721
0.06 -0.01 4.98 14.24 19.16 -2.83 1.19 -1.57 8727
0.06 -0.01 2.72 13.14 13.62 -3.41 0.88 -1.24 8733
0.06 -0.00 2.62 11.32 10.87 -3.93 0.54 -0.92 8740
0.06 0.01 2.98 9.35 9.66 -4.20 0.25 -0.69 8747
0.06 -0.01 3.92 7.71 8.08 -4.26 0.09 -0.54 8753
0.05 -0.01 4.50 6.35 7.20 -4.27 0.08 -0.43 8759
0.04 -0.00 4.57 5.14 6.70 -4.27 0.21 -0.33 8765
0.06 -0.01 4.56 4.44 6.22 -4.27 0.40 -0.26 8771
0.06 -0.01 4.59 3.70 5.98 -4.27 0.64 -0.20 8777
0.06 -0.01 4.57 3.17 6.05 -4.26 0.86 -0.16 8783
0.06 -0.01 4.21 2.75 6.63 -4.26 1.02 -0.14 8790
0.07 -0.01 3.83 2.45 7.50 -4.26 1.13 -0.13 8797
0.07 -0.01 3.58 2.17 8.52 -4.26 1.20 -0.11 8803
0.07 -0.01 3.29 2.08 9.20 -4.26 1.26 -0.07 8809
0.06 -0.01 2.96 2.01 9.88 -4.27 1.32 0.02 8815
0.07 -0.01 2.65 1.95 10.66 -4.28 1.38 0.08 8821
0.06 -0.01 2.39 1.74 11.00 -4.28 1.43 0.17 8827
0.05 -0.01 2.25 1.19 11.59 -4.28 1.46 0.26 8834
0.07 -0.01 2.18 0.56 12.36 -4.28 1.46 0.33 8841
0.07 -0.01 2.10 -0.10 13.24 -4.28 1.46 0.40 8847
0.06 -0.01 2.08 -0.70 14.20 -4.28 1.47 0.45 8853
0.06 -0.01 2.16 -1.20 15.03 -4.28 1.49 0.48 8859
0.07 -0.01 2.28 -1.60 15.78 -4.28 1.56 0.48 8865
0.07 -0.01 2.30 -2.18 16.44 -4.28 1.68 0.46 8871
0.07 -0.01 2.18 -2.87 17.10 -4.28 1.85 0.40 8879
0.07 -0.01 1.80 -3.76 17.72 -4.28 2.05 0.31 8885
0.07 -0.01 1.49 -4.87 18.33 -4.28 2.25 0.18 8891
0.06 -0.01 0.85 -5.86 18.92 -4.28 2.39 0.03 8897
0.07 -0.01 0.14 -6.53 19.40 -4.28 2.51 -0.11 8903
0.06 -0.01 -0.33 -6.93 19.66 -4.28 2.60 -0.21 8909
0.06 -0.01 -0.77 -7.18 19.98 -4.28 2.61 -0.26 8916
0.08 -0.01 -1.17 -7.44 19.96 -4.26 2.54 -0.27 8923
0.06 -0.01 -1.35 -7.64 20.14 -4.18 2.44 -0.24 8929
0.06 -0.01 -1.37 -7.77 20.67 -4.02 2.34 -0.17 8935
0.07 -0.01 -0.91 -7.78 21.78 -3.81 2.18 -0.05 8941
0.07 -0.01 -0.62 -7.69 22.84 -3.63 2.02 0.03 8947
0.05 -0.01 -0.50 -7.93 24.79 -3.54 1.90 0.16 8954
0.06 -0.01 -0.36 -8.58 26.15 -3.52 1.82 0.30 8961
0.06 -0.01 -0.21 -9.79 26.63 -3.61 1.80 0.43 8967
0.05 -0.00 -0.10 -11.14 26.27 -3.74 1.82 0.55 8973
0.05 -0.00 -0.22 -12.63 25.01 -3.86 1.90 0.66 8979
0.05 -0.01 -0.53 -14.16 23.48 -3.92 2.00 0.75 8986
0.05 -0.01 -1.05 -15.62 21.82 -3.90 2.11 0.81 8992
0.07 -0.01 -1.83 -16.96 20.38 -3.80 2.20 0.87 8998
0.06 -0.01 -2.87 -18.25 19.34 -3.62 2.24 0.94 9005
0.06 -0.01 -3.79 -19.25 18.04 -3.38 2.23 1.05 9011
0.06 -0.01 -5.36 -20.15 16.94 -3.12 2.20 1.22 9018
0.05 -0.00 -7.25 -21.48 16.35 -2.86 2.20 1.43 9024
0.06 -0.01 -8.56 -23.38 15.51 -2.64 2.11 1.58 9030
0.06 -0.01 -9.69 -26.90 13.60 -2.44 1.70 1.65 9036
0.06 -0.01 -10.10 -29.08 11.03 -2.26 1.14 1.66 9043
0.06 -0.01 -10.16 -31.40 7.14 -2.05 0.66 1.63 9050
0.06 -0.01 -9.12 -33.01 4.33 -1.78 0.36 1.54 9056
0.06 -0.01 -8.94 -34.67 2.87 -1.41 0.27 1.45 9062
0.06 -0.01 -8.07 -35.63 2.01 -0.96 0.28 1.29 9068
0.06 -0.01 -7.58 -34.53 2.00 -0.46 0.34 1.07 9075
0.05 -0.01 -7.44 -32.28 2.83 0.03 0.42 0.85 9081
0.06 -0.01 -20.44 -40.18 78.47 3.15 -1.56 0.83 9088
0.04 -0.00 -13.67 -29.44 8.54 3.13 -0.89 0.95 9094
0.05 0.02 -11.20 -24.78 -6.08 3.53 -2.00 0.87 9101
0.05 0.13 -5.98 -27.70 -3.87 3.33 -3.40 0.73 9107
0.03 0.30 -2.14 2.35 3.00 3.41 -4.05 0.58 9113
0.03 0.47 -0.77 1.48 20.98 4.19 -2.39 0.81 9119
0.01 0.83 3.26 6.55 22.91 4.28 -1.15 1.14 9125
-0.01 1.16 -5.04 0.05 27.24 4.28 -1.18 1.02 9133
0.00 1.43 -10.91 -7.96 32.81 4.28 -1.43 0.55 9139
-0.02 1.63 -4.51 -8.39 26.26 4.28 -1.44 0.13 9145
-0.01 1.69 -1.47 -5.20 27.59 4.28 -0.82 -0.07 9151
-0.02 1.68 -2.38 -2.81 23.50 3.95 -0.62 -0.27 9158
-0.02 1.66 1.67 -2.70 19.80 3.38 -0.70 -0.48 9164
0.01 1.57 4.57 -3.82 27.36 3.01 -1.39 -0.41 9170
-0.01 1.57 3.70 -1.31 15.13 1.31 -1.86 -0.06 9177
-0.00 1.59 1.02 -2.34 13.10 0.62 -1.22 0.22 9183
-0.01 1.58 -0.17 -1.68 11.70 0.25 -0.62 0.25 9190
-0.02 1.55 -0.76 -1.19 10.54 0.05 -0.22 0.16 9196
-0.00 1.53 -0.03 -1.16 10.22 -0.01 -0.10 0.08 9202
0.00 1.51 0.98 -1.37 10.15 -0.03 -0.08 0.06 9208
0.00 1.55 0.85 -1.10 10.32 -0.03 -0.08 0.08 9216
0.04 1.57 0.59 -0.87 10.31 -0.03 -0.09 0.08 9222
0.02 1.55 0.41 -0.78 10.18 -0.03 -0.09 0.06 9228
0.00 1.56 0.71 -0.77 10.12 -0.03 -0.08 0.06 9234
0.02 1.51 0.71 -0.68 9.97 -0.03 -0.07 0.07 9240
0.02 1.49 0.74 -0.64 9.98 -0.02 -0.07 0.06 9246
0.01 1.45 0.77 -0.61 9.97 -0.02 -0.07 0.06 9253
0.06 1.39 0.79 -0.64 10.00 -0.01 -0.07 0.05 9260
0.09 1.34 0.70 -0.77 10.03 0.00 -0.07 0.05 9266
0.08 1.31 0.63 -0.75 10.03 0.00 -0.07 0.05 9272
0.08 1.26 2.13 -1.41 9.71 0.00 -0.07 0.05 9278
0.09 1.18 0.61 -0.70 10.04 0.00 -0.05 0.05 9285
0.11 1.11 0.57 -0.68 10.01 0.01 -0.04 0.05 9291
0.11 1.09 0.64 -0.65 10.02 0.02 -0.03 0.05 9297
0.13 1.00 0.65 -0.68 10.03 0.02 -0.02 0.05 9304
0.12 0.89 0.72 -0.67 10.01 0.03 -0.01 0.06 9310
0.16 0.85 0.72 -0.66 10.00 0.03 -0.01 0.06 9316
0.18 0.73 0.76 -0.65 10.00 0.04 -0.01 0.05 9323
0.21 0.69 0.81 -0.81 9.87 0.04 -0.01 0.05 9329
0.22 0.66 0.73 -0.69 10.01 0.03 -0.01 0.05 9335
0.25 0.52 0.77 -0.72 10.01 0.04 -0.02 0.05 9341
0.26 0.41 0.76 -0.72 10.01 0.04 -0.01 0.04 9348
0.28 0.44 0.75 -0.75 9.95 0.04 -0.01 0.03 9355
0.30 0.37 0.77 -0.74 9.99 0.04 -0.02 0.04 9361
0.29 0.27 0.71 -0.81 9.87 0.04 -0.02 0.03 9367
0.32 0.25 0.74 -0.73 10.00 0.04 -0.01 0.03 9373
0.32 0.24 0.70 -0.77 10.01 0.04 -0.01 0.03 9379
0.36 0.20 0.53 -0.71 9.92 0.04 -0.01 0.03 9385
0.35 0.15 0.67 -0.74 9.98 0.04 -0.01 0.04 9393
0.37 0.14 0.72 -0.80 10.00 0.04 -0.00 0.04 9399
0.36 0.10 0.63 -0.81 9.99 0.05 -0.03 0.04 9405
0.37 0.10 0.74 -0.83 10.02 0.04 -0.00 0.04 9411
0.41 0.09 0.77 -0.79 9.95 0.04 -0.00 0.04 9417
0.41 0.07 0.74 -0.80 9.92 0.04 -0.00 0.04 9423
0.42 0.03 0.95 -0.90 9.97 0.04 -0.01 0.03 9430
0.45 0.04 0.81 -0.81 9.93 0.04 -0.01 0.03 9437
0.45 0.03 0.81 -0.85 9.96 0.03 -0.01 0.02 9443
0.46 -0.02 1.07 -0.74 10.22 0.03 -0.02 0.02 9449
0.45 0.01 0.78 -0.85 10.02 0.03 -0.03 0.01 9455
0.48 -0.01 0.81 -0.83 9.91 0.03 -0.04 0.01 9461
0.50 -0.01 0.80 -0.81 9.97 0.02 -0.04 0.00 9467
0.54 0.01 0.74 -0.82 9.92 0.02 -0.05 -0.00 9474
0.57 0.00 0.75 -0.84 9.94 0.02 -0.05 -0.00 9481
0.61 0.00 0.75 -0.89 9.95 0.01 -0.05 -0.01 9487
0.61 -0.01 0.74 -0.77 9.97 0.02 -0.05 -0.01 9493
0.64 -0.02 0.74 -0.84 10.02 0.02 -0.05 -0.01 9499
0.70 -0.01 0.72 -0.81 9.98 0.02 -0.04 -0.00 9505
0.73 -0.03 0.72 -0.85 10.02 0.03 -0.00 0.00 9511
0.78 -0.02 0.73 -0.82 10.09 0.03 -0.03 0.00 9519
0.80 -0.03 0.75 -0.86 10.07 0.04 -0.02 -0.00 9525
0.86 -0.04 0.81 -0.86 10.10 0.06 -0.01 -0.00 9531
0.87 -0.04 0.79 -0.83 10.11 0.09 0.01 -0.01 9537
0.93 -0.05 0.80 -0.90 10.13 0.11 0.02 -0.02 9543
0.98 -0.06 0.84 -0.91 10.16 0.15 0.04 -0.03 9550
1.03 -0.05 0.83 -0.92 10.29 0.20 0.05 -0.03 9556
1.10 -0.05 0.91 -0.88 10.36 0.27 0.06 -0.05 9563
1.17 -0.06 0.91 -1.00 10.51 0.37 0.08 -0.06 9569
1.20 -0.04 0.91 -1.16 11.02 0.55 0.11 -0.08 9575
1.27 -0.05 0.91 -1.14 11.39 0.85 0.16 -0.08 9582
1.30 -0.06 1.08 -1.26 12.09 1.22 0.20 -0.10 9588
1.35 -0.05 1.01 -1.37 12.51 1.46 0.17 -0.12 9594
1.39 -0.06 1.17 -1.54 12.95 1.72 0.10 -0.14 9601
1.44 -0.07 1.18 -1.51 12.96 1.86 -0.02 -0.15 9607
1.51 -0.05 1.09 -1.41 12.99 2.01 -0.15 -0.15 9614
1.55 -0.07 0.99 -1.63 12.81 2.15 -0.25 -0.15 9620
1.60 -0.06 0.26 -2.82 13.23 2.30 -0.33 -0.15 9626
1.62 -0.05 0.88 -2.34 14.14 2.50 -0.33 -0.17 9632
1.65 -0.06 0.43 -1.85 13.05 2.70 -0.32 -0.17 9639
1.66 -0.05 0.78 -1.91 13.15 2.92 -0.31 -0.17 9646
1.65 -0.07 1.18 -2.11 13.20 3.11 -0.28 -0.18 9652
1.64 -0.06 0.84 -2.54 13.74 3.30 -0.21 -0.20 9658
1.56 -0.06 0.70 -2.30 14.18 3.57 -0.14 -0.19 9665
1.52 -0.07 -0.70 -5.64 14.36 3.88 -0.06 -0.19 9671
1.46 -0.04 0.70 -2.78 16.89 4.19 -0.06 -0.15 9677
1.33 -0.04 1.86 -2.91 16.30 4.28 -0.11 -0.19 9683
1.17 -0.04 3.27 -3.92 17.17 4.28 -0.22 -0.32 9691
1.04 -0.05 3.57 -4.23 19.05 4.28 -0.44 -0.48 9697
0.91 -0.05 2.80 -5.32 20.91 4.28 -0.68 -0.62 9703
0.80 -0.05 3.78 -7.72 24.66 4.28 -0.92 -0.77 9709
0.74 -0.04 3.76 -9.73 28.81 4.28 -1.03 -0.88 9715
0.62 -0.04 4.24 -10.55 31.48 4.28 -1.06 -0.97 9722
0.60 -0.03 4.87 -14.85 34.54 4.28 -0.84 -0.91 9729
0.46 -0.04 4.85 -14.39 31.14 4.28 -0.55 -0.92 9735
0.35 -0.00 3.96 -11.73 29.12 4.28 -0.27 -0.98 9742
0.35 -0.01 2.81 -8.71 28.47 4.28 0.10 -0.98 9748
0.25 -0.01 1.26 -6.37 33.54 4.28 0.16 -1.05 9754
0.20 -0.01 1.53 -4.51 36.11 4.28 -0.26 -1.16 9760
0.20 -0.02 4.19 -1.82 36.36 4.28 -0.93 -1.26 9766
0.10 -0.01 6.89 2.74 35.93 4.28 -1.29 -1.29 9774
0.12 -0.01 8.66 11.20 28.71 4.28 -1.20 -1.24 9780
0.08 -0.01 13.17 18.15 22.38 4.28 -0.82 -1.22 9786
0.06 -0.00 10.79 23.14 11.85 4.13 -0.30 -1.56 9792
0.04 -0.00 10.21 25.32 -9.94 2.93 0.22 -2.35 9799
0.05 -0.00 7.48 19.45 16.36 2.14 0.47 -2.79 9805
0.06 -0.01 9.91 13.58 32.00 0.61 1.50 -2.73 9811
0.04 -0.00 7.59 14.55 29.03 -1.20 2.14 -2.55 9818
0.06 -0.01 4.30 15.84 17.97 -2.24 2.06 -2.35 9824
0.05 -0.00 1.66 14.74 12.72 -2.81 1.60 -2.08 9831
0.04 -0.00 1.20 12.77 12.88 -3.44 1.05 -1.73 9837
0.05 0.00 1.68 10.80 9.76 -3.92 0.65 -1.43 9843
0.04 -0.00 2.45 8.95 8.95 -4.09 0.35 -1.20 9849
0.04 -0.00 2.85 7.30 8.56 -4.11 0.20 -1.01 9856
0.04 -0.00 3.24 6.11 8.01 -4.11 0.17 -0.81 9862
0.05 -0.01 3.76 5.49 7.51 -4.10 0.24 -0.63 9869
0.06 -0.01 4.22 5.10 7.18 -4.09 0.38 -0.50 9875
0.05 -0.00 4.46 4.70 7.49 -4.10 0.57 -0.40 9881
0.04 -0.00 4.35 4.30 8.11 -4.13 0.74 -0.32 9887
0.06 -0.01 4.10 3.87 8.73 -4.19 0.94 -0.23 9893
0.06 -0.01 3.75 3.56 9.48 -4.23 1.12 -0.13 9900
0.05 -0.01 3.35 3.19 10.01 -4.27 1.28 -0.03 9906
0.05 -0.00 2.93 2.74 10.63 -4.28 1.39 0.09 9912
0.06 -0.01 2.49 2.17 11.24 -4.28 1.46 0.21 9919
0.04 -0.00 2.08 1.66 11.98 -4.28 1.48 0.34 9925
0.05 -0.00 1.80 0.87 12.54 -4.28 1.49 0.46 9931
0.06 -0.01 1.80 0.30 12.95 -4.28 1.47 0.56 9937
0.04 -0.00 1.50 -0.07 13.58 -4.28 1.46 0.64 9944
0.04 -0.00 1.62 -0.52 13.94 -4.28 1.44 0.70 9950
0.05 -0.01 1.64 -0.80 14.81 -4.28 1.42 0.73 9956
0.05 -0.01 1.89 -1.25 15.68 -4.28 1.48 0.72 9963
0.04 -0.00 2.11 -1.86 16.28 -4.28 1.62 0.66 9969
0.05 0.01 2.18 -2.79 17.18 -4.28 1.80 0.57 9975
0.05 -0.00 1.85 -3.83 17.87 -4.28 2.02 0.44 9981
0.04 0.00 1.58 -5.14 18.23 -4.28 2.27 0.29 9988
0.05 0.00 1.21 -6.24 18.51 -4.28 2.46 0.14 9995
0.05 -0.00 0.06 -6.92 18.91 -4.28 2.58 0.02 10001
0.05 -0.01 0.08 -7.51 19.24 -4.28 2.67 -0.05 10007
0.06 -0.01 -0.23 -7.87 19.40 -4.27 2.62 -0.07 10013
0.05 -0.00 -0.39 -7.96 19.51 -4.20 2.50 -0.04 10019
0.04 -0.00 -0.54 -7.95 19.72 -4.06 2.28 0.06 10027
0.04 -0.00 -0.32 -7.82 20.35 -3.88 2.01 0.13 10033
0.05 -0.00 0.22 -7.64 21.83 -3.75 1.75 0.26 10039
0.04 0.00 1.01 -7.84 23.22 -3.67 1.55 0.38 10045
0.05 -0.00 1.70 -8.33 24.34 -3.68 1.45 0.51 10052
0.04 -0.00 2.29 -9.47 24.70 -3.73 1.43 0.63 10058
0.05 -0.00 2.46 -10.68 24.17 -3.77 1.49 0.76 10064
0.04 -0.00 2.33 -12.00 23.29 -3.76 1.60 0.90 10071
0.05 -0.00 1.93 -13.39 22.52 -3.70 1.72 1.04 10078
0.05 -0.01 1.16 -14.88 21.96 -3.58 1.82 1.17 10084
0.04 -0.00 0.37 -16.45 21.43 -3.41 1.87 1.29 10090
0.05 -0.00 -0.64 -17.99 20.41 -3.23 1.87 1.42 10096
0.04 -0.00 -1.90 -19.36 19.13 -3.05 1.88 1.57 10103
0.05 -0.00 -3.36 -20.38 17.21 -2.85 1.93 1.73 10109
0.05 -0.01 -5.07 -21.38 16.01 -2.64 2.06 1.92 10116
0.05 -0.00 -6.18 -23.26 15.82 -2.46 2.17 2.05 10122
0.07 -0.01 -7.34 -25.56 14.84 -2.33 2.03 2.09 10129
0.06 -0.01 -8.27 -27.73 12.99 -2.21 1.71 2.04 10135
0.06 -0.00 -8.37 -29.48 10.41 -2.08 1.34 1.94 10141
0.06 -0.01 -9.11 -31.07 7.64 -1.92 1.01 1.81 10147
0.05 -0.01 -8.22 -32.79 4.81 -1.68 0.75 1.64 10155
0.06 -0.01 -8.10 -34.19 2.72 -1.33 0.59 1.44 10161
0.04 -0.00 -7.95 -34.58 1.61 -0.89 0.48 1.22 10167
0.04 -0.00 -7.58 -33.57 1.45 -0.38 0.41 1.01 10173
0.04 -0.00 -7.11 -31.49 2.38 0.11 0.34 0.81 10180
0.03 -0.00 -6.45 -28.77 4.58 0.50 0.22 0.64 10186
0.04 -0.00 -5.61 -25.61 7.55 0.84 0.05 0.50 10192
0.04 -0.00 -6.71 -29.76 3.65 1.05 -0.20 0.43 10199
0.03 -0.00 -25.23 -29.85 16.08 4.26 -2.45 0.79 10205
0.06 -0.01 -2.93 -5.63 5.57 3.73 -1.75 0.88 10212
0.04 0.09 1.85 0.70 -9.46 3.20 -2.51 0.73 10218
0.04 0.22 1.18 0.52 7.32 2.79 -3.14 0.68 10224
0.04 0.49 4.30 11.66 13.83 3.20 -2.27 1.01 10230
0.02 0.75 5.72 1.60 3.81 3.39 -1.19 1.40 10237
0.01 1.01 -0.34 -3.95 18.22 4.27 -1.30 1.47 10244
-0.01 1.27 -6.72 -10.56 24.55 4.28 -1.24 1.38 10250
-0.03 1.51 -8.32 -7.34 25.07 4.28 -1.04 1.05 10256
-0.03 1.70 -5.91 -5.33 28.98 4.28 -0.75 0.65 10263
-0.03 1.69 -7.77 -3.79 25.06 4.28 -0.74 0.07 10269
-0.03 1.70 -3.36 -5.18 33.26 4.28 -1.12 -0.58 10275
-0.03 1.69 3.20 -0.38 27.14 2.44 -3.06 -0.53 10283
0.02 1.66 3.41 -4.77 14.98 0.54 -1.32 0.04 10289
-0.00 1.69 0.29 -3.11 11.67 0.17 -0.51 0.21 10295
0.01 1.68 -0.44 -0.26 10.63 0.09 -0.27 0.17 10301
0.00 1.65 -0.05 -0.26 10.07 0.08 -0.20 0.08 10308
-0.01 1.61 0.43 -0.69 10.16 0.03 -0.16 0.07 10314
0.00 1.61 1.19 -1.50 9.94 0.01 -0.12 0.10 10320
-0.02 1.56 0.79 -0.66 9.98 0.00 -0.12 0.11 10327
-0.02 1.56 0.50 -0.88 9.98 -0.00 -0.10 0.08 10334
0.01 1.57 0.65 -0.89 9.95 -0.01 -0.08 0.07 10340
-0.00 1.50 0.77 -1.01 10.09 -0.01 -0.08 0.07 10346
0.01 1.50 0.79 -0.87 10.00 -0.01 -0.09 0.07 10352
-0.00 1.48 0.67 -0.86 10.00 -0.01 -0.10 0.07 10358
-0.02 1.47 0.69 -0.89 9.97 -0.01 -0.10 0.06 10365
0.02 1.42 0.75 -0.84 10.00 -0.00 -0.10 0.06 10372
0.02 1.34 0.66 -0.80 10.08 0.00 -0.09 0.06 10378
0.02 1.28 0.63 -0.84 10.08 0.02 -0.08 0.05 10384
0.06 1.16 0.64 -0.83 10.08 0.02 -0.07 0.05 10391
0.08 1.03 0.63 -0.82 10.06 0.03 -0.06 0.05 10397
0.09 1.02 0.64 -0.84 10.04 0.04 -0.05 0.06 10403
0.09 0.91 0.68 -0.83 10.04 0.04 -0.04 0.06 10409
0.09 0.87 0.63 -0.87 9.99 0.05 -0.03 0.06 10416
0.12 0.75 0.59 -0.94 10.04 0.05 -0.03 0.06 10423
0.13 0.65 0.63 -0.83 10.06 0.06 -0.02 0.07 10429
0.14 0.53 0.73 -0.96 9.97 0.06 -0.02 0.07 10435
0.16 0.41 0.72 -0.87 9.96 0.06 -0.02 0.06 10441
0.17 0.36 0.63 -0.51 9.94 0.06 -0.02 0.06 10448
0.17 0.34 0.73 -0.92 9.92 0.06 -0.01 0.05 10455
0.22 0.25 0.71 -0.76 9.83 0.06 -0.01 0.05 10461
0.23 0.18 0.77 -0.95 9.94 0.05 -0.01 0.04 10467
0.25 0.16 0.72 -0.96 9.92 0.05 -0.01 0.03 10473
0.27 0.17 0.75 -0.94 9.96 0.05 -0.01 0.02 10479
0.29 0.08 0.74 -0.98 10.00 0.05 -0.02 0.02 10486
0.35 0.07 0.68 -0.96 9.96 0.04 -0.01 0.02 10492
0.33 0.08 0.70 -0.97 9.99 0.05 -0.01 0.02 10499
0.34 0.04 0.64 -0.94 10.02 0.05 -0.02 0.02 10505
0.35 0.04 0.66 -1.04 9.97 0.05 -0.01 0.02 10511
0.38 0.02 0.63 -1.02 9.91 0.05 -0.02 0.02 10518
0.40 0.02 0.68 -0.98 10.10 0.06 -0.02 0.02 10524
0.41 0.06 0.68 -0.81 9.95 0.06 -0.03 0.01 10530
0.45 -0.00 0.75 -1.08 9.98 0.07 -0.03 0.00 10536
0.48 -0.03 0.75 -0.99 9.98 0.07 -0.04 -0.01 10543
0.52 -0.01 0.75 -1.04 10.01 0.08 -0.05 -0.01 10550
0.54 -0.01 0.75 -1.06 9.98 0.08 -0.05 -0.02 10556
0.54 -0.03 0.72 -1.07 9.92 0.08 -0.04 -0.03 10562
0.61 -0.03 0.72 -1.04 9.99 0.08 -0.04 -0.03 10568
0.61 -0.04 0.75 -1.05 9.97 0.07 -0.04 -0.03 10574
0.62 -0.04 0.77 -1.04 9.94 0.06 -0.04 -0.03 10582
0.65 -0.03 0.69 -1.03 9.94 0.06 -0.04 -0.03 10588
0.72 -0.04 0.78 -1.11 9.93 0.06 -0.04 -0.04 10594
0.76 -0.04 0.70 -1.09 10.03 0.07 -0.03 -0.04 10600
0.81 -0.04 0.73 -1.07 10.08 0.08 -0.03 -0.04 10606
0.89 -0.05 0.73 -1.10 10.09 0.10 -0.03 -0.04 10613
0.97 -0.05 0.80 -1.15 10.10 0.12 -0.02 -0.05 10619
0.97 -0.06 0.73 -1.17 10.22 0.15 -0.02 -0.05 10626
1.01 -0.06 0.83 -1.21 10.19 0.23 -0.00 -0.05 10632
1.10 -0.05 0.74 -1.25 10.45 0.26 0.00 -0.06 10639
1.13 -0.06 0.90 -1.29 10.49 0.36 0.01 -0.06 10645
1.17 -0.05 0.75 -1.26 10.71 0.50 0.02 -0.08 10651
1.22 -0.06 0.90 -1.39 11.01 0.69 0.03 -0.08 10657
1.27 -0.06 0.93 -1.49 11.22 0.89 0.05 -0.10 10664
1.30 -0.06 1.00 -1.56 11.67 1.09 0.03 -0.12 10671
1.36 -0.06 1.09 -1.67 12.05 1.26 -0.02 -0.14 10677
1.39 -0.05 1.00 -1.67 12.18 1.44 -0.07 -0.16 10683
1.44 -0.05 1.05 -1.77 12.33 1.58 -0.13 -0.17 10690
1.49 -0.06 0.97 -1.83 12.72 1.72 -0.17 -0.17 10696
1.54 -0.06 1.06 -1.89 12.64 1.85 -0.23 -0.17 10702
1.52 -0.05 0.64 -2.17 12.59 2.00 -0.25 -0.17 10710
1.56 -0.05 0.54 -2.41 12.59 2.18 -0.29 -0.16 10716
1.58 -0.05 -0.00 -2.21 12.80 2.38 -0.28 -0.16 10722
1.61 -0.05 0.52 -2.42 13.37 2.61 -0.26 -0.16 10728
1.63 -0.05 0.55 -2.32 13.66 2.84 -0.21 -0.16 10735
1.61 -0.06 0.71 -2.65 13.28 3.09 -0.18 -0.16 10741
1.56 -0.06 0.60 -2.79 13.72 3.31 -0.11 -0.17 10747
1.56 -0.06 0.99 -2.89 14.33 3.67 -0.06 -0.19 10755
1.50 -0.06 0.92 -3.26 15.16 4.02 0.08 -0.23 10761
1.46 -0.06 1.43 -3.08 15.38 4.26 0.08 -0.27 10767
1.35 -0.05 1.49 -2.99 16.72 4.28 0.07 -0.34 10773
1.22 -0.05 1.19 -3.80 18.67 4.28 0.02 -0.40 10780
1.06 -0.05 1.56 -4.43 20.55 4.28 -0.09 -0.44 10786
0.91 -0.05 2.65 -6.34 23.06 4.28 -0.25 -0.49 10792
0.79 -0.04 2.79 -8.86 26.50 4.28 -0.41 -0.57 10799
0.71 -0.03 2.48 -12.03 29.04 4.28 -0.36 -0.60 10806
0.58 -0.04 3.04 -14.56 35.13 4.28 -0.18 -0.54 10812
0.50 -0.03 4.05 -15.63 34.77 4.28 0.15 -0.42 10818
0.43 -0.03 2.45 -14.07 33.14 4.28 0.47 -0.43 10825
0.30 -0.02 2.89 -12.03 30.98 4.28 0.74 -0.43 10831
0.26 -0.03 0.49 -7.97 32.25 4.28 0.85 -0.50 10838
0.19 -0.02 -0.13 -5.60 36.05 4.28 0.50 -0.68 10845
0.17 -0.02 0.99 -2.72 34.33 4.28 -0.24 -0.84 10851
0.16 -0.02 4.57 1.36 35.05 4.28 -0.94 -0.95 10857
0.10 -0.01 6.57 6.44 35.71 4.28 -1.23 -0.94 10863
0.09 -0.01 9.10 13.49 29.74 4.28 -1.09 -0.87 10869
0.07 -0.01 12.11 20.61 24.68 4.28 -0.70 -1.03 10876
0.07 -0.01 8.90 22.65 12.79 4.28 -0.01 -1.60 10883
0.05 -0.01 8.87 24.77 -5.82 3.39 -0.21 -2.32 10889
0.05 -0.00 6.67 21.79 22.18 1.94 0.12 -2.61 10895
0.06 -0.01 9.23 17.97 33.96 -0.31 1.21 -2.47 10902
0.03 -0.00 7.03 16.61 26.41 -2.18 1.70 -2.33 10908
0.06 -0.01 3.19 16.20 17.62 -3.18 1.46 -2.17 10914
0.04 -0.00 1.45 14.39 13.24 -3.85 1.02 -1.91 10921
0.04 -0.00 1.30 11.70 12.39 -4.27 0.63 -1.59 10928
0.06 -0.01 2.10 9.57 10.45 -4.28 0.37 -1.33 10934
0.03 -0.00 3.01 7.79 9.00 -4.28 0.17 -1.15 10940
0.05 -0.00 3.31 5.71 8.01 -4.28 0.11 -1.01 10946
0.04 -0.00 3.30 4.85 7.28 -4.28 0.10 -0.90 10952
0.03 -0.00 3.34 3.73 7.05 -4.28 0.15 -0.78 10959
0.05 -0.01 3.74 2.96 7.08 -4.28 0.26 -0.68 10966
0.07 -0.01 4.14 2.44 7.41 -4.28 0.39 -0.60 10972
0.05 -0.01 4.25 2.23 7.61 -4.28 0.51 -0.55 10978
0.04 -0.00 4.14 2.18 8.07 -4.28 0.64 -0.49 10984
0.05 -0.01 3.89 1.94 8.61 -4.28 0.77 -0.42 10990
0.06 -0.01 3.62 1.56 9.38 -4.28 0.91 -0.33 10997
0.05 -0.01 3.34 1.04 10.01 -4.28 1.03 -0.22 11003
0.07 -0.00 3.03 0.61 10.70 -4.28 1.15 -0.10 11010
0.06 -0.01 2.82 -0.59 11.33 -4.28 1.25 0.02 11016
0.05 -0.01 2.48 -0.49 12.10 -4.28 1.30 0.15 11022
0.08 -0.01 2.29 -1.00 12.90 -4.28 1.33 0.24 11029
0.06 -0.01 2.09 -1.43 14.03 -4.28 1.36 0.35 11035
0.07 -0.01 2.04 -1.81 14.97 -4.28 1.40 0.43 11041
0.07 -0.01 1.90 -2.24 15.66 -4.28 1.47 0.48 11047
0.07 -0.01 2.02 -2.73 16.34 -4.28 1.59 0.49 11054
0.07 -0.00 1.94 -3.48 17.42 -4.28 1.77 0.45 11061
0.06 -0.01 1.78 -4.48 18.40 -4.28 1.99 0.39 11067
0.06 -0.01 1.47 -5.55 19.36 -4.28 2.20 0.29 11073
0.07 -0.01 0.99 -6.37 19.78 -4.28 2.37 0.17 11079
0.06 -0.01 0.48 -6.94 19.98 -4.28 2.50 0.06 11086
0.05 -0.01 -0.19 -7.44 20.19 -4.28 2.57 -0.03 11092
0.06 -0.01 -0.53 -8.11 20.18 -4.28 2.57 -0.08 11099
0.05 -0.01 -1.01 -8.57 20.28 -4.25 2.50 -0.09 11105
0.05 -0.00 -1.08 -8.75 21.13 -4.16 2.34 -0.05 11111
0.05 -0.01 -1.24 -8.63 21.76 -4.03 2.12 0.04 11118
0.05 -0.00 -1.16 -8.48 22.76 -3.89 1.91 0.18 11124
0.05 -0.00 -0.80 -8.62 24.10 -3.79 1.67 0.35 11130
0.05 -0.00 -0.26 -9.08 25.47 -3.76 1.45 0.53 11137
0.04 -0.00 0.25 -10.04 26.14 -3.80 1.26 0.70 11143
0.05 -0.01 0.99 -11.44 25.92 -3.87 1.17 0.91 11150
0.04 -0.00 1.73 -12.95 24.79 -3.95 1.14 1.13 11156
0.04 -0.00 2.07 -14.51 22.77 -3.99 1.17 1.32 11162
0.05 -0.01 2.07 -15.97 21.98 -3.98 1.26 1.49 11169
0.05 -0.00 1.87 -17.61 20.60 -3.89 1.40 1.61 11175
0.07 -0.01 1.15 -19.04 18.95 -3.72 1.56 1.71 11182
0.05 -0.00 -0.25 -19.78 17.10 -3.48 1.75 1.80 11188
0.06 -0.01 -2.11 -20.47 16.01 -3.22 2.04 1.90 11195
0.06 -0.01 -3.81 -21.99 15.63 -2.98 2.22 1.99 11201
0.05 -0.01 -5.52 -24.30 15.01 -2.76 2.14 2.02 11207
0.07 -0.01 -7.02 -26.83 13.49 -2.53 1.82 1.99 11213
0.06 -0.01 -7.64 -28.65 10.65 -2.29 1.36 1.91 11220
0.07 -0.00 -7.54 -30.59 7.37 -2.02 0.91 1.77 11227
0.06 -0.01 -7.06 -32.16 4.75 -1.70 0.58 1.57 11233
0.06 -0.01 -6.39 -33.31 3.44 -1.35 0.41 1.32 11239
0.06 -0.01 -5.82 -33.67 2.62 -0.95 0.39 1.04 11246
0.06 -0.01 -5.54 -32.92 2.52 -0.51 0.42 0.75 11252
0.05 -0.00 -4.51 -40.65 -0.69 0.02 0.37 0.48 11258
0.05 -0.00 -9.15 -35.08 8.42 2.49 0.14 0.40 11265
0.04 -0.00 -8.41 -29.99 0.26 2.61 -0.02 0.39 11271
0.05 0.00 -6.79 -26.62 -0.49 3.32 -1.10 0.37 11278
0.03 0.04 -6.46 -34.21 1.57 3.37 -2.37 0.46 11284
0.04 0.17 -2.73 -15.33 1.43 3.52 -3.36 0.53 11290
0.02 0.33 3.10 0.39 3.71 3.69 -3.00 0.75 11296
0.02 0.56 5.88 1.20 21.19 4.28 -1.39 1.28 11303
0.02 0.88 0.05 5.66 25.69 4.28 -0.79 1.74 11310
-0.00 1.17 -10.71 -5.32 29.92 4.28 -0.96 1.53 11316
-0.01 1.35 -10.50 -5.53 28.38 4.28 -1.35 0.95 11323
-0.00 1.42 -5.77 -6.58 24.81 4.25 -1.27 0.47 11329
0.00 1.47 -6.27 -5.16 25.20 4.08 -0.56 0.08 11335
-0.01 1.42 -3.81 -2.24 21.67 3.49 -0.45 -0.42 11342
-0.02 1.43 3.99 -3.17 26.55 2.95 -0.95 -0.75 11348
0.01 1.37 5.30 -1.54 17.77 1.33 -1.68 -0.46 11355
0.01 1.45 4.02 -2.47 12.28 0.61 -1.24 0.00 11361
-0.00 1.44 1.26 -2.48 11.70 0.37 -0.84 0.22 11368
0.01 1.41 -0.42 -1.25 11.16 0.16 -0.41 0.25 11374
0.00 1.46 -0.57 -0.91 10.71 0.02 -0.17 0.14 11380
0.02 1.46 0.42 -1.10 10.00 -0.04 -0.09 0.05 11386
-0.01 1.48 1.14 -1.28 9.99 -0.05 -0.08 0.07 11394
-0.00 1.50 0.86 -0.93 10.10 -0.05 -0.09 0.09 11400
0.03 1.50 0.42 -0.74 10.07 -0.05 -0.08 0.08 11406
0.05 1.52 0.42 -0.72 10.20 -0.05 -0.07 0.06 11412
0.02 1.57 0.64 -0.73 10.09 -0.04 -0.05 0.07 11419
0.01 1.57 0.66 -0.60 10.01 -0.04 -0.05 0.07 11425
-0.00 1.55 0.63 -0.58 10.02 -0.03 -0.05 0.07 11431
0.01 1.46 0.68 -0.67 10.04 -0.02 -0.04 0.07 11438
0.01 1.42 0.75 -0.67 9.97 -0.01 -0.04 0.06 11444
0.05 1.36 0.63 -0.62 9.96 -0.01 -0.05 0.06 11451
0.06 1.31 0.65 -0.59 10.05 -0.00 -0.04 0.06 11457
0.06 1.22 0.65 -0.64 10.07 0.01 -0.04 0.05 11463
0.07 1.19 0.53 -0.65 9.47 0.02 -0.04 0.06 11469
0.08 1.12 0.65 -0.59 10.09 0.03 -0.03 0.06 11476
0.09 1.04 0.67 -0.67 9.97 0.03 -0.03 0.06 11483
0.09 0.91 0.61 -1.23 10.05 0.03 -0.03 0.06 11489
0.09 0.87 0.64 -0.64 10.01 0.04 -0.03 0.06 11495
0.10 0.83 0.64 -0.62 9.99 0.04 -0.03 0.06 11501
0.12 0.74 0.63 -0.61 10.03 0.04 -0.04 0.06 11508
0.11 0.64 0.67 -0.68 9.98 0.04 -0.04 0.05 11514
0.15 0.58 0.68 -0.66 9.98 0.04 -0.03 0.05 11521
0.17 0.54 0.67 -0.66 9.93 0.05 -0.04 0.05 11527
0.17 0.48 0.73 -0.67 9.96 0.04 -0.05 0.04 11533
0.19 0.43 0.64 -0.74 9.94 0.04 -0.05 0.04 11540
0.17 0.39 0.69 -0.72 9.96 0.04 -0.06 0.03 11546
0.19 0.28 0.74 -0.96 10.12 0.03 -0.06 0.02 11552
0.21 0.29 0.70 -0.70 9.94 0.04 -0.07 0.02 11558
0.23 0.24 0.69 -0.67 9.93 0.03 -0.07 0.02 11565
0.25 0.20 0.69 -0.71 9.98 0.03 -0.07 0.02 11572
0.30 0.16 0.60 -0.71 10.09 0.03 -0.07 0.02 11578
0.33 0.15 0.63 -0.69 9.97 0.03 -0.07 0.01 11584
0.37 0.14 0.62 -0.73 10.01 0.03 -0.06 0.02 11590
0.38 0.10 0.61 -0.71 10.02 0.04 -0.07 0.01 11596
0.41 0.08 0.58 -0.71 9.98 0.03 -0.06 0.01 11603
0.45 0.09 0.63 -0.76 9.97 0.04 -0.06 0.01 11610
0.45 0.06 0.67 -0.76 10.04 0.04 -0.06 0.00 11616
0.49 0.02 0.70 -0.82 9.99 0.05 -0.06 -0.01 11622
0.57 0.03 0.60 -0.75 10.02 0.05 -0.06 -0.01 11628
0.61 0.03 0.69 -0.83 10.06 0.05 -0.06 -0.01 11635
0.59 0.01 0.68 -0.83 9.94 0.06 -0.06 -0.01 11641
0.69 0.00 0.63 -0.82 9.99 0.06 -0.06 -0.01 11648
0.70 -0.02 0.61 -0.80 9.98 0.06 -0.06 -0.02 11654
0.77 -0.00 0.62 -0.84 9.97 0.06 -0.05 -0.02 11660
0.78 -0.01 0.64 -0.84 10.01 0.07 -0.04 -0.02 11667
0.85 -0.02 0.63 -0.82 10.05 0.07 -0.04 -0.02 11673
0.91 -0.03 0.60 -0.81 10.04 0.08 -0.00 -0.01 11679
0.96 -0.04 0.63 -0.80 10.04 0.08 -0.03 -0.02 11685
1.02 -0.05 0.67 -0.86 10.09 0.10 -0.02 -0.02 11693
1.06 -0.03 0.75 -0.90 10.11 0.13 -0.01 -0.03 11699
1.12 -0.05 0.74 -0.92 10.28 0.17 -0.00 -0.04 11705
1.14 -0.07 0.80 -0.94 10.20 0.22 0.00 -0.06 11711
1.21 -0.07 0.88 -1.00 10.25 0.29 0.00 -0.08 11718
1.29 -0.07 0.95 -1.00 10.39 0.36 -0.01 -0.10 11724
1.34 -0.05 1.03 -1.17 10.53 0.46 -0.01 -0.13 11730
1.44 -0.07 0.92 -1.17 10.74 0.59 -0.04 -0.16 11737
1.53 -0.07 0.85 -1.15 11.17 0.79 -0.07 -0.18 11744
1.58 -0.06 1.18 -1.45 11.63 1.04 -0.10 -0.21 11750
1.63 -0.07 1.06 -1.33 12.44 1.31 -0.14 -0.25 11756
1.72 -0.07 1.00 -1.54 12.80 1.54 -0.20 -0.27 11763
1.76 -0.07 0.88 -1.49 12.89 1.69 -0.29 -0.29 11769
1.79 -0.05 1.08 -1.59 12.99 1.84 -0.37 -0.29 11776
1.87 -0.07 0.88 -1.78 13.48 2.00 -0.44 -0.28 11782
1.95 -0.07 0.70 -1.85 13.31 2.17 -0.49 -0.26 11789
1.99 -0.08 0.68 -1.26 12.93 2.35 -0.55 -0.23 11795
2.07 -0.08 0.34 -1.87 12.83 2.55 -0.56 -0.21 11801
2.12 -0.07 0.09 -1.71 13.44 2.74 -0.57 -0.18 11807
2.10 -0.08 0.69 -2.18 13.17 2.93 -0.55 -0.16 11814
2.08 -0.07 0.54 -2.55 13.84 3.12 -0.51 -0.17 11821
2.07 -0.08 0.76 -2.17 14.45 3.35 -0.42 -0.21 11827
2.05 -0.08 0.50 -2.54 14.06 3.63 -0.37 -0.23 11834
2.00 -0.07 1.06 -2.70 16.31 3.96 -0.39 -0.27 11840
1.89 -0.07 0.58 -2.87 17.48 4.23 -0.39 -0.31 11846
1.74 -0.05 1.38 -3.22 16.52 4.28 -0.62 -0.38 11852
1.57 -0.07 3.44 -3.12 18.54 4.28 -0.94 -0.53 11859
1.37 -0.05 0.93 -5.86 19.76 4.28 -1.19 -0.74 11866
1.23 -0.06 2.55 -6.09 21.99 4.28 -1.39 -0.89 11872
1.08 -0.05 1.93 -8.10 25.98 4.28 -1.63 -1.02 11879
0.98 -0.05 1.33 -12.70 29.67 4.28 -1.63 -1.08 11885
0.80 -0.05 2.88 -14.77 34.67 4.28 -1.45 -1.10 11891
0.62 -0.04 3.90 -15.55 34.61 4.28 -1.04 -1.06 11897
0.55 -0.04 3.28 -13.27 30.40 4.28 -0.77 -1.10 11905
0.40 -0.02 1.84 -9.71 29.75 4.28 -0.57 -1.14 11911
0.33 -0.03 2.50 -6.77 33.43 4.28 -0.46 -1.15 11917
0.21 -0.01 4.21 -4.12 34.85 4.28 -0.78 -1.25 11924
0.18 -0.02 6.63 -0.36 33.28 4.28 -1.24 -1.37 11930
0.13 -0.01 9.77 3.63 33.70 4.28 -1.60 -1.50 11936
0.11 -0.01 10.58 7.50 33.18 4.28 -1.60 -1.56 11942
0.09 -0.01 11.05 15.67 23.08 4.28 -1.11 -1.45 11950
0.10 -0.01 11.66 22.49 17.95 4.28 -0.65 -1.58 11956
0.05 -0.00 10.09 25.06 -5.92 3.90 -0.51 -1.91 11962
0.06 0.01 8.28 25.81 5.90 2.20 -0.75 -2.24 11969
0.06 -0.01 10.38 18.04 28.72 0.27 0.16 -2.15 11975
0.06 -0.01 9.38 13.42 29.47 -1.55 0.86 -1.84 11981
0.07 -0.01 5.61 12.81 18.89 -2.58 1.08 -1.51 11987
0.05 -0.01 3.39 12.02 12.11 -3.04 0.86 -1.20 11995
0.07 -0.00 2.94 10.41 10.15 -3.44 0.54 -0.88 12001
0.06 -0.01 3.24 8.87 8.73 -3.78 0.27 -0.63 12007
0.04 -0.00 4.15 7.39 7.50 -3.96 0.12 -0.46 12013
0.07 -0.01 4.62 6.11 6.74 -3.98 0.10 -0.32 12019
0.07 -0.01 4.78 4.99 6.48 -3.99 0.22 -0.20 12026
0.05 -0.01 4.84 3.79 6.31 -3.99 0.39 -0.10 12033
0.06 -0.01 5.07 3.89 6.29 -3.99 0.63 -0.00 12039
0.05 -0.00 5.11 3.45 6.46 -4.01 0.86 0.01 12045
0.04 -0.00 4.92 3.05 7.08 -4.06 1.08 0.04 12051
0.06 -0.00 4.58 2.61 8.11 -4.12 1.28 0.07 12057
0.05 -0.01 4.13 2.29 9.15 -4.19 1.43 0.11 12064
0.05 -0.00 3.55 2.05 9.83 -4.27 1.54 0.18 12070
0.05 -0.00 3.05 1.80 10.39 -4.28 1.58 0.28 12077
0.05 -0.01 2.45 1.43 10.91 -4.28 1.56 0.40 12083
0.05 -0.01 2.17 0.92 11.46 -4.28 1.47 0.53 12089
0.07 -0.01 2.04 0.29 11.97 -4.28 1.43 0.65 12096
0.06 -0.01 2.13 -0.11 12.43 -4.28 1.36 0.76 12102
0.05 -0.01 2.34 -0.62 12.98 -4.28 1.32 0.84 12108
0.07 -0.01 2.45 -1.00 13.43 -4.28 1.32 0.88 12114
0.06 -0.01 2.61 -1.50 13.90 -4.28 1.38 0.90 12121
0.06 -0.01 2.72 -2.11 14.72 -4.28 1.50 0.88 12128
0.07 -0.01 2.68 -2.93 15.49 -4.28 1.68 0.83 12134
0.06 -0.01 2.54 -3.76 16.35 -4.28 1.91 0.76 12140
0.06 0.00 2.22 -4.56 17.49 -4.28 2.15 0.67 12146
0.06 -0.01 1.70 -5.29 18.32 -4.28 2.39 0.56 12153
0.05 -0.01 1.06 -6.03 18.98 -4.28 2.58 0.45 12160
0.06 -0.01 0.34 -6.35 19.22 -4.28 2.69 0.35 12166
0.05 -0.00 -0.12 -6.54 19.58 -4.28 2.73 0.28 12172
0.04 -0.00 -0.51 -6.74 19.92 -4.27 2.70 0.25 12178
0.07 -0.01 -0.76 -6.91 20.19 -4.24 2.62 0.25 12185
0.05 -0.00 -0.86 -7.21 20.59 -4.20 2.50 0.28 12191
0.05 -0.00 -0.93 -7.66 20.72 -4.08 2.33 0.31 12197
0.05 -0.01 -0.94 -8.12 21.07 -3.99 2.13 0.34 12204
0.05 -0.00 -0.74 -8.67 21.52 -3.84 1.90 0.38 12210
0.05 -0.00 -0.24 -9.19 21.87 -3.70 1.69 0.40 12217
0.06 -0.01 0.23 -9.67 21.93 -3.57 1.53 0.43 12223
0.05 -0.00 0.62 -10.24 22.02 -3.47 1.41 0.48 12229
0.07 -0.01 0.99 -10.86 21.55 -3.37 1.36 0.54 12235
0.06 -0.01 1.06 -11.46 21.36 -3.26 1.34 0.62 12242
0.06 -0.00 0.84 -12.07 21.53 -3.15 1.40 0.73 12249
0.06 -0.01 0.57 -12.62 21.82 -3.05 1.43 0.85 12255
0.06 -0.01 0.15 -13.21 22.24 -2.99 1.52 0.99 12262
0.07 -0.01 -0.55 -14.18 22.24 -2.96 1.57 1.14 12268
0.06 -0.01 -1.58 -15.61 21.48 -2.98 1.54 1.32 12274
0.07 -0.01 -2.35 -16.92 19.80 -3.01 1.48 1.52 12280
0.06 -0.01 -3.35 -18.19 17.60 -3.02 1.49 1.75 12288
0.06 -0.01 -4.49 -20.01 16.16 -3.00 1.65 1.97 12294
0.07 -0.01 -5.46 -22.49 13.71 -2.93 1.75 2.11 12300
0.06 -0.01 -6.64 -26.20 12.10 -2.78 1.65 2.14 12306
0.08 -0.01 -7.81 -28.45 8.98 -2.58 1.43 2.10 12313
0.07 -0.01 -8.86 -30.24 5.53 -2.29 1.21 1.97 12319
0.07 -0.00 -8.69 -32.80 3.30 -1.90 1.04 1.77 12325
0.07 -0.01 -8.71 -33.56 1.45 -1.45 0.95 1.51 12332
0.06 -0.01 -8.67 -33.87 1.01 -0.94 0.90 1.17 12339
0.07 -0.00 -8.61 -32.72 1.55 -0.42 0.85 0.81 12345
0.07 -0.01 -8.70 -30.43 2.74 0.08 0.74 0.50 12351
0.06 -0.01 -8.88 -27.74 4.46 0.52 0.52 0.24 12357
0.07 -0.01 -8.69 -24.78 6.81 0.87 0.19 0.03 12363
0.06 -0.01 -10.71 -32.65 -1.03 1.12 -0.35 -0.05 12370
0.06 -0.01 -16.32 -28.35 8.40 4.02 -2.41 0.31 12377
0.06 -0.01 -7.47 -11.29 9.96 3.64 -2.70 0.36 12383
0.04 0.05 -0.06 -6.61 -6.66 3.18 -3.41 0.22 12389
0.05 0.22 2.97 1.19 1.58 2.88 -3.86 0.17 12396
0.04 0.35 6.45 6.13 19.68 3.49 -2.32 0.59 12402
0.02 0.65 7.96 8.15 14.18 3.69 -0.55 1.30 12408
0.02 0.90 -2.97 -2.38 18.58 4.16 -0.56 1.45 12414
-0.01 1.22 -10.22 -7.52 23.20 4.28 -1.04 1.14 12422
-0.00 1.39 -8.54 -6.15 22.76 4.28 -1.46 0.71 12428
-0.01 1.49 -3.73 -5.42 25.93 4.28 -1.01 0.37 12434
-0.02 1.55 -4.79 -3.86 25.62 4.24 -0.68 0.04 12441
-0.03 1.60 -2.52 -2.83 22.78 3.80 -0.85 -0.44 12447
-0.03 1.54 4.06 -3.88 25.90 3.57 -1.11 -0.63 12453
-0.01 1.60 4.17 -0.58 20.76 1.56 -1.96 -0.31 12460
-0.02 1.59 2.89 -2.93 12.84 0.54 -1.09 0.12 12467
0.01 1.58 -0.11 -2.05 11.93 0.21 -0.53 0.26 12473
-0.01 1.57 -0.84 -0.91 10.90 0.06 -0.20 0.19 12479
-0.01 1.58 -0.15 -0.70 10.16 0.00 -0.09 0.07 12485
-0.01 1.56 0.97 -1.19 10.08 -0.02 -0.05 0.04 12492
0.00 1.53 1.05 -1.29 10.06 -0.03 -0.06 0.07 12498
0.01 1.57 0.60 -0.90 10.17 -0.03 -0.08 0.08 12505
0.02 1.59 0.38 -0.74 10.15 -0.04 -0.08 0.06 12511
0.02 1.59 0.93 -1.25 10.03 -0.04 -0.05 0.06 12518
0.02 1.59 0.82 -0.75 10.03 -0.04 -0.06 0.06 12524
0.01 1.56 0.73 -0.68 9.97 -0.03 -0.06 0.06 12530
0.02 1.51 0.70 -0.65 9.95 -0.02 -0.07 0.06 12536
0.03 1.46 0.72 -0.72 9.99 -0.02 -0.07 0.04 12544
0.03 1.44 0.72 -0.71 10.08 -0.01 -0.06 0.05 12550
0.05 1.37 0.64 -0.71 10.10 -0.01 -0.06 0.05 12556
0.08 1.30 0.63 -0.68 10.03 0.01 -0.05 0.05 12562
0.10 1.29 0.67 -0.67 10.08 0.01 -0.04 0.05 12569
0.13 1.16 0.71 -0.70 10.07 0.02 -0.04 0.05 12575
0.16 1.07 0.70 -0.71 10.02 0.03 -0.04 0.05 12581
0.18 1.01 0.70 -0.72 10.02 0.03 -0.04 0.06 12588
0.18 0.92 0.68 -0.69 10.04 0.03 -0.04 0.05 12594
0.19 0.80 0.68 -0.70 10.04 0.03 -0.04 0.06 12601
0.20 0.69 0.72 -0.72 10.00 0.04 -0.03 0.05 12607
0.22 0.62 0.68 -0.72 10.04 0.04 -0.03 0.05 12613
0.23 0.55 0.69 -0.73 9.99 0.04 -0.03 0.05 12619
0.25 0.44 0.70 -0.78 10.09 0.04 -0.03 0.05 12626
0.26 0.43 0.71 -0.71 9.98 0.04 -0.03 0.04 12633
0.29 0.41 0.70 -0.77 10.02 0.04 -0.03 0.04 12639
0.29 0.35 0.88 -1.24 10.12 0.04 -0.03 0.03 12645
0.29 0.30 0.72 -0.73 10.00 0.04 -0.03 0.03 12652
0.30 0.25 0.73 -0.77 9.99 0.03 -0.03 0.02 12658
0.34 0.16 0.71 -0.77 9.95 0.04 -0.03 0.02 12664
0.33 0.19 0.68 -0.78 9.99 0.03 -0.03 0.02 12670
0.32 0.15 0.67 -0.80 9.98 0.03 -0.03 0.02 12677
0.33 0.11 0.68 -0.79 10.00 0.03 -0.03 0.02 12683
0.34 0.14 0.68 -0.78 10.04 0.03 -0.03 0.03 12690
0.37 0.12 0.69 -0.78 10.00 0.04 -0.03 0.03 12696
0.35 0.11 0.69 -0.82 10.05 0.04 -0.03 0.02 12702
0.40 0.07 0.75 -0.81 9.99 0.04 -0.03 0.02 12708
0.44 0.06 0.73 -0.81 9.94 0.04 -0.03 0.02 12716
0.45 0.08 0.73 -0.83 9.98 0.04 -0.03 0.01 12722
0.49 0.02 0.77 -0.84 9.98 0.04 -0.03 0.01 12728
0.50 0.01 0.76 -0.83 9.97 0.04 -0.04 0.00 12734
0.51 0.01 0.67 -0.83 9.97 0.04 -0.04 -0.00 12740
0.56 0.01 0.72 -0.83 9.98 0.04 -0.04 -0.00 12746
0.59 -0.02 0.72 -0.83 9.99 0.04 -0.03 -0.01 12753
0.60 -0.02 0.70 -0.85 9.98 0.04 -0.03 -0.01 12760
0.64 0.00 0.72 -0.86 9.96 0.04 -0.03 -0.01 12766
0.65 -0.03 0.73 -0.84 9.98 0.04 -0.02 -0.01 12772
0.68 -0.00 0.67 -0.84 9.98 0.03 -0.02 -0.01 12778
0.73 -0.02 0.66 -0.82 9.99 0.04 -0.02 -0.00 12785
0.76 -0.02 0.73 -0.87 9.98 0.04 -0.02 -0.00 12791
0.76 -0.02 0.73 -0.86 10.03 0.03 -0.03 0.00 12797
0.80 -0.02 0.73 -0.89 10.03 0.04 -0.03 0.01 12804
0.85 -0.03 0.77 -0.88 10.06 0.05 -0.03 -0.00 12810
0.90 -0.03 0.76 -0.93 10.07 0.07 -0.04 0.00 12817
0.93 -0.04 0.76 -0.89 10.07 0.09 -0.03 -0.01 12823
1.00 -0.05 0.80 -0.91 10.13 0.11 -0.03 -0.02 12829
1.07 -0.05 0.79 -0.95 10.18 0.15 -0.01 -0.07 12835
1.13 -0.05 0.83 -0.94 10.30 0.20 -0.00 -0.05 12843
1.19 -0.05 0.85 -1.03 10.28 0.26 0.01 -0.07 12849
1.24 -0.06 1.00 -1.05 10.46 0.33 0.01 -0.09 12855
1.26 -0.05 1.00 -1.08 10.65 0.45 0.00 -0.11 12861
1.33 -0.06 0.94 -1.21 10.49 0.63 -0.00 -0.14 12868
1.39 -0.06 1.03 -1.16 11.41 0.91 -0.00 -0.15 12874
1.42 -0.06 1.05 -1.36 12.78 1.24 -0.00 -0.17 12880
1.50 -0.06 0.75 -1.30 12.78 1.52 -0.04 -0.18 12887
1.56 -0.06 0.93 -1.44 12.82 1.70 -0.12 -0.18 12894
1.59 -0.06 0.81 -1.65 12.91 1.85 -0.19 -0.18 12900
1.61 -0.06 0.74 -1.54 12.91 2.00 -0.23 -0.17 12906
1.64 -0.05 0.77 -1.69 12.84 2.15 -0.28 -0.14 12913
1.67 -0.06 0.82 -1.71 12.52 2.30 -0.32 -0.17 12919
1.66 -0.05 0.67 -2.03 13.41 2.48 -0.33 -0.12 12925
1.69 -0.06 0.79 -2.02 13.23 2.65 -0.36 -0.12 12932
1.71 -0.06 0.86 -2.18 13.02 2.84 -0.34 -0.13 12939
1.69 -0.05 0.96 -2.51 13.06 3.02 -0.34 -0.14 12945
1.66 -0.06 0.93 -2.77 13.40 3.22 -0.33 -0.16 12951
1.64 -0.06 0.88 -2.71 13.99 3.45 -0.27 -0.19 12958
1.58 -0.07 0.80 -2.91 14.27 3.74 -0.23 -0.21 12964
1.55 -0.05 -3.13 -3.54 16.00 4.05 -0.22 -0.24 12971
1.46 -0.07 1.27 -2.52 15.83 4.26 -0.21 -0.23 12977
1.31 -0.05 2.46 -4.26 17.07 4.28 -0.30 -0.31 12984
1.23 -0.05 3.36 -4.09 17.97 4.28 -0.43 -0.45 12990
1.03 -0.05 3.29 -5.51 19.68 4.28 -0.61 -0.58 12996
0.95 -0.05 3.22 -6.81 22.66 4.28 -0.78 -0.69 13003
0.87 -0.07 2.54 -9.22 26.54 4.28 -0.89 -0.78 13009
0.75 -0.04 2.63 -12.39 30.30 4.28 -0.81 -0.81 13016
0.64 -0.04 2.57 -15.14 32.97 4.28 -0.54 -0.76 13022
0.57 -0.02 3.45 -14.86 31.69 4.28 -0.21 -0.71 13029
0.46 -0.03 3.42 -12.24 27.95 4.28 0.03 -0.73 13035
0.39 -0.02 2.33 -8.55 26.46 4.28 0.36 -0.74 13041
0.27 -0.02 1.13 -6.58 30.80 4.28 0.57 -0.81 13048
0.19 -0.01 0.46 -5.41 35.56 4.28 0.14 -0.92 13054
0.20 -0.02 2.20 -3.00 33.39 4.28 -0.55 -1.08 13061
0.15 -0.01 4.93 -0.12 34.08 4.28 -1.20 -1.17 13067
0.11 -0.01 6.58 5.13 31.48 4.28 -1.38 -1.16 13074
0.08 -0.01 8.71 14.06 21.59 4.28 -1.23 -1.07 13080
0.07 -0.01 12.11 19.58 18.81 4.28 -0.93 -1.19 13086
0.07 -0.01 9.72 23.86 6.02 3.94 -0.35 -1.61 13092
0.05 -0.01 8.88 24.82 -5.51 2.64 -0.29 -2.24 13100
0.04 -0.00 7.88 16.72 23.16 1.69 0.29 -2.39 13106
0.06 -0.01 10.36 12.82 32.44 -0.11 1.11 -2.21 13112
0.03 -0.00 7.72 14.25 24.03 -1.80 1.68 -1.99 13118
0.08 -0.01 4.12 14.82 15.57 -2.65 1.44 -1.76 13125
0.06 -0.01 1.49 12.86 12.64 -3.21 0.96 -1.48 13131
0.07 0.01 2.22 10.77 10.85 -3.81 0.52 -1.19 13137
0.07 -0.01 2.91 9.04 9.61 -4.16 0.23 -0.97 13145
0.05 -0.01 3.46 7.38 8.92 -4.23 0.08 -0.79 13151
0.08 -0.01 3.61 6.08 8.19 -4.25 0.01 -0.63 13157
0.05 -0.01 3.74 4.97 7.89 -4.25 0.04 -0.49 13163
0.05 -0.01 4.12 4.31 7.69 -4.25 0.13 -0.36 13169
0.06 0.00 4.52 3.97 7.76 -4.25 0.26 -0.26 13175
0.06 -0.01 4.69 3.64 8.02 -4.26 0.40 -0.19 13181
0.05 -0.00 4.62 3.30 8.44 -4.28 0.57 -0.14 13189
0.06 -0.00 4.48 3.08 8.95 -4.28 0.72 -0.08 13195
0.06 -0.01 4.22 2.72 9.45 -4.28 0.87 -0.02 13201
0.06 -0.01 3.95 2.37 9.82 -4.28 1.01 0.06 13207
0.06 -0.01 3.51 1.99 10.46 -4.28 1.11 0.15 13213
0.07 -0.01 3.05 1.44 10.96 -4.28 1.23 0.26 13220
0.06 -0.01 2.69 0.77 11.41 -4.28 1.32 0.36 13227
0.06 -0.00 2.39 0.17 11.99 -4.28 1.36 0.44 13233
0.06 -0.01 2.03 -0.31 12.68 -4.28 1.35 0.53 13239
0.06 -0.01 1.83 -0.69 14.08 -4.28 1.32 0.55 13245
0.08 -0.01 1.78 -1.07 14.23 -4.28 1.33 0.57 13252
0.07 -0.01 1.79 -1.51 15.21 -4.28 1.36 0.57 13258
0.06 -0.01 1.89 -2.23 16.01 -4.28 1.44 0.52 13264
0.07 -0.01 1.80 -2.99 17.02 -4.28 1.57 0.44 13271
0.06 -0.01 1.79 -3.70 17.95 -4.28 1.74 0.32 13278
0.06 0.00 1.52 -4.54 18.82 -4.28 1.94 0.19 13284
0.06 -0.01 1.09 -5.40 19.40 -4.28 2.15 0.03 13290
0.05 -0.00 0.64 -6.11 19.67 -4.28 2.32 -0.11 13296
0.06 -0.01 0.05 -6.55 19.96 -4.28 2.43 -0.22 13302
0.05 -0.01 -0.37 -7.00 20.05 -4.28 2.48 -0.29 13309
0.05 -0.00 -0.64 -7.38 20.17 -4.28 2.46 -0.30 13316
0.06 -0.01 -0.67 -7.55 20.37 -4.27 2.37 -0.26 13322
0.05 -0.01 -0.81 -7.96 20.71 -4.19 2.25 -0.17 13328
0.05 -0.00 -0.95 -8.14 21.22 -4.05 2.16 -0.05 13334
0.05 -0.01 -0.83 -8.44 21.97 -3.83 2.01 0.08 13341
0.05 -0.00 -0.62 -9.70 22.74 -3.64 1.89 0.21 13347
0.05 0.00 -0.54 -9.95 23.37 -3.49 1.70 0.33 13353
0.04 -0.00 -0.50 -10.95 23.49 -3.38 1.50 0.46 13360
0.04 -0.00 -0.45 -11.88 22.69 -3.32 1.31 0.55 13367
0.07 -0.01 -0.29 -12.75 22.64 -3.26 1.13 0.69 13373
0.06 -0.01 -0.22 -13.75 21.53 -3.19 0.99 0.79 13379
0.06 0.00 -0.20 -14.78 20.81 -3.08 0.93 0.92 13385
0.06 -0.01 -0.23 -15.66 20.32 -2.97 0.97 1.05 13392
0.05 -0.00 -0.10 -16.33 19.29 -2.89 1.16 1.18 13399
0.07 -0.01 -0.90 -16.58 17.47 -2.83 1.52 1.35 13405
0.06 -0.01 -2.40 -17.15 16.97 -2.80 2.14 1.57 13412
0.08 -0.00 -3.72 -19.55 17.20 -2.80 2.65 1.75 13418
0.07 -0.01 -5.59 -22.18 16.49 -2.82 2.67 1.86 13424
0.07 -0.00 -7.55 -25.36 14.69 -2.79 2.33 1.92 13431
0.08 -0.01 -8.26 -27.99 11.76 -2.67 1.76 1.95 13437
0.07 0.00 -9.52 -30.25 7.58 -2.45 1.25 1.92 13444
0.08 -0.01 -8.67 -32.25 3.52 -2.10 0.92 1.79 13450
0.07 -0.01 -8.42 -34.24 1.57 -1.67 0.66 1.57 13456
0.07 -0.00 -8.06 -34.02 1.30 -1.18 0.53 1.27 13463
0.07 -0.01 -7.69 -32.88 2.17 -0.67 0.48 0.90 13469
0.07 -0.01 -10.95 -46.20 26.11 0.21 0.11 0.59 13475
0.07 -0.01 -8.12 -32.69 -3.80 2.13 -0.08 0.41 13481
0.05 -0.01 -10.41 -26.19 3.12 2.59 -0.77 0.18 13489
0.07 -0.01 -11.36 -28.35 2.42 2.87 -1.66 0.06 13495
0.07 0.05 -9.43 -33.07 4.00 3.01 -3.08 -0.01 13501
0.07 0.19 -5.12 -12.92 -3.19 2.94 -4.20 -0.03 13508
0.05 0.32 2.62 2.63 12.16 3.34 -3.49 0.23 13514
0.02 0.56 6.57 4.04 22.55 4.19 -1.30 0.85 13520
0.03 0.87 4.05 1.34 20.14 4.28 -0.30 1.29 13527
-0.00 1.15 -7.90 -4.82 28.13 4.28 -0.68 1.08 13534
-0.00 1.32 -9.88 -7.17 28.71 4.28 -1.24 0.55 13540
-0.00 1.38 -3.36 -4.87 22.87 4.15 -1.17 0.20 13546
-0.01 1.43 -3.00 -3.69 23.16 3.83 -0.50 0.01 13552
-0.01 1.43 -4.07 -2.02 19.85 3.23 -0.35 -0.36 13559
-0.02 1.46 1.25 -2.08 17.69 2.84 -0.54 -0.65 13565
0.01 1.37 5.34 -2.50 25.23 2.47 -1.34 -0.53 13572
-0.00 1.37 4.30 -1.58 13.32 1.04 -1.57 -0.08 13579
-0.00 1.37 1.45 -2.08 12.68 0.52 -1.00 0.18 13585
-0.00 1.33 0.18 -1.29 11.16 0.21 -0.52 0.23 13591
-0.01 1.28 -0.18 -0.77 10.72 0.04 -0.21 0.15 13597
-0.00 1.36 0.07 -0.83 10.27 -0.02 -0.12 0.06 13604
-0.01 1.37 0.83 -0.69 10.16 -0.04 -0.10 0.04 13611
0.02 1.42 1.07 -1.08 10.22 -0.04 -0.10 0.06 13617
0.03 1.48 0.68 -0.82 10.05 -0.04 -0.11 0.06 13623
0.02 1.46 0.49 -0.62 10.09 -0.04 -0.12 0.06 13630
0.03 1.49 0.58 -0.72 10.09 -0.05 -0.11 0.05 13636
0.01 1.46 -0.90 0.35 10.03 -0.05 -0.09 0.06 13642
0.06 1.42 0.67 -0.58 9.94 -0.03 -0.08 0.05 13648
0.06 1.37 0.65 -0.63 9.99 -0.03 -0.08 0.05 13656
0.04 1.34 0.72 -0.64 10.12 -0.02 -0.07 0.04 13662
0.07 1.29 0.61 -0.75 9.16 -0.02 -0.06 0.04 13668
0.08 1.22 0.72 -0.64 10.04 -0.01 -0.06 0.04 13674
0.08 1.18 0.68 -0.66 10.04 0.01 -0.05 0.04 13680
0.10 1.15 0.74 -0.68 10.10 0.01 -0.06 0.03 13687
0.11 1.04 0.71 -0.71 10.03 0.02 -0.06 0.04 13693
0.12 1.02 0.68 -0.70 10.07 0.02 -0.06 0.04 13700
0.13 0.94 0.70 -0.66 10.07 0.03 -0.05 0.04 13706
0.16 0.85 0.77 -0.70 10.05 0.03 -0.05 0.04 13713
0.19 0.73 0.75 -0.68 10.00 0.03 -0.05 0.04 13719
0.19 0.64 0.75 -0.66 10.04 0.04 -0.05 0.04 13725
0.19 0.62 0.77 -0.70 10.04 0.04 -0.04 0.04 13731
0.19 0.59 0.78 -0.69 9.97 0.04 -0.04 0.04 13739
0.20 0.52 0.78 -0.73 10.02 0.04 -0.04 0.03 13745
0.21 0.45 0.80 -0.75 10.03 0.04 -0.04 0.03 13751
0.23 0.33 0.77 -0.73 9.98 0.04 -0.04 0.02 13757
0.25 0.33 0.71 -0.75 9.92 0.03 -0.05 0.02 13763
0.30 0.29 0.65 -0.83 10.05 0.04 -0.04 0.01 13770
0.27 0.21 0.66 -0.72 9.98 0.04 -0.04 0.02 13776
0.30 0.24 0.64 -0.74 10.03 0.04 -0.03 0.01 13783
0.35 0.21 0.64 -0.77 9.98 0.04 -0.03 0.02 13789
0.34 0.13 0.65 -0.76 10.00 0.04 -0.03 0.02 13795
0.36 0.13 0.67 -0.69 10.03 0.04 -0.02 0.02 13802
0.40 0.10 0.70 -0.76 10.02 0.05 -0.02 0.03 13808
0.43 0.09 0.74 -0.80 10.02 0.06 -0.02 0.03 13814
0.47 0.06 0.75 -0.76 10.02 0.06 -0.02 0.02 13820
0.46 0.04 0.75 -0.82 10.01 0.07 -0.02 0.03 13828
0.49 0.02 0.78 -0.77 10.05 0.07 -0.03 0.01 13834
0.50 0.04 0.77 -0.81 9.90 0.08 -0.02 0.01 13840
0.51 -0.01 0.81 -0.78 10.01 0.08 -0.03 0.00 13846
0.50 0.00 0.77 -0.84 10.08 0.08 -0.03 -0.00 13852
0.55 0.01 0.74 -0.84 9.94 0.08 -0.03 -0.00 13859
0.58 -0.03 0.78 -0.85 10.00 0.07 -0.03 -0.01 13865
0.62 -0.00 0.78 -0.91 9.97 0.08 -0.02 -0.01 13872
0.66 -0.02 0.76 -0.85 10.01 0.08 -0.01 -0.01 13878
0.69 -0.04 0.75 -0.86 10.04 0.09 -0.01 -0.02 13885
0.73 -0.02 0.73 -0.83 10.01 0.09 0.00 -0.02 13891
0.76 -0.05 0.74 -0.88 9.97 0.09 0.01 -0.02 13897
0.77 -0.04 0.76 -0.88 9.98 0.10 0.01 -0.02 13903
0.82 -0.04 0.77 -0.94 10.00 0.11 0.02 -0.02 13910
0.86 -0.05 0.80 -0.93 10.12 0.12 0.02 -0.02 13917
0.94 -0.04 0.76 -0.93 10.10 0.15 0.02 -0.01 13923
0.98 -0.05 0.87 -0.97 10.10 0.18 0.02 -0.02 13929
1.01 -0.05 0.84 -0.95 10.25 0.24 0.02 -0.03 13935
1.10 -0.05 0.95 -1.06 10.35 0.32 0.01 -0.03 13942
1.15 -0.06 0.86 -1.10 10.53 0.41 0.01 -0.04 13948
1.24 -0.06 0.93 -1.08 10.66 0.55 0.01 -0.05 13955
1.33 -0.06 0.98 -1.22 11.16 0.76 0.01 -0.06 13961
1.38 -0.07 1.01 -1.24 11.60 0.99 0.01 -0.08 13968
1.41 -0.06 1.05 -1.37 11.77 1.21 0.01 -0.10 13974
1.47 -0.05 1.09 -1.53 11.96 1.41 -0.02 -0.13 13980
1.57 -0.05 1.21 -1.60 12.53 1.57 -0.08 -0.15 13986
1.61 -0.05 1.18 -1.86 12.82 1.71 -0.15 -0.16 13993
1.65 -0.06 0.83 -1.50 12.17 1.84 -0.22 -0.15 14000
1.72 -0.06 0.88 -1.68 12.24 1.97 -0.29 -0.14 14006
1.73 -0.07 0.66 -1.85 13.28 2.12 -0.34 -0.14 14013
1.77 -0.06 0.69 -2.05 13.42 2.32 -0.36 -0.14 14019
1.80 -0.06 0.60 -1.62 13.45 2.53 -0.39 -0.13 14025
1.85 -0.05 0.71 -1.98 13.57 2.74 -0.39 -0.13 14031
1.84 -0.06 0.72 -2.33 13.74 2.96 -0.37 -0.14 14039
1.83 -0.06 0.74 -2.48 14.10 3.20 -0.35 -0.15 14045
1.80 -0.06 0.80 -2.51 13.81 3.49 -0.32 -0.17 14051
1.72 -0.07 1.01 -2.69 14.43 3.80 -0.28 -0.20 14057
1.70 -0.05 0.75 -2.77 15.37 4.10 -0.24 -0.24 14064
1.58 -0.07 0.66 -2.89 16.64 4.27 -0.26 -0.25 14070
1.52 -0.06 1.50 -3.22 17.25 4.28 -0.35 -0.28 14076
1.39 -0.06 3.16 -3.70 18.91 4.28 -0.52 -0.43 14084
1.23 -0.06 3.66 -4.43 20.21 4.28 -0.78 -0.61 14090
1.03 -0.04 3.83 -5.91 22.55 4.28 -0.99 -0.79 14096
0.94 -0.05 3.03 -8.79 27.71 4.28 -1.15 -0.93 14102
0.87 -0.04 3.94 -12.27 31.95 4.28 -1.19 -0.98 14109
0.72 -0.04 4.09 -15.88 35.79 4.28 -1.00 -0.98 14115
0.62 -0.02 4.82 -15.77 33.29 4.28 -0.67 -0.94 14121
0.49 -0.03 4.39 -13.66 30.91 4.28 -0.33 -1.00 14129
0.42 -0.01 3.48 -9.84 29.69 4.28 0.04 -1.06 14135
0.31 -0.02 1.59 -5.93 31.15 4.28 0.10 -1.13 14141
0.23 -0.02 0.93 -3.23 35.45 4.28 -0.22 -1.25 14148
0.17 -0.02 3.04 -0.99 35.04 4.28 -0.96 -1.36 14154
0.13 -0.01 5.68 2.20 35.85 4.28 -1.60 -1.41 14160
0.12 -0.01 8.60 6.96 33.12 4.28 -1.76 -1.37 14167
0.08 -0.01 11.12 13.79 22.21 4.28 -1.56 -1.31 14174
0.06 -0.01 13.31 19.42 18.63 4.28 -1.14 -1.61 14180
0.05 -0.01 11.50 22.91 -3.60 4.10 -0.36 -2.25 14186
0.06 -0.01 9.82 24.21 6.32 3.00 -0.43 -2.75 14192
0.10 -0.01 10.62 17.32 31.10 1.39 0.79 -2.74 14199
0.08 -0.01 10.50 14.92 31.80 -0.72 1.88 -2.47 14205
0.07 -0.01 6.10 15.47 21.14 -2.15 2.01 -2.16 14212
0.08 -0.01 2.05 14.78 16.36 -2.94 1.53 -1.82 14219
0.06 -0.01 2.01 13.18 13.33 -3.61 0.95 -1.43 14225
0.08 -0.01 2.45 10.95 11.82 -4.13 0.51 -1.07 14231
0.06 -0.01 3.27 8.99 10.38 -4.26 0.22 -0.77 14237
0.07 -0.01 3.90 7.62 9.33 -4.28 0.10 -0.51 14243
0.06 -0.01 4.35 6.42 8.38 -4.28 0.11 -0.24 14251
0.05 -0.01 4.78 5.71 7.74 -4.28 0.24 -0.09 14257
0.06 0.00 5.26 5.08 7.46 -4.28 0.44 0.07 14263
0.06 -0.01 5.53 4.52 7.76 -4.28 0.71 0.18 14269
0.06 -0.01 5.43 4.12 8.65 -4.28 1.00 0.26 14275
0.07 0.00 5.00 3.70 9.44 -4.28 1.28 0.31 14281
0.07 -0.01 4.40 3.22 10.06 -4.28 1.51 0.36 14288
0.05 -0.00 3.59 2.78 10.47 -4.28 1.69 0.42 14295
0.06 -0.00 2.82 2.06 10.70 -4.28 1.80 0.47 14301
0.06 -0.01 2.12 1.38 11.15 -4.28 1.84 0.53 14307
0.05 -0.01 1.55 0.67 11.60 -4.28 1.79 0.59 14314
0.07 -0.01 1.06 0.04 12.26 -4.28 1.70 0.65 14320
0.06 -0.01 0.84 -0.33 13.09 -4.28 1.57 0.69 14326
0.05 -0.01 0.76 -0.51 13.93 -4.28 1.46 0.72 14332
0.08 -0.01 0.86 -0.62 14.68 -4.28 1.41 0.72 14339
0.07 -0.01 0.88 -0.65 15.41 -4.28 1.44 0.69 14346
0.07 -0.01 0.95 -0.92 16.08 -4.28 1.57 0.63 14352
0.07 -0.01 0.80 -1.38 17.06 -4.28 1.81 0.52 14358
0.06 -0.01 0.48 -2.23 18.26 -4.28 2.11 0.39 14364
0.06 -0.00 0.00 -3.49 19.38 -4.28 2.41 0.23 14370
0.06 -0.01 -0.73 -4.79 20.39 -4.28 2.67 0.06 14377
0.06 -0.01 -1.60 -5.86 21.25 -4.28 2.88 -0.09 14384
0.07 -0.00 -2.71 -6.62 21.83 -4.28 2.99 -0.19 14390
0.06 -0.01 -3.53 -7.11 21.88 -4.28 2.97 -0.20 14396
0.06 -0.01 -4.05 -7.28 21.59 -4.28 2.83 -0.15 14403
0.07 -0.01 -4.12 -7.06 21.32 -4.28 2.55 -0.04 14409
0.05 -0.00 -4.08 -7.00 20.91 -4.25 2.21 0.11 14415
0.07 -0.00 -3.68 -7.59 20.85 -4.15 1.87 0.27 14422
0.06 -0.01 -3.17 -8.52 21.61 -3.95 1.55 0.41 14429
0.05 -0.01 -2.60 -9.70 22.71 -3.73 1.27 0.52 14435
0.06 -0.01 -2.04 -10.94 24.45 -3.54 1.02 0.57 14441
0.05 -0.01 -1.50 -12.16 25.08 -3.40 0.82 0.60 14447
0.06 -0.00 -0.49 -13.14 25.31 -3.35 0.72 0.61 14454
0.06 -0.01 0.50 -14.22 24.75 -3.39 0.72 0.62 14460
0.06 -0.01 1.28 -15.80 23.73 -3.45 0.83 0.64 14467
0.07 -0.01 1.65 -17.46 22.24 -3.48 1.04 0.69 14473
0.07 -0.01 1.35 -18.98 20.36 -3.47 1.29 0.80 14480
0.06 -0.01 0.41 -20.26 18.46 -3.40 1.53 0.94 14486
0.07 -0.01 -0.75 -21.54 16.52 -3.25 1.71 1.14 14492
0.07 -0.01 -2.45 -22.81 14.53 -3.04 1.83 1.39 14498
0.07 -0.01 -4.56 -23.97 13.76 -2.77 1.99 1.71 14505
0.06 -0.01 -6.16 -25.67 12.66 -2.51 2.02 2.00 14512
0.08 -0.01 -7.75 -27.95 11.33 -2.29 1.75 2.20 14518
0.07 -0.01 -9.43 -30.10 9.53 -2.08 1.27 2.32 14524
0.07 -0.00 -8.72 -31.03 7.11 -1.88 0.78 2.34 14531
0.07 -0.01 -7.48 -31.64 5.18 -1.66 0.42 2.26 14537
0.06 -0.01 -7.87 -32.11 3.69 -1.38 0.22 2.07 14543
0.08 -0.01 -6.66 -32.38 3.15 -1.05 0.18 1.77 14550
0.07 -0.01 -6.33 -31.59 2.86 -0.64 0.17 1.41 14557
0.06 -0.01 -5.97 -29.60 3.58 -0.23 0.15 1.00 14563
0.07 -0.01 -5.76 -27.97 4.86 0.15 0.07 0.60 14569
0.07 -0.01 -5.07 -25.26 6.82 0.44 -0.03 0.24 14575
0.07 -0.01 -10.56 -51.43 41.16 1.98 -1.00 0.22 14582
0.05 -0.01 4.47 -19.90 1.22 3.52 -0.46 0.36 14588
0.04 0.04 -3.32 -10.08 -11.13 3.17 -1.16 0.29 14595
0.05 0.15 0.57 -11.07 -8.12 2.57 -2.38 0.05 14601
0.04 0.31 1.59 6.55 13.52 2.82 -2.75 0.12 14608
0.04 0.60 6.55 10.38 13.14 3.35 -1.24 0.60 14614
0.02 0.87 5.58 0.41 14.51 3.91 -0.64 0.96 14620
0.01 1.25 -4.97 -6.35 26.90 4.28 -0.85 0.83 14626
-0.01 1.51 -8.86 -8.70 26.14 4.28 -1.08 0.47 14633
0.00 1.68 -2.89 -6.40 27.83 4.28 -1.08 0.17 14640
-0.01 1.80 -2.68 -3.34 24.95 4.28 -0.62 -0.04 14646
-0.02 1.83 -3.56 -3.42 21.44 4.15 -0.58 -0.44 14653
-0.03 1.77 1.90 -3.14 21.96 3.97 -0.69 -0.68 14659
-0.01 1.71 4.57 -3.40 34.45 3.26 -2.01 -0.59 14665
-0.00 1.76 4.46 -3.35 13.03 0.98 -1.77 -0.02 14671
-0.01 1.69 0.40 -2.66 12.58 0.43 -0.91 0.21 14679
-0.02 1.66 -0.23 -0.80 10.96 0.16 -0.42 0.20 14685
-0.00 1.59 -0.41 -0.41 10.25 0.08 -0.19 0.10 14691
-0.02 1.60 0.20 -0.72 9.79 0.03 -0.11 0.05 14697
-0.01 1.61 1.24 -1.30 10.00 0.00 -0.09 0.07 14704
-0.01 1.61 0.92 -1.12 10.05 -0.01 -0.11 0.09 14710
-0.01 1.56 0.44 -0.74 10.23 -0.01 -0.10 0.08 14716
0.02 1.54 0.61 -0.85 10.09 -0.03 -0.09 0.06 14723
0.00 1.52 0.83 -0.86 10.02 -0.03 -0.09 0.06 14730
0.03 1.51 0.86 -0.77 9.98 -0.02 -0.09 0.06 14736
-0.01 1.47 0.70 -0.68 10.02 -0.02 -0.10 0.06 14742
-0.00 1.40 0.74 -0.77 10.22 -0.01 -0.09 0.05 14748
0.05 1.37 0.85 -0.70 10.09 0.00 -0.08 0.05 14755
0.05 1.29 0.67 -0.76 10.00 0.01 -0.07 0.06 14761
0.08 1.22 0.66 -0.71 10.09 0.02 -0.05 0.05 14768
0.10 1.13 0.70 -0.72 10.06 0.03 -0.04 0.05 14774
0.11 1.04 0.66 -0.75 10.07 0.03 -0.03 0.06 14780
0.11 0.96 0.70 -0.74 10.01 0.04 -0.02 0.06 14787
0.11 0.84 0.76 -0.73 10.00 0.04 -0.01 0.06 14793
0.10 0.79 0.74 -0.77 10.00 0.05 -0.01 0.05 14799
0.12 0.68 0.74 -0.78 10.05 0.05 -0.01 0.06 14806
0.14 0.60 0.76 -0.75 9.98 0.05 -0.01 0.05 14813
0.17 0.45 0.77 -0.79 9.96 0.05 -0.01 0.05 14819
0.20 0.48 0.75 -0.81 9.95 0.06 -0.01 0.04 14825
0.20 0.38 0.78 -0.79 9.98 0.06 -0.01 0.03 14831
0.21 0.32 0.76 -0.76 9.85 0.06 -0.01 0.03 14837
0.25 0.28 0.78 -0.85 9.98 0.05 -0.01 0.03 14844
0.26 0.25 0.88 -0.86 10.08 0.05 -0.01 0.02 14851
0.26 0.21 0.76 -0.85 9.97 0.04 -0.01 0.03 14857
0.25 0.18 0.79 -0.93 10.02 0.04 -0.01 0.02 14863
0.30 0.13 0.78 -0.87 9.98 0.04 -0.01 0.02 14869
0.31 0.10 0.75 -0.81 9.99 0.04 -0.01 0.03 14876
0.32 0.07 0.77 -0.80 9.97 0.04 -0.01 0.02 14882
0.33 0.08 0.76 -0.85 10.00 0.04 -0.01 0.02 14888
0.36 0.06 0.81 -0.87 9.97 0.04 -0.01 0.02 14895
0.40 0.05 0.77 -0.88 9.96 0.04 -0.02 0.02 14901
0.39 0.03 0.77 -0.91 9.97 0.00 -0.03 0.02 14907
0.40 0.02 0.82 -0.84 9.98 0.03 -0.04 0.00 14914
0.43 0.03 0.82 -0.99 9.98 0.03 -0.05 -0.00 14920
0.45 0.01 0.76 -0.91 9.91 0.02 -0.05 -0.01 14926
0.44 0.01 0.82 -0.87 9.87 0.02 -0.06 -0.02 14932
0.44 0.02 0.77 -0.74 9.88 0.01 -0.06 -0.02 14939
0.45 0.02 0.82 -0.94 9.99 0.02 -0.06 -0.02 14946
0.47 -0.01 0.81 -0.95 9.97 0.02 -0.06 -0.03 14952
0.52 0.01 0.76 -0.93 9.96 0.02 -0.05 -0.03 14958
0.54 -0.01 0.77 -0.96 9.94 0.02 -0.05 -0.03 14964
0.59 0.00 0.70 -0.91 9.94 0.02 -0.05 -0.03 14970
0.61 -0.00 0.75 -0.95 9.97 0.03 -0.04 -0.02 14978
0.67 -0.04 0.75 -0.91 9.95 0.02 -0.03 -0.02 14984
0.69 -0.03 0.73 -0.88 10.04 0.02 -0.03 -0.02 14990
0.73 -0.05 0.74 -0.91 10.08 0.03 -0.02 -0.01 14996
0.73 -0.04 0.73 -0.92 10.05 0.04 -0.02 -0.01 15002
0.77 -0.04 0.77 -0.92 10.06 0.05 -0.01 -0.00 15009
0.86 -0.04 0.74 -0.91 10.15 0.07 -0.01 -0.00 15015
0.91 -0.04 0.80 -0.91 10.10 0.09 0.00 -0.01 15022
0.94 -0.05 0.85 -0.98 10.10 0.12 0.01 -0.01 15028
0.95 -0.06 0.88 -0.97 10.17 0.15 0.03 -0.02 15035
1.03 -0.04 0.89 -0.99 10.20 0.19 0.04 -0.03 15041
1.06 -0.05 0.98 -1.05 10.20 0.25 0.06 -0.05 15047
1.10 -0.05 0.97 -1.06 10.45 0.32 0.08 -0.07 15053
1.16 -0.05 1.02 -1.20 10.63 0.44 0.11 -0.09 15060
1.17 -0.06 1.08 -1.17 11.12 0.63 0.15 -0.10 15067
1.21 -0.04 1.05 -1.22 11.68 0.91 0.20 -0.12 15073
1.26 -0.06 1.17 -1.43 12.00 1.21 0.24 -0.14 15079
1.30 -0.06 1.30 -1.58 12.39 1.48 0.19 -0.16 15086
1.32 -0.05 1.29 -1.57 12.53 1.68 0.09 -0.17 15092
1.36 -0.05 1.05 -1.68 12.66 1.83 0.00 -0.16 15098
1.44 -0.05 1.05 -1.79 12.67 1.97 -0.11 -0.16 15105
1.48 -0.06 1.65 0.23 12.97 2.08 -0.20 -0.19 15112
1.51 -0.05 0.47 -1.81 12.86 2.26 -0.30 -0.15 15118
1.56 -0.06 0.98 -2.19 13.69 2.45 -0.31 -0.17 15124
1.53 -0.05 0.90 -2.15 13.48 2.69 -0.28 -0.16 15131
1.57 -0.06 1.12 -2.26 13.47 2.91 -0.29 -0.17 15137
1.57 -0.05 1.03 -2.13 12.78 3.12 -0.29 -0.19 15143
1.55 -0.05 1.00 -2.56 13.65 3.33 -0.23 -0.20 15150
1.54 -0.06 1.10 -2.74 13.89 3.59 -0.17 -0.22 15157
1.48 -0.05 1.21 -2.78 14.29 3.88 -0.07 -0.24 15163
1.37 -0.05 0.76 -2.77 15.40 4.14 -0.01 -0.25 15169
1.34 -0.05 0.90 -3.01 16.98 4.28 -0.02 -0.24 15176
1.22 -0.05 2.17 -3.51 17.83 4.28 -0.11 -0.30 15182
1.13 -0.05 3.22 -4.05 18.52 4.28 -0.21 -0.42 15188
0.96 -0.05 3.57 -4.79 19.90 4.28 -0.40 -0.59 15195
0.82 -0.05 3.35 -7.20 22.80 4.28 -0.62 -0.73 15202
0.74 -0.04 2.65 -8.92 25.76 4.28 -0.73 -0.81 15208
0.69 -0.04 3.85 -12.51 31.24 4.28 -0.65 -0.83 15214
0.59 -0.04 4.14 -14.72 33.17 4.28 -0.44 -0.76 15221
0.49 -0.03 4.39 -14.52 30.88 4.28 -0.22 -0.73 15227
0.34 -0.02 4.26 -13.91 29.08 4.28 0.13 -0.76 15234
0.34 -0.02 3.00 -9.40 28.98 4.28 0.39 -0.78 15241
0.27 -0.02 0.81 -7.05 31.96 4.28 0.44 -0.88 15247
0.22 -0.01 0.75 -4.99 34.49 4.28 0.04 -0.98 15253
0.17 -0.02 2.72 -2.62 33.96 4.28 -0.62 -1.08 15259
0.15 -0.02 5.58 1.60 35.12 4.28 -1.12 -1.16 15265
0.12 -0.01 7.87 7.11 32.39 4.28 -1.21 -1.14 15272
0.08 -0.01 10.80 17.34 27.19 4.28 -0.99 -1.07 15279
0.10 -0.01 10.67 20.47 17.15 4.28 -0.53 -1.23 15285
0.06 -0.01 7.83 24.38 1.43 3.82 0.01 -1.83 15292
0.05 -0.00 7.22 23.23 2.10 2.66 -0.12 -2.46 15298
0.06 -0.01 7.37 16.24 26.46 1.27 0.59 -2.54 15304
0.05 -0.01 8.16 14.36 31.61 -0.69 1.43 -2.38 15310
0.07 -0.01 6.13 15.15 22.88 -2.16 1.70 -2.25 15318
0.05 -0.00 2.92 14.97 15.20 -2.95 1.34 -2.09 15324
0.06 -0.01 1.54 12.73 13.92 -3.59 0.82 -1.83 15330
0.04 -0.00 1.53 10.73 11.42 -4.12 0.42 -1.55 15336
0.05 -0.01 2.34 8.82 9.99 -4.27 0.15 -1.31 15343
0.05 -0.01 3.00 6.92 9.23 -4.28 -0.04 -1.14 15349
0.04 -0.00 3.31 5.65 8.67 -4.28 -0.18 -0.98 15355
0.04 -0.00 3.59 4.53 8.25 -4.28 -0.22 -0.87 15362
0.05 -0.01 4.10 3.85 7.75 -4.28 -0.19 -0.73 15368
0.05 -0.01 4.62 3.31 7.47 -4.28 -0.11 -0.63 15374
0.05 -0.00 5.01 2.90 7.53 -4.28 0.01 -0.55 15381
0.05 -0.01 5.36 2.68 7.93 -4.28 0.16 -0.49 15387
0.06 -0.01 5.43 2.42 8.44 -4.28 0.34 -0.43 15393
0.04 -0.00 5.32 2.11 9.11 -4.28 0.54 -0.36 15399
0.05 -0.00 5.00 1.70 9.75 -4.28 0.75 -0.27 15406
0.05 -0.00 4.62 1.17 10.32 -4.28 0.92 -0.16 15412
