Voltage_01 Voltage_02 Acc_x Acc_y Acc_z Gyro_x Gyro_y Gyro_z Time
5000
0.15 -0.01 -4.79 -19.05 -1.05 0.71 -0.33 -0.69 17
0.15 -0.00 -5.68 -21.89 -1.02 1.09 -0.67 -0.90 23
0.15 -0.01 -4.63 -24.09 2.68 1.61 -1.00 -1.03 29
0.16 -0.02 -3.75 -18.59 2.91 2.15 -1.21 -1.17 35
0.14 0.00 -1.85 -7.56 5.11 2.43 -1.26 -1.26 41
0.12 0.03 0.75 -1.09 12.85 2.51 -1.21 -1.30 48
0.11 0.04 4.73 3.74 16.59 2.45 -1.06 -1.22 55
0.10 0.14 5.78 3.15 16.28 2.21 -0.79 -1.02 61
0.09 0.20 6.44 1.14 14.14 2.05 -0.34 -0.79 67
0.09 0.32 5.58 -2.90 13.14 2.16 -0.05 -0.51 73
0.10 0.36 3.76 -4.32 14.06 2.55 -0.08 -0.30 79
0.10 0.40 2.15 -4.16 18.16 2.91 -0.31 -0.22 86
0.09 0.46 1.82 -3.02 19.78 2.76 -0.59 -0.15 92
0.10 0.52 1.08 -3.07 20.41 2.38 -0.69 -0.06 98
0.10 0.56 0.14 -2.59 18.59 1.69 -0.96 -0.07 105
0.10 0.60 1.29 -2.78 14.22 0.95 -0.90 0.03 111
0.13 0.63 0.34 -2.07 12.25 0.57 -0.64 0.11 117
0.13 0.63 -0.04 -1.38 10.97 0.40 -0.51 0.14 123
0.12 0.63 -0.13 -0.97 10.93 0.25 -0.35 0.13 130
0.15 0.66 0.06 -1.07 10.12 0.15 -0.22 0.10 136
0.17 0.67 0.48 -1.05 9.89 0.14 -0.17 0.12 142
0.16 0.66 0.45 -1.05 9.85 0.12 -0.15 0.14 149
0.16 0.68 0.32 -1.14 10.06 0.08 -0.11 0.16 155
0.18 0.70 0.29 -1.11 10.10 0.06 -0.08 0.15 161
0.15 0.70 0.42 -1.10 9.85 0.04 -0.06 0.16 167
0.15 0.72 0.50 -1.09 10.01 0.02 -0.06 0.15 174
0.15 0.76 0.37 -1.03 9.83 0.02 -0.05 0.16 180
0.16 0.80 0.38 -1.01 9.88 0.01 -0.04 0.14 186
0.14 0.83 0.32 -1.02 9.86 0.01 -0.03 0.15 192
0.15 0.86 0.42 -0.98 9.87 -0.00 -0.03 0.14 198
0.15 0.90 0.40 -0.97 9.87 0.00 -0.02 0.15 205
0.15 0.93 0.40 -0.95 9.89 0.01 -0.02 0.16 211
0.14 0.95 0.44 -0.97 9.91 0.01 -0.02 0.15 218
0.14 0.97 0.38 -0.97 9.97 0.02 -0.01 0.15 224
0.14 0.99 0.45 -1.01 9.96 0.01 -0.01 0.15 230
0.15 1.02 0.43 -1.00 9.92 0.02 -0.01 0.15 236
0.15 1.00 0.41 -1.00 9.95 0.02 -0.01 0.15 242
0.17 0.99 0.37 -1.03 9.93 0.02 -0.01 0.15 248
0.18 0.99 0.38 -0.99 9.91 0.02 -0.00 0.15 254
0.17 1.01 0.39 -1.05 9.93 0.02 0.00 0.15 261
0.18 0.99 0.43 -1.06 9.94 0.02 0.00 0.15 267
0.17 0.99 0.49 -1.04 9.94 0.02 -0.00 0.15 273
0.17 0.96 0.46 -0.98 9.85 0.02 -0.01 0.14 280
0.18 0.95 0.51 -1.04 9.97 0.02 -0.01 0.14 286
0.18 0.93 0.43 -1.03 9.91 0.02 -0.02 0.13 292
0.18 0.89 0.46 -1.02 9.95 0.02 -0.01 0.13 299
0.18 0.86 0.42 -1.06 9.89 0.02 -0.02 0.13 305
0.18 0.85 0.45 -1.04 9.90 0.02 -0.01 0.12 311
0.18 0.83 0.45 -1.02 9.95 0.03 -0.01 0.13 317
0.20 0.80 0.47 -1.04 10.01 0.02 -0.01 0.12 323
0.18 0.77 0.48 -1.04 9.94 0.03 -0.01 0.12 329
0.18 0.73 0.48 -1.04 9.94 0.03 -0.02 0.12 335
0.19 0.71 0.48 -1.04 9.92 0.03 -0.02 0.11 342
0.19 0.67 0.44 -1.04 9.91 0.03 -0.02 0.11 349
0.19 0.64 0.50 -1.01 9.90 0.03 -0.02 0.12 355
0.20 0.61 0.45 -1.01 9.86 0.03 -0.02 0.11 361
0.20 0.60 0.46 -1.07 9.88 0.03 -0.02 0.12 367
0.21 0.54 0.45 -1.03 9.83 0.04 -0.02 0.11 373
0.22 0.48 0.46 -1.06 9.86 0.03 -0.02 0.11 379
0.21 0.45 0.49 -1.11 9.85 0.04 -0.02 0.11 386
0.22 0.43 0.52 -1.07 9.88 0.04 -0.02 0.11 392
0.25 0.39 0.53 -1.10 9.87 0.04 -0.03 0.10 398
0.24 0.37 0.56 -1.05 9.88 0.03 -0.03 0.10 404
0.25 0.31 0.51 -1.11 9.88 0.04 -0.04 0.10 410
0.27 0.29 0.48 -1.11 9.89 0.04 -0.04 0.10 417
0.26 0.27 0.48 -1.11 9.90 0.03 -0.05 0.09 423
0.25 0.24 0.51 -1.13 9.85 0.04 -0.05 0.09 430
0.24 0.22 0.52 -1.13 9.87 0.03 -0.05 0.09 436
0.24 0.18 0.54 -1.13 9.90 0.03 -0.06 0.09 442
0.25 0.18 0.55 -1.11 9.96 0.03 -0.06 0.08 448
0.28 0.14 0.52 -1.18 9.90 0.02 -0.07 0.09 454
0.28 0.14 0.50 -1.13 9.94 0.02 -0.08 0.09 460
0.28 0.14 0.51 -1.14 9.85 0.01 -0.09 0.08 466
0.29 0.15 0.50 -1.14 9.91 0.01 -0.08 0.07 473
0.33 0.12 0.39 -1.20 9.87 0.02 -0.08 0.08 479
0.32 0.12 0.39 -1.25 9.81 0.02 -0.07 0.08 486
0.31 0.09 0.52 -1.17 9.83 0.02 -0.06 0.08 492
0.32 0.09 0.47 -1.03 9.90 0.02 -0.05 0.08 498
0.34 0.06 0.43 -1.15 10.00 0.02 -0.04 0.08 504
0.36 0.05 0.50 -1.18 9.98 0.03 -0.03 0.08 510
0.35 0.03 0.43 -1.16 9.96 0.03 -0.03 0.08 517
0.37 0.04 0.49 -1.10 9.94 0.02 -0.02 0.08 523
0.38 0.04 0.46 -1.15 9.96 0.03 -0.02 0.08 529
0.39 0.02 0.48 -1.16 9.91 0.03 -0.02 0.08 535
0.36 0.02 0.49 -1.17 9.94 0.03 -0.01 0.09 541
0.37 0.02 0.47 -1.23 9.95 0.03 -0.01 0.08 547
0.42 0.01 0.46 -1.22 9.92 0.04 -0.00 0.09 553
0.43 -0.02 0.36 -0.94 9.75 0.03 -0.01 0.08 561
0.45 -0.03 0.47 -1.22 10.05 0.04 -0.01 0.08 567
0.48 -0.03 0.57 -1.20 9.90 0.04 -0.01 0.09 573
0.52 -0.03 0.58 -1.21 9.96 0.05 -0.01 0.08 579
0.51 -0.02 0.54 -1.19 9.93 0.06 -0.00 0.08 585
0.52 -0.03 0.56 -1.22 9.97 0.07 -0.00 0.08 591
0.50 -0.03 0.57 -1.62 10.07 0.08 0.00 0.08 598
0.54 -0.03 0.52 -0.65 10.03 0.10 0.01 0.08 604
0.55 -0.03 0.62 -1.44 9.95 0.12 0.02 0.08 610
0.55 -0.03 0.55 -1.27 10.07 0.14 0.02 0.08 616
0.60 -0.04 0.73 -1.28 10.06 0.16 0.04 0.07 623
0.64 -0.03 0.75 -1.22 10.18 0.23 0.06 0.07 629
0.68 -0.04 0.68 -1.22 10.28 0.25 0.07 0.06 635
0.68 -0.04 0.11 -1.15 10.42 0.31 0.07 0.05 642
0.70 -0.04 0.67 -1.31 10.63 0.41 0.06 0.04 648
0.74 -0.03 0.67 -1.27 10.75 0.54 0.05 0.03 654
0.74 -0.04 0.46 -1.48 11.23 0.67 0.02 0.02 660
0.74 -0.04 0.55 -1.61 11.17 0.79 0.01 0.02 667
0.76 -0.03 0.42 -1.54 11.04 0.87 0.04 0.01 673
0.83 -0.04 0.70 -1.65 10.96 0.92 0.05 0.02 679
0.86 -0.05 0.74 -1.73 10.78 0.98 0.04 0.01 686
0.88 -0.04 0.70 -1.70 10.80 1.03 0.02 -0.00 692
0.92 -0.03 0.71 -2.45 10.85 1.10 -0.01 -0.01 698
0.92 -0.04 0.63 -1.95 11.01 1.17 -0.06 -0.02 704
0.95 -0.04 0.71 -2.18 11.13 1.25 -0.08 -0.02 711
1.00 -0.03 0.61 -2.08 11.06 1.33 -0.09 -0.03 717
1.01 -0.05 0.64 -2.31 11.01 1.43 -0.11 -0.05 723
0.99 -0.05 0.75 -2.39 11.15 1.52 -0.12 -0.06 730
1.00 -0.04 0.87 -2.58 10.91 1.62 -0.14 -0.07 736
1.06 -0.04 0.68 -2.70 11.58 1.71 -0.15 -0.07 742
1.07 -0.04 0.80 -2.46 11.42 1.82 -0.16 -0.09 749
1.07 -0.03 0.75 -2.82 11.18 1.91 -0.15 -0.10 755
1.07 -0.03 0.71 -2.91 11.67 1.97 -0.13 -0.11 761
1.06 -0.04 0.61 -3.14 11.32 2.07 -0.14 -0.11 768
1.00 -0.05 0.82 -3.30 11.74 2.16 -0.12 -0.11 774
0.98 -0.04 0.95 -3.49 11.77 2.31 -0.11 -0.14 780
0.92 -0.04 1.39 -3.56 13.18 2.48 -0.10 -0.18 787
0.89 -0.05 1.03 -3.90 12.24 2.68 -0.10 -0.22 793
0.81 -0.03 0.55 -4.22 13.56 2.88 -0.13 -0.23 799
0.70 -0.03 0.35 -4.36 13.92 3.07 -0.11 -0.23 805
0.63 -0.04 0.83 -4.93 14.88 3.30 -0.12 -0.22 812
0.64 -0.03 0.62 -5.53 15.82 3.63 -0.13 -0.21 818
0.57 -0.02 0.93 -6.34 18.01 3.96 -0.13 -0.21 825
0.57 -0.04 1.60 -7.25 18.83 4.15 -0.12 -0.22 831
0.52 -0.02 1.78 -7.74 21.01 4.27 -0.16 -0.24 837
0.46 -0.03 2.28 -7.41 20.60 4.28 -0.16 -0.26 843
0.44 -0.03 2.19 -7.95 19.42 4.28 -0.22 -0.33 849
0.41 -0.02 2.22 -8.76 20.95 4.28 -0.33 -0.42 856
0.38 -0.03 2.38 -8.51 21.00 4.28 -0.42 -0.50 863
0.33 -0.03 3.30 -8.36 21.91 4.28 -0.39 -0.54 869
0.29 -0.02 1.93 -8.18 22.69 4.28 -0.36 -0.59 875
0.25 -0.02 1.04 -7.36 21.98 4.28 -0.50 -0.63 881
0.22 -0.02 1.75 -5.75 20.83 4.28 -0.65 -0.65 887
0.21 -0.02 3.14 -4.10 19.91 4.28 -0.69 -0.66 893
0.21 -0.01 4.34 -2.43 17.90 4.28 -0.64 -0.67 901
0.18 -0.01 5.15 -0.73 17.64 4.28 -0.49 -0.70 907
0.16 -0.02 5.16 0.58 18.40 4.28 -0.41 -0.77 913
0.17 -0.01 4.60 2.25 18.02 4.28 -0.22 -0.85 919
0.14 -0.01 4.62 3.70 16.73 4.28 0.24 -0.93 925
0.13 -0.01 5.93 8.30 13.13 4.28 0.99 -1.09 931
0.12 -0.01 3.04 10.30 7.62 4.28 1.23 -1.54 937
0.12 -0.01 3.22 13.50 4.74 4.27 1.37 -2.30 944
0.12 -0.01 3.44 17.35 12.73 2.45 1.48 -2.57 951
0.12 -0.01 0.67 12.94 24.81 0.78 1.85 -2.54 957
0.12 -0.01 -0.60 9.99 22.12 -0.55 1.71 -2.41 963
0.12 -0.01 -3.57 11.33 17.96 -1.57 1.00 -2.25 969
0.12 -0.01 -3.10 10.21 14.14 -2.32 0.21 -1.97 975
0.12 -0.01 -0.07 7.61 10.95 -2.79 -0.41 -1.71 982
0.13 -0.01 1.61 5.92 8.68 -3.12 -0.72 -1.54 989
0.12 -0.01 2.40 4.36 7.12 -3.25 -0.74 -1.39 995
0.11 -0.01 3.02 4.04 6.05 -3.30 -0.62 -1.28 1001
0.11 -0.01 3.40 3.59 4.98 -3.29 -0.41 -1.16 1007
0.13 -0.00 3.42 3.30 4.65 -3.27 -0.19 -1.05 1013
0.11 -0.01 3.06 3.08 4.85 -3.22 0.01 -0.93 1019
0.11 -0.01 2.57 2.94 5.31 -3.19 0.14 -0.79 1026
0.10 -0.01 2.13 2.87 6.12 -3.18 0.18 -0.63 1032
0.10 -0.01 1.94 3.09 7.07 -3.23 0.15 -0.47 1038
0.11 -0.01 1.93 3.31 8.01 -3.32 0.06 -0.32 1045
0.10 -0.01 2.24 3.48 8.91 -3.46 -0.01 -0.12 1051
0.10 -0.01 2.59 3.26 9.80 -3.62 -0.05 0.07 1057
0.10 -0.01 2.93 2.77 10.32 -3.80 -0.01 0.24 1063
0.10 -0.01 3.26 1.97 10.83 -3.95 0.08 0.39 1070
0.10 -0.01 3.36 1.11 11.18 -4.09 0.20 0.50 1076
0.10 -0.01 3.28 0.20 11.53 -4.17 0.37 0.56 1082
0.10 -0.01 3.01 -0.64 11.67 -4.23 0.54 0.58 1089
0.08 -0.01 2.67 -1.71 11.93 -4.26 0.70 0.59 1095
0.10 -0.01 2.25 -2.62 12.26 -4.28 0.82 0.59 1101
0.09 -0.01 1.92 -3.38 12.47 -4.28 0.88 0.60 1107
0.08 -0.01 1.58 -4.06 12.75 -4.27 0.91 0.61 1114
0.10 -0.01 1.47 -4.79 13.06 -4.26 0.93 0.62 1120
0.10 -0.01 1.43 -5.63 13.45 -4.25 0.95 0.62 1127
0.09 -0.01 1.47 -6.40 13.74 -4.22 0.96 0.61 1133
0.11 -0.01 1.56 -7.14 14.08 -4.19 0.96 0.60 1139
0.10 -0.01 1.81 -7.64 14.36 -4.14 0.97 0.61 1145
0.09 -0.01 1.93 -7.97 14.67 -4.07 0.99 0.64 1152
0.11 -0.01 2.10 -8.13 14.96 -3.99 1.01 0.67 1158
0.11 -0.01 2.21 -8.22 15.26 -3.88 1.03 0.73 1165
0.09 -0.01 2.27 -8.36 15.88 -3.77 1.04 0.81 1171
0.11 -0.01 2.28 -8.72 15.47 -3.64 1.06 0.89 1177
0.11 -0.01 2.39 -9.24 15.63 -3.47 1.09 0.96 1183
0.10 -0.01 2.47 -9.79 15.85 -3.29 1.12 1.02 1189
0.10 -0.00 2.52 -10.16 16.15 -3.11 1.17 1.06 1197
0.10 -0.01 2.38 -10.46 16.49 -2.95 1.23 1.08 1203
0.09 -0.01 2.27 -10.63 16.76 -2.83 1.26 1.09 1209
0.11 -0.01 2.20 -10.76 16.96 -2.68 1.26 1.09 1215
0.10 -0.01 2.20 -10.80 16.74 -2.62 1.25 1.08 1222
0.10 -0.01 2.38 -10.91 16.48 -2.53 1.26 1.06 1228
0.11 -0.01 2.48 -11.08 16.26 -2.44 1.31 1.04 1234
0.10 -0.01 2.38 -11.22 16.08 -2.34 1.38 1.02 1241
0.11 -0.00 1.77 -11.23 16.08 -2.23 1.45 0.99 1247
0.11 -0.01 0.91 -11.04 16.18 -2.14 1.48 0.98 1254
0.10 -0.01 -0.23 -10.84 16.13 -2.09 1.43 0.98 1260
0.12 -0.01 -1.11 -10.84 16.05 -2.07 1.31 0.98 1266
0.11 -0.01 -1.77 -10.93 15.75 -2.07 1.13 0.97 1272
0.10 -0.01 -1.95 -11.22 15.42 -2.09 0.94 0.96 1280
0.11 -0.01 -1.72 -11.63 14.93 -2.13 0.79 0.92 1286
0.10 -0.01 -1.22 -12.26 14.06 -2.19 0.73 0.86 1292
0.11 -0.01 -0.69 -13.17 13.03 -2.23 0.73 0.74 1298
0.11 -0.01 -0.11 -14.18 11.90 -2.23 0.80 0.65 1305
0.11 -0.01 0.18 -15.28 9.87 -2.18 0.91 0.51 1311
0.12 -0.01 0.28 -16.31 9.13 -2.07 1.04 0.35 1317
0.11 -0.01 0.04 -17.16 7.83 -1.88 1.15 0.18 1324
0.11 -0.01 -0.17 -17.85 6.49 -1.64 1.22 0.03 1330
0.12 -0.01 -0.75 -17.86 4.89 -1.34 1.30 -0.09 1336
0.12 -0.01 -2.14 -17.44 3.59 -1.00 1.47 -0.11 1343
0.12 -0.01 -4.40 -17.32 3.56 -0.62 1.73 0.03 1349
0.13 -0.01 -7.12 -17.67 4.99 -0.32 1.81 0.22 1355
0.12 -0.01 -9.02 -18.14 6.61 -0.16 1.41 0.34 1361
0.12 0.00 -9.18 -18.35 7.13 -0.09 0.62 0.37 1369
0.13 -0.01 -10.39 -24.05 8.32 -0.02 -0.35 0.40 1375
0.12 -0.01 -8.51 -24.90 8.53 0.71 -1.33 0.50 1381
0.13 -0.01 -7.35 -24.44 0.64 1.07 -1.98 0.45 1387
0.11 -0.01 -6.34 -28.14 1.27 1.54 -2.33 0.47 1393
0.11 -0.01 -4.60 -18.29 1.69 2.15 -2.51 0.49 1400
0.12 0.01 -2.71 -5.09 4.19 2.47 -2.52 0.48 1406
0.10 0.05 -0.03 1.28 13.11 2.64 -2.30 0.53 1413
0.10 0.15 1.11 4.08 16.40 2.62 -1.66 0.76 1419
0.09 0.31 2.10 5.13 14.78 2.49 -0.87 0.99 1425
0.08 0.37 -1.03 -0.44 13.68 2.46 -0.25 1.10 1432
0.08 0.41 -4.02 -3.17 13.28 2.77 0.10 1.08 1438
0.07 0.55 -7.38 -4.91 16.48 3.19 0.10 0.83 1444
0.07 0.62 -7.78 -5.28 21.47 3.55 -0.05 0.32 1451
0.07 0.72 -3.75 -3.54 21.09 3.30 -0.20 -0.19 1458
0.09 0.74 0.38 -3.17 21.06 2.81 -0.07 -0.45 1464
0.08 0.79 2.56 -3.34 20.60 2.17 -0.39 -0.47 1470
0.11 0.83 4.79 -2.49 15.25 1.18 -0.83 -0.27 1476
0.10 0.82 2.93 -2.75 11.84 0.74 -0.65 0.17 1482
0.08 0.81 0.14 -1.47 10.34 0.67 -0.69 0.30 1489
0.11 0.79 -0.63 -0.74 11.62 0.53 -0.62 0.20 1496
0.12 0.78 -0.08 -1.07 10.55 0.23 -0.33 0.13 1502
0.12 0.84 0.79 -1.20 9.63 0.14 -0.26 0.12 1508
0.14 0.86 0.89 -1.27 10.14 0.14 -0.25 0.17 1515
0.12 0.88 0.35 -1.28 10.10 0.08 -0.18 0.18 1521
0.13 0.93 0.30 -1.18 9.92 0.04 -0.11 0.17 1527
0.15 0.94 0.55 -1.16 9.96 0.02 -0.07 0.17 1533
0.14 1.00 0.63 -1.21 9.96 0.00 -0.06 0.17 1540
0.13 1.03 0.46 -1.09 9.87 0.00 -0.05 0.16 1546
0.13 1.04 0.44 -1.00 9.79 0.00 -0.04 0.16 1552
0.13 1.04 0.55 -1.01 9.91 0.01 -0.02 0.15 1559
0.13 1.04 0.54 -1.04 9.89 0.01 -0.01 0.15 1565
0.15 1.06 0.54 -1.03 9.84 0.02 -0.01 0.15 1571
0.14 1.05 0.53 -1.09 9.88 0.02 0.00 0.15 1577
0.12 1.03 0.46 -1.09 9.96 0.03 0.01 0.15 1584
0.15 1.01 0.46 -1.08 9.99 0.03 0.03 0.15 1590
0.16 0.99 0.50 -1.11 9.92 0.04 0.04 0.15 1596
0.15 0.95 0.49 -1.14 9.98 0.05 0.06 0.15 1603
0.16 0.92 0.55 -1.11 9.95 0.05 0.07 0.15 1609
0.17 0.86 0.59 -1.13 9.94 0.05 0.07 0.16 1615
0.17 0.81 0.63 -1.08 9.95 0.06 0.08 0.15 1622
0.17 0.74 1.22 -1.09 9.87 0.06 0.07 0.16 1628
0.17 0.75 0.68 -1.08 9.96 0.07 0.07 0.15 1634
0.18 0.71 0.64 -1.10 9.92 0.06 0.07 0.14 1641
0.17 0.64 0.70 -1.12 9.92 0.07 0.06 0.14 1647
0.18 0.62 0.71 -1.13 9.88 0.06 0.05 0.13 1653
0.18 0.59 0.75 -1.14 9.93 0.06 0.04 0.12 1659
0.16 0.55 0.79 -1.10 9.88 0.06 0.03 0.12 1666
0.16 0.47 0.74 -1.14 9.91 0.06 0.01 0.12 1672
0.19 0.41 0.69 -1.11 9.86 0.06 0.01 0.11 1678
0.20 0.35 0.70 -1.17 9.95 0.06 0.01 0.11 1685
0.20 0.27 0.67 -1.14 9.93 0.05 0.01 0.11 1691
0.22 0.29 0.64 -1.16 9.90 0.06 0.01 0.11 1697
0.24 0.19 0.63 -1.20 9.87 0.06 0.02 0.12 1703
0.23 0.18 0.70 -1.16 9.93 0.05 0.02 0.11 1710
0.22 0.17 0.74 -1.19 9.89 0.05 0.03 0.11 1716
0.23 0.12 0.72 -1.22 9.84 0.05 0.02 0.12 1722
0.23 0.06 0.73 -1.24 9.87 0.05 0.03 0.11 1729
0.24 0.06 0.72 -1.25 9.85 0.04 0.02 0.11 1735
0.26 0.06 0.78 -1.25 9.90 0.04 0.02 0.11 1741
0.24 0.02 0.77 -0.65 9.86 0.04 0.02 0.07 1747
0.24 0.00 0.75 -1.27 9.90 0.04 0.01 0.09 1754
0.23 0.02 0.77 -1.22 9.92 0.03 -0.00 0.09 1760
0.25 0.01 0.77 -1.29 9.87 0.03 -0.01 0.09 1766
0.23 -0.01 0.81 -1.26 9.88 0.03 -0.01 0.09 1773
0.23 0.01 0.79 -1.29 9.85 0.02 -0.03 0.08 1779
0.27 -0.03 0.77 -1.25 9.90 0.02 -0.04 0.07 1785
0.29 -0.01 0.79 -1.41 9.91 0.02 -0.05 0.08 1792
0.30 -0.03 0.78 -1.26 9.81 0.01 -0.06 0.07 1798
0.31 -0.02 0.63 -1.19 9.88 0.01 -0.08 0.07 1804
0.37 -0.02 0.88 -1.38 9.87 0.01 -0.07 0.07 1810
0.36 -0.02 0.81 -1.24 9.91 0.01 -0.08 0.06 1816
0.34 -0.02 0.59 -1.43 9.96 0.01 -0.09 0.05 1823
0.36 -0.01 0.68 -1.30 9.97 0.01 -0.10 0.05 1829
0.39 -0.03 0.74 -1.28 9.91 0.01 -0.13 0.06 1836
0.39 -0.04 0.76 -1.83 9.95 0.02 -0.10 0.05 1842
0.38 -0.03 0.76 -1.25 9.88 0.02 -0.10 0.05 1848
0.42 -0.03 0.73 -1.69 10.00 0.02 -0.11 0.03 1854
0.44 -0.02 0.73 -1.29 9.92 0.03 -0.11 0.03 1861
0.43 -0.03 0.68 -1.26 9.96 0.04 -0.11 0.03 1867
0.48 -0.01 0.68 -1.22 9.92 0.04 -0.10 0.03 1873
0.52 -0.03 0.76 -1.16 9.93 0.04 -0.10 0.03 1880
0.51 -0.03 0.92 -1.00 9.99 0.05 -0.09 0.03 1886
0.56 -0.02 0.11 -1.84 10.05 0.07 -0.09 0.02 1892
0.56 -0.03 0.66 -1.43 9.91 0.08 -0.09 0.02 1898
0.60 -0.04 0.71 -1.37 10.02 0.10 -0.09 0.02 1905
0.63 -0.03 0.65 -1.29 10.06 0.13 -0.08 0.02 1911
0.66 -0.03 0.63 -1.25 10.00 0.15 -0.07 0.01 1917
0.70 -0.04 0.83 -1.26 10.18 0.19 -0.07 0.00 1924
0.72 -0.03 0.80 -1.29 10.10 0.23 -0.09 -0.02 1930
0.80 -0.04 0.79 -1.19 10.01 0.28 -0.10 -0.02 1937
0.81 -0.04 0.66 -1.41 10.37 0.34 -0.12 -0.02 1943
0.84 -0.04 0.62 -1.65 10.44 0.42 -0.13 -0.01 1949
0.89 -0.04 0.43 -1.69 10.55 0.52 -0.14 -0.00 1955
0.88 -0.04 0.54 -1.66 10.76 0.61 -0.14 0.01 1961
0.96 -0.04 0.58 -1.66 11.00 0.75 -0.13 0.02 1969
0.99 -0.05 0.55 -1.69 11.04 0.82 -0.09 0.01 1975
1.00 -0.05 0.75 -1.87 11.28 0.90 -0.03 0.02 1981
1.04 -0.05 0.12 -1.94 11.15 0.98 -0.01 0.03 1987
1.02 -0.05 0.80 -2.03 11.25 1.06 0.01 0.02 1993
1.04 -0.05 0.73 -2.10 11.36 1.15 0.00 0.01 2000
1.07 -0.04 0.90 -2.25 10.90 1.24 -0.00 0.00 2007
1.09 -0.05 0.75 -2.11 10.79 1.30 -0.03 -0.00 2013
1.07 -0.04 0.61 -2.09 11.08 1.41 -0.02 -0.01 2019
1.10 -0.05 0.87 -2.28 10.92 1.51 -0.03 -0.02 2025
1.09 -0.06 0.80 -2.70 11.40 1.61 -0.04 -0.03 2032
1.10 -0.05 0.71 -2.55 11.55 1.72 -0.05 -0.04 2038
1.14 -0.05 0.92 -2.74 10.77 1.82 -0.05 -0.05 2044
1.12 -0.05 0.70 -2.85 10.93 1.89 0.00 -0.07 2051
1.07 -0.03 0.66 -2.79 11.96 1.97 0.01 -0.07 2057
1.08 -0.05 0.62 -3.02 11.81 2.04 0.06 -0.07 2064
1.01 -0.05 0.62 -3.25 11.78 2.13 0.08 -0.07 2070
0.95 -0.04 0.85 -3.51 12.95 2.25 0.12 -0.07 2076
0.82 -0.04 1.13 -3.62 12.89 2.44 0.11 -0.09 2082
0.77 -0.03 1.38 -3.90 11.51 2.65 0.11 -0.14 2089
0.71 -0.03 1.51 -4.01 12.37 2.86 0.11 -0.17 2096
0.72 -0.04 1.14 -4.24 13.26 3.13 0.13 -0.20 2102
0.62 -0.03 1.54 -4.85 16.39 3.46 0.18 -0.21 2108
0.62 -0.04 1.06 -5.07 15.52 3.81 0.31 -0.18 2114
0.52 -0.04 1.12 -6.50 16.88 4.12 0.42 -0.14 2121
0.48 -0.02 1.78 -7.00 19.32 4.26 0.57 -0.14 2127
0.49 -0.02 1.69 -7.76 20.18 4.28 0.67 -0.12 2134
0.44 -0.02 1.08 -10.87 22.48 4.28 0.66 -0.11 2140
0.41 -0.02 1.36 -9.74 22.22 4.28 0.67 -0.10 2147
0.38 -0.03 0.38 -9.37 22.43 4.28 0.58 -0.08 2153
0.33 -0.01 0.82 -9.11 22.98 4.28 0.43 -0.08 2159
0.27 -0.02 1.80 -8.74 22.22 4.28 0.39 -0.10 2165
0.24 -0.01 1.54 -8.16 22.85 4.28 0.38 -0.16 2172
0.22 -0.01 2.83 -7.25 22.17 4.28 0.28 -0.21 2179
0.20 -0.02 3.72 -6.03 21.41 4.28 0.29 -0.26 2185
0.16 -0.02 4.05 -4.03 20.66 4.28 0.34 -0.33 2191
0.16 -0.01 4.59 -1.79 20.16 4.28 0.37 -0.41 2197
0.16 -0.02 5.52 0.04 18.70 4.28 0.46 -0.50 2203
0.13 -0.01 5.94 2.25 18.72 4.28 0.60 -0.63 2210
0.13 -0.01 5.19 3.25 20.58 4.28 0.78 -0.80 2216
0.14 -0.01 5.11 4.80 19.25 4.28 1.11 -0.99 2223
0.10 -0.01 3.54 9.75 10.07 4.28 1.61 -1.24 2229
0.11 -0.01 2.21 13.90 10.94 4.28 1.97 -1.81 2235
0.10 -0.01 5.83 13.26 6.37 4.28 1.72 -2.50 2242
0.09 -0.01 2.47 19.80 6.99 2.51 1.50 -2.91 2248
0.10 -0.01 2.02 18.83 21.73 0.54 1.74 -3.00 2254
0.09 -0.01 2.71 10.89 23.63 -1.03 1.86 -2.85 2260
0.11 -0.01 0.34 10.75 19.68 -2.18 1.47 -2.72 2267
0.11 -0.01 -1.28 11.23 15.66 -3.04 0.92 -2.48 2274
0.11 -0.01 -1.07 8.44 12.96 -3.58 0.42 -2.15 2280
0.10 -0.01 0.59 6.09 10.58 -3.91 -0.08 -1.92 2286
0.10 -0.01 1.83 4.80 8.61 -4.08 -0.47 -1.79 2292
0.09 -0.01 2.51 3.74 6.84 -4.15 -0.63 -1.69 2298
0.10 -0.01 3.33 2.83 5.95 -4.15 -0.62 -1.57 2305
0.09 0.00 3.98 2.00 5.63 -4.12 -0.48 -1.51 2312
0.10 -0.01 4.27 1.51 5.25 -4.06 -0.30 -1.43 2318
0.09 -0.01 4.27 1.36 5.21 -3.98 -0.08 -1.34 2324
0.09 -0.01 3.99 1.50 5.29 -3.91 0.11 -1.25 2330
0.11 -0.01 3.76 1.58 5.94 -3.86 0.24 -1.14 2336
0.11 -0.01 3.57 1.72 7.06 -3.85 0.33 -1.02 2342
0.11 -0.01 3.53 1.28 7.95 -3.86 0.34 -0.88 2349
0.11 -0.01 3.54 2.01 8.68 -3.91 0.38 -0.75 2355
0.13 -0.01 3.68 2.00 9.72 -4.01 0.43 -0.57 2361
0.12 -0.01 3.89 1.54 10.59 -4.11 0.52 -0.39 2368
0.09 -0.01 3.93 0.86 11.31 -4.19 0.67 -0.22 2374
0.11 -0.01 3.88 0.24 11.83 -4.24 0.83 -0.06 2380
0.12 -0.01 3.68 -0.31 12.17 -4.27 0.99 0.08 2386
0.12 -0.01 3.31 -1.00 12.46 -4.28 1.13 0.20 2393
0.11 -0.00 2.89 -1.82 12.68 -4.28 1.22 0.31 2399
0.10 -0.01 2.50 -2.47 13.02 -4.28 1.33 0.40 2406
0.11 -0.01 2.11 -3.35 13.35 -4.28 1.44 0.45 2412
0.11 -0.00 1.70 -4.24 13.96 -4.28 1.54 0.49 2418
0.10 -0.01 1.24 -4.98 14.40 -4.26 1.63 0.51 2424
0.10 -0.01 0.78 -5.71 14.99 -4.23 1.71 0.51 2430
0.11 -0.01 0.36 -6.31 15.57 -4.19 1.76 0.51 2438
0.11 -0.01 0.02 -6.74 16.18 -4.15 1.74 0.52 2444
0.10 -0.01 -0.16 -7.05 16.75 -4.09 1.70 0.54 2450
0.11 -0.00 -0.30 -7.44 17.23 -4.02 1.63 0.60 2456
0.10 -0.01 -0.30 -7.85 17.51 -3.94 1.59 0.67 2462
0.10 -0.01 -0.35 -8.21 17.50 -3.83 1.58 0.75 2468
0.10 -0.00 -0.50 -8.80 17.47 -3.69 1.58 0.83 2476
0.12 -0.01 -0.78 -9.33 17.46 -3.53 1.55 0.91 2482
0.11 -0.01 -0.73 -9.60 17.48 -3.34 1.53 1.02 2488
0.11 -0.01 -0.84 -9.79 17.78 -3.15 1.49 1.07 2494
0.12 -0.01 -0.99 -9.94 18.11 -2.98 1.40 1.15 2500
0.10 -0.01 -1.13 -10.20 18.52 -2.84 1.25 1.21 2507
0.11 -0.00 -1.15 -10.56 18.78 -2.73 1.05 1.28 2513
0.10 -0.01 -1.00 -11.02 18.77 -2.64 0.83 1.32 2520
0.10 -0.01 -0.72 -11.58 18.61 -2.55 0.64 1.35 2526
0.12 -0.01 -0.02 -12.22 18.28 -2.49 0.51 1.35 2533
0.11 -0.01 0.43 -12.76 18.18 -2.44 0.45 1.33 2539
0.11 -0.00 0.99 -13.52 17.79 -2.43 0.49 1.28 2545
0.12 -0.01 1.22 -14.05 17.16 -2.44 0.61 1.23 2551
0.11 -0.01 1.03 -14.54 16.13 -2.47 0.80 1.22 2558
0.13 -0.01 0.19 -15.31 15.11 -2.49 1.02 1.26 2565
0.12 -0.01 -0.93 -16.25 13.79 -2.47 1.20 1.35 2571
0.12 -0.01 -2.54 -16.98 12.21 -2.43 1.33 1.49 2577
0.12 -0.01 -4.56 -18.19 10.97 -2.32 1.46 1.67 2584
0.12 -0.01 -6.43 -19.95 10.30 -2.20 1.38 1.80 2590
0.12 -0.01 -7.64 -21.26 9.40 -2.09 0.94 1.84 2596
0.12 -0.01 -7.56 -22.41 7.72 -1.97 0.35 1.78 2603
0.10 -0.01 -6.72 -23.35 5.58 -1.80 -0.13 1.65 2609
0.11 -0.01 -5.27 -24.21 3.74 -1.56 -0.33 1.47 2616
0.11 -0.01 -3.96 -24.76 2.39 -1.25 -0.36 1.23 2622
0.10 -0.01 -3.00 -25.07 1.69 -0.87 -0.25 0.91 2628
0.11 -0.01 -2.37 -24.77 1.80 -0.47 -0.11 0.62 2634
0.12 -0.01 -1.93 -24.25 2.36 -0.10 0.03 0.25 2640
0.10 -0.01 -9.73 -38.12 21.85 0.99 0.08 -0.01 2648
0.10 -0.01 -8.44 -23.56 -2.16 1.84 -0.66 -0.12 2654
0.11 -0.01 -8.33 -26.26 -0.14 2.16 -1.50 -0.25 2660
0.12 -0.00 -3.05 -16.57 5.57 2.74 -2.28 -0.30 2666
0.13 0.02 -0.14 -3.82 6.14 2.91 -2.33 -0.31 2672
0.11 0.06 4.39 2.01 14.53 2.98 -1.95 -0.15 2678
0.10 0.14 6.84 4.47 18.07 2.86 -1.28 0.23 2685
0.12 0.24 6.73 3.37 16.41 2.59 -0.44 0.69 2692
0.11 0.29 4.26 -1.30 13.92 2.53 0.17 1.07 2698
0.11 0.35 0.28 -3.79 14.55 2.75 0.42 1.27 2704
0.10 0.42 -4.47 -4.68 16.89 2.98 0.27 1.20 2711
0.09 0.48 -6.60 -4.19 19.26 3.07 -0.11 0.84 2717
0.09 0.57 -6.02 -3.72 20.90 3.03 -0.25 0.38 2723
0.09 0.65 -3.47 -2.53 18.10 2.68 -0.23 0.03 2729
0.08 0.69 -1.55 -2.45 16.40 2.33 -0.07 -0.18 2736
0.10 0.72 0.89 -2.76 17.48 2.03 -0.22 -0.32 2743
0.08 0.72 2.75 -2.28 16.09 1.47 -0.73 -0.30 2749
0.08 0.73 3.62 -2.72 12.17 0.80 -0.73 -0.03 2755
0.10 0.79 1.13 -1.85 10.93 0.58 -0.63 0.21 2761
0.10 0.76 -0.16 -1.30 11.70 0.53 -0.67 0.19 2768
0.12 0.78 -0.29 -0.88 10.69 0.26 -0.42 0.12 2775
0.13 0.78 0.22 -1.46 9.88 0.12 -0.23 0.09 2781
0.11 0.81 0.83 -1.45 10.01 0.14 -0.24 0.12 2787
0.12 0.86 0.51 -1.32 10.16 0.09 -0.19 0.16 2793
0.13 0.88 0.23 -1.25 10.07 0.05 -0.15 0.15 2800
0.13 0.91 0.36 -1.17 9.93 0.03 -0.09 0.14 2806
0.14 0.95 0.46 -1.19 9.95 0.01 -0.06 0.14 2812
0.14 0.94 0.40 -1.15 9.92 0.01 -0.05 0.15 2819
0.14 0.97 0.41 -1.06 9.84 0.01 -0.00 0.14 2825
0.14 1.01 0.49 -1.11 9.88 0.01 -0.03 0.15 2831
0.13 1.02 0.48 -1.11 9.85 0.01 -0.02 0.14 2837
0.13 1.01 0.50 -1.10 9.94 0.02 -0.02 0.14 2844
0.13 1.01 0.43 -1.14 9.94 0.02 -0.01 0.13 2850
0.14 1.00 0.47 -1.13 9.93 0.02 -0.00 0.14 2856
0.14 0.93 0.50 -1.14 10.01 0.03 0.01 0.14 2863
0.15 0.91 0.54 -1.14 9.91 0.03 0.00 0.15 2869
0.14 0.90 0.54 -1.12 9.95 0.04 -0.00 0.14 2875
0.15 0.85 0.48 -1.15 9.86 0.04 -0.00 0.15 2882
0.16 0.80 0.51 -1.18 9.88 0.05 -0.01 0.14 2888
0.17 0.79 0.48 -1.13 9.90 0.05 -0.00 0.15 2894
0.18 0.74 0.49 -1.12 9.87 0.05 -0.00 0.15 2900
0.16 0.69 0.54 -1.12 9.87 0.05 -0.00 0.14 2907
0.16 0.68 0.57 -1.13 9.88 0.06 -0.00 0.15 2913
0.17 0.63 0.59 -1.14 9.92 0.06 -0.01 0.14 2919
0.16 0.57 0.56 -1.15 9.87 0.06 -0.02 0.13 2926
0.15 0.51 0.57 -1.15 9.88 0.06 -0.03 0.13 2932
0.16 0.47 0.57 -1.19 9.86 0.06 -0.03 0.12 2938
0.19 0.39 0.58 -1.18 9.95 0.05 -0.03 0.12 2945
0.19 0.36 0.53 -1.20 9.94 0.05 -0.04 0.11 2951
0.19 0.30 0.54 -1.26 9.88 0.06 -0.04 0.11 2957
0.22 0.25 0.55 -1.20 9.88 0.06 -0.04 0.10 2964
0.21 0.21 0.53 -1.20 9.87 0.05 -0.04 0.11 2970
0.23 0.20 0.49 -1.22 9.90 0.05 -0.04 0.10 2976
0.24 0.15 0.52 -1.27 9.91 0.05 -0.03 0.10 2982
0.25 0.10 0.56 -1.27 9.84 0.05 -0.04 0.11 2989
0.25 0.11 0.54 -1.21 9.90 0.04 -0.04 0.10 2995
0.27 0.07 0.59 -1.29 9.92 0.03 -0.05 0.09 3001
0.29 0.04 0.61 -1.28 9.90 0.03 -0.07 0.09 3008
0.29 0.01 0.60 -1.22 9.91 0.02 -0.08 0.09 3014
0.29 0.03 0.67 -1.23 9.90 0.02 -0.09 0.08 3020
0.34 0.02 0.55 -1.26 9.89 0.02 -0.10 0.07 3026
0.36 0.00 0.56 -1.34 9.85 0.02 -0.09 0.07 3033
0.35 -0.01 0.58 -1.27 9.87 0.02 -0.10 0.07 3039
0.35 0.01 0.46 -1.25 9.84 0.03 -0.09 0.07 3045
0.37 -0.01 0.44 -1.42 9.94 0.02 -0.09 0.07 3051
0.43 -0.02 0.45 -1.28 9.93 0.03 -0.09 0.06 3058
0.42 -0.02 0.48 -1.47 10.10 0.04 -0.08 0.05 3064
0.42 -0.02 0.78 -1.11 10.01 0.04 -0.08 0.04 3070
0.44 -0.03 0.47 -1.35 9.98 0.05 -0.08 0.06 3077
0.44 -0.03 0.41 -1.31 9.97 0.06 -0.07 0.05 3083
0.49 -0.02 0.43 -1.31 9.98 0.07 -0.07 0.05 3089
0.51 -0.03 0.15 -1.20 10.00 0.08 -0.07 0.04 3096
0.55 -0.04 0.40 -1.31 9.94 0.09 -0.07 0.05 3102
0.59 -0.03 0.49 -1.40 9.95 0.10 -0.08 0.05 3108
0.62 -0.04 0.50 -1.31 9.90 0.11 -0.08 0.05 3115
0.63 -0.05 0.55 -1.38 10.02 0.13 -0.09 0.04 3121
0.68 -0.03 0.55 -1.44 10.00 0.14 -0.10 0.03 3127
0.72 -0.04 0.46 -1.43 9.94 0.15 -0.10 0.03 3134
0.78 -0.05 0.34 -1.42 9.96 0.16 -0.11 0.03 3140
0.78 -0.03 0.46 -1.54 10.11 0.18 -0.11 0.02 3146
0.82 -0.03 0.47 -1.41 10.04 0.20 -0.11 0.03 3152
0.86 -0.05 0.38 -1.41 10.00 0.22 -0.11 0.03 3159
0.91 -0.04 0.51 -1.58 10.13 0.27 -0.12 0.02 3166
0.91 -0.04 0.55 -1.63 10.27 0.31 -0.17 0.01 3172
0.93 -0.05 0.58 -1.71 10.35 0.37 -0.14 -0.01 3178
0.95 -0.04 0.58 -1.62 10.68 0.45 -0.15 -0.01 3184
0.98 -0.04 0.46 -1.64 10.56 0.54 -0.17 -0.02 3190
1.02 -0.05 0.46 -1.74 10.53 0.62 -0.17 -0.02 3197
1.07 -0.04 0.32 -1.72 10.79 0.69 -0.16 -0.02 3204
1.11 -0.06 0.29 -1.60 10.85 0.77 -0.15 -0.01 3210
1.11 -0.04 0.44 -2.21 10.72 0.84 -0.13 -0.00 3216
1.17 -0.05 0.30 -2.02 11.21 0.91 -0.12 0.01 3223
1.22 -0.06 0.29 -2.08 11.16 1.01 -0.09 0.02 3229
1.26 -0.05 0.37 -2.11 11.20 1.10 -0.06 0.03 3235
1.27 -0.05 0.37 -2.19 11.17 1.19 -0.05 0.02 3241
1.27 -0.05 0.38 -2.14 11.62 1.29 -0.04 0.02 3248
1.27 -0.03 0.46 -2.25 11.24 1.39 -0.05 0.02 3255
1.28 -0.05 0.58 -2.42 11.31 1.47 -0.05 0.00 3261
1.28 -0.06 0.60 -2.56 11.52 1.60 -0.09 -0.02 3267
1.29 -0.04 0.78 -2.54 11.81 1.72 -0.09 -0.03 3273
1.30 -0.06 1.16 -2.90 11.60 1.82 -0.11 -0.07 3279
1.30 -0.06 0.80 -2.97 11.13 1.90 -0.11 -0.11 3287
1.30 -0.05 0.55 -3.13 12.03 1.99 -0.09 -0.13 3293
1.23 -0.06 0.40 -3.38 12.36 2.09 -0.08 -0.14 3299
1.21 -0.05 0.25 -3.34 13.15 2.24 -0.07 -0.14 3305
1.15 -0.06 0.62 -3.67 13.35 2.43 -0.07 -0.15 3312
1.06 -0.06 1.12 -4.15 13.04 2.66 -0.12 -0.18 3318
0.97 -0.03 0.68 -4.16 12.58 2.88 -0.15 -0.26 3324
0.91 -0.05 0.45 -3.76 13.07 3.17 -0.18 -0.25 3331
0.83 -0.04 0.72 -4.20 14.17 3.45 -0.13 -0.32 3337
0.80 -0.03 1.30 -4.81 15.42 3.81 -0.12 -0.33 3344
0.72 -0.04 1.19 -5.92 17.25 4.15 -0.11 -0.33 3350
0.72 -0.03 1.74 -6.30 21.96 4.28 -0.14 -0.35 3356
0.66 -0.03 1.90 -7.90 21.89 4.28 -0.12 -0.41 3362
0.55 -0.02 2.65 -8.87 22.71 4.28 -0.16 -0.43 3369
0.50 -0.02 2.76 -9.63 24.48 4.28 -0.10 -0.46 3376
0.47 -0.02 1.84 -10.72 24.48 4.28 -0.08 -0.52 3382
0.42 -0.02 2.38 -9.96 24.44 4.28 -0.10 -0.55 3388
0.35 -0.02 2.46 -8.80 25.84 4.28 -0.03 -0.57 3395
0.31 -0.03 0.69 -8.06 26.43 4.28 -0.02 -0.61 3401
0.25 -0.01 0.60 -7.08 24.13 4.28 -0.25 -0.66 3407
0.22 -0.01 2.20 -4.72 22.78 4.28 -0.43 -0.69 3414
0.17 -0.01 4.11 -2.28 22.08 4.28 -0.46 -0.72 3420
0.18 -0.00 5.77 0.61 20.12 4.28 -0.35 -0.74 3427
0.15 -0.02 6.69 3.22 19.00 4.28 -0.15 -0.83 3433
0.13 -0.01 7.02 5.05 19.41 4.28 0.06 -0.98 3439
0.15 -0.01 6.54 5.52 19.41 4.28 0.39 -1.18 3445
0.12 -0.01 6.43 10.97 9.23 4.28 0.86 -1.50 3451
0.10 -0.01 5.70 14.89 10.04 4.28 1.56 -2.26 3459
0.13 -0.01 8.51 13.54 5.49 4.28 1.86 -2.93 3465
0.12 -0.01 5.78 21.37 16.54 2.82 2.16 -3.24 3471
0.12 -0.01 1.97 18.90 26.61 0.91 2.65 -3.28 3477
0.13 -0.01 0.74 12.65 26.83 -0.77 2.55 -3.02 3484
0.12 -0.01 -2.56 13.54 21.76 -2.06 1.76 -2.62 3490
0.14 -0.00 -3.29 12.79 16.44 -3.02 0.73 -2.10 3496
0.14 -0.01 -0.85 9.65 13.02 -3.66 -0.20 -1.68 3503
0.14 -0.01 1.51 6.73 10.36 -3.98 -0.83 -1.41 3509
0.14 -0.01 2.93 5.02 8.14 -4.07 -1.08 -1.21 3516
0.13 -0.01 4.08 4.04 6.33 -4.05 -1.01 -1.05 3522
0.12 -0.01 4.91 3.55 5.34 -3.99 -0.75 -0.90 3528
0.13 -0.01 5.17 3.16 4.58 -3.90 -0.40 -0.78 3534
0.11 -0.01 4.88 2.95 4.41 -3.79 -0.01 -0.66 3540
0.10 -0.01 4.45 2.76 4.92 -3.70 0.30 -0.54 3547
0.12 -0.00 3.77 2.56 5.81 -3.63 0.57 -0.41 3554
0.11 -0.01 3.08 2.60 7.13 -3.59 0.70 -0.33 3560
0.10 -0.01 2.63 2.74 8.18 -3.62 0.73 -0.19 3566
0.12 -0.01 2.32 2.82 9.34 -3.71 0.70 -0.05 3572
0.13 -0.00 2.35 2.72 10.30 -3.85 0.68 0.11 3578
0.12 -0.01 2.53 2.10 11.35 -4.03 0.67 0.26 3585
0.11 -0.01 2.74 1.52 12.17 -4.14 0.69 0.40 3592
0.12 -0.01 2.79 0.80 12.46 -4.25 0.74 0.52 3598
0.11 -0.01 2.82 -0.04 12.56 -4.28 0.81 0.61 3604
0.11 0.00 2.79 -1.00 12.67 -4.28 0.87 0.68 3610
0.11 -0.01 2.79 -1.87 12.67 -4.28 0.94 0.72 3616
0.11 -0.01 2.68 -2.73 12.72 -4.28 1.05 0.75 3623
0.12 -0.00 2.51 -3.65 12.99 -4.28 1.19 0.75 3630
0.12 -0.01 2.28 -4.63 13.47 -4.28 1.34 0.74 3636
0.10 -0.01 1.91 -5.39 14.15 -4.28 1.47 0.71 3642
0.12 -0.01 1.45 -6.74 14.81 -4.26 1.54 0.68 3649
0.10 -0.01 1.14 -6.80 15.42 -4.22 1.57 0.65 3655
0.11 -0.00 1.07 -7.29 15.89 -4.18 1.55 0.63 3661
0.12 -0.01 1.15 -7.72 16.42 -4.13 1.49 0.65 3667
0.11 -0.01 1.43 -8.00 16.87 -4.07 1.42 0.70 3674
0.11 -0.01 1.68 -8.27 17.07 -3.99 1.35 0.77 3681
0.12 -0.01 1.89 -8.80 17.39 -3.86 1.30 0.84 3687
0.12 -0.01 2.21 -9.67 17.66 -3.72 1.28 0.91 3693
0.11 0.00 2.43 -10.40 17.85 -3.56 1.29 0.96 3699
0.11 -0.01 2.58 -10.95 18.25 -3.41 1.31 1.01 3706
0.11 -0.01 2.55 -11.35 18.77 -3.27 1.33 1.04 3713
0.12 -0.01 2.39 -11.62 19.32 -3.17 1.32 1.06 3719
0.11 -0.01 2.34 -11.80 19.65 -3.10 1.32 1.09 3725
0.12 -0.01 2.49 -12.00 19.80 -3.06 1.32 1.12 3732
0.12 -0.01 2.66 -12.37 19.86 -3.03 1.37 1.15 3738
0.12 0.00 2.77 -12.86 19.71 -3.01 1.47 1.18 3744
0.12 -0.01 2.47 -13.42 19.62 -2.99 1.60 1.21 3750
0.11 -0.01 1.76 -13.91 19.23 -2.99 1.72 1.24 3758
0.12 -0.01 0.70 -14.44 18.51 -2.98 1.77 1.26 3764
0.12 -0.01 -0.05 -15.02 17.50 -2.94 1.75 1.28 3770
0.12 0.00 -0.63 -15.59 16.53 -2.87 1.67 1.27 3776
0.12 -0.01 -0.97 -16.12 15.37 -2.79 1.59 1.26 3783
0.11 -0.01 -1.42 -16.51 13.81 -2.66 1.53 1.23 3789
0.13 -0.01 -2.27 -16.21 11.66 -2.49 1.58 1.24 3795
0.12 -0.01 -4.21 -16.72 10.33 -2.29 1.78 1.37 3802
0.12 0.01 -6.74 -17.02 9.90 -2.05 1.93 1.56 3809
0.12 -0.01 -8.91 -18.46 10.14 -1.84 1.81 1.71 3815
0.12 -0.01 -9.80 -20.12 9.77 -1.71 1.32 1.71 3821
0.12 -0.01 -9.44 -21.36 8.58 -1.66 0.58 1.56 3827
0.11 -0.01 -7.67 -22.50 6.60 -1.55 -0.02 1.32 3834
0.11 0.01 -5.60 -23.74 4.52 -1.38 -0.20 1.04 3841
0.12 -0.01 -4.33 -24.48 3.04 -1.12 -0.03 0.75 3847
0.11 -0.01 -4.27 -24.83 2.15 -0.80 0.23 0.40 3853
0.12 -0.00 -3.70 -24.35 2.31 -0.45 0.43 0.03 3860
0.11 -0.01 -4.18 -23.47 3.41 -0.10 0.53 -0.31 3866
0.11 -0.00 -4.69 -21.53 4.56 0.22 0.46 -0.58 3872
0.13 -0.01 -4.83 -19.69 5.61 0.48 0.28 -0.74 3878
0.12 -0.01 -5.79 -21.11 4.40 0.70 -0.07 -0.80 3885
0.12 -0.00 -11.73 -31.54 15.80 2.34 -2.00 -0.15 3892
0.12 -0.01 -3.20 -6.48 -2.68 2.58 -3.41 -0.12 3898
0.09 0.00 4.16 1.75 7.62 2.59 -3.79 -0.19 3904
0.10 0.07 6.98 3.09 14.41 2.68 -3.07 0.09 3910
0.09 0.15 6.98 6.19 13.97 2.39 -1.89 0.67 3916
0.06 0.24 5.36 4.74 12.51 2.19 -0.92 1.17 3923
0.07 0.36 2.25 -0.26 11.21 2.29 -0.23 1.53 3930
0.09 0.37 -1.60 -3.10 11.82 2.82 0.27 1.73 3936
0.10 0.41 -7.07 -4.39 15.07 3.23 0.49 1.64 3942
0.11 0.54 -11.30 -4.51 18.70 3.48 0.27 1.17 3949
0.07 0.65 -10.71 -4.03 22.54 3.53 0.04 0.41 3955
0.07 0.77 -5.48 -3.23 22.11 3.29 0.00 -0.31 3961
0.08 0.84 0.35 -2.79 18.77 2.94 0.20 -0.65 3968
0.07 0.88 4.41 -3.10 19.44 2.68 -0.06 -0.67 3975
0.09 0.91 5.59 -2.26 18.20 1.86 -0.99 -0.45 3981
0.09 0.95 4.74 -3.36 12.45 1.04 -0.95 0.15 3987
0.09 0.96 0.50 -1.90 10.92 0.90 -0.87 0.41 3993
0.10 0.98 -1.60 -0.54 12.00 0.89 -0.98 0.26 3999
0.09 0.98 -0.25 -0.81 11.79 0.59 -0.75 0.13 4006
0.09 0.98 0.01 -1.48 10.71 0.28 -0.42 0.13 4013
0.11 1.00 0.72 -1.60 10.19 0.23 -0.35 0.15 4019
0.10 0.99 0.39 -1.14 10.58 0.20 -0.30 0.18 4025
0.10 1.03 0.19 -0.92 10.08 0.11 -0.18 0.18 4031
0.10 1.04 0.43 -0.98 10.00 0.08 -0.12 0.16 4038
0.09 1.05 0.57 -1.03 9.96 0.06 -0.09 0.17 4044
0.10 1.06 0.48 -0.96 9.99 0.05 -0.07 0.17 4050
0.10 1.04 0.50 -0.90 9.86 0.04 -0.06 0.15 4057
0.10 1.02 0.54 -1.02 9.95 0.03 -0.05 0.15 4063
0.10 1.01 0.47 -0.98 9.92 0.03 -0.03 0.15 4069
0.10 1.00 0.45 -0.96 9.95 0.03 -0.01 0.15 4075
0.10 0.95 0.46 -0.96 9.99 0.03 0.01 0.15 4082
0.08 0.92 0.49 -0.96 9.99 0.03 0.03 0.15 4088
0.10 0.90 0.47 -0.97 9.96 0.04 0.06 0.16 4094
0.12 0.87 0.51 -0.97 9.94 0.05 0.07 0.15 4101
0.12 0.84 0.51 -0.99 9.94 0.05 0.07 0.15 4107
0.11 0.78 0.55 -0.99 9.93 0.06 0.07 0.16 4113
0.12 0.77 0.58 -0.99 9.92 0.06 0.08 0.15 4119
0.13 0.68 0.62 -1.03 9.98 0.06 0.08 0.14 4126
0.11 0.68 0.64 -0.99 9.93 0.06 0.08 0.15 4132
0.12 0.65 0.66 -1.01 9.99 0.06 0.08 0.14 4139
0.13 0.61 0.69 -1.01 9.93 0.06 0.07 0.14 4145
0.15 0.55 0.71 -1.02 9.90 0.06 0.05 0.13 4151
0.15 0.51 0.71 -1.00 9.84 0.06 0.04 0.13 4157
0.16 0.48 0.69 -1.06 9.86 0.06 0.03 0.12 4163
0.14 0.44 0.67 -0.98 9.86 0.06 0.02 0.11 4170
0.14 0.42 0.66 -1.08 9.95 0.06 0.01 0.11 4176
0.14 0.39 0.66 -1.03 9.82 0.05 0.01 0.11 4183
0.15 0.30 0.62 -1.12 9.95 0.05 0.02 0.11 4189
0.16 0.26 0.61 -1.07 9.92 0.06 0.02 0.11 4195
0.17 0.23 0.64 -1.09 9.87 0.06 0.03 0.11 4201
0.18 0.21 0.68 -1.06 9.88 0.05 0.03 0.11 4207
0.17 0.16 0.73 -1.09 9.90 0.05 0.02 0.11 4214
0.17 0.15 0.72 -1.13 9.87 0.05 0.01 0.11 4220
0.18 0.10 0.72 -1.11 9.88 0.04 0.00 0.11 4227
0.18 0.09 0.75 -1.11 9.89 0.04 -0.01 0.11 4233
0.18 0.05 0.76 -1.12 9.91 0.03 -0.02 0.10 4239
0.20 0.09 0.77 -1.09 9.93 0.03 -0.03 0.10 4245
0.20 0.08 0.74 -1.14 9.87 0.03 -0.05 0.08 4251
0.23 0.02 0.78 -1.14 9.87 0.03 -0.06 0.09 4258
0.21 0.05 0.83 -1.17 9.90 0.02 -0.09 0.09 4264
0.23 0.01 0.75 -1.11 9.90 0.02 -0.11 0.07 4271
0.21 0.00 0.74 -1.17 9.92 0.02 -0.12 0.07 4277
0.23 -0.01 0.65 -1.10 9.93 0.01 -0.14 0.06 4283
0.21 -0.00 0.80 -0.65 9.95 0.01 -0.15 0.06 4289
0.25 -0.01 0.79 -1.17 9.86 0.01 -0.17 0.06 4295
0.24 -0.02 0.83 -1.14 9.87 0.00 -0.17 0.05 4302
0.24 -0.01 0.70 -1.52 10.25 -0.01 -0.18 0.04 4308
0.26 -0.01 0.65 -1.14 10.04 0.00 -0.17 0.04 4315
0.29 -0.02 0.61 -1.11 9.92 -0.00 -0.16 0.04 4321
0.30 -0.02 0.62 -1.24 10.02 0.00 -0.16 0.04 4327
0.34 -0.02 0.68 -1.25 10.04 0.01 -0.15 0.04 4334
0.37 -0.02 0.62 -1.18 10.03 0.01 -0.16 0.02 4340
0.40 -0.02 0.15 -1.08 10.00 0.02 -0.16 0.02 4346
0.45 -0.02 0.72 -1.09 10.00 0.02 -0.16 0.02 4353
0.48 -0.03 1.04 -1.08 9.98 0.03 -0.16 0.02 4359
0.49 -0.03 0.93 -1.03 10.10 0.04 -0.16 0.01 4365
0.51 -0.03 0.74 -0.91 10.03 0.06 -0.16 0.02 4372
0.54 -0.04 0.64 -1.11 10.06 0.07 -0.16 0.01 4378
0.62 -0.04 0.58 -1.13 10.10 0.09 -0.16 0.01 4384
0.69 -0.03 0.57 -1.09 10.06 0.11 -0.16 0.01 4390
0.71 -0.05 0.53 -1.20 10.07 0.14 -0.18 0.01 4397
0.73 -0.04 0.50 -1.29 10.06 0.17 -0.19 -0.00 4404
0.80 -0.04 0.69 -1.43 10.18 0.21 -0.20 -0.02 4410
0.84 -0.05 0.57 -1.27 10.14 0.25 -0.22 -0.03 4416
0.89 -0.04 0.73 -1.21 10.26 0.29 -0.24 -0.04 4422
0.91 -0.04 0.58 -1.26 10.42 0.34 -0.25 -0.05 4428
0.99 -0.05 0.52 -1.41 10.47 0.41 -0.26 -0.05 4435
1.03 -0.03 0.50 -1.35 10.70 0.49 -0.28 -0.05 4442
1.08 -0.05 0.53 -1.44 11.06 0.60 -0.28 -0.03 4448
1.12 -0.05 0.33 -1.60 11.05 0.71 -0.27 -0.02 4454
1.15 -0.05 0.29 -1.60 11.20 0.82 -0.27 0.00 4460
1.18 -0.06 0.29 -1.66 11.15 0.92 -0.25 0.00 4467
1.22 -0.05 0.30 -1.73 11.29 1.02 -0.21 0.01 4473
1.28 -0.06 0.37 -1.92 12.00 1.10 -0.15 0.02 4480
1.31 -0.05 0.35 -1.80 11.33 1.21 -0.10 0.03 4486
1.30 -0.05 0.24 -2.04 11.16 1.31 -0.07 0.03 4493
1.36 -0.05 0.38 -2.11 11.38 1.41 -0.06 0.02 4499
1.38 -0.07 0.39 -2.09 11.51 1.52 -0.06 0.01 4505
1.38 -0.05 0.61 -2.27 11.63 1.62 -0.06 -0.00 4511
1.40 -0.06 0.39 -2.58 11.67 1.75 -0.08 -0.01 4517
1.37 -0.06 0.46 -2.49 12.32 1.85 -0.10 -0.01 4525
1.37 -0.04 0.66 -2.49 11.75 1.96 -0.10 -0.03 4531
1.34 -0.05 0.40 -2.85 11.43 1.97 -0.06 -0.05 4537
1.34 -0.04 0.63 -2.94 11.70 2.05 -0.05 -0.07 4543
1.24 -0.05 0.54 -3.17 11.30 2.16 -0.03 -0.10 4549
1.19 -0.05 1.06 -3.32 12.13 2.29 -0.04 -0.10 4556
1.18 -0.06 0.65 -3.58 12.01 2.45 -0.05 -0.11 4562
1.07 -0.05 0.80 -3.88 12.57 2.62 -0.08 -0.14 4569
1.00 -0.06 1.49 -4.07 12.45 2.86 -0.09 -0.19 4575
0.88 -0.04 1.70 -3.91 13.47 3.11 -0.10 -0.25 4582
0.85 -0.04 0.38 -4.31 14.03 3.42 -0.12 -0.37 4588
0.76 -0.04 1.41 -4.61 15.30 3.80 -0.10 -0.39 4594
0.70 -0.03 1.90 -5.43 16.25 4.10 -0.08 -0.44 4600
0.65 -0.04 1.59 -6.69 18.56 4.26 -0.05 -0.47 4606
0.69 -0.03 1.92 -7.34 19.74 4.28 -0.03 -0.50 4614
0.62 -0.03 1.60 -8.26 20.72 4.28 -0.04 -0.52 4620
0.56 -0.03 1.39 -8.38 22.20 4.28 0.09 -0.48 4626
0.51 -0.02 0.91 -9.98 24.39 4.28 0.20 -0.42 4632
0.41 -0.02 0.39 -10.56 24.01 4.28 0.21 -0.35 4639
0.33 -0.02 1.26 -9.10 25.11 4.28 0.22 -0.31 4645
0.32 -0.01 1.09 -8.27 25.01 4.28 0.28 -0.32 4652
0.27 -0.02 -0.11 -7.37 24.48 4.28 0.16 -0.37 4658
0.23 -0.01 0.12 -5.82 23.26 4.28 -0.12 -0.43 4665
0.23 -0.01 1.74 -3.81 22.48 4.28 -0.36 -0.46 4671
0.20 -0.02 3.70 -1.08 20.99 4.28 -0.46 -0.48 4677
0.16 -0.01 4.96 0.93 19.55 4.28 -0.40 -0.52 4683
0.16 -0.01 6.01 2.99 18.26 4.28 -0.26 -0.60 4689
0.14 -0.01 4.91 4.48 19.37 4.28 -0.17 -0.76 4697
0.14 -0.00 4.40 4.82 18.89 4.28 0.02 -0.98 4703
0.12 -0.01 4.17 8.53 11.20 4.28 0.50 -1.33 4709
0.10 -0.01 6.17 13.12 10.10 4.28 0.86 -2.01 4715
0.11 -0.01 8.29 12.53 4.55 4.27 1.02 -2.65 4721
0.10 -0.01 5.87 20.53 13.52 2.51 1.41 -3.08 4728
0.09 -0.01 4.09 16.31 26.23 0.67 2.16 -3.15 4734
0.11 -0.00 3.27 11.96 24.24 -0.93 2.30 -3.00 4741
0.11 -0.01 -0.56 13.02 20.24 -2.19 1.82 -2.75 4747
0.10 -0.01 -2.25 12.10 15.65 -3.11 1.12 -2.31 4754
0.11 -0.01 -0.53 8.71 12.51 -3.73 0.40 -1.89 4760
0.10 -0.01 1.49 6.18 9.80 -4.07 -0.24 -1.65 4766
0.11 -0.01 2.20 4.62 7.81 -4.16 -0.60 -1.50 4772
0.13 -0.01 3.18 3.16 6.14 -4.16 -0.64 -1.36 4779
0.12 -0.01 3.97 2.26 4.87 -4.11 -0.49 -1.24 4785
0.12 -0.01 4.43 1.79 4.08 -3.98 -0.29 -1.13 4791
0.14 -0.01 4.75 1.55 3.74 -3.82 -0.05 -1.04 4798
0.14 -0.01 4.71 1.38 4.06 -3.67 0.28 -0.97 4804
0.12 -0.01 4.38 1.35 4.76 -3.56 0.59 -0.87 4810
0.12 -0.01 4.16 1.48 5.96 -3.48 0.81 -0.76 4816
0.13 -0.01 3.73 1.97 7.36 -3.49 0.95 -0.62 4823
0.13 -0.01 3.33 2.48 8.85 -3.57 1.02 -0.46 4829
0.12 -0.01 3.08 2.81 10.09 -3.67 1.05 -0.27 4835
0.13 -0.00 2.79 2.65 11.08 -3.86 1.06 -0.07 4842
0.13 -0.01 2.65 1.95 11.81 -4.05 1.06 0.13 4848
0.11 -0.01 2.59 1.18 12.26 -4.18 1.07 0.31 4854
0.11 -0.01 2.47 0.21 12.52 -4.25 1.08 0.46 4860
0.12 -0.01 2.43 -0.67 12.51 -4.28 1.12 0.53 4867
0.12 -0.01 2.40 -1.58 12.74 -4.28 1.17 0.60 4874
0.13 -0.01 2.38 -2.49 12.78 -4.28 1.27 0.63 4880
0.12 -0.01 2.27 -3.27 13.05 -4.28 1.42 0.65 4886
0.12 -0.01 1.98 -4.04 13.39 -4.28 1.60 0.64 4892
0.14 -0.01 1.53 -4.81 14.01 -4.26 1.77 0.62 4898
0.13 -0.01 0.87 -5.49 14.77 -4.23 1.91 0.59 4905
0.12 -0.01 0.14 -6.20 15.72 -4.19 1.99 0.56 4912
0.13 -0.01 -0.41 -6.77 16.31 -4.14 2.01 0.53 4918
0.13 -0.01 -0.70 -7.42 16.88 -4.09 1.96 0.52 4924
0.11 -0.01 -0.81 -7.92 17.28 -4.04 1.88 0.53 4930
0.11 -0.01 -0.72 -8.27 17.50 -3.96 1.84 0.56 4937
0.10 -0.01 -0.70 -8.40 17.70 -3.86 1.78 0.63 4943
0.10 -0.01 -0.71 -8.39 18.04 -3.76 1.73 0.70 4950
0.12 -0.01 -0.77 -8.49 18.52 -3.66 1.68 0.74 4956
0.11 -0.01 -0.76 -8.80 18.95 -3.58 1.62 0.81 4962
0.11 -0.01 -0.67 -9.11 19.35 -3.50 1.59 0.89 4968
0.11 -0.01 -0.55 -9.56 19.70 -3.44 1.57 0.95 4975
0.11 -0.01 -0.54 -10.18 20.02 -3.40 1.53 1.01 4981
0.11 -0.01 -0.48 -10.89 20.11 -3.38 1.49 1.05 4987
0.11 -0.01 -0.52 -11.56 19.82 -3.36 1.45 1.08 4994
0.09 -0.01 -0.38 -12.32 19.51 -3.32 1.37 1.10 5001
0.11 -0.01 -0.22 -12.80 18.96 -3.26 1.28 1.09 5007
0.11 -0.01 0.00 -13.27 18.41 -3.15 1.22 1.06 5013
0.10 -0.01 0.16 -13.71 17.84 -3.09 1.20 1.02 5019
0.11 -0.01 0.26 -14.23 17.27 -3.00 1.19 0.98 5025
0.10 -0.01 0.22 -14.85 16.62 -2.90 1.20 0.95 5032
0.11 -0.01 0.20 -15.63 15.90 -2.80 1.20 0.90 5039
0.10 -0.01 0.24 -16.30 14.97 -2.70 1.21 0.87 5045
0.10 -0.01 0.30 -17.07 13.89 -2.61 1.26 0.84 5051
0.11 -0.01 -0.02 -17.01 11.94 -2.49 1.38 0.85 5058
0.11 -0.01 -1.34 -17.10 10.03 -2.36 1.64 0.97 5064
0.10 -0.01 -3.80 -17.21 8.48 -2.16 1.98 1.22 5070
0.12 -0.01 -7.03 -18.26 8.14 -1.91 2.19 1.53 5076
0.11 -0.01 -9.56 -19.50 8.38 -1.68 2.05 1.69 5083
0.11 -0.01 -10.37 -20.78 7.86 -1.49 1.39 1.76 5090
0.12 -0.01 -9.47 -21.80 6.51 -1.31 0.51 1.67 5096
0.11 -0.01 -7.02 -23.10 5.15 -1.05 -0.14 1.48 5102
0.12 0.00 -4.81 -23.71 3.43 -0.73 -0.36 1.24 5108
0.12 -0.01 -3.37 -23.69 2.43 -0.36 -0.27 0.94 5114
0.12 -0.01 -2.74 -23.09 2.75 0.01 -0.06 0.59 5122
0.12 -0.00 -2.85 -22.04 3.76 0.34 0.12 0.23 5128
0.12 -0.01 -19.11 -34.40 22.41 0.89 -0.38 0.10 5134
0.11 -0.01 -11.39 -22.70 0.21 2.07 -1.54 0.17 5140
0.12 -0.01 -8.53 -20.95 1.47 2.39 -2.59 0.10 5147
0.11 -0.00 -0.22 -7.70 5.93 2.72 -3.20 0.02 5153
0.11 0.02 1.89 0.69 11.43 2.80 -2.92 0.07 5159
0.11 0.10 4.49 4.80 16.37 2.76 -2.36 0.35 5166
0.10 0.15 4.86 5.71 16.24 2.50 -1.65 0.74 5172
0.09 0.28 4.26 1.95 14.21 2.27 -0.96 1.05 5179
0.09 0.34 1.35 -1.69 12.71 2.34 -0.43 1.26 5185
0.10 0.34 -1.31 -2.77 13.66 2.68 -0.11 1.37 5191
0.08 0.44 -4.38 -3.42 15.18 2.94 0.09 1.31 5197
0.09 0.49 -6.51 -3.08 16.77 3.08 0.19 1.09 5203
0.07 0.59 -8.69 -3.07 19.91 3.06 0.13 0.61 5211
0.10 0.64 -6.90 -2.86 19.86 2.92 0.09 -0.01 5217
0.08 0.73 -1.74 -2.17 16.98 2.57 0.07 -0.46 5223
0.06 0.78 2.06 -2.19 15.43 2.34 0.13 -0.59 5229
0.09 0.80 4.41 -2.19 15.72 2.15 -0.13 -0.49 5236
0.09 0.82 4.69 -2.13 15.19 1.73 -0.72 -0.27 5242
0.08 0.84 3.76 -2.23 13.01 1.24 -1.02 0.04 5249
0.09 0.85 1.05 -1.40 11.72 0.98 -0.98 0.26 5255
0.09 0.85 -0.90 -1.23 11.79 0.81 -0.96 0.23 5261
0.08 0.89 -0.29 -1.09 11.93 0.55 -0.77 0.13 5268
0.09 0.89 0.35 -1.31 10.57 0.33 -0.51 0.11 5274
0.07 0.89 0.54 -1.34 10.27 0.21 -0.40 0.11 5280
0.10 0.92 0.46 -1.28 10.38 0.16 -0.31 0.15 5286
0.09 0.96 0.41 -1.13 10.25 0.09 -0.23 0.15 5294
0.08 0.97 0.31 -1.10 10.10 0.05 -0.16 0.15 5300
0.11 0.99 0.41 -1.07 10.04 0.03 -0.11 0.15 5306
0.10 0.99 0.39 -1.07 9.92 0.01 -0.08 0.15 5312
0.10 1.01 0.38 -0.97 9.92 0.01 -0.06 0.15 5318
0.12 1.01 0.44 -0.98 9.91 0.01 -0.03 0.14 5324
0.10 1.01 0.43 -1.05 9.98 0.01 -0.03 0.14 5331
0.09 1.00 0.47 -1.06 9.94 0.01 -0.02 0.14 5338
0.10 1.00 0.50 -1.04 9.90 0.01 -0.01 0.14 5344
0.11 0.98 0.45 -0.96 9.83 0.02 -0.00 0.14 5350
0.10 0.95 0.49 -1.01 9.84 0.03 0.00 0.14 5356
0.10 0.89 0.46 -1.04 9.93 0.04 0.01 0.13 5362
0.11 0.89 0.51 -1.05 9.93 0.04 0.02 0.14 5368
0.11 0.85 0.52 -1.04 9.94 0.04 0.02 0.14 5374
0.11 0.81 0.51 -0.99 9.92 0.04 0.02 0.14 5382
0.12 0.79 0.52 -1.03 9.92 0.05 0.02 0.15 5388
0.13 0.75 0.56 -1.05 9.90 0.05 0.01 0.14 5394
0.13 0.71 0.54 -1.02 9.91 0.05 0.01 0.14 5400
0.12 0.70 0.57 -1.04 9.89 0.05 0.01 0.14 5406
0.14 0.66 0.57 -1.10 9.86 0.05 0.00 0.13 5412
0.13 0.63 0.61 -1.09 9.93 0.04 -0.01 0.13 5419
0.12 0.57 0.57 -1.06 9.91 0.04 -0.02 0.13 5426
0.14 0.52 0.58 -1.08 9.94 0.04 -0.03 0.12 5432
0.15 0.50 0.57 -1.06 9.88 0.04 -0.04 0.11 5438
0.15 0.46 0.54 -1.09 9.87 0.04 -0.04 0.11 5444
0.16 0.45 0.52 -1.07 9.91 0.04 -0.04 0.11 5450
0.18 0.43 0.52 -1.06 9.92 0.04 -0.04 0.10 5456
0.18 0.41 0.49 -1.11 9.93 0.04 -0.03 0.11 5464
0.17 0.38 0.50 -1.09 9.92 0.04 -0.03 0.12 5470
0.20 0.35 0.52 -1.12 9.91 0.04 -0.02 0.12 5476
0.19 0.29 0.59 -1.12 9.92 0.04 -0.03 0.12 5482
0.19 0.24 0.58 -1.15 9.87 0.04 -0.04 0.11 5488
0.20 0.22 0.59 -1.12 9.89 0.04 -0.04 0.11 5494
0.21 0.23 0.59 -1.16 9.90 0.03 -0.05 0.10 5500
0.20 0.19 0.62 -1.16 9.88 0.03 -0.06 0.10 5508
0.20 0.20 0.59 -1.13 9.86 0.03 -0.08 0.10 5514
0.21 0.15 0.58 -1.14 9.88 0.02 -0.09 0.08 5520
0.20 0.13 0.60 -1.14 9.96 0.02 -0.09 0.08 5526
0.21 0.09 0.57 -1.14 9.92 0.02 -0.09 0.08 5532
0.22 0.10 0.53 -1.20 9.89 0.01 -0.10 0.07 5538
0.23 0.10 0.52 -1.19 9.91 0.01 -0.10 0.07 5544
0.23 0.08 0.52 -1.13 9.86 0.01 -0.09 0.07 5552
0.26 0.07 0.49 -1.16 9.96 0.01 -0.09 0.08 5558
0.28 0.07 0.60 -1.13 9.90 0.01 -0.08 0.07 5564
0.27 0.07 0.57 -1.11 9.94 0.01 -0.08 0.07 5570
0.26 0.05 0.51 -1.20 9.92 0.01 -0.08 0.07 5576
0.30 0.07 0.52 -1.21 9.95 0.01 -0.07 0.07 5582
0.31 0.03 0.58 -1.21 10.00 0.01 -0.07 0.06 5588
0.31 0.03 0.50 -1.19 9.98 0.01 -0.07 0.06 5596
0.30 0.04 0.51 -1.22 9.93 0.01 -0.07 0.07 5602
0.33 0.01 0.57 -1.21 10.00 0.01 -0.07 0.05 5608
0.35 -0.02 0.60 -1.22 9.96 0.01 -0.08 0.06 5614
0.39 -0.01 0.55 -1.19 9.98 0.01 -0.08 0.06 5620
0.40 -0.01 0.50 -0.95 9.72 0.01 -0.09 0.04 5626
0.45 -0.02 0.52 -1.19 9.87 0.02 -0.10 0.04 5633
0.47 -0.02 0.52 -0.92 9.97 0.02 -0.11 0.03 5640
0.48 -0.00 0.52 -1.11 9.88 0.03 -0.11 0.03 5646
0.54 -0.02 0.55 -1.10 9.96 0.03 -0.12 0.03 5652
0.57 -0.03 0.28 -1.53 9.96 0.04 -0.11 0.03 5658
0.62 -0.03 0.34 -1.30 9.93 0.05 -0.12 0.03 5664
0.73 -0.03 0.31 -1.32 9.98 0.06 -0.11 0.03 5670
0.75 -0.04 0.51 -1.29 10.04 0.08 -0.11 0.02 5677
0.80 -0.05 0.40 -1.33 10.16 0.10 -0.11 0.02 5684
0.83 -0.04 0.39 -1.32 10.08 0.13 -0.11 0.01 5690
0.84 -0.04 0.38 -1.26 10.12 0.15 -0.12 0.02 5696
0.86 -0.03 0.42 -1.40 10.19 0.18 -0.12 0.01 5702
0.94 -0.04 0.52 -1.38 10.21 0.21 -0.13 0.01 5709
0.98 -0.06 0.56 -1.43 10.29 0.25 -0.15 -0.00 5715
1.02 -0.05 0.51 -1.42 10.38 0.32 -0.18 -0.01 5722
1.08 -0.05 0.49 -1.40 10.51 0.39 -0.21 -0.01 5728
1.12 -0.06 0.45 -1.39 10.75 0.49 -0.25 -0.01 5734
1.18 -0.05 0.53 -1.56 11.04 0.64 -0.27 -0.02 5741
1.20 -0.05 0.46 -1.43 11.35 0.80 -0.26 -0.03 5747
1.23 -0.05 0.27 -1.79 11.42 0.96 -0.24 -0.01 5753
1.26 -0.05 0.18 -1.74 11.63 1.10 -0.21 0.01 5760
1.29 -0.06 0.05 -1.83 12.30 1.15 -0.16 0.01 5766
1.28 -0.06 0.36 -1.64 11.78 1.25 -0.12 0.03 5773
1.32 -0.04 0.28 -1.94 11.41 1.38 -0.08 0.02 5779
1.35 -0.08 0.44 -2.72 11.07 1.48 -0.01 0.02 5785
1.35 -0.05 0.38 -2.34 11.44 1.58 -0.01 0.00 5791
1.36 -0.05 0.31 -2.19 11.26 1.70 0.00 -0.01 5797
1.37 -0.06 0.50 -3.00 11.47 1.79 0.02 -0.01 5805
1.32 -0.05 0.52 -2.62 11.64 1.92 0.00 -0.03 5811
1.29 -0.05 0.52 -2.84 12.21 2.03 -0.01 -0.03 5817
1.30 -0.06 0.45 -2.89 11.44 2.12 -0.01 -0.04 5823
1.27 -0.04 0.64 -3.07 11.56 2.17 0.01 -0.05 5830
1.23 -0.06 0.46 -3.18 11.59 2.23 0.03 -0.07 5836
1.20 -0.05 0.84 -3.43 11.75 2.34 0.02 -0.07 5842
1.10 -0.05 0.88 -3.82 12.43 2.51 -0.04 -0.10 5849
1.04 -0.06 1.04 -3.65 13.57 2.73 -0.10 -0.13 5855
0.96 -0.04 1.35 -3.98 12.69 2.95 -0.13 -0.19 5862
0.86 -0.04 1.30 -3.69 13.80 3.19 -0.17 -0.25 5868
0.82 -0.05 0.95 -4.39 15.19 3.48 -0.18 -0.28 5874
0.78 -0.03 1.37 -5.00 15.67 3.83 -0.21 -0.33 5880
0.72 -0.03 1.15 -8.25 18.26 4.16 -0.30 -0.38 5888
0.68 -0.03 2.43 -6.04 17.58 4.26 -0.34 -0.43 5894
0.67 -0.03 2.19 -7.07 18.35 4.28 -0.35 -0.50 5900
0.57 -0.03 2.47 -8.22 20.59 4.28 -0.32 -0.55 5906
0.55 -0.03 2.12 -9.32 22.35 4.28 -0.25 -0.57 5912
0.50 -0.03 2.94 -9.99 23.62 4.28 -0.22 -0.59 5919
0.43 -0.03 1.59 -9.80 23.13 4.28 -0.23 -0.59 5925
0.39 -0.01 3.41 -9.17 23.27 4.28 -0.22 -0.60 5932
0.38 -0.03 2.80 -8.07 23.95 4.28 -0.09 -0.65 5938
0.31 -0.02 1.39 -7.17 23.89 4.28 -0.10 -0.70 5945
0.28 -0.02 0.74 -5.96 21.57 4.28 -0.30 -0.76 5951
0.21 -0.02 2.09 -4.34 21.00 4.28 -0.52 -0.80 5957
0.18 -0.01 3.74 -1.94 19.82 4.28 -0.60 -0.82 5963
0.17 -0.02 4.89 0.10 19.29 4.28 -0.56 -0.84 5969
0.15 -0.01 5.34 1.87 19.26 4.28 -0.49 -0.89 5977
0.15 -0.01 4.91 3.57 20.03 4.28 -0.34 -0.99 5983
0.12 -0.01 4.29 5.36 17.45 4.28 -0.10 -1.13 5989
0.10 -0.01 4.27 10.84 11.75 4.28 0.30 -1.32 5995
0.10 -0.01 4.14 11.71 7.67 4.28 0.46 -1.85 6001
0.10 -0.01 7.57 12.57 4.30 4.28 0.61 -2.52 6007
0.10 -0.01 6.54 19.33 15.11 2.78 0.91 -2.88 6014
0.10 -0.01 4.02 14.88 27.51 0.90 1.66 -2.84 6021
0.11 -0.01 3.79 11.34 24.82 -0.70 1.91 -2.60 6027
0.10 -0.01 0.17 12.61 19.89 -1.95 1.60 -2.28 6033
0.10 -0.01 -1.37 11.55 15.18 -2.86 0.94 -1.81 6040
0.11 -0.01 0.35 8.25 12.34 -3.44 0.29 -1.39 6046
0.09 -0.01 2.57 5.95 10.14 -3.73 -0.15 -1.14 6052
0.11 -0.01 3.65 4.40 8.46 -3.83 -0.30 -0.97 6059
0.10 -0.01 4.21 3.55 7.31 -3.84 -0.19 -0.80 6065
0.10 -0.01 4.47 3.05 6.14 -3.81 0.02 -0.66 6071
0.10 -0.01 4.45 2.59 5.61 -3.77 0.26 -0.55 6078
0.12 -0.01 4.06 2.20 5.49 -3.74 0.51 -0.46 6084
0.10 -0.01 3.59 1.94 5.76 -3.70 0.74 -0.38 6090
0.10 -0.01 3.00 2.45 6.36 -3.65 0.84 -0.32 6096
0.10 -0.01 2.60 1.94 6.97 -3.63 0.87 -0.25 6103
0.12 -0.01 2.34 2.10 7.78 -3.63 0.84 -0.18 6109
0.10 -0.01 2.28 2.33 8.72 -3.66 0.82 -0.11 6115
0.09 -0.01 2.35 2.40 9.75 -3.76 0.81 -0.02 6121
0.10 -0.01 2.54 2.19 10.61 -3.84 0.87 0.06 6127
0.11 -0.01 2.73 1.85 11.40 -3.99 0.91 0.12 6134
0.10 -0.01 2.68 1.45 12.02 -4.12 1.01 0.16 6140
0.10 -0.01 2.53 0.78 12.41 -4.21 1.13 0.18 6147
0.11 -0.01 2.25 0.01 13.40 -4.26 1.24 0.19 6153
0.10 -0.01 1.88 -0.86 12.98 -4.28 1.33 0.18 6159
0.10 -0.01 1.63 -1.84 13.17 -4.28 1.42 0.17 6165
0.09 -0.01 1.49 -2.70 13.34 -4.28 1.51 0.15 6172
0.09 -0.01 1.30 -3.59 13.72 -4.28 1.60 0.13 6178
0.08 -0.01 1.06 -4.42 14.06 -4.28 1.70 0.12 6184
0.09 0.00 0.61 -4.99 14.58 -4.26 1.78 0.12 6191
0.09 -0.01 0.34 -5.48 15.07 -4.23 1.83 0.14 6197
0.09 -0.01 0.11 -5.89 15.56 -4.19 1.84 0.17 6203
0.10 -0.00 0.00 -6.25 15.97 -4.14 1.81 0.21 6210
0.10 -0.01 0.13 -6.43 16.38 -4.09 1.75 0.28 6216
0.08 -0.01 0.32 -6.65 16.79 -4.01 1.70 0.38 6222
0.10 -0.00 0.51 -7.01 16.88 -3.90 1.70 0.48 6228
0.10 -0.01 0.51 -7.56 16.77 -3.76 1.74 0.58 6235
0.10 -0.01 0.36 -8.08 17.00 -3.58 1.80 0.67 6241
0.09 -0.01 0.20 -8.57 17.37 -3.40 1.86 0.77 6248
0.10 -0.01 0.02 -8.81 18.02 -3.24 1.87 0.86 6254
0.10 -0.01 -0.24 -9.13 18.91 -3.07 1.80 0.93 6260
0.09 -0.01 -0.56 -9.68 19.37 -2.95 1.76 1.00 6266
0.10 -0.01 -0.82 -10.29 19.93 -2.88 1.63 1.05 6273
0.09 -0.01 -0.77 -11.16 19.99 -2.83 1.45 1.12 6280
0.09 -0.01 -0.56 -12.17 19.79 -2.79 1.24 1.18 6286
0.10 -0.01 -0.19 -13.24 19.23 -2.73 1.04 1.24 6292
0.10 -0.01 0.04 -14.09 18.42 -2.66 0.87 1.30 6298
0.10 -0.00 0.41 -14.72 17.88 -2.56 0.75 1.35 6304
0.09 -0.01 0.79 -15.09 17.50 -2.48 0.69 1.37 6311
0.08 -0.01 1.28 -15.41 17.63 -2.44 0.74 1.38 6318
0.10 -0.01 1.46 -15.63 17.47 -2.47 0.87 1.37 6324
0.10 -0.01 1.25 -15.65 16.93 -2.57 1.09 1.38 6330
0.09 -0.01 0.60 -16.01 15.77 -2.70 1.41 1.45 6337
0.10 -0.01 -0.82 -16.58 14.02 -2.77 1.72 1.57 6343
0.10 -0.01 -2.98 -17.00 11.81 -2.76 1.97 1.74 6349
0.10 -0.00 -5.69 -18.46 10.53 -2.60 2.15 1.96 6355
0.10 -0.01 -8.21 -20.22 9.37 -2.38 2.01 2.11 6362
0.09 -0.01 -9.90 -21.53 8.51 -2.19 1.44 2.13 6369
0.10 -0.01 -9.92 -22.59 7.16 -1.95 0.69 2.02 6375
0.10 -0.01 -9.17 -23.38 5.68 -1.72 0.09 1.80 6381
0.09 -0.01 -7.76 -24.01 4.17 -1.46 -0.21 1.50 6387
0.10 -0.01 -6.46 -24.47 3.08 -1.17 -0.29 1.12 6393
0.10 -0.01 -5.25 -24.68 2.58 -0.84 -0.20 0.74 6401
0.10 -0.01 -4.62 -24.45 2.77 -0.50 -0.04 0.24 6407
0.10 -0.00 -4.54 -23.42 3.48 -0.18 0.12 -0.23 6413
0.10 -0.01 -4.66 -21.88 4.44 0.10 0.20 -0.60 6419
0.09 -0.01 -5.85 -22.19 4.81 0.33 0.13 -0.86 6425
0.11 -0.01 -14.70 -33.38 24.71 1.88 -1.27 -0.49 6432
0.11 -0.01 -8.83 -15.45 -1.61 2.24 -2.81 -0.43 6438
0.10 0.00 0.50 -4.30 2.48 2.34 -3.58 -0.55 6445
0.11 0.05 4.91 1.40 12.65 2.54 -3.20 -0.45 6451
0.08 0.12 7.77 6.03 14.30 2.45 -2.16 0.00 6457
0.05 0.23 6.27 6.93 14.00 2.22 -1.28 0.52 6464
0.08 0.30 4.68 1.14 11.27 2.12 -0.66 0.88 6470
0.07 0.28 2.77 -1.81 9.03 2.48 -0.19 1.16 6476
0.06 0.37 0.09 -2.89 12.30 3.06 0.09 1.35 6482
0.07 0.43 -4.35 -3.66 16.77 3.36 0.28 1.31 6489
0.07 0.53 -7.89 -4.03 20.72 3.38 0.23 0.94 6496
0.06 0.62 -8.44 -3.55 21.67 3.21 0.10 0.38 6502
0.06 0.73 -5.36 -2.97 18.94 3.07 0.18 -0.09 6508
0.06 0.84 -0.72 -2.34 16.33 2.76 0.17 -0.43 6514
0.07 0.89 2.47 -2.40 16.53 2.62 0.14 -0.51 6520
0.07 0.90 4.06 -2.69 19.26 2.20 -0.45 -0.44 6528
0.07 0.93 4.99 -2.47 15.03 1.33 -1.04 -0.17 6534
0.08 0.95 2.08 -2.51 12.23 0.90 -0.88 0.21 6540
0.07 0.97 -0.40 -1.44 11.71 0.78 -0.83 0.27 6546
0.07 1.00 -0.30 -0.62 11.93 0.57 -0.73 0.16 6553
0.06 1.01 0.11 -1.31 11.07 0.27 -0.43 0.10 6559
0.07 0.99 0.43 -1.52 10.17 0.18 -0.30 0.12 6565
0.08 1.02 0.65 -1.22 10.13 0.18 -0.31 0.14 6572
0.09 1.04 0.30 -1.07 10.29 0.14 -0.27 0.14 6578
0.08 1.04 0.28 -1.11 10.16 0.09 -0.19 0.14 6585
0.07 1.05 0.45 -1.07 9.99 0.06 -0.14 0.14 6591
0.09 1.06 0.46 -1.09 9.94 0.05 -0.12 0.14 6597
0.09 1.06 0.43 -0.99 9.92 0.03 -0.11 0.14 6603
0.08 1.07 0.44 -0.95 9.88 0.03 -0.10 0.14 6609
0.09 1.07 0.47 -0.97 9.96 0.03 -0.09 0.15 6616
0.09 1.06 0.47 -0.99 9.93 0.03 -0.08 0.14 6622
0.09 1.04 0.43 -1.01 9.90 0.03 -0.08 0.14 6629
0.10 1.04 0.44 -1.00 9.92 0.02 -0.08 0.14 6635
0.09 1.03 0.42 -0.97 9.84 0.02 -0.08 0.13 6641
0.09 1.01 0.41 -0.97 9.95 0.02 -0.08 0.14 6647
0.09 0.99 0.38 -0.99 9.93 0.03 -0.07 0.13 6653
0.11 0.92 0.43 -0.99 9.97 0.03 -0.06 0.13 6660
0.10 0.85 0.36 -1.00 9.87 0.03 -0.06 0.14 6666
0.10 0.83 0.36 -1.00 9.88 0.03 -0.06 0.13 6673
0.13 0.83 0.37 -1.03 9.84 0.04 -0.06 0.14 6679
0.11 0.79 0.43 -0.99 9.86 0.04 -0.06 0.12 6685
0.11 0.74 0.47 -1.01 9.90 0.04 -0.06 0.14 6691
0.13 0.72 0.42 -1.02 9.93 0.04 -0.06 0.13 6697
0.12 0.70 0.45 -1.03 9.84 0.04 -0.06 0.12 6704
0.12 0.67 0.46 -1.08 9.88 0.03 -0.06 0.12 6710
0.12 0.67 0.48 -1.06 9.88 0.03 -0.07 0.11 6717
0.14 0.61 0.42 -1.10 9.85 0.03 -0.09 0.12 6723
0.15 0.58 0.50 -1.08 9.96 0.02 -0.09 0.10 6729
0.15 0.54 0.47 -1.05 9.93 0.02 -0.09 0.10 6735
0.17 0.56 0.45 -1.07 9.91 0.02 -0.10 0.10 6742
0.18 0.53 0.41 -1.11 9.91 0.02 -0.10 0.09 6748
0.18 0.49 0.40 -1.06 9.87 0.01 -0.10 0.09 6755
0.17 0.48 0.40 -1.09 9.96 0.02 -0.09 0.09 6761
0.19 0.46 0.38 -1.11 9.97 0.02 -0.09 0.09 6767
0.18 0.41 0.35 -1.07 9.90 0.02 -0.08 0.09 6773
0.17 0.39 0.34 -1.12 9.93 0.02 -0.08 0.10 6779
0.19 0.36 0.40 -1.08 9.84 0.02 -0.08 0.10 6786
0.19 0.33 0.46 -1.10 9.95 0.02 -0.07 0.09 6792
0.19 0.30 0.42 -1.11 9.89 0.02 -0.07 0.10 6799
0.21 0.30 0.42 -1.13 9.92 0.02 -0.07 0.08 6805
0.25 0.25 0.40 -1.04 9.88 0.02 -0.07 0.08 6811
0.24 0.23 0.41 -1.14 9.87 0.02 -0.07 0.09 6817
0.24 0.23 0.52 -1.13 9.82 0.02 -0.06 0.08 6823
0.26 0.20 0.37 -1.10 9.91 0.02 -0.07 0.09 6830
0.28 0.19 0.27 -1.07 9.85 0.02 -0.06 0.08 6836
0.25 0.17 0.18 -1.01 9.96 0.02 -0.06 0.08 6843
0.25 0.17 0.25 -1.02 10.03 0.02 -0.06 0.07 6849
0.30 0.13 0.42 -1.13 10.01 0.02 -0.06 0.07 6855
0.30 0.12 0.36 -1.10 9.91 0.02 -0.06 0.08 6861
0.32 0.11 0.36 -1.14 9.93 0.02 -0.05 0.08 6867
0.36 0.09 0.39 -1.15 9.98 0.02 -0.05 0.07 6874
0.37 0.07 0.43 -1.15 9.94 0.02 -0.04 0.07 6880
0.38 0.05 0.45 -1.10 9.98 0.02 -0.04 0.08 6887
0.41 0.07 0.35 -1.22 9.91 0.02 -0.04 0.08 6893
0.44 0.07 0.51 -0.82 9.93 0.02 -0.03 0.07 6899
0.45 0.05 0.40 -1.12 9.94 0.03 -0.03 0.07 6905
0.43 0.02 0.20 -1.64 10.01 0.03 -0.03 0.07 6912
0.46 0.01 0.40 -1.14 9.95 0.03 -0.03 0.06 6918
0.52 -0.01 0.35 -1.81 9.81 0.03 -0.03 0.05 6924
0.54 -0.02 0.43 -1.17 9.99 0.04 -0.04 0.06 6931
0.56 -0.00 0.66 -0.74 9.82 0.04 -0.02 0.05 6937
0.59 -0.03 0.44 -1.16 10.03 0.06 -0.03 0.05 6943
0.60 -0.04 0.36 -1.04 10.01 0.07 -0.03 0.04 6949
0.67 -0.03 0.31 -1.41 10.12 0.09 -0.03 0.05 6956
0.72 -0.04 0.38 -1.20 10.14 0.11 -0.02 0.05 6963
0.75 -0.04 0.39 -1.25 10.06 0.16 -0.02 0.04 6969
0.80 -0.04 0.47 -1.22 10.26 0.16 -0.02 0.04 6975
0.82 -0.04 0.51 -1.32 10.38 0.20 -0.03 0.03 6981
0.86 -0.05 0.42 -1.23 10.43 0.26 -0.04 0.03 6987
0.91 -0.04 0.54 -1.27 10.50 0.33 -0.07 0.03 6994
0.93 -0.05 0.51 -1.45 10.63 0.44 -0.10 0.02 7001
0.94 -0.05 0.42 -1.39 11.30 0.59 -0.12 0.02 7007
0.99 -0.05 0.29 -1.35 11.75 0.80 -0.14 0.02 7013
1.01 -0.05 0.49 -1.41 11.92 1.00 -0.14 0.01 7019
1.04 -0.05 0.94 -1.47 10.93 1.13 -0.10 0.00 7026
1.08 -0.05 0.29 -1.55 12.25 1.26 -0.06 -0.00 7032
1.11 -0.05 0.51 -1.54 12.01 1.38 -0.03 -0.00 7038
1.12 -0.04 0.24 -2.14 11.72 1.51 -0.02 -0.01 7045
1.14 -0.06 0.48 -1.97 11.80 1.65 -0.03 -0.02 7051
1.15 -0.05 0.50 -2.09 11.75 1.80 -0.04 -0.02 7058
1.20 -0.05 0.64 -2.45 12.05 1.91 -0.04 -0.04 7064
1.18 -0.05 0.27 -2.39 12.24 2.07 -0.06 -0.05 7070
1.14 -0.05 0.45 -2.53 11.60 2.16 -0.06 -0.05 7076
1.16 -0.04 0.45 -2.71 11.62 2.25 -0.03 -0.05 7083
1.13 -0.04 0.60 -2.88 11.94 2.30 -0.01 -0.05 7090
1.04 -0.05 0.75 -2.96 12.05 2.39 0.03 -0.07 7096
1.04 -0.05 1.14 -3.22 12.88 2.56 0.00 -0.11 7102
0.90 -0.06 1.31 -3.31 13.51 2.79 -0.02 -0.16 7108
0.85 -0.03 1.18 -4.18 13.58 2.99 -0.09 -0.20 7114
0.85 -0.04 0.64 -3.41 14.13 3.29 -0.10 -0.24 7121
0.72 -0.04 1.25 -4.22 15.08 3.60 -0.08 -0.28 7128
0.71 -0.03 0.62 -4.83 16.53 3.96 -0.07 -0.32 7134
0.61 -0.04 2.46 -5.78 19.96 4.23 -0.09 -0.37 7140
0.61 -0.03 2.57 -6.89 21.59 4.28 -0.15 -0.45 7147
0.55 -0.03 2.91 -7.64 21.86 4.28 -0.24 -0.53 7153
0.45 -0.03 3.56 -8.49 22.85 4.28 -0.21 -0.59 7159
0.40 -0.01 2.43 -9.15 24.73 4.28 -0.09 -0.64 7165
0.37 -0.02 1.86 -9.14 24.97 4.28 -0.05 -0.64 7173
0.32 -0.02 2.58 -8.83 24.69 4.28 -0.07 -0.63 7179
0.32 -0.02 2.86 -7.15 24.83 4.28 0.10 -0.63 7185
0.27 -0.02 0.79 -6.05 24.04 4.28 0.14 -0.66 7191
0.21 -0.02 0.27 -5.15 23.22 4.28 -0.04 -0.69 7197
0.19 -0.01 1.64 -3.48 22.82 4.28 -0.29 -0.71 7204
0.16 -0.02 3.83 -1.43 22.19 4.28 -0.48 -0.74 7211
0.15 -0.01 5.37 0.68 21.88 4.28 -0.57 -0.79 7217
0.16 -0.02 6.15 3.82 21.87 4.28 -0.57 -0.89 7223
0.11 -0.01 6.07 5.75 19.97 4.28 -0.48 -1.02 7229
0.12 -0.01 6.44 10.89 10.96 4.28 -0.11 -1.16 7236
0.11 -0.01 7.11 15.02 10.16 4.28 0.29 -1.52 7242
0.10 -0.01 8.24 15.92 5.05 4.28 0.33 -2.03 7248
0.09 -0.00 7.29 20.60 10.56 2.76 0.43 -2.15 7255
0.09 -0.01 5.05 19.25 26.89 0.90 0.78 -2.01 7261
0.08 -0.01 4.91 12.48 25.71 -0.58 1.08 -1.63 7268
0.10 -0.01 2.22 12.71 20.20 -1.60 0.80 -1.33 7274
0.09 -0.01 0.59 13.05 14.46 -2.34 0.19 -1.02 7280
0.09 -0.01 1.64 10.46 10.79 -2.79 -0.30 -0.75 7286
0.11 -0.01 3.61 7.83 9.09 -2.99 -0.60 -0.62 7292
0.09 -0.01 4.26 6.54 7.89 -3.05 -0.66 -0.56 7300
0.09 -0.01 4.52 6.00 6.80 -3.07 -0.50 -0.52 7306
0.11 -0.01 4.64 5.59 6.30 -3.10 -0.21 -0.49 7312
0.11 -0.01 4.49 5.23 6.24 -3.16 0.01 -0.49 7318
0.10 -0.01 3.96 4.88 6.62 -3.23 0.27 -0.49 7324
0.10 -0.01 3.15 4.47 7.23 -3.32 0.46 -0.50 7330
0.10 -0.01 2.52 4.18 7.85 -3.43 0.53 -0.49 7336
0.11 -0.01 2.07 4.04 8.39 -3.55 0.48 -0.46 7343
0.10 -0.01 1.98 3.92 8.93 -3.66 0.39 -0.43 7350
0.09 -0.01 2.06 3.71 9.39 -3.81 0.27 -0.38 7356
0.10 -0.01 2.36 3.29 9.87 -3.98 0.23 -0.30 7362
0.09 -0.01 2.85 2.57 10.27 -4.10 0.23 -0.28 7368
0.08 -0.01 3.30 1.77 10.64 -4.19 0.32 -0.25 7374
0.09 -0.00 3.49 0.91 10.87 -4.24 0.47 -0.22 7380
0.09 -0.01 3.49 0.20 11.10 -4.27 0.65 -0.20 7387
0.09 -0.01 3.30 -0.41 11.66 -4.28 0.85 -0.19 7394
0.09 -0.00 2.84 -1.08 11.96 -4.28 1.03 -0.16 7400
0.08 -0.01 2.34 -1.71 12.34 -4.28 1.15 -0.12 7406
0.08 -0.01 2.02 -2.45 12.73 -4.28 1.24 -0.08 7412
0.09 0.00 1.89 -3.22 13.15 -4.28 1.28 -0.03 7418
0.09 -0.01 1.84 -3.90 13.83 -4.26 1.33 0.00 7426
0.10 -0.01 1.75 -4.38 14.65 -4.23 1.39 0.03 7432
0.09 -0.01 1.69 -4.87 15.52 -4.20 1.46 0.05 7438
0.10 -0.01 1.57 -5.40 16.22 -4.17 1.54 0.06 7444
0.09 -0.01 1.32 -5.89 16.91 -4.14 1.59 0.08 7450
0.09 -0.01 1.06 -6.47 17.44 -4.11 1.60 0.10 7456
0.11 -0.01 0.85 -6.99 17.78 -4.06 1.59 0.14 7463
0.09 -0.01 0.81 -7.36 17.88 -4.00 1.56 0.20 7470
0.08 -0.01 0.93 -7.63 18.01 -3.89 1.53 0.26 7476
0.09 -0.01 1.16 -7.89 18.32 -3.75 1.53 0.31 7482
0.09 -0.01 1.60 -8.09 18.74 -3.62 1.54 0.37 7488
0.08 -0.01 1.93 -8.19 19.29 -3.51 1.60 0.47 7494
0.10 -0.00 2.03 -8.47 19.99 -3.42 1.69 0.51 7501
0.10 -0.01 1.74 -8.97 20.64 -3.35 1.77 0.60 7507
0.09 -0.01 1.31 -9.71 21.00 -3.31 1.82 0.72 7514
0.09 -0.00 0.93 -10.50 21.00 -3.28 1.82 0.86 7520
0.09 -0.01 0.57 -11.39 20.61 -3.23 1.74 1.01 7526
0.08 -0.01 0.42 -12.33 19.92 -3.14 1.62 1.15 7533
0.10 -0.01 0.39 -13.17 19.30 -3.02 1.46 1.28 7539
0.09 -0.01 0.47 -13.92 18.49 -2.85 1.33 1.38 7545
0.09 -0.01 0.46 -14.39 17.67 -2.65 1.21 1.46 7552
0.10 -0.01 0.45 -14.75 17.37 -2.46 1.12 1.51 7558
0.10 -0.01 0.59 -15.21 17.65 -2.34 1.09 1.53 7565
0.10 -0.00 0.95 -15.68 17.92 -2.30 1.14 1.50 7571
0.10 -0.01 0.70 -16.02 17.32 -2.38 1.28 1.46 7577
0.10 -0.01 -0.01 -16.44 15.56 -2.51 1.54 1.46 7583
0.11 -0.01 -1.68 -17.34 13.10 -2.58 1.84 1.53 7590
0.09 -0.01 -4.46 -18.57 10.91 -2.54 2.22 1.66 7597
0.10 -0.01 -7.34 -21.06 9.24 -2.37 2.39 1.80 7603
0.10 -0.01 -8.52 -23.27 7.59 -2.12 2.15 1.82 7609
0.10 -0.01 -9.36 -24.79 6.11 -1.81 1.47 1.73 7615
0.10 -0.01 -8.66 -26.35 4.38 -1.43 0.71 1.53 7622
0.10 -0.01 -6.97 -26.90 2.91 -1.03 0.21 1.27 7628
0.10 -0.01 -5.56 -26.99 2.10 -0.65 0.06 0.99 7634
0.10 -0.00 -4.64 -26.66 2.24 -0.28 0.08 0.66 7641
0.10 -0.01 -4.02 -25.53 2.78 0.05 0.15 0.30 7647
0.10 -0.01 -3.56 -23.86 3.91 0.35 0.18 -0.05 7653
0.10 -0.01 -3.47 -21.93 4.98 0.63 0.16 -0.33 7660
0.10 -0.01 -3.20 -19.96 6.00 0.78 0.08 -0.52 7666
0.10 -0.01 -2.91 -18.12 7.14 0.96 -0.08 -0.61 7672
0.09 -0.01 -24.45 -23.86 30.03 1.39 -1.04 -0.19 7678
0.10 -0.01 -1.85 -7.33 6.78 2.57 -3.34 0.37 7685
0.08 -0.01 3.43 3.13 6.75 2.53 -4.05 0.30 7691
0.08 0.01 8.06 5.26 11.04 2.39 -3.76 0.48 7698
0.09 0.09 9.85 4.07 14.00 2.15 -2.64 1.02 7704
0.07 0.17 4.80 5.94 9.70 1.93 -1.63 1.55 7710
0.06 0.24 2.79 1.45 9.44 2.06 -1.16 1.87 7716
0.08 0.31 0.56 -1.10 9.95 2.48 -0.81 2.08 7723
0.07 0.37 -2.85 -2.60 11.70 2.89 -0.29 2.18 7730
0.06 0.41 -6.50 -2.63 13.09 3.16 0.16 2.15 7736
0.08 0.50 -11.00 -4.06 17.48 3.34 0.26 1.80 7742
0.06 0.64 -14.41 -3.74 20.78 3.40 0.07 1.07 7748
0.06 0.78 -11.29 -3.55 21.39 3.40 -0.13 0.12 7755
0.05 0.90 -4.11 -3.00 19.16 3.23 -0.13 -0.56 7761
0.05 0.94 2.82 -2.89 18.54 3.09 -0.02 -0.77 7768
0.08 0.96 5.76 -2.98 19.15 2.80 -0.43 -0.61 7774
0.07 0.99 5.30 -2.69 17.13 1.99 -1.29 -0.27 7781
0.07 1.00 3.32 -3.10 12.35 1.27 -1.22 0.21 7787
0.07 1.00 -0.82 -1.64 12.17 1.04 -1.11 0.35 7793
0.08 0.98 -1.65 -0.93 12.97 0.79 -0.99 0.19 7799
0.07 1.00 -0.37 -1.60 11.02 0.33 -0.58 0.11 7805
0.09 0.99 0.54 -2.03 9.85 0.18 -0.42 0.10 7813
0.08 1.00 0.74 -1.38 10.27 0.20 -0.39 0.15 7819
0.08 1.03 0.14 -0.94 10.34 0.13 -0.27 0.17 7825
0.07 1.02 0.06 -1.16 10.16 0.09 -0.19 0.16 7831
0.06 1.02 0.42 -1.11 9.85 0.06 -0.13 0.15 7837
0.08 1.04 0.41 -1.10 9.86 0.04 -0.11 0.14 7844
0.09 1.04 0.32 -1.03 9.92 0.04 -0.10 0.14 7851
0.10 1.04 0.33 -1.12 9.99 0.04 -0.09 0.13 7857
0.10 1.03 0.30 -1.15 10.03 0.03 -0.08 0.13 7863
0.11 1.00 0.23 -1.08 9.95 0.02 -0.07 0.13 7869
0.11 0.99 0.27 -1.07 10.04 0.02 -0.05 0.12 7875
0.12 0.95 0.26 -1.04 9.84 0.03 -0.03 0.13 7881
0.12 0.94 0.30 -1.06 9.99 0.03 -0.02 0.13 7888
0.12 0.92 0.32 -1.06 9.95 0.04 -0.01 0.14 7895
0.12 0.86 0.27 -1.07 9.96 0.04 0.01 0.13 7901
0.13 0.84 0.34 -1.06 9.96 0.04 0.02 0.12 7907
0.13 0.82 0.39 -1.04 9.94 0.05 0.03 0.13 7913
0.14 0.72 0.38 -1.07 9.94 0.05 0.03 0.13 7919
0.14 0.67 0.44 -1.10 9.96 0.05 0.03 0.13 7925
0.15 0.65 0.45 -1.07 9.88 0.05 0.02 0.12 7932
0.14 0.56 0.49 -1.10 9.93 0.05 0.01 0.11 7939
0.14 0.54 0.45 -1.08 9.92 0.05 -0.00 0.12 7945
0.14 0.54 0.48 -1.14 9.92 0.05 -0.01 0.11 7951
0.15 0.49 0.46 -1.14 9.89 0.04 -0.03 0.10 7957
0.14 0.43 0.45 -1.16 9.88 0.04 -0.03 0.10 7963
0.15 0.39 0.43 -1.12 9.95 0.04 -0.04 0.10 7969
0.18 0.36 0.40 -1.11 9.89 0.04 -0.05 0.09 7976
0.18 0.30 0.37 -1.11 9.90 0.04 -0.06 0.10 7983
0.19 0.28 0.40 -1.15 9.95 0.04 -0.06 0.10 7989
0.20 0.24 0.43 -1.14 9.92 0.04 -0.06 0.09 7995
0.21 0.19 0.39 -1.13 9.93 0.03 -0.06 0.10 8001
0.20 0.16 0.41 -1.20 9.88 0.04 -0.06 0.09 8007
0.20 0.16 0.42 -1.17 9.87 0.04 -0.05 0.08 8013
0.23 0.13 0.40 -1.18 9.94 0.04 -0.05 0.10 8020
0.23 0.07 0.42 -1.19 9.90 0.04 -0.05 0.09 8027
0.24 0.06 0.45 -1.20 9.91 0.03 -0.05 0.09 8033
0.27 0.07 0.39 -1.19 9.92 0.03 -0.05 0.08 8039
0.26 0.07 0.48 -1.21 9.95 0.03 -0.05 0.08 8045
0.26 0.06 0.42 -1.21 9.91 0.03 -0.05 0.08 8051
0.29 0.03 0.41 -1.20 9.94 0.03 -0.05 0.07 8057
0.31 0.01 0.44 -1.18 9.98 0.03 -0.06 0.06 8065
0.33 -0.02 0.37 -1.24 9.91 0.03 -0.06 0.06 8071
0.34 -0.02 0.36 -1.19 9.89 0.03 -0.06 0.06 8077
0.40 -0.01 0.42 -1.37 9.91 0.03 -0.05 0.06 8083
0.39 -0.03 0.57 -1.24 9.85 0.03 -0.05 0.06 8089
0.40 -0.01 0.56 -1.24 9.94 0.04 -0.05 0.06 8095
0.42 -0.01 0.38 -1.28 9.82 0.04 -0.05 0.05 8101
0.44 -0.02 0.32 -1.19 9.92 0.04 -0.05 0.06 8109
0.50 -0.03 0.32 -1.51 9.88 0.05 -0.06 0.05 8115
0.52 -0.03 0.42 -1.24 9.91 0.05 -0.06 0.05 8121
0.54 -0.03 0.48 -1.22 10.01 0.06 -0.06 0.05 8127
0.59 -0.04 0.83 -1.04 9.99 0.07 -0.06 0.04 8133
0.63 -0.03 0.38 -1.27 10.02 0.08 -0.07 0.05 8139
0.68 -0.02 0.36 -1.83 10.05 0.10 -0.07 0.04 8146
0.67 -0.05 0.34 -1.13 10.02 0.11 -0.07 0.05 8153
0.70 -0.04 0.50 -1.25 10.06 0.13 -0.06 0.03 8159
0.74 -0.04 0.51 -1.38 10.04 0.15 -0.07 0.03 8165
0.76 -0.05 0.39 -1.36 10.14 0.17 -0.07 0.03 8171
0.79 -0.04 0.39 -1.31 10.16 0.20 -0.07 0.03 8178
0.83 -0.04 0.36 -1.41 10.21 0.23 -0.08 0.03 8184
0.83 -0.05 0.40 -1.40 10.09 0.28 -0.09 0.01 8190
0.85 -0.04 0.46 -1.46 10.38 0.35 -0.10 0.01 8197
0.92 -0.04 0.44 -1.48 10.67 0.41 -0.11 0.01 8203
0.93 -0.05 0.46 -1.52 10.56 0.51 -0.13 0.00 8210
0.97 -0.03 0.34 -1.58 10.99 0.60 -0.14 0.00 8216
0.95 -0.05 0.34 -1.65 10.83 0.68 -0.13 -0.00 8222
1.00 -0.04 0.34 -1.60 10.97 0.74 -0.11 0.01 8228
1.03 -0.04 0.20 -1.72 11.01 0.82 -0.09 0.00 8235
1.05 -0.05 0.26 -1.29 11.07 0.89 -0.07 0.02 8242
1.04 -0.05 0.20 -1.88 11.22 0.97 -0.04 0.02 8248
1.09 -0.04 0.40 -2.00 11.15 1.07 -0.02 0.03 8254
1.13 -0.05 0.38 -1.97 11.60 1.17 -0.02 0.03 8260
1.15 -0.06 0.40 -2.07 11.18 1.27 0.00 0.02 8266
1.16 -0.04 0.53 -2.20 11.51 1.38 -0.01 0.01 8273
1.17 -0.05 0.56 -2.48 11.68 1.50 -0.01 -0.01 8280
1.15 -0.05 0.62 -2.43 11.37 1.61 -0.03 -0.03 8286
1.17 -0.04 0.81 -2.50 11.32 1.75 -0.05 -0.04 8292
1.17 -0.05 0.91 -2.70 11.72 1.88 -0.09 -0.06 8298
1.14 -0.05 0.51 -2.71 11.45 2.00 -0.08 -0.09 8305
1.14 -0.06 0.75 -3.05 11.58 2.13 -0.08 -0.09 8311
1.11 -0.06 0.65 -3.13 11.98 2.13 -0.01 -0.11 8317
1.10 -0.03 0.13 -3.07 11.74 2.24 -0.01 -0.13 8324
1.03 -0.04 0.57 -3.42 12.93 2.40 0.01 -0.11 8331
0.96 -0.04 0.59 -3.60 13.45 2.61 -0.00 -0.11 8337
0.91 -0.04 0.62 -4.52 13.75 2.84 -0.02 -0.14 8343
0.88 -0.05 1.55 -4.05 14.81 3.12 -0.03 -0.19 8349
0.80 -0.04 2.31 -4.73 14.52 3.45 -0.02 -0.25 8355
0.76 -0.04 1.31 -4.56 15.46 3.82 0.01 -0.33 8363
0.68 -0.04 1.54 -5.25 17.35 4.15 0.02 -0.35 8369
0.67 -0.03 1.85 -6.52 19.37 4.28 0.00 -0.40 8375
0.62 -0.03 1.38 -7.16 20.89 4.28 -0.02 -0.43 8381
0.57 -0.03 2.73 -8.37 21.97 4.28 -0.06 -0.46 8387
0.56 -0.02 2.48 -9.62 23.93 4.28 -0.00 -0.50 8394
0.47 -0.02 1.76 -9.97 24.54 4.28 0.10 -0.51 8400
0.42 -0.03 1.25 -10.27 26.05 4.28 0.04 -0.52 8407
0.39 -0.02 2.89 -9.74 26.88 4.28 0.08 -0.52 8413
0.34 -0.03 3.66 -8.65 26.52 4.28 0.22 -0.55 8420
0.26 -0.02 1.94 -8.06 26.05 4.28 0.29 -0.63 8426
0.27 -0.02 2.07 -6.11 24.34 4.28 0.13 -0.71 8432
0.22 -0.02 3.21 -3.42 23.44 4.28 0.05 -0.76 8438
0.18 -0.00 4.34 -0.42 22.71 4.28 0.02 -0.80 8444
0.15 -0.01 5.49 2.26 22.06 4.28 0.01 -0.87 8452
0.12 -0.01 5.72 4.38 23.45 4.28 -0.02 -1.00 8458
0.14 -0.01 5.78 6.37 23.02 4.28 0.06 -1.19 8464
0.12 -0.01 4.33 6.78 19.48 4.28 0.15 -1.46 8470
0.10 -0.01 5.08 14.93 8.98 4.28 0.53 -1.92 8476
0.11 -0.00 7.21 15.01 7.51 4.28 0.34 -2.52 8483
0.09 -0.01 7.41 20.57 8.05 3.49 0.27 -2.83 8489
0.09 -0.01 6.19 21.97 25.16 1.30 0.69 -2.91 8496
0.11 -0.01 6.16 14.20 27.98 -0.52 1.24 -2.62 8502
0.12 -0.01 2.95 13.45 23.20 -1.89 1.21 -2.31 8509
0.10 -0.01 0.21 14.21 17.53 -2.95 0.82 -1.93 8515
0.10 -0.01 0.25 11.17 14.08 -3.62 0.35 -1.51 8521
0.10 -0.01 2.23 7.94 11.55 -3.97 -0.06 -1.22 8527
0.09 -0.01 3.45 6.17 9.44 -4.10 -0.31 -1.07 8534
0.10 -0.01 3.77 5.26 7.52 -4.13 -0.30 -0.96 8540
0.09 -0.01 3.84 4.44 6.42 -4.15 -0.13 -0.83 8546
0.09 -0.01 3.97 3.90 5.97 -4.14 0.05 -0.73 8553
0.10 -0.00 3.95 3.33 5.90 -4.13 0.28 -0.65 8559
0.11 -0.01 3.57 2.84 6.04 -4.11 0.52 -0.56 8565
0.09 -0.01 2.95 2.70 6.75 -4.11 0.72 -0.47 8571
0.08 -0.01 2.61 2.76 7.76 -4.11 0.82 -0.38 8578
0.09 -0.01 2.22 2.83 8.99 -4.14 0.83 -0.28 8584
0.09 -0.01 2.00 2.92 10.00 -4.19 0.79 -0.18 8590
0.10 -0.01 1.91 2.60 10.69 -4.24 0.73 -0.07 8597
0.10 -0.01 2.08 1.38 11.17 -4.28 0.70 0.01 8603
0.10 -0.01 2.34 1.05 11.49 -4.28 0.70 0.09 8609
0.10 -0.01 2.40 0.23 11.73 -4.28 0.74 0.15 8615
0.08 -0.01 2.46 -0.66 11.68 -4.28 0.82 0.17 8622
0.09 -0.01 2.56 -1.58 11.89 -4.28 0.92 0.18 8628
0.08 -0.01 2.56 -2.41 12.29 -4.28 1.04 0.17 8634
0.07 -0.01 2.58 -2.97 12.95 -4.28 1.18 0.16 8641
0.08 -0.00 2.43 -3.54 13.73 -4.28 1.34 0.14 8647
0.08 -0.01 2.21 -4.18 14.70 -4.28 1.47 0.11 8653
0.07 -0.01 1.82 -4.88 15.60 -4.28 1.59 0.08 8659
0.08 0.00 1.45 -6.12 16.28 -4.28 1.67 0.04 8666
0.07 -0.01 1.25 -6.49 16.82 -4.28 1.72 0.01 8673
0.06 -0.01 1.23 -7.41 16.57 -4.27 1.73 -0.00 8679
0.07 0.00 1.22 -7.97 17.36 -4.25 1.71 -0.00 8685
0.07 -0.01 1.39 -8.45 17.34 -4.21 1.69 0.04 8691
0.06 -0.01 1.49 -8.62 17.28 -4.14 1.66 0.12 8697
0.07 0.00 1.72 -8.78 17.47 -4.03 1.65 0.21 8704
0.07 -0.01 1.95 -8.76 17.86 -3.86 1.65 0.31 8711
0.06 -0.01 2.11 -8.67 18.23 -3.73 1.69 0.41 8717
0.07 0.00 2.17 -8.55 18.72 -3.59 1.76 0.52 8723
0.07 -0.01 2.15 -8.69 19.39 -3.46 1.87 0.63 8729
0.07 -0.01 1.71 -8.98 20.03 -3.34 1.94 0.74 8735
0.07 -0.00 1.09 -9.36 20.62 -3.26 2.03 0.85 8742
0.07 -0.01 0.43 -9.81 20.99 -3.20 2.06 0.94 8749
0.07 -0.01 0.00 -10.29 21.30 -3.15 2.03 1.03 8755
0.07 -0.00 -0.30 -10.87 21.48 -3.13 1.97 1.10 8761
0.07 -0.01 -0.41 -11.56 21.35 -3.11 1.90 1.14 8767
0.06 -0.01 -0.55 -12.53 20.90 -3.08 1.84 1.17 8774
0.08 -0.01 -0.55 -13.71 20.34 -3.05 1.76 1.18 8780
0.07 -0.01 -0.54 -15.05 19.61 -2.99 1.68 1.16 8786
0.07 -0.01 -0.33 -16.37 18.71 -2.92 1.58 1.13 8793
0.07 -0.01 -0.21 -17.56 17.11 -2.82 1.51 1.10 8799
0.07 -0.01 -0.32 -17.89 14.86 -2.67 1.51 1.09 8806
0.07 -0.00 -1.21 -18.75 13.18 -2.49 1.69 1.19 8812
0.07 -0.01 -3.01 -19.29 11.55 -2.26 1.95 1.38 8818
0.07 -0.01 -5.36 -19.98 10.84 -2.02 2.20 1.62 8824
0.09 -0.01 -7.30 -22.21 10.15 -1.80 2.23 1.81 8832
0.08 -0.01 -8.58 -23.85 9.57 -1.65 1.79 1.87 8838
0.07 -0.01 -8.68 -25.35 7.87 -1.53 1.15 1.81 8844
0.09 -0.01 -7.95 -26.71 5.46 -1.41 0.66 1.68 8850
0.07 -0.01 -6.93 -28.11 3.33 -1.22 0.50 1.50 8856
0.07 -0.01 -6.31 -28.67 1.69 -0.92 0.46 1.29 8863
0.09 -0.01 -6.34 -28.77 1.21 -0.52 0.48 1.04 8869
0.07 -0.01 -6.30 -27.78 1.96 -0.07 0.41 0.69 8876
0.08 -0.01 -6.34 -25.95 3.17 0.36 0.21 0.34 8882
0.09 -0.00 -6.04 -23.47 4.55 0.72 -0.07 0.03 8888
0.08 -0.01 -5.07 -20.92 6.14 0.97 -0.36 -0.21 8894
0.07 -0.01 -3.76 -18.94 8.05 1.14 -0.60 -0.35 8901
0.08 -0.01 -2.25 -17.11 9.62 1.21 -0.77 -0.40 8907
0.07 -0.01 -0.80 -15.53 9.86 1.28 -0.91 -0.36 8913
0.06 -0.01 5.15 -5.49 31.48 2.74 -2.88 0.45 8920
0.08 0.01 3.69 11.28 8.95 2.58 -3.41 0.46 8926
0.07 0.01 10.15 11.30 9.04 1.91 -3.42 0.80 8933
0.06 0.09 10.55 5.25 10.66 1.71 -2.72 1.34 8939
0.08 0.19 7.18 3.26 2.98 1.56 -1.69 1.87 8945
0.07 0.27 3.90 0.53 4.87 2.09 -1.22 2.26 8951
0.06 0.31 0.36 -1.23 7.56 2.83 -0.87 2.48 8957
0.07 0.34 -2.74 -2.67 10.31 3.40 -0.42 2.60 8965
0.07 0.38 -6.33 -3.52 14.49 3.70 -0.05 2.53 8971
0.07 0.47 -12.79 -5.13 19.77 3.73 0.15 2.20 8977
0.07 0.64 -15.94 -3.99 20.99 3.66 0.00 1.42 8983
0.06 0.77 -13.49 -4.00 21.78 3.71 -0.33 0.39 8990
0.07 0.89 -6.12 -2.70 18.68 3.70 -0.37 -0.43 8996
0.05 0.94 2.76 -3.32 23.18 3.55 -0.36 -0.79 9003
0.05 0.99 4.62 -3.08 23.40 2.49 -1.34 -0.66 9009
0.04 1.07 5.85 -4.45 15.17 1.17 -1.24 -0.07 9015
0.04 1.08 1.15 -2.77 11.80 0.85 -0.90 0.33 9022
0.06 1.10 -1.36 -0.80 11.90 0.77 -0.93 0.26 9028
0.06 1.08 -0.67 -0.87 11.77 0.39 -0.59 0.13 9034
0.05 1.08 0.07 -1.43 9.98 0.19 -0.34 0.10 9040
0.07 1.08 0.89 -1.54 9.87 0.20 -0.40 0.12 9047
0.07 1.07 0.52 -1.60 10.25 0.19 -0.35 0.16 9054
0.07 1.08 0.07 -0.95 10.09 0.12 -0.24 0.16 9060
0.08 1.09 0.31 -1.12 10.00 0.07 -0.17 0.15 9066
0.08 1.08 0.56 -1.13 9.94 0.05 -0.14 0.15 9072
0.08 1.09 0.37 -1.07 9.86 0.03 -0.12 0.15 9078
0.09 1.07 0.37 -1.01 9.92 0.03 -0.10 0.14 9084
0.09 1.06 0.41 -1.08 9.92 0.02 -0.09 0.13 9092
0.09 1.04 1.04 -1.14 9.77 0.03 -0.07 0.13 9098
0.09 1.03 0.38 -1.02 9.95 0.02 -0.08 0.12 9104
0.10 1.01 0.32 -1.00 9.98 0.02 -0.03 0.13 9110
0.10 0.96 0.36 -1.04 9.92 0.03 -0.05 0.13 9116
0.09 0.91 0.35 -1.03 9.98 0.04 -0.03 0.10 9122
0.09 0.86 0.37 -1.03 9.99 0.05 -0.02 0.14 9128
0.10 0.81 0.40 -1.08 9.99 0.05 -0.01 0.14 9136
0.11 0.79 0.41 -1.08 9.92 0.05 0.00 0.13 9142
0.10 0.72 0.40 -1.08 9.95 0.06 0.00 0.14 9148
0.11 0.67 0.40 -1.06 9.93 0.06 0.00 0.13 9154
0.10 0.61 0.45 -1.06 9.94 0.06 0.01 0.13 9160
0.12 0.54 0.47 -1.10 9.90 0.06 0.01 0.13 9166
0.13 0.50 0.46 -1.13 9.90 0.06 0.00 0.13 9172
0.16 0.44 0.53 -1.09 9.87 0.06 -0.00 0.13 9180
0.16 0.38 0.51 -1.10 9.86 0.05 -0.00 0.11 9186
0.17 0.33 0.52 -1.11 9.88 0.05 -0.01 0.10 9192
0.17 0.31 0.52 -1.13 9.86 0.05 -0.02 0.11 9198
0.15 0.31 0.54 -1.09 9.91 0.05 -0.02 0.10 9204
0.16 0.24 0.48 -1.09 9.94 0.05 -0.02 0.09 9210
0.18 0.22 0.48 -1.16 9.91 0.05 -0.03 0.10 9217
0.20 0.16 0.46 -1.16 9.89 0.05 -0.02 0.10 9224
0.20 0.13 0.42 -1.19 9.92 0.05 -0.02 0.10 9230
0.21 0.11 0.46 -1.18 9.92 0.05 -0.02 0.10 9236
0.22 0.12 0.46 -1.18 9.92 0.04 -0.02 0.10 9242
0.23 0.08 0.48 -1.19 9.92 0.04 -0.02 0.10 9248
0.21 0.09 0.49 -1.20 9.87 0.04 -0.02 0.10 9254
0.22 0.06 0.56 -1.17 9.92 0.04 -0.02 0.10 9261
0.23 0.05 0.56 -1.21 9.87 0.03 -0.02 0.09 9268
0.22 0.03 0.58 -1.20 9.97 0.03 -0.03 0.08 9274
0.22 0.04 0.58 -1.20 9.92 0.03 -0.04 0.08 9280
0.25 0.02 0.53 -1.20 9.92 0.03 -0.04 0.07 9286
0.27 -0.01 0.57 -1.14 9.93 0.03 -0.04 0.07 9292
0.28 -0.01 0.18 -1.68 9.85 0.02 -0.05 0.07 9298
0.27 0.00 0.43 -1.35 10.06 0.02 -0.06 0.07 9305
0.29 0.00 0.57 -1.37 10.02 0.02 -0.06 0.07 9312
0.30 -0.02 0.37 -1.31 9.90 0.04 -0.06 0.06 9318
0.34 -0.01 0.66 -1.39 9.85 0.03 -0.05 0.05 9324
0.36 -0.02 0.61 -1.43 10.03 0.03 -0.06 0.05 9330
0.38 -0.03 0.30 -1.06 10.07 0.03 -0.05 0.05 9336
0.40 -0.03 0.68 -0.95 10.13 0.03 -0.04 0.05 9342
0.42 -0.03 0.54 -1.11 9.93 0.05 -0.03 0.06 9350
0.43 -0.04 0.59 -1.20 10.10 0.06 -0.04 0.05 9356
0.45 -0.03 0.65 -0.91 10.11 0.06 -0.06 0.04 9362
0.48 -0.03 0.44 -1.75 10.14 0.08 -0.09 0.03 9368
0.52 -0.05 0.67 -1.40 10.02 0.10 -0.12 0.01 9374
0.52 -0.03 0.59 -1.18 10.08 0.12 -0.15 0.01 9381
0.58 -0.03 0.60 -1.20 9.92 0.14 -0.16 0.01 9388
0.66 -0.04 0.04 -1.35 10.07 0.16 -0.16 -0.01 9394
0.67 -0.04 0.54 -1.30 10.14 0.19 -0.17 -0.02 9400
0.73 -0.03 0.42 -1.47 10.10 0.22 -0.17 -0.03 9406
0.78 -0.04 0.38 -1.28 10.09 0.26 -0.18 -0.04 9413
0.80 -0.03 0.62 -1.40 10.39 0.30 -0.18 -0.05 9419
0.87 -0.04 0.45 -1.31 10.39 0.37 -0.19 -0.05 9425
0.87 -0.04 0.48 -1.65 10.61 0.45 -0.19 -0.05 9432
0.91 -0.04 0.35 -1.54 10.71 0.56 -0.21 -0.04 9438
0.94 -0.05 0.28 -1.67 10.83 0.66 -0.20 -0.03 9445
0.93 -0.04 0.16 -1.60 10.88 0.74 -0.17 -0.02 9451
1.01 -0.04 0.27 -1.70 10.97 0.77 -0.13 -0.01 9457
1.01 -0.06 0.13 -1.72 10.82 0.84 -0.08 0.01 9463
1.03 -0.05 0.13 -1.63 11.06 0.90 -0.05 0.03 9469
1.08 -0.04 0.34 -1.89 10.95 0.99 -0.03 0.04 9477
1.11 -0.06 0.43 -2.15 11.24 1.04 -0.03 0.04 9483
1.16 -0.04 0.44 -2.07 11.13 1.15 -0.03 0.04 9489
1.16 -0.05 0.56 -2.19 10.85 1.26 -0.03 0.03 9495
1.19 -0.06 1.18 -2.63 11.10 1.35 -0.04 0.01 9501
1.20 -0.03 0.58 -2.59 11.62 1.45 -0.05 -0.02 9508
1.19 -0.04 0.78 -2.60 11.72 1.60 -0.09 -0.04 9515
1.18 -0.05 0.73 -3.02 11.67 1.71 -0.12 -0.07 9521
1.17 -0.04 0.93 -2.80 12.25 1.81 -0.13 -0.09 9527
1.15 -0.05 0.97 -3.12 11.44 1.93 -0.14 -0.12 9534
1.20 -0.06 0.85 -3.18 11.44 2.03 -0.11 -0.15 9540
1.23 -0.04 0.48 -3.15 12.14 2.11 -0.07 -0.17 9546
1.14 -0.05 0.93 -3.25 12.35 2.21 -0.02 -0.18 9552
1.07 -0.03 0.47 -3.58 12.77 2.39 -0.04 -0.19 9559
0.98 -0.04 0.91 -3.52 13.47 2.63 -0.06 -0.21 9566
0.94 -0.05 1.04 -3.63 12.97 2.88 -0.07 -0.25 9572
0.90 -0.04 1.25 -3.82 13.31 3.18 -0.06 -0.29 9578
0.78 -0.04 0.89 -4.36 15.32 3.50 -0.06 -0.33 9584
0.77 -0.04 1.45 -4.75 15.15 3.87 -0.03 -0.36 9591
0.68 -0.03 1.10 -5.82 18.01 4.18 -0.00 -0.39 9597
0.68 -0.04 1.66 -6.79 20.50 4.28 0.05 -0.42 9604
0.57 -0.03 2.31 -7.66 21.04 4.28 0.10 -0.44 9610
0.54 -0.03 1.94 -8.88 22.93 4.28 0.20 -0.44 9616
0.51 -0.04 1.39 -10.15 25.19 4.28 0.38 -0.40 9623
0.44 -0.02 1.43 -10.59 24.85 4.28 0.52 -0.35 9629
0.37 -0.03 3.04 -9.99 26.36 4.28 0.57 -0.32 9635
0.30 -0.02 1.01 -8.58 26.18 4.28 0.72 -0.31 9641
0.27 -0.02 0.47 -7.41 25.37 4.28 0.72 -0.33 9649
0.22 -0.02 -0.06 -6.50 23.72 4.28 0.56 -0.39 9655
0.18 -0.02 0.04 -3.85 23.12 4.28 0.35 -0.43 9661
0.19 -0.02 1.56 -1.54 22.45 4.28 0.13 -0.50 9667
0.16 -0.02 3.45 0.49 21.44 4.28 -0.01 -0.51 9673
0.14 -0.01 4.84 2.84 20.39 4.28 -0.07 -0.60 9679
0.14 -0.01 5.48 4.70 21.40 4.28 -0.07 -0.73 9687
0.11 -0.01 5.96 6.07 20.55 4.28 0.10 -0.92 9693
0.10 -0.01 5.44 12.58 16.52 4.28 0.52 -1.15 9699
0.11 -0.01 5.25 15.34 11.24 4.28 0.98 -1.73 9705
0.11 -0.01 9.70 15.35 6.62 4.28 1.07 -2.39 9711
0.10 -0.01 6.67 23.38 10.88 2.93 1.35 -2.85 9718
0.11 -0.01 4.42 18.65 27.58 0.95 2.17 -2.96 9724
0.10 -0.01 3.65 13.37 25.78 -0.72 2.47 -2.84 9731
0.09 -0.01 -0.07 14.79 20.93 -1.99 1.94 -2.70 9737
0.09 -0.01 -2.06 14.01 15.68 -2.93 1.36 -2.41 9744
0.08 -0.01 -1.62 10.30 12.75 -3.53 0.73 -2.02 9750
0.09 -0.00 0.86 7.19 10.25 -3.85 0.17 -1.77 9756
0.09 -0.01 2.14 5.88 8.13 -3.98 -0.26 -1.62 9762
0.08 -0.01 2.75 4.86 6.95 -4.00 -0.39 -1.53 9768
0.09 -0.01 3.56 3.79 5.82 -3.96 -0.30 -1.39 9775
0.09 -0.01 4.09 3.09 5.66 -3.90 -0.11 -1.26 9781
0.08 -0.01 4.23 2.56 5.74 -3.86 0.14 -1.16 9788
0.08 -0.01 3.86 2.25 6.09 -3.83 0.40 -1.05 9794
0.10 -0.00 3.44 2.21 6.75 -3.83 0.58 -0.93 9800
0.10 -0.01 2.93 2.22 7.56 -3.85 0.68 -0.82 9806
0.10 -0.01 2.69 2.20 8.30 -3.88 0.68 -0.69 9812
0.10 -0.01 2.81 2.43 9.38 -3.95 0.66 -0.55 9819
0.10 -0.01 3.08 2.36 10.23 -4.04 0.67 -0.39 9825
0.10 -0.01 3.34 2.01 11.08 -4.13 0.76 -0.23 9832
0.06 -0.01 3.65 1.22 11.93 -4.24 0.91 -0.09 9838
0.07 -0.00 3.59 0.50 12.67 -4.26 1.10 0.04 9844
0.08 -0.01 3.11 -0.11 12.94 -4.28 1.29 0.14 9850
0.07 -0.01 2.68 -1.00 13.22 -4.28 1.40 0.23 9857
0.08 0.00 2.11 -2.43 13.36 -4.28 1.49 0.30 9863
0.08 -0.01 1.63 -2.79 13.45 -4.28 1.56 0.35 9870
0.07 -0.01 1.25 -3.78 13.56 -4.28 1.64 0.39 9876
0.08 0.00 0.95 -4.71 13.96 -4.28 1.71 0.41 9882
0.08 -0.01 0.66 -5.52 14.59 -4.27 1.78 0.40 9888
0.08 -0.01 0.20 -5.96 15.23 -4.24 1.84 0.38 9894
0.08 0.00 -0.15 -6.39 15.86 -4.19 1.88 0.35 9901
0.09 -0.01 -0.40 -6.72 16.43 -4.11 1.87 0.33 9908
0.08 -0.01 -0.47 -6.83 17.16 -4.09 1.82 0.33 9914
0.07 -0.00 -0.40 -6.90 17.74 -4.04 1.75 0.36 9920
0.08 -0.01 -0.30 -6.91 18.29 -3.97 1.70 0.42 9926
0.07 -0.01 -0.18 -6.83 18.78 -3.92 1.68 0.50 9932
0.07 -0.01 -0.14 -6.97 19.26 -3.87 1.70 0.57 9939
0.08 -0.01 -0.23 -7.47 19.63 -3.82 1.75 0.68 9946
0.06 -0.01 -0.40 -7.83 19.76 -3.77 1.79 0.79 9952
0.06 -0.01 -0.63 -8.31 19.94 -3.70 1.78 0.89 9958
0.07 -0.01 -0.76 -8.76 20.01 -3.63 1.72 0.99 9964
0.06 -0.01 -0.80 -9.39 20.07 -3.55 1.61 1.08 9970
0.06 -0.01 -0.68 -10.00 19.92 -3.47 1.48 1.16 9977
0.08 -0.01 -0.57 -10.82 19.75 -3.36 1.33 1.22 9984
0.07 -0.01 -0.24 -11.70 19.46 -3.24 1.16 1.26 9990
0.07 -0.01 0.11 -12.51 19.07 -3.11 1.00 1.27 9996
0.07 -0.01 0.47 -13.20 18.45 -2.96 0.93 1.28 10002
0.07 -0.01 0.87 -13.97 17.65 -2.79 0.86 1.26 10009
0.07 -0.00 1.05 -14.70 17.39 -2.63 0.84 1.23 10015
0.08 -0.01 1.19 -15.08 17.17 -2.49 0.90 1.19 10021
0.07 -0.01 0.99 -15.23 16.57 -2.40 1.00 1.16 10028
0.08 -0.01 0.23 -15.19 15.45 -2.35 1.23 1.18 10035
0.06 -0.01 -1.76 -15.51 14.08 -2.33 1.54 1.31 10041
0.08 -0.01 -4.09 -15.73 13.03 -2.30 1.83 1.50 10047
0.07 -0.01 -6.86 -17.25 12.24 -2.24 2.04 1.72 10054
0.07 0.00 -8.72 -19.32 11.44 -2.17 1.89 1.86 10060
0.06 -0.01 -10.15 -20.69 9.83 -2.09 1.29 1.86 10066
0.07 -0.01 -9.39 -22.29 7.69 -1.97 0.57 1.75 10073
0.07 -0.01 -7.45 -23.80 5.19 -1.77 0.09 1.54 10080
0.07 -0.01 -6.64 -25.10 2.95 -1.47 -0.05 1.28 10086
0.08 -0.01 -5.71 -25.73 1.42 -1.10 0.02 0.96 10092
0.08 -0.01 -5.53 -25.14 1.10 -0.68 0.17 0.58 10098
0.07 -0.01 -5.69 -25.04 1.78 -0.24 0.25 0.19 10104
0.08 -0.00 -6.10 -23.56 3.07 0.17 0.20 -0.11 10112
0.08 -0.01 -6.09 -21.48 4.42 0.50 0.03 -0.41 10118
0.07 -0.01 -5.47 -19.56 6.11 0.72 -0.20 -0.62 10124
0.09 -0.01 -5.59 -20.93 6.33 0.88 -0.52 -0.73 10130
0.07 -0.01 -6.62 -31.28 25.79 2.56 -1.66 -0.52 10137
0.09 0.00 -3.01 -8.23 -2.06 2.81 -2.51 -0.59 10143
0.08 0.01 1.45 -2.43 2.14 2.69 -3.10 -0.69 10149
0.06 0.06 6.16 2.39 14.25 2.87 -2.95 -0.58 10156
0.08 0.12 7.36 5.09 14.50 2.67 -2.17 -0.13 10163
0.04 0.21 7.14 4.76 13.57 2.58 -1.33 0.39 10169
0.05 0.30 5.93 -0.53 11.61 2.64 -0.63 0.82 10175
0.06 0.35 3.12 -3.53 12.23 3.12 -0.05 1.19 10181
0.05 0.43 -2.47 -4.08 16.96 3.46 0.15 1.31 10188
0.05 0.47 -5.48 -4.68 20.16 3.53 0.00 1.14 10194
0.05 0.57 -5.69 -4.47 22.79 3.47 -0.19 0.78 10201
0.06 0.71 -5.42 -3.63 22.26 3.33 -0.18 0.35 10207
0.06 0.74 -2.72 -2.48 18.24 2.86 -0.28 0.01 10214
0.07 0.79 -0.68 -2.62 17.72 2.58 -0.25 -0.19 10220
0.07 0.78 1.30 -2.48 17.92 2.17 -0.53 -0.31 10226
0.08 0.80 3.41 -2.14 16.35 1.38 -0.92 -0.24 10233
0.08 0.79 2.64 -2.30 12.36 0.77 -0.74 0.09 10240
0.08 0.80 0.88 -1.52 10.90 0.60 -0.68 0.22 10246
0.07 0.84 -0.18 -0.92 10.99 0.50 -0.68 0.17 10252
0.09 0.84 -0.20 -1.04 10.69 0.26 -0.45 0.13 10259
0.07 0.87 0.25 -1.19 10.11 0.16 -0.32 0.10 10265
0.10 0.89 0.71 -1.26 9.93 0.17 -0.32 0.10 10271
0.07 0.91 0.49 -1.16 10.21 0.13 -0.30 0.13 10277
0.09 0.93 0.25 -1.07 10.21 0.08 -0.23 0.12 10285
0.10 0.93 0.34 -1.00 10.03 0.06 -0.19 0.13 10291
0.09 0.95 0.46 -1.03 10.08 0.03 -0.14 0.13 10297
0.12 0.96 0.39 -0.96 10.03 0.01 -0.10 0.14 10303
0.10 0.98 0.39 -0.91 9.99 0.01 -0.08 0.13 10309
0.10 1.00 0.43 -0.90 9.95 0.01 -0.06 0.13 10316
0.10 1.02 0.45 -0.90 9.92 0.01 -0.06 0.15 10322
0.09 1.00 0.48 -0.97 9.90 0.01 -0.06 0.14 10329
0.08 1.00 0.46 -0.94 9.96 0.01 -0.06 0.14 10335
0.11 0.99 0.45 -1.02 9.96 0.01 -0.06 0.14 10341
0.10 0.96 0.39 -0.96 9.93 0.01 -0.07 0.14 10348
0.10 0.95 0.45 -0.94 9.95 0.01 -0.06 0.13 10354
0.12 0.92 0.47 -0.96 9.94 0.03 -0.06 0.13 10360
0.13 0.90 0.42 -0.94 9.96 0.02 -0.05 0.13 10366
0.12 0.86 0.40 -0.93 9.94 0.03 -0.05 0.14 10373
0.13 0.84 0.39 -0.95 9.99 0.03 -0.04 0.13 10380
0.14 0.80 0.41 -0.91 9.91 0.04 -0.03 0.14 10386
0.13 0.77 0.43 -0.95 9.89 0.03 -0.03 0.14 10392
0.13 0.73 0.39 -0.95 9.94 0.04 -0.03 0.14 10398
0.11 0.72 0.44 -0.96 9.91 0.04 -0.02 0.14 10404
0.13 0.71 0.43 -0.98 9.93 0.05 -0.02 0.14 10412
0.12 0.65 0.48 -0.97 9.91 0.05 -0.03 0.13 10418
0.14 0.59 0.46 -1.00 9.88 0.04 -0.03 0.12 10424
0.14 0.55 0.46 -1.04 9.90 0.05 -0.03 0.12 10430
0.14 0.49 0.48 -0.98 9.92 0.04 -0.03 0.12 10436
0.14 0.47 0.46 -0.99 9.90 0.04 -0.03 0.12 10443
0.16 0.47 0.47 -1.00 9.88 0.04 -0.03 0.11 10449
0.17 0.39 0.45 -1.03 9.92 0.04 -0.03 0.11 10456
0.17 0.38 0.44 -1.00 9.90 0.04 -0.03 0.11 10462
0.19 0.36 0.44 -0.98 9.89 0.04 -0.02 0.11 10468
0.18 0.32 0.41 -1.02 9.94 0.04 -0.02 0.11 10474
0.17 0.29 0.43 -1.00 9.90 0.04 -0.01 0.11 10481
0.19 0.30 0.42 -1.03 9.89 0.04 -0.01 0.11 10487
0.19 0.26 0.44 -1.08 9.92 0.04 -0.00 0.11 10493
0.19 0.22 0.47 -1.05 9.92 0.05 -0.00 0.11 10500
0.20 0.18 0.50 -1.10 9.91 0.04 -0.00 0.10 10506
0.23 0.16 0.47 -1.08 9.91 0.04 -0.00 0.10 10513
0.20 0.13 0.53 -1.05 9.90 0.04 -0.01 0.10 10519
0.24 0.15 0.47 -1.08 9.93 0.04 -0.01 0.10 10525
0.23 0.10 0.54 -1.11 9.94 0.04 -0.01 0.09 10531
0.25 0.06 0.49 -1.08 9.93 0.03 -0.02 0.08 10537
0.23 0.07 0.51 -1.16 9.94 0.03 -0.02 0.08 10544
0.25 0.06 0.50 -1.06 9.93 0.03 -0.02 0.07 10551
0.25 0.07 0.48 -1.11 9.97 0.02 -0.02 0.08 10557
0.27 0.08 0.53 -1.16 9.91 0.03 -0.02 0.07 10563
0.30 0.04 0.51 -1.16 9.93 0.03 -0.02 0.07 10569
0.31 0.00 0.49 -1.12 9.85 0.03 -0.02 0.07 10575
0.31 0.03 0.49 -1.15 9.95 0.02 -0.02 0.07 10583
0.31 0.02 0.51 -1.09 9.97 0.02 -0.02 0.07 10589
0.30 -0.01 0.55 -0.97 9.98 0.02 -0.02 0.06 10595
0.32 -0.01 0.53 -1.11 9.97 0.03 -0.02 0.07 10601
0.34 -0.01 0.56 -1.33 9.92 0.03 -0.02 0.07 10607
0.36 -0.02 0.54 -1.10 9.92 0.03 -0.02 0.07 10613
0.34 -0.01 0.54 -1.19 10.02 0.03 -0.02 0.06 10620
0.36 -0.02 0.54 -1.21 9.97 0.04 -0.02 0.06 10627
0.37 -0.02 0.56 -1.16 9.93 0.04 -0.02 0.07 10633
0.41 -0.02 0.59 -1.03 10.05 0.05 -0.03 0.05 10639
0.44 -0.02 0.31 -1.66 10.15 0.05 -0.04 0.05 10646
0.47 -0.03 0.56 -1.20 10.09 0.10 -0.05 0.05 10652
0.52 -0.03 0.55 -1.19 9.98 0.08 -0.05 0.04 10658
0.52 -0.02 0.55 -0.97 10.26 0.09 -0.05 0.03 10664
0.56 -0.03 0.83 -1.10 10.07 0.12 -0.06 0.03 10671
0.59 -0.02 0.93 -1.11 10.13 0.15 -0.07 0.02 10678
0.64 -0.04 0.61 -1.14 10.21 0.19 -0.08 0.02 10684
0.71 -0.03 0.74 -1.32 10.29 0.24 -0.08 0.01 10690
0.72 -0.04 0.70 -1.25 10.49 0.31 -0.09 -0.01 10696
0.78 -0.04 0.84 -1.43 10.63 0.41 -0.11 -0.02 10703
0.80 -0.05 1.14 -1.43 11.01 0.53 -0.14 -0.04 10710
0.82 -0.04 0.50 -1.55 11.13 0.68 -0.17 -0.03 10716
0.82 -0.03 0.34 -1.54 11.22 0.86 -0.14 -0.03 10722
0.91 -0.04 0.28 -1.60 11.77 0.96 -0.07 -0.01 10729
0.93 -0.03 0.28 -1.80 11.59 1.07 -0.00 0.00 10735
0.96 -0.05 0.51 -1.65 11.54 1.17 -0.01 0.01 10741
1.01 -0.04 0.31 -3.48 9.22 1.28 -0.01 -0.02 10747
0.99 -0.03 0.21 -1.40 11.52 1.38 0.00 0.02 10755
1.08 -0.04 0.65 -2.00 11.77 1.50 -0.01 0.02 10761
1.09 -0.05 0.47 -2.09 11.82 1.61 0.00 0.02 10767
1.10 -0.05 0.58 -2.37 11.45 1.74 0.00 0.00 10773
1.05 -0.06 0.78 -2.19 11.91 1.88 -0.01 -0.01 10780
1.09 -0.04 0.80 -2.46 12.25 1.99 -0.02 -0.02 10786
1.05 -0.03 1.08 -2.34 12.15 2.07 -0.01 -0.03 10792
1.02 -0.04 0.75 -2.82 11.05 2.14 0.01 -0.04 10799
0.98 -0.05 0.69 -3.04 12.79 2.21 0.07 -0.05 10806
0.96 -0.05 0.82 -3.28 12.47 2.36 0.07 -0.07 10812
0.93 -0.03 1.06 -3.28 12.69 2.58 0.03 -0.11 10818
0.86 -0.04 1.63 -3.55 13.40 2.79 -0.04 -0.17 10824
0.81 -0.04 1.62 -3.66 13.36 3.09 -0.08 -0.23 10831
0.85 -0.04 2.04 -3.77 13.54 3.39 -0.10 -0.28 10838
0.72 -0.04 1.00 -4.16 14.56 3.74 -0.11 -0.30 10844
0.67 -0.02 1.47 -4.56 16.30 4.09 -0.17 -0.34 10850
0.72 -0.03 1.19 -5.85 18.51 4.26 -0.17 -0.38 10857
0.64 -0.03 1.97 -6.72 20.58 4.28 -0.23 -0.41 10863
0.60 -0.03 2.39 -7.19 20.77 4.28 -0.26 -0.47 10869
0.54 -0.03 2.01 -8.06 23.26 4.28 -0.26 -0.50 10876
0.50 -0.03 2.80 -10.08 24.83 4.28 -0.24 -0.53 10883
0.44 -0.03 2.91 -9.66 25.02 4.28 -0.21 -0.57 10889
0.39 -0.02 2.00 -9.36 25.20 4.28 -0.28 -0.61 10895
0.31 -0.02 2.13 -8.79 25.81 4.28 -0.35 -0.63 10902
0.28 -0.02 2.17 -7.50 26.53 4.28 -0.42 -0.67 10908
0.25 -0.02 1.12 -7.20 24.64 4.28 -0.57 -0.71 10914
0.19 -0.01 2.07 -4.75 23.64 4.28 -0.82 -0.74 10921
0.18 -0.02 3.21 -2.62 22.28 4.28 -1.01 -0.74 10928
0.17 -0.02 4.10 -0.11 21.90 4.28 -1.12 -0.73 10934
0.15 -0.01 5.13 2.58 21.82 4.28 -1.21 -0.75 10940
0.13 -0.01 5.45 5.47 22.16 4.28 -1.14 -0.79 10947
0.13 -0.01 5.66 7.33 19.69 4.28 -0.88 -0.88 10953
0.12 -0.01 6.95 11.65 10.93 4.28 -0.33 -1.01 10959
0.12 -0.01 7.36 13.72 7.64 4.28 0.22 -1.51 10966
0.10 -0.01 9.73 15.10 3.37 4.28 0.55 -2.31 10972
0.12 -0.01 9.45 21.04 13.44 2.87 1.07 -2.77 10979
0.10 -0.01 5.64 16.59 29.21 0.95 2.10 -2.81 10985
0.11 -0.01 3.78 12.79 26.86 -0.72 2.45 -2.65 10991
0.12 -0.01 -1.23 14.92 21.91 -2.07 1.93 -2.37 10998
0.11 -0.00 -3.16 13.64 16.49 -3.10 1.03 -1.87 11004
0.12 -0.01 -0.79 9.68 13.68 -3.77 0.15 -1.43 11011
0.12 -0.01 1.71 6.76 11.08 -4.09 -0.53 -1.19 11017
0.11 -0.01 3.05 5.13 8.97 -4.17 -0.86 -1.04 11024
0.10 -0.01 4.07 3.94 7.18 -4.18 -0.84 -0.91 11030
0.10 -0.01 5.02 3.27 6.02 -4.16 -0.62 -0.81 11036
0.10 -0.01 5.54 2.79 5.37 -4.13 -0.28 -0.73 11042
0.10 -0.01 5.36 2.44 5.39 -4.09 0.12 -0.66 11048
0.10 -0.01 4.88 2.26 6.01 -4.06 0.53 -0.59 11055
0.12 -0.01 3.97 2.27 6.92 -4.05 0.76 -0.51 11062
0.09 -0.01 3.32 2.34 7.85 -4.07 0.92 -0.45 11068
0.10 -0.01 2.75 2.39 8.64 -4.11 0.94 -0.37 11074
0.12 -0.00 2.33 2.20 9.49 -4.16 0.89 -0.28 11080
0.11 -0.01 2.21 1.72 10.27 -4.22 0.84 -0.17 11086
0.10 -0.01 2.37 0.85 10.79 -4.26 0.80 -0.06 11092
0.11 -0.01 2.59 0.17 11.13 -4.28 0.79 0.03 11100
0.10 -0.01 2.72 -0.46 11.32 -4.28 0.80 0.11 11106
0.09 -0.01 2.94 -1.19 11.45 -4.28 0.87 0.16 11112
0.09 -0.01 3.19 -1.99 11.85 -4.28 1.00 0.19 11118
0.09 -0.01 3.09 -2.54 12.20 -4.28 1.17 0.21 11125
0.08 0.00 2.89 -3.12 12.53 -4.28 1.38 0.23 11131
0.09 -0.01 2.57 -3.77 13.02 -4.28 1.59 0.24 11138
0.08 -0.01 2.06 -4.42 13.85 -4.28 1.77 0.25 11144
0.09 -0.01 1.43 -4.96 14.83 -4.26 1.88 0.26 11150
0.11 -0.01 0.85 -5.43 15.66 -4.24 1.93 0.29 11157
0.11 -0.01 0.42 -5.88 16.45 -4.21 1.92 0.33 11163
0.11 -0.01 0.21 -6.29 17.09 -4.19 1.84 0.38 11169
0.11 -0.01 0.20 -6.72 17.50 -4.17 1.84 0.45 11175
0.10 0.00 0.22 -7.30 17.72 -4.14 1.81 0.52 11183
0.10 -0.01 0.24 -7.64 17.71 -4.09 1.79 0.59 11189
0.08 -0.01 0.25 -7.85 17.72 -4.00 1.78 0.65 11195
0.10 0.00 0.34 -8.14 18.01 -3.87 1.75 0.72 11201
0.10 -0.01 0.30 -8.22 18.24 -3.73 1.71 0.80 11207
0.10 -0.00 0.40 -8.33 18.84 -3.60 1.69 0.88 11214
0.11 -0.01 0.46 -8.72 19.32 -3.49 1.69 0.96 11220
0.10 -0.01 0.33 -9.13 19.91 -3.41 1.67 1.03 11227
0.10 -0.01 0.17 -9.65 20.57 -3.36 1.63 1.12 11233
0.10 -0.01 0.15 -10.03 20.95 -3.34 1.57 1.20 11240
0.09 -0.01 0.16 -10.54 21.14 -3.33 1.49 1.29 11246
0.12 -0.01 0.19 -11.21 20.94 -3.32 1.40 1.36 11252
0.10 -0.01 0.36 -12.08 20.39 -3.29 1.33 1.42 11259
0.11 -0.00 0.51 -12.94 19.49 -3.21 1.27 1.46 11266
0.10 -0.01 0.64 -13.92 18.47 -3.10 1.21 1.48 11272
0.10 -0.01 0.86 -14.99 17.62 -2.96 1.16 1.47 11278
0.11 -0.01 1.07 -16.03 16.89 -2.80 1.11 1.47 11285
0.09 -0.01 1.21 -16.92 16.35 -2.65 1.08 1.44 11291
0.10 -0.01 1.33 -17.52 15.79 -2.54 1.11 1.40 11297
0.09 -0.01 1.49 -17.92 14.62 -2.49 1.20 1.34 11303
0.11 -0.01 0.84 -17.98 11.98 -2.44 1.40 1.29 11311
0.10 -0.01 -1.09 -18.19 10.26 -2.34 1.78 1.34 11317
0.10 -0.00 -4.38 -18.77 8.35 -2.15 2.28 1.53 11323
0.10 -0.01 -8.03 -21.13 7.91 -1.92 2.54 1.73 11330
0.10 -0.01 -10.23 -23.38 7.17 -1.70 2.15 1.77 11336
0.11 -0.01 -10.97 -25.47 5.75 -1.45 1.25 1.64 11342
0.11 -0.01 -10.06 -26.89 3.96 -1.13 0.35 1.43 11348
0.10 -0.01 -7.86 -27.18 2.46 -0.74 -0.17 1.13 11356
0.10 -0.01 -6.29 -26.89 2.09 -0.33 -0.29 0.87 11362
0.09 -0.01 -5.13 -25.90 2.80 0.05 -0.27 0.53 11368
0.10 -0.01 -4.38 -24.36 4.32 0.37 -0.23 0.16 11374
0.09 -0.01 -3.66 -22.41 5.70 0.60 -0.21 -0.20 11381
0.09 -0.00 -3.00 -20.36 6.87 0.75 -0.25 -0.50 11387
0.09 -0.01 -2.42 -18.69 8.05 0.85 -0.33 -0.69 11394
0.09 -0.01 -1.92 -16.91 9.04 0.93 -0.44 -0.77 11400
0.09 -0.00 -33.57 -17.01 45.37 2.12 -1.85 -0.20 11407
0.09 -0.01 1.08 4.65 4.53 2.66 -2.97 -0.01 11413
0.09 0.03 6.76 10.91 2.93 2.30 -3.29 0.03 11419
0.08 0.09 10.61 2.43 11.56 2.12 -2.88 0.42 11425
0.04 0.18 7.34 7.23 8.57 2.00 -1.75 0.99 11431
0.06 0.29 4.85 1.50 6.51 2.32 -0.99 1.49 11439
0.06 0.34 2.70 -1.21 7.59 2.99 -0.59 1.83 11445
0.06 0.37 -0.53 -3.02 13.31 3.63 -0.11 2.06 11451
0.08 0.38 -4.42 -3.79 15.94 3.86 0.27 2.11 11457
0.06 0.53 -8.59 -4.31 20.48 3.82 0.37 1.86 11464
0.06 0.64 -12.41 -4.48 20.07 3.74 0.27 1.28 11470
0.05 0.72 -11.43 -3.71 19.43 3.85 0.10 0.43 11476
0.06 0.83 -5.62 -3.27 19.64 3.81 -0.04 -0.30 11484
0.06 0.91 0.73 -3.56 22.25 3.74 -0.10 -0.69 11490
0.07 0.91 4.65 -3.60 26.34 2.93 -0.90 -0.72 11496
0.07 0.97 6.79 -4.25 17.09 1.34 -1.28 -0.26 11502
0.06 0.99 2.39 -3.34 13.04 0.82 -0.81 0.28 11509
0.08 1.01 -0.75 -1.52 10.95 0.70 -0.79 0.31 11515
0.06 0.99 -0.24 -0.18 11.98 0.49 -0.68 0.11 11522
0.07 0.99 0.67 -1.00 10.57 0.21 -0.35 0.10 11529
0.07 1.00 0.72 -1.60 9.74 0.18 -0.29 0.10 11535
0.06 1.02 0.83 -1.45 10.14 0.20 -0.34 0.13 11541
0.08 1.04 0.24 -1.30 10.28 0.14 -0.30 0.13 11547
0.09 1.04 0.29 -1.16 10.08 0.10 -0.24 0.11 11553
0.08 1.05 0.60 -1.19 9.88 0.07 -0.19 0.12 11560
0.10 1.07 0.54 -1.15 9.77 0.06 -0.21 0.13 11567
0.08 1.06 0.47 -0.99 9.80 0.06 -0.20 0.13 11573
0.09 1.06 0.47 -1.05 9.88 0.05 -0.18 0.13 11579
0.10 1.04 0.46 -1.23 9.94 0.04 -0.16 0.12 11585
0.10 1.03 0.46 -1.17 9.96 0.03 -0.15 0.11 11592
0.09 1.00 0.41 -1.18 9.86 0.02 -0.15 0.11 11598
0.11 0.97 0.36 -1.12 9.91 0.02 -0.14 0.11 11604
0.10 0.92 0.35 -1.15 9.99 0.03 -0.13 0.12 11611
0.10 0.90 0.34 -1.15 9.97 0.03 -0.13 0.11 11617
0.11 0.85 0.47 -1.15 10.01 0.03 -0.13 0.10 11624
0.11 0.79 0.35 -1.17 9.96 0.03 -0.13 0.11 11630
0.14 0.75 0.36 -1.16 9.93 0.03 -0.12 0.10 11636
0.13 0.68 0.34 -1.17 9.97 0.03 -0.12 0.11 11642
0.14 0.65 0.31 -1.16 9.92 0.03 -0.10 0.11 11650
0.17 0.61 0.44 -1.11 9.97 0.03 -0.09 0.10 11656
0.16 0.57 0.37 -1.13 9.90 0.04 -0.09 0.11 11662
0.16 0.55 0.45 -1.18 9.95 0.04 -0.09 0.10 11668
0.19 0.46 0.45 -1.14 9.90 0.05 -0.08 0.10 11674
0.20 0.39 0.44 -1.22 9.88 0.05 -0.08 0.10 11681
0.21 0.36 0.44 -1.22 9.94 0.05 -0.08 0.09 11687
0.23 0.31 0.44 -1.24 9.85 0.05 -0.07 0.10 11694
0.25 0.27 0.34 -0.63 9.96 0.05 -0.07 0.09 11700
0.26 0.24 0.36 -1.81 9.93 0.05 -0.07 0.09 11706
0.27 0.18 0.31 -1.26 9.93 0.05 -0.06 0.08 11713
0.27 0.14 0.35 -1.20 9.93 0.05 -0.06 0.09 11719
0.30 0.14 0.33 -1.24 9.91 0.04 -0.06 0.09 11725
0.31 0.10 0.36 -1.24 9.95 0.04 -0.06 0.09 11731
0.31 0.08 0.34 -1.19 9.92 0.04 -0.06 0.09 11738
0.35 0.08 0.33 -1.33 10.11 0.04 -0.05 0.09 11745
0.38 0.05 0.37 -1.27 9.86 0.04 -0.06 0.09 11751
0.39 0.03 0.39 -1.27 9.89 0.04 -0.07 0.08 11757
0.41 0.07 0.43 -1.25 9.90 0.04 -0.08 0.08 11763
0.42 0.04 0.41 -1.29 9.90 0.04 -0.08 0.08 11769
0.44 -0.01 0.38 -1.30 9.88 0.04 -0.08 0.07 11776
0.47 -0.01 0.38 -1.30 9.87 0.04 -0.08 0.07 11783
0.49 -0.01 0.25 -1.83 10.00 0.05 -0.08 0.07 11789
0.48 -0.02 0.39 -1.27 9.86 0.05 -0.08 0.06 11795
0.51 -0.02 0.21 -1.34 9.87 0.05 -0.08 0.05 11801
0.57 -0.03 0.36 -1.31 10.03 0.06 -0.08 0.04 11807
0.56 -0.03 -0.02 -1.22 9.83 0.07 -0.10 0.04 11814
0.63 -0.03 0.21 -1.37 9.81 0.07 -0.11 0.05 11821
0.66 -0.03 0.28 -1.40 9.83 0.08 -0.11 0.04 11827
0.64 -0.02 0.19 -1.44 9.93 0.08 -0.11 0.05 11833
0.70 -0.04 0.22 -1.33 9.90 0.09 -0.11 0.04 11839
0.72 -0.05 0.24 -1.37 9.86 0.09 -0.12 0.04 11846
0.72 -0.04 0.23 -1.42 9.95 0.10 -0.12 0.03 11852
0.75 -0.04 0.26 -1.43 10.00 0.11 -0.13 0.03 11858
0.79 -0.05 0.40 -1.38 10.12 0.12 -0.14 0.02 11865
0.84 -0.04 0.38 -1.43 10.06 0.14 -0.15 0.02 11872
0.85 -0.04 0.33 -1.46 10.16 0.16 -0.17 0.00 11878
0.89 -0.05 0.29 -1.49 10.08 0.18 -0.18 -0.00 11884
0.94 -0.04 0.27 -1.48 10.17 0.21 -0.19 -0.01 11890
0.96 -0.05 0.41 -1.52 10.18 0.23 -0.23 -0.02 11897
0.99 -0.04 0.30 -1.59 10.15 0.28 -0.22 -0.02 11904
1.04 -0.05 0.42 -1.55 10.34 0.32 -0.23 -0.03 11910
1.07 -0.05 0.24 -1.72 10.40 0.40 -0.25 -0.04 11916
1.13 -0.05 0.38 -1.69 10.82 0.48 -0.25 -0.05 11923
1.16 -0.05 0.36 -1.66 11.14 0.59 -0.26 -0.06 11929
1.22 -0.04 0.22 -1.77 11.04 0.72 -0.27 -0.05 11935
1.28 -0.05 0.08 -1.75 11.34 0.83 -0.26 -0.04 11941
1.32 -0.05 0.12 -1.85 11.34 0.92 -0.26 -0.01 11949
1.36 -0.06 0.07 -1.99 11.55 1.00 -0.22 -0.01 11955
1.39 -0.06 0.11 -1.39 12.01 1.12 -0.21 0.00 11961
1.41 -0.05 0.51 -2.22 11.69 1.24 -0.17 0.01 11967
1.45 -0.06 -0.49 -2.16 11.75 1.32 -0.12 0.01 11974
1.43 -0.06 -0.52 -2.14 11.69 1.43 -0.10 0.02 11980
1.44 -0.06 0.56 -2.41 11.84 1.56 -0.09 0.02 11986
1.44 -0.06 0.35 -2.40 12.10 1.71 -0.09 0.01 11994
1.42 -0.05 0.04 -2.66 11.72 1.86 -0.12 -0.02 12000
1.39 -0.06 0.36 -2.85 11.71 1.97 -0.12 -0.04 12006
1.34 -0.05 0.28 -3.10 11.78 2.09 -0.06 -0.07 12012
1.34 -0.06 0.15 -3.23 11.59 2.22 -0.06 -0.09 12019
1.30 -0.05 0.56 -3.29 12.81 2.36 -0.07 -0.11 12025
1.19 -0.05 0.34 -3.54 13.62 2.57 -0.12 -0.13 12032
1.10 -0.05 0.95 -3.39 13.42 2.82 -0.17 -0.18 12038
1.06 -0.05 1.71 -3.80 13.74 3.08 -0.21 -0.24 12045
0.97 -0.05 0.91 -4.00 15.28 3.38 -0.24 -0.31 12051
0.88 -0.03 0.62 -4.74 16.60 3.73 -0.31 -0.39 12057
0.81 -0.04 1.45 -5.59 17.96 4.09 -0.37 -0.48 12064
0.77 -0.03 1.55 -5.87 20.21 4.27 -0.46 -0.56 12070
0.69 -0.04 2.92 -7.09 21.58 4.28 -0.55 -0.62 12077
0.65 -0.04 2.60 -7.94 22.87 4.28 -0.55 -0.70 12083
0.59 -0.03 2.79 -9.11 25.38 4.28 -0.49 -0.73 12090
0.55 -0.04 2.34 -10.72 26.39 4.28 -0.39 -0.76 12096
0.48 -0.02 3.10 -10.62 24.84 4.28 -0.34 -0.78 12102
0.39 -0.02 5.27 -8.84 27.69 4.28 -0.10 -0.81 12109
0.32 -0.02 2.03 -7.79 28.56 4.28 0.15 -0.89 12115
0.25 -0.02 0.09 -6.33 26.18 4.28 -0.04 -0.95 12122
0.19 -0.02 1.20 -3.67 24.50 4.28 -0.29 -1.01 12128
0.19 -0.01 2.90 -1.52 23.90 4.28 -0.47 -1.04 12135
0.15 -0.01 4.49 1.08 22.94 4.28 -0.63 -1.08 12141
0.13 -0.01 5.70 3.92 22.25 4.28 -0.67 -1.14 12147
0.14 -0.01 5.99 6.81 21.74 4.28 -0.74 -1.27 12153
0.11 -0.01 5.83 7.81 19.43 4.28 -0.65 -1.48 12160
0.08 -0.00 7.55 13.43 9.19 4.28 -0.21 -1.89 12167
0.09 -0.01 8.55 15.42 7.20 4.28 -0.14 -2.61 12173
0.08 -0.01 8.83 18.98 6.06 3.52 0.24 -3.05 12179
0.10 -0.01 5.74 21.78 26.98 1.38 1.03 -3.19 12185
0.11 -0.01 5.82 13.42 27.36 -0.31 1.86 -2.95 12192
0.11 -0.00 2.53 13.10 21.00 -1.53 1.81 -2.61 12198
0.11 -0.01 -0.33 13.92 14.80 -2.40 1.23 -2.23 12205
0.09 -0.01 0.46 10.77 10.51 -2.94 0.53 -1.84 12212
0.09 -0.01 2.49 7.36 8.32 -3.18 -0.04 -1.62 12218
0.09 -0.01 3.55 5.76 7.04 -3.22 -0.31 -1.44 12224
0.08 -0.01 4.48 5.25 5.72 -3.17 -0.23 -1.24 12230
0.08 -0.01 5.25 5.06 4.94 -3.13 0.04 -1.04 12236
0.08 -0.01 5.45 4.84 4.77 -3.14 0.39 -0.87 12242
0.08 -0.01 4.95 4.43 5.16 -3.17 0.77 -0.71 12250
0.09 -0.01 4.07 4.08 5.92 -3.20 1.08 -0.55 12256
0.08 -0.01 3.25 3.76 6.72 -3.25 1.27 -0.40 12262
0.06 -0.01 2.61 3.65 7.48 -3.32 1.27 -0.24 12268
0.08 -0.00 2.29 3.38 8.26 -3.39 1.20 -0.08 12274
0.08 -0.01 2.18 3.11 8.96 -3.48 1.09 0.09 12280
0.08 -0.01 2.29 2.97 9.45 -3.59 1.01 0.25 12286
0.08 0.00 2.57 2.71 9.96 -3.71 0.97 0.44 12294
0.08 -0.01 2.81 2.33 10.56 -3.85 0.99 0.60 12300
0.08 -0.01 2.86 1.72 11.15 -4.00 1.07 0.73 12306
0.08 0.00 2.77 0.94 11.47 -4.11 1.19 0.83 12312
0.08 -0.01 2.50 0.13 11.83 -4.17 1.32 0.89 12319
0.07 -0.01 2.12 -0.66 12.22 -4.24 1.42 0.93 12325
0.09 -0.01 1.83 -1.35 12.73 -4.23 1.52 0.94 12332
0.08 -0.01 1.65 -2.02 13.24 -4.23 1.61 0.92 12338
0.08 -0.01 1.52 -2.69 14.15 -4.23 1.71 0.88 12344
0.09 -0.01 1.24 -3.31 14.89 -4.23 1.84 0.82 12351
0.07 -0.01 0.76 -4.00 15.46 -4.23 1.94 0.77 12357
0.09 -0.00 0.34 -4.70 16.11 -4.23 2.04 0.71 12363
0.08 -0.01 0.04 -5.40 16.46 -4.22 2.09 0.66 12369
0.08 -0.01 -0.02 -6.14 16.73 -4.20 2.08 0.63 12376
0.07 -0.00 0.00 -6.89 16.99 -4.17 2.05 0.61 12383
0.07 -0.01 0.02 -7.37 17.40 -4.11 2.00 0.60 12389
0.06 -0.01 0.13 -7.50 18.31 -4.04 1.94 0.62 12395
0.08 -0.01 0.17 -7.48 18.19 -3.98 1.87 0.65 12401
0.07 -0.01 0.15 -7.83 18.81 -3.89 1.80 0.68 12407
0.06 -0.01 0.20 -8.36 19.06 -3.80 1.74 0.71 12414
0.08 -0.01 0.29 -8.90 19.19 -3.70 1.70 0.75 12421
0.07 -0.01 0.49 -9.38 19.57 -3.59 1.64 0.76 12427
0.08 -0.01 0.74 -9.78 20.06 -3.48 1.59 0.75 12433
0.08 -0.01 0.90 -10.08 20.65 -3.39 1.54 0.74 12440
0.08 -0.01 1.01 -10.28 21.16 -3.32 1.53 0.72 12446
0.08 -0.01 1.26 -10.51 21.36 -3.29 1.55 0.71 12452
0.08 -0.01 1.51 -10.92 21.42 -3.29 1.62 0.70 12459
0.07 -0.01 1.58 -11.46 21.24 -3.29 1.71 0.70 12466
0.09 -0.01 1.25 -12.15 20.73 -3.27 1.81 0.72 12472
0.07 -0.01 0.93 -12.97 20.20 -3.22 1.89 0.78 12478
0.09 -0.00 0.35 -13.86 19.31 -3.13 1.91 0.85 12484
0.09 -0.01 -0.11 -15.00 18.19 -2.99 1.89 0.94 12491
0.08 -0.00 -0.68 -16.17 16.83 -2.86 1.83 1.05 12497
0.08 -0.01 -1.55 -16.70 14.74 -2.70 1.79 1.19 12504
0.08 -0.01 -2.94 -17.70 13.04 -2.51 1.81 1.42 12511
0.09 -0.01 -4.52 -18.88 11.79 -2.29 1.77 1.68 12517
0.08 -0.01 -6.17 -19.96 10.60 -2.05 1.63 1.93 12523
0.10 -0.00 -7.47 -21.67 9.58 -1.82 1.45 2.12 12529
0.08 -0.01 -8.32 -23.96 8.50 -1.67 1.15 2.20 12536
0.09 -0.00 -8.51 -26.41 7.08 -1.53 0.77 2.15 12542
0.09 -0.00 -8.07 -28.75 4.97 -1.35 0.46 2.01 12549
0.08 -0.01 -7.40 -30.53 2.43 -1.11 0.38 1.80 12555
0.09 0.00 -6.88 -31.53 0.85 -0.78 0.46 1.54 12562
0.09 -0.01 -7.98 -34.36 -0.71 -0.39 0.50 1.25 12568
0.07 -0.00 -12.75 -39.03 14.76 1.20 -0.39 1.12 12574
0.09 -0.00 -13.26 -28.99 -5.89 2.14 -1.23 0.83 12580
0.08 -0.00 -13.29 -32.77 1.48 2.64 -2.61 0.64 12588
0.10 0.02 -6.46 -19.07 3.02 3.13 -3.60 0.47 12594
0.06 0.08 -1.18 -2.98 5.74 3.24 -3.64 0.41 12600
0.09 0.17 2.01 1.18 18.30 3.46 -2.89 0.61 12607
0.07 0.25 3.58 5.24 20.74 3.34 -1.62 1.07 12613
0.06 0.38 1.38 1.92 17.77 3.13 -0.71 1.38 12619
0.07 0.46 -2.22 -2.22 17.87 3.31 -0.17 1.48 12625
0.05 0.54 -6.19 -4.84 18.29 3.59 0.05 1.39 12633
0.06 0.70 -10.67 -6.47 19.49 3.90 -0.07 1.02 12639
0.04 0.76 -10.17 -5.06 23.96 4.04 -0.17 0.35 12645
0.06 0.86 -4.83 -2.99 22.80 3.58 -0.19 -0.29 12652
0.06 0.90 0.58 -2.76 20.68 3.02 -0.09 -0.59 12658
0.06 0.94 3.93 -3.02 19.29 2.50 -0.29 -0.58 12664
0.07 0.93 5.20 -2.11 16.40 1.63 -1.08 -0.35 12670
0.05 0.91 3.86 -2.87 11.97 1.10 -1.09 0.13 12678
0.06 0.92 0.72 -1.26 11.50 0.95 -1.05 0.33 12684
0.05 0.90 -1.19 -0.80 12.42 0.72 -0.97 0.23 12690
0.07 0.91 -0.51 -1.17 10.96 0.32 -0.62 0.12 12696
0.08 0.92 0.31 -1.55 9.96 0.19 -0.49 0.08 12703
0.09 0.94 0.80 -1.43 10.26 0.17 -0.40 0.14 12709
0.10 0.93 0.36 -1.03 10.20 0.08 -0.27 0.16 12716
0.10 0.93 -1.03 -2.11 11.50 0.02 -0.18 0.12 12722
0.12 0.94 0.41 -0.99 9.93 0.03 -0.16 0.13 12729
0.11 0.94 0.37 -1.11 10.09 0.02 -0.14 0.12 12735
0.09 0.95 0.35 -0.99 10.03 0.01 -0.13 0.12 12741
0.11 0.94 0.41 -0.99 10.22 0.01 -0.11 0.12 12747
0.11 0.93 0.28 -1.03 10.06 0.01 -0.10 0.11 12754
0.10 0.93 0.36 -0.98 10.02 0.02 -0.09 0.11 12761
0.12 0.89 0.33 -0.97 9.97 0.02 -0.08 0.11 12767
0.11 0.85 0.35 -0.98 9.99 0.03 -0.07 0.12 12773
0.12 0.84 0.33 -0.97 9.92 0.03 -0.06 0.12 12779
0.14 0.80 0.36 -1.01 9.96 0.04 -0.05 0.11 12786
0.12 0.79 0.37 -1.00 9.95 0.04 -0.05 0.12 12792
0.15 0.76 0.39 -1.04 9.97 0.04 -0.04 0.12 12798
0.15 0.73 0.39 -1.01 10.01 0.05 -0.03 0.12 12805
0.14 0.68 0.36 -1.01 9.96 0.05 -0.03 0.13 12811
0.16 0.59 0.44 -0.97 9.95 0.05 -0.03 0.11 12818
0.16 0.56 0.50 -1.01 9.98 0.05 -0.04 0.11 12824
0.17 0.50 0.48 -1.05 9.98 0.04 -0.05 0.10 12830
0.19 0.45 0.46 -1.01 9.97 0.05 -0.06 0.10 12836
0.20 0.41 0.47 -1.06 9.89 0.04 -0.07 0.09 12843
0.21 0.36 0.46 -1.06 9.95 0.04 -0.08 0.08 12850
0.23 0.30 0.41 -1.07 9.97 0.03 -0.08 0.08 12856
0.22 0.29 0.46 -1.07 9.99 0.03 -0.08 0.08 12862
0.23 0.24 0.35 -1.04 9.93 0.03 -0.09 0.08 12868
0.25 0.19 0.34 -1.04 9.94 0.04 -0.08 0.09 12874
0.27 0.15 0.32 -1.09 9.94 0.03 -0.08 0.08 12881
0.25 0.17 0.29 -1.06 9.98 0.04 -0.07 0.10 12888
0.29 0.15 0.32 -1.07 9.93 0.04 -0.06 0.10 12894
0.29 0.11 0.36 -1.09 9.98 0.04 -0.06 0.10 12900
0.34 0.05 0.29 -1.08 9.95 0.04 -0.07 0.09 12906
0.38 0.06 0.38 -1.10 9.91 0.03 -0.07 0.09 12912
0.41 0.04 0.35 -1.11 9.87 0.03 -0.07 0.09 12919
0.39 0.06 0.34 -1.14 9.89 0.03 -0.08 0.10 12925
0.44 0.05 0.41 -1.12 9.94 0.03 -0.08 0.09 12932
0.46 0.04 0.35 -1.14 9.86 0.03 -0.08 0.09 12938
0.49 0.00 0.39 -1.13 9.95 0.04 -0.08 0.08 12944
0.51 0.00 0.36 -1.14 9.90 0.04 -0.08 0.08 12951
0.51 -0.01 0.37 -1.09 9.90 0.04 -0.08 0.08 12957
0.54 -0.02 0.23 -1.06 10.02 0.04 -0.08 0.08 12963
0.56 -0.02 0.29 -1.10 9.94 0.05 -0.08 0.07 12969
0.53 -0.04 0.44 -1.11 10.01 0.05 -0.08 0.07 12976
0.55 -0.02 0.37 -1.13 9.90 0.05 -0.07 0.07 12983
0.60 -0.04 0.01 -1.05 9.91 0.05 -0.07 0.07 12989
0.62 -0.04 0.24 -1.10 9.98 0.06 -0.06 0.06 12995
0.65 -0.01 0.39 -1.23 9.91 0.07 -0.07 0.06 13001
0.67 -0.04 0.38 -1.05 10.02 0.08 -0.07 0.06 13007
0.67 -0.04 0.32 -1.01 9.93 0.08 -0.06 0.05 13015
0.68 -0.03 0.17 -1.33 9.99 0.09 -0.05 0.06 13021
0.69 -0.04 0.36 -1.25 10.00 0.09 -0.06 0.06 13027
0.74 -0.04 0.39 -1.27 9.96 0.11 -0.06 0.05 13033
0.76 -0.04 0.30 -1.21 9.96 0.10 -0.07 0.05 13039
0.81 -0.04 0.28 -1.11 9.94 0.12 -0.06 0.05 13046
0.79 -0.05 0.34 -1.24 9.92 0.12 -0.06 0.06 13052
0.84 -0.03 0.28 -0.67 9.93 0.12 -0.06 0.05 13059
0.86 -0.05 0.40 -1.27 9.96 0.12 -0.06 0.06 13065
0.89 -0.04 0.33 -1.26 9.97 0.13 -0.06 0.05 13071
0.92 -0.04 0.28 -1.25 10.00 0.14 -0.07 0.05 13078
0.93 -0.05 0.35 -1.27 10.03 0.16 -0.07 0.05 13084
0.94 -0.04 0.38 -1.17 10.18 0.19 -0.08 0.04 13090
0.98 -0.04 0.45 -1.33 10.22 0.21 -0.09 0.03 13096
1.02 -0.04 0.38 -1.38 10.22 0.26 -0.10 0.03 13104
1.03 -0.04 0.31 -1.33 10.28 0.31 -0.11 0.03 13110
1.05 -0.06 0.29 -1.45 10.45 0.37 -0.11 0.03 13116
1.07 -0.04 0.25 -1.44 10.64 0.46 -0.10 0.03 13122
1.09 -0.05 0.25 -1.51 10.59 0.55 -0.10 0.04 13129
1.14 -0.05 0.15 -1.51 11.02 0.64 -0.11 0.04 13135
1.17 -0.05 0.27 -1.58 10.86 0.73 -0.09 0.05 13142
1.19 -0.06 0.20 -1.59 11.08 0.80 -0.07 0.05 13148
1.22 -0.05 0.36 -1.88 11.05 0.88 -0.04 0.04 13155
1.25 -0.06 0.31 -1.83 11.27 0.98 -0.04 0.04 13161
1.24 -0.05 0.00 -1.85 11.50 1.08 -0.02 0.05 13167
1.28 -0.05 0.09 -1.73 11.37 1.16 0.02 0.06 13173
1.30 -0.06 0.23 -2.00 11.05 1.27 0.03 0.06 13180
1.29 -0.05 0.48 -2.14 11.48 1.38 0.06 0.05 13187
1.29 -0.05 0.60 -2.22 11.41 1.50 0.04 0.03 13193
1.28 -0.05 0.74 -2.25 11.63 1.66 0.01 -0.00 13199
1.30 -0.04 0.82 -2.70 11.62 1.77 -0.01 -0.03 13205
1.28 -0.05 0.80 -2.58 12.14 1.95 -0.02 -0.06 13212
1.24 -0.06 0.75 -2.74 11.99 2.08 -0.03 -0.09 13218
1.25 -0.05 0.65 -2.78 11.86 2.19 -0.03 -0.12 13224
1.21 -0.05 0.38 -3.08 12.33 2.28 -0.02 -0.14 13232
1.12 -0.05 0.52 -2.96 12.55 2.41 -0.02 -0.15 13238
1.05 -0.05 1.31 -3.40 12.49 2.65 -0.03 -0.16 13244
1.03 -0.04 1.09 -3.63 13.64 2.88 -0.08 -0.20 13250
1.00 -0.05 1.88 -3.95 13.35 3.12 -0.09 -0.27 13257
0.91 -0.05 1.23 -4.01 14.32 3.44 -0.10 -0.33 13263
0.85 -0.03 1.98 -4.14 14.60 3.76 -0.08 -0.39 13270
0.76 -0.05 0.75 -5.03 16.02 4.10 -0.09 -0.44 13276
0.70 -0.03 1.48 -6.31 19.04 4.26 -0.07 -0.47 13283
0.65 -0.04 2.22 -7.12 20.69 4.28 -0.09 -0.49 13289
0.59 -0.03 2.52 -7.69 21.45 4.28 -0.08 -0.52 13295
0.53 -0.03 3.32 -9.18 22.83 4.28 0.01 -0.56 13302
0.52 -0.03 1.09 -10.49 25.47 4.28 0.10 -0.54 13308
0.44 -0.02 0.47 -10.72 25.71 4.28 0.12 -0.50 13315
0.39 -0.03 1.62 -9.35 26.88 4.28 0.10 -0.48 13321
0.29 -0.01 1.15 -8.28 26.76 4.28 0.11 -0.47 13328
0.25 -0.02 0.81 -7.73 26.41 4.28 -0.01 -0.50 13334
0.21 -0.02 0.98 -6.19 24.48 4.28 -0.18 -0.54 13340
0.16 -0.02 1.94 -3.64 24.09 4.28 -0.38 -0.58 13346
0.12 -0.01 3.65 -0.86 22.34 4.28 -0.48 -0.59 13353
0.12 -0.01 5.61 1.94 21.10 4.28 -0.51 -0.63 13360
0.12 -0.01 6.31 4.71 21.65 4.28 -0.45 -0.72 13366
0.11 -0.01 6.39 6.45 21.02 4.28 -0.30 -0.88 13372
0.11 -0.01 5.68 7.56 18.86 4.28 0.05 -1.11 13379
0.09 -0.01 6.20 12.93 9.40 4.28 0.68 -1.58 13385
0.09 -0.01 8.21 14.14 5.52 4.28 0.77 -2.34 13391
0.08 -0.01 8.44 19.60 4.50 3.85 0.97 -2.77 13398
0.09 -0.01 5.10 21.63 23.75 1.63 1.41 -2.95 13404
0.08 -0.01 4.75 14.10 27.25 -0.19 1.93 -2.76 13411
0.08 -0.01 1.89 12.90 22.79 -1.59 1.67 -2.54 13417
0.08 -0.01 -1.28 13.91 17.07 -2.62 0.99 -2.16 13423
0.09 -0.01 -0.87 10.89 12.67 -3.32 0.28 -1.75 13430
0.08 -0.01 1.57 7.46 10.10 -3.70 -0.32 -1.54 13436
0.09 -0.00 3.10 5.98 8.41 -3.85 -0.65 -1.41 13443
0.08 -0.01 3.93 4.85 7.15 -3.88 -0.62 -1.34 13449
0.08 -0.01 4.52 4.10 5.95 -3.86 -0.35 -1.22 13455
0.09 -0.01 4.96 3.60 5.37 -3.82 0.02 -1.12 13461
0.09 -0.01 4.85 3.16 5.28 -3.79 0.42 -1.04 13468
0.08 -0.01 4.25 2.87 5.92 -3.77 0.81 -0.94 13474
0.09 -0.00 3.38 2.68 7.04 -3.78 1.10 -0.82 13480
0.09 -0.01 2.50 2.63 7.99 -3.83 1.23 -0.69 13487
0.09 -0.01 1.24 2.78 8.87 -3.90 1.18 -0.55 13493
0.08 -0.01 1.53 2.84 9.73 -4.00 1.10 -0.39 13499
0.07 -0.01 1.53 2.61 10.26 -4.10 0.97 -0.21 13506
0.08 -0.01 1.71 2.07 10.89 -4.18 0.86 -0.08 13512
0.08 -0.01 2.03 1.28 11.34 -4.23 0.81 0.06 13518
0.08 -0.01 2.27 0.67 11.69 -4.27 0.82 0.18 13524
0.08 -0.01 2.45 0.03 11.78 -4.28 0.90 0.26 13531
0.08 -0.00 2.50 -0.75 11.88 -4.28 1.02 0.31 13538
0.08 -0.01 2.45 -1.62 12.21 -4.28 1.20 0.33 13544
0.06 -0.01 2.22 -2.40 12.74 -4.28 1.40 0.33 13550
0.09 -0.01 1.85 -3.09 13.34 -4.28 1.60 0.31 13556
0.08 -0.01 1.34 -3.69 14.21 -4.28 1.79 0.29 13563
0.08 -0.01 0.64 -4.25 15.09 -4.27 1.96 0.25 13570
0.09 -0.01 -0.02 -4.95 16.16 -4.26 2.07 0.22 13576
0.07 -0.01 -0.66 -5.62 16.79 -4.25 2.09 0.19 13582
0.07 -0.01 -1.23 -6.41 17.35 -4.24 2.05 0.17 13588
0.07 -0.01 -1.31 -7.12 17.41 -4.22 1.95 0.17 13595
0.07 -0.01 -0.64 -7.53 17.46 -4.19 1.86 0.20 13601
0.08 0.00 -0.97 -7.83 17.38 -4.13 1.71 0.25 13607
0.08 -0.01 -0.63 -7.81 17.36 -4.03 1.68 0.34 13614
0.08 -0.01 -0.37 -7.78 17.72 -3.89 1.65 0.44 13621
0.10 -0.01 -0.24 -7.83 18.31 -3.74 1.66 0.52 13627
0.08 -0.01 -0.22 -7.86 19.09 -3.62 1.70 0.66 13633
0.09 -0.01 -0.29 -8.10 19.86 -3.52 1.76 0.73 13639
0.09 -0.01 -0.41 -8.50 20.44 -3.46 1.78 0.84 13645
0.08 -0.01 -0.65 -9.01 21.12 -3.44 1.77 0.94 13652
0.08 -0.00 -0.76 -9.59 21.50 -3.44 1.70 1.04 13659
0.08 -0.01 -0.81 -10.37 21.50 -3.46 1.58 1.14 13665
0.08 -0.01 -0.64 -11.18 21.08 -3.46 1.43 1.24 13671
0.10 -0.01 -0.36 -11.99 20.37 -3.44 1.29 1.31 13678
0.09 -0.01 -0.02 -12.76 19.63 -3.38 1.18 1.36 13684
0.08 -0.00 0.24 -13.61 18.84 -3.27 1.11 1.40 13690
0.09 -0.01 0.34 -14.66 18.05 -3.13 1.05 1.43 13697
0.09 -0.01 0.28 -15.56 17.16 -2.96 1.00 1.47 13704
0.10 -0.01 0.02 -16.38 16.15 -2.77 0.98 1.53 13710
0.09 -0.01 -0.45 -17.15 15.19 -2.59 1.01 1.61 13716
0.09 -0.01 -1.14 -17.70 13.99 -2.43 1.10 1.72 13722
0.09 -0.01 -2.58 -17.81 12.64 -2.29 1.32 1.87 13729
0.09 -0.00 -4.43 -18.99 11.71 -2.16 1.70 2.05 13735
0.09 -0.01 -6.21 -21.04 11.00 -2.05 1.82 2.14 13742
0.09 -0.01 -7.83 -22.84 10.01 -1.93 1.56 2.12 13749
0.10 -0.01 -8.47 -24.71 7.95 -1.77 1.10 2.02 13755
0.09 -0.01 -8.21 -26.24 5.46 -1.54 0.68 1.84 13761
0.10 -0.00 -7.58 -27.45 3.07 -1.23 0.42 1.58 13767
0.10 -0.01 -6.88 -28.40 1.86 -0.84 0.31 1.25 13774
0.09 -0.01 -6.29 -28.34 1.71 -0.40 0.27 0.86 13780
0.11 -0.01 -5.91 -26.91 2.28 0.04 0.24 0.42 13787
0.10 -0.01 -5.72 -24.77 3.88 0.41 0.18 0.00 13793
0.09 -0.01 -5.25 -22.02 5.36 0.66 0.08 -0.36 13799
0.11 -0.01 -4.60 -19.63 7.01 0.80 -0.07 -0.64 13806
0.09 -0.01 -5.60 -22.78 5.57 0.93 -0.39 -0.78 13812
0.09 -0.01 -3.95 -23.63 22.41 2.62 -1.91 -0.31 13818
0.09 -0.01 -0.44 2.37 -0.31 2.65 -2.64 -0.48 13825
0.07 0.00 5.19 6.40 9.28 2.52 -2.90 -0.53 13831
0.08 0.08 8.56 4.03 15.11 2.36 -2.44 -0.22 13838
0.06 0.18 6.86 6.43 10.98 1.99 -1.57 0.26 13844
0.05 0.25 6.51 2.02 9.75 1.92 -1.01 0.67 13850
0.06 0.31 4.60 -1.18 8.42 2.22 -0.67 1.03 13856
0.05 0.36 2.80 -2.63 9.96 2.86 -0.28 1.33 13863
0.05 0.40 -0.07 -2.83 13.27 3.34 0.04 1.49 13870
0.05 0.46 -4.38 -2.11 17.79 3.48 0.09 1.39 13876
0.04 0.54 -7.64 -2.48 20.06 3.33 0.04 1.03 13882
0.06 0.67 -8.42 -3.16 19.17 3.19 -0.02 0.48 13889
0.05 0.73 -6.93 -2.71 16.92 3.27 -0.03 -0.12 13895
0.05 0.83 -1.95 -2.31 15.97 3.25 -0.08 -0.51 13901
0.05 0.84 2.39 -2.84 19.45 3.30 -0.24 -0.64 13908
0.06 0.87 4.74 -2.74 22.43 2.70 -1.13 -0.54 13915
0.06 0.89 5.53 -3.66 15.58 1.43 -1.37 -0.02 13921
0.06 0.93 1.48 -2.53 12.91 0.90 -0.98 0.31 13927
0.08 0.97 -1.20 -1.11 11.70 0.67 -0.87 0.23 13934
0.06 0.99 -0.59 -0.81 11.28 0.32 -0.55 0.11 13940
0.07 1.03 0.20 -1.15 9.95 0.13 -0.31 0.08 13946
0.08 1.05 0.95 -0.84 9.93 0.15 -0.28 0.12 13953
0.06 1.08 0.35 -1.21 10.51 0.11 -0.24 0.17 13960
0.07 1.13 0.10 -1.08 10.10 0.06 -0.16 0.15 13966
0.05 1.12 0.46 -1.04 9.94 0.03 -0.10 0.14 13972
0.06 1.15 0.46 -1.14 10.02 0.02 -0.08 0.14 13978
0.09 1.15 0.42 -1.02 9.93 0.01 -0.08 0.14 13984
0.07 1.15 0.42 -1.15 9.88 -0.01 -0.06 0.12 13991
0.08 1.16 0.43 -1.03 9.98 0.00 -0.06 0.12 13998
0.09 1.15 0.41 -0.98 9.94 0.01 -0.06 0.13 14004
0.10 1.13 0.38 -0.99 9.84 0.01 -0.06 0.12 14010
0.09 1.12 0.50 -0.99 9.91 0.01 -0.06 0.12 14016
0.09 1.10 0.44 -0.96 9.88 0.02 -0.06 0.13 14023
0.09 1.06 0.39 -1.00 9.92 0.02 -0.06 0.13 14029
0.09 1.04 0.38 -0.95 9.97 0.03 -0.05 0.13 14035
0.10 1.01 0.34 -0.97 9.93 0.03 -0.04 0.13 14042
0.09 0.96 0.41 -0.97 9.95 0.04 -0.03 0.13 14048
0.09 0.92 0.38 -1.02 9.92 0.04 -0.02 0.12 14055
0.10 0.84 0.40 -1.04 9.96 0.04 -0.02 0.13 14061
0.11 0.78 0.41 -1.02 9.94 0.04 -0.02 0.14 14067
0.12 0.76 0.40 -1.03 9.96 0.04 -0.01 0.13 14073
0.13 0.72 0.44 -1.05 9.91 0.04 -0.01 0.13 14080
0.13 0.66 0.47 -1.05 9.91 0.04 -0.01 0.13 14086
0.11 0.65 0.44 -1.04 9.93 0.04 -0.01 0.13 14093
0.12 0.61 0.50 -1.03 9.89 0.03 -0.01 0.12 14099
0.12 0.58 0.50 -1.05 9.89 0.03 -0.01 0.12 14105
0.13 0.58 0.44 -1.05 9.83 0.03 -0.02 0.12 14111
0.13 0.56 0.47 -1.09 9.85 0.02 -0.02 0.13 14117
0.13 0.49 0.45 -1.07 9.86 0.03 -0.01 0.12 14125
0.13 0.50 0.43 -1.03 9.91 0.03 -0.01 0.12 14131
0.13 0.46 0.42 -1.02 9.87 0.03 -0.01 0.12 14137
0.13 0.43 0.41 -1.05 9.87 0.03 -0.00 0.12 14143
0.14 0.42 0.42 -1.07 9.86 0.03 0.00 0.12 14149
0.14 0.40 0.40 -1.07 9.87 0.03 0.02 0.12 14156
0.14 0.39 0.44 -1.06 9.88 0.04 0.02 0.13 14162
0.14 0.39 0.43 -1.08 9.93 0.03 0.03 0.12 14169
0.15 0.35 0.46 -1.07 9.85 0.03 0.03 0.12 14175
0.14 0.33 0.49 -1.07 9.84 0.03 0.03 0.12 14181
0.15 0.30 0.51 -1.12 9.87 0.03 0.03 0.11 14187
0.16 0.27 0.52 -1.11 9.86 0.03 0.03 0.11 14194
0.15 0.27 0.49 -1.12 9.91 0.04 0.04 0.11 14200
0.16 0.27 0.50 -1.09 9.88 0.03 0.04 0.11 14206
0.15 0.23 0.52 -1.13 9.91 0.04 0.05 0.11 14213
0.15 0.23 0.53 -1.13 9.93 0.04 0.05 0.11 14219
0.17 0.22 0.56 -1.12 9.89 0.04 0.05 0.10 14226
0.18 0.17 0.57 -1.12 9.97 0.04 0.05 0.10 14232
0.16 0.18 0.56 -1.12 9.96 0.04 0.05 0.10 14238
0.19 0.17 0.53 -1.13 9.90 0.04 0.05 0.10 14244
0.19 0.16 0.57 -1.13 9.90 0.04 0.05 0.09 14251
0.19 0.13 0.59 -1.12 9.87 0.04 0.05 0.09 14258
0.19 0.11 0.57 -1.12 9.91 0.04 0.05 0.09 14264
0.20 0.09 0.60 -1.16 9.85 0.04 0.05 0.08 14270
0.19 0.07 0.59 -1.15 9.87 0.03 0.05 0.09 14276
0.20 0.09 0.61 -1.12 9.90 0.03 0.04 0.08 14282
0.21 0.08 0.01 -1.18 9.94 0.03 0.03 0.08 14288
0.22 0.06 0.60 -1.21 9.89 0.03 0.02 0.08 14296
0.22 0.07 0.64 -1.13 9.87 0.03 0.02 0.08 14302
0.23 0.06 0.63 -1.20 9.95 0.02 0.00 0.08 14308
0.24 0.05 0.66 -1.22 9.99 0.03 -0.02 0.07 14314
0.23 0.05 0.65 -1.12 9.96 0.03 -0.05 0.07 14320
0.24 0.01 0.72 -1.17 9.96 0.03 -0.07 0.06 14327
0.25 0.03 0.68 -1.22 9.94 0.03 -0.09 0.05 14333
0.28 0.02 0.70 -1.05 10.08 0.03 -0.10 0.05 14340
0.29 0.00 0.66 -1.10 9.94 0.04 -0.10 0.04 14346
0.32 -0.01 0.73 -1.26 9.96 0.04 -0.10 0.03 14352
0.36 -0.00 0.67 -1.21 9.97 0.05 -0.10 0.03 14359
0.36 -0.02 0.58 -1.48 9.98 0.06 -0.10 0.02 14365
0.37 -0.02 0.78 -1.20 10.11 0.07 -0.09 0.02 14371
0.45 -0.03 0.70 -1.14 10.10 0.10 -0.09 0.01 14377
0.49 -0.03 0.77 -1.31 10.23 0.13 -0.08 -0.01 14384
0.54 -0.02 0.77 -1.58 10.35 0.18 -0.08 -0.03 14391
0.57 -0.03 0.94 -1.16 10.69 0.25 -0.08 -0.06 14397
0.62 -0.04 1.06 -1.43 10.54 0.37 -0.08 -0.10 14403
0.69 -0.03 1.13 -0.82 11.35 0.53 -0.13 -0.13 14409
0.69 -0.04 0.84 -1.26 12.07 0.78 -0.20 -0.15 14416
0.78 -0.03 0.55 -1.53 12.42 1.06 -0.26 -0.17 14423
0.85 -0.05 0.49 -1.55 12.54 1.27 -0.23 -0.15 14429
0.90 -0.05 0.78 -1.65 11.98 1.39 -0.15 -0.14 14436
0.95 -0.05 -0.02 -1.73 12.07 1.54 -0.16 -0.12 14442
0.98 -0.05 0.46 -1.88 11.84 1.64 -0.17 -0.10 14448
1.03 -0.04 0.70 -2.32 11.70 1.76 -0.18 -0.11 14454
1.06 -0.05 0.40 -2.06 12.35 1.90 -0.19 -0.12 14461
1.06 -0.04 0.31 -1.89 12.30 2.06 -0.20 -0.11 14468
1.09 -0.05 0.44 -2.92 12.11 2.22 -0.22 -0.09 14474
1.09 -0.05 0.24 -2.71 12.45 2.36 -0.20 -0.09 14480
1.06 -0.04 0.62 -2.94 11.66 2.47 -0.19 -0.09 14487
1.00 -0.05 1.16 -2.71 12.42 2.54 -0.14 -0.12 14493
0.99 -0.05 0.88 -3.24 12.61 2.65 -0.11 -0.20 14499
0.92 -0.05 0.92 -3.62 14.35 2.83 -0.16 -0.23 14505
0.79 -0.05 1.76 -3.57 14.59 3.11 -0.14 -0.24 14513
0.74 -0.04 1.46 -4.20 16.35 3.45 -0.13 -0.29 14519
0.70 -0.04 3.15 -4.62 18.02 3.86 -0.19 -0.36 14525
0.65 -0.04 2.37 -5.39 20.95 4.20 -0.27 -0.45 14532
0.54 -0.02 2.85 -6.63 21.68 4.28 -0.34 -0.53 14538
0.53 -0.03 2.68 -7.67 22.29 4.28 -0.39 -0.62 14544
0.45 -0.02 3.29 -8.12 22.28 4.28 -0.42 -0.71 14551
0.42 -0.02 3.21 -9.20 24.58 4.28 -0.36 -0.76 14558
0.39 -0.02 3.13 -9.31 25.57 4.28 -0.29 -0.80 14564
0.31 -0.03 3.59 -8.80 24.31 4.28 -0.29 -0.82 14570
0.29 -0.01 4.73 -7.48 25.32 4.28 -0.16 -0.88 14577
0.25 -0.02 2.72 -5.71 26.19 4.28 -0.05 -0.97 14583
0.21 -0.02 1.08 -5.25 23.73 4.28 -0.23 -1.02 14589
0.18 -0.02 1.77 -2.77 21.75 4.28 -0.48 -1.05 14596
0.13 -0.01 3.09 -0.75 21.19 4.28 -0.62 -1.07 14602
0.17 -0.01 3.70 1.12 20.75 4.28 -0.70 -1.09 14609
0.16 -0.02 4.50 2.97 20.97 4.28 -0.81 -1.14 14615
0.11 -0.01 5.10 4.77 20.42 4.28 -0.74 -1.20 14621
0.15 -0.01 4.91 6.13 19.35 4.28 -0.53 -1.28 14627
0.11 -0.01 5.72 9.85 14.37 4.28 -0.04 -1.40 14635
0.11 -0.01 5.94 13.80 9.50 4.28 0.18 -1.83 14641
0.09 -0.01 8.46 15.61 4.06 4.28 0.39 -2.40 14647
0.07 -0.01 6.85 21.09 13.36 2.45 0.85 -2.65 14653
0.08 -0.01 4.73 15.90 28.65 0.58 1.79 -2.51 14660
0.08 -0.01 2.69 13.91 25.02 -1.04 2.08 -2.28 14666
0.07 -0.01 -1.94 15.33 19.73 -2.33 1.63 -2.02 14672
0.10 -0.01 -2.62 12.86 15.13 -3.23 0.94 -1.60 14679
0.09 -0.01 -0.77 8.81 12.48 -3.75 0.28 -1.24 14686
0.10 0.00 1.11 6.33 9.59 -3.95 -0.16 -1.02 14692
0.08 -0.01 2.02 4.98 7.45 -3.95 -0.35 -0.86 14698
0.08 -0.01 2.32 4.04 5.76 -3.85 -0.34 -0.71 14704
0.08 -0.00 2.72 3.65 4.69 -3.78 -0.23 -0.59 14710
0.09 -0.01 2.97 3.33 4.57 -3.68 -0.08 -0.49 14716
0.08 -0.01 2.82 2.90 4.92 -3.60 0.10 -0.43 14724
0.09 -0.00 2.39 2.78 5.62 -3.55 0.31 -0.36 14730
0.09 -0.01 1.97 2.89 6.34 -3.54 0.44 -0.31 14736
0.08 -0.01 1.64 3.09 7.07 -3.55 0.46 -0.25 14742
0.08 -0.01 1.46 3.23 7.97 -3.60 0.43 -0.18 14748
0.10 -0.01 1.56 3.27 8.91 -3.68 0.39 -0.09 14754
0.09 -0.01 1.95 3.12 9.86 -3.81 0.41 0.01 14761
0.08 -0.01 2.14 2.57 10.62 -3.97 0.47 0.10 14768
0.09 -0.01 2.25 2.10 11.12 -4.08 0.55 0.19 14774
0.08 -0.01 2.18 1.53 11.58 -4.19 0.63 0.25 14780
0.07 -0.01 2.11 0.87 12.15 -4.25 0.69 0.31 14786
0.08 -0.01 2.05 0.10 12.56 -4.28 0.75 0.36 14793
0.08 -0.01 1.97 -0.68 12.90 -4.28 0.83 0.38 14799
0.07 -0.01 1.92 -1.46 13.21 -4.28 0.94 0.38 14806
0.06 -0.01 1.92 -2.48 13.53 -4.28 1.07 0.36 14812
0.06 -0.01 1.76 -3.41 13.88 -4.28 1.21 0.33 14818
0.07 -0.00 1.59 -4.32 14.61 -4.28 1.35 0.28 14825
0.07 -0.01 1.31 -5.17 15.21 -4.28 1.47 0.23 14831
0.05 -0.01 0.91 -6.01 15.71 -4.27 1.54 0.19 14837
0.07 -0.01 0.80 -6.68 16.11 -4.24 1.54 0.16 14843
0.06 -0.01 0.88 -7.17 16.56 -4.20 1.50 0.17 14851
0.07 -0.01 1.20 -7.58 16.97 -4.15 1.44 0.20 14857
0.08 -0.01 1.60 -7.83 17.51 -4.07 1.41 0.27 14863
0.07 -0.01 1.97 -7.94 17.98 -3.99 1.43 0.34 14869
0.07 -0.01 2.25 -8.12 18.63 -3.89 1.47 0.43 14875
0.08 -0.01 2.48 -8.30 19.18 -3.82 1.51 0.53 14882
0.06 -0.01 2.62 -8.49 19.63 -3.71 1.56 0.64 14888
0.07 -0.00 2.60 -8.87 20.11 -3.66 1.63 0.76 14895
0.07 -0.01 2.46 -9.51 20.64 -3.59 1.71 0.87 14901
0.06 -0.01 2.14 -10.32 20.74 -3.52 1.77 0.98 14908
0.07 -0.01 1.81 -11.14 20.59 -3.45 1.77 1.07 14914
0.07 -0.01 1.54 -12.03 20.42 -3.34 1.72 1.15 14920
0.07 -0.01 1.49 -12.80 19.95 -3.19 1.65 1.21 14926
0.07 -0.01 1.31 -13.63 19.47 -3.02 1.58 1.25 14934
0.07 -0.01 1.19 -14.60 18.89 -2.84 1.51 1.27 14940
0.07 -0.01 1.11 -15.63 18.27 -2.65 1.45 1.29 14946
0.06 -0.01 1.31 -16.49 17.88 -2.49 1.42 1.30 14952
0.08 -0.00 1.60 -17.18 17.54 -2.39 1.45 1.29 14959
0.07 -0.01 1.65 -17.63 16.97 -2.37 1.54 1.26 14965
0.07 -0.00 1.51 -18.05 15.97 -2.40 1.66 1.22 14971
0.07 -0.01 1.29 -18.72 14.09 -2.47 1.78 1.17 14979
0.07 0.01 0.74 -19.63 11.89 -2.42 1.89 1.10 14985
0.07 -0.01 0.09 -20.55 9.77 -2.33 1.94 1.02 14991
0.07 -0.01 -1.10 -20.88 7.04 -2.15 2.00 0.93 14997
0.09 -0.00 -3.43 -20.78 4.25 -1.85 2.23 0.94 15004
0.08 -0.01 -6.32 -21.87 3.52 -1.46 2.67 1.12 15010
0.08 -0.01 -8.93 -23.77 4.85 -1.09 2.76 1.26 15016
0.08 -0.01 -10.75 -24.41 5.82 -0.83 2.11 1.19 15023
0.07 -0.01 -11.94 -24.87 5.74 -0.64 1.09 1.01 15030
0.08 -0.01 -9.15 -24.25 4.30 -0.45 0.11 0.80 15036
0.08 -0.01 -6.73 -23.71 3.27 -0.18 -0.42 0.56 15042
0.07 -0.01 -3.86 -23.32 3.41 0.16 -0.58 0.30 15048
0.09 -0.01 -1.29 -22.54 4.06 0.53 -0.57 0.01 15054
0.08 -0.01 0.59 -21.31 5.25 0.87 -0.42 -0.30 15062
0.07 -0.01 -8.44 -25.57 13.78 1.25 -0.56 -0.15 15068
0.07 -0.01 -11.63 -22.80 9.06 2.80 -2.81 0.88 15074
0.07 -0.01 -1.58 -2.25 7.00 2.69 -4.24 1.05 15080
0.05 0.03 10.00 7.70 12.75 2.54 -4.26 1.26 15087
0.06 0.08 10.22 3.52 13.86 2.29 -3.13 1.91 15093
0.05 0.18 7.00 7.41 11.57 2.11 -1.47 2.84 15099
0.05 0.30 2.91 2.93 9.16 2.20 -0.41 3.28 15106
0.05 0.32 -1.18 -1.52 9.20 2.68 0.11 3.50 15113
0.06 0.36 -5.57 -2.86 11.25 3.21 0.52 3.46 15119
0.07 0.39 -10.07 -6.06 13.55 3.58 0.69 3.19 15125
0.05 0.49 -14.22 -5.91 18.63 3.73 0.58 2.50 15132
0.04 0.54 -17.97 -4.60 20.66 3.60 0.30 1.56 15138
0.04 0.66 -15.74 -4.82 22.17 3.46 -0.00 0.40 15144
0.04 0.75 -6.96 -2.62 17.26 3.24 -0.15 -0.51 15152
0.04 0.81 1.46 -2.50 18.42 3.23 -0.07 -0.88 15158
0.05 0.84 6.27 -3.26 24.50 2.75 -0.88 -0.78 15164
0.05 0.87 7.88 -3.94 13.56 1.35 -1.48 -0.13 15170
0.08 0.93 1.02 -2.98 13.44 1.07 -1.25 0.34 15177
0.08 0.94 -1.68 -1.02 12.84 0.76 -1.08 0.28 15183
0.07 0.95 -1.67 -0.85 11.19 0.27 -0.66 0.09 15190
0.07 0.98 0.94 -1.48 9.84 0.12 -0.36 0.05 15196
0.07 0.98 1.52 -1.58 10.21 0.11 -0.31 0.16 15203
0.09 0.98 0.20 -0.95 10.14 0.05 -0.26 0.14 15209
0.10 0.96 0.22 -0.95 9.93 0.03 -0.23 0.10 15215
0.09 1.00 0.50 -1.11 9.92 0.02 -0.21 0.09 15221
0.12 0.99 0.44 -1.14 9.94 0.02 -0.22 0.09 15228
0.13 0.96 0.43 -0.94 10.01 0.01 -0.22 0.09 15235
0.12 0.99 0.41 -0.91 9.88 0.02 -0.21 0.07 15241
0.13 0.95 0.40 -1.05 10.01 0.01 -0.20 0.06 15247
0.14 0.94 0.42 -0.87 10.10 0.02 -0.19 0.07 15253
0.18 0.93 0.36 -1.01 9.97 0.02 -0.16 0.08 15260
0.16 0.84 0.35 -0.99 10.03 0.03 -0.14 0.08 15266
0.20 0.82 0.30 -1.06 10.15 0.03 -0.12 0.08 15272
0.20 0.74 0.26 -1.02 9.97 0.03 -0.12 0.09 15279
0.20 0.67 0.31 -0.99 10.02 0.04 -0.10 0.11 15286
0.19 0.66 0.35 -1.08 9.90 0.03 -0.08 0.12 15292
0.23 0.59 0.29 -1.03 9.61 0.04 -0.07 0.11 15298
0.27 0.53 0.24 -0.95 9.87 0.04 -0.08 0.11 15304
0.26 0.49 0.42 -1.03 9.91 0.04 -0.10 0.11 15310
0.30 0.42 0.47 -1.00 9.93 0.04 -0.11 0.11 15318
0.31 0.39 0.48 -1.06 9.92 0.04 -0.11 0.10 15324
0.33 0.38 -0.41 -1.06 10.50 0.03 -0.12 0.09 15330
0.34 0.34 0.30 -1.01 9.91 0.03 -0.13 0.10 15336
0.35 0.30 0.27 -1.01 9.91 0.03 -0.13 0.10 15342
0.41 0.27 0.32 -1.00 9.94 0.03 -0.12 0.09 15349
0.38 0.23 0.47 -0.99 10.10 0.04 -0.11 0.09 15355
0.41 0.22 0.39 -1.05 10.08 0.04 -0.11 0.09 15362
0.48 0.17 0.17 -1.06 9.86 0.04 -0.10 0.10 15368
0.54 0.14 0.21 -1.03 9.86 0.05 -0.10 0.08 15374
0.52 0.12 0.37 -1.07 10.03 0.05 -0.10 0.08 15381
0.53 0.11 0.35 -1.05 9.97 0.05 -0.10 0.09 15387
0.54 0.08 0.36 -1.06 9.92 0.05 -0.10 0.09 15393
0.58 0.09 0.28 -1.09 9.89 0.05 -0.10 0.09 15399
0.62 0.06 0.26 -1.10 9.96 0.05 -0.10 0.07 15406
0.62 0.03 0.26 -1.12 9.86 0.06 -0.10 0.07 15413
0.63 0.04 0.34 -1.14 9.93 0.06 -0.11 0.07 15419
0.67 0.05 0.29 -1.27 9.89 0.06 -0.11 0.06 15425
0.70 0.04 0.33 -0.95 9.86 0.05 -0.12 0.05 15431
0.77 0.02 0.41 -1.20 10.01 0.08 -0.12 0.05 15437
0.76 0.00 0.11 -1.09 9.85 0.08 -0.12 0.04 15444
0.76 -0.04 0.21 -1.15 10.01 0.09 -0.12 0.04 15451
0.80 -0.04 0.30 -1.27 10.00 0.11 -0.13 0.03 15457
0.82 -0.03 0.32 -1.17 10.10 0.12 -0.15 0.03 15463
0.84 -0.03 0.12 -1.21 10.02 0.13 -0.15 0.02 15470
0.88 -0.05 0.21 -1.32 9.97 0.15 -0.16 0.02 15476
0.95 -0.06 0.23 -1.25 10.02 0.17 -0.17 0.02 15482
0.97 -0.04 0.25 -1.34 10.10 0.18 -0.19 0.01 15489
1.01 -0.06 0.24 -1.25 10.06 0.21 -0.20 0.01 15496
1.03 -0.04 0.25 -1.31 10.04 0.23 -0.22 -0.00 15502
1.10 -0.05 0.15 -1.30 10.19 0.25 -0.23 -0.01 15508
1.11 -0.05 0.20 -1.34 10.20 0.28 -0.24 -0.01 15514
1.20 -0.05 0.28 -1.34 10.35 0.30 -0.26 -0.02 15521
1.19 -0.06 0.34 -1.54 10.40 0.34 -0.28 -0.02 15527
1.21 -0.04 0.19 -1.48 10.41 0.39 -0.30 -0.03 15534
1.27 -0.05 0.34 -1.59 10.37 0.45 -0.32 -0.04 15540
1.31 -0.05 0.24 -1.53 10.62 0.54 -0.31 -0.06 15547
1.37 -0.06 0.23 -1.58 10.85 0.62 -0.30 -0.07 15553
