Voltage_01 Voltage_02 Acc_x Acc_y Acc_z Gyro_x Gyro_y Gyro_z Time
5000
0.07 -0.01 -2.92 -8.06 21.15 -2.47 0.28 0.49 23
0.08 -0.01 -2.46 -8.57 22.83 -2.39 0.05 0.49 29
0.06 -0.01 -1.77 -9.55 23.67 -2.40 -0.15 0.45 35
0.06 -0.01 -0.76 -10.64 23.80 -2.48 -0.27 0.42 41
0.06 -0.01 0.31 -12.10 22.67 -2.60 -0.25 0.39 48
0.06 -0.01 0.74 -14.10 25.37 -2.56 -0.13 0.41 54
0.06 -0.01 1.70 -12.52 16.42 -2.60 0.10 0.45 60
0.06 -0.01 2.12 -13.26 16.00 -2.83 0.40 0.48 66
0.07 -0.01 1.57 -15.23 17.34 -3.01 0.80 0.59 73
0.08 -0.01 0.51 -16.82 16.76 -3.09 1.26 0.79 79
0.07 -0.01 -1.10 -17.79 14.29 -3.06 1.81 1.08 86
0.07 -0.01 -3.10 -19.03 12.09 -2.97 2.44 1.46 92
0.07 -0.01 -5.49 -21.18 10.84 -2.84 2.80 1.83 98
0.09 -0.01 -7.76 -23.75 9.45 -2.67 2.71 2.13 104
0.08 -0.01 -10.48 -26.26 7.22 -2.41 2.27 2.32 110
0.06 -0.01 -12.09 -28.52 4.76 -2.09 1.65 2.49 116
0.08 -0.00 -12.39 -29.53 2.39 -1.72 0.93 2.53 123
0.08 -0.01 -11.90 -29.89 0.68 -1.31 0.24 2.41 130
0.06 -0.01 -10.97 -29.64 0.72 -0.86 -0.36 2.10 136
0.07 0.00 -4.09 -49.83 15.44 0.29 -0.96 1.58 142
0.06 -0.01 0.07 -27.82 -11.16 1.69 -0.31 1.09 148
0.06 -0.01 -6.29 -25.40 -1.34 2.07 -0.33 0.53 154
0.07 -0.00 -7.12 -27.32 4.37 2.43 -0.62 0.05 161
0.07 0.01 -8.70 -33.58 1.00 2.54 -1.20 -0.22 167
0.05 0.10 -8.14 -16.92 -3.31 2.38 -2.16 -0.31 174
0.05 0.22 -0.16 4.06 7.59 3.04 -2.31 -0.38 180
0.04 0.45 3.85 -5.63 21.80 3.97 -1.28 -0.20 186
0.02 0.82 6.47 0.96 27.39 4.28 -0.57 0.10 192
0.00 1.08 -1.64 -2.83 25.28 4.28 -0.84 0.14 199
0.01 1.18 -2.38 -1.59 26.03 4.22 -1.29 -0.03 205
0.01 1.32 2.06 -5.05 21.96 4.07 -1.11 -0.09 211
-0.01 1.30 1.64 -4.58 20.94 3.85 -0.46 0.06 218
0.00 1.31 -2.02 -2.75 19.52 3.47 -0.33 0.03 224
-0.01 1.32 -1.28 -1.90 17.56 3.14 -0.49 -0.23 230
0.00 1.31 2.52 -2.74 25.02 3.02 -0.74 -0.36 237
0.02 1.19 2.98 -1.36 15.14 1.19 -1.64 -0.23 243
0.01 1.22 1.79 -2.68 13.08 0.40 -0.86 0.08 249
0.01 1.20 -0.10 -2.06 9.98 0.09 -0.31 0.16 256
0.01 1.19 -0.12 -0.79 10.67 0.00 -0.09 0.12 262
-0.00 1.23 0.25 -0.73 10.31 -0.02 -0.04 0.04 268
0.01 1.20 0.91 -1.20 10.32 -0.03 -0.03 0.02 274
0.01 1.18 0.99 -1.32 10.17 -0.04 -0.03 0.04 281
0.01 1.21 0.71 -0.98 10.29 -0.04 -0.04 0.04 287
0.00 1.19 0.50 -0.77 9.99 -0.04 -0.04 0.04 293
0.02 1.21 0.72 -0.79 10.03 -0.03 -0.03 0.03 300
0.00 1.23 0.80 -0.82 9.97 -0.02 -0.02 0.04 306
0.01 1.22 0.76 -0.72 9.92 -0.02 -0.02 0.04 312
0.01 1.24 0.78 -0.71 9.96 -0.01 -0.01 0.04 318
-0.00 1.19 0.82 -0.70 9.90 -0.00 -0.01 0.03 324
0.01 1.12 0.87 -0.70 9.91 0.00 -0.01 0.04 330
0.03 1.03 0.82 -0.78 9.96 0.00 -0.00 0.03 336
0.05 1.01 0.75 -0.75 10.04 0.01 -0.00 0.03 344
0.05 0.91 0.79 -0.76 10.01 0.01 -0.00 0.03 350
0.05 0.84 0.77 -0.80 10.04 0.01 -0.00 0.04 356
0.09 0.81 0.81 -0.74 9.98 0.02 -0.01 0.03 362
0.11 0.75 0.84 -0.71 9.93 0.02 -0.01 0.04 368
0.08 0.66 0.76 -0.76 9.99 0.02 -0.02 0.04 374
0.09 0.66 0.78 -0.73 9.96 0.03 -0.02 0.04 380
0.12 0.58 0.80 -0.77 10.00 0.02 -0.02 0.03 387
0.12 0.51 0.81 -0.76 9.96 0.02 -0.02 0.03 393
0.13 0.45 0.80 -0.76 10.03 0.02 -0.01 0.03 399
0.14 0.38 0.84 -0.75 10.02 0.03 -0.01 0.03 406
0.15 0.31 0.84 -0.79 9.96 0.03 -0.01 0.03 412
0.15 0.28 0.81 -0.80 9.95 0.03 -0.01 0.02 418
0.15 0.30 0.87 -0.80 9.98 0.03 -0.02 0.02 424
0.15 0.26 0.87 -0.78 9.91 0.03 -0.02 0.02 431
0.16 0.19 0.81 -0.80 9.96 0.02 -0.02 0.01 437
0.18 0.18 0.85 -0.84 10.01 0.02 -0.03 0.01 443
0.20 0.14 0.85 -0.82 10.01 0.02 -0.03 0.01 449
0.19 0.08 0.83 -0.80 10.01 0.02 -0.04 0.01 455
0.18 0.07 0.85 -0.81 10.00 0.03 -0.04 0.01 461
0.21 0.09 0.84 -0.78 9.97 0.02 -0.05 0.01 467
0.21 0.08 0.86 -0.81 10.00 0.03 -0.05 0.01 475
0.21 0.04 0.83 -0.88 9.94 0.02 -0.05 0.01 481
0.21 0.06 0.85 -0.86 9.94 0.02 -0.06 0.00 487
0.23 0.05 0.89 -0.86 9.93 0.02 -0.06 0.00 493
0.27 0.03 0.85 -0.93 9.98 0.02 -0.06 -0.00 499
0.24 0.03 0.90 -0.86 10.00 0.02 -0.06 -0.00 505
0.25 -0.01 0.85 -0.89 9.94 0.02 -0.05 -0.01 512
0.28 -0.01 0.81 -0.87 9.99 0.02 -0.05 -0.01 518
0.32 0.01 0.77 -0.81 9.95 0.02 -0.05 -0.01 524
0.33 -0.01 0.75 -1.08 9.93 0.02 -0.05 -0.02 530
0.37 -0.03 0.74 -1.01 9.91 0.03 -0.05 -0.01 536
0.39 -0.03 0.82 -0.86 10.08 0.04 -0.05 -0.02 543
0.44 -0.03 0.84 -0.89 10.06 0.05 -0.05 -0.02 549
0.48 -0.05 0.91 -0.91 10.12 0.05 -0.06 -0.03 556
0.52 -0.05 0.89 -0.92 9.97 0.07 -0.07 -0.04 562
0.56 -0.05 0.89 -0.91 10.08 0.08 -0.07 -0.04 568
0.66 -0.04 0.86 -0.85 10.02 0.09 -0.07 -0.05 574
0.73 -0.05 0.91 -0.97 10.03 0.10 -0.07 -0.06 580
0.79 -0.07 0.93 -0.95 10.08 0.12 -0.06 -0.07 586
0.86 -0.05 0.89 -0.97 10.07 0.14 -0.06 -0.08 593
0.92 -0.05 0.90 -1.01 10.17 0.17 -0.06 -0.09 600
0.97 -0.06 1.00 -1.07 10.13 0.22 -0.06 -0.10 606
1.00 -0.06 0.90 -1.03 10.20 0.27 -0.06 -0.12 612
1.10 -0.05 0.98 -1.09 10.25 0.33 -0.06 -0.14 618
1.18 -0.05 1.03 -1.12 10.50 0.42 -0.07 -0.15 624
1.24 -0.06 0.83 -1.17 10.84 0.53 -0.09 -0.16 630
1.32 -0.05 0.97 -1.30 11.19 0.71 -0.11 -0.16 637
1.40 -0.06 0.99 -1.32 11.46 0.92 -0.12 -0.17 644
1.42 -0.06 1.05 -1.41 11.47 1.12 -0.15 -0.18 650
1.49 -0.06 1.24 -1.49 10.79 1.26 -0.19 -0.23 656
1.56 -0.07 1.00 -1.56 11.94 1.37 -0.25 -0.20 662
1.59 -0.08 0.88 -1.63 11.94 1.50 -0.30 -0.21 668
1.64 -0.07 1.00 -1.84 12.15 1.62 -0.34 -0.20 675
1.67 -0.07 0.81 -1.81 12.26 1.74 -0.38 -0.19 681
1.70 -0.08 0.61 -1.79 12.45 1.87 -0.41 -0.17 688
1.79 -0.07 0.62 -1.70 12.64 2.01 -0.45 -0.15 694
1.83 -0.07 0.81 -2.07 12.38 2.17 -0.48 -0.14 700
1.82 -0.07 0.64 -2.10 13.12 2.30 -0.49 -0.14 706
1.85 -0.07 0.73 -2.17 12.72 2.49 -0.49 -0.15 713
1.86 -0.07 0.87 -2.62 13.40 2.67 -0.48 -0.17 719
1.84 -0.07 0.54 -3.74 13.80 2.93 -0.49 -0.19 726
1.84 -0.07 -0.10 -2.64 14.59 3.18 -0.49 -0.21 732
1.79 -0.07 0.34 -2.79 14.65 3.44 -0.48 -0.21 738
1.71 -0.07 0.36 -2.40 15.32 3.77 -0.50 -0.22 745
1.64 -0.06 0.48 -2.90 16.43 4.12 -0.47 -0.21 751
1.54 -0.06 1.27 -3.06 16.13 4.28 -0.58 -0.27 757
1.37 -0.05 2.73 -4.16 17.38 4.28 -0.71 -0.38 763
1.21 -0.05 2.99 -4.23 18.53 4.28 -0.92 -0.53 770
1.03 -0.04 -1.36 -8.23 20.05 4.28 -1.18 -0.69 776
0.90 -0.04 1.97 -7.34 23.44 4.28 -1.46 -0.76 783
0.83 -0.03 2.52 -10.35 28.30 4.28 -1.53 -0.84 789
0.70 -0.03 4.37 -13.85 33.14 4.28 -1.46 -0.90 795
0.60 -0.04 2.84 -15.74 33.85 4.28 -1.34 -0.92 801
0.41 -0.02 3.03 -13.92 30.37 4.28 -1.12 -0.94 808
0.34 -0.02 2.31 -11.26 27.16 4.28 -0.98 -1.01 815
0.24 -0.02 2.37 -7.01 26.43 4.28 -0.82 -1.04 821
0.20 -0.01 2.48 -4.49 28.59 4.28 -0.78 -1.06 827
0.18 -0.01 3.47 -2.70 29.37 4.28 -1.05 -1.11 833
0.12 -0.01 6.57 -0.01 29.29 4.28 -1.38 -1.17 839
0.09 -0.01 9.21 4.09 28.62 4.28 -1.48 -1.22 845
0.06 -0.00 10.67 6.90 28.35 4.28 -1.27 -1.25 852
0.06 -0.01 11.41 12.38 22.12 4.28 -0.74 -1.29 859
0.05 -0.00 12.65 19.73 18.84 4.28 0.05 -1.54 865
0.07 -0.01 7.29 20.88 6.13 4.19 0.59 -2.02 871
0.05 -0.01 8.55 23.42 -0.34 3.25 0.52 -2.45 877
0.05 -0.00 7.52 19.63 19.67 1.72 0.83 -2.60 883
0.04 -0.00 8.01 16.89 29.86 -0.31 1.51 -2.37 890
0.06 -0.01 5.99 16.53 25.42 -1.98 1.69 -2.05 897
0.05 -0.01 3.17 15.42 17.24 -3.02 1.35 -1.71 903
0.05 -0.01 2.00 13.18 13.91 -3.67 0.83 -1.34 909
0.07 -0.01 2.42 10.80 12.86 -4.20 0.49 -0.98 915
0.04 -0.00 2.98 8.79 10.98 -4.28 0.27 -0.69 921
0.04 -0.00 3.67 7.08 9.34 -4.28 0.08 -0.51 927
0.06 -0.01 4.03 5.48 8.58 -4.28 -0.03 -0.34 933
0.07 -0.00 4.22 4.32 7.91 -4.28 -0.05 -0.21 941
0.06 -0.01 4.48 3.44 7.89 -4.28 0.04 -0.12 947
0.06 -0.01 4.74 2.79 8.22 -4.27 0.14 -0.06 953
0.04 -0.00 5.08 2.43 8.59 -4.26 0.32 -0.03 959
0.04 -0.00 5.17 2.15 9.05 -4.24 0.53 -0.01 965
0.06 -0.01 5.02 2.12 9.31 -4.25 0.77 0.00 971
0.05 -0.01 4.58 2.13 9.44 -4.26 1.01 0.03 977
0.04 -0.00 4.17 2.12 9.82 -4.28 1.22 0.08 984
0.04 -0.00 3.82 1.82 10.95 -4.28 1.47 0.13 990
0.05 -0.00 3.43 1.13 11.03 -4.28 1.68 0.21 996
0.05 -0.01 3.02 0.41 12.01 -4.28 1.85 0.28 1002
0.04 -0.00 2.43 -0.28 12.80 -4.28 1.95 0.34 1008
0.03 -0.00 2.12 -1.02 13.48 -4.28 1.99 0.39 1014
0.05 -0.00 1.72 -1.60 14.32 -4.28 1.98 0.41 1021
0.05 -0.00 1.58 -2.13 14.98 -4.28 1.97 0.43 1028
0.04 -0.00 1.46 -2.70 15.79 -4.28 1.98 0.44 1034
0.05 0.01 1.25 -3.15 16.36 -4.28 2.01 0.44 1040
0.05 -0.00 1.35 -3.88 16.58 -4.28 2.11 0.43 1046
0.05 -0.00 1.46 -4.66 16.83 -4.28 2.21 0.39 1053
0.05 -0.00 0.61 -6.19 17.08 -4.28 2.36 0.35 1059
0.05 -0.00 2.00 -6.56 17.50 -4.28 2.50 0.34 1065
0.04 -0.00 1.47 -7.13 17.33 -4.25 2.55 0.28 1072
0.04 0.00 1.16 -7.55 17.16 -4.17 2.63 0.29 1078
0.05 -0.00 0.83 -7.76 17.49 -4.02 2.67 0.34 1084
0.04 -0.00 0.47 -7.80 18.03 -3.76 2.69 0.43 1091
0.04 -0.00 -0.58 -7.50 19.06 -3.51 2.61 0.56 1097
0.05 -0.01 -0.34 -7.14 20.01 -3.33 2.45 0.71 1103
0.03 -0.00 -0.54 -6.81 21.20 -3.23 2.23 0.85 1110
0.04 -0.00 -0.66 -6.63 22.14 -3.22 1.96 1.04 1116
0.06 -0.01 -0.76 -6.91 23.09 -3.28 1.66 1.24 1122
0.03 -0.00 -0.73 -7.57 23.33 -3.38 1.35 1.45 1129
0.04 -0.00 -0.43 -8.33 23.11 -3.49 1.07 1.63 1135
0.05 -0.00 0.01 -9.28 22.39 -3.56 0.85 1.79 1141
0.04 -0.00 0.51 -10.04 21.73 -3.59 0.72 1.92 1147
0.03 -0.00 0.88 -10.77 21.31 -3.58 0.71 2.01 1154
0.04 0.00 1.24 -11.39 21.47 -3.54 0.84 2.06 1161
0.04 -0.00 1.41 -12.34 21.61 -3.49 1.08 2.09 1167
0.04 -0.00 1.23 -13.66 21.11 -3.46 1.38 2.11 1173
0.05 -0.01 0.45 -15.18 20.59 -3.44 1.79 2.14 1179
0.05 -0.00 -0.73 -16.66 19.78 -3.41 2.13 2.16 1185
0.05 -0.00 -2.11 -19.39 18.54 -3.37 2.24 2.17 1192
0.04 -0.00 -3.25 -20.91 16.18 -3.25 2.16 2.14 1199
0.04 -0.00 -4.24 -23.19 13.63 -3.04 1.96 2.07 1205
0.04 -0.00 -4.90 -25.32 11.60 -2.75 1.77 1.94 1211
0.04 -0.00 -5.42 -27.76 8.85 -2.41 1.63 1.75 1217
0.04 -0.00 -6.12 -30.38 6.59 -2.07 1.53 1.49 1224
0.05 -0.00 -6.73 -32.85 4.25 -1.70 1.46 1.14 1230
0.04 -0.00 -7.51 -34.59 2.75 -1.30 1.37 0.74 1236
0.03 -0.00 -8.31 -34.40 1.98 -0.86 1.27 0.34 1243
0.04 0.00 -8.72 -32.41 2.06 -0.37 1.02 -0.03 1249
0.05 -0.00 -8.68 -29.42 3.03 0.04 0.68 -0.35 1256
0.04 -0.00 -8.42 -26.02 4.71 0.47 0.15 -0.61 1262
0.04 0.01 -7.31 -22.63 6.20 0.79 -0.34 -0.77 1268
0.04 -0.00 -5.84 -29.24 -0.86 0.99 -0.93 -0.76 1274
0.03 -0.00 -13.93 -27.06 -4.55 4.00 -3.14 -0.42 1281
0.04 -0.00 -6.98 -11.64 8.17 3.42 -2.93 -0.15 1287
0.05 0.02 2.01 -11.61 -6.22 3.11 -3.52 -0.02 1294
0.03 0.11 5.41 -3.78 -2.75 2.71 -3.93 0.14 1300
0.04 0.25 7.51 -0.76 16.66 3.28 -2.66 0.71 1306
0.03 0.43 10.24 7.35 18.18 3.80 -0.57 1.58 1312
0.01 0.69 0.95 -1.38 17.88 4.24 -0.20 1.98 1319
0.01 0.92 -6.36 -3.21 32.10 4.28 -0.62 1.84 1326
0.00 1.07 -9.33 -6.58 27.38 4.27 -1.21 1.36 1332
0.01 1.19 -4.77 -4.99 24.36 4.09 -1.08 0.94 1338
0.00 1.20 -5.50 -3.43 23.26 3.58 -0.52 0.69 1344
-0.03 1.19 -7.26 -1.57 17.76 2.98 -0.38 0.24 1351
0.00 1.28 -3.06 -1.23 14.02 2.65 -0.48 -0.29 1357
-0.01 1.25 2.24 -0.91 11.80 2.69 -0.52 -0.50 1363
-0.01 1.26 4.43 -1.65 13.95 2.89 -0.55 -0.39 1370
0.00 1.27 2.57 -3.67 29.05 2.78 -1.47 -0.20 1377
-0.00 1.23 2.05 -2.02 14.36 0.87 -1.19 0.06 1383
-0.01 1.29 -0.09 -2.56 12.80 0.25 -0.46 0.12 1389
-0.02 1.35 -0.06 -1.47 10.53 0.04 -0.15 0.07 1395
-0.02 1.37 0.14 -0.91 10.12 0.00 -0.09 0.02 1401
-0.02 1.34 0.87 -1.15 9.97 -0.01 -0.07 0.00 1409
-0.00 1.35 0.64 -1.39 9.81 -0.02 -0.06 0.03 1415
0.02 1.34 0.76 -1.04 10.12 -0.02 -0.08 0.04 1421
-0.01 1.34 0.50 -0.80 9.96 -0.02 -0.06 0.03 1427
-0.00 1.31 0.63 -0.79 10.06 -0.01 -0.04 0.02 1433
0.01 1.27 0.76 -0.78 10.02 -0.01 -0.04 0.02 1439
0.01 1.23 0.80 -0.78 9.99 -0.01 -0.04 0.02 1446
0.03 1.17 0.71 -0.79 9.90 -0.00 -0.04 0.03 1453
0.04 1.09 0.66 -0.77 10.01 0.00 -0.04 0.02 1459
0.03 1.05 0.72 -0.76 9.92 0.01 -0.03 0.03 1465
0.09 0.94 0.75 -0.75 9.87 0.01 -0.02 0.03 1471
0.08 0.85 0.71 -0.86 10.07 0.02 -0.02 0.03 1477
0.08 0.74 0.74 -0.83 10.05 0.03 -0.02 0.04 1484
0.09 0.63 0.74 -0.82 9.98 0.04 -0.02 0.04 1490
0.07 0.57 0.72 -0.83 10.00 0.04 -0.02 0.05 1497
0.09 0.49 0.73 -0.83 9.99 0.05 -0.01 0.05 1503
0.10 0.40 0.68 -0.80 10.13 0.06 -0.01 0.05 1509
0.14 0.33 0.72 -0.84 10.04 0.06 -0.01 0.05 1515
0.12 0.31 0.77 -0.98 10.03 0.07 -0.00 0.05 1522
0.13 0.23 0.78 -0.76 9.97 0.07 -0.00 0.04 1528
0.15 0.15 0.73 -0.80 9.88 0.07 -0.01 0.03 1534
0.15 0.11 0.80 -0.87 10.05 0.07 -0.01 0.03 1541
0.14 0.10 0.75 -1.01 9.95 0.07 -0.01 0.03 1547
0.17 0.08 0.76 -0.92 10.00 0.07 -0.01 0.02 1553
0.20 0.06 0.78 -0.97 10.00 0.07 -0.02 0.02 1560
0.18 0.04 0.77 -0.92 10.02 0.07 -0.01 0.02 1566
0.23 0.00 0.68 -0.96 10.04 0.07 -0.01 0.02 1572
0.24 0.01 0.78 -0.92 9.98 0.07 -0.01 0.02 1579
0.25 -0.01 0.73 -1.11 9.88 0.08 -0.01 0.02 1585
0.27 -0.01 0.78 -0.89 10.11 0.09 -0.01 0.02 1591
0.27 -0.01 0.85 -0.89 10.01 0.11 -0.00 0.02 1597
0.27 -0.03 0.79 -0.95 10.06 0.12 -0.00 0.02 1604
0.29 -0.02 0.86 -0.96 10.06 0.13 -0.01 0.02 1610
0.30 -0.03 0.83 -1.03 10.10 0.15 -0.02 0.01 1616
0.30 -0.03 0.90 -1.03 10.05 0.16 -0.03 0.00 1623
0.32 -0.03 0.89 -1.09 9.97 0.17 -0.04 -0.01 1629
0.37 -0.02 0.87 -1.14 9.93 0.17 -0.05 -0.03 1635
0.40 -0.04 0.86 -1.16 9.90 0.17 -0.05 -0.04 1642
0.42 -0.03 0.81 -1.16 9.89 0.16 -0.06 -0.05 1648
0.51 -0.02 0.84 -1.14 9.91 0.15 -0.07 -0.06 1654
0.55 -0.04 0.89 -1.14 9.91 0.15 -0.07 -0.07 1660
0.57 -0.04 0.91 -1.23 10.02 0.15 -0.07 -0.08 1667
0.58 -0.02 0.97 -1.19 9.96 0.16 -0.08 -0.09 1673
0.59 -0.03 0.93 -1.22 9.89 0.17 -0.09 -0.11 1680
0.63 -0.05 0.87 -1.20 9.85 0.17 -0.09 -0.12 1686
0.71 -0.05 0.84 -1.24 9.83 0.17 -0.09 -0.14 1692
0.80 -0.05 0.84 -1.28 9.97 0.17 -0.09 -0.15 1698
0.88 -0.05 0.79 -1.25 10.15 0.20 -0.09 -0.15 1704
0.91 -0.05 0.85 -1.31 10.26 0.25 -0.08 -0.15 1711
1.02 -0.06 0.86 -1.35 10.41 0.34 -0.08 -0.16 1718
1.09 -0.07 0.89 -1.37 10.66 0.45 -0.09 -0.17 1724
1.16 -0.04 0.97 -1.55 10.66 0.57 -0.10 -0.19 1730
1.23 -0.07 0.86 -1.48 10.86 0.70 -0.12 -0.19 1736
1.28 -0.06 0.80 -1.54 11.10 0.81 -0.13 -0.20 1743
1.43 -0.07 0.94 -1.67 11.25 0.92 -0.16 -0.20 1750
1.50 -0.07 0.83 -1.70 11.40 1.04 -0.19 -0.20 1756
1.54 -0.06 0.75 -1.77 11.65 1.15 -0.25 -0.20 1762
1.66 -0.08 0.79 -1.88 11.99 1.27 -0.30 -0.18 1768
1.72 -0.07 0.82 -1.99 12.19 1.40 -0.35 -0.18 1775
1.76 -0.05 1.10 -2.05 12.30 1.54 -0.40 -0.18 1781
1.83 -0.08 0.91 -1.99 12.65 1.70 -0.46 -0.20 1787
1.87 -0.08 0.59 -1.85 12.65 1.85 -0.52 -0.19 1794
1.90 -0.06 0.70 -2.23 12.56 2.02 -0.59 -0.19 1801
1.93 -0.07 0.78 -2.34 12.94 2.13 -0.63 -0.19 1807
1.98 -0.06 -0.17 -1.15 12.57 2.28 -0.62 -0.20 1813
1.99 -0.08 2.40 -0.17 14.96 2.50 -0.67 -0.24 1819
1.99 -0.09 0.84 -2.76 13.88 2.84 -0.69 -0.18 1826
1.94 -0.06 0.46 -3.18 14.93 3.09 -0.72 -0.21 1832
1.91 -0.07 0.53 -2.92 15.57 3.43 -0.67 -0.19 1839
1.81 -0.07 -0.31 -2.79 15.71 3.71 -0.64 -0.20 1845
1.69 -0.06 0.77 -3.43 17.09 4.11 -0.60 -0.21 1851
1.55 -0.08 2.52 -3.13 17.36 4.28 -0.64 -0.28 1858
1.41 -0.05 3.16 -3.66 17.86 4.28 -0.83 -0.47 1864
1.24 -0.05 0.76 -6.67 18.96 4.28 -1.05 -0.69 1870
1.06 -0.04 3.40 -5.63 21.93 4.28 -1.37 -0.83 1876
0.95 -0.04 2.10 -7.70 25.32 4.28 -1.54 -0.97 1884
0.80 -0.04 1.35 -12.14 27.53 4.28 -1.68 -1.05 1890
0.67 -0.03 2.09 -14.62 35.15 4.28 -1.58 -1.06 1896
0.52 -0.03 2.10 -16.28 36.77 4.28 -1.28 -1.05 1903
0.38 -0.02 2.84 -13.94 31.01 4.28 -1.02 -1.07 1909
0.28 -0.02 1.67 -9.30 28.21 4.28 -0.71 -1.07 1915
0.22 -0.02 1.69 -5.38 31.11 4.28 -0.60 -1.06 1922
0.19 -0.01 2.77 -3.60 32.22 4.28 -0.84 -1.13 1928
0.14 -0.01 4.62 -0.78 30.97 4.28 -1.30 -1.26 1935
0.13 -0.01 7.47 3.46 30.04 4.28 -1.63 -1.31 1941
0.10 -0.00 10.45 7.38 29.32 4.28 -1.70 -1.37 1947
0.08 -0.01 11.03 10.56 28.14 4.28 -1.38 -1.40 1953
0.06 -0.01 11.54 14.06 18.28 4.28 -0.69 -1.55 1960
0.06 -0.01 7.93 16.37 13.31 4.28 -0.05 -2.01 1967
0.06 -0.01 8.82 21.80 0.10 3.93 -0.19 -2.49 1973
0.06 -0.01 8.90 22.93 15.98 1.88 0.21 -2.79 1979
0.05 -0.01 8.48 19.61 29.66 -0.40 1.36 -2.71 1985
0.03 -0.00 7.59 16.00 26.05 -2.11 2.01 -2.40 1992
0.04 -0.00 4.55 13.52 17.07 -3.20 1.98 -2.05 1998
0.05 -0.01 2.57 11.83 13.08 -3.87 1.67 -1.67 2004
0.05 -0.00 2.32 9.98 11.34 -4.19 1.47 -1.26 2011
0.04 -0.00 2.58 7.92 9.61 -4.27 1.31 -0.88 2017
0.06 -0.01 2.83 6.00 7.87 -4.27 1.21 -0.54 2023
0.06 -0.01 2.72 4.85 6.68 -4.25 1.14 -0.27 2030
0.04 -0.00 2.60 4.21 6.13 -4.20 1.12 -0.07 2036
0.05 -0.00 2.62 3.81 5.95 -4.12 1.11 0.09 2042
0.06 -0.01 2.65 3.21 6.06 -4.02 1.12 0.19 2049
0.06 -0.01 2.64 2.65 6.19 -3.96 1.16 0.25 2055
0.04 0.00 2.45 2.33 6.49 -3.90 1.23 0.28 2061
0.06 -0.01 2.26 2.26 7.09 -3.87 1.33 0.31 2067
0.05 -0.01 1.92 2.24 7.98 -3.85 1.36 0.34 2073
0.05 -0.00 1.53 2.33 8.82 -3.86 1.42 0.38 2080
0.05 -0.00 1.20 2.29 9.82 -3.90 1.47 0.43 2086
0.06 -0.01 0.95 2.30 10.20 -3.97 1.52 0.49 2093
0.05 -0.01 0.78 2.26 10.59 -4.05 1.51 0.55 2099
0.03 -0.00 0.78 2.06 11.01 -4.13 1.50 0.59 2105
0.06 -0.00 0.89 1.56 11.81 -4.20 1.48 0.63 2111
0.07 -0.01 1.14 0.97 12.72 -4.25 1.51 0.64 2117
0.06 -0.01 1.38 0.39 13.61 -4.27 1.57 0.64 2124
0.06 -0.00 1.65 -0.19 14.38 -4.28 1.67 0.62 2130
0.07 -0.01 1.76 -0.95 14.90 -4.28 1.80 0.58 2137
0.06 -0.01 1.81 -1.68 15.57 -4.28 1.97 0.53 2143
0.05 -0.00 1.62 -2.31 16.30 -4.28 2.17 0.49 2149
0.06 -0.01 1.39 -2.98 17.04 -4.28 2.40 0.46 2155
0.05 -0.00 0.95 -3.88 17.61 -4.28 2.61 0.45 2162
0.05 -0.01 0.54 -4.67 18.22 -4.28 2.80 0.48 2168
0.06 -0.01 -0.32 -5.20 18.92 -4.27 2.87 0.53 2174
0.05 -0.00 -0.84 -5.63 19.58 -4.26 2.86 0.60 2181
0.05 -0.00 -1.35 -5.97 20.06 -4.24 2.72 0.71 2187
0.06 -0.01 -1.48 -6.35 20.49 -4.21 2.48 0.81 2193
0.05 -0.01 -1.38 -6.62 20.71 -4.18 2.16 0.93 2200
0.04 -0.00 -1.18 -6.52 20.94 -4.14 1.84 1.06 2206
0.05 -0.01 -0.58 -6.44 21.46 -4.10 1.58 1.19 2212
0.04 -0.00 -0.31 -6.84 22.20 -4.04 1.42 1.29 2219
0.04 -0.00 -0.34 -7.67 22.66 -3.98 1.34 1.36 2225
0.06 0.00 -0.43 -8.75 23.25 -3.92 1.32 1.41 2231
0.06 -0.01 -0.49 -9.87 23.43 -3.87 1.35 1.43 2238
0.05 -0.00 -0.80 -11.36 23.46 -3.81 1.30 1.42 2244
0.07 -0.01 -1.04 -12.65 23.11 -3.73 1.32 1.39 2250
0.07 -0.01 -1.33 -13.95 22.91 -3.65 1.28 1.37 2256
0.06 -0.01 -1.37 -15.12 22.70 -3.56 1.23 1.33 2264
0.07 -0.01 -1.42 -16.12 22.36 -3.49 1.20 1.29 2270
0.06 -0.01 -1.62 -17.65 21.46 -3.45 1.28 1.27 2276
0.06 0.00 -2.29 -17.97 20.47 -3.42 1.51 1.33 2282
0.06 -0.01 -3.26 -20.06 19.17 -3.40 1.78 1.34 2289
0.05 -0.01 -4.55 -21.55 17.24 -3.34 1.87 1.38 2295
0.08 -0.01 -5.53 -24.17 14.20 -3.22 1.77 1.41 2301
0.07 -0.01 -6.45 -26.82 11.24 -2.99 1.55 1.44 2308
0.06 -0.01 -7.16 -29.30 7.81 -2.64 1.31 1.45 2314
0.07 -0.01 -7.59 -31.44 5.34 -2.20 1.11 1.40 2321
0.06 -0.01 -7.91 -33.32 3.34 -1.72 0.97 1.27 2327
0.06 -0.01 -8.10 -34.51 2.30 -1.22 0.83 1.06 2333
0.08 -0.01 -8.22 -34.05 2.29 -0.72 0.66 0.78 2339
0.07 -0.01 -8.13 -31.86 3.11 -0.34 0.48 0.47 2345
0.06 -0.01 -7.29 -38.27 -2.70 0.06 0.19 0.16 2352
0.07 -0.01 -9.67 -31.49 -1.83 2.62 -0.39 -0.01 2359
0.06 -0.01 -11.12 -25.91 7.01 2.55 -0.53 -0.14 2365
0.05 -0.00 -7.70 -23.44 0.74 2.91 -1.13 -0.29 2371
0.07 0.02 -4.92 -30.72 1.72 2.81 -2.26 -0.39 2377
0.06 0.09 -5.69 -22.14 -0.83 2.69 -3.40 -0.42 2383
0.06 0.20 2.55 4.46 9.48 3.07 -3.15 -0.29 2391
0.05 0.45 6.40 -3.82 24.35 3.95 -1.52 0.17 2397
0.02 0.74 6.13 2.23 22.27 4.28 -0.45 0.64 2403
0.02 1.00 -4.70 -3.86 26.38 4.28 -0.79 0.62 2409
0.01 1.18 -5.99 -5.15 27.78 4.28 -1.38 0.28 2415
0.00 1.35 0.03 -5.38 23.68 4.21 -1.06 0.15 2422
0.00 1.39 -1.88 -4.18 21.70 4.01 -0.42 0.13 2428
0.00 1.40 -3.27 -2.43 20.08 3.58 -0.36 -0.15 2435
-0.00 1.33 -0.04 -1.62 17.75 3.34 -0.65 -0.51 2441
0.01 1.33 5.04 -3.81 33.99 2.86 -1.66 -0.56 2448
-0.00 1.35 4.09 -2.17 14.18 0.91 -1.51 -0.11 2454
0.00 1.35 0.92 -3.01 13.49 0.38 -0.81 0.16 2460
0.01 1.33 0.02 -1.29 11.39 0.17 -0.37 0.20 2466
0.01 1.27 -0.23 -0.53 10.51 0.07 -0.16 0.12 2472
0.01 1.22 0.34 -0.81 10.27 0.02 -0.07 0.04 2480
0.02 1.20 1.03 -1.15 10.12 -0.00 -0.07 0.04 2486
0.01 1.21 1.03 -1.01 9.99 -0.01 -0.06 0.06 2492
0.01 1.26 0.68 -0.69 10.07 -0.01 -0.06 0.06 2498
0.03 1.23 0.62 -0.67 9.86 -0.01 -0.04 0.04 2504
0.03 1.14 0.84 -0.71 9.81 -0.01 -0.03 0.03 2510
0.05 1.06 0.90 -0.69 9.79 -0.01 -0.03 0.05 2518
0.06 0.97 0.71 -0.66 9.96 -0.00 -0.02 0.04 2524
0.07 0.94 0.71 -0.64 10.08 0.00 -0.02 0.04 2530
0.07 0.85 0.80 -0.73 10.19 0.01 -0.00 0.03 2536
0.10 0.82 0.81 -0.73 10.15 0.01 0.00 0.03 2542
0.11 0.69 0.81 -0.76 10.26 0.02 0.02 0.03 2548
0.09 0.66 0.85 -0.77 10.05 0.03 0.02 0.03 2555
0.11 0.65 0.82 -0.75 10.11 0.03 0.03 0.04 2562
0.11 0.58 0.85 -0.74 10.10 0.04 0.03 0.04 2568
0.11 0.47 0.83 -0.77 10.07 0.04 0.03 0.04 2574
0.12 0.37 0.86 -0.74 10.03 0.05 0.04 0.04 2580
0.14 0.32 1.07 -0.99 10.14 0.06 0.04 0.04 2587
0.13 0.31 0.97 -0.73 9.98 0.07 0.05 0.04 2593
0.15 0.26 1.04 -0.36 10.01 0.07 0.05 0.03 2599
0.17 0.15 1.01 -0.74 9.92 0.08 0.04 0.03 2606
0.18 0.12 1.10 -0.92 10.00 0.08 0.04 0.02 2612
0.20 0.11 1.01 -0.82 9.94 0.08 0.03 0.02 2618
0.22 0.06 0.88 -0.82 9.99 0.07 0.02 0.01 2624
0.21 0.03 0.88 -0.72 9.97 0.07 0.02 0.01 2631
0.21 0.04 0.90 -0.77 9.99 0.07 0.01 0.01 2637
0.23 0.02 0.89 -0.77 10.00 0.07 0.02 0.01 2643
0.23 0.00 0.82 -0.50 9.94 0.07 0.02 0.01 2650
0.25 -0.02 1.00 -0.84 10.08 0.09 0.02 0.01 2656
0.27 -0.01 0.97 -1.44 10.08 0.09 0.02 0.01 2662
0.29 -0.03 0.91 -0.84 10.04 0.10 0.03 0.01 2668
0.29 -0.03 0.96 -0.87 9.99 0.11 0.04 0.01 2675
0.31 -0.03 0.98 -0.89 10.00 0.12 0.03 0.00 2681
0.33 -0.01 1.01 -0.90 10.05 0.14 0.04 -0.00 2688
0.34 -0.02 1.02 -0.91 10.02 0.15 0.04 -0.01 2694
0.34 -0.03 1.04 -0.94 10.03 0.16 0.04 -0.02 2700
0.38 -0.03 1.08 -1.03 9.98 0.18 0.03 -0.03 2706
0.39 -0.02 1.12 -0.96 9.93 0.18 0.03 -0.03 2713
0.39 -0.03 1.11 -0.99 9.93 0.19 0.03 -0.04 2719
0.39 -0.02 1.07 -1.00 9.88 0.20 0.02 -0.05 2725
0.42 -0.04 1.11 -1.04 9.92 0.19 0.00 -0.06 2732
0.43 -0.04 1.02 -1.02 9.98 0.19 -0.01 -0.07 2738
0.47 -0.03 1.06 -1.08 9.92 0.18 -0.02 -0.08 2744
0.52 -0.03 1.06 -1.06 9.91 0.17 -0.05 -0.08 2750
0.52 -0.04 1.10 -1.07 9.83 0.15 -0.06 -0.09 2757
0.52 -0.03 1.11 -1.14 9.90 0.14 -0.07 -0.10 2763
0.58 -0.03 1.03 -1.16 9.86 0.13 -0.07 -0.10 2769
0.62 -0.04 0.95 -1.15 9.89 0.12 -0.07 -0.10 2776
0.64 -0.04 0.97 -1.17 9.99 0.13 -0.03 -0.10 2782
0.69 -0.03 0.93 -1.20 10.00 0.14 -0.06 -0.10 2788
0.71 -0.04 0.95 -1.17 10.09 0.16 -0.06 -0.09 2795
0.76 -0.04 0.95 -1.15 10.07 0.18 -0.05 -0.09 2801
0.81 -0.04 0.86 -1.20 9.98 0.20 -0.05 -0.08 2807
0.84 -0.04 0.93 -1.22 10.14 0.23 -0.04 -0.06 2813
0.89 -0.06 0.99 -1.23 10.15 0.26 -0.04 -0.05 2820
0.95 -0.05 1.01 -1.26 10.31 0.31 -0.04 -0.05 2827
1.00 -0.05 1.05 -1.30 10.49 0.38 -0.04 -0.06 2833
1.07 -0.06 1.16 -1.40 10.49 0.48 -0.05 -0.07 2839
1.15 -0.06 1.08 -1.41 10.65 0.58 -0.05 -0.08 2845
1.21 -0.06 1.27 -1.53 10.80 0.68 -0.07 -0.10 2852
1.28 -0.06 1.32 -1.55 11.11 0.82 -0.08 -0.12 2859
1.36 -0.06 1.47 -1.55 11.27 0.95 -0.11 -0.15 2865
1.38 -0.07 1.27 -1.57 11.59 1.10 -0.16 -0.18 2871
1.47 -0.06 1.30 -1.78 11.95 1.20 -0.21 -0.19 2877
1.52 -0.07 1.20 -1.90 12.41 1.36 -0.29 -0.19 2884
1.55 -0.06 1.02 -1.81 12.36 1.54 -0.33 -0.19 2890
1.59 -0.06 0.86 -1.97 12.73 1.72 -0.38 -0.17 2896
1.63 -0.08 0.63 -1.77 12.94 1.91 -0.43 -0.17 2903
1.71 -0.07 0.83 -1.34 12.88 2.10 -0.43 -0.17 2910
1.73 -0.07 0.94 -2.11 13.46 2.31 -0.44 -0.15 2916
1.73 -0.07 0.19 -3.06 13.28 2.49 -0.45 -0.16 2922
1.75 -0.06 0.86 -2.45 13.61 2.72 -0.45 -0.15 2928
1.72 -0.06 0.79 -2.43 14.15 2.99 -0.44 -0.16 2935
1.70 -0.06 0.84 -2.70 14.52 3.29 -0.42 -0.16 2941
1.71 -0.07 0.50 -2.60 15.01 3.60 -0.37 -0.15 2948
1.60 -0.07 0.95 -2.78 15.71 3.98 -0.33 -0.14 2954
1.46 -0.04 1.46 -2.99 16.09 4.22 -0.32 -0.17 2960
1.34 -0.06 2.10 -3.14 17.07 4.28 -0.35 -0.26 2967
1.27 -0.05 2.41 -3.36 17.95 4.28 -0.38 -0.39 2973
1.14 -0.05 2.68 -4.66 19.48 4.28 -0.56 -0.52 2979
0.94 -0.05 1.35 -4.57 19.95 4.28 -0.76 -0.61 2985
0.80 -0.04 2.16 -7.79 24.17 4.28 -1.00 -0.68 2993
0.70 -0.03 2.49 -11.69 27.02 4.28 -1.03 -0.74 2999
0.56 -0.03 2.79 -11.76 32.76 4.28 -0.96 -0.76 3005
0.52 -0.04 2.16 -16.04 35.12 4.28 -0.70 -0.69 3012
0.34 -0.03 2.74 -14.76 31.75 4.28 -0.43 -0.63 3018
0.31 -0.01 2.95 -11.36 28.45 4.28 -0.16 -0.65 3024
0.22 -0.01 1.30 -6.96 28.29 4.28 0.07 -0.68 3031
0.13 -0.01 1.41 -4.24 32.17 4.28 -0.01 -0.74 3037
0.15 -0.02 3.03 -2.50 33.21 4.28 -0.33 -0.81 3044
0.10 -0.01 6.08 1.54 32.90 4.28 -0.65 -0.88 3050
0.07 -0.01 8.39 6.37 31.89 4.28 -0.84 -0.95 3056
0.06 -0.01 9.10 10.75 30.87 4.28 -0.64 -0.97 3062
0.04 -0.00 9.25 16.17 20.40 4.28 -0.01 -1.04 3068
0.05 -0.00 6.11 19.83 17.48 4.28 0.73 -1.50 3076
0.05 -0.01 8.22 23.26 -5.13 3.92 0.94 -2.19 3082
0.05 -0.00 7.10 25.71 13.29 2.28 0.75 -2.68 3088
0.05 -0.00 6.79 22.01 31.02 -0.05 1.43 -2.72 3094
0.06 -0.01 6.31 17.85 29.18 -1.88 2.00 -2.59 3100
0.05 -0.00 3.22 15.35 19.27 -3.03 1.82 -2.39 3107
0.04 -0.00 1.30 14.20 15.74 -3.71 1.26 -2.12 3113
0.06 -0.01 0.90 12.85 13.81 -4.19 0.95 -1.77 3120
0.06 -0.01 1.83 10.92 11.38 -4.28 0.78 -1.42 3126
0.06 -0.00 2.62 8.87 9.57 -4.28 0.62 -1.16 3132
0.06 -0.01 2.92 7.15 8.77 -4.28 0.50 -0.96 3139
0.04 -0.00 2.78 5.90 8.36 -4.28 0.45 -0.79 3145
0.04 -0.00 2.64 5.06 8.18 -4.28 0.46 -0.62 3151
0.07 -0.01 2.71 4.50 8.18 -4.27 0.52 -0.48 3158
0.05 -0.00 2.98 4.14 8.30 -4.25 0.61 -0.39 3164
0.04 -0.00 3.04 3.82 8.57 -4.24 0.71 -0.30 3170
0.05 -0.00 2.91 3.79 9.07 -4.25 0.82 -0.23 3176
0.05 -0.01 2.78 3.62 9.57 -4.27 0.98 -0.16 3182
0.05 -0.01 2.65 3.21 10.15 -4.28 1.20 -0.09 3188
0.05 -0.00 1.91 2.60 11.12 -4.28 1.42 -0.01 3195
0.05 0.00 2.14 2.01 11.91 -4.28 1.59 0.07 3202
0.05 -0.01 1.61 1.61 12.78 -4.28 1.77 0.15 3208
0.04 -0.00 1.27 1.09 13.57 -4.28 1.90 0.23 3214
0.05 -0.00 0.86 0.53 14.20 -4.28 1.98 0.30 3220
0.05 -0.01 0.46 -0.05 14.73 -4.28 2.03 0.37 3226
0.04 -0.00 0.13 -0.60 15.41 -4.28 2.06 0.42 3233
0.05 -0.00 -0.01 -1.27 16.00 -4.28 2.09 0.46 3239
0.04 0.00 -0.23 -1.90 16.73 -4.28 2.12 0.48 3246
0.04 -0.00 -0.50 -2.61 17.49 -4.28 2.16 0.47 3252
0.03 -0.00 -0.71 -3.48 18.06 -4.28 2.23 0.44 3258
0.05 0.00 -0.88 -4.33 18.37 -4.28 2.22 0.40 3264
0.05 -0.01 -1.08 -4.75 18.78 -4.28 2.21 0.34 3271
0.04 -0.00 -1.30 -5.21 18.85 -4.28 2.15 0.33 3277
0.04 0.01 -1.47 -5.69 19.05 -4.28 2.12 0.30 3283
0.04 -0.00 -1.26 -6.33 19.54 -4.28 2.09 0.29 3290
0.03 -0.00 -1.25 -6.93 19.50 -4.26 2.06 0.29 3296
0.04 -0.00 -1.25 -7.53 19.51 -4.18 2.00 0.30 3302
0.05 -0.01 -1.20 -7.99 20.08 -4.01 1.92 0.31 3309
0.04 -0.00 -1.06 -8.32 20.93 -3.79 1.81 0.35 3315
0.04 -0.00 -0.86 -8.59 21.71 -3.56 1.71 0.40 3321
0.05 -0.00 -0.57 -9.01 22.34 -3.39 1.62 0.45 3328
0.04 -0.00 -0.21 -9.50 23.06 -3.28 1.50 0.51 3334
0.04 -0.00 0.04 -10.12 24.45 -3.24 1.32 0.59 3340
0.06 -0.01 0.03 -11.00 24.61 -3.24 1.13 0.70 3347
0.05 -0.00 0.15 -12.17 24.78 -3.29 0.93 0.82 3353
0.05 -0.00 0.25 -13.54 24.06 -3.34 0.74 0.95 3359
0.06 -0.01 -0.77 -20.98 29.93 -3.15 0.44 1.11 3365
0.04 -0.00 -1.79 -12.61 21.27 -2.56 0.40 1.31 3372
0.05 0.00 1.09 -12.72 10.77 -3.07 0.57 1.48 3379
0.05 -0.00 -0.91 -18.38 15.53 -3.25 0.88 1.70 3385
0.04 -0.00 -1.86 -20.47 20.20 -3.33 1.28 1.94 3391
0.04 -0.00 -1.94 -20.64 12.60 -3.24 1.51 2.05 3397
0.04 -0.00 -2.82 -24.62 12.96 -3.25 1.38 2.06 3404
0.04 -0.00 -3.81 -28.02 14.37 -3.20 1.17 2.07 3410
0.06 -0.01 -4.93 -30.01 10.50 -3.03 1.03 2.04 3417
0.05 -0.00 -5.08 -31.82 6.26 -2.70 1.04 1.95 3423
0.04 -0.00 -5.54 -33.96 3.12 -2.32 1.09 1.77 3429
0.07 -0.01 -6.18 -35.16 1.22 -1.88 1.16 1.52 3435
0.05 -0.01 -6.04 -42.28 0.88 -1.32 1.12 1.19 3442
0.04 -0.00 -8.74 -35.72 -6.84 0.40 1.30 0.78 3448
0.05 -0.01 -10.44 -40.10 -0.44 0.90 1.17 0.45 3454
0.06 -0.01 -8.91 -31.37 -0.39 1.94 0.58 0.13 3461
0.04 -0.00 -11.35 -30.97 1.08 2.41 -0.42 -0.16 3467
0.05 0.03 -11.13 -37.73 -1.00 2.53 -1.86 -0.43 3474
0.04 0.12 -10.52 -34.08 -8.00 2.45 -3.47 -0.63 3480
0.05 0.22 -0.18 2.52 1.60 3.19 -3.84 -0.65 3486
0.02 0.48 4.97 -3.55 29.05 4.20 -1.93 -0.30 3492
0.01 0.82 8.94 1.92 28.31 4.28 -0.73 0.19 3500
-0.01 1.21 -1.43 -2.86 31.65 4.28 -1.04 0.27 3506
-0.01 1.42 -1.03 -6.08 31.10 4.28 -1.30 0.08 3512
-0.02 1.56 1.75 -6.01 23.02 4.26 -0.93 0.16 3518
-0.01 1.64 -2.30 -3.86 23.93 4.05 -0.34 0.20 3524
-0.03 1.64 -3.72 -1.72 19.11 3.46 -0.45 -0.15 3531
-0.02 1.60 0.26 -1.35 15.83 3.09 -0.61 -0.48 3537
-0.01 1.55 4.43 -2.23 18.98 3.09 -0.86 -0.52 3544
-0.01 1.50 3.92 -1.84 21.40 2.13 -2.04 -0.33 3550
-0.01 1.47 3.21 -2.57 14.11 0.86 -1.42 0.08 3557
-0.00 1.43 0.07 -1.69 11.77 0.29 -0.59 0.20 3563
-0.02 1.38 -0.48 -0.63 11.25 0.08 -0.18 0.16 3569
0.01 1.33 -0.08 -0.83 10.42 0.01 -0.06 0.05 3575
-0.01 1.29 0.81 -0.89 9.86 -0.01 -0.02 0.03 3581
-0.02 1.23 1.16 -0.97 9.97 -0.01 -0.02 0.05 3589
-0.00 1.24 0.66 -0.83 10.08 -0.01 -0.03 0.06 3595
0.01 1.18 0.51 -0.61 10.10 -0.01 -0.03 0.04 3601
0.03 1.14 0.75 -0.71 10.01 -0.01 -0.02 0.03 3607
0.06 1.13 0.78 -0.72 9.89 -0.00 -0.01 0.03 3613
0.06 1.03 0.74 -0.68 9.89 0.00 -0.01 0.03 3619
0.04 0.92 0.62 -0.61 10.07 0.01 -0.00 0.03 3627
0.05 0.88 0.61 -0.69 10.20 0.01 0.00 0.03 3633
0.08 0.82 0.72 -0.71 10.23 0.02 0.01 0.03 3639
0.08 0.79 0.76 -0.70 10.14 0.03 0.01 0.03 3645
0.10 0.67 0.78 -0.72 10.06 0.04 0.01 0.04 3651
0.11 0.56 0.77 -0.75 9.97 0.04 0.01 0.04 3657
0.14 0.47 0.77 -0.70 9.98 0.04 0.01 0.04 3664
0.13 0.44 0.77 -0.69 9.99 0.05 0.01 0.04 3671
0.16 0.40 0.99 -0.88 10.20 0.06 0.01 0.03 3677
0.15 0.31 0.83 -0.70 10.03 0.06 0.01 0.03 3683
0.15 0.25 0.86 -0.68 9.96 0.07 0.01 0.03 3689
0.16 0.23 0.88 -0.98 10.10 0.07 0.02 0.02 3695
0.17 0.17 0.88 -0.14 10.00 0.08 0.01 0.02 3702
0.18 0.11 0.80 -0.76 9.96 0.08 0.01 0.01 3708
0.22 0.09 0.90 -0.70 9.98 0.08 -0.00 0.01 3715
0.24 0.07 0.90 -0.83 10.07 0.08 -0.00 0.00 3721
0.25 0.01 0.85 -0.87 9.94 0.08 -0.00 0.00 3727
0.27 0.01 0.75 -0.80 9.99 0.08 -0.01 0.00 3733
0.30 0.02 0.77 -1.10 9.89 0.08 -0.01 0.00 3739
0.33 -0.01 0.80 -0.83 9.89 0.09 -0.00 0.00 3745
0.35 -0.03 0.80 -0.49 9.95 0.10 0.00 0.00 3751
0.37 -0.03 0.89 -0.91 10.19 0.10 0.00 0.00 3759
0.39 -0.02 0.89 -0.85 10.04 0.11 0.02 0.00 3765
0.39 -0.03 0.87 -0.92 10.08 0.12 0.02 -0.00 3771
0.39 -0.02 0.89 -0.91 10.09 0.14 0.02 -0.01 3777
0.41 -0.03 0.91 -0.91 10.06 0.15 0.03 -0.01 3783
0.40 -0.03 0.95 -0.93 10.11 0.17 0.03 -0.02 3790
0.42 -0.03 0.99 -0.95 10.04 0.19 0.04 -0.03 3796
0.45 -0.03 0.90 -0.98 10.10 0.21 0.04 -0.04 3803
0.46 -0.04 0.96 -1.03 10.00 0.23 0.03 -0.04 3809
0.50 -0.03 1.05 -0.63 10.00 0.25 0.03 -0.05 3815
0.53 -0.04 0.88 -1.12 9.96 0.25 0.02 -0.06 3822
0.50 -0.04 1.02 -1.03 9.91 0.24 0.01 -0.07 3828
0.53 -0.04 0.94 -1.06 9.87 0.23 0.00 -0.07 3834
0.56 -0.03 0.91 -1.13 9.83 0.21 -0.01 -0.08 3841
0.58 -0.03 0.95 -1.15 9.84 0.19 -0.03 -0.08 3847
0.60 -0.04 0.99 -1.16 9.81 0.16 -0.04 -0.08 3853
0.63 -0.02 0.96 -1.17 9.83 0.13 -0.05 -0.09 3859
0.68 -0.04 0.91 -1.18 9.84 0.11 -0.05 -0.09 3866
0.69 -0.05 0.97 -1.14 9.93 0.10 -0.05 -0.09 3872
0.71 -0.04 0.97 -1.16 9.98 0.11 -0.06 -0.09 3878
0.73 -0.04 0.92 -1.19 10.04 0.13 -0.05 -0.10 3885
0.77 -0.05 0.93 -1.21 10.00 0.15 -0.05 -0.09 3891
0.83 -0.04 0.88 -1.20 10.20 0.18 -0.05 -0.09 3898
0.89 -0.06 0.85 -1.23 10.24 0.23 -0.06 -0.08 3904
0.94 -0.06 0.88 -1.23 10.23 0.28 -0.06 -0.08 3910
1.00 -0.03 0.94 -1.29 10.31 0.35 -0.07 -0.07 3916
1.02 -0.06 0.98 -1.35 10.38 0.42 -0.07 -0.08 3922
1.07 -0.06 0.96 -1.51 10.53 0.50 -0.06 -0.09 3930
1.16 -0.05 0.89 -1.45 10.63 0.58 -0.06 -0.09 3936
1.20 -0.05 1.15 -1.52 10.92 0.72 -0.05 -0.10 3942
1.26 -0.05 1.22 -1.64 11.26 0.82 -0.07 -0.12 3948
1.32 -0.06 1.21 -1.67 11.27 0.97 -0.08 -0.14 3954
1.37 -0.06 1.10 -1.68 11.88 1.13 -0.12 -0.15 3961
1.41 -0.06 1.18 -1.95 11.91 1.28 -0.17 -0.16 3968
1.51 -0.05 0.97 -1.86 11.98 1.42 -0.27 -0.16 3974
1.56 -0.06 0.90 -2.38 12.42 1.56 -0.28 -0.16 3980
1.60 -0.06 0.97 -1.96 12.80 1.71 -0.33 -0.16 3987
1.68 -0.07 0.85 -1.96 12.45 1.92 -0.36 -0.15 3993
1.68 -0.07 0.81 -2.45 13.13 2.10 -0.41 -0.16 3999
1.73 -0.07 0.89 -2.34 12.81 2.28 -0.44 -0.16 4005
1.77 -0.09 0.89 -2.23 13.25 2.48 -0.45 -0.17 4013
1.77 -0.06 0.81 -2.52 13.49 2.69 -0.46 -0.18 4019
1.73 -0.06 0.95 -2.58 13.76 2.97 -0.45 -0.19 4025
1.70 -0.06 0.87 -2.74 13.50 3.25 -0.41 -0.20 4031
1.67 -0.07 0.96 -2.89 14.00 3.56 -0.37 -0.22 4037
1.59 -0.06 0.97 -2.94 14.17 3.88 -0.31 -0.25 4044
1.53 -0.06 1.13 -2.62 14.55 4.16 -0.25 -0.28 4050
1.41 -0.05 0.73 -2.89 16.08 4.28 -0.24 -0.29 4057
1.27 -0.06 1.70 -1.45 17.54 4.28 -0.33 -0.30 4063
1.07 -0.03 2.29 -4.22 18.95 4.28 -0.42 -0.35 4070
0.99 -0.04 3.16 -6.18 20.23 4.28 -0.59 -0.48 4076
0.81 -0.04 2.54 -7.38 23.01 4.28 -0.76 -0.60 4082
0.72 -0.03 2.25 -9.76 28.06 4.28 -0.86 -0.73 4088
0.63 -0.03 1.99 -13.63 33.02 4.28 -0.84 -0.71 4096
0.50 -0.02 4.10 -12.66 33.01 4.28 -0.67 -0.67 4102
0.42 -0.02 3.31 -15.21 30.83 4.28 -0.41 -0.66 4108
0.29 -0.01 3.00 -11.75 29.39 4.28 -0.16 -0.71 4114
0.25 -0.02 2.85 -8.53 28.41 4.28 0.05 -0.76 4121
0.22 -0.02 1.77 -5.79 30.02 4.28 0.07 -0.85 4127
0.14 -0.01 3.33 -3.45 33.15 4.28 -0.11 -0.94 4133
0.10 -0.01 5.74 -0.68 32.59 4.28 -0.48 -1.05 4140
0.10 -0.01 8.50 4.05 31.60 4.28 -0.69 -1.10 4146
0.07 -0.01 9.29 8.69 30.77 4.28 -0.56 -1.10 4152
0.06 -0.01 10.88 15.02 22.42 4.28 0.03 -1.11 4159
0.03 -0.00 11.88 21.84 18.79 4.28 0.78 -1.41 4165
0.04 -0.00 6.75 20.54 0.37 4.09 1.48 -2.08 4171
0.06 -0.01 7.98 23.27 0.62 3.04 1.30 -2.82 4177
0.07 -0.01 7.77 20.36 24.43 1.14 1.69 -3.01 4185
0.05 -0.00 7.14 18.14 32.34 -1.01 2.29 -2.82 4191
0.03 -0.00 3.52 16.91 22.92 -2.51 2.14 -2.54 4197
0.05 -0.00 1.15 14.60 16.60 -3.41 1.41 -2.19 4203
0.05 0.00 -0.29 12.24 13.92 -4.12 0.68 -1.75 4209
0.03 -0.00 0.51 10.01 12.33 -4.28 0.19 -1.32 4216
0.03 -0.00 1.95 7.92 10.55 -4.28 -0.22 -1.01 4222
0.06 -0.01 2.87 6.16 8.89 -4.28 -0.59 -0.80 4229
0.04 -0.00 3.33 4.90 7.82 -4.28 -0.81 -0.65 4235
0.05 -0.00 3.94 4.23 7.16 -4.28 -0.85 -0.52 4241
0.04 -0.00 4.77 3.53 6.97 -4.28 -0.78 -0.44 4247
0.05 -0.01 5.35 3.02 7.20 -4.28 -0.60 -0.36 4253
0.03 -0.00 5.87 2.58 7.62 -4.28 -0.34 -0.29 4259
0.03 -0.00 6.01 2.36 8.16 -4.28 -0.07 -0.25 4267
0.04 -0.00 5.86 2.26 8.81 -4.28 0.20 -0.20 4273
0.06 -0.01 5.59 2.09 9.27 -4.28 0.42 -0.13 4279
0.04 -0.00 5.09 1.71 9.76 -4.28 0.68 -0.04 4285
0.03 -0.00 4.67 1.01 9.83 -4.28 0.95 0.01 4291
0.04 -0.00 4.35 0.11 10.40 -4.28 1.18 0.10 4297
0.05 -0.01 3.97 -0.78 11.04 -4.28 1.33 0.19 4303
0.04 -0.00 3.58 -1.37 11.87 -4.28 1.42 0.29 4310
0.04 -0.00 3.37 -1.88 13.17 -4.28 1.48 0.38 4317
0.05 -0.01 3.08 -2.29 14.18 -4.28 1.51 0.47 4323
0.05 -0.00 2.93 -2.72 15.14 -4.28 1.57 0.54 4329
0.04 -0.00 3.06 -3.67 15.99 -4.28 1.63 0.58 4335
0.05 -0.00 3.25 -3.59 16.83 -4.28 1.72 0.60 4341
0.04 -0.00 2.55 -4.97 16.67 -4.28 1.81 0.60 4347
0.04 -0.00 2.13 -5.37 16.67 -4.28 2.02 0.64 4355
0.03 0.00 2.19 -6.05 19.09 -4.28 2.00 0.62 4361
0.04 -0.00 2.81 -6.91 18.93 -4.28 2.06 0.59 4367
0.04 -0.00 2.07 -7.67 19.29 -4.28 2.14 0.55 4373
0.04 -0.00 1.83 -8.03 19.07 -4.28 2.23 0.57 4379
0.05 -0.00 1.66 -8.19 18.94 -4.28 2.25 0.60 4385
0.04 -0.00 1.41 -8.33 18.94 -4.27 2.22 0.64 4392
0.04 -0.00 1.36 -8.48 18.56 -4.19 2.16 0.67 4399
0.06 -0.00 1.40 -8.66 18.53 -4.02 2.08 0.77 4405
0.04 -0.00 1.30 -8.93 19.06 -3.74 2.00 0.79 4411
0.04 -0.00 1.18 -9.02 20.46 -3.46 1.95 0.86 4417
0.05 -0.01 0.98 -9.30 22.07 -3.26 1.92 0.93 4423
0.05 -0.00 0.60 -9.51 23.44 -3.13 1.88 0.99 4430
0.04 -0.00 0.03 -9.98 24.62 -3.12 1.83 1.05 4436
0.05 -0.00 -0.65 -10.69 25.27 -3.19 1.74 1.10 4443
0.04 -0.00 -0.97 -11.58 25.01 -3.33 1.61 1.13 4449
0.03 -0.00 -0.90 -12.59 23.93 -3.49 1.50 1.15 4455
0.05 -0.01 -0.73 -13.60 22.51 -3.62 1.34 1.17 4462
0.05 -0.00 -0.33 -14.67 20.94 -3.65 1.32 1.18 4468
0.04 -0.00 -0.02 -16.17 19.51 -3.60 1.30 1.18 4474
0.05 -0.00 0.09 -17.48 18.19 -3.48 1.31 1.18 4481
0.05 -0.00 -0.04 -18.75 17.10 -3.29 1.33 1.19 4487
0.05 -0.00 -0.50 -19.63 15.44 -3.08 1.42 1.27 4494
0.05 -0.00 -1.48 -20.49 13.22 -2.86 1.60 1.32 4500
0.03 -0.00 -3.15 -21.33 11.08 -2.60 1.83 1.44 4506
0.05 -0.01 -5.40 -22.50 10.21 -2.30 2.10 1.62 4512
0.04 -0.00 -7.15 -24.73 9.42 -1.99 2.24 1.75 4519
0.03 -0.00 -8.70 -27.00 8.45 -1.68 2.02 1.80 4526
0.05 -0.01 -9.69 -29.02 6.58 -1.38 1.55 1.74 4532
0.05 -0.00 -9.84 -29.72 4.77 -1.07 1.04 1.60 4538
0.04 -0.00 -9.30 -29.38 3.71 -0.81 0.62 1.40 4544
0.05 0.00 -8.94 -28.62 4.04 -0.46 0.33 1.15 4550
0.04 -0.00 -8.05 -27.04 4.56 -0.09 0.10 0.86 4557
0.03 -0.00 -8.05 -25.11 5.76 0.24 -0.08 0.54 4563
0.04 -0.00 -7.38 -22.38 7.08 0.50 -0.34 0.28 4570
0.06 -0.01 -6.57 -21.26 1.44 0.66 -0.62 -0.00 4576
0.04 -0.00 -15.65 -27.10 46.13 3.87 -1.84 -0.00 4582
0.04 -0.00 -9.61 -12.86 12.18 3.26 -1.69 0.10 4588
0.04 0.02 -4.00 -16.86 -3.67 3.04 -2.33 0.04 4595
0.04 0.09 -0.31 -13.50 -4.91 2.64 -3.45 -0.06 4601
0.03 0.21 2.50 3.36 11.31 3.12 -3.02 0.17 4608
0.01 0.43 7.25 5.15 18.03 3.82 -0.94 0.82 4614
-0.01 0.67 3.76 0.94 14.65 4.23 0.02 1.29 4621
0.00 0.98 -6.68 -5.82 25.31 4.28 -0.26 1.20 4627
-0.01 1.25 -9.96 -6.06 28.90 4.28 -0.95 0.64 4633
-0.01 1.43 -2.27 -5.82 26.01 4.28 -1.00 0.15 4639
-0.02 1.46 -1.49 -4.04 23.24 4.26 -0.61 0.02 4645
-0.02 1.49 -2.91 -2.86 21.87 3.90 -0.49 -0.21 4653
-0.03 1.55 0.40 -2.44 18.98 3.46 -0.63 -0.50 4659
-0.03 1.49 4.93 -4.05 29.07 3.26 -1.38 -0.54 4665
-0.03 1.48 4.08 -2.19 17.54 1.52 -1.94 -0.21 4671
-0.00 1.46 0.95 -2.77 13.76 0.65 -1.14 0.13 4678
-0.01 1.42 -0.17 -1.49 11.80 0.29 -0.62 0.19 4684
-0.01 1.42 -0.59 -0.69 10.79 0.13 -0.28 0.12 4690
-0.02 1.41 0.09 -0.92 10.57 0.04 -0.14 0.03 4697
-0.02 1.38 0.39 -1.63 9.85 0.00 -0.10 0.06 4703
-0.02 1.37 0.93 -1.36 10.10 -0.01 -0.10 0.05 4710
-0.00 1.40 0.52 -0.82 10.13 -0.02 -0.09 0.05 4716
-0.02 1.41 0.50 -0.76 10.01 -0.02 -0.07 0.03 4722
-0.02 1.40 0.68 -0.80 9.97 -0.02 -0.06 0.03 4728
0.01 1.31 0.76 -0.70 10.05 -0.01 -0.06 0.03 4734
0.01 1.21 0.69 -0.71 10.03 -0.02 -0.07 0.03 4742
0.04 1.17 0.68 -0.76 9.99 -0.01 -0.07 0.02 4748
0.06 1.14 0.62 -0.77 9.99 -0.01 -0.07 0.03 4754
0.09 0.97 0.58 -0.79 10.11 -0.00 -0.06 0.03 4760
0.10 0.88 0.60 -0.73 10.18 0.00 -0.05 0.03 4766
0.10 0.82 0.68 -0.75 10.14 0.02 -0.04 0.03 4772
0.10 0.74 0.68 -0.73 10.10 0.03 -0.03 0.03 4780
0.12 0.72 0.63 -0.74 10.07 0.03 -0.03 0.03 4786
0.14 0.59 0.62 -0.69 10.08 0.04 -0.02 0.03 4792
0.13 0.50 0.68 -0.61 10.08 0.04 -0.02 0.04 4798
0.14 0.40 0.70 -0.94 10.03 0.05 -0.01 0.04 4804
0.15 0.39 0.68 -0.72 10.04 0.05 -0.01 0.04 4811
0.13 0.32 0.86 -0.77 10.08 0.06 0.00 0.03 4817
0.16 0.27 0.65 -0.78 9.98 0.06 0.00 0.03 4824
0.19 0.17 0.76 -0.81 9.93 0.07 0.01 0.02 4830
0.19 0.12 0.69 -0.71 10.02 0.06 0.01 0.02 4836
0.21 0.09 0.74 -0.87 9.89 0.06 0.01 0.02 4842
0.21 0.10 0.82 -0.98 10.05 0.06 0.01 0.01 4848
0.22 0.06 0.79 -0.80 9.96 0.06 0.01 0.01 4855
0.22 0.01 0.71 -0.87 9.99 0.06 0.00 0.01 4861
0.23 0.04 0.67 -0.88 9.93 0.05 0.00 0.01 4868
0.26 0.02 0.65 -0.79 10.01 0.05 -0.00 0.02 4874
0.26 0.01 0.74 -0.80 10.05 0.05 0.01 0.01 4880
0.27 -0.01 0.67 -0.86 10.03 0.05 0.00 0.01 4886
0.30 -0.02 0.86 -0.92 10.05 0.05 0.00 0.02 4893
0.31 -0.01 0.72 -0.77 10.11 0.06 0.01 0.02 4899
0.32 0.00 0.76 -0.92 10.00 0.06 0.00 0.01 4905
0.34 -0.00 0.71 -0.94 9.87 0.06 0.00 0.02 4912
0.34 -0.03 0.79 -0.99 9.99 0.07 -0.00 0.00 4918
0.34 -0.03 0.75 -0.93 9.93 0.07 -0.01 -0.00 4924
0.37 -0.03 0.85 -0.98 9.97 0.07 -0.01 -0.01 4930
0.39 -0.04 0.83 -0.90 9.97 0.07 -0.01 -0.02 4936
0.35 -0.04 0.80 -1.01 9.90 0.06 -0.01 -0.03 4942
0.39 -0.04 0.75 -0.93 9.93 0.06 -0.02 -0.03 4950
0.40 -0.03 0.74 -1.00 9.90 0.05 -0.02 -0.03 4956
0.46 -0.04 0.80 -0.97 9.93 0.04 -0.02 -0.04 4962
0.46 -0.04 0.74 -0.95 9.98 0.04 -0.03 -0.04 4968
0.49 -0.03 0.75 -0.95 9.96 0.00 -0.03 -0.04 4974
0.54 -0.03 0.77 -0.94 9.97 0.03 -0.03 -0.04 4980
0.54 -0.03 0.75 -0.97 9.99 0.03 -0.03 -0.04 4986
0.60 -0.05 0.77 -0.95 10.00 0.04 -0.04 -0.04 4994
0.65 -0.04 0.78 -0.97 10.06 0.05 -0.04 -0.04 5000
0.71 -0.04 0.86 -1.01 10.14 0.08 -0.05 -0.04 5006
0.74 -0.05 0.88 -1.03 10.20 0.14 -0.05 -0.05 5012
0.80 -0.04 0.88 -1.03 10.26 0.20 -0.04 -0.06 5018
0.86 -0.05 0.76 -1.01 10.37 0.28 -0.04 -0.07 5025
0.93 -0.05 0.71 -0.94 10.70 0.40 -0.03 -0.08 5031
1.03 -0.05 0.89 -1.20 10.75 0.56 -0.02 -0.09 5038
1.13 -0.06 0.90 -1.25 10.83 0.76 -0.00 -0.11 5044
1.20 -0.07 0.99 -1.33 11.03 0.95 -0.01 -0.13 5050
1.25 -0.05 0.99 -1.49 11.78 1.12 -0.03 -0.15 5057
1.34 -0.07 0.99 -1.55 11.67 1.26 -0.09 -0.17 5063
1.40 -0.07 1.06 -1.63 11.94 1.40 -0.14 -0.17 5069
1.49 -0.07 0.98 -1.56 12.36 1.52 -0.22 -0.17 5075
1.55 -0.08 0.80 -1.62 12.34 1.65 -0.27 -0.17 5083
1.65 -0.05 0.86 -1.76 12.45 1.77 -0.34 -0.16 5089
1.67 -0.06 0.86 -1.92 13.16 1.91 -0.38 -0.15 5095
1.72 -0.06 0.66 -1.92 13.13 2.08 -0.41 -0.15 5101
1.77 -0.05 0.74 -3.21 12.37 2.26 -0.47 -0.14 5108
1.77 -0.06 0.80 -1.97 13.10 2.41 -0.49 -0.14 5114
1.80 -0.06 0.90 -2.44 13.00 2.56 -0.47 -0.15 5121
1.80 -0.07 0.50 -2.98 13.54 2.77 -0.50 -0.15 5127
1.79 -0.07 0.84 -2.61 14.33 3.04 -0.50 -0.15 5133
1.71 -0.06 0.85 -2.58 13.76 3.34 -0.46 -0.16 5140
1.66 -0.05 0.67 -3.01 14.51 3.66 -0.40 -0.18 5146
1.55 -0.06 0.35 -2.67 15.06 4.00 -0.31 -0.19 5152
1.47 -0.07 0.63 -2.53 16.56 4.25 -0.28 -0.20 5158
1.33 -0.06 1.81 -3.59 17.96 4.28 -0.34 -0.22 5166
1.16 -0.05 2.79 -3.96 17.44 4.28 -0.58 -0.34 5172
1.02 -0.05 3.17 -4.77 20.12 4.28 -0.76 -0.51 5178
0.91 -0.05 2.41 -6.82 22.34 4.28 -0.98 -0.67 5184
0.80 -0.03 1.92 -8.76 26.44 4.28 -1.18 -0.78 5191
0.67 -0.04 3.81 -8.39 28.47 4.28 -1.23 -0.86 5197
0.56 -0.03 3.13 -15.19 34.45 4.28 -1.13 -0.84 5203
0.41 -0.03 3.13 -15.72 34.14 4.28 -0.88 -0.82 5210
0.35 -0.02 3.25 -13.67 31.02 4.28 -0.64 -0.85 5217
0.29 -0.02 2.87 -9.92 28.98 4.28 -0.38 -0.89 5223
0.22 -0.02 1.64 -5.91 29.15 4.28 -0.31 -0.92 5229
0.15 -0.02 1.31 -3.74 31.26 4.28 -0.50 -0.98 5235
0.14 -0.01 3.43 -0.69 30.79 4.28 -0.95 -1.04 5241
0.08 -0.01 6.17 3.19 30.51 4.28 -1.34 -1.07 5249
0.08 -0.01 8.95 7.10 31.07 4.28 -1.40 -1.08 5255
0.06 -0.01 10.62 10.41 28.61 4.28 -1.15 -1.07 5261
0.05 -0.00 11.63 17.07 21.17 4.28 -0.57 -1.20 5267
0.05 -0.00 7.62 17.91 13.38 4.28 0.26 -1.65 5274
0.05 -0.00 9.57 21.96 -0.90 4.17 0.50 -2.19 5280
0.05 -0.00 9.60 24.29 15.51 2.61 0.67 -2.47 5286
0.05 -0.00 8.42 21.77 29.13 0.30 1.49 -2.40 5293
0.05 -0.01 6.84 18.15 27.12 -1.53 1.96 -2.11 5299
0.04 -0.00 3.84 15.66 20.25 -2.70 1.71 -1.79 5306
0.06 -0.01 2.13 14.34 16.37 -3.51 1.17 -1.42 5312
0.04 -0.00 1.58 12.93 13.90 -4.14 0.72 -1.02 5318
0.05 -0.00 2.27 10.97 12.45 -4.28 0.44 -0.67 5324
0.06 -0.01 3.34 8.99 10.84 -4.28 0.24 -0.41 5330
0.05 -0.01 3.75 7.48 9.78 -4.28 0.11 -0.24 5338
0.04 -0.00 3.85 6.12 8.95 -4.28 0.11 -0.10 5344
0.05 -0.01 3.86 5.09 8.58 -4.28 0.22 -0.01 5350
0.05 -0.01 3.94 3.75 8.74 -4.28 0.35 0.06 5356
0.06 -0.01 4.26 3.61 9.10 -4.28 0.54 0.09 5362
0.05 0.00 4.37 3.06 9.50 -4.28 0.76 0.10 5368
0.06 0.00 4.28 2.72 9.91 -4.28 0.98 0.09 5374
0.06 -0.01 3.77 2.62 10.17 -4.28 1.20 0.08 5381
0.06 -0.01 3.12 2.38 10.33 -4.28 1.42 0.09 5388
0.06 -0.00 2.55 1.81 10.60 -4.28 1.61 0.12 5394
0.05 -0.00 2.18 0.98 11.35 -4.28 1.76 0.16 5400
0.05 -0.00 1.91 0.28 12.65 -4.28 1.78 0.19 5406
0.04 0.00 1.24 -0.23 13.63 -4.28 1.77 0.23 5412
0.05 -0.00 0.66 -0.80 14.53 -4.28 1.74 0.27 5419
0.05 -0.00 0.38 -1.31 15.39 -4.28 1.70 0.32 5426
0.05 -0.00 0.28 -1.66 16.10 -4.28 1.66 0.36 5432
0.05 -0.01 0.52 -2.06 16.39 -4.28 1.66 0.36 5438
0.04 -0.00 0.71 -2.53 16.77 -4.28 1.72 0.32 5444
0.04 -0.00 0.87 -3.26 17.32 -4.28 1.85 0.26 5450
0.05 -0.01 0.79 -4.34 17.92 -4.28 2.04 0.18 5456
0.05 -0.00 0.04 -5.32 18.93 -4.28 2.26 0.12 5464
0.03 -0.00 0.31 -6.27 19.12 -4.28 2.36 0.04 5470
0.04 0.01 -0.02 -6.51 19.07 -4.28 2.51 0.02 5476
0.04 -0.00 -0.29 -6.70 19.18 -4.28 2.57 0.03 5482
0.04 -0.00 -0.63 -6.80 19.19 -4.26 2.58 0.10 5488
0.03 0.00 -0.79 -6.90 19.19 -4.18 2.52 0.21 5494
0.05 -0.00 -1.00 -7.00 19.56 -4.03 2.37 0.35 5501
0.04 -0.00 -1.26 -7.26 20.02 -3.83 2.17 0.51 5508
0.04 0.00 -1.10 -7.81 20.43 -3.61 1.94 0.66 5514
0.05 -0.00 -1.01 -8.46 21.48 -3.42 1.67 0.82 5520
0.04 -0.00 -1.19 -9.03 22.52 -3.28 1.36 0.97 5526
0.05 -0.00 -1.29 -9.47 23.45 -3.18 1.07 1.12 5532
0.04 -0.00 -0.91 -9.96 24.13 -3.15 0.81 1.24 5539
0.04 -0.00 -0.18 -11.00 24.32 -3.19 0.57 1.31 5545
0.04 -0.00 0.79 -11.05 24.05 -3.29 0.47 1.37 5552
0.05 -0.00 1.85 -11.99 23.72 -3.41 0.56 1.41 5558
0.04 -0.00 2.40 -13.54 23.09 -3.50 0.80 1.44 5564
0.05 0.00 1.20 -24.36 22.81 -3.41 1.04 1.51 5571
0.04 -0.00 3.96 -13.11 18.14 -3.17 1.47 1.59 5577
0.04 -0.00 0.54 -14.35 11.96 -3.50 1.87 1.70 5583
0.04 -0.00 -0.64 -18.18 19.00 -3.55 2.21 1.87 5590
0.04 -0.00 -3.46 -21.55 19.13 -3.47 2.26 2.02 5597
0.04 -0.00 -4.85 -25.41 18.08 -3.18 2.09 2.09 5603
0.06 -0.01 -6.04 -28.25 14.46 -2.83 1.69 2.10 5609
0.05 -0.01 -6.68 -29.65 9.57 -2.55 1.25 2.05 5615
0.05 -0.00 -6.93 -31.30 5.21 -2.30 0.97 1.91 5621
0.07 -0.01 -6.62 -33.44 2.61 -2.01 0.80 1.68 5627
0.05 -0.00 -7.16 -34.49 -0.97 -1.65 0.76 1.39 5635
0.03 -0.00 -7.20 -35.15 2.52 -1.17 0.70 1.02 5641
0.05 -0.01 -7.34 -33.97 2.90 -0.65 0.59 0.68 5647
0.04 -0.00 -7.09 -30.93 3.38 -0.15 0.36 0.26 5653
0.03 -0.00 -9.59 -48.36 43.93 1.52 -0.50 -0.08 5659
0.04 -0.00 -3.49 -25.28 0.48 2.62 -0.44 -0.17 5665
0.04 -0.00 -5.33 -20.24 -0.82 2.69 -0.96 -0.35 5672
0.03 0.00 -3.46 -28.15 3.24 2.79 -2.08 -0.42 5679
0.03 0.10 -3.56 -32.50 0.02 2.58 -3.22 -0.28 5685
0.03 0.17 4.42 1.96 -1.85 2.71 -3.57 0.02 5691
0.01 0.33 8.68 -6.10 18.57 3.45 -1.96 0.58 5697
0.02 0.64 9.88 4.49 24.85 4.27 0.06 1.34 5704
0.00 0.91 -6.28 -2.68 25.80 4.28 -0.26 1.45 5710
-0.02 1.24 -11.67 -7.02 31.78 4.28 -1.16 0.93 5716
-0.01 1.41 -4.00 -4.96 23.72 4.28 -1.15 0.44 5723
0.00 1.52 -4.43 -4.37 23.74 4.23 -0.49 0.22 5730
-0.01 1.56 -5.88 -2.16 21.16 3.83 -0.19 -0.20 5736
-0.02 1.54 -2.02 -1.45 17.45 3.34 -0.43 -0.69 5742
-0.02 1.52 3.96 -1.94 16.61 3.22 -0.55 -0.76 5748
-0.02 1.53 5.93 -3.56 30.97 3.00 -1.47 -0.53 5755
-0.01 1.49 4.25 -2.81 14.52 1.30 -1.95 -0.04 5762
-0.02 1.41 0.39 -2.23 12.85 0.59 -1.12 0.18 5768
-0.00 1.36 0.54 -1.06 11.34 0.25 -0.55 0.16 5774
-0.02 1.38 -0.22 -0.57 10.60 0.08 -0.22 0.06 5780
-0.01 1.34 0.63 -1.05 9.88 0.03 -0.13 0.01 5787
-0.02 1.31 1.22 -1.17 10.08 0.00 -0.10 0.04 5793
-0.04 1.32 0.89 -1.03 10.04 0.01 -0.10 0.05 5799
-0.01 1.31 0.43 -0.73 10.10 -0.01 -0.07 0.04 5806
-0.01 1.23 0.56 -0.66 9.91 -0.01 -0.05 0.03 5812
-0.02 1.21 0.74 -0.73 9.93 -0.01 -0.03 0.03 5819
0.02 1.15 0.72 -0.69 9.99 0.00 -0.03 0.03 5825
0.03 1.08 0.67 -0.69 10.16 0.00 -0.03 0.03 5831
0.05 0.99 0.68 -0.72 10.03 0.01 -0.02 0.03 5837
0.04 0.98 0.69 -0.73 10.19 0.01 -0.01 0.03 5843
0.04 0.93 0.69 -0.70 10.11 0.02 -0.01 0.03 5850
0.06 0.84 0.73 -0.69 10.01 0.02 -0.01 0.03 5857
0.07 0.80 0.73 -0.77 10.04 0.02 -0.01 0.04 5863
0.09 0.68 0.73 -0.79 10.07 0.03 -0.01 0.04 5869
0.09 0.60 0.73 -0.74 10.04 0.03 -0.02 0.03 5875
0.07 0.53 0.67 -0.62 10.03 0.03 -0.02 0.04 5881
0.08 0.54 0.66 -0.69 9.97 0.03 -0.02 0.04 5888
0.08 0.42 0.76 -0.70 10.01 0.04 -0.02 0.03 5895
0.10 0.38 0.94 -0.67 10.12 0.04 -0.02 0.03 5901
0.14 0.33 0.73 -0.74 10.01 0.04 -0.02 0.03 5907
0.14 0.20 0.65 -1.14 9.90 0.05 -0.02 0.02 5913
0.15 0.19 0.82 -0.73 10.03 0.05 -0.02 0.02 5919
0.16 0.17 0.82 -0.74 9.92 0.05 -0.02 0.01 5925
0.15 0.16 0.77 -0.85 9.99 0.04 -0.03 0.01 5933
0.17 0.10 0.77 -0.81 10.00 0.04 -0.04 0.00 5939
0.18 0.08 0.76 -0.74 9.99 0.04 -0.04 -0.00 5945
0.19 0.05 0.78 -0.88 9.93 0.04 -0.05 -0.00 5951
0.20 0.01 0.78 -0.74 10.00 0.04 -0.05 -0.01 5957
0.20 0.05 0.73 -0.87 10.02 0.04 -0.05 -0.01 5963
0.22 0.04 0.81 -0.76 9.98 0.04 -0.05 -0.01 5970
0.24 -0.01 0.71 -0.84 9.94 0.04 -0.05 -0.01 5977
0.26 0.01 0.72 -0.78 9.99 0.04 -0.05 -0.01 5983
0.31 -0.01 0.76 -0.80 10.04 0.04 -0.05 -0.01 5989
0.29 -0.01 0.77 -0.74 10.05 0.04 -0.05 -0.01 5995
0.28 -0.03 0.79 -0.82 10.01 0.04 -0.06 -0.01 6001
0.33 -0.02 0.80 -0.93 9.93 0.04 -0.06 -0.02 6007
0.33 -0.03 0.75 -0.86 10.02 0.04 -0.06 -0.02 6014
0.36 -0.04 0.75 -0.88 9.92 0.04 -0.06 -0.03 6021
0.39 -0.03 0.75 -0.89 9.90 0.04 -0.06 -0.04 6027
0.43 -0.04 0.74 -0.90 9.92 0.04 -0.06 -0.04 6033
0.45 -0.04 0.71 -0.91 9.93 0.03 -0.05 -0.04 6039
0.45 -0.04 0.73 -0.92 9.91 0.02 -0.05 -0.04 6045
0.45 -0.03 0.75 -0.89 9.96 0.02 -0.04 -0.05 6051
0.50 -0.04 0.77 -0.91 10.00 0.02 -0.04 -0.04 6059
0.51 -0.04 0.71 -0.91 10.02 0.02 -0.04 -0.04 6065
0.55 -0.03 0.73 -0.92 10.02 0.03 -0.04 -0.03 6071
0.59 -0.04 0.74 -0.89 10.04 0.03 -0.04 -0.03 6077
0.62 -0.04 0.74 -0.85 10.04 0.04 -0.05 -0.03 6083
0.70 -0.04 0.72 -0.93 10.03 0.06 -0.04 -0.02 6090
0.73 -0.04 0.75 -0.94 10.10 0.07 -0.05 -0.03 6096
0.78 -0.04 0.74 -0.95 10.09 0.10 -0.04 -0.03 6103
0.83 -0.04 0.75 -0.99 10.15 0.12 -0.04 -0.03 6109
0.89 -0.05 0.78 -0.97 10.14 0.15 -0.03 -0.04 6115
0.93 -0.05 0.82 -1.00 10.27 0.20 -0.03 -0.05 6122
1.00 -0.05 0.91 -1.09 10.34 0.26 -0.03 -0.06 6128
1.07 -0.06 1.08 -1.16 10.44 0.36 -0.02 -0.08 6134
1.14 -0.05 1.00 -1.10 10.85 0.49 -0.01 -0.10 6140
1.20 -0.05 1.03 -1.28 11.06 0.70 0.00 -0.12 6147
1.28 -0.07 0.87 -1.13 11.56 0.95 0.01 -0.15 6154
1.36 -0.06 1.03 -1.45 12.16 1.21 0.02 -0.17 6160
1.40 -0.07 1.05 -1.46 12.12 1.43 -0.00 -0.18 6166
1.48 -0.07 0.92 -1.60 12.48 1.62 -0.06 -0.18 6172
1.51 -0.05 0.82 -1.58 12.59 1.75 -0.12 -0.16 6179
1.60 -0.07 0.68 -1.59 12.78 1.90 -0.19 -0.15 6185
1.62 -0.08 1.18 -1.65 13.23 2.05 -0.26 -0.13 6192
1.68 -0.06 0.05 -1.71 13.52 2.23 -0.26 -0.13 6198
1.69 -0.08 1.54 -1.58 14.15 2.32 -0.30 -0.15 6204
1.72 -0.07 0.55 -1.91 13.13 2.59 -0.33 -0.11 6211
1.72 -0.07 1.25 -2.02 13.13 2.76 -0.35 -0.14 6217
1.67 -0.07 0.82 -2.40 13.52 2.98 -0.33 -0.13 6223
1.68 -0.08 0.91 -2.93 14.09 3.26 -0.34 -0.14 6230
1.64 -0.07 0.96 -2.55 14.72 3.56 -0.32 -0.15 6237
1.52 -0.05 0.67 -2.32 15.34 3.90 -0.32 -0.17 6243
1.49 -0.06 0.57 -2.54 16.72 4.20 -0.30 -0.17 6249
1.39 -0.06 1.92 -3.78 17.14 4.28 -0.36 -0.21 6255
1.27 -0.05 2.98 -3.40 17.24 4.28 -0.50 -0.32 6262
1.11 -0.05 3.22 -3.08 18.76 4.28 -0.67 -0.50 6268
0.95 -0.04 2.74 -4.95 20.67 4.28 -0.92 -0.65 6275
0.85 -0.04 2.38 -6.68 22.68 4.28 -1.16 -0.77 6281
0.69 -0.04 2.35 -9.73 28.70 4.28 -1.24 -0.88 6288
0.61 -0.02 2.55 -10.20 30.45 4.28 -1.22 -0.94 6294
0.49 -0.03 2.98 -14.97 34.96 4.28 -0.99 -0.86 6300
0.43 -0.02 2.84 -15.15 32.32 4.28 -0.70 -0.82 6306
0.33 -0.02 2.75 -12.82 29.82 4.28 -0.48 -0.86 6313
0.24 -0.02 2.75 -8.81 29.05 4.28 -0.27 -0.90 6320
0.18 -0.01 1.47 -5.56 30.35 4.28 -0.29 -0.97 6326
0.12 -0.01 1.42 -2.87 31.31 4.28 -0.59 -1.04 6332
0.11 -0.01 4.05 0.45 31.78 4.28 -1.07 -1.08 6339
0.11 -0.01 7.39 4.73 31.61 4.28 -1.41 -1.10 6345
0.07 -0.01 9.92 7.64 31.26 4.28 -1.39 -1.10 6351
0.07 -0.01 10.66 12.33 28.63 4.28 -0.91 -1.04 6358
0.06 -0.01 12.29 21.28 23.94 4.28 -0.08 -1.16 6364
0.05 -0.00 7.12 21.17 7.27 4.27 0.68 -1.59 6371
0.05 -0.01 9.39 25.77 -4.01 3.37 0.57 -2.14 6377
0.07 -0.01 7.95 22.50 20.93 1.38 0.91 -2.29 6383
0.05 -0.01 8.04 18.27 32.27 -0.77 1.71 -2.06 6389
0.06 -0.00 5.82 15.57 25.04 -2.45 1.93 -1.76 6395
0.05 -0.01 2.81 14.71 16.46 -3.47 1.54 -1.46 6403
0.05 -0.01 1.12 12.78 13.77 -4.09 0.98 -1.09 6409
0.07 -0.01 1.38 10.84 12.14 -4.28 0.65 -0.81 6415
0.05 -0.00 2.58 8.81 9.94 -4.28 0.44 -0.56 6421
0.04 -0.00 3.65 6.83 8.61 -4.28 0.25 -0.42 6427
0.05 -0.01 3.89 5.22 7.56 -4.28 0.12 -0.35 6434
0.06 -0.01 3.81 4.17 7.15 -4.28 0.10 -0.30 6440
0.05 -0.00 3.96 3.33 7.03 -4.28 0.20 -0.26 6447
0.05 -0.00 4.40 2.48 7.28 -4.28 0.35 -0.21 6453
0.05 -0.01 4.76 1.97 7.87 -4.28 0.56 -0.19 6459
0.04 -0.00 4.87 1.65 8.26 -4.28 0.74 -0.18 6465
0.05 -0.00 4.49 1.69 8.76 -4.28 0.89 -0.18 6471
0.04 -0.00 4.00 1.76 9.38 -4.28 1.03 -0.16 6477
0.04 0.01 3.68 1.59 10.06 -4.28 1.15 -0.10 6483
0.05 -0.00 3.29 1.07 10.51 -4.28 1.25 -0.01 6491
0.04 -0.00 3.66 0.31 11.14 -4.28 1.31 0.08 6497
0.05 0.00 3.01 -0.40 11.86 -4.28 1.35 0.17 6503
0.04 -0.00 2.97 -1.01 12.74 -4.28 1.35 0.25 6509
0.04 -0.00 2.63 -1.51 13.99 -4.28 1.32 0.33 6515
0.05 -0.01 2.48 -1.88 14.15 -4.28 1.32 0.42 6521
0.05 -0.01 2.44 -2.29 14.97 -4.28 1.36 0.50 6529
0.05 -0.00 2.65 -2.80 15.56 -4.28 1.45 0.54 6535
0.05 -0.00 2.72 -3.34 16.13 -4.28 1.56 0.56 6541
0.06 -0.01 2.71 -4.03 16.90 -4.28 1.72 0.54 6547
0.05 -0.00 2.09 -5.14 17.27 -4.28 1.92 0.52 6553
0.04 -0.00 1.95 -5.60 18.27 -4.28 2.08 0.53 6559
0.06 -0.01 2.05 -6.28 18.99 -4.28 2.18 0.51 6566
0.05 -0.00 1.26 -6.70 19.25 -4.28 2.29 0.51 6573
0.04 -0.00 0.82 -7.03 20.07 -4.28 2.37 0.55 6579
0.05 -0.00 0.48 -7.60 19.71 -4.28 2.36 0.62 6585
0.04 -0.00 0.26 -8.32 19.79 -4.27 2.29 0.72 6591
0.04 -0.00 0.32 -9.14 19.77 -4.22 2.15 0.84 6597
0.04 0.00 0.36 -10.03 19.60 -4.14 2.00 0.97 6604
0.05 -0.00 0.32 -10.80 19.31 -3.98 1.82 1.12 6610
0.04 0.00 0.40 -11.42 18.93 -3.76 1.64 1.27 6617
0.06 -0.01 0.41 -11.50 19.05 -3.57 1.48 1.40 6623
0.05 -0.00 0.40 -11.31 19.59 -3.36 1.32 1.51 6629
0.04 -0.00 0.39 -11.17 20.11 -3.21 1.21 1.58 6636
0.05 -0.01 0.15 -10.84 20.41 -3.13 1.16 1.63 6642
0.04 -0.00 -0.23 -10.59 20.94 -3.11 1.12 1.66 6648
0.04 -0.00 -0.50 -10.75 21.28 -3.15 1.11 1.67 6654
0.04 -0.00 -1.00 -11.33 21.20 -3.19 1.13 1.66 6662
0.04 -0.00 -1.33 -11.96 20.68 -3.23 1.15 1.64 6668
0.04 0.00 -1.70 -13.14 19.05 -3.24 1.13 1.58 6674
0.04 -0.00 -2.54 -17.21 19.28 -2.90 1.00 1.56 6680
0.04 -0.00 -0.74 -13.74 10.82 -3.04 0.85 1.50 6686
0.05 -0.01 -0.84 -16.51 13.73 -3.04 0.60 1.36 6693
0.04 -0.00 -0.94 -18.95 13.38 -2.93 0.39 1.21 6700
0.04 -0.00 -0.91 -20.84 13.98 -2.70 0.37 1.04 6706
0.05 -0.01 -0.82 -22.72 11.39 -2.36 0.55 0.85 6712
0.04 -0.00 -1.51 -24.11 8.56 -2.04 0.84 0.66 6718
0.04 -0.00 -2.65 -25.61 6.68 -1.72 1.19 0.49 6725
0.05 -0.01 -3.90 -27.22 5.78 -1.41 1.49 0.34 6731
0.04 -0.00 -5.47 -28.63 5.62 -1.18 1.66 0.19 6737
0.04 -0.00 -6.89 -29.03 5.90 -0.88 1.69 0.07 6744
0.05 -0.01 -8.56 -28.20 6.03 -0.59 1.57 -0.03 6750
0.05 -0.00 -11.70 -35.68 1.02 -0.25 1.12 -0.03 6756
0.03 -0.00 -13.42 -28.37 -6.28 1.94 -0.12 0.07 6763
0.05 -0.01 -14.37 -26.99 2.16 1.72 -0.77 0.08 6769
0.03 -0.00 -10.12 -27.49 2.85 2.33 -2.31 0.02 6775
0.04 0.03 -7.68 -34.54 -0.04 2.37 -3.36 -0.04 6781
0.04 0.09 -7.02 -30.36 -6.77 2.36 -4.20 -0.03 6789
0.03 0.23 2.66 3.04 2.14 3.06 -3.89 0.24 6795
0.02 0.42 5.01 -4.66 24.94 4.21 -1.56 0.81 6801
0.02 0.76 5.69 3.08 25.63 4.28 -0.26 1.37 6807
0.00 1.05 -9.71 -0.84 31.05 4.28 -0.74 1.21 6813
-0.00 1.36 -10.14 -6.57 33.29 4.28 -1.42 0.58 6820
-0.01 1.49 -3.18 -5.62 22.95 4.15 -1.12 0.22 6827
-0.02 1.49 -4.54 -4.44 22.18 3.92 -0.39 0.04 6833
-0.01 1.52 -4.20 -2.07 19.73 3.40 -0.35 -0.37 6839
-0.01 1.47 2.05 -1.54 15.94 3.02 -0.52 -0.67 6846
-0.01 1.42 5.77 -1.95 17.59 3.09 -0.54 -0.52 6852
-0.01 1.43 2.41 -2.83 26.64 2.15 -1.46 -0.23 6858
-0.01 1.36 2.17 -2.20 13.93 0.80 -0.98 0.10 6864
0.01 1.33 0.00 -2.11 11.46 0.19 -0.25 0.21 6872
-0.01 1.34 -1.21 -1.59 11.07 0.02 -0.08 0.13 6878
0.02 1.34 0.57 -1.01 10.12 -0.01 -0.03 0.03 6884
0.02 1.34 0.87 -0.88 10.12 -0.02 -0.02 0.03 6890
0.00 1.33 0.99 -1.02 10.12 -0.03 -0.03 0.05 6896
0.01 1.31 0.29 -0.71 10.02 -0.04 -0.03 0.05 6903
0.03 1.29 0.47 -0.68 10.00 -0.03 -0.03 0.05 6909
0.08 1.30 0.58 -0.60 9.99 -0.03 -0.01 0.04 6916
0.08 1.24 0.70 -0.59 10.05 -0.03 -0.01 0.04 6922
0.12 1.13 0.70 -0.66 10.02 -0.02 -0.01 0.05 6928
0.12 1.08 0.63 -0.67 10.00 -0.01 -0.01 0.05 6934
0.06 1.03 0.58 -0.68 10.04 -0.01 -0.02 0.04 6941
0.08 0.93 0.62 -0.64 10.06 0.00 -0.00 0.04 6947
0.08 0.91 0.63 -0.64 10.13 0.01 -0.00 0.04 6953
0.07 0.77 0.70 -0.71 10.02 0.02 0.00 0.04 6960
0.07 0.76 0.66 -0.71 10.07 0.02 0.00 0.04 6966
0.09 0.66 0.63 -0.68 10.05 0.03 0.01 0.04 6973
0.10 0.60 0.58 -0.62 10.08 0.03 0.01 0.04 6979
0.13 0.53 0.71 -0.42 10.04 0.04 0.01 0.04 6985
0.11 0.46 0.72 -0.62 10.04 0.04 0.01 0.05 6991
0.12 0.38 0.70 -0.64 9.94 0.04 0.01 0.05 6998
0.14 0.36 0.74 -0.65 9.98 0.05 0.01 0.04 7004
0.15 0.29 0.73 -0.66 9.94 0.05 0.00 0.03 7010
0.13 0.21 0.79 -0.74 9.97 0.05 0.01 0.03 7017
0.15 0.21 0.73 -0.73 9.94 0.05 -0.03 0.02 7023
0.17 0.12 0.74 -0.74 9.93 0.05 -0.01 0.02 7029
0.18 0.10 0.78 -0.78 9.99 0.05 -0.01 0.02 7035
0.16 0.09 0.68 -0.82 9.93 0.05 -0.01 0.02 7042
0.22 0.05 0.71 -0.69 10.07 0.05 -0.02 0.02 7048
0.23 0.04 0.71 -0.67 10.06 0.05 -0.02 0.01 7054
0.22 0.02 0.78 -0.70 10.06 0.06 -0.02 0.02 7061
0.25 0.02 0.67 -0.70 9.99 0.05 -0.02 0.02 7067
0.27 0.00 0.81 -1.27 10.12 0.06 -0.02 0.02 7073
0.27 -0.02 0.66 -0.78 9.97 0.07 -0.03 0.02 7079
0.29 -0.02 0.79 -0.77 9.93 0.07 -0.03 0.02 7086
0.32 -0.02 0.64 -0.77 9.91 0.08 -0.04 0.01 7092
0.34 -0.02 0.80 -0.82 9.97 0.08 -0.05 0.01 7098
0.34 -0.03 0.76 -0.78 9.91 0.08 -0.07 0.00 7105
0.37 -0.00 0.80 -0.94 9.91 0.08 -0.07 -0.01 7111
0.39 -0.04 0.81 -0.90 9.92 0.08 -0.08 -0.02 7117
0.43 -0.04 0.82 -0.88 10.00 0.07 -0.08 -0.02 7123
0.50 -0.05 0.77 -0.94 9.89 0.06 -0.08 -0.03 7130
0.56 -0.04 0.76 -0.92 9.87 0.05 -0.09 -0.04 7136
0.59 -0.04 0.79 -0.91 9.91 0.05 -0.08 -0.05 7142
0.64 -0.04 0.77 -0.91 9.94 0.04 -0.08 -0.05 7149
0.70 -0.03 0.73 -0.95 9.96 0.03 -0.07 -0.06 7155
0.68 -0.04 0.77 -0.86 9.94 0.03 -0.07 -0.06 7161
0.74 -0.05 0.73 -0.85 10.05 0.04 -0.06 -0.07 7168
0.79 -0.04 0.71 -0.91 10.00 0.05 -0.06 -0.07 7174
0.85 -0.05 0.66 -0.90 10.06 0.05 -0.06 -0.07 7180
0.92 -0.06 1.22 -0.92 10.10 0.07 -0.05 -0.06 7187
0.95 -0.04 0.68 -0.90 10.10 0.09 -0.04 -0.06 7193
1.04 -0.05 0.70 -0.91 10.13 0.11 -0.04 -0.06 7199
1.09 -0.06 0.69 -0.96 10.22 0.15 -0.03 -0.05 7205
1.12 -0.04 0.72 -0.96 10.19 0.19 -0.01 -0.06 7212
1.17 -0.06 0.83 -1.03 10.32 0.25 0.00 -0.07 7219
1.25 -0.06 0.91 -1.17 10.32 0.34 0.02 -0.08 7225
1.30 -0.05 0.84 -1.09 10.53 0.45 0.03 -0.10 7231
1.37 -0.06 1.02 -1.24 10.84 0.61 0.05 -0.12 7237
1.44 -0.07 0.92 -1.37 10.84 0.79 0.06 -0.14 7243
1.49 -0.06 1.04 -1.29 11.21 0.98 0.07 -0.17 7250
1.56 -0.08 1.00 -1.39 11.59 1.13 0.06 -0.19 7257
1.58 -0.06 0.96 -1.39 11.61 1.29 0.03 -0.19 7263
1.65 -0.07 1.08 -1.63 12.18 1.45 -0.03 -0.20 7269
1.73 -0.07 0.97 -1.61 12.80 1.62 -0.10 -0.20 7276
1.76 -0.05 0.93 -1.67 13.01 1.75 -0.19 -0.19 7282
1.81 -0.06 0.85 -1.88 13.31 1.94 -0.29 -0.19 7288
1.81 -0.06 0.71 -1.79 13.47 2.17 -0.33 -0.17 7294
1.87 -0.08 0.62 -1.89 13.84 2.38 -0.43 -0.17 7302
1.89 -0.08 -0.58 -4.39 12.40 2.59 -0.43 -0.20 7308
1.89 -0.07 0.84 -2.10 13.44 2.77 -0.45 -0.16 7314
1.89 -0.07 0.67 -2.29 13.54 2.95 -0.49 -0.18 7320
1.88 -0.07 0.72 -2.34 14.18 3.16 -0.48 -0.17 7326
1.84 -0.07 0.54 -2.47 14.56 3.41 -0.47 -0.17 7333
1.76 -0.07 0.64 -2.00 15.33 3.74 -0.42 -0.16 7340
1.64 -0.07 0.35 -2.60 16.80 4.10 -0.36 -0.15 7346
1.53 -0.05 0.82 -3.29 16.52 4.27 -0.38 -0.18 7352
1.41 -0.07 2.79 -3.49 18.31 4.28 -0.53 -0.24 7359
1.24 -0.05 3.61 -3.73 17.79 4.28 -0.71 -0.41 7365
1.07 -0.05 3.10 -5.08 22.31 4.28 -1.00 -0.61 7371
0.89 -0.04 3.95 -6.90 23.75 4.28 -1.25 -0.76 7377
0.76 -0.04 2.39 -9.37 24.82 4.28 -1.39 -0.90 7385
0.67 -0.04 3.18 -12.77 31.02 4.28 -1.32 -0.98 7391
0.53 -0.02 2.85 -15.38 35.81 4.28 -1.20 -1.00 7397
0.43 -0.03 3.50 -13.86 32.77 4.28 -0.96 -1.02 7403
0.35 -0.03 3.23 -12.13 29.17 4.28 -0.77 -1.08 7410
0.25 -0.02 1.70 -8.50 28.63 4.28 -0.52 -1.11 7416
0.17 -0.02 1.78 -6.01 33.24 4.28 -0.50 -1.10 7422
0.13 -0.00 3.14 -4.02 35.14 4.28 -0.88 -1.16 7429
0.11 -0.01 5.99 -0.46 33.76 4.28 -1.40 -1.26 7436
0.08 -0.01 8.77 4.12 32.51 4.28 -1.77 -1.33 7442
0.08 -0.00 10.72 8.57 30.99 4.28 -1.81 -1.32 7448
0.07 -0.01 9.99 15.14 24.45 4.28 -1.40 -1.25 7454
0.05 -0.00 11.29 21.84 18.42 4.28 -0.62 -1.37 7460
0.06 -0.01 9.00 23.65 0.73 4.20 -0.21 -1.79 7468
0.06 -0.01 10.25 26.72 1.94 3.24 -0.23 -2.26 7474
0.06 -0.01 9.42 20.90 25.09 1.24 0.61 -2.28 7480
0.06 -0.01 9.17 16.67 29.82 -0.64 1.39 -2.02 7486
0.05 -0.00 5.76 15.17 22.30 -1.97 1.56 -1.73 7492
0.06 -0.01 3.65 14.65 15.60 -2.82 1.28 -1.41 7499
0.05 -0.01 2.35 13.59 12.63 -3.45 0.89 -1.07 7505
0.04 -0.00 2.60 11.35 11.05 -3.92 0.62 -0.78 7512
0.05 -0.01 3.53 9.75 9.80 -4.13 0.41 -0.55 7518
0.06 -0.01 4.32 7.83 9.08 -4.18 0.23 -0.42 7524
0.05 -0.01 4.49 6.57 8.48 -4.20 0.17 -0.30 7530
0.04 -0.00 4.51 5.80 7.98 -4.22 0.23 -0.19 7537
0.05 -0.01 4.65 4.91 7.98 -4.23 0.38 -0.10 7543
0.05 -0.01 4.80 4.05 8.30 -4.23 0.55 -0.05 7549
0.06 -0.01 4.96 3.42 8.76 -4.25 0.69 -0.02 7556
0.04 -0.00 5.00 2.99 9.79 -4.26 0.88 -0.02 7562
0.05 0.00 4.93 2.74 9.59 -4.28 1.07 -0.01 7568
0.05 -0.01 4.65 2.62 10.15 -4.28 1.28 -0.00 7574
0.04 -0.00 4.28 2.28 10.73 -4.28 1.51 0.02 7580
0.04 0.01 3.87 1.67 11.14 -4.28 1.73 0.05 7587
0.06 -0.01 3.36 0.94 12.00 -4.28 1.93 0.08 7593
0.05 -0.00 2.95 0.17 12.93 -4.28 2.07 0.11 7600
0.04 -0.00 2.68 -0.50 13.73 -4.28 2.09 0.13 7606
0.05 -0.01 2.23 -1.01 14.46 -4.28 2.09 0.12 7612
0.05 -0.00 1.68 -1.67 15.07 -4.28 2.08 0.11 7618
0.04 -0.00 1.17 -2.33 15.57 -4.28 2.07 0.09 7625
0.05 -0.01 0.87 -3.04 16.06 -4.28 2.06 0.08 7631
0.05 -0.00 0.75 -3.61 16.65 -4.28 2.03 0.05 7638
0.04 -0.00 0.10 -4.27 17.08 -4.28 2.01 0.01 7644
0.05 -0.01 0.33 -4.59 17.99 -4.28 2.03 -0.01 7650
0.05 -0.01 0.90 -5.53 18.47 -4.28 2.07 -0.09 7656
0.06 -0.01 0.77 -6.06 18.76 -4.28 2.11 -0.16 7662
0.05 -0.00 0.60 -6.32 18.82 -4.28 2.19 -0.23 7669
0.05 -0.01 0.42 -6.14 19.09 -4.27 2.26 -0.20 7675
0.05 -0.00 0.38 -6.22 19.10 -4.24 2.31 -0.14 7682
0.04 -0.00 0.40 -6.11 19.13 -4.18 2.28 -0.05 7688
0.05 -0.01 0.32 -5.98 19.50 -4.08 2.21 0.08 7694
0.05 -0.00 0.44 -5.95 20.06 -3.91 2.12 0.24 7700
0.03 -0.00 0.64 -6.25 20.78 -3.75 2.04 0.40 7707
0.05 0.00 0.57 -6.74 21.76 -3.58 1.97 0.55 7713
0.05 -0.00 0.39 -7.66 22.64 -3.42 1.93 0.69 7719
0.04 -0.00 0.20 -8.74 23.84 -3.29 1.91 0.82 7726
0.04 0.00 0.15 -10.09 24.58 -3.22 1.85 0.88 7732
0.04 -0.00 -0.02 -11.36 24.91 -3.19 1.75 0.94 7738
0.04 -0.00 0.01 -12.84 24.80 -3.20 1.64 0.98 7745
0.05 0.00 0.07 -14.28 24.22 -3.24 1.54 1.01 7751
0.04 -0.00 -0.81 -18.87 23.24 -3.21 1.39 1.02 7757
0.04 -0.00 -0.13 -17.48 14.51 -2.98 1.21 1.04 7763
0.06 -0.01 0.40 -16.14 16.82 -3.00 1.16 1.01 7771
0.04 -0.00 0.86 -18.49 18.84 -3.18 1.35 1.02 7777
0.05 -0.00 -0.35 -20.82 18.31 -3.14 1.79 1.17 7783
0.05 -0.01 -3.04 -21.46 15.72 -2.96 2.51 1.45 7789
0.05 -0.00 -5.97 -22.56 14.94 -2.72 3.37 1.84 7795
0.04 -0.00 -8.89 -25.71 14.07 -2.50 3.67 2.15 7802
0.04 -0.00 -12.07 -29.67 12.06 -2.31 3.16 2.31 7809
0.04 -0.00 -14.15 -32.71 8.68 -2.06 2.29 2.38 7815
0.06 -0.01 -13.84 -33.97 4.42 -1.78 1.40 2.35 7821
0.04 -0.00 -12.28 -34.56 1.16 -1.45 0.67 2.18 7828
0.05 -0.00 -11.42 -34.87 0.68 -1.02 0.15 1.86 7834
0.05 -0.01 -9.29 -34.68 1.52 -0.52 -0.07 1.42 7840
0.04 -0.00 -8.88 -34.56 2.34 0.01 -0.24 0.93 7846
0.04 -0.00 -24.94 -46.63 50.64 2.65 -2.05 0.74 7853
0.05 -0.00 -9.35 -24.90 5.86 2.90 -1.33 0.68 7860
0.05 -0.00 -10.68 -24.27 -2.24 3.16 -2.26 0.46 7866
0.05 0.03 -9.83 -32.31 2.21 3.08 -3.67 0.47 7872
0.04 0.13 -0.75 -1.84 2.25 2.97 -4.28 0.41 7878
0.04 0.31 2.23 3.08 13.91 3.30 -3.15 0.73 7884
0.02 0.61 8.40 8.27 18.28 3.98 -0.71 1.49 7891
0.01 0.85 -3.57 -2.99 24.42 4.28 -0.31 1.79 7898
-0.02 1.24 -15.08 -9.85 30.71 4.28 -0.75 1.38 7904
0.00 1.48 -10.80 -8.31 24.68 4.28 -1.16 0.63 7910
-0.01 1.57 -3.76 -4.95 29.04 4.28 -0.51 0.17 7917
-0.02 1.64 -5.37 -2.45 25.66 3.88 -0.22 -0.22 7923
-0.03 1.61 -0.51 -2.52 20.59 3.15 -0.40 -0.68 7929
-0.02 1.57 5.24 -2.61 17.10 2.91 -0.58 -0.72 7936
0.00 1.45 5.46 -2.88 23.67 2.46 -1.66 -0.43 7943
0.00 1.44 3.90 -2.36 13.06 1.32 -1.92 0.01 7949
0.01 1.39 0.24 -2.02 13.69 0.81 -1.45 0.23 7955
0.00 1.37 -0.62 -0.98 11.88 0.43 -0.90 0.18 7961
-0.00 1.32 -0.70 -1.02 11.49 0.21 -0.45 0.09 7968
0.01 1.32 0.37 -1.26 10.37 0.06 -0.22 0.04 7974
0.01 1.27 0.86 -1.27 10.91 0.02 -0.15 0.05 7981
-0.02 1.27 0.88 -0.86 10.11 0.01 -0.12 0.06 7987
0.01 1.24 0.52 -0.68 10.20 0.01 -0.10 0.05 7993
0.01 1.19 0.54 -0.64 10.02 0.00 -0.09 0.03 8000
0.02 1.15 0.70 -0.61 9.89 0.01 -0.08 0.03 8006
0.01 1.07 0.74 -0.70 9.91 0.01 -0.07 0.04 8012
0.05 1.01 0.64 -0.63 10.03 0.02 -0.05 0.03 8018
0.03 0.90 0.56 -0.71 10.11 0.02 -0.05 0.03 8025
0.06 0.84 0.57 -0.75 10.11 0.02 -0.04 0.03 8031
0.08 0.74 0.63 -0.82 10.16 0.03 -0.04 0.04 8038
0.08 0.71 0.62 -0.82 10.11 0.03 -0.04 0.04 8044
0.13 0.60 0.66 -0.73 10.15 0.04 -0.03 0.04 8050
0.13 0.55 0.55 -0.72 10.04 0.03 -0.03 0.04 8056
0.13 0.50 0.66 -0.76 10.04 0.04 -0.02 0.04 8062
0.15 0.46 0.65 -0.75 10.05 0.04 -0.01 0.04 8069
0.17 0.46 0.44 -1.15 10.11 0.05 -0.01 0.04 8076
0.16 0.35 0.69 -0.72 10.02 0.05 0.00 0.04 8082
0.19 0.27 0.77 -0.72 10.01 0.06 0.00 0.04 8088
0.21 0.17 0.91 -0.84 10.04 0.07 -0.00 0.03 8094
0.21 0.14 0.87 -0.65 9.99 0.07 -0.00 0.02 8100
0.24 0.13 0.84 -0.63 9.99 0.06 -0.01 0.01 8108
0.25 0.07 0.80 -0.93 10.04 0.06 -0.01 0.00 8114
0.25 0.05 0.74 -0.77 10.02 0.06 -0.02 0.00 8120
0.28 0.04 0.67 -0.88 9.98 0.06 -0.03 -0.00 8126
0.29 0.01 0.70 -0.84 10.09 0.06 -0.03 -0.00 8132
0.30 -0.00 0.73 -0.91 10.06 0.06 -0.04 -0.00 8138
0.31 -0.01 0.67 -0.74 10.11 0.06 -0.04 0.00 8145
0.33 -0.03 0.76 -1.69 10.11 0.07 -0.04 0.01 8152
0.33 -0.03 0.62 -0.81 9.83 0.07 -0.04 0.01 8158
0.31 -0.03 0.74 -0.96 10.00 0.08 -0.04 0.01 8164
0.32 -0.01 0.72 -0.91 10.01 0.08 -0.04 0.01 8170
0.35 -0.03 0.75 -0.94 9.99 0.08 -0.04 0.00 8176
0.34 -0.03 0.84 -0.93 10.03 0.08 -0.05 -0.00 8182
0.35 -0.04 0.83 -0.98 9.88 0.08 -0.04 -0.01 8189
0.37 -0.01 0.82 -0.94 9.97 0.07 -0.04 -0.03 8196
0.41 -0.04 0.84 -1.00 9.96 0.07 -0.04 -0.04 8202
0.43 -0.03 0.79 -0.98 9.98 0.08 -0.04 -0.05 8208
0.46 -0.03 0.72 -1.00 9.96 0.07 -0.04 -0.06 8214
0.51 -0.03 0.73 -1.01 9.97 0.07 -0.04 -0.06 8220
0.53 -0.04 0.81 -0.98 9.97 0.08 -0.03 -0.07 8226
0.56 -0.02 0.78 -1.01 9.97 0.09 -0.03 -0.07 8233
0.61 -0.04 0.76 -1.00 10.02 0.10 -0.03 -0.08 8240
0.62 -0.03 0.71 -1.04 9.98 0.10 -0.03 -0.08 8246
0.65 -0.04 0.74 -1.05 9.96 0.11 -0.04 -0.07 8252
0.73 -0.03 0.76 -1.00 10.06 0.13 -0.05 -0.07 8258
0.77 -0.05 0.80 -1.07 10.14 0.15 -0.05 -0.07 8264
0.83 -0.04 0.83 -1.16 10.15 0.18 -0.06 -0.07 8271
0.87 -0.04 0.75 -1.11 10.18 0.22 -0.05 -0.08 8278
0.90 -0.05 0.74 -1.10 10.32 0.27 -0.05 -0.08 8284
0.99 -0.03 0.79 -1.16 10.42 0.33 -0.05 -0.08 8290
1.05 -0.05 0.76 -1.15 10.53 0.41 -0.04 -0.09 8296
1.13 -0.05 0.73 -1.27 10.82 0.53 -0.03 -0.10 8303
1.18 -0.05 0.82 -1.28 10.79 0.67 -0.03 -0.11 8309
1.26 -0.05 0.89 -1.35 11.13 0.82 -0.05 -0.13 8315
1.35 -0.06 0.91 -1.52 11.24 0.96 -0.09 -0.14 8322
1.43 -0.06 1.01 -1.51 11.39 1.06 -0.15 -0.15 8329
1.46 -0.06 0.93 -1.65 11.87 1.18 -0.19 -0.16 8335
1.54 -0.04 0.91 -1.62 11.95 1.30 -0.24 -0.17 8341
1.59 -0.06 0.80 -1.71 11.94 1.44 -0.29 -0.16 8347
1.63 -0.05 0.66 -1.74 12.02 1.57 -0.33 -0.16 8354
1.67 -0.06 0.71 -1.86 12.31 1.71 -0.34 -0.15 8360
1.73 -0.07 0.51 -1.75 12.73 1.88 -0.40 -0.14 8367
1.77 -0.06 0.76 -0.72 11.61 2.02 -0.39 -0.16 8373
1.79 -0.05 0.62 -2.17 12.64 2.26 -0.39 -0.12 8379
1.80 -0.06 0.22 -1.24 13.14 2.38 -0.40 -0.13 8386
1.79 -0.05 0.62 -3.04 13.08 2.58 -0.39 -0.12 8392
1.77 -0.06 0.45 -2.62 13.06 2.79 -0.38 -0.13 8398
1.73 -0.06 0.61 -2.68 13.98 3.04 -0.35 -0.13 8404
1.64 -0.06 0.74 -2.83 13.52 3.32 -0.30 -0.14 8412
1.58 -0.07 0.81 -2.85 14.35 3.62 -0.26 -0.16 8418
1.51 -0.06 0.96 -2.97 14.83 3.95 -0.20 -0.20 8424
1.38 -0.06 0.69 -3.26 16.09 4.21 -0.18 -0.23 8430
1.27 -0.05 0.74 -3.56 18.10 4.28 -0.22 -0.23 8437
1.09 -0.04 1.58 -3.78 17.94 4.28 -0.41 -0.29 8443
1.03 -0.05 3.38 -5.58 20.20 4.28 -0.59 -0.42 8450
0.88 -0.03 2.17 -6.76 22.37 4.28 -0.81 -0.59 8456
0.80 -0.04 2.63 -5.06 24.07 4.28 -0.92 -0.71 8462
0.68 -0.04 1.86 -14.29 31.27 4.28 -0.93 -0.75 8469
0.59 -0.02 2.82 -14.76 36.33 4.28 -0.70 -0.70 8475
0.45 -0.03 3.13 -15.42 34.27 4.28 -0.34 -0.67 8481
0.37 -0.02 2.57 -11.71 30.10 4.28 -0.05 -0.69 8488
0.30 -0.02 0.89 -8.43 28.24 4.28 0.24 -0.71 8495
0.23 -0.02 0.96 -6.47 32.17 4.28 0.24 -0.73 8501
0.16 -0.00 1.45 -4.99 35.98 4.28 -0.22 -0.85 8507
0.11 -0.01 4.12 -2.43 34.60 4.28 -0.85 -1.01 8513
0.09 -0.01 7.23 2.29 32.91 4.28 -1.33 -1.09 8520
0.06 -0.01 9.98 6.39 32.14 4.28 -1.47 -1.12 8526
0.06 -0.01 10.71 13.11 29.67 4.28 -1.23 -1.08 8532
0.04 -0.00 12.89 21.72 22.27 4.28 -0.53 -1.25 8539
0.06 -0.01 9.54 21.69 9.90 4.27 0.40 -1.77 8545
0.04 -0.00 11.00 25.14 -5.14 3.60 0.75 -2.50 8552
0.05 -0.00 8.16 22.84 21.74 1.89 1.20 -2.79 8558
0.07 -0.01 8.87 18.68 33.67 -0.28 2.04 -2.70 8564
0.05 -0.00 6.36 16.70 24.30 -1.97 2.28 -2.48 8570
0.05 -0.01 2.96 15.44 17.48 -2.89 1.86 -2.19 8578
0.05 -0.01 0.91 13.63 13.90 -3.57 1.24 -1.82 8584
0.04 -0.00 0.88 11.38 12.39 -4.11 0.80 -1.40 8590
0.05 -0.01 2.16 9.44 10.91 -4.26 0.46 -1.05 8596
0.05 -0.01 3.25 7.63 9.32 -4.28 0.16 -0.80 8602
0.05 -0.01 3.72 6.22 8.18 -4.28 -0.02 -0.60 8608
0.04 -0.00 3.82 5.35 7.54 -4.28 -0.07 -0.45 8614
0.04 0.00 4.08 4.48 7.40 -4.28 -0.02 -0.32 8622
0.04 -0.00 4.47 3.88 7.70 -4.28 0.12 -0.25 8628
0.04 -0.00 4.82 3.19 8.16 -4.28 0.30 -0.19 8634
0.04 -0.00 4.92 2.66 8.63 -4.28 0.51 -0.15 8640
0.05 -0.01 4.85 2.46 9.18 -4.28 0.75 -0.12 8646
0.05 -0.00 4.51 2.17 9.82 -4.28 0.95 -0.09 8652
0.06 -0.01 4.16 1.95 10.42 -4.28 1.16 -0.02 8658
0.05 -0.00 3.67 1.68 11.22 -4.28 1.33 0.06 8665
0.05 -0.00 3.23 1.22 11.93 -4.28 1.52 0.15 8672
0.04 -0.00 2.72 0.68 12.76 -4.28 1.65 0.26 8678
0.05 -0.01 2.24 0.19 13.45 -4.28 1.72 0.37 8684
0.06 -0.01 1.89 -0.21 14.02 -4.28 1.73 0.47 8690
0.06 -0.01 1.67 -0.83 14.32 -4.28 1.71 0.54 8696
0.04 -0.00 1.53 -1.55 14.60 -4.28 1.68 0.58 8702
0.05 0.00 1.46 -2.38 14.93 -4.28 1.67 0.58 8710
0.05 -0.00 1.51 -3.38 15.73 -4.28 1.68 0.55 8716
0.05 0.00 1.40 -4.27 16.60 -4.28 1.74 0.49 8722
0.06 0.00 0.25 -5.36 18.24 -4.28 1.85 0.43 8728
0.05 -0.00 1.34 -5.63 18.36 -4.28 1.95 0.36 8734
0.05 0.00 1.00 -5.96 18.58 -4.28 2.05 0.26 8741
0.07 -0.00 0.73 -5.94 18.98 -4.28 2.19 0.17 8748
0.06 -0.01 0.42 -5.77 19.56 -4.28 2.31 0.18 8754
0.05 -0.00 0.00 -5.81 20.07 -4.27 2.37 0.20 8760
0.06 0.00 -0.36 -6.09 20.54 -4.26 2.39 0.25 8766
0.05 -0.00 -0.62 -6.57 21.10 -4.22 2.37 0.33 8772
0.05 0.00 -0.84 -7.11 21.45 -4.16 2.31 0.42 8779
0.06 -0.00 -0.83 -7.61 21.77 -4.06 2.22 0.52 8785
0.04 -0.00 -0.66 -8.24 21.96 -3.92 2.08 0.61 8792
0.05 -0.00 -0.38 -8.95 22.25 -3.81 1.91 0.69 8798
0.05 -0.00 0.00 -9.71 22.66 -3.67 1.71 0.77 8804
0.06 -0.01 0.27 -10.49 23.11 -3.57 1.53 0.85 8811
0.05 -0.00 0.59 -11.20 23.55 -3.50 1.30 0.93 8817
0.06 -0.01 0.97 -11.83 23.77 -3.47 1.09 0.98 8823
0.06 -0.01 1.60 -12.72 23.80 -3.46 0.90 1.03 8829
0.05 -0.01 2.31 -13.72 23.24 -3.45 0.80 1.04 8836
0.06 -0.01 2.70 -16.00 21.86 -3.42 0.81 1.06 8843
0.05 -0.01 2.94 -15.79 21.19 -3.35 0.98 1.09 8849
0.05 0.00 2.25 -17.03 19.54 -3.27 1.25 1.18 8855
0.06 -0.01 0.45 -17.88 17.46 -3.13 1.65 1.35 8861
0.04 -0.00 -2.04 -18.59 16.88 -2.96 2.36 1.64 8868
0.06 -0.00 -4.14 -20.79 16.88 -2.79 2.91 1.90 8875
0.05 -0.00 -6.79 -24.23 16.28 -2.63 2.92 2.05 8881
0.05 -0.00 -9.22 -28.32 14.56 -2.46 2.58 2.11 8887
0.05 -0.00 -10.40 -31.27 11.24 -2.31 2.08 2.08 8894
0.05 -0.00 -10.45 -33.78 6.64 -2.09 1.52 1.90 8900
0.05 -0.01 -10.43 -36.06 2.50 -1.76 1.08 1.60 8906
0.05 -0.01 -10.12 -37.02 0.67 -1.33 0.81 1.21 8912
0.04 0.01 -9.61 -36.97 0.25 -0.75 0.68 0.72 8919
0.06 -0.00 -9.19 -34.63 1.75 -0.17 0.54 0.20 8926
0.05 -0.01 -8.86 -31.33 3.91 0.27 0.30 -0.27 8932
0.04 0.00 -8.27 -27.56 6.86 0.67 -0.00 -0.65 8938
0.06 -0.00 -13.57 -44.02 -7.16 0.95 -0.50 -0.73 8944
0.06 -0.01 -11.57 -26.68 -0.94 3.69 -2.38 -0.21 8950
0.06 -0.00 -7.26 -12.61 -0.60 3.52 -2.68 -0.05 8957
0.05 0.04 4.37 -10.72 -8.58 3.13 -3.66 -0.07 8964
0.03 0.14 4.71 0.27 5.87 2.98 -4.27 0.03 8970
0.03 0.30 9.81 11.02 17.94 3.48 -2.61 0.63 8976
0.02 0.52 12.39 6.92 8.37 3.71 -0.60 1.55 8983
0.00 0.80 -0.29 -3.08 25.43 4.26 -0.25 1.99 8989
0.00 1.12 -12.60 -8.73 26.20 4.28 -0.73 1.78 8995
-0.01 1.38 -9.66 -8.59 22.82 4.28 -0.95 1.16 9001
-0.01 1.49 -6.12 -4.66 26.72 4.28 -0.53 0.67 9009
-0.02 1.58 -7.52 -2.38 25.53 4.27 -0.32 0.17 9015
-0.03 1.60 -4.37 -2.76 21.71 3.89 -0.59 -0.49 9021
-0.02 1.51 2.57 -3.42 20.25 3.67 -0.72 -0.83 9027
-0.03 1.55 4.64 -3.62 35.02 2.58 -2.27 -0.67 9034
-0.01 1.54 4.14 -3.49 12.85 0.92 -1.89 -0.10 9040
-0.01 1.52 0.41 -2.63 12.63 0.47 -1.09 0.16 9047
-0.02 1.52 -0.70 -0.98 11.57 0.21 -0.58 0.17 9053
-0.01 1.44 -0.33 -0.46 11.04 0.08 -0.33 0.05 9059
-0.01 1.39 0.72 -1.45 10.22 0.02 -0.22 -0.00 9066
-0.04 1.42 1.28 -1.47 10.14 0.01 -0.18 0.02 9072
-0.01 1.42 0.65 -1.57 11.18 -0.03 -0.17 0.03 9078
0.00 1.40 0.49 -0.68 9.98 -0.00 -0.15 0.02 9084
-0.03 1.39 0.54 -0.73 10.04 -0.02 -0.13 0.01 9091
0.01 1.33 0.74 -0.85 10.02 -0.01 -0.11 0.01 9098
-0.01 1.26 0.73 -0.72 9.97 -0.01 -0.11 0.02 9104
-0.00 1.19 0.59 -0.78 10.09 -0.00 -0.11 0.02 9110
0.04 1.11 0.62 -0.80 10.05 -0.00 -0.10 0.02 9116
0.05 1.01 0.59 -0.80 10.19 0.01 -0.09 0.03 9122
0.06 0.96 0.62 -0.73 10.06 0.02 -0.07 0.03 9128
0.08 0.85 0.60 -0.74 10.11 0.02 -0.05 0.03 9136
0.04 0.78 0.59 -0.77 10.05 0.03 -0.04 0.04 9142
0.04 0.72 0.59 -0.75 10.07 0.03 -0.03 0.04 9148
0.07 0.63 0.64 -0.77 10.06 0.04 -0.02 0.04 9154
0.08 0.59 0.67 -0.75 10.03 0.04 -0.01 0.04 9160
0.07 0.52 0.72 -0.63 10.08 0.05 -0.01 0.04 9167
0.09 0.49 0.66 -0.85 10.07 0.05 -0.01 0.04 9174
0.10 0.42 0.68 -0.76 10.00 0.05 -0.01 0.04 9180
0.09 0.39 0.80 -0.57 10.17 0.06 -0.02 0.04 9186
0.11 0.33 0.69 -0.78 10.00 0.06 -0.02 0.04 9192
0.14 0.21 0.70 -0.98 9.92 0.07 -0.02 0.03 9198
0.16 0.14 0.64 -0.85 9.92 0.06 -0.02 0.02 9205
0.18 0.13 0.74 -0.96 9.95 0.05 -0.02 0.02 9211
0.18 0.11 0.69 -0.78 10.00 0.05 -0.02 0.01 9218
0.19 0.06 0.71 -0.90 9.94 0.05 -0.02 0.01 9224
0.19 0.08 0.68 -0.90 9.97 0.04 -0.02 0.01 9230
0.23 0.08 0.67 -0.95 10.06 0.04 -0.02 0.00 9236
0.25 0.03 0.66 -0.86 9.96 0.04 -0.02 0.01 9242
0.23 0.02 0.65 -0.86 10.00 0.04 -0.02 0.01 9249
0.25 0.04 0.68 -0.86 10.01 0.03 -0.02 0.01 9255
0.26 0.02 0.68 -0.87 10.03 0.04 -0.01 0.01 9262
0.26 0.01 0.77 -1.40 10.05 0.03 -0.02 0.01 9268
0.28 0.01 0.71 -0.91 9.99 0.03 -0.02 0.01 9274
0.27 -0.00 0.75 -0.98 9.99 0.03 -0.03 0.01 9280
0.29 -0.02 0.78 -0.89 10.01 0.02 -0.03 0.01 9287
0.32 -0.01 0.74 -0.92 9.91 0.02 -0.04 0.00 9293
0.34 -0.01 0.81 -0.90 9.93 0.02 -0.06 -0.01 9299
0.36 -0.02 0.79 -0.90 9.96 0.01 -0.06 -0.01 9306
0.37 -0.03 0.74 -0.93 9.95 0.01 -0.06 -0.02 9312
0.39 -0.02 0.75 -0.90 10.01 0.01 -0.07 -0.02 9318
0.38 -0.03 0.74 -0.94 9.94 0.00 -0.07 -0.03 9325
0.38 -0.03 0.68 -0.93 9.99 0.01 -0.07 -0.03 9331
0.41 -0.02 0.72 -0.90 9.98 0.00 -0.07 -0.03 9337
0.48 -0.03 0.66 -0.97 9.98 0.01 -0.06 -0.04 9344
0.51 -0.04 0.61 -0.94 9.96 0.01 -0.06 -0.03 9350
0.57 -0.03 0.63 -0.91 9.99 0.01 -0.05 -0.03 9356
0.62 -0.03 0.65 -0.86 10.06 0.02 -0.05 -0.03 9362
0.65 -0.05 0.66 -0.90 10.08 0.03 -0.05 -0.02 9369
0.72 -0.06 0.63 -0.89 10.10 0.05 -0.04 -0.02 9375
0.74 -0.05 0.64 -0.97 10.17 0.07 -0.04 -0.03 9381
0.81 -0.06 0.72 -0.93 10.18 0.10 -0.03 -0.03 9388
0.88 -0.05 0.68 -0.97 10.25 0.14 -0.02 -0.04 9394
0.96 -0.06 0.78 -1.07 10.24 0.19 -0.01 -0.05 9401
1.03 -0.07 0.87 -1.06 10.40 0.25 -0.00 -0.08 9407
1.07 -0.05 1.01 -1.18 10.37 0.34 -0.00 -0.11 9413
1.21 -0.06 1.00 -1.18 10.85 0.46 -0.02 -0.14 9419
1.30 -0.07 1.03 -1.17 11.22 0.68 -0.04 -0.16 9425
1.34 -0.06 1.07 -1.29 12.19 1.02 -0.06 -0.19 9433
1.44 -0.08 1.09 -1.45 12.80 1.41 -0.12 -0.21 9439
1.45 -0.06 0.79 -1.36 13.32 1.68 -0.21 -0.22 9445
1.56 -0.06 0.80 -1.71 13.42 1.84 -0.32 -0.21 9451
1.61 -0.08 0.76 -1.82 13.68 1.99 -0.41 -0.20 9458
1.68 -0.07 0.67 -1.73 13.46 2.16 -0.50 -0.17 9464
1.72 -0.08 0.57 -1.64 13.43 2.35 -0.55 -0.16 9470
1.76 -0.08 0.50 -1.77 13.24 2.55 -0.56 -0.16 9477
1.80 -0.06 0.65 -2.00 13.95 2.69 -0.54 -0.16 9484
1.82 -0.08 0.83 -1.78 13.39 2.92 -0.53 -0.17 9490
1.75 -0.06 0.54 -2.21 13.43 3.12 -0.48 -0.17 9496
1.77 -0.06 -0.17 -2.28 14.36 3.37 -0.45 -0.17 9502
1.72 -0.07 -0.07 -2.45 15.84 3.65 -0.43 -0.13 9509
1.62 -0.05 0.25 -2.48 16.24 4.01 -0.36 -0.10 9516
1.51 -0.06 1.26 -4.55 17.40 4.25 -0.35 -0.13 9522
1.33 -0.06 3.09 -3.08 17.72 4.28 -0.44 -0.23 9528
1.21 -0.05 2.85 -3.71 17.63 4.28 -0.60 -0.41 9534
1.07 -0.05 0.55 -7.09 19.47 4.28 -0.86 -0.59 9541
0.91 -0.04 2.21 -5.34 21.62 4.28 -1.06 -0.68 9547
0.80 -0.04 2.12 -7.57 24.71 4.28 -1.23 -0.78 9553
0.66 -0.04 1.20 -10.38 29.41 4.28 -1.26 -0.83 9560
0.56 -0.03 2.53 -12.11 34.13 4.28 -1.14 -0.82 9567
0.46 -0.04 2.06 -15.86 36.02 4.28 -0.81 -0.75 9573
0.33 -0.01 2.39 -14.05 31.09 4.28 -0.50 -0.73 9579
0.27 -0.02 2.14 -9.64 27.94 4.28 -0.28 -0.79 9586
0.19 -0.02 1.47 -5.79 30.62 4.28 -0.18 -0.81 9592
0.12 -0.01 1.30 -4.05 32.76 4.28 -0.46 -0.90 9598
0.11 -0.01 3.27 -0.68 32.37 4.28 -0.98 -1.02 9605
0.06 -0.01 6.56 3.92 31.75 4.28 -1.43 -1.09 9611
0.06 -0.01 9.63 7.62 31.49 4.28 -1.58 -1.11 9617
0.06 -0.01 10.78 11.58 29.43 4.28 -1.38 -1.08 9624
0.04 -0.00 13.06 19.60 23.57 4.28 -0.71 -1.25 9630
0.06 -0.01 7.86 18.84 9.46 4.28 0.10 -1.79 9636
0.05 -0.00 10.30 25.31 -4.02 4.06 0.30 -2.42 9643
0.04 -0.00 9.36 24.45 17.98 2.46 0.64 -2.73 9650
0.06 -0.01 9.00 20.47 30.87 0.40 1.72 -2.70 9656
0.03 -0.00 6.88 17.64 26.69 -1.29 2.28 -2.50 9662
0.05 -0.00 3.08 16.16 19.35 -2.36 2.02 -2.28 9668
0.05 -0.01 0.70 14.93 15.69 -3.17 1.39 -2.00 9674
0.04 -0.00 0.08 13.11 13.51 -3.88 0.86 -1.69 9681
0.06 -0.00 0.67 10.95 12.03 -4.21 0.45 -1.41 9688
0.06 -0.01 1.61 8.76 10.98 -4.27 0.13 -1.21 9694
0.03 -0.00 2.28 6.98 9.63 -4.28 -0.01 -1.06 9700
0.04 -0.00 2.78 5.86 8.80 -4.28 0.03 -0.93 9706
0.06 -0.01 3.38 4.93 8.01 -4.28 0.17 -0.84 9712
0.06 -0.01 3.90 4.26 8.22 -4.27 0.42 -0.78 9718
0.04 -0.00 4.20 3.54 9.06 -4.25 0.77 -0.74 9724
0.05 0.00 4.32 3.21 10.12 -4.26 1.15 -0.71 9732
0.05 -0.01 4.01 3.16 10.83 -4.27 1.56 -0.68 9738
0.05 -0.00 3.25 3.24 11.66 -4.28 1.93 -0.60 9744
0.05 0.00 2.38 3.18 12.34 -4.28 2.23 -0.50 9750
0.06 -0.01 1.65 2.74 13.00 -4.28 2.44 -0.36 9756
0.05 -0.01 0.92 1.84 13.59 -4.28 2.56 -0.21 9763
0.05 0.00 0.37 0.66 14.20 -4.28 2.59 -0.04 9769
0.05 -0.01 0.04 -0.40 14.76 -4.28 2.59 0.14 9776
0.05 -0.01 -0.05 -1.75 15.06 -4.28 2.54 0.31 9782
0.06 -0.01 -0.26 -1.96 15.14 -4.28 2.45 0.42 9788
0.05 -0.01 -0.56 -2.61 15.40 -4.28 2.36 0.53 9794
0.06 -0.01 -0.67 -3.19 15.75 -4.28 2.29 0.61 9801
0.04 -0.00 -0.74 -3.73 16.31 -4.28 2.23 0.66 9807
0.07 -0.01 -0.74 -4.06 16.98 -4.28 2.18 0.66 9814
0.06 -0.01 -0.90 -4.55 17.73 -4.28 2.18 0.60 9820
0.05 -0.00 -0.93 -4.89 18.39 -4.28 2.24 0.53 9826
0.05 -0.01 -1.05 -5.03 18.82 -4.28 2.27 0.45 9832
0.05 -0.00 -1.38 -5.01 19.29 -4.28 2.33 0.37 9839
0.04 -0.00 -1.64 -5.10 19.63 -4.27 2.41 0.34 9845
0.05 0.00 -1.74 -5.22 19.60 -4.25 2.47 0.34 9851
0.06 -0.01 -1.94 -5.39 19.39 -4.20 2.50 0.37 9858
0.04 -0.00 -1.92 -5.83 19.43 -4.08 2.51 0.43 9864
0.05 0.00 -2.01 -6.16 19.72 -3.87 2.46 0.53 9870
0.05 -0.01 -2.03 -6.59 20.42 -3.61 2.39 0.66 9877
0.04 -0.00 -1.84 -7.12 21.19 -3.35 2.29 0.80 9883
0.04 0.00 -1.46 -7.80 22.15 -3.14 2.13 0.97 9889
0.05 -0.00 -1.19 -8.60 22.92 -3.02 1.94 1.15 9895
0.05 -0.00 -1.03 -9.54 23.58 -2.91 1.72 1.34 9902
0.05 0.00 -1.13 -10.71 23.91 -2.85 1.40 1.54 9909
0.05 -0.00 -1.20 -12.07 23.91 -2.83 1.15 1.75 9915
0.04 -0.00 -1.14 -13.69 23.74 -2.82 0.81 1.94 9921
0.06 -0.01 -1.10 -16.58 22.99 -2.82 0.53 2.10 9927
0.05 -0.01 -0.97 -17.44 22.70 -2.80 0.43 2.19 9933
0.05 -0.01 -0.24 -18.25 21.43 -2.93 0.52 2.24 9940
0.06 -0.01 0.48 -20.62 20.81 -3.09 0.67 2.21 9947
0.05 -0.00 0.20 -23.76 18.95 -3.26 0.78 2.11 9953
0.05 -0.01 -0.02 -26.29 17.21 -3.35 0.94 1.99 9959
0.05 -0.01 -0.59 -28.43 14.09 -3.35 1.20 1.87 9966
0.05 -0.00 -1.84 -30.54 10.53 -3.25 1.56 1.76 9972
0.05 0.00 -3.69 -33.65 7.24 -3.06 1.94 1.65 9978
0.04 -0.00 -5.69 -36.76 4.51 -2.76 2.21 1.52 9985
0.04 -0.00 -7.70 -39.87 1.75 -2.33 2.26 1.35 9991
0.06 0.01 -9.32 -40.16 -0.71 -1.72 2.09 1.12 9998
0.06 -0.00 -9.50 -38.16 -1.40 -1.06 1.75 0.82 10004
0.06 -0.00 -9.38 -33.99 -0.84 -0.40 1.26 0.43 10010
0.07 -0.00 -16.36 -60.35 12.63 0.31 -0.05 0.16 10016
0.05 -0.00 -3.57 -27.89 -3.59 2.59 -0.23 0.05 10023
0.06 -0.01 -8.95 -23.92 -2.59 2.80 -1.16 -0.17 10030
0.06 0.02 -8.02 -28.69 0.95 2.87 -2.58 -0.30 10036
0.04 0.11 -6.78 -20.07 -2.89 2.47 -4.21 -0.39 10042
0.05 0.26 0.61 3.95 8.28 2.66 -3.99 -0.27 10049
0.02 0.48 10.44 1.43 25.97 3.65 -1.39 0.35 10055
0.02 0.86 5.26 -0.03 21.59 4.27 -0.49 0.87 10061
0.00 1.13 -7.28 -4.29 32.24 4.28 -0.82 0.86 10067
0.00 1.34 -4.43 -5.73 29.19 4.28 -1.22 0.49 10075
0.00 1.40 0.23 -5.48 23.84 4.13 -0.73 0.36 10081
-0.01 1.47 -3.45 -2.36 22.51 3.52 -0.21 0.25 10087
-0.02 1.50 -4.08 -1.25 17.41 2.88 -0.26 -0.15 10094
-0.03 1.42 0.34 -1.14 13.16 2.66 -0.42 -0.49 10100
-0.03 1.43 3.65 -1.10 12.03 2.78 -0.46 -0.50 10106
-0.01 1.33 4.98 -2.11 20.10 2.97 -0.91 -0.35 10113
-0.00 1.36 3.11 -1.29 19.06 1.60 -2.06 -0.16 10120
0.00 1.33 0.87 -2.69 14.60 0.70 -1.33 0.10 10126
-0.01 1.39 -0.52 -1.68 11.90 0.21 -0.61 0.14 10132
0.01 1.30 0.07 -0.77 10.45 0.07 -0.24 0.07 10138
0.00 1.30 0.42 -0.98 10.33 0.01 -0.16 0.00 10145
-0.02 1.29 0.94 -1.06 10.11 -0.00 -0.13 0.00 10151
-0.00 1.29 0.87 -0.97 10.09 -0.01 -0.12 0.03 10158
-0.02 1.24 0.61 -0.66 9.97 -0.01 -0.11 0.03 10164
-0.01 1.25 0.05 -0.77 9.79 -0.01 -0.10 0.03 10171
-0.01 1.23 0.67 -0.54 9.99 0.00 -0.08 0.02 10177
0.01 1.13 0.81 -0.66 9.96 0.01 -0.07 0.02 10183
0.04 1.06 0.78 -0.64 9.99 0.01 -0.08 0.03 10189
0.05 0.99 0.60 -0.58 10.19 0.01 -0.07 0.02 10195
0.05 0.88 0.56 -0.61 10.14 0.01 -0.06 0.02 10203
0.08 0.84 0.63 -0.66 10.12 0.01 -0.05 0.03 10209
0.08 0.75 0.68 -0.69 10.13 0.02 -0.04 0.04 10215
0.10 0.74 0.68 -0.70 10.10 0.02 -0.04 0.04 10221
0.12 0.58 0.68 -0.65 10.06 0.02 -0.03 0.04 10228
0.12 0.58 0.66 -0.68 10.03 0.03 -0.04 0.04 10234
0.15 0.48 0.67 -0.65 9.99 0.03 -0.03 0.04 10241
0.15 0.42 0.62 -0.59 9.96 0.03 -0.03 0.04 10247
0.16 0.36 0.68 -0.60 10.05 0.04 -0.03 0.04 10253
0.19 0.32 0.72 -0.96 9.97 0.04 -0.03 0.04 10260
0.18 0.26 0.73 -0.66 10.00 0.04 -0.03 0.04 10266
0.20 0.20 0.59 -0.69 9.94 0.05 -0.03 0.03 10272
0.22 0.18 0.72 -0.69 10.01 0.05 -0.03 0.02 10278
0.22 0.11 0.78 -0.73 10.14 0.05 -0.03 0.02 10285
0.24 0.10 0.75 -0.69 9.98 0.05 -0.03 0.01 10292
0.26 0.11 0.76 -0.74 10.03 0.05 -0.04 0.01 10298
0.28 0.05 0.72 -0.91 10.15 0.05 -0.04 0.00 10304
0.29 0.05 0.70 -0.77 9.99 0.05 -0.04 0.01 10310
0.30 0.03 0.66 -0.71 10.00 0.05 -0.03 0.00 10316
0.30 0.02 0.66 -0.75 10.03 0.05 -0.03 0.01 10323
0.30 0.02 0.63 -0.76 10.00 0.05 -0.03 0.01 10330
0.35 0.00 0.63 -0.74 9.91 0.05 -0.03 0.01 10336
0.35 -0.02 0.69 -0.76 10.01 0.06 -0.03 0.02 10342
0.38 -0.02 0.71 -0.77 10.21 0.05 -0.03 0.02 10349
0.37 -0.04 0.72 -0.47 9.98 0.06 -0.03 0.01 10355
0.38 -0.02 0.59 -0.80 9.85 0.07 -0.03 0.01 10361
0.40 -0.04 0.78 -0.86 9.92 0.07 -0.02 0.01 10368
0.42 -0.04 0.72 -0.78 10.01 0.07 -0.03 -0.00 10374
0.44 -0.04 0.69 -0.80 10.01 0.07 -0.02 -0.01 10380
0.46 -0.04 0.72 -0.85 9.95 0.07 -0.02 -0.02 10387
0.49 -0.04 0.79 -0.84 10.02 0.07 -0.03 -0.03 10393
0.50 -0.04 0.71 -0.86 9.94 0.08 -0.03 -0.03 10399
0.54 -0.03 0.76 -0.86 9.98 0.08 -0.03 -0.04 10405
0.56 -0.06 0.79 -0.87 9.97 0.08 -0.04 -0.04 10412
0.62 -0.04 0.69 -0.84 10.03 0.08 -0.04 -0.04 10419
0.67 -0.05 0.80 -0.90 10.01 0.08 -0.04 -0.04 10425
0.69 -0.05 0.78 -0.87 10.01 0.08 -0.05 -0.04 10431
0.71 -0.04 0.69 -0.89 10.03 0.09 -0.05 -0.04 10437
0.76 -0.05 0.73 -0.93 10.00 0.10 -0.05 -0.05 10444
0.79 -0.05 0.72 -0.96 10.08 0.12 -0.04 -0.05 10450
0.85 -0.05 0.76 -0.94 10.12 0.15 -0.03 -0.06 10457
0.93 -0.06 0.75 -0.95 10.18 0.19 -0.03 -0.06 10463
0.96 -0.04 0.81 -0.98 10.33 0.24 -0.03 -0.07 10469
1.04 -0.06 0.85 -1.06 10.40 0.32 -0.03 -0.08 10476
1.12 -0.05 0.80 -1.07 10.54 0.43 -0.03 -0.09 10482
1.21 -0.05 0.88 -1.16 10.83 0.57 -0.03 -0.10 10488
1.25 -0.08 0.90 -1.19 11.05 0.74 -0.03 -0.12 10496
1.31 -0.04 1.02 -1.28 11.22 0.93 -0.03 -0.14 10502
1.43 -0.06 0.90 -1.34 11.52 1.11 -0.06 -0.16 10508
1.51 -0.06 0.95 -1.49 12.12 1.27 -0.12 -0.17 10514
1.53 -0.06 0.78 -1.56 12.35 1.42 -0.19 -0.16 10521
1.56 -0.06 0.89 -1.61 12.17 1.57 -0.26 -0.15 10527
1.67 -0.07 0.73 -1.60 12.34 1.73 -0.32 -0.14 10533
1.67 -0.07 0.63 -1.58 13.01 1.91 -0.37 -0.12 10540
1.72 -0.05 0.58 -1.70 13.08 2.09 -0.39 -0.12 10547
1.77 -0.07 0.79 -1.97 13.27 2.28 -0.42 -0.11 10553
1.80 -0.07 0.34 -2.09 13.38 2.45 -0.44 -0.12 10559
1.78 -0.07 0.58 -2.04 12.54 2.65 -0.42 -0.11 10566
1.79 -0.08 0.49 -2.33 13.49 2.88 -0.43 -0.12 10572
1.76 -0.06 0.31 -2.18 13.82 3.14 -0.42 -0.12 10578
1.79 -0.07 0.79 -2.62 14.53 3.44 -0.37 -0.13 10585
1.70 -0.04 1.15 -2.89 14.15 3.76 -0.35 -0.17 10592
1.60 -0.06 1.20 -2.69 15.36 4.08 -0.28 -0.21 10598
1.51 -0.06 1.77 -2.13 17.95 4.26 -0.29 -0.26 10604
1.41 -0.06 0.88 -2.97 17.59 4.28 -0.35 -0.28 10611
1.28 -0.05 1.69 -3.19 17.59 4.28 -0.54 -0.35 10617
1.17 -0.05 3.33 -4.81 19.51 4.28 -0.78 -0.47 10624
0.99 -0.05 2.94 -5.98 20.08 4.28 -1.04 -0.67 10630
0.90 -0.02 3.22 -8.12 25.93 4.28 -1.24 -0.87 10637
0.74 -0.03 1.78 -11.23 30.39 4.28 -1.30 -0.90 10643
0.61 -0.03 1.33 -14.94 36.00 4.28 -1.20 -0.87 10649
0.52 -0.02 2.17 -14.45 34.79 4.28 -0.98 -0.82 10656
0.41 -0.02 2.09 -13.28 30.49 4.28 -0.82 -0.80 10662
0.33 -0.01 1.95 -10.05 30.22 4.28 -0.62 -0.84 10669
0.25 -0.01 1.59 -6.58 30.88 4.28 -0.58 -0.90 10676
0.21 -0.01 0.46 -2.80 30.57 4.28 -0.79 -0.95 10682
0.14 -0.01 2.10 -0.52 30.13 4.28 -1.29 -0.99 10688
0.09 0.00 5.66 3.70 29.43 4.28 -1.80 -1.00 10694
0.08 -0.01 9.67 6.99 31.05 4.28 -1.99 -0.99 10701
0.06 -0.01 12.11 8.28 30.19 4.28 -1.65 -0.96 10707
0.07 -0.01 13.20 14.43 20.85 4.28 -0.85 -1.04 10714
0.04 -0.00 10.99 19.66 17.98 4.28 0.35 -1.57 10720
0.07 -0.01 9.97 22.62 -5.05 4.16 1.20 -2.23 10727
0.05 -0.00 8.62 24.58 12.53 2.66 1.23 -2.74 10733
0.05 -0.01 6.47 21.41 31.11 0.23 1.94 -2.65 10739
0.05 -0.01 4.79 18.75 30.21 -1.94 2.34 -2.32 10745
0.05 -0.00 1.12 15.70 19.56 -3.36 1.87 -2.03 10753
0.06 -0.01 -0.82 12.73 15.40 -4.12 0.97 -1.64 10759
0.06 -0.01 -0.88 10.03 13.96 -4.28 0.19 -1.31 10765
0.05 -0.00 0.35 8.12 11.18 -4.28 -0.34 -0.99 10771
0.04 -0.00 1.84 6.33 8.90 -4.28 -0.67 -0.79 10778
0.04 -0.00 2.95 4.73 7.10 -4.28 -0.84 -0.67 10784
0.05 -0.00 3.44 3.53 5.94 -4.28 -0.86 -0.60 10790
0.05 -0.00 3.97 2.62 5.29 -4.28 -0.74 -0.54 10797
0.06 -0.01 4.67 1.92 5.17 -4.28 -0.51 -0.52 10803
0.05 -0.01 5.18 1.38 5.92 -4.26 -0.20 -0.53 10809
0.07 -0.01 5.55 1.28 6.68 -4.20 0.19 -0.56 10816
0.05 -0.01 4.98 1.51 7.41 -4.16 0.54 -0.60 10822
0.07 -0.01 5.24 2.42 7.95 -4.16 0.99 -0.60 10828
0.07 -0.01 4.71 2.23 8.80 -4.20 1.40 -0.57 10834
0.06 -0.01 4.06 2.27 9.73 -4.24 1.74 -0.48 10841
0.04 -0.00 3.42 2.03 10.90 -4.27 1.98 -0.35 10847
0.06 -0.00 2.69 1.52 11.87 -4.28 2.13 -0.20 10854
0.06 -0.01 2.05 0.86 12.61 -4.28 2.18 -0.03 10860
0.05 -0.00 1.68 0.04 12.95 -4.28 2.13 0.15 10866
0.07 -0.01 1.59 -0.73 13.20 -4.28 2.03 0.32 10872
0.07 -0.01 1.44 -1.66 13.50 -4.28 1.89 0.46 10878
0.06 -0.01 1.62 -2.42 13.80 -4.28 1.80 0.56 10886
0.06 -0.00 1.65 -2.99 14.41 -4.28 1.76 0.64 10892
0.07 -0.01 1.87 -3.67 15.47 -4.28 1.83 0.68 10898
0.05 0.01 2.20 -4.16 15.88 -4.28 1.99 0.72 10904
0.05 -0.01 1.52 -4.39 17.57 -4.27 2.10 0.71 10911
0.05 -0.01 1.92 -4.76 18.26 -4.26 2.30 0.65 10917
0.06 -0.01 1.49 -5.11 18.86 -4.26 2.49 0.60 10924
0.06 -0.01 0.93 -5.47 19.25 -4.26 2.64 0.57 10930
0.05 -0.01 0.23 -5.81 19.63 -4.26 2.74 0.56 10936
0.05 -0.01 -0.45 -6.21 19.91 -4.26 2.76 0.57 10943
0.05 -0.00 -1.02 -6.53 20.58 -4.23 2.69 0.62 10949
0.05 0.00 -1.46 -6.88 21.00 -4.20 2.56 0.73 10955
0.05 -0.00 -1.73 -7.17 21.38 -4.14 2.38 0.79 10961
0.04 -0.00 -1.76 -7.69 21.60 -4.06 2.19 0.89 10969
0.05 -0.01 -1.45 -8.55 21.70 -3.96 2.02 0.98 10975
0.05 -0.01 -1.05 -9.68 21.98 -3.83 1.85 1.05 10981
0.04 -0.00 -0.66 -10.75 22.19 -3.67 1.72 1.08 10987
0.06 -0.01 -0.18 -11.91 22.41 -3.52 1.60 1.09 10994
0.05 -0.01 0.27 -13.01 22.22 -3.37 1.50 1.07 11000
0.06 0.00 0.55 -13.97 21.68 -3.23 1.43 1.05 11006
0.06 -0.01 0.66 -14.83 21.10 -3.08 1.40 1.03 11013
0.05 -0.01 0.35 -15.62 20.37 -2.91 1.43 1.05 11020
0.06 -0.01 -0.01 -16.50 19.93 -2.73 1.49 1.13 11026
0.05 -0.00 -0.81 -17.01 19.42 -2.58 1.55 1.26 11032
0.06 -0.01 -1.84 -17.52 18.59 -2.48 1.61 1.43 11038
0.06 -0.01 -3.07 -18.10 18.04 -2.44 1.67 1.63 11045
0.05 -0.01 -4.16 -19.55 17.88 -2.47 1.70 1.85 11052
0.06 -0.01 -5.09 -22.04 16.84 -2.54 1.54 2.00 11058
0.05 -0.00 -5.78 -25.18 14.05 -2.59 1.22 2.09 11064
0.07 -0.01 -5.67 -28.11 10.95 -2.60 0.89 2.11 11071
0.06 -0.01 -5.68 -30.73 6.76 -2.48 0.70 2.05 11077
0.05 0.01 -5.67 -33.64 3.34 -2.19 0.71 1.92 11083
0.06 -0.00 -5.66 -34.89 1.39 -1.76 0.80 1.71 11089
0.04 0.00 -6.88 -35.46 0.61 -1.20 0.92 1.43 11097
0.06 -0.00 -6.74 -33.41 1.09 -0.60 0.98 1.06 11103
0.05 -0.01 -7.01 -30.40 2.69 -0.06 0.83 0.62 11109
0.06 0.00 -6.56 -26.70 5.08 0.36 0.54 0.17 11115
0.06 -0.01 -7.42 -35.96 -5.81 0.64 0.05 -0.18 11122
0.06 -0.01 -5.55 -28.54 -4.85 3.19 -0.98 -0.04 11128
0.07 -0.00 -5.26 -15.20 7.63 2.93 -1.04 0.03 11134
0.05 0.02 -1.35 -18.20 -5.32 2.59 -2.25 0.06 11141
0.05 0.11 -0.89 -8.26 -2.22 1.99 -3.77 0.02 11148
0.04 0.28 2.97 5.40 16.36 2.39 -2.77 0.32 11154
0.02 0.57 8.42 6.85 16.69 3.16 -0.51 0.92 11160
0.01 0.88 -0.53 2.31 18.87 3.96 -0.30 1.16 11166
-0.01 1.14 -8.95 -6.58 28.00 4.28 -0.81 0.91 11173
-0.01 1.37 -6.15 -8.19 23.17 4.28 -0.95 0.46 11180
-0.01 1.54 -3.57 -3.48 24.43 4.27 -0.44 0.22 11186
-0.03 1.71 -5.48 -1.85 22.66 3.87 -0.13 -0.11 11193
-0.02 1.71 -2.42 -1.73 16.67 3.33 -0.28 -0.60 11199
-0.03 1.73 3.55 -1.84 13.61 3.21 -0.42 -0.80 11205
-0.02 1.66 5.45 -2.35 15.38 3.46 -0.59 -0.66 11211
-0.01 1.59 4.72 -4.04 32.35 3.11 -1.90 -0.44 11218
-0.02 1.58 3.40 -3.12 15.06 1.32 -2.02 -0.06 11225
-0.01 1.58 -0.14 -2.54 14.03 0.60 -1.13 0.16 11231
-0.02 1.51 -0.60 -1.21 11.74 0.23 -0.54 0.13 11237
0.00 1.53 0.02 -0.56 10.49 0.08 -0.25 0.03 11244
-0.01 1.45 0.82 -1.03 10.32 0.05 -0.19 0.00 11250
-0.00 1.43 1.14 -1.14 9.70 0.03 -0.16 0.03 11256
-0.00 1.40 0.75 -0.90 10.00 0.02 -0.13 0.05 11262
-0.02 1.37 0.41 -0.68 9.97 0.01 -0.09 0.05 11270
-0.02 1.37 0.58 -0.70 9.86 0.00 -0.04 0.03 11276
0.00 1.25 0.73 -0.80 10.02 0.01 -0.05 0.03 11282
-0.01 1.19 0.87 -0.82 10.03 0.01 -0.06 0.03 11288
0.02 1.07 0.71 -0.81 10.03 0.02 -0.06 0.03 11294
0.04 1.02 0.63 -0.80 10.09 0.02 -0.05 0.03 11301
0.06 0.91 0.59 -0.78 10.13 0.02 -0.04 0.03 11308
0.08 0.82 0.70 -0.82 10.10 0.03 -0.04 0.04 11314
0.05 0.78 0.65 -0.78 10.08 0.03 -0.04 0.04 11320
0.07 0.70 0.68 -0.86 10.03 0.03 -0.03 0.04 11327
0.08 0.65 0.65 -0.73 10.07 0.04 -0.02 0.04 11333
0.10 0.54 0.71 -0.65 10.03 0.05 -0.02 0.04 11339
0.11 0.44 0.77 -0.95 10.16 0.05 -0.01 0.04 11345
0.12 0.42 0.66 -0.85 9.97 0.06 -0.01 0.05 11353
0.13 0.34 0.65 -0.80 10.00 0.06 -0.00 0.04 11359
0.14 0.24 0.74 -0.42 10.02 0.06 -0.00 0.04 11365
0.14 0.19 0.78 -0.83 9.94 0.07 -0.00 0.04 11371
0.15 0.17 0.79 -0.91 9.96 0.07 -0.00 0.03 11377
0.18 0.09 0.75 -0.74 9.98 0.10 -0.00 0.03 11384
0.17 0.05 0.76 -0.80 9.95 0.06 -0.01 0.02 11390
0.18 0.07 0.78 -0.88 9.95 0.06 -0.01 0.02 11397
0.21 0.03 0.76 -0.86 9.98 0.06 -0.01 0.01 11403
0.25 -0.00 0.70 -0.87 9.96 0.05 -0.01 0.01 11409
0.27 0.02 0.77 -0.94 9.99 0.05 -0.01 0.01 11415
0.29 0.00 0.70 -0.91 9.95 0.05 -0.01 0.01 11422
0.29 -0.02 0.71 -0.97 10.04 0.05 -0.01 0.01 11428
0.30 -0.00 0.76 -0.94 9.92 0.06 -0.00 0.01 11435
0.34 -0.02 0.73 -0.96 9.92 0.05 -0.01 0.01 11441
0.33 -0.03 0.73 -0.91 9.92 0.06 -0.01 0.01 11447
0.32 -0.03 0.74 -0.86 9.91 0.05 -0.01 0.01 11453
0.34 -0.03 0.83 -1.04 9.98 0.06 -0.02 0.00 11460
0.33 -0.03 0.80 -1.03 10.01 0.05 -0.02 -0.00 11466
0.37 -0.04 0.81 -0.99 9.92 0.04 -0.02 -0.01 11472
0.36 -0.04 0.81 -0.97 9.90 0.03 -0.02 -0.02 11479
0.39 -0.04 0.80 -1.00 9.92 0.02 -0.03 -0.02 11485
0.38 -0.03 0.80 -1.01 9.92 0.02 -0.03 -0.02 11491
0.42 -0.03 0.84 -1.00 9.90 0.02 -0.03 -0.03 11498
0.41 -0.04 0.86 -1.03 9.94 0.02 -0.04 -0.03 11504
0.43 -0.04 0.84 -0.99 9.97 0.03 -0.04 -0.04 11510
0.48 -0.02 0.79 -0.99 10.03 0.03 -0.04 -0.05 11516
0.51 -0.03 0.75 -1.04 9.99 0.04 -0.03 -0.05 11523
0.55 -0.04 0.84 -0.98 10.01 0.06 -0.03 -0.05 11530
0.65 -0.04 0.78 -1.03 10.04 0.08 -0.03 -0.05 11536
0.65 -0.03 0.78 -1.00 10.14 0.11 -0.02 -0.06 11542
0.70 -0.04 0.80 -1.05 10.17 0.14 -0.00 -0.05 11548
0.77 -0.03 0.71 -1.08 10.24 0.20 0.01 -0.05 11555
0.83 -0.04 0.69 -1.11 10.16 0.26 0.02 -0.04 11561
0.88 -0.03 0.75 -1.17 10.39 0.34 0.04 -0.04 11568
0.97 -0.05 0.79 -1.18 10.60 0.45 0.08 -0.04 11574
1.00 -0.05 0.89 -1.31 10.78 0.61 0.12 -0.05 11581
1.02 -0.05 1.20 -1.88 11.46 0.78 0.16 -0.07 11587
1.08 -0.05 1.24 -1.40 11.14 0.99 0.17 -0.08 11593
1.15 -0.05 1.21 -1.60 11.67 1.19 0.15 -0.10 11599
1.23 -0.06 1.20 -1.56 11.98 1.35 0.07 -0.13 11607
1.26 -0.05 1.40 -1.21 12.25 1.50 -0.07 -0.16 11613
1.33 -0.05 1.08 -1.71 12.75 1.63 -0.16 -0.16 11619
1.41 -0.06 1.17 -1.75 12.55 1.78 -0.26 -0.17 11625
1.47 -0.05 0.67 -1.98 13.34 1.95 -0.30 -0.18 11632
1.48 -0.05 0.97 -2.25 12.93 2.14 -0.34 -0.18 11638
1.50 -0.05 0.97 -2.01 12.97 2.35 -0.39 -0.16 11644
1.53 -0.06 0.81 -2.15 13.22 2.52 -0.42 -0.17 11652
1.57 -0.05 0.90 -2.29 13.25 2.72 -0.41 -0.16 11658
1.56 -0.04 0.63 -2.60 13.50 2.97 -0.40 -0.16 11664
1.57 -0.06 0.90 -2.50 13.48 3.25 -0.35 -0.16 11670
1.53 -0.05 1.02 -2.70 13.63 3.56 -0.30 -0.16 11677
1.46 -0.05 0.86 -2.72 14.24 3.94 -0.23 -0.18 11683
1.36 -0.04 0.40 -3.04 14.43 4.19 -0.10 -0.18 11689
1.29 -0.05 0.17 -3.11 16.87 4.28 0.03 -0.13 11696
1.13 -0.04 1.40 -3.17 17.46 4.28 -0.00 -0.11 11703
1.01 -0.05 2.50 -3.82 18.73 4.28 -0.07 -0.19 11709
0.82 -0.04 2.59 -5.44 19.85 4.28 -0.18 -0.33 11715
0.73 -0.02 1.60 -7.08 23.95 4.28 -0.30 -0.42 11722
0.62 -0.03 3.71 -6.84 27.47 4.28 -0.41 -0.48 11728
0.55 -0.01 2.16 -13.58 33.67 4.28 -0.35 -0.46 11735
0.50 -0.03 2.36 -15.60 37.00 4.28 -0.11 -0.38 11741
0.37 -0.00 3.04 -14.77 32.69 4.28 0.08 -0.34 11748
0.31 -0.01 1.60 -12.89 31.30 4.28 0.27 -0.39 11754
0.23 -0.00 0.87 -8.65 29.72 4.28 0.34 -0.41 11760
0.17 -0.00 -0.93 -6.05 33.51 4.28 0.23 -0.49 11767
0.11 -0.00 0.68 -3.32 35.08 4.28 -0.29 -0.58 11773
0.12 -0.01 4.11 0.57 34.63 4.28 -0.90 -0.65 11780
0.08 -0.01 7.72 5.47 34.38 4.28 -1.29 -0.68 11786
0.05 0.01 8.78 9.72 34.10 4.28 -1.17 -0.62 11793
0.05 0.00 11.91 17.15 26.28 4.28 -0.55 -0.65 11799
0.04 -0.00 8.95 22.08 20.17 4.28 0.53 -1.04 11805
0.05 -0.00 9.22 24.21 -2.73 3.99 1.06 -1.91 11811
0.04 -0.00 8.06 25.54 6.88 2.90 0.94 -2.63 11819
0.06 -0.01 6.78 21.08 27.37 0.67 1.58 -2.85 11825
0.07 -0.01 6.46 18.10 31.27 -1.38 2.27 -2.82 11831
0.04 -0.00 3.32 15.89 22.58 -2.69 2.27 -2.77 11837
0.05 -0.00 1.18 14.75 16.37 -3.46 1.71 -2.61 11844
0.04 -0.00 0.17 12.97 14.08 -4.06 1.16 -2.33 11850
0.05 0.00 0.52 11.02 12.09 -4.28 0.81 -2.01 11856
0.05 -0.00 1.83 8.77 10.21 -4.28 0.55 -1.73 11863
0.05 -0.01 2.45 6.88 9.08 -4.28 0.30 -1.53 11870
0.07 -0.01 2.74 5.64 8.27 -4.28 0.12 -1.36 11876
0.05 -0.01 2.94 4.89 7.96 -4.28 0.03 -1.19 11882
0.05 -0.00 3.13 4.20 8.04 -4.28 0.04 -1.06 11888
0.06 -0.00 3.98 3.63 8.18 -4.28 0.16 -0.90 11894
0.04 -0.00 4.42 3.21 8.30 -4.28 0.32 -0.78 11900
0.04 -0.00 4.48 2.93 8.84 -4.28 0.50 -0.67 11908
0.04 0.01 4.18 2.82 9.32 -4.28 0.70 -0.57 11914
0.05 -0.01 3.76 2.64 9.73 -4.28 0.93 -0.44 11920
0.05 -0.00 3.39 2.09 10.19 -4.28 1.18 -0.30 11926
0.05 -0.00 2.85 1.45 10.81 -4.28 1.41 -0.15 11932
0.05 -0.00 2.32 0.73 11.53 -4.28 1.59 -0.00 11939
0.04 -0.00 1.26 0.12 12.52 -4.28 1.73 0.14 11945
0.05 -0.01 1.51 -0.39 13.71 -4.28 1.79 0.27 11952
0.04 -0.00 1.29 -0.75 14.95 -4.28 1.85 0.38 11958
0.04 -0.00 1.13 -1.74 15.72 -4.28 1.89 0.45 11964
0.04 -0.00 0.91 -1.71 16.55 -4.28 1.93 0.53 11971
0.03 -0.00 0.76 -2.28 17.48 -4.28 1.98 0.52 11977
0.04 -0.00 0.59 -3.04 18.11 -4.28 2.05 0.51 11983
0.05 -0.01 0.17 -3.95 18.76 -4.28 2.11 0.49 11990
0.05 -0.00 -0.80 -4.82 19.26 -4.28 2.18 0.45 11997
0.05 0.01 -0.69 -5.69 19.29 -4.28 2.21 0.40 12003
0.05 -0.00 -1.09 -6.12 19.22 -4.28 2.20 0.36 12009
0.03 -0.00 -1.28 -6.38 19.16 -4.28 2.16 0.35 12015
0.04 0.00 -1.34 -6.53 19.05 -4.28 2.12 0.37 12021
0.05 -0.00 -1.35 -6.76 18.87 -4.25 2.08 0.41 12028
0.04 -0.00 -1.42 -7.17 19.00 -4.13 2.05 0.46 12035
0.05 -0.01 -1.50 -7.61 19.63 -3.90 2.02 0.53 12041
0.04 -0.00 -1.62 -7.97 20.92 -3.60 1.96 0.61 12047
0.04 0.01 -1.75 -8.16 22.35 -3.36 1.84 0.69 12054
0.04 -0.00 -1.83 -8.49 23.43 -3.24 1.65 0.78 12060
0.03 -0.00 -1.92 -9.00 23.90 -3.18 1.40 0.87 12066
0.04 0.01 -1.77 -9.83 23.69 -3.19 1.13 0.96 12072
0.05 -0.00 -1.58 -11.20 23.06 -3.20 0.78 1.05 12080
0.05 0.00 -1.15 -12.82 22.43 -3.17 0.47 1.12 12086
0.05 -0.01 -0.40 -14.69 21.43 -3.08 0.11 1.19 12092
0.04 -0.00 0.18 -16.37 20.30 -2.92 -0.11 1.25 12098
0.06 -0.00 0.89 -17.55 19.40 -2.75 -0.18 1.31 12105
0.04 -0.00 0.89 -17.82 19.24 -2.62 -0.03 1.37 12111
0.05 0.01 0.69 -17.68 20.39 -2.64 0.49 1.46 12118
0.04 -0.00 -0.46 -18.25 21.12 -2.88 1.14 1.52 12124
0.05 -0.01 -1.62 -20.02 20.30 -3.26 1.58 1.52 12131
0.05 -0.00 -2.69 -22.33 17.80 -3.60 1.77 1.54 12137
0.04 -0.00 -3.64 -25.77 14.49 -3.78 1.74 1.60 12143
0.06 -0.00 -4.49 -29.05 10.10 -3.71 1.69 1.67 12150
0.04 -0.00 -4.93 -32.36 6.21 -3.36 1.56 1.72 12156
0.04 0.00 -5.79 -34.85 2.93 -2.85 1.36 1.72 12163
0.05 -0.01 -6.53 -35.69 0.82 -2.26 1.14 1.63 12169
0.04 -0.00 -6.16 -34.91 -0.44 -1.67 0.94 1.47 12175
0.05 -0.00 -6.50 -33.66 0.19 -1.11 0.73 1.22 12182
0.04 -0.00 -6.26 -31.13 2.23 -0.63 0.48 0.91 12188
0.04 0.00 -4.40 -53.14 -7.84 -0.19 0.18 0.61 12194
0.05 -0.00 -5.80 -29.31 -1.72 2.40 0.41 0.41 12200
0.04 -0.00 -7.08 -20.22 0.62 2.31 0.50 0.36 12208
0.03 0.03 -6.31 -27.04 -2.08 2.19 -0.17 0.25 12214
0.04 0.09 -7.14 -38.49 -5.85 1.94 -1.84 0.11 12220
0.03 0.22 -3.92 -4.25 -2.77 2.29 -2.85 0.10 12226
0.03 0.46 2.91 -4.93 21.52 3.43 -1.96 0.18 12233
0.01 0.75 7.04 6.05 23.77 4.28 -0.90 0.46 12239
-0.00 1.11 -1.92 -3.54 27.87 4.28 -0.83 0.65 12246
-0.01 1.38 -5.37 -6.99 30.52 4.28 -1.05 0.47 12252
-0.02 1.60 -2.09 -5.10 26.66 4.28 -0.83 0.26 12259
-0.00 1.78 -2.23 -3.77 23.99 4.27 -0.29 0.14 12265
-0.02 1.79 -3.74 -2.36 20.35 3.93 -0.13 -0.17 12271
-0.03 1.76 -0.34 -1.97 18.08 3.53 -0.27 -0.60 12278
-0.03 1.72 3.10 -2.15 18.29 3.34 -0.40 -0.63 12284
-0.00 1.62 4.82 -3.56 28.63 2.90 -1.19 -0.49 12291
-0.01 1.58 4.22 -2.46 13.96 1.29 -1.71 -0.15 12297
-0.02 1.56 1.10 -2.10 12.85 0.66 -1.13 0.12 12304
0.00 1.52 0.05 -0.80 11.03 0.35 -0.73 0.11 12310
-0.02 1.46 -0.08 -0.35 10.52 0.20 -0.47 0.01 12316
-0.01 1.45 0.51 -0.92 10.46 0.12 -0.32 0.03 12322
-0.02 1.35 0.90 -1.20 10.13 0.06 -0.22 0.02 12329
-0.00 1.36 0.85 -0.72 10.24 0.04 -0.18 0.04 12336
-0.01 1.33 0.53 -0.48 10.08 0.03 -0.14 0.04 12342
-0.01 1.27 0.55 -0.57 9.91 0.02 -0.10 0.03 12348
0.00 1.22 0.69 -0.64 9.94 0.00 -0.08 0.02 12355
0.01 1.13 0.78 -0.69 9.88 0.01 -0.07 0.03 12361
0.01 1.12 0.65 -0.63 9.98 0.01 -0.05 0.03 12367
0.02 1.01 0.65 -0.66 10.03 0.01 -0.05 0.03 12374
0.07 0.90 0.62 -0.68 10.14 0.02 -0.04 0.03 12380
0.08 0.75 0.69 -0.70 10.05 0.02 -0.03 0.04 12387
0.11 0.75 0.68 -0.72 10.10 0.03 -0.03 0.03 12393
0.12 0.64 0.74 -0.71 10.10 0.04 -0.03 0.03 12399
0.11 0.55 0.75 -0.50 10.12 0.04 -0.03 0.03 12405
0.12 0.53 0.86 -0.91 10.17 0.05 -0.03 0.04 12412
0.12 0.40 0.66 -0.67 10.12 0.06 -0.02 0.03 12419
0.16 0.35 0.68 -0.64 10.10 0.06 -0.02 0.04 12425
0.17 0.27 0.88 -0.94 10.19 0.07 -0.01 0.03 12431
0.20 0.21 0.77 -0.40 10.03 0.08 -0.01 0.03 12438
0.19 0.19 0.76 -0.74 10.06 0.08 -0.00 0.02 12444
0.20 0.12 0.68 -0.67 10.00 0.08 -0.00 0.02 12450
0.23 0.09 0.82 -0.77 10.14 0.08 -0.00 0.02 12456
0.25 0.04 0.79 -0.72 10.03 0.08 -0.00 0.01 12463
0.24 0.02 0.88 -0.77 9.96 0.07 0.00 0.01 12470
0.27 0.01 0.78 -0.85 10.00 0.07 0.00 0.01 12476
0.32 0.01 0.78 -0.72 10.07 0.07 0.00 0.01 12482
0.33 -0.03 0.81 -0.70 10.29 0.07 0.00 0.01 12488
0.35 -0.03 0.82 -0.71 10.10 0.08 -0.00 0.01 12494
0.32 -0.03 0.83 -0.86 10.30 0.08 0.00 0.02 12502
0.31 -0.03 0.85 -0.74 10.05 0.09 0.00 0.01 12508
0.33 -0.02 0.80 -0.79 10.04 0.10 0.01 0.01 12514
0.33 -0.03 0.85 -0.79 9.96 0.11 0.00 0.00 12520
0.35 -0.03 0.88 -0.83 10.05 0.12 0.00 -0.00 12526
0.37 -0.02 1.10 -1.18 9.95 0.12 -0.00 -0.01 12533
0.37 -0.04 0.55 -0.78 9.93 0.13 -0.01 -0.02 12539
0.41 -0.03 0.83 -0.87 9.92 0.14 -0.02 -0.03 12546
0.47 -0.02 0.85 -0.97 9.91 0.13 -0.04 -0.03 12552
0.48 -0.04 0.90 -0.91 9.95 0.14 -0.04 -0.05 12558
0.44 -0.03 1.09 -1.04 9.89 0.13 -0.05 -0.06 12565
0.54 -0.05 0.86 -1.00 9.84 0.10 -0.07 -0.07 12571
0.53 -0.05 0.86 -0.91 9.93 0.09 -0.07 -0.07 12577
0.52 -0.03 0.88 -0.95 9.85 0.08 -0.07 -0.08 12583
0.55 -0.04 0.79 -0.94 9.76 0.07 -0.08 -0.09 12590
0.55 -0.05 0.89 -1.02 9.91 0.06 -0.08 -0.09 12596
0.62 -0.03 0.15 -2.78 9.88 0.07 -0.07 -0.11 12603
0.66 -0.04 0.71 -0.98 9.96 0.08 -0.07 -0.10 12609
0.71 -0.05 0.76 -1.03 10.09 0.09 -0.06 -0.10 12615
0.77 -0.03 0.78 -1.02 10.07 0.10 -0.06 -0.10 12621
0.83 -0.04 0.79 -0.99 10.11 0.16 -0.05 -0.10 12628
0.87 -0.04 0.74 -1.04 10.16 0.19 -0.04 -0.10 12635
0.93 -0.04 0.67 -1.08 10.30 0.21 -0.02 -0.09 12641
1.00 -0.06 0.73 -1.07 10.42 0.28 -0.02 -0.08 12647
1.01 -0.04 0.83 -1.17 10.55 0.38 -0.02 -0.08 12654
1.08 -0.05 0.94 -1.22 10.84 0.50 -0.02 -0.09 12660
1.13 -0.06 0.95 -1.28 11.11 0.65 -0.03 -0.10 12666
1.23 -0.05 1.03 -1.34 11.03 0.81 -0.06 -0.12 12673
1.30 -0.07 1.11 -1.42 11.25 0.97 -0.11 -0.14 12680
1.40 -0.05 1.15 -1.60 11.78 1.11 -0.16 -0.16 12686
1.47 -0.06 1.08 -1.53 11.76 1.26 -0.21 -0.17 12692
1.53 -0.06 0.84 -1.57 12.06 1.40 -0.27 -0.18 12699
1.60 -0.06 0.91 -1.75 11.98 1.53 -0.33 -0.18 12705
1.67 -0.06 0.75 -1.75 12.35 1.67 -0.36 -0.18 12711
1.72 -0.06 0.72 -1.81 12.47 1.83 -0.39 -0.17 12718
1.76 -0.07 0.74 -2.03 12.73 2.02 -0.43 -0.16 12725
1.80 -0.05 1.80 0.36 12.74 2.16 -0.45 -0.20 12731
1.83 -0.08 0.73 -2.27 12.81 2.36 -0.47 -0.15 12737
1.82 -0.06 1.17 -1.31 12.18 2.54 -0.47 -0.18 12743
1.83 -0.07 0.56 -2.49 13.22 2.75 -0.50 -0.17 12750
1.81 -0.06 0.41 -2.34 13.51 3.03 -0.51 -0.18 12756
1.79 -0.06 0.47 -2.53 13.95 3.30 -0.48 -0.17 12763
1.72 -0.08 0.41 -2.91 14.37 3.60 -0.41 -0.18 12770
1.66 -0.05 0.25 -2.42 14.74 3.91 -0.34 -0.18 12776
1.54 -0.06 0.34 -2.94 16.08 4.19 -0.24 -0.17 12782
1.41 -0.05 0.82 -3.12 16.49 4.28 -0.24 -0.17 12788
1.28 -0.06 2.36 -3.69 17.31 4.28 -0.30 -0.22 12795
1.14 -0.04 2.65 -4.19 17.83 4.28 -0.48 -0.37 12802
0.95 -0.05 2.10 -5.58 20.31 4.28 -0.58 -0.52 12808
0.84 -0.04 1.23 -8.24 23.69 4.28 -0.75 -0.60 12815
0.75 -0.04 1.27 -8.52 28.28 4.28 -0.78 -0.63 12821
0.62 -0.06 1.14 -14.15 33.33 4.28 -0.69 -0.60 12827
0.53 -0.03 1.49 -15.50 34.50 4.28 -0.45 -0.53 12833
0.38 -0.03 2.76 -12.67 29.74 4.28 -0.25 -0.53 12840
0.29 -0.01 1.91 -10.73 28.33 4.28 -0.02 -0.55 12847
0.23 -0.02 0.79 -6.86 28.56 4.28 0.17 -0.58 12853
0.15 -0.00 -0.41 -4.93 32.87 4.28 0.03 -0.64 12860
0.17 -0.01 1.09 -3.23 33.63 4.28 -0.56 -0.75 12866
0.14 -0.01 4.57 0.51 32.74 4.28 -1.22 -0.84 12872
0.09 0.00 7.81 5.24 32.09 4.28 -1.63 -0.90 12878
0.07 -0.01 9.80 9.35 32.42 4.28 -1.64 -0.89 12886
0.06 -0.01 11.61 18.29 25.71 4.28 -1.10 -0.84 12892
0.07 -0.01 12.03 22.60 19.31 4.28 -0.29 -1.13 12898
0.05 -0.00 10.02 27.33 -2.43 3.89 0.39 -1.81 12904
0.06 -0.01 8.60 27.08 6.62 2.51 0.50 -2.43 12911
0.05 -0.00 9.53 20.50 28.15 0.48 1.48 -2.50 12917
0.04 -0.00 8.00 17.75 32.38 -1.56 2.23 -2.31 12923
0.05 -0.01 4.68 17.10 22.87 -2.91 2.27 -2.09 12930
0.04 -0.00 1.95 15.57 16.46 -3.74 1.72 -1.81 12937
0.05 -0.01 1.02 13.27 14.35 -4.24 1.14 -1.46 12943
0.05 -0.01 1.34 10.40 13.06 -4.28 0.73 -1.14 12949
0.06 -0.01 2.34 8.27 11.40 -4.28 0.41 -0.90 12955
0.06 -0.00 2.91 6.35 9.94 -4.28 0.16 -0.73 12962
0.05 -0.00 3.22 4.87 9.05 -4.28 0.01 -0.59 12968
0.05 -0.01 3.44 3.56 8.49 -4.28 -0.05 -0.48 12975
0.07 -0.01 3.77 2.68 8.25 -4.28 -0.02 -0.37 12981
0.05 -0.01 4.30 2.09 8.53 -4.28 0.05 -0.30 12987
0.04 -0.00 4.82 1.72 8.80 -4.28 0.18 -0.28 12993
0.05 -0.01 5.14 1.46 9.11 -4.28 0.32 -0.27 13000
0.06 -0.01 5.11 1.36 9.68 -4.28 0.50 -0.27 13006
0.05 -0.00 4.83 1.30 10.16 -4.28 0.72 -0.26 13012
0.06 -0.00 4.47 0.94 10.58 -4.28 0.99 -0.24 13019
0.05 -0.00 4.16 0.21 11.12 -4.28 1.28 -0.19 13025
0.04 -0.00 3.80 -0.55 12.20 -4.28 1.52 -0.15 13032
0.06 -0.01 3.30 -1.21 13.28 -4.28 1.67 -0.11 13038
0.06 -0.01 2.95 -1.86 14.18 -4.28 1.77 -0.07 13044
0.05 -0.01 2.69 -2.56 14.93 -4.28 1.84 -0.02 13050
0.06 -0.01 2.43 -3.32 15.37 -4.28 1.93 0.03 13057
0.05 -0.01 2.26 -4.06 15.68 -4.28 1.97 0.08 13064
0.06 -0.01 2.19 -4.76 16.26 -4.28 2.04 0.11 13070
0.04 -0.00 2.12 -6.00 16.71 -4.28 2.11 0.14 13076
0.05 -0.00 1.97 -6.04 16.27 -4.28 2.21 0.17 13082
0.05 0.01 1.89 -6.82 18.01 -4.28 2.16 0.22 13089
0.05 -0.00 1.94 -6.97 17.55 -4.28 2.13 0.23 13095
0.04 0.00 1.31 -6.84 17.80 -4.26 2.12 0.27 13102
0.06 -0.01 1.32 -6.77 18.04 -4.21 2.16 0.36 13108
0.05 -0.01 1.16 -7.07 18.55 -4.12 2.22 0.45 13114
0.05 -0.00 0.98 -7.23 19.25 -3.98 2.28 0.53 13121
0.05 -0.00 0.61 -7.43 19.85 -3.81 2.35 0.61 13127
0.04 -0.00 0.05 -7.53 20.75 -3.65 2.41 0.69 13133
0.04 0.01 -0.58 -7.65 21.62 -3.53 2.42 0.76 13139
0.04 -0.00 -1.18 -7.86 22.54 -3.44 2.36 0.80 13147
0.03 -0.00 -1.76 -8.12 23.24 -3.40 2.27 0.82 13153
0.06 -0.01 -2.14 -8.40 23.43 -3.41 2.12 0.84 13159
0.06 -0.01 -2.15 -9.10 23.02 -3.45 1.95 0.83 13165
0.05 -0.00 -1.89 -10.11 22.36 -3.48 1.71 0.81 13172
0.05 -0.00 -1.57 -11.17 21.35 -3.47 1.47 0.80 13178
0.05 0.00 -1.12 -12.04 20.31 -3.38 1.25 0.80 13185
0.05 -0.01 -1.13 -13.85 19.41 -3.24 1.06 0.82 13191
0.04 -0.00 -2.00 -15.69 27.68 -2.74 0.67 0.88 13198
0.06 -0.01 0.54 -12.39 10.92 -2.81 0.79 0.94 13204
0.05 -0.00 0.32 -14.63 16.90 -2.89 0.79 0.99 13210
0.05 0.00 -0.20 -16.75 19.50 -2.91 0.89 1.08 13216
0.05 -0.00 -0.72 -18.74 18.75 -2.86 1.13 1.19 13223
0.04 0.00 -1.07 -20.62 15.97 -2.73 1.40 1.34 13230
0.06 -0.00 -2.43 -22.17 13.63 -2.59 1.67 1.54 13236
0.05 0.00 -3.80 -24.53 11.64 -2.45 1.90 1.75 13243
0.07 -0.01 -5.27 -27.48 9.61 -2.26 1.90 1.91 13249
0.05 -0.00 -6.64 -30.55 7.36 -2.02 1.71 2.00 13255
0.04 0.00 -7.72 -32.75 5.54 -1.72 1.45 2.03 13261
0.04 -0.00 -8.27 -33.48 2.98 -1.34 1.15 1.98 13268
0.04 -0.00 -8.53 -32.81 2.16 -0.89 0.87 1.86 13275
0.04 0.02 -8.45 -31.16 2.54 -0.42 0.57 1.64 13281
0.04 -0.00 -8.55 -28.28 4.12 -0.00 0.21 1.36 13287
0.04 -0.00 -9.89 -35.91 -2.54 0.43 -0.30 1.10 13294
0.06 -0.00 -13.34 -28.28 -13.63 3.09 -1.10 0.95 13300
0.04 -0.00 -9.72 -17.98 9.30 2.92 -1.09 0.85 13306
0.05 0.02 -6.18 -22.22 -2.36 2.95 -1.91 0.74 13313
0.04 0.09 -5.42 -29.38 -5.30 2.67 -3.30 0.62 13320
0.04 0.18 -1.04 0.97 0.85 3.02 -3.78 0.71 13326
0.03 0.39 3.27 -1.85 22.42 3.81 -2.08 1.05 13332
0.02 0.65 5.42 5.84 19.37 4.28 -0.61 1.53 13338
0.02 0.95 -6.30 -4.17 24.72 4.28 -0.80 1.59 13345
0.01 1.22 -11.52 -6.44 31.56 4.28 -1.11 1.19 13351
-0.00 1.41 -5.31 -6.12 24.58 4.28 -0.87 0.75 13358
-0.00 1.55 -6.06 -5.13 24.23 4.28 -0.21 0.45 13365
-0.02 1.57 -6.77 -2.57 21.43 4.21 -0.09 -0.08 13371
-0.01 1.59 -0.92 -2.64 21.04 4.07 -0.36 -0.65 13377
-0.02 1.56 5.76 -4.76 36.48 3.86 -1.26 -0.81 13383
0.00 1.50 5.37 -2.37 15.66 1.11 -1.77 -0.34 13390
-0.01 1.51 1.90 -3.89 13.86 0.37 -0.82 0.09 13396
0.00 1.48 -0.00 -1.77 10.74 0.12 -0.33 0.18 13403
0.00 1.50 -0.68 -0.29 10.60 0.05 -0.17 0.07 13409
-0.00 1.40 0.56 -0.70 9.98 0.04 -0.11 -0.01 13416
-0.00 1.40 1.37 -1.23 10.15 0.03 -0.10 0.01 13422
-0.01 1.41 1.01 -1.13 10.30 0.01 -0.12 0.05 13428
-0.00 1.38 0.45 -0.94 10.11 -0.00 -0.12 0.04 13434
0.01 1.35 0.54 -0.77 10.12 -0.00 -0.09 0.02 13442
-0.02 1.37 0.71 -0.78 9.98 -0.01 -0.07 0.03 13448
0.01 1.34 0.73 -0.73 9.96 -0.01 -0.06 0.04 13454
0.01 1.29 0.74 -0.63 9.97 -0.00 -0.05 0.04 13460
0.02 1.21 0.74 -0.61 9.89 0.01 -0.05 0.03 13466
0.01 1.16 0.79 -0.68 9.97 0.01 -0.05 0.03 13473
0.03 1.07 0.79 -0.67 9.97 0.02 -0.06 0.03 13479
-0.01 1.03 0.76 -0.69 10.06 0.02 -0.06 0.03 13486
0.02 0.93 0.70 -0.68 10.06 0.02 -0.06 0.03 13492
0.04 0.82 0.71 -0.74 10.10 0.02 -0.05 0.02 13498
0.03 0.76 0.73 -0.73 10.04 0.03 -0.05 0.03 13505
0.06 0.68 0.70 -0.74 10.05 0.03 -0.05 0.03 13511
0.07 0.60 0.72 -0.74 10.06 0.04 -0.05 0.03 13517
0.08 0.55 0.66 -0.74 10.10 0.04 -0.05 0.03 13523
0.09 0.49 0.68 -0.66 10.00 0.04 -0.04 0.03 13531
0.09 0.45 0.67 -0.85 10.02 0.04 -0.03 0.03 13537
0.11 0.37 0.73 -0.77 10.06 0.04 -0.02 0.03 13543
0.10 0.31 0.54 -0.74 9.95 0.04 -0.02 0.03 13549
0.13 0.22 0.73 -0.90 10.08 0.05 -0.02 0.02 13555
0.16 0.20 0.85 -0.47 10.03 0.04 -0.02 0.02 13562
0.17 0.14 0.79 -0.80 9.96 0.05 -0.02 0.02 13569
0.16 0.15 0.85 -1.01 10.05 0.04 -0.02 0.01 13575
0.19 0.08 0.73 -0.81 10.00 0.04 -0.02 0.01 13581
0.20 0.08 0.83 -0.79 10.07 0.04 -0.03 0.00 13588
0.21 0.06 0.74 -0.85 10.06 0.03 -0.03 0.00 13594
0.25 0.06 0.74 -0.83 9.97 0.03 -0.03 0.00 13600
0.25 0.00 0.73 -0.75 9.90 0.03 -0.03 0.03 13606
0.28 0.01 0.72 -0.80 10.04 0.03 -0.03 0.00 13613
0.29 0.02 0.75 -0.82 9.99 0.03 -0.03 0.00 13619
0.24 -0.00 0.73 -0.81 10.00 0.03 -0.03 0.00 13626
0.28 0.02 0.72 -0.89 10.01 0.03 -0.03 -0.00 13632
0.29 -0.03 0.90 -0.90 10.25 0.03 -0.03 -0.00 13638
0.31 -0.02 0.91 -0.83 10.17 0.03 -0.04 -0.00 13644
0.35 0.00 0.75 -0.81 10.08 0.03 -0.04 -0.01 13651
0.35 -0.01 0.86 -0.92 9.85 0.03 -0.04 -0.02 13658
0.31 -0.02 0.79 -0.80 9.96 0.00 -0.04 -0.02 13664
0.31 -0.03 0.73 -0.86 10.02 0.03 -0.05 -0.02 13670
0.36 -0.03 0.68 -0.85 10.00 0.03 -0.04 -0.03 13676
0.36 -0.04 0.70 -0.89 9.99 0.03 -0.03 -0.03 13682
0.38 -0.02 0.78 -0.90 9.99 0.04 -0.03 -0.02 13689
0.43 -0.04 0.67 -0.86 9.99 0.04 -0.03 -0.02 13696
0.45 -0.04 0.71 -0.87 10.01 0.05 -0.02 -0.03 13702
0.50 -0.04 0.68 -0.86 10.01 0.06 -0.02 -0.03 13708
0.54 -0.04 0.72 -0.85 9.99 0.06 -0.01 -0.03 13714
0.58 -0.03 0.78 -0.93 10.07 0.07 -0.01 -0.03 13721
0.62 -0.04 0.83 -1.02 10.18 0.09 -0.01 -0.03 13727
0.64 -0.04 0.79 -0.89 10.11 0.11 -0.01 -0.03 13733
0.70 -0.04 0.77 -0.94 10.14 0.13 -0.00 -0.04 13740
0.72 -0.04 0.76 -0.94 10.21 0.17 -0.00 -0.04 13747
0.80 -0.04 0.81 -1.01 10.32 0.21 0.00 -0.04 13753
0.88 -0.04 0.79 -1.07 10.34 0.28 0.01 -0.05 13759
0.95 -0.05 0.82 -1.09 10.43 0.37 0.02 -0.06 13765
1.03 -0.05 0.73 -1.06 10.65 0.50 0.02 -0.05 13772
1.08 -0.05 0.83 -1.22 10.94 0.67 0.05 -0.06 13778
1.15 -0.05 0.89 -1.25 11.07 0.88 0.06 -0.07 13785
1.20 -0.05 0.88 -1.37 11.52 1.08 0.07 -0.09 13791
1.22 -0.06 1.10 -1.68 10.85 1.25 0.06 -0.12 13798
1.30 -0.04 1.00 -1.51 11.78 1.42 0.03 -0.13 13804
1.35 -0.06 1.09 -1.61 12.00 1.57 -0.03 -0.13 13810
1.34 -0.04 0.99 -1.61 11.90 1.68 -0.11 -0.14 13816
1.40 -0.05 0.93 -1.72 12.60 1.81 -0.20 -0.14 13824
1.45 -0.05 1.47 1.08 11.07 1.95 -0.22 -0.18 13830
1.46 -0.06 0.44 -1.88 13.17 2.16 -0.22 -0.13 13836
1.46 -0.06 1.81 -0.76 11.37 2.31 -0.24 -0.14 13843
1.49 -0.05 0.49 -1.94 12.80 2.53 -0.28 -0.12 13849
1.48 -0.05 0.69 -2.25 13.47 2.70 -0.27 -0.11 13855
1.50 -0.06 0.63 -2.37 13.68 2.91 -0.25 -0.10 13861
1.50 -0.06 0.85 -2.78 14.38 3.18 -0.21 -0.10 13869
1.48 -0.05 1.14 -2.53 14.20 3.50 -0.18 -0.11 13875
1.40 -0.04 1.25 -2.62 14.63 3.84 -0.15 -0.13 13881
1.35 -0.06 0.74 -3.01 16.09 4.15 -0.12 -0.13 13888
1.23 -0.04 0.96 -3.53 17.10 4.28 -0.11 -0.13 13894
1.08 -0.04 2.74 -3.57 17.31 4.28 -0.20 -0.20 13900
0.95 -0.05 3.41 -4.38 18.08 4.28 -0.35 -0.36 13906
0.86 -0.05 3.12 -4.85 20.24 4.28 -0.56 -0.52 13914
0.75 -0.04 5.60 -4.18 22.18 4.28 -0.83 -0.69 13920
0.67 -0.03 3.81 -9.47 27.16 4.28 -0.98 -0.78 13926
0.54 -0.04 3.12 -12.35 31.82 4.28 -0.98 -0.85 13933
0.50 -0.02 2.69 -14.73 34.36 4.28 -0.89 -0.83 13939
0.41 -0.03 3.69 -11.72 33.71 4.28 -0.74 -0.84 13945
0.31 -0.01 2.34 -12.21 29.96 4.28 -0.57 -0.87 13953
0.24 -0.02 1.87 -9.55 28.40 4.28 -0.44 -0.90 13959
0.19 -0.01 1.41 -6.13 31.02 4.28 -0.51 -0.94 13965
0.14 -0.01 2.02 -3.77 32.68 4.28 -0.68 -0.96 13971
0.10 -0.01 4.34 -1.03 32.24 4.28 -1.06 -1.00 13977
0.10 -0.01 7.44 3.02 32.29 4.28 -1.39 -1.00 13984
0.06 -0.01 9.63 7.31 31.57 4.28 -1.32 -0.98 13990
0.05 -0.00 10.10 13.64 26.98 4.28 -0.92 -0.93 13997
0.06 -0.01 11.87 20.69 21.55 4.28 -0.23 -1.14 14003
0.04 -0.00 6.61 19.48 8.41 4.17 0.49 -1.69 14010
0.05 0.00 9.14 24.76 -2.56 3.23 0.33 -2.34 14016
0.06 -0.01 7.61 21.54 21.22 1.25 0.68 -2.61 14022
0.05 -0.00 7.88 17.80 31.80 -0.85 1.42 -2.48 14028
0.06 -0.01 5.43 16.03 25.50 -2.37 1.60 -2.25 14035
0.05 -0.00 2.47 14.83 17.43 -3.30 1.22 -1.97 14042
0.04 -0.00 1.25 13.28 14.13 -4.00 0.80 -1.62 14048
0.05 -0.01 2.23 11.25 12.15 -4.27 0.56 -1.29 14054
0.06 -0.01 3.46 9.23 10.37 -4.28 0.37 -1.08 14061
0.06 -0.01 4.28 7.21 8.94 -4.28 0.20 -0.97 14067
0.05 -0.00 4.48 5.64 8.28 -4.28 0.14 -0.89 14073
0.04 -0.00 4.51 4.70 7.95 -4.28 0.22 -0.80 14080
0.07 -0.01 4.85 4.02 7.81 -4.28 0.37 -0.71 14086
0.05 -0.01 5.11 3.49 8.12 -4.28 0.59 -0.61 14093
0.04 -0.00 4.94 3.05 8.42 -4.28 0.80 -0.57 14099
0.07 -0.00 4.69 2.80 8.83 -4.28 0.99 -0.51 14105
0.05 -0.01 4.22 2.73 9.11 -4.28 1.10 -0.44 14111
0.04 -0.00 3.78 2.57 9.49 -4.28 1.17 -0.34 14117
0.06 0.01 3.24 2.10 10.05 -4.28 1.22 -0.24 14124
0.05 -0.00 3.03 1.42 10.94 -4.28 1.30 -0.12 14131
0.04 -0.00 2.88 0.64 11.84 -4.28 1.37 -0.01 14137
0.07 0.00 2.77 0.05 12.52 -4.28 1.45 0.11 14143
0.05 -0.01 2.88 -0.33 12.99 -4.28 1.52 0.22 14149
0.07 -0.01 2.92 -0.60 13.52 -4.28 1.60 0.31 14155
0.07 -0.01 2.84 -0.91 14.12 -4.28 1.73 0.37 14162
0.05 -0.00 2.80 -1.40 14.92 -4.28 1.89 0.41 14169
0.06 0.00 2.78 -2.09 15.74 -4.28 2.07 0.42 14175
0.06 -0.00 2.37 -2.77 17.08 -4.28 2.22 0.40 14181
0.06 -0.00 1.01 -3.40 21.15 -4.28 2.41 0.41 14188
0.08 -0.00 0.83 -4.22 19.98 -4.28 2.60 0.40 14194
0.05 -0.01 0.54 -4.81 19.77 -4.28 2.68 0.38 14200
0.05 0.00 -0.15 -5.28 19.80 -4.28 2.74 0.37 14206
0.05 -0.00 -0.80 -5.44 20.19 -4.28 2.76 0.38 14214
0.04 -0.00 -1.39 -5.76 20.31 -4.28 2.75 0.41 14220
0.05 0.00 -1.74 -6.41 20.11 -4.26 2.67 0.45 14226
0.05 -0.01 -2.05 -7.06 20.22 -4.18 2.54 0.49 14232
0.06 -0.00 -2.33 -7.62 20.64 -4.05 2.36 0.52 14239
0.06 -0.00 -2.44 -8.08 21.27 -3.84 2.15 0.55 14245
0.04 -0.00 -2.26 -8.39 21.86 -3.64 1.90 0.57 14252
0.05 0.01 -2.10 -8.68 22.48 -3.49 1.61 0.58 14258
0.05 -0.00 -1.89 -9.12 22.96 -3.39 1.32 0.59 14265
0.05 -0.00 -1.44 -9.61 23.40 -3.36 1.06 0.61 14271
0.07 -0.01 -0.85 -10.26 24.00 -3.38 0.84 0.63 14277
0.06 -0.01 0.01 -11.02 24.00 -3.42 0.71 0.65 14283
0.05 0.01 0.89 -11.86 23.65 -3.47 0.71 0.68 14290
0.05 -0.00 1.65 -12.87 22.93 -3.52 0.85 0.74 14297
0.05 -0.01 1.96 -14.00 21.68 -3.55 1.10 0.84 14303
0.06 -0.00 1.61 -14.99 19.99 -3.53 1.46 1.01 14309
0.04 -0.00 0.19 -15.65 18.66 -3.46 1.92 1.26 14316
0.07 0.00 -2.05 -16.62 18.73 -3.37 2.45 1.58 14322
0.05 -0.01 -4.05 -18.68 18.99 -3.27 2.66 1.85 14328
0.06 0.00 -6.15 -21.50 17.99 -3.13 2.39 2.07 14336
0.05 -0.00 -7.28 -24.63 15.11 -2.96 1.83 2.25 14342
0.06 -0.01 -7.31 -27.37 11.91 -2.75 1.14 2.36 14348
0.06 -0.01 -6.90 -29.46 7.74 -2.45 0.57 2.35 14354
0.04 -0.00 -6.23 -31.85 5.30 -2.09 0.28 2.22 14361
0.06 -0.00 -5.68 -34.19 3.23 -1.66 0.25 1.99 14367
0.05 -0.01 -5.74 -35.29 2.31 -1.18 0.35 1.67 14373
0.05 0.00 -6.26 -34.47 2.00 -0.68 0.52 1.29 14380
0.07 0.00 -6.63 -32.29 2.56 -0.19 0.64 0.89 14387
0.05 0.00 -7.16 -29.27 4.27 0.24 0.60 0.51 14393
0.06 0.01 -10.11 -43.17 4.48 0.94 0.04 0.25 14399
0.05 -0.01 -7.17 -28.09 -5.42 2.94 -0.41 0.24 14405
0.05 -0.01 -7.47 -18.61 3.41 3.02 -0.84 0.14 14412
0.06 -0.00 -6.76 -23.90 0.04 2.88 -1.82 0.08 14418
0.05 0.05 -2.60 -25.20 -0.51 2.54 -2.91 0.04 14425
0.05 0.17 0.89 2.54 1.71 2.53 -3.43 0.07 14431
0.04 0.40 3.29 -0.23 22.38 3.36 -1.79 0.44 14438
0.02 0.68 6.41 7.59 20.25 4.05 -0.40 0.87 14444
0.01 0.98 -4.64 -2.59 23.86 4.28 -0.69 0.91 14450
-0.00 1.21 -8.24 -7.52 27.43 4.28 -1.18 0.55 14456
-0.02 1.47 -1.89 -5.45 23.72 4.28 -0.95 0.29 14464
-0.00 1.52 -2.36 -3.76 24.36 4.17 -0.33 0.21 14470
-0.02 1.56 -4.55 -2.08 21.19 3.61 -0.17 -0.11 14476
-0.02 1.55 -0.50 -1.59 16.83 3.13 -0.36 -0.50 14482
-0.02 1.54 3.35 -1.48 14.66 3.01 -0.46 -0.60 14489
-0.02 1.56 4.94 -1.98 16.04 3.04 -0.58 -0.44 14495
-0.01 1.45 2.44 -3.10 26.23 2.43 -1.63 -0.23 14501
0.00 1.47 2.11 -2.19 14.82 1.12 -1.54 0.03 14509
0.00 1.45 0.08 -1.75 12.67 0.50 -0.92 0.17 14515
-0.01 1.43 -0.13 -1.07 11.15 0.21 -0.49 0.13 14521
-0.01 1.41 0.01 -0.91 10.49 0.09 -0.24 0.04 14527
-0.02 1.38 0.99 -1.09 10.10 0.04 -0.14 0.02 14534
0.01 1.33 1.14 -0.95 10.24 0.02 -0.11 0.04 14540
-0.00 1.32 0.78 -0.87 10.21 0.01 -0.09 0.06 14546
0.00 1.35 0.61 -0.63 10.11 0.00 -0.08 0.05 14553
-0.01 1.28 0.68 -0.64 9.99 -0.00 -0.06 0.04 14560
0.00 1.24 0.84 -0.64 10.01 -0.00 -0.04 0.03 14566
0.02 1.16 0.95 -0.70 10.00 -0.00 -0.03 0.04 14572
0.01 1.14 0.81 -0.75 9.98 0.00 -0.03 0.03 14578
0.00 1.04 0.74 -0.80 10.01 0.00 -0.03 0.04 14584
0.04 0.97 0.66 -0.73 9.84 0.00 -0.03 0.04 14592
0.03 0.85 0.74 -0.65 9.99 0.01 -0.02 0.04 14598
0.02 0.84 0.80 -0.66 9.99 0.02 -0.01 0.04 14604
0.04 0.72 0.75 -0.71 10.07 0.03 -0.01 0.04 14610
0.05 0.61 0.76 -0.72 9.99 0.04 -0.01 0.04 14616
0.06 0.60 0.75 -0.60 10.07 0.05 -0.00 0.04 14623
0.09 0.51 0.72 -0.58 10.01 0.05 -0.00 0.04 14629
0.08 0.42 0.80 -0.69 10.08 0.06 0.00 0.04 14636
0.11 0.39 0.80 -0.68 9.94 0.06 0.00 0.04 14642
0.14 0.29 0.83 -0.76 10.01 0.07 0.01 0.04 14648
0.14 0.21 0.85 -0.78 10.08 0.07 0.01 0.04 14655
0.14 0.19 0.86 -0.64 9.91 0.07 0.00 0.03 14661
0.16 0.17 0.83 -0.82 9.94 0.07 0.00 0.03 14667
0.17 0.11 0.98 -1.11 10.07 0.06 -0.00 0.02 14673
0.18 0.09 0.83 -0.83 9.89 0.06 -0.01 0.02 14680
0.19 0.07 0.85 -0.81 10.03 0.06 -0.02 0.02 14687
0.20 -0.01 0.82 -0.77 9.94 0.05 -0.02 0.02 14693
0.21 0.03 0.86 -0.88 10.05 0.05 -0.02 0.02 14699
0.24 0.02 0.83 -0.79 10.03 0.05 -0.02 0.02 14705
0.27 0.00 0.93 -0.81 9.99 0.06 -0.02 0.02 14711
0.30 -0.01 0.86 -0.85 10.13 0.06 -0.01 0.02 14718
0.30 -0.03 0.86 -0.76 10.23 0.05 -0.01 0.01 14725
0.30 -0.02 0.91 -0.81 10.20 0.07 -0.01 0.01 14731
0.32 -0.02 0.85 -0.85 9.87 0.07 -0.01 0.01 14737
0.32 -0.03 0.86 -0.86 9.96 0.08 -0.01 0.01 14743
0.35 -0.03 0.93 -0.96 9.97 0.08 -0.02 0.00 14750
0.37 -0.02 0.89 -0.91 9.99 0.08 -0.03 0.00 14756
0.37 -0.02 0.92 -0.94 9.96 0.08 -0.04 -0.01 14763
0.38 -0.02 0.96 -0.97 9.95 0.08 -0.04 -0.01 14769
0.38 -0.02 0.87 -0.91 9.84 0.07 -0.04 -0.02 14775
0.43 -0.04 0.93 -0.92 9.91 0.05 -0.05 -0.03 14781
0.42 -0.04 0.93 -0.95 9.85 0.05 -0.05 -0.03 14788
0.44 -0.02 0.87 -0.94 9.96 0.04 -0.05 -0.03 14794
0.46 -0.03 0.86 -0.94 9.94 0.03 -0.05 -0.03 14800
0.48 -0.03 0.90 -0.92 9.96 0.02 -0.05 -0.04 14807
0.50 -0.03 0.91 -0.95 10.00 0.03 -0.05 -0.04 14813
0.52 -0.03 0.85 -0.98 9.96 0.03 -0.05 -0.04 14820
0.54 -0.03 0.83 -0.98 10.02 0.04 -0.05 -0.04 14826
0.60 -0.03 0.78 -0.94 10.00 0.04 -0.05 -0.03 14832
0.65 -0.04 0.85 -0.93 10.01 0.05 -0.05 -0.03 14838
0.73 -0.02 0.88 -0.96 10.04 0.06 -0.05 -0.02 14845
0.79 -0.03 0.86 -0.96 10.11 0.08 -0.06 -0.02 14852
0.81 -0.03 0.83 -0.97 10.13 0.11 -0.06 -0.02 14858
0.89 -0.04 0.90 -0.98 10.17 0.16 -0.06 -0.02 14864
0.94 -0.05 0.85 -1.08 10.16 0.22 -0.05 -0.03 14871
1.02 -0.03 0.90 -1.12 10.25 0.27 -0.04 -0.03 14877
1.07 -0.04 0.88 -1.13 10.35 0.36 -0.02 -0.04 14883
1.12 -0.05 0.96 -1.05 10.61 0.48 -0.01 -0.05 14889
1.21 -0.05 1.06 -1.23 10.77 0.64 0.00 -0.07 14897
1.26 -0.07 1.15 -1.28 11.09 0.82 0.01 -0.09 14903
1.33 -0.04 1.22 -1.52 11.35 1.03 -0.01 -0.12 14909
1.40 -0.06 0.98 -1.43 11.57 1.23 -0.05 -0.13 14915
1.41 -0.06 1.14 -1.43 11.65 1.40 -0.11 -0.13 14922
1.47 -0.05 0.98 -1.60 12.28 1.56 -0.21 -0.14 14928
1.55 -0.06 1.20 -1.80 12.92 1.71 -0.28 -0.14 14935
1.58 -0.06 0.92 -1.71 13.03 1.88 -0.34 -0.15 14942
1.63 -0.07 0.49 -1.35 13.61 2.06 -0.34 -0.14 14948
1.70 -0.05 0.49 -2.32 13.25 2.24 -0.35 -0.12 14954
1.71 -0.07 0.42 -2.00 13.52 2.43 -0.38 -0.11 14960
1.73 -0.07 0.73 -2.09 13.65 2.62 -0.41 -0.11 14967
1.70 -0.06 0.73 -2.30 13.85 2.85 -0.38 -0.10 14973
1.71 -0.06 1.01 -2.58 13.27 3.11 -0.35 -0.11 14980
1.63 -0.06 0.75 -2.48 14.22 3.41 -0.32 -0.12 14987
1.58 -0.06 1.27 -2.33 14.34 3.73 -0.29 -0.14 14993
1.58 -0.05 1.50 -2.55 14.32 4.05 -0.24 -0.16 14999
1.45 -0.06 1.14 -2.92 15.89 4.24 -0.18 -0.19 15005
1.35 -0.06 0.88 -2.99 16.07 4.28 -0.20 -0.20 15012
1.19 -0.06 0.85 -4.36 16.83 4.28 -0.31 -0.26 15019
1.07 -0.04 2.77 -4.27 18.86 4.28 -0.44 -0.36 15025
0.96 -0.05 3.20 -6.12 19.92 4.28 -0.68 -0.53 15031
0.87 -0.04 2.90 -7.59 22.89 4.28 -0.87 -0.66 15038
0.75 -0.02 1.78 -11.12 28.10 4.28 -0.95 -0.75 15044
0.61 -0.03 -0.09 -17.99 31.79 4.28 -0.95 -0.80 15050
0.54 -0.02 1.92 -15.56 35.02 4.28 -0.78 -0.68 15057
0.39 -0.02 1.83 -14.85 32.22 4.28 -0.65 -0.64 15064
0.35 -0.02 2.60 -11.23 28.55 4.28 -0.47 -0.68 15070
0.24 -0.01 2.19 -8.60 29.21 4.28 -0.31 -0.73 15077
0.13 -0.00 0.71 -5.58 31.03 4.28 -0.38 -0.80 15083
0.13 -0.01 1.02 -3.37 31.98 4.28 -0.71 -0.85 15089
0.12 -0.01 3.66 -0.23 32.22 4.28 -1.22 -0.88 15095
0.09 0.00 7.07 3.64 31.48 4.28 -1.60 -0.89 15102
0.06 -0.01 9.23 7.48 32.84 4.28 -1.58 -0.87 15109
0.04 -0.00 10.57 12.83 28.37 4.28 -1.12 -0.82 15115
0.05 -0.01 12.66 20.74 25.56 4.28 -0.42 -0.96 15121
0.05 -0.01 7.37 21.59 9.88 4.23 0.44 -1.50 15128
0.05 -0.01 10.29 26.64 -3.41 3.11 0.42 -2.18 15134
0.06 -0.01 8.22 23.36 21.47 0.99 0.89 -2.44 15140
0.05 -0.01 7.96 18.85 33.14 -1.19 1.77 -2.31 15147
0.05 -0.00 5.02 16.59 26.09 -2.77 2.01 -2.11 15154
0.04 -0.00 2.04 14.95 17.11 -3.68 1.57 -1.88 15160
0.05 -0.01 0.70 13.03 14.12 -4.19 1.02 -1.60 15166
0.05 -0.00 1.03 10.94 12.15 -4.28 0.68 -1.31 15172
0.04 -0.00 2.34 8.67 10.25 -4.28 0.41 -1.09 15179
0.07 -0.01 3.06 6.67 9.27 -4.28 0.15 -0.97 15185
0.05 -0.01 3.34 5.25 8.49 -4.28 -0.02 -0.89 15192
0.05 -0.00 3.46 4.36 8.35 -4.28 -0.08 -0.82 15198
0.06 -0.01 3.92 3.56 8.46 -4.28 -0.02 -0.74 15204
0.04 -0.00 4.52 2.87 8.66 -4.28 0.12 -0.69 15210
0.05 -0.00 5.02 2.51 8.87 -4.28 0.27 -0.65 15217
0.05 -0.01 5.18 2.31 9.43 -4.28 0.47 -0.63 15223
0.05 -0.01 4.92 2.27 9.93 -4.28 0.67 -0.60 15229
0.04 -0.00 4.53 2.12 10.51 -4.28 0.87 -0.55 15236
0.05 -0.01 4.14 1.68 10.93 -4.28 1.09 -0.49 15242
0.04 -0.00 3.86 0.82 11.37 -4.28 1.30 -0.42 15249
0.04 0.00 3.63 -0.05 12.22 -4.28 1.46 -0.33 15255
0.06 -0.01 3.34 -0.76 12.97 -4.28 1.56 -0.25 15261
0.05 -0.00 2.88 -1.42 13.61 -4.28 1.64 -0.15 15267
0.04 0.01 2.57 -2.13 14.31 -4.28 1.72 -0.05 15275
0.04 -0.00 2.36 -2.62 14.74 -4.28 1.78 0.05 15281
0.04 -0.00 2.06 -2.95 15.24 -4.28 1.84 0.13 15287
0.05 -0.00 2.15 -3.53 16.05 -4.28 1.92 0.19 15293
0.05 0.00 2.07 -4.17 16.73 -4.28 2.00 0.22 15299
0.03 0.00 1.79 -4.63 17.60 -4.28 2.08 0.23 15306
0.06 -0.00 1.22 -5.23 18.25 -4.28 2.21 0.26 15312
0.04 -0.00 1.77 -5.59 19.03 -4.28 2.27 0.29 15319
0.05 0.01 1.11 -5.68 19.42 -4.28 2.33 0.31 15325
0.04 0.00 0.72 -5.77 19.60 -4.27 2.40 0.37 15332
0.04 0.01 0.45 -5.75 19.64 -4.26 2.39 0.45 15338
0.06 -0.01 0.21 -6.10 20.06 -4.22 2.42 0.52 15344
0.04 -0.00 0.01 -6.52 20.41 -4.15 2.43 0.61 15350
0.04 0.01 -0.16 -7.10 20.77 -4.04 2.45 0.69 15357
0.04 0.00 -0.36 -7.69 21.23 -3.87 2.44 0.76 15364
0.04 -0.00 -0.50 -8.21 22.12 -3.69 2.38 0.82 15370
0.05 0.01 -0.65 -8.96 23.09 -3.53 2.25 0.88 15376
0.05 -0.00 -0.98 -9.69 23.47 -3.41 2.03 0.94 15382
0.04 -0.00 -1.03 -10.51 23.40 -3.33 1.80 1.00 15389
