Voltage_01 Voltage_02 Acc_x Acc_y Acc_z Gyro_x Gyro_y Gyro_z Time
5000
-0.01 1.11 0.87 -1.35 10.15 -0.01 0.03 0.09 23
-0.02 1.14 0.81 -1.24 9.94 -0.01 0.04 0.09 29
-0.00 1.16 0.87 -1.15 10.02 -0.01 0.04 0.10 35
0.02 1.16 0.81 -1.11 9.90 -0.00 0.03 0.10 41
0.04 1.15 0.81 -1.10 9.93 0.00 0.03 0.10 48
0.03 1.12 0.87 -1.03 9.86 0.01 0.03 0.11 54
0.01 1.15 0.85 -1.03 9.82 0.02 0.01 0.11 60
0.02 1.15 0.84 -1.08 9.88 0.02 0.01 0.12 66
0.03 1.16 0.79 -1.08 9.89 0.02 0.01 0.13 72
0.05 1.14 0.78 -1.09 9.94 0.02 0.02 0.13 78
0.05 1.12 0.73 -1.03 9.94 0.02 0.02 0.15 84
0.04 1.10 0.80 -1.07 9.94 0.02 0.03 0.14 91
0.05 1.09 0.85 -1.02 9.92 0.01 0.02 0.16 97
0.06 1.07 0.86 -0.91 9.86 0.01 0.02 0.16 103
0.11 1.05 0.79 -0.97 9.80 0.01 0.01 0.16 109
0.08 1.02 0.79 -1.01 9.87 0.01 0.01 0.16 115
0.08 0.99 0.78 -1.01 9.88 0.01 0.01 0.16 122
0.08 0.96 0.76 -1.01 9.93 0.02 0.01 0.17 129
0.09 0.94 0.78 -1.00 9.88 0.01 0.00 0.17 135
0.09 0.92 0.82 -0.99 9.87 0.02 0.00 0.18 141
0.10 0.88 0.81 -0.96 9.84 0.02 -0.00 0.17 147
0.12 0.87 0.81 -1.00 9.84 0.02 -0.01 0.18 153
0.13 0.85 0.80 -0.97 9.87 0.02 -0.02 0.18 159
0.15 0.83 0.81 -0.97 9.85 0.03 -0.02 0.18 165
0.16 0.77 0.76 -0.98 9.88 0.02 -0.03 0.17 172
0.15 0.73 0.81 -0.99 9.88 0.03 -0.04 0.17 178
0.15 0.71 0.80 -0.98 9.83 0.03 -0.04 0.17 184
0.18 0.64 0.78 -0.98 9.85 0.03 -0.04 0.18 190
0.15 0.62 0.78 -1.00 9.85 0.03 -0.04 0.17 197
0.17 0.57 0.78 -1.00 9.89 0.03 -0.04 0.18 203
0.19 0.56 0.80 -1.02 9.87 0.04 -0.04 0.17 209
0.20 0.52 0.80 -1.02 9.86 0.03 -0.04 0.18 216
0.22 0.48 0.78 -0.99 9.88 0.04 -0.05 0.17 222
0.21 0.43 0.80 -1.07 9.84 0.04 -0.05 0.17 228
0.20 0.42 0.81 -1.03 9.84 0.04 -0.05 0.18 234
0.21 0.38 0.86 -1.03 9.23 0.04 -0.05 0.18 240
0.26 0.30 0.81 -1.01 9.82 0.04 -0.05 0.17 246
0.25 0.27 0.82 -1.06 9.85 0.04 -0.04 0.17 252
0.25 0.25 0.80 -1.04 9.85 0.04 -0.03 0.17 259
0.28 0.25 0.80 -1.04 9.82 0.04 -0.03 0.16 266
0.29 0.18 0.80 -1.08 9.86 0.05 -0.03 0.16 272
0.28 0.14 0.81 -1.07 9.88 0.04 -0.02 0.15 278
0.30 0.08 0.82 -1.06 9.88 0.05 -0.02 0.15 284
0.32 0.07 0.84 -1.08 9.87 0.04 -0.02 0.16 290
0.33 0.04 0.84 -1.12 9.82 0.05 -0.02 0.16 296
0.32 0.02 0.83 -1.10 9.87 0.05 -0.02 0.16 303
0.33 -0.01 0.83 -1.14 9.82 0.04 -0.02 0.15 309
0.35 -0.01 0.81 -1.14 9.86 0.04 -0.01 0.15 315
0.36 -0.01 0.87 -1.12 9.88 0.04 -0.02 0.14 321
0.38 -0.01 0.87 -1.13 9.86 0.04 -0.02 0.15 327
0.38 -0.01 0.86 -1.10 9.90 0.04 -0.02 0.14 334
0.37 -0.00 0.86 -1.11 9.86 0.04 -0.02 0.13 340
0.37 -0.01 0.85 -1.12 9.86 0.04 -0.02 0.13 347
0.37 -0.02 0.85 -1.15 9.84 0.05 -0.04 0.13 353
0.36 -0.02 0.91 -1.13 9.86 0.05 -0.05 0.12 359
0.36 -0.01 0.92 -1.17 9.83 0.06 -0.06 0.12 365
0.38 -0.00 0.95 -1.21 9.83 0.06 -0.07 0.11 371
0.40 -0.01 0.96 -1.22 9.84 0.06 -0.07 0.10 377
0.40 -0.02 0.93 -1.83 9.87 0.07 -0.08 0.09 384
0.38 -0.02 0.95 -1.22 9.87 0.07 -0.09 0.09 390
0.41 -0.01 0.94 -1.27 9.87 0.08 -0.10 0.07 396
0.47 -0.01 0.95 -1.27 9.90 0.08 -0.11 0.05 403
0.49 -0.01 0.91 -1.28 9.92 0.09 -0.11 0.04 409
0.47 -0.01 0.95 -1.30 9.92 0.10 -0.13 0.04 415
0.52 -0.00 1.02 -1.30 9.95 0.12 -0.15 0.03 421
0.56 -0.01 0.95 -1.31 9.90 0.13 -0.17 0.01 428
0.59 -0.01 0.99 -1.36 9.99 0.15 -0.19 -0.00 434
0.62 -0.02 0.97 -1.35 9.95 0.17 -0.19 -0.02 440
0.69 -0.02 1.06 -1.46 10.07 0.19 -0.21 -0.04 446
0.74 -0.02 1.09 -1.48 10.05 0.23 -0.22 -0.06 452
0.81 -0.03 1.01 -1.50 10.23 0.27 -0.24 -0.08 459
0.86 -0.02 1.00 -1.50 10.28 0.33 -0.26 -0.10 465
0.95 -0.02 0.94 -1.47 10.39 0.41 -0.28 -0.12 472
0.97 -0.02 1.00 -1.60 10.44 0.48 -0.30 -0.12 478
1.04 -0.03 0.94 -1.65 10.61 0.55 -0.31 -0.14 484
1.09 -0.02 0.86 -1.65 10.71 0.62 -0.31 -0.15 490
1.11 -0.03 0.86 -1.77 10.85 0.69 -0.30 -0.15 497
1.16 -0.03 0.76 -1.75 10.85 0.75 -0.30 -0.15 503
1.21 -0.02 0.86 -1.78 11.02 0.80 -0.29 -0.14 509
1.28 -0.04 0.69 -1.99 11.02 0.87 -0.28 -0.14 516
1.32 -0.04 0.78 -2.06 11.27 0.94 -0.28 -0.13 522
1.34 -0.03 0.60 -2.34 11.83 1.02 -0.26 -0.14 528
1.44 -0.04 0.66 -2.21 11.52 1.10 -0.24 -0.15 535
1.45 -0.06 0.74 -2.25 11.69 1.20 -0.24 -0.15 541
1.48 -0.04 0.89 -2.44 11.88 1.30 -0.27 -0.16 547
1.52 -0.05 0.90 -2.45 11.96 1.39 -0.34 -0.17 553
1.55 -0.05 0.80 -2.54 12.03 1.55 -0.35 -0.18 560
1.58 -0.04 0.80 -2.52 12.14 1.72 -0.36 -0.19 566
1.60 -0.04 0.83 -2.74 12.45 1.92 -0.38 -0.20 573
1.57 -0.04 0.85 -2.89 12.57 2.07 -0.39 -0.22 579
1.56 -0.03 0.88 -2.96 12.65 2.26 -0.40 -0.24 585
1.55 -0.03 0.78 -2.95 12.90 2.44 -0.41 -0.26 591
1.51 -0.03 0.79 -3.21 13.11 2.65 -0.44 -0.27 598
1.47 -0.03 1.10 -3.31 13.39 2.87 -0.46 -0.30 605
1.41 -0.03 1.18 -3.50 12.98 3.09 -0.51 -0.35 611
1.30 -0.04 1.26 -3.77 13.76 3.33 -0.53 -0.41 617
1.15 -0.04 1.27 -4.13 14.21 3.59 -0.56 -0.47 623
1.06 -0.03 1.31 -4.00 14.54 3.89 -0.57 -0.53 629
0.89 -0.04 1.18 -3.47 15.83 4.14 -0.57 -0.59 635
0.73 -0.02 1.92 -5.38 16.26 4.27 -0.62 -0.67 643
0.63 -0.01 2.11 -6.24 17.12 4.28 -0.68 -0.74 649
0.57 -0.01 2.09 -6.73 17.81 4.28 -0.73 -0.81 655
0.51 -0.01 1.26 -7.99 18.79 4.28 -0.70 -0.82 661
0.49 -0.01 1.16 -10.31 21.90 4.28 -0.62 -0.78 667
0.39 -0.02 0.77 -11.58 23.68 4.28 -0.51 -0.72 674
0.34 -0.00 0.24 -12.22 24.03 4.28 -0.45 -0.64 680
0.30 -0.02 0.81 -11.21 22.47 4.28 -0.40 -0.62 687
0.22 -0.02 1.26 -10.79 21.18 4.28 -0.47 -0.61 693
0.16 -0.02 2.20 -9.76 21.49 4.28 -0.48 -0.62 699
0.14 -0.01 3.29 -8.43 22.46 4.28 -0.32 -0.61 705
0.08 -0.00 3.90 -6.63 22.95 4.28 -0.11 -0.63 712
0.06 0.00 3.96 -4.17 22.62 4.28 0.08 -0.68 718
0.07 0.02 3.74 -1.01 22.57 4.28 0.23 -0.70 724
0.08 0.01 4.15 1.29 22.99 4.28 0.17 -0.77 731
0.06 -0.01 3.51 4.94 23.00 4.28 0.22 -0.87 737
0.06 -0.00 3.57 6.97 22.46 4.28 0.42 -0.93 743
0.07 0.00 3.54 15.50 20.69 4.28 0.89 -1.01 750
0.04 -0.00 1.08 15.87 12.90 4.28 0.88 -1.39 756
0.04 -0.00 2.44 10.62 -5.36 4.26 0.31 -1.83 762
0.04 0.03 2.58 18.82 2.89 2.15 -0.16 -2.03 769
0.06 0.02 5.10 19.28 22.38 0.62 0.23 -1.90 775
0.04 0.02 4.83 13.56 23.71 -0.63 0.60 -1.67 781
0.05 0.03 2.93 9.35 17.98 -1.61 0.61 -1.43 787
0.06 0.02 2.22 10.25 13.30 -2.52 0.42 -1.17 794
0.04 0.02 1.67 10.44 10.71 -3.15 0.13 -0.95 800
0.05 0.03 1.88 8.74 8.92 -3.50 -0.08 -0.79 806
0.05 0.02 2.53 6.67 7.51 -3.68 -0.22 -0.72 813
0.04 0.02 2.84 5.28 7.28 -3.75 -0.27 -0.64 819
0.04 0.03 2.96 4.89 6.55 -3.73 -0.23 -0.56 825
0.04 0.03 3.14 4.18 5.97 -3.70 -0.15 -0.51 831
0.04 0.02 3.19 3.50 5.52 -3.67 -0.03 -0.46 838
0.04 0.02 3.27 3.03 5.98 -3.66 0.06 -0.40 844
0.03 0.02 3.24 2.99 6.55 -3.70 0.21 -0.35 850
0.04 0.04 3.15 2.64 7.31 -3.76 0.35 -0.28 857
0.04 0.03 3.02 2.27 7.90 -3.84 0.44 -0.22 863
0.04 0.03 2.92 1.97 8.35 -3.96 0.50 -0.14 869
0.03 0.03 2.83 1.40 9.15 -4.04 0.56 -0.05 875
0.04 0.04 2.75 0.95 9.86 -4.11 0.60 0.05 881
0.05 0.02 2.76 0.27 10.35 -4.18 0.64 0.13 887
0.04 0.02 2.71 -0.27 10.92 -4.22 0.67 0.24 893
0.04 0.03 2.74 -0.84 11.47 -4.26 0.70 0.33 901
0.06 0.03 2.85 -1.36 12.06 -4.27 0.74 0.42 907
0.04 0.03 2.97 -1.85 12.66 -4.28 0.80 0.49 913
0.04 0.03 3.04 -2.40 13.03 -4.28 0.91 0.55 919
0.04 0.04 3.03 -3.09 13.67 -4.28 1.06 0.59 925
0.04 0.03 3.02 -3.72 14.06 -4.28 1.17 0.62 931
0.04 0.03 2.97 -4.39 14.54 -4.28 1.31 0.65 939
0.04 0.03 2.79 -5.20 14.89 -4.28 1.43 0.65 945
0.05 0.03 2.44 -6.08 15.38 -4.28 1.55 0.66 951
0.04 0.04 2.36 -6.62 15.56 -4.27 1.62 0.66 957
0.04 0.04 2.06 -6.98 15.85 -4.23 1.66 0.66 963
0.06 0.04 2.05 -7.34 15.85 -4.18 1.69 0.67 969
0.04 0.03 2.06 -7.72 15.99 -4.11 1.70 0.68 976
0.04 0.03 1.95 -8.02 16.29 -3.97 1.70 0.70 983
0.05 0.03 1.77 -8.33 16.46 -3.81 1.68 0.72 989
0.04 0.02 1.65 -8.49 16.76 -3.64 1.62 0.74 995
0.04 0.01 1.54 -8.69 17.24 -3.48 1.50 0.76 1001
0.04 0.03 1.54 -8.99 17.59 -3.31 1.36 0.80 1007
0.04 0.02 1.71 -9.52 17.73 -3.15 1.22 0.83 1014
0.04 0.01 1.83 -10.07 17.72 -2.99 1.07 0.86 1020
0.06 0.02 1.92 -10.74 17.49 -2.83 0.94 0.89 1027
0.05 0.01 2.18 -11.33 17.19 -2.64 0.83 0.90 1033
0.04 0.03 2.38 -11.85 16.93 -2.42 0.75 0.90 1040
0.05 0.00 2.63 -12.26 16.84 -2.20 0.73 0.88 1046
0.04 -0.00 2.91 -12.64 16.99 -1.99 0.77 0.85 1052
0.05 -0.01 3.38 -12.94 17.22 -1.82 0.93 0.82 1058
0.04 -0.00 3.76 -13.26 17.43 -1.68 1.19 0.79 1064
0.04 -0.00 3.76 -13.50 18.04 -1.59 1.51 0.76 1072
0.06 -0.00 3.34 -13.69 18.41 -1.58 1.83 0.74 1078
0.04 -0.00 2.90 -13.90 18.29 -1.69 2.11 0.74 1084
0.04 0.00 2.45 -14.01 17.49 -1.83 2.27 0.75 1090
0.04 -0.00 1.82 -14.36 16.47 -1.96 2.34 0.76 1097
0.03 -0.00 1.00 -14.73 15.52 -2.12 2.32 0.79 1103
0.05 0.00 0.03 -15.00 13.88 -2.25 2.24 0.83 1110
0.05 0.00 -1.34 -14.48 11.29 -2.32 2.21 0.92 1116
0.05 0.00 -2.55 -14.65 9.47 -2.29 2.42 1.15 1123
0.05 -0.01 -4.77 -15.12 8.61 -2.15 2.77 1.50 1129
0.05 -0.00 -6.45 -16.39 8.79 -1.93 2.87 1.83 1135
0.05 -0.00 -7.49 -18.05 8.86 -1.72 2.58 2.05 1141
0.06 -0.01 -9.54 -19.25 7.72 -1.55 1.76 2.10 1147
0.05 -0.00 -9.75 -20.10 5.73 -1.41 0.75 2.09 1154
0.04 -0.00 -8.10 -20.14 3.83 -1.25 -0.17 2.06 1161
0.06 -0.01 -6.85 -20.72 3.08 -1.01 -0.78 1.95 1167
0.05 -0.00 -5.39 -21.26 2.69 -0.67 -1.10 1.81 1173
0.04 -0.00 -3.76 -21.09 2.65 -0.27 -1.22 1.62 1179
0.05 -0.01 -2.40 -21.36 3.03 0.05 -1.24 1.35 1185
0.05 -0.00 -7.67 -30.17 16.42 0.89 -1.81 1.07 1191
0.03 -0.00 -5.99 -20.97 -0.43 1.81 -1.92 0.76 1199
0.05 -0.01 -6.55 -23.27 0.49 2.20 -2.25 0.56 1205
0.05 -0.00 -7.61 -24.65 5.62 2.61 -3.00 0.60 1211
0.03 -0.00 -3.19 -11.73 5.36 3.00 -3.34 0.59 1217
0.03 0.03 0.07 3.87 6.81 3.12 -3.16 0.60 1223
0.01 0.33 2.52 2.83 15.29 3.27 -2.40 0.81 1229
-0.01 0.58 3.37 2.35 18.65 3.19 -1.55 1.11 1236
-0.01 0.67 1.46 0.12 16.70 2.95 -0.92 1.30 1243
-0.01 0.70 -1.06 -2.96 17.28 2.78 -0.49 1.35 1249
-0.02 0.74 -4.39 -4.23 16.31 2.61 -0.35 1.31 1255
-0.01 0.76 -6.20 -4.23 15.31 2.57 -0.37 1.11 1262
-0.02 0.80 -6.93 -3.42 15.62 2.59 -0.36 0.81 1268
-0.01 0.86 -7.15 -2.83 17.03 2.58 -0.20 0.45 1274
-0.01 0.90 -5.97 -3.03 18.66 2.52 -0.01 0.05 1281
-0.03 0.89 -2.46 -2.38 17.97 2.41 0.34 -0.29 1288
-0.03 0.95 2.16 -2.87 17.76 2.23 0.75 -0.46 1294
-0.03 0.99 3.67 -2.58 19.01 2.02 0.98 -0.44 1300
-0.01 1.01 5.74 -2.92 18.39 0.91 0.17 -0.17 1306
-0.02 1.04 1.86 -2.12 11.06 0.18 -0.24 0.08 1312
-0.01 1.08 0.03 -1.51 10.28 0.13 -0.33 0.12 1319
-0.02 1.10 0.27 -1.63 10.52 0.12 -0.33 0.07 1326
-0.02 1.11 1.34 -1.28 10.48 0.07 -0.21 0.07 1332
-0.01 1.12 1.20 -1.74 9.77 0.01 -0.10 0.10 1338
-0.01 1.17 0.71 -1.10 10.17 -0.01 -0.06 0.06 1344
0.01 1.17 0.98 -1.28 10.13 0.01 -0.07 0.08 1351
0.01 1.19 0.77 -1.28 10.11 0.02 -0.07 0.08 1357
0.03 1.24 0.83 -1.14 9.91 0.02 -0.06 0.08 1363
0.04 1.21 0.81 -1.14 9.90 0.03 -0.06 0.09 1370
0.06 1.19 0.80 -1.03 9.90 0.04 -0.06 0.10 1376
0.07 1.20 0.84 -1.07 9.84 0.05 -0.07 0.10 1382
0.06 1.20 0.78 -1.09 9.92 0.04 -0.08 0.11 1389
0.08 1.18 0.74 -1.11 9.87 0.04 -0.08 0.11 1395
0.06 1.15 0.63 -1.08 9.94 0.04 -0.06 0.13 1401
0.07 1.14 0.69 -1.05 10.09 0.03 -0.03 0.13 1408
0.11 1.12 0.72 -1.06 10.09 0.03 -0.01 0.15 1414
0.10 1.09 0.70 -1.00 9.91 0.03 -0.00 0.16 1420
0.15 1.06 0.72 -1.03 9.89 0.03 -0.00 0.16 1427
0.16 1.01 0.71 -1.02 9.94 0.03 -0.00 0.18 1433
0.15 1.00 0.74 -1.03 9.92 0.03 -0.00 0.17 1439
0.17 0.96 0.73 -1.00 9.87 0.04 -0.00 0.18 1445
0.21 0.88 0.77 -0.98 9.85 0.04 -0.01 0.19 1452
0.20 0.81 0.77 -1.00 9.89 0.04 -0.02 0.18 1458
0.20 0.77 0.79 -1.00 9.86 0.05 -0.03 0.18 1464
0.21 0.72 0.77 -1.04 9.88 0.05 -0.05 0.18 1471
0.24 0.64 0.77 -1.05 9.88 0.05 -0.06 0.18 1477
0.24 0.60 0.73 -0.99 9.89 0.05 -0.07 0.17 1483
0.24 0.60 0.72 -1.05 9.89 0.05 -0.06 0.17 1489
0.24 0.55 0.71 -1.04 9.92 0.05 -0.06 0.17 1496
0.28 0.44 0.71 -1.00 9.96 0.06 -0.05 0.18 1502
0.32 0.42 0.71 -1.07 9.88 0.06 -0.04 0.17 1508
0.32 0.36 0.65 -1.05 9.95 0.07 -0.03 0.17 1515
0.29 0.25 0.69 -1.03 9.87 0.07 -0.03 0.17 1521
0.32 0.21 0.77 -1.10 9.91 0.07 -0.02 0.16 1527
0.37 0.13 0.79 -1.10 9.85 0.07 -0.02 0.17 1533
0.38 0.06 0.78 -1.15 9.88 0.08 -0.02 0.16 1540
0.40 0.02 0.79 -1.15 9.87 0.08 -0.02 0.16 1546
0.40 0.01 0.80 -1.18 9.84 0.08 -0.02 0.14 1553
0.41 -0.00 0.80 -1.17 9.89 0.08 -0.02 0.13 1559
0.44 -0.01 0.85 -1.23 9.87 0.09 -0.03 0.13 1565
0.46 -0.00 0.81 -1.80 9.91 0.09 -0.03 0.12 1571
0.48 -0.01 0.81 -1.20 9.88 0.10 -0.04 0.11 1577
0.50 -0.02 0.88 -1.26 9.92 0.11 -0.05 0.10 1584
0.51 -0.01 0.84 -1.28 9.91 0.12 -0.06 0.09 1590
0.54 -0.01 0.83 -1.33 9.89 0.13 -0.07 0.09 1597
0.52 -0.02 0.89 -1.30 9.92 0.15 -0.08 0.08 1603
0.54 -0.02 0.95 -1.30 9.93 0.16 -0.09 0.06 1609
0.55 -0.01 0.86 -1.41 9.92 0.18 -0.10 0.05 1615
0.57 -0.00 0.91 -1.40 9.90 0.20 -0.11 0.04 1622
0.57 -0.03 1.09 -1.37 10.02 0.21 -0.12 0.00 1628
0.63 -0.02 0.88 -1.49 10.06 0.23 -0.12 0.02 1635
0.66 -0.03 0.91 -1.52 10.02 0.24 -0.15 0.00 1641
0.68 -0.03 0.90 -1.56 10.18 0.27 -0.17 -0.01 1647
0.71 -0.01 0.99 -1.62 10.04 0.29 -0.19 -0.03 1653
0.72 -0.02 0.92 -1.65 10.05 0.32 -0.21 -0.05 1659
0.72 -0.03 0.97 -1.66 9.94 0.32 -0.21 -0.05 1667
0.74 -0.01 0.92 -1.67 10.00 0.30 -0.19 -0.06 1673
0.77 -0.02 0.81 -1.66 9.91 0.29 -0.17 -0.07 1679
0.77 -0.03 0.84 -1.70 9.83 0.28 -0.17 -0.07 1685
0.78 -0.02 0.74 -1.76 9.89 0.27 -0.16 -0.07 1691
0.81 -0.03 0.78 -1.72 9.92 0.25 -0.14 -0.07 1698
0.85 -0.02 0.75 -1.70 9.98 0.24 -0.14 -0.07 1704
0.87 -0.00 0.82 -1.82 10.00 0.24 -0.14 -0.07 1711
0.90 -0.02 0.84 -1.78 9.98 0.25 -0.14 -0.07 1717
0.90 -0.02 0.84 -1.81 10.00 0.27 -0.14 -0.07 1723
0.92 -0.01 0.80 -1.91 10.03 0.28 -0.14 -0.08 1729
0.95 -0.03 0.85 -1.86 10.02 0.28 -0.14 -0.08 1736
0.95 -0.03 0.69 -1.93 10.04 0.28 -0.14 -0.08 1742
0.98 -0.02 0.68 -1.93 10.14 0.30 -0.14 -0.08 1748
1.00 -0.03 0.68 -1.98 10.11 0.31 -0.13 -0.08 1755
1.08 -0.03 0.71 -2.01 10.21 0.33 -0.12 -0.08 1762
1.13 -0.03 0.80 -2.05 10.32 0.36 -0.11 -0.08 1768
1.14 -0.04 0.79 -1.99 10.32 0.40 -0.12 -0.09 1774
1.17 -0.04 0.72 -2.14 10.29 0.43 -0.12 -0.09 1780
1.23 -0.05 0.70 -2.16 10.48 0.46 -0.12 -0.09 1786
1.25 -0.04 0.70 -2.26 10.66 0.51 -0.12 -0.08 1794
1.31 -0.02 0.76 -2.20 10.89 0.57 -0.12 -0.08 1800
1.33 -0.04 0.82 -2.29 11.00 0.64 -0.13 -0.09 1806
1.34 -0.04 0.73 -2.38 11.14 0.73 -0.14 -0.09 1812
1.42 -0.04 0.75 -2.43 11.25 0.83 -0.15 -0.09 1819
1.43 -0.05 0.80 -2.45 11.27 0.93 -0.16 -0.10 1825
1.49 -0.04 0.85 -2.58 11.38 1.01 -0.20 -0.10 1831
1.55 -0.05 0.74 -2.62 11.58 1.10 -0.24 -0.11 1838
1.56 -0.05 0.70 -2.56 11.97 1.23 -0.25 -0.11 1844
1.59 -0.04 0.83 -2.83 12.15 1.41 -0.24 -0.12 1851
1.56 -0.05 0.80 -2.80 12.41 1.62 -0.26 -0.13 1857
1.56 -0.05 0.81 -2.92 12.41 1.83 -0.27 -0.15 1863
1.58 -0.06 0.87 -3.10 12.58 2.02 -0.28 -0.16 1869
1.53 -0.06 0.90 -3.18 12.65 2.22 -0.30 -0.19 1876
1.52 -0.05 0.91 -3.26 12.75 2.42 -0.31 -0.21 1883
1.48 -0.06 1.08 -3.46 13.17 2.64 -0.33 -0.25 1889
1.38 -0.06 1.29 -3.77 13.00 2.86 -0.37 -0.29 1895
1.31 -0.04 1.39 -3.80 13.37 3.09 -0.37 -0.34 1902
1.22 -0.05 1.28 -3.85 13.89 3.34 -0.40 -0.40 1908
1.06 -0.03 1.13 -4.18 14.37 3.63 -0.42 -0.46 1914
0.99 -0.03 1.30 -4.43 15.13 3.95 -0.43 -0.52 1921
0.77 -0.02 1.81 -5.09 16.04 4.19 -0.45 -0.58 1928
0.69 -0.01 2.34 -5.66 17.00 4.28 -0.50 -0.65 1934
0.59 -0.01 2.61 -6.52 18.43 4.28 -0.56 -0.73 1940
0.46 -0.00 2.61 -8.03 20.17 4.28 -0.50 -0.76 1946
0.45 -0.00 2.41 -10.15 21.49 4.28 -0.29 -0.74 1952
0.34 -0.01 3.09 -12.75 24.99 4.28 0.03 -0.68 1959
0.32 0.02 3.71 -14.13 25.24 4.28 0.41 -0.63 1966
0.22 0.01 3.99 -13.46 24.38 4.28 0.77 -0.62 1972
0.18 0.01 4.16 -11.30 23.57 4.28 1.03 -0.62 1979
0.15 0.01 3.83 -9.51 22.70 4.28 1.34 -0.58 1985
0.09 0.01 3.49 -7.90 24.57 4.28 1.68 -0.61 1991
0.08 0.03 2.80 -5.63 26.48 4.28 1.82 -0.72 1997
0.08 0.02 2.26 -2.42 27.85 4.28 1.79 -0.88 2003
0.05 0.01 1.92 0.07 25.55 4.28 1.54 -1.05 2011
0.07 0.02 2.79 4.57 25.84 4.28 1.33 -1.20 2017
0.06 0.01 3.19 8.74 24.35 4.28 1.12 -1.37 2023
0.06 0.01 1.94 10.69 20.87 4.28 1.10 -1.59 2029
0.06 0.00 2.05 11.22 11.22 4.28 0.90 -1.90 2036
0.05 -0.00 1.15 7.55 4.62 4.28 -0.26 -2.24 2042
0.05 -0.01 1.67 14.33 5.44 2.47 -1.12 -2.21 2049
0.06 -0.01 2.72 24.07 12.52 0.40 -1.20 -1.98 2055
0.05 -0.00 5.17 15.79 20.47 -0.65 -0.83 -1.74 2061
0.05 -0.00 5.36 8.89 17.59 -1.36 -0.66 -1.60 2068
0.05 -0.00 4.45 7.85 13.24 -1.81 -0.48 -1.48 2074
0.04 -0.00 3.98 9.55 9.38 -2.07 -0.20 -1.36 2080
0.04 -0.00 4.24 9.48 6.55 -2.22 0.06 -1.28 2086
0.04 -0.00 4.17 8.04 5.90 -2.36 0.29 -1.24 2093
0.05 -0.01 4.03 6.95 6.22 -2.46 0.50 -1.18 2099
0.04 -0.00 3.60 6.44 6.41 -2.54 0.76 -1.14 2105
0.05 -0.00 3.00 6.29 6.46 -2.63 0.97 -1.04 2111
0.05 -0.00 2.34 5.88 6.49 -2.74 1.07 -0.92 2117
0.05 -0.00 1.76 5.45 6.65 -2.86 1.07 -0.79 2124
0.05 -0.01 1.37 5.09 7.04 -2.95 0.95 -0.65 2130
0.05 -0.01 1.15 4.58 7.97 -3.07 0.83 -0.50 2137
0.05 -0.01 1.08 4.25 8.72 -3.18 0.63 -0.38 2143
0.05 0.00 1.17 3.83 9.21 -3.32 0.45 -0.24 2149
0.04 -0.00 1.52 3.58 9.83 -3.49 0.34 -0.09 2155
0.04 0.01 1.94 3.25 10.62 -3.72 0.33 0.04 2161
0.05 0.00 2.30 2.58 11.06 -3.99 0.41 0.16 2167
0.04 -0.00 2.53 1.79 11.56 -4.16 0.57 0.26 2174
0.04 0.01 2.56 1.55 11.92 -4.26 0.76 0.35 2181
0.05 0.00 2.38 0.39 11.94 -4.28 0.98 0.42 2187
0.05 -0.00 2.23 -0.57 12.21 -4.28 1.17 0.48 2193
0.04 0.01 1.89 -1.81 12.21 -4.28 1.37 0.53 2199
0.05 -0.01 1.39 -1.95 12.54 -4.28 1.53 0.54 2206
0.04 -0.00 0.85 -2.77 12.74 -4.28 1.63 0.54 2212
0.04 0.01 0.46 -3.48 13.14 -4.28 1.68 0.51 2219
0.05 0.00 0.09 -4.20 13.56 -4.27 1.71 0.46 2225
0.03 -0.00 -0.15 -4.86 13.90 -4.24 1.71 0.39 2231
0.04 0.01 -0.34 -5.60 14.39 -4.19 1.71 0.30 2238
0.05 0.00 -0.27 -6.01 14.95 -4.12 1.71 0.22 2244
0.04 -0.00 -0.31 -6.09 15.67 -4.07 1.71 0.16 2250
0.03 0.00 -0.39 -5.79 16.59 -4.02 1.69 0.14 2256
0.05 -0.00 -0.48 -5.44 17.62 -4.01 1.68 0.15 2263
0.04 -0.00 -0.62 -5.33 18.58 -4.01 1.66 0.20 2269
0.04 0.01 -0.82 -5.49 19.27 -4.03 1.63 0.27 2276
0.05 0.00 -1.01 -5.79 19.64 -4.04 1.57 0.36 2282
0.04 -0.00 -0.97 -6.31 19.84 -4.03 1.45 0.39 2288
0.04 0.01 -0.90 -7.10 19.08 -4.00 1.32 0.43 2294
0.04 0.01 -0.59 -8.09 19.31 -3.91 1.21 0.46 2300
0.04 0.00 -0.22 -9.18 18.84 -3.78 1.11 0.46 2308
0.04 0.01 0.11 -10.20 18.32 -3.61 1.01 0.43 2314
0.04 0.00 0.21 -10.91 17.68 -3.40 0.92 0.38 2320
0.03 0.00 0.21 -11.50 17.06 -3.17 0.78 0.33 2326
0.05 0.00 0.07 -12.01 16.50 -2.91 0.61 0.29 2333
0.04 -0.00 0.04 -12.55 16.21 -2.61 0.40 0.26 2339
0.04 0.00 0.24 -13.02 15.98 -2.29 0.19 0.25 2345
0.04 0.00 0.59 -13.61 15.68 -1.94 0.02 0.27 2352
0.04 -0.00 1.27 -14.09 15.29 -1.58 -0.07 0.32 2358
0.04 0.01 1.92 -14.55 14.98 -1.27 -0.04 0.40 2365
0.04 0.01 2.33 -15.12 14.77 -0.96 0.11 0.51 2371
0.04 0.01 2.36 -15.60 14.82 -0.74 0.35 0.64 2377
0.05 -0.01 1.79 -15.95 15.41 -0.66 0.63 0.80 2383
0.05 -0.00 0.65 -16.20 15.85 -0.70 0.92 0.97 2391
0.04 0.01 -0.72 -16.09 15.45 -0.90 1.18 1.17 2397
0.05 0.01 -1.60 -16.02 14.17 -1.25 1.41 1.38 2403
0.03 0.01 -2.36 -16.39 12.55 -1.66 1.62 1.63 2409
0.06 0.00 -3.02 -17.38 11.24 -2.05 1.80 1.89 2416
0.03 -0.00 -3.55 -18.95 9.14 -2.32 1.89 2.13 2422
0.04 0.01 -4.41 -20.70 5.93 -2.42 1.87 2.33 2428
0.04 0.01 -4.77 -22.79 4.01 -2.29 1.70 2.47 2435
0.04 0.01 -5.96 -25.49 1.13 -1.92 1.43 2.49 2442
0.04 0.02 -6.44 -26.81 -1.16 -1.39 1.04 2.38 2448
0.04 0.01 -6.99 -26.90 -1.85 -0.77 0.59 2.15 2454
0.03 0.01 -6.87 -26.25 -0.83 -0.17 0.24 1.81 2460
0.05 0.01 -6.33 -24.75 0.69 0.29 -0.01 1.49 2466
0.04 0.01 -5.32 -22.87 3.53 0.60 -0.18 1.05 2473
0.04 0.02 -4.08 -20.76 5.23 0.73 -0.27 0.60 2480
0.05 0.00 -15.82 -40.77 36.16 2.04 -1.54 0.34 2486
0.03 0.00 -11.00 -20.36 -5.22 2.52 -1.64 0.14 2492
0.06 -0.01 -3.73 -8.40 -3.06 2.67 -2.45 -0.06 2499
0.03 0.00 1.08 1.60 9.08 2.71 -3.05 -0.21 2505
-0.00 0.41 4.64 8.67 12.98 2.76 -2.00 0.04 2511
-0.01 0.64 5.36 4.20 13.23 2.75 -1.35 0.37 2518
-0.01 0.73 1.52 -1.25 11.95 2.79 -0.96 0.56 2524
-0.03 0.81 -1.82 -4.21 16.77 3.02 -0.70 0.59 2531
-0.01 0.87 -4.63 -4.62 15.24 3.29 -0.72 0.49 2537
-0.02 0.95 -4.11 -5.47 18.93 3.58 -0.68 0.29 2543
-0.02 1.05 -4.20 -5.75 23.65 3.87 -0.09 0.07 2549
-0.02 1.12 -3.74 -4.25 26.48 3.78 0.73 -0.29 2555
-0.03 1.15 4.12 -5.82 34.78 3.42 1.05 -0.60 2563
-0.04 1.21 4.06 -3.15 11.01 0.40 -0.45 -0.12 2569
-0.03 1.29 2.13 -2.29 11.00 0.10 -0.39 0.13 2575
-0.03 1.31 0.11 -1.36 10.50 0.12 -0.46 0.12 2581
0.01 1.33 0.59 -2.41 10.79 0.07 -0.27 0.09 2588
-0.00 1.32 0.71 -3.13 10.07 0.00 -0.07 0.11 2594
0.02 1.31 0.80 -1.47 10.14 0.01 -0.04 0.10 2600
0.07 1.33 0.17 -0.25 10.38 0.05 -0.11 0.10 2607
0.07 1.31 0.82 -1.40 10.07 0.06 -0.10 0.13 2613
0.06 1.30 0.82 -1.14 10.03 0.04 -0.08 0.14 2620
0.10 1.31 0.86 -1.20 9.87 0.03 -0.06 0.14 2626
0.09 1.30 0.82 -1.08 9.91 0.02 -0.06 0.14 2632
0.11 1.29 0.81 -1.05 9.86 0.02 -0.06 0.14 2638
0.13 1.25 0.84 -1.07 9.86 0.02 -0.07 0.15 2644
0.15 1.24 0.82 -1.00 9.86 0.03 -0.07 0.15 2651
0.12 1.20 0.76 -0.97 9.89 0.03 -0.08 0.16 2657
0.15 1.19 0.74 -0.97 9.93 0.03 -0.07 0.17 2664
0.17 1.15 0.79 -0.97 9.92 0.04 -0.07 0.17 2670
0.18 1.09 0.77 -1.01 9.93 0.04 -0.06 0.16 2676
0.20 1.07 0.72 -0.97 9.98 0.04 -0.06 0.17 2682
0.23 0.99 0.74 -1.02 9.91 0.04 -0.04 0.18 2689
0.21 0.95 0.70 -1.02 9.88 0.04 -0.04 0.19 2695
0.23 0.91 0.74 -0.98 9.97 0.04 -0.03 0.18 2702
0.26 0.82 0.77 -0.99 9.88 0.04 -0.02 0.19 2708
0.27 0.74 0.78 -1.00 9.90 0.04 -0.02 0.18 2714
0.28 0.67 0.79 -1.05 9.87 0.04 -0.02 0.18 2720
0.33 0.62 0.79 -1.02 9.85 0.05 -0.03 0.18 2726
0.34 0.54 0.80 -1.03 9.88 0.05 -0.03 0.17 2733
0.32 0.50 0.80 -1.06 9.89 0.05 -0.03 0.16 2739
0.34 0.45 0.82 -1.06 9.91 0.06 -0.04 0.16 2746
0.38 0.36 0.81 -1.08 9.84 0.06 -0.04 0.16 2752
0.36 0.32 0.80 -1.07 9.88 0.07 -0.04 0.15 2758
0.39 0.19 0.80 -1.10 9.97 0.07 -0.04 0.15 2764
0.41 0.13 0.82 -1.10 9.90 0.08 -0.04 0.14 2770
0.41 0.10 0.80 -1.13 9.92 0.08 -0.04 0.13 2777
0.42 0.02 0.81 -1.15 9.91 0.09 -0.05 0.14 2784
0.43 0.01 0.80 -1.18 9.93 0.09 -0.05 0.12 2790
0.46 -0.01 0.83 -1.20 9.94 0.10 -0.06 0.11 2796
0.49 -0.01 0.88 -1.26 9.91 0.11 -0.07 0.11 2802
0.52 -0.01 0.89 -1.25 9.98 0.11 -0.09 0.09 2808
0.55 -0.01 0.88 -1.27 10.00 0.13 -0.11 0.08 2814
0.58 -0.03 0.89 -1.27 9.91 0.14 -0.13 0.06 2822
0.60 -0.01 0.93 -1.32 9.95 0.15 -0.14 0.03 2828
0.64 -0.01 0.92 -1.37 9.91 0.17 -0.16 0.01 2834
0.66 -0.03 0.87 -1.40 9.95 0.18 -0.18 0.01 2840
0.69 -0.02 0.94 -1.41 9.98 0.19 -0.19 -0.01 2846
0.79 -0.02 0.94 -1.47 9.98 0.21 -0.20 -0.02 2852
0.80 -0.02 0.94 -1.42 9.96 0.22 -0.21 -0.04 2859
0.80 -0.04 0.90 -1.48 10.06 0.23 -0.22 -0.04 2866
0.87 -0.02 0.86 -1.57 10.07 0.23 -0.22 -0.05 2872
0.90 -0.04 0.92 -1.56 10.03 0.24 -0.22 -0.05 2878
0.93 -0.03 0.87 -1.63 10.01 0.24 -0.23 -0.06 2884
0.98 -0.04 0.77 -1.63 10.00 0.25 -0.22 -0.06 2891
0.97 -0.05 0.81 -1.67 10.01 0.26 -0.23 -0.06 2897
1.00 -0.04 0.70 -1.63 9.98 0.25 -0.22 -0.06 2904
1.02 -0.03 0.83 -1.65 9.98 0.24 -0.21 -0.06 2910
1.06 -0.04 0.78 -1.67 10.00 0.25 -0.20 -0.06 2916
1.07 -0.02 0.81 -1.76 9.88 0.26 -0.20 -0.07 2922
1.10 -0.03 0.61 -1.75 9.86 0.24 -0.19 -0.06 2929
1.12 -0.03 0.60 -1.76 9.98 0.23 -0.17 -0.06 2935
1.13 -0.04 0.66 -1.73 9.98 0.23 -0.16 -0.05 2941
1.17 -0.04 0.63 -1.76 9.89 0.24 -0.15 -0.05 2948
1.18 -0.04 0.67 -1.78 9.98 0.24 -0.13 -0.04 2954
1.23 -0.04 0.69 -1.92 10.06 0.25 -0.13 -0.04 2961
1.27 -0.05 0.77 -1.88 10.04 0.27 -0.12 -0.04 2967
1.30 -0.05 0.75 -1.91 10.09 0.28 -0.11 -0.04 2973
1.32 -0.03 0.71 -1.97 10.05 0.30 -0.11 -0.04 2979
1.33 -0.03 0.73 -1.97 10.04 0.32 -0.07 -0.04 2985
1.32 -0.04 0.66 -1.96 10.07 0.33 -0.09 -0.04 2993
1.35 -0.02 0.68 -2.00 10.07 0.36 -0.08 -0.04 2999
1.35 -0.03 0.74 -2.04 10.13 0.38 -0.08 -0.04 3005
1.37 -0.04 0.74 -2.10 10.24 0.40 -0.07 -0.04 3011
1.40 -0.05 0.73 -2.08 10.25 0.43 -0.06 -0.05 3017
1.44 -0.05 0.68 -2.07 10.29 0.47 -0.06 -0.05 3024
1.45 -0.04 0.71 -2.19 10.44 0.51 -0.06 -0.05 3031
1.48 -0.05 0.71 -2.23 10.57 0.55 -0.06 -0.05 3037
1.48 -0.05 0.74 -2.21 10.80 0.62 -0.06 -0.05 3043
1.50 -0.05 0.71 -2.34 11.05 0.68 -0.08 -0.06 3050
1.52 -0.05 0.72 -2.39 11.07 0.76 -0.09 -0.07 3056
1.54 -0.05 0.70 -2.43 11.30 0.84 -0.10 -0.07 3062
1.60 -0.04 0.84 -2.43 11.35 0.91 -0.15 -0.07 3068
1.61 -0.05 0.72 -2.54 11.15 0.99 -0.19 -0.08 3075
1.64 -0.07 0.61 -2.63 11.49 1.07 -0.20 -0.08 3082
1.66 -0.06 0.56 -2.53 11.24 1.22 -0.21 -0.08 3088
1.66 -0.07 0.69 -2.73 12.10 1.34 -0.21 -0.08 3094
1.64 -0.06 0.75 -2.83 12.44 1.52 -0.21 -0.09 3100
1.66 -0.06 0.82 -3.03 12.97 1.74 -0.22 -0.10 3107
1.62 -0.07 0.92 -3.09 13.08 1.99 -0.24 -0.12 3113
1.61 -0.04 0.87 -3.17 12.98 2.24 -0.25 -0.15 3120
1.60 -0.05 0.91 -3.31 12.88 2.45 -0.26 -0.18 3126
1.54 -0.04 0.98 -3.48 13.29 2.66 -0.30 -0.21 3133
1.48 -0.04 1.42 -3.69 13.30 2.89 -0.31 -0.26 3139
1.38 -0.04 1.48 -3.84 13.35 3.12 -0.36 -0.33 3145
1.24 -0.03 1.31 -4.01 13.67 3.37 -0.41 -0.40 3151
1.13 -0.03 1.06 -4.19 14.19 3.64 -0.43 -0.46 3158
1.01 -0.03 0.87 -4.75 15.40 3.96 -0.46 -0.53 3165
0.86 -0.00 1.10 -5.36 14.86 4.20 -0.50 -0.55 3171
0.81 -0.02 2.18 -5.77 16.71 4.28 -0.56 -0.62 3177
0.66 -0.00 2.57 -6.13 18.24 4.28 -0.65 -0.72 3183
0.61 -0.01 2.72 -7.42 18.75 4.28 -0.73 -0.80 3190
0.55 -0.02 2.62 -9.32 22.22 4.28 -0.70 -0.82 3196
0.45 -0.01 2.01 -11.57 23.31 4.28 -0.57 -0.80 3203
0.35 -0.02 2.17 -13.65 25.01 4.28 -0.29 -0.74 3209
0.30 -0.02 1.99 -14.26 24.45 4.28 -0.02 -0.69 3216
0.27 -0.02 1.49 -12.07 23.12 4.28 0.11 -0.65 3222
0.21 -0.02 0.97 -10.74 23.22 4.28 0.21 -0.59 3228
0.18 -0.02 0.63 -8.74 24.13 4.28 0.41 -0.51 3234
0.12 -0.01 0.54 -7.23 25.60 4.28 0.45 -0.51 3241
0.08 -0.01 0.47 -4.86 26.20 4.28 0.31 -0.58 3248
0.07 -0.01 1.10 -1.20 24.91 4.28 0.09 -0.61 3254
0.06 -0.01 2.69 1.66 25.14 4.28 -0.20 -0.66 3260
0.05 -0.01 3.44 5.87 25.61 4.28 -0.42 -0.73 3266
0.07 -0.00 3.60 10.06 24.49 4.28 -0.46 -0.81 3272
0.05 -0.00 3.57 10.26 18.33 4.28 -0.19 -0.92 3279
0.05 -0.00 5.42 3.10 13.37 4.28 -0.13 -1.26 3286
0.06 0.01 2.49 9.55 3.82 4.28 -0.66 -1.70 3292
0.06 0.02 5.09 14.18 0.96 3.21 -1.20 -1.98 3298
0.04 0.00 3.91 22.54 15.36 0.96 -0.91 -2.07 3305
0.07 0.00 7.46 16.92 23.43 -0.37 -0.04 -2.01 3311
0.06 -0.01 6.08 10.94 20.45 -1.39 0.56 -1.97 3317
0.05 0.01 4.08 9.83 16.48 -2.27 0.90 -1.87 3323
0.05 -0.00 3.09 11.09 13.01 -2.95 1.08 -1.64 3330
0.04 0.00 2.88 10.49 10.78 -3.42 1.16 -1.41 3337
0.06 0.00 2.72 8.32 9.68 -3.71 1.17 -1.23 3343
0.05 0.00 2.55 6.15 8.99 -3.85 1.16 -1.07 3349
0.03 0.00 2.00 4.95 8.42 -3.91 1.12 -0.89 3355
0.04 0.01 1.76 4.54 7.96 -3.92 1.04 -0.72 3361
0.05 0.00 1.53 3.89 7.35 -3.88 0.91 -0.57 3368
0.05 -0.01 0.64 3.00 7.30 -3.86 0.76 -0.45 3375
0.05 0.00 1.35 2.44 7.41 -3.87 0.65 -0.31 3381
0.06 -0.00 1.41 2.40 8.10 -3.91 0.51 -0.18 3387
0.05 0.00 1.69 2.51 8.63 -3.97 0.41 -0.10 3393
0.04 0.01 1.98 2.36 9.28 -4.05 0.36 -0.00 3399
0.05 0.01 2.29 1.95 9.80 -4.12 0.39 0.07 3405
0.05 0.00 2.40 1.38 10.29 -4.19 0.48 0.15 3412
0.04 0.00 2.51 0.84 10.78 -4.23 0.61 0.21 3419
0.05 0.01 2.49 0.41 11.45 -4.26 0.76 0.27 3425
0.05 0.00 2.30 0.10 11.84 -4.28 0.93 0.31 3431
0.04 0.00 2.12 -0.59 12.49 -4.28 1.09 0.34 3437
0.05 0.01 1.79 -1.02 12.68 -4.28 1.20 0.36 3444
0.05 0.00 1.50 -1.39 12.90 -4.28 1.33 0.37 3450
0.03 -0.00 1.30 -2.00 13.46 -4.28 1.42 0.37 3457
0.04 0.01 1.05 -2.60 13.70 -4.28 1.49 0.36 3463
0.04 0.00 0.94 -3.30 14.47 -4.28 1.56 0.33 3469
0.03 0.00 0.74 -3.94 15.06 -4.28 1.63 0.28 3475
0.04 0.01 0.60 -4.45 15.45 -4.28 1.70 0.23 3482
0.04 0.00 0.46 -4.98 15.64 -4.27 1.79 0.17 3488
0.03 0.00 0.24 -5.30 16.00 -4.25 1.88 0.12 3494
0.06 -0.01 0.02 -5.61 16.39 -4.21 1.98 0.08 3501
0.04 -0.00 -0.13 -6.05 16.70 -4.14 2.07 0.07 3507
0.03 0.00 -0.51 -6.54 17.12 -4.04 2.12 0.08 3514
0.05 0.01 -0.77 -6.95 17.31 -3.87 2.11 0.12 3520
0.04 0.01 -1.11 -7.04 17.90 -3.69 2.10 0.18 3526
0.04 0.01 -1.41 -7.10 18.76 -3.53 2.01 0.25 3532
0.06 0.00 -1.57 -7.36 19.47 -3.40 1.86 0.31 3538
0.04 -0.00 -1.64 -7.82 20.06 -3.30 1.70 0.40 3546
0.04 0.01 -1.54 -8.55 19.64 -3.22 1.52 0.49 3552
0.05 -0.01 -1.36 -9.42 20.31 -3.15 1.32 0.56 3558
0.04 -0.00 -1.18 -10.30 19.97 -3.05 1.12 0.63 3564
0.04 0.00 -0.93 -11.16 19.36 -2.94 0.91 0.68 3570
0.05 0.00 -0.60 -11.98 18.77 -2.80 0.70 0.71 3577
0.03 -0.00 -0.26 -12.75 18.54 -2.62 0.50 0.71 3584
0.04 0.01 0.14 -13.47 18.32 -2.42 0.37 0.71 3590
0.04 -0.00 0.68 -14.20 18.08 -2.22 0.32 0.71 3596
0.03 -0.00 1.22 -14.81 18.39 -2.04 0.38 0.73 3603
0.06 -0.01 1.58 -15.32 18.54 -1.95 0.56 0.76 3609
0.04 -0.00 1.80 -15.69 17.99 -1.94 0.82 0.82 3615
0.04 -0.00 1.61 -16.05 17.04 -2.02 1.11 0.92 3621
0.05 -0.00 0.65 -16.49 16.15 -2.16 1.43 1.06 3628
0.04 -0.00 -1.14 -17.05 14.72 -2.33 1.68 1.25 3635
0.04 0.01 -2.27 -17.62 13.19 -2.48 1.95 1.49 3641
0.04 -0.00 -3.97 -19.11 11.93 -2.59 2.20 1.76 3647
0.03 -0.00 -5.29 -20.57 10.59 -2.64 2.28 2.02 3653
0.05 -0.00 -6.48 -23.17 9.38 -2.64 2.02 2.19 3660
0.05 -0.00 -7.58 -25.18 7.19 -2.56 1.54 2.28 3666
0.04 -0.00 -8.41 -26.33 5.29 -2.42 0.99 2.33 3673
0.05 -0.00 -7.61 -27.23 2.63 -2.22 0.50 2.30 3679
0.04 -0.00 -7.39 -27.86 1.15 -1.92 0.12 2.19 3685
0.04 -0.00 -6.88 -28.13 -0.02 -1.48 -0.18 1.98 3691
0.06 -0.00 -5.99 -27.42 -0.24 -0.93 -0.43 1.65 3698
0.04 -0.00 -4.68 -25.73 0.41 -0.35 -0.63 1.21 3704
0.04 -0.00 -1.82 -41.12 -7.30 0.29 -0.93 0.71 3710
0.06 -0.01 -1.94 -27.72 -0.14 2.96 -0.71 0.16 3717
0.04 -0.00 -7.30 -24.46 -6.52 2.92 -0.96 -0.14 3723
0.03 -0.00 -3.07 -13.65 3.96 3.30 -1.94 -0.30 3729
0.04 0.04 -4.05 5.25 6.51 3.39 -2.74 -0.49 3736
0.01 0.45 3.16 4.54 14.53 3.51 -2.29 -0.34 3742
-0.01 0.64 8.04 1.61 18.00 3.48 -1.51 0.06 3748
-0.00 0.76 6.97 -0.11 15.23 3.26 -0.54 0.36 3755
-0.00 0.75 3.08 -3.82 16.75 3.17 -0.06 0.60 3762
-0.01 0.78 -1.61 -4.79 17.75 3.03 -0.14 0.65 3768
0.00 0.84 -3.35 -3.93 16.54 3.04 -0.40 0.53 3774
-0.01 0.90 -2.56 -2.80 16.37 3.07 -0.48 0.34 3780
-0.02 0.97 -3.27 -2.77 16.79 3.13 -0.31 0.16 3786
-0.01 1.02 -4.18 -2.66 18.39 3.16 0.01 -0.09 3793
-0.01 1.08 -2.29 -2.90 18.01 3.17 0.27 -0.38 3800
-0.01 1.12 1.49 -3.42 18.92 3.17 0.74 -0.56 3806
-0.02 1.17 3.82 -3.88 24.45 3.08 1.03 -0.60 3812
-0.02 1.17 5.86 -2.58 16.77 0.68 -0.64 -0.21 3819
-0.01 1.22 1.88 -2.58 12.57 0.20 -0.54 0.13 3825
-0.02 1.26 0.26 -1.72 10.64 0.12 -0.42 0.13 3831
-0.02 1.30 0.54 -1.71 10.44 0.04 -0.28 0.06 3837
-0.01 1.32 1.26 -1.72 9.87 0.00 -0.12 0.08 3844
0.00 1.33 1.63 -1.55 9.99 -0.00 -0.13 0.09 3851
0.00 1.34 1.02 -1.22 10.14 0.01 -0.10 0.09 3857
0.02 1.33 0.97 -1.83 10.02 0.01 -0.08 0.10 3863
0.02 1.34 0.91 -1.23 9.90 0.01 -0.06 0.10 3869
0.02 1.34 0.97 -1.15 9.97 0.01 -0.05 0.09 3875
0.04 1.36 0.96 -1.11 9.87 0.01 -0.05 0.10 3881
0.03 1.35 1.02 -1.08 10.03 0.01 -0.05 0.10 3889
0.04 1.37 1.01 -1.09 9.87 0.01 -0.05 0.11 3895
0.05 1.36 0.91 -1.07 9.88 0.02 -0.06 0.11 3901
0.06 1.34 0.97 -1.07 9.84 0.03 -0.06 0.11 3907
0.06 1.33 0.96 -1.05 9.84 0.03 -0.10 0.11 3913
0.06 1.30 0.94 -1.03 9.84 0.04 -0.07 0.11 3919
0.06 1.25 0.93 -1.03 9.87 0.04 -0.06 0.12 3926
0.08 1.19 0.92 -1.06 9.88 0.03 -0.05 0.12 3933
0.08 1.16 0.92 -1.05 9.93 0.04 -0.04 0.13 3939
0.09 1.13 0.95 -1.04 9.92 0.03 -0.04 0.14 3945
0.09 1.07 0.94 -1.10 9.86 0.03 -0.04 0.13 3951
0.09 1.04 0.91 -1.07 9.86 0.07 -0.03 0.14 3957
0.11 1.01 0.87 -1.03 9.85 0.03 -0.02 0.14 3963
0.13 0.95 0.92 -1.06 9.81 0.03 -0.02 0.14 3970
0.13 0.90 0.89 -1.01 9.90 0.03 -0.01 0.14 3977
0.13 0.87 0.92 -1.06 9.86 0.03 -0.00 0.14 3983
0.14 0.82 0.94 -1.03 9.83 0.03 0.00 0.15 3989
0.14 0.78 0.87 -1.04 9.87 0.03 0.00 0.15 3995
0.15 0.78 0.94 -1.05 9.82 0.03 0.00 0.15 4001
0.16 0.71 0.97 -1.08 9.83 0.00 0.00 0.15 4007
0.15 0.68 0.98 -1.09 9.82 0.03 -0.00 0.14 4014
0.15 0.64 0.96 -1.08 9.84 0.03 -0.01 0.14 4021
0.15 0.65 0.98 -1.09 9.82 0.03 -0.01 0.13 4027
0.17 0.60 0.91 -1.08 9.86 0.04 -0.02 0.14 4033
0.17 0.55 0.94 -1.10 9.82 0.03 -0.02 0.13 4039
0.15 0.50 0.92 -1.11 9.84 0.03 -0.01 0.13 4045
0.18 0.46 0.93 -1.09 9.85 0.03 -0.01 0.13 4051
0.18 0.43 0.88 -1.09 9.83 0.03 0.01 0.14 4058
0.19 0.41 0.92 -1.03 9.84 0.02 0.01 0.13 4065
0.21 0.37 0.93 -1.06 9.81 0.03 0.02 0.14 4071
0.20 0.33 0.95 -1.07 9.83 0.03 0.02 0.14 4077
0.20 0.28 0.97 -1.09 9.81 0.03 0.02 0.14 4083
0.21 0.25 0.96 -1.11 9.82 0.03 0.01 0.14 4089
0.24 0.21 0.99 -1.08 9.82 0.04 0.00 0.14 4096
0.22 0.23 1.01 -1.09 9.81 0.03 0.00 0.13 4102
0.24 0.16 0.97 -1.12 9.81 0.03 -0.00 0.13 4109
0.24 0.14 0.96 -1.10 9.83 0.03 -0.01 0.13 4115
0.24 0.11 1.02 -1.10 9.81 0.03 -0.00 0.14 4121
0.23 0.06 0.96 -1.14 9.84 0.04 -0.01 0.13 4127
0.26 0.05 1.03 -0.96 9.89 0.03 -0.01 0.10 4133
0.28 0.03 0.98 -1.11 9.87 0.03 -0.01 0.12 4140
0.29 0.02 1.00 -1.09 9.84 0.04 -0.01 0.13 4146
0.27 0.02 1.00 -1.17 9.85 0.04 -0.01 0.13 4153
0.29 0.01 0.98 -1.12 9.86 0.03 -0.01 0.12 4159
0.29 0.00 0.98 -1.13 9.85 0.04 -0.02 0.12 4165
0.30 0.01 1.05 -1.18 9.85 0.04 -0.02 0.13 4171
0.32 -0.01 0.99 -1.16 9.86 0.04 -0.02 0.12 4177
0.32 -0.01 1.05 -1.13 9.82 0.05 -0.03 0.12 4184
0.30 -0.01 1.03 -1.18 9.87 0.05 -0.04 0.11 4191
0.29 -0.01 1.03 -1.18 9.83 0.06 -0.04 0.11 4197
0.33 -0.01 1.05 -1.16 9.84 0.06 -0.06 0.10 4203
0.33 -0.00 1.13 -1.22 9.84 0.07 -0.08 0.10 4209
0.31 -0.00 1.06 -1.20 9.90 0.08 -0.09 0.10 4215
0.37 0.00 1.10 -1.21 9.87 0.09 -0.11 0.08 4221
0.41 -0.01 1.12 -1.25 9.90 0.11 -0.12 0.07 4228
0.39 -0.01 1.08 -1.27 9.92 0.13 -0.13 0.05 4235
0.41 -0.01 1.11 -1.30 9.92 0.14 -0.14 0.04 4241
0.48 -0.02 1.08 -1.31 9.99 0.17 -0.14 0.03 4247
0.48 -0.03 1.08 -1.41 9.95 0.20 -0.15 0.02 4253
0.51 -0.02 1.16 -1.21 9.94 0.24 -0.16 -0.01 4259
0.59 -0.02 1.15 -1.51 10.22 0.30 -0.17 -0.03 4265
0.62 -0.03 1.14 -1.55 10.31 0.38 -0.17 -0.06 4273
0.67 -0.02 1.10 -1.65 10.49 0.47 -0.16 -0.07 4279
0.69 -0.02 1.10 -1.61 10.58 0.58 -0.16 -0.09 4285
0.72 -0.03 1.16 -1.83 10.86 0.69 -0.17 -0.09 4291
0.75 -0.01 1.20 -1.70 11.07 0.80 -0.19 -0.11 4298
0.82 -0.02 1.15 -1.88 11.06 0.93 -0.21 -0.12 4304
0.83 -0.02 1.04 -2.02 11.53 1.03 -0.22 -0.13 4311
0.92 -0.02 1.04 -1.92 11.58 1.08 -0.19 -0.15 4317
0.91 -0.04 1.00 -2.01 11.53 1.17 -0.18 -0.14 4323
0.94 -0.04 0.97 -2.28 11.59 1.24 -0.16 -0.15 4330
0.96 -0.04 0.88 -2.14 11.29 1.32 -0.15 -0.15 4336
0.99 -0.04 0.99 -2.34 11.63 1.39 -0.10 -0.14 4342
1.00 -0.02 0.87 -2.32 11.89 1.49 -0.11 -0.13 4348
1.06 -0.03 1.18 -2.52 12.33 1.59 -0.12 -0.12 4356
1.01 -0.03 1.16 -2.50 12.39 1.71 -0.11 -0.12 4362
1.00 -0.05 1.16 -2.69 12.91 1.91 -0.08 -0.13 4368
1.01 -0.04 1.24 -2.61 13.68 2.19 -0.02 -0.14 4374
0.97 -0.02 1.20 -2.91 13.75 2.50 0.04 -0.15 4381
0.96 -0.04 1.18 -2.96 13.83 2.82 0.07 -0.16 4387
0.87 -0.03 1.66 -3.13 13.57 3.11 0.10 -0.20 4393
0.78 -0.02 1.51 -3.16 13.90 3.39 0.10 -0.24 4400
0.72 -0.02 1.67 -3.45 14.33 3.67 0.12 -0.29 4406
0.63 -0.02 1.73 -3.65 15.01 4.03 0.14 -0.33 4413
0.53 -0.01 1.97 -3.94 15.52 4.25 0.14 -0.37 4419
0.45 -0.02 2.20 -4.23 16.21 4.28 0.14 -0.43 4425
0.35 0.00 2.63 -5.63 17.11 4.28 0.14 -0.50 4431
0.32 -0.00 2.67 -6.63 18.86 4.28 0.15 -0.54 4439
0.31 -0.01 2.32 -8.15 21.08 4.28 0.20 -0.53 4445
0.27 0.01 1.98 -10.38 24.50 4.28 0.28 -0.45 4451
0.26 -0.02 1.82 -12.05 25.53 4.28 0.46 -0.32 4457
0.18 -0.00 1.76 -12.10 26.23 4.28 0.53 -0.27 4464
0.16 -0.00 1.13 -12.02 23.85 4.28 0.56 -0.23 4470
0.16 -0.00 0.83 -11.13 24.85 4.28 0.64 -0.14 4476
0.12 -0.01 1.01 -10.86 26.65 4.28 0.70 -0.05 4483
0.10 0.00 2.03 -8.88 28.53 4.28 0.69 -0.07 4490
0.07 0.01 2.86 -6.15 28.44 4.28 0.58 -0.18 4496
0.07 -0.01 4.42 -2.77 28.13 4.28 0.40 -0.32 4502
0.05 -0.00 5.45 1.46 27.77 4.28 0.28 -0.43 4508
0.05 0.00 5.17 6.30 27.63 4.28 0.32 -0.54 4514
0.06 -0.00 5.33 10.22 24.57 4.28 0.58 -0.65 4521
0.04 0.01 4.17 12.43 21.00 4.28 1.17 -0.78 4528
0.06 -0.00 6.65 13.23 24.85 4.28 1.80 -1.17 4534
0.04 0.00 4.13 9.00 2.01 4.28 0.94 -1.79 4540
0.03 0.01 3.87 12.99 3.85 3.90 -0.11 -2.17 4547
0.04 0.02 1.50 24.42 12.78 1.38 -0.20 -2.14 4553
0.03 0.01 5.44 19.98 23.68 -0.05 0.44 -1.87 4559
0.03 0.02 4.80 12.33 20.72 -1.21 0.49 -1.74 4566
0.03 0.02 2.32 9.81 17.31 -2.18 0.20 -1.72 4573
0.03 0.01 1.83 11.52 14.09 -2.93 -0.04 -1.60 4579
0.04 0.01 1.92 11.36 10.93 -3.42 -0.14 -1.41 4585
0.03 0.01 2.42 9.16 9.23 -3.73 -0.20 -1.28 4591
0.04 0.02 2.79 7.17 8.88 -3.94 -0.26 -1.21 4597
0.04 0.02 2.83 6.21 8.17 -4.05 -0.30 -1.16 4604
0.04 0.00 3.05 5.52 7.57 -4.10 -0.27 -1.11 4611
0.03 0.02 3.29 4.50 7.33 -4.11 -0.22 -1.08 4617
0.04 0.01 3.37 3.69 7.13 -4.12 -0.19 -1.08 4623
0.03 0.00 3.28 3.24 7.23 -4.14 -0.14 -1.08 4629
0.02 0.00 3.33 2.88 7.20 -4.17 -0.10 -1.07 4635
0.04 0.01 3.32 2.61 7.47 -4.20 -0.03 -1.06 4642
0.04 0.01 3.30 2.38 7.87 -4.23 0.03 -1.02 4648
0.04 -0.00 3.34 1.95 8.53 -4.26 0.09 -0.98 4655
0.03 -0.00 3.27 1.50 9.11 -4.27 0.16 -0.92 4661
0.04 0.00 3.31 0.90 9.62 -4.28 0.24 -0.85 4667
0.03 0.00 3.46 0.36 10.30 -4.28 0.32 -0.77 4673
0.02 -0.00 3.58 -0.12 11.02 -4.28 0.41 -0.69 4679
0.03 -0.00 3.62 -0.57 11.62 -4.28 0.51 -0.61 4686
0.03 -0.00 3.63 -0.94 12.35 -4.28 0.64 -0.51 4692
0.02 -0.00 3.54 -1.25 12.75 -4.28 0.78 -0.43 4699
0.03 0.00 3.40 -1.58 13.11 -4.28 0.94 -0.34 4705
0.03 -0.00 3.35 -2.11 13.56 -4.28 1.10 -0.27 4711
0.02 -0.00 3.18 -2.77 13.83 -4.28 1.28 -0.21 4717
0.03 0.00 2.92 -3.46 14.64 -4.28 1.47 -0.16 4724
0.03 -0.00 2.72 -4.23 15.31 -4.28 1.65 -0.14 4730
0.02 -0.00 2.38 -4.95 16.05 -4.28 1.81 -0.15 4737
0.03 0.01 2.05 -5.40 16.67 -4.28 1.96 -0.18 4743
0.03 0.00 1.67 -5.78 17.07 -4.27 2.08 -0.20 4749
0.02 -0.00 1.24 -6.13 17.31 -4.23 2.18 -0.21 4756
0.03 -0.00 0.78 -6.56 17.71 -4.16 2.26 -0.19 4762
0.03 -0.00 0.21 -7.06 18.56 -4.05 2.28 -0.14 4768
0.03 -0.00 -0.18 -7.78 18.98 -3.88 2.23 -0.09 4774
0.03 0.01 -0.51 -8.48 19.35 -3.70 2.10 0.02 4781
0.03 -0.00 -0.76 -8.98 19.79 -3.52 1.90 0.17 4787
0.03 -0.00 -0.91 -9.53 20.27 -3.35 1.63 0.34 4794
0.03 0.00 -1.15 -10.05 20.54 -3.19 1.28 0.52 4800
0.03 -0.00 -1.12 -10.68 21.01 -3.07 0.87 0.69 4806
0.02 -0.00 -0.82 -11.30 21.06 -2.95 0.45 0.86 4812
0.03 -0.00 -0.40 -11.85 21.07 -2.82 0.09 1.02 4818
0.03 -0.00 0.17 -12.33 20.86 -2.71 -0.16 1.17 4826
0.02 -0.00 0.72 -13.12 20.47 -2.63 -0.26 1.31 4832
0.04 -0.00 1.12 -14.20 19.96 -2.50 -0.18 1.45 4838
0.03 -0.00 1.43 -15.42 19.52 -2.37 -0.03 1.58 4844
0.02 0.00 1.56 -16.53 18.78 -2.26 0.14 1.68 4851
0.04 0.00 1.56 -17.64 17.83 -2.19 0.33 1.77 4857
0.03 0.00 1.55 -18.49 17.00 -2.16 0.52 1.86 4864
0.03 0.01 1.19 -18.91 16.09 -2.19 0.72 1.94 4870
0.03 0.01 0.40 -19.43 14.84 -2.28 1.02 2.04 4877
0.03 0.01 -0.29 -19.66 13.49 -2.43 1.33 2.17 4883
0.04 0.01 -1.37 -20.53 11.91 -2.58 1.84 2.32 4889
0.02 0.01 -2.51 -22.37 10.11 -2.74 2.18 2.46 4895
0.04 0.00 -3.82 -24.94 8.52 -2.82 2.32 2.56 4902
0.03 -0.00 -5.70 -27.60 5.76 -2.78 2.29 2.60 4909
0.02 -0.00 -6.47 -29.50 3.19 -2.55 2.08 2.59 4915
0.04 0.00 -7.99 -30.46 0.44 -2.13 1.77 2.51 4921
0.03 -0.00 -8.07 -30.46 -0.84 -1.58 1.40 2.34 4927
0.02 0.00 -7.74 -35.68 -3.66 -0.91 0.93 2.03 4933
0.04 0.00 -6.96 -29.91 4.33 1.17 0.60 1.55 4940
0.03 -0.00 -9.70 -32.21 -3.88 1.88 -0.06 1.03 4946
0.03 -0.00 -9.16 -32.30 -3.87 2.50 -0.88 0.50 4953
0.04 -0.00 -8.73 -31.85 3.00 3.08 -1.95 0.10 4959
0.03 -0.00 -6.39 -18.20 2.06 3.35 -2.63 -0.19 4965
0.01 0.24 -2.74 0.45 6.51 3.54 -2.81 -0.34 4972
-0.01 0.55 3.30 -2.05 20.82 3.66 -2.40 -0.18 4978
-0.00 0.62 5.95 2.16 22.53 3.48 -1.39 0.19 4984
-0.02 0.72 5.64 -1.02 17.41 3.11 -0.53 0.52 4990
-0.01 0.74 1.51 -3.33 18.72 2.95 -0.19 0.69 4997
-0.02 0.78 -2.57 -4.55 17.36 2.91 -0.19 0.61 5004
-0.02 0.87 -3.75 -3.13 15.81 2.98 -0.38 0.43 5010
-0.03 0.91 -2.85 -3.41 18.14 3.04 -0.43 0.21 5016
-0.05 0.95 -2.57 -3.01 18.89 3.01 -0.22 0.07 5022
-0.02 1.00 -2.52 -3.80 16.83 2.90 0.22 -0.12 5029
-0.02 1.07 -0.75 -2.56 16.92 2.80 0.73 -0.31 5036
-0.02 1.07 1.55 -2.66 18.08 2.75 1.15 -0.47 5042
-0.02 1.12 6.90 -4.85 31.35 1.88 0.39 -0.44 5048
-0.02 1.14 3.46 -3.00 11.24 0.27 -0.32 -0.00 5054
-0.02 1.20 1.48 -2.17 10.92 0.10 -0.28 0.13 5061
-0.02 1.22 0.40 -1.71 10.23 0.12 -0.28 0.10 5067
-0.01 1.20 0.37 -0.00 11.46 0.02 -0.12 0.05 5073
0.01 1.21 0.17 -2.82 9.61 -0.02 -0.02 0.09 5080
0.02 1.22 1.10 -1.29 10.15 -0.00 -0.03 0.10 5086
0.00 1.25 1.15 -1.18 9.90 0.03 -0.07 0.10 5093
0.04 1.25 0.91 -1.14 9.85 0.06 -0.08 0.11 5099
0.05 1.25 0.92 -1.14 9.91 0.06 -0.08 0.10 5105
0.05 1.21 0.99 -1.10 9.85 0.06 -0.08 0.11 5111
0.08 1.20 0.98 -1.09 9.90 0.06 -0.08 0.13 5117
0.10 1.18 0.97 -1.07 9.89 0.05 -0.08 0.14 5124
0.09 1.16 0.92 -1.05 9.94 0.05 -0.08 0.13 5130
0.11 1.14 0.87 -1.14 9.87 0.04 -0.07 0.15 5137
0.12 1.11 0.84 -1.08 9.87 0.04 -0.06 0.15 5143
0.11 1.07 0.85 -1.08 9.91 0.04 -0.06 0.15 5149
0.14 1.00 0.86 -1.04 9.89 0.05 -0.05 0.16 5155
0.15 1.02 0.91 -1.02 9.88 0.05 -0.04 0.16 5161
0.17 0.97 0.88 -1.05 9.90 0.05 -0.04 0.17 5168
0.17 0.90 0.85 -1.11 9.90 0.05 -0.04 0.17 5175
0.19 0.87 0.81 -1.04 9.85 0.05 -0.03 0.18 5181
0.21 0.84 0.88 -1.03 9.86 0.04 -0.03 0.18 5187
0.20 0.76 0.92 -1.04 9.85 0.04 -0.03 0.19 5193
0.20 0.70 0.91 -1.07 9.86 0.04 -0.03 0.18 5199
0.21 0.67 0.91 -1.07 9.82 0.05 -0.04 0.17 5206
0.27 0.58 0.90 -1.04 9.87 0.05 -0.04 0.18 5212
0.29 0.52 0.90 -1.10 9.84 0.05 -0.04 0.17 5219
0.26 0.47 0.92 -1.06 9.87 0.06 -0.05 0.17 5225
0.29 0.40 0.89 -1.16 9.85 0.06 -0.05 0.16 5231
0.34 0.32 0.88 -1.09 9.81 0.06 -0.05 0.17 5237
0.33 0.32 0.90 -1.12 9.89 0.06 -0.05 0.15 5243
0.35 0.24 0.87 -1.11 9.87 0.07 -0.05 0.15 5250
0.37 0.17 0.89 -1.21 9.86 0.07 -0.05 0.14 5257
0.38 0.07 0.94 -1.15 9.90 0.07 -0.05 0.14 5263
0.43 0.05 0.91 -1.18 9.86 0.08 -0.04 0.13 5269
0.42 0.00 0.97 -1.23 9.88 0.09 -0.05 0.14 5275
0.42 -0.01 0.95 -1.24 9.88 0.09 -0.05 0.13 5281
0.43 0.01 0.95 -1.23 9.88 0.09 -0.05 0.13 5287
0.48 -0.01 0.96 -1.31 9.87 0.11 -0.05 0.11 5294
0.50 -0.02 1.00 -1.30 9.94 0.11 -0.05 0.11 5301
0.50 -0.03 0.97 -1.33 9.91 0.12 -0.06 0.09 5307
0.52 -0.02 1.02 -1.28 9.84 0.13 -0.07 0.08 5313
0.51 -0.01 1.02 -1.36 9.90 0.14 -0.08 0.07 5319
0.52 -0.01 1.03 -1.37 9.88 0.15 -0.09 0.06 5325
0.55 0.00 1.05 -1.42 9.90 0.16 -0.11 0.05 5331
0.55 -0.01 1.00 -1.44 9.88 0.17 -0.12 0.04 5339
0.56 -0.01 1.04 -1.46 9.86 0.18 -0.14 0.03 5345
0.60 -0.02 1.06 -1.46 9.80 0.17 -0.15 0.02 5351
0.61 -0.02 1.05 -1.51 9.81 0.16 -0.15 0.01 5357
0.63 -0.02 1.06 -1.53 9.91 0.16 -0.15 0.00 5363
0.61 -0.02 1.02 -1.53 9.88 0.16 -0.15 -0.01 5369
0.66 -0.02 1.02 -1.57 9.87 0.16 -0.14 -0.01 5377
0.67 -0.02 1.07 -1.65 9.86 0.16 -0.14 -0.02 5383
0.67 -0.02 1.09 -1.66 9.88 0.16 -0.14 -0.03 5389
0.73 -0.03 1.05 -1.57 9.95 0.17 -0.14 -0.04 5395
0.72 -0.03 0.99 -1.68 9.86 0.17 -0.14 -0.04 5401
0.76 -0.02 0.97 -1.68 9.98 0.19 -0.13 -0.05 5407
0.83 -0.01 0.92 -1.64 10.04 0.20 -0.14 -0.05 5414
0.84 -0.02 0.96 -1.66 10.00 0.21 -0.12 -0.05 5421
0.83 -0.03 0.90 -1.69 9.95 0.22 -0.12 -0.05 5427
0.87 -0.02 0.87 -1.68 10.02 0.23 -0.11 -0.04 5433
0.91 -0.02 0.93 -1.76 9.95 0.25 -0.10 -0.04 5439
0.89 -0.02 0.98 -1.81 10.00 0.30 -0.09 -0.04 5446
0.93 -0.03 0.96 -1.83 9.98 0.28 -0.09 -0.04 5452
0.96 -0.04 0.97 -1.80 10.06 0.31 -0.08 -0.04 5458
1.02 -0.05 0.93 -1.83 10.12 0.33 -0.07 -0.04 5465
1.06 -0.02 1.01 -1.91 10.37 0.37 -0.07 -0.05 5471
1.10 -0.04 0.98 -1.97 10.36 0.42 -0.07 -0.06 5478
1.09 -0.04 1.09 -1.98 10.47 0.48 -0.08 -0.10 5484
1.10 -0.04 1.05 -2.08 10.75 0.54 -0.09 -0.08 5490
1.10 -0.05 1.04 -1.98 10.89 0.63 -0.10 -0.10 5496
1.10 -0.04 1.06 -2.16 11.03 0.71 -0.12 -0.11 5502
1.18 -0.04 1.07 -2.18 11.18 0.80 -0.14 -0.12 5510
1.19 -0.05 1.00 -2.27 11.34 0.89 -0.16 -0.12 5516
1.26 -0.02 1.01 -2.29 11.35 0.98 -0.18 -0.13 5522
1.31 -0.04 0.89 -2.30 11.53 1.09 -0.18 -0.14 5528
1.32 -0.05 0.99 -2.40 11.76 1.19 -0.20 -0.14 5534
1.38 -0.04 0.91 -2.49 11.94 1.30 -0.23 -0.14 5541
1.40 -0.05 1.00 -2.57 12.10 1.37 -0.28 -0.14 5548
1.38 -0.05 0.94 -2.62 12.14 1.51 -0.28 -0.14 5554
1.41 -0.05 0.95 -2.87 12.64 1.70 -0.28 -0.15 5560
1.39 -0.05 1.03 -2.95 13.37 2.00 -0.30 -0.16 5567
1.38 -0.05 0.99 -2.97 13.22 2.25 -0.28 -0.18 5573
1.35 -0.05 0.97 -2.99 13.01 2.49 -0.27 -0.19 5579
1.25 -0.05 1.02 -3.24 13.29 2.73 -0.25 -0.22 5585
1.24 -0.05 1.00 -3.46 13.60 2.95 -0.22 -0.23 5593
1.16 -0.06 1.17 -3.66 13.92 3.20 -0.17 -0.25 5599
1.02 -0.03 2.17 -3.31 13.65 3.49 -0.21 -0.30 5605
0.96 -0.02 1.82 -3.97 13.90 3.78 -0.25 -0.38 5611
0.82 -0.02 1.88 -4.37 15.10 4.07 -0.26 -0.47 5617
0.65 -0.00 1.65 -5.08 15.96 4.25 -0.31 -0.53 5624
0.61 -0.01 1.19 -6.01 15.25 4.28 -0.38 -0.58 5630
0.46 0.01 2.37 -6.65 19.15 4.28 -0.45 -0.62 5637
0.43 0.00 2.50 -7.63 20.19 4.28 -0.53 -0.68 5643
0.37 -0.01 2.36 -9.65 23.08 4.28 -0.59 -0.70 5650
0.32 0.02 2.79 -11.39 25.04 4.28 -0.52 -0.68 5656
0.30 -0.00 2.90 -12.83 25.81 4.28 -0.33 -0.63 5662
0.24 0.01 2.67 -12.64 24.81 4.28 -0.20 -0.64 5668
0.21 -0.01 2.01 -11.71 24.90 4.28 -0.09 -0.64 5676
0.17 -0.01 1.70 -10.89 24.20 4.28 0.01 -0.59 5682
0.15 -0.01 1.52 -8.55 25.88 4.28 0.15 -0.51 5688
0.08 -0.01 1.45 -6.36 28.47 4.28 0.25 -0.48 5694
0.09 -0.01 1.89 -4.46 28.65 4.28 0.23 -0.51 5701
0.08 -0.01 2.77 -1.31 29.16 4.28 0.10 -0.54 5707
0.06 -0.01 3.76 2.98 29.30 4.28 -0.08 -0.60 5713
0.04 -0.00 4.24 7.87 28.16 4.28 -0.10 -0.65 5720
0.06 -0.00 4.17 10.60 24.40 4.28 0.26 -0.71 5726
0.05 -0.01 0.95 20.03 27.24 4.28 1.01 -0.86 5732
0.05 0.00 2.61 11.86 7.46 4.28 0.61 -1.39 5739
0.06 -0.01 6.00 10.03 -1.40 4.27 -0.34 -1.91 5745
0.06 -0.00 1.46 24.59 9.14 1.80 -0.61 -2.07 5751
0.04 0.00 5.86 19.84 26.65 0.15 0.24 -1.87 5757
0.06 -0.01 5.86 13.15 24.18 -0.93 0.81 -1.73 5765
0.05 -0.01 3.05 10.58 18.29 -1.87 0.86 -1.58 5771
0.06 0.01 1.38 12.16 13.61 -2.69 0.69 -1.36 5777
0.05 -0.00 1.47 12.64 11.34 -3.24 0.58 -1.15 5783
0.04 0.00 1.99 10.24 9.91 -3.56 0.49 -0.97 5789
0.04 0.01 2.16 7.43 9.19 -3.73 0.41 -0.84 5796
0.05 0.00 1.84 6.45 8.37 -3.82 0.37 -0.74 5803
0.04 0.01 1.75 5.97 7.70 -3.84 0.36 -0.63 5809
0.05 0.01 1.83 5.13 7.04 -3.85 0.34 -0.54 5815
0.05 -0.00 1.69 4.04 6.83 -3.87 0.30 -0.46 5821
0.05 -0.00 1.65 3.68 6.95 -3.91 0.23 -0.40 5827
0.04 0.01 1.72 3.38 7.70 -3.96 0.23 -0.34 5833
0.05 -0.00 1.73 2.50 8.34 -4.02 0.19 -0.30 5840
0.04 0.00 1.86 2.74 8.84 -4.08 0.15 -0.24 5847
0.04 -0.00 1.99 2.54 9.41 -4.14 0.14 -0.19 5853
0.05 0.01 2.15 2.27 9.96 -4.20 0.18 -0.14 5859
0.05 -0.00 2.26 1.82 10.58 -4.25 0.26 -0.10 5865
0.04 -0.00 2.28 1.21 11.25 -4.27 0.38 -0.06 5871
0.04 -0.00 2.51 0.54 12.02 -4.28 0.51 -0.04 5877
0.06 -0.00 1.87 -0.20 12.86 -4.28 0.71 -0.02 5884
0.04 -0.00 2.49 -0.86 13.54 -4.28 0.86 -0.02 5891
0.04 -0.00 2.23 -1.34 14.09 -4.28 1.05 -0.02 5897
0.05 -0.00 2.03 -2.03 14.49 -4.28 1.22 -0.04 5903
0.04 0.00 1.66 -2.78 14.83 -4.28 1.36 -0.06 5909
0.04 0.00 1.38 -3.62 15.27 -4.28 1.49 -0.09 5916
0.05 0.00 1.16 -4.56 15.72 -4.28 1.58 -0.12 5922
0.04 -0.00 0.73 -5.54 15.99 -4.28 1.65 -0.17 5928
0.05 -0.00 0.60 -6.32 16.08 -4.28 1.69 -0.22 5935
0.06 -0.00 0.63 -6.94 15.91 -4.28 1.70 -0.27 5941
0.04 -0.00 0.56 -7.21 16.05 -4.28 1.72 -0.32 5948
0.05 0.00 0.58 -7.53 16.11 -4.23 1.75 -0.33 5954
0.05 -0.00 0.39 -7.79 16.14 -4.11 1.80 -0.30 5960
0.05 -0.01 0.16 -8.07 16.63 -3.89 1.83 -0.24 5966
0.05 -0.00 -0.05 -8.32 17.53 -3.64 1.82 -0.15 5972
0.06 -0.00 -0.34 -8.59 18.26 -3.42 1.75 -0.06 5979
0.04 -0.00 -0.55 -8.82 19.61 -3.23 1.61 0.08 5986
0.04 0.01 -0.82 -9.13 19.74 -3.08 1.39 0.24 5992
0.06 0.00 -1.07 -9.53 20.50 -2.99 1.10 0.40 5998
0.04 -0.00 -1.00 -9.87 21.08 -2.95 0.75 0.57 6004
0.04 0.01 -0.60 -10.20 20.95 -2.94 0.43 0.75 6010
0.06 -0.01 -0.12 -10.78 20.74 -2.95 0.17 0.90 6018
0.05 -0.00 0.55 -11.64 20.54 -2.94 -0.00 1.02 6024
0.05 0.00 1.12 -12.78 20.12 -2.90 -0.07 1.12 6030
0.05 -0.00 1.51 -13.62 19.51 -2.83 -0.02 1.21 6036
0.04 -0.00 1.79 -14.53 18.65 -2.72 0.16 1.28 6043
0.05 -0.01 1.86 -15.41 17.69 -2.57 0.44 1.37 6049
0.05 -0.01 1.86 -16.28 16.55 -2.42 0.76 1.46 6055
0.04 -0.00 1.31 -17.10 15.64 -2.28 1.10 1.55 6062
0.06 -0.01 1.51 -18.11 15.03 -2.17 1.35 1.64 6068
0.05 -0.00 0.69 -19.05 14.69 -2.09 1.65 1.73 6075
0.05 -0.00 -0.08 -19.71 14.02 -2.07 1.92 1.82 6081
0.05 -0.01 -1.21 -20.47 13.05 -2.12 2.13 1.93 6087
0.05 -0.01 -2.51 -21.30 11.39 -2.20 2.31 1.97 6093
0.05 -0.00 -3.43 -22.61 9.04 -2.27 2.41 2.03 6099
0.06 -0.01 -5.46 -24.38 6.80 -2.27 2.36 2.03 6107
0.05 -0.00 -7.12 -26.81 5.01 -2.17 2.12 1.98 6113
0.06 -0.00 -7.76 -28.61 3.11 -1.94 1.77 1.87 6119
0.06 -0.01 -9.07 -29.66 1.32 -1.59 1.35 1.69 6125
0.04 -0.00 -9.57 -29.71 0.06 -1.16 0.88 1.42 6131
0.05 -0.01 -9.25 -28.88 -0.49 -0.70 0.35 1.06 6138
0.05 -0.01 -8.25 -27.08 0.25 -0.29 -0.15 0.66 6145
0.05 -0.00 -6.98 -25.46 1.50 0.14 -0.56 0.25 6151
0.05 -0.00 -12.12 -36.79 47.42 2.16 -1.47 -0.14 6157
0.05 -0.00 -9.58 -25.05 -4.40 2.50 -1.39 -0.37 6163
0.04 -0.00 -6.66 -24.29 0.95 3.05 -1.96 -0.53 6170
0.05 0.02 -0.34 -7.93 6.38 3.24 -2.80 -0.69 6176
0.03 0.22 -0.00 2.20 12.13 3.09 -2.77 -0.58 6182
-0.01 0.61 6.48 4.93 18.81 3.16 -1.98 -0.32 6189
0.00 0.71 8.66 2.62 16.34 3.00 -0.96 0.15 6195
-0.01 0.79 4.88 -2.55 15.72 3.00 -0.31 0.53 6202
-0.00 0.81 -1.01 -4.64 18.48 3.09 -0.20 0.62 6208
-0.01 0.88 -3.16 -4.31 16.17 3.16 -0.55 0.50 6214
-0.02 0.90 -1.25 -3.90 17.30 3.30 -0.70 0.37 6220
-0.02 1.00 -2.60 -3.89 19.63 3.39 -0.34 0.29 6226
-0.02 1.10 -4.53 -3.27 22.65 3.36 0.04 0.04 6234
-0.02 1.13 -1.65 -2.79 19.05 3.12 0.48 -0.27 6240
-0.01 1.16 1.54 -3.79 21.45 3.07 1.00 -0.45 6246
-0.00 1.19 3.67 -3.91 25.58 1.13 -0.36 -0.30 6252
-0.00 1.21 2.85 -3.63 11.98 0.15 -0.37 0.05 6259
-0.00 1.23 0.86 -2.16 10.58 0.08 -0.31 0.13 6265
-0.00 1.27 0.56 -1.88 10.27 0.08 -0.24 0.09 6272
0.00 1.27 1.11 -1.11 10.29 0.01 -0.11 0.09 6278
0.01 1.30 1.09 -1.03 10.70 -0.03 -0.03 0.09 6284
0.01 1.29 1.03 -1.49 9.98 -0.01 -0.03 0.10 6291
0.03 1.32 1.05 -1.32 10.09 0.01 -0.05 0.11 6297
0.05 1.31 0.91 -1.32 9.96 0.01 -0.06 0.11 6303
0.07 1.32 0.93 -1.20 9.92 0.02 -0.06 0.10 6309
0.06 1.31 0.94 -1.26 10.00 0.02 -0.06 0.11 6316
0.08 1.32 0.93 -1.16 9.91 0.02 -0.05 0.11 6322
0.06 1.32 0.93 -1.15 9.86 0.02 -0.05 0.12 6329
0.06 1.29 0.95 -1.12 9.81 0.03 -0.06 0.13 6335
0.10 1.27 0.90 -1.09 9.84 0.03 -0.08 0.12 6341
0.08 1.23 0.91 -1.10 9.82 0.03 -0.09 0.13 6347
0.10 1.19 0.86 -1.09 9.88 0.04 -0.08 0.15 6353
0.13 1.17 0.86 -1.10 9.87 0.04 -0.09 0.14 6360
0.15 1.11 0.81 -1.11 9.86 0.04 -0.08 0.15 6367
0.15 1.08 0.83 -1.09 9.84 0.04 -0.08 0.15 6373
0.18 1.04 0.77 -1.10 9.84 0.04 -0.08 0.17 6379
0.18 0.98 0.73 -1.07 9.86 0.04 -0.07 0.16 6385
0.18 0.93 0.79 -1.06 9.83 0.04 -0.06 0.17 6391
0.18 0.92 0.80 -1.08 9.87 0.04 -0.05 0.16 6397
0.22 0.89 0.80 -1.09 9.88 0.04 -0.04 0.15 6404
0.23 0.80 0.77 -1.10 9.84 0.04 -0.04 0.17 6411
0.23 0.74 0.82 -1.08 9.86 0.04 -0.03 0.17 6417
0.27 0.70 0.83 -1.13 9.88 0.04 -0.03 0.16 6423
0.29 0.63 0.86 -1.12 9.86 0.04 -0.04 0.16 6429
0.28 0.55 0.86 -1.11 9.84 0.04 -0.05 0.15 6435
0.29 0.53 0.86 -1.14 9.82 0.05 -0.06 0.15 6441
0.32 0.46 0.88 -1.14 9.85 0.05 -0.07 0.14 6449
0.34 0.42 0.83 -1.21 9.84 0.05 -0.08 0.13 6455
0.36 0.40 0.88 -1.17 9.86 0.05 -0.08 0.13 6461
0.37 0.32 0.85 -1.15 9.91 0.05 -0.09 0.11 6467
0.39 0.31 0.87 -1.17 9.88 0.05 -0.10 0.12 6473
0.39 0.28 0.80 -1.20 9.86 0.05 -0.10 0.12 6479
0.44 0.17 0.81 -1.19 9.96 0.05 -0.09 0.11 6487
0.43 0.13 0.82 -1.24 9.88 0.06 -0.09 0.12 6493
0.44 0.09 0.85 -1.24 9.87 0.05 -0.09 0.11 6499
0.43 0.07 0.88 -1.26 9.89 0.06 -0.09 0.11 6505
0.44 0.02 0.83 -1.30 9.86 0.06 -0.10 0.10 6511
0.45 0.01 0.85 -1.31 9.85 0.06 -0.10 0.09 6517
0.48 -0.00 0.86 -1.30 9.84 0.07 -0.10 0.09 6523
0.51 -0.00 0.89 -1.29 9.83 0.06 -0.11 0.07 6531
0.55 -0.02 0.86 -1.30 9.88 0.06 -0.11 0.07 6537
0.59 -0.02 0.86 -1.32 9.82 0.06 -0.11 0.07 6543
0.61 -0.01 0.85 -1.37 9.86 0.06 -0.11 0.06 6549
0.65 -0.02 0.84 -1.37 9.85 0.06 -0.11 0.06 6555
0.67 -0.01 0.89 -1.37 9.85 0.06 -0.10 0.05 6561
0.69 -0.02 0.81 -1.34 9.84 0.06 -0.10 0.05 6567
0.73 -0.02 0.86 -1.39 9.83 0.05 -0.09 0.05 6575
0.73 -0.03 0.82 -1.34 9.87 0.05 -0.09 0.05 6581
0.73 -0.02 0.83 -1.41 9.91 0.06 -0.08 0.04 6587
0.78 -0.02 0.82 -1.35 9.91 0.06 -0.08 0.04 6593
0.80 -0.03 0.79 -1.39 9.91 0.06 -0.08 0.04 6599
0.80 -0.03 0.81 -1.44 9.91 0.06 -0.07 0.04 6605
0.80 -0.01 0.83 -1.45 9.87 0.06 -0.07 0.04 6612
0.83 -0.03 0.81 -1.43 9.90 0.07 -0.06 0.04 6619
0.84 -0.04 0.81 -1.43 9.88 0.10 -0.05 0.04 6625
0.85 -0.02 0.81 -1.50 9.92 0.07 -0.05 0.03 6631
0.87 -0.02 0.82 -1.47 9.92 0.08 -0.05 0.03 6637
0.89 -0.04 0.79 -1.45 9.90 0.08 -0.04 0.04 6643
0.90 -0.03 0.84 -1.51 9.91 0.08 -0.04 0.03 6649
0.96 -0.03 0.83 -1.48 9.89 0.10 -0.04 0.03 6657
0.97 -0.04 0.87 -1.54 10.02 0.11 -0.04 0.02 6663
1.00 -0.04 0.91 -1.54 10.01 0.14 -0.05 0.02 6669
1.00 -0.03 0.93 -1.59 10.10 0.17 -0.06 0.01 6675
1.03 -0.04 0.91 -1.65 10.15 0.22 -0.07 -0.00 6681
1.02 -0.03 0.90 -1.72 10.20 0.27 -0.09 -0.01 6688
1.04 -0.04 0.92 -1.71 10.49 0.36 -0.12 -0.02 6694
1.07 -0.03 1.03 -1.74 10.51 0.46 -0.15 -0.03 6701
1.11 -0.05 0.98 -1.69 10.71 0.57 -0.17 -0.04 6707
1.14 -0.04 0.96 -1.78 11.08 0.68 -0.17 -0.05 6713
1.16 -0.05 1.01 -1.90 11.28 0.81 -0.17 -0.06 6720
1.18 -0.04 0.98 -1.97 11.63 0.92 -0.15 -0.07 6726
1.24 -0.05 0.95 -2.03 11.46 1.02 -0.15 -0.09 6732
1.27 -0.03 0.98 -2.00 11.62 1.12 -0.14 -0.10 6738
1.31 -0.03 0.78 -2.12 11.94 1.22 -0.11 -0.10 6746
1.34 -0.04 0.88 -2.21 12.03 1.35 -0.09 -0.11 6752
1.35 -0.04 0.92 -2.24 12.21 1.48 -0.09 -0.12 6758
1.39 -0.06 0.94 -2.30 12.77 1.61 -0.11 -0.12 6764
1.41 -0.05 0.97 -2.51 12.31 1.69 -0.19 -0.13 6770
1.38 -0.04 0.98 -2.62 12.55 1.82 -0.23 -0.14 6777
1.37 -0.05 0.93 -2.78 12.89 2.03 -0.24 -0.15 6784
1.35 -0.05 0.82 -2.82 13.38 2.30 -0.24 -0.17 6790
1.38 -0.05 1.03 -3.04 14.19 2.61 -0.23 -0.18 6796
1.35 -0.06 1.03 -3.13 13.91 2.93 -0.20 -0.20 6803
1.27 -0.04 0.28 0.68 14.39 3.24 -0.20 -0.24 6809
1.16 -0.02 1.61 -3.32 14.06 3.49 -0.17 -0.28 6815
1.05 -0.03 1.65 -3.54 13.37 3.76 -0.20 -0.35 6821
0.98 -0.00 1.59 -3.93 14.64 4.07 -0.22 -0.43 6829
0.84 -0.00 1.77 -3.90 15.19 4.25 -0.30 -0.50 6835
0.77 -0.01 2.50 -4.59 15.57 4.28 -0.43 -0.59 6841
0.65 0.00 3.05 -5.89 17.27 4.28 -0.48 -0.67 6847
0.57 0.00 2.50 -7.02 18.22 4.28 -0.60 -0.79 6853
0.49 0.00 3.10 -7.71 20.41 4.28 -0.68 -0.86 6860
0.44 -0.01 3.07 -10.34 23.29 4.28 -0.67 -0.87 6866
0.34 -0.01 2.54 -12.72 26.79 4.28 -0.52 -0.82 6873
0.32 -0.01 2.45 -14.33 28.21 4.28 -0.25 -0.75 6880
0.25 -0.01 1.61 -13.65 26.80 4.28 -0.17 -0.75 6886
0.22 0.01 1.04 -11.69 26.02 4.28 -0.20 -0.75 6892
0.17 -0.00 0.96 -9.65 24.48 4.28 -0.17 -0.68 6898
0.13 -0.00 1.39 -8.04 25.91 4.28 -0.09 -0.61 6905
0.11 0.00 2.19 -5.70 28.61 4.28 -0.10 -0.62 6912
0.08 -0.01 3.72 -3.95 29.43 4.28 -0.18 -0.65 6918
0.08 -0.00 4.32 -0.32 29.63 4.28 -0.30 -0.67 6924
0.08 0.00 6.00 5.27 29.53 4.28 -0.40 -0.70 6930
0.05 -0.01 5.72 8.89 26.74 4.28 -0.23 -0.74 6936
0.05 0.00 6.68 6.90 25.85 4.28 0.31 -0.82 6943
0.06 -0.00 2.48 3.82 -0.19 4.28 1.26 -1.08 6949
0.04 -0.00 5.34 12.13 -0.71 4.28 0.70 -1.71 6956
0.04 -0.00 6.55 11.90 -1.90 3.98 -0.35 -2.30 6962
0.06 -0.00 4.12 25.87 12.66 1.35 -0.14 -2.43 6968
0.05 -0.01 8.74 19.31 27.49 -0.14 0.83 -2.18 6975
0.04 0.00 5.87 12.38 23.61 -1.32 1.19 -1.93 6981
0.06 -0.01 3.19 10.65 17.62 -2.41 1.04 -1.69 6987
0.04 -0.00 1.66 12.54 13.84 -3.20 0.65 -1.40 6993
0.05 -0.00 1.76 11.54 11.57 -3.78 0.32 -1.16 7001
0.04 -0.00 2.30 8.68 10.51 -4.06 0.02 -1.01 7007
0.04 -0.00 2.64 5.93 9.55 -4.15 -0.17 -0.90 7013
0.04 0.01 2.74 5.12 8.60 -4.17 -0.27 -0.79 7019
0.04 -0.00 3.13 4.78 7.80 -4.16 -0.22 -0.69 7025
0.05 -0.00 3.50 3.93 7.36 -4.13 -0.13 -0.60 7031
0.04 -0.00 3.59 3.23 7.14 -4.12 -0.00 -0.53 7037
0.05 -0.01 3.72 2.76 7.54 -4.12 0.15 -0.48 7044
0.05 -0.00 3.70 2.43 8.16 -4.13 0.30 -0.44 7051
0.05 -0.00 4.21 2.07 8.95 -4.15 0.42 -0.41 7057
0.03 -0.00 3.39 1.94 9.50 -4.19 0.55 -0.38 7063
0.05 0.00 3.23 1.93 10.92 -4.23 0.66 -0.33 7069
0.04 0.00 2.95 1.78 11.06 -4.27 0.77 -0.26 7075
0.03 0.00 2.76 1.48 11.70 -4.28 0.86 -0.18 7081
0.04 0.01 2.53 1.06 12.21 -4.28 0.94 -0.08 7089
0.04 -0.00 2.37 0.10 12.71 -4.28 1.01 0.02 7095
0.04 0.01 2.33 -0.60 13.11 -4.28 1.07 0.11 7101
0.06 -0.00 2.19 -1.10 12.99 -4.28 1.13 0.19 7107
0.04 -0.00 2.23 -1.78 13.40 -4.28 1.21 0.24 7113
0.04 -0.00 2.36 -2.30 13.61 -4.28 1.36 0.26 7119
0.05 -0.01 3.04 -2.97 13.96 -4.28 1.53 0.25 7127
0.04 -0.00 2.46 -3.59 14.79 -4.28 1.69 0.21 7133
0.03 -0.00 2.26 -4.44 15.53 -4.28 1.91 0.17 7139
0.04 0.00 1.94 -5.22 15.98 -4.28 2.13 0.10 7145
0.04 -0.00 1.45 -5.84 16.50 -4.28 2.33 0.02 7151
0.03 -0.00 0.84 -6.17 17.62 -4.26 2.46 -0.03 7157
0.04 -0.00 0.23 -6.33 18.33 -4.23 2.53 -0.06 7164
0.04 -0.00 -0.46 -6.59 18.99 -4.20 2.52 -0.04 7171
0.03 -0.00 -1.13 -7.08 19.33 -4.17 2.41 0.01 7177
0.04 0.00 -1.57 -7.60 19.54 -4.11 2.25 0.10 7183
0.04 -0.00 -1.63 -8.17 19.78 -4.02 2.01 0.23 7189
0.04 -0.00 -1.73 -8.63 19.74 -3.88 1.83 0.37 7196
0.04 0.00 -1.59 -9.37 19.75 -3.73 1.57 0.53 7202
0.04 -0.00 -1.41 -10.03 19.63 -3.54 1.27 0.69 7208
0.03 -0.00 -1.23 -11.00 19.49 -3.34 0.92 0.83 7215
0.04 -0.00 -0.89 -11.84 19.46 -3.13 0.55 0.92 7221
0.04 -0.00 -0.47 -12.48 19.35 -2.91 0.23 1.05 7228
0.04 -0.00 0.11 -12.80 19.25 -2.70 0.01 1.16 7234
0.06 -0.01 0.82 -13.02 19.13 -2.51 -0.03 1.29 7240
0.05 -0.00 1.56 -13.47 18.91 -2.36 0.12 1.42 7246
0.05 -0.00 2.12 -14.07 18.72 -2.24 0.41 1.53 7252
0.05 -0.01 2.36 -14.77 18.92 -2.16 0.79 1.64 7260
0.04 -0.00 1.93 -15.46 19.68 -2.14 1.17 1.73 7266
0.05 0.00 0.99 -16.34 19.96 -2.21 1.50 1.81 7272
0.05 -0.00 0.25 -16.77 19.12 -2.38 1.70 1.87 7278
0.03 -0.00 -0.27 -17.11 17.44 -2.59 1.82 1.94 7285
0.06 -0.01 -0.82 -17.88 15.80 -2.76 1.95 2.02 7291
0.05 -0.01 -1.87 -19.15 14.32 -2.93 2.09 2.12 7298
0.04 -0.00 -3.37 -20.56 12.68 -3.05 2.15 2.22 7304
0.05 -0.01 -4.43 -22.15 10.61 -3.09 2.06 2.29 7310
0.04 -0.00 -5.55 -24.17 8.73 -3.06 1.83 2.29 7317
0.04 -0.00 -6.49 -26.95 5.29 -2.93 1.55 2.25 7323
0.05 -0.01 -6.70 -28.27 4.02 -2.69 1.22 2.15 7329
0.04 -0.00 -6.98 -29.54 1.10 -2.31 0.95 2.04 7335
0.04 -0.00 -6.51 -29.86 -0.28 -1.82 0.74 1.81 7342
0.05 -0.01 -5.80 -29.34 -1.30 -1.22 0.57 1.49 7348
0.04 -0.00 -5.52 -27.55 -1.08 -0.59 0.39 1.10 7355
0.04 -0.00 -5.22 -25.23 0.70 -0.01 0.17 0.66 7361
0.05 -0.00 -4.94 -22.41 3.09 0.47 -0.07 0.22 7367
0.05 -0.00 -13.27 -40.90 46.29 1.34 -1.19 -0.07 7373
0.04 -0.00 -10.07 -23.11 -6.41 2.68 -1.20 -0.25 7379
0.06 -0.01 -7.91 -24.26 -3.23 3.06 -2.34 -0.47 7387
0.04 0.03 -1.27 -5.42 0.54 3.06 -3.65 -0.68 7393
0.00 0.54 -1.03 3.46 8.44 3.30 -3.35 -0.55 7399
0.00 0.71 6.12 0.48 19.00 3.73 -2.14 -0.14 7405
-0.01 0.77 6.16 2.22 15.51 3.63 -1.19 0.26 7411
-0.01 0.88 2.30 -4.03 20.92 3.54 -0.63 0.44 7418
-0.01 0.93 -1.89 -4.85 21.12 3.33 -0.39 0.48 7425
-0.02 0.95 -3.29 -4.70 18.03 3.30 -0.44 0.37 7431
-0.02 1.06 -2.46 -4.19 18.02 3.46 -0.36 0.21 7437
-0.03 1.12 -3.81 -3.67 20.71 3.58 -0.09 0.00 7443
-0.04 1.14 -3.16 -3.54 21.30 3.49 0.26 -0.30 7450
-0.01 1.21 0.17 -2.69 19.32 3.24 0.66 -0.52 7456
-0.03 1.28 3.13 -2.99 19.08 3.05 1.00 -0.57 7462
-0.02 1.29 4.31 -3.20 21.47 2.84 0.97 -0.53 7469
-0.02 1.33 5.26 -3.19 17.28 0.89 -0.65 -0.19 7476
-0.02 1.31 2.00 -2.88 12.95 0.34 -0.72 0.12 7482
-0.02 1.33 -0.22 -1.39 10.80 0.22 -0.56 0.14 7488
-0.03 1.30 0.05 -1.99 10.60 0.13 -0.31 0.07 7494
-0.03 1.30 1.23 -1.96 10.37 0.00 -0.10 0.10 7501
-0.00 1.32 1.18 -1.53 9.75 0.00 -0.07 0.12 7507
0.00 1.33 1.03 -1.35 9.83 0.02 -0.09 0.10 7514
-0.00 1.31 0.89 -1.20 10.05 0.04 -0.09 0.12 7520
-0.01 1.32 0.89 -0.68 10.04 0.05 -0.10 0.11 7526
0.02 1.30 0.95 -1.09 9.73 0.05 -0.09 0.11 7532
0.04 1.26 0.94 -1.04 9.92 0.06 -0.09 0.11 7538
0.04 1.25 0.95 -1.01 9.89 0.06 -0.10 0.11 7545
0.07 1.22 0.93 -1.04 9.83 0.06 -0.10 0.12 7552
0.08 1.19 0.91 -0.96 9.84 0.06 -0.10 0.12 7558
0.09 1.17 0.91 -0.97 9.90 0.05 -0.09 0.14 7564
0.13 1.15 0.79 -0.99 9.90 0.05 -0.08 0.14 7570
0.15 1.11 0.88 -0.99 9.89 0.05 -0.07 0.15 7576
0.11 1.08 0.88 -1.01 9.97 0.05 -0.06 0.15 7583
0.16 1.00 0.88 -0.99 9.84 0.05 -0.06 0.15 7589
0.19 0.95 0.85 -0.99 9.89 0.05 -0.06 0.16 7596
0.19 0.89 0.83 -0.97 9.91 0.05 -0.05 0.16 7602
0.23 0.84 0.81 -0.98 9.89 0.05 -0.04 0.16 7608
0.23 0.78 0.82 -0.99 9.90 0.04 -0.02 0.17 7614
0.23 0.74 0.85 -0.99 9.87 0.05 -0.01 0.17 7620
0.22 0.68 0.85 -0.94 9.87 0.05 -0.01 0.18 7627
0.24 0.65 0.88 -1.01 9.86 0.05 -0.01 0.17 7633
0.26 0.59 0.90 -1.04 9.87 0.06 -0.02 0.17 7640
0.30 0.52 0.91 -0.95 9.86 0.06 -0.03 0.17 7646
0.32 0.48 0.89 -1.03 9.84 0.06 -0.04 0.17 7652
0.32 0.39 0.90 -1.03 9.87 0.06 -0.04 0.16 7658
0.33 0.34 0.92 -1.07 9.87 0.07 -0.05 0.15 7665
0.35 0.28 0.90 -1.06 9.84 0.07 -0.06 0.14 7671
0.38 0.20 0.90 -1.10 9.87 0.07 -0.07 0.14 7677
0.38 0.13 0.89 -1.13 9.85 0.07 -0.08 0.14 7684
0.37 0.07 0.90 -1.10 9.91 0.08 -0.08 0.13 7690
0.38 0.04 0.93 -1.11 9.92 0.08 -0.08 0.13 7696
0.42 -0.00 0.87 -1.08 9.89 0.08 -0.09 0.12 7702
0.41 0.00 0.86 -1.19 9.87 0.09 -0.10 0.11 7709
0.41 0.01 0.91 -1.13 9.93 0.09 -0.10 0.11 7715
0.43 -0.01 0.98 -1.19 9.84 0.10 -0.11 0.10 7721
0.45 -0.02 0.93 -1.22 9.87 0.11 -0.12 0.09 7728
0.45 -0.00 0.98 -1.23 9.92 0.11 -0.12 0.07 7734
0.51 -0.01 0.97 -1.31 9.89 0.12 -0.13 0.06 7740
0.54 -0.02 0.97 -1.29 9.93 0.12 -0.13 0.04 7747
0.54 -0.01 0.92 -1.33 9.86 0.13 -0.14 0.03 7753
0.57 -0.02 0.95 -1.35 9.91 0.14 -0.14 0.02 7759
0.59 -0.02 0.94 -1.37 9.88 0.14 -0.14 0.01 7766
0.60 -0.02 0.92 -1.39 9.91 0.14 -0.14 0.00 7772
0.65 -0.02 0.88 -1.37 9.86 0.15 -0.14 -0.00 7778
0.69 -0.03 0.89 -1.39 9.87 0.14 -0.13 -0.00 7784
0.67 -0.03 0.92 -1.46 9.83 0.10 -0.12 -0.00 7791
0.65 -0.02 0.89 -1.41 9.93 0.13 -0.11 0.00 7797
0.68 -0.03 0.89 -1.46 9.93 0.14 -0.11 -0.00 7803
0.70 -0.04 0.92 -1.45 9.89 0.14 -0.11 -0.01 7810
0.71 -0.02 0.93 -1.47 9.90 0.14 -0.11 -0.00 7816
0.72 -0.01 0.87 -1.52 9.92 0.14 -0.10 0.00 7822
0.71 -0.02 0.90 -1.51 9.92 0.14 -0.10 0.00 7829
0.73 -0.02 0.95 -1.53 9.82 0.15 -0.09 0.00 7835
0.74 -0.01 0.89 -1.53 9.88 0.16 -0.10 -0.00 7841
0.78 -0.01 0.94 -1.56 10.01 0.17 -0.10 -0.00 7847
0.78 -0.02 0.96 -1.58 10.00 0.18 -0.11 -0.01 7854
0.80 -0.02 0.94 -1.63 10.09 0.21 -0.12 -0.02 7860
0.84 -0.04 0.91 -1.64 10.07 0.23 -0.12 -0.02 7867
0.88 -0.02 0.98 -1.62 10.02 0.25 -0.13 -0.03 7873
0.91 -0.02 0.95 -1.76 10.13 0.28 -0.13 -0.03 7879
0.97 -0.04 0.96 -1.71 9.71 0.32 -0.14 -0.04 7885
0.98 -0.03 1.00 -1.80 10.30 0.37 -0.15 -0.05 7891
1.05 -0.03 1.03 -1.88 10.54 0.44 -0.17 -0.06 7899
1.10 -0.05 1.06 -1.87 10.53 0.51 -0.19 -0.09 7905
1.12 -0.04 1.03 -1.86 10.66 0.58 -0.20 -0.11 7911
1.20 -0.05 0.98 -1.96 10.89 0.66 -0.21 -0.12 7917
1.26 -0.05 1.00 -1.96 11.05 0.74 -0.22 -0.13 7924
1.27 -0.03 1.04 -2.03 11.15 0.83 -0.23 -0.15 7930
1.31 -0.04 0.86 -2.12 11.22 0.90 -0.24 -0.16 7937
1.35 -0.04 0.74 -2.17 11.41 1.02 -0.22 -0.15 7943
1.41 -0.03 0.81 -2.26 11.41 1.12 -0.22 -0.15 7950
1.46 -0.05 0.84 -2.10 11.65 1.22 -0.23 -0.16 7956
1.53 -0.05 0.71 -2.54 11.67 1.34 -0.26 -0.15 7962
1.52 -0.06 0.87 -2.39 11.98 1.44 -0.29 -0.15 7968
1.53 -0.04 0.91 -2.51 11.73 1.51 -0.34 -0.16 7974
1.57 -0.03 0.71 -2.65 12.36 1.66 -0.34 -0.16 7982
1.56 -0.04 0.78 -2.77 12.75 1.87 -0.32 -0.17 7988
1.57 -0.03 0.62 -2.80 13.89 2.14 -0.29 -0.18 7994
1.53 -0.02 0.75 -3.06 14.14 2.50 -0.26 -0.19 8000
1.51 -0.03 0.81 -3.15 14.04 2.76 -0.24 -0.21 8007
1.44 -0.02 0.91 -3.00 13.87 3.04 -0.20 -0.23 8013
1.38 -0.03 0.82 -3.53 14.51 3.33 -0.17 -0.25 8019
1.24 -0.03 1.14 -3.59 14.86 3.64 -0.15 -0.29 8026
1.07 -0.03 1.52 -3.82 14.33 3.99 -0.20 -0.36 8033
0.96 -0.03 2.04 -4.03 14.92 4.22 -0.23 -0.47 8039
0.80 -0.01 2.09 -4.73 16.73 4.28 -0.25 -0.56 8045
0.70 -0.03 1.42 -5.79 18.84 4.28 -0.28 -0.62 8051
0.51 -0.02 2.80 -6.29 20.03 4.28 -0.36 -0.67 8058
0.46 -0.01 2.29 -7.54 21.29 4.28 -0.46 -0.70 8065
0.38 -0.01 2.11 -10.06 25.15 4.28 -0.46 -0.64 8071
0.34 -0.01 1.78 -13.13 27.73 4.28 -0.32 -0.58 8077
0.28 -0.02 1.72 -14.18 29.07 4.28 -0.12 -0.50 8084
0.21 -0.02 1.41 -13.63 26.95 4.28 -0.01 -0.51 8090
0.21 -0.02 0.21 -12.09 25.96 4.28 -0.07 -0.50 8096
0.14 -0.01 -0.18 -9.83 28.01 4.28 -0.09 -0.41 8102
0.13 -0.01 0.40 -8.26 29.73 4.28 -0.20 -0.39 8109
0.11 -0.01 1.69 -5.36 30.41 4.28 -0.43 -0.45 8116
0.07 -0.01 3.56 -1.93 30.31 4.28 -0.77 -0.53 8122
0.07 -0.01 5.61 2.40 29.86 4.28 -1.03 -0.58 8128
0.06 -0.01 6.23 8.32 28.50 4.28 -0.99 -0.58 8134
0.05 -0.01 5.61 12.81 24.93 4.28 -0.56 -0.59 8140
0.04 0.00 6.22 13.22 20.08 4.28 0.30 -0.66 8147
0.04 -0.00 0.49 19.29 -23.20 4.28 0.62 -1.10 8154
0.04 -0.00 6.02 10.51 -2.35 4.28 -0.18 -1.68 8160
0.04 0.00 3.70 21.98 1.60 3.17 -0.81 -2.01 8166
0.05 -0.01 5.49 23.83 21.27 1.02 -0.11 -1.97 8172
0.05 -0.00 8.54 17.01 25.94 -0.31 0.74 -1.78 8179
0.04 0.01 4.55 11.91 20.24 -1.42 0.95 -1.69 8185
0.05 -0.00 2.32 12.33 14.63 -2.40 0.78 -1.51 8192
0.03 0.00 1.90 13.59 11.06 -3.12 0.49 -1.24 8198
0.04 0.01 2.18 11.89 9.33 -3.54 0.23 -1.03 8204
0.03 -0.00 2.70 8.87 9.00 -3.78 -0.02 -0.90 8211
0.02 -0.00 2.84 6.68 8.09 -3.93 -0.17 -0.79 8217
0.03 0.00 3.22 5.98 7.51 -4.01 -0.21 -0.68 8223
0.04 -0.00 3.70 5.34 7.17 -4.02 -0.18 -0.58 8229
0.02 -0.00 4.04 4.41 7.32 -4.03 -0.13 -0.51 8236
0.01 0.00 4.14 3.66 7.45 -4.07 -0.01 -0.45 8242
0.03 0.01 4.25 3.26 7.85 -4.13 0.13 -0.37 8248
0.02 -0.00 4.33 3.15 8.21 -4.19 0.29 -0.35 8254
0.03 -0.00 4.19 2.79 8.85 -4.24 0.43 -0.28 8261
0.03 0.00 3.94 2.16 9.64 -4.27 0.56 -0.22 8267
0.05 -0.01 3.74 1.65 10.19 -4.28 0.70 -0.14 8273
0.03 0.00 3.61 1.09 10.33 -4.28 0.83 -0.07 8280
0.03 0.00 3.29 0.14 10.49 -4.28 0.96 0.00 8286
0.05 0.00 3.13 -0.65 10.83 -4.28 1.04 0.07 8292
0.03 -0.00 2.96 -1.65 11.46 -4.28 1.11 0.13 8299
0.03 0.00 2.83 -2.26 12.13 -4.28 1.16 0.18 8305
0.05 -0.00 2.65 -2.88 13.03 -4.28 1.22 0.22 8311
0.04 -0.00 2.66 -3.41 13.61 -4.28 1.27 0.25 8317
0.04 -0.00 2.44 -3.83 14.59 -4.28 1.34 0.28 8324
0.04 -0.00 2.23 -4.13 15.42 -4.28 1.41 0.30 8331
0.04 -0.00 2.10 -4.48 16.43 -4.28 1.50 0.31 8337
0.03 -0.00 2.12 -5.12 17.00 -4.28 1.59 0.31 8343
0.03 -0.00 1.86 -5.90 17.82 -4.28 1.67 0.29 8349
0.03 -0.00 1.63 -6.79 18.16 -4.28 1.75 0.28 8355
0.02 -0.00 1.49 -7.38 18.32 -4.28 1.81 0.27 8361
0.03 -0.00 1.19 -7.83 18.13 -4.28 1.93 0.31 8369
0.03 -0.00 0.97 -8.03 18.23 -4.28 2.03 0.39 8375
0.03 -0.00 0.67 -8.31 17.88 -4.27 2.11 0.45 8381
0.03 -0.00 0.37 -8.50 17.80 -4.20 2.12 0.56 8387
0.04 -0.00 -0.07 -8.81 18.04 -4.05 2.06 0.70 8393
0.03 -0.00 -0.16 -9.06 18.20 -3.81 1.93 0.85 8399
0.03 -0.00 -0.41 -9.27 18.75 -3.54 1.72 0.99 8406
0.05 -0.00 -0.56 -9.58 19.27 -3.38 1.45 1.12 8413
0.03 -0.00 -1.21 -9.95 19.35 -3.19 1.12 1.23 8419
0.02 -0.00 -0.54 -10.55 19.43 -3.01 0.85 1.31 8425
0.03 -0.00 -0.46 -11.16 19.15 -2.82 0.49 1.37 8431
0.03 -0.00 -0.23 -11.83 18.94 -2.63 0.17 1.39 8437
0.03 -0.00 0.11 -12.54 18.56 -2.42 -0.10 1.38 8444
0.04 -0.00 0.62 -13.29 18.48 -2.20 -0.28 1.35 8451
0.03 -0.00 1.09 -14.10 18.56 -1.99 -0.37 1.29 8457
0.03 -0.00 1.36 -14.90 18.89 -1.80 -0.38 1.22 8463
0.03 -0.00 1.57 -15.69 19.31 -1.70 -0.33 1.12 8469
0.03 -0.00 2.03 -16.28 19.50 -1.72 -0.22 1.00 8476
0.03 0.00 2.79 -16.85 18.97 -1.87 -0.01 0.85 8482
0.03 -0.00 3.31 -17.33 17.57 -2.11 0.28 0.69 8488
0.03 -0.00 3.46 -17.89 15.64 -2.37 0.65 0.54 8495
0.04 -0.00 3.47 -18.60 13.45 -2.60 1.11 0.41 8502
0.03 -0.00 2.99 -19.33 10.92 -2.74 1.64 0.32 8508
0.03 -0.00 1.35 -19.38 7.42 -2.79 2.31 0.31 8514
0.04 -0.00 -1.20 -19.71 4.24 -2.67 3.35 0.51 8520
0.02 -0.00 -4.47 -22.79 4.49 -2.41 4.26 0.91 8526
0.02 -0.00 -7.59 -26.59 6.15 -2.09 4.28 1.20 8532
0.03 -0.00 -10.89 -29.51 5.28 -1.74 4.28 1.17 8540
0.04 -0.00 -13.43 -30.52 2.36 -1.35 3.19 1.03 8546
0.03 -0.00 -14.78 -29.34 -0.91 -0.90 1.74 0.88 8552
0.04 -0.00 -13.37 -26.97 -2.06 -0.45 0.41 0.68 8558
0.04 -0.00 -11.64 -25.66 -0.12 0.01 -0.62 0.43 8564
0.04 -0.00 -9.01 -23.77 3.28 0.46 -1.36 0.16 8571
0.04 -0.00 -11.70 -37.77 13.33 1.25 -2.44 -0.08 8578
0.03 -0.00 -7.66 -23.71 5.53 2.53 -3.33 -0.38 8584
0.04 0.00 -6.60 -21.93 -0.15 2.54 -3.92 -0.67 8590
0.03 -0.00 0.10 -12.79 7.44 2.58 -4.28 -0.76 8596
0.03 0.10 0.75 5.23 8.74 2.65 -4.14 -0.55 8603
0.00 0.55 9.22 2.55 12.50 2.80 -2.43 0.05 8609
-0.01 0.73 7.56 3.19 13.19 2.93 -1.32 0.61 8615
-0.02 0.78 0.47 -2.67 16.69 3.08 -0.62 0.91 8622
-0.02 0.86 -5.66 -4.99 20.07 3.23 -0.50 0.87 8629
-0.03 0.95 -6.00 -4.83 17.63 3.36 -0.81 0.60 8635
-0.04 1.06 -2.35 -4.51 19.03 3.57 -0.84 0.40 8641
-0.02 1.10 -3.57 -4.48 22.29 3.75 -0.29 0.26 8647
-0.04 1.14 -5.45 -3.62 22.24 3.60 0.12 -0.10 8653
-0.04 1.23 -0.76 -3.52 20.87 3.20 0.45 -0.40 8660
-0.04 1.25 3.48 -3.56 22.31 2.93 0.84 -0.45 8667
-0.04 1.28 4.50 -3.29 17.92 1.18 -0.40 -0.24 8673
-0.03 1.34 2.14 -3.02 12.71 0.31 -0.64 0.08 8679
-0.02 1.31 -0.04 -1.92 10.89 0.18 -0.51 0.14 8686
-0.03 1.32 0.25 -1.41 10.49 0.10 -0.26 0.11 8692
0.01 1.33 1.05 -0.66 10.70 0.04 -0.09 0.09 8698
-0.00 1.35 1.34 -0.72 10.02 -0.01 -0.00 0.10 8705
0.06 1.33 1.03 -1.34 10.17 0.02 -0.04 0.12 8711
0.07 1.34 0.80 -1.15 10.00 0.04 -0.07 0.11 8718
0.09 1.32 0.80 -1.16 9.93 0.05 -0.09 0.11 8724
0.08 1.34 0.84 -1.14 9.95 0.05 -0.10 0.11 8730
0.14 1.33 0.79 -1.11 9.92 0.04 -0.09 0.12 8736
0.11 1.32 0.78 -1.03 9.87 0.04 -0.09 0.12 8742
0.14 1.31 0.70 -1.09 9.93 0.04 -0.09 0.12 8749
0.19 1.29 0.72 -1.02 9.86 0.04 -0.08 0.17 8756
0.16 1.26 0.68 -1.01 9.91 0.04 -0.08 0.15 8762
0.14 1.23 0.69 -1.01 9.96 0.04 -0.07 0.15 8768
0.18 1.22 0.73 -1.02 9.92 0.03 -0.05 0.14 8774
0.20 1.18 0.69 -0.97 9.87 0.03 -0.06 0.16 8780
0.23 1.12 0.73 -1.00 9.88 0.03 -0.05 0.17 8786
0.28 1.07 0.74 -1.09 9.86 0.04 -0.04 0.17 8793
0.27 1.00 0.73 -0.99 9.91 0.03 -0.04 0.16 8800
0.25 0.95 0.69 -1.01 9.89 0.03 -0.03 0.16 8806
0.26 0.91 0.72 -0.99 9.84 0.03 -0.03 0.13 8812
0.28 0.85 0.71 -1.02 9.89 0.04 -0.03 0.17 8818
0.31 0.76 0.76 -1.04 9.87 0.04 -0.04 0.17 8824
0.32 0.68 0.80 -1.06 9.83 0.04 -0.04 0.16 8830
0.35 0.68 0.77 -1.04 9.87 0.04 -0.05 0.16 8838
0.36 0.60 0.75 -1.07 9.88 0.05 -0.06 0.16 8844
0.38 0.55 0.79 -1.05 9.87 0.05 -0.07 0.15 8850
0.39 0.48 0.79 -1.08 9.87 0.06 -0.07 0.14 8856
0.43 0.45 0.76 -1.10 9.90 0.06 -0.08 0.13 8862
0.48 0.36 0.81 -1.15 9.86 0.06 -0.09 0.12 8868
0.45 0.26 0.74 -1.14 9.90 0.06 -0.09 0.13 8876
0.51 0.22 0.72 -1.13 9.88 0.06 -0.09 0.12 8882
0.51 0.15 0.65 -1.15 9.90 0.07 -0.08 0.12 8888
0.52 0.11 0.68 -1.12 9.86 0.06 -0.08 0.11 8894
0.55 0.10 0.68 -1.15 9.94 0.07 -0.07 0.11 8900
0.55 0.03 0.73 -1.16 9.95 0.07 -0.08 0.11 8906
0.57 0.01 0.76 -1.18 9.90 0.08 -0.08 0.11 8912
0.62 -0.01 0.79 -1.23 9.97 0.08 -0.09 0.09 8920
0.63 -0.02 0.82 -1.23 9.86 0.09 -0.10 0.08 8926
0.67 -0.02 0.85 -1.26 9.92 0.10 -0.11 0.07 8932
0.66 -0.01 0.80 -1.28 9.91 0.10 -0.12 0.06 8938
0.71 -0.02 0.87 -1.30 9.94 0.11 -0.13 0.05 8944
0.73 -0.02 0.85 -1.33 9.96 0.12 -0.14 0.04 8950
0.78 -0.01 0.81 -1.35 9.90 0.12 -0.15 0.02 8957
0.80 -0.02 0.79 -1.36 9.95 0.12 -0.16 0.01 8964
0.83 -0.03 0.74 -1.38 9.92 0.12 -0.14 0.01 8970
0.83 -0.03 0.74 -1.40 9.88 0.11 -0.14 0.00 8976
0.83 -0.03 0.75 -1.41 9.95 0.11 -0.14 0.00 8982
0.88 -0.02 0.76 -1.40 9.87 0.11 -0.13 0.00 8988
0.92 -0.03 0.73 -1.43 9.89 0.11 -0.13 0.00 8995
0.95 -0.02 0.81 -1.47 9.95 0.11 -0.13 -0.00 9001
0.96 -0.03 0.75 -1.45 9.97 0.12 -0.13 -0.01 9008
1.01 -0.06 0.80 -1.49 9.99 0.13 -0.13 -0.01 9014
1.00 -0.03 0.80 -1.53 9.92 0.14 -0.14 -0.02 9020
1.05 -0.03 0.70 -1.50 10.14 0.15 -0.15 -0.03 9026
1.07 -0.03 0.75 -1.56 10.05 0.16 -0.15 -0.03 9033
1.10 -0.03 0.78 -1.64 10.09 0.19 -0.17 -0.04 9039
1.15 -0.03 0.77 -1.63 10.01 0.21 -0.18 -0.05 9046
1.17 -0.04 0.84 -1.61 10.12 0.24 -0.19 -0.05 9052
1.20 -0.04 0.80 -1.65 10.15 0.27 -0.20 -0.05 9058
1.23 -0.04 0.77 -1.70 10.13 0.29 -0.20 -0.06 9065
1.21 -0.03 0.82 -1.71 10.22 0.32 -0.21 -0.07 9071
1.25 -0.04 0.73 -1.81 10.20 0.36 -0.21 -0.08 9077
1.29 -0.04 0.86 -1.80 10.21 0.39 -0.20 -0.09 9083
1.30 -0.05 0.77 -1.82 10.27 0.42 -0.21 -0.10 9091
1.37 -0.04 0.67 -1.96 10.29 0.46 -0.21 -0.11 9097
1.40 -0.06 0.79 -1.88 10.39 0.50 -0.22 -0.12 9103
1.44 -0.03 0.84 -1.86 10.61 0.55 -0.22 -0.13 9109
1.48 -0.05 0.93 -2.02 10.85 0.59 -0.24 -0.14 9115
1.49 -0.05 0.66 -2.05 10.90 0.69 -0.24 -0.14 9122
1.54 -0.04 0.71 -2.24 11.15 0.77 -0.25 -0.14 9128
1.56 -0.05 0.65 -2.22 11.30 0.87 -0.26 -0.14 9135
1.59 -0.06 0.65 -2.18 11.33 0.96 -0.26 -0.15 9141
1.68 -0.07 0.68 -2.19 11.50 1.06 -0.29 -0.15 9148
1.74 -0.07 0.61 -2.29 11.68 1.16 -0.32 -0.16 9154
1.77 -0.06 0.36 -2.43 11.83 1.24 -0.33 -0.15 9160
1.81 -0.06 0.48 -2.44 12.05 1.31 -0.36 -0.14 9166
1.86 -0.06 0.55 -2.42 12.21 1.43 -0.37 -0.14 9174
1.89 -0.08 0.36 -2.54 12.45 1.59 -0.39 -0.15 9180
1.89 -0.09 0.42 -2.83 13.07 1.82 -0.40 -0.15 9186
1.88 -0.04 0.31 -2.90 13.84 2.07 -0.41 -0.16 9192
1.87 -0.05 0.45 -2.97 14.25 2.40 -0.41 -0.17 9198
1.81 -0.04 0.51 -3.15 14.33 2.73 -0.41 -0.19 9205
1.76 -0.04 0.45 -2.91 13.80 3.02 -0.39 -0.21 9211
1.70 -0.04 0.46 -3.28 14.14 3.28 -0.36 -0.23 9218
1.61 -0.03 1.00 -3.54 14.25 3.56 -0.35 -0.26 9224
1.47 -0.05 1.05 -3.94 15.42 3.92 -0.38 -0.30 9231
1.30 -0.04 1.45 -4.01 15.85 4.19 -0.42 -0.41 9237
1.11 -0.03 1.99 -3.74 16.66 4.28 -0.46 -0.51 9243
0.93 -0.04 1.84 -4.75 17.36 4.28 -0.56 -0.61 9249
0.77 -0.03 3.70 -6.50 20.21 4.28 -0.72 -0.71 9256
0.67 -0.01 2.47 -6.61 22.13 4.28 -0.86 -0.83 9263
0.56 -0.03 2.94 -9.60 24.05 4.28 -0.98 -0.88 9269
0.49 -0.02 2.75 -12.80 26.50 4.28 -0.89 -0.90 9275
0.38 -0.00 2.51 -15.27 29.35 4.28 -0.67 -0.86 9282
0.28 -0.01 2.39 -15.89 27.51 4.28 -0.46 -0.83 9288
0.26 -0.02 1.95 -13.57 27.23 4.28 -0.43 -0.87 9294
0.20 -0.02 1.43 -10.92 27.24 4.28 -0.44 -0.85 9300
0.16 -0.01 1.21 -7.82 27.97 4.28 -0.29 -0.77 9308
0.10 -0.01 1.86 -5.01 29.53 4.28 -0.22 -0.77 9314
0.08 -0.01 2.31 -1.32 29.78 4.28 -0.36 -0.81 9320
0.07 0.00 3.69 2.02 29.03 4.28 -0.58 -0.82 9326
0.07 -0.01 5.49 7.20 29.53 4.28 -0.81 -0.86 9332
0.06 -0.01 5.42 10.09 28.07 4.28 -0.78 -0.92 9339
0.06 -0.00 3.42 15.10 26.79 4.28 -0.31 -0.96 9346
0.05 -0.01 8.30 19.17 39.24 4.28 0.42 -1.23 9352
0.05 -0.00 4.87 17.10 -4.88 4.28 -0.04 -1.59 9358
0.06 -0.00 6.11 22.95 -8.20 3.84 -0.85 -1.93 9364
0.05 -0.00 6.21 25.32 20.82 0.87 -0.17 -1.95 9371
0.04 -0.00 9.64 17.60 30.42 -0.72 0.62 -1.70 9377
0.06 -0.00 6.07 12.01 21.89 -1.88 0.99 -1.44 9383
0.06 -0.01 3.39 11.22 14.84 -2.90 0.98 -1.17 9390
0.05 0.00 2.39 13.03 11.33 -3.68 0.83 -0.89 9397
0.05 -0.01 2.71 11.74 10.06 -4.08 0.68 -0.65 9403
0.04 -0.00 2.94 8.31 9.74 -4.21 0.62 -0.50 9409
0.04 0.01 3.12 6.01 9.07 -4.25 0.65 -0.33 9415
0.05 -0.01 2.90 5.54 7.85 -4.27 0.69 -0.19 9421
0.05 -0.00 2.93 4.84 8.44 -4.27 0.73 -0.10 9427
0.03 -0.00 2.91 3.54 7.97 -4.28 0.76 -0.04 9434
0.04 0.01 2.69 2.58 8.03 -4.28 0.87 0.02 9440
0.05 -0.01 2.38 2.19 8.70 -4.28 0.95 0.08 9447
0.05 -0.00 2.17 1.65 9.31 -4.28 1.05 0.12 9453
0.04 -0.00 1.87 1.15 9.82 -4.28 1.10 0.13 9459
0.05 0.00 1.46 0.52 10.44 -4.28 1.12 0.13 9465
0.05 -0.00 1.17 -0.22 10.90 -4.28 1.16 0.14 9472
0.04 -0.00 0.98 -0.72 11.40 -4.28 1.18 0.16 9478
0.04 0.00 0.62 -1.20 11.74 -4.28 1.19 0.18 9484
0.04 -0.00 0.52 -1.60 12.09 -4.28 1.20 0.18 9491
0.03 -0.00 0.45 -1.93 12.36 -4.28 1.21 0.16 9497
0.04 0.01 0.46 -2.43 12.76 -4.28 1.28 0.16 9503
0.04 -0.00 0.46 -2.90 13.14 -4.28 1.38 0.16 9509
0.04 -0.00 0.35 -3.32 13.63 -4.28 1.53 0.15 9516
0.04 0.01 0.28 -3.82 14.57 -4.28 1.67 0.12 9523
0.04 -0.00 -0.03 -4.39 15.06 -4.28 1.80 0.08 9529
0.04 -0.00 -0.29 -4.98 15.73 -4.28 1.88 0.03 9535
0.04 -0.00 -0.58 -5.26 16.26 -4.27 1.93 -0.01 9541
0.05 -0.01 -0.72 -5.31 16.41 -4.26 1.94 -0.04 9547
0.04 -0.00 -0.82 -5.44 16.60 -4.22 1.92 -0.05 9553
0.05 0.00 -0.76 -5.45 16.63 -4.18 1.90 -0.05 9561
0.06 -0.01 -0.75 -5.71 16.86 -4.12 1.88 -0.02 9567
0.04 -0.00 -0.76 -5.93 16.95 -4.01 1.86 0.02 9573
0.03 -0.00 -0.78 -6.22 17.10 -3.83 1.85 0.09 9579
0.06 -0.01 -0.83 -6.59 17.23 -3.63 1.85 0.12 9585
0.04 -0.00 -0.88 -7.01 17.61 -3.44 1.82 0.17 9591
0.04 -0.00 -1.05 -7.18 18.00 -3.26 1.76 0.23 9598
0.04 -0.00 -1.28 -7.53 18.41 -3.10 1.67 0.30 9605
0.05 -0.00 -1.38 -8.15 18.60 -2.97 1.54 0.38 9611
0.04 -0.00 -1.48 -9.07 18.89 -2.81 1.37 0.46 9617
0.05 0.00 -1.62 -10.14 19.25 -2.62 1.17 0.55 9623
0.05 -0.01 -1.61 -11.41 19.26 -2.42 0.95 0.64 9630
0.04 -0.00 -1.42 -12.68 18.95 -2.21 0.72 0.73 9636
0.06 -0.01 -0.94 -13.76 18.59 -1.99 0.51 0.80 9643
0.05 -0.00 -0.43 -14.77 18.47 -1.79 0.41 0.88 9649
0.05 -0.00 -0.05 -15.37 18.32 -1.61 0.37 0.94 9655
0.05 -0.01 0.34 -15.84 17.83 -1.51 0.43 1.01 9662
0.05 -0.01 0.87 -16.15 17.37 -1.48 0.59 1.07 9668
0.05 0.00 1.44 -16.63 17.07 -1.52 0.85 1.12 9674
0.05 -0.01 1.69 -17.39 16.66 -1.63 1.17 1.17 9680
0.04 -0.00 1.46 -18.21 16.07 -1.81 1.45 1.21 9687
0.05 -0.01 0.82 -18.99 14.75 -2.03 1.66 1.26 9694
0.05 -0.01 0.00 -19.60 12.90 -2.26 1.80 1.33 9700
0.04 -0.00 -1.22 -19.84 10.70 -2.44 1.91 1.42 9706
0.06 -0.01 -2.63 -19.88 8.43 -2.55 2.00 1.54 9712
0.05 -0.00 -4.39 -20.74 6.84 -2.53 2.10 1.69 9718
0.04 -0.00 -6.76 -22.08 6.42 -2.42 2.12 1.83 9725
0.06 -0.01 -6.79 -23.36 6.08 -2.31 1.89 1.93 9732
0.04 -0.00 -8.12 -24.54 5.14 -2.13 1.39 1.92 9738
0.04 -0.00 -8.04 -24.64 4.04 -1.92 0.84 1.84 9744
0.05 -0.01 -7.15 -24.27 2.09 -1.63 0.17 1.74 9750
0.05 -0.00 -6.74 -23.89 1.04 -1.24 -0.40 1.56 9756
0.04 -0.00 -5.26 -23.41 0.89 -0.75 -0.80 1.32 9763
0.05 -0.00 -3.43 -22.34 1.73 -0.24 -1.07 1.02 9769
0.03 -0.00 -1.64 -22.34 2.06 0.21 -1.16 0.68 9776
0.04 -0.00 -6.39 -30.73 35.32 2.61 -2.24 0.36 9782
0.05 0.00 -6.40 -20.64 -4.07 2.45 -1.85 0.15 9788
0.05 -0.01 -5.17 -21.73 1.41 2.69 -2.73 0.20 9795
0.03 0.02 0.14 -3.49 4.71 2.90 -3.30 0.23 9801
0.01 0.45 3.12 6.90 9.12 3.03 -2.54 0.49 9807
-0.01 0.69 6.96 1.03 15.97 3.24 -1.45 0.91 9814
-0.02 0.70 3.72 2.32 12.72 3.21 -0.59 1.28 9820
-0.01 0.80 -1.36 -2.87 16.14 3.27 -0.30 1.36 9827
-0.01 0.82 -6.56 -5.09 17.35 3.30 -0.39 1.20 9833
-0.03 0.92 -7.50 -4.81 17.27 3.37 -0.63 0.90 9839
-0.01 0.96 -6.54 -4.47 18.36 3.47 -0.55 0.59 9845
-0.02 1.06 -7.47 -4.83 22.81 3.53 -0.18 0.23 9852
-0.02 1.16 -6.48 -2.89 22.31 3.45 0.25 -0.25 9859
-0.03 1.20 -0.97 -3.42 21.14 3.28 0.81 -0.59 9865
-0.03 1.24 4.24 -3.91 30.15 3.12 1.26 -0.68 9871
-0.00 1.28 6.28 -3.01 14.07 0.59 -0.39 -0.26 9877
-0.02 1.29 2.30 -2.95 11.79 0.17 -0.47 0.11 9884
-0.02 1.31 0.03 -1.19 10.02 0.18 -0.52 0.14 9890
-0.01 1.32 0.16 -1.33 10.79 0.12 -0.38 0.07 9896
-0.01 1.27 0.59 -2.59 10.18 0.01 -0.12 0.08 9903
-0.01 1.26 0.94 -2.09 9.93 -0.01 -0.05 0.10 9910
0.01 1.26 1.20 -1.09 10.11 0.01 -0.06 0.10 9916
0.01 1.27 0.87 -1.15 10.33 0.02 -0.09 0.10 9922
0.04 1.29 0.79 -1.15 10.19 0.02 -0.07 0.10 9928
0.04 1.30 0.89 -0.96 9.92 0.03 -0.07 0.10 9934
0.05 1.30 0.90 -0.97 9.92 0.04 -0.07 0.10 9940
0.05 1.29 0.92 -0.92 9.87 0.05 -0.09 0.11 9948
0.09 1.27 0.86 -0.93 9.91 0.05 -0.09 0.11 9954
0.09 1.26 0.87 -0.96 9.95 0.05 -0.10 0.12 9960
0.09 1.24 0.86 -0.89 9.89 0.05 -0.10 0.13 9966
0.11 1.21 0.81 -0.89 9.85 0.05 -0.09 0.13 9972
0.13 1.17 0.76 -0.85 9.93 0.04 -0.07 0.12 9978
0.16 1.13 0.76 -0.88 9.92 0.04 -0.05 0.14 9985
0.17 1.11 0.78 -0.86 9.91 0.04 -0.04 0.15 9992
0.16 1.02 0.85 -0.87 9.89 0.04 -0.04 0.16 9998
0.15 0.97 0.78 -0.89 9.91 0.04 -0.04 0.15 10004
0.19 0.91 0.80 -0.85 9.88 0.05 -0.03 0.16 10010
0.19 0.87 0.77 -0.89 9.92 0.05 -0.02 0.15 10016
0.20 0.78 0.72 -0.90 9.93 0.05 -0.01 0.16 10023
0.22 0.74 0.76 -0.87 9.92 0.05 0.00 0.17 10030
0.22 0.65 0.79 -0.89 9.91 0.05 0.01 0.17 10036
0.24 0.61 0.83 -0.87 9.88 0.05 0.02 0.16 10042
0.29 0.53 0.83 -0.91 9.86 0.05 0.01 0.15 10048
0.29 0.47 0.88 -0.89 9.86 0.06 0.01 0.15 10054
0.30 0.43 0.90 -0.93 9.84 0.06 0.00 0.15 10061
0.30 0.37 0.86 -0.94 9.88 0.06 -0.00 0.14 10067
0.32 0.28 0.87 -0.97 9.87 0.06 -0.01 0.13 10074
0.31 0.24 0.85 -1.00 9.92 0.07 -0.02 0.14 10080
0.38 0.14 0.87 -0.98 9.95 0.07 -0.01 0.13 10086
0.39 0.07 0.80 -0.91 9.99 0.07 -0.02 0.13 10093
0.37 0.03 0.85 -0.98 9.88 0.07 -0.01 0.13 10099
0.41 0.00 0.83 -1.02 9.91 0.07 -0.01 0.12 10105
0.41 0.00 0.86 -1.04 9.91 0.08 -0.01 0.12 10112
0.40 -0.01 0.88 -1.05 9.91 0.08 -0.00 0.11 10118
0.44 -0.00 0.97 -1.08 9.94 0.09 -0.00 0.10 10125
0.44 -0.01 0.90 -1.11 9.95 0.10 -0.02 0.09 10131
0.41 -0.01 0.93 -1.11 9.96 0.12 -0.03 0.09 10137
0.46 -0.01 0.96 -1.12 9.95 0.14 -0.04 0.08 10143
0.48 -0.01 1.00 -1.18 9.99 0.15 -0.05 0.07 10149
0.47 -0.01 1.02 -1.20 9.93 0.16 -0.05 0.05 10157
0.47 -0.01 1.03 -1.21 9.90 0.18 -0.06 0.04 10163
0.47 -0.01 0.94 -1.26 9.92 0.19 -0.07 0.03 10169
0.44 -0.02 0.98 -1.21 9.87 0.19 -0.08 0.01 10175
0.46 -0.02 1.12 -1.23 9.78 0.21 -0.11 -0.00 10181
0.46 -0.02 0.99 -1.35 9.86 0.22 -0.13 -0.02 10188
0.47 -0.01 1.01 -1.32 9.86 0.22 -0.15 -0.03 10194
0.48 -0.01 0.99 -1.33 9.84 0.21 -0.14 -0.04 10201
0.51 -0.02 0.98 -1.41 10.40 0.20 -0.16 -0.04 10207
0.53 0.00 0.84 -1.47 9.85 0.18 -0.15 -0.04 10213
0.51 -0.01 0.88 -1.44 9.90 0.15 -0.13 -0.04 10220
0.54 -0.02 0.93 -1.42 9.92 0.14 -0.13 -0.04 10226
0.57 -0.02 0.92 -1.44 9.95 0.15 -0.13 -0.04 10232
0.55 -0.01 0.95 -1.48 9.92 0.15 -0.12 -0.04 10238
0.59 -0.02 0.91 -1.51 9.97 0.15 -0.13 -0.04 10246
0.63 -0.01 0.93 -1.49 10.02 0.15 -0.12 -0.04 10252
0.66 -0.02 0.83 -1.24 9.89 0.17 -0.12 -0.04 10258
0.71 -0.02 0.82 -1.57 9.89 0.17 -0.11 -0.04 10264
0.71 -0.02 0.88 -1.58 10.05 0.17 -0.11 -0.03 10270
0.72 -0.02 0.90 -1.62 10.03 0.17 -0.10 -0.02 10277
0.77 -0.02 0.88 -1.57 10.03 0.19 -0.10 -0.02 10284
0.80 -0.03 1.05 -1.63 10.15 0.22 -0.11 -0.03 10290
0.87 -0.01 1.06 -1.67 10.27 0.25 -0.12 -0.03 10297
0.87 -0.02 1.03 -1.72 10.31 0.30 -0.13 -0.04 10303
0.88 -0.02 1.04 -1.83 10.58 0.37 -0.13 -0.06 10309
0.94 -0.02 1.13 -1.76 10.57 0.44 -0.15 -0.08 10315
0.97 -0.04 1.04 -1.83 10.74 0.52 -0.16 -0.10 10322
1.04 -0.03 1.08 -1.88 11.08 0.62 -0.18 -0.12 10329
1.11 -0.04 0.91 -1.83 11.09 0.71 -0.18 -0.13 10335
1.12 -0.04 0.89 -1.97 11.29 0.81 -0.19 -0.14 10341
1.19 -0.03 0.94 -1.81 11.27 0.93 -0.20 -0.14 10348
1.25 -0.04 0.84 -2.01 11.43 0.98 -0.21 -0.14 10354
1.30 -0.04 0.85 -2.17 11.42 1.08 -0.21 -0.14 10360
1.36 -0.06 0.86 -2.17 11.34 1.23 -0.22 -0.14 10368
1.36 -0.04 0.70 -2.31 11.75 1.32 -0.21 -0.13 10374
1.39 -0.04 0.79 -2.53 11.92 1.44 -0.22 -0.12 10380
1.41 -0.04 0.86 -2.43 12.14 1.54 -0.26 -0.12 10386
1.41 -0.04 0.95 -2.57 12.32 1.69 -0.24 -0.12 10393
1.40 -0.03 0.84 -2.52 12.97 1.91 -0.21 -0.13 10399
1.42 -0.04 0.87 -2.88 13.56 2.19 -0.20 -0.14 10405
1.36 -0.04 0.95 -3.03 13.09 2.48 -0.18 -0.16 10412
1.32 -0.03 0.99 -3.10 13.16 2.73 -0.15 -0.18 10419
1.25 -0.04 0.91 -3.15 13.21 2.96 -0.13 -0.21 10425
1.19 -0.03 1.14 -3.53 13.64 3.22 -0.13 -0.23 10431
1.10 -0.02 1.60 -3.49 13.78 3.49 -0.16 -0.28 10438
0.97 -0.02 1.76 -3.68 13.81 3.79 -0.14 -0.35 10444
0.92 -0.02 1.43 -3.89 14.25 4.08 -0.12 -0.41 10450
0.72 -0.03 1.72 -4.39 15.22 4.26 -0.14 -0.46 10457
0.61 -0.02 1.39 -5.18 15.17 4.28 -0.13 -0.52 10464
0.50 -0.01 2.59 -5.75 17.49 4.28 -0.18 -0.58 10470
0.42 -0.01 2.62 -7.18 19.74 4.28 -0.20 -0.64 10476
0.35 -0.01 2.99 -9.45 21.90 4.28 -0.13 -0.65 10483
0.32 -0.01 3.19 -11.55 24.70 4.28 0.01 -0.61 10489
0.26 -0.01 2.72 -13.31 25.36 4.28 0.28 -0.52 10496
0.23 -0.01 2.77 -13.03 25.13 4.28 0.45 -0.49 10503
0.21 -0.02 1.93 -12.36 23.59 4.28 0.55 -0.47 10509
0.18 -0.02 1.42 -10.43 23.68 4.28 0.72 -0.39 10515
0.12 -0.01 0.77 -9.70 25.32 4.28 0.89 -0.31 10521
0.11 0.00 0.57 -8.39 27.94 4.28 0.92 -0.32 10528
0.07 0.00 0.13 -6.49 28.27 4.28 0.77 -0.41 10534
0.08 0.01 1.90 -2.77 28.97 4.28 0.47 -0.53 10541
0.06 -0.00 2.97 1.38 29.04 4.28 0.15 -0.63 10547
0.06 0.01 3.84 5.99 28.49 4.28 -0.10 -0.72 10554
0.05 -0.00 4.29 9.67 25.51 4.28 0.02 -0.79 10560
0.05 0.01 3.39 12.09 21.49 4.28 0.55 -0.86 10566
0.05 0.00 6.82 10.91 3.31 4.28 0.68 -1.27 10572
0.02 0.01 4.16 10.34 -0.63 4.28 -0.34 -1.83 10579
0.04 0.00 3.00 15.69 0.66 2.59 -1.10 -2.19 10586
0.03 -0.00 3.34 23.32 19.12 0.56 -0.51 -2.16 10592
0.04 0.00 7.37 15.74 24.76 -0.68 0.22 -1.95 10598
0.03 -0.00 4.72 10.15 20.44 -1.70 0.46 -1.91 10605
0.03 -0.00 2.88 10.19 16.09 -2.59 0.45 -1.86 10611
0.05 -0.00 2.39 11.75 12.60 -3.22 0.40 -1.65 10617
0.02 -0.00 2.99 10.54 10.08 -3.61 0.41 -1.44 10624
0.04 0.01 2.98 7.92 8.82 -3.83 0.39 -1.30 10631
0.03 -0.00 2.94 6.33 7.82 -3.94 0.36 -1.21 10637
0.02 -0.00 2.61 5.72 7.18 -4.01 0.35 -1.11 10643
0.03 0.00 2.33 5.09 6.49 -3.98 0.31 -1.00 10649
0.04 -0.00 2.29 4.01 5.99 -3.97 0.28 -0.91 10655
0.03 -0.00 2.43 3.34 5.96 -3.95 0.22 -0.83 10661
0.04 -0.00 2.45 2.95 6.41 -3.96 0.16 -0.74 10669
0.04 -0.00 2.51 2.66 7.13 -3.98 0.10 -0.72 10675
0.04 -0.00 2.83 2.51 7.41 -4.03 0.11 -0.66 10681
0.03 0.00 3.15 2.59 8.02 -4.08 0.15 -0.59 10687
0.05 -0.00 3.37 2.43 8.64 -4.13 0.24 -0.52 10693
0.03 -0.00 3.36 2.09 9.42 -4.19 0.37 -0.45 10700
0.02 -0.00 3.39 1.74 10.01 -4.27 0.51 -0.37 10706
0.04 0.00 3.28 1.27 10.82 -4.27 0.64 -0.29 10713
0.03 -0.00 2.99 0.76 11.49 -4.28 0.76 -0.21 10719
0.03 -0.00 2.85 0.24 11.86 -4.28 0.85 -0.14 10725
0.04 0.00 2.78 -0.34 12.36 -4.28 0.94 -0.07 10732
0.03 -0.00 2.53 -0.94 12.75 -4.28 1.06 -0.02 10738
0.03 0.01 2.48 -1.70 13.14 -4.28 1.19 0.01 10744
0.04 0.00 2.37 -2.43 13.79 -4.28 1.34 0.01 10750
0.03 -0.00 2.25 -3.52 14.65 -4.28 1.51 -0.01 10758
0.05 -0.00 2.10 -4.52 15.76 -4.28 1.66 -0.06 10764
0.03 -0.00 1.69 -5.35 16.71 -4.28 1.84 -0.13 10770
0.03 -0.00 1.20 -6.25 17.30 -4.28 2.01 -0.18 10776
0.04 -0.00 0.78 -6.90 17.71 -4.28 2.14 -0.24 10782
0.03 -0.00 0.41 -7.31 17.94 -4.27 2.20 -0.27 10789
0.03 0.00 0.00 -7.65 18.27 -4.24 2.22 -0.27 10796
0.04 -0.00 -0.36 -8.24 18.26 -4.18 2.18 -0.24 10802
0.02 -0.00 -0.62 -8.74 18.15 -4.06 2.09 -0.18 10808
0.04 0.00 -0.78 -9.09 18.22 -3.83 1.98 -0.09 10815
0.04 -0.00 -0.92 -9.42 18.22 -3.57 1.86 0.01 10821
0.03 -0.00 -1.01 -9.65 18.42 -3.30 1.72 0.11 10827
0.04 0.00 -1.36 -10.02 18.90 -3.04 1.55 0.22 10833
0.03 -0.00 -1.64 -10.47 19.51 -2.82 1.34 0.32 10840
0.04 0.01 -1.86 -10.96 19.81 -2.63 1.11 0.41 10847
0.03 -0.00 -1.84 -11.35 19.91 -2.49 0.86 0.50 10853
0.03 0.01 -1.61 -11.79 19.73 -2.37 0.64 0.58 10859
0.03 0.00 -1.17 -12.24 19.34 -2.28 0.48 0.65 10866
0.03 0.00 -0.63 -12.81 18.79 -2.19 0.40 0.72 10872
0.03 -0.00 -0.02 -13.47 18.28 -2.10 0.40 0.77 10878
0.02 -0.00 0.47 -14.19 17.86 -2.01 0.47 0.82 10885
0.03 -0.00 0.65 -14.90 17.78 -1.94 0.54 0.85 10892
0.03 -0.00 0.46 -15.41 17.98 -1.93 0.60 0.88 10898
0.03 -0.00 0.57 -16.00 18.05 -1.99 0.65 0.90 10904
0.03 -0.00 1.18 -16.48 17.85 -2.15 0.72 0.91 10910
0.03 -0.00 1.91 -16.81 16.80 -2.35 0.87 0.93 10917
0.04 0.00 2.30 -17.22 14.89 -2.58 1.15 0.96 10924
0.03 -0.00 2.11 -17.47 12.49 -2.78 1.57 1.05 10930
0.03 -0.00 1.28 -17.90 9.93 -2.87 2.22 1.24 10936
0.03 -0.00 0.11 -18.57 8.15 -2.83 2.96 1.56 10943
0.03 -0.00 -1.87 -19.95 7.61 -2.65 3.53 1.90 10949
0.03 0.00 -4.93 -22.42 5.64 -2.40 3.67 2.18 10955
0.03 -0.00 -8.50 -24.82 4.82 -2.00 3.26 2.33 10961
0.02 -0.00 -9.49 -25.89 3.29 -1.62 2.42 2.36 10969
0.05 0.00 -10.12 -25.41 0.78 -1.15 1.47 2.32 10975
0.03 -0.00 -9.58 -24.29 -0.49 -0.67 0.60 2.21 10981
0.03 -0.00 -8.43 -23.44 0.65 -0.19 -0.07 2.01 10987
0.04 -0.00 -7.14 -22.33 2.89 0.26 -0.53 1.75 10993
0.04 -0.00 -5.43 -20.55 5.04 0.61 -0.78 1.45 11000
0.04 0.01 -3.54 -18.78 6.74 0.81 -0.95 1.11 11006
0.04 -0.00 -9.78 -36.53 30.70 1.26 -1.62 0.89 11013
0.04 0.01 -5.62 -20.25 -4.92 2.54 -2.15 0.70 11019
0.04 0.00 -6.29 -15.15 -1.15 2.74 -2.69 0.55 11026
0.02 0.00 -0.26 -3.31 4.73 2.74 -3.67 0.50 11032
0.01 0.27 0.88 10.15 11.18 3.01 -3.08 0.66 11038
-0.01 0.61 6.17 1.60 16.09 3.10 -1.84 1.06 11045
-0.02 0.69 4.28 2.99 12.31 3.10 -0.94 1.36 11052
-0.01 0.68 0.46 -3.42 15.90 3.08 -0.38 1.51 11058
-0.02 0.71 -4.02 -4.95 17.38 2.99 -0.17 1.49 11064
-0.01 0.80 -6.57 -4.90 16.23 2.97 -0.24 1.28 11071
-0.02 0.84 -7.44 -3.40 16.80 2.99 -0.32 0.94 11077
-0.03 0.92 -8.35 -3.03 17.62 2.99 -0.21 0.52 11083
-0.02 0.99 -8.49 -2.69 19.29 2.97 -0.07 0.02 11089
-0.03 1.08 -4.09 -2.48 17.77 2.90 0.22 -0.43 11097
-0.03 1.08 1.65 -2.50 18.45 2.87 0.70 -0.63 11103
-0.04 1.12 5.07 -2.68 19.09 2.74 1.03 -0.63 11109
-0.02 1.18 6.56 -3.67 22.75 2.38 0.69 -0.47 11116
-0.03 1.20 3.91 -2.81 13.35 0.68 -0.67 -0.03 11122
-0.03 1.23 1.54 -1.86 11.45 0.28 -0.66 0.15 11128
-0.03 1.24 -0.35 -1.03 10.51 0.19 -0.52 0.10 11134
-0.04 1.25 1.06 -0.17 10.34 0.08 -0.32 0.05 11142
-0.01 1.27 1.34 0.36 10.40 -0.00 -0.15 0.06 11148
0.00 1.27 1.48 -0.44 10.44 0.00 -0.16 0.09 11154
-0.01 1.29 0.98 -1.29 10.28 0.04 -0.18 0.10 11160
-0.01 1.32 0.87 -1.13 10.02 0.05 -0.15 0.10 11167
-0.01 1.32 0.86 -1.16 9.90 0.03 -0.11 0.09 11173
0.03 1.32 0.88 -1.06 9.98 0.03 -0.10 0.10 11180
0.01 1.32 0.91 -1.03 9.90 0.04 -0.09 0.10 11186
0.02 1.34 0.90 -0.93 9.89 0.04 -0.10 0.11 11192
0.06 1.32 0.90 -1.00 9.92 0.04 -0.09 0.11 11199
0.05 1.30 0.91 -0.99 9.86 0.05 -0.09 0.11 11205
0.05 1.28 0.82 -0.95 9.81 0.05 -0.10 0.12 11211
0.07 1.26 0.82 -1.00 9.86 0.05 -0.10 0.12 11217
0.07 1.20 0.81 -0.98 9.89 0.05 -0.09 0.14 11224
0.09 1.19 0.85 -0.97 9.88 0.05 -0.09 0.15 11231
0.13 1.15 0.79 -0.93 9.94 0.05 -0.08 0.15 11237
0.11 1.10 0.80 -1.01 9.90 0.05 -0.07 0.15 11243
0.14 1.07 0.75 -0.98 9.90 0.05 -0.07 0.16 11249
0.15 1.05 0.75 -1.01 9.88 0.04 -0.06 0.16 11255
0.15 1.00 0.72 -1.00 9.92 0.04 -0.05 0.17 11262
0.17 0.96 0.73 -0.91 9.90 0.04 -0.04 0.16 11269
0.17 0.86 0.76 -0.93 9.93 0.04 -0.03 0.13 11275
0.18 0.85 0.75 -0.95 9.87 0.04 -0.03 0.17 11281
0.19 0.79 0.83 -0.98 9.85 0.04 -0.03 0.18 11287
0.19 0.73 0.83 -1.02 9.89 0.04 -0.03 0.16 11294
0.19 0.65 0.81 -0.98 9.86 0.05 -0.04 0.16 11300
0.21 0.61 0.84 -0.98 9.84 0.05 -0.05 0.15 11307
0.24 0.53 0.81 -1.03 9.86 0.05 -0.05 0.15 11313
0.22 0.48 0.83 -1.04 9.87 0.05 -0.05 0.14 11319
0.23 0.46 0.79 -1.03 9.87 0.05 -0.05 0.15 11326
0.23 0.43 0.80 -1.06 9.87 0.05 -0.04 0.14 11332
0.22 0.33 0.76 -1.07 9.90 0.05 -0.04 0.13 11338
0.28 0.30 0.80 -1.07 9.89 0.05 -0.03 0.14 11344
0.30 0.19 0.77 -1.07 9.86 0.05 -0.03 0.13 11351
0.31 0.18 0.79 -1.08 9.84 0.05 -0.02 0.15 11358
0.33 0.14 0.80 -1.08 9.86 0.05 -0.01 0.14 11364
0.34 0.06 0.85 -1.04 9.89 0.05 -0.01 0.16 11370
0.36 0.03 0.86 -1.09 9.89 0.06 -0.01 0.13 11376
0.37 -0.00 0.85 -1.08 9.87 0.06 -0.01 0.12 11382
0.37 -0.01 0.89 -1.10 9.85 0.06 -0.02 0.11 11388
0.36 0.00 0.88 -1.13 9.86 0.06 -0.02 0.11 11396
0.39 0.00 0.89 -1.12 9.87 0.07 -0.03 0.11 11402
0.39 -0.01 0.89 -1.16 9.86 0.07 -0.03 0.11 11408
0.36 0.01 0.89 -1.19 9.84 0.07 -0.04 0.09 11414
0.42 0.00 0.89 -1.18 9.83 0.07 -0.05 0.09 11420
0.41 -0.01 0.89 -1.21 9.87 0.07 -0.06 0.08 11427
0.42 0.00 0.93 -1.19 9.85 0.07 -0.06 0.08 11433
0.42 -0.00 0.88 -1.24 9.86 0.07 -0.07 0.06 11440
0.43 -0.02 0.91 -1.20 9.89 0.07 -0.08 0.05 11446
0.44 -0.01 0.91 -1.25 9.83 0.07 -0.08 0.04 11452
0.45 -0.01 0.90 -1.25 9.90 0.08 -0.09 0.04 11459
0.47 -0.01 0.90 -1.29 9.88 0.08 -0.09 0.04 11465
0.50 -0.01 0.92 -1.30 9.91 0.08 -0.09 0.03 11471
0.55 -0.02 0.91 -1.27 9.95 0.10 -0.11 0.04 11478
0.58 -0.03 0.89 -1.32 9.93 0.10 -0.11 0.02 11484
0.60 -0.01 0.92 -1.32 9.98 0.11 -0.12 0.02 11491
0.59 -0.02 0.90 -1.31 9.93 0.13 -0.12 0.01 11497
0.65 -0.02 0.91 -1.40 9.92 0.14 -0.13 0.01 11503
0.70 -0.01 0.85 -1.28 9.94 0.15 -0.13 0.01 11509
0.69 -0.02 0.90 -1.40 9.98 0.16 -0.13 -0.01 11515
0.75 -0.03 0.88 -1.43 9.96 0.18 -0.13 -0.01 11523
0.76 -0.02 0.89 -1.51 10.00 0.20 -0.14 -0.01 11529
0.80 -0.03 0.99 -1.48 10.07 0.24 -0.15 -0.03 11535
0.84 -0.03 0.96 -1.53 10.15 0.29 -0.17 -0.04 11541
0.88 -0.03 1.07 -1.65 10.29 0.35 -0.19 -0.06 11548
0.93 -0.03 1.06 -1.63 10.56 0.44 -0.22 -0.08 11554
0.98 -0.03 1.11 -1.66 10.68 0.53 -0.25 -0.10 11560
1.04 -0.05 0.96 -1.61 10.88 0.63 -0.27 -0.12 11567
1.06 -0.03 1.12 -1.81 11.15 0.73 -0.28 -0.13 11574
1.17 -0.05 0.88 -1.77 11.04 0.83 -0.29 -0.15 11580
1.23 -0.04 0.88 -1.77 11.27 0.91 -0.29 -0.14 11586
1.25 -0.05 0.75 -1.85 11.46 1.00 -0.28 -0.14 11593
1.30 -0.04 0.79 -2.07 11.59 1.09 -0.28 -0.13 11599
1.33 -0.04 0.64 -2.18 11.64 1.19 -0.25 -0.13 11606
1.39 -0.06 0.63 -2.19 11.76 1.29 -0.24 -0.12 11612
1.43 -0.04 0.66 -2.18 11.95 1.42 -0.22 -0.11 11619
1.47 -0.06 0.76 -2.29 12.01 1.54 -0.23 -0.10 11625
1.49 -0.06 0.71 -2.52 12.14 1.61 -0.28 -0.10 11631
1.49 -0.05 0.78 -2.61 12.84 1.77 -0.25 -0.10 11638
1.51 -0.04 0.87 -2.69 13.43 2.01 -0.25 -0.11 11644
1.53 -0.05 0.92 -2.90 13.99 2.32 -0.25 -0.13 11651
1.52 -0.06 0.98 -2.91 13.79 2.64 -0.25 -0.16 11657
1.50 -0.04 1.06 -3.10 14.16 2.93 -0.25 -0.19 11664
1.42 -0.05 1.30 -3.16 14.04 3.19 -0.26 -0.24 11670
1.36 -0.04 1.59 -3.28 13.36 3.45 -0.27 -0.29 11676
1.25 -0.04 2.03 -3.65 14.21 3.76 -0.31 -0.38 11682
1.13 -0.04 1.71 -3.65 14.82 4.06 -0.32 -0.45 11689
0.98 -0.03 1.79 -3.85 15.42 4.24 -0.37 -0.54 11696
0.86 -0.04 2.30 -4.30 16.85 4.28 -0.45 -0.63 11702
0.75 -0.01 3.05 -5.14 17.56 4.28 -0.56 -0.72 11709
0.65 -0.02 2.34 -6.31 18.94 4.28 -0.68 -0.80 11715
0.54 -0.01 3.03 -7.76 20.30 4.28 -0.75 -0.89 11721
0.48 0.00 2.70 -10.13 23.77 4.28 -0.74 -0.91 11727
0.40 -0.00 2.00 -12.88 26.55 4.28 -0.62 -0.84 11735
0.33 -0.00 1.75 -14.81 27.74 4.28 -0.41 -0.75 11741
0.27 -0.00 1.44 -14.61 26.76 4.28 -0.26 -0.70 11747
0.21 0.00 1.40 -12.60 25.61 4.28 -0.24 -0.68 11754
0.17 0.00 1.05 -10.01 25.17 4.28 -0.21 -0.62 11760
0.13 0.02 1.28 -7.94 26.74 4.28 -0.09 -0.56 11766
0.08 0.00 1.65 -4.80 28.47 4.28 -0.07 -0.56 11773
0.07 -0.00 2.43 -1.77 28.25 4.28 -0.19 -0.62 11780
0.07 -0.01 3.49 2.05 27.83 4.28 -0.40 -0.64 11786
0.06 -0.01 4.78 6.70 28.20 4.28 -0.55 -0.68 11792
0.07 -0.00 4.89 10.40 26.22 4.28 -0.51 -0.73 11799
0.06 -0.01 2.67 12.41 24.23 4.28 -0.12 -0.80 11805
0.05 -0.01 2.53 6.34 3.98 4.28 0.67 -1.05 11811
0.06 0.01 5.17 12.16 7.07 4.28 0.05 -1.58 11817
0.06 -0.01 5.49 12.58 1.14 4.23 -0.72 -1.98 11824
0.05 0.01 2.93 25.34 10.79 1.43 -0.54 -2.15 11831
0.06 -0.00 8.07 19.37 26.95 -0.48 0.35 -2.05 11837
0.05 0.00 5.27 12.66 22.87 -1.72 0.92 -1.90 11843
0.05 0.01 3.04 10.84 17.19 -2.76 1.11 -1.70 11850
0.03 0.00 1.80 12.01 13.13 -3.58 1.04 -1.43 11856
0.05 -0.00 1.76 10.96 11.04 -4.08 0.89 -1.19 11863
0.04 0.00 2.21 8.46 9.97 -4.24 0.74 -1.02 11869
0.05 0.01 2.13 5.53 9.04 -4.27 0.65 -0.86 11876
0.04 0.00 2.36 4.59 8.31 -4.28 0.61 -0.72 11882
0.04 0.00 2.29 4.01 7.49 -4.27 0.57 -0.58 11888
0.05 0.01 2.24 3.24 6.74 -4.26 0.55 -0.47 11894
0.04 0.01 2.37 2.76 6.36 -4.25 0.54 -0.36 11900
0.04 -0.00 2.47 2.34 6.84 -4.25 0.55 -0.27 11908
0.05 0.01 2.37 1.96 7.51 -4.25 0.56 -0.18 11914
0.05 0.00 2.27 1.48 8.06 -4.25 0.56 -0.12 11920
0.04 0.01 2.11 1.13 8.60 -4.26 0.55 -0.05 11926
0.05 0.00 2.11 0.86 8.96 -4.27 0.54 0.00 11932
0.04 0.00 2.15 0.43 9.61 -4.28 0.54 0.06 11939
0.04 0.01 2.19 -0.09 10.26 -4.28 0.57 0.11 11945
0.05 -0.00 2.32 -0.62 11.01 -4.28 0.64 0.16 11952
0.05 -0.00 2.37 -1.00 11.60 -4.28 0.72 0.19 11958
0.04 0.01 2.50 -1.30 12.39 -4.28 0.84 0.21 11964
0.05 -0.00 2.52 -1.69 13.01 -4.28 0.99 0.22 11971
0.04 -0.00 2.42 -2.19 13.66 -4.28 1.16 0.23 11977
0.04 0.01 2.30 -2.69 14.09 -4.28 1.35 0.23 11983
0.05 -0.00 2.11 -3.30 14.55 -4.28 1.52 0.22 11990
0.04 0.00 1.90 -3.96 15.30 -4.28 1.67 0.21 11997
0.05 0.00 1.49 -4.67 16.01 -4.28 1.78 0.18 12003
0.05 -0.00 1.19 -5.53 16.43 -4.28 1.85 0.16 12009
0.05 0.00 0.94 -6.06 16.71 -4.28 1.89 0.12 12015
0.05 0.00 0.75 -6.43 16.85 -4.28 1.92 0.09 12022
0.03 0.00 0.76 -6.89 16.86 -4.26 1.95 0.08 12028
0.05 0.00 0.81 -7.37 16.66 -4.19 2.03 0.07 12035
0.04 -0.00 0.57 -7.77 16.59 -4.07 2.04 0.07 12041
0.04 0.00 0.24 -8.05 16.96 -3.84 2.04 0.09 12047
0.05 0.00 -0.03 -8.14 17.27 -3.59 1.98 0.13 12054
0.04 -0.00 -0.46 -8.15 17.74 -3.35 1.85 0.18 12060
0.04 0.01 -0.78 -8.25 18.34 -3.13 1.66 0.30 12066
0.04 0.00 -1.11 -8.84 18.81 -2.94 1.43 0.35 12072
0.03 0.00 -1.20 -9.63 19.21 -2.75 1.17 0.44 12080
0.05 -0.00 -1.17 -10.30 19.48 -2.56 0.91 0.53 12086
0.04 -0.00 -0.96 -11.15 19.58 -2.37 0.68 0.61 12092
0.04 0.01 -0.60 -12.07 19.63 -2.19 0.50 0.68 12099
0.04 -0.00 -0.09 -13.09 19.56 -2.03 0.39 0.74 12105
0.04 -0.00 0.29 -14.27 19.54 -1.90 0.34 0.79 12111
0.05 -0.00 0.45 -15.34 19.57 -1.82 0.32 0.82 12118
0.04 -0.00 0.45 -16.23 19.43 -1.82 0.33 0.86 12125
0.04 -0.00 0.55 -16.98 19.16 -1.87 0.37 0.90 12131
0.04 -0.00 0.74 -17.91 18.76 -1.97 0.43 0.94 12137
0.04 -0.00 0.70 -18.58 18.08 -2.12 0.49 0.97 12143
0.05 -0.00 0.71 -19.10 16.52 -2.31 0.59 1.01 12150
0.05 -0.01 0.37 -19.57 14.63 -2.50 0.78 1.10 12156
0.05 -0.00 0.01 -20.05 12.11 -2.68 1.13 1.27 12163
0.04 -0.00 -0.55 -20.85 9.72 -2.80 1.64 1.54 12169
0.03 -0.00 -1.48 -21.70 7.58 -2.83 2.17 1.85 12175
0.05 -0.00 -2.55 -23.00 6.53 -2.74 2.61 2.18 12182
0.04 -0.00 -3.89 -25.21 4.71 -2.60 2.84 2.49 12188
0.04 -0.00 -5.67 -28.10 3.14 -2.39 2.75 2.71 12194
0.04 -0.00 -6.90 -29.60 1.93 -2.04 2.39 2.81 12200
0.04 -0.00 -8.62 -29.55 -0.59 -1.55 1.86 2.81 12207
0.04 0.00 -8.86 -28.17 -1.31 -0.98 1.27 2.69 12214
0.04 -0.00 -11.33 -40.15 1.57 -0.35 0.42 2.41 12220
0.03 -0.00 -10.10 -30.60 6.55 1.89 -0.46 1.88 12226
0.05 -0.00 -10.92 -27.87 -9.07 2.37 -0.92 1.30 12233
0.05 -0.00 -9.15 -32.99 1.59 2.87 -2.01 0.72 12239
0.05 0.01 -8.90 -14.33 5.39 3.25 -2.79 0.16 12246
0.03 0.33 -5.85 5.34 4.58 3.25 -2.96 -0.12 12252
-0.00 0.60 -0.20 -3.01 19.14 3.37 -2.76 -0.16 12259
0.01 0.70 3.59 1.71 20.30 3.29 -1.78 0.05 12265
-0.00 0.74 2.68 -2.72 17.58 3.14 -0.88 0.30 12271
-0.00 0.82 -1.12 -4.35 19.26 3.17 -0.46 0.39 12277
-0.02 0.93 -2.61 -5.09 17.29 3.26 -0.30 0.35 12284
-0.02 0.99 -2.21 -4.10 18.78 3.47 -0.27 0.21 12291
-0.02 1.02 -2.53 -4.07 22.77 3.54 -0.13 0.03 12297
-0.03 1.09 -0.41 -3.23 21.64 3.26 0.11 -0.16 12303
-0.00 1.12 0.92 -3.53 20.00 2.90 0.58 -0.22 12310
-0.02 1.14 1.24 -3.16 18.14 2.58 0.87 -0.26 12316
-0.02 1.13 3.19 -4.17 26.23 1.85 -0.03 -0.21 12322
-0.01 1.17 2.27 -2.47 11.37 0.28 -0.43 0.06 12329
-0.02 1.20 0.41 -1.74 10.72 0.11 -0.30 0.15 12336
-0.01 1.22 0.80 -0.79 10.37 0.17 -0.34 0.10 12342
-0.02 1.25 0.64 -0.33 9.60 0.03 -0.22 0.07 12348
-0.01 1.27 0.92 0.10 9.90 0.02 -0.12 0.10 12354
-0.02 1.26 0.05 -0.10 10.91 0.02 -0.12 0.08 12361
-0.00 1.29 0.63 -1.31 10.24 0.01 -0.06 0.11 12367
0.02 1.31 0.91 -1.29 10.06 0.00 -0.05 0.12 12374
0.04 1.31 0.91 -1.18 9.88 0.00 -0.06 0.11 12380
0.02 1.30 0.89 -1.16 10.03 0.02 -0.06 0.10 12387
0.04 1.33 0.94 -1.12 9.93 0.02 -0.06 0.12 12393
0.05 1.34 0.90 -1.10 10.00 0.01 -0.05 0.11 12399
0.06 1.35 0.93 -1.06 9.92 0.01 -0.04 0.12 12405
0.06 1.35 0.92 -1.05 9.88 0.01 -0.03 0.12 12411
0.05 1.34 0.98 -1.03 9.82 0.01 -0.03 0.12 12419
0.07 1.33 0.97 -0.99 9.83 0.02 -0.04 0.13 12425
0.09 1.30 0.92 -0.99 9.83 0.03 -0.05 0.12 12431
0.08 1.28 0.97 -1.04 9.87 0.04 -0.07 0.13 12437
0.10 1.23 0.90 -0.99 9.85 0.04 -0.09 0.14 12443
0.13 1.18 0.91 -0.97 9.87 0.04 -0.08 0.13 12450
0.11 1.15 0.85 -1.03 9.90 0.04 -0.07 0.14 12456
0.15 1.09 0.84 -1.04 9.91 0.04 -0.05 0.14 12463
0.13 1.06 0.86 -1.02 9.93 0.03 -0.04 0.14 12469
0.12 1.02 0.85 -1.02 9.95 0.02 -0.02 0.15 12475
0.13 0.98 0.83 -0.98 9.92 0.02 -0.01 0.15 12482
0.12 0.96 0.84 -0.99 9.86 0.02 -0.00 0.16 12488
0.11 0.89 0.85 -0.97 9.86 0.02 0.01 0.16 12494
0.15 0.85 0.91 -0.99 9.88 0.03 0.00 0.16 12500
0.14 0.83 0.90 -1.01 9.83 0.03 -0.00 0.16 12507
0.13 0.75 0.94 -0.97 9.83 0.03 -0.01 0.16 12514
0.17 0.72 0.96 -1.01 9.82 0.04 -0.02 0.15 12520
0.18 0.68 0.92 -1.03 9.82 0.05 -0.04 0.15 12526
0.18 0.62 0.94 -1.04 9.84 0.04 -0.05 0.13 12532
0.21 0.54 0.92 -1.08 9.83 0.04 -0.06 0.13 12538
0.23 0.49 0.89 -1.05 9.86 0.05 -0.06 0.14 12546
0.22 0.50 0.90 -1.08 9.88 0.04 -0.07 0.14 12552
0.24 0.47 0.92 -1.05 9.83 0.05 -0.07 0.13 12558
0.22 0.46 0.86 -1.12 9.85 0.05 -0.07 0.14 12564
0.23 0.42 0.90 -1.08 9.89 0.04 -0.08 0.13 12570
0.24 0.34 0.90 -1.05 9.92 0.05 -0.08 0.13 12577
0.24 0.32 0.89 -1.10 9.85 0.05 -0.09 0.13 12583
0.27 0.26 0.92 -1.10 9.85 0.05 -0.09 0.13 12590
0.28 0.26 0.92 -1.08 9.87 0.05 -0.11 0.13 12596
0.29 0.17 0.92 -1.09 9.83 0.05 -0.11 0.11 12602
0.33 0.15 0.92 -1.08 9.83 0.05 -0.12 0.12 12609
0.30 0.14 0.93 -1.11 9.88 0.05 -0.13 0.09 12615
0.34 0.10 0.92 -1.14 9.86 0.05 -0.14 0.10 12621
0.37 0.07 0.96 -1.08 9.87 0.05 -0.15 0.10 12627
0.41 0.09 0.93 -1.14 9.89 0.06 -0.15 0.10 12634
0.43 0.03 0.90 -1.21 9.89 0.06 -0.16 0.08 12641
0.47 0.01 0.86 -1.14 9.90 0.06 -0.16 0.07 12647
0.50 -0.01 0.84 -1.23 9.92 0.06 -0.16 0.07 12653
0.56 -0.01 0.83 -1.19 9.93 0.07 -0.16 0.07 12659
0.58 -0.01 0.81 -1.25 9.87 0.07 -0.15 0.06 12665
0.60 -0.01 0.80 -1.23 9.90 0.07 -0.14 0.06 12673
0.63 -0.02 0.84 -1.81 9.97 0.07 -0.13 0.06 12679
0.67 -0.01 0.79 -1.26 9.91 0.08 -0.13 0.05 12685
0.68 -0.02 0.76 -1.24 9.91 0.08 -0.12 0.05 12691
0.69 -0.03 0.79 -1.22 9.94 0.09 -0.11 0.05 12697
0.74 -0.03 0.85 -1.32 9.93 0.10 -0.11 0.05 12704
0.78 -0.03 0.82 -1.31 9.98 0.10 -0.11 0.04 12710
0.81 -0.02 0.88 -1.30 9.96 0.12 -0.12 0.04 12717
0.83 -0.03 0.91 -1.38 9.99 0.14 -0.14 0.02 12723
0.83 -0.03 0.92 -1.38 10.00 0.15 -0.15 0.01 12729
0.90 -0.02 0.93 -1.39 10.10 0.18 -0.16 -0.01 12736
0.96 -0.03 0.93 -1.46 10.14 0.21 -0.19 -0.02 12742
1.01 -0.03 0.94 -1.44 10.16 0.26 -0.20 -0.04 12748
1.06 -0.04 1.06 -1.58 10.32 0.31 -0.22 -0.07 12755
1.12 -0.03 0.94 -1.63 10.34 0.40 -0.26 -0.10 12762
1.19 -0.03 1.08 -1.66 10.99 0.53 -0.34 -0.11 12768
1.24 -0.05 0.99 -1.73 11.05 0.66 -0.36 -0.13 12774
1.29 -0.04 0.74 -1.94 11.13 0.77 -0.38 -0.13 12781
1.33 -0.04 0.78 -1.90 11.24 0.89 -0.37 -0.13 12787
1.38 -0.04 0.93 -1.31 11.75 0.99 -0.33 -0.14 12793
1.41 -0.03 0.64 -2.03 11.52 1.10 -0.31 -0.13 12800
1.43 -0.04 0.64 -2.03 11.41 1.20 -0.29 -0.12 12807
1.52 -0.05 0.69 -2.11 11.51 1.28 -0.26 -0.12 12813
1.56 -0.05 0.86 -2.33 11.54 1.30 -0.24 -0.12 12819
1.58 -0.05 0.77 -2.11 11.95 1.43 -0.21 -0.11 12826
1.61 -0.05 0.76 -2.39 12.46 1.50 -0.25 -0.11 12832
1.62 -0.05 0.80 -2.35 12.15 1.60 -0.31 -0.12 12838
1.66 -0.05 0.84 -2.67 12.28 1.77 -0.34 -0.14 12845
1.67 -0.05 0.62 -2.64 12.80 1.98 -0.37 -0.16 12852
1.71 -0.06 0.73 -2.78 13.52 2.23 -0.39 -0.16 12858
1.67 -0.06 0.91 -2.99 13.95 2.53 -0.39 -0.18 12864
1.66 -0.05 0.61 -2.97 13.56 2.82 -0.40 -0.21 12871
1.57 -0.06 1.00 -3.08 13.62 3.08 -0.40 -0.24 12877
1.50 -0.04 1.03 -3.43 13.99 3.34 -0.39 -0.28 12883
1.40 -0.04 1.39 -3.68 14.53 3.61 -0.41 -0.33 12890
1.32 -0.04 1.99 -3.95 15.19 3.92 -0.49 -0.41 12897
1.15 -0.03 2.25 -4.02 15.22 4.18 -0.57 -0.53 12903
0.97 -0.04 2.34 -4.40 15.92 4.28 -0.67 -0.63 12909
0.94 -0.01 2.47 -4.78 17.02 4.28 -0.80 -0.75 12915
0.78 -0.00 3.45 -7.05 18.10 4.28 -0.94 -0.85 12922
0.66 0.01 2.82 -6.88 19.67 4.28 -1.07 -0.96 12929
0.60 0.01 2.70 -8.74 22.41 4.28 -1.11 -1.02 12935
0.49 0.01 2.11 -11.04 25.21 4.28 -1.09 -1.03 12942
0.40 0.01 2.04 -13.53 27.19 4.28 -0.93 -0.97 12948
0.33 -0.00 1.43 -14.40 26.44 4.28 -0.79 -0.93 12954
0.29 0.00 0.84 -12.57 25.65 4.28 -0.78 -0.91 12961
0.20 -0.01 0.49 -10.98 23.72 4.28 -0.83 -0.86 12967
0.16 0.00 0.54 -8.32 25.73 4.28 -0.79 -0.78 12974
0.14 0.00 1.64 -5.84 26.75 4.28 -0.75 -0.75 12980
0.08 0.00 2.25 -3.48 26.76 4.28 -0.86 -0.78 12987
0.08 -0.00 3.91 -0.12 26.52 4.28 -1.01 -0.75 12993
0.05 0.00 5.33 3.11 27.19 4.28 -1.16 -0.76 12999
0.06 0.00 6.02 7.83 26.31 4.28 -1.14 -0.78 13005
0.05 -0.00 5.77 11.18 23.93 4.28 -0.85 -0.81 13012
0.06 0.03 4.40 13.10 24.63 4.28 -0.24 -0.89 13019
0.05 -0.01 7.85 9.94 11.98 4.28 -0.24 -1.17 13025
0.04 -0.00 4.26 9.57 -1.00 4.28 -1.01 -1.43 13031
0.06 0.01 3.37 21.58 1.58 1.79 -1.38 -1.49 13038
0.05 0.00 6.62 21.18 24.05 -0.09 -0.65 -1.35 13044
0.05 0.01 6.69 13.63 24.14 -1.29 -0.07 -1.10 13050
0.05 0.01 4.00 9.29 16.69 -2.28 0.13 -0.87 13057
0.05 0.01 2.11 9.85 11.87 -3.10 0.07 -0.62 13064
0.07 0.01 2.58 10.56 10.78 -3.62 -0.02 -0.41 13070
0.05 0.00 2.90 8.46 9.51 -3.92 -0.09 -0.27 13076
0.05 0.01 3.18 5.96 8.60 -4.06 -0.10 -0.18 13082
0.04 0.01 3.18 4.95 7.68 -4.13 -0.01 -0.09 13089
0.04 0.01 3.06 4.82 7.15 -4.16 0.07 -0.01 13095
0.04 0.02 3.17 4.18 6.87 -4.16 0.14 0.04 13102
0.05 0.01 2.94 3.21 6.72 -4.16 0.19 0.06 13108
0.04 0.01 2.98 2.40 7.00 -4.17 0.25 0.07 13114
0.04 0.02 3.08 2.05 7.78 -4.19 0.31 0.07 13121
0.04 0.01 3.00 1.87 8.48 -4.22 0.37 0.08 13127
0.03 0.01 2.97 1.77 8.78 -4.25 0.46 0.10 13133
0.04 0.02 2.94 1.72 9.32 -4.27 0.50 0.14 13139
0.04 0.02 2.89 1.40 9.94 -4.28 0.57 0.18 13146
0.03 0.01 2.87 0.74 10.56 -4.28 0.64 0.21 13153
0.05 0.02 2.76 0.14 11.43 -4.28 0.70 0.24 13159
0.05 0.00 2.60 -0.54 12.04 -4.28 0.76 0.27 13165
0.04 0.01 2.75 -1.17 12.59 -4.28 0.80 0.29 13171
0.04 0.01 2.68 -1.72 12.92 -4.28 0.85 0.29 13178
0.03 0.01 2.82 -2.48 13.55 -4.28 0.94 0.29 13185
0.05 0.00 2.89 -3.24 13.97 -4.28 1.05 0.28 13191
0.04 -0.00 2.91 -4.13 14.26 -4.28 1.20 0.27 13197
0.04 -0.00 2.80 -4.82 14.83 -4.28 1.35 0.25 13204
0.05 0.00 2.62 -5.57 15.46 -4.28 1.48 0.23 13210
0.04 -0.00 2.36 -6.30 15.85 -4.28 1.58 0.20 13216
0.05 0.01 2.10 -6.73 16.10 -4.28 1.64 0.18 13222
0.04 -0.00 1.79 -6.99 16.31 -4.27 1.66 0.15 13229
0.05 0.00 1.66 -7.12 16.50 -4.23 1.65 0.14 13236
0.06 -0.00 1.46 -7.43 16.42 -4.16 1.64 0.14 13242
0.05 -0.00 1.35 -7.82 16.20 -4.02 1.65 0.15 13248
0.05 -0.01 1.21 -8.18 16.26 -3.79 1.65 0.17 13254
0.05 -0.01 0.97 -8.56 16.48 -3.53 1.67 0.20 13261
0.04 -0.00 0.75 -8.77 16.99 -3.29 1.65 0.23 13267
0.05 0.00 0.35 -8.90 17.55 -3.04 1.60 0.27 13274
0.05 -0.00 0.01 -9.08 18.05 -2.83 1.50 0.33 13280
0.04 -0.00 -0.20 -9.37 18.89 -2.67 1.36 0.41 13286
0.05 0.01 -0.51 -9.73 19.63 -2.58 1.22 0.50 13293
0.04 -0.00 -0.46 -10.14 20.04 -2.51 1.03 0.59 13299
0.05 0.00 -0.27 -10.62 19.92 -2.48 0.82 0.70 13305
0.05 0.00 0.10 -11.22 19.41 -2.45 0.62 0.79 13312
0.03 -0.00 1.17 -12.02 18.58 -2.40 0.46 0.89 13319
0.06 -0.00 1.74 -12.95 17.91 -2.32 0.36 0.99 13325
0.04 -0.00 1.66 -14.07 17.50 -2.20 0.30 1.08 13331
0.04 0.00 2.07 -14.99 16.94 -2.08 0.28 1.17 13338
0.05 -0.00 2.23 -15.85 16.74 -1.97 0.29 1.26 13344
0.04 -0.00 2.35 -16.72 16.48 -1.92 0.31 1.36 13350
0.05 -0.00 2.64 -17.42 16.30 -1.92 0.34 1.44 13357
0.03 0.00 3.15 -17.95 15.83 -1.99 0.44 1.52 13364
0.06 -0.00 3.54 -17.83 14.08 -2.12 0.69 1.61 13370
0.04 -0.00 3.13 -17.38 11.84 -2.25 1.21 1.78 13376
0.05 -0.00 1.80 -17.66 9.91 -2.36 2.01 2.07 13383
0.05 -0.00 -0.23 -18.04 9.29 -2.42 2.86 2.45 13389
0.04 -0.00 -3.04 -20.02 9.88 -2.41 3.48 2.83 13395
0.06 -0.01 -4.35 -22.12 9.83 -2.34 3.54 3.10 13402
0.04 -0.00 -6.86 -24.71 7.10 -2.19 3.01 3.19 13408
0.05 -0.00 -8.95 -26.78 4.17 -1.90 2.09 3.17 13415
0.05 -0.01 -10.55 -26.77 0.50 -1.48 1.04 3.07 13421
0.04 -0.00 -9.81 -26.80 -1.81 -0.98 0.10 2.78 13427
0.05 0.00 -8.35 -26.81 -0.97 -0.44 -0.57 2.48 13433
0.05 -0.01 -6.45 -26.40 1.62 0.05 -0.94 2.02 13441
0.04 -0.00 -4.32 -24.46 3.35 0.42 -1.05 1.49 13447
0.06 -0.01 -2.05 -22.19 5.48 0.60 -0.96 0.92 13453
0.04 -0.00 -1.13 -40.52 4.92 0.89 -0.84 0.43 13459
0.05 -0.00 -3.47 -26.58 3.98 2.63 -0.28 0.21 13465
0.06 -0.01 -9.97 -20.36 -4.11 2.81 -0.61 0.23 13472
0.05 0.01 -1.10 3.01 2.19 2.93 -1.55 0.15 13478
0.02 0.41 0.77 1.29 6.58 2.94 -1.85 0.17 13485
0.01 0.62 6.67 3.73 15.14 3.20 -1.03 0.40 13491
-0.02 0.69 4.59 -0.78 11.42 3.19 -0.24 0.69 13498
-0.01 0.76 -0.17 -3.25 16.84 3.32 -0.12 0.78 13504
-0.02 0.78 -3.69 -4.94 18.81 3.29 -0.19 0.69 13510
-0.02 0.84 -3.78 -4.02 16.15 3.29 -0.42 0.47 13516
-0.02 0.91 -3.28 -3.25 15.62 3.38 -0.33 0.28 13523
-0.02 0.95 -3.53 -3.57 18.51 3.55 0.08 0.08 13530
-0.02 1.04 -3.22 -4.06 21.19 3.73 0.55 -0.21 13536
-0.03 1.11 0.90 -3.25 21.45 3.71 1.10 -0.50 13542
-0.00 1.16 7.86 -5.04 42.69 3.28 0.92 -0.66 13549
-0.02 1.24 5.19 -5.01 12.67 0.31 -0.76 -0.06 13555
-0.03 1.31 1.02 -3.21 12.01 0.15 -0.41 0.19 13561
-0.03 1.34 0.38 -1.38 10.65 0.10 -0.41 0.08 13569
-0.02 1.32 1.24 -1.44 10.63 0.03 -0.26 0.05 13575
-0.01 1.33 1.02 -1.58 9.77 0.02 -0.13 0.10 13581
-0.02 1.32 0.97 -1.29 9.41 0.03 -0.12 0.07 13587
-0.01 1.31 1.14 -1.18 9.84 0.03 -0.10 0.09 13593
-0.00 1.31 0.91 -1.42 10.04 0.04 -0.10 0.09 13600
-0.00 1.32 0.85 -1.16 10.10 0.04 -0.07 0.09 13606
0.02 1.32 0.98 -1.14 9.88 0.03 -0.06 0.10 13613
0.03 1.32 0.95 -1.16 10.01 0.04 -0.07 0.10 13619
0.02 1.33 1.01 -1.07 9.88 0.04 -0.08 0.10 13626
0.05 1.31 0.95 -1.08 9.93 0.04 -0.09 0.11 13632
0.04 1.28 0.99 -1.06 9.82 0.05 -0.10 0.10 13638
0.05 1.25 0.92 -1.01 9.89 0.06 -0.12 0.11 13644
0.08 1.23 0.88 -0.97 9.86 0.06 -0.13 0.11 13650
0.07 1.19 0.82 -0.99 9.89 0.07 -0.12 0.11 13658
0.08 1.16 0.89 -1.03 9.86 0.06 -0.10 0.12 13664
0.09 1.10 0.87 -1.03 9.95 0.06 -0.09 0.12 13670
0.09 1.07 0.85 -1.05 9.93 0.06 -0.08 0.14 13676
0.11 0.98 0.80 -1.06 9.92 0.06 -0.08 0.13 13682
0.13 0.94 0.84 -1.08 9.92 0.05 -0.06 0.14 13689
0.13 0.86 0.81 -1.05 9.92 0.05 -0.05 0.14 13696
0.17 0.81 0.83 -1.09 9.92 0.05 -0.04 0.15 13702
0.18 0.74 0.85 -1.03 9.91 0.05 -0.03 0.15 13708
0.19 0.66 0.86 -1.01 9.90 0.05 -0.02 0.15 13714
0.21 0.66 0.86 -1.07 9.85 0.05 -0.02 0.15 13721
0.21 0.57 0.83 -1.11 9.84 0.06 -0.02 0.14 13727
0.21 0.53 0.94 -1.08 9.85 0.06 -0.03 0.13 13733
0.23 0.48 0.93 -1.06 9.87 0.06 -0.04 0.13 13740
0.23 0.39 0.94 -1.08 9.88 0.07 -0.05 0.12 13746
0.23 0.33 0.90 -1.19 9.88 0.07 -0.06 0.11 13753
0.25 0.27 0.88 -1.20 9.86 0.08 -0.07 0.11 13759
0.26 0.20 0.83 -1.14 9.90 0.07 -0.07 0.10 13765
0.23 0.12 0.81 -1.17 9.88 0.07 -0.07 0.10 13771
0.26 0.12 0.84 -1.17 9.88 0.07 -0.07 0.09 13777
0.30 0.06 0.85 -1.17 9.93 0.07 -0.07 0.11 13785
0.31 0.02 0.84 -1.17 9.90 0.07 -0.07 0.09 13791
0.36 0.02 0.84 -1.18 9.83 0.08 -0.07 0.10 13797
0.36 0.00 0.89 -1.22 9.93 0.08 -0.07 0.08 13803
0.36 0.01 0.90 -1.22 9.83 0.08 -0.08 0.09 13809
0.38 0.01 0.92 -1.23 9.82 0.08 -0.09 0.07 13815
0.37 -0.01 0.94 -1.32 9.85 0.08 -0.09 0.06 13822
0.41 -0.00 0.90 -1.31 9.86 0.08 -0.10 0.06 13829
0.43 -0.00 0.94 -1.34 9.85 0.09 -0.10 0.06 13835
0.43 -0.01 0.90 -1.30 9.88 0.08 -0.10 0.04 13841
0.42 -0.01 0.92 -1.31 9.91 0.09 -0.10 0.04 13847
0.44 -0.01 0.92 -1.31 9.91 0.09 -0.11 0.03 13854
0.43 -0.01 0.95 -1.37 9.94 0.10 -0.12 0.02 13860
0.43 -0.01 0.90 -1.37 9.94 0.10 -0.12 0.01 13867
0.49 -0.01 0.87 -1.36 9.89 0.10 -0.12 0.01 13873
0.47 -0.02 0.85 -1.38 9.88 0.10 -0.11 0.01 13879
0.53 -0.01 0.91 -1.35 9.91 0.10 -0.11 0.01 13886
0.55 -0.01 0.80 -1.41 9.89 0.10 -0.11 0.01 13892
0.55 -0.02 0.78 -1.45 9.91 0.10 -0.11 0.01 13898
0.55 -0.01 0.84 -1.46 9.96 0.10 -0.07 0.02 13904
0.55 -0.02 0.86 -1.47 9.90 0.10 -0.10 0.02 13911
0.56 -0.03 0.82 -1.49 9.93 0.11 -0.09 0.02 13918
0.64 -0.02 0.87 -1.43 9.94 0.12 -0.10 0.01 13924
0.63 -0.03 0.88 -1.47 9.99 0.13 -0.11 0.00 13930
0.65 -0.03 0.81 -1.53 10.00 0.15 -0.11 -0.00 13936
0.67 -0.01 0.87 -1.54 10.08 0.16 -0.12 -0.00 13943
0.69 -0.02 0.83 -1.58 10.11 0.19 -0.13 -0.01 13949
0.72 -0.03 0.87 -1.59 10.15 0.22 -0.15 -0.02 13956
0.79 -0.03 0.98 -1.62 10.20 0.26 -0.18 -0.03 13962
0.80 -0.03 1.05 -1.71 10.37 0.31 -0.21 -0.05 13969
0.86 -0.02 1.00 -1.78 10.33 0.38 -0.24 -0.07 13975
0.96 -0.03 1.06 -1.84 10.53 0.44 -0.26 -0.09 13981
1.00 -0.03 1.07 -1.71 10.73 0.52 -0.29 -0.11 13987
1.06 -0.03 1.09 -1.78 10.97 0.62 -0.32 -0.13 13995
1.14 -0.03 1.04 -1.85 10.50 0.71 -0.35 -0.16 14001
1.22 -0.04 0.95 -1.91 11.11 0.80 -0.37 -0.17 14007
1.26 -0.05 0.80 -1.90 11.39 0.89 -0.36 -0.18 14013
1.29 -0.04 0.68 -2.08 11.20 0.97 -0.36 -0.19 14020
1.36 -0.05 0.83 -2.20 11.36 1.06 -0.35 -0.19 14026
1.40 -0.04 0.88 -2.12 11.59 1.14 -0.35 -0.20 14032
1.48 -0.05 0.62 -2.20 11.55 1.21 -0.34 -0.20 14040
1.54 -0.05 0.52 -1.76 12.02 1.30 -0.36 -0.20 14046
1.59 -0.05 0.70 -2.40 11.98 1.38 -0.41 -0.20 14052
1.59 -0.07 0.53 -2.41 11.84 1.45 -0.43 -0.20 14058
1.64 -0.04 0.50 -2.64 11.98 1.58 -0.43 -0.20 14065
1.67 -0.06 0.53 -2.74 11.73 1.77 -0.44 -0.20 14071
1.64 -0.05 0.53 -2.89 12.68 1.98 -0.41 -0.20 14077
1.65 -0.02 0.63 -2.90 13.61 2.23 -0.41 -0.20 14084
1.60 -0.03 0.53 -3.09 13.97 2.54 -0.40 -0.22 14091
1.56 -0.02 0.57 -3.23 14.13 2.85 -0.37 -0.23 14097
1.49 -0.03 0.66 -3.35 14.62 3.16 -0.34 -0.25 14103
1.38 -0.01 0.37 -3.48 14.66 3.47 -0.35 -0.29 14110
1.20 0.00 1.43 -3.79 15.11 3.80 -0.36 -0.38 14116
1.10 -0.02 1.60 -3.97 14.84 4.12 -0.35 -0.45 14123
0.95 -0.03 1.68 -4.04 16.42 4.27 -0.36 -0.53 14129
0.79 -0.03 1.52 -4.52 16.75 4.28 -0.39 -0.60 14136
0.65 -0.02 1.55 -5.60 18.89 4.28 -0.43 -0.64 14142
0.56 -0.02 2.02 -6.92 20.72 4.28 -0.48 -0.68 14148
0.46 -0.01 2.34 -8.65 23.01 4.28 -0.49 -0.70 14154
0.39 -0.02 2.25 -11.41 26.14 4.28 -0.28 -0.64 14161
0.33 0.00 1.15 -13.18 27.70 4.28 0.02 -0.51 14168
0.27 -0.01 -0.13 -12.40 25.85 4.28 0.21 -0.44 14174
0.22 -0.02 -1.17 -10.94 25.49 4.28 0.27 -0.34 14181
0.14 -0.01 -1.63 -11.07 26.13 4.28 0.29 -0.17 14187
0.11 -0.01 -1.57 -10.28 28.71 4.28 0.24 -0.13 14193
0.09 -0.01 -0.70 -7.96 31.02 4.28 -0.07 -0.23 14200
0.08 -0.01 0.97 -3.94 30.48 4.28 -0.50 -0.33 14206
0.06 -0.01 2.62 -0.33 29.68 4.28 -0.93 -0.36 14213
0.08 -0.01 4.55 5.92 28.85 4.28 -1.26 -0.38 14219
0.06 -0.01 4.62 11.05 26.21 4.28 -1.37 -0.41 14225
0.05 -0.00 3.24 12.72 22.99 4.28 -1.17 -0.43 14232
0.05 -0.00 0.72 11.91 13.76 4.28 -0.67 -0.56 14238
0.04 -0.00 6.38 10.70 0.94 4.28 -1.61 -1.02 14244
0.05 0.00 5.12 11.03 -2.41 3.88 -2.49 -1.32 14251
0.04 0.00 3.48 24.73 11.39 1.26 -2.25 -1.41 14258
0.05 0.00 8.45 19.04 24.54 -0.09 -1.17 -1.26 14264
0.06 -0.01 7.48 11.55 20.68 -1.09 -0.38 -1.17 14270
0.05 0.01 4.96 9.38 16.05 -1.96 -0.04 -1.22 14277
0.05 0.00 3.21 11.33 11.61 -2.67 0.14 -1.17 14283
0.04 0.00 2.84 11.66 9.38 -3.16 0.28 -1.01 14289
0.05 -0.00 2.82 9.43 7.97 -3.47 0.34 -0.94 14296
0.04 -0.00 2.42 6.68 8.06 -3.67 0.33 -0.86 14302
0.04 -0.00 1.45 5.36 7.79 -3.81 0.25 -0.78 14309
0.06 -0.00 1.92 4.82 7.56 -3.87 0.11 -0.69 14315
0.04 -0.00 1.34 4.39 6.99 -3.90 -0.13 -0.60 14321
0.04 0.00 1.43 3.30 6.72 -3.92 -0.40 -0.54 14327
0.05 -0.00 1.75 2.70 6.82 -4.00 -0.66 -0.48 14333
0.04 -0.00 2.37 2.53 7.35 -4.03 -0.86 -0.41 14341
0.04 0.00 2.87 2.58 8.21 -4.11 -0.98 -0.33 14347
0.06 -0.01 3.56 2.36 9.35 -4.17 -1.04 -0.26 14353
0.04 -0.00 4.36 2.02 9.86 -4.23 -1.01 -0.17 14359
0.03 -0.00 4.80 1.35 10.21 -4.27 -0.91 -0.13 14365
0.05 -0.00 5.25 0.94 10.48 -4.28 -0.75 -0.05 14372
0.04 -0.00 5.50 0.29 11.00 -4.28 -0.58 0.02 14379
0.04 0.00 5.69 -0.51 11.43 -4.28 -0.42 0.07 14385
0.05 0.00 5.85 -1.47 12.20 -4.28 -0.24 0.13 14391
0.04 0.01 5.85 -2.17 12.77 -4.28 -0.07 0.19 14397
0.04 0.01 5.91 -2.89 13.23 -4.28 0.09 0.27 14404
0.04 -0.00 5.83 -3.34 13.75 -4.28 0.23 0.35 14410
0.03 0.00 5.90 -3.76 13.94 -4.28 0.33 0.42 14416
0.04 -0.00 5.91 -4.56 14.41 -4.28 0.40 0.48 14423
0.04 -0.00 6.10 -5.48 15.04 -4.28 0.46 0.53 14430
0.04 0.00 6.21 -6.48 15.96 -4.28 0.51 0.56 14436
0.05 0.00 6.43 -7.70 16.47 -4.28 0.55 0.58 14442
0.03 -0.00 6.70 -8.39 16.71 -4.28 0.61 0.58 14448
0.03 0.00 7.21 -8.70 17.06 -4.28 0.70 0.58 14455
0.04 -0.00 7.53 -9.03 17.36 -4.28 0.83 0.59 14461
0.04 -0.00 7.76 -9.43 17.58 -4.27 0.99 0.62 14468
0.05 -0.01 7.84 -9.96 18.15 -4.23 1.16 0.68 14474
0.04 -0.00 7.93 -10.45 18.87 -4.14 1.33 0.78 14480
0.04 0.00 7.78 -11.04 19.41 -4.02 1.46 0.90 14487
0.04 -0.00 7.68 -11.58 19.92 -3.87 1.56 1.07 14493
0.03 -0.00 7.49 -11.95 20.40 -3.74 1.58 1.28 14499
0.05 -0.00 7.21 -12.39 20.78 -3.62 1.58 1.51 14507
0.04 -0.00 7.06 -12.97 20.78 -3.52 1.48 1.73 14513
0.05 -0.00 6.90 -13.56 20.50 -3.43 1.38 1.93 14519
0.04 -0.00 6.79 -14.05 19.78 -3.32 1.26 2.09 14525
0.03 0.00 6.64 -14.59 19.11 -3.18 1.18 2.20 14532
0.04 0.00 6.38 -15.14 18.23 -3.00 1.15 2.24 14538
0.03 0.01 6.00 -15.53 17.43 -2.71 1.15 2.24 14544
0.04 -0.00 5.55 -15.89 16.61 -2.49 1.18 2.18 14552
0.02 -0.00 5.16 -16.11 15.92 -2.18 1.26 2.11 14558
0.04 -0.00 4.57 -16.21 15.98 -1.95 1.35 2.04 14564
0.03 -0.00 3.91 -16.53 16.25 -1.78 1.42 1.96 14570
0.04 -0.00 3.54 -16.81 16.51 -1.67 1.51 1.88 14577
0.04 -0.00 3.05 -17.06 16.66 -1.67 1.64 1.82 14583
0.04 -0.00 2.60 -17.40 16.07 -1.76 1.78 1.77 14589
0.05 -0.00 1.98 -17.72 14.90 -1.90 1.89 1.74 14596
0.04 -0.00 1.17 -18.48 13.46 -2.03 1.99 1.72 14603
0.04 0.00 0.40 -19.20 11.49 -2.12 2.06 1.73 14609
0.04 -0.00 -0.44 -19.85 9.23 -2.11 2.10 1.75 14615
0.03 -0.00 -1.98 -20.74 6.35 -1.97 2.19 1.82 14621
0.06 -0.01 -3.93 -21.31 3.64 -1.69 2.46 1.99 14628
0.04 -0.00 -5.80 -22.65 2.93 -1.25 2.86 2.27 14635
0.05 0.00 -7.74 -25.08 3.52 -0.77 2.96 2.50 14641
0.05 -0.01 -11.37 -25.99 3.19 -0.35 2.50 2.51 14647
0.03 -0.00 -11.00 -24.87 3.54 -0.04 1.47 2.33 14654
0.05 -0.00 -10.92 -22.36 4.00 0.18 0.34 2.10 14660
0.04 -0.00 -9.38 -21.11 4.93 0.36 -0.51 1.87 14666
0.05 -0.00 -7.69 -29.32 1.47 0.54 -1.02 1.64 14672
0.04 -0.00 -4.45 -28.76 17.52 2.84 -1.30 1.35 14680
0.03 -0.00 -8.67 -22.11 -6.08 2.70 -1.10 1.10 14686
0.05 0.00 -6.72 -30.43 0.74 2.91 -1.59 1.00 14692
0.05 0.02 -2.76 -4.40 3.02 3.43 -1.80 0.98 14698
0.01 0.52 -2.57 -0.39 6.31 3.41 -1.44 1.00 14704
0.00 0.68 2.77 -1.24 20.31 3.65 -1.12 1.08 14711
-0.00 0.76 0.71 -0.88 17.66 3.38 -0.36 1.23 14717
-0.01 0.87 -4.08 -3.04 20.78 3.28 0.02 1.19 14724
-0.02 0.90 -9.84 -5.21 21.43 3.15 -0.03 0.87 14730
-0.03 0.96 -9.66 -4.50 19.10 3.17 -0.27 0.31 14737
-0.03 1.03 -5.01 -4.72 22.54 3.21 -0.32 -0.20 14743
-0.03 1.06 -0.59 -2.94 20.80 3.06 0.03 -0.49 14749
-0.03 1.11 2.54 -2.65 17.83 2.78 0.68 -0.52 14756
-0.03 1.16 1.62 -2.14 16.60 2.57 1.16 -0.48 14763
-0.04 1.20 1.80 -2.32 16.98 2.42 1.16 -0.58 14769
-0.04 1.24 6.44 -3.38 18.03 1.17 -0.09 -0.50 14775
-0.03 1.25 3.66 -3.77 12.26 0.25 -0.32 -0.03 14782
-0.01 1.25 1.27 -1.56 10.05 0.13 -0.27 0.10 14788
-0.03 1.24 0.74 -1.36 10.31 0.14 -0.32 0.07 14794
-0.01 1.24 1.44 -1.06 10.16 0.06 -0.17 0.07 14801
-0.01 1.23 1.42 -1.12 9.60 0.01 -0.08 0.09 14808
-0.01 1.24 1.83 -0.51 9.52 0.02 -0.11 0.07 14814
-0.01 1.22 1.18 -1.34 10.15 0.06 -0.15 0.08 14820
-0.01 1.21 1.05 -0.97 9.87 0.07 -0.16 0.08 14826
0.00 1.20 1.09 -1.01 9.83 0.08 -0.16 0.08 14833
0.02 1.18 1.09 -1.00 9.92 0.08 -0.17 0.09 14839
0.02 1.16 1.05 -0.94 9.97 0.10 -0.19 0.08 14845
0.06 1.14 1.15 -0.89 9.84 0.10 -0.19 0.10 14852
0.07 1.09 1.03 -0.92 9.88 0.10 -0.19 0.11 14858
0.05 1.04 0.95 -0.91 9.91 0.09 -0.16 0.13 14865
0.09 0.99 0.97 -0.92 9.86 0.09 -0.15 0.14 14871
0.12 0.91 0.93 -0.94 9.90 0.08 -0.15 0.15 14877
0.14 0.87 0.90 -0.84 9.91 0.08 -0.14 0.15 14883
0.20 0.80 0.88 -0.95 10.02 0.07 -0.13 0.18 14889
0.21 0.73 0.86 -0.91 9.90 0.07 -0.11 0.17 14897
0.22 0.68 0.86 -0.93 9.94 0.07 -0.10 0.18 14903
0.25 0.62 0.91 -0.95 9.86 0.07 -0.08 0.18 14909
0.26 0.59 0.90 -0.96 9.87 0.07 -0.08 0.18 14915
0.30 0.51 0.90 -0.96 9.86 0.07 -0.08 0.17 14921
0.31 0.46 0.94 -0.92 9.94 0.08 -0.08 0.17 14928
0.34 0.40 0.97 -0.96 9.90 0.08 -0.09 0.16 14935
0.34 0.34 0.92 -0.97 9.88 0.09 -0.10 0.16 14941
0.38 0.22 1.00 -1.05 9.90 0.09 -0.10 0.15 14947
0.42 0.14 0.94 -1.06 9.91 0.09 -0.11 0.13 14953
0.43 0.11 0.89 -1.05 9.88 0.10 -0.11 0.12 14960
0.47 0.03 0.95 -1.04 9.97 0.11 -0.13 0.12 14966
0.47 -0.01 0.96 -1.14 10.00 0.12 -0.14 0.11 14972
0.51 -0.01 0.98 -1.01 10.15 0.14 -0.15 0.10 14979
0.54 -0.03 0.93 -1.18 9.98 0.15 -0.17 0.08 14986
0.57 -0.01 0.97 -1.23 10.01 0.18 -0.19 0.06 14992
0.61 -0.02 0.90 -1.25 9.98 0.21 -0.23 0.04 14998
0.64 -0.04 1.00 -1.32 10.11 0.25 -0.25 0.00 15004
0.70 -0.03 0.92 -1.36 10.14 0.27 -0.24 -0.01 15011
0.70 -0.03 1.02 -1.42 10.08 0.30 -0.25 -0.02 15017
0.71 -0.02 1.07 -1.53 10.12 0.33 -0.27 -0.03 15024
0.74 -0.03 1.00 -1.48 10.13 0.35 -0.30 -0.05 15030
0.77 -0.03 1.02 -1.52 10.04 0.36 -0.26 -0.05 15037
0.81 -0.02 0.93 -1.55 9.98 0.36 -0.25 -0.06 15043
0.82 -0.02 0.84 -1.52 10.02 0.37 -0.26 -0.07 15049
0.85 -0.02 0.93 -1.63 9.97 0.37 -0.25 -0.07 15055
0.88 -0.02 0.83 -1.60 9.97 0.37 -0.23 -0.06 15063
0.90 -0.03 0.81 -1.71 9.87 0.36 -0.21 -0.06 15069
0.92 -0.02 0.81 -1.67 9.87 0.36 -0.19 -0.06 15075
0.95 -0.03 0.81 -1.74 10.04 0.35 -0.18 -0.06 15081
0.92 -0.03 0.86 -1.72 9.89 0.35 -0.17 -0.06 15087
0.98 -0.03 0.81 -1.76 9.89 0.34 -0.15 -0.05 15094
1.00 -0.03 0.86 -1.79 9.84 0.33 -0.14 -0.05 15100
0.98 -0.02 0.80 -1.88 9.90 0.31 -0.14 -0.05 15107
1.02 -0.03 0.82 -1.86 9.85 0.31 -0.13 -0.06 15113
1.04 -0.04 0.79 -1.92 9.82 0.30 -0.13 -0.05 15119
1.09 -0.03 0.87 -1.95 9.83 0.29 -0.13 -0.06 15126
1.14 -0.03 0.92 -1.94 9.90 0.28 -0.15 -0.06 15132
1.18 -0.03 0.82 -1.99 10.00 0.29 -0.15 -0.06 15138
1.23 -0.03 0.82 -2.00 9.94 0.30 -0.16 -0.07 15144
1.26 -0.04 0.80 -2.04 9.84 0.31 -0.16 -0.07 15152
1.27 -0.04 0.71 -2.08 9.90 0.32 -0.15 -0.07 15158
1.30 -0.03 0.78 -2.10 10.00 0.32 -0.15 -0.07 15164
1.34 -0.04 0.79 -2.11 10.18 0.34 -0.14 -0.07 15170
1.34 -0.02 0.75 -2.13 10.19 0.36 -0.13 -0.07 15177
1.39 -0.04 0.80 -2.16 10.12 0.39 -0.12 -0.07 15183
1.44 -0.04 0.68 -2.27 10.33 0.42 -0.12 -0.07 15190
1.48 -0.06 0.78 -2.28 10.33 0.45 -0.12 -0.08 15196
1.51 -0.05 0.80 -2.34 10.42 0.48 -0.12 -0.08 15203
1.53 -0.05 0.90 -2.37 10.59 0.52 -0.14 -0.09 15209
1.55 -0.05 0.81 -2.49 10.65 0.57 -0.16 -0.10 15215
1.60 -0.04 0.79 -2.43 10.66 0.63 -0.18 -0.11 15222
1.62 -0.04 0.75 -2.31 10.88 0.68 -0.20 -0.11 15228
1.66 -0.04 0.68 -2.38 10.89 0.73 -0.22 -0.11 15235
1.73 -0.05 0.83 -2.66 11.13 0.80 -0.23 -0.11 15241
1.78 -0.06 0.80 -2.56 11.41 0.89 -0.25 -0.12 15248
1.82 -0.05 0.68 -2.65 11.60 1.02 -0.29 -0.13 15254
1.87 -0.07 0.68 -2.80 11.88 1.16 -0.32 -0.14 15260
1.86 -0.07 0.61 -2.78 12.20 1.33 -0.34 -0.15 15266
1.88 -0.07 0.56 -2.93 12.48 1.55 -0.36 -0.14 15273
1.85 -0.07 0.52 -3.08 12.86 1.77 -0.36 -0.15 15280
1.87 -0.06 0.57 -3.07 13.02 2.04 -0.36 -0.15 15286
1.85 -0.07 0.58 -3.32 13.05 2.23 -0.37 -0.17 15293
1.82 -0.06 0.68 -3.44 13.03 2.44 -0.37 -0.19 15299
1.76 -0.06 0.80 -3.49 13.11 2.66 -0.38 -0.22 15305
1.74 -0.07 0.89 -3.54 13.63 2.89 -0.40 -0.25 15311
1.66 -0.05 1.48 -3.80 13.87 3.16 -0.46 -0.29 15319
1.54 -0.06 1.67 -4.08 13.86 3.45 -0.54 -0.37 15325
1.42 -0.05 2.09 -4.30 14.29 3.73 -0.60 -0.48 15331
1.27 -0.04 1.84 -4.21 14.63 4.04 -0.72 -0.60 15338
1.11 -0.02 1.73 -4.86 16.29 4.24 -0.84 -0.70 15344
1.00 -0.03 2.10 -5.76 17.33 4.28 -0.97 -0.79 15350
0.80 -0.04 2.63 -6.03 18.04 4.28 -1.17 -0.91 15356
0.74 -0.03 2.67 -8.18 19.93 4.28 -1.27 -1.00 15364
0.58 -0.02 2.56 -10.14 23.27 4.28 -1.33 -1.07 15370
0.53 -0.02 2.14 -12.73 26.26 4.28 -1.24 -1.08 15376
0.42 -0.02 1.43 -14.84 26.88 4.28 -1.06 -1.05 15383
0.36 -0.02 0.82 -14.27 25.99 4.28 -0.94 -1.02 15389
0.28 -0.02 -0.59 -12.05 22.75 4.28 -0.99 -0.99 15395
0.23 -0.02 -0.76 -9.66 23.84 4.28 -1.07 -0.90 15403
0.19 -0.02 0.11 -8.11 26.56 4.28 -1.19 -0.83 15409
0.13 -0.01 1.62 -6.56 27.86 4.28 -1.38 -0.83 15415
0.12 -0.01 3.87 -3.77 27.82 4.28 -1.66 -0.85 15421
0.05 0.00 5.41 -1.00 27.45 4.28 -1.86 -0.80 15427
0.07 0.00 6.13 3.72 27.98 4.28 -2.01 -0.80 15434
0.06 -0.01 6.51 8.28 26.39 4.28 -1.99 -0.75 15440
0.05 -0.00 6.32 10.83 26.96 4.28 -1.76 -0.74 15447
0.05 -0.00 6.76 20.35 27.69 4.28 -1.45 -0.92 15453
0.04 -0.00 5.61 17.20 -3.11 4.28 -2.25 -1.03 15460
0.04 0.00 6.77 18.61 -8.79 2.62 -2.60 -0.94 15466
0.03 -0.00 7.43 22.95 19.22 0.09 -2.03 -0.74 15472
0.04 -0.00 9.58 17.00 29.48 -1.18 -1.11 -0.51 15478
0.06 -0.01 7.15 10.87 21.06 -2.11 -0.48 -0.28 15485
0.04 -0.00 5.03 9.61 13.87 -3.03 -0.22 -0.05 15492
0.05 0.00 3.46 11.70 11.05 -3.70 -0.15 0.12 15498
0.05 -0.01 3.87 10.85 9.60 -4.07 -0.10 0.23 15504
0.04 -0.00 3.86 7.80 8.67 -4.14 -0.09 0.28 15511
