Voltage_01 Voltage_02 Acc_x Acc_y Acc_z Gyro_x Gyro_y Gyro_z Time
5000
1.21 -0.04 1.34 -4.48 16.62 4.28 -0.73 -0.52 23
1.09 -0.06 1.67 -5.19 17.75 4.28 -0.82 -0.55 29
0.98 -0.05 1.99 -6.51 19.53 4.28 -0.85 -0.60 35
0.87 -0.04 2.02 -7.76 20.56 4.28 -0.84 -0.65 41
0.73 -0.04 2.44 -9.92 22.62 4.28 -0.81 -0.66 49
0.57 -0.04 2.16 -12.26 24.85 4.28 -0.62 -0.64 55
0.52 -0.02 2.71 -12.98 24.87 4.28 -0.27 -0.59 61
0.45 -0.03 2.59 -11.65 23.16 4.28 0.01 -0.58 67
0.39 -0.02 2.18 -9.69 21.46 4.28 0.14 -0.62 73
0.27 -0.01 2.59 -7.80 21.58 4.28 0.30 -0.65 79
0.23 -0.01 1.43 -6.32 22.58 4.28 0.35 -0.72 86
0.17 -0.01 0.29 -5.20 24.24 4.28 0.14 -0.82 93
0.16 -0.02 0.25 -3.82 24.18 4.28 -0.25 -0.90 99
0.17 -0.02 1.63 -2.13 23.92 4.28 -0.73 -0.96 105
0.16 -0.02 3.11 -0.54 24.65 4.28 -1.11 -0.99 111
0.10 -0.01 4.66 2.04 23.85 4.28 -1.21 -0.97 117
0.09 -0.01 6.53 6.41 19.86 4.28 -1.10 -0.91 123
0.07 -0.00 8.62 10.75 17.33 4.27 -0.90 -0.95 130
0.07 -0.01 9.37 14.74 9.07 3.73 -0.47 -1.08 136
0.08 -0.01 6.11 23.34 -4.83 2.49 -0.11 -1.53 142
0.07 -0.01 5.27 17.43 6.61 1.58 0.20 -1.91 149
0.09 -0.00 7.27 10.05 23.61 0.53 1.00 -1.91 155
0.05 -0.01 7.01 9.25 22.91 -1.02 1.60 -1.81 161
0.05 -0.00 4.00 10.27 16.03 -1.98 1.76 -1.78 167
0.05 -0.00 2.12 10.74 11.43 -2.50 1.59 -1.68 174
0.05 -0.01 1.42 9.74 9.44 -3.01 1.27 -1.55 180
0.04 -0.00 1.42 8.13 8.64 -3.48 0.98 -1.34 186
0.03 -0.00 1.51 6.58 8.00 -3.71 0.75 -1.15 192
0.03 0.00 1.89 5.13 7.65 -3.84 0.57 -0.99 199
0.04 -0.00 2.11 4.14 7.49 -3.91 0.44 -0.82 205
0.05 -0.01 2.21 3.37 7.31 -3.94 0.30 -0.70 211
0.05 -0.00 2.42 2.86 7.07 -3.94 0.20 -0.56 218
0.05 -0.01 2.91 2.50 7.08 -3.93 0.14 -0.44 224
0.06 -0.00 3.31 2.24 7.32 -3.94 0.10 -0.34 230
0.05 -0.01 3.73 2.17 7.75 -3.98 0.10 -0.24 236
0.05 -0.00 4.01 2.10 8.11 -4.04 0.13 -0.17 242
0.04 -0.00 4.18 2.12 8.65 -4.10 0.22 -0.07 248
0.05 -0.00 4.26 1.92 9.18 -4.15 0.34 0.03 254
0.04 -0.00 4.27 1.51 9.73 -4.20 0.51 0.13 261
0.05 -0.00 4.17 1.07 10.32 -4.25 0.65 0.25 267
0.04 -0.00 4.11 0.48 10.76 -4.28 0.83 0.31 273
0.04 -0.00 3.89 -0.01 11.66 -4.28 0.99 0.39 279
0.04 -0.00 3.62 -0.51 12.58 -4.28 1.13 0.45 285
0.05 -0.01 3.35 -1.02 13.27 -4.28 1.28 0.49 292
0.04 -0.00 3.13 -1.79 13.50 -4.28 1.43 0.50 299
0.05 -0.00 2.99 -2.42 13.44 -4.28 1.51 0.49 305
0.04 -0.00 2.76 -3.33 13.33 -4.28 1.62 0.45 311
0.06 -0.01 2.52 -4.48 13.55 -4.28 1.72 0.40 317
0.04 -0.00 2.25 -5.71 14.27 -4.28 1.81 0.33 323
0.04 -0.00 2.09 -6.76 14.49 -4.28 1.91 0.25 329
0.04 -0.00 2.43 -7.54 15.08 -4.23 1.99 0.17 335
0.05 -0.00 1.66 -7.76 15.58 -4.08 2.05 0.11 342
0.04 -0.00 1.41 -7.79 16.52 -3.86 2.09 0.08 348
0.04 -0.00 0.94 -7.48 16.28 -3.67 2.08 0.10 355
0.04 0.00 0.47 -7.19 16.95 -3.54 2.03 0.15 361
0.05 -0.00 0.18 -6.97 17.89 -3.46 1.98 0.24 367
0.04 -0.00 0.02 -6.78 18.77 -3.42 1.90 0.37 373
0.04 -0.00 -0.01 -6.58 19.60 -3.38 1.84 0.51 379
0.04 -0.00 0.04 -6.36 19.96 -3.38 1.74 0.66 386
0.06 -0.01 -0.07 -6.38 20.46 -3.40 1.66 0.78 392
0.05 -0.00 0.00 -6.56 20.69 -3.44 1.58 0.93 398
0.04 -0.00 0.10 -7.09 20.53 -3.49 1.50 1.03 404
0.04 0.00 0.20 -7.67 19.98 -3.52 1.45 1.11 410
0.04 0.01 0.28 -8.47 19.32 -3.51 1.42 1.15 417
0.04 -0.00 0.48 -9.21 18.78 -3.45 1.41 1.14 423
0.04 -0.00 0.34 -9.99 18.22 -3.31 1.41 1.11 430
0.04 0.00 0.36 -10.67 17.56 -3.11 1.39 1.05 436
0.05 -0.00 0.20 -11.37 16.95 -2.86 1.33 0.97 442
0.04 -0.00 -4.11 -22.49 24.34 -2.30 0.97 0.94 448
0.05 -0.00 1.44 -8.32 6.90 -1.66 0.80 0.91 454
0.05 0.00 -2.08 -9.25 8.97 -2.00 0.46 0.82 461
0.06 -0.00 -2.30 -11.83 15.29 -1.93 0.25 0.82 467
0.07 -0.01 -3.11 -12.59 19.77 -1.85 0.10 0.96 474
0.06 -0.00 -1.21 -12.02 16.74 -1.73 0.35 1.08 480
0.05 -0.01 -1.64 -12.56 16.05 -1.66 0.59 1.20 486
0.06 -0.01 -2.43 -13.09 14.48 -1.62 0.87 1.35 492
0.06 -0.01 -3.40 -13.48 13.35 -1.68 1.20 1.52 499
0.06 -0.01 -4.16 -15.03 12.44 -1.81 1.32 1.63 505
0.05 -0.01 -5.01 -16.73 10.90 -1.93 1.18 1.66 512
0.06 -0.01 -5.78 -17.97 9.39 -1.97 1.00 1.66 518
0.07 -0.01 -5.87 -19.72 7.34 -1.90 0.84 1.63 524
0.06 -0.01 -6.48 -20.87 5.64 -1.70 0.79 1.58 530
0.05 -0.00 -7.01 -22.10 4.50 -1.37 0.70 1.50 536
0.05 -0.01 -7.28 -22.86 3.71 -0.98 0.51 1.34 542
0.06 -0.01 -7.14 -22.95 3.33 -0.57 0.24 1.11 549
0.05 -0.01 -6.74 -23.71 3.44 -0.17 -0.05 0.84 556
0.05 -0.00 -9.06 -27.42 40.53 1.05 -0.44 0.54 562
0.06 -0.00 -5.85 -23.18 0.72 1.54 -0.30 0.35 568
0.05 -0.01 -5.15 -20.59 4.41 2.07 -0.55 0.07 574
0.05 -0.00 -5.13 -22.54 5.13 2.26 -0.96 -0.06 580
0.04 0.00 -5.34 -24.95 6.53 2.48 -1.44 -0.12 586
0.04 0.07 -3.37 -16.94 6.39 2.64 -1.88 -0.07 593
0.04 0.16 1.06 0.94 4.00 2.65 -1.93 -0.07 600
0.03 0.24 2.83 0.00 10.68 2.87 -1.58 0.07 606
0.03 0.43 5.01 4.18 20.07 3.14 -0.74 0.38 612
0.02 0.64 1.51 1.74 18.22 3.11 -0.46 0.57 618
0.01 0.82 -4.49 -2.17 17.04 3.19 -0.66 0.44 624
0.00 0.96 -4.62 -2.56 17.96 3.27 -1.01 0.11 630
0.01 1.04 -1.74 -3.14 14.78 3.33 -1.15 -0.07 637
-0.00 1.09 0.19 -3.12 15.11 3.50 -0.94 -0.15 644
-0.01 1.15 0.22 -2.75 18.16 3.46 -0.74 -0.20 650
0.01 1.15 0.62 -2.53 19.05 3.23 -0.69 -0.29 656
0.01 1.12 3.96 -4.01 26.26 3.10 -0.99 -0.35 662
-0.02 1.14 2.53 -1.57 16.61 0.86 -1.47 -0.10 668
0.01 1.23 1.03 -3.48 12.33 0.26 -0.59 0.15 675
0.00 1.26 -0.08 -2.13 10.99 0.05 -0.14 0.17 681
-0.00 1.24 -0.24 -1.00 10.56 -0.01 -0.05 0.13 688
-0.00 1.26 0.26 -0.84 10.12 -0.03 -0.01 0.08 694
0.03 1.20 0.72 -1.01 10.03 -0.04 0.00 0.07 700
0.01 1.22 0.97 -1.23 10.07 -0.05 0.01 0.09 706
-0.00 1.31 0.72 -1.15 10.08 -0.05 -0.01 0.09 712
-0.00 1.32 0.54 -0.89 10.10 -0.04 -0.01 0.09 719
-0.00 1.36 0.64 -0.87 10.00 -0.04 -0.00 0.08 726
0.02 1.39 0.82 -0.91 9.96 -0.03 -0.00 0.08 732
0.04 1.37 0.81 -0.91 9.91 -0.03 -0.00 0.08 738
0.05 1.34 0.76 -0.83 9.98 -0.03 -0.00 0.08 744
0.04 1.34 0.79 -0.80 10.08 -0.02 -0.01 0.07 750
0.05 1.29 0.75 -0.83 9.99 -0.02 -0.01 0.07 756
0.04 1.26 0.71 -0.86 10.01 -0.02 -0.01 0.07 762
0.08 1.22 0.73 -0.89 9.99 -0.01 -0.00 0.07 769
0.08 1.16 0.75 -0.83 10.00 -0.01 -0.00 0.07 776
0.09 1.13 0.77 -0.88 10.02 -0.00 0.00 0.07 782
0.09 1.09 0.73 -0.87 9.94 0.00 -0.00 0.07 788
0.12 1.06 0.81 -0.86 9.93 0.00 0.00 0.07 794
0.11 0.94 0.44 -0.43 9.65 0.00 0.01 0.08 800
0.10 0.89 0.78 -0.86 9.98 0.01 0.00 0.07 806
0.13 0.84 0.78 -0.86 10.02 0.02 -0.00 0.07 813
0.15 0.83 0.79 -0.83 10.00 0.02 0.00 0.07 819
0.16 0.75 0.80 -0.83 9.95 0.03 -0.00 0.07 825
0.17 0.67 0.79 -0.86 9.92 0.03 0.00 0.07 831
0.17 0.55 0.82 -0.86 9.95 0.03 -0.00 0.06 837
0.20 0.54 0.82 -0.87 9.97 0.03 -0.00 0.06 844
0.22 0.52 0.84 -0.89 9.99 0.03 -0.01 0.05 850
0.22 0.44 0.82 -0.86 9.98 0.03 -0.01 0.05 857
0.22 0.40 0.81 -0.91 9.99 0.03 -0.01 0.05 863
0.23 0.37 0.80 -0.90 9.92 0.02 -0.01 0.05 869
0.25 0.32 0.79 -0.86 9.97 0.02 -0.01 0.05 875
0.25 0.33 0.81 -0.86 9.98 0.03 -0.00 0.05 881
0.25 0.24 0.79 -0.88 9.94 0.03 -0.01 0.05 887
0.26 0.22 0.79 -0.89 9.97 0.03 -0.00 0.05 893
0.28 0.20 0.76 -0.91 9.96 0.03 -0.00 0.05 900
0.29 0.15 0.79 -0.91 9.96 0.03 -0.00 0.05 906
0.29 0.12 0.84 -0.93 10.00 0.03 -0.00 0.05 912
0.29 0.10 0.82 -0.90 9.95 0.03 -0.00 0.05 918
0.30 0.08 0.85 -0.88 9.96 0.03 -0.00 0.05 925
0.34 0.05 0.89 -0.91 9.95 0.03 0.00 0.05 931
0.36 0.04 0.89 -0.92 9.92 0.03 -0.00 0.05 937
0.37 0.04 0.86 -0.93 9.95 0.04 -0.00 0.04 944
0.39 0.02 0.87 -0.93 10.01 0.03 0.00 0.04 950
0.42 0.03 0.93 -0.96 9.99 0.03 -0.00 0.04 956
0.44 -0.00 0.91 -0.92 10.00 0.03 -0.00 0.04 962
0.42 -0.02 0.93 -1.40 9.99 0.04 -0.00 0.04 968
0.41 -0.02 0.87 -0.98 10.07 0.03 -0.01 0.04 974
0.45 -0.01 0.91 -1.28 9.98 0.04 -0.01 0.04 980
0.49 -0.02 0.86 -0.94 9.98 0.04 -0.01 0.03 987
0.51 -0.03 0.88 -0.98 9.99 0.04 -0.01 0.06 994
0.50 -0.04 0.91 -0.97 9.98 0.05 -0.02 0.03 1000
0.49 -0.02 0.91 -0.97 9.96 0.05 -0.02 0.02 1006
0.51 -0.03 0.91 -1.01 9.98 0.06 -0.02 0.02 1012
0.55 -0.05 0.97 -1.01 10.00 0.07 -0.03 0.01 1018
0.59 -0.03 0.91 -1.01 10.07 0.08 -0.03 -0.00 1025
0.61 -0.03 0.90 -1.09 9.99 0.09 -0.02 -0.01 1031
0.66 -0.05 0.94 -1.00 10.04 0.10 -0.02 -0.02 1038
0.70 -0.04 0.92 -1.01 9.99 0.12 -0.01 -0.03 1044
0.76 -0.04 0.95 -1.11 10.02 0.14 0.01 -0.04 1050
0.79 -0.06 0.95 -1.08 10.07 0.16 0.02 -0.04 1056
0.79 -0.04 0.82 -1.08 10.19 0.20 0.05 -0.05 1062
0.86 -0.05 0.90 -1.14 10.25 0.24 0.07 -0.05 1070
0.88 -0.06 0.99 -1.19 10.25 0.30 0.11 -0.05 1076
0.93 -0.05 1.04 -1.24 10.30 0.39 0.13 -0.05 1082
0.95 -0.05 0.94 -1.26 10.53 0.50 0.17 -0.05 1088
0.99 -0.06 1.03 -1.29 10.64 0.65 0.20 -0.05 1094
1.07 -0.05 1.08 -1.37 10.81 0.82 0.21 -0.05 1101
1.09 -0.06 1.08 -1.42 11.31 0.94 0.19 -0.07 1107
1.15 -0.07 1.19 -1.51 11.34 1.09 0.13 -0.07 1114
1.20 -0.05 1.27 -1.63 11.40 1.23 0.05 -0.09 1120
1.21 -0.05 1.22 -1.65 11.81 1.34 -0.06 -0.10 1126
1.28 -0.05 1.12 -1.75 12.09 1.48 -0.10 -0.10 1133
1.35 -0.05 1.14 -1.82 12.13 1.62 -0.19 -0.10 1139
1.41 -0.06 1.16 -2.05 12.47 1.79 -0.20 -0.10 1145
1.43 -0.04 1.00 -2.08 12.38 1.94 -0.22 -0.10 1152
1.46 -0.05 0.92 -2.13 12.30 2.09 -0.22 -0.10 1159
1.45 -0.06 1.05 -2.24 12.63 2.28 -0.22 -0.10 1165
1.48 -0.04 1.25 -2.45 12.55 2.46 -0.19 -0.13 1171
1.48 -0.05 1.26 -2.46 13.25 2.65 -0.15 -0.11 1177
1.50 -0.05 1.11 -2.46 12.78 2.84 -0.13 -0.12 1183
1.49 -0.06 1.54 -2.78 13.17 3.07 -0.05 -0.14 1190
1.44 -0.06 1.59 -2.97 13.12 3.34 -0.04 -0.19 1197
1.44 -0.03 1.50 -3.02 14.17 3.62 -0.02 -0.24 1203
1.38 -0.02 1.10 -2.71 14.16 3.94 -0.01 -0.29 1209
1.31 -0.06 0.71 -3.30 15.32 4.20 0.00 -0.29 1216
1.14 -0.04 1.12 -3.61 16.05 4.28 -0.03 -0.29 1222
1.08 -0.05 1.92 -4.05 17.22 4.28 -0.09 -0.33 1228
0.92 -0.04 2.92 -5.13 18.72 4.28 -0.18 -0.41 1234
0.79 -0.04 2.85 -6.47 20.92 4.28 -0.30 -0.51 1242
0.72 -0.05 2.69 -7.73 23.13 4.28 -0.38 -0.57 1248
0.66 -0.04 3.12 -11.19 26.79 4.28 -0.44 -0.59 1254
0.56 -0.05 3.49 -14.36 31.20 4.28 -0.23 -0.55 1260
0.52 -0.03 4.04 -15.13 29.76 4.28 0.03 -0.49 1267
0.42 -0.03 3.31 -13.05 28.80 4.28 0.20 -0.49 1273
0.33 -0.02 2.53 -11.65 27.88 4.28 0.31 -0.50 1280
0.24 -0.01 2.25 -9.01 26.36 4.28 0.34 -0.54 1286
0.26 -0.03 0.64 -6.57 28.11 4.28 0.24 -0.68 1293
0.18 -0.02 1.28 -5.00 30.16 4.28 -0.17 -0.83 1299
0.18 -0.02 3.45 -2.62 29.95 4.28 -0.73 -0.94 1305
0.14 -0.01 6.57 0.33 32.05 4.28 -1.13 -0.98 1311
0.09 -0.01 7.87 4.82 32.72 4.28 -1.08 -0.96 1317
0.09 -0.00 8.67 9.35 29.24 4.28 -0.76 -0.90 1324
0.08 -0.01 12.21 17.73 23.08 4.28 -0.22 -0.93 1331
0.08 -0.01 10.42 21.45 12.18 4.15 0.68 -1.29 1337
0.07 -0.01 8.89 25.61 -11.38 2.63 1.17 -2.12 1343
0.05 -0.01 5.47 22.33 19.77 1.16 1.19 -2.60 1349
0.06 -0.00 7.25 15.71 31.83 -0.77 2.03 -2.56 1356
0.04 -0.00 5.08 13.44 27.36 -2.52 2.48 -2.45 1362
0.05 -0.01 1.33 13.23 18.35 -3.46 2.25 -2.39 1369
0.07 -0.01 -0.91 12.24 14.32 -4.01 1.65 -2.24 1375
0.06 -0.01 -0.55 10.19 12.18 -4.27 1.10 -1.99 1382
0.05 -0.00 -0.03 8.10 10.21 -4.28 0.69 -1.73 1388
0.04 -0.00 0.70 6.41 8.73 -4.28 0.39 -1.51 1394
0.04 -0.00 1.42 4.77 8.21 -4.28 0.15 -1.34 1400
0.04 -0.00 1.71 3.47 8.11 -4.28 -0.02 -1.19 1406
0.05 0.00 1.94 2.59 7.97 -4.28 -0.11 -1.05 1413
0.05 -0.01 2.67 2.12 7.82 -4.28 -0.15 -0.92 1419
0.04 -0.00 3.41 1.96 7.59 -4.28 -0.11 -0.83 1426
0.04 -0.00 3.85 2.11 7.42 -4.28 -0.02 -0.74 1432
0.05 -0.01 3.91 2.26 7.59 -4.28 0.12 -0.65 1438
0.05 -0.01 3.94 2.17 8.05 -4.28 0.29 -0.55 1444
0.04 -0.00 3.92 1.83 8.70 -4.28 0.48 -0.45 1451
0.06 -0.00 3.77 1.32 9.64 -4.28 0.68 -0.33 1457
0.04 -0.00 3.41 0.98 10.54 -4.28 0.82 -0.20 1463
0.04 -0.00 2.97 0.69 11.09 -4.28 0.96 -0.08 1469
0.04 -0.00 2.62 0.47 11.67 -4.28 1.07 0.06 1476
0.06 -0.01 2.48 0.15 12.25 -4.28 1.17 0.18 1482
0.04 -0.00 2.37 -0.12 13.06 -4.28 1.26 0.27 1488
0.03 -0.00 2.35 -0.48 13.95 -4.28 1.37 0.34 1495
0.05 -0.00 2.49 -1.10 14.79 -4.28 1.52 0.35 1501
0.04 -0.00 2.65 -1.94 15.65 -4.28 1.70 0.33 1507
0.05 -0.00 2.35 -3.00 16.54 -4.28 1.89 0.28 1514
0.05 -0.00 1.93 -3.93 17.12 -4.28 2.06 0.22 1520
0.05 -0.00 1.48 -5.04 17.68 -4.28 2.26 0.16 1526
0.04 -0.00 0.84 -5.92 17.95 -4.28 2.40 0.11 1532
0.05 -0.01 0.23 -6.38 18.33 -4.28 2.48 0.08 1539
0.06 -0.01 -0.25 -6.48 18.76 -4.28 2.49 0.08 1545
0.04 -0.00 -0.79 -6.70 19.22 -4.27 2.47 0.11 1552
0.05 -0.00 -1.22 -7.06 19.64 -4.24 2.40 0.16 1558
0.06 -0.01 -1.35 -7.37 19.95 -4.20 2.30 0.22 1564
0.04 -0.00 -1.47 -7.90 19.99 -4.11 2.17 0.30 1570
0.04 -0.00 -1.61 -8.48 19.94 -4.00 2.03 0.39 1576
0.04 0.00 -1.68 -9.36 19.91 -3.82 1.86 0.46 1583
0.04 -0.00 -1.44 -10.15 20.23 -3.61 1.67 0.52 1590
0.04 -0.00 -1.20 -10.95 20.66 -3.40 1.46 0.57 1596
0.05 -0.01 -0.84 -11.76 20.71 -3.22 1.24 0.61 1602
0.05 -0.01 -0.33 -12.35 20.40 -3.09 1.04 0.63 1608
0.04 -0.00 0.23 -12.88 19.96 -2.99 0.89 0.65 1614
0.05 -0.00 0.92 -13.46 19.39 -2.91 0.79 0.68 1622
0.04 -0.00 1.32 -14.02 19.07 -2.82 0.80 0.74 1628
0.04 -0.00 1.69 -14.52 19.06 -2.73 0.93 0.85 1634
0.05 -0.00 1.50 -14.79 19.10 -2.66 1.18 0.99 1640
0.04 -0.00 0.59 -14.78 18.24 -2.63 1.53 1.18 1646
0.05 0.00 -1.13 -14.11 17.10 -2.62 2.01 1.45 1653
0.05 -0.01 -3.37 -14.51 17.33 -2.64 2.57 1.81 1659
0.04 -0.00 -5.88 -16.54 17.79 -2.65 2.82 2.16 1666
0.05 -0.01 -8.06 -18.69 17.42 -2.63 2.52 2.48 1672
0.04 -0.00 -9.45 -20.73 14.68 -2.55 1.75 2.71 1679
0.04 -0.00 -8.61 -22.49 11.51 -2.42 0.70 2.84 1685
0.05 -0.01 -7.50 -23.20 7.86 -2.25 -0.29 2.84 1691
0.05 -0.00 -5.56 -24.17 5.32 -2.00 -0.82 2.71 1697
0.04 -0.00 -3.89 -25.69 4.47 -1.65 -1.06 2.52 1703
0.05 -0.01 -2.56 -26.84 4.49 -1.24 -0.91 2.28 1711
0.04 -0.00 -1.68 -27.19 4.55 -0.81 -0.53 1.94 1717
0.04 -0.00 -1.39 -26.50 4.24 -0.43 -0.07 1.54 1723
0.05 -0.01 -1.80 -24.89 4.43 -0.14 0.36 1.14 1729
0.04 -0.00 -2.25 -24.64 4.80 0.11 0.65 0.79 1735
0.04 -0.00 -8.40 -31.71 58.54 2.36 0.92 0.54 1741
0.05 -0.01 -6.24 -19.98 5.04 2.16 1.14 0.50 1748
0.04 -0.00 -4.96 -17.65 3.85 2.48 0.81 0.39 1755
0.04 0.02 -5.69 -25.26 3.94 2.39 -0.17 0.30 1761
0.05 0.07 -5.60 -27.15 2.02 2.41 -1.28 0.24 1767
0.04 0.20 -1.57 -1.73 -1.94 2.45 -1.91 0.17 1773
0.03 0.33 2.21 -2.77 7.18 3.05 -1.57 0.23 1779
0.03 0.64 4.92 2.90 22.05 4.09 -0.83 0.39 1786
0.02 0.95 0.76 1.59 23.76 4.28 -0.78 0.50 1793
-0.00 1.30 -4.37 -3.51 22.88 4.28 -1.14 0.27 1799
0.00 1.43 -1.54 -6.08 24.12 4.28 -1.25 0.01 1805
-0.02 1.55 -0.35 -5.90 22.90 4.28 -0.79 -0.03 1812
-0.01 1.56 -2.36 -4.02 22.05 4.25 -0.39 -0.16 1818
-0.00 1.61 -0.64 -3.05 21.77 4.10 -0.58 -0.47 1824
-0.03 1.55 4.27 -5.54 47.68 3.36 -2.15 -0.68 1830
-0.01 1.55 4.94 -3.85 14.49 0.84 -1.80 -0.16 1838
-0.02 1.50 0.55 -3.72 13.11 0.37 -0.95 0.14 1844
-0.02 1.51 -0.15 -1.62 11.24 0.15 -0.43 0.22 1850
0.02 1.44 -0.47 -0.48 10.66 0.04 -0.16 0.13 1856
0.03 1.38 0.47 -0.63 10.30 0.00 -0.08 0.07 1862
0.05 1.34 1.22 -1.16 10.04 -0.01 -0.07 0.08 1869
0.10 1.33 1.04 -1.13 10.04 -0.01 -0.07 0.10 1875
0.06 1.26 0.46 -0.73 10.08 -0.01 -0.08 0.10 1882
0.09 1.23 0.50 -0.97 10.21 -0.02 -0.08 0.08 1888
0.11 1.19 1.00 -0.89 10.00 -0.03 -0.07 0.07 1894
0.12 1.15 0.95 -0.81 9.94 -0.02 -0.08 0.04 1901
0.16 1.11 0.65 -0.71 10.02 -0.01 -0.07 0.05 1907
0.15 1.08 0.78 -0.79 10.13 -0.01 -0.05 0.05 1913
0.16 1.02 1.27 -1.15 10.18 0.00 -0.03 0.05 1920
0.19 0.99 0.78 -0.71 10.10 0.01 -0.01 0.04 1926
0.22 0.87 0.83 -0.76 10.05 0.02 -0.01 0.04 1933
0.23 0.80 0.81 -0.69 10.01 0.03 -0.01 0.04 1939
0.31 0.71 0.77 -0.73 10.09 0.04 -0.00 0.05 1945
0.32 0.61 0.82 -0.76 10.06 0.04 -0.00 0.05 1951
0.31 0.56 0.80 -0.73 10.08 0.05 0.01 0.05 1957
0.35 0.48 1.15 -1.13 10.26 0.06 0.01 0.05 1965
0.36 0.38 0.84 -0.78 10.05 0.07 0.01 0.05 1971
0.38 0.31 0.86 -0.75 10.00 0.08 0.02 0.05 1977
0.41 0.30 0.84 -0.79 10.06 0.08 0.02 0.04 1983
0.41 0.20 0.85 -0.78 10.00 0.08 0.02 0.04 1989
0.40 0.13 0.87 -0.87 9.98 0.08 0.02 0.03 1995
0.44 0.14 0.97 -0.91 10.07 0.08 0.02 0.03 2002
0.42 0.06 0.86 -0.92 10.01 0.09 0.02 0.03 2009
0.44 0.02 0.95 -0.90 10.05 0.08 0.02 0.02 2015
0.45 -0.00 0.89 -0.86 9.99 0.09 0.01 0.02 2021
0.50 -0.01 0.89 -0.91 9.93 0.09 0.00 0.02 2027
0.53 -0.01 0.85 -0.76 9.94 0.10 0.03 0.02 2033
0.51 -0.03 0.95 -0.82 10.06 0.10 -0.00 0.02 2039
0.54 -0.02 0.82 -1.02 9.95 0.11 -0.01 0.02 2046
0.57 -0.03 0.91 -0.94 10.05 0.12 -0.01 0.02 2053
0.56 -0.02 0.90 -0.93 10.04 0.13 -0.02 0.02 2059
0.58 -0.03 0.97 -0.95 10.05 0.14 -0.02 0.00 2065
0.59 -0.03 1.00 -0.95 10.08 0.16 -0.02 -0.01 2071
0.61 -0.03 0.95 -1.06 10.12 0.19 -0.03 -0.02 2078
0.65 -0.03 1.06 -1.02 10.15 0.21 -0.03 -0.04 2084
0.65 -0.04 1.03 -1.07 9.98 0.24 -0.04 -0.06 2091
0.71 -0.04 1.03 -1.10 10.05 0.25 -0.04 -0.07 2097
0.72 -0.04 1.05 -1.10 9.96 0.29 -0.04 -0.09 2103
0.75 -0.05 0.97 -1.26 9.87 0.30 -0.04 -0.09 2109
0.77 -0.04 0.97 -1.16 10.06 0.32 -0.04 -0.10 2116
0.86 -0.04 0.89 -1.15 9.84 0.31 -0.05 -0.11 2122
0.89 -0.05 0.89 -1.22 9.84 0.30 -0.06 -0.10 2128
0.88 -0.04 0.89 -1.26 9.86 0.28 -0.06 -0.10 2135
0.87 -0.04 0.84 -1.06 9.79 0.25 -0.07 -0.10 2141
0.92 -0.04 0.86 -1.21 9.92 0.22 -0.06 -0.08 2147
0.93 -0.05 0.88 -1.23 9.93 0.21 -0.06 -0.08 2154
0.99 -0.04 0.96 -1.31 10.01 0.20 -0.06 -0.08 2160
1.02 -0.05 1.00 -1.35 10.05 0.20 -0.06 -0.07 2166
1.03 -0.05 0.94 -1.36 10.03 0.21 -0.06 -0.08 2172
1.04 -0.04 0.93 -1.33 10.02 0.22 -0.07 -0.08 2179
1.09 -0.06 0.92 -1.42 10.03 0.23 -0.08 -0.08 2186
1.11 -0.06 0.86 -1.37 9.97 0.24 -0.08 -0.07 2192
1.14 -0.06 0.86 -1.44 9.92 0.24 -0.08 -0.06 2198
1.21 -0.05 0.84 -1.43 10.08 0.24 -0.08 -0.05 2204
1.24 -0.07 0.86 -1.39 10.07 0.26 -0.09 -0.05 2210
1.30 -0.05 0.86 -1.51 10.15 0.27 -0.08 -0.04 2217
1.34 -0.06 0.90 -1.51 10.27 0.31 -0.09 -0.04 2224
1.34 -0.06 1.00 -1.53 10.38 0.35 -0.09 -0.04 2230
1.41 -0.05 1.04 -1.65 10.57 0.42 -0.09 -0.05 2236
1.46 -0.08 1.05 -1.64 10.74 0.51 -0.10 -0.07 2243
1.49 -0.06 1.01 -1.77 10.89 0.60 -0.12 -0.08 2249
1.54 -0.06 1.05 -1.74 10.88 0.69 -0.13 -0.09 2255
1.59 -0.06 0.99 -1.76 11.01 0.79 -0.15 -0.10 2262
1.63 -0.06 0.92 -1.84 11.19 0.90 -0.17 -0.11 2268
1.69 -0.07 0.83 -1.88 11.30 0.97 -0.18 -0.11 2275
1.74 -0.06 0.84 -1.90 11.58 1.07 -0.21 -0.10 2281
1.80 -0.07 0.82 -1.94 11.70 1.17 -0.23 -0.10 2287
1.84 -0.08 0.87 -2.01 11.82 1.31 -0.26 -0.10 2293
1.87 -0.06 0.73 -2.30 12.32 1.45 -0.30 -0.09 2300
1.89 -0.07 0.77 -2.11 12.65 1.63 -0.32 -0.09 2307
1.92 -0.07 0.88 -2.42 12.98 1.81 -0.32 -0.09 2313
1.94 -0.06 0.88 -2.39 12.23 2.01 -0.32 -0.09 2319
1.97 -0.06 0.77 -1.98 12.77 2.18 -0.32 -0.10 2325
1.94 -0.06 0.81 -2.54 12.71 2.37 -0.30 -0.10 2332
1.91 -0.06 0.66 -2.76 13.16 2.58 -0.31 -0.12 2338
1.91 -0.07 0.79 -2.80 13.43 2.81 -0.31 -0.13 2344
1.88 -0.04 0.87 -3.10 13.27 3.07 -0.30 -0.15 2351
1.84 -0.04 0.72 -2.97 13.97 3.37 -0.33 -0.18 2358
1.81 -0.05 0.57 -3.07 14.12 3.64 -0.31 -0.18 2364
1.68 -0.02 0.48 -3.18 14.92 3.96 -0.33 -0.21 2370
1.57 -0.04 2.06 -3.73 14.88 4.22 -0.43 -0.25 2376
1.39 -0.05 2.84 -4.16 15.92 4.28 -0.52 -0.37 2383
1.25 -0.06 2.74 -4.52 17.16 4.28 -0.63 -0.52 2390
1.11 -0.06 2.42 -5.72 18.53 4.28 -0.77 -0.64 2396
1.00 -0.03 3.27 -6.30 20.55 4.28 -0.85 -0.79 2402
0.89 -0.04 2.77 -9.63 24.65 4.28 -0.92 -0.84 2409
0.78 -0.03 2.18 -12.62 27.43 4.28 -0.91 -0.87 2415
0.68 -0.03 3.24 -13.78 30.94 4.28 -0.66 -0.85 2421
0.59 -0.04 3.70 -15.33 29.38 4.28 -0.26 -0.79 2427
0.42 -0.03 3.15 -13.56 26.99 4.28 0.07 -0.80 2435
0.35 -0.03 1.92 -10.11 25.90 4.28 0.41 -0.83 2441
0.30 -0.02 0.42 -6.95 28.02 4.28 0.51 -0.84 2447
0.25 -0.03 0.05 -5.28 30.98 4.28 0.20 -0.90 2453
0.16 -0.02 1.31 -3.64 31.56 4.28 -0.36 -1.02 2459
0.16 -0.01 4.19 -0.65 31.64 4.28 -0.94 -1.12 2466
0.13 -0.01 6.33 2.76 30.99 4.28 -1.23 -1.14 2472
0.12 -0.01 9.02 11.71 25.61 4.28 -1.17 -1.08 2479
0.08 -0.01 10.40 16.12 19.50 4.28 -0.83 -1.12 2485
0.05 -0.00 9.49 18.26 9.93 4.11 -0.30 -1.40 2492
0.03 -0.00 8.57 21.91 -8.77 3.04 0.11 -2.08 2498
0.04 0.00 6.38 19.88 16.39 1.93 0.33 -2.47 2504
0.04 -0.00 8.99 14.42 30.15 0.24 1.31 -2.47 2510
0.06 -0.01 7.35 12.75 25.83 -1.51 1.89 -2.33 2516
0.05 -0.00 3.63 13.44 19.08 -2.50 1.84 -2.19 2524
0.05 -0.01 1.62 12.84 13.76 -3.13 1.39 -1.96 2530
0.05 0.01 1.56 11.09 13.47 -3.75 0.94 -1.63 2536
0.05 -0.00 1.45 9.29 10.41 -4.14 0.63 -1.32 2542
0.04 0.01 2.43 7.53 9.19 -4.24 0.40 -1.06 2548
0.04 0.02 2.91 5.94 8.68 -4.26 0.23 -0.84 2555
0.05 -0.00 2.91 4.81 8.22 -4.26 0.11 -0.64 2562
0.05 -0.00 3.12 3.99 7.63 -4.26 0.07 -0.45 2568
0.05 -0.00 3.56 3.23 7.33 -4.24 0.07 -0.31 2574
0.06 -0.00 4.00 2.77 7.07 -4.22 0.08 -0.21 2580
0.06 -0.00 4.15 2.50 7.19 -4.21 0.11 -0.11 2586
0.06 -0.01 4.23 2.41 7.41 -4.21 0.17 -0.06 2592
0.06 0.01 4.36 2.16 7.79 -4.21 0.27 0.02 2599
0.05 -0.00 4.38 1.96 8.44 -4.21 0.39 0.10 2606
0.05 -0.00 4.26 1.64 9.13 -4.22 0.56 0.20 2612
0.05 -0.00 4.14 1.30 10.26 -4.23 0.76 0.31 2618
0.07 0.00 3.88 1.13 11.09 -4.26 0.96 0.42 2624
0.05 -0.01 3.25 0.90 11.99 -4.28 1.09 0.51 2630
0.04 -0.00 2.99 0.28 12.79 -4.28 1.17 0.58 2636
0.06 -0.01 2.52 -0.24 13.04 -4.28 1.22 0.62 2643
0.05 -0.01 2.57 -0.77 13.10 -4.28 1.32 0.67 2650
0.04 -0.00 2.64 -1.80 13.43 -4.28 1.37 0.68 2656
0.05 -0.00 2.52 -2.37 13.74 -4.28 1.41 0.66 2662
0.05 -0.00 2.43 -3.25 14.57 -4.28 1.52 0.61 2668
0.04 -0.00 2.37 -4.14 15.56 -4.28 1.67 0.56 2675
0.05 -0.00 2.02 -5.09 15.97 -4.28 1.81 0.49 2681
0.05 -0.00 1.56 -5.82 16.68 -4.28 1.93 0.41 2688
0.04 -0.00 0.71 -6.19 16.90 -4.28 2.02 0.34 2694
0.05 0.01 0.93 -6.23 17.24 -4.28 2.03 0.30 2700
0.05 -0.01 0.61 -6.10 17.50 -4.25 1.99 0.29 2706
0.04 -0.00 0.43 -5.96 17.82 -4.21 1.94 0.31 2713
0.06 0.01 0.41 -5.94 18.13 -4.14 1.86 0.40 2719
0.05 -0.00 0.28 -6.13 19.28 -4.06 1.79 0.42 2725
0.04 -0.00 0.17 -6.69 20.03 -3.96 1.73 0.48 2732
0.05 0.00 -0.06 -7.23 20.47 -3.84 1.70 0.55 2738
0.05 -0.00 -0.23 -7.85 21.18 -3.74 1.68 0.61 2745
0.04 -0.00 -0.48 -8.60 21.78 -3.66 1.64 0.66 2751
0.04 -0.00 -0.63 -9.47 22.00 -3.60 1.57 0.69 2757
0.05 -0.01 -0.80 -10.21 21.62 -3.54 1.47 0.71 2763
0.04 -0.00 -0.90 -11.07 21.63 -3.48 1.40 0.71 2769
0.04 -0.00 -0.74 -11.67 21.20 -3.41 1.33 0.71 2776
0.04 -0.00 -0.70 -12.35 21.02 -3.32 1.26 0.70 2783
0.04 -0.00 -0.70 -13.08 20.37 -3.21 1.20 0.67 2789
0.05 -0.00 -0.53 -14.47 18.40 -3.06 1.14 0.60 2795
0.05 -0.01 -5.33 -20.00 35.19 -2.29 1.11 0.65 2801
0.04 -0.00 -1.38 -12.46 11.99 -2.27 1.04 0.64 2807
0.06 -0.00 -2.18 -12.44 8.36 -2.40 0.93 0.60 2814
0.05 -0.01 -2.38 -16.52 16.10 -2.32 1.05 0.73 2821
0.05 -0.00 -3.16 -18.22 17.24 -2.13 1.36 0.96 2827
0.07 -0.01 -4.10 -18.90 16.41 -1.81 1.82 1.19 2833
0.05 -0.01 -5.73 -20.03 14.24 -1.61 2.20 1.41 2840
0.06 -0.01 -7.69 -21.07 12.07 -1.56 2.11 1.57 2846
0.06 -0.01 -9.24 -22.96 10.36 -1.58 1.64 1.68 2852
0.05 -0.00 -10.55 -24.82 8.25 -1.61 1.07 1.77 2859
0.06 0.01 -9.06 -25.34 6.58 -1.59 0.60 1.81 2865
0.06 -0.01 -8.15 -26.56 5.75 -1.46 0.30 1.77 2872
0.05 -0.00 -7.60 -27.55 4.42 -1.21 0.16 1.66 2878
0.06 0.01 -6.60 -27.53 4.01 -0.91 0.07 1.48 2884
0.06 -0.01 -4.54 -45.31 15.00 -0.40 -0.02 1.23 2890
0.04 0.00 -2.92 -26.35 -7.40 1.57 0.38 0.99 2896
0.05 -0.00 -5.73 -27.67 -1.24 1.64 0.47 0.76 2904
0.05 -0.00 -6.56 -25.93 -1.22 2.34 -0.08 0.56 2910
0.04 0.04 -7.50 -30.23 2.53 2.50 -1.01 0.39 2916
0.06 0.16 -8.44 -27.17 -0.39 2.63 -2.09 0.21 2922
0.05 0.27 -4.83 -0.81 1.62 2.89 -2.48 0.15 2928
0.02 0.49 -1.38 -4.31 16.09 3.60 -1.88 0.20 2935
0.03 0.81 4.12 3.34 29.82 4.28 -1.08 0.36 2941
0.01 1.12 -3.05 -1.70 23.33 4.28 -1.08 0.34 2948
-0.01 1.27 -5.12 -4.11 25.32 4.27 -1.38 0.03 2954
0.01 1.37 -1.01 -4.48 21.73 4.17 -1.29 -0.15 2961
-0.01 1.45 0.25 -5.82 21.03 4.09 -0.80 -0.12 2967
0.02 1.43 -0.33 -2.73 20.60 3.89 -0.39 -0.13 2973
0.00 1.44 0.55 -2.49 23.34 3.64 -0.49 -0.30 2979
-0.01 1.46 2.05 -1.53 25.20 1.78 -1.81 -0.34 2985
0.01 1.44 2.72 -2.51 12.03 0.40 -0.90 0.03 2993
0.01 1.43 0.65 -2.53 11.32 0.14 -0.44 0.17 2999
0.04 1.40 0.15 -1.24 10.60 0.04 -0.18 0.19 3005
0.04 1.33 0.01 -0.71 9.96 -0.01 -0.07 0.11 3011
0.05 1.31 0.63 -0.90 10.12 -0.04 -0.06 0.06 3017
0.02 1.35 1.07 -1.24 10.25 -0.05 -0.05 0.08 3024
0.06 1.37 0.91 -1.23 9.96 -0.06 -0.07 0.09 3031
0.09 1.35 0.54 -0.94 10.07 -0.05 -0.08 0.09 3037
0.08 1.37 0.65 -0.86 10.06 -0.06 -0.07 0.08 3043
0.09 1.39 0.82 -0.88 9.97 -0.05 -0.07 0.06 3049
0.04 1.38 0.85 -0.79 10.13 -0.05 -0.07 0.07 3056
0.05 1.40 0.73 -0.71 9.97 -0.04 -0.06 0.06 3062
0.04 1.39 0.76 -0.74 10.03 -0.03 -0.06 0.06 3068
0.09 1.32 0.83 -0.73 9.98 -0.03 -0.06 0.05 3075
0.10 1.29 0.63 -0.76 10.18 -0.02 -0.06 0.05 3081
0.11 1.22 0.78 -0.75 10.02 -0.01 -0.06 0.05 3087
0.12 1.14 0.77 -0.76 10.08 -0.01 -0.06 0.05 3094
0.11 1.10 0.77 -0.72 10.02 -0.00 -0.06 0.04 3100
0.11 1.04 0.77 -0.74 10.09 0.01 -0.05 0.04 3106
0.14 0.95 0.46 -0.41 9.98 0.01 -0.05 0.04 3112
0.15 0.94 0.79 -0.78 9.98 0.01 -0.05 0.04 3119
0.19 0.83 0.78 -0.77 10.00 0.02 -0.05 0.04 3126
0.17 0.79 0.79 -0.72 10.03 0.02 -0.04 0.04 3132
0.17 0.72 0.82 -0.75 10.04 0.02 -0.04 0.04 3138
0.19 0.67 0.84 -0.79 9.96 0.01 -0.05 0.04 3144
0.19 0.57 0.80 -0.78 9.98 0.02 -0.04 0.04 3150
0.19 0.59 0.82 -0.77 9.98 0.02 -0.04 0.04 3156
0.21 0.51 0.82 -0.81 9.96 0.02 -0.05 0.04 3164
0.23 0.48 0.85 -0.78 9.97 0.02 -0.05 0.03 3170
0.22 0.43 0.84 -0.79 9.97 0.01 -0.05 0.03 3176
0.23 0.44 0.86 -0.80 9.99 0.02 -0.05 0.03 3182
0.24 0.39 0.83 -0.77 10.02 0.01 -0.05 0.02 3188
0.27 0.31 0.82 -0.77 10.00 0.02 -0.05 0.02 3194
0.26 0.31 0.81 -0.83 10.01 0.02 -0.05 0.02 3202
0.30 0.29 0.82 -0.81 10.02 0.02 -0.05 0.02 3208
0.33 0.23 0.79 -0.79 9.95 0.01 -0.06 0.01 3214
0.33 0.23 0.78 -0.84 9.98 0.02 -0.06 0.02 3220
0.39 0.20 0.79 -0.83 10.05 0.02 -0.06 0.02 3226
0.44 0.19 0.78 -0.83 9.98 0.02 -0.06 0.01 3232
0.46 0.15 0.80 -0.83 9.99 0.02 -0.06 0.01 3238
0.51 0.12 0.78 -0.84 10.01 0.02 -0.06 0.00 3246
0.54 0.14 0.83 -0.84 9.98 0.02 -0.07 0.00 3252
0.55 0.11 0.80 -0.86 10.01 0.02 -0.07 0.00 3258
0.61 0.12 0.78 -0.89 9.98 0.03 -0.07 -0.00 3264
0.66 0.10 0.75 -0.86 10.00 0.02 -0.07 -0.00 3270
0.69 0.06 0.76 -0.86 9.95 0.02 -0.06 -0.01 3276
0.71 0.05 0.81 -0.87 9.97 0.02 -0.06 -0.00 3283
0.73 0.03 0.75 -0.88 9.97 0.01 -0.06 -0.00 3290
0.75 0.03 0.79 -0.83 9.98 0.01 -0.06 -0.00 3296
0.76 0.04 0.77 -0.86 9.98 0.01 -0.06 -0.00 3302
0.79 0.01 0.77 -0.85 9.99 0.01 -0.06 -0.00 3308
0.83 -0.03 0.77 -0.90 10.02 0.02 -0.06 -0.00 3314
0.89 -0.01 0.77 -0.86 10.02 0.02 -0.05 -0.00 3320
0.91 0.00 0.76 -0.89 9.96 0.03 -0.05 -0.00 3328
0.97 -0.02 0.74 -0.86 9.99 0.03 -0.05 -0.00 3334
1.03 -0.02 0.78 -0.83 9.86 0.02 -0.05 -0.00 3340
1.03 -0.00 0.69 -0.87 9.93 0.03 -0.05 -0.00 3346
1.05 -0.02 0.76 -0.86 10.00 0.03 -0.05 -0.00 3352
1.10 -0.02 0.72 -0.91 10.02 0.04 -0.05 -0.00 3358
1.11 -0.02 0.81 -0.86 10.03 0.05 -0.04 -0.00 3365
1.16 -0.02 0.75 -0.88 10.01 0.06 -0.04 -0.01 3372
1.17 -0.04 0.78 -0.89 10.11 0.07 -0.03 -0.01 3378
1.20 -0.05 0.77 -0.94 10.08 0.09 -0.03 -0.01 3384
1.24 -0.05 0.82 -0.87 10.19 0.12 -0.02 -0.01 3390
1.32 -0.07 0.78 -0.92 10.20 0.17 -0.02 -0.02 3397
1.36 -0.06 0.81 -1.02 10.34 0.23 -0.02 -0.03 3403
1.42 -0.07 0.79 -0.96 10.48 0.32 -0.03 -0.05 3409
1.53 -0.08 1.06 -1.11 10.68 0.44 -0.04 -0.07 3416
1.61 -0.06 1.14 -1.66 10.81 0.60 -0.06 -0.10 3422
1.65 -0.08 1.25 -1.26 11.57 0.79 -0.14 -0.12 3429
1.68 -0.06 1.14 -1.35 12.31 1.12 -0.24 -0.15 3435
1.75 -0.07 1.06 -1.38 13.22 1.48 -0.31 -0.18 3441
1.84 -0.09 0.94 -1.60 12.89 1.72 -0.38 -0.19 3447
1.88 -0.07 0.93 -1.62 13.07 1.87 -0.43 -0.19 3454
1.95 -0.08 0.86 -1.74 13.30 1.99 -0.46 -0.19 3461
1.96 -0.08 0.81 -1.65 12.97 2.15 -0.47 -0.17 3467
2.01 -0.07 0.58 -1.75 12.86 2.30 -0.51 -0.16 3473
2.04 -0.07 0.50 -1.89 13.06 2.48 -0.55 -0.14 3480
2.05 -0.07 0.68 -2.44 14.60 2.69 -0.56 -0.13 3486
2.07 -0.07 0.65 -2.07 13.96 2.88 -0.54 -0.13 3492
2.07 -0.05 0.65 -2.35 13.91 3.08 -0.54 -0.14 3499
2.05 -0.07 0.75 -2.19 13.60 3.32 -0.51 -0.17 3505
2.03 -0.06 0.53 -2.44 15.23 3.59 -0.55 -0.19 3512
1.94 -0.07 0.83 -2.66 15.70 3.91 -0.61 -0.20 3518
1.84 -0.05 1.71 -2.93 15.59 4.17 -0.72 -0.26 3524
1.71 -0.07 2.57 -3.11 16.29 4.28 -0.89 -0.39 3530
1.58 -0.07 2.74 -4.59 18.38 4.28 -1.08 -0.59 3537
1.39 -0.07 3.22 -4.35 18.77 4.28 -1.27 -0.75 3544
1.22 -0.07 2.93 -4.79 20.37 4.28 -1.50 -0.92 3550
1.06 -0.04 2.81 -5.72 22.08 4.28 -1.67 -1.04 3556
0.95 -0.05 2.65 -9.30 25.37 4.28 -1.77 -1.16 3563
0.80 -0.05 2.67 -12.93 30.31 4.28 -1.69 -1.22 3569
0.73 -0.03 3.17 -15.16 32.57 4.28 -1.41 -1.24 3575
0.56 -0.03 4.18 -15.36 30.62 4.28 -1.01 -1.24 3581
0.48 -0.02 3.44 -12.31 28.28 4.28 -0.70 -1.29 3589
0.37 -0.04 2.31 -8.15 25.94 4.28 -0.56 -1.30 3595
0.28 -0.02 2.46 -4.46 28.80 4.28 -0.42 -1.30 3601
0.25 -0.02 3.14 -2.60 29.93 4.28 -0.62 -1.34 3607
0.16 -0.02 4.42 -0.33 30.96 4.28 -1.03 -1.44 3614
0.14 -0.01 7.11 2.78 30.08 4.28 -1.26 -1.49 3620
0.10 -0.01 8.75 5.46 26.76 4.28 -1.20 -1.50 3627
0.09 -0.01 10.86 12.56 21.25 4.28 -0.85 -1.54 3633
0.12 -0.01 9.99 15.68 12.96 4.28 -0.46 -1.85 3639
0.07 -0.01 9.29 17.73 -3.97 3.82 -0.14 -2.33 3646
0.07 -0.01 9.87 22.33 8.62 2.68 -0.12 -2.66 3652
0.09 -0.01 9.55 18.08 27.34 0.73 0.65 -2.53 3658
0.08 -0.01 7.56 13.56 26.21 -0.90 1.13 -2.18 3664
0.07 -0.01 5.26 12.33 20.46 -1.89 1.14 -1.80 3671
0.09 -0.01 3.80 11.97 14.94 -2.60 0.79 -1.37 3678
0.07 -0.01 3.65 10.98 10.66 -3.22 0.34 -0.96 3684
0.06 -0.00 3.72 9.83 9.52 -3.61 0.07 -0.63 3690
0.06 -0.01 4.92 8.28 7.92 -3.77 -0.05 -0.36 3696
0.06 -0.01 5.48 6.81 7.27 -3.86 0.02 -0.15 3702
0.05 -0.01 5.73 5.82 6.76 -3.88 0.17 0.03 3708
0.06 -0.01 5.90 4.98 6.54 -3.86 0.46 0.14 3715
0.09 -0.01 5.84 4.53 6.64 -3.82 0.79 0.23 3722
0.08 -0.01 5.50 4.21 6.80 -3.84 1.13 0.29 3728
0.06 -0.01 4.77 3.98 7.23 -3.91 1.42 0.35 3734
0.06 -0.00 3.97 3.85 7.86 -3.95 1.63 0.41 3740
0.08 -0.01 3.35 3.67 8.62 -4.03 1.74 0.48 3746
0.07 -0.01 2.65 3.52 9.46 -4.10 1.79 0.54 3752
0.05 -0.01 1.90 3.22 10.16 -4.16 1.77 0.63 3759
0.06 -0.01 1.29 2.76 10.78 -4.21 1.72 0.73 3765
0.06 -0.01 0.91 2.28 11.13 -4.25 1.64 0.81 3772
0.05 -0.01 0.75 1.71 11.49 -4.28 1.56 0.88 3778
0.07 -0.00 0.86 1.09 11.79 -4.28 1.46 0.92 3784
0.07 -0.01 1.04 0.56 12.17 -4.28 1.39 0.92 3790
0.06 -0.01 1.15 0.06 12.66 -4.28 1.36 0.88 3796
0.06 -0.00 1.26 -0.41 13.23 -4.28 1.43 0.83 3804
0.06 -0.01 1.40 -0.84 14.01 -4.28 1.54 0.75 3810
0.05 -0.01 1.44 -1.28 14.85 -4.28 1.75 0.64 3816
0.06 -0.00 1.25 -1.94 15.65 -4.28 2.01 0.53 3822
0.06 -0.01 0.96 -2.50 16.33 -4.28 2.30 0.39 3828
0.05 -0.00 0.47 -3.03 17.01 -4.28 2.56 0.24 3834
0.05 0.00 -0.17 -3.62 17.74 -4.28 2.77 0.11 3842
0.05 -0.00 -0.92 -4.13 18.44 -4.28 2.88 0.01 3848
0.05 -0.00 -1.71 -4.79 19.19 -4.28 2.89 -0.05 3854
0.05 -0.00 -2.43 -5.47 19.80 -4.27 2.82 -0.06 3860
0.06 -0.01 -2.83 -5.96 19.89 -4.22 2.68 -0.02 3866
0.05 -0.00 -2.98 -5.99 19.95 -4.13 2.42 0.04 3872
0.05 -0.00 -2.78 -5.91 20.05 -4.00 2.19 0.11 3879
0.06 -0.01 -2.33 -5.92 20.39 -3.83 1.89 0.17 3886
0.05 -0.00 -1.64 -6.03 21.05 -3.69 1.64 0.26 3892
0.04 -0.00 -0.89 -6.46 22.15 -3.58 1.49 0.35 3898
0.05 -0.00 -0.23 -7.21 22.81 -3.52 1.44 0.45 3904
0.04 -0.00 0.19 -8.25 22.45 -3.48 1.42 0.55 3910
0.03 -0.00 0.02 -9.73 22.02 -3.42 1.39 0.66 3917
0.04 0.01 0.06 -11.15 21.30 -3.28 1.38 0.80 3923
0.04 -0.00 0.35 -12.63 21.05 -3.13 1.35 0.94 3930
0.03 -0.00 0.57 -13.96 20.76 -2.90 1.31 1.09 3936
0.05 -0.01 0.82 -15.19 21.19 -2.68 1.30 1.25 3942
0.05 -0.00 0.76 -16.64 22.52 -2.51 1.37 1.43 3949
0.05 -0.00 0.36 -16.13 21.51 -2.33 1.40 1.63 3955
0.05 -0.01 -0.64 -15.27 17.54 -2.48 1.80 1.88 3961
0.05 -0.00 -2.47 -16.92 19.44 -2.64 2.23 2.15 3968
0.04 0.00 -4.05 -19.41 19.40 -2.79 2.42 2.34 3975
0.05 -0.00 -5.55 -22.50 16.90 -2.86 2.27 2.44 3981
0.04 -0.00 -7.06 -25.49 13.79 -2.84 1.92 2.51 3987
0.06 -0.01 -7.97 -27.83 10.38 -2.72 1.52 2.51 3993
0.05 -0.00 -8.19 -30.12 7.48 -2.48 1.15 2.39 3999
0.04 -0.00 -8.63 -32.45 4.17 -2.13 0.86 2.18 4006
0.05 -0.01 -8.71 -34.39 2.16 -1.69 0.65 1.89 4013
0.05 -0.00 -9.35 -40.61 1.50 -1.07 0.39 1.51 4019
0.03 -0.00 -10.53 -35.66 11.37 0.79 0.10 1.03 4025
0.06 -0.01 -10.53 -38.65 1.55 1.16 -0.02 0.63 4031
0.05 -0.01 -7.26 -30.73 -3.88 2.09 -0.24 0.26 4038
0.05 -0.01 -8.70 -29.77 6.15 2.62 -1.15 -0.05 4044
0.07 0.01 -8.36 -31.32 3.56 2.91 -2.04 -0.23 4050
0.05 0.06 -7.87 -27.39 1.98 2.94 -3.32 -0.27 4057
0.04 0.21 -0.35 0.53 0.61 2.88 -3.93 -0.18 4063
0.03 0.38 4.91 -3.85 15.78 3.39 -2.91 0.16 4070
0.02 0.67 9.63 5.72 25.74 4.17 -0.88 0.84 4076
-0.00 1.06 -0.15 -2.14 23.27 4.26 -0.43 1.09 4082
-0.01 1.24 -10.28 -6.17 31.15 4.27 -0.99 0.69 4088
-0.02 1.47 -6.27 -5.31 24.78 4.13 -1.43 0.18 4096
0.00 1.46 -2.33 -5.33 22.49 3.91 -1.10 -0.10 4102
0.00 1.51 -3.19 -2.83 22.74 3.47 -0.50 -0.28 4108
-0.01 1.52 -1.06 -1.85 18.18 2.79 -0.49 -0.57 4114
-0.00 1.51 3.51 -2.37 15.52 2.45 -0.60 -0.66 4121
-0.02 1.41 4.77 -2.75 21.62 2.03 -1.47 -0.49 4127
0.01 1.41 4.37 -2.22 13.52 1.00 -1.71 -0.10 4133
0.00 1.36 0.81 -2.18 12.96 0.62 -1.27 0.18 4140
-0.00 1.40 -0.10 -1.32 11.77 0.28 -0.73 0.22 4146
-0.01 1.40 -0.43 -0.83 11.04 0.10 -0.36 0.14 4153
-0.02 1.40 0.17 -1.22 10.41 0.01 -0.18 0.07 4159
0.00 1.36 0.88 -1.28 10.09 -0.02 -0.12 0.06 4165
0.01 1.34 1.03 -1.13 10.04 -0.02 -0.10 0.08 4171
-0.01 1.34 0.71 -0.80 10.01 -0.02 -0.10 0.08 4177
-0.00 1.36 0.52 -0.80 10.06 -0.02 -0.10 0.06 4185
0.01 1.33 0.64 -0.87 9.95 -0.04 -0.11 0.06 4191
0.04 1.29 0.69 -0.86 10.12 -0.04 -0.11 0.06 4197
0.11 1.29 0.52 -0.72 10.16 -0.03 -0.09 0.06 4203
0.11 1.22 0.65 -0.73 10.07 -0.02 -0.09 0.05 4209
0.10 1.16 0.24 -0.78 10.61 -0.01 -0.08 0.05 4216
0.13 1.14 0.67 -0.82 10.11 -0.01 -0.06 0.05 4222
0.14 1.04 0.63 -0.74 10.05 0.00 -0.05 0.05 4229
0.14 0.99 0.76 -0.88 10.10 0.01 -0.05 0.04 4235
0.22 0.89 0.65 -0.83 10.01 0.02 -0.04 0.05 4241
0.22 0.80 0.62 -0.82 10.06 0.02 -0.03 0.05 4248
0.23 0.73 0.63 -0.83 10.10 0.03 -0.03 0.05 4254
0.25 0.70 0.70 -0.81 10.01 0.03 -0.02 0.06 4260
0.26 0.59 0.64 -0.81 10.06 0.04 -0.01 0.06 4267
0.30 0.53 0.69 -0.80 10.08 0.04 -0.01 0.06 4273
0.33 0.49 0.67 -0.83 9.98 0.05 -0.00 0.06 4280
0.35 0.40 0.79 -0.80 10.03 0.06 -0.00 0.05 4286
0.35 0.33 1.01 -1.05 10.04 0.06 -0.01 0.05 4292
0.38 0.30 0.80 -0.83 9.98 0.06 -0.00 0.04 4298
0.39 0.23 0.81 -0.96 10.12 0.07 -0.00 0.04 4304
0.40 0.20 0.76 -1.01 10.01 0.06 -0.00 0.03 4311
0.44 0.13 0.72 -0.84 9.98 0.07 -0.00 0.03 4318
0.49 0.08 0.73 -0.89 10.01 0.07 0.01 0.03 4324
0.48 0.04 0.70 -0.86 10.06 0.07 0.01 0.03 4330
0.51 0.05 0.69 -0.89 10.08 0.08 0.01 0.03 4336
0.54 -0.01 0.73 -0.89 10.05 0.09 0.02 0.03 4342
0.54 -0.02 0.73 -0.69 10.03 0.10 0.02 0.04 4348
0.56 -0.01 0.69 -0.82 10.04 0.11 0.02 0.04 4356
0.59 -0.02 0.78 -0.88 10.10 0.13 0.02 0.03 4362
0.59 -0.04 0.75 -0.94 10.07 0.14 0.01 0.04 4368
0.59 -0.03 0.85 -0.96 10.08 0.15 -0.00 0.03 4374
0.62 -0.04 0.88 -0.99 10.11 0.17 -0.02 0.02 4380
0.62 -0.05 0.84 -1.11 9.98 0.18 -0.03 0.01 4387
0.67 -0.04 0.83 -1.05 10.05 0.20 -0.03 -0.01 4393
0.72 -0.05 0.84 -1.05 10.03 0.22 -0.04 -0.03 4400
0.73 -0.05 0.90 -1.10 9.98 0.23 -0.04 -0.04 4406
0.75 -0.04 0.87 -1.13 9.90 0.25 -0.04 -0.06 4412
0.79 -0.05 0.82 -1.17 9.88 0.24 -0.05 -0.06 4418
0.82 -0.06 0.82 -1.18 9.82 0.23 -0.05 -0.07 4425
0.83 -0.04 0.77 -1.19 9.81 0.21 -0.05 -0.07 4431
0.88 -0.04 0.88 -1.23 9.86 0.19 -0.06 -0.07 4438
0.90 -0.05 0.86 -1.20 9.88 0.17 -0.06 -0.08 4444
0.90 -0.04 0.78 -1.21 9.90 0.16 -0.06 -0.08 4450
0.95 -0.05 0.67 -1.20 9.89 0.15 -0.06 -0.07 4456
0.98 -0.05 0.71 -1.25 9.92 0.13 -0.06 -0.06 4463
1.02 -0.05 0.71 -1.22 9.96 0.13 -0.06 -0.05 4469
1.06 -0.05 0.70 -1.25 10.10 0.14 -0.06 -0.05 4475
1.10 -0.06 0.70 -1.23 10.04 0.15 -0.05 -0.04 4482
1.13 -0.07 0.74 -1.29 10.14 0.18 -0.05 -0.03 4488
1.18 -0.05 0.74 -1.31 10.13 0.21 -0.05 -0.03 4495
1.21 -0.05 0.80 -1.38 10.22 0.25 -0.05 -0.03 4501
1.24 -0.05 0.88 -1.40 10.31 0.30 -0.05 -0.03 4507
1.30 -0.05 0.88 -1.42 10.39 0.37 -0.05 -0.05 4513
1.36 -0.06 0.94 -1.44 10.51 0.46 -0.04 -0.06 4519
1.41 -0.04 1.03 -1.55 10.91 0.55 -0.04 -0.07 4527
1.46 -0.06 1.11 -1.66 10.97 0.67 -0.05 -0.09 4533
1.47 -0.06 1.11 -1.66 11.19 0.80 -0.07 -0.12 4539
1.52 -0.05 0.97 -1.62 11.42 0.92 -0.09 -0.14 4545
1.57 -0.07 0.91 -1.79 11.50 1.04 -0.11 -0.14 4552
1.63 -0.06 0.85 -1.81 11.72 1.18 -0.14 -0.14 4558
1.66 -0.06 0.71 -1.85 11.75 1.31 -0.18 -0.14 4564
1.73 -0.07 0.76 -1.74 11.87 1.43 -0.22 -0.12 4571
1.74 -0.06 0.65 -1.97 12.17 1.58 -0.25 -0.12 4578
1.81 -0.05 0.57 -1.92 12.66 1.75 -0.28 -0.11 4584
1.84 -0.07 0.97 -2.03 12.48 1.95 -0.29 -0.11 4590
1.90 -0.05 0.65 -2.68 12.92 2.16 -0.29 -0.13 4596
1.89 -0.05 0.74 -2.41 13.53 2.39 -0.29 -0.12 4602
1.90 -0.05 1.03 -2.65 13.75 2.61 -0.30 -0.14 4610
1.90 -0.05 0.81 -2.48 13.61 2.86 -0.30 -0.17 4616
1.87 -0.06 0.88 -2.62 13.73 3.10 -0.29 -0.18 4622
1.82 -0.06 1.10 -2.99 14.07 3.37 -0.28 -0.21 4628
1.77 -0.06 0.65 -2.88 14.58 3.65 -0.25 -0.24 4635
1.73 -0.07 0.34 -3.08 14.94 4.02 -0.23 -0.24 4641
1.62 -0.04 1.33 -3.15 14.82 4.21 -0.22 -0.25 4647
1.50 -0.07 2.13 -3.63 16.45 4.28 -0.31 -0.30 4654
1.33 -0.04 3.28 -4.09 17.32 4.28 -0.36 -0.43 4661
1.16 -0.06 3.20 -4.77 18.62 4.28 -0.47 -0.58 4667
1.04 -0.05 2.95 -7.12 21.73 4.28 -0.66 -0.72 4673
0.90 -0.05 2.47 -9.47 25.02 4.28 -0.77 -0.80 4679
0.84 -0.06 3.00 -12.00 29.98 4.28 -0.74 -0.83 4686
0.67 -0.04 2.82 -15.81 34.15 4.28 -0.56 -0.78 4692
0.63 -0.04 3.89 -16.40 32.89 4.28 -0.19 -0.70 4699
0.48 -0.02 3.14 -14.18 28.74 4.28 0.12 -0.72 4705
0.39 -0.03 2.70 -10.47 27.30 4.28 0.43 -0.78 4712
0.32 -0.03 1.14 -6.74 29.35 4.28 0.51 -0.82 4718
0.25 -0.01 0.71 -4.57 33.43 4.28 0.14 -0.94 4724
0.22 -0.02 1.50 -2.57 32.60 4.28 -0.38 -1.10 4730
0.12 -0.01 4.69 0.15 32.06 4.28 -1.01 -1.23 4737
0.13 -0.01 7.31 4.19 32.92 4.28 -1.36 -1.23 4744
0.11 -0.01 9.13 8.84 28.51 4.28 -1.25 -1.19 4750
0.06 -0.01 13.31 18.29 25.04 4.28 -0.80 -1.21 4756
0.07 -0.01 11.29 19.76 14.31 4.27 -0.08 -1.53 4762
0.05 -0.01 10.52 23.18 -9.74 3.30 0.50 -2.22 4769
0.05 -0.00 6.96 22.04 13.91 1.90 0.67 -2.67 4775
0.05 -0.01 9.37 16.48 31.64 -0.05 1.60 -2.59 4782
0.04 -0.00 7.01 14.51 29.12 -1.95 2.05 -2.39 4788
0.07 0.00 3.06 14.67 19.27 -3.01 1.79 -2.20 4795
0.05 -0.01 0.74 13.12 13.48 -3.63 1.14 -1.92 4801
0.06 -0.00 0.86 10.86 12.17 -4.13 0.60 -1.57 4807
0.07 0.00 1.83 8.88 10.21 -4.28 0.23 -1.28 4813
0.06 -0.01 2.96 7.18 8.66 -4.28 -0.02 -1.07 4819
0.05 0.00 3.67 5.59 7.68 -4.28 -0.14 -0.92 4827
0.06 -0.00 3.84 4.35 7.19 -4.28 -0.13 -0.78 4833
0.04 -0.00 4.19 3.61 6.99 -4.27 -0.05 -0.65 4839
0.03 0.00 4.62 3.10 6.85 -4.26 0.13 -0.57 4845
0.04 0.01 4.95 2.80 6.89 -4.23 0.32 -0.49 4851
0.05 0.00 4.91 2.73 7.44 -4.23 0.51 -0.42 4857
0.05 -0.00 4.81 2.79 8.20 -4.25 0.72 -0.35 4864
0.05 -0.00 4.75 2.83 9.16 -4.26 0.94 -0.25 4871
0.06 -0.01 4.59 2.79 10.04 -4.28 1.18 -0.12 4877
0.05 -0.01 4.17 2.58 10.91 -4.28 1.43 0.02 4883
0.05 -0.00 3.10 2.04 11.35 -4.28 1.66 0.19 4889
0.07 -0.00 3.26 1.25 12.05 -4.28 1.86 0.35 4895
0.05 -0.01 2.66 0.03 12.65 -4.28 1.94 0.51 4901
0.05 -0.00 2.08 -0.06 13.00 -4.28 1.97 0.65 4909
0.06 -0.01 1.69 -0.82 13.24 -4.28 1.93 0.74 4915
0.05 -0.00 1.54 -1.45 13.60 -4.28 1.86 0.83 4921
0.03 -0.00 1.43 -2.12 14.09 -4.28 1.79 0.89 4927
0.05 0.00 1.42 -2.92 14.90 -4.28 1.75 0.91 4933
0.05 0.00 1.43 -3.59 15.60 -4.28 1.77 0.90 4939
0.05 0.00 1.43 -4.12 16.50 -4.28 1.83 0.84 4946
0.07 0.01 1.37 -4.65 17.35 -4.28 1.94 0.75 4953
0.06 0.00 1.34 -5.12 18.01 -4.28 2.08 0.64 4959
0.06 -0.00 1.18 -5.41 18.57 -4.28 2.21 0.53 4965
0.08 -0.00 0.88 -5.56 18.98 -4.27 2.36 0.44 4972
0.06 -0.01 0.51 -5.80 19.36 -4.25 2.45 0.39 4978
0.06 -0.00 0.21 -6.09 20.03 -4.20 2.53 0.38 4984
0.07 -0.01 -0.10 -6.42 20.92 -4.14 2.57 0.43 4990
0.07 -0.01 -0.55 -6.89 22.03 -4.04 2.52 0.44 4997
0.07 -0.00 -0.91 -7.45 23.02 -3.93 2.39 0.51 5003
0.08 -0.00 -1.06 -8.08 23.62 -3.83 2.18 0.60 5010
0.07 -0.01 -0.83 -8.78 24.10 -3.78 1.91 0.70 5016
0.06 -0.00 -0.31 -9.65 24.31 -3.76 1.59 0.81 5022
0.08 -0.00 0.28 -10.76 24.17 -3.75 1.27 0.92 5028
0.06 -0.01 0.98 -12.33 23.75 -3.73 0.98 1.03 5035
0.07 0.01 1.71 -14.09 22.75 -3.68 0.75 1.14 5042
0.06 -0.00 2.24 -15.78 21.48 -3.57 0.60 1.27 5048
0.07 -0.01 2.29 -17.00 19.98 -3.40 0.59 1.40 5054
0.07 -0.00 1.27 -22.67 17.02 -3.11 0.78 1.57 5060
0.06 -0.01 0.68 -17.00 18.06 -2.48 1.30 1.76 5067
0.07 -0.00 -0.54 -17.05 15.17 -2.69 1.76 1.86 5073
0.08 -0.00 0.24 -17.61 14.32 -2.83 2.06 1.92 5080
0.06 -0.01 -2.26 -21.46 20.45 -2.96 2.11 2.00 5086
0.07 0.00 -3.49 -22.83 18.55 -2.81 2.14 2.04 5093
0.06 -0.01 -4.99 -24.37 15.01 -2.79 2.02 2.02 5099
0.06 -0.01 -5.81 -26.26 10.87 -2.67 1.84 1.95 5105
0.05 -0.01 -7.71 -29.13 7.13 -2.54 1.66 1.81 5111
0.06 -0.01 -8.29 -31.35 4.43 -2.25 1.41 1.56 5117
0.06 -0.01 -8.56 -33.84 2.47 -1.83 1.11 1.22 5125
0.06 -0.01 -10.45 -42.19 -0.61 -1.24 0.70 0.93 5131
0.06 -0.01 -11.48 -33.99 6.38 0.40 0.23 0.61 5137
0.06 -0.00 -10.64 -35.71 -3.34 0.63 0.13 0.31 5143
0.06 -0.01 -12.66 -31.66 4.76 1.76 -0.77 0.11 5150
0.05 -0.00 -10.61 -28.92 5.58 2.22 -1.59 -0.07 5156
0.07 0.01 -9.90 -33.55 6.56 2.54 -2.60 -0.25 5163
0.06 0.07 -7.73 -34.59 -0.20 2.76 -3.19 -0.23 5169
0.06 0.23 -0.25 -6.91 -6.65 2.86 -3.91 0.03 5175
0.05 0.42 2.77 -2.09 13.35 3.86 -2.76 0.29 5182
0.03 0.72 7.79 3.59 26.78 4.28 -0.83 0.87 5188
0.01 1.11 -1.29 -3.15 25.04 4.28 -0.76 1.07 5194
0.00 1.33 -8.14 -4.52 31.30 4.28 -1.17 0.74 5200
-0.02 1.44 -5.00 -6.19 27.39 4.28 -1.42 0.35 5208
-0.01 1.48 -2.58 -5.94 23.76 4.17 -0.96 0.14 5214
-0.00 1.44 -3.48 -3.02 21.55 3.87 -0.61 -0.11 5220
-0.01 1.40 -0.66 -1.93 20.14 3.39 -0.76 -0.45 5226
0.00 1.40 4.80 -3.67 29.19 2.99 -1.48 -0.56 5232
0.00 1.37 4.88 -1.96 13.58 1.12 -1.61 -0.16 5239
-0.00 1.38 1.91 -2.51 12.58 0.49 -0.92 0.14 5245
0.01 1.34 0.36 -1.78 11.39 0.22 -0.57 0.22 5252
-0.00 1.38 -0.41 -1.01 10.55 0.07 -0.23 0.16 5258
0.03 1.40 -0.01 -0.86 10.19 0.01 -0.14 0.07 5265
0.01 1.37 0.66 -1.17 10.12 -0.01 -0.10 0.06 5271
0.02 1.37 1.02 -1.14 9.85 -0.02 -0.10 0.07 5277
0.06 1.39 0.69 -0.85 9.97 -0.02 -0.10 0.08 5283
0.08 1.39 0.51 -0.60 9.96 -0.03 -0.10 0.06 5289
0.05 1.38 0.63 -0.75 9.87 -0.04 -0.09 0.06 5296
0.04 1.40 0.74 -0.77 10.08 -0.04 -0.09 0.06 5303
0.07 1.38 0.68 -0.71 10.00 -0.04 -0.08 0.06 5309
0.07 1.33 0.34 -0.73 10.16 -0.03 -0.06 0.07 5315
0.11 1.28 0.30 -0.68 9.76 -0.03 -0.06 0.05 5321
0.15 1.24 0.63 -0.72 10.17 -0.02 -0.05 0.05 5327
0.15 1.13 0.55 -0.74 10.07 -0.01 -0.04 0.05 5335
0.13 1.13 0.72 -0.69 9.96 -0.01 -0.03 0.05 5341
0.17 1.06 0.69 -0.72 10.07 0.00 -0.02 0.05 5347
0.18 1.03 0.66 -0.73 9.99 0.01 -0.02 0.05 5353
0.19 0.96 0.69 -0.69 10.08 0.02 -0.01 0.06 5359
0.18 0.89 0.75 -0.77 10.03 0.02 -0.02 0.06 5365
0.18 0.78 0.75 -0.70 9.97 0.02 -0.01 0.06 5372
0.20 0.79 0.79 -0.69 10.04 0.03 -0.02 0.06 5379
0.24 0.72 0.77 -0.71 9.96 0.03 -0.02 0.06 5385
0.24 0.59 0.77 -0.72 10.00 0.04 -0.03 0.05 5391
0.24 0.55 0.98 -0.70 10.03 0.03 -0.04 0.05 5397
0.26 0.46 0.77 -0.76 10.03 0.03 -0.04 0.04 5403
0.24 0.38 0.81 -0.75 9.97 0.03 -0.06 0.04 5410
0.28 0.31 0.79 -0.83 9.98 0.03 -0.06 0.03 5416
0.31 0.30 0.82 -0.76 9.95 0.02 -0.07 0.02 5423
0.32 0.24 0.72 -0.77 9.98 0.02 -0.07 0.02 5429
0.31 0.21 0.80 -1.06 10.14 0.02 -0.07 0.02 5435
0.33 0.22 0.66 -0.78 10.00 0.02 -0.06 0.02 5441
0.37 0.14 0.73 -0.76 10.07 0.02 -0.06 0.01 5448
0.38 0.14 0.76 -0.76 10.02 0.02 -0.06 0.02 5454
0.41 0.13 0.60 -0.79 10.10 0.03 -0.06 0.02 5460
0.45 0.11 0.68 -0.80 10.00 0.04 -0.06 0.02 5467
0.46 0.05 0.70 -0.76 9.99 0.04 -0.05 0.02 5473
0.53 0.02 0.68 -0.79 10.01 0.05 -0.05 0.02 5479
0.54 0.01 0.74 -0.82 10.01 0.05 -0.06 0.02 5486
0.58 -0.01 0.73 -0.85 10.01 0.05 -0.06 0.01 5492
0.63 0.00 0.70 -0.82 10.01 0.05 -0.06 0.01 5498
0.64 -0.00 0.69 -0.86 9.97 0.06 -0.06 0.01 5505
0.70 -0.02 0.77 -0.87 10.02 0.06 -0.06 0.00 5511
0.71 -0.04 0.69 -0.92 9.98 0.06 -0.06 0.00 5517
0.77 -0.03 0.74 -0.87 10.00 0.06 -0.06 -0.01 5524
0.77 -0.04 0.73 -0.84 9.99 0.06 -0.05 -0.00 5530
0.77 -0.03 0.71 -0.86 10.02 0.07 -0.05 -0.00 5536
0.81 -0.04 0.68 -0.92 9.93 0.06 -0.05 -0.00 5542
0.85 -0.04 0.68 -0.92 9.96 0.06 -0.05 -0.00 5549
0.89 -0.04 0.66 -0.88 9.98 0.06 -0.05 -0.00 5555
0.92 -0.04 0.67 -0.91 9.98 0.05 -0.04 0.00 5561
0.96 -0.06 0.68 -0.93 9.94 0.05 -0.04 0.01 5568
0.96 -0.05 0.73 -0.89 9.95 0.05 -0.04 0.01 5574
1.00 -0.05 0.70 -0.89 10.08 0.05 -0.04 0.00 5580
1.04 -0.06 0.71 -0.94 9.99 0.06 -0.04 -0.00 5586
1.08 -0.06 0.76 -0.88 10.07 0.08 -0.04 0.00 5593
1.12 -0.06 0.68 -0.90 10.11 0.10 -0.04 -0.00 5599
1.20 -0.06 0.71 -0.92 10.11 0.13 -0.04 -0.00 5606
1.28 -0.07 0.74 -0.97 10.17 0.16 -0.03 -0.01 5612
1.31 -0.07 0.81 -1.00 10.25 0.21 -0.03 -0.02 5618
1.41 -0.07 0.73 -0.98 10.25 0.26 -0.04 -0.02 5624
1.42 -0.08 0.78 -1.06 10.37 0.32 -0.04 -0.03 5632
1.48 -0.07 0.86 -1.18 10.70 0.43 -0.05 -0.04 5638
1.52 -0.07 0.87 -1.13 10.96 0.60 -0.06 -0.05 5644
1.57 -0.07 0.90 -1.16 11.35 0.82 -0.08 -0.07 5650
1.58 -0.05 0.81 -1.29 11.71 1.04 -0.10 -0.09 5656
1.63 -0.07 0.81 -1.34 11.59 1.20 -0.14 -0.10 5663
1.68 -0.07 0.85 -1.43 11.81 1.33 -0.16 -0.11 5669
1.74 -0.06 0.82 -1.50 12.11 1.45 -0.21 -0.11 5676
1.78 -0.06 0.89 -1.67 12.27 1.56 -0.25 -0.10 5682
1.78 -0.06 0.65 -1.70 12.26 1.68 -0.30 -0.10 5689
1.83 -0.07 0.73 -1.75 12.45 1.82 -0.29 -0.10 5695
1.85 -0.08 0.75 -1.78 13.05 1.99 -0.31 -0.10 5701
1.87 -0.06 0.69 -1.89 13.18 2.20 -0.32 -0.10 5707
1.89 -0.07 0.88 -2.14 13.10 2.41 -0.32 -0.10 5713
1.89 -0.07 0.69 -2.11 13.00 2.61 -0.31 -0.10 5721
1.91 -0.07 0.81 -2.26 13.29 2.80 -0.31 -0.12 5727
1.91 -0.07 1.00 -2.46 13.91 3.03 -0.33 -0.14 5733
1.85 -0.06 0.83 -2.60 13.70 3.30 -0.32 -0.17 5739
1.83 -0.05 0.96 -2.77 14.14 3.56 -0.33 -0.21 5746
1.75 -0.05 0.48 -2.97 14.89 3.86 -0.35 -0.24 5752
1.70 -0.06 0.72 -2.76 15.90 4.15 -0.36 -0.25 5758
1.60 -0.06 2.17 -3.05 15.97 4.28 -0.45 -0.30 5765
1.41 -0.05 2.86 -3.47 16.37 4.28 -0.62 -0.41 5772
1.36 -0.05 3.32 -3.75 17.57 4.28 -0.73 -0.58 5778
1.17 -0.06 2.78 -5.37 19.59 4.28 -0.94 -0.73 5784
1.06 -0.04 2.85 -7.61 22.92 4.28 -1.16 -0.87 5790
0.95 -0.05 3.12 -10.37 26.38 4.28 -1.23 -0.99 5797
0.88 -0.06 3.45 -12.69 30.09 4.28 -1.16 -1.04 5804
0.71 -0.04 3.56 -17.40 32.51 4.28 -0.93 -1.05 5810
0.60 -0.03 3.81 -14.62 30.46 4.28 -0.63 -1.05 5816
0.49 -0.02 2.88 -11.92 29.00 4.28 -0.46 -1.10 5823
0.36 -0.03 2.54 -9.38 28.07 4.28 -0.27 -1.15 5829
0.32 -0.02 1.09 -5.81 29.62 4.28 -0.34 -1.20 5835
0.23 -0.02 0.47 -3.50 30.58 4.28 -0.77 -1.27 5841
0.14 -0.01 1.71 -0.79 30.45 4.28 -1.43 -1.33 5849
0.14 -0.01 5.19 2.42 30.80 4.28 -2.09 -1.34 5855
0.11 -0.01 7.90 5.32 29.82 4.28 -2.37 -1.30 5861
0.07 -0.01 9.01 9.65 23.74 4.28 -2.25 -1.20 5867
0.07 -0.01 12.31 17.19 17.66 4.28 -1.78 -1.33 5873
0.05 -0.01 11.49 18.54 4.27 4.26 -1.01 -1.79 5880
0.05 0.00 11.54 22.09 -5.78 3.51 -0.55 -2.37 5886
0.06 -0.01 9.46 17.79 20.33 2.03 0.72 -2.65 5893
0.06 -0.01 11.09 12.52 30.70 0.21 1.90 -2.55 5899
0.06 -0.01 8.18 11.83 24.10 -1.31 2.47 -2.37 5906
0.06 -0.01 4.10 12.78 17.28 -2.27 2.27 -2.13 5912
0.06 -0.00 0.43 12.75 13.96 -3.07 1.71 -1.76 5918
0.08 0.00 1.05 10.93 11.21 -3.75 1.25 -1.33 5924
0.06 -0.01 1.92 8.44 10.14 -4.13 0.84 -0.99 5932
0.07 -0.01 2.56 6.45 8.73 -4.22 0.50 -0.72 5938
0.08 -0.01 2.84 4.96 8.30 -4.25 0.28 -0.45 5944
0.06 -0.01 3.19 3.97 7.34 -4.24 0.15 -0.23 5950
0.06 -0.01 3.75 3.33 6.49 -4.21 0.10 -0.06 5956
0.07 -0.00 4.16 2.87 6.15 -4.18 0.13 0.06 5962
0.07 -0.00 4.47 2.46 6.51 -4.15 0.22 0.15 5968
0.08 -0.01 4.62 2.36 7.13 -4.13 0.37 0.21 5975
0.07 -0.00 4.68 2.22 7.59 -4.13 0.55 0.25 5982
0.09 0.00 4.62 2.22 8.04 -4.16 0.77 0.29 5988
0.06 -0.01 4.36 2.20 8.52 -4.19 1.00 0.34 5994
0.05 -0.00 3.87 2.07 9.15 -4.21 1.22 0.41 6000
0.05 -0.00 3.46 1.78 10.02 -4.24 1.43 0.48 6006
0.06 -0.00 3.04 1.32 10.95 -4.27 1.60 0.55 6012
0.05 -0.00 2.71 0.86 11.87 -4.28 1.72 0.61 6019
0.04 -0.00 2.21 0.51 12.66 -4.28 1.75 0.66 6026
0.06 -0.01 1.86 0.04 13.39 -4.28 1.76 0.69 6032
0.05 -0.00 1.59 -0.38 14.01 -4.28 1.75 0.71 6038
0.03 -0.00 1.51 -0.96 14.79 -4.28 1.75 0.71 6044
0.04 -0.00 1.50 -1.71 15.27 -4.28 1.77 0.68 6050
0.04 -0.00 1.42 -2.64 15.77 -4.28 1.85 0.63 6056
0.04 -0.00 1.44 -3.69 16.11 -4.28 1.95 0.55 6064
0.04 0.00 1.24 -4.79 16.44 -4.28 2.09 0.46 6070
0.04 -0.00 0.96 -5.96 16.79 -4.28 2.23 0.36 6076
0.04 -0.00 0.09 -7.11 16.99 -4.28 2.38 0.27 6082
0.03 0.01 0.21 -7.91 17.28 -4.28 2.50 0.18 6088
0.04 -0.00 -0.08 -8.22 17.61 -4.25 2.53 0.13 6094
0.04 0.00 -0.50 -8.45 17.86 -4.13 2.55 0.11 6102
0.04 0.01 -1.00 -8.54 18.03 -3.91 2.51 0.12 6108
0.05 -0.00 -1.42 -8.40 18.80 -3.64 2.38 0.16 6114
0.04 0.00 -1.65 -8.30 19.96 -3.42 2.19 0.22 6120
0.05 0.00 -1.62 -8.13 21.24 -3.26 1.98 0.31 6126
0.05 -0.01 -1.29 -8.06 22.22 -3.17 1.76 0.40 6133
0.04 -0.00 -0.89 -8.21 23.16 -3.16 1.56 0.49 6139
0.06 0.00 -0.10 -8.78 23.52 -3.21 1.41 0.59 6146
0.06 -0.01 0.83 -9.68 23.60 -3.29 1.34 0.68 6152
0.04 -0.00 1.46 -10.99 23.40 -3.38 1.37 0.76 6158
0.05 0.00 1.89 -12.42 22.51 -3.44 1.48 0.84 6165
0.04 -0.00 1.88 -13.70 21.06 -3.43 1.62 0.93 6171
0.04 -0.00 1.50 -14.71 19.54 -3.34 1.80 1.04 6177
0.05 -0.00 0.67 -15.44 18.14 -3.16 1.94 1.19 6183
0.04 -0.00 -0.62 -16.19 17.50 -2.93 2.04 1.38 6190
0.04 -0.00 -2.24 -16.80 16.71 -2.68 2.04 1.60 6197
0.04 -0.00 -4.04 -17.47 15.36 -2.47 1.95 1.86 6203
0.04 -0.00 -5.94 -18.11 15.75 -2.29 1.91 2.05 6209
0.04 0.01 -7.16 -19.85 15.38 -2.20 1.89 2.27 6215
0.05 -0.01 -7.99 -21.97 14.61 -2.19 1.63 2.36 6222
0.04 0.00 -8.26 -24.33 12.84 -2.22 1.16 2.33 6228
0.05 -0.01 -8.42 -26.08 10.29 -2.21 0.68 2.19 6235
0.05 -0.00 -7.45 -27.39 8.04 -2.13 0.32 1.96 6241
0.04 -0.00 -7.07 -28.44 4.56 -1.91 0.18 1.66 6247
0.05 -0.00 -6.32 -29.48 2.80 -1.57 0.24 1.33 6254
0.04 -0.00 -5.96 -29.49 2.33 -1.14 0.36 0.95 6260
0.04 -0.00 -5.85 -28.30 2.90 -0.69 0.47 0.56 6266
0.05 -0.01 -5.94 -26.18 4.05 -0.33 0.50 0.19 6273
0.04 -0.00 -7.76 -40.95 -8.13 0.01 0.22 -0.03 6279
0.03 -0.00 -13.29 -26.12 -3.23 2.39 -0.61 0.02 6285
0.05 -0.01 -10.91 -18.48 3.49 2.08 -0.71 -0.08 6292
0.04 0.01 -9.92 -21.43 3.99 2.39 -1.82 -0.02 6298
0.04 0.04 -7.17 -28.23 4.28 2.37 -2.94 0.08 6304
0.05 0.15 -2.46 -10.74 -2.13 2.32 -3.58 0.10 6310
0.04 0.26 2.79 3.29 7.21 2.53 -2.95 0.27 6318
0.02 0.57 4.24 2.11 17.59 3.48 -1.27 0.77 6324
0.02 0.90 3.32 2.67 20.35 3.98 -0.44 1.16 6330
-0.00 1.17 -7.25 -1.22 22.50 4.24 -0.90 0.96 6336
-0.01 1.40 -7.92 -6.17 25.00 4.24 -1.37 0.44 6342
-0.01 1.49 -2.40 -4.52 21.06 4.14 -1.18 0.14 6349
-0.03 1.52 -2.59 -4.16 23.27 3.95 -0.54 -0.02 6355
-0.01 1.54 -2.82 -2.20 20.13 3.40 -0.40 -0.30 6362
-0.01 1.56 1.41 -2.39 17.62 3.06 -0.57 -0.55 6368
-0.02 1.47 4.92 -3.98 31.59 2.68 -1.50 -0.53 6375
-0.02 1.52 4.59 -1.77 14.15 1.01 -1.78 -0.10 6381
-0.01 1.56 0.69 -2.63 13.99 0.49 -1.05 0.21 6387
-0.01 1.52 -0.33 -1.50 11.50 0.15 -0.41 0.26 6393
-0.00 1.50 -0.78 -0.96 10.52 0.03 -0.12 0.17 6401
-0.01 1.53 0.09 -0.86 10.41 -0.01 -0.06 0.07 6407
0.05 1.50 0.92 -1.28 10.16 -0.02 -0.05 0.07 6413
0.01 1.50 0.90 -1.03 10.04 -0.02 -0.05 0.09 6419
-0.00 1.50 0.55 -0.81 10.04 -0.02 -0.06 0.09 6425
0.01 1.51 0.37 -0.76 9.95 -0.02 -0.05 0.07 6431
0.05 1.50 0.61 -0.73 10.24 -0.03 -0.05 0.07 6438
0.03 1.45 0.64 -0.76 10.01 -0.03 -0.05 0.07 6445
0.05 1.44 0.90 -1.11 10.16 -0.03 -0.05 0.08 6451
0.05 1.41 0.58 -0.75 10.06 -0.02 -0.05 0.06 6457
0.05 1.35 0.65 -0.74 10.06 -0.02 -0.05 0.06 6463
0.10 1.33 0.67 -0.76 10.02 -0.02 -0.05 0.06 6470
0.11 1.29 0.32 -0.69 11.15 -0.01 -0.05 0.06 6476
0.10 1.21 0.60 -0.68 10.10 0.03 -0.04 0.06 6482
0.08 1.11 0.62 -0.69 10.02 0.01 -0.04 0.06 6489
0.08 1.07 0.59 -0.72 10.09 0.01 -0.03 0.06 6495
0.10 1.04 0.62 -0.72 10.01 0.02 -0.03 0.06 6502
0.14 0.94 0.58 -0.70 10.03 0.02 -0.03 0.06 6508
0.15 0.88 0.62 -0.70 10.03 0.03 -0.03 0.06 6514
0.17 0.82 0.63 -0.76 9.99 0.03 -0.02 0.06 6520
0.18 0.72 0.63 -0.73 10.03 0.03 -0.02 0.06 6526
0.20 0.64 0.65 -0.74 10.09 0.04 -0.02 0.06 6533
0.23 0.58 0.68 -0.74 9.93 0.04 -0.02 0.06 6540
0.25 0.48 0.72 -0.77 9.99 0.04 -0.02 0.05 6546
0.25 0.41 0.70 -0.76 10.05 0.04 -0.03 0.05 6552
0.27 0.34 0.67 -0.76 10.01 0.03 -0.03 0.05 6558
0.30 0.32 0.64 -0.81 9.99 0.03 -0.04 0.04 6564
0.32 0.31 0.50 -0.78 10.00 0.03 -0.04 0.03 6571
0.33 0.29 0.67 -0.80 9.91 0.03 -0.04 0.03 6578
0.34 0.25 0.69 -0.80 10.02 0.03 -0.05 0.03 6584
0.35 0.21 0.60 -0.80 10.02 0.03 -0.05 0.03 6590
0.35 0.18 0.61 -0.78 10.02 0.02 -0.05 0.03 6596
0.37 0.13 0.60 -0.81 10.02 0.02 -0.05 0.03 6602
0.38 0.15 0.63 -0.78 10.01 0.03 -0.05 0.03 6609
0.39 0.11 0.61 -0.83 9.98 0.02 -0.05 0.03 6616
0.43 0.09 0.65 -0.78 9.98 0.03 -0.05 0.03 6622
0.42 0.07 0.69 -0.83 9.98 0.03 -0.04 0.02 6628
0.44 0.04 0.62 -0.87 10.01 0.03 -0.04 0.02 6634
0.46 0.02 0.68 -0.83 9.99 0.03 -0.04 0.02 6640
0.50 0.02 0.66 -0.84 10.05 0.04 -0.04 0.01 6646
0.51 -0.00 0.67 -0.85 10.05 0.04 -0.05 0.01 6653
0.57 -0.00 0.64 -0.85 9.96 0.04 -0.05 0.00 6660
0.62 -0.02 0.66 -0.87 9.94 0.04 -0.05 -0.00 6666
0.62 -0.02 0.65 -0.82 9.97 0.04 -0.05 -0.00 6672
0.64 -0.03 0.65 -0.88 9.96 0.05 -0.06 -0.01 6678
0.69 -0.03 0.61 -0.86 10.01 0.05 -0.05 -0.01 6684
0.73 -0.03 0.61 -0.87 9.98 0.05 -0.05 -0.01 6691
0.76 -0.04 0.60 -0.90 10.02 0.05 -0.05 -0.00 6697
0.80 -0.04 0.62 -0.85 9.99 0.05 -0.05 -0.00 6704
0.85 -0.04 0.63 -0.85 10.03 0.05 -0.05 0.01 6710
0.88 -0.05 0.60 -0.88 10.03 0.05 -0.05 0.00 6716
0.92 -0.05 0.68 -0.86 10.00 0.05 -0.05 0.00 6722
0.97 -0.04 0.68 -0.89 10.01 0.06 -0.04 -0.00 6729
1.01 -0.06 0.68 -0.91 9.99 0.08 -0.04 -0.01 6735
1.02 -0.05 0.69 -0.90 10.08 0.10 -0.03 -0.01 6742
1.08 -0.06 0.71 -0.91 10.08 0.12 -0.03 -0.02 6748
1.13 -0.07 0.72 -0.96 10.13 0.14 -0.03 -0.03 6754
1.18 -0.06 0.76 -1.05 10.12 0.18 -0.02 -0.04 6761
1.23 -0.06 0.80 -1.10 10.22 0.22 -0.02 -0.05 6767
1.35 -0.08 0.89 -1.10 10.33 0.28 -0.02 -0.07 6773
1.39 -0.05 0.83 -1.09 10.44 0.37 -0.03 -0.09 6779
1.43 -0.07 1.00 -1.15 10.95 0.50 -0.05 -0.12 6786
1.52 -0.07 0.81 -1.17 11.15 0.68 -0.08 -0.17 6793
1.57 -0.07 0.80 -1.25 11.62 0.94 -0.12 -0.14 6799
1.62 -0.07 0.75 -1.31 12.09 1.18 -0.16 -0.15 6805
1.69 -0.08 0.74 -1.44 12.73 1.37 -0.23 -0.15 6811
1.76 -0.07 0.87 -1.58 12.84 1.52 -0.29 -0.16 6818
1.84 -0.07 0.73 -1.63 12.70 1.66 -0.33 -0.15 6824
1.89 -0.05 0.86 -1.72 12.98 1.82 -0.36 -0.15 6831
1.89 -0.06 0.72 -1.71 12.80 1.98 -0.38 -0.14 6837
1.91 -0.07 0.67 -1.78 13.04 2.17 -0.41 -0.14 6843
1.95 -0.07 0.50 -1.75 12.94 2.38 -0.43 -0.14 6850
1.96 -0.07 0.58 -2.05 13.63 2.58 -0.43 -0.14 6856
1.96 -0.06 0.71 -2.17 13.48 2.76 -0.43 -0.15 6862
1.93 -0.07 0.24 -2.25 13.80 2.94 -0.42 -0.16 6868
1.94 -0.08 0.51 -2.40 14.38 3.16 -0.43 -0.17 6876
1.91 -0.06 0.35 -2.59 14.65 3.43 -0.40 -0.17 6882
1.83 -0.06 1.14 -3.01 15.03 3.75 -0.43 -0.20 6888
1.71 -0.07 2.16 -3.31 16.14 4.08 -0.47 -0.27 6894
1.65 -0.06 2.96 -3.53 16.77 4.25 -0.63 -0.43 6901
1.54 -0.05 3.37 -3.46 17.06 4.28 -0.86 -0.58 6907
1.34 -0.04 2.72 -3.54 18.39 4.28 -1.14 -0.73 6914
1.18 -0.06 3.06 -4.62 20.03 4.28 -1.34 -0.85 6920
1.00 -0.05 1.42 -7.77 22.53 4.28 -1.55 -0.99 6927
0.94 -0.06 2.71 -8.51 25.69 4.28 -1.59 -1.09 6933
0.84 -0.06 3.02 -10.74 30.31 4.28 -1.57 -1.16 6939
0.72 -0.03 2.90 -14.79 33.85 4.28 -1.31 -1.12 6945
0.59 -0.04 4.07 -15.83 31.49 4.28 -0.83 -1.10 6952
0.48 -0.03 3.17 -12.27 27.16 4.28 -0.41 -1.13 6959
0.38 -0.02 1.93 -8.15 28.20 4.28 -0.12 -1.14 6965
0.29 -0.02 1.58 -5.25 30.72 4.28 -0.13 -1.14 6971
0.23 -0.02 2.27 -2.79 30.78 4.28 -0.49 -1.23 6978
0.17 -0.02 4.89 0.66 29.42 4.28 -0.95 -1.34 6984
0.14 -0.01 7.24 3.99 28.91 4.28 -1.28 -1.40 6990
0.13 -0.01 8.88 7.07 28.27 4.28 -1.34 -1.43 6996
0.09 -0.01 8.78 9.89 24.53 4.28 -1.04 -1.43 7003
0.07 -0.01 11.41 16.48 20.30 4.28 -0.59 -1.61 7010
0.07 -0.01 7.92 17.20 7.11 4.28 -0.26 -2.01 7016
0.07 -0.01 7.81 22.55 -1.87 3.73 -0.47 -2.35 7022
0.06 -0.01 7.20 21.18 17.74 1.69 -0.08 -2.52 7028
0.07 -0.01 8.26 15.67 29.06 -0.30 0.76 -2.33 7034
0.06 -0.01 6.41 13.14 23.89 -1.78 1.12 -2.02 7042
0.06 -0.00 3.89 13.06 17.29 -2.72 1.11 -1.66 7048
0.07 -0.01 2.99 12.78 13.23 -3.43 0.90 -1.27 7054
0.06 0.00 2.92 10.65 10.38 -3.92 0.72 -0.89 7060
0.08 -0.01 3.54 8.65 9.25 -4.13 0.60 -0.59 7067
0.07 -0.01 3.86 6.91 7.92 -4.18 0.58 -0.33 7073
0.06 -0.01 3.92 5.65 6.97 -4.17 0.67 -0.10 7079
0.07 -0.01 3.80 4.85 6.38 -4.13 0.76 0.08 7086
0.08 -0.01 3.81 4.23 6.11 -4.08 0.91 0.19 7092
0.06 -0.01 3.63 3.59 6.29 -4.02 1.03 0.28 7098
0.07 -0.01 3.14 3.07 6.56 -3.98 1.12 0.33 7104
0.07 -0.01 2.67 2.56 7.26 -3.97 1.17 0.36 7110
0.08 -0.01 2.28 2.17 8.13 -3.99 1.14 0.38 7116
0.07 -0.01 1.87 2.04 8.97 -4.03 1.14 0.39 7122
0.06 -0.01 1.60 2.05 9.55 -4.09 1.12 0.41 7130
0.05 -0.00 1.45 2.02 10.31 -4.17 1.13 0.45 7136
0.06 -0.01 1.29 1.82 11.02 -4.24 1.14 0.48 7142
0.06 -0.01 1.21 1.48 11.73 -4.28 1.14 0.52 7148
0.05 -0.01 1.10 1.00 12.37 -4.28 1.15 0.54 7154
0.05 -0.01 1.12 0.49 12.72 -4.28 1.17 0.54 7160
0.05 -0.00 1.17 -0.08 12.99 -4.28 1.22 0.53 7168
0.04 -0.00 1.20 -0.73 13.28 -4.28 1.33 0.50 7174
0.06 -0.01 1.25 -1.36 13.62 -4.28 1.41 0.44 7180
0.05 -0.00 1.23 -2.22 13.95 -4.28 1.55 0.34 7186
0.03 -0.00 1.12 -3.11 14.48 -4.28 1.71 0.28 7192
0.04 -0.00 0.91 -3.89 15.37 -4.28 1.88 0.18 7198
0.05 -0.00 0.67 -4.69 16.19 -4.28 2.07 0.08 7205
0.03 -0.00 0.46 -5.11 16.96 -4.28 2.25 -0.01 7212
0.04 -0.00 0.20 -5.29 17.42 -4.28 2.39 -0.08 7218
0.04 -0.00 0.11 -5.25 17.96 -4.27 2.49 -0.11 7224
0.04 -0.00 0.05 -5.10 18.64 -4.24 2.56 -0.11 7230
0.04 -0.00 -0.11 -5.20 19.68 -4.21 2.63 -0.06 7236
0.06 -0.01 -0.40 -5.62 20.61 -4.18 2.64 0.02 7243
0.05 -0.00 -0.77 -6.40 21.29 -4.14 2.66 0.10 7249
0.04 -0.00 -1.17 -7.37 21.95 -4.08 2.61 0.21 7256
0.06 -0.00 -1.63 -8.37 22.77 -4.00 2.47 0.32 7262
0.04 -0.00 -1.71 -9.73 23.10 -3.88 2.27 0.41 7268
0.04 -0.00 -1.61 -10.81 23.60 -3.75 2.06 0.50 7274
0.06 -0.01 -1.18 -11.89 23.25 -3.62 1.87 0.58 7281
0.04 -0.00 -0.68 -12.86 22.31 -3.49 1.73 0.63 7287
0.04 0.00 -0.10 -13.89 21.38 -3.33 1.66 0.68 7293
0.04 0.00 0.43 -15.21 20.42 -3.16 1.66 0.74 7300
0.03 -0.00 -4.22 -28.72 14.28 -2.81 1.50 0.90 7307
0.05 -0.00 1.84 -13.24 6.72 -1.61 1.44 1.08 7313
0.04 0.00 0.05 -15.66 11.79 -2.50 1.44 1.15 7319
0.04 -0.00 -3.04 -21.88 23.10 -2.31 1.34 1.39 7325
0.06 -0.01 -2.54 -17.98 11.61 -2.15 1.64 1.72 7331
0.05 -0.00 -5.57 -16.69 20.61 -2.27 2.05 1.97 7339
0.05 -0.01 -3.49 -20.76 22.42 -2.22 2.45 2.19 7345
0.05 -0.00 -5.63 -21.38 17.16 -2.30 2.36 2.34 7351
0.04 0.00 -7.72 -26.84 16.04 -2.37 1.97 2.41 7357
0.06 -0.00 -9.75 -31.57 4.11 -2.15 1.29 2.43 7364
0.05 -0.00 -10.75 -28.00 -4.78 -1.72 0.80 2.37 7370
0.04 0.00 -10.07 -37.07 -1.92 -1.66 0.42 2.23 7376
0.05 -0.01 -12.58 -33.18 2.30 -0.56 -0.22 2.00 7383
0.04 -0.00 -9.94 -37.47 -4.23 -0.11 -0.13 1.72 7390
0.05 0.00 -10.14 -33.65 -2.29 0.85 -0.49 1.41 7396
0.05 0.00 -8.62 -35.25 -1.40 1.50 -0.70 1.02 7402
0.04 0.02 -10.56 -38.16 0.29 2.07 -1.27 0.70 7408
0.06 0.09 -10.49 -36.39 -4.31 2.48 -2.10 0.54 7415
0.05 0.20 -11.24 -25.91 -4.79 2.91 -3.19 0.57 7421
0.03 0.37 -1.86 3.14 11.03 4.02 -3.12 0.53 7428
0.01 0.65 -1.01 -4.78 29.02 4.28 -1.75 0.71 7434
-0.00 1.02 -0.50 1.48 28.56 4.28 -1.33 0.81 7441
0.00 1.16 -8.79 -4.62 31.54 4.28 -1.67 0.49 7447
-0.02 1.28 -6.05 -5.26 26.35 4.27 -1.87 -0.02 7453
-0.02 1.27 -2.81 -7.35 23.72 4.13 -1.30 -0.30 7459
-0.02 1.33 -0.54 -5.55 29.55 4.13 -0.57 -0.47 7467
-0.01 1.30 3.94 0.30 19.22 1.04 -1.62 -0.39 7473
0.00 1.34 2.62 -3.87 11.52 0.10 -0.41 0.05 7479
0.01 1.35 0.46 -1.85 10.83 -0.01 -0.13 0.15 7485
0.01 1.30 0.25 -0.60 10.15 0.04 -0.14 0.15 7491
0.02 1.20 0.20 -0.16 9.93 0.04 -0.10 0.10 7498
0.01 1.19 0.66 -0.50 9.98 0.01 -0.05 0.07 7504
-0.00 1.21 0.99 -1.05 9.99 -0.03 -0.05 0.08 7511
0.03 1.23 0.76 -0.62 10.09 -0.04 -0.06 0.09 7517
0.05 1.21 0.52 -0.89 10.12 -0.03 -0.06 0.09 7523
0.05 1.21 0.57 -0.80 10.04 -0.03 -0.05 0.08 7529
0.07 1.24 0.72 -0.90 10.07 -0.05 -0.06 0.07 7536
0.08 1.27 0.74 -0.78 10.11 -0.05 -0.07 0.07 7542
0.06 1.30 0.59 -0.71 9.99 -0.04 -0.07 0.07 7548
0.08 1.35 0.62 -0.73 10.02 -0.04 -0.06 0.06 7555
0.09 1.33 0.63 -0.66 9.95 -0.03 -0.06 0.06 7561
0.09 1.32 0.60 -0.66 9.96 -0.03 -0.05 0.06 7567
0.10 1.29 0.62 -0.66 10.00 -0.02 -0.04 0.05 7574
0.14 1.23 0.67 -0.66 10.19 -0.01 -0.02 0.05 7580
0.15 1.20 1.09 -0.82 9.44 -0.01 -0.02 0.05 7586
0.15 1.11 0.64 -0.71 10.04 -0.00 -0.02 0.06 7592
0.15 1.03 0.69 -0.70 10.06 0.01 -0.02 0.06 7599
0.14 0.93 0.66 -0.73 10.08 0.01 -0.02 0.06 7606
0.17 0.87 0.65 -0.74 10.06 0.02 -0.02 0.06 7612
0.20 0.82 0.68 -0.71 10.05 0.02 -0.02 0.06 7618
0.21 0.75 0.72 -0.74 10.07 0.02 -0.02 0.05 7624
0.21 0.73 0.70 -0.68 10.03 0.02 -0.02 0.05 7630
0.22 0.63 0.81 -0.56 9.86 0.03 -0.02 0.05 7638
0.23 0.53 0.76 -0.66 10.00 0.03 -0.02 0.05 7644
0.25 0.48 0.79 -0.76 10.03 0.07 -0.02 0.04 7650
0.25 0.43 0.78 -0.73 9.95 0.03 -0.03 0.04 7656
0.24 0.35 0.75 -0.73 9.92 0.03 -0.03 0.03 7662
0.29 0.31 0.74 -0.77 9.96 0.03 -0.04 0.03 7668
0.30 0.24 0.75 -0.78 10.00 0.03 -0.04 0.03 7675
0.31 0.20 0.73 -0.76 9.99 0.03 -0.05 0.02 7682
0.32 0.17 0.71 -0.80 10.05 0.03 -0.05 0.02 7688
0.36 0.15 0.69 -0.76 10.06 0.03 -0.04 0.02 7694
0.38 0.12 0.62 -0.72 10.03 0.03 -0.04 0.02 7700
0.41 0.08 0.68 -0.76 10.00 0.04 -0.04 0.02 7706
0.43 0.04 0.63 -0.77 10.02 0.04 -0.04 0.02 7713
0.45 0.03 0.66 -0.78 10.10 0.05 -0.03 0.03 7719
0.50 0.01 0.70 -0.77 10.05 0.06 -0.03 0.02 7726
0.56 -0.01 0.73 -0.80 10.01 0.07 -0.06 0.02 7732
0.59 -0.02 0.74 -0.84 10.05 0.08 -0.03 0.01 7738
0.63 -0.02 0.74 -0.84 9.94 0.09 -0.04 0.00 7744
0.67 -0.02 0.59 -0.85 9.88 0.10 -0.04 -0.00 7751
0.70 -0.03 0.66 -0.84 10.11 0.11 -0.04 -0.00 7757
0.76 -0.05 0.80 -0.96 9.97 0.13 -0.04 -0.02 7763
0.80 -0.03 0.78 -0.87 10.06 0.14 -0.04 -0.02 7770
0.87 -0.04 0.63 -0.84 10.02 0.14 -0.05 -0.03 7776
0.88 -0.05 0.67 -0.96 9.99 0.15 -0.05 -0.03 7782
0.95 -0.02 0.81 -0.93 9.98 0.16 -0.05 -0.04 7789
0.97 -0.04 0.73 -0.99 10.04 0.16 -0.06 -0.04 7795
0.98 -0.04 0.79 -1.00 10.03 0.17 -0.06 -0.05 7801
1.04 -0.04 0.83 -0.96 10.07 0.18 -0.06 -0.05 7808
1.09 -0.05 0.81 -0.99 10.07 0.20 -0.07 -0.07 7814
1.17 -0.05 0.72 -1.03 10.14 0.23 -0.07 -0.07 7821
1.20 -0.06 0.75 -1.02 10.06 0.25 -0.09 -0.08 7827
1.24 -0.07 0.75 -1.06 10.17 0.28 -0.09 -0.08 7833
1.27 -0.05 0.73 -1.04 10.22 0.33 -0.10 -0.08 7839
1.32 -0.06 0.62 -1.14 10.31 0.38 -0.11 -0.08 7846
1.35 -0.08 0.80 -1.22 10.41 0.44 -0.12 -0.08 7853
1.41 -0.07 0.73 -1.20 10.41 0.51 -0.14 -0.09 7859
1.47 -0.07 0.85 -1.31 10.54 0.58 -0.15 -0.10 7865
1.55 -0.07 0.91 -1.29 10.80 0.65 -0.17 -0.11 7871
1.63 -0.06 1.01 -1.43 10.75 0.73 -0.19 -0.13 7878
1.67 -0.08 0.83 -1.52 11.06 0.82 -0.22 -0.14 7884
1.71 -0.07 0.78 -1.54 11.04 0.90 -0.24 -0.15 7890
1.81 -0.08 0.79 -1.55 11.27 0.99 -0.26 -0.16 7897
1.82 -0.08 0.64 -1.65 11.31 1.10 -0.29 -0.16 7904
1.89 -0.08 0.74 -1.76 11.57 1.22 -0.32 -0.15 7910
1.92 -0.08 0.72 -1.79 11.93 1.33 -0.34 -0.15 7916
1.97 -0.05 0.69 -1.85 12.25 1.45 -0.37 -0.15 7922
1.99 -0.07 0.59 -1.96 12.24 1.56 -0.41 -0.15 7929
1.98 -0.08 0.31 -2.06 12.27 1.72 -0.44 -0.13 7936
2.02 -0.07 0.35 -2.17 12.73 1.90 -0.48 -0.11 7942
2.09 -0.07 0.34 -2.15 13.15 2.08 -0.49 -0.09 7948
2.09 -0.08 0.26 -2.43 13.34 2.27 -0.49 -0.08 7954
2.11 -0.04 0.34 -2.28 13.48 2.46 -0.47 -0.08 7961
2.15 -0.06 0.47 -3.03 13.48 2.68 -0.44 -0.10 7967
2.12 -0.07 0.70 -3.06 13.87 2.90 -0.39 -0.13 7973
2.09 -0.08 0.91 -2.83 13.63 3.16 -0.37 -0.20 7980
2.05 -0.07 0.78 -3.01 14.14 3.43 -0.38 -0.23 7987
1.96 -0.07 0.66 -3.14 14.32 3.75 -0.40 -0.24 7993
1.85 -0.06 0.23 -3.19 15.54 4.09 -0.39 -0.25 7999
1.76 -0.07 1.49 -3.25 16.37 4.28 -0.54 -0.29 8005
1.61 -0.05 2.91 -4.06 17.12 4.28 -0.71 -0.41 8012
1.45 -0.05 2.90 -4.20 18.53 4.28 -0.86 -0.59 8018
1.26 -0.06 2.56 -5.42 20.17 4.28 -1.03 -0.74 8025
1.15 -0.05 2.47 -7.72 23.27 4.28 -1.22 -0.85 8031
1.02 -0.06 2.39 -10.26 26.96 4.28 -1.35 -0.94 8038
0.87 -0.03 2.23 -13.85 30.84 4.28 -1.25 -0.99 8044
0.75 -0.05 2.13 -17.34 34.19 4.28 -0.98 -0.96 8050
0.61 -0.04 3.76 -15.98 31.02 4.28 -0.58 -0.93 8056
0.49 -0.03 2.77 -13.15 27.89 4.28 -0.31 -0.99 8064
0.38 -0.03 2.27 -8.70 28.27 4.28 -0.08 -1.00 8070
0.29 -0.03 1.72 -5.24 30.03 4.28 0.01 -1.03 8076
0.22 -0.02 2.67 -3.86 33.22 4.28 -0.30 -1.12 8082
0.17 -0.02 4.58 -0.02 30.87 4.28 -0.77 -1.22 8088
0.16 -0.02 7.69 4.02 31.24 4.28 -1.09 -1.30 8095
0.10 -0.01 9.29 6.53 30.95 4.28 -1.10 -1.34 8101
0.09 -0.01 9.75 10.83 25.49 4.28 -0.73 -1.37 8108
0.08 -0.01 10.03 17.93 20.53 4.28 -0.24 -1.70 8114
0.04 -0.00 8.80 20.09 0.24 4.21 0.15 -2.19 8120
0.04 -0.00 8.16 23.90 0.09 3.21 -0.24 -2.60 8127
0.08 -0.01 7.88 19.70 23.89 1.27 0.29 -2.66 8133
0.06 -0.01 9.16 14.37 29.86 -0.65 1.14 -2.47 8139
0.06 -0.01 6.36 12.56 23.27 -2.09 1.41 -2.16 8145
0.06 -0.01 3.77 12.41 16.29 -2.93 1.24 -1.82 8152
0.06 -0.01 2.36 11.58 14.60 -3.55 0.87 -1.45 8159
0.06 0.01 3.03 9.77 10.81 -4.05 0.57 -1.11 8165
0.06 -0.01 3.73 7.94 9.30 -4.21 0.41 -0.84 8171
0.06 -0.01 4.25 6.28 8.12 -4.24 0.37 -0.62 8177
0.05 -0.01 4.33 4.95 7.16 -4.23 0.43 -0.41 8183
0.07 -0.01 4.49 3.92 6.54 -4.21 0.57 -0.24 8189
0.06 -0.01 4.68 3.41 6.00 -4.15 0.72 -0.11 8196
0.05 -0.00 4.70 2.86 5.92 -4.07 0.91 -0.01 8203
0.06 -0.01 4.40 2.38 6.10 -3.98 1.06 0.01 8209
0.08 -0.01 3.86 2.10 6.76 -3.90 1.19 0.05 8215
0.06 -0.01 3.45 1.92 7.55 -3.86 1.27 0.09 8221
0.06 -0.01 3.07 1.83 8.67 -3.86 1.33 0.12 8227
0.06 -0.01 2.69 1.80 9.59 -3.91 1.36 0.18 8233
0.07 -0.01 2.28 1.82 10.44 -4.02 1.38 0.24 8240
0.06 -0.01 1.95 1.70 11.14 -4.13 1.38 0.33 8246
0.07 -0.01 1.67 1.44 11.99 -4.23 1.34 0.41 8253
0.07 -0.01 1.67 0.81 12.86 -4.28 1.30 0.48 8259
0.07 -0.01 1.64 0.45 13.57 -4.28 1.28 0.53 8265
0.07 -0.01 1.98 0.00 13.94 -4.28 1.32 0.57 8271
0.07 -0.01 2.23 -0.54 14.29 -4.28 1.39 0.58 8278
0.06 -0.01 2.31 -1.12 14.84 -4.28 1.55 0.57 8284
0.06 -0.01 2.45 -1.84 15.44 -4.28 1.72 0.53 8290
0.07 -0.00 2.43 -2.56 15.97 -4.28 1.98 0.48 8297
0.05 -0.00 2.28 -3.45 16.57 -4.28 2.26 0.41 8303
0.05 -0.00 1.88 -4.45 17.72 -4.28 2.54 0.35 8309
0.06 0.00 1.39 -5.35 18.33 -4.28 2.75 0.29 8315
0.05 -0.01 0.57 -6.09 18.37 -4.28 2.86 0.23 8322
0.06 -0.01 -0.12 -6.64 18.99 -4.28 2.85 0.19 8329
0.06 0.00 -0.55 -6.87 19.60 -4.28 2.77 0.19 8335
0.05 -0.01 -0.76 -6.93 19.88 -4.28 2.65 0.24 8341
0.04 -0.00 -0.39 -7.09 20.02 -4.21 2.54 0.31 8347
0.05 -0.01 0.10 -7.35 20.48 -4.19 2.43 0.38 8353
0.06 -0.01 0.29 -7.78 21.29 -4.10 2.31 0.46 8360
0.05 -0.01 0.45 -8.50 22.48 -3.98 2.27 0.55 8367
0.05 -0.01 0.73 -9.23 24.04 -3.85 2.22 0.66 8373
0.06 -0.01 0.92 -10.05 25.58 -3.75 2.15 0.77 8379
0.04 -0.00 0.86 -11.29 25.62 -3.70 2.08 0.91 8385
0.05 0.00 0.84 -12.46 25.33 -3.68 1.98 1.06 8391
0.05 -0.00 0.66 -13.74 24.42 -3.67 1.87 1.23 8398
0.04 -0.00 0.58 -15.05 23.27 -3.61 1.77 1.41 8404
0.05 0.00 0.38 -16.58 21.94 -3.50 1.69 1.58 8411
0.04 0.00 -0.05 -17.81 20.70 -3.32 1.66 1.75 8417
0.04 0.00 -0.75 -18.65 19.29 -3.11 1.70 1.92 8424
0.05 -0.01 -2.14 -18.58 17.17 -2.89 1.87 2.10 8430
0.05 -0.00 -3.91 -18.70 16.74 -2.70 2.29 2.31 8436
0.05 0.01 -5.18 -20.42 17.09 -2.59 2.57 2.46 8442
0.04 -0.00 -6.52 -22.61 16.97 -2.52 2.43 2.50 8450
0.04 -0.00 -8.15 -25.70 14.72 -2.45 2.01 2.47 8456
0.06 -0.01 -8.68 -28.08 11.58 -2.36 1.54 2.38 8462
0.05 -0.00 -8.24 -29.85 7.35 -2.20 1.12 2.21 8468
0.04 0.00 -8.35 -32.44 4.26 -1.91 0.86 1.95 8474
0.05 -0.00 -8.36 -34.39 1.81 -1.61 0.77 1.63 8481
0.06 -0.01 -8.31 -35.16 0.99 -1.13 0.75 1.26 8487
0.05 -0.00 -8.09 -34.13 1.12 -0.60 0.71 0.85 8494
0.06 -0.01 -7.93 -31.51 2.33 -0.06 0.67 0.45 8500
0.05 -0.01 -9.66 -35.17 -1.10 0.43 0.41 0.15 8506
0.05 -0.00 -19.57 -33.96 19.89 3.05 -1.46 0.18 8513
0.06 -0.01 -12.63 -25.42 8.36 3.12 -1.64 0.16 8519
0.05 0.01 -10.41 -23.31 -0.66 3.26 -2.80 0.14 8525
0.05 0.08 -2.47 -19.46 2.22 3.10 -4.10 0.15 8531
0.04 0.23 2.58 6.20 5.44 3.03 -4.18 0.19 8539
0.03 0.46 4.85 0.35 21.08 3.62 -2.16 0.71 8545
0.02 0.75 4.96 5.64 18.47 4.07 -0.72 1.32 8551
-0.02 1.12 -7.68 -3.05 22.93 4.28 -0.91 1.30 8557
-0.01 1.25 -11.53 -7.32 27.37 4.28 -1.49 0.72 8564
-0.02 1.42 -5.02 -5.53 23.42 4.28 -1.47 0.27 8570
-0.02 1.50 -3.88 -4.73 25.75 4.23 -0.92 0.01 8577
-0.01 1.50 -3.72 -3.20 25.09 3.73 -0.65 -0.35 8583
-0.02 1.51 1.42 -2.52 19.70 3.10 -0.74 -0.69 8589
-0.01 1.49 5.04 -3.46 26.86 2.33 -1.69 -0.58 8596
-0.01 1.46 4.23 -2.24 12.67 0.84 -1.49 -0.05 8602
-0.01 1.42 1.14 -2.35 12.89 0.48 -0.96 0.20 8608
0.00 1.47 -0.03 -1.07 11.41 0.20 -0.49 0.25 8614
-0.01 1.46 -0.64 -0.76 10.93 0.05 -0.23 0.17 8622
-0.03 1.42 0.08 -1.02 10.44 -0.00 -0.12 0.06 8628
-0.00 1.43 0.81 -1.28 10.04 -0.03 -0.10 0.05 8634
0.01 1.42 1.00 -1.00 9.93 -0.03 -0.10 0.08 8640
0.01 1.46 0.53 -0.78 10.32 -0.04 -0.11 0.08 8646
0.02 1.41 0.53 -0.71 10.09 -0.05 -0.12 0.06 8653
0.04 1.38 0.59 -0.75 10.10 -0.05 -0.11 0.05 8659
0.08 1.36 0.70 -0.73 10.02 -0.05 -0.10 0.05 8666
0.08 1.29 0.55 -0.64 10.03 -0.04 -0.09 0.05 8672
0.11 1.27 0.58 -0.67 10.11 -0.03 -0.07 0.04 8678
0.11 1.21 0.63 -0.77 10.11 -0.02 -0.07 0.04 8685
0.14 1.12 0.61 -0.71 10.13 -0.01 -0.05 0.04 8691
0.16 1.07 0.71 -0.76 10.09 0.01 -0.04 0.04 8697
0.15 1.02 0.62 -0.71 9.35 0.01 -0.03 0.04 8704
0.18 0.95 0.61 -0.72 10.11 0.02 -0.03 0.04 8710
0.18 0.79 0.65 -0.67 10.05 0.02 -0.02 0.04 8717
0.21 0.73 0.63 -0.72 10.05 0.03 -0.02 0.04 8723
0.21 0.69 0.68 -0.70 10.05 0.03 -0.02 0.05 8729
0.25 0.59 0.71 -0.72 10.03 0.04 -0.02 0.05 8735
0.26 0.50 0.68 -0.24 10.09 0.05 -0.02 0.04 8741
0.28 0.47 0.70 -0.74 10.01 0.05 -0.02 0.04 8748
0.32 0.37 0.76 -0.75 9.99 0.06 -0.02 0.04 8755
0.35 0.31 0.72 -0.81 9.96 0.05 -0.02 0.03 8761
0.40 0.25 0.74 -0.80 10.00 0.06 -0.03 0.03 8767
0.40 0.19 0.74 -0.56 10.15 0.05 -0.03 0.02 8773
0.39 0.13 0.79 -0.75 10.06 0.05 -0.04 0.01 8779
0.43 0.11 0.67 -0.77 10.01 0.06 -0.04 0.01 8786
0.46 0.07 0.80 -0.77 10.15 0.06 -0.05 0.00 8793
0.51 0.03 0.74 -0.74 10.14 0.07 -0.05 0.00 8799
0.57 0.01 0.63 -0.84 10.09 0.08 -0.05 0.00 8805
0.57 -0.02 0.64 -0.83 10.10 0.10 -0.06 0.00 8811
0.63 -0.01 0.66 -0.74 10.14 0.11 -0.06 -0.00 8817
0.71 0.01 0.68 -0.86 10.14 0.13 -0.07 -0.01 8824
0.74 -0.04 0.66 -0.83 10.03 0.15 -0.08 -0.02 8830
0.77 -0.03 0.73 -0.90 10.09 0.17 -0.08 -0.02 8837
0.81 -0.03 0.73 -0.87 10.10 0.19 -0.09 -0.03 8843
0.84 -0.05 0.75 -0.96 10.03 0.20 -0.09 -0.04 8849
0.88 -0.05 0.74 -0.98 10.05 0.21 -0.09 -0.05 8856
0.91 -0.04 0.81 -1.00 10.02 0.22 -0.10 -0.06 8862
0.98 -0.06 0.74 -1.04 10.12 0.23 -0.11 -0.07 8868
1.03 -0.04 0.81 -1.05 10.04 0.25 -0.11 -0.08 8875
1.07 -0.06 0.82 -1.08 10.09 0.26 -0.12 -0.09 8882
1.11 -0.06 0.62 -0.98 9.61 0.28 -0.12 -0.10 8888
1.16 -0.04 0.82 -1.14 10.07 0.29 -0.12 -0.11 8894
1.18 -0.06 0.68 -1.13 9.98 0.29 -0.13 -0.11 8900
1.20 -0.06 0.67 -1.18 9.91 0.30 -0.13 -0.12 8906
1.23 -0.05 0.57 -1.18 9.94 0.29 -0.13 -0.12 8912
1.30 -0.07 0.62 -1.17 10.07 0.29 -0.13 -0.11 8920
1.34 -0.06 0.69 -1.24 9.90 0.28 -0.13 -0.11 8926
1.37 -0.06 0.65 -1.26 9.99 0.28 -0.13 -0.11 8932
1.40 -0.05 0.61 -1.26 10.06 0.29 -0.13 -0.11 8938
1.42 -0.07 0.58 -1.29 10.15 0.31 -0.14 -0.10 8944
1.49 -0.07 0.65 -1.31 10.23 0.34 -0.14 -0.10 8951
1.52 -0.07 0.66 -1.38 10.37 0.38 -0.15 -0.10 8957
1.55 -0.06 0.68 -1.42 10.36 0.43 -0.16 -0.11 8964
1.62 -0.07 0.60 -1.52 10.47 0.49 -0.16 -0.11 8970
1.63 -0.08 0.62 -1.49 10.53 0.55 -0.19 -0.11 8977
1.70 -0.06 0.74 -1.57 10.86 0.63 -0.19 -0.12 8983
1.74 -0.07 0.71 -1.64 10.62 0.68 -0.22 -0.13 8989
1.86 -0.07 0.72 -1.70 10.92 0.79 -0.25 -0.14 8995
1.90 -0.06 0.63 -1.70 10.78 0.85 -0.28 -0.16 9003
1.94 -0.08 0.66 -1.80 11.50 0.95 -0.31 -0.17 9009
2.00 -0.06 0.81 -1.98 11.88 1.08 -0.35 -0.17 9015
2.04 -0.08 0.66 -1.90 11.88 1.23 -0.39 -0.18 9021
2.06 -0.08 0.68 -2.01 12.22 1.38 -0.46 -0.19 9027
2.11 -0.08 0.65 -2.05 12.29 1.55 -0.46 -0.18 9034
2.11 -0.08 0.40 -2.08 12.34 1.71 -0.50 -0.17 9040
2.14 -0.09 0.23 -2.17 12.67 1.88 -0.53 -0.15 9047
2.16 -0.09 0.20 -2.19 12.46 2.06 -0.56 -0.13 9053
2.16 -0.09 0.27 -2.33 12.98 2.23 -0.57 -0.11 9060
2.19 -0.07 0.38 -2.59 13.03 2.40 -0.55 -0.11 9066
2.19 -0.06 0.53 -2.64 13.28 2.59 -0.52 -0.12 9072
2.17 -0.08 0.49 -2.74 13.72 2.80 -0.50 -0.15 9078
2.14 -0.06 0.16 -3.71 17.03 3.05 -0.50 -0.19 9084
2.09 -0.08 0.42 -2.95 14.28 3.35 -0.53 -0.26 9092
2.08 -0.08 1.50 -3.42 14.58 3.68 -0.51 -0.33 9098
2.00 -0.06 0.80 -3.47 15.29 4.05 -0.59 -0.38 9104
1.88 -0.08 0.74 -3.47 16.61 4.27 -0.63 -0.43 9110
1.70 -0.06 1.77 -3.48 17.82 4.28 -0.76 -0.48 9117
1.55 -0.06 0.98 -5.89 18.49 4.28 -0.92 -0.61 9123
1.36 -0.06 3.26 -5.58 20.22 4.28 -1.05 -0.74 9129
1.19 -0.06 2.62 -6.51 22.66 4.28 -1.24 -0.88 9136
1.07 -0.07 2.05 -9.89 26.89 4.28 -1.29 -0.95 9143
0.92 -0.05 1.15 -14.49 31.46 4.28 -1.16 -0.94 9149
0.74 -0.04 1.61 -15.90 34.51 4.28 -0.84 -0.88 9155
0.61 -0.03 2.22 -16.86 32.12 4.28 -0.40 -0.81 9161
0.53 -0.03 1.83 -13.32 28.02 4.28 -0.10 -0.86 9168
0.39 -0.03 0.70 -9.14 29.17 4.28 0.21 -0.86 9175
0.33 -0.02 0.71 -4.96 32.58 4.28 0.24 -0.89 9181
0.24 -0.02 1.63 -2.45 32.71 4.28 -0.25 -1.01 9187
0.18 -0.02 3.55 1.04 30.35 4.28 -0.87 -1.14 9194
0.17 -0.02 6.77 5.16 29.84 4.28 -1.31 -1.23 9200
0.10 -0.01 8.83 7.77 29.93 4.28 -1.49 -1.29 9206
0.07 -0.01 8.38 9.31 26.16 4.28 -1.29 -1.32 9212
0.10 -0.01 9.88 16.30 23.33 4.28 -0.80 -1.58 9219
0.07 -0.01 8.78 17.83 4.71 4.28 -0.58 -2.01 9225
0.07 -0.01 9.61 23.56 -0.32 3.71 -0.84 -2.35 9232
0.10 0.00 8.34 22.35 18.21 1.30 -0.33 -2.53 9238
0.08 -0.00 9.33 16.56 29.10 -0.74 0.74 -2.33 9244
0.07 -0.01 6.71 13.15 22.98 -2.18 1.14 -2.03 9250
0.07 -0.01 4.25 12.65 16.67 -3.05 1.06 -1.70 9257
0.08 -0.01 2.95 12.00 12.71 -3.70 0.78 -1.34 9264
0.09 0.02 3.30 10.33 10.62 -4.13 0.56 -1.02 9270
0.09 0.00 4.28 8.59 9.41 -4.26 0.46 -0.75 9276
0.08 -0.01 5.02 7.14 8.19 -4.28 0.49 -0.53 9282
0.08 -0.00 5.16 5.77 7.28 -4.28 0.65 -0.33 9289
0.07 -0.00 4.96 4.79 6.83 -4.28 0.89 -0.14 9295
0.07 -0.01 4.85 4.01 6.53 -4.28 1.11 -0.01 9302
0.07 -0.00 4.54 3.39 6.88 -4.28 1.33 0.07 9308
0.09 -0.01 3.93 2.58 7.46 -4.28 1.47 0.14 9314
0.07 -0.00 3.39 1.97 8.03 -4.28 1.52 0.19 9320
0.08 -0.01 2.94 1.53 8.64 -4.28 1.51 0.24 9326
0.08 -0.00 2.45 1.24 9.10 -4.28 1.48 0.31 9332
0.09 -0.01 2.01 1.13 9.52 -4.28 1.43 0.40 9339
0.08 -0.01 1.77 0.94 9.84 -4.28 1.39 0.50 9346
0.08 -0.01 1.67 0.69 10.51 -4.28 1.35 0.60 9352
0.09 0.01 1.70 0.32 11.27 -4.28 1.31 0.68 9358
0.10 -0.01 1.81 0.06 12.05 -4.28 1.29 0.76 9364
0.09 -0.01 1.95 -0.12 13.05 -4.28 1.31 0.81 9370
0.10 0.00 2.10 -0.41 13.96 -4.28 1.39 0.82 9377
0.10 -0.01 2.18 -0.97 14.66 -4.28 1.53 0.79 9383
0.08 -0.01 2.07 -1.77 15.43 -4.28 1.74 0.72 9390
0.08 0.01 1.87 -2.79 16.18 -4.28 1.99 0.61 9396
0.07 -0.00 1.42 -3.79 16.98 -4.28 2.24 0.47 9402
0.07 -0.00 0.63 -4.92 17.58 -4.28 2.47 0.31 9409
0.08 0.00 -0.25 -6.06 18.03 -4.28 2.66 0.14 9415
0.07 -0.00 -0.96 -6.84 18.27 -4.28 2.77 -0.04 9421
0.07 -0.00 -1.92 -7.08 18.56 -4.28 2.79 -0.19 9427
0.09 -0.00 -2.56 -6.97 18.83 -4.27 2.74 -0.28 9434
0.08 -0.01 -2.96 -6.84 18.73 -4.21 2.60 -0.32 9441
0.06 0.00 -3.06 -6.73 18.29 -4.11 2.41 -0.31 9447
0.07 -0.00 -2.85 -6.82 18.26 -3.94 2.21 -0.24 9453
0.07 -0.01 -2.43 -7.07 18.85 -3.70 2.02 -0.21 9459
0.07 0.00 -1.97 -7.10 19.75 -3.47 1.86 -0.13 9465
0.07 -0.01 -1.59 -7.19 20.89 -3.25 1.76 -0.04 9473
0.07 -0.01 -1.44 -7.28 21.96 -3.09 1.68 0.04 9479
0.07 -0.00 -1.41 -7.71 22.83 -3.00 1.60 0.13 9485
0.07 -0.01 -1.40 -8.55 23.90 -2.97 1.53 0.23 9491
0.05 -0.01 -1.13 -9.73 23.99 -2.97 1.51 0.35 9497
0.06 -0.00 -0.74 -11.13 23.69 -2.98 1.55 0.48 9504
0.06 -0.01 -0.40 -12.39 22.80 -3.01 1.59 0.62 9510
0.05 -0.01 -0.20 -13.45 21.71 -3.02 1.65 0.78 9517
0.06 -0.01 -0.15 -14.57 21.04 -3.01 1.74 0.94 9523
0.07 -0.01 -0.36 -15.67 20.58 -2.98 1.76 1.13 9529
0.05 -0.01 -1.12 -16.67 20.43 -2.96 1.75 1.32 9536
0.07 -0.01 -2.17 -17.57 18.81 -2.98 1.70 1.52 9542
0.06 -0.01 -3.51 -18.15 17.35 -3.01 1.75 1.74 9548
0.06 -0.00 -4.29 -20.06 15.54 -3.04 1.93 1.95 9554
0.06 -0.01 -5.48 -21.67 13.71 -3.03 2.04 2.08 9562
0.05 -0.01 -6.88 -24.80 12.10 -2.97 2.00 2.18 9568
0.07 -0.01 -8.98 -28.22 8.84 -2.80 1.83 2.21 9574
0.06 -0.01 -9.36 -30.60 6.39 -2.53 1.57 2.19 9580
0.05 -0.01 -10.23 -32.72 3.25 -2.15 1.27 2.10 9586
0.07 -0.01 -10.72 -34.10 1.06 -1.69 0.97 1.93 9593
0.06 -0.01 -12.07 -42.55 -4.51 -1.14 0.58 1.65 9600
0.06 -0.01 -17.32 -31.78 2.88 1.19 -0.28 1.30 9606
0.07 -0.01 -14.21 -39.07 4.98 1.20 -0.44 0.96 9612
0.06 -0.01 -12.30 -30.04 -0.68 2.45 -1.31 0.60 9619
0.06 0.02 -11.07 -31.95 -2.33 2.62 -2.22 0.28 9625
0.05 0.15 -10.36 -35.84 -3.99 2.78 -3.14 -0.00 9631
0.05 0.27 -4.76 -7.71 -2.41 2.97 -3.80 -0.04 9637
0.05 0.49 0.27 -2.30 19.40 3.98 -2.57 0.11 9645
0.01 0.81 5.86 5.72 31.20 4.28 -0.69 0.47 9651
0.01 1.19 -3.73 -2.57 27.03 4.28 -0.90 0.49 9657
-0.00 1.45 -7.96 -7.08 32.76 4.28 -1.39 0.11 9663
-0.02 1.53 -2.05 -6.94 26.66 4.24 -1.36 -0.17 9669
-0.01 1.61 0.03 -4.61 25.49 3.95 -0.82 -0.22 9676
0.01 1.59 0.18 -1.92 22.01 3.27 -0.59 -0.27 9682
-0.02 1.50 1.76 -1.79 15.80 2.61 -0.66 -0.31 9689
0.00 1.45 3.52 -1.59 13.03 2.43 -0.65 -0.22 9695
0.01 1.44 3.00 -2.44 18.99 2.48 -1.14 -0.10 9702
0.00 1.43 1.81 -1.03 16.25 1.44 -1.89 0.02 9708
-0.00 1.34 0.42 -2.29 13.62 0.57 -1.09 0.20 9714
-0.00 1.37 -0.44 -2.28 11.57 0.11 -0.36 0.18 9720
-0.01 1.44 -0.32 -1.41 9.90 -0.01 -0.12 0.13 9726
-0.00 1.46 0.23 -1.05 10.49 -0.03 -0.08 0.05 9734
0.01 1.49 0.86 -0.98 10.27 -0.03 -0.07 0.05 9740
-0.00 1.54 0.89 -0.99 10.10 -0.03 -0.07 0.07 9746
0.02 1.54 0.59 -0.81 10.15 -0.04 -0.09 0.07 9752
-0.00 1.53 0.46 -0.65 10.03 -0.04 -0.09 0.06 9758
0.01 1.54 0.60 -0.67 10.05 -0.03 -0.07 0.06 9765
0.04 1.48 0.65 -0.70 9.98 -0.03 -0.06 0.06 9772
0.04 1.43 0.70 -0.66 10.00 -0.03 -0.06 0.06 9778
0.08 1.41 0.69 -0.66 9.98 -0.02 -0.06 0.06 9784
0.10 1.33 0.65 -0.72 10.12 -0.01 -0.06 0.06 9790
0.08 1.33 -0.14 -0.86 6.80 -0.01 -0.06 0.06 9796
0.10 1.28 0.61 -0.68 10.04 -0.00 -0.05 0.06 9803
0.13 1.19 0.68 -0.65 9.96 0.01 -0.05 0.06 9809
0.15 1.12 0.64 -0.68 10.06 0.01 -0.05 0.05 9816
0.18 1.04 0.63 -0.68 10.10 0.02 -0.04 0.05 9822
0.20 0.95 0.62 -0.72 10.11 0.02 -0.04 0.05 9828
0.18 0.86 0.68 -0.68 10.00 0.03 -0.03 0.05 9835
0.21 0.81 0.70 -0.71 10.04 0.03 -0.03 0.05 9841
0.23 0.69 0.77 -0.70 10.02 0.03 -0.03 0.05 9847
0.21 0.67 0.70 -0.70 10.06 0.03 -0.03 0.04 9853
0.24 0.62 0.77 -0.74 9.98 0.03 -0.03 0.04 9860
0.25 0.47 0.80 -1.35 9.92 0.03 -0.04 0.04 9866
0.26 0.46 0.73 -0.79 9.98 0.04 -0.04 0.03 9873
0.27 0.34 0.76 -0.71 9.99 0.03 -0.04 0.03 9879
0.30 0.32 0.73 -0.72 10.00 0.03 -0.05 0.03 9885
0.30 0.25 0.70 -0.86 10.01 0.03 -0.05 0.02 9891
0.32 0.22 0.70 -0.81 10.04 0.03 -0.05 0.02 9897
0.34 0.21 0.70 -0.71 10.01 0.03 -0.05 0.02 9904
0.37 0.13 0.67 -0.78 10.00 0.04 -0.05 0.02 9911
0.39 0.11 0.65 -0.73 10.23 0.04 -0.04 0.02 9917
0.43 0.10 0.62 -0.79 10.03 0.04 -0.04 0.02 9923
0.47 0.07 0.64 -0.78 10.00 0.05 -0.04 0.02 9929
0.50 0.05 0.65 -0.80 9.92 0.05 -0.04 0.03 9935
0.56 0.04 0.63 -0.82 10.05 0.05 -0.04 0.02 9943
0.56 0.00 0.69 -0.81 9.96 0.06 -0.04 0.02 9949
0.57 0.01 0.68 -0.90 9.96 0.06 -0.04 0.02 9955
0.61 0.03 0.70 -0.90 9.95 0.07 -0.05 0.01 9961
0.67 -0.02 0.70 -0.86 9.90 0.06 -0.05 0.01 9967
0.70 -0.03 0.74 -0.83 10.03 0.06 -0.05 0.01 9973
0.72 -0.02 0.75 -0.87 9.99 0.06 -0.04 0.00 9979
0.74 -0.02 0.70 -0.88 9.97 0.06 -0.04 -0.00 9987
0.76 -0.03 0.68 -0.87 9.95 0.05 -0.04 -0.00 9993
0.77 -0.03 0.63 -0.86 9.99 0.05 -0.04 -0.00 9999
0.83 -0.03 0.69 -0.85 9.99 0.05 -0.04 -0.00 10005
0.86 -0.04 0.65 -0.89 10.00 0.05 -0.03 -0.00 10011
0.88 -0.04 0.71 -0.89 10.00 0.06 -0.04 -0.01 10017
0.95 -0.05 0.68 -0.88 9.99 0.06 -0.03 -0.00 10024
0.97 -0.05 0.66 -0.90 10.04 0.06 -0.03 -0.01 10031
1.00 -0.04 0.68 -0.91 10.02 0.07 -0.03 0.00 10037
1.05 -0.06 0.70 -0.93 9.99 0.07 -0.03 -0.00 10043
1.06 -0.07 0.70 -0.88 10.03 0.08 -0.04 -0.00 10050
1.08 -0.04 0.71 -0.91 10.05 0.08 -0.04 -0.00 10056
1.12 -0.05 0.69 -0.91 10.08 0.13 -0.04 -0.00 10062
1.12 -0.05 0.75 -0.97 10.12 0.11 -0.04 -0.01 10068
1.18 -0.06 0.72 -0.97 10.26 0.15 -0.04 -0.01 10076
1.23 -0.07 0.79 -0.97 10.27 0.18 -0.04 -0.02 10082
1.31 -0.05 0.91 -1.03 10.31 0.26 -0.05 -0.04 10088
1.36 -0.06 0.92 -1.14 10.32 0.30 -0.05 -0.06 10094
1.44 -0.07 1.05 -1.17 10.52 0.38 -0.06 -0.09 10101
1.49 -0.06 1.08 -1.25 10.75 0.51 -0.08 -0.12 10107
1.53 -0.06 1.03 -1.23 10.95 0.68 -0.10 -0.15 10114
1.60 -0.06 1.14 -1.35 11.52 0.89 -0.13 -0.18 10120
1.66 -0.07 1.09 -1.37 11.75 1.12 -0.19 -0.20 10127
1.71 -0.05 0.80 -1.38 12.16 1.27 -0.26 -0.22 10133
1.77 -0.07 0.82 -1.48 12.58 1.45 -0.33 -0.21 10139
1.81 -0.07 0.62 -1.57 12.69 1.59 -0.38 -0.19 10146
1.89 -0.06 0.47 -1.62 12.51 1.72 -0.42 -0.17 10152
1.91 -0.07 0.33 -1.59 12.45 1.88 -0.42 -0.15 10159
1.96 -0.06 0.53 -1.81 12.51 2.04 -0.45 -0.13 10165
1.96 -0.09 0.43 -1.86 12.86 2.23 -0.45 -0.10 10172
1.95 -0.06 0.46 -1.99 13.35 2.44 -0.44 -0.09 10178
1.99 -0.07 0.47 -2.01 14.17 2.64 -0.41 -0.08 10184
2.03 -0.08 0.81 -2.29 13.46 2.84 -0.38 -0.10 10190
2.04 -0.07 0.19 0.27 12.19 3.01 -0.37 -0.12 10198
2.02 -0.08 0.96 -2.88 14.35 3.34 -0.28 -0.19 10204
1.98 -0.06 0.76 -2.81 14.72 3.58 -0.32 -0.21 10210
1.93 -0.08 0.61 -2.91 15.53 3.94 -0.34 -0.23 10217
1.83 -0.07 1.24 -3.29 15.86 4.22 -0.42 -0.28 10223
1.69 -0.06 2.16 -3.70 17.34 4.28 -0.58 -0.38 10229
1.55 -0.06 4.17 -3.31 17.13 4.28 -0.76 -0.57 10235
1.38 -0.06 3.57 -3.37 18.77 4.28 -0.96 -0.77 10243
1.17 -0.06 2.97 -5.46 20.87 4.28 -1.15 -0.90 10249
1.03 -0.06 2.53 -7.51 23.41 4.28 -1.42 -1.04 10255
0.94 -0.06 3.30 -11.36 28.54 4.28 -1.42 -1.14 10262
0.79 -0.04 2.26 -15.03 33.41 4.28 -1.20 -1.14 10268
0.68 -0.04 3.96 -16.70 35.95 4.28 -0.82 -1.10 10274
0.54 -0.02 4.15 -14.96 30.03 4.28 -0.41 -1.06 10281
0.48 -0.03 2.96 -11.02 26.03 4.28 -0.09 -1.12 10288
0.35 -0.02 2.09 -6.85 29.68 4.28 0.16 -1.13 10294
0.29 -0.02 2.03 -4.73 32.64 4.28 0.05 -1.20 10300
0.22 -0.02 2.93 -2.44 32.28 4.28 -0.45 -1.33 10307
0.20 -0.02 5.67 2.00 31.23 4.28 -0.95 -1.44 10313
0.14 -0.01 7.98 5.12 31.97 4.28 -1.28 -1.52 10319
0.09 -0.01 9.23 8.94 28.47 4.28 -1.19 -1.51 10326
0.07 -0.01 10.78 17.28 21.92 4.28 -0.80 -1.53 10333
0.06 -0.01 8.46 20.05 13.42 4.22 -0.42 -1.87 10339
0.06 0.00 9.96 25.88 -10.99 3.12 -0.54 -2.38 10345
0.07 -0.01 7.60 22.31 13.34 1.35 -0.35 -2.69 10352
0.07 -0.01 9.41 14.43 30.09 -0.49 0.67 -2.55 10358
0.06 -0.01 7.60 11.88 25.82 -2.05 1.23 -2.28 10364
0.07 -0.01 4.47 12.26 17.15 -2.89 1.26 -2.00 10371
0.07 -0.01 2.80 11.92 11.90 -3.37 0.96 -1.70 10378
0.05 0.00 2.71 10.78 12.04 -3.81 0.70 -1.38 10384
0.07 0.00 3.37 8.72 8.65 -4.10 0.54 -1.09 10390
0.07 -0.01 4.18 7.08 7.72 -4.18 0.51 -0.84 10396
0.06 -0.01 4.47 5.57 7.34 -4.18 0.60 -0.60 10402
0.06 -0.01 4.32 4.58 6.91 -4.17 0.74 -0.37 10409
0.06 -0.01 4.29 4.00 6.55 -4.14 0.90 -0.18 10416
0.05 -0.01 4.20 3.61 6.41 -4.10 1.03 -0.03 10422
0.06 -0.00 3.95 3.20 6.74 -4.08 1.08 0.11 10428
0.06 -0.01 3.55 2.85 7.34 -4.07 1.13 0.25 10434
0.06 -0.01 3.20 2.52 8.52 -4.08 1.15 0.35 10440
0.07 -0.01 2.99 2.32 8.50 -4.09 1.15 0.49 10446
0.08 -0.01 2.69 2.15 9.23 -4.12 1.15 0.63 10454
0.08 -0.01 2.44 2.01 9.87 -4.15 1.15 0.78 10460
0.07 -0.01 2.12 1.81 10.58 -4.20 1.17 0.91 10466
0.07 -0.00 2.08 1.70 11.53 -4.25 1.20 1.01 10472
0.07 -0.01 2.18 1.45 12.44 -4.28 1.26 1.09 10478
0.07 -0.00 2.22 1.11 13.18 -4.28 1.37 1.12 10485
0.07 -0.01 2.24 0.75 13.98 -4.28 1.51 1.12 10491
0.06 -0.01 2.12 0.15 14.62 -4.28 1.67 1.07 10498
0.06 -0.00 1.27 -0.88 15.02 -4.28 1.83 0.98 10504
0.06 -0.01 1.46 -1.98 15.35 -4.28 1.99 0.84 10511
0.06 0.00 1.00 -3.06 15.76 -4.28 2.07 0.69 10517
0.06 -0.00 0.27 -4.14 16.31 -4.28 2.19 0.52 10523
0.06 -0.01 -0.63 -5.40 16.83 -4.28 2.28 0.33 10529
0.06 0.01 -1.57 -6.36 17.14 -4.28 2.34 0.13 10536
0.06 -0.00 -2.25 -6.84 17.12 -4.28 2.28 -0.06 10543
0.05 0.00 -2.48 -6.96 17.08 -4.23 2.23 -0.22 10549
0.06 -0.00 -2.43 -6.95 17.15 -4.10 2.12 -0.34 10555
0.04 0.00 -2.40 -6.92 17.48 -3.89 2.01 -0.42 10562
0.05 -0.00 -2.22 -6.82 18.47 -3.64 1.92 -0.45 10568
0.05 -0.00 -1.79 -6.63 19.90 -3.43 1.85 -0.44 10574
0.05 -0.00 -1.38 -6.27 21.49 -3.29 1.80 -0.40 10580
0.05 -0.01 -0.97 -5.88 22.83 -3.22 1.76 -0.31 10588
0.05 -0.00 -0.63 -5.87 23.63 -3.26 1.71 -0.22 10594
0.06 -0.01 -0.24 -6.17 24.95 -3.33 1.66 -0.10 10600
0.05 -0.00 0.15 -7.34 23.99 -3.42 1.62 0.08 10606
0.04 -0.00 0.26 -8.77 23.73 -3.47 1.62 0.31 10612
0.05 -0.01 0.74 -10.33 23.16 -3.45 1.64 0.56 10619
0.05 -0.00 0.65 -11.87 22.55 -3.39 1.63 0.81 10626
0.04 -0.00 0.26 -13.05 22.13 -3.30 1.60 1.06 10632
0.05 -0.00 -0.28 -14.19 21.71 -3.20 1.53 1.30 10639
0.03 -0.00 -0.76 -15.24 21.27 -3.13 1.39 1.53 10645
0.06 -0.00 -1.15 -16.48 20.95 -3.09 1.17 1.74 10651
0.05 -0.01 -1.37 -17.69 20.16 -3.08 0.96 1.95 10657
0.06 0.01 -1.55 -18.83 18.57 -3.07 0.84 2.13 10664
0.05 -0.01 -2.17 -19.63 16.24 -3.05 0.95 2.32 10671
0.06 -0.00 -3.17 -21.32 14.74 -3.00 1.38 2.49 10677
0.06 -0.01 -4.32 -24.27 12.28 -2.95 1.72 2.58 10684
0.06 -0.01 -6.31 -27.93 10.22 -2.86 1.82 2.58 10690
0.06 -0.01 -8.45 -32.01 7.65 -2.68 1.72 2.50 10696
0.06 -0.01 -9.94 -35.63 3.88 -2.38 1.58 2.37 10702
0.05 -0.00 -10.61 -38.00 0.63 -1.92 1.43 2.18 10710
0.06 -0.01 -10.55 -38.27 -1.37 -1.31 1.24 1.88 10716
0.05 -0.01 -9.89 -36.20 -1.61 -0.62 0.96 1.44 10722
0.06 -0.01 -8.50 -32.68 0.28 0.05 0.63 0.89 10728
0.05 -0.00 -6.94 -28.59 3.18 0.59 0.26 0.31 10734
0.05 -0.01 -5.42 -24.37 6.23 0.98 -0.06 -0.19 10741
0.05 -0.01 -3.62 -20.32 9.21 1.17 -0.28 -0.60 10747
0.04 -0.00 -31.16 -35.13 78.47 3.80 -2.31 -0.29 10754
0.06 -0.01 -3.17 -9.15 9.46 3.71 -1.88 0.15 10760
0.04 0.02 0.73 3.52 -4.51 3.20 -2.58 0.12 10767
0.04 0.14 6.09 -2.73 -1.43 2.55 -3.16 0.05 10773
0.04 0.32 7.73 6.17 10.52 2.77 -2.19 0.53 10779
0.02 0.54 8.40 7.63 8.69 3.08 -0.22 1.28 10785
0.02 0.80 3.36 -5.07 12.25 3.88 0.04 1.61 10792
-0.01 1.14 -11.02 -5.89 24.24 4.28 -0.55 1.28 10799
-0.01 1.33 -9.55 -8.85 19.85 4.28 -1.11 0.71 10805
-0.02 1.53 -2.24 -6.56 23.31 4.28 -1.12 0.31 10812
-0.03 1.61 -3.61 -3.26 25.65 4.28 -0.59 0.12 10818
-0.02 1.66 -4.35 -3.43 21.63 4.06 -0.49 -0.27 10824
-0.04 1.67 0.35 -3.59 21.71 3.81 -0.68 -0.68 10830
-0.02 1.69 4.48 -4.20 35.94 3.03 -2.12 -0.73 10838
-0.02 1.72 4.69 -4.42 14.45 0.96 -1.93 -0.21 10844
-0.02 1.71 0.71 -3.40 13.17 0.44 -1.03 0.15 10850
-0.02 1.65 -0.38 -1.22 11.52 0.22 -0.56 0.20 10857
-0.03 1.67 -0.49 -0.46 10.66 0.11 -0.32 0.10 10863
-0.01 1.63 0.27 -0.96 10.27 0.04 -0.20 0.03 10869
-0.02 1.61 1.10 -1.34 10.06 0.01 -0.15 0.04 10875
-0.02 1.62 0.93 -1.26 10.09 0.00 -0.13 0.07 10883
-0.00 1.59 0.42 -0.96 10.13 -0.00 -0.13 0.07 10889
-0.01 1.53 0.38 -0.82 10.15 -0.01 -0.12 0.04 10895
0.00 1.52 0.62 -0.92 9.98 -0.02 -0.10 0.04 10901
-0.01 1.52 0.64 -0.85 10.04 -0.02 -0.11 0.04 10907
0.00 1.50 0.59 -0.73 9.97 -0.01 -0.11 0.05 10914
0.02 1.44 0.96 -0.74 9.92 -0.00 -0.12 0.05 10920
-0.00 1.36 0.21 -0.46 9.82 -0.01 -0.12 0.05 10927
0.02 1.35 0.66 -0.82 10.00 -0.00 -0.13 0.04 10933
0.05 1.32 0.56 -0.84 9.98 0.01 -0.13 0.04 10939
0.04 1.24 0.50 -0.82 10.09 0.00 -0.13 0.04 10946
0.07 1.17 0.56 -0.82 10.03 0.02 -0.11 0.03 10952
0.07 1.08 0.53 -0.82 10.06 0.02 -0.11 0.04 10958
0.08 1.05 0.53 -0.85 10.08 0.03 -0.10 0.04 10964
0.10 0.92 0.51 -0.87 10.04 0.03 -0.09 0.04 10972
0.10 0.83 0.51 -0.85 10.00 0.04 -0.08 0.04 10978
0.12 0.80 0.51 -0.90 10.00 0.04 -0.07 0.05 10984
0.14 0.71 0.49 -0.81 10.06 0.04 -0.06 0.05 10990
0.13 0.63 0.46 -0.85 9.99 0.04 -0.05 0.04 10997
0.17 0.53 0.49 -0.98 9.98 0.04 -0.04 0.05 11003
0.19 0.47 0.56 -0.83 10.02 0.04 -0.03 0.04 11010
0.21 0.45 0.53 -0.90 9.95 0.04 -0.03 0.04 11016
0.23 0.38 0.75 -1.31 10.09 0.04 -0.02 0.04 11022
0.25 0.30 0.60 -0.91 10.02 0.04 -0.02 0.03 11029
0.27 0.30 0.59 -0.95 9.96 0.04 -0.02 0.03 11035
0.30 0.24 0.58 -0.92 9.98 0.04 -0.02 0.02 11041
0.31 0.17 0.59 -0.90 9.97 0.03 -0.03 0.02 11047
0.33 0.19 0.57 -0.91 10.01 0.04 -0.02 0.02 11054
0.36 0.14 0.53 -0.93 9.96 0.04 -0.03 0.02 11061
0.39 0.10 0.53 -0.89 10.02 0.04 -0.02 0.02 11067
0.41 0.10 0.51 -0.90 9.97 0.04 -0.02 0.02 11073
0.44 0.06 0.53 -0.90 10.00 0.04 -0.02 0.02 11079
0.42 0.09 0.51 -0.95 10.00 0.04 -0.03 0.03 11085
0.47 0.05 0.55 -0.93 9.95 0.05 -0.02 0.03 11092
0.52 0.03 0.60 -0.97 9.99 0.05 -0.03 0.02 11099
0.55 -0.00 0.60 -0.94 9.96 0.05 -0.03 0.02 11105
0.58 0.01 0.62 -1.01 10.01 0.05 -0.04 0.02 11111
0.61 -0.01 0.59 -0.97 10.02 0.05 -0.03 0.01 11117
0.64 -0.03 0.58 -1.00 9.96 0.05 -0.03 0.00 11124
0.68 -0.03 0.62 -1.06 9.93 0.05 -0.03 -0.00 11130
0.70 -0.04 0.56 -1.01 9.93 0.05 -0.03 -0.01 11137
0.72 -0.03 0.62 -0.99 10.01 0.05 -0.03 -0.01 11143
0.79 -0.04 0.53 -0.96 9.96 0.05 -0.03 -0.01 11149
0.80 -0.05 0.55 -0.96 9.96 0.05 -0.03 -0.01 11156
0.83 -0.04 0.57 -0.97 10.01 0.05 -0.03 -0.01 11162
0.88 -0.05 0.50 -1.01 10.02 0.06 -0.03 -0.00 11168
0.91 -0.06 0.57 -1.01 10.04 0.06 -0.03 0.00 11174
0.92 -0.03 0.51 -0.99 10.10 0.07 -0.02 0.00 11181
0.97 -0.05 0.54 -1.04 10.11 0.08 -0.02 0.00 11188
1.01 -0.06 0.54 -1.04 10.18 0.10 -0.02 -0.00 11194
1.05 -0.05 0.58 -1.07 10.13 0.13 -0.02 -0.00 11200
1.09 -0.07 0.58 -1.12 10.20 0.16 -0.01 -0.01 11206
1.15 -0.05 0.73 -1.16 10.10 0.20 -0.01 -0.01 11213
1.20 -0.05 0.74 -1.12 10.25 0.25 -0.01 -0.03 11219
1.22 -0.05 0.73 -1.17 10.37 0.32 -0.01 -0.05 11226
1.28 -0.04 0.81 -1.30 10.53 0.43 -0.02 -0.06 11232
1.31 -0.06 0.85 -1.35 10.87 0.59 -0.03 -0.09 11239
1.38 -0.06 0.90 -1.31 11.49 0.83 -0.04 -0.11 11245
1.49 -0.08 0.75 -1.43 12.01 1.12 -0.06 -0.13 11251
1.52 -0.06 0.78 -1.54 12.45 1.37 -0.09 -0.14 11257
1.55 -0.06 0.71 -1.64 12.53 1.53 -0.13 -0.15 11265
1.60 -0.07 0.59 -1.64 12.52 1.68 -0.19 -0.14 11271
1.67 -0.05 0.59 -1.68 12.76 1.80 -0.24 -0.13 11277
1.73 -0.06 0.66 -1.90 12.63 1.95 -0.26 -0.11 11284
1.76 -0.07 0.66 -1.95 12.32 2.07 -0.26 -0.11 11290
1.77 -0.06 0.71 -2.01 12.48 2.21 -0.28 -0.12 11296
1.78 -0.05 0.40 -2.22 13.12 2.39 -0.29 -0.13 11302
1.83 -0.05 0.62 -2.38 13.42 2.57 -0.26 -0.13 11310
1.84 -0.05 0.72 -2.40 13.42 2.81 -0.24 -0.14 11316
1.82 -0.04 1.10 -2.48 12.62 3.02 -0.25 -0.17 11322
1.79 -0.06 0.96 -2.75 13.75 3.25 -0.24 -0.21 11329
1.78 -0.07 0.94 -3.08 14.19 3.53 -0.21 -0.26 11335
1.67 -0.06 0.60 -2.92 16.00 3.84 -0.19 -0.30 11341
1.55 -0.06 0.86 -2.85 16.08 4.17 -0.18 -0.32 11347
1.46 -0.05 1.25 -3.00 17.12 4.28 -0.27 -0.40 11355
1.33 -0.06 2.78 -3.73 18.25 4.28 -0.36 -0.49 11361
1.11 -0.03 3.28 -4.57 18.58 4.28 -0.52 -0.61 11367
1.01 -0.05 2.51 -5.44 20.82 4.28 -0.69 -0.77 11374
0.87 -0.03 2.16 -7.67 24.89 4.28 -0.78 -0.80 11380
0.79 -0.04 1.02 -10.14 28.99 4.28 -0.76 -0.79 11386
0.64 -0.03 1.37 -13.53 32.53 4.28 -0.56 -0.70 11393
0.57 -0.02 2.62 -15.92 32.98 4.28 -0.23 -0.59 11400
0.46 -0.03 2.78 -13.66 29.39 4.28 0.13 -0.59 11406
0.40 -0.02 0.91 -11.01 26.52 4.28 0.34 -0.64 11412
0.27 -0.01 0.27 -7.49 29.61 4.28 0.44 -0.68 11419
0.25 -0.02 0.08 -5.90 33.99 4.28 0.01 -0.78 11425
0.17 -0.02 2.82 -3.82 33.65 4.28 -0.59 -0.95 11431
0.16 -0.02 5.47 0.66 33.37 4.28 -1.16 -1.06 11438
0.12 -0.01 7.28 4.78 32.13 4.28 -1.30 -1.08 11445
0.10 -0.01 8.54 11.66 28.36 4.28 -1.09 -1.00 11451
0.08 -0.00 12.18 19.65 20.75 4.28 -0.67 -1.15 11457
0.08 -0.01 9.30 20.76 9.90 4.26 -0.07 -1.65 11463
0.06 -0.00 9.58 24.16 -6.70 3.31 0.07 -2.33 11470
0.08 -0.01 8.22 19.68 18.04 1.99 0.18 -2.59 11476
0.06 -0.01 9.82 14.80 29.94 0.19 1.04 -2.47 11483
0.07 -0.01 7.74 13.91 25.84 -1.42 1.61 -2.34 11490
0.07 -0.01 3.77 14.58 17.41 -2.38 1.55 -2.17 11496
0.05 0.00 1.27 13.18 12.62 -3.04 1.04 -1.89 11502
0.06 -0.01 1.31 12.18 12.64 -3.70 0.52 -1.58 11508
0.07 -0.01 1.93 9.69 9.73 -4.13 0.17 -1.33 11515
0.07 -0.01 2.97 7.67 8.60 -4.24 -0.06 -1.14 11522
0.06 -0.01 3.33 5.91 7.78 -4.26 -0.17 -1.01 11528
0.05 -0.01 3.58 4.56 7.11 -4.27 -0.19 -0.86 11534
0.07 -0.01 3.95 3.59 6.50 -4.25 -0.13 -0.73 11540
0.06 -0.01 4.40 3.12 6.43 -4.23 -0.02 -0.61 11546
0.05 -0.01 4.92 2.83 6.64 -4.21 0.12 -0.52 11552
0.05 -0.00 5.23 2.75 6.90 -4.21 0.28 -0.44 11559
0.06 -0.01 5.32 2.71 7.46 -4.23 0.46 -0.37 11566
0.06 -0.01 5.23 2.61 8.26 -4.26 0.60 -0.28 11572
0.08 0.00 4.98 2.44 9.08 -4.28 0.77 -0.16 11578
0.09 -0.01 4.60 2.15 9.80 -4.28 0.94 -0.00 11584
0.08 -0.01 4.13 1.72 10.95 -4.28 1.08 0.12 11591
0.08 0.00 3.73 1.16 10.81 -4.28 1.18 0.28 11597
0.06 -0.01 3.47 0.45 11.37 -4.28 1.22 0.43 11603
0.05 -0.00 3.32 -0.23 12.03 -4.28 1.24 0.56 11610
0.06 -0.01 3.21 -0.80 12.76 -4.28 1.23 0.67 11616
0.06 -0.01 3.20 -1.27 13.44 -4.28 1.25 0.75 11623
0.05 -0.01 3.28 -1.86 14.11 -4.28 1.30 0.80 11629
0.06 -0.01 3.46 -2.49 14.93 -4.28 1.39 0.80 11635
0.06 -0.01 3.48 -3.43 15.75 -4.28 1.52 0.75 11641
0.06 -0.01 3.23 -4.31 16.75 -4.28 1.68 0.66 11648
0.06 -0.01 3.01 -5.44 17.56 -4.28 1.87 0.54 11655
0.06 -0.01 2.80 -6.53 18.12 -4.28 2.06 0.39 11661
0.06 -0.00 2.38 -7.31 18.52 -4.28 2.20 0.25 11667
0.07 -0.01 2.13 -7.78 18.61 -4.28 2.32 0.15 11673
0.04 -0.00 1.93 -8.17 18.56 -4.27 2.37 0.09 11680
0.06 -0.01 1.63 -8.33 18.95 -4.20 2.36 0.09 11686
0.04 -0.00 1.32 -8.62 19.58 -4.03 2.29 0.14 11693
0.04 -0.00 1.27 -8.57 20.90 -3.79 2.20 0.23 11699
0.06 -0.01 1.46 -8.37 22.97 -3.60 2.09 0.37 11705
0.04 -0.00 1.60 -8.28 24.95 -3.51 2.02 0.47 11712
0.04 -0.00 1.47 -8.53 25.91 -3.54 1.98 0.61 11718
0.05 -0.01 1.42 -9.19 26.54 -3.68 1.96 0.76 11724
0.04 -0.00 1.41 -10.16 26.19 -3.86 1.93 0.89 11730
0.05 0.01 1.37 -11.41 25.18 -4.01 1.88 0.99 11738
0.05 0.00 1.34 -12.86 24.02 -4.07 1.86 1.07 11744
0.04 0.00 1.48 -14.31 22.95 -4.04 1.84 1.12 11750
0.05 0.00 1.56 -15.72 21.88 -3.92 1.83 1.14 11757
0.05 -0.00 1.60 -16.76 20.77 -3.72 1.85 1.13 11763
0.05 -0.00 1.31 -18.15 16.29 -3.41 1.97 1.13 11769
0.03 -0.00 0.00 -17.72 15.41 -3.12 2.24 1.22 11776
0.05 -0.00 -1.32 -16.90 13.94 -3.01 2.57 1.34 11783
0.05 -0.00 -4.48 -18.15 15.92 -2.80 2.85 1.50 11789
0.05 0.01 -7.29 -20.55 16.36 -2.57 3.16 1.73 11795
0.05 0.00 -9.11 -24.23 15.50 -2.34 3.09 1.82 11802
0.05 -0.00 -10.99 -27.67 12.98 -2.13 2.48 1.81 11808
0.05 -0.00 -11.61 -30.13 9.01 -1.92 1.53 1.71 11814
0.05 0.01 -10.89 -31.54 5.07 -1.72 0.87 1.56 11822
0.05 -0.01 -9.32 -33.15 2.56 -1.45 0.51 1.36 11828
0.05 0.00 -9.06 -33.86 1.50 -1.07 0.40 1.11 11834
0.06 -0.00 -8.33 -32.58 1.59 -0.58 0.39 0.82 11840
0.05 -0.01 -7.67 -29.80 2.52 -0.04 0.39 0.52 11847
0.05 0.00 -10.45 -43.76 -6.21 0.49 0.19 0.33 11853
0.03 -0.00 -16.36 -26.89 3.84 3.07 -1.43 0.48 11859
0.03 0.00 -12.44 -18.98 4.42 2.88 -1.71 0.36 11866
0.04 0.01 -10.28 -23.66 3.50 3.17 -3.07 0.36 11873
0.03 0.04 -5.08 -26.27 6.94 3.15 -3.87 0.51 11879
0.05 0.15 0.01 -2.70 1.60 3.04 -4.11 0.66 11885
0.03 0.32 1.77 -0.23 13.00 3.34 -2.59 0.97 11891
0.01 0.59 3.63 4.50 21.54 4.18 -0.76 1.53 11898
0.00 0.93 -2.47 -1.43 21.98 4.28 -0.55 1.68 11905
-0.01 1.21 -11.18 -5.65 28.95 4.28 -1.13 1.21 11911
-0.01 1.35 -10.63 -6.35 27.80 4.28 -1.45 0.56 11918
-0.02 1.36 -5.11 -6.13 24.13 4.22 -1.27 0.07 11924
-0.01 1.39 -3.25 -3.96 24.47 3.96 -0.66 -0.21 11930
-0.02 1.40 -0.80 -2.48 21.47 3.41 -0.54 -0.49 11937
-0.02 1.39 3.33 -1.57 29.75 1.62 -1.79 -0.56 11943
-0.01 1.36 4.25 -2.39 11.69 0.29 -0.87 -0.04 11950
0.00 1.39 1.58 -2.06 11.28 0.11 -0.46 0.16 11956
0.02 1.31 0.18 -0.77 10.59 0.04 -0.21 0.23 11963
0.03 1.33 -0.37 -0.51 10.13 0.02 -0.08 0.15 11969
0.04 1.32 0.34 -0.89 10.03 -0.06 -0.05 0.05 11975
0.04 1.35 1.20 -1.38 10.64 -0.05 -0.06 0.05 11981
0.05 1.40 -2.04 0.87 10.69 -0.06 -0.08 0.10 11988
0.07 1.35 0.64 -0.65 10.13 -0.07 -0.11 0.07 11995
0.09 1.35 0.55 -0.68 10.02 -0.06 -0.10 0.05 12001
0.10 1.34 0.80 -0.72 10.09 -0.05 -0.09 0.04 12007
0.09 1.33 0.72 -0.67 10.03 -0.05 -0.08 0.05 12014
0.11 1.33 0.67 -0.61 10.05 -0.03 -0.06 0.04 12020
0.15 1.30 0.68 -0.60 10.20 -0.02 -0.05 0.04 12026
0.14 1.22 0.74 -0.67 10.16 -0.02 -0.04 0.04 12033
0.17 1.14 0.79 -0.62 10.21 -0.00 -0.00 0.04 12040
0.19 1.05 0.78 -0.61 10.18 0.01 -0.03 0.03 12046
0.23 1.02 0.74 -0.65 10.14 0.02 -0.02 0.04 12052
0.26 0.90 0.77 -0.65 10.09 0.02 -0.01 0.04 12058
0.28 0.80 0.71 -0.03 10.05 0.03 -0.01 0.04 12065
0.31 0.74 0.74 -0.64 10.02 0.04 -0.01 0.05 12071
0.35 0.65 0.80 -0.01 10.07 0.04 -0.01 0.05 12078
0.36 0.59 0.81 -0.63 10.07 0.05 -0.01 0.05 12084
0.40 0.42 0.82 -0.64 10.08 0.05 -0.01 0.04 12091
0.40 0.36 0.72 -0.72 10.04 0.06 -0.01 0.04 12097
0.41 0.34 0.81 -0.66 10.00 0.06 -0.02 0.04 12103
0.44 0.26 0.89 -0.62 10.02 0.06 -0.02 0.03 12109
0.43 0.21 1.00 -0.72 10.09 0.06 -0.02 0.02 12115
0.51 0.16 0.84 -0.72 10.02 0.06 -0.02 0.02 12123
0.52 0.11 0.81 -0.75 10.12 0.06 -0.02 0.01 12129
0.51 0.08 0.84 -0.74 10.03 0.07 -0.03 0.02 12135
0.57 0.04 0.86 -0.78 10.20 0.07 -0.03 0.01 12141
0.60 0.02 0.74 -0.83 10.00 0.08 -0.03 0.01 12148
0.63 0.02 0.77 -0.74 10.07 0.10 -0.03 0.01 12154
0.67 0.00 0.67 -0.57 10.20 0.11 -0.03 0.01 12161
0.68 -0.02 0.67 -0.86 10.01 0.13 -0.04 0.01 12167
0.75 -0.02 0.83 -0.71 10.12 0.15 -0.04 0.01 12174
0.74 -0.04 0.81 -0.79 10.03 0.16 -0.05 0.00 12180
0.76 -0.02 0.78 -0.79 10.10 0.17 -0.05 0.00 12186
0.81 -0.04 0.81 -0.84 10.09 0.19 -0.05 -0.00 12192
0.85 -0.04 0.85 -0.85 10.06 0.19 -0.06 -0.01 12199
0.89 -0.05 0.85 -0.91 10.06 0.20 -0.06 -0.02 12206
0.90 -0.07 0.96 -0.99 10.10 0.23 -0.06 -0.03 12212
0.88 -0.03 0.73 -0.54 10.31 0.23 -0.05 -0.03 12218
0.93 -0.05 1.30 -1.20 9.98 0.23 -0.07 -0.04 12225
0.93 -0.07 0.77 -0.99 10.12 0.23 -0.06 -0.06 12231
0.98 -0.05 0.86 -1.03 10.08 0.23 -0.06 -0.06 12237
0.97 -0.06 0.63 -0.93 9.81 0.23 -0.05 -0.07 12243
1.02 -0.04 0.83 -1.05 9.81 0.22 -0.05 -0.06 12250
1.04 -0.04 0.75 -1.03 9.84 0.21 -0.04 -0.06 12257
1.03 -0.06 0.80 -1.04 9.88 0.19 -0.04 -0.05 12263
1.05 -0.05 0.83 -1.04 9.97 0.18 -0.05 -0.05 12269
1.13 -0.05 0.81 -1.06 10.01 0.18 -0.04 -0.05 12275
1.15 -0.06 0.80 -1.08 9.96 0.18 -0.05 -0.04 12281
1.17 -0.04 0.84 -1.17 9.92 0.17 -0.05 -0.04 12289
1.20 -0.07 0.91 -1.14 10.04 0.19 -0.05 -0.05 12295
1.22 -0.06 0.86 -1.12 10.09 0.21 -0.05 -0.06 12301
1.30 -0.06 0.78 -1.15 10.02 0.23 -0.05 -0.06 12307
1.33 -0.08 0.80 -1.19 10.10 0.24 -0.05 -0.06 12314
1.36 -0.04 0.76 -1.17 10.36 0.27 -0.05 -0.06 12320
1.44 -0.06 0.87 -1.30 10.46 0.33 -0.05 -0.06 12326
1.45 -0.06 0.83 -1.26 10.43 0.39 -0.06 -0.06 12333
1.51 -0.06 0.90 -1.32 10.52 0.46 -0.07 -0.07 12340
1.53 -0.07 0.87 -1.37 10.59 0.54 -0.08 -0.08 12346
1.57 -0.05 0.86 -1.49 10.84 0.62 -0.08 -0.08 12352
1.61 -0.06 0.94 -1.49 10.95 0.73 -0.09 -0.09 12359
1.64 -0.05 0.92 -1.61 11.34 0.85 -0.12 -0.10 12365
1.69 -0.05 1.06 -1.60 11.48 0.98 -0.15 -0.12 12371
1.77 -0.05 0.97 -1.70 11.75 1.11 -0.19 -0.13 12378
1.80 -0.05 0.81 -1.74 12.04 1.24 -0.23 -0.13 12385
1.88 -0.06 0.80 -1.70 11.86 1.38 -0.28 -0.13 12391
1.91 -0.04 0.70 -1.81 12.57 1.53 -0.32 -0.12 12397
1.88 -0.05 0.48 -1.73 13.17 1.72 -0.35 -0.11 12403
1.94 -0.05 0.73 -2.05 13.18 1.94 -0.38 -0.11 12410
1.97 -0.08 0.89 -2.44 14.04 2.16 -0.39 -0.12 12417
1.95 -0.07 0.89 -2.38 13.67 2.38 -0.39 -0.13 12423
2.00 -0.06 0.86 -2.27 13.45 2.61 -0.39 -0.14 12430
2.01 -0.08 1.00 -2.46 13.73 2.86 -0.38 -0.16 12436
1.98 -0.05 0.95 -2.78 13.94 3.12 -0.38 -0.20 12442
1.97 -0.06 0.86 -2.95 13.85 3.39 -0.39 -0.22 12448
1.95 -0.07 0.67 -3.02 14.72 3.69 -0.39 -0.24 12455
1.84 -0.07 0.82 -2.79 15.71 4.06 -0.38 -0.24 12462
1.72 -0.06 1.61 -3.23 15.99 4.26 -0.42 -0.28 12468
1.58 -0.05 2.95 -3.43 16.99 4.28 -0.58 -0.40 12475
1.41 -0.07 3.30 -3.70 17.75 4.28 -0.70 -0.58 12481
1.27 -0.04 2.50 -5.70 19.69 4.28 -0.89 -0.76 12487
1.07 -0.05 3.60 -6.86 22.25 4.28 -1.08 -0.88 12493
1.00 -0.06 3.15 -7.75 24.21 4.28 -1.21 -0.99 12500
0.87 -0.04 3.35 -12.24 29.96 4.28 -1.16 -1.04 12507
0.76 -0.05 3.03 -15.69 33.83 4.28 -0.93 -1.03 12513
0.64 -0.04 3.55 -15.02 31.97 4.28 -0.52 -0.99 12520
0.50 -0.04 4.14 -13.74 28.13 4.28 -0.13 -1.01 12526
0.43 -0.02 3.24 -10.08 27.44 4.28 0.13 -1.04 12532
0.30 -0.02 2.31 -6.19 30.11 4.28 0.36 -1.08 12539
0.25 -0.02 1.95 -4.28 32.28 4.28 0.12 -1.18 12546
0.19 -0.02 3.26 -1.54 31.75 4.28 -0.23 -1.31 12552
0.17 -0.02 6.06 2.25 31.77 4.28 -0.71 -1.41 12558
0.10 -0.01 8.23 5.99 31.78 4.28 -0.88 -1.47 12565
0.10 -0.01 9.86 16.02 19.45 4.28 -0.63 -1.45 12571
0.09 -0.01 11.57 19.51 17.51 4.28 -0.19 -1.61 12577
0.06 -0.01 7.91 22.62 -0.90 3.88 0.15 -2.09 12583
0.05 -0.01 8.22 25.02 -1.18 2.61 -0.16 -2.60 12591
0.06 -0.01 7.36 18.90 23.89 1.03 0.29 -2.71 12597
0.05 -0.01 8.98 13.55 30.16 -0.82 1.01 -2.42 12603
0.09 -0.01 6.22 12.64 20.99 -2.17 1.25 -2.12 12609
0.07 -0.01 3.32 12.76 14.24 -2.83 1.06 -1.81 12616
0.06 -0.00 2.21 11.65 9.07 -3.33 0.69 -1.50 12622
0.07 0.00 2.90 10.19 9.17 -3.80 0.39 -1.15 12628
0.05 0.00 3.42 8.66 7.81 -4.06 0.17 -0.94 12635
0.07 0.00 4.08 7.01 7.15 -4.11 0.11 -0.79 12642
0.05 -0.00 4.30 5.63 6.67 -4.10 0.18 -0.61 12648
0.06 -0.00 4.47 4.58 6.21 -4.05 0.35 -0.44 12654
0.07 -0.00 4.60 3.92 5.71 -3.96 0.57 -0.29 12660
0.07 -0.01 4.72 3.45 5.40 -3.85 0.79 -0.19 12666
0.06 -0.00 4.51 3.14 5.53 -3.78 0.99 -0.10 12674
0.08 -0.00 4.15 2.84 5.93 -3.72 1.17 -0.03 12680
0.06 -0.01 3.87 2.45 6.69 -3.69 1.33 0.05 12686
0.06 0.00 3.60 2.15 7.77 -3.67 1.44 0.14 12692
0.07 -0.00 3.30 1.82 8.86 -3.68 1.51 0.24 12698
0.06 -0.01 2.80 1.64 9.89 -3.73 1.55 0.37 12704
0.06 -0.01 2.35 1.60 11.05 -3.83 1.58 0.52 12711
0.07 -0.00 2.12 1.48 12.16 -4.00 1.59 0.68 12718
0.07 -0.01 2.17 1.21 13.21 -4.16 1.57 0.82 12724
0.07 0.00 2.27 0.79 14.37 -4.27 1.54 0.95 12730
0.08 -0.00 2.34 0.21 14.97 -4.28 1.53 1.07 12737
0.06 -0.00 2.55 -0.42 15.43 -4.28 1.56 1.12 12743
0.08 -0.01 2.25 -2.00 15.89 -4.28 1.61 1.18 12749
0.07 -0.01 2.61 -5.97 12.71 -4.28 1.67 1.16 12755
0.07 0.01 5.00 0.89 13.31 -4.28 1.75 1.06 12763
0.07 -0.01 3.69 -3.44 14.08 -4.28 1.95 1.03 12769
0.05 0.00 2.81 -5.50 14.85 -4.28 2.19 0.95 12775
0.08 -0.00 2.18 -8.01 17.26 -4.28 2.33 0.88 12781
0.06 -0.01 1.26 -8.74 18.31 -4.28 2.38 0.81 12788
0.07 -0.00 0.49 -8.21 19.05 -4.28 2.43 0.77 12794
0.07 -0.00 0.14 -7.97 19.40 -4.28 2.47 0.74 12801
0.06 -0.01 -0.13 -7.73 19.45 -4.23 2.43 0.73 12807
0.08 0.00 -0.60 -7.45 19.80 -4.18 2.34 0.74 12814
0.08 -0.01 -0.94 -7.64 20.30 -4.12 2.22 0.77 12820
0.07 -0.01 -1.11 -7.95 20.87 -4.05 2.10 0.82 12826
0.07 -0.01 -1.17 -8.35 21.57 -3.95 1.95 0.89 12832
0.06 -0.01 -1.15 -8.98 22.13 -3.84 1.78 0.97 12838
0.07 -0.01 -1.08 -9.61 22.45 -3.71 1.58 1.04 12846
0.07 -0.01 -1.08 -10.26 22.29 -3.59 1.36 1.11 12852
0.04 -0.00 -1.22 -10.84 21.49 -3.48 1.14 1.17 12858
0.06 -0.01 -1.16 -11.75 21.29 -3.37 0.92 1.22 12864
0.05 -0.00 -1.47 -12.93 20.94 -3.22 0.73 1.28 12871
0.05 0.00 -1.54 -14.03 20.70 -3.08 0.56 1.32 12877
0.04 -0.00 -1.93 -15.40 20.05 -2.92 0.38 1.36 12883
0.04 -0.00 -2.26 -17.85 22.05 -2.66 0.21 1.41 12891
0.05 -0.00 -3.88 -15.98 21.73 -2.48 0.22 1.51 12897
0.04 -0.00 -3.98 -16.86 14.37 -2.45 0.45 1.63 12903
0.05 -0.00 -4.92 -19.60 15.89 -2.37 0.62 1.70 12909
0.05 -0.01 -5.65 -22.08 16.28 -2.39 0.61 1.69 12916
0.05 -0.00 -5.64 -23.64 14.44 -2.45 0.55 1.62 12922
0.05 -0.01 -5.50 -25.59 11.48 -2.57 0.57 1.49 12929
0.05 -0.00 -6.02 -27.28 8.11 -2.66 0.71 1.30 12935
0.06 -0.01 -6.22 -29.95 4.27 -2.62 0.97 1.11 12942
0.05 -0.00 -7.17 -32.37 2.31 -2.31 1.24 0.90 12948
0.05 -0.00 -7.83 -35.46 -1.16 -1.81 1.37 0.67 12954
0.05 -0.00 -12.36 -42.32 24.01 -0.14 1.20 0.43 12960
0.05 -0.00 -9.24 -30.31 -5.07 1.20 1.11 0.29 12967
0.06 -0.01 -10.50 -31.28 -3.10 1.56 0.42 0.00 12974
0.05 0.00 -8.70 -31.41 5.03 2.62 -1.01 -0.32 12980
0.05 0.04 -9.93 -33.51 2.37 2.88 -2.10 -0.56 12986
0.05 0.15 -7.35 -31.88 -2.93 2.89 -3.14 -0.69 12993
0.03 0.27 0.45 -3.08 6.37 3.07 -3.42 -0.60 12999
0.03 0.52 5.53 -7.68 21.09 3.90 -1.98 -0.24 13005
-0.01 0.89 8.40 2.21 33.86 4.28 -0.62 0.25 13012
-0.01 1.20 -3.43 -2.44 27.40 4.28 -1.11 0.28 13019
-0.01 1.36 -4.84 -4.50 30.76 4.28 -1.82 -0.15 13025
-0.00 1.38 -0.03 -5.58 25.12 4.00 -1.83 -0.34 13031
-0.02 1.33 0.67 -4.77 22.23 3.57 -1.12 -0.25 13038
-0.02 1.29 0.33 -2.94 23.10 3.12 -0.72 -0.22 13044
-0.00 1.24 1.77 -2.93 25.10 2.14 -1.19 -0.23 13050
-0.02 1.21 2.24 -1.27 12.47 0.62 -0.84 -0.03 13057
-0.01 1.20 1.09 -1.43 11.50 0.23 -0.43 0.11 13064
0.01 1.13 0.55 -0.76 10.06 0.08 -0.19 0.16 13070
0.03 1.10 0.18 -0.79 10.11 0.03 -0.09 0.14 13076
0.04 1.16 0.29 -1.05 10.18 -0.02 -0.04 0.08 13082
0.02 1.15 0.70 -1.21 10.28 -0.05 -0.04 0.05 13089
0.02 1.18 0.89 -1.21 10.28 -0.07 -0.05 0.06 13095
0.02 1.21 0.75 -0.92 10.18 -0.09 -0.08 0.07 13102
0.04 1.30 0.06 -0.69 10.10 -0.09 -0.09 0.06 13108
0.03 1.30 0.68 -0.70 10.10 -0.08 -0.08 0.05 13115
0.04 1.31 0.76 -0.68 10.02 -0.07 -0.07 0.05 13121
0.09 1.34 0.70 -0.68 10.13 -0.06 -0.06 0.04 13127
0.11 1.33 0.67 -0.69 10.18 -0.05 -0.05 0.03 13133
0.11 1.30 0.64 -0.68 10.08 -0.05 -0.05 0.04 13140
0.12 1.27 0.71 -0.68 10.11 -0.04 -0.03 0.04 13147
0.12 1.22 0.71 -0.66 10.20 -0.03 -0.03 0.04 13153
0.14 1.20 -0.01 -0.45 11.30 -0.02 -0.03 0.05 13159
0.13 1.12 0.72 -0.65 10.01 -0.00 -0.02 0.04 13166
0.15 1.04 0.74 -0.67 10.02 0.01 -0.02 0.04 13172
0.20 1.00 0.68 -0.65 9.98 0.01 -0.01 0.03 13178
0.20 0.92 0.71 -0.73 10.05 0.02 -0.01 0.04 13185
0.23 0.80 0.74 -0.69 10.01 0.02 -0.01 0.04 13192
0.26 0.69 0.78 -0.67 10.04 0.02 -0.01 0.04 13198
0.24 0.70 0.81 -0.67 10.05 0.03 -0.01 0.04 13204
0.25 0.65 0.81 -0.68 10.02 0.03 -0.02 0.04 13210
0.26 0.57 0.81 -0.72 9.98 0.03 -0.02 0.03 13216
0.28 0.49 0.96 -0.77 10.05 0.04 -0.02 0.03 13223
0.30 0.41 0.80 -0.72 10.00 0.04 -0.03 0.03 13230
0.30 0.32 0.82 -0.69 10.03 0.04 -0.03 0.02 13236
0.32 0.33 0.81 -0.72 9.98 0.04 -0.03 0.02 13242
0.34 0.25 0.79 -0.71 9.97 0.04 -0.03 0.02 13249
0.34 0.24 0.81 -0.73 10.04 0.04 -0.03 0.02 13255
0.39 0.16 0.78 -0.72 10.04 0.04 -0.03 0.02 13261
0.42 0.11 0.72 -0.75 9.99 0.05 -0.03 0.02 13267
0.42 0.05 0.74 -0.73 9.94 0.06 -0.02 0.02 13274
0.43 0.05 0.74 -0.67 10.00 0.06 -0.02 0.02 13281
0.44 0.02 0.73 -0.78 10.05 0.07 -0.02 0.02 13287
0.48 0.04 0.80 -0.74 9.96 0.07 -0.01 0.02 13293
0.50 -0.00 0.72 -0.77 10.03 0.09 -0.02 0.02 13299
0.51 0.01 0.81 -0.66 10.06 0.09 -0.02 0.02 13305
0.53 0.01 0.85 -0.83 10.05 0.11 -0.02 0.01 13313
0.53 -0.03 0.86 -0.81 10.08 0.13 -0.02 0.01 13319
0.57 -0.03 0.75 -0.95 10.13 0.14 -0.02 0.00 13325
0.63 -0.02 0.85 -0.87 10.00 0.15 -0.03 -0.01 13331
0.67 -0.02 0.83 -0.88 9.99 0.16 -0.03 -0.02 13338
0.73 -0.03 0.88 -0.87 10.02 0.17 -0.03 -0.02 13344
0.81 -0.03 0.87 -0.93 9.97 0.17 -0.04 -0.03 13350
0.86 -0.04 0.85 -0.92 9.96 0.17 -0.04 -0.04 13357
0.89 -0.04 0.80 -0.94 9.96 0.17 -0.04 -0.04 13363
0.93 -0.04 0.78 -0.94 9.95 0.16 -0.04 -0.04 13370
0.94 -0.06 0.78 -0.99 9.93 0.15 -0.04 -0.04 13376
0.96 -0.04 0.85 -0.98 9.99 0.15 -0.05 -0.04 13382
1.02 -0.05 0.87 -1.02 9.96 0.15 -0.05 -0.04 13388
1.05 -0.07 0.83 -0.97 10.02 0.16 -0.06 -0.05 13395
1.07 -0.04 0.84 -1.05 10.05 0.16 -0.06 -0.05 13402
1.12 -0.05 0.84 -1.04 10.07 0.18 -0.07 -0.05 13408
1.17 -0.05 0.85 -1.04 10.10 0.19 -0.03 -0.06 13414
1.23 -0.06 0.87 -1.13 10.24 0.22 -0.07 -0.06 13421
1.27 -0.07 0.79 -1.15 10.15 0.26 -0.08 -0.07 13427
1.32 -0.04 0.87 -1.15 10.33 0.32 -0.08 -0.08 13433
1.38 -0.07 0.90 -1.22 10.51 0.38 -0.08 -0.08 13440
1.41 -0.06 0.89 -1.30 10.56 0.47 -0.09 -0.09 13447
1.48 -0.06 0.97 -1.27 10.75 0.58 -0.09 -0.11 13453
1.49 -0.07 0.94 -1.35 10.88 0.69 -0.11 -0.12 13459
1.57 -0.07 0.83 -1.38 10.68 0.79 -0.13 -0.13 13465
1.61 -0.08 0.81 -1.52 11.35 0.88 -0.15 -0.14 13472
1.68 -0.07 0.97 -1.57 11.41 0.98 -0.18 -0.14 13478
1.74 -0.07 1.02 -1.60 11.69 1.09 -0.22 -0.15 13485
1.80 -0.06 1.01 -1.67 11.55 1.21 -0.26 -0.16 13492
1.82 -0.07 0.97 -1.79 12.15 1.35 -0.32 -0.16 13498
1.85 -0.07 0.89 -1.88 12.33 1.49 -0.34 -0.17 13504
1.93 -0.07 0.71 -1.90 12.77 1.65 -0.38 -0.16 13510
1.95 -0.07 0.58 -1.96 12.65 1.83 -0.43 -0.15 13517
1.98 -0.07 0.52 -2.02 12.72 2.02 -0.45 -0.14 13523
2.04 -0.08 0.49 -2.08 13.04 2.23 -0.46 -0.12 13530
2.05 -0.08 0.71 -2.38 13.52 2.43 -0.46 -0.11 13536
2.04 -0.08 0.77 -2.47 13.57 2.63 -0.43 -0.13 13543
2.05 -0.07 1.13 -2.64 14.33 2.86 -0.42 -0.18 13549
2.08 -0.06 0.93 -2.66 13.91 3.15 -0.40 -0.21 13555
2.04 -0.08 1.16 -2.69 14.41 3.43 -0.41 -0.26 13562
2.00 -0.06 0.90 -2.73 15.06 3.74 -0.41 -0.32 13569
1.92 -0.07 0.44 -2.90 15.48 4.09 -0.40 -0.35 13575
1.78 -0.07 1.16 -2.84 17.17 4.28 -0.43 -0.38 13581
1.66 -0.06 2.23 -3.25 17.61 4.28 -0.54 -0.47 13588
1.51 -0.06 3.43 -3.80 18.37 4.28 -0.69 -0.65 13594
1.28 -0.06 2.91 -4.90 19.66 4.28 -0.81 -0.81 13600
1.15 -0.06 2.05 -7.12 23.24 4.28 -1.07 -0.92 13607
1.00 -0.03 2.30 -10.76 28.40 4.28 -1.15 -0.93 13614
0.80 -0.04 1.87 -14.20 32.51 4.28 -1.00 -0.92 13620
0.73 -0.02 2.38 -17.61 35.84 4.28 -0.65 -0.82 13627
0.61 -0.03 3.74 -15.84 31.36 4.28 -0.29 -0.75 13633
0.49 -0.01 2.16 -12.62 30.40 4.28 -0.04 -0.84 13639
0.36 -0.01 1.31 -7.96 29.30 4.28 0.12 -0.88 13645
0.26 -0.00 1.03 -5.17 30.98 4.28 0.00 -0.96 13652
0.24 -0.01 2.31 -2.79 31.89 4.28 -0.51 -1.08 13659
0.19 -0.02 5.05 0.68 32.01 4.28 -1.04 -1.19 13665
0.15 -0.01 8.44 4.80 31.67 4.28 -1.34 -1.25 13671
0.13 -0.01 9.63 7.61 31.23 4.28 -1.27 -1.28 13678
0.07 -0.01 9.22 13.11 26.14 4.28 -0.81 -1.30 13684
0.08 -0.01 9.29 17.42 17.75 4.28 -0.18 -1.63 13690
0.06 -0.01 9.81 19.19 -2.12 4.27 0.09 -2.14 13697
0.06 0.00 8.63 22.97 0.65 3.04 -0.33 -2.54 13704
0.07 -0.01 9.45 18.16 23.77 0.89 0.51 -2.51 13710
0.06 -0.01 9.48 14.37 30.36 -1.04 1.32 -2.19 13716
0.07 -0.01 5.36 13.20 21.52 -2.42 1.46 -1.83 13723
0.07 -0.01 2.74 12.49 14.90 -3.25 1.08 -1.45 13729
0.06 0.00 1.69 10.99 12.27 -3.92 0.50 -1.08 13735
0.07 -0.01 2.03 9.16 11.09 -4.25 0.04 -0.78 13742
0.07 0.00 2.94 7.46 9.52 -4.28 -0.26 -0.56 13748
0.07 0.00 3.82 5.80 7.95 -4.28 -0.41 -0.39 13755
0.06 -0.01 4.13 4.45 7.10 -4.28 -0.42 -0.26 13761
0.06 -0.01 4.37 3.39 6.40 -4.28 -0.33 -0.14 13767
0.07 -0.01 4.74 2.78 6.03 -4.28 -0.16 -0.06 13773
0.06 -0.01 5.17 2.37 6.05 -4.26 0.04 -0.03 13779
0.05 -0.01 5.40 2.07 6.11 -4.23 0.25 -0.01 13786
0.07 -0.00 5.28 1.92 6.60 -4.21 0.47 0.00 13793
0.07 -0.01 4.92 1.91 7.24 -4.20 0.70 0.02 13799
0.06 -0.01 4.54 1.89 7.75 -4.21 0.93 0.07 13805
0.06 -0.00 4.12 1.68 8.26 -4.24 1.15 0.14 13811
0.07 -0.01 3.70 1.35 8.89 -4.26 1.31 0.23 13817
0.06 -0.01 3.26 0.91 9.71 -4.28 1.40 0.31 13824
0.07 -0.00 2.66 0.50 10.74 -4.28 1.41 0.40 13831
0.07 -0.01 2.46 -0.03 11.90 -4.28 1.38 0.50 13837
0.06 -0.01 2.22 -0.31 12.73 -4.28 1.35 0.58 13843
0.07 -0.01 2.16 -0.63 13.49 -4.28 1.36 0.66 13849
0.06 -0.01 2.33 -1.07 14.15 -4.28 1.37 0.69 13856
0.06 -0.01 2.34 -1.53 15.29 -4.28 1.44 0.70 13862
0.07 -0.01 2.53 -2.30 15.88 -4.28 1.58 0.67 13869
0.06 -0.01 2.48 -3.20 15.78 -4.28 1.76 0.60 13875
0.06 -0.01 2.36 -4.29 16.38 -4.28 1.97 0.50 13881
0.06 -0.00 2.09 -5.34 17.03 -4.28 2.17 0.40 13888
0.05 -0.01 1.63 -6.27 17.40 -4.28 2.34 0.29 13894
0.06 0.00 0.96 -6.88 17.66 -4.28 2.45 0.20 13900
0.06 -0.01 0.34 -7.11 17.88 -4.28 2.52 0.12 13906
0.05 -0.01 0.05 -7.37 18.23 -4.27 2.54 0.08 13914
0.07 -0.01 -0.18 -7.58 18.55 -4.21 2.52 0.05 13920
0.06 -0.01 -0.27 -7.82 19.42 -4.08 2.46 0.04 13926
0.06 -0.00 -0.35 -8.05 20.68 -3.90 2.41 0.06 13932
0.06 -0.00 -0.46 -8.22 22.00 -3.72 2.34 0.12 13938
0.07 -0.01 -0.50 -8.28 23.41 -3.63 2.26 0.21 13945
0.07 0.00 -0.44 -8.56 24.19 -3.59 2.16 0.31 13952
0.06 -0.00 -0.48 -9.42 24.97 -3.61 2.02 0.43 13958
0.06 -0.00 -0.30 -10.58 24.77 -3.66 1.88 0.55 13964
0.06 -0.00 -0.17 -11.70 23.85 -3.69 1.70 0.67 13971
0.04 0.00 -0.17 -12.69 22.51 -3.62 1.56 0.79 13977
0.06 -0.01 -0.27 -13.66 21.44 -3.49 1.49 0.93 13983
0.05 -0.01 -0.24 -14.53 20.90 -3.31 1.51 1.08 13990
0.05 0.01 -0.52 -15.26 20.61 -3.13 1.54 1.24 13997
0.06 -0.01 -0.91 -16.10 20.21 -2.98 1.57 1.39 14003
0.06 -0.00 -1.79 -16.61 20.00 -2.94 1.58 1.54 14010
0.06 -0.00 -3.06 -16.96 18.82 -2.94 1.66 1.72 14016
0.06 -0.00 -4.22 -18.28 17.80 -2.97 1.80 1.89 14022
0.08 -0.00 -5.46 -20.45 16.34 -2.98 1.79 2.00 14028
0.06 0.00 -6.79 -23.36 13.77 -2.93 1.60 2.01 14035
0.07 0.00 -7.95 -26.50 11.22 -2.79 1.32 1.96 14042
0.05 -0.01 -9.30 -29.62 7.72 -2.55 1.06 1.83 14048
0.06 0.00 -9.13 -32.05 4.36 -2.19 0.87 1.63 14055
0.06 -0.00 -9.60 -34.19 1.92 -1.75 0.78 1.38 14061
0.05 0.00 -10.05 -34.62 0.68 -1.22 0.71 1.07 14067
0.05 0.00 -10.34 -33.19 0.53 -0.66 0.59 0.71 14073
0.04 0.00 -10.35 -30.42 1.67 -0.10 0.35 0.33 14081
0.05 -0.00 -9.74 -27.07 3.32 0.39 0.02 -0.03 14087
0.05 -0.00 -10.20 -32.20 -0.62 0.78 -0.44 -0.29 14093
0.03 0.01 -14.11 -27.71 -7.41 3.76 -1.82 -0.22 14100
0.03 -0.00 -11.70 -16.27 8.70 3.33 -2.06 -0.18 14106
0.04 0.03 -6.03 -17.16 -0.32 3.24 -2.95 -0.19 14112
0.04 0.16 -0.02 -8.82 0.94 2.75 -3.88 -0.29 14118
0.03 0.32 3.04 2.87 14.00 2.94 -2.96 -0.09 14126
0.04 0.60 6.96 5.97 21.26 3.54 -0.81 0.52 14132
0.02 0.92 3.05 2.13 19.48 3.96 -0.48 0.82 14138
0.01 1.26 -7.96 -4.04 24.24 4.27 -1.02 0.57 14144
-0.01 1.42 -6.39 -7.44 24.04 4.28 -1.42 0.08 14151
-0.01 1.48 0.69 -5.17 22.70 4.25 -1.28 -0.12 14157
-0.01 1.53 0.16 -2.92 23.83 4.04 -0.75 -0.07 14163
-0.02 1.53 -0.49 -2.08 20.63 3.42 -0.64 -0.14 14171
-0.01 1.52 1.15 -2.35 16.38 3.03 -0.69 -0.28 14177
-0.02 1.57 3.45 -2.77 21.90 3.06 -0.86 -0.27 14183
-0.01 1.47 2.53 -0.37 20.28 1.32 -1.67 -0.11 14189
-0.02 1.45 1.33 -2.84 12.92 0.35 -0.82 0.15 14196
-0.01 1.51 0.02 -1.86 11.00 0.04 -0.24 0.20 14202
-0.01 1.55 -0.16 -1.08 10.35 -0.00 -0.11 0.15 14209
0.01 1.48 0.25 -0.87 10.17 -0.01 -0.06 0.07 14215
-0.01 1.52 0.86 -1.05 10.12 -0.02 -0.05 0.06 14222
0.01 1.54 0.96 -1.26 9.98 -0.03 -0.06 0.07 14228
0.03 1.50 0.63 -0.90 10.24 -0.04 -0.08 0.08 14234
0.05 1.49 0.63 -0.73 10.09 -0.03 -0.07 0.07 14240
0.04 1.48 0.74 -0.76 10.03 -0.03 -0.06 0.06 14247
0.07 1.47 0.77 -0.68 10.02 -0.03 -0.05 0.06 14254
0.08 1.44 0.57 -0.76 10.04 -0.02 -0.06 0.06 14260
0.04 1.40 0.80 -0.71 10.00 -0.02 -0.05 0.06 14266
0.09 1.39 0.83 -0.70 10.03 -0.01 -0.05 0.06 14273
0.07 1.31 0.76 -0.72 10.13 -0.00 -0.05 0.06 14279
0.10 1.26 0.77 -0.68 10.04 -0.00 -0.05 0.05 14285
0.10 1.21 0.58 -0.64 9.87 0.01 -0.05 0.05 14291
0.12 1.16 0.80 -0.69 10.01 0.01 -0.03 0.06 14298
0.12 1.10 0.78 -0.67 10.04 0.01 -0.03 0.05 14305
0.13 1.00 0.75 -0.68 10.01 0.02 -0.02 0.05 14311
0.13 0.98 0.79 -0.69 10.02 0.02 -0.02 0.05 14317
0.16 0.87 0.75 -0.65 10.05 0.03 -0.02 0.05 14323
0.18 0.80 0.77 -0.69 10.02 0.03 -0.02 0.05 14330
0.19 0.73 0.82 -0.71 9.95 0.03 -0.02 0.05 14337
0.20 0.67 0.80 -0.70 10.01 0.03 -0.02 0.05 14343
0.21 0.60 0.83 -0.69 9.98 0.03 -0.02 0.04 14349
0.25 0.54 0.81 -0.71 9.97 0.03 -0.03 0.04 14355
0.26 0.47 0.83 -0.71 9.94 0.03 -0.03 0.04 14362
0.25 0.40 0.82 -0.73 9.98 0.02 -0.04 0.03 14368
0.25 0.36 0.81 -0.71 9.86 0.02 -0.04 0.03 14374
0.27 0.32 0.79 -0.72 10.00 0.01 -0.04 0.03 14381
0.26 0.29 0.81 -0.77 9.98 0.01 -0.05 0.02 14387
0.28 0.29 0.83 -0.75 9.99 0.01 -0.05 0.02 14394
0.30 0.23 0.79 -0.79 10.01 0.01 -0.05 0.02 14400
0.31 0.22 0.76 -0.74 10.02 0.02 -0.06 0.03 14406
0.35 0.22 0.79 -0.76 9.97 0.01 -0.05 0.02 14412
0.36 0.15 0.76 -0.74 10.01 0.01 -0.05 0.02 14418
0.38 0.16 0.80 -0.74 10.04 0.01 -0.05 0.02 14426
0.40 0.13 0.77 -0.78 9.94 0.02 -0.05 0.02 14432
0.42 0.12 0.78 -0.78 10.02 0.01 -0.05 0.02 14438
0.44 0.08 0.79 -0.85 10.14 0.01 -0.05 0.02 14444
0.46 0.10 0.41 -0.68 9.93 0.01 -0.05 0.01 14451
0.51 0.05 0.89 -0.84 9.98 0.01 -0.05 0.01 14457
0.55 0.06 0.72 -0.76 10.00 0.02 -0.05 0.01 14464
0.58 0.05 0.77 -0.77 9.94 0.01 -0.05 0.00 14470
0.59 0.02 0.85 -0.84 9.93 0.02 -0.05 -0.00 14476
0.62 0.05 0.79 -0.79 9.91 0.02 -0.04 0.00 14482
0.65 0.02 0.80 -0.81 9.99 0.01 -0.04 -0.00 14489
0.67 -0.00 0.80 -0.78 9.96 0.02 -0.04 0.00 14495
0.67 0.01 0.76 -0.82 10.02 0.02 -0.04 0.00 14501
0.72 -0.01 0.76 -0.78 10.02 0.02 -0.04 0.00 14508
0.75 -0.00 0.78 -0.79 10.04 0.03 -0.04 0.01 14515
0.81 -0.01 0.76 -0.78 9.98 0.03 -0.04 0.01 14521
0.83 -0.02 0.79 -0.74 9.99 0.03 -0.04 0.01 14527
0.85 -0.02 0.76 -0.68 9.96 0.04 -0.05 0.01 14533
0.95 -0.02 0.76 -1.09 10.05 0.05 -0.05 0.02 14539
0.96 -0.03 0.75 -0.82 10.10 0.06 -0.05 0.02 14546
1.01 -0.04 0.76 -0.84 10.12 0.07 -0.04 0.01 14553
1.06 -0.05 0.76 -0.82 10.01 0.09 -0.03 0.01 14559
1.14 -0.07 0.78 -0.83 10.13 0.12 -0.03 0.01 14565
1.19 -0.08 0.87 -0.94 10.16 0.16 -0.02 -0.00 14571
1.25 -0.06 0.85 -0.95 10.33 0.21 -0.02 -0.02 14578
1.28 -0.06 0.86 -0.92 10.37 0.27 -0.01 -0.03 14584
1.34 -0.07 1.01 -1.07 10.36 0.35 -0.01 -0.05 14590
1.43 -0.07 1.05 -1.00 10.65 0.44 -0.02 -0.07 14597
1.49 -0.06 1.19 -1.25 11.02 0.58 -0.04 -0.10 14604
1.53 -0.06 1.11 -1.23 11.84 0.82 -0.09 -0.13 14610
1.60 -0.07 1.05 -1.22 12.82 1.21 -0.13 -0.14 14616
1.68 -0.07 0.90 -1.31 13.01 1.55 -0.16 -0.16 14623
1.68 -0.06 1.08 -1.45 13.35 1.73 -0.24 -0.17 14629
1.75 -0.07 1.02 -1.51 13.39 1.85 -0.30 -0.16 14636
1.81 -0.08 0.89 -1.59 13.05 2.00 -0.32 -0.15 14642
1.85 -0.06 0.74 -1.78 12.32 2.16 -0.34 -0.14 14649
1.90 -0.05 0.95 -1.77 13.30 2.34 -0.37 -0.12 14655
1.91 -0.05 0.75 -1.90 13.51 2.56 -0.37 -0.12 14661
1.91 -0.05 0.73 -2.15 14.02 2.80 -0.33 -0.11 14668
1.91 -0.04 1.14 -2.14 12.99 2.98 -0.35 -0.12 14674
1.98 -0.03 1.09 -2.18 13.92 3.21 -0.32 -0.16 14681
1.99 -0.07 0.88 -2.10 13.77 3.44 -0.29 -0.18 14687
1.94 -0.06 0.53 -2.39 15.08 3.73 -0.32 -0.19 14694
1.83 -0.07 0.80 -2.64 15.33 4.05 -0.34 -0.20 14700
1.75 -0.06 1.85 -2.98 15.97 4.25 -0.42 -0.25 14706
1.66 -0.07 3.33 -3.61 16.49 4.28 -0.52 -0.43 14712
1.46 -0.06 3.36 -3.74 18.03 4.28 -0.74 -0.60 14720
1.31 -0.05 2.92 -3.70 19.12 4.28 -0.90 -0.75 14726
1.09 -0.06 2.66 -4.99 20.28 4.28 -1.12 -0.87 14732
0.97 -0.04 2.67 -8.96 23.12 4.28 -1.27 -0.99 14739
0.89 -0.05 3.04 -11.77 28.77 4.28 -1.32 -1.05 14745
0.72 -0.04 3.02 -14.76 33.76 4.28 -1.17 -1.07 14751
0.66 -0.04 2.70 -17.16 33.67 4.28 -0.83 -1.05 14758
0.55 -0.03 3.38 -13.62 29.22 4.28 -0.49 -1.02 14765
0.44 -0.03 2.41 -9.86 25.76 4.28 -0.22 -1.05 14771
0.33 -0.02 1.59 -6.33 29.70 4.28 -0.05 -1.05 14778
0.27 -0.02 1.71 -5.23 32.01 4.28 -0.29 -1.11 14784
0.19 -0.02 2.96 -2.97 31.71 4.28 -0.80 -1.23 14790
0.17 -0.02 5.84 0.81 30.88 4.28 -1.27 -1.32 14796
0.15 -0.01 7.97 4.52 31.44 4.28 -1.52 -1.35 14802
0.11 -0.01 8.93 8.74 27.53 4.28 -1.37 -1.33 14810
0.09 -0.01 10.55 15.81 22.67 4.28 -1.04 -1.34 14816
0.05 -0.01 9.97 18.62 15.57 4.28 -0.46 -1.68 14822
0.06 -0.00 9.52 24.69 -8.36 3.78 -0.42 -2.15 14829
0.07 -0.01 7.22 23.13 12.11 2.27 -0.43 -2.44 14835
0.06 -0.00 9.33 16.20 29.57 0.36 0.62 -2.31 14841
0.06 -0.01 8.11 13.32 27.30 -1.44 1.24 -2.01 14848
0.06 -0.01 5.41 13.36 18.53 -2.56 1.31 -1.70 14855
0.06 -0.01 3.41 12.88 13.21 -3.20 1.02 -1.38 14861
0.06 -0.00 2.79 11.42 10.48 -3.72 0.70 -1.07 14867
0.07 -0.01 3.08 9.52 9.44 -4.09 0.48 -0.82 14873
0.06 -0.01 3.83 7.77 8.27 -4.19 0.40 -0.61 14880
0.05 -0.00 4.33 6.52 7.84 -4.20 0.39 -0.44 14886
0.06 -0.00 4.41 5.40 7.51 -4.20 0.49 -0.27 14893
0.05 -0.01 4.44 4.66 7.11 -4.20 0.63 -0.18 14899
0.04 -0.00 4.44 4.17 6.80 -4.18 0.79 -0.09 14905
0.05 -0.00 4.35 3.75 6.84 -4.18 0.94 -0.03 14911
0.06 -0.01 3.96 3.38 7.37 -4.19 1.07 0.02 14918
0.06 -0.01 3.70 3.15 8.21 -4.20 1.19 0.06 14924
0.07 -0.01 3.47 2.87 9.08 -4.22 1.29 0.10 14930
0.08 -0.01 2.55 2.71 9.72 -4.25 1.36 0.14 14937
0.07 -0.01 2.68 2.36 10.13 -4.27 1.41 0.19 14943
0.07 -0.01 2.21 2.03 10.94 -4.28 1.45 0.24 14949
0.07 -0.01 1.82 1.47 11.75 -4.28 1.47 0.30 14956
0.07 -0.01 1.57 0.83 12.32 -4.28 1.48 0.34 14962
0.07 -0.01 1.56 0.15 12.92 -4.28 1.48 0.37 14968
0.07 -0.01 1.59 -0.44 13.55 -4.28 1.49 0.37 14974
0.06 -0.01 1.57 -0.91 14.10 -4.28 1.54 0.36 14982
0.06 -0.01 1.47 -1.61 14.72 -4.28 1.65 0.31 14988
0.06 -0.01 1.37 -2.44 15.44 -4.28 1.81 0.25 14994
0.05 -0.00 1.19 -3.51 16.08 -4.28 2.00 0.15 15000
0.07 -0.01 0.72 -4.63 16.80 -4.28 2.19 0.02 15006
0.06 -0.01 0.06 -5.69 17.75 -4.28 2.35 -0.12 15013
0.04 -0.00 -0.68 -6.48 18.41 -4.28 2.47 -0.26 15020
0.06 -0.01 -1.40 -7.14 18.82 -4.28 2.52 -0.38 15026
0.05 -0.01 -1.69 -7.16 19.07 -4.27 2.50 -0.45 15032
0.05 0.00 -1.71 -6.81 19.23 -4.22 2.40 -0.45 15039
0.06 -0.01 -1.43 -6.44 19.25 -4.15 2.30 -0.41 15045
0.05 -0.00 -1.15 -6.29 19.63 -4.05 2.21 -0.31 15051
0.06 -0.01 -0.88 -6.44 20.22 -3.92 2.15 -0.18 15057
0.05 -0.01 -0.63 -6.63 20.53 -3.77 2.08 -0.00 15064
0.06 -0.01 -0.56 -7.41 21.72 -3.62 2.08 0.19 15071
0.07 -0.01 -0.35 -8.03 22.24 -3.47 2.07 0.41 15077
0.05 -0.00 -0.33 -9.65 22.15 -3.31 2.04 0.63 15083
0.04 -0.00 -0.69 -10.23 21.32 -3.15 1.98 0.84 15089
0.05 -0.01 -1.12 -11.69 20.48 -2.93 1.88 1.06 15096
0.04 -0.00 -1.26 -13.32 19.75 -2.67 1.75 1.25 15102
0.07 -0.01 -1.24 -14.83 19.98 -2.38 1.56 1.43 15109
0.07 -0.01 -1.45 -16.07 20.63 -2.13 1.34 1.59 15115
0.07 0.00 -1.77 -16.83 21.06 -1.98 1.09 1.71 15122
0.07 -0.01 -2.19 -17.28 20.96 -1.94 0.86 1.83 15128
0.07 -0.01 -2.07 -17.92 20.00 -2.03 0.70 1.93 15134
0.07 -0.01 -1.62 -18.70 18.48 -2.19 0.65 2.03 15140
0.06 -0.01 -1.32 -19.51 16.25 -2.39 0.77 2.10 15148
0.08 -0.01 -2.00 -20.03 13.80 -2.54 1.18 2.15 15154
0.07 -0.01 -2.83 -22.00 11.67 -2.61 1.74 2.22 15160
0.08 0.00 -4.24 -24.85 10.27 -2.59 2.06 2.24 15167
0.07 -0.00 -6.01 -27.26 7.49 -2.47 2.08 2.20 15173
0.07 -0.01 -7.60 -29.55 5.57 -2.25 1.89 2.14 15179
0.08 -0.00 -8.68 -31.16 3.12 -1.96 1.63 2.06 15185
0.07 -0.01 -9.07 -30.76 1.37 -1.63 1.37 1.96 15193
0.08 0.00 -9.27 -30.35 1.21 -1.24 1.10 1.76 15199
0.08 -0.00 -9.15 -29.07 2.42 -0.83 0.78 1.48 15205
0.07 -0.00 -8.78 -26.82 3.74 -0.46 0.41 1.20 15211
0.08 0.00 -7.79 -24.32 5.93 -0.16 0.02 0.80 15218
0.07 -0.01 -6.12 -21.92 6.91 0.05 -0.39 0.49 15224
0.07 0.00 -10.76 -41.33 78.47 2.69 -2.37 0.23 15230
0.07 -0.01 -0.37 -18.46 6.79 2.71 -1.35 0.23 15237
0.07 0.01 -3.82 -14.41 -6.50 2.77 -2.12 0.13 15244
0.07 0.11 -0.35 -12.11 -5.15 2.39 -3.25 0.10 15250
0.05 0.24 0.73 1.76 8.32 2.59 -3.61 0.19 15256
0.04 0.49 5.02 3.99 20.83 3.38 -1.83 0.55 15262
0.02 0.75 6.45 5.25 16.29 3.85 -0.61 1.11 15269
0.00 1.07 -5.60 -2.44 20.48 4.25 -0.97 1.16 15276
-0.01 1.26 -10.28 -6.95 26.50 4.28 -1.37 0.69 15282
0.00 1.43 -3.95 -5.86 21.95 4.28 -1.38 0.24 15289
-0.01 1.47 -2.08 -4.93 24.46 4.24 -0.92 0.05 15295
-0.02 1.57 -2.99 -2.82 22.51 3.92 -0.63 -0.20 15301
-0.00 1.54 0.32 -2.74 23.02 3.53 -0.80 -0.53 15307
-0.01 1.47 3.69 -3.77 28.30 2.61 -1.87 -0.49 15314
-0.01 1.51 3.42 -2.10 12.45 0.62 -1.32 -0.02 15321
0.01 1.49 0.94 -2.48 11.69 0.19 -0.55 0.20 15327
-0.01 1.50 -0.35 -0.68 10.72 0.04 -0.18 0.21 15334
0.03 1.50 -0.57 -0.80 10.41 0.00 -0.08 0.10 15340
0.02 1.53 0.47 -0.80 10.30 -0.02 -0.04 0.04 15346
-0.00 1.50 1.27 -1.19 10.11 -0.03 -0.05 0.05 15352
-0.00 1.50 0.94 -1.27 10.15 -0.05 -0.08 0.09 15360
0.01 1.49 0.40 -0.84 10.15 -0.05 -0.09 0.08 15366
0.01 1.53 0.54 -0.79 10.11 -0.05 -0.07 0.06 15372
0.01 1.52 0.69 -0.86 9.99 -0.05 -0.06 0.06 15378
0.01 1.52 0.70 -0.71 10.13 -0.04 -0.06 0.06 15384
0.03 1.51 0.68 -0.68 9.92 -0.03 -0.05 0.06 15391
0.01 1.47 0.73 -0.71 9.98 -0.02 -0.05 0.05 15397
0.01 1.46 0.77 -0.73 9.99 -0.02 -0.06 0.05 15404
0.02 1.43 0.81 -0.75 10.04 -0.01 -0.07 0.05 15410
0.04 1.35 0.68 -0.70 10.03 0.00 -0.07 0.05 15417
