Voltage_01 Voltage_02 Acc_x Acc_y Acc_z Gyro_x Gyro_y Gyro_z Time
5000
0.02 -0.00 2.16 -2.85 15.04 -4.27 1.48 0.57 23
0.03 -0.00 1.84 -3.57 15.73 -4.26 1.59 0.55 29
0.03 -0.00 1.47 -4.42 16.47 -4.25 1.69 0.51 35
0.03 -0.00 1.19 -5.12 17.10 -4.24 1.76 0.47 41
0.04 -0.00 0.82 -5.72 17.77 -4.22 1.79 0.44 48
0.03 -0.00 0.53 -6.41 18.16 -4.20 1.78 0.42 54
0.03 -0.00 0.33 -6.93 18.19 -4.17 1.73 0.42 60
0.03 -0.00 0.25 -7.34 18.27 -4.13 1.65 0.45 66
0.02 -0.00 0.20 -7.78 18.23 -4.04 1.57 0.51 72
0.04 -0.00 0.10 -8.07 18.18 -3.91 1.47 0.58 78
0.03 -0.00 0.06 -8.23 18.08 -3.76 1.38 0.67 84
0.03 -0.00 0.01 -8.37 18.02 -3.60 1.30 0.76 91
0.03 0.01 -0.09 -8.51 18.40 -3.46 1.22 0.84 97
0.04 -0.00 -0.37 -8.61 18.72 -3.29 1.14 0.91 103
0.03 -0.00 -0.80 -8.57 19.05 -3.16 1.06 0.95 110
0.02 -0.00 -1.01 -8.59 19.31 -3.05 0.97 0.99 116
0.03 0.00 -1.15 -8.69 19.49 -2.99 0.85 1.00 122
0.03 -0.00 -1.14 -9.01 19.66 -2.94 0.72 0.98 129
0.03 -0.00 -1.00 -9.41 19.72 -2.90 0.61 0.94 135
0.02 -0.00 -0.76 -9.94 19.64 -2.87 0.55 0.89 141
0.03 0.01 -0.40 -11.01 19.61 -2.82 0.55 0.83 147
0.03 -0.00 -0.11 -10.92 19.60 -2.79 0.60 0.77 153
0.02 -0.00 -0.19 -11.46 19.75 -2.78 0.67 0.69 160
0.04 0.00 -0.39 -11.91 19.62 -2.81 0.76 0.61 166
0.03 -0.00 -0.47 -12.36 18.92 -2.89 0.86 0.53 173
0.03 -0.00 -0.53 -13.10 17.86 -2.99 0.95 0.46 179
0.03 -0.00 -0.81 -13.77 16.14 -3.05 1.06 0.40 185
0.05 -0.00 -1.34 -14.59 13.85 -3.06 1.27 0.43 191
0.03 0.00 -2.14 -15.73 11.58 -2.96 1.59 0.55 198
0.03 0.00 -3.32 -16.89 10.37 -2.75 1.89 0.74 204
0.04 -0.00 -4.72 -18.69 9.69 -2.48 2.08 0.93 210
0.04 0.00 -6.16 -20.28 8.70 -2.19 1.98 1.02 217
0.03 -0.00 -7.16 -22.11 7.30 -1.90 1.58 1.03 223
0.04 0.01 -7.53 -23.44 5.06 -1.63 1.05 0.97 229
0.04 -0.00 -7.36 -24.53 3.20 -1.34 0.62 0.85 235
0.04 -0.00 -6.95 -25.32 2.45 -1.06 0.32 0.69 242
0.04 -0.00 -6.35 -25.62 2.69 -0.65 0.10 0.48 248
0.04 0.00 -5.34 -25.00 2.86 -0.22 -0.06 0.21 254
0.04 -0.00 -3.87 -23.85 3.43 0.19 -0.26 -0.05 261
0.03 -0.00 -2.21 -22.17 4.44 0.54 -0.44 -0.34 267
0.03 -0.00 -11.84 -37.68 15.57 1.41 -1.14 -0.42 273
0.04 -0.00 -0.06 -22.31 -0.51 2.70 -1.31 -0.28 279
0.04 -0.00 -3.37 -16.90 0.84 2.81 -1.94 -0.18 285
0.02 0.04 0.57 -12.72 2.08 2.95 -2.69 0.01 292
0.03 0.14 6.00 -3.16 7.31 2.87 -3.13 0.16 299
0.03 0.17 5.52 4.59 12.36 3.00 -2.59 0.54 305
0.02 0.27 7.85 5.70 13.71 3.19 -1.10 1.10 311
0.01 0.44 6.84 3.69 11.20 3.30 -0.11 1.69 317
0.02 0.57 -1.43 -0.63 18.04 3.66 -0.15 1.86 323
0.01 0.75 -9.33 -4.91 24.29 3.64 -0.47 1.63 329
-0.00 0.85 -10.26 -4.56 20.23 3.42 -0.98 1.11 336
0.01 0.99 -6.42 -3.06 17.89 3.32 -0.84 0.62 343
-0.00 1.08 -5.39 -2.42 19.60 3.16 -0.37 0.28 349
-0.02 1.11 -5.54 -1.56 18.09 2.86 -0.28 -0.15 355
0.00 1.13 -2.25 -1.71 16.62 2.53 -0.30 -0.59 361
0.00 1.12 2.93 -2.01 16.19 2.36 -0.22 -0.70 368
-0.02 1.11 5.84 -2.93 23.36 2.20 -0.47 -0.53 374
-0.00 1.13 3.83 -1.30 13.56 0.89 -1.02 -0.16 380
-0.01 1.15 1.88 -2.54 11.74 0.41 -0.69 0.06 387
-0.03 1.18 0.39 -1.38 10.86 0.20 -0.41 0.15 393
-0.01 1.22 -0.22 -0.65 10.71 0.10 -0.25 0.12 399
-0.02 1.23 -0.01 -0.64 10.34 0.02 -0.13 0.03 406
-0.01 1.17 0.62 -1.03 10.27 -0.01 -0.09 0.00 412
-0.01 1.23 0.89 -1.11 10.04 -0.03 -0.06 0.03 418
-0.01 1.24 0.78 -1.09 10.16 -0.03 -0.06 0.05 424
-0.01 1.26 0.55 -0.74 10.21 -0.03 -0.05 0.04 431
-0.01 1.25 0.53 -0.71 10.09 -0.03 -0.04 0.03 437
-0.00 1.30 0.68 -0.72 10.03 -0.03 -0.04 0.03 443
-0.01 1.27 0.75 -0.70 10.04 -0.03 -0.04 0.03 450
-0.02 1.27 0.57 -0.56 10.05 -0.02 -0.04 0.03 456
-0.02 1.24 0.58 -0.60 9.97 -0.01 -0.03 0.03 462
0.00 1.22 0.71 -0.68 9.97 -0.01 -0.03 0.03 468
-0.01 1.18 0.64 -0.67 9.99 -0.00 -0.03 0.03 475
0.01 1.14 0.67 -0.65 9.98 -0.01 -0.03 0.03 481
0.01 1.10 0.60 -0.67 9.93 -0.00 -0.03 0.03 487
0.03 1.03 0.61 -0.68 9.97 -0.01 -0.02 0.04 493
0.02 0.98 0.63 -0.66 9.99 -0.03 -0.02 0.04 499
0.00 0.95 0.56 -0.63 9.88 0.00 -0.02 0.05 505
-0.01 0.89 0.57 -0.62 9.99 0.01 -0.01 0.05 512
0.02 0.84 0.57 -0.62 10.00 0.01 -0.02 0.05 519
0.02 0.79 0.61 -0.62 9.98 0.02 -0.01 0.05 525
0.03 0.72 0.66 -0.64 10.02 0.02 -0.01 0.05 531
0.01 0.70 0.63 -0.65 10.02 0.03 -0.01 0.05 537
0.04 0.65 0.66 -0.68 10.01 0.03 -0.02 0.05 543
0.05 0.60 0.64 -0.65 9.89 0.03 -0.02 0.04 549
0.04 0.57 0.69 -0.67 9.94 0.03 -0.02 0.04 556
0.04 0.57 0.68 -0.69 9.97 0.02 -0.02 0.03 562
0.05 0.52 0.63 -0.72 9.95 0.02 -0.02 0.03 568
0.06 0.48 0.68 -0.69 10.14 0.02 -0.02 0.03 574
0.07 0.42 0.59 -0.71 9.96 0.02 -0.02 0.03 580
0.08 0.35 0.58 -0.68 10.00 0.02 -0.01 0.03 587
0.07 0.40 0.62 -0.71 10.04 0.02 -0.01 0.03 593
0.08 0.39 0.62 -0.71 10.04 0.02 -0.00 0.03 600
0.08 0.31 0.64 -0.65 9.96 0.02 0.00 0.04 606
0.09 0.28 0.64 -0.71 9.99 0.02 0.00 0.03 612
0.08 0.24 0.67 -0.68 9.97 0.03 0.01 0.04 618
0.09 0.28 0.66 -0.69 10.00 0.03 0.01 0.03 624
0.09 0.26 0.71 -0.66 9.92 0.03 0.01 0.03 630
0.09 0.23 0.68 -0.74 9.96 0.03 0.01 0.03 636
0.07 0.19 0.70 -0.70 9.96 0.03 0.01 0.03 643
0.10 0.18 0.75 -0.77 9.99 0.02 0.01 0.03 649
0.12 0.16 0.71 -0.73 10.00 0.02 0.00 0.02 656
0.13 0.16 0.71 -0.70 10.00 0.02 0.00 0.02 662
0.12 0.08 0.72 -0.74 10.05 0.02 -0.00 0.02 668
0.14 0.10 0.66 -0.77 9.99 0.02 -0.01 0.02 674
0.15 0.10 0.71 -0.70 10.03 0.02 -0.01 0.02 680
0.15 0.06 0.70 -0.74 9.98 0.02 -0.02 0.01 687
0.13 0.06 0.68 -0.74 9.95 0.02 -0.02 0.02 693
0.14 0.04 0.69 -0.79 10.01 0.02 -0.03 0.01 699
0.16 0.05 0.70 -0.68 9.97 0.02 -0.03 0.01 705
0.16 0.03 0.68 -0.75 10.00 0.02 -0.03 0.01 711
0.19 -0.00 0.71 -0.78 10.05 0.02 -0.03 0.01 718
0.20 0.00 0.73 -0.67 9.86 0.02 -0.04 0.01 724
0.24 0.00 0.80 -0.78 9.93 0.03 -0.04 0.00 731
0.24 -0.02 0.72 -0.76 10.04 0.03 -0.04 0.00 737
0.27 -0.03 0.81 -1.14 10.07 0.04 -0.04 0.00 743
0.33 -0.02 0.74 -0.46 10.01 0.05 -0.05 -0.00 749
0.36 -0.02 0.58 -0.65 9.88 0.05 -0.05 -0.01 755
0.43 -0.03 0.72 -0.68 10.06 0.06 -0.05 -0.02 761
0.45 -0.04 0.74 -0.77 10.13 0.09 -0.05 -0.02 768
0.47 -0.03 0.77 -0.87 10.05 0.11 -0.04 -0.03 774
0.55 -0.03 0.80 -0.88 10.17 0.15 -0.03 -0.04 781
0.61 -0.04 0.85 -0.95 10.17 0.19 -0.02 -0.05 787
0.69 -0.04 0.89 -0.91 10.26 0.27 -0.01 -0.06 793
0.76 -0.03 0.81 -0.98 10.51 0.38 0.01 -0.08 799
0.86 -0.05 0.75 -0.99 10.76 0.54 0.03 -0.10 805
0.91 -0.06 0.97 -1.07 11.16 0.72 0.04 -0.11 812
1.01 -0.05 0.92 -1.12 11.51 1.00 0.06 -0.13 818
1.07 -0.06 1.03 -1.21 11.69 1.29 0.05 -0.16 825
1.08 -0.05 1.10 -1.47 12.27 1.52 -0.00 -0.17 831
1.12 -0.05 1.14 -1.43 12.47 1.69 -0.10 -0.18 837
1.23 -0.05 1.04 -1.46 12.76 1.83 -0.17 -0.19 843
1.32 -0.06 1.02 -1.73 12.51 1.95 -0.28 -0.20 849
1.37 -0.06 0.89 -1.69 12.41 2.07 -0.36 -0.19 856
1.43 -0.05 0.75 -1.83 12.50 2.18 -0.41 -0.19 863
1.44 -0.06 0.72 -1.88 12.98 2.32 -0.43 -0.18 869
1.46 -0.06 -0.30 -5.67 12.78 2.42 -0.43 -0.20 875
1.50 -0.05 0.45 -2.19 12.61 2.58 -0.46 -0.17 881
1.51 -0.06 0.57 -2.50 12.26 2.68 -0.45 -0.17 887
1.52 -0.06 0.53 -3.79 11.92 2.82 -0.44 -0.17 894
1.49 -0.05 0.53 -2.59 13.15 3.00 -0.44 -0.14 901
1.47 -0.06 0.09 -2.51 13.55 3.23 -0.42 -0.15 907
1.46 -0.07 0.44 -3.00 14.62 3.52 -0.38 -0.12 913
1.41 -0.06 1.30 -3.13 14.51 3.84 -0.37 -0.14 919
1.29 -0.06 1.80 -3.48 15.37 4.11 -0.37 -0.21 925
1.21 -0.07 2.19 -4.07 15.91 4.27 -0.44 -0.31 932
1.03 -0.04 2.38 -4.56 17.21 4.28 -0.55 -0.41 939
0.89 -0.05 1.73 -5.18 18.85 4.28 -0.70 -0.51 945
0.73 -0.04 0.34 -8.68 19.82 4.28 -0.89 -0.63 951
0.62 -0.03 4.28 -7.76 24.40 4.28 -1.00 -0.72 957
0.56 -0.03 2.81 -11.24 25.04 4.28 -1.03 -0.80 963
0.50 -0.04 2.92 -12.71 27.80 4.28 -0.90 -0.82 970
0.34 -0.01 4.38 -12.63 27.76 4.28 -0.64 -0.87 976
0.27 -0.02 3.84 -10.51 26.82 4.28 -0.33 -0.95 983
0.18 -0.02 3.34 -9.70 25.59 4.28 -0.04 -1.01 989
0.18 -0.01 1.56 -6.95 24.95 4.28 0.06 -1.06 995
0.16 -0.02 0.97 -5.01 26.80 4.28 0.05 -1.08 1002
0.12 -0.01 1.74 -4.40 28.50 4.28 -0.24 -1.14 1008
0.10 -0.01 3.64 -2.25 27.69 4.28 -0.59 -1.20 1014
0.10 -0.01 6.51 0.88 26.20 4.28 -0.84 -1.26 1020
0.05 -0.01 7.88 3.57 25.23 4.28 -0.93 -1.32 1027
0.05 -0.00 8.38 9.02 19.67 4.28 -0.70 -1.32 1033
0.05 -0.01 9.72 15.22 15.85 4.28 0.05 -1.40 1040
0.04 -0.00 9.47 17.78 10.08 4.16 0.61 -1.65 1046
0.05 -0.00 8.15 18.26 -5.26 3.30 0.78 -2.08 1052
0.06 -0.01 5.88 17.22 12.49 2.37 0.66 -2.39 1058
0.05 -0.00 6.06 13.71 27.78 0.67 1.12 -2.24 1064
0.05 -0.00 5.46 14.04 26.42 -1.05 1.27 -1.89 1072
0.05 -0.01 3.73 14.37 18.49 -2.16 0.89 -1.52 1078
0.04 -0.00 2.39 12.98 13.32 -2.91 0.44 -1.17 1084
0.05 -0.00 3.00 11.15 11.62 -3.52 0.11 -0.85 1090
0.05 -0.00 3.72 9.52 9.68 -3.88 -0.10 -0.63 1096
0.05 -0.00 4.21 7.83 7.97 -3.97 -0.23 -0.50 1102
0.05 -0.00 4.43 6.47 6.90 -3.95 -0.20 -0.40 1110
0.06 -0.01 4.62 4.92 6.32 -3.89 -0.13 -0.31 1116
0.06 -0.01 4.79 4.79 6.31 -3.81 0.08 -0.27 1122
0.05 -0.00 4.99 4.26 6.65 -3.74 0.31 -0.22 1128
0.04 -0.00 5.00 3.94 7.13 -3.73 0.55 -0.18 1134
0.05 -0.01 4.73 3.72 7.71 -3.79 0.75 -0.15 1140
0.04 -0.00 4.32 3.64 8.27 -3.91 0.93 -0.09 1146
0.05 -0.00 4.06 3.37 8.96 -4.04 1.04 -0.01 1153
0.03 -0.00 3.68 3.07 10.27 -4.14 1.11 0.08 1159
0.05 -0.01 3.36 2.62 10.40 -4.21 1.13 0.20 1166
0.04 -0.00 3.11 2.22 11.25 -4.25 1.14 0.34 1172
0.04 -0.00 2.86 1.64 11.81 -4.28 1.15 0.49 1178
0.05 -0.01 2.75 0.76 12.29 -4.28 1.17 0.62 1184
0.04 -0.00 2.71 -0.08 12.81 -4.28 1.17 0.74 1190
0.03 -0.00 2.77 -0.92 13.28 -4.28 1.16 0.81 1197
0.04 0.00 2.76 -1.63 13.85 -4.28 1.17 0.85 1204
0.04 -0.00 2.76 -2.30 14.36 -4.28 1.20 0.85 1210
0.03 -0.00 2.79 -2.83 14.89 -4.28 1.29 0.83 1216
0.03 0.01 2.76 -4.21 15.46 -4.28 1.44 0.77 1222
0.03 -0.00 1.38 -4.32 16.31 -4.28 1.61 0.76 1228
0.03 -0.00 1.96 -5.59 16.84 -4.28 1.79 0.72 1234
0.03 0.00 1.95 -5.80 16.65 -4.28 1.93 0.69 1242
0.04 -0.00 1.97 -6.74 17.39 -4.28 1.95 0.63 1248
0.03 -0.00 1.46 -7.26 17.69 -4.27 2.01 0.56 1254
0.03 -0.00 1.29 -7.56 17.79 -4.24 2.04 0.54 1260
0.04 -0.00 1.20 -7.43 17.67 -4.17 1.98 0.54 1266
0.03 -0.00 1.01 -7.23 17.69 -4.07 1.85 0.57 1272
0.03 -0.00 1.04 -7.60 17.94 -3.92 1.74 0.62 1280
0.04 -0.00 1.15 -7.83 18.26 -3.74 1.58 0.67 1286
0.04 -0.00 1.31 -8.15 18.59 -3.56 1.44 0.75 1292
0.02 -0.00 1.42 -8.51 19.06 -3.40 1.33 0.86 1298
0.04 -0.00 1.39 -9.07 19.72 -3.24 1.23 0.97 1304
0.04 -0.00 1.42 -9.56 20.68 -3.12 1.15 1.08 1310
0.03 -0.00 1.49 -10.00 21.65 -3.05 1.10 1.19 1317
0.03 -0.00 1.83 -10.39 22.50 -3.05 1.08 1.29 1324
0.03 -0.00 2.17 -10.84 23.22 -3.11 1.11 1.35 1330
0.02 -0.00 2.72 -11.71 23.63 -3.23 1.19 1.37 1336
0.05 -0.00 2.87 -12.65 23.65 -3.38 1.32 1.37 1342
0.03 -0.00 2.97 -13.68 23.00 -3.54 1.46 1.34 1349
0.03 -0.00 1.87 -14.72 21.39 -3.65 1.62 1.31 1355
0.03 -0.00 1.63 -15.78 19.70 -3.68 1.87 1.33 1361
0.04 -0.00 0.08 -16.72 17.54 -3.61 2.19 1.43 1368
0.04 -0.00 -1.86 -17.94 16.23 -3.45 2.60 1.60 1375
0.04 -0.00 -3.28 -19.74 15.28 -3.22 2.87 1.70 1381
0.03 -0.00 -4.60 -21.72 14.24 -2.95 2.81 1.75 1387
0.04 -0.00 -6.13 -23.40 12.79 -2.64 2.47 1.75 1393
0.03 -0.00 -7.31 -24.75 10.58 -2.31 1.97 1.70 1399
0.02 -0.00 -7.43 -25.54 7.88 -2.01 1.42 1.58 1406
0.04 -0.00 -7.39 -26.61 5.66 -1.75 0.96 1.34 1413
0.03 -0.00 -7.18 -28.27 4.39 -1.46 0.65 1.03 1419
0.03 -0.00 -6.95 -29.48 3.68 -1.14 0.49 0.66 1425
0.04 0.00 -6.86 -29.63 3.37 -0.77 0.42 0.29 1431
0.03 -0.00 -6.99 -28.46 3.48 -0.44 0.38 -0.06 1437
0.02 -0.00 -7.14 -26.30 4.14 -0.06 0.24 -0.36 1444
0.02 -0.00 -6.99 -23.94 5.53 0.29 0.03 -0.59 1451
0.03 -0.00 -6.45 -21.68 7.30 0.56 -0.32 -0.76 1457
0.03 -0.00 -5.49 -19.21 8.34 0.77 -0.74 -0.80 1463
0.03 -0.00 -4.25 -17.02 9.56 0.92 -1.18 -0.80 1469
0.04 -0.00 -10.95 -24.13 0.03 1.24 -2.02 -0.56 1475
0.03 -0.00 4.86 -12.97 3.44 3.29 -3.47 0.08 1482
0.02 -0.00 3.41 8.14 3.77 2.89 -3.24 0.04 1488
0.02 0.10 7.32 -1.47 -1.99 2.55 -3.24 0.08 1495
0.02 0.17 8.62 6.58 9.00 2.56 -2.83 0.47 1501
0.00 0.34 6.71 8.83 5.96 2.64 -1.46 1.17 1507
0.01 0.49 3.63 -0.15 7.93 3.10 -0.54 1.62 1513
0.01 0.65 -4.14 -4.39 20.52 3.86 -0.29 1.70 1520
-0.00 0.84 -10.72 -7.11 21.00 4.16 -0.66 1.32 1526
-0.00 1.13 -9.17 -5.45 22.65 4.23 -0.90 0.72 1532
-0.01 1.25 -5.30 -3.67 23.80 4.16 -0.70 0.33 1539
-0.02 1.40 -5.72 -2.51 21.62 3.73 -0.39 -0.06 1546
-0.03 1.42 -3.29 -2.22 20.37 3.22 -0.42 -0.53 1552
-0.03 1.43 2.27 -2.69 18.93 2.90 -0.48 -0.78 1558
-0.03 1.40 7.80 -3.45 23.44 2.62 -0.83 -0.62 1564
-0.03 1.39 4.43 -2.46 17.04 1.29 -1.55 -0.19 1571
-0.02 1.39 1.75 -2.82 13.43 0.76 -1.17 0.14 1577
-0.01 1.39 0.12 -1.15 11.27 0.45 -0.81 0.20 1584
-0.01 1.39 -0.22 -0.44 11.13 0.28 -0.58 0.13 1590
-0.01 1.37 0.25 -0.84 10.63 0.13 -0.35 0.05 1596
-0.01 1.34 0.97 -1.20 10.43 0.05 -0.20 0.05 1603
-0.01 1.29 0.29 -1.35 9.86 0.02 -0.14 0.07 1609
-0.01 1.30 0.74 -0.98 10.11 0.01 -0.11 0.07 1615
-0.01 1.30 0.50 -0.80 10.15 0.00 -0.09 0.05 1622
-0.01 1.30 0.65 -0.80 10.08 -0.01 -0.07 0.04 1628
0.00 1.33 0.78 -0.81 9.87 -0.01 -0.07 0.04 1635
-0.00 1.27 0.77 -0.78 10.01 -0.01 -0.06 0.04 1641
-0.00 1.24 0.73 -0.67 10.05 -0.00 -0.06 0.04 1647
0.00 1.21 0.61 -0.89 10.15 0.01 -0.06 0.04 1653
0.01 1.10 0.76 -0.79 9.92 0.00 -0.05 0.03 1659
0.01 1.07 0.77 -0.74 10.04 0.01 -0.05 0.04 1666
0.01 1.02 0.69 -0.77 10.04 0.01 -0.04 0.04 1673
0.05 0.99 0.71 -0.74 10.04 0.00 -0.04 0.04 1679
0.05 0.94 0.71 -0.69 10.05 0.01 -0.03 0.04 1685
0.04 0.88 0.68 -0.73 9.99 0.02 -0.02 0.04 1691
0.06 0.81 0.78 -0.77 10.07 0.02 -0.02 0.05 1697
0.04 0.77 0.70 -0.73 9.95 0.02 -0.01 0.05 1703
0.05 0.73 0.75 -0.74 9.98 0.03 -0.01 0.05 1711
0.07 0.62 0.82 -0.71 9.95 0.04 -0.01 0.04 1717
0.07 0.62 0.74 -0.75 9.92 0.04 -0.02 0.05 1723
0.08 0.51 0.79 -0.74 9.95 0.04 -0.01 0.04 1729
0.09 0.54 0.86 -0.68 9.83 0.04 -0.01 0.03 1735
0.12 0.44 0.80 -0.80 9.97 0.04 -0.02 0.03 1741
0.11 0.40 0.84 -0.79 9.95 0.04 -0.02 0.03 1747
0.10 0.35 0.71 -0.47 10.04 0.04 -0.03 0.03 1755
0.12 0.32 0.75 -0.78 10.03 0.03 -0.03 0.02 1761
0.10 0.31 0.74 -0.80 9.97 0.03 -0.03 0.02 1767
0.11 0.25 0.76 -0.83 9.95 0.03 -0.03 0.02 1773
0.11 0.25 0.70 -0.80 9.92 0.03 -0.03 0.03 1779
0.12 0.22 0.68 -0.85 9.88 0.03 -0.02 0.03 1785
0.12 0.16 0.72 -0.82 9.97 0.02 -0.02 0.03 1792
0.12 0.16 0.76 -0.80 10.01 0.02 -0.02 0.03 1799
0.16 0.14 0.76 -0.80 9.98 0.03 -0.02 0.03 1805
0.14 0.10 0.79 -0.81 9.97 0.02 -0.02 0.03 1811
0.13 0.12 0.81 -0.82 9.93 0.02 -0.02 0.02 1817
0.15 0.11 0.87 -0.80 9.93 0.02 -0.03 0.02 1823
0.15 0.08 0.85 -0.80 9.95 0.01 -0.03 0.02 1829
0.16 0.04 0.80 -0.81 9.96 0.01 -0.04 0.02 1836
0.17 0.06 0.83 -0.84 9.94 0.01 -0.04 0.01 1842
0.16 0.05 0.84 -0.75 10.11 0.00 -0.04 0.01 1849
0.19 0.04 0.80 -0.84 10.03 0.00 -0.04 0.01 1855
0.18 0.03 0.81 -0.87 10.00 0.00 -0.04 0.01 1861
0.18 0.06 0.80 -0.85 9.98 0.00 -0.05 0.01 1867
0.21 0.02 0.78 -0.84 9.96 0.00 -0.04 0.01 1873
0.21 -0.02 0.77 -0.85 9.99 0.00 -0.04 0.00 1880
0.24 0.02 0.78 -0.87 9.96 0.01 -0.04 0.00 1886
0.29 0.00 0.73 -0.83 10.05 0.01 -0.03 0.00 1893
0.31 0.00 0.77 -0.87 10.04 0.01 -0.03 0.00 1899
0.32 -0.01 0.78 -0.86 9.89 0.02 -0.02 0.00 1905
0.35 -0.02 0.79 -0.89 9.90 0.02 -0.02 0.01 1911
0.37 -0.02 0.85 -0.84 9.92 0.03 -0.02 0.00 1917
0.39 -0.04 0.81 -0.80 9.99 0.03 -0.02 0.00 1924
0.40 -0.03 0.78 -0.88 10.04 0.04 -0.03 -0.01 1930
0.47 -0.02 0.84 -0.80 10.00 0.06 -0.02 -0.00 1937
0.52 -0.04 0.79 -0.80 10.12 0.08 -0.03 -0.01 1943
0.59 -0.03 0.82 -0.88 10.22 0.11 -0.03 -0.02 1949
0.66 -0.03 0.91 -0.92 10.17 0.15 -0.03 -0.03 1955
0.72 -0.04 0.85 -0.95 10.27 0.21 -0.01 -0.05 1961
0.77 -0.04 0.96 -1.00 10.39 0.28 -0.01 -0.07 1969
0.89 -0.05 1.04 -1.04 10.57 0.38 0.00 -0.09 1975
0.96 -0.06 1.06 -1.03 10.90 0.55 0.02 -0.10 1981
1.02 -0.05 1.11 -1.19 11.40 0.80 0.03 -0.12 1987
1.13 -0.05 0.97 -1.25 11.90 1.15 0.05 -0.14 1993
1.17 -0.08 0.94 -1.25 12.46 1.46 0.02 -0.14 2000
1.23 -0.06 0.90 -1.54 12.85 1.66 -0.04 -0.14 2007
1.33 -0.06 0.92 -1.53 12.42 1.81 -0.13 -0.12 2013
1.34 -0.07 0.90 -1.60 12.70 1.92 -0.22 -0.11 2019
1.37 -0.05 0.71 -1.93 12.46 2.03 -0.28 -0.10 2026
1.43 -0.07 0.91 -1.81 12.22 2.12 -0.31 -0.09 2032
1.46 -0.06 0.70 -1.73 12.77 2.24 -0.32 -0.09 2038
1.52 -0.06 0.78 -2.01 12.85 2.40 -0.32 -0.08 2044
1.46 -0.07 0.65 -1.97 12.35 2.55 -0.31 -0.06 2051
1.47 -0.05 1.06 -2.34 12.46 2.72 -0.33 -0.08 2058
1.49 -0.06 0.90 -2.49 13.09 2.90 -0.30 -0.09 2064
1.47 -0.07 1.01 -3.16 13.08 3.11 -0.30 -0.11 2070
1.40 -0.05 0.98 -2.77 13.80 3.35 -0.25 -0.13 2076
1.34 -0.05 0.63 -2.77 14.35 3.66 -0.20 -0.14 2083
1.23 -0.05 1.02 -3.14 14.99 3.97 -0.18 -0.15 2089
1.14 -0.06 2.07 -3.46 15.49 4.17 -0.20 -0.21 2096
1.03 -0.05 2.86 -3.67 16.20 4.28 -0.23 -0.33 2102
0.91 -0.03 2.82 -4.28 16.94 4.28 -0.31 -0.46 2108
0.84 -0.04 2.49 -5.16 18.81 4.28 -0.42 -0.57 2115
0.73 -0.02 2.82 -6.31 20.84 4.28 -0.57 -0.66 2121
0.63 -0.02 1.70 -8.61 21.60 4.28 -0.72 -0.74 2127
0.57 -0.03 2.63 -10.58 27.38 4.28 -0.81 -0.76 2134
0.42 -0.02 2.47 -16.08 30.90 4.28 -0.58 -0.73 2141
0.33 -0.02 3.56 -14.27 30.42 4.28 -0.08 -0.68 2147
0.27 -0.02 2.61 -12.26 28.22 4.28 0.12 -0.71 2153
0.22 -0.02 2.56 -9.81 27.51 4.28 0.36 -0.75 2160
0.20 -0.02 1.54 -7.18 26.33 4.28 0.43 -0.79 2166
0.15 -0.01 0.76 -5.22 28.96 4.28 0.30 -0.87 2172
0.13 -0.01 1.12 -3.97 28.97 4.28 -0.05 -0.95 2179
0.11 -0.01 3.69 -1.50 28.14 4.28 -0.47 -1.03 2185
0.05 -0.01 6.28 2.49 26.63 4.28 -0.74 -1.07 2191
0.08 -0.01 8.13 5.95 27.55 4.28 -0.73 -1.09 2198
0.06 -0.01 8.22 10.97 20.83 4.28 -0.34 -1.09 2204
0.05 -0.00 10.51 16.29 17.60 4.28 0.30 -1.26 2210
0.05 -0.00 7.10 20.25 10.73 3.89 0.96 -1.77 2216
0.05 -0.00 9.03 21.83 -5.97 2.90 1.08 -2.49 2223
0.04 -0.00 6.02 17.80 18.44 1.86 1.27 -2.82 2230
0.05 -0.00 6.75 15.05 30.66 -0.01 1.89 -2.74 2236
0.04 -0.00 5.31 15.85 26.38 -1.76 2.12 -2.55 2242
0.05 -0.00 2.96 15.45 19.87 -2.87 1.81 -2.30 2248
0.05 -0.00 0.87 13.08 12.96 -3.52 1.37 -1.97 2255
0.04 -0.00 1.17 10.60 11.51 -4.07 1.00 -1.62 2262
0.05 -0.01 2.14 8.99 9.77 -4.25 0.75 -1.36 2268
0.04 -0.00 2.77 7.42 8.54 -4.27 0.53 -1.19 2274
0.03 -0.00 2.98 5.86 7.62 -4.27 0.40 -1.04 2280
0.04 -0.00 3.01 4.84 6.97 -4.25 0.39 -0.89 2286
0.05 -0.01 3.20 4.10 6.85 -4.22 0.48 -0.73 2292
0.04 -0.00 3.42 3.50 6.96 -4.19 0.63 -0.59 2298
0.04 -0.00 3.82 2.47 7.53 -4.16 0.76 -0.48 2305
0.04 -0.00 3.81 2.77 7.84 -4.15 0.90 -0.40 2312
0.05 -0.00 3.55 2.60 8.25 -4.18 1.01 -0.29 2318
0.04 -0.00 3.21 2.69 8.95 -4.20 1.10 -0.17 2324
0.03 -0.00 2.82 2.62 9.60 -4.23 1.17 -0.02 2330
0.03 -0.00 2.39 2.32 10.23 -4.25 1.23 0.14 2336
0.05 -0.00 2.14 1.74 10.93 -4.27 1.30 0.30 2342
0.04 -0.00 1.80 0.63 11.83 -4.28 1.28 0.46 2349
0.03 -0.00 1.44 0.70 12.61 -4.28 1.29 0.58 2355
0.03 -0.00 1.38 0.19 13.13 -4.28 1.31 0.68 2362
0.04 -0.00 1.45 -0.37 13.56 -4.28 1.34 0.74 2368
0.03 -0.00 1.53 -1.02 14.00 -4.28 1.39 0.76 2374
0.04 -0.00 1.54 -1.70 14.57 -4.28 1.49 0.73 2380
0.04 -0.00 1.51 -2.44 15.32 -4.28 1.64 0.66 2386
0.04 -0.00 1.29 -3.25 16.07 -4.28 1.84 0.57 2393
0.03 -0.00 1.01 -4.14 16.51 -4.28 2.05 0.47 2400
0.05 -0.00 0.61 -5.03 17.17 -4.28 2.21 0.36 2406
0.04 -0.00 0.25 -5.53 17.20 -4.28 2.35 0.24 2412
0.03 -0.00 -0.22 -5.70 18.38 -4.28 2.41 0.21 2418
0.05 -0.00 -0.78 -5.82 18.33 -4.28 2.37 0.17 2424
0.03 -0.00 -1.49 -6.04 19.12 -4.25 2.29 0.16 2430
0.03 -0.00 -2.01 -6.41 19.31 -4.21 2.19 0.18 2438
0.03 0.00 -2.05 -7.00 19.07 -4.15 2.05 0.20 2444
0.03 -0.00 -2.11 -7.58 18.84 -4.03 1.85 0.21 2450
0.02 -0.00 -2.15 -8.01 18.92 -3.88 1.65 0.24 2456
0.04 0.01 -1.99 -8.37 19.08 -3.67 1.45 0.27 2462
0.04 -0.00 -1.78 -8.59 19.64 -3.47 1.31 0.32 2468
0.03 -0.00 -1.45 -8.62 20.56 -3.31 1.16 0.37 2476
0.04 0.00 -1.12 -8.71 21.49 -3.23 1.02 0.44 2482
0.04 -0.00 -0.69 -8.81 22.16 -3.22 0.89 0.50 2488
0.04 -0.00 -0.26 -9.03 22.53 -3.25 0.77 0.56 2494
0.03 0.00 0.24 -9.44 22.46 -3.31 0.71 0.62 2500
0.03 -0.00 0.51 -10.07 22.18 -3.34 0.74 0.68 2506
0.04 -0.00 0.68 -10.93 21.73 -3.33 0.83 0.76 2513
0.03 0.00 0.65 -12.28 21.36 -3.28 0.97 0.86 2520
0.03 -0.00 0.51 -14.24 20.84 -3.17 1.08 0.97 2526
0.03 -0.00 0.11 -16.22 20.18 -3.08 1.14 1.10 2532
0.05 -0.00 -0.37 -17.82 18.96 -3.02 1.22 1.26 2539
0.03 -0.00 -1.04 -18.97 18.19 -2.96 1.47 1.45 2545
0.03 -0.00 -1.84 -20.83 16.96 -2.96 1.78 1.62 2551
0.05 -0.00 -2.73 -23.50 15.04 -2.97 2.00 1.75 2557
0.03 -0.00 -4.12 -26.46 11.77 -2.94 2.02 1.83 2564
0.04 -0.00 -5.36 -29.75 7.99 -2.77 1.96 1.86 2571
0.04 -0.00 -6.51 -32.95 4.04 -2.43 1.86 1.86 2577
0.03 -0.00 -7.64 -35.00 1.56 -1.92 1.73 1.79 2583
0.03 -0.00 -8.72 -36.35 -0.23 -1.29 1.56 1.61 2589
0.04 -0.00 -9.28 -35.81 -0.37 -0.60 1.29 1.31 2595
0.03 -0.00 -9.34 -33.24 0.99 0.05 0.85 0.91 2601
0.03 0.00 -12.13 -42.60 -3.67 0.68 0.11 0.52 2609
0.05 -0.00 -11.56 -29.44 2.44 2.86 -1.17 0.38 2615
0.03 -0.00 -10.17 -24.51 7.33 3.02 -1.76 0.22 2621
0.04 0.02 -8.43 -20.38 1.82 3.24 -2.76 0.11 2627
0.04 0.08 -2.41 -19.32 3.51 3.12 -3.90 0.08 2634
0.02 0.16 1.96 3.10 7.49 3.00 -4.20 0.09 2640
0.02 0.32 4.91 4.72 17.79 3.34 -2.40 0.60 2647
0.02 0.47 9.37 4.78 15.51 3.57 -0.78 1.33 2653
-0.00 0.73 1.11 -2.97 20.50 3.99 -0.27 1.63 2659
-0.00 0.98 -10.69 -7.36 26.24 4.19 -0.52 1.37 2666
-0.02 1.19 -11.17 -6.57 20.94 4.21 -0.87 0.79 2672
-0.02 1.27 -5.17 -4.06 22.26 4.22 -0.61 0.34 2678
-0.02 1.45 -6.87 -2.35 22.29 3.96 -0.22 -0.08 2684
-0.03 1.51 -4.22 -2.30 19.51 3.40 -0.28 -0.66 2692
-0.02 1.48 2.67 -2.81 18.49 3.15 -0.50 -0.92 2698
-0.02 1.47 7.38 -3.18 33.73 2.63 -1.79 -0.71 2704
-0.01 1.47 5.38 -3.25 13.30 0.94 -1.83 -0.07 2710
0.00 1.43 0.97 -2.73 12.60 0.52 -1.10 0.17 2717
-0.01 1.44 -0.37 -1.27 11.72 0.24 -0.56 0.21 2723
0.00 1.43 -0.63 -0.35 11.00 0.08 -0.21 0.11 2729
-0.00 1.34 0.23 -0.70 10.35 0.02 -0.11 0.03 2736
-0.02 1.35 1.05 -1.14 9.95 0.00 -0.08 0.04 2742
-0.03 1.33 0.96 -0.93 10.01 -0.00 -0.07 0.07 2749
-0.03 1.37 0.49 -0.73 10.18 -0.01 -0.06 0.06 2755
-0.02 1.35 0.55 -0.75 10.05 -0.01 -0.06 0.04 2761
0.00 1.30 0.65 -0.79 9.92 -0.02 -0.05 0.03 2767
-0.01 1.23 0.71 -0.77 10.04 -0.01 -0.05 0.04 2774
0.03 1.24 0.65 -0.65 10.01 -0.00 -0.05 0.04 2780
-0.01 1.22 0.63 -0.76 9.81 0.00 -0.04 0.03 2787
0.01 1.11 0.64 -0.64 10.00 0.01 -0.03 0.03 2793
0.05 1.08 0.68 -0.62 10.19 0.01 -0.02 0.03 2799
0.05 0.98 0.63 -0.68 10.06 0.02 -0.02 0.04 2805
0.06 0.89 0.65 -0.75 9.96 0.02 -0.02 0.04 2811
0.05 0.85 0.63 -0.69 10.02 0.02 -0.03 0.04 2819
0.04 0.79 0.62 -0.68 10.04 0.02 -0.03 0.04 2825
0.06 0.74 0.59 -0.70 10.04 0.03 -0.03 0.05 2831
0.06 0.65 0.58 -0.70 10.03 0.03 -0.03 0.04 2837
0.06 0.60 0.63 -0.67 10.04 0.03 -0.03 0.05 2843
0.07 0.54 0.60 -0.66 10.00 0.03 -0.03 0.04 2849
0.08 0.49 0.63 -0.68 10.03 0.03 -0.02 0.04 2856
0.09 0.46 0.67 -0.72 9.92 0.03 -0.03 0.04 2863
0.11 0.39 0.64 -0.69 9.99 0.03 -0.03 0.04 2869
0.11 0.35 0.57 -0.60 10.02 0.03 -0.03 0.03 2875
0.10 0.28 0.69 -0.75 10.00 0.03 -0.04 0.02 2881
0.13 0.27 0.70 -0.77 9.95 0.02 -0.04 0.02 2887
0.13 0.27 0.73 -0.61 10.05 0.02 -0.05 0.01 2894
0.11 0.22 0.65 -0.75 9.96 0.02 -0.05 0.01 2900
0.14 0.19 0.65 -0.76 9.91 0.01 -0.05 0.01 2907
0.16 0.22 0.65 -0.75 10.00 0.01 -0.05 0.01 2913
0.17 0.15 0.61 -0.70 10.00 0.01 -0.05 0.01 2919
0.16 0.20 0.58 -0.73 9.99 0.01 -0.04 0.01 2925
0.17 0.11 0.59 -0.71 10.00 0.01 -0.04 0.02 2931
0.17 0.12 0.61 -0.76 9.97 0.02 -0.03 0.02 2938
0.17 0.08 0.72 -0.77 10.08 0.01 -0.02 0.02 2945
0.19 0.07 0.62 -0.76 9.96 0.01 -0.02 0.01 2951
0.19 0.08 0.64 -0.76 9.98 0.01 -0.01 0.01 2957
0.20 0.06 0.63 -0.78 9.95 0.01 -0.02 0.01 2963
0.22 0.04 0.66 -0.84 10.00 0.01 -0.01 0.01 2969
0.21 0.05 0.68 -1.03 10.00 0.01 -0.01 0.01 2975
0.22 0.01 0.67 -0.78 9.91 0.02 -0.02 0.02 2982
0.22 0.05 0.68 -0.77 10.03 0.01 -0.01 0.01 2989
0.26 0.01 0.68 -0.74 9.97 0.01 -0.01 0.01 2995
0.26 -0.00 0.63 -0.78 9.98 0.01 -0.01 0.00 3001
0.28 -0.01 0.74 -0.80 9.94 0.01 -0.01 0.00 3007
0.27 -0.00 0.69 -0.85 9.98 0.01 -0.02 -0.00 3013
0.30 -0.01 0.69 -0.79 9.99 0.02 -0.03 -0.01 3019
0.29 -0.03 0.67 -0.81 10.02 0.02 -0.04 -0.01 3026
0.32 -0.02 0.68 -0.81 9.97 0.03 -0.04 -0.01 3033
0.36 -0.02 0.58 -0.77 9.95 0.03 -0.05 -0.01 3039
0.40 -0.02 0.62 -0.81 9.95 0.04 -0.05 -0.02 3045
0.43 -0.01 0.63 -0.72 10.00 0.05 -0.05 -0.02 3051
0.50 -0.04 0.67 -0.84 10.09 0.07 -0.04 -0.02 3057
0.55 -0.04 0.67 -0.82 10.12 0.13 -0.04 -0.02 3064
0.62 -0.05 0.72 -0.88 10.20 0.16 -0.04 -0.02 3070
0.73 -0.04 0.73 -0.92 10.20 0.18 -0.03 -0.03 3077
0.83 -0.05 0.77 -0.96 10.34 0.24 -0.02 -0.04 3083
0.87 -0.05 0.74 -0.98 10.35 0.32 -0.02 -0.05 3089
0.95 -0.05 0.75 -1.00 10.67 0.43 -0.01 -0.06 3096
1.01 -0.06 0.81 -1.11 10.99 0.61 -0.00 -0.07 3102
1.08 -0.06 0.84 -1.14 11.47 0.86 0.01 -0.09 3108
1.20 -0.06 0.97 -1.20 11.77 1.15 0.01 -0.12 3115
1.27 -0.07 0.99 -1.43 12.24 1.40 -0.02 -0.14 3121
1.35 -0.06 0.92 -1.45 12.40 1.58 -0.07 -0.15 3128
1.40 -0.07 0.85 -1.42 12.52 1.73 -0.15 -0.16 3134
1.47 -0.07 0.84 -1.42 12.72 1.86 -0.24 -0.15 3140
1.51 -0.06 0.75 -1.48 12.52 1.98 -0.30 -0.14 3146
1.49 -0.06 0.45 -1.71 12.54 2.10 -0.34 -0.12 3153
1.56 -0.06 0.40 -1.73 12.89 2.23 -0.36 -0.10 3160
1.62 -0.07 0.03 -3.31 11.19 2.37 -0.33 -0.09 3166
1.65 -0.08 0.99 -0.74 12.83 2.52 -0.39 -0.11 3172
1.66 -0.05 0.66 -2.43 13.17 2.71 -0.36 -0.09 3179
1.68 -0.07 0.77 -2.41 13.52 2.92 -0.35 -0.10 3185
1.65 -0.07 1.00 -2.46 13.68 3.18 -0.32 -0.12 3191
1.63 -0.07 1.04 -2.74 14.26 3.47 -0.28 -0.15 3197
1.55 -0.07 0.90 -2.79 14.92 3.79 -0.25 -0.20 3204
1.47 -0.06 0.71 -2.81 15.47 4.14 -0.20 -0.22 3211
1.32 -0.05 1.37 -3.42 16.64 4.26 -0.21 -0.26 3217
1.21 -0.06 2.28 -3.83 16.96 4.28 -0.24 -0.36 3223
1.00 -0.03 2.79 -4.65 18.19 4.28 -0.34 -0.50 3229
0.83 -0.03 1.53 -7.11 20.00 4.28 -0.46 -0.65 3236
0.74 -0.03 1.28 -6.01 20.91 4.28 -0.62 -0.71 3243
0.65 -0.03 1.69 -9.67 26.46 4.28 -0.80 -0.74 3249
0.53 -0.03 2.17 -12.92 29.61 4.28 -0.68 -0.73 3255
0.42 -0.00 2.81 -14.74 31.40 4.28 -0.45 -0.64 3262
0.36 -0.02 3.21 -15.17 31.12 4.28 -0.14 -0.61 3268
0.28 -0.01 2.42 -12.37 30.54 4.28 0.17 -0.64 3274
0.25 -0.02 1.41 -9.05 28.89 4.28 0.22 -0.70 3281
0.16 -0.01 0.16 -5.10 28.64 4.28 0.04 -0.79 3288
0.13 -0.01 1.06 -3.69 30.61 4.28 -0.39 -0.89 3294
0.10 -0.01 2.31 -0.77 30.01 4.28 -0.88 -0.96 3300
0.06 -0.01 5.46 1.87 28.87 4.28 -1.38 -1.00 3306
0.08 -0.01 7.74 5.91 28.26 4.28 -1.69 -1.03 3312
0.08 -0.01 8.72 9.90 27.17 4.28 -1.62 -1.00 3319
0.04 -0.00 11.18 15.31 21.98 4.28 -0.99 -1.04 3325
0.05 -0.01 9.89 18.19 14.18 4.28 -0.29 -1.38 3332
0.03 -0.00 10.47 21.47 -5.21 3.73 -0.10 -2.06 3338
0.04 -0.00 6.98 20.98 14.14 2.32 0.02 -2.54 3344
0.06 -0.01 7.59 17.90 30.02 0.28 0.89 -2.56 3351
0.03 -0.00 7.18 16.79 28.79 -1.56 1.49 -2.42 3357
0.04 -0.00 4.15 16.24 18.29 -2.56 1.52 -2.24 3363
0.05 -0.01 2.52 15.12 14.47 -3.39 1.20 -1.97 3369
0.05 -0.00 2.30 12.65 12.59 -4.07 0.98 -1.64 3377
0.05 -0.00 3.67 10.19 10.88 -4.27 0.81 -1.37 3383
0.05 -0.01 4.29 8.21 9.21 -4.28 0.64 -1.18 3389
0.05 -0.00 3.79 6.26 8.05 -4.28 0.59 -1.02 3395
0.06 -0.01 3.69 5.65 7.27 -4.28 0.61 -0.90 3401
0.07 -0.01 3.72 4.56 6.99 -4.28 0.73 -0.75 3407
0.06 -0.01 3.89 3.75 6.85 -4.28 0.88 -0.60 3414
0.06 -0.01 3.96 2.97 7.15 -4.28 1.02 -0.49 3420
0.04 -0.00 3.82 2.65 7.34 -4.27 1.12 -0.39 3427
0.05 -0.01 3.70 2.37 7.87 -4.27 1.19 -0.31 3433
0.04 -0.00 3.41 2.27 8.62 -4.27 1.26 -0.23 3439
0.04 -0.00 3.04 2.21 9.29 -4.27 1.34 -0.12 3445
0.05 -0.00 2.64 1.99 9.89 -4.28 1.42 0.01 3451
0.06 -0.01 2.27 1.51 10.63 -4.28 1.49 0.16 3458
0.04 -0.00 1.96 1.03 11.45 -4.28 1.54 0.31 3464
0.03 -0.00 1.79 0.54 12.30 -4.28 1.56 0.45 3470
0.05 -0.01 1.68 0.00 12.98 -4.28 1.58 0.57 3477
0.04 -0.00 1.64 -0.56 13.53 -4.28 1.61 0.66 3483
0.04 -0.00 1.58 -1.03 14.33 -4.28 1.65 0.71 3489
0.05 -0.00 1.43 -1.64 15.09 -4.28 1.71 0.74 3495
0.05 -0.00 1.21 -2.29 15.72 -4.28 1.80 0.74 3502
0.04 -0.00 0.98 -3.08 16.45 -4.28 1.92 0.71 3508
0.04 0.01 0.69 -3.85 17.35 -4.28 2.06 0.66 3515
0.04 -0.00 0.02 -4.61 18.23 -4.28 2.19 0.61 3521
0.04 -0.00 0.23 -5.44 18.71 -4.28 2.29 0.55 3527
0.04 -0.00 -0.13 -6.00 19.18 -4.28 2.36 0.48 3533
0.05 -0.00 -0.51 -6.70 19.33 -4.27 2.42 0.44 3539
0.04 -0.00 -0.85 -7.29 19.63 -4.24 2.48 0.42 3546
0.04 -0.00 -1.06 -7.60 19.95 -4.19 2.45 0.43 3553
0.05 0.00 -1.37 -7.90 20.32 -4.09 2.33 0.46 3559
0.03 -0.00 -1.72 -8.22 20.64 -3.95 2.12 0.51 3565
0.03 -0.00 -1.83 -8.49 21.13 -3.80 1.89 0.60 3571
0.05 -0.00 -1.62 -9.08 21.56 -3.67 1.64 0.71 3577
0.04 0.00 -1.21 -9.79 21.93 -3.57 1.39 0.82 3585
0.03 -0.00 -0.97 -10.58 22.24 -3.48 1.20 0.94 3591
0.05 -0.00 -0.54 -11.29 22.74 -3.42 1.04 1.06 3597
0.04 -0.00 0.10 -11.81 23.00 -3.39 0.95 1.16 3603
0.04 -0.00 0.80 -12.31 22.72 -3.38 0.93 1.24 3609
0.05 -0.01 1.58 -12.85 22.26 -3.38 0.99 1.28 3616
0.04 -0.00 1.90 -13.68 21.85 -3.37 1.12 1.30 3622
0.05 0.00 1.96 -14.57 21.67 -3.37 1.28 1.30 3629
0.04 -0.00 1.74 -15.67 21.11 -3.37 1.41 1.30 3635
0.03 -0.00 1.25 -16.99 20.19 -3.37 1.53 1.31 3642
0.05 -0.01 0.34 -17.94 18.53 -3.34 1.62 1.33 3648
0.05 -0.00 -1.59 -18.68 16.10 -3.28 1.86 1.42 3654
0.04 -0.00 -3.35 -21.41 14.63 -3.15 2.23 1.54 3660
0.06 -0.01 -5.07 -23.60 13.08 -2.96 2.40 1.67 3666
0.04 -0.00 -6.78 -26.78 10.48 -2.70 2.20 1.63 3674
0.04 0.01 -8.03 -29.69 7.43 -2.38 1.74 1.53 3680
0.05 -0.00 -8.35 -31.67 4.59 -2.02 1.21 1.34 3686
0.04 -0.00 -7.93 -32.95 1.64 -1.58 0.79 1.07 3692
0.04 -0.00 -7.71 -33.41 0.66 -1.11 0.52 0.75 3698
0.04 -0.00 -7.74 -33.03 1.40 -0.60 0.34 0.42 3704
0.04 -0.00 -7.46 -31.60 2.57 -0.16 0.16 0.08 3712
0.04 -0.00 -15.70 -40.73 50.05 1.21 -1.29 -0.11 3718
0.05 -0.00 -7.60 -28.57 1.71 2.27 -1.07 -0.17 3724
0.04 -0.00 -9.62 -24.92 1.66 2.80 -2.12 -0.26 3730
0.04 0.00 -7.05 -26.18 3.05 3.12 -2.85 -0.22 3736
0.05 0.08 -2.49 -17.68 1.98 3.06 -3.85 -0.21 3743
0.04 0.17 2.41 3.09 6.71 3.07 -4.20 -0.11 3749
0.02 0.35 5.87 1.98 20.00 3.67 -2.69 0.29 3756
0.02 0.54 9.62 7.36 18.16 3.91 -0.88 1.04 3762
-0.01 0.78 1.30 -2.60 20.28 4.18 -0.64 1.38 3768
-0.01 1.03 -9.59 -5.73 29.20 4.21 -0.84 1.26 3775
-0.01 1.18 -8.38 -5.85 24.07 4.07 -1.02 0.81 3781
-0.02 1.26 -5.11 -4.12 21.60 3.87 -0.69 0.41 3787
-0.01 1.30 -5.72 -2.47 21.86 3.43 -0.30 0.07 3793
-0.01 1.30 -4.13 -1.40 18.80 2.87 -0.31 -0.43 3801
-0.02 1.34 1.40 -1.87 16.48 2.57 -0.40 -0.77 3807
-0.02 1.30 5.98 -2.82 22.02 2.42 -0.81 -0.69 3813
-0.01 1.28 5.16 -1.72 15.31 1.06 -1.50 -0.29 3819
-0.02 1.31 2.16 -2.60 12.88 0.58 -1.08 0.07 3826
-0.01 1.29 0.28 -1.60 11.85 0.30 -0.67 0.17 3832
-0.02 1.32 -0.34 -0.57 11.03 0.12 -0.34 0.13 3838
0.00 1.33 0.03 -0.56 10.35 0.05 -0.17 0.05 3845
-0.02 1.35 0.71 -1.09 10.23 0.00 -0.10 0.02 3851
-0.02 1.35 0.96 -1.12 10.15 -0.01 -0.10 0.04 3858
-0.02 1.34 0.73 -0.69 10.18 -0.01 -0.09 0.06 3864
-0.02 1.32 0.54 -0.59 9.95 -0.01 -0.07 0.05 3870
-0.03 1.33 0.60 -0.65 9.95 -0.01 -0.06 0.03 3876
0.00 1.35 0.74 -0.68 10.07 -0.01 -0.05 0.04 3883
-0.02 1.30 0.66 -0.57 9.97 -0.00 -0.04 0.04 3889
-0.03 1.28 0.68 -0.54 10.00 -0.00 -0.04 0.04 3896
-0.01 1.22 0.69 -0.57 10.15 0.00 -0.04 0.04 3902
-0.02 1.16 0.71 -0.63 10.04 0.01 -0.04 0.04 3908
-0.01 1.08 0.70 -0.63 10.07 0.01 -0.05 0.04 3914
0.03 1.00 0.64 -0.65 10.27 0.01 -0.05 0.04 3920
0.03 0.98 0.70 -0.60 9.99 0.01 -0.05 0.05 3927
0.03 0.88 0.70 -0.62 10.07 0.01 -0.05 0.04 3934
0.03 0.89 0.68 -0.59 9.98 0.02 -0.05 0.04 3940
0.05 0.83 0.65 -0.61 10.05 0.02 -0.04 0.05 3946
0.05 0.78 0.67 -0.60 9.98 0.02 -0.04 0.05 3952
0.05 0.71 0.65 -0.62 10.04 0.02 -0.03 0.04 3958
0.07 0.70 0.65 -0.58 9.89 0.02 -0.03 0.05 3964
0.07 0.61 0.65 -0.61 10.02 0.03 -0.03 0.04 3972
0.04 0.63 0.68 -0.62 10.00 0.03 -0.02 0.04 3978
0.07 0.53 0.71 -0.65 10.00 0.03 -0.02 0.04 3984
0.09 0.46 0.69 -0.63 9.98 0.03 -0.02 0.04 3990
0.09 0.45 0.71 -0.61 10.00 0.02 -0.02 0.03 3996
0.10 0.42 0.75 -0.64 10.02 0.02 -0.02 0.03 4002
0.09 0.37 0.75 -0.69 9.94 0.02 -0.02 0.02 4009
0.08 0.34 0.73 -0.64 10.00 0.02 -0.02 0.02 4016
0.10 0.34 0.69 -0.64 9.94 0.02 -0.02 0.02 4022
0.10 0.29 0.69 -0.65 9.98 0.02 -0.02 0.02 4028
0.13 0.24 0.70 -0.67 10.00 0.02 -0.02 0.02 4034
0.12 0.29 0.67 -0.66 10.09 0.02 -0.01 0.02 4040
0.15 0.21 0.64 -0.62 9.96 0.02 -0.01 0.02 4047
0.15 0.23 0.69 -0.67 9.99 0.02 -0.01 0.03 4054
0.15 0.16 0.72 -0.67 9.94 0.02 -0.00 0.02 4060
0.18 0.17 0.70 -0.67 9.98 0.02 -0.01 0.03 4066
0.16 0.16 0.72 -0.58 9.94 0.02 -0.00 0.02 4072
0.16 0.12 0.75 -0.69 9.94 0.02 -0.01 0.02 4078
0.16 0.12 0.77 -0.66 10.00 0.02 -0.01 0.01 4084
0.16 0.10 0.70 -0.69 9.98 0.02 -0.01 0.01 4090
0.16 0.07 0.78 -0.69 9.97 0.02 -0.02 0.01 4098
0.16 0.10 0.68 -0.70 9.88 0.01 -0.02 0.01 4104
0.19 0.05 0.73 -0.70 9.96 0.01 -0.03 0.01 4110
0.17 0.06 0.76 -0.74 9.96 0.00 -0.03 0.00 4116
0.18 0.04 0.76 -0.72 10.03 0.00 -0.04 0.01 4122
0.19 0.04 0.73 -0.73 9.96 0.00 -0.05 0.00 4128
0.24 0.01 0.74 -0.67 10.02 0.00 -0.05 0.00 4134
0.25 0.01 0.75 -0.66 9.94 0.00 -0.06 0.00 4142
0.27 0.03 0.75 -0.71 9.92 0.01 -0.06 -0.00 4148
0.35 0.00 0.77 -0.69 10.13 0.01 -0.06 -0.00 4154
0.39 -0.01 0.79 -0.72 10.10 0.01 -0.07 -0.00 4160
0.41 -0.01 0.71 -0.68 10.04 0.03 -0.06 -0.01 4166
0.46 -0.02 0.78 -0.88 10.09 0.04 -0.05 -0.01 4172
0.51 -0.02 0.73 -0.77 10.05 0.06 -0.05 -0.01 4179
0.54 -0.03 0.71 -0.67 10.10 0.08 -0.04 -0.01 4186
0.60 -0.05 0.70 -0.67 10.09 0.11 -0.03 -0.02 4192
0.66 -0.04 0.70 -0.77 10.18 0.15 -0.02 -0.03 4198
0.72 -0.06 0.77 -0.84 10.25 0.19 -0.02 -0.03 4204
0.80 -0.05 0.82 -0.85 10.32 0.26 -0.01 -0.05 4211
0.85 -0.06 0.93 -0.95 10.51 0.37 -0.00 -0.07 4217
0.93 -0.05 1.03 -0.95 10.91 0.57 -0.00 -0.10 4224
1.06 -0.05 1.09 -0.96 11.26 0.75 -0.01 -0.12 4230
1.12 -0.07 1.16 -1.17 11.77 1.06 -0.01 -0.15 4236
1.19 -0.06 1.20 -1.19 12.60 1.37 -0.05 -0.18 4243
1.22 -0.06 0.88 -1.31 12.48 1.64 -0.13 -0.19 4249
1.32 -0.06 0.95 -1.36 12.46 1.82 -0.17 -0.19 4255
1.42 -0.07 0.66 -1.47 12.57 1.93 -0.26 -0.17 4261
1.49 -0.07 0.67 -1.39 12.61 2.04 -0.33 -0.15 4269
1.53 -0.07 0.83 -1.68 12.65 2.16 -0.37 -0.14 4275
1.55 -0.07 0.48 -1.63 12.41 2.29 -0.40 -0.13 4281
1.57 -0.07 0.71 -1.83 12.87 2.41 -0.42 -0.12 4287
1.60 -0.05 -0.91 -2.32 13.21 2.55 -0.41 -0.10 4294
1.64 -0.07 0.70 -2.08 12.97 2.71 -0.45 -0.14 4300
1.62 -0.06 0.95 -2.36 12.72 2.87 -0.46 -0.15 4306
1.62 -0.07 0.78 -2.49 13.41 3.06 -0.45 -0.17 4313
1.57 -0.07 0.82 -2.57 13.31 3.29 -0.43 -0.19 4320
1.55 -0.06 1.03 -2.70 14.29 3.55 -0.39 -0.21 4326
1.51 -0.07 0.86 -3.15 15.06 3.84 -0.35 -0.25 4332
1.39 -0.05 0.96 -3.16 15.56 4.14 -0.34 -0.28 4338
1.32 -0.05 1.62 -3.22 16.36 4.28 -0.38 -0.33 4345
1.14 -0.05 2.53 -3.80 16.74 4.28 -0.53 -0.42 4352
1.00 -0.03 2.91 -4.48 17.91 4.28 -0.69 -0.56 4358
0.92 -0.03 2.94 -5.90 19.39 4.28 -0.86 -0.71 4364
0.74 -0.03 2.71 -7.06 20.89 4.28 -1.02 -0.84 4370
0.67 -0.01 2.25 -9.22 24.75 4.28 -1.15 -0.93 4377
0.58 -0.03 2.24 -12.69 28.04 4.28 -1.08 -0.93 4383
0.50 -0.02 3.78 -14.48 30.79 4.28 -0.76 -0.90 4389
0.39 -0.03 3.65 -14.23 28.80 4.28 -0.40 -0.93 4397
0.34 -0.02 2.74 -11.45 27.97 4.28 -0.11 -0.97 4403
0.28 -0.02 1.87 -9.17 28.33 4.28 0.07 -1.03 4409
0.18 -0.02 1.33 -5.60 27.49 4.28 0.02 -1.06 4415
0.15 -0.01 1.06 -3.48 28.40 4.28 -0.21 -1.14 4421
0.12 -0.01 2.54 -1.47 27.50 4.28 -0.61 -1.22 4428
0.08 -0.01 5.15 1.97 27.17 4.28 -0.99 -1.26 4434
0.06 -0.01 7.65 5.25 26.40 4.28 -1.15 -1.29 4441
0.08 -0.01 8.56 8.16 25.74 4.28 -1.06 -1.28 4447
0.05 -0.01 10.02 13.50 21.09 4.28 -0.52 -1.35 4453
0.05 -0.00 10.17 16.96 15.42 4.27 0.16 -1.64 4460
0.04 -0.00 9.57 21.37 -4.17 3.69 0.50 -2.24 4466
0.04 -0.00 7.02 20.85 12.11 2.48 0.37 -2.61 4472
0.05 -0.00 6.41 16.95 29.30 0.60 1.05 -2.62 4478
0.04 -0.00 6.31 15.42 30.07 -1.34 1.48 -2.34 4485
0.04 -0.00 3.61 14.92 20.54 -2.68 1.40 -1.98 4492
0.05 -0.01 1.93 13.35 13.40 -3.49 0.99 -1.60 4498
0.05 -0.00 1.60 10.97 12.67 -4.06 0.62 -1.23 4504
0.04 -0.00 2.77 8.89 10.51 -4.25 0.35 -0.93 4510
0.05 -0.01 3.52 7.13 8.60 -4.27 0.15 -0.75 4516
0.04 -0.00 3.97 5.60 7.34 -4.27 0.09 -0.61 4523
0.05 -0.00 4.05 4.62 6.46 -4.24 0.17 -0.49 4530
0.04 -0.00 4.26 4.01 6.00 -4.20 0.37 -0.39 4536
0.05 -0.01 4.47 3.51 5.90 -4.13 0.62 -0.29 4542
0.05 -0.01 4.45 3.08 5.97 -4.07 0.89 -0.22 4548
0.05 -0.00 4.25 2.77 6.33 -4.05 1.11 -0.18 4554
0.05 -0.01 3.94 2.62 7.21 -4.05 1.28 -0.14 4560
0.07 -0.01 3.65 2.50 8.24 -4.09 1.39 -0.10 4567
0.06 -0.01 3.19 2.45 9.30 -4.13 1.47 -0.03 4573
0.06 -0.01 2.81 2.43 10.20 -4.18 1.52 0.05 4579
0.04 0.00 2.52 2.27 11.26 -4.23 1.56 0.18 4586
0.04 -0.00 2.32 1.93 12.37 -4.28 1.58 0.31 4592
0.05 -0.00 1.99 1.50 12.84 -4.28 1.57 0.45 4598
0.04 -0.00 1.78 0.80 12.97 -4.28 1.55 0.56 4604
0.05 -0.01 1.87 -0.05 12.93 -4.28 1.53 0.65 4611
0.04 -0.00 2.05 -0.92 12.65 -4.28 1.51 0.71 4617
0.04 -0.00 2.22 -2.10 12.70 -4.28 1.54 0.73 4624
0.05 -0.00 2.60 -3.27 13.42 -4.28 1.63 0.70 4630
0.04 -0.00 2.91 -4.30 14.26 -4.28 1.78 0.61 4636
0.03 -0.00 1.37 -5.33 14.37 -4.27 2.03 0.58 4642
0.04 0.01 2.09 -6.59 15.65 -4.19 2.12 0.52 4648
0.04 -0.00 1.25 -7.25 16.26 -4.05 2.35 0.47 4655
0.03 0.01 2.09 -7.96 16.02 -3.88 2.50 0.43 4662
0.04 0.01 1.07 -8.10 16.53 -3.72 2.66 0.45 4668
0.04 0.00 0.03 -7.77 17.53 -3.56 2.73 0.56 4674
0.03 -0.00 -0.94 -6.96 19.11 -3.46 2.62 0.71 4680
0.04 0.01 -1.52 -6.15 20.78 -3.39 2.41 0.84 4686
0.04 -0.00 -1.58 -5.65 22.06 -3.40 2.14 0.97 4694
0.03 -0.00 -1.36 -5.59 22.77 -3.50 1.88 1.08 4700
0.05 0.00 -0.95 -6.06 22.93 -3.64 1.71 1.18 4706
0.04 -0.00 -0.45 -6.92 22.48 -3.78 1.58 1.27 4712
0.03 -0.00 -0.04 -8.09 21.99 -3.86 1.54 1.31 4718
0.04 0.01 0.10 -9.44 21.26 -3.87 1.53 1.33 4725
0.03 -0.00 0.30 -10.66 20.80 -3.81 1.56 1.34 4731
0.03 -0.00 0.42 -11.52 20.79 -3.72 1.60 1.34 4738
0.05 -0.01 0.14 -12.14 20.93 -3.63 1.61 1.32 4744
0.04 -0.00 -3.26 -17.89 19.93 -3.55 1.51 1.30 4750
0.04 -0.00 -11.03 -13.01 41.37 -2.22 -0.42 1.17 4757
0.04 -0.00 -3.18 -13.63 17.67 -2.73 0.23 1.21 4763
0.04 -0.00 0.31 -13.77 8.42 -2.82 0.27 1.20 4769
0.04 0.00 0.90 -24.91 18.75 -2.83 -0.14 1.17 4775
0.04 -0.00 1.37 -24.67 4.14 -2.95 0.33 1.11 4782
0.04 -0.00 2.05 -20.51 4.72 -2.61 0.85 1.08 4789
0.04 0.00 -0.66 -21.94 8.68 -2.59 1.16 1.17 4795
0.04 -0.00 -2.16 -22.64 13.34 -2.57 1.60 1.29 4801
0.03 -0.00 -4.11 -25.67 11.12 -2.42 1.58 1.36 4807
0.04 -0.00 -4.19 -31.26 8.59 -2.29 1.52 1.43 4813
0.04 0.00 -4.90 -28.50 -0.59 -1.89 1.21 1.47 4820
0.03 -0.00 -6.33 -31.09 3.04 -1.54 0.78 1.47 4827
0.05 0.00 -5.47 -29.77 -1.84 -0.78 0.54 1.48 4833
0.04 -0.00 -9.30 -33.50 15.44 0.01 0.12 1.44 4839
0.03 -0.00 -8.72 -32.76 -7.37 0.52 0.12 1.34 4845
0.04 0.02 -10.28 -36.26 -1.88 1.38 -0.55 1.16 4852
0.04 0.03 -10.66 -38.64 -1.77 1.99 -1.36 0.98 4858
0.03 0.13 -10.33 -40.82 -7.04 2.48 -2.17 0.79 4865
0.04 0.18 -9.18 -32.78 -7.69 3.26 -2.93 0.90 4871
0.02 0.27 -2.22 0.34 9.07 4.28 -2.86 0.93 4878
0.02 0.54 -2.95 -6.50 27.91 4.28 -1.76 0.98 4884
0.00 0.81 -1.31 0.32 34.51 4.28 -1.50 1.01 4890
-0.00 0.99 -7.89 -3.22 32.02 4.28 -1.96 0.74 4896
0.01 1.13 -5.79 -4.80 25.77 4.24 -1.82 0.33 4903
-0.01 1.18 -4.07 -7.70 21.89 4.17 -1.01 0.16 4910
-0.00 1.14 -4.23 -6.09 33.11 4.15 -0.33 -0.05 4916
-0.01 1.21 3.18 0.59 16.26 1.18 -0.95 -0.22 4922
-0.03 1.17 1.80 -3.28 11.41 -0.01 -0.20 -0.00 4928
-0.01 1.21 0.82 -2.00 10.10 -0.09 -0.02 0.06 4935
-0.00 1.19 1.10 -0.91 10.38 -0.02 -0.04 0.09 4941
-0.01 1.15 0.56 -0.26 9.82 0.04 -0.06 0.06 4947
-0.00 1.11 0.45 -0.37 9.73 0.02 -0.04 0.05 4954
0.01 1.09 0.65 -1.02 9.96 -0.02 -0.02 0.05 4960
0.00 1.14 0.62 -0.98 9.97 -0.03 -0.02 0.06 4966
-0.00 1.18 0.65 -0.81 10.26 -0.03 -0.02 0.06 4973
0.01 1.19 0.61 -0.87 10.10 -0.02 -0.02 0.05 4979
0.02 1.13 0.65 -0.87 10.07 -0.03 -0.02 0.05 4985
0.04 1.15 0.68 -0.83 10.00 -0.02 -0.03 0.05 4992
0.05 1.19 0.64 -0.75 10.00 -0.02 -0.04 0.05 4998
0.04 1.17 0.65 -0.77 10.00 -0.02 -0.04 0.04 5005
0.04 1.18 0.66 -0.73 9.94 -0.02 -0.04 0.04 5011
0.07 1.14 0.66 -0.68 9.90 -0.01 -0.03 0.04 5017
0.06 1.14 0.53 -0.70 10.10 -0.01 -0.02 0.04 5023
0.05 1.09 0.66 -0.62 9.98 -0.00 -0.01 0.04 5029
0.07 1.05 0.65 -0.68 9.98 0.01 0.00 0.04 5036
0.07 0.99 0.44 -0.76 9.45 0.01 0.00 0.04 5042
0.07 0.89 0.68 -0.72 10.10 0.01 0.00 0.04 5049
0.07 0.89 0.65 -0.73 10.01 0.01 -0.00 0.04 5055
0.07 0.83 0.66 -0.72 10.02 0.01 -0.00 0.04 5061
0.05 0.77 0.67 -0.73 9.95 0.01 -0.01 0.05 5067
0.05 0.77 0.65 -0.72 9.96 0.01 -0.01 0.05 5073
0.08 0.68 0.63 -0.71 10.02 0.01 -0.01 0.05 5080
0.08 0.61 0.69 -0.69 10.00 0.02 -0.01 0.05 5087
0.08 0.59 0.68 -0.71 10.02 0.02 -0.01 0.04 5093
0.09 0.52 0.72 -0.66 9.98 0.02 -0.00 0.04 5099
0.10 0.49 0.70 -0.72 9.97 0.03 -0.01 0.04 5105
0.07 0.48 0.72 -0.76 9.95 0.02 -0.01 0.04 5111
0.10 0.47 0.71 -0.75 9.99 0.03 -0.02 0.03 5117
0.11 0.39 0.75 -0.73 9.98 0.02 -0.02 0.03 5124
0.12 0.35 0.70 -0.73 9.91 0.02 -0.03 0.03 5131
0.13 0.31 0.69 -0.73 9.94 0.02 -0.03 0.03 5137
0.18 0.29 0.68 -0.75 10.05 0.02 -0.04 0.02 5143
0.19 0.27 0.66 -0.74 9.98 0.02 -0.05 0.02 5149
0.18 0.22 0.67 -0.73 10.06 0.02 -0.05 0.03 5155
0.18 0.19 0.66 -0.80 9.97 0.02 -0.05 0.02 5161
0.17 0.19 0.68 -0.77 10.01 0.02 -0.05 0.03 5169
0.18 0.13 0.68 -0.75 9.95 0.02 -0.05 0.03 5175
0.20 0.16 0.73 -0.76 9.99 0.02 -0.05 0.02 5181
0.20 0.10 0.70 -0.76 10.02 0.02 -0.05 0.01 5187
0.24 0.08 0.72 -0.79 9.97 0.01 -0.04 0.01 5193
0.25 0.10 0.66 -0.83 9.86 0.02 -0.05 0.01 5199
0.31 0.05 0.77 -0.72 9.95 0.01 -0.04 0.01 5206
0.32 0.04 0.67 -0.79 9.99 0.02 -0.04 0.00 5213
0.30 -0.00 0.76 -0.83 10.03 0.01 -0.04 0.01 5219
0.32 -0.00 0.71 -0.82 10.01 0.01 -0.03 0.00 5225
0.35 -0.01 0.72 -0.85 9.95 0.01 -0.03 0.00 5231
0.37 -0.02 0.66 -0.81 10.02 0.02 -0.03 0.00 5237
0.41 -0.00 0.67 -0.54 10.04 0.02 -0.03 0.00 5243
0.42 -0.02 0.72 -0.86 9.93 0.03 -0.02 0.00 5251
0.45 -0.03 0.63 -0.70 10.03 0.03 -0.02 0.00 5257
0.49 -0.02 0.72 -0.83 10.15 0.04 -0.02 -0.00 5263
0.50 -0.02 0.76 -0.77 10.04 0.06 -0.02 0.00 5269
0.53 -0.04 0.75 -0.86 10.11 0.07 -0.02 -0.01 5275
0.55 -0.04 0.72 -0.85 10.06 0.09 -0.02 -0.01 5281
0.62 -0.05 0.75 -0.88 10.08 0.11 -0.02 -0.02 5288
0.64 -0.05 0.83 -0.93 10.21 0.16 -0.02 -0.03 5295
0.69 -0.03 0.77 -0.92 10.14 0.16 -0.01 -0.04 5301
0.74 -0.05 0.75 -0.98 10.17 0.19 0.00 -0.05 5307
0.78 -0.05 0.81 -0.97 10.21 0.23 0.01 -0.05 5313
0.82 -0.03 0.76 -0.97 10.34 0.29 0.01 -0.06 5320
0.86 -0.05 0.86 -1.07 10.40 0.38 0.02 -0.07 5326
0.93 -0.05 0.81 -1.00 10.76 0.51 0.02 -0.08 5332
1.01 -0.04 0.89 -1.20 11.08 0.70 0.02 -0.09 5339
1.07 -0.06 0.91 -1.20 11.07 0.93 0.02 -0.11 5345
1.10 -0.06 1.01 -1.33 11.64 1.16 -0.00 -0.13 5352
1.20 -0.06 0.99 -1.45 11.86 1.33 -0.05 -0.14 5358
1.27 -0.05 0.96 -1.48 11.66 1.45 -0.10 -0.15 5364
1.33 -0.06 0.81 -1.52 11.92 1.55 -0.18 -0.14 5370
1.40 -0.06 0.85 -1.66 12.07 1.65 -0.26 -0.14 5378
1.48 -0.08 0.80 -1.71 12.03 1.76 -0.32 -0.14 5384
1.50 -0.06 0.90 -3.33 13.79 1.89 -0.36 -0.14 5390
1.54 -0.07 0.52 -1.72 12.93 2.03 -0.35 -0.12 5396
1.59 -0.07 0.42 -1.90 12.77 2.20 -0.40 -0.10 5402
1.58 -0.06 0.47 -2.05 12.41 2.39 -0.42 -0.09 5409
1.66 -0.07 0.65 -2.28 12.94 2.55 -0.41 -0.08 5415
1.66 -0.06 0.72 -2.45 13.05 2.70 -0.41 -0.09 5422
1.71 -0.07 0.73 -2.45 13.25 2.91 -0.42 -0.09 5428
1.69 -0.08 0.96 -2.79 13.78 3.17 -0.39 -0.11 5435
1.66 -0.05 0.96 -2.98 14.07 3.44 -0.37 -0.14 5441
1.59 -0.06 0.78 -2.92 14.32 3.74 -0.35 -0.17 5447
1.56 -0.06 0.52 -3.06 15.26 4.05 -0.29 -0.19 5453
1.48 -0.06 1.11 -3.23 16.34 4.26 -0.24 -0.22 5460
1.36 -0.07 1.94 -3.40 17.25 4.28 -0.26 -0.30 5467
1.23 -0.05 3.00 -4.09 18.69 4.28 -0.43 -0.45 5473
1.05 -0.04 2.95 -4.93 20.38 4.28 -0.60 -0.59 5479
0.91 -0.04 2.61 -8.13 21.80 4.28 -0.87 -0.75 5485
0.76 -0.02 3.13 -9.53 26.22 4.28 -1.08 -0.82 5492
0.68 -0.03 3.11 -10.70 30.57 4.28 -1.19 -0.91 5498
0.55 -0.03 2.90 -16.25 35.30 4.28 -0.97 -0.86 5505
0.43 -0.02 4.01 -17.12 32.54 4.28 -0.63 -0.82 5512
0.34 -0.02 4.43 -15.38 30.47 4.28 -0.27 -0.90 5518
0.28 -0.02 3.12 -9.90 29.14 4.28 0.00 -0.89 5524
0.15 -0.02 1.89 -6.55 30.00 4.28 0.11 -0.95 5530
0.14 -0.01 1.38 -3.30 30.59 4.28 -0.07 -1.04 5536
0.11 -0.01 2.36 -0.71 29.79 4.28 -0.46 -1.12 5543
0.07 -0.01 5.17 3.28 28.49 4.28 -0.89 -1.17 5550
0.11 -0.01 7.60 6.99 28.97 4.28 -1.15 -1.21 5556
0.06 -0.01 8.72 9.18 27.68 4.28 -0.98 -1.21 5562
0.06 -0.01 10.90 15.23 22.47 4.28 -0.39 -1.29 5568
0.06 -0.01 9.35 17.52 17.05 4.28 0.36 -1.72 5575
0.04 -0.00 11.20 21.61 -3.22 4.04 0.68 -2.33 5581
0.04 -0.00 8.09 22.41 12.17 2.67 0.75 -2.67 5587
0.04 -0.00 7.92 19.17 30.12 0.48 1.62 -2.52 5594
0.05 -0.01 7.19 17.40 30.53 -1.58 1.98 -2.15 5600
0.04 -0.00 3.75 15.57 19.69 -3.01 1.86 -1.76 5607
0.05 -0.01 1.48 13.61 15.15 -3.84 1.37 -1.33 5613
0.05 -0.00 1.37 11.55 13.72 -4.26 0.91 -0.91 5619
0.03 -0.00 2.28 9.42 11.92 -4.28 0.59 -0.65 5625
0.05 -0.01 2.85 7.63 9.91 -4.28 0.32 -0.43 5632
0.05 -0.00 3.02 6.13 8.46 -4.28 0.20 -0.29 5638
0.05 -0.00 3.45 4.94 7.41 -4.28 0.23 -0.17 5645
0.04 -0.00 3.74 4.16 7.21 -4.28 0.39 -0.06 5651
0.06 -0.01 3.91 3.50 7.25 -4.28 0.61 0.02 5657
0.05 -0.00 4.14 3.17 7.59 -4.27 0.84 0.07 5663
0.04 -0.00 4.16 2.94 8.57 -4.27 1.11 0.10 5669
0.05 -0.00 3.76 2.85 8.47 -4.28 1.32 0.10 5676
0.05 -0.01 3.14 2.82 9.14 -4.28 1.46 0.11 5682
0.04 -0.00 2.51 2.70 9.90 -4.28 1.55 0.15 5688
0.05 -0.00 1.94 2.44 11.02 -4.28 1.63 0.21 5694
0.04 0.00 1.39 1.90 11.77 -4.28 1.65 0.29 5701
0.05 -0.01 0.81 1.13 12.45 -4.28 1.66 0.36 5707
0.05 -0.01 0.62 0.48 13.03 -4.28 1.63 0.42 5713
0.04 0.00 0.54 -0.41 14.08 -4.28 1.56 0.45 5720
0.05 -0.00 0.56 -1.12 13.87 -4.28 1.47 0.46 5726
0.05 -0.00 0.61 -1.79 14.28 -4.28 1.41 0.45 5732
0.03 0.00 0.53 -2.28 14.95 -4.28 1.40 0.43 5739
0.05 -0.00 0.60 -2.80 15.62 -4.28 1.47 0.40 5745
0.04 -0.00 0.56 -3.28 16.62 -4.28 1.59 0.36 5751
0.03 0.00 0.44 -3.83 17.31 -4.28 1.76 0.31 5757
0.05 -0.01 0.22 -4.41 17.79 -4.28 1.94 0.25 5764
0.04 0.00 0.49 -5.12 18.39 -4.28 2.05 0.19 5771
0.03 -0.00 0.18 -5.46 18.76 -4.28 2.13 0.15 5777
0.06 -0.01 -0.13 -5.75 18.87 -4.28 2.18 0.15 5783
0.03 -0.00 -0.35 -6.15 19.59 -4.27 2.20 0.20 5789
0.02 0.00 -0.48 -6.81 19.16 -4.23 2.14 0.31 5795
0.05 0.00 -0.68 -7.18 19.64 -4.14 2.00 0.47 5801
0.04 0.00 -0.85 -7.78 20.15 -4.02 1.79 0.65 5809
0.03 -0.00 -0.87 -8.59 20.52 -3.86 1.52 0.86 5815
0.05 -0.00 -0.76 -9.65 20.90 -3.69 1.19 1.09 5821
0.03 -0.00 -0.50 -10.61 21.85 -3.53 0.80 1.32 5827
0.04 -0.00 -0.31 -11.59 22.91 -3.39 0.44 1.54 5833
0.05 -0.00 0.21 -12.37 23.55 -3.33 0.27 1.74 5840
0.04 -0.00 1.01 -12.83 23.27 -3.29 0.33 1.91 5847
0.04 -0.00 1.23 -13.11 23.55 -3.33 0.79 2.03 5853
0.04 -0.00 0.62 -14.18 23.06 -3.45 1.42 2.07 5859
0.04 -0.00 0.58 -15.45 22.20 -3.58 1.93 2.04 5866
0.04 0.00 -0.22 -17.02 21.36 -3.67 2.35 2.01 5872
0.04 -0.00 -1.21 -19.00 20.12 -3.65 2.51 1.99 5878
0.03 -0.00 -2.14 -21.29 18.80 -3.52 2.40 1.96 5884
0.05 -0.00 -2.60 -22.51 17.16 -3.29 2.09 1.88 5891
0.03 -0.00 -2.78 -24.17 15.33 -2.99 1.68 1.84 5898
0.04 -0.00 -3.07 -25.63 13.49 -2.70 1.28 1.73 5904
0.05 -0.00 -3.57 -26.99 10.98 -2.46 0.99 1.58 5910
0.04 -0.00 -4.12 -28.64 8.50 -2.28 0.84 1.38 5916
0.04 -0.00 -4.56 -30.62 6.41 -2.10 0.78 1.12 5922
0.05 -0.01 -5.01 -32.65 4.51 -1.88 0.79 0.83 5929
0.05 -0.00 -5.47 -34.24 2.67 -1.58 0.86 0.52 5936
0.05 -0.00 -5.76 -34.35 1.58 -1.24 0.93 0.21 5942
0.06 -0.01 -6.06 -32.87 1.68 -0.78 0.90 -0.09 5948
0.05 -0.01 -6.22 -30.26 2.42 -0.30 0.75 -0.38 5954
0.04 -0.00 -14.05 -45.19 51.12 0.57 -0.34 -0.49 5960
0.06 -0.01 -2.00 -27.45 -1.45 2.36 -0.68 -0.48 5967
0.05 -0.01 -5.90 -23.12 -2.99 2.69 -1.59 -0.59 5974
0.04 0.05 -5.59 -24.60 -1.92 2.77 -2.68 -0.62 5980
0.04 0.15 0.34 -19.24 0.56 2.67 -4.17 -0.62 5986
0.03 0.23 3.87 5.44 7.45 2.88 -4.14 -0.43 5992
0.03 0.45 9.45 2.39 20.11 3.72 -2.11 0.24 5999
0.02 0.69 12.00 3.53 18.05 4.15 -0.52 1.03 6005
0.01 0.97 -3.29 -4.09 26.56 4.28 -0.55 1.32 6011
-0.01 1.25 -10.38 -7.48 30.20 4.28 -0.93 1.04 6018
-0.01 1.35 -4.86 -5.61 21.68 4.26 -0.81 0.61 6025
-0.02 1.46 -5.49 -3.99 24.95 4.12 -0.23 0.30 6031
-0.01 1.49 -6.63 -1.95 22.62 3.54 -0.16 -0.21 6037
-0.03 1.50 -0.62 -2.08 19.58 3.02 -0.39 -0.74 6043
-0.03 1.49 6.79 -4.00 26.75 2.56 -1.10 -0.79 6050
-0.01 1.46 5.92 -2.49 14.35 1.09 -1.67 -0.33 6056
-0.01 1.40 1.94 -2.71 12.82 0.70 -1.31 0.08 6063
0.00 1.40 0.12 -1.32 11.60 0.45 -0.92 0.19 6069
-0.01 1.38 -0.69 -0.47 11.27 0.26 -0.63 0.14 6076
-0.01 1.36 -0.19 -0.92 10.78 0.13 -0.36 0.04 6082
-0.00 1.38 0.70 -1.20 10.38 0.03 -0.21 0.03 6088
-0.01 1.30 0.91 -1.27 10.14 0.01 -0.17 0.05 6094
-0.01 1.35 0.72 -0.90 9.95 0.01 -0.14 0.05 6100
-0.01 1.33 0.46 -0.72 10.06 0.00 -0.11 0.05 6108
-0.01 1.29 0.48 -0.77 9.91 -0.01 -0.09 0.03 6114
-0.02 1.30 0.63 -0.77 9.95 -0.01 -0.08 0.03 6120
-0.00 1.26 0.65 -0.70 9.89 -0.00 -0.07 0.03 6126
-0.01 1.20 0.65 -0.64 10.02 0.00 -0.07 0.03 6132
0.01 1.12 0.57 -0.72 10.04 0.01 -0.06 0.03 6138
0.04 1.05 0.59 -0.79 10.11 0.01 -0.05 0.03 6145
0.05 1.03 0.48 -0.81 10.04 0.01 -0.05 0.04 6152
0.06 0.94 0.57 -0.84 10.05 0.02 -0.05 0.04 6158
0.08 0.83 0.52 -0.76 10.01 0.02 -0.05 0.04 6164
0.07 0.84 0.51 -0.82 8.86 0.03 -0.06 0.05 6170
0.07 0.73 0.55 -0.81 10.04 0.02 -0.05 0.04 6176
0.10 0.66 0.53 -0.77 10.05 0.03 -0.05 0.04 6183
0.10 0.63 0.53 -0.75 9.98 0.03 -0.04 0.04 6190
0.12 0.59 0.54 -0.72 10.04 0.03 -0.03 0.04 6196
0.13 0.60 0.42 -0.51 10.00 0.03 -0.02 0.04 6202
0.13 0.47 0.56 -0.74 10.00 0.04 -0.02 0.04 6208
0.13 0.39 0.69 -1.10 10.10 0.04 -0.01 0.04 6214
0.16 0.39 0.63 -0.76 9.96 0.05 -0.01 0.04 6221
0.18 0.33 0.61 -0.86 9.95 0.05 -0.01 0.03 6227
0.19 0.25 0.64 -0.87 9.96 0.04 -0.00 0.02 6234
0.18 0.22 0.63 -0.84 9.98 0.04 -0.01 0.02 6240
0.21 0.23 0.65 -0.72 9.89 0.04 -0.01 0.01 6246
0.22 0.13 0.63 -0.90 9.96 0.03 -0.01 0.01 6252
0.22 0.10 0.66 -0.96 9.94 0.03 -0.02 0.01 6258
0.24 0.09 0.62 -0.85 10.00 0.03 -0.01 0.01 6265
0.24 0.07 0.58 -0.82 9.96 0.03 -0.02 0.01 6272
0.23 0.06 0.61 -0.82 10.06 0.03 -0.02 0.01 6278
0.25 0.07 0.62 -0.83 10.01 0.03 -0.02 0.01 6284
0.26 0.03 0.02 -0.86 9.98 0.03 -0.02 0.01 6290
0.26 0.01 0.63 -0.86 9.96 0.03 -0.02 0.01 6296
0.24 0.01 0.68 -0.88 10.03 0.03 -0.02 0.01 6302
0.25 0.03 0.66 -0.88 9.98 0.03 -0.02 0.01 6309
0.26 0.02 0.62 -0.84 9.97 0.03 -0.02 0.01 6316
0.27 -0.00 0.70 -0.96 9.95 0.03 -0.02 0.00 6322
0.27 0.01 0.69 -0.90 9.95 0.03 -0.03 0.00 6328
0.34 -0.01 0.67 -0.90 9.99 0.03 -0.03 -0.00 6334
0.34 -0.02 0.63 -0.92 10.10 0.03 -0.03 -0.01 6340
0.32 0.01 0.65 -0.87 9.94 0.03 -0.03 -0.01 6346
0.38 -0.02 0.64 -0.92 9.95 0.03 -0.03 -0.02 6353
0.37 -0.03 0.63 -0.92 9.95 0.03 -0.03 -0.02 6360
0.36 -0.03 0.63 -0.87 9.99 0.03 -0.04 -0.02 6366
0.43 -0.03 0.63 -0.85 9.96 0.03 -0.04 -0.02 6372
0.43 -0.03 0.64 -0.91 9.92 0.03 -0.04 -0.02 6378
0.47 -0.05 0.60 -0.93 10.01 0.04 -0.04 -0.02 6384
0.49 -0.02 0.04 -0.88 10.04 0.04 -0.03 -0.01 6390
0.53 -0.04 0.63 -0.89 10.06 0.05 -0.03 -0.01 6397
0.57 -0.05 0.66 -0.97 10.06 0.08 -0.02 -0.01 6404
0.62 -0.05 0.70 -0.93 10.05 0.10 -0.02 -0.01 6410
0.68 -0.05 0.69 -0.94 10.17 0.13 -0.01 -0.02 6416
0.76 -0.06 0.78 -1.02 10.18 0.18 -0.00 -0.03 6422
0.80 -0.05 0.79 -0.99 10.26 0.25 0.01 -0.04 6429
0.86 -0.05 0.83 -1.17 10.41 0.34 0.02 -0.06 6435
0.87 -0.06 0.88 -1.12 10.51 0.48 0.03 -0.08 6441
0.92 -0.04 0.88 -1.20 10.82 0.68 0.06 -0.10 6448
1.00 -0.05 0.88 -1.15 11.45 0.91 0.07 -0.12 6454
1.07 -0.06 0.94 -1.38 11.55 1.15 0.07 -0.14 6461
1.15 -0.04 0.90 -1.46 11.94 1.36 0.04 -0.15 6467
1.21 -0.05 0.90 -1.63 12.03 1.49 -0.04 -0.16 6473
1.28 -0.05 0.61 -1.08 12.67 1.63 -0.13 -0.16 6479
1.35 -0.07 0.63 -1.63 12.71 1.76 -0.20 -0.14 6487
1.43 -0.07 0.70 -1.69 12.40 1.88 -0.26 -0.14 6493
1.44 -0.07 0.63 -2.49 12.56 2.02 -0.29 -0.13 6499
1.49 -0.07 0.48 -1.40 14.01 2.20 -0.29 -0.14 6505
1.53 -0.06 0.56 -2.00 12.55 2.37 -0.27 -0.12 6511
1.52 -0.05 0.67 -2.05 12.76 2.53 -0.25 -0.12 6518
1.52 -0.07 0.68 -1.96 12.28 2.72 -0.26 -0.10 6524
1.50 -0.05 0.57 -2.35 13.04 2.91 -0.23 -0.10 6531
1.50 -0.06 0.51 -2.55 13.67 3.15 -0.22 -0.10 6537
1.42 -0.07 1.30 -2.83 13.32 3.44 -0.18 -0.12 6544
1.39 -0.05 1.03 -2.55 14.14 3.80 -0.14 -0.15 6550
1.33 -0.06 0.27 -2.45 15.19 4.10 -0.06 -0.15 6556
1.25 -0.06 1.39 -3.07 16.29 4.26 -0.03 -0.14 6562
1.08 -0.03 2.31 -3.66 16.90 4.28 -0.06 -0.19 6569
0.94 -0.04 2.93 -4.09 17.91 4.28 -0.18 -0.33 6576
0.82 -0.03 2.45 -5.14 18.58 4.28 -0.34 -0.48 6582
0.70 -0.01 3.93 -5.87 22.37 4.28 -0.57 -0.63 6588
0.61 -0.03 2.11 -8.90 25.77 4.28 -0.66 -0.68 6594
0.52 -0.02 2.53 -12.11 30.46 4.28 -0.67 -0.72 6601
0.42 -0.02 2.37 -15.26 33.90 4.28 -0.47 -0.66 6607
0.38 -0.01 3.54 -11.32 33.43 4.28 -0.20 -0.63 6614
0.30 -0.02 3.77 -16.48 27.90 4.28 0.05 -0.67 6621
0.24 -0.02 2.15 -10.08 27.38 4.28 0.25 -0.70 6627
0.24 -0.01 1.08 -6.66 28.39 4.28 0.36 -0.72 6633
0.13 -0.00 0.85 -4.21 34.25 4.28 0.19 -0.87 6639
0.09 0.00 2.38 -2.29 30.46 4.28 -0.26 -0.94 6646
0.12 -0.00 5.87 2.19 28.52 4.28 -0.70 -1.01 6652
0.09 -0.01 8.09 5.70 28.99 4.28 -0.96 -1.02 6659
0.05 -0.00 9.86 11.27 25.93 4.28 -0.69 -1.04 6665
0.05 -0.00 11.33 17.04 20.01 4.28 0.10 -1.07 6671
0.05 -0.00 7.18 20.44 12.80 4.27 0.79 -1.39 6678
0.04 -0.00 8.45 23.35 -2.64 3.68 1.33 -2.13 6684
0.05 -0.00 7.18 19.95 12.52 2.56 1.22 -2.63 6690
0.04 -0.00 6.42 16.22 28.82 0.77 1.56 -2.61 6696
0.04 -0.00 5.44 16.75 29.83 -1.19 1.90 -2.43 6703
0.04 -0.00 2.81 17.20 20.45 -2.55 1.77 -2.26 6710
0.03 -0.00 0.87 15.49 14.42 -3.41 1.24 -1.96 6716
0.05 -0.01 0.21 12.19 13.49 -4.06 0.76 -1.58 6722
0.04 -0.00 1.26 9.71 12.83 -4.27 0.44 -1.24 6728
0.03 -0.00 2.45 7.78 11.02 -4.28 0.19 -1.01 6734
0.04 -0.00 3.19 6.38 9.58 -4.28 0.04 -0.86 6740
0.05 -0.00 3.57 5.18 8.86 -4.28 0.04 -0.72 6748
0.05 -0.00 3.93 4.15 8.27 -4.28 0.18 -0.58 6754
0.04 -0.00 4.30 3.22 8.14 -4.28 0.34 -0.45 6760
0.05 -0.01 4.57 2.57 8.24 -4.28 0.55 -0.37 6766
0.05 -0.01 4.65 2.08 8.40 -4.28 0.74 -0.29 6772
0.04 -0.00 4.36 1.86 8.74 -4.28 0.88 -0.23 6778
0.04 -0.00 3.94 1.69 9.36 -4.28 0.97 -0.16 6785
0.04 -0.00 3.47 1.36 10.00 -4.28 1.03 -0.08 6791
0.04 -0.00 2.52 0.77 10.46 -4.28 1.07 0.02 6797
0.04 -0.00 2.90 0.14 10.86 -4.28 1.12 0.13 6804
0.05 0.00 2.76 -1.21 11.54 -4.28 1.14 0.26 6810
0.05 -0.01 2.53 -1.20 12.77 -4.28 1.13 0.34 6816
0.05 -0.00 2.44 -1.69 12.74 -4.28 1.11 0.43 6822
0.03 0.00 2.52 -2.18 13.22 -4.28 1.10 0.50 6829
0.04 -0.00 2.61 -2.62 13.55 -4.28 1.15 0.55 6836
0.03 -0.00 2.70 -3.07 13.81 -4.28 1.24 0.57 6842
0.03 -0.00 2.70 -3.68 14.20 -4.28 1.38 0.56 6848
0.04 -0.00 2.62 -4.39 14.89 -4.28 1.56 0.53 6854
0.04 -0.00 1.72 -5.21 16.37 -4.28 1.71 0.50 6860
0.03 -0.00 1.65 -5.82 17.05 -4.28 1.84 0.48 6866
0.05 -0.01 1.63 -6.74 17.10 -4.27 1.92 0.45 6873
0.04 -0.00 1.66 -6.30 17.10 -4.26 2.01 0.42 6880
0.02 -0.00 1.15 -6.31 17.61 -4.22 2.03 0.41 6886
0.03 0.00 0.73 -6.37 17.68 -4.16 2.04 0.44 6892
0.03 -0.00 0.41 -6.34 18.02 -4.07 2.00 0.49 6898
0.03 -0.00 0.13 -6.53 18.49 -3.94 1.93 0.55 6904
0.03 0.01 0.05 -6.85 19.17 -3.78 1.83 0.63 6910
0.04 -0.00 0.01 -7.39 19.85 -3.69 1.73 0.70 6918
0.04 -0.00 0.04 -8.07 20.73 -3.57 1.61 0.77 6924
0.04 -0.00 0.12 -8.86 21.36 -3.48 1.54 0.82 6930
0.04 0.00 0.32 -9.59 21.71 -3.42 1.43 0.89 6936
0.04 -0.00 0.50 -10.48 21.62 -3.38 1.31 0.94 6942
0.04 0.01 0.83 -11.25 21.52 -3.34 1.21 1.01 6949
0.03 -0.00 1.14 -11.75 21.41 -3.30 1.16 1.09 6956
0.03 -0.00 1.23 -12.06 21.50 -3.26 1.22 1.19 6962
0.04 0.00 1.29 -12.46 21.51 -3.25 1.34 1.30 6968
0.03 -0.00 1.01 -12.89 21.65 -3.24 1.49 1.39 6975
0.03 0.00 0.34 -13.59 21.67 -3.27 1.63 1.46 6981
0.05 -0.00 -0.60 -14.60 21.32 -3.31 1.68 1.53 6987
0.03 -0.00 -1.70 -15.96 20.52 -3.36 1.65 1.61 6993
0.04 0.00 -2.20 -17.63 19.00 -3.36 1.54 1.68 7000
0.04 -0.00 -2.72 -19.63 16.75 -3.29 1.37 1.75 7007
0.03 -0.00 -2.87 -21.74 14.56 -3.13 1.14 1.80 7013
0.04 -0.00 -2.93 -24.07 11.76 -2.90 0.87 1.80 7019
0.04 -0.00 -3.01 -26.22 9.29 -2.58 0.66 1.73 7025
0.03 -0.00 -2.97 -28.26 6.76 -2.31 0.59 1.61 7031
0.05 -0.01 -3.33 -30.29 4.81 -1.95 0.67 1.44 7038
0.04 -0.00 -3.88 -32.24 3.56 -1.58 0.86 1.25 7045
0.03 -0.00 -4.75 -33.59 2.79 -1.18 1.09 1.03 7051
0.03 0.00 -5.79 -33.09 2.62 -0.72 1.18 0.81 7057
0.04 -0.00 -6.49 -31.54 2.57 -0.24 1.11 0.61 7063
0.03 0.01 -6.89 -28.87 3.34 0.23 0.82 0.40 7070
0.03 0.00 -6.73 -25.66 4.73 0.62 0.35 0.22 7076
0.03 -0.00 -5.86 -22.24 6.55 0.90 -0.17 0.11 7083
0.03 -0.00 -22.97 -39.36 78.47 3.27 -2.16 0.37 7089
0.05 -0.00 -6.34 -16.79 9.71 3.51 -1.91 0.74 7095
0.03 0.02 -2.50 -9.13 -5.15 3.38 -2.43 0.79 7102
0.03 0.10 4.21 -7.89 -6.16 2.88 -3.16 0.69 7108
0.03 0.20 3.90 2.21 12.12 2.98 -2.90 0.94 7114
0.01 0.40 3.69 6.80 20.02 3.32 -1.06 1.53 7120
0.00 0.70 2.38 2.99 17.17 3.50 -0.26 1.86 7127
0.01 0.93 -9.46 -4.61 26.64 4.07 -0.62 1.66 7134
-0.01 1.24 -11.95 -7.55 23.94 4.22 -0.90 1.11 7140
-0.02 1.44 -6.86 -6.01 20.86 4.28 -0.67 0.55 7146
-0.03 1.51 -7.00 -3.11 25.25 4.26 -0.26 0.09 7152
-0.03 1.59 -5.85 -1.81 21.61 3.74 -0.18 -0.49 7159
-0.01 1.63 0.21 -2.20 17.56 3.20 -0.19 -0.84 7165
-0.02 1.58 5.46 -2.66 17.17 3.01 -0.21 -0.75 7172
-0.01 1.55 5.67 -3.12 27.16 2.55 -1.24 -0.42 7178
-0.00 1.49 4.38 -2.63 13.72 1.12 -1.59 -0.01 7184
-0.02 1.46 0.35 -1.79 12.78 0.61 -1.03 0.20 7191
-0.02 1.42 -0.50 -0.63 11.46 0.31 -0.62 0.18 7197
-0.01 1.40 -0.49 -0.45 10.51 0.14 -0.33 0.07 7203
-0.02 1.36 0.57 -0.89 10.54 0.06 -0.18 0.02 7209
-0.01 1.39 1.16 -1.20 9.95 0.02 -0.11 0.04 7216
-0.01 1.36 0.95 -1.01 10.20 0.01 -0.10 0.07 7223
-0.02 1.34 0.51 -0.77 10.07 0.00 -0.08 0.06 7229
-0.00 1.33 0.51 -0.67 10.00 -0.00 -0.06 0.04 7235
-0.00 1.30 0.75 -0.71 10.02 -0.00 -0.05 0.04 7241
-0.01 1.26 0.82 -0.62 9.80 -0.01 -0.05 0.04 7247
0.00 1.26 0.66 -0.57 9.93 0.00 -0.05 0.04 7254
-0.01 1.22 0.74 -0.03 9.96 0.00 -0.05 0.04 7261
0.00 1.12 2.27 -0.21 11.59 0.01 -0.05 0.03 7267
0.00 1.06 0.72 -0.72 10.01 0.01 -0.05 0.03 7273
0.03 0.95 0.63 -0.71 10.00 0.01 -0.05 0.04 7279
0.00 0.93 0.57 -0.65 10.10 0.01 -0.05 0.04 7285
0.02 0.86 0.65 -0.68 10.11 0.02 -0.05 0.04 7292
0.02 0.85 0.62 -0.66 10.08 0.03 -0.05 0.05 7299
0.03 0.73 0.65 -0.67 10.06 0.03 -0.05 0.04 7305
0.06 0.71 0.61 -0.68 10.00 0.03 -0.05 0.04 7311
0.07 0.61 0.62 -0.56 10.06 0.03 -0.04 0.04 7317
0.05 0.55 0.58 -0.64 10.01 0.03 -0.04 0.04 7323
0.06 0.52 0.60 -0.64 9.98 0.03 -0.03 0.04 7330
0.06 0.42 0.51 -0.44 10.05 0.03 -0.03 0.04 7336
0.07 0.41 0.64 -0.70 9.97 0.03 -0.03 0.03 7343
0.08 0.29 0.75 -0.72 9.95 0.03 -0.04 0.03 7349
0.10 0.31 0.72 -0.73 9.91 0.03 -0.04 0.02 7355
0.12 0.28 0.74 -0.71 9.97 0.03 -0.06 0.02 7361
0.12 0.22 0.76 -0.71 9.96 0.02 -0.06 0.01 7367
0.13 0.24 0.73 -0.73 9.92 0.03 -0.07 0.00 7374
0.15 0.18 0.67 -0.73 9.92 0.02 -0.08 0.00 7380
0.16 0.18 0.64 -0.79 9.97 0.02 -0.08 0.00 7387
0.15 0.12 0.62 -0.74 9.94 0.02 -0.08 -0.00 7393
0.19 0.11 0.62 -0.72 10.04 0.02 -0.07 -0.00 7399
0.20 0.10 0.61 -0.75 9.97 0.02 -0.06 0.00 7405
0.21 0.11 0.60 -0.77 10.04 0.02 -0.05 0.01 7412
0.23 0.13 0.62 -0.76 9.97 0.02 -0.04 0.01 7418
0.25 0.08 0.61 -0.87 10.03 0.02 -0.04 0.00 7425
0.24 0.04 0.64 -0.75 10.02 0.02 -0.03 0.00 7431
0.28 0.03 0.17 -0.78 10.05 0.02 -0.03 0.00 7437
0.30 0.00 0.74 -0.70 9.97 0.02 -0.03 -0.00 7443
0.31 0.01 0.68 -0.44 10.00 0.03 -0.04 0.00 7449
0.33 0.02 0.65 -0.76 9.98 0.03 -0.04 -0.00 7456
0.40 -0.02 0.68 -0.49 9.98 0.03 -0.04 -0.00 7462
0.41 -0.02 0.73 -0.74 9.98 0.03 -0.04 -0.00 7469
0.42 -0.04 0.61 -0.79 9.91 0.04 -0.04 -0.00 7475
0.49 -0.02 0.64 -0.81 10.00 0.04 -0.04 -0.00 7481
0.52 -0.02 0.61 -0.86 9.99 0.05 -0.04 -0.00 7487
0.57 -0.05 0.66 -0.81 10.07 0.06 -0.03 -0.00 7494
0.60 -0.01 0.67 -1.12 10.05 0.06 -0.04 -0.01 7500
0.68 -0.03 0.61 -0.88 10.17 0.08 -0.03 -0.01 7506
0.73 -0.04 0.64 -0.81 10.02 0.09 -0.03 -0.01 7513
0.73 -0.03 0.65 -0.85 10.08 0.11 -0.03 -0.01 7519
0.80 -0.06 0.64 -0.88 10.14 0.13 -0.02 -0.01 7526
0.85 -0.05 0.65 -0.89 10.14 0.16 -0.02 -0.01 7532
0.88 -0.05 0.71 -0.87 10.18 0.19 -0.02 -0.02 7538
0.90 -0.06 0.76 -0.95 10.22 0.24 -0.02 -0.03 7544
0.97 -0.05 0.81 -0.86 10.36 0.31 -0.01 -0.03 7550
1.03 -0.05 0.82 -0.92 10.54 0.40 -0.01 -0.05 7558
1.11 -0.07 0.97 -1.11 10.78 0.56 -0.01 -0.07 7564
1.16 -0.07 1.06 -1.18 11.45 0.78 -0.01 -0.10 7570
1.22 -0.07 1.04 -1.24 11.73 1.01 -0.02 -0.12 7576
1.25 -0.08 0.93 -1.32 11.79 1.24 -0.04 -0.14 7582
1.32 -0.05 0.97 -1.37 12.00 1.42 -0.08 -0.16 7589
1.38 -0.07 0.90 -1.45 12.26 1.56 -0.13 -0.16 7596
1.42 -0.07 1.01 -1.57 12.54 1.69 -0.22 -0.15 7602
1.48 -0.05 0.80 -1.58 12.36 1.82 -0.25 -0.15 7608
1.56 -0.05 0.60 -1.76 12.44 1.97 -0.29 -0.15 7615
1.60 -0.07 0.67 -1.72 12.44 2.12 -0.32 -0.14 7621
1.60 -0.07 0.50 -1.70 13.51 2.28 -0.32 -0.11 7627
1.65 -0.08 0.51 -1.98 12.58 2.45 -0.32 -0.10 7633
1.63 -0.05 0.62 -2.72 12.58 2.60 -0.33 -0.11 7641
1.62 -0.06 -0.02 -3.36 13.40 2.75 -0.27 -0.12 7647
1.59 -0.07 0.55 -2.35 13.00 2.95 -0.26 -0.12 7653
1.59 -0.08 0.45 -2.52 13.46 3.15 -0.22 -0.12 7659
1.51 -0.07 0.41 -2.57 14.43 3.41 -0.20 -0.11 7665
1.45 -0.06 0.64 -2.95 14.91 3.73 -0.18 -0.10 7672
1.38 -0.06 1.37 -2.96 15.51 4.08 -0.16 -0.12 7678
1.28 -0.06 2.34 -3.08 15.58 4.26 -0.19 -0.21 7685
1.15 -0.03 2.43 -3.70 16.86 4.28 -0.28 -0.34 7691
1.00 -0.03 1.96 -4.57 18.44 4.28 -0.39 -0.47 7698
0.86 -0.02 2.15 -5.94 20.62 4.28 -0.60 -0.59 7704
0.72 -0.01 2.35 -7.44 22.75 4.28 -0.83 -0.69 7710
0.63 -0.04 3.17 -9.74 25.76 4.28 -0.94 -0.82 7716
0.53 -0.01 3.17 -12.64 30.30 4.28 -0.87 -0.87 7724
0.47 -0.03 2.85 -14.68 31.85 4.28 -0.63 -0.83 7730
0.35 -0.02 3.56 -14.27 29.95 4.28 -0.37 -0.82 7736
0.26 -0.02 3.52 -11.39 26.88 4.28 -0.10 -0.87 7742
0.22 -0.01 2.11 -7.50 25.90 4.28 0.12 -0.92 7749
0.16 -0.01 1.18 -5.61 29.60 4.28 0.07 -0.99 7755
0.12 -0.01 2.00 -4.05 30.86 4.28 -0.30 -1.07 7761
0.09 -0.01 4.65 -1.00 30.03 4.28 -0.74 -1.17 7768
0.09 -0.01 7.35 2.57 28.75 4.28 -1.05 -1.23 7774
0.05 -0.01 7.41 5.92 28.39 4.28 -1.14 -1.25 7781
0.02 -0.00 8.64 13.25 21.47 4.28 -0.84 -1.22 7787
0.05 -0.01 10.39 19.50 16.50 4.28 -0.14 -1.37 7793
0.03 -0.00 6.66 20.89 3.94 3.88 0.35 -1.84 7799
0.04 -0.00 8.03 24.04 -2.91 2.70 0.16 -2.39 7805
0.04 -0.00 6.31 18.97 17.68 1.23 0.38 -2.69 7813
0.05 -0.00 7.88 14.03 29.16 -0.52 1.02 -2.61 7819
0.03 -0.00 6.29 13.27 24.50 -1.91 1.39 -2.46 7825
0.06 -0.01 4.01 13.74 15.76 -2.70 1.34 -2.28 7831
0.04 -0.00 3.08 12.75 10.65 -3.24 1.11 -2.02 7837
0.04 -0.00 2.77 10.73 9.78 -3.72 0.96 -1.73 7844
0.05 -0.00 3.42 8.54 8.05 -4.00 0.82 -1.50 7851
0.04 -0.00 3.61 6.79 6.98 -4.05 0.64 -1.32 7857
0.02 -0.00 3.36 5.38 6.55 -4.04 0.53 -1.16 7863
0.03 0.01 3.13 4.61 6.32 -3.99 0.47 -0.97 7869
0.04 -0.00 3.23 3.94 6.40 -3.90 0.44 -0.82 7875
0.03 -0.00 3.58 3.39 6.54 -3.81 0.44 -0.64 7881
0.03 -0.00 3.90 3.17 6.66 -3.77 0.42 -0.48 7887
0.04 0.01 4.11 3.19 7.12 -3.83 0.41 -0.33 7895
0.04 -0.00 4.32 3.29 7.96 -3.89 0.42 -0.19 7901
0.03 -0.00 4.59 3.24 9.03 -4.02 0.47 -0.02 7907
0.04 -0.00 4.77 2.98 9.84 -4.13 0.58 0.12 7913
0.04 0.00 4.79 2.64 10.35 -4.22 0.72 0.30 7919
0.04 -0.00 4.64 2.14 10.83 -4.27 0.89 0.49 7925
0.03 -0.00 4.41 1.54 11.22 -4.28 1.04 0.66 7931
0.03 0.00 4.16 0.84 11.42 -4.28 1.18 0.81 7939
0.03 -0.00 4.02 0.14 12.04 -4.28 1.31 0.93 7945
0.03 -0.00 3.83 -0.46 12.64 -4.28 1.43 1.01 7951
0.03 -0.00 3.59 -1.22 13.28 -4.28 1.54 1.05 7957
0.04 -0.00 3.29 -2.15 13.89 -4.28 1.65 1.06 7963
0.03 -0.00 3.09 -2.87 14.71 -4.28 1.77 1.03 7969
0.03 -0.00 2.70 -3.80 15.42 -4.28 1.86 0.98 7975
0.04 -0.00 2.11 -4.70 16.08 -4.28 1.94 0.91 7983
0.04 -0.00 0.45 -6.30 16.94 -4.28 2.00 0.84 7989
0.03 -0.00 -0.97 -6.27 17.46 -4.27 1.95 0.85 7995
0.04 -0.00 0.12 -5.96 17.49 -4.26 1.84 0.83 8001
0.04 -0.00 0.68 -6.48 17.56 -4.22 1.67 0.74 8007
0.04 -0.00 0.48 -6.90 17.97 -4.18 1.57 0.67 8013
0.04 0.00 -0.53 -6.98 18.46 -4.11 1.58 0.65 8020
0.04 -0.00 -0.07 -7.03 18.84 -4.03 1.54 0.63 8027
0.04 -0.00 -0.08 -7.15 19.40 -3.91 1.49 0.63 8033
0.04 -0.00 -0.08 -7.15 19.62 -3.81 1.43 0.63 8039
0.04 -0.00 -0.09 -7.31 19.84 -3.72 1.38 0.65 8045
0.04 -0.00 0.00 -7.49 20.18 -3.62 1.32 0.70 8051
0.03 -0.00 0.18 -7.98 20.51 -3.53 1.28 0.75 8057
0.03 -0.00 0.23 -8.54 20.68 -3.44 1.23 0.81 8065
0.03 -0.00 0.16 -9.11 20.53 -3.33 1.19 0.88 8071
0.03 -0.00 0.13 -9.82 20.40 -3.19 1.16 0.94 8077
0.03 -0.00 0.18 -10.99 20.02 -3.03 1.13 0.98 8083
0.03 -0.00 0.24 -11.24 19.88 -2.83 1.10 1.02 8089
0.03 -0.00 -7.92 -26.67 66.73 -1.72 0.83 1.27 8096
0.03 -0.00 2.18 -7.86 3.88 -1.71 0.89 1.32 8102
0.04 -0.00 1.19 -11.44 8.64 -2.01 0.71 1.20 8109
0.03 -0.00 0.53 -15.98 17.58 -2.09 0.57 1.20 8115
0.04 -0.00 0.82 -16.55 24.30 -2.34 0.71 1.30 8121
0.04 -0.00 0.06 -14.62 21.96 -2.59 1.26 1.40 8127
0.03 -0.00 -1.05 -16.56 19.23 -2.84 2.00 1.52 8134
0.03 -0.00 -3.24 -18.89 18.37 -2.97 2.78 1.73 8140
0.04 -0.00 -4.92 -20.99 15.95 -3.15 3.19 1.90 8146
0.03 -0.00 -6.25 -24.25 12.92 -3.20 3.08 1.97 8153
0.04 -0.00 -7.46 -28.21 9.88 -3.13 2.62 1.97 8159
0.03 -0.00 -8.85 -31.43 5.92 -2.88 2.19 1.91 8166
0.03 -0.00 -9.23 -34.97 3.12 -2.40 1.67 1.79 8172
0.05 -0.01 -9.80 -38.58 4.04 -1.43 1.07 1.56 8178
0.04 -0.00 -8.20 -36.64 0.89 -0.39 0.67 1.25 8184
0.03 -0.00 -9.46 -38.88 -3.68 0.58 0.16 0.84 8190
0.04 -0.00 -8.75 -35.29 -1.94 1.65 -0.43 0.48 8197
0.04 -0.00 -9.62 -31.29 2.79 2.45 -1.28 0.17 8204
0.04 -0.00 -9.87 -31.58 4.91 2.98 -2.28 0.02 8210
0.04 0.04 -7.14 -29.69 1.87 3.19 -3.21 -0.03 8216
0.04 0.12 -1.90 -11.21 1.00 3.20 -4.04 0.10 8222
0.03 0.25 4.07 1.18 15.04 3.74 -3.03 0.40 8228
0.02 0.48 7.54 1.11 25.19 4.22 -0.98 1.14 8236
0.00 0.73 3.03 0.16 21.15 4.28 -0.43 1.59 8242
-0.02 1.03 -8.13 -4.51 30.21 4.28 -0.74 1.42 8248
-0.01 1.18 -9.54 -5.75 26.43 4.14 -1.15 0.89 8254
-0.02 1.26 -6.84 -4.91 18.96 3.80 -1.10 0.39 8261
-0.03 1.32 -5.59 -4.36 24.56 3.68 -0.46 0.02 8267
-0.01 1.25 -4.05 -2.34 23.61 3.30 -0.31 -0.44 8273
-0.01 1.25 3.33 -2.48 27.09 1.80 -1.65 -0.68 8280
-0.01 1.29 4.26 -3.30 11.20 0.35 -0.97 -0.22 8286
-0.02 1.29 1.86 -2.19 11.00 0.17 -0.54 0.05 8293
-0.02 1.26 0.82 -0.93 9.97 0.17 -0.43 0.16 8299
0.00 1.28 0.03 -0.23 10.92 0.12 -0.30 0.13 8305
-0.01 1.32 0.13 -0.49 10.30 0.03 -0.16 0.06 8311
-0.02 1.29 0.57 -0.91 10.08 -0.01 -0.10 0.03 8317
-0.00 1.29 0.88 -1.05 10.16 -0.02 -0.10 0.04 8325
-0.02 1.29 0.66 -0.65 9.98 -0.01 -0.10 0.05 8331
-0.03 1.30 0.47 -0.54 10.12 0.00 -0.08 0.04 8337
-0.00 1.25 0.61 -0.60 9.99 -0.01 -0.07 0.03 8343
0.00 1.25 0.75 -0.66 9.99 -0.01 -0.07 0.03 8349
0.04 1.21 0.66 -0.54 9.98 -0.00 -0.07 0.03 8355
0.02 1.16 0.59 -0.47 9.96 0.00 -0.06 0.03 8363
0.03 1.11 0.69 -0.51 9.98 0.01 -0.05 0.03 8369
0.03 1.05 0.60 -0.49 10.11 0.01 -0.03 0.02 8375
0.04 0.93 2.42 -0.75 12.36 0.02 -0.03 0.03 8381
0.09 0.88 0.62 -0.57 10.10 0.02 -0.03 0.04 8387
0.07 0.85 0.60 -0.53 10.06 0.02 -0.03 0.04 8393
0.07 0.73 0.63 -0.55 10.03 0.03 -0.04 0.04 8400
0.10 0.65 0.61 -0.57 9.95 0.03 -0.03 0.04 8407
0.07 0.58 0.59 -0.57 10.05 0.03 -0.03 0.04 8413
0.06 0.49 0.64 -0.60 10.06 0.04 -0.02 0.04 8419
0.09 0.46 0.66 -0.51 10.09 0.05 -0.02 0.04 8425
0.11 0.42 0.70 -0.61 10.10 0.06 -0.02 0.04 8431
0.11 0.39 0.72 -0.58 10.05 0.06 -0.02 0.03 8438
0.14 0.32 0.72 -0.60 9.93 0.06 -0.02 0.03 8444
0.15 0.23 0.72 -0.61 10.01 0.06 -0.03 0.02 8451
0.14 0.18 0.66 -0.55 10.04 0.06 -0.04 0.02 8457
0.15 0.15 0.73 -0.60 10.00 0.06 -0.04 0.01 8463
0.19 0.10 0.65 -0.60 9.96 0.05 -0.05 0.01 8469
0.21 0.09 0.65 -0.60 10.08 0.04 -0.05 0.00 8476
0.28 0.07 0.64 -0.64 10.06 0.05 -0.05 -0.00 8482
0.34 0.02 0.62 -0.24 10.17 0.06 -0.05 -0.00 8488
0.35 -0.01 0.76 -0.58 10.07 0.07 -0.04 0.00 8495
0.37 0.02 0.62 -0.29 10.04 0.08 -0.05 0.00 8501
0.39 -0.01 0.57 -0.57 10.12 0.09 -0.05 0.01 8508
0.39 -0.03 0.63 -0.67 9.97 0.11 -0.05 0.01 8514
0.40 -0.03 0.67 -0.68 10.06 0.13 -0.06 0.01 8520
0.43 -0.03 0.65 -0.70 10.13 0.15 -0.07 -0.00 8526
0.45 -0.05 0.76 -0.76 10.10 0.17 -0.08 -0.01 8532
0.52 -0.05 0.91 -1.07 10.00 0.19 -0.10 -0.02 8539
0.53 -0.04 0.17 -0.82 10.25 0.21 -0.09 -0.04 8546
0.53 -0.05 0.86 -0.81 10.09 0.23 -0.11 -0.05 8552
0.59 -0.04 0.67 -0.80 10.30 0.24 -0.12 -0.06 8558
0.61 -0.05 0.76 -0.89 10.14 0.27 -0.12 -0.07 8564
0.63 -0.05 0.64 -0.92 10.16 0.31 -0.14 -0.07 8570
0.69 -0.04 0.59 -0.80 10.24 0.33 -0.14 -0.08 8578
0.76 -0.05 0.66 -0.97 10.19 0.35 -0.14 -0.08 8584
0.76 -0.05 0.57 -0.96 10.06 0.38 -0.15 -0.09 8590
0.81 -0.04 0.64 -1.01 10.00 0.40 -0.15 -0.09 8596
0.83 -0.05 0.57 -1.07 10.12 0.42 -0.15 -0.08 8602
0.86 -0.04 0.57 -1.12 10.11 0.44 -0.15 -0.08 8609
0.90 -0.05 0.58 -1.18 10.22 0.46 -0.15 -0.07 8615
0.94 -0.05 0.61 -1.19 10.13 0.46 -0.15 -0.08 8622
0.97 -0.04 0.61 -1.20 10.08 0.48 -0.15 -0.07 8628
1.03 -0.05 0.52 -1.25 10.20 0.49 -0.14 -0.08 8635
1.06 -0.06 0.47 -1.21 10.11 0.50 -0.12 -0.08 8641
1.10 -0.04 0.43 -1.29 10.10 0.51 -0.10 -0.06 8647
1.13 -0.05 0.49 -1.32 10.09 0.51 -0.09 -0.05 8653
1.18 -0.05 0.29 -1.36 10.12 0.52 -0.08 -0.03 8659
1.20 -0.05 0.38 -1.38 10.33 0.55 -0.08 -0.02 8667
1.25 -0.06 0.53 -1.48 10.51 0.58 -0.09 -0.00 8673
1.28 -0.06 0.57 -1.57 10.55 0.64 -0.09 0.01 8679
1.32 -0.06 0.51 -1.60 10.78 0.70 -0.10 0.01 8685
1.34 -0.07 0.62 -1.66 10.93 0.77 -0.11 0.01 8691
1.39 -0.06 0.54 -1.71 10.57 0.86 -0.13 0.01 8698
1.42 -0.06 0.70 -1.80 11.28 0.97 -0.15 -0.00 8705
1.47 -0.07 0.77 -1.88 11.46 1.07 -0.16 -0.02 8711
1.50 -0.06 0.74 -1.81 11.30 1.19 -0.18 -0.04 8717
1.53 -0.06 0.78 -1.96 11.54 1.29 -0.21 -0.05 8724
1.60 -0.08 0.79 -2.08 11.82 1.42 -0.24 -0.08 8730
1.59 -0.05 0.38 -2.37 12.01 1.61 -0.25 -0.08 8736
1.63 -0.07 0.61 -2.13 12.34 1.75 -0.31 -0.08 8742
1.67 -0.07 0.48 -2.34 12.19 1.91 -0.33 -0.08 8749
1.72 -0.06 0.43 -2.37 12.29 2.06 -0.35 -0.08 8756
1.72 -0.07 0.28 -2.44 12.52 2.23 -0.35 -0.08 8762
1.72 -0.07 0.39 -2.56 12.77 2.43 -0.37 -0.08 8768
1.73 -0.07 0.44 -2.76 13.07 2.65 -0.37 -0.09 8774
1.72 -0.07 0.55 -2.83 13.30 2.86 -0.36 -0.10 8781
1.66 -0.05 0.76 -3.01 13.55 3.13 -0.35 -0.13 8787
1.66 -0.07 0.86 -3.23 13.92 3.41 -0.34 -0.18 8794
1.60 -0.06 0.61 -3.17 14.98 3.74 -0.34 -0.23 8800
1.49 -0.07 1.17 -3.21 15.90 4.10 -0.35 -0.26 8807
1.39 -0.07 1.38 -3.88 16.51 4.28 -0.37 -0.31 8813
1.26 -0.03 1.93 -4.47 17.77 4.28 -0.45 -0.41 8819
1.06 -0.04 3.08 -5.31 19.05 4.28 -0.54 -0.57 8825
0.96 -0.05 2.86 -6.60 21.57 4.28 -0.71 -0.72 8832
0.82 -0.03 2.70 -9.57 24.20 4.28 -0.94 -0.83 8839
0.66 -0.03 2.17 -12.54 29.37 4.28 -0.93 -0.87 8845
0.57 -0.02 2.18 -15.90 31.85 4.28 -0.70 -0.83 8851
0.51 -0.03 2.89 -15.79 31.09 4.28 -0.36 -0.78 8858
0.37 -0.03 2.56 -13.18 28.74 4.28 -0.05 -0.80 8864
0.30 -0.02 1.95 -10.10 28.58 4.28 0.18 -0.84 8870
0.20 -0.02 0.81 -6.45 28.68 4.28 0.21 -0.87 8877
0.15 -0.01 0.64 -4.47 30.12 4.28 -0.01 -0.95 8883
0.14 -0.01 2.00 -2.25 29.66 4.28 -0.55 -1.06 8890
0.11 -0.01 5.21 0.94 29.40 4.28 -1.08 -1.15 8896
0.09 -0.01 7.95 4.50 28.39 4.28 -1.34 -1.19 8902
0.07 -0.01 9.39 7.87 28.72 4.28 -1.20 -1.20 8908
0.04 -0.00 11.91 15.13 23.65 4.28 -0.60 -1.22 8914
0.06 -0.01 11.87 18.85 17.04 4.27 0.18 -1.53 8922
0.05 -0.00 10.83 24.57 -3.09 3.27 0.63 -2.18 8928
0.04 -0.00 7.50 23.61 9.75 1.80 0.61 -2.64 8934
0.05 -0.01 7.39 17.84 29.91 0.21 1.37 -2.56 8940
0.04 -0.00 6.46 15.72 29.55 -1.73 1.77 -2.25 8947
0.04 -0.00 3.35 15.03 18.29 -2.97 1.67 -1.94 8953
0.05 -0.01 0.81 13.28 12.46 -3.51 1.24 -1.62 8960
0.04 -0.00 1.79 10.87 10.45 -3.93 0.92 -1.30 8966
0.04 0.00 2.17 8.97 8.44 -4.15 0.65 -1.05 8972
0.03 -0.00 2.84 7.75 6.99 -4.18 0.43 -0.88 8978
0.03 -0.00 3.06 6.43 6.70 -4.14 0.34 -0.78 8985
0.03 -0.00 3.08 5.44 6.66 -4.12 0.39 -0.64 8991
0.04 0.01 3.31 4.70 6.83 -4.11 0.57 -0.50 8997
0.04 -0.00 3.63 4.17 7.13 -4.11 0.79 -0.36 9004
0.04 -0.00 3.79 3.71 7.58 -4.12 0.98 -0.25 9010
0.04 -0.00 3.75 3.43 8.22 -4.17 1.09 -0.16 9016
0.05 -0.00 3.50 3.28 8.94 -4.22 1.17 -0.10 9022
0.05 -0.00 3.16 3.07 9.41 -4.26 1.20 -0.01 9028
0.04 -0.00 2.85 2.74 9.83 -4.28 1.24 0.10 9034
0.04 -0.00 2.51 2.25 10.28 -4.28 1.29 0.22 9041
0.06 -0.01 2.32 1.54 10.78 -4.28 1.32 0.35 9048
0.04 -0.00 2.17 0.96 11.25 -4.28 1.31 0.47 9054
0.03 -0.00 2.08 0.34 11.79 -4.28 1.31 0.56 9060
0.05 0.00 2.05 -0.29 12.41 -4.28 1.31 0.63 9066
0.05 -0.00 2.13 -0.92 12.76 -4.28 1.34 0.66 9072
0.04 -0.00 2.18 -1.65 13.12 -4.28 1.38 0.66 9079
0.05 0.00 2.22 -2.41 13.65 -4.28 1.47 0.62 9085
0.06 -0.01 2.29 -3.24 14.42 -4.28 1.59 0.55 9092
0.04 -0.00 2.15 -4.05 15.26 -4.28 1.74 0.44 9098
0.05 -0.00 1.73 -5.02 16.30 -4.28 1.90 0.32 9104
0.05 -0.00 1.26 -5.99 16.88 -4.27 2.07 0.20 9110
0.05 -0.00 0.77 -6.25 17.16 -4.23 2.17 0.13 9117
0.04 -0.00 1.18 -6.71 17.46 -4.19 2.18 0.06 9123
0.06 -0.01 0.14 -7.14 17.72 -4.13 2.13 0.03 9129
0.05 -0.01 -0.24 -7.41 18.03 -4.05 2.05 0.03 9136
0.04 -0.00 -0.51 -7.59 18.28 -3.92 1.94 0.07 9142
0.06 -0.01 -0.47 -7.70 18.75 -3.77 1.81 0.14 9148
0.04 -0.00 -0.02 -7.75 19.32 -3.64 1.69 0.23 9155
0.04 -0.00 0.37 -7.47 19.86 -3.52 1.59 0.33 9161
0.05 0.00 0.69 -7.29 20.48 -3.43 1.56 0.44 9167
0.05 -0.00 1.04 -7.42 21.50 -3.39 1.57 0.55 9174
0.04 -0.00 1.38 -8.00 22.56 -3.38 1.65 0.66 9180
0.04 0.01 1.51 -8.76 23.08 -3.40 1.74 0.75 9186
0.05 -0.00 1.48 -9.69 23.74 -3.45 1.86 0.84 9193
0.04 -0.00 1.43 -10.59 24.09 -3.51 1.95 0.91 9199
0.04 0.00 1.18 -11.72 24.20 -3.58 1.98 0.97 9205
0.05 -0.00 0.84 -12.86 23.84 -3.66 1.96 1.02 9211
0.04 -0.00 0.65 -13.90 23.09 -3.72 1.94 1.05 9218
0.05 -0.01 0.38 -14.82 21.54 -3.72 1.93 1.08 9225
0.04 -0.00 -0.00 -15.76 19.84 -3.66 2.00 1.15 9231
0.04 -0.00 -0.57 -17.08 18.27 -3.53 2.12 1.26 9237
0.06 -0.01 -1.39 -18.48 16.42 -3.33 2.20 1.38 9243
0.04 -0.00 -2.66 -19.68 14.39 -3.07 2.29 1.51 9250
0.05 -0.00 -3.95 -21.36 13.04 -2.76 2.43 1.65 9256
0.05 -0.00 -4.90 -23.68 11.87 -2.46 2.39 1.73 9263
0.04 -0.00 -6.17 -25.80 10.47 -2.19 2.09 1.70 9269
0.04 0.00 -7.26 -27.78 7.83 -1.93 1.72 1.58 9275
0.04 -0.00 -7.84 -29.84 5.03 -1.70 1.42 1.37 9282
0.04 -0.00 -7.96 -31.57 2.70 -1.41 1.22 1.12 9288
0.05 0.00 -8.27 -32.25 1.66 -1.01 1.08 0.84 9294
0.05 -0.00 -8.55 -31.34 1.63 -0.52 0.98 0.55 9300
0.04 -0.00 -8.50 -28.98 2.66 0.04 0.75 0.25 9307
0.03 0.00 -8.10 -26.66 4.67 0.53 0.40 0.00 9313
0.04 -0.00 -7.14 -23.14 6.38 0.88 -0.01 -0.23 9320
0.04 -0.00 -5.83 -19.73 8.80 1.06 -0.42 -0.37 9326
0.04 -0.00 -5.13 -18.13 9.44 1.12 -0.78 -0.39 9332
0.04 -0.00 -26.88 -26.32 53.73 3.64 -4.03 0.30 9338
0.04 -0.00 -8.62 -11.69 15.41 3.14 -3.68 0.80 9345
0.03 0.07 2.07 -3.90 -5.08 2.74 -4.17 0.86 9352
0.04 0.11 6.59 -1.07 -2.13 2.43 -4.27 0.91 9358
0.02 0.27 7.08 3.68 15.74 2.85 -2.73 1.50 9364
0.01 0.55 4.71 7.82 10.98 3.34 -0.54 2.29 9370
0.00 0.76 -6.43 0.46 15.07 4.06 -0.40 2.42 9376
0.00 1.05 -15.34 -7.13 27.93 4.28 -0.97 1.90 9383
-0.00 1.30 -13.33 -7.55 25.19 4.28 -1.24 1.12 9390
-0.01 1.47 -9.14 -5.87 25.15 4.28 -0.74 0.47 9396
-0.02 1.56 -8.45 -3.65 27.93 4.23 -0.37 -0.17 9402
-0.03 1.61 -1.99 -2.87 23.43 3.53 -0.54 -0.82 9409
-0.03 1.56 6.26 -3.53 22.92 3.09 -0.66 -0.93 9415
-0.02 1.56 6.31 -2.62 20.55 2.01 -1.68 -0.47 9421
-0.02 1.48 4.06 -2.60 11.61 0.91 -1.39 0.07 9427
-0.01 1.53 0.79 -1.37 11.95 0.52 -0.90 0.24 9435
-0.02 1.45 -0.60 -0.72 11.09 0.27 -0.51 0.23 9441
-0.03 1.41 -0.69 -0.62 10.67 0.11 -0.25 0.05 9447
-0.02 1.37 0.51 -1.08 10.22 0.03 -0.13 0.02 9453
-0.02 1.32 1.21 -1.42 10.05 0.01 -0.11 0.05 9460
-0.03 1.33 0.84 -1.10 10.10 -0.00 -0.10 0.06 9466
0.01 1.32 0.55 -0.87 10.10 -0.02 -0.10 0.04 9473
0.00 1.33 0.58 -0.88 10.08 -0.02 -0.09 0.02 9479
-0.01 1.31 0.89 -0.86 9.70 -0.02 -0.08 0.02 9485
0.02 1.26 0.79 -0.76 9.95 -0.02 -0.08 0.03 9491
0.02 1.23 0.65 -0.78 10.06 -0.02 -0.07 0.03 9498
0.03 1.15 0.65 -0.79 10.11 -0.01 -0.07 0.03 9504
0.06 1.12 0.74 -0.79 10.12 -0.01 -0.07 0.02 9510
0.05 1.02 1.87 -0.50 11.45 0.00 -0.06 0.02 9517
0.04 0.91 0.71 -0.76 10.10 0.01 -0.04 0.03 9523
0.10 0.88 0.68 -0.81 10.06 0.02 -0.04 0.03 9530
0.10 0.78 0.70 -0.82 10.04 0.03 -0.04 0.04 9536
0.10 0.69 0.68 -0.82 9.97 0.03 -0.04 0.04 9542
0.10 0.67 0.68 -0.81 9.96 0.03 -0.04 0.04 9548
0.13 0.61 0.68 -0.81 10.04 0.03 -0.04 0.04 9554
0.13 0.48 0.70 -0.80 9.99 0.04 -0.03 0.04 9561
0.16 0.43 0.67 -0.83 10.04 0.04 -0.03 0.04 9568
0.16 0.37 0.73 -0.85 10.04 0.05 -0.03 0.03 9574
0.15 0.29 0.77 -1.06 9.98 0.05 -0.02 0.03 9580
0.16 0.27 0.80 -0.83 10.04 0.05 -0.02 0.03 9586
0.19 0.26 0.74 -0.91 9.99 0.05 -0.03 0.02 9592
0.20 0.20 0.75 -0.87 9.91 0.05 -0.03 0.01 9598
0.21 0.16 0.78 -0.91 9.96 0.04 -0.03 0.01 9605
0.24 0.15 0.76 -1.11 10.09 0.04 -0.03 0.01 9612
0.25 0.08 0.74 -0.87 9.95 0.03 -0.04 0.01 9618
0.26 0.06 0.65 -0.88 9.97 0.04 -0.03 0.01 9624
0.28 0.06 0.66 -0.87 9.98 0.04 -0.03 0.02 9630
0.29 0.05 0.73 -0.90 9.99 0.05 -0.03 0.02 9636
0.33 -0.02 0.71 -0.87 10.05 0.06 -0.03 0.02 9643
0.34 0.04 0.88 -0.70 10.00 0.07 -0.02 0.03 9650
0.38 0.00 0.74 -0.91 10.00 0.08 -0.02 0.03 9656
0.38 -0.02 0.70 -1.03 9.96 0.10 -0.03 0.02 9662
0.41 -0.02 0.77 -1.04 9.97 0.11 -0.03 0.02 9668
0.46 -0.03 0.82 -1.02 10.06 0.11 -0.03 0.02 9674
0.48 -0.03 0.78 -1.03 10.03 0.12 -0.04 0.01 9680
0.50 -0.03 0.76 -1.00 10.05 0.16 -0.05 0.00 9688
0.56 -0.04 0.78 -1.05 9.97 0.14 -0.05 -0.01 9694
0.58 -0.04 0.80 -1.03 10.04 0.15 -0.05 -0.02 9700
0.59 -0.04 0.75 -1.06 9.98 0.17 -0.05 -0.02 9706
0.62 -0.04 0.76 -1.08 10.04 0.18 -0.04 -0.03 9712
0.66 -0.05 0.72 -1.11 10.03 0.20 -0.03 -0.04 9718
0.69 -0.04 0.80 -1.11 9.96 0.22 -0.03 -0.04 9725
0.73 -0.04 0.82 -1.10 10.09 0.26 -0.03 -0.04 9732
0.73 -0.05 0.76 -1.15 10.17 0.29 -0.02 -0.05 9738
0.79 -0.05 0.83 -1.20 10.12 0.34 -0.03 -0.06 9744
0.86 -0.05 0.84 -1.22 10.12 0.38 -0.03 -0.06 9750
0.92 -0.05 0.81 -1.23 10.26 0.43 -0.04 -0.07 9757
0.95 -0.05 0.78 -1.32 10.34 0.49 -0.05 -0.07 9763
1.00 -0.05 0.77 -1.30 10.31 0.54 -0.05 -0.07 9769
1.04 -0.06 0.79 -1.40 10.29 0.63 -0.06 -0.07 9776
1.10 -0.05 0.79 -1.50 10.59 0.68 -0.08 -0.07 9782
1.13 -0.05 0.80 -1.58 10.64 0.74 -0.09 -0.06 9789
1.17 -0.06 0.76 -1.60 10.88 0.82 -0.10 -0.06 9795
1.27 -0.05 0.77 -1.64 10.89 0.89 -0.11 -0.06 9801
1.36 -0.05 0.88 -1.71 10.91 0.97 -0.12 -0.06 9807
1.39 -0.06 0.90 -1.73 11.41 1.07 -0.13 -0.08 9815
1.43 -0.07 1.03 -1.77 11.37 1.16 -0.15 -0.09 9821
1.47 -0.07 1.04 -1.97 11.57 1.26 -0.18 -0.11 9827
1.50 -0.06 1.19 -2.10 11.77 1.38 -0.23 -0.12 9833
1.62 -0.07 0.96 -1.97 12.07 1.52 -0.26 -0.14 9839
1.65 -0.07 0.81 -2.17 12.25 1.67 -0.31 -0.14 9846
1.68 -0.07 0.61 -2.14 12.11 1.82 -0.35 -0.13 9852
1.69 -0.07 0.75 -2.26 12.66 1.97 -0.40 -0.12 9859
1.72 -0.08 1.00 -1.17 12.95 2.08 -0.39 -0.15 9865
1.76 -0.06 0.53 -2.91 13.34 2.28 -0.40 -0.13 9872
1.74 -0.08 0.59 -2.69 13.26 2.49 -0.39 -0.10 9878
1.72 -0.06 0.47 -2.79 13.18 2.72 -0.37 -0.10 9884
1.69 -0.08 0.76 -2.94 13.61 2.98 -0.34 -0.11 9890
1.69 -0.07 0.94 -2.97 13.98 3.27 -0.31 -0.13 9897
1.65 -0.06 1.65 -2.50 14.37 3.56 -0.26 -0.17 9904
1.55 -0.07 0.75 -2.92 15.07 3.91 -0.20 -0.19 9910
1.48 -0.06 0.21 -3.88 16.37 4.20 -0.19 -0.22 9916
1.34 -0.05 0.61 -3.59 18.11 4.28 -0.25 -0.22 9923
1.17 -0.04 2.70 -4.52 18.99 4.28 -0.36 -0.31 9929
1.00 -0.00 2.65 -5.63 20.38 4.28 -0.53 -0.46 9935
0.88 -0.02 4.77 -6.01 23.73 4.28 -0.81 -0.63 9942
0.72 -0.03 2.98 -9.81 25.59 4.28 -1.05 -0.72 9948
0.65 -0.03 3.11 -13.20 30.60 4.28 -1.09 -0.80 9955
0.55 -0.04 3.06 -15.70 33.86 4.28 -0.93 -0.81 9961
0.47 -0.01 3.65 -13.34 31.76 4.28 -0.69 -0.82 9967
0.34 -0.02 2.97 -12.76 29.51 4.28 -0.41 -0.86 9974
0.35 -0.02 1.65 -8.94 28.16 4.28 -0.21 -0.90 9980
0.19 -0.02 0.68 -5.85 29.57 4.28 -0.20 -0.91 9987
0.15 -0.01 1.78 -4.00 30.94 4.28 -0.51 -0.95 9993
0.10 -0.01 5.52 -1.54 30.01 4.28 -0.88 -1.02 9999
0.11 -0.01 7.86 3.02 29.35 4.28 -1.16 -1.06 10006
0.06 -0.01 9.70 6.16 29.32 4.28 -1.17 -1.08 10012
0.07 -0.01 10.04 8.99 26.71 4.28 -0.81 -1.09 10018
0.05 -0.01 11.48 15.54 22.11 4.28 0.01 -1.30 10024
0.04 -0.00 8.21 18.83 11.83 4.27 0.96 -1.86 10032
0.06 -0.01 9.29 22.58 -2.70 3.63 1.10 -2.49 10038
0.04 -0.00 6.46 22.29 20.75 1.82 1.17 -2.81 10044
0.06 -0.00 6.09 18.59 32.33 -0.34 1.81 -2.72 10050
0.05 -0.01 4.98 15.78 26.25 -2.03 1.96 -2.45 10057
0.04 -0.00 2.09 14.07 18.30 -3.04 1.59 -2.21 10063
0.06 -0.01 1.00 12.63 14.64 -3.65 1.08 -1.85 10070
0.04 -0.00 1.82 10.57 12.58 -4.11 0.76 -1.48 10076
0.06 -0.01 3.01 8.83 10.08 -4.23 0.55 -1.19 10083
0.05 -0.01 3.68 7.47 8.36 -4.25 0.41 -0.98 10089
0.04 -0.00 3.73 6.35 7.63 -4.25 0.43 -0.80 10095
0.05 -0.01 3.59 5.41 7.10 -4.22 0.61 -0.61 10101
0.05 -0.00 3.76 4.56 7.05 -4.18 0.88 -0.45 10107
0.06 -0.01 3.92 3.97 6.96 -4.14 1.15 -0.32 10114
0.06 -0.01 3.67 3.53 7.01 -4.11 1.39 -0.22 10121
0.05 -0.01 3.22 3.39 7.42 -4.10 1.54 -0.13 10127
0.05 -0.01 2.70 3.37 8.08 -4.12 1.68 -0.03 10133
0.05 -0.00 2.16 3.25 9.04 -4.14 1.79 0.09 10139
0.07 -0.01 1.56 3.14 10.40 -4.18 1.87 0.18 10145
0.05 -0.01 0.96 2.84 10.57 -4.21 1.92 0.32 10151
0.04 -0.00 0.52 2.50 11.47 -4.24 1.96 0.45 10159
0.06 -0.01 0.14 2.14 12.43 -4.27 1.95 0.57 10165
0.05 -0.01 -0.18 1.77 13.51 -4.28 1.93 0.67 10171
0.04 -0.00 -0.28 1.31 14.47 -4.28 1.91 0.74 10177
0.04 -0.00 -0.45 0.75 15.16 -4.28 1.92 0.78 10183
0.03 -0.00 -0.55 0.13 15.99 -4.28 1.94 0.79 10190
0.04 -0.00 -0.64 -0.63 16.60 -4.28 1.98 0.76 10196
0.04 -0.00 -0.71 -1.67 17.34 -4.28 2.06 0.68 10203
0.03 -0.00 -1.00 -2.77 17.99 -4.28 2.16 0.58 10209
0.04 0.00 -1.47 -3.96 18.35 -4.28 2.24 0.46 10215
0.03 -0.00 -1.97 -4.94 18.44 -4.28 2.34 0.34 10222
0.03 -0.00 -2.41 -5.65 18.46 -4.28 2.40 0.24 10228
0.05 -0.00 -2.73 -5.87 18.48 -4.28 2.40 0.15 10234
0.04 -0.00 -3.20 -5.86 18.50 -4.28 2.37 0.12 10241
0.04 -0.00 -3.17 -6.14 18.31 -4.27 2.29 0.12 10248
0.05 -0.00 -3.24 -6.37 18.12 -4.19 2.19 0.16 10254
0.04 -0.00 -3.42 -6.56 18.41 -4.02 2.01 0.22 10260
0.04 0.00 -3.63 -6.81 19.12 -3.74 1.79 0.30 10266
0.04 -0.00 -3.50 -7.13 20.02 -3.46 1.55 0.38 10272
0.03 -0.00 -3.30 -7.62 21.65 -3.25 1.31 0.45 10279
0.04 -0.00 -3.09 -8.05 23.56 -3.13 1.08 0.51 10286
0.03 -0.00 -2.86 -8.61 25.16 -3.12 0.88 0.56 10292
0.04 -0.00 -2.27 -9.32 26.02 -3.23 0.75 0.59 10298
0.04 -0.00 -1.36 -10.10 25.90 -3.42 0.69 0.60 10305
0.04 -0.00 -0.70 -11.31 25.03 -3.61 0.74 0.60 10311
0.03 0.01 -0.14 -12.65 23.63 -3.75 0.86 0.60 10317
0.04 -0.00 -0.04 -14.27 22.11 -3.80 1.00 0.60 10323
0.03 -0.00 -0.19 -15.87 20.71 -3.76 1.12 0.63 10331
0.04 -0.00 -0.87 -17.45 19.31 -3.64 1.26 0.70 10337
0.04 -0.00 -1.80 -18.88 18.55 -3.48 1.45 0.81 10343
0.04 -0.00 -2.68 -20.70 17.36 -3.30 1.61 0.95 10349
0.04 -0.00 -3.63 -23.05 16.36 -3.14 1.64 1.08 10356
0.03 -0.00 -4.76 -25.74 14.84 -2.96 1.55 1.20 10362
0.04 -0.00 -5.56 -28.39 12.79 -2.77 1.41 1.34 10369
0.03 -0.00 -6.22 -30.58 9.90 -2.57 1.20 1.46 10375
0.05 -0.00 -6.83 -32.73 6.84 -2.35 0.98 1.53 10382
0.04 -0.00 -7.31 -34.79 3.76 -2.13 0.80 1.54 10388
0.04 -0.00 -7.65 -36.36 1.61 -1.79 0.67 1.49 10394
0.05 -0.01 -7.76 -36.59 0.31 -1.32 0.56 1.37 10400
0.04 -0.00 -8.56 -35.16 0.08 -0.76 0.36 1.20 10406
0.03 -0.00 -7.79 -32.49 1.43 -0.18 0.17 0.97 10414
0.04 -0.00 -7.30 -58.38 12.00 0.59 -0.44 0.72 10420
0.03 -0.00 -3.39 -29.21 -6.13 3.07 -0.52 0.54 10426
0.03 0.00 -6.11 -21.96 -6.82 3.23 -0.70 0.29 10432
0.04 0.05 -4.61 -22.80 -2.70 3.24 -1.71 0.06 10439
0.01 0.15 -3.67 -0.92 3.06 3.07 -3.18 -0.16 10445
0.03 0.30 -0.75 5.37 18.12 3.27 -3.06 -0.19 10451
0.01 0.51 6.71 10.08 22.35 3.62 -1.84 0.12 10458
0.01 0.86 2.88 -3.54 21.67 3.79 -1.42 0.32 10465
0.00 1.11 -3.73 -7.10 28.57 4.12 -1.58 0.28 10471
-0.01 1.28 -4.35 -6.13 22.19 4.14 -1.58 0.09 10477
-0.01 1.43 0.17 -4.13 24.02 4.13 -0.96 0.09 10483
-0.04 1.46 -2.98 -2.45 21.53 3.75 -0.53 0.02 10490
-0.03 1.56 -3.34 -1.75 18.78 3.16 -0.54 -0.38 10497
-0.03 1.56 1.47 -1.61 14.77 2.85 -0.57 -0.57 10503
-0.03 1.52 4.34 -2.13 17.96 2.98 -0.53 -0.45 10510
-0.02 1.51 1.85 -2.08 23.63 2.22 -1.48 -0.25 10516
-0.02 1.45 2.69 -2.41 13.02 0.74 -1.09 0.05 10522
-0.01 1.44 0.34 -1.57 11.60 0.23 -0.43 0.15 10528
-0.03 1.40 -0.25 -0.92 10.88 0.05 -0.13 0.11 10535
-0.01 1.36 0.08 -0.80 10.15 0.01 -0.06 0.03 10542
-0.02 1.34 0.77 -0.88 10.12 -0.00 -0.04 0.01 10548
-0.04 1.33 1.00 -0.98 9.78 -0.02 -0.03 0.04 10554
-0.01 1.35 0.68 -0.86 10.00 -0.02 -0.04 0.05 10561
-0.01 1.32 0.50 -0.72 10.04 -0.02 -0.04 0.04 10567
0.01 1.28 0.62 -0.73 9.99 -0.02 -0.03 0.03 10573
0.00 1.26 0.70 -0.73 9.96 -0.01 -0.02 0.03 10579
0.00 1.21 0.84 -0.70 9.91 -0.00 -0.03 0.05 10586
0.01 1.18 0.69 -0.68 10.04 -0.00 -0.03 0.04 10593
0.01 1.14 0.71 -0.70 10.04 0.00 -0.03 0.03 10599
0.01 1.10 0.71 -0.69 10.08 0.00 -0.03 0.04 10605
0.06 1.08 0.51 -0.63 9.83 0.00 -0.04 0.03 10611
0.04 1.02 0.63 -0.64 10.06 0.01 -0.03 0.03 10618
0.05 0.94 0.68 -0.66 10.02 0.00 -0.02 0.03 10625
0.07 0.86 0.65 -0.69 10.01 0.01 -0.02 0.03 10631
0.06 0.76 0.68 -0.66 10.02 0.02 -0.02 0.03 10637
0.08 0.80 0.74 -0.67 9.97 0.02 -0.01 0.02 10643
0.07 0.72 0.75 -0.67 9.96 0.02 -0.01 0.03 10650
0.08 0.67 0.70 -0.69 9.99 0.03 -0.02 0.03 10656
0.07 0.60 0.67 -0.69 10.00 0.03 -0.01 0.03 10662
0.09 0.52 0.74 -0.65 9.95 0.03 -0.01 0.03 10669
0.09 0.49 0.74 -0.69 9.97 0.03 -0.00 0.02 10675
0.10 0.45 0.73 -0.70 9.93 0.03 0.00 0.02 10681
0.14 0.44 0.78 -0.67 9.97 0.03 0.00 0.02 10688
0.14 0.35 0.72 -0.68 9.95 0.03 0.01 0.02 10694
0.14 0.27 0.76 -0.77 10.03 0.03 0.00 0.01 10700
0.16 0.25 0.82 -0.77 9.95 0.03 0.00 0.01 10706
0.15 0.21 0.75 -0.76 9.91 0.03 0.00 0.01 10713
0.17 0.19 0.77 -0.73 9.99 0.03 0.00 0.01 10720
0.15 0.16 0.74 -0.67 9.82 0.03 -0.00 0.01 10726
0.18 0.12 0.71 -0.71 9.96 0.03 0.00 0.00 10732
0.20 0.13 0.78 -0.75 9.93 0.03 0.00 0.01 10738
0.19 0.10 0.73 -0.75 9.87 0.03 0.00 0.00 10744
0.20 0.08 0.72 -0.78 9.95 0.03 0.00 0.01 10750
0.19 0.10 0.74 -0.78 10.00 0.03 0.00 0.01 10758
0.20 0.05 0.79 -0.76 9.98 0.03 0.00 0.01 10764
0.22 0.06 0.63 -0.62 10.06 0.03 0.00 0.01 10770
0.24 0.05 0.83 -0.81 9.98 0.02 -0.00 0.01 10776
0.25 0.03 0.80 -0.79 9.98 0.02 -0.00 0.01 10782
0.26 0.00 0.82 -0.81 9.98 0.02 -0.01 -0.00 10789
0.26 -0.01 0.72 -0.89 9.84 0.02 -0.02 -0.00 10796
0.28 0.01 0.86 -0.80 9.97 0.02 -0.03 -0.00 10802
0.28 0.01 0.66 -0.77 10.10 0.02 -0.03 -0.00 10808
0.31 -0.01 0.79 -0.80 9.93 0.02 -0.03 -0.01 10814
0.35 -0.01 0.79 -1.12 10.01 0.02 -0.04 -0.01 10821
0.38 -0.03 0.82 -0.82 9.89 0.02 -0.04 -0.01 10827
0.42 -0.02 0.78 -0.84 10.01 0.03 -0.04 -0.02 10833
0.46 -0.01 0.82 -0.83 9.98 0.03 -0.04 -0.02 10840
0.46 -0.03 0.78 -0.78 10.10 0.04 -0.04 -0.02 10846
0.51 -0.02 0.85 -0.80 10.11 0.05 -0.04 -0.02 10853
0.55 -0.04 0.76 -0.89 10.05 0.06 -0.03 -0.02 10859
0.58 -0.03 0.75 -0.82 10.06 0.08 -0.02 -0.02 10865
0.62 -0.05 0.79 -0.87 10.06 0.10 -0.01 -0.02 10871
0.68 -0.04 0.83 -0.91 10.13 0.14 0.00 -0.03 10878
0.72 -0.03 1.05 -1.12 10.09 0.17 0.01 -0.03 10885
0.75 -0.05 0.83 -0.93 10.18 0.21 0.03 -0.04 10891
0.79 -0.04 0.90 -0.98 10.21 0.27 0.05 -0.05 10897
0.88 -0.05 0.86 -1.03 10.47 0.37 0.07 -0.05 10904
0.93 -0.06 0.96 -1.01 10.54 0.50 0.11 -0.06 10910
0.99 -0.04 1.18 -1.25 11.13 0.71 0.15 -0.09 10916
1.05 -0.06 1.17 -1.06 11.53 0.97 0.19 -0.11 10923
1.13 -0.05 1.22 -1.27 11.71 1.26 0.16 -0.14 10930
1.18 -0.05 1.20 -1.43 12.31 1.50 0.09 -0.15 10936
1.25 -0.06 1.05 -1.49 12.51 1.68 0.00 -0.16 10942
1.32 -0.05 1.12 -1.53 12.56 1.81 -0.13 -0.15 10948
1.36 -0.06 0.83 -1.58 12.44 1.93 -0.25 -0.14 10955
1.37 -0.05 0.51 -0.56 12.21 2.03 -0.32 -0.12 10961
1.42 -0.05 0.76 -1.67 12.55 2.18 -0.30 -0.09 10968
1.45 -0.05 0.79 -1.69 12.85 2.36 -0.32 -0.08 10975
1.50 -0.06 1.05 -2.08 12.99 2.50 -0.30 -0.07 10981
1.49 -0.06 0.91 -2.18 13.06 2.68 -0.28 -0.08 10987
1.48 -0.05 1.04 -2.55 13.06 2.88 -0.26 -0.09 10993
1.50 -0.06 1.01 -2.42 13.49 3.12 -0.20 -0.10 11000
1.46 -0.05 0.95 -2.55 13.91 3.37 -0.15 -0.12 11006
1.40 -0.06 0.86 -2.92 14.68 3.66 -0.10 -0.14 11013
1.28 -0.06 0.52 -2.69 15.31 3.99 -0.03 -0.15 11019
1.14 -0.05 0.80 -3.12 15.99 4.23 -0.01 -0.15 11026
1.04 -0.06 2.28 -3.42 17.22 4.28 -0.02 -0.20 11032
0.88 -0.02 3.01 -3.71 17.64 4.28 -0.14 -0.33 11038
0.73 -0.02 2.73 -5.61 19.22 4.28 -0.36 -0.46 11045
0.68 -0.03 3.21 -6.32 21.49 4.28 -0.64 -0.58 11052
0.64 -0.03 1.98 -12.17 25.03 4.28 -0.81 -0.72 11058
0.58 -0.02 3.69 -11.03 28.41 4.28 -0.85 -0.80 11064
0.51 -0.03 1.58 -18.82 32.26 4.28 -0.82 -0.83 11071
0.41 -0.02 5.10 -14.57 33.01 4.28 -0.52 -0.78 11077
0.33 -0.03 3.56 -12.58 27.61 4.28 -0.25 -0.84 11083
0.22 -0.02 3.87 -10.88 27.37 4.28 -0.01 -0.92 11090
0.18 -0.01 2.32 -7.34 28.24 4.28 0.10 -0.99 11097
0.15 -0.01 2.05 -5.17 30.53 4.28 -0.02 -1.09 11103
0.12 -0.01 3.48 -2.88 29.60 4.28 -0.36 -1.17 11109
0.12 -0.01 6.29 0.71 28.56 4.28 -0.70 -1.25 11116
0.10 -0.01 8.51 4.06 28.75 4.28 -0.81 -1.29 11122
0.06 -0.00 8.91 7.66 27.78 4.28 -0.49 -1.28 11128
0.05 -0.01 11.18 16.12 24.16 4.28 0.19 -1.32 11134
0.04 -0.00 10.31 20.81 16.81 4.28 0.87 -1.54 11142
0.05 -0.01 7.24 22.88 -2.23 3.63 1.22 -2.07 11148
0.05 -0.00 5.56 21.81 8.19 2.47 0.88 -2.42 11154
0.05 -0.01 6.05 16.46 26.79 0.72 1.09 -2.32 11160
0.05 -0.01 5.66 15.67 29.98 -1.12 1.31 -2.03 11167
0.05 -0.00 3.42 16.13 21.20 -2.37 1.16 -1.71 11173
0.05 -0.01 1.10 14.46 14.58 -3.11 0.68 -1.32 11180
0.04 -0.00 1.18 11.99 11.94 -3.69 0.35 -0.89 11186
0.05 -0.01 2.70 9.98 11.93 -4.11 0.19 -0.56 11193
0.05 -0.00 3.44 8.57 10.04 -4.22 0.04 -0.38 11199
0.05 -0.00 3.56 7.27 8.78 -4.24 -0.03 -0.30 11205
0.05 -0.00 3.40 6.10 7.93 -4.25 0.01 -0.24 11211
0.04 -0.00 3.33 5.17 7.52 -4.26 0.14 -0.18 11217
0.04 -0.00 3.34 4.28 7.65 -4.26 0.34 -0.14 11224
0.05 0.00 3.47 3.64 8.07 -4.25 0.57 -0.12 11231
0.05 -0.00 3.41 3.11 8.44 -4.26 0.76 -0.11 11237
0.04 -0.00 3.05 2.83 8.88 -4.27 0.91 -0.12 11243
0.04 -0.00 2.49 2.72 9.62 -4.28 1.01 -0.12 11249
0.06 -0.01 1.92 2.51 10.68 -4.28 1.10 -0.11 11255
0.04 -0.00 1.51 2.15 11.55 -4.28 1.19 -0.08 11262
0.04 -0.00 1.29 1.48 12.17 -4.28 1.29 -0.05 11269
0.05 -0.01 1.10 0.68 12.89 -4.28 1.34 -0.02 11275
0.05 -0.00 0.82 -0.17 13.42 -4.28 1.35 -0.01 11281
0.04 -0.00 0.72 -0.98 13.59 -4.28 1.33 -0.00 11287
0.04 -0.00 0.65 -1.72 13.93 -4.28 1.30 -0.01 11294
0.04 -0.00 0.03 -2.38 14.16 -4.28 1.29 -0.01 11300
0.05 -0.00 0.42 -3.04 14.49 -4.28 1.32 -0.01 11307
0.05 -0.01 0.29 -4.24 14.91 -4.28 1.39 0.01 11313
0.03 -0.00 0.22 -4.13 15.21 -4.28 1.48 0.02 11319
0.05 -0.00 0.38 -4.42 15.70 -4.28 1.54 0.03 11326
0.05 -0.00 -0.05 -4.88 16.48 -4.28 1.56 0.05 11332
0.04 -0.00 0.45 -4.85 16.24 -4.28 1.57 0.06 11338
0.05 -0.01 0.50 -4.98 17.04 -4.26 1.57 0.05 11344
0.05 -0.00 0.58 -5.16 17.60 -4.24 1.62 0.09 11351
0.04 -0.00 0.61 -5.30 18.09 -4.21 1.67 0.14 11358
0.06 -0.01 0.48 -5.58 18.56 -4.16 1.72 0.21 11364
0.05 -0.00 0.44 -5.85 19.16 -4.09 1.75 0.29 11370
0.05 -0.00 0.46 -6.22 19.84 -3.99 1.73 0.37 11376
0.06 -0.01 0.38 -6.50 20.66 -3.92 1.68 0.48 11382
0.04 -0.00 0.39 -6.74 21.70 -3.84 1.64 0.59 11389
0.04 -0.00 0.39 -7.14 22.62 -3.80 1.62 0.72 11396
0.05 -0.00 0.29 -7.97 23.36 -3.80 1.57 0.84 11402
0.05 -0.00 0.35 -8.72 23.78 -3.84 1.51 0.98 11408
0.04 -0.00 0.47 -9.87 23.67 -3.89 1.40 1.12 11414
0.04 -0.00 0.71 -11.15 23.33 -3.91 1.24 1.22 11421
0.03 -0.00 0.99 -12.65 22.64 -3.88 1.05 1.34 11427
0.05 -0.00 1.32 -14.33 21.72 -3.78 0.89 1.46 11433
0.04 -0.00 1.81 -15.90 21.17 -3.62 0.80 1.58 11440
0.04 0.00 1.91 -17.97 19.22 -3.43 0.81 1.69 11447
0.04 -0.00 0.97 -19.29 26.59 -3.16 0.97 1.82 11453
0.04 -0.00 1.42 -18.25 16.22 -3.03 1.40 1.95 11459
0.05 -0.00 -0.25 -20.02 16.73 -3.02 1.62 2.00 11465
0.04 -0.00 -1.89 -22.71 17.41 -3.02 1.63 2.02 11472
0.04 0.00 -3.30 -25.26 16.22 -2.96 1.52 2.02 11479
0.04 -0.00 -4.01 -27.59 13.19 -2.83 1.36 1.99 11485
0.04 -0.00 -4.27 -29.76 9.12 -2.63 1.22 1.91 11492
0.05 -0.00 -4.38 -32.21 4.59 -2.36 1.16 1.77 11498
0.04 -0.00 -4.31 -34.92 2.02 -2.03 1.17 1.52 11504
0.04 0.01 -4.83 -36.46 0.98 -1.59 1.21 1.18 11510
0.04 -0.00 -5.48 -36.12 0.30 -1.06 1.26 0.79 11516
0.04 -0.00 -6.33 -34.04 0.73 -0.47 1.22 0.38 11524
0.05 -0.00 -6.90 -31.09 1.53 0.12 0.99 0.02 11530
0.04 -0.00 -19.24 -46.02 52.05 2.32 -0.41 0.01 11536
0.04 -0.00 -7.80 -24.85 -2.35 2.93 -0.63 0.14 11542
0.05 -0.00 -8.21 -20.48 -1.12 3.30 -1.79 0.13 11549
0.03 0.05 -2.92 -23.34 2.05 3.27 -2.80 0.27 11555
0.02 0.19 4.25 -9.62 1.36 3.04 -3.76 0.36 11561
0.03 0.26 6.40 3.95 9.66 3.23 -3.02 0.77 11568
0.00 0.46 10.25 5.29 19.10 3.82 -0.86 1.61 11575
0.01 0.69 5.02 3.66 17.85 4.15 0.24 2.22 11581
0.00 0.88 -8.70 0.09 27.32 4.28 -0.22 2.14 11587
-0.00 1.14 -13.52 -6.45 24.90 4.28 -0.92 1.51 11593
-0.01 1.28 -7.77 -5.86 21.73 4.27 -0.71 0.91 11600
-0.02 1.41 -8.51 -4.09 23.56 4.18 -0.03 0.45 11607
-0.02 1.46 -9.40 -1.89 22.35 3.67 -0.06 -0.31 11613
-0.04 1.47 -1.03 -1.82 18.37 3.20 -0.35 -0.98 11620
-0.02 1.41 6.46 -2.55 18.85 3.11 -0.44 -1.04 11626
-0.02 1.38 6.40 -2.42 25.91 2.06 -1.73 -0.68 11632
-0.00 1.37 4.70 -3.27 12.71 0.85 -1.39 -0.07 11638
-0.01 1.36 0.93 -2.23 12.68 0.42 -0.86 0.17 11645
-0.01 1.35 -0.42 -1.07 11.82 0.17 -0.41 0.17 11652
-0.02 1.32 -0.43 -0.51 10.45 0.05 -0.17 0.06 11658
-0.02 1.38 0.67 -0.97 10.08 -0.00 -0.10 0.00 11664
-0.01 1.39 1.28 -1.30 10.13 -0.02 -0.09 0.03 11671
-0.01 1.33 0.88 -1.02 10.19 -0.02 -0.09 0.06 11677
0.01 1.37 0.41 -0.71 10.15 -0.03 -0.08 0.04 11683
-0.01 1.39 0.56 -0.73 10.05 -0.02 -0.07 0.02 11689
-0.02 1.33 0.81 -0.77 9.94 -0.02 -0.06 0.03 11697
0.00 1.33 0.72 -0.74 10.10 -0.02 -0.05 0.03 11703
-0.03 1.30 0.64 -0.67 10.02 -0.01 -0.05 0.03 11709
-0.02 1.25 0.75 -0.70 10.21 -0.00 -0.04 0.03 11715
0.01 1.20 0.71 -0.70 10.04 0.00 -0.04 0.03 11722
0.03 1.14 0.70 -0.71 10.15 0.00 -0.03 0.03 11728
0.02 1.07 0.67 -0.73 10.01 0.01 -0.03 0.03 11735
0.01 0.98 0.71 -0.74 10.04 0.01 -0.03 0.03 11741
0.02 0.94 0.73 -0.78 10.03 0.02 -0.03 0.03 11748
0.05 0.82 1.51 0.28 10.96 0.03 -0.03 0.03 11754
0.05 0.76 0.65 -0.72 9.93 0.03 -0.03 0.03 11760
0.07 0.70 0.65 -0.73 10.00 0.03 -0.02 0.03 11766
0.09 0.65 0.70 -0.74 10.02 0.03 -0.01 0.04 11772
0.09 0.54 0.67 -0.72 9.98 0.04 -0.01 0.04 11780
0.09 0.49 0.70 -0.78 9.98 0.04 -0.01 0.04 11786
0.09 0.45 0.70 -0.75 9.96 0.04 -0.00 0.03 11792
0.09 0.37 0.74 -0.80 9.89 0.04 -0.00 0.03 11798
0.11 0.31 0.81 -0.82 9.96 0.04 -0.01 0.02 11804
0.13 0.29 0.77 -0.75 9.86 0.03 -0.02 0.02 11810
0.13 0.30 0.80 -0.82 9.96 0.03 -0.03 0.01 11817
0.12 0.26 0.75 -0.79 9.96 0.03 -0.03 0.01 11824
0.14 0.21 0.77 -0.80 9.94 0.03 -0.03 0.00 11830
0.15 0.15 0.73 -0.83 9.98 0.02 -0.04 0.00 11836
0.18 0.10 0.66 -0.80 9.89 0.02 -0.04 0.00 11842
0.18 0.11 0.70 -0.82 9.94 0.02 -0.04 0.01 11849
0.16 0.08 0.69 -0.81 10.00 0.02 -0.04 0.01 11855
0.17 0.11 0.71 -0.77 9.94 0.01 -0.04 0.01 11862
0.18 0.10 0.72 -0.88 10.02 0.02 -0.04 0.01 11868
0.21 0.05 0.74 -0.80 10.01 0.01 -0.04 0.01 11874
0.24 0.06 0.73 -0.84 9.98 0.02 -0.04 0.01 11881
0.24 0.06 0.75 -0.85 9.97 0.01 -0.03 0.01 11887
0.23 0.04 0.74 -0.86 9.95 0.01 -0.04 0.00 11893
0.23 0.05 0.76 -0.83 9.97 0.01 -0.04 0.00 11899
0.25 0.02 0.70 -0.86 9.92 0.00 -0.04 -0.00 11906
0.27 0.00 0.64 -0.55 9.89 0.00 -0.04 -0.00 11912
0.26 0.03 0.73 -0.86 9.97 0.00 -0.04 -0.01 11919
0.30 -0.00 0.74 -0.85 9.97 -0.00 -0.04 -0.01 11925
0.32 -0.00 0.73 -0.88 9.99 0.00 -0.04 -0.01 11931
0.34 0.02 0.82 -1.21 9.95 0.00 -0.04 -0.01 11937
0.37 -0.00 0.75 -0.88 9.94 0.01 -0.04 -0.01 11943
0.37 -0.01 0.71 -0.79 9.98 0.01 -0.04 -0.02 11951
0.40 -0.00 0.80 -0.82 9.86 0.02 -0.04 -0.02 11957
0.43 -0.00 0.72 -0.89 9.92 0.02 -0.04 -0.02 11963
0.47 -0.02 0.77 -0.91 10.02 0.03 -0.04 -0.02 11969
0.50 0.00 0.77 -0.83 10.14 0.04 -0.05 -0.02 11975
0.58 -0.03 0.74 -0.78 10.10 0.06 -0.05 -0.02 11982
0.61 -0.04 0.76 -0.91 10.05 0.08 -0.06 -0.02 11988
0.70 -0.04 0.76 -0.90 10.12 0.11 -0.05 -0.03 11995
0.73 -0.05 0.77 -0.94 10.19 0.14 -0.05 -0.04 12001
0.79 -0.04 0.87 -0.91 10.21 0.18 -0.05 -0.05 12008
0.89 -0.05 0.85 -1.04 10.31 0.24 -0.05 -0.07 12014
1.00 -0.06 0.93 -1.06 10.47 0.35 -0.04 -0.09 12020
1.07 -0.05 0.90 -1.13 10.54 0.48 -0.04 -0.11 12026
1.17 -0.07 1.01 -1.13 11.05 0.70 -0.06 -0.13 12034
1.27 -0.04 0.98 -1.28 11.65 0.97 -0.08 -0.15 12040
1.37 -0.06 0.93 -1.30 12.26 1.30 -0.12 -0.18 12046
1.43 -0.06 1.00 -1.48 12.49 1.55 -0.18 -0.18 12052
1.50 -0.07 0.77 -1.54 12.72 1.74 -0.23 -0.18 12059
1.53 -0.08 0.70 -1.49 13.03 1.93 -0.31 -0.16 12065
1.59 -0.05 0.83 -1.63 13.03 2.08 -0.38 -0.14 12071
1.66 -0.08 0.66 -1.49 12.83 2.21 -0.42 -0.13 12079
1.72 -0.06 0.61 -1.83 12.84 2.40 -0.45 -0.12 12085
1.71 -0.07 0.95 -1.16 11.00 2.59 -0.46 -0.10 12091
1.76 -0.07 1.42 -1.13 13.14 2.68 -0.40 -0.13 12097
1.74 -0.07 0.64 -1.54 13.51 2.97 -0.40 -0.14 12104
1.71 -0.08 1.05 -2.31 13.70 3.20 -0.38 -0.14 12110
1.73 -0.07 0.75 -2.42 13.93 3.46 -0.35 -0.16 12116
1.67 -0.09 0.75 -2.72 14.94 3.76 -0.33 -0.18 12124
1.60 -0.06 0.30 -2.57 15.76 4.08 -0.28 -0.19 12130
1.53 -0.06 0.67 -2.59 16.77 4.27 -0.26 -0.20 12136
1.36 -0.04 2.16 -3.66 17.38 4.28 -0.29 -0.26 12142
1.22 -0.03 2.69 -3.79 17.79 4.28 -0.40 -0.38 12149
1.00 -0.02 1.96 -4.48 18.64 4.28 -0.64 -0.55 12155
0.93 -0.02 2.50 -8.80 21.99 4.28 -0.97 -0.74 12162
0.84 -0.04 3.37 -8.20 25.00 4.28 -1.15 -0.86 12168
0.68 -0.02 2.15 -10.22 29.41 4.28 -1.23 -0.93 12175
0.58 -0.03 1.24 -14.07 32.33 4.28 -1.23 -0.89 12181
0.44 -0.02 3.37 -13.89 33.31 4.28 -1.00 -0.85 12188
0.38 -0.02 2.86 -14.29 30.20 4.28 -0.78 -0.90 12194
0.31 -0.01 2.47 -10.38 29.02 4.28 -0.55 -0.93 12200
0.24 -0.01 2.93 -7.05 30.90 4.28 -0.47 -0.99 12207
0.13 -0.01 2.83 -4.59 30.46 4.28 -0.61 -1.05 12214
0.12 -0.01 4.46 -0.70 29.91 4.28 -0.86 -1.09 12220
0.06 -0.01 6.79 2.09 29.72 4.28 -1.12 -1.13 12226
0.08 -0.01 8.85 6.72 30.25 4.28 -1.24 -1.16 12232
0.07 -0.01 10.14 14.49 24.78 4.28 -0.87 -1.13 12239
0.03 -0.00 12.42 20.64 20.13 4.28 -0.21 -1.24 12246
0.05 -0.01 8.39 25.99 9.95 4.01 0.26 -1.59 12252
0.04 -0.00 9.30 25.93 -6.03 2.70 0.26 -2.31 12258
0.04 -0.00 6.95 19.45 21.15 1.28 0.62 -2.56 12265
0.05 -0.00 7.32 15.11 32.89 -0.68 1.25 -2.39 12271
0.04 -0.00 4.93 15.55 25.55 -2.31 1.42 -2.09 12277
0.06 -0.01 1.93 15.08 15.89 -3.18 1.09 -1.77 12283
0.06 -0.01 1.33 12.58 12.39 -3.69 0.68 -1.42 12291
0.04 -0.00 2.47 10.03 11.27 -4.10 0.35 -1.11 12297
0.05 -0.01 3.65 8.36 9.30 -4.22 0.07 -0.91 12303
0.03 -0.00 4.21 6.94 8.18 -4.24 -0.09 -0.78 12309
0.05 -0.00 4.41 5.76 7.73 -4.24 -0.03 -0.66 12315
0.05 -0.01 4.64 4.93 7.41 -4.24 0.18 -0.53 12322
0.03 -0.00 4.91 4.26 7.37 -4.23 0.50 -0.41 12328
0.04 -0.00 4.98 3.64 7.36 -4.23 0.74 -0.32 12335
0.05 -0.00 4.83 3.18 7.70 -4.24 1.00 -0.26 12341
0.04 -0.00 4.34 2.83 8.09 -4.26 1.19 -0.20 12347
0.04 -0.00 3.83 2.67 8.89 -4.27 1.31 -0.14 12353
0.05 -0.01 3.29 2.52 9.88 -4.28 1.41 -0.07 12360
0.04 -0.00 2.84 2.24 10.86 -4.28 1.51 0.02 12366
0.04 -0.00 2.40 1.64 11.58 -4.28 1.61 0.12 12372
0.05 -0.01 2.17 0.99 12.22 -4.28 1.67 0.21 12379
0.04 -0.00 1.80 0.27 12.54 -4.28 1.69 0.29 12385
0.03 -0.00 1.58 -0.41 13.00 -4.28 1.67 0.35 12392
0.05 -0.01 1.53 -1.15 13.41 -4.28 1.65 0.38 12398
0.04 -0.00 1.51 -1.83 13.76 -4.28 1.66 0.40 12404
0.06 -0.01 1.58 -2.55 14.22 -4.28 1.69 0.39 12410
0.05 -0.01 1.57 -3.11 14.81 -4.28 1.76 0.35 12417
0.05 -0.00 1.35 -3.72 15.66 -4.28 1.86 0.31 12424
0.05 -0.00 1.02 -4.25 16.41 -4.28 1.99 0.26 12430
0.04 -0.00 0.68 -4.69 17.66 -4.28 2.11 0.22 12436
0.04 -0.00 -0.24 -5.05 18.04 -4.27 2.20 0.20 12442
0.04 0.00 -0.18 -5.32 18.13 -4.24 2.27 0.20 12448
0.05 -0.00 -0.11 -5.73 18.36 -4.19 2.25 0.22 12455
0.03 -0.00 -0.38 -6.03 18.51 -4.12 2.24 0.27 12462
0.04 -0.00 -0.52 -6.47 19.06 -4.01 2.25 0.34 12468
0.04 -0.00 -0.82 -7.06 19.81 -3.87 2.28 0.42 12474
0.04 -0.00 -0.79 -7.45 20.66 -3.73 2.30 0.50 12480
0.04 -0.00 -1.02 -7.67 21.36 -3.64 2.26 0.59 12487
0.03 -0.00 -1.26 -7.70 21.83 -3.56 2.17 0.69 12493
0.04 0.00 -1.14 -7.89 22.25 -3.52 2.06 0.78 12499
0.03 -0.00 -1.04 -8.36 22.42 -3.51 1.91 0.89 12506
0.03 -0.00 -0.86 -8.97 22.29 -3.52 1.75 1.00 12513
0.05 -0.01 -0.50 -9.80 21.89 -3.51 1.60 1.12 12519
0.04 -0.00 -0.19 -10.73 21.36 -3.49 1.43 1.23 12525
0.04 -0.00 0.04 -11.74 20.83 -3.43 1.26 1.32 12531
0.04 -0.00 0.19 -12.74 20.13 -3.33 1.13 1.39 12538
0.03 -0.00 0.17 -13.79 19.75 -3.21 1.02 1.46 12545
0.03 0.00 -0.12 -14.67 19.21 -3.09 0.92 1.52 12551
0.03 -0.00 -0.66 -15.41 18.88 -2.98 0.84 1.58 12557
0.04 0.01 -1.15 -16.07 18.38 -2.90 0.81 1.67 12564
0.04 -0.00 -1.86 -16.66 18.37 -2.88 0.98 1.80 12570
0.03 -0.00 -2.49 -18.48 18.09 -2.92 1.27 1.93 12576
0.04 -0.00 -3.07 -20.56 17.05 -2.97 1.34 1.99 12582
0.04 -0.00 -3.77 -23.61 14.38 -2.98 1.23 1.99 12590
0.04 -0.00 -4.09 -26.45 10.59 -2.90 1.06 1.97 12596
0.05 -0.01 -4.36 -28.83 7.05 -2.67 0.94 1.93 12602
0.05 -0.01 -4.56 -30.98 3.70 -2.27 0.93 1.84 12608
0.06 -0.01 -4.99 -32.50 1.97 -1.77 1.00 1.67 12615
0.05 -0.01 -5.71 -33.03 1.56 -1.22 1.05 1.41 12621
0.05 -0.00 -6.49 -32.37 2.17 -0.68 1.02 1.17 12627
0.05 -0.01 -7.19 -30.46 2.24 -0.19 0.89 0.84 12634
0.05 -0.01 -10.32 -43.07 45.83 1.27 0.24 0.61 12641
0.05 -0.01 -6.02 -29.20 2.56 2.18 0.24 0.50 12647
0.05 -0.00 -7.79 -25.23 -0.01 2.80 -0.46 0.38 12653
0.04 0.02 -8.28 -25.94 -0.10 2.95 -1.33 0.30 12659
0.06 0.08 -5.82 -29.57 0.61 2.98 -2.60 0.24 12666
0.04 0.15 -2.22 -4.67 -1.15 3.03 -3.39 0.20 12673
0.03 0.37 2.00 -0.15 16.56 3.64 -2.60 0.35 12679
0.03 0.60 5.03 6.06 26.25 4.15 -0.90 0.81 12685
-0.00 0.86 0.09 -2.00 23.18 4.24 -0.70 0.98 12691
0.00 1.10 -7.46 -4.24 30.05 4.26 -1.10 0.72 12698
-0.01 1.31 -4.07 -5.59 24.59 4.15 -1.04 0.33 12704
-0.01 1.37 -1.77 -4.85 20.65 4.06 -0.48 0.19 12710
-0.02 1.46 -4.49 -2.40 22.01 3.71 -0.14 -0.04 12718
-0.02 1.49 -2.23 -1.36 18.59 3.11 -0.23 -0.46 12724
-0.03 1.49 2.64 -1.79 15.87 2.80 -0.35 -0.65 12730
-0.04 1.45 5.40 -2.29 17.61 2.79 -0.48 -0.51 12736
-0.01 1.48 3.51 -2.40 22.75 1.92 -1.63 -0.28 12743
-0.01 1.44 2.35 -2.57 13.10 0.87 -1.36 0.05 12749
0.00 1.47 0.05 -1.60 12.19 0.39 -0.74 0.20 12755
-0.01 1.41 -0.41 -0.97 11.13 0.14 -0.31 0.16 12763
-0.01 1.37 -0.01 -0.60 10.54 0.05 -0.12 0.06 12769
0.00 1.34 0.69 -1.01 10.15 0.02 -0.06 0.03 12775
-0.02 1.32 1.11 -1.05 9.99 0.01 -0.05 0.06 12781
-0.01 1.33 0.79 -0.92 9.99 -0.01 -0.04 0.07 12787
-0.00 1.30 0.48 -0.76 10.17 -0.01 -0.03 0.05 12794
-0.01 1.28 0.66 -0.72 9.98 -0.02 -0.02 0.04 12801
-0.00 1.27 0.76 -0.73 9.93 -0.02 -0.01 0.04 12807
0.01 1.23 0.75 -0.70 10.02 -0.01 -0.01 0.05 12813
-0.02 1.23 0.75 -0.67 10.06 -0.01 -0.01 0.04 12820
-0.00 1.16 0.79 -0.74 10.06 -0.00 -0.01 0.04 12826
-0.01 1.07 0.79 -0.70 10.00 0.00 -0.01 0.04 12832
0.00 1.06 0.72 -0.68 10.11 0.00 -0.02 0.04 12838
0.02 1.03 0.72 -0.63 11.79 0.00 -0.02 0.04 12845
0.01 0.98 0.75 -0.62 10.16 0.01 -0.01 0.04 12852
0.02 0.93 0.71 -0.67 9.95 0.02 -0.01 0.04 12858
0.03 0.82 0.71 -1.22 10.02 0.02 -0.01 0.04 12864
0.04 0.78 0.76 -0.65 10.04 0.03 -0.01 0.04 12870
0.07 0.69 0.72 -0.66 10.00 0.04 -0.01 0.04 12876
0.07 0.64 0.72 -0.66 10.02 0.04 -0.01 0.04 12883
0.08 0.62 0.77 -0.64 10.02 0.04 0.00 0.04 12890
0.10 0.50 0.83 -0.81 9.99 0.05 -0.00 0.04 12896
0.10 0.47 0.82 -0.68 9.99 0.04 -0.00 0.04 12902
0.09 0.43 0.79 -0.75 9.98 0.04 -0.00 0.04 12908
0.12 0.37 0.85 -0.72 9.98 0.04 -0.01 0.03 12915
0.11 0.30 0.87 -0.97 9.91 0.04 -0.01 0.03 12921
0.11 0.33 0.89 -0.77 9.88 0.04 -0.01 0.02 12928
0.11 0.23 0.79 -0.76 9.92 0.04 -0.02 0.02 12934
0.12 0.20 0.85 -0.74 9.98 0.04 -0.01 0.02 12940
0.11 0.21 0.79 -0.77 9.92 0.04 -0.01 0.01 12947
0.14 0.18 0.79 -0.80 9.96 0.03 -0.01 0.01 12953
0.14 0.12 0.77 -0.74 9.99 0.03 -0.01 0.01 12959
0.13 0.16 0.72 -0.74 9.93 0.03 -0.01 0.01 12965
0.16 0.09 0.78 -0.77 10.01 0.03 -0.00 0.01 12972
0.16 0.09 0.77 -0.72 9.96 0.03 -0.01 0.02 12979
0.16 0.08 0.84 -0.81 9.96 0.03 -0.01 0.02 12985
0.17 0.10 0.80 -0.80 9.98 0.02 -0.01 0.01 12991
0.17 0.08 0.86 -0.77 9.98 0.02 -0.01 0.01 12997
0.16 0.04 0.84 -0.82 9.94 0.02 -0.02 0.01 13003
0.18 0.06 0.88 -0.85 9.87 0.02 -0.02 0.01 13009
0.19 0.02 0.87 -0.81 9.95 0.01 -0.03 0.01 13017
0.17 0.02 0.87 -0.78 9.97 0.01 -0.03 0.00 13023
0.20 0.04 0.81 -0.79 10.00 0.01 -0.04 -0.00 13029
0.21 0.03 0.85 -0.77 9.95 0.01 -0.04 -0.00 13035
0.21 -0.00 0.89 -0.83 9.95 0.00 -0.04 -0.01 13041
0.23 0.01 0.80 -0.83 9.98 0.00 -0.04 -0.01 13047
0.26 0.00 0.81 -0.80 9.96 0.00 -0.04 -0.01 13054
0.26 -0.01 0.80 -0.29 9.96 0.01 -0.04 -0.01 13061
0.27 0.00 0.81 -0.79 9.96 0.01 -0.04 -0.01 13067
0.30 -0.02 0.83 -0.76 9.99 0.02 -0.04 -0.01 13073
0.33 -0.01 0.79 -0.84 10.04 0.01 -0.03 -0.01 13079
0.41 -0.02 0.80 -0.59 10.01 0.02 -0.03 -0.00 13086
0.40 -0.03 0.76 -0.78 10.05 0.03 -0.02 0.00 13092
0.45 -0.01 0.66 -1.05 10.04 0.04 -0.02 0.00 13099
0.48 -0.04 0.79 -0.92 10.04 0.06 -0.01 0.01 13105
0.55 -0.04 0.80 -0.74 10.12 0.07 0.03 0.01 13112
0.57 -0.03 0.83 -0.78 10.09 0.09 0.01 -0.00 13118
0.61 -0.04 0.87 -0.90 10.13 0.12 0.03 -0.01 13124
0.62 -0.04 0.91 -0.88 10.24 0.16 0.04 -0.01 13130
0.74 -0.05 0.98 -1.03 10.38 0.22 0.07 -0.03 13136
0.77 -0.05 1.07 -1.02 10.55 0.31 0.09 -0.05 13144
0.83 -0.03 1.14 -1.02 10.94 0.48 0.13 -0.07 13150
0.90 -0.05 1.20 -1.10 11.42 0.74 0.19 -0.09 13156
0.92 -0.05 1.06 -1.10 12.00 1.09 0.24 -0.12 13162
1.05 -0.06 1.25 -1.36 11.96 1.44 0.25 -0.14 13169
1.11 -0.07 1.22 -1.31 12.80 1.71 0.18 -0.16 13175
1.17 -0.04 1.05 -1.54 12.53 1.87 0.07 -0.15 13181
1.22 -0.06 0.97 -1.58 13.17 2.00 -0.11 -0.16 13189
1.29 -0.06 1.09 -1.60 12.92 2.12 -0.22 -0.15 13195
1.38 -0.06 1.02 -1.69 13.09 2.26 -0.28 -0.14 13201
1.34 -0.06 0.88 -1.31 13.20 2.46 -0.29 -0.12 13207
1.38 -0.06 1.05 -1.98 13.39 2.62 -0.30 -0.11 13214
1.40 -0.06 0.81 -2.29 13.03 2.76 -0.29 -0.17 13220
1.37 -0.05 1.03 -2.04 13.07 2.99 -0.23 -0.13 13227
1.35 -0.05 1.08 -3.05 13.46 3.23 -0.21 -0.13 13233
1.32 -0.05 0.94 -2.87 14.14 3.49 -0.15 -0.14 13240
1.29 -0.06 0.93 -2.53 14.13 3.81 -0.06 -0.16 13246
1.18 -0.06 1.07 -2.84 14.52 4.11 -0.01 -0.19 13252
1.09 -0.05 0.90 -2.99 16.77 4.27 0.03 -0.19 13259
0.94 -0.05 1.25 -3.18 17.28 4.28 0.07 -0.23 13265
0.81 -0.03 2.25 -3.61 17.80 4.28 -0.03 -0.25 13272
0.74 -0.03 2.56 -5.24 19.46 4.28 -0.14 -0.34 13278
0.62 -0.01 2.29 -6.53 21.20 4.28 -0.30 -0.48 13285
0.56 -0.02 2.67 -9.70 25.16 4.28 -0.39 -0.58 13291
0.52 -0.03 3.31 -12.20 27.26 4.28 -0.32 -0.58 13297
0.48 -0.01 3.52 -14.50 33.76 4.28 -0.20 -0.52 13304
0.35 -0.03 3.29 -14.40 31.12 4.28 0.07 -0.48 13310
0.31 -0.02 1.38 -11.97 29.32 4.28 0.23 -0.50 13317
0.22 -0.02 1.11 -10.41 29.49 4.28 0.23 -0.53 13324
0.22 -0.01 0.29 -7.83 29.46 4.28 0.06 -0.61 13330
0.14 -0.01 0.37 -5.30 31.70 4.28 -0.19 -0.69 13336
0.13 -0.01 1.32 -2.86 31.75 4.28 -0.73 -0.75 13342
0.09 -0.01 5.36 0.47 31.31 4.28 -1.28 -0.81 13348
0.09 -0.01 7.08 5.36 30.55 4.28 -1.53 -0.79 13356
0.06 -0.01 8.61 10.10 27.97 4.28 -1.30 -0.70 13362
0.05 -0.00 11.46 15.52 22.56 4.28 -0.64 -0.72 13368
0.04 -0.00 9.89 18.25 14.86 4.28 0.14 -1.10 13375
0.04 -0.00 8.41 19.31 -4.21 4.07 0.64 -1.72 13381
0.04 -0.00 8.12 19.69 9.04 3.02 0.45 -2.15 13387
0.03 -0.00 7.66 17.05 24.71 1.16 0.94 -2.12 13393
0.04 -0.00 7.23 15.25 27.09 -0.63 1.59 -1.94 13400
0.04 -0.00 4.70 14.68 20.53 -1.84 1.68 -1.76 13407
0.04 0.00 2.10 14.37 15.46 -2.67 1.28 -1.49 13413
0.04 -0.00 0.99 13.45 12.48 -3.36 0.76 -1.16 13419
0.04 -0.00 1.00 11.22 11.11 -3.91 0.34 -0.87 13425
0.04 -0.00 2.12 9.35 10.07 -4.17 -0.04 -0.64 13432
0.04 -0.00 2.93 7.91 9.17 -4.25 -0.35 -0.49 13438
0.03 0.01 3.36 6.82 8.03 -4.28 -0.51 -0.39 13445
0.04 -0.00 3.76 5.74 7.19 -4.28 -0.53 -0.30 13451
0.03 -0.00 4.15 4.81 6.79 -4.28 -0.45 -0.24 13457
0.03 -0.00 4.60 3.85 6.86 -4.28 -0.32 -0.22 13464
0.04 -0.00 4.97 3.02 7.34 -4.28 -0.15 -0.23 13470
0.03 -0.00 5.04 2.59 7.99 -4.28 0.01 -0.26 13476
0.03 -0.00 4.89 2.43 8.70 -4.28 0.15 -0.29 13483
0.03 -0.00 4.57 2.23 9.55 -4.28 0.30 -0.30 13489
0.03 -0.00 4.25 2.06 10.07 -4.28 0.46 -0.27 13495
0.03 -0.00 3.84 1.62 10.73 -4.28 0.60 -0.21 13502
0.05 -0.00 3.63 1.03 11.48 -4.28 0.71 -0.14 13508
0.04 -0.00 3.58 0.32 12.44 -4.28 0.78 -0.08 13514
0.02 -0.00 3.37 -0.40 13.02 -4.28 0.82 -0.04 13520
0.04 -0.00 3.27 -1.23 13.44 -4.28 0.85 -0.00 13527
0.03 -0.00 3.37 -2.01 13.79 -4.28 0.89 0.01 13534
0.03 -0.00 3.58 -2.81 14.28 -4.28 0.95 0.01 13540
0.04 -0.00 3.64 -3.57 14.89 -4.28 1.05 -0.01 13546
0.03 -0.00 3.45 -4.20 15.47 -4.28 1.19 -0.03 13552
0.03 -0.00 3.13 -4.83 16.06 -4.28 1.37 -0.06 13558
0.03 -0.00 2.86 -5.58 16.42 -4.28 1.59 -0.09 13565
0.03 -0.00 2.36 -6.32 17.12 -4.28 1.75 -0.12 13572
0.02 0.01 3.05 -6.91 17.65 -4.28 1.94 -0.15 13578
0.03 -0.00 2.12 -7.27 18.50 -4.28 2.01 -0.18 13584
0.02 -0.00 1.63 -7.59 18.94 -4.28 2.08 -0.18 13590
0.03 0.00 0.99 -7.84 19.61 -4.26 2.10 -0.16 13597
0.02 -0.00 0.61 -7.93 20.23 -4.21 2.07 -0.08 13603
0.02 -0.00 0.46 -7.85 20.72 -4.13 2.00 0.01 13609
0.04 0.00 0.39 -7.84 21.03 -4.05 1.91 0.14 13616
0.02 -0.00 0.60 -7.80 21.55 -3.95 1.83 0.30 13623
0.02 0.01 0.94 -8.01 22.13 -3.88 1.76 0.46 13629
0.03 -0.00 0.95 -8.63 22.58 -3.82 1.71 0.63 13635
0.02 0.00 0.91 -9.49 22.85 -3.75 1.64 0.80 13641
0.03 0.01 0.77 -10.36 22.80 -3.68 1.54 0.96 13648
0.03 0.00 0.60 -11.18 22.94 -3.59 1.39 1.11 13655
0.03 0.01 0.65 -12.13 22.79 -3.51 1.21 1.24 13661
0.03 -0.00 0.80 -13.16 22.51 -3.42 1.06 1.34 13667
0.03 -0.00 0.83 -14.11 22.04 -3.33 0.98 1.44 13674
0.03 -0.00 1.07 -15.43 21.94 -3.26 0.96 1.51 13680
0.04 -0.00 1.14 -16.71 21.70 -3.23 0.97 1.57 13686
0.03 -0.00 0.90 -18.06 20.87 -3.24 1.03 1.60 13692
0.03 -0.00 0.35 -19.18 18.62 -3.25 1.17 1.64 13700
0.03 -0.00 -1.13 -20.19 16.53 -3.23 1.51 1.73 13706
0.04 -0.00 -2.30 -22.55 14.83 -3.13 1.91 1.83 13712
0.03 -0.00 -3.73 -25.63 12.60 -2.95 2.06 1.88 13718
0.03 -0.00 -5.13 -28.82 10.14 -2.67 2.00 1.87 13725
0.04 -0.00 -6.39 -31.51 7.27 -2.34 1.77 1.80 13731
0.04 -0.00 -7.07 -33.65 3.93 -1.94 1.52 1.65 13737
0.04 -0.00 -7.75 -35.02 1.59 -1.51 1.32 1.43 13744
0.04 -0.00 -7.94 -34.99 0.70 -1.05 1.19 1.16 13751
0.03 0.00 -8.13 -33.80 1.14 -0.54 1.02 0.86 13757
0.03 -0.00 -8.33 -31.13 2.24 -0.01 0.74 0.54 13763
0.02 -0.00 -7.99 -27.72 3.89 0.37 0.34 0.23 13769
0.03 -0.00 -7.13 -24.20 6.13 0.74 -0.16 -0.02 13775
0.03 -0.00 -6.10 -20.70 8.58 0.98 -0.73 -0.18 13783
0.03 -0.00 -3.68 -17.70 10.72 1.07 -1.16 -0.25 13789
0.05 -0.00 -18.65 -36.81 78.47 2.27 -2.79 0.07 13795
0.03 -0.00 3.27 -4.23 9.38 3.59 -2.68 0.46 13801
0.04 0.03 3.91 6.23 -6.09 3.08 -2.69 0.59 13808
0.03 0.14 11.47 -3.69 -4.31 2.52 -2.86 0.78 13814
0.02 0.23 10.12 9.37 11.19 2.74 -2.13 1.53 13820
0.03 0.44 7.95 4.51 9.73 3.06 -0.26 2.27 13827
0.01 0.69 -2.77 -2.15 17.79 3.80 0.14 2.39 13834
0.01 0.98 -14.11 -7.34 23.70 4.28 -0.66 1.94 13840
-0.00 1.24 -12.14 -8.09 22.54 4.28 -1.13 1.25 13846
-0.01 1.37 -7.65 -4.49 24.78 4.28 -0.65 0.72 13853
-0.01 1.49 -8.66 -2.74 23.20 4.28 -0.42 0.18 13859
-0.02 1.55 -5.30 -2.47 21.01 4.09 -0.57 -0.54 13865
-0.01 1.64 1.74 -3.19 20.85 3.80 -0.62 -0.92 13872
-0.02 1.56 7.58 -4.54 32.34 3.61 -0.96 -0.81 13879
-0.01 1.51 5.38 -2.45 18.18 1.42 -1.54 -0.31 13885
-0.02 1.60 2.06 -3.69 12.86 0.46 -0.81 0.12 13891
-0.02 1.55 -0.10 -1.57 11.41 0.21 -0.45 0.19 13898
-0.01 1.53 -0.63 -0.14 10.57 0.10 -0.19 0.10 13904
-0.02 1.50 0.30 -0.52 10.20 0.04 -0.11 0.02 13911
0.00 1.45 1.34 -1.19 9.96 0.02 -0.07 0.03 13917
0.00 1.40 1.28 -1.31 9.99 0.00 -0.07 0.06 13923
-0.01 1.43 0.75 -0.84 10.02 0.00 -0.08 0.06 13930
-0.01 1.41 0.54 -0.73 10.09 -0.01 -0.07 0.04 13936
-0.01 1.36 0.90 -0.87 9.97 -0.02 -0.06 0.02 13942
-0.01 1.36 0.91 -0.95 10.07 -0.02 -0.06 0.02 13948
0.00 1.33 0.84 -0.82 9.96 -0.01 -0.07 0.02 13956
-0.02 1.33 0.75 -0.74 9.93 -0.01 -0.07 0.03 13962
-0.01 1.31 0.70 -0.75 9.99 -0.00 -0.07 0.02 13968
0.00 1.22 0.71 -0.71 10.00 -0.00 -0.07 0.02 13974
0.02 1.18 0.73 -0.72 9.92 0.01 -0.06 0.02 13980
0.03 1.08 0.71 -0.67 10.07 0.01 -0.05 0.02 13987
0.03 0.97 0.73 -0.65 10.05 0.01 -0.05 0.02 13993
0.03 0.91 0.67 -0.70 10.11 0.02 -0.04 0.03 14000
0.03 0.82 0.68 -0.77 10.02 0.02 -0.03 0.03 14006
0.04 0.72 0.67 -0.80 10.04 0.03 -0.03 0.03 14013
0.06 0.74 0.62 -0.75 9.99 0.03 -0.02 0.04 14019
0.04 0.67 0.63 -0.74 9.96 0.00 -0.02 0.04 14025
0.05 0.57 0.66 -0.78 10.00 0.03 -0.01 0.04 14031
0.06 0.55 0.70 -0.79 9.99 0.03 -0.01 0.04 14038
0.05 0.48 0.74 -0.99 9.93 0.03 -0.01 0.03 14044
0.09 0.41 0.75 -0.77 10.03 0.03 -0.01 0.03 14051
0.11 0.36 0.76 -0.76 9.99 0.03 -0.01 0.02 14057
0.11 0.36 0.80 -0.81 9.89 0.03 -0.01 0.02 14063
0.08 0.32 0.84 -0.81 9.90 0.02 -0.02 0.01 14069
0.12 0.28 0.77 -0.82 9.93 0.02 -0.02 0.01 14075
0.11 0.24 0.77 -0.81 9.92 0.02 -0.02 0.00 14083
0.11 0.26 0.75 -0.81 9.94 0.02 -0.02 0.01 14089
0.13 0.21 0.73 -0.81 9.99 0.02 -0.02 0.00 14095
0.12 0.22 0.74 -0.77 9.98 0.02 -0.02 0.00 14101
0.10 0.22 0.70 -0.77 9.92 0.02 -0.02 0.01 14107
0.13 0.23 0.72 -0.93 9.97 0.02 -0.02 0.01 14114
0.14 0.18 0.75 -0.82 9.99 0.02 -0.02 0.01 14120
0.12 0.11 0.77 -0.80 9.88 0.02 -0.02 0.01 14127
0.15 0.15 0.80 -0.88 9.91 0.02 -0.03 0.00 14133
0.15 0.11 0.70 -0.83 10.02 0.02 -0.03 0.00 14139
0.16 0.09 0.72 -0.82 9.97 0.02 -0.03 0.00 14145
0.19 0.09 0.75 -0.81 9.96 0.02 -0.03 -0.00 14152
0.22 0.08 0.76 -0.89 9.97 0.01 -0.04 -0.01 14158
0.17 0.08 0.78 -0.80 9.98 0.01 -0.04 -0.01 14164
0.23 0.04 0.78 -0.81 9.95 0.01 -0.04 -0.01 14171
0.25 0.01 0.77 -0.84 9.81 0.01 -0.05 -0.01 14177
0.29 0.00 0.74 -0.85 9.99 0.01 -0.05 -0.01 14184
0.32 0.01 0.76 -0.82 9.98 0.01 -0.05 -0.01 14190
0.34 -0.01 0.75 -0.82 10.02 0.01 -0.04 -0.01 14196
0.37 -0.02 0.77 -0.91 9.93 0.02 -0.03 -0.01 14202
0.39 -0.03 0.68 -0.89 9.99 0.03 -0.03 -0.01 14209
0.43 -0.02 0.74 -0.84 10.11 0.04 -0.02 -0.01 14216
0.50 -0.02 0.64 -0.85 9.93 0.06 -0.02 -0.00 14222
0.54 -0.03 0.75 -0.76 10.04 0.08 -0.01 0.00 14228
0.59 -0.04 0.81 -0.93 9.99 0.10 -0.00 0.00 14234
0.63 -0.04 0.74 -0.75 10.21 0.13 0.01 -0.00 14240
0.68 -0.05 0.80 -0.92 10.19 0.16 0.02 -0.01 14247
0.76 -0.06 0.83 -0.93 10.24 0.21 0.04 -0.01 14254
0.81 -0.04 0.91 -1.02 10.36 0.29 0.06 -0.04 14260
0.86 -0.06 1.00 -1.17 10.56 0.42 0.08 -0.05 14266
0.91 -0.06 1.07 -1.09 10.94 0.60 0.12 -0.07 14273
0.99 -0.06 1.05 -1.17 11.27 0.88 0.15 -0.10 14279
1.08 -0.07 1.08 -1.22 12.22 1.21 0.17 -0.13 14285
1.16 -0.05 1.37 -1.32 12.39 1.57 0.10 -0.15 14291
1.26 -0.07 1.21 -1.47 13.19 1.80 0.00 -0.18 14299
1.31 -0.06 1.13 -1.54 12.89 1.95 -0.16 -0.18 14305
1.38 -0.06 1.05 -1.72 12.49 2.09 -0.32 -0.19 14311
1.40 -0.06 0.82 -2.02 13.20 2.23 -0.41 -0.18 14318
1.46 -0.06 0.67 -1.60 12.91 2.40 -0.41 -0.16 14324
1.47 -0.07 0.55 -1.76 13.09 2.57 -0.44 -0.15 14330
1.53 -0.06 0.69 -1.84 12.84 2.75 -0.43 -0.13 14337
1.54 -0.06 0.75 -1.99 12.55 2.89 -0.42 -0.13 14344
1.56 -0.07 0.54 -2.39 12.55 3.06 -0.39 -0.12 14350
1.56 -0.06 0.87 -2.55 13.15 3.27 -0.33 -0.13 14356
1.51 -0.06 1.00 -2.71 13.07 3.54 -0.26 -0.15 14363
1.51 -0.05 0.69 -2.69 14.39 3.84 -0.17 -0.16 14369
1.41 -0.07 0.70 -2.80 15.95 4.15 -0.09 -0.18 14375
1.30 -0.04 0.96 -3.11 16.99 4.28 -0.17 -0.19 14382
1.13 -0.04 2.54 -3.55 16.77 4.28 -0.23 -0.25 14389
1.00 -0.03 3.16 -4.27 18.43 4.28 -0.42 -0.38 14395
0.93 -0.03 3.25 -5.07 20.23 4.28 -0.62 -0.53 14401
0.77 -0.01 2.82 -7.36 23.32 4.28 -0.82 -0.65 14407
0.70 -0.03 3.87 -9.20 26.50 4.28 -0.94 -0.75 14414
0.59 -0.03 3.29 -12.89 32.14 4.28 -0.91 -0.82 14420
0.51 -0.02 3.37 -14.28 33.17 4.28 -0.78 -0.82 14427
0.44 -0.03 4.06 -13.90 30.63 4.28 -0.54 -0.83 14434
0.28 -0.01 3.10 -11.40 28.84 4.28 -0.30 -0.90 14440
0.22 -0.02 3.33 -9.14 28.45 4.28 -0.07 -0.96 14446
0.19 -0.01 2.42 -6.61 29.34 4.28 -0.07 -1.04 14453
0.13 -0.01 2.63 -3.32 30.21 4.28 -0.26 -1.12 14459
0.09 -0.01 4.50 -1.04 29.87 4.28 -0.53 -1.18 14466
0.09 -0.01 7.16 2.29 29.66 4.28 -0.79 -1.24 14472
0.07 -0.01 8.61 6.11 29.52 4.28 -0.81 -1.27 14478
0.04 -0.00 9.07 11.99 23.45 4.28 -0.39 -1.26 14485
0.06 -0.01 11.91 19.08 21.47 4.28 0.35 -1.38 14491
0.05 -0.00 9.38 24.85 9.17 4.14 0.96 -1.81 14497
0.04 0.01 9.00 27.42 -8.29 2.99 1.10 -2.52 14503
0.04 -0.00 5.99 20.90 18.55 1.59 1.17 -2.80 14511
0.04 -0.00 7.09 15.87 32.68 -0.37 1.72 -2.68 14517
0.07 -0.01 4.91 16.05 27.78 -2.14 1.90 -2.41 14523
0.04 -0.00 2.22 15.70 18.31 -3.23 1.54 -2.09 14529
0.04 0.00 0.87 13.52 13.63 -3.88 1.02 -1.73 14536
0.04 -0.00 1.69 10.71 12.62 -4.26 0.67 -1.37 14542
0.05 -0.00 2.79 8.67 11.31 -4.28 0.44 -1.10 14548
0.05 -0.01 3.38 6.87 9.59 -4.28 0.25 -0.92 14555
0.04 -0.00 3.59 5.26 8.66 -4.28 0.21 -0.77 14562
0.03 -0.00 3.76 4.16 7.98 -4.28 0.29 -0.63 14568
0.06 -0.01 4.11 3.27 7.73 -4.28 0.45 -0.50 14574
0.05 -0.00 4.49 2.44 7.81 -4.28 0.66 -0.39 14580
0.03 -0.00 4.64 1.93 7.99 -4.28 0.83 -0.30 14586
0.05 -0.00 4.53 1.25 8.23 -4.28 0.98 -0.21 14593
0.05 -0.01 4.15 1.87 8.61 -4.28 1.08 -0.17 14599
0.05 -0.00 3.76 1.96 9.30 -4.28 1.15 -0.09 14606
0.04 0.00 3.35 1.75 10.16 -4.28 1.20 0.02 14612
0.05 -0.01 3.13 1.40 11.03 -4.28 1.28 0.15 14618
0.04 -0.00 3.01 0.80 11.81 -4.28 1.35 0.28 14624
0.04 0.01 2.86 0.14 12.42 -4.28 1.42 0.41 14630
0.05 -0.00 2.67 -0.38 12.91 -4.28 1.47 0.52 14638
0.04 -0.00 2.61 -0.94 13.57 -4.28 1.50 0.61 14644
0.06 -0.01 2.64 -1.41 14.27 -4.28 1.55 0.67 14650
0.03 -0.00 2.61 -1.93 15.12 -4.28 1.63 0.70 14656
0.04 -0.00 2.56 -2.62 16.07 -4.28 1.74 0.69 14663
0.05 -0.01 2.92 -3.94 16.77 -4.28 1.87 0.63 14669
0.04 -0.00 0.07 -5.14 19.62 -4.28 2.04 0.62 14675
0.05 -0.00 0.69 -5.49 18.73 -4.28 2.09 0.59 14682
0.05 -0.00 1.84 -6.58 18.71 -4.28 2.16 0.53 14688
0.04 -0.00 1.44 -7.16 18.46 -4.28 2.24 0.38 14695
0.04 0.00 1.36 -8.09 19.10 -4.28 2.36 0.28 14701
0.04 -0.00 0.62 -8.25 19.21 -4.28 2.46 0.27 14707
0.02 -0.00 -0.01 -8.08 19.35 -4.23 2.44 0.28 14713
0.05 0.00 -0.22 -7.97 19.10 -4.15 2.30 0.32 14720
0.03 -0.00 -0.55 -8.18 18.74 -4.01 2.10 0.38 14727
0.03 -0.00 -0.56 -8.69 18.68 -3.79 1.90 0.46 14733
0.04 -0.00 -0.31 -9.08 19.20 -3.54 1.70 0.51 14739
0.03 -0.00 -0.16 -9.45 19.79 -3.29 1.51 0.55 14745
0.03 -0.00 0.12 -9.70 20.81 -3.05 1.34 0.58 14751
0.05 -0.00 0.54 -9.95 22.26 -2.90 1.24 0.60 14758
0.03 -0.00 1.02 -10.10 23.42 -2.81 1.21 0.64 14765
0.04 -0.00 1.09 -10.38 23.65 -2.80 1.25 0.69 14771
0.04 -0.00 0.87 -11.00 23.10 -2.84 1.34 0.76 14777
0.03 -0.00 0.32 -12.03 22.49 -2.90 1.44 0.85 14784
0.05 -0.00 -0.26 -13.17 21.84 -2.94 1.54 0.96 14790
0.04 -0.00 -1.29 -15.23 22.25 -2.94 1.53 1.08 14796
0.04 -0.00 -2.01 -16.13 19.58 -2.95 1.49 1.18 14802
0.05 -0.00 -2.87 -17.85 18.42 -2.96 1.32 1.27 14810
0.04 -0.00 -3.40 -19.41 16.78 -2.96 1.12 1.35 14816
0.05 -0.01 -3.92 -20.75 14.63 -2.89 1.03 1.45 14822
0.04 -0.00 -4.57 -21.99 12.57 -2.74 1.13 1.56 14829
0.04 -0.00 -5.46 -24.03 10.87 -2.56 1.39 1.64 14835
0.04 -0.00 -6.34 -26.32 9.27 -2.36 1.53 1.64 14841
0.04 -0.00 -7.19 -29.33 7.33 -2.15 1.48 1.55 14848
0.05 -0.01 -8.51 -31.83 4.98 -1.92 1.45 1.41 14854
0.05 -0.00 -8.58 -33.36 2.47 -1.62 1.39 1.24 14861
0.04 0.01 -8.98 -33.47 1.10 -1.22 1.33 1.03 14867
0.05 -0.00 -8.98 -32.12 0.82 -0.73 1.21 0.78 14873
0.03 -0.00 -8.86 -29.43 2.22 -0.20 0.95 0.50 14879
0.05 -0.00 -8.65 -27.23 3.26 0.28 0.56 0.19 14886
0.04 -0.00 -22.90 -37.28 39.94 2.72 -1.82 0.20 14893
0.04 -0.00 -11.92 -22.41 9.77 2.80 -1.75 0.32 14899
0.05 -0.00 -7.68 -17.17 1.17 2.95 -2.70 0.21 14905
0.04 0.05 -3.58 -21.63 2.45 2.70 -3.60 0.28 14912
0.03 0.17 2.44 -8.17 4.79 2.58 -4.24 0.36 14918
0.03 0.25 3.94 4.59 15.30 2.87 -3.14 0.73 14924
0.01 0.47 7.11 7.78 16.95 3.47 -1.07 1.48 14930
0.01 0.71 1.70 0.46 14.66 3.99 -0.22 1.98 14938
-0.00 0.91 -8.84 -5.20 26.59 4.28 -0.48 1.89 14944
-0.00 1.14 -12.16 -6.80 24.98 4.27 -0.93 1.37 14950
-0.01 1.28 -6.45 -5.16 23.38 4.17 -0.93 0.81 14956
-0.02 1.29 -5.10 -3.22 23.14 3.74 -0.46 0.41 14963
-0.02 1.36 -5.37 -2.19 19.82 3.12 -0.26 -0.08 14969
-0.03 1.38 -1.80 -2.10 16.66 2.68 -0.41 -0.53 14976
-0.01 1.39 3.41 -2.11 16.55 2.55 -0.58 -0.60 14983
-0.01 1.37 4.99 -2.01 22.83 2.10 -1.43 -0.37 14989
-0.01 1.40 3.63 -2.00 12.90 1.00 -1.61 -0.00 14995
-0.02 1.32 0.83 -2.05 13.26 0.55 -1.12 0.20 15001
-0.02 1.39 -0.28 -1.82 11.41 0.24 -0.66 0.17 15008
-0.01 1.39 -0.47 -0.84 10.66 0.11 -0.36 0.07 15014
-0.04 1.37 0.33 -1.02 10.23 0.02 -0.18 0.02 15021
-0.01 1.39 0.94 -1.33 10.25 0.00 -0.13 0.02 15028
-0.03 1.39 0.86 -1.20 10.08 -0.01 -0.11 0.05 15034
-0.02 1.42 0.46 -0.86 10.28 -0.01 -0.10 0.04 15040
-0.01 1.37 0.51 -0.87 10.14 -0.02 -0.09 0.02 15046
-0.02 1.38 0.59 -0.91 10.02 -0.02 -0.07 0.02 15053
-0.02 1.36 0.65 -0.77 10.11 -0.02 -0.06 0.03 15059
-0.02 1.34 0.56 -0.78 9.99 -0.02 -0.06 0.03 15066
-0.01 1.30 0.64 -0.78 10.03 -0.01 -0.05 0.03 15072
-0.01 1.26 0.70 -0.74 9.97 -0.00 -0.05 0.03 15078
-0.01 1.19 0.69 -0.78 10.01 0.00 -0.05 0.04 15085
0.01 1.15 0.64 -0.74 9.97 -0.00 -0.06 0.03 15091
0.01 1.11 0.64 -0.75 9.93 0.00 -0.06 0.03 15097
0.00 1.05 0.60 -0.72 10.01 0.00 -0.05 0.04 15104
0.03 1.02 0.64 -0.76 10.01 0.01 -0.05 0.04 15110
0.02 0.95 0.62 -0.71 10.01 0.02 -0.05 0.04 15117
0.02 0.86 0.61 -0.74 10.05 0.02 -0.04 0.04 15123
0.02 0.84 0.58 -0.70 9.97 0.02 -0.04 0.05 15129
0.03 0.80 0.58 -0.76 9.99 0.02 -0.04 0.04 15135
0.04 0.71 0.55 -0.77 9.98 0.02 -0.04 0.05 15141
0.04 0.67 0.59 -0.80 9.95 0.02 -0.03 0.04 15149
0.04 0.60 0.64 -0.79 9.97 0.02 -0.03 0.04 15155
0.04 0.58 0.63 -0.80 9.92 0.02 -0.03 0.04 15161
0.05 0.54 0.67 -0.76 9.97 0.02 -0.04 0.03 15167
0.05 0.55 0.63 -0.83 9.95 0.02 -0.04 0.03 15173
0.06 0.51 0.66 -0.78 9.94 0.02 -0.04 0.03 15180
0.07 0.44 0.63 -0.80 10.03 0.01 -0.05 0.02 15186
0.09 0.34 0.65 -0.84 9.94 0.01 -0.05 0.02 15193
0.08 0.44 0.61 -0.76 9.98 0.01 -0.05 0.02 15199
0.09 0.36 0.64 -0.81 10.00 0.01 -0.05 0.02 15205
0.11 0.32 0.58 -0.76 9.97 0.01 -0.05 0.02 15212
0.10 0.31 0.57 -0.82 9.98 0.01 -0.05 0.02 15218
0.09 0.27 0.59 -0.80 9.96 0.01 -0.04 0.02 15224
0.12 0.24 0.60 -0.80 9.94 0.01 -0.05 0.02 15230
0.12 0.22 0.59 -0.82 9.93 0.01 -0.05 0.02 15237
0.13 0.22 0.60 -0.83 9.89 0.01 -0.04 0.02 15243
0.16 0.19 0.62 -0.83 9.92 0.01 -0.04 0.02 15250
0.17 0.19 0.58 -0.83 9.94 0.01 -0.04 0.01 15256
0.20 0.17 0.65 -0.84 9.97 0.01 -0.04 0.02 15262
0.20 0.12 0.60 -0.78 9.94 0.01 -0.03 0.01 15268
0.21 0.12 0.60 -0.83 9.97 0.01 -0.03 0.00 15275
0.24 0.08 0.58 -0.83 9.93 0.01 -0.03 0.00 15281
0.25 0.10 0.61 -0.79 9.92 0.01 -0.03 0.00 15288
0.27 0.09 0.64 -0.89 9.95 0.01 -0.02 0.00 15294
0.31 0.08 0.63 -0.79 9.98 0.00 -0.02 0.00 15300
0.33 0.05 0.64 -0.80 10.00 0.01 -0.03 0.00 15306
0.34 0.04 0.61 -0.80 9.99 0.00 -0.03 0.00 15312
0.41 0.04 0.64 -0.88 10.02 0.01 -0.03 0.01 15320
0.43 0.01 0.61 -0.82 10.07 0.02 -0.03 0.00 15326
0.48 0.01 0.64 -0.85 10.09 0.03 -0.03 0.00 15332
0.56 -0.00 0.65 -1.02 10.17 0.04 -0.02 0.00 15338
0.57 -0.04 0.57 -0.83 10.09 0.06 -0.02 0.00 15344
0.64 -0.03 0.71 -0.84 10.17 0.09 -0.02 0.00 15351
0.72 -0.04 0.63 -0.88 10.06 0.12 -0.02 -0.00 15357
0.79 -0.03 0.69 -0.92 10.14 0.16 -0.01 -0.01 15364
0.88 -0.04 0.69 -0.93 10.29 0.21 -0.01 -0.01 15370
0.94 -0.06 0.80 -1.08 10.28 0.27 -0.02 -0.02 15377
0.99 -0.04 0.85 -1.07 10.52 0.35 -0.02 -0.04 15383
1.11 -0.06 1.02 -1.13 10.80 0.49 -0.02 -0.06 15389
1.14 -0.06 1.07 -1.19 10.94 0.70 -0.03 -0.10 15395
1.22 -0.06 1.10 -1.34 11.96 1.00 -0.05 -0.14 15403
1.30 -0.07 0.84 -1.29 12.75 1.46 -0.08 -0.16 15409
1.36 -0.05 0.80 -1.39 12.81 1.77 -0.15 -0.18 15415
1.40 -0.06 0.68 -1.56 13.16 1.93 -0.21 -0.17 15422
1.47 -0.07 0.83 -1.48 12.95 2.08 -0.28 -0.16 15428
