Voltage_01 Voltage_02 Acc_x Acc_y Acc_z Gyro_x Gyro_y Gyro_z Time
5000
0.51 -0.03 0.37 -1.37 10.02 0.05 -0.11 0.05 23
0.52 -0.02 0.64 -0.92 9.98 0.07 -0.10 0.04 29
0.56 -0.04 0.53 -1.18 10.14 0.09 -0.10 0.04 35
0.65 -0.04 0.50 -1.16 10.10 0.11 -0.10 0.04 41
0.71 -0.05 0.47 -1.11 10.23 0.14 -0.09 0.05 48
0.76 -0.04 0.48 -1.29 10.15 0.18 -0.09 0.05 54
0.81 -0.04 0.54 -1.36 10.36 0.23 -0.10 0.05 60
0.86 -0.04 0.46 -1.21 10.49 0.30 -0.13 0.04 66
0.89 -0.05 0.63 -1.28 10.65 0.40 -0.14 0.03 73
0.93 -0.04 0.49 -1.17 10.97 0.55 -0.17 0.02 79
0.98 -0.04 0.40 -1.25 11.04 0.70 -0.20 0.02 86
1.00 -0.05 0.52 -1.45 11.28 0.83 -0.20 0.02 92
1.05 -0.05 0.56 -1.56 11.40 0.96 -0.20 0.02 98
1.06 -0.05 0.36 -1.69 11.20 1.03 -0.16 0.02 104
1.09 -0.05 0.32 -1.72 11.45 1.08 -0.11 0.02 110
1.13 -0.05 0.39 -1.52 11.46 1.13 -0.06 0.01 116
1.09 -0.05 0.63 -1.78 11.37 1.21 -0.04 0.01 123
1.13 -0.04 0.62 -1.93 11.36 1.28 -0.04 -0.01 130
1.10 -0.05 0.50 -2.01 11.62 1.38 -0.07 -0.03 136
1.06 -0.05 0.73 -1.84 11.64 1.46 -0.08 -0.05 142
1.05 -0.04 0.75 -2.05 12.01 1.56 -0.10 -0.07 148
1.04 -0.05 0.84 -1.87 12.11 1.67 -0.11 -0.09 154
0.97 -0.05 0.82 -2.46 12.21 1.74 -0.12 -0.11 160
0.91 -0.04 0.93 -2.66 11.90 1.83 -0.13 -0.14 167
0.88 -0.03 1.23 -3.04 12.19 1.94 -0.14 -0.18 174
0.80 -0.04 1.19 -3.27 12.59 2.05 -0.18 -0.22 180
0.75 -0.04 1.37 -3.26 12.36 2.17 -0.25 -0.27 186
0.64 -0.03 1.41 -3.44 12.77 2.34 -0.27 -0.32 192
0.52 -0.04 1.56 -3.61 13.34 2.52 -0.30 -0.35 199
0.45 -0.03 1.30 -3.70 14.26 2.68 -0.30 -0.40 205
0.45 -0.03 1.34 -4.72 15.08 2.90 -0.26 -0.43 211
0.39 -0.03 0.99 -4.80 16.10 3.13 -0.25 -0.45 218
0.34 -0.02 1.04 -4.61 16.25 3.36 -0.21 -0.45 224
0.34 -0.02 0.82 -5.02 16.28 3.50 -0.16 -0.44 230
0.35 -0.02 0.99 -5.42 15.38 3.56 -0.09 -0.41 237
0.29 -0.02 0.61 -5.34 15.28 3.58 -0.03 -0.39 243
0.26 -0.02 0.33 -5.09 14.93 3.61 -0.06 -0.38 249
0.24 -0.02 0.82 -5.28 15.63 3.62 -0.08 -0.37 256
0.20 -0.02 0.96 -5.11 16.28 3.60 -0.11 -0.38 262
0.17 -0.02 0.28 -5.35 16.08 3.55 -0.17 -0.40 268
0.18 -0.02 -0.14 -5.09 15.61 3.50 -0.34 -0.42 274
0.14 -0.01 0.42 -4.80 15.18 3.45 -0.53 -0.43 280
0.10 -0.01 1.10 -4.54 14.61 3.42 -0.68 -0.45 287
0.10 -0.01 2.06 -4.35 14.03 3.41 -0.75 -0.48 293
0.12 -0.01 3.07 -4.10 12.96 3.43 -0.73 -0.52 300
0.11 -0.01 3.81 -3.32 12.32 3.47 -0.62 -0.56 306
0.11 -0.01 4.11 -3.01 13.19 3.59 -0.53 -0.63 312
0.08 0.00 3.31 -2.32 13.91 3.94 -0.41 -0.71 318
0.08 -0.01 2.90 -1.45 11.41 4.19 -0.18 -0.77 324
0.10 -0.01 3.27 1.36 9.57 4.16 0.09 -0.84 330
0.07 -0.01 2.25 2.70 5.92 3.99 0.04 -0.97 336
0.08 -0.01 2.11 9.86 4.64 3.63 -0.16 -1.11 343
0.09 -0.01 2.02 16.58 3.89 2.71 -0.42 -1.33 350
0.07 -0.01 2.91 10.71 12.12 1.28 -0.48 -1.50 356
0.06 -0.01 2.11 7.71 18.19 -0.02 -0.31 -1.43 362
0.07 -0.00 2.18 6.48 18.26 -0.72 -0.01 -1.32 368
0.07 -0.01 2.02 6.89 13.02 -1.15 0.11 -1.27 374
0.06 -0.01 1.84 7.00 8.91 -1.46 0.02 -1.24 380
0.05 -0.01 1.71 6.08 6.99 -1.68 -0.06 -1.21 387
0.07 -0.01 2.07 5.13 6.87 -1.87 -0.08 -1.18 393
0.07 -0.01 2.45 4.26 7.08 -1.99 -0.05 -1.16 399
0.06 -0.01 2.54 3.92 6.68 -2.07 0.03 -1.12 405
0.06 -0.01 2.54 3.91 5.98 -2.17 0.11 -1.07 411
0.05 -0.01 2.38 3.92 5.66 -2.21 0.15 -1.00 417
0.06 -0.01 2.28 3.74 5.84 -2.29 0.17 -0.88 424
0.07 -0.01 2.16 3.40 6.14 -2.34 0.18 -0.80 431
0.07 -0.01 2.23 3.27 6.64 -2.38 0.18 -0.66 437
0.06 -0.01 2.29 3.28 7.12 -2.41 0.18 -0.51 443
0.05 -0.00 2.52 3.16 7.61 -2.47 0.21 -0.36 449
0.06 -0.01 2.74 3.00 8.30 -2.55 0.27 -0.21 455
0.07 -0.01 2.79 2.76 8.88 -2.67 0.38 -0.10 461
0.06 -0.01 2.84 2.46 9.51 -2.82 0.50 0.00 467
0.06 -0.01 2.74 2.06 9.93 -2.99 0.64 0.08 474
0.06 -0.01 2.62 1.56 10.21 -3.13 0.79 0.14 480
0.06 -0.01 2.45 1.04 10.54 -3.28 0.88 0.20 486
0.07 -0.01 2.22 0.40 10.75 -3.40 0.99 0.18 492
0.05 -0.01 2.03 -0.46 11.06 -3.49 1.10 0.19 498
0.05 -0.01 1.80 -1.21 11.51 -3.53 1.20 0.19 504
0.05 -0.01 1.42 -1.96 11.92 -3.55 1.30 0.19 512
0.06 -0.01 1.11 -2.69 12.28 -3.54 1.35 0.18 518
0.05 -0.00 0.81 -3.35 12.72 -3.52 1.39 0.17 524
0.04 -0.00 0.49 -4.07 13.07 -3.48 1.40 0.16 530
0.04 -0.00 0.43 -4.72 13.42 -3.42 1.38 0.17 536
0.05 -0.01 0.38 -5.15 13.83 -3.36 1.36 0.20 542
0.04 -0.00 0.39 -5.50 14.35 -3.30 1.34 0.24 548
0.05 -0.00 0.35 -5.76 14.74 -3.24 1.32 0.28 555
0.04 -0.00 0.28 -6.01 15.19 -3.18 1.32 0.35 561
0.06 -0.01 0.09 -6.16 15.52 -3.13 1.31 0.41 567
0.04 -0.00 0.09 -6.33 15.71 -3.09 1.31 0.48 574
0.05 -0.00 -0.03 -6.47 15.74 -3.04 1.31 0.55 580
0.05 -0.00 -0.10 -6.59 15.49 -3.00 1.30 0.61 586
0.05 -0.01 -0.12 -6.90 15.48 -2.93 1.26 0.66 592
0.05 -0.00 -0.23 -7.16 15.28 -2.84 1.21 0.68 599
0.04 -0.00 0.02 -7.28 14.89 -2.74 1.16 0.69 605
0.04 -0.00 0.21 -7.31 14.77 -2.63 1.10 0.70 611
0.05 -0.00 0.43 -7.45 14.72 -2.52 1.07 0.70 617
0.05 -0.00 0.39 -7.64 14.62 -2.39 1.05 0.72 623
0.04 -0.00 0.08 -7.81 14.43 -2.29 1.04 0.74 629
0.03 -0.00 -0.32 -8.07 14.24 -2.16 1.01 0.77 635
0.05 0.00 -0.82 -8.33 14.06 -2.01 0.95 0.81 643
0.04 -0.00 -1.30 -8.68 13.82 -1.84 0.84 0.85 649
0.05 -0.00 -1.54 -9.08 13.46 -1.67 0.69 0.89 655
0.04 -0.00 -1.76 -9.32 13.16 -1.49 0.54 0.93 661
0.05 -0.00 -1.75 -9.43 12.82 -1.35 0.40 0.96 667
0.05 -0.01 -1.70 -9.49 12.64 -1.20 0.27 0.98 673
0.05 -0.00 -1.73 -9.49 12.43 -1.08 0.21 0.99 679
0.04 -0.00 -1.71 -9.39 12.34 -0.98 0.12 0.99 686
0.05 0.00 -1.71 -9.38 12.28 -0.92 0.04 0.98 692
0.06 -0.01 -1.58 -9.36 12.27 -0.89 -0.01 0.95 699
0.06 -0.01 -1.31 -9.37 12.26 -0.90 -0.03 0.90 705
0.05 -0.00 -0.90 -9.50 12.03 -0.94 -0.00 0.85 711
0.06 -0.01 -0.63 -9.73 11.44 -1.00 0.06 0.79 717
0.06 -0.01 -0.23 -9.89 10.72 -1.05 0.16 0.73 723
0.06 -0.01 0.00 -10.21 9.95 -1.09 0.29 0.67 730
0.04 -0.00 0.07 -10.54 9.36 -1.08 0.42 0.63 736
0.06 -0.01 -0.05 -10.81 8.69 -1.01 0.56 0.60 742
0.07 -0.01 -0.38 -10.89 7.98 -0.97 0.70 0.59 748
0.06 -0.01 -1.13 -10.94 7.46 -0.89 0.78 0.62 754
0.05 -0.00 -2.27 -11.11 7.42 -0.79 0.87 0.69 761
0.05 0.00 -3.50 -11.34 7.43 -0.71 0.86 0.78 768
0.06 -0.01 -4.44 -11.62 7.33 -0.63 0.71 0.86 774
0.06 -0.01 -4.83 -12.02 7.01 -0.54 0.43 0.92 780
0.04 -0.00 -4.39 -12.41 6.73 -0.47 0.14 0.94 786
0.06 -0.00 -3.55 -12.79 6.62 -0.36 -0.10 0.92 792
0.05 -0.01 -2.32 -13.04 6.48 -0.24 -0.21 0.85 798
0.05 -0.01 -1.22 -17.42 7.00 -0.10 -0.30 0.76 804
0.05 -0.00 -2.75 -21.15 13.68 0.85 -0.45 0.59 812
0.05 -0.01 -2.33 -13.32 -0.02 1.13 -0.60 0.43 818
0.04 -0.00 -3.62 -15.49 3.57 1.37 -0.90 0.30 824
0.06 -0.01 -2.12 -10.83 7.58 1.66 -1.14 0.29 830
0.04 -0.00 -1.00 -5.54 8.43 1.74 -1.11 0.26 836
0.05 0.00 0.88 3.88 13.66 1.79 -0.95 0.29 842
0.05 0.03 2.13 6.56 14.62 1.63 -0.71 0.37 848
0.04 0.05 1.64 3.65 13.28 1.38 -0.50 0.49 855
0.04 0.13 0.32 3.38 11.70 1.23 -0.37 0.52 861
0.04 0.15 -2.00 -0.20 9.47 1.27 -0.30 0.42 868
0.04 0.19 -2.85 -1.90 9.91 1.70 -0.34 0.26 874
0.03 0.26 -3.06 -2.27 11.67 2.06 -0.35 0.08 880
0.04 0.29 -1.99 -2.40 15.58 2.44 -0.37 -0.14 886
0.04 0.34 0.01 -2.35 17.73 2.44 -0.46 -0.29 892
0.04 0.40 1.29 -2.28 18.26 2.15 -0.43 -0.32 899
0.04 0.41 1.51 -2.64 18.39 1.62 -0.70 -0.30 905
0.05 0.42 2.65 -2.04 14.52 0.83 -0.81 -0.18 912
0.04 0.43 1.54 -1.70 11.28 0.48 -0.54 0.06 918
0.05 0.45 0.41 -1.47 10.88 0.40 -0.49 0.13 924
0.06 0.45 -0.01 -0.93 11.00 0.33 -0.40 0.12 930
0.05 0.43 0.07 -0.85 10.36 0.17 -0.22 0.09 936
0.05 0.46 0.40 -1.03 9.82 0.12 -0.17 0.08 943
0.06 0.46 0.87 -1.13 9.90 0.13 -0.19 0.09 949
0.06 0.46 0.71 -1.17 10.04 0.12 -0.21 0.12 956
0.07 0.46 0.53 -1.30 9.98 0.10 -0.19 0.11 962
0.08 0.49 0.33 -1.03 9.98 0.08 -0.16 0.11 968
0.08 0.52 0.49 -0.97 9.98 0.06 -0.15 0.11 974
0.08 0.52 0.40 -1.02 9.95 0.03 -0.12 0.12 980
0.09 0.56 0.41 -0.97 9.87 0.01 -0.10 0.12 987
0.07 0.58 0.40 -0.91 9.89 0.01 -0.09 0.12 993
0.08 0.62 0.40 -0.88 9.95 0.00 -0.08 0.12 999
0.09 0.65 0.35 -0.93 9.92 0.00 -0.07 0.11 1005
0.10 0.66 0.26 -0.89 9.89 0.01 -0.06 0.11 1011
0.08 0.65 0.32 -0.89 9.99 0.01 -0.05 0.11 1018
0.11 0.69 0.34 -1.00 10.14 0.02 -0.04 0.11 1025
0.11 0.68 0.33 -0.98 10.07 0.02 -0.02 0.11 1031
0.10 0.69 0.38 -0.99 10.06 0.02 -0.02 0.11 1037
0.12 0.69 0.38 -0.94 9.99 0.02 -0.01 0.11 1043
0.11 0.67 0.44 -1.03 10.03 0.03 -0.00 0.12 1049
0.11 0.66 0.40 -0.98 10.06 0.02 -0.00 0.13 1056
0.10 0.67 0.38 -1.00 9.99 0.03 0.00 0.13 1062
0.11 0.66 0.43 -0.97 9.96 0.02 0.00 0.12 1069
0.11 0.66 0.49 -0.96 9.88 0.02 -0.00 0.12 1075
0.11 0.65 0.49 -0.96 9.90 0.02 -0.00 0.12 1081
0.12 0.64 0.50 -0.98 9.89 0.02 -0.02 0.12 1087
0.11 0.61 0.53 -0.98 9.92 0.02 -0.03 0.11 1093
0.11 0.59 0.46 -0.97 9.98 0.02 -0.03 0.10 1100
0.13 0.60 0.49 -1.00 9.95 0.02 -0.05 0.10 1106
0.14 0.58 0.46 -1.03 9.96 0.02 -0.05 0.09 1113
0.13 0.55 0.48 -1.01 10.00 0.02 -0.05 0.09 1119
0.13 0.55 0.40 -0.97 9.94 0.02 -0.05 0.10 1125
0.16 0.52 0.44 -1.01 10.00 0.02 -0.05 0.10 1131
0.14 0.51 0.41 -1.00 9.94 0.02 -0.04 0.09 1138
0.12 0.52 0.39 -1.01 9.92 0.03 -0.04 0.09 1144
0.14 0.49 0.41 -1.02 9.98 0.03 -0.03 0.10 1150
0.13 0.44 0.42 -1.01 9.96 0.03 -0.02 0.10 1157
0.14 0.39 0.45 -1.04 9.97 0.04 -0.01 0.11 1163
0.15 0.37 0.44 -0.99 9.94 0.04 -0.01 0.10 1169
0.17 0.32 0.44 -1.03 9.95 0.04 -0.00 0.10 1175
0.19 0.30 0.47 -0.98 9.89 0.03 -0.00 0.09 1181
0.16 0.30 0.48 -1.03 9.90 0.04 -0.00 0.09 1188
0.19 0.27 0.49 -1.01 9.91 0.03 -0.00 0.09 1195
0.20 0.22 0.49 -1.06 9.90 0.04 -0.01 0.09 1201
0.22 0.17 0.50 -1.06 9.86 0.04 -0.00 0.09 1207
0.22 0.19 0.47 -1.06 9.93 0.04 -0.00 0.09 1213
0.23 0.15 0.45 -1.02 9.93 0.04 0.01 0.09 1219
0.24 0.13 0.46 -1.10 9.97 0.04 0.00 0.08 1225
0.23 0.06 0.47 -1.07 9.95 0.04 0.01 0.08 1231
0.25 0.08 0.49 -1.08 9.96 0.04 0.00 0.08 1239
0.27 0.07 0.49 -1.08 9.90 0.04 -0.00 0.08 1245
0.25 0.06 0.50 -1.11 9.94 0.03 -0.01 0.08 1251
0.26 0.06 0.55 -1.10 9.90 0.03 -0.02 0.08 1257
0.27 0.04 0.53 -1.11 9.92 0.03 -0.02 0.07 1263
0.31 0.05 0.48 -1.10 9.97 0.02 -0.03 0.08 1269
0.31 0.02 0.52 -1.07 9.95 0.03 -0.03 0.07 1275
0.33 0.01 0.52 -1.12 9.90 0.02 -0.04 0.06 1283
0.37 0.01 0.54 -1.07 9.95 0.02 -0.04 0.07 1289
0.35 0.00 0.52 -0.82 9.89 0.03 -0.05 0.06 1295
0.36 -0.03 0.49 -1.14 9.96 0.03 -0.06 0.07 1301
0.40 -0.00 0.53 -1.08 9.93 0.02 -0.06 0.06 1307
0.43 -0.01 0.49 -1.12 9.95 0.02 -0.07 0.06 1313
0.47 -0.03 0.51 -1.06 9.92 0.02 -0.07 0.05 1319
0.48 -0.02 0.61 -0.96 9.92 0.02 -0.07 0.05 1326
0.52 -0.04 0.50 -1.06 10.00 0.03 -0.07 0.06 1333
0.54 -0.03 0.45 -1.15 10.06 0.04 -0.07 0.05 1339
0.56 -0.04 0.49 -1.14 10.00 0.05 -0.07 0.06 1345
0.61 -0.03 0.44 -1.18 10.03 0.06 -0.08 0.06 1351
0.62 -0.04 0.50 -1.07 10.00 0.07 -0.07 0.05 1357
0.64 -0.03 0.53 -1.14 10.04 0.08 -0.07 0.06 1364
0.66 -0.04 0.46 -1.14 10.03 0.09 -0.08 0.05 1371
0.70 -0.05 0.37 -1.34 10.09 0.11 -0.08 0.05 1377
0.75 -0.04 0.50 -1.23 10.09 0.13 -0.08 0.05 1383
0.79 -0.04 0.39 -1.14 10.05 0.16 -0.08 0.04 1389
0.79 -0.05 0.46 -1.22 10.02 0.18 -0.09 0.04 1396
0.80 -0.05 0.48 -1.18 10.17 0.20 -0.09 0.03 1402
0.83 -0.04 0.51 -1.26 10.10 0.24 -0.09 0.03 1409
0.86 -0.05 0.01 -1.36 10.12 0.28 -0.10 0.02 1415
0.87 -0.05 0.52 -1.43 10.24 0.32 -0.12 0.03 1421
0.89 -0.04 0.56 -1.36 10.29 0.38 -0.13 0.02 1428
0.93 -0.05 0.44 -1.28 10.38 0.43 -0.14 0.01 1434
0.95 -0.03 0.46 -1.53 10.39 0.47 -0.13 0.00 1440
0.99 -0.04 0.40 -1.37 10.21 0.52 -0.12 0.01 1446
0.99 -0.05 0.29 -1.50 10.27 0.53 -0.11 0.02 1453
1.01 -0.03 0.34 -1.54 10.22 0.55 -0.08 0.03 1460
1.01 -0.05 0.31 -1.55 10.40 0.58 -0.06 0.04 1466
1.02 -0.04 0.38 -1.67 10.36 0.60 -0.03 0.04 1472
1.09 -0.05 0.45 -1.69 10.38 0.62 -0.00 0.05 1478
1.07 -0.05 0.40 -1.69 10.14 0.64 0.01 0.04 1484
1.09 -0.05 0.42 -1.71 10.67 0.65 0.02 0.03 1491
1.13 -0.05 0.52 -1.78 10.22 0.73 0.00 0.03 1498
1.12 -0.05 0.49 -1.89 10.58 0.72 -0.01 0.02 1504
1.16 -0.05 0.66 -2.04 10.65 0.78 -0.03 0.02 1510
1.17 -0.05 0.49 -2.11 10.54 0.83 -0.04 0.01 1516
1.18 -0.06 0.49 -2.12 10.52 0.89 -0.07 -0.00 1523
1.21 -0.05 0.54 -2.11 10.76 0.92 -0.07 -0.02 1529
1.22 -0.04 0.51 -2.22 10.49 0.99 -0.08 -0.02 1536
1.21 -0.05 0.68 -2.24 10.91 1.02 -0.08 -0.03 1542
1.20 -0.05 0.60 -2.32 10.98 1.08 -0.09 -0.04 1548
1.21 -0.04 0.75 -2.54 10.60 1.13 -0.10 -0.05 1555
1.27 -0.05 0.80 -2.64 10.89 1.16 -0.10 -0.08 1561
1.30 -0.04 0.86 -2.64 10.65 1.22 -0.11 -0.10 1567
1.27 -0.04 0.91 -2.82 10.98 1.31 -0.12 -0.11 1573
1.22 -0.04 0.52 -2.71 11.40 1.37 -0.12 -0.13 1581
1.22 -0.04 0.51 -3.13 11.04 1.44 -0.11 -0.14 1587
1.20 -0.07 0.42 -3.00 11.31 1.54 -0.12 -0.15 1593
1.14 -0.06 0.74 -3.35 11.34 1.64 -0.12 -0.16 1599
1.12 -0.04 0.76 -3.30 11.55 1.74 -0.15 -0.19 1605
1.05 -0.05 1.14 -3.64 11.43 1.87 -0.19 -0.21 1612
0.98 -0.03 0.88 -3.39 12.09 2.03 -0.20 -0.24 1618
0.96 -0.04 0.55 -3.34 11.89 2.14 -0.23 -0.25 1625
0.93 -0.04 0.53 -4.05 13.59 2.33 -0.23 -0.26 1631
0.85 -0.04 1.13 -4.30 13.80 2.55 -0.23 -0.29 1638
0.78 -0.06 1.13 -4.50 13.55 2.80 -0.25 -0.33 1644
0.70 -0.03 1.09 -4.80 15.31 3.09 -0.26 -0.37 1650
0.66 -0.04 0.83 -5.32 15.46 3.38 -0.28 -0.41 1656
0.58 -0.04 1.26 -6.15 16.58 3.67 -0.30 -0.46 1664
0.56 -0.03 1.68 -6.03 15.99 3.96 -0.30 -0.50 1670
0.53 -0.03 2.08 -6.93 17.67 4.09 -0.28 -0.53 1676
0.50 -0.03 2.12 -7.37 17.36 4.16 -0.25 -0.54 1682
0.43 -0.02 1.83 -9.07 18.70 4.19 -0.18 -0.57 1688
0.38 -0.03 1.43 -8.74 18.26 4.20 -0.16 -0.57 1695
0.35 -0.02 2.38 -8.42 19.60 4.21 -0.11 -0.57 1701
0.32 -0.02 2.68 -7.75 19.22 4.17 0.08 -0.58 1708
0.24 -0.02 1.09 -7.51 19.31 4.08 0.17 -0.61 1714
0.23 -0.01 0.62 -6.73 18.53 3.99 0.06 -0.64 1721
0.18 -0.02 1.47 -5.70 17.55 3.92 -0.05 -0.66 1727
0.14 -0.01 2.81 -4.57 16.61 3.88 -0.04 -0.70 1733
0.17 -0.02 3.59 -3.35 15.30 3.89 0.05 -0.74 1739
0.14 -0.01 4.11 -2.12 14.42 3.92 0.19 -0.80 1745
0.12 -0.01 4.21 -0.89 13.19 3.96 0.36 -0.89 1752
0.10 -0.01 4.76 -0.25 12.63 4.07 0.50 -1.01 1759
0.10 -0.01 3.76 0.52 15.10 4.26 0.64 -1.15 1765
0.08 -0.01 3.24 2.13 15.23 4.28 0.80 -1.32 1771
0.09 0.00 2.65 2.90 12.91 4.28 0.95 -1.52 1777
0.09 -0.01 3.59 9.92 10.21 4.28 1.20 -1.83 1783
0.09 -0.01 2.13 10.16 6.75 4.21 1.12 -2.31 1789
0.07 -0.01 0.95 10.73 4.07 2.38 0.99 -2.59 1797
0.08 -0.01 -0.19 14.93 13.65 0.70 0.87 -2.69 1803
0.09 -0.01 0.76 9.70 18.61 -0.60 0.89 -2.62 1809
0.08 -0.01 1.01 6.56 16.83 -1.44 0.66 -2.53 1815
0.10 -0.01 0.38 7.15 13.55 -1.97 0.41 -2.39 1821
0.08 -0.01 0.49 6.56 10.59 -2.39 0.27 -2.16 1827
0.09 -0.01 1.60 5.46 8.41 -2.68 0.15 -1.94 1835
0.09 -0.01 2.93 4.58 7.13 -2.88 0.09 -1.79 1841
0.09 -0.01 3.51 3.82 6.45 -3.00 0.16 -1.62 1847
0.09 -0.01 3.56 3.15 5.91 -3.06 0.35 -1.44 1853
0.08 -0.01 3.41 2.71 5.59 -3.07 0.54 -1.26 1859
0.09 -0.01 3.05 2.50 5.39 -3.06 0.67 -1.08 1865
0.08 -0.00 2.49 2.41 5.42 -3.04 0.76 -0.89 1871
0.07 -0.01 2.13 2.27 5.77 -3.02 0.74 -0.70 1878
0.08 -0.01 1.96 2.13 6.31 -3.01 0.70 -0.54 1884
0.09 -0.01 1.99 2.04 6.89 -3.01 0.64 -0.38 1891
0.08 -0.01 2.16 1.89 7.50 -3.04 0.63 -0.22 1897
0.07 -0.01 2.43 1.73 8.22 -3.10 0.68 -0.07 1903
0.07 -0.00 2.80 1.64 9.36 -3.20 0.78 0.05 1909
0.08 -0.01 2.91 1.54 10.16 -3.36 0.93 0.14 1915
0.07 -0.01 2.79 1.45 10.82 -3.57 1.06 0.21 1922
0.07 -0.01 2.40 1.02 11.19 -3.78 1.21 0.30 1928
0.08 -0.01 2.00 0.29 11.22 -3.96 1.33 0.31 1935
0.06 -0.01 1.64 -0.47 11.37 -4.06 1.42 0.34 1941
0.06 -0.01 1.22 -1.31 11.50 -4.11 1.49 0.35 1947
0.08 -0.00 0.93 -2.26 11.66 -4.12 1.56 0.35 1953
0.08 -0.01 0.67 -3.27 11.87 -4.09 1.64 0.34 1959
0.06 -0.01 0.34 -4.05 12.27 -4.05 1.69 0.33 1966
0.07 -0.00 0.02 -4.73 12.64 -3.98 1.73 0.31 1973
0.08 -0.01 -0.18 -5.17 12.94 -3.89 1.75 0.31 1979
0.06 -0.01 -0.36 -5.48 13.41 -3.79 1.76 0.31 1985
0.07 -0.00 -0.50 -5.65 13.95 -3.68 1.72 0.33 1991
0.07 -0.01 -0.53 -5.64 14.53 -3.59 1.67 0.36 1997
0.06 -0.01 -0.48 -5.56 14.97 -3.51 1.61 0.40 2003
0.07 -0.00 -0.49 -5.84 15.47 -3.45 1.58 0.46 2011
0.07 -0.01 -0.66 -6.29 15.89 -3.38 1.59 0.51 2017
0.06 -0.01 -0.80 -6.54 16.34 -3.31 1.62 0.55 2023
0.07 -0.00 -1.06 -6.73 16.75 -3.24 1.65 0.58 2029
0.08 -0.01 -1.32 -6.86 17.15 -3.19 1.67 0.60 2035
0.08 -0.01 -1.62 -7.04 17.25 -3.14 1.65 0.60 2042
0.07 -0.00 -1.74 -7.25 17.26 -3.09 1.59 0.60 2049
0.08 -0.01 -1.73 -7.42 17.21 -3.03 1.49 0.59 2055
0.07 -0.01 -1.58 -7.66 17.16 -2.96 1.42 0.57 2061
0.08 0.00 -1.39 -8.56 16.95 -2.88 1.33 0.55 2067
0.08 -0.01 -1.23 -8.32 16.67 -2.79 1.26 0.55 2074
0.08 -0.01 -1.20 -8.69 16.24 -2.67 1.19 0.55 2080
0.09 -0.00 -1.24 -9.04 15.73 -2.55 1.12 0.57 2086
0.09 -0.01 -1.23 -9.29 15.20 -2.40 1.01 0.59 2093
0.08 -0.01 -1.40 -9.54 14.66 -2.21 0.87 0.63 2099
0.08 0.00 -1.38 -9.62 14.16 -2.00 0.73 0.67 2105
0.09 -0.01 -1.44 -9.82 13.90 -1.78 0.60 0.72 2112
0.09 -0.01 -1.46 -9.89 13.75 -1.58 0.46 0.77 2118
0.09 -0.00 -1.45 -9.99 13.66 -1.42 0.35 0.81 2124
0.10 -0.01 -1.51 -10.08 13.52 -1.27 0.28 0.85 2130
0.09 -0.01 -1.72 -10.19 13.67 -1.16 0.17 0.89 2137
0.10 -0.01 -2.03 -10.23 13.64 -1.10 0.15 0.93 2144
0.09 -0.01 -2.28 -10.27 13.24 -1.09 0.10 0.97 2150
0.08 -0.01 -2.26 -10.46 12.82 -1.12 0.05 0.98 2156
0.11 -0.01 -1.97 -10.64 12.28 -1.17 0.03 0.97 2162
0.09 -0.01 -1.59 -10.99 11.56 -1.24 0.10 0.95 2169
0.09 -0.01 -1.33 -11.52 10.57 -1.31 0.24 0.90 2176
0.10 -0.01 -1.23 -12.06 9.74 -1.36 0.42 0.83 2182
0.10 -0.01 -1.31 -12.73 8.71 -1.37 0.62 0.75 2188
0.10 -0.01 -1.77 -13.33 7.59 -1.33 0.84 0.67 2194
0.11 -0.01 -2.70 -13.71 6.39 -1.22 1.03 0.62 2200
0.10 -0.01 -4.05 -14.07 5.42 -1.05 1.18 0.59 2207
0.09 -0.01 -5.74 -14.60 5.00 -0.83 1.22 0.60 2213
0.11 -0.01 -7.40 -14.99 4.98 -0.63 1.11 0.61 2220
0.10 -0.01 -8.41 -15.37 5.51 -0.40 0.80 0.58 2226
0.10 -0.01 -8.67 -15.71 6.10 -0.21 0.44 0.50 2232
0.11 -0.01 -11.96 -24.12 12.57 0.07 -0.27 0.38 2239
0.09 -0.01 -9.74 -18.84 4.88 0.71 -1.12 0.23 2245
0.09 -0.01 -6.27 -20.04 1.78 1.04 -1.78 0.02 2251
0.10 -0.01 -4.48 -21.67 4.88 1.46 -2.09 -0.15 2257
0.08 -0.01 -2.99 -16.48 4.86 1.93 -2.05 -0.19 2264
0.05 -0.01 -0.19 -7.34 6.79 2.16 -1.84 -0.16 2270
0.06 0.01 1.14 1.16 12.58 2.21 -1.51 -0.05 2277
0.05 0.04 3.86 4.74 15.40 2.05 -1.02 0.21 2283
0.05 0.11 4.35 3.88 14.52 1.77 -0.48 0.51 2289
0.05 0.14 1.98 2.86 13.07 1.62 -0.02 0.69 2295
0.04 0.23 -1.04 -1.03 11.79 1.67 0.12 0.71 2301
0.04 0.27 -3.16 -2.57 12.48 2.02 -0.07 0.57 2309
0.05 0.30 -3.42 -2.99 14.30 2.33 -0.30 0.34 2315
0.03 0.36 -2.07 -3.01 17.65 2.53 -0.37 0.10 2321
0.03 0.39 -1.19 -2.17 17.84 2.48 -0.30 -0.09 2327
0.04 0.41 0.43 -2.10 16.60 2.08 -0.37 -0.16 2333
0.03 0.43 1.44 -2.22 14.96 1.73 -0.42 -0.15 2340
0.03 0.44 1.60 -1.76 13.99 1.41 -0.69 -0.07 2347
0.03 0.43 1.51 -1.70 12.85 1.07 -0.93 -0.02 2353
0.03 0.44 1.11 -1.81 12.03 0.78 -0.79 0.13 2359
0.05 0.44 0.11 -1.33 11.71 0.50 -0.62 0.19 2366
0.05 0.41 -0.18 -1.12 10.55 0.28 -0.47 0.15 2372
0.04 0.46 0.05 -1.31 10.11 0.20 -0.38 0.07 2378
0.06 0.50 0.39 -0.99 10.16 0.16 -0.32 0.07 2384
0.07 0.53 0.83 -1.04 10.42 0.12 -0.26 0.11 2391
0.07 0.55 0.04 -0.99 9.70 0.08 -0.25 0.11 2398
0.09 0.57 0.26 -0.93 10.08 0.03 -0.18 0.11 2404
0.09 0.60 0.34 -0.98 10.05 0.00 -0.14 0.11 2410
0.08 0.64 0.32 -1.05 9.96 -0.01 -0.14 0.11 2416
0.07 0.66 0.35 -1.02 10.03 -0.01 -0.14 0.09 2422
0.08 0.65 0.25 -0.96 10.05 -0.00 -0.13 0.09 2428
0.09 0.65 0.35 -1.01 9.99 0.00 -0.12 0.08 2436
0.10 0.66 0.23 -1.04 10.00 0.00 -0.11 0.08 2442
0.09 0.67 0.30 -1.05 10.07 0.01 -0.11 0.09 2448
0.11 0.67 0.26 -1.08 10.02 0.02 -0.09 0.09 2454
0.13 0.65 -0.05 -0.99 10.38 0.02 -0.07 0.10 2460
0.13 0.64 0.25 -1.03 10.03 0.02 -0.06 0.10 2467
0.12 0.64 0.30 -1.06 10.00 0.02 -0.05 0.10 2473
0.16 0.63 0.31 -1.03 9.93 0.02 -0.03 0.11 2480
0.13 0.63 0.29 -1.04 9.95 0.03 -0.02 0.11 2486
0.10 0.60 0.32 -1.03 10.02 0.03 -0.01 0.11 2492
0.12 0.60 0.39 -1.04 9.90 0.04 -0.01 0.11 2498
0.13 0.58 0.32 -0.99 9.94 0.04 -0.02 0.11 2505
0.13 0.55 0.40 -1.05 9.99 0.04 -0.02 0.10 2511
0.17 0.52 0.42 -1.07 9.95 0.03 -0.03 0.10 2518
0.17 0.49 0.41 -1.03 9.97 0.03 -0.04 0.09 2524
0.18 0.45 0.34 -1.08 9.97 0.03 -0.05 0.10 2530
0.20 0.41 0.32 -1.08 10.02 0.00 -0.05 0.09 2536
0.23 0.40 0.32 -1.07 9.98 0.03 -0.05 0.10 2542
0.21 0.39 0.33 -1.05 10.03 0.04 -0.05 0.10 2549
0.21 0.36 0.32 -1.03 9.99 0.03 -0.04 0.10 2555
0.24 0.31 0.33 -1.08 9.97 0.04 -0.04 0.10 2562
0.24 0.28 0.31 -1.02 9.96 0.04 -0.03 0.10 2568
0.27 0.23 0.33 -1.03 9.93 0.04 -0.03 0.10 2574
0.27 0.21 0.32 -1.07 9.89 0.04 -0.02 0.10 2580
0.28 0.20 0.35 -1.06 9.95 0.05 -0.02 0.10 2586
0.28 0.17 0.38 -1.07 9.91 0.05 -0.02 0.10 2593
0.27 0.12 0.32 -1.08 9.89 0.05 -0.02 0.10 2599
0.29 0.11 0.36 -1.12 9.90 0.05 -0.02 0.09 2606
0.32 0.09 0.38 -1.12 9.91 0.05 -0.02 0.10 2612
0.34 0.06 0.37 -1.08 9.89 0.05 -0.01 0.09 2618
0.34 0.08 0.35 -1.08 9.87 0.04 -0.01 0.10 2624
0.34 0.05 0.37 -1.08 9.91 0.04 -0.01 0.10 2630
0.34 0.02 0.36 -1.12 9.93 0.04 -0.00 0.10 2637
0.35 0.03 0.38 -1.11 9.92 0.04 -0.00 0.10 2643
0.38 0.05 0.40 -1.13 9.95 0.03 -0.00 0.10 2650
0.37 0.03 0.35 -1.15 9.92 0.03 0.00 0.10 2656
0.39 0.02 0.39 -1.13 9.95 0.03 -0.00 0.09 2662
0.41 0.00 0.42 -1.13 9.94 0.03 -0.01 0.09 2668
0.43 -0.00 0.38 -1.13 9.91 0.03 -0.01 0.10 2674
0.44 -0.01 0.37 -1.11 9.92 0.03 -0.01 0.09 2681
0.43 -0.02 0.41 -1.15 9.94 0.03 -0.02 0.09 2688
0.46 -0.01 0.35 -1.19 10.06 0.03 -0.02 0.09 2694
0.45 -0.02 0.40 -1.09 9.92 0.03 -0.03 0.09 2700
0.47 -0.03 0.37 -1.12 9.94 0.03 -0.03 0.09 2706
0.50 -0.01 0.43 -1.11 9.92 0.03 -0.03 0.08 2712
0.53 -0.02 0.40 -1.16 9.92 0.04 -0.03 0.09 2718
0.53 -0.04 0.34 -1.19 9.98 0.04 -0.03 0.08 2725
0.54 -0.03 0.41 -1.15 10.01 0.04 -0.03 0.08 2732
0.57 -0.04 0.36 -1.20 9.97 0.04 -0.03 0.07 2738
0.59 -0.04 0.41 -1.21 9.96 0.05 -0.03 0.08 2744
0.59 -0.04 0.37 -1.24 9.91 0.05 -0.04 0.07 2750
0.61 -0.04 0.36 -1.21 9.99 0.05 -0.04 0.07 2756
0.62 -0.05 0.45 -1.16 9.99 0.06 -0.04 0.06 2762
0.64 -0.04 0.39 -1.23 9.94 0.07 -0.05 0.07 2769
0.67 -0.03 0.44 -1.18 9.90 0.07 -0.05 0.05 2776
0.71 -0.04 0.41 -1.16 10.01 0.08 -0.05 0.06 2782
0.73 -0.05 0.41 -1.20 10.03 0.09 -0.06 0.06 2788
0.72 -0.04 0.20 -1.76 10.07 0.10 -0.07 0.05 2794
0.75 -0.04 0.48 -1.26 10.02 0.11 -0.07 0.05 2801
0.79 -0.05 0.49 -1.28 10.07 0.13 -0.08 0.04 2807
0.83 -0.03 0.36 -1.25 10.01 0.15 -0.09 0.03 2813
0.86 -0.05 0.54 -1.32 9.93 0.17 -0.09 0.02 2820
0.86 -0.06 0.34 -1.28 9.92 0.19 -0.10 0.01 2826
0.89 -0.04 0.59 -1.26 10.09 0.20 -0.09 0.01 2832
0.91 -0.05 0.47 -1.39 10.10 0.22 -0.09 -0.01 2839
0.92 -0.05 0.43 -1.27 10.11 0.24 -0.09 -0.01 2845
0.96 -0.04 0.54 -1.44 10.01 0.26 -0.10 -0.01 2851
0.97 -0.04 0.51 -1.46 10.10 0.29 -0.10 -0.02 2857
0.99 -0.05 0.34 -1.60 10.19 0.31 -0.10 -0.02 2864
1.02 -0.04 0.18 -1.57 10.13 0.34 -0.10 -0.02 2871
1.03 -0.04 0.33 -1.61 10.15 0.38 -0.11 -0.02 2877
1.04 -0.05 0.22 -1.54 10.19 0.42 -0.12 -0.01 2883
1.06 -0.05 0.28 -1.61 10.34 0.45 -0.11 -0.02 2889
1.07 -0.05 0.59 -1.74 10.37 0.49 -0.12 -0.01 2896
1.08 -0.05 0.20 -1.61 10.29 0.53 -0.11 -0.01 2903
1.12 -0.04 0.35 -1.79 10.49 0.58 -0.11 0.01 2909
1.11 -0.05 0.25 -1.64 10.46 0.61 -0.09 0.01 2915
1.14 -0.05 0.13 -1.73 10.73 0.69 -0.08 0.02 2921
1.16 -0.05 0.37 -1.80 10.56 0.70 -0.06 0.02 2928
1.17 -0.06 0.15 -1.99 10.58 0.75 -0.03 0.03 2934
1.21 -0.04 0.35 -1.94 10.67 0.79 -0.01 0.03 2940
1.25 -0.05 0.32 -1.87 10.71 0.84 -0.01 0.03 2947
1.27 -0.05 0.30 -1.92 10.67 0.91 0.00 0.02 2953
1.28 -0.04 0.55 -2.36 10.62 0.98 0.02 0.02 2960
1.30 -0.05 0.29 -2.25 10.43 1.03 0.02 0.01 2966
1.32 -0.06 0.31 -2.38 11.15 1.09 0.03 0.00 2972
1.32 -0.04 0.43 -2.41 10.51 1.18 0.05 0.00 2978
1.31 -0.06 0.52 -2.48 10.55 1.27 0.09 -0.01 2984
1.29 -0.05 0.50 -2.52 11.25 1.34 0.12 -0.03 2992
1.27 -0.05 0.56 -2.63 11.11 1.43 0.12 -0.04 2998
1.25 -0.05 0.61 -2.76 10.66 1.51 0.12 -0.06 3004
1.23 -0.05 0.39 -2.73 10.72 1.60 0.14 -0.07 3010
1.22 -0.05 0.30 -3.08 11.53 1.68 0.16 -0.07 3016
1.18 -0.06 0.63 -3.12 11.37 1.82 0.20 -0.08 3023
1.11 -0.04 0.73 -3.18 11.00 1.92 0.22 -0.09 3030
1.04 -0.05 1.00 -3.31 11.58 2.03 0.22 -0.12 3036
0.98 -0.04 0.77 -3.66 12.60 2.18 0.21 -0.15 3042
0.87 -0.03 0.93 -3.93 12.75 2.35 0.19 -0.18 3049
0.84 -0.04 0.88 -3.82 13.22 2.55 0.18 -0.21 3055
0.78 -0.04 0.92 -4.27 13.15 2.74 0.20 -0.21 3061
0.69 -0.04 0.76 -4.17 12.72 2.95 0.14 -0.24 3067
0.67 -0.04 0.72 -4.73 14.09 3.24 0.18 -0.26 3074
0.60 -0.03 1.18 -5.51 15.50 3.54 0.19 -0.29 3081
0.57 -0.03 2.15 -5.53 17.85 3.90 0.22 -0.32 3087
0.51 -0.03 1.64 -6.39 17.90 4.19 0.28 -0.35 3093
0.46 -0.02 1.84 -6.89 17.34 4.28 0.33 -0.35 3099
0.46 -0.03 1.53 -7.78 18.66 4.28 0.37 -0.35 3106
0.41 -0.03 2.17 -9.28 19.81 4.28 0.43 -0.33 3112
0.38 -0.03 0.91 -9.03 18.65 4.28 0.49 -0.33 3119
0.34 -0.03 1.49 -9.23 20.26 4.28 0.55 -0.30 3125
0.32 -0.02 3.04 -8.72 19.91 4.28 0.66 -0.28 3131
0.27 -0.02 3.84 -8.49 20.31 4.28 0.87 -0.31 3138
0.22 -0.02 3.43 -7.95 19.93 4.28 1.08 -0.36 3144
0.20 -0.01 4.51 -6.78 18.90 4.28 1.29 -0.42 3150
0.19 -0.02 4.52 -5.76 18.05 4.28 1.50 -0.51 3156
0.16 -0.02 4.12 -3.96 17.44 4.27 1.67 -0.62 3163
0.19 -0.01 4.08 -2.57 16.67 4.27 1.82 -0.73 3170
0.14 -0.01 4.03 -0.49 15.30 4.28 1.99 -0.87 3176
0.12 -0.01 4.16 0.51 15.07 4.28 2.09 -1.06 3182
0.11 -0.01 3.57 0.70 17.17 4.28 2.19 -1.26 3188
0.10 -0.01 1.75 1.86 18.03 4.28 2.27 -1.43 3194
0.08 -0.01 0.44 2.64 16.64 4.28 2.33 -1.67 3202
0.07 -0.00 -2.14 6.49 13.24 4.28 2.36 -2.01 3208
0.09 -0.01 -1.15 13.82 10.23 4.28 2.34 -2.62 3214
0.07 -0.01 0.51 14.00 5.02 3.51 1.87 -3.14 3220
0.08 -0.00 -1.00 19.15 8.69 1.08 1.44 -3.40 3226
0.07 -0.01 1.47 14.96 20.28 -0.67 1.56 -3.43 3233
0.06 -0.01 2.14 8.65 20.02 -1.94 1.76 -3.32 3239
0.07 -0.01 0.91 8.08 16.65 -2.70 1.81 -3.19 3246
0.07 -0.01 -0.36 7.98 12.80 -3.33 1.79 -2.97 3252
0.06 -0.01 -1.04 6.69 10.62 -3.75 1.73 -2.69 3258
0.07 -0.00 -1.14 5.12 9.00 -4.01 1.58 -2.41 3264
0.08 -0.01 -0.94 3.88 8.09 -4.11 1.34 -2.19 3271
0.08 -0.01 -0.93 3.00 7.10 -4.13 1.09 -1.95 3277
0.07 -0.01 -0.76 2.56 6.39 -4.12 0.88 -1.70 3283
0.08 -0.01 -0.44 1.97 5.98 -4.08 0.71 -1.45 3290
0.08 -0.01 0.16 1.39 5.57 -4.02 0.58 -1.23 3296
0.07 -0.01 1.18 1.13 5.79 -3.95 0.50 -1.04 3302
0.07 -0.01 0.95 1.27 6.21 -3.88 0.50 -0.86 3308
0.08 -0.01 0.99 1.38 6.77 -3.81 0.58 -0.73 3314
0.08 -0.01 1.12 1.48 7.52 -3.77 0.67 -0.58 3320
0.07 -0.01 1.00 1.50 8.23 -3.75 0.78 -0.47 3326
0.07 -0.01 1.00 1.44 9.34 -3.81 0.90 -0.38 3334
0.07 -0.01 0.94 1.31 10.29 -3.85 1.03 -0.32 3340
0.06 -0.01 0.80 0.96 11.16 -3.99 1.14 -0.29 3346
0.05 -0.00 0.52 0.61 11.98 -4.12 1.26 -0.27 3352
0.07 -0.00 0.10 0.05 12.67 -4.21 1.36 -0.25 3358
0.07 -0.01 -0.27 -0.64 13.06 -4.26 1.45 -0.24 3364
0.06 -0.01 -0.59 -1.42 13.39 -4.28 1.52 -0.23 3372
0.07 -0.00 -0.86 -2.35 13.73 -4.28 1.59 -0.22 3378
0.07 -0.01 -1.15 -3.48 13.94 -4.28 1.65 -0.21 3384
0.06 -0.01 -1.37 -4.52 14.09 -4.28 1.69 -0.21 3390
0.06 -0.00 -1.55 -5.41 14.04 -4.28 1.72 -0.20 3396
0.07 -0.01 -1.80 -6.14 13.78 -4.26 1.71 -0.19 3403
0.06 -0.01 -1.77 -6.44 13.71 -4.21 1.67 -0.16 3409
0.06 -0.01 -1.84 -6.66 13.99 -4.13 1.62 -0.12 3416
0.07 -0.01 -1.60 -6.74 14.50 -4.00 1.56 -0.06 3422
0.06 -0.01 -1.32 -6.61 15.14 -3.84 1.50 -0.01 3428
0.06 -0.00 -1.12 -6.42 15.74 -3.72 1.49 0.04 3434
0.06 -0.01 -1.22 -6.45 16.31 -3.63 1.50 0.11 3441
0.05 -0.01 -1.52 -6.73 16.67 -3.53 1.48 0.16 3447
0.06 -0.00 -1.75 -6.92 16.80 -3.42 1.42 0.20 3453
0.06 -0.01 -1.74 -7.18 16.75 -3.30 1.33 0.23 3460
0.06 -0.01 -1.65 -7.49 16.68 -3.17 1.24 0.24 3466
0.07 0.00 -1.52 -7.90 16.72 -3.04 1.18 0.22 3473
0.07 -0.01 -1.42 -8.20 16.74 -2.89 1.12 0.19 3479
0.06 -0.01 -1.28 -8.45 16.74 -2.78 1.07 0.13 3485
0.07 -0.00 -1.23 -8.80 16.88 -2.65 1.04 0.09 3491
0.07 -0.01 -1.33 -9.17 16.88 -2.52 1.02 0.04 3497
0.07 -0.01 -1.50 -9.48 16.72 -2.41 1.02 0.01 3504
0.07 0.00 -1.68 -9.75 16.43 -2.30 1.03 -0.00 3511
0.07 -0.01 -1.94 -9.92 15.96 -2.19 1.05 0.01 3517
0.07 -0.01 -1.97 -10.04 15.54 -2.07 1.06 0.05 3523
0.07 0.00 -2.00 -10.23 14.80 -1.94 1.07 0.12 3529
0.07 -0.01 -1.85 -10.48 14.06 -1.80 1.05 0.22 3535
0.06 -0.01 -1.72 -10.78 13.46 -1.64 1.03 0.34 3543
0.07 -0.00 -1.75 -11.21 13.51 -1.47 0.98 0.49 3549
0.07 -0.01 -1.96 -11.44 13.81 -1.35 0.91 0.63 3555
0.07 -0.01 -2.24 -11.65 14.35 -1.31 0.82 0.78 3561
0.08 -0.01 -2.52 -11.69 14.89 -1.39 0.70 0.90 3568
0.07 -0.01 -2.65 -11.92 14.70 -1.59 0.57 0.98 3574
0.07 -0.00 -2.08 -12.51 13.42 -1.82 0.49 1.02 3580
0.07 -0.01 -1.37 -13.58 11.62 -1.98 0.52 1.03 3587
0.06 -0.01 -0.89 -14.85 9.45 -2.06 0.65 1.01 3593
0.07 -0.01 -1.03 -16.10 7.16 -2.00 0.86 0.98 3600
0.07 -0.01 -1.44 -17.12 5.29 -1.79 1.01 0.94 3606
0.06 -0.01 -2.53 -17.82 3.60 -1.46 1.15 0.89 3612
0.08 -0.00 -3.91 -18.10 2.62 -1.06 1.24 0.86 3618
0.07 -0.01 -5.69 -18.45 2.53 -0.61 1.33 0.84 3624
0.07 -0.01 -6.97 -18.98 3.08 -0.19 1.32 0.79 3632
0.07 -0.01 -9.45 -21.29 4.84 0.15 0.99 0.68 3638
0.07 -0.01 -13.83 -25.66 11.70 0.82 -0.18 0.60 3644
0.06 -0.01 -10.84 -18.15 1.90 1.10 -1.32 0.40 3650
0.07 -0.01 -10.19 -23.14 6.76 1.29 -2.22 0.22 3656
0.07 -0.01 -5.63 -21.96 6.51 1.68 -2.51 0.13 3663
0.06 -0.01 -2.03 -11.12 6.31 2.05 -2.40 0.13 3670
0.06 0.01 -0.84 -4.40 8.56 2.06 -2.15 0.14 3676
0.06 0.03 1.89 6.43 15.26 2.10 -1.69 0.32 3682
0.03 0.12 3.73 5.17 16.32 1.89 -1.19 0.62 3688
0.05 0.18 3.39 5.99 13.46 1.63 -0.65 0.87 3695
0.03 0.30 0.55 0.91 11.35 1.61 -0.31 0.96 3701
0.03 0.31 -2.08 -1.34 10.27 1.94 -0.21 0.93 3707
0.05 0.33 -4.24 -2.85 12.14 2.41 -0.28 0.76 3714
0.04 0.38 -4.77 -3.39 15.74 2.75 -0.31 0.47 3720
0.03 0.43 -4.73 -3.09 20.23 2.90 -0.24 0.14 3727
0.03 0.48 -2.90 -2.35 18.44 2.60 -0.29 -0.12 3733
0.02 0.49 -0.26 -2.24 17.65 2.20 -0.21 -0.35 3739
0.05 0.55 1.76 -2.12 16.02 1.86 -0.42 -0.41 3745
0.04 0.55 3.16 -1.83 15.37 1.27 -0.83 -0.32 3752
0.04 0.54 3.29 -2.00 11.47 0.79 -0.78 0.04 3759
0.06 0.54 0.93 -1.79 11.16 0.64 -0.73 0.26 3765
0.05 0.53 -0.33 -1.03 10.98 0.48 -0.66 0.23 3771
0.05 0.55 -0.30 -0.88 10.69 0.27 -0.48 0.13 3777
0.06 0.57 0.15 -0.88 9.92 0.15 -0.36 0.06 3784
0.08 0.58 0.52 -0.26 9.72 0.13 -0.35 0.08 3790
0.08 0.61 0.41 -1.68 10.29 0.09 -0.28 0.13 3796
0.09 0.65 0.11 -1.17 10.23 0.02 -0.20 0.12 3803
0.08 0.65 0.32 -0.99 9.98 0.01 -0.14 0.11 3809
0.08 0.69 0.51 -1.11 9.95 -0.00 -0.15 0.10 3815
0.09 0.72 0.38 -0.94 9.91 -0.00 -0.14 0.09 3822
0.08 0.73 0.36 -0.92 9.95 0.00 -0.13 0.09 3828
0.07 0.74 0.21 -1.07 10.04 0.00 -0.11 0.08 3834
0.12 0.74 1.02 -1.13 9.84 0.01 -0.09 0.08 3841
0.09 0.74 0.23 -1.01 9.94 0.01 -0.08 0.09 3847
0.09 0.74 0.28 -0.94 10.10 0.01 -0.05 0.09 3853
0.10 0.75 0.32 -0.99 10.05 0.02 -0.03 0.10 3860
0.10 0.74 0.32 -1.01 10.02 0.03 -0.01 0.11 3866
0.09 0.73 0.36 -0.99 9.98 0.03 0.00 0.11 3872
0.10 0.72 0.46 -0.96 9.93 0.04 0.02 0.12 3878
0.10 0.65 0.44 -0.99 9.94 0.04 0.02 0.13 3885
0.11 0.64 0.43 -0.97 9.91 0.04 0.02 0.13 3891
0.10 0.60 0.46 -0.97 9.97 0.05 0.02 0.12 3897
0.12 0.61 0.53 -0.99 10.02 0.05 0.01 0.11 3904
0.12 0.56 0.52 -0.97 9.94 0.05 0.01 0.11 3910
0.11 0.54 0.56 -1.00 9.97 0.05 -0.00 0.10 3916
0.12 0.52 0.51 -1.04 10.05 0.05 -0.01 0.09 3922
0.13 0.47 0.53 -0.99 9.92 0.05 -0.02 0.10 3929
0.15 0.44 0.52 -1.03 9.98 0.05 -0.02 0.09 3935
0.17 0.43 0.48 -0.97 9.93 0.04 -0.03 0.09 3942
0.19 0.42 0.49 -0.97 9.92 0.04 -0.03 0.08 3948
0.18 0.39 0.47 -1.02 10.02 0.04 -0.03 0.09 3954
0.18 0.37 0.45 -1.02 10.01 0.04 -0.03 0.08 3960
0.22 0.32 0.46 -1.02 9.97 0.05 -0.03 0.08 3966
0.22 0.29 0.46 -1.00 9.96 0.05 -0.02 0.09 3973
0.22 0.25 0.45 -1.03 9.93 0.05 -0.02 0.08 3979
0.24 0.23 0.50 -1.05 9.97 0.05 -0.02 0.08 3986
0.26 0.19 0.46 -1.03 9.91 0.05 -0.01 0.08 3992
0.26 0.12 0.50 -1.06 9.92 0.05 -0.01 0.09 3998
0.27 0.14 0.57 -1.03 9.93 0.04 -0.01 0.08 4004
0.30 0.09 0.52 -1.06 9.92 0.03 -0.01 0.08 4011
0.28 0.13 0.53 -1.04 9.92 0.03 -0.01 0.08 4017
0.29 0.10 0.53 -1.04 9.94 0.04 -0.01 0.09 4023
0.30 0.10 0.54 -1.06 9.93 0.03 -0.01 0.08 4030
0.32 0.04 0.50 -1.07 9.88 0.03 -0.02 0.09 4036
0.34 0.02 0.50 -1.06 9.96 0.03 -0.01 0.07 4042
0.34 0.02 0.52 -1.06 9.94 0.03 -0.01 0.08 4048
0.35 0.02 0.52 -1.07 9.92 0.03 -0.02 0.08 4055
0.36 0.02 0.51 -1.11 9.94 0.03 -0.02 0.08 4061
0.36 -0.01 0.47 -1.10 9.97 0.03 -0.01 0.08 4067
0.39 -0.00 0.52 -1.13 9.96 0.03 -0.02 0.07 4073
0.43 -0.00 0.49 -1.08 9.93 0.03 -0.01 0.07 4080
0.43 0.00 0.55 -1.08 9.91 0.03 -0.02 0.08 4086
0.44 -0.02 0.51 -1.11 9.94 0.03 -0.02 0.08 4092
0.44 0.00 0.51 -1.08 9.94 0.03 -0.02 0.08 4099
0.46 -0.01 0.57 -1.07 9.98 0.03 -0.03 0.07 4105
0.48 -0.03 0.55 -1.10 9.93 0.03 -0.04 0.07 4111
0.50 -0.02 0.54 -1.09 9.91 0.03 -0.04 0.07 4117
0.52 -0.03 0.58 -1.11 10.00 0.03 -0.05 0.06 4124
0.53 -0.04 0.04 -1.16 9.93 0.04 -0.05 0.06 4130
0.54 -0.04 0.47 -1.16 9.97 0.04 -0.05 0.06 4136
0.57 -0.03 0.52 -1.14 9.98 0.04 -0.06 0.06 4143
0.59 -0.03 0.48 -1.17 10.00 0.04 -0.06 0.06 4149
0.63 -0.04 0.48 -1.21 9.97 0.05 -0.07 0.05 4155
0.63 -0.02 0.48 -1.14 9.99 0.05 -0.06 0.05 4161
0.64 -0.04 0.51 -1.14 10.02 0.06 -0.07 0.05 4168
0.67 -0.04 0.42 -1.25 10.00 0.07 -0.07 0.05 4174
0.68 -0.03 0.54 -1.15 10.05 0.08 -0.07 0.04 4180
0.70 -0.04 0.37 -1.50 10.04 0.08 -0.08 0.04 4187
0.74 -0.04 0.51 -1.22 9.94 0.10 -0.08 0.04 4193
0.75 -0.04 0.61 -1.34 9.87 0.10 -0.08 0.04 4200
0.76 -0.04 0.55 -1.35 9.96 0.11 -0.08 0.04 4206
0.77 -0.05 0.53 -1.19 9.95 0.12 -0.08 0.04 4212
0.79 -0.04 0.56 -1.11 10.06 0.12 -0.08 0.02 4218
0.81 -0.04 0.52 -1.26 9.97 0.13 -0.09 0.03 4225
0.82 -0.04 0.51 -1.18 10.07 0.14 -0.10 0.03 4231
0.85 -0.05 0.68 -1.17 10.15 0.15 -0.10 0.03 4238
0.90 -0.04 0.48 -1.42 10.02 0.18 -0.11 0.02 4244
0.93 -0.05 0.51 -1.20 10.27 0.20 -0.11 0.03 4250
0.96 -0.04 0.51 -1.37 10.09 0.25 -0.12 0.02 4256
0.99 -0.04 0.37 -1.35 10.08 0.29 -0.13 0.01 4262
1.04 -0.06 0.60 -1.45 10.17 0.33 -0.13 0.01 4270
1.08 -0.04 0.55 -1.34 10.43 0.38 -0.17 0.01 4276
1.10 -0.06 0.38 -1.39 10.49 0.43 -0.14 0.01 4282
1.14 -0.05 0.47 -1.65 10.38 0.50 -0.15 0.02 4288
1.16 -0.04 0.30 -1.43 10.70 0.56 -0.15 0.02 4294
1.21 -0.04 0.48 -1.55 10.71 0.63 -0.15 0.02 4301
1.21 -0.06 0.41 -1.56 10.75 0.71 -0.14 0.02 4307
1.24 -0.06 0.31 -1.78 11.54 0.76 -0.12 0.01 4314
1.25 -0.05 0.50 -1.78 10.80 0.85 -0.11 0.00 4320
1.27 -0.05 0.48 -1.86 10.70 0.91 -0.08 -0.00 4326
1.30 -0.05 0.61 -1.94 10.87 0.98 -0.06 -0.01 4333
1.30 -0.06 0.48 -2.19 10.63 1.03 -0.06 -0.02 4339
1.30 -0.04 0.54 -2.08 11.14 1.11 -0.05 -0.03 4345
1.33 -0.05 0.50 -2.24 11.13 1.17 -0.05 -0.04 4352
1.32 -0.06 0.62 -2.16 10.66 1.25 -0.04 -0.06 4359
1.29 -0.04 0.68 -2.30 11.27 1.35 -0.04 -0.08 4365
1.28 -0.06 1.54 -2.67 10.58 1.41 -0.04 -0.09 4371
1.27 -0.04 0.49 -2.56 11.00 1.50 -0.03 -0.12 4377
1.30 -0.05 0.44 -2.67 11.16 1.58 -0.03 -0.14 4383
1.26 -0.05 0.06 -2.82 11.28 1.63 -0.01 -0.15 4390
1.26 -0.05 0.03 -2.88 11.40 1.72 0.00 -0.16 4397
1.22 -0.05 0.63 -3.00 11.51 1.80 0.01 -0.17 4403
1.18 -0.06 0.70 -3.33 11.81 1.89 0.04 -0.18 4409
1.14 -0.05 0.86 -3.43 12.21 2.00 0.03 -0.21 4415
1.14 -0.05 0.91 -3.57 12.78 2.14 0.08 -0.24 4422
1.04 -0.07 0.73 -3.37 12.08 2.31 0.08 -0.26 4428
0.96 -0.03 0.75 -3.68 12.46 2.44 0.07 -0.28 4434
0.85 -0.05 0.36 -3.71 13.04 2.61 0.07 -0.28 4441
0.71 -0.04 0.41 -3.84 12.58 2.82 0.12 -0.28 4448
0.68 -0.03 1.19 -4.22 13.16 3.06 0.20 -0.28 4454
0.60 -0.04 0.79 -4.58 13.81 3.34 0.30 -0.28 4460
0.55 -0.03 0.50 -4.57 12.37 3.67 0.38 -0.27 4466
0.51 -0.03 1.02 -5.81 16.07 3.98 0.52 -0.24 4472
0.47 -0.04 1.00 -6.24 16.77 4.19 0.65 -0.21 4480
0.38 -0.02 2.51 -8.09 19.00 4.27 0.75 -0.20 4486
0.39 -0.03 0.63 -8.63 20.29 4.28 0.87 -0.14 4492
0.34 -0.03 1.48 -9.70 19.38 4.28 0.88 -0.09 4498
0.31 -0.02 -0.11 -9.39 19.89 4.28 0.86 -0.03 4504
0.28 -0.02 1.49 -9.06 19.85 4.28 0.82 -0.00 4511
0.24 -0.02 2.85 -8.24 20.26 4.28 0.91 -0.00 4517
0.23 -0.01 2.26 -8.44 19.78 4.27 1.04 -0.05 4524
0.20 -0.02 3.08 -7.65 18.57 4.26 1.13 -0.12 4530
0.17 -0.02 3.35 -6.68 18.10 4.25 1.23 -0.17 4536
0.15 -0.00 3.40 -5.07 17.39 4.23 1.31 -0.28 4543
0.14 -0.01 3.56 -3.39 16.73 4.21 1.33 -0.39 4549
0.13 -0.01 3.81 -2.32 15.70 4.21 1.38 -0.51 4555
0.15 -0.00 4.23 -0.86 14.77 4.22 1.48 -0.65 4561
0.11 -0.01 4.36 0.05 14.44 4.26 1.60 -0.82 4568
0.09 -0.01 3.31 0.65 16.11 4.28 1.71 -0.99 4575
0.09 -0.00 1.87 1.40 17.86 4.28 1.84 -1.17 4581
0.10 -0.01 0.35 2.56 16.57 4.28 1.94 -1.42 4587
0.06 -0.01 -1.52 7.51 9.04 4.28 2.08 -1.81 4593
0.09 -0.00 -1.48 14.08 7.54 4.28 1.83 -2.54 4599
0.08 -0.01 0.42 14.12 3.51 2.79 1.44 -3.04 4605
0.08 -0.01 -0.60 18.45 14.35 0.48 1.26 -3.33 4613
0.08 -0.00 1.38 12.02 20.55 -1.15 1.61 -3.48 4619
0.08 -0.01 1.49 7.27 19.15 -2.27 1.82 -3.59 4625
0.06 -0.01 -0.02 7.21 15.63 -3.00 1.94 -3.64 4631
0.07 -0.01 -0.95 6.60 12.51 -3.44 1.95 -3.55 4637
0.07 -0.01 -1.00 5.41 9.67 -3.72 1.92 -3.38 4644
0.07 -0.01 -0.56 4.13 8.16 -3.89 1.79 -3.19 4651
0.07 -0.01 -0.50 3.12 7.07 -3.93 1.60 -2.99 4657
0.09 -0.01 -0.59 2.58 6.34 -3.94 1.41 -2.75 4663
0.07 -0.01 -0.74 2.25 6.11 -3.91 1.17 -2.52 4669
0.06 -0.01 -0.47 1.98 6.01 -3.85 0.91 -2.24 4675
0.07 -0.00 -0.21 1.79 5.86 -3.78 0.64 -1.95 4681
0.07 -0.01 0.25 1.83 5.70 -3.72 0.41 -1.67 4687
0.07 -0.01 0.91 1.82 5.82 -3.64 0.23 -1.41 4695
0.06 -0.01 1.78 1.62 6.63 -3.62 0.16 -1.17 4701
0.07 -0.01 2.41 1.63 7.50 -3.57 0.20 -0.95 4707
0.08 -0.01 2.79 1.64 8.20 -3.55 0.40 -0.74 4713
0.08 -0.01 3.18 1.77 8.99 -3.58 0.71 -0.58 4719
0.07 -0.01 2.92 1.85 10.04 -3.67 1.04 -0.42 4725
0.07 -0.01 2.11 1.58 11.05 -3.82 1.34 -0.30 4731
0.06 -0.01 1.16 1.16 11.89 -3.98 1.58 -0.20 4738
0.06 -0.01 0.17 0.48 12.36 -4.12 1.71 -0.11 4745
0.07 -0.00 -0.45 -0.17 12.62 -4.20 1.76 -0.03 4751
0.07 -0.01 -0.97 -0.98 12.49 -4.23 1.76 0.03 4757
0.05 -0.01 -1.42 -2.36 12.60 -4.24 1.75 0.08 4763
0.07 -0.00 -1.75 -2.67 12.73 -4.22 1.74 0.12 4769
0.06 -0.01 -1.96 -3.48 12.82 -4.18 1.73 0.15 4776
0.05 -0.01 -2.19 -4.13 13.15 -4.11 1.72 0.17 4783
0.07 -0.00 -2.48 -4.55 13.52 -4.03 1.71 0.17 4789
0.06 -0.01 -2.81 -4.71 14.18 -3.92 1.67 0.18 4795
0.05 -0.01 -2.93 -4.69 14.98 -3.83 1.63 0.19 4801
0.07 -0.01 -3.13 -4.87 15.63 -3.76 1.62 0.19 4807
0.07 -0.01 -3.22 -5.02 16.21 -3.74 1.61 0.20 4814
0.06 -0.01 -3.41 -5.25 16.56 -3.71 1.60 0.20 4820
0.07 -0.00 -3.51 -5.53 16.94 -3.68 1.58 0.21 4827
0.07 -0.01 -3.62 -5.80 17.20 -3.62 1.55 0.21 4833
0.06 -0.01 -3.71 -6.06 17.53 -3.55 1.51 0.21 4839
0.07 -0.00 -3.55 -6.29 17.64 -3.48 1.45 0.20 4846
0.06 -0.01 -3.27 -6.64 17.65 -3.40 1.41 0.19 4852
0.05 -0.01 -3.02 -7.20 17.69 -3.33 1.39 0.17 4858
0.07 -0.00 -2.77 -7.88 17.62 -3.24 1.36 0.12 4865
0.06 -0.01 -2.53 -8.38 17.40 -3.13 1.31 0.05 4871
0.06 -0.01 -2.51 -8.81 17.15 -3.00 1.24 -0.02 4877
0.07 -0.00 -2.13 -9.10 16.76 -2.83 1.13 -0.09 4884
0.07 -0.01 -1.93 -9.52 16.46 -2.64 1.00 -0.14 4890
0.06 -0.01 -1.53 -10.15 16.26 -2.43 0.86 -0.19 4896
0.07 -0.00 -1.08 -10.67 16.01 -2.19 0.74 -0.20 4902
0.07 -0.01 -0.63 -11.28 15.68 -1.98 0.65 -0.18 4910
0.06 -0.01 -0.16 -11.93 15.58 -1.74 0.63 -0.14 4916
0.08 -0.01 0.29 -12.30 15.72 -1.53 0.68 -0.07 4922
0.07 -0.01 0.48 -12.37 16.35 -1.42 0.83 0.01 4928
0.07 -0.01 0.29 -12.36 17.10 -1.44 0.99 0.10 4934
0.08 -0.01 -0.38 -12.18 17.14 -1.60 1.19 0.20 4941
0.08 -0.01 -1.13 -11.93 16.08 -1.87 1.35 0.32 4947
0.07 -0.00 -2.06 -12.09 13.97 -2.15 1.48 0.44 4954
0.07 -0.01 -3.16 -12.51 11.95 -2.35 1.67 0.64 4960
0.06 -0.01 -4.93 -13.86 10.15 -2.41 1.89 0.87 4967
0.09 -0.01 -7.19 -15.31 7.98 -2.30 1.91 1.13 4973
0.07 -0.01 -9.24 -16.83 7.33 -2.07 1.62 1.33 4979
0.07 -0.01 -10.45 -18.39 6.27 -1.79 1.08 1.42 4985
0.09 -0.01 -10.29 -19.51 5.11 -1.51 0.40 1.38 4992
0.08 -0.01 -9.00 -20.15 4.26 -1.22 -0.23 1.22 4999
0.08 -0.01 -7.26 -20.67 3.63 -0.93 -0.58 0.98 5005
0.09 -0.01 -5.56 -20.71 3.09 -0.63 -0.64 0.68 5011
0.08 -0.01 -4.39 -20.40 2.97 -0.36 -0.49 0.33 5017
0.07 -0.01 -3.78 -19.69 3.20 -0.05 -0.29 -0.04 5023
0.09 -0.01 -3.98 -21.92 3.52 0.24 -0.19 -0.37 5029
0.08 -0.01 -13.36 -27.21 16.90 1.26 -0.76 -0.44 5037
0.07 -0.01 -9.63 -14.71 0.94 1.87 -1.58 -0.54 5043
0.08 -0.01 -2.43 -6.69 6.39 2.12 -2.15 -0.72 5049
0.07 -0.01 -1.12 -2.74 12.16 2.15 -2.23 -0.85 5055
0.06 0.01 2.06 4.31 14.31 1.99 -1.88 -0.82 5061
0.07 0.08 3.75 6.92 13.06 1.65 -1.33 -0.63 5068
0.06 0.11 3.36 5.30 11.83 1.39 -0.91 -0.44 5074
0.05 0.18 3.19 0.76 9.08 1.47 -0.56 -0.27 5081
0.05 0.27 2.27 -1.45 8.72 1.94 -0.37 -0.14 5087
0.05 0.28 1.12 -2.55 11.36 2.44 -0.20 -0.04 5093
0.05 0.32 0.79 -2.54 14.53 2.70 -0.09 0.01 5100
0.05 0.38 0.09 -2.60 18.43 2.77 -0.07 -0.02 5106
0.05 0.43 -0.12 -2.52 19.40 2.70 -0.13 -0.12 5112
0.04 0.59 0.88 -2.43 17.22 2.42 -0.27 -0.19 5118
0.05 0.58 1.65 -2.20 15.55 2.18 -0.31 -0.17 5125
0.04 0.61 1.28 -2.23 15.30 2.03 -0.51 -0.09 5132
0.04 0.64 1.60 -2.06 15.18 1.72 -0.77 -0.03 5138
0.05 0.66 2.02 -1.93 14.01 1.18 -0.93 0.09 5144
0.05 0.69 1.10 -2.07 12.27 0.80 -0.72 0.23 5150
0.07 0.72 -0.06 -1.35 11.21 0.60 -0.59 0.26 5156
0.05 0.73 -0.16 -0.99 11.15 0.45 -0.50 0.19 5164
0.05 0.75 0.51 -0.12 10.98 0.25 -0.34 0.13 5170
0.06 0.77 0.32 -0.17 10.19 0.15 -0.22 0.12 5176
0.04 0.80 0.51 -1.38 10.12 0.15 -0.18 0.15 5182
0.05 0.85 0.56 -1.04 10.03 0.11 -0.15 0.16 5189
0.05 0.87 0.47 -1.11 10.09 0.07 -0.10 0.14 5195
0.04 0.86 0.47 -1.01 9.94 0.05 -0.09 0.14 5201
0.05 0.90 0.57 -0.95 9.82 0.04 -0.08 0.14 5208
0.05 0.91 0.51 -0.91 9.88 0.05 -0.07 0.14 5214
0.04 0.91 0.54 -0.87 9.93 0.04 -0.06 0.14 5220
0.04 0.92 0.48 -0.93 10.00 0.03 -0.05 0.13 5226
0.06 0.93 0.54 -1.02 9.99 0.03 -0.04 0.13 5233
0.05 0.93 0.51 -1.03 9.95 0.02 -0.03 0.14 5239
0.05 0.92 0.43 -1.01 10.03 0.02 -0.01 0.14 5245
0.06 0.93 0.48 -0.99 10.04 0.02 0.01 0.14 5252
0.06 0.91 0.46 -0.99 9.99 0.01 0.02 0.15 5258
0.06 0.89 0.54 -1.00 9.94 0.02 0.02 0.15 5264
0.06 0.88 0.55 -0.96 9.97 0.03 0.03 0.14 5271
0.07 0.86 0.51 -1.00 9.90 0.03 0.03 0.14 5277
0.07 0.83 0.52 -1.02 9.98 0.03 0.04 0.13 5283
0.06 0.83 0.61 -0.98 9.96 0.04 0.04 0.13 5289
0.07 0.82 0.57 -0.97 9.92 0.04 0.03 0.13 5296
0.07 0.81 0.62 -0.98 9.90 0.03 0.04 0.12 5302
0.07 0.77 0.67 -0.98 9.92 0.04 0.03 0.12 5308
0.06 0.76 0.65 -1.01 9.88 0.04 0.02 0.12 5314
0.09 0.74 0.68 -0.96 9.88 0.04 0.01 0.11 5321
0.08 0.72 0.64 -0.96 9.87 0.04 0.01 0.11 5327
0.07 0.68 0.67 -1.03 9.90 0.04 0.00 0.10 5334
0.08 0.65 0.66 -1.00 9.93 0.04 -0.00 0.10 5340
0.08 0.63 0.63 -1.00 9.88 0.04 -0.01 0.10 5346
0.08 0.60 0.85 -0.91 9.91 0.04 -0.01 0.09 5352
0.07 0.59 0.61 -1.02 9.92 0.05 -0.01 0.10 5358
0.10 0.53 0.62 -1.03 9.92 0.05 -0.00 0.10 5365
0.08 0.49 0.62 -1.07 9.91 0.05 0.01 0.10 5371
0.07 0.44 1.22 -1.04 9.90 0.05 0.02 0.10 5378
0.10 0.43 0.63 -1.06 9.98 0.05 0.02 0.10 5384
0.10 0.42 0.66 -1.02 9.90 0.05 0.03 0.09 5390
0.10 0.39 0.70 -1.06 9.87 0.05 0.04 0.09 5396
0.09 0.35 0.71 -1.04 9.87 0.05 0.04 0.09 5402
0.11 0.37 0.75 -1.06 9.92 0.05 0.03 0.08 5408
0.10 0.31 0.70 -1.08 9.91 0.05 0.04 0.09 5415
0.09 0.29 0.73 -1.11 9.93 0.05 0.04 0.09 5422
0.10 0.30 0.75 -1.11 9.92 0.05 0.04 0.08 5428
0.11 0.27 0.73 -1.12 9.88 0.05 0.04 0.08 5434
0.11 0.23 0.79 -1.09 9.90 0.05 0.04 0.08 5440
0.12 0.18 0.74 -1.08 9.92 0.05 0.03 0.08 5446
0.13 0.14 0.73 -1.11 9.91 0.05 0.02 0.08 5452
0.12 0.15 0.81 -1.16 9.91 0.05 0.02 0.07 5459
0.12 0.13 0.80 -1.15 9.97 0.05 0.01 0.07 5466
0.12 0.12 0.77 -1.18 10.00 0.05 0.01 0.07 5472
0.13 0.11 0.80 -1.14 9.94 0.05 -0.00 0.06 5478
0.14 0.07 0.78 -1.20 9.97 0.05 -0.01 0.06 5484
0.15 0.07 0.79 -1.17 9.94 0.04 -0.01 0.06 5490
0.16 0.08 0.78 -1.19 9.90 0.04 -0.02 0.05 5496
0.15 0.08 0.82 -1.18 9.94 0.04 -0.03 0.05 5504
0.16 0.04 0.86 -1.18 9.90 0.04 -0.03 0.05 5510
0.16 0.05 0.81 -1.17 9.94 0.04 -0.04 0.05 5516
0.19 0.03 0.80 -1.21 9.95 0.04 -0.05 0.05 5522
0.20 0.00 0.77 -1.24 10.05 0.04 -0.06 0.05 5528
0.20 -0.00 0.74 -1.21 9.96 0.04 -0.06 0.04 5534
0.22 0.00 0.75 -1.27 10.00 0.04 -0.05 0.04 5540
0.21 -0.01 0.74 -1.25 9.98 0.04 -0.06 0.04 5548
0.24 -0.00 0.94 -1.24 9.94 0.04 -0.06 0.05 5554
0.25 -0.01 0.78 -1.27 9.98 0.04 -0.06 0.04 5560
0.25 -0.02 0.78 -1.27 9.95 0.04 -0.06 0.04 5566
0.26 -0.02 0.75 -1.83 9.96 0.04 -0.07 0.03 5572
0.27 -0.02 0.82 -1.25 10.07 0.04 -0.07 0.03 5578
0.27 -0.02 0.79 -1.28 9.98 0.04 -0.09 0.03 5585
0.29 -0.02 0.84 -1.20 10.02 0.04 -0.11 0.03 5592
0.31 -0.02 0.90 -1.05 9.99 0.04 -0.12 0.02 5598
0.35 -0.03 0.76 -1.29 9.98 0.05 -0.13 0.02 5604
0.35 -0.04 0.75 -2.01 10.01 0.05 -0.13 0.01 5610
0.36 -0.02 0.72 -1.31 9.96 0.06 -0.13 0.01 5616
0.40 -0.03 0.80 -1.09 9.93 0.07 -0.13 -0.00 5622
0.40 -0.02 0.72 -1.36 9.93 0.08 -0.12 -0.00 5629
0.40 -0.03 0.68 -1.30 9.92 0.09 -0.11 -0.01 5636
0.43 -0.02 0.76 -1.26 9.84 0.09 -0.10 -0.02 5642
0.46 -0.03 1.03 -0.97 10.00 0.10 -0.07 -0.03 5648
0.48 -0.04 0.75 -1.37 10.00 0.11 -0.05 -0.01 5654
0.47 -0.02 0.72 -1.26 9.98 0.12 -0.04 -0.02 5660
0.50 -0.04 0.72 -1.20 9.90 0.14 -0.03 -0.03 5667
0.50 -0.04 1.12 -1.48 9.76 0.14 -0.01 -0.03 5673
0.50 -0.03 0.75 -1.41 10.01 0.17 -0.01 -0.02 5680
0.53 -0.03 0.61 -1.39 10.01 0.20 0.00 -0.01 5686
0.55 -0.04 0.57 -1.29 10.23 0.26 0.00 -0.02 5692
0.56 -0.03 0.69 -1.60 10.14 0.29 -0.01 -0.01 5699
0.57 -0.03 0.62 -1.45 10.35 0.35 -0.00 -0.01 5705
0.58 -0.04 0.62 -1.48 10.38 0.42 -0.01 -0.01 5711
0.58 -0.02 0.31 -1.41 10.37 0.49 -0.00 -0.00 5718
0.62 -0.04 0.68 -1.49 10.49 0.57 0.01 0.00 5724
0.62 -0.04 0.71 -1.61 10.52 0.63 0.01 0.00 5731
0.63 -0.02 0.50 -1.57 10.79 0.68 0.03 0.01 5737
0.65 -0.04 0.70 -1.63 10.65 0.72 0.05 0.01 5743
0.66 -0.04 0.69 -1.74 11.51 0.77 0.07 0.01 5749
0.67 -0.03 0.81 -1.85 10.84 0.85 0.06 0.01 5755
0.70 -0.04 0.69 -1.99 10.81 0.91 0.05 0.00 5763
0.68 -0.04 0.82 -1.99 10.79 0.96 0.03 -0.01 5769
0.73 -0.03 0.83 -2.04 10.90 1.02 0.01 -0.01 5775
0.73 -0.04 0.94 -2.13 10.59 1.09 -0.01 -0.02 5781
0.71 -0.04 0.80 -2.09 10.59 1.17 -0.02 -0.03 5787
0.71 -0.03 0.93 -2.32 10.90 1.18 -0.03 -0.05 5794
0.73 -0.03 1.01 -2.38 10.79 1.26 -0.05 -0.06 5800
0.76 -0.04 0.98 -2.59 10.76 1.35 -0.06 -0.07 5807
0.78 -0.03 0.87 -2.69 10.70 1.43 -0.07 -0.08 5813
0.72 -0.05 1.13 -2.72 10.78 1.48 -0.07 -0.11 5819
0.74 -0.04 1.06 -2.84 11.05 1.54 -0.07 -0.12 5826
0.76 -0.03 0.87 -2.76 10.79 1.59 -0.05 -0.13 5832
0.72 -0.04 0.69 -2.51 11.18 1.65 -0.02 -0.12 5838
0.72 -0.03 0.54 -2.56 12.13 1.72 0.03 -0.11 5844
0.72 -0.04 0.54 -3.17 11.93 1.83 0.06 -0.10 5852
0.66 -0.03 1.31 -3.56 11.81 1.93 0.11 -0.11 5858
0.61 -0.03 1.13 -3.22 11.41 2.04 0.09 -0.12 5864
0.61 -0.05 1.05 -3.82 11.85 2.19 0.12 -0.13 5870
0.56 -0.03 0.38 -3.80 11.92 2.37 0.16 -0.13 5876
0.54 -0.04 0.54 -4.02 12.80 2.60 0.24 -0.12 5883
0.52 -0.04 0.96 -4.19 12.71 2.85 0.29 -0.10 5890
0.41 -0.02 0.28 -4.20 14.22 3.14 0.38 -0.09 5896
0.42 -0.03 1.37 -5.49 15.15 3.45 0.46 -0.10 5902
0.38 -0.02 1.37 -5.87 15.95 3.67 0.60 -0.07 5908
0.34 -0.02 1.36 -6.84 17.64 3.91 0.64 -0.04 5915
0.33 -0.02 1.49 -7.28 18.37 4.10 0.62 -0.01 5921
0.30 -0.02 2.46 -7.63 18.06 4.16 0.65 -0.02 5927
0.28 -0.02 2.12 -8.50 18.63 4.19 0.64 -0.04 5934
0.24 -0.02 1.73 -8.32 18.92 4.19 0.59 -0.07 5941
0.20 -0.02 2.35 -8.42 19.36 4.18 0.57 -0.09 5947
0.20 -0.01 3.96 -8.21 18.54 4.15 0.64 -0.10 5953
0.18 -0.02 4.90 -7.89 18.71 4.12 0.85 -0.13 5959
0.19 -0.01 5.94 -6.78 18.70 4.07 1.21 -0.17 5965
0.19 -0.02 6.04 -6.66 17.72 4.03 1.63 -0.25 5972
0.14 -0.01 4.88 -5.35 17.28 4.00 1.94 -0.35 5979
0.14 -0.01 3.47 -3.86 17.19 3.96 2.11 -0.48 5985
0.14 -0.01 2.40 -2.40 16.56 3.96 2.16 -0.62 5991
0.12 -0.01 1.95 -0.99 16.70 4.02 2.11 -0.77 5997
0.09 -0.01 0.87 -0.37 18.01 4.20 1.97 -0.90 6003
0.10 -0.01 -0.03 1.42 17.55 4.28 1.74 -1.06 6010
0.07 -0.01 -0.77 3.00 15.26 4.28 1.48 -1.18 6017
0.06 -0.01 -1.75 6.85 9.00 4.28 1.24 -1.33 6023
0.07 -0.01 -2.47 15.55 7.54 4.27 0.79 -1.83 6029
0.06 -0.01 -0.25 10.90 5.25 3.15 -0.11 -2.20 6035
0.05 -0.00 -2.38 13.84 5.96 1.00 -1.00 -2.37 6041
0.06 -0.01 0.46 14.26 15.52 -0.50 -1.19 -2.32 6048
0.06 -0.01 2.57 7.68 16.51 -1.54 -1.01 -2.30 6054
0.05 -0.01 2.92 5.28 14.10 -2.11 -0.79 -2.37 6061
0.07 -0.01 2.53 5.24 10.70 -2.38 -0.50 -2.42 6067
0.07 -0.01 2.83 5.01 7.91 -2.51 -0.17 -2.44 6073
0.06 -0.01 3.01 4.64 6.32 -2.64 0.11 -2.47 6079
0.06 -0.01 2.91 4.05 5.36 -2.74 0.32 -2.50 6085
0.06 -0.01 2.19 3.61 5.25 -2.82 0.51 -2.50 6092
0.06 -0.01 1.33 3.24 5.39 -2.88 0.57 -2.45 6098
0.05 -0.00 0.65 2.89 5.61 -2.92 0.50 -2.35 6105
0.06 -0.01 0.38 2.68 5.73 -2.95 0.32 -2.20 6111
0.07 -0.01 0.43 2.60 5.86 -2.98 0.06 -2.03 6117
0.07 -0.01 0.78 2.24 6.11 -3.03 -0.20 -1.85 6123
0.05 -0.01 1.56 1.91 6.73 -3.09 -0.42 -1.68 6129
0.05 -0.00 2.40 1.65 7.51 -3.17 -0.58 -1.53 6135
0.05 -0.01 3.37 1.30 8.05 -3.27 -0.61 -1.36 6142
0.05 -0.00 4.28 0.82 8.47 -3.37 -0.47 -1.20 6149
0.05 -0.00 4.99 0.33 9.00 -3.50 -0.24 -1.05 6155
0.05 0.00 5.20 -0.15 9.45 -3.65 0.08 -0.92 6161
0.05 -0.00 4.37 -0.70 9.74 -3.76 0.40 -0.78 6167
0.05 -0.01 4.36 -1.84 9.78 -3.87 0.66 -0.62 6173
0.04 -0.00 3.54 -1.92 9.73 -3.92 0.85 -0.49 6179
0.04 -0.00 2.80 -2.56 9.59 -3.91 0.93 -0.33 6185
0.05 -0.01 2.34 -3.37 9.61 -3.85 0.94 -0.16 6192
0.05 -0.00 2.35 -4.05 9.92 -3.76 0.93 -0.01 6198
0.04 -0.00 2.33 -4.54 10.49 -3.65 0.93 0.13 6205
0.05 -0.01 2.36 -4.93 11.14 -3.54 0.99 0.24 6211
0.03 -0.00 2.28 -5.18 11.89 -3.46 1.03 0.34 6217
0.02 -0.00 1.97 -5.33 12.73 -3.42 1.12 0.41 6223
0.04 -0.00 1.42 -5.67 13.33 -3.40 1.18 0.49 6230
0.04 -0.00 0.80 -6.14 13.98 -3.40 1.23 0.56 6236
0.03 -0.00 0.20 -6.67 14.32 -3.38 1.23 0.62 6243
0.04 -0.00 -0.28 -7.28 14.47 -3.37 1.20 0.67 6249
0.05 -0.00 -0.47 -7.76 14.60 -3.35 1.15 0.72 6255
0.04 -0.00 -0.53 -7.93 14.71 -3.31 1.10 0.77 6261
0.04 -0.00 -0.55 -7.93 14.69 -3.25 1.06 0.82 6267
0.05 -0.00 -0.47 -7.82 14.65 -3.18 1.03 0.87 6274
0.04 -0.00 -0.29 -7.77 14.89 -3.11 1.01 0.91 6281
0.03 -0.00 -0.10 -7.89 15.06 -3.03 1.02 0.93 6287
0.05 -0.01 -0.14 -8.03 15.33 -2.95 1.06 0.95 6293
0.04 -0.00 -0.33 -8.38 15.43 -2.87 1.12 0.96 6299
0.04 -0.00 -0.55 -8.65 15.42 -2.79 1.17 0.96 6305
0.05 0.00 -0.85 -8.98 15.35 -2.72 1.17 0.94 6311
0.05 -0.00 -1.08 -9.05 15.02 -2.62 1.13 0.91 6319
0.04 -0.00 -1.14 -9.09 14.63 -2.56 1.04 0.88 6325
0.05 -0.00 -1.12 -9.06 14.29 -2.44 0.92 0.86 6331
0.05 -0.00 -1.05 -8.90 13.95 -2.31 0.78 0.83 6337
0.04 -0.00 -0.96 -8.82 13.66 -2.17 0.67 0.80 6343
0.05 -0.01 -0.99 -8.86 13.54 -2.01 0.55 0.79 6349
0.06 -0.01 -1.07 -8.83 13.35 -1.85 0.44 0.78 6356
0.05 -0.01 -1.20 -8.71 13.11 -1.70 0.34 0.77 6363
0.06 -0.01 -1.33 -8.56 12.96 -1.56 0.24 0.76 6369
0.06 -0.01 -1.31 -8.41 12.83 -1.45 0.17 0.76 6375
0.06 -0.01 -1.17 -8.24 12.68 -1.33 0.11 0.76 6381
0.06 -0.01 -1.07 -8.11 12.59 -1.22 0.08 0.76 6387
0.08 -0.01 -0.80 -7.99 12.34 -1.16 0.09 0.77 6394
0.07 -0.01 -0.73 -7.99 12.21 -1.08 0.16 0.77 6401
0.07 -0.01 -0.79 -8.06 12.31 -1.03 0.20 0.78 6407
0.08 -0.01 -0.98 -8.05 12.33 -1.02 0.27 0.78 6413
0.07 -0.01 -1.56 -8.23 12.51 -1.05 0.33 0.77 6419
0.06 -0.01 -1.90 -8.56 12.53 -1.12 0.35 0.74 6425
0.07 -0.00 -2.08 -8.88 12.35 -1.24 0.33 0.68 6432
0.07 -0.01 -2.01 -9.29 11.75 -1.37 0.32 0.62 6438
0.07 -0.01 -1.70 -9.81 10.86 -1.49 0.35 0.55 6445
0.07 -0.01 -1.11 -10.36 9.66 -1.59 0.43 0.47 6451
0.07 -0.01 -0.84 -11.13 8.49 -1.59 0.57 0.40 6457
0.07 -0.01 -0.75 -11.90 7.21 -1.54 0.73 0.33 6463
0.07 -0.00 -1.15 -12.58 6.35 -1.41 0.84 0.29 6470
0.07 -0.01 -1.68 -13.02 5.58 -1.19 0.94 0.28 6476
0.08 -0.01 -2.56 -13.33 5.47 -0.95 0.98 0.33 6482
0.07 0.00 -3.63 -13.60 5.71 -0.72 0.91 0.33 6489
0.08 -0.01 -4.75 -13.73 5.94 -0.52 0.71 0.37 6495
0.08 -0.01 -5.16 -13.77 5.77 -0.35 0.43 0.39 6502
0.07 -0.00 -5.14 -13.97 5.68 -0.21 0.14 0.42 6508
0.08 -0.01 -4.76 -14.13 5.76 -0.07 -0.09 0.44 6514
0.08 -0.01 -4.01 -14.93 5.41 0.06 -0.27 0.43 6520
0.08 -0.01 -6.79 -28.13 20.96 0.74 -0.58 0.41 6526
0.08 -0.01 -3.78 -15.49 0.46 1.38 -0.93 0.24 6533
0.07 -0.01 -3.80 -13.22 2.88 1.69 -1.25 0.01 6540
0.06 -0.01 -2.99 -8.80 6.64 1.85 -1.45 -0.11 6546
0.08 0.01 -0.96 1.26 12.26 1.87 -1.34 -0.17 6552
0.06 0.02 1.36 7.69 14.13 1.72 -1.01 -0.14 6558
0.04 0.11 2.10 4.39 13.40 1.43 -0.78 -0.10 6564
0.04 0.17 1.48 5.36 11.57 1.28 -0.48 -0.04 6572
0.03 0.24 -0.40 -0.11 9.49 1.45 -0.38 -0.06 6578
0.04 0.33 -1.41 -2.20 8.82 1.97 -0.41 -0.13 6584
0.04 0.34 -1.03 -2.44 10.61 2.53 -0.41 -0.21 6590
0.04 0.39 0.00 -3.20 16.69 2.91 -0.26 -0.27 6596
0.04 0.46 0.36 -2.46 19.17 2.98 -0.10 -0.35 6603
0.04 0.49 1.69 -2.65 19.52 2.67 -0.09 -0.40 6609
0.05 0.50 2.16 -2.58 18.02 2.22 -0.30 -0.35 6616
0.07 0.55 1.49 -2.42 16.54 1.83 -0.72 -0.33 6622
0.06 0.56 3.04 -2.23 15.19 1.31 -0.93 -0.22 6628
0.05 0.58 1.64 -2.02 12.07 0.72 -0.71 0.07 6635
0.07 0.60 -0.03 -1.39 11.09 0.37 -0.45 0.19 6641
0.07 0.61 -0.52 -1.04 10.65 0.22 -0.30 0.14 6647
0.07 0.63 0.54 -0.83 10.02 0.13 -0.19 0.08 6653
0.08 0.65 0.48 -0.63 9.88 0.11 -0.18 0.07 6660
0.07 0.66 0.89 -1.66 9.83 0.11 -0.18 0.12 6667
0.07 0.68 0.25 -1.10 9.90 0.09 -0.18 0.14 6673
0.08 0.71 0.38 -1.37 10.09 0.07 -0.17 0.11 6679
0.07 0.71 0.35 -1.08 9.92 0.05 -0.15 0.12 6685
0.07 0.70 0.45 -1.12 9.95 0.03 -0.14 0.11 6691
0.08 0.73 0.33 -1.01 10.00 0.01 -0.11 0.11 6697
0.08 0.76 0.33 -0.96 9.87 0.00 -0.09 0.11 6705
0.06 0.78 0.35 -0.96 9.88 -0.00 -0.08 0.11 6711
0.08 0.81 0.41 -0.96 9.90 -0.00 -0.08 0.12 6717
0.08 0.82 0.39 -0.96 9.97 -0.00 -0.08 0.11 6723
0.07 0.81 0.35 -0.98 9.88 0.01 -0.08 0.11 6729
0.06 0.81 0.31 -0.99 9.93 0.00 -0.08 0.10 6735
0.09 0.81 0.42 -1.01 9.99 0.00 -0.08 0.11 6742
0.08 0.80 0.39 -1.02 10.03 -0.00 -0.08 0.10 6749
0.08 0.82 0.31 -1.01 9.94 0.00 -0.07 0.10 6755
0.09 0.82 0.30 -0.97 9.92 0.01 -0.07 0.11 6761
0.08 0.80 0.36 -1.04 9.92 0.00 -0.07 0.10 6767
0.08 0.79 0.32 -1.02 9.96 0.00 -0.07 0.13 6773
0.08 0.79 0.37 -0.98 10.00 0.01 -0.08 0.10 6779
0.10 0.79 0.41 -0.99 9.96 0.01 -0.07 0.10 6786
0.09 0.78 0.43 -1.01 9.99 0.01 -0.07 0.10 6793
0.06 0.76 0.41 -1.03 10.05 0.01 -0.08 0.08 6799
0.09 0.77 0.40 -1.02 9.94 0.02 -0.08 0.08 6805
0.11 0.76 0.37 -1.05 9.99 0.01 -0.09 0.09 6811
0.12 0.73 0.40 -1.00 9.99 0.01 -0.09 0.08 6817
0.11 0.72 0.39 -1.03 9.94 0.01 -0.09 0.08 6823
0.14 0.71 0.32 -1.04 10.03 0.01 -0.09 0.07 6830
0.15 0.67 0.40 -0.97 10.06 0.01 -0.09 0.08 6837
0.15 0.62 0.34 -1.05 9.99 0.01 -0.08 0.08 6843
0.16 0.58 0.32 -1.05 9.97 0.01 -0.08 0.08 6849
0.15 0.56 0.26 -1.03 9.95 0.01 -0.08 0.08 6855
0.14 0.56 0.30 -1.04 9.96 0.02 -0.07 0.08 6861
0.16 0.54 0.32 -1.03 9.98 0.02 -0.06 0.08 6867
0.17 0.50 0.29 -1.01 9.94 0.02 -0.05 0.08 6874
0.18 0.48 0.32 -1.02 9.99 0.03 -0.05 0.08 6881
0.18 0.48 0.32 -1.02 10.00 0.03 -0.04 0.08 6887
0.21 0.49 0.34 -1.07 9.92 0.03 -0.04 0.08 6893
0.19 0.45 0.32 -1.08 9.96 0.03 -0.04 0.09 6899
0.19 0.43 0.41 -1.08 9.94 0.02 -0.05 0.09 6905
0.20 0.40 0.31 -1.09 9.94 0.03 -0.04 0.09 6912
0.21 0.38 0.35 -1.07 9.93 0.03 -0.04 0.09 6918
0.22 0.34 0.34 -1.08 9.94 0.03 -0.04 0.08 6925
0.20 0.33 0.31 -1.09 9.91 0.03 -0.04 0.08 6931
0.23 0.32 0.32 -1.09 9.88 0.03 -0.04 0.09 6937
0.23 0.30 0.32 -1.11 9.92 0.03 -0.04 0.08 6943
0.22 0.29 0.35 -1.09 9.91 0.03 -0.03 0.08 6949
0.25 0.28 0.35 -1.07 9.91 0.03 -0.03 0.08 6956
0.27 0.27 0.35 -1.08 9.93 0.03 -0.04 0.08 6962
0.27 0.24 0.29 -1.06 9.96 0.02 -0.04 0.08 6969
0.28 0.25 0.30 -1.10 9.99 0.02 -0.04 0.08 6975
0.30 0.20 0.33 -1.14 10.07 0.02 -0.04 0.08 6981
0.29 0.15 0.40 -1.11 9.84 0.02 -0.05 0.07 6987
0.30 0.13 0.31 -1.13 9.97 0.02 -0.05 0.07 6993
0.33 0.15 0.33 -1.12 9.97 0.02 -0.05 0.07 7000
0.33 0.16 0.29 -1.12 9.97 0.02 -0.05 0.07 7006
0.36 0.15 0.32 -1.12 9.87 0.02 -0.06 0.07 7013
0.38 0.11 0.34 -1.10 9.93 0.02 -0.06 0.07 7019
0.38 0.13 0.28 -1.13 9.94 0.02 -0.06 0.07 7025
0.39 0.09 0.29 -1.09 9.89 0.02 -0.05 0.06 7031
0.42 0.09 0.29 -1.08 9.95 0.02 -0.05 0.07 7037
0.42 0.10 0.36 -1.13 9.98 0.03 -0.05 0.06 7044
0.46 0.08 0.32 -1.12 10.02 0.03 -0.04 0.06 7050
0.48 0.04 0.38 -1.15 9.97 0.02 -0.04 0.06 7057
0.53 0.05 0.09 -1.25 10.00 0.03 -0.05 0.06 7063
0.55 0.04 0.32 -1.15 9.98 0.03 -0.05 0.06 7069
0.58 0.03 0.33 -1.18 9.99 0.03 -0.05 0.06 7075
0.63 0.04 0.25 -1.34 9.94 0.04 -0.05 0.04 7081
0.70 0.00 0.31 -1.16 10.02 0.05 -0.06 0.04 7088
0.71 0.01 0.34 -1.11 10.04 0.05 -0.05 0.05 7095
0.71 -0.01 0.38 -1.09 10.10 0.06 -0.06 0.04 7101
0.79 -0.03 0.32 -1.44 10.07 0.07 -0.06 0.05 7107
0.82 -0.04 0.37 -1.17 10.02 0.09 -0.07 0.04 7113
0.82 -0.04 0.31 -1.21 10.13 0.10 -0.07 0.04 7119
0.87 -0.04 0.27 -1.29 10.04 0.11 -0.07 0.04 7127
0.91 -0.06 0.32 -1.25 10.00 0.13 -0.08 0.04 7133
0.95 -0.05 0.32 -1.35 10.07 0.15 -0.09 0.03 7139
0.99 -0.05 0.30 -1.14 10.05 0.16 -0.09 0.04 7145
0.99 -0.06 0.28 -1.34 10.20 0.18 -0.10 0.04 7151
0.99 -0.04 0.34 -1.22 10.18 0.20 -0.11 0.03 7158
1.04 -0.06 0.35 -1.48 10.23 0.23 -0.13 0.03 7164
1.04 -0.06 0.25 -1.53 10.07 0.27 -0.14 0.03 7171
1.08 -0.05 0.37 -1.24 10.35 0.31 -0.16 0.03 7177
1.11 -0.05 0.30 -1.34 10.47 0.37 -0.17 0.03 7183
1.16 -0.07 0.29 -1.36 10.69 0.45 -0.17 0.03 7190
1.20 -0.05 0.28 -1.53 10.75 0.54 -0.18 0.03 7196
1.21 -0.05 0.26 -1.42 10.80 0.64 -0.19 0.03 7202
1.23 -0.06 0.38 -1.48 10.89 0.72 -0.19 0.03 7208
1.26 -0.05 0.21 -1.68 10.98 0.79 -0.18 0.02 7215
1.30 -0.07 0.28 -1.68 10.98 0.86 -0.14 0.02 7222
1.33 -0.06 0.21 -1.60 11.10 0.91 -0.13 0.02 7228
1.36 -0.06 0.52 -2.06 11.83 0.95 -0.10 0.00 7234
1.36 -0.06 0.10 -1.92 11.27 1.02 -0.09 0.00 7240
1.34 -0.04 0.40 -1.95 10.73 1.07 -0.05 -0.00 7246
1.37 -0.05 0.35 -2.19 11.10 1.12 -0.05 -0.01 7254
1.39 -0.07 0.41 -2.22 10.88 1.18 -0.05 -0.02 7260
1.39 -0.06 0.29 -2.40 11.22 1.25 -0.05 -0.03 7266
1.41 -0.06 0.36 -2.41 10.95 1.34 -0.06 -0.04 7272
1.37 -0.06 0.23 -2.57 11.18 1.40 -0.04 -0.05 7279
1.38 -0.05 0.16 -2.33 10.84 1.47 -0.03 -0.05 7285
1.34 -0.05 0.52 -2.47 10.75 1.52 0.02 -0.05 7291
1.32 -0.06 0.15 -2.77 10.80 1.60 0.03 -0.06 7298
1.27 -0.05 0.51 -2.48 11.68 1.69 0.01 -0.08 7304
1.26 -0.06 0.56 -3.08 11.66 1.82 -0.01 -0.11 7311
1.22 -0.06 0.69 -3.11 11.88 1.95 -0.03 -0.14 7317
1.13 -0.05 0.37 -3.33 11.21 2.08 -0.04 -0.16 7323
1.04 -0.05 0.08 -3.44 11.66 2.22 -0.04 -0.18 7329
1.01 -0.04 0.31 -3.31 13.21 2.39 -0.03 -0.19 7336
0.96 -0.05 0.48 -3.74 13.11 2.56 -0.03 -0.21 7343
0.79 -0.04 0.71 -4.45 13.31 2.76 -0.03 -0.23 7349
0.71 -0.03 0.87 -4.40 14.93 3.04 -0.01 -0.26 7355
0.67 -0.03 0.65 -4.78 15.21 3.31 0.01 -0.31 7361
0.52 -0.03 1.39 -5.40 16.31 3.61 -0.01 -0.35 7368
0.52 -0.03 1.26 -5.60 16.81 3.90 -0.04 -0.40 7374
0.51 -0.04 1.62 -5.61 17.13 4.11 -0.09 -0.44 7380
0.47 -0.02 1.83 -6.83 16.72 4.19 -0.12 -0.49 7387
0.45 -0.03 2.00 -8.16 18.67 4.23 -0.07 -0.50 7393
0.39 -0.02 1.09 -8.74 19.07 4.24 -0.02 -0.52 7400
0.35 -0.02 1.28 -8.45 19.41 4.25 -0.03 -0.51 7406
0.32 -0.02 1.46 -7.54 19.11 4.22 0.03 -0.49 7412
0.24 -0.01 0.71 -7.10 19.25 4.15 0.06 -0.51 7418
0.25 -0.02 1.18 -6.61 18.73 4.08 -0.05 -0.55 7426
0.19 -0.02 1.11 -5.88 17.65 4.02 -0.16 -0.59 7432
0.16 -0.01 1.79 -4.71 17.17 3.97 -0.27 -0.62 7438
0.15 -0.01 2.52 -3.97 16.03 3.94 -0.31 -0.64 7444
0.11 -0.01 3.27 -2.87 15.20 3.96 -0.30 -0.69 7450
0.11 -0.01 3.93 -1.71 14.51 4.00 -0.22 -0.75 7457
0.09 -0.01 4.39 -0.85 14.31 4.07 -0.15 -0.83 7463
0.09 -0.01 4.13 -0.29 16.24 4.24 -0.16 -0.94 7470
0.08 -0.01 4.25 -0.18 16.93 4.28 -0.09 -1.05 7476
0.09 -0.01 3.77 2.29 14.51 4.28 -0.03 -1.21 7482
0.08 -0.01 5.94 6.66 11.96 4.28 0.24 -1.42 7488
0.07 -0.01 3.34 12.25 4.85 4.28 0.16 -1.85 7495
0.09 -0.01 3.63 10.73 3.53 3.45 0.23 -2.22 7501
0.08 -0.01 2.02 14.15 11.54 1.42 0.29 -2.32 7507
0.07 -0.01 1.74 11.45 20.88 0.04 0.51 -2.22 7514
0.09 -0.01 1.84 6.75 19.02 -1.03 0.55 -2.14 7520
0.07 -0.01 0.55 7.42 15.88 -1.78 0.33 -2.04 7526
0.06 -0.01 0.11 7.57 12.37 -2.30 0.06 -1.87 7533
0.07 -0.01 1.06 5.99 9.76 -2.64 -0.15 -1.66 7539
0.08 -0.01 2.49 4.51 8.19 -2.85 -0.29 -1.51 7545
0.08 -0.01 3.09 3.66 7.24 -2.94 -0.29 -1.38 7552
0.07 -0.01 3.20 3.06 6.62 -3.02 -0.19 -1.25 7558
0.08 -0.01 3.10 2.79 5.98 -3.08 -0.05 -1.10 7564
0.08 -0.01 3.00 2.46 5.86 -3.11 0.06 -1.00 7570
0.08 -0.01 2.55 2.20 5.69 -3.13 0.10 -0.85 7576
0.07 -0.01 2.17 2.15 5.82 -3.13 0.10 -0.68 7582
0.09 -0.01 1.98 2.08 6.05 -3.13 0.03 -0.50 7589
0.08 -0.01 2.22 2.14 6.38 -3.14 -0.04 -0.32 7596
0.07 -0.01 2.67 2.28 6.86 -3.14 -0.09 -0.15 7602
0.08 -0.01 3.30 2.40 7.44 -3.16 -0.04 -0.00 7608
0.09 -0.01 3.77 2.31 8.20 -3.21 0.15 0.15 7614
0.07 -0.01 3.93 2.17 8.86 -3.32 0.42 0.28 7620
0.08 -0.01 3.47 1.89 9.41 -3.46 0.71 0.37 7626
0.08 -0.01 2.74 1.38 10.07 -3.58 0.95 0.43 7632
0.09 -0.01 2.16 0.75 10.75 -3.73 1.10 0.46 7640
0.07 -0.01 1.52 0.22 11.35 -3.87 1.23 0.46 7646
0.06 -0.01 1.01 -0.50 11.83 -4.00 1.31 0.44 7652
0.07 -0.01 0.57 -1.28 12.00 -4.09 1.37 0.41 7658
0.07 -0.01 0.25 -2.25 12.25 -4.13 1.41 0.35 7664
0.06 -0.01 -0.04 -3.18 12.42 -4.13 1.43 0.29 7670
0.07 -0.01 -0.30 -3.98 12.59 -4.10 1.47 0.22 7677
0.07 -0.01 -0.55 -4.69 12.72 -4.06 1.51 0.15 7684
0.06 -0.01 -0.69 -5.25 13.05 -3.97 1.53 0.08 7690
0.07 -0.00 -0.84 -5.69 13.42 -3.86 1.54 0.03 7696
0.07 -0.01 -0.83 -5.86 13.96 -3.75 1.54 0.01 7702
0.07 -0.01 -1.03 -5.87 14.50 -3.64 1.52 -0.01 7708
0.06 -0.01 -1.07 -6.10 14.77 -3.54 1.53 0.00 7715
0.07 -0.01 -1.14 -6.28 15.04 -3.43 1.54 0.03 7721
0.07 -0.01 -1.31 -6.47 15.37 -3.32 1.56 0.08 7728
0.07 -0.01 -1.54 -6.74 15.87 -3.20 1.59 0.14 7734
0.08 -0.01 -1.82 -7.01 16.37 -3.08 1.60 0.21 7740
0.07 -0.01 -2.01 -7.14 16.74 -2.98 1.57 0.28 7746
0.06 -0.01 -1.97 -7.39 16.95 -2.90 1.49 0.35 7753
0.07 -0.01 -2.07 -7.60 17.20 -2.82 1.38 0.43 7759
0.07 -0.01 -1.25 -7.90 17.11 -2.74 1.24 0.50 7766
0.06 -0.01 -1.54 -8.22 16.84 -2.66 1.14 0.57 7772
0.07 -0.01 -1.13 -8.50 16.35 -2.57 1.01 0.64 7778
0.07 -0.01 -0.70 -8.74 15.87 -2.45 0.91 0.72 7784
0.06 -0.01 -0.25 -9.04 15.35 -2.31 0.84 0.79 7791
0.07 0.00 0.10 -9.17 14.88 -2.15 0.81 0.87 7797
0.07 -0.01 0.13 -9.47 14.78 -1.97 0.79 0.96 7803
0.06 -0.01 0.12 -9.83 14.83 -1.80 0.79 1.04 7810
0.07 -0.00 -0.13 -10.31 15.22 -1.64 0.77 1.12 7816
0.07 -0.01 -0.76 -10.69 15.50 -1.57 0.72 1.21 7823
0.06 -0.01 -1.40 -11.01 15.70 -1.51 0.60 1.30 7829
0.09 -0.01 -1.64 -11.45 15.51 -1.52 0.45 1.39 7835
0.07 -0.01 -1.58 -12.07 15.00 -1.56 0.28 1.48 7841
0.07 -0.01 -1.14 -12.63 14.28 -1.61 0.13 1.56 7847
0.08 -0.01 -0.04 -13.34 13.49 -1.65 0.10 1.61 7855
0.07 -0.01 -0.09 -14.05 12.66 -1.68 0.10 1.63 7861
0.07 -0.01 0.53 -14.60 11.64 -1.71 0.21 1.61 7867
0.07 -0.01 1.07 -15.07 10.39 -1.73 0.40 1.58 7873
0.07 -0.01 0.98 -15.28 8.46 -1.73 0.69 1.53 7879
0.07 0.02 -0.06 -14.65 6.96 -1.68 1.17 1.52 7886
0.07 -0.01 -2.07 -15.65 6.55 -1.58 1.91 1.61 7892
0.06 -0.01 -4.59 -17.91 6.70 -1.45 2.46 1.65 7899
0.07 -0.00 -7.77 -19.05 7.23 -1.32 2.33 1.55 7905
0.07 -0.01 -9.54 -19.49 6.30 -1.18 1.67 1.35 7911
0.06 -0.01 -9.61 -19.63 4.82 -0.99 0.86 1.09 7918
0.06 -0.00 -9.70 -24.48 4.97 -0.64 0.12 0.82 7924
0.07 -0.01 -9.08 -24.63 5.88 0.04 -0.40 0.55 7930
0.06 -0.01 -6.82 -22.89 -1.25 0.70 -0.76 0.23 7937
0.06 -0.01 -6.33 -23.45 -0.04 1.24 -1.06 -0.11 7943
0.07 -0.01 -5.93 -22.47 3.35 1.77 -1.43 -0.36 7949
0.06 -0.01 -5.96 -15.69 6.25 2.25 -1.77 -0.52 7956
0.05 0.01 -1.19 -2.77 9.08 2.42 -1.90 -0.63 7962
0.06 0.02 0.82 0.30 14.47 2.30 -1.84 -0.63 7968
0.05 0.04 4.41 3.41 15.98 2.06 -1.35 -0.42 7974
0.04 0.15 6.05 3.35 15.27 1.79 -0.58 -0.05 7981
0.04 0.23 4.77 0.73 12.48 1.65 0.06 0.31 7988
0.02 0.28 1.80 -1.89 10.96 1.85 0.37 0.52 7994
0.03 0.35 -0.80 -3.12 11.97 2.29 0.19 0.53 8000
0.03 0.37 -2.78 -3.27 15.81 2.66 -0.16 0.36 8006
0.02 0.39 -2.46 -3.01 18.40 2.79 -0.28 0.11 8012
0.04 0.42 -0.55 -2.38 18.44 2.53 -0.36 -0.07 8019
0.03 0.44 -0.20 -2.83 18.48 2.06 -0.39 -0.17 8026
0.04 0.49 0.35 -2.49 16.73 1.61 -0.63 -0.25 8032
0.05 0.51 2.42 -2.32 14.18 0.90 -0.69 -0.21 8038
0.04 0.53 1.89 -2.05 11.23 0.48 -0.50 0.03 8045
0.05 0.55 0.19 -1.51 10.65 0.33 -0.38 0.14 8051
0.04 0.55 0.03 -1.22 10.79 0.28 -0.36 0.12 8057
0.05 0.56 -0.03 -0.91 10.14 0.18 -0.28 0.08 8064
0.06 0.58 -0.01 -0.10 9.50 0.14 -0.23 0.10 8070
0.05 0.57 0.57 -0.38 9.34 0.14 -0.25 0.07 8076
0.06 0.56 0.54 -2.15 10.39 0.13 -0.24 0.10 8083
0.07 0.57 0.40 -1.17 9.94 0.10 -0.25 0.10 8089
0.06 0.57 0.50 -0.83 10.20 0.07 -0.22 0.10 8095
0.06 0.57 0.44 -1.06 10.01 0.03 -0.16 0.11 8101
0.06 0.61 0.41 -1.07 9.96 0.01 -0.14 0.10 8108
0.08 0.65 0.38 -0.99 9.91 0.00 -0.13 0.09 8115
0.09 0.66 0.37 -1.00 9.92 -0.00 -0.13 0.10 8121
0.09 0.69 0.40 -0.97 9.80 0.00 -0.12 0.10 8127
0.10 0.73 0.39 -0.94 10.09 0.01 -0.11 0.08 8133
0.09 0.71 0.46 -1.02 10.01 0.02 -0.11 0.08 8139
0.07 0.71 0.35 -1.06 9.97 0.02 -0.11 0.08 8145
0.09 0.72 0.30 -1.13 10.06 0.02 -0.10 0.07 8152
0.10 0.71 0.17 -1.02 10.09 0.01 -0.09 0.08 8159
0.10 0.71 0.24 -0.98 9.95 0.02 -0.09 0.10 8165
0.11 0.71 0.36 -1.09 10.04 0.02 -0.07 0.10 8171
0.13 0.70 0.35 -1.12 10.07 0.02 -0.06 0.10 8177
0.11 0.68 0.43 -1.09 10.01 0.02 -0.06 0.09 8183
0.12 0.68 0.39 -1.07 10.02 0.02 -0.06 0.10 8190
0.15 0.65 0.40 -1.09 9.93 0.02 -0.05 0.10 8197
0.15 0.63 0.48 -1.05 9.91 0.02 -0.06 0.10 8203
0.15 0.63 0.44 -1.06 9.96 0.02 -0.06 0.10 8209
0.18 0.61 0.44 -1.05 9.93 0.02 -0.07 0.10 8215
0.16 0.59 0.46 -1.08 9.96 0.02 -0.07 0.09 8221
0.16 0.59 0.45 -1.03 9.95 0.02 -0.08 0.09 8227
0.21 0.57 0.42 -1.06 9.94 0.02 -0.08 0.08 8235
0.22 0.55 0.42 -1.06 9.98 0.02 -0.08 0.08 8241
0.22 0.52 0.39 -1.10 10.05 0.02 -0.08 0.08 8247
0.26 0.50 0.39 -1.09 9.95 0.02 -0.09 0.09 8253
0.28 0.45 0.37 -1.07 9.94 0.02 -0.08 0.09 8259
0.29 0.36 0.34 -1.08 9.96 0.02 -0.08 0.09 8265
0.30 0.35 0.35 -1.06 9.97 0.03 -0.07 0.09 8272
0.32 0.35 0.33 -1.07 9.97 0.03 -0.07 0.08 8279
0.32 0.34 0.24 -1.13 9.94 0.03 -0.06 0.09 8285
0.33 0.33 0.34 -1.08 9.94 0.03 -0.06 0.09 8291
0.35 0.32 0.37 -1.12 9.94 0.03 -0.05 0.10 8297
0.35 0.27 0.35 -1.10 9.92 0.03 -0.06 0.09 8303
0.35 0.25 0.35 -1.09 9.97 0.03 -0.05 0.09 8309
0.37 0.21 0.38 -1.12 9.91 0.03 -0.06 0.10 8316
0.41 0.18 0.37 -1.11 9.88 0.03 -0.05 0.09 8323
0.42 0.14 0.35 -1.13 9.89 0.03 -0.06 0.09 8329
0.43 0.13 0.34 -1.10 9.90 0.03 -0.06 0.09 8335
0.46 0.13 0.35 -1.07 9.89 0.02 -0.05 0.09 8341
0.46 0.11 0.32 -1.13 9.91 0.02 -0.05 0.08 8347
0.46 0.09 0.32 -1.09 9.92 0.02 -0.05 0.10 8353
0.48 0.12 0.35 -1.07 9.95 0.03 -0.04 0.10 8360
0.50 0.11 0.33 -1.12 9.88 0.02 -0.04 0.10 8367
0.52 0.06 0.33 -1.10 9.92 0.03 -0.04 0.10 8373
0.51 0.08 0.13 -1.25 9.86 0.02 -0.03 0.09 8379
0.52 0.08 0.31 -1.11 9.93 0.03 -0.03 0.10 8385
0.52 0.04 0.37 -1.14 9.97 0.03 -0.02 0.09 8391
0.51 0.04 0.37 -1.14 9.93 0.03 -0.03 0.09 8397
0.52 0.06 0.38 -1.14 9.86 0.02 -0.03 0.10 8404
0.53 0.04 0.36 -1.23 9.91 0.02 -0.03 0.09 8411
0.56 0.03 0.37 -1.14 9.85 0.03 -0.03 0.08 8417
0.57 0.04 0.31 -1.16 9.92 0.02 -0.03 0.08 8423
0.61 0.01 0.35 -1.14 9.92 0.02 -0.03 0.09 8429
0.62 0.03 0.33 -1.18 9.92 0.02 -0.03 0.09 8435
0.64 0.02 0.35 -1.13 9.95 0.02 -0.03 0.09 8441
0.67 0.03 0.35 -1.14 9.93 0.02 -0.03 0.10 8448
0.70 0.00 0.37 -1.13 9.92 0.03 -0.03 0.08 8455
0.72 0.01 0.38 -1.23 9.90 0.03 -0.02 0.09 8461
0.72 0.03 0.33 -1.15 9.99 0.03 -0.02 0.08 8467
0.74 0.01 0.34 -1.24 9.95 0.04 -0.02 0.08 8473
0.75 -0.00 0.37 -1.14 9.92 0.04 -0.02 0.08 8479
0.74 -0.02 0.36 -1.14 10.02 0.05 -0.01 0.08 8485
0.76 -0.01 0.34 -1.15 9.94 0.05 -0.01 0.08 8493
0.76 -0.01 0.35 -1.16 9.96 0.05 -0.00 0.08 8499
0.79 -0.04 0.33 -1.19 9.95 0.06 -0.00 0.07 8505
0.80 -0.04 0.37 -1.20 9.96 0.06 -0.00 0.08 8511
0.82 -0.04 0.39 -1.78 9.93 0.07 -0.01 0.07 8517
0.81 -0.05 0.40 -1.14 9.97 0.08 -0.02 0.07 8523
0.81 -0.06 0.39 -1.26 10.01 0.09 -0.03 0.06 8529
0.83 -0.05 0.40 -1.15 10.05 0.10 -0.04 0.06 8537
0.84 -0.05 0.55 -1.04 10.13 0.11 -0.05 0.05 8543
0.84 -0.05 0.45 -1.35 9.99 0.12 -0.05 0.07 8549
0.89 -0.04 0.35 -1.18 10.01 0.13 -0.05 0.06 8555
0.90 -0.04 0.45 -1.16 10.14 0.14 -0.05 0.06 8561
0.93 -0.05 0.43 -1.36 10.13 0.15 -0.05 0.05 8568
0.99 -0.05 0.52 -1.37 10.23 0.18 -0.05 0.05 8574
0.99 -0.06 0.49 -1.27 10.21 0.21 -0.05 0.04 8581
1.00 -0.06 1.08 -1.38 10.25 0.25 -0.06 0.03 8587
1.03 -0.05 0.58 -1.39 10.39 0.30 -0.06 0.02 8593
1.04 -0.07 0.55 -1.38 10.45 0.38 -0.06 0.00 8600
1.06 -0.05 0.57 -1.45 10.64 0.46 -0.07 -0.00 8606
1.10 -0.06 0.37 -1.49 10.69 0.54 -0.08 -0.00 8612
1.11 -0.06 0.16 -1.57 10.76 0.63 -0.09 0.01 8619
1.14 -0.05 0.29 -1.53 10.70 0.71 -0.08 0.02 8625
1.14 -0.06 0.35 -1.80 10.75 0.78 -0.07 0.03 8632
1.15 -0.05 0.40 -1.70 10.79 0.84 -0.05 0.03 8638
1.20 -0.04 0.08 -1.31 11.11 0.90 -0.02 0.02 8644
1.21 -0.04 0.22 -2.35 10.58 0.96 0.04 0.02 8650
1.20 -0.06 0.28 -1.89 10.80 1.01 0.05 0.03 8656
1.23 -0.05 0.37 -1.95 11.16 1.08 0.06 0.03 8664
1.25 -0.05 0.67 -2.19 11.16 1.16 0.06 0.02 8670
1.24 -0.05 0.58 -2.23 10.91 1.24 0.06 0.01 8676
1.26 -0.05 1.22 -2.28 11.07 1.31 0.08 -0.01 8682
1.25 -0.06 0.63 -2.51 10.94 1.38 0.07 -0.03 8688
1.26 -0.04 0.53 -2.57 11.11 1.46 0.06 -0.04 8695
1.26 -0.06 0.30 -3.31 11.42 1.53 0.06 -0.04 8701
1.23 -0.06 0.65 -2.71 11.24 1.59 0.05 -0.05 8708
1.20 -0.06 0.11 -3.49 11.88 1.66 0.01 -0.06 8714
1.16 -0.06 1.11 -3.00 11.46 1.77 0.02 -0.11 8720
1.11 -0.05 1.03 -3.10 11.75 1.89 -0.01 -0.15 8727
1.11 -0.04 0.79 -3.20 12.07 2.01 -0.02 -0.18 8733
1.05 -0.05 0.32 -3.36 12.09 2.13 -0.03 -0.20 8739
0.97 -0.04 0.59 -3.53 11.75 2.24 -0.06 -0.21 8745
0.87 -0.04 0.59 -3.75 12.85 2.38 -0.08 -0.21 8753
0.80 -0.05 0.98 -3.72 13.34 2.61 -0.07 -0.22 8759
0.73 -0.04 1.14 -4.26 12.41 2.84 -0.06 -0.25 8765
0.71 -0.04 1.24 -4.37 14.61 3.11 -0.04 -0.29 8771
0.68 -0.04 1.88 -4.75 14.58 3.38 -0.05 -0.35 8777
0.55 -0.02 1.76 -5.60 16.14 3.69 -0.05 -0.40 8784
0.52 -0.03 1.58 -5.84 16.59 3.94 -0.05 -0.43 8791
0.50 -0.03 1.57 -6.41 16.80 4.12 -0.06 -0.44 8797
0.44 -0.02 2.03 -7.31 18.11 4.21 -0.04 -0.46 8803
0.40 -0.03 1.66 -7.75 18.65 4.24 0.06 -0.45 8810
0.35 -0.03 1.16 -8.17 19.63 4.24 0.09 -0.43 8816
0.29 -0.02 -0.18 -7.88 18.85 4.24 0.09 -0.39 8822
0.27 -0.03 1.26 -7.87 18.62 4.21 0.04 -0.36 8828
0.25 -0.02 2.27 -7.39 18.44 4.17 0.15 -0.34 8835
0.23 -0.02 1.84 -7.03 18.33 4.11 0.25 -0.37 8842
0.21 -0.02 2.13 -6.58 17.48 4.06 0.30 -0.41 8848
0.17 -0.01 2.54 -5.50 16.78 4.02 0.35 -0.44 8854
0.18 -0.01 2.70 -4.07 16.08 4.00 0.41 -0.49 8860
0.14 -0.01 3.00 -2.95 15.26 4.00 0.44 -0.56 8866
0.11 -0.01 2.94 -1.79 14.65 4.02 0.48 -0.64 8872
0.11 -0.01 3.35 -0.98 14.38 4.11 0.48 -0.74 8880
0.08 -0.01 2.77 -0.05 16.56 4.22 0.41 -0.85 8886
0.07 -0.01 2.26 0.97 17.19 4.28 0.30 -0.98 8892
0.08 -0.01 1.70 2.16 15.48 4.28 0.21 -1.11 8898
0.08 -0.01 0.99 7.93 10.95 4.28 0.14 -1.24 8904
0.06 -0.01 0.91 14.52 6.07 4.28 -0.17 -1.62 8910
0.07 -0.01 2.73 10.45 3.97 3.37 -0.41 -2.01 8918
0.06 -0.01 1.58 14.60 8.50 1.30 -0.57 -2.18 8924
0.06 -0.01 3.48 12.65 19.67 -0.12 -0.27 -2.18 8930
0.07 -0.01 4.45 7.05 19.24 -1.17 0.11 -2.14 8936
0.07 -0.01 3.02 6.91 16.25 -1.88 0.29 -2.13 8942
0.06 -0.01 1.83 7.53 12.17 -2.30 0.37 -2.06 8948
0.08 -0.00 1.68 6.26 9.58 -2.64 0.39 -1.94 8955
0.07 -0.01 2.10 4.70 8.11 -2.85 0.37 -1.84 8962
0.06 -0.01 2.35 3.92 7.24 -2.97 0.32 -1.76 8968
0.06 -0.01 2.17 3.41 6.78 -3.04 0.29 -1.66 8974
0.07 -0.01 2.01 3.05 6.41 -3.07 0.26 -1.53 8980
0.07 -0.01 2.09 2.78 6.22 -3.10 0.22 -1.38 8986
0.06 -0.01 2.17 2.60 6.22 -3.11 0.16 -1.23 8992
0.07 -0.01 2.09 2.62 6.48 -3.13 0.11 -1.07 8998
0.07 -0.01 2.28 2.63 6.84 -3.17 0.07 -0.90 9006
0.07 -0.01 2.70 2.62 7.37 -3.22 0.05 -0.76 9012
0.07 -0.01 3.22 2.28 7.85 -3.28 0.08 -0.61 9018
0.06 -0.01 3.66 1.88 8.12 -3.36 0.16 -0.48 9024
0.07 -0.01 3.86 1.34 8.41 -3.45 0.32 -0.36 9030
0.06 -0.01 3.84 0.75 8.88 -3.52 0.52 -0.25 9036
0.06 -0.01 3.08 0.28 9.56 -3.61 0.71 -0.14 9042
0.07 -0.01 3.29 -0.01 10.15 -3.70 0.83 -0.06 9049
0.07 -0.01 2.93 -0.23 10.72 -3.80 0.95 0.03 9056
0.07 -0.01 2.69 -0.63 11.41 -3.92 1.05 0.11 9062
0.06 -0.01 2.38 -1.12 11.84 -4.04 1.12 0.18 9068
0.07 -0.01 2.17 -1.83 12.23 -4.11 1.19 0.24 9074
0.06 -0.01 2.05 -2.69 12.52 -4.15 1.26 0.28 9080
0.05 -0.00 1.96 -3.73 12.91 -4.17 1.33 0.30 9086
0.06 -0.01 1.70 -4.73 13.08 -4.15 1.41 0.32 9094
0.06 -0.01 1.53 -5.51 13.08 -4.12 1.50 0.33 9100
0.05 -0.00 1.29 -6.13 13.37 -4.05 1.52 0.33 9106
0.06 -0.00 1.09 -6.51 13.62 -3.95 1.55 0.36 9112
0.06 -0.01 0.95 -6.75 14.17 -3.82 1.56 0.39 9118
0.05 -0.00 0.95 -6.83 14.57 -3.70 1.56 0.44 9124
0.07 -0.00 0.79 -6.87 15.13 -3.60 1.56 0.51 9132
0.06 -0.01 0.54 -7.03 15.45 -3.50 1.58 0.59 9138
0.06 -0.01 0.32 -7.01 15.72 -3.41 1.59 0.69 9144
0.06 0.00 -0.08 -7.07 16.03 -3.31 1.59 0.78 9150
0.07 -0.01 -0.33 -7.17 16.25 -3.23 1.58 0.88 9156
0.06 -0.01 -0.56 -7.34 16.47 -3.13 1.56 0.96 9162
0.06 -0.00 -0.75 -7.61 16.94 -3.04 1.52 1.02 9169
0.06 -0.01 -0.82 -7.90 17.16 -2.95 1.47 1.06 9176
0.06 -0.01 -0.99 -8.08 17.29 -2.88 1.38 1.08 9182
0.05 -0.01 -0.99 -8.53 17.18 -2.82 1.28 1.09 9188
0.06 -0.01 -0.95 -9.00 16.91 -2.75 1.17 1.09 9194
0.05 -0.01 -0.76 -9.55 16.46 -2.67 1.06 1.08 9200
0.05 -0.01 -0.64 -9.90 15.94 -2.56 0.95 1.07 9207
0.07 -0.01 -0.55 -10.31 15.40 -2.42 0.83 1.08 9213
0.06 -0.01 -0.50 -10.71 15.06 -2.25 0.69 1.09 9220
0.06 -0.01 -0.54 -11.03 14.92 -2.08 0.54 1.10 9226
0.07 -0.01 -0.55 -11.24 14.83 -1.93 0.38 1.12 9233
0.06 -0.01 -0.68 -11.58 14.72 -1.75 0.23 1.14 9239
0.06 -0.01 -0.73 -11.83 14.46 -1.66 0.10 1.16 9245
0.07 -0.01 -0.56 -12.27 14.17 -1.56 -0.01 1.17 9251
0.06 -0.01 -0.30 -12.74 13.62 -1.49 -0.05 1.18 9257
0.08 -0.01 -0.04 -13.25 12.97 -1.44 -0.03 1.19 9265
0.07 -0.01 0.15 -13.69 12.26 -1.41 0.06 1.20 9271
0.07 -0.01 0.17 -13.58 10.99 -1.40 0.23 1.23 9277
0.08 -0.01 -0.29 -13.64 10.15 -1.41 0.53 1.33 9283
0.07 -0.01 -1.42 -13.86 10.15 -1.44 0.93 1.48 9289
0.07 -0.01 -3.32 -14.13 10.18 -1.50 1.24 1.61 9296
0.08 -0.01 -5.58 -14.66 9.92 -1.58 1.35 1.77 9303
0.07 -0.01 -7.45 -16.08 9.13 -1.64 1.23 1.88 9309
0.07 -0.00 -8.82 -17.41 7.68 -1.61 0.83 1.91 9315
0.07 -0.01 -8.96 -18.73 5.63 -1.46 0.27 1.86 9321
0.07 -0.01 -8.26 -19.99 3.78 -1.18 -0.27 1.74 9328
0.08 -0.00 -6.09 -25.94 3.28 -0.69 -0.64 1.54 9334
0.07 -0.01 -4.18 -26.10 3.02 0.28 -0.56 1.22 9340
0.07 -0.01 -3.83 -23.31 -3.05 0.85 -0.50 0.85 9347
0.07 -0.00 -4.73 -24.85 1.12 1.36 -0.45 0.48 9353
0.07 -0.01 -5.01 -23.38 5.36 1.90 -0.50 0.21 9360
0.06 -0.01 -6.29 -19.14 5.30 2.26 -0.63 0.04 9366
0.07 0.01 -3.89 -4.90 8.25 2.43 -0.75 -0.10 9372
0.08 0.01 -1.82 -0.03 12.09 2.35 -0.67 -0.20 9378
0.07 0.05 0.88 2.81 14.57 2.19 -0.49 -0.20 9384
0.06 0.14 2.62 4.03 14.28 2.03 -0.14 -0.13 9392
0.06 0.20 1.15 1.91 12.88 1.91 0.07 -0.12 9398
0.04 0.28 0.01 -2.08 12.18 2.08 -0.01 -0.19 9404
0.05 0.37 0.28 -3.08 12.73 2.44 -0.17 -0.26 9410
0.06 0.37 1.24 -3.34 15.87 2.73 -0.32 -0.31 9416
0.05 0.42 2.14 -3.32 19.39 2.87 -0.29 -0.33 9423
0.06 0.46 2.92 -3.15 18.30 2.59 -0.39 -0.23 9430
0.05 0.49 1.83 -2.77 18.46 2.17 -0.69 -0.10 9436
0.06 0.54 0.77 -2.37 16.18 1.62 -1.11 -0.06 9442
0.05 0.56 1.46 -2.79 14.94 1.02 -1.01 0.05 9449
0.04 0.59 0.16 -2.31 13.05 0.50 -0.61 0.16 9455
0.04 0.62 -0.21 -1.64 10.87 0.22 -0.33 0.14 9461
0.04 0.63 -0.09 -1.29 10.37 0.15 -0.24 0.09 9467
0.04 0.63 0.83 -1.01 10.03 0.12 -0.18 0.10 9474
0.06 0.64 1.19 -0.80 10.14 0.10 -0.15 0.13 9481
0.05 0.65 0.64 -0.24 10.22 0.11 -0.15 0.13 9487
0.05 0.68 0.35 -1.26 10.08 0.08 -0.12 0.13 9493
0.07 0.71 0.25 -1.17 10.06 0.05 -0.11 0.12 9499
0.05 0.70 0.52 -1.19 10.04 0.04 -0.11 0.14 9505
0.06 0.74 0.48 -1.04 9.95 0.03 -0.10 0.13 9512
0.07 0.76 0.46 -1.06 9.93 0.02 -0.09 0.13 9519
0.06 0.77 0.44 -1.03 9.91 0.01 -0.07 0.14 9525
0.06 0.79 0.37 -1.01 9.89 0.00 -0.06 0.13 9531
0.07 0.82 0.40 -0.99 9.88 0.00 -0.05 0.14 9537
0.07 0.82 0.42 -0.98 9.85 0.01 -0.05 0.13 9543
0.06 0.82 0.36 -0.99 10.19 0.01 -0.04 0.13 9549
0.05 0.83 0.43 -1.02 9.95 0.01 -0.04 0.13 9556
0.06 0.83 0.46 -1.03 9.97 0.01 -0.04 0.13 9563
0.06 0.83 0.48 -1.03 9.97 0.00 -0.04 0.12 9569
0.05 0.83 0.42 -1.01 9.94 0.01 -0.04 0.13 9575
0.07 0.84 0.40 -1.08 10.00 0.00 -0.04 0.12 9581
0.06 0.83 0.40 -1.04 9.97 0.00 -0.04 0.12 9587
0.05 0.82 0.41 -1.03 9.92 0.01 -0.03 0.12 9593
0.06 0.83 0.45 -1.01 9.87 0.00 -0.03 0.12 9601
0.06 0.83 0.44 -1.01 9.94 0.00 -0.03 0.12 9607
0.06 0.81 0.49 -1.04 9.88 0.01 -0.03 0.12 9613
0.07 0.80 0.46 -1.06 9.94 0.01 -0.04 0.11 9619
0.08 0.79 0.50 -1.03 9.93 0.01 -0.06 0.11 9625
0.07 0.79 0.49 -1.04 9.92 0.01 -0.06 0.10 9631
0.06 0.76 0.48 -1.03 9.93 0.01 -0.08 0.10 9637
0.08 0.73 0.47 -1.05 9.93 0.01 -0.08 0.09 9645
0.09 0.71 0.49 -1.00 9.90 0.01 -0.09 0.08 9651
0.07 0.69 0.55 -1.05 9.86 0.01 -0.09 0.08 9657
0.09 0.66 0.41 -1.07 9.95 0.01 -0.09 0.08 9663
0.09 0.67 0.47 -1.01 9.92 0.02 -0.09 0.09 9669
0.11 0.61 0.34 -1.07 9.90 0.02 -0.08 0.10 9675
0.12 0.58 0.38 -1.04 10.00 0.03 -0.06 0.10 9681
0.12 0.60 0.42 -1.07 9.93 0.03 -0.05 0.10 9689
0.13 0.57 0.42 -1.05 9.94 0.00 -0.04 0.10 9695
0.13 0.51 0.41 -1.07 9.95 0.04 -0.04 0.10 9701
0.13 0.50 0.41 -1.11 9.99 0.04 -0.03 0.10 9707
0.15 0.45 0.43 -1.07 9.91 0.04 -0.03 0.10 9713
0.17 0.45 0.46 -1.12 9.95 0.04 -0.02 0.10 9719
0.17 0.40 0.41 -1.10 9.91 0.04 -0.02 0.10 9725
0.17 0.36 0.47 -1.11 9.91 0.04 -0.02 0.10 9733
0.17 0.36 0.46 -1.12 9.96 0.04 -0.02 0.10 9739
0.16 0.32 0.47 -1.13 9.92 0.03 -0.03 0.09 9745
0.17 0.30 0.48 -1.12 9.96 0.03 -0.03 0.10 9751
0.20 0.29 0.48 -1.11 9.91 0.03 -0.03 0.09 9757
0.20 0.27 0.54 -1.14 9.96 0.03 -0.04 0.09 9763
0.17 0.25 0.47 -1.13 9.98 0.03 -0.05 0.08 9769
0.19 0.25 0.42 -1.11 9.98 0.03 -0.06 0.08 9777
0.21 0.21 0.49 -1.16 9.92 0.02 -0.06 0.08 9783
0.22 0.19 0.48 -1.13 9.92 0.02 -0.07 0.08 9789
0.22 0.15 0.48 -1.14 9.91 0.02 -0.07 0.08 9795
0.25 0.16 0.45 -1.14 9.92 0.02 -0.06 0.07 9801
0.28 0.14 0.46 -1.13 9.94 0.02 -0.06 0.07 9807
0.27 0.11 0.47 -1.14 9.87 0.02 -0.07 0.07 9814
0.30 0.09 0.44 -1.12 9.97 0.02 -0.06 0.03 9821
0.30 0.11 0.44 -1.18 9.90 0.02 -0.06 0.08 9827
0.31 0.09 0.38 -1.11 9.85 0.01 -0.06 0.07 9833
0.32 0.12 0.44 -1.15 9.94 0.01 -0.05 0.07 9839
0.34 0.10 0.43 -1.16 9.93 0.02 -0.05 0.07 9845
0.35 0.07 0.42 -1.09 9.92 0.02 -0.05 0.06 9851
0.35 0.09 0.43 -1.18 9.97 0.02 -0.04 0.07 9858
0.39 0.06 0.45 -1.19 9.97 0.02 -0.04 0.07 9865
0.39 0.05 0.44 -1.14 9.94 0.03 -0.04 0.07 9871
0.40 0.05 0.43 -1.17 9.97 0.03 -0.03 0.07 9877
0.42 0.07 0.56 -1.06 10.08 0.03 -0.02 0.07 9883
0.44 0.02 0.44 -1.17 9.94 0.03 -0.02 0.07 9889
0.43 0.06 0.45 -1.17 9.95 0.03 -0.02 0.07 9895
0.43 0.03 0.40 -1.38 9.91 0.03 -0.02 0.07 9902
0.44 0.03 0.41 -1.19 9.98 0.04 -0.02 0.07 9909
0.43 0.03 0.44 -1.70 10.03 0.03 -0.01 0.07 9915
0.43 0.02 0.44 -1.15 9.92 0.04 -0.01 0.07 9921
0.45 -0.00 0.44 -1.18 10.03 0.04 -0.01 0.07 9927
0.46 -0.02 0.47 -1.24 9.97 0.05 -0.00 0.07 9933
0.47 -0.03 0.39 -1.17 10.01 0.06 0.00 0.07 9939
0.48 -0.01 0.44 -1.24 9.99 0.07 -0.00 0.07 9946
0.50 -0.03 0.54 -1.20 10.10 0.07 -0.01 0.06 9953
0.53 -0.05 0.44 -1.30 10.03 0.08 -0.01 0.06 9959
0.55 -0.03 0.61 -0.99 10.11 0.09 -0.02 0.04 9965
0.58 -0.04 0.51 -1.30 10.09 0.11 -0.03 0.05 9971
0.61 -0.05 0.48 -1.18 9.87 0.12 -0.03 0.06 9977
0.62 -0.03 0.49 -1.44 10.06 0.14 -0.04 0.05 9985
0.67 -0.04 0.51 -1.33 10.16 0.16 -0.04 0.05 9991
0.72 -0.05 0.41 -1.12 10.27 0.20 -0.05 0.05 9997
0.76 -0.03 0.57 -1.23 10.33 0.24 -0.06 0.04 10003
0.81 -0.04 0.66 -1.31 10.42 0.31 -0.07 0.03 10009
0.85 -0.04 0.60 -1.31 10.70 0.41 -0.10 0.02 10016
0.91 -0.04 0.66 -1.53 11.14 0.52 -0.13 0.00 10022
0.94 -0.05 0.59 -1.60 11.10 0.67 -0.14 -0.00 10029
1.00 -0.03 0.41 -1.56 11.17 0.82 -0.15 -0.00 10035
1.02 -0.05 0.02 -0.17 10.84 0.94 -0.15 -0.01 10042
1.07 -0.05 0.52 -1.66 11.12 1.03 -0.11 0.00 10048
1.11 -0.05 0.51 -2.09 10.45 1.10 -0.07 -0.00 10054
1.14 -0.06 0.38 -1.81 10.92 1.16 -0.04 0.00 10060
1.15 -0.04 0.40 -1.93 11.18 1.24 -0.04 -0.01 10067
1.18 -0.06 0.56 -2.00 10.96 1.33 -0.05 -0.01 10074
1.22 -0.05 0.56 -2.01 11.31 1.41 -0.02 -0.02 10080
1.20 -0.05 0.57 -2.23 11.08 1.49 0.01 -0.03 10086
1.18 -0.05 -1.95 -3.54 20.50 1.54 -0.01 -0.03 10093
1.19 -0.05 0.35 -2.51 11.16 1.65 0.03 -0.06 10099
1.20 -0.05 0.55 -2.66 10.98 1.71 0.03 -0.06 10105
1.13 -0.05 0.64 -2.77 11.05 1.78 0.05 -0.07 10112
1.15 -0.05 0.74 -2.85 11.10 1.85 0.07 -0.09 10119
1.09 -0.06 0.86 -3.09 11.57 1.96 0.07 -0.12 10125
1.03 -0.03 0.85 -3.22 11.94 2.09 0.07 -0.15 10131
1.00 -0.04 0.75 -3.28 12.32 2.22 0.06 -0.17 10138
0.93 -0.04 0.88 -3.26 12.27 2.32 0.02 -0.19 10144
0.88 -0.04 0.67 -3.50 13.07 2.50 0.02 -0.21 10150
0.77 -0.05 0.98 -3.75 13.25 2.70 0.02 -0.23 10157
0.71 -0.02 1.22 -3.93 13.11 2.93 0.03 -0.26 10164
0.62 -0.03 1.21 -4.35 15.35 3.24 0.02 -0.28 10170
0.65 -0.04 1.95 -4.68 15.58 3.57 -0.02 -0.31 10176
0.54 -0.03 1.38 -5.25 17.40 3.88 -0.03 -0.34 10182
0.48 -0.03 1.25 -6.14 18.87 4.14 -0.14 -0.37 10189
0.43 -0.02 2.10 -7.46 18.81 4.24 -0.21 -0.40 10195
0.47 -0.04 1.75 -7.29 19.05 4.27 -0.26 -0.42 10202
0.41 -0.02 2.94 -8.54 20.09 4.28 -0.28 -0.44 10208
0.35 -0.03 0.49 -8.17 20.51 4.28 -0.33 -0.45 10215
0.29 -0.02 1.32 -8.18 20.01 4.26 -0.47 -0.42 10221
0.29 -0.02 2.68 -7.73 19.85 4.24 -0.50 -0.42 10227
0.23 -0.02 2.17 -7.39 20.09 4.19 -0.44 -0.45 10234
0.20 -0.01 2.24 -6.81 19.19 4.14 -0.47 -0.47 10241
0.18 -0.01 2.19 -5.13 18.23 4.10 -0.52 -0.49 10247
0.18 -0.01 2.37 -3.67 17.39 4.08 -0.61 -0.51 10253
0.16 -0.02 2.98 -2.16 15.96 4.09 -0.66 -0.54 10260
0.12 -0.01 3.69 -0.84 14.43 4.13 -0.66 -0.59 10266
0.13 -0.01 4.16 0.36 13.66 4.20 -0.66 -0.65 10272
0.10 -0.01 3.86 0.96 15.55 4.28 -0.64 -0.73 10278
0.09 -0.01 3.54 1.69 16.05 4.28 -0.56 -0.82 10285
0.09 -0.01 3.17 2.89 15.38 4.28 -0.47 -0.91 10292
0.09 -0.01 3.26 6.85 8.40 4.28 -0.27 -1.02 10298
0.07 -0.01 3.54 12.58 5.69 4.28 -0.30 -1.38 10304
0.09 -0.01 4.53 12.52 2.51 4.21 -0.27 -1.81 10310
0.07 -0.01 3.14 16.24 8.06 2.12 -0.19 -2.06 10316
0.07 -0.01 3.16 11.73 21.23 0.56 0.28 -2.07 10323
0.07 -0.01 4.01 8.43 20.29 -0.72 0.70 -1.97 10330
0.05 -0.01 2.05 9.41 16.19 -1.72 0.77 -1.92 10336
0.07 -0.01 0.23 10.20 12.27 -2.48 0.60 -1.81 10342
0.07 -0.01 -0.22 8.25 9.98 -3.00 0.38 -1.59 10349
0.07 -0.01 0.76 5.39 9.10 -3.27 0.18 -1.38 10355
0.08 -0.00 1.78 3.87 7.51 -3.39 0.01 -1.25 10361
0.07 -0.01 2.04 3.03 6.33 -3.42 -0.09 -1.15 10368
0.07 -0.01 2.18 2.48 5.51 -3.40 -0.11 -1.04 10374
0.07 0.00 2.64 1.93 5.09 -3.36 -0.06 -0.93 10380
0.08 -0.01 3.02 1.75 5.25 -3.29 0.03 -0.82 10387
0.07 -0.01 2.99 1.65 5.75 -3.25 0.15 -0.71 10393
0.07 -0.00 2.91 1.54 6.56 -3.25 0.20 -0.60 10399
0.07 -0.01 2.81 1.65 7.50 -3.30 0.26 -0.48 10405
0.07 -0.01 2.64 1.65 8.10 -3.38 0.31 -0.41 10412
0.07 -0.01 2.58 1.53 8.71 -3.49 0.35 -0.30 10418
0.07 -0.01 2.61 1.14 9.30 -3.60 0.37 -0.20 10425
0.07 -0.01 2.95 0.50 9.90 -3.72 0.42 -0.11 10431
0.05 -0.01 3.20 0.08 10.28 -3.82 0.53 -0.03 10437
0.07 -0.01 3.23 -0.34 10.53 -3.96 0.68 0.02 10443
0.06 -0.01 3.08 -0.90 10.85 -4.03 0.86 0.08 10449
0.06 -0.01 2.89 -1.47 11.18 -4.09 1.05 0.12 10456
0.07 -0.01 2.00 -2.00 11.53 -4.12 1.19 0.17 10463
0.06 -0.01 2.05 -2.68 11.85 -4.13 1.32 0.22 10469
0.05 -0.01 1.51 -3.23 12.35 -4.12 1.42 0.26 10475
0.07 -0.01 1.14 -3.98 12.87 -4.10 1.48 0.29 10481
0.05 -0.01 0.64 -4.52 13.33 -4.06 1.51 0.32 10488
0.06 -0.00 0.31 -4.91 13.75 -4.01 1.52 0.34 10494
0.05 -0.01 0.11 -5.26 13.97 -3.95 1.50 0.35 10501
0.05 -0.00 0.09 -5.74 14.40 -3.88 1.49 0.36 10507
0.06 -0.01 0.01 -5.97 14.70 -3.81 1.49 0.37 10513
0.05 -0.01 -0.01 -6.17 15.00 -3.74 1.50 0.38 10520
0.04 -0.00 -0.10 -6.54 15.17 -3.66 1.53 0.39 10526
0.06 -0.01 -0.20 -6.93 15.47 -3.58 1.56 0.41 10532
0.05 -0.01 -0.45 -7.13 15.72 -3.48 1.57 0.44 10539
0.05 -0.00 -0.66 -7.29 16.02 -3.36 1.56 0.48 10545
0.07 -0.01 -0.77 -7.25 16.23 -3.28 1.50 0.52 10552
0.05 -0.01 -0.70 -7.40 16.52 -3.17 1.40 0.57 10558
0.05 -0.01 -0.54 -7.44 16.73 -3.07 1.27 0.61 10564
0.06 -0.01 -0.47 -7.54 16.87 -2.97 1.19 0.67 10570
0.05 -0.00 -0.34 -7.94 17.18 -2.89 1.07 0.71 10576
0.06 -0.01 -0.20 -8.35 17.33 -2.80 0.97 0.74 10584
0.06 -0.01 -0.01 -8.85 17.50 -2.73 0.87 0.76 10590
0.06 -0.01 0.08 -9.25 17.46 -2.67 0.81 0.78 10596
0.06 -0.00 0.18 -9.66 17.23 -2.61 0.78 0.81 10602
0.06 -0.01 -0.05 -9.94 16.93 -2.54 0.76 0.83 10608
0.05 -0.01 0.04 -10.25 16.69 -2.46 0.77 0.87 10615
0.07 -0.01 -0.04 -10.70 16.29 -2.37 0.75 0.91 10621
0.06 -0.01 -0.03 -11.27 15.91 -2.28 0.71 0.97 10628
0.06 -0.01 0.17 -11.85 15.51 -2.19 0.69 1.03 10634
0.06 -0.01 0.52 -12.39 14.87 -2.11 0.72 1.09 10641
0.05 -0.00 0.91 -13.06 14.35 -2.04 0.79 1.14 10647
0.07 -0.01 1.00 -13.72 14.19 -1.99 0.89 1.18 10653
0.06 -0.01 0.78 -14.20 13.84 -1.99 1.00 1.21 10659
0.06 -0.01 0.50 -14.74 13.11 -2.01 1.07 1.21 10667
0.06 -0.01 0.15 -15.26 12.06 -2.02 1.10 1.19 10673
0.05 -0.00 -0.18 -15.92 10.77 -1.98 1.10 1.14 10679
0.08 -0.01 -0.54 -16.48 9.12 -1.88 1.11 1.09 10685
0.07 -0.01 -1.28 -16.34 6.81 -1.71 1.14 1.03 10692
0.06 -0.01 -2.97 -15.71 4.73 -1.45 1.33 1.06 10698
0.06 -0.01 -5.53 -15.91 4.11 -1.10 1.70 1.22 10704
0.06 -0.01 -8.38 -16.99 5.35 -0.77 1.87 1.38 10711
0.07 -0.00 -10.27 -17.67 6.67 -0.53 1.41 1.38 10718
0.06 -0.01 -10.23 -17.97 7.36 -0.38 0.48 1.25 10724
0.07 -0.01 -8.10 -17.95 6.65 -0.25 -0.37 1.04 10730
0.07 -0.01 -5.24 -17.80 5.80 -0.12 -0.79 0.83 10736
0.06 -0.01 -4.51 -23.27 6.83 0.04 -0.90 0.62 10743
0.06 -0.00 -4.98 -24.58 10.05 0.84 -1.04 0.41 10749
0.06 -0.01 -5.49 -20.40 0.85 1.38 -1.23 0.24 10756
0.05 -0.00 -6.37 -21.58 3.42 1.76 -1.74 0.18 10762
0.06 -0.01 -0.62 -5.59 7.53 2.27 -2.04 0.19 10769
0.05 0.00 0.92 -0.75 9.60 2.31 -1.98 0.20 10775
0.04 0.03 3.15 4.10 13.88 2.21 -1.70 0.39 10781
0.04 0.10 4.16 4.46 14.37 1.96 -1.11 0.71 10787
0.03 0.12 2.97 4.11 12.24 1.69 -0.47 0.96 10793
0.03 0.25 0.47 0.29 10.23 1.70 -0.12 1.06 10801
0.04 0.29 -1.68 -1.58 9.79 2.04 0.01 1.04 10807
0.03 0.30 -3.14 -2.55 11.39 2.49 0.00 0.92 10813
0.05 0.35 -4.01 -2.51 14.20 2.83 -0.09 0.70 10819
0.03 0.40 -4.98 -3.13 19.20 2.96 -0.19 0.41 10826
0.04 0.46 -4.35 -2.87 19.24 2.86 -0.26 0.02 10832
0.03 0.48 -0.85 -2.30 16.83 2.59 -0.33 -0.18 10839
0.04 0.55 1.30 -2.45 17.04 2.35 -0.39 -0.26 10845
0.04 0.57 1.26 -2.18 17.00 1.94 -0.95 -0.26 10852
0.04 0.59 2.95 -2.41 15.17 1.16 -1.11 -0.09 10858
0.06 0.60 0.91 -2.02 12.68 0.58 -0.67 0.19 10864
0.05 0.60 -0.33 -1.62 10.50 0.26 -0.41 0.18 10871
0.06 0.60 -0.30 -1.10 10.14 0.20 -0.35 0.09 10877
0.05 0.61 0.63 -0.42 10.07 0.14 -0.28 0.05 10884
0.08 0.63 0.48 -0.12 10.01 0.14 -0.28 0.08 10890
0.07 0.68 0.44 -1.21 10.13 0.13 -0.27 0.12 10897
0.07 0.69 0.23 -0.82 9.87 0.09 -0.26 0.10 10903
0.06 0.72 0.27 -0.90 10.09 0.04 -0.18 0.11 10909
0.08 0.73 0.38 -0.92 10.10 0.02 -0.14 0.11 10915
0.06 0.73 0.31 -0.91 9.96 0.01 -0.13 0.10 10921
0.07 0.75 -0.48 -0.80 10.02 0.02 -0.12 0.09 10929
0.09 0.74 0.37 -0.92 10.11 0.01 -0.13 0.09 10935
0.07 0.74 0.30 -0.90 9.93 0.02 -0.13 0.08 10941
0.09 0.76 0.32 -0.96 9.96 0.02 -0.13 0.07 10947
0.09 0.75 0.17 -0.98 9.90 0.02 -0.11 0.08 10953
0.10 0.73 0.22 -0.99 10.11 0.02 -0.08 0.09 10960
0.11 0.72 0.21 -0.91 10.01 0.03 -0.06 0.10 10967
0.11 0.70 0.20 -0.96 10.09 0.03 -0.03 0.11 10973
0.12 0.68 0.26 -0.95 9.99 0.03 -0.02 0.11 10979
0.13 0.65 0.30 -0.92 9.95 0.03 -0.01 0.12 10986
0.15 0.62 0.35 -0.94 9.91 0.04 -0.01 0.12 10992
0.15 0.61 0.32 -0.93 9.96 0.03 -0.01 0.11 10998
0.16 0.59 0.39 -0.95 9.99 0.04 -0.02 0.11 11004
0.16 0.54 0.36 -0.92 9.94 0.04 -0.02 0.11 11011
0.16 0.54 0.39 -0.96 9.99 0.04 -0.02 0.10 11018
0.17 0.51 0.31 -0.95 9.96 0.04 -0.03 0.09 11024
0.17 0.46 0.36 -0.94 9.96 0.04 -0.04 0.09 11030
0.17 0.44 0.32 -0.93 9.94 0.03 -0.03 0.10 11036
0.17 0.40 0.30 -0.94 9.98 0.04 -0.04 0.09 11042
0.18 0.38 0.33 -0.97 10.03 0.03 -0.03 0.10 11048
0.19 0.38 0.32 -0.95 9.98 0.04 -0.03 0.10 11056
0.20 0.36 0.31 -0.99 9.94 0.04 -0.02 0.10 11062
0.21 0.30 0.29 -0.98 9.96 0.04 -0.01 0.10 11068
0.22 0.28 0.31 -0.99 9.92 0.04 -0.01 0.10 11074
0.21 0.27 0.31 -0.99 10.03 0.04 -0.01 0.10 11080
0.21 0.24 0.37 -1.01 9.90 0.04 -0.00 0.09 11087
0.22 0.23 0.39 -1.02 9.90 0.04 -0.01 0.10 11094
0.22 0.16 0.38 -1.01 9.92 0.03 -0.01 0.09 11100
0.21 0.16 0.36 -1.04 9.94 0.03 -0.01 0.09 11106
0.23 0.15 0.35 -0.99 9.92 0.03 -0.01 0.09 11112
0.22 0.14 0.39 -0.99 9.92 0.02 -0.02 0.09 11119
0.22 0.11 0.35 -1.02 9.93 0.02 -0.02 0.09 11125
0.23 0.15 0.37 -1.02 9.90 0.02 -0.02 0.09 11131
0.24 0.11 0.35 -1.03 9.94 0.01 -0.02 0.09 11138
0.24 0.08 0.36 -1.02 9.92 0.01 -0.02 0.09 11144
0.27 0.10 0.37 -1.00 9.93 0.01 -0.02 0.09 11150
0.29 0.08 0.37 -1.03 9.93 0.01 -0.02 0.09 11157
0.29 0.11 0.38 -0.98 9.95 0.01 -0.02 0.08 11163
0.30 0.12 0.42 -1.03 9.93 0.01 -0.02 0.09 11169
0.31 0.07 0.34 -1.02 9.97 0.01 -0.02 0.08 11175
0.30 0.09 0.40 -1.03 9.96 0.01 -0.02 0.08 11182
0.32 0.08 0.40 -1.03 9.94 0.01 -0.02 0.08 11189
0.33 0.05 0.38 -1.06 9.98 0.01 -0.02 0.08 11195
0.33 0.07 0.40 -1.06 9.93 0.00 -0.02 0.09 11201
0.35 0.08 0.37 -1.06 9.91 0.00 -0.03 0.08 11207
0.37 0.06 0.33 -1.00 9.94 0.01 -0.03 0.08 11213
0.37 0.03 0.38 -1.04 9.93 0.01 -0.03 0.08 11219
0.35 0.04 0.43 -1.03 10.01 0.01 -0.03 0.07 11227
0.38 0.03 0.38 -1.00 9.95 0.01 -0.03 0.08 11233
0.38 0.01 0.37 -1.02 10.02 0.01 -0.04 0.07 11239
0.38 0.03 0.37 -1.05 10.00 0.01 -0.04 0.04 11245
0.38 0.03 0.42 -1.08 9.99 0.01 -0.05 0.07 11251
0.41 0.02 0.40 -1.07 10.00 0.01 -0.06 0.06 11258
0.41 0.03 0.38 -1.03 9.98 0.02 -0.06 0.06 11265
0.44 0.01 0.41 -0.36 9.96 0.02 -0.07 0.06 11271
0.48 0.02 0.42 -1.11 9.96 0.02 -0.07 0.05 11277
0.50 0.01 0.44 -1.03 9.98 0.02 -0.08 0.05 11283
0.55 -0.02 0.37 -1.12 10.01 0.03 -0.08 0.05 11290
0.53 -0.03 0.70 -0.92 9.71 0.03 -0.08 0.04 11296
0.56 -0.02 0.23 -0.97 9.93 0.04 -0.08 0.04 11302
0.58 -0.03 0.29 -1.18 9.98 0.05 -0.08 0.05 11309
0.58 -0.03 0.36 -1.08 10.01 0.06 -0.08 0.04 11315
0.69 -0.04 0.88 -1.03 10.01 0.07 -0.08 0.03 11322
0.71 -0.05 0.31 -1.01 10.06 0.08 -0.09 0.04 11328
0.73 -0.04 0.42 -1.10 10.05 0.10 -0.09 0.03 11334
0.78 -0.04 0.35 -0.96 10.24 0.11 -0.10 0.02 11340
0.80 -0.06 0.31 -0.68 10.10 0.12 -0.11 0.02 11347
0.91 -0.05 0.32 -0.69 10.04 0.14 -0.12 0.01 11354
0.93 -0.05 0.39 -0.70 10.11 0.16 -0.13 0.00 11360
0.96 -0.05 0.45 -1.20 10.25 0.19 -0.15 -0.00 11366
1.01 -0.05 0.27 -1.29 10.23 0.22 -0.16 -0.00 11373
1.07 -0.05 0.42 -1.21 10.34 0.26 -0.18 -0.01 11379
1.12 -0.04 0.45 -1.42 10.39 0.31 -0.20 -0.02 11385
1.15 -0.05 0.40 -1.31 10.47 0.38 -0.22 -0.03 11392
1.20 -0.06 0.42 -1.37 10.68 0.46 -0.22 -0.05 11399
1.22 -0.05 0.35 -1.36 10.82 0.56 -0.22 -0.05 11405
1.25 -0.06 0.21 -1.47 11.10 0.66 -0.23 -0.05 11411
1.29 -0.05 0.22 -1.46 10.91 0.77 -0.24 -0.03 11417
1.32 -0.05 0.08 -1.57 10.96 0.85 -0.23 -0.02 11424
1.39 -0.07 0.09 -1.59 10.74 0.92 -0.23 -0.01 11430
1.39 -0.06 0.18 -1.71 10.87 0.99 -0.21 -0.01 11437
1.43 -0.06 0.16 -1.83 9.80 1.02 -0.17 -0.01 11443
1.46 -0.06 0.25 -1.75 10.81 1.08 -0.15 -0.00 11450
1.47 -0.07 0.32 -2.10 10.56 1.13 -0.12 -0.00 11456
1.47 -0.04 0.06 -2.11 10.55 1.18 -0.09 -0.01 11462
1.50 -0.07 0.10 -2.11 11.56 1.22 -0.07 -0.01 11468
1.50 -0.06 0.16 -2.22 11.47 1.27 -0.04 -0.01 11475
1.53 -0.06 0.19 -2.33 10.58 1.35 -0.04 -0.01 11482
1.50 -0.07 0.28 -2.37 10.56 1.40 -0.00 -0.02 11488
1.49 -0.04 0.33 -2.47 10.52 1.45 0.03 -0.02 11494
1.50 -0.05 0.02 -2.73 10.64 1.53 0.06 -0.03 11501
1.49 -0.06 0.12 -2.65 10.61 1.58 0.06 -0.03 11507
1.47 -0.04 0.30 -2.87 10.95 1.68 0.06 -0.03 11513
1.43 -0.07 0.60 -2.98 11.27 1.77 0.08 -0.05 11520
1.38 -0.04 0.59 -3.15 12.15 1.89 0.06 -0.07 11527
1.32 -0.05 0.82 -3.31 11.82 2.03 0.05 -0.10 11533
1.27 -0.04 0.65 -3.37 11.39 2.16 -0.00 -0.13 11539
1.19 -0.05 0.68 -3.48 11.39 2.29 -0.01 -0.15 11546
1.09 -0.05 0.57 -3.61 12.41 2.44 -0.06 -0.17 11552
1.01 -0.04 0.31 -3.89 12.66 2.62 -0.04 -0.19 11558
0.92 -0.04 0.88 -4.10 12.14 2.85 -0.03 -0.21 11565
0.90 -0.04 0.58 -4.27 14.02 3.11 -0.05 -0.25 11572
0.84 -0.04 1.03 -4.82 15.08 3.39 -0.11 -0.29 11578
0.72 -0.04 1.29 -5.08 15.44 3.69 -0.13 -0.34 11584
0.70 -0.03 1.00 -5.59 16.42 3.99 -0.24 -0.39 11590
0.71 -0.04 1.82 -6.21 16.43 4.18 -0.29 -0.47 11597
0.61 -0.02 1.55 -7.47 17.09 4.25 -0.28 -0.51 11603
0.57 -0.02 2.13 -8.68 18.77 4.27 -0.22 -0.53 11610
0.50 -0.03 1.77 -9.21 20.18 4.28 -0.11 -0.53 11617
0.48 -0.03 1.44 -9.62 19.82 4.28 -0.12 -0.53 11623
0.42 -0.02 1.65 -8.91 20.02 4.27 -0.09 -0.49 11629
0.35 -0.02 1.57 -7.93 19.62 4.23 -0.04 -0.48 11635
0.27 -0.03 0.85 -7.76 19.21 4.15 -0.06 -0.50 11642
0.24 -0.01 1.15 -6.72 18.65 4.08 -0.16 -0.53 11649
0.20 -0.02 1.78 -5.49 17.90 4.02 -0.24 -0.56 11655
0.16 -0.02 2.69 -4.39 17.10 3.97 -0.26 -0.59 11661
0.15 -0.01 3.60 -2.90 15.47 3.97 -0.24 -0.63 11668
0.13 -0.01 4.52 -1.33 14.46 4.00 -0.10 -0.69 11674
0.10 -0.01 4.93 -0.15 13.50 4.05 0.07 -0.78 11680
0.10 -0.01 4.64 1.07 14.80 4.21 0.21 -0.90 11686
0.08 -0.01 4.37 1.60 15.78 4.28 0.39 -1.05 11693
0.08 -0.01 3.67 2.76 15.19 4.28 0.56 -1.25 11700
0.10 -0.01 2.55 8.23 9.91 4.28 0.76 -1.53 11706
0.07 -0.01 3.34 12.49 7.32 4.28 0.87 -2.08 11712
0.07 -0.01 3.83 10.27 3.42 3.44 0.97 -2.39 11718
0.08 -0.01 1.06 15.63 11.00 1.38 0.96 -2.54 11724
0.07 -0.01 0.98 12.70 19.00 -0.14 1.04 -2.45 11731
0.07 -0.01 0.95 7.07 18.52 -1.28 0.90 -2.33 11738
0.07 -0.01 -0.17 7.24 15.23 -2.05 0.55 -2.21 11744
0.07 -0.01 -0.57 7.29 12.02 -2.55 0.20 -1.96 11750
0.08 -0.01 0.17 5.81 9.72 -2.87 -0.10 -1.68 11756
0.07 -0.01 1.94 4.56 7.71 -3.10 -0.38 -1.47 11763
0.06 -0.01 2.92 3.62 6.50 -3.22 -0.48 -1.30 11769
0.07 -0.01 3.48 2.92 5.81 -3.27 -0.38 -1.13 11776
0.07 -0.01 3.97 2.42 5.33 -3.27 -0.18 -0.95 11782
0.06 -0.01 4.09 2.17 4.96 -3.22 0.05 -0.77 11788
0.07 -0.01 3.88 2.13 4.87 -3.15 0.25 -0.61 11794
0.06 -0.01 3.47 2.03 5.08 -3.09 0.38 -0.45 11801
0.06 -0.01 3.12 1.98 5.77 -3.05 0.50 -0.29 11807
0.07 -0.01 2.85 1.89 6.56 -3.04 0.57 -0.17 11813
0.07 -0.01 2.54 1.84 7.47 -3.07 0.63 -0.03 11820
0.07 -0.01 2.34 1.72 8.32 -3.15 0.67 0.10 11826
0.06 -0.01 2.19 1.40 9.07 -3.26 0.69 0.21 11832
0.07 -0.01 2.18 0.90 9.78 -3.42 0.71 0.29 11838
0.06 -0.01 2.18 0.54 10.36 -3.54 0.74 0.35 11845
0.06 -0.01 2.13 0.05 10.76 -3.70 0.78 0.38 11851
0.07 -0.01 2.08 -0.51 11.07 -3.86 0.85 0.39 11857
0.08 -0.01 1.98 -1.23 11.47 -3.98 0.94 0.38 11864
0.06 -0.01 1.89 -1.78 11.74 -4.05 1.07 0.36 11870
0.07 -0.01 1.65 -2.45 12.21 -4.11 1.19 0.30 11877
0.07 -0.01 1.52 -3.17 12.65 -4.13 1.32 0.30 11883
0.06 -0.01 1.16 -3.92 12.90 -4.15 1.44 0.26 11889
0.08 -0.01 0.88 -4.73 13.07 -4.14 1.53 0.24 11895
0.06 -0.01 0.51 -5.38 13.11 -4.11 1.58 0.22 11902
0.07 -0.01 0.31 -5.99 13.10 -4.03 1.59 0.23 11909
0.07 -0.01 0.27 -6.55 13.09 -3.91 1.58 0.26 11915
0.06 -0.01 0.43 -6.93 13.13 -3.74 1.55 0.29 11921
0.07 -0.00 0.60 -7.19 13.39 -3.56 1.53 0.34 11927
0.06 -0.01 0.74 -7.31 13.46 -3.38 1.52 0.39 11934
0.06 -0.01 0.72 -7.10 14.11 -3.22 1.53 0.45 11940
0.08 -0.01 0.48 -7.01 14.94 -3.05 1.54 0.51 11947
0.07 -0.01 0.12 -6.92 15.90 -2.95 1.58 0.58 11953
0.06 -0.01 -0.43 -6.73 16.93 -2.86 1.61 0.64 11959
0.08 -0.01 -0.66 -6.56 17.75 -2.83 1.60 0.70 11966
0.07 -0.01 -0.98 -6.49 18.62 -2.86 1.51 0.75 11972
0.06 -0.01 -1.07 -6.58 19.07 -2.92 1.46 0.79 11978
0.07 -0.01 -1.16 -7.35 19.02 -3.00 1.37 0.84 11984
0.07 -0.01 -0.97 -7.17 18.69 -3.07 1.27 0.88 11991
0.07 -0.00 -0.82 -7.74 18.09 -3.11 1.19 0.91 11998
0.07 -0.01 -0.51 -8.35 17.35 -3.11 1.12 0.95 12004
0.06 -0.01 -0.31 -8.98 16.80 -3.05 1.06 0.98 12010
0.07 -0.01 -0.11 -9.61 16.14 -2.95 1.00 1.01 12016
0.06 -0.01 -0.08 -10.11 15.69 -2.80 0.95 1.04 12023
0.06 -0.01 -0.14 -10.46 15.06 -2.63 0.89 1.08 12029
0.08 -0.01 -0.29 -10.83 14.32 -2.42 0.81 1.13 12036
0.06 -0.01 -0.48 -11.32 14.12 -2.21 0.70 1.19 12042
0.08 -0.00 -0.53 -11.80 13.49 -1.99 0.58 1.25 12049
0.07 -0.01 -0.46 -12.29 13.03 -1.77 0.45 1.32 12055
0.07 -0.00 -0.37 -12.71 12.48 -1.56 0.36 1.38 12061
0.07 -0.01 -0.14 -13.26 11.77 -1.36 0.29 1.42 12068
0.07 -0.01 0.01 -13.67 11.57 -1.20 0.28 1.44 12075
0.07 -0.01 0.15 -14.00 11.45 -1.08 0.31 1.45 12081
0.07 -0.01 0.10 -13.97 11.17 -1.02 0.42 1.43 12087
0.07 -0.01 -0.28 -13.64 10.80 -1.05 0.61 1.42 12094
0.07 -0.01 -1.32 -13.42 10.27 -1.14 0.87 1.43 12100
0.07 -0.01 -3.09 -13.24 9.75 -1.25 1.12 1.46 12106
0.07 -0.01 -5.18 -13.73 9.33 -1.34 1.26 1.51 12112
0.07 -0.01 -7.07 -15.00 8.63 -1.37 1.22 1.55 12120
0.07 -0.00 -8.41 -16.33 7.50 -1.35 0.90 1.53 12126
0.07 -0.01 -8.82 -17.50 6.11 -1.23 0.37 1.45 12132
0.07 -0.01 -7.72 -18.45 4.46 -0.99 -0.16 1.32 12138
0.08 -0.01 -6.16 -21.62 3.52 -0.64 -0.56 1.16 12144
0.07 -0.01 -5.36 -26.97 9.19 0.22 -0.78 0.92 12151
0.07 -0.01 -3.56 -21.35 -1.96 0.91 -0.92 0.64 12157
0.08 -0.01 -4.48 -22.95 1.20 1.35 -1.01 0.32 12164
0.07 -0.01 -5.44 -22.80 5.03 1.78 -1.14 0.12 12170
0.07 -0.00 -5.95 -17.14 5.59 2.21 -1.34 0.04 12177
0.07 0.00 -1.93 -2.94 8.44 2.43 -1.48 -0.06 12183
0.05 0.02 -0.01 0.69 13.57 2.36 -1.46 -0.11 12189
0.06 0.09 3.23 2.88 15.68 2.17 -1.16 0.01 12195
0.04 0.15 3.64 2.94 14.76 1.93 -0.62 0.22 12203
0.04 0.22 2.63 0.63 12.38 1.78 -0.15 0.41 12209
0.04 0.29 1.09 -1.64 10.68 1.93 0.04 0.53 12215
0.04 0.31 0.27 -2.53 12.15 2.33 0.08 0.58 12221
0.06 0.36 -2.29 -2.91 15.69 2.66 -0.12 0.51 12228
0.05 0.39 -2.70 -3.07 19.59 2.71 -0.26 0.31 12234
0.04 0.46 -1.77 -2.67 19.63 2.51 -0.29 0.09 12240
0.04 0.46 -0.32 -2.17 16.32 2.03 -0.27 -0.03 12247
0.05 0.52 0.29 -2.04 14.84 1.70 -0.28 -0.10 12254
0.05 0.52 0.79 -1.68 13.91 1.43 -0.57 -0.15 12260
0.04 0.53 1.88 -1.87 13.13 1.02 -0.74 -0.09 12266
0.06 0.55 1.64 -1.80 11.63 0.68 -0.59 0.08 12272
0.06 0.55 0.29 -1.55 10.94 0.45 -0.50 0.14 12279
0.05 0.58 0.05 -1.12 10.66 0.31 -0.42 0.11 12285
0.05 0.59 0.23 -0.84 10.17 0.20 -0.35 0.07 12292
0.03 0.60 0.19 -0.39 9.85 0.15 -0.32 0.06 12298
0.05 0.64 0.23 -0.14 9.96 0.15 -0.31 0.07 12305
0.06 0.67 0.35 -1.20 10.13 0.12 -0.27 0.10 12311
0.05 0.67 0.27 -0.97 10.16 0.08 -0.26 0.09 12317
0.08 0.69 0.33 -0.93 10.15 0.05 -0.23 0.09 12323
0.06 0.68 0.38 -0.96 10.00 0.01 -0.18 0.10 12331
0.06 0.72 0.23 -1.06 9.94 0.00 -0.17 0.08 12337
0.08 0.74 0.36 -0.92 10.06 -0.00 -0.17 0.08 12343
0.06 0.74 0.29 -0.93 10.00 -0.00 -0.17 0.07 12349
0.07 0.76 0.28 -1.06 10.04 0.00 -0.16 0.07 12355
0.08 0.74 0.43 -1.16 10.16 -0.00 -0.15 0.07 12362
0.09 0.73 0.25 -0.99 10.00 0.01 -0.14 0.07 12368
0.09 0.73 0.19 -0.97 10.12 0.01 -0.12 0.08 12375
0.09 0.71 -0.73 -1.29 10.80 0.01 -0.09 0.07 12381
0.12 0.71 0.22 -1.00 9.99 0.01 -0.07 0.09 12388
0.13 0.70 0.23 -0.96 9.95 0.02 -0.06 0.09 12394
0.13 0.67 0.27 -0.96 9.83 0.02 -0.04 0.11 12400
0.14 0.66 0.25 -1.03 10.06 0.03 -0.02 0.12 12406
0.17 0.64 0.27 -1.00 10.04 0.03 -0.01 0.11 12412
0.16 0.62 0.30 -0.99 9.93 0.04 -0.01 0.12 12420
0.19 0.59 0.35 -1.01 9.91 0.04 -0.01 0.11 12426
0.16 0.57 0.31 -0.98 9.95 0.04 -0.01 0.11 12432
0.18 0.57 0.32 -1.02 9.96 0.04 -0.01 0.10 12438
0.20 0.53 0.31 -0.97 9.95 0.04 -0.02 0.11 12444
0.19 0.48 0.32 -1.00 10.02 0.04 -0.01 0.10 12451
0.20 0.45 0.30 -0.98 9.99 0.04 -0.01 0.10 12457
0.21 0.42 0.26 -1.02 10.03 0.04 -0.01 0.10 12464
0.22 0.37 0.29 -1.05 10.01 0.05 -0.00 0.10 12470
0.22 0.36 0.28 -1.04 9.97 0.04 0.00 0.09 12476
0.23 0.35 0.26 -0.98 9.98 0.05 0.01 0.10 12483
0.24 0.33 0.30 -1.02 10.00 0.05 0.01 0.11 12489
0.25 0.30 0.34 -1.06 9.97 0.05 0.01 0.10 12495
0.27 0.23 0.36 -1.02 9.98 0.05 0.01 0.10 12502
0.28 0.21 0.34 -1.05 9.96 0.05 0.01 0.11 12508
0.29 0.18 0.37 -1.06 9.92 0.05 0.01 0.10 12515
0.31 0.15 0.37 -1.06 9.98 0.04 0.01 0.11 12521
0.33 0.14 0.33 -1.08 9.89 0.04 0.01 0.10 12527
0.33 0.13 0.33 -1.08 9.90 0.04 0.00 0.10 12533
0.35 0.09 0.34 -1.08 9.95 0.04 0.00 0.13 12539
0.34 0.09 0.35 -1.07 9.91 0.04 0.01 0.10 12546
0.35 0.10 0.34 -1.05 9.95 0.04 0.01 0.09 12553
0.36 0.09 0.37 -1.08 9.92 0.03 0.01 0.10 12559
0.36 0.04 0.35 -1.09 9.97 0.04 0.01 0.10 12565
0.37 0.04 0.36 -1.11 9.94 0.04 0.01 0.10 12571
0.39 0.02 0.37 -1.10 9.97 0.03 0.00 0.10 12577
0.40 0.03 0.36 -1.08 9.92 0.03 0.01 0.10 12584
0.39 0.04 0.36 -1.08 9.95 0.03 0.00 0.09 12591
0.42 0.03 0.37 -1.10 9.94 0.03 0.00 0.10 12597
0.42 0.04 0.41 -1.12 9.94 0.03 0.00 0.09 12603
0.40 0.02 0.43 -1.08 9.94 0.03 -0.00 0.09 12609
0.43 0.00 0.43 -1.13 9.92 0.03 0.00 0.09 12615
0.44 -0.01 0.42 -1.11 9.92 0.03 -0.00 0.08 12622
0.43 -0.01 0.38 -1.07 9.92 0.03 -0.00 0.08 12628
0.45 -0.01 0.35 -1.08 9.89 0.03 -0.01 0.08 12635
0.46 -0.02 0.39 -1.12 9.97 0.04 -0.01 0.09 12641
0.45 -0.02 0.40 -1.12 9.94 0.00 -0.01 0.08 12647
0.47 -0.02 0.33 -1.15 9.91 0.03 -0.01 0.08 12653
0.48 -0.03 0.40 -1.20 9.95 0.03 -0.01 0.08 12660
0.46 -0.03 0.38 -1.15 9.93 0.03 -0.01 0.08 12666
0.48 -0.03 0.33 -1.11 9.97 0.03 -0.01 0.08 12673
0.50 -0.04 0.45 -1.16 9.97 0.04 -0.02 0.07 12679
0.48 -0.03 0.46 -1.08 9.96 0.03 -0.03 0.07 12685
0.49 -0.03 0.47 -1.19 9.95 0.04 -0.03 0.07 12692
0.51 -0.03 0.46 -1.17 9.94 0.04 -0.04 0.07 12698
0.52 -0.04 0.39 -1.13 9.93 0.05 -0.05 0.06 12704
0.55 -0.03 0.21 -0.96 10.07 0.05 -0.05 0.05 12710
0.54 -0.04 0.46 -1.11 9.98 0.05 -0.05 0.06 12717
0.55 -0.04 0.12 -0.88 10.01 0.05 -0.05 0.05 12724
0.59 -0.04 0.41 -1.17 9.94 0.06 -0.06 0.05 12730
0.61 -0.05 0.28 -1.12 9.86 0.06 -0.07 0.05 12736
0.63 -0.03 0.41 -1.27 10.07 0.07 -0.07 0.04 12742
0.64 -0.04 0.48 -1.18 10.10 0.08 -0.08 0.04 12749
0.62 -0.04 0.36 -1.18 9.92 0.09 -0.09 0.02 12755
0.66 -0.03 0.52 -0.98 10.07 0.10 -0.10 0.01 12762
0.70 -0.04 0.23 -0.80 10.40 0.12 -0.11 0.00 12768
0.75 -0.04 0.86 -0.89 10.18 0.13 -0.12 -0.00 12774
0.76 -0.04 0.94 -0.91 10.20 0.15 -0.13 -0.01 12781
0.78 -0.05 0.31 -1.02 10.15 0.17 -0.13 -0.02 12787
0.84 -0.03 0.44 -1.23 10.08 0.20 -0.14 -0.02 12793
0.86 -0.04 0.58 -1.37 10.10 0.23 -0.15 -0.03 12800
0.89 -0.04 0.38 -1.24 10.53 0.27 -0.16 -0.04 12807
0.98 -0.04 0.51 -1.48 10.54 0.33 -0.18 -0.05 12813
1.02 -0.05 0.51 -1.33 10.56 0.40 -0.21 -0.06 12819
1.07 -0.04 0.48 -1.48 10.74 0.49 -0.22 -0.06 12825
1.08 -0.05 0.21 -1.49 10.87 0.59 -0.24 -0.05 12832
1.12 -0.04 0.40 -1.48 11.17 0.69 -0.25 -0.03 12838
1.19 -0.04 0.14 -1.50 10.87 0.78 -0.26 -0.02 12845
1.24 -0.05 0.26 -1.76 11.01 0.87 -0.26 -0.02 12851
1.29 -0.04 0.25 -1.64 11.74 0.94 -0.26 -0.02 12858
1.33 -0.06 0.12 -1.77 11.06 1.00 -0.23 -0.00 12864
1.34 -0.06 0.24 -2.40 10.83 1.05 -0.19 0.01 12870
1.37 -0.06 0.24 -1.92 10.73 1.11 -0.16 0.00 12877
1.39 -0.07 0.22 -2.14 10.89 1.19 -0.14 0.00 12883
1.44 -0.05 0.28 -1.86 10.75 1.28 -0.12 -0.00 12890
1.43 -0.06 0.44 -2.23 11.09 1.34 -0.09 -0.02 12896
1.46 -0.06 0.13 -2.97 11.05 1.43 -0.09 -0.04 12903
1.47 -0.07 0.30 -2.33 11.31 1.52 -0.09 -0.05 12909
1.47 -0.05 0.54 -2.61 11.75 1.57 -0.06 -0.06 12915
1.46 -0.06 0.03 -2.66 11.35 1.65 -0.07 -0.03 12921
1.43 -0.06 1.08 -3.07 10.76 1.74 -0.09 -0.07 12929
1.37 -0.04 0.53 -3.13 11.71 1.84 -0.06 -0.13 12935
1.34 -0.06 0.74 -3.30 12.28 1.98 -0.08 -0.13 12941
1.27 -0.05 0.83 -3.07 12.60 2.11 -0.10 -0.20 12947
1.25 -0.05 0.42 -3.22 12.77 2.26 -0.10 -0.19 12954
1.18 -0.05 0.48 -3.10 12.32 2.40 -0.13 -0.21 12960
1.08 -0.05 0.54 -3.56 12.68 2.58 -0.12 -0.23 12966
1.01 -0.05 0.72 -4.00 12.88 2.80 -0.12 -0.30 12974
0.89 -0.04 0.82 -3.99 13.79 3.05 -0.14 -0.30 12980
0.83 -0.04 0.83 -4.13 14.75 3.34 -0.14 -0.35 12986
0.75 -0.04 1.19 -4.89 15.70 3.65 -0.15 -0.43 12992
0.67 -0.03 1.12 -5.38 17.06 3.97 -0.17 -0.43 12999
0.64 -0.04 1.54 -5.86 17.91 4.19 -0.26 -0.47 13005
0.55 -0.03 1.60 -6.69 16.84 4.27 -0.25 -0.51 13011
0.54 -0.03 1.91 -8.80 20.36 4.28 -0.19 -0.52 13018
0.48 -0.03 1.16 -8.93 19.79 4.28 -0.03 -0.50 13025
0.42 -0.03 0.52 -8.95 19.85 4.28 0.05 -0.49 13031
0.37 -0.02 1.62 -9.19 20.74 4.28 0.13 -0.45 13037
0.35 -0.03 1.75 -8.13 20.66 4.27 0.32 -0.43 13044
0.27 -0.03 1.25 -7.74 19.71 4.23 0.40 -0.45 13050
0.24 -0.01 1.27 -6.45 18.89 4.18 0.39 -0.48 13057
0.19 -0.01 2.20 -5.23 18.04 4.12 0.40 -0.56 13063
0.14 -0.01 2.61 -4.11 16.82 4.09 0.42 -0.58 13069
0.14 -0.01 2.70 -2.14 15.73 4.10 0.45 -0.65 13076
0.15 -0.01 3.17 -0.59 14.92 4.11 0.49 -0.74 13082
0.10 -0.01 3.30 0.51 13.96 4.13 0.51 -0.85 13088
0.11 -0.01 3.06 1.32 13.77 4.22 0.48 -0.99 13094
0.09 -0.01 1.83 1.98 16.62 4.28 0.34 -1.13 13102
0.09 -0.00 1.31 3.17 16.88 4.28 0.16 -1.31 13108
0.09 -0.01 0.14 9.58 13.82 4.28 -0.07 -1.63 13114
0.06 -0.01 2.53 10.40 11.13 4.28 -0.09 -2.06 13120
0.09 -0.01 2.40 10.68 4.40 3.22 -0.20 -2.29 13126
0.06 -0.01 1.89 15.42 7.71 1.19 -0.19 -2.47 13133
0.06 -0.01 3.26 14.05 17.51 -0.33 0.10 -2.51 13139
0.07 -0.01 3.43 7.90 18.46 -1.43 0.34 -2.42 13146
0.07 -0.01 2.22 7.45 15.39 -2.01 0.44 -2.32 13152
0.07 0.00 1.17 7.58 12.05 -2.52 0.49 -2.15 13159
0.07 -0.01 1.06 6.42 9.60 -2.87 0.46 -1.91 13165
0.06 -0.01 2.40 4.98 7.93 -3.10 0.35 -1.69 13171
0.07 0.00 2.36 4.14 6.76 -3.24 0.23 -1.50 13177
0.07 -0.01 2.39 3.60 6.16 -3.31 0.19 -1.30 13184
0.05 -0.00 2.45 2.89 5.89 -3.33 0.22 -1.11 13190
0.07 -0.00 2.49 2.38 5.59 -3.30 0.25 -0.89 13197
0.07 -0.01 2.46 2.10 5.59 -3.27 0.24 -0.68 13203
0.06 -0.01 2.32 1.98 5.68 -3.23 0.22 -0.47 13209
0.06 -0.01 2.39 1.79 6.11 -3.21 0.17 -0.27 13215
0.07 -0.01 2.63 1.63 7.00 -3.21 0.14 -0.10 13221
0.06 -0.01 2.91 1.54 7.87 -3.24 0.18 0.06 13228
0.06 -0.01 3.12 1.41 8.63 -3.31 0.30 0.20 13235
0.08 -0.01 3.30 1.24 9.43 -3.42 0.41 0.31 13241
0.06 -0.01 3.42 0.94 10.27 -3.58 0.59 0.38 13247
0.06 -0.01 3.30 0.55 10.78 -3.78 0.78 0.45 13253
0.07 -0.01 2.91 -0.01 11.12 -3.97 0.96 0.50 13259
0.05 -0.01 2.42 -0.67 11.25 -4.10 1.08 0.54 13266
0.05 -0.00 1.96 -1.55 11.31 -4.17 1.16 0.57 13273
0.07 -0.01 1.55 -2.38 11.33 -4.19 1.19 0.59 13279
0.06 -0.01 1.34 -3.30 11.46 -4.19 1.19 0.60 13285
0.06 -0.01 1.29 -4.30 11.65 -4.16 1.20 0.59 13291
0.07 -0.01 1.29 -5.10 12.04 -4.11 1.20 0.57 13298
0.07 -0.01 1.18 -5.69 12.30 -4.02 1.21 0.53 13304
0.07 -0.00 1.17 -6.12 12.65 -3.92 1.21 0.50 13310
0.07 -0.01 1.18 -6.45 12.99 -3.81 1.22 0.48 13317
0.06 -0.01 1.22 -6.56 13.50 -3.75 1.22 0.48 13324
0.08 -0.01 1.34 -6.57 14.12 -3.65 1.21 0.49 13330
0.07 -0.01 1.39 -6.68 14.60 -3.58 1.21 0.52 13336
0.07 -0.01 1.38 -6.70 15.10 -3.51 1.22 0.56 13342
0.08 -0.01 1.47 -6.73 15.83 -3.46 1.24 0.61 13348
0.08 -0.01 1.46 -6.81 16.51 -3.44 1.29 0.66 13356
0.08 -0.00 1.37 -6.85 16.88 -3.43 1.37 0.71 13362
0.08 -0.01 1.05 -7.01 17.31 -3.42 1.44 0.73 13368
0.06 -0.01 0.74 -7.20 17.43 -3.41 1.50 0.76 13374
0.07 -0.01 0.48 -7.47 17.28 -3.38 1.52 0.78 13381
0.07 -0.01 0.30 -7.91 17.38 -3.34 1.53 0.78 13387
0.06 -0.01 0.21 -8.31 17.17 -3.27 1.53 0.77 13393
0.08 -0.01 0.08 -8.75 17.05 -3.18 1.53 0.75 13400
0.07 -0.01 0.02 -9.03 16.79 -3.08 1.52 0.72 13406
0.07 -0.01 -0.23 -9.44 16.62 -2.96 1.49 0.69 13413
0.08 -0.01 -0.41 -9.58 16.18 -2.82 1.44 0.67 13419
0.07 -0.01 -0.53 -10.02 15.56 -2.65 1.36 0.66 13425
0.07 -0.00 -0.55 -10.25 14.93 -2.45 1.25 0.66 13431
0.07 -0.01 -0.65 -10.53 14.70 -2.22 1.13 0.68 13438
0.07 -0.01 -1.04 -10.70 14.51 -1.99 0.98 0.72 13445
0.07 -0.01 -1.44 -10.77 14.47 -1.77 0.78 0.77 13451
0.06 -0.01 -1.72 -10.99 14.77 -1.60 0.54 0.82 13457
0.08 -0.01 -1.83 -11.01 14.70 -1.48 0.28 0.89 13464
0.07 -0.01 -1.81 -11.23 14.61 -1.43 0.04 0.95 13470
0.06 -0.01 -1.40 -11.73 14.57 -1.45 -0.14 1.00 13476
0.07 -0.01 -0.92 -12.35 14.05 -1.47 -0.24 1.05 13483
0.06 -0.01 -0.28 -12.83 13.04 -1.49 -0.23 1.07 13490
0.09 -0.01 0.17 -13.43 11.74 -1.52 -0.13 1.07 13496
0.07 -0.01 0.39 -14.02 10.36 -1.51 0.05 1.06 13502
0.08 -0.00 0.36 -14.45 8.82 -1.45 0.31 1.05 13508
0.08 -0.01 -0.47 -14.29 7.21 -1.36 0.64 1.08 13515
0.06 -0.01 -2.26 -14.37 6.23 -1.18 1.08 1.20 13521
0.09 -0.01 -4.91 -14.65 6.27 -1.04 1.44 1.37 13528
0.08 -0.01 -7.67 -15.42 7.04 -0.88 1.51 1.51 13534
0.07 -0.01 -9.48 -16.50 7.49 -0.77 1.15 1.55 13541
0.09 -0.01 -9.96 -16.96 6.79 -0.71 0.52 1.50 13547
0.08 -0.01 -9.18 -17.57 5.73 -0.63 0.00 1.41 13553
0.08 -0.01 -7.60 -18.03 4.54 -0.47 -0.41 1.28 13559
0.09 -0.01 -5.87 -20.06 3.50 -0.22 -0.58 1.11 13565
0.07 -0.01 -6.21 -29.78 14.87 0.44 -0.65 0.84 13573
0.08 -0.01 -4.93 -20.73 -1.62 1.46 -0.68 0.58 13579
0.07 -0.01 -6.52 -20.95 1.40 1.91 -0.96 0.42 13585
0.06 -0.01 -3.38 -7.11 6.98 2.47 -1.27 0.26 13591
0.07 0.01 -2.99 -0.96 11.46 2.48 -1.37 0.08 13598
0.06 0.02 -0.38 4.07 15.07 2.25 -1.27 0.05 13604
0.05 0.09 1.86 4.58 15.57 1.91 -0.87 0.16 13611
0.05 0.13 1.34 4.18 13.74 1.57 -0.39 0.26 13617
0.03 0.19 -0.04 0.05 11.02 1.53 -0.17 0.28 13624
0.05 0.26 -0.98 -1.56 9.82 1.81 -0.13 0.25 13630
0.03 0.30 -0.89 -2.24 10.92 2.22 -0.12 0.21 13636
0.04 0.33 -0.67 -2.07 13.00 2.49 -0.02 0.17 13642
0.04 0.35 -0.99 -1.71 15.18 2.53 0.04 0.09 13649
0.03 0.38 -0.97 -2.05 17.56 2.43 -0.03 -0.07 13656
0.05 0.44 0.01 -2.22 16.94 2.30 -0.09 -0.22 13662
0.04 0.47 1.75 -2.05 15.36 2.19 -0.10 -0.27 13668
0.05 0.47 2.04 -1.64 12.95 2.04 -0.21 -0.19 13675
0.05 0.48 1.85 -1.67 13.30 2.01 -0.31 -0.10 13681
0.04 0.49 1.06 -1.92 15.54 1.83 -0.75 -0.07 13687
0.07 0.48 1.55 -2.06 14.83 1.24 -1.09 -0.07 13693
0.07 0.47 0.82 -2.46 12.98 0.73 -0.80 0.11 13701
0.06 0.51 0.09 -1.60 11.26 0.39 -0.57 0.15 13707
0.06 0.57 -0.08 -1.45 10.65 0.26 -0.44 0.10 13713
0.05 0.59 0.07 -1.66 10.72 0.17 -0.35 0.04 13719
0.07 0.64 0.40 -1.43 10.06 0.14 -0.29 0.07 13726
0.05 0.69 0.33 -1.13 10.08 0.10 -0.24 0.09 13732
0.04 0.72 0.15 -1.08 10.08 0.07 -0.22 0.09 13739
0.05 0.74 0.26 -1.06 10.08 0.05 -0.19 0.09 13745
0.06 0.75 0.27 -1.08 10.14 0.02 -0.15 0.10 13752
0.08 0.77 0.29 -1.07 10.01 0.01 -0.12 0.10 13758
0.07 0.79 0.31 -1.05 9.93 0.03 -0.12 0.10 13764
0.06 0.80 0.25 -1.00 9.97 -0.00 -0.10 0.10 13770
0.06 0.83 0.34 -0.98 9.85 -0.00 -0.09 0.10 13776
0.07 0.83 0.28 -1.05 9.82 -0.00 -0.09 0.10 13784
0.07 0.87 0.27 -1.07 10.01 0.00 -0.08 0.10 13790
0.10 0.89 0.25 -1.08 10.01 0.00 -0.07 0.10 13796
0.09 0.87 -0.05 -0.85 9.57 0.00 -0.05 0.10 13802
0.09 0.90 0.25 -1.08 9.99 0.01 -0.05 0.11 13808
0.09 0.90 0.23 -1.03 9.94 0.01 -0.04 0.12 13815
0.08 0.90 0.24 -1.02 9.99 0.01 -0.03 0.13 13821
0.10 0.89 0.26 -1.03 9.99 0.01 -0.02 0.14 13828
0.11 0.88 0.26 -1.04 9.93 0.01 -0.01 0.13 13834
0.09 0.87 0.29 -1.03 9.96 0.01 -0.01 0.13 13840
0.09 0.85 0.30 -1.02 10.00 0.02 -0.01 0.14 13847
0.10 0.83 0.31 -1.02 9.94 0.02 -0.01 0.13 13853
0.08 0.81 0.34 -1.06 9.91 0.02 -0.01 0.13 13859
0.08 0.80 0.32 -1.07 10.03 0.02 -0.02 0.12 13865
0.09 0.77 0.34 -1.08 9.89 0.02 -0.03 0.12 13872
0.09 0.74 0.39 -1.04 9.93 0.02 -0.03 0.12 13878
0.10 0.73 0.36 -1.04 9.99 0.02 -0.04 0.10 13885
0.09 0.69 0.31 -1.07 9.94 0.02 -0.04 0.11 13891
0.09 0.64 0.31 -1.07 9.94 0.02 -0.04 0.10 13897
0.11 0.63 0.29 -1.03 9.93 0.02 -0.04 0.10 13903
0.11 0.59 0.28 -1.04 9.96 0.02 -0.03 0.10 13910
0.09 0.56 0.29 -1.04 9.96 0.03 -0.03 0.11 13917
0.10 0.56 0.26 -1.03 9.95 0.03 -0.03 0.11 13923
0.11 0.52 0.29 -1.07 9.95 0.03 -0.02 0.11 13929
0.11 0.50 0.31 -1.05 9.94 0.03 -0.01 0.12 13935
0.12 0.50 0.28 -1.07 9.93 0.04 -0.01 0.12 13941
0.13 0.46 0.31 -1.11 9.90 0.03 -0.01 0.11 13948
0.14 0.42 0.38 -1.22 9.83 0.03 -0.01 0.12 13955
0.15 0.40 0.32 -1.09 9.95 0.02 -0.01 0.11 13961
0.16 0.37 0.33 -1.08 9.93 0.03 -0.01 0.11 13967
0.14 0.37 0.35 -1.11 9.95 0.02 -0.01 0.10 13973
0.17 0.38 0.32 -1.12 9.88 0.02 -0.01 0.10 13980
0.17 0.34 0.34 -1.14 9.95 0.02 -0.02 0.10 13986
0.15 0.33 0.30 -1.08 9.90 0.02 -0.02 0.10 13992
0.17 0.32 0.32 -1.08 9.93 0.01 -0.02 0.10 13999
0.16 0.29 0.32 -1.09 9.86 0.02 -0.02 0.10 14005
0.15 0.29 0.32 -1.09 9.90 0.01 -0.02 0.10 14011
0.16 0.31 0.33 -1.08 9.92 0.01 -0.02 0.09 14018
0.19 0.26 0.33 -1.08 9.95 0.01 -0.02 0.09 14024
0.17 0.25 0.36 -1.12 9.99 0.01 -0.02 0.09 14030
0.17 0.27 0.37 -1.10 9.93 0.01 -0.02 0.09 14036
0.18 0.27 0.33 -1.09 9.98 0.01 -0.02 0.09 14043
0.18 0.22 0.37 -1.15 9.96 0.01 -0.02 0.09 14050
0.20 0.24 0.36 -1.12 9.94 0.01 -0.03 0.09 14056
0.20 0.21 0.40 -1.09 9.96 0.01 -0.04 0.08 14062
0.20 0.20 0.37 -1.16 9.92 0.01 -0.04 0.08 14068
0.20 0.18 0.40 -1.15 9.92 0.01 -0.05 0.08 14074
0.20 0.16 0.33 -1.18 9.92 0.00 -0.05 0.08 14081
0.19 0.16 0.37 -1.19 9.97 0.01 -0.05 0.07 14088
0.21 0.17 0.37 -1.13 9.91 0.01 -0.06 0.08 14094
0.23 0.17 0.36 -1.11 9.89 0.01 -0.06 0.08 14100
0.23 0.16 0.36 -1.10 9.93 0.00 -0.06 0.07 14106
0.24 0.17 0.36 -1.09 9.90 0.01 -0.10 0.07 14112
0.27 0.14 0.33 -1.14 9.91 0.00 -0.07 0.07 14119
0.25 0.11 0.36 -1.13 9.91 0.01 -0.06 0.07 14126
0.28 0.12 0.35 -1.09 9.90 0.01 -0.07 0.07 14132
0.31 0.11 0.33 -1.11 9.92 0.01 -0.07 0.06 14138
0.31 0.10 0.29 -1.16 9.99 0.01 -0.06 0.07 14144
0.34 0.13 0.33 -1.15 9.95 0.01 -0.07 0.07 14150
0.35 0.13 0.31 -1.15 9.98 0.01 -0.07 0.06 14157
0.38 0.10 0.38 -1.06 10.00 0.01 -0.06 0.06 14163
0.40 0.11 0.33 -1.15 9.91 0.02 -0.06 0.06 14170
0.41 0.07 0.31 -1.13 9.92 0.02 -0.07 0.07 14176
0.42 0.05 0.34 -1.14 9.94 0.02 -0.06 0.06 14182
0.45 0.05 0.33 -0.85 9.84 0.02 -0.06 0.05 14189
0.49 0.04 0.35 -1.16 9.96 0.03 -0.06 0.06 14195
0.49 0.03 0.41 -1.18 10.00 0.03 -0.06 0.06 14201
0.54 0.03 0.15 -1.11 9.87 0.03 -0.06 0.04 14208
0.59 0.01 0.37 -1.77 10.02 0.05 -0.07 0.05 14214
0.58 0.03 0.37 -1.71 10.07 0.05 -0.06 0.05 14221
0.59 0.00 0.31 -1.21 10.03 0.06 -0.07 0.04 14227
0.62 -0.04 0.30 -1.11 10.05 0.07 -0.07 0.05 14233
0.70 -0.03 0.39 -1.30 10.03 0.09 -0.08 0.04 14239
0.73 -0.04 0.36 -1.28 10.10 0.11 -0.09 0.03 14246
0.80 -0.05 0.35 -1.16 10.17 0.13 -0.11 0.03 14253
0.85 -0.06 0.27 -1.36 10.10 0.16 -0.13 0.02 14259
0.92 -0.05 0.37 -1.36 10.34 0.20 -0.16 0.01 14265
0.96 -0.03 0.54 -1.29 10.50 0.26 -0.20 0.00 14272
1.07 -0.05 0.51 -1.31 10.56 0.33 -0.25 -0.01 14278
1.16 -0.06 0.34 -1.39 10.80 0.42 -0.32 -0.03 14284
1.19 -0.06 0.48 -1.39 10.87 0.55 -0.37 -0.03 14290
1.26 -0.07 0.60 -1.45 11.11 0.70 -0.41 -0.05 14298
1.31 -0.05 0.59 -1.48 11.79 0.90 -0.42 -0.07 14304
1.32 -0.06 0.24 -1.52 12.01 1.09 -0.40 -0.08 14310
1.38 -0.06 0.20 -1.68 11.83 1.23 -0.40 -0.07 14316
1.44 -0.06 0.08 -1.63 11.69 1.32 -0.36 -0.07 14323
1.46 -0.07 0.28 -1.84 11.79 1.39 -0.31 -0.07 14329
1.52 -0.07 0.01 -2.06 11.26 1.45 -0.25 -0.07 14336
1.53 -0.07 -0.28 -2.20 11.24 1.52 -0.20 -0.06 14343
1.55 -0.05 -0.40 -2.18 11.55 1.59 -0.15 -0.05 14349
1.55 -0.05 0.07 -2.30 11.84 1.65 -0.10 -0.04 14355
1.52 -0.06 0.15 -2.41 11.46 1.75 -0.06 -0.05 14361
1.51 -0.06 0.17 -2.71 11.29 1.83 -0.04 -0.06 14368
1.50 -0.07 0.37 -2.54 11.54 1.93 -0.02 -0.08 14374
1.43 -0.05 -0.01 -2.85 11.34 2.03 -0.01 -0.11 14381
1.37 -0.05 0.26 -2.85 10.77 2.12 -0.01 -0.13 14387
1.27 -0.04 0.27 -3.16 11.58 2.26 -0.03 -0.14 14394
1.25 -0.04 0.61 -3.35 12.13 2.39 -0.06 -0.16 14400
1.16 -0.05 0.45 -3.58 13.71 2.60 -0.09 -0.19 14406
1.04 -0.04 0.67 -3.78 13.47 2.82 -0.12 -0.23 14413
0.91 -0.05 0.96 -4.06 14.17 3.02 -0.13 -0.28 14419
0.86 -0.03 0.97 -4.47 14.53 3.27 -0.14 -0.33 14426
0.70 -0.03 1.21 -4.45 15.14 3.55 -0.18 -0.39 14432
0.69 -0.03 1.53 -5.36 16.19 3.85 -0.26 -0.46 14439
0.62 -0.03 2.23 -6.12 17.38 4.10 -0.31 -0.52 14445
0.58 -0.04 1.65 -6.70 17.97 4.21 -0.30 -0.57 14451
0.54 -0.02 2.57 -7.63 19.35 4.26 -0.21 -0.58 14457
0.48 -0.03 2.05 -8.48 19.34 4.27 -0.08 -0.56 14465
0.40 -0.03 0.99 -8.80 19.96 4.27 0.01 -0.53 14471
0.37 -0.02 0.81 -7.92 19.64 4.25 0.05 -0.47 14477
0.33 -0.02 1.12 -7.06 20.00 4.19 0.14 -0.45 14483
0.26 -0.02 0.74 -6.93 19.18 4.09 0.19 -0.46 14490
0.18 -0.02 1.21 -6.18 18.13 4.01 0.17 -0.49 14496
0.18 -0.02 1.83 -5.08 17.36 3.93 0.18 -0.53 14502
0.14 -0.01 2.16 -3.42 16.56 3.89 0.19 -0.59 14509
0.12 -0.01 2.66 -2.49 15.74 3.89 0.17 -0.66 14516
0.12 -0.00 3.51 -1.01 14.19 3.92 0.20 -0.74 14522
0.11 -0.01 4.03 0.10 13.23 3.99 0.17 -0.86 14528
0.09 -0.01 3.69 1.04 14.14 4.15 0.04 -1.00 14534
0.11 -0.01 2.64 2.36 14.67 4.28 -0.08 -1.13 14541
0.09 -0.01 2.06 3.63 13.88 4.28 -0.26 -1.34 14547
0.07 -0.01 3.34 11.89 12.30 4.28 -0.26 -1.64 14554
0.07 -0.01 2.19 10.23 7.54 4.21 -0.41 -1.98 14560
0.06 -0.01 0.75 10.71 5.79 2.60 -0.52 -2.12 14566
0.06 -0.00 1.96 15.24 12.46 0.89 -0.64 -2.13 14573
0.07 -0.01 2.70 11.08 17.00 -0.44 -0.53 -2.02 14579
0.07 -0.01 3.62 6.75 15.92 -1.33 -0.38 -1.91 14585
0.07 -0.01 3.00 6.45 12.93 -1.86 -0.32 -1.78 14592
0.07 -0.01 2.77 6.08 9.60 -2.17 -0.21 -1.62 14599
0.07 -0.01 3.22 4.95 7.08 -2.36 -0.18 -1.44 14605
0.07 -0.01 3.76 4.78 5.86 -2.49 -0.16 -1.34 14611
0.07 -0.01 3.90 4.03 5.24 -2.56 -0.07 -1.20 14617
0.07 -0.01 3.64 3.41 5.34 -2.59 0.06 -1.04 14623
0.08 -0.01 3.60 3.06 5.51 -2.60 0.18 -0.86 14629
0.07 -0.01 3.45 3.02 5.64 -2.63 0.24 -0.67 14637
0.06 -0.01 3.13 3.10 5.88 -2.70 0.25 -0.47 14643
0.07 -0.01 2.75 3.20 6.58 -2.75 0.21 -0.26 14649
0.07 -0.01 2.74 3.09 7.24 -2.84 0.16 -0.05 14655
0.06 -0.01 2.97 2.89 7.65 -2.95 0.12 0.15 14661
0.07 -0.00 3.33 2.63 7.98 -3.07 0.12 0.33 14667
0.08 -0.01 3.68 2.21 8.32 -3.19 0.19 0.44 14674
0.08 -0.01 3.82 1.64 8.74 -3.31 0.34 0.55 14681
0.07 -0.01 3.84 1.00 9.12 -3.44 0.53 0.63 14687
0.08 -0.01 3.68 0.44 9.45 -3.55 0.74 0.68 14693
0.08 -0.01 3.30 -0.11 9.81 -3.67 0.93 0.70 14699
0.07 -0.01 2.89 -0.67 10.43 -3.73 1.09 0.71 14705
0.08 -0.01 2.38 -1.10 11.19 -3.82 1.19 0.72 14712
0.07 -0.01 1.25 -1.60 11.66 -3.89 1.26 0.72 14718
0.07 -0.01 1.37 -2.28 12.18 -3.95 1.29 0.71 14725
0.08 -0.01 1.10 -3.08 12.76 -3.98 1.28 0.69 14731
0.07 -0.01 0.94 -3.77 13.22 -3.99 1.25 0.66 14737
0.07 -0.01 0.83 -4.48 13.59 -3.99 1.24 0.63 14744
0.07 -0.01 0.90 -5.09 13.72 -3.96 1.22 0.59 14750
0.06 -0.01 0.95 -5.63 13.98 -3.92 1.22 0.56 14756
0.07 -0.00 1.02 -6.09 14.32 -3.85 1.24 0.54 14763
0.06 -0.01 1.04 -6.47 14.71 -3.77 1.27 0.53 14769
0.06 -0.01 0.92 -6.74 15.15 -3.68 1.31 0.54 14776
0.08 -0.01 0.59 -6.70 15.57 -3.60 1.33 0.56 14782
0.07 -0.01 0.56 -7.10 15.73 -3.51 1.35 0.59 14788
0.06 -0.01 0.27 -7.30 16.15 -3.41 1.34 0.61 14794
0.07 -0.01 -0.13 -7.73 16.21 -3.30 1.33 0.64 14801
0.07 -0.01 -0.26 -8.14 16.63 -3.18 1.33 0.66 14808
0.06 -0.00 -0.38 -8.38 16.65 -3.05 1.32 0.67 14814
0.07 -0.01 -0.68 -8.70 16.85 -2.92 1.28 0.67 14820
0.05 -0.01 -0.84 -8.93 16.93 -2.85 1.19 0.65 14826
0.07 -0.01 -1.00 -9.13 16.81 -2.75 1.07 0.63 14833
0.06 -0.01 -1.02 -9.35 16.52 -2.65 0.92 0.60 14839
0.06 -0.01 -1.02 -9.51 16.26 -2.55 0.77 0.56 14845
0.07 -0.01 -0.89 -9.63 15.86 -2.44 0.68 0.53 14852
0.07 -0.01 -0.65 -9.69 15.46 -2.32 0.60 0.51 14858
0.07 -0.01 -0.61 -9.67 15.16 -2.18 0.53 0.49 14865
0.07 -0.01 -0.62 -9.55 14.86 -2.05 0.51 0.49 14871
0.07 -0.01 -0.75 -9.41 14.69 -1.92 0.49 0.50 14877
0.07 0.00 -0.94 -9.20 14.55 -1.80 0.47 0.54 14883
0.07 -0.01 -1.07 -9.15 14.45 -1.70 0.44 0.58 14891
0.06 -0.01 -1.11 -9.18 14.23 -1.61 0.40 0.65 14897
0.07 -0.01 -0.98 -9.28 13.82 -1.53 0.39 0.73 14903
0.07 -0.01 -0.76 -9.49 13.47 -1.47 0.39 0.82 14909
0.06 -0.01 -0.61 -9.87 13.19 -1.44 0.44 0.90 14915
0.08 -0.01 -0.42 -10.17 13.29 -1.43 0.52 0.98 14922
0.07 -0.01 -0.21 -10.33 13.31 -1.49 0.63 1.04 14928
0.08 0.00 -0.07 -10.43 13.12 -1.61 0.76 1.07 14935
0.07 -0.01 -0.06 -10.74 12.46 -1.77 0.91 1.08 14942
0.07 -0.01 -0.29 -11.41 11.64 -1.92 1.04 1.08 14948
0.08 -0.01 -0.51 -12.30 10.35 -2.00 1.15 1.06 14954
0.07 -0.01 -0.82 -13.24 8.91 -1.98 1.22 1.03 14960
0.08 -0.01 -1.30 -14.14 7.41 -1.86 1.25 1.00 14966
0.07 -0.01 -2.21 -14.72 5.79 -1.66 1.25 0.96 14973
0.06 -0.01 -3.67 -14.73 4.06 -1.35 1.28 0.94 14980
0.08 -0.01 -5.80 -15.03 3.53 -1.09 1.42 1.00 14986
0.06 -0.01 -8.00 -16.31 4.26 -0.76 1.45 1.06 14992
0.07 -0.01 -9.68 -16.88 5.45 -0.50 1.03 1.01 14999
0.08 -0.01 -9.91 -16.86 6.06 -0.29 0.20 0.88 15005
0.08 -0.01 -8.84 -19.33 6.19 -0.10 -0.48 0.71 15011
0.07 -0.01 -7.74 -23.72 10.73 0.43 -1.19 0.50 15017
0.08 -0.01 -4.44 -19.22 1.33 1.07 -1.59 0.26 15024
0.06 -0.01 -4.02 -21.33 2.23 1.46 -1.72 0.05 15031
0.06 -0.00 -3.95 -17.52 5.48 1.92 -1.82 -0.02 15037
0.07 -0.01 -1.67 -4.82 7.58 2.33 -1.84 -0.09 15043
0.06 -0.00 -0.51 0.17 11.88 2.27 -1.81 -0.09 15049
0.07 0.05 1.69 3.20 14.90 2.08 -1.56 0.02 15056
0.06 0.08 2.92 3.38 13.70 1.78 -1.05 0.24 15063
0.05 0.16 1.76 3.12 11.70 1.59 -0.58 0.39 15069
0.04 0.22 -0.29 -0.06 10.47 1.69 -0.36 0.43 15075
0.05 0.26 -1.69 -1.93 11.63 1.99 -0.29 0.39 15082
0.07 0.30 -2.48 -2.11 13.02 2.29 -0.26 0.29 15088
0.05 0.33 -2.35 -2.39 15.40 2.44 -0.12 0.16 15094
0.05 0.44 -2.50 -2.53 17.80 2.48 -0.03 -0.04 15100
0.05 0.46 -1.48 -2.62 17.56 2.39 0.06 -0.27 15108
0.04 0.53 0.66 -2.21 15.93 2.09 -0.10 -0.40 15114
0.05 0.56 2.44 -2.07 14.40 1.90 -0.18 -0.38 15120
0.05 0.61 3.47 -2.14 14.93 1.72 -0.56 -0.25 15126
0.08 0.64 2.40 -1.76 13.39 1.23 -1.04 -0.08 15133
0.06 0.66 1.97 -2.22 12.79 0.86 -0.89 0.17 15139
0.07 0.70 -0.43 -1.77 12.19 0.63 -0.73 0.25 15145
0.07 0.70 -1.10 -1.26 11.12 0.37 -0.53 0.18 15153
0.06 0.72 -0.40 -1.22 10.70 0.16 -0.30 0.10 15159
0.06 0.73 0.43 -1.30 10.16 0.13 -0.23 0.08 15165
0.07 0.72 0.73 -1.16 10.05 0.14 -0.22 0.12 15171
0.06 0.77 0.22 -1.61 10.29 0.13 -0.21 0.13 15178
0.05 0.79 -0.02 -0.94 10.10 0.09 -0.15 0.14 15184
0.06 0.81 0.21 -1.15 10.13 0.06 -0.10 0.14 15191
0.06 0.82 0.32 -1.03 10.10 0.04 -0.08 0.14 15197
0.06 0.83 0.25 -0.99 9.97 0.04 -0.06 0.15 15204
0.05 0.86 0.26 -0.85 9.89 0.03 -0.04 0.16 15210
0.07 0.85 0.29 -0.90 9.96 0.02 -0.02 0.15 15216
0.05 0.85 0.25 -0.90 9.92 0.01 0.00 0.16 15222
0.05 0.87 0.29 -0.87 9.90 0.01 0.02 0.15 15228
0.06 0.86 0.28 -0.90 9.91 0.01 0.02 0.17 15235
0.06 0.86 0.28 -0.89 9.91 0.01 0.03 0.16 15242
0.06 0.86 0.32 -0.94 10.04 0.02 0.00 0.16 15248
0.08 0.87 0.31 -0.92 9.95 0.02 0.03 0.16 15254
0.09 0.85 0.28 -0.88 9.96 0.02 0.03 0.16 15260
0.08 0.85 0.31 -0.92 10.01 0.02 0.04 0.15 15266
0.07 0.84 0.29 -0.94 9.99 0.03 0.04 0.16 15273
0.07 0.82 0.29 -0.94 9.96 0.02 0.05 0.15 15280
0.08 0.82 0.35 -0.92 9.92 0.02 0.07 0.15 15286
0.08 0.80 0.32 -0.91 9.91 0.03 0.07 0.15 15292
0.07 0.77 0.39 -0.95 10.01 0.03 0.08 0.14 15298
0.08 0.76 0.41 -0.92 9.90 0.03 0.08 0.15 15305
0.08 0.75 0.48 -0.90 9.87 0.03 0.07 0.14 15311
0.08 0.72 0.46 -0.91 9.90 0.03 0.06 0.14 15318
0.09 0.72 0.43 -0.94 9.88 0.04 0.04 0.14 15324
0.09 0.68 0.42 -0.91 9.92 0.04 0.04 0.13 15330
0.08 0.65 0.41 -1.01 9.98 0.04 0.04 0.13 15337
0.08 0.63 0.35 -0.96 10.03 0.04 0.05 0.12 15343
0.09 0.59 0.41 -0.96 10.02 0.04 0.06 0.12 15349
0.07 0.58 0.38 -0.96 9.99 0.05 0.06 0.12 15355
0.11 0.55 0.49 -0.96 9.95 0.05 0.06 0.13 15362
0.09 0.48 0.44 -0.95 10.00 0.05 0.06 0.12 15369
0.10 0.45 0.45 -0.96 9.99 0.06 0.06 0.13 15375
0.12 0.41 0.51 -0.99 9.98 0.05 0.06 0.11 15381
0.11 0.40 0.52 -1.01 9.90 0.06 0.05 0.13 15387
0.10 0.37 0.52 -1.01 9.88 0.05 0.05 0.11 15393
0.11 0.32 0.53 -1.01 9.88 0.05 0.04 0.12 15400
0.12 0.28 0.50 -1.03 9.93 0.05 0.05 0.11 15407
0.11 0.29 0.50 -1.08 9.87 0.05 0.05 0.11 15413
0.12 0.28 0.55 -1.08 9.92 0.05 0.05 0.11 15419
0.11 0.24 0.51 -1.06 9.89 0.04 0.06 0.10 15425
0.11 0.21 0.57 -1.03 9.95 0.04 0.06 0.11 15431
0.12 0.20 0.58 -1.00 9.91 0.05 0.06 0.10 15438
0.12 0.18 0.60 -1.03 9.91 0.05 0.06 0.10 15444
0.13 0.14 0.63 -1.01 9.92 0.05 0.06 0.10 15451
0.14 0.15 0.59 -1.07 9.94 0.05 0.06 0.09 15457
0.13 0.12 0.57 -1.01 9.97 0.05 0.05 0.10 15463
0.13 0.13 0.63 -1.12 9.97 0.05 0.05 0.09 15470
0.14 0.12 0.65 -1.08 9.96 0.04 0.05 0.08 15476
0.13 0.10 0.65 -1.11 9.96 0.04 0.05 0.09 15482
0.12 0.09 0.65 -1.14 9.98 0.04 0.05 0.08 15489
0.14 0.10 0.63 -1.14 10.01 0.03 0.04 0.08 15495
0.14 0.04 0.68 -1.10 9.96 0.03 0.03 0.08 15502
0.14 0.07 0.63 -1.13 9.95 0.03 0.02 0.08 15508
0.15 0.06 0.72 -1.12 9.94 0.03 0.02 0.07 15514
0.14 0.05 0.68 -1.15 9.93 0.02 0.01 0.07 15520
0.14 0.05 0.79 -1.12 9.91 0.02 0.01 0.07 15526
0.15 0.01 0.64 -1.17 9.88 0.02 0.00 0.07 15533
