Voltage_01 Voltage_02 Acc_x Acc_y Acc_z Gyro_x Gyro_y Gyro_z Time
5000
0.93 -0.04 0.62 -3.38 12.07 2.13 -0.12 -0.15 17
0.85 -0.03 0.26 -3.33 12.05 2.28 -0.12 -0.17 23
0.79 -0.04 0.69 -4.04 11.48 2.47 -0.10 -0.18 29
0.67 -0.05 0.58 -3.69 13.06 2.66 -0.13 -0.20 35
0.71 -0.04 0.84 -4.24 14.57 2.92 -0.11 -0.23 41
0.66 -0.03 1.03 -4.94 14.01 3.18 -0.10 -0.26 48
0.57 -0.03 0.66 -5.27 15.92 3.47 -0.14 -0.29 55
0.54 -0.03 1.60 -5.95 17.33 3.78 -0.17 -0.33 61
0.51 -0.02 1.91 -6.65 17.59 4.03 -0.22 -0.37 67
0.48 -0.02 1.72 -6.14 16.62 4.16 -0.23 -0.41 73
0.44 -0.02 1.73 -7.10 18.16 4.21 -0.27 -0.45 79
0.41 -0.03 2.03 -7.99 18.99 4.25 -0.28 -0.47 86
0.38 -0.02 1.11 -8.20 18.71 4.26 -0.31 -0.49 92
0.38 -0.02 1.47 -8.22 18.69 4.26 -0.33 -0.49 98
0.33 -0.03 2.19 -7.38 19.26 4.25 -0.26 -0.50 105
0.28 -0.02 1.25 -7.29 19.63 4.22 -0.20 -0.52 111
0.27 -0.02 0.33 -6.66 18.84 4.17 -0.27 -0.54 117
0.23 -0.02 0.80 -5.79 17.81 4.12 -0.43 -0.55 123
0.18 -0.02 2.08 -4.68 16.90 4.09 -0.52 -0.56 130
0.17 -0.01 2.83 -3.56 16.16 4.08 -0.50 -0.57 136
0.15 -0.02 3.47 -2.55 14.93 4.10 -0.42 -0.60 142
0.11 -0.01 3.66 -1.31 14.16 4.14 -0.31 -0.65 149
0.10 -0.01 3.69 -0.66 15.06 4.21 -0.24 -0.71 155
0.12 -0.01 3.55 0.26 16.39 4.28 -0.19 -0.80 161
0.13 -0.01 3.28 1.15 16.03 4.28 -0.07 -0.89 167
0.10 -0.01 3.54 2.14 14.79 4.28 0.17 -0.96 174
0.10 -0.01 6.54 6.95 9.04 4.28 0.69 -1.12 180
0.07 -0.01 4.23 9.04 5.54 4.28 0.92 -1.48 186
0.08 -0.01 3.83 15.79 3.26 4.01 1.08 -1.98 192
0.08 -0.01 2.47 15.53 13.27 2.06 1.24 -2.28 198
0.07 -0.01 1.39 11.01 23.05 0.49 1.45 -2.24 204
0.08 -0.01 1.05 8.22 22.53 -0.80 1.46 -2.10 211
0.07 -0.01 -1.45 9.35 18.83 -1.83 1.05 -1.91 218
0.07 -0.01 -2.86 9.41 14.70 -2.61 0.40 -1.62 224
0.08 -0.01 -1.98 7.12 12.01 -3.14 -0.23 -1.32 230
0.08 -0.01 0.01 4.71 9.89 -3.41 -0.77 -1.13 236
0.09 -0.01 1.83 3.17 8.49 -3.56 -1.05 -1.03 242
0.08 -0.01 2.16 2.44 7.48 -3.58 -1.16 -0.97 248
0.08 -0.01 3.31 1.86 6.54 -3.52 -1.09 -0.90 254
0.08 -0.00 4.36 1.77 5.67 -3.43 -0.86 -0.85 261
0.09 -0.01 4.98 1.71 5.30 -3.32 -0.52 -0.83 267
0.07 -0.01 4.97 1.87 5.48 -3.28 -0.10 -0.80 273
0.07 -0.01 4.60 2.03 6.22 -3.24 0.25 -0.76 279
0.07 -0.01 3.95 2.11 6.91 -3.22 0.58 -0.68 285
0.07 -0.00 3.33 2.10 7.91 -3.24 0.77 -0.60 292
0.08 -0.01 2.83 2.13 9.06 -3.29 0.87 -0.50 299
0.07 -0.01 1.87 2.18 10.16 -3.41 0.91 -0.38 305
0.07 -0.01 2.13 1.88 11.02 -3.57 0.92 -0.25 311
0.07 -0.00 1.98 1.35 11.29 -3.77 0.89 -0.11 317
0.08 -0.01 1.93 0.62 11.48 -3.94 0.85 -0.02 323
0.07 -0.01 2.06 -0.07 11.59 -4.07 0.80 0.07 329
0.06 -0.01 2.39 -0.84 11.45 -4.13 0.80 0.15 335
0.07 -0.01 2.73 -1.47 11.37 -4.17 0.87 0.21 342
0.08 -0.01 2.80 -1.97 11.33 -4.18 0.96 0.26 348
0.08 -0.01 2.84 -2.51 11.58 -4.15 1.10 0.29 355
0.07 -0.01 2.61 -3.23 12.06 -4.11 1.26 0.31 361
0.08 -0.01 2.26 -3.83 12.61 -4.05 1.43 0.32 367
0.08 -0.01 1.82 -4.36 13.41 -4.00 1.55 0.33 373
0.08 -0.01 1.49 -4.83 14.15 -3.96 1.65 0.33 379
0.06 -0.01 1.29 -5.24 14.91 -3.92 1.70 0.34 386
0.06 -0.01 1.03 -5.60 15.46 -3.88 1.73 0.36 392
0.07 -0.01 0.95 -6.04 15.72 -3.84 1.74 0.39 398
0.06 -0.01 0.99 -6.39 15.87 -3.79 1.75 0.45 404
0.05 -0.01 1.06 -6.70 16.04 -3.72 1.78 0.51 411
0.07 -0.00 0.91 -7.01 16.32 -3.63 1.82 0.58 417
0.06 -0.01 0.65 -7.24 16.61 -3.56 1.86 0.65 423
0.06 -0.01 0.22 -7.59 16.87 -3.45 1.88 0.73 430
0.05 -0.01 -0.20 -8.57 17.09 -3.34 1.87 0.80 436
0.06 -0.01 -0.62 -8.38 17.31 -3.24 1.80 0.84 442
0.06 -0.01 -0.89 -8.75 17.31 -3.12 1.67 0.86 448
0.06 -0.01 -0.96 -9.00 17.03 -3.02 1.52 0.85 454
0.05 -0.01 -0.89 -9.19 16.73 -2.93 1.37 0.84 460
0.07 -0.01 -0.78 -9.32 16.41 -2.82 1.26 0.80 467
0.06 -0.01 -0.63 -9.51 16.16 -2.70 1.14 0.77 474
0.06 -0.01 -0.53 -9.81 15.92 -2.56 1.05 0.74 480
0.06 -0.01 -0.44 -10.10 15.74 -2.39 1.00 0.72 486
0.08 -0.01 -0.35 -10.55 15.38 -2.21 0.97 0.71 492
0.06 -0.01 -0.19 -10.84 15.08 -2.02 0.95 0.71 498
0.06 -0.01 0.01 -11.27 14.94 -1.83 0.96 0.72 504
0.06 -0.01 0.03 -11.49 15.09 -1.69 1.02 0.75 512
0.07 -0.01 -0.02 -11.53 15.17 -1.59 1.08 0.79 518
0.06 -0.01 -0.03 -11.59 15.33 -1.54 1.13 0.83 524
0.07 -0.00 -0.10 -11.78 15.66 -1.57 1.15 0.88 530
0.07 -0.01 -0.36 -11.93 15.91 -1.68 1.12 0.96 536
0.07 -0.01 -0.63 -12.14 15.49 -1.85 1.07 0.99 542
0.07 -0.00 -0.66 -12.49 14.52 -2.03 1.00 1.06 549
0.07 -0.01 -0.49 -13.30 13.20 -2.19 0.91 1.13 556
0.07 -0.01 -0.26 -14.41 11.70 -2.27 0.85 1.20 562
0.07 -0.01 -0.06 -15.50 10.00 -2.23 0.82 1.25 568
0.08 -0.01 -0.09 -16.47 8.41 -2.07 0.81 1.28 574
0.08 -0.01 -0.34 -17.22 7.19 -1.90 0.81 1.27 580
0.07 -0.01 -1.00 -18.38 6.25 -1.66 0.81 1.26 586
0.07 -0.00 -1.90 -17.99 5.43 -1.42 0.81 1.23 593
0.08 -0.01 -3.39 -17.53 4.59 -1.18 0.86 1.21 600
0.07 -0.01 -5.55 -16.69 3.94 -0.93 1.03 1.26 606
0.07 -0.01 -8.22 -17.24 4.73 -0.70 1.24 1.35 612
0.07 0.00 -10.63 -17.79 5.72 -0.53 1.04 1.37 618
0.08 -0.01 -11.64 -17.85 6.17 -0.37 0.30 1.23 624
0.06 -0.01 -14.11 -27.46 10.13 -0.10 -0.91 1.03 630
0.08 -0.01 -7.98 -24.42 7.36 1.04 -1.95 0.64 637
0.07 -0.01 -5.90 -20.71 -1.98 1.53 -2.19 0.26 644
0.06 -0.01 -5.56 -19.35 4.78 1.85 -2.42 -0.01 650
0.06 0.01 -2.58 -5.67 7.76 2.14 -2.46 -0.22 656
0.07 0.02 -2.89 1.08 11.21 1.91 -2.31 -0.28 662
0.06 0.08 1.24 3.95 14.93 1.63 -1.96 -0.20 668
0.04 0.20 2.61 5.49 14.07 1.42 -1.33 -0.00 674
0.05 0.29 2.12 2.49 11.07 1.42 -0.68 0.17 681
0.05 0.32 -0.52 0.27 9.84 1.77 -0.43 0.25 688
0.04 0.34 -1.68 -1.48 12.88 2.20 -0.33 0.21 694
0.04 0.46 -1.59 -2.00 12.32 2.55 -0.22 0.13 700
0.04 0.54 -0.33 -2.35 13.60 2.90 -0.07 0.04 706
0.03 0.62 -0.57 -2.20 16.77 3.12 0.11 -0.02 712
0.02 0.70 -0.94 -2.28 18.77 3.09 0.23 -0.17 718
0.03 0.78 1.14 -2.18 17.51 2.96 0.29 -0.29 726
0.04 0.81 1.20 -1.59 14.57 2.70 0.10 -0.31 732
0.02 0.88 1.88 -1.80 15.41 2.56 -0.21 -0.30 738
0.02 0.97 2.28 -1.99 17.72 2.10 -1.07 -0.30 744
0.04 0.95 4.79 -2.99 14.33 1.34 -1.21 -0.03 750
0.02 0.95 1.58 -1.97 12.24 0.96 -0.94 0.27 756
0.03 0.97 0.15 -1.46 11.68 0.82 -0.87 0.29 763
0.03 0.97 -1.19 -0.92 12.28 0.61 -0.76 0.21 770
0.03 0.96 1.38 -0.67 11.21 0.32 -0.47 0.15 776
0.03 0.98 1.33 -0.94 10.26 0.21 -0.29 0.13 782
0.05 0.98 0.74 -0.72 9.42 0.19 -0.26 0.13 788
0.04 0.97 0.07 -1.18 10.37 0.16 -0.21 0.19 794
0.04 0.98 0.34 -0.94 9.89 0.10 -0.11 0.15 800
0.04 0.98 0.54 -0.94 10.04 0.09 -0.12 0.14 807
0.06 0.96 0.37 -0.92 9.95 0.08 -0.10 0.14 814
0.05 0.95 0.46 -1.04 10.02 0.06 -0.09 0.14 820
0.04 0.96 0.36 -1.08 10.06 0.04 -0.07 0.14 826
0.06 0.96 0.42 -1.02 10.00 0.03 -0.04 0.14 832
0.06 0.93 0.42 -0.96 9.98 0.02 -0.01 0.15 838
0.05 0.91 0.40 -0.90 9.87 0.02 0.01 0.14 844
0.05 0.90 0.41 -0.96 9.87 0.02 0.03 0.15 850
0.06 0.89 0.42 -0.93 9.91 0.03 0.05 0.16 857
0.07 0.84 0.46 -0.95 9.95 0.03 0.07 0.15 863
0.06 0.85 0.47 -0.96 9.94 0.03 0.08 0.15 870
0.05 0.83 0.49 -0.99 9.87 0.04 0.09 0.15 876
0.07 0.79 0.52 -0.99 10.01 0.04 0.09 0.15 882
0.08 0.78 0.64 -0.98 9.98 0.04 0.09 0.14 888
0.07 0.73 0.62 -0.95 9.95 0.05 0.09 0.14 894
0.07 0.69 0.64 -0.96 9.91 0.05 0.08 0.14 901
0.09 0.66 0.64 -0.98 9.90 0.05 0.07 0.13 907
0.11 0.64 0.68 -0.99 9.87 0.05 0.07 0.12 913
0.10 0.61 0.62 -0.99 9.88 0.04 0.06 0.12 919
0.09 0.55 0.62 -1.00 9.89 0.05 0.06 0.12 925
0.09 0.55 0.66 -1.01 9.90 0.05 0.05 0.12 931
0.08 0.54 0.60 -0.99 9.90 0.05 0.05 0.11 937
0.10 0.53 0.62 -1.01 9.98 0.05 0.06 0.11 945
0.09 0.52 0.64 -1.04 9.89 0.05 0.06 0.11 951
0.09 0.47 0.63 -1.00 9.86 0.06 0.06 0.11 957
0.09 0.45 0.68 -1.05 9.92 0.06 0.07 0.12 963
0.09 0.41 0.69 -1.10 9.90 0.06 0.07 0.12 969
0.09 0.38 0.73 -1.06 9.86 0.07 0.08 0.12 975
0.09 0.33 0.74 -0.98 9.87 0.06 0.08 0.11 982
0.10 0.30 0.74 -1.12 9.93 0.07 0.09 0.11 988
0.12 0.27 0.77 -1.03 9.89 0.07 0.09 0.10 994
0.11 0.28 0.77 -1.14 9.88 0.07 0.09 0.10 1000
0.10 0.23 0.72 -1.09 9.91 0.07 0.08 0.09 1007
0.10 0.21 0.79 -1.11 9.90 0.06 0.08 0.10 1013
0.11 0.17 0.71 -1.08 9.91 0.06 0.08 0.10 1019
0.11 0.16 0.79 -1.13 9.94 0.07 0.07 0.10 1026
0.10 0.14 0.81 -1.09 9.91 0.06 0.07 0.09 1032
0.10 0.13 0.83 -1.16 9.87 0.06 0.06 0.08 1038
0.10 0.12 0.82 -1.19 9.89 0.06 0.05 0.08 1044
0.10 0.08 0.87 -1.10 9.93 0.05 0.04 0.08 1050
0.09 0.09 0.87 -1.19 9.91 0.06 0.04 0.07 1057
0.10 0.09 0.85 -1.16 9.94 0.05 0.04 0.07 1063
0.09 0.07 0.86 -1.20 9.88 0.05 0.03 0.07 1070
0.09 0.06 0.84 -1.16 9.91 0.05 0.04 0.06 1076
0.10 0.03 0.92 -1.26 9.94 0.04 0.03 0.06 1082
0.10 0.05 0.90 -0.64 9.93 0.04 0.03 0.06 1088
0.10 0.02 0.94 -1.22 9.97 0.04 0.03 0.06 1094
0.09 0.02 0.91 -1.20 9.90 0.04 0.03 0.07 1100
0.12 0.02 0.93 -1.23 9.85 0.03 0.03 0.06 1107
0.12 0.01 0.93 -1.23 9.90 0.04 0.02 0.05 1114
0.11 -0.01 0.98 -1.19 9.91 0.03 0.01 0.05 1120
0.12 0.00 0.80 -1.13 10.00 0.03 -0.01 0.06 1126
0.13 0.00 0.92 -1.16 9.87 0.03 0.00 0.05 1132
0.12 -0.01 0.96 -1.18 9.93 0.03 -0.01 0.05 1138
0.12 -0.01 0.92 -1.23 9.93 0.03 -0.02 0.05 1144
0.14 0.00 0.97 -1.26 9.94 0.03 -0.02 0.04 1150
0.15 -0.00 0.55 -1.07 10.07 0.03 -0.03 0.05 1158
0.16 -0.02 0.82 -1.23 9.90 0.03 -0.03 0.04 1164
0.13 -0.01 1.03 -1.31 9.87 0.03 -0.04 0.03 1170
0.15 -0.01 1.02 -1.31 9.96 0.03 -0.06 0.03 1176
0.16 -0.02 0.80 -1.64 9.88 0.04 -0.06 0.02 1182
0.15 -0.01 0.94 -1.28 9.90 0.04 -0.07 0.02 1188
0.14 -0.01 1.32 -1.79 10.16 0.03 -0.09 0.01 1195
0.15 -0.00 0.85 -1.24 9.92 0.04 -0.08 0.01 1201
0.17 -0.02 0.91 -1.34 9.95 0.05 -0.10 0.01 1208
0.18 -0.02 0.78 -1.31 9.98 0.06 -0.13 0.01 1214
0.17 -0.02 0.92 -1.83 9.96 0.07 -0.12 0.01 1220
0.20 -0.02 0.91 -1.25 9.98 0.08 -0.14 -0.01 1226
0.20 -0.02 1.39 -2.02 10.13 0.08 -0.17 -0.02 1232
0.21 -0.02 0.89 -1.24 10.00 0.10 -0.18 -0.02 1239
0.26 -0.01 0.86 -1.38 10.04 0.12 -0.19 -0.04 1245
0.27 -0.02 0.82 -1.24 10.02 0.15 -0.19 -0.05 1252
0.28 -0.02 0.80 -1.58 10.07 0.18 -0.20 -0.06 1258
0.36 -0.02 1.21 -1.28 9.87 0.20 -0.19 -0.08 1264
0.38 -0.03 0.77 -1.19 10.22 0.23 -0.18 -0.08 1270
0.38 -0.02 0.74 -1.52 10.03 0.29 -0.16 -0.09 1276
0.43 -0.03 1.15 -1.60 10.27 0.35 -0.14 -0.09 1284
0.45 -0.04 0.89 -1.52 10.55 0.43 -0.12 -0.08 1290
0.48 -0.03 0.52 -1.60 10.62 0.51 -0.10 -0.07 1296
0.54 -0.03 0.60 -1.68 10.50 0.57 -0.08 -0.05 1302
0.56 -0.05 0.56 -1.77 10.74 0.65 -0.06 -0.04 1308
0.57 -0.03 0.56 -1.70 10.46 0.71 -0.03 -0.03 1315
0.59 -0.04 0.63 -1.71 10.43 0.75 -0.01 -0.01 1321
0.62 -0.04 0.76 -1.82 10.86 0.82 -0.00 -0.01 1328
0.64 -0.02 0.84 -1.86 10.89 0.90 -0.00 -0.00 1334
0.67 -0.03 0.64 -1.90 10.79 0.99 -0.00 -0.00 1340
0.65 -0.04 0.73 -2.03 10.84 1.04 0.00 -0.00 1347
0.66 -0.02 0.74 -2.05 10.86 1.10 0.01 0.00 1353
0.72 -0.04 0.70 -2.19 10.87 1.19 0.01 0.01 1359
0.76 -0.04 0.74 -2.01 11.07 1.22 0.01 0.00 1366
0.71 -0.02 1.06 -2.84 10.72 1.31 0.03 -0.01 1372
0.72 -0.03 0.83 -1.62 10.93 1.40 0.02 -0.01 1379
0.70 -0.04 1.67 -2.62 10.67 1.49 0.03 -0.03 1385
0.70 -0.04 0.88 -2.60 10.92 1.60 0.04 -0.04 1391
0.71 -0.04 0.81 -2.81 12.01 1.70 0.06 -0.04 1397
0.68 -0.03 0.90 -2.77 11.33 1.78 0.10 -0.04 1403
0.68 -0.03 0.91 -3.00 12.10 1.89 0.18 -0.04 1411
0.68 -0.04 1.02 -3.16 11.18 2.03 0.22 -0.05 1417
0.59 -0.02 1.13 -3.37 12.30 2.21 0.28 -0.07 1423
0.61 -0.04 1.00 -3.37 12.19 2.41 0.31 -0.09 1429
0.58 -0.04 1.14 -3.40 12.21 2.60 0.29 -0.09 1436
0.52 -0.02 0.66 -3.71 13.52 2.82 0.35 -0.07 1442
0.52 -0.03 -0.04 -3.93 13.97 3.13 0.41 -0.04 1448
0.47 -0.03 0.85 -4.34 14.57 3.48 0.49 -0.02 1455
0.44 -0.03 0.95 -4.90 16.14 3.83 0.61 -0.00 1461
0.42 -0.03 1.43 -5.87 17.49 4.14 0.68 0.01 1468
0.38 -0.02 1.35 -6.30 17.74 4.27 0.69 0.00 1474
0.39 -0.02 1.83 -7.66 20.08 4.28 0.66 -0.00 1480
0.37 -0.03 1.20 -8.40 20.33 4.28 0.62 -0.00 1486
0.34 -0.02 1.02 -9.02 20.13 4.28 0.49 0.00 1492
0.31 -0.02 0.02 -9.65 22.81 4.28 0.32 0.01 1500
0.27 -0.03 0.05 -9.73 22.44 4.28 0.16 0.01 1506
0.27 -0.02 -0.06 -8.77 22.37 4.28 -0.10 -0.00 1512
0.25 -0.02 1.87 -8.12 22.24 4.28 -0.30 0.01 1518
0.24 -0.02 4.21 -6.94 21.33 4.28 -0.27 0.01 1524
0.21 -0.02 4.55 -5.31 19.98 4.28 -0.11 -0.03 1531
0.19 -0.02 3.98 -3.57 19.74 4.28 -0.03 -0.09 1538
0.19 -0.02 4.01 -1.93 19.58 4.28 -0.03 -0.15 1544
0.15 -0.02 4.91 -0.96 19.43 4.28 -0.01 -0.22 1550
0.15 -0.02 5.68 0.20 19.97 4.28 0.07 -0.30 1556
0.12 -0.01 5.59 2.24 21.75 4.28 0.23 -0.40 1562
0.11 -0.01 5.42 4.30 19.93 4.28 0.46 -0.53 1569
0.09 -0.01 2.77 4.97 17.87 4.28 0.69 -0.69 1575
0.07 -0.01 0.70 11.34 10.59 4.28 0.92 -0.98 1582
0.04 -0.00 0.01 17.61 7.84 4.28 0.74 -1.66 1588
0.05 -0.01 3.29 15.35 5.75 3.76 0.25 -2.35 1594
0.05 -0.01 0.36 21.71 11.06 1.17 -0.04 -2.67 1600
0.05 -0.00 2.45 15.67 22.49 -0.68 0.17 -2.76 1607
0.07 -0.01 2.05 9.49 21.43 -1.98 0.29 -2.79 1613
0.06 -0.01 0.83 9.16 17.77 -2.83 0.24 -2.84 1619
0.04 -0.00 0.00 8.84 13.80 -3.38 0.08 -2.82 1626
0.06 0.00 0.18 7.37 11.27 -3.70 -0.06 -2.73 1632
0.06 -0.01 1.32 5.67 9.12 -3.97 -0.09 -2.63 1638
0.06 -0.01 2.36 4.65 7.62 -4.11 -0.10 -2.55 1645
0.05 -0.01 2.43 3.75 6.97 -4.17 -0.06 -2.48 1651
0.06 -0.01 2.36 3.10 6.35 -4.19 0.02 -2.35 1657
0.06 -0.01 2.41 2.35 6.17 -4.18 0.06 -2.20 1664
0.06 -0.01 2.37 1.93 5.84 -4.14 0.05 -2.04 1670
0.05 -0.00 2.26 1.78 5.77 -4.11 -0.01 -1.87 1676
0.07 -0.01 2.22 1.65 6.05 -4.08 -0.08 -1.68 1682
0.06 -0.01 2.39 1.50 6.66 -4.06 -0.20 -1.49 1688
0.06 -0.01 3.00 0.94 7.16 -4.06 -0.30 -1.34 1694
0.06 -0.01 3.86 0.56 8.18 -4.08 -0.35 -1.18 1701
0.07 -0.01 4.57 0.30 9.10 -4.12 -0.24 -1.01 1708
0.06 -0.01 5.13 -0.20 9.79 -4.20 -0.01 -0.83 1714
0.04 -0.00 5.42 -0.49 10.26 -4.22 0.29 -0.66 1720
0.05 -0.01 5.29 -0.91 10.75 -4.26 0.49 -0.50 1726
0.05 -0.01 4.91 -1.38 11.28 -4.28 0.74 -0.36 1732
0.05 -0.01 4.49 -2.07 11.66 -4.28 0.93 -0.20 1738
0.05 -0.01 3.94 -2.74 12.08 -4.28 1.08 -0.05 1745
0.06 -0.01 3.55 -3.48 12.47 -4.28 1.18 0.09 1752
0.05 -0.01 3.32 -4.41 13.21 -4.28 1.26 0.20 1758
0.04 -0.00 3.11 -5.31 13.93 -4.27 1.35 0.28 1764
0.06 -0.01 2.74 -6.09 14.59 -4.26 1.45 0.33 1770
0.05 -0.01 2.39 -6.66 15.05 -4.24 1.53 0.37 1776
0.04 -0.00 2.16 -7.27 15.42 -4.21 1.58 0.40 1783
0.05 -0.01 1.87 -7.87 15.42 -4.17 1.65 0.44 1789
0.05 -0.00 1.47 -8.29 15.55 -4.10 1.72 0.47 1796
0.04 -0.00 1.08 -8.61 15.85 -4.01 1.78 0.54 1802
0.05 -0.00 0.64 -8.82 16.03 -3.87 1.80 0.63 1808
0.05 -0.01 0.18 -8.83 16.33 -3.72 1.79 0.74 1814
0.05 -0.00 -0.16 -9.09 16.71 -3.55 1.75 0.84 1821
0.05 -0.00 -0.54 -9.41 17.10 -3.40 1.70 0.95 1827
0.05 -0.01 -0.86 -9.53 17.25 -3.30 1.60 1.03 1833
0.05 -0.00 -0.82 -9.50 17.33 -3.19 1.47 1.09 1840
0.05 -0.01 -0.08 -9.48 17.31 -3.08 1.32 1.11 1846
0.07 -0.01 -0.32 -9.52 17.36 -2.98 1.21 1.11 1852
0.05 -0.01 0.04 -9.55 17.22 -2.88 1.10 1.09 1858
0.04 -0.00 0.38 -9.49 17.03 -2.78 1.01 1.05 1865
0.05 -0.01 0.56 -9.66 16.78 -2.67 0.96 0.99 1871
0.06 -0.01 0.61 -9.96 16.45 -2.53 0.93 0.94 1878
0.04 -0.00 0.47 -10.17 16.05 -2.39 0.94 0.92 1884
0.05 0.00 0.27 -10.46 15.76 -2.21 0.89 0.91 1890
0.05 -0.01 0.06 -10.75 15.42 -2.02 0.84 0.93 1897
0.05 -0.00 -0.33 -11.04 15.49 -1.84 0.78 0.98 1903
0.08 -0.01 -0.75 -11.31 15.44 -1.71 0.69 1.04 1909
0.06 -0.01 -1.13 -11.54 15.44 -1.61 0.57 1.11 1915
0.06 -0.01 -1.27 -11.89 15.42 -1.56 0.44 1.19 1922
0.07 -0.01 -1.09 -12.20 14.90 -1.57 0.34 1.27 1929
0.06 -0.01 -0.61 -12.80 14.20 -1.62 0.34 1.34 1935
0.06 -0.00 0.08 -13.50 13.14 -1.68 0.40 1.42 1941
0.06 -0.01 0.68 -14.28 12.09 -1.72 0.54 1.48 1947
0.06 -0.01 0.75 -14.95 11.05 -1.75 0.71 1.57 1954
0.07 -0.01 0.53 -15.72 10.00 -1.75 0.87 1.58 1960
0.07 -0.01 -0.06 -16.41 8.88 -1.70 0.99 1.62 1967
0.06 -0.01 -0.80 -16.91 7.90 -1.61 1.05 1.66 1973
0.07 -0.01 -1.89 -17.52 6.71 -1.48 1.06 1.67 1979
0.07 -0.01 -3.05 -18.00 5.43 -1.31 1.06 1.70 1985
0.06 -0.01 -4.45 -18.12 4.03 -1.09 1.08 1.74 1992
0.07 -0.00 -6.14 -18.37 3.33 -0.81 1.14 1.82 1998
0.07 -0.01 -7.88 -18.95 3.64 -0.61 1.12 1.90 2004
0.06 -0.01 -9.03 -19.61 4.68 -0.37 0.87 1.88 2011
0.07 -0.01 -8.61 -19.61 5.36 -0.19 0.33 1.74 2017
0.07 -0.01 -8.13 -19.30 5.39 -0.06 -0.19 1.49 2023
0.06 -0.01 -5.87 -18.87 5.14 0.09 -0.66 1.18 2030
0.07 -0.00 -2.79 -34.02 18.77 0.45 -0.94 0.94 2036
0.05 -0.01 -2.70 -24.57 -2.90 2.19 -0.74 0.70 2042
0.04 -0.00 -2.74 -5.58 -3.31 2.47 -1.00 0.49 2049
0.04 0.01 -3.54 -4.73 6.68 2.45 -1.43 0.27 2055
0.04 0.04 1.26 6.12 15.36 2.47 -1.52 0.25 2062
0.03 0.12 3.02 6.51 14.84 2.05 -1.13 0.42 2068
0.03 0.24 3.31 6.32 14.46 1.78 -0.59 0.60 2074
0.04 0.26 -0.19 0.35 12.05 1.72 -0.11 0.73 2080
0.02 0.30 -2.51 -2.04 11.35 2.17 0.02 0.71 2086
0.04 0.34 -4.52 -2.87 13.95 2.55 -0.12 0.53 2094
0.04 0.43 -4.42 -2.83 14.63 2.83 -0.21 0.27 2100
0.03 0.51 -3.14 -2.39 17.43 3.02 -0.08 0.03 2106
0.05 0.58 -2.19 -2.23 19.20 3.03 0.04 -0.22 2112
0.04 0.64 0.44 -2.09 16.82 2.88 0.26 -0.38 2119
0.03 0.69 1.61 -2.29 15.71 2.65 0.27 -0.39 2125
0.05 0.71 2.29 -2.17 15.38 2.45 0.03 -0.35 2131
0.05 0.72 2.61 -2.23 15.52 2.20 -0.46 -0.29 2138
0.06 0.75 2.75 -1.82 15.16 1.67 -0.92 -0.15 2144
0.06 0.75 2.23 -2.02 12.89 1.10 -0.94 0.04 2151
0.04 0.77 0.68 -1.55 11.89 0.74 -0.80 0.18 2157
0.07 0.79 -0.45 -1.09 11.43 0.48 -0.64 0.17 2163
0.06 0.81 -0.24 -1.26 10.44 0.23 -0.37 0.10 2169
0.06 0.82 0.07 -1.60 10.04 0.14 -0.31 0.08 2176
0.08 0.82 0.71 -1.14 9.88 0.12 -0.29 0.12 2183
0.06 0.83 0.53 -1.44 10.17 0.08 -0.25 0.13 2189
0.05 0.86 0.27 -0.87 10.02 0.05 -0.17 0.13 2195
0.06 0.85 0.64 -1.49 10.04 0.03 -0.13 0.12 2201
0.06 0.87 0.49 -1.06 10.06 0.03 -0.11 0.12 2207
0.06 0.87 0.35 -1.03 10.07 0.02 -0.10 0.11 2214
0.06 0.87 0.39 -1.03 10.08 0.02 -0.10 0.11 2221
0.06 0.87 0.36 -1.02 9.94 0.02 -0.09 0.10 2227
0.07 0.86 0.36 -1.05 10.09 0.01 -0.08 0.10 2233
0.09 0.84 0.29 -1.02 10.02 0.01 -0.07 0.07 2239
0.08 0.83 0.26 -0.97 9.96 0.01 -0.06 0.10 2246
0.09 0.84 0.34 -0.97 10.03 0.02 -0.04 0.10 2252
0.10 0.82 0.36 -0.99 9.98 0.03 -0.03 0.11 2258
0.09 0.79 0.34 -0.93 9.93 0.03 -0.02 0.11 2265
0.08 0.75 0.36 -0.95 9.92 0.04 -0.01 0.11 2271
0.11 0.72 0.35 -0.93 9.88 0.05 -0.00 0.12 2277
0.13 0.66 0.41 -0.96 9.97 0.06 0.01 0.11 2283
0.12 0.66 0.47 -0.93 9.95 0.06 0.01 0.10 2290
0.11 0.60 0.45 -1.00 9.92 0.06 0.00 0.10 2296
0.13 0.54 0.46 -1.03 9.88 0.06 -0.00 0.09 2302
0.14 0.50 0.46 -1.04 9.96 0.06 -0.01 0.09 2309
0.13 0.45 0.44 -1.01 9.98 0.06 -0.02 0.08 2315
0.15 0.41 0.43 -1.03 9.99 0.06 -0.02 0.08 2321
0.15 0.38 0.40 -1.01 10.00 0.06 -0.02 0.08 2327
0.16 0.32 0.36 -1.02 9.98 0.06 -0.01 0.08 2334
0.16 0.29 0.40 -1.05 10.00 0.06 -0.01 0.08 2340
0.17 0.25 0.44 -1.02 9.93 0.07 -0.00 0.08 2347
0.18 0.22 0.42 -1.05 9.94 0.07 0.00 0.08 2353
0.16 0.20 0.44 -1.06 9.99 0.07 0.01 0.08 2359
0.19 0.16 0.44 -1.09 9.94 0.07 0.01 0.08 2365
0.20 0.13 0.46 -1.10 9.92 0.07 0.02 0.08 2371
0.22 0.07 0.48 -1.10 9.92 0.07 0.02 0.08 2377
0.22 0.07 0.47 -1.10 9.90 0.06 0.02 0.08 2384
0.25 0.06 0.44 -1.09 9.93 0.06 0.02 0.08 2391
0.24 0.06 0.46 -1.09 9.90 0.06 0.02 0.08 2397
0.24 0.06 0.47 -1.12 9.94 0.06 0.02 0.08 2403
0.26 0.05 0.48 -1.12 9.98 0.05 0.01 0.08 2409
0.27 0.01 0.52 -1.15 9.97 0.05 0.00 0.08 2415
0.29 0.01 0.52 -1.12 9.92 0.05 -0.01 0.07 2421
0.31 0.00 0.59 -1.10 9.94 0.05 -0.01 0.06 2428
0.34 0.00 0.56 -1.14 10.02 0.05 -0.02 0.07 2435
0.35 0.00 0.53 -1.16 9.93 0.05 -0.03 0.06 2441
0.35 -0.02 0.49 -1.15 9.92 0.05 -0.03 0.07 2447
0.36 -0.02 0.46 -1.04 10.01 0.05 -0.04 0.06 2453
0.40 -0.03 0.54 -1.20 10.01 0.06 -0.05 0.06 2459
0.39 -0.03 0.46 -1.16 9.94 0.05 -0.06 0.07 2466
0.41 -0.01 0.48 -1.14 9.91 0.06 -0.06 0.06 2472
0.44 -0.03 0.58 -1.18 10.02 0.06 -0.07 0.05 2479
0.47 -0.05 0.48 -1.23 10.07 0.06 -0.08 0.05 2485
0.49 -0.02 0.34 -1.28 9.99 0.06 -0.08 0.05 2491
0.54 -0.03 0.46 -1.20 9.97 0.06 -0.08 0.04 2497
0.54 -0.03 0.47 -1.16 9.96 0.06 -0.09 0.04 2503
0.57 -0.03 0.40 -1.33 10.00 0.06 -0.10 0.04 2510
0.59 -0.03 0.48 -1.13 9.89 0.07 -0.12 0.03 2516
0.62 -0.04 0.53 -1.24 9.97 0.08 -0.13 0.03 2523
0.69 -0.04 0.53 -1.13 10.03 0.08 -0.15 0.01 2529
0.69 -0.03 0.61 -1.03 10.16 0.09 -0.16 0.01 2535
0.72 -0.05 0.64 -1.10 10.07 0.13 -0.17 0.00 2541
0.76 -0.04 0.52 -1.22 10.02 0.11 -0.19 -0.01 2548
0.80 -0.03 0.47 -1.36 9.99 0.14 -0.20 -0.02 2554
0.85 -0.05 0.33 -1.45 10.24 0.15 -0.22 -0.04 2561
0.88 -0.04 0.56 -1.34 10.09 0.17 -0.23 -0.05 2567
0.94 -0.04 0.52 -1.34 10.06 0.20 -0.25 -0.06 2573
0.95 -0.05 0.47 -1.42 10.12 0.22 -0.26 -0.07 2580
1.01 -0.04 0.36 -1.43 10.22 0.25 -0.28 -0.08 2586
1.05 -0.05 0.29 -1.39 10.13 0.27 -0.28 -0.08 2592
1.09 -0.06 0.34 -1.47 10.12 0.29 -0.28 -0.08 2598
1.14 -0.05 0.30 -1.54 10.26 0.33 -0.28 -0.08 2606
1.19 -0.06 0.23 -1.46 10.48 0.37 -0.28 -0.07 2612
1.20 -0.05 0.10 -1.51 10.56 0.42 -0.28 -0.06 2618
1.26 -0.04 0.23 -1.61 10.43 0.48 -0.29 -0.05 2624
1.28 -0.06 0.24 -1.60 10.44 0.54 -0.30 -0.03 2630
1.33 -0.06 0.16 -1.59 10.62 0.61 -0.30 -0.02 2637
1.38 -0.06 0.25 -1.72 10.90 0.67 -0.30 -0.02 2643
1.40 -0.06 0.20 -1.70 11.06 0.75 -0.32 -0.01 2650
1.41 -0.05 0.28 -1.77 11.13 0.80 -0.32 -0.02 2656
1.48 -0.05 0.29 -1.94 11.24 0.87 -0.31 -0.03 2663
1.51 -0.06 0.05 -1.95 11.26 0.96 -0.29 -0.03 2669
1.53 -0.05 0.20 -2.10 11.24 1.06 -0.28 -0.02 2675
1.57 -0.06 0.17 -2.05 11.10 1.13 -0.25 -0.03 2681
1.62 -0.06 0.39 -2.23 11.32 1.19 -0.22 -0.03 2688
1.60 -0.05 0.24 -2.20 11.31 1.29 -0.23 -0.05 2695
1.64 -0.08 0.18 -2.47 11.78 1.38 -0.26 -0.05 2701
1.61 -0.06 0.53 -2.69 11.77 1.47 -0.24 -0.08 2707
1.65 -0.07 0.29 -2.68 11.60 1.55 -0.23 -0.09 2713
1.67 -0.07 -0.00 -2.64 12.38 1.64 -0.22 -0.11 2720
1.63 -0.06 0.36 -2.94 12.02 1.77 -0.25 -0.12 2726
1.61 -0.05 0.10 -3.10 12.41 1.87 -0.26 -0.15 2733
1.60 -0.06 0.51 -3.09 12.38 2.02 -0.29 -0.17 2739
1.57 -0.06 0.88 -3.40 12.44 2.18 -0.31 -0.21 2745
1.53 -0.06 -0.10 -3.15 13.40 2.38 -0.34 -0.27 2752
1.45 -0.06 0.54 -3.42 13.72 2.61 -0.37 -0.32 2758
1.30 -0.06 0.14 -3.44 13.77 2.85 -0.43 -0.38 2764
1.20 -0.07 -0.89 -3.70 14.55 3.09 -0.49 -0.44 2770
1.15 -0.04 1.51 -4.44 15.46 3.38 -0.57 -0.50 2778
1.08 -0.05 1.21 -4.86 15.42 3.70 -0.66 -0.57 2784
0.89 -0.04 2.40 -5.75 17.61 4.07 -0.75 -0.66 2790
0.88 -0.04 3.06 -5.66 17.49 4.26 -0.84 -0.77 2796
0.80 -0.04 1.66 -8.69 17.63 4.28 -0.90 -0.85 2803
0.75 -0.04 2.40 -7.64 20.70 4.28 -0.85 -0.86 2809
0.72 -0.03 1.70 -9.25 22.05 4.28 -0.73 -0.86 2816
0.64 -0.04 1.76 -10.83 22.45 4.28 -0.59 -0.84 2822
0.55 -0.02 3.25 -10.86 23.43 4.28 -0.38 -0.82 2829
0.52 -0.03 2.02 -9.16 24.61 4.28 -0.13 -0.81 2835
0.43 -0.03 0.30 -7.92 23.66 4.28 -0.05 -0.82 2841
0.35 -0.02 -0.01 -6.29 20.87 4.28 -0.14 -0.83 2847
0.28 -0.02 1.32 -4.39 19.73 4.28 -0.11 -0.84 2853
0.23 -0.00 2.21 -2.82 19.57 4.28 0.03 -0.84 2861
0.18 -0.01 3.63 -1.13 19.04 4.28 0.13 -0.87 2867
0.13 -0.01 3.59 0.04 19.05 4.28 0.16 -0.92 2873
0.11 -0.00 3.36 2.66 19.85 4.28 0.13 -1.01 2879
0.10 -0.01 2.99 4.04 17.90 4.28 0.11 -1.14 2885
0.10 -0.01 1.98 4.38 16.93 4.28 0.04 -1.35 2892
0.08 -0.01 1.25 9.55 9.11 4.28 0.03 -1.56 2898
0.07 -0.01 2.37 10.56 11.65 4.28 -0.19 -1.76 2905
0.07 -0.01 1.44 13.19 5.84 3.13 -0.37 -1.75 2911
0.07 -0.01 3.29 18.65 14.14 1.13 -0.51 -1.64 2917
0.08 -0.01 3.95 12.42 21.13 -0.37 -0.28 -1.37 2924
0.09 -0.01 3.65 7.93 18.50 -1.21 -0.09 -1.13 2930
0.09 0.00 2.71 8.34 13.76 -1.90 -0.04 -0.88 2936
0.08 -0.01 2.59 7.71 9.29 -2.33 -0.04 -0.64 2942
0.08 -0.01 3.17 6.59 7.01 -2.56 -0.05 -0.46 2949
0.08 -0.01 3.36 5.27 6.05 -2.66 -0.02 -0.36 2955
0.08 -0.01 3.26 4.50 5.21 -2.69 0.11 -0.24 2961
0.08 -0.01 2.87 4.23 4.63 -2.70 0.28 -0.14 2967
0.08 -0.01 2.60 4.03 4.36 -2.70 0.42 -0.05 2974
0.07 -0.01 2.12 3.71 4.40 -2.70 0.51 0.02 2980
0.07 -0.01 1.66 3.49 4.62 -2.70 0.57 0.08 2987
0.07 -0.01 1.20 3.38 5.19 -2.71 0.59 0.14 2993
0.07 -0.01 0.85 3.45 5.85 -2.75 0.56 0.21 2999
0.06 -0.01 0.84 3.60 6.85 -2.82 0.52 0.26 3005
0.07 -0.01 0.87 3.61 7.76 -2.95 0.50 0.30 3011
0.07 -0.01 0.98 3.40 8.52 -3.09 0.52 0.32 3017
0.06 -0.01 1.03 2.91 9.24 -3.29 0.55 0.32 3023
0.06 -0.01 1.08 2.39 9.68 -3.50 0.60 0.32 3030
0.07 -0.01 1.15 1.88 10.06 -3.71 0.67 0.30 3037
0.06 -0.01 1.31 1.31 10.41 -3.91 0.76 0.29 3043
0.06 -0.01 1.37 0.51 10.92 -4.08 0.87 0.27 3049
0.06 -0.00 1.14 -0.18 11.23 -4.17 0.98 0.26 3055
0.06 -0.01 0.96 -0.98 11.72 -4.21 1.07 0.25 3061
0.06 -0.01 0.78 -1.69 12.34 -4.24 1.14 0.26 3067
0.06 -0.01 0.58 -2.32 12.58 -4.26 1.17 0.27 3075
0.07 -0.01 0.35 -3.14 12.89 -4.26 1.19 0.28 3081
0.06 -0.01 0.20 -3.84 13.16 -4.26 1.18 0.30 3087
0.06 -0.01 0.34 -4.68 13.35 -4.25 1.16 0.31 3093
0.07 -0.01 0.45 -5.38 13.58 -4.22 1.12 0.33 3099
0.06 -0.01 0.70 -5.93 13.90 -4.18 1.09 0.35 3105
0.04 -0.00 0.99 -6.29 14.27 -4.11 1.07 0.36 3112
0.05 -0.01 1.24 -6.54 14.75 -4.04 1.07 0.37 3119
0.05 -0.00 1.39 -6.78 15.47 -3.97 1.10 0.38 3125
0.04 -0.00 1.39 -7.00 16.17 -3.87 1.14 0.39 3131
0.05 0.00 1.41 -7.22 16.79 -3.79 1.18 0.40 3137
0.05 -0.00 1.36 -7.41 17.42 -3.72 1.25 0.43 3143
0.04 -0.00 1.31 -7.56 18.13 -3.66 1.30 0.44 3150
0.05 -0.00 1.11 -7.77 18.71 -3.62 1.33 0.47 3156
0.05 -0.01 0.87 -8.01 19.05 -3.60 1.33 0.50 3163
0.05 -0.01 0.78 -8.20 19.27 -3.58 1.30 0.53 3169
0.05 -0.00 0.80 -8.62 19.34 -3.56 1.26 0.55 3175
0.06 -0.01 1.03 -9.18 19.18 -3.52 1.23 0.56 3181
0.05 -0.00 1.19 -9.69 18.83 -3.47 1.24 0.56 3188
0.04 -0.00 1.19 -10.13 18.37 -3.39 1.27 0.56 3194
0.06 -0.01 1.08 -10.68 18.11 -3.28 1.32 0.57 3201
0.05 -0.01 0.96 -11.04 17.55 -3.13 1.35 0.58 3207
0.05 -0.01 0.03 -11.20 16.90 -2.97 1.36 0.61 3213
0.05 -0.01 0.31 -11.41 16.35 -2.78 1.33 0.66 3220
0.05 -0.01 0.10 -11.46 15.84 -2.56 1.27 0.72 3226
0.05 -0.00 -0.10 -11.53 15.32 -2.32 1.18 0.79 3232
0.05 -0.01 -0.18 -11.60 14.84 -2.08 1.09 0.84 3238
0.04 -0.00 -0.16 -11.68 14.61 -1.86 1.04 0.91 3245
0.06 -0.01 -0.11 -11.70 14.47 -1.69 1.05 0.97 3252
0.05 -0.00 -0.06 -11.73 14.43 -1.60 1.10 1.01 3258
0.05 -0.01 -0.09 -11.82 14.18 -1.57 1.21 1.04 3264
0.06 -0.01 -0.27 -11.98 13.68 -1.62 1.33 1.05 3270
0.05 -0.01 -0.56 -12.50 12.97 -1.70 1.44 1.04 3277
0.05 -0.01 -1.04 -13.20 12.05 -1.76 1.53 1.01 3283
0.06 -0.01 -1.64 -14.07 10.69 -1.79 1.55 0.97 3290
0.05 -0.00 -2.32 -15.22 9.52 -1.75 1.50 0.90 3296
0.06 -0.01 -3.00 -16.25 7.81 -1.66 1.40 0.83 3302
0.06 -0.01 -3.70 -16.93 5.86 -1.51 1.29 0.75 3308
0.05 -0.01 -4.61 -17.30 4.30 -1.29 1.28 0.70 3315
0.05 -0.01 -6.13 -18.29 3.68 -1.01 1.39 0.72 3321
0.06 -0.01 -7.61 -19.19 4.02 -0.73 1.43 0.72 3328
0.05 -0.01 -8.55 -19.20 4.32 -0.48 1.10 0.61 3334
0.05 -0.01 -8.30 -18.80 4.88 -0.26 0.49 0.49 3340
0.07 -0.01 -6.26 -18.04 5.50 -0.02 -0.12 0.29 3346
0.05 -0.00 -3.90 -16.65 5.35 0.18 -0.43 0.10 3353
0.04 -0.00 -1.81 -15.37 5.91 0.34 -0.46 -0.07 3359
0.05 -0.01 -0.57 -14.22 6.70 0.45 -0.33 -0.22 3365
0.05 -0.01 -4.20 -16.91 7.13 0.56 -0.32 -0.29 3372
0.04 -0.00 -11.07 -24.04 21.63 1.83 -1.86 0.21 3378
0.06 -0.00 -5.01 -7.89 1.93 2.12 -2.87 0.23 3385
0.06 -0.01 1.28 -1.55 4.05 2.12 -3.32 0.14 3391
0.04 0.02 2.83 -0.39 11.35 2.14 -3.14 0.22 3397
0.05 0.13 5.00 5.14 13.25 2.03 -2.27 0.56 3403
0.03 0.16 3.73 4.56 12.45 1.80 -1.44 0.89 3409
0.02 0.24 2.98 3.21 11.91 1.79 -0.85 1.19 3416
0.04 0.31 0.20 -0.26 10.50 2.10 -0.40 1.36 3423
0.04 0.36 -3.14 -1.86 11.71 2.66 -0.13 1.40 3429
0.04 0.42 -5.84 -2.67 13.86 3.02 -0.07 1.24 3435
0.04 0.47 -7.34 -3.08 16.46 3.22 -0.09 0.91 3441
0.04 0.54 -7.70 -3.10 20.23 3.22 -0.10 0.42 3448
0.04 0.60 -5.22 -2.70 19.74 3.01 -0.03 -0.09 3454
0.04 0.63 -0.75 -2.61 18.02 2.81 0.10 -0.43 3461
0.03 0.69 1.78 -2.29 15.02 2.49 0.04 -0.50 3467
0.03 0.78 3.83 -2.47 16.08 2.28 -0.32 -0.40 3473
0.04 0.77 3.60 -2.25 15.74 1.87 -0.93 -0.23 3480
0.04 0.73 2.65 -2.38 12.13 1.28 -1.09 0.04 3486
0.06 0.75 0.83 -1.48 11.29 0.92 -0.97 0.24 3492
0.04 0.76 -1.28 -1.45 12.00 0.71 -0.87 0.21 3499
0.05 0.77 -0.74 -1.15 11.01 0.38 -0.59 0.12 3506
0.05 0.82 0.16 -1.15 10.38 0.18 -0.41 0.07 3512
0.06 0.82 0.77 -0.13 10.01 0.13 -0.33 0.06 3518
0.07 0.88 0.60 -0.76 10.40 0.11 -0.31 0.12 3524
0.08 0.88 0.18 -1.03 10.20 0.04 -0.23 0.12 3530
0.07 0.91 0.28 -0.97 10.17 0.01 -0.17 0.10 3537
0.06 0.96 0.38 -1.11 9.92 0.00 -0.13 0.11 3544
0.06 0.96 0.29 -1.00 9.94 0.00 -0.11 0.10 3550
0.07 0.96 0.35 -0.97 10.01 0.01 -0.10 0.10 3556
0.08 0.97 0.35 -0.97 10.02 0.01 -0.09 0.09 3562
0.08 0.95 0.44 -1.03 10.08 0.01 -0.09 0.09 3568
0.08 0.94 0.31 -1.01 9.91 0.01 -0.08 0.09 3575
0.10 0.96 0.33 -1.03 9.90 0.01 -0.08 0.09 3581
0.10 0.94 0.34 -1.00 9.99 0.02 -0.08 0.09 3588
0.10 0.92 0.37 -0.99 9.90 0.02 -0.07 0.10 3594
0.10 0.89 0.39 -0.95 9.89 0.02 -0.07 0.09 3600
0.10 0.86 0.36 -0.99 9.94 0.03 -0.06 0.09 3606
0.11 0.83 0.33 -1.00 9.93 0.04 -0.05 0.09 3612
0.11 0.77 0.33 -1.02 9.83 0.05 -0.05 0.09 3618
0.13 0.72 0.37 -1.04 9.94 0.05 -0.03 0.10 3625
0.13 0.68 0.33 -1.02 9.87 0.06 -0.03 0.10 3632
0.13 0.62 0.33 -1.02 9.96 0.06 -0.02 0.10 3638
0.15 0.54 0.40 -1.07 10.05 0.07 -0.02 0.10 3644
0.17 0.47 0.41 -1.05 10.00 0.06 -0.03 0.09 3650
0.18 0.45 0.45 -1.06 10.00 0.06 -0.03 0.09 3656
0.18 0.42 0.44 -1.04 9.88 0.06 -0.04 0.08 3663
0.20 0.39 0.44 -1.10 9.97 0.06 -0.04 0.08 3670
0.22 0.35 0.42 -1.07 9.90 0.05 -0.04 0.08 3676
0.24 0.30 0.42 -1.06 10.02 0.06 -0.04 0.08 3682
0.23 0.28 0.36 -1.08 9.99 0.05 -0.04 0.08 3688
0.28 0.25 0.34 -1.09 9.99 0.06 -0.03 0.08 3694
0.27 0.20 0.34 -1.10 9.94 0.06 -0.03 0.09 3700
0.28 0.15 0.33 -1.10 9.96 0.06 -0.02 0.08 3707
0.30 0.13 0.35 -1.16 9.92 0.06 -0.02 0.08 3714
0.31 0.08 0.37 -1.08 9.92 0.05 -0.02 0.09 3720
0.32 0.07 0.39 -1.11 9.96 0.05 -0.02 0.09 3726
0.32 0.06 0.40 -1.13 9.94 0.05 -0.02 0.08 3732
0.35 0.03 0.47 -1.17 9.92 0.05 -0.03 0.08 3738
0.35 0.05 0.42 -1.16 9.89 0.05 -0.03 0.08 3744
0.35 0.02 0.43 -1.14 9.89 0.04 -0.04 0.04 3751
0.37 0.04 0.40 -1.16 9.93 0.04 -0.05 0.07 3758
0.39 0.00 0.39 -1.15 9.89 0.04 -0.05 0.08 3764
0.44 -0.01 0.39 -1.20 9.95 0.04 -0.05 0.07 3770
0.45 -0.02 0.41 -1.13 9.97 0.04 -0.05 0.07 3776
0.46 -0.02 0.36 -1.15 9.91 0.04 -0.05 0.06 3782
0.45 -0.02 0.33 -1.18 9.94 0.04 -0.05 0.06 3788
0.46 -0.03 0.38 -1.20 9.94 0.05 -0.05 0.06 3795
0.49 -0.02 0.34 -1.21 9.92 0.05 -0.05 0.06 3802
0.48 -0.01 0.46 -1.22 9.90 0.05 -0.05 0.06 3808
0.51 -0.04 0.29 -1.18 9.94 0.05 -0.04 0.06 3814
0.50 -0.03 0.39 -1.15 9.97 0.05 -0.04 0.05 3820
0.51 -0.03 0.43 -1.21 9.92 0.05 -0.04 0.06 3826
0.55 -0.04 0.23 -1.39 9.93 0.05 -0.04 0.05 3832
0.55 -0.04 0.35 -1.17 9.86 0.06 -0.04 0.05 3840
0.61 -0.03 0.39 -1.28 9.95 0.06 -0.04 0.06 3846
0.61 -0.04 0.40 -1.22 10.00 0.07 -0.05 0.06 3852
0.62 -0.03 0.34 -1.82 9.92 0.07 -0.05 0.05 3858
0.62 -0.02 0.39 -1.22 9.82 0.07 -0.05 0.05 3864
0.65 -0.04 0.35 -1.29 9.95 0.07 -0.06 0.05 3870
0.66 -0.05 0.40 -1.27 9.96 0.07 -0.06 0.04 3876
0.70 -0.04 0.39 -1.32 10.02 0.08 -0.06 0.04 3884
0.74 -0.04 0.37 -1.23 10.02 0.09 -0.07 0.04 3890
0.77 -0.05 0.48 -1.18 9.95 0.09 -0.08 0.03 3896
0.78 -0.03 0.20 -1.71 9.94 0.10 -0.08 0.02 3902
0.81 -0.04 0.36 -1.36 9.93 0.11 -0.10 0.02 3908
0.84 -0.04 0.34 -1.31 10.04 0.13 -0.11 0.01 3915
0.86 -0.04 0.37 -1.27 10.03 0.15 -0.12 0.01 3921
0.90 -0.04 0.37 -1.28 9.98 0.17 -0.13 0.00 3928
0.92 -0.04 0.45 -1.34 10.09 0.20 -0.13 -0.01 3934
0.96 -0.04 0.40 -1.48 10.14 0.24 -0.14 -0.02 3940
0.97 -0.04 0.47 -1.56 10.21 0.28 -0.15 -0.02 3947
0.99 -0.05 0.63 -1.48 10.43 0.34 -0.15 -0.04 3953
1.04 -0.06 0.38 -1.50 10.41 0.41 -0.16 -0.03 3959
1.08 -0.05 0.19 -1.49 10.64 0.50 -0.17 -0.03 3965
1.12 -0.05 0.15 -1.55 10.88 0.57 -0.17 -0.02 3972
1.13 -0.05 0.18 -1.59 11.07 0.70 -0.17 0.00 3979
1.16 -0.05 0.24 -1.62 11.10 0.80 -0.18 0.02 3985
1.20 -0.05 0.21 -1.60 11.23 0.85 -0.18 0.02 3991
1.22 -0.04 0.25 -1.77 11.28 0.95 -0.17 0.03 3997
1.24 -0.06 0.50 -1.92 11.73 1.04 -0.15 0.03 4003
1.27 -0.06 0.20 -2.06 11.74 1.12 -0.09 0.05 4011
1.27 -0.05 0.40 -2.17 11.58 1.20 -0.06 0.04 4017
1.32 -0.05 0.51 -2.20 11.55 1.32 -0.06 0.03 4023
1.36 -0.06 0.34 -1.88 11.84 1.44 -0.05 0.01 4029
1.34 -0.06 0.61 -2.51 11.84 1.55 -0.05 0.00 4035
1.36 -0.06 0.17 -2.47 11.83 1.68 -0.05 -0.01 4042
1.38 -0.06 0.27 -2.52 12.22 1.79 -0.03 -0.03 4048
1.37 -0.05 0.29 -2.58 11.67 1.89 -0.03 -0.05 4055
1.35 -0.05 -2.17 -4.87 15.74 1.98 -0.03 -0.06 4061
1.34 -0.05 0.38 -2.97 11.57 2.10 0.01 -0.09 4068
1.28 -0.05 0.43 -3.14 11.50 2.23 0.04 -0.10 4074
1.20 -0.05 0.39 -3.27 12.20 2.36 0.04 -0.11 4080
1.16 -0.05 0.88 -3.77 12.45 2.53 0.02 -0.11 4086
0.98 -0.04 0.99 -3.63 12.84 2.77 -0.02 -0.15 4092
0.93 -0.04 1.45 -3.67 12.47 3.02 -0.01 -0.22 4100
0.91 -0.04 1.30 -3.90 12.23 3.28 -0.03 -0.30 4106
0.81 -0.05 1.26 -4.08 14.11 3.58 -0.03 -0.37 4112
0.75 -0.03 1.52 -4.90 16.53 3.95 -0.07 -0.44 4118
0.67 -0.04 1.47 -5.34 17.26 4.20 -0.08 -0.49 4125
0.60 -0.04 2.34 -6.87 19.66 4.28 -0.15 -0.53 4131
0.62 -0.02 2.31 -7.80 20.44 4.28 -0.18 -0.57 4137
0.56 -0.04 1.87 -10.04 25.30 4.28 -0.18 -0.61 4144
0.52 -0.03 0.80 -10.40 24.35 4.28 -0.02 -0.55 4151
0.47 -0.02 1.15 -11.95 26.56 4.28 0.07 -0.50 4157
0.35 -0.03 0.86 -10.71 25.02 4.28 0.06 -0.43 4163
0.32 -0.03 1.74 -8.93 25.15 4.28 0.07 -0.43 4169
0.25 -0.02 0.86 -7.47 25.09 4.28 -0.02 -0.46 4175
0.21 -0.02 1.23 -6.62 23.27 4.28 -0.19 -0.53 4183
0.19 -0.02 1.86 -4.54 21.37 4.28 -0.37 -0.53 4189
0.16 -0.02 3.00 -1.97 19.66 4.28 -0.52 -0.57 4195
0.15 -0.01 3.43 0.83 19.34 4.28 -0.58 -0.60 4201
0.14 -0.01 3.84 2.81 18.73 4.28 -0.61 -0.65 4207
0.09 -0.01 4.16 4.77 19.62 4.28 -0.71 -0.75 4214
0.09 -0.01 3.50 3.76 18.14 4.28 -0.71 -0.94 4220
0.10 -0.01 3.08 4.41 16.64 4.28 -0.68 -1.19 4227
0.08 -0.01 6.13 10.28 11.05 4.28 -0.35 -1.66 4233
0.07 -0.01 7.39 10.20 8.57 4.28 -0.23 -2.17 4239
0.08 -0.01 7.18 15.22 3.19 3.82 0.26 -2.51 4246
0.06 -0.01 5.88 19.11 18.25 1.69 0.83 -2.73 4252
0.07 -0.01 5.43 11.98 23.48 -0.03 1.59 -2.72 4258
0.08 -0.01 3.10 10.05 20.39 -1.29 1.61 -2.66 4264
0.07 -0.01 -0.06 10.91 15.87 -2.23 1.24 -2.51 4271
0.08 -0.00 -1.43 9.94 12.11 -2.88 0.78 -2.19 4278
0.08 -0.01 -0.25 7.15 9.53 -3.28 0.37 -1.81 4284
0.08 -0.01 1.73 5.20 8.05 -3.54 -0.04 -1.57 4290
0.08 -0.01 2.40 4.28 6.77 -3.67 -0.28 -1.40 4296
0.08 -0.01 2.82 3.46 5.82 -3.73 -0.31 -1.22 4302
0.07 -0.01 3.39 2.69 5.17 -3.74 -0.23 -1.04 4308
0.07 -0.01 3.65 2.16 4.84 -3.71 -0.10 -0.87 4315
0.06 -0.01 3.60 1.99 4.77 -3.65 0.05 -0.71 4321
0.08 -0.01 3.43 1.96 4.94 -3.60 0.18 -0.60 4328
0.07 -0.01 3.26 2.08 5.63 -3.56 0.27 -0.46 4334
0.06 -0.01 3.32 2.20 6.52 -3.52 0.31 -0.33 4340
0.07 -0.00 3.37 2.19 7.30 -3.52 0.36 -0.21 4346
0.07 -0.01 3.36 2.02 8.01 -3.54 0.45 -0.11 4353
0.06 -0.01 3.34 1.60 8.75 -3.60 0.57 -0.00 4359
0.05 -0.01 3.13 1.20 9.54 -3.69 0.74 0.07 4365
0.07 -0.01 2.99 0.78 10.07 -3.82 0.89 0.14 4371
0.07 -0.01 2.75 0.23 10.77 -3.96 1.03 0.18 4378
0.07 -0.01 2.61 -0.41 11.40 -4.08 1.16 0.20 4384
0.06 -0.01 2.25 -1.06 11.98 -4.16 1.28 0.23 4390
0.08 -0.01 1.87 -1.57 12.26 -4.21 1.39 0.24 4397
0.05 -0.01 1.44 -2.13 12.64 -4.23 1.46 0.27 4403
0.06 -0.01 1.16 -2.80 13.09 -4.25 1.52 0.28 4409
0.08 -0.01 0.85 -3.53 13.67 -4.25 1.57 0.29 4415
0.06 -0.01 0.53 -4.38 14.04 -4.24 1.62 0.28 4422
0.05 -0.00 0.21 -5.14 14.21 -4.22 1.65 0.27 4428
0.06 -0.00 0.02 -5.82 14.41 -4.20 1.68 0.26 4434
0.07 -0.01 -0.14 -6.44 14.65 -4.15 1.71 0.26 4441
0.06 -0.01 -0.36 -6.79 14.96 -4.08 1.72 0.27 4447
0.07 -0.00 -0.60 -6.91 15.21 -4.00 1.73 0.29 4454
0.07 -0.01 -0.79 -7.01 15.41 -3.89 1.70 0.32 4460
0.06 -0.01 -0.99 -7.06 15.75 -3.82 1.67 0.37 4466
0.07 -0.00 -1.19 -7.04 16.05 -3.72 1.63 0.43 4472
0.06 -0.01 -1.32 -6.98 16.38 -3.61 1.60 0.49 4478
0.07 -0.01 -1.48 -6.91 16.75 -3.49 1.56 0.56 4485
0.06 -0.00 -1.53 -6.73 17.16 -3.38 1.53 0.60 4492
0.06 -0.01 -1.52 -6.82 17.51 -3.28 1.52 0.59 4498
0.06 -0.01 -1.53 -6.81 17.83 -3.19 1.52 0.60 4504
0.06 -0.00 -1.57 -6.90 18.14 -3.11 1.52 0.59 4510
0.06 -0.01 -1.73 -7.07 18.53 -3.04 1.50 0.58 4516
0.06 -0.01 -1.92 -7.44 18.76 -2.98 1.46 0.56 4524
0.07 -0.00 -2.09 -7.95 18.99 -2.93 1.38 0.55 4530
0.07 -0.01 -2.16 -8.62 18.83 -2.85 1.25 0.55 4536
0.06 -0.01 -2.06 -9.37 18.50 -2.80 1.10 0.56 4542
0.07 -0.01 -1.84 -10.13 17.99 -2.70 0.96 0.58 4548
0.06 -0.01 -1.53 -10.81 17.31 -2.56 0.82 0.62 4555
0.06 -0.01 -1.12 -11.35 17.32 -2.41 0.68 0.66 4561
0.07 -0.01 -0.70 -11.64 17.68 -2.28 0.58 0.71 4568
0.07 -0.01 -0.02 -11.61 17.91 -2.24 0.57 0.75 4574
0.06 -0.01 0.57 -11.67 17.67 -2.26 0.66 0.79 4580
0.08 -0.01 0.99 -12.09 17.03 -2.33 0.85 0.85 4587
0.07 -0.01 0.82 -12.53 15.87 -2.42 1.11 0.95 4593
0.07 -0.01 -0.06 -12.80 13.97 -2.47 1.43 1.10 4599
0.08 -0.01 -1.56 -13.74 12.31 -2.46 1.82 1.37 4605
0.07 -0.01 -3.75 -14.76 10.90 -2.35 2.10 1.67 4612
0.07 -0.00 -6.18 -16.73 10.17 -2.17 2.20 1.98 4619
0.07 -0.01 -8.06 -19.44 9.31 -1.96 1.94 2.17 4625
0.06 -0.01 -8.96 -21.15 8.05 -1.73 1.31 2.23 4631
0.07 -0.01 -8.36 -22.58 6.66 -1.52 0.59 2.14 4637
0.06 -0.01 -6.81 -23.80 4.84 -1.31 0.12 1.95 4643
0.06 -0.01 -5.47 -24.94 3.39 -1.11 -0.02 1.68 4651
0.07 -0.01 -4.51 -25.69 2.34 -0.85 0.06 1.32 4657
0.07 -0.01 -3.93 -25.61 1.86 -0.54 0.23 0.88 4663
0.06 -0.01 -3.53 -24.86 2.16 -0.20 0.34 0.40 4669
0.06 -0.00 -9.53 -38.42 14.40 0.40 0.17 0.06 4675
0.07 -0.01 -8.70 -27.30 0.45 1.82 -0.38 -0.03 4682
0.06 -0.01 -9.80 -22.50 -1.27 2.18 -1.22 -0.25 4688
0.05 0.00 -7.03 -20.43 5.11 2.57 -2.30 -0.35 4695
0.06 0.02 0.13 -6.33 6.44 2.80 -2.72 -0.40 4701
0.04 0.07 2.84 -0.20 11.06 2.65 -2.43 -0.27 4707
0.04 0.19 5.88 4.82 18.36 2.57 -1.60 0.09 4714
0.04 0.27 5.86 4.97 16.57 2.31 -0.58 0.56 4720
0.03 0.36 3.38 -0.10 13.02 2.33 0.04 0.87 4726
0.04 0.38 -0.90 -2.30 14.57 2.76 0.21 0.97 4732
0.04 0.50 -4.48 -3.39 16.09 3.08 0.19 0.87 4739
0.04 0.54 -5.93 -4.19 17.76 3.41 0.01 0.57 4746
0.04 0.66 -4.70 -3.25 21.10 3.59 -0.03 0.18 4752
0.04 0.69 -2.26 -2.36 21.01 3.50 -0.08 -0.17 4758
0.04 0.75 0.24 -2.38 18.50 2.97 -0.22 -0.33 4764
0.05 0.81 1.73 -2.64 18.61 2.57 -0.46 -0.39 4770
0.04 0.80 3.10 -2.11 16.82 1.90 -1.08 -0.30 4777
0.05 0.85 4.03 -2.61 13.37 1.19 -1.15 0.06 4784
0.04 0.89 0.73 -1.82 11.91 0.87 -0.95 0.29 4790
0.03 0.90 -0.48 -1.16 12.08 0.66 -0.86 0.23 4796
0.05 0.92 -0.11 -0.86 10.72 0.34 -0.57 0.14 4803
0.05 0.94 0.22 -1.12 9.82 0.16 -0.36 0.10 4809
0.04 0.93 0.09 -0.42 10.47 0.11 -0.32 0.10 4815
0.05 0.97 0.59 -1.18 10.18 0.11 -0.29 0.14 4822
0.04 0.97 0.20 -0.97 10.19 0.05 -0.22 0.12 4828
0.04 1.00 0.31 -0.95 10.07 0.02 -0.16 0.10 4835
0.06 1.00 0.43 -1.03 10.02 0.01 -0.13 0.11 4841
0.06 1.00 0.35 -0.94 10.01 0.01 -0.13 0.11 4847
0.05 0.99 0.36 -0.88 9.95 0.01 -0.13 0.11 4853
0.06 0.99 -0.21 -0.83 9.97 0.02 -0.12 0.09 4859
0.05 0.97 0.40 -0.89 9.85 0.02 -0.12 0.09 4866
0.05 0.94 0.39 -0.88 10.00 0.02 -0.12 0.08 4873
0.08 0.92 0.27 -0.97 9.91 0.02 -0.13 0.08 4879
0.07 0.89 0.29 -0.92 9.97 0.02 -0.12 0.08 4885
0.08 0.87 0.31 -0.88 9.97 0.03 -0.12 0.09 4891
0.09 0.87 0.24 -0.92 10.00 0.03 -0.11 0.08 4897
0.13 0.82 0.28 -1.00 9.97 0.03 -0.10 0.08 4903
0.13 0.79 0.41 -0.93 9.86 0.03 -0.09 0.08 4910
0.13 0.73 0.29 -0.99 9.92 0.03 -0.08 0.09 4917
0.15 0.71 0.30 -0.95 10.02 0.03 -0.07 0.10 4923
0.15 0.66 0.40 -0.95 9.97 0.03 -0.07 0.10 4929
0.13 0.63 0.37 -0.97 10.00 0.04 -0.06 0.10 4935
0.17 0.59 0.40 -0.94 9.95 0.03 -0.06 0.09 4941
0.16 0.56 0.43 -0.96 9.96 0.04 -0.06 0.10 4947
0.17 0.54 0.39 -0.96 9.94 0.03 -0.07 0.08 4954
0.18 0.48 0.39 -0.99 10.01 0.04 -0.07 0.08 4961
0.19 0.46 0.41 -0.99 9.94 0.03 -0.08 0.07 4967
0.18 0.43 0.34 -0.96 9.95 0.03 -0.08 0.07 4973
0.20 0.39 0.38 -1.01 9.97 0.03 -0.07 0.08 4979
0.22 0.33 0.31 -1.01 9.94 0.03 -0.07 0.08 4985
0.20 0.33 0.27 -0.98 9.97 0.03 -0.06 0.07 4992
0.20 0.32 0.25 -1.00 9.99 0.03 -0.05 0.08 4999
0.21 0.31 0.28 -1.03 9.98 0.04 -0.04 0.09 5005
0.22 0.26 0.32 -1.03 10.02 0.03 -0.04 0.08 5011
0.23 0.22 0.33 -1.03 9.98 0.04 -0.04 0.08 5017
0.25 0.23 0.38 -1.04 9.98 0.04 -0.04 0.08 5023
0.28 0.18 0.38 -1.07 9.97 0.04 -0.05 0.08 5029
0.26 0.14 0.33 -1.04 9.96 0.03 -0.05 0.07 5036
0.28 0.14 0.35 -1.07 9.92 0.03 -0.06 0.08 5043
0.31 0.11 0.34 -1.07 9.91 0.03 -0.06 0.07 5049
0.30 0.10 0.36 -1.01 9.94 0.02 -0.07 0.07 5055
0.30 0.09 0.34 -1.05 9.94 0.02 -0.06 0.06 5061
0.34 0.10 0.31 -1.08 9.98 0.02 -0.07 0.06 5067
0.35 0.07 0.36 -1.08 9.97 0.02 -0.06 0.07 5073
0.37 0.05 0.35 -1.10 9.91 0.03 -0.06 0.07 5080
0.38 0.07 0.34 -1.04 9.89 0.02 -0.06 0.06 5087
0.42 0.06 0.28 -1.03 9.94 0.03 -0.06 0.06 5093
0.42 0.06 0.31 -1.06 9.96 0.03 -0.05 0.07 5099
0.46 0.02 0.29 -1.05 9.97 0.03 -0.05 0.06 5105
0.46 0.03 0.31 -1.05 9.94 0.03 -0.05 0.06 5111
0.49 0.02 0.32 -1.09 9.99 0.03 -0.05 0.06 5117
0.47 0.03 0.34 -1.07 9.94 0.03 -0.05 0.05 5124
0.49 0.03 0.32 -1.09 9.97 0.03 -0.05 0.05 5130
0.53 -0.01 0.40 -1.05 10.00 0.03 -0.05 0.04 5137
0.56 -0.02 0.29 -1.15 9.94 0.04 -0.05 0.05 5143
0.57 -0.00 -0.07 -1.43 9.81 0.04 -0.05 0.03 5149
0.58 -0.01 0.31 -1.07 10.00 0.05 -0.05 0.04 5155
0.62 -0.01 0.58 -0.80 10.19 0.05 -0.05 0.04 5161
0.62 -0.03 0.36 -1.15 10.03 0.06 -0.06 0.04 5168
0.64 -0.00 0.40 -1.13 9.98 0.07 -0.06 0.03 5175
0.67 -0.02 0.64 -0.93 10.08 0.08 -0.06 0.02 5181
0.67 -0.04 0.17 -1.29 10.04 0.09 -0.07 0.03 5187
0.71 -0.04 0.34 -1.19 10.13 0.10 -0.08 0.02 5193
0.78 -0.04 0.28 -1.27 10.16 0.11 -0.09 0.02 5199
0.78 -0.05 0.28 -1.29 10.08 0.12 -0.11 0.00 5207
0.84 -0.04 0.46 -1.22 10.07 0.14 -0.12 -0.03 5213
0.88 -0.04 0.42 -1.25 10.20 0.16 -0.13 -0.00 5219
0.94 -0.05 0.27 -1.24 10.13 0.18 -0.14 -0.00 5225
0.95 -0.03 0.25 -1.27 10.17 0.21 -0.16 -0.01 5231
0.98 -0.05 0.32 -1.25 10.23 0.24 -0.18 -0.01 5238
1.02 -0.04 0.33 -1.25 10.26 0.28 -0.20 -0.02 5244
1.07 -0.05 0.37 -1.43 10.33 0.33 -0.21 -0.02 5251
1.14 -0.06 0.25 -1.25 10.65 0.39 -0.22 -0.02 5257
1.21 -0.06 0.27 -1.33 10.69 0.48 -0.23 -0.03 5264
1.25 -0.05 0.34 -1.47 10.88 0.58 -0.23 -0.03 5270
1.30 -0.07 0.26 -1.30 11.26 0.73 -0.24 -0.03 5276
1.34 -0.06 0.22 -1.44 11.37 0.87 -0.26 -0.01 5282
1.34 -0.06 0.20 -1.73 11.15 0.95 -0.26 -0.01 5288
1.35 -0.06 0.22 -1.73 11.49 1.05 -0.25 -0.00 5296
1.38 -0.06 0.12 -1.69 11.75 1.16 -0.24 -0.00 5302
1.42 -0.07 0.07 -2.14 11.62 1.23 -0.22 -0.01 5308
1.41 -0.06 0.23 -2.14 11.96 1.31 -0.16 -0.02 5314
1.49 -0.06 0.24 -2.02 11.85 1.41 -0.18 -0.04 5320
1.48 -0.07 0.42 -2.24 11.67 1.51 -0.18 -0.06 5327
1.43 -0.07 0.45 -2.31 12.26 1.63 -0.19 -0.08 5334
1.48 -0.06 0.43 -2.26 13.00 1.74 -0.17 -0.11 5340
1.47 -0.06 0.13 -3.03 12.46 1.84 -0.16 -0.12 5346
1.46 -0.05 0.34 -2.52 12.65 1.97 -0.14 -0.14 5353
1.42 -0.06 0.19 -2.63 12.43 2.13 -0.14 -0.15 5359
1.31 -0.05 0.87 -3.15 13.07 2.30 -0.17 -0.16 5365
1.28 -0.05 0.19 -3.21 13.77 2.46 -0.24 -0.21 5371
1.20 -0.06 1.00 -3.40 13.98 2.70 -0.28 -0.28 5379
1.10 -0.04 1.07 -3.62 13.59 2.92 -0.32 -0.35 5385
1.04 -0.04 1.08 -3.28 14.21 3.20 -0.37 -0.43 5391
0.92 -0.04 0.76 -4.39 14.98 3.51 -0.45 -0.50 5397
0.81 -0.03 0.99 -4.59 16.62 3.86 -0.52 -0.57 5403
0.70 -0.04 1.73 -5.35 17.24 4.18 -0.62 -0.65 5410
0.70 -0.04 1.53 -5.38 20.62 4.28 -0.66 -0.71 5416
0.65 -0.04 2.20 -6.18 21.45 4.28 -0.71 -0.75 5423
0.59 -0.04 1.11 -6.15 19.59 4.28 -0.76 -0.81 5429
0.57 -0.02 2.63 -9.70 23.58 4.28 -0.67 -0.84 5436
0.50 -0.03 1.77 -9.88 23.51 4.28 -0.61 -0.85 5442
0.44 -0.02 3.14 -8.82 23.67 4.28 -0.56 -0.87 5448
0.38 -0.02 2.82 -7.83 25.49 4.28 -0.38 -0.89 5454
0.35 -0.04 0.43 -6.40 23.72 4.28 -0.45 -0.94 5460
0.24 -0.02 0.42 -4.65 21.92 4.28 -0.69 -0.98 5468
0.24 -0.02 2.78 -3.05 20.79 4.28 -0.89 -1.00 5474
0.15 -0.01 3.46 -0.87 19.92 4.28 -0.94 -1.02 5480
0.12 -0.01 4.92 1.11 19.14 4.28 -0.95 -1.10 5486
0.13 -0.01 5.58 2.65 18.81 4.28 -0.98 -1.13 5492
0.09 -0.01 5.58 5.00 18.81 4.28 -1.03 -1.27 5499
0.07 -0.01 5.08 5.70 16.68 4.28 -0.98 -1.47 5506
0.10 -0.01 5.95 10.55 9.99 4.28 -0.80 -1.82 5512
0.07 -0.01 7.69 11.33 10.42 4.28 -0.45 -2.39 5518
0.06 -0.01 6.27 11.81 5.48 3.66 0.09 -2.56 5524
0.08 -0.01 5.38 18.51 13.28 1.91 0.59 -2.58 5531
0.06 -0.01 4.71 13.90 21.59 0.35 1.09 -2.46 5537
0.07 -0.01 3.00 8.90 19.90 -0.78 1.08 -2.27 5543
0.08 -0.01 1.16 9.04 15.19 -1.52 0.83 -1.98 5550
0.07 -0.01 0.66 8.14 10.31 -1.98 0.41 -1.62 5556
0.06 -0.01 2.07 7.28 7.41 -2.28 0.01 -1.38 5562
0.07 -0.00 3.44 5.82 6.31 -2.45 -0.21 -1.13 5569
0.07 -0.01 4.26 4.87 5.77 -2.50 -0.13 -0.89 5575
0.07 -0.01 4.71 4.39 5.11 -2.52 0.11 -0.65 5581
0.07 -0.01 4.70 4.25 4.80 -2.57 0.37 -0.44 5587
0.08 -0.01 4.29 4.05 4.89 -2.57 0.59 -0.26 5594
0.07 -0.01 3.80 3.82 5.25 -2.61 0.74 -0.08 5600
0.06 -0.01 3.12 3.64 5.89 -2.65 0.86 0.11 5606
0.06 -0.01 2.48 3.62 6.52 -2.69 0.89 0.25 5612
0.07 -0.01 2.08 3.58 7.32 -2.75 0.85 0.40 5618
0.06 -0.01 1.89 3.39 8.11 -2.83 0.79 0.54 5624
0.06 -0.01 1.82 3.01 8.73 -2.93 0.77 0.66 5632
0.06 -0.01 1.90 2.58 9.25 -3.08 0.77 0.75 5638
0.07 -0.01 2.03 2.16 9.85 -3.24 0.81 0.80 5644
0.06 -0.01 2.07 1.79 10.29 -3.42 0.88 0.84 5650
0.05 -0.01 2.02 1.37 10.83 -3.60 0.98 0.86 5656
0.06 -0.00 1.95 0.86 11.29 -3.77 1.09 0.85 5662
0.06 -0.01 1.81 0.23 11.82 -3.93 1.22 0.82 5668
0.06 -0.01 1.47 -0.20 12.38 -4.05 1.36 0.77 5676
0.06 -0.00 1.03 -0.90 12.78 -4.12 1.49 0.72 5682
0.07 -0.01 0.53 -1.56 13.06 -4.17 1.58 0.66 5688
0.07 -0.01 0.18 -2.49 13.51 -4.20 1.62 0.59 5694
0.06 -0.01 -0.24 -3.42 13.87 -4.21 1.63 0.53 5700
0.06 -0.01 -0.50 -4.06 14.08 -4.20 1.62 0.44 5706
0.06 -0.01 -0.65 -4.89 14.27 -4.17 1.59 0.42 5713
0.06 -0.01 -0.67 -5.49 14.58 -4.13 1.56 0.38 5720
0.08 -0.01 -0.61 -5.87 14.88 -4.07 1.52 0.33 5726
0.06 -0.01 -0.56 -6.24 15.33 -3.99 1.49 0.30 5732
0.06 -0.01 -0.23 -6.48 15.77 -3.91 1.49 0.27 5738
0.07 -0.01 -0.07 -6.66 16.16 -3.86 1.50 0.25 5744
0.07 -0.01 0.01 -6.82 16.33 -3.79 1.52 0.25 5751
0.05 -0.01 0.10 -6.90 16.41 -3.70 1.54 0.27 5757
0.06 -0.01 0.07 -6.97 16.67 -3.60 1.55 0.30 5764
0.06 -0.01 0.18 -7.07 16.92 -3.48 1.55 0.33 5770
0.06 -0.01 0.17 -7.01 17.24 -3.36 1.55 0.36 5776
0.06 -0.01 0.28 -7.01 17.78 -3.25 1.55 0.40 5782
0.07 -0.01 0.35 -7.19 18.33 -3.18 1.57 0.42 5789
0.06 -0.01 0.39 -7.49 18.87 -3.12 1.60 0.43 5795
0.06 -0.01 0.34 -7.92 19.27 -3.09 1.62 0.44 5801
0.07 -0.01 0.29 -8.22 19.23 -3.07 1.64 0.46 5808
0.06 -0.01 0.13 -8.61 18.95 -3.05 1.64 0.48 5814
0.05 -0.01 0.16 -8.98 18.50 -3.02 1.63 0.53 5820
0.06 -0.00 0.12 -9.36 17.95 -2.95 1.62 0.62 5827
0.06 -0.01 0.08 -9.77 17.59 -2.83 1.61 0.68 5833
0.06 -0.01 -0.03 -10.10 17.46 -2.70 1.60 0.80 5839
0.07 -0.01 -0.39 -10.45 17.55 -2.56 1.56 0.93 5846
0.07 -0.01 -0.92 -10.70 17.87 -2.44 1.47 1.06 5852
0.06 -0.01 -1.37 -10.95 17.79 -2.39 1.32 1.19 5859
0.08 -0.01 -1.62 -11.33 17.26 -2.38 1.15 1.30 5865
0.07 -0.01 -1.46 -12.13 16.49 -2.40 0.98 1.38 5871
0.07 -0.01 -0.97 -13.27 15.37 -2.42 0.85 1.42 5877
0.08 -0.01 -0.31 -14.68 13.82 -2.40 0.78 1.40 5883
0.07 -0.01 0.20 -16.12 11.99 -2.32 0.79 1.32 5891
0.07 -0.00 0.73 -17.67 10.20 -2.18 0.90 1.20 5897
0.07 -0.01 0.78 -18.87 8.68 -1.99 1.07 1.05 5903
0.06 -0.01 0.11 -19.46 6.97 -1.78 1.28 0.88 5909
0.07 -0.00 -1.79 -19.23 5.27 -1.51 1.54 0.76 5915
0.07 -0.01 -4.14 -19.05 4.61 -1.20 1.92 0.78 5922
0.05 -0.01 -7.94 -20.69 5.19 -0.91 2.34 0.93 5928
0.06 -0.00 -11.47 -21.09 6.13 -0.70 2.21 0.98 5935
0.06 -0.01 -13.28 -21.50 6.44 -0.55 1.37 0.98 5941
0.06 -0.01 -12.51 -21.63 6.04 -0.36 0.27 0.92 5947
0.08 -0.01 -9.54 -20.79 4.77 -0.10 -0.60 0.83 5954
0.07 -0.01 -6.44 -19.96 4.27 0.18 -0.98 0.74 5960
0.06 -0.01 -4.05 -18.76 5.01 0.44 -1.04 0.61 5966
0.07 -0.01 -2.49 -17.28 6.12 0.66 -0.90 0.43 5972
0.07 -0.01 -2.32 -16.52 7.05 0.82 -0.72 0.24 5979
0.05 -0.01 -13.71 -29.89 36.35 1.93 -1.95 0.56 5986
0.07 0.00 -4.42 -2.24 0.47 2.48 -2.76 0.48 5992
0.06 -0.00 -0.10 0.70 2.67 2.23 -3.12 0.32 5998
0.03 0.04 3.47 2.29 13.47 2.16 -2.91 0.38 6004
0.04 0.15 3.45 5.80 11.27 1.98 -2.01 0.67 6010
0.04 0.19 1.65 5.59 10.63 1.94 -1.30 0.90 6017
0.03 0.31 0.65 2.10 8.76 2.12 -0.92 1.03 6024
0.05 0.40 -1.01 -1.07 10.22 2.72 -0.61 1.07 6030
0.04 0.43 -1.91 -2.22 11.91 3.19 -0.11 1.11 6036
0.04 0.49 -6.32 -3.40 17.21 3.57 0.13 1.05 6042
0.04 0.61 -6.34 -4.20 20.34 3.70 0.24 0.78 6049
0.04 0.74 -5.94 -3.76 22.66 3.69 0.08 0.30 6055
0.02 0.85 -1.12 -3.05 19.88 3.61 0.11 -0.12 6062
0.03 0.95 0.66 -2.73 17.49 3.34 -0.01 -0.25 6068
0.02 1.00 2.43 -2.73 19.03 3.13 -0.18 -0.25 6074
0.02 1.03 2.61 -2.92 20.12 2.52 -0.92 -0.21 6081
0.04 1.03 3.46 -3.09 16.30 1.58 -1.14 0.02 6087
0.03 1.03 1.18 -2.54 12.68 0.99 -0.88 0.29 6093
0.04 1.04 -0.47 -1.29 11.58 0.77 -0.76 0.30 6099
0.03 1.03 0.18 -0.41 11.60 0.52 -0.58 0.18 6106
0.05 1.04 1.46 -0.47 10.66 0.24 -0.29 0.14 6113
0.05 1.04 0.75 0.23 9.95 0.16 -0.18 0.12 6119
0.04 1.05 0.61 -1.40 10.23 0.14 -0.18 0.17 6125
0.03 1.07 0.40 -1.20 10.29 0.10 -0.15 0.16 6131
0.05 1.06 0.44 -1.19 10.03 0.05 -0.12 0.13 6137
0.04 1.06 0.48 -1.19 10.04 0.04 -0.10 0.13 6145
0.04 1.07 0.44 -1.11 9.98 0.02 -0.08 0.13 6151
0.05 1.09 0.43 -1.09 10.02 0.01 -0.07 0.12 6157
0.03 1.09 0.46 -1.08 9.97 0.01 -0.06 0.12 6163
0.04 1.10 0.53 -1.03 9.93 0.01 -0.06 0.13 6169
0.06 1.09 0.51 -1.05 9.92 0.01 -0.06 0.13 6175
0.05 1.07 0.50 -1.05 9.90 0.01 -0.06 0.12 6182
0.04 1.05 0.51 -1.04 9.88 0.01 -0.06 0.13 6189
0.06 1.02 0.49 -1.06 9.91 0.02 -0.07 0.12 6195
0.06 0.99 0.49 -1.01 9.92 0.02 -0.06 0.12 6201
0.07 0.94 0.44 -1.06 9.94 0.03 -0.06 0.12 6207
0.06 0.93 0.44 -1.05 9.96 0.03 -0.06 0.12 6213
0.08 0.86 0.49 -1.09 9.99 0.03 -0.06 0.12 6219
0.07 0.83 0.48 -1.10 9.96 0.03 -0.06 0.12 6226
0.08 0.79 0.46 -1.10 9.89 0.03 -0.07 0.12 6233
0.09 0.78 0.50 -1.09 9.99 0.03 -0.07 0.12 6239
0.08 0.74 0.49 -1.09 9.88 0.03 -0.08 0.11 6245
0.07 0.71 0.50 -1.07 9.96 0.02 -0.07 0.12 6251
0.08 0.71 0.55 -1.09 9.88 0.03 -0.08 0.10 6257
0.10 0.71 0.52 -1.08 9.88 0.02 -0.08 0.10 6263
0.10 0.67 0.52 -1.08 9.89 0.02 -0.08 0.10 6269
0.09 0.66 0.48 -1.10 9.93 0.02 -0.08 0.09 6277
0.09 0.66 0.59 -1.05 10.23 0.01 -0.08 0.09 6283
0.10 0.60 0.48 -1.14 9.97 0.01 -0.09 0.09 6289
0.10 0.59 0.44 -1.14 9.94 0.01 -0.08 0.08 6295
0.09 0.57 0.47 -1.17 9.89 0.01 -0.08 0.08 6301
0.11 0.58 0.43 -1.14 9.91 0.01 -0.08 0.08 6307
0.11 0.56 0.43 -1.10 9.94 0.00 -0.07 0.09 6315
0.09 0.55 0.39 -1.13 9.92 0.01 -0.06 0.09 6321
0.11 0.54 0.43 -1.10 9.93 0.01 -0.04 0.09 6327
0.11 0.50 0.46 -1.11 9.95 0.01 -0.03 0.09 6333
0.12 0.48 0.46 -1.09 9.89 0.02 -0.03 0.10 6339
0.13 0.48 0.42 -1.12 9.91 0.02 -0.02 0.09 6345
0.14 0.46 0.49 -1.12 9.97 0.02 -0.01 0.09 6351
0.12 0.47 0.46 -1.14 9.89 0.02 -0.01 0.09 6359
0.11 0.45 0.52 -1.13 9.89 0.02 -0.01 0.09 6365
0.13 0.44 0.52 -1.13 9.87 0.02 -0.01 0.08 6371
0.14 0.42 0.51 -1.16 9.92 0.02 -0.01 0.09 6377
0.12 0.40 0.55 -1.13 9.93 0.02 -0.01 0.08 6383
0.14 0.39 0.49 -1.15 9.93 0.03 -0.02 0.07 6389
0.15 0.37 0.53 -1.20 9.98 0.02 -0.02 0.08 6395
0.15 0.36 0.46 -1.18 10.00 0.03 -0.01 0.07 6403
0.15 0.35 0.53 -1.16 9.90 0.03 -0.02 0.07 6409
0.15 0.33 0.49 -1.21 9.95 0.03 -0.02 0.07 6415
0.15 0.30 0.49 -1.18 9.89 0.03 -0.02 0.07 6421
0.16 0.31 0.53 -1.14 9.93 0.03 -0.02 0.07 6427
0.18 0.31 0.54 -1.15 9.96 0.04 -0.03 0.06 6433
0.18 0.28 0.54 -1.22 9.96 0.03 -0.03 0.05 6439
0.17 0.24 0.51 -1.22 9.93 0.03 -0.04 0.06 6447
0.17 0.21 0.57 -1.20 9.90 0.03 -0.04 0.06 6453
0.19 0.21 0.46 -1.33 9.84 0.03 -0.05 0.06 6459
0.16 0.17 0.60 -1.23 9.90 0.03 -0.05 0.05 6465
0.16 0.15 0.58 -1.21 9.93 0.03 -0.07 0.04 6471
0.18 0.15 0.51 -1.15 10.03 0.02 -0.07 0.04 6477
0.20 0.13 0.51 -1.22 9.93 0.03 -0.08 0.04 6483
0.22 0.08 0.58 -1.22 9.94 0.03 -0.08 0.03 6491
0.22 0.11 0.64 -1.09 9.99 0.02 -0.08 0.03 6497
0.26 0.10 0.48 -1.25 9.96 0.03 -0.08 0.03 6503
0.27 0.06 0.45 -1.88 10.00 0.03 -0.07 0.03 6509
0.28 0.07 0.47 -1.21 9.97 0.04 -0.06 0.03 6515
0.31 0.04 0.57 -1.82 9.94 0.04 -0.04 0.02 6521
0.34 0.01 0.50 -1.27 9.97 0.05 -0.04 0.02 6528
0.37 0.00 0.46 -1.18 10.03 0.06 -0.03 0.01 6535
0.41 -0.01 0.44 -1.47 10.04 0.06 -0.02 0.01 6541
0.45 -0.03 0.50 -1.10 10.10 0.07 -0.02 0.02 6547
0.48 -0.03 0.64 -1.44 10.10 0.09 -0.02 0.01 6553
0.52 -0.03 0.63 -1.08 10.08 0.11 -0.01 0.00 6559
0.55 -0.04 0.52 -1.65 10.14 0.14 -0.02 -0.00 6566
0.60 -0.04 0.44 -1.59 10.34 0.18 -0.02 0.01 6573
0.63 -0.03 0.51 -1.40 10.41 0.22 -0.02 0.01 6579
0.69 -0.03 0.69 -1.51 10.41 0.28 -0.02 0.01 6585
0.72 -0.04 0.76 -1.38 10.72 0.40 -0.01 0.00 6591
0.78 -0.02 0.64 -1.62 11.01 0.56 -0.02 -0.02 6598
0.81 -0.04 0.80 -1.74 12.12 0.77 -0.07 -0.02 6604
0.82 -0.05 0.52 -1.64 12.14 1.06 -0.12 -0.02 6610
0.84 -0.05 0.50 -1.49 12.46 1.28 -0.10 -0.02 6617
0.87 -0.05 0.51 -1.67 12.26 1.41 -0.05 -0.01 6623
0.91 -0.04 0.54 -1.95 11.64 1.51 0.03 -0.03 6630
0.96 -0.05 0.71 -2.08 11.63 1.60 0.03 -0.04 6636
0.98 -0.05 0.47 -1.95 11.98 1.68 0.04 -0.05 6642
0.98 -0.05 0.59 -2.19 12.21 1.81 0.05 -0.05 6648
1.00 -0.05 0.82 -2.29 11.86 1.96 0.05 -0.06 6654
0.96 -0.05 0.56 -2.46 11.57 2.09 0.04 -0.08 6662
0.94 -0.04 0.51 -2.67 11.82 2.21 0.04 -0.09 6668
0.92 -0.05 0.18 -2.70 12.53 2.31 0.06 -0.09 6674
0.92 -0.04 0.33 -2.78 12.87 2.42 0.09 -0.07 6680
0.83 -0.03 0.69 -2.96 12.47 2.55 0.16 -0.07 6686
0.80 -0.04 0.57 -3.17 11.88 2.70 0.20 -0.10 6693
0.74 -0.04 1.36 -3.27 12.98 2.87 0.21 -0.15 6700
0.72 -0.04 1.39 -3.70 13.53 3.11 0.18 -0.21 6706
0.64 -0.04 0.55 -3.49 15.24 3.46 0.20 -0.26 6712
0.57 -0.04 1.96 -4.06 15.13 3.84 0.22 -0.30 6719
0.54 -0.03 1.26 -4.20 16.25 4.17 0.27 -0.35 6725
0.49 -0.03 1.43 -5.32 18.32 4.28 0.30 -0.36 6731
0.47 -0.02 1.69 -7.24 21.09 4.28 0.29 -0.37 6737
0.44 -0.03 1.75 -8.48 22.47 4.28 0.30 -0.37 6744
0.38 -0.03 0.95 -9.45 24.36 4.28 0.30 -0.33 6751
0.33 -0.02 0.62 -10.05 24.21 4.28 0.31 -0.28 6757
0.29 -0.03 -0.44 -9.70 24.85 4.28 0.14 -0.25 6763
0.27 -0.02 1.44 -9.09 25.41 4.28 -0.02 -0.23 6769
0.28 -0.02 2.40 -8.08 25.56 4.28 0.03 -0.24 6776
0.21 -0.02 2.33 -7.39 24.51 4.28 -0.00 -0.27 6782
0.15 -0.01 2.80 -5.17 22.59 4.28 -0.12 -0.30 6789
0.18 -0.01 3.07 -2.74 21.57 4.28 -0.17 -0.33 6795
0.12 -0.01 4.00 -0.00 20.85 4.28 -0.20 -0.37 6801
0.12 -0.00 4.81 2.61 20.37 4.28 -0.20 -0.45 6808
0.11 -0.01 5.47 4.02 21.31 4.28 -0.16 -0.54 6814
0.09 -0.01 6.18 4.94 20.79 4.28 0.04 -0.70 6820
0.08 -0.00 4.73 5.45 18.99 4.28 0.34 -0.92 6827
0.07 -0.01 2.94 11.13 12.32 4.28 0.82 -1.25 6833
0.06 -0.01 4.54 15.00 7.91 4.28 0.95 -1.93 6839
0.07 -0.01 7.07 15.46 3.80 4.19 1.02 -2.40 6846
0.06 -0.01 3.96 21.84 13.81 1.86 1.19 -2.68 6852
0.06 -0.01 4.05 15.08 25.33 0.05 1.69 -2.64 6858
0.07 -0.00 1.97 11.24 22.54 -1.16 1.56 -2.53 6864
0.07 -0.01 -0.98 12.05 18.11 -2.24 0.97 -2.44 6872
0.06 -0.01 -2.24 11.20 13.70 -3.03 0.28 -2.25 6878
0.08 -0.01 -1.40 8.26 11.82 -3.51 -0.20 -1.94 6884
0.06 -0.01 0.60 5.63 9.87 -3.73 -0.48 -1.68 6890
0.05 -0.01 2.34 4.63 7.84 -3.85 -0.73 -1.56 6896
0.06 -0.00 2.61 4.00 6.64 -3.92 -0.84 -1.47 6902
0.07 -0.01 3.29 3.43 5.73 -3.96 -0.81 -1.36 6908
0.07 -0.01 4.03 2.83 5.59 -3.96 -0.67 -1.25 6916
0.07 -0.01 4.71 2.42 5.64 -3.91 -0.44 -1.15 6922
0.07 -0.01 4.70 2.31 5.75 -3.91 -0.15 -1.05 6928
0.07 -0.01 4.43 2.46 6.05 -3.86 0.11 -0.95 6934
0.06 -0.01 4.04 2.50 6.54 -3.82 0.28 -0.86 6940
0.06 -0.01 3.84 2.26 6.87 -3.79 0.42 -0.75 6946
0.06 -0.01 3.87 1.79 7.36 -3.78 0.53 -0.65 6952
0.06 -0.01 4.00 1.12 7.98 -3.78 0.69 -0.56 6959
0.05 -0.00 3.89 0.28 8.69 -3.79 0.87 -0.48 6965
0.05 -0.01 3.83 -0.44 9.46 -3.83 1.06 -0.40 6972
0.06 -0.01 3.59 -1.05 10.26 -3.88 1.18 -0.32 6978
0.05 -0.01 3.24 -1.51 11.07 -3.96 1.30 -0.26 6984
0.05 -0.01 2.75 -2.06 11.69 -4.05 1.38 -0.18 6990
0.06 -0.01 2.41 -2.63 12.33 -4.12 1.42 -0.10 6996
0.05 -0.01 2.14 -3.09 12.89 -4.17 1.42 -0.01 7003
0.04 -0.00 2.03 -3.62 13.48 -4.20 1.39 0.07 7010
0.05 -0.00 1.92 -4.32 13.94 -4.22 1.39 0.14 7016
0.05 -0.00 1.82 -5.12 14.37 -4.22 1.43 0.20 7022
0.05 -0.00 1.68 -5.99 14.54 -4.23 1.47 0.23 7028
0.05 -0.00 1.54 -6.64 14.66 -4.22 1.52 0.27 7034
0.05 -0.00 1.40 -7.07 14.90 -4.20 1.57 0.30 7041
0.05 -0.01 1.24 -7.37 14.89 -4.15 1.64 0.34 7048
0.06 -0.01 0.98 -7.57 14.97 -4.09 1.68 0.38 7054
0.06 -0.01 0.77 -7.59 15.22 -4.00 1.73 0.45 7060
0.06 -0.01 0.41 -7.64 15.55 -3.89 1.75 0.53 7066
0.05 -0.01 -0.03 -7.54 15.88 -3.75 1.76 0.62 7072
0.07 -0.01 -0.51 -7.35 16.25 -3.61 1.71 0.72 7078
0.06 -0.01 -1.05 -7.38 16.75 -3.46 1.65 0.83 7086
0.05 -0.01 -1.50 -7.34 17.11 -3.37 1.56 0.93 7092
0.07 -0.01 -1.68 -7.24 17.64 -3.28 1.45 1.03 7098
0.06 -0.01 -1.66 -7.32 17.98 -3.20 1.32 1.09 7104
0.05 -0.00 -1.74 -7.44 18.80 -3.15 1.25 1.13 7110
0.06 -0.00 -1.62 -7.86 19.34 -3.12 1.18 1.14 7116
0.06 -0.01 -1.46 -8.38 19.69 -3.12 1.14 1.12 7123
0.05 -0.01 -1.37 -8.98 19.89 -3.16 1.12 1.07 7130
0.07 -0.01 -1.20 -9.68 19.63 -3.21 1.10 1.01 7136
0.06 -0.01 -0.99 -10.43 19.18 -3.23 1.06 0.93 7142
0.06 -0.01 -0.48 -11.35 18.53 -3.22 1.03 0.85 7148
0.07 -0.01 -0.04 -12.31 17.60 -3.15 1.01 0.77 7155
0.06 -0.01 0.35 -13.01 16.81 -3.01 1.00 0.71 7161
0.06 -0.01 0.39 -13.75 16.09 -2.84 0.96 0.66 7168
0.06 -0.01 0.49 -14.33 15.51 -2.65 0.90 0.62 7174
0.06 -0.01 0.51 -15.02 14.88 -2.49 0.82 0.61 7181
0.06 -0.01 0.61 -15.97 14.22 -2.31 0.75 0.61 7187
0.07 -0.01 0.68 -16.94 13.64 -2.15 0.71 0.63 7193
0.06 -0.01 0.73 -17.65 12.87 -2.03 0.71 0.65 7199
0.07 -0.01 0.99 -18.30 11.88 -1.96 0.79 0.68 7205
0.07 -0.01 1.17 -18.67 10.55 -1.91 0.97 0.71 7213
0.06 -0.01 0.50 -18.53 8.06 -1.83 1.27 0.79 7219
0.06 -0.01 -1.52 -18.36 6.42 -1.70 1.73 0.96 7225
0.07 -0.01 -4.85 -19.36 5.83 -1.46 2.21 1.30 7231
0.06 -0.01 -8.91 -20.89 6.30 -1.17 2.31 1.66 7237
0.07 -0.01 -11.67 -22.78 6.29 -0.92 1.74 1.87 7244
0.07 -0.01 -12.09 -24.11 5.24 -0.70 0.67 1.91 7250
0.06 -0.01 -9.98 -24.97 4.35 -0.43 -0.35 1.84 7257
0.07 -0.01 -7.32 -24.96 3.64 -0.10 -0.92 1.67 7263
0.07 -0.01 -4.92 -26.19 3.07 0.24 -1.03 1.43 7269
0.06 -0.01 -9.07 -38.55 24.37 1.49 -1.41 1.09 7275
0.07 -0.00 -8.45 -23.44 -4.50 2.38 -1.57 0.81 7282
0.06 -0.01 -5.29 -10.91 2.46 2.78 -2.18 0.54 7288
0.05 0.02 -3.36 -4.19 10.55 2.86 -2.62 0.34 7294
0.07 0.09 0.11 6.68 15.29 2.72 -2.48 0.36 7301
0.04 0.16 3.00 6.30 17.17 2.42 -1.88 0.59 7307
0.03 0.26 2.64 7.27 14.15 2.18 -1.08 0.82 7314
0.04 0.33 -0.64 0.03 11.22 2.20 -0.62 0.93 7320
0.03 0.38 -2.93 -2.42 13.29 2.69 -0.51 0.87 7326
0.03 0.45 -4.43 -3.53 13.56 3.04 -0.31 0.78 7332
0.04 0.54 -4.39 -3.39 15.41 3.36 -0.04 0.61 7340
0.02 0.58 -5.43 -2.53 19.63 3.53 0.20 0.34 7346
0.03 0.68 -4.74 -2.83 21.58 3.48 0.17 -0.10 7352
0.03 0.73 -0.52 -2.21 17.76 3.17 -0.00 -0.44 7358
0.03 0.75 2.77 -2.47 16.41 3.01 0.00 -0.46 7364
0.05 0.81 3.88 -3.20 20.47 2.78 -0.57 -0.38 7371
0.07 0.81 4.22 -1.94 16.50 1.88 -1.42 -0.24 7377
0.05 0.87 2.43 -2.92 13.97 1.30 -1.24 0.19 7384
0.04 0.87 -0.33 -1.92 12.34 0.94 -1.07 0.32 7390
0.03 0.85 -0.96 -0.89 12.46 0.58 -0.83 0.24 7397
0.04 0.89 -1.01 -1.64 10.67 0.25 -0.42 0.12 7403
0.03 0.89 0.43 -1.85 9.97 0.15 -0.32 0.09 7409
0.03 0.93 0.67 -1.09 9.96 0.12 -0.28 0.14 7415
0.06 0.94 0.10 -1.05 10.18 0.06 -0.20 0.16 7421
0.06 0.93 0.09 -0.93 10.02 0.03 -0.14 0.13 7428
0.06 0.93 0.40 -1.05 9.94 0.03 -0.11 0.13 7435
0.07 0.94 0.37 -1.03 9.99 0.02 -0.10 0.12 7441
0.08 0.89 0.36 -0.96 9.84 0.02 -0.10 0.10 7447
0.08 0.88 0.32 -1.05 9.98 0.03 -0.09 0.11 7453
0.07 0.86 0.28 -1.02 9.97 0.02 -0.09 0.11 7459
0.10 0.84 0.25 -1.03 9.97 0.02 -0.08 0.10 7465
0.11 0.81 0.26 -1.03 10.03 0.02 -0.07 0.10 7472
0.10 0.78 0.29 -0.98 9.98 0.03 -0.07 0.10 7479
0.11 0.78 0.34 -0.96 9.95 0.03 -0.07 0.10 7485
0.13 0.75 0.32 -1.05 9.97 0.03 -0.06 0.10 7491
0.13 0.73 0.31 -1.03 9.96 0.03 -0.07 0.09 7497
0.14 0.74 0.31 -1.04 9.91 0.03 -0.07 0.09 7503
0.14 0.67 0.39 -1.05 9.98 0.03 -0.07 0.09 7510
0.13 0.63 0.28 -0.92 9.88 0.03 -0.07 0.09 7516
0.15 0.58 0.26 -1.01 10.02 0.03 -0.07 0.08 7523
0.15 0.55 0.38 -1.04 10.04 0.02 -0.07 0.08 7529
0.13 0.50 0.34 -1.03 9.96 0.03 -0.08 0.08 7535
0.15 0.48 0.33 -1.06 10.04 0.03 -0.08 0.07 7541
0.15 0.48 0.33 -1.05 9.91 0.03 -0.08 0.08 7547
0.17 0.44 0.30 -1.02 9.98 0.03 -0.08 0.07 7554
0.17 0.38 0.34 -1.04 9.99 0.03 -0.08 0.07 7561
0.21 0.39 0.30 -1.07 9.96 0.03 -0.07 0.07 7567
0.23 0.36 0.29 -1.07 9.94 0.04 -0.07 0.08 7573
0.25 0.29 0.26 -1.06 9.97 0.03 -0.06 0.08 7579
0.24 0.26 0.24 -1.07 9.99 0.04 -0.05 0.08 7585
0.26 0.23 0.29 -1.07 9.95 0.04 -0.04 0.09 7591
0.26 0.18 0.26 -1.06 9.91 0.04 -0.03 0.08 7598
0.28 0.15 0.29 -1.10 9.97 0.04 -0.02 0.08 7605
0.27 0.14 0.31 -1.08 9.93 0.04 -0.02 0.09 7611
0.29 0.12 0.34 -1.06 9.98 0.05 -0.02 0.08 7617
0.28 0.08 0.36 -1.10 9.97 0.04 -0.03 0.08 7623
0.30 0.08 0.40 -1.11 9.89 0.04 -0.03 0.08 7629
0.33 0.08 0.38 -1.07 9.91 0.04 -0.04 0.08 7635
0.34 0.06 0.34 -1.12 9.92 0.04 -0.04 0.08 7642
0.36 0.04 0.44 -1.12 9.95 0.04 -0.04 0.08 7649
0.39 0.03 0.36 -1.17 9.88 0.04 -0.05 0.07 7655
0.41 0.02 0.31 -1.14 9.91 0.03 -0.05 0.07 7661
0.40 0.01 0.30 -1.14 9.92 0.04 -0.05 0.06 7667
0.41 0.01 0.30 -1.11 9.95 0.04 -0.05 0.07 7673
0.45 0.00 0.33 -1.13 9.89 0.04 -0.05 0.07 7680
0.47 -0.01 0.28 -1.13 9.91 0.04 -0.05 0.06 7686
0.47 -0.02 0.26 -1.12 9.90 0.04 -0.05 0.07 7693
0.48 -0.01 0.37 -1.10 9.94 0.04 -0.05 0.07 7699
0.50 -0.02 0.26 -1.20 9.84 0.04 -0.05 0.06 7705
0.50 -0.03 0.34 -1.19 9.93 0.04 -0.06 0.06 7711
0.50 -0.02 0.29 -1.15 9.94 0.04 -0.05 0.06 7717
0.54 -0.02 0.40 -1.24 10.01 0.05 -0.06 0.06 7724
0.55 -0.02 0.31 -1.16 9.95 0.05 -0.06 0.05 7730
0.58 -0.04 0.37 -1.14 9.97 0.05 -0.06 0.05 7737
0.61 -0.02 0.35 -1.14 9.90 0.06 -0.06 0.04 7743
0.63 -0.03 0.37 -1.17 9.96 0.06 -0.07 0.04 7749
0.64 -0.05 0.27 -1.28 9.34 0.06 -0.07 0.04 7755
0.64 -0.04 0.35 -1.15 9.96 0.07 -0.08 0.04 7761
0.68 -0.03 0.34 -1.09 9.92 0.08 -0.09 0.03 7768
0.70 -0.04 0.17 -1.47 9.85 0.08 -0.09 0.02 7774
0.72 -0.04 0.21 -1.27 9.96 0.09 -0.10 0.03 7781
0.76 -0.02 0.32 -1.21 10.04 0.10 -0.10 0.03 7787
0.81 -0.05 0.25 -1.18 9.92 0.11 -0.10 0.02 7793
0.84 -0.04 0.40 -1.09 10.12 0.12 -0.10 0.02 7799
0.85 -0.03 0.34 -1.51 10.04 0.12 -0.10 0.02 7805
0.90 -0.05 0.19 -1.32 10.05 0.14 -0.11 0.02 7813
0.93 -0.05 0.30 -1.31 10.11 0.17 -0.11 0.02 7819
0.96 -0.03 0.30 -1.34 10.19 0.19 -0.12 0.02 7825
0.98 -0.04 0.29 -1.38 10.17 0.23 -0.13 0.00 7831
1.01 -0.05 0.34 -1.45 10.19 0.27 -0.14 0.00 7837
1.02 -0.05 0.34 -1.45 10.27 0.31 -0.14 -0.01 7844
1.07 -0.05 0.34 -1.56 10.44 0.38 -0.16 -0.01 7851
1.12 -0.04 0.36 -1.46 10.72 0.47 -0.17 -0.01 7857
1.17 -0.05 0.41 -1.57 11.10 0.59 -0.18 -0.01 7863
1.22 -0.05 0.26 -1.53 11.13 0.71 -0.20 -0.00 7869
1.25 -0.06 0.20 -1.49 11.54 0.86 -0.21 -0.01 7876
1.29 -0.07 0.17 -1.59 11.34 0.98 -0.22 -0.01 7882
1.31 -0.06 0.15 -1.81 11.21 1.08 -0.22 -0.00 7888
1.35 -0.05 0.13 -1.82 11.51 1.19 -0.17 -0.01 7895
1.37 -0.06 0.13 -2.03 11.90 1.27 -0.11 0.00 7901
1.38 -0.07 0.08 -1.85 11.48 1.39 -0.08 0.00 7908
1.39 -0.05 0.14 -2.17 11.55 1.48 -0.07 -0.00 7914
1.38 -0.06 0.16 -2.24 11.66 1.58 -0.04 -0.01 7920
1.40 -0.06 0.17 -2.43 11.68 1.71 -0.02 -0.02 7926
1.40 -0.05 0.32 -2.56 11.32 1.81 0.00 -0.04 7933
1.38 -0.06 0.44 -2.64 11.64 1.89 0.02 -0.05 7940
1.34 -0.05 0.14 -2.50 12.05 1.97 0.04 -0.06 7946
1.32 -0.06 0.24 -3.01 12.33 2.08 0.06 -0.07 7952
1.26 -0.07 0.25 -3.11 12.46 2.22 0.11 -0.08 7958
1.22 -0.03 0.57 -3.29 13.16 2.41 0.06 -0.10 7965
1.14 -0.05 0.87 -3.57 13.48 2.60 0.01 -0.15 7971
1.00 -0.05 1.26 -3.31 13.04 2.81 -0.02 -0.21 7977
0.96 -0.04 1.80 -3.48 13.40 3.05 -0.04 -0.27 7984
0.91 -0.04 0.77 -3.66 14.81 3.35 -0.04 -0.31 7990
0.76 -0.04 1.19 -4.05 14.61 3.72 -0.06 -0.36 7997
0.72 -0.04 1.36 -4.77 15.80 4.06 -0.10 -0.44 8003
0.68 -0.04 1.46 -5.43 17.55 4.24 -0.16 -0.49 8009
0.66 -0.03 1.65 -6.52 19.61 4.28 -0.22 -0.53 8015
0.63 -0.03 1.64 -7.11 20.00 4.28 -0.18 -0.57 8023
0.57 -0.03 1.82 -9.13 22.82 4.28 -0.14 -0.59 8029
0.50 -0.02 0.91 -10.12 24.85 4.28 -0.09 -0.56 8035
0.42 -0.03 0.27 -10.12 24.64 4.28 -0.13 -0.54 8041
0.34 -0.02 1.53 -9.35 23.88 4.28 -0.16 -0.51 8048
0.33 -0.02 2.74 -8.54 25.08 4.28 -0.04 -0.50 8054
0.29 -0.02 0.78 -7.80 24.10 4.28 -0.01 -0.55 8060
0.22 -0.01 0.39 -6.02 22.83 4.28 -0.21 -0.60 8067
0.18 -0.01 1.51 -3.81 21.58 4.28 -0.43 -0.62 8074
0.14 -0.01 2.61 -2.16 20.27 4.28 -0.56 -0.64 8080
0.14 -0.01 3.77 0.27 19.73 4.28 -0.64 -0.66 8086
0.17 -0.02 4.80 2.31 19.30 4.28 -0.65 -0.70 8092
0.11 -0.01 5.30 4.47 20.25 4.28 -0.66 -0.80 8098
0.10 -0.01 5.06 5.55 18.73 4.28 -0.60 -0.98 8104
0.09 -0.01 4.04 5.66 16.25 4.28 -0.51 -1.21 8112
0.07 -0.01 5.87 11.83 10.53 4.28 -0.14 -1.67 8118
0.07 -0.01 7.67 11.80 8.53 4.28 -0.06 -2.28 8124
0.08 -0.01 7.02 17.60 5.13 3.54 0.32 -2.63 8130
0.08 -0.01 5.96 20.21 22.16 1.36 0.95 -2.79 8136
0.09 -0.01 5.88 13.36 26.17 -0.46 1.71 -2.67 8143
0.09 -0.01 3.08 12.17 22.74 -1.86 1.68 -2.48 8150
0.07 -0.01 -0.72 12.61 17.04 -2.88 1.24 -2.11 8156
0.10 -0.01 -1.64 10.75 12.93 -3.55 0.71 -1.64 8162
0.08 -0.01 0.31 7.29 10.07 -3.91 0.15 -1.38 8168
0.09 -0.01 1.90 4.90 8.28 -4.03 -0.34 -1.19 8174
0.09 -0.01 2.49 3.72 6.59 -4.00 -0.58 -1.06 8181
0.08 -0.01 3.13 2.95 5.22 -3.90 -0.57 -0.92 8187
0.07 -0.01 3.89 2.63 4.45 -3.80 -0.42 -0.78 8194
0.07 -0.01 4.37 2.41 4.16 -3.68 -0.20 -0.68 8200
0.09 -0.01 4.41 2.30 4.58 -3.58 0.05 -0.59 8206
0.08 -0.01 4.12 2.34 5.24 -3.49 0.34 -0.52 8212
0.08 -0.01 3.88 2.60 6.02 -3.45 0.57 -0.45 8218
0.07 -0.01 3.47 2.79 7.04 -3.45 0.73 -0.38 8224
0.08 -0.01 3.10 2.82 8.13 -3.48 0.86 -0.31 8230
0.07 -0.01 2.87 2.78 9.14 -3.56 0.99 -0.23 8238
0.05 -0.01 2.61 2.40 10.03 -3.69 1.13 -0.16 8244
0.07 0.00 2.41 1.80 10.87 -3.85 1.21 -0.10 8250
0.06 -0.01 2.08 0.63 11.56 -4.03 1.30 -0.07 8256
0.06 -0.01 1.86 0.42 11.98 -4.16 1.36 -0.03 8262
0.07 -0.01 1.63 -0.45 12.48 -4.24 1.40 0.00 8268
0.07 -0.01 1.59 -1.20 13.00 -4.27 1.45 0.03 8275
0.07 -0.01 1.54 -1.85 13.18 -4.28 1.50 0.07 8282
0.06 -0.01 1.43 -2.67 13.37 -4.28 1.58 0.10 8288
0.07 -0.01 1.39 -3.53 13.66 -4.28 1.66 0.12 8294
0.07 -0.01 1.23 -4.54 14.09 -4.28 1.75 0.13 8300
0.07 -0.01 1.02 -5.49 14.63 -4.27 1.85 0.13 8306
0.07 -0.01 0.68 -6.14 14.96 -4.25 1.93 0.15 8313
0.07 -0.01 0.40 -6.66 15.61 -4.21 1.96 0.20 8320
0.06 -0.01 0.11 -7.12 15.98 -4.14 1.97 0.20 8326
0.07 -0.00 -0.05 -7.53 16.22 -4.08 1.97 0.25 8332
0.07 -0.01 -0.12 -7.71 16.49 -3.99 1.96 0.33 8338
0.06 -0.01 -0.24 -7.97 16.64 -3.87 1.93 0.42 8344
0.07 -0.00 -0.33 -8.13 16.78 -3.72 1.88 0.52 8351
0.07 -0.01 -0.29 -8.29 16.99 -3.55 1.87 0.63 8357
0.06 -0.01 -0.44 -8.32 17.41 -3.41 1.87 0.73 8364
0.07 -0.00 -0.68 -8.36 18.07 -3.26 1.86 0.82 8370
0.08 -0.01 -1.06 -8.36 18.89 -3.13 1.85 0.90 8376
0.07 -0.01 -1.46 -8.44 19.63 -3.05 1.82 0.96 8382
0.07 -0.00 -1.96 -8.69 20.36 -3.02 1.75 1.03 8389
0.07 -0.01 -2.22 -9.06 20.74 -3.04 1.64 1.03 8395
0.07 -0.01 -2.33 -9.51 20.80 -3.08 1.51 1.05 8401
0.08 -0.00 -2.21 -10.06 20.23 -3.13 1.36 1.06 8408
0.07 -0.01 -1.88 -10.77 19.33 -3.13 1.21 1.06 8415
0.06 -0.01 -1.47 -11.47 18.37 -3.10 1.09 1.06 8421
0.09 -0.01 -0.98 -12.15 17.33 -3.01 0.99 1.06 8427
0.08 -0.01 -0.69 -12.74 16.47 -2.87 0.91 1.06 8433
0.07 -0.01 -0.41 -13.37 15.77 -2.70 0.86 1.07 8439
0.08 -0.01 -0.24 -14.01 15.17 -2.51 0.82 1.07 8446
0.07 -0.01 -0.06 -14.65 14.62 -2.34 0.79 1.08 8453
0.08 -0.01 0.23 -15.37 14.16 -2.24 0.79 1.08 8459
0.08 -0.01 0.47 -16.19 13.84 -2.14 0.82 1.09 8465
0.08 -0.01 0.71 -16.93 13.15 -2.08 0.90 1.09 8471
0.08 -0.00 0.88 -17.69 12.02 -2.04 1.03 1.08 8478
0.08 -0.01 0.80 -18.49 10.63 -2.00 1.18 1.07 8484
0.06 -0.01 0.36 -19.02 9.05 -1.90 1.32 1.07 8491
0.07 -0.00 -0.95 -18.76 6.73 -1.74 1.51 1.09 8497
0.07 -0.01 -3.42 -18.21 5.14 -1.50 1.81 1.21 8503
0.06 -0.01 -7.29 -18.39 5.03 -1.19 2.17 1.48 8510
0.07 -0.01 -11.12 -19.80 6.28 -0.92 2.15 1.72 8516
0.08 -0.01 -13.34 -20.77 7.21 -0.75 1.36 1.78 8522
0.07 -0.01 -12.69 -21.17 6.74 -0.62 0.15 1.66 8528
0.09 -0.01 -9.53 -21.26 5.55 -0.44 -0.85 1.45 8535
0.08 -0.01 -5.95 -21.08 4.00 -0.18 -1.24 1.21 8542
0.07 -0.01 -4.51 -27.60 4.15 0.22 -1.27 0.94 8548
0.08 -0.01 -5.79 -31.82 13.88 1.49 -1.33 0.71 8554
0.06 -0.01 -5.82 -21.49 -3.68 2.19 -1.51 0.48 8560
0.05 -0.01 -7.46 -18.40 2.81 2.52 -2.20 0.37 8566
0.06 0.01 -2.29 -7.72 7.45 2.78 -2.63 0.34 8573
0.05 0.04 -0.35 1.24 11.92 2.72 -2.55 0.44 8580
0.04 0.15 3.14 4.22 16.83 2.64 -1.86 0.71 8586
0.05 0.27 3.84 5.63 15.61 2.47 -0.91 1.06 8592
0.04 0.33 0.63 2.13 12.56 2.43 -0.16 1.21 8598
0.04 0.39 -2.85 -1.25 12.16 2.78 0.10 1.22 8605
0.05 0.43 -4.57 -3.23 14.94 3.22 0.20 1.08 8611
0.03 0.52 -6.54 -4.38 17.72 3.51 0.15 0.81 8617
0.04 0.59 -7.97 -4.15 21.34 3.58 0.02 0.33 8624
0.04 0.64 -4.87 -2.87 21.46 3.45 -0.01 -0.23 8631
0.03 0.69 0.53 -2.49 18.82 3.11 -0.04 -0.53 8637
0.06 0.74 3.49 -2.64 18.48 2.75 -0.18 -0.52 8643
0.06 0.80 3.31 -2.70 17.87 2.20 -0.79 -0.39 8649
0.06 0.80 4.93 -2.62 15.15 1.38 -1.21 -0.13 8655
0.05 0.84 1.87 -2.49 12.67 0.95 -0.98 0.25 8663
0.04 0.86 -0.54 -1.29 11.81 0.73 -0.88 0.30 8669
0.05 0.85 -1.65 -0.80 11.29 0.46 -0.64 0.18 8675
0.06 0.85 -0.38 -1.38 10.43 0.18 -0.37 0.09 8681
0.05 0.86 0.61 -1.88 10.11 0.16 -0.31 0.09 8688
0.08 0.89 0.67 -1.17 9.92 0.13 -0.29 0.14 8694
0.07 0.89 0.25 -1.05 10.06 0.10 -0.26 0.14 8700
0.06 0.90 0.20 -1.01 10.08 0.04 -0.19 0.12 8707
0.08 0.92 0.41 -1.04 9.99 0.02 -0.14 0.13 8713
0.07 0.95 0.31 -1.00 9.93 0.01 -0.12 0.12 8719
0.06 0.94 0.29 -0.91 10.00 0.01 -0.10 0.12 8726
0.07 0.97 0.37 -0.94 10.00 0.01 -0.09 0.11 8732
0.07 0.95 0.38 -0.97 9.91 0.02 -0.08 0.11 8738
0.08 0.94 0.33 -0.99 9.95 0.02 -0.08 0.11 8744
0.08 0.93 0.32 -0.97 9.94 0.02 -0.08 0.11 8751
0.09 0.93 0.29 -0.98 9.92 0.02 -0.08 0.10 8757
0.08 0.88 0.24 -0.92 9.95 0.02 -0.07 0.10 8763
0.06 0.86 0.33 -1.00 10.04 0.03 -0.06 0.10 8770
0.09 0.83 0.38 -0.98 10.00 0.03 -0.06 0.10 8776
0.10 0.81 0.39 -1.02 9.90 0.03 -0.06 0.09 8782
0.09 0.79 0.31 -0.99 9.92 0.03 -0.06 0.10 8788
0.11 0.77 0.37 -1.06 9.94 0.04 -0.05 0.10 8795
0.12 0.71 0.34 -1.02 9.94 0.04 -0.05 0.10 8801
0.12 0.64 0.36 -1.04 9.98 0.04 -0.05 0.10 8808
0.13 0.62 0.40 -0.98 10.03 0.04 -0.04 0.10 8814
0.15 0.59 0.36 -0.99 10.00 0.05 -0.04 0.09 8820
0.16 0.54 0.40 -1.01 10.03 0.05 -0.04 0.10 8826
0.17 0.48 0.42 -1.03 9.92 0.05 -0.04 0.09 8833
0.18 0.44 0.44 -1.02 9.99 0.06 -0.04 0.09 8839
0.18 0.38 0.40 -1.08 9.99 0.06 -0.04 0.08 8845
0.18 0.33 0.36 -1.08 9.96 0.06 -0.04 0.08 8852
0.19 0.33 0.38 -1.06 10.03 0.05 -0.04 0.08 8858
0.22 0.32 0.35 -1.10 9.98 0.06 -0.03 0.08 8864
0.21 0.25 0.34 -1.08 9.96 0.06 -0.03 0.08 8870
0.24 0.22 0.35 -1.03 9.93 0.06 -0.02 0.09 8877
0.25 0.18 0.34 -1.09 9.99 0.06 -0.01 0.09 8883
0.26 0.12 0.35 -1.10 9.93 0.06 -0.01 0.09 8890
0.27 0.11 0.32 -1.10 9.97 0.06 -0.01 0.09 8896
0.29 0.10 0.40 -1.10 9.92 0.05 -0.00 0.09 8902
0.27 0.09 0.43 -1.09 9.93 0.05 -0.00 0.09 8908
0.28 0.06 0.41 -1.11 9.92 0.05 -0.00 0.09 8914
0.33 0.06 0.40 -1.14 9.97 0.04 -0.01 0.09 8921
0.35 0.05 0.40 -1.14 9.92 0.04 -0.01 0.08 8927
0.34 0.02 0.43 -1.12 9.90 0.04 -0.01 0.08 8933
0.36 0.05 0.46 -1.14 9.98 0.04 -0.02 0.07 8940
0.38 0.02 0.41 -1.17 9.98 0.04 -0.02 0.07 8946
0.39 -0.01 0.43 -1.18 9.96 0.05 -0.02 0.07 8952
0.39 -0.03 0.39 -1.15 9.94 0.05 -0.03 0.07 8958
0.42 -0.01 0.40 -1.14 9.93 0.05 -0.03 0.07 8965
0.44 -0.02 0.39 -1.15 10.03 0.05 -0.04 0.06 8971
0.44 -0.02 0.55 -1.19 10.00 0.06 -0.04 0.07 8978
0.47 0.01 0.78 -0.95 10.06 0.06 -0.04 0.07 8984
0.49 -0.03 0.34 -1.17 10.02 0.07 -0.00 0.06 8990
0.50 -0.04 0.36 -1.02 10.06 0.07 -0.03 0.05 8996
0.51 -0.03 0.41 -1.14 9.91 0.08 -0.03 0.06 9003
0.53 -0.02 0.33 -1.36 9.84 0.08 -0.02 0.05 9009
0.52 -0.04 0.36 -1.19 9.94 0.09 -0.03 0.05 9016
0.55 -0.04 0.45 -1.08 9.95 0.10 -0.02 0.04 9022
0.58 -0.03 0.37 -1.30 9.90 0.10 -0.02 0.05 9028
0.58 -0.03 0.42 -1.15 9.98 0.11 -0.01 0.05 9034
0.59 -0.04 0.31 -1.61 10.03 0.12 -0.00 0.04 9040
0.62 -0.03 0.44 -1.33 10.01 0.14 -0.01 0.04 9047
0.62 -0.04 0.48 -1.27 10.01 0.16 -0.01 0.04 9054
0.65 -0.04 0.41 -0.94 10.14 0.17 -0.00 0.03 9060
0.67 -0.03 0.40 -1.28 10.18 0.19 0.00 0.03 9066
0.70 -0.04 0.38 -1.35 10.05 0.21 0.01 0.03 9072
0.70 -0.04 0.40 -1.24 10.02 0.24 0.01 0.02 9078
0.71 -0.03 0.42 -1.70 10.04 0.27 0.01 0.03 9085
0.73 -0.04 0.15 0.05 10.07 0.31 -0.00 0.03 9092
0.73 -0.04 0.37 -1.35 10.24 0.37 -0.00 0.03 9098
0.75 -0.04 0.47 -1.31 10.44 0.43 -0.01 0.04 9104
0.76 -0.03 0.46 -1.43 10.62 0.48 -0.01 0.03 9110
0.76 -0.04 0.78 -1.48 10.56 0.57 -0.01 0.03 9116
0.80 -0.03 0.55 -1.82 10.22 0.59 0.00 0.02 9123
0.84 -0.04 0.42 -1.86 10.39 0.63 0.03 0.02 9129
0.86 -0.04 0.47 -1.79 10.76 0.69 0.04 0.03 9136
0.89 -0.04 0.45 -1.82 10.96 0.74 0.05 0.03 9142
0.90 -0.05 0.49 -1.69 11.05 0.82 0.05 0.03 9148
0.94 -0.05 0.66 -1.88 11.29 0.90 0.04 0.02 9155
0.98 -0.03 0.26 -1.86 11.35 1.01 0.04 0.02 9161
0.98 -0.04 0.58 -2.01 11.56 1.12 0.03 0.02 9167
1.01 -0.03 0.51 -2.26 11.38 1.24 0.02 0.02 9174
1.04 -0.05 0.63 -2.31 11.46 1.37 0.02 0.01 9180
1.06 -0.04 0.46 -2.19 11.43 1.50 0.02 -0.00 9187
1.03 -0.04 0.85 -2.45 11.49 1.61 -0.01 -0.02 9193
1.08 -0.04 0.84 -2.68 11.63 1.71 0.00 -0.04 9199
1.05 -0.05 0.91 -2.70 11.41 1.81 -0.00 -0.06 9205
1.06 -0.04 0.85 -2.65 11.43 1.91 -0.00 -0.08 9211
1.12 -0.05 0.71 -3.06 11.88 1.98 0.04 -0.10 9219
1.10 -0.06 1.06 -3.04 11.87 2.10 0.06 -0.11 9225
1.06 -0.04 0.96 -3.17 11.97 2.24 0.09 -0.14 9231
1.02 -0.05 0.14 -3.20 12.74 2.41 0.11 -0.16 9237
0.91 -0.04 1.21 -3.48 13.08 2.60 0.11 -0.16 9244
0.91 -0.04 1.11 -3.09 13.35 2.84 0.11 -0.18 9250
0.86 -0.04 1.38 -3.30 14.57 3.13 0.13 -0.21 9256
0.76 -0.03 1.65 -4.00 14.49 3.49 0.13 -0.27 9263
0.72 -0.03 2.64 -4.43 15.15 3.86 0.11 -0.36 9269
0.67 -0.05 1.89 -4.86 15.94 4.18 0.08 -0.42 9276
0.62 -0.02 1.64 -5.89 18.38 4.28 0.08 -0.48 9282
0.57 -0.03 2.04 -7.48 20.83 4.28 0.06 -0.49 9288
0.53 -0.03 2.47 -8.69 23.02 4.28 0.04 -0.52 9294
0.49 -0.02 1.87 -9.85 24.27 4.28 0.13 -0.49 9302
0.47 -0.03 1.35 -10.82 24.10 4.28 0.21 -0.45 9308
0.39 -0.02 0.27 -10.84 25.71 4.28 0.19 -0.40 9314
0.31 -0.02 0.79 -10.22 26.38 4.28 0.09 -0.34 9320
0.29 -0.02 0.76 -8.97 25.74 4.28 0.07 -0.32 9327
0.25 -0.02 1.04 -8.07 25.37 4.28 0.02 -0.33 9333
0.21 -0.02 2.00 -5.96 23.83 4.28 -0.11 -0.35 9339
0.15 -0.01 2.30 -3.30 22.58 4.28 -0.24 -0.37 9346
0.15 -0.01 2.69 -0.73 21.34 4.28 -0.37 -0.40 9352
0.14 -0.01 3.48 2.26 20.06 4.28 -0.49 -0.44 9359
0.11 -0.01 4.09 4.56 21.34 4.28 -0.62 -0.51 9365
0.11 -0.01 4.81 5.61 20.25 4.28 -0.68 -0.65 9371
0.09 -0.01 3.68 4.59 19.39 4.28 -0.66 -0.88 9377
0.07 -0.01 2.84 5.02 15.47 4.28 -0.56 -1.19 9383
0.07 -0.01 6.53 11.71 13.36 4.28 -0.15 -1.78 9390
0.07 -0.01 6.69 12.39 9.55 4.28 -0.10 -2.17 9397
0.06 -0.01 5.49 20.87 5.37 3.07 0.14 -2.51 9403
0.07 -0.01 5.25 20.20 22.71 0.96 0.83 -2.72 9409
0.07 -0.01 5.55 13.23 24.77 -0.79 1.41 -2.62 9415
0.07 -0.01 2.39 12.82 21.12 -2.11 1.40 -2.54 9421
0.07 -0.01 0.43 13.46 16.41 -3.14 1.09 -2.39 9428
0.07 -0.01 -1.10 11.21 13.25 -3.84 0.72 -2.04 9435
0.06 -0.01 -0.18 7.77 11.44 -4.12 0.46 -1.64 9441
0.08 -0.01 1.31 4.95 9.01 -4.23 0.11 -1.38 9447
0.06 -0.01 1.81 3.77 6.87 -4.26 -0.17 -1.25 9453
0.05 -0.01 1.68 3.08 5.65 -4.25 -0.40 -1.11 9459
0.08 0.00 2.13 2.36 5.26 -4.23 -0.52 -1.01 9466
0.09 -0.01 2.93 1.74 5.07 -4.19 -0.54 -0.87 9473
0.08 -0.01 3.51 1.65 5.40 -4.13 -0.48 -0.76 9479
0.08 -0.01 3.79 1.83 6.06 -4.09 -0.35 -0.67 9485
0.09 -0.01 3.97 2.02 6.98 -4.07 -0.19 -0.60 9491
0.08 -0.01 4.33 1.84 7.93 -4.08 -0.05 -0.55 9497
0.07 -0.01 4.57 1.65 8.86 -4.13 0.16 -0.53 9503
0.07 -0.01 4.40 1.29 9.55 -4.19 0.42 -0.51 9509
0.07 -0.01 4.09 0.60 10.08 -4.23 0.67 -0.49 9516
0.07 -0.01 3.71 -0.25 10.73 -4.26 0.87 -0.45 9523
0.06 -0.01 3.20 -1.07 11.24 -4.28 1.01 -0.41 9529
0.07 -0.00 2.70 -1.79 11.77 -4.28 1.08 -0.37 9535
0.06 -0.01 2.48 -2.45 12.31 -4.28 1.11 -0.31 9541
0.05 -0.01 2.38 -2.91 12.61 -4.28 1.17 -0.25 9547
0.06 -0.01 2.38 -3.52 12.79 -4.28 1.19 -0.18 9554
0.05 -0.00 2.55 -4.81 13.17 -4.28 1.26 -0.13 9561
0.04 -0.00 2.53 -5.10 13.61 -4.28 1.36 -0.10 9567
0.05 0.00 2.54 -5.88 13.88 -4.28 1.50 -0.07 9573
0.05 -0.01 2.35 -6.46 14.20 -4.25 1.64 -0.05 9579
0.04 -0.00 1.87 -6.91 14.49 -4.20 1.77 -0.03 9585
0.05 -0.01 1.46 -7.16 14.83 -4.13 1.87 0.01 9592
0.05 -0.01 0.98 -7.17 15.22 -4.05 1.90 0.07 9598
0.05 -0.01 0.65 -7.36 15.51 -3.97 1.91 0.16 9605
0.05 -0.01 0.24 -7.59 15.85 -3.84 1.88 0.26 9611
0.06 -0.01 0.04 -7.82 15.96 -3.70 1.84 0.36 9617
0.05 -0.00 -0.16 -8.05 16.22 -3.55 1.79 0.46 9623
0.05 -0.00 -0.24 -8.11 16.38 -3.39 1.75 0.54 9630
0.06 -0.01 -0.40 -8.14 16.63 -3.24 1.71 0.61 9636
0.05 -0.00 -0.52 -8.06 17.01 -3.10 1.65 0.67 9643
0.04 -0.00 -0.63 -7.91 17.41 -3.00 1.58 0.72 9649
0.05 -0.01 -0.76 -7.76 17.83 -2.92 1.49 0.77 9655
0.05 -0.01 -0.73 -7.75 18.16 -2.88 1.39 0.79 9661
0.04 -0.00 -0.50 -7.83 18.43 -2.86 1.28 0.80 9668
0.05 0.00 -0.25 -8.04 18.59 -2.83 1.20 0.80 9674
0.05 -0.00 -0.01 -8.42 18.44 -2.81 1.15 0.80 9680
0.05 -0.00 0.15 -8.93 18.39 -2.76 1.13 0.80 9687
0.05 0.00 0.13 -9.29 18.41 -2.71 1.13 0.81 9693
0.05 -0.01 -0.09 -9.79 18.48 -2.65 1.12 0.84 9699
0.05 -0.00 -0.39 -10.30 18.60 -2.61 1.07 0.88 9706
0.06 -0.00 -0.63 -10.99 18.50 -2.57 0.97 0.93 9712
0.06 -0.01 -0.55 -11.66 18.20 -2.54 0.85 0.99 9718
0.05 -0.00 -0.26 -12.44 17.72 -2.52 0.76 1.05 9724
0.06 -0.01 0.06 -13.48 17.36 -2.52 0.72 1.10 9731
0.06 -0.01 0.73 -14.51 16.51 -2.54 0.75 1.14 9738
0.06 -0.01 1.25 -15.84 15.75 -2.57 0.88 1.16 9744
0.07 -0.01 1.58 -17.22 14.49 -2.60 1.05 1.16 9750
0.06 -0.01 1.53 -18.45 12.86 -2.60 1.26 1.16 9756
0.07 -0.01 1.03 -19.54 10.92 -2.53 1.48 1.15 9763
0.07 -0.01 -0.21 -19.46 8.03 -2.38 1.73 1.19 9769
0.06 -0.01 -2.83 -19.13 5.43 -2.14 2.16 1.36 9776
0.07 -0.00 -7.17 -19.70 4.76 -1.78 2.73 1.71 9782
0.07 -0.01 -11.85 -22.53 5.50 -1.40 2.87 2.04 9788
0.06 -0.01 -14.97 -24.21 5.94 -1.12 2.21 2.15 9795
0.07 -0.01 -15.67 -25.26 5.13 -0.89 0.90 2.08 9801
0.06 -0.01 -12.80 -25.67 4.19 -0.62 -0.35 1.89 9807
0.06 -0.01 -9.33 -25.19 2.82 -0.30 -1.02 1.65 9814
0.07 -0.01 -5.85 -24.21 2.57 0.05 -1.12 1.38 9820
0.07 -0.01 -2.95 -22.72 3.48 0.39 -0.90 0.97 9827
0.05 -0.01 -8.89 -40.81 21.19 1.23 -0.91 0.55 9833
0.06 -0.01 -7.64 -22.47 0.11 2.66 -1.20 0.41 9839
0.05 -0.00 -6.31 -6.07 -1.35 2.81 -1.86 0.15 9845
0.04 0.02 -2.86 -5.44 7.81 2.64 -2.55 -0.06 9851
0.05 0.13 2.38 3.53 14.02 2.59 -2.33 0.02 9859
0.04 0.21 4.42 5.29 15.12 2.41 -1.46 0.32 9865
0.04 0.31 3.22 4.32 12.74 2.40 -0.72 0.60 9871
0.05 0.41 1.05 -0.58 11.34 2.69 -0.33 0.80 9877
0.04 0.44 -0.25 -2.86 13.87 3.24 -0.11 0.88 9883
0.05 0.51 -2.15 -3.95 14.34 3.72 0.07 0.85 9890
0.06 0.62 -5.14 -4.43 21.42 3.98 0.12 0.66 9896
0.03 0.72 -5.58 -3.88 24.51 3.92 0.10 0.24 9903
0.04 0.83 -2.96 -2.71 20.52 3.69 0.06 -0.16 9909
0.04 0.88 -0.09 -2.58 17.54 3.32 -0.13 -0.31 9916
0.04 0.90 1.47 -2.54 19.24 3.12 -0.38 -0.38 9922
0.07 0.94 2.63 -2.72 18.79 2.52 -1.11 -0.38 9928
0.05 0.95 4.59 -2.98 14.88 1.52 -1.36 -0.11 9934
0.06 0.96 0.92 -2.54 12.72 1.00 -1.02 0.28 9940
0.07 0.95 -0.80 -1.54 11.73 0.73 -0.91 0.30 9948
0.05 0.94 -0.88 -1.26 11.65 0.38 -0.60 0.17 9954
0.05 0.96 0.08 -0.70 10.27 0.16 -0.31 0.11 9960
0.06 0.98 0.75 -4.35 10.82 0.14 -0.26 0.13 9966
0.06 0.99 0.34 -1.29 10.20 0.11 -0.20 0.19 9973
0.07 1.00 0.12 -1.09 10.18 0.06 -0.12 0.18 9979
0.07 1.01 0.36 -1.00 10.05 0.03 -0.07 0.16 9986
0.06 1.01 0.36 -1.04 10.12 0.02 -0.04 0.15 9992
0.08 1.01 0.36 -1.00 10.00 0.02 -0.03 0.14 9998
0.09 1.00 0.39 -0.96 9.88 0.02 -0.02 0.13 10004
0.08 0.97 0.44 -0.99 9.94 0.03 -0.01 0.13 10011
0.11 0.95 0.37 -0.99 10.00 0.03 0.01 0.12 10017
0.10 0.92 0.34 -0.97 9.94 0.03 0.03 0.13 10023
0.09 0.89 0.31 -0.93 9.90 0.03 0.07 0.12 10030
0.12 0.86 0.39 -0.91 9.95 0.05 0.10 0.13 10036
0.11 0.83 0.45 -0.93 9.95 0.06 0.12 0.14 10043
0.10 0.77 0.46 -0.95 9.95 0.07 0.13 0.13 10049
0.13 0.75 0.48 -0.99 9.97 0.07 0.14 0.13 10055
0.10 0.72 0.48 -1.00 9.96 0.08 0.14 0.13 10061
0.11 0.63 0.51 -1.01 9.95 0.08 0.14 0.14 10067
0.12 0.61 0.60 -1.02 9.99 0.08 0.13 0.13 10075
0.11 0.55 0.61 -1.04 9.98 0.09 0.13 0.13 10081
0.11 0.50 0.63 -1.06 9.91 0.08 0.12 0.12 10087
0.13 0.48 0.63 -1.06 9.97 0.08 0.12 0.12 10093
0.11 0.40 0.70 -1.09 9.95 0.08 0.11 0.12 10099
0.12 0.36 0.68 -1.09 9.91 0.08 0.10 0.11 10106
0.12 0.35 0.68 -1.10 9.93 0.07 0.09 0.11 10113
0.11 0.30 0.70 -1.12 9.93 0.07 0.08 0.07 10119
0.11 0.28 0.67 -1.12 9.92 0.06 0.07 0.10 10125
0.13 0.21 0.62 -1.13 9.96 0.06 0.07 0.09 10131
0.14 0.16 0.62 -1.08 10.00 0.06 0.07 0.09 10138
0.13 0.18 0.60 -1.13 9.96 0.05 0.07 0.09 10144
0.13 0.11 0.66 -1.14 9.96 0.05 0.07 0.10 10150
0.11 0.11 0.68 -1.15 9.89 0.05 0.06 0.10 10157
0.12 0.10 0.70 -1.13 9.98 0.05 0.07 0.09 10163
0.12 0.06 0.72 -1.14 9.95 0.05 0.07 0.09 10170
0.11 0.07 0.75 -1.13 9.90 0.05 0.07 0.09 10176
0.13 0.05 0.79 -1.14 9.86 0.04 0.06 0.09 10182
0.13 0.05 0.82 -1.16 9.87 0.04 0.06 0.10 10188
0.12 0.04 0.79 -1.14 9.86 0.04 0.05 0.08 10194
0.13 0.04 0.77 -1.11 9.83 0.03 0.04 0.08 10201
0.13 0.02 0.80 -1.19 9.89 0.03 0.03 0.07 10208
0.12 0.02 0.81 -1.19 9.91 0.03 0.03 0.07 10214
0.13 0.06 0.76 -1.17 9.87 0.03 0.02 0.07 10220
0.14 0.02 0.79 -1.22 9.89 0.02 0.02 0.07 10226
0.13 0.03 0.81 -1.19 9.93 0.02 0.01 0.06 10232
0.12 0.03 0.95 -1.27 9.88 0.02 0.00 0.05 10238
0.14 0.01 0.86 -1.34 10.04 0.02 -0.01 0.05 10246
0.14 -0.01 0.87 -1.21 9.93 0.02 -0.01 0.05 10252
0.15 0.02 0.81 -1.30 9.92 0.02 -0.02 0.04 10258
0.15 -0.01 0.94 -1.37 10.32 0.02 -0.06 0.05 10264
0.13 -0.01 0.76 -1.13 9.96 0.02 -0.02 0.05 10271
0.15 -0.01 0.78 -1.22 9.91 0.02 -0.04 0.04 10277
0.16 -0.00 0.81 -0.63 9.93 0.02 -0.05 0.03 10284
0.14 -0.01 0.85 -1.23 9.94 0.01 -0.06 0.03 10290
0.15 -0.00 0.79 -1.21 9.96 0.01 -0.07 0.03 10296
0.17 -0.02 0.86 -1.22 9.94 0.01 -0.08 0.03 10302
0.15 -0.02 0.88 -1.29 9.95 0.01 -0.12 0.02 10308
0.15 -0.00 0.87 -1.11 9.92 0.01 -0.14 0.01 10315
0.17 -0.01 0.88 -1.27 9.93 0.01 -0.17 0.01 10321
0.18 -0.02 0.84 -1.22 10.00 0.01 -0.20 -0.00 10328
0.21 -0.01 0.97 -0.55 9.91 0.01 -0.27 -0.02 10334
0.23 -0.02 0.76 -1.34 10.15 0.02 -0.30 -0.03 10340
0.23 -0.02 0.91 -1.49 10.15 0.03 -0.30 -0.04 10347
0.30 -0.02 0.73 -1.17 9.85 0.04 -0.32 -0.06 10353
0.35 -0.04 0.82 -0.94 9.92 0.05 -0.33 -0.08 10359
0.36 -0.03 0.79 -1.29 10.02 0.08 -0.34 -0.08 10365
0.41 -0.01 0.65 -1.66 10.06 0.09 -0.33 -0.09 10373
0.50 -0.02 0.55 -1.24 10.18 0.12 -0.32 -0.10 10379
0.57 -0.03 0.59 -1.36 10.06 0.15 -0.30 -0.09 10385
0.63 -0.03 0.60 -1.29 10.24 0.18 -0.27 -0.10 10391
0.67 -0.04 0.53 -1.31 10.39 0.23 -0.26 -0.10 10398
0.74 -0.04 0.65 -1.49 10.31 0.28 -0.26 -0.11 10404
0.82 -0.05 0.65 -1.59 9.93 0.35 -0.27 -0.13 10411
0.87 -0.04 0.62 -1.42 10.52 0.45 -0.28 -0.15 10417
0.93 -0.04 0.45 -1.50 10.99 0.56 -0.30 -0.14 10424
1.01 -0.05 0.17 -1.53 11.38 0.72 -0.35 -0.12 10430
1.08 -0.05 0.36 -1.57 11.43 0.92 -0.38 -0.09 10436
1.11 -0.06 0.30 -1.61 11.48 1.09 -0.40 -0.06 10442
1.11 -0.04 0.10 -1.58 11.57 1.21 -0.36 -0.05 10449
1.22 -0.06 0.31 -1.34 11.77 1.30 -0.33 -0.05 10456
1.19 -0.05 0.36 -2.25 11.74 1.41 -0.30 -0.04 10462
1.29 -0.05 0.12 -2.10 11.90 1.52 -0.24 -0.02 10468
1.29 -0.06 0.17 -2.07 11.80 1.64 -0.18 -0.02 10475
1.30 -0.04 0.23 -2.10 11.90 1.76 -0.14 -0.01 10481
1.30 -0.05 0.23 -2.24 11.61 1.91 -0.14 -0.02 10487
1.30 -0.05 0.20 -2.49 11.77 1.98 -0.09 -0.02 10493
1.30 -0.06 0.42 -2.32 11.47 2.07 -0.04 -0.03 10501
1.24 -0.06 0.28 -2.77 11.80 2.13 0.03 -0.04 10507
1.23 -0.04 0.55 -2.85 12.60 2.25 0.10 -0.04 10513
1.22 -0.05 0.33 -3.04 13.00 2.38 0.10 -0.05 10519
1.14 -0.04 0.54 -3.00 12.58 2.56 0.10 -0.07 10526
1.02 -0.05 1.06 -3.42 12.61 2.80 0.12 -0.11 10532
0.92 -0.04 1.42 -3.44 13.12 3.09 0.12 -0.16 10539
0.89 -0.04 0.71 -3.66 14.09 3.39 0.17 -0.21 10546
0.78 -0.04 1.18 -3.81 14.43 3.75 0.18 -0.25 10552
0.72 -0.04 0.01 -4.14 15.63 4.09 0.18 -0.32 10558
0.64 -0.03 1.31 -5.50 18.83 4.27 0.15 -0.34 10564
0.56 -0.03 0.67 -6.32 20.25 4.28 0.11 -0.36 10571
0.56 -0.03 0.70 -4.47 17.26 4.28 0.09 -0.39 10577
0.51 -0.04 0.56 -8.86 23.23 4.28 0.13 -0.33 10584
0.44 -0.01 0.44 -9.97 24.81 4.28 0.16 -0.28 10590
0.38 -0.02 -0.19 -10.38 25.41 4.28 0.14 -0.23 10597
0.34 -0.02 0.30 -9.68 25.69 4.28 0.01 -0.20 10603
0.34 -0.02 0.30 -8.63 25.52 4.28 -0.07 -0.20 10609
0.23 -0.02 0.34 -8.02 25.08 4.28 -0.21 -0.21 10615
0.22 -0.02 1.13 -6.59 23.74 4.28 -0.40 -0.22 10622
0.16 -0.02 1.91 -4.22 22.18 4.28 -0.58 -0.24 10629
0.14 -0.01 3.42 -1.15 20.61 4.28 -0.67 -0.24 10635
0.13 -0.01 4.71 1.12 19.38 4.28 -0.67 -0.27 10641
0.14 -0.01 5.74 2.79 18.92 4.28 -0.56 -0.33 10648
0.11 -0.01 5.90 4.61 19.27 4.28 -0.41 -0.45 10654
0.13 -0.01 5.19 4.96 19.82 4.28 -0.19 -0.64 10660
0.10 -0.01 3.56 5.24 18.19 4.28 0.03 -0.91 10667
0.08 -0.01 3.84 12.75 9.26 4.28 0.51 -1.42 10674
0.08 -0.01 6.69 13.19 11.80 4.28 0.50 -2.09 10680
0.08 -0.01 6.57 16.96 6.04 4.16 0.71 -2.52 10686
0.08 -0.01 4.38 22.14 18.69 1.80 1.22 -2.85 10692
0.07 -0.01 5.01 15.11 26.12 -0.17 1.89 -2.84 10699
0.08 -0.01 2.87 12.48 23.38 -1.70 1.78 -2.77 10705
0.07 -0.01 -0.55 13.39 18.80 -2.86 1.39 -2.63 10712
0.07 -0.01 -2.36 11.75 14.91 -3.69 0.90 -2.26 10718
0.07 -0.01 -0.69 8.53 13.06 -4.16 0.53 -1.79 10725
0.06 -0.01 0.72 5.56 10.35 -4.27 0.18 -1.49 10731
0.08 -0.01 1.76 4.14 7.80 -4.28 -0.22 -1.31 10737
0.06 -0.01 1.92 2.57 6.10 -4.28 -0.47 -1.16 10743
0.05 -0.00 2.47 2.04 5.98 -4.27 -0.55 -1.04 10749
0.06 -0.00 3.22 1.29 4.86 -4.22 -0.55 -0.90 10756
0.06 -0.01 3.79 1.01 4.72 -4.12 -0.49 -0.81 10763
0.04 -0.00 4.03 1.13 5.15 -4.00 -0.33 -0.72 10769
0.06 -0.01 4.24 1.52 6.41 -3.89 -0.16 -0.64 10775
0.07 -0.01 4.57 1.80 7.78 -3.86 0.03 -0.56 10781
0.06 -0.01 4.85 1.94 8.87 -3.90 0.26 -0.48 10787
0.06 -0.01 4.81 2.03 9.85 -4.01 0.52 -0.40 10793
0.08 -0.01 4.33 1.49 10.68 -4.12 0.74 -0.30 10801
0.07 -0.01 3.74 0.84 11.36 -4.20 0.92 -0.17 10807
0.06 -0.01 3.14 0.20 11.82 -4.25 1.01 -0.07 10813
0.07 -0.01 2.74 -0.53 12.03 -4.28 1.03 -0.01 10819
0.05 -0.00 2.59 -1.36 12.49 -4.28 1.03 0.08 10825
0.05 -0.00 2.54 -2.08 12.80 -4.28 1.04 0.16 10832
0.06 -0.01 2.53 -2.71 13.10 -4.28 1.09 0.22 10839
0.04 -0.00 2.72 -3.43 13.64 -4.28 1.20 0.26 10845
0.05 -0.01 2.73 -4.26 14.20 -4.28 1.35 0.28 10851
0.05 -0.01 2.35 -5.07 14.76 -4.28 1.53 0.28 10858
0.04 -0.00 1.71 -5.86 15.16 -4.28 1.69 0.27 10864
0.06 -0.01 1.12 -6.62 15.61 -4.27 1.80 0.25 10870
0.05 -0.01 0.56 -7.23 16.00 -4.26 1.84 0.25 10876
0.05 -0.00 0.01 -7.64 16.25 -4.22 1.83 0.26 10883
0.06 -0.01 -0.23 -7.79 16.49 -4.16 1.78 0.29 10890
0.05 -0.01 -0.19 -7.83 16.63 -4.09 1.72 0.34 10896
0.04 0.00 -0.11 -7.98 16.60 -3.99 1.70 0.40 10902
0.05 -0.01 -0.07 -8.16 16.65 -3.84 1.70 0.46 10908
0.04 -0.00 -0.09 -8.26 16.68 -3.66 1.71 0.52 10914
0.05 0.00 -0.14 -8.31 16.80 -3.48 1.69 0.56 10921
0.04 -0.00 -0.17 -8.39 17.07 -3.30 1.67 0.59 10928
0.04 -0.00 -0.17 -8.42 17.57 -3.14 1.62 0.62 10934
0.06 -0.01 -0.32 -8.46 18.04 -3.00 1.56 0.65 10940
0.05 -0.00 -0.52 -8.60 18.74 -2.91 1.50 0.68 10946
0.04 -0.00 -0.66 -8.72 19.43 -2.87 1.43 0.70 10953
0.07 -0.01 -0.65 -9.02 19.70 -2.89 1.39 0.73 10959
0.05 -0.00 -0.58 -9.42 19.63 -2.93 1.37 0.75 10966
0.05 -0.00 -0.57 -9.97 19.20 -2.96 1.36 0.76 10972
0.06 -0.01 -0.57 -10.78 18.78 -2.95 1.36 0.76 10979
0.05 -0.00 -0.51 -11.82 17.96 -2.88 1.34 0.76 10985
0.05 -0.01 -0.43 -13.04 17.05 -2.75 1.31 0.76 10991
0.05 -0.00 -0.42 -14.32 16.34 -2.60 1.24 0.76 10997
0.05 -0.01 -0.23 -15.50 15.65 -2.43 1.15 0.76 11004
0.05 -0.00 0.18 -16.53 14.99 -2.28 1.08 0.76 11011
0.04 -0.00 0.53 -17.36 14.51 -2.19 1.07 0.75 11017
0.05 -0.00 0.65 -18.12 13.80 -2.12 1.15 0.74 11023
0.05 -0.01 0.27 -17.94 12.07 -2.08 1.32 0.76 11030
0.06 -0.01 -0.89 -17.69 10.15 -2.03 1.64 0.87 11036
0.06 -0.01 -3.33 -18.45 8.65 -1.93 2.04 1.12 11042
0.06 -0.01 -6.74 -19.23 7.69 -1.75 2.24 1.45 11048
0.06 -0.00 -9.99 -20.71 7.43 -1.52 2.11 1.76 11056
0.06 -0.01 -11.72 -22.81 7.20 -1.30 1.49 1.97 11062
0.06 -0.01 -11.70 -24.07 6.51 -1.11 0.53 2.02 11068
0.07 -0.01 -9.52 -24.53 5.44 -0.92 -0.32 1.93 11074
0.06 -0.01 -7.01 -25.07 4.11 -0.71 -0.71 1.74 11081
0.06 -0.01 -5.93 -32.28 3.25 -0.40 -0.82 1.49 11087
0.05 -0.01 -7.77 -36.38 11.54 1.07 -0.93 1.17 11094
0.04 -0.00 -8.21 -27.10 -6.88 1.80 -0.98 0.81 11100
0.05 -0.01 -10.94 -29.73 0.91 2.18 -1.65 0.54 11106
0.05 -0.00 -8.09 -17.55 5.92 2.64 -2.45 0.39 11113
0.05 0.06 -3.16 -2.79 6.98 2.74 -2.64 0.29 11119
0.04 0.15 1.66 1.23 17.17 2.80 -2.29 0.42 11125
0.03 0.26 3.94 6.26 18.36 2.73 -1.37 0.74 11131
0.05 0.38 1.28 3.27 15.28 2.62 -0.59 0.94 11139
0.03 0.44 -1.69 -2.00 16.67 2.89 -0.23 1.01 11145
0.04 0.53 -4.78 -4.10 16.45 3.25 -0.04 0.91 11151
0.03 0.64 -6.69 -4.86 18.23 3.58 -0.09 0.63 11158
0.03 0.71 -6.16 -3.99 21.69 3.68 0.03 0.20 11164
0.04 0.76 -3.79 -2.50 20.58 3.58 0.25 -0.23 11170
0.03 0.83 -0.78 -2.46 18.96 3.06 0.14 -0.46 11176
0.02 0.87 2.21 -2.40 16.82 2.67 -0.04 -0.51 11184
0.03 0.87 3.76 -1.94 16.62 2.24 -0.61 -0.43 11190
0.03 0.88 4.56 -2.11 14.13 1.60 -1.15 -0.16 11196
0.05 0.87 2.61 -2.97 12.29 1.17 -1.11 0.21 11202
0.04 0.88 -0.39 -1.04 11.92 0.96 -1.07 0.27 11209
0.07 0.86 -1.45 -0.62 12.34 0.64 -0.86 0.16 11215
0.06 0.88 -0.29 -0.93 10.75 0.26 -0.48 0.10 11222
0.07 0.92 0.37 -0.70 10.20 0.14 -0.38 0.07 11228
0.06 0.93 0.78 -1.83 10.34 0.14 -0.32 0.14 11235
0.05 0.94 -0.01 -0.76 10.21 0.07 -0.23 0.16 11241
0.08 0.96 0.22 -1.06 10.07 0.05 -0.15 0.14 11247
0.07 0.93 0.42 -1.05 10.06 0.03 -0.11 0.13 11253
0.08 0.93 0.40 -1.10 10.01 0.03 -0.10 0.13 11260
0.09 0.91 0.27 -1.00 9.99 0.03 -0.09 0.12 11267
0.09 0.89 0.40 -1.04 10.04 0.03 -0.08 0.11 11273
0.11 0.89 0.28 -1.04 10.15 0.03 -0.07 0.11 11279
0.10 0.86 0.24 -1.02 10.00 0.04 -0.05 0.11 11286
0.11 0.83 0.30 -1.00 9.98 0.05 -0.02 0.11 11292
0.12 0.78 0.29 -1.02 9.98 0.06 -0.01 0.10 11298
0.11 0.70 0.34 -1.02 9.98 0.07 0.01 0.11 11304
0.13 0.68 0.37 -1.07 9.99 0.08 0.03 0.11 11311
0.14 0.67 0.37 -1.03 10.04 0.08 0.04 0.11 11318
0.15 0.59 0.33 -1.09 10.00 0.08 0.06 0.11 11324
0.16 0.58 0.40 -1.05 9.95 0.09 0.08 0.11 11330
0.16 0.49 0.45 -1.03 10.04 0.09 0.08 0.11 11336
0.15 0.43 0.48 -1.03 9.95 0.10 0.07 0.11 11342
0.17 0.37 0.52 -1.10 9.94 0.10 0.07 0.10 11350
0.19 0.32 0.52 -0.85 9.98 0.10 0.06 0.09 11356
0.20 0.29 0.53 -1.10 9.93 0.10 0.04 0.09 11362
0.23 0.21 0.56 -1.14 10.04 0.09 0.04 0.08 11368
0.22 0.15 0.52 -1.12 9.98 0.09 0.03 0.08 11374
0.21 0.10 0.48 -1.12 10.00 0.09 0.03 0.08 11381
0.24 0.09 0.47 -1.18 10.00 0.08 0.02 0.07 11387
0.25 0.07 0.48 -1.19 10.01 0.08 0.02 0.07 11394
0.27 0.02 0.50 -1.18 9.99 0.08 0.02 0.07 11400
0.29 0.01 0.47 -1.22 9.99 0.08 0.02 0.07 11406
0.30 -0.01 0.57 -1.21 9.98 0.07 0.01 0.08 11413
0.31 -0.00 0.50 -1.19 9.97 0.08 0.01 0.09 11419
0.32 -0.01 0.40 -1.27 9.95 0.07 0.01 0.09 11425
0.33 -0.02 0.48 -1.17 9.91 0.08 0.01 0.09 11431
0.31 -0.02 0.50 -1.32 9.94 0.08 0.00 0.10 11438
0.35 -0.02 0.54 -1.24 9.96 0.08 0.00 0.10 11444
0.35 -0.04 0.56 -1.25 9.93 0.09 0.01 0.09 11451
0.34 -0.03 0.59 -1.25 9.94 0.09 0.01 0.08 11457
0.37 -0.02 0.47 -1.27 9.97 0.10 0.02 0.08 11463
0.37 -0.02 0.61 -1.29 9.92 0.11 0.02 0.08 11469
0.37 -0.03 0.60 -1.24 9.92 0.12 0.02 0.08 11475
0.38 -0.02 0.60 -1.30 9.95 0.13 0.02 0.07 11483
0.38 -0.03 0.59 -1.29 9.98 0.14 0.01 0.06 11489
0.39 -0.03 0.60 -1.31 9.97 0.15 0.01 0.05 11495
0.41 -0.02 0.68 -1.37 9.99 0.17 0.00 0.03 11501
0.40 -0.02 0.62 -1.53 10.03 0.18 -0.03 0.03 11507
0.43 -0.03 0.72 -1.46 9.91 0.20 0.01 0.03 11514
0.47 -0.03 0.60 -1.23 9.91 0.21 0.01 0.01 11521
0.47 -0.03 0.77 -1.23 9.99 0.22 0.01 -0.00 11527
0.47 -0.03 0.66 -1.58 10.37 0.23 0.02 -0.00 11533
0.50 -0.03 0.60 -1.43 10.01 0.25 0.01 -0.00 11539
0.50 -0.04 0.74 -1.54 10.04 0.26 0.00 -0.01 11546
0.50 -0.02 0.66 -1.50 9.98 0.28 -0.01 -0.03 11552
0.51 -0.03 0.66 -1.51 9.96 0.29 -0.02 -0.04 11558
0.51 -0.03 0.55 -1.68 9.97 0.29 -0.03 -0.04 11565
0.52 -0.02 0.59 -1.94 10.07 0.30 -0.04 -0.05 11571
0.54 -0.03 0.51 -2.46 10.14 0.31 -0.05 -0.06 11578
0.51 -0.03 0.73 -1.07 10.21 0.34 -0.07 -0.06 11584
0.54 -0.02 0.27 -1.30 10.35 0.36 -0.10 -0.06 11590
0.55 -0.05 0.61 -1.45 10.16 0.37 -0.13 -0.05 11596
0.59 -0.02 0.65 -1.56 10.20 0.40 -0.16 -0.05 11603
0.65 -0.04 0.66 -1.71 10.26 0.42 -0.17 -0.05 11610
0.67 -0.03 0.58 -1.94 10.26 0.46 -0.19 -0.06 11616
0.71 -0.03 0.50 -2.17 10.19 0.49 -0.19 -0.07 11623
0.73 -0.04 0.61 -1.76 10.44 0.52 -0.21 -0.08 11629
0.75 -0.03 0.55 -1.94 10.34 0.56 -0.22 -0.08 11635
0.81 -0.04 0.66 -2.04 10.33 0.59 -0.22 -0.08 11641
0.83 -0.03 0.42 -1.95 10.21 0.61 -0.21 -0.08 11649
0.87 -0.04 0.58 -2.14 10.37 0.64 -0.21 -0.07 11655
0.92 -0.04 0.54 -2.24 10.47 0.69 -0.20 -0.07 11661
0.92 -0.03 0.28 -2.04 10.42 0.75 -0.20 -0.06 11667
0.95 -0.04 0.34 -2.17 10.72 0.81 -0.19 -0.04 11674
0.99 -0.05 0.25 -2.22 11.04 0.88 -0.18 -0.03 11680
1.03 -0.04 0.32 -2.32 11.17 0.97 -0.17 -0.02 11686
1.05 -0.05 0.52 -2.85 10.94 1.08 -0.16 -0.03 11693
1.06 -0.05 0.26 -2.57 11.47 1.19 -0.15 -0.03 11700
1.08 -0.06 0.53 -2.79 11.24 1.29 -0.14 -0.03 11706
1.04 -0.03 0.30 -2.61 11.35 1.39 -0.14 -0.03 11712
1.12 -0.05 0.40 -2.77 11.61 1.47 -0.13 -0.03 11718
1.08 -0.04 0.54 -2.93 12.27 1.56 -0.12 -0.04 11725
1.10 -0.05 0.52 -3.20 12.08 1.67 -0.10 -0.06 11731
1.12 -0.06 0.67 -3.09 12.38 1.80 -0.07 -0.07 11738
1.13 -0.04 0.60 -3.23 11.85 1.95 -0.07 -0.10 11744
1.12 -0.05 0.77 -3.27 12.15 2.11 -0.03 -0.12 11751
1.04 -0.05 0.66 -3.62 12.04 2.28 -0.04 -0.15 11757
1.02 -0.04 0.79 -3.90 12.40 2.50 -0.04 -0.17 11763
0.92 -0.04 0.80 -3.74 12.47 2.74 0.00 -0.19 11770
0.90 -0.04 0.97 -4.12 13.78 2.95 0.02 -0.21 11777
0.82 -0.04 1.11 -4.43 14.06 3.26 0.04 -0.23 11783
0.74 -0.04 1.35 -4.96 13.52 3.64 0.04 -0.29 11789
0.70 -0.03 1.74 -5.17 15.69 4.03 0.06 -0.35 11796
0.69 -0.03 2.40 -6.16 17.35 4.25 0.06 -0.42 11802
0.61 -0.03 1.10 -6.90 19.28 4.28 0.09 -0.46 11808
0.58 -0.04 2.03 -7.53 19.51 4.28 0.11 -0.48 11814
0.53 -0.02 1.60 -9.32 22.02 4.28 0.21 -0.48 11822
0.47 -0.03 0.98 -10.97 25.61 4.28 0.35 -0.45 11828
0.41 -0.02 0.99 -11.56 24.97 4.28 0.41 -0.38 11834
0.37 -0.03 1.22 -11.21 26.59 4.28 0.45 -0.31 11841
0.31 -0.02 2.19 -10.14 26.64 4.28 0.60 -0.28 11847
0.25 -0.02 0.87 -9.05 26.20 4.28 0.64 -0.32 11853
0.22 -0.01 1.36 -6.78 25.20 4.28 0.51 -0.38 11859
0.17 -0.01 1.89 -4.26 23.44 4.28 0.38 -0.44 11867
0.12 -0.01 2.38 -1.26 22.44 4.28 0.22 -0.50 11873
0.14 -0.01 2.62 1.14 21.70 4.28 0.04 -0.57 11879
0.14 -0.01 3.35 3.72 21.84 4.28 -0.14 -0.64 11885
0.14 -0.01 4.04 6.25 22.07 4.28 -0.28 -0.78 11892
0.11 -0.01 3.44 6.50 20.10 4.28 -0.39 -0.97 11898
0.08 -0.01 2.91 7.53 17.50 4.28 -0.48 -1.18 11905
0.07 -0.01 4.25 14.46 10.23 4.28 -0.30 -1.72 11911
0.08 -0.00 6.54 13.79 7.88 4.28 -0.60 -2.36 11918
0.07 -0.01 5.55 20.86 6.98 3.28 -0.47 -2.78 11924
0.07 0.01 6.92 19.03 24.42 1.11 0.51 -2.97 11930
0.07 -0.01 7.02 12.83 25.51 -0.67 1.38 -2.94 11936
0.08 -0.01 3.37 12.84 21.57 -2.04 1.57 -2.92 11943
0.09 -0.01 0.45 13.18 16.88 -3.10 1.36 -2.80 11950
0.08 -0.01 -0.90 10.91 13.67 -3.84 1.09 -2.52 11956
0.09 -0.00 -0.31 7.71 12.25 -4.20 0.88 -2.13 11962
0.08 -0.01 0.87 5.14 10.06 -4.28 0.57 -1.82 11969
0.07 -0.01 1.31 3.96 7.98 -4.28 0.27 -1.60 11975
0.08 -0.01 1.40 2.96 6.57 -4.28 0.03 -1.39 11981
0.06 -0.01 1.89 1.31 5.74 -4.28 -0.13 -1.18 11987
0.06 -0.01 2.70 0.86 5.59 -4.28 -0.22 -1.01 11994
0.07 -0.01 3.34 0.65 5.71 -4.25 -0.23 -0.84 12000
0.06 -0.01 3.64 0.95 6.13 -4.20 -0.17 -0.69 12007
0.04 -0.00 3.91 0.89 6.64 -4.16 -0.08 -0.55 12013
0.05 0.00 4.47 0.66 7.43 -4.13 0.06 -0.45 12019
0.05 -0.01 4.75 0.46 8.43 -4.12 0.25 -0.37 12025
0.06 -0.01 4.86 0.30 9.42 -4.12 0.52 -0.28 12032
0.06 -0.00 4.90 0.14 10.21 -4.15 0.80 -0.18 12039
0.07 -0.01 4.52 -0.06 10.88 -4.19 1.04 -0.08 12045
0.06 -0.01 3.93 -0.59 11.62 -4.24 1.24 0.01 12051
0.06 -0.00 3.29 -1.23 12.28 -4.27 1.38 0.10 12057
0.05 -0.00 2.72 -1.89 13.09 -4.28 1.44 0.22 12063
0.06 -0.01 2.15 -2.51 13.60 -4.28 1.46 0.28 12070
0.08 -0.01 2.02 -3.34 13.98 -4.28 1.47 0.35 12077
0.07 -0.01 2.01 -4.32 14.42 -4.28 1.48 0.40 12083
0.07 -0.01 1.89 -5.37 14.69 -4.28 1.54 0.41 12089
0.07 -0.01 1.71 -6.20 14.76 -4.28 1.60 0.39 12095
0.07 -0.01 1.58 -6.97 14.93 -4.27 1.67 0.37 12102
0.06 -0.01 1.33 -7.36 15.16 -4.24 1.74 0.34 12108
0.07 -0.01 1.04 -7.64 15.50 -4.18 1.79 0.33 12114
0.05 -0.01 0.86 -7.91 15.81 -4.10 1.85 0.33 12121
0.06 -0.01 0.68 -8.03 16.22 -4.01 1.90 0.35 12128
0.05 -0.01 0.46 -8.07 16.83 -3.89 1.93 0.39 12134
0.05 -0.00 0.20 -7.96 17.28 -3.81 1.95 0.44 12140
0.07 -0.01 -0.12 -7.90 17.76 -3.72 1.96 0.51 12146
0.06 -0.01 -0.25 -7.85 18.20 -3.64 1.95 0.57 12152
0.05 -0.01 -0.30 -7.95 18.59 -3.58 1.93 0.63 12160
0.07 -0.01 -0.36 -8.24 18.80 -3.53 1.90 0.68 12166
0.06 -0.01 -0.31 -8.75 19.12 -3.48 1.88 0.71 12172
0.06 -0.01 -0.52 -9.80 19.35 -3.44 1.84 0.71 12178
0.06 -0.01 -0.55 -9.64 19.16 -3.40 1.81 0.70 12184
0.05 -0.01 -0.66 -9.92 18.52 -3.35 1.74 0.68 12191
0.06 0.00 -0.68 -10.26 18.73 -3.28 1.66 0.65 12197
0.06 -0.01 -0.57 -10.52 18.30 -3.17 1.56 0.62 12204
0.06 -0.01 -0.62 -10.83 17.85 -3.05 1.47 0.61 12210
0.06 -0.01 -0.71 -11.27 17.56 -2.90 1.37 0.62 12217
0.05 -0.01 -0.70 -11.91 17.16 -2.74 1.27 0.65 12223
0.08 -0.01 -0.67 -12.63 16.80 -2.58 1.17 0.69 12229
0.08 -0.01 -0.70 -13.40 16.48 -2.42 1.06 0.74 12236
0.07 -0.00 -0.74 -14.09 15.91 -2.29 0.96 0.79 12242
0.08 -0.01 -0.70 -14.68 15.50 -2.20 0.88 0.85 12249
0.07 -0.01 -0.34 -15.29 14.80 -2.16 0.83 0.90 12255
0.08 -0.01 -0.06 -15.88 14.00 -2.13 0.85 0.94 12262
0.07 -0.01 0.14 -16.51 12.81 -2.10 0.93 0.97 12268
0.07 -0.00 0.25 -17.05 10.46 -2.04 1.10 1.00 12274
0.07 -0.01 -0.61 -17.31 8.62 -1.92 1.34 1.07 12280
0.07 -0.01 -2.47 -17.72 7.74 -1.74 1.69 1.22 12288
0.08 -0.01 -5.37 -18.30 7.12 -1.52 1.94 1.44 12294
0.08 -0.01 -8.70 -19.29 7.10 -1.28 1.93 1.65 12300
0.07 -0.01 -11.26 -20.69 6.73 -1.07 1.53 1.79 12306
0.08 -0.00 -11.58 -22.06 5.96 -0.88 0.75 1.81 12313
0.07 -0.01 -9.95 -22.95 4.98 -0.66 -0.05 1.71 12319
0.08 -0.00 -7.48 -23.49 3.95 -0.36 -0.54 1.54 12325
0.08 -0.01 -5.15 -23.11 3.06 -0.01 -0.64 1.31 12332
0.07 -0.01 -8.10 -30.74 5.02 0.49 -0.74 1.08 12338
0.07 -0.01 -8.72 -28.59 8.32 1.86 -1.25 0.92 12345
0.06 -0.01 -9.53 -23.33 -0.03 2.24 -1.76 0.67 12351
0.06 -0.00 -7.82 -21.55 5.08 2.61 -2.49 0.59 12357
0.06 0.02 -2.51 -9.06 5.38 2.78 -2.84 0.52 12363
0.05 0.08 -1.54 -1.22 9.79 2.72 -2.62 0.54 12370
0.05 0.16 1.25 4.94 16.81 2.79 -1.96 0.72 12377
0.04 0.29 0.71 6.26 16.47 2.64 -1.17 0.96 12383
0.04 0.34 -1.95 1.85 13.86 2.65 -0.70 1.02 12389
0.05 0.40 -4.08 -1.43 14.46 2.92 -0.37 0.94 12396
0.03 0.49 -5.66 -3.94 16.24 3.26 -0.04 0.78 12402
0.04 0.59 -7.65 -4.43 18.37 3.54 0.07 0.47 12408
0.04 0.67 -6.90 -4.07 22.23 3.64 0.17 0.01 12414
0.05 0.78 -2.39 -2.78 22.24 3.59 0.33 -0.47 12422
0.05 0.83 2.35 -2.34 19.55 3.16 0.25 -0.62 12428
0.05 0.86 4.33 -2.43 17.91 2.75 -0.01 -0.49 12434
0.06 0.88 3.94 -2.70 17.64 2.18 -0.76 -0.30 12441
0.06 0.92 3.93 -2.28 14.92 1.41 -1.21 -0.03 12447
0.07 0.92 1.26 -2.22 12.31 1.03 -1.01 0.29 12453
0.06 0.92 -2.04 -1.80 12.13 0.78 -0.93 0.31 12460
0.05 0.93 -1.34 -1.13 12.07 0.50 -0.69 0.21 12467
0.05 0.92 -0.54 -1.43 11.09 0.21 -0.35 0.14 12473
0.05 0.94 0.18 -1.85 10.18 0.16 -0.27 0.14 12479
0.07 0.96 0.76 -0.99 9.92 0.13 -0.25 0.17 12485
0.07 0.99 0.13 -1.06 10.10 0.10 -0.20 0.16 12492
0.07 1.01 0.23 -0.91 9.96 0.06 -0.15 0.15 12498
0.07 1.00 0.38 -0.96 10.05 0.04 -0.09 0.16 12505
0.08 0.99 0.35 -0.92 9.90 0.03 -0.04 0.15 12511
0.09 1.00 0.37 -0.86 9.89 0.03 -0.06 0.14 12517
0.09 0.97 0.40 -0.92 9.95 0.04 -0.05 0.13 12524
0.07 0.96 0.36 -1.01 10.02 0.04 -0.04 0.13 12530
0.09 0.94 0.33 -1.00 9.99 0.04 -0.03 0.13 12536
0.12 0.87 0.31 -0.98 10.09 0.05 -0.01 0.13 12542
0.11 0.84 0.32 -1.02 10.08 0.06 0.01 0.12 12550
0.12 0.79 0.31 -0.98 10.03 0.06 0.04 0.12 12556
0.11 0.73 0.31 -0.98 9.98 0.06 0.07 0.13 12562
0.10 0.75 0.41 -1.00 9.97 0.07 0.08 0.13 12568
0.11 0.70 0.46 -0.94 10.03 0.08 0.09 0.13 12574
0.11 0.61 0.48 -0.99 9.90 0.08 0.10 0.13 12581
0.13 0.54 0.48 -1.01 9.96 0.09 0.10 0.12 12588
0.11 0.52 0.51 -0.99 10.01 0.09 0.10 0.11 12594
0.12 0.47 0.53 -1.05 10.00 0.09 0.09 0.12 12600
0.16 0.40 0.61 -1.01 9.88 0.09 0.07 0.11 12606
0.16 0.36 0.62 -1.05 9.93 0.08 0.05 0.09 12613
0.17 0.32 0.53 -1.08 9.97 0.08 0.04 0.09 12619
0.17 0.26 0.55 -1.08 9.88 0.08 0.03 0.09 12625
0.17 0.22 0.56 -1.09 9.97 0.08 0.02 0.08 12632
0.19 0.16 0.55 -1.06 9.98 0.08 0.02 0.08 12638
0.21 0.14 0.55 -1.08 10.04 0.07 0.02 0.08 12645
0.21 0.11 0.51 -1.13 9.98 0.07 0.02 0.07 12651
0.20 0.06 0.54 -1.09 9.98 0.06 0.00 0.08 12657
0.21 0.08 0.57 -1.11 9.97 0.06 0.00 0.09 12663
0.20 0.04 0.55 -1.15 9.95 0.06 -0.00 0.09 12669
0.21 0.02 0.61 -1.15 9.98 0.05 -0.01 0.09 12677
0.24 0.00 0.62 -1.15 9.93 0.05 -0.02 0.08 12683
0.24 0.01 0.64 -1.16 9.93 0.05 -0.03 0.09 12689
0.25 -0.00 0.65 -1.11 9.95 0.05 -0.03 0.08 12695
0.26 -0.01 0.65 -1.14 9.95 0.04 -0.04 0.07 12701
0.26 -0.03 0.61 -1.16 9.96 0.04 -0.05 0.07 12707
0.26 -0.01 0.62 -1.14 9.93 0.04 -0.07 0.07 12715
0.31 -0.02 0.60 -1.02 9.97 0.04 -0.08 0.06 12721
0.30 -0.02 0.62 -0.93 9.90 0.04 -0.09 0.05 12727
0.30 -0.02 0.57 -1.15 10.06 0.04 -0.11 0.05 12733
0.33 -0.03 0.55 -1.27 9.90 0.04 -0.11 0.05 12739
0.33 -0.03 0.57 -1.17 9.94 0.04 -0.13 0.04 12746
0.34 -0.02 0.43 -1.12 9.93 0.04 -0.13 0.04 12752
0.35 -0.02 0.62 -1.08 9.91 0.04 -0.14 0.03 12759
0.37 -0.03 0.67 -1.37 10.04 0.05 -0.14 0.03 12765
0.40 -0.03 0.58 -1.25 10.00 0.05 -0.14 0.01 12771
0.43 -0.04 0.74 -1.12 10.01 0.05 -0.14 0.02 12778
0.43 -0.03 0.51 -1.03 9.99 0.06 -0.14 0.01 12784
0.45 -0.02 0.55 -0.96 10.08 0.06 -0.14 -0.00 12790
0.45 -0.03 0.48 -1.53 9.88 0.07 -0.13 -0.00 12796
0.46 -0.03 0.44 -1.33 9.93 0.07 -0.13 -0.00 12803
0.48 -0.03 0.42 -1.33 10.05 0.08 -0.12 0.00 12810
0.51 -0.03 0.42 -1.24 9.96 0.09 -0.11 0.01 12816
0.53 -0.03 0.51 -1.78 9.91 0.09 -0.10 -0.01 12822
0.57 -0.04 0.81 -1.09 9.91 0.10 -0.09 -0.01 12828
0.58 -0.04 0.26 -1.62 9.93 0.11 -0.09 -0.01 12834
0.59 -0.03 0.42 -1.40 10.08 0.13 -0.09 -0.00 12841
0.62 -0.04 0.42 -1.32 10.17 0.14 -0.10 -0.01 12848
0.63 -0.04 0.42 -1.34 10.11 0.16 -0.11 0.00 12854
0.63 -0.02 0.45 -1.39 9.91 0.18 -0.13 -0.01 12860
0.66 -0.04 0.30 -1.31 10.01 0.20 -0.13 -0.01 12867
0.66 -0.04 0.45 -1.29 10.00 0.22 -0.14 0.00 12873
0.70 -0.03 0.49 -1.40 10.32 0.25 -0.15 0.00 12879
0.74 -0.04 0.40 -1.44 10.21 0.29 -0.16 0.00 12886
0.76 -0.04 0.50 -1.53 10.29 0.33 -0.17 0.01 12893
0.78 -0.04 0.49 -1.54 10.49 0.39 -0.17 -0.00 12899
0.81 -0.05 0.56 -1.56 10.38 0.44 -0.18 0.00 12905
0.86 -0.04 0.46 -1.56 10.51 0.50 -0.18 -0.00 12911
0.88 -0.06 0.41 -1.66 10.56 0.56 -0.18 -0.01 12918
0.90 -0.03 0.53 -1.78 10.75 0.62 -0.19 -0.01 12924
0.94 -0.04 0.28 -1.62 10.71 0.69 -0.19 -0.01 12931
0.95 -0.04 0.41 -1.92 10.86 0.76 -0.19 -0.01 12937
1.01 -0.04 0.25 -1.69 10.92 0.84 -0.18 -0.01 12944
1.01 -0.05 0.38 -1.97 11.02 0.90 -0.18 -0.00 12950
1.07 -0.03 0.23 -2.01 11.16 0.97 -0.16 0.00 12956
1.12 -0.05 0.26 -2.10 11.29 1.09 -0.14 0.01 12962
1.12 -0.04 0.23 -2.19 11.75 1.18 -0.13 0.01 12969
1.18 -0.05 0.34 -2.19 11.85 1.33 -0.12 0.01 12976
1.17 -0.06 0.33 -2.33 11.64 1.45 -0.12 -0.00 12982
1.16 -0.04 0.49 -2.45 11.78 1.59 -0.14 -0.02 12988
1.17 -0.05 0.48 -2.39 11.33 1.70 -0.14 -0.03 12995
1.15 -0.04 0.11 -2.76 11.85 1.75 -0.10 -0.04 13001
1.14 -0.05 0.44 -2.77 11.93 1.85 -0.09 -0.05 13007
1.15 -0.06 0.34 -2.94 11.85 1.94 -0.07 -0.05 13015
1.19 -0.05 0.78 -3.19 12.30 2.12 -0.05 -0.06 13021
1.15 -0.05 0.63 -3.18 13.43 2.24 -0.09 -0.08 13027
1.09 -0.04 1.33 -3.51 13.49 2.45 -0.09 -0.12 13033
1.03 -0.05 1.37 -3.68 13.34 2.68 -0.10 -0.20 13040
0.91 -0.05 1.22 -3.71 14.01 2.99 -0.12 -0.26 13046
0.87 -0.05 0.94 -3.99 13.43 3.26 -0.13 -0.33 13052
0.82 -0.04 1.12 -3.99 14.51 3.59 -0.17 -0.38 13059
0.74 -0.04 1.14 -5.13 15.88 3.96 -0.22 -0.43 13066
0.70 -0.04 1.50 -5.81 17.68 4.23 -0.28 -0.48 13072
0.68 -0.04 2.18 -6.43 19.44 4.28 -0.33 -0.55 13078
0.61 -0.03 2.56 -7.26 20.59 4.28 -0.31 -0.60 13085
0.57 -0.03 2.03 -8.78 22.53 4.28 -0.33 -0.66 13091
0.52 -0.03 2.63 -10.21 24.53 4.28 -0.21 -0.64 13097
0.47 -0.02 1.89 -10.59 24.30 4.28 -0.07 -0.62 13104
0.45 -0.03 2.23 -10.00 24.36 4.28 0.04 -0.59 13111
0.37 -0.03 2.42 -8.58 25.80 4.28 0.25 -0.58 13117
0.32 -0.01 0.72 -7.65 24.72 4.28 0.32 -0.60 13123
0.26 -0.02 -0.75 -6.03 23.78 4.28 0.14 -0.63 13130
0.20 -0.02 -0.56 -3.90 23.47 4.28 -0.13 -0.66 13136
0.17 -0.02 0.91 -2.16 22.60 4.28 -0.50 -0.68 13143
0.14 -0.01 2.49 0.09 21.92 4.28 -0.83 -0.69 13149
0.13 -0.00 3.83 2.87 22.27 4.28 -1.11 -0.71 13156
0.13 -0.01 4.18 4.45 20.67 4.28 -1.22 -0.78 13162
0.09 -0.01 4.02 6.76 18.90 4.28 -1.27 -0.86 13168
0.09 -0.01 5.56 8.56 16.59 4.28 -1.29 -1.00 13174
0.08 -0.01 7.12 10.69 9.54 4.28 -1.06 -1.35 13180
0.08 -0.01 9.65 11.80 6.90 4.28 -1.03 -1.91 13188
0.08 -0.01 10.86 18.29 7.83 3.86 -0.47 -2.35 13194
0.06 -0.01 9.05 18.45 25.14 1.91 0.91 -2.56 13200
0.07 -0.01 8.67 13.13 27.58 0.19 2.16 -2.46 13206
0.08 -0.01 4.01 14.33 24.20 -1.32 2.35 -2.33 13213
0.07 -0.01 -0.87 15.16 18.52 -2.60 1.89 -2.01 13219
0.08 -0.01 -2.42 12.21 15.46 -3.56 1.28 -1.50 13225
0.07 -0.01 -0.45 8.47 13.63 -4.12 0.57 -1.08 13232
0.09 -0.01 0.66 6.23 11.48 -4.26 0.07 -0.82 13239
0.08 -0.01 1.72 4.84 9.30 -4.28 -0.31 -0.61 13245
0.07 -0.01 2.63 3.14 7.51 -4.28 -0.45 -0.47 13251
0.09 -0.01 3.61 2.71 6.39 -4.28 -0.41 -0.32 13257
0.06 -0.01 4.15 2.00 5.61 -4.26 -0.25 -0.21 13263
0.04 -0.00 4.29 1.57 5.37 -4.21 0.01 -0.14 13270
0.06 -0.00 4.17 1.63 5.80 -4.15 0.29 -0.10 13277
0.06 -0.01 3.69 1.84 6.73 -4.09 0.52 -0.08 13283
0.05 -0.01 3.24 1.85 7.67 -4.06 0.70 -0.08 13289
0.06 -0.00 2.91 1.75 8.96 -4.07 0.83 -0.10 13295
0.07 -0.01 1.86 1.50 10.11 -4.12 0.96 -0.10 13301
0.06 -0.01 1.96 0.97 10.85 -4.18 1.03 -0.10 13308
0.06 -0.00 1.81 0.51 11.44 -4.23 1.07 -0.10 13315
0.07 -0.01 1.63 -0.54 11.95 -4.27 1.07 -0.10 13321
0.06 -0.01 1.64 -1.19 12.29 -4.28 1.08 -0.10 13327
0.07 -0.01 1.70 -1.37 12.64 -4.28 1.11 -0.09 13333
0.06 -0.01 1.77 -1.99 12.98 -4.28 1.17 -0.09 13340
0.06 -0.01 2.00 -2.67 13.34 -4.28 1.28 -0.10 13346
0.07 -0.01 2.07 -3.56 13.85 -4.28 1.42 -0.11 13352
0.06 -0.01 1.91 -4.35 14.49 -4.28 1.56 -0.13 13359
0.06 -0.00 1.60 -5.12 15.18 -4.28 1.71 -0.15 13366
0.05 -0.01 1.17 -5.73 15.66 -4.28 1.82 -0.16 13372
0.05 -0.00 0.90 -6.28 16.21 -4.27 1.89 -0.16 13378
0.07 -0.01 0.58 -6.76 16.57 -4.24 1.92 -0.14 13384
0.05 -0.00 0.45 -7.04 17.01 -4.20 1.91 -0.10 13390
0.05 -0.00 0.41 -7.36 17.26 -4.13 1.91 -0.03 13398
0.07 -0.01 0.39 -7.55 17.28 -4.06 1.92 0.06 13404
0.05 -0.01 0.43 -7.76 17.37 -3.93 1.94 0.17 13410
0.05 -0.01 0.36 -7.83 17.60 -3.77 1.96 0.27 13416
0.06 -0.01 0.10 -7.96 18.22 -3.59 1.98 0.38 13422
0.05 -0.01 -0.19 -8.13 18.68 -3.45 2.01 0.50 13429
0.05 -0.01 -0.65 -8.23 19.34 -3.33 2.01 0.60 13435
0.06 -0.01 -1.13 -8.39 20.11 -3.26 1.94 0.69 13442
0.06 -0.01 -1.56 -8.66 20.86 -3.23 1.80 0.75 13448
0.07 -0.00 -1.81 -8.95 21.10 -3.23 1.64 0.87 13455
0.06 -0.01 -1.62 -9.30 20.85 -3.27 1.48 0.91 13461
0.06 -0.01 -1.37 -9.73 20.57 -3.30 1.37 0.97 13467
0.07 -0.01 -1.08 -10.27 20.09 -3.31 1.30 1.01 13473
0.06 -0.01 -0.79 -11.02 19.55 -3.28 1.28 1.04 13480
0.06 -0.00 -0.69 -11.92 18.85 -3.21 1.28 1.05 13487
0.06 -0.01 -0.68 -13.13 17.28 -3.10 1.28 1.05 13493
0.06 -0.01 -0.74 -14.48 17.00 -2.95 1.24 1.06 13499
0.07 -0.01 -0.68 -15.92 15.92 -2.78 1.18 1.06 13506
0.06 -0.01 -0.47 -17.45 15.04 -2.59 1.09 1.06 13512
0.07 -0.01 -0.22 -18.70 14.24 -2.40 1.02 1.06 13518
0.07 -0.01 0.09 -19.58 13.43 -2.25 1.01 1.07 13524
0.07 -0.01 0.24 -20.14 12.51 -2.14 1.06 1.07 13532
0.07 -0.01 0.02 -20.47 10.58 -2.04 1.21 1.10 13538
0.06 -0.01 -1.22 -20.28 8.55 -1.91 1.51 1.19 13544
0.07 -0.00 -3.82 -20.70 6.98 -1.71 1.90 1.43 13550
0.07 -0.01 -7.45 -21.37 6.15 -1.46 2.09 1.72 13557
0.07 -0.01 -10.83 -22.89 5.96 -1.20 1.90 1.99 13563
0.07 -0.01 -12.69 -24.44 5.65 -0.94 1.21 2.12 13570
0.06 -0.01 -12.29 -25.26 4.92 -0.69 0.26 2.11 13576
0.07 -0.01 -10.06 -25.29 4.03 -0.37 -0.55 1.97 13583
0.07 -0.01 -7.53 -24.50 3.14 -0.03 -0.91 1.75 13589
0.07 -0.01 -5.08 -23.30 3.65 0.29 -0.91 1.46 13595
0.08 -0.01 -3.35 -22.07 5.16 0.56 -0.68 1.08 13601
0.07 -0.01 -3.37 -28.16 3.92 0.81 -0.51 0.71 13608
0.06 -0.00 -8.98 -32.85 22.28 2.89 -1.16 0.76 13615
0.06 -0.01 -5.40 -3.00 -5.87 2.87 -1.95 0.56 13621
0.04 0.02 -2.19 -4.28 4.43 2.58 -2.62 0.35 13627
0.06 0.10 3.68 6.84 16.02 2.73 -2.39 0.40 13634
0.04 0.20 4.68 5.80 13.34 2.43 -1.52 0.73 13640
0.04 0.30 3.21 7.09 12.14 2.43 -0.85 1.01 13646
0.04 0.38 0.47 0.24 10.04 2.71 -0.38 1.19 13652
0.04 0.41 -1.17 -2.73 12.71 3.42 -0.08 1.27 13660
0.05 0.50 -3.50 -2.14 15.30 3.82 0.08 1.23 13666
0.05 0.55 -6.86 -4.41 21.58 3.90 0.09 0.97 13672
0.04 0.71 -7.71 -4.44 23.88 3.74 0.03 0.48 13678
0.06 0.84 -5.52 -3.10 19.79 3.56 0.11 -0.07 13685
0.04 0.95 -1.59 -2.64 18.48 3.41 0.01 -0.43 13691
0.05 0.97 1.97 -2.52 18.31 3.20 -0.29 -0.59 13698
0.04 0.99 4.56 -2.29 17.32 2.80 -0.72 -0.49 13704
0.05 1.02 3.95 -2.41 15.24 2.23 -1.08 -0.17 13711
0.08 0.99 2.47 -2.15 14.51 1.39 -1.22 0.11 13717
0.05 1.00 -0.57 -2.16 13.13 0.94 -1.04 0.26 13723
0.05 1.01 -1.09 -1.12 11.92 0.53 -0.70 0.22 13729
0.05 0.98 -0.09 -0.78 10.57 0.22 -0.39 0.13 13736
0.08 0.98 0.96 -1.41 10.14 0.15 -0.31 0.07 13743
0.07 0.97 0.67 -0.93 8.89 0.14 -0.28 0.12 13749
0.07 0.99 0.35 -1.17 10.30 0.08 -0.21 0.15 13755
0.07 0.98 0.14 -1.00 9.98 0.05 -0.17 0.12 13762
0.08 0.99 0.41 -1.10 10.04 0.04 -0.16 0.10 13768
0.10 1.01 0.36 -1.10 10.07 0.03 -0.15 0.09 13774
0.08 1.01 0.29 -1.04 10.08 0.02 -0.16 0.09 13780
0.09 1.00 0.43 -0.91 9.95 0.02 -0.16 0.09 13788
0.13 0.98 0.29 -0.94 9.92 0.02 -0.15 0.07 13794
0.11 0.95 0.32 -0.90 9.92 0.03 -0.14 0.06 13800
0.12 0.93 0.33 -0.98 10.08 0.02 -0.13 0.06 13806
0.13 0.91 0.27 -0.97 9.95 0.03 -0.12 0.06 13812
0.13 0.85 0.22 -0.97 9.95 0.03 -0.11 0.06 13819
0.14 0.81 0.23 -1.02 10.02 0.04 -0.10 0.07 13826
0.15 0.78 0.29 -1.02 9.97 0.04 -0.08 0.07 13832
0.15 0.76 0.29 -1.02 10.02 0.04 -0.07 0.07 13838
0.17 0.73 0.25 -1.05 9.95 0.05 -0.06 0.07 13844
0.21 0.64 0.28 -1.04 9.99 0.05 -0.04 0.09 13851
0.19 0.60 0.27 -1.00 10.01 0.06 -0.03 0.09 13857
0.21 0.53 0.29 -1.02 9.99 0.06 -0.03 0.09 13863
0.23 0.49 0.37 -1.09 9.90 0.07 -0.03 0.08 13870
0.27 0.43 0.37 -1.02 9.94 0.07 -0.03 0.08 13876
0.28 0.38 0.33 -1.03 9.97 0.07 -0.03 0.08 13883
0.27 0.39 0.35 -1.08 9.99 0.07 -0.03 0.07 13889
0.29 0.33 0.30 -1.07 10.03 0.06 -0.03 0.07 13895
0.32 0.24 0.26 -1.12 9.94 0.06 -0.04 0.08 13901
0.34 0.16 0.26 -1.08 10.01 0.06 -0.03 0.08 13907
0.32 0.20 0.27 -1.10 9.97 0.06 -0.03 0.07 13915
0.37 0.12 0.22 -1.08 9.96 0.05 -0.03 0.08 13921
0.36 0.09 0.28 -1.09 9.97 0.05 -0.03 0.09 13927
0.37 0.08 0.32 -1.06 9.97 0.05 -0.03 0.08 13933
0.41 0.08 0.31 -1.10 9.96 0.05 -0.04 0.08 13939
0.44 0.02 0.32 -1.13 9.94 0.05 -0.05 0.08 13946
0.46 0.03 0.36 -1.14 9.94 0.05 -0.05 0.08 13953
0.49 -0.00 0.36 -1.15 9.95 0.04 -0.05 0.08 13959
0.49 -0.00 0.37 -1.18 10.02 0.05 -0.05 0.07 13965
0.51 0.00 0.29 -1.15 9.96 0.05 -0.06 0.06 13971
0.55 -0.03 0.37 -1.15 9.97 0.05 -0.06 0.06 13978
0.56 -0.04 0.28 -1.17 9.92 0.06 -0.06 0.06 13984
0.59 -0.03 0.30 -1.20 9.84 0.06 -0.06 0.06 13990
0.62 -0.03 0.21 -1.15 9.99 0.07 -0.06 0.05 13997
0.61 -0.05 0.31 -1.21 9.96 0.07 -0.06 0.05 14003
0.63 -0.04 0.22 -1.14 9.89 0.07 -0.06 0.04 14009
0.64 -0.03 0.12 -1.23 9.97 0.08 -0.06 0.05 14016
0.64 -0.05 0.39 -1.08 9.88 0.08 -0.06 0.04 14022
0.68 -0.05 0.18 -1.25 9.86 0.08 -0.06 0.05 14028
0.70 -0.05 0.23 -1.16 9.96 0.09 -0.06 0.05 14034
0.72 -0.05 0.34 -1.14 10.00 0.09 -0.06 0.04 14041
0.74 -0.04 0.20 -1.30 9.91 0.09 -0.06 0.05 14048
0.76 -0.05 0.25 -1.17 10.09 0.10 -0.07 0.04 14054
0.76 -0.04 0.26 -1.18 9.97 0.11 -0.07 0.05 14060
0.77 -0.04 0.19 -1.29 10.01 0.12 -0.08 0.03 14066
0.78 -0.04 0.20 -1.33 10.01 0.12 -0.09 0.04 14073
0.77 -0.03 0.37 -1.34 10.02 0.14 -0.09 0.03 14080
0.80 -0.04 0.33 -1.35 10.00 0.16 -0.10 0.02 14086
0.80 -0.05 0.34 -1.36 9.89 0.17 -0.10 0.01 14092
0.82 -0.03 0.30 -1.32 9.95 0.18 -0.10 0.01 14098
0.89 -0.04 0.37 -1.33 10.01 0.19 -0.10 0.01 14105
0.90 -0.04 0.23 -1.37 10.06 0.21 -0.10 0.01 14111
0.96 -0.04 0.31 -1.38 10.12 0.23 -0.09 0.01 14117
0.97 -0.05 0.33 -1.43 10.12 0.26 -0.10 -0.00 14124
1.00 -0.05 0.18 -1.42 10.35 0.31 -0.11 -0.01 14131
1.01 -0.05 0.31 -1.43 10.34 0.36 -0.11 -0.01 14137
1.04 -0.05 0.23 -1.47 10.32 0.41 -0.13 -0.00 14143
1.05 -0.04 0.13 -1.50 10.34 0.45 -0.13 -0.00 14149
1.09 -0.05 0.20 -1.58 10.36 0.50 -0.14 0.00 14156
1.11 -0.04 0.20 -1.71 10.51 0.54 -0.14 0.01 14162
1.13 -0.06 0.17 -1.71 10.67 0.59 -0.14 0.01 14169
1.17 -0.04 0.20 -1.61 10.67 0.66 -0.16 0.02 14175
1.20 -0.05 0.23 -1.82 10.99 0.73 -0.15 0.01 14182
1.23 -0.06 0.26 -1.80 10.80 0.80 -0.16 0.01 14188
1.28 -0.06 0.10 -1.84 11.30 0.88 -0.12 0.01 14194
1.32 -0.06 0.25 -2.09 11.16 0.98 -0.10 0.01 14200
1.32 -0.05 0.10 -2.11 11.49 1.07 -0.06 0.01 14208
1.33 -0.05 -0.02 -2.11 11.40 1.16 -0.03 0.01 14214
1.38 -0.06 0.23 -2.24 11.44 1.25 -0.01 0.01 14220
1.42 -0.06 0.52 -2.11 11.65 1.38 -0.04 -0.01 14226
1.41 -0.06 0.25 -2.50 11.93 1.50 -0.04 -0.02 14233
1.42 -0.06 0.32 -2.75 11.72 1.63 -0.03 -0.03 14239
1.39 -0.06 0.18 -2.48 12.06 1.74 -0.03 -0.04 14245
1.39 -0.07 0.16 -2.66 11.67 1.84 0.01 -0.07 14253
1.33 -0.04 0.48 -2.68 11.75 1.95 0.01 -0.10 14259
1.31 -0.05 0.72 -2.99 12.52 2.08 0.03 -0.13 14265
1.25 -0.05 0.21 -3.41 12.58 2.25 0.02 -0.15 14271
1.19 -0.05 0.11 -3.08 13.05 2.43 0.00 -0.16 14278
1.19 -0.06 0.71 -3.37 12.99 2.64 -0.03 -0.18 14284
1.09 -0.04 2.75 -3.52 13.61 2.86 -0.07 -0.23 14290
1.01 -0.05 1.57 -3.75 14.06 3.15 -0.11 -0.30 14297
0.91 -0.05 1.91 -3.80 13.82 3.46 -0.13 -0.40 14304
0.86 -0.04 1.52 -4.95 14.63 3.85 -0.19 -0.49 14310
0.70 -0.04 2.28 -5.59 17.04 4.16 -0.25 -0.58 14316
0.69 -0.04 1.55 -5.86 19.11 4.28 -0.31 -0.65 14322
0.58 -0.04 2.48 -6.83 20.59 4.28 -0.33 -0.70 14329
0.61 -0.02 2.36 -7.94 20.17 4.28 -0.26 -0.74 14336
0.57 -0.04 2.51 -9.89 22.85 4.28 -0.10 -0.75 14342
0.45 -0.03 1.42 -10.94 24.31 4.28 0.08 -0.73 14349
0.41 -0.03 1.63 -10.72 25.63 4.28 0.18 -0.68 14355
0.33 -0.02 1.73 -9.22 26.40 4.28 0.29 -0.64 14361
0.30 -0.02 1.00 -7.99 25.78 4.28 0.35 -0.66 14368
0.22 -0.02 -0.17 -6.12 24.10 4.28 0.16 -0.72 14374
0.20 -0.01 0.78 -3.89 22.67 4.28 -0.13 -0.78 14381
0.18 -0.02 1.71 -1.76 21.02 4.28 -0.37 -0.81 14387
0.16 -0.02 3.19 0.38 19.91 4.28 -0.52 -0.84 14393
0.14 -0.01 4.20 2.32 19.56 4.28 -0.61 -0.88 14400
0.10 -0.01 4.95 4.92 20.56 4.28 -0.68 -0.97 14406
0.08 -0.01 4.32 5.24 19.43 4.28 -0.67 -1.12 14412
0.09 -0.01 4.08 5.44 16.69 4.28 -0.60 -1.33 14418
0.07 -0.01 7.17 10.76 10.80 4.28 -0.25 -1.71 14426
0.07 -0.01 7.75 11.01 8.20 4.28 -0.20 -2.26 14432
0.07 -0.01 7.86 15.84 3.56 4.00 0.19 -2.61 14438
0.06 -0.01 6.55 19.71 20.19 1.92 1.00 -2.83 14444
0.08 -0.01 6.28 13.21 26.04 0.20 1.79 -2.75 14451
0.06 -0.01 2.88 12.09 23.65 -1.21 1.74 -2.58 14457
0.07 0.00 -1.23 13.60 18.14 -2.37 1.33 -2.23 14464
0.07 -0.01 -1.47 11.79 13.98 -3.25 0.78 -1.70 14470
0.07 -0.01 0.77 8.11 11.58 -3.83 0.25 -1.30 14477
0.08 -0.01 1.92 5.58 9.42 -4.09 -0.11 -1.04 14483
0.07 -0.01 2.49 4.07 7.33 -4.13 -0.24 -0.82 14489
0.08 -0.01 2.93 2.59 5.86 -4.10 -0.21 -0.62 14495
0.09 -0.01 3.30 2.40 4.32 -4.00 -0.10 -0.48 14501
0.08 -0.01 3.47 2.00 4.31 -3.85 0.05 -0.34 14508
0.06 -0.01 3.25 1.87 4.31 -3.71 0.23 -0.24 14514
0.08 -0.01 2.84 1.86 5.01 -3.59 0.39 -0.14 14521
0.08 -0.01 2.52 2.03 6.08 -3.52 0.49 -0.06 14527
0.09 -0.01 2.31 2.23 7.11 -3.48 0.54 -0.01 14533
0.08 -0.01 2.15 2.30 8.12 -3.50 0.58 0.03 14539
0.08 -0.01 2.06 2.21 8.98 -3.57 0.67 0.07 14545
0.07 -0.01 2.04 1.81 9.81 -3.68 0.76 0.09 14552
0.06 -0.01 1.99 1.34 10.58 -3.81 0.85 0.11 14559
0.08 -0.01 1.99 0.97 11.38 -3.98 0.95 0.11 14565
0.07 -0.01 1.99 0.42 12.07 -4.13 1.06 0.10 14571
0.07 -0.01 1.91 -0.16 12.74 -4.23 1.17 0.09 14577
0.08 -0.01 1.70 -0.77 13.32 -4.27 1.27 0.09 14583
0.06 -0.01 1.44 -1.42 13.69 -4.28 1.37 0.08 14590
0.06 -0.01 1.34 -2.22 13.72 -4.28 1.47 0.08 14597
0.07 -0.01 1.13 -3.25 13.75 -4.28 1.57 0.08 14603
0.07 -0.01 0.96 -4.52 13.99 -4.28 1.66 0.07 14609
0.06 -0.01 0.70 -5.59 14.14 -4.28 1.73 0.07 14615
0.06 -0.01 0.51 -6.26 14.35 -4.27 1.78 0.06 14622
0.06 -0.01 0.32 -6.75 14.69 -4.22 1.81 0.07 14628
0.07 -0.00 0.23 -7.22 15.16 -4.14 1.82 0.10 14635
0.06 -0.01 0.17 -7.30 15.45 -4.05 1.81 0.15 14641
0.05 -0.00 0.21 -6.75 15.88 -3.91 1.79 0.21 14647
0.06 -0.01 0.18 -7.40 16.19 -3.77 1.76 0.30 14654
0.05 -0.01 0.10 -7.25 16.60 -3.63 1.73 0.40 14660
0.05 -0.00 0.04 -6.99 17.22 -3.50 1.73 0.52 14666
0.06 -0.01 -0.06 -6.98 18.01 -3.40 1.77 0.62 14672
0.05 -0.00 -0.18 -7.08 18.94 -3.34 1.83 0.73 14679
0.05 -0.00 -0.41 -7.25 19.74 -3.32 1.90 0.81 14686
0.05 -0.01 -0.61 -7.47 20.37 -3.35 1.96 0.86 14692
0.05 -0.00 -0.81 -7.96 20.60 -3.39 1.98 0.90 14698
0.05 -0.00 -1.06 -8.80 20.28 -3.42 1.96 0.93 14704
0.05 -0.00 -0.98 -9.80 19.74 -3.42 1.91 0.94 14710
0.05 -0.01 -0.85 -10.85 19.20 -3.35 1.83 0.95 14717
0.05 -0.00 -0.61 -11.73 18.32 -3.21 1.74 0.96 14724
0.05 -0.00 -0.50 -12.49 17.53 -3.03 1.63 0.99 14730
0.05 -0.00 -0.42 -13.06 16.87 -2.80 1.49 1.03 14737
0.05 -0.00 -0.49 -13.42 16.13 -2.55 1.33 1.09 14743
0.04 -0.00 -0.65 -13.75 15.57 -2.29 1.17 1.16 14749
0.05 -0.01 -0.79 -14.04 15.25 -2.04 0.99 1.25 14755
0.04 -0.00 -0.92 -14.20 14.92 -1.82 0.85 1.34 14763
0.04 -0.00 -0.86 -14.37 15.02 -1.67 0.78 1.44 14769
0.05 -0.00 -0.70 -14.47 14.99 -1.61 0.80 1.54 14775
0.03 -0.00 -0.72 -14.73 14.48 -1.66 0.86 1.61 14781
0.06 -0.01 -1.06 -15.30 13.59 -1.80 0.97 1.67 14788
0.05 -0.00 -1.91 -16.16 11.86 -1.92 1.05 1.70 14794
0.04 0.00 -3.13 -17.10 9.75 -1.99 1.14 1.72 14800
0.05 -0.01 -4.83 -18.61 7.97 -1.95 1.19 1.70 14807
0.04 -0.00 -5.58 -20.26 6.53 -1.81 1.17 1.64 14814
0.06 -0.01 -6.34 -21.72 5.24 -1.59 0.98 1.49 14820
0.05 -0.00 -6.54 -22.43 4.18 -1.32 0.66 1.26 14826
0.04 -0.00 -6.23 -22.79 3.76 -1.01 0.37 0.99 14832
0.06 -0.01 -5.59 -22.36 3.53 -0.71 0.19 0.71 14838
0.05 -0.01 -4.77 -21.39 3.56 -0.43 0.11 0.39 14845
0.05 -0.00 -4.20 -20.25 4.00 -0.16 0.06 0.07 14852
0.05 -0.01 -3.77 -19.03 4.79 0.10 -0.01 -0.22 14858
0.05 -0.01 -3.21 -17.65 5.92 0.33 -0.10 -0.44 14864
0.05 -0.00 -2.63 -16.21 7.29 0.49 -0.22 -0.59 14870
0.04 -0.00 -1.99 -14.75 8.58 0.60 -0.38 -0.66 14877
0.03 -0.00 -1.20 -14.05 9.48 0.65 -0.56 -0.62 14883
0.05 -0.00 -13.91 -24.55 38.45 2.12 -2.25 0.08 14889
0.05 -0.00 1.05 0.41 1.62 2.12 -2.99 0.19 14896
0.04 0.01 6.90 3.83 3.86 1.82 -3.00 0.30 14903
0.06 0.06 8.55 2.34 13.03 1.78 -2.28 0.68 14909
0.04 0.13 5.73 6.47 9.58 1.59 -1.24 1.20 14915
0.04 0.21 2.28 4.93 8.69 1.73 -0.78 1.51 14921
0.03 0.28 0.11 0.61 8.34 2.02 -0.61 1.63 14927
0.03 0.37 -2.54 -0.19 9.82 2.60 -0.35 1.64 14935
0.04 0.42 -5.13 -1.50 10.73 3.02 -0.08 1.56 14941
0.04 0.43 -6.17 -2.62 14.05 3.36 0.15 1.36 14947
0.04 0.50 -8.31 -3.10 17.90 3.56 0.24 0.99 14953
0.04 0.64 -8.23 -3.67 19.97 3.58 0.25 0.41 14960
0.02 0.74 -3.21 -3.48 19.95 3.69 0.14 -0.14 14966
0.04 0.86 0.55 -2.81 17.11 3.53 0.08 -0.39 14972
0.04 0.93 3.09 -2.97 20.57 3.41 -0.13 -0.40 14980
0.04 0.96 3.56 -2.49 20.47 2.71 -1.13 -0.28 14986
0.02 1.03 4.83 -3.27 14.91 1.59 -1.22 0.07 14992
0.04 1.02 0.46 -2.77 12.99 1.04 -0.92 0.35 14998
0.04 1.04 -0.86 -1.11 11.96 0.82 -0.84 0.26 15005
0.03 1.02 -0.06 -0.28 11.39 0.50 -0.60 0.13 15011
0.02 1.03 -0.32 -3.05 12.55 0.27 -0.29 0.13 15017
0.02 1.02 0.23 -1.85 10.18 0.21 -0.23 0.16 15024
0.03 1.02 0.71 -0.92 9.52 0.15 -0.20 0.17 15031
0.06 1.03 0.31 -0.96 9.92 0.10 -0.15 0.17 15037
0.05 1.01 0.38 -1.09 9.85 0.07 -0.13 0.15 15043
0.04 1.01 0.61 -1.23 9.94 0.05 -0.10 0.14 15049
0.06 1.01 0.52 -1.16 9.99 0.04 -0.10 0.12 15055
0.06 0.99 0.38 -1.09 9.99 0.03 -0.09 0.11 15063
0.06 0.99 0.42 -1.12 9.93 0.03 -0.07 0.10 15069
0.05 0.96 0.44 -1.08 10.03 0.03 -0.06 0.11 15075
0.05 0.92 0.41 -1.07 9.98 0.04 -0.04 0.11 15081
0.06 0.92 0.46 -1.10 9.87 0.04 -0.03 0.11 15087
0.08 0.87 0.51 -1.10 9.93 0.05 -0.02 0.11 15094
0.06 0.83 0.49 -1.07 9.93 0.05 -0.02 0.11 15100
0.06 0.80 0.44 -1.09 10.02 0.06 -0.01 0.11 15107
0.09 0.74 0.49 -1.12 9.94 0.06 -0.01 0.11 15113
0.09 0.67 0.49 -1.15 9.94 0.07 -0.01 0.11 15119
0.13 0.62 0.51 -1.10 9.92 0.07 -0.01 0.10 15126
0.12 0.55 0.57 -1.17 9.93 0.06 -0.01 0.09 15132
0.11 0.50 0.54 -0.84 10.02 0.06 -0.01 0.09 15138
0.13 0.41 0.58 -1.16 9.99 0.06 -0.01 0.08 15144
0.14 0.38 0.58 -1.17 9.92 0.05 -0.02 0.08 15151
0.14 0.37 0.55 -1.18 9.98 0.05 -0.03 0.07 15158
0.16 0.35 0.54 -1.21 9.94 0.05 -0.04 0.07 15164
0.14 0.30 0.58 -1.18 9.92 0.04 -0.06 0.07 15170
0.14 0.28 0.59 -1.18 9.92 0.04 -0.07 0.07 15176
0.18 0.21 0.56 -1.22 9.93 0.03 -0.08 0.06 15182
0.16 0.18 0.56 -1.19 9.97 0.03 -0.09 0.07 15190
0.16 0.15 0.56 -1.23 10.01 0.03 -0.09 0.07 15196
0.19 0.14 0.53 -1.22 9.95 0.03 -0.10 0.06 15202
0.18 0.09 0.50 -1.21 9.89 0.03 -0.11 0.06 15208
0.18 0.07 0.53 -1.24 9.95 0.02 -0.11 0.05 15214
0.20 0.07 0.54 -1.21 9.91 0.02 -0.12 0.05 15221
0.19 0.05 0.46 -1.27 9.89 0.02 -0.12 0.05 15227
0.19 0.04 0.48 -0.63 9.89 0.02 -0.11 0.04 15234
0.24 0.03 0.47 -1.23 10.01 0.02 -0.11 0.04 15240
0.27 0.02 0.57 -1.25 10.02 0.02 -0.11 0.04 15246
0.28 0.02 0.52 -1.24 9.92 0.02 -0.12 0.04 15253
0.31 0.00 0.51 -1.30 9.92 0.02 -0.12 0.03 15259
0.31 0.00 0.48 -1.23 9.94 0.02 -0.13 0.03 15265
0.34 0.01 0.19 -1.52 9.91 0.02 -0.12 0.02 15271
0.35 -0.02 0.41 -1.34 9.99 0.03 -0.13 0.03 15278
0.35 -0.02 0.47 -1.24 9.97 0.04 -0.12 0.02 15285
0.42 -0.02 0.15 -1.66 10.06 0.00 -0.12 0.02 15291
0.45 -0.04 0.53 -1.33 10.06 0.05 -0.11 0.02 15297
0.49 -0.03 0.51 -1.27 9.95 0.06 -0.11 0.01 15303
0.47 -0.03 0.50 -1.09 9.81 0.06 -0.10 0.01 15309
0.52 -0.03 0.32 -1.19 10.03 0.06 -0.10 0.02 15316
0.51 -0.03 0.44 -1.26 9.99 0.07 -0.09 0.03 15323
0.55 -0.04 0.00 -1.29 9.96 0.07 -0.08 0.02 15329
0.56 -0.05 0.37 -1.32 9.95 0.08 -0.08 0.02 15335
0.60 -0.04 0.41 -1.31 9.98 0.08 -0.08 0.03 15341
0.61 -0.04 0.42 -1.25 9.88 0.08 -0.08 0.01 15348
0.61 -0.05 0.54 -1.26 9.96 0.09 -0.09 0.02 15354
0.64 -0.03 0.32 -1.38 9.91 0.09 -0.09 0.03 15361
0.71 -0.04 0.41 -1.32 10.02 0.10 -0.10 0.02 15367
0.72 -0.05 0.45 -1.33 9.97 0.11 -0.11 0.02 15373
0.71 -0.03 0.44 -1.28 10.06 0.12 -0.11 0.02 15380
0.73 -0.04 0.48 -1.42 10.17 0.14 -0.11 0.01 15386
0.77 -0.04 0.43 -1.46 10.15 0.17 -0.13 0.00 15392
0.81 -0.04 0.38 -1.45 10.15 0.20 -0.14 -0.00 15398
0.85 -0.05 0.33 -1.38 10.23 0.23 -0.15 0.00 15406
0.87 -0.02 0.44 -1.45 10.28 0.29 -0.17 -0.00 15412
0.93 -0.04 0.37 -1.43 10.31 0.35 -0.19 -0.00 15418
0.94 -0.04 0.39 -1.55 10.44 0.40 -0.21 -0.01 15424
0.99 -0.05 0.28 -1.53 10.59 0.48 -0.22 -0.01 15431
1.00 -0.06 0.33 -1.69 10.62 0.54 -0.23 -0.00 15437
1.02 -0.04 0.25 -1.61 10.71 0.61 -0.23 -0.00 15443
1.05 -0.05 0.18 -1.75 10.90 0.72 -0.24 -0.00 15450
1.07 -0.04 0.33 -1.87 10.88 0.79 -0.23 0.02 15457
1.11 -0.05 0.25 -1.86 11.13 0.87 -0.22 0.01 15463
1.17 -0.06 0.29 -1.85 11.23 0.91 -0.19 0.01 15469
1.18 -0.04 0.23 -1.94 11.26 1.00 -0.18 0.00 15475
1.24 -0.04 0.14 -2.04 11.45 1.07 -0.13 0.00 15482
1.26 -0.05 0.22 -1.84 10.68 1.17 -0.13 0.00 15489
1.31 -0.05 0.12 -2.38 11.19 1.28 -0.12 0.00 15495
1.31 -0.06 0.31 -2.31 11.25 1.37 -0.09 -0.00 15501
