Voltage_01 Voltage_02 Acc_x Acc_y Acc_z Gyro_x Gyro_y Gyro_z Time
5000
0.46 -0.03 0.78 -1.68 11.79 1.90 0.01 -0.20 24
0.46 -0.02 0.78 -1.81 11.75 1.96 -0.03 -0.20 32
0.49 -0.02 0.89 -1.93 11.86 2.08 -0.06 -0.19 39
0.51 -0.02 0.52 -1.87 11.39 2.16 -0.08 -0.18 47
0.51 -0.03 0.33 -1.95 11.13 2.24 -0.11 -0.16 54
0.49 -0.01 0.86 -2.38 11.66 2.35 -0.09 -0.15 61
0.46 -0.02 0.40 -2.47 11.42 2.45 -0.06 -0.14 68
0.45 -0.02 0.70 -2.94 11.68 2.59 -0.01 -0.12 75
0.41 -0.01 0.68 -2.98 12.31 2.75 0.06 -0.09 82
0.41 -0.02 1.20 -3.18 12.57 2.98 0.11 -0.09 90
0.30 -0.02 1.17 -3.28 12.90 3.20 0.14 -0.12 97
0.25 -0.03 0.94 -3.91 13.77 3.40 0.16 -0.15 103
0.23 -0.02 1.02 -4.34 14.09 3.65 0.19 -0.15 111
0.20 -0.02 0.98 -4.95 14.74 3.86 0.23 -0.15 118
0.16 -0.01 1.15 -5.62 16.60 4.07 0.27 -0.15 125
0.16 -0.02 1.53 -6.51 18.23 4.20 0.34 -0.14 132
0.14 -0.01 1.91 -6.07 16.54 4.26 0.42 -0.15 139
0.13 -0.01 2.22 -7.08 19.10 4.28 0.52 -0.17 146
0.13 -0.01 1.78 -6.89 18.97 4.28 0.67 -0.19 153
0.11 -0.01 1.17 -6.59 18.80 4.28 0.75 -0.22 160
0.09 -0.01 0.72 -5.83 18.57 4.28 0.80 -0.24 167
0.11 -0.01 0.12 -5.78 18.02 4.28 0.78 -0.25 175
0.06 -0.01 -0.18 -5.83 18.07 4.28 0.75 -0.24 182
0.04 -0.00 -0.37 -5.79 20.41 4.28 0.66 -0.23 189
0.02 -0.00 -0.34 -6.04 24.87 4.28 0.38 -0.24 196
0.02 -0.00 0.91 -5.87 23.93 4.28 0.09 -0.26 203
0.01 -0.00 3.11 -2.97 20.70 4.28 -0.14 -0.27 210
0.00 -0.00 4.95 -0.47 13.59 4.28 -0.09 -0.28 218
0.00 0.00 6.64 3.71 10.69 3.77 0.23 -0.27 225
0.00 0.00 7.47 10.62 7.56 3.07 0.73 -0.43 232
0.00 0.00 7.36 14.10 7.32 2.47 1.75 -0.72 239
0.00 0.00 1.50 21.81 7.07 2.11 2.41 -1.55 246
0.00 0.00 -0.86 11.06 25.97 1.44 2.34 -2.30 253
0.00 0.00 -2.50 8.88 23.47 -0.55 2.00 -2.70 261
0.00 0.00 -3.64 11.29 15.35 -1.35 1.49 -2.85 268
0.00 0.00 -3.24 11.56 12.12 -1.85 0.73 -2.93 275
0.00 0.00 -1.85 10.08 9.39 -2.34 0.00 -2.96 282
0.00 0.00 -0.76 8.30 8.73 -2.66 -0.44 -2.95 289
0.00 -0.00 -0.08 6.38 9.06 -2.78 -0.72 -2.91 295
0.00 0.00 0.54 5.16 8.47 -2.89 -0.87 -2.83 303
0.00 0.00 1.16 5.12 8.79 -2.96 -0.96 -2.75 309
0.00 0.00 1.71 4.96 8.20 -3.06 -1.01 -2.62 316
0.00 0.00 2.14 4.81 7.69 -3.14 -0.99 -2.49 322
0.00 0.00 2.60 4.66 7.50 -3.27 -0.87 -2.32 329
0.00 0.00 2.97 4.46 7.35 -3.40 -0.67 -2.14 335
0.00 0.00 3.25 4.14 7.54 -3.49 -0.42 -1.90 343
0.00 0.00 3.33 3.72 7.87 -3.60 -0.09 -1.70 349
0.00 0.00 3.21 3.14 8.49 -3.73 0.31 -1.44 355
0.00 0.00 3.07 2.65 9.13 -3.83 0.71 -1.08 362
0.00 0.00 2.59 2.38 9.44 -3.94 1.06 -0.84 368
0.00 0.00 1.92 2.04 9.86 -4.04 1.30 -0.53 374
0.01 -0.00 1.33 1.74 10.44 -4.13 1.43 -0.23 380
0.00 0.00 0.74 1.01 10.90 -4.19 1.49 0.05 388
0.00 0.00 0.29 0.04 11.68 -4.23 1.44 0.35 395
0.00 0.00 0.07 -0.59 12.29 -4.25 1.42 0.56 402
0.00 0.00 0.17 -1.27 12.79 -4.25 1.41 0.75 409
0.00 0.00 0.08 -2.38 13.28 -4.22 1.45 0.85 416
0.00 0.00 0.06 -2.44 13.57 -4.19 1.58 0.88 423
0.00 0.00 -0.07 -3.11 13.88 -4.15 1.77 0.85 431
0.00 0.00 -0.34 -3.29 14.20 -4.10 1.96 0.79 438
0.00 0.00 -0.96 -3.48 15.03 -4.05 2.16 0.70 445
0.00 0.00 -1.78 -3.41 15.74 -3.99 2.30 0.62 452
0.00 0.00 -2.68 -3.45 16.20 -3.92 2.38 0.59 459
0.00 0.00 -3.47 -3.58 16.36 -3.84 2.35 0.58 466
0.00 0.00 -4.18 -3.96 16.83 -3.74 2.25 0.58 474
0.00 0.00 -5.12 -4.56 17.02 -3.61 1.98 0.57 481
0.00 0.00 -5.44 -5.34 17.73 -3.49 1.63 0.53 488
0.00 0.00 -5.47 -5.79 17.80 -3.32 1.24 0.48 495
0.00 0.00 -4.66 -6.27 18.17 -3.20 0.83 0.39 502
0.00 0.00 -3.84 -6.57 18.42 -3.12 0.54 0.30 509
0.00 0.00 -2.81 -7.13 18.64 -3.12 0.31 0.19 517
0.00 0.00 -1.91 -7.71 18.82 -3.15 0.20 0.10 524
0.00 0.00 -1.31 -8.38 18.85 -3.19 0.15 0.05 531
0.00 0.00 -0.86 -9.11 18.36 -3.20 0.19 0.03 538
0.00 -0.00 -0.66 -9.71 17.69 -3.18 0.28 0.04 545
0.00 0.00 -0.79 -10.49 17.17 -3.10 0.36 0.06 552
0.00 0.00 -0.98 -11.60 16.57 -3.01 0.40 0.12 560
0.00 0.00 -0.67 -24.53 20.44 -2.76 0.37 0.20 567
0.00 0.00 1.43 -12.27 4.04 -1.75 0.56 0.31 574
0.00 0.00 -2.14 -11.09 6.91 -2.16 0.42 0.40 581
0.00 0.00 -1.92 -18.67 11.97 -2.38 0.20 0.51 588
0.00 0.00 -2.43 -16.48 10.98 -2.11 0.32 0.61 595
0.00 0.00 -3.95 -16.26 13.64 -2.20 0.22 0.61 603
0.00 0.00 -2.25 -21.33 13.33 -2.27 0.08 0.58 610
0.00 0.00 -1.36 -17.01 11.32 -2.02 0.18 0.51 617
0.00 0.00 -1.46 -21.70 12.73 -1.82 0.28 0.43 624
0.00 0.00 -1.39 -24.11 13.33 -1.30 0.52 0.31 631
0.00 0.00 -1.29 -22.19 -7.67 -1.00 0.77 0.19 638
0.00 -0.00 -2.26 -23.28 15.79 -0.04 0.98 0.01 646
0.00 0.00 -3.65 -25.68 3.06 0.07 0.86 -0.16 653
0.00 0.00 -4.49 -25.04 7.17 0.80 0.65 -0.37 660
0.00 -0.00 -4.94 -25.83 3.23 1.42 0.16 -0.60 667
0.00 -0.00 -3.34 -29.78 0.05 1.88 -0.33 -0.86 674
0.00 0.01 -2.64 -29.65 -1.16 2.41 -0.82 -1.08 683
0.01 0.04 1.13 0.47 2.77 3.18 -0.97 -1.22 689
-0.00 0.08 3.04 -3.04 12.75 3.67 -0.95 -1.24 697
-0.02 0.25 6.22 0.47 27.81 3.99 -1.11 -1.08 704
-0.01 0.44 4.74 -0.04 21.85 3.48 -1.05 -0.82 711
-0.03 0.57 3.92 -2.55 19.11 2.96 -1.07 -0.59 718
-0.03 0.54 2.34 -3.66 15.51 2.69 -1.08 -0.32 726
-0.06 0.60 1.77 -3.91 15.30 2.81 -0.87 -0.06 732
-0.03 0.61 -0.22 -3.61 20.45 3.03 -0.64 0.06 740
-0.03 0.65 -2.23 -2.23 22.83 2.02 -1.33 -0.05 747
-0.04 0.64 0.79 -1.82 11.71 0.47 -0.64 -0.07 754
-0.05 0.66 0.01 -1.99 10.80 0.14 -0.17 -0.01 760
-0.04 0.66 0.26 -1.19 10.04 0.08 -0.05 0.02 768
-0.05 0.59 0.24 -0.85 9.93 0.05 0.01 0.00 775
-0.00 0.61 0.42 -0.80 9.87 0.02 0.05 -0.01 782
0.00 0.62 0.49 -0.93 9.78 -0.00 0.06 -0.01 789
0.00 0.63 0.36 -0.94 9.78 -0.01 0.07 -0.01 796
-0.01 0.65 0.28 -0.92 9.86 -0.03 0.07 -0.02 803
-0.02 0.64 0.36 -0.91 9.85 -0.03 0.07 -0.02 811
-0.01 0.69 0.39 -0.83 9.79 -0.04 0.08 -0.03 818
0.03 0.67 0.44 -0.81 9.80 -0.03 0.08 -0.03 825
0.03 0.67 0.48 -0.69 9.96 -0.04 0.08 -0.03 832
0.04 0.68 0.47 -0.81 9.82 -0.03 0.08 -0.03 839
0.02 0.72 0.48 -0.81 9.24 -0.03 0.08 -0.04 846
0.03 0.67 0.54 -0.76 9.76 -0.02 0.08 -0.04 854
0.02 0.69 0.37 -0.76 9.81 -0.02 0.07 -0.04 861
0.03 0.68 0.46 -0.76 9.75 -0.01 0.07 -0.04 868
0.04 0.67 0.45 -0.77 9.80 -0.01 0.07 -0.05 875
0.03 0.65 0.45 -0.76 9.82 -0.01 0.07 -0.05 882
0.02 0.65 0.46 -0.75 9.79 -0.01 0.07 -0.05 889
0.01 0.65 0.43 -0.73 9.75 -0.00 0.06 -0.05 897
0.00 0.64 0.43 -0.77 9.78 -0.00 0.07 -0.05 904
-0.00 0.62 0.45 -0.77 9.81 -0.00 0.07 -0.05 911
0.00 0.60 0.44 -0.73 9.75 -0.00 0.07 -0.05 918
-0.00 0.59 0.57 -0.69 9.72 -0.00 0.07 -0.05 925
-0.00 0.58 0.47 -0.74 9.74 0.00 0.06 -0.05 932
-0.01 0.56 0.45 -0.73 9.79 0.00 0.06 -0.05 940
-0.01 0.53 0.43 -0.75 9.78 0.00 0.07 -0.06 947
-0.00 0.51 0.45 -0.75 9.79 0.01 0.07 -0.06 954
0.02 0.47 0.45 -0.76 9.74 0.01 0.07 -0.06 961
0.00 0.44 0.43 -0.77 9.81 0.01 0.07 -0.06 968
0.00 0.44 0.49 -0.76 9.80 0.01 0.08 -0.06 975
0.00 0.42 0.46 -0.74 9.80 0.00 0.08 -0.07 983
0.00 0.39 0.45 -0.78 9.81 0.00 0.09 -0.06 990
0.00 0.44 0.44 -0.78 9.72 0.01 0.09 -0.05 997
0.02 0.41 0.48 -0.75 9.75 0.01 0.10 -0.06 1004
0.01 0.38 0.49 -0.79 9.77 0.01 0.10 -0.06 1011
0.00 0.36 0.50 -0.75 9.68 0.02 0.10 -0.06 1018
0.02 0.33 0.51 -0.77 9.75 0.02 0.10 -0.06 1026
0.02 0.30 0.55 -0.76 9.75 0.02 0.10 -0.06 1033
0.03 0.27 0.58 -0.80 9.73 0.03 0.09 -0.06 1040
0.02 0.28 0.54 -0.80 9.74 0.03 0.09 -0.07 1047
0.02 0.23 0.53 -0.82 9.79 0.02 0.08 -0.07 1054
0.02 0.20 0.55 -0.78 9.74 0.02 0.07 -0.07 1061
0.01 0.20 0.56 -0.80 9.74 0.02 0.07 -0.06 1069
0.02 0.19 0.55 -0.80 9.79 0.02 0.07 -0.07 1076
0.03 0.16 0.53 -0.82 9.81 0.02 0.06 -0.07 1083
0.04 0.12 0.50 -0.81 9.71 0.02 0.06 -0.07 1090
0.02 0.09 0.47 -0.84 9.80 0.02 0.06 -0.07 1097
0.02 0.08 0.58 -0.82 9.79 0.02 0.06 -0.07 1104
0.02 0.10 0.54 -0.82 9.75 0.02 0.05 -0.07 1112
0.03 0.09 0.56 -0.80 9.79 0.03 0.04 -0.07 1119
0.05 0.04 0.59 -0.81 9.75 0.03 0.01 -0.08 1126
0.05 0.04 0.59 -0.79 9.74 0.03 -0.02 -0.08 1133
0.04 0.05 0.60 -0.87 9.75 0.03 -0.04 -0.08 1140
0.04 0.02 0.63 -0.85 9.81 0.04 -0.05 -0.08 1147
0.06 0.01 0.55 -0.86 9.81 0.04 -0.05 -0.08 1155
0.08 0.01 0.48 -0.86 9.80 0.03 -0.05 -0.09 1162
0.10 -0.01 0.54 -0.88 9.77 0.04 -0.04 -0.09 1169
0.09 0.01 0.51 -0.84 9.78 0.04 -0.04 -0.10 1176
0.14 0.00 0.46 -0.88 9.83 0.04 -0.02 -0.10 1183
0.16 -0.00 0.49 -0.90 9.83 0.05 0.00 -0.10 1190
0.21 -0.02 0.45 -0.91 9.84 0.06 0.02 -0.10 1198
0.29 -0.02 0.52 -0.90 9.88 0.07 0.04 -0.11 1205
0.35 -0.02 0.49 -0.90 9.91 0.09 0.06 -0.12 1212
0.33 -0.02 0.58 -0.89 9.92 0.13 0.08 -0.13 1219
0.36 -0.02 0.62 -0.94 10.04 0.17 0.11 -0.16 1227
0.40 -0.02 0.73 -0.98 10.06 0.25 0.14 -0.18 1234
0.42 -0.02 0.68 -1.02 10.20 0.39 0.21 -0.20 1241
0.50 -0.03 0.03 -1.13 10.56 0.57 0.27 -0.21 1248
0.51 -0.03 0.66 -1.11 10.98 0.88 0.34 -0.22 1256
0.52 -0.03 0.57 -1.28 11.64 1.22 0.37 -0.22 1263
0.59 -0.03 0.73 -1.34 11.83 1.55 0.33 -0.23 1270
0.65 -0.03 0.81 -1.56 12.13 1.71 0.19 -0.24 1277
0.71 -0.02 0.81 -1.71 12.16 1.79 0.05 -0.26 1285
0.76 -0.02 0.66 -1.57 12.26 1.88 -0.02 -0.25 1292
0.80 -0.03 0.64 -1.69 12.37 1.98 -0.10 -0.25 1299
0.83 -0.04 0.54 -1.23 12.30 2.13 -0.16 -0.25 1306
0.85 -0.04 0.50 -1.93 12.34 2.31 -0.17 -0.23 1313
0.83 -0.03 0.42 -2.11 12.17 2.49 -0.22 -0.23 1320
0.83 -0.02 0.40 -2.26 11.92 2.67 -0.22 -0.23 1328
0.81 -0.04 0.42 -2.42 13.16 2.87 -0.22 -0.21 1335
0.80 -0.04 0.45 -2.43 14.07 3.13 -0.18 -0.19 1342
0.77 -0.04 0.47 -2.71 14.65 3.50 -0.17 -0.17 1349
0.68 -0.03 1.16 -3.08 15.23 3.85 -0.15 -0.19 1356
0.53 -0.03 1.40 -3.26 15.11 4.18 -0.17 -0.24 1363
0.34 -0.00 0.86 -4.17 16.56 4.28 -0.17 -0.29 1371
0.33 -0.00 0.61 -4.55 17.48 4.28 -0.30 -0.31 1378
0.29 -0.01 1.80 -6.05 19.83 4.28 -0.23 -0.33 1385
0.16 -0.01 1.76 -7.66 21.40 4.28 -0.20 -0.40 1392
0.10 -0.00 2.36 -8.92 24.00 4.28 -0.13 -0.42 1399
0.08 -0.01 2.77 -9.09 23.74 4.28 -0.04 -0.46 1405
0.06 -0.01 2.91 -8.28 22.22 4.28 0.11 -0.53 1413
0.04 -0.00 1.78 -6.83 22.01 4.28 0.31 -0.60 1420
0.06 -0.01 0.97 -5.76 22.16 4.28 0.42 -0.65 1427
0.05 -0.00 0.01 -5.46 22.63 4.28 0.40 -0.68 1434
0.04 -0.00 -1.08 -4.97 26.12 4.28 0.17 -0.70 1441
0.07 -0.01 -0.37 -3.98 29.40 4.28 -0.37 -0.72 1448
0.05 -0.01 0.92 -3.06 30.86 4.28 -0.95 -0.76 1456
0.00 -0.00 3.71 3.57 29.35 4.28 -1.33 -0.74 1463
0.00 0.00 6.94 8.87 18.05 4.28 -1.22 -0.68 1470
0.00 0.00 8.96 13.21 8.42 3.97 -0.91 -0.65 1477
0.00 0.00 8.60 25.18 3.15 2.77 -0.15 -0.76 1484
-0.00 0.02 4.07 25.01 -5.16 2.19 0.68 -1.32 1491
0.00 0.00 4.98 11.60 30.24 1.09 1.44 -1.73 1499
0.00 0.00 2.56 11.29 25.95 -0.91 1.53 -1.72 1506
0.00 0.00 -0.38 14.23 16.87 -1.88 1.24 -1.59 1513
0.00 0.00 -0.42 14.93 11.60 -2.44 0.71 -1.41 1520
0.00 0.00 0.28 13.59 8.24 -3.09 0.21 -1.26 1527
0.00 0.00 1.22 10.55 8.54 -3.35 -0.25 -1.10 1534
0.00 0.00 2.03 7.95 9.00 -3.42 -0.46 -0.96 1542
0.00 0.00 2.85 7.13 9.12 -3.50 -0.55 -0.86 1549
0.00 0.00 3.61 6.87 8.63 -3.59 -0.53 -0.76 1556
0.00 0.00 3.86 6.61 7.94 -3.76 -0.48 -0.70 1563
0.00 0.00 3.99 6.23 7.75 -4.00 -0.39 -0.63 1570
0.00 0.00 4.14 5.65 8.28 -4.15 -0.28 -0.54 1577
0.00 0.00 4.35 4.99 8.89 -4.25 -0.12 -0.48 1585
0.00 0.00 4.25 4.09 9.53 -4.28 0.07 -0.39 1592
0.00 0.00 4.28 3.29 9.95 -4.28 0.29 -0.29 1599
0.00 0.00 4.29 2.39 10.49 -4.28 0.56 -0.17 1606
0.00 0.00 3.96 1.50 10.76 -4.28 0.79 -0.05 1613
0.00 0.00 3.67 0.65 11.11 -4.28 0.93 0.04 1620
0.00 0.00 3.37 -0.48 11.65 -4.28 1.06 0.14 1628
0.00 0.00 3.25 -1.55 12.17 -4.28 1.15 0.22 1635
0.00 0.00 3.12 -2.69 12.93 -4.28 1.23 0.27 1642
0.00 0.00 2.95 -3.71 14.46 -4.28 1.29 0.31 1649
0.00 0.00 2.67 -4.61 15.56 -4.28 1.35 0.33 1656
0.00 0.00 2.28 -5.69 16.32 -4.28 1.45 0.33 1664
0.00 0.00 2.13 -6.39 16.51 -4.28 1.50 0.30 1671
0.00 0.00 2.04 -7.43 16.72 -4.28 1.56 0.29 1678
0.00 0.00 2.14 -7.78 16.85 -4.26 1.58 0.29 1685
0.00 0.00 1.85 -8.08 17.49 -4.21 1.60 0.30 1692
0.00 0.00 1.60 -8.73 16.94 -4.07 1.64 0.35 1699
0.00 -0.00 1.28 -8.96 18.01 -3.86 1.68 0.42 1707
0.00 0.00 0.86 -8.85 17.83 -3.58 1.69 0.47 1714
0.00 0.00 0.46 -8.59 18.20 -3.37 1.64 0.51 1721
0.00 0.00 0.29 -8.74 19.01 -3.24 1.56 0.51 1728
0.00 0.00 0.10 -8.93 18.81 -3.16 1.47 0.48 1735
-0.00 0.00 0.23 -9.67 19.04 -3.14 1.42 0.40 1742
0.00 0.00 0.10 -10.27 18.87 -3.11 1.38 0.31 1750
0.00 0.00 -0.11 -10.75 17.90 -3.04 1.34 0.22 1757
0.00 0.00 -0.33 -11.12 17.22 -2.99 1.29 0.15 1764
0.00 0.00 -0.86 -11.48 16.99 -2.84 1.21 0.12 1771
0.00 0.00 -1.39 -11.48 16.80 -2.69 1.14 0.14 1778
0.00 0.00 -1.88 -11.61 17.30 -2.54 1.10 0.21 1785
0.00 0.00 -2.16 -11.61 17.98 -2.46 1.07 0.35 1793
0.00 0.00 -2.25 -12.07 18.52 -2.49 1.04 0.51 1800
0.00 0.00 -2.34 -12.82 17.78 -2.62 1.02 0.64 1807
0.00 0.00 -2.26 -14.05 16.25 -2.78 1.03 0.80 1814
0.00 0.00 -2.29 -15.25 13.67 -2.93 1.06 0.97 1821
0.00 0.00 -2.48 -16.97 11.59 -2.93 1.13 1.07 1828
0.00 0.00 -2.87 -18.91 9.44 -2.78 1.14 1.20 1836
0.00 0.00 -3.71 -20.48 7.82 -2.45 1.08 1.29 1843
0.00 0.00 -4.29 -21.74 6.50 -2.01 0.96 1.35 1850
0.00 0.00 -4.87 -23.22 5.82 -1.61 0.82 1.36 1857
0.00 0.00 -5.28 -23.26 5.32 -1.18 0.64 1.33 1864
0.00 0.00 -5.31 -23.62 4.98 -0.89 0.43 1.25 1871
0.00 0.00 -5.08 -23.53 5.37 -0.60 0.25 1.13 1879
0.00 0.00 -4.68 -22.78 5.59 -0.34 0.06 0.95 1886
0.00 0.00 -4.22 -21.56 5.79 -0.11 -0.10 0.73 1893
0.00 0.00 -3.57 -20.00 6.11 0.17 -0.34 0.52 1900
0.00 0.00 -8.84 -40.38 61.59 1.12 -0.95 0.32 1907
0.00 0.00 -2.87 -19.24 8.40 2.46 -0.61 0.26 1914
-0.00 0.02 -1.94 -15.23 -1.86 2.77 -1.09 0.13 1922
-0.00 0.03 0.86 -0.35 1.10 2.58 -1.68 -0.03 1929
-0.00 0.04 -0.19 5.01 5.34 2.62 -1.22 0.05 1936
-0.01 0.10 4.11 4.79 13.50 2.86 -0.47 0.37 1943
-0.02 0.25 0.88 0.62 12.86 3.18 -0.16 0.49 1951
-0.03 0.51 -5.00 -1.88 18.40 3.77 -0.61 0.27 1958
-0.04 0.59 -2.63 -4.93 18.40 3.90 -1.10 -0.10 1966
-0.04 0.74 1.51 -4.27 18.32 3.85 -0.94 -0.13 1973
-0.05 0.83 0.56 -3.15 18.90 3.66 -0.36 0.05 1980
-0.06 0.98 -1.31 -2.37 17.05 3.40 -0.16 0.02 1987
-0.05 0.93 -0.38 -2.17 16.75 3.21 -0.18 -0.16 1994
-0.05 0.96 1.30 -3.46 26.90 3.19 -0.71 -0.30 2001
-0.05 0.96 2.03 -1.27 15.26 1.26 -1.70 -0.25 2009
-0.05 1.05 1.05 -3.51 12.74 0.43 -0.89 -0.04 2016
-0.06 1.03 0.43 -1.51 10.76 0.20 -0.37 0.04 2022
-0.06 1.04 -0.02 -0.56 10.02 0.13 -0.25 0.02 2029
-0.04 0.99 0.31 -0.75 9.85 0.07 -0.19 -0.04 2036
-0.02 0.93 0.79 -1.76 9.89 0.06 -0.11 -0.03 2043
-0.02 0.96 0.67 -1.20 9.86 0.03 -0.06 -0.02 2051
-0.03 0.97 0.46 -0.87 9.83 0.02 -0.04 -0.03 2058
-0.04 0.95 0.57 -0.91 9.87 0.01 -0.03 -0.04 2065
-0.03 0.97 3.08 -0.68 10.44 0.01 -0.02 -0.05 2072
-0.03 0.94 0.63 -0.81 9.77 0.01 -0.02 -0.05 2079
-0.02 0.90 0.58 -0.82 9.72 0.01 -0.02 -0.06 2086
-0.03 0.85 0.56 -0.85 9.76 0.01 -0.02 -0.06 2094
-0.03 0.82 0.54 -0.82 9.81 0.01 0.00 -0.06 2101
-0.02 0.73 0.51 -0.80 9.82 0.01 0.01 -0.06 2108
-0.01 0.68 0.51 -0.80 9.80 0.01 0.03 -0.06 2115
-0.00 0.64 0.48 -0.81 9.81 0.02 0.04 -0.06 2122
-0.02 0.63 0.50 -0.82 9.79 0.02 0.06 -0.05 2129
-0.00 0.57 0.52 -0.83 9.77 0.02 0.08 -0.05 2137
-0.00 0.58 0.52 -0.81 9.77 0.03 0.09 -0.04 2144
0.02 0.51 0.55 -0.82 9.72 0.03 0.09 -0.04 2151
0.03 0.46 0.62 -0.83 9.80 0.03 0.09 -0.04 2158
0.01 0.46 0.60 -0.80 9.70 0.03 0.10 -0.04 2165
0.01 0.37 0.63 -0.81 9.75 0.03 0.10 -0.05 2172
0.00 0.37 0.81 -0.91 9.69 0.04 0.09 -0.06 2180
0.00 0.35 0.61 -0.64 9.80 0.03 0.09 -0.06 2187
0.01 0.29 0.64 -0.84 9.68 0.03 0.09 -0.07 2194
0.04 0.26 0.66 -0.86 9.74 0.03 0.08 -0.07 2201
0.02 0.26 0.60 -0.86 9.81 0.03 0.08 -0.07 2208
0.01 0.26 0.59 -0.87 9.79 0.03 0.09 -0.07 2215
0.02 0.22 0.58 -0.90 9.78 0.03 0.09 -0.07 2223
0.01 0.20 0.61 -0.88 9.78 0.03 0.09 -0.06 2230
0.03 0.14 0.57 -0.89 9.77 0.02 0.09 -0.07 2237
0.06 0.13 1.21 -0.88 9.79 0.03 0.09 -0.06 2244
0.05 0.09 0.69 -0.88 9.77 0.03 0.08 -0.07 2251
0.05 0.08 0.71 -0.87 9.76 0.03 0.07 -0.07 2258
0.05 0.07 0.67 -0.89 9.77 0.03 0.07 -0.07 2266
0.04 0.08 0.68 -0.91 9.75 0.02 0.07 -0.07 2273
0.06 0.06 0.67 -0.92 9.77 0.02 0.06 -0.07 2280
0.07 0.08 0.64 -0.89 9.75 0.02 0.06 -0.07 2287
0.06 0.05 0.69 -0.86 9.76 0.02 0.05 -0.07 2294
0.06 0.07 0.62 -0.93 9.81 0.02 0.04 -0.08 2301
0.08 0.02 0.65 -0.87 9.78 0.02 0.03 -0.07 2309
0.07 0.02 0.67 -0.96 9.81 0.03 0.03 -0.08 2316
0.08 0.06 0.64 -0.92 9.81 0.02 0.02 -0.07 2323
0.08 0.03 0.65 -0.92 9.76 0.02 0.01 -0.08 2330
0.08 0.02 0.63 -0.92 9.76 0.02 0.00 -0.08 2337
0.06 0.01 0.66 -0.90 9.72 0.02 -0.00 -0.08 2344
0.06 0.02 0.67 -0.92 9.73 0.02 -0.01 -0.08 2352
0.09 -0.00 0.69 -0.94 9.73 0.02 -0.02 -0.09 2359
0.13 0.01 0.63 -0.91 9.75 0.02 -0.02 -0.09 2366
0.15 0.00 0.64 -0.97 9.79 0.03 -0.02 -0.08 2373
0.15 -0.00 0.70 -0.95 9.79 0.04 -0.02 -0.09 2380
0.14 -0.01 0.60 -0.93 9.82 0.04 -0.00 -0.09 2387
0.19 -0.02 0.66 -0.95 9.81 0.05 0.01 -0.09 2395
0.25 -0.01 0.66 -0.99 9.83 0.06 0.03 -0.10 2402
0.29 -0.01 0.68 -0.99 9.88 0.08 0.06 -0.11 2409
0.34 -0.02 0.65 -0.98 9.90 0.11 0.09 -0.12 2416
0.36 -0.01 0.62 -1.07 9.97 0.17 0.14 -0.13 2423
0.45 -0.04 0.63 -1.00 10.10 0.25 0.21 -0.13 2432
0.44 -0.03 0.55 -1.06 10.44 0.42 0.32 -0.13 2439
0.50 -0.03 0.69 -1.18 10.78 0.66 0.46 -0.12 2446
0.51 -0.03 0.71 -1.13 11.29 1.04 0.56 -0.12 2453
0.55 -0.03 0.89 -1.34 11.80 1.48 0.59 -0.14 2460
0.63 -0.03 0.99 -1.53 12.36 1.75 0.46 -0.16 2467
0.68 -0.03 1.10 -1.71 12.84 1.93 0.27 -0.18 2475
0.71 -0.03 0.90 -1.78 12.53 2.01 0.09 -0.21 2482
0.76 -0.03 1.08 -1.75 12.44 2.11 -0.05 -0.22 2489
0.80 -0.04 0.94 -1.83 12.22 2.22 -0.15 -0.24 2496
0.79 -0.03 0.97 -1.83 12.39 2.33 -0.20 -0.24 2503
0.82 -0.04 0.80 -2.14 12.29 2.51 -0.25 -0.24 2510
0.80 -0.04 0.91 -2.40 12.39 2.71 -0.25 -0.26 2518
0.82 -0.03 0.86 -2.41 12.00 2.89 -0.21 -0.25 2525
0.82 -0.02 0.96 -2.62 11.79 3.07 -0.16 -0.25 2532
0.81 -0.03 0.70 -2.87 12.22 3.22 -0.04 -0.25 2539
0.71 -0.03 -0.11 -2.86 13.77 3.49 0.07 -0.21 2546
0.64 -0.04 -0.01 -3.40 14.29 3.83 0.20 -0.14 2552
0.45 -0.02 0.12 -3.95 16.03 4.11 0.16 -0.09 2561
0.37 -0.02 1.80 -4.17 15.75 4.28 0.33 -0.12 2568
0.28 -0.01 1.15 -4.91 16.26 4.28 0.48 -0.18 2575
0.22 -0.02 0.77 -6.24 18.39 4.28 0.60 -0.17 2582
0.20 -0.01 1.39 -8.29 21.98 4.28 0.89 -0.13 2589
0.18 -0.02 2.67 -9.21 22.60 4.28 1.20 -0.07 2595
0.13 -0.01 2.64 -9.30 23.66 4.28 1.58 -0.06 2603
0.10 -0.01 1.82 -8.34 24.04 4.28 1.90 -0.06 2610
0.09 -0.00 0.36 -7.73 24.18 4.28 2.05 -0.05 2617
0.06 -0.01 -0.85 -8.14 23.11 4.28 2.12 0.02 2624
0.03 -0.00 -0.86 -7.16 25.68 4.28 2.17 0.12 2631
0.04 -0.00 -0.34 -7.13 32.06 4.28 2.05 0.07 2638
0.00 0.00 1.52 -5.75 32.77 4.28 1.71 -0.05 2646
0.01 -0.00 1.41 -1.86 30.40 4.28 1.31 -0.20 2653
0.02 -0.00 2.47 6.88 24.70 4.28 1.18 -0.27 2660
0.00 -0.00 4.33 13.12 15.77 4.27 1.23 -0.37 2667
0.00 0.00 5.37 21.98 7.80 3.21 1.49 -0.51 2674
0.00 0.00 -2.52 28.53 1.30 2.08 1.98 -1.39 2681
0.00 0.00 -0.99 14.45 25.70 1.55 1.39 -2.39 2689
0.00 0.00 -1.12 9.43 29.64 -0.63 1.29 -2.67 2696
0.00 0.00 -3.51 12.46 18.13 -1.87 1.04 -2.80 2703
0.00 0.00 -3.87 13.66 13.50 -2.33 0.68 -2.89 2710
0.00 0.00 -3.10 12.12 10.52 -2.82 0.00 -2.95 2717
0.00 0.00 -1.95 10.21 9.65 -3.04 -0.49 -3.03 2724
0.00 0.00 -0.33 8.05 10.96 -3.17 -0.88 -3.02 2732
0.00 0.00 0.75 7.60 9.83 -3.34 -1.11 -2.98 2739
0.00 0.00 1.39 7.79 9.16 -3.60 -1.16 -2.89 2746
0.00 0.00 2.22 7.36 8.80 -3.87 -1.13 -2.75 2753
0.00 0.00 2.74 6.48 8.83 -4.09 -1.06 -2.58 2760
0.00 0.00 3.17 5.73 8.88 -4.22 -0.99 -2.42 2767
0.00 0.00 3.55 4.72 9.02 -4.27 -0.91 -2.24 2775
0.00 0.00 3.85 3.89 9.15 -4.28 -0.81 -2.07 2782
0.00 0.00 4.19 2.84 9.38 -4.28 -0.60 -1.84 2789
0.00 0.00 4.59 2.11 9.64 -4.28 -0.37 -1.58 2796
0.00 0.00 4.62 1.97 9.83 -4.28 -0.11 -1.33 2803
0.00 0.00 4.38 1.82 9.90 -4.28 0.11 -1.03 2810
-0.00 0.00 4.33 1.54 10.10 -4.28 0.29 -0.73 2818
0.00 0.00 4.34 0.93 10.68 -4.28 0.49 -0.49 2825
0.00 0.00 4.34 0.08 11.46 -4.28 0.71 -0.24 2832
0.00 0.00 4.44 -0.66 12.59 -4.28 0.90 -0.05 2839
0.00 0.00 4.23 -1.62 13.70 -4.28 1.11 0.11 2846
0.00 0.00 3.78 -2.30 14.84 -4.28 1.28 0.21 2853
-0.00 0.01 3.23 -3.45 15.52 -4.28 1.50 0.25 2861
0.00 0.00 2.84 -4.55 16.31 -4.28 1.70 0.25 2868
0.00 0.00 2.36 -5.47 17.03 -4.28 1.86 0.22 2875
0.00 0.00 1.67 -6.68 17.46 -4.27 2.03 0.18 2882
0.00 0.00 1.27 -7.16 17.43 -4.24 2.16 0.19 2889
0.00 0.00 0.44 -7.96 17.85 -4.12 2.24 0.21 2896
0.00 0.00 -0.03 -8.63 17.80 -3.89 2.26 0.26 2904
0.00 -0.00 -0.46 -8.63 18.49 -3.56 2.22 0.31 2911
0.00 0.00 -0.71 -8.52 18.87 -3.27 2.12 0.37 2918
0.00 0.00 -0.45 -8.40 19.31 -3.07 1.94 0.42 2925
0.00 0.00 0.00 -8.64 19.71 -2.93 1.83 0.43 2932
0.00 0.00 0.78 -9.18 20.63 -2.84 1.78 0.43 2939
0.00 0.00 1.17 -9.93 21.28 -2.89 1.85 0.43 2947
0.00 0.00 0.97 -10.71 21.22 -2.98 1.98 0.43 2954
0.00 0.00 0.67 -11.33 20.75 -3.07 2.08 0.44 2961
0.00 0.00 0.00 -11.95 20.09 -3.18 2.16 0.47 2968
0.00 0.00 -0.92 -12.57 19.65 -3.30 2.14 0.54 2975
0.00 0.00 -1.90 -13.27 19.07 -3.35 2.01 0.65 2982
0.00 0.00 -2.93 -14.50 18.63 -3.40 1.72 0.77 2990
0.00 0.00 -3.10 -16.18 17.79 -3.40 1.38 0.92 2997
0.00 0.00 -2.79 -17.82 15.61 -3.36 1.09 1.05 3004
0.00 0.00 -2.22 -19.36 13.86 -3.27 0.83 1.16 3011
0.00 0.00 -1.55 -20.89 11.33 -3.11 0.70 1.24 3018
0.00 0.00 -0.69 -22.40 9.46 -2.87 0.65 1.25 3025
0.00 0.00 -0.38 -23.98 7.64 -2.60 0.71 1.24 3033
0.00 0.00 -0.56 -24.94 5.78 -2.19 0.85 1.17 3040
0.00 0.00 -1.24 -25.89 4.27 -1.74 1.05 1.15 3047
0.00 0.00 -2.42 -26.53 3.91 -1.33 1.15 1.09 3054
0.00 0.00 -2.52 -26.77 4.02 -0.87 1.10 1.01 3061
0.00 0.00 -2.93 -26.23 4.12 -0.41 0.88 0.89 3068
0.00 0.00 -2.73 -24.88 4.65 -0.04 0.58 0.78 3076
0.00 0.00 -2.01 -22.41 5.64 0.31 0.21 0.67 3083
0.00 0.00 -2.68 -25.42 2.98 0.54 -0.19 0.60 3090
0.00 0.00 -5.06 -24.22 3.35 2.84 -1.18 1.01 3097
0.00 0.00 -0.17 -15.79 5.18 2.85 -1.55 1.23 3104
-0.00 0.04 3.06 -14.29 -4.13 2.95 -2.19 1.32 3111
0.00 0.05 1.43 3.64 3.49 3.09 -2.11 1.50 3119
-0.01 0.08 3.35 -0.95 11.25 3.34 -0.59 2.04 3126
-0.01 0.20 -1.44 4.20 17.21 3.84 0.02 2.31 3133
-0.04 0.46 -11.30 -2.55 23.37 4.18 -0.22 2.04 3141
-0.05 0.65 -12.54 -6.78 22.63 4.14 -0.83 1.24 3148
-0.05 0.78 -8.33 -7.24 20.92 4.07 -0.67 0.63 3155
-0.05 0.91 -7.80 -4.81 22.30 3.80 -0.27 0.04 3163
-0.05 0.89 -4.83 -2.05 20.03 3.29 -0.23 -0.61 3170
-0.05 0.88 1.37 -1.89 17.86 2.84 -0.26 -0.92 3177
-0.06 0.91 6.34 -2.52 20.75 2.76 -0.83 -0.74 3184
-0.06 0.89 4.75 -1.91 14.46 1.46 -1.75 -0.33 3191
-0.04 0.85 1.52 -2.48 12.49 0.77 -1.26 0.09 3198
-0.03 0.82 -0.25 -1.06 11.28 0.41 -0.77 0.10 3206
-0.03 0.84 -0.70 -0.77 10.65 0.17 -0.42 -0.01 3213
-0.03 0.79 0.25 -1.30 10.03 0.04 -0.22 -0.08 3219
-0.02 0.82 0.80 -1.78 9.74 0.03 -0.15 -0.05 3226
-0.04 0.83 0.53 -0.85 9.83 0.02 -0.12 -0.03 3233
0.00 0.78 0.25 -0.75 9.90 0.01 -0.09 -0.04 3240
0.02 0.77 0.33 -0.80 9.87 -0.00 -0.06 -0.07 3248
-0.01 0.76 0.45 -0.81 9.85 -0.00 -0.05 -0.07 3255
-0.01 0.68 0.63 -1.03 9.33 0.00 -0.03 -0.07 3262
-0.02 0.69 0.28 -0.71 9.78 0.01 -0.02 -0.08 3269
0.01 0.67 0.29 -0.83 9.85 0.01 -0.00 -0.07 3276
0.01 0.60 0.30 -0.84 9.89 0.02 0.01 -0.07 3283
0.01 0.53 0.31 -0.77 9.87 0.02 0.03 -0.07 3291
-0.00 0.50 0.34 -0.78 9.79 0.03 0.04 -0.07 3298
0.02 0.47 0.34 -0.79 9.81 0.03 0.04 -0.07 3305
0.02 0.40 0.32 -0.77 9.83 0.03 0.05 -0.07 3312
0.04 0.39 0.40 -0.84 9.81 0.03 0.05 -0.07 3319
0.05 0.32 0.45 -0.85 9.82 0.03 0.04 -0.08 3326
0.04 0.29 0.46 -0.84 9.71 0.03 0.03 -0.08 3334
0.04 0.23 0.47 -0.82 9.73 0.04 0.02 -0.09 3341
0.04 0.23 0.51 -0.85 9.77 0.03 0.01 -0.10 3348
0.05 0.15 0.47 -0.83 9.75 0.03 0.00 -0.11 3355
0.05 0.18 0.45 -0.81 9.76 0.03 -0.00 -0.11 3362
0.10 0.11 0.37 -0.87 9.80 0.03 0.00 -0.11 3369
0.09 0.07 0.32 -0.80 10.42 0.03 0.01 -0.11 3377
0.09 0.07 0.24 -0.86 9.71 0.04 0.02 -0.09 3384
0.08 0.07 0.29 -0.89 9.81 0.04 0.04 -0.09 3391
0.11 0.05 0.30 -0.88 9.80 0.04 0.04 -0.09 3398
0.15 0.03 0.34 -0.90 9.75 0.04 0.05 -0.08 3405
0.18 0.02 0.37 -0.88 9.80 0.03 0.05 -0.08 3412
0.19 0.03 0.43 -0.87 9.77 0.04 0.05 -0.08 3420
0.20 0.01 0.45 -0.91 9.77 0.03 0.05 -0.09 3427
0.20 0.01 0.39 -0.93 9.81 0.03 0.05 -0.09 3434
0.20 0.03 0.42 -0.89 9.78 0.03 0.04 -0.09 3441
0.21 0.01 0.46 -0.93 9.81 0.03 0.04 -0.10 3448
0.21 0.03 0.41 -0.90 9.80 0.03 0.04 -0.11 3456
0.24 0.01 0.40 -0.88 9.82 0.03 0.05 -0.10 3463
0.25 0.01 0.44 -0.91 9.81 0.04 0.05 -0.11 3470
0.27 -0.01 0.40 -0.90 9.81 0.04 0.05 -0.11 3477
0.29 -0.00 0.36 -0.87 9.87 0.04 0.05 -0.11 3484
0.33 -0.01 0.41 -0.92 9.83 0.05 0.05 -0.11 3491
0.35 -0.02 0.39 -0.94 9.83 0.06 0.06 -0.11 3499
0.39 -0.03 0.48 -0.98 9.83 0.08 0.06 -0.12 3506
0.40 -0.02 0.35 -0.95 9.83 0.09 0.07 -0.12 3513
0.42 -0.02 0.45 -0.94 9.82 0.11 0.08 -0.14 3520
0.43 -0.00 0.43 -1.01 9.87 0.14 0.09 -0.14 3527
0.49 -0.02 0.41 -1.01 9.88 0.17 0.11 -0.15 3534
0.51 -0.02 0.50 -1.07 9.89 0.24 0.13 -0.15 3542
0.56 -0.04 0.49 -1.12 10.05 0.33 0.15 -0.16 3550
0.59 -0.03 0.49 -1.07 10.40 0.45 0.18 -0.16 3556
0.67 -0.03 0.53 -1.13 10.68 0.64 0.22 -0.17 3564
0.72 -0.03 0.53 -1.24 10.70 0.86 0.26 -0.17 3571
0.80 -0.04 0.61 -1.39 11.32 1.08 0.26 -0.18 3578
0.82 -0.03 0.74 -1.35 11.33 1.26 0.22 -0.20 3586
0.83 -0.04 0.67 -1.43 11.46 1.37 0.14 -0.21 3593
0.91 -0.04 0.71 -1.63 11.14 1.45 0.09 -0.21 3600
0.95 -0.03 0.68 -1.96 11.34 1.51 -0.01 -0.21 3607
1.01 -0.04 0.66 -1.79 11.37 1.60 -0.03 -0.22 3614
1.08 -0.04 0.56 -1.83 11.30 1.70 -0.11 -0.21 3621
1.11 -0.04 0.58 -2.04 11.85 1.78 -0.20 -0.21 3629
1.10 -0.05 0.28 -2.00 11.78 1.89 -0.22 -0.21 3636
1.09 -0.05 0.42 -2.36 11.96 2.03 -0.28 -0.20 3642
1.11 -0.04 0.52 -2.42 12.28 2.21 -0.32 -0.19 3650
1.12 -0.04 0.34 -2.52 12.16 2.44 -0.37 -0.20 3657
1.14 -0.05 0.50 -2.66 11.98 2.65 -0.40 -0.19 3664
1.15 -0.05 0.46 -2.80 12.85 2.92 -0.39 -0.18 3672
1.10 -0.05 0.36 -2.86 12.97 3.24 -0.32 -0.18 3679
1.08 -0.04 0.18 -2.91 13.41 3.52 -0.27 -0.18 3686
1.00 -0.03 -0.13 -3.04 14.59 3.87 -0.23 -0.18 3693
0.95 -0.04 0.03 -3.91 15.86 4.18 -0.25 -0.15 3700
0.83 -0.03 0.81 -3.79 16.45 4.28 -0.29 -0.14 3707
0.55 -0.04 1.98 -5.17 17.87 4.28 -0.44 -0.24 3715
0.45 -0.03 2.06 -6.00 19.81 4.28 -0.56 -0.40 3722
0.32 -0.02 2.33 -7.98 21.62 4.28 -0.61 -0.52 3729
0.26 -0.01 2.41 -9.94 25.05 4.28 -0.63 -0.61 3736
0.20 -0.02 3.40 -12.11 26.88 4.28 -0.54 -0.70 3743
0.15 -0.02 3.54 -11.79 27.33 4.28 -0.22 -0.74 3750
0.12 -0.01 3.60 -9.93 25.74 4.28 -0.01 -0.85 3757
0.09 -0.01 1.62 -7.88 25.13 4.28 0.20 -0.92 3764
0.08 -0.01 0.32 -6.07 26.36 4.28 0.31 -0.96 3771
0.02 -0.00 -0.08 -4.46 31.03 4.28 0.10 -0.98 3778
0.02 -0.00 1.01 -2.61 32.66 4.28 -0.52 -1.05 3785
0.02 -0.00 3.09 0.72 33.06 4.28 -1.36 -1.13 3792
0.01 -0.00 5.83 14.15 13.36 4.28 -1.71 -1.12 3801
0.00 0.00 9.10 14.72 15.48 4.28 -1.57 -1.08 3807
0.00 0.00 8.41 20.18 4.20 3.53 -1.17 -1.18 3814
0.00 0.00 8.28 22.46 -6.09 2.65 -0.72 -1.80 3821
0.00 0.00 7.66 13.75 25.01 2.10 -0.08 -2.17 3828
0.00 0.00 6.62 10.22 29.06 -0.12 0.60 -2.19 3835
0.00 0.00 3.34 12.90 20.97 -1.57 0.89 -2.01 3843
0.00 0.00 1.29 14.35 13.34 -2.33 0.62 -1.79 3850
0.00 0.00 1.09 13.47 9.86 -3.14 0.09 -1.60 3857
0.00 0.00 2.23 10.96 8.75 -3.49 -0.34 -1.40 3864
0.00 0.00 3.18 8.34 8.42 -3.63 -0.53 -1.25 3871
0.00 0.00 3.81 6.83 7.94 -3.70 -0.56 -1.07 3878
0.00 0.00 4.39 6.67 6.93 -3.74 -0.41 -0.91 3886
0.00 0.00 4.97 6.41 6.31 -3.78 -0.13 -0.81 3893
0.00 0.00 4.69 6.03 6.20 -3.85 0.16 -0.70 3900
0.00 0.00 4.30 4.98 6.71 -3.96 0.38 -0.62 3907
0.00 0.00 3.82 4.84 7.68 -4.07 0.57 -0.51 3914
0.00 0.00 3.43 4.05 8.73 -4.14 0.70 -0.39 3921
0.00 0.00 3.29 3.40 9.42 -4.21 0.80 -0.27 3929
0.00 0.00 3.16 2.94 9.62 -4.26 0.92 -0.10 3936
0.00 0.00 3.05 2.65 10.15 -4.28 1.01 0.04 3943
0.00 0.00 2.85 2.17 10.61 -4.28 1.11 0.20 3950
0.00 0.00 2.65 1.45 11.23 -4.28 1.21 0.34 3957
0.00 0.00 2.65 0.64 11.69 -4.28 1.31 0.44 3964
0.00 0.00 2.42 -0.39 12.30 -4.28 1.38 0.55 3972
0.00 0.00 2.25 -1.41 12.98 -4.28 1.43 0.61 3979
0.00 0.00 2.19 -2.23 13.72 -4.28 1.48 0.64 3986
0.00 0.00 1.97 -3.17 14.63 -4.28 1.58 0.63 3993
0.00 0.00 1.93 -4.22 15.27 -4.28 1.72 0.60 4000
0.00 0.00 1.82 -5.71 15.53 -4.28 1.93 0.52 4007
0.00 0.00 0.90 -7.08 15.41 -4.26 2.10 0.43 4015
0.00 0.00 0.84 -7.65 16.56 -4.19 2.27 0.39 4022
0.00 0.00 0.25 -8.10 18.02 -4.03 2.34 0.39 4029
0.00 0.00 -0.76 -8.15 19.66 -3.84 2.32 0.42 4036
0.00 0.00 -1.28 -7.94 20.22 -3.70 2.24 0.51 4043
0.00 0.00 -1.17 -7.02 21.35 -3.67 2.02 0.60 4050
0.00 0.00 -0.92 -6.92 22.17 -3.77 1.78 0.65 4058
0.00 0.00 -0.51 -7.56 22.32 -3.96 1.53 0.69 4065
0.00 0.00 -0.02 -8.91 21.82 -4.06 1.44 0.70 4072
0.00 0.00 0.24 -10.12 20.55 -4.08 1.41 0.66 4079
0.00 0.00 0.29 -10.95 19.25 -4.02 1.44 0.60 4086
0.00 0.00 0.26 -11.63 18.54 -3.83 1.46 0.51 4093
0.00 0.00 0.02 -11.70 18.28 -3.61 1.49 0.40 4101
0.00 0.00 -0.13 -11.64 18.49 -3.41 1.50 0.31 4108
0.00 0.00 0.02 -11.75 18.98 -3.21 1.53 0.24 4115
0.00 0.00 0.11 -12.63 19.57 -3.10 1.52 0.18 4122
0.00 -0.00 -0.24 -16.99 21.15 -2.88 1.52 0.17 4129
0.00 0.00 1.45 -13.48 13.26 -2.76 1.50 0.18 4136
0.00 -0.00 0.27 -14.46 13.58 -2.95 1.45 0.15 4144
0.00 -0.00 -0.69 -17.05 16.86 -2.96 1.70 0.22 4151
0.00 -0.00 -2.74 -19.39 15.13 -2.77 2.11 0.40 4159
0.01 -0.00 -4.60 -20.43 12.76 -2.58 2.31 0.68 4166
0.00 0.00 -6.63 -22.47 10.67 -2.41 2.20 0.91 4172
0.00 0.00 -7.55 -26.23 8.37 -2.24 1.69 1.10 4179
0.00 0.00 -7.72 -28.74 4.79 -1.96 1.13 1.20 4187
0.01 -0.00 -7.01 -29.83 2.42 -1.55 0.59 1.28 4194
0.00 0.00 -6.07 -30.01 0.92 -1.06 0.32 1.25 4201
0.00 0.00 -5.23 -29.08 0.96 -0.40 0.15 1.15 4208
0.00 0.00 -4.43 -26.13 2.89 0.17 0.03 0.96 4215
0.00 0.00 -12.74 -39.66 26.33 1.12 -0.52 0.88 4224
0.00 0.00 -3.89 -23.19 -1.21 2.70 -1.11 1.02 4230
0.00 0.00 -4.62 -17.46 1.48 2.99 -1.68 0.93 4237
-0.00 0.01 -3.02 -23.26 1.51 2.94 -2.55 0.97 4244
-0.00 0.04 0.18 -3.24 5.34 3.05 -2.67 1.21 4251
-0.01 0.08 2.79 -0.06 9.33 3.25 -1.14 1.68 4258
-0.02 0.18 -0.10 3.47 20.34 3.84 -0.06 2.05 4265
-0.03 0.44 -9.89 -1.65 21.83 4.10 -0.26 1.95 4274
-0.02 0.61 -12.03 -4.79 23.03 4.08 -0.83 1.31 4281
-0.03 0.75 -8.26 -6.56 20.05 3.91 -0.98 0.60 4288
-0.03 0.78 -6.44 -4.24 19.96 3.70 -0.50 0.14 4295
-0.05 0.82 -4.73 -2.48 19.11 3.28 -0.30 -0.32 4302
-0.05 0.88 0.62 -1.80 17.11 2.98 -0.33 -0.68 4310
-0.04 0.89 4.50 -1.93 19.86 3.02 -0.52 -0.57 4317
-0.04 0.88 3.34 -1.73 17.33 1.52 -1.66 -0.26 4324
-0.05 0.91 1.64 -2.68 12.40 0.70 -1.06 0.06 4331
-0.05 0.88 -0.21 -1.45 11.02 0.24 -0.57 0.07 4338
-0.05 0.83 -0.63 -0.97 10.59 0.07 -0.28 -0.02 4345
-0.04 0.83 0.25 -1.15 10.05 0.03 -0.14 -0.07 4352
-0.05 0.84 0.74 -1.03 9.70 0.00 -0.08 -0.06 4359
-0.05 0.80 0.50 -0.93 9.87 -0.01 -0.07 -0.05 4366
-0.02 0.85 0.30 -0.86 10.01 -0.02 -0.06 -0.06 4373
-0.03 0.86 0.41 -0.85 9.75 -0.01 -0.03 -0.07 4380
-0.02 0.82 0.55 -0.77 9.88 -0.01 -0.02 -0.07 4387
-0.01 0.76 0.41 -0.75 9.79 -0.00 -0.02 -0.07 4395
0.02 0.75 0.34 -0.73 9.85 0.00 -0.01 -0.08 4402
0.03 0.68 0.34 -0.76 9.79 0.01 0.00 -0.08 4409
0.01 0.63 0.38 -0.79 9.88 0.01 0.01 -0.08 4416
0.03 0.55 0.35 -0.79 9.83 0.01 0.01 -0.07 4423
0.03 0.57 0.38 -0.77 9.83 0.02 0.02 -0.07 4430
0.03 0.54 0.34 -0.77 9.83 0.02 0.03 -0.07 4438
0.04 0.54 0.35 -0.77 9.81 0.02 0.03 -0.07 4445
0.03 0.51 0.39 -0.75 9.81 0.03 0.04 -0.07 4452
0.02 0.43 0.42 -0.80 9.81 0.03 0.04 -0.08 4459
0.02 0.40 0.38 -0.74 9.81 0.03 0.05 -0.08 4466
0.03 0.38 0.39 -0.80 9.82 0.03 0.05 -0.08 4473
0.06 0.32 0.45 -0.83 9.73 0.03 0.05 -0.09 4481
0.08 0.21 0.46 -0.79 9.78 0.03 0.05 -0.10 4488
0.07 0.17 0.44 -0.80 9.79 0.03 0.05 -0.10 4495
0.07 0.16 0.46 -0.79 9.77 0.03 0.05 -0.11 4502
0.07 0.14 0.44 -0.83 9.77 0.03 0.04 -0.10 4509
0.08 0.11 0.41 -0.84 9.81 0.04 0.04 -0.11 4516
0.09 0.10 0.34 -0.84 9.80 0.03 0.04 -0.10 4524
0.11 0.05 0.37 -0.82 9.81 0.03 0.05 -0.09 4531
0.12 0.03 0.42 -0.82 9.79 0.03 0.05 -0.10 4538
0.11 0.03 0.41 -0.86 9.81 0.03 0.05 -0.09 4545
0.13 0.04 0.51 -0.93 9.73 0.03 0.05 -0.09 4552
0.17 0.05 0.45 -0.83 9.78 0.03 0.05 -0.09 4559
0.18 0.04 0.46 -0.85 9.75 0.03 0.05 -0.10 4567
0.19 0.02 0.45 -0.84 9.77 0.02 0.05 -0.13 4574
0.20 -0.00 0.42 -0.87 9.77 0.03 0.05 -0.10 4581
0.21 -0.01 0.47 -0.85 9.78 0.03 0.05 -0.11 4588
0.23 0.00 0.39 -0.87 9.76 0.02 0.06 -0.10 4595
0.24 -0.01 0.40 -0.85 9.80 0.03 0.06 -0.10 4602
0.24 0.01 0.42 -0.84 9.82 0.03 0.06 -0.10 4610
0.26 0.01 0.45 -0.84 9.80 0.03 0.07 -0.10 4617
0.26 -0.00 0.37 -0.90 9.82 0.03 0.07 -0.10 4624
0.25 -0.02 0.41 -0.88 9.83 0.03 0.07 -0.10 4631
0.27 -0.02 0.45 -0.88 9.84 0.03 0.07 -0.10 4638
0.28 -0.01 0.42 -0.91 9.81 0.04 0.07 -0.10 4645
0.33 -0.02 0.46 -0.91 9.81 0.05 0.07 -0.10 4653
0.32 -0.02 0.45 -0.90 9.81 0.05 0.07 -0.10 4660
0.36 -0.03 0.45 -0.90 9.87 0.06 0.07 -0.11 4667
0.41 -0.02 0.48 -0.94 9.85 0.07 0.07 -0.11 4674
0.47 -0.03 0.52 -0.91 9.86 0.09 0.08 -0.11 4681
0.52 -0.02 0.49 -0.96 9.88 0.13 0.09 -0.11 4688
0.53 -0.02 0.45 -0.99 9.94 0.20 0.11 -0.12 4696
0.60 -0.03 0.49 -0.97 10.01 0.24 0.13 -0.13 4703
0.67 -0.04 0.50 -1.07 10.19 0.35 0.17 -0.14 4711
0.68 -0.03 0.48 -1.11 10.42 0.49 0.21 -0.15 4718
0.73 -0.02 0.54 -1.14 10.87 0.75 0.28 -0.16 4725
0.80 -0.03 0.67 -1.17 11.30 1.09 0.31 -0.18 4732
0.88 -0.03 0.74 -1.27 11.48 1.31 0.29 -0.19 4740
0.87 -0.04 0.81 -1.48 11.78 1.51 0.19 -0.21 4747
0.96 -0.04 0.68 -1.47 12.16 1.64 0.09 -0.22 4754
0.95 -0.03 1.34 -2.16 13.13 1.70 -0.05 -0.21 4761
0.99 -0.03 0.61 -1.59 12.02 1.84 -0.12 -0.22 4768
1.05 -0.03 0.56 -1.72 12.34 1.94 -0.17 -0.22 4775
1.07 -0.04 0.50 -1.80 12.50 2.10 -0.19 -0.22 4782
1.09 -0.05 0.47 -2.09 12.81 2.28 -0.23 -0.21 4790
1.12 -0.04 0.40 -2.16 12.31 2.48 -0.23 -0.21 4797
1.13 -0.04 0.43 -2.29 12.56 2.68 -0.23 -0.21 4804
1.11 -0.04 0.42 -2.32 12.70 2.85 -0.27 -0.22 4811
1.09 -0.04 0.39 -2.50 13.70 3.12 -0.22 -0.21 4818
1.05 -0.04 -0.11 -2.92 14.77 3.50 -0.18 -0.18 4826
0.93 -0.04 0.41 -3.60 15.00 3.86 -0.15 -0.16 4833
0.83 -0.03 1.25 -3.55 16.06 4.20 -0.14 -0.19 4840
0.62 -0.03 2.34 -4.40 15.88 4.28 -0.21 -0.28 4847
0.43 -0.01 1.60 -4.59 17.83 4.28 -0.29 -0.35 4854
0.36 -0.02 1.27 -5.54 20.84 4.28 -0.28 -0.43 4861
0.24 -0.02 1.92 -7.45 22.01 4.28 -0.30 -0.48 4869
0.17 -0.02 1.96 -9.60 25.96 4.28 -0.25 -0.50 4875
0.12 -0.01 2.60 -10.70 26.99 4.28 -0.09 -0.51 4883
0.09 -0.01 2.89 -10.01 26.21 4.28 0.16 -0.55 4890
0.09 -0.00 1.41 -7.21 23.25 4.28 0.42 -0.61 4897
0.11 -0.01 -0.51 -6.04 24.35 4.28 0.56 -0.65 4903
0.08 -0.01 -1.58 -5.93 27.26 4.28 0.30 -0.67 4911
0.03 -0.00 -0.83 -5.19 30.88 4.28 -0.33 -0.72 4918
0.04 -0.00 1.77 -3.20 31.46 4.28 -0.95 -0.80 4925
0.04 -0.00 3.79 0.68 30.88 4.28 -1.68 -0.88 4932
0.02 -0.00 3.71 6.92 13.30 4.28 -1.88 -0.81 4939
0.03 -0.00 9.28 15.89 14.71 4.28 -1.61 -0.76 4947
0.00 0.00 8.13 19.93 4.89 3.84 -0.90 -0.86 4954
0.00 0.00 6.72 26.75 -4.34 2.66 -0.26 -1.56 4961
0.00 0.00 8.12 16.65 22.32 1.63 0.56 -2.17 4968
0.00 0.00 6.48 11.95 25.82 -0.17 1.25 -2.32 4975
0.00 0.00 2.66 13.30 18.23 -1.46 1.70 -2.32 4982
0.00 0.00 0.80 14.84 12.73 -2.10 1.46 -2.27 4989
0.00 0.00 0.33 13.84 8.68 -2.83 1.04 -2.14 4997
0.00 0.00 0.83 11.15 8.82 -3.26 0.54 -2.03 5004
0.00 0.00 1.84 8.54 8.70 -3.44 0.22 -1.84 5011
0.00 0.00 2.05 7.04 8.76 -3.58 0.06 -1.68 5018
0.00 0.00 2.83 6.22 8.29 -3.69 -0.01 -1.49 5025
0.00 0.00 3.48 5.82 7.66 -3.83 0.01 -1.32 5032
0.00 0.00 3.72 5.44 7.46 -3.97 0.08 -1.22 5040
0.00 0.00 3.89 4.92 7.79 -4.09 0.22 -1.07 5047
0.00 0.00 3.89 4.24 8.18 -4.18 0.31 -0.94 5054
0.00 0.00 3.78 3.38 8.64 -4.23 0.48 -0.78 5061
0.00 0.00 3.86 2.58 9.35 -4.25 0.66 -0.59 5068
0.00 0.00 3.87 2.06 9.75 -4.27 0.90 -0.41 5075
0.00 0.00 3.59 1.64 9.92 -4.28 1.10 -0.21 5083
0.00 0.00 3.21 1.36 10.48 -4.28 1.23 -0.06 5090
0.00 0.00 2.82 0.83 10.92 -4.28 1.37 0.10 5097
0.00 0.00 2.67 -0.15 11.66 -4.28 1.47 0.23 5104
0.00 0.00 2.51 -1.04 12.43 -4.28 1.58 0.31 5111
0.00 0.00 2.31 -1.88 13.49 -4.28 1.65 0.35 5118
0.00 0.00 1.92 -2.65 14.60 -4.28 1.72 0.36 5126
0.00 0.00 1.63 -3.50 15.41 -4.28 1.84 0.33 5133
0.00 0.00 1.14 -4.58 15.79 -4.28 1.97 0.27 5140
0.00 0.00 0.66 -5.47 16.01 -4.28 2.11 0.19 5147
0.00 0.00 -0.08 -7.00 16.97 -4.26 2.22 0.09 5154
0.00 0.00 -0.75 -7.65 17.14 -4.21 2.29 0.03 5161
0.00 0.00 -1.48 -8.58 17.07 -4.07 2.27 -0.01 5169
0.00 0.00 -2.36 -9.18 17.57 -3.83 2.18 -0.02 5176
0.00 0.00 -2.70 -9.13 17.26 -3.51 2.06 -0.01 5183
0.00 0.00 -2.54 -8.15 17.27 -3.27 1.84 -0.01 5190
0.00 0.00 -2.10 -7.55 17.75 -3.13 1.67 -0.02 5197
0.00 0.00 -1.85 -7.18 18.58 -3.08 1.49 -0.04 5204
0.00 0.00 -1.65 -7.36 19.45 -3.08 1.41 -0.07 5212
0.00 0.00 -1.16 -7.68 19.58 -3.12 1.46 -0.12 5219
-0.00 0.00 -0.97 -7.82 18.94 -3.18 1.56 -0.20 5226
0.00 0.00 -1.17 -8.80 18.55 -3.21 1.69 -0.30 5233
0.00 0.00 -1.22 -9.74 17.75 -3.17 1.85 -0.40 5240
0.00 0.00 -1.48 -10.64 17.39 -3.04 2.01 -0.49 5248
0.00 0.00 -1.61 -11.35 17.56 -2.93 2.12 -0.54 5255
0.00 0.00 -2.14 -11.90 17.86 -2.82 2.16 -0.54 5262
0.00 0.00 -2.47 -12.34 18.08 -2.78 2.13 -0.49 5269
0.00 0.00 -2.79 -12.72 17.97 -2.79 1.97 -0.40 5276
0.00 0.00 -3.02 -13.78 17.25 -2.83 1.75 -0.24 5283
0.00 0.00 -2.80 -15.02 15.92 -2.84 1.59 -0.05 5291
0.00 0.00 -2.69 -16.20 14.20 -2.82 1.48 0.13 5298
0.00 0.00 -2.64 -17.47 12.03 -2.72 1.50 0.38 5305
0.00 0.00 -3.12 -18.36 9.34 -2.52 1.53 0.63 5312
0.00 0.00 -3.80 -19.67 8.68 -2.21 1.49 0.95 5319
0.00 0.00 -4.52 -21.40 7.23 -1.86 1.35 1.26 5326
0.00 0.00 -5.20 -22.60 5.68 -1.41 1.05 1.51 5334
0.00 0.00 -5.13 -23.38 4.25 -1.00 0.70 1.76 5341
0.00 0.00 -4.81 -23.95 3.96 -0.49 0.45 1.89 5348
0.00 0.00 -4.46 -23.86 3.99 -0.03 0.26 1.97 5355
0.00 0.00 -3.98 -23.30 4.69 0.31 0.20 1.96 5362
0.00 0.00 -3.87 -22.53 5.76 0.62 0.22 1.90 5369
0.00 0.00 -22.84 -33.37 50.35 2.52 -1.37 2.08 5378
0.00 0.00 -10.30 -21.07 9.97 2.71 -1.21 2.15 5384
-0.00 0.00 -6.61 -19.62 -1.47 2.99 -2.25 2.04 5391
0.02 0.04 -3.70 -10.90 3.98 3.00 -3.31 1.88 5398
-0.01 0.06 -4.33 8.47 7.16 3.20 -2.20 1.90 5405
-0.01 0.08 -2.14 1.76 17.27 3.38 -1.00 2.13 5412
-0.02 0.29 -9.03 3.76 18.06 3.69 -0.77 1.96 5421
-0.03 0.52 -12.67 -2.78 19.56 4.01 -1.03 1.40 5428
-0.03 0.69 -11.34 -6.61 19.75 4.04 -1.23 0.65 5435
-0.03 0.69 -7.70 -5.05 20.49 3.96 -0.94 0.05 5442
-0.03 0.78 -4.42 -3.63 21.57 3.60 -0.68 -0.39 5449
-0.04 0.84 0.82 -2.25 20.76 3.19 -0.56 -0.67 5456
-0.05 0.85 4.01 -3.04 23.32 2.93 -0.68 -0.61 5464
-0.04 0.89 3.15 -1.83 17.10 1.30 -1.56 -0.26 5471
-0.04 0.88 1.51 -2.26 11.75 0.57 -1.04 0.07 5478
-0.04 0.87 -0.02 -1.51 10.63 0.22 -0.49 0.11 5485
-0.05 0.86 -0.51 -1.09 10.48 0.09 -0.24 0.00 5491
-0.05 0.89 -0.02 -1.05 10.17 0.03 -0.12 -0.07 5498
-0.05 0.86 0.62 -1.18 9.95 0.01 -0.08 -0.06 5506
-0.05 0.88 0.48 -0.98 9.94 0.00 -0.06 -0.05 5513
-0.03 0.90 0.21 -0.82 9.82 -0.00 -0.05 -0.06 5520
-0.02 0.89 0.35 -0.81 9.86 -0.01 -0.03 -0.07 5527
-0.02 0.88 0.37 -0.80 9.82 -0.00 -0.02 -0.07 5534
-0.02 0.80 -5.82 -3.21 8.60 0.01 -0.01 -0.08 5541
-0.03 0.80 0.33 -0.76 9.79 0.02 0.00 -0.08 5549
-0.02 0.75 0.39 -0.79 9.77 0.02 0.01 -0.08 5556
-0.01 0.68 0.29 -0.75 9.77 0.02 0.01 -0.08 5563
0.01 0.59 0.26 -0.76 9.84 0.02 0.03 -0.07 5570
0.01 0.58 0.32 -0.78 9.83 0.02 0.04 -0.07 5577
0.02 0.51 0.29 -0.78 9.83 0.03 0.05 -0.07 5584
-0.00 0.51 0.32 -0.80 9.20 0.03 0.05 -0.07 5592
0.05 0.46 0.34 -0.77 9.82 0.02 0.06 -0.08 5599
0.07 0.42 0.33 -0.79 9.82 0.03 0.06 -0.07 5606
0.07 0.39 0.34 -0.79 9.83 0.03 0.07 -0.07 5613
0.06 0.37 0.38 -0.82 9.80 0.03 0.07 -0.08 5620
0.07 0.32 0.39 -0.88 9.80 0.03 0.07 -0.08 5627
0.06 0.27 0.39 -0.78 9.77 0.03 0.07 -0.09 5635
0.08 0.26 0.43 -0.80 9.78 0.03 0.07 -0.09 5642
0.08 0.18 0.47 -0.79 9.82 0.03 0.07 -0.09 5649
0.08 0.17 0.38 -0.84 9.74 0.04 0.06 -0.10 5656
0.07 0.12 0.38 -0.83 9.77 0.04 0.06 -0.10 5663
0.05 0.08 0.34 -0.84 9.80 0.04 0.07 -0.09 5670
0.06 0.08 0.31 -0.86 9.82 0.04 0.07 -0.09 5678
0.07 0.07 0.36 -0.84 9.81 0.04 0.07 -0.09 5685
0.07 0.03 0.39 -0.83 9.78 0.04 0.07 -0.09 5692
0.11 0.03 0.39 -0.86 9.81 0.04 0.08 -0.08 5699
0.12 0.05 0.44 -0.88 9.78 0.04 0.08 -0.09 5706
0.11 0.01 0.41 -0.85 9.82 0.03 0.08 -0.09 5713
0.12 0.03 0.42 -0.86 9.77 0.03 0.07 -0.09 5721
0.13 0.03 0.42 -0.86 9.78 0.03 0.07 -0.10 5728
0.14 0.01 0.50 -0.88 9.80 0.03 0.07 -0.10 5735
0.16 -0.01 0.42 -0.86 9.75 0.03 0.06 -0.10 5742
0.19 -0.00 0.39 -0.87 9.79 0.03 0.06 -0.10 5749
0.18 -0.00 0.41 -0.86 9.83 0.03 0.05 -0.10 5756
0.17 -0.00 0.42 -0.83 9.82 0.03 0.05 -0.11 5764
0.21 -0.00 0.43 -0.87 9.82 0.03 0.04 -0.10 5771
0.26 -0.01 0.41 -0.88 9.83 0.04 0.04 -0.11 5778
0.27 -0.02 0.39 -0.90 9.82 0.04 0.04 -0.11 5785
0.28 -0.02 0.40 -0.90 9.83 0.04 0.05 -0.11 5792
0.31 -0.02 0.43 -0.85 9.81 0.05 0.06 -0.11 5799
0.33 -0.01 0.38 -0.91 9.82 0.06 0.06 -0.11 5807
0.34 -0.02 0.47 -0.92 9.80 0.07 0.07 -0.12 5814
0.37 -0.02 0.40 -0.97 9.85 0.08 0.07 -0.12 5821
0.41 -0.03 0.39 -0.96 9.84 0.11 0.08 -0.12 5828
0.45 -0.02 0.49 -0.97 9.96 0.14 0.09 -0.13 5835
0.49 -0.02 0.45 -0.98 9.90 0.17 0.11 -0.13 5842
0.54 -0.02 0.45 -1.03 9.95 0.23 0.13 -0.13 5850
0.59 -0.03 0.55 -0.97 10.01 0.32 0.16 -0.14 5858
0.60 -0.03 0.62 -1.09 10.21 0.43 0.20 -0.15 5864
0.65 -0.03 0.52 -1.15 10.38 0.61 0.26 -0.15 5872
0.68 -0.03 0.51 -1.20 10.67 0.82 0.32 -0.16 5879
0.74 -0.03 0.56 -1.29 10.99 1.05 0.34 -0.17 5886
0.81 -0.03 0.51 -1.36 11.10 1.24 0.30 -0.19 5894
0.87 -0.03 0.61 -1.30 11.52 1.38 0.21 -0.20 5901
0.94 -0.04 0.62 -1.55 11.81 1.48 0.14 -0.19 5908
0.91 -0.04 0.56 -1.54 11.73 1.55 0.03 -0.17 5915
0.94 -0.04 0.55 -1.78 12.23 1.67 -0.02 -0.17 5922
1.04 -0.03 0.65 -1.79 12.61 1.85 -0.07 -0.16 5929
1.09 -0.04 0.76 -1.98 12.57 2.03 -0.07 -0.17 5937
1.11 -0.04 0.48 -1.94 12.69 2.25 -0.06 -0.18 5944
1.11 -0.04 0.63 -2.15 12.51 2.44 -0.11 -0.19 5951
1.07 -0.05 0.33 -2.34 12.85 2.66 -0.11 -0.20 5958
1.01 -0.04 0.72 -2.54 12.69 2.90 -0.13 -0.22 5965
1.05 -0.04 0.73 -2.83 13.12 3.12 -0.15 -0.24 5972
0.98 -0.04 0.66 -2.84 13.91 3.43 -0.11 -0.25 5980
0.94 -0.04 0.11 -2.62 14.18 3.81 -0.12 -0.24 5987
0.83 -0.04 0.27 -3.15 16.00 4.13 -0.12 -0.20 5994
0.70 -0.04 1.36 -4.21 16.03 4.28 -0.14 -0.23 6001
0.42 -0.03 2.24 -4.38 16.67 4.28 -0.20 -0.32 6008
0.39 -0.02 1.61 -5.59 20.51 4.28 -0.39 -0.39 6016
0.30 -0.02 2.12 -7.26 21.50 4.28 -0.38 -0.45 6023
0.21 -0.01 1.90 -9.35 24.21 4.28 -0.39 -0.49 6030
0.13 -0.01 2.47 -10.88 27.45 4.28 -0.30 -0.52 6037
0.12 -0.00 3.23 -10.71 26.76 4.28 -0.10 -0.56 6044
0.10 0.00 3.18 -8.63 25.58 4.28 0.07 -0.64 6050
0.10 0.01 1.30 -7.36 25.07 4.28 0.24 -0.73 6057
0.09 0.00 -0.23 -5.87 25.04 4.28 0.23 -0.76 6065
0.02 -0.00 -0.15 -4.84 28.63 4.28 -0.01 -0.79 6072
0.05 -0.01 1.52 -2.95 30.74 4.28 -0.55 -0.85 6079
0.01 -0.00 4.11 0.36 30.82 4.28 -1.02 -0.97 6086
0.00 0.00 4.87 4.59 28.40 4.28 -1.40 -0.98 6093
0.02 0.01 9.56 16.78 19.15 4.28 -1.14 -0.94 6102
0.00 0.00 10.96 18.19 10.19 4.28 -0.64 -1.04 6108
0.00 0.00 9.01 25.47 4.33 3.44 0.07 -1.42 6115
0.00 0.00 8.57 21.53 4.10 2.80 0.37 -2.12 6122
0.00 0.00 7.90 12.56 27.95 1.28 1.17 -2.27 6129
0.00 0.00 4.60 13.41 26.67 -0.67 1.63 -2.13 6136
0.00 0.00 1.68 15.59 16.67 -1.99 1.54 -1.87 6144
0.01 -0.00 -0.12 15.10 11.78 -2.91 0.96 -1.56 6151
0.00 -0.00 0.03 12.40 8.46 -3.50 0.45 -1.31 6158
0.00 -0.00 1.42 9.64 8.89 -3.81 -0.08 -1.15 6165
0.00 0.00 2.19 6.83 8.60 -3.86 -0.37 -1.01 6172
0.00 0.00 2.53 5.45 8.06 -3.84 -0.43 -0.90 6179
0.01 -0.00 3.60 4.88 7.84 -3.83 -0.32 -0.82 6187
0.00 0.00 4.35 4.66 7.24 -3.88 -0.14 -0.78 6194
0.00 -0.00 4.38 4.72 7.15 -4.03 0.15 -0.75 6201
0.00 0.00 3.98 4.50 7.84 -4.15 0.50 -0.68 6208
0.00 0.00 3.54 4.08 8.81 -4.24 0.75 -0.57 6215
0.01 0.00 3.05 3.26 9.73 -4.28 0.96 -0.50 6222
0.02 -0.00 2.67 2.32 10.38 -4.28 1.11 -0.36 6230
0.01 -0.00 2.30 1.61 10.74 -4.28 1.22 -0.23 6237
0.00 0.00 2.01 0.98 11.13 -4.28 1.26 -0.06 6244
0.00 0.00 1.87 0.48 11.52 -4.28 1.26 0.10 6251
0.00 0.00 1.85 -0.31 11.79 -4.28 1.27 0.20 6258
0.00 0.00 1.65 -1.23 12.25 -4.28 1.31 0.32 6265
0.00 -0.00 1.61 -1.93 12.73 -4.28 1.36 0.40 6273
0.00 0.00 1.23 -2.64 13.69 -4.28 1.44 0.44 6280
0.00 0.00 0.84 -3.40 14.69 -4.28 1.52 0.43 6287
0.00 0.00 0.36 -4.21 15.06 -4.28 1.67 0.37 6294
0.00 0.00 0.06 -4.86 15.82 -4.28 1.81 0.28 6301
0.00 0.00 -0.51 -5.57 16.77 -4.28 1.92 0.21 6308
0.00 -0.00 -0.80 -5.54 17.25 -4.28 2.00 0.13 6316
0.00 0.00 -1.27 -6.39 18.22 -4.27 2.02 0.08 6323
0.00 0.00 -1.45 -6.59 18.10 -4.23 2.01 0.06 6330
0.00 0.00 -2.06 -7.69 17.91 -4.15 1.96 0.07 6337
0.00 0.00 -1.75 -7.85 18.39 -3.96 1.87 0.10 6344
0.00 -0.00 -2.21 -8.14 18.81 -3.71 1.69 0.11 6351
0.00 0.00 -1.61 -8.40 19.38 -3.50 1.56 0.14 6359
0.00 0.00 -1.38 -8.26 19.62 -3.33 1.46 0.16 6366
0.00 0.00 -1.13 -8.54 20.59 -3.27 1.43 0.18 6373
0.00 0.00 -0.53 -8.65 20.72 -3.27 1.46 0.20 6380
0.00 0.00 -0.37 -9.02 20.63 -3.32 1.49 0.20 6387
0.00 -0.00 -0.26 -10.03 20.18 -3.35 1.54 0.21 6394
0.00 0.00 -0.31 -10.83 19.07 -3.34 1.55 0.22 6402
0.00 0.00 -0.51 -11.72 18.91 -3.25 1.57 0.25 6409
0.00 0.00 -0.58 -12.72 18.91 -3.15 1.58 0.30 6416
0.00 0.00 -1.14 -13.91 18.76 -3.03 1.62 0.37 6423
0.00 0.00 -1.34 -14.40 15.89 -2.90 1.65 0.50 6430
0.00 0.00 -2.15 -15.42 16.10 -2.91 1.63 0.61 6437
0.00 0.00 -2.50 -17.51 16.07 -2.90 1.62 0.74 6445
0.00 0.00 -3.23 -19.35 13.90 -2.87 1.60 0.87 6452
0.00 0.00 -3.95 -20.91 12.06 -2.75 1.56 0.99 6459
0.00 0.00 -4.69 -22.94 9.76 -2.57 1.48 1.08 6466
0.00 0.00 -5.05 -25.49 7.47 -2.26 1.35 1.09 6473
0.00 0.00 -5.42 -26.93 5.36 -1.87 1.13 1.03 6480
0.00 0.00 -5.55 -28.64 3.28 -1.50 0.85 0.88 6488
0.00 0.00 -5.18 -29.13 2.52 -1.01 0.59 0.71 6495
0.00 0.00 -4.45 -28.34 1.99 -0.48 0.32 0.51 6502
0.00 0.00 -4.83 -35.43 -1.95 -0.02 0.12 0.35 6509
0.00 0.00 -6.46 -26.80 1.76 2.13 -0.98 0.52 6516
0.00 0.00 -6.79 -22.87 9.24 2.25 -1.72 0.48 6523
-0.00 0.00 -4.44 -23.11 2.73 2.79 -2.34 0.55 6531
-0.00 0.02 -3.41 -26.17 5.34 3.03 -3.27 0.73 6538
-0.00 0.04 0.97 8.26 5.17 3.20 -2.80 1.02 6545
-0.01 0.07 1.70 -3.82 10.52 3.44 -1.07 1.36 6552
-0.01 0.28 -4.53 4.54 25.30 3.96 -0.43 1.54 6560
-0.03 0.51 -11.05 -1.56 22.58 3.96 -0.77 1.05 6567
-0.04 0.67 -10.73 -5.49 22.17 3.78 -1.30 0.38 6575
-0.05 0.78 -4.59 -5.82 19.31 3.65 -0.86 -0.12 6582
-0.05 0.82 -2.85 -3.55 21.27 3.47 -0.52 -0.36 6589
-0.05 0.86 0.70 -1.94 18.96 2.98 -0.46 -0.56 6596
-0.04 0.84 3.09 -1.98 16.06 2.61 -0.40 -0.48 6603
-0.05 0.82 3.53 -2.65 22.42 2.36 -1.07 -0.26 6610
-0.05 0.86 2.29 -1.50 12.58 1.20 -1.43 0.00 6618
-0.05 0.81 -0.08 -1.59 11.91 0.57 -0.94 0.11 6625
-0.05 0.83 -0.46 -1.20 10.73 0.22 -0.53 0.04 6632
-0.05 0.83 -0.46 -1.19 10.30 0.10 -0.25 -0.03 6639
-0.04 0.84 0.36 -1.20 9.83 0.03 -0.13 -0.06 6645
-0.04 0.86 0.61 -0.99 9.71 0.01 -0.08 -0.04 6652
-0.05 0.84 0.30 -0.95 9.84 -0.00 -0.06 -0.03 6660
-0.04 0.83 0.30 -0.88 9.85 -0.01 -0.04 -0.04 6667
-0.02 0.81 0.40 -0.84 9.93 -0.01 -0.02 -0.06 6674
-0.03 0.83 0.34 -0.77 9.81 0.00 0.00 -0.06 6681
-0.00 0.76 -2.18 -2.00 9.34 0.01 0.00 -0.06 6688
-0.00 0.72 0.42 -0.81 9.82 0.02 0.02 -0.06 6695
-0.00 0.64 0.36 -0.78 9.83 0.02 0.02 -0.06 6703
-0.00 0.63 0.26 -0.80 9.90 0.02 0.04 -0.06 6710
0.01 0.58 0.53 -0.70 9.80 0.02 0.05 -0.05 6717
0.00 0.52 0.37 -0.78 9.85 0.03 0.06 -0.06 6724
0.02 0.43 0.39 -0.82 9.83 0.04 0.07 -0.05 6731
0.04 0.42 0.37 -0.77 9.82 0.04 0.07 -0.05 6738
0.04 0.40 0.47 -0.78 9.79 0.04 0.07 -0.05 6746
0.03 0.38 0.20 -0.81 9.90 0.04 0.07 -0.06 6753
0.04 0.32 0.47 -0.82 9.78 0.04 0.07 -0.06 6760
0.07 0.36 0.47 -0.70 9.74 0.04 0.07 -0.07 6767
0.06 0.31 0.44 -0.80 9.78 0.04 0.08 -0.08 6774
0.05 0.24 0.45 -0.84 9.81 0.04 0.08 -0.08 6781
0.04 0.18 0.51 -0.80 9.77 0.04 0.08 -0.08 6789
0.02 0.14 0.50 -0.86 9.82 0.04 0.07 -0.08 6796
0.06 0.13 0.47 -0.85 9.74 0.04 0.06 -0.09 6803
0.08 0.08 0.47 -0.81 9.77 0.04 0.06 -0.09 6810
0.09 0.06 0.42 -0.86 9.80 0.03 0.06 -0.08 6817
0.08 0.03 0.41 -0.84 9.79 0.03 0.06 -0.08 6824
0.08 0.05 0.44 -0.80 9.79 0.04 0.06 -0.08 6832
0.10 0.04 0.45 -0.86 9.81 0.04 0.06 -0.08 6839
0.08 0.04 0.48 -0.87 9.78 0.03 0.05 -0.08 6846
0.11 0.01 0.54 -0.89 9.73 0.04 0.05 -0.08 6853
0.10 0.00 0.56 -0.88 9.75 0.03 0.04 -0.09 6860
0.10 0.00 0.55 -0.85 9.77 0.03 0.04 -0.10 6867
0.11 -0.01 0.50 -0.92 9.73 0.03 0.04 -0.10 6875
0.13 0.00 0.45 -0.94 9.75 0.03 0.04 -0.10 6882
0.13 0.01 0.47 -0.88 9.73 0.03 0.04 -0.11 6889
0.17 -0.01 0.45 -0.93 9.76 0.03 0.05 -0.10 6896
0.20 -0.02 0.45 -0.92 9.80 0.03 0.06 -0.10 6903
0.22 -0.02 0.45 -0.90 9.81 0.03 0.06 -0.10 6910
0.20 -0.01 0.44 -0.89 9.84 0.04 0.07 -0.10 6918
0.22 -0.01 0.47 -0.89 9.80 0.04 0.08 -0.10 6925
0.24 -0.01 0.44 -0.91 9.80 0.04 0.08 -0.10 6932
0.23 -0.01 0.49 -0.95 9.81 0.05 0.07 -0.10 6939
0.25 -0.02 0.52 -0.97 9.79 0.06 0.07 -0.10 6946
0.28 -0.03 0.56 -0.89 9.82 0.07 0.07 -0.10 6953
0.29 -0.02 0.51 -0.90 9.81 0.09 0.08 -0.10 6961
0.34 -0.01 0.49 -0.99 9.87 0.11 0.08 -0.11 6968
0.39 -0.01 0.57 -0.93 9.96 0.15 0.09 -0.12 6975
0.40 -0.01 0.59 -1.12 9.99 0.22 0.11 -0.13 6982
0.39 -0.02 0.52 -0.95 10.06 0.30 0.13 -0.14 6989
0.43 -0.03 0.56 -1.08 10.20 0.43 0.17 -0.15 6998
0.50 -0.02 0.53 -1.10 10.48 0.58 0.21 -0.15 7005
0.57 -0.02 0.56 -1.22 10.62 0.78 0.26 -0.15 7012
0.63 -0.03 0.54 -1.26 10.88 1.03 0.30 -0.15 7018
0.67 -0.02 0.71 -1.42 10.85 1.19 0.29 -0.16 7026
0.76 -0.04 0.60 -1.37 11.31 1.33 0.22 -0.16 7033
0.78 -0.03 0.40 -1.55 11.92 1.45 0.09 -0.16 7041
0.89 -0.04 0.51 -1.58 12.17 1.54 -0.00 -0.15 7048
0.91 -0.03 0.66 -1.69 12.27 1.68 -0.09 -0.15 7055
0.97 -0.03 0.58 -1.80 12.50 1.84 -0.17 -0.15 7062
0.99 -0.03 0.51 -1.92 12.78 2.08 -0.19 -0.14 7069
1.05 -0.05 0.31 -1.96 12.96 2.35 -0.19 -0.14 7076
1.05 -0.05 0.35 -2.12 12.64 2.57 -0.24 -0.13 7084
1.08 -0.04 0.68 -2.28 12.72 2.80 -0.26 -0.13 7091
1.07 -0.04 0.80 -2.47 13.50 3.01 -0.20 -0.14 7097
1.08 -0.05 0.73 -2.62 13.61 3.35 -0.15 -0.16 7105
1.03 -0.04 0.58 -2.74 13.69 3.68 -0.07 -0.18 7112
0.96 -0.05 -0.42 -2.69 14.80 4.00 -0.01 -0.18 7119
0.86 -0.04 -0.04 -3.23 16.41 4.26 0.03 -0.14 7127
0.76 -0.03 1.14 -3.79 17.25 4.28 -0.03 -0.14 7134
0.56 -0.03 2.28 -4.32 18.65 4.28 -0.16 -0.26 7141
0.43 -0.02 2.63 -6.18 20.64 4.28 -0.26 -0.38 7148
0.33 -0.02 1.44 -8.00 23.77 4.28 -0.28 -0.47 7155
0.26 -0.03 2.58 -9.49 25.84 4.28 -0.32 -0.50 7161
0.20 -0.02 3.05 -10.97 27.66 4.28 -0.16 -0.51 7170
0.13 -0.00 2.90 -11.02 28.18 4.28 0.06 -0.55 7177
0.15 -0.01 0.96 -9.33 27.56 4.28 0.30 -0.58 7183
0.03 -0.00 -1.22 -7.23 25.88 4.28 0.40 -0.57 7190
0.06 -0.01 -1.76 -5.83 28.04 4.28 0.27 -0.56 7197
0.04 -0.00 -1.02 -4.11 31.95 4.28 -0.23 -0.57 7204
0.01 -0.00 1.88 -1.56 32.56 4.28 -0.73 -0.62 7212
0.05 0.00 4.47 1.47 32.11 4.28 -1.21 -0.65 7219
0.02 -0.00 7.26 14.66 30.08 4.28 -1.21 -0.61 7227
0.01 -0.00 10.25 17.57 16.07 4.28 -0.74 -0.62 7234
0.00 0.00 8.92 21.25 6.56 4.01 0.11 -0.88 7240
0.00 0.00 6.76 25.75 -3.94 3.12 0.57 -1.68 7247
0.00 0.00 5.29 17.86 21.41 2.20 0.91 -2.11 7255
0.00 0.00 5.32 13.51 29.15 0.24 1.51 -2.18 7262
0.02 -0.00 2.27 15.54 19.94 -1.50 1.68 -2.05 7269
0.00 -0.00 -0.39 16.06 13.02 -2.50 1.33 -1.77 7276
0.01 -0.00 -0.47 13.83 10.66 -3.25 0.87 -1.45 7284
0.00 0.00 0.06 11.11 7.71 -3.82 0.41 -1.22 7290
0.01 -0.00 0.97 8.60 8.73 -4.04 0.13 -0.99 7298
0.02 -0.00 1.28 6.19 8.12 -4.07 -0.01 -0.77 7305
0.02 -0.00 1.30 5.73 7.93 -4.08 -0.07 -0.62 7312
0.01 -0.00 1.94 5.02 8.09 -4.07 -0.08 -0.48 7319
0.00 -0.00 2.18 4.44 8.54 -4.10 -0.10 -0.39 7326
0.00 -0.00 1.97 4.14 7.95 -4.15 -0.11 -0.30 7333
0.01 -0.00 2.05 4.04 8.50 -4.22 -0.07 -0.19 7341
0.02 0.00 2.12 3.54 9.08 -4.27 0.02 -0.11 7348
0.01 -0.00 2.19 2.74 9.64 -4.28 0.16 -0.01 7355
0.00 0.00 2.05 2.13 9.94 -4.28 0.30 0.07 7362
0.01 -0.00 1.98 1.52 10.28 -4.28 0.45 0.17 7369
0.01 -0.00 1.85 0.93 10.72 -4.28 0.55 0.25 7376
0.01 0.00 1.79 0.33 11.16 -4.28 0.64 0.30 7384
0.02 -0.00 1.74 -0.36 11.85 -4.28 0.74 0.34 7391
0.01 -0.00 1.66 -1.04 12.68 -4.28 0.85 0.36 7398
0.01 -0.00 1.61 -1.57 13.38 -4.28 0.99 0.35 7405
0.00 0.00 1.54 -2.28 14.34 -4.28 1.13 0.31 7412
0.00 -0.00 1.33 -3.02 15.13 -4.28 1.34 0.25 7419
0.00 0.00 0.87 -3.99 16.14 -4.28 1.56 0.15 7427
0.01 -0.00 0.39 -5.37 16.92 -4.28 1.73 0.06 7434
0.01 -0.00 -0.29 -5.96 17.40 -4.28 1.89 -0.05 7441
0.00 -0.00 -0.73 -6.56 18.02 -4.28 1.95 -0.16 7448
0.00 0.00 -1.39 -7.34 18.53 -4.28 1.86 -0.23 7455
0.00 0.00 -1.85 -8.12 18.93 -4.28 1.70 -0.28 7462
0.00 0.00 -2.05 -8.20 19.10 -4.23 1.55 -0.28 7470
0.01 -0.00 -1.62 -7.90 18.91 -4.11 1.37 -0.23 7477
0.00 -0.00 -1.05 -7.72 19.24 -3.98 1.21 -0.18 7484
0.00 -0.00 -0.59 -8.01 19.87 -3.86 1.11 -0.13 7491
0.00 0.00 -0.09 -8.66 20.59 -3.79 1.05 -0.05 7498
0.00 0.00 0.03 -9.59 20.97 -3.75 1.02 0.01 7505
0.00 -0.00 0.40 -10.32 20.85 -3.73 1.01 0.05 7513
0.01 -0.00 0.37 -11.33 20.83 -3.70 1.03 0.08 7520
0.00 -0.00 0.28 -12.29 20.45 -3.64 1.08 0.11 7527
0.00 -0.00 0.05 -13.16 19.88 -3.52 1.19 0.16 7534
0.00 0.00 -0.33 -17.96 17.43 -3.40 1.32 0.24 7541
0.00 0.00 -6.25 -17.86 47.40 -2.29 1.22 0.42 7548
0.01 -0.00 -0.69 -11.45 3.60 -2.88 1.25 0.47 7556
0.00 0.00 -2.09 -15.22 16.01 -3.01 1.19 0.52 7563
0.00 0.00 -1.78 -22.27 21.46 -3.13 1.22 0.58 7570
0.00 0.00 1.14 -17.17 6.04 -2.97 1.42 0.57 7577
0.00 0.00 -1.16 -19.64 9.94 -2.96 1.33 0.53 7584
0.00 -0.00 -2.64 -22.86 10.09 -2.82 1.28 0.51 7591
0.01 -0.00 -3.02 -24.80 7.91 -2.44 1.34 0.47 7599
0.00 -0.00 -3.84 -26.16 5.46 -1.97 1.34 0.44 7606
0.00 0.00 -4.82 -27.40 3.84 -1.57 1.17 0.40 7613
0.00 0.00 -5.11 -28.64 3.50 -1.09 0.98 0.36 7620
0.00 0.00 -8.65 -34.53 7.72 -0.31 0.50 0.37 7627
0.00 0.00 -8.06 -27.64 2.76 1.12 -0.01 0.49 7634
0.00 -0.00 -8.66 -30.49 5.26 1.54 -0.71 0.47 7642
0.00 0.00 -3.50 -26.92 3.43 2.32 -1.29 0.51 7649
0.00 0.00 -5.05 -30.79 3.95 2.66 -1.90 0.54 7656
-0.00 0.04 -4.14 -22.58 -1.48 3.02 -2.31 0.76 7663
-0.01 0.05 1.91 6.85 4.33 3.49 -1.49 1.03 7670
-0.00 0.15 -0.44 -4.46 21.04 4.21 -0.69 1.27 7678
-0.01 0.37 -4.04 0.74 24.79 4.28 -0.70 1.33 7686
-0.03 0.58 -7.99 -3.24 25.85 4.28 -1.02 0.93 7693
-0.05 0.71 -7.11 -6.76 23.73 3.99 -1.10 0.51 7700
-0.06 0.76 -4.73 -5.64 20.02 3.68 -0.71 0.13 7707
-0.04 0.79 -3.02 -3.17 16.99 3.43 -0.50 -0.14 7714
-0.04 0.82 -0.90 -2.30 18.60 3.33 -0.43 -0.39 7721
-0.04 0.78 3.64 -3.40 29.78 3.22 -0.78 -0.52 7729
-0.05 0.76 3.28 -1.12 15.17 1.04 -1.65 -0.34 7736
-0.04 0.77 1.13 -2.82 12.05 0.40 -0.77 -0.03 7743
-0.05 0.76 0.22 -1.28 10.46 0.14 -0.38 0.05 7750
-0.05 0.76 -0.46 -0.95 10.31 0.04 -0.20 0.00 7756
-0.04 0.80 0.06 -1.10 10.03 0.01 -0.11 -0.06 7763
-0.04 0.74 0.56 -1.23 9.85 -0.01 -0.08 -0.06 7771
-0.01 0.74 0.43 -0.94 9.82 -0.01 -0.07 -0.04 7778
-0.01 0.78 0.26 -0.90 9.92 -0.00 -0.05 -0.05 7785
-0.02 0.77 0.37 -0.92 9.85 -0.01 -0.03 -0.06 7792
-0.03 0.77 0.43 -0.87 9.78 -0.01 -0.02 -0.07 7799
-0.00 0.76 0.27 -0.85 10.31 0.00 -0.01 -0.07 7806
-0.01 0.67 0.29 -0.86 9.81 0.01 0.00 -0.07 7814
0.00 0.64 0.25 -0.84 9.81 0.01 0.01 -0.07 7821
0.01 0.60 0.31 -0.82 9.81 0.02 0.02 -0.07 7828
0.02 0.57 0.33 -0.87 9.82 0.02 0.03 -0.07 7835
0.04 0.52 0.31 -0.84 9.78 0.02 0.03 -0.07 7842
0.05 0.53 0.36 -0.87 9.82 0.03 0.04 -0.07 7849
0.04 0.47 0.33 -0.84 9.83 0.03 0.04 -0.06 7857
0.04 0.42 0.31 -0.88 9.82 0.03 0.04 -0.06 7864
0.03 0.39 0.32 -0.88 9.81 0.03 0.04 -0.07 7871
0.02 0.35 0.34 -0.86 9.81 0.03 0.04 -0.07 7878
0.05 0.28 0.35 -0.91 9.80 0.02 0.04 -0.07 7885
0.06 0.23 0.42 -0.86 9.76 0.03 0.04 -0.07 7892
0.06 0.16 0.43 -0.91 9.78 0.03 0.03 -0.08 7900
0.06 0.16 0.44 -0.88 9.78 0.03 0.03 -0.09 7907
0.05 0.14 0.38 -0.88 9.77 0.02 0.03 -0.10 7914
0.07 0.13 0.37 -0.89 9.78 0.02 0.02 -0.10 7921
0.09 0.12 0.35 -0.92 9.79 0.02 0.02 -0.10 7928
0.09 0.06 0.29 -0.90 9.79 0.02 0.02 -0.09 7936
0.08 0.09 0.30 -0.92 9.77 0.02 0.02 -0.09 7943
0.10 0.06 0.29 -0.87 9.81 0.02 0.03 -0.09 7950
0.11 0.02 0.30 -0.89 9.78 0.02 0.03 -0.08 7957
0.14 0.04 0.33 -0.91 9.81 0.02 0.03 -0.08 7964
0.19 0.01 0.32 -0.87 9.81 0.02 0.04 -0.08 7971
0.18 0.04 0.35 -0.91 9.81 0.03 0.04 -0.08 7979
0.17 0.02 0.32 -0.92 9.75 0.02 0.05 -0.09 7986
0.16 0.02 0.33 -0.94 9.79 0.02 0.05 -0.09 7993
0.17 0.03 0.35 -0.95 9.79 0.03 0.06 -0.09 8000
0.20 0.05 0.37 -0.97 9.76 0.03 0.06 -0.09 8007
0.22 0.03 0.37 -0.93 9.77 0.03 0.06 -0.09 8014
0.24 0.02 0.33 -0.96 9.79 0.03 0.07 -0.09 8022
0.24 -0.02 0.31 -0.93 9.80 0.03 0.07 -0.10 8029
0.26 -0.02 0.32 -0.96 9.77 0.03 0.07 -0.10 8036
0.29 -0.02 0.33 -0.92 9.75 0.04 0.06 -0.09 8043
0.28 0.00 0.34 -0.94 9.77 0.03 0.06 -0.09 8050
0.30 -0.02 0.34 -0.96 9.79 0.04 0.06 -0.09 8057
0.34 -0.02 0.38 -0.97 9.81 0.04 0.06 -0.09 8065
0.35 -0.02 0.37 -0.95 9.79 0.04 0.06 -0.09 8072
0.35 -0.02 0.33 -0.95 9.83 0.04 0.06 -0.09 8079
0.43 -0.02 0.34 -0.95 9.83 0.06 0.06 -0.09 8086
0.45 -0.03 0.40 -0.99 9.87 0.08 0.07 -0.09 8093
0.53 -0.03 0.37 -1.04 9.95 0.11 0.08 -0.10 8100
0.59 -0.03 0.41 -1.02 10.01 0.18 0.10 -0.09 8108
0.64 -0.04 0.45 -1.04 10.12 0.25 0.11 -0.11 8116
0.68 -0.03 0.42 -1.14 10.31 0.39 0.15 -0.13 8123
0.73 -0.03 0.44 -1.02 10.50 0.63 0.20 -0.14 8129
0.80 -0.04 0.38 -1.79 10.88 0.85 0.25 -0.15 8137
0.83 -0.03 0.43 -1.26 11.41 1.16 0.28 -0.15 8144
0.87 -0.03 0.62 -1.37 11.59 1.35 0.23 -0.16 8152
0.94 -0.04 0.65 -1.53 11.69 1.49 0.14 -0.18 8159
0.99 -0.03 0.67 -1.71 11.69 1.57 0.03 -0.19 8166
1.04 -0.03 1.46 -1.77 12.68 1.59 -0.12 -0.19 8173
1.05 -0.04 0.66 -1.83 11.81 1.73 -0.14 -0.21 8180
1.08 -0.05 0.40 -1.75 12.08 1.85 -0.19 -0.21 8187
1.07 -0.04 0.38 -1.93 12.46 2.02 -0.20 -0.20 8194
1.08 -0.04 0.36 -2.03 12.32 2.23 -0.23 -0.20 8202
1.07 -0.03 0.50 -2.17 12.49 2.43 -0.26 -0.20 8209
1.09 -0.04 0.51 -2.30 12.47 2.66 -0.27 -0.20 8216
1.12 -0.04 0.35 -2.37 12.88 2.84 -0.31 -0.21 8223
1.10 -0.04 0.43 -2.70 13.52 3.16 -0.26 -0.22 8230
1.07 -0.04 0.37 -2.88 13.28 3.49 -0.24 -0.23 8238
1.02 -0.04 0.77 -3.14 13.75 3.77 -0.21 -0.25 8245
0.91 -0.03 0.28 -3.18 14.37 4.11 -0.16 -0.27 8252
0.84 -0.03 -0.19 -3.71 16.69 4.27 -0.15 -0.24 8259
0.62 -0.03 0.47 -4.38 18.75 4.28 -0.22 -0.21 8266
0.45 -0.03 1.65 -5.71 18.88 4.28 -0.30 -0.28 8273
0.34 -0.03 2.10 -6.54 19.65 4.28 -0.41 -0.39 8281
0.22 -0.02 2.73 -8.31 22.79 4.28 -0.46 -0.49 8287
0.17 -0.01 2.70 -10.16 25.55 4.28 -0.40 -0.58 8295
0.12 -0.01 2.57 -10.16 26.69 4.28 -0.29 -0.63 8302
0.12 -0.01 2.54 -8.52 25.70 4.28 -0.11 -0.69 8308
0.08 -0.01 1.62 -7.97 25.41 4.28 0.06 -0.78 8315
0.05 -0.01 0.50 -6.67 25.54 4.28 0.04 -0.85 8323
0.04 -0.00 -0.03 -4.74 26.58 4.28 -0.16 -0.87 8330
0.02 -0.00 0.71 -2.91 28.82 4.28 -0.47 -0.87 8337
0.02 -0.00 3.32 -1.07 29.45 4.28 -0.89 -0.91 8344
0.02 -0.00 5.15 1.98 29.29 4.28 -1.30 -0.98 8351
0.01 -0.00 6.23 9.29 22.31 4.28 -1.13 -0.93 8358
0.00 0.00 11.02 15.90 13.33 4.28 -0.42 -0.99 8366
0.00 0.00 10.30 25.49 2.90 3.50 0.24 -1.15 8373
-0.00 0.01 6.56 29.19 -2.77 2.30 0.79 -1.66 8380
0.01 -0.00 5.95 15.78 24.21 1.86 1.42 -2.01 8387
0.00 0.00 5.25 9.90 29.93 -0.67 1.67 -1.93 8394
0.00 0.00 1.07 12.33 18.79 -2.27 1.47 -1.59 8401
0.00 0.00 -1.03 12.90 11.27 -2.76 1.06 -1.25 8409
0.00 0.00 -0.67 11.47 9.05 -3.41 0.51 -1.01 8416
-0.00 0.00 0.86 9.13 7.64 -3.82 -0.04 -0.82 8423
0.00 -0.00 1.49 6.72 8.09 -3.93 -0.37 -0.68 8430
0.00 0.00 2.09 4.61 8.29 -4.02 -0.60 -0.60 8437
0.00 0.00 2.97 3.91 8.40 -4.05 -0.61 -0.52 8444
0.00 0.00 3.24 3.59 8.26 -4.06 -0.54 -0.46 8452
0.00 0.00 3.44 3.56 7.87 -4.10 -0.37 -0.43 8459
-0.00 0.00 3.33 3.70 7.80 -4.17 -0.19 -0.40 8466
0.00 0.00 3.29 3.54 8.23 -4.23 0.03 -0.37 8473
0.00 0.00 3.23 2.91 9.21 -4.27 0.26 -0.33 8480
0.00 0.00 3.29 2.16 9.99 -4.28 0.49 -0.29 8487
0.00 0.00 3.11 1.54 10.39 -4.28 0.79 -0.22 8495
0.00 0.00 2.81 1.03 10.32 -4.28 1.01 -0.14 8502
0.00 0.00 2.42 0.66 10.38 -4.28 1.20 -0.09 8509
0.00 0.00 2.04 0.03 10.49 -4.28 1.36 -0.04 8516
-0.00 0.00 1.68 -0.62 11.36 -4.28 1.47 0.01 8523
0.00 0.00 1.29 -1.33 12.31 -4.28 1.57 0.04 8530
0.00 0.00 0.94 -1.95 13.58 -4.28 1.68 0.06 8538
0.00 0.00 0.52 -2.50 14.72 -4.28 1.81 0.05 8545
0.00 0.00 -0.18 -2.94 15.58 -4.27 1.92 0.01 8552
0.00 0.00 -0.91 -3.38 16.32 -4.25 1.97 -0.06 8559
0.00 0.00 -1.53 -3.99 17.03 -4.25 1.99 -0.10 8566
0.00 0.00 -2.01 -4.84 17.63 -4.25 1.98 -0.18 8573
0.00 0.00 -2.45 -5.69 18.15 -4.25 1.93 -0.23 8581
0.00 0.00 -2.29 -5.80 18.03 -4.24 1.90 -0.24 8588
0.00 0.00 -2.34 -5.98 18.00 -4.19 1.83 -0.21 8595
0.00 0.00 -2.42 -5.98 17.25 -4.08 1.79 -0.14 8602
0.00 0.00 -2.34 -6.15 16.47 -3.91 1.76 -0.05 8609
0.00 0.00 -2.08 -6.66 16.31 -3.65 1.75 0.02 8616
0.00 0.00 -1.85 -7.54 16.63 -3.34 1.71 0.08 8624
0.00 0.00 -2.23 -8.23 17.24 -3.07 1.64 0.13 8631
0.00 0.00 -2.27 -8.71 17.04 -2.78 1.55 0.16 8638
0.00 0.00 -2.34 -9.29 17.16 -2.55 1.40 0.20 8645
0.00 0.00 -2.17 -9.81 17.44 -2.34 1.27 0.24 8652
0.00 0.00 -1.89 -10.22 18.39 -2.19 1.16 0.28 8659
0.00 0.00 -1.45 -10.53 19.34 -2.14 1.15 0.32 8667
0.00 0.00 -1.03 -10.79 20.08 -2.20 1.24 0.36 8674
0.00 0.00 -1.15 -11.19 20.06 -2.39 1.36 0.41 8681
0.00 0.00 -1.49 -11.68 19.70 -2.63 1.44 0.48 8688
0.00 0.00 -2.23 -12.69 18.89 -2.92 1.45 0.60 8695
0.00 0.00 -2.69 -14.37 17.18 -3.12 1.34 0.76 8702
0.00 0.00 -3.00 -16.00 14.32 -3.23 1.24 0.91 8710
0.00 0.00 -3.37 -17.85 12.22 -3.18 1.11 1.11 8717
0.00 0.00 -3.51 -19.27 10.24 -3.06 1.02 1.31 8724
0.00 0.00 -3.71 -20.67 9.55 -2.76 0.89 1.42 8731
0.00 0.00 -3.76 -22.17 8.38 -2.45 0.67 1.47 8738
0.00 0.00 -3.52 -22.87 7.18 -2.10 0.48 1.44 8745
0.00 0.00 -2.82 -23.61 5.67 -1.76 0.36 1.33 8753
0.00 -0.00 -4.84 -27.77 9.13 -1.21 0.17 1.19 8760
0.00 0.00 -4.34 -30.37 5.40 -0.46 0.12 1.04 8767
0.00 0.00 -4.02 -29.86 7.00 0.27 0.12 0.85 8774
0.00 0.00 -2.30 -28.52 5.01 0.88 -0.05 0.70 8781
0.00 0.00 -1.96 -27.44 4.50 1.63 -0.25 0.57 8788
-0.00 0.01 -4.40 -32.43 4.95 2.07 -0.68 0.59 8796
-0.00 0.05 -6.60 -36.84 -6.01 2.26 -1.37 0.76 8803
-0.01 0.06 0.06 4.04 1.07 3.03 -1.65 0.97 8810
-0.01 0.11 -2.23 -7.84 14.79 3.74 -0.81 1.04 8817
-0.03 0.37 -3.37 3.39 29.75 4.27 -0.66 1.07 8825
-0.04 0.55 -7.72 -0.68 24.60 4.19 -1.11 0.65 8833
-0.04 0.68 -7.31 -5.13 23.33 3.75 -1.18 0.09 8840
-0.04 0.72 -4.33 -5.28 19.61 3.29 -0.80 -0.24 8847
-0.04 0.78 -1.58 -2.67 18.44 3.00 -0.48 -0.55 8854
-0.04 0.75 1.65 -1.48 16.34 2.66 -0.44 -0.65 8861
-0.05 0.74 3.54 -1.49 14.84 2.49 -0.41 -0.53 8868
-0.05 0.78 3.95 -2.11 21.33 2.32 -0.94 -0.30 8876
-0.04 0.74 2.47 -1.42 13.86 1.07 -1.46 -0.09 8883
-0.04 0.73 0.33 -2.01 12.30 0.52 -0.88 0.08 8890
-0.03 0.79 -0.33 -1.59 11.06 0.15 -0.48 0.05 8897
-0.05 0.74 -0.36 -1.14 10.27 0.02 -0.21 -0.02 8904
-0.05 0.80 0.39 -1.18 10.07 -0.01 -0.15 -0.05 8910
-0.03 0.80 0.57 -1.02 9.78 -0.02 -0.11 -0.05 8918
-0.01 0.80 0.36 -0.91 9.78 -0.01 -0.08 -0.05 8925
-0.02 0.80 0.27 -0.80 10.03 -0.01 -0.06 -0.06 8932
-0.01 0.79 0.31 -0.79 9.86 -0.01 -0.02 -0.07 8939
-0.03 0.74 0.46 -0.75 9.84 -0.00 -0.01 -0.07 8946
-0.01 0.70 0.35 -0.75 9.95 0.01 0.01 -0.07 8953
0.01 0.64 0.35 -0.77 9.88 0.01 0.02 -0.07 8961
0.04 0.59 0.33 -0.87 9.84 0.01 0.03 -0.07 8968
0.03 0.58 0.35 -0.85 9.82 0.01 0.04 -0.07 8975
0.06 0.53 0.40 -0.77 9.82 0.01 0.04 -0.07 8982
0.05 0.54 0.37 -0.79 9.81 0.01 0.04 -0.07 8989
0.05 0.50 0.37 -0.77 9.77 0.02 0.05 -0.08 8996
0.04 0.43 0.36 -0.76 9.86 0.03 0.06 -0.08 9004
0.08 0.48 0.44 -0.79 9.81 0.03 0.05 -0.09 9011
0.07 0.40 0.43 -0.82 9.84 0.03 0.06 -0.08 9018
0.08 0.30 0.46 -0.82 10.41 0.03 0.05 -0.10 9025
0.06 0.28 0.48 -0.86 9.80 0.04 0.05 -0.10 9032
0.08 0.23 0.43 -0.83 9.80 0.03 0.04 -0.10 9039
0.10 0.20 0.44 -0.84 9.77 0.03 0.03 -0.11 9047
0.10 0.18 0.42 -0.81 9.81 0.03 0.04 -0.10 9054
0.11 0.14 0.33 -0.68 9.82 0.02 0.03 -0.11 9061
0.12 0.10 0.35 -0.82 9.82 0.03 0.04 -0.11 9068
0.13 0.07 0.40 -0.84 9.79 0.03 0.05 -0.10 9075
0.14 0.08 0.41 -0.82 9.79 0.04 0.05 -0.09 9082
0.15 0.05 0.40 -0.85 9.81 0.04 0.05 -0.09 9090
0.17 0.02 0.42 -0.85 9.81 0.04 0.06 -0.09 9097
0.20 -0.00 0.45 -0.88 9.81 0.04 0.06 -0.09 9104
0.20 0.01 0.43 -0.84 9.81 0.04 0.06 -0.09 9111
0.18 0.02 0.42 -0.88 9.81 0.04 0.07 -0.10 9118
0.21 0.03 0.46 -0.87 9.79 0.04 0.07 -0.09 9125
0.21 0.02 0.44 -0.88 9.81 0.03 0.07 -0.10 9133
0.23 0.00 0.43 -0.98 9.83 0.04 0.07 -0.10 9140
0.20 0.03 0.45 -0.91 9.80 0.03 0.07 -0.10 9147
0.21 -0.01 0.47 -0.87 9.76 0.04 0.07 -0.10 9154
0.25 -0.02 0.42 -0.89 9.81 0.04 0.07 -0.10 9161
0.24 -0.01 0.43 -0.90 9.81 0.04 0.07 -0.10 9168
0.26 -0.02 0.44 -0.91 9.80 0.04 0.07 -0.11 9176
0.26 -0.02 0.44 -0.88 9.78 0.04 0.07 -0.10 9183
0.26 -0.03 0.45 -0.88 9.20 0.04 0.07 -0.10 9190
0.26 -0.02 0.49 -0.92 9.82 0.05 0.07 -0.10 9197
0.27 -0.01 0.44 -0.92 9.81 0.05 0.07 -0.10 9204
0.30 -0.01 0.43 -0.93 9.78 0.05 0.06 -0.10 9211
0.31 -0.02 0.43 -0.93 9.79 0.06 0.07 -0.11 9219
0.33 -0.02 0.46 -0.97 9.81 0.07 0.06 -0.11 9226
0.38 -0.03 0.50 -0.94 9.75 0.08 0.06 -0.11 9233
0.39 -0.03 0.51 -0.95 9.82 0.08 0.05 -0.12 9240
0.42 -0.02 0.49 -0.98 9.74 0.08 0.05 -0.12 9247
0.44 -0.02 0.49 -1.00 9.80 0.09 0.06 -0.13 9254
0.50 -0.03 0.52 -0.99 9.81 0.10 0.06 -0.13 9262
0.51 -0.03 0.48 -1.03 9.84 0.13 0.07 -0.14 9269
0.59 -0.04 0.54 -1.06 9.93 0.16 0.08 -0.15 9276
0.63 -0.03 0.46 -1.04 9.99 0.22 0.10 -0.15 9283
0.64 -0.03 0.54 -1.11 10.03 0.31 0.12 -0.16 9291
0.68 -0.03 0.50 -1.04 10.23 0.42 0.14 -0.16 9298
0.69 -0.03 0.60 -1.12 10.42 0.58 0.18 -0.17 9306
0.79 -0.04 0.44 -1.08 10.72 0.74 0.19 -0.17 9313
0.80 -0.04 0.59 -1.17 10.84 0.89 0.20 -0.18 9320
0.86 -0.03 0.63 -1.39 11.00 1.06 0.16 -0.18 9327
0.91 -0.02 0.57 -1.49 11.19 1.19 0.11 -0.18 9334
1.00 -0.05 0.63 -1.62 11.65 1.31 0.06 -0.18 9341
1.06 -0.04 0.67 -1.68 11.58 1.41 -0.01 -0.18 9349
1.06 -0.04 0.67 -1.79 11.85 1.52 -0.08 -0.17 9356
1.12 -0.04 0.51 -1.80 12.08 1.66 -0.11 -0.17 9363
1.11 -0.04 0.55 -1.83 12.21 1.79 -0.14 -0.18 9370
1.12 -0.03 0.50 -2.01 12.67 1.99 -0.17 -0.17 9377
1.17 -0.04 0.57 -2.08 12.35 2.23 -0.22 -0.17 9384
1.17 -0.04 0.33 -2.27 12.52 2.41 -0.26 -0.18 9392
1.21 -0.05 0.60 -2.25 12.69 2.61 -0.29 -0.19 9399
1.19 -0.04 0.46 -2.46 12.93 2.81 -0.34 -0.20 9406
1.17 -0.04 0.33 -2.57 13.72 3.07 -0.39 -0.20 9413
1.11 -0.03 0.43 -2.81 14.56 3.40 -0.35 -0.19 9420
1.05 -0.04 0.21 -3.25 14.81 3.73 -0.36 -0.17 9427
0.98 -0.04 1.36 -3.43 14.55 4.11 -0.41 -0.19 9435
0.82 -0.04 1.31 -4.20 14.94 4.26 -0.47 -0.27 9442
0.67 -0.02 0.78 -4.57 17.47 4.28 -0.54 -0.34 9449
0.47 -0.02 1.04 -5.65 19.12 4.28 -0.73 -0.41 9456
0.36 -0.02 2.11 -7.51 19.98 4.28 -0.83 -0.49 9463
0.32 -0.03 2.27 -8.94 22.53 4.28 -0.87 -0.58 9470
0.25 -0.02 2.43 -10.75 25.75 4.28 -0.84 -0.68 9478
0.22 -0.02 3.15 -9.90 27.72 4.28 -0.76 -0.79 9484
0.17 -0.02 3.29 -8.40 25.76 4.28 -0.53 -0.83 9491
0.08 -0.01 2.60 -7.91 24.09 4.28 -0.28 -0.91 9498
0.04 -0.00 1.13 -6.08 23.38 4.28 -0.07 -0.94 9505
0.06 -0.01 -0.24 -5.02 26.74 4.28 -0.15 -0.96 9512
0.01 -0.00 0.20 -2.85 28.87 4.28 -0.52 -0.97 9520
0.03 -0.00 2.85 -1.19 29.67 4.28 -1.12 -1.04 9527
0.00 0.00 3.75 3.31 27.40 4.28 -1.62 -1.10 9534
0.00 0.00 8.38 11.07 16.58 4.28 -1.63 -1.04 9541
0.01 -0.00 9.93 14.50 11.31 4.27 -1.08 -1.09 9548
0.00 0.00 5.96 22.13 3.39 3.40 -0.54 -1.38 9555
0.00 0.00 7.94 22.92 2.92 2.62 -0.18 -1.90 9563
0.00 0.00 8.69 15.17 26.31 1.22 0.78 -2.03 9570
0.00 0.00 5.01 13.03 23.47 -0.84 1.31 -1.93 9577
0.00 0.00 1.95 13.41 16.27 -1.98 1.33 -1.69 9584
0.00 -0.00 0.98 12.93 10.68 -2.64 0.94 -1.43 9591
0.00 0.00 0.90 11.25 8.24 -3.17 0.49 -1.22 9598
0.00 0.00 1.61 8.74 7.37 -3.31 0.10 -1.00 9606
0.00 0.00 2.17 6.87 7.86 -3.30 -0.12 -0.84 9613
0.00 0.00 2.34 5.86 7.55 -3.28 -0.28 -0.67 9620
0.00 0.00 3.63 5.73 7.19 -3.29 -0.26 -0.54 9627
0.00 0.00 3.48 5.86 7.07 -3.41 -0.13 -0.46 9634
0.00 0.00 3.62 5.83 7.75 -3.59 0.10 -0.37 9641
0.00 0.00 3.58 5.48 8.84 -3.85 0.34 -0.28 9649
0.00 0.00 3.27 4.71 9.54 -4.08 0.59 -0.23 9656
0.00 0.00 3.02 3.84 10.08 -4.20 0.82 -0.14 9663
0.00 0.00 2.65 2.97 10.34 -4.26 0.96 -0.04 9670
0.00 0.00 2.18 2.22 10.51 -4.28 1.08 0.10 9677
0.00 0.00 1.85 1.64 10.82 -4.28 1.13 0.25 9684
0.00 0.00 1.72 1.01 11.26 -4.28 1.14 0.33 9692
0.00 0.00 1.61 0.33 11.85 -4.28 1.15 0.43 9699
0.00 0.00 1.54 -0.31 12.82 -4.28 1.21 0.50 9706
0.00 -0.00 1.45 -1.02 12.83 -4.28 1.29 0.55 9713
0.00 0.00 1.35 -1.68 13.79 -4.28 1.37 0.54 9720
0.00 0.00 1.00 -2.20 14.62 -4.28 1.45 0.49 9728
0.00 0.00 0.55 -3.15 15.46 -4.28 1.59 0.39 9735
0.00 0.00 0.06 -4.00 15.80 -4.28 1.72 0.28 9742
0.00 0.00 -0.57 -5.14 15.95 -4.28 1.82 0.14 9749
0.00 0.00 -0.86 -5.43 16.86 -4.28 1.89 0.03 9756
0.00 0.00 -0.63 -5.48 18.49 -4.27 1.93 -0.06 9763
0.00 0.00 -0.76 -6.61 19.66 -4.23 2.01 -0.11 9771
0.00 0.00 -0.55 -6.28 19.05 -4.17 2.08 -0.12 9778
0.00 0.00 -0.82 -6.28 19.03 -4.08 2.09 -0.11 9785
0.00 0.00 -0.66 -6.58 18.85 -3.99 2.00 -0.09 9792
0.00 0.00 -1.69 -7.87 19.51 -3.84 1.82 -0.06 9799
0.00 0.00 -1.13 -9.21 19.48 -3.64 1.62 0.00 9806
0.00 0.00 -0.70 -9.34 18.65 -3.49 1.41 0.05 9814
0.00 0.00 -0.21 -9.87 18.28 -3.29 1.24 0.11 9821
0.00 0.00 0.31 -10.55 17.17 -3.07 1.10 0.18 9828
0.00 0.00 0.32 -10.67 16.54 -2.77 0.99 0.24 9835
0.00 0.00 0.86 -11.29 16.57 -2.44 0.95 0.30 9842
0.00 0.00 1.31 -12.04 16.88 -2.17 0.98 0.36 9849
0.00 0.00 1.93 -12.48 17.68 -1.91 1.14 0.41 9857
0.00 0.00 1.86 -12.73 19.64 -1.79 1.44 0.49 9864
0.00 0.00 0.74 -12.79 20.05 -1.85 1.82 0.60 9871
0.00 0.00 -1.23 -12.59 19.64 -2.12 2.23 0.79 9878
0.00 0.00 -3.55 -13.47 19.08 -2.44 2.49 1.04 9885
0.00 0.00 -4.97 -14.62 16.78 -2.79 2.47 1.29 9892
0.00 0.00 -6.28 -16.89 14.35 -3.02 2.17 1.57 9900
0.00 0.00 -6.75 -20.57 12.36 -3.01 1.71 1.80 9907
0.01 -0.00 -6.56 -22.94 9.81 -2.84 1.04 1.89 9914
0.01 -0.00 -5.68 -23.99 6.41 -2.60 0.42 1.88 9921
0.00 0.00 -4.69 -24.64 3.71 -2.25 0.10 1.78 9928
0.00 0.00 -3.86 -26.13 2.67 -1.85 0.08 1.61 9935
0.00 0.00 -3.51 -27.54 2.03 -1.43 0.24 1.39 9943
0.00 0.00 -3.67 -26.90 1.93 -0.94 0.46 1.14 9950
-0.00 0.00 -3.93 -25.71 2.65 -0.56 0.52 0.82 9957
0.01 -0.00 -4.02 -24.21 3.96 -0.16 0.43 0.52 9964
0.00 0.00 -3.77 -22.36 5.35 0.20 0.25 0.22 9971
0.00 0.00 -3.23 -20.02 6.26 0.46 0.07 0.01 9978
0.00 0.00 -2.32 -18.03 7.15 0.72 -0.14 -0.12 9986
0.00 0.00 -29.08 -37.33 69.84 1.96 -1.81 0.21 9993
0.00 0.00 -3.16 -12.09 10.84 3.12 -1.69 0.59 10000
-0.00 0.00 4.92 4.13 -4.50 2.93 -2.23 0.47 10007
-0.00 0.04 1.33 3.25 3.78 2.56 -1.98 0.56 10014
-0.01 0.08 3.60 6.27 14.67 2.80 -0.83 1.04 10021
-0.02 0.24 0.06 3.30 10.07 3.10 -0.13 1.27 10029
-0.04 0.46 -8.13 -3.00 18.91 3.82 -0.53 1.04 10037
-0.04 0.61 -8.02 -5.70 17.20 4.13 -1.13 0.60 10044
-0.04 0.80 -3.07 -5.76 19.71 4.23 -0.87 0.28 10051
-0.05 0.84 -3.59 -3.75 21.45 4.09 -0.60 0.11 10058
-0.05 0.93 -2.88 -2.76 19.63 3.57 -0.47 -0.22 10065
-0.06 0.96 0.00 -2.74 18.39 3.32 -0.46 -0.45 10072
-0.05 0.93 2.94 -3.18 22.54 3.32 -0.58 -0.41 10080
-0.06 0.91 1.69 -1.79 17.87 1.36 -1.47 -0.21 10087
-0.04 0.92 1.40 -2.86 12.31 0.48 -0.82 -0.02 10094
-0.05 0.89 0.13 -1.71 10.82 0.13 -0.33 0.03 10101
-0.04 0.85 -0.29 -1.12 10.03 0.07 -0.16 -0.01 10108
-0.06 0.87 0.27 -1.12 10.02 0.04 -0.06 -0.06 10115
-0.05 0.85 0.77 -1.44 9.76 -0.00 -0.04 -0.06 10122
-0.02 0.84 0.56 -1.31 10.01 -0.00 -0.04 -0.05 10129
-0.01 0.87 0.31 -1.14 9.88 -0.01 -0.03 -0.06 10136
-0.02 0.89 0.37 -1.09 9.90 -0.02 -0.02 -0.07 10143
-0.04 0.83 0.45 -1.08 9.91 -0.01 -0.01 -0.07 10150
-0.01 0.82 0.42 -0.98 9.79 -0.00 -0.00 -0.07 10158
-0.00 0.75 0.39 -1.00 9.79 -0.00 0.00 -0.07 10165
-0.00 0.75 0.41 -1.00 9.77 0.00 0.01 -0.07 10172
-0.02 0.73 0.40 -1.01 9.80 0.00 0.01 -0.08 10179
0.01 0.66 0.37 -1.00 9.78 0.01 0.02 -0.08 10186
-0.00 0.64 0.37 -1.01 9.75 0.01 0.03 -0.08 10193
0.00 0.59 0.35 -0.99 9.84 0.01 0.03 -0.07 10201
0.02 0.55 0.35 -1.02 9.81 0.01 0.04 -0.07 10208
0.04 0.53 0.34 -0.98 9.79 0.02 0.05 -0.07 10215
0.04 0.47 0.36 -1.03 9.85 0.02 0.05 -0.07 10222
0.04 0.44 0.37 -1.02 9.77 0.02 0.05 -0.08 10229
0.02 0.43 0.38 -0.99 9.75 0.02 0.06 -0.08 10236
0.03 0.40 0.41 -0.99 9.78 0.02 0.06 -0.08 10244
0.03 0.35 0.42 -1.04 9.77 0.02 0.07 -0.08 10251
0.04 0.32 0.42 -1.03 9.74 0.01 0.07 -0.09 10258
0.03 0.28 0.48 -1.06 9.76 0.01 0.07 -0.09 10265
0.03 0.25 0.48 -1.22 9.71 0.01 0.06 -0.09 10272
0.02 0.23 0.45 -1.03 9.72 0.01 0.06 -0.09 10279
0.04 0.25 0.42 -1.02 9.71 0.00 0.06 -0.10 10287
0.05 0.25 0.46 -0.99 9.73 0.01 0.06 -0.10 10294
0.05 0.24 0.41 -1.05 9.76 0.00 0.05 -0.09 10301
0.05 0.19 0.40 -1.05 9.75 0.00 0.05 -0.09 10308
0.05 0.19 0.43 -1.03 9.72 0.01 0.05 -0.09 10315
0.04 0.18 0.44 -1.00 9.73 0.00 0.05 -0.09 10322
0.04 0.18 0.40 -1.06 9.68 -0.00 0.05 -0.08 10330
0.05 0.19 0.41 -1.03 9.74 -0.00 0.05 -0.08 10337
0.06 0.17 0.47 -1.05 9.78 0.00 0.06 -0.08 10344
0.06 0.17 0.46 -1.02 9.74 0.00 0.06 -0.09 10351
0.04 0.17 0.44 -1.07 9.72 0.01 0.06 -0.09 10358
0.06 0.14 0.42 -1.02 9.74 0.01 0.06 -0.09 10365
0.08 0.18 0.45 -1.02 9.75 0.01 0.06 -0.09 10373
0.09 0.12 0.42 -1.04 9.80 0.02 0.06 -0.09 10380
0.07 0.10 0.41 -1.02 9.78 0.02 0.06 -0.09 10387
0.08 0.09 0.44 -1.04 9.75 0.02 0.05 -0.10 10394
0.08 0.06 0.44 -1.08 9.80 0.02 0.05 -0.10 10401
0.08 0.07 0.45 -1.09 9.65 0.02 0.05 -0.10 10408
0.10 0.07 0.46 -1.06 9.82 0.02 0.04 -0.09 10416
0.11 0.06 0.48 -1.06 9.75 0.02 0.04 -0.10 10423
0.12 0.03 0.46 -1.08 9.79 0.03 0.03 -0.10 10430
0.15 0.04 0.45 -1.07 9.85 0.02 0.02 -0.10 10437
0.15 0.03 0.43 -1.08 9.81 0.03 0.02 -0.10 10444
0.18 0.03 0.41 -1.08 9.85 0.03 0.02 -0.10 10451
0.20 0.00 0.47 -1.07 9.84 0.03 0.02 -0.11 10459
0.24 0.02 0.46 -1.11 9.82 0.04 0.03 -0.10 10466
0.25 -0.01 0.42 -1.08 9.80 0.04 0.04 -0.10 10473
0.26 -0.03 0.49 -1.05 9.85 0.05 0.05 -0.11 10480
0.24 -0.01 0.47 -1.08 9.85 0.07 0.05 -0.11 10487
0.31 -0.02 0.51 -1.18 9.89 0.09 0.07 -0.12 10494
0.38 -0.02 0.56 -1.13 9.92 0.14 0.09 -0.13 10502
0.45 -0.02 0.52 -1.12 10.02 0.20 0.13 -0.15 10510
0.49 -0.02 0.63 -1.29 10.23 0.30 0.17 -0.17 10517
0.56 -0.03 0.60 -1.32 10.59 0.50 0.24 -0.19 10523
0.61 -0.03 0.75 -1.43 11.20 0.81 0.34 -0.22 10531
0.66 -0.03 0.62 -1.41 12.07 1.29 0.38 -0.23 10539
0.69 -0.03 0.65 -1.63 12.23 1.65 0.29 -0.23 10546
0.77 -0.03 0.56 -1.59 12.47 1.80 0.08 -0.23 10553
0.83 -0.04 0.46 -1.71 12.47 1.90 -0.02 -0.22 10560
0.92 -0.04 0.42 -1.87 12.09 1.98 -0.13 -0.21 10567
0.96 -0.03 1.97 -2.20 13.53 2.07 -0.31 -0.19 10574
1.00 -0.03 0.46 -1.97 12.28 2.18 -0.26 -0.21 10582
1.05 -0.05 0.42 -2.19 12.16 2.31 -0.25 -0.22 10589
1.04 -0.05 0.43 -2.40 11.67 2.48 -0.24 -0.21 10596
1.07 -0.05 0.44 -2.51 12.59 2.67 -0.23 -0.22 10603
1.02 -0.04 0.10 -2.57 13.86 2.87 -0.27 -0.20 10610
0.98 -0.03 -0.14 -2.76 14.26 3.18 -0.18 -0.18 10617
0.93 -0.03 0.27 -3.00 15.26 3.56 -0.12 -0.15 10625
0.87 -0.03 1.34 -3.53 15.91 4.03 -0.08 -0.18 10632
0.73 -0.03 1.64 -3.56 15.55 4.27 -0.08 -0.27 10639
0.51 -0.04 1.80 -4.31 17.07 4.28 -0.15 -0.33 10646
0.37 -0.02 1.16 -4.41 18.39 4.28 -0.07 -0.37 10653
0.26 -0.02 0.67 -6.16 20.65 4.28 0.04 -0.38 10660
0.21 -0.01 1.40 -8.12 22.97 4.28 0.15 -0.36 10668
0.18 -0.02 1.29 -10.30 27.34 4.28 0.42 -0.33 10675
0.14 -0.01 1.74 -10.50 27.61 4.28 0.72 -0.27 10682
0.10 -0.01 1.08 -8.90 25.25 4.28 1.02 -0.28 10688
0.09 -0.01 -1.09 -6.65 24.01 4.28 1.25 -0.28 10695
0.05 0.00 -2.21 -6.38 26.11 4.28 1.25 -0.24 10703
0.05 -0.01 -2.75 -6.09 29.34 4.28 0.82 -0.24 10710
0.03 -0.00 -0.84 -4.64 33.03 4.28 0.10 -0.32 10717
0.02 -0.00 0.91 -2.06 33.43 4.28 -0.56 -0.42 10724
0.01 -0.00 2.10 6.88 29.48 4.28 -1.05 -0.46 10731
0.00 0.00 5.47 13.21 18.57 4.28 -1.03 -0.34 10738
0.00 0.00 7.21 17.51 8.71 4.05 -0.71 -0.36 10745
0.00 0.00 3.92 28.45 -1.76 2.90 -0.16 -0.94 10753
0.00 0.00 5.01 18.73 9.75 2.35 0.15 -1.65 10760
0.00 0.00 5.96 10.35 27.53 0.70 0.85 -1.96 10767
0.00 0.00 2.40 12.03 19.67 -0.71 1.24 -2.02 10774
0.00 0.00 -0.40 13.67 12.86 -1.38 1.25 -2.03 10781
-0.00 0.00 -0.91 13.92 9.12 -1.88 0.80 -2.00 10788
0.00 0.00 -0.34 12.12 7.78 -2.42 0.28 -1.94 10796
0.00 0.00 -0.08 9.61 8.22 -2.68 -0.19 -1.83 10803
0.00 0.00 0.54 8.35 8.53 -2.88 -0.48 -1.69 10810
0.00 0.00 0.74 8.09 8.18 -3.13 -0.72 -1.55 10817
0.00 0.00 1.79 7.73 7.82 -3.36 -0.83 -1.37 10824
0.00 0.00 2.67 7.35 7.58 -3.62 -0.85 -1.23 10831
0.00 0.00 3.26 6.76 7.42 -3.88 -0.77 -1.08 10839
0.00 0.00 3.59 5.92 7.68 -4.05 -0.62 -0.94 10846
0.00 0.00 3.78 5.11 8.25 -4.16 -0.37 -0.83 10853
0.00 0.00 3.61 4.22 9.25 -4.22 -0.08 -0.68 10860
0.00 0.00 3.25 3.57 9.79 -4.27 0.15 -0.51 10867
0.00 0.00 2.84 3.06 10.00 -4.28 0.34 -0.38 10874
0.00 0.00 2.51 2.48 10.75 -4.28 0.44 -0.22 10882
0.00 0.00 2.12 1.75 11.31 -4.28 0.48 -0.10 10889
0.00 0.00 1.88 0.78 12.07 -4.28 0.49 0.01 10896
0.00 0.00 1.91 -0.14 12.49 -4.28 0.51 0.09 10903
0.00 0.00 2.08 -1.23 12.82 -4.28 0.54 0.13 10910
0.00 -0.00 2.23 -2.36 13.29 -4.28 0.62 0.11 10917
0.00 0.00 2.33 -3.40 14.11 -4.28 0.73 0.04 10925
0.00 0.00 2.19 -4.96 14.73 -4.28 0.94 -0.09 10932
0.00 0.00 2.12 -6.31 15.31 -4.28 1.11 -0.26 10939
0.00 0.00 1.63 -7.13 15.76 -4.28 1.28 -0.41 10946
0.00 0.00 1.34 -7.77 16.38 -4.25 1.40 -0.52 10953
0.00 0.00 1.40 -7.53 16.80 -4.12 1.41 -0.57 10960
0.00 0.00 1.12 -7.97 17.19 -3.92 1.43 -0.51 10968
0.00 0.00 1.74 -7.09 18.40 -3.76 1.46 -0.38 10975
0.00 0.00 2.07 -6.76 19.68 -3.66 1.52 -0.22 10982
0.00 0.00 2.54 -6.25 20.71 -3.67 1.61 -0.04 10989
0.00 0.00 2.09 -6.59 21.38 -3.78 1.70 0.13 10996
0.00 0.00 1.89 -7.51 21.69 -3.90 1.80 0.23 11003
0.00 0.00 1.43 -8.29 21.22 -4.01 1.80 0.28 11011
0.00 0.00 1.03 -9.35 20.86 -4.08 1.80 0.30 11018
0.00 0.00 0.87 -10.55 20.02 -4.06 1.75 0.29 11025
0.00 0.00 0.66 -11.20 18.82 -3.96 1.69 0.26 11032
0.00 0.00 1.01 -12.22 18.10 -3.71 1.65 0.21 11039
0.00 0.00 1.24 -13.06 17.90 -3.42 1.60 0.12 11046
0.00 0.00 1.13 -13.58 18.17 -3.05 1.60 0.04 11054
0.00 0.00 0.93 -14.24 18.62 -2.74 1.66 -0.02 11061
0.00 0.00 0.73 -15.18 18.87 -2.57 1.73 -0.04 11068
0.00 0.00 0.33 -16.21 18.76 -2.48 1.81 -0.04 11075
0.00 0.00 0.00 -17.46 17.34 -2.48 1.95 0.00 11082
0.00 0.00 -0.81 -17.77 14.48 -2.53 2.17 0.09 11089
0.00 0.00 -2.21 -18.25 12.56 -2.57 2.53 0.33 11097
0.00 0.00 -4.29 -20.20 11.08 -2.51 2.73 0.63 11104
0.00 0.00 -6.02 -22.81 9.63 -2.32 2.63 0.90 11111
0.00 0.00 -7.80 -25.67 7.38 -2.01 2.25 1.16 11118
0.00 0.00 -8.21 -27.92 4.41 -1.74 1.78 1.36 11125
0.00 0.00 -8.12 -28.78 2.27 -1.34 1.15 1.41 11132
0.00 0.00 -7.01 -28.48 1.26 -0.93 0.62 1.35 11140
0.00 0.00 -5.85 -27.59 2.35 -0.37 0.34 1.18 11147
0.00 0.00 -4.75 -25.28 3.25 0.17 0.16 0.91 11154
0.00 0.00 -4.08 -22.10 5.08 0.60 0.05 0.61 11161
0.00 0.00 -27.31 -41.55 43.53 2.31 -1.48 0.66 11169
0.00 0.00 -9.67 -18.77 4.35 2.90 -1.65 0.95 11175
0.00 0.00 -4.41 -14.04 -0.65 3.00 -2.63 0.95 11183
-0.00 0.03 0.56 -7.78 2.86 2.78 -3.30 1.01 11190
-0.01 0.06 -0.28 5.25 8.45 2.92 -1.55 1.43 11197
-0.02 0.17 1.46 2.94 16.48 3.27 -0.20 1.85 11204
-0.03 0.45 -10.17 0.23 21.01 3.88 -0.09 1.79 11212
-0.03 0.59 -15.43 -4.62 22.06 4.08 -0.75 0.90 11219
-0.05 0.78 -8.49 -6.79 21.06 3.98 -1.03 0.15 11227
-0.07 0.80 -3.52 -4.44 22.78 3.68 -0.61 -0.24 11234
-0.05 0.81 -1.48 -2.35 19.73 2.96 -0.35 -0.46 11241
-0.05 0.83 2.25 -1.65 15.69 2.41 -0.26 -0.56 11248
-0.05 0.85 3.86 -1.56 13.21 2.38 -0.27 -0.40 11255
-0.05 0.79 3.31 -2.30 20.26 2.39 -1.09 -0.22 11262
-0.05 0.79 2.17 -1.13 13.92 1.23 -1.68 -0.03 11270
-0.05 0.79 -0.00 -2.06 12.17 0.45 -1.07 0.06 11276
-0.05 0.82 -0.09 -1.47 11.01 0.13 -0.53 0.01 11284
-0.04 0.81 0.56 -1.12 10.42 0.03 -0.24 -0.03 11291
-0.04 0.78 0.39 -1.11 9.82 -0.01 -0.16 -0.05 11297
-0.05 0.79 0.57 -0.93 9.97 -0.02 -0.13 -0.06 11304
0.00 0.81 0.48 -0.76 9.70 -0.02 -0.12 -0.05 11312
-0.02 0.81 0.34 -0.74 9.95 -0.01 -0.09 -0.07 11319
-0.03 0.79 0.39 -0.73 9.83 -0.01 -0.07 -0.08 11326
0.01 0.74 0.44 -0.77 9.82 -0.01 -0.05 -0.08 11333
-0.01 0.67 0.34 -0.76 9.89 -0.00 -0.02 -0.08 11340
0.04 0.66 0.31 -0.80 9.95 -0.00 -0.01 -0.08 11347
0.03 0.61 0.30 -0.79 9.87 0.01 0.01 -0.07 11355
0.03 0.61 0.39 -0.75 9.84 0.01 0.02 -0.08 11362
0.03 0.61 0.42 -0.76 9.81 0.01 0.03 -0.07 11369
0.05 0.53 0.38 -0.76 9.81 0.02 0.03 -0.08 11376
0.02 0.53 0.38 -0.75 9.81 0.02 0.04 -0.08 11383
0.04 0.47 0.38 -0.76 9.81 0.02 0.05 -0.08 11390
0.04 0.40 0.42 -0.79 9.87 0.03 0.05 -0.09 11398
0.03 0.43 0.49 -0.73 9.81 0.03 0.05 -0.09 11405
0.03 0.34 0.50 -0.80 9.81 0.03 0.05 -0.10 11412
0.04 0.27 0.48 -0.80 9.82 0.03 0.05 -0.11 11419
0.05 0.25 0.47 -0.78 9.79 0.03 0.04 -0.10 11426
0.06 0.16 0.44 -0.77 9.77 0.03 0.04 -0.12 11433
0.06 0.15 0.43 -0.81 9.79 0.03 0.04 -0.11 11441
0.08 0.13 0.36 -0.80 9.80 0.03 0.04 -0.11 11448
0.10 0.11 0.39 -0.78 9.86 0.04 0.05 -0.10 11455
0.11 0.07 0.34 -0.79 9.21 0.04 0.05 -0.10 11462
0.14 0.03 0.38 -0.80 9.83 0.04 0.05 -0.09 11469
0.14 0.01 0.44 -0.78 9.81 0.05 0.06 -0.09 11476
0.16 -0.00 0.45 -0.82 9.82 0.05 0.06 -0.09 11484
0.17 0.03 0.45 -0.85 9.82 0.06 0.06 -0.09 11491
0.18 0.01 0.46 -0.80 9.79 0.06 0.06 -0.09 11498
0.20 -0.00 0.46 -0.80 9.81 0.05 0.06 -0.09 11505
0.22 0.05 0.49 -0.87 9.81 0.05 0.06 -0.09 11512
0.23 0.04 0.48 -0.89 9.78 0.05 0.06 -0.10 11520
0.26 0.00 0.44 -0.85 9.81 0.06 0.06 -0.10 11527
0.30 -0.01 0.40 -0.84 9.80 0.06 0.06 -0.10 11534
0.31 -0.02 0.47 -0.87 9.76 0.06 0.06 -0.10 11541
0.32 -0.02 0.44 -0.85 9.78 0.06 0.07 -0.11 11548
0.30 -0.02 0.44 -0.89 9.79 0.06 0.07 -0.11 11555
0.30 -0.01 0.46 -0.88 9.80 0.06 0.08 -0.11 11563
0.33 -0.00 0.44 -0.92 9.80 0.06 0.08 -0.11 11570
0.36 -0.00 0.44 -0.92 9.80 0.06 0.08 -0.12 11577
0.44 -0.03 0.47 -0.90 9.78 0.07 0.08 -0.12 11584
0.45 -0.03 0.46 -0.92 9.20 0.08 0.09 -0.12 11591
0.46 -0.04 0.49 -0.96 9.82 0.10 0.09 -0.12 11598
0.48 -0.02 0.48 -0.92 9.81 0.11 0.10 -0.12 11606
0.50 -0.03 0.51 -0.93 9.84 0.14 0.10 -0.12 11613
0.55 -0.03 0.50 -0.96 9.93 0.18 0.11 -0.12 11620
0.60 -0.03 0.51 -1.01 9.99 0.23 0.12 -0.13 11627
0.67 -0.03 0.51 -1.02 10.05 0.32 0.14 -0.14 11635
0.69 -0.03 0.58 -1.05 10.15 0.42 0.17 -0.15 11642
0.72 -0.03 0.47 -1.11 10.39 0.58 0.20 -0.16 11650
0.79 -0.04 0.70 -1.22 10.85 0.79 0.23 -0.17 11657
0.86 -0.03 0.71 -1.30 10.94 0.96 0.22 -0.18 11664
0.95 -0.04 0.70 -1.35 11.12 1.15 0.14 -0.20 11671
1.00 -0.04 0.68 -1.41 11.42 1.27 0.03 -0.19 11677
1.05 -0.04 0.78 -1.62 11.28 1.39 -0.03 -0.21 11685
1.07 -0.04 0.73 -1.75 11.84 1.49 -0.11 -0.22 11693
1.14 -0.04 0.61 -1.63 12.12 1.62 -0.18 -0.22 11700
1.22 -0.05 0.60 -1.83 12.43 1.76 -0.23 -0.22 11707
1.27 -0.05 0.47 -1.84 12.51 1.92 -0.27 -0.21 11714
1.31 -0.05 0.44 -1.91 12.69 2.13 -0.30 -0.22 11721
1.28 -0.05 0.40 -2.02 12.51 2.33 -0.34 -0.21 11728
1.28 -0.05 0.31 -2.13 12.65 2.49 -0.37 -0.20 11736
1.32 -0.04 0.52 -2.29 12.39 2.74 -0.39 -0.19 11743
1.34 -0.04 0.38 -2.48 13.04 2.96 -0.41 -0.20 11750
1.31 -0.05 0.46 -2.74 13.59 3.24 -0.46 -0.22 11757
1.24 -0.05 0.11 -2.92 14.42 3.58 -0.41 -0.22 11764
1.18 -0.05 0.58 -3.62 15.67 3.95 -0.43 -0.20 11771
1.06 -0.04 0.65 -3.96 16.08 4.26 -0.42 -0.20 11779
0.86 -0.02 2.04 -4.22 16.55 4.28 -0.52 -0.29 11786
0.59 -0.03 3.43 -4.55 17.70 4.28 -0.65 -0.48 11793
0.42 -0.03 2.68 -5.65 19.02 4.28 -0.77 -0.62 11800
0.35 -0.03 2.38 -8.22 21.32 4.28 -0.85 -0.75 11807
0.20 -0.02 1.74 -10.43 26.68 4.28 -0.80 -0.82 11814
0.16 -0.01 3.20 -12.09 27.24 4.28 -0.72 -0.88 11822
0.17 -0.02 3.80 -9.72 27.13 4.28 -0.47 -0.94 11828
0.15 -0.01 2.50 -8.27 25.61 4.28 -0.23 -1.02 11835
0.06 -0.01 1.37 -6.62 24.79 4.28 -0.01 -1.08 11842
0.07 -0.01 0.42 -4.33 27.97 4.28 -0.06 -1.10 11849
0.05 -0.01 0.95 -2.93 29.71 4.28 -0.49 -1.16 11856
0.06 -0.01 3.02 -0.78 29.74 4.28 -1.03 -1.26 11864
0.01 -0.00 5.87 1.72 31.02 4.28 -1.64 -1.36 11871
0.00 0.00 7.90 16.14 32.22 4.28 -1.70 -1.35 11878
0.00 0.00 10.23 14.89 15.55 4.28 -1.20 -1.36 11885
0.00 0.00 9.43 20.03 5.54 3.70 -0.64 -1.53 11892
0.00 0.00 9.48 29.29 -3.87 2.66 -0.44 -1.96 11899
0.00 -0.00 7.22 19.16 23.20 1.74 0.23 -2.03 11907
0.01 -0.00 6.55 12.54 29.63 -0.42 0.75 -1.78 11915
0.00 0.00 4.00 13.57 18.71 -2.14 0.82 -1.37 11921
0.00 0.00 1.53 14.12 11.90 -2.95 0.60 -0.97 11928
0.00 0.00 1.39 12.67 8.67 -3.51 0.34 -0.71 11935
0.00 0.00 3.04 10.10 4.94 -3.82 0.01 -0.56 11942
0.00 0.00 3.15 7.32 7.14 -3.84 -0.14 -0.45 11950
0.00 0.00 3.14 5.87 7.30 -3.82 -0.05 -0.35 11957
0.00 0.00 3.44 5.45 7.21 -3.82 0.21 -0.28 11964
0.00 0.00 3.65 5.13 7.06 -3.86 0.53 -0.26 11971
0.00 0.00 3.12 4.91 7.22 -3.99 0.75 -0.26 11978
0.00 0.00 2.32 4.59 8.03 -4.11 0.98 -0.25 11985
0.00 0.00 2.00 3.95 9.10 -4.22 1.10 -0.24 11993
0.00 0.00 1.37 2.98 9.76 -4.27 1.16 -0.21 12000
0.00 0.00 1.26 2.01 10.27 -4.28 1.21 -0.14 12007
0.00 0.00 1.27 1.31 10.62 -4.28 1.24 -0.06 12014
0.00 0.00 1.22 0.76 10.70 -4.28 1.22 0.03 12021
0.00 0.00 1.14 0.26 11.05 -4.28 1.16 0.12 12028
0.00 0.00 1.17 -0.16 11.61 -4.28 1.12 0.20 12036
0.00 0.00 1.37 -0.78 12.26 -4.28 1.16 0.28 12043
0.00 0.00 1.54 -1.40 13.00 -4.28 1.24 0.32 12050
0.00 0.00 1.54 -2.10 14.02 -4.28 1.37 0.32 12057
0.00 0.00 1.24 -2.91 14.93 -4.28 1.52 0.27 12064
0.00 0.00 0.96 -3.75 15.63 -4.28 1.74 0.23 12071
0.00 -0.00 0.73 -4.52 16.21 -4.28 1.96 0.16 12079
0.00 0.00 0.42 -5.51 16.44 -4.28 2.13 0.11 12086
0.00 0.00 -0.07 -6.48 17.44 -4.28 2.26 0.07 12093
0.00 0.00 -0.38 -7.50 17.15 -4.27 2.35 0.05 12100
0.00 0.00 -1.18 -8.24 17.29 -4.16 2.35 0.06 12107
0.00 0.00 -1.85 -8.95 18.04 -3.93 2.27 0.05 12114
0.01 -0.00 -2.18 -9.59 18.30 -3.62 2.15 0.06 12122
0.00 0.00 -1.76 -8.90 18.78 -3.37 1.91 0.04 12129
0.00 0.00 -1.10 -8.52 20.13 -3.26 1.74 0.02 12136
0.00 0.00 0.01 -8.47 20.32 -3.26 1.65 0.02 12143
0.00 0.00 0.74 -8.29 20.38 -3.35 1.64 0.03 12150
-0.00 0.00 1.10 -8.83 20.55 -3.43 1.69 0.07 12157
0.00 0.00 1.14 -9.30 20.02 -3.48 1.72 0.11 12165
0.00 0.00 0.91 -9.83 19.09 -3.46 1.73 0.18 12172
0.00 0.00 0.66 -10.25 18.39 -3.36 1.74 0.24 12179
0.00 0.00 0.47 -10.72 17.74 -3.22 1.74 0.32 12186
0.00 0.00 0.26 -11.63 18.02 -3.07 1.79 0.38 12193
0.00 0.00 -0.02 -12.46 18.19 -2.91 1.92 0.43 12200
0.00 0.00 -0.65 -13.62 17.52 -2.82 2.06 0.44 12208
0.00 0.00 -1.14 -14.78 16.49 -2.73 2.13 0.42 12215
0.00 0.00 -1.98 -16.00 14.89 -2.64 2.15 0.36 12222
0.00 0.00 -2.56 -16.83 13.57 -2.59 2.10 0.30 12229
0.00 0.00 -3.43 -18.08 12.83 -2.50 2.10 0.25 12236
0.00 0.00 -4.76 -19.50 10.96 -2.34 2.05 0.29 12243
0.00 0.00 -5.91 -21.38 8.99 -2.20 1.90 0.42 12251
0.00 0.00 -6.90 -22.92 7.23 -1.96 1.55 0.55 12258
0.00 0.00 -7.25 -25.35 5.03 -1.65 1.10 0.74 12265
0.00 0.00 -6.87 -27.04 3.35 -1.16 0.75 0.89 12272
0.00 0.00 -6.00 -27.75 2.05 -0.61 0.46 1.00 12279
0.00 0.00 -5.17 -27.03 1.78 -0.14 0.26 1.02 12286
0.00 0.00 -4.38 -25.28 3.31 0.38 0.08 0.96 12294
0.00 0.00 -3.84 -22.59 5.84 0.75 -0.01 0.88 12301
0.00 0.00 -3.61 -20.06 7.62 1.05 -0.06 0.80 12308
0.00 0.00 -12.26 -26.70 6.69 1.35 -0.51 0.83 12315
0.00 0.00 -2.43 -19.99 0.62 3.37 -2.45 1.51 12322
0.00 0.00 0.37 -6.49 4.81 3.18 -3.21 1.45 12329
-0.00 0.02 5.02 1.37 0.47 2.72 -3.89 1.20 12337
-0.00 0.04 0.67 4.91 12.46 2.93 -2.82 1.47 12344
-0.01 0.14 1.99 8.58 17.73 2.84 -0.96 1.93 12351
-0.02 0.37 -7.27 2.24 14.10 3.11 -0.63 1.92 12359
-0.03 0.58 -12.42 -4.01 20.08 3.69 -1.01 1.46 12366
-0.04 0.72 -10.23 -7.67 16.54 4.05 -1.09 0.78 12374
-0.05 0.83 -7.57 -5.36 23.78 4.12 -0.66 0.23 12381
-0.05 0.82 -5.56 -2.98 23.60 3.47 -0.56 -0.28 12388
-0.06 0.90 0.35 -2.03 18.76 2.73 -0.42 -0.71 12395
-0.06 0.91 3.64 -2.00 16.21 2.60 -0.34 -0.65 12402
-0.05 0.89 3.88 -2.44 22.54 2.00 -1.33 -0.39 12409
-0.04 0.87 2.89 -1.75 12.02 0.92 -1.35 -0.03 12417
-0.05 0.86 0.36 -1.75 11.35 0.43 -0.85 0.08 12424
-0.04 0.86 -0.36 -0.91 10.98 0.18 -0.49 0.02 12431
-0.05 0.88 0.19 -1.01 10.46 0.07 -0.29 -0.06 12438
-0.05 0.89 0.75 -1.11 10.03 0.02 -0.15 -0.06 12445
-0.04 0.86 0.81 -0.95 9.93 0.01 -0.10 -0.04 12451
-0.04 0.85 0.51 -0.79 9.29 0.00 -0.08 -0.04 12459
-0.01 0.87 0.51 -0.75 9.93 -0.01 -0.05 -0.05 12466
-0.02 0.85 0.63 -0.75 9.78 -0.00 -0.03 -0.06 12473
-0.03 0.77 -0.17 -0.72 7.09 -0.00 -0.01 -0.06 12480
-0.03 0.75 0.47 -0.77 9.81 0.01 -0.00 -0.07 12487
0.00 0.73 0.50 -0.81 9.83 0.01 0.01 -0.07 12494
-0.01 0.71 0.51 -0.76 9.80 0.01 0.02 -0.06 12502
0.02 0.66 0.48 -0.76 9.87 0.02 0.06 -0.06 12509
0.01 0.62 0.51 -0.75 9.80 0.02 0.05 -0.06 12516
0.00 0.56 0.55 -0.73 9.82 0.02 0.06 -0.06 12523
0.01 0.54 0.56 -0.76 9.78 0.03 0.06 -0.06 12530
0.03 0.51 0.56 -0.74 9.81 0.03 0.07 -0.07 12537
0.02 0.47 0.60 -0.75 9.82 0.03 0.08 -0.07 12545
0.02 0.39 0.61 -0.75 9.81 0.03 0.08 -0.07 12552
0.01 0.40 0.61 -0.79 9.76 0.04 0.08 -0.07 12559
0.02 0.40 0.67 -0.77 9.77 0.04 0.08 -0.07 12566
0.03 0.32 0.69 -0.75 9.73 0.03 0.08 -0.08 12573
0.04 0.27 0.44 -0.63 9.67 0.04 0.08 -0.09 12580
0.04 0.24 0.69 -0.81 9.79 0.03 0.08 -0.09 12588
0.05 0.16 0.66 -0.79 9.76 0.03 0.07 -0.09 12595
0.05 0.15 0.62 -0.80 9.80 0.03 0.08 -0.09 12602
0.06 0.11 0.60 -0.77 9.78 0.04 0.07 -0.10 12609
0.07 0.10 0.54 -0.80 9.76 0.04 0.07 -0.09 12616
0.08 0.07 0.63 -0.81 9.80 0.03 0.07 -0.09 12623
0.09 0.06 0.66 -0.82 9.76 0.03 0.07 -0.09 12631
0.09 0.02 0.61 -0.86 9.81 0.04 0.07 -0.09 12638
0.09 0.02 0.62 -0.83 9.74 0.04 0.07 -0.09 12645
0.09 0.03 0.66 -0.90 9.80 0.04 0.07 -0.09 12652
0.11 0.04 0.68 -0.84 9.71 0.04 0.07 -0.09 12659
0.13 0.00 0.68 -0.86 9.74 0.04 0.06 -0.10 12666
0.11 0.01 0.66 -0.84 9.76 0.04 0.05 -0.10 12674
0.12 -0.01 0.65 -0.85 9.80 0.04 0.03 -0.10 12681
0.13 0.01 0.65 -0.86 9.81 0.03 0.03 -0.11 12688
0.14 0.01 0.62 -0.86 9.79 0.03 0.02 -0.10 12695
0.19 0.01 0.63 -0.83 9.77 0.03 0.01 -0.11 12702
0.22 0.00 0.63 -0.88 9.82 0.03 0.01 -0.11 12709
0.21 -0.02 0.59 -0.87 9.81 0.03 0.01 -0.11 12717
0.23 -0.00 0.64 -0.86 9.82 0.03 0.02 -0.10 12724
0.27 -0.02 0.02 -0.90 9.78 0.03 0.02 -0.11 12731
0.29 0.00 0.62 -0.87 9.82 0.03 0.03 -0.10 12738
0.30 -0.01 0.59 -0.87 9.73 0.03 0.04 -0.10 12745
0.34 -0.02 0.60 -0.91 9.73 0.03 0.04 -0.10 12752
0.36 -0.02 0.62 -0.88 9.81 0.04 0.05 -0.10 12760
0.39 -0.02 1.21 -0.88 9.80 0.05 0.06 -0.10 12767
0.40 -0.02 0.59 -0.89 9.83 0.06 0.06 -0.11 12774
0.42 -0.02 0.58 -0.91 9.82 0.07 0.07 -0.11 12781
0.44 -0.02 0.61 -0.89 9.86 0.08 0.09 -0.12 12788
0.45 -0.02 0.63 -0.93 9.85 0.11 0.11 -0.12 12795
0.46 -0.03 0.64 -1.01 9.93 0.14 0.12 -0.12 12803
0.49 -0.02 0.76 -1.08 9.87 0.18 0.15 -0.13 12810
0.57 -0.03 0.75 -1.05 9.99 0.26 0.19 -0.14 12817
0.62 -0.03 0.82 -0.92 10.27 0.36 0.25 -0.17 12825
0.66 -0.04 0.86 -1.13 10.61 0.56 0.33 -0.18 12832
0.72 -0.04 0.89 -1.19 11.16 0.79 0.41 -0.19 12839
0.74 -0.04 0.89 -1.04 11.37 1.12 0.39 -0.20 12847
0.76 -0.04 0.71 -1.29 11.75 1.38 0.31 -0.20 12854
0.80 -0.03 0.79 -1.37 12.30 1.53 0.19 -0.20 12861
0.88 -0.04 0.72 -1.47 12.16 1.69 0.10 -0.20 12868
0.92 -0.04 0.85 -1.67 12.86 1.89 0.01 -0.20 12875
0.96 -0.03 0.72 -1.62 12.85 2.09 -0.03 -0.19 12882
0.96 -0.04 0.76 -1.87 12.91 2.34 -0.07 -0.19 12890
1.00 -0.04 0.73 -2.02 12.89 2.53 -0.08 -0.18 12896
1.00 -0.04 0.82 -2.02 13.17 2.78 -0.11 -0.18 12904
0.95 -0.04 0.87 -2.13 12.93 3.02 -0.09 -0.20 12911
0.95 -0.04 0.96 -1.88 12.86 3.20 -0.09 -0.20 12918
0.95 -0.04 0.42 -2.47 14.25 3.47 -0.02 -0.19 12925
0.87 -0.03 0.40 -2.63 14.29 3.78 0.03 -0.15 12933
0.82 -0.04 1.23 -3.35 15.60 4.15 0.04 -0.14 12940
0.71 -0.03 1.71 -3.55 15.87 4.28 0.04 -0.20 12947
0.56 -0.03 2.58 -3.54 13.96 4.28 -0.02 -0.31 12954
0.42 -0.02 1.66 -4.97 18.98 4.28 -0.12 -0.35 12961
0.33 -0.03 1.21 -5.79 20.29 4.28 -0.18 -0.41 12968
0.25 -0.02 2.44 -7.62 22.71 4.28 -0.20 -0.43 12976
0.18 -0.01 2.50 -10.17 25.50 4.28 -0.10 -0.46 12983
0.16 -0.01 3.34 -11.45 28.48 4.28 0.06 -0.46 12990
0.14 -0.01 2.91 -11.68 27.41 4.28 0.30 -0.48 12997
0.10 -0.01 2.26 -9.41 25.80 4.28 0.43 -0.54 13003
0.06 -0.01 0.92 -7.52 24.95 4.28 0.55 -0.58 13010
0.00 -0.00 -0.30 -5.83 26.63 4.28 0.54 -0.61 13018
0.03 -0.00 0.23 -4.45 31.50 4.28 0.26 -0.66 13025
0.05 -0.00 3.08 -1.98 32.59 4.28 -0.24 -0.72 13032
0.04 -0.00 3.99 1.38 31.15 4.28 -0.73 -0.82 13039
0.00 0.00 3.52 10.40 17.02 4.28 -0.80 -0.79 13046
0.00 0.00 8.67 17.85 16.28 4.28 -0.43 -0.77 13053
0.00 0.00 6.09 23.27 3.59 3.54 0.17 -1.03 13061
0.00 0.00 6.87 26.58 -6.87 2.54 0.32 -1.88 13068
0.00 -0.00 5.81 15.44 23.70 1.29 0.76 -2.37 13075
0.00 0.00 4.79 11.27 27.14 -0.58 1.23 -2.45 13082
0.00 0.00 1.62 13.32 19.44 -1.98 1.47 -2.37 13089
0.00 0.00 -0.03 14.26 12.33 -2.64 1.16 -2.23 13096
0.00 0.00 -0.18 13.03 8.86 -3.32 0.71 -2.07 13104
0.00 0.00 0.66 10.39 7.78 -3.72 0.21 -1.94 13111
0.01 -0.00 1.18 7.61 7.76 -3.82 -0.12 -1.82 13118
0.00 0.00 1.35 6.11 7.79 -3.84 -0.37 -1.71 13125
0.00 0.00 1.91 5.26 7.47 -3.82 -0.43 -1.56 13132
0.00 0.00 2.68 5.04 6.34 -3.79 -0.36 -1.44 13139
0.00 0.00 3.08 5.08 6.30 -3.83 -0.23 -1.31 13147
0.00 0.00 3.14 5.16 6.48 -3.92 -0.09 -1.17 13154
0.00 0.00 3.38 4.79 7.39 -4.05 0.12 -1.05 13161
0.00 0.00 3.36 4.09 8.32 -4.13 0.39 -0.91 13168
0.00 0.00 3.21 3.42 9.13 -4.20 0.67 -0.77 13175
0.00 0.00 2.84 2.85 9.52 -4.25 0.98 -0.57 13182
0.00 0.00 2.42 2.55 9.91 -4.28 1.21 -0.36 13190
0.00 0.00 1.78 2.20 10.42 -4.28 1.31 -0.18 13197
0.00 0.00 1.19 1.54 11.28 -4.28 1.36 0.02 13204
0.00 0.00 0.81 0.80 12.25 -4.28 1.36 0.21 13211
0.00 0.00 0.53 -0.08 12.99 -4.28 1.35 0.35 13218
0.00 0.00 0.37 -0.82 14.00 -4.28 1.35 0.47 13225
0.00 0.00 0.21 -1.45 14.75 -4.28 1.37 0.52 13233
0.00 0.00 -0.13 -2.26 15.52 -4.28 1.47 0.51 13240
0.00 0.00 -0.30 -3.19 15.99 -4.28 1.60 0.44 13247
0.00 0.00 -0.97 -4.05 16.14 -4.28 1.76 0.33 13254
0.00 0.00 -1.68 -5.22 16.68 -4.28 1.89 0.19 13261
0.00 0.00 -1.88 -5.42 16.83 -4.28 1.96 0.09 13268
0.00 0.00 -2.42 -6.42 17.23 -4.26 1.96 -0.01 13276
0.00 0.00 -2.62 -7.50 17.70 -4.16 1.96 -0.05 13283
0.00 0.00 -2.69 -7.74 18.51 -3.93 1.89 -0.07 13290
0.00 0.00 -2.75 -7.90 19.62 -3.72 1.77 -0.04 13297
0.00 0.00 -2.12 -7.64 20.79 -3.53 1.65 0.00 13304
0.00 0.00 -1.82 -7.46 21.25 -3.50 1.46 0.05 13312
0.00 0.00 -1.39 -8.41 22.01 -3.56 1.27 0.09 13319
0.00 0.00 -0.91 -9.35 21.70 -3.68 1.10 0.12 13326
0.00 0.00 -0.49 -10.45 21.58 -3.78 0.94 0.15 13333
0.00 0.00 -0.01 -11.16 20.81 -3.83 0.84 0.14 13340
0.00 0.00 0.34 -12.12 20.20 -3.81 0.76 0.11 13347
0.00 0.00 0.61 -12.78 19.16 -3.72 0.79 0.07 13355
0.00 0.00 0.78 -13.38 18.58 -3.56 0.88 0.06 13362
0.00 0.00 0.75 -14.18 18.28 -3.38 1.02 0.09 13369
0.00 0.00 0.64 -15.18 18.09 -3.24 1.19 0.18 13376
0.00 0.00 0.30 -16.28 17.55 -3.12 1.44 0.31 13383
0.00 0.00 -0.53 -17.57 16.03 -3.04 1.70 0.49 13390
0.00 0.00 -2.17 -18.74 13.58 -2.97 1.89 0.69 13398
0.00 0.00 -4.22 -20.22 12.22 -2.88 2.01 0.96 13405
0.00 0.00 -5.56 -22.63 10.76 -2.73 1.94 1.23 13412
0.00 0.00 -6.62 -25.40 8.67 -2.41 1.57 1.37 13419
0.00 -0.00 -6.85 -27.54 5.64 -2.01 0.96 1.45 13426
0.00 0.00 -5.99 -28.02 3.03 -1.62 0.50 1.46 13433
0.00 0.00 -4.59 -28.24 2.27 -1.10 0.20 1.38 13441
0.02 -0.00 -3.85 -28.12 2.14 -0.64 0.15 1.25 13448
0.01 -0.00 -3.50 -26.86 3.15 -0.11 0.22 1.11 13455
0.00 0.00 -3.57 -24.73 4.53 0.31 0.30 0.94 13462
0.00 0.00 -17.60 -28.09 56.66 2.64 -0.09 0.98 13469
0.00 0.00 -9.21 -20.42 8.71 2.66 0.11 1.02 13476
-0.00 0.00 -4.84 -21.85 0.88 3.11 -0.67 0.94 13484
-0.00 0.01 -2.95 -20.14 2.23 3.03 -1.46 0.83 13491
-0.00 0.04 -1.78 7.04 3.66 3.19 -1.36 0.78 13498
-0.01 0.09 -0.83 -1.83 15.74 3.58 -0.72 0.86 13505
-0.03 0.27 -3.01 4.39 22.03 4.02 -0.58 0.82 13512
-0.04 0.53 -6.78 -2.83 22.03 4.19 -0.96 0.45 13520
-0.05 0.75 -5.73 -5.88 20.89 4.14 -1.21 -0.02 13528
-0.04 0.82 -2.42 -5.55 21.43 3.97 -0.90 -0.22 13535
-0.05 0.90 -1.04 -2.85 19.93 3.62 -0.51 -0.35 13542
-0.06 0.91 0.77 -2.56 20.00 3.20 -0.45 -0.44 13549
-0.06 0.93 2.81 -2.66 22.42 2.92 -0.70 -0.45 13556
-0.06 0.91 2.42 -1.29 15.73 1.47 -1.54 -0.25 13563
-0.06 0.90 1.43 -2.44 12.51 0.55 -0.98 -0.01 13571
-0.04 0.89 0.09 -1.50 11.05 0.25 -0.45 0.05 13577
-0.05 0.89 -0.13 -0.81 10.35 0.09 -0.23 0.01 13585
-0.05 0.91 -0.01 -0.86 10.10 0.04 -0.10 -0.04 13591
-0.06 0.90 1.20 -1.02 9.86 0.01 -0.04 -0.05 13598
-0.05 0.91 0.59 -1.05 9.90 -0.01 -0.02 -0.03 13605
-0.04 0.94 0.34 -0.80 9.87 -0.01 -0.01 -0.04 13613
-0.01 0.93 0.52 -0.80 9.86 -0.01 0.01 -0.05 13620
-0.04 0.88 -1.09 -1.71 9.65 -0.01 0.01 -0.05 13627
-0.01 0.81 0.56 -0.71 9.79 -0.01 0.02 -0.06 13634
-0.02 0.77 0.48 -0.72 10.41 0.00 0.02 -0.06 13641
-0.01 0.77 0.53 -0.69 9.76 0.01 0.03 -0.07 13648
0.01 0.74 0.43 -0.70 9.99 0.01 0.03 -0.07 13656
-0.00 0.66 0.45 -0.73 9.82 0.02 0.04 -0.07 13663
0.01 0.62 0.44 -0.73 9.82 0.02 0.05 -0.07 13670
0.02 0.55 0.47 -0.72 10.40 0.02 0.06 -0.07 13677
0.00 0.54 0.44 -0.73 9.79 0.03 0.08 -0.07 13684
0.02 0.49 0.48 -0.71 9.83 0.03 0.08 -0.07 13691
0.03 0.41 0.47 -0.73 9.83 0.04 0.09 -0.07 13699
0.03 0.42 0.49 -0.70 9.81 0.04 0.11 -0.07 13706
0.05 0.30 0.54 -0.76 9.79 0.04 0.12 -0.08 13713
0.02 0.25 0.53 -0.74 9.82 0.05 0.12 -0.08 13720
0.03 0.22 0.58 -0.81 9.78 0.04 0.12 -0.08 13727
0.04 0.18 0.57 -0.74 9.79 0.05 0.12 -0.08 13734
0.06 0.13 0.60 -0.81 9.72 0.05 0.11 -0.08 13742
0.05 0.10 0.63 -0.75 9.77 0.04 0.11 -0.09 13749
0.05 0.08 0.59 -0.82 9.76 0.04 0.10 -0.09 13756
0.04 0.08 0.58 -0.79 9.80 0.04 0.10 -0.10 13763
0.04 0.04 0.56 -0.75 9.80 0.04 0.10 -0.09 13770
0.06 0.03 0.53 -0.83 9.82 0.04 0.09 -0.10 13777
0.07 0.06 0.57 -0.79 9.82 0.04 0.10 -0.09 13785
0.06 0.03 0.61 -0.80 9.76 0.04 0.09 -0.09 13792
0.07 0.02 0.62 -0.80 9.78 0.05 0.09 -0.09 13799
0.06 0.03 0.58 -0.80 9.76 0.04 0.08 -0.09 13806
0.08 -0.00 0.61 -0.82 9.81 0.04 0.08 -0.10 13813
0.09 0.02 0.65 -0.84 9.78 0.04 0.07 -0.10 13820
0.09 0.01 0.54 -0.86 9.80 0.03 0.06 -0.10 13828
0.10 -0.00 0.64 -0.85 9.78 0.02 0.05 -0.10 13835
0.11 -0.01 0.67 -0.87 9.74 0.02 0.04 -0.10 13842
0.12 -0.01 0.67 -0.80 9.75 0.02 0.03 -0.10 13849
0.12 -0.01 0.66 -0.91 9.72 0.02 0.02 -0.10 13856
0.15 -0.01 0.65 -0.86 9.75 0.01 0.01 -0.11 13863
0.14 -0.01 0.61 -0.85 9.79 0.01 0.01 -0.11 13871
0.14 -0.00 0.61 -0.86 9.81 0.01 0.01 -0.11 13878
0.14 -0.00 0.60 -0.90 9.79 0.00 0.01 -0.11 13885
0.15 0.00 0.56 -0.89 9.73 0.00 0.01 -0.11 13892
0.16 0.01 0.57 -0.86 9.76 0.00 0.01 -0.11 13899
0.17 -0.00 0.57 -0.91 9.77 0.00 0.02 -0.11 13906
0.19 -0.00 0.59 -0.82 9.77 0.01 0.02 -0.11 13914
0.19 -0.01 0.66 -0.90 9.83 0.01 0.02 -0.11 13921
0.20 -0.01 0.55 -0.86 9.83 0.02 0.04 -0.11 13928
0.23 -0.00 0.54 -0.85 9.22 0.03 0.04 -0.11 13935
0.26 0.01 0.57 -0.82 9.85 0.05 0.06 -0.11 13942
0.32 -0.01 0.59 -0.84 9.84 0.06 0.07 -0.11 13949
0.34 -0.01 0.67 -0.91 9.91 0.09 0.09 -0.12 13957
0.37 -0.01 0.63 -0.84 9.87 0.13 0.13 -0.13 13964
0.41 -0.03 0.72 -0.91 10.05 0.20 0.17 -0.14 13972
0.44 -0.02 0.67 -1.04 10.20 0.31 0.24 -0.17 13979
0.50 -0.03 0.65 -1.12 10.51 0.47 0.31 -0.17 13986
0.55 -0.03 0.68 -1.06 10.98 0.74 0.41 -0.17 13993
0.56 -0.03 0.85 -1.03 11.17 1.09 0.48 -0.18 14001
0.67 -0.04 0.69 -1.82 11.77 1.38 0.47 -0.18 14008
0.69 -0.03 0.84 -1.40 11.95 1.63 0.31 -0.19 14015
0.79 -0.03 0.74 -1.53 12.24 1.76 0.11 -0.19 14022
0.82 -0.03 0.81 -1.63 11.65 1.88 0.06 -0.20 14029
0.91 -0.03 0.79 -1.57 12.71 2.04 -0.04 -0.19 14036
0.93 -0.03 0.81 -1.95 12.82 2.22 -0.09 -0.19 14044
0.95 -0.04 0.77 -1.85 13.03 2.45 -0.12 -0.18 14051
0.94 -0.04 0.69 -2.05 12.80 2.66 -0.16 -0.18 14058
0.95 -0.03 0.55 -2.08 13.31 2.90 -0.16 -0.18 14065
0.95 -0.04 0.45 -2.38 13.91 3.15 -0.14 -0.16 14072
0.91 -0.04 0.78 -2.51 14.09 3.44 -0.07 -0.15 14080
0.86 -0.03 1.02 -2.57 14.51 3.83 -0.01 -0.15 14087
0.78 -0.03 1.52 -2.91 14.67 4.14 0.05 -0.19 14094
0.66 -0.03 1.03 -3.19 15.95 4.28 0.04 -0.23 14101
0.53 -0.02 1.06 -3.05 15.51 4.28 -0.04 -0.23 14108
0.39 -0.02 1.42 -4.74 19.68 4.28 -0.06 -0.24 14115
0.26 -0.02 1.51 -5.90 20.91 4.28 -0.08 -0.31 14123
0.33 -0.03 2.52 -7.93 22.08 4.28 -0.07 -0.38 14129
0.33 -0.02 1.90 -10.35 28.95 4.28 -0.06 -0.42 14137
0.21 -0.02 2.89 -10.90 29.20 4.28 0.15 -0.42 14144
0.19 -0.01 2.65 -9.77 27.18 4.28 0.36 -0.45 14151
0.13 -0.01 0.81 -7.60 24.89 4.28 0.43 -0.51 14157
0.05 -0.01 -0.83 -6.77 24.32 4.28 0.48 -0.50 14164
0.05 -0.01 -1.81 -5.89 29.66 4.28 0.22 -0.52 14172
0.03 -0.00 0.36 -4.76 33.19 4.28 -0.31 -0.51 14179
0.03 -0.00 3.38 -2.05 33.06 4.28 -0.93 -0.59 14186
0.03 -0.00 4.39 2.76 28.61 4.28 -1.30 -0.63 14193
0.03 -0.00 6.27 13.87 23.23 4.28 -1.23 -0.53 14201
0.00 0.00 9.62 19.72 12.83 4.28 -0.79 -0.56 14208
0.00 0.00 5.50 27.79 5.11 3.23 -0.16 -0.90 14215
0.00 0.00 5.75 24.85 2.23 2.49 -0.01 -1.79 14222
0.00 0.00 6.55 15.20 27.48 0.94 0.57 -2.15 14229
0.00 -0.00 4.09 13.11 26.13 -1.12 1.10 -2.27 14237
0.00 0.00 1.37 14.88 16.60 -2.03 1.33 -2.27 14243
0.00 0.00 0.18 14.93 12.07 -2.68 1.15 -2.24 14251
0.00 0.00 0.58 12.88 9.60 -3.19 0.79 -2.13 14258
0.00 0.00 0.92 10.33 8.79 -3.51 0.47 -2.04 14265
0.00 0.00 1.25 8.07 8.79 -3.62 0.20 -1.92 14272
0.00 -0.00 1.32 6.76 9.21 -3.69 -0.00 -1.78 14279
0.00 0.00 1.75 6.05 9.21 -3.78 -0.11 -1.63 14286
0.00 0.00 2.46 5.62 9.01 -3.87 -0.15 -1.45 14294
0.00 0.00 2.76 5.54 8.60 -4.05 -0.14 -1.30 14301
0.00 0.00 3.01 5.32 8.60 -4.20 -0.09 -1.12 14308
0.00 0.00 3.29 4.69 8.90 -4.26 0.05 -0.95 14315
0.00 -0.00 3.34 3.75 9.74 -4.28 0.22 -0.81 14322
0.00 0.00 3.32 2.59 9.39 -4.28 0.51 -0.63 14329
0.00 0.00 3.31 1.66 9.81 -4.28 0.75 -0.44 14337
0.00 0.00 2.88 0.97 10.21 -4.28 0.97 -0.30 14344
0.00 0.00 2.23 0.58 10.85 -4.28 1.13 -0.13 14351
-0.00 0.00 1.83 0.18 11.56 -4.28 1.24 0.01 14358
0.00 0.00 1.77 -0.31 12.08 -4.28 1.35 0.16 14365
0.00 0.00 1.63 -0.82 13.28 -4.28 1.42 0.28 14372
0.00 0.00 1.66 -1.26 14.14 -4.28 1.50 0.35 14380
0.00 0.00 1.22 -2.13 15.10 -4.28 1.62 0.38 14387
0.00 0.00 0.90 -3.05 15.63 -4.28 1.75 0.38 14394
0.00 0.00 0.34 -4.35 15.63 -4.28 1.88 0.32 14401
0.00 0.00 -0.28 -5.08 16.14 -4.28 1.92 0.24 14408
0.00 0.00 -0.37 -5.65 16.88 -4.28 1.96 0.15 14415
0.00 -0.00 -1.19 -6.68 17.05 -4.28 1.92 0.05 14423
0.00 0.00 -1.59 -7.44 17.72 -4.21 1.90 -0.06 14430
0.00 0.00 -1.76 -7.72 18.14 -4.02 1.84 -0.08 14437
0.00 0.00 -1.90 -7.90 19.16 -3.79 1.74 -0.12 14444
0.00 -0.00 -1.42 -7.74 19.74 -3.59 1.74 -0.12 14451
0.00 0.00 -1.30 -7.68 20.57 -3.52 1.70 -0.11 14458
0.00 0.00 -1.07 -9.05 20.87 -3.50 1.66 -0.07 14466
0.00 0.00 -0.93 -9.52 20.68 -3.52 1.58 -0.01 14473
0.00 0.00 -0.86 -10.61 19.97 -3.51 1.45 0.10 14480
0.00 -0.00 -0.76 -11.49 19.79 -3.43 1.33 0.24 14487
0.00 0.00 -0.97 -12.05 19.49 -3.29 1.18 0.43 14494
0.00 0.00 -1.11 -12.46 19.85 -3.17 1.08 0.65 14501
0.00 0.00 -0.75 -12.81 20.47 -3.09 1.02 0.84 14509
0.00 0.00 -0.82 -13.31 20.31 -3.11 0.99 1.05 14516
0.00 0.00 -0.48 -14.67 19.56 -3.20 0.96 1.24 14523
0.00 -0.00 -0.77 -16.56 18.38 -3.28 0.91 1.47 14530
0.00 0.00 -1.00 -18.96 16.34 -3.28 0.88 1.66 14537
0.00 0.00 -1.48 -20.63 13.86 -3.18 0.90 1.81 14544
0.00 0.00 -1.83 -22.49 11.38 -3.02 0.97 1.96 14552
0.00 0.00 -2.52 -25.05 9.75 -2.81 0.95 2.01 14559
0.00 -0.00 -3.29 -26.63 7.73 -2.47 0.90 2.00 14566
0.01 -0.00 -3.76 -28.26 5.02 -2.10 0.89 1.93 14573
0.00 -0.00 -4.07 -29.18 3.06 -1.66 0.91 1.79 14580
0.00 0.00 -4.51 -30.09 2.22 -1.17 0.90 1.53 14587
0.00 0.00 -4.96 -29.70 2.27 -0.72 0.81 1.19 14595
0.00 0.00 -4.92 -50.07 9.61 0.38 0.57 0.91 14602
0.00 0.00 -5.59 -27.50 -10.48 1.50 0.92 0.64 14609
0.00 0.00 -5.92 -25.98 4.33 2.40 0.67 0.41 14616
0.00 0.00 -5.28 -28.91 2.92 2.65 -0.06 0.16 14623
-0.00 0.01 -6.23 -24.82 2.25 2.86 -0.97 0.08 14630
-0.00 0.03 -0.91 4.13 -2.11 2.91 -1.21 0.00 14638
-0.01 0.10 0.53 -3.40 15.47 3.60 -0.95 -0.01 14645
-0.02 0.30 2.52 3.84 23.01 4.05 -0.71 0.09 14652
-0.03 0.49 -2.57 -2.33 22.31 4.20 -0.81 0.00 14660
-0.04 0.65 -2.22 -4.51 20.56 4.13 -1.00 -0.19 14667
-0.06 0.79 0.55 -4.56 19.85 3.94 -0.76 -0.24 14674
-0.06 0.83 0.03 -3.06 19.07 3.67 -0.30 -0.19 14681
-0.05 0.87 -0.44 -2.20 16.88 3.40 -0.31 -0.30 14689
-0.04 0.90 0.73 -1.91 16.48 3.26 -0.48 -0.44 14696
-0.04 0.82 3.11 -3.42 35.09 3.11 -1.85 -0.49 14703
-0.05 0.78 3.61 -2.69 13.62 0.99 -1.88 -0.20 14710
-0.05 0.83 0.77 -2.88 12.91 0.32 -0.87 0.00 14716
-0.05 0.80 -0.24 -1.42 10.63 0.11 -0.28 0.03 14724
-0.05 0.84 -0.16 -0.89 10.29 0.04 -0.16 -0.02 14731
-0.04 0.87 0.65 -1.09 9.93 0.01 -0.06 -0.05 14738
-0.04 0.88 0.71 -1.14 9.98 -0.01 -0.03 -0.04 14745
-0.03 0.89 0.49 -0.99 9.93 -0.01 -0.02 -0.03 14752
-0.05 0.86 0.44 -0.90 9.85 -0.01 -0.00 -0.04 14759
-0.02 0.87 0.59 -0.92 9.83 -0.01 0.01 -0.05 14767
-0.02 0.89 0.55 -0.85 9.84 -0.01 0.01 -0.05 14774
-0.00 0.87 0.51 -0.82 9.80 -0.01 0.02 -0.06 14781
-0.01 0.81 0.62 -0.84 9.76 0.00 0.02 -0.06 14788
-0.01 0.75 0.58 -0.82 9.74 0.00 0.02 -0.06 14795
-0.02 0.69 0.46 -0.87 9.82 0.01 0.02 -0.06 14802
-0.01 0.71 0.50 -0.81 9.78 0.01 0.02 -0.06 14810
0.03 0.64 0.56 -0.84 9.80 0.02 0.03 -0.07 14817
0.01 0.64 0.49 -0.84 9.81 0.02 0.04 -0.07 14824
0.00 0.59 0.53 -0.85 9.86 0.03 0.06 -0.07 14831
0.01 0.51 0.55 -0.82 9.81 0.03 0.07 -0.07 14838
-0.00 0.51 0.53 -0.80 9.80 0.03 0.07 -0.06 14845
0.02 0.46 0.56 -0.84 9.78 0.04 0.07 -0.07 14853
0.04 0.36 0.56 -0.89 9.78 0.03 0.07 -0.07 14860
0.04 0.33 0.57 -0.86 9.82 0.04 0.08 -0.07 14867
0.05 0.30 0.57 -0.89 9.70 0.04 0.08 -0.08 14874
0.04 0.21 0.57 -0.94 9.79 0.04 0.08 -0.08 14881
0.05 0.21 0.61 -0.93 9.73 0.03 0.08 -0.08 14888
0.06 0.23 0.61 -0.90 9.74 0.03 0.08 -0.09 14896
0.08 0.18 0.60 -0.88 9.74 0.03 0.08 -0.09 14903
0.07 0.11 0.60 -0.91 9.73 0.03 0.08 -0.09 14910
0.06 0.11 0.61 -0.95 9.79 0.03 0.07 -0.08 14917
0.08 0.08 0.58 -0.92 9.73 0.03 0.08 -0.09 14924
0.09 0.08 0.58 -0.90 9.73 0.03 0.07 -0.09 14931
0.11 0.07 0.59 -0.92 9.77 0.03 0.08 -0.09 14939
0.11 0.03 0.58 -0.93 9.82 0.03 0.08 -0.09 14946
0.07 0.04 0.64 -0.92 9.77 0.04 0.08 -0.09 14953
0.07 0.03 0.66 -0.89 9.79 0.04 0.07 -0.09 14960
0.07 0.05 0.61 -0.95 9.80 0.04 0.07 -0.09 14967
0.08 0.04 0.65 -0.97 9.76 0.03 0.06 -0.10 14974
0.11 0.03 0.66 -0.93 9.78 0.03 0.05 -0.10 14982
0.13 0.01 0.64 -0.97 9.76 0.03 0.04 -0.10 14989
0.14 -0.01 0.60 -0.98 9.78 0.02 0.03 -0.11 14996
0.14 -0.01 0.64 -0.98 9.76 0.02 0.02 -0.11 15003
0.14 -0.00 0.64 -0.93 9.77 0.02 0.01 -0.10 15010
0.15 -0.00 0.67 -0.94 9.78 0.02 0.01 -0.11 15017
0.18 -0.00 0.67 -0.99 9.81 0.02 0.00 -0.11 15025
0.19 0.00 0.62 -0.95 9.80 0.02 0.00 -0.11 15032
0.19 0.00 0.60 -0.98 9.78 0.02 0.00 -0.11 15039
0.20 -0.02 0.55 -1.00 9.75 0.01 0.00 -0.11 15046
0.22 -0.02 0.58 -0.95 9.80 0.02 0.01 -0.11 15053
0.21 -0.00 0.57 -0.99 9.78 0.03 0.01 -0.10 15060
0.26 -0.02 0.61 -0.99 9.82 0.03 0.02 -0.11 15068
0.27 -0.02 1.21 -0.97 9.79 0.04 0.02 -0.12 15075
0.31 -0.02 0.63 -0.99 9.80 0.05 0.04 -0.12 15082
0.31 -0.02 0.54 -0.99 9.83 0.10 0.05 -0.13 15089
0.33 -0.01 0.61 -0.97 9.83 0.09 0.06 -0.13 15096
0.39 -0.00 0.65 -1.09 9.90 0.13 0.09 -0.14 15104
0.45 -0.03 0.73 -1.02 9.95 0.17 0.12 -0.15 15111
0.44 -0.02 0.83 -1.08 10.21 0.24 0.17 -0.17 15119
0.48 -0.04 0.81 -1.16 10.21 0.38 0.22 -0.21 15126
0.52 -0.03 0.73 -1.28 10.60 0.54 0.29 -0.23 15133
0.62 -0.03 0.49 -1.16 11.22 0.85 0.40 -0.21 15140
0.67 -0.02 0.78 -1.20 11.62 1.16 0.41 -0.20 15148
0.77 -0.03 0.81 -1.68 11.88 1.48 0.33 -0.20 15155
0.82 -0.03 0.74 -1.65 12.30 1.68 0.22 -0.21 15162
0.84 -0.05 0.80 -1.60 12.34 1.79 0.06 -0.21 15168
0.85 -0.04 0.68 -1.60 12.78 1.91 -0.11 -0.20 15176
0.97 -0.03 0.68 -1.77 13.09 2.04 -0.21 -0.20 15183
0.99 -0.03 0.97 -2.06 13.21 2.27 -0.25 -0.19 15191
1.02 -0.04 0.60 -2.11 13.12 2.55 -0.30 -0.20 15198
1.02 -0.04 0.78 -2.21 13.05 2.75 -0.34 -0.20 15205
1.00 -0.05 0.65 -2.24 12.77 2.94 -0.35 -0.21 15212
1.04 -0.04 0.37 -2.45 13.35 3.18 -0.38 -0.20 15219
1.03 -0.04 0.36 -3.02 14.43 3.46 -0.38 -0.17 15226
0.96 -0.03 0.99 -2.85 15.21 3.88 -0.33 -0.16 15234
0.90 -0.04 1.46 -2.86 15.27 4.19 -0.35 -0.22 15241
0.80 -0.04 1.65 -3.13 16.29 4.28 -0.39 -0.29 15248
0.63 -0.03 1.86 -3.81 17.49 4.28 -0.51 -0.38 15255
0.48 -0.02 1.38 -4.68 19.93 4.28 -0.70 -0.45 15262
0.29 -0.01 1.93 -6.46 20.98 4.28 -0.86 -0.53 15269
0.30 -0.02 2.26 -8.46 23.91 4.28 -0.94 -0.63 15277
0.23 -0.01 2.01 -10.47 28.08 4.28 -0.91 -0.71 15284
0.15 -0.01 2.48 -11.93 28.84 4.28 -0.80 -0.75 15291
0.10 -0.01 3.51 -9.02 28.20 4.28 -0.58 -0.80 15297
0.05 -0.00 3.01 -8.01 25.60 4.28 -0.31 -0.89 15304
0.08 -0.01 1.38 -5.55 24.89 4.28 -0.14 -0.95 15311
0.08 -0.01 0.75 -4.03 28.10 4.28 -0.19 -0.95 15319
0.03 -0.00 1.46 -3.03 30.44 4.28 -0.44 -0.95 15326
0.02 -0.00 3.74 -0.52 32.32 4.28 -0.85 -1.01 15333
0.00 0.00 4.36 3.84 30.11 4.28 -1.15 -1.05 15340
0.00 -0.00 8.55 17.04 21.56 4.28 -0.96 -1.00 15347
0.00 0.00 9.33 18.37 9.20 4.26 -0.54 -1.09 15354
0.00 0.00 5.72 25.78 1.35 3.07 -0.05 -1.48 15362
0.00 0.00 5.69 22.25 8.52 2.59 0.03 -2.15 15369
0.00 0.00 7.05 13.12 29.01 0.82 0.93 -2.31 15376
0.00 0.00 3.66 12.38 25.48 -1.05 1.34 -2.22 15383
0.00 0.00 1.12 14.06 15.49 -2.23 1.27 -1.94 15390
0.00 -0.00 0.23 13.95 11.00 -3.04 0.89 -1.75 15397
0.01 -0.00 0.92 11.74 8.17 -3.56 0.50 -1.53 15405
0.00 0.00 1.44 9.25 6.96 -3.76 0.14 -1.36 15412
0.00 0.00 1.82 6.61 7.50 -3.71 -0.06 -1.17 15419
0.00 0.00 2.05 4.96 7.29 -3.67 -0.15 -0.98 15426
0.00 0.00 2.46 5.34 6.99 -3.60 -0.15 -0.86 15433
0.00 -0.00 2.93 5.31 6.51 -3.60 -0.11 -0.73 15440
0.00 0.00 2.99 5.27 7.29 -3.68 -0.03 -0.64 15448
0.00 0.00 3.19 4.86 7.72 -3.82 0.11 -0.53 15455
0.00 0.00 3.26 4.12 8.79 -3.96 0.25 -0.40 15462
0.00 -0.00 3.37 3.54 9.53 -4.10 0.44 -0.28 15469
-0.00 0.00 3.41 3.06 10.02 -4.19 0.67 -0.10 15476
0.01 -0.00 3.23 2.79 10.20 -4.26 0.84 0.09 15483
0.00 0.00 2.86 2.44 10.59 -4.28 0.98 0.25 15491
0.00 0.00 2.60 1.72 11.11 -4.28 1.04 0.42 15498
0.00 0.00 2.39 0.86 11.73 -4.28 1.08 0.54 15505
0.00 0.00 2.25 -0.04 12.53 -4.28 1.11 0.67 15512
0.00 0.00 2.31 -0.86 13.27 -4.28 1.12 0.74 15519
0.01 -0.00 2.28 -1.77 13.87 -4.28 1.16 0.77 15526
0.00 0.00 2.34 -2.64 14.73 -4.28 1.21 0.76 15534
0.00 -0.00 2.01 -3.34 14.99 -4.28 1.34 0.71 15541
0.00 0.00 2.34 -5.52 15.62 -4.28 1.54 0.62 15548
0.00 -0.00 1.87 -7.24 18.15 -4.28 1.83 0.55 15555
0.01 -0.00 2.80 -6.25 15.22 -4.28 2.08 0.51 15562
0.01 -0.00 2.25 -6.65 15.92 -4.25 2.11 0.42 15569
0.00 -0.00 0.54 -8.78 17.64 -4.13 2.15 0.40 15577
0.00 0.00 0.33 -9.08 18.29 -3.81 2.12 0.39 15584
0.00 0.00 -0.62 -8.32 19.15 -3.62 1.94 0.37 15591
0.00 -0.00 -0.47 -8.11 20.75 -3.57 1.76 0.40 15598
0.01 -0.00 0.63 -7.85 21.38 -3.58 1.56 0.42 15605
0.01 -0.00 1.12 -7.81 21.21 -3.70 1.43 0.44 15612
0.00 -0.00 1.53 -9.13 21.24 -3.79 1.41 0.45 15620
0.00 -0.00 2.43 -10.04 20.64 -3.79 1.49 0.49 15627
0.00 0.00 1.45 -10.50 20.18 -3.74 1.55 0.51 15634
0.00 0.00 0.44 -11.22 19.77 -3.67 1.54 0.52 15642
0.01 -0.00 -0.10 -12.22 19.22 -3.59 1.48 0.52 15649
0.00 -0.00 -0.97 -12.81 19.53 -3.50 1.33 0.52 15655
0.00 0.00 -1.51 -13.79 19.86 -3.43 1.17 0.54 15663
0.00 0.00 -1.04 -14.54 17.82 -3.32 1.19 0.58 15670
0.00 -0.00 -0.86 -14.79 18.89 -3.26 1.29 0.64 15677
0.00 -0.00 -1.41 -16.63 16.45 -3.20 1.49 0.75 15684
0.01 -0.00 -1.71 -17.97 15.43 -3.20 1.71 0.87 15692
0.00 0.00 -2.31 -19.94 13.39 -3.12 1.76 1.03 15698
0.00 0.00 -3.38 -21.25 10.89 -2.99 1.59 1.19 15706
0.00 0.00 -4.58 -23.79 9.29 -2.70 1.38 1.40 15713
0.00 0.00 -5.26 -25.73 6.86 -2.30 1.21 1.58 15720
0.00 0.00 -5.73 -27.35 4.78 -1.74 1.08 1.66 15727
0.02 -0.00 -6.19 -29.29 2.24 -1.29 0.95 1.64 15734
0.00 0.00 -6.00 -30.32 2.08 -0.71 0.80 1.54 15741
0.00 0.00 -5.61 -29.91 2.19 -0.16 0.59 1.26 15749
0.00 0.00 -5.39 -28.21 3.96 0.28 0.49 0.89 15756
0.00 0.00 -7.80 -38.05 1.91 0.93 0.35 0.61 15763
0.00 -0.00 -4.61 -25.54 -9.82 2.92 0.15 0.62 15770
0.01 0.01 -8.45 -21.94 -3.19 3.09 -0.47 0.42 15777
-0.00 0.02 -7.74 -27.15 1.80 3.26 -1.88 0.27 15784
0.01 0.02 -3.80 2.55 3.16 3.25 -2.70 0.14 15792
-0.00 0.07 0.74 0.28 12.98 3.57 -1.50 0.32 15799
-0.01 0.37 1.13 4.09 27.14 4.22 -0.86 0.58 15807
-0.03 0.62 -6.78 -2.76 23.68 4.28 -1.05 0.36 15814
-0.05 0.81 -6.89 -6.51 25.15 4.27 -1.29 -0.08 15821
-0.06 0.84 -1.41 -6.71 21.96 4.05 -1.10 -0.32 15828
-0.06 0.85 -0.51 -3.62 22.15 3.65 -0.64 -0.36 15836
-0.05 0.88 0.85 -2.34 20.59 3.22 -0.43 -0.40 15843
-0.04 0.87 2.69 -3.15 26.33 2.98 -0.86 -0.40 15850
-0.03 0.85 2.58 -1.30 14.02 1.08 -1.34 -0.26 15857
-0.03 0.83 1.32 -2.05 11.98 0.37 -0.68 0.02 15864
-0.05 0.86 0.34 -1.45 10.40 0.11 -0.32 0.07 15872
-0.05 0.83 -0.21 -0.89 9.81 0.04 -0.14 0.01 15878
-0.04 0.78 0.18 -1.21 10.07 0.01 -0.06 -0.04 15885
-0.00 0.76 0.68 -1.06 9.92 -0.00 -0.04 -0.05 15892
-0.00 0.80 0.49 -1.01 9.84 -0.01 -0.02 -0.03 15899
-0.00 0.80 0.38 -0.83 9.87 -0.01 -0.02 -0.04 15906
-0.01 0.78 0.48 -0.84 9.92 -0.01 -0.00 -0.06 15913
-0.03 0.73 0.41 -0.74 9.61 -0.01 0.01 -0.06 15921
-0.01 0.67 0.51 -0.75 9.84 0.00 0.01 -0.07 15928
0.00 0.67 0.42 -0.76 9.84 0.02 0.02 -0.07 15935
0.01 0.64 0.44 -0.74 9.64 0.02 0.03 -0.08 15942
0.04 0.56 0.37 -0.82 9.80 0.02 0.04 -0.07 15949
0.02 0.50 0.39 -0.85 9.86 0.03 0.05 -0.08 15956
0.02 0.44 0.42 -0.83 9.78 0.03 0.06 -0.08 15964
0.05 0.46 0.48 -0.83 9.83 0.03 0.07 -0.08 15971
0.04 0.39 0.45 -0.78 9.85 0.04 0.08 -0.08 15978
0.08 0.39 0.42 -0.85 9.82 0.04 0.08 -0.08 15985
0.09 0.31 0.52 -0.87 9.81 0.04 0.09 -0.07 15992
0.11 0.25 0.46 -0.82 9.79 0.05 0.09 -0.08 16000
0.09 0.26 0.54 -0.83 9.79 0.04 0.09 -0.09 16007
0.12 0.14 0.68 -0.86 9.79 0.04 0.10 -0.09 16014
0.15 0.15 0.61 -0.86 9.75 0.04 0.09 -0.10 16021
0.15 0.11 0.62 -0.90 9.74 0.04 0.09 -0.11 16028
0.13 0.06 0.58 -0.84 9.76 0.04 0.08 -0.11 16035
0.14 0.02 0.57 -0.88 9.80 0.04 0.08 -0.11 16043
0.15 0.03 0.52 -0.89 9.82 0.04 0.07 -0.11 16050
0.13 0.05 0.51 -0.87 9.82 0.04 0.07 -0.13 16057
0.18 0.03 0.54 -0.90 9.82 0.05 0.07 -0.10 16064
0.16 0.04 0.50 -0.90 9.81 0.05 0.07 -0.10 16071
0.15 -0.00 0.57 -0.91 9.81 0.05 0.06 -0.10 16078
0.15 0.03 0.56 -0.93 9.79 0.05 0.05 -0.09 16086
0.16 0.03 0.61 -0.91 9.79 0.05 0.05 -0.13 16093
0.18 0.00 0.57 -0.93 9.79 0.05 0.04 -0.10 16100
0.22 -0.00 0.55 -0.96 9.77 0.06 0.03 -0.10 16107
0.21 -0.01 0.59 -0.93 9.20 0.05 0.03 -0.10 16114
0.25 -0.02 0.59 -0.91 9.79 0.06 0.03 -0.11 16121
0.27 -0.01 0.57 -0.89 9.79 0.06 0.04 -0.11 16129
0.28 -0.01 0.55 -0.95 9.82 0.08 0.05 -0.12 16136
0.31 -0.01 0.57 -0.98 9.83 0.08 0.06 -0.13 16143
0.36 -0.03 0.59 -0.90 9.82 0.09 0.07 -0.14 16150
0.40 -0.03 0.51 -0.93 9.80 0.11 0.08 -0.14 16157
0.44 -0.03 0.56 -0.98 9.88 0.13 0.09 -0.14 16164
0.44 -0.03 0.56 -1.00 9.83 0.15 0.10 -0.14 16172
0.45 -0.03 0.58 -1.04 9.81 0.17 0.12 -0.14 16179
0.47 -0.02 0.58 -1.08 9.88 0.20 0.13 -0.14 16186
0.54 -0.03 0.61 -1.07 9.82 0.25 0.13 -0.14 16193
0.53 -0.02 1.22 -1.09 9.91 0.29 0.13 -0.14 16200
0.50 -0.04 0.55 -1.10 9.97 0.36 0.14 -0.13 16207
0.54 -0.03 0.58 -1.14 9.91 0.42 0.15 -0.13 16215
0.58 -0.00 0.53 -1.20 10.17 0.49 0.16 -0.13 16222
0.62 -0.03 0.66 -1.28 10.21 0.60 0.17 -0.12 16230
0.67 -0.03 0.54 -1.29 10.51 0.68 0.17 -0.12 16237
0.71 -0.03 0.75 -1.41 10.45 0.81 0.16 -0.12 16244
0.75 -0.04 0.70 -1.54 10.61 0.91 0.14 -0.14 16251
0.77 -0.03 0.71 -1.48 11.00 1.01 0.12 -0.15 16259
0.83 -0.02 0.93 -1.57 10.94 1.12 0.10 -0.16 16266
0.88 -0.03 0.93 -1.80 11.21 1.21 0.08 -0.17 16273
0.91 -0.03 0.70 -1.78 11.31 1.32 -0.00 -0.19 16280
0.95 -0.04 0.68 -1.88 11.74 1.46 -0.04 -0.20 16287
1.00 -0.05 0.11 -1.92 11.90 1.59 -0.10 -0.20 16293
1.04 -0.05 0.60 -2.03 12.37 1.74 -0.15 -0.20 16302
1.07 -0.03 0.44 -2.17 12.56 1.97 -0.19 -0.19 16309
1.12 -0.04 0.47 -2.23 12.42 2.19 -0.23 -0.17 16316
1.13 -0.04 0.28 -2.32 12.36 2.40 -0.26 -0.16 16323
1.16 -0.05 0.46 -2.47 12.92 2.59 -0.31 -0.15 16330
1.18 -0.04 1.19 -2.89 13.31 2.85 -0.37 -0.15 16337
1.18 -0.04 0.79 -2.65 13.51 3.19 -0.31 -0.16 16345
1.13 -0.04 0.58 -2.96 13.79 3.50 -0.29 -0.18 16352
1.09 -0.05 0.17 -3.01 14.38 3.86 -0.23 -0.19 16359
1.00 -0.04 0.32 -3.38 15.88 4.17 -0.21 -0.16 16366
0.86 -0.05 0.91 -4.09 16.39 4.28 -0.29 -0.16 16373
0.73 -0.03 1.61 -4.23 16.54 4.28 -0.48 -0.25 16380
0.59 -0.02 2.19 -5.61 19.60 4.28 -0.56 -0.39 16388
0.38 -0.02 1.63 -6.46 20.53 4.28 -0.69 -0.49 16395
0.26 -0.02 1.58 -9.52 26.35 4.28 -0.80 -0.58 16402
0.20 -0.02 2.74 -10.90 29.69 4.28 -0.79 -0.63 16409
0.11 -0.01 3.28 -13.15 30.26 4.28 -0.59 -0.68 16416
0.10 -0.01 3.10 -11.62 28.91 4.28 -0.33 -0.75 16423
0.11 -0.00 1.25 -9.49 27.20 4.28 -0.18 -0.82 16431
0.08 -0.01 0.02 -5.99 26.31 4.28 -0.06 -0.86 16437
0.04 -0.00 0.16 -4.47 30.02 4.28 -0.19 -0.84 16444
0.04 -0.00 1.88 -2.51 32.18 4.28 -0.60 -0.87 16451
0.02 -0.00 4.45 0.95 33.24 4.28 -1.09 -0.94 16458
0.00 0.00 5.47 6.10 30.75 4.28 -1.31 -0.94 16465
0.01 -0.00 9.51 16.80 15.28 4.28 -0.86 -0.93 16473
0.00 -0.00 9.36 18.67 8.30 4.02 -0.33 -1.21 16480
0.00 0.00 7.47 25.98 -5.64 2.88 -0.05 -1.93 16487
0.00 -0.00 5.76 20.02 20.31 2.10 0.32 -2.44 16494
0.00 0.00 6.60 13.82 29.89 -0.10 1.11 -2.51 16501
-0.00 0.00 3.09 13.80 22.28 -1.83 1.51 -2.39 16508
-0.00 0.00 1.13 13.56 13.70 -2.56 1.30 -2.19 16516
0.00 0.00 0.43 13.22 10.45 -3.30 0.83 -1.98 16523
0.00 0.00 1.35 10.91 8.11 -3.71 0.46 -1.76 16530
0.00 0.00 1.89 8.56 7.13 -3.86 0.18 -1.58 16537
0.00 0.00 2.35 6.50 7.78 -3.86 0.02 -1.38 16544
0.00 0.00 2.25 5.82 7.30 -3.83 0.01 -1.17 16551
0.00 0.00 2.88 5.57 6.94 -3.79 0.09 -1.01 16559
0.00 0.00 3.25 5.44 6.61 -3.82 0.19 -0.86 16566
0.00 0.00 3.37 5.47 6.87 -3.95 0.33 -0.75 16573
0.00 0.00 3.36 5.08 8.07 -4.11 0.56 -0.60 16580
0.00 0.00 3.27 4.41 9.20 -4.20 0.78 -0.44 16587
0.00 0.00 2.94 3.66 10.10 -4.27 1.06 -0.30 16594
0.01 -0.00 2.47 2.81 10.37 -4.28 1.31 -0.11 16602
0.00 -0.00 1.93 2.25 10.49 -4.28 1.44 0.08 16609
0.00 0.00 1.31 1.56 10.72 -4.28 1.47 0.21 16616
0.00 0.00 1.00 0.52 11.26 -4.28 1.41 0.33 16623
0.00 0.00 0.73 -0.51 11.77 -4.28 1.40 0.42 16630
0.00 0.00 0.90 -1.48 12.55 -4.28 1.41 0.48 16637
0.01 -0.00 0.76 -2.17 13.43 -4.28 1.44 0.49 16645
0.01 -0.00 0.52 -2.70 14.03 -4.28 1.52 0.44 16652
0.01 -0.00 0.21 -3.20 14.78 -4.28 1.65 0.34 16659
0.00 0.00 -0.07 -3.91 14.99 -4.28 1.81 0.22 16666
0.00 -0.00 -0.22 -4.76 15.23 -4.28 1.99 0.06 16673
0.01 -0.00 -0.32 -6.28 16.23 -4.27 2.11 -0.08 16680
0.02 -0.00 -0.60 -6.54 15.92 -4.21 2.22 -0.17 16688
0.01 -0.00 -1.03 -7.03 16.03 -4.10 2.26 -0.22 16695
0.01 -0.00 -1.36 -7.66 17.68 -3.82 2.25 -0.21 16702
0.01 -0.00 -1.32 -8.04 18.16 -3.49 2.19 -0.17 16709
0.00 0.00 -1.13 -7.51 19.02 -3.30 2.07 -0.12 16716
0.01 -0.00 -0.40 -7.34 20.27 -3.22 1.91 -0.06 16723
0.01 -0.00 -0.18 -7.59 21.25 -3.30 1.73 0.01 16731
0.00 -0.00 -0.30 -8.33 21.84 -3.40 1.57 0.13 16738
0.01 -0.00 0.00 -9.47 21.60 -3.51 1.45 0.22 16745
0.00 0.00 0.18 -9.91 20.72 -3.59 1.36 0.33 16752
0.00 0.00 0.24 -10.50 20.08 -3.63 1.32 0.40 16759
0.00 -0.00 0.21 -11.38 19.64 -3.58 1.37 0.48 16766
0.00 -0.00 -0.02 -11.81 18.89 -3.54 1.45 0.55 16774
0.00 0.00 -0.43 -12.59 18.63 -3.39 1.57 0.63 16781
0.01 -0.00 -1.04 -13.47 18.10 -3.22 1.69 0.73 16789
0.00 -0.00 -1.53 -14.58 18.23 -3.01 1.78 0.81 16795
0.00 0.00 -2.29 -16.29 17.78 -2.85 1.86 0.91 16802
0.02 -0.00 -3.15 -17.92 17.07 -2.76 1.89 0.99 16809
0.00 -0.00 -4.24 -19.37 16.10 -2.76 1.91 1.05 16817
0.00 0.00 -4.92 -21.39 14.05 -2.83 1.89 1.09 16824
0.01 -0.00 -5.40 -23.55 11.28 -2.89 1.74 1.06 16832
0.00 0.00 -5.78 -26.57 8.12 -2.75 1.51 0.99 16838
0.01 -0.00 -5.98 -29.63 4.42 -2.41 1.36 0.90 16845
0.01 -0.00 -6.20 -31.07 1.83 -1.86 1.27 0.83 16852
0.00 -0.00 -6.71 -31.51 0.78 -1.21 1.17 0.73 16860
0.00 -0.00 -7.26 -30.26 1.37 -0.67 0.98 0.63 16867
0.00 0.00 -7.69 -28.77 2.89 -0.10 0.63 0.52 16874
0.00 0.00 -7.10 -25.99 5.03 0.30 0.21 0.42 16881
0.00 0.00 -25.61 -37.73 61.88 2.72 -1.83 0.62 16889
0.00 0.00 -10.38 -21.15 10.21 2.77 -1.78 0.73 16897
-0.00 0.01 -3.74 -19.80 -3.48 2.97 -2.76 0.59 16903
0.00 0.02 -2.72 -11.90 -0.46 2.81 -3.82 0.52 16910
-0.01 0.05 0.12 7.98 10.15 3.21 -1.96 0.90 16917
-0.01 0.23 3.25 5.55 22.74 3.72 -0.66 1.39 16925
-0.03 0.52 -6.47 -0.21 20.17 4.16 -0.62 1.43 16932
-0.03 0.66 -11.26 -5.48 23.21 4.25 -1.24 0.86 16940
-0.05 0.80 -6.69 -7.25 22.25 4.18 -1.28 0.39 16947
-0.04 0.76 -4.68 -4.69 22.53 3.78 -0.73 0.09 16954
-0.06 0.86 -3.50 -2.47 20.90 3.27 -0.46 -0.25 16961
-0.05 0.90 0.24 -2.02 18.92 2.90 -0.45 -0.51 16968
-0.05 0.83 2.94 -2.12 21.55 2.24 -1.39 -0.48 16975
-0.04 0.81 2.79 -1.82 12.15 0.71 -1.30 -0.19 16983
-0.04 0.82 0.93 -1.76 11.18 0.23 -0.61 0.05 16990
-0.04 0.83 0.00 -1.06 10.48 0.07 -0.31 0.05 16996
-0.05 0.81 -0.38 -1.09 10.19 0.02 -0.14 -0.03 17003
-0.02 0.79 0.42 -1.19 10.04 -0.01 -0.07 -0.07 17010
-0.01 0.78 0.77 -1.09 9.85 -0.01 -0.05 -0.05 17017
-0.02 0.78 0.49 -0.79 9.89 -0.02 -0.05 -0.04 17025
0.00 0.76 0.36 -0.77 9.83 -0.02 -0.04 -0.06 17032
-0.00 0.73 0.48 -0.80 9.78 -0.01 -0.02 -0.07 17039
-0.01 0.72 0.53 -0.69 9.83 0.03 -0.01 -0.07 17046
-0.01 0.69 0.40 -0.70 9.84 0.02 -0.00 -0.08 17053
0.04 0.64 0.38 -0.76 9.84 0.02 0.01 -0.08 17060
0.05 0.58 0.37 -0.79 9.80 0.02 0.02 -0.08 17068
0.04 0.56 0.36 -0.76 9.88 0.03 0.04 -0.07 17075
0.04 0.49 0.42 -0.79 9.87 0.03 0.05 -0.07 17082
0.05 0.41 0.40 -0.76 9.83 0.03 0.06 -0.07 17089
0.05 0.40 0.38 -0.80 9.82 0.04 0.07 -0.07 17096
0.07 0.36 0.44 -0.76 9.81 0.04 0.08 -0.07 17103
0.08 0.34 0.37 -0.74 10.41 0.04 0.08 -0.07 17111
0.12 0.25 0.46 -0.77 9.82 0.05 0.09 -0.07 17118
0.10 0.20 0.48 -0.77 9.76 0.05 0.09 -0.08 17125
0.11 0.14 0.60 -0.81 9.82 0.06 0.09 -0.08 17132
0.18 0.07 0.56 -0.63 9.80 0.05 0.09 -0.10 17139
0.20 0.07 0.54 -0.84 9.76 0.06 0.09 -0.09 17146
0.20 0.01 0.52 -0.86 9.80 0.06 0.09 -0.10 17154
0.21 0.02 0.52 -0.81 9.80 0.05 0.08 -0.10 17161
0.18 0.02 0.50 -0.81 9.81 0.06 0.08 -0.09 17168
0.19 0.01 0.50 -0.83 9.81 0.06 0.08 -0.09 17175
0.23 0.01 0.43 -0.86 9.72 0.06 0.09 -0.09 17182
0.24 -0.00 0.47 -0.88 9.79 0.06 0.09 -0.09 17189
0.25 0.02 0.52 -0.84 9.80 0.06 0.08 -0.08 17197
0.25 0.01 0.54 -0.86 10.40 0.06 0.09 -0.08 17204
0.25 -0.02 0.54 -0.89 9.77 0.06 0.09 -0.08 17211
0.28 -0.00 0.54 -0.84 9.79 0.07 0.09 -0.08 17218
0.26 -0.01 0.55 -0.87 9.79 0.07 0.08 -0.08 17225
0.26 -0.01 0.62 -0.89 9.78 0.06 0.07 -0.08 17232
0.27 -0.02 0.58 -0.86 9.79 0.06 0.06 -0.09 17240
0.31 -0.02 0.62 -0.92 9.80 0.06 0.05 -0.09 17247
0.34 -0.01 0.61 -0.91 9.76 0.06 0.04 -0.10 17254
0.34 -0.00 0.55 -0.92 9.76 0.05 0.03 -0.10 17261
0.35 -0.01 0.56 -0.92 9.75 0.05 0.02 -0.11 17268
0.38 -0.02 0.57 -0.94 9.77 0.04 0.01 -0.12 17275
0.37 -0.02 0.55 -0.86 9.81 0.05 0.01 -0.12 17283
0.40 -0.02 0.50 -0.91 9.81 0.06 0.01 -0.13 17290
0.41 -0.02 0.51 -0.93 9.77 0.06 0.02 -0.14 17297
0.45 -0.02 0.56 -1.00 9.79 0.07 0.02 -0.14 17304
0.48 -0.02 0.39 -0.86 9.83 0.09 0.02 -0.14 17311
0.53 -0.03 0.52 -0.98 9.81 0.11 0.03 -0.14 17318
0.59 -0.04 0.53 -0.96 9.84 0.13 0.04 -0.14 17326
0.62 -0.03 0.53 -1.00 9.82 0.17 0.04 -0.14 17333
0.71 -0.04 0.54 -1.02 9.95 0.21 0.05 -0.14 17340
0.71 -0.03 0.59 -1.06 9.96 0.26 0.07 -0.14 17347
0.76 -0.04 0.58 -1.07 9.99 0.33 0.08 -0.15 17354
0.81 -0.04 0.58 -1.11 10.13 0.42 0.09 -0.15 17362
0.82 -0.04 0.61 -1.10 10.26 0.53 0.10 -0.16 17370
0.86 -0.03 0.69 -1.23 10.43 0.66 0.10 -0.17 17377
0.92 -0.03 0.50 -1.25 10.72 0.77 0.09 -0.18 17383
0.93 -0.03 0.55 -1.24 11.01 0.90 0.08 -0.19 17390
1.02 -0.04 0.64 -1.53 10.92 1.01 0.01 -0.19 17398
1.08 -0.05 0.64 -1.50 11.30 1.11 -0.04 -0.19 17405
1.15 -0.05 0.70 -1.56 11.33 1.20 -0.10 -0.20 17413
1.18 -0.04 1.17 -1.52 10.73 1.29 -0.20 -0.20 17420
1.26 -0.03 0.63 -1.84 11.09 1.42 -0.21 -0.21 17427
1.28 -0.05 0.54 -1.90 11.84 1.55 -0.23 -0.22 17434
1.36 -0.05 0.55 -1.73 12.06 1.67 -0.26 -0.21 17441
1.38 -0.05 0.53 -2.17 12.47 1.87 -0.29 -0.22 17448
1.40 -0.05 0.46 -2.06 12.18 2.05 -0.32 -0.23 17456
1.42 -0.05 0.54 -2.22 12.15 2.24 -0.36 -0.24 17463
1.37 -0.05 0.48 -2.54 12.23 2.42 -0.38 -0.23 17470
1.45 -0.05 0.74 -2.68 12.88 2.61 -0.44 -0.24 17477
1.41 -0.05 0.31 -2.73 12.67 2.84 -0.47 -0.25 17484
1.36 -0.05 0.46 -2.95 13.38 3.06 -0.55 -0.26 17491
1.28 -0.05 0.33 -3.05 14.04 3.38 -0.54 -0.26 17499
1.15 -0.05 0.57 -3.50 14.60 3.75 -0.58 -0.26 17506
