Voltage_01 Voltage_02 Acc_x Acc_y Acc_z Gyro_x Gyro_y Gyro_z Time
5000
-0.01 0.14 0.03 -13.06 0.59 0.86 -1.03 -0.99 17
-0.02 0.15 1.91 -12.01 3.41 1.45 -1.00 -1.06 24
-0.02 0.18 0.29 -5.43 8.20 1.94 -0.84 -1.02 31
-0.02 0.21 0.94 0.84 12.09 2.02 -0.67 -0.90 38
-0.02 0.21 2.15 2.11 13.40 1.80 -0.48 -0.69 46
-0.02 0.31 3.01 1.05 12.58 1.37 -0.31 -0.49 54
-0.02 0.34 2.52 -0.54 11.04 1.16 -0.14 -0.26 61
-0.03 0.39 1.93 -1.05 9.75 1.22 -0.05 -0.08 67
-0.05 0.47 1.08 -1.38 10.05 1.47 -0.01 0.06 74
-0.04 0.49 0.52 -1.41 11.42 1.57 0.01 0.13 82
-0.04 0.52 -0.27 -1.67 12.41 1.52 0.04 0.15 90
-0.03 0.54 -0.90 -2.34 12.55 1.43 0.10 0.11 97
-0.04 0.60 -1.17 -2.25 12.00 1.36 0.16 0.04 104
-0.04 0.61 -0.74 -2.06 11.75 1.32 0.18 -0.07 111
-0.06 0.65 0.10 -2.16 12.10 1.24 0.18 -0.13 118
-0.05 0.72 0.30 -2.20 11.87 1.10 0.22 -0.13 125
-0.04 0.70 0.57 -2.28 11.73 0.98 0.25 -0.09 132
-0.04 0.69 0.22 -2.91 13.94 0.44 0.07 -0.04 139
-0.04 0.75 0.32 -2.39 10.69 -0.04 0.00 -0.01 146
-0.04 0.82 -0.24 -1.88 9.95 -0.07 0.03 -0.04 153
-0.05 0.75 0.29 -1.42 9.74 -0.06 0.06 -0.04 160
-0.04 0.87 0.46 -1.55 9.73 -0.09 0.06 -0.04 167
-0.04 0.84 0.36 -1.60 9.83 -0.10 0.05 -0.04 175
-0.03 0.83 0.18 -1.31 9.56 -0.12 0.05 -0.03 182
-0.05 0.90 0.23 -1.34 9.54 -0.14 0.05 -0.03 189
-0.05 0.89 0.17 -1.39 9.73 -0.16 0.06 -0.03 196
-0.05 0.99 0.20 -1.53 9.82 -0.17 0.06 -0.03 203
-0.03 0.98 0.15 -1.44 9.76 -0.19 0.06 -0.03 210
-0.02 1.04 0.16 -1.37 9.66 -0.19 0.07 -0.03 218
-0.04 1.12 0.32 -1.49 9.69 -0.20 0.07 -0.03 225
-0.05 1.14 0.15 -1.25 9.80 -0.20 0.07 -0.03 232
-0.06 1.14 0.17 -1.26 9.82 -0.20 0.07 -0.03 239
-0.09 1.24 0.29 -1.35 9.71 -0.19 0.06 -0.03 246
-0.05 1.21 0.16 -1.08 9.82 -0.17 0.05 -0.03 253
-0.06 1.31 0.24 -1.35 9.85 -0.16 0.05 -0.03 261
-0.06 1.26 0.24 -0.64 9.78 -0.15 0.04 -0.03 268
-0.07 1.32 0.22 -1.18 9.77 -0.14 0.04 -0.03 275
-0.07 1.34 0.19 -1.20 9.81 -0.12 0.04 -0.03 282
-0.07 1.29 0.17 -1.16 9.80 -0.11 0.04 -0.03 289
-0.06 1.32 0.16 -1.16 9.81 -0.11 0.05 -0.03 296
-0.05 1.35 0.15 -1.11 9.76 -0.09 0.06 -0.03 304
-0.04 1.36 0.15 -1.14 9.84 -0.09 0.06 -0.03 311
-0.06 1.33 0.14 -1.14 9.81 -0.07 0.06 -0.03 318
-0.05 1.32 0.18 -1.11 9.80 -0.06 0.05 -0.03 325
-0.05 1.33 0.17 -1.12 9.76 -0.05 0.04 -0.02 332
-0.04 1.33 0.17 -1.10 9.79 -0.04 0.04 -0.02 339
-0.04 1.32 0.17 -1.12 9.82 -0.02 0.04 -0.02 347
-0.04 1.31 0.20 -1.11 9.75 -0.01 0.03 -0.02 354
-0.05 1.29 0.23 -1.11 9.72 0.00 0.03 -0.03 361
-0.05 1.30 0.20 -1.09 9.72 0.01 0.02 -0.03 368
-0.04 1.31 0.20 -1.10 9.74 0.01 0.02 -0.04 375
-0.04 1.27 0.19 -1.11 9.72 0.02 0.01 -0.04 382
-0.04 1.23 0.21 -1.11 9.74 0.02 0.00 -0.04 390
-0.05 1.21 0.25 -1.10 9.67 0.01 0.00 -0.04 397
-0.04 1.20 0.16 -1.08 9.69 0.01 0.00 -0.05 404
-0.05 1.21 0.18 -1.12 9.69 0.01 0.00 -0.05 411
-0.04 1.18 0.22 -1.09 9.69 0.01 0.01 -0.05 418
-0.01 1.15 0.19 -1.13 9.71 0.01 0.00 -0.05 425
-0.02 1.14 0.17 -1.14 9.72 0.01 0.00 -0.05 433
-0.04 1.13 0.19 -1.13 9.75 0.01 0.01 -0.05 440
-0.03 1.09 0.14 -1.14 9.72 0.02 0.01 -0.05 447
-0.02 1.04 0.18 -1.13 9.70 0.02 0.00 -0.05 454
-0.02 1.05 0.17 -1.13 9.70 0.02 0.00 -0.05 461
-0.02 1.08 0.19 -1.14 9.76 0.02 0.00 -0.05 468
-0.03 1.06 0.20 -1.14 9.70 0.02 0.00 -0.05 476
-0.01 1.02 0.18 -1.16 9.74 0.02 0.00 -0.05 483
-0.01 0.99 0.19 -1.15 9.69 0.02 0.00 -0.05 490
-0.01 1.00 0.15 -1.14 9.76 0.03 0.00 -0.06 497
0.02 0.96 0.20 -1.20 9.77 0.03 0.01 -0.06 504
0.03 0.96 0.15 -1.17 9.74 0.03 0.01 -0.06 512
0.04 0.94 0.17 -1.15 9.75 0.03 0.01 -0.06 519
0.02 0.91 0.15 -1.82 9.77 0.04 0.01 -0.06 526
-0.00 0.90 0.19 -1.20 9.75 0.04 0.01 -0.06 533
-0.01 0.83 0.17 -1.20 9.72 0.05 0.02 -0.06 540
0.05 0.81 0.17 -1.20 9.75 0.06 0.02 -0.06 547
0.04 0.80 0.15 -1.15 9.77 0.10 0.02 -0.06 555
0.04 0.76 0.18 -1.22 9.82 0.07 0.02 -0.06 562
0.05 0.71 0.14 -1.25 9.77 0.08 0.02 -0.06 569
0.04 0.64 0.19 -1.17 9.74 0.09 0.02 -0.07 576
0.11 0.61 0.13 -1.20 9.80 0.10 0.03 -0.07 583
0.14 0.59 0.24 -1.22 9.66 0.11 0.04 -0.07 590
0.14 0.57 0.10 -1.24 9.88 0.12 0.04 -0.07 598
0.16 0.54 0.16 -1.34 9.77 0.13 0.04 -0.07 605
0.17 0.50 0.17 -1.30 9.89 0.15 0.05 -0.08 612
0.15 0.52 0.26 -1.33 9.88 0.17 0.05 -0.08 619
0.20 0.41 0.29 -1.38 9.88 0.20 0.05 -0.08 626
0.24 0.37 0.13 -1.38 9.83 0.22 0.06 -0.09 633
0.22 0.33 0.22 -1.45 9.87 0.25 0.07 -0.09 641
0.26 0.32 0.30 -1.35 9.95 0.28 0.10 -0.10 648
0.33 0.23 0.23 -1.42 9.91 0.31 0.12 -0.11 655
0.33 0.19 0.27 -1.53 10.12 0.36 0.14 -0.12 663
0.33 0.20 0.45 -1.45 10.11 0.41 0.20 -0.14 670
0.36 0.18 0.65 -1.50 10.27 0.49 0.19 -0.17 677
0.36 0.15 0.92 -1.62 10.48 0.58 0.21 -0.20 685
0.33 0.12 0.59 -1.74 11.26 0.73 0.30 -0.24 692
0.30 0.13 -0.38 -1.90 11.36 1.02 0.30 -0.18 698
0.38 0.14 0.26 -1.89 11.33 1.19 0.26 -0.16 706
0.41 0.15 0.07 -1.88 11.44 1.34 0.25 -0.17 713
0.46 0.12 0.73 -1.95 11.73 1.50 0.21 -0.16 720
0.46 0.13 0.58 -2.17 11.44 1.62 0.22 -0.19 728
0.45 0.12 0.23 -2.15 11.53 1.77 0.17 -0.18 735
0.42 0.14 0.44 -2.48 11.41 1.92 0.17 -0.20 742
0.45 0.17 0.40 -2.68 11.53 2.10 0.16 -0.20 748
0.46 0.17 0.47 -2.78 12.07 2.29 0.18 -0.21 756
0.47 0.17 0.01 -2.94 12.16 2.44 0.15 -0.22 763
0.45 0.18 0.41 -2.76 12.12 2.60 0.17 -0.23 771
0.41 0.15 0.22 -2.87 11.59 2.75 0.16 -0.24 778
0.36 0.20 -0.09 -3.11 12.91 2.93 0.10 -0.20 784
0.35 0.23 0.84 -3.08 12.95 3.14 0.02 -0.23 792
0.32 0.24 1.22 -4.19 8.32 3.29 -0.10 -0.24 798
0.24 0.22 0.94 -4.20 13.60 3.46 -0.20 -0.28 806
0.23 0.15 1.37 -3.94 14.39 3.66 -0.32 -0.29 814
0.18 0.16 1.40 -4.52 13.96 3.80 -0.53 -0.31 821
0.12 0.13 2.63 -5.56 14.65 3.92 -0.78 -0.39 828
0.10 0.13 3.03 -5.88 14.56 4.13 -0.65 -0.48 835
0.06 0.12 2.43 -6.83 15.72 4.27 -0.79 -0.61 842
0.04 0.10 1.97 -7.19 16.80 4.28 -0.89 -0.75 849
0.06 0.07 1.29 -7.26 19.15 4.28 -1.03 -0.84 857
0.01 0.07 2.45 -7.02 19.24 4.28 -1.03 -0.83 864
0.01 0.07 2.58 -6.74 17.53 4.28 -0.83 -0.89 871
0.01 0.07 2.16 -6.52 18.84 4.28 -0.74 -0.98 878
0.02 0.05 2.25 -6.90 20.14 4.28 -0.83 -1.04 884
0.01 0.05 2.45 -6.11 19.63 4.28 -0.93 -1.12 892
0.01 0.07 3.20 -3.61 17.03 4.28 -1.10 -1.15 900
-0.01 0.06 5.00 -1.87 15.63 4.28 -0.96 -1.29 906
-0.01 0.08 4.68 0.17 13.42 4.28 -0.80 -1.39 913
-0.01 0.08 4.06 2.58 11.29 4.28 -0.63 -1.51 920
-0.01 0.08 3.13 5.48 10.22 4.28 -0.59 -1.65 927
-0.01 0.09 4.97 12.04 9.40 4.25 -0.58 -1.76 934
-0.01 0.11 6.96 8.62 14.51 3.57 -0.05 -1.74 942
-0.01 0.11 5.72 11.15 21.86 1.55 0.70 -1.74 950
-0.01 0.12 2.17 11.92 17.45 -0.19 1.06 -1.53 957
-0.01 0.12 0.19 10.86 13.04 -1.21 0.71 -1.16 964
-0.00 0.12 -0.49 8.15 9.21 -1.89 0.16 -0.87 970
-0.01 0.12 -0.42 5.90 7.36 -2.14 -0.38 -0.53 977
-0.01 0.12 0.74 5.21 6.15 -2.14 -0.69 -0.23 985
-0.01 0.12 2.00 4.85 5.77 -2.22 -0.81 0.01 992
-0.01 0.12 2.84 4.79 6.37 -2.34 -0.61 0.27 999
0.00 0.13 2.77 5.05 7.39 -2.58 -0.29 0.46 1006
-0.01 0.12 1.83 5.35 8.26 -2.90 0.11 0.65 1013
-0.01 0.13 0.84 5.15 9.09 -3.19 0.33 0.79 1020
-0.01 0.11 -0.62 4.60 9.70 -3.51 0.42 0.89 1028
-0.01 0.13 -1.71 4.10 9.96 -3.77 0.36 0.97 1035
-0.01 0.14 -1.96 3.36 10.26 -4.02 0.25 1.00 1042
-0.01 0.14 -1.82 2.41 10.48 -4.18 0.15 0.98 1050
-0.01 0.13 -1.75 1.38 10.83 -4.25 0.16 0.92 1056
-0.01 0.13 -2.08 0.63 10.91 -4.28 0.23 0.84 1063
-0.01 0.12 -2.42 -0.39 11.32 -4.28 0.33 0.69 1071
-0.01 0.13 -2.79 -1.25 12.04 -4.28 0.40 0.49 1078
-0.01 0.13 -3.23 -2.33 12.42 -4.28 0.46 0.30 1085
-0.01 0.12 -3.54 -3.23 12.69 -4.28 0.48 0.07 1093
-0.01 0.12 -3.49 -3.62 12.74 -4.28 0.45 -0.10 1099
-0.01 0.10 -3.14 -3.92 12.92 -4.28 0.41 -0.24 1106
-0.01 0.11 -2.61 -4.13 13.18 -4.28 0.41 -0.32 1114
-0.01 0.11 -1.90 -4.19 13.63 -4.28 0.45 -0.36 1121
-0.01 0.13 -1.34 -4.33 14.29 -4.28 0.53 -0.35 1128
-0.01 0.11 -0.99 -4.51 15.04 -4.28 0.62 -0.30 1136
-0.01 0.12 -0.76 -4.82 15.80 -4.27 0.72 -0.22 1142
-0.01 0.12 -0.66 -5.03 16.53 -4.27 0.77 -0.09 1149
-0.01 0.14 -0.54 -5.28 16.87 -4.26 0.78 0.04 1157
-0.01 0.11 -0.36 -5.60 17.11 -4.23 0.73 0.19 1164
-0.01 0.14 -0.10 -6.07 17.32 -4.19 0.72 0.33 1171
-0.00 0.12 0.07 -6.91 17.42 -4.09 0.79 0.45 1178
-0.01 0.12 -0.06 -7.67 17.54 -3.95 0.88 0.54 1185
-0.01 0.11 -0.53 -8.26 17.52 -3.76 0.97 0.59 1192
-0.01 0.10 -1.15 -8.93 17.34 -3.58 1.00 0.62 1200
-0.01 0.10 -1.67 -9.46 17.35 -3.37 0.96 0.62 1207
-0.01 0.11 -2.11 -9.91 17.38 -3.16 0.86 0.61 1215
-0.01 0.10 -2.15 -10.14 17.45 -3.01 0.78 0.57 1222
-0.01 0.10 -1.99 -10.56 17.73 -2.90 0.73 0.52 1229
-0.01 0.09 -1.89 -10.91 18.31 -2.93 0.76 0.43 1236
-0.01 0.11 -1.71 -11.24 18.23 -3.03 0.87 0.30 1244
-0.01 0.12 -2.02 -11.76 17.42 -3.25 0.97 0.24 1251
-0.01 0.12 -2.71 -12.96 15.23 -3.41 0.98 0.14 1258
-0.01 0.11 -3.24 -14.36 12.48 -3.43 0.98 0.04 1265
-0.01 0.12 -3.64 -16.69 11.00 -3.24 1.00 -0.17 1272
-0.01 0.12 -4.00 -19.66 9.15 -2.97 1.00 -0.50 1278
-0.01 0.14 -4.35 -22.26 7.39 -2.62 0.98 -0.89 1286
-0.02 0.15 -5.02 -25.64 5.16 -2.32 1.02 -1.31 1293
-0.01 0.14 -6.56 -29.09 3.17 -1.99 1.09 -1.54 1301
-0.01 0.14 -9.20 -30.43 1.76 -1.52 1.00 -1.61 1307
-0.01 0.14 -10.66 -29.48 1.32 -0.94 0.58 -1.52 1315
-0.01 0.14 -10.05 -26.42 1.79 -0.13 -0.29 -1.37 1323
-0.01 0.15 -6.92 -21.78 4.00 0.52 -1.19 -1.18 1329
-0.02 0.16 -3.37 -17.29 6.29 1.02 -1.61 -0.99 1336
0.00 0.15 0.71 -14.80 6.44 1.24 -1.67 -0.86 1344
-0.02 0.18 4.44 -17.30 13.79 2.59 -0.94 -1.37 1351
-0.02 0.16 1.43 -1.73 5.39 2.84 -0.39 -1.25 1357
-0.02 0.16 1.56 4.66 12.77 2.88 -0.97 -1.34 1364
-0.03 0.32 3.62 0.93 14.84 2.49 -1.00 -1.12 1373
-0.03 0.37 6.37 1.86 11.65 2.02 -0.67 -0.75 1380
-0.02 0.44 4.31 0.42 9.55 1.92 -0.55 -0.34 1386
-0.03 0.49 3.40 -0.33 9.17 2.18 -0.64 -0.08 1393
-0.04 0.55 2.60 -1.04 11.34 2.51 -0.55 0.19 1401
-0.05 0.57 0.76 -1.69 13.93 2.66 -0.15 0.46 1409
-0.04 0.61 -1.13 -1.71 15.07 2.61 0.20 0.57 1416
-0.03 0.66 -2.54 -3.04 15.42 2.45 0.24 0.45 1423
-0.05 0.78 -3.03 -3.23 15.12 2.32 0.27 0.23 1430
-0.06 0.94 -2.10 -2.60 14.45 2.21 0.34 0.02 1437
-0.05 0.91 -0.09 -2.15 13.79 2.02 0.38 -0.09 1444
-0.05 1.01 0.96 -2.05 13.27 1.76 0.38 -0.07 1452
-0.03 1.00 1.35 -1.90 12.33 1.55 0.38 0.04 1458
-0.04 1.10 1.25 -1.62 11.63 1.43 0.37 0.17 1466
-0.06 1.14 0.56 -1.69 10.86 1.32 0.40 0.21 1473
-0.05 1.09 -0.11 -1.53 10.43 1.27 0.42 0.21 1480
-0.05 1.11 -0.06 -2.20 14.26 1.07 0.19 0.16 1487
-0.04 1.16 0.51 -2.05 12.59 0.30 -0.32 0.04 1495
-0.06 1.23 0.49 -1.87 10.56 0.01 -0.26 0.03 1502
-0.05 1.27 0.32 -1.52 10.25 -0.07 -0.18 0.03 1509
-0.06 1.27 0.38 -1.50 9.97 -0.13 -0.09 0.03 1515
-0.06 1.26 0.09 -1.50 9.76 -0.19 -0.03 0.01 1522
-0.07 1.23 0.26 -1.47 9.76 -0.22 0.00 -0.00 1529
-0.06 1.29 0.27 -1.46 9.90 -0.22 0.01 -0.01 1537
-0.06 1.35 0.23 -1.39 9.78 -0.21 0.02 -0.02 1544
-0.06 1.37 0.12 -1.37 9.85 -0.21 0.04 -0.02 1551
-0.06 1.39 0.23 -1.36 9.84 -0.19 0.06 -0.02 1558
-0.07 1.47 0.19 -1.25 9.83 -0.17 0.08 -0.02 1565
-0.09 1.42 0.21 -1.20 9.78 -0.15 0.09 -0.01 1572
-0.07 1.42 0.26 -1.20 9.81 -0.12 0.10 -0.01 1580
-0.06 1.44 0.29 -1.18 9.81 -0.07 0.10 -0.01 1587
-0.04 1.42 0.26 -1.16 9.75 -0.08 0.10 -0.01 1594
-0.06 1.41 0.28 -1.14 9.80 -0.07 0.11 -0.01 1601
-0.07 1.42 0.26 -1.08 9.75 -0.06 0.12 -0.00 1608
-0.08 1.45 0.29 -1.08 9.78 -0.05 0.12 0.00 1615
-0.07 1.45 0.30 -1.11 9.81 -0.03 0.13 -0.00 1623
-0.06 1.46 0.31 -1.14 9.79 -0.02 0.13 0.00 1630
-0.06 1.41 0.37 -1.12 9.75 0.01 0.11 0.00 1637
-0.07 1.37 0.37 -1.12 9.72 0.02 0.10 -0.00 1644
-0.07 1.37 0.39 -1.10 9.67 0.02 0.10 -0.00 1651
-0.08 1.31 0.40 -1.11 9.73 0.03 0.08 -0.01 1658
-0.06 1.30 0.38 -1.08 9.73 0.04 0.08 -0.01 1666
-0.05 1.28 0.41 -1.05 9.67 0.04 0.07 -0.01 1673
-0.05 1.27 0.39 -1.11 9.68 0.04 0.06 -0.02 1680
-0.07 1.22 0.39 -1.09 9.70 0.04 0.06 -0.02 1687
-0.06 1.20 0.39 -1.14 9.65 0.03 0.05 -0.02 1694
-0.06 1.16 0.34 -1.10 9.71 0.03 0.05 -0.02 1701
-0.05 1.16 0.35 -1.11 9.69 0.02 0.05 -0.02 1709
-0.04 1.14 0.36 -1.14 9.71 0.02 0.06 -0.02 1716
-0.04 1.10 0.40 -1.10 9.66 0.02 0.05 -0.02 1723
-0.04 1.09 0.39 -1.08 9.64 0.01 0.05 -0.03 1730
-0.06 1.08 0.35 -1.12 9.66 0.01 0.05 -0.03 1737
-0.06 1.08 0.40 -1.12 9.64 0.00 0.06 -0.02 1744
-0.05 1.08 0.39 -1.14 9.58 0.00 0.06 -0.02 1752
-0.05 0.99 0.36 -1.13 9.68 0.00 0.07 -0.03 1759
-0.05 1.00 0.34 -1.14 9.73 0.01 0.07 -0.03 1766
-0.04 0.97 0.36 -1.16 9.69 0.01 0.08 -0.02 1773
-0.05 0.94 0.39 -1.12 9.71 0.02 0.07 -0.02 1780
-0.04 0.92 0.41 -1.13 9.74 0.02 0.08 -0.02 1787
0.01 0.87 0.36 -1.15 9.75 0.02 0.07 -0.02 1795
-0.03 0.89 0.42 -1.15 9.73 0.03 0.07 -0.02 1802
-0.04 0.81 0.40 -1.17 9.74 0.03 0.07 -0.03 1809
-0.03 0.78 0.41 -1.15 9.75 0.04 0.07 -0.03 1816
-0.04 0.74 0.42 -1.11 9.72 0.05 0.07 -0.02 1823
-0.02 0.72 0.38 -1.13 9.68 0.06 0.07 -0.02 1830
-0.02 0.70 0.40 -1.16 9.66 0.07 0.08 -0.03 1838
-0.03 0.68 0.46 -1.21 9.82 0.08 0.07 -0.03 1845
-0.04 0.68 0.45 -1.11 9.81 0.10 0.06 -0.02 1852
-0.03 0.58 0.42 -1.16 9.74 0.10 0.05 -0.03 1859
-0.04 0.59 0.46 -1.21 9.79 0.12 0.05 -0.03 1866
-0.01 0.50 0.51 -1.18 9.80 0.13 0.05 -0.03 1873
0.01 0.52 0.44 -1.21 9.82 0.15 0.05 -0.03 1881
0.00 0.49 0.46 -1.19 9.80 0.16 0.04 -0.04 1888
-0.01 0.47 0.46 -1.23 9.81 0.18 0.03 -0.04 1895
-0.00 0.42 0.46 -1.25 9.81 0.20 0.02 -0.04 1902
-0.01 0.37 0.49 -1.32 9.81 0.22 0.01 -0.05 1909
0.01 0.32 0.58 -1.35 9.84 0.25 0.00 -0.05 1916
0.01 0.31 0.47 -1.36 9.87 0.28 0.00 -0.06 1924
0.02 0.24 0.56 -1.38 9.89 0.31 -0.00 -0.06 1931
0.05 0.19 0.60 -1.49 9.92 0.35 0.01 -0.08 1938
0.07 0.19 0.46 -1.48 10.06 0.40 0.02 -0.09 1945
0.10 0.19 0.69 -1.54 10.03 0.45 0.05 -0.11 1953
0.15 0.16 0.99 -1.42 10.15 0.51 0.10 -0.15 1960
0.19 0.14 0.92 -1.57 10.69 0.61 0.24 -0.20 1968
0.22 0.10 0.30 -1.88 10.52 0.80 0.41 -0.22 1974
0.21 0.09 0.27 -2.10 10.87 0.98 0.47 -0.17 1981
0.18 0.09 0.31 -1.95 11.12 1.19 0.44 -0.14 1989
0.22 0.14 0.31 -2.04 11.12 1.35 0.42 -0.13 1996
0.29 0.14 0.60 -2.10 12.09 1.55 0.39 -0.12 2003
0.26 0.14 0.85 -2.31 11.91 1.75 0.40 -0.14 2011
0.24 0.16 0.97 -2.27 11.66 1.90 0.36 -0.17 2018
0.25 0.13 2.34 -0.36 12.29 2.10 0.32 -0.19 2025
0.27 0.16 0.89 -2.60 11.89 2.28 0.29 -0.21 2032
0.29 0.17 1.04 -2.60 11.90 2.52 0.30 -0.22 2039
0.31 0.17 0.97 -2.76 11.95 2.74 0.34 -0.26 2046
0.32 0.17 1.76 -3.35 12.43 2.92 0.38 -0.29 2054
0.30 0.20 1.05 -3.43 12.45 3.11 0.42 -0.31 2061
0.26 0.21 0.59 -3.18 12.97 3.29 0.41 -0.30 2068
0.20 0.18 1.13 -3.62 13.66 3.48 0.31 -0.30 2075
0.20 0.19 1.21 -3.83 14.59 3.66 0.10 -0.31 2082
0.18 0.17 2.29 -4.43 13.73 3.87 0.12 -0.32 2089
0.11 0.14 3.01 -5.25 15.07 4.10 0.01 -0.39 2096
0.12 0.10 2.37 -4.27 15.77 4.21 -0.07 -0.48 2104
0.13 0.07 2.41 -5.27 17.39 4.26 -0.20 -0.54 2111
0.13 0.07 1.29 -6.44 15.96 4.28 -0.55 -0.61 2118
0.09 0.06 2.66 -8.84 17.11 4.28 -0.81 -0.67 2125
0.08 0.06 3.50 -8.06 19.24 4.28 -0.82 -0.73 2132
0.05 0.06 1.46 -6.63 21.16 4.28 -0.69 -0.77 2140
0.03 0.03 0.01 -7.92 21.85 4.28 -0.80 -0.76 2146
0.01 0.05 1.27 -7.22 19.74 4.28 -1.30 -0.72 2154
0.03 0.07 4.15 -7.30 22.07 4.28 -1.43 -0.78 2161
-0.01 0.07 5.70 -6.18 22.07 4.28 -1.42 -0.90 2167
-0.00 0.08 6.28 -3.29 20.12 4.28 -1.23 -1.01 2176
-0.01 0.08 6.04 0.21 17.42 4.28 -0.98 -1.13 2182
-0.01 0.07 5.09 3.60 14.65 4.28 -0.72 -1.26 2189
-0.01 0.11 4.23 7.04 11.73 4.28 -0.69 -1.41 2196
-0.01 0.12 3.69 14.54 9.05 4.28 -0.69 -1.52 2203
-0.01 0.12 5.68 9.93 14.10 3.82 -0.31 -1.54 2210
-0.01 0.13 5.49 11.63 20.63 2.04 0.18 -1.48 2219
-0.01 0.13 2.39 12.24 18.95 0.24 0.61 -1.29 2226
-0.01 0.11 -0.06 11.61 13.69 -0.89 0.45 -0.95 2232
-0.01 0.12 -0.85 9.26 10.26 -1.67 -0.06 -0.69 2239
-0.01 0.13 -1.11 7.19 7.93 -2.02 -0.67 -0.51 2246
-0.00 0.13 -0.32 5.80 6.56 -2.12 -1.12 -0.34 2253
-0.01 0.14 0.51 5.15 5.71 -2.18 -1.36 -0.21 2260
-0.01 0.14 1.44 4.83 5.57 -2.24 -1.38 -0.08 2268
-0.01 0.14 2.11 4.76 6.18 -2.35 -1.21 0.04 2275
-0.01 0.15 2.52 4.99 6.80 -2.56 -0.87 0.15 2282
-0.02 0.15 2.15 5.04 7.46 -2.79 -0.48 0.23 2289
-0.01 0.16 1.53 5.07 8.16 -3.08 -0.21 0.27 2296
-0.01 0.15 0.54 4.78 8.65 -3.36 -0.03 0.31 2304
-0.01 0.15 0.18 4.17 9.37 -3.59 0.03 0.33 2311
-0.01 0.14 -0.29 3.71 10.13 -3.87 0.03 0.35 2318
-0.01 0.15 -0.40 3.00 10.77 -4.10 0.01 0.36 2325
-0.01 0.16 -0.36 2.17 11.24 -4.26 -0.00 0.38 2333
-0.00 0.15 -0.36 0.92 11.32 -4.28 0.01 0.39 2339
-0.01 0.14 -0.39 -0.37 11.37 -4.28 0.02 0.38 2347
-0.01 0.15 -0.40 -1.41 11.46 -4.28 0.03 0.37 2354
-0.02 0.15 -0.44 -2.52 11.97 -4.28 0.04 0.35 2361
-0.01 0.15 -0.43 -3.23 12.45 -4.28 0.07 0.33 2369
-0.01 0.17 -0.40 -3.68 12.71 -4.28 0.09 0.32 2376
-0.01 0.16 -0.40 -3.80 12.91 -4.28 0.09 0.33 2383
-0.02 0.16 -0.12 -3.89 13.25 -4.28 0.07 0.36 2390
-0.01 0.14 0.25 -3.93 13.78 -4.28 0.04 0.40 2397
-0.01 0.16 0.66 -3.96 14.62 -4.28 0.05 0.47 2405
-0.01 0.17 0.97 -4.24 15.54 -4.28 0.12 0.51 2412
-0.00 0.17 1.00 -4.99 16.57 -4.28 0.23 0.53 2419
-0.00 0.16 0.85 -5.85 17.08 -4.28 0.34 0.51 2425
-0.01 0.16 0.92 -6.81 17.02 -4.26 0.41 0.46 2434
-0.00 0.15 1.18 -7.76 16.93 -4.20 0.44 0.41 2441
-0.01 0.16 1.59 -8.62 17.10 -4.01 0.52 0.35 2448
-0.01 0.16 1.82 -9.38 17.40 -3.78 0.63 0.29 2455
0.00 0.15 1.62 -9.80 17.36 -3.51 0.71 0.25 2462
-0.01 0.14 1.16 -10.32 17.60 -3.22 0.73 0.20 2469
-0.00 0.14 0.19 -10.70 18.01 -3.00 0.67 0.17 2477
-0.01 0.12 0.27 -10.89 18.50 -2.79 0.61 0.14 2484
-0.01 0.13 0.14 -11.06 19.46 -2.70 0.52 0.10 2490
-0.01 0.13 0.43 -11.09 20.40 -2.75 0.53 0.06 2497
-0.01 0.12 0.85 -11.17 20.50 -3.02 0.69 0.01 2505
-0.01 0.14 1.08 -11.66 19.69 -3.36 0.97 -0.02 2512
-0.01 0.14 0.77 -12.52 18.29 -3.74 1.15 -0.03 2520
-0.01 0.14 -0.09 -14.16 15.83 -3.97 1.30 -0.03 2526
-0.01 0.14 -0.82 -16.05 12.86 -3.94 1.35 -0.04 2534
-0.01 0.14 -1.94 -18.07 10.80 -3.68 1.41 -0.08 2541
-0.01 0.15 -3.37 -21.02 9.36 -3.36 1.55 -0.21 2548
-0.01 0.13 -4.99 -23.16 7.60 -2.97 1.53 -0.40 2554
-0.01 0.12 -6.71 -26.45 6.05 -2.63 1.38 -0.67 2562
-0.01 0.12 -8.03 -30.13 3.77 -2.37 1.18 -0.87 2569
-0.01 0.13 -9.54 -32.74 1.85 -1.97 0.87 -0.94 2576
-0.01 0.13 -10.28 -33.44 0.24 -1.43 0.42 -0.90 2584
-0.01 0.13 -9.95 -31.18 0.20 -0.57 -0.13 -0.84 2590
-0.01 0.12 -7.78 -26.63 1.31 0.34 -0.87 -0.75 2597
-0.01 0.12 -4.39 -21.54 4.11 0.94 -1.34 -0.67 2605
-0.01 0.14 2.91 -21.90 0.01 1.43 -1.65 -0.67 2612
-0.02 0.19 -1.64 -12.82 6.93 2.79 -0.96 -1.02 2619
-0.01 0.18 2.65 5.68 7.96 3.05 -0.59 -0.96 2626
-0.02 0.21 1.92 4.02 12.94 2.80 -0.84 -0.89 2634
-0.03 0.33 4.84 1.21 13.34 2.35 -0.71 -0.64 2641
-0.04 0.43 5.26 2.60 8.43 1.98 -0.57 -0.31 2648
-0.04 0.50 3.19 0.03 7.58 2.16 -0.62 0.03 2655
-0.04 0.58 1.78 -1.71 10.22 2.56 -0.67 0.27 2663
-0.02 0.55 1.59 -2.00 13.22 3.01 -0.30 0.49 2670
-0.03 0.63 -0.48 -2.09 15.26 3.12 0.20 0.65 2677
-0.05 0.68 -2.75 -3.57 17.34 2.87 0.24 0.59 2684
-0.06 0.82 -3.78 -4.45 17.30 2.66 0.20 0.32 2692
-0.05 0.98 -2.83 -3.39 15.75 2.56 0.18 0.01 2699
-0.06 1.09 -0.49 -2.87 15.36 2.29 0.18 -0.14 2706
-0.05 1.16 0.91 -2.51 14.20 1.97 0.18 -0.15 2713
-0.07 1.24 1.91 -2.31 12.41 1.78 0.27 0.01 2720
-0.07 1.27 1.43 -2.02 11.80 1.63 0.40 0.16 2727
-0.08 1.23 -0.26 -3.49 17.37 1.36 0.10 0.19 2735
-0.06 1.26 0.11 -2.08 11.76 0.36 -0.31 0.07 2742
-0.06 1.32 0.03 -2.30 10.90 0.01 -0.19 0.03 2748
-0.06 1.35 0.17 -1.69 10.16 -0.06 -0.07 0.03 2756
-0.06 1.25 0.34 -1.42 9.72 -0.12 0.00 0.02 2762
-0.07 1.24 0.29 -1.45 9.73 -0.13 0.02 0.01 2769
-0.08 1.24 0.29 -1.51 10.35 -0.15 0.03 0.00 2777
-0.08 1.22 0.26 -1.48 9.81 -0.15 0.03 -0.01 2784
-0.08 1.30 0.30 -1.57 9.79 -0.14 0.04 -0.02 2791
-0.05 1.27 0.27 -1.34 9.75 -0.14 0.06 -0.02 2798
-0.08 1.31 0.33 -1.29 9.73 -0.13 0.07 -0.02 2805
-0.08 1.31 0.18 -1.36 9.78 -0.12 0.06 -0.03 2812
-0.08 1.33 0.21 -1.28 9.67 -0.12 0.07 -0.03 2820
-0.08 1.40 0.25 -1.27 9.78 -0.11 0.08 -0.03 2827
-0.06 1.37 0.14 -1.18 9.56 -0.09 0.10 -0.02 2834
-0.07 1.37 0.21 -1.21 9.82 -0.08 0.12 -0.02 2841
-0.07 1.34 0.23 -1.19 9.79 -0.06 0.13 -0.02 2848
-0.06 1.36 0.28 -1.16 9.70 -0.04 0.14 -0.02 2855
-0.08 1.36 0.27 -1.17 9.70 -0.03 0.15 -0.01 2863
-0.08 1.31 0.26 -1.16 9.75 -0.02 0.15 -0.01 2870
-0.07 1.30 0.33 -1.16 9.75 -0.00 0.15 -0.01 2877
-0.04 1.27 0.37 -1.17 9.76 0.02 0.14 -0.01 2884
-0.06 1.26 0.39 -1.17 9.74 0.03 0.13 -0.01 2891
-0.08 1.19 0.38 -1.20 9.76 0.04 0.11 -0.02 2898
-0.05 1.15 0.42 -1.18 9.69 0.04 0.10 -0.02 2906
-0.04 1.10 0.39 -1.16 9.68 0.05 0.08 -0.02 2913
-0.03 1.05 0.37 -1.16 9.72 0.05 0.08 -0.03 2920
-0.01 1.01 0.33 -1.17 9.71 0.05 0.06 -0.03 2927
-0.01 0.97 0.39 -1.22 9.69 0.06 0.06 -0.02 2934
-0.07 0.93 0.44 -1.17 9.83 0.06 0.06 -0.03 2941
-0.02 0.92 0.34 -1.22 9.64 0.07 0.05 -0.03 2949
-0.01 0.84 0.40 -1.26 9.73 0.07 0.05 -0.03 2956
-0.00 0.86 0.43 -1.23 9.66 0.07 0.05 -0.03 2963
-0.03 0.80 0.40 -1.19 9.69 0.08 0.04 -0.04 2970
-0.02 0.77 0.40 -1.23 9.70 0.08 0.03 -0.04 2977
-0.04 0.76 0.42 -1.25 9.68 0.08 0.02 -0.04 2984
-0.02 0.68 0.44 -1.26 9.70 0.09 0.00 -0.05 2992
0.01 0.63 0.42 -1.27 9.77 0.10 -0.02 -0.05 2999
-0.00 0.61 0.43 -1.31 9.76 0.11 -0.04 -0.05 3006
-0.02 0.62 0.39 -1.30 9.68 0.11 -0.03 -0.06 3013
-0.00 0.60 0.37 -1.28 9.75 0.12 -0.02 -0.06 3020
-0.01 0.54 0.36 -1.29 9.78 0.13 -0.01 -0.06 3027
0.06 0.56 0.36 -1.34 9.20 0.15 -0.00 -0.06 3035
0.05 0.49 0.31 -1.53 9.76 0.17 0.01 -0.06 3042
0.09 0.43 0.37 -1.39 9.81 0.18 0.02 -0.06 3049
0.10 0.37 0.35 -1.45 9.85 0.20 0.03 -0.06 3056
0.11 0.35 0.47 -1.45 9.81 0.22 0.04 -0.06 3063
0.13 0.33 0.35 -1.50 9.84 0.24 0.05 -0.06 3070
0.15 0.26 0.43 -1.44 9.85 0.27 0.06 -0.07 3078
0.17 0.25 0.40 -1.59 9.85 0.30 0.08 -0.08 3085
0.19 0.18 0.52 -1.54 9.83 0.33 0.09 -0.08 3092
0.20 0.19 0.53 -1.52 10.02 0.35 0.10 -0.09 3099
0.21 0.14 0.52 -1.64 9.89 0.38 0.12 -0.10 3106
0.23 0.17 0.62 -1.70 9.87 0.41 0.15 -0.12 3113
0.24 0.17 1.05 -1.63 10.42 0.45 0.23 -0.15 3122
0.29 0.14 0.56 -1.83 10.34 0.54 0.32 -0.20 3129
0.28 0.08 0.43 -1.84 10.23 0.72 0.40 -0.19 3135
0.28 0.09 0.28 -1.96 10.54 0.87 0.40 -0.17 3142
0.34 0.08 0.49 -1.94 10.66 1.01 0.39 -0.15 3150
0.32 0.11 0.50 -2.00 10.55 1.12 0.38 -0.16 3158
0.31 0.14 0.75 -2.25 10.18 1.22 0.38 -0.16 3165
0.30 0.13 0.67 -2.22 10.73 1.30 0.39 -0.16 3172
0.32 0.14 0.29 -2.41 10.66 1.38 0.37 -0.15 3179
0.35 0.15 0.53 -2.44 10.76 1.49 0.34 -0.13 3186
0.31 0.14 0.62 -2.51 11.07 1.59 0.31 -0.12 3193
0.35 0.16 0.28 -2.62 11.00 1.73 0.31 -0.11 3201
0.35 0.18 0.44 -2.88 11.14 1.89 0.32 -0.08 3208
0.39 0.17 0.49 -2.71 11.56 2.06 0.34 -0.06 3215
0.37 0.16 1.13 -3.14 11.70 2.27 0.38 -0.07 3222
0.38 0.17 1.66 -3.15 12.29 2.51 0.40 -0.12 3229
0.38 0.17 2.21 -3.38 10.80 2.74 0.34 -0.23 3236
0.40 0.16 1.55 -3.44 13.32 2.97 0.36 -0.26 3244
0.44 0.13 1.03 -3.54 13.29 3.23 0.28 -0.29 3251
0.40 0.13 0.92 -3.80 13.49 3.50 0.20 -0.32 3257
0.38 0.11 1.20 -4.26 14.44 3.79 0.17 -0.33 3265
0.36 0.12 1.51 -4.81 14.66 4.07 0.11 -0.34 3272
0.30 0.13 2.90 -5.42 14.55 4.26 0.04 -0.40 3278
0.23 0.10 2.94 -5.68 16.12 4.28 -0.05 -0.50 3287
0.22 0.09 1.26 -5.73 18.02 4.28 -0.20 -0.56 3294
0.15 0.09 1.79 -6.71 19.15 4.28 -0.38 -0.57 3301
0.09 0.09 1.84 -8.72 17.50 4.28 -0.63 -0.64 3308
0.10 0.06 3.28 -9.48 19.77 4.28 -0.76 -0.71 3315
0.09 0.06 2.29 -9.10 24.11 4.28 -0.75 -0.79 3322
0.07 0.07 -0.48 -9.45 24.22 4.28 -0.73 -0.79 3329
0.04 0.06 -0.26 -9.07 22.28 4.28 -1.05 -0.70 3336
0.01 0.05 2.05 -9.04 26.24 4.28 -1.22 -0.64 3343
-0.01 0.08 5.60 -6.96 26.27 4.28 -1.40 -0.67 3350
-0.01 0.08 6.40 -2.03 23.38 4.28 -1.28 -0.76 3357
-0.01 0.11 6.78 2.37 21.63 4.28 -0.96 -0.85 3364
-0.01 0.11 6.39 6.04 20.00 4.28 -0.49 -0.98 3372
-0.01 0.12 4.46 11.06 14.53 4.28 -0.24 -1.22 3380
-0.01 0.10 5.37 14.42 7.02 4.28 -0.01 -1.48 3386
-0.01 0.11 7.98 13.60 19.59 3.87 0.66 -1.51 3394
-0.01 0.12 5.48 15.48 23.54 1.74 1.12 -1.48 3401
-0.01 0.12 1.21 15.15 19.89 -0.32 1.44 -1.23 3408
-0.01 0.14 -1.50 13.90 15.44 -1.55 0.95 -0.83 3416
-0.01 0.12 -2.63 11.20 11.31 -2.39 0.16 -0.56 3423
-0.01 0.11 -1.93 8.72 9.41 -2.72 -0.60 -0.32 3429
-0.01 0.11 -0.96 6.88 7.39 -2.84 -1.07 -0.15 3436
-0.01 0.11 0.19 6.53 6.59 -2.97 -1.30 -0.03 3443
-0.01 0.12 1.09 5.67 6.60 -3.07 -1.23 0.08 3450
-0.00 0.13 1.38 5.26 7.05 -3.20 -1.02 0.16 3458
-0.01 0.12 1.57 5.01 7.43 -3.39 -0.69 0.22 3465
-0.01 0.12 1.21 4.93 8.17 -3.61 -0.38 0.22 3472
-0.01 0.11 0.63 4.53 9.00 -3.91 -0.04 0.19 3479
-0.01 0.12 -0.14 4.08 9.84 -4.14 0.22 0.11 3486
-0.01 0.13 -0.89 3.65 10.34 -4.27 0.35 0.04 3493
-0.01 0.11 -1.34 2.63 10.65 -4.28 0.37 -0.07 3502
-0.01 0.12 -1.50 1.59 11.00 -4.28 0.34 -0.19 3508
-0.01 0.13 -1.70 0.46 11.23 -4.28 0.33 -0.28 3515
-0.01 0.13 -2.03 -0.72 11.57 -4.28 0.32 -0.37 3522
-0.01 0.14 -2.11 -1.69 12.05 -4.28 0.29 -0.44 3529
-0.01 0.14 -2.15 -2.67 12.83 -4.28 0.26 -0.54 3537
0.01 0.13 -2.11 -3.64 13.56 -4.28 0.27 -0.64 3545
-0.01 0.13 -1.95 -4.00 13.93 -4.28 0.30 -0.73 3552
-0.01 0.13 -1.77 -4.16 14.20 -4.28 0.33 -0.81 3558
-0.01 0.13 -1.47 -4.20 14.54 -4.28 0.36 -0.85 3565
-0.01 0.13 -0.95 -4.19 14.89 -4.28 0.42 -0.83 3573
-0.00 0.15 -0.53 -4.24 15.54 -4.28 0.51 -0.75 3580
0.00 0.12 -0.34 -4.46 16.35 -4.28 0.60 -0.63 3588
-0.01 0.11 -0.29 -5.04 17.20 -4.28 0.72 -0.45 3595
-0.01 0.12 -0.38 -6.13 17.77 -4.28 0.81 -0.26 3601
-0.01 0.12 -0.49 -7.26 17.87 -4.28 0.86 -0.11 3608
-0.01 0.12 -0.12 -8.69 17.65 -4.26 0.89 0.05 3616
-0.01 0.14 0.70 -9.63 18.32 -4.04 0.97 0.20 3622
-0.01 0.13 1.16 -10.43 19.24 -3.70 1.11 0.28 3631
-0.01 0.11 0.06 -10.88 19.91 -3.48 1.20 0.39 3637
-0.01 0.12 -0.12 -11.08 21.45 -3.28 1.20 0.49 3645
-0.01 0.12 -0.63 -11.37 23.44 -3.30 1.17 0.58 3652
-0.01 0.13 -1.30 -11.74 24.43 -3.50 1.14 0.64 3659
-0.01 0.13 -2.16 -12.46 24.20 -3.91 1.05 0.68 3666
-0.01 0.12 -2.98 -13.85 22.87 -4.20 0.96 0.66 3674
-0.01 0.11 -3.70 -15.45 20.56 -4.28 0.85 0.62 3681
-0.01 0.09 -4.16 -17.77 17.98 -4.28 0.75 0.56 3688
-0.01 0.10 -4.48 -19.80 14.60 -4.28 0.67 0.54 3695
-0.01 0.11 -4.85 -22.71 12.39 -4.18 0.57 0.55 3702
-0.01 0.11 -4.69 -26.31 10.21 -3.86 0.41 0.51 3709
-0.01 0.10 -3.74 -30.17 7.02 -3.45 0.22 0.37 3716
-0.01 0.11 -2.61 -36.70 3.14 -3.12 0.12 0.08 3723
-0.01 0.10 -3.48 -43.12 -1.37 -2.74 0.36 -0.18 3730
-0.01 0.10 -7.10 -45.30 -3.15 -1.91 0.77 -0.31 3737
-0.01 0.12 -10.22 -41.91 -2.67 -0.85 0.67 -0.40 3745
-0.01 0.11 -10.54 -34.93 -0.98 0.40 0.02 -0.44 3752
-0.01 0.13 -6.29 -37.96 18.21 2.42 -0.84 -0.66 3760
-0.02 0.16 2.40 -24.22 1.96 3.04 -0.75 -1.15 3766
-0.02 0.19 1.06 -6.47 8.05 3.55 -0.25 -1.40 3773
-0.02 0.26 -0.28 5.00 17.47 3.45 -0.43 -1.50 3781
-0.02 0.30 4.09 1.33 14.65 2.76 -0.69 -1.44 3788
-0.02 0.49 7.76 1.29 12.43 2.13 -0.71 -1.19 3795
-0.04 0.46 6.78 0.02 8.86 2.02 -0.72 -0.70 3802
-0.04 0.56 5.78 -1.07 10.61 2.38 -0.83 -0.27 3810
-0.05 0.60 5.09 -1.92 14.43 2.83 -0.47 0.29 3817
-0.05 0.62 2.61 -2.25 14.61 3.06 0.02 0.74 3824
-0.04 0.78 -1.74 -2.59 15.71 3.05 0.24 0.86 3831
-0.05 0.90 -4.81 -3.93 17.23 2.78 0.30 0.68 3838
-0.05 1.02 -5.06 -3.65 15.26 2.54 0.46 0.34 3846
-0.07 1.21 -2.43 -2.77 14.08 2.37 0.45 -0.06 3853
-0.07 1.17 0.06 -2.27 14.07 2.20 0.46 -0.18 3860
-0.07 1.30 2.63 -1.96 13.19 2.00 0.58 -0.05 3867
-0.06 1.36 1.63 -3.03 15.97 1.70 0.40 0.15 3874
-0.04 1.33 0.34 -2.84 14.22 0.75 -0.30 0.11 3881
-0.07 1.37 0.01 -2.10 11.30 0.11 -0.30 0.07 3888
-0.07 1.36 -0.03 -1.80 10.31 0.01 -0.13 0.04 3895
-0.07 1.32 0.51 -1.11 10.07 -0.04 -0.02 0.04 3903
-0.08 1.35 0.32 -1.31 9.64 -0.08 0.04 0.05 3909
-0.07 1.30 0.14 -1.28 9.79 -0.10 0.07 0.04 3916
-0.04 1.32 0.17 -1.27 9.79 -0.11 0.09 0.03 3923
-0.07 1.30 0.35 -1.21 9.76 -0.11 0.09 0.01 3931
-0.07 1.30 0.31 -1.25 9.75 -0.11 0.09 0.01 3938
-0.05 1.31 0.32 -1.20 9.75 -0.11 0.10 -0.00 3945
-0.03 1.30 0.34 -1.10 9.58 -0.12 0.10 -0.01 3952
-0.02 1.28 0.36 -1.08 9.70 -0.13 0.09 -0.01 3959
-0.06 1.31 0.33 -1.08 9.79 -0.12 0.09 -0.01 3966
-0.07 1.31 0.33 -1.01 9.85 -0.11 0.09 -0.01 3974
-0.09 1.33 0.27 -1.02 9.81 -0.09 0.09 -0.01 3981
-0.08 1.31 0.29 -1.01 9.79 -0.07 0.09 -0.01 3988
-0.05 1.30 0.29 -0.95 9.80 -0.05 0.09 -0.01 3995
-0.05 1.26 0.26 -0.99 9.79 -0.00 0.09 -0.01 4002
-0.05 1.24 0.34 -0.99 9.79 -0.01 0.09 -0.00 4009
-0.06 1.20 0.35 -0.97 9.77 0.01 0.08 0.00 4017
-0.08 1.22 0.37 -0.97 9.73 0.03 0.08 -0.00 4024
-0.05 1.17 0.40 -0.98 9.72 0.04 0.06 -0.00 4031
-0.05 1.15 0.39 -1.05 9.70 0.05 0.05 -0.01 4038
-0.03 1.12 0.41 -1.00 9.75 0.06 0.03 -0.02 4045
-0.04 1.07 0.45 -1.03 9.71 0.06 -0.00 -0.02 4052
-0.03 1.03 0.43 -1.05 9.74 0.06 -0.03 -0.03 4060
-0.05 1.04 0.39 -1.05 9.68 0.07 -0.05 -0.03 4067
-0.04 1.00 0.42 -1.01 9.73 0.07 -0.07 -0.04 4074
-0.02 0.96 0.39 -1.06 9.71 0.07 -0.09 -0.04 4081
-0.02 0.93 0.42 -1.03 9.71 0.08 -0.11 -0.04 4088
-0.03 0.94 0.39 -1.08 9.71 0.08 -0.11 -0.05 4096
-0.03 0.86 0.32 -1.12 9.81 0.08 -0.12 -0.05 4103
-0.02 0.87 0.36 -1.08 9.72 0.09 -0.13 -0.05 4110
-0.03 0.85 0.35 -1.17 9.70 0.08 -0.12 -0.06 4117
-0.00 0.78 0.31 -1.16 9.66 0.08 -0.12 -0.06 4124
0.01 0.71 0.35 -1.14 9.69 0.08 -0.12 -0.06 4131
-0.01 0.70 0.25 -1.18 9.72 0.08 -0.12 -0.07 4139
0.02 0.68 0.26 -1.15 9.74 0.08 -0.11 -0.07 4146
0.03 0.70 0.27 -1.20 9.69 0.08 -0.10 -0.08 4153
0.07 0.71 0.21 -1.17 9.75 0.09 -0.09 -0.08 4160
0.09 0.63 0.22 -1.23 9.79 0.09 -0.08 -0.08 4167
0.09 0.63 0.29 -0.62 9.75 0.10 -0.08 -0.08 4174
0.08 0.57 0.25 -1.23 9.79 0.11 -0.07 -0.08 4182
0.10 0.59 0.23 -1.25 9.80 0.12 -0.06 -0.09 4189
0.11 0.55 0.28 -1.24 9.84 0.14 -0.05 -0.09 4196
0.14 0.59 0.19 -1.30 9.82 0.15 -0.05 -0.09 4203
0.16 0.50 0.13 -1.27 9.82 0.17 -0.04 -0.10 4210
0.16 0.48 0.33 -1.43 9.88 0.19 -0.03 -0.10 4217
0.17 0.46 0.24 -1.31 9.83 0.21 -0.03 -0.11 4225
0.19 0.38 0.21 -1.40 9.73 0.22 -0.03 -0.11 4232
0.26 0.37 0.26 -1.30 9.76 0.24 -0.01 -0.12 4239
0.27 0.33 0.23 -1.38 9.84 0.25 -0.00 -0.12 4246
0.26 0.27 0.33 -1.39 9.91 0.28 0.02 -0.13 4253
0.32 0.23 0.37 -1.43 9.92 0.30 0.03 -0.13 4260
0.38 0.20 0.28 -1.44 9.88 0.34 0.03 -0.14 4268
0.40 0.21 0.28 -1.58 10.10 0.38 0.04 -0.16 4275
0.42 0.19 0.47 -1.60 10.22 0.43 0.04 -0.18 4282
0.40 0.18 0.40 -1.58 10.22 0.51 0.04 -0.20 4289
0.45 0.15 0.53 -1.74 10.30 0.61 0.03 -0.23 4296
0.49 0.14 0.36 -1.27 10.98 0.76 0.07 -0.25 4304
0.53 0.13 0.06 -1.82 11.06 0.97 0.12 -0.24 4312
0.53 0.10 0.11 -1.96 10.72 1.10 0.12 -0.23 4319
0.54 0.15 0.14 -2.21 10.60 1.20 0.14 -0.22 4326
0.58 0.13 0.18 -2.04 11.12 1.32 0.14 -0.21 4333
0.58 0.14 0.02 -2.14 10.85 1.41 0.17 -0.15 4340
0.60 0.14 0.09 -2.35 10.92 1.53 0.15 -0.13 4347
0.60 0.16 0.15 -2.44 11.19 1.65 0.12 -0.10 4355
0.62 0.17 0.11 -2.48 11.12 1.78 0.12 -0.08 4362
0.62 0.17 0.18 -2.61 11.26 1.92 0.10 -0.08 4369
0.62 0.19 0.34 -2.99 11.63 2.06 0.09 -0.07 4376
0.62 0.18 0.49 -3.01 11.25 2.25 0.10 -0.06 4383
0.62 0.18 0.45 -3.32 11.51 2.41 0.13 -0.09 4390
0.61 0.19 3.32 -3.93 12.49 2.60 0.12 -0.13 4398
0.61 0.18 0.91 -2.92 12.34 2.87 0.09 -0.17 4405
0.61 0.19 0.69 -3.66 12.73 3.09 0.05 -0.21 4412
0.62 0.16 0.74 -3.98 12.68 3.34 -0.01 -0.26 4419
0.55 0.18 0.53 -4.19 12.82 3.58 -0.10 -0.31 4426
0.51 0.10 1.48 -3.71 11.64 3.79 -0.27 -0.37 4433
0.45 0.11 1.03 -4.53 13.63 4.05 -0.26 -0.38 4441
0.36 0.10 0.72 -4.73 15.20 4.21 -0.48 -0.39 4448
0.30 0.09 1.15 -5.78 16.04 4.28 -0.61 -0.38 4455
0.24 0.06 1.43 -6.50 17.15 4.28 -0.65 -0.37 4462
0.17 0.07 2.55 -7.29 17.50 4.28 -0.59 -0.48 4469
0.11 0.06 0.94 -8.52 18.10 4.28 -0.75 -0.62 4476
0.07 0.07 -0.17 -8.74 21.78 4.28 -1.11 -0.73 4484
0.07 0.08 -0.43 -8.58 21.81 4.28 -1.35 -0.67 4491
0.04 0.06 0.82 -8.71 20.48 4.28 -1.20 -0.61 4498
0.04 0.04 0.80 -7.72 21.74 4.28 -1.22 -0.71 4505
0.00 0.07 1.91 -8.44 23.59 4.28 -1.43 -0.69 4512
0.00 0.09 4.47 -5.75 22.75 4.28 -1.56 -0.73 4519
-0.01 0.11 5.22 -2.57 19.70 4.28 -1.54 -0.79 4527
-0.01 0.11 5.50 0.73 18.47 4.28 -1.32 -0.88 4533
0.00 0.09 5.45 3.91 16.17 4.28 -1.09 -0.98 4540
-0.01 0.11 5.72 6.56 14.15 4.28 -0.87 -1.14 4547
-0.01 0.11 5.47 10.48 11.69 4.28 -0.69 -1.36 4555
-0.01 0.11 6.86 9.29 17.38 4.27 -0.27 -1.46 4561
-0.01 0.14 5.84 12.55 22.40 2.66 0.50 -1.56 4570
-0.01 0.13 3.50 14.58 19.89 0.85 1.09 -1.49 4576
-0.01 0.11 1.11 14.07 16.00 -0.85 1.00 -1.22 4584
-0.01 0.11 -1.01 11.41 13.48 -2.03 0.40 -0.88 4590
-0.01 0.11 -1.08 8.19 10.85 -2.63 -0.15 -0.59 4597
-0.01 0.12 -0.31 7.24 9.31 -3.01 -0.66 -0.37 4604
-0.01 0.12 0.87 6.64 8.01 -3.23 -0.94 -0.18 4612
-0.01 0.14 1.87 6.10 7.66 -3.48 -0.92 -0.05 4619
-0.01 0.14 2.55 5.70 8.21 -3.74 -0.68 0.07 4626
-0.01 0.14 2.62 5.35 8.95 -3.97 -0.35 0.15 4633
-0.01 0.13 2.51 5.15 8.91 -4.20 0.09 0.19 4640
-0.01 0.14 2.16 4.26 9.02 -4.28 0.49 0.21 4647
-0.01 0.15 1.58 3.17 9.00 -4.28 0.75 0.20 4655
-0.01 0.16 0.95 1.75 9.06 -4.28 0.90 0.18 4662
-0.02 0.16 0.31 0.90 9.44 -4.28 0.95 0.18 4669
-0.02 0.16 -0.44 0.52 9.93 -4.28 0.94 0.21 4676
-0.01 0.15 -0.96 -0.01 10.76 -4.28 0.89 0.25 4683
-0.02 0.17 -1.35 -1.22 11.81 -4.28 0.81 0.30 4690
-0.02 0.16 -1.67 -1.58 12.78 -4.28 0.70 0.32 4698
-0.01 0.16 -1.75 -2.57 13.66 -4.28 0.59 0.33 4706
-0.01 0.16 -1.60 -3.50 13.97 -4.28 0.54 0.32 4713
-0.02 0.17 -1.39 -4.22 14.05 -4.28 0.49 0.31 4719
-0.02 0.16 -1.10 -4.60 13.99 -4.28 0.45 0.33 4726
-0.02 0.16 -0.64 -4.96 14.08 -4.28 0.42 0.38 4733
-0.01 0.16 -0.23 -5.24 14.35 -4.28 0.39 0.48 4742
-0.00 0.15 0.17 -5.36 14.88 -4.28 0.37 0.58 4748
-0.01 0.16 0.63 -5.53 15.44 -4.28 0.37 0.72 4756
-0.01 0.15 1.05 -5.87 16.33 -4.28 0.40 0.83 4763
-0.02 0.16 1.44 -6.37 16.78 -4.28 0.44 0.90 4769
-0.02 0.16 1.69 -7.09 16.91 -4.28 0.47 0.95 4776
-0.02 0.16 2.08 -7.91 16.84 -4.26 0.49 0.95 4784
-0.01 0.16 2.59 -8.80 17.03 -4.17 0.53 0.92 4792
-0.01 0.16 2.80 -9.34 17.66 -4.01 0.63 0.84 4799
-0.02 0.15 2.67 -9.74 17.97 -3.81 0.71 0.74 4805
-0.02 0.15 2.27 -10.15 18.16 -3.67 0.79 0.59 4813
-0.02 0.15 2.04 -10.79 18.66 -3.49 0.83 0.43 4820
-0.02 0.15 1.88 -11.55 19.15 -3.33 0.88 0.23 4828
-0.01 0.15 1.69 -11.96 19.68 -3.23 0.98 -0.00 4835
-0.01 0.14 1.48 -12.33 20.16 -3.24 1.17 -0.22 4842
-0.01 0.13 1.07 -12.77 20.22 -3.41 1.49 -0.45 4849
-0.01 0.13 0.26 -14.09 19.58 -3.61 1.78 -0.66 4856
-0.01 0.13 -1.08 -14.96 18.14 -3.81 2.02 -0.79 4864
-0.01 0.14 -2.43 -16.97 15.77 -3.84 2.11 -0.88 4871
-0.01 0.13 -3.15 -19.07 12.60 -3.71 2.08 -0.92 4878
-0.01 0.11 -3.87 -21.48 10.21 -3.38 1.99 -0.95 4885
-0.01 0.09 -4.78 -24.74 8.43 -3.02 2.01 -0.99 4891
-0.01 0.10 -6.03 -27.73 6.79 -2.61 1.92 -1.02 4898
-0.01 0.10 -7.27 -31.53 4.33 -2.27 1.60 -1.02 4905
-0.01 0.10 -8.15 -35.10 1.67 -1.87 1.29 -0.92 4913
-0.01 0.11 -9.32 -37.97 0.36 -1.30 0.91 -0.67 4920
-0.01 0.11 -10.02 -37.08 0.03 -0.60 0.43 -0.38 4927
-0.01 0.11 -15.38 -42.67 7.85 1.10 -1.19 -0.12 4935
-0.01 0.15 -12.05 -32.66 -0.21 2.34 -2.55 0.15 4942
-0.02 0.15 0.19 -13.26 6.42 3.21 -2.97 0.17 4948
-0.01 0.19 1.05 3.53 13.38 3.61 -2.29 0.35 4957
-0.02 0.26 0.09 6.85 16.46 3.20 -1.41 0.61 4964
-0.03 0.38 -0.39 0.98 16.17 2.39 -1.10 0.80 4971
-0.04 0.47 -0.31 3.45 10.21 1.96 -1.00 0.92 4978
-0.04 0.50 -2.78 -0.50 8.80 2.17 -1.12 0.86 4984
-0.04 0.52 -3.85 -1.67 11.12 2.78 -0.88 0.78 4993
-0.03 0.56 -4.09 -2.36 13.56 3.13 -0.37 0.64 5000
-0.04 0.65 -3.34 -2.85 16.98 3.07 0.02 0.48 5006
-0.04 0.72 -3.75 -4.19 18.40 2.69 0.22 0.26 5014
-0.06 0.82 -1.92 -3.62 15.61 2.49 0.30 -0.02 5021
-0.05 0.94 -0.46 -2.90 14.57 2.40 0.29 -0.16 5028
-0.06 1.04 1.18 -2.31 14.31 2.16 0.23 -0.15 5036
-0.06 1.15 1.60 -1.92 13.24 1.92 0.21 -0.01 5043
-0.05 1.16 1.51 -1.96 11.85 1.78 0.30 0.12 5050
-0.04 1.12 -0.19 -3.91 18.68 1.47 -0.01 0.18 5057
-0.06 1.18 0.86 -1.77 12.55 0.41 -0.44 0.09 5064
-0.05 1.12 0.10 -2.29 11.00 0.04 -0.27 0.08 5070
-0.05 1.16 0.05 -1.42 9.72 -0.08 -0.08 0.06 5078
-0.03 1.22 0.03 -1.45 9.80 -0.14 -0.04 0.04 5085
-0.03 1.22 0.19 -1.32 9.80 -0.16 -0.05 0.02 5092
-0.07 1.23 0.15 -1.34 9.78 -0.17 -0.08 0.01 5099
-0.08 1.30 0.00 -1.42 9.82 -0.18 -0.08 -0.01 5106
-0.07 1.30 0.10 -1.30 9.82 -0.17 -0.06 -0.03 5113
-0.06 1.35 0.02 -1.31 9.84 -0.16 -0.04 -0.03 5121
-0.07 1.36 0.03 -1.24 9.82 -0.15 -0.03 -0.04 5128
-0.07 1.38 0.05 -1.21 9.83 -0.13 -0.01 -0.04 5135
-0.08 1.37 0.08 -1.13 9.78 -0.11 -0.00 -0.04 5142
-0.05 1.35 0.05 -1.12 9.87 -0.10 0.01 -0.04 5149
-0.05 1.40 0.06 -1.11 9.91 -0.08 0.02 -0.04 5156
-0.04 1.42 0.10 -1.08 9.88 -0.06 0.02 -0.03 5164
-0.04 1.42 0.09 -1.02 9.84 -0.02 0.03 -0.03 5171
-0.05 1.44 0.06 -1.03 9.77 -0.01 0.03 -0.03 5178
-0.06 1.35 0.14 -0.99 9.75 0.00 0.02 -0.03 5185
-0.04 1.34 0.14 -1.01 9.81 0.02 0.03 -0.03 5192
-0.05 1.34 0.14 -1.03 9.79 0.03 0.02 -0.03 5199
-0.03 1.32 0.20 -1.04 9.79 0.04 0.01 -0.04 5207
-0.04 1.31 0.15 -1.08 9.76 0.05 0.00 -0.03 5214
-0.04 1.26 0.16 -1.08 9.70 0.06 -0.01 -0.04 5221
-0.05 1.28 0.18 -1.06 9.72 0.06 -0.01 -0.05 5228
-0.03 1.25 0.14 -1.08 9.71 0.06 -0.02 -0.05 5235
-0.03 1.25 0.19 -1.08 9.68 0.05 -0.02 -0.06 5242
-0.03 1.23 0.16 -1.07 9.69 0.05 -0.03 -0.07 5250
-0.03 1.19 0.16 -1.10 9.71 0.04 -0.04 -0.07 5257
-0.03 1.17 0.10 -1.12 9.66 0.04 -0.03 -0.07 5264
-0.04 1.14 0.08 -1.12 9.69 0.04 -0.03 -0.08 5271
-0.02 1.15 0.10 -1.10 9.77 0.03 -0.03 -0.08 5278
-0.02 1.15 0.09 -1.12 9.69 0.03 -0.03 -0.07 5285
-0.03 1.11 0.07 -1.14 9.67 0.03 -0.02 -0.07 5293
-0.02 1.11 0.08 -1.12 9.69 0.02 -0.02 -0.08 5300
-0.01 1.10 0.07 -1.12 9.73 0.01 -0.02 -0.07 5307
-0.02 1.12 0.06 -1.10 9.71 0.01 -0.02 -0.07 5314
-0.02 1.12 0.11 -1.16 9.76 0.01 -0.02 -0.07 5321
-0.01 1.09 0.11 -1.17 9.69 0.01 -0.02 -0.07 5328
-0.01 1.08 0.10 -1.14 9.75 0.01 -0.03 -0.07 5336
0.00 1.03 0.18 -1.09 9.72 0.02 -0.03 -0.08 5343
-0.00 1.01 0.11 -1.11 9.74 0.03 -0.04 -0.08 5350
0.01 0.98 0.06 -1.10 9.68 0.03 -0.05 -0.08 5357
0.02 0.98 0.06 -1.11 9.74 0.03 -0.05 -0.08 5364
0.07 1.00 0.05 -1.13 9.76 0.04 -0.05 -0.09 5371
0.07 0.93 0.04 -1.17 9.80 0.05 -0.05 -0.09 5379
0.09 0.93 0.01 -1.14 9.77 0.07 -0.05 -0.09 5386
0.08 0.92 0.01 -1.18 9.76 0.08 -0.05 -0.08 5393
0.10 0.87 0.07 -1.13 9.79 0.10 -0.04 -0.09 5400
0.11 0.84 0.59 -1.13 9.87 0.12 -0.04 -0.09 5407
0.18 0.78 -0.11 -1.25 9.79 0.13 -0.03 -0.09 5414
0.20 0.71 0.14 -1.28 9.89 0.15 -0.02 -0.09 5422
0.24 0.64 0.08 -0.73 9.81 0.18 -0.02 -0.10 5429
0.26 0.60 -0.00 -1.31 9.83 0.21 -0.01 -0.10 5436
0.32 0.54 0.14 -1.34 9.94 0.24 -0.01 -0.11 5443
0.36 0.47 0.15 -1.27 9.94 0.28 -0.00 -0.12 5450
0.44 0.45 0.16 -1.39 9.89 0.31 0.01 -0.14 5457
0.50 0.40 0.15 -1.41 10.02 0.35 0.01 -0.17 5465
0.57 0.27 0.09 -1.52 9.98 0.40 0.02 -0.18 5472
0.61 0.24 0.14 -1.53 10.15 0.44 0.03 -0.21 5480
0.68 0.21 0.19 -1.49 10.18 0.51 0.02 -0.23 5487
0.71 0.17 0.02 -1.52 10.28 0.60 -0.01 -0.25 5494
0.73 0.17 0.05 -1.58 10.81 0.70 -0.04 -0.24 5501
0.75 0.13 0.03 -1.65 10.81 0.88 -0.05 -0.22 5509
0.79 0.12 -0.47 -1.86 12.23 1.14 0.02 -0.17 5516
0.84 0.14 0.06 -2.03 12.20 1.44 0.06 -0.14 5522
0.86 0.17 0.52 -2.11 12.38 1.70 0.00 -0.14 5530
0.88 0.16 0.71 -2.23 12.48 1.91 -0.03 -0.17 5537
0.92 0.13 0.22 -2.53 12.42 2.15 -0.07 -0.22 5544
0.92 0.13 0.17 -2.61 12.83 2.37 -0.06 -0.24 5552
0.89 0.15 0.68 -3.07 12.35 2.57 -0.09 -0.25 5559
0.89 0.17 -0.29 -3.07 12.56 2.81 -0.11 -0.24 5566
0.85 0.21 -0.04 -2.70 13.40 3.01 -0.15 -0.24 5573
0.87 0.20 0.43 -2.46 13.84 3.23 -0.11 -0.25 5580
0.83 0.22 -0.19 -2.91 13.05 3.47 -0.12 -0.27 5587
0.82 0.23 0.32 -3.34 12.98 3.66 -0.25 -0.31 5595
0.79 0.18 1.88 -3.35 11.71 3.91 -0.46 -0.35 5602
0.72 0.15 1.36 -3.66 13.32 4.11 -0.48 -0.41 5609
0.62 0.17 0.77 -3.94 15.38 4.26 -0.69 -0.50 5616
0.51 0.13 0.78 -4.87 14.97 4.28 -1.06 -0.59 5623
0.44 0.11 1.36 -5.61 16.20 4.28 -1.20 -0.66 5630
0.30 0.10 1.19 -6.54 17.85 4.28 -1.16 -0.70 5638
0.22 0.07 1.28 -6.92 18.92 4.28 -1.09 -0.76 5645
0.17 0.06 -0.26 -7.13 20.80 4.28 -1.05 -0.84 5652
0.12 0.08 -1.20 -8.51 22.37 4.28 -1.28 -0.92 5659
0.09 0.06 0.44 -9.52 23.35 4.28 -1.49 -0.87 5666
0.06 0.07 0.63 -8.83 22.86 4.28 -1.24 -0.84 5673
0.01 0.03 1.10 -7.19 22.35 4.28 -1.06 -0.93 5681
0.01 0.07 2.11 -5.82 22.81 4.28 -1.12 -0.92 5688
-0.01 0.09 3.97 -3.33 22.84 4.28 -1.31 -0.96 5694
0.02 0.09 4.44 -0.12 21.03 4.28 -1.25 -1.05 5702
-0.01 0.12 5.19 2.68 18.82 4.28 -1.01 -1.18 5708
-0.01 0.12 6.35 6.39 17.80 4.28 -0.67 -1.32 5715
-0.01 0.14 6.99 14.48 14.42 4.28 -0.47 -1.55 5724
-0.01 0.14 9.13 17.04 10.30 4.20 -0.00 -1.73 5730
-0.01 0.13 6.88 14.96 29.49 2.21 1.27 -1.83 5738
-0.00 0.13 2.65 15.95 23.51 -0.52 1.47 -1.62 5745
-0.01 0.14 -0.04 14.08 16.55 -2.02 1.13 -1.14 5752
-0.01 0.13 -0.15 10.29 11.28 -2.66 0.51 -0.75 5760
-0.01 0.13 0.91 7.84 8.35 -2.86 -0.07 -0.45 5766
-0.01 0.14 2.43 6.34 5.97 -2.84 -0.29 -0.13 5773
-0.01 0.14 3.46 5.63 5.37 -2.78 -0.26 0.13 5780
-0.01 0.13 3.73 5.01 6.26 -2.80 -0.00 0.42 5787
-0.01 0.13 3.16 5.46 7.14 -2.96 0.30 0.66 5794
-0.01 0.13 2.17 5.76 8.23 -3.26 0.60 0.82 5801
-0.01 0.14 0.70 5.58 9.34 -3.59 0.81 0.96 5809
-0.01 0.14 -0.57 5.21 9.79 -3.93 0.89 1.02 5816
-0.02 0.15 -1.46 4.63 9.96 -4.17 0.88 0.99 5823
-0.02 0.15 -1.86 3.59 10.52 -4.25 0.89 0.87 5830
-0.02 0.16 -2.37 2.55 10.77 -4.28 0.95 0.73 5837
-0.01 0.14 -2.76 1.51 11.01 -4.28 1.05 0.53 5844
-0.01 0.14 -3.21 0.48 11.46 -4.28 1.18 0.29 5852
-0.02 0.16 -3.88 -0.57 11.97 -4.28 1.32 0.09 5859
-0.01 0.18 -4.94 -1.72 12.59 -4.28 1.42 -0.12 5867
-0.02 0.16 -5.75 -2.57 13.22 -4.28 1.43 -0.30 5873
-0.01 0.15 -6.43 -3.33 13.69 -4.28 1.37 -0.47 5880
-0.01 0.13 -6.68 -4.28 13.85 -4.28 1.24 -0.60 5888
-0.02 0.15 -6.35 -3.83 13.90 -4.28 1.07 -0.67 5895
-0.01 0.15 -5.52 -3.82 14.15 -4.28 0.94 -0.68 5903
0.00 0.15 -4.83 -3.80 14.63 -4.28 0.89 -0.63 5910
-0.01 0.14 -4.15 -3.80 15.28 -4.28 0.91 -0.54 5917
-0.01 0.13 -3.78 -4.13 16.36 -4.28 0.94 -0.40 5924
-0.01 0.14 -3.71 -4.82 17.06 -4.28 0.99 -0.26 5932
-0.02 0.16 -3.53 -5.67 17.41 -4.28 0.99 -0.08 5938
-0.01 0.16 -3.05 -6.50 17.28 -4.28 0.93 0.09 5946
0.00 0.14 -2.01 -7.53 17.29 -4.23 0.85 0.21 5953
-0.01 0.12 -0.89 -8.38 18.16 -4.03 0.86 0.35 5960
-0.01 0.14 -0.11 -8.97 19.38 -3.74 0.95 0.46 5966
-0.02 0.16 -0.04 -9.32 20.51 -3.59 1.08 0.56 5974
-0.02 0.15 -0.19 -9.74 21.80 -3.53 1.17 0.64 5981
-0.02 0.18 -0.62 -10.13 22.86 -3.63 1.22 0.74 5989
-0.01 0.13 -1.23 -10.84 23.32 -3.81 1.20 0.86 5996
-0.01 0.12 -1.83 -11.69 22.95 -4.07 1.10 0.94 6003
-0.01 0.10 -2.31 -12.82 21.91 -4.24 1.01 1.04 6010
-0.01 0.12 -2.77 -14.70 20.08 -4.27 0.95 1.12 6018
-0.01 0.11 -3.08 -15.95 17.95 -4.28 0.89 1.17 6025
-0.01 0.12 -3.31 -18.29 15.23 -4.25 0.81 1.22 6032
-0.01 0.12 -3.48 -20.36 13.31 -4.11 0.72 1.23 6039
-0.01 0.12 -3.35 -23.60 11.08 -3.75 0.59 1.14 6046
-0.01 0.12 -2.59 -27.45 8.31 -3.40 0.47 0.82 6052
-0.01 0.11 -1.28 -31.64 4.80 -2.97 0.48 0.35 6060
-0.01 0.12 -1.09 -36.97 0.60 -2.58 0.93 -0.26 6067
-0.01 0.12 -3.66 -40.27 -1.68 -1.95 1.54 -0.70 6075
-0.01 0.13 -8.60 -38.83 -1.27 -1.02 1.91 -0.77 6082
-0.01 0.11 -11.89 -33.73 0.68 -0.14 1.47 -0.74 6089
-0.01 0.10 -12.83 -27.85 3.50 0.73 0.21 -0.63 6096
-0.01 0.11 -3.39 -27.95 -2.48 1.39 -1.34 -0.53 6103
-0.01 0.15 0.59 -24.07 2.53 2.88 -1.51 -1.03 6110
-0.02 0.17 1.98 -5.65 4.72 3.47 -0.43 -1.28 6117
-0.02 0.24 -0.63 3.89 13.96 3.55 -0.79 -1.42 6125
-0.03 0.38 1.92 1.32 15.62 3.01 -1.14 -1.44 6132
-0.04 0.43 6.88 0.46 13.17 2.45 -1.04 -1.14 6138
-0.04 0.47 6.55 -0.01 9.63 2.33 -0.88 -0.64 6146
-0.04 0.55 4.43 -1.01 9.78 2.69 -1.01 -0.28 6153
-0.04 0.59 3.99 -2.19 13.84 3.11 -0.83 0.14 6161
-0.05 0.60 2.44 -1.85 16.40 3.30 -0.16 0.53 6168
-0.05 0.73 -0.98 -2.67 17.58 2.99 0.16 0.74 6175
-0.06 0.82 -4.24 -4.17 17.15 2.75 0.19 0.58 6182
-0.06 0.95 -4.09 -3.51 15.04 2.65 0.25 0.29 6190
-0.06 1.05 -2.27 -2.76 15.01 2.48 0.37 0.00 6197
-0.06 1.16 -0.07 -2.22 13.50 2.24 0.39 -0.16 6204
-0.06 1.16 1.46 -2.04 12.84 2.07 0.41 -0.09 6211
-0.07 1.25 2.02 -2.09 12.36 1.94 0.56 0.10 6218
-0.06 1.22 0.69 -2.54 16.63 1.75 0.52 0.22 6225
-0.06 1.23 -0.57 -2.83 15.38 0.55 -0.23 0.09 6233
-0.04 1.21 0.47 -2.09 11.32 0.02 -0.27 0.01 6239
-0.06 1.27 0.49 -2.04 10.35 -0.10 -0.08 0.02 6246
-0.04 1.26 0.34 -1.37 9.95 -0.14 -0.01 0.02 6253
-0.05 1.31 0.16 -1.40 9.20 -0.17 0.01 0.01 6260
-0.02 1.27 0.20 -1.42 9.80 -0.19 0.02 0.01 6267
-0.07 1.35 0.20 -1.45 9.92 -0.19 0.02 -0.00 6275
-0.06 1.36 0.21 -1.24 9.92 -0.18 0.03 -0.01 6282
-0.08 1.41 0.15 -1.39 9.84 -0.16 0.05 -0.01 6289
-0.07 1.38 0.31 -1.23 9.85 -0.14 0.05 -0.01 6296
-0.07 1.42 0.34 -1.21 9.92 -0.13 0.05 -0.01 6303
-0.09 1.39 0.23 -1.18 9.76 -0.12 0.05 -0.02 6310
-0.08 1.44 0.24 -1.10 9.75 -0.10 0.05 -0.02 6318
-0.07 1.45 0.23 -1.10 9.81 -0.08 0.06 -0.02 6325
-0.07 1.45 0.20 -1.09 9.82 -0.07 0.06 -0.02 6332
-0.08 1.50 0.19 -1.07 9.78 -0.05 0.08 -0.02 6339
-0.09 1.44 0.17 -1.03 9.76 -0.04 0.10 -0.02 6346
-0.07 1.38 0.23 -1.02 9.76 -0.03 0.12 -0.02 6353
-0.06 1.39 0.25 -1.04 9.78 -0.02 0.14 -0.01 6361
-0.05 1.38 0.23 -1.04 9.80 -0.01 0.15 -0.01 6368
-0.07 1.34 0.26 -1.02 9.77 0.00 0.15 -0.01 6375
-0.06 1.32 0.29 -1.07 9.75 0.01 0.16 -0.00 6382
-0.08 1.30 0.35 -1.04 9.73 0.03 0.16 -0.01 6389
-0.08 1.29 0.40 -0.99 9.69 0.03 0.14 -0.00 6396
-0.06 1.24 0.37 -1.07 9.71 0.03 0.13 -0.01 6404
-0.06 1.24 0.44 -1.03 9.69 0.03 0.12 -0.01 6411
-0.07 1.22 0.44 -1.01 9.66 0.03 0.10 -0.02 6418
-0.06 1.14 0.43 -1.03 9.70 0.03 0.08 -0.02 6425
-0.07 1.14 0.40 -1.05 9.68 0.02 0.06 -0.02 6432
-0.06 1.09 0.39 -1.04 9.64 0.02 0.04 -0.03 6439
-0.06 1.08 0.42 -1.05 9.73 0.02 0.03 -0.03 6447
-0.04 1.06 0.36 -1.02 9.71 0.02 0.01 -0.03 6454
-0.05 1.04 0.38 -1.04 9.70 0.03 -0.01 -0.03 6461
-0.04 1.03 0.38 -1.07 9.71 0.04 -0.03 -0.03 6468
-0.04 1.02 0.34 -1.11 9.71 0.03 -0.03 -0.03 6475
-0.04 1.03 0.35 -1.05 9.69 0.04 -0.05 -0.04 6482
-0.03 0.98 0.41 -1.09 9.68 0.04 -0.06 -0.04 6490
-0.03 0.96 0.36 -1.09 9.74 0.04 -0.07 -0.05 6497
-0.03 0.95 0.33 -1.10 9.77 0.05 -0.09 -0.05 6504
-0.03 0.91 0.36 -1.12 9.75 0.05 -0.10 -0.05 6511
-0.04 0.89 0.37 -1.12 9.76 0.06 -0.11 -0.06 6518
-0.02 0.86 0.32 -1.11 9.70 0.06 -0.12 -0.06 6525
-0.01 0.84 0.33 -1.18 9.73 0.07 -0.12 -0.06 6533
-0.01 0.85 0.28 -1.16 9.72 0.08 -0.12 -0.07 6540
0.00 0.76 0.31 -1.16 9.77 0.09 -0.12 -0.07 6547
0.02 0.71 0.32 -1.09 9.74 0.11 -0.12 -0.07 6554
0.05 0.71 0.31 -1.15 9.72 0.12 -0.13 -0.08 6561
0.09 0.66 0.29 -1.24 9.76 0.13 -0.13 -0.08 6568
0.09 0.62 0.28 -1.24 9.74 0.14 -0.13 -0.09 6576
0.10 0.68 0.21 -1.24 9.80 0.15 -0.11 -0.09 6583
0.11 0.61 0.23 -1.26 9.83 0.16 -0.10 -0.09 6590
0.13 0.60 0.23 -1.27 9.81 0.18 -0.10 -0.09 6597
0.18 0.50 0.33 -1.31 9.83 0.19 -0.09 -0.10 6604
0.22 0.44 0.29 -1.32 9.29 0.22 -0.08 -0.11 6611
0.28 0.42 0.33 -1.36 9.82 0.23 -0.08 -0.12 6619
0.34 0.38 0.32 -1.35 9.81 0.27 -0.08 -0.13 6626
0.36 0.33 0.25 -1.42 9.86 0.30 -0.07 -0.14 6633
0.37 0.31 0.38 -1.59 9.92 0.34 -0.05 -0.16 6640
0.48 0.23 0.21 -1.44 10.02 0.37 -0.03 -0.17 6648
0.50 0.23 0.31 -1.54 10.04 0.42 -0.02 -0.19 6656
0.52 0.18 0.26 -1.54 10.17 0.46 -0.01 -0.22 6663
0.54 0.16 0.64 -1.58 10.44 0.54 -0.02 -0.23 6670
0.56 0.14 0.37 -1.80 10.53 0.63 -0.04 -0.26 6677
0.59 0.17 0.47 -1.88 10.66 0.76 -0.04 -0.28 6684
0.65 0.11 0.10 -2.01 11.48 0.95 0.03 -0.30 6690
0.74 0.11 -1.78 -1.62 11.38 1.20 -0.02 -0.25 6699
0.76 0.14 0.08 -2.21 11.09 1.38 -0.05 -0.21 6706
0.85 0.17 -0.31 -2.05 11.70 1.52 -0.05 -0.20 6713
0.87 0.16 -0.08 -2.15 11.90 1.65 -0.05 -0.16 6720
0.86 0.17 0.14 -2.38 11.88 1.83 -0.06 -0.15 6727
0.88 0.20 0.18 -2.56 12.15 2.00 -0.08 -0.16 6734
0.88 0.17 0.02 -3.02 12.25 2.23 -0.11 -0.17 6742
0.87 0.17 0.77 -2.69 12.40 2.46 -0.14 -0.20 6749
0.88 0.24 0.53 -2.85 13.16 2.65 -0.17 -0.23 6756
0.88 0.18 0.11 -2.99 13.00 2.90 -0.14 -0.26 6763
0.88 0.18 0.50 -3.15 13.25 3.09 -0.15 -0.28 6770
0.87 0.23 0.28 -3.26 12.91 3.32 -0.20 -0.30 6777
0.87 0.20 1.12 -3.02 12.07 3.54 -0.26 -0.34 6785
0.79 0.20 -0.12 -3.77 13.68 3.72 -0.27 -0.39 6792
0.76 0.12 0.83 -3.85 13.06 4.05 -0.24 -0.41 6799
0.65 0.10 1.05 -4.21 14.84 4.22 -0.52 -0.45 6806
0.50 0.08 0.89 -5.21 15.11 4.28 -0.81 -0.50 6813
0.44 0.09 0.96 -5.54 15.91 4.28 -0.86 -0.54 6820
0.31 0.08 1.00 -6.41 15.51 4.28 -0.81 -0.54 6828
0.31 0.08 1.14 -6.28 17.19 4.28 -0.71 -0.55 6835
0.18 0.07 -0.32 -7.13 18.01 4.28 -0.62 -0.63 6842
0.14 0.06 -2.86 -9.18 20.59 4.28 -0.78 -0.69 6849
0.04 0.06 -2.79 -9.11 21.56 4.28 -1.10 -0.59 6856
0.02 0.09 -2.06 -9.83 22.74 4.28 -1.09 -0.43 6863
0.04 0.06 0.10 -9.17 22.94 4.28 -1.19 -0.48 6871
0.01 0.07 1.20 -7.83 24.21 4.28 -1.37 -0.45 6878
0.01 0.04 3.40 -4.57 22.09 4.28 -1.43 -0.50 6884
-0.00 0.10 4.09 -1.52 20.17 4.28 -1.36 -0.53 6892
0.00 0.10 4.48 1.82 18.48 4.28 -1.14 -0.61 6898
-0.01 0.12 3.94 3.92 16.57 4.28 -0.95 -0.69 6906
-0.02 0.16 3.88 7.69 15.65 4.28 -0.79 -0.80 6913
-0.01 0.14 4.57 13.32 11.94 4.28 -0.75 -0.98 6921
-0.01 0.10 5.82 12.05 16.96 3.84 -0.22 -1.09 6927
-0.01 0.11 3.86 13.76 25.44 1.64 0.45 -1.19 6935
-0.01 0.11 0.79 13.59 19.84 -0.64 0.62 -1.00 6941
-0.01 0.12 -1.02 11.18 15.69 -2.03 0.33 -0.74 6949
-0.01 0.14 -1.15 8.30 11.27 -2.63 -0.17 -0.52 6956
-0.01 0.15 -0.43 6.25 8.65 -2.86 -0.56 -0.36 6963
-0.01 0.14 0.57 5.12 6.39 -2.89 -0.76 -0.22 6970
-0.01 0.14 1.46 4.67 5.94 -2.89 -0.80 -0.11 6977
-0.01 0.14 2.24 4.15 6.41 -2.94 -0.69 0.02 6984
0.00 0.14 2.37 4.40 6.94 -3.07 -0.40 0.14 6991
-0.01 0.14 2.11 4.83 7.75 -3.31 -0.18 0.23 6999
-0.01 0.14 1.28 5.00 8.56 -3.59 0.02 0.31 7006
-0.01 0.14 0.72 4.80 9.16 -3.86 0.12 0.37 7013
-0.01 0.15 0.27 4.21 9.50 -4.11 0.17 0.40 7020
-0.01 0.14 0.11 3.37 9.72 -4.23 0.18 0.38 7027
-0.01 0.15 0.10 2.62 9.85 -4.28 0.19 0.32 7034
-0.01 0.14 0.01 1.74 10.29 -4.28 0.28 0.23 7042
-0.01 0.14 -0.17 0.97 10.67 -4.28 0.38 0.13 7049
-0.01 0.13 -0.46 0.01 11.11 -4.28 0.53 0.03 7056
-0.01 0.13 -1.00 -1.11 11.74 -4.28 0.64 -0.10 7063
-0.01 0.14 -1.49 -2.12 12.33 -4.28 0.70 -0.22 7070
-0.01 0.13 -1.96 -2.94 12.94 -4.28 0.73 -0.35 7077
-0.01 0.12 -2.11 -3.45 13.44 -4.28 0.72 -0.47 7085
-0.01 0.11 -1.97 -3.58 13.87 -4.28 0.70 -0.54 7092
-0.01 0.13 -1.64 -3.67 14.04 -4.28 0.69 -0.57 7099
-0.01 0.13 -1.34 -3.69 14.50 -4.28 0.70 -0.55 7107
-0.00 0.13 -1.00 -3.85 15.03 -4.28 0.74 -0.49 7114
-0.01 0.13 -0.78 -4.11 15.90 -4.28 0.79 -0.38 7121
-0.01 0.14 -0.66 -4.33 16.74 -4.28 0.86 -0.26 7129
-0.01 0.12 -0.58 -4.85 17.71 -4.28 0.91 -0.10 7135
-0.01 0.13 -0.62 -5.36 18.20 -4.28 0.92 0.04 7142
-0.00 0.15 -0.48 -6.26 18.28 -4.28 0.93 0.21 7150
-0.01 0.13 -0.04 -7.22 18.36 -4.28 0.96 0.36 7157
-0.01 0.11 0.10 -8.17 18.88 -4.19 1.02 0.47 7163
-0.01 0.12 -0.17 -9.03 19.52 -3.96 1.11 0.56 7171
-0.01 0.11 -0.52 -9.72 19.96 -3.72 1.14 0.61 7178
-0.01 0.11 -1.10 -10.35 20.76 -3.49 1.16 0.60 7186
-0.01 0.11 -1.40 -10.77 22.00 -3.40 1.22 0.56 7193
-0.00 0.11 -1.39 -11.01 22.97 -3.50 1.31 0.50 7200
-0.01 0.11 -1.82 -11.72 22.94 -3.79 1.43 0.40 7207
-0.01 0.10 -2.21 -12.83 22.01 -4.09 1.47 0.30 7215
-0.01 0.11 -2.83 -14.45 20.70 -4.23 1.42 0.23 7222
-0.01 0.11 -3.13 -16.62 18.37 -4.26 1.31 0.19 7229
-0.01 0.11 -3.05 -18.62 15.47 -4.21 1.19 0.21 7236
-0.01 0.10 -2.93 -20.77 12.84 -3.98 1.05 0.28 7243
-0.01 0.10 -3.16 -23.34 10.47 -3.63 1.05 0.33 7250
-0.01 0.10 -3.55 -26.87 8.61 -3.20 1.14 0.29 7257
-0.01 0.10 -4.10 -32.13 5.36 -2.82 1.16 0.11 7264
-0.01 0.11 -5.16 -38.46 0.98 -2.53 1.23 -0.04 7271
-0.01 0.12 -7.13 -42.31 -1.59 -1.99 1.44 -0.10 7278
-0.01 0.12 -9.78 -41.93 -2.16 -1.21 1.38 -0.05 7285
-0.01 0.12 -11.39 -37.47 -1.00 -0.03 0.84 -0.02 7293
-0.01 0.10 -11.12 -30.12 1.93 1.02 -0.30 -0.02 7301
-0.01 0.12 0.84 -35.56 7.20 1.89 -1.44 -0.29 7307
-0.01 0.14 1.30 -17.39 5.54 3.46 -1.02 -0.98 7314
-0.01 0.18 1.37 2.17 7.06 3.80 -0.65 -1.13 7321
-0.01 0.23 -0.55 4.57 15.64 3.55 -1.12 -1.28 7329
-0.03 0.34 3.12 -0.46 16.63 2.87 -1.35 -1.22 7336
-0.05 0.46 7.36 1.59 10.55 2.50 -1.13 -0.78 7343
-0.04 0.47 6.01 -0.23 9.21 2.47 -0.92 -0.30 7350
-0.04 0.62 3.84 -1.67 11.40 2.87 -0.85 0.16 7358
-0.03 0.56 3.69 -1.88 14.19 3.24 -0.44 0.62 7365
-0.04 0.64 0.70 -2.18 16.55 3.33 0.12 0.91 7372
-0.05 0.69 -2.33 -3.30 18.07 3.02 0.21 0.95 7379
-0.06 0.84 -4.97 -4.63 16.02 2.68 0.20 0.73 7387
-0.05 0.93 -4.56 -3.78 14.66 2.61 0.21 0.29 7394
-0.06 1.11 -2.06 -2.70 14.99 2.45 0.17 -0.03 7401
-0.04 1.13 0.72 -2.53 14.33 2.13 0.15 -0.12 7408
-0.03 1.14 1.99 -2.23 12.87 1.93 0.20 0.01 7415
-0.04 1.19 1.62 -2.24 12.68 1.77 0.28 0.18 7422
-0.07 1.19 -0.94 -3.71 17.86 0.86 -0.26 0.22 7430
-0.04 1.20 0.18 -2.55 12.57 0.11 -0.36 0.11 7437
-0.05 1.23 -0.68 -2.06 10.21 -0.15 -0.05 0.04 7444
-0.05 1.20 0.36 -1.52 9.96 -0.13 -0.03 0.01 7450
-0.06 1.24 0.46 -1.34 9.76 -0.14 -0.04 0.03 7457
-0.07 1.29 0.06 -1.50 9.83 -0.15 -0.06 0.01 7464
-0.08 1.31 0.57 -1.58 9.77 -0.15 -0.05 -0.01 7472
-0.07 1.28 0.14 -1.54 9.74 -0.15 -0.05 -0.02 7479
-0.06 1.35 0.15 -1.35 9.70 -0.14 -0.03 -0.03 7486
-0.07 1.36 0.08 -1.41 9.81 -0.13 -0.02 -0.04 7493
-0.07 1.35 0.06 -1.31 9.76 -0.13 -0.01 -0.04 7500
-0.05 1.37 0.06 -1.23 9.89 -0.13 -0.00 -0.05 7507
-0.08 1.36 0.04 -1.24 9.86 -0.11 0.01 -0.05 7515
-0.07 1.40 0.03 -1.19 9.82 -0.10 0.02 -0.04 7522
-0.06 1.43 0.06 -1.13 9.89 -0.08 0.02 -0.04 7529
-0.07 1.44 0.06 -1.16 9.81 -0.05 0.02 -0.04 7536
-0.07 1.44 0.08 -1.10 9.82 -0.03 0.02 -0.04 7543
-0.07 1.45 0.11 -1.11 9.80 -0.00 0.01 -0.04 7550
-0.08 1.44 0.12 -1.12 9.81 0.02 -0.00 -0.04 7558
-0.06 1.37 0.11 -1.15 9.76 0.04 -0.01 -0.05 7565
-0.05 1.34 0.12 -1.16 9.77 0.05 -0.02 -0.05 7572
-0.03 1.31 0.15 -1.15 9.73 0.06 -0.02 -0.05 7579
-0.04 1.30 0.12 -1.18 9.77 0.06 -0.03 -0.05 7586
-0.04 1.26 0.14 -1.13 9.68 0.07 -0.03 -0.06 7593
-0.03 1.19 0.15 -1.13 9.73 0.07 -0.03 -0.06 7601
0.00 1.19 0.12 -1.16 9.69 0.07 -0.04 -0.07 7608
0.01 1.18 0.12 -1.16 9.71 0.06 -0.04 -0.07 7615
-0.02 1.16 0.14 -1.15 9.75 0.06 -0.04 -0.08 7622
0.01 1.10 0.07 -1.21 9.68 0.06 -0.04 -0.08 7629
0.00 1.05 0.05 -1.17 9.75 0.06 -0.04 -0.08 7636
0.04 1.04 0.07 -1.18 9.71 0.06 -0.04 -0.08 7644
0.03 1.04 0.07 -1.23 9.72 0.06 -0.04 -0.08 7651
0.02 0.97 0.06 -1.81 9.73 0.06 -0.03 -0.08 7658
0.03 0.91 0.06 -1.24 9.80 0.07 -0.04 -0.08 7665
0.05 0.91 0.09 -1.24 9.76 0.08 -0.04 -0.08 7672
0.05 0.86 0.11 -1.25 9.73 0.08 -0.04 -0.09 7680
0.09 0.87 0.06 -1.16 9.72 0.09 -0.05 -0.09 7687
0.13 0.83 0.10 -1.31 9.74 0.10 -0.05 -0.09 7694
0.16 0.77 0.11 -1.30 9.79 0.10 -0.05 -0.09 7701
0.16 0.77 0.08 -1.34 9.80 0.11 -0.05 -0.09 7708
0.21 0.70 0.03 -1.27 9.77 0.12 -0.05 -0.10 7715
0.21 0.65 0.08 -1.32 9.82 0.13 -0.05 -0.10 7723
0.27 0.68 0.02 -1.39 9.89 0.15 -0.04 -0.10 7730
0.31 0.62 0.06 -1.39 9.82 0.16 -0.04 -0.10 7737
0.34 0.54 0.01 -1.32 9.83 0.18 -0.05 -0.11 7744
0.38 0.48 0.04 -1.41 9.85 0.20 -0.05 -0.11 7751
0.42 0.46 0.09 -1.49 9.90 0.21 -0.05 -0.12 7758
0.45 0.39 0.07 -1.60 9.81 0.23 -0.05 -0.14 7766
0.46 0.37 0.15 -1.63 9.85 0.25 -0.05 -0.15 7773
0.48 0.36 0.17 -1.55 9.80 0.28 -0.06 -0.16 7780
0.51 0.30 -0.04 -1.74 9.86 0.31 -0.06 -0.18 7787
0.53 0.27 0.36 -1.69 10.00 0.35 -0.06 -0.20 7794
0.56 0.26 0.28 -1.82 10.06 0.39 -0.08 -0.22 7802
0.61 0.20 0.06 -1.72 10.03 0.46 -0.10 -0.24 7810
0.63 0.16 0.24 -1.77 10.24 0.53 -0.13 -0.26 7817
0.69 0.17 0.29 -1.81 10.37 0.60 -0.14 -0.28 7824
0.70 0.16 0.18 -1.86 10.37 0.68 -0.15 -0.30 7831
0.73 0.13 0.82 -1.66 10.27 0.77 -0.09 -0.33 7838
0.77 0.11 -0.27 -1.93 11.27 0.90 0.04 -0.35 7845
0.83 0.11 -1.44 -1.63 11.02 1.10 -0.01 -0.27 7853
0.84 0.15 -0.08 -1.92 10.74 1.19 0.01 -0.21 7860
0.86 0.14 -1.22 -2.04 11.40 1.28 0.05 -0.18 7867
0.88 0.15 -0.79 -2.26 11.36 1.43 0.02 -0.10 7874
0.84 0.12 -0.47 -2.38 11.24 1.54 0.02 -0.05 7881
0.87 0.14 -0.43 -2.61 11.53 1.71 0.01 -0.02 7888
0.89 0.19 -0.01 -2.70 11.77 1.87 -0.01 -0.00 7895
0.91 0.19 0.17 -2.85 12.07 2.08 -0.03 -0.02 7903
0.89 0.21 0.84 -3.13 13.81 2.29 0.00 -0.07 7910
0.91 0.22 0.20 -3.33 12.32 2.48 -0.03 -0.11 7917
0.91 0.17 -1.14 -4.91 14.59 2.68 -0.07 -0.15 7924
0.87 0.23 0.30 -3.47 12.24 2.89 -0.05 -0.20 7931
0.87 0.18 0.72 -2.50 12.43 3.11 -0.10 -0.23 7939
0.86 0.22 0.07 -3.59 12.29 3.37 -0.16 -0.25 7946
0.80 0.18 -0.35 -3.85 13.51 3.58 -0.35 -0.30 7953
0.75 0.17 0.46 -3.62 13.30 3.86 -0.20 -0.33 7960
0.61 0.14 0.29 -4.18 13.59 4.08 -0.37 -0.38 7967
0.50 0.09 0.90 -4.70 13.38 4.24 -0.60 -0.43 7973
0.42 0.10 1.32 -6.04 15.41 4.28 -0.76 -0.48 7982
0.35 0.08 1.15 -6.54 16.89 4.28 -0.72 -0.50 7989
0.31 0.08 1.39 -7.19 17.19 4.28 -0.60 -0.51 7996
0.16 0.08 0.29 -7.45 17.64 4.28 -0.54 -0.61 8003
0.13 0.06 -1.01 -8.35 19.84 4.28 -0.65 -0.73 8010
0.07 0.05 -1.41 -9.02 21.20 4.28 -0.94 -0.68 8016
0.06 0.07 -0.61 -9.25 21.01 4.28 -0.89 -0.56 8025
0.03 0.07 -0.38 -8.46 20.52 4.28 -0.69 -0.59 8032
0.04 0.05 -0.24 -8.44 22.47 4.28 -0.91 -0.63 8039
0.00 0.05 0.64 -6.93 23.88 4.28 -1.15 -0.67 8045
-0.01 0.06 3.19 -4.39 22.02 4.28 -1.38 -0.69 8052
-0.01 0.06 4.21 -0.55 19.69 4.28 -1.35 -0.77 8059
-0.01 0.11 5.09 1.91 19.57 4.28 -1.15 -0.83 8067
-0.02 0.15 5.50 4.76 17.92 4.28 -0.88 -0.94 8074
-0.01 0.13 4.90 12.87 15.97 4.28 -0.65 -1.15 8082
-0.01 0.09 7.52 14.39 10.75 4.11 -0.16 -1.33 8089
-0.01 0.15 6.27 13.66 26.13 2.28 0.82 -1.53 8096
-0.01 0.15 2.69 13.36 23.14 -0.15 1.16 -1.47 8103
-0.01 0.14 -0.87 12.09 17.34 -1.56 0.96 -1.19 8111
-0.01 0.14 -1.12 9.29 12.22 -2.19 0.44 -0.97 8117
-0.01 0.13 -0.37 7.28 9.48 -2.49 -0.16 -0.79 8124
-0.01 0.11 0.65 6.00 7.48 -2.59 -0.48 -0.58 8131
-0.01 0.13 1.51 5.35 6.71 -2.69 -0.58 -0.39 8138
-0.01 0.13 1.99 4.78 6.71 -2.79 -0.52 -0.16 8145
-0.01 0.13 2.28 4.58 7.24 -2.91 -0.35 0.09 8153
-0.01 0.13 2.25 4.70 7.69 -3.11 -0.19 0.30 8160
-0.01 0.13 1.87 4.75 8.23 -3.37 -0.02 0.50 8167
-0.01 0.13 1.50 4.60 8.79 -3.59 0.08 0.66 8174
-0.01 0.14 1.15 4.38 8.97 -3.84 0.14 0.73 8181
-0.01 0.15 0.93 3.91 9.25 -4.02 0.18 0.77 8188
-0.01 0.14 0.83 3.34 9.50 -4.17 0.26 0.74 8196
-0.01 0.14 0.72 2.50 9.88 -4.25 0.40 0.65 8203
-0.01 0.14 0.32 1.52 10.34 -4.28 0.58 0.52 8210
-0.01 0.13 -0.34 0.33 10.75 -4.28 0.76 0.39 8217
-0.01 0.14 -1.26 -0.79 11.47 -4.28 0.85 0.24 8224
-0.01 0.14 -1.80 -1.68 12.00 -4.28 0.87 0.10 8231
-0.01 0.14 -2.19 -2.62 12.64 -4.28 0.83 -0.05 8240
-0.01 0.13 -2.28 -3.37 13.09 -4.28 0.80 -0.19 8247
-0.01 0.13 -2.34 -3.65 13.38 -4.28 0.77 -0.28 8253
-0.01 0.12 -1.99 -3.92 13.68 -4.28 0.74 -0.35 8260
-0.01 0.14 -1.60 -4.08 14.16 -4.28 0.74 -0.38 8268
-0.01 0.15 -1.10 -4.37 14.42 -4.28 0.78 -0.35 8275
0.01 0.13 -0.69 -4.38 14.91 -4.28 0.87 -0.28 8283
-0.01 0.14 -0.51 -4.49 15.65 -4.28 0.91 -0.18 8289
-0.01 0.13 -0.37 -4.63 16.69 -4.28 0.99 -0.03 8296
-0.01 0.13 -0.45 -4.77 17.50 -4.28 1.03 0.16 8303
-0.00 0.13 -0.47 -5.01 18.07 -4.28 1.01 0.33 8311
-0.00 0.13 -0.31 -5.40 18.89 -4.28 0.97 0.50 8318
-0.01 0.12 -0.26 -5.88 19.65 -4.28 0.99 0.65 8326
-0.01 0.11 -0.59 -6.61 20.55 -4.27 1.05 0.78 8333
-0.01 0.10 -1.06 -7.56 21.12 -4.24 1.10 0.85 8340
-0.01 0.12 -1.69 -8.55 21.00 -4.19 1.10 0.88 8346
-0.01 0.11 -2.20 -9.92 20.79 -4.07 1.06 0.85 8353
-0.01 0.12 -2.44 -11.21 19.88 -3.80 1.02 0.79 8361
-0.01 0.13 -1.35 -21.90 59.46 -2.22 2.05 1.16 8369
-0.01 0.14 -3.40 -9.93 15.83 -2.29 1.23 0.94 8375
-0.01 0.13 -6.40 -18.33 21.10 -2.04 0.73 0.80 8383
-0.01 0.14 -4.64 -15.58 12.75 -2.46 0.05 0.55 8390
-0.01 0.13 -3.59 -19.98 24.71 -3.10 -0.12 0.45 8397
-0.01 0.14 -3.31 -18.22 22.99 -3.78 0.10 0.41 8404
-0.01 0.12 -2.26 -19.47 15.67 -4.23 0.40 0.37 8412
-0.01 0.12 -2.90 -24.64 12.15 -4.24 0.86 0.37 8419
-0.01 0.11 -4.73 -31.65 5.04 -4.07 1.09 0.29 8425
-0.01 0.12 -6.98 -38.40 -0.74 -3.50 1.08 0.12 8432
-0.01 0.13 -10.78 -45.65 -1.80 -2.65 1.02 0.05 8440
-0.01 0.12 -15.71 -50.84 1.39 -1.25 0.66 0.02 8448
-0.01 0.14 -13.69 -49.67 -7.77 0.31 0.00 -0.08 8455
-0.01 0.15 -8.77 -44.34 -4.38 2.17 -0.63 -0.54 8461
-0.01 0.14 -1.18 -33.10 0.02 3.37 -0.36 -1.36 8468
-0.02 0.20 -4.37 -6.86 8.34 4.16 0.21 -1.87 8475
-0.03 0.33 -2.61 4.10 16.31 4.05 -0.04 -2.24 8483
-0.02 0.40 3.49 0.31 19.29 3.01 -0.18 -2.29 8491
-0.05 0.51 11.21 0.84 14.50 2.19 -0.17 -1.92 8498
-0.04 0.57 9.31 -2.88 13.22 2.22 -0.25 -1.32 8505
-0.04 0.58 10.91 -3.19 14.53 2.84 -0.10 -0.65 8512
-0.04 0.71 8.63 -3.00 14.87 3.19 0.29 0.26 8519
-0.05 0.83 2.41 -3.37 17.91 3.04 0.49 0.81 8526
-0.05 0.93 -3.62 -3.85 17.63 2.55 0.23 0.79 8534
-0.06 1.06 -6.01 -3.19 14.57 2.34 0.19 0.37 8541
-0.07 1.18 -3.74 -2.53 13.29 2.19 0.25 -0.06 8548
-0.06 1.20 0.34 -2.06 12.77 2.03 0.44 -0.26 8555
-0.05 1.26 3.11 -2.56 15.88 1.82 0.44 -0.13 8562
-0.03 1.29 2.10 -2.96 16.48 0.91 -0.40 0.03 8569
-0.05 1.32 0.79 -2.48 12.13 0.28 -0.42 0.18 8577
-0.07 1.29 -1.00 -2.49 11.58 0.10 -0.23 0.15 8584
-0.05 1.32 -0.14 -1.60 10.37 -0.03 -0.08 0.08 8591
-0.07 1.36 0.21 -1.39 9.75 -0.08 0.02 0.06 8597
-0.07 1.38 0.23 -1.27 9.72 -0.10 0.06 0.08 8604
-0.03 1.30 0.31 -1.28 9.81 -0.12 0.10 0.07 8611
-0.06 1.33 0.27 -1.29 9.75 -0.15 0.13 0.06 8619
-0.07 1.28 0.18 -1.12 9.69 -0.13 0.14 0.04 8626
-0.08 1.33 0.27 -1.20 9.81 -0.13 0.14 0.04 8633
-0.07 1.33 0.20 -1.22 9.77 -0.12 0.14 0.04 8640
-0.02 1.34 0.40 -1.20 9.74 -0.12 0.13 0.03 8647
-0.02 1.35 0.39 -1.18 9.79 -0.11 0.12 0.02 8654
-0.06 1.33 0.34 -1.18 9.79 -0.10 0.10 0.01 8662
-0.06 1.36 0.35 -1.11 9.76 -0.09 0.09 0.01 8669
-0.08 1.40 0.32 -1.09 9.76 -0.08 0.09 0.01 8676
-0.06 1.38 0.34 -1.01 9.76 -0.07 0.09 0.00 8683
-0.05 1.39 0.36 -1.04 9.79 -0.05 0.08 0.00 8690
-0.04 1.35 0.33 -1.07 9.78 -0.03 0.08 0.00 8697
-0.06 1.33 0.37 -1.03 9.79 -0.02 0.07 0.00 8705
-0.06 1.34 0.31 -1.03 9.78 -0.00 0.07 0.01 8712
-0.07 1.34 0.35 -1.03 9.77 0.01 0.07 0.01 8719
-0.06 1.34 0.39 -1.05 9.72 0.02 0.07 0.01 8726
-0.04 1.32 0.40 -1.06 9.73 0.03 0.08 0.01 8733
-0.04 1.25 0.45 -1.04 9.69 0.04 0.07 0.01 8740
-0.05 1.23 0.43 -1.05 9.67 0.05 0.06 0.01 8748
-0.04 1.22 0.46 -1.04 9.64 0.05 0.05 0.00 8755
-0.06 1.22 0.41 -1.05 9.66 0.04 0.05 0.00 8762
-0.05 1.21 0.40 -1.07 9.65 0.04 0.05 -0.00 8769
-0.04 1.17 0.34 -1.05 9.67 0.04 0.04 -0.00 8776
-0.05 1.11 0.40 -1.05 9.70 0.04 0.04 -0.01 8783
-0.04 1.07 0.41 -1.05 9.69 0.03 0.05 -0.00 8791
-0.06 1.04 0.40 -1.05 9.66 0.03 0.05 -0.01 8798
-0.06 0.97 0.39 -1.08 9.67 0.03 0.05 -0.01 8805
-0.05 0.98 0.42 -1.05 9.68 0.04 0.05 -0.01 8812
-0.04 0.92 0.41 -1.08 9.64 0.04 0.04 -0.02 8819
-0.05 0.95 0.42 -1.10 9.73 0.04 0.04 -0.02 8826
-0.05 0.90 0.45 -1.11 9.64 0.04 0.03 -0.02 8834
-0.05 0.87 0.43 -1.07 9.72 0.05 0.02 -0.02 8841
-0.04 0.86 0.47 -1.11 9.69 0.05 0.01 -0.02 8848
-0.03 0.84 0.44 -1.12 9.72 0.05 0.01 -0.02 8855
-0.03 0.80 0.43 -1.10 9.71 0.06 0.00 -0.03 8862
-0.04 0.79 0.45 -1.11 9.70 0.07 -0.01 -0.03 8869
-0.02 0.72 0.43 -1.12 9.66 0.08 -0.01 -0.03 8877
-0.04 0.75 0.40 -1.14 9.71 0.08 -0.01 -0.03 8884
0.00 0.70 0.41 -1.15 9.80 0.08 -0.00 -0.04 8891
0.00 0.67 0.37 -1.20 9.80 0.10 -0.01 -0.03 8898
0.02 0.70 0.39 -1.23 9.81 0.11 -0.00 -0.03 8905
0.05 0.60 0.35 -1.14 9.73 0.12 0.00 -0.03 8912
0.04 0.56 0.40 -1.24 9.81 0.14 0.01 -0.03 8920
-0.02 0.54 0.38 -1.20 9.81 0.15 0.02 -0.04 8927
-0.01 0.51 0.37 -1.25 10.40 0.16 0.02 -0.04 8934
0.03 0.46 0.42 -1.27 9.75 0.20 0.02 -0.04 8941
0.03 0.44 0.43 -1.32 9.75 0.18 0.02 -0.04 8948
0.07 0.38 0.42 -1.33 9.81 0.19 0.02 -0.04 8955
0.06 0.33 0.54 -1.40 9.82 0.21 0.02 -0.04 8963
0.09 0.31 0.46 -1.40 9.83 0.23 0.01 -0.04 8970
0.11 0.26 0.45 -1.44 9.86 0.26 0.01 -0.05 8977
0.13 0.22 0.46 -1.47 10.03 0.29 -0.01 -0.05 8984
0.11 0.20 0.53 -1.38 9.93 0.34 -0.02 -0.06 8991
0.15 0.17 0.56 -1.51 9.99 0.39 -0.04 -0.07 8998
0.20 0.15 0.50 -1.51 10.13 0.45 -0.05 -0.08 9006
0.21 0.15 0.55 -1.62 10.13 0.52 -0.04 -0.11 9014
0.26 0.14 0.63 -1.67 10.63 0.60 0.00 -0.14 9020
0.28 0.08 0.68 -1.73 10.95 0.78 0.16 -0.19 9028
0.38 0.10 0.35 -1.94 10.97 0.99 0.25 -0.22 9035
0.38 0.11 0.39 -2.02 11.05 1.15 0.16 -0.17 9042
0.40 0.08 0.58 -2.05 10.88 1.29 0.14 -0.21 9049
0.39 0.13 0.36 -2.26 11.02 1.40 0.10 -0.21 9057
0.41 0.14 0.48 -2.18 11.20 1.51 0.04 -0.21 9064
0.46 0.15 1.05 -0.99 10.72 1.61 -0.00 -0.21 9071
0.50 0.14 0.10 -2.97 11.18 1.75 -0.03 -0.18 9078
0.58 0.15 0.54 -2.49 11.52 1.91 -0.03 -0.17 9085
0.57 0.14 0.57 -2.44 11.89 2.09 -0.02 -0.16 9093
0.57 0.14 0.76 -3.29 11.44 2.30 -0.01 -0.15 9100
0.58 0.17 0.88 -3.41 12.66 2.47 0.01 -0.21 9107
0.60 0.16 0.36 -2.94 11.97 2.67 0.08 -0.23 9114
0.60 0.17 0.41 -3.08 12.28 2.91 0.06 -0.22 9121
0.61 0.13 0.88 -3.55 13.09 3.11 0.01 -0.23 9128
0.60 0.13 0.74 -3.35 12.80 3.35 -0.03 -0.25 9136
0.59 0.14 0.85 -4.36 13.85 3.60 -0.15 -0.28 9143
0.58 0.14 1.23 -4.53 13.53 3.80 -0.35 -0.34 9150
0.49 0.13 1.30 -4.68 14.26 4.09 -0.48 -0.40 9157
0.36 0.10 1.40 -5.05 15.12 4.28 -0.68 -0.42 9164
0.33 0.08 1.51 -6.09 17.28 4.28 -0.90 -0.48 9171
0.23 0.09 1.51 -6.15 18.22 4.28 -0.96 -0.49 9179
0.16 0.08 2.97 -7.46 16.96 4.28 -1.03 -0.58 9186
0.09 0.09 2.57 -8.33 18.74 4.28 -0.97 -0.74 9193
0.10 0.09 -0.81 -8.79 21.46 4.28 -1.16 -0.91 9200
0.06 0.07 -1.86 -8.49 23.18 4.28 -1.51 -0.87 9207
0.05 0.08 -1.79 -9.49 22.86 4.28 -1.62 -0.72 9214
0.02 0.07 0.77 -8.50 22.43 4.28 -1.69 -0.69 9222
0.01 0.11 2.38 -7.64 23.96 4.28 -1.83 -0.64 9229
0.01 0.13 4.25 -4.82 22.73 4.28 -1.85 -0.66 9236
0.01 0.12 4.69 -1.02 20.69 4.28 -1.76 -0.72 9243
-0.01 0.14 5.79 1.97 20.39 4.28 -1.49 -0.80 9249
-0.01 0.13 5.71 5.14 17.30 4.28 -1.25 -0.88 9256
-0.02 0.15 5.56 11.76 15.12 4.28 -0.99 -0.98 9265
-0.02 0.15 6.94 17.27 12.20 4.27 -0.55 -1.06 9272
-0.01 0.15 6.87 15.11 23.98 2.96 0.22 -1.22 9279
-0.01 0.15 4.09 14.44 25.49 0.42 0.78 -1.24 9285
-0.01 0.13 0.29 13.54 18.74 -1.04 0.83 -0.97 9292
-0.01 0.14 -0.56 11.52 12.74 -1.98 0.48 -0.80 9300
-0.01 0.15 -0.88 8.98 9.77 -2.32 -0.12 -0.63 9307
-0.01 0.15 -0.54 7.15 7.82 -2.38 -0.49 -0.47 9314
-0.01 0.14 0.30 6.26 6.90 -2.45 -0.66 -0.36 9321
-0.01 0.14 1.26 5.65 6.95 -2.60 -0.69 -0.21 9328
-0.01 0.13 1.66 5.40 7.55 -2.78 -0.57 -0.04 9335
-0.01 0.14 1.75 5.49 8.10 -3.07 -0.33 0.08 9342
-0.01 0.15 1.40 5.34 8.83 -3.37 -0.10 0.21 9350
0.00 0.15 1.04 5.10 9.42 -3.73 0.05 0.30 9357
-0.01 0.14 0.91 4.78 10.07 -4.07 0.17 0.37 9364
-0.01 0.15 1.02 3.95 10.75 -4.22 0.25 0.40 9371
-0.01 0.14 0.96 2.73 11.03 -4.28 0.35 0.40 9378
-0.02 0.15 0.59 1.53 11.14 -4.28 0.47 0.38 9385
-0.01 0.14 0.25 0.42 11.21 -4.28 0.55 0.35 9393
-0.01 0.15 -0.26 -0.85 11.34 -4.28 0.60 0.32 9401
-0.01 0.14 -0.86 -1.99 11.81 -4.28 0.57 0.29 9407
-0.01 0.15 -1.26 -2.82 12.25 -4.28 0.49 0.26 9414
-0.01 0.14 -1.40 -3.54 12.86 -4.28 0.37 0.22 9421
-0.01 0.14 -1.30 -4.14 13.13 -4.28 0.28 0.20 9428
-0.02 0.16 -0.73 -4.51 13.14 -4.28 0.20 0.19 9436
-0.00 0.15 -0.22 -4.73 13.35 -4.28 0.17 0.19 9444
-0.01 0.15 0.27 -4.83 13.45 -4.28 0.18 0.19 9451
-0.01 0.14 0.90 -4.73 13.81 -4.28 0.24 0.23 9458
-0.01 0.16 1.22 -4.70 14.67 -4.28 0.32 0.27 9465
-0.01 0.17 1.35 -4.79 15.55 -4.28 0.40 0.31 9473
-0.01 0.17 1.29 -5.08 16.34 -4.28 0.44 0.39 9480
-0.01 0.17 1.27 -5.36 16.90 -4.28 0.44 0.45 9487
-0.01 0.16 1.36 -5.78 17.44 -4.27 0.44 0.52 9494
-0.00 0.15 1.48 -6.24 17.90 -4.24 0.47 0.58 9500
-0.02 0.15 1.46 -6.61 18.43 -4.19 0.52 0.63 9507
-0.01 0.16 1.20 -7.13 19.03 -4.12 0.57 0.66 9516
-0.01 0.15 0.82 -7.54 19.23 -3.99 0.60 0.67 9523
-0.01 0.15 0.56 -8.19 19.22 -3.82 0.63 0.65 9530
-0.01 0.16 0.53 -8.95 19.23 -3.63 0.65 0.61 9537
-0.01 0.14 0.41 -9.73 19.48 -3.38 0.72 0.55 9543
-0.01 0.15 -4.58 -21.79 15.03 -3.17 0.66 0.60 9551
-0.02 0.17 1.97 -11.50 13.08 -2.15 1.40 0.72 9559
-0.02 0.16 3.84 -9.65 11.05 -2.31 1.04 0.47 9565
-0.02 0.17 -4.96 -16.11 13.97 -2.47 0.53 0.34 9573
-0.02 0.16 -3.31 -13.56 20.76 -3.09 0.54 0.04 9580
-0.01 0.15 -0.89 -14.11 25.72 -3.58 0.90 -0.19 9587
-0.02 0.17 -0.97 -16.51 18.87 -4.10 1.12 -0.41 9594
-0.02 0.15 -0.83 -18.19 13.86 -4.23 1.57 -0.59 9602
-0.01 0.14 -1.63 -22.96 9.74 -4.21 2.02 -0.85 9609
-0.01 0.12 -3.24 -28.26 7.34 -3.98 2.28 -1.11 9615
-0.02 0.16 -5.90 -35.12 4.00 -3.44 2.44 -1.35 9622
-0.01 0.13 -8.78 -41.60 0.02 -2.95 2.47 -1.36 9629
-0.01 0.15 -12.83 -43.56 -1.84 -2.13 2.15 -1.15 9637
-0.02 0.15 -15.26 -41.73 -2.65 -1.17 1.13 -0.80 9645
-0.01 0.16 -13.24 -42.61 2.41 0.38 -0.48 -0.53 9652
-0.02 0.17 -12.03 -36.31 2.29 2.42 -2.23 -0.40 9659
-0.02 0.17 3.51 -24.57 -0.76 3.38 -2.47 -0.65 9665
-0.02 0.21 0.78 -10.50 6.00 4.10 -1.94 -0.69 9672
-0.02 0.23 -0.71 7.21 20.01 4.15 -1.53 -0.65 9679
-0.03 0.31 0.67 2.09 17.75 3.34 -1.35 -0.46 9688
-0.03 0.44 4.98 0.65 14.62 2.41 -0.96 -0.11 9695
-0.04 0.52 3.66 0.52 8.92 1.99 -0.79 0.30 9701
-0.04 0.58 -0.46 -1.51 12.46 2.45 -0.82 0.49 9709
-0.06 0.66 0.01 -1.93 13.47 3.18 -0.56 0.63 9716
-0.04 0.75 0.11 -2.75 14.74 3.55 -0.30 0.75 9723
-0.05 0.85 -2.60 -4.09 20.12 3.31 0.23 0.80 9731
-0.06 1.10 -3.89 -4.97 17.44 2.83 0.36 0.61 9738
-0.07 1.20 -3.69 -4.11 15.86 2.62 0.16 0.27 9745
-0.07 1.29 -1.23 -2.88 14.71 2.47 0.32 0.04 9752
-0.07 1.33 0.41 -1.92 12.84 2.21 0.52 0.04 9759
-0.05 1.36 1.21 -4.64 23.53 1.60 0.27 0.10 9766
-0.05 1.44 1.19 -1.78 12.52 0.12 -0.22 0.13 9774
-0.06 1.41 -0.58 -2.90 10.55 -0.18 -0.01 0.09 9781
-0.08 1.41 0.08 -1.58 10.02 -0.12 0.05 0.04 9787
-0.08 1.38 0.10 -1.31 9.92 -0.13 0.07 0.04 9794
-0.08 1.45 0.16 -1.16 9.64 -0.13 0.07 0.04 9801
-0.07 1.42 0.08 -1.39 9.87 -0.13 0.09 0.03 9808
-0.08 1.43 0.20 -1.18 9.75 -0.13 0.10 0.02 9816
-0.09 1.44 0.23 -1.12 9.72 -0.13 0.11 0.01 9823
-0.09 1.43 0.13 -1.07 9.81 -0.12 0.12 0.00 9830
-0.09 1.42 0.27 -1.12 9.76 -0.11 0.11 -0.00 9837
-0.07 1.41 0.23 -1.09 9.72 -0.10 0.10 -0.01 9844
-0.06 1.42 0.19 -1.13 9.74 -0.09 0.10 -0.02 9851
-0.03 1.38 0.10 -1.06 9.70 -0.10 0.12 -0.02 9859
-0.04 1.35 0.09 -1.00 9.80 -0.10 0.15 -0.02 9866
-0.07 1.36 0.15 -0.97 9.82 -0.08 0.17 -0.02 9873
-0.07 1.33 0.23 -0.97 9.84 -0.06 0.19 -0.01 9880
-0.08 1.32 0.22 -0.91 9.79 -0.04 0.19 -0.01 9887
-0.07 1.29 0.17 -0.95 9.83 -0.02 0.19 -0.00 9894
-0.06 1.26 0.18 -0.92 9.82 0.00 0.19 0.01 9902
-0.04 1.20 0.21 -0.92 9.83 0.03 0.19 0.01 9909
-0.05 1.22 0.28 -0.93 9.71 0.04 0.17 0.01 9916
-0.05 1.14 0.33 -0.96 9.80 0.05 0.16 0.01 9923
-0.05 1.07 0.41 -0.96 9.80 0.07 0.13 0.01 9930
-0.04 1.03 0.45 -1.00 9.64 0.08 0.10 0.00 9937
-0.04 0.98 0.43 -0.97 9.69 0.07 0.08 -0.01 9945
-0.03 0.94 0.38 -1.02 9.70 0.07 0.06 -0.01 9952
-0.04 0.93 0.37 -0.98 9.80 0.07 0.04 -0.02 9959
-0.04 0.90 0.33 -1.00 9.68 0.07 0.02 -0.02 9966
-0.01 0.87 0.32 -0.98 9.72 0.07 0.02 -0.03 9973
0.01 0.84 0.31 -0.99 9.72 0.07 0.03 -0.03 9980
0.00 0.80 0.33 -1.02 9.76 0.07 0.04 -0.03 9988
-0.01 0.82 0.34 -1.03 9.70 0.07 0.04 -0.03 9995
-0.01 0.79 0.37 -1.06 9.72 0.07 0.04 -0.03 10002
0.01 0.73 0.33 -1.05 9.72 0.08 0.04 -0.03 10009
-0.00 0.72 0.35 -1.07 9.75 0.08 0.04 -0.03 10016
0.01 0.70 0.32 -1.08 9.72 0.08 0.04 -0.04 10023
0.01 0.66 0.36 -1.09 9.68 0.08 0.05 -0.04 10031
0.02 0.66 0.40 -1.10 9.72 0.08 0.05 -0.04 10038
0.06 0.61 0.37 -1.11 9.70 0.08 0.05 -0.04 10045
0.08 0.55 0.41 -1.14 9.76 0.08 0.04 -0.04 10052
0.04 0.57 0.34 -1.14 9.77 0.08 0.05 -0.04 10059
0.05 0.52 0.39 -1.15 9.78 0.08 0.05 -0.04 10066
0.05 0.54 0.38 -1.15 9.81 0.09 0.05 -0.04 10074
0.06 0.45 0.32 -1.15 9.79 0.10 0.06 -0.04 10081
0.05 0.48 0.41 -1.22 9.76 0.11 0.06 -0.04 10088
0.10 0.47 0.44 -1.14 9.82 0.13 0.06 -0.04 10095
0.11 0.39 0.40 -1.18 9.80 0.14 0.05 -0.05 10102
0.10 0.38 0.44 -1.79 9.81 0.14 0.04 -0.05 10109
0.11 0.37 0.43 -1.23 9.77 0.16 0.03 -0.05 10117
0.13 0.35 0.45 -1.24 9.81 0.17 0.03 -0.06 10124
0.14 0.29 0.47 -1.28 9.80 0.18 0.02 -0.06 10131
0.15 0.24 0.41 -1.29 9.83 0.20 0.01 -0.06 10138
0.17 0.23 0.46 -1.29 9.81 0.22 0.01 -0.07 10145
0.21 0.17 0.45 -1.30 9.82 0.24 0.01 -0.07 10152
0.24 0.16 0.40 -1.42 9.84 0.26 0.03 -0.07 10160
0.21 0.18 0.39 -1.39 10.00 0.29 0.04 -0.08 10167
0.18 0.16 0.69 -1.37 9.85 0.33 0.06 -0.09 10174
0.25 0.14 0.52 -1.48 9.84 0.36 0.07 -0.11 10181
0.23 0.14 0.78 -1.48 10.10 0.41 0.12 -0.13 10189
0.27 0.09 0.51 -1.63 10.24 0.48 0.22 -0.16 10196
0.30 0.10 0.57 -1.64 10.48 0.62 0.35 -0.17 10204
0.26 0.09 0.26 -1.82 10.49 0.77 0.42 -0.14 10211
0.27 0.12 0.44 -1.77 10.85 0.91 0.43 -0.12 10218
0.27 0.12 0.48 -1.87 10.46 1.05 0.46 -0.12 10225
0.29 0.13 0.40 -1.93 10.74 1.15 0.47 -0.10 10232
0.26 0.14 0.43 -2.25 10.92 1.27 0.47 -0.09 10240
0.26 0.14 0.60 -2.17 11.08 1.40 0.49 -0.08 10246
0.29 0.13 0.70 -2.38 11.34 1.51 0.50 -0.08 10254
0.30 0.15 0.78 -2.40 11.63 1.66 0.47 -0.09 10261
0.30 0.17 0.75 -2.27 10.81 1.80 0.39 -0.11 10268
0.33 0.13 0.58 -2.43 11.65 1.93 0.39 -0.11 10275
0.38 0.12 0.97 -2.62 11.63 2.13 0.41 -0.10 10283
0.36 0.10 1.11 -2.72 11.47 2.30 0.39 -0.14 10290
0.38 0.14 1.16 -3.18 12.13 2.50 0.39 -0.19 10297
0.37 0.15 1.44 -3.52 12.08 2.72 0.39 -0.23 10304
0.37 0.14 1.54 -3.06 12.07 2.91 0.40 -0.27 10311
0.37 0.12 1.06 -3.23 12.63 3.14 0.37 -0.29 10318
0.32 0.10 0.99 -3.71 12.35 3.35 0.30 -0.30 10326
0.25 0.07 1.06 -4.07 13.11 3.52 0.28 -0.31 10333
0.24 0.06 1.25 -4.06 13.15 3.74 0.21 -0.29 10340
0.23 0.06 1.53 -4.96 13.68 3.95 0.22 -0.28 10347
0.16 0.06 2.41 -5.66 14.74 4.16 0.19 -0.31 10354
0.16 0.05 3.15 -5.55 15.52 4.26 0.21 -0.39 10361
0.15 0.07 1.15 -5.68 18.46 4.28 0.08 -0.48 10369
0.12 0.07 0.50 -7.02 16.32 4.28 -0.15 -0.50 10376
0.07 0.07 1.27 -8.62 16.86 4.28 -0.51 -0.50 10383
0.09 0.04 4.34 -8.86 19.38 4.28 -0.50 -0.52 10390
0.03 0.06 3.20 -7.84 21.16 4.28 -0.20 -0.60 10397
0.04 0.05 -0.12 -8.56 22.69 4.28 -0.11 -0.66 10404
-0.00 0.06 0.04 -8.55 21.15 4.28 -0.62 -0.60 10411
-0.01 0.07 2.91 -7.51 22.77 4.28 -0.94 -0.58 10418
-0.00 0.10 5.21 -6.59 22.45 4.28 -0.96 -0.65 10426
-0.00 0.10 6.30 -3.73 20.95 4.28 -0.78 -0.74 10433
0.01 0.10 5.88 0.56 21.15 4.28 -0.46 -0.87 10439
-0.01 0.12 5.39 2.97 20.78 4.28 -0.12 -1.00 10446
-0.01 0.11 3.71 7.05 16.83 4.28 0.03 -1.13 10454
-0.01 0.13 2.18 14.53 11.34 4.28 0.11 -1.33 10462
-0.01 0.13 4.99 14.31 10.20 4.22 0.27 -1.54 10469
-0.01 0.12 4.29 14.00 23.26 2.40 0.57 -1.48 10476
-0.01 0.12 1.18 14.11 22.39 0.21 0.80 -1.38 10483
-0.01 0.12 -1.30 13.10 17.10 -1.27 0.71 -1.11 10490
-0.01 0.11 -1.92 11.24 12.49 -2.01 0.22 -0.87 10498
-0.01 0.13 -2.13 9.00 9.91 -2.38 -0.43 -0.75 10504
-0.01 0.14 -1.58 7.16 8.34 -2.48 -0.88 -0.61 10511
-0.01 0.14 -1.25 6.33 7.93 -2.57 -1.14 -0.51 10518
-0.01 0.13 -0.87 5.85 8.06 -2.77 -1.26 -0.40 10525
-0.01 0.13 -0.44 5.63 8.38 -3.01 -1.26 -0.28 10532
-0.01 0.13 0.02 5.21 8.64 -3.33 -1.17 -0.21 10540
-0.01 0.13 0.34 4.65 8.67 -3.60 -0.97 -0.16 10547
-0.01 0.12 0.39 3.72 8.42 -3.87 -0.75 -0.16 10554
-0.00 0.12 0.03 3.20 9.21 -4.04 -0.50 -0.18 10561
-0.01 0.12 -0.36 2.86 9.92 -4.14 -0.32 -0.22 10568
-0.01 0.13 -0.63 2.44 10.89 -4.24 -0.16 -0.27 10575
-0.01 0.12 -1.07 1.66 11.95 -4.28 -0.08 -0.30 10583
-0.01 0.12 -1.37 0.82 12.57 -4.28 -0.04 -0.33 10590
-0.01 0.12 -1.52 -0.39 12.92 -4.28 -0.04 -0.35 10597
0.01 0.12 -1.48 -1.63 13.23 -4.28 -0.08 -0.35 10605
-0.01 0.13 -1.25 -2.61 14.09 -4.28 -0.11 -0.34 10612
-0.01 0.12 -0.82 -3.97 13.93 -4.28 -0.14 -0.30 10618
-0.01 0.11 -0.52 -4.81 14.21 -4.28 -0.14 -0.24 10626
-0.01 0.12 -0.13 -5.31 14.19 -4.28 -0.15 -0.22 10633
-0.01 0.12 0.38 -5.59 14.16 -4.28 -0.19 -0.16 10641
0.00 0.11 0.90 -5.76 14.32 -4.28 -0.21 -0.09 10648
0.00 0.11 1.52 -5.99 14.52 -4.28 -0.21 -0.01 10655
-0.01 0.11 2.15 -6.18 15.26 -4.28 -0.20 0.09 10662
-0.00 0.11 2.91 -6.31 15.98 -4.28 -0.15 0.17 10670
0.00 0.12 3.50 -6.49 16.81 -4.28 -0.06 0.26 10677
0.00 0.14 3.76 -6.58 17.51 -4.28 0.02 0.32 10683
0.00 0.14 3.91 -6.90 17.90 -4.28 0.12 0.38 10690
-0.01 0.14 4.05 -7.45 18.22 -4.28 0.29 0.43 10698
-0.01 0.14 4.05 -7.89 18.50 -4.28 0.44 0.46 10704
-0.01 0.14 3.62 -8.28 18.74 -4.26 0.64 0.48 10712
-0.02 0.15 2.85 -8.70 18.97 -4.19 0.79 0.49 10719
-0.01 0.16 1.86 -9.22 18.96 -4.09 0.91 0.47 10727
-0.01 0.14 0.98 -9.91 18.80 -3.94 0.96 0.43 10733
-0.01 0.14 0.12 -10.71 18.67 -3.74 0.95 0.38 10741
-0.01 0.12 -0.61 -11.72 18.59 -3.53 0.92 0.28 10748
-0.02 0.16 -1.13 -13.74 18.15 -3.38 0.88 0.14 10756
-0.01 0.15 -0.22 -13.31 24.53 -2.88 1.19 0.10 10763
-0.01 0.15 -2.48 -12.94 17.15 -3.03 1.07 -0.10 10770
-0.01 0.13 -1.85 -14.82 18.28 -3.23 1.04 -0.26 10777
-0.01 0.13 -1.78 -16.50 18.08 -3.31 1.16 -0.37 10784
-0.01 0.11 -2.06 -17.04 14.45 -3.38 1.33 -0.43 10791
-0.01 0.13 -2.79 -18.30 11.14 -3.34 1.49 -0.47 10799
-0.01 0.10 -3.94 -21.89 9.03 -3.20 1.70 -0.53 10805
-0.01 0.11 -5.25 -26.04 6.88 -2.95 1.71 -0.63 10812
-0.01 0.14 -7.02 -31.18 4.66 -2.57 1.47 -0.76 10819
-0.01 0.13 -8.50 -35.70 1.48 -2.17 1.22 -0.80 10826
-0.01 0.12 -10.35 -38.06 -0.35 -1.51 0.88 -0.70 10834
0.00 0.10 -12.48 -37.22 -0.78 -0.73 0.25 -0.51 10842
0.01 0.11 -12.69 -32.81 0.57 0.30 -0.58 -0.32 10849
0.03 0.11 -9.94 -27.78 2.67 1.18 -1.55 -0.22 10856
-0.01 0.12 1.62 -34.13 24.81 2.78 -1.73 -0.72 10863
-0.01 0.17 -1.99 -7.74 3.98 3.63 -0.50 -1.02 10869
-0.02 0.21 -1.29 10.95 11.29 3.87 -0.34 -1.15 10877
-0.02 0.27 -0.74 0.46 16.93 3.39 -0.76 -1.25 10885
-0.03 0.43 5.13 0.87 13.11 2.68 -0.90 -1.17 10892
-0.03 0.46 7.33 1.44 7.47 2.44 -0.71 -0.78 10898
-0.04 0.57 3.68 -1.51 8.80 2.68 -0.63 -0.42 10905
-0.04 0.57 2.71 -2.51 12.84 3.18 -0.48 -0.09 10913
-0.05 0.59 3.25 -2.40 15.18 3.53 0.02 0.29 10919
-0.05 0.70 0.52 -2.81 17.79 3.41 0.38 0.49 10927
-0.04 0.79 -1.66 -4.56 20.09 3.01 0.47 0.48 10935
-0.02 0.95 -3.04 -4.05 15.65 2.77 0.56 0.34 10942
-0.04 1.13 -2.36 -3.33 15.65 2.68 0.54 0.08 10949
-0.04 1.18 -0.25 -2.60 15.24 2.38 0.52 -0.07 10956
-0.05 1.18 0.37 -2.45 13.88 2.07 0.59 -0.07 10963
-0.05 1.31 1.05 -2.85 14.50 1.83 0.55 0.01 10971
-0.04 1.27 0.81 -3.17 18.02 1.06 -0.06 0.02 10978
-0.05 1.34 1.11 -2.03 11.93 0.17 -0.29 0.03 10985
-0.07 1.24 0.21 -2.03 10.36 0.03 -0.16 0.05 10992
-0.04 1.26 0.18 -1.50 10.33 0.01 -0.10 0.05 10998
-0.06 1.28 0.35 -1.47 10.01 -0.05 -0.04 0.05 11005
-0.07 1.28 0.38 -1.37 9.81 -0.09 0.01 0.04 11013
-0.06 1.25 0.32 -1.44 9.85 -0.12 0.05 0.03 11020
-0.06 1.26 0.27 -1.33 9.84 -0.13 0.06 0.01 11027
-0.06 1.30 0.23 -1.32 9.21 -0.13 0.07 0.01 11034
-0.07 1.31 0.17 -1.27 9.82 -0.12 0.07 -0.00 11041
-0.07 1.31 0.31 -1.24 9.78 -0.12 0.08 -0.01 11048
-0.07 1.32 0.31 -1.25 9.73 -0.11 0.08 -0.01 11056
-0.03 1.32 0.34 -1.18 9.75 -0.11 0.08 -0.01 11063
-0.04 1.30 0.33 -1.11 9.79 -0.10 0.07 -0.01 11070
-0.06 1.29 0.33 -1.12 9.74 -0.10 0.07 -0.02 11077
-0.05 1.29 0.24 -1.08 9.77 -0.09 0.08 -0.02 11084
-0.06 1.36 0.30 -1.06 9.78 -0.08 0.08 -0.01 11091
-0.06 1.36 0.26 -1.06 9.79 -0.06 0.09 -0.01 11099
-0.05 1.34 0.28 -1.07 9.75 -0.04 0.10 -0.01 11106
-0.07 1.35 0.28 -1.05 9.79 -0.03 0.10 -0.01 11113
-0.06 1.33 0.35 -1.04 9.75 -0.02 0.09 0.00 11120
-0.07 1.29 0.32 -1.00 9.74 -0.00 0.09 0.00 11127
-0.06 1.26 0.37 -1.07 9.72 0.01 0.09 0.00 11134
-0.04 1.27 0.37 -1.03 9.71 0.02 0.08 0.00 11142
-0.04 1.18 0.37 -1.03 9.64 0.03 0.08 0.00 11149
-0.04 1.18 0.41 -1.04 9.63 0.03 0.08 -0.00 11156
-0.04 1.17 0.40 -0.99 9.70 0.02 0.08 -0.01 11163
-0.05 1.17 0.37 -1.00 9.65 0.03 0.07 -0.01 11170
-0.04 1.15 0.41 -1.02 9.69 0.03 0.07 -0.01 11177
-0.04 1.12 0.38 -1.04 9.70 0.03 0.07 -0.01 11185
-0.03 1.10 0.38 -1.05 9.70 0.03 0.07 -0.01 11192
-0.03 1.10 0.35 -1.07 9.67 0.03 0.06 -0.01 11199
-0.04 1.09 0.40 -1.06 9.70 0.03 0.06 -0.01 11206
-0.04 1.01 0.40 -1.06 9.72 0.04 0.06 -0.01 11213
-0.03 1.00 0.40 -1.02 9.69 0.04 0.06 -0.01 11220
-0.04 0.96 0.41 -1.08 9.69 0.05 0.06 -0.01 11228
-0.05 0.94 0.38 -1.09 9.73 0.05 0.05 -0.01 11235
-0.04 0.95 0.43 -1.07 9.72 0.05 0.05 -0.01 11242
-0.04 0.89 0.40 -1.09 9.77 0.06 0.04 -0.02 11249
-0.05 0.91 0.40 -1.12 9.69 0.06 0.03 -0.02 11256
-0.04 0.81 0.40 -1.10 9.69 0.07 0.03 -0.02 11264
-0.01 0.86 0.40 -1.09 9.67 0.07 0.03 -0.02 11271
0.01 0.77 0.38 -1.10 9.72 0.08 0.05 -0.02 11278
0.02 0.73 0.40 -1.18 9.77 0.08 0.06 -0.03 11285
0.01 0.70 0.40 -1.13 9.79 0.09 0.06 -0.02 11292
0.00 0.70 0.42 -1.09 9.80 0.10 0.06 -0.02 11299
0.02 0.62 0.39 -1.10 9.81 0.11 0.07 -0.02 11307
0.03 0.62 0.44 -1.14 9.74 0.12 0.07 -0.02 11314
0.02 0.56 0.44 -1.21 9.81 0.13 0.08 -0.02 11321
0.03 0.49 0.43 -1.25 9.82 0.15 0.08 -0.02 11328
0.02 0.53 0.38 -1.22 9.83 0.16 0.09 -0.02 11335
0.04 0.47 0.47 -1.24 9.82 0.18 0.09 -0.02 11342
0.07 0.46 0.49 -1.26 9.82 0.20 0.09 -0.02 11350
0.09 0.45 0.53 -1.36 9.83 0.21 0.09 -0.02 11357
0.12 0.32 0.57 -1.36 9.81 0.23 0.09 -0.02 11364
0.12 0.29 0.41 -1.36 9.82 0.26 0.08 -0.02 11371
0.13 0.23 0.52 -1.30 9.95 0.28 0.08 -0.03 11378
0.16 0.21 0.54 -1.41 10.06 0.32 0.09 -0.02 11385
0.20 0.20 0.46 -1.43 10.05 0.40 0.10 -0.02 11393
0.20 0.17 0.59 -1.39 9.94 0.42 0.12 -0.02 11400
0.18 0.16 0.54 -1.52 10.21 0.49 0.16 -0.02 11408
0.18 0.16 0.46 -1.65 10.29 0.57 0.24 -0.02 11415
0.19 0.11 0.74 -1.64 10.59 0.69 0.34 -0.03 11422
0.22 0.11 0.72 -1.63 10.65 0.86 0.50 -0.06 11429
0.22 0.14 0.63 -1.89 10.66 1.00 0.55 -0.07 11437
0.24 0.12 0.56 -1.98 10.98 1.19 0.51 -0.05 11444
0.24 0.12 0.56 -2.24 11.33 1.35 0.48 -0.05 11451
0.27 0.14 0.85 -2.31 11.21 1.49 0.48 -0.06 11458
0.25 0.17 0.84 -2.32 11.14 1.64 0.42 -0.06 11465
0.27 0.17 0.99 -2.41 11.50 1.76 0.39 -0.07 11472
0.35 0.14 1.06 -2.47 11.37 1.92 0.35 -0.09 11480
0.33 0.14 1.00 -2.69 11.37 2.05 0.29 -0.11 11487
0.34 0.12 1.29 -2.83 11.42 2.21 0.28 -0.14 11494
0.34 0.15 1.09 -2.84 11.35 2.40 0.28 -0.21 11501
0.34 0.14 1.14 -3.32 11.55 2.57 0.27 -0.24 11508
0.36 0.12 1.22 -3.26 11.64 2.79 0.28 -0.24 11515
0.38 0.14 0.99 -3.13 11.90 3.02 0.29 -0.26 11523
0.39 0.14 1.28 -3.21 12.58 3.22 0.31 -0.30 11530
0.38 0.11 0.69 -3.27 12.87 3.46 0.32 -0.30 11537
0.32 0.12 0.82 -3.69 13.51 3.67 0.24 -0.30 11544
0.30 0.10 1.18 -4.04 13.11 3.92 0.29 -0.29 11551
0.28 0.05 1.61 -4.65 12.62 4.17 0.31 -0.31 11558
0.20 0.07 1.83 -5.80 15.09 4.27 0.35 -0.33 11565
0.18 0.06 2.78 -5.55 17.45 4.28 0.36 -0.39 11573
0.15 0.06 2.02 -6.58 19.20 4.28 0.34 -0.45 11579
0.14 0.08 0.05 -7.10 19.12 4.28 0.08 -0.50 11586
0.10 0.08 0.68 -8.77 18.31 4.28 -0.34 -0.47 11594
0.10 0.07 3.41 -9.36 20.19 4.28 -0.44 -0.44 11601
0.05 0.09 2.76 -9.42 23.98 4.28 -0.05 -0.42 11608
0.03 0.06 -0.25 -9.40 26.33 4.28 -0.12 -0.46 11616
0.03 0.06 -0.01 -8.20 23.23 4.28 -0.75 -0.43 11622
-0.01 0.08 3.16 -7.33 24.90 4.28 -1.19 -0.42 11629
-0.01 0.07 5.65 -6.10 25.31 4.28 -1.33 -0.54 11636
-0.01 0.09 6.43 -1.88 24.31 4.28 -1.27 -0.65 11643
-0.01 0.12 6.50 2.17 22.09 4.28 -1.05 -0.73 11651
-0.01 0.14 6.75 6.97 22.96 4.28 -0.82 -0.82 11658
-0.01 0.12 6.39 11.48 19.63 4.28 -0.53 -0.93 11666
-0.01 0.14 4.11 21.83 10.34 4.28 -0.31 -1.19 11673
-0.01 0.14 9.15 18.22 21.47 3.92 0.18 -1.27 11680
-0.01 0.14 7.06 18.09 28.26 0.80 0.77 -1.03 11686
-0.01 0.13 1.05 16.54 22.97 -1.18 0.98 -0.64 11695
-0.01 0.12 -2.05 14.75 16.90 -2.64 0.64 -0.31 11702
-0.01 0.12 -2.48 11.12 12.93 -3.14 -0.29 -0.12 11709
-0.01 0.13 -2.17 8.34 9.96 -3.30 -0.93 -0.09 11715
-0.01 0.14 -0.53 6.71 8.22 -3.40 -1.34 -0.08 11722
-0.01 0.13 0.81 5.77 7.63 -3.51 -1.41 -0.10 11729
-0.01 0.15 1.64 4.87 7.75 -3.67 -1.22 -0.15 11737
-0.01 0.14 2.00 4.17 8.27 -3.83 -0.80 -0.23 11744
-0.01 0.14 1.52 3.95 9.29 -4.07 -0.40 -0.29 11751
-0.01 0.13 0.79 3.51 9.84 -4.24 -0.04 -0.40 11758
-0.01 0.14 0.18 2.69 10.43 -4.28 0.13 -0.53 11765
-0.01 0.15 -0.63 2.22 10.70 -4.28 0.21 -0.65 11772
-0.01 0.11 -1.12 1.37 11.05 -4.28 0.15 -0.77 11780
-0.01 0.13 -1.12 0.40 11.43 -4.28 0.03 -0.87 11787
-0.01 0.13 -0.72 -0.63 11.65 -4.28 -0.06 -0.96 11794
-0.01 0.15 -0.41 -1.79 12.16 -4.28 -0.07 -1.02 11801
-0.00 0.15 -0.17 -2.87 12.52 -4.28 -0.02 -1.05 11809
-0.01 0.13 0.08 -3.94 13.10 -4.28 0.07 -1.06 11815
-0.01 0.14 0.09 -4.96 13.63 -4.28 0.16 -1.05 11823
-0.01 0.12 -0.01 -5.57 13.80 -4.28 0.27 -1.04 11830
-0.01 0.15 -0.02 -5.69 13.93 -4.28 0.33 -1.01 11837
-0.02 0.15 -0.06 -5.66 14.15 -4.28 0.35 -0.96 11844
-0.00 0.15 0.23 -5.69 14.53 -4.28 0.36 -0.88 11852
-0.01 0.16 0.70 -5.78 15.33 -4.28 0.39 -0.78 11859
-0.01 0.15 1.18 -5.96 16.00 -4.28 0.48 -0.66 11867
-0.01 0.14 1.41 -6.17 16.83 -4.28 0.62 -0.49 11873
-0.01 0.15 1.34 -6.38 17.68 -4.28 0.73 -0.32 11880
-0.01 0.17 0.98 -6.82 18.14 -4.28 0.80 -0.11 11888
-0.01 0.17 0.86 -7.56 18.39 -4.28 0.84 0.09 11895
-0.02 0.16 1.01 -8.41 18.52 -4.28 0.92 0.25 11901
-0.01 0.13 1.27 -9.49 18.92 -4.23 1.03 0.39 11909
-0.01 0.14 1.08 -11.01 19.29 -3.99 1.14 0.48 11917
-0.02 0.16 0.65 -11.36 19.57 -3.62 1.22 0.55 11924
-0.02 0.16 0.15 -12.45 20.70 -3.31 1.20 0.59 11931
-0.01 0.12 -0.57 -13.23 21.77 -3.06 1.18 0.62 11938
-0.01 0.13 -1.46 -14.41 22.61 -3.02 1.05 0.63 11945
-0.01 0.12 -1.71 -15.66 23.13 -3.21 0.95 0.62 11953
-0.01 0.12 -0.96 -16.78 23.14 -3.71 0.95 0.57 11960
-0.01 0.12 0.13 -18.45 20.93 -4.17 1.08 0.54 11967
-0.01 0.13 0.22 -20.02 16.58 -4.28 1.22 0.51 11974
-0.01 0.14 -0.00 -22.72 13.12 -4.28 1.37 0.54 11981
-0.01 0.13 -1.10 -26.31 8.81 -4.18 1.58 0.65 11987
-0.01 0.13 -2.42 -32.13 6.44 -3.70 2.10 0.68 11995
-0.01 0.14 -5.41 -40.58 3.29 -3.33 2.37 0.58 12002
-0.00 0.12 -9.47 -49.32 -0.46 -2.92 2.36 0.44 12010
0.01 0.13 -14.18 -51.81 -2.25 -2.15 1.96 0.39 12017
0.01 0.13 -16.53 -48.00 -3.62 -1.05 0.80 0.21 12024
0.00 0.13 -14.51 -40.75 -2.51 0.50 -0.70 -0.04 12032
-0.01 0.13 -8.94 -32.18 0.97 1.82 -2.23 -0.34 12039
-0.01 0.14 -3.99 -24.99 6.05 2.54 -2.90 -0.50 12045
-0.01 0.13 0.19 -18.61 9.61 2.94 -3.01 -0.58 12052
-0.00 0.15 2.56 19.24 36.69 4.27 -1.95 -1.12 12060
-0.02 0.21 4.46 18.17 13.18 3.43 -0.78 -0.80 12067
-0.03 0.32 5.75 4.68 16.62 2.31 -0.69 -0.49 12073
-0.05 0.46 4.89 1.86 9.50 1.56 -0.47 0.01 12081
-0.05 0.52 4.41 1.72 2.43 1.62 -0.33 0.37 12088
-0.04 0.54 0.86 -1.62 7.31 2.35 -0.20 0.62 12095
-0.04 0.68 0.54 -2.92 13.48 3.26 0.21 0.78 12103
-0.04 0.71 -1.05 -2.40 17.83 3.57 0.85 0.94 12110
-0.05 0.84 -4.04 -3.83 19.81 3.08 0.95 0.80 12118
-0.07 1.11 -6.12 -4.36 16.60 2.91 1.05 0.43 12125
-0.04 1.24 -2.21 -3.02 14.85 3.17 0.96 -0.07 12132
-0.04 1.34 1.81 -2.28 14.87 3.02 0.89 -0.19 12139
-0.03 1.34 3.01 -2.30 14.14 2.74 0.93 -0.03 12146
-0.05 1.47 1.07 -4.64 23.10 2.05 -0.36 0.07 12153
-0.04 1.34 2.61 -2.85 15.24 0.64 -0.75 0.15 12161
-0.06 1.39 -0.77 -2.99 12.27 0.19 -0.38 0.19 12168
-0.06 1.41 -0.11 -1.71 10.63 0.14 -0.24 0.07 12175
-0.06 1.41 0.51 -1.26 10.17 0.07 -0.13 0.04 12182
-0.07 1.35 0.59 -1.28 9.91 0.02 -0.07 0.03 12188
-0.06 1.34 0.60 -1.12 10.03 0.01 -0.05 0.03 12195
-0.07 1.28 0.47 -1.19 9.92 -0.01 -0.02 0.03 12203
-0.09 1.31 0.59 -1.18 9.85 -0.03 -0.01 0.02 12210
-0.06 1.32 0.56 -1.25 9.81 -0.02 -0.02 0.01 12217
-0.05 1.30 0.63 -1.15 9.77 -0.02 -0.03 -0.01 12224
-0.07 1.28 0.58 -1.14 9.61 -0.02 -0.06 -0.01 12231
-0.06 1.30 0.56 -1.13 9.63 -0.03 -0.07 -0.01 12238
-0.07 1.32 0.40 -1.23 9.74 -0.05 -0.05 -0.01 12246
-0.05 1.31 0.40 -1.08 9.78 -0.06 -0.03 -0.01 12253
-0.07 1.32 0.48 -1.03 9.79 -0.05 -0.02 -0.01 12260
-0.06 1.30 0.40 -1.06 9.81 -0.05 -0.01 -0.01 12267
-0.05 1.30 0.42 -1.09 9.75 -0.04 0.00 -0.00 12274
-0.05 1.29 0.42 -1.08 9.82 -0.03 0.02 0.00 12281
-0.05 1.28 0.42 -1.09 9.80 -0.01 0.04 0.01 12289
-0.05 1.27 0.48 -1.04 9.78 0.00 0.05 0.01 12296
-0.04 1.21 0.49 -1.00 9.67 0.01 0.05 0.01 12303
-0.06 1.21 0.53 -1.03 9.59 0.02 0.05 0.01 12310
-0.07 1.21 0.58 -0.98 9.66 0.03 0.05 0.01 12317
-0.06 1.18 0.54 -0.97 9.65 0.03 0.04 0.00 12324
-0.06 1.11 0.52 -1.06 9.58 0.02 0.06 0.00 12332
-0.07 1.15 0.51 -0.99 9.67 0.01 0.08 0.00 12339
-0.06 1.12 0.51 -0.98 9.72 0.02 0.09 -0.00 12346
-0.05 1.08 0.54 -1.00 9.64 0.03 0.09 -0.01 12353
-0.06 1.05 0.49 -0.96 9.67 0.04 0.08 -0.01 12360
-0.06 1.01 0.52 -1.01 9.78 0.05 0.09 -0.00 12367
-0.05 0.98 0.48 -1.04 9.71 0.06 0.09 -0.01 12375
-0.03 0.95 0.53 -1.03 9.67 0.07 0.09 -0.01 12382
-0.02 0.93 0.55 -1.01 9.72 0.08 0.11 -0.01 12389
-0.04 0.88 0.52 -1.05 9.71 0.09 0.13 -0.01 12396
-0.02 0.84 0.60 -1.05 9.63 0.10 0.13 -0.01 12403
-0.02 0.81 0.59 -1.14 9.76 0.11 0.13 -0.01 12410
-0.02 0.75 0.63 -1.14 9.76 0.12 0.12 -0.01 12418
-0.02 0.73 0.59 -1.15 9.76 0.13 0.10 -0.01 12425
-0.01 0.69 0.63 -1.12 9.75 0.14 0.09 -0.02 12432
-0.02 0.65 0.59 -1.16 9.74 0.14 0.08 -0.02 12439
-0.02 0.65 0.59 -1.21 9.77 0.14 0.09 -0.02 12446
-0.00 0.60 0.70 -1.23 9.77 0.14 0.08 -0.02 12453
0.01 0.51 0.67 -1.25 9.75 0.14 0.07 -0.02 12461
0.01 0.50 0.63 -1.17 10.05 0.15 0.07 -0.03 12468
0.03 0.46 0.69 -1.20 9.73 0.15 0.04 -0.03 12475
0.03 0.40 0.68 -1.27 9.71 0.16 0.03 -0.03 12482
0.03 0.39 0.67 -1.28 9.80 0.17 0.02 -0.03 12489
0.02 0.38 0.71 -1.25 9.75 0.18 0.01 -0.04 12496
0.04 0.32 0.68 -1.29 9.81 0.19 -0.03 -0.04 12504
0.10 0.30 0.63 -1.35 9.82 0.21 -0.01 -0.05 12511
0.10 0.26 0.69 -1.39 9.82 0.22 -0.01 -0.05 12518
0.09 0.25 0.65 -1.38 9.82 0.24 -0.02 -0.05 12525
0.12 0.22 0.63 -1.35 9.82 0.27 -0.02 -0.05 12532
0.09 0.21 0.71 -1.46 9.81 0.29 -0.02 -0.05 12539
0.13 0.18 0.66 -1.49 9.89 0.33 -0.02 -0.06 12547
0.11 0.20 0.62 -1.47 9.88 0.36 0.00 -0.06 12554
0.12 0.15 0.73 -1.43 9.97 0.41 0.04 -0.07 12561
0.16 0.13 0.75 -1.52 10.12 0.48 0.12 -0.09 12569
0.12 0.15 0.49 -1.60 10.33 0.56 0.22 -0.11 12576
0.11 0.15 0.80 -1.63 10.16 0.66 0.32 -0.13 12583
0.15 0.12 0.76 -1.85 10.30 0.77 0.39 -0.14 12591
0.16 0.15 0.51 -1.93 10.26 0.87 0.41 -0.12 12598
0.21 0.14 0.55 -1.99 10.61 1.00 0.38 -0.11 12605
0.22 0.13 0.80 -2.12 10.61 1.11 0.39 -0.11 12612
0.23 0.10 0.75 -2.19 10.81 1.23 0.37 -0.10 12619
0.20 0.14 0.99 -2.06 11.07 1.36 0.33 -0.10 12625
0.23 0.16 0.82 -2.57 11.47 1.48 0.30 -0.10 12634
0.28 0.14 0.84 -2.48 11.31 1.62 0.24 -0.11 12641
0.29 0.14 0.86 -2.76 11.33 1.74 0.21 -0.12 12648
0.34 0.14 0.85 -2.63 11.23 1.90 0.18 -0.12 12655
0.35 0.13 1.17 -2.90 11.47 2.08 0.16 -0.15 12662
0.39 0.11 1.15 -2.96 11.53 2.26 0.14 -0.19 12669
0.42 0.15 1.13 -3.23 12.72 2.48 0.16 -0.23 12677
0.42 0.12 1.16 -3.05 12.42 2.73 0.17 -0.24 12684
0.44 0.11 1.56 -3.32 12.21 2.94 0.18 -0.29 12691
0.44 0.10 1.81 1.64 13.00 3.20 0.23 -0.33 12697
0.38 0.14 0.91 -3.37 12.96 3.43 0.19 -0.33 12705
0.41 0.09 0.95 -3.64 13.94 3.69 0.15 -0.32 12712
0.38 0.10 1.12 -4.20 14.00 3.98 0.10 -0.31 12719
0.30 0.08 2.47 -5.81 13.52 4.20 0.02 -0.34 12726
0.20 0.06 3.12 -5.92 15.79 4.28 -0.06 -0.40 12734
0.20 0.04 3.00 -5.18 18.35 4.28 -0.04 -0.53 12740
0.15 0.05 1.72 -6.07 19.47 4.28 -0.15 -0.57 12748
0.13 0.06 0.80 -7.98 18.49 4.28 -0.53 -0.62 12755
0.11 0.07 1.89 -10.06 19.79 4.28 -0.84 -0.63 12763
0.09 0.04 3.57 -8.87 22.68 4.28 -0.68 -0.62 12770
0.06 0.07 -0.01 -8.83 24.86 4.28 -0.38 -0.64 12777
0.01 0.05 -0.34 -8.07 22.34 4.28 -0.73 -0.59 12784
0.03 0.06 1.37 -7.03 23.00 4.28 -1.21 -0.55 12791
0.00 0.06 4.82 -5.90 23.26 4.28 -1.35 -0.58 12798
0.01 0.08 5.30 -2.62 21.47 4.28 -1.31 -0.63 12806
-0.01 0.10 5.10 0.62 20.62 4.28 -1.09 -0.69 12812
-0.01 0.11 4.98 4.28 20.53 4.28 -0.86 -0.79 12819
-0.01 0.12 3.20 9.21 17.63 4.28 -0.70 -0.81 12826
-0.01 0.13 1.22 22.07 11.86 4.28 -0.50 -0.93 12834
-0.01 0.12 4.09 18.67 18.07 3.29 -0.18 -1.17 12841
-0.01 0.13 3.40 16.66 27.83 0.53 -0.04 -1.17 12849
-0.01 0.12 -0.64 14.26 20.71 -1.22 0.14 -1.01 12856
-0.01 0.13 -1.85 12.49 15.20 -2.29 0.13 -0.91 12863
-0.01 0.11 -2.05 10.43 10.71 -2.65 -0.37 -0.84 12870
-0.01 0.12 -1.94 8.32 7.76 -2.71 -0.79 -0.82 12876
-0.01 0.12 -0.96 6.40 6.85 -2.71 -1.11 -0.80 12883
-0.01 0.11 0.05 5.44 6.95 -2.72 -1.20 -0.78 12891
-0.01 0.12 0.78 4.96 7.54 -2.81 -1.10 -0.74 12898
-0.01 0.12 1.10 4.88 8.32 -2.97 -0.82 -0.69 12905
-0.01 0.12 1.02 4.99 9.27 -3.25 -0.54 -0.64 12912
-0.01 0.14 0.46 4.79 9.94 -3.61 -0.25 -0.61 12919
-0.01 0.14 -0.01 3.99 10.47 -3.94 -0.09 -0.59 12926
-0.01 0.14 -0.63 3.55 10.58 -4.21 -0.03 -0.59 12934
-0.01 0.13 -0.86 2.72 11.24 -4.28 -0.11 -0.58 12941
-0.01 0.13 -0.65 1.29 11.56 -4.28 -0.21 -0.56 12948
-0.01 0.13 -0.10 0.85 11.72 -4.28 -0.27 -0.54 12955
-0.01 0.13 0.29 -0.44 11.81 -4.28 -0.26 -0.49 12962
-0.01 0.15 0.64 -1.58 12.09 -4.28 -0.21 -0.42 12969
-0.01 0.14 0.88 -2.79 12.58 -4.28 -0.15 -0.34 12977
-0.01 0.14 1.07 -3.66 13.14 -4.28 -0.13 -0.26 12984
-0.01 0.13 1.27 -4.28 13.41 -4.28 -0.11 -0.19 12991
-0.01 0.15 1.61 -4.66 13.61 -4.28 -0.12 -0.11 12998
-0.01 0.15 2.05 -4.98 13.84 -4.28 -0.14 -0.04 13006
-0.00 0.15 2.80 -5.26 14.01 -4.28 -0.17 0.05 13014
-0.01 0.16 3.54 -5.45 14.44 -4.28 -0.15 0.15 13021
-0.02 0.15 4.36 -5.53 14.99 -4.28 -0.09 0.24 13027
-0.01 0.15 4.96 -5.69 15.93 -4.28 0.04 0.36 13035
-0.01 0.15 5.12 -5.83 16.56 -4.28 0.16 0.48 13042
-0.01 0.14 5.14 -5.93 17.16 -4.28 0.30 0.62 13048
0.00 0.15 4.82 -6.48 17.51 -4.28 0.46 0.74 13056
-0.01 0.15 4.51 -6.71 17.99 -4.28 0.58 0.83 13064
-0.01 0.14 3.99 -6.91 18.60 -4.22 0.72 0.91 13070
-0.01 0.13 3.39 -7.12 19.04 -4.19 0.85 0.94 13077
-0.01 0.14 2.51 -7.52 19.16 -4.08 0.98 0.95 13084
-0.01 0.14 1.50 -8.19 19.24 -3.92 1.06 0.93 13092
0.00 0.12 0.62 -8.77 19.32 -3.70 1.12 0.88 13100
-0.01 0.12 -0.61 -9.64 19.40 -3.48 1.15 0.80 13106
-0.01 0.13 -1.62 -10.22 19.68 -3.34 1.14 0.67 13114
-0.01 0.13 0.95 -16.99 16.86 -3.16 1.07 0.58 13121
-0.01 0.11 -4.64 -12.18 20.15 -2.86 1.16 0.42 13128
-0.01 0.14 -4.28 -10.07 19.84 -3.05 1.21 0.13 13135
-0.01 0.13 -4.17 -13.86 21.77 -3.66 1.02 -0.22 13143
-0.01 0.13 -4.02 -16.21 20.15 -4.03 1.16 -0.49 13150
-0.01 0.12 -4.28 -18.39 17.39 -4.17 1.75 -0.64 13157
-0.01 0.12 -5.09 -22.74 12.28 -4.17 2.14 -0.87 13164
-0.01 0.14 -6.05 -28.39 8.18 -4.01 2.10 -1.13 13170
-0.01 0.14 -6.87 -37.81 4.09 -3.66 1.84 -1.46 13177
-0.01 0.12 -9.02 -48.00 -0.92 -3.28 1.78 -1.65 13185
-0.01 0.12 -12.00 -53.19 -3.33 -2.50 1.77 -1.58 13193
-0.01 0.12 -15.90 -51.21 -4.65 -1.10 1.14 -1.34 13200
-0.01 0.13 -18.03 -55.50 20.47 1.46 -0.79 -1.14 13207
-0.01 0.15 -6.42 -39.55 -2.85 3.42 -2.17 -1.38 13214
-0.00 0.16 4.62 -3.74 1.40 4.27 -2.31 -1.69 13220
-0.01 0.19 1.05 9.86 14.48 4.28 -1.97 -1.60 13229
-0.02 0.28 2.99 -0.13 22.03 4.13 -1.46 -1.34 13236
-0.03 0.38 5.64 0.90 17.24 3.13 -1.20 -0.87 13243
-0.04 0.46 7.19 -0.22 10.65 2.41 -0.65 -0.35 13250
-0.03 0.51 2.57 -2.62 11.24 2.59 -0.28 0.08 13257
-0.03 0.57 1.33 -3.84 15.38 3.31 0.05 0.31 13264
-0.05 0.67 1.96 -2.68 16.99 3.70 0.37 0.50 13271
-0.05 0.85 -1.38 -4.63 22.98 3.20 0.34 0.59 13279
-0.07 1.02 -3.15 -4.36 18.02 2.63 0.40 0.47 13286
-0.07 1.15 -3.10 -3.89 15.14 2.62 0.40 0.16 13293
-0.06 1.19 -1.02 -2.82 15.05 2.44 0.42 -0.02 13300
-0.04 1.25 0.28 -2.41 13.62 2.15 0.59 -0.05 13307
-0.05 1.31 0.80 -3.16 16.61 1.96 0.45 -0.01 13315
-0.04 1.31 0.95 -2.76 15.29 0.76 -0.41 -0.04 13322
-0.04 1.35 1.06 -2.38 11.64 0.10 -0.31 0.04 13329
-0.05 1.32 -0.10 -1.91 10.39 0.04 -0.17 0.06 13336
-0.07 1.33 0.23 -1.34 10.17 -0.01 -0.08 0.05 13343
-0.07 1.32 0.21 -1.30 10.11 -0.04 -0.02 0.04 13349
-0.06 1.33 0.36 -1.20 10.42 -0.07 0.03 0.04 13357
-0.08 1.30 0.20 -1.41 9.88 -0.10 0.07 0.04 13364
-0.05 1.32 0.42 -1.32 9.92 -0.10 0.08 0.02 13371
-0.07 1.32 0.40 -1.23 9.83 -0.09 0.07 0.02 13378
-0.07 1.36 0.39 -1.25 9.81 -0.08 0.06 0.01 13385
-0.06 1.30 0.42 -1.22 9.77 -0.08 0.05 0.01 13392
-0.07 1.33 0.42 -1.13 9.75 -0.07 0.04 -0.00 13400
-0.06 1.30 0.40 -1.08 9.75 -0.07 0.03 -0.01 13407
-0.07 1.31 0.37 -1.07 9.69 -0.07 0.03 -0.01 13414
-0.07 1.30 0.37 -1.05 9.73 -0.08 0.02 -0.01 13421
-0.06 1.31 0.40 -1.06 9.71 -0.07 0.02 -0.01 13428
-0.07 1.34 0.37 -1.02 9.72 -0.06 0.02 -0.01 13435
-0.08 1.35 0.39 -1.00 9.82 -0.05 0.03 -0.01 13443
-0.05 1.31 0.32 -0.98 9.83 -0.03 0.04 -0.01 13450
-0.06 1.28 0.32 -1.01 9.81 -0.01 0.05 -0.01 13457
-0.05 1.28 0.36 -0.99 9.75 0.01 0.05 -0.00 13464
-0.05 1.28 0.41 -0.97 9.67 0.02 0.05 -0.00 13471
-0.05 1.21 0.42 -0.99 9.70 0.02 0.05 -0.00 13478
-0.03 1.18 0.44 -0.99 9.67 0.02 0.04 -0.00 13486
-0.04 1.16 0.43 -0.96 9.67 0.03 0.03 -0.01 13493
-0.05 1.14 0.44 -0.96 9.73 0.03 0.03 -0.01 13500
-0.04 1.13 0.47 -0.99 9.72 0.03 0.02 -0.02 13507
-0.02 1.12 0.47 -0.97 9.70 0.03 0.00 -0.02 13514
-0.03 1.09 0.44 -1.02 9.68 0.03 -0.01 -0.02 13521
-0.02 1.05 0.40 -1.03 9.64 0.04 -0.01 -0.03 13529
-0.03 0.98 0.40 -1.04 9.70 0.04 -0.00 -0.03 13536
-0.03 1.02 0.37 -1.00 9.70 0.05 -0.00 -0.03 13543
-0.03 0.98 0.39 -1.07 9.76 0.05 0.00 -0.03 13550
-0.03 0.97 0.37 -1.08 9.70 0.05 0.01 -0.03 13557
-0.04 0.96 0.34 -1.04 9.70 0.06 0.02 -0.03 13564
-0.03 0.88 0.37 -1.06 9.75 0.06 0.03 -0.03 13572
-0.03 0.85 0.40 -1.09 9.68 0.06 0.03 -0.03 13579
-0.02 0.85 0.43 -1.09 9.69 0.07 0.03 -0.03 13586
-0.02 0.81 0.45 -1.02 9.68 0.08 0.03 -0.03 13593
-0.02 0.81 0.40 -1.07 9.71 0.08 0.02 -0.04 13600
-0.03 0.81 0.45 -1.08 9.71 0.08 0.01 -0.04 13607
-0.03 0.70 0.45 -1.10 9.73 0.09 0.01 -0.04 13615
-0.03 0.69 0.42 -1.08 9.70 0.10 0.01 -0.04 13622
0.00 0.63 0.35 -1.12 9.75 0.10 0.01 -0.04 13629
0.02 0.62 0.44 -1.17 9.78 0.11 0.00 -0.05 13636
0.02 0.62 0.38 -1.20 9.82 0.12 0.01 -0.05 13643
0.05 0.55 0.38 -1.19 9.83 0.12 0.00 -0.05 13650
0.06 0.56 0.44 -1.18 9.81 0.14 -0.01 -0.05 13658
0.04 0.47 0.46 -1.25 9.82 0.15 -0.02 -0.05 13665
0.06 0.51 0.46 -1.27 9.80 0.17 -0.03 -0.06 13672
0.11 0.45 0.46 -1.19 9.81 0.19 -0.04 -0.06 13679
0.11 0.40 0.44 -1.29 9.83 0.21 -0.05 -0.10 13686
0.14 0.37 0.45 -1.30 9.87 0.23 -0.06 -0.08 13693
0.18 0.34 0.51 -1.40 9.82 0.25 -0.05 -0.08 13701
0.17 0.28 0.43 -1.37 9.83 0.27 -0.04 -0.09 13708
0.18 0.26 0.42 -1.41 9.92 0.30 -0.01 -0.10 13715
0.26 0.24 0.50 -1.40 9.95 0.33 0.02 -0.11 13722
0.29 0.20 0.45 -1.49 9.95 0.38 0.06 -0.12 13729
0.29 0.16 0.49 -1.51 10.10 0.42 0.09 -0.13 13737
0.28 0.14 0.62 -1.43 10.12 0.47 0.12 -0.16 13745
0.28 0.11 0.76 -1.54 10.18 0.54 0.17 -0.19 13752
0.30 0.15 0.79 -1.87 10.86 0.65 0.27 -0.24 13759
0.36 0.13 -0.00 -1.81 11.27 0.94 0.35 -0.19 13766
0.38 0.14 0.40 -1.90 10.88 1.16 0.31 -0.14 13773
0.37 0.10 0.36 -2.00 11.06 1.31 0.31 -0.14 13780
0.37 0.15 0.48 -2.30 11.65 1.44 0.26 -0.13 13788
0.40 0.13 -0.24 -2.55 11.54 1.58 0.23 -0.12 13795
0.46 0.14 0.49 -2.17 11.50 1.74 0.22 -0.10 13802
0.49 0.14 0.64 -2.40 11.85 1.93 0.18 -0.11 13809
0.52 0.17 0.58 -2.64 11.79 2.10 0.19 -0.12 13816
0.53 0.14 0.66 -2.83 12.17 2.34 0.20 -0.13 13824
0.53 0.13 0.60 -2.68 12.69 2.54 0.20 -0.15 13831
0.55 0.12 0.91 -3.03 10.20 2.79 0.24 -0.18 13838
0.58 0.15 0.90 -3.34 13.52 3.08 0.26 -0.22 13845
0.57 0.19 1.02 -3.06 12.96 3.33 0.22 -0.24 13852
0.56 0.13 0.98 -3.14 13.15 3.60 0.18 -0.26 13859
0.55 0.13 1.08 -3.04 13.61 3.83 0.14 -0.28 13867
0.49 0.12 1.67 -3.76 14.04 4.12 0.06 -0.30 13874
0.40 0.12 1.57 -4.80 14.84 4.25 -0.14 -0.34 13881
0.36 0.09 1.39 -5.25 15.64 4.28 -0.23 -0.39 13888
0.24 0.09 1.90 -5.32 18.66 4.28 -0.31 -0.43 13895
0.15 0.06 1.25 -5.68 19.71 4.28 -0.51 -0.47 13902
0.15 0.05 2.33 -7.71 18.06 4.28 -0.67 -0.51 13910
0.13 0.05 1.60 -9.99 20.08 4.28 -0.82 -0.65 13917
0.07 0.09 0.28 -8.58 24.10 4.28 -0.97 -0.71 13924
0.06 0.08 -2.19 -9.17 27.38 4.28 -1.01 -0.60 13931
0.06 0.08 -0.99 -8.65 23.26 4.28 -1.52 -0.54 13938
-0.01 0.06 1.85 -7.04 25.37 4.28 -1.99 -0.53 13944
-0.01 0.08 4.77 -5.27 25.00 4.28 -2.15 -0.56 13952
-0.01 0.10 5.76 -1.07 22.61 4.28 -2.10 -0.59 13959
0.03 0.10 6.89 1.92 22.23 4.28 -1.81 -0.66 13967
-0.01 0.13 6.65 5.93 20.80 4.28 -1.36 -0.75 13973
-0.01 0.13 6.23 16.81 17.26 4.28 -1.00 -0.80 13981
-0.01 0.11 4.79 25.29 12.89 4.27 -0.34 -1.06 13988
-0.02 0.15 7.04 19.86 24.74 2.56 0.38 -1.30 13996
-0.02 0.17 3.57 17.60 28.12 -0.36 0.70 -1.34 14003
-0.02 0.16 -0.86 15.42 19.72 -2.00 0.92 -1.27 14010
-0.01 0.13 -0.91 13.05 12.63 -2.55 0.65 -1.20 14017
-0.01 0.15 -0.96 10.94 9.13 -2.65 0.09 -1.15 14023
-0.01 0.12 -0.25 8.68 6.26 -2.59 -0.25 -1.09 14030
-0.01 0.13 0.68 7.21 5.59 -2.54 -0.37 -1.01 14038
-0.01 0.13 1.31 6.14 6.25 -2.55 -0.33 -0.88 14045
-0.00 0.15 1.45 6.07 7.40 -2.65 -0.18 -0.73 14052
-0.01 0.14 1.15 6.53 8.78 -2.94 0.06 -0.59 14059
-0.01 0.14 0.69 6.70 10.39 -3.31 0.28 -0.43 14066
-0.01 0.14 -0.05 6.47 11.25 -3.81 0.39 -0.29 14073
-0.01 0.15 -0.71 5.74 11.55 -4.19 0.40 -0.17 14081
-0.02 0.15 -0.73 4.62 11.50 -4.28 0.35 -0.09 14088
-0.00 0.15 -0.60 3.42 11.51 -4.28 0.30 -0.07 14095
-0.01 0.16 -0.45 1.93 11.57 -4.28 0.32 -0.06 14103
-0.02 0.16 -0.55 0.07 11.78 -4.28 0.42 -0.08 14109
-0.02 0.15 -0.95 -0.70 12.20 -4.28 0.56 -0.12 14116
-0.01 0.14 -1.66 -2.02 12.89 -4.28 0.69 -0.18 14124
-0.02 0.15 -2.25 -2.80 14.03 -4.28 0.71 -0.26 14131
0.00 0.15 -2.68 -3.55 13.92 -4.28 0.71 -0.39 14139
-0.02 0.15 -2.87 -4.24 14.32 -4.28 0.69 -0.51 14145
-0.01 0.14 -2.58 -4.75 14.56 -4.28 0.68 -0.61 14152
-0.01 0.14 -2.09 -4.99 14.80 -4.28 0.69 -0.67 14159
-0.01 0.15 -1.65 -5.18 15.36 -4.28 0.70 -0.69 14168
-0.01 0.16 -1.09 -5.31 15.87 -4.28 0.73 -0.66 14175
0.00 0.15 -0.05 -5.53 16.71 -4.28 0.78 -0.57 14181
-0.01 0.17 -0.39 -5.93 17.23 -4.28 0.85 -0.45 14189
-0.01 0.15 -0.39 -6.44 17.61 -4.28 0.88 -0.28 14195
-0.02 0.16 -0.12 -6.73 17.98 -4.28 0.90 -0.12 14202
-0.02 0.15 0.25 -7.02 18.49 -4.28 0.92 0.07 14210
-0.01 0.17 0.37 -7.23 19.17 -4.25 1.03 0.26 14218
-0.00 0.16 0.26 -7.47 19.69 -4.20 1.10 0.39 14225
-0.02 0.15 -0.20 -7.95 19.93 -4.11 1.18 0.52 14231
-0.01 0.13 -0.59 -8.63 20.06 -4.04 1.23 0.63 14238
-0.01 0.15 -1.17 -9.68 20.34 -3.85 1.24 0.65 14245
-0.02 0.16 -9.13 -24.69 31.04 -3.58 1.18 0.87 14254
-0.02 0.16 15.97 -10.52 -6.37 -2.36 2.03 0.98 14261
-0.02 0.15 -2.62 -11.64 5.02 -2.81 1.13 0.77 14267
-0.01 0.14 -9.11 -15.70 35.99 -2.67 0.81 0.70 14275
-0.01 0.14 -7.31 -16.21 22.32 -3.18 0.67 0.49 14282
-0.01 0.13 -4.49 -14.50 16.93 -3.71 0.53 0.27 14289
-0.01 0.13 -3.77 -17.62 18.25 -4.04 0.69 0.17 14297
-0.01 0.15 -4.15 -20.72 13.46 -4.09 1.03 0.09 14304
-0.01 0.12 -4.50 -25.81 8.46 -3.89 1.22 -0.05 14310
-0.01 0.14 -4.50 -31.37 5.38 -3.49 1.14 -0.32 14317
-0.01 0.15 -4.90 -38.77 1.45 -3.08 1.09 -0.69 14324
-0.01 0.15 -6.44 -44.07 -1.70 -2.49 1.30 -0.93 14331
-0.01 0.15 -9.66 -45.82 -2.65 -1.59 1.45 -0.91 14340
-0.01 0.14 -11.92 -42.01 -2.47 -0.55 0.94 -0.84 14347
-0.01 0.14 -9.29 -48.55 -7.33 1.13 -0.51 -0.81 14353
-0.02 0.16 -7.81 -35.87 -2.46 3.17 -1.63 -1.00 14360
-0.02 0.18 0.82 -11.88 1.40 4.08 -1.58 -1.27 14367
-0.02 0.19 1.71 5.05 15.45 4.27 -1.48 -1.27 14374
-0.02 0.26 3.29 2.59 18.41 3.99 -0.93 -1.05 14383
-0.02 0.40 6.98 -0.14 15.80 2.95 -0.69 -0.73 14390
-0.04 0.46 7.61 1.95 10.28 2.22 -0.50 -0.24 14397
-0.04 0.53 3.29 -1.76 11.14 2.37 -0.54 0.13 14404
-0.04 0.59 1.39 -2.54 14.43 3.14 -0.40 0.35 14411
-0.04 0.65 2.18 -2.14 13.39 3.67 -0.07 0.59 14418
-0.05 0.75 -0.66 -3.78 22.21 3.51 0.37 0.79 14426
-0.03 0.94 -4.32 -4.78 19.59 2.74 0.47 0.70 14433
-0.05 1.08 -4.43 -3.85 14.17 2.63 0.36 0.22 14440
-0.04 1.13 -1.64 -3.01 14.93 2.60 0.33 -0.09 14447
-0.05 1.23 1.00 -2.47 14.32 2.24 0.55 -0.12 14454
-0.05 1.28 2.01 -3.27 17.07 2.01 0.56 -0.02 14461
-0.04 1.26 1.03 -3.31 17.31 0.72 -0.37 0.03 14469
-0.07 1.28 0.66 -2.42 11.52 0.07 -0.30 0.08 14476
-0.07 1.29 -0.35 -2.31 10.85 -0.05 -0.14 0.07 14483
-0.05 1.23 0.23 -1.46 10.00 -0.09 -0.01 0.04 14489
-0.04 1.28 0.58 -1.29 9.77 -0.11 0.02 0.03 14496
-0.07 1.24 0.48 -1.29 9.74 -0.12 0.02 0.02 14503
-0.06 1.28 0.32 -1.21 9.89 -0.14 0.01 0.01 14511
-0.08 1.31 0.41 -1.37 9.86 -0.13 0.01 0.00 14518
-0.05 1.30 0.25 -1.24 9.61 -0.11 0.01 -0.01 14525
-0.09 1.33 0.24 -1.26 9.72 -0.11 0.02 -0.02 14532
-0.09 1.40 0.31 -1.19 9.78 -0.11 0.02 -0.02 14539
-0.09 1.40 0.34 -1.19 9.79 -0.10 0.03 -0.02 14546
-0.07 1.38 0.40 -1.15 9.73 -0.10 0.03 -0.02 14554
-0.08 1.37 0.33 -1.17 9.77 -0.09 0.03 -0.03 14561
-0.08 1.36 0.30 -1.10 9.80 -0.08 0.03 -0.02 14568
-0.10 1.34 0.29 -1.10 9.79 -0.07 0.04 -0.03 14575
-0.07 1.33 0.26 -1.07 9.82 -0.05 0.06 -0.02 14582
-0.07 1.39 0.25 -1.04 9.75 -0.04 0.08 -0.02 14589
-0.06 1.33 0.29 -0.99 9.73 -0.02 0.09 -0.02 14597
-0.06 1.28 0.33 -1.03 9.81 -0.00 0.10 -0.01 14604
-0.06 1.31 0.35 -1.00 9.76 0.02 0.09 -0.01 14611
-0.06 1.24 0.38 -1.03 9.71 0.03 0.10 -0.01 14618
-0.05 1.21 0.37 -1.02 9.70 0.04 0.09 -0.01 14625
-0.05 1.19 0.40 -1.01 9.72 0.05 0.09 -0.01 14632
-0.05 1.14 0.46 -1.00 9.74 0.05 0.08 -0.01 14640
-0.05 1.10 0.46 -1.04 9.70 0.05 0.07 -0.02 14647
-0.04 1.03 0.50 -1.07 9.67 0.05 0.05 -0.03 14654
-0.04 1.07 0.44 -1.05 9.70 0.05 0.04 -0.03 14661
-0.03 1.03 0.47 -1.06 9.68 0.05 0.02 -0.03 14668
-0.02 1.01 0.43 -1.11 9.69 0.05 0.01 -0.04 14675
-0.02 0.96 0.37 -1.08 9.69 0.04 0.01 -0.04 14683
-0.02 0.97 0.39 -1.08 9.73 0.04 0.02 -0.04 14690
-0.02 0.95 0.38 -1.10 9.73 0.04 0.02 -0.03 14697
-0.04 0.89 0.36 -1.13 9.69 0.05 0.03 -0.04 14704
-0.03 0.86 0.38 -1.12 9.72 0.05 0.03 -0.04 14711
0.01 0.82 0.42 -1.12 9.68 0.05 0.03 -0.04 14718
-0.01 0.84 0.47 -1.12 9.71 0.06 0.02 -0.04 14726
-0.02 0.80 0.43 -1.11 9.73 0.06 0.01 -0.04 14733
-0.04 0.79 0.38 -1.13 9.69 0.06 -0.00 -0.04 14740
-0.03 0.74 0.46 -1.12 9.71 0.04 -0.02 -0.05 14747
-0.01 0.75 0.44 -1.14 9.71 0.07 -0.03 -0.05 14754
-0.02 0.73 0.44 -1.14 9.76 0.08 -0.04 -0.05 14761
-0.00 0.68 0.42 -1.20 9.74 0.09 -0.06 -0.06 14769
-0.00 0.71 0.48 -1.19 9.79 0.09 -0.06 -0.06 14776
0.01 0.67 0.39 -1.20 9.78 0.11 -0.07 -0.06 14783
0.02 0.62 0.40 -1.19 9.77 0.12 -0.08 -0.06 14790
0.06 0.57 0.37 -1.25 9.75 0.13 -0.07 -0.07 14797
0.11 0.56 0.36 -1.21 9.82 0.14 -0.07 -0.07 14804
0.10 0.50 0.30 -1.22 9.78 0.15 -0.05 -0.08 14812
0.12 0.46 0.34 -1.31 9.83 0.15 -0.02 -0.08 14819
0.11 0.47 0.39 -1.31 9.75 0.16 -0.01 -0.08 14826
0.11 0.47 0.33 -1.21 9.83 0.18 0.01 -0.08 14833
0.16 0.41 0.29 -1.40 9.83 0.19 0.02 -0.09 14840
0.16 0.35 0.43 -1.37 9.86 0.21 0.04 -0.08 14848
0.21 0.33 0.39 -1.37 9.86 0.24 0.04 -0.08 14855
0.20 0.28 0.46 -1.37 9.91 0.26 0.04 -0.09 14862
0.24 0.25 0.52 -1.34 9.93 0.30 0.06 -0.10 14869
0.31 0.20 0.47 -1.45 10.07 0.34 0.07 -0.11 14876
0.28 0.22 0.51 -1.48 10.03 0.39 0.09 -0.13 14884
0.33 0.16 0.52 -1.52 10.10 0.45 0.12 -0.14 14892
0.33 0.16 0.68 -1.49 10.20 0.51 0.15 -0.16 14899
0.33 0.15 0.82 -1.72 10.31 0.59 0.19 -0.20 14906
0.38 0.12 0.45 -1.94 10.61 0.77 0.24 -0.23 14913
0.38 0.09 0.21 -1.90 11.05 1.02 0.24 -0.18 14919
0.42 0.12 0.52 -1.99 10.80 1.18 0.21 -0.17 14927
0.46 0.15 0.29 -2.03 10.75 1.27 0.16 -0.17 14935
0.48 0.14 0.22 -2.07 10.90 1.38 0.12 -0.16 14942
0.53 0.15 0.38 -2.40 11.36 1.49 0.07 -0.15 14949
0.53 0.12 0.31 -2.13 11.37 1.60 0.06 -0.13 14956
0.56 0.15 0.39 -2.50 11.36 1.76 0.03 -0.12 14963
0.58 0.15 0.63 -2.71 11.52 1.95 0.00 -0.14 14970
0.59 0.16 0.93 -3.06 11.97 2.12 -0.02 -0.16 14978
0.65 0.10 0.90 -2.66 12.38 2.34 -0.04 -0.20 14985
0.66 0.14 0.73 -2.85 12.64 2.52 -0.06 -0.24 14992
0.67 0.15 0.75 -3.06 13.13 2.77 -0.07 -0.26 14999
0.70 0.21 0.87 -2.85 13.40 3.07 -0.11 -0.28 15006
0.69 0.17 0.95 -3.54 13.47 3.28 -0.18 -0.30 15013
0.72 0.09 1.48 -3.60 13.27 3.54 -0.29 -0.34 15021
0.71 0.10 0.40 -3.66 12.24 3.74 -0.34 -0.39 15028
0.65 0.09 0.94 -3.76 13.78 4.03 -0.41 -0.42 15035
0.59 0.06 1.09 -4.21 15.20 4.23 -0.60 -0.43 15042
0.53 0.06 1.50 -4.62 15.69 4.28 -0.84 -0.45 15049
0.41 0.06 1.17 -5.85 16.81 4.28 -1.03 -0.48 15056
0.34 0.04 2.23 -6.41 16.32 4.28 -1.02 -0.48 15064
0.19 0.05 4.26 -7.19 16.76 4.28 -0.90 -0.55 15071
0.16 0.08 2.12 -7.75 17.92 4.28 -0.83 -0.76 15078
0.10 0.06 -1.78 -8.96 21.99 4.28 -0.98 -0.91 15085
0.09 0.06 -2.13 -9.20 23.08 4.28 -1.49 -0.84 15092
0.07 0.08 -1.91 -9.83 23.12 4.28 -1.58 -0.69 15099
0.01 0.10 0.52 -9.06 23.12 4.28 -1.72 -0.71 15107
0.01 0.07 2.03 -8.14 23.77 4.28 -1.95 -0.65 15114
0.01 0.10 4.62 -4.71 22.77 4.28 -1.97 -0.60 15121
0.00 0.11 5.00 -2.03 21.28 4.28 -1.76 -0.62 15128
-0.00 0.11 5.66 1.38 20.32 4.28 -1.36 -0.71 15135
-0.01 0.13 5.14 5.06 19.15 4.28 -1.03 -0.77 15141
-0.01 0.12 4.11 12.31 16.81 4.28 -0.66 -0.88 15150
-0.01 0.14 5.02 14.79 10.42 4.28 -0.38 -1.10 15157
-0.01 0.13 5.23 14.83 22.00 2.98 0.21 -1.25 15164
-0.02 0.16 2.58 14.85 24.48 0.32 0.53 -1.29 15171
-0.01 0.15 0.35 12.49 18.43 -1.28 0.60 -1.12 15178
-0.01 0.12 -0.49 10.42 14.07 -2.31 0.34 -0.96 15185
-0.01 0.12 -0.40 7.93 10.07 -2.67 -0.05 -0.80 15192
-0.01 0.11 0.18 6.37 6.98 -2.74 -0.27 -0.67 15199
-0.01 0.11 0.88 5.16 5.76 -2.71 -0.40 -0.54 15206
-0.01 0.14 1.35 4.48 5.75 -2.68 -0.43 -0.39 15213
-0.01 0.13 1.71 4.28 6.45 -2.73 -0.39 -0.25 15220
-0.01 0.12 1.68 4.92 7.81 -2.89 -0.25 -0.06 15227
-0.01 0.12 1.58 5.56 9.36 -3.24 -0.08 0.09 15235
-0.01 0.13 1.41 5.90 10.17 -3.73 0.12 0.23 15242
-0.01 0.12 1.29 5.50 10.61 -4.12 0.30 0.35 15249
-0.01 0.14 1.21 4.53 10.63 -4.28 0.40 0.40 15256
-0.01 0.13 0.97 3.11 10.32 -4.28 0.49 0.42 15263
-0.01 0.13 0.63 1.36 10.38 -4.28 0.56 0.43 15270
-0.01 0.12 0.12 0.67 10.33 -4.28 0.63 0.41 15278
-0.01 0.14 -0.39 -0.53 10.57 -4.28 0.67 0.40 15285
-0.01 0.13 -0.86 -1.48 10.92 -4.28 0.68 0.36 15292
-0.01 0.13 -1.31 -2.39 11.66 -4.28 0.65 0.31 15300
-0.01 0.13 -1.56 -3.17 12.60 -4.28 0.62 0.23 15306
-0.01 0.13 -1.70 -3.73 13.21 -4.28 0.60 0.15 15313
-0.01 0.13 -1.79 -4.05 13.62 -4.28 0.58 0.06 15321
-0.01 0.13 -1.73 -4.26 13.82 -4.28 0.54 -0.01 15328
-0.01 0.14 -1.24 -4.44 13.86 -4.28 0.49 -0.05 15335
0.00 0.14 -0.73 -4.61 14.14 -4.28 0.46 -0.05 15343
-0.01 0.14 -0.17 -4.83 14.63 -4.28 0.46 -0.01 15350
-0.01 0.14 0.28 -5.01 15.53 -4.28 0.50 0.07 15356
-0.01 0.13 0.61 -5.31 16.45 -4.28 0.56 0.16 15364
-0.01 0.13 0.81 -5.75 16.86 -4.28 0.61 0.29 15372
-0.01 0.16 0.96 -6.18 17.53 -4.28 0.63 0.42 15379
-0.00 0.16 1.20 -6.47 17.96 -4.28 0.63 0.53 15386
-0.01 0.15 1.51 -6.83 18.57 -4.27 0.68 0.65 15393
-0.02 0.16 1.41 -7.24 19.43 -4.24 0.76 0.74 15399
-0.02 0.17 1.16 -7.78 19.79 -4.18 0.86 0.81 15407
-0.01 0.16 0.45 -8.56 19.92 -4.10 0.92 0.86 15415
-0.02 0.18 0.02 -9.31 20.02 -3.92 0.93 0.86 15421
0.00 0.15 -0.42 -10.29 20.12 -3.70 0.90 0.84 15429
-0.01 0.15 -0.72 -11.65 19.91 -3.50 0.87 0.80 15436
-0.01 0.14 -2.90 -20.37 16.02 -2.74 1.01 0.97 15443
-0.02 0.16 2.85 -9.62 9.76 -2.73 1.12 0.79 15450
-0.01 0.15 -2.26 -11.06 19.91 -3.02 0.81 0.62 15458
-0.01 0.16 -4.69 -16.66 28.49 -3.42 0.77 0.48 15465
-0.01 0.13 -3.27 -15.13 21.33 -3.79 0.85 0.32 15472
-0.01 0.15 -2.23 -16.77 15.46 -4.05 0.97 0.21 15479
-0.01 0.11 -2.81 -20.77 11.68 -4.03 1.21 0.03 15486
-0.01 0.11 -3.70 -25.76 8.13 -3.74 1.39 -0.20 15493
-0.01 0.12 -4.91 -32.49 5.07 -3.25 1.47 -0.58 15500
-0.01 0.12 -7.65 -39.55 0.88 -2.82 1.57 -0.91 15507
-0.01 0.12 -10.35 -43.44 -1.68 -2.18 1.59 -1.02 15515
-0.01 0.12 -13.71 -42.93 -2.77 -1.19 1.20 -0.94 15522
-0.01 0.11 -14.32 -37.21 -2.07 -0.10 0.29 -0.86 15529
-0.01 0.11 -11.05 -31.40 -0.09 1.11 -1.04 -0.79 15537
-0.01 0.14 -3.33 -33.47 15.44 2.86 -1.88 -0.99 15544
-0.01 0.12 4.58 -21.06 2.56 3.74 -1.19 -1.35 15551
-0.02 0.16 2.33 -1.81 9.71 4.16 -0.77 -1.39 15557
-0.02 0.24 0.37 4.33 17.81 4.01 -0.84 -1.36 15564
-0.03 0.30 5.83 -0.75 16.65 3.17 -0.75 -1.12 15571
-0.04 0.45 8.99 0.80 11.63 2.63 -0.59 -0.63 15580
-0.03 0.48 6.32 -0.36 9.38 2.50 -0.56 -0.17 15586
-0.04 0.59 2.64 -2.49 12.70 3.00 -0.61 0.24 15594
-0.04 0.57 2.40 -2.16 13.44 3.45 -0.34 0.57 15601
-0.04 0.58 1.17 -2.25 14.88 3.63 -0.05 0.78 15608
-0.06 0.75 -2.34 -4.13 18.97 3.32 0.35 0.92 15616
-0.03 0.85 -5.55 -4.54 16.44 2.94 0.36 0.65 15623
-0.01 0.98 -5.01 -4.28 15.54 2.86 0.26 0.15 15630
0.02 1.08 -0.91 -3.07 14.97 2.68 0.35 -0.22 15637
-0.00 1.16 3.74 -5.69 33.44 1.85 0.28 -0.23 15644
-0.05 1.22 2.52 -1.55 11.64 -0.25 -0.22 -0.00 15651
-0.07 1.21 0.25 -3.48 11.52 -0.30 -0.13 0.02 15659
-0.05 1.32 -0.09 -1.85 10.15 -0.15 -0.07 0.01 15666
-0.06 1.30 0.04 -1.54 10.10 -0.13 -0.04 -0.01 15673
-0.07 1.29 0.17 -1.41 9.63 -0.11 -0.02 -0.01 15679
-0.07 1.28 0.17 -1.25 9.76 -0.11 -0.02 -0.01 15686
-0.07 1.30 0.15 -1.23 9.81 -0.13 -0.01 -0.02 15693
-0.08 1.27 0.23 -1.35 9.83 -0.12 -0.00 -0.03 15700
-0.05 1.34 0.25 -1.19 9.84 -0.10 -0.00 -0.03 15708
-0.05 1.31 0.13 -1.21 9.80 -0.09 0.01 -0.04 15715
-0.05 1.32 0.13 -1.23 9.76 -0.08 0.02 -0.05 15722
-0.05 1.35 0.23 -1.21 9.72 -0.08 0.07 -0.05 15729
-0.05 1.31 0.25 -1.21 9.78 -0.09 0.04 -0.05 15736
-0.06 1.34 0.20 -1.17 9.80 -0.08 0.04 -0.05 15744
-0.05 1.36 0.19 -1.16 9.76 -0.07 0.05 -0.06 15751
-0.04 1.40 0.14 -1.10 9.75 -0.06 0.05 -0.05 15758
-0.05 1.41 0.18 -1.07 9.80 -0.05 0.05 -0.05 15765
-0.05 1.36 0.17 -1.04 9.78 -0.03 0.06 -0.05 15772
-0.06 1.35 0.20 -1.06 9.78 -0.02 0.06 -0.06 15779
-0.04 1.32 0.24 -1.06 9.82 0.01 0.05 -0.05 15787
-0.04 1.30 0.20 -1.06 9.79 0.03 0.05 -0.05 15794
-0.03 1.26 0.23 -1.07 9.75 0.04 0.04 -0.05 15801
-0.03 1.25 0.27 -1.08 9.75 0.05 0.04 -0.05 15808
-0.03 1.20 0.25 -1.12 9.72 0.06 0.03 -0.05 15815
-0.03 1.18 0.27 -1.08 9.71 0.06 0.03 -0.05 15822
-0.03 1.13 0.25 -1.09 9.71 0.06 0.02 -0.05 15830
-0.02 1.09 0.27 -1.10 9.67 0.06 0.02 -0.05 15837
-0.03 1.03 0.26 -1.10 9.69 0.06 0.01 -0.05 15844
-0.02 1.04 0.23 -1.13 9.68 0.05 -0.00 -0.06 15851
-0.01 1.04 0.22 -1.17 9.70 0.05 -0.02 -0.06 15858
-0.01 1.05 0.24 -1.18 9.68 0.04 -0.02 -0.06 15865
0.00 1.06 0.20 -1.18 9.68 0.04 -0.02 -0.07 15873
0.03 1.04 0.22 -1.20 9.72 0.03 -0.03 -0.07 15880
0.03 0.96 0.24 -1.18 9.75 0.03 -0.03 -0.08 15887
0.03 0.97 0.24 -1.13 9.81 0.04 -0.04 -0.08 15894
0.05 0.98 0.26 -1.14 9.74 0.05 -0.05 -0.08 15901
0.06 0.93 0.26 -1.16 9.70 0.06 -0.05 -0.09 15908
0.11 0.91 0.18 -1.15 9.77 0.07 -0.06 -0.10 15916
0.11 0.86 0.19 -1.18 9.75 0.08 -0.07 -0.10 15923
0.13 0.78 0.17 -1.25 9.80 0.10 -0.07 -0.10 15930
0.15 0.76 0.15 -1.22 9.79 0.11 -0.07 -0.10 15937
0.17 0.67 0.11 -1.22 9.76 0.12 -0.07 -0.10 15944
0.21 0.67 0.17 -1.31 9.87 0.13 -0.07 -0.10 15951
0.25 0.62 0.16 -1.25 9.83 0.16 -0.07 -0.11 15959
0.36 0.62 0.05 -1.16 9.82 0.17 -0.07 -0.11 15966
0.33 0.55 0.18 -1.33 9.75 0.19 -0.07 -0.11 15973
0.38 0.50 0.26 -1.45 9.90 0.21 -0.07 -0.13 15980
0.40 0.43 0.23 -1.16 9.91 0.23 -0.08 -0.13 15987
0.45 0.44 0.02 -1.49 9.78 0.25 -0.08 -0.14 15994
0.50 0.43 0.15 -1.48 9.89 0.28 -0.07 -0.15 16002
0.52 0.34 0.32 -1.77 10.13 0.31 -0.07 -0.20 16010
0.55 0.28 0.39 -1.60 9.97 0.35 -0.07 -0.19 16016
0.59 0.21 0.26 -1.56 10.10 0.39 -0.08 -0.22 16024
0.63 0.19 0.23 -1.61 10.26 0.46 -0.10 -0.24 16031
0.64 0.17 0.28 -1.62 10.29 0.56 -0.15 -0.27 16038
0.70 0.17 0.33 -1.72 10.44 0.62 -0.18 -0.29 16046
0.72 0.15 0.14 -1.72 10.43 0.69 -0.18 -0.30 16053
0.74 0.13 0.26 -1.99 10.53 0.77 -0.17 -0.32 16060
0.81 0.10 0.64 -1.54 10.55 0.93 -0.14 -0.32 16067
0.83 0.12 -0.06 -1.96 10.73 1.12 -0.17 -0.29 16074
0.82 0.15 0.51 -2.27 10.49 1.19 -0.19 -0.28 16081
0.85 0.16 -0.14 -2.10 10.90 1.26 -0.19 -0.27 16089
0.84 0.16 -0.40 -2.20 10.94 1.35 -0.24 -0.22 16096
0.92 0.16 -0.40 -2.38 11.06 1.46 -0.24 -0.18 16103
0.94 0.14 -0.32 -2.40 11.38 1.58 -0.26 -0.15 16110
0.98 0.17 -0.51 -2.55 11.83 1.73 -0.26 -0.11 16117
1.01 0.19 0.08 -2.86 12.09 1.93 -0.28 -0.10 16124
1.06 0.16 0.49 -3.03 13.73 2.19 -0.27 -0.14 16132
1.07 0.19 0.83 -3.59 13.12 2.42 -0.33 -0.19 16139
1.08 0.13 -0.06 -3.88 12.79 2.69 -0.39 -0.25 16146
1.08 0.21 -0.49 -3.48 13.08 2.92 -0.44 -0.26 16153
1.05 0.22 -0.48 -3.40 13.69 3.19 -0.50 -0.27 16160
1.02 0.16 0.04 -3.48 12.03 3.50 -0.67 -0.28 16167
1.01 0.19 0.21 -3.45 12.68 3.73 -0.63 -0.29 16175
0.89 0.19 0.95 -3.87 13.64 4.08 -0.67 -0.34 16182
0.83 0.11 0.52 -4.12 14.76 4.25 -0.90 -0.41 16189
0.68 0.08 1.79 -4.84 14.87 4.28 -1.04 -0.50 16196
0.55 0.08 1.73 -5.39 15.45 4.28 -1.36 -0.64 16203
0.42 0.10 1.36 -6.40 18.71 4.28 -1.25 -0.76 16210
0.34 0.08 0.93 -6.93 18.39 4.28 -1.19 -0.85 16218
0.31 0.05 0.26 -7.39 20.41 4.28 -1.13 -0.93 16225
0.16 0.07 -1.22 -8.55 21.75 4.28 -1.11 -1.01 16232
0.03 0.05 -3.41 -9.22 22.61 4.28 -1.11 -0.98 16239
0.04 0.06 -2.67 -9.89 25.33 4.28 -1.24 -0.85 16246
0.02 0.11 -0.52 -9.36 25.49 4.28 -1.63 -0.86 16253
0.01 0.08 1.82 -6.75 24.32 4.28 -1.98 -0.87 16261
-0.01 0.07 4.40 -3.05 22.41 4.28 -1.94 -0.88 16267
-0.01 0.08 5.71 0.58 20.82 4.28 -1.64 -0.95 16274
-0.01 0.07 5.98 4.79 18.22 4.28 -1.17 -1.05 16281
-0.01 0.13 6.09 8.99 17.23 4.28 -0.92 -1.15 16288
-0.01 0.13 7.44 12.49 10.48 4.28 -0.75 -1.20 16296
-0.01 0.13 6.16 11.95 21.90 3.57 0.07 -1.27 16304
-0.01 0.13 4.62 12.92 25.31 1.13 0.64 -1.21 16311
-0.01 0.12 1.99 12.04 19.42 -0.45 0.63 -0.88 16318
-0.01 0.13 0.59 10.33 13.69 -1.59 0.39 -0.61 16325
-0.02 0.15 0.93 7.89 10.50 -2.11 0.04 -0.34 16331
-0.01 0.16 1.53 6.20 7.94 -2.25 -0.12 -0.10 16338
-0.02 0.16 2.03 5.67 6.40 -2.26 -0.15 0.07 16346
-0.02 0.16 2.34 5.28 5.76 -2.26 -0.07 0.24 16353
-0.01 0.15 2.34 5.14 6.64 -2.32 0.05 0.36 16360
-0.02 0.15 1.94 5.38 6.59 -2.47 0.25 0.49 16367
-0.02 0.18 1.36 5.81 7.41 -2.67 0.43 0.58 16374
-0.02 0.16 0.46 6.10 8.22 -2.98 0.61 0.62 16381
-0.02 0.16 -0.33 6.03 8.71 -3.26 0.72 0.64 16389
-0.02 0.16 -0.97 5.78 9.16 -3.58 0.78 0.61 16396
-0.02 0.16 -1.53 5.11 9.12 -3.85 0.81 0.51 16403
-0.02 0.16 -2.40 4.08 9.37 -4.03 0.89 0.36 16410
-0.02 0.18 -2.07 3.17 9.74 -4.15 1.00 0.20 16417
-0.01 0.16 -2.54 2.01 10.11 -4.21 1.19 -0.02 16425
-0.02 0.16 -3.21 1.05 10.72 -4.26 1.35 -0.24 16432
-0.01 0.14 -4.06 0.22 11.32 -4.28 1.48 -0.40 16439
-0.02 0.15 -4.70 -0.62 12.07 -4.28 1.52 -0.55 16446
-0.02 0.15 -5.02 -1.41 13.48 -4.28 1.51 -0.66 16453
-0.01 0.16 -5.32 -2.18 13.50 -4.28 1.47 -0.76 16461
-0.01 0.15 -5.39 -2.75 13.80 -4.28 1.42 -0.82 16468
-0.01 0.15 -5.33 -3.29 14.27 -4.28 1.35 -0.84 16475
-0.01 0.14 -5.04 -3.58 14.26 -4.28 1.28 -0.81 16483
-0.01 0.14 -4.69 -3.95 15.27 -4.28 1.22 -0.76 16489
-0.01 0.15 -4.11 -4.19 15.23 -4.28 1.20 -0.65 16497
0.00 0.16 -3.00 -5.75 15.90 -4.28 1.20 -0.49 16503
-0.01 0.16 -2.37 -4.31 16.69 -4.28 1.15 -0.31 16512
-0.02 0.16 -4.70 -6.04 18.25 -4.28 1.18 -0.10 16518
-0.01 0.15 -2.37 -6.67 17.16 -4.28 1.22 0.07 16526
-0.01 0.16 -1.87 -6.98 17.11 -4.21 1.27 0.25 16533
-0.01 0.17 -1.45 -7.76 17.62 -4.05 1.32 0.43 16540
-0.00 0.16 -1.37 -8.27 18.77 -3.79 1.40 0.54 16547
-0.01 0.15 -1.38 -8.79 19.61 -3.67 1.49 0.65 16555
-0.01 0.14 -1.32 -9.05 20.62 -3.65 1.54 0.73 16562
-0.01 0.14 -1.15 -9.81 21.25 -3.68 1.59 0.79 16568
-0.01 0.12 -1.08 -10.62 21.67 -3.73 1.61 0.86 16576
-0.01 0.14 -1.22 -11.27 21.37 -3.78 1.63 0.92 16583
-0.01 0.13 -1.88 -11.80 20.73 -3.80 1.64 0.97 16590
-0.01 0.14 -2.81 -12.55 19.80 -3.83 1.70 0.97 16598
-0.01 0.12 -4.47 -13.59 19.01 -3.86 1.79 0.95 16605
-0.01 0.14 -6.44 -15.03 17.79 -3.86 1.77 0.90 16612
-0.01 0.13 -7.58 -16.58 15.97 -3.85 1.60 0.86 16619
-0.01 0.14 -8.06 -19.18 14.83 -3.76 1.21 0.83 16626
-0.01 0.14 -7.40 -22.15 12.59 -3.64 0.79 0.75 16633
-0.01 0.12 -5.20 -25.59 9.79 -3.45 0.32 0.57 16640
-0.01 0.12 -2.33 -30.76 5.93 -3.22 0.08 0.21 16647
-0.01 0.12 -0.66 -36.16 1.28 -2.86 0.24 -0.17 16654
-0.01 0.13 -1.69 -41.31 -1.58 -2.31 0.87 -0.50 16661
-0.01 0.14 -5.89 -43.14 -2.24 -1.60 1.50 -0.58 16668
-0.01 0.13 -10.05 -40.42 -1.58 -0.51 1.33 -0.51 16676
-0.01 0.13 -12.80 -33.58 0.68 0.60 0.28 -0.38 16684
-0.01 0.12 -11.63 -26.10 4.49 1.25 -0.94 -0.18 16691
-0.01 0.14 -7.34 -21.52 7.51 1.65 -2.05 0.04 16697
-0.01 0.14 33.04 -20.02 21.66 2.07 -2.17 -0.37 16705
-0.01 0.18 -0.63 7.47 7.42 3.40 -0.13 -0.87 16711
-0.03 0.30 3.63 10.43 9.36 2.97 0.07 -0.81 16718
-0.04 0.41 0.80 -0.16 14.69 2.46 -0.84 -0.90 16727
-0.04 0.49 5.79 1.46 8.84 2.16 -1.42 -0.74 16733
-0.05 0.57 7.86 -0.36 7.10 2.41 -1.28 -0.20 16740
-0.05 0.62 5.61 -1.37 10.73 2.96 -0.87 0.34 16748
-0.04 0.73 1.77 -2.68 15.62 3.47 -0.27 0.82 16755
-0.05 0.80 0.56 -2.65 18.53 3.48 0.31 1.08 16762
-0.06 0.95 -3.59 -4.11 19.62 2.99 0.31 1.04 16770
-0.08 1.16 -6.86 -4.72 16.93 2.76 0.27 0.61 16777
-0.07 1.31 -4.37 -3.56 16.32 2.74 0.37 0.09 16784
-0.07 1.41 -0.91 -2.64 16.16 2.38 0.43 -0.12 16791
-0.06 1.39 1.17 -2.35 13.82 2.10 0.53 -0.13 16798
-0.06 1.48 1.67 -2.05 13.30 1.94 0.60 -0.00 16805
-0.05 1.46 0.56 -2.29 13.80 1.67 0.53 0.10 16813
-0.06 1.48 0.05 -2.67 15.71 1.07 -0.01 0.02 16819
-0.04 1.51 0.88 -1.84 12.06 0.31 -0.27 -0.01 16827
-0.08 1.55 0.75 -1.83 10.58 0.10 -0.18 0.03 16834
-0.08 1.49 0.89 -1.37 10.27 0.04 -0.15 0.06 16841
-0.08 1.50 0.42 -1.43 10.20 -0.04 -0.07 0.07 16847
-0.09 1.48 0.22 -1.44 10.04 -0.09 -0.00 0.05 16855
-0.09 1.48 0.36 -1.24 9.73 -0.11 0.04 0.03 16862
-0.08 1.51 0.33 -1.30 9.83 -0.11 0.04 0.02 16869
-0.08 1.50 0.25 -1.28 9.81 -0.10 0.05 0.01 16876
-0.08 1.45 0.30 -1.14 9.74 -0.10 0.05 -0.01 16883
-0.06 1.46 0.41 -1.16 9.75 -0.10 0.04 -0.02 16890
-0.06 1.42 0.31 -1.06 9.65 -0.09 0.04 -0.02 16898
-0.08 1.46 0.38 -1.10 9.81 -0.08 0.04 -0.01 16905
-0.07 1.47 0.38 -1.05 9.87 -0.07 0.04 -0.02 16912
-0.06 1.48 0.29 -1.03 9.81 -0.05 0.04 -0.02 16919
-0.06 1.44 0.28 -1.01 9.80 -0.03 0.05 -0.02 16926
-0.07 1.43 0.34 -1.01 9.76 -0.02 0.05 -0.01 16933
-0.08 1.42 0.35 -0.95 9.76 -0.00 0.06 -0.01 16941
-0.07 1.42 0.29 -0.92 9.76 0.01 0.05 -0.01 16948
-0.06 1.40 0.38 -1.00 9.73 0.03 0.04 -0.01 16955
-0.06 1.37 0.40 -1.04 9.80 0.04 0.03 -0.01 16962
-0.07 1.34 0.41 -1.02 9.75 0.05 0.02 -0.01 16969
-0.05 1.30 0.46 -1.01 9.68 0.06 -0.01 -0.02 16976
-0.07 1.28 0.43 -1.06 9.74 0.06 -0.03 -0.02 16984
-0.07 1.26 0.45 -1.03 9.71 0.07 -0.05 -0.03 16991
-0.03 1.24 0.40 -1.05 9.68 0.07 -0.08 -0.04 16998
-0.02 1.21 0.41 -1.02 9.76 0.08 -0.10 -0.05 17005
-0.05 1.18 0.36 -1.06 9.74 0.08 -0.12 -0.05 17012
-0.05 1.13 0.29 -1.03 9.77 0.09 -0.13 -0.06 17019
-0.05 1.12 0.35 -1.07 9.68 0.09 -0.13 -0.06 17027
-0.04 1.08 0.29 -1.08 9.75 0.09 -0.12 -0.06 17034
-0.03 1.07 0.29 -1.11 9.75 0.09 -0.11 -0.06 17041
-0.02 1.01 0.27 -1.21 9.71 0.09 -0.10 -0.06 17048
-0.01 0.95 0.28 -1.18 9.68 0.09 -0.09 -0.06 17055
-0.03 0.97 0.32 -1.15 9.67 0.08 -0.08 -0.07 17062
-0.03 0.95 0.31 -1.15 9.66 0.08 -0.08 -0.07 17070
-0.02 0.90 0.26 -1.81 9.73 0.08 -0.08 -0.07 17077
0.01 0.86 0.25 -1.21 9.73 0.09 -0.08 -0.07 17084
0.04 0.77 0.29 -1.20 9.75 0.09 -0.08 -0.08 17091
0.05 0.77 0.23 -1.27 9.80 0.10 -0.07 -0.08 17098
0.06 0.69 0.19 -1.25 9.73 0.11 -0.07 -0.08 17105
0.04 0.76 0.23 -1.24 9.80 0.12 -0.06 -0.09 17113
0.08 0.72 0.20 -1.24 9.81 0.13 -0.04 -0.09 17120
0.11 0.65 0.23 -1.30 9.82 0.15 -0.03 -0.09 17127
0.13 0.63 0.18 -1.33 9.82 0.16 -0.02 -0.09 17134
0.16 0.61 0.23 -1.37 9.86 0.18 -0.01 -0.09 17141
0.18 0.53 0.22 -1.33 9.87 0.20 0.00 -0.09 17148
0.25 0.53 0.26 -1.30 9.84 0.22 0.01 -0.10 17156
0.26 0.43 0.20 -1.44 9.83 0.24 0.02 -0.10 17163
0.25 0.40 0.29 -1.37 9.88 0.25 0.02 -0.10 17170
0.25 0.36 0.27 -1.52 9.85 0.28 0.04 -0.11 17177
0.31 0.31 0.34 -1.40 9.96 0.30 0.05 -0.12 17184
0.31 0.24 0.35 -1.43 9.92 0.33 0.07 -0.12 17191
0.32 0.20 0.37 -1.47 9.95 0.40 0.10 -0.13 17199
0.37 0.17 0.34 -1.54 10.09 0.41 0.12 -0.14 17207
0.39 0.21 0.45 -1.60 10.16 0.48 0.16 -0.15 17214
0.41 0.14 0.22 -1.81 10.41 0.56 0.18 -0.15 17221
0.39 0.11 0.22 -1.87 11.27 0.73 0.19 -0.14 17228
0.45 0.11 0.98 -1.47 11.89 0.99 0.30 -0.16 17235
0.46 0.09 0.29 -1.95 10.62 1.13 0.34 -0.17 17243
0.46 0.15 0.52 -2.03 10.96 1.26 0.31 -0.16 17250
0.48 0.14 0.40 -2.14 10.91 1.37 0.31 -0.17 17257
0.47 0.16 0.13 -2.21 11.39 1.48 0.27 -0.14 17264
0.47 0.12 0.20 -2.41 11.13 1.61 0.24 -0.12 17271
0.46 0.12 0.21 -2.36 11.28 1.72 0.20 -0.11 17278
0.52 0.16 0.30 -2.80 11.23 1.88 0.19 -0.10 17286
0.54 0.18 0.33 -2.89 11.39 2.06 0.19 -0.08 17293
0.54 0.16 0.34 -2.96 11.70 2.20 0.18 -0.08 17300
0.57 0.16 0.63 -2.92 12.26 2.40 0.17 -0.10 17307
0.57 0.14 1.04 -3.08 12.63 2.58 0.20 -0.14 17314
0.56 0.17 1.43 -3.03 12.88 2.84 0.16 -0.19 17321
0.56 0.17 0.83 -3.51 13.00 3.12 0.10 -0.25 17329
0.57 0.15 0.99 -3.09 12.82 3.37 0.06 -0.29 17336
0.57 0.09 1.16 -3.58 12.79 3.65 -0.01 -0.34 17343
0.56 0.08 1.25 -4.02 14.00 3.89 -0.15 -0.41 17350
0.54 0.08 1.68 -4.03 14.68 4.16 -0.24 -0.45 17357
0.45 0.07 1.37 -4.64 15.29 4.28 -0.39 -0.50 17364
0.36 0.06 0.17 -5.06 16.63 4.28 -0.55 -0.51 17372
0.27 0.07 1.62 -6.47 18.31 4.28 -0.68 -0.52 17379
0.22 0.08 2.24 -7.06 17.42 4.28 -0.69 -0.51 17386
0.18 0.07 2.39 -8.54 18.27 4.28 -0.72 -0.63 17393
0.12 0.08 0.41 -8.71 21.27 4.28 -0.77 -0.76 17400
0.09 0.08 -1.55 -8.44 23.87 4.28 -1.10 -0.78 17408
