Voltage_01 Voltage_02 Acc_x Acc_y Acc_z Gyro_x Gyro_y Gyro_z Time
5000
0.01 0.74 0.34 -1.01 9.88 -0.10 0.06 -0.03 24
0.02 0.76 0.32 -0.96 9.84 -0.08 0.04 -0.04 31
0.00 0.75 0.31 -0.99 9.80 -0.07 0.03 -0.04 38
-0.00 0.79 0.24 -0.99 9.82 -0.05 0.02 -0.04 46
-0.01 0.78 0.27 -0.96 9.83 -0.04 0.01 -0.04 53
0.01 0.82 0.29 -0.94 9.80 -0.02 0.00 -0.04 60
0.02 0.83 0.25 -0.94 9.86 -0.01 -0.00 -0.04 67
0.05 0.79 0.25 -0.95 9.98 0.02 -0.00 -0.04 74
0.05 0.80 0.20 -0.91 9.90 0.05 -0.01 -0.04 81
0.03 0.77 0.19 -0.92 9.87 0.08 -0.01 -0.04 89
0.05 0.74 0.17 -0.92 9.83 0.10 -0.01 -0.04 96
0.06 0.71 0.19 -0.91 9.81 0.12 -0.01 -0.04 103
0.10 0.68 0.17 -0.96 9.66 0.13 -0.02 -0.05 110
0.11 0.65 0.25 -1.03 9.76 0.14 -0.02 -0.05 117
0.14 0.51 0.24 -1.00 9.78 0.14 -0.03 -0.05 124
0.14 0.53 0.29 -1.03 9.79 0.15 -0.03 -0.06 132
0.15 0.53 0.27 -1.06 9.74 0.15 -0.04 -0.06 139
0.17 0.44 0.26 -1.07 9.73 0.15 -0.04 -0.06 146
0.20 0.41 0.21 -1.09 9.77 0.16 -0.05 -0.07 153
0.24 0.38 0.22 -1.11 9.79 0.15 -0.05 -0.07 160
0.23 0.35 0.21 -1.12 9.80 0.15 -0.04 -0.08 167
0.22 0.33 0.21 -0.89 9.76 0.16 -0.04 -0.08 175
0.25 0.23 0.32 -1.12 9.82 0.16 -0.04 -0.08 182
0.25 0.24 0.09 -1.19 9.75 0.16 -0.04 -0.08 189
0.31 0.26 0.28 -1.17 9.79 0.16 -0.04 -0.09 196
0.36 0.21 0.17 -1.16 9.82 0.16 -0.04 -0.09 203
0.38 0.14 0.23 -1.24 9.80 0.17 -0.03 -0.09 210
0.38 0.15 0.19 -1.22 9.82 0.18 -0.03 -0.09 218
0.44 0.08 0.12 -1.18 9.72 0.18 -0.02 -0.09 225
0.49 0.03 0.14 -1.31 9.80 0.18 -0.02 -0.10 232
0.50 0.01 0.12 -1.24 9.82 0.18 -0.02 -0.10 239
0.56 0.02 0.23 -1.32 9.82 0.18 -0.02 -0.11 246
0.57 -0.01 0.25 -1.32 9.84 0.19 -0.02 -0.11 253
0.61 -0.02 0.16 -1.33 9.87 0.19 -0.03 -0.11 261
0.69 -0.04 0.27 -1.39 9.94 0.20 -0.04 -0.12 268
0.72 -0.04 0.26 -1.44 9.96 0.21 -0.05 -0.13 275
0.73 -0.03 0.34 -1.42 10.02 0.22 -0.08 -0.15 283
0.76 -0.05 0.42 -1.51 10.14 0.26 -0.11 -0.18 290
0.75 -0.05 0.44 -1.53 10.32 0.31 -0.18 -0.21 297
0.81 -0.05 0.37 -1.57 10.33 0.36 -0.25 -0.23 305
0.87 -0.04 0.36 -1.56 10.43 0.42 -0.31 -0.26 312
0.91 -0.05 0.34 -1.75 10.72 0.49 -0.33 -0.29 319
0.92 -0.04 0.35 -1.78 10.96 0.60 -0.29 -0.31 326
0.96 -0.07 0.02 -1.75 11.50 0.76 -0.16 -0.33 333
0.96 -0.05 -0.07 -1.77 11.16 0.89 -0.14 -0.31 340
0.96 -0.04 0.02 -1.82 10.95 1.00 -0.12 -0.30 348
1.03 -0.05 -0.15 -1.87 10.81 1.09 -0.09 -0.29 355
1.04 -0.06 -0.37 -1.90 10.63 1.18 -0.07 -0.27 362
1.05 -0.06 -0.39 -1.93 10.54 1.25 -0.04 -0.24 369
1.06 -0.07 -0.49 -2.01 10.77 1.32 -0.03 -0.20 376
1.07 -0.06 -0.43 -2.17 11.63 1.41 -0.03 -0.17 384
1.13 -0.06 -0.23 -2.32 11.36 1.55 -0.02 -0.14 391
1.13 -0.05 -0.14 -3.04 11.52 1.67 -0.01 -0.14 398
1.15 -0.06 -0.02 -2.53 12.11 1.84 -0.01 -0.13 405
1.21 -0.05 0.13 -2.69 12.59 2.02 -0.04 -0.14 412
1.21 -0.05 0.28 -2.77 12.93 2.24 -0.09 -0.15 419
1.19 -0.06 0.50 -3.05 13.10 2.49 -0.13 -0.18 427
1.21 -0.05 0.74 -2.99 13.53 2.72 -0.17 -0.23 434
1.23 -0.05 0.76 -3.13 13.48 2.99 -0.20 -0.28 441
1.20 -0.06 0.40 -2.90 13.75 3.22 -0.21 -0.32 448
1.15 -0.05 -0.25 -3.08 14.72 3.55 -0.23 -0.34 455
1.16 -0.05 0.23 -3.35 14.83 3.88 -0.32 -0.36 462
1.08 -0.05 0.76 -3.76 15.20 4.16 -0.37 -0.40 470
1.02 -0.04 1.72 -3.43 15.01 4.28 -0.56 -0.48 477
0.97 -0.04 2.05 -4.29 15.24 4.28 -0.72 -0.61 484
0.78 -0.04 1.27 -4.51 16.56 4.28 -0.79 -0.72 491
0.67 -0.05 2.04 -5.69 18.63 4.28 -0.92 -0.81 498
0.39 -0.02 1.33 -8.29 21.95 4.28 -0.98 -0.90 505
0.21 -0.02 1.01 -9.14 23.69 4.28 -0.99 -0.97 513
0.17 -0.00 -2.21 -8.70 22.97 4.28 -1.31 -1.09 520
0.14 -0.01 -3.15 -9.48 25.17 4.28 -1.56 -1.00 526
0.12 -0.01 -0.13 -11.71 28.13 4.28 -1.56 -0.84 534
0.09 -0.01 2.10 -10.36 27.33 4.28 -1.79 -0.93 541
0.06 -0.01 3.23 -7.27 26.50 4.28 -1.92 -0.87 547
0.02 -0.00 6.52 -1.60 24.32 4.28 -1.88 -0.81 555
0.01 -0.00 7.66 4.41 19.49 4.28 -1.72 -0.89 562
0.00 0.00 6.92 8.68 17.83 4.28 -1.44 -0.98 569
0.00 0.00 7.20 13.11 13.93 4.28 -1.41 -1.13 576
0.00 0.00 9.53 14.76 4.65 4.23 -1.56 -1.11 583
0.00 0.00 8.61 12.75 17.84 2.78 -0.87 -0.65 590
0.00 -0.00 7.31 13.87 20.45 0.62 -0.15 -0.27 598
0.02 -0.00 3.11 13.12 16.48 -1.18 0.01 0.07 605
0.01 -0.00 1.36 9.96 13.08 -2.12 -0.38 0.33 612
0.01 -0.00 1.53 7.45 10.87 -2.56 -0.76 0.43 619
0.00 -0.00 2.39 5.83 8.99 -2.63 -0.89 0.44 626
0.00 -0.00 3.36 5.22 6.70 -2.63 -0.81 0.36 633
0.00 -0.00 4.09 4.97 5.75 -2.65 -0.49 0.27 641
0.01 -0.00 3.88 4.65 5.83 -2.71 -0.03 0.13 648
0.01 -0.00 3.09 4.64 5.93 -2.85 0.42 0.03 655
0.01 -0.00 1.59 5.10 6.43 -3.11 0.86 -0.05 662
0.00 0.00 -0.61 5.38 7.26 -3.41 1.07 -0.06 669
0.02 -0.00 -1.32 5.37 8.50 -3.74 1.08 -0.04 675
0.01 -0.00 -2.03 5.09 8.44 -4.09 0.94 0.03 683
0.02 -0.00 -2.08 4.49 8.78 -4.24 0.79 0.10 690
0.01 -0.00 -1.69 3.79 8.99 -4.28 0.73 0.15 697
0.00 0.00 -1.15 2.84 9.26 -4.28 0.82 0.18 704
0.00 0.00 -1.03 2.28 9.54 -4.28 0.95 0.18 710
0.00 0.00 -1.17 1.64 9.87 -4.28 1.13 0.15 716
0.00 -0.00 -2.03 1.16 10.74 -4.28 1.31 0.11 723
0.01 -0.00 -2.41 0.47 11.56 -4.28 1.42 0.08 731
0.00 0.00 -3.68 0.58 11.94 -4.28 1.37 0.03 738
0.00 0.00 -4.32 -0.12 13.31 -4.28 1.30 -0.02 745
0.00 0.00 -4.80 -1.48 14.95 -4.28 1.35 -0.05 752
0.00 0.00 -3.71 -1.52 14.02 -4.28 1.22 -0.18 759
0.00 0.00 -4.62 -1.57 14.82 -4.28 1.17 -0.31 766
0.01 -0.00 -4.28 -2.96 15.92 -4.28 1.12 -0.35 774
0.01 -0.00 -3.33 -3.34 16.88 -4.28 1.11 -0.36 781
0.01 -0.00 -3.40 -3.01 16.04 -4.28 1.07 -0.35 788
0.00 0.00 -3.56 -3.75 17.70 -4.28 1.01 -0.27 795
0.01 -0.00 -2.37 -4.58 17.69 -4.28 1.02 -0.17 802
0.01 -0.00 -1.97 -5.18 17.31 -4.28 1.06 -0.13 809
0.01 -0.00 -1.03 -6.84 18.60 -4.15 1.30 -0.04 817
0.01 -0.00 -0.89 -6.96 20.65 -3.80 1.48 0.04 824
0.00 -0.00 -0.77 -7.39 21.63 -3.63 1.79 0.12 831
0.00 0.00 -1.60 -7.75 23.15 -3.56 1.95 0.23 838
0.00 0.00 -2.10 -9.02 23.93 -3.55 1.99 0.23 845
0.00 0.00 -2.22 -10.16 24.33 -3.58 1.97 0.21 852
0.00 0.00 -2.37 -11.46 24.18 -3.67 1.97 0.12 860
0.00 0.00 -3.42 -12.88 23.79 -3.83 2.00 -0.03 867
0.00 0.00 -5.02 -14.32 23.05 -3.99 2.01 -0.21 874
0.00 0.00 -7.59 -15.95 21.45 -4.15 1.88 -0.32 881
0.00 0.00 -9.37 -17.61 19.18 -4.20 1.53 -0.35 888
0.00 -0.00 -10.11 -19.50 17.07 -4.19 1.14 -0.24 897
0.02 -0.00 -9.89 -22.86 14.99 -4.07 0.69 -0.01 903
0.01 -0.00 -8.05 -27.50 11.88 -3.86 0.25 0.27 910
0.00 0.00 -6.55 -33.04 8.21 -3.59 -0.05 0.44 917
0.00 0.00 -5.76 -41.53 2.80 -3.35 -0.09 0.55 924
0.00 0.00 -6.99 -47.29 -1.37 -2.82 0.16 0.63 931
0.02 -0.00 -10.36 -48.31 -2.41 -1.76 0.40 0.62 940
0.01 -0.00 -12.86 -42.99 -1.71 -0.51 0.01 0.58 946
0.00 -0.00 -11.89 -35.41 1.59 0.88 -0.81 0.48 953
0.00 0.00 -8.24 -27.29 5.71 1.82 -1.59 0.37 960
0.00 -0.00 25.94 -30.63 30.45 3.05 -1.50 -0.64 968
0.01 0.02 -1.79 5.66 8.20 3.93 0.27 -1.23 974
0.01 0.03 -1.26 6.29 10.75 3.65 -0.47 -1.64 983
-0.00 0.11 1.81 2.10 17.92 3.27 -1.40 -1.87 990
-0.01 0.25 7.92 -0.90 12.36 3.04 -1.54 -1.69 997
-0.02 0.35 7.26 -3.06 11.46 3.25 -1.22 -1.04 1004
-0.01 0.48 7.12 -4.32 14.42 3.50 -0.83 -0.37 1011
-0.03 0.62 4.93 -2.67 16.87 3.59 0.13 0.47 1018
-0.02 0.62 0.54 -2.56 17.84 3.32 0.30 0.83 1026
-0.02 0.74 -3.22 -3.52 17.98 2.91 0.18 0.69 1033
-0.02 0.75 -3.96 -3.17 15.03 2.64 0.21 0.35 1040
-0.04 0.80 -2.97 -2.80 13.67 2.37 0.25 0.06 1047
-0.03 0.79 -0.58 -1.94 13.04 2.07 0.29 -0.18 1054
-0.00 0.76 1.33 -1.51 11.95 1.87 0.35 -0.17 1061
-0.02 0.77 1.46 -4.19 19.95 1.21 0.19 -0.04 1069
-0.04 0.73 1.39 -1.79 11.88 0.12 -0.10 0.03 1076
-0.02 0.74 -0.34 -2.43 11.09 -0.12 0.00 -0.01 1082
-0.01 0.76 0.10 -1.05 9.83 -0.08 0.04 -0.04 1089
0.01 0.76 0.24 -1.17 9.90 -0.10 0.07 -0.02 1096
0.02 0.75 0.25 -1.13 9.71 -0.12 0.09 -0.01 1103
0.01 0.75 0.13 -1.14 9.71 -0.14 0.12 -0.01 1111
0.00 0.74 0.35 -1.14 9.95 -0.16 0.13 -0.01 1118
0.00 0.72 0.30 -1.10 9.99 -0.15 0.12 -0.00 1125
0.02 0.74 0.30 -0.99 9.86 -0.14 0.12 -0.00 1132
0.01 0.78 0.31 -0.96 9.87 -0.12 0.11 -0.00 1139
0.02 0.78 0.38 -0.92 9.89 -0.11 0.11 -0.01 1146
0.01 0.77 0.29 -0.88 9.81 -0.09 0.10 -0.01 1154
0.01 0.78 0.28 -0.83 9.85 -0.08 0.10 -0.01 1161
0.01 0.77 0.30 -0.81 9.86 -0.07 0.10 -0.01 1168
-0.00 0.76 0.38 -0.81 9.83 -0.05 0.09 -0.02 1175
-0.00 0.81 0.38 -0.80 9.81 -0.03 0.07 -0.01 1182
0.00 0.80 0.41 -0.83 9.83 -0.01 0.05 -0.02 1189
0.00 0.80 0.35 -0.81 9.87 0.00 0.04 -0.02 1197
0.02 0.77 0.31 -0.84 9.87 0.03 0.02 -0.03 1204
-0.00 0.78 0.29 -0.84 9.88 0.06 0.00 -0.03 1211
0.02 0.76 0.32 -0.84 9.86 0.08 -0.01 -0.03 1218
0.04 0.72 0.33 -0.80 9.84 0.09 -0.02 -0.03 1225
0.04 0.68 0.31 -0.86 9.81 0.11 -0.02 -0.04 1232
0.02 0.67 0.27 -0.86 9.82 0.11 -0.02 -0.04 1240
0.02 0.62 0.28 -0.89 9.76 0.11 -0.02 -0.04 1247
0.02 0.62 0.31 -0.89 9.76 0.11 -0.02 -0.04 1254
0.02 0.61 0.28 -0.87 9.74 0.11 -0.01 -0.04 1261
0.04 0.54 0.28 -0.88 9.69 0.10 -0.01 -0.05 1268
0.04 0.53 0.35 -0.92 9.68 0.10 -0.01 -0.05 1275
0.04 0.49 0.31 -0.94 9.67 0.09 -0.02 -0.05 1283
0.03 0.48 0.33 -0.96 9.69 0.08 -0.02 -0.05 1290
0.05 0.44 0.35 -0.96 9.70 0.07 -0.03 -0.05 1297
0.05 0.47 0.27 -1.01 9.67 0.07 -0.03 -0.06 1304
0.05 0.46 0.26 -0.72 9.60 0.07 -0.03 -0.06 1311
0.03 0.50 0.40 -0.81 9.55 0.08 -0.03 -0.07 1318
0.06 0.47 0.27 -0.93 9.75 0.09 -0.04 -0.07 1326
0.05 0.44 0.18 -1.05 9.60 0.09 -0.05 -0.07 1333
0.08 0.43 0.31 -1.14 9.81 0.10 -0.04 -0.07 1340
0.07 0.42 0.24 -1.02 9.73 0.10 -0.03 -0.08 1347
0.08 0.42 0.17 -1.02 9.70 0.11 -0.03 -0.08 1354
0.10 0.34 0.29 -0.97 9.93 0.13 -0.03 -0.08 1361
0.11 0.29 0.31 -1.04 9.83 0.14 -0.03 -0.08 1369
0.11 0.31 0.22 -1.03 9.76 0.15 -0.03 -0.08 1376
0.13 0.26 0.33 -1.09 9.82 0.16 -0.03 -0.08 1383
0.20 0.21 0.26 -1.04 9.83 0.17 -0.03 -0.09 1390
0.21 0.20 0.22 -1.08 9.83 0.18 -0.04 -0.09 1397
0.22 0.14 0.23 -1.16 9.86 0.20 -0.05 -0.09 1404
0.25 0.09 0.29 -1.15 9.89 0.22 -0.06 -0.09 1412
0.30 0.09 0.28 -1.14 9.92 0.23 -0.06 -0.10 1419
0.33 0.04 0.25 -1.15 9.91 0.24 -0.06 -0.11 1426
0.38 0.03 0.24 -1.26 9.98 0.26 -0.06 -0.11 1433
0.47 0.00 0.29 -1.29 10.08 0.29 -0.07 -0.13 1440
0.52 -0.01 0.33 -1.38 10.17 0.31 -0.09 -0.15 1448
0.55 -0.04 0.48 -1.37 10.15 0.34 -0.11 -0.17 1456
0.62 -0.04 0.60 -1.46 10.40 0.39 -0.13 -0.21 1463
0.68 -0.02 0.63 -1.48 10.62 0.46 -0.19 -0.26 1470
0.77 -0.03 0.84 -1.50 10.89 0.57 -0.31 -0.31 1477
0.83 -0.04 0.89 -1.68 11.18 0.67 -0.43 -0.36 1484
0.89 -0.04 0.74 -1.80 11.58 0.82 -0.36 -0.41 1491
0.88 -0.05 -0.68 -1.60 12.17 1.08 -0.21 -0.39 1499
0.97 -0.05 -0.35 -1.69 11.75 1.25 -0.22 -0.32 1506
1.00 -0.04 -0.46 -1.69 11.93 1.40 -0.17 -0.28 1513
1.04 -0.06 -0.65 -1.85 12.52 1.55 -0.16 -0.21 1520
1.05 -0.05 -0.50 -1.96 12.61 1.75 -0.13 -0.16 1527
1.11 -0.06 -0.16 -2.02 13.09 1.98 -0.08 -0.13 1534
1.13 -0.06 0.27 -2.22 13.60 2.21 -0.05 -0.12 1542
1.12 -0.04 0.68 -2.27 13.78 2.50 -0.05 -0.15 1549
1.12 -0.04 1.08 -2.50 13.86 2.76 -0.07 -0.22 1556
1.16 -0.05 0.66 -2.68 14.62 3.05 -0.13 -0.28 1563
1.14 -0.06 0.53 -2.36 14.45 3.36 -0.17 -0.33 1570
1.11 -0.06 0.23 -2.55 15.25 3.61 -0.17 -0.35 1577
1.07 -0.05 0.04 -2.91 14.73 3.94 -0.20 -0.38 1585
1.02 -0.05 -0.80 -2.48 14.52 4.19 -0.23 -0.38 1592
1.01 -0.04 1.21 -2.71 15.03 4.28 -0.39 -0.43 1599
0.91 -0.04 1.84 -3.28 15.13 4.28 -0.47 -0.56 1606
0.82 -0.04 0.62 -3.70 15.31 4.28 -0.53 -0.67 1613
0.65 -0.04 0.87 -4.76 17.35 4.28 -0.60 -0.72 1620
0.43 -0.02 0.85 -7.26 20.46 4.28 -0.61 -0.75 1628
0.23 -0.00 1.27 -7.59 23.21 4.28 -0.72 -0.74 1635
0.17 -0.01 -0.72 -6.53 23.57 4.28 -0.96 -0.87 1642
0.13 -0.01 -4.93 -7.70 25.34 4.28 -1.39 -0.89 1648
0.13 -0.01 -0.52 -10.86 27.21 4.28 -1.82 -0.64 1656
0.07 -0.01 1.74 -9.75 25.93 4.28 -1.91 -0.69 1662
0.09 -0.01 3.17 -7.79 27.31 4.28 -2.12 -0.71 1670
0.05 -0.00 6.45 -4.94 26.33 4.28 -2.14 -0.67 1677
0.02 -0.00 7.39 0.54 22.64 4.28 -2.00 -0.69 1684
0.00 -0.00 7.84 5.80 19.15 4.28 -1.64 -0.77 1691
0.00 0.00 7.16 10.95 17.05 4.28 -1.36 -0.91 1698
0.00 0.00 7.25 17.09 10.02 4.27 -1.38 -1.13 1705
0.00 0.00 10.94 12.15 9.74 3.76 -1.08 -0.92 1713
0.00 0.00 7.56 12.52 23.15 1.78 -0.24 -0.57 1720
0.00 0.00 4.29 13.36 17.69 -0.30 0.11 -0.30 1727
0.00 0.00 1.60 11.28 13.97 -1.51 -0.12 -0.02 1734
0.00 0.00 1.24 7.98 11.30 -2.00 -0.61 0.12 1741
0.00 0.00 1.81 6.54 9.71 -2.12 -0.98 0.18 1748
0.00 0.00 2.85 5.69 7.66 -2.13 -1.07 0.20 1756
0.00 0.00 3.59 5.53 5.55 -2.17 -0.97 0.20 1763
0.00 0.00 3.76 5.27 5.93 -2.27 -0.68 0.17 1770
0.00 0.00 3.36 5.17 5.90 -2.42 -0.41 0.14 1777
0.00 0.00 2.57 5.41 5.92 -2.69 -0.09 0.12 1784
0.00 0.00 1.50 5.56 6.31 -2.98 0.16 0.12 1792
0.00 0.00 0.63 5.40 6.94 -3.34 0.27 0.14 1799
0.00 0.00 -0.03 5.16 7.27 -3.68 0.32 0.17 1806
0.00 0.00 -0.29 4.72 7.69 -3.95 0.32 0.21 1813
0.00 0.00 -0.38 4.13 8.06 -4.16 0.35 0.22 1820
0.00 0.00 -0.45 3.35 8.41 -4.27 0.45 0.22 1827
0.00 0.00 -0.55 2.76 8.89 -4.27 0.56 0.21 1835
-0.00 0.00 -0.76 1.97 9.20 -4.28 0.70 0.15 1842
0.01 -0.00 -1.06 1.41 9.81 -4.28 0.83 0.04 1849
0.00 0.00 -1.52 0.85 10.45 -4.28 0.94 -0.07 1856
0.00 0.00 -2.16 0.34 11.25 -4.28 1.00 -0.22 1863
0.00 0.00 -2.83 -0.02 12.07 -4.28 0.98 -0.36 1870
0.00 0.00 -2.86 -0.81 12.94 -4.28 1.02 -0.46 1878
0.00 0.00 -3.37 -0.80 13.57 -4.28 0.97 -0.58 1885
0.01 -0.00 -2.54 -2.33 15.05 -4.28 1.19 -0.70 1892
0.01 -0.00 -3.55 -1.38 14.35 -4.28 1.19 -0.75 1899
0.00 0.00 -3.23 -3.17 16.27 -4.28 1.22 -0.79 1906
0.00 0.00 -3.17 -2.63 15.93 -4.28 1.16 -0.78 1913
0.00 0.00 -2.82 -3.26 16.91 -4.28 1.13 -0.73 1921
0.00 0.00 -1.91 -3.54 16.92 -4.28 1.18 -0.66 1928
0.00 0.00 -1.21 -4.26 17.34 -4.28 1.31 -0.57 1935
0.00 0.00 -0.86 -5.62 17.42 -4.28 1.53 -0.48 1942
0.00 0.00 -0.58 -6.73 18.49 -4.14 1.75 -0.37 1949
0.00 0.00 -0.80 -7.16 20.71 -3.80 2.01 -0.22 1956
0.00 0.00 -0.86 -6.96 23.23 -3.71 2.23 -0.07 1964
0.00 -0.00 -1.31 -7.07 24.70 -3.84 2.41 0.04 1971
0.00 0.00 -2.06 -8.37 25.44 -4.04 2.41 0.17 1978
0.00 0.00 -2.73 -9.79 25.62 -4.17 2.34 0.23 1985
0.00 0.00 -3.50 -11.35 25.27 -4.23 2.21 0.21 1992
0.00 0.00 -4.56 -12.50 24.24 -4.26 2.09 0.16 1999
0.00 -0.00 -5.88 -13.73 23.04 -4.28 1.95 0.08 2007
0.01 -0.00 -6.96 -15.48 21.28 -4.28 1.76 -0.00 2014
0.00 -0.00 -7.49 -17.18 19.51 -4.27 1.53 -0.05 2022
0.00 0.00 -7.40 -19.62 18.13 -4.20 1.27 -0.03 2028
0.00 0.00 -6.93 -23.10 16.05 -4.07 1.09 0.10 2035
0.00 0.00 -6.28 -27.64 13.87 -3.82 0.85 0.26 2042
0.00 -0.00 -5.10 -35.33 9.16 -3.56 0.57 0.36 2050
0.01 -0.00 -5.18 -45.04 2.91 -3.26 0.51 0.38 2057
0.01 -0.00 -7.21 -51.41 -1.28 -2.53 0.86 0.42 2064
0.00 -0.00 -9.44 -51.67 -2.37 -1.41 1.18 0.49 2071
0.00 0.00 -10.89 -45.90 -0.16 0.12 0.97 0.52 2078
0.00 0.00 -9.83 -36.36 4.18 1.38 0.15 0.51 2085
0.00 0.00 -7.70 -27.00 7.78 2.03 -0.58 0.49 2093
0.01 -0.00 4.63 -17.38 6.86 2.41 -1.13 0.38 2100
0.00 0.00 -3.43 4.75 14.95 3.74 -1.22 -0.31 2107
-0.00 0.02 4.21 13.46 9.05 3.19 -0.85 -0.29 2114
-0.01 0.14 1.12 4.10 14.54 2.82 -1.68 -0.33 2121
-0.02 0.24 4.54 0.18 10.73 2.82 -1.78 -0.13 2129
-0.01 0.37 4.38 -1.45 8.96 3.33 -1.53 0.28 2136
-0.03 0.54 3.01 -2.33 11.71 3.79 -0.89 0.79 2144
-0.03 0.69 1.25 -2.64 18.84 3.74 -0.12 1.24 2151
-0.03 0.76 -2.72 -2.61 18.40 3.29 0.37 1.35 2158
-0.04 0.87 -4.73 -3.10 14.83 3.02 0.12 0.98 2165
-0.04 0.94 -5.49 -3.60 15.52 2.96 0.01 0.57 2172
-0.04 0.97 -3.13 -2.75 15.60 2.82 0.20 0.17 2180
-0.05 1.03 -1.13 -2.36 14.26 2.56 0.26 -0.07 2187
-0.05 1.02 0.81 -2.03 13.09 2.29 0.23 -0.13 2194
-0.06 1.01 1.76 -2.05 13.11 2.13 0.34 -0.01 2201
-0.06 1.01 1.42 -3.09 17.92 1.65 0.22 0.11 2208
-0.05 0.98 0.97 -1.88 12.84 0.31 -0.34 0.05 2215
-0.04 0.93 -0.27 -2.69 11.95 -0.05 -0.18 -0.01 2223
-0.04 0.90 0.03 -1.72 10.62 -0.07 -0.05 -0.04 2229
-0.01 0.87 0.39 -1.17 9.95 -0.06 0.01 -0.01 2236
-0.00 0.88 0.44 -1.09 9.75 -0.06 0.03 0.00 2243
0.00 0.87 0.22 -1.11 9.81 -0.07 0.06 -0.00 2250
0.02 0.87 0.37 -1.14 9.87 -0.08 0.08 -0.00 2257
0.04 0.88 0.46 -1.07 9.99 -0.06 0.08 -0.01 2265
0.02 0.92 0.38 -1.07 9.89 -0.04 0.07 -0.01 2272
0.04 0.86 0.49 -0.95 9.84 -0.02 0.06 -0.01 2279
0.04 0.81 0.37 -0.93 9.80 -0.00 0.05 -0.02 2286
0.05 0.81 0.35 -0.92 9.81 0.01 0.04 -0.02 2293
0.08 0.76 0.34 -0.88 10.33 0.02 0.01 -0.02 2300
0.08 0.75 0.34 -0.94 9.86 0.03 -0.01 -0.02 2308
0.07 0.77 0.37 -0.94 9.85 0.05 -0.03 -0.02 2315
0.07 0.76 0.36 -0.87 9.86 0.08 -0.05 -0.03 2322
0.07 0.75 0.33 -0.90 9.93 0.09 -0.06 -0.03 2329
0.08 0.69 0.33 -0.93 9.93 0.12 -0.07 -0.03 2336
0.08 0.66 0.32 -0.96 9.82 0.15 -0.08 -0.03 2343
0.10 0.61 0.29 -0.93 9.81 0.16 -0.08 -0.04 2351
0.10 0.60 0.32 -0.93 9.80 0.18 -0.07 -0.04 2358
0.10 0.55 0.27 -0.95 9.75 0.19 -0.06 -0.04 2365
0.10 0.49 0.28 -0.93 9.82 0.20 -0.06 -0.05 2372
0.11 0.49 0.32 -1.02 9.80 0.21 -0.05 -0.05 2379
0.11 0.42 0.35 -1.03 9.76 0.22 -0.04 -0.06 2386
0.14 0.35 0.33 -1.09 9.71 0.21 -0.04 -0.06 2394
0.16 0.32 0.34 -1.07 9.71 0.17 -0.05 -0.06 2401
0.18 0.24 0.35 -1.13 9.74 0.20 -0.04 -0.07 2408
0.19 0.20 0.35 -1.15 9.78 0.19 -0.05 -0.07 2415
0.19 0.19 0.37 -1.23 9.70 0.19 -0.06 -0.08 2422
0.22 0.15 0.31 -1.20 9.69 0.18 -0.06 -0.09 2429
0.20 0.13 0.40 -1.24 9.69 0.18 -0.06 -0.09 2437
0.20 0.10 0.23 -1.24 9.77 0.17 -0.06 -0.09 2444
0.24 0.06 0.26 -1.34 9.67 0.17 -0.07 -0.10 2451
0.23 0.06 0.31 -1.31 9.83 0.16 -0.06 -0.10 2458
0.26 0.07 0.26 -1.32 9.82 0.16 -0.06 -0.09 2465
0.30 0.02 0.37 -1.20 9.86 0.17 -0.07 -0.11 2472
0.28 0.03 0.40 -1.34 9.89 0.18 -0.07 -0.11 2480
0.31 0.02 0.31 -1.36 9.78 0.18 -0.07 -0.11 2487
0.32 0.01 0.24 -1.34 9.85 0.18 -0.07 -0.12 2494
0.37 -0.01 0.27 -1.41 9.87 0.19 -0.07 -0.12 2501
0.36 0.00 0.22 -1.43 9.89 0.20 -0.07 -0.13 2508
0.42 -0.03 0.25 -1.45 9.95 0.21 -0.08 -0.14 2515
0.44 -0.03 0.26 -1.53 9.91 0.22 -0.08 -0.14 2523
0.45 -0.04 0.31 -1.54 9.88 0.23 -0.09 -0.16 2530
0.46 -0.03 0.19 -1.53 9.89 0.25 -0.09 -0.18 2537
0.48 -0.03 0.32 -1.66 9.94 0.27 -0.11 -0.20 2544
0.51 -0.02 0.32 -1.67 10.08 0.30 -0.15 -0.22 2552
0.53 -0.03 0.45 -1.60 10.24 0.34 -0.17 -0.24 2560
0.56 -0.03 0.48 -1.74 10.37 0.40 -0.19 -0.26 2567
0.57 -0.05 1.19 -1.85 10.63 0.47 -0.17 -0.29 2574
0.59 -0.03 0.34 -1.86 11.11 0.60 -0.10 -0.31 2581
0.70 -0.03 -0.16 -1.79 11.36 0.75 -0.08 -0.30 2588
0.72 -0.03 0.15 -1.86 11.14 0.90 -0.10 -0.28 2595
0.75 -0.04 0.16 -1.91 11.06 1.01 -0.08 -0.28 2603
0.81 -0.04 -0.60 -2.02 11.02 1.10 -0.09 -0.27 2610
0.83 -0.03 -0.23 -2.09 10.75 1.18 -0.09 -0.25 2617
0.85 -0.03 -0.63 -1.99 10.85 1.25 -0.07 -0.21 2624
0.86 -0.02 -0.71 -1.90 11.20 1.34 -0.05 -0.16 2631
0.88 -0.04 -0.53 -2.32 11.66 1.48 -0.00 -0.10 2638
0.90 -0.05 -0.28 -2.22 12.01 1.62 0.04 -0.06 2646
0.89 -0.05 0.00 -2.56 12.14 1.82 0.06 -0.05 2652
0.89 -0.05 0.63 -2.71 12.90 2.03 0.07 -0.07 2659
0.89 -0.05 0.57 -2.73 13.63 2.25 0.06 -0.11 2667
0.91 -0.03 1.07 -3.03 13.72 2.54 0.00 -0.16 2674
0.93 -0.04 1.14 -3.08 13.83 2.78 -0.02 -0.24 2681
0.94 -0.03 0.99 -2.89 14.03 3.07 -0.06 -0.31 2689
0.93 -0.04 0.69 -3.11 14.26 3.38 -0.07 -0.37 2696
0.88 -0.03 0.08 -2.49 13.95 3.67 -0.09 -0.39 2703
0.83 -0.03 0.44 -2.84 14.41 4.02 -0.10 -0.42 2710
0.77 -0.03 0.88 -3.26 15.08 4.24 -0.14 -0.46 2717
0.69 -0.04 0.96 -4.04 16.04 4.28 -0.24 -0.56 2724
0.57 -0.03 0.06 -4.48 16.78 4.28 -0.40 -0.58 2732
0.41 -0.02 0.52 -5.88 18.63 4.28 -0.47 -0.56 2739
0.25 -0.02 1.69 -6.35 20.26 4.28 -0.42 -0.57 2746
0.15 0.00 1.87 -6.77 21.29 4.28 -0.39 -0.68 2753
0.18 -0.01 -1.63 -7.22 21.78 4.28 -0.55 -0.82 2760
0.11 -0.01 -4.23 -7.95 24.35 4.28 -0.97 -0.75 2767
0.13 -0.01 0.96 -10.13 26.73 4.28 -1.23 -0.50 2775
0.08 -0.01 2.79 -8.08 25.26 4.28 -1.27 -0.66 2781
0.03 -0.00 3.36 -7.53 25.89 4.28 -1.53 -0.74 2788
0.04 0.00 5.72 -3.81 23.80 4.28 -1.60 -0.74 2795
0.04 -0.00 6.79 -0.07 20.78 4.28 -1.44 -0.80 2802
0.01 -0.00 7.05 4.72 18.95 4.28 -1.11 -0.90 2809
0.00 0.00 7.08 8.14 18.08 4.28 -0.80 -1.03 2817
0.00 0.00 8.15 17.03 13.70 4.28 -0.59 -1.26 2824
0.00 0.00 11.35 20.48 3.81 4.09 -0.29 -1.27 2831
-0.00 0.00 8.07 14.89 25.08 1.68 0.47 -0.88 2838
0.00 0.00 2.91 16.72 21.29 -0.54 0.76 -0.52 2845
0.00 0.00 0.46 15.16 14.92 -1.94 0.45 -0.24 2852
0.00 0.00 -0.24 11.00 12.18 -2.52 -0.38 -0.05 2860
0.00 0.00 0.59 8.53 10.45 -2.60 -0.87 0.01 2867
0.00 0.00 2.01 7.43 8.98 -2.62 -1.00 0.01 2874
-0.00 0.00 3.30 7.08 7.63 -2.70 -0.77 -0.01 2881
0.00 0.00 3.72 6.97 7.94 -2.91 -0.39 -0.05 2888
0.00 0.00 3.13 6.60 7.71 -3.24 0.16 -0.12 2895
0.00 0.00 1.66 6.44 8.15 -3.58 0.59 -0.18 2903
0.00 0.00 -0.18 6.06 8.53 -4.01 0.87 -0.17 2910
0.00 0.00 -1.52 4.71 8.69 -4.23 0.88 -0.15 2917
0.00 0.00 -2.06 3.29 8.90 -4.28 0.73 -0.15 2924
0.00 0.00 -2.16 1.86 9.04 -4.28 0.53 -0.16 2931
0.00 0.00 -1.96 0.88 9.19 -4.28 0.40 -0.20 2938
0.00 0.00 -1.55 0.30 9.37 -4.28 0.45 -0.26 2946
0.00 0.00 -1.42 -0.14 9.81 -4.28 0.60 -0.35 2953
-0.00 0.01 -1.60 -0.59 10.53 -4.28 0.77 -0.45 2960
0.00 -0.00 -2.23 -0.67 11.10 -4.28 0.92 -0.55 2967
0.00 0.00 -2.81 -1.42 12.22 -4.28 1.03 -0.63 2974
0.00 0.00 -3.46 -1.57 13.31 -4.28 0.99 -0.67 2981
0.00 0.00 -3.00 -2.57 13.94 -4.28 1.02 -0.68 2989
0.00 0.00 -3.28 -2.60 13.94 -4.28 0.97 -0.68 2996
-0.00 0.00 -3.08 -2.93 14.23 -4.28 0.89 -0.65 3003
0.00 0.00 -1.71 -4.09 14.83 -4.28 1.02 -0.56 3010
0.00 0.00 -1.80 -3.61 14.51 -4.28 1.08 -0.45 3017
0.00 0.00 -1.91 -4.60 15.82 -4.28 1.10 -0.30 3024
0.00 0.00 -0.33 -4.73 15.55 -4.28 1.23 -0.17 3032
-0.00 0.00 -1.93 -5.35 14.64 -4.22 1.29 -0.03 3039
-0.00 0.01 -1.08 -7.07 16.67 -3.98 1.37 0.20 3046
0.00 0.00 -0.83 -7.35 16.07 -3.66 1.36 0.31 3053
0.00 0.00 -1.05 -7.16 17.82 -3.41 1.38 0.48 3060
0.00 0.00 -0.15 -6.87 18.65 -3.32 1.44 0.58 3067
0.00 0.00 -0.85 -7.13 19.31 -3.31 1.51 0.66 3075
0.00 0.00 -0.77 -7.98 20.23 -3.24 1.59 0.74 3082
0.01 0.00 -1.03 -8.43 20.35 -3.23 1.55 0.77 3089
0.00 -0.00 -0.89 -9.17 20.18 -3.15 1.55 0.77 3096
0.00 0.00 -1.07 -9.93 19.95 -3.08 1.56 0.75 3103
0.00 0.00 -1.29 -10.52 19.67 -2.98 1.59 0.70 3110
0.00 0.00 -1.98 -11.12 19.37 -2.91 1.62 0.62 3118
-0.00 0.00 -2.77 -11.88 19.32 -2.90 1.61 0.51 3126
0.00 0.00 -3.76 -12.78 19.39 -2.98 1.55 0.41 3133
0.00 0.00 -4.64 -13.67 18.96 -3.18 1.41 0.28 3139
0.00 0.00 -5.33 -14.74 17.66 -3.60 1.27 0.19 3146
0.00 0.00 -6.17 -17.86 16.11 -3.99 1.08 0.10 3153
0.00 0.00 -6.32 -22.50 13.44 -4.13 0.86 -0.02 3161
0.00 0.01 -5.43 -27.43 9.73 -4.08 0.58 -0.16 3168
0.01 -0.00 -5.06 -34.63 5.88 -3.81 0.49 -0.36 3175
0.01 -0.00 -6.50 -42.26 1.34 -3.48 0.65 -0.49 3182
0.00 -0.00 -9.99 -45.76 -0.74 -2.74 0.88 -0.52 3189
0.00 0.00 -13.46 -45.18 -1.36 -1.78 0.55 -0.52 3196
0.00 0.00 -12.97 -40.64 -0.20 -0.38 -0.24 -0.51 3205
0.00 0.00 -9.60 -32.93 2.27 0.85 -1.30 -0.53 3211
0.01 -0.00 -4.42 -38.12 19.05 2.80 -2.64 -1.06 3219
0.00 0.01 -0.98 -3.85 5.06 3.72 -1.83 -1.33 3225
0.00 0.03 1.45 8.24 9.13 3.83 -2.08 -1.38 3232
-0.02 0.16 2.49 1.41 21.93 3.31 -1.71 -1.16 3239
-0.02 0.39 6.70 1.61 12.16 2.82 -1.29 -0.71 3248
-0.02 0.59 3.67 -2.68 12.14 3.17 -1.25 -0.28 3255
-0.01 0.79 3.76 -4.70 15.73 3.76 -0.85 0.19 3262
-0.03 0.83 1.59 -2.51 16.54 3.91 0.14 0.79 3269
-0.05 0.95 -3.11 -3.67 20.11 3.51 0.39 0.85 3276
-0.05 1.00 -4.75 -4.43 18.71 3.02 0.41 0.53 3283
-0.05 1.10 -3.23 -3.17 14.84 2.87 0.41 0.08 3291
-0.04 1.08 -0.74 -2.29 14.40 2.63 0.46 -0.10 3298
-0.04 1.08 1.30 -1.76 13.37 2.31 0.57 -0.11 3305
-0.05 1.04 2.21 -2.47 15.33 2.12 0.71 0.06 3312
-0.05 0.99 1.23 -2.10 14.16 0.53 -0.18 0.03 3319
-0.05 0.99 0.09 -3.08 12.59 -0.00 -0.08 0.03 3325
-0.04 0.94 -0.02 -2.09 10.91 -0.07 0.03 0.02 3333
0.02 0.89 0.24 -1.41 10.32 -0.08 0.09 0.01 3340
0.00 0.87 0.30 -0.96 9.92 -0.04 0.10 0.02 3347
-0.00 0.86 0.26 -1.12 9.90 -0.04 0.13 0.02 3354
0.01 0.81 0.44 -1.12 9.82 -0.05 0.15 0.02 3361
-0.00 0.78 0.52 -1.11 9.92 -0.06 0.16 0.01 3368
0.02 0.86 0.42 -1.03 9.84 -0.05 0.16 0.01 3376
0.05 0.86 0.47 -0.94 9.82 -0.04 0.16 0.01 3383
0.03 0.84 0.47 -0.92 9.80 -0.03 0.15 0.00 3390
0.03 0.83 0.48 -0.89 9.78 -0.02 0.15 -0.01 3397
0.02 0.79 0.48 -0.79 9.78 -0.00 0.14 -0.01 3404
0.03 0.78 0.49 -0.82 9.78 0.01 0.14 -0.02 3411
0.04 0.76 0.48 -0.83 9.81 0.02 0.14 -0.02 3419
0.05 0.77 0.49 -0.86 9.20 0.03 0.12 -0.02 3426
0.04 0.76 0.56 -0.84 9.79 0.04 0.11 -0.02 3433
0.04 0.71 0.51 -0.84 9.80 0.05 0.10 -0.02 3440
0.04 0.69 0.46 -0.89 9.82 0.05 0.10 -0.03 3447
0.06 0.66 0.47 -0.84 9.88 0.07 0.10 -0.03 3454
0.05 0.59 0.53 -0.89 9.84 0.10 0.08 -0.03 3462
0.07 0.56 0.57 -0.87 9.82 0.11 0.07 -0.03 3469
0.06 0.52 0.53 -0.92 9.81 0.13 0.06 -0.03 3476
0.07 0.49 0.53 -0.89 9.79 0.14 0.05 -0.04 3483
0.08 0.45 0.57 -0.93 9.81 0.15 0.04 -0.04 3490
0.08 0.44 0.59 -0.96 9.78 0.16 0.04 -0.04 3497
0.10 0.40 0.58 -0.94 9.75 0.16 0.03 -0.05 3505
0.10 0.36 0.54 -0.94 9.71 0.16 0.02 -0.06 3512
0.10 0.27 0.59 -1.04 9.73 0.17 0.01 -0.06 3519
0.10 0.26 0.63 -0.99 9.70 0.17 0.00 -0.06 3526
0.09 0.24 0.59 -1.01 9.72 0.16 -0.01 -0.07 3533
0.10 0.18 0.62 -1.07 9.72 0.17 -0.03 -0.07 3540
0.12 0.17 0.60 -1.10 9.70 0.16 -0.04 -0.08 3548
0.12 0.17 0.63 -1.07 9.74 0.16 -0.05 -0.08 3555
0.12 0.12 0.58 -1.15 9.68 0.15 -0.06 -0.08 3562
0.11 0.14 0.57 -1.14 9.71 0.15 -0.06 -0.09 3569
0.12 0.09 0.63 -1.30 9.81 0.15 -0.06 -0.09 3576
0.12 0.10 0.61 -1.20 9.69 0.16 -0.05 -0.10 3584
0.14 0.09 0.56 -1.37 9.75 0.16 -0.04 -0.07 3591
0.15 0.08 0.52 -1.16 9.80 0.16 -0.01 -0.10 3598
0.14 0.04 0.51 -1.30 9.79 0.16 0.01 -0.10 3605
0.13 0.05 0.28 -1.21 9.76 0.16 0.03 -0.10 3612
0.15 0.03 0.59 -1.19 9.78 0.17 0.05 -0.09 3619
0.14 0.01 0.39 -1.80 9.80 0.17 0.06 -0.10 3627
0.16 0.03 0.53 -1.35 9.88 0.18 0.07 -0.09 3634
0.16 -0.02 0.55 -1.30 9.86 0.19 0.07 -0.09 3641
0.16 -0.02 0.57 -1.36 9.89 0.20 0.07 -0.10 3648
0.16 -0.02 0.59 -1.41 9.87 0.20 0.07 -0.10 3655
0.17 -0.01 0.63 -1.43 9.82 0.21 0.07 -0.10 3662
0.18 -0.01 0.58 -1.48 9.90 0.21 0.06 -0.11 3670
0.20 -0.02 0.57 -1.45 9.91 0.22 0.05 -0.11 3677
0.21 -0.02 0.70 -1.46 9.87 0.23 0.05 -0.12 3684
0.21 -0.02 0.69 -1.47 9.87 0.24 0.05 -0.13 3691
0.19 0.00 0.62 -1.47 10.06 0.25 0.07 -0.13 3698
0.24 0.01 0.74 -1.54 10.01 0.29 0.11 -0.15 3706
0.22 -0.00 0.93 -1.61 10.15 0.33 0.17 -0.18 3714
0.27 -0.01 0.75 -1.60 10.59 0.41 0.23 -0.20 3721
0.27 -0.02 0.54 -1.68 10.77 0.53 0.24 -0.19 3728
0.30 -0.00 0.74 -1.77 10.76 0.65 0.20 -0.19 3734
0.31 -0.01 0.88 -1.78 10.77 0.78 0.14 -0.20 3742
0.33 -0.01 0.74 -1.84 10.73 0.89 0.10 -0.22 3749
0.37 -0.02 0.74 -1.84 10.76 0.95 0.06 -0.23 3757
0.40 -0.03 0.66 -1.98 11.02 1.05 0.03 -0.23 3763
0.42 -0.04 0.75 -2.10 11.29 1.14 0.00 -0.22 3771
0.44 -0.02 0.60 -2.05 11.39 1.25 -0.01 -0.22 3777
0.46 -0.03 0.44 -2.08 11.73 1.38 -0.05 -0.20 3785
0.49 -0.02 0.51 -2.31 11.98 1.52 -0.07 -0.18 3792
0.51 -0.03 0.85 -2.49 12.10 1.71 -0.08 -0.18 3800
0.54 -0.03 1.28 -2.39 12.35 1.88 -0.09 -0.20 3807
0.55 -0.04 1.38 -2.72 12.81 2.11 -0.09 -0.24 3814
0.56 -0.02 1.02 -2.75 13.17 2.35 -0.10 -0.28 3821
0.58 -0.02 0.86 -2.83 13.65 2.56 -0.10 -0.29 3828
0.62 -0.02 0.45 -2.64 13.36 2.81 -0.10 -0.29 3835
0.62 -0.01 0.34 -2.61 13.95 3.04 -0.10 -0.27 3843
0.61 -0.02 0.70 -3.08 14.45 3.34 -0.12 -0.27 3850
0.59 -0.02 0.98 -3.08 14.67 3.68 -0.11 -0.30 3857
0.57 -0.01 1.35 -3.59 14.89 3.98 -0.14 -0.36 3864
0.52 -0.00 1.59 -3.44 15.63 4.23 -0.21 -0.42 3871
0.44 -0.01 0.94 -3.80 16.41 4.28 -0.31 -0.47 3878
0.29 -0.01 1.04 -5.01 18.46 4.28 -0.47 -0.48 3886
0.22 -0.01 2.99 -6.04 18.82 4.28 -0.60 -0.49 3893
0.17 -0.02 2.67 -5.88 17.93 4.28 -0.61 -0.65 3899
0.15 -0.01 -0.34 -6.36 19.75 4.28 -0.60 -0.79 3906
0.13 -0.00 -1.56 -7.59 24.58 4.28 -0.92 -0.75 3914
0.09 -0.01 0.62 -9.73 26.26 4.28 -1.52 -0.64 3920
0.07 -0.01 4.66 -9.39 24.39 4.28 -1.68 -0.66 3928
0.04 -0.00 4.69 -7.27 23.99 4.28 -1.63 -0.83 3935
0.02 -0.00 4.22 -6.57 27.57 4.28 -1.55 -0.84 3942
0.03 -0.00 4.66 -2.83 24.36 4.28 -1.67 -0.86 3949
0.02 -0.00 5.46 2.26 20.19 4.28 -1.72 -0.89 3956
0.03 -0.00 5.99 5.88 17.96 4.28 -1.73 -0.95 3963
0.00 0.00 5.44 10.89 15.77 4.28 -1.69 -1.05 3971
0.00 0.00 5.44 18.83 9.52 4.28 -1.84 -1.14 3978
0.00 0.00 7.76 12.34 12.66 3.64 -1.77 -0.71 3985
0.00 0.00 6.90 13.22 22.74 1.57 -1.17 -0.26 3992
0.00 0.00 5.09 14.09 17.24 -0.37 -0.50 0.07 3999
0.00 0.00 2.79 11.99 12.74 -1.38 -0.39 0.34 4006
0.00 0.00 1.97 8.99 11.01 -1.88 -0.55 0.43 4014
0.00 0.00 1.31 6.85 9.80 -1.94 -0.73 0.42 4021
0.00 0.00 1.45 6.52 7.45 -1.94 -0.86 0.37 4028
0.00 0.00 2.00 6.56 6.75 -2.03 -0.88 0.30 4035
0.00 0.00 2.24 6.33 6.90 -2.21 -0.70 0.19 4042
0.00 0.00 1.89 6.33 6.89 -2.52 -0.48 0.05 4049
0.00 0.00 1.26 6.37 7.05 -2.92 -0.20 -0.03 4057
0.00 0.00 0.03 6.11 7.28 -3.26 0.03 -0.12 4064
0.00 0.00 -0.34 5.60 7.57 -3.62 0.12 -0.16 4071
0.00 0.00 -0.83 4.82 8.03 -3.90 0.17 -0.19 4078
0.00 0.00 -1.03 4.47 8.28 -4.08 0.17 -0.19 4085
0.00 0.00 -0.93 3.73 8.85 -4.20 0.18 -0.19 4092
0.00 0.00 -0.83 3.22 9.30 -4.25 0.23 -0.20 4100
0.00 0.00 -0.77 2.81 9.85 -4.28 0.30 -0.21 4107
0.00 0.00 -0.71 1.91 10.19 -4.28 0.40 -0.26 4114
-0.00 0.00 -0.97 1.42 10.48 -4.28 0.46 -0.34 4121
0.00 0.00 -1.16 0.38 11.63 -4.28 0.56 -0.40 4128
0.00 0.00 -1.69 -0.26 12.81 -4.28 0.76 -0.42 4135
0.00 0.00 -1.73 -1.10 13.67 -4.28 0.90 -0.42 4143
0.00 0.00 -1.09 -2.51 14.30 -4.28 1.03 -0.48 4150
0.00 0.00 -2.39 -1.65 13.79 -4.28 0.92 -0.60 4157
-0.00 0.00 -2.83 -2.68 15.29 -4.28 0.82 -0.67 4164
0.00 0.00 -2.31 -3.30 16.55 -4.28 0.68 -0.70 4171
0.00 0.00 -1.56 -4.60 16.79 -4.28 0.77 -0.73 4178
0.00 0.00 -0.41 -3.73 16.10 -4.28 0.91 -0.75 4186
0.00 0.00 -0.63 -4.63 17.04 -4.28 1.02 -0.77 4193
0.00 0.00 -0.30 -5.85 17.88 -4.28 1.14 -0.75 4200
-0.00 0.00 0.36 -6.22 17.38 -4.26 1.27 -0.78 4207
0.00 0.00 0.84 -7.91 18.31 -4.08 1.54 -0.75 4214
0.00 0.00 0.88 -7.54 20.01 -3.73 1.85 -0.69 4221
0.00 0.00 0.81 -7.09 21.85 -3.63 2.13 -0.58 4229
0.00 0.00 0.64 -7.20 23.72 -3.70 2.36 -0.42 4236
-0.00 0.00 -0.11 -8.33 24.38 -3.86 2.42 -0.22 4243
0.00 -0.00 -0.71 -9.34 24.30 -4.00 2.32 -0.02 4250
0.00 0.00 -0.76 -10.48 24.20 -4.11 2.14 0.11 4257
0.00 0.00 -0.86 -11.38 23.30 -4.17 2.00 0.21 4264
0.00 0.00 -1.26 -11.97 22.14 -4.22 1.97 0.26 4272
0.00 0.00 -2.18 -12.83 21.19 -4.26 2.02 0.29 4279
0.01 0.01 -3.48 -14.18 20.04 -4.27 2.04 0.30 4287
0.01 -0.00 -4.63 -15.66 18.94 -4.27 1.94 0.31 4294
0.00 -0.00 -5.57 -17.94 17.43 -4.21 1.71 0.36 4301
0.00 0.00 -5.84 -21.20 15.32 -4.15 1.45 0.41 4307
0.00 0.00 -5.16 -25.08 12.63 -3.96 1.06 0.45 4315
0.00 0.00 -3.62 -31.84 8.45 -3.72 0.77 0.42 4322
0.00 0.00 -2.93 -39.45 3.34 -3.36 0.74 0.34 4329
0.00 0.00 -3.52 -46.52 0.15 -2.64 1.18 0.25 4336
0.00 0.00 -5.67 -46.78 -0.60 -1.60 1.59 0.18 4343
0.00 0.00 -9.09 -42.01 0.65 -0.20 1.42 0.13 4350
0.00 0.00 -10.19 -33.18 3.82 0.85 0.50 0.12 4358
0.00 0.00 -9.27 -26.18 7.16 1.65 -0.50 0.14 4365
-0.00 0.00 -6.04 -21.14 7.38 2.00 -1.44 0.22 4372
-0.00 0.00 -1.38 -10.96 17.59 3.53 -3.01 -0.36 4380
-0.00 0.00 2.74 11.39 5.55 3.61 -2.41 -0.34 4386
-0.00 0.04 0.59 3.88 13.16 3.35 -2.65 -0.31 4393
-0.01 0.15 0.46 0.96 16.54 3.03 -2.66 -0.10 4401
-0.02 0.33 2.88 -0.19 10.26 3.26 -2.01 0.23 4409
-0.02 0.49 0.66 -2.08 11.29 3.76 -1.59 0.52 4416
-0.03 0.67 1.11 -3.13 16.49 4.04 -0.90 0.80 4423
-0.04 0.77 -2.72 -2.95 19.02 3.84 -0.18 1.02 4430
-0.05 0.88 -4.35 -2.85 17.17 3.48 -0.22 0.74 4438
-0.02 0.92 -5.33 -4.00 16.83 3.24 -0.30 0.35 4445
-0.02 0.97 -2.98 -3.32 15.69 3.01 0.04 -0.00 4452
-0.02 0.93 -0.88 -2.57 15.08 2.65 0.16 -0.17 4459
-0.05 0.94 1.04 -1.86 13.69 2.31 0.23 -0.17 4466
-0.04 0.94 2.42 -1.70 13.07 2.08 0.46 0.02 4472
-0.04 0.89 0.26 -4.85 21.06 1.40 0.19 0.14 4481
-0.04 0.88 1.03 -1.34 12.07 0.03 -0.09 0.05 4487
-0.05 0.90 -0.69 -2.86 11.40 -0.11 -0.06 -0.06 4495
-0.00 0.87 0.54 -0.73 9.88 -0.03 0.02 -0.03 4501
-0.01 0.81 0.23 -1.17 10.06 -0.05 0.03 -0.00 4508
0.02 0.78 0.04 -0.95 9.70 -0.05 0.05 -0.01 4515
-0.01 0.82 0.34 -1.12 9.78 -0.07 0.09 -0.01 4523
0.02 0.80 0.41 -1.05 9.96 -0.09 0.09 -0.01 4530
0.03 0.83 0.27 -1.02 9.98 -0.08 0.09 -0.01 4537
0.04 0.83 0.35 -0.99 9.92 -0.06 0.09 -0.02 4544
0.05 0.80 0.38 -0.90 9.85 -0.04 0.08 -0.02 4551
0.04 0.78 0.33 -0.86 9.77 -0.03 0.07 -0.03 4558
0.05 0.77 0.29 -0.86 9.79 -0.01 0.06 -0.03 4566
0.07 0.78 0.33 -0.83 9.84 0.01 0.04 -0.03 4573
0.07 0.77 0.26 -0.84 9.82 0.02 0.02 -0.04 4580
0.10 0.76 0.28 -0.84 9.83 0.03 0.01 -0.04 4587
0.08 0.70 0.24 -0.86 9.84 0.04 -0.01 -0.03 4594
0.09 0.73 0.28 -0.87 9.88 0.04 -0.01 -0.04 4601
0.10 0.72 0.29 -0.83 9.84 0.06 -0.02 -0.04 4609
0.10 0.71 0.21 -0.81 9.90 0.08 -0.03 -0.04 4616
0.10 0.66 0.24 -0.83 9.94 0.10 -0.03 -0.04 4623
0.08 0.58 0.22 -0.85 9.82 0.13 -0.03 -0.04 4630
0.09 0.61 0.25 -0.86 9.83 0.15 -0.03 -0.05 4637
0.10 0.55 0.22 -0.84 9.85 0.16 -0.03 -0.05 4644
0.10 0.53 0.27 -0.88 9.81 0.16 -0.03 -0.05 4652
0.11 0.53 0.23 -0.91 9.75 0.16 -0.03 -0.05 4659
0.15 0.42 0.26 -0.92 9.79 0.16 -0.03 -0.06 4666
0.16 0.40 0.35 -0.94 9.74 0.16 -0.03 -0.06 4673
0.18 0.35 0.33 -1.02 9.75 0.16 -0.03 -0.07 4680
0.17 0.29 0.27 -1.02 9.72 0.16 -0.03 -0.07 4687
0.19 0.25 0.32 -1.01 9.78 0.15 -0.03 -0.08 4695
0.21 0.26 0.25 -1.07 9.82 0.15 -0.03 -0.07 4702
0.21 0.22 0.28 -1.04 9.80 0.15 -0.05 -0.08 4709
0.23 0.15 0.29 -1.09 9.79 0.15 -0.05 -0.08 4716
0.24 0.11 0.29 -1.08 9.78 0.15 -0.06 -0.08 4723
0.24 0.12 0.20 -1.13 9.72 0.14 -0.06 -0.09 4730
0.26 0.11 0.28 -1.18 9.78 0.14 -0.07 -0.09 4738
0.27 0.08 0.09 -1.17 9.80 0.14 -0.06 -0.09 4745
0.32 0.09 0.26 -1.15 9.81 0.14 -0.07 -0.13 4752
0.30 0.06 0.03 -1.21 9.82 0.14 -0.07 -0.10 4759
0.32 0.05 0.29 -1.16 9.84 0.14 -0.07 -0.10 4766
0.33 0.04 0.10 -1.22 10.41 0.14 -0.07 -0.10 4773
0.36 0.03 0.21 -1.27 9.86 0.15 -0.08 -0.11 4781
0.38 0.01 0.11 -1.23 9.90 0.16 -0.08 -0.11 4788
0.42 0.00 0.18 -1.30 9.87 0.16 -0.10 -0.12 4795
0.44 -0.00 0.25 -1.30 9.87 0.17 -0.11 -0.13 4802
0.47 -0.02 0.25 -1.30 9.83 0.18 -0.14 -0.14 4809
0.50 -0.02 0.24 -1.34 9.84 0.19 -0.15 -0.14 4816
0.52 -0.02 0.10 -1.41 9.86 0.20 -0.17 -0.17 4824
0.58 -0.04 0.34 -1.44 10.03 0.22 -0.20 -0.18 4832
0.66 -0.04 0.25 -1.44 10.04 0.24 -0.23 -0.20 4838
0.64 -0.05 0.32 -1.49 10.21 0.27 -0.29 -0.22 4846
0.70 -0.05 0.26 -1.54 10.22 0.32 -0.36 -0.25 4853
0.75 -0.04 0.26 -1.53 10.26 0.36 -0.41 -0.28 4860
0.80 -0.04 0.19 -1.56 10.29 0.40 -0.46 -0.30 4867
0.85 -0.05 0.30 -1.55 10.56 0.45 -0.51 -0.33 4875
0.90 -0.05 0.39 -1.68 10.62 0.52 -0.53 -0.40 4882
0.90 -0.06 0.64 -1.91 10.66 0.62 -0.49 -0.40 4889
0.91 -0.05 -0.38 -1.82 11.64 0.76 -0.36 -0.42 4896
0.96 -0.05 -1.09 -1.69 11.49 0.95 -0.32 -0.37 4903
1.01 -0.05 -0.71 -1.83 11.28 1.09 -0.29 -0.31 4911
1.02 -0.06 -1.14 -1.73 11.39 1.19 -0.24 -0.25 4918
1.03 -0.05 -1.35 -1.84 11.65 1.32 -0.20 -0.18 4925
1.11 -0.06 -1.35 -1.83 11.96 1.45 -0.16 -0.10 4932
1.07 -0.04 -1.00 -2.06 12.40 1.63 -0.11 -0.04 4939
1.07 -0.04 -0.24 -2.34 12.87 1.85 -0.08 -0.01 4946
1.10 -0.05 0.21 -2.37 13.14 2.06 -0.07 -0.04 4954
1.15 -0.04 0.27 -2.43 13.49 2.31 -0.06 -0.09 4961
1.14 -0.04 0.56 -2.55 13.35 2.63 -0.07 -0.14 4968
1.15 -0.06 0.75 -4.08 13.98 2.88 -0.04 -0.22 4975
1.07 -0.05 -0.12 -2.65 13.87 3.15 0.00 -0.26 4982
1.02 -0.03 -0.17 -2.74 14.24 3.43 0.04 -0.27 4989
1.00 -0.03 -0.50 -2.76 14.35 3.75 0.14 -0.27 4997
0.91 -0.03 -0.42 -2.71 14.86 4.14 0.24 -0.27 5004
0.85 -0.03 -0.11 -2.88 15.13 4.27 0.18 -0.29 5011
0.76 -0.03 -0.29 -3.19 15.74 4.28 0.08 -0.32 5018
0.65 -0.02 0.17 -3.78 16.53 4.28 0.02 -0.34 5025
0.44 0.00 0.26 -5.04 18.28 4.28 0.01 -0.37 5031
0.35 -0.02 -0.77 -6.34 21.63 4.28 -0.01 -0.35 5040
0.18 0.00 -2.13 -6.13 20.91 4.28 0.01 -0.34 5047
0.17 -0.01 -4.87 -8.56 25.68 4.28 -0.37 -0.34 5054
0.12 -0.01 -3.36 -9.25 27.74 4.28 -1.42 -0.28 5061
0.08 0.00 1.51 -10.69 25.82 4.28 -1.88 -0.15 5068
0.05 0.00 2.84 -7.56 25.05 4.28 -1.87 -0.39 5074
0.04 -0.00 2.34 -6.39 26.67 4.28 -2.04 -0.40 5082
0.01 0.00 4.51 -3.43 25.51 4.28 -2.20 -0.34 5090
0.00 -0.00 5.48 1.53 20.99 4.28 -2.24 -0.35 5096
-0.00 0.00 6.32 5.71 18.53 4.28 -2.16 -0.38 5103
-0.00 0.01 6.34 10.00 16.57 4.28 -2.00 -0.43 5110
-0.00 0.02 7.50 17.92 12.23 4.28 -1.84 -0.56 5118
-0.00 0.01 11.76 13.96 5.99 4.09 -1.49 -0.47 5125
-0.00 0.01 9.86 13.81 23.39 1.79 -0.54 -0.20 5132
-0.00 0.00 5.45 14.74 18.28 -0.21 0.17 -0.00 5139
-0.00 0.01 2.07 13.00 14.37 -1.62 0.17 0.13 5146
-0.00 0.01 1.40 9.13 11.81 -2.21 -0.33 0.18 5153
-0.00 0.01 1.71 7.00 10.13 -2.39 -0.62 0.14 5160
-0.00 0.01 2.49 5.92 7.70 -2.40 -0.76 0.05 5168
-0.00 0.01 3.50 5.59 6.04 -2.42 -0.70 -0.05 5175
-0.00 0.00 4.09 5.20 5.83 -2.50 -0.40 -0.15 5182
-0.00 0.00 3.57 4.94 6.11 -2.65 0.02 -0.26 5189
-0.00 0.02 2.68 4.96 6.47 -2.92 0.40 -0.33 5196
-0.00 0.02 0.88 5.12 6.83 -3.27 0.71 -0.35 5203
-0.00 0.01 -0.58 5.09 7.67 -3.59 0.79 -0.32 5211
-0.00 0.01 -1.71 4.72 8.14 -3.97 0.71 -0.25 5218
-0.00 0.00 -2.22 4.01 8.50 -4.18 0.52 -0.17 5225
-0.00 0.01 -2.14 3.21 8.77 -4.27 0.37 -0.12 5232
-0.00 0.02 -1.44 2.05 8.89 -4.28 0.29 -0.10 5239
0.00 0.01 -0.80 1.30 9.23 -4.28 0.40 -0.14 5246
-0.00 0.01 -0.62 0.93 9.55 -4.28 0.57 -0.20 5254
-0.00 0.00 -0.80 0.55 10.08 -4.28 0.81 -0.30 5261
-0.00 0.01 -1.25 0.10 10.91 -4.28 0.99 -0.42 5268
-0.00 0.01 -2.27 -0.12 11.75 -4.28 1.09 -0.47 5275
-0.00 0.02 -2.46 -1.16 12.85 -4.28 1.18 -0.53 5282
-0.00 0.01 -2.77 -1.23 13.12 -4.28 1.19 -0.57 5289
-0.00 0.01 -2.70 -1.86 14.13 -4.28 1.17 -0.60 5297
0.00 0.00 -3.05 -1.98 14.30 -4.28 1.08 -0.60 5304
-0.00 0.01 -2.49 -2.99 15.59 -4.28 1.02 -0.58 5311
-0.00 0.01 -2.25 -2.74 15.29 -4.28 1.00 -0.55 5318
-0.00 0.01 -1.55 -3.44 16.02 -4.28 0.97 -0.54 5325
-0.00 0.01 -1.31 -3.55 16.65 -4.28 1.00 -0.51 5332
-0.00 0.01 -0.47 -4.23 17.18 -4.28 1.07 -0.51 5340
-0.00 0.01 0.03 -4.91 17.10 -4.28 1.26 -0.52 5347
-0.00 0.01 0.32 -6.16 17.96 -4.21 1.53 -0.52 5354
-0.00 0.02 0.12 -6.61 19.45 -3.98 1.75 -0.51 5361
0.00 0.02 0.08 -6.74 20.99 -3.80 2.01 -0.46 5368
-0.00 0.02 -0.09 -6.80 22.61 -3.80 2.20 -0.35 5376
-0.00 0.02 -0.26 -7.50 23.53 -3.88 2.29 -0.22 5383
-0.00 0.01 -0.59 -8.50 24.08 -3.95 2.34 -0.08 5390
-0.00 0.01 -0.90 -9.33 24.29 -4.06 2.33 0.05 5397
-0.00 0.02 -1.58 -10.12 24.20 -4.16 2.29 0.09 5404
-0.00 0.01 -2.62 -10.98 23.74 -4.23 2.21 0.14 5412
0.01 0.01 -3.52 -11.99 22.12 -4.27 2.18 0.15 5420
0.00 0.00 -4.60 -13.62 21.25 -4.28 2.09 0.15 5427
-0.00 0.00 -5.59 -15.35 19.56 -4.28 1.95 0.16 5434
-0.00 0.01 -6.38 -17.79 17.76 -4.25 1.68 0.20 5440
-0.00 0.02 -6.57 -20.95 15.65 -4.15 1.36 0.28 5448
0.00 0.01 -6.04 -24.77 13.04 -3.89 1.06 0.37 5455
0.00 0.01 -4.53 -31.01 9.62 -3.54 0.73 0.42 5462
-0.00 0.00 -3.75 -39.69 4.70 -3.23 0.62 0.39 5469
-0.00 0.01 -4.48 -46.13 0.91 -2.62 0.91 0.35 5476
-0.00 0.01 -7.45 -47.64 -0.52 -1.69 1.27 0.32 5483
-0.00 0.02 -10.61 -43.44 0.91 -0.30 1.07 0.29 5490
-0.00 0.01 -11.70 -34.64 3.35 0.94 0.11 0.30 5497
-0.00 0.02 -9.24 -25.98 6.84 1.62 -1.04 0.34 5505
-0.00 0.00 -0.48 -28.93 4.05 2.20 -1.81 0.33 5512
-0.00 0.02 -4.99 -10.15 12.26 3.59 -2.46 -0.23 5520
-0.00 0.00 2.55 10.71 6.16 3.71 -2.21 -0.25 5526
-0.00 0.07 -0.90 3.38 15.67 3.38 -2.54 -0.28 5533
-0.02 0.18 1.75 1.77 15.22 3.04 -2.11 -0.07 5540
-0.03 0.35 1.71 -0.06 9.51 3.25 -1.80 0.18 5548
-0.02 0.57 0.24 -2.72 12.15 3.80 -1.44 0.39 5556
-0.04 0.65 -0.50 -3.22 17.22 3.98 -0.72 0.71 5563
-0.02 0.81 -2.52 -2.91 18.95 3.72 0.08 0.85 5570
-0.03 0.88 -4.43 -3.50 17.24 3.33 0.02 0.57 5577
-0.05 1.02 -4.66 -3.29 16.53 3.12 0.02 0.19 5584
-0.05 0.99 -1.76 -3.06 15.00 2.91 0.27 -0.05 5592
-0.07 1.04 0.37 -2.45 14.87 2.61 0.34 -0.15 5599
-0.06 1.06 1.00 -1.83 13.35 2.28 0.35 -0.13 5606
-0.05 1.03 1.61 -1.50 12.64 2.03 0.44 0.00 5612
-0.04 1.00 0.09 -4.40 20.43 1.26 0.04 0.04 5619
-0.05 0.98 0.88 -1.65 12.07 -0.04 -0.15 0.03 5626
-0.04 0.98 -0.54 -2.42 11.15 -0.12 -0.06 -0.06 5635
-0.06 0.99 0.47 -0.80 9.99 -0.06 0.01 -0.03 5641
-0.01 0.95 0.26 -1.16 9.97 -0.06 0.03 -0.01 5648
-0.00 0.95 0.11 -1.09 9.76 -0.07 0.05 -0.01 5655
0.02 0.95 0.24 -1.16 9.81 -0.09 0.09 -0.01 5662
0.03 0.96 0.34 -1.10 9.91 -0.10 0.11 -0.02 5669
0.04 0.91 0.23 -1.02 9.91 -0.09 0.12 -0.02 5677
0.03 0.88 0.32 -0.95 9.90 -0.07 0.13 -0.02 5684
0.06 0.89 0.36 -0.88 9.90 -0.05 0.12 -0.02 5691
0.05 0.91 0.33 -0.86 9.81 -0.04 0.12 -0.02 5698
0.06 0.91 0.35 -0.87 9.82 -0.03 0.12 -0.02 5705
0.05 0.92 0.36 -0.80 9.82 -0.02 0.10 -0.02 5712
0.06 0.89 0.34 -0.79 9.85 -0.00 0.08 -0.02 5720
0.04 0.91 0.36 -0.79 9.81 0.01 0.06 -0.03 5727
0.05 0.93 0.34 -0.85 9.80 0.02 0.04 -0.03 5734
0.08 0.85 0.35 -0.86 9.82 0.03 0.01 -0.04 5741
0.08 0.84 0.30 -0.84 9.87 0.04 0.01 -0.04 5748
0.08 0.79 0.31 -0.81 9.93 0.07 -0.01 -0.04 5755
0.06 0.81 0.33 -0.86 9.93 0.09 -0.02 -0.04 5763
0.07 0.74 0.36 -0.85 9.87 0.12 -0.04 -0.04 5770
0.07 0.73 0.32 -0.87 9.82 0.14 -0.06 -0.05 5777
0.10 0.67 0.34 -0.91 9.79 0.14 -0.08 -0.05 5784
0.08 0.64 0.30 -0.87 9.73 0.14 -0.09 -0.05 5791
0.08 0.57 0.27 -0.89 9.79 0.14 -0.09 -0.05 5798
0.08 0.55 0.27 -0.92 9.72 0.13 -0.09 -0.06 5806
0.10 0.53 0.25 -0.98 9.73 0.13 -0.09 -0.06 5813
0.12 0.51 0.26 -0.99 9.65 0.12 -0.08 -0.06 5820
0.16 0.47 0.26 -1.01 9.65 0.11 -0.08 -0.06 5827
0.16 0.40 0.25 -0.98 9.75 0.10 -0.08 -0.07 5834
0.18 0.40 0.27 -1.03 9.70 0.09 -0.07 -0.07 5841
0.16 0.37 0.18 -1.02 9.76 0.08 -0.06 -0.07 5849
0.19 0.35 0.21 -1.04 9.74 0.07 -0.05 -0.07 5856
0.22 0.29 0.21 -0.99 9.80 0.08 -0.05 -0.07 5863
0.23 0.31 0.22 -1.00 9.75 0.08 -0.05 -0.08 5870
0.25 0.28 0.18 -1.05 9.75 0.08 -0.05 -0.08 5877
0.23 0.26 0.10 -1.06 9.78 0.07 -0.03 -0.07 5884
0.22 0.28 0.20 -1.09 9.79 0.08 -0.03 -0.08 5892
0.27 0.22 0.10 -1.02 10.38 0.09 -0.03 -0.08 5899
0.27 0.25 0.23 -1.05 9.76 0.10 -0.02 -0.09 5906
0.30 0.19 0.19 -1.14 9.71 0.11 -0.01 -0.08 5913
0.32 0.18 0.18 -1.11 9.78 0.11 -0.01 -0.08 5920
0.32 0.15 0.23 -1.09 9.76 0.12 -0.00 -0.09 5927
0.31 0.15 0.25 -1.15 9.79 0.13 -0.00 -0.09 5935
0.33 0.14 0.17 -1.17 9.80 0.13 0.00 -0.09 5942
0.37 0.12 0.18 -1.16 9.85 0.14 0.00 -0.10 5949
0.35 0.08 0.28 -1.19 9.72 0.16 0.00 -0.10 5956
0.35 0.02 0.23 -1.22 9.94 0.17 -0.01 -0.11 5963
0.38 0.01 0.19 -1.82 9.95 0.19 -0.02 -0.11 5970
0.41 0.03 0.17 -1.22 9.94 0.21 -0.03 -0.11 5978
0.42 0.03 0.25 -1.26 10.03 0.24 -0.05 -0.12 5985
0.48 -0.01 0.26 -1.26 10.07 0.26 -0.06 -0.13 5993
0.50 -0.03 0.37 -1.40 10.17 0.29 -0.09 -0.16 5999
0.58 -0.05 0.32 -1.46 10.19 0.33 -0.13 -0.18 6007
0.59 -0.04 0.57 -1.56 10.28 0.37 -0.17 -0.22 6014
0.68 -0.04 0.64 -1.57 10.43 0.42 -0.27 -0.26 6022
0.76 -0.03 0.63 -1.53 10.45 0.50 -0.38 -0.30 6029
0.80 -0.04 0.53 -1.59 10.62 0.57 -0.46 -0.35 6036
0.84 -0.05 0.51 -1.71 10.79 0.63 -0.48 -0.39 6043
0.91 -0.05 0.24 -1.83 10.88 0.74 -0.39 -0.41 6050
0.91 -0.05 -1.35 -1.57 12.41 0.92 -0.21 -0.37 6057
0.98 -0.03 -0.99 -1.64 12.19 1.14 -0.20 -0.27 6065
0.98 -0.03 -0.47 -1.89 12.13 1.34 -0.06 -0.21 6072
0.98 -0.04 -0.40 -1.80 12.75 1.51 0.01 -0.18 6078
0.99 -0.05 -0.23 -1.88 13.25 1.75 0.06 -0.16 6086
1.00 -0.06 0.19 -2.02 13.66 2.02 0.05 -0.14 6092
1.03 -0.05 0.27 -2.18 13.90 2.27 0.05 -0.15 6100
1.03 -0.04 0.81 -2.34 14.03 2.57 -0.04 -0.20 6108
1.02 -0.04 0.57 -2.23 13.67 2.82 -0.08 -0.25 6115
1.02 -0.05 0.40 -2.27 14.66 3.10 -0.11 -0.29 6122
1.01 -0.06 0.06 -2.49 14.51 3.39 -0.10 -0.31 6129
0.98 -0.04 -0.21 -2.57 15.05 3.65 -0.12 -0.30 6136
0.94 -0.04 -0.20 -2.68 15.55 3.99 -0.15 -0.29 6144
0.91 -0.03 0.55 -2.46 14.89 4.21 -0.34 -0.31 6151
0.83 -0.04 0.91 -2.62 14.57 4.28 -0.44 -0.38 6158
0.76 -0.04 1.06 -3.34 15.73 4.28 -0.52 -0.48 6165
0.69 -0.04 1.23 -3.65 16.43 4.28 -0.63 -0.56 6172
0.57 -0.03 1.78 -5.13 18.09 4.28 -0.72 -0.66 6179
0.40 -0.02 1.88 -6.07 20.72 4.28 -0.78 -0.74 6187
0.28 -0.01 2.00 -5.96 21.83 4.28 -0.82 -0.84 6194
0.17 -0.01 -1.81 -7.08 22.08 4.28 -1.10 -1.02 6201
0.17 -0.01 -2.78 -8.17 24.89 4.28 -1.67 -1.01 6208
0.11 -0.01 2.20 -10.63 26.08 4.28 -2.03 -0.83 6215
0.09 -0.01 4.60 -9.08 25.37 4.28 -1.71 -0.90 6221
0.05 -0.00 4.35 -9.03 26.42 4.28 -1.66 -1.02 6228
0.05 -0.01 4.31 -6.27 25.66 4.28 -1.61 -1.00 6236
0.04 -0.00 5.19 -0.24 21.68 4.28 -1.59 -0.99 6243
0.02 -0.00 5.97 4.91 18.80 4.28 -1.44 -1.02 6250
0.00 0.00 6.13 9.67 16.56 4.28 -1.26 -1.09 6257
0.00 0.00 5.97 12.07 13.91 4.28 -1.24 -1.22 6264
0.00 0.00 8.16 12.87 5.42 4.28 -1.35 -1.15 6272
0.00 0.00 7.91 11.19 19.96 3.22 -0.89 -0.42 6279
0.00 0.00 6.71 15.91 20.79 0.24 -0.28 0.02 6286
0.00 0.00 3.69 14.51 15.61 -1.91 -0.04 0.55 6293
0.00 0.00 2.22 8.58 13.49 -2.96 -0.23 0.88 6300
0.00 0.00 2.79 5.97 11.37 -3.24 -0.41 1.02 6307
0.00 0.00 4.10 4.37 8.01 -3.10 -0.35 0.99 6315
0.00 0.00 4.70 3.93 5.88 -2.89 -0.19 0.89 6322
0.00 0.00 4.50 3.68 5.47 -2.79 0.14 0.74 6329
0.00 0.00 3.56 3.64 5.95 -2.82 0.44 0.58 6336
0.00 0.00 1.94 4.11 6.18 -3.01 0.66 0.47 6343
0.00 0.00 0.25 4.72 6.53 -3.28 0.75 0.39 6350
0.00 0.00 -1.06 4.96 7.12 -3.63 0.71 0.36 6358
0.00 0.00 -1.98 4.75 7.66 -3.93 0.58 0.34 6365
0.00 0.00 -2.32 4.34 7.98 -4.10 0.43 0.33 6372
0.00 0.00 -2.03 3.96 8.16 -4.21 0.33 0.29 6379
0.00 0.00 -1.63 3.47 8.59 -4.26 0.39 0.23 6386
0.00 0.00 -1.31 2.99 9.01 -4.28 0.53 0.15 6393
0.00 0.00 -1.42 2.45 9.53 -4.28 0.75 0.05 6401
0.00 0.00 -1.75 1.74 10.13 -4.28 0.97 -0.07 6408
0.00 0.00 -2.23 1.42 10.69 -4.28 1.12 -0.18 6415
0.00 0.00 -3.19 1.06 11.44 -4.28 1.23 -0.30 6422
0.00 0.00 -3.88 0.26 13.08 -4.28 1.26 -0.40 6429
0.00 0.00 -4.59 -0.17 13.80 -4.28 1.20 -0.53 6436
0.00 0.00 -5.04 -0.37 14.25 -4.28 1.05 -0.69 6444
0.00 0.00 -4.88 -1.49 15.65 -4.28 0.99 -0.81 6451
0.00 0.00 -4.32 -1.81 15.36 -4.28 1.04 -0.89 6458
0.00 0.00 -3.50 -3.22 17.02 -4.28 1.11 -0.94 6465
0.00 0.00 -4.15 -1.87 15.34 -4.28 0.97 -0.97 6472
-0.00 0.00 -2.98 -4.07 17.72 -4.28 1.01 -0.89 6479
0.00 -0.00 -2.50 -3.93 17.17 -4.28 1.04 -0.82 6487
0.00 -0.00 -1.08 -5.12 17.65 -4.28 1.17 -0.74 6494
0.00 0.00 -0.64 -6.40 17.82 -4.28 1.35 -0.62 6501
0.00 0.00 -0.04 -7.49 19.38 -4.04 1.58 -0.48 6508
0.00 0.00 0.18 -7.51 21.75 -3.74 1.88 -0.29 6515
0.00 0.00 -0.07 -6.96 23.95 -3.74 2.10 -0.04 6522
0.01 -0.00 -0.80 -7.80 25.08 -3.94 2.17 0.17 6530
0.00 0.00 -1.43 -9.53 25.54 -4.09 2.02 0.38 6537
0.00 0.00 -1.66 -10.97 25.28 -4.17 1.84 0.50 6544
0.00 0.00 -1.99 -12.37 24.28 -4.22 1.70 0.54 6551
0.00 0.00 -2.98 -14.07 22.92 -4.26 1.66 0.52 6558
0.01 -0.00 -4.56 -14.74 21.67 -4.27 1.62 0.47 6566
0.01 -0.00 -6.13 -16.27 20.20 -4.27 1.47 0.40 6574
0.01 -0.00 -7.14 -17.73 18.80 -4.26 1.23 0.37 6581
0.00 0.00 -7.76 -19.99 16.75 -4.22 0.92 0.41 6587
0.00 0.00 -7.70 -23.93 14.58 -4.14 0.67 0.51 6594
0.00 0.00 -6.51 -28.89 11.99 -3.91 0.32 0.59 6601
0.01 -0.00 -4.75 -37.40 7.32 -3.64 0.05 0.56 6608
0.00 0.00 -4.69 -45.98 1.40 -3.16 0.14 0.46 6616
0.00 0.00 -7.28 -51.82 -1.65 -2.19 0.60 0.36 6623
0.00 0.00 -11.71 -49.56 -2.21 -0.96 0.72 0.26 6630
0.00 0.00 -13.25 -42.31 0.43 0.52 0.06 0.16 6637
-0.00 0.01 -10.76 -32.84 5.34 1.53 -0.96 0.07 6645
-0.00 0.00 -5.99 -27.31 3.44 1.97 -1.51 -0.07 6651
-0.00 0.00 -5.10 -7.88 18.43 3.69 -1.39 -1.00 6659
-0.00 0.01 1.06 11.95 5.67 3.59 -1.06 -1.04 6666
-0.01 0.09 0.65 3.82 16.49 3.25 -1.71 -1.18 6673
-0.02 0.23 5.11 0.71 13.83 2.92 -1.81 -1.04 6680
-0.03 0.44 4.31 -1.94 10.01 3.20 -1.64 -0.56 6688
-0.01 0.61 4.14 -3.82 13.15 3.70 -1.19 -0.04 6695
-0.04 0.78 4.16 -2.42 17.00 3.88 -0.10 0.68 6703
-0.05 0.87 0.18 -2.93 18.71 3.59 0.55 1.13 6710
-0.05 0.97 -3.35 -3.40 17.44 3.14 0.35 0.98 6717
-0.05 1.05 -4.54 -3.42 15.55 3.04 0.38 0.62 6724
-0.06 1.15 -3.27 -3.03 15.02 2.93 0.57 0.35 6731
-0.05 1.10 -1.36 -2.36 14.60 2.58 0.57 0.08 6738
-0.05 1.07 0.41 -1.31 13.21 2.32 0.58 -0.01 6746
-0.04 1.08 1.54 -2.47 15.32 2.02 0.63 0.09 6753
-0.06 1.01 1.54 -1.92 14.01 0.70 -0.11 0.07 6760
-0.06 1.01 0.13 -2.72 12.49 0.04 -0.10 0.05 6766
-0.03 0.99 -0.05 -2.10 11.16 -0.05 0.01 0.02 6773
-0.03 0.97 0.27 -1.30 10.32 -0.06 0.07 0.01 6780
-0.04 0.94 0.32 -1.05 9.92 -0.04 0.08 0.01 6788
-0.03 0.91 0.20 -1.13 9.89 -0.05 0.10 0.02 6795
-0.02 0.85 0.37 -1.15 9.85 -0.07 0.11 0.01 6802
0.01 0.87 0.46 -1.08 9.92 -0.07 0.12 0.01 6809
0.03 0.86 0.35 -0.98 9.87 -0.07 0.12 -0.00 6816
0.04 0.82 0.35 -0.91 9.92 -0.06 0.12 -0.00 6823
0.04 0.82 0.38 -0.88 9.86 -0.05 0.11 -0.01 6831
0.02 0.85 0.33 -0.87 9.82 -0.04 0.11 -0.01 6838
0.04 0.85 0.36 -0.83 9.82 -0.03 0.10 -0.01 6845
0.04 0.88 0.34 -0.78 9.79 -0.02 0.07 -0.01 6852
0.06 0.86 0.40 -0.75 9.85 -0.01 0.10 -0.02 6859
0.05 0.84 0.43 -0.80 9.84 0.00 0.08 -0.02 6866
0.04 0.83 0.44 -0.83 9.87 0.02 0.06 -0.02 6874
0.04 0.81 0.44 -0.80 9.85 0.03 0.03 -0.02 6881
0.04 0.80 0.41 -0.81 9.87 0.06 0.00 -0.03 6888
0.04 0.77 0.39 -0.81 9.88 0.08 -0.01 -0.03 6895
0.06 0.77 0.35 -0.81 9.88 0.10 -0.03 -0.03 6902
0.05 0.78 0.40 -0.79 9.80 0.11 -0.04 -0.04 6909
0.03 0.76 0.41 -0.83 9.80 0.13 -0.06 -0.05 6917
0.02 0.67 0.40 -0.82 9.74 0.14 -0.08 -0.05 6924
0.04 0.71 0.44 -0.88 9.74 0.15 -0.09 -0.05 6931
0.06 0.67 0.44 -0.86 9.71 0.14 -0.10 -0.05 6938
0.07 0.57 0.35 -0.90 9.75 0.14 -0.10 -0.06 6945
0.06 0.57 0.38 -0.91 9.71 0.14 -0.10 -0.06 6952
0.06 0.48 0.32 -0.99 9.72 0.14 -0.10 -0.06 6960
0.06 0.43 0.39 -0.93 9.70 0.13 -0.11 -0.07 6967
0.07 0.41 0.36 -0.96 9.68 0.13 -0.12 -0.07 6974
0.09 0.41 0.37 -0.97 9.74 0.12 -0.13 -0.08 6981
0.09 0.41 0.37 -1.02 9.65 0.12 -0.14 -0.08 6988
0.10 0.38 0.32 -1.03 9.70 0.12 -0.14 -0.08 6995
0.13 0.38 0.24 -0.99 9.71 0.11 -0.14 -0.08 7003
0.11 0.35 0.22 -1.04 9.79 0.11 -0.13 -0.08 7010
0.13 0.34 0.13 -1.08 9.84 0.12 -0.12 -0.09 7017
0.13 0.34 0.12 -1.06 9.80 0.12 -0.11 -0.09 7024
0.13 0.25 0.19 -1.08 9.83 0.13 -0.11 -0.09 7031
0.19 0.29 0.17 -1.07 9.76 0.13 -0.10 -0.08 7038
0.22 0.28 0.23 -1.14 9.92 0.13 -0.09 -0.08 7046
0.25 0.24 0.19 -1.11 9.77 0.14 -0.09 -0.09 7053
0.31 0.14 0.20 -1.12 9.81 0.15 -0.09 -0.09 7060
0.34 0.15 0.12 -1.09 9.83 0.16 -0.09 -0.09 7067
0.34 0.11 0.27 -1.14 9.81 0.17 -0.09 -0.09 7074
0.36 0.08 0.18 -1.18 9.87 0.18 -0.10 -0.10 7081
0.38 0.05 0.23 -1.18 9.93 0.19 -0.11 -0.10 7089
0.37 0.03 0.19 -1.81 9.85 0.20 -0.12 -0.11 7096
0.38 0.03 0.18 -1.28 9.91 0.22 -0.14 -0.11 7103
0.44 -0.00 0.21 -1.29 10.02 0.24 -0.15 -0.13 7110
0.46 -0.00 0.30 -1.32 10.03 0.25 -0.17 -0.14 7118
0.54 -0.04 0.22 -1.47 10.03 0.27 -0.19 -0.16 7126
0.57 -0.02 0.22 -1.42 10.11 0.30 -0.20 -0.18 7133
0.63 -0.03 0.21 -1.41 10.09 0.34 -0.24 -0.21 7140
0.66 -0.03 0.34 -1.53 10.44 0.37 -0.31 -0.24 7147
0.73 -0.04 0.50 -1.52 10.66 0.44 -0.38 -0.28 7154
0.73 -0.04 0.57 -1.63 10.82 0.52 -0.50 -0.33 7161
0.75 -0.04 0.76 -1.72 10.86 0.60 -0.57 -0.38 7169
0.81 -0.04 0.55 -1.83 11.21 0.72 -0.59 -0.43 7176
0.85 -0.04 0.29 -1.94 11.81 0.85 -0.47 -0.46 7183
0.90 -0.05 -1.05 -1.67 12.23 1.07 -0.38 -0.44 7190
0.96 -0.05 -0.75 -1.77 11.64 1.24 -0.42 -0.34 7197
1.00 -0.06 -0.96 -1.64 12.21 1.37 -0.37 -0.30 7204
1.04 -0.06 -1.21 -1.68 12.38 1.56 -0.37 -0.23 7212
1.10 -0.06 -0.97 -1.86 12.58 1.77 -0.33 -0.16 7219
1.14 -0.05 -0.56 -2.21 13.18 1.97 -0.28 -0.12 7226
1.12 -0.05 -0.17 -2.22 13.61 2.23 -0.22 -0.12 7233
1.15 -0.06 0.41 -2.33 13.86 2.48 -0.19 -0.16 7240
1.10 -0.06 0.43 -2.35 13.00 2.81 -0.13 -0.21 7247
1.09 -0.06 0.20 -2.34 14.19 3.12 -0.06 -0.26 7255
1.04 -0.05 -0.27 -2.70 14.30 3.41 -0.01 -0.29 7262
1.00 -0.04 -0.54 -2.54 15.25 3.73 0.08 -0.30 7268
0.95 -0.04 -0.23 -2.43 15.76 4.02 0.06 -0.30 7276
0.85 -0.04 -0.43 -2.57 16.83 4.26 -0.07 -0.32 7283
0.74 -0.04 1.16 -2.92 15.99 4.28 -0.38 -0.37 7290
0.67 -0.03 0.78 -3.75 17.04 4.28 -0.59 -0.48 7298
0.50 -0.03 1.09 -4.61 18.48 4.28 -0.80 -0.54 7305
0.36 -0.01 1.37 -5.33 20.25 4.28 -0.86 -0.64 7312
0.26 -0.03 0.93 -4.88 20.55 4.28 -0.83 -0.72 7318
0.19 -0.01 -2.44 -6.29 23.88 4.28 -0.91 -0.81 7326
0.14 -0.01 -2.28 -8.31 26.76 4.28 -1.54 -0.82 7332
0.10 -0.01 1.14 -9.99 27.22 4.28 -2.36 -0.77 7340
0.06 -0.01 3.13 -8.92 26.29 4.28 -2.48 -0.87 7347
0.04 -0.00 4.12 -6.73 27.49 4.28 -2.58 -0.91 7354
0.05 -0.00 5.79 -2.22 24.09 4.28 -2.45 -0.83 7361
0.00 0.00 6.84 1.79 20.97 4.28 -2.19 -0.82 7368
0.00 0.00 7.02 6.30 18.77 4.28 -2.01 -0.88 7375
0.00 0.00 6.23 11.19 17.22 4.28 -1.88 -0.98 7383
0.00 0.00 7.40 17.06 10.75 4.28 -1.85 -0.98 7390
0.00 -0.00 7.98 13.98 13.15 3.62 -1.51 -0.48 7397
0.00 0.00 7.09 16.52 24.00 1.15 -0.79 -0.02 7404
0.00 0.00 4.33 15.86 17.66 -1.19 -0.48 0.39 7411
0.00 0.00 1.81 12.07 13.20 -2.35 -0.62 0.70 7418
0.00 0.00 1.45 7.72 10.80 -2.62 -0.93 0.87 7426
0.00 0.00 2.46 6.06 8.40 -2.44 -1.06 0.88 7433
0.00 0.00 3.65 5.47 5.81 -2.24 -0.98 0.84 7440
0.00 0.00 4.40 5.12 5.19 -2.09 -0.70 0.76 7447
0.00 0.00 4.20 4.91 5.44 -2.12 -0.18 0.60 7454
0.00 0.00 2.63 5.55 5.81 -2.28 0.24 0.44 7461
0.00 0.00 0.56 5.97 6.41 -2.62 0.53 0.33 7469
0.00 -0.00 -1.38 6.14 7.37 -2.98 0.59 0.26 7476
0.02 -0.00 -2.38 6.05 8.03 -3.44 0.50 0.25 7483
0.01 -0.00 -2.63 5.65 8.36 -3.86 0.32 0.26 7490
0.00 -0.00 -2.24 4.82 8.67 -4.13 0.22 0.25 7497
0.00 0.00 -1.46 4.03 8.78 -4.26 0.26 0.21 7504
0.01 -0.00 -0.86 2.94 8.86 -4.28 0.44 0.11 7512
0.01 -0.00 -0.75 2.11 9.31 -4.28 0.66 -0.06 7519
0.02 -0.00 -1.40 1.39 9.76 -4.28 0.94 -0.20 7526
0.00 -0.00 -2.55 0.83 10.54 -4.28 1.10 -0.37 7533
0.01 -0.00 -3.94 1.04 11.21 -4.28 0.98 -0.49 7540
0.00 -0.00 -4.25 -0.18 12.17 -4.28 0.96 -0.56 7547
0.01 -0.00 -3.79 -0.93 13.08 -4.28 1.03 -0.61 7555
0.02 -0.00 -2.99 -0.90 13.19 -4.28 0.97 -0.71 7562
0.02 -0.00 -3.77 -0.83 13.93 -4.28 0.97 -0.84 7569
0.00 -0.00 -3.78 -2.00 15.50 -4.28 1.00 -0.83 7576
0.00 0.00 -2.40 -2.09 15.58 -4.28 1.14 -0.78 7583
0.00 0.00 -3.35 -2.10 16.26 -4.28 1.04 -0.72 7590
0.00 0.00 -2.09 -2.79 17.47 -4.28 1.05 -0.59 7598
0.02 -0.00 -3.29 -2.60 15.98 -4.28 1.01 -0.48 7605
0.01 -0.00 -2.25 -4.16 18.34 -4.28 1.08 -0.25 7612
0.00 -0.00 -0.90 -4.87 17.04 -4.27 1.14 -0.17 7619
0.00 0.00 -1.14 -6.13 18.70 -4.15 1.26 0.00 7626
0.00 0.00 -0.45 -6.21 20.34 -3.84 1.42 0.12 7633
-0.00 0.00 -0.12 -6.05 22.19 -3.77 1.63 0.24 7641
0.00 0.00 -0.17 -6.32 24.03 -3.83 1.81 0.40 7648
0.00 0.00 -0.56 -6.82 25.44 -4.06 1.92 0.47 7655
0.00 0.00 -0.73 -7.81 26.18 -4.23 1.97 0.53 7662
0.00 0.00 -1.36 -8.99 26.17 -4.28 1.98 0.53 7669
0.00 0.00 -2.72 -10.74 25.24 -4.28 1.92 0.46 7676
0.00 0.00 -3.74 -12.56 23.38 -4.28 1.82 0.32 7684
0.00 0.00 -4.54 -14.92 21.63 -4.28 1.69 0.21 7691
0.00 0.00 -5.31 -17.57 19.89 -4.28 1.57 0.05 7698
0.00 0.00 -6.05 -19.83 17.79 -4.28 1.44 -0.04 7705
0.00 0.00 -6.53 -22.85 16.38 -4.18 1.28 -0.11 7712
0.00 0.00 -6.48 -27.63 13.75 -3.94 1.11 -0.19 7719
0.00 -0.00 -5.59 -33.28 10.42 -3.57 0.86 -0.30 7727
0.01 -0.00 -5.67 -42.10 5.16 -3.17 0.81 -0.44 7734
0.01 -0.00 -7.97 -50.17 0.76 -2.44 1.02 -0.48 7741
0.00 -0.00 -12.05 -50.73 -1.21 -1.30 1.13 -0.38 7749
0.00 0.00 -14.47 -45.52 0.11 -0.15 0.62 -0.24 7755
0.00 0.00 -12.54 -38.04 4.14 1.01 -0.52 -0.13 7763
0.01 -0.00 -4.56 -45.50 24.32 2.98 -1.99 -0.40 7771
0.01 0.01 -1.48 -12.00 4.62 3.91 -1.17 -0.94 7778
0.00 0.03 1.03 8.59 7.60 4.24 -1.22 -1.04 7784
-0.01 0.14 2.84 1.95 19.81 4.04 -1.32 -0.96 7792
-0.03 0.34 6.09 1.95 14.68 3.50 -1.26 -0.71 7799
-0.03 0.54 5.18 -1.45 12.26 3.72 -1.21 -0.27 7806
-0.02 0.67 5.29 -4.97 15.84 4.02 -0.86 0.29 7814
-0.04 0.81 2.74 -3.54 19.55 4.04 -0.02 0.90 7821
-0.05 0.89 -2.28 -2.59 19.18 3.53 0.33 1.12 7828
-0.06 0.97 -5.66 -3.74 18.04 3.18 0.21 0.76 7835
-0.04 1.03 -5.14 -3.89 15.53 2.97 0.24 0.32 7842
-0.05 1.08 -2.34 -2.68 14.76 2.77 0.32 -0.08 7849
-0.02 1.07 0.12 -1.82 12.56 2.47 0.28 -0.24 7857
-0.04 1.08 2.38 -1.37 12.07 2.30 0.28 -0.13 7864
-0.03 1.03 2.50 -1.85 15.07 2.13 0.43 0.16 7871
-0.06 0.98 -0.44 -3.35 16.30 0.77 -0.22 0.19 7878
-0.04 0.96 -0.42 -2.67 12.33 -0.03 -0.11 0.07 7885
-0.03 0.96 -0.58 -2.38 10.60 -0.10 -0.07 -0.05 7892
-0.03 0.91 0.63 -0.99 9.91 -0.06 -0.00 -0.01 7899
-0.01 0.86 0.11 -1.12 9.92 -0.06 0.01 0.01 7906
0.00 0.81 -0.03 -1.19 9.74 -0.07 0.04 -0.00 7913
-0.02 0.84 0.31 -1.14 9.82 -0.10 0.07 -0.01 7920
0.02 0.81 0.22 -1.06 10.03 -0.09 0.08 -0.01 7927
0.04 0.81 0.17 -0.96 9.90 -0.06 0.09 -0.01 7934
0.05 0.82 0.24 -0.94 9.95 -0.04 0.10 -0.01 7942
0.03 0.80 0.25 -0.93 9.83 -0.03 0.10 -0.01 7949
0.04 0.83 0.24 -0.89 9.82 -0.01 0.09 -0.02 7956
0.04 0.82 0.25 -0.81 9.83 0.01 0.08 -0.02 7963
0.05 0.81 0.27 -0.79 9.84 0.02 0.07 -0.03 7970
0.07 0.78 0.30 -0.86 9.85 0.04 0.05 -0.03 7977
0.07 0.76 0.34 -0.85 9.83 0.06 0.02 -0.02 7985
0.06 0.74 0.28 -0.84 9.81 0.07 -0.01 -0.03 7992
0.05 0.70 0.26 -0.86 9.89 0.09 -0.03 -0.03 7999
0.07 0.67 0.29 -0.85 9.87 0.11 -0.04 -0.04 8006
0.08 0.67 0.28 -0.85 9.86 0.14 -0.05 -0.04 8013
0.11 0.62 0.31 -0.87 9.83 0.16 -0.06 -0.04 8020
0.09 0.56 0.24 -0.91 9.81 0.17 -0.07 -0.05 8028
0.10 0.52 0.19 -0.94 9.75 0.17 -0.06 -0.05 8035
0.09 0.46 0.23 -0.96 9.76 0.17 -0.06 -0.05 8042
0.11 0.40 0.23 -0.94 9.81 0.17 -0.06 -0.06 8049
0.14 0.36 0.27 -0.93 9.68 0.18 -0.05 -0.06 8056
0.17 0.39 0.17 -0.98 9.69 0.18 -0.05 -0.06 8064
0.15 0.29 0.24 -1.07 9.73 0.18 -0.05 -0.07 8071
0.16 0.26 0.22 -1.03 9.72 0.17 -0.04 -0.07 8078
0.16 0.23 0.19 -1.11 9.72 0.16 -0.04 -0.07 8085
0.18 0.22 0.23 -1.12 9.78 0.15 -0.04 -0.07 8092
0.20 0.16 0.24 -1.13 9.75 0.15 -0.05 -0.07 8099
0.19 0.14 0.20 -1.14 9.77 0.15 -0.06 -0.08 8107
0.22 0.12 0.21 -1.18 9.70 0.15 -0.06 -0.08 8114
0.22 0.09 0.14 -1.14 9.80 0.14 -0.07 -0.09 8121
0.24 0.11 0.29 -1.12 9.73 0.14 -0.07 -0.09 8128
0.29 0.08 0.08 -1.44 9.67 0.15 -0.08 -0.10 8135
0.30 0.06 0.16 -1.23 9.72 0.15 -0.09 -0.10 8142
0.34 0.02 0.13 -1.25 9.25 0.15 -0.09 -0.10 8150
0.34 0.02 0.35 -1.28 9.85 0.15 -0.08 -0.11 8157
0.35 0.03 0.17 -1.24 9.80 0.15 -0.08 -0.10 8164
0.37 0.04 0.04 -1.25 9.82 0.16 -0.08 -0.11 8171
0.38 0.05 0.02 -1.34 9.85 0.16 -0.08 -0.11 8178
0.42 -0.00 0.09 -1.41 9.81 0.16 -0.07 -0.11 8185
0.46 -0.00 0.18 -1.34 9.82 0.17 -0.07 -0.11 8193
0.48 -0.03 0.18 -1.38 9.83 0.17 -0.07 -0.12 8200
0.48 -0.02 0.49 -1.08 10.00 0.18 -0.08 -0.13 8207
0.52 -0.03 0.26 -1.42 9.85 0.19 -0.09 -0.15 8214
0.54 -0.02 0.15 -1.46 9.92 0.22 -0.10 -0.16 8221
0.61 -0.03 0.24 -1.47 9.93 0.24 -0.11 -0.18 8228
0.63 -0.03 0.23 -1.45 10.04 0.28 -0.13 -0.20 8237
0.65 -0.06 0.22 -1.51 10.26 0.33 -0.17 -0.22 8244
0.65 -0.04 0.30 -1.59 10.37 0.38 -0.23 -0.24 8251
0.68 -0.04 0.37 -1.67 10.50 0.44 -0.27 -0.27 8258
0.74 -0.04 0.37 -1.69 10.71 0.54 -0.31 -0.30 8265
0.79 -0.04 0.37 -1.86 11.17 0.64 -0.28 -0.32 8272
0.82 -0.04 0.21 -1.83 11.61 0.80 -0.17 -0.33 8280
0.82 -0.06 -0.37 -1.69 11.07 0.96 -0.12 -0.31 8287
0.84 -0.04 -0.25 -1.92 10.89 1.05 -0.12 -0.28 8294
0.88 -0.04 -0.49 -1.87 10.78 1.14 -0.06 -0.26 8301
0.91 -0.04 -0.80 -1.92 11.08 1.23 0.01 -0.22 8308
0.96 -0.05 -0.77 -2.02 11.52 1.35 0.09 -0.18 8315
0.95 -0.05 -0.67 -2.12 12.03 1.51 0.17 -0.11 8323
0.94 -0.04 -0.26 -2.22 12.48 1.67 0.22 -0.08 8330
0.95 -0.05 -0.19 -2.35 13.09 1.90 0.23 -0.07 8336
0.97 -0.04 0.55 -2.43 13.39 2.16 0.19 -0.08 8344
0.98 -0.04 0.82 -2.46 14.03 2.41 0.16 -0.12 8351
0.98 -0.04 0.52 -2.79 13.74 2.70 0.09 -0.17 8358
0.99 -0.05 0.74 -2.78 14.45 2.94 0.04 -0.23 8366
0.98 -0.04 0.22 -2.75 14.44 3.24 0.03 -0.28 8373
0.97 -0.04 -0.10 -2.85 14.32 3.55 0.02 -0.29 8380
0.95 -0.03 0.28 -2.80 15.16 3.87 -0.05 -0.31 8387
0.95 -0.04 0.54 -2.69 15.75 4.19 -0.17 -0.34 8394
0.87 -0.04 1.46 -3.09 15.72 4.28 -0.35 -0.42 8401
0.78 -0.05 1.31 -3.40 16.49 4.28 -0.44 -0.52 8409
0.62 -0.03 0.82 -4.43 17.01 4.28 -0.56 -0.61 8416
0.48 -0.02 1.09 -5.83 19.84 4.28 -0.72 -0.65 8423
0.35 -0.02 2.96 -6.51 22.05 4.28 -0.77 -0.69 8430
0.20 -0.02 1.03 -7.14 22.61 4.28 -0.78 -0.86 8436
0.16 -0.02 -3.49 -7.54 24.26 4.28 -1.11 -0.98 8443
0.13 -0.01 -3.21 -9.09 26.56 4.28 -1.71 -0.83 8451
0.10 -0.01 1.29 -9.60 27.53 4.28 -2.04 -0.65 8458
0.03 -0.00 4.26 -8.71 26.56 4.28 -1.98 -0.79 8465
0.04 -0.00 5.15 -6.07 28.60 4.28 -2.00 -0.81 8472
0.05 -0.00 6.22 -3.07 24.58 4.28 -1.95 -0.80 8479
0.02 -0.00 7.14 3.30 20.38 4.28 -1.85 -0.85 8486
0.00 0.00 7.10 8.85 18.00 4.28 -1.67 -0.93 8494
0.01 -0.00 7.51 11.91 16.81 4.28 -1.50 -1.07 8502
0.00 0.00 9.27 19.40 9.03 4.28 -1.47 -1.21 8508
0.00 -0.00 10.06 13.35 17.45 3.52 -0.96 -0.65 8516
0.00 -0.00 7.32 15.15 24.03 0.53 -0.06 -0.26 8522
0.00 0.00 3.18 14.89 16.99 -1.33 0.17 0.15 8529
0.00 0.00 0.97 11.21 13.89 -2.49 -0.14 0.43 8537
0.00 0.00 1.23 7.44 11.45 -2.79 -0.66 0.57 8544
0.00 0.00 2.18 5.95 8.82 -2.75 -0.85 0.57 8551
0.00 -0.00 3.23 5.24 6.59 -2.66 -0.83 0.52 8558
0.00 0.00 3.94 4.84 5.66 -2.62 -0.58 0.40 8565
0.00 0.00 3.82 4.61 5.87 -2.68 -0.24 0.26 8572
0.00 0.00 2.49 4.88 6.12 -2.87 0.21 0.09 8580
0.00 0.00 1.08 5.53 6.58 -3.16 0.51 -0.03 8587
0.00 0.00 -0.58 5.56 7.10 -3.53 0.66 -0.09 8594
0.00 0.00 -2.00 5.11 7.58 -3.82 0.59 -0.10 8601
0.00 0.00 -2.35 4.60 7.98 -4.09 0.44 -0.08 8608
0.00 0.00 -2.09 3.94 8.06 -4.21 0.28 -0.05 8615
0.00 0.00 -1.76 3.31 8.37 -4.26 0.22 -0.03 8623
0.00 0.00 -1.14 2.79 8.86 -4.28 0.27 -0.02 8630
0.00 -0.00 -0.76 2.16 9.19 -4.28 0.45 -0.04 8637
0.00 0.00 -0.82 1.82 9.78 -4.28 0.63 -0.09 8644
0.00 0.00 -1.50 1.46 10.00 -4.28 0.80 -0.15 8651
0.00 0.00 -2.75 0.90 11.41 -4.28 0.89 -0.21 8658
0.00 0.00 -2.70 -0.17 12.47 -4.28 1.02 -0.23 8666
0.00 0.00 -2.38 -0.46 12.87 -4.28 1.00 -0.34 8673
0.00 0.00 -2.90 -0.49 13.32 -4.28 0.96 -0.51 8680
0.00 0.00 -3.56 -1.35 15.17 -4.28 0.94 -0.60 8687
0.00 0.00 -2.17 -1.49 14.97 -4.28 1.08 -0.64 8694
0.00 0.00 -2.81 -1.65 16.06 -4.28 1.04 -0.68 8701
0.00 0.00 -2.89 -2.21 16.37 -4.28 0.95 -0.69 8709
0.00 -0.00 -1.31 -3.28 17.19 -4.28 0.97 -0.64 8716
0.02 -0.00 -1.22 -3.97 17.04 -4.28 1.07 -0.60 8723
0.00 -0.00 -0.08 -5.67 17.39 -4.28 1.30 -0.49 8730
0.00 -0.00 0.22 -6.99 17.63 -4.23 1.53 -0.32 8737
0.00 -0.00 0.46 -7.82 19.69 -3.83 1.80 -0.14 8744
0.00 -0.00 0.39 -7.03 22.28 -3.62 2.13 0.10 8752
-0.00 0.00 0.29 -7.21 24.14 -3.71 2.29 0.33 8759
0.02 -0.00 -0.16 -8.35 25.52 -3.84 2.35 0.56 8766
0.00 0.00 -0.49 -9.87 26.15 -4.01 2.28 0.68 8773
0.00 0.00 -0.83 -11.67 26.01 -4.14 2.17 0.70 8780
0.00 0.00 -1.34 -13.11 25.26 -4.22 2.09 0.60 8787
0.00 0.00 -2.58 -13.97 24.33 -4.28 2.02 0.45 8795
0.00 -0.00 -4.56 -15.57 22.88 -4.28 1.91 0.25 8803
0.01 -0.00 -6.27 -17.69 20.63 -4.28 1.74 0.05 8810
0.00 -0.00 -7.81 -19.98 18.76 -4.28 1.49 -0.07 8817
0.01 -0.00 -8.76 -23.40 16.42 -4.28 1.21 -0.14 8824
0.00 0.00 -8.67 -27.34 13.50 -4.23 0.92 -0.17 8830
0.00 -0.00 -7.40 -33.55 10.59 -4.02 0.55 -0.19 8838
0.01 -0.00 -6.82 -42.72 5.29 -3.67 0.41 -0.25 8845
0.01 -0.00 -8.71 -50.67 0.29 -3.05 0.62 -0.23 8852
0.01 -0.00 -12.68 -54.60 -2.46 -2.08 0.81 -0.15 8860
0.01 -0.00 -15.24 -50.24 -2.46 -0.58 0.40 -0.10 8867
0.00 -0.00 -16.79 -53.73 15.63 1.98 -1.75 -0.25 8875
0.00 -0.00 -2.60 -35.33 2.06 3.47 -2.19 -0.90 8881
0.01 0.01 1.22 0.77 6.68 4.27 -2.13 -1.18 8888
0.01 0.09 -1.74 4.62 17.50 4.11 -2.04 -1.26 8896
-0.02 0.27 3.08 3.39 19.59 3.40 -1.65 -1.07 8903
-0.03 0.54 4.93 -0.01 12.91 3.24 -1.54 -0.79 8910
-0.04 0.70 3.37 -5.79 14.94 3.70 -1.20 -0.36 8918
-0.06 0.87 5.05 -3.97 16.48 4.16 -0.28 0.36 8925
-0.05 0.99 0.00 -2.95 20.27 3.90 0.32 0.74 8931
-0.05 1.02 -3.59 -3.75 19.67 3.31 0.44 0.66 8939
-0.05 1.06 -3.83 -3.52 15.50 2.97 0.46 0.37 8946
-0.05 1.14 -1.85 -2.87 14.65 2.78 0.46 0.09 8953
-0.05 1.13 0.57 -1.23 13.58 2.46 0.55 0.00 8960
-0.06 1.13 2.44 -1.90 14.42 2.11 0.69 0.15 8968
-0.05 1.09 0.16 -2.28 14.80 0.85 -0.06 0.20 8974
-0.06 1.07 0.10 -2.46 12.50 0.05 -0.06 0.14 8981
-0.02 0.99 -0.12 -2.34 11.14 -0.05 0.06 0.07 8988
-0.05 0.99 0.21 -1.33 10.49 -0.06 0.11 0.04 8996
-0.04 0.91 0.24 -0.92 10.01 -0.03 0.14 0.05 9003
-0.02 0.92 0.14 -1.06 9.90 -0.03 0.17 0.04 9010
-0.00 0.85 0.33 -1.02 9.20 -0.05 0.21 0.04 9017
-0.01 0.89 0.46 -1.02 9.95 -0.06 0.22 0.03 9024
0.02 0.83 0.38 -0.91 9.91 -0.05 0.22 0.02 9031
-0.00 0.83 0.47 -0.89 9.86 -0.03 0.23 0.01 9038
0.00 0.83 0.53 -0.86 9.87 -0.03 0.22 0.01 9046
-0.00 0.83 0.54 -0.75 9.77 -0.02 0.22 0.01 9053
0.01 0.79 0.51 -0.72 9.80 -0.01 0.21 -0.00 9060
-0.00 0.81 0.56 -0.72 9.75 -0.00 0.19 -0.01 9067
-0.00 0.80 0.55 -0.73 9.76 0.01 0.18 -0.01 9074
-0.01 0.79 0.61 -0.71 9.77 0.02 0.17 -0.02 9081
0.00 0.77 0.57 -0.72 9.82 0.03 0.16 -0.02 9089
0.02 0.74 0.61 -0.74 9.82 0.03 0.13 -0.02 9096
0.00 0.75 0.61 -0.77 9.80 0.03 0.11 -0.02 9103
-0.00 0.72 0.60 -0.76 9.21 0.05 0.10 -0.02 9110
-0.00 0.68 0.57 -0.78 9.80 0.06 0.09 -0.02 9117
-0.00 0.73 0.62 -0.78 9.80 0.06 0.08 -0.03 9124
0.00 0.70 0.58 -0.78 9.80 0.08 0.08 -0.03 9132
0.01 0.64 0.57 -0.76 9.79 0.09 0.08 -0.03 9139
0.01 0.61 0.57 -0.77 9.74 0.10 0.07 -0.04 9146
0.01 0.57 0.63 -0.77 9.79 0.11 0.07 -0.04 9153
-0.01 0.54 0.04 -0.76 9.76 0.12 0.07 -0.04 9160
0.01 0.46 0.67 -0.78 9.76 0.12 0.06 -0.04 9167
0.01 0.51 0.68 -0.83 9.75 0.13 0.04 -0.04 9175
0.02 0.43 0.65 -0.85 9.69 0.13 0.03 -0.05 9182
0.02 0.37 0.69 -0.88 9.73 0.12 0.02 -0.05 9189
0.02 0.31 0.68 -0.88 9.68 0.11 0.01 -0.05 9196
0.02 0.33 0.71 -0.91 9.69 0.11 -0.01 -0.06 9203
0.03 0.28 0.68 -0.94 9.74 0.11 -0.03 -0.06 9210
0.05 0.26 0.67 -0.91 9.67 0.10 -0.04 -0.07 9218
0.05 0.24 0.65 -0.97 9.70 0.10 -0.04 -0.07 9225
0.04 0.20 0.47 -0.99 9.78 0.10 -0.03 -0.07 9232
0.06 0.22 0.73 -0.85 9.77 0.11 -0.02 -0.07 9239
0.05 0.18 0.40 -0.94 9.80 0.11 -0.02 -0.08 9246
0.04 0.20 0.56 -1.01 9.76 0.13 -0.02 -0.08 9253
0.06 0.16 0.63 -1.04 9.75 0.13 -0.01 -0.08 9261
0.09 0.12 0.53 -1.06 9.81 0.14 -0.01 -0.08 9268
0.09 0.08 0.61 -1.01 9.75 0.14 -0.00 -0.07 9275
0.08 0.12 0.67 -1.02 9.81 0.15 -0.00 -0.08 9282
0.08 0.08 0.43 -1.05 9.82 0.16 -0.01 -0.08 9289
0.09 0.11 0.62 -1.12 9.76 0.17 -0.02 -0.08 9296
0.12 0.06 0.60 -1.12 9.80 0.18 -0.02 -0.08 9304
0.11 0.02 0.67 -1.10 9.81 0.19 -0.03 -0.09 9311
0.12 0.03 0.64 -1.09 9.83 0.19 -0.06 -0.09 9318
0.12 0.02 0.68 -1.19 9.88 0.20 -0.08 -0.10 9325
0.14 0.02 0.68 -1.15 9.84 0.21 -0.11 -0.11 9332
0.15 0.01 0.63 -1.17 9.82 0.21 -0.13 -0.11 9339
0.19 0.00 0.55 -0.64 9.87 0.22 -0.15 -0.12 9347
0.20 -0.01 0.58 -1.29 9.90 0.23 -0.15 -0.13 9354
0.22 -0.02 0.60 -1.37 9.87 0.24 -0.15 -0.13 9361
0.22 -0.00 0.49 -1.34 9.93 0.26 -0.14 -0.15 9368
0.26 -0.02 0.53 -1.30 10.11 0.28 -0.14 -0.15 9376
0.27 -0.02 0.59 -1.32 10.02 0.29 -0.13 -0.17 9383
0.27 -0.02 0.57 -1.42 10.14 0.33 -0.10 -0.19 9391
0.26 -0.01 0.71 -1.53 10.39 0.38 -0.05 -0.23 9398
0.33 -0.03 1.27 -1.55 10.82 0.48 0.05 -0.28 9405
0.37 -0.03 0.41 -1.70 11.83 0.66 0.20 -0.32 9412
0.41 -0.02 -0.24 -1.57 11.80 0.89 0.28 -0.28 9419
0.44 -0.03 0.19 -1.62 11.71 1.11 0.23 -0.23 9426
0.50 -0.03 0.09 -1.66 11.77 1.25 0.23 -0.21 9433
0.50 -0.03 0.15 -1.78 12.08 1.41 0.22 -0.18 9441
0.54 -0.03 0.18 -1.88 12.59 1.58 0.25 -0.15 9448
0.55 -0.03 0.47 -1.95 12.96 1.75 0.27 -0.13 9455
0.58 -0.02 0.75 -2.02 12.77 1.96 0.25 -0.12 9462
0.62 -0.03 1.21 -2.11 13.29 2.20 0.21 -0.15 9469
0.65 -0.04 1.12 -2.29 13.00 2.43 0.18 -0.19 9477
0.67 -0.04 1.21 -2.59 13.33 2.70 0.17 -0.22 9484
0.66 -0.04 1.37 -2.68 14.01 2.92 0.17 -0.26 9491
0.65 -0.03 1.14 -2.33 14.22 3.20 0.15 -0.29 9498
0.66 -0.03 0.86 -2.53 14.88 3.50 0.13 -0.31 9505
0.70 -0.03 0.93 -2.73 15.37 3.78 0.08 -0.33 9512
0.64 -0.04 1.69 -2.96 15.34 4.13 -0.05 -0.37 9520
0.59 -0.04 2.52 -3.42 14.87 4.27 -0.19 -0.48 9527
0.53 -0.03 2.13 -3.55 15.37 4.28 -0.30 -0.60 9534
0.43 -0.02 1.34 -3.91 17.71 4.28 -0.44 -0.67 9541
0.29 -0.01 1.85 -5.39 20.53 4.28 -0.66 -0.70 9548
0.22 -0.02 4.12 -6.29 20.59 4.28 -0.85 -0.77 9554
0.15 -0.02 3.04 -7.37 21.03 4.28 -0.97 -0.99 9562
0.10 -0.01 -0.74 -7.29 22.93 4.28 -1.20 -1.14 9569
0.10 -0.01 -1.52 -7.31 26.25 4.28 -1.54 -1.04 9576
0.10 -0.01 2.34 -9.17 26.72 4.28 -1.92 -0.87 9584
0.07 -0.01 4.73 -6.90 25.04 4.28 -2.08 -0.97 9590
0.06 -0.01 6.23 -7.12 26.02 4.28 -2.06 -1.00 9597
0.05 -0.00 6.65 -2.70 25.00 4.28 -2.02 -1.03 9605
0.04 -0.00 6.80 2.02 21.32 4.28 -1.94 -1.05 9612
0.02 -0.00 8.34 6.86 18.51 4.28 -1.74 -1.19 9619
0.01 -0.00 7.23 11.25 15.95 4.28 -1.57 -1.30 9627
0.00 0.00 7.59 23.71 9.70 4.28 -1.52 -1.51 9633
0.00 0.00 10.54 14.21 12.94 3.40 -1.21 -1.22 9640
0.00 0.00 7.31 14.66 24.47 0.77 -0.46 -0.94 9648
0.00 0.00 4.05 15.46 17.23 -0.99 0.07 -0.60 9655
0.00 0.00 2.48 13.24 12.31 -2.10 -0.01 -0.37 9662
0.00 0.00 1.41 9.19 10.12 -2.38 -0.43 -0.23 9669
0.00 0.00 1.83 6.26 8.54 -2.33 -0.59 -0.16 9676
0.00 0.00 2.27 5.98 6.70 -2.22 -0.63 -0.09 9683
0.00 0.00 2.53 6.03 5.93 -2.19 -0.51 -0.03 9691
0.00 0.00 2.47 5.74 6.05 -2.29 -0.30 -0.01 9698
0.00 0.00 1.59 5.72 6.32 -2.52 -0.02 0.04 9705
-0.00 0.00 0.55 5.93 6.87 -2.79 0.17 0.10 9712
0.00 0.00 -0.57 5.89 7.36 -3.16 0.30 0.19 9719
0.00 0.00 -1.44 5.49 7.98 -3.47 0.35 0.31 9726
0.00 0.00 -1.90 5.02 8.50 -3.80 0.33 0.40 9734
0.00 0.00 -1.90 4.21 8.84 -4.07 0.32 0.50 9741
0.00 0.00 -1.87 3.58 9.13 -4.18 0.32 0.54 9748
0.00 0.00 -1.84 2.84 9.41 -4.25 0.35 0.55 9755
0.00 0.00 -1.94 2.24 9.83 -4.27 0.39 0.54 9762
0.00 0.00 -2.11 1.88 10.35 -4.28 0.42 0.47 9769
0.00 0.00 -2.73 1.74 10.73 -4.28 0.39 0.44 9777
0.00 0.00 -2.88 0.95 12.19 -4.28 0.41 0.39 9784
0.00 0.00 -2.47 0.21 13.10 -4.28 0.55 0.34 9791
0.00 0.00 -1.66 -0.57 13.82 -4.28 0.59 0.23 9798
0.00 0.00 -1.51 -0.34 13.98 -4.28 0.58 0.02 9805
0.00 0.00 -2.15 -1.15 14.73 -4.28 0.64 -0.08 9812
0.00 0.00 -1.95 -2.22 16.36 -4.28 0.53 -0.17 9820
0.00 0.00 -1.23 -2.28 16.06 -4.28 0.56 -0.20 9827
-0.00 0.00 -0.45 -3.12 17.16 -4.28 0.56 -0.22 9834
0.00 -0.00 -1.33 -3.38 17.16 -4.28 0.46 -0.25 9841
0.00 0.00 -0.03 -5.04 18.06 -4.28 0.48 -0.22 9848
0.00 0.00 0.98 -5.61 17.46 -4.28 0.50 -0.23 9856
0.00 0.00 2.10 -7.54 18.74 -4.20 0.71 -0.23 9863
0.00 0.00 2.63 -7.88 19.92 -3.81 1.01 -0.21 9870
-0.00 0.00 3.16 -7.54 21.49 -3.61 1.40 -0.17 9877
0.00 0.00 3.25 -7.26 22.95 -3.57 1.75 -0.10 9884
0.00 0.00 2.78 -7.98 24.98 -3.68 2.05 -0.01 9891
0.00 -0.00 2.15 -8.66 25.45 -3.90 2.17 0.05 9899
0.00 0.00 1.65 -9.99 25.16 -4.11 2.20 0.07 9906
0.00 0.00 1.18 -11.50 24.65 -4.21 2.20 0.01 9913
0.00 0.00 0.22 -12.55 23.34 -4.27 2.20 -0.08 9920
0.00 0.00 -1.20 -13.89 22.66 -4.28 2.18 -0.24 9927
0.00 0.00 -2.71 -15.36 20.35 -4.28 2.12 -0.38 9934
0.00 0.00 -4.90 -17.82 18.71 -4.28 2.08 -0.45 9942
0.00 0.00 -7.33 -21.26 17.04 -4.28 1.95 -0.49 9949
0.00 0.00 -8.86 -24.77 14.39 -4.23 1.61 -0.48 9956
0.00 -0.00 -8.55 -29.79 11.27 -4.03 1.01 -0.40 9963
0.00 0.00 -7.60 -37.20 6.72 -3.73 0.54 -0.27 9970
0.00 0.00 -7.11 -44.61 2.62 -3.27 0.37 -0.13 9977
0.00 0.00 -8.09 -50.60 -0.85 -2.56 0.51 0.04 9985
0.00 0.00 -9.66 -49.72 -1.29 -1.27 0.45 0.16 9992
0.00 0.00 -10.47 -42.30 0.15 0.14 -0.14 0.22 9999
0.00 0.00 -9.04 -33.30 4.06 1.10 -1.03 0.28 10006
0.00 0.00 -6.06 -26.45 7.17 1.76 -1.50 0.35 10013
0.00 0.00 -3.40 -20.22 9.51 1.93 -1.65 0.45 10020
0.00 0.00 1.65 -0.32 32.39 3.28 -2.37 0.03 10028
-0.00 0.01 2.07 15.40 5.48 3.13 -1.49 0.13 10035
-0.01 0.07 0.76 4.75 11.58 2.86 -1.71 0.13 10042
-0.01 0.20 0.05 2.78 11.09 2.84 -1.66 0.21 10049
-0.02 0.38 0.77 -0.63 8.61 3.31 -1.55 0.36 10056
-0.03 0.54 -0.11 -3.45 12.32 3.86 -1.07 0.59 10064
-0.04 0.72 -0.66 -2.85 17.31 4.06 -0.13 0.86 10072
-0.05 0.83 -3.09 -2.80 18.76 3.55 0.45 0.95 10079
-0.05 1.00 -4.78 -3.94 17.97 3.25 0.36 0.67 10086
-0.05 1.05 -3.95 -3.99 16.44 3.22 0.52 0.32 10093
-0.05 1.08 -1.43 -2.84 15.52 3.04 0.72 0.11 10100
-0.06 1.15 -0.46 -2.40 15.31 2.64 0.73 0.04 10107
-0.07 1.15 0.80 -1.66 13.43 2.32 0.80 0.05 10115
-0.05 1.07 1.44 -2.80 16.60 2.00 0.80 0.14 10121
-0.04 1.03 0.76 -2.52 14.92 0.66 0.07 0.11 10129
-0.04 1.03 0.48 -2.35 12.34 0.06 0.02 0.06 10135
-0.05 0.95 -0.05 -2.04 10.86 -0.04 0.07 0.02 10142
-0.04 0.91 0.24 -1.12 10.07 -0.03 0.13 0.03 10149
-0.04 0.92 0.29 -1.05 9.83 -0.03 0.14 0.04 10157
-0.01 0.86 0.29 -1.11 9.82 -0.05 0.17 0.03 10164
-0.01 0.83 0.34 -1.17 9.91 -0.07 0.19 0.03 10171
-0.01 0.79 0.37 -1.10 9.95 -0.07 0.19 0.02 10178
-0.02 0.81 0.39 -0.96 9.96 -0.06 0.19 0.02 10185
0.00 0.77 0.46 -0.95 9.84 -0.04 0.18 0.01 10192
0.00 0.77 0.45 -0.89 9.81 -0.04 0.17 0.01 10200
0.00 0.78 0.43 -0.86 9.81 -0.04 0.16 -0.00 10207
0.01 0.82 0.48 -0.84 9.78 -0.03 0.16 -0.00 10214
0.00 0.81 0.50 -0.76 9.78 -0.03 0.15 -0.01 10221
-0.01 0.81 0.46 -0.78 9.79 -0.02 0.15 -0.01 10228
-0.01 0.84 0.48 -0.78 9.81 -0.01 0.15 -0.02 10235
-0.00 0.83 0.52 -0.79 9.86 -0.00 0.14 -0.02 10243
0.00 0.82 0.52 -0.78 9.89 0.01 0.12 -0.02 10250
-0.01 0.78 0.54 -0.82 9.88 0.03 0.09 -0.02 10257
-0.01 0.75 0.52 -0.80 9.88 0.05 0.07 -0.03 10264
-0.02 0.73 0.50 -0.81 9.80 0.07 0.06 -0.03 10271
-0.03 0.75 0.49 -0.79 9.78 0.08 0.06 -0.03 10278
-0.01 0.75 0.51 -0.78 9.76 0.08 0.05 -0.04 10286
-0.00 0.74 0.54 -0.80 9.77 0.08 0.05 -0.04 10293
0.00 0.70 0.54 -0.80 9.72 0.08 0.05 -0.05 10300
0.01 0.69 0.54 -0.81 9.71 0.08 0.05 -0.05 10307
-0.01 0.66 0.54 -0.81 9.65 0.08 0.05 -0.05 10314
-0.01 0.64 0.60 -0.76 9.64 0.08 0.05 -0.06 10321
-0.00 0.63 0.60 -0.79 9.64 0.09 0.04 -0.06 10329
0.01 0.60 0.56 -0.84 9.64 0.09 0.03 -0.06 10336
0.01 0.53 0.54 -0.86 9.72 0.08 0.02 -0.06 10343
0.01 0.45 0.57 -0.89 9.75 0.08 0.02 -0.06 10350
0.00 0.44 0.57 -0.91 9.73 0.08 0.01 -0.06 10357
0.01 0.43 0.57 -0.93 9.77 0.08 -0.01 -0.07 10364
0.02 0.42 0.56 -0.92 9.74 0.08 -0.02 -0.07 10372
0.05 0.42 0.48 -0.92 9.78 0.08 -0.03 -0.07 10379
0.01 0.39 0.51 -0.97 9.78 0.08 -0.05 -0.08 10386
0.02 0.38 0.53 -0.93 9.72 0.09 -0.06 -0.07 10393
0.00 0.34 0.52 -0.99 9.86 0.10 -0.07 -0.08 10400
0.02 0.33 0.36 -1.04 9.75 0.11 -0.07 -0.08 10407
0.04 0.29 0.32 -0.88 9.83 0.12 -0.07 -0.08 10415
0.05 0.29 0.49 -1.02 9.74 0.13 -0.06 -0.08 10422
0.06 0.26 0.40 -0.92 9.80 0.14 -0.07 -0.08 10429
0.07 0.24 0.48 -1.03 9.79 0.15 -0.07 -0.08 10436
0.06 0.21 0.52 -0.97 9.77 0.16 -0.08 -0.08 10443
0.04 0.18 0.47 -1.00 9.82 0.18 -0.08 -0.08 10450
0.07 0.14 0.42 -1.06 9.84 0.20 -0.09 -0.08 10458
0.12 0.11 0.45 -1.04 9.83 0.22 -0.09 -0.09 10465
0.14 0.09 0.48 -1.09 9.82 0.24 -0.10 -0.10 10472
0.13 0.05 0.44 -1.17 9.93 0.26 -0.09 -0.10 10479
0.14 0.03 0.36 -1.18 9.87 0.27 -0.09 -0.10 10486
0.17 0.03 0.39 -1.18 9.98 0.28 -0.09 -0.11 10493
0.18 0.01 0.47 -1.22 9.97 0.29 -0.11 -0.12 10501
0.20 0.00 0.48 -1.19 10.08 0.31 -0.12 -0.12 10508
0.23 -0.01 0.46 -1.34 9.96 0.33 -0.13 -0.14 10515
0.29 -0.03 0.54 -1.39 10.09 0.35 -0.14 -0.16 10522
0.30 -0.02 0.62 -1.41 10.23 0.39 -0.15 -0.18 10530
0.37 -0.01 0.71 -1.40 10.21 0.44 -0.16 -0.22 10537
0.41 -0.03 0.75 -1.53 10.49 0.49 -0.17 -0.27 10545
0.46 -0.02 1.10 -1.68 10.85 0.60 -0.16 -0.31 10552
0.46 -0.03 0.98 -1.96 12.15 0.86 -0.11 -0.37 10559
0.55 -0.04 -0.08 -1.66 13.22 1.15 0.01 -0.35 10566
0.59 -0.03 0.32 -1.77 13.15 1.47 -0.01 -0.29 10573
0.63 -0.03 0.04 -1.83 12.96 1.66 -0.03 -0.28 10580
0.65 -0.03 -0.02 -1.78 13.97 1.90 -0.04 -0.25 10588
0.67 -0.03 -0.10 -1.75 14.16 2.15 0.01 -0.22 10595
0.70 -0.05 0.06 -2.24 14.20 2.40 0.04 -0.19 10601
0.75 -0.04 1.11 -2.37 14.31 2.72 0.08 -0.21 10609
0.77 -0.04 1.39 -2.24 15.00 3.03 0.13 -0.28 10616
0.77 -0.03 1.11 -2.17 15.12 3.40 0.19 -0.33 10624
0.81 -0.04 0.44 -2.49 15.86 3.77 0.27 -0.38 10631
0.81 -0.04 0.89 -2.17 16.43 4.10 0.27 -0.39 10638
0.78 -0.04 1.74 -2.29 16.03 4.28 0.19 -0.46 10645
0.69 -0.04 1.32 -2.08 15.74 4.28 0.15 -0.53 10652
0.59 -0.03 1.20 -2.16 17.14 4.28 0.12 -0.59 10659
0.51 -0.02 0.55 -3.65 18.50 4.28 0.14 -0.64 10667
0.41 -0.03 -0.55 -5.15 23.56 4.28 0.05 -0.61 10674
0.20 -0.02 -0.67 -5.44 23.43 4.28 -0.25 -0.51 10680
0.16 -0.02 -0.55 -4.85 22.13 4.28 -0.25 -0.47 10687
0.07 -0.01 -2.92 -7.58 27.88 4.28 -0.22 -0.50 10694
0.03 -0.00 -2.68 -8.18 29.42 4.28 -1.16 -0.41 10701
0.06 -0.01 -0.36 -8.29 27.21 4.28 -1.71 -0.28 10708
0.03 -0.00 1.98 -6.33 26.58 4.28 -2.13 -0.39 10716
0.03 -0.00 5.09 -2.80 25.90 4.28 -2.38 -0.31 10723
0.04 -0.00 6.85 2.14 22.64 4.28 -2.39 -0.24 10730
0.02 -0.00 6.94 6.79 19.15 4.28 -2.07 -0.22 10737
0.02 -0.00 8.23 11.41 16.88 4.28 -1.53 -0.27 10745
0.00 0.00 8.57 18.15 14.34 4.28 -1.07 -0.46 10752
0.00 0.00 10.32 17.36 5.53 4.28 -0.39 -0.71 10759
0.00 0.00 8.73 16.38 20.55 2.64 0.28 -0.69 10766
0.00 0.00 3.51 17.60 20.26 -0.06 0.79 -0.66 10773
0.00 0.00 -0.39 15.44 14.58 -1.55 0.63 -0.52 10780
0.00 0.00 -0.89 11.94 11.86 -2.48 -0.05 -0.43 10787
0.00 0.00 -0.30 8.32 9.74 -2.76 -0.64 -0.40 10795
0.00 0.00 0.57 6.18 7.34 -2.76 -0.85 -0.42 10802
0.00 0.00 1.51 6.07 5.55 -2.78 -0.92 -0.44 10809
0.00 0.00 1.84 5.42 5.31 -2.82 -0.84 -0.44 10816
0.00 0.00 1.80 4.78 5.46 -2.90 -0.66 -0.42 10823
0.00 0.00 1.13 4.67 5.59 -3.04 -0.42 -0.38 10830
0.01 -0.00 0.50 4.51 5.89 -3.21 -0.24 -0.30 10838
0.00 0.00 -0.35 4.41 6.56 -3.48 -0.10 -0.22 10845
0.00 0.00 -0.86 4.06 7.05 -3.73 -0.05 -0.12 10852
0.00 0.00 -1.01 3.54 7.65 -4.00 -0.03 -0.05 10859
0.00 0.00 -0.90 2.95 8.11 -4.17 -0.01 0.01 10866
0.00 -0.00 -0.58 2.40 8.68 -4.24 0.04 0.03 10873
0.00 -0.00 -0.25 1.99 9.17 -4.28 0.13 0.02 10881
0.00 0.00 -0.11 1.48 9.87 -4.28 0.26 -0.03 10888
0.00 0.00 -0.34 1.08 10.54 -4.28 0.36 -0.09 10895
0.00 0.00 -0.99 0.62 11.16 -4.28 0.44 -0.17 10902
0.00 0.00 -0.70 -0.57 12.36 -4.28 0.57 -0.23 10909
0.01 -0.00 -0.98 -0.77 13.42 -4.28 0.61 -0.29 10916
0.00 -0.00 -1.15 -0.73 12.71 -4.28 0.62 -0.38 10924
0.00 0.00 -1.13 -1.85 15.02 -4.28 0.65 -0.44 10931
0.00 0.00 -0.21 -1.71 14.65 -4.28 0.72 -0.46 10938
0.00 0.00 -0.17 -2.64 17.08 -4.28 0.70 -0.48 10945
0.00 0.00 0.35 -2.50 16.11 -4.28 0.63 -0.50 10952
0.02 -0.00 0.55 -3.14 17.95 -4.28 0.60 -0.53 10959
0.00 -0.00 1.48 -3.54 18.03 -4.28 0.73 -0.53 10967
0.01 -0.00 1.77 -4.13 19.19 -4.28 0.87 -0.54 10974
0.00 0.00 1.89 -4.75 19.16 -4.28 1.13 -0.55 10981
0.00 -0.00 1.65 -5.62 20.64 -4.28 1.35 -0.54 10988
0.01 -0.00 1.35 -6.25 21.84 -4.27 1.64 -0.54 10995
0.01 -0.00 0.60 -6.60 23.37 -4.23 1.89 -0.57 11002
0.01 -0.00 -0.34 -6.93 24.23 -4.21 2.07 -0.59 11010
0.00 -0.00 -1.37 -7.81 24.95 -4.23 2.26 -0.64 11017
0.00 0.00 -2.49 -8.81 25.54 -4.26 2.39 -0.73 11024
0.00 0.00 -4.21 -9.91 25.65 -4.28 2.49 -0.77 11031
0.00 0.00 -6.35 -11.47 24.54 -4.28 2.52 -0.82 11038
0.00 0.00 -8.89 -13.03 23.18 -4.28 2.51 -0.79 11045
0.00 0.00 -11.87 -15.87 22.80 -4.28 2.48 -0.66 11053
0.00 0.00 -13.93 -18.99 21.05 -4.28 2.09 -0.53 11060
0.00 0.00 -14.24 -21.95 18.63 -4.27 1.16 -0.34 11068
0.00 0.00 -11.71 -27.55 15.03 -4.15 0.11 -0.06 11074
0.00 0.00 -7.13 -34.03 10.35 -3.75 -0.70 0.07 11081
0.00 0.00 -1.70 -45.35 4.47 -3.29 -0.98 -0.01 11088
0.00 0.00 0.51 -55.19 -1.20 -2.77 -0.31 -0.27 11096
0.00 0.00 -3.28 -55.73 -2.51 -1.67 0.87 -0.45 11103
0.00 0.00 -10.13 -49.50 -1.45 -0.40 1.18 -0.53 11110
-0.00 0.00 -13.37 -39.76 2.33 1.06 0.43 -0.50 11117
0.00 -0.00 -12.33 -30.29 6.16 2.10 -0.84 -0.28 11125
0.00 0.00 -8.38 -22.80 10.05 2.51 -1.73 0.06 11131
0.00 0.00 0.90 -14.83 9.75 2.59 -1.96 0.30 11139
0.00 0.00 -3.93 13.34 17.30 3.82 -1.35 -0.35 11146
-0.00 0.05 4.87 14.85 10.72 3.09 -0.48 -0.29 11153
-0.02 0.17 1.89 5.50 15.27 2.78 -1.10 -0.33 11160
-0.01 0.23 3.43 -0.01 9.56 2.86 -1.45 -0.23 11167
-0.03 0.42 4.24 -2.73 9.39 3.51 -1.36 0.14 11174
-0.03 0.52 3.39 -3.32 13.96 4.05 -0.64 0.66 11183
-0.06 0.66 1.05 -2.91 18.34 3.92 0.32 1.12 11190
-0.05 0.86 -2.50 -3.47 19.33 3.28 0.44 1.16 11197
-0.05 0.93 -5.25 -4.05 16.88 3.03 0.35 0.78 11204
-0.05 0.99 -4.32 -3.26 15.39 3.00 0.43 0.34 11211
-0.06 1.06 -1.98 -2.83 15.29 2.70 0.51 0.09 11218
-0.05 1.03 0.41 -2.38 14.12 2.36 0.56 -0.05 11226
-0.03 1.06 1.88 -2.40 17.41 2.02 0.62 0.01 11232
-0.04 1.02 1.03 -2.45 14.92 0.43 -0.10 0.07 11239
-0.05 0.99 0.40 -3.14 12.60 -0.07 -0.07 0.05 11246
-0.04 0.94 -0.22 -1.98 10.70 -0.07 0.00 -0.02 11253
-0.04 0.90 0.60 -1.22 9.91 -0.07 0.05 -0.02 11260
-0.03 0.86 0.38 -0.98 9.77 -0.07 0.07 -0.00 11268
-0.01 0.82 0.16 -1.15 9.82 -0.07 0.10 -0.00 11275
-0.02 0.84 0.38 -1.20 9.89 -0.09 0.12 -0.00 11282
0.00 0.86 0.53 -1.17 10.07 -0.08 0.12 -0.00 11289
0.01 0.81 0.42 -1.05 9.87 -0.07 0.11 -0.01 11296
0.02 0.85 0.49 -0.98 9.90 -0.06 0.11 -0.01 11303
0.01 0.86 0.45 -0.99 9.87 -0.05 0.10 -0.01 11311
0.01 0.87 0.39 -0.91 9.82 -0.04 0.09 -0.01 11318
0.02 0.88 0.41 -0.91 9.80 -0.03 0.10 -0.01 11325
0.03 0.87 0.42 -0.88 9.82 -0.02 0.10 -0.02 11332
0.01 0.87 0.50 -0.85 9.85 -0.00 0.08 -0.02 11339
0.01 0.87 0.53 -0.81 9.82 0.01 0.06 -0.02 11346
0.01 0.84 0.49 -0.87 9.81 0.03 0.03 -0.03 11354
0.03 0.82 0.48 -0.88 9.88 0.05 0.01 -0.03 11361
0.04 0.80 0.44 -0.86 9.83 0.08 0.00 -0.04 11368
0.04 0.75 0.44 -0.86 9.91 0.10 -0.01 -0.04 11375
0.03 0.70 0.39 -0.82 9.83 0.13 -0.02 -0.04 11382
0.04 0.64 0.41 -0.87 9.81 0.14 -0.03 -0.04 11389
0.04 0.61 0.40 -0.89 9.73 0.16 -0.03 -0.04 11397
0.05 0.59 0.35 -0.91 9.72 0.17 -0.02 -0.05 11404
0.05 0.56 0.41 -0.90 9.73 0.18 -0.01 -0.05 11411
0.05 0.49 0.41 -0.94 9.72 0.18 -0.00 -0.05 11418
0.04 0.38 0.47 -0.98 9.73 0.19 -0.01 -0.05 11425
0.06 0.35 0.45 -1.01 9.67 0.19 -0.01 -0.06 11432
0.06 0.35 0.45 -1.02 9.67 0.19 -0.00 -0.06 11440
0.07 0.32 0.47 -1.09 9.73 0.19 0.00 -0.06 11447
0.12 0.25 0.48 -1.10 9.71 0.19 0.01 -0.07 11454
0.11 0.24 0.47 -1.13 9.69 0.19 0.00 -0.07 11461
0.13 0.20 0.46 -1.16 9.69 0.19 0.00 -0.08 11468
0.14 0.17 0.44 -0.99 9.67 0.19 -0.00 -0.08 11475
0.13 0.13 0.67 -1.05 9.69 0.19 -0.00 -0.09 11483
0.13 0.14 0.25 -1.06 9.83 0.20 -0.00 -0.09 11490
0.13 0.10 0.20 -1.14 9.98 0.21 -0.00 -0.10 11497
0.14 0.06 0.47 -1.25 9.82 0.21 0.01 -0.10 11504
0.15 0.04 0.43 -1.28 9.79 0.21 0.01 -0.10 11511
0.18 0.04 0.69 -1.14 9.77 0.22 0.01 -0.10 11518
0.19 0.02 0.63 -1.31 9.74 0.22 0.02 -0.10 11526
0.19 0.01 0.34 -1.35 9.75 0.23 0.02 -0.11 11533
0.19 0.00 0.42 -1.32 9.85 0.23 0.03 -0.11 11540
0.20 -0.01 0.51 -1.35 9.89 0.24 0.04 -0.12 11547
0.22 -0.02 0.53 -1.34 9.87 0.25 0.04 -0.12 11554
0.22 -0.02 0.59 -1.44 9.85 0.25 0.04 -0.13 11561
0.26 -0.02 0.50 -1.48 9.83 0.25 0.05 -0.14 11569
0.25 -0.01 0.44 -1.54 9.89 0.26 0.06 -0.15 11576
0.31 -0.02 0.63 -1.54 9.88 0.27 0.07 -0.16 11583
0.31 -0.02 0.73 -1.52 9.94 0.28 0.09 -0.17 11590
0.30 -0.02 0.75 -1.63 10.21 0.32 0.13 -0.23 11598
0.29 -0.02 0.84 -1.70 10.49 0.40 0.18 -0.23 11604
0.36 -0.03 0.75 -1.74 11.20 0.52 0.29 -0.25 11613
0.38 -0.02 0.38 -1.75 11.74 0.73 0.32 -0.24 11620
0.44 -0.03 0.54 -1.77 11.57 0.95 0.32 -0.24 11627
0.49 -0.03 0.54 -1.90 11.62 1.09 0.29 -0.24 11633
0.47 -0.03 0.45 -1.94 11.60 1.25 0.26 -0.24 11641
0.46 -0.03 0.46 -2.06 11.87 1.37 0.23 -0.23 11649
0.47 -0.02 0.40 -1.97 12.75 1.55 0.22 -0.21 11656
0.48 -0.03 0.32 -2.05 12.90 1.76 0.17 -0.18 11663
0.47 -0.03 0.34 -2.25 12.95 1.95 0.14 -0.16 11670
0.48 -0.03 0.46 -2.34 13.18 2.21 0.14 -0.15 11677
0.50 -0.03 0.60 -2.53 13.63 2.51 0.15 -0.14 11684
0.51 -0.03 0.94 -1.92 13.88 2.73 0.14 -0.15 11692
0.55 -0.02 1.21 -2.80 14.01 3.04 0.15 -0.19 11699
0.58 -0.03 1.53 -2.63 14.75 3.31 0.17 -0.24 11706
0.58 -0.03 1.15 -2.45 15.83 3.66 0.16 -0.27 11713
0.56 -0.04 1.11 -2.87 15.99 4.06 0.13 -0.31 11720
0.53 -0.03 1.69 -3.09 16.18 4.26 0.05 -0.36 11727
0.52 -0.03 2.73 -3.22 15.80 4.28 -0.05 -0.48 11735
0.47 -0.01 1.88 -3.69 16.78 4.28 -0.13 -0.59 11742
0.36 -0.02 1.06 -4.96 19.75 4.28 -0.23 -0.63 11749
0.25 -0.02 2.32 -5.76 22.78 4.28 -0.45 -0.64 11756
0.18 -0.02 2.87 -7.85 22.53 4.28 -0.60 -0.75 11762
0.11 -0.01 1.66 -7.82 24.30 4.28 -0.81 -0.86 11769
0.10 -0.01 -1.38 -6.07 26.70 4.28 -0.96 -0.85 11777
0.05 -0.01 -0.63 -8.53 28.46 4.28 -1.26 -0.72 11784
0.07 -0.01 3.43 -6.90 25.37 4.28 -1.66 -0.68 11791
0.04 -0.00 4.98 -6.67 28.46 4.28 -1.76 -0.77 11798
0.04 -0.00 6.21 -4.61 28.88 4.28 -1.84 -0.77 11805
0.02 -0.00 7.50 1.53 24.58 4.28 -1.71 -0.75 11812
0.02 -0.00 6.99 6.33 20.92 4.28 -1.44 -0.76 11820
0.03 -0.00 7.53 12.65 19.84 4.28 -0.96 -0.94 11827
0.00 0.00 7.22 31.53 9.90 4.28 -0.88 -1.16 11834
0.00 -0.00 10.27 22.97 4.68 3.34 -0.58 -1.10 11841
0.00 0.00 5.35 16.84 28.65 0.69 0.03 -0.73 11848
0.00 0.00 1.86 17.72 18.95 -1.59 0.30 -0.49 11855
-0.00 0.00 0.70 14.67 13.31 -2.51 -0.06 -0.28 11863
0.01 -0.00 0.45 10.33 10.71 -2.63 -0.58 -0.23 11871
0.00 0.00 1.13 7.87 9.71 -2.48 -0.67 -0.21 11877
0.00 0.00 1.67 7.15 7.81 -2.37 -0.60 -0.18 11884
0.00 0.00 1.57 7.02 6.87 -2.38 -0.45 -0.16 11891
0.00 -0.00 1.01 7.11 7.15 -2.57 -0.21 -0.16 11898
0.00 0.00 -0.14 6.93 7.92 -2.86 -0.07 -0.13 11906
0.00 0.00 -1.17 6.96 8.37 -3.30 0.04 -0.08 11913
0.00 0.00 -2.02 6.56 9.07 -3.80 0.05 -0.00 11920
0.00 0.00 -2.23 5.73 9.50 -4.15 0.02 0.08 11927
0.00 0.00 -2.13 4.56 9.53 -4.28 -0.03 0.11 11934
0.00 0.00 -1.69 3.19 9.71 -4.28 -0.03 0.08 11941
0.00 -0.00 -1.48 2.29 9.60 -4.28 -0.01 0.02 11949
0.01 -0.00 -1.48 1.70 9.63 -4.28 0.06 -0.08 11956
0.00 -0.00 -1.56 0.91 10.26 -4.28 0.17 -0.20 11963
0.00 -0.00 -2.76 1.38 10.85 -4.28 0.19 -0.28 11970
0.00 0.00 -2.49 0.46 11.69 -4.28 0.36 -0.34 11977
0.00 -0.00 -2.81 0.36 12.70 -4.28 0.59 -0.35 11984
0.01 -0.00 -2.50 -0.54 14.20 -4.28 0.81 -0.36 11992
0.01 -0.00 -1.33 -0.83 14.34 -4.28 0.88 -0.40 11999
0.01 -0.00 -3.29 -0.11 15.22 -4.28 0.70 -0.44 12006
0.00 -0.00 -3.09 -1.92 17.02 -4.28 0.52 -0.35 12013
0.00 0.00 -2.25 -1.76 16.82 -4.28 0.32 -0.29 12020
0.00 0.00 -2.26 -2.01 17.37 -4.28 0.10 -0.20 12027
0.01 -0.00 -0.19 -2.99 17.86 -4.28 0.04 -0.16 12035
0.00 0.00 0.17 -3.05 18.28 -4.28 0.09 -0.14 12042
0.00 0.00 1.14 -4.61 18.41 -4.28 0.34 -0.11 12049
0.00 0.00 1.30 -6.06 19.59 -4.27 0.58 -0.08 12056
0.00 -0.00 1.43 -6.27 20.37 -4.15 0.91 -0.07 12063
0.00 -0.00 0.80 -7.17 21.29 -4.00 1.12 -0.03 12070
0.02 -0.00 0.60 -8.15 22.19 -3.77 1.22 0.00 12078
0.00 0.00 0.57 -9.39 23.01 -3.55 1.33 0.01 12085
0.00 0.00 0.53 -10.41 24.31 -3.45 1.48 -0.04 12092
0.00 0.00 0.17 -11.12 25.32 -3.53 1.70 -0.13 12099
0.00 0.00 -0.48 -12.02 26.44 -3.84 1.89 -0.29 12106
0.00 0.00 -1.37 -13.04 26.14 -4.27 1.96 -0.43 12113
0.00 -0.00 -2.98 -15.17 24.29 -4.28 1.87 -0.56 12122
0.00 0.00 -4.52 -18.33 20.72 -4.28 1.74 -0.57 12128
0.00 0.00 -6.00 -21.75 18.32 -4.28 1.81 -0.48 12135
0.00 0.00 -7.70 -27.01 15.94 -4.28 1.68 -0.34 12142
0.00 0.00 -8.34 -33.03 12.70 -4.28 1.33 -0.17 12149
0.00 -0.00 -7.70 -38.03 9.06 -4.07 0.71 -0.13 12156
0.01 -0.00 -7.36 -46.99 4.05 -3.77 0.38 -0.14 12164
0.00 0.00 -8.52 -54.65 -0.56 -3.32 0.52 -0.13 12171
0.00 0.00 -11.68 -58.36 -2.53 -2.25 0.61 -0.10 12178
0.00 0.00 -13.49 -53.10 -2.28 -0.87 0.11 -0.10 12185
0.00 0.00 -11.48 -44.40 0.50 0.79 -1.00 -0.16 12192
0.00 0.00 -5.37 -33.58 1.98 1.77 -1.80 -0.22 12199
0.00 0.00 -0.05 -20.52 16.47 4.15 -1.47 -1.17 12207
-0.00 0.02 1.83 16.80 3.91 4.07 -0.62 -1.10 12214
-0.01 0.14 2.64 1.34 19.53 3.65 -1.08 -1.16 12221
-0.03 0.41 6.05 2.05 14.21 3.19 -1.18 -0.96 12229
-0.04 0.66 5.61 -1.92 11.36 3.68 -1.15 -0.55 12236
-0.03 0.81 5.48 -5.02 16.95 4.23 -0.69 0.15 12243
-0.04 0.93 4.33 -2.92 17.39 4.28 0.44 0.86 12251
-0.06 1.09 -1.71 -4.27 22.44 4.05 0.73 1.16 12258
-0.07 1.23 -5.25 -4.69 18.21 3.48 0.80 0.90 12265
-0.07 1.24 -4.88 -3.80 16.19 3.35 0.75 0.33 12272
-0.04 1.22 -1.08 -2.42 15.47 3.07 0.65 -0.06 12279
-0.03 1.18 1.46 -1.99 14.07 2.67 0.73 -0.13 12286
-0.03 1.12 2.43 -3.78 19.61 2.15 0.57 0.06 12294
-0.04 1.03 1.51 -1.22 12.24 0.51 -0.16 0.07 12301
-0.05 1.00 -0.04 -3.31 12.89 -0.03 0.00 0.06 12307
-0.04 0.90 0.61 -1.93 10.88 -0.04 0.08 0.01 12314
-0.01 0.87 0.64 -1.29 10.27 -0.02 0.11 0.03 12321
-0.01 0.84 0.40 -0.93 9.83 -0.01 0.12 0.04 12328
-0.00 0.81 0.32 -1.15 9.84 -0.04 0.14 0.03 12336
-0.00 0.81 0.61 -1.11 9.96 -0.06 0.15 0.03 12343
-0.02 0.85 0.58 -1.01 10.08 -0.05 0.14 0.03 12350
-0.01 0.84 0.54 -0.97 9.92 -0.03 0.12 0.02 12357
0.01 0.82 0.64 -0.96 9.90 -0.02 0.10 0.02 12364
0.01 0.80 0.62 -0.80 9.85 -0.02 0.09 0.01 12371
0.00 0.83 0.59 -0.81 9.73 -0.00 0.09 0.00 12379
0.02 0.78 0.55 -0.78 9.69 0.00 0.09 -0.00 12386
-0.01 0.78 0.57 -0.73 9.63 0.01 0.10 -0.01 12393
0.01 0.75 0.48 -0.77 9.80 0.02 0.13 -0.02 12400
0.01 0.74 0.54 -0.75 9.83 0.03 0.14 -0.03 12407
0.00 0.74 0.55 -0.77 9.86 0.06 0.14 -0.03 12414
0.01 0.71 0.66 -0.82 9.91 0.07 0.11 -0.03 12422
0.00 0.67 0.69 -0.84 9.92 0.09 0.09 -0.02 12429
0.00 0.65 0.72 -0.80 9.82 0.11 0.05 -0.02 12436
0.01 0.64 0.68 -0.86 9.81 0.11 0.03 -0.03 12443
0.03 0.55 0.64 -0.87 9.75 0.11 0.02 -0.03 12450
0.01 0.53 0.62 -0.90 9.75 0.11 0.01 -0.04 12457
0.01 0.53 0.67 -0.86 9.71 0.11 0.00 -0.04 12465
0.01 0.43 0.67 -0.87 9.75 0.12 -0.01 -0.05 12472
0.01 0.43 0.70 -0.84 9.74 0.11 -0.02 -0.05 12479
0.02 0.39 0.69 -0.91 9.75 0.11 -0.03 -0.06 12486
0.05 0.31 0.70 -0.95 9.69 0.11 -0.05 -0.06 12493
0.04 0.31 0.71 -0.96 9.73 0.10 -0.08 -0.07 12500
0.05 0.26 0.68 -1.00 9.70 0.10 -0.11 -0.07 12508
0.03 0.31 0.67 -0.97 9.64 0.09 -0.13 -0.08 12515
0.05 0.30 0.66 -1.02 9.63 0.08 -0.13 -0.08 12522
0.07 0.28 0.57 -1.01 9.67 0.07 -0.13 -0.08 12529
0.08 0.30 0.59 -0.97 9.75 0.07 -0.13 -0.08 12536
0.07 0.30 0.60 -0.97 9.79 0.08 -0.14 -0.08 12544
0.08 0.24 0.41 -0.97 9.79 0.09 -0.16 -0.08 12551
0.08 0.28 0.50 -0.97 9.75 0.09 -0.16 -0.08 12558
0.10 0.26 0.58 -0.94 9.79 0.11 -0.17 -0.09 12565
0.10 0.25 0.44 -1.04 9.89 0.13 -0.18 -0.09 12572
0.10 0.23 0.48 -1.14 10.35 0.13 -0.17 -0.10 12580
0.10 0.19 0.37 -1.07 9.71 0.14 -0.15 -0.10 12587
0.10 0.16 0.17 -1.04 9.81 0.15 -0.15 -0.10 12594
0.12 0.18 0.31 -1.05 9.82 0.16 -0.13 -0.10 12601
0.14 0.16 0.44 -1.06 9.83 0.17 -0.13 -0.10 12608
0.19 0.09 0.44 -1.11 10.41 0.19 -0.12 -0.10 12615
0.18 0.09 0.38 -1.09 9.82 0.21 -0.12 -0.10 12622
0.20 0.06 0.49 -1.12 9.95 0.23 -0.13 -0.11 12630
0.23 0.05 0.51 -1.19 9.94 0.25 -0.14 -0.12 12637
0.25 0.02 0.42 -1.30 9.89 0.27 -0.14 -0.13 12644
0.32 0.03 0.55 -1.28 9.98 0.29 -0.15 -0.15 12651
0.39 -0.01 0.57 -1.45 10.06 0.31 -0.17 -0.16 12659
0.39 -0.01 0.52 -1.47 9.95 0.34 -0.18 -0.18 12665
0.44 -0.03 0.50 -1.51 10.11 0.36 -0.20 -0.21 12674
0.47 -0.03 0.50 -1.54 10.23 0.39 -0.24 -0.25 12681
0.53 -0.03 0.76 -1.52 10.53 0.44 -0.30 -0.29 12688
0.54 -0.03 1.03 -1.61 10.60 0.53 -0.40 -0.33 12695
0.61 -0.04 1.09 -1.75 10.57 0.59 -0.47 -0.38 12702
0.63 -0.04 1.12 -1.79 10.72 0.67 -0.47 -0.44 12709
0.72 -0.05 -0.02 -1.77 12.25 0.83 -0.31 -0.49 12717
0.77 -0.05 -1.52 -1.60 12.76 1.07 -0.25 -0.38 12724
0.84 -0.04 -0.46 -1.71 12.12 1.32 -0.26 -0.29 12731
0.88 -0.04 -0.45 -1.79 12.40 1.47 -0.16 -0.24 12738
0.92 -0.04 -0.85 -1.81 12.94 1.68 -0.12 -0.19 12745
0.91 -0.04 -0.46 -2.02 13.55 1.95 -0.04 -0.12 12752
0.93 -0.05 -0.11 -2.00 14.21 2.19 0.02 -0.09 12759
0.94 -0.05 0.56 -2.33 14.64 2.52 0.04 -0.10 12767
0.95 -0.03 0.96 -2.52 14.46 2.83 0.01 -0.15 12774
0.94 -0.04 0.89 -2.50 14.91 3.17 -0.06 -0.21 12781
0.92 -0.04 0.74 -2.42 15.00 3.50 -0.12 -0.26 12788
0.91 -0.04 0.51 -2.19 15.55 3.78 -0.10 -0.30 12795
0.87 -0.04 0.59 -2.76 15.88 4.14 -0.06 -0.34 12803
0.81 -0.04 0.58 -2.45 16.30 4.28 -0.15 -0.38 12810
0.73 -0.02 1.53 -2.72 15.72 4.28 -0.32 -0.44 12817
0.68 -0.03 1.46 -3.26 16.81 4.28 -0.40 -0.58 12824
0.46 -0.02 1.09 -4.56 17.52 4.28 -0.38 -0.67 12831
0.30 -0.03 0.64 -5.52 20.98 4.28 -0.43 -0.67 12838
0.17 -0.01 1.15 -5.41 21.58 4.28 -0.43 -0.68 12846
0.14 -0.01 -1.74 -5.25 22.53 4.28 -0.44 -0.74 12852
0.15 -0.01 -4.58 -7.61 27.69 4.28 -0.80 -0.72 12860
0.13 -0.01 -0.72 -11.10 28.36 4.28 -1.67 -0.48 12867
0.05 -0.00 1.15 -8.45 26.73 4.28 -1.85 -0.54 12873
0.03 -0.00 2.31 -6.73 27.74 4.28 -2.12 -0.58 12880
0.05 -0.00 4.91 -2.88 25.79 4.28 -2.10 -0.50 12888
0.02 -0.00 6.38 2.19 22.74 4.28 -1.98 -0.49 12895
0.00 -0.00 6.06 6.58 20.42 4.28 -1.79 -0.57 12902
0.00 0.00 5.11 10.60 17.58 4.28 -1.66 -0.65 12909
0.00 0.00 6.24 20.06 12.95 4.28 -1.69 -0.79 12916
0.00 0.00 9.09 14.46 11.04 3.95 -1.45 -0.57 12923
0.00 0.00 6.76 14.76 23.42 1.42 -0.67 -0.40 12931
0.00 0.00 3.55 14.77 17.59 -0.45 -0.05 -0.18 12938
0.00 0.00 1.55 12.90 13.08 -1.65 -0.10 -0.03 12945
0.00 0.00 0.29 9.47 11.11 -2.11 -0.52 0.02 12952
0.00 0.00 0.41 7.30 9.43 -2.15 -0.75 0.03 12959
0.00 0.00 1.27 6.70 7.33 -2.13 -0.86 0.02 12966
0.00 0.00 2.09 6.55 5.92 -2.17 -0.82 -0.01 12974
0.00 0.00 2.39 6.34 5.97 -2.32 -0.63 -0.07 12981
0.00 0.00 2.06 6.12 6.13 -2.59 -0.33 -0.14 12988
0.00 0.00 0.71 6.28 6.19 -2.90 -0.06 -0.18 12995
0.00 0.00 0.24 6.12 6.65 -3.29 0.07 -0.20 13002
0.00 0.00 -0.53 5.57 7.30 -3.64 0.11 -0.18 13009
0.00 0.00 -0.93 4.35 7.73 -3.93 0.06 -0.15 13017
-0.00 0.00 -0.77 4.06 8.18 -4.15 0.01 -0.12 13024
0.00 0.00 -0.48 3.30 8.39 -4.24 -0.00 -0.10 13031
0.00 0.00 -0.33 2.73 8.69 -4.28 -0.00 -0.10 13038
0.00 0.00 0.04 1.86 9.23 -4.28 0.06 -0.11 13045
0.00 0.00 0.34 1.00 9.58 -4.28 0.16 -0.17 13052
0.00 0.00 0.13 0.51 10.13 -4.28 0.29 -0.23 13060
0.00 0.00 -0.05 0.11 10.84 -4.28 0.42 -0.27 13067
0.00 0.00 -0.50 -0.27 11.67 -4.28 0.57 -0.27 13074
0.00 0.00 -0.62 -1.13 13.13 -4.28 0.79 -0.25 13081
0.00 0.00 0.27 -1.49 13.40 -4.28 0.90 -0.29 13088
0.00 0.00 0.01 -1.82 14.23 -4.28 1.02 -0.35 13095
0.00 0.00 -1.96 -2.10 15.12 -4.28 1.01 -0.35 13103
0.00 0.00 -0.99 -3.34 15.89 -4.28 1.02 -0.29 13110
0.00 0.00 -1.35 -2.33 15.64 -4.28 0.85 -0.26 13117
0.00 0.00 -1.58 -3.37 17.14 -4.28 0.80 -0.15 13124
0.00 0.00 -0.37 -3.89 17.70 -4.28 0.74 -0.09 13131
0.00 0.00 -0.02 -4.22 17.63 -4.28 0.75 -0.06 13138
0.00 0.00 0.61 -5.25 18.12 -4.28 0.88 -0.02 13146
0.00 0.00 1.15 -6.31 18.70 -4.23 1.07 -0.01 13153
0.00 0.00 1.61 -6.83 19.90 -4.01 1.38 0.02 13160
0.00 0.00 1.67 -7.03 21.10 -3.76 1.65 0.09 13167
0.00 0.00 1.18 -7.39 22.75 -3.63 1.87 0.20 13174
0.00 0.00 0.55 -7.71 24.57 -3.57 1.95 0.33 13181
0.00 0.00 -0.02 -7.92 25.40 -3.70 1.97 0.44 13189
0.00 0.00 -0.07 -8.47 25.75 -3.97 2.00 0.54 13196
0.00 0.00 -0.58 -9.50 25.35 -4.24 2.08 0.58 13203
0.00 0.00 -2.10 -11.21 24.33 -4.28 2.17 0.57 13210
0.00 0.00 -3.54 -13.36 22.99 -4.28 2.16 0.50 13217
0.00 0.00 -4.80 -15.21 21.13 -4.28 1.96 0.42 13224
-0.00 0.00 -5.19 -17.68 18.83 -4.28 1.60 0.32 13233
0.00 0.00 -4.84 -20.13 16.58 -4.26 1.28 0.25 13239
0.00 0.00 -3.82 -23.98 14.49 -4.10 0.97 0.19 13246
0.00 0.00 -1.94 -29.55 11.22 -3.84 0.79 0.08 13253
0.00 0.00 -1.49 -36.61 6.96 -3.54 0.75 -0.09 13260
0.00 0.00 -3.23 -45.76 1.48 -3.13 1.10 -0.27 13267
0.00 -0.00 -7.20 -51.09 -0.36 -2.33 1.58 -0.31 13275
0.00 0.00 -12.82 -49.24 -0.49 -0.98 1.55 -0.29 13282
0.00 0.00 -14.61 -41.21 1.60 0.27 0.47 -0.24 13289
0.00 0.00 -11.51 -32.86 5.09 1.33 -0.77 -0.21 13296
0.00 0.00 -6.38 -24.96 8.07 1.86 -1.71 -0.13 13303
0.00 0.00 10.28 -29.07 33.68 3.12 -2.46 -0.58 13310
-0.00 0.00 0.35 7.29 8.73 3.77 -1.35 -0.61 13318
-0.00 0.04 2.16 7.12 7.79 3.63 -1.41 -0.57 13325
-0.01 0.14 1.93 2.59 17.80 3.40 -1.50 -0.40 13332
-0.03 0.30 4.05 -0.13 11.53 3.38 -1.23 -0.14 13339
-0.04 0.51 1.81 -2.81 11.40 3.88 -1.08 0.18 13347
-0.02 0.62 2.28 -3.57 16.02 4.20 -0.54 0.51 13355
-0.02 0.78 -0.12 -3.43 20.15 3.97 0.38 0.90 13362
-0.03 0.85 -3.19 -3.66 18.60 3.48 0.43 0.83 13369
-0.04 0.92 -5.13 -4.32 17.35 3.26 0.28 0.46 13376
-0.05 0.96 -3.31 -3.28 15.82 3.10 0.32 0.03 13383
-0.05 1.01 -1.45 -2.57 15.09 2.72 0.34 -0.22 13390
-0.05 1.04 1.11 -1.80 13.42 2.35 0.32 -0.30 13398
-0.03 1.03 2.64 -2.05 14.13 2.14 0.41 -0.15 13405
-0.04 0.99 0.68 -4.19 19.01 0.90 -0.18 -0.02 13411
-0.03 0.95 0.65 -1.92 12.26 -0.08 -0.09 0.04 13419
-0.05 0.91 -0.79 -1.97 10.89 -0.08 -0.09 -0.05 13426
-0.03 0.88 0.47 -0.85 9.86 -0.05 0.01 -0.03 13432
-0.02 0.85 0.30 -0.99 9.85 -0.05 0.04 0.00 13440
0.02 0.81 0.05 -0.98 9.78 -0.06 0.07 -0.01 13447
0.02 0.82 0.26 -1.09 9.78 -0.09 0.12 -0.01 13454
0.03 0.82 0.33 -1.03 9.92 -0.11 0.14 -0.01 13461
0.02 0.84 0.27 -0.93 9.98 -0.10 0.16 -0.01 13468
0.02 0.82 0.36 -0.89 9.93 -0.08 0.16 -0.02 13475
0.05 0.84 0.40 -0.88 9.88 -0.06 0.16 -0.01 13483
0.04 0.82 0.34 -0.83 9.83 -0.05 0.16 -0.01 13490
0.04 0.82 0.33 -0.75 9.83 -0.04 0.16 -0.02 13497
0.03 0.82 0.44 -0.75 9.82 -0.02 0.15 -0.02 13504
0.03 0.82 0.40 -0.75 9.79 -0.01 0.13 -0.02 13511
0.04 0.82 0.37 -0.74 9.72 0.00 0.13 -0.02 13518
0.04 0.79 0.30 -0.75 9.77 0.02 0.15 -0.02 13526
0.04 0.75 0.35 -0.72 9.82 0.03 0.15 -0.03 13533
0.03 0.78 0.38 -0.73 9.92 0.06 0.15 -0.02 13540
0.02 0.74 0.40 -0.75 9.92 0.09 0.14 -0.02 13547
0.03 0.66 0.44 -0.78 9.90 0.12 0.13 -0.02 13554
0.04 0.60 0.45 -0.78 9.88 0.14 0.12 -0.03 13561
0.04 0.56 0.44 -0.79 9.83 0.16 0.11 -0.03 13569
0.03 0.52 0.46 -0.82 9.87 0.18 0.10 -0.03 13576
0.04 0.47 0.44 -0.78 9.67 0.19 0.10 -0.04 13583
0.04 0.41 0.50 -0.86 9.72 0.20 0.10 -0.04 13590
0.04 0.36 0.54 -0.86 9.77 0.20 0.09 -0.04 13597
0.05 0.29 0.60 -0.87 9.79 0.20 0.08 -0.05 13604
0.07 0.27 0.57 -0.94 9.71 0.20 0.06 -0.05 13612
0.07 0.19 0.61 -1.00 9.65 0.20 0.05 -0.06 13619
0.07 0.15 0.62 -1.01 9.79 0.19 0.04 -0.06 13626
0.06 0.14 0.57 -1.03 9.72 0.19 0.02 -0.07 13633
0.08 0.09 0.58 -1.05 9.72 0.18 0.02 -0.07 13640
0.11 0.08 0.61 -1.02 9.72 0.17 0.02 -0.08 13647
0.13 0.07 0.51 -0.92 9.81 0.18 0.01 -0.08 13655
0.13 0.07 0.11 -1.24 9.64 0.18 -0.01 -0.09 13662
0.14 0.04 0.12 -0.85 9.41 0.18 -0.02 -0.09 13669
0.12 0.05 0.78 -0.95 9.45 0.18 -0.01 -0.09 13676
0.12 0.05 0.63 -1.80 9.69 0.19 -0.01 -0.10 13683
0.15 0.03 0.51 -1.27 9.84 0.19 -0.00 -0.10 13690
0.13 0.01 0.73 -1.23 9.78 0.19 0.02 -0.10 13698
0.14 0.02 0.10 -1.20 10.40 0.19 0.01 -0.11 13705
0.16 -0.01 0.43 -1.17 9.98 0.20 0.03 -0.11 13712
0.16 -0.01 0.42 -1.28 9.95 0.20 0.04 -0.11 13719
0.20 -0.01 0.40 -1.32 9.88 0.20 0.05 -0.11 13726
0.20 -0.01 0.45 -1.27 9.87 0.20 0.05 -0.11 13733
0.20 -0.02 0.63 -1.26 9.89 0.22 0.06 -0.12 13741
0.22 -0.02 0.61 -1.35 9.83 0.22 0.06 -0.13 13748
0.21 -0.02 0.60 -1.38 9.84 0.24 0.07 -0.14 13755
0.23 -0.01 0.61 -1.36 9.97 0.26 0.09 -0.16 13762
0.21 -0.01 0.66 -1.36 10.11 0.28 0.13 -0.18 13770
0.23 -0.02 0.81 -1.52 10.26 0.33 0.19 -0.19 13777
0.24 -0.02 0.99 -1.54 10.55 0.43 0.29 -0.23 13785
0.27 -0.03 0.86 -1.65 11.28 0.55 0.36 -0.26 13791
0.28 -0.02 0.56 -1.54 11.29 0.76 0.40 -0.24 13798
0.29 -0.02 0.76 -1.65 11.23 0.91 0.37 -0.24 13806
0.32 -0.01 0.81 -1.73 11.04 1.04 0.35 -0.24 13813
0.33 -0.02 0.80 -1.90 11.25 1.16 0.31 -0.24 13820
0.37 -0.02 0.82 -1.99 11.49 1.27 0.29 -0.23 13828
0.42 -0.03 0.54 -1.94 12.17 1.39 0.28 -0.22 13835
0.43 -0.02 0.37 -1.94 12.29 1.55 0.24 -0.19 13842
0.47 -0.02 0.26 -1.77 12.43 1.71 0.20 -0.16 13849
0.50 -0.02 0.69 -2.05 12.39 1.91 0.16 -0.14 13856
0.52 -0.02 0.82 -2.32 12.93 2.10 0.15 -0.13 13863
0.54 -0.03 0.91 -2.50 13.99 2.38 0.14 -0.13 13871
0.57 -0.04 1.71 -2.52 13.97 2.68 0.14 -0.17 13878
0.57 -0.03 2.06 -2.81 14.06 2.96 0.14 -0.24 13885
0.57 -0.02 1.60 -2.50 14.51 3.29 0.18 -0.31 13892
0.60 -0.03 1.20 -2.66 14.65 3.57 0.20 -0.37 13899
0.64 -0.03 1.25 -2.96 14.69 3.91 0.20 -0.40 13906
0.61 -0.03 1.33 -2.94 15.20 4.21 0.23 -0.42 13914
0.55 -0.03 2.23 -3.58 14.91 4.28 0.16 -0.48 13921
0.50 -0.03 2.34 -3.88 15.84 4.28 0.13 -0.57 13928
0.40 -0.01 0.96 -3.79 17.16 4.28 0.15 -0.61 13935
0.32 -0.02 2.01 -4.96 20.57 4.28 0.08 -0.61 13942
0.22 -0.02 1.36 -6.04 22.74 4.28 -0.02 -0.61 13949
0.17 -0.02 0.52 -8.22 22.70 4.28 -0.22 -0.65 13956
0.12 -0.01 -0.17 -7.57 23.05 4.28 -0.38 -0.66 13963
0.09 -0.01 -0.75 -7.05 25.62 4.28 -0.41 -0.56 13970
0.07 -0.00 -1.13 -9.33 28.30 4.28 -0.65 -0.49 13978
0.06 -0.01 1.74 -7.08 24.75 4.28 -1.37 -0.46 13984
0.04 -0.00 4.96 -7.05 26.64 4.28 -1.66 -0.49 13991
0.03 -0.00 6.20 -4.92 26.22 4.28 -1.78 -0.51 13999
0.02 -0.00 6.74 2.38 24.10 4.28 -1.73 -0.51 14006
0.01 -0.00 6.89 6.50 22.80 4.28 -1.53 -0.51 14013
0.00 -0.00 6.29 12.32 20.31 4.28 -1.19 -0.59 14021
0.00 0.00 5.20 24.00 12.10 4.28 -0.94 -0.88 14027
0.00 0.00 10.86 20.73 7.41 3.83 -0.68 -0.90 14034
0.00 0.00 7.01 17.32 23.70 1.09 -0.15 -0.58 14042
0.00 0.00 2.47 16.91 19.25 -0.94 0.18 -0.50 14049
0.00 0.00 -0.48 14.65 14.80 -2.25 -0.18 -0.40 14056
0.00 0.00 -0.56 10.99 12.18 -2.71 -0.94 -0.43 14063
0.00 0.00 0.49 8.52 9.45 -2.81 -1.33 -0.52 14070
0.00 0.00 1.71 7.19 8.02 -2.84 -1.47 -0.65 14077
0.00 0.00 2.88 6.63 6.88 -2.89 -1.36 -0.78 14085
0.00 0.00 3.42 6.35 6.73 -3.05 -1.00 -0.89 14092
0.00 0.00 3.05 6.20 7.11 -3.30 -0.52 -0.99 14099
0.00 0.00 2.47 6.25 7.64 -3.70 -0.13 -1.02 14106
0.00 0.00 1.14 5.72 8.20 -4.14 0.22 -0.98 14113
0.00 0.00 -1.07 4.96 8.80 -4.28 0.35 -0.86 14120
0.00 0.00 -1.35 3.82 9.15 -4.28 0.25 -0.71 14128
0.00 0.00 -1.26 2.69 9.30 -4.28 0.07 -0.54 14135
0.00 0.00 -0.87 1.35 9.44 -4.28 -0.08 -0.38 14142
0.00 0.00 -0.10 1.08 9.70 -4.28 -0.19 -0.30 14149
0.00 0.00 0.39 0.82 10.10 -4.28 -0.19 -0.23 14156
0.00 0.00 0.92 0.26 11.07 -4.28 -0.03 -0.17 14163
0.00 0.00 1.31 0.52 11.74 -4.28 0.22 -0.12 14171
0.00 0.00 0.66 0.36 12.82 -4.28 0.38 -0.08 14178
0.00 0.00 0.61 -0.88 14.27 -4.28 0.75 -0.01 14185
0.00 0.00 0.14 -0.98 14.57 -4.28 0.89 0.05 14192
0.00 0.00 2.10 -2.50 14.27 -4.28 1.05 0.05 14199
0.00 0.00 -0.73 -2.31 15.29 -4.28 0.96 0.09 14206
0.00 0.00 1.14 -4.47 15.96 -4.28 1.00 0.17 14214
0.00 0.00 -0.08 -4.33 16.11 -4.28 0.78 0.24 14221
0.00 0.00 1.10 -6.56 17.68 -4.28 0.84 0.39 14228
0.00 0.00 3.53 -7.13 17.32 -4.27 0.85 0.48 14235
0.00 0.00 1.78 -7.01 18.64 -4.19 1.00 0.66 14242
0.00 0.00 2.57 -7.60 21.53 -3.99 1.09 0.84 14249
0.00 0.00 1.90 -6.78 22.73 -4.04 1.15 0.94 14257
0.00 0.00 2.21 -7.24 23.44 -4.15 1.21 1.11 14264
0.00 -0.00 1.54 -8.20 24.16 -4.24 1.13 1.18 14271
0.00 0.00 1.05 -9.33 24.56 -4.27 1.04 1.20 14278
0.00 0.00 0.31 -9.37 24.05 -4.28 0.92 1.17 14285
0.00 0.00 -0.08 -9.46 23.84 -4.28 0.88 1.09 14292
0.00 0.00 -1.21 -10.41 24.11 -4.28 1.00 0.91 14300
0.00 0.00 -2.18 -11.57 23.65 -4.28 1.03 0.63 14307
0.01 -0.00 -3.08 -12.73 22.73 -4.28 0.95 0.33 14315
0.00 0.00 -3.10 -14.61 21.34 -4.28 0.74 -0.09 14321
0.00 -0.00 -2.28 -16.77 19.63 -4.28 0.57 -0.59 14329
0.00 0.00 -0.61 -20.11 17.62 -4.28 0.50 -1.13 14336
0.00 0.00 0.86 -24.31 14.74 -4.22 0.62 -1.82 14343
0.02 -0.00 1.59 -28.78 11.38 -4.00 0.99 -2.40 14350
0.02 -0.00 -0.21 -35.93 6.60 -3.67 1.73 -2.91 14357
0.02 -0.00 -4.35 -43.98 2.91 -3.30 2.61 -3.00 14364
0.02 -0.00 -11.64 -47.12 1.72 -2.55 3.24 -2.67 14372
0.01 -0.00 -18.84 -45.55 1.72 -1.56 2.59 -2.03 14380
0.02 -0.00 -21.24 -40.38 2.45 -0.23 0.92 -1.37 14387
0.01 -0.00 -15.31 -30.80 4.42 0.87 -1.52 -0.65 14394
0.01 -0.00 -8.54 -24.53 7.92 1.44 -2.84 -0.06 14400
0.01 -0.00 -2.92 -20.07 10.43 1.75 -3.23 0.29 14408
0.01 -0.00 0.74 -16.15 10.12 1.79 -2.86 0.53 14415
0.00 -0.00 24.97 -15.66 23.53 2.06 -2.36 0.34 14423
0.00 0.00 -2.35 9.60 12.02 3.30 -1.44 -0.11 14429
-0.00 0.04 1.79 10.78 7.80 2.99 -1.22 -0.06 14436
-0.01 0.11 1.98 2.74 14.35 2.80 -1.64 0.01 14443
-0.02 0.21 2.91 0.65 7.84 2.97 -1.30 0.26 14450
-0.03 0.39 0.81 -1.75 8.94 3.55 -1.07 0.54 14457
-0.04 0.56 0.13 -2.45 14.00 4.06 -0.60 0.74 14465
-0.04 0.74 -0.61 -2.33 18.76 3.89 0.35 0.98 14473
-0.03 0.86 -2.56 -3.28 18.81 3.25 0.49 0.97 14480
-0.04 0.95 -4.11 -4.20 16.43 3.05 0.29 0.63 14487
-0.06 0.96 -2.68 -3.26 16.18 2.98 0.37 0.31 14494
-0.07 1.08 -1.26 -2.93 15.44 2.61 0.48 0.15 14501
-0.07 1.10 -0.40 -2.19 14.29 2.30 0.44 0.00 14508
-0.06 1.11 0.66 -1.62 12.95 2.06 0.48 -0.01 14516
-0.04 1.09 1.27 -3.72 19.22 1.54 0.40 0.04 14523
-0.05 1.07 1.64 -1.29 12.27 0.25 -0.13 -0.00 14530
-0.03 1.04 -0.16 -2.41 11.86 -0.07 -0.03 -0.02 14537
-0.05 1.01 0.05 -1.01 10.28 -0.02 0.04 -0.02 14543
-0.05 0.94 0.23 -0.78 9.83 -0.03 0.08 -0.01 14551
-0.03 0.97 0.36 -0.87 9.58 -0.06 0.12 -0.00 14558
-0.00 0.91 0.39 -1.16 9.83 -0.10 0.14 -0.01 14565
-0.01 0.91 0.51 -1.00 10.00 -0.11 0.14 -0.01 14572
-0.00 0.90 0.48 -0.94 9.99 -0.07 0.13 -0.01 14579
-0.00 0.90 0.47 -0.90 9.92 -0.08 0.11 -0.01 14586
0.02 0.89 0.38 -0.88 9.84 -0.07 0.11 -0.01 14594
0.02 0.90 0.36 -0.82 9.86 -0.07 0.11 -0.02 14601
0.03 0.90 0.31 -0.72 9.81 -0.06 0.12 -0.02 14608
-0.00 0.93 0.34 -0.73 9.82 -0.05 0.12 -0.02 14615
-0.00 0.91 0.39 -0.70 9.82 -0.04 0.12 -0.02 14622
0.01 0.91 0.39 -0.70 9.80 -0.03 0.12 -0.02 14629
0.02 0.93 0.43 -0.67 9.80 -0.02 0.11 -0.02 14637
0.04 0.94 0.45 -0.69 9.86 -0.01 0.10 -0.02 14644
0.03 0.93 0.43 -0.68 9.90 0.01 0.08 -0.02 14651
0.02 0.93 0.36 -0.68 9.88 0.03 0.06 -0.02 14658
0.01 0.90 0.35 -0.65 9.90 0.06 0.06 -0.03 14665
0.01 0.83 0.40 -0.69 9.84 0.08 0.06 -0.03 14672
0.01 0.78 0.42 -0.68 9.81 0.10 0.05 -0.03 14680
0.03 0.74 0.44 -0.71 9.80 0.11 0.05 -0.03 14687
0.03 0.73 0.48 -0.73 9.71 0.12 0.05 -0.04 14694
0.05 0.61 0.46 -0.74 9.75 0.13 0.05 -0.04 14701
0.02 0.61 0.48 -0.74 9.75 0.13 0.05 -0.05 14708
0.02 0.59 0.50 -0.76 9.70 0.13 0.04 -0.05 14715
0.04 0.58 0.50 -0.76 9.68 0.14 0.04 -0.05 14723
0.05 0.51 0.48 -0.83 9.71 0.13 0.03 -0.05 14730
0.05 0.48 0.48 -0.83 9.72 0.13 0.02 -0.06 14737
0.05 0.41 0.52 -0.85 9.77 0.13 0.00 -0.06 14744
0.05 0.43 0.50 -0.88 9.81 0.13 -0.02 -0.06 14751
0.08 0.37 0.54 -0.83 9.75 0.13 -0.05 -0.06 14758
0.07 0.33 0.51 -0.89 9.75 0.14 -0.08 -0.07 14766
0.07 0.30 0.43 -0.93 9.75 0.14 -0.10 -0.07 14773
0.07 0.23 0.48 -1.01 9.76 0.14 -0.12 -0.07 14780
0.09 0.25 0.59 -1.01 9.94 0.14 -0.12 -0.08 14787
0.09 0.26 0.53 -0.99 10.04 0.14 -0.10 -0.08 14794
0.10 0.24 0.37 -0.97 9.68 0.15 -0.10 -0.09 14801
0.13 0.20 0.28 -1.00 9.84 0.15 -0.10 -0.08 14809
0.13 0.19 0.40 -0.92 9.82 0.17 -0.09 -0.09 14816
0.11 0.15 0.23 -1.12 9.83 0.17 -0.09 -0.08 14823
0.13 0.10 0.20 -1.06 9.84 0.18 -0.09 -0.09 14830
0.13 0.10 0.46 -1.06 9.84 0.20 -0.08 -0.09 14837
0.16 0.09 0.42 -1.08 9.90 0.21 -0.08 -0.10 14844
0.21 0.04 0.36 -1.09 9.88 0.22 -0.08 -0.10 14852
0.22 0.02 0.43 -1.12 9.89 0.23 -0.08 -0.11 14859
0.24 0.00 0.40 -1.09 9.91 0.25 -0.08 -0.11 14866
0.25 0.01 0.33 -1.20 9.87 0.26 -0.09 -0.13 14873
0.31 0.00 0.40 -1.30 9.87 0.26 -0.10 -0.14 14880
0.35 -0.01 0.40 -1.27 10.00 0.27 -0.09 -0.15 14887
0.40 -0.03 0.47 -1.29 9.89 0.28 -0.08 -0.16 14895
0.39 -0.03 0.53 -1.40 10.09 0.29 -0.09 -0.18 14902
0.44 -0.04 0.46 -1.35 10.06 0.32 -0.09 -0.21 14910
0.47 -0.03 0.62 -1.32 10.37 0.37 -0.12 -0.24 14917
0.49 -0.03 0.74 -1.39 10.51 0.43 -0.19 -0.27 14924
0.56 -0.03 0.92 -1.52 10.82 0.51 -0.27 -0.32 14931
0.58 -0.03 1.12 -1.69 11.06 0.62 -0.27 -0.36 14939
0.62 -0.03 0.38 -1.56 12.12 0.83 -0.17 -0.40 14946
0.66 -0.05 -0.42 -1.49 11.72 1.05 -0.17 -0.34 14953
0.67 -0.04 0.19 -1.71 11.63 1.21 -0.19 -0.31 14960
0.72 -0.04 -0.33 -1.68 11.53 1.35 -0.18 -0.29 14967
0.73 -0.03 -0.39 -1.77 11.81 1.45 -0.18 -0.23 14974
0.77 -0.04 -0.51 -1.89 12.28 1.59 -0.14 -0.19 14982
0.79 -0.04 -0.64 -1.73 12.38 1.74 -0.08 -0.12 14989
0.83 -0.04 -0.13 -2.02 12.60 1.94 -0.03 -0.09 14996
0.85 -0.04 0.20 -2.28 12.94 2.16 0.00 -0.09 15002
0.88 -0.04 0.43 -2.42 13.43 2.38 0.00 -0.11 15010
0.92 -0.04 0.55 -2.64 14.00 2.66 -0.04 -0.13 15017
0.90 -0.04 1.03 -2.58 14.21 2.91 -0.08 -0.17 15025
0.90 -0.05 0.96 -2.44 14.61 3.20 -0.09 -0.22 15031
0.89 -0.05 0.45 -2.83 14.69 3.52 -0.09 -0.27 15039
0.89 -0.04 1.17 -2.57 14.61 3.82 -0.12 -0.29 15046
0.85 -0.03 0.66 -2.08 15.03 4.16 -0.15 -0.33 15053
0.79 -0.04 0.47 -2.84 15.30 4.28 -0.17 -0.39 15060
0.71 -0.04 0.80 -3.46 16.12 4.28 -0.24 -0.44 15068
0.56 -0.04 0.77 -3.96 16.98 4.28 -0.40 -0.53 15075
0.46 -0.03 0.65 -5.01 18.45 4.28 -0.54 -0.56 15082
0.29 -0.01 1.72 -7.01 21.48 4.28 -0.54 -0.57 15089
0.23 -0.01 2.17 -6.90 22.33 4.28 -0.44 -0.65 15096
0.15 -0.01 -1.79 -6.25 23.94 4.28 -0.55 -0.83 15102
0.09 -0.01 -6.02 -7.36 26.53 4.28 -0.93 -0.70 15110
0.05 -0.00 -0.47 -10.32 27.33 4.28 -1.47 -0.35 15118
0.04 -0.00 2.55 -7.23 25.61 4.28 -1.47 -0.39 15124
0.04 -0.00 3.92 -7.59 26.90 4.28 -1.43 -0.47 15131
0.05 -0.01 5.10 -4.69 26.49 4.28 -1.35 -0.47 15138
0.05 -0.00 4.98 0.71 24.15 4.28 -1.23 -0.50 15145
0.01 -0.00 4.73 5.48 20.78 4.28 -1.05 -0.59 15153
0.01 -0.00 2.70 10.62 20.07 4.28 -1.16 -0.69 15160
0.00 0.00 0.88 17.81 15.27 4.28 -1.66 -0.85 15167
0.00 0.00 4.05 16.84 6.73 3.91 -2.31 -0.71 15174
0.00 0.00 5.76 15.12 24.54 1.29 -2.11 -0.49 15181
0.00 0.00 6.01 13.92 18.16 -0.82 -1.09 -0.50 15188
0.00 0.00 5.00 11.51 12.89 -2.08 -0.41 -0.45 15196
0.00 0.00 3.57 7.65 10.38 -2.42 -0.05 -0.49 15203
0.00 0.00 3.29 5.09 8.36 -2.29 0.18 -0.54 15210
0.00 0.00 2.60 4.37 6.63 -2.06 0.37 -0.58 15217
0.00 0.00 1.60 4.57 5.80 -1.96 0.41 -0.58 15224
0.00 0.00 0.85 4.91 6.08 -2.05 0.38 -0.56 15232
0.00 0.00 0.01 5.54 6.38 -2.33 0.26 -0.47 15239
0.00 0.00 -0.12 6.20 6.67 -2.69 0.15 -0.33 15246
0.00 0.00 -0.13 6.33 6.85 -3.18 0.10 -0.17 15253
0.00 0.00 -0.24 5.86 7.32 -3.62 0.13 0.03 15260
0.00 0.00 -0.06 5.15 7.69 -3.90 0.24 0.20 15267
0.00 0.00 -0.14 4.49 7.94 -4.11 0.38 0.35 15275
0.00 0.00 -0.17 3.75 8.28 -4.19 0.51 0.45 15282
0.00 0.00 -0.31 3.09 9.13 -4.25 0.63 0.48 15289
0.00 0.00 -0.53 1.95 8.95 -4.28 0.69 0.46 15296
0.00 0.00 -0.61 1.19 9.55 -4.28 0.76 0.37 15303
0.00 0.00 -1.09 0.70 10.02 -4.28 0.86 0.27 15310
0.00 0.00 -1.96 0.32 10.74 -4.28 0.86 0.15 15318
0.00 0.00 -2.47 -0.07 11.23 -4.28 0.85 0.05 15325
0.00 0.00 -2.52 -0.99 12.52 -4.28 0.94 -0.04 15332
0.00 0.00 -2.13 -1.94 13.34 -4.28 1.07 -0.15 15339
0.00 0.00 -2.49 -1.66 13.90 -4.28 1.07 -0.30 15346
0.00 0.00 -3.11 -2.46 14.71 -4.28 1.14 -0.41 15353
0.00 0.00 -2.85 -2.73 15.38 -4.28 1.08 -0.49 15361
0.00 0.00 -3.45 -2.54 15.53 -4.28 0.85 -0.51 15368
0.00 0.00 -2.99 -3.51 16.50 -4.28 0.67 -0.50 15375
0.00 0.00 -1.92 -3.61 16.49 -4.28 0.56 -0.54 15382
0.00 0.00 -1.07 -3.82 16.50 -4.28 0.59 -0.57 15389
0.00 0.00 -0.45 -4.42 16.63 -4.28 0.71 -0.61 15396
0.00 0.00 0.21 -5.97 17.42 -4.28 0.98 -0.65 15404
0.00 0.00 0.48 -6.90 18.33 -4.17 1.31 -0.68 15411
0.00 0.00 0.51 -6.96 20.79 -3.87 1.59 -0.68 15418
0.00 0.00 0.64 -7.05 22.32 -3.78 1.86 -0.65 15425
0.00 -0.00 0.75 -7.55 23.93 -3.84 2.05 -0.57 15432
0.00 0.00 0.88 -8.59 24.93 -4.01 2.22 -0.50 15439
0.00 0.00 0.61 -10.19 25.23 -4.14 2.29 -0.41 15447
0.00 0.00 0.28 -11.88 24.90 -4.23 2.27 -0.36 15454
0.00 0.00 -0.11 -13.61 24.17 -4.27 2.17 -0.32 15461
0.00 -0.00 -1.19 -14.88 22.59 -4.28 2.04 -0.30 15468
0.02 -0.00 -1.38 -16.32 21.07 -4.28 2.00 -0.28 15476
0.00 0.00 -2.28 -18.23 18.95 -4.28 1.95 -0.25 15482
0.00 0.00 -3.57 -19.71 16.58 -4.27 1.93 -0.19 15490
0.00 0.00 -5.70 -22.03 15.28 -4.17 2.02 -0.05 15497
0.00 0.00 -8.19 -25.59 13.87 -3.95 2.00 0.15 15504
0.00 0.00 -10.22 -29.89 11.53 -3.65 1.63 0.35 15512
0.00 0.00 -9.98 -37.29 7.13 -3.32 0.92 0.55 15518
0.00 0.00 -8.37 -45.57 2.33 -2.90 0.47 0.65 15525
0.00 0.00 -6.67 -49.60 -0.23 -2.04 0.39 0.63 15533
0.00 0.00 -6.78 -47.40 -0.30 -0.96 0.44 0.46 15540
0.00 0.00 -7.51 -41.08 2.76 0.33 0.19 0.27 15547
0.00 0.00 -7.32 -32.55 5.53 1.28 -0.41 0.11 15554
0.00 0.00 -3.05 -35.08 9.40 1.89 -1.09 -0.05 15561
0.00 -0.00 -2.03 2.64 15.69 3.58 -2.66 -0.36 15568
-0.00 0.01 4.47 11.04 5.74 3.42 -2.26 -0.35 15576
-0.01 0.11 -0.33 4.66 18.24 3.01 -2.50 -0.23 15583
-0.02 0.30 2.66 1.65 12.60 2.78 -2.05 0.05 15590
-0.00 0.50 1.85 -0.85 9.35 3.20 -1.67 0.41 15597
-0.02 0.64 0.29 -2.95 13.82 3.84 -1.23 0.67 15605
-0.03 0.84 -0.45 -2.72 18.45 4.00 -0.20 0.97 15612
-0.05 0.91 -3.89 -2.84 19.54 3.59 0.34 0.96 15620
-0.04 0.98 -5.28 -3.77 17.72 3.13 0.16 0.56 15627
-0.06 1.13 -3.91 -3.41 15.74 3.04 0.16 0.08 15634
-0.05 1.16 -0.87 -2.21 15.29 2.85 0.35 -0.13 15641
-0.06 1.15 0.94 -1.60 13.67 2.51 0.36 -0.17 15648
-0.06 1.15 1.65 -1.54 12.65 2.30 0.32 -0.09 15655
-0.07 1.12 1.47 -1.64 12.42 2.10 0.38 0.03 15663
-0.04 1.07 1.02 -2.45 14.56 1.75 0.37 0.13 15670
-0.04 1.06 -0.21 -2.21 14.38 0.81 -0.20 0.00 15676
-0.02 1.02 0.70 -1.90 11.68 0.11 -0.26 -0.02 15684
-0.02 1.01 0.26 -1.67 10.76 -0.01 -0.10 0.01 15690
-0.03 0.95 0.17 -1.17 10.22 -0.06 0.04 0.02 15697
-0.04 0.93 0.26 -1.06 9.85 -0.05 0.07 0.01 15705
-0.02 0.94 0.47 -1.11 9.98 -0.07 0.10 0.00 15712
-0.00 0.94 0.39 -1.09 9.98 -0.06 0.12 -0.00 15719
-0.01 0.89 0.45 -0.94 9.99 -0.05 0.13 -0.01 15726
0.01 0.87 0.49 -0.91 9.97 -0.02 0.13 -0.01 15733
0.00 0.85 0.46 -0.86 9.84 -0.00 0.12 -0.02 15740
0.00 0.84 0.45 -0.80 9.76 0.00 0.12 -0.02 15748
0.03 0.81 0.48 -0.78 9.82 0.03 0.11 -0.02 15755
0.03 0.78 0.43 -0.85 9.81 0.05 0.10 -0.02 15762
0.05 0.77 0.47 -0.80 9.83 0.06 0.09 -0.02 15769
0.04 0.71 0.46 -0.82 9.82 0.07 0.08 -0.02 15776
0.02 0.68 0.40 -0.76 9.87 0.08 0.08 -0.02 15783
0.03 0.68 0.43 -0.79 9.84 0.10 0.09 -0.03 15791
0.04 0.64 0.47 -0.78 9.91 0.16 0.09 -0.03 15798
0.04 0.62 0.51 -0.82 9.88 0.16 0.08 -0.03 15805
0.04 0.54 0.52 -0.83 9.82 0.19 0.07 -0.03 15812
0.03 0.50 0.51 -0.86 9.81 0.21 0.06 -0.04 15819
0.02 0.45 0.56 -0.86 9.81 0.22 0.05 -0.04 15826
0.03 0.31 0.56 -0.91 9.71 0.23 0.04 -0.05 15834
0.04 0.30 0.58 -0.94 9.75 0.25 0.03 -0.06 15841
0.06 0.21 0.56 -0.97 9.75 0.25 0.02 -0.06 15848
0.06 0.21 0.56 -0.95 9.77 0.25 0.01 -0.06 15855
0.06 0.19 0.61 -1.06 9.75 0.25 -0.01 -0.07 15862
0.05 0.11 0.57 -1.08 9.69 0.24 -0.01 -0.07 15869
0.09 0.09 0.58 -1.14 9.79 0.23 -0.02 -0.08 15877
0.12 0.09 0.55 -1.12 9.75 0.22 -0.03 -0.08 15884
0.13 0.09 0.59 -1.19 9.76 0.22 -0.03 -0.09 15891
0.11 0.07 0.57 -1.18 9.81 0.21 -0.05 -0.09 15898
0.11 0.04 0.59 -1.18 9.75 0.20 -0.05 -0.09 15905
0.10 0.05 0.61 -1.18 9.68 0.20 -0.06 -0.10 15912
0.13 0.06 0.71 -1.16 9.74 0.19 -0.08 -0.11 15920
0.15 0.03 0.59 -1.10 9.38 0.19 -0.08 -0.11 15927
0.15 0.00 0.58 -0.73 9.57 0.19 -0.06 -0.11 15934
0.15 -0.00 0.51 -1.36 9.71 0.19 -0.07 -0.11 15941
0.15 -0.02 0.36 -1.43 9.81 0.18 -0.07 -0.12 15948
0.15 -0.01 0.43 -1.33 9.82 0.18 -0.06 -0.12 15955
0.18 0.00 0.55 -1.40 9.64 0.19 -0.05 -0.13 15963
0.21 -0.02 0.78 -1.29 9.75 0.20 -0.04 -0.13 15970
0.22 -0.02 0.38 -1.44 9.82 0.20 -0.03 -0.13 15977
0.24 -0.02 0.59 -1.40 9.92 0.20 -0.01 -0.14 15984
0.24 -0.02 0.50 -1.46 9.95 0.22 0.01 -0.14 15991
0.24 -0.01 0.63 -1.49 9.92 0.23 0.03 -0.15 15998
0.27 -0.00 0.45 -1.48 9.90 0.25 0.05 -0.16 16006
0.29 -0.02 0.57 -1.51 9.93 0.28 0.08 -0.17 16013
0.30 -0.03 0.63 -1.55 10.13 0.31 0.13 -0.19 16020
0.30 -0.03 0.66 -1.63 10.32 0.37 0.19 -0.20 16027
0.31 -0.03 0.46 -1.72 10.63 0.47 0.26 -0.21 16035
0.37 -0.03 0.36 -1.75 10.67 0.58 0.30 -0.19 16043
0.38 -0.02 0.45 -1.67 10.56 0.70 0.28 -0.18 16050
0.39 -0.03 0.65 -1.78 10.64 0.78 0.29 -0.18 16057
0.38 -0.03 0.56 -2.42 10.74 0.88 0.28 -0.18 16064
0.37 -0.04 0.70 -1.94 10.74 0.97 0.26 -0.19 16070
0.38 -0.02 0.61 -1.89 10.78 1.04 0.25 -0.19 16078
0.42 -0.03 0.80 -1.91 10.84 1.13 0.23 -0.20 16086
0.44 -0.02 0.57 -2.04 10.80 1.22 0.21 -0.20 16092
0.46 -0.03 0.56 -2.25 11.00 1.29 0.19 -0.19 16100
0.48 -0.02 0.51 -2.37 11.01 1.40 0.18 -0.18 16107
0.47 -0.04 0.34 -2.39 11.11 1.49 0.17 -0.16 16114
0.45 -0.03 0.35 -2.43 11.36 1.62 0.17 -0.14 16121
0.48 -0.02 0.54 -2.60 11.83 1.78 0.19 -0.12 16129
0.51 -0.03 1.15 -2.80 11.99 1.95 0.21 -0.11 16136
0.50 -0.02 1.06 -3.10 12.54 2.15 0.20 -0.13 16143
0.52 -0.03 1.20 -2.91 12.58 2.34 0.21 -0.15 16150
0.54 -0.03 1.29 -3.12 12.98 2.57 0.21 -0.17 16157
0.55 -0.03 1.07 -3.07 13.42 2.84 0.20 -0.20 16163
0.57 -0.02 1.31 -2.97 13.38 3.10 0.18 -0.23 16172
0.59 -0.03 1.50 -3.28 13.62 3.41 0.18 -0.28 16179
0.61 -0.04 1.54 -3.49 14.18 3.77 0.19 -0.34 16186
0.58 -0.04 1.56 -3.73 14.99 4.06 0.17 -0.38 16193
0.57 -0.03 0.91 -4.09 14.70 4.27 0.15 -0.43 16200
0.50 -0.03 0.97 -3.74 15.87 4.28 0.09 -0.44 16207
0.43 -0.01 1.71 -4.66 16.98 4.28 0.02 -0.47 16215
0.35 -0.03 1.64 -5.70 18.83 4.28 0.02 -0.49 16222
0.24 -0.02 1.48 -6.74 19.94 4.28 -0.07 -0.54 16229
0.19 -0.02 0.86 -8.47 21.13 4.28 -0.37 -0.63 16235
0.11 -0.01 1.58 -8.72 22.78 4.28 -0.64 -0.65 16242
0.06 -0.01 1.73 -7.73 24.16 4.28 -0.55 -0.62 16249
0.05 -0.01 -1.25 -9.61 26.82 4.28 -0.39 -0.61 16257
0.06 -0.01 0.02 -8.65 24.13 4.28 -0.94 -0.54 16264
0.05 -0.01 4.05 -7.36 25.54 4.28 -1.40 -0.55 16271
0.05 -0.01 6.45 -7.80 25.80 4.28 -1.57 -0.62 16278
0.02 -0.00 7.05 -2.80 24.24 4.28 -1.52 -0.66 16285
0.03 -0.00 7.78 1.53 23.84 4.28 -1.20 -0.66 16292
0.01 -0.00 7.15 7.44 22.47 4.28 -0.89 -0.77 16300
0.00 0.00 6.53 13.65 18.05 4.28 -0.59 -0.97 16307
0.00 0.00 7.66 22.66 2.69 4.07 -0.34 -1.37 16314
0.00 0.00 9.81 15.70 19.46 2.41 -0.01 -1.06 16321
0.00 0.00 3.44 12.95 23.10 -0.25 0.46 -0.84 16328
0.00 0.00 -0.62 11.93 16.79 -1.55 0.30 -0.69 16335
0.00 -0.00 -0.65 9.84 13.09 -2.22 -0.42 -0.59 16343
0.00 0.00 0.50 7.05 10.70 -2.36 -1.02 -0.64 16350
0.00 0.00 1.54 5.97 9.13 -2.41 -1.12 -0.72 16357
0.00 0.00 2.75 5.82 8.07 -2.53 -0.93 -0.78 16364
0.00 0.00 3.19 5.99 7.17 -2.73 -0.57 -0.83 16371
0.00 0.00 2.37 5.90 7.27 -3.05 -0.21 -0.85 16378
0.00 0.00 0.96 5.69 7.25 -3.39 0.11 -0.83 16386
0.00 0.00 -0.64 5.44 7.37 -3.70 0.23 -0.76 16393
0.00 0.00 -1.89 5.09 7.59 -3.99 0.16 -0.62 16400
0.00 0.00 -2.44 4.50 8.24 -4.17 -0.00 -0.45 16407
0.00 0.00 -1.90 3.91 8.68 -4.26 -0.14 -0.29 16414
0.00 0.00 -0.90 3.52 9.15 -4.28 -0.13 -0.14 16421
0.00 0.00 -0.38 2.75 9.42 -4.28 -0.02 -0.03 16429
0.00 0.00 -0.10 2.02 9.80 -4.28 0.16 0.01 16436
0.00 0.00 -0.09 1.37 10.47 -4.28 0.37 0.03 16443
0.00 0.00 -0.51 0.89 11.06 -4.28 0.51 0.03 16450
0.00 0.00 -1.11 0.29 11.38 -4.28 0.58 0.03 16457
0.00 0.00 -1.71 -0.47 12.10 -4.28 0.54 0.06 16464
0.00 0.00 -2.01 -1.28 13.15 -4.28 0.57 0.11 16472
0.00 0.00 -0.86 -2.23 13.42 -4.28 0.59 0.15 16479
0.00 0.00 -0.67 -2.28 14.07 -4.28 0.56 0.09 16486
0.00 0.00 -1.63 -2.24 14.01 -4.28 0.48 0.02 16493
0.00 0.00 -0.04 -3.19 15.68 -4.28 0.50 -0.01 16500
0.00 -0.00 -1.31 -2.73 15.58 -4.28 0.36 -0.08 16507
0.00 0.00 -0.10 -3.66 16.76 -4.28 0.32 -0.15 16515
0.00 0.00 0.51 -3.76 16.65 -4.28 0.32 -0.27 16522
0.00 0.00 1.33 -4.74 17.45 -4.28 0.46 -0.42 16529
0.00 0.00 1.56 -5.54 17.65 -4.28 0.68 -0.57 16536
0.00 0.00 2.40 -6.47 19.19 -4.27 0.98 -0.68 16543
0.00 0.00 2.20 -6.81 20.70 -4.15 1.32 -0.79 16550
0.00 0.00 1.83 -6.56 22.48 -4.11 1.59 -0.83 16558
0.00 0.00 1.56 -6.73 23.94 -4.17 1.79 -0.84 16565
0.00 0.00 1.43 -7.63 25.54 -4.25 1.93 -0.82 16572
0.00 0.00 0.84 -8.36 26.37 -4.28 2.02 -0.78 16579
0.00 0.00 -0.14 -9.58 26.53 -4.28 2.07 -0.71 16586
0.00 0.00 -1.04 -11.44 26.21 -4.28 2.04 -0.63 16593
0.00 0.00 -1.88 -13.48 24.91 -4.28 1.95 -0.53 16601
0.00 0.00 -2.19 -16.39 22.71 -4.28 1.84 -0.40 16608
0.00 0.00 -2.29 -20.03 20.71 -4.28 1.75 -0.29 16615
0.00 0.00 -2.44 -22.76 19.05 -4.28 1.70 -0.14 16622
0.00 0.00 -3.53 -25.18 16.18 -4.27 1.65 0.08 16629
0.00 0.00 -4.36 -27.40 13.83 -3.95 1.64 0.39 16636
0.00 0.00 -5.91 -32.59 11.02 -3.42 1.61 0.88 16644
0.00 0.00 -6.15 -41.17 6.83 -3.01 1.39 1.25 16651
0.00 0.00 -6.15 -49.56 3.14 -2.51 1.13 1.42 16658
0.01 -0.00 -7.38 -53.91 0.36 -1.79 1.13 1.46 16665
0.02 -0.00 -9.50 -51.09 0.71 -0.50 1.06 1.41 16672
0.01 -0.00 -11.24 -42.62 2.91 0.90 0.48 1.31 16680
0.01 -0.00 -9.99 -32.71 6.66 1.77 -0.35 1.19 16687
0.01 -0.00 -6.15 -24.12 6.65 2.27 -1.13 1.09 16694
0.00 0.00 -3.85 7.09 19.70 3.94 -1.68 0.38 16701
-0.00 0.01 2.68 12.66 8.71 3.55 -0.99 0.36 16708
0.01 0.12 -1.56 5.37 15.43 3.03 -1.58 0.24 16716
-0.02 0.25 1.11 1.70 10.90 2.86 -1.57 0.26 16723
-0.03 0.43 1.15 -0.60 9.34 3.41 -1.37 0.41 16730
-0.04 0.64 0.78 -2.52 12.78 4.01 -0.99 0.63 16738
-0.03 0.85 0.66 -2.96 17.83 4.10 -0.37 0.92 16745
-0.05 0.89 -2.36 -2.94 20.88 3.69 0.47 1.08 16752
-0.04 1.00 -4.70 -3.26 17.51 3.31 0.36 0.78 16759
-0.05 1.06 -5.30 -3.56 16.29 3.17 0.20 0.34 16766
-0.05 1.07 -2.41 -2.81 15.96 2.96 0.25 -0.07 16774
-0.07 1.10 0.57 -1.78 14.38 2.66 0.39 -0.23 16781
-0.06 1.11 1.81 -1.37 12.47 2.42 0.30 -0.21 16788
-0.05 1.10 2.56 -1.51 12.34 2.26 0.29 -0.03 16795
-0.05 1.09 1.97 -2.86 14.72 2.06 0.37 0.19 16802
-0.05 0.98 -0.23 -3.23 17.07 1.19 -0.16 0.13 16809
-0.04 0.94 0.63 -1.68 12.25 0.32 -0.35 -0.00 16817
-0.05 0.92 0.26 -2.04 10.66 0.04 -0.21 -0.03 16823
-0.03 0.95 0.63 -1.10 10.22 -0.00 -0.06 0.01 16830
-0.02 0.84 0.23 -1.03 9.92 -0.05 0.00 0.02 16837
-0.02 0.84 0.31 -1.12 9.82 -0.07 0.02 0.00 16844
-0.02 0.86 0.39 -1.20 10.09 -0.08 0.03 -0.01 16851
-0.02 0.83 0.42 -1.02 10.07 -0.07 0.03 -0.01 16859
-0.00 0.83 0.48 -1.01 9.96 -0.04 0.02 -0.01 16866
-0.01 0.84 0.46 -0.90 9.87 -0.02 0.00 -0.02 16873
0.02 0.86 0.40 -0.87 9.76 -0.01 -0.01 -0.03 16880
0.01 0.85 0.40 -0.78 9.80 0.00 -0.03 -0.03 16887
0.02 0.79 0.43 -0.81 9.81 0.03 -0.03 -0.03 16894
0.02 0.74 0.36 -0.82 9.78 0.04 -0.04 -0.03 16902
0.01 0.75 0.28 -0.80 9.81 0.06 -0.04 -0.03 16909
0.01 0.73 0.32 -0.83 9.91 0.07 -0.05 -0.03 16916
0.03 0.68 0.31 -0.82 9.94 0.10 -0.06 -0.03 16923
0.04 0.64 0.32 -0.81 9.98 0.13 -0.07 -0.02 16930
0.05 0.59 0.36 -0.84 9.92 0.17 -0.08 -0.02 16937
0.04 0.54 0.28 -0.86 9.85 0.18 -0.08 -0.03 16945
0.04 0.53 0.26 -0.86 9.84 0.20 -0.08 -0.03 16952
0.05 0.48 0.30 -0.91 9.92 0.21 -0.09 -0.04 16959
0.10 0.43 0.37 -0.87 9.82 0.22 -0.11 -0.04 16966
0.09 0.39 0.35 -1.00 9.78 0.22 -0.12 -0.05 16973
0.12 0.33 0.37 -1.01 9.70 0.22 -0.12 -0.06 16980
0.12 0.25 0.35 -1.02 9.72 0.21 -0.12 -0.06 16988
0.13 0.20 0.40 -1.06 9.79 0.21 -0.13 -0.07 16995
0.13 0.20 0.35 -0.99 9.71 0.20 -0.13 -0.07 17002
0.15 0.17 0.29 -1.08 9.67 0.19 -0.14 -0.08 17009
0.16 0.12 0.30 -1.16 9.70 0.18 -0.13 -0.08 17016
0.17 0.12 0.23 -1.24 9.67 0.18 -0.13 -0.09 17024
0.19 0.08 0.23 -1.16 9.66 0.16 -0.12 -0.09 17031
0.23 0.07 0.24 -1.07 9.69 0.16 -0.11 -0.09 17038
0.26 0.10 0.14 -1.14 9.78 0.15 -0.10 -0.10 17045
0.28 0.05 0.21 -1.25 9.82 0.15 -0.10 -0.10 17052
0.30 0.06 0.11 -1.24 9.89 0.15 -0.09 -0.10 17059
0.31 0.04 0.25 -1.28 9.83 0.15 -0.09 -0.10 17067
0.32 0.03 0.20 -1.23 9.82 0.15 -0.08 -0.11 17074
0.34 0.01 0.15 -1.25 10.42 0.15 -0.08 -0.10 17082
0.37 0.01 0.22 -1.31 9.88 0.15 -0.08 -0.11 17088
0.34 -0.00 0.00 -1.32 9.83 0.15 -0.09 -0.10 17095
0.37 -0.01 0.31 -1.33 9.87 0.17 -0.09 -0.11 17102
0.38 -0.02 0.21 -1.40 9.87 0.17 -0.10 -0.12 17110
0.41 -0.02 0.11 -1.42 9.81 0.18 -0.10 -0.13 17117
0.48 -0.01 0.32 -1.43 9.93 0.20 -0.10 -0.14 17124
0.49 -0.03 0.23 -1.43 9.83 0.22 -0.11 -0.16 17131
0.52 -0.04 0.27 -1.43 9.97 0.24 -0.12 -0.18 17138
0.57 -0.05 0.27 -1.47 10.00 0.27 -0.15 -0.19 17146
0.55 -0.04 0.27 -1.50 10.20 0.31 -0.18 -0.21 17154
0.58 -0.03 0.27 -1.52 10.28 0.36 -0.22 -0.23 17161
0.64 -0.04 0.37 -1.65 10.51 0.42 -0.30 -0.25 17168
0.69 -0.04 0.26 -1.65 10.83 0.51 -0.30 -0.27 17175
0.71 -0.04 0.01 -1.77 11.23 0.66 -0.32 -0.28 17182
0.75 -0.05 0.07 -1.81 11.50 0.82 -0.26 -0.27 17189
0.83 -0.05 0.15 -1.84 11.40 0.98 -0.13 -0.27 17197
0.86 -0.04 0.02 -1.92 11.25 1.09 -0.10 -0.27 17204
0.86 -0.04 -0.20 -1.89 11.24 1.21 -0.09 -0.26 17211
0.90 -0.05 -0.39 -2.02 11.26 1.31 -0.08 -0.24 17218
0.89 -0.05 -0.40 -2.01 11.22 1.43 -0.07 -0.21 17225
0.91 -0.05 -0.63 -2.21 11.26 1.54 -0.05 -0.18 17232
0.93 -0.04 -0.75 -2.16 11.54 1.65 -0.02 -0.14 17240
0.95 -0.03 -0.62 -2.48 12.18 1.82 0.02 -0.09 17247
0.99 -0.04 -0.29 -2.47 12.49 2.03 0.06 -0.07 17254
1.04 -0.05 -0.48 -2.62 13.14 2.21 0.10 -0.08 17261
1.05 -0.05 0.05 -2.77 13.57 2.48 0.08 -0.09 17267
1.06 -0.05 0.74 -2.88 13.76 2.73 0.04 -0.13 17275
1.06 -0.05 0.81 -2.77 13.79 3.02 0.04 -0.19 17283
1.05 -0.03 0.84 -2.88 14.21 3.32 0.03 -0.25 17290
1.03 -0.04 0.24 -3.16 14.84 3.60 0.00 -0.30 17296
0.98 -0.04 0.10 -3.08 14.94 3.94 -0.03 -0.33 17303
0.98 -0.05 0.68 -3.11 15.58 4.24 -0.07 -0.37 17311
0.91 -0.04 1.07 -3.13 15.95 4.28 -0.20 -0.46 17318
0.82 -0.03 1.51 -3.80 16.31 4.28 -0.44 -0.54 17326
0.67 -0.02 1.06 -4.81 17.51 4.28 -0.61 -0.64 17333
0.52 -0.02 1.25 -5.82 19.19 4.28 -0.73 -0.70 17340
0.30 -0.01 1.99 -7.38 21.81 4.28 -0.67 -0.72 17347
0.20 -0.02 1.63 -7.46 22.58 4.28 -0.54 -0.82 17353
0.09 -0.01 -3.24 -7.44 23.14 4.28 -0.66 -0.96 17360
0.09 -0.00 -4.56 -9.84 26.59 4.28 -1.27 -0.82 17369
0.07 -0.00 -0.61 -11.76 27.61 4.28 -1.52 -0.56 17376
0.04 -0.00 2.87 -10.33 26.16 4.28 -1.63 -0.62 17383
0.08 -0.01 3.87 -5.90 27.36 4.28 -1.70 -0.60 17389
0.04 -0.00 5.70 -2.42 25.13 4.28 -1.66 -0.58 17396
0.03 -0.00 6.19 3.82 19.91 4.28 -1.44 -0.64 17403
0.01 -0.00 5.56 7.48 18.17 4.28 -1.26 -0.72 17411
