Voltage_01 Voltage_02 Acc_x Acc_y Acc_z Gyro_x Gyro_y Gyro_z Time
5000
0.00 0.00 -4.23 -9.18 3.99 -1.03 -0.05 1.35 17
0.00 0.00 -3.41 -12.50 2.35 -1.07 -0.05 1.27 23
0.00 0.00 -6.60 -14.52 9.47 -0.58 -0.44 1.18 30
0.00 0.00 -4.08 -11.94 5.33 -0.38 -0.43 0.99 37
0.00 -0.00 -3.65 -11.49 5.63 -0.08 -0.28 0.81 44
0.00 0.00 -4.81 -13.81 7.23 0.09 -0.21 0.63 51
0.00 0.00 -5.32 -14.17 7.42 0.23 -0.21 0.49 57
0.00 0.00 -6.46 -14.91 6.38 0.40 -0.29 0.34 64
0.00 0.00 -6.91 -15.74 5.94 0.57 -0.60 0.25 70
-0.00 0.00 -8.49 -19.05 4.44 0.75 -1.03 0.20 77
-0.00 0.00 -9.36 -23.38 3.59 1.09 -1.35 0.23 84
-0.00 0.03 -4.21 -8.40 6.56 1.72 -1.37 0.31 92
-0.01 0.11 -5.16 -2.86 10.04 2.20 -0.97 0.16 99
-0.02 0.21 -4.46 0.69 20.02 2.72 -1.05 -0.18 106
-0.02 0.32 2.08 -1.06 33.99 2.03 -2.77 -0.54 114
-0.02 0.39 1.47 -1.61 12.05 0.24 -1.34 -0.21 121
-0.03 0.44 -0.40 -1.90 12.29 -0.05 -0.50 -0.15 129
-0.04 0.47 0.38 -1.67 9.75 -0.06 -0.28 -0.09 135
-0.03 0.46 0.86 -1.05 10.21 0.01 -0.29 -0.03 142
-0.04 0.48 0.11 -0.68 10.38 0.03 -0.13 0.01 149
-0.02 0.50 -0.13 -0.77 10.13 0.00 -0.05 -0.01 156
-0.02 0.49 0.04 -0.94 9.91 -0.01 0.01 -0.03 163
-0.02 0.51 0.41 -0.89 9.84 -0.00 0.04 -0.04 171
-0.04 0.51 0.52 -0.83 9.82 0.00 0.06 -0.03 178
-0.04 0.48 0.38 -0.81 9.79 0.00 0.05 -0.03 185
-0.05 0.50 0.36 -0.78 9.76 -0.00 0.04 -0.04 192
-0.04 0.54 0.46 -0.81 9.76 -0.00 0.03 -0.04 199
0.01 0.52 0.50 -0.83 9.75 -0.01 0.02 -0.05 206
0.04 0.49 0.42 -0.85 9.77 -0.02 0.02 -0.06 214
0.04 0.51 0.35 -0.77 9.68 -0.02 0.02 -0.06 221
0.01 0.52 0.34 -0.77 9.72 -0.02 0.02 -0.07 228
0.01 0.52 0.35 -0.77 9.86 -0.01 0.03 -0.08 235
0.00 0.51 0.35 -0.75 9.81 -0.01 0.04 -0.07 242
0.03 0.47 0.34 -0.84 9.84 0.00 0.05 -0.10 249
0.03 0.44 0.34 -0.83 9.82 0.00 0.05 -0.06 257
0.04 0.40 0.38 -0.80 9.77 0.01 0.05 -0.07 264
0.02 0.39 0.46 -0.80 9.83 0.01 0.05 -0.07 271
0.04 0.36 0.44 -0.84 9.78 0.02 0.05 -0.07 278
0.03 0.37 0.44 -0.86 9.78 0.02 0.05 -0.08 285
0.04 0.33 0.40 -0.83 9.79 0.02 0.04 -0.08 292
0.03 0.30 0.38 -0.86 9.86 0.02 0.05 -0.08 300
0.02 0.26 0.37 -0.87 9.83 0.03 0.05 -0.09 307
0.03 0.25 0.36 -0.86 9.86 0.02 0.06 -0.09 314
0.05 0.24 0.37 -0.84 9.82 0.03 0.06 -0.09 321
0.13 0.20 0.36 -0.87 9.83 0.03 0.06 -0.08 328
0.14 0.18 0.37 -0.82 9.81 0.03 0.07 -0.09 335
0.14 0.12 0.39 -0.83 9.89 0.04 0.07 -0.08 343
0.12 0.13 0.36 -0.86 9.81 0.04 0.08 -0.09 350
0.14 0.06 0.42 -0.87 9.82 0.04 0.08 -0.08 357
0.15 0.03 0.43 -0.92 9.82 0.05 0.08 -0.08 364
0.19 0.02 0.40 -0.88 9.81 0.05 0.08 -0.08 371
0.20 -0.00 0.42 -0.92 9.80 0.05 0.08 -0.08 378
0.21 0.05 0.44 -0.94 9.81 0.04 0.08 -0.09 386
0.22 0.00 0.44 -0.93 9.82 0.04 0.08 -0.08 393
0.25 -0.01 0.41 -0.91 9.83 0.05 0.08 -0.08 400
0.27 0.01 0.40 -0.92 9.83 0.05 0.08 -0.08 407
0.29 -0.01 0.41 -0.91 9.82 0.05 0.08 -0.08 414
0.29 -0.01 0.46 -0.96 9.82 0.05 0.08 -0.09 421
0.29 -0.03 0.46 -0.93 9.81 0.05 0.08 -0.08 429
0.30 -0.01 0.45 -0.98 9.82 0.06 0.08 -0.08 436
0.32 -0.02 0.47 -0.94 9.81 0.06 0.08 -0.08 443
0.37 -0.01 0.47 -0.92 9.83 0.06 0.07 -0.09 450
0.37 -0.02 0.46 -0.97 9.80 0.07 0.06 -0.09 457
0.40 -0.02 0.46 -0.98 9.81 0.07 0.06 -0.09 464
0.43 -0.03 0.47 -1.00 9.80 0.07 0.05 -0.09 472
0.43 -0.02 0.50 -0.95 9.80 0.08 0.05 -0.09 479
0.45 -0.02 0.48 -0.97 9.81 0.08 0.05 -0.09 486
0.45 -0.02 0.48 -0.99 9.81 0.09 0.05 -0.11 493
0.47 -0.02 0.48 -1.00 9.82 0.09 0.04 -0.11 500
0.46 -0.03 0.49 -1.03 9.80 0.10 0.05 -0.10 507
0.49 -0.03 0.43 -1.05 9.79 0.11 0.05 -0.11 515
0.53 -0.03 0.47 -1.04 9.82 0.12 0.05 -0.12 522
0.58 -0.02 0.52 -1.08 9.81 0.14 0.05 -0.12 529
0.60 -0.03 0.51 -1.11 9.85 0.16 0.05 -0.13 536
0.63 -0.03 0.47 -1.09 9.80 0.18 0.05 -0.13 543
0.65 -0.03 0.47 -1.04 9.83 0.20 0.06 -0.13 550
0.66 -0.03 0.51 -1.16 9.82 0.23 0.06 -0.13 558
0.71 -0.03 0.47 -1.10 9.87 0.26 0.07 -0.14 565
0.73 -0.02 0.51 -1.15 9.96 0.32 0.08 -0.14 572
0.79 -0.04 0.43 -1.17 9.96 0.37 0.08 -0.14 579
0.82 -0.03 0.50 -1.27 10.01 0.44 0.08 -0.15 586
0.83 -0.04 0.39 -1.26 10.02 0.50 0.08 -0.14 593
0.86 -0.03 0.53 -1.28 10.07 0.56 0.08 -0.14 602
0.90 -0.03 0.54 -1.43 9.99 0.60 0.06 -0.14 608
0.92 -0.02 0.48 -1.35 10.15 0.65 0.05 -0.15 616
0.98 -0.04 0.50 -1.44 9.99 0.67 0.04 -0.15 622
0.99 -0.04 0.45 -1.59 10.03 0.70 0.03 -0.14 629
1.04 -0.05 0.38 -1.55 10.10 0.71 0.03 -0.13 637
1.07 -0.04 0.36 -1.58 10.09 0.73 0.03 -0.12 644
1.08 -0.04 0.38 -1.70 10.15 0.75 0.00 -0.11 651
1.09 -0.04 0.38 -1.77 10.24 0.78 0.02 -0.10 658
1.12 -0.04 0.41 -1.82 10.37 0.84 0.03 -0.09 666
1.14 -0.04 0.54 -1.85 10.60 0.92 0.02 -0.10 672
1.16 -0.05 0.63 -1.97 10.70 1.01 0.01 -0.10 679
1.15 -0.05 0.47 -1.99 10.89 1.09 -0.00 -0.11 688
1.16 -0.05 0.37 -2.06 10.72 1.20 -0.01 -0.12 695
1.20 -0.04 0.52 -2.31 10.96 1.31 -0.04 -0.12 702
1.22 -0.04 0.50 -2.34 10.92 1.41 -0.06 -0.12 709
1.25 -0.05 0.53 -2.51 10.70 1.52 -0.09 -0.13 716
1.29 -0.05 0.24 -2.32 10.89 1.60 -0.12 -0.13 723
1.29 -0.04 0.26 -2.41 10.91 1.70 -0.13 -0.13 731
1.31 -0.04 0.45 -2.91 10.98 1.80 -0.15 -0.13 738
1.29 -0.05 0.37 -2.54 10.82 1.89 -0.17 -0.12 745
1.26 -0.05 0.32 -2.84 11.11 2.01 -0.18 -0.12 752
1.24 -0.05 0.07 -2.96 11.23 2.14 -0.17 -0.12 759
1.20 -0.05 0.34 -3.62 11.49 2.31 -0.17 -0.11 766
1.17 -0.04 1.30 -3.46 12.19 2.49 -0.17 -0.12 774
1.15 -0.04 0.83 -3.85 11.62 2.63 -0.19 -0.16 781
1.10 -0.04 1.28 -3.84 9.83 2.80 -0.18 -0.20 787
0.98 -0.04 -0.33 -3.93 11.46 2.98 -0.11 -0.21 795
0.90 -0.05 0.05 -4.04 11.69 3.18 -0.03 -0.19 801
0.71 -0.03 0.25 -4.57 11.89 3.41 0.07 -0.15 809
0.56 -0.03 -0.06 -5.12 12.47 3.62 0.21 -0.12 817
0.45 -0.02 0.10 -5.74 13.32 3.87 0.30 -0.11 824
0.26 -0.02 0.06 -6.91 14.17 4.06 0.38 -0.09 830
0.20 -0.02 0.14 -8.09 15.72 4.15 0.45 -0.06 837
0.20 -0.02 -0.22 -8.45 17.83 4.21 0.53 -0.02 844
0.16 -0.02 0.08 -9.41 18.65 4.23 0.70 0.07 851
0.16 -0.02 0.10 -9.76 17.93 4.23 0.88 0.14 859
0.07 -0.01 -0.43 -9.62 17.50 4.21 1.01 0.21 866
0.07 -0.01 -0.63 -9.31 16.98 4.18 1.05 0.25 873
0.05 -0.01 -1.09 -8.94 16.79 4.12 0.99 0.28 880
0.01 -0.00 -1.65 -7.84 17.73 4.02 0.78 0.27 887
0.00 -0.00 -1.99 -7.18 17.79 3.81 0.49 0.26 894
0.01 -0.00 -1.60 -5.99 16.64 3.65 0.12 0.24 902
0.03 -0.00 -0.48 -3.65 15.21 3.58 -0.16 0.24 909
0.00 -0.00 0.16 -2.62 15.80 3.60 -0.43 0.25 916
0.00 -0.00 0.45 -1.48 16.94 3.66 -0.70 0.26 923
0.00 0.00 -0.83 6.11 9.07 3.63 -0.76 0.32 930
0.00 0.00 0.77 7.02 7.92 3.22 -0.61 0.39 936
0.00 0.00 0.58 11.25 4.87 2.79 -0.51 0.30 943
0.00 0.00 -0.56 18.11 -0.78 1.73 -0.59 -0.01 950
0.00 0.00 1.96 18.53 3.13 0.52 -0.74 -0.73 957
0.00 0.00 2.00 9.24 16.72 -0.60 -0.83 -1.08 964
0.00 0.00 0.49 6.73 15.97 -1.70 -0.36 -1.36 971
0.00 0.00 0.06 7.37 11.35 -2.08 0.25 -1.72 978
0.00 0.00 -0.36 7.66 8.41 -2.25 0.52 -1.95 986
0.00 -0.00 -1.02 7.40 7.02 -2.41 0.59 -2.15 992
0.00 0.00 -1.36 6.49 6.49 -2.52 0.54 -2.36 999
0.00 0.00 -1.18 5.57 6.98 -2.61 0.42 -2.52 1006
0.00 0.00 -1.29 4.95 7.80 -2.73 0.19 -2.64 1013
0.00 0.00 -1.15 4.49 8.29 -2.84 -0.01 -2.69 1020
0.00 0.00 -0.64 4.29 8.90 -3.03 -0.21 -2.68 1028
0.00 0.00 0.35 4.11 9.15 -3.24 -0.37 -2.65 1035
0.00 0.00 1.11 3.80 9.82 -3.56 -0.46 -2.62 1042
0.00 -0.00 2.14 3.19 10.75 -3.90 -0.46 -2.58 1049
0.00 0.00 2.81 2.29 11.55 -4.15 -0.35 -2.51 1056
0.00 0.00 3.49 1.41 11.94 -4.27 -0.12 -2.43 1063
0.00 0.00 3.90 0.40 11.83 -4.28 0.18 -2.32 1071
0.00 -0.00 3.92 -0.28 11.66 -4.28 0.42 -2.20 1078
0.00 0.00 3.83 -1.26 11.37 -4.28 0.61 -2.07 1085
0.00 0.00 3.72 -2.42 11.43 -4.28 0.71 -1.93 1092
0.00 0.00 3.62 -3.65 11.81 -4.28 0.78 -1.80 1099
0.00 0.00 3.64 -4.93 12.01 -4.28 0.81 -1.63 1106
0.00 0.00 3.93 -5.74 12.19 -4.24 0.83 -1.45 1114
0.00 0.00 4.43 -6.24 12.27 -4.07 0.91 -1.30 1121
0.00 0.00 4.91 -5.95 12.27 -3.85 1.05 -1.10 1128
0.00 0.00 5.09 -5.74 12.86 -3.65 1.23 -0.92 1135
0.00 0.00 5.17 -6.03 13.64 -3.48 1.52 -0.70 1142
0.00 0.00 4.92 -6.38 14.43 -3.38 1.76 -0.47 1149
0.00 0.00 4.47 -6.68 14.75 -3.25 1.99 -0.26 1157
0.00 0.00 3.90 -6.87 14.84 -3.13 2.13 -0.02 1164
0.00 0.00 3.37 -7.00 14.86 -2.98 2.16 0.20 1171
0.00 0.00 2.87 -6.92 14.82 -2.81 2.14 0.44 1178
0.00 0.00 2.43 -6.84 14.89 -2.66 2.11 0.66 1185
0.00 0.00 2.05 -6.88 14.90 -2.47 2.09 0.83 1192
0.00 0.00 1.64 -6.95 15.10 -2.31 2.07 1.01 1200
0.00 0.00 1.12 -7.02 15.05 -2.14 2.05 1.13 1207
0.00 0.00 0.23 -7.24 14.83 -1.97 1.99 1.27 1214
0.00 0.00 -1.14 -7.60 14.42 -1.82 1.85 1.37 1221
0.00 0.00 -1.28 -8.07 14.26 -1.63 1.69 1.42 1228
0.00 0.00 -1.64 -8.98 14.54 -1.47 1.46 1.46 1235
0.00 0.00 -1.68 -9.69 14.82 -1.31 1.28 1.46 1243
0.00 0.00 -1.49 -10.86 15.09 -1.20 1.17 1.44 1250
0.00 0.00 -8.74 -20.17 32.28 -0.65 1.19 1.67 1257
0.00 0.00 0.65 -6.32 5.92 -0.57 0.86 1.69 1264
0.00 0.00 -3.19 -12.75 7.76 -0.99 0.86 1.52 1271
0.00 0.00 -2.97 -18.83 16.77 -0.95 0.82 1.64 1278
0.00 0.00 -2.85 -13.86 5.59 -1.02 0.77 1.64 1286
0.00 0.00 -3.81 -16.47 5.41 -0.93 0.81 1.57 1293
0.00 0.00 -6.23 -16.33 10.00 -0.83 0.57 1.56 1300
0.00 0.00 -4.96 -20.77 12.30 -0.65 0.53 1.52 1307
0.00 0.00 -2.64 -18.15 6.54 -0.48 0.68 1.43 1314
0.00 0.00 -6.05 -19.45 10.28 -0.22 0.67 1.38 1321
0.00 0.00 -5.88 -19.31 4.32 -0.02 0.58 1.31 1329
0.00 0.00 -4.22 -16.14 2.03 0.06 0.50 1.20 1336
0.00 0.00 -6.99 -21.53 6.09 0.41 -0.00 1.11 1343
0.00 0.00 -7.13 -22.91 6.85 0.62 -0.43 1.11 1350
-0.00 0.01 -7.70 -24.28 0.78 1.06 -0.72 1.15 1357
-0.00 0.02 -8.89 -31.95 -0.10 1.58 -1.22 1.35 1364
-0.00 0.04 -8.93 -13.12 7.30 2.34 -1.61 1.59 1372
-0.02 0.15 -11.15 -2.43 9.52 3.09 -1.58 1.30 1379
-0.02 0.23 -14.58 -5.36 60.50 3.88 -2.90 0.46 1387
-0.03 0.33 -0.05 -0.18 14.61 0.06 -1.19 -0.01 1393
-0.03 0.43 -1.69 -0.53 10.10 -0.30 -0.22 -0.15 1401
-0.02 0.46 0.06 -0.86 9.46 -0.18 -0.23 -0.25 1408
-0.02 0.46 1.30 -2.61 10.12 -0.06 -0.14 -0.18 1416
-0.03 0.51 0.30 -0.82 10.21 -0.02 -0.02 0.01 1422
-0.00 0.47 -0.49 -0.78 10.25 -0.01 0.02 -0.02 1429
-0.02 0.46 0.10 -0.62 9.55 0.01 0.05 -0.06 1436
-0.01 0.46 0.48 -0.64 9.80 0.02 0.09 -0.04 1443
0.00 0.44 0.29 -0.99 9.82 0.02 0.09 -0.03 1451
-0.00 0.42 0.30 -0.90 9.80 0.01 0.08 -0.03 1458
-0.01 0.41 0.55 -0.93 9.81 -0.00 0.06 -0.04 1465
-0.01 0.38 0.51 -0.98 9.75 -0.01 0.05 -0.05 1472
-0.02 0.40 0.34 -0.82 9.79 -0.01 0.03 -0.07 1479
-0.01 0.40 0.33 -0.81 9.74 -0.02 0.03 -0.07 1486
0.02 0.39 0.36 -0.78 10.00 -0.01 0.03 -0.09 1494
0.03 0.41 0.29 -0.82 9.83 -0.01 0.04 -0.09 1501
0.01 0.41 0.23 -0.86 9.89 -0.01 0.05 -0.09 1508
0.01 0.41 0.28 -0.85 9.82 -0.00 0.06 -0.09 1515
0.04 0.38 0.29 -0.85 9.94 -0.00 0.06 -0.08 1522
0.04 0.35 0.22 -0.86 9.82 0.00 0.07 -0.08 1529
0.06 0.34 0.29 -0.87 9.81 0.01 0.06 -0.08 1537
0.07 0.28 0.49 -0.91 9.91 0.02 0.06 -0.08 1544
0.09 0.23 0.36 -0.80 9.77 0.03 0.06 -0.09 1551
0.11 0.24 0.41 -0.83 9.84 0.04 0.05 -0.09 1558
0.15 0.21 0.40 -0.83 9.82 0.04 0.04 -0.09 1565
0.18 0.17 0.36 -0.85 9.85 0.04 0.03 -0.09 1572
0.21 0.11 0.35 -0.88 9.82 0.04 0.03 -0.09 1580
0.25 0.05 0.32 -0.88 9.83 0.04 0.03 -0.10 1587
0.27 0.05 0.31 -0.89 9.83 0.04 0.03 -0.09 1594
0.27 0.04 0.34 -0.86 9.81 0.04 0.02 -0.09 1601
0.29 0.02 0.40 -0.86 9.82 0.04 0.02 -0.09 1608
0.32 0.02 0.34 -0.86 9.81 0.05 0.02 -0.09 1615
0.33 -0.02 0.33 -0.89 9.81 0.06 0.02 -0.10 1623
0.37 -0.03 0.31 -0.91 9.82 0.06 0.02 -0.10 1630
0.39 -0.02 0.31 -0.96 9.82 0.07 0.02 -0.10 1637
0.42 -0.01 0.27 -0.94 9.87 0.08 0.02 -0.09 1644
0.49 -0.02 0.30 -0.98 9.87 0.09 0.02 -0.09 1651
0.54 -0.02 0.30 -0.99 9.84 0.10 0.01 -0.10 1658
0.59 -0.03 0.36 -0.97 9.87 0.11 0.00 -0.09 1666
0.64 -0.03 0.38 -0.99 9.83 0.13 0.00 -0.10 1673
0.66 -0.03 0.34 -1.00 9.87 0.14 0.00 -0.10 1680
0.71 -0.03 0.34 -1.01 9.84 0.16 -0.01 -0.10 1687
0.73 -0.02 0.37 -1.04 9.84 0.18 -0.00 -0.11 1694
0.77 -0.03 0.40 -1.06 9.86 0.20 -0.00 -0.11 1701
0.82 -0.03 0.39 -1.10 9.82 0.22 -0.00 -0.12 1709
0.88 -0.05 0.31 -1.04 9.83 0.25 -0.01 -0.12 1716
0.85 -0.03 0.38 -1.10 9.86 0.27 -0.01 -0.13 1723
0.92 -0.03 0.32 -1.14 9.83 0.30 -0.01 -0.13 1730
0.98 -0.03 0.36 -1.16 9.81 0.31 -0.01 -0.14 1737
0.99 -0.04 0.30 -1.19 9.83 0.32 -0.01 -0.14 1744
1.01 -0.04 0.28 -1.21 9.81 0.33 -0.02 -0.13 1752
1.02 -0.05 0.31 -1.25 9.78 0.33 -0.02 -0.13 1759
1.03 -0.04 0.32 -1.25 9.82 0.33 -0.02 -0.14 1766
1.05 -0.04 0.34 -1.31 9.81 0.32 -0.03 -0.14 1773
1.08 -0.04 0.36 -1.32 9.80 0.32 -0.02 -0.15 1780
1.12 -0.04 0.34 -1.37 9.79 0.32 -0.02 -0.15 1787
1.10 -0.05 0.31 -1.41 9.79 0.32 -0.03 -0.16 1795
1.14 -0.05 0.27 -1.43 9.69 0.31 -0.02 -0.16 1802
1.16 -0.04 0.29 -1.40 9.76 0.31 -0.02 -0.16 1809
1.17 -0.04 0.32 -1.49 9.82 0.32 -0.02 -0.17 1816
1.18 -0.04 0.36 -1.48 9.84 0.33 -0.02 -0.17 1823
1.21 -0.04 0.29 -1.60 9.81 0.34 -0.02 -0.18 1830
1.21 -0.04 0.27 -1.55 9.82 0.36 -0.03 -0.19 1838
1.22 -0.04 0.18 -1.50 9.82 0.38 -0.03 -0.20 1845
1.21 -0.04 0.13 -1.61 9.83 0.39 -0.03 -0.19 1852
1.25 -0.04 0.11 -1.61 9.78 0.40 -0.03 -0.18 1859
1.31 -0.05 0.11 -1.68 9.84 0.41 -0.03 -0.17 1866
1.34 -0.05 0.09 -1.67 9.97 0.43 -0.04 -0.15 1873
1.36 -0.05 0.07 -1.66 9.94 0.46 -0.04 -0.14 1881
1.36 -0.04 0.13 -1.74 10.01 0.48 -0.03 -0.14 1889
1.36 -0.05 0.34 -1.90 10.05 0.53 -0.04 -0.14 1896
1.39 -0.04 0.16 -1.86 10.39 0.57 -0.05 -0.14 1903
1.48 -0.05 0.09 -1.23 10.45 0.63 -0.06 -0.14 1910
1.51 -0.06 0.10 -1.94 10.57 0.71 -0.07 -0.14 1917
1.55 -0.06 0.21 -2.02 10.76 0.78 -0.09 -0.14 1925
1.58 -0.06 0.09 -1.96 10.42 0.90 -0.12 -0.15 1932
1.62 -0.06 0.01 -2.09 10.68 1.03 -0.14 -0.15 1939
1.65 -0.05 0.46 -2.13 10.76 1.08 -0.16 -0.14 1946
1.66 -0.05 -0.09 -2.10 10.93 1.19 -0.18 -0.13 1953
1.67 -0.06 -0.01 -2.38 10.67 1.28 -0.20 -0.13 1960
1.70 -0.06 0.00 -2.44 10.87 1.37 -0.21 -0.12 1968
1.71 -0.06 -0.02 -2.53 10.96 1.47 -0.22 -0.12 1975
1.73 -0.05 0.13 -2.82 10.92 1.57 -0.23 -0.12 1982
1.73 -0.05 0.01 -2.85 10.59 1.69 -0.24 -0.13 1989
1.73 -0.05 -0.07 -2.61 10.79 1.80 -0.25 -0.14 1996
1.74 -0.05 -0.06 -2.96 11.15 1.94 -0.26 -0.14 2003
1.72 -0.07 -0.22 -2.74 11.03 2.10 -0.24 -0.14 2011
1.67 -0.06 -0.60 -3.26 11.30 2.26 -0.23 -0.14 2018
1.61 -0.05 0.39 -3.64 11.25 2.44 -0.23 -0.14 2025
1.51 -0.06 0.63 -3.86 11.55 2.65 -0.17 -0.17 2032
1.41 -0.05 0.05 -3.58 11.33 2.82 -0.11 -0.23 2039
1.24 -0.05 -0.74 -3.76 11.84 3.03 -0.03 -0.21 2046
1.11 -0.04 -0.39 -3.97 11.52 3.24 0.05 -0.19 2054
0.96 -0.04 -1.15 -4.17 11.71 3.50 0.13 -0.13 2061
0.81 -0.03 -1.08 -4.62 13.13 3.83 0.24 -0.07 2068
0.63 -0.03 -0.61 -5.41 13.59 4.05 0.28 -0.04 2075
0.44 -0.02 -1.26 -6.17 15.50 4.21 0.22 -0.02 2082
0.28 -0.03 -1.11 -7.83 15.81 4.26 0.17 0.02 2088
0.19 -0.01 -0.94 -8.86 17.66 4.27 0.15 0.07 2097
0.19 -0.01 -0.46 -9.70 15.77 4.27 0.19 0.13 2104
0.15 -0.01 -0.44 -10.44 18.76 4.26 0.31 0.17 2111
0.14 -0.01 -0.69 -10.65 17.87 4.22 0.36 0.18 2118
0.10 -0.01 -0.79 -10.38 17.48 4.13 0.32 0.17 2125
0.07 -0.01 -1.09 -9.34 16.72 3.96 0.24 0.14 2131
0.07 -0.01 -1.37 -7.58 17.35 3.72 -0.03 0.11 2139
0.04 -0.00 -1.29 -6.25 16.24 3.49 -0.33 0.09 2146
0.02 -0.00 -0.15 -4.75 14.82 3.31 -0.60 0.10 2153
0.04 -0.00 1.13 -2.87 15.41 3.21 -0.70 0.12 2160
0.01 -0.00 1.71 -2.69 18.51 3.26 -0.77 0.13 2167
0.01 -0.00 0.00 -0.96 18.57 3.38 -0.83 0.11 2174
0.00 0.00 0.03 5.01 15.17 3.14 -0.61 0.10 2182
0.00 -0.00 0.32 12.69 8.21 2.59 -0.40 -0.14 2189
0.00 -0.00 -0.21 17.90 -1.87 1.39 -0.34 -0.95 2196
0.00 -0.00 1.77 15.37 5.77 0.21 -0.85 -1.63 2203
0.00 0.00 0.58 9.57 14.43 -0.68 -0.53 -1.96 2210
0.00 0.00 1.07 5.69 13.52 -1.31 0.02 -2.42 2217
0.00 0.00 -0.11 6.08 10.63 -1.64 0.16 -2.78 2225
0.00 0.00 -0.36 6.86 7.50 -1.79 0.14 -3.07 2232
0.00 0.00 0.26 6.92 6.24 -1.89 0.11 -3.21 2239
0.00 0.00 1.26 6.55 6.09 -2.08 0.12 -3.29 2246
0.00 0.00 2.00 5.87 6.64 -2.25 0.16 -3.30 2253
0.00 0.00 2.13 5.35 7.54 -2.45 0.23 -3.22 2260
0.00 0.00 2.54 4.86 8.46 -2.66 0.30 -3.05 2268
0.00 0.00 2.43 4.51 8.79 -2.86 0.26 -2.82 2275
0.01 -0.00 2.33 4.12 8.77 -3.12 0.16 -2.59 2282
0.00 -0.00 2.34 3.52 8.89 -3.35 -0.03 -2.29 2289
0.00 0.00 2.53 2.67 9.25 -3.58 -0.15 -2.02 2296
0.00 0.00 3.20 1.33 9.47 -3.76 -0.23 -1.70 2304
0.00 0.00 3.97 0.13 9.79 -3.88 -0.21 -1.39 2311
-0.00 0.00 4.83 -0.55 9.93 -3.98 -0.11 -1.14 2318
0.01 -0.00 5.24 -1.26 10.04 -4.07 0.06 -0.89 2325
0.00 0.00 5.54 -1.84 10.19 -4.07 0.28 -0.69 2332
0.00 0.00 5.85 -2.47 10.58 -4.09 0.61 -0.48 2339
0.00 0.00 6.00 -3.28 11.28 -4.09 0.96 -0.29 2347
0.00 0.00 5.68 -4.21 11.76 -4.08 1.20 -0.15 2354
0.00 0.00 5.11 -5.13 12.30 -4.05 1.46 0.03 2361
0.00 0.00 4.59 -5.81 13.12 -3.98 1.62 0.22 2368
0.00 0.00 3.80 -6.63 13.63 -3.87 1.71 0.37 2375
0.00 0.00 3.03 -7.52 14.23 -3.74 1.75 0.54 2382
0.00 0.00 2.55 -8.00 14.40 -3.59 1.74 0.66 2390
0.00 0.00 2.09 -8.72 14.63 -3.44 1.71 0.78 2397
0.00 -0.00 1.71 -9.10 14.56 -3.27 1.66 0.87 2404
0.00 0.00 1.64 -9.28 14.26 -3.09 1.62 0.93 2411
0.00 0.00 1.56 -9.20 13.77 -2.94 1.57 0.97 2418
0.00 0.00 1.67 -9.16 13.41 -2.77 1.52 1.00 2425
0.00 0.00 1.71 -8.94 13.17 -2.58 1.45 1.02 2433
0.00 0.00 1.76 -8.75 13.14 -2.42 1.40 1.05 2440
0.00 0.00 1.90 -8.56 13.17 -2.22 1.39 1.06 2447
0.00 0.00 2.11 -8.17 13.28 -2.06 1.41 1.08 2454
0.00 0.00 2.25 -7.79 13.58 -1.91 1.45 1.09 2461
0.00 0.00 2.42 -7.38 13.77 -1.82 1.57 1.09 2468
0.00 0.00 2.23 -7.19 13.82 -1.77 1.68 1.08 2476
0.00 0.00 1.78 -7.31 13.81 -1.72 1.81 1.06 2483
0.00 0.00 1.20 -7.67 13.37 -1.61 1.91 1.03 2490
0.00 0.00 0.75 -8.11 12.75 -1.53 1.96 0.99 2497
0.00 0.00 0.22 -8.50 12.23 -1.36 1.99 0.92 2504
0.00 0.00 -0.37 -8.71 11.90 -1.19 1.98 0.84 2511
0.00 0.00 -0.74 -8.88 11.69 -0.97 1.95 0.78 2519
0.00 0.00 -1.01 -9.05 11.79 -0.77 1.89 0.71 2526
0.00 0.00 -1.22 -9.15 12.22 -0.62 1.81 0.66 2533
0.00 0.00 -1.55 -9.30 12.32 -0.50 1.68 0.63 2540
0.00 0.00 -1.91 -9.53 12.70 -0.45 1.54 0.64 2547
0.00 0.00 -1.90 -9.88 12.72 -0.45 1.44 0.65 2554
0.00 0.00 -1.48 -10.25 12.54 -0.50 1.39 0.65 2562
0.00 0.00 -1.15 -10.49 12.28 -0.58 1.44 0.66 2569
0.00 0.00 -2.18 -11.04 11.94 -0.69 1.59 0.69 2576
0.00 0.00 -2.33 -10.82 10.82 -0.81 1.79 0.77 2583
0.00 0.00 -4.93 -12.63 11.94 -0.90 1.86 0.89 2590
0.00 0.00 -7.81 -14.71 8.57 -0.79 1.59 1.04 2597
0.00 0.00 -9.12 -14.50 4.28 -0.68 1.03 1.15 2605
0.00 0.00 -7.99 -13.71 5.32 -0.43 0.32 1.24 2612
0.00 0.00 -5.45 -15.14 1.64 -0.53 -0.13 1.24 2619
0.00 0.00 -8.73 -17.77 9.75 -0.09 -0.72 1.25 2626
0.00 0.00 -4.66 -16.01 3.98 0.11 -0.69 1.19 2633
0.00 0.00 -8.02 -20.13 5.68 0.20 -0.65 1.03 2640
0.00 0.00 -4.50 -17.49 5.82 0.74 -0.72 1.04 2648
0.00 0.00 -9.22 -18.25 6.28 0.95 -1.12 0.98 2655
0.00 0.00 -11.71 -19.30 6.24 1.14 -1.68 1.01 2662
0.00 0.00 -12.26 -19.91 6.21 1.46 -2.47 1.23 2669
-0.00 0.02 -4.84 -3.88 11.86 1.90 -2.17 1.63 2676
-0.01 0.12 -7.94 -0.51 10.39 2.10 -1.58 1.58 2683
-0.02 0.26 -11.09 -0.25 16.53 2.29 -1.59 1.17 2692
-0.01 0.36 -10.47 -3.75 32.04 2.40 -1.95 0.25 2699
-0.02 0.42 -2.87 -1.92 15.45 0.41 -1.58 -0.30 2706
-0.03 0.38 -0.67 -2.19 11.22 -0.12 -0.29 -0.19 2713
-0.04 0.42 0.08 -1.63 9.96 -0.17 -0.15 -0.18 2719
-0.03 0.41 1.29 -1.30 9.78 -0.06 -0.15 -0.12 2726
-0.02 0.43 0.54 -0.74 10.18 -0.01 -0.09 0.01 2734
-0.02 0.44 0.00 -0.76 9.93 0.03 -0.02 0.03 2741
0.01 0.40 -0.20 -1.04 9.83 0.02 0.04 0.00 2748
0.04 0.38 0.17 -0.97 9.78 0.01 0.06 0.00 2755
0.04 0.39 0.35 -0.81 9.88 0.02 0.07 0.00 2762
0.05 0.37 0.37 -0.79 9.77 0.02 0.07 -0.01 2769
0.06 0.35 0.31 -0.97 9.80 0.00 0.06 -0.02 2777
0.07 0.35 0.48 -1.01 9.74 -0.01 0.04 -0.04 2784
0.06 0.36 0.43 -0.93 9.75 -0.02 0.03 -0.05 2791
0.06 0.36 0.37 -0.85 9.83 -0.02 0.02 -0.07 2798
0.04 0.37 0.45 -0.85 10.08 -0.01 0.03 -0.08 2805
0.03 0.36 0.13 -0.74 9.89 -0.01 0.04 -0.07 2812
0.03 0.38 0.14 -0.84 9.85 -0.01 0.05 -0.07 2820
0.04 0.37 0.22 -0.84 9.81 -0.00 0.06 -0.07 2827
0.04 0.37 -0.40 -1.11 9.78 0.00 0.06 -0.06 2834
0.04 0.35 0.17 -0.89 9.90 0.00 0.08 -0.06 2841
0.05 0.33 0.24 -0.87 9.84 0.01 0.08 -0.06 2848
0.07 0.32 0.28 -0.87 9.83 0.01 0.07 -0.06 2855
0.08 0.29 0.35 -0.87 9.80 0.02 0.08 -0.07 2863
0.10 0.25 0.35 -0.88 9.81 0.03 0.07 -0.07 2870
0.10 0.24 0.35 -0.90 9.82 0.02 0.07 -0.07 2877
0.10 0.17 0.34 -0.87 9.76 0.03 0.06 -0.07 2884
0.12 0.19 0.32 -0.84 9.85 0.03 0.06 -0.08 2891
0.13 0.15 0.32 -0.86 9.83 0.04 0.05 -0.08 2898
0.15 0.09 0.32 -0.85 9.82 0.04 0.05 -0.08 2906
0.21 0.09 0.27 -0.87 9.79 0.04 0.05 -0.08 2913
0.19 0.03 0.32 -0.88 9.81 0.04 0.05 -0.07 2920
0.19 0.01 0.32 -0.92 9.20 0.04 0.05 -0.08 2927
0.18 0.04 0.32 -0.90 9.82 0.04 0.05 -0.08 2934
0.21 0.05 0.31 -0.90 9.83 0.04 0.05 -0.08 2941
0.21 -0.00 0.37 -0.92 9.82 0.04 0.05 -0.08 2949
0.23 -0.01 0.39 -0.89 9.84 0.05 0.05 -0.09 2956
0.25 -0.02 0.32 -0.91 9.81 0.05 0.06 -0.09 2963
0.25 -0.01 0.39 -0.95 9.82 0.06 0.06 -0.09 2970
0.30 -0.02 0.30 -0.94 9.79 0.07 0.07 -0.09 2977
0.32 -0.01 0.31 -0.94 9.82 0.07 0.07 -0.09 2984
0.36 -0.02 0.31 -0.88 9.83 0.08 0.08 -0.09 2992
0.38 -0.02 0.36 -0.92 9.86 0.09 0.09 -0.09 2999
0.40 -0.02 0.36 -0.96 9.83 0.11 0.10 -0.09 3006
0.42 -0.02 0.33 -1.01 9.89 0.13 0.10 -0.10 3013
0.41 -0.02 0.45 -1.00 9.86 0.15 0.10 -0.10 3020
0.45 -0.02 0.42 -1.03 9.90 0.20 0.11 -0.10 3027
0.50 -0.03 0.39 -1.02 9.83 0.20 0.11 -0.10 3035
0.51 -0.03 0.44 -1.08 9.88 0.23 0.11 -0.11 3042
0.54 -0.03 0.40 -1.08 9.85 0.27 0.11 -0.12 3049
0.61 -0.03 0.43 -1.10 9.86 0.31 0.11 -0.13 3056
0.64 -0.02 0.44 -1.14 9.83 0.34 0.12 -0.13 3063
0.66 -0.03 0.40 -1.18 9.87 0.36 0.12 -0.13 3070
0.65 -0.03 0.37 -1.20 9.86 0.39 0.10 -0.13 3078
0.67 -0.03 0.45 -1.25 9.86 0.42 0.10 -0.13 3085
0.69 -0.03 0.43 -1.29 10.40 0.43 0.09 -0.14 3092
0.68 -0.02 0.50 -1.33 9.83 0.43 0.07 -0.15 3099
0.69 -0.02 0.50 -1.33 9.83 0.45 0.05 -0.15 3106
0.73 -0.03 0.49 -1.40 9.84 0.45 0.04 -0.16 3113
0.77 -0.03 0.40 -1.44 9.84 0.45 0.02 -0.16 3121
0.79 -0.04 0.44 -1.48 9.80 0.44 0.01 -0.17 3128
0.80 -0.04 0.42 -1.55 9.85 0.43 0.00 -0.17 3135
0.84 -0.03 0.39 -1.50 9.80 0.43 -0.01 -0.16 3142
0.86 -0.03 0.34 -1.57 9.87 0.43 -0.01 -0.17 3149
0.90 -0.04 0.34 -1.61 9.96 0.44 -0.03 -0.17 3156
0.91 -0.04 0.44 -1.63 9.81 0.45 -0.03 -0.17 3164
0.93 -0.04 0.37 -1.70 9.78 0.46 -0.04 -0.17 3171
0.97 -0.03 0.32 -1.73 9.83 0.46 -0.05 -0.17 3178
0.99 -0.04 0.30 -1.80 9.20 0.47 -0.05 -0.16 3185
1.02 -0.04 0.26 -1.90 9.80 0.47 -0.06 -0.16 3192
1.07 -0.04 0.35 -1.85 9.90 0.49 -0.07 -0.15 3200
1.12 -0.04 0.21 -1.73 10.10 0.53 -0.07 -0.14 3208
1.16 -0.05 0.31 -1.91 10.22 0.56 -0.08 -0.14 3215
1.15 -0.05 0.36 -2.01 10.30 0.61 -0.08 -0.14 3222
1.19 -0.05 0.24 -1.97 10.53 0.70 -0.09 -0.13 3229
1.27 -0.04 0.32 -2.07 10.81 0.78 -0.10 -0.14 3236
1.31 -0.05 0.36 -2.22 11.04 0.89 -0.10 -0.14 3244
1.34 -0.05 0.44 -2.20 10.71 0.99 -0.11 -0.15 3251
1.39 -0.05 0.18 -2.15 11.07 1.11 -0.10 -0.16 3258
1.42 -0.04 0.06 -2.24 11.05 1.23 -0.11 -0.16 3265
1.47 -0.04 0.06 -2.52 11.03 1.34 -0.10 -0.17 3272
1.51 -0.05 0.34 -2.66 10.72 1.45 -0.10 -0.18 3279
1.52 -0.06 0.17 -2.68 10.71 1.54 -0.10 -0.17 3287
1.52 -0.06 0.19 -2.73 10.85 1.65 -0.09 -0.18 3294
1.51 -0.06 0.11 -2.72 10.92 1.77 -0.08 -0.18 3301
1.49 -0.06 0.17 -3.07 10.86 1.89 -0.07 -0.18 3308
1.47 -0.04 0.07 -3.35 11.13 2.04 -0.05 -0.18 3315
1.46 -0.05 0.00 -3.09 11.56 2.22 -0.03 -0.17 3322
1.37 -0.05 0.44 -3.29 11.91 2.42 0.01 -0.17 3330
1.29 -0.06 0.59 -3.81 11.91 2.65 0.05 -0.19 3337
1.19 -0.05 0.11 -3.82 11.91 2.85 0.12 -0.23 3344
1.09 -0.04 -0.23 -3.65 11.68 3.12 0.22 -0.22 3351
0.95 -0.04 -0.84 -3.51 12.73 3.37 0.29 -0.16 3358
0.85 -0.03 -0.50 -4.34 13.66 3.67 0.44 -0.08 3365
0.61 -0.03 -0.33 -5.12 14.49 4.02 0.52 -0.04 3373
0.39 -0.03 -0.33 -5.59 16.09 4.20 0.55 -0.01 3379
0.22 -0.02 -0.14 -6.77 16.36 4.28 0.57 0.02 3386
0.16 -0.02 -0.82 -7.98 15.75 4.28 0.59 0.11 3393
0.16 -0.02 -0.35 -9.47 19.91 4.28 0.66 0.22 3400
0.15 -0.01 1.21 -10.68 20.09 4.28 0.92 0.30 3407
0.10 -0.01 1.87 -10.63 18.62 4.28 1.25 0.33 3416
0.07 -0.01 1.85 -10.47 17.64 4.27 1.46 0.33 3423
0.02 -0.00 1.81 -9.21 17.43 4.21 1.58 0.31 3429
0.06 -0.00 1.70 -8.12 17.27 4.12 1.69 0.26 3437
0.06 -0.01 1.27 -7.16 17.30 3.93 1.71 0.16 3443
0.08 -0.01 0.84 -5.07 16.59 3.75 1.66 0.02 3450
0.03 -0.00 0.31 -2.73 16.65 3.66 1.55 -0.13 3458
0.03 -0.00 -0.07 -1.24 15.51 3.60 1.40 -0.19 3465
0.01 -0.00 0.10 -0.27 15.81 3.57 1.14 -0.31 3472
0.01 0.00 -1.08 2.05 14.51 3.46 0.92 -0.38 3479
0.02 -0.00 -1.07 7.18 7.36 3.06 0.67 -0.50 3486
0.00 -0.00 -2.73 15.29 5.51 2.56 0.28 -0.82 3493
0.00 -0.00 -0.71 14.79 0.33 1.48 -0.37 -1.35 3501
0.00 -0.00 -1.15 13.02 8.39 0.08 -1.39 -1.67 3508
0.01 -0.00 -0.21 9.52 13.29 -1.16 -1.32 -1.89 3515
0.01 -0.00 1.57 6.39 11.68 -1.75 -1.02 -2.24 3522
0.01 -0.00 1.51 5.25 9.41 -1.94 -0.73 -2.53 3529
0.00 0.00 0.98 4.90 7.39 -2.03 -0.36 -2.71 3536
0.00 0.00 0.96 4.94 6.47 -2.05 -0.04 -2.88 3544
0.00 0.00 1.03 4.85 6.06 -2.11 0.12 -3.00 3551
0.00 0.00 0.80 4.86 6.02 -2.21 0.18 -3.09 3558
0.00 0.00 0.39 4.74 6.44 -2.33 0.15 -3.12 3565
0.00 0.00 0.29 4.44 6.81 -2.50 0.06 -3.08 3572
0.00 0.00 0.71 4.18 7.43 -2.67 -0.08 -2.98 3579
0.00 0.00 0.80 3.92 7.69 -2.89 -0.24 -2.84 3587
0.00 0.00 1.32 3.81 9.21 -3.16 -0.40 -2.72 3594
0.00 0.00 2.00 3.37 9.85 -3.41 -0.42 -2.54 3601
0.00 -0.00 3.02 2.85 10.48 -3.71 -0.31 -2.36 3608
0.00 0.00 3.97 2.00 10.55 -4.01 -0.07 -2.14 3615
0.00 0.00 4.49 1.22 10.48 -4.19 0.18 -1.92 3622
0.00 0.00 4.45 0.23 10.12 -4.27 0.49 -1.77 3630
0.00 0.00 4.10 -0.75 9.45 -4.28 0.78 -1.60 3637
0.00 0.00 3.82 -1.71 9.37 -4.28 0.96 -1.46 3644
0.00 -0.00 3.64 -2.95 9.67 -4.28 1.06 -1.32 3651
0.00 0.00 3.50 -4.32 10.53 -4.26 1.11 -1.19 3658
0.00 0.00 3.42 -5.62 11.45 -4.14 1.14 -1.07 3665
0.00 0.00 3.66 -6.75 12.49 -3.87 1.18 -0.92 3673
0.00 0.00 3.92 -6.72 13.22 -3.57 1.27 -0.78 3680
0.00 0.00 4.55 -6.01 12.86 -3.42 1.46 -0.59 3687
0.00 0.00 4.53 -5.64 13.51 -3.40 1.67 -0.36 3694
0.00 0.00 4.24 -5.79 14.58 -3.40 1.93 -0.11 3701
0.00 0.00 3.55 -6.22 15.49 -3.39 2.10 0.21 3708
0.00 0.00 2.87 -6.44 15.98 -3.33 2.14 0.54 3716
0.00 0.00 2.14 -6.71 16.11 -3.27 2.07 0.85 3723
-0.00 0.00 1.87 -7.13 15.94 -3.22 1.88 1.13 3730
0.00 0.00 1.88 -7.45 15.70 -3.17 1.68 1.30 3737
0.00 0.00 2.19 -7.64 15.33 -3.07 1.52 1.42 3744
0.00 0.00 2.43 -7.83 14.82 -3.00 1.48 1.46 3751
0.00 0.00 2.43 -7.96 14.33 -2.83 1.55 1.45 3759
0.00 0.00 2.26 -8.29 13.80 -2.64 1.65 1.41 3766
0.00 0.00 2.09 -8.69 13.80 -2.38 1.74 1.34 3773
0.00 0.00 1.73 -9.31 13.80 -2.10 1.83 1.23 3780
0.00 0.00 1.27 -9.85 13.59 -1.85 1.88 1.14 3787
0.00 0.00 0.61 -10.40 13.11 -1.57 1.87 1.07 3794
0.00 0.00 0.06 -10.91 12.64 -1.30 1.78 1.00 3802
0.00 0.00 -0.09 -11.13 13.08 -0.99 1.67 0.95 3809
0.00 0.00 -0.18 -11.09 13.86 -0.74 1.57 0.91 3816
0.00 0.00 -1.19 -11.62 15.01 -0.64 1.52 0.89 3823
0.00 0.00 -5.36 -15.09 21.32 -0.39 1.22 0.96 3830
0.00 0.00 -1.95 -8.66 11.95 -0.47 0.96 0.99 3837
0.00 0.00 -1.77 -10.04 11.56 -0.89 1.03 0.98 3845
0.00 0.00 -5.76 -14.67 15.59 -1.00 1.02 1.11 3852
0.00 -0.00 -3.72 -11.36 9.75 -1.02 1.02 1.19 3859
0.00 0.00 -5.09 -13.66 7.85 -1.06 1.02 1.18 3866
0.00 0.00 -5.21 -15.48 6.83 -0.96 0.84 1.20 3873
0.00 0.00 -5.46 -15.36 7.60 -0.69 0.60 1.19 3880
0.00 0.00 -3.53 -16.10 6.71 -0.49 0.44 1.13 3888
0.00 0.00 -4.45 -16.51 6.35 -0.28 0.32 1.12 3895
0.00 0.00 -3.66 -15.57 7.25 -0.07 0.20 1.11 3902
0.00 0.00 -5.87 -16.67 8.50 0.09 0.06 1.11 3909
0.00 0.00 -4.39 -17.03 4.20 0.27 0.03 1.17 3916
0.00 0.00 -6.18 -17.97 4.82 0.52 -0.16 1.25 3923
0.00 0.00 -6.40 -17.99 4.02 0.80 -0.38 1.38 3931
-0.00 0.00 -7.92 -20.12 5.49 1.17 -0.86 1.54 3938
-0.00 0.00 -9.58 -21.31 5.31 1.53 -1.51 1.82 3945
-0.00 0.01 -9.17 -15.10 8.89 1.96 -1.73 2.31 3952
-0.00 0.02 -5.48 -1.48 10.42 2.33 -1.42 2.44 3959
-0.01 0.11 -12.30 -3.89 15.29 2.53 -1.48 2.18 3968
-0.02 0.21 -15.08 -1.54 23.20 2.65 -1.67 1.43 3975
-0.02 0.27 -12.42 -3.91 28.42 1.33 -2.16 0.39 3982
-0.02 0.32 -2.55 -2.66 11.18 -0.03 -0.35 -0.22 3989
-0.02 0.34 -1.70 -2.56 10.39 -0.19 -0.14 -0.31 3996
-0.02 0.32 1.35 -1.60 9.81 -0.14 -0.15 -0.27 4002
-0.03 0.35 1.65 -1.41 10.04 -0.04 -0.09 -0.08 4011
-0.03 0.37 0.69 -0.66 9.85 0.02 -0.00 0.04 4017
-0.01 0.36 -0.23 -0.83 9.93 0.00 0.02 0.03 4024
-0.02 0.35 -0.04 -0.98 9.91 0.01 0.03 -0.01 4031
-0.01 0.32 0.65 -0.93 9.78 0.01 0.04 0.00 4038
0.00 0.31 0.50 -0.86 9.82 0.02 0.04 0.00 4045
0.01 0.29 0.40 -0.76 9.81 0.02 0.03 -0.02 4052
0.00 0.30 0.39 -0.87 9.80 0.01 0.02 -0.04 4060
0.02 0.28 0.51 -0.85 9.85 0.00 0.01 -0.05 4067
0.01 0.28 0.08 -0.74 9.38 -0.00 -0.00 -0.07 4074
0.02 0.27 0.34 -0.81 9.73 -0.01 -0.00 -0.08 4081
0.02 0.27 0.26 -0.84 9.82 -0.01 0.01 -0.09 4088
0.04 0.28 0.21 -0.83 9.83 -0.02 0.01 -0.08 4096
0.05 0.28 0.23 -0.88 9.81 -0.01 0.02 -0.08 4103
0.09 0.29 0.24 -0.84 9.78 -0.01 0.04 -0.07 4110
0.07 0.25 0.24 -0.77 9.84 -0.00 0.04 -0.06 4117
0.09 0.22 0.30 -0.80 9.84 0.00 0.05 -0.06 4124
0.07 0.21 0.33 -0.83 9.84 0.01 0.05 -0.06 4131
0.07 0.23 0.34 -0.83 9.85 0.02 0.06 -0.07 4139
0.09 0.21 0.38 -0.82 9.85 0.02 0.05 -0.07 4146
0.11 0.17 0.34 -0.84 9.81 0.03 0.05 -0.07 4153
0.10 0.12 0.36 -0.83 9.85 0.03 0.05 -0.08 4160
0.12 0.06 0.39 -0.84 9.82 0.03 0.05 -0.08 4167
0.15 0.06 0.35 -0.83 9.82 0.04 0.05 -0.08 4174
0.16 0.03 0.38 -0.87 9.83 0.04 0.05 -0.08 4182
0.19 0.02 0.32 -0.86 9.82 0.05 0.05 -0.08 4189
0.25 -0.01 0.33 -0.85 9.80 0.04 0.05 -0.07 4196
0.28 0.01 0.35 -0.90 9.84 0.06 0.05 -0.08 4203
0.29 -0.01 0.38 -0.85 9.84 0.06 0.06 -0.08 4210
0.32 0.00 0.33 -0.88 9.83 0.06 0.06 -0.08 4217
0.32 -0.00 0.34 -0.83 9.85 0.07 0.06 -0.08 4225
0.38 -0.03 0.32 -0.87 9.86 0.08 0.08 -0.09 4232
0.38 -0.03 0.33 -0.88 9.86 0.10 0.08 -0.08 4239
0.38 -0.01 0.35 -0.84 9.91 0.12 0.10 -0.09 4246
0.38 -0.03 0.35 -0.92 9.83 0.14 0.11 -0.09 4253
0.39 -0.02 0.38 -0.90 9.89 0.16 0.13 -0.09 4260
0.44 -0.02 0.34 -0.93 9.88 0.19 0.14 -0.10 4268
0.48 -0.02 0.37 -0.95 9.91 0.21 0.16 -0.10 4275
0.52 -0.03 0.42 -1.03 9.95 0.24 0.18 -0.10 4282
0.55 -0.03 0.37 -1.03 9.87 0.28 0.20 -0.07 4289
0.56 -0.03 0.48 -1.07 9.89 0.32 0.22 -0.10 4296
0.57 -0.03 0.39 -1.06 9.88 0.36 0.24 -0.10 4303
0.60 -0.02 0.51 -1.09 9.92 0.41 0.26 -0.09 4311
0.63 -0.03 0.46 -1.15 9.81 0.44 0.26 -0.09 4318
0.63 -0.03 0.46 -1.16 9.78 0.46 0.25 -0.10 4325
0.64 -0.04 0.51 -1.26 9.82 0.46 0.24 -0.10 4332
0.63 -0.03 0.49 -1.27 9.71 0.46 0.22 -0.11 4339
0.65 -0.03 0.52 -1.29 9.75 0.44 0.21 -0.11 4346
0.65 -0.02 0.54 -1.31 9.72 0.43 0.19 -0.11 4354
0.66 -0.03 0.58 -1.39 9.81 0.43 0.17 -0.11 4361
0.65 -0.03 0.60 -1.40 9.79 0.41 0.15 -0.11 4368
0.66 -0.04 0.61 -1.45 9.82 0.40 0.14 -0.12 4375
0.69 -0.03 0.56 -1.48 9.94 0.40 0.12 -0.12 4382
0.70 -0.03 0.64 -1.52 9.89 0.41 0.10 -0.13 4389
0.74 -0.03 0.72 -1.51 9.93 0.42 0.08 -0.14 4397
0.75 -0.03 0.68 -1.63 9.80 0.43 0.06 -0.15 4404
0.75 -0.04 0.68 -1.65 9.73 0.42 0.04 -0.16 4411
0.76 -0.04 0.65 -1.64 9.80 0.42 0.03 -0.17 4418
0.76 -0.03 0.67 -1.71 9.83 0.41 0.02 -0.18 4425
0.80 -0.03 0.67 -1.73 9.78 0.42 0.00 -0.18 4432
0.82 -0.04 0.63 -1.72 9.82 0.43 -0.01 -0.19 4440
0.83 -0.04 0.65 -1.84 9.89 0.44 -0.04 -0.19 4447
0.86 -0.03 0.63 -1.85 9.87 0.45 -0.04 -0.19 4454
0.87 -0.04 0.52 -1.90 9.82 0.45 -0.05 -0.19 4461
0.89 -0.04 0.50 -1.93 9.84 0.47 -0.05 -0.18 4468
0.93 -0.03 0.49 -1.95 9.75 0.48 -0.05 -0.18 4475
0.96 -0.04 0.43 -1.95 9.95 0.51 -0.05 -0.18 4483
0.98 -0.03 0.46 -2.00 10.04 0.54 -0.04 -0.17 4490
1.03 -0.04 0.55 -2.11 10.02 0.59 -0.04 -0.16 4498
1.02 -0.04 0.51 -2.05 10.09 0.64 -0.03 -0.16 4504
1.09 -0.04 0.40 -2.25 10.28 0.70 -0.02 -0.16 4511
1.12 -0.02 0.47 -2.30 10.24 0.77 -0.01 -0.15 4519
1.15 -0.04 0.55 -2.28 10.05 0.84 -0.00 -0.14 4526
1.19 -0.05 0.55 -2.31 10.42 0.92 0.01 -0.14 4534
1.22 -0.05 0.37 -2.40 10.53 1.03 0.02 -0.15 4540
1.22 -0.04 0.43 -3.04 10.62 1.10 0.02 -0.15 4548
1.25 -0.05 0.67 -2.63 10.67 1.19 0.01 -0.15 4555
1.29 -0.04 0.51 -2.67 10.79 1.29 -0.00 -0.15 4562
1.32 -0.05 0.52 -2.95 10.67 1.41 -0.01 -0.16 4570
1.35 -0.05 0.50 -3.01 10.74 1.52 -0.03 -0.15 4577
1.33 -0.06 0.48 -2.82 10.69 1.62 -0.04 -0.16 4584
1.36 -0.04 0.55 -3.26 10.69 1.75 -0.05 -0.16 4591
1.37 -0.05 0.51 -3.19 10.27 1.86 -0.04 -0.16 4598
1.33 -0.04 0.20 -3.14 10.71 1.99 -0.01 -0.16 4605
1.30 -0.05 -0.00 -3.18 10.94 2.14 0.01 -0.14 4613
1.25 -0.05 0.57 -3.52 11.32 2.31 0.05 -0.12 4620
1.20 -0.05 0.32 -3.72 11.83 2.51 0.11 -0.12 4627
1.09 -0.04 1.34 -4.32 10.20 2.70 0.14 -0.14 4634
1.01 -0.04 0.54 -3.98 11.12 2.92 0.26 -0.15 4641
0.93 -0.03 -0.38 -4.33 11.15 3.19 0.41 -0.13 4648
0.78 -0.03 -0.31 -4.69 12.59 3.44 0.57 -0.07 4656
0.55 -0.03 -0.58 -5.07 13.42 3.72 0.65 -0.01 4663
0.37 -0.02 0.05 -5.94 14.52 3.98 0.76 0.07 4669
0.22 -0.02 -0.74 -7.33 14.07 4.16 0.81 0.15 4677
0.19 -0.01 -0.51 -7.94 17.56 4.24 0.76 0.24 4684
0.20 -0.02 0.15 -9.08 19.30 4.25 0.70 0.33 4690
0.16 -0.02 0.42 -9.88 17.46 4.26 0.76 0.40 4698
0.11 -0.01 1.39 -10.18 18.40 4.24 0.85 0.46 4706
0.08 -0.01 1.73 -10.16 18.23 4.19 0.91 0.46 4713
0.05 -0.01 1.92 -9.30 17.42 4.08 0.96 0.45 4719
0.01 -0.00 1.80 -8.61 17.38 3.91 1.05 0.41 4726
0.01 -0.00 1.25 -9.22 16.92 3.67 1.14 0.34 4733
0.01 -0.00 0.86 -7.19 16.29 3.51 1.10 0.25 4741
0.02 -0.00 0.61 -4.13 15.89 3.38 1.02 0.15 4748
0.00 0.00 1.14 -1.72 16.88 3.22 0.96 0.12 4755
0.01 -0.00 -0.01 -0.16 19.32 3.10 0.92 0.05 4762
0.01 -0.00 -1.52 1.62 17.39 2.98 0.69 -0.11 4769
0.02 -0.00 -3.37 13.70 12.36 2.64 0.61 -0.37 4777
0.00 0.00 -4.37 16.54 4.22 1.99 0.31 -1.16 4784
0.00 0.00 -3.07 14.07 5.19 0.66 -0.64 -1.75 4791
0.00 0.00 -2.54 13.88 9.82 -0.80 -0.75 -2.30 4798
0.01 -0.00 -0.23 9.72 11.80 -1.66 -0.53 -2.87 4805
0.01 -0.00 -0.23 7.02 10.68 -1.95 -0.37 -3.24 4812
0.00 -0.00 -1.72 6.16 8.61 -2.03 -0.17 -3.64 4819
0.00 -0.00 -1.64 6.17 7.70 -2.04 -0.05 -3.88 4827
0.00 0.00 -1.66 5.83 7.21 -2.05 -0.12 -4.06 4834
0.00 0.00 -1.35 5.75 7.09 -2.17 -0.27 -4.18 4841
0.00 -0.00 -0.70 5.58 7.42 -2.36 -0.48 -4.23 4848
0.00 0.00 0.07 5.27 8.24 -2.57 -0.65 -4.16 4855
0.00 0.00 0.84 4.99 8.30 -2.85 -0.73 -4.02 4862
0.00 0.00 1.62 4.32 8.53 -3.15 -0.71 -3.82 4870
0.00 0.00 2.21 4.24 9.18 -3.44 -0.73 -3.60 4877
0.00 0.00 2.64 3.57 9.84 -3.71 -0.73 -3.39 4884
0.00 0.00 3.32 2.26 10.39 -3.91 -0.62 -3.08 4891
0.00 -0.00 4.16 0.94 10.35 -4.10 -0.44 -2.80 4898
0.00 0.00 5.33 -0.08 10.03 -4.18 -0.17 -2.48 4905
0.00 0.00 5.58 -0.91 8.68 -4.19 0.08 -2.21 4913
0.00 0.00 6.15 -2.04 7.86 -4.14 0.40 -2.00 4920
0.00 0.00 6.45 -3.85 8.00 -3.97 0.66 -1.78 4927
0.00 0.00 6.18 -5.34 8.92 -3.62 0.84 -1.59 4934
0.00 0.00 5.72 -6.71 9.82 -3.22 1.03 -1.29 4941
0.00 0.00 5.21 -6.66 10.78 -2.94 1.18 -0.89 4948
0.00 0.00 4.85 -5.72 11.23 -2.73 1.29 -0.48 4956
0.00 0.00 4.44 -5.24 12.92 -2.67 1.31 0.01 4963
0.00 0.00 4.78 -5.14 14.44 -2.70 1.33 0.51 4970
0.00 0.00 5.32 -5.25 15.66 -2.82 1.39 0.92 4977
0.00 0.00 5.56 -5.29 16.27 -2.97 1.46 1.33 4984
0.00 0.00 5.57 -5.23 16.69 -3.18 1.53 1.63 4992
0.00 0.00 5.23 -5.24 16.92 -3.37 1.60 1.92 4999
0.00 0.00 4.72 -5.60 16.16 -3.51 1.67 2.13 5006
0.00 0.00 3.88 -6.46 14.89 -3.58 1.72 2.25 5013
0.00 0.00 3.44 -7.61 14.25 -3.51 1.74 2.32 5020
0.00 0.00 3.02 -8.24 14.17 -3.30 1.75 2.32 5027
0.00 0.00 2.83 -8.98 13.53 -3.02 1.79 2.25 5035
0.00 0.00 3.15 -9.35 12.75 -2.77 1.86 2.10 5042
0.00 0.00 2.68 -9.75 13.04 -2.44 1.90 1.94 5049
0.00 0.00 1.95 -9.86 14.07 -2.17 1.92 1.75 5056
0.00 0.00 2.31 -9.99 13.76 -1.88 1.95 1.59 5063
0.00 0.00 2.74 -10.41 12.33 -1.59 2.00 1.40 5070
0.00 0.00 2.62 -11.04 11.07 -1.28 2.04 1.24 5078
0.00 0.00 2.48 -11.44 11.42 -0.84 2.06 1.10 5085
0.00 0.00 2.59 -11.34 13.38 -0.44 2.09 0.93 5092
-0.00 0.00 1.95 -10.71 14.80 -0.30 2.05 0.78 5099
0.00 -0.00 0.74 -10.52 15.12 -0.31 1.95 0.69 5106
0.00 0.00 0.34 -10.35 15.05 -0.43 1.81 0.63 5113
0.00 0.00 0.66 -10.40 14.60 -0.62 1.78 0.62 5121
0.00 0.00 0.65 -10.74 13.34 -0.82 1.82 0.67 5128
0.00 0.00 -0.05 -10.91 11.93 -0.93 1.90 0.77 5135
0.00 0.00 -0.96 -11.29 11.47 -0.98 2.02 0.90 5142
0.00 0.00 -1.40 -12.09 11.04 -1.01 2.02 1.06 5149
0.00 0.00 -1.83 -12.75 10.51 -1.04 1.94 1.17 5156
0.00 0.00 -2.31 -13.50 10.08 -1.02 1.77 1.30 5164
0.00 0.00 -3.00 -14.43 9.19 -1.00 1.53 1.42 5171
0.00 0.00 -3.51 -15.11 7.97 -0.95 1.17 1.51 5178
0.00 0.00 -3.67 -15.72 7.03 -0.89 0.79 1.60 5185
0.00 0.00 -3.66 -16.18 6.24 -0.81 0.48 1.64 5192
0.00 0.00 -3.69 -16.45 5.82 -0.73 0.19 1.65 5199
0.00 0.00 -3.73 -16.47 5.63 -0.68 0.01 1.63 5207
0.00 0.00 -4.65 -17.22 5.90 -0.62 -0.08 1.58 5214
0.00 0.00 -15.18 -23.76 20.38 0.14 -1.21 1.62 5222
0.00 -0.00 -5.55 -13.72 2.45 0.39 -1.60 1.58 5228
0.00 0.00 -4.11 -12.86 0.19 0.47 -1.92 1.44 5235
0.00 0.00 -6.95 -20.31 7.60 0.62 -2.27 1.37 5242
0.00 0.00 -5.62 -19.41 5.89 1.05 -2.49 1.42 5250
0.00 0.00 -6.26 -15.61 6.37 1.72 -2.39 1.66 5257
-0.00 0.03 -2.97 -3.05 5.65 2.02 -1.66 2.14 5264
-0.01 0.07 -4.84 0.03 10.69 2.30 -1.29 2.37 5271
-0.02 0.22 -11.17 -1.88 13.54 2.45 -1.40 2.28 5279
-0.02 0.34 -14.28 -1.38 16.69 2.64 -1.63 1.40 5286
-0.03 0.33 -12.27 -6.73 41.27 2.71 -1.84 0.46 5294
-0.04 0.40 -3.23 -2.36 13.86 0.20 -0.63 -0.15 5301
-0.03 0.40 -1.06 -3.30 10.95 -0.18 -0.04 -0.18 5308
-0.02 0.43 0.60 -1.67 10.53 -0.14 -0.03 -0.20 5315
-0.03 0.46 2.03 -1.57 10.16 -0.05 0.01 -0.05 5321
-0.03 0.43 0.99 -0.65 9.81 0.03 0.05 0.07 5328
-0.04 0.42 -0.10 -0.84 9.83 0.04 0.07 0.05 5336
0.01 0.38 0.02 -1.00 9.87 0.01 0.06 0.01 5343
-0.02 0.37 0.68 -0.94 9.82 0.01 0.06 0.00 5350
-0.02 0.39 0.58 -0.84 9.77 0.01 0.06 0.00 5357
0.00 0.40 0.34 -0.89 9.75 0.00 0.04 -0.02 5364
0.02 0.36 0.55 -0.90 9.82 -0.01 0.02 -0.04 5371
-0.00 0.39 0.51 -0.88 9.70 -0.03 -0.01 -0.04 5379
0.01 0.37 0.44 -0.76 9.73 -0.03 -0.03 -0.06 5386
0.01 0.36 0.45 -0.76 9.82 -0.03 -0.04 -0.07 5393
0.02 0.37 0.43 -0.85 9.99 -0.02 -0.03 -0.07 5400
0.03 0.37 0.32 -0.80 9.82 -0.02 -0.03 -0.08 5407
0.06 0.35 0.26 -0.88 9.74 -0.01 -0.01 -0.08 5414
0.04 0.38 0.21 -0.90 9.85 -0.01 0.01 -0.08 5422
0.05 0.40 0.23 -0.84 9.86 -0.01 0.03 -0.06 5429
0.05 0.40 0.24 -0.85 9.84 -0.01 0.04 -0.06 5436
0.05 0.40 0.31 -0.86 9.80 -0.00 0.06 -0.06 5443
0.04 0.38 0.30 -0.86 9.81 0.01 0.06 -0.06 5450
0.06 0.37 0.40 -0.84 9.82 0.00 0.07 -0.06 5457
0.05 0.36 0.38 -0.80 9.78 0.01 0.07 -0.06 5465
0.05 0.37 0.40 -0.83 9.75 0.01 0.07 -0.07 5472
0.06 0.30 0.36 -0.83 9.80 0.02 0.07 -0.07 5479
0.05 0.27 0.37 -0.77 9.77 0.02 0.06 -0.08 5486
0.05 0.22 0.35 -0.88 9.72 0.02 0.06 -0.08 5493
0.04 0.21 0.33 -0.81 9.76 0.02 0.06 -0.08 5500
0.07 0.14 0.33 -0.81 9.83 0.03 0.07 -0.07 5508
0.07 0.18 0.35 -0.79 9.81 0.03 0.07 -0.07 5515
0.10 0.16 0.35 -0.84 9.80 0.04 0.07 -0.08 5522
0.09 0.12 0.38 -0.78 9.79 0.04 0.07 -0.08 5529
0.09 0.08 0.36 -0.81 9.82 0.04 0.06 -0.08 5536
0.11 0.02 0.37 -0.85 9.80 0.05 0.06 -0.08 5543
0.12 0.02 0.41 -0.86 9.78 0.05 0.06 -0.07 5551
0.15 0.06 0.33 -0.87 9.82 0.05 0.06 -0.08 5558
0.16 -0.01 0.34 -0.87 10.40 0.05 0.06 -0.09 5565
0.17 0.02 0.34 -0.86 9.81 0.05 0.06 -0.09 5572
0.17 -0.01 0.33 -0.90 9.82 0.04 0.06 -0.08 5579
0.18 0.01 0.38 -0.90 9.82 0.04 0.06 -0.08 5586
0.19 0.01 0.41 -0.90 9.78 0.04 0.05 -0.08 5594
0.22 0.01 0.41 -0.91 9.81 0.04 0.05 -0.08 5601
0.24 0.00 0.39 -0.93 9.80 0.04 0.04 -0.08 5608
0.28 -0.01 0.45 -0.88 9.81 0.04 0.03 -0.09 5615
0.32 -0.02 0.44 -0.92 9.84 0.05 0.02 -0.10 5622
0.33 -0.01 0.47 -0.94 9.81 0.05 0.01 -0.10 5629
0.35 -0.01 0.41 -0.87 9.84 0.06 0.01 -0.11 5637
0.38 -0.01 0.40 -0.97 9.80 0.07 0.00 -0.11 5644
0.38 -0.02 0.47 -1.02 9.85 0.08 0.01 -0.12 5651
0.42 -0.02 0.39 -0.95 9.82 0.07 0.01 -0.12 5658
0.45 -0.03 0.43 -0.96 9.84 0.08 0.01 -0.12 5665
0.46 -0.02 0.35 -0.97 9.82 0.10 0.01 -0.17 5672
0.48 -0.01 0.36 -0.95 9.84 0.12 0.02 -0.13 5680
0.55 -0.03 0.35 -0.97 9.86 0.13 0.02 -0.14 5687
0.57 -0.03 0.39 -1.00 9.84 0.16 0.02 -0.15 5694
0.60 -0.03 0.39 -1.06 9.86 0.18 0.02 -0.15 5701
0.62 -0.03 0.39 -1.08 9.88 0.20 0.02 -0.15 5708
0.69 -0.03 0.38 -1.14 9.79 0.23 0.03 -0.16 5715
0.74 -0.01 0.55 -1.16 9.85 0.26 0.02 -0.17 5723
0.79 -0.04 0.43 -1.12 9.92 0.29 0.03 -0.17 5730
0.83 -0.03 0.56 -1.16 10.14 0.35 0.03 -0.17 5738
0.83 -0.04 0.40 -1.22 10.00 0.40 0.04 -0.18 5744
0.85 -0.03 0.38 -1.25 9.91 0.47 0.04 -0.18 5751
0.90 -0.04 0.35 -1.24 9.87 0.51 0.04 -0.19 5758
0.94 -0.03 0.30 -1.32 9.91 0.55 0.05 -0.19 5766
0.97 -0.03 0.34 -1.38 9.98 0.58 0.06 -0.19 5773
0.99 -0.03 0.27 -1.44 10.11 0.62 0.05 -0.19 5781
1.01 -0.05 0.44 -1.52 10.11 0.66 0.03 -0.18 5788
1.03 -0.04 0.42 -1.55 10.42 0.70 -0.00 -0.18 5794
1.07 -0.03 0.46 -1.62 10.53 0.76 -0.03 -0.19 5803
1.16 -0.04 0.43 -1.71 10.23 0.82 -0.07 -0.19 5810
1.21 -0.04 0.35 -1.76 10.38 0.87 -0.10 -0.19 5817
1.23 -0.04 0.55 -1.84 10.87 0.94 -0.12 -0.20 5824
1.30 -0.05 0.17 -1.94 10.82 1.02 -0.14 -0.19 5831
1.35 -0.05 0.28 -1.95 10.87 1.09 -0.14 -0.18 5838
1.43 -0.04 -0.01 -1.91 10.90 1.19 -0.14 -0.17 5846
1.48 -0.04 0.16 -1.98 10.63 1.27 -0.12 -0.16 5853
1.52 -0.06 -0.02 -1.99 10.79 1.38 -0.12 -0.15 5860
1.55 -0.06 0.25 -2.32 10.61 1.47 -0.09 -0.14 5867
1.57 -0.06 -0.50 -2.17 11.12 1.56 -0.03 -0.12 5874
1.58 -0.05 -0.33 -2.55 11.06 1.67 -0.03 -0.10 5881
1.61 -0.04 0.17 -2.70 11.02 1.78 0.00 -0.09 5888
1.66 -0.05 0.16 -2.55 11.93 1.92 0.01 -0.08 5896
1.62 -0.06 0.15 -2.95 11.82 2.09 -0.03 -0.08 5903
1.58 -0.06 0.33 -2.95 11.75 2.25 -0.07 -0.08 5910
1.57 -0.06 0.46 -3.57 12.18 2.46 -0.10 -0.09 5917
1.55 -0.05 0.63 -2.98 11.93 2.69 -0.10 -0.11 5924
1.49 -0.05 0.91 -3.19 12.07 2.89 -0.10 -0.15 5932
1.40 -0.05 -0.21 -3.57 11.88 3.11 -0.06 -0.18 5939
1.29 -0.05 0.25 -3.96 11.73 3.33 0.05 -0.19 5946
1.14 -0.06 0.74 -4.02 11.14 3.58 0.11 -0.17 5953
0.95 -0.04 -0.53 -4.11 11.82 3.87 0.26 -0.11 5960
0.80 -0.03 -0.79 -4.82 13.56 4.12 0.30 -0.06 5967
0.61 -0.03 -1.02 -5.05 14.90 4.26 0.24 -0.02 5974
0.48 -0.02 -0.70 -6.24 15.21 4.28 0.13 0.03 5982
0.37 -0.02 -1.05 -6.84 15.58 4.28 0.02 0.07 5988
0.33 -0.03 -0.71 -8.79 18.06 4.28 -0.09 0.11 5995
0.26 -0.02 -0.81 -10.14 19.29 4.28 -0.12 0.14 6003
0.23 -0.01 -0.85 -10.78 19.54 4.28 -0.15 0.17 6010
0.21 -0.02 -1.51 -10.86 19.67 4.28 -0.20 0.21 6018
0.16 -0.02 -1.93 -10.46 19.66 4.28 -0.33 0.22 6025
0.09 -0.01 -1.98 -9.04 19.11 4.28 -0.56 0.19 6031
0.06 -0.01 -0.23 -8.39 19.00 4.25 -0.86 0.19 6038
0.05 -0.00 1.10 -6.92 16.94 4.19 -1.00 0.22 6045
0.03 0.00 2.86 -4.52 16.16 4.09 -0.98 0.26 6052
0.03 -0.00 3.33 -3.49 17.02 4.01 -0.84 0.29 6060
0.02 -0.00 2.79 -1.88 18.92 4.07 -0.62 0.30 6067
0.01 -0.00 1.29 1.15 17.30 4.13 -0.31 0.34 6074
0.00 0.00 2.96 6.43 14.98 3.85 -0.01 0.32 6081
0.01 -0.00 1.54 10.12 7.71 3.10 0.19 0.05 6088
-0.00 0.00 -3.87 24.77 1.43 2.03 0.24 -0.92 6095
0.01 -0.00 1.55 19.08 4.37 0.46 -0.04 -1.84 6103
0.00 0.00 -0.50 10.95 17.61 -0.55 0.03 -2.31 6110
0.00 0.00 -0.95 8.40 16.74 -1.76 0.53 -2.72 6117
0.00 0.00 -1.42 9.48 12.75 -2.47 0.82 -3.16 6124
0.00 0.00 -1.86 9.63 9.14 -2.78 0.76 -3.39 6131
0.00 0.00 -1.91 8.49 7.68 -3.06 0.58 -3.49 6138
0.00 0.00 -1.27 7.20 7.24 -3.28 0.38 -3.54 6146
0.00 0.00 -0.74 6.22 7.50 -3.46 0.20 -3.53 6153
0.00 0.00 -0.17 5.05 8.07 -3.56 -0.01 -3.44 6160
0.00 0.00 0.51 4.05 8.65 -3.62 -0.12 -3.25 6167
0.00 0.00 1.24 3.40 8.78 -3.72 -0.21 -3.04 6174
0.00 0.00 2.14 3.31 8.66 -3.86 -0.22 -2.72 6181
0.00 0.00 2.85 3.39 9.14 -4.07 -0.23 -2.41 6189
0.00 0.00 3.42 2.91 9.63 -4.21 -0.22 -2.04 6196
0.00 0.00 3.95 1.83 10.39 -4.27 -0.16 -1.66 6203
0.00 0.00 4.34 0.87 10.87 -4.28 -0.03 -1.32 6210
0.00 0.00 4.74 -0.02 11.03 -4.28 0.11 -0.92 6217
0.00 -0.00 4.85 -0.73 11.30 -4.28 0.20 -0.55 6224
0.00 0.00 5.07 -1.57 11.32 -4.28 0.29 -0.27 6232
0.00 0.00 5.61 -2.68 11.76 -4.28 0.40 0.00 6239
0.00 0.00 5.95 -3.90 12.40 -4.28 0.43 0.21 6246
0.00 0.00 6.18 -5.43 13.37 -4.28 0.46 0.44 6253
0.00 0.00 6.29 -6.77 14.42 -4.28 0.54 0.66 6260
0.00 -0.00 6.50 -7.85 14.87 -4.27 0.71 0.85 6267
0.00 0.00 6.72 -8.13 14.74 -4.21 0.87 1.08 6275
0.00 0.00 6.65 -7.97 15.18 -4.11 0.99 1.26 6282
0.00 0.00 6.55 -8.03 15.54 -4.00 1.13 1.52 6289
0.00 0.00 6.51 -8.35 15.93 -3.88 1.24 1.77 6296
-0.00 0.00 6.36 -8.63 15.86 -3.73 1.38 1.98 6303
0.00 0.00 6.18 -9.00 15.56 -3.58 1.52 2.21 6310
0.00 0.00 5.82 -9.38 15.51 -3.37 1.62 2.36 6318
0.00 0.00 5.24 -9.83 15.10 -3.14 1.68 2.51 6325
0.00 0.00 4.77 -10.44 14.95 -2.92 1.68 2.59 6332
0.00 0.00 4.32 -10.97 15.02 -2.63 1.63 2.62 6339
0.00 0.00 4.22 -11.08 14.88 -2.35 1.55 2.60 6346
0.00 0.00 4.14 -11.15 14.41 -2.09 1.49 2.53 6353
0.00 0.00 4.28 -11.11 13.86 -1.81 1.46 2.39 6361
0.00 0.00 4.57 -11.11 13.90 -1.58 1.50 2.22 6368
0.00 0.00 4.86 -11.18 14.24 -1.33 1.55 2.07 6375
0.00 0.00 5.27 -11.34 15.02 -1.16 1.70 1.89 6382
0.00 0.00 5.36 -11.41 15.53 -1.06 1.90 1.72 6389
0.00 0.00 4.85 -11.54 15.59 -1.08 2.12 1.59 6396
0.00 0.00 4.01 -11.60 15.24 -1.14 2.27 1.48 6404
0.00 0.00 3.25 -11.54 14.82 -1.24 2.32 1.42 6411
0.00 0.00 2.33 -11.74 13.96 -1.31 2.31 1.39 6418
0.00 0.00 1.58 -12.17 12.85 -1.34 2.24 1.38 6425
0.00 -0.00 0.90 -12.57 11.92 -1.31 2.11 1.37 6433
0.00 0.00 0.45 -12.96 11.55 -1.25 1.94 1.34 6439
0.00 0.00 0.04 -12.99 10.87 -1.20 1.79 1.27 6447
0.00 0.00 -0.40 -12.92 10.26 -1.19 1.68 1.27 6454
0.00 0.00 -0.85 -12.59 8.64 -1.20 1.62 1.24 6461
0.00 0.00 -2.62 -12.47 7.40 -1.13 1.74 1.29 6468
0.00 0.00 -3.96 -13.34 7.01 -0.96 2.02 1.45 6475
0.00 0.00 -4.61 -15.59 7.58 -0.80 1.97 1.53 6482
0.00 0.00 -7.28 -18.15 8.61 -0.51 1.30 1.47 6490
0.00 0.00 -7.00 -18.05 7.42 -0.27 0.41 1.32 6497
0.00 0.00 -4.69 -17.43 6.67 -0.15 -0.16 1.16 6504
0.00 0.00 -5.01 -17.28 6.28 0.04 -0.68 1.03 6511
0.00 0.00 -6.09 -18.73 7.73 0.22 -1.05 0.91 6518
0.00 0.00 -5.06 -16.86 6.71 0.66 -1.26 0.81 6525
0.00 0.00 -2.94 -16.77 4.53 0.89 -1.20 0.71 6533
0.00 0.00 -5.21 -19.96 3.99 1.20 -1.42 0.70 6540
0.00 0.00 -7.86 -24.34 5.65 1.65 -1.77 0.99 6547
-0.00 0.03 -7.16 -14.28 5.94 2.06 -1.69 1.66 6554
-0.01 0.06 -2.45 1.01 8.33 2.59 -1.12 1.96 6561
-0.01 0.20 -8.72 -5.95 14.96 3.18 -0.91 1.96 6569
-0.02 0.33 -13.02 -1.86 17.27 3.37 -1.17 1.28 6577
-0.04 0.45 -10.38 -3.13 28.19 3.46 -1.57 0.32 6584
-0.04 0.41 -1.97 -3.15 18.87 1.25 -1.95 -0.36 6591
-0.03 0.42 -0.19 -3.87 12.30 0.08 -0.75 -0.34 6598
-0.03 0.45 1.28 -2.74 10.16 -0.14 -0.20 -0.23 6605
-0.03 0.41 1.81 -1.75 9.87 -0.05 -0.16 -0.08 6611
-0.03 0.44 0.93 -0.63 9.59 0.06 -0.13 0.03 6619
-0.03 0.41 0.08 -0.44 9.82 0.08 -0.07 0.03 6626
-0.03 0.42 -0.03 -0.75 9.90 0.06 -0.03 -0.03 6633
-0.01 0.38 0.51 -0.97 9.79 0.05 -0.02 -0.01 6640
-0.01 0.29 0.78 -0.86 9.73 0.06 -0.02 -0.01 6647
0.01 0.25 0.47 -0.85 9.74 0.04 -0.03 -0.03 6654
0.02 0.26 0.38 -1.05 9.74 0.03 -0.04 -0.06 6662
0.01 0.26 0.46 -1.03 9.72 0.00 -0.05 -0.06 6669
0.01 0.26 0.37 -0.85 9.76 -0.02 -0.04 -0.07 6676
0.03 0.22 0.19 -0.79 9.65 -0.02 -0.02 -0.08 6683
0.03 0.24 0.30 -0.85 9.91 -0.01 -0.00 -0.08 6690
0.04 0.22 0.28 -0.93 9.80 -0.01 0.02 -0.08 6697
0.05 0.19 0.24 -0.94 9.85 -0.00 0.03 -0.07 6705
0.04 0.24 -0.13 -0.87 9.45 -0.00 0.05 -0.06 6712
0.06 0.26 0.32 -0.85 9.85 0.00 0.06 -0.06 6719
0.07 0.22 0.34 -0.94 9.79 0.01 0.07 -0.06 6726
0.09 0.17 0.43 -0.92 9.92 0.02 0.08 -0.06 6733
0.10 0.15 0.41 -0.89 9.81 0.03 0.08 -0.07 6740
0.11 0.10 0.41 -0.88 9.83 0.04 0.08 -0.07 6748
0.13 0.09 0.40 -0.86 9.86 0.04 0.08 -0.08 6755
0.18 0.05 0.39 -0.87 9.84 0.04 0.08 -0.08 6762
0.23 0.02 0.36 -0.89 9.84 0.05 0.08 -0.07 6769
0.21 0.03 0.41 -0.90 9.83 0.06 0.08 -0.07 6776
0.22 0.00 0.43 -0.85 9.83 0.06 0.07 -0.07 6784
0.21 0.01 0.41 -0.94 9.83 0.06 0.08 -0.07 6791
0.26 -0.00 0.43 -0.92 9.81 0.07 0.08 -0.07 6798
0.28 0.00 0.46 -0.94 9.84 0.08 0.08 -0.08 6805
0.33 -0.01 0.46 -0.95 9.81 0.09 0.09 -0.08 6812
0.32 -0.03 0.41 -0.91 9.84 0.10 0.11 -0.08 6819
0.38 -0.02 0.43 -0.93 9.84 0.12 0.12 -0.09 6827
0.38 -0.02 0.42 -1.01 9.87 0.14 0.14 -0.09 6834
0.40 -0.02 0.36 -0.88 9.61 0.18 0.17 -0.09 6841
0.40 -0.02 0.41 -0.99 9.97 0.21 0.20 -0.09 6848
0.39 -0.02 0.38 -0.99 10.06 0.25 0.22 -0.09 6855
0.43 -0.02 0.43 -1.00 10.06 0.32 0.26 -0.08 6862
0.44 -0.03 0.45 -1.10 9.98 0.38 0.30 -0.07 6870
0.44 -0.02 0.42 -1.14 9.94 0.43 0.33 -0.06 6877
0.46 -0.02 0.57 -1.16 9.99 0.47 0.33 -0.06 6884
0.49 -0.02 0.57 -1.21 9.95 0.50 0.32 -0.05 6891
0.49 -0.02 0.54 -1.26 9.91 0.53 0.29 -0.06 6898
0.50 -0.03 1.21 -1.26 9.82 0.56 0.26 -0.06 6905
0.51 -0.03 0.69 -1.34 10.39 0.56 0.23 -0.07 6914
0.52 -0.02 0.69 -1.42 9.78 0.55 0.18 -0.08 6920
0.53 -0.02 0.71 -1.48 9.80 0.54 0.16 -0.09 6927
0.56 -0.03 0.65 -1.44 9.74 0.54 0.14 -0.10 6934
0.56 -0.03 0.69 -1.55 9.64 0.52 0.12 -0.11 6941
0.56 -0.04 0.65 -1.56 9.65 0.49 0.11 -0.11 6948
0.55 -0.03 0.68 -1.59 9.62 0.47 0.10 -0.11 6956
0.55 -0.02 0.63 -1.65 9.65 0.45 0.09 -0.12 6963
0.56 -0.02 0.58 -1.68 9.57 0.42 0.08 -0.11 6970
0.58 -0.03 0.57 -1.72 9.62 0.40 0.07 -0.11 6977
0.57 -0.03 0.59 -1.75 9.55 0.36 0.05 -0.10 6984
0.57 -0.04 0.62 -1.74 9.58 0.33 0.03 -0.09 6991
0.56 -0.03 0.69 -1.80 9.72 0.31 0.02 -0.09 6999
0.58 -0.03 0.69 -1.83 9.74 0.31 -0.00 -0.09 7006
0.60 -0.03 0.72 -1.83 9.76 0.32 -0.03 -0.10 7013
0.63 -0.04 0.74 -1.89 9.88 0.33 -0.04 -0.11 7020
0.67 -0.03 0.70 -1.92 9.76 0.35 -0.07 -0.11 7027
0.68 -0.03 0.69 -1.96 9.70 0.37 -0.10 -0.12 7034
0.73 -0.03 0.72 -2.00 9.65 0.37 -0.07 -0.13 7042
0.74 -0.03 0.71 -2.04 9.68 0.38 -0.08 -0.13 7049
0.77 -0.04 0.66 -2.09 9.76 0.38 -0.08 -0.14 7056
0.81 -0.04 0.70 -2.08 9.85 0.40 -0.08 -0.15 7063
0.83 -0.03 0.70 -2.20 9.83 0.42 -0.08 -0.15 7070
0.86 -0.04 0.70 -2.18 10.01 0.47 -0.08 -0.16 7078
0.90 -0.04 0.67 -2.18 10.31 0.53 -0.08 -0.17 7086
0.92 -0.03 0.60 -2.32 10.34 0.60 -0.10 -0.18 7093
0.99 -0.04 0.74 -2.35 10.50 0.68 -0.11 -0.19 7100
1.05 -0.04 0.49 -2.34 10.41 0.75 -0.12 -0.19 7107
1.09 -0.05 0.48 -2.40 10.28 0.83 -0.13 -0.19 7114
1.13 -0.05 0.35 -2.45 10.28 0.90 -0.13 -0.18 7121
1.14 -0.04 0.17 -2.54 10.54 0.97 -0.12 -0.16 7129
1.17 -0.04 0.25 -2.63 10.68 1.06 -0.13 -0.14 7136
1.19 -0.05 0.23 -2.76 10.36 1.17 -0.12 -0.12 7143
1.21 -0.04 0.34 -2.76 10.43 1.23 -0.12 -0.11 7150
1.25 -0.06 0.10 -2.63 10.64 1.33 -0.10 -0.09 7157
1.23 -0.05 0.29 -3.19 10.89 1.44 -0.08 -0.08 7164
1.22 -0.04 0.07 -2.71 10.98 1.56 -0.07 -0.07 7172
1.22 -0.04 0.39 -3.31 10.95 1.71 -0.05 -0.07 7179
1.22 -0.04 0.13 -3.68 11.46 1.85 -0.02 -0.06 7186
1.19 -0.05 0.18 -3.73 12.01 2.04 0.01 -0.05 7192
1.14 -0.05 0.39 -3.73 11.99 2.23 0.03 -0.05 7200
1.07 -0.04 1.47 -4.09 12.03 2.50 0.06 -0.07 7206
0.99 -0.04 0.70 -3.72 11.69 2.74 0.11 -0.13 7215
0.89 -0.04 -0.21 -3.96 12.11 2.98 0.18 -0.15 7222
0.73 -0.03 -0.06 -4.28 12.89 3.29 0.31 -0.13 7229
0.56 -0.03 0.29 -4.81 14.00 3.57 0.38 -0.10 7235
0.35 -0.03 0.60 -5.31 15.11 3.90 0.42 -0.10 7243
0.21 -0.02 0.80 -5.91 16.20 4.16 0.39 -0.10 7249
0.25 -0.01 0.46 -7.13 16.42 4.26 0.30 -0.10 7258
0.19 -0.02 -0.11 -8.49 18.74 4.28 0.27 -0.06 7264
0.12 -0.01 -0.24 -9.49 19.16 4.28 0.34 0.03 7271
0.05 -0.00 0.07 -10.19 20.48 4.28 0.49 0.11 7278
0.06 -0.01 0.12 -9.91 20.00 4.27 0.66 0.18 7285
0.04 -0.00 -0.18 -9.24 19.89 4.24 0.80 0.21 7292
0.05 0.00 -1.23 -7.85 19.54 4.14 0.71 0.21 7300
0.05 -0.00 -1.36 -7.85 18.26 3.92 0.46 0.21 7307
0.05 -0.00 -1.34 -5.60 16.65 3.77 0.22 0.22 7314
0.03 -0.00 -0.53 -3.54 15.85 3.66 0.01 0.24 7321
0.02 -0.00 0.24 -1.11 16.13 3.67 -0.15 0.28 7328
0.02 -0.00 0.19 0.66 16.84 3.69 -0.25 0.28 7335
0.02 -0.00 -1.42 3.95 15.11 3.59 -0.25 0.31 7343
0.03 -0.00 -1.24 11.26 7.02 3.26 -0.10 0.16 7350
0.01 -0.00 -4.62 13.63 4.07 2.64 -0.12 -0.46 7357
0.00 0.00 -1.24 12.40 5.46 1.58 -0.78 -1.05 7364
0.00 0.00 -2.41 12.72 10.13 0.05 -1.16 -1.33 7371
0.00 0.00 -0.95 8.87 12.34 -0.84 -0.84 -1.67 7378
0.00 -0.00 -0.03 6.16 11.43 -1.29 -0.69 -2.03 7386
0.00 0.00 -0.91 5.69 9.28 -1.55 -0.55 -2.27 7393
0.00 0.00 -1.24 5.66 7.35 -1.62 -0.37 -2.47 7400
0.00 0.00 -0.81 5.53 6.39 -1.67 -0.32 -2.60 7407
0.00 0.00 -0.44 5.35 5.95 -1.75 -0.39 -2.72 7414
0.00 0.00 -0.21 5.06 6.30 -1.84 -0.48 -2.77 7421
0.00 0.00 0.22 4.84 7.04 -1.99 -0.57 -2.74 7429
0.00 0.00 0.54 4.88 7.83 -2.18 -0.68 -2.62 7436
0.00 0.00 1.14 4.72 7.95 -2.44 -0.77 -2.42 7443
0.00 0.00 1.58 4.18 8.16 -2.74 -0.89 -2.24 7450
0.00 0.00 2.35 4.00 9.58 -3.03 -0.98 -2.06 7457
0.00 0.00 2.70 3.74 10.20 -3.34 -1.14 -1.89 7464
0.00 -0.00 3.21 2.77 10.74 -3.58 -1.22 -1.62 7472
0.00 0.00 4.07 1.71 11.03 -3.76 -1.22 -1.33 7479
0.00 0.00 4.98 0.80 10.90 -3.96 -1.18 -1.06 7486
0.00 0.00 5.47 0.17 10.83 -4.08 -1.13 -0.79 7493
0.00 0.00 5.87 -0.27 10.69 -4.16 -1.02 -0.58 7500
0.00 0.00 6.36 -0.82 10.92 -4.21 -0.84 -0.37 7507
0.00 -0.00 6.74 -1.44 11.35 -4.23 -0.65 -0.19 7515
0.00 0.00 7.07 -2.18 11.87 -4.24 -0.36 -0.06 7522
0.00 0.00 7.20 -3.20 12.42 -4.24 -0.04 0.08 7529
0.00 0.00 7.35 -3.91 13.08 -4.23 0.23 0.19 7536
0.00 0.00 7.48 -4.78 13.90 -4.21 0.52 0.31 7543
0.00 0.00 7.30 -5.70 14.38 -4.19 0.71 0.45 7550
0.00 0.00 6.99 -6.44 14.53 -4.15 0.89 0.61 7558
0.00 0.00 6.76 -7.41 15.11 -4.10 0.98 0.82 7565
0.00 0.00 6.80 -8.35 15.57 -4.03 0.99 1.08 7572
0.00 0.00 6.85 -9.34 15.71 -3.92 0.90 1.34 7579
0.00 0.00 7.07 -10.23 15.63 -3.80 0.80 1.68 7586
0.00 0.00 7.55 -10.63 15.23 -3.64 0.67 1.98 7593
0.00 0.00 8.11 -10.84 14.37 -3.44 0.62 2.31 7601
0.00 0.00 8.42 -10.91 13.64 -3.26 0.64 2.58 7608
0.00 0.00 8.52 -11.09 13.34 -3.02 0.80 2.77 7615
0.00 0.00 8.34 -10.96 12.98 -2.79 1.05 2.93 7622
0.00 0.00 7.93 -10.58 13.48 -2.52 1.34 3.04 7629
0.00 -0.00 7.24 -10.15 13.12 -2.25 1.65 3.11 7638
0.00 0.00 6.70 -9.99 13.69 -2.04 1.87 3.16 7644
0.00 0.00 6.34 -10.25 14.58 -1.83 2.05 3.17 7651
0.00 0.00 5.79 -10.64 15.17 -1.71 2.14 3.12 7658
0.00 0.00 5.15 -10.85 15.48 -1.60 2.16 3.04 7665
0.00 0.00 4.60 -11.06 15.31 -1.54 2.13 2.91 7672
0.00 0.00 4.26 -11.47 14.94 -1.50 2.06 2.72 7680
0.00 0.00 4.02 -11.95 14.37 -1.46 1.91 2.53 7687
0.00 0.00 3.70 -12.34 13.35 -1.39 1.73 2.26 7694
0.00 0.00 3.46 -12.33 12.35 -1.28 1.60 1.98 7701
0.00 0.00 3.32 -12.19 11.44 -1.14 1.48 1.72 7708
0.00 0.00 2.95 -11.78 10.14 -1.00 1.47 1.44 7715
0.00 0.00 1.48 -10.71 8.49 -0.78 1.65 1.29 7723
0.00 0.00 1.07 -10.28 9.13 -0.56 2.29 1.32 7730
0.00 0.00 1.31 -10.65 11.89 -0.44 2.78 1.34 7737
0.00 0.00 0.59 -11.50 13.67 -0.41 2.91 1.27 7744
0.00 0.00 -2.76 -14.58 16.70 -0.47 2.45 1.20 7751
0.00 0.00 -2.90 -12.21 13.69 -0.53 1.74 1.20 7758
0.00 0.00 -0.74 -11.08 7.65 -1.00 1.21 1.19 7766
0.00 0.00 -3.08 -14.72 8.84 -1.11 0.57 1.20 7773
0.00 0.00 -3.44 -17.40 7.96 -1.12 -0.22 1.18 7780
0.00 0.00 -0.86 -15.03 6.46 -0.84 -0.48 1.10 7787
0.00 0.00 -0.43 -19.47 4.19 -0.70 -0.55 1.00 7794
0.00 0.00 1.12 -17.23 5.19 -0.20 -0.56 0.92 7801
0.00 0.00 -0.83 -21.17 6.26 0.08 -0.47 0.82 7809
0.00 0.00 -1.70 -19.77 4.02 0.71 -0.46 0.89 7816
0.00 0.00 -2.19 -18.17 1.08 1.02 -0.52 1.03 7823
0.00 0.00 -4.44 -22.66 4.68 1.41 -0.76 1.28 7830
-0.00 0.01 -6.90 -22.72 6.56 1.94 -1.28 1.73 7837
-0.00 0.03 -3.59 -5.88 9.65 2.40 -1.41 2.19 7844
-0.00 0.04 -7.64 -1.94 8.89 2.74 -1.45 2.10 7852
-0.01 0.17 -9.38 -2.70 17.47 3.07 -1.47 1.73 7860
-0.02 0.23 -10.66 -1.59 19.54 2.98 -1.59 0.99 7867
-0.03 0.30 -10.11 -2.59 33.09 2.53 -2.36 0.14 7874
-0.02 0.29 -1.27 -2.56 16.55 0.50 -1.55 -0.50 7881
-0.02 0.32 0.10 -1.85 10.93 -0.05 -0.48 -0.39 7888
-0.02 0.30 1.10 -1.54 9.52 -0.18 -0.15 -0.29 7895
-0.03 0.36 2.29 -1.66 9.29 -0.09 -0.18 -0.25 7902
-0.03 0.39 1.63 -1.60 9.99 0.02 -0.13 0.00 7909
-0.03 0.39 0.19 -0.76 9.99 0.04 -0.05 0.04 7916
-0.03 0.39 -0.16 -0.69 9.76 0.01 0.01 -0.01 7923
0.02 0.37 0.10 -0.71 9.71 -0.00 0.03 -0.03 7930
0.01 0.36 0.76 -0.83 9.72 0.01 0.04 -0.01 7938
-0.02 0.33 0.58 -0.78 9.80 0.02 0.04 -0.01 7945
-0.03 0.32 0.30 -0.75 9.72 0.01 0.03 -0.03 7952
-0.00 0.29 0.44 -0.89 9.71 -0.00 0.03 -0.05 7959
-0.01 0.30 0.53 -0.83 9.65 -0.02 0.02 -0.06 7966
0.01 0.28 0.41 -0.75 9.75 -0.02 0.01 -0.06 7973
-0.00 0.30 0.39 -0.74 9.84 -0.02 0.01 -0.07 7981
0.00 0.28 0.38 -0.84 9.83 -0.03 0.02 -0.07 7988
-0.01 0.30 0.30 -0.85 9.89 -0.03 0.03 -0.07 7995
0.03 0.30 0.35 -0.87 9.83 -0.02 0.04 -0.06 8002
0.03 0.31 0.41 -0.80 9.66 -0.02 0.05 -0.06 8009
0.05 0.30 0.37 -0.80 9.71 -0.01 0.06 -0.05 8016
0.04 0.31 0.37 -0.80 9.81 -0.01 0.06 -0.04 8024
0.04 0.28 0.43 -0.76 9.81 -0.00 0.04 -0.04 8031
0.06 0.28 0.44 -0.78 9.81 0.00 0.06 -0.05 8038
0.07 0.27 0.47 -0.83 9.82 0.01 0.06 -0.06 8045
0.05 0.25 0.47 -0.78 9.84 0.01 0.06 -0.06 8052
0.07 0.22 0.46 -0.80 9.81 0.02 0.06 -0.07 8059
0.08 0.20 0.42 -0.80 9.81 0.02 0.06 -0.07 8067
0.09 0.17 0.42 -0.81 9.88 0.03 0.06 -0.07 8074
0.09 0.17 0.38 -0.76 9.77 0.03 0.06 -0.07 8081
0.09 0.10 0.40 -0.78 9.83 0.04 0.06 -0.07 8088
0.10 0.04 0.41 -0.83 9.83 0.04 0.06 -0.07 8095
0.09 0.04 0.45 -0.80 9.80 0.04 0.07 -0.07 8102
0.14 0.02 0.39 -0.78 9.83 0.05 0.07 -0.07 8110
0.16 0.01 0.46 -0.79 9.83 0.05 0.07 -0.07 8117
0.17 0.02 0.47 -0.83 9.82 0.05 0.07 -0.07 8124
0.17 0.01 0.47 -0.81 9.81 0.05 0.07 -0.07 8131
0.23 -0.01 0.46 -0.87 9.82 0.06 0.07 -0.07 8138
0.21 -0.01 0.44 -0.86 9.83 0.07 0.07 -0.08 8145
0.22 -0.02 0.51 -0.87 9.82 0.07 0.07 -0.08 8153
0.21 -0.01 0.49 -0.88 9.84 0.08 0.08 -0.08 8160
0.25 -0.01 0.42 -0.89 9.84 0.09 0.08 -0.08 8167
0.29 -0.00 0.47 -0.86 9.82 0.11 0.09 -0.08 8174
0.31 -0.02 0.49 -0.88 9.82 0.13 0.09 -0.08 8181
0.35 -0.02 0.51 -0.93 9.86 0.15 0.10 -0.09 8188
0.35 -0.03 0.49 -0.95 9.91 0.17 0.11 -0.09 8196
0.38 -0.03 0.50 -0.89 9.89 0.21 0.11 -0.09 8203
0.39 -0.02 0.58 -0.96 9.91 0.25 0.12 -0.09 8210
0.43 -0.01 0.50 -0.99 9.86 0.28 0.12 -0.10 8217
0.46 -0.02 0.53 -1.01 9.91 0.33 0.13 -0.10 8224
0.54 -0.03 0.48 -1.07 9.94 0.37 0.13 -0.10 8231
0.54 -0.04 0.48 -1.11 9.87 0.42 0.13 -0.10 8239
0.56 -0.02 0.59 -1.14 9.94 0.46 0.11 -0.11 8246
0.62 -0.02 1.21 -1.23 9.98 0.50 0.09 -0.12 8253
0.67 -0.03 0.58 -1.24 10.00 0.56 0.06 -0.13 8260
0.74 -0.03 0.56 -1.31 9.93 0.58 0.04 -0.14 8267
0.77 -0.03 0.61 -1.36 9.83 0.59 0.02 -0.15 8274
0.77 -0.04 0.52 -1.39 9.85 0.58 0.00 -0.15 8282
0.78 -0.02 0.47 -1.42 9.79 0.57 0.03 -0.15 8289
0.80 -0.02 0.52 -1.44 9.74 0.55 -0.00 -0.14 8296
0.83 -0.03 0.51 -1.49 9.73 0.53 -0.01 -0.15 8303
0.87 -0.03 0.49 -1.55 9.70 0.51 -0.01 -0.14 8310
0.87 -0.04 0.46 -1.64 9.63 0.48 -0.01 -0.13 8317
0.88 -0.04 0.46 -1.62 9.64 0.45 -0.01 -0.13 8325
0.90 -0.03 0.41 -1.71 9.63 0.42 -0.01 -0.13 8332
0.92 -0.02 0.62 -1.74 9.75 0.40 -0.01 -0.12 8339
0.96 -0.04 0.58 -1.79 9.83 0.40 -0.02 -0.13 8346
0.99 -0.04 0.60 -1.85 9.89 0.42 -0.03 -0.13 8353
1.01 -0.05 0.59 -1.85 9.98 0.44 -0.04 -0.15 8360
1.02 -0.04 0.63 -1.87 10.03 0.47 -0.05 -0.15 8369
1.04 -0.04 0.53 -1.88 10.05 0.51 -0.06 -0.16 8376
1.09 -0.04 0.48 -2.03 9.92 0.56 -0.07 -0.18 8382
1.15 -0.05 0.56 -2.00 9.89 0.59 -0.07 -0.18 8389
1.15 -0.05 0.42 -2.13 10.36 0.63 -0.06 -0.17 8397
1.19 -0.05 0.49 -2.11 10.12 0.66 -0.06 -0.16 8404
1.20 -0.04 0.48 -2.20 10.11 0.71 -0.07 -0.16 8412
1.24 -0.05 0.41 -2.24 9.96 0.76 -0.06 -0.16 8418
1.30 -0.04 0.28 -2.24 10.26 0.82 -0.06 -0.15 8426
1.32 -0.05 0.31 -2.26 10.35 0.88 -0.08 -0.15 8433
1.36 -0.05 0.23 -2.34 10.48 0.95 -0.08 -0.15 8440
1.40 -0.06 0.55 -2.60 10.36 1.05 -0.10 -0.15 8448
1.45 -0.05 0.16 -2.41 10.51 1.12 -0.10 -0.15 8455
1.47 -0.05 0.18 -2.61 10.60 1.21 -0.11 -0.14 8462
1.52 -0.05 0.16 -2.59 10.49 1.31 -0.11 -0.13 8469
1.56 -0.05 0.21 -2.71 10.78 1.41 -0.12 -0.12 8476
1.59 -0.05 0.19 -2.67 10.46 1.51 -0.12 -0.11 8483
1.61 -0.05 0.28 -3.23 10.93 1.62 -0.12 -0.11 8491
1.62 -0.06 0.28 -2.74 10.87 1.75 -0.12 -0.10 8498
1.64 -0.05 0.19 -3.41 11.14 1.90 -0.09 -0.10 8505
1.64 -0.06 0.06 -3.51 11.32 2.04 -0.06 -0.10 8512
1.64 -0.06 -0.17 -3.27 11.99 2.23 -0.01 -0.09 8519
1.59 -0.06 0.70 -3.73 11.92 2.47 0.04 -0.09 8526
1.53 -0.07 0.40 -3.73 11.87 2.67 0.06 -0.09 8534
1.45 -0.05 -0.07 -3.92 11.71 2.93 0.12 -0.13 8541
1.34 -0.04 -0.41 -3.93 12.33 3.15 0.19 -0.15 8548
1.18 -0.05 -0.30 -4.23 12.52 3.48 0.31 -0.14 8555
0.96 -0.03 -0.15 -4.89 13.55 3.85 0.49 -0.10 8562
0.69 -0.04 0.08 -5.73 15.18 4.14 0.61 -0.06 8569
0.50 -0.03 -0.34 -6.57 16.43 4.27 0.59 -0.03 8577
0.30 -0.02 -0.13 -7.64 15.76 4.28 0.45 0.02 8583
0.21 -0.01 -0.80 -8.88 18.75 4.28 0.30 0.07 8590
0.19 -0.02 -0.35 -9.83 18.97 4.28 0.24 0.16 8597
0.13 -0.01 0.06 -10.59 17.82 4.28 0.27 0.23 8604
0.12 -0.01 0.31 -11.08 19.04 4.28 0.34 0.25 8611
0.06 -0.01 0.45 -10.10 18.11 4.28 0.35 0.25 8619
0.05 -0.01 0.05 -8.81 17.66 4.27 0.32 0.21 8626
0.04 0.00 -0.43 -8.58 18.53 4.20 0.14 0.13 8633
0.04 -0.00 -0.31 -8.07 18.03 4.08 -0.13 0.09 8640
0.07 -0.01 0.28 -5.82 17.23 3.98 -0.41 0.07 8647
0.07 -0.01 1.20 -3.14 16.46 3.88 -0.58 0.06 8654
0.04 -0.00 1.43 -2.20 17.48 3.78 -0.66 0.08 8662
0.02 -0.00 1.69 -0.99 18.63 3.81 -0.89 0.07 8669
0.02 -0.00 0.16 2.46 17.03 3.76 -1.07 0.07 8676
0.00 0.00 1.99 8.46 11.51 3.40 -1.10 0.12 8683
0.01 -0.00 -1.48 14.50 4.51 2.70 -1.18 -0.14 8690
0.00 0.00 0.98 15.41 -1.33 1.87 -1.54 -0.66 8697
0.00 0.00 1.94 14.59 8.59 0.38 -1.86 -0.90 8705
0.00 -0.00 2.29 8.93 14.45 -0.60 -1.53 -1.06 8712
0.00 -0.00 2.64 6.05 13.07 -1.35 -1.14 -1.30 8719
0.00 0.00 1.67 5.75 10.69 -1.69 -0.76 -1.57 8726
0.00 0.00 0.93 6.17 8.02 -1.91 -0.53 -1.74 8733
0.00 0.00 0.82 6.46 6.97 -2.10 -0.34 -1.91 8740
0.00 -0.00 1.08 5.89 6.53 -2.24 -0.25 -2.05 8748
0.00 -0.00 1.16 5.08 6.68 -2.38 -0.24 -2.15 8755
0.00 -0.00 1.11 4.43 7.01 -2.54 -0.28 -2.22 8762
0.00 0.00 1.74 3.87 10.87 -2.69 -0.37 -2.22 8769
0.00 0.00 1.10 3.30 7.88 -2.87 -0.50 -2.18 8776
0.00 0.00 1.59 2.97 8.32 -3.06 -0.72 -2.09 8783
0.00 0.00 1.87 2.63 8.81 -3.30 -0.91 -1.99 8791
0.00 0.00 2.52 1.99 9.44 -3.54 -1.03 -1.83 8798
0.00 0.00 4.13 1.16 10.04 -3.75 -1.07 -1.64 8805
0.00 0.00 4.55 0.42 10.31 -3.99 -1.03 -1.46 8812
0.00 0.00 5.34 -0.40 10.22 -4.14 -0.92 -1.26 8819
0.00 0.00 5.86 -1.79 9.99 -4.23 -0.78 -1.06 8826
0.00 0.00 6.32 -2.17 10.32 -4.27 -0.58 -0.90 8834
0.00 -0.00 6.53 -3.14 10.79 -4.28 -0.43 -0.71 8841
0.00 0.00 6.71 -3.78 11.07 -4.28 -0.28 -0.54 8848
0.00 0.00 6.90 -4.38 11.27 -4.28 -0.16 -0.35 8855
0.00 0.00 7.33 -5.06 11.72 -4.28 -0.06 -0.15 8862
0.00 0.00 7.82 -5.89 12.17 -4.27 0.06 0.01 8869
0.00 0.00 8.22 -6.67 12.70 -4.25 0.23 0.19 8877
0.00 0.00 8.62 -7.31 13.06 -4.22 0.43 0.34 8884
0.00 0.00 8.87 -8.11 13.62 -4.17 0.70 0.51 8891
0.00 0.00 8.79 -8.73 13.91 -4.11 0.95 0.70 8898
0.00 0.00 8.56 -9.23 14.29 -4.00 1.19 0.89 8905
0.00 0.00 8.41 -9.64 14.71 -3.88 1.39 1.12 8912
0.00 0.00 8.27 -9.99 15.45 -3.72 1.50 1.34 8920
0.00 0.00 7.83 -10.59 15.36 -3.54 1.60 1.61 8927
0.00 0.00 7.64 -10.88 15.61 -3.37 1.68 1.86 8934
0.00 0.00 7.14 -11.16 15.51 -3.18 1.76 2.07 8941
0.00 0.00 6.53 -11.37 15.18 -2.97 1.81 2.26 8948
0.00 0.00 6.08 -11.35 14.72 -2.80 1.85 2.44 8955
0.00 0.00 5.44 -11.26 14.35 -2.57 1.91 2.53 8963
0.00 0.00 4.81 -11.03 13.97 -2.37 1.95 2.62 8970
0.00 0.00 4.13 -10.86 13.62 -2.14 2.00 2.66 8977
0.00 0.00 3.48 -10.87 13.49 -1.90 2.02 2.65 8984
0.00 0.00 2.78 -11.07 13.24 -1.67 2.00 2.59 8991
0.00 0.00 1.95 -11.35 12.97 -1.39 1.95 2.50 8998
0.00 0.00 1.17 -11.64 12.80 -1.14 1.87 2.34 9006
0.00 0.00 0.62 -11.96 12.81 -0.84 1.76 2.17 9013
0.00 0.00 -0.06 -12.40 13.14 -0.59 1.58 1.94 9020
0.00 0.00 -0.64 -12.42 13.72 -0.46 1.37 1.68 9027
0.00 0.00 -1.18 -12.44 14.02 -0.44 1.13 1.46 9034
0.00 0.00 -1.28 -12.42 14.26 -0.52 0.93 1.18 9041
0.00 0.00 -0.90 -12.53 14.11 -0.70 0.83 0.93 9049
0.00 0.00 -0.00 -12.63 13.61 -0.97 0.87 0.63 9056
0.00 0.00 0.75 -12.68 12.42 -1.22 1.03 0.31 9063
0.00 0.00 1.11 -13.00 11.22 -1.50 1.40 0.06 9070
0.00 0.00 0.29 -13.07 9.36 -1.70 1.87 -0.17 9077
0.00 0.00 -1.14 -13.15 7.74 -1.72 2.43 -0.26 9084
0.00 0.00 -2.79 -14.35 7.13 -1.64 3.04 -0.22 9092
0.00 0.00 -4.64 -15.30 7.68 -1.46 3.26 -0.12 9099
0.00 0.00 -7.45 -17.60 9.21 -1.17 3.02 -0.06 9106
0.00 0.00 -12.00 -19.68 10.71 -0.65 1.93 0.09 9113
0.00 0.00 -11.07 -17.26 5.72 -0.38 0.77 0.23 9120
0.00 0.00 -7.30 -16.97 1.88 -0.45 -0.14 0.30 9127
0.00 0.00 -10.47 -22.71 6.73 -0.34 -1.18 0.48 9135
0.00 0.00 -8.24 -20.79 5.91 0.12 -1.99 0.65 9142
0.00 0.00 -6.27 -17.32 3.13 0.46 -2.38 0.70 9149
0.00 0.00 -7.03 -19.62 1.96 0.74 -2.68 0.78 9156
0.00 0.00 -7.69 -19.20 5.04 1.25 -3.24 0.96 9163
-0.00 0.03 0.85 4.59 13.30 1.97 -2.62 1.10 9170
-0.00 0.04 -4.09 0.48 12.79 2.10 -1.54 1.35 9178
-0.02 0.17 -6.26 3.00 15.34 2.17 -1.04 1.39 9185
-0.02 0.29 -9.24 0.19 11.92 2.09 -1.37 0.81 9193
-0.03 0.37 -8.51 -2.56 16.52 2.37 -1.32 0.11 9200
-0.03 0.37 -2.60 -5.06 31.20 2.44 -1.65 -0.45 9207
-0.03 0.38 1.77 -2.72 14.35 0.65 -1.57 -0.45 9214
-0.03 0.46 1.31 -2.93 11.70 0.08 -0.52 -0.18 9222
-0.03 0.42 1.03 -2.55 10.43 -0.04 -0.08 -0.04 9229
-0.03 0.44 0.64 -1.65 9.91 0.04 -0.08 0.03 9235
-0.04 0.47 0.50 -0.67 9.82 0.10 -0.10 0.06 9242
-0.03 0.44 -0.02 -0.90 10.16 0.07 -0.01 0.03 9249
-0.03 0.45 0.20 -0.91 9.76 0.02 0.02 0.00 9256
-0.03 0.42 0.55 -1.12 9.76 0.02 0.04 0.00 9264
-0.00 0.41 0.57 -1.01 9.68 0.02 0.04 0.01 9271
-0.03 0.39 0.43 -0.84 9.76 0.01 0.03 0.00 9278
-0.00 0.39 0.52 -0.79 9.68 0.00 0.02 -0.02 9285
0.00 0.41 0.67 -0.84 9.63 -0.00 0.00 -0.03 9292
0.01 0.40 0.56 -0.93 9.70 -0.00 -0.02 -0.03 9299
0.01 0.39 0.41 -0.89 9.48 -0.01 -0.02 -0.04 9307
0.03 0.40 0.38 -0.86 9.74 -0.02 -0.01 -0.05 9314
0.02 0.42 0.45 -0.85 9.93 -0.02 0.00 -0.05 9321
-0.00 0.45 1.52 -0.51 9.85 -0.02 0.03 -0.05 9328
0.02 0.46 0.32 -0.89 9.80 -0.01 0.05 -0.05 9335
0.02 0.45 0.38 -0.87 9.87 -0.00 0.07 -0.04 9342
0.01 0.44 0.34 -0.92 9.88 0.01 0.08 -0.04 9350
0.02 0.44 0.43 -0.95 9.82 0.01 0.10 -0.04 9357
0.01 0.42 0.41 -0.89 9.87 0.01 0.11 -0.04 9364
0.02 0.41 0.40 -0.87 9.73 0.02 0.12 -0.04 9371
0.04 0.36 1.14 -0.94 9.83 0.02 0.12 -0.04 9378
0.04 0.33 0.43 -0.84 9.80 0.03 0.12 -0.05 9385
0.04 0.30 0.47 -0.78 9.77 0.04 0.12 -0.05 9393
0.07 0.23 0.56 -0.82 9.79 0.04 0.12 -0.06 9400
0.06 0.18 0.64 -1.00 9.73 0.04 0.12 -0.06 9407
0.06 0.19 0.50 -0.95 9.84 0.05 0.12 -0.06 9414
0.07 0.16 0.44 -0.89 10.34 0.05 0.13 -0.05 9421
0.08 0.11 0.47 -0.90 9.77 0.05 0.14 -0.05 9428
0.08 0.07 0.54 -0.88 9.78 0.05 0.14 -0.05 9436
0.11 0.01 0.69 -1.00 9.79 0.05 0.14 -0.05 9443
0.11 0.01 0.54 -0.99 9.74 0.05 0.15 -0.05 9450
0.09 0.02 0.62 -0.95 9.82 0.05 0.15 -0.06 9457
0.10 0.01 0.63 -0.96 9.78 0.05 0.15 -0.05 9464
0.09 0.02 1.22 -1.06 9.77 0.05 0.15 -0.06 9472
0.10 -0.00 0.65 -1.02 9.80 0.05 0.15 -0.06 9479
0.11 -0.01 0.67 -0.94 9.78 0.05 0.15 -0.06 9486
0.08 0.00 0.50 -0.99 9.81 0.05 0.15 -0.06 9493
0.12 -0.00 0.56 -0.99 9.75 0.05 0.14 -0.06 9500
0.15 -0.01 0.06 -0.99 9.74 0.05 0.15 -0.06 9507
0.13 -0.01 0.66 -1.02 9.74 0.05 0.14 -0.06 9515
0.13 -0.01 0.72 -0.98 9.74 0.05 0.14 -0.06 9522
0.13 -0.01 0.66 -0.95 9.76 0.05 0.14 -0.07 9529
0.14 -0.01 0.65 -1.00 9.76 0.05 0.13 -0.07 9536
0.15 0.01 0.72 -0.98 9.77 0.05 0.13 -0.07 9543
0.16 -0.01 0.67 -0.97 9.74 0.05 0.12 -0.07 9550
0.14 -0.01 0.68 -0.96 9.79 0.05 0.11 -0.07 9558
0.13 -0.01 0.77 -1.03 9.73 0.05 0.10 -0.07 9565
0.11 -0.01 0.69 -1.02 9.77 0.05 0.09 -0.07 9572
0.10 -0.01 0.70 -0.99 9.71 0.05 0.08 -0.07 9579
0.12 -0.01 0.67 -1.02 9.74 0.05 0.08 -0.08 9586
0.16 -0.02 0.75 -1.01 9.73 0.06 0.07 -0.08 9593
0.17 -0.02 0.67 -1.03 9.79 0.06 0.06 -0.08 9601
0.17 -0.02 0.65 -1.01 9.75 0.07 0.06 -0.08 9608
0.15 -0.02 0.75 -1.01 9.76 0.07 0.05 -0.09 9615
0.20 -0.02 0.69 -1.03 9.81 0.08 0.04 -0.09 9622
0.26 -0.01 0.73 -1.08 9.77 0.10 0.03 -0.10 9629
0.28 -0.02 0.79 -1.06 9.81 0.12 0.03 -0.10 9636
0.29 -0.02 0.69 -1.09 9.83 0.15 0.02 -0.11 9644
0.31 -0.03 0.76 -1.14 9.84 0.17 0.01 -0.12 9651
0.33 -0.01 0.74 -1.08 9.81 0.20 0.00 -0.13 9658
0.36 -0.01 0.72 -1.20 9.84 0.23 -0.01 -0.14 9665
0.38 -0.02 0.72 -1.25 9.80 0.25 -0.01 -0.15 9672
0.42 -0.02 0.68 -1.30 9.81 0.28 -0.01 -0.15 9679
0.46 -0.03 0.74 -1.37 9.77 0.30 -0.00 -0.16 9687
0.55 -0.03 0.76 -1.27 9.92 0.35 0.00 -0.16 9694
0.55 -0.03 0.68 -1.39 10.00 0.40 0.01 -0.16 9701
0.61 -0.02 0.53 -1.27 10.10 0.46 0.01 -0.16 9708
0.65 -0.03 0.57 -1.39 10.26 0.53 0.01 -0.16 9716
0.73 -0.03 0.68 -1.49 10.38 0.63 0.00 -0.16 9723
0.78 -0.04 0.70 -1.47 10.53 0.73 -0.01 -0.16 9731
0.84 -0.04 0.75 -1.63 10.48 0.86 -0.03 -0.17 9738
0.88 -0.04 0.84 -1.78 10.84 0.98 -0.05 -0.18 9745
0.94 -0.03 0.62 -1.72 10.82 1.08 -0.07 -0.18 9752
0.96 -0.03 0.60 -1.79 10.86 1.18 -0.08 -0.18 9759
0.98 -0.03 0.59 -1.91 10.89 1.25 -0.08 -0.18 9766
1.03 -0.04 0.74 -1.90 11.38 1.35 -0.06 -0.17 9774
1.08 -0.04 0.60 -2.13 10.80 1.45 -0.07 -0.17 9781
1.09 -0.04 0.58 -2.12 10.94 1.58 -0.06 -0.15 9788
1.13 -0.04 0.71 -2.47 10.98 1.73 -0.03 -0.15 9795
1.14 -0.05 0.55 -2.50 10.89 1.83 -0.02 -0.14 9802
1.13 -0.04 0.37 -2.33 11.19 1.96 0.03 -0.14 9809
1.12 -0.04 0.19 -2.41 11.45 2.10 0.09 -0.14 9817
1.07 -0.04 0.42 -2.78 11.61 2.24 0.15 -0.12 9824
1.03 -0.04 0.37 -3.16 11.80 2.43 0.21 -0.11 9831
0.96 -0.03 0.59 -2.92 11.94 2.61 0.30 -0.11 9838
0.84 -0.04 0.84 -3.16 12.12 2.85 0.39 -0.14 9845
0.75 -0.03 0.64 -3.34 12.05 3.10 0.52 -0.17 9852
0.66 -0.04 0.13 -3.88 12.97 3.35 0.62 -0.16 9860
0.46 -0.02 -0.72 -4.21 13.41 3.61 0.60 -0.12 9867
0.37 -0.01 -0.27 -4.28 15.34 3.93 0.73 -0.05 9874
0.24 -0.02 0.03 -5.08 14.98 4.14 0.71 0.00 9880
0.16 -0.02 0.63 -5.49 14.79 4.25 0.61 0.06 9887
0.15 -0.01 0.42 -6.51 14.89 4.28 0.53 0.11 9894
0.12 -0.01 0.79 -7.62 18.07 4.28 0.48 0.12 9902
0.12 -0.01 0.65 -8.88 18.60 4.28 0.51 0.17 9909
0.10 -0.00 0.93 -9.36 19.79 4.28 0.60 0.22 9916
0.09 -0.01 0.96 -9.39 19.75 4.28 0.65 0.24 9923
0.07 -0.01 1.49 -8.76 18.90 4.27 0.70 0.24 9930
0.01 -0.00 1.43 -7.54 17.09 4.22 0.75 0.20 9937
0.00 0.00 1.18 -7.27 16.64 4.09 0.75 0.14 9945
0.00 0.00 1.70 -6.60 15.22 3.98 0.76 0.12 9952
0.00 0.00 1.66 -4.44 15.63 3.94 0.79 0.08 9959
0.01 -0.00 1.10 -2.93 17.36 3.97 0.81 0.05 9966
0.00 -0.00 -0.21 -1.30 16.19 3.96 0.79 0.01 9973
0.00 -0.00 -0.74 6.86 16.14 3.76 0.93 0.04 9980
0.00 0.00 -0.12 7.47 8.63 3.21 1.03 -0.06 9988
0.00 0.00 -1.53 11.44 2.92 2.44 0.90 -0.40 9995
0.00 0.00 -5.75 19.16 -3.74 1.51 0.40 -1.47 10002
0.01 -0.00 -2.21 13.60 11.14 0.01 -0.40 -2.07 10009
0.00 0.00 -2.70 8.27 16.14 -1.16 -0.33 -2.45 10016
0.00 -0.00 -1.59 6.47 12.03 -1.71 0.04 -2.91 10023
0.00 0.00 -1.37 6.47 8.96 -1.88 0.16 -3.23 10031
0.00 0.00 -1.86 6.12 7.25 -1.93 0.13 -3.46 10038
0.01 -0.00 -1.73 5.61 6.72 -1.98 0.05 -3.63 10045
0.00 -0.00 -0.82 5.07 7.10 -2.05 -0.14 -3.69 10052
0.00 0.00 -0.25 4.78 7.23 -2.16 -0.35 -3.71 10059
0.00 0.00 0.37 4.67 7.61 -2.34 -0.51 -3.65 10066
0.00 0.00 1.25 4.66 8.10 -2.58 -0.60 -3.49 10074
0.00 0.00 1.82 4.44 8.30 -2.81 -0.61 -3.28 10081
0.00 -0.00 2.40 4.09 8.87 -3.07 -0.62 -3.11 10088
0.00 -0.00 2.97 3.24 9.02 -3.28 -0.57 -2.93 10095
0.00 0.00 3.42 2.24 9.29 -3.49 -0.44 -2.78 10102
0.00 0.00 3.84 0.96 9.44 -3.66 -0.14 -2.63 10109
0.00 0.00 4.03 0.19 9.59 -3.74 0.18 -2.50 10117
0.00 0.00 3.92 -0.32 10.06 -3.83 0.51 -2.43 10124
0.00 -0.00 3.51 -0.81 10.03 -3.91 0.78 -2.36 10131
0.00 0.00 3.26 -1.18 10.08 -4.02 0.95 -2.32 10138
0.00 0.00 2.99 -1.61 10.54 -4.08 1.04 -2.25 10145
0.00 0.00 2.90 -2.46 10.83 -4.10 1.06 -2.19 10152
0.00 0.00 2.85 -3.44 11.36 -4.06 1.06 -2.11 10160
-0.00 0.00 3.07 -4.66 11.73 -3.95 1.05 -1.99 10167
0.00 0.00 3.37 -5.62 11.99 -3.84 1.06 -1.84 10174
0.00 0.00 3.91 -6.32 12.05 -3.65 1.12 -1.61 10181
0.00 0.00 4.85 -6.48 12.24 -3.49 1.26 -1.32 10188
0.00 0.00 4.65 -6.39 12.66 -3.34 1.41 -1.01 10195
0.00 0.00 4.72 -6.16 12.96 -3.23 1.57 -0.59 10203
0.00 0.00 4.80 -6.07 13.34 -3.11 1.69 -0.07 10210
0.00 0.00 4.85 -5.81 13.63 -2.98 1.77 0.34 10217
0.00 0.00 4.82 -5.55 13.90 -2.86 1.89 0.85 10224
0.00 0.00 4.62 -5.52 14.30 -2.73 1.99 1.25 10231
0.00 0.00 4.24 -5.83 14.48 -2.63 2.15 1.64 10238
0.00 0.00 3.67 -5.99 14.99 -2.53 2.26 1.96 10246
0.00 -0.00 2.96 -6.08 15.46 -2.45 2.36 2.16 10253
0.00 0.00 2.33 -6.20 16.07 -2.38 2.45 2.34 10260
0.00 0.00 1.68 -6.45 16.62 -2.33 2.50 2.43 10267
0.00 0.00 0.61 -6.96 17.03 -2.31 2.51 2.50 10274
0.00 0.00 -0.23 -7.93 17.06 -2.30 2.46 2.50 10281
0.00 0.00 -0.97 -8.87 16.74 -2.27 2.31 2.45 10289
0.00 -0.00 -1.41 -9.86 16.06 -2.17 2.07 2.33 10296
0.00 0.00 -1.41 -10.41 15.36 -2.06 1.87 2.21 10303
0.00 0.00 -8.64 -27.66 19.75 -1.55 1.62 2.21 10310
0.00 0.00 4.85 -5.49 2.00 -0.29 1.12 2.38 10317
0.00 0.00 -0.71 -6.05 0.84 -0.80 0.73 2.04 10324
0.01 -0.00 -2.91 -18.88 13.18 -0.75 0.53 1.83 10333
0.01 -0.00 -0.21 -13.71 10.74 -0.34 0.41 1.83 10340
0.00 0.00 0.77 -9.57 9.87 -0.34 0.60 1.66 10346
0.00 0.00 0.52 -12.35 11.34 -0.38 0.91 1.42 10353
0.00 0.00 0.24 -14.99 13.14 -0.36 1.11 1.30 10360
0.00 0.00 0.44 -15.81 14.13 -0.32 1.40 1.16 10368
0.00 0.00 0.77 -15.02 13.08 -0.41 1.71 0.99 10375
0.01 -0.00 -0.27 -13.80 10.71 -0.72 1.98 0.87 10382
0.00 0.00 -1.55 -13.35 9.38 -1.05 2.17 0.82 10389
0.00 0.00 -2.22 -14.28 7.99 -1.37 2.23 0.83 10396
0.00 0.00 -4.02 -15.67 7.45 -1.51 2.10 0.89 10403
0.00 0.00 -9.04 -20.99 9.07 -1.37 1.79 1.09 10411
0.00 0.00 -11.50 -20.71 9.47 -0.64 0.77 1.36 10418
0.00 0.00 -9.62 -17.56 1.19 -0.33 -0.15 1.50 10425
0.00 0.00 -8.70 -18.62 1.59 0.13 -1.00 1.53 10432
0.00 0.00 -6.77 -20.40 2.32 0.60 -2.02 1.42 10439
0.00 0.00 -4.96 -20.00 2.29 1.00 -2.66 1.20 10446
0.00 0.00 -5.08 -19.34 3.82 1.51 -2.92 1.06 10454
0.00 -0.00 -3.36 -12.70 8.10 2.18 -2.73 1.14 10461
-0.00 0.00 -0.58 1.02 7.80 2.57 -1.62 1.42 10468
-0.00 0.05 -3.81 -0.44 14.23 2.66 -1.06 1.61 10475
-0.01 0.15 -7.18 0.63 15.68 2.56 -1.15 1.56 10483
-0.03 0.30 -9.11 -1.02 13.79 2.44 -1.40 0.95 10490
-0.02 0.31 -7.55 -3.64 19.87 2.73 -1.33 0.31 10498
-0.01 0.33 -3.03 -4.93 18.12 0.81 -1.30 -0.16 10505
-0.03 0.31 -0.72 -3.47 10.62 -0.15 -0.14 -0.15 10512
-0.02 0.34 -0.03 -1.79 10.42 -0.19 -0.00 -0.15 10519
-0.03 0.34 0.62 -2.25 10.81 -0.10 -0.03 -0.04 10526
-0.02 0.39 0.99 -1.04 9.87 -0.04 0.04 0.01 10532
-0.03 0.41 0.20 -0.86 10.09 0.01 0.07 0.01 10540
-0.00 0.43 0.11 -1.01 9.82 0.00 0.07 -0.01 10547
-0.00 0.42 0.45 -0.92 9.76 0.00 0.08 -0.00 10554
0.01 0.34 0.76 -0.88 9.85 0.01 0.08 0.00 10561
0.01 0.34 0.58 -0.91 9.81 0.01 0.07 -0.01 10568
0.02 0.35 0.58 -0.85 9.75 0.01 0.03 -0.03 10575
0.04 0.38 0.61 -0.86 9.69 -0.00 0.01 -0.05 10583
0.03 0.37 0.56 -0.91 9.68 -0.01 -0.02 -0.06 10590
0.04 0.38 0.51 -0.91 9.64 -0.02 -0.03 -0.07 10597
0.03 0.37 0.48 -0.85 9.65 -0.03 -0.04 -0.08 10604
-0.01 0.37 0.44 -0.81 9.57 -0.03 -0.04 -0.09 10611
0.03 0.37 0.39 -0.81 9.45 -0.03 -0.03 -0.09 10618
0.01 0.39 0.45 -0.84 9.71 -0.02 -0.01 -0.10 10626
0.01 0.37 0.33 -0.79 9.87 -0.02 0.03 -0.10 10633
-0.00 0.36 0.28 -0.91 9.85 -0.01 0.02 -0.09 10640
-0.00 0.34 0.27 -0.91 9.87 -0.01 0.03 -0.08 10647
-0.00 0.34 0.34 -0.92 9.77 -0.00 0.05 -0.08 10654
0.00 0.34 0.41 -0.92 9.88 0.00 0.06 -0.07 10661
0.02 0.32 0.43 -0.91 9.80 0.01 0.06 -0.07 10669
0.01 0.29 0.52 -0.88 10.40 0.01 0.06 -0.08 10676
0.01 0.24 0.51 -0.86 9.75 0.02 0.05 -0.08 10683
0.03 0.22 0.55 -0.87 9.90 0.02 0.04 -0.10 10690
0.04 0.22 0.48 -0.90 9.82 0.03 0.04 -0.10 10697
0.04 0.20 0.48 -0.90 9.80 0.04 0.03 -0.10 10704
0.09 0.16 0.40 -0.91 9.82 0.04 0.04 -0.10 10712
0.10 0.16 0.44 -0.91 9.85 0.04 0.04 -0.10 10719
0.15 0.09 0.41 -0.86 9.84 0.05 0.04 -0.09 10726
0.12 0.08 0.47 -0.96 9.80 0.05 0.04 -0.09 10733
0.14 0.07 0.38 -0.94 9.81 0.05 0.04 -0.09 10740
0.19 0.11 0.46 -0.95 9.77 0.06 0.05 -0.08 10747
0.20 0.01 0.45 -0.99 9.79 0.06 0.05 -0.08 10755
0.21 0.00 0.46 -0.96 9.82 0.06 0.06 -0.09 10762
0.22 -0.01 0.48 -0.96 9.83 0.07 0.06 -0.09 10769
0.25 -0.03 0.39 -0.91 9.85 0.10 0.07 -0.09 10776
0.28 -0.01 0.43 -0.97 9.82 0.07 0.07 -0.09 10783
0.34 -0.01 0.47 -0.95 9.81 0.09 0.08 -0.09 10790
0.35 -0.02 0.45 -1.00 9.83 0.09 0.08 -0.09 10798
0.36 -0.01 0.45 -1.02 9.82 0.11 0.09 -0.09 10805
0.37 -0.03 0.47 -1.02 9.84 0.12 0.10 -0.09 10812
0.39 -0.01 0.50 -1.05 9.78 0.14 0.10 -0.09 10819
0.43 -0.01 0.52 -1.03 9.88 0.16 0.10 -0.10 10826
0.48 -0.02 0.51 -1.06 10.05 0.18 0.10 -0.10 10833
0.52 -0.03 0.50 -1.12 9.91 0.22 0.11 -0.10 10841
0.52 -0.03 0.51 -1.11 9.87 0.26 0.12 -0.11 10848
0.53 -0.04 0.00 -1.14 9.97 0.30 0.12 -0.11 10855
0.54 -0.03 0.58 -1.17 9.96 0.36 0.12 -0.11 10862
0.58 -0.02 0.58 -1.22 9.94 0.41 0.13 -0.12 10869
0.59 -0.03 0.56 -1.26 10.04 0.46 0.13 -0.13 10877
0.62 -0.03 0.52 -1.25 9.93 0.51 0.13 -0.13 10884
0.66 -0.03 0.54 -1.29 9.86 0.53 0.13 -0.14 10891
0.67 -0.03 0.50 -1.34 9.79 0.55 0.12 -0.13 10898
0.67 -0.03 0.55 -1.39 9.81 0.55 0.11 -0.13 10905
0.69 -0.02 0.54 -1.45 9.78 0.52 0.10 -0.13 10912
0.70 -0.03 0.60 -1.48 9.74 0.52 0.09 -0.12 10919
0.70 -0.03 0.60 -1.57 9.81 0.50 0.07 -0.12 10927
0.71 -0.03 0.57 -1.54 9.75 0.50 0.05 -0.12 10934
0.72 -0.04 0.59 -1.59 9.68 0.48 0.04 -0.12 10941
0.72 -0.03 0.54 -1.70 9.73 0.47 0.03 -0.12 10948
0.75 -0.02 0.56 -1.64 9.72 0.46 0.03 -0.13 10955
0.78 -0.03 0.55 -1.76 9.82 0.46 0.03 -0.12 10962
0.80 -0.04 0.64 -1.79 9.88 0.48 0.03 -0.13 10970
0.80 -0.04 0.58 -1.79 9.88 0.49 0.03 -0.13 10977
0.82 -0.04 0.56 -1.88 9.98 0.52 0.02 -0.14 10984
0.84 -0.04 0.65 -1.90 9.82 0.54 0.01 -0.15 10991
0.88 -0.03 0.67 -1.96 9.91 0.57 0.00 -0.16 10998
0.91 -0.03 0.63 -2.05 9.97 0.61 -0.00 -0.16 11005
0.94 -0.04 0.49 -2.05 10.02 0.65 -0.01 -0.15 11014
0.96 -0.04 0.56 -2.11 9.90 0.69 -0.01 -0.16 11020
1.01 -0.04 0.46 -2.15 10.16 0.73 -0.01 -0.16 11028
1.07 -0.04 0.52 -2.14 10.13 0.78 -0.01 -0.15 11035
1.06 -0.04 0.54 -2.33 10.51 0.85 0.00 -0.16 11041
1.11 -0.04 0.49 -2.34 10.49 0.93 0.01 -0.15 11049
1.12 -0.04 0.55 -2.42 10.41 0.99 0.01 -0.16 11057
1.11 -0.05 0.51 -2.56 10.40 1.07 0.00 -0.16 11063
1.12 -0.04 0.45 -2.56 10.53 1.16 -0.01 -0.16 11071
1.15 -0.04 0.57 -2.59 10.68 1.25 -0.03 -0.15 11078
1.17 -0.05 0.50 -2.83 10.58 1.36 -0.03 -0.16 11085
1.19 -0.05 0.43 -2.92 10.64 1.43 -0.04 -0.16 11092
1.16 -0.04 0.57 -3.01 10.41 1.54 -0.04 -0.16 11100
1.15 -0.05 0.31 -2.94 10.70 1.65 -0.04 -0.16 11107
1.15 -0.04 0.49 -3.32 10.63 1.74 -0.04 -0.17 11114
1.15 -0.04 0.43 -3.13 10.62 1.85 -0.03 -0.17 11121
1.12 -0.04 0.09 -3.36 11.04 1.99 -0.03 -0.17 11128
1.10 -0.05 0.36 -3.62 11.24 2.12 -0.02 -0.16 11136
1.06 -0.05 0.58 -3.59 11.53 2.32 0.00 -0.16 11142
1.00 -0.05 -0.11 -3.85 12.20 2.52 0.02 -0.15 11150
0.93 -0.03 0.45 -3.73 12.14 2.78 0.03 -0.15 11157
0.82 -0.02 1.48 -4.31 12.55 3.09 0.11 -0.20 11164
0.66 -0.04 0.87 -4.46 12.47 3.37 0.20 -0.24 11171
0.51 -0.03 -0.64 -4.62 14.03 3.68 0.31 -0.22 11179
0.38 -0.03 -0.28 -5.64 15.41 3.97 0.40 -0.14 11186
0.27 -0.02 -0.14 -6.37 15.82 4.19 0.38 -0.07 11193
0.23 -0.02 0.14 -7.60 17.87 4.27 0.29 -0.01 11199
0.18 -0.01 0.00 -8.42 16.08 4.28 0.26 0.04 11206
0.18 -0.01 1.18 -9.51 19.38 4.28 0.31 0.07 11214
0.10 -0.01 1.63 -10.22 20.20 4.28 0.53 0.10 11220
0.06 -0.01 1.60 -10.07 18.64 4.28 0.72 0.10 11228
0.07 -0.01 1.33 -9.65 18.58 4.27 0.83 0.08 11235
0.01 -0.00 0.85 -8.52 18.33 4.24 0.85 0.05 11242
0.02 -0.00 0.03 -8.02 18.71 4.14 0.77 -0.02 11249
0.02 -0.00 -0.09 -7.12 17.84 4.00 0.53 -0.10 11256
0.01 -0.00 0.37 -5.33 16.96 3.85 0.26 -0.17 11264
0.01 -0.00 0.87 -2.64 17.54 3.79 0.01 -0.21 11271
0.00 0.00 1.04 -1.13 17.53 3.83 -0.20 -0.22 11278
0.00 0.00 0.82 1.74 16.11 3.75 -0.29 -0.24 11285
0.00 0.00 3.00 8.90 9.65 3.44 -0.16 -0.24 11292
0.00 0.00 0.49 13.29 5.60 2.81 -0.04 -0.45 11299
0.00 0.00 0.46 13.91 -2.48 1.90 -0.23 -1.21 11307
0.00 0.00 1.35 12.42 7.25 0.82 -0.57 -1.75 11314
0.00 -0.00 1.49 9.08 14.48 -0.38 -0.33 -1.99 11321
0.00 0.00 1.61 6.15 12.91 -1.18 0.11 -2.27 11329
0.01 -0.00 0.72 5.77 10.12 -1.57 0.35 -2.54 11335
0.00 -0.00 0.04 6.07 7.87 -1.84 0.45 -2.72 11342
0.00 0.00 0.06 5.98 6.31 -2.02 0.41 -2.87 11350
0.00 0.00 0.22 5.31 5.86 -2.17 0.37 -2.96 11357
0.00 0.00 0.45 4.39 5.87 -2.25 0.26 -3.03 11364
0.00 0.00 0.57 3.83 6.33 -2.33 0.15 -3.03 11371
0.00 0.00 0.71 3.46 9.23 -2.40 0.05 -2.96 11378
0.00 0.00 1.21 3.26 6.84 -2.50 -0.04 -2.84 11385
0.00 0.00 1.80 3.42 6.99 -2.65 -0.12 -2.70 11393
0.00 0.00 2.29 3.61 7.74 -2.86 -0.22 -2.52 11400
0.00 0.00 2.87 3.48 8.75 -3.07 -0.22 -2.29 11407
0.00 0.00 3.52 2.90 9.24 -3.34 -0.16 -2.06 11414
0.00 0.00 4.10 1.99 9.51 -3.59 -0.04 -1.78 11421
0.00 0.00 4.40 1.15 9.79 -3.86 0.08 -1.55 11428
0.00 0.00 4.62 0.07 9.69 -4.09 0.23 -1.28 11436
0.00 0.00 4.51 -0.87 9.64 -4.17 0.39 -1.02 11443
0.00 0.00 4.28 -1.64 9.72 -4.21 0.49 -0.81 11450
0.00 0.00 4.40 -2.60 9.78 -4.21 0.62 -0.56 11457
0.00 0.00 4.44 -3.26 10.00 -4.17 0.72 -0.34 11464
0.00 0.00 4.60 -4.09 10.31 -4.08 0.86 -0.18 11471
0.00 0.00 4.69 -4.80 10.87 -3.95 0.98 -0.01 11479
0.00 0.00 4.67 -5.16 11.25 -3.77 1.15 0.12 11486
0.00 0.00 4.70 -5.44 11.75 -3.60 1.37 0.27 11493
0.00 0.00 4.53 -5.59 12.47 -3.49 1.59 0.39 11500
0.00 0.00 4.19 -5.94 13.29 -3.39 1.85 0.49 11507
0.00 0.00 3.52 -6.41 14.14 -3.33 2.09 0.60 11514
0.00 0.00 2.62 -7.52 14.92 -3.28 2.24 0.69 11522
0.00 0.00 0.43 -7.60 17.50 -3.30 2.45 0.76 11529
0.00 0.00 1.68 -5.91 16.96 -3.32 2.36 0.84 11536
0.00 0.00 0.21 -7.10 16.97 -3.26 2.21 0.93 11543
0.00 0.00 0.15 -8.65 15.95 -3.22 2.01 1.01 11550
0.00 0.00 0.45 -8.76 15.68 -3.16 1.80 1.04 11557
0.00 0.00 0.89 -8.16 15.42 -3.05 1.57 1.03 11565
0.00 0.00 1.80 -7.98 14.39 -2.94 1.43 0.97 11572
0.00 0.00 1.47 -7.81 14.06 -2.78 1.34 0.91 11579
0.00 0.00 1.77 -7.63 14.09 -2.59 1.33 0.84 11586
0.00 0.00 1.92 -7.42 14.11 -2.43 1.38 0.79 11593
0.00 0.00 1.99 -7.43 14.11 -2.20 1.47 0.73 11600
0.00 0.00 1.67 -7.81 13.58 -1.99 1.59 0.71 11608
0.00 0.00 1.23 -8.50 13.29 -1.72 1.64 0.71 11615
0.00 0.00 0.61 -9.38 13.09 -1.41 1.71 0.73 11622
0.00 0.00 -0.82 -14.03 14.06 -1.13 1.69 0.78 11629
0.00 0.00 -13.76 -17.69 20.81 -0.15 0.29 0.89 11636
0.00 0.00 0.74 -6.68 5.66 -0.15 0.20 0.95 11643
0.00 0.00 0.92 -10.08 8.75 -0.38 0.38 0.95 11651
0.00 0.00 -1.96 -15.67 15.49 -0.54 0.42 1.00 11658
0.00 0.00 1.37 -13.90 14.41 -0.61 0.68 1.01 11665
0.00 0.00 2.20 -13.72 14.20 -0.83 1.27 0.92 11672
0.00 0.00 1.35 -14.20 10.90 -1.09 1.93 0.89 11679
0.00 0.00 -1.65 -15.93 11.10 -1.20 2.17 0.96 11686
0.00 0.00 -4.47 -16.88 9.75 -1.09 2.13 1.06 11694
0.00 0.00 -5.53 -16.42 7.89 -0.91 1.89 1.24 11701
0.00 0.00 -6.74 -17.25 4.78 -0.67 1.57 1.45 11708
0.00 0.00 -7.23 -18.80 3.31 -0.39 0.98 1.70 11715
0.00 0.00 -7.92 -19.38 6.15 -0.04 0.20 1.89 11722
0.00 0.00 -6.19 -20.82 2.33 0.15 -0.43 1.93 11729
0.00 0.00 -4.45 -19.00 4.05 0.53 -1.01 1.98 11737
0.00 0.00 -5.11 -20.12 4.10 0.77 -1.33 2.02 11744
0.00 0.00 -6.07 -19.95 4.76 1.13 -1.64 2.09 11751
0.00 0.00 -7.32 -20.33 4.45 1.46 -1.93 2.25 11758
0.00 0.00 -9.41 -18.31 6.51 1.93 -2.29 2.50 11765
-0.00 0.01 -5.59 -0.58 11.19 2.43 -1.91 2.67 11772
-0.01 0.06 -11.67 -1.88 13.88 2.62 -1.80 2.49 11781
-0.02 0.23 -15.21 -0.30 18.76 2.60 -2.09 1.90 11788
-0.02 0.31 -12.64 -1.19 30.77 1.37 -2.70 0.53 11795
-0.03 0.36 -3.74 -3.23 8.66 -0.26 -0.14 -0.05 11801
-0.03 0.41 -1.97 -2.13 10.93 -0.23 -0.11 -0.32 11809
-0.04 0.41 0.60 -2.72 10.65 -0.19 -0.01 -0.19 11816
-0.03 0.55 1.34 -2.82 10.75 -0.11 0.07 0.00 11823
-0.03 0.52 -0.45 -0.83 10.47 -0.06 0.09 0.03 11830
-0.03 0.47 -0.37 -0.37 9.78 -0.03 0.12 -0.01 11837
-0.02 0.45 0.62 -0.74 9.83 -0.01 0.15 0.00 11844
-0.02 0.44 0.03 -0.96 9.87 -0.01 0.14 0.02 11851
-0.04 0.47 0.34 -0.70 9.81 -0.01 0.12 0.01 11858
-0.03 0.46 0.50 -0.65 9.80 -0.01 0.11 0.00 11866
-0.02 0.49 0.56 -0.68 9.79 -0.01 0.10 -0.00 11873
-0.03 0.44 0.50 -0.68 9.71 -0.02 0.08 -0.01 11880
-0.03 0.48 0.29 -0.63 9.67 -0.03 0.08 -0.02 11887
-0.03 0.48 0.45 -0.69 9.75 -0.05 0.07 -0.03 11894
-0.04 0.52 0.50 -0.68 9.75 -0.06 0.06 -0.03 11901
-0.03 0.52 0.45 -0.69 9.81 -0.06 0.05 -0.04 11909
-0.03 0.52 0.40 -0.67 9.80 -0.06 0.04 -0.04 11916
-0.03 0.57 0.32 -0.67 9.88 -0.06 0.03 -0.05 11923
-0.04 0.59 0.40 -0.60 9.76 -0.05 0.03 -0.05 11930
-0.05 0.62 0.40 -0.58 9.80 -0.04 0.03 -0.05 11937
-0.05 0.62 0.42 -0.68 9.81 -0.03 0.03 -0.05 11944
-0.02 0.61 0.43 -0.67 9.83 -0.02 0.03 -0.06 11952
-0.00 0.57 0.43 -0.68 9.83 -0.01 0.03 -0.05 11959
-0.02 0.55 0.40 -0.68 9.80 -0.00 0.03 -0.05 11966
-0.02 0.54 0.38 -0.70 9.81 0.00 0.02 -0.05 11973
-0.03 0.52 0.40 -0.66 9.83 0.00 0.01 -0.05 11980
-0.02 0.50 0.46 -0.67 9.78 0.01 0.01 -0.06 11987
0.00 0.49 0.42 -0.68 9.81 0.01 0.01 -0.06 11995
0.01 0.44 0.40 -0.67 9.79 0.02 0.01 -0.10 12002
0.01 0.43 0.43 -0.67 9.79 0.02 0.01 -0.07 12009
0.01 0.41 0.41 -0.67 9.76 0.02 0.01 -0.07 12016
0.01 0.36 0.39 -0.68 9.82 0.03 0.02 -0.08 12023
0.02 0.34 0.35 -0.69 9.81 0.03 0.03 -0.07 12030
0.03 0.32 0.32 -0.67 9.76 0.03 0.04 -0.07 12038
0.04 0.28 0.35 -0.69 9.80 0.03 0.05 -0.07 12045
0.04 0.27 0.36 -0.71 9.80 0.03 0.06 -0.07 12052
0.05 0.17 0.38 -0.82 9.82 0.04 0.06 -0.06 12059
0.05 0.16 0.43 -0.71 9.71 0.04 0.06 -0.07 12066
0.04 0.18 0.42 -0.68 9.74 0.04 0.06 -0.06 12073
0.06 0.13 0.44 -0.71 9.82 0.04 0.06 -0.07 12081
0.06 0.12 0.40 -0.72 9.76 0.04 0.06 -0.07 12088
0.06 0.16 0.41 -0.74 9.80 0.04 0.06 -0.07 12095
0.10 0.14 0.46 -0.71 9.82 0.04 0.06 -0.07 12102
0.12 0.09 0.44 -0.78 9.84 0.04 0.05 -0.07 12109
0.14 0.11 0.43 -0.78 9.78 0.04 0.05 -0.07 12116
0.12 0.07 0.42 -0.77 9.79 0.04 0.05 -0.07 12124
0.13 0.04 0.42 -0.78 9.82 0.04 0.05 -0.07 12131
0.12 0.01 0.46 -0.78 9.79 0.04 0.04 -0.07 12138
0.12 0.01 0.43 -0.77 9.81 0.04 0.04 -0.07 12145
0.12 0.01 0.46 -0.79 9.81 0.04 0.03 -0.08 12152
0.15 0.01 0.46 -0.79 9.84 0.04 0.02 -0.08 12160
0.18 0.01 0.42 -0.77 9.82 0.05 0.02 -0.08 12167
0.22 -0.02 0.43 -0.78 9.83 0.06 0.02 -0.08 12174
0.24 -0.01 0.45 -0.82 9.74 0.07 0.02 -0.09 12181
0.29 -0.01 0.44 -0.86 9.83 0.08 0.03 -0.09 12188
0.31 -0.02 0.46 -0.81 9.84 0.10 0.04 -0.09 12195
0.34 -0.01 0.39 -0.80 9.85 0.12 0.05 -0.10 12203
0.41 -0.02 0.43 -0.87 9.89 0.15 0.06 -0.10 12210
0.44 -0.02 0.50 -0.82 9.94 0.18 0.07 -0.11 12217
0.46 -0.03 0.63 -0.86 9.81 0.22 0.08 -0.12 12224
0.49 -0.02 0.58 -0.87 9.94 0.26 0.10 -0.13 12231
0.54 -0.03 0.51 -0.94 9.96 0.31 0.10 -0.14 12238
0.57 -0.03 0.53 -0.91 10.09 0.38 0.12 -0.15 12247
0.57 -0.03 0.49 -0.99 10.03 0.45 0.12 -0.15 12253
0.64 -0.03 0.46 -1.09 10.23 0.53 0.13 -0.15 12261
0.64 -0.04 0.46 -1.21 10.11 0.61 0.10 -0.16 12268
0.70 -0.03 0.55 -1.19 10.05 0.67 0.07 -0.16 12274
0.74 -0.02 0.53 -1.20 10.01 0.70 0.04 -0.17 12281
0.79 -0.03 0.53 -1.31 10.09 0.72 0.01 -0.18 12289
0.79 -0.04 0.49 -1.37 10.15 0.74 -0.02 -0.19 12297
0.81 -0.03 0.49 -1.45 10.36 0.78 -0.01 -0.19 12304
0.85 -0.04 0.50 -1.56 10.47 0.80 -0.03 -0.20 12310
0.88 -0.03 0.65 -1.54 10.82 0.86 -0.06 -0.20 12318
0.92 -0.02 0.49 -1.64 10.58 0.92 -0.08 -0.22 12325
1.00 -0.04 0.63 -1.68 10.63 0.97 -0.10 -0.24 12332
1.04 -0.05 0.46 -1.76 10.53 1.03 -0.11 -0.24 12340
1.07 -0.05 0.35 -1.84 10.38 1.08 -0.12 -0.24 12347
1.09 -0.04 0.35 -1.96 10.49 1.14 -0.13 -0.24 12354
1.12 -0.04 0.49 -2.06 10.71 1.22 -0.13 -0.25 12361
1.14 -0.04 0.34 -2.07 10.88 1.31 -0.15 -0.24 12368
1.19 -0.05 0.42 -2.33 10.99 1.42 -0.16 -0.25 12376
1.20 -0.05 0.16 -2.26 11.29 1.56 -0.17 -0.24 12383
1.21 -0.05 0.10 -2.33 11.43 1.66 -0.17 -0.24 12390
1.22 -0.05 0.10 -2.38 11.32 1.80 -0.17 -0.23 12397
1.21 -0.04 0.06 -2.79 11.15 1.93 -0.15 -0.22 12404
1.23 -0.05 -0.12 -2.67 10.53 2.08 -0.10 -0.21 12411
1.22 -0.05 -0.08 -3.13 11.28 2.25 -0.02 -0.19 12419
1.17 -0.04 -0.10 -3.16 11.84 2.40 0.05 -0.16 12426
1.14 -0.06 0.11 -3.01 11.75 2.61 0.11 -0.16 12433
1.07 -0.04 0.34 -3.25 12.06 2.83 0.24 -0.15 12440
0.96 -0.04 -0.07 -3.32 12.20 3.11 0.35 -0.15 12447
0.83 -0.03 1.15 -3.69 11.58 3.40 0.45 -0.15 12454
0.69 -0.03 -0.49 -4.56 14.49 3.67 0.69 -0.07 12462
0.47 -0.03 -0.60 -4.83 15.44 4.03 0.89 -0.00 12468
0.32 -0.03 -0.93 -5.80 15.68 4.19 0.92 0.10 12476
0.15 -0.02 -0.54 -6.30 15.75 4.26 0.84 0.21 12482
0.13 -0.01 0.01 -7.34 13.84 4.27 0.77 0.28 12490
0.09 -0.01 0.31 -8.09 18.26 4.26 0.78 0.34 12496
0.05 -0.00 0.64 -9.03 19.55 4.25 0.81 0.37 12504
0.04 -0.00 1.48 -8.54 17.48 4.23 0.90 0.36 12511
0.06 -0.01 1.37 -8.47 16.94 4.18 0.93 0.32 12518
0.03 -0.00 1.26 -7.77 17.19 4.12 0.94 0.26 12525
0.05 -0.00 1.02 -6.86 16.76 4.06 0.89 0.19 12532
0.06 -0.01 1.06 -6.91 16.60 3.88 0.73 0.11 12539
0.00 -0.00 1.55 -6.20 14.99 3.76 0.57 0.03 12547
0.00 0.00 2.20 -4.44 14.28 3.70 0.48 -0.05 12554
0.00 0.00 2.39 -3.10 15.37 3.72 0.52 -0.09 12561
0.00 0.00 2.04 -1.97 15.89 3.73 0.48 -0.16 12568
0.00 0.00 1.57 4.21 15.30 3.62 0.61 -0.20 12575
0.00 -0.00 2.70 4.81 9.49 3.08 0.84 -0.28 12582
0.00 0.00 2.21 9.04 4.61 2.56 1.03 -0.52 12590
0.00 0.00 -2.50 18.24 -1.52 1.61 0.82 -1.08 12597
0.00 0.00 0.48 14.21 6.83 0.64 0.20 -1.86 12604
0.00 0.00 1.17 8.49 13.12 -0.63 -0.08 -2.12 12611
-0.00 0.00 0.02 5.44 12.19 -1.46 -0.05 -2.33 12618
0.00 0.00 -0.11 5.10 9.75 -1.79 0.10 -2.58 12625
0.00 0.00 -0.01 5.42 7.28 -2.00 0.15 -2.76 12633
0.00 0.00 0.23 5.40 5.78 -2.14 0.11 -2.91 12640
0.00 0.00 0.51 4.98 5.50 -2.28 0.05 -3.00 12647
0.00 0.00 0.77 4.28 5.48 -2.40 -0.04 -3.09 12654
0.00 0.00 0.90 3.76 5.98 -2.51 -0.11 -3.10 12661
0.00 0.00 1.36 3.48 5.09 -2.65 -0.18 -3.05 12668
0.00 0.00 1.59 3.24 6.81 -2.76 -0.24 -2.93 12676
0.00 0.00 2.00 3.27 7.53 -2.95 -0.31 -2.77 12683
0.00 0.00 2.50 3.33 7.73 -3.16 -0.38 -2.53 12690
0.00 0.00 2.84 2.93 8.20 -3.35 -0.39 -2.26 12697
0.00 0.00 3.53 2.22 8.78 -3.56 -0.34 -2.00 12704
0.00 0.00 4.10 1.32 9.12 -3.77 -0.27 -1.70 12711
0.00 0.00 4.37 0.03 9.26 -3.89 -0.19 -1.42 12719
0.00 0.00 4.40 -0.18 9.37 -4.00 -0.08 -1.17 12726
0.00 0.00 4.44 -0.91 9.53 -4.06 -0.01 -0.93 12733
0.00 0.00 4.51 -1.55 9.88 -4.09 0.05 -0.75 12740
0.00 -0.00 4.79 -2.35 10.48 -4.09 0.13 -0.56 12747
0.00 0.00 5.02 -3.12 11.08 -4.06 0.22 -0.39 12754
0.00 0.00 5.46 -3.69 11.58 -3.97 0.37 -0.28 12762
0.00 0.00 5.77 -4.14 11.77 -3.88 0.57 -0.17 12769
0.00 0.00 5.94 -4.50 12.10 -3.76 0.80 -0.10 12776
0.00 0.00 6.03 -5.06 12.43 -3.64 1.14 -0.05 12783
0.00 0.00 5.87 -5.75 13.15 -3.56 1.44 0.02 12790
0.00 0.00 5.30 -6.43 13.70 -3.48 1.78 0.08 12797
0.00 0.00 4.47 -6.92 14.60 -3.41 1.99 0.21 12805
0.00 0.00 3.79 -7.21 15.40 -3.32 2.04 0.38 12812
0.00 0.00 2.99 -7.67 15.80 -3.21 1.98 0.55 12819
0.00 0.00 2.72 -7.95 15.86 -3.11 1.84 0.76 12826
0.00 0.00 2.38 -8.08 15.66 -2.98 1.68 0.92 12833
0.00 0.00 2.42 -8.27 15.06 -2.87 1.50 1.07 12840
0.00 0.00 2.58 -8.40 14.53 -2.72 1.41 1.15 12848
0.00 0.00 2.74 -8.32 14.23 -2.55 1.38 1.22 12855
0.00 0.00 2.72 -8.25 14.05 -2.39 1.44 1.25 12862
0.00 0.00 2.52 -8.00 13.77 -2.18 1.53 1.26 12869
0.00 0.00 2.14 -7.63 13.55 -1.97 1.62 1.25 12876
0.00 0.00 1.52 -7.57 13.26 -1.78 1.65 1.24 12883
0.00 0.00 0.68 -7.64 13.04 -1.54 1.63 1.22 12891
-0.00 0.00 0.08 -7.75 12.68 -1.32 1.57 1.20 12898
0.00 0.00 -0.40 -7.84 12.49 -1.06 1.50 1.17 12905
0.00 0.00 -0.96 -8.00 12.39 -0.78 1.41 1.14 12912
0.00 0.00 -1.36 -8.21 12.40 -0.57 1.32 1.10 12919
0.00 0.00 -1.52 -8.42 12.45 -0.37 1.24 1.07 12926
0.00 0.00 -1.61 -8.62 12.50 -0.25 1.21 1.02 12934
0.00 0.00 -1.68 -8.78 12.63 -0.15 1.20 0.97 12941
0.00 0.00 -1.88 -8.89 12.57 -0.11 1.20 0.91 12948
0.00 0.00 -2.14 -8.89 12.43 -0.13 1.20 0.85 12955
0.00 0.00 -2.11 -8.99 12.25 -0.20 1.21 0.80 12962
0.00 0.00 -2.11 -9.33 12.00 -0.32 1.26 0.74 12969
0.00 0.00 -2.14 -9.64 11.65 -0.42 1.36 0.70 12977
0.00 0.00 -2.28 -10.02 11.17 -0.58 1.52 0.65 12984
0.00 0.00 -2.34 -10.55 10.30 -0.74 1.66 0.61 12991
0.00 0.00 -2.46 -11.01 9.69 -0.91 1.71 0.57 12998
0.00 0.00 -2.72 -11.75 8.86 -1.04 1.74 0.56 13005
0.00 0.00 -2.87 -12.75 7.99 -1.07 1.70 0.56 13012
0.00 0.00 -3.18 -13.40 7.22 -1.05 1.58 0.57 13020
0.00 0.00 -3.37 -14.23 6.42 -0.97 1.39 0.57 13027
0.00 0.00 -3.62 -14.73 5.87 -0.84 1.17 0.57 13034
0.00 0.00 -3.95 -15.01 5.57 -0.67 0.91 0.56 13041
0.00 0.00 -6.41 -17.27 6.84 -0.49 0.63 0.54 13048
0.00 0.00 -14.00 -20.30 12.87 0.27 -0.56 0.63 13056
0.00 0.00 -8.31 -15.58 4.30 0.64 -1.54 0.68 13063
0.00 0.00 -8.17 -12.92 3.04 0.93 -2.20 0.66 13070
0.00 0.00 -6.26 -15.10 4.05 1.11 -2.84 0.63 13077
0.00 0.00 -7.86 -16.34 6.13 1.26 -3.67 0.63 13084
0.00 0.00 -1.71 -4.85 9.90 1.50 -4.28 0.65 13091
-0.00 0.01 -0.48 6.22 16.25 1.80 -3.80 0.54 13099
-0.01 0.07 -5.87 -1.00 19.10 1.95 -2.32 0.75 13106
-0.02 0.18 -3.67 2.50 13.56 1.62 -1.32 0.85 13113
-0.02 0.28 -5.35 0.77 9.99 1.80 -1.22 0.48 13120
-0.02 0.29 -7.28 -5.04 25.30 0.93 -2.07 -0.12 13128
-0.03 0.32 -0.74 -2.41 11.78 0.01 -0.80 -0.27 13135
-0.04 0.35 -0.26 -1.88 10.76 -0.14 -0.15 -0.17 13142
-0.03 0.38 0.74 -2.36 10.94 -0.13 -0.10 -0.09 13150
-0.03 0.43 0.47 -1.72 10.27 -0.08 -0.01 0.03 13156
-0.01 0.46 -0.10 -0.63 10.27 -0.03 0.03 0.02 13163
-0.03 0.51 -0.01 -0.58 9.92 -0.01 0.07 -0.00 13170
0.00 0.45 0.38 -0.73 9.83 -0.01 0.10 0.01 13177
-0.00 0.43 0.43 -0.83 9.81 -0.00 0.12 0.02 13185
0.01 0.47 0.42 -0.70 9.82 -0.01 0.12 0.02 13192
0.01 0.44 0.51 -0.71 9.76 -0.01 0.12 0.00 13199
0.01 0.48 0.56 -0.68 9.75 -0.02 0.11 -0.00 13206
-0.01 0.49 0.47 -0.59 9.74 -0.03 0.09 -0.01 13213
-0.01 0.48 0.45 -0.58 9.78 -0.04 0.09 -0.02 13220
-0.01 0.43 0.46 -0.52 9.76 -0.04 0.08 -0.03 13228
-0.00 0.47 0.47 -0.63 9.67 -0.04 0.03 -0.04 13235
0.00 0.51 0.40 -0.53 9.76 -0.04 0.06 -0.04 13242
0.01 0.52 0.47 -0.54 9.56 -0.04 0.05 -0.05 13249
-0.00 0.56 0.37 -0.57 9.80 -0.03 0.05 -0.04 13256
-0.01 0.54 0.31 -0.55 9.78 -0.02 0.07 -0.04 13263
-0.01 0.55 0.35 -0.68 9.86 -0.02 0.09 -0.04 13271
0.01 0.55 0.38 -0.63 9.82 -0.01 0.11 -0.03 13278
0.02 0.54 0.41 -0.66 9.91 -0.01 0.13 -0.03 13285
0.02 0.53 0.43 -0.64 9.82 0.00 0.13 -0.02 13292
0.02 0.50 0.48 -0.65 9.80 0.01 0.14 -0.02 13299
0.03 0.46 0.43 -0.56 9.81 0.01 0.14 -0.02 13306
0.02 0.47 0.53 -0.60 9.78 0.02 0.13 -0.03 13314
0.03 0.42 0.55 -0.64 9.75 0.03 0.13 -0.04 13321
0.04 0.39 0.54 -0.61 9.76 0.03 0.14 -0.04 13328
0.03 0.38 0.47 -0.61 9.75 0.04 0.14 -0.05 13335
0.03 0.34 0.49 -0.62 9.80 0.04 0.13 -0.05 13342
0.03 0.32 0.45 -0.58 9.78 0.04 0.14 -0.05 13349
0.04 0.27 0.55 -0.64 9.82 0.04 0.14 -0.05 13357
0.04 0.22 0.51 -0.65 9.81 0.04 0.14 -0.04 13364
0.06 0.16 0.52 -0.68 9.81 0.04 0.15 -0.04 13371
0.03 0.20 0.60 -0.70 9.81 0.04 0.16 -0.04 13378
0.05 0.09 0.61 -0.65 9.78 0.05 0.15 -0.04 13385
0.06 0.07 0.60 -0.59 9.76 0.04 0.15 -0.04 13392
0.06 0.06 0.61 -0.67 9.77 0.05 0.14 -0.04 13400
0.07 0.07 0.59 -0.69 9.21 0.05 0.14 -0.05 13407
0.08 0.03 0.60 -0.65 9.79 0.05 0.13 -0.04 13414
0.07 0.01 0.61 -0.71 9.82 0.05 0.14 -0.05 13421
0.08 0.01 0.65 -0.71 9.80 0.05 0.14 -0.05 13428
0.07 0.00 0.63 -0.63 9.82 0.05 0.14 -0.05 13435
0.08 0.00 0.63 -0.70 9.79 0.05 0.13 -0.05 13443
0.09 0.00 0.62 -0.68 9.82 0.05 0.13 -0.05 13450
0.09 -0.01 0.70 -0.64 9.76 0.05 0.12 -0.06 13457
0.08 -0.01 0.66 -0.69 9.80 0.05 0.11 -0.06 13464
0.08 -0.01 0.70 -0.68 9.81 0.05 0.10 -0.06 13471
0.08 0.00 0.66 -0.64 9.70 0.05 0.09 -0.07 13478
0.11 0.00 0.68 -0.69 9.80 0.06 0.07 -0.07 13486
0.09 0.00 0.75 -0.71 9.82 0.06 0.05 -0.08 13493
0.10 -0.01 0.56 -0.65 9.80 0.06 0.04 -0.08 13500
0.10 -0.01 0.78 -0.76 9.79 0.07 0.03 -0.09 13507
0.09 -0.01 0.79 -0.78 9.77 0.07 0.01 -0.10 13514
0.10 -0.01 0.66 -0.74 9.81 0.08 -0.00 -0.10 13521
0.11 -0.00 0.75 -0.74 9.89 0.09 -0.01 -0.12 13529
0.12 -0.01 0.73 -0.79 9.77 0.10 -0.01 -0.12 13536
0.15 -0.01 0.63 -0.82 9.79 0.10 0.01 -0.13 13543
0.16 -0.02 0.52 -0.82 9.78 0.10 0.03 -0.13 13550
0.13 -0.01 0.58 -0.80 9.85 0.11 0.06 -0.13 13557
0.17 -0.01 0.55 -0.82 9.87 0.13 0.09 -0.12 13564
0.17 -0.00 0.56 -0.80 9.86 0.16 0.11 -0.11 13572
0.22 -0.02 0.63 -0.84 9.82 0.19 0.13 -0.10 13579
0.23 -0.02 0.60 -0.86 9.83 0.20 0.14 -0.10 13586
0.24 -0.02 0.65 -0.91 9.78 0.23 0.15 -0.09 13593
0.22 -0.02 0.56 -0.88 9.84 0.25 0.15 -0.08 13600
0.23 -0.01 0.61 -0.92 9.89 0.29 0.14 -0.08 13607
0.26 -0.02 0.62 -0.98 9.81 0.34 0.14 -0.08 13615
0.28 -0.02 0.70 -1.00 9.90 0.38 0.14 -0.08 13622
0.29 -0.01 0.77 -1.02 10.00 0.43 0.13 -0.09 13629
0.34 -0.02 0.80 -1.04 10.10 0.48 0.13 -0.09 13636
0.37 -0.02 0.79 -1.11 10.07 0.54 0.12 -0.10 13643
0.39 -0.02 0.81 -1.15 9.92 0.61 0.10 -0.12 13650
0.42 -0.02 0.78 -1.31 10.10 0.66 0.07 -0.13 13659
0.42 -0.03 0.87 -1.32 9.99 0.71 0.10 -0.14 13665
0.43 -0.02 0.67 -1.18 10.44 0.76 0.10 -0.15 13673
0.46 -0.03 0.75 -1.43 10.52 0.81 0.09 -0.16 13680
0.48 -0.02 1.10 -1.83 10.38 0.90 0.07 -0.17 13687
0.52 -0.02 0.63 -1.49 10.76 0.98 0.05 -0.18 13694
0.54 -0.03 0.66 -1.62 10.31 1.05 0.03 -0.18 13702
0.55 -0.03 0.93 -1.72 10.05 1.12 0.01 -0.18 13709
0.57 -0.03 0.33 -1.65 11.19 1.18 0.01 -0.17 13716
0.59 -0.03 0.78 -1.98 10.80 1.26 0.01 -0.16 13722
0.61 -0.03 0.69 -1.99 10.45 1.33 0.01 -0.15 13730
0.63 -0.02 0.31 -1.94 11.11 1.42 0.02 -0.15 13737
0.65 -0.03 0.97 -2.43 10.78 1.54 0.06 -0.15 13745
0.66 -0.03 0.60 -2.19 10.96 1.63 0.12 -0.15 13752
0.68 -0.04 0.89 -2.31 10.89 1.77 0.18 -0.16 13759
0.66 -0.03 0.95 -2.67 11.06 1.88 0.21 -0.17 13766
0.64 -0.04 0.85 -2.79 11.29 2.03 0.26 -0.17 13773
0.61 -0.02 0.61 -2.84 11.18 2.18 0.35 -0.16 13780
0.55 -0.03 0.56 -2.93 11.52 2.33 0.49 -0.14 13788
0.45 -0.03 0.85 -3.22 11.49 2.52 0.66 -0.14 13795
0.38 -0.03 0.82 -3.44 11.65 2.72 0.90 -0.13 13802
0.26 -0.02 0.17 -3.66 12.78 2.89 1.11 -0.11 13809
0.20 -0.02 0.81 -3.76 13.94 3.11 1.28 -0.04 13815
0.16 -0.01 0.04 -4.04 12.84 3.33 1.61 0.05 13822
0.10 -0.01 -0.35 -4.46 13.62 3.52 1.80 0.15 13830
0.07 -0.01 0.29 -5.18 13.84 3.68 1.98 0.29 13837
0.04 -0.00 0.82 -5.63 15.33 3.76 2.16 0.40 13844
0.03 -0.00 1.12 -7.08 15.11 3.80 2.23 0.50 13851
0.02 -0.00 1.67 -7.34 18.14 3.80 2.29 0.60 13858
0.03 -0.00 2.96 -7.49 17.28 3.86 2.28 0.61 13865
0.02 -0.00 3.44 -7.31 16.20 3.86 2.27 0.56 13873
0.02 -0.00 3.88 -7.39 16.08 3.83 2.18 0.48 13880
0.00 0.00 4.50 -7.04 15.55 3.80 2.14 0.40 13887
0.00 0.00 5.58 -6.89 15.77 3.76 2.23 0.31 13894
0.00 0.00 5.66 -6.78 15.65 3.71 2.41 0.22 13901
0.00 0.00 4.89 -5.92 16.23 3.68 2.64 0.05 13908
0.00 0.00 2.94 -5.53 15.86 3.68 2.70 -0.14 13916
0.00 0.00 1.68 -4.36 15.51 3.71 2.48 -0.30 13923
0.00 0.00 -0.06 -2.88 14.25 3.73 2.02 -0.47 13930
0.00 0.00 -0.34 -0.96 12.96 3.59 1.58 -0.57 13937
0.00 0.00 -0.16 0.43 10.28 3.27 1.04 -0.54 13944
0.00 0.00 -0.28 2.55 9.84 3.01 0.37 -0.52 13952
0.00 0.00 -0.06 5.09 6.08 2.56 -0.22 -0.50 13959
0.00 0.00 -3.01 18.88 -0.04 1.95 -1.25 -0.48 13966
0.00 0.00 -5.40 12.84 6.41 1.30 -2.52 -0.92 13973
0.00 0.00 -2.00 5.79 14.16 -0.23 -3.28 -1.23 13980
0.00 0.00 0.39 3.87 11.94 -0.97 -3.86 -1.48 13987
0.01 -0.00 1.28 3.89 12.72 -1.22 -3.79 -1.70 13995
0.00 0.00 1.92 3.98 10.25 -1.40 -3.17 -2.12 14002
0.00 0.00 2.84 4.09 7.43 -1.52 -2.60 -2.63 14009
0.00 0.00 3.18 4.57 6.85 -1.71 -2.05 -3.01 14016
0.00 0.00 2.67 4.78 7.15 -1.94 -1.55 -3.37 14023
0.00 0.00 2.31 4.60 7.64 -2.27 -1.18 -3.61 14030
0.00 -0.00 1.88 4.39 8.16 -2.63 -0.91 -3.82 14038
0.00 0.00 1.46 3.99 8.48 -2.93 -0.79 -3.91 14045
0.00 0.00 1.14 3.63 8.01 -3.24 -0.75 -3.91 14052
0.00 0.00 1.25 3.06 7.88 -3.47 -0.83 -3.84 14059
0.00 0.00 1.54 2.73 7.90 -3.67 -0.96 -3.72 14066
0.00 -0.00 1.96 2.44 8.66 -3.81 -1.11 -3.60 14073
0.00 0.00 3.02 1.77 9.40 -3.89 -1.18 -3.37 14081
0.00 0.00 3.20 0.94 10.03 -3.96 -1.17 -3.13 14088
0.00 0.00 4.19 0.47 10.02 -4.07 -1.09 -2.83 14095
0.00 0.00 4.79 0.51 10.04 -4.11 -1.02 -2.56 14102
0.00 0.00 5.30 0.20 9.94 -4.16 -0.91 -2.30 14109
0.00 -0.00 6.04 -0.79 10.13 -4.17 -0.72 -2.03 14116
0.00 0.00 6.48 -1.84 10.32 -4.16 -0.50 -1.82 14124
0.00 0.00 6.93 -3.16 10.88 -4.10 -0.17 -1.59 14131
0.00 0.00 7.30 -4.18 11.54 -4.00 0.15 -1.37 14138
0.00 0.00 7.51 -4.71 12.06 -3.86 0.52 -1.16 14145
0.00 0.00 7.30 -5.02 12.66 -3.76 0.82 -0.88 14152
0.00 0.00 7.05 -5.25 13.25 -3.65 1.02 -0.61 14159
0.00 0.00 6.90 -5.78 13.94 -3.54 1.21 -0.26 14167
0.00 0.00 6.67 -6.51 14.51 -3.44 1.37 0.11 14174
0.00 0.00 6.20 -7.08 14.91 -3.30 1.49 0.42 14181
0.00 0.00 5.84 -7.50 15.11 -3.15 1.55 0.76 14188
0.00 0.00 5.51 -7.58 14.94 -3.02 1.59 1.06 14195
0.00 0.00 5.16 -7.69 14.57 -2.84 1.65 1.29 14202
0.00 0.00 4.90 -7.79 14.26 -2.67 1.76 1.48 14210
0.00 0.00 4.31 -7.89 14.20 -2.47 1.84 1.60 14217
0.00 0.00 3.59 -7.96 14.19 -2.26 1.95 1.70 14224
0.00 0.00 2.91 -7.83 14.14 -2.08 2.02 1.76 14231
0.00 0.00 2.17 -7.60 14.13 -1.89 2.05 1.78 14238
0.00 0.00 1.26 -7.53 14.02 -1.73 2.00 1.77 14245
0.00 0.00 0.51 -7.47 13.88 -1.56 1.89 1.74 14253
0.00 0.00 0.06 -7.48 13.72 -1.39 1.70 1.66 14260
0.00 0.00 -0.05 -7.25 13.93 -1.26 1.52 1.55 14267
0.00 0.00 0.06 -7.24 14.22 -1.15 1.38 1.44 14274
0.00 0.00 0.02 -7.13 13.99 -1.08 1.31 1.30 14281
0.00 0.00 -0.05 -7.05 13.71 -1.04 1.26 1.19 14288
0.00 0.00 -0.24 -7.30 13.59 -1.00 1.22 1.05 14296
0.00 0.00 -0.37 -7.83 13.16 -0.95 1.20 0.91 14303
0.00 0.00 -0.16 -8.37 13.06 -0.85 1.27 0.79 14310
0.00 0.00 -0.06 -9.12 12.49 -0.71 1.40 0.63 14317
0.00 0.00 -0.16 -9.54 11.66 -0.62 1.54 0.47 14324
0.00 0.00 -0.20 -9.92 11.29 -0.52 1.71 0.35 14331
0.00 0.00 0.03 -10.31 11.59 -0.48 1.87 0.21 14339
0.00 0.00 0.00 -10.39 11.66 -0.52 2.07 0.09 14346
0.00 0.00 -0.52 -10.31 11.72 -0.68 2.23 -0.02 14353
0.00 0.00 -1.43 -10.22 11.47 -0.87 2.31 -0.08 14360
0.00 0.00 -3.02 -10.19 11.09 -1.12 2.27 -0.08 14367
0.00 0.00 -4.40 -10.47 10.61 -1.31 2.09 -0.02 14374
0.00 0.00 -5.44 -10.83 9.32 -1.44 1.84 0.08 14382
0.00 0.00 -6.77 -11.94 9.02 -1.46 1.39 0.23 14389
0.00 0.00 -8.38 -14.64 8.50 -1.35 0.81 0.37 14396
0.00 0.00 -9.39 -15.74 7.91 -0.99 -0.22 0.47 14403
0.00 0.00 -7.68 -14.84 6.17 -0.69 -1.24 0.53 14410
0.00 0.00 -3.66 -13.58 3.20 -0.46 -1.73 0.52 14417
0.00 0.00 -3.77 -17.41 4.67 -0.17 -2.15 0.49 14425
0.00 0.00 -3.03 -17.70 8.42 0.28 -2.50 0.50 14432
0.00 0.00 -0.63 -15.27 5.04 0.76 -2.37 0.52 14439
0.00 0.00 -1.87 -15.39 3.77 1.13 -2.05 0.57 14446
0.00 0.00 -3.13 -16.83 7.02 1.56 -1.83 1.00 14453
0.00 0.00 -5.21 -12.45 8.63 1.99 -1.44 1.65 14460
-0.00 0.00 -0.78 1.70 9.55 2.15 -0.76 2.28 14468
-0.01 0.09 -4.90 -3.44 11.45 2.38 -0.52 2.46 14475
-0.03 0.27 -10.52 -0.74 13.73 2.68 -0.73 2.21 14483
-0.01 0.33 -12.63 -1.22 14.99 2.85 -1.05 1.31 14490
-0.02 0.36 -10.54 -3.87 19.62 3.00 -1.41 0.43 14497
-0.02 0.33 -5.05 -6.52 37.18 1.80 -2.35 -0.38 14504
-0.03 0.32 1.24 -2.91 12.53 0.15 -1.05 -0.37 14512
-0.04 0.37 0.48 -2.24 10.72 -0.16 -0.23 -0.15 14518
-0.03 0.38 0.81 -1.89 9.87 -0.13 -0.20 -0.16 14525
-0.01 0.38 1.53 -1.27 9.60 -0.02 -0.21 -0.07 14532
-0.02 0.40 0.62 -0.60 9.91 0.05 -0.13 0.02 14539
-0.03 0.41 -0.05 -0.91 9.89 0.03 -0.07 -0.01 14546
-0.02 0.42 -0.03 -1.29 10.00 0.00 -0.03 -0.03 14554
-0.03 0.41 0.43 -1.10 9.82 -0.00 0.01 -0.02 14561
0.01 0.45 0.50 -0.98 9.81 -0.00 0.04 -0.01 14568
0.05 0.46 0.35 -1.06 9.88 -0.01 0.04 -0.02 14575
0.03 0.47 0.54 -1.03 9.67 -0.01 0.02 -0.04 14582
0.04 0.48 0.64 -0.94 9.67 -0.02 -0.00 -0.05 14589
0.03 0.49 0.56 -1.00 9.78 -0.02 -0.03 -0.06 14597
0.03 0.47 0.48 -0.98 9.91 -0.02 -0.04 -0.07 14604
0.04 0.50 0.31 -0.98 9.82 -0.02 -0.04 -0.09 14611
0.04 0.48 0.35 -0.95 9.75 -0.02 -0.03 -0.08 14618
0.03 0.48 0.24 -0.96 9.90 -0.02 -0.02 -0.09 14625
0.03 0.48 0.27 -0.93 9.86 -0.02 0.00 -0.08 14632
0.01 0.47 0.27 -0.95 9.79 -0.01 0.02 -0.08 14640
0.03 0.46 0.27 -0.97 9.85 -0.01 0.03 -0.07 14647
0.03 0.45 0.36 -0.94 9.81 -0.01 0.04 -0.06 14654
0.04 0.45 0.40 -0.93 10.41 -0.00 0.05 -0.06 14661
0.03 0.42 0.45 -0.94 9.84 0.00 0.05 -0.06 14668
0.04 0.40 0.46 -0.98 9.80 0.01 0.04 -0.07 14675
0.04 0.38 0.49 -0.91 9.81 0.01 0.03 -0.08 14683
0.06 0.35 0.48 -0.94 9.82 0.01 0.03 -0.09 14690
0.08 0.36 0.42 -0.96 9.79 0.02 0.03 -0.09 14697
0.07 0.33 0.37 -0.99 9.83 0.02 0.02 -0.10 14704
0.07 0.28 0.35 -0.96 9.83 0.02 0.03 -0.10 14711
0.08 0.27 0.34 -0.98 9.83 0.02 0.03 -0.10 14718
0.07 0.26 0.40 -0.98 9.82 0.02 0.03 -0.10 14726
0.09 0.23 0.33 -0.94 9.84 0.02 0.03 -0.10 14733
0.13 0.20 0.33 -0.94 9.82 0.03 0.04 -0.09 14740
0.11 0.21 0.34 -0.97 9.82 0.03 0.05 -0.09 14747
0.13 0.11 0.36 -0.97 9.80 0.04 0.06 -0.09 14754
0.13 0.05 0.39 -0.95 9.79 0.04 0.06 -0.09 14761
0.15 0.04 0.40 -0.99 9.76 0.04 0.07 -0.09 14769
0.17 0.04 0.40 -1.05 9.82 0.04 0.07 -0.09 14776
0.21 -0.00 0.41 -0.93 9.80 0.04 0.07 -0.09 14783
0.22 -0.01 0.42 -1.02 9.82 0.04 0.07 -0.09 14790
0.23 -0.00 0.40 -1.00 9.82 0.04 0.07 -0.09 14797
0.21 0.01 0.41 -1.04 9.81 0.05 0.07 -0.09 14804
0.26 -0.00 0.43 -1.04 9.84 0.05 0.07 -0.09 14812
0.27 -0.01 0.39 -1.03 9.84 0.05 0.07 -0.09 14819
0.33 -0.01 0.40 -1.02 9.77 0.06 0.07 -0.10 14826
0.37 -0.02 0.48 -1.04 9.84 0.06 0.06 -0.10 14833
0.38 -0.02 0.43 -1.04 9.82 0.07 0.06 -0.10 14840
0.41 -0.01 0.45 -1.08 9.83 0.09 0.06 -0.10 14848
0.47 -0.02 0.40 -1.08 9.86 0.10 0.06 -0.10 14855
0.53 -0.02 0.44 -1.03 9.89 0.13 0.07 -0.10 14862
0.57 -0.03 0.46 -1.08 9.90 0.15 0.07 -0.11 14869
0.59 -0.03 0.43 -1.12 9.86 0.18 0.07 -0.11 14876
0.65 -0.04 0.41 -1.15 9.97 0.21 0.07 -0.12 14883
0.70 -0.03 0.46 -1.18 10.00 0.24 0.07 -0.12 14891
0.74 -0.03 0.51 -1.20 9.97 0.28 0.08 -0.13 14898
0.77 -0.03 0.46 -1.20 9.97 0.34 0.08 -0.13 14905
0.83 -0.03 0.43 -1.20 10.02 0.40 0.09 -0.13 14912
0.84 -0.03 0.45 -1.29 10.11 0.46 0.09 -0.13 14920
0.87 -0.03 0.49 -1.32 10.01 0.52 0.09 -0.13 14927
0.87 -0.02 0.50 -1.36 9.86 0.55 0.09 -0.13 14934
0.92 -0.02 0.56 -1.42 9.85 0.57 0.08 -0.14 14941
0.95 -0.03 0.48 -1.46 9.88 0.58 0.07 -0.14 14948
0.97 -0.03 0.45 -1.49 9.89 0.58 0.07 -0.14 14955
0.98 -0.04 0.48 -1.59 9.85 0.59 0.05 -0.15 14962
0.97 -0.03 0.45 -1.64 9.84 0.58 0.05 -0.14 14969
0.99 -0.04 0.48 -1.69 9.82 0.57 0.04 -0.14 14977
1.01 -0.03 0.58 -1.70 9.80 0.58 0.04 -0.14 14984
1.04 -0.04 0.51 -1.71 9.82 0.58 0.04 -0.15 14991
1.06 -0.04 0.47 -1.80 9.81 0.59 0.03 -0.15 14998
1.07 -0.05 0.46 -1.88 9.79 0.60 0.02 -0.16 15005
1.06 -0.05 0.49 -1.89 9.76 0.60 0.01 -0.16 15012
1.09 -0.04 0.46 -1.90 9.85 0.60 0.00 -0.16 15020
1.10 -0.03 0.43 -1.96 10.06 0.63 0.01 -0.17 15028
1.13 -0.04 0.58 -1.99 10.15 0.68 0.01 -0.17 15035
1.15 -0.05 0.52 -2.21 10.17 0.74 -0.00 -0.18 15042
1.16 -0.05 0.40 -2.17 9.84 0.81 -0.01 -0.19 15048
1.20 -0.05 0.36 -2.24 10.88 0.89 -0.01 -0.18 15056
1.23 -0.05 0.43 -2.39 10.30 0.98 -0.02 -0.18 15064
1.25 -0.04 0.40 -2.31 10.36 1.08 -0.03 -0.18 15071
1.28 -0.05 0.17 -2.36 10.76 1.15 -0.03 -0.17 15078
1.27 -0.05 0.16 -2.47 10.70 1.25 -0.02 -0.17 15085
1.27 -0.05 0.42 -2.53 10.44 1.34 -0.02 -0.16 15092
1.29 -0.05 0.29 -2.75 10.55 1.42 -0.02 -0.16 15099
1.31 -0.04 0.50 -2.94 10.53 1.52 -0.03 -0.17 15107
1.32 -0.04 0.42 -2.84 10.33 1.63 -0.05 -0.16 15114
1.32 -0.05 0.34 -3.02 10.66 1.69 -0.06 -0.20 15121
1.32 -0.05 0.17 -3.13 10.64 1.80 -0.06 -0.16 15128
1.30 -0.05 0.03 -3.12 11.44 1.91 -0.00 -0.14 15134
1.25 -0.05 0.38 -3.25 11.94 2.07 -0.01 -0.13 15142
1.17 -0.03 1.09 -3.58 11.46 2.27 0.03 -0.17 15150
1.10 -0.04 0.20 -3.54 10.63 2.42 0.05 -0.22 15157
0.98 -0.03 -0.12 -3.54 11.71 2.61 0.09 -0.21 15164
0.85 -0.04 -0.35 -3.95 12.26 2.85 0.24 -0.18 15171
0.70 -0.04 -0.51 -4.54 11.69 3.11 0.31 -0.12 15178
0.52 -0.02 -0.59 -4.70 15.19 3.41 0.44 -0.06 15185
0.30 -0.01 0.51 -5.40 14.91 3.68 0.48 -0.03 15192
0.25 -0.02 0.34 -6.16 14.77 3.93 0.47 -0.01 15200
0.18 -0.02 0.71 -7.02 14.13 4.10 0.46 0.00 15206
0.12 -0.01 0.56 -7.86 16.04 4.16 0.45 0.03 15213
0.07 -0.01 1.63 -9.36 17.34 4.17 0.56 0.05 15220
0.07 -0.01 2.83 -9.32 18.56 4.17 0.77 0.06 15227
0.06 -0.01 3.36 -8.90 17.16 4.13 1.08 0.02 15235
0.05 -0.01 3.02 -8.19 16.79 4.05 1.24 -0.05 15242
0.10 -0.01 2.58 -8.00 16.84 3.94 1.33 -0.10 15249
0.07 -0.01 1.65 -7.79 16.99 3.77 1.35 -0.22 15256
0.00 0.00 1.10 -6.70 16.39 3.63 1.22 -0.36 15263
0.00 0.00 0.89 -4.99 15.14 3.54 0.98 -0.46 15270
0.00 -0.00 1.17 -2.75 15.63 3.54 0.79 -0.54 15278
0.00 0.00 1.31 -1.66 16.47 3.62 0.56 -0.62 15285
0.00 0.00 0.62 0.17 15.59 3.67 0.34 -0.69 15292
0.00 0.00 0.91 4.67 13.01 3.57 0.27 -0.71 15299
0.00 0.00 1.05 7.05 7.45 3.23 0.25 -0.75 15306
0.00 0.00 -1.63 14.85 1.65 2.52 0.05 -0.99 15313
0.00 0.00 -1.36 18.91 -1.11 1.57 -0.33 -1.52 15321
0.01 -0.00 -0.47 11.71 10.47 0.20 -0.93 -1.78 15328
0.01 -0.00 -0.80 6.99 14.69 -0.68 -0.97 -1.94 15335
0.00 0.00 -0.09 5.93 12.20 -1.31 -0.71 -2.12 15342
0.00 0.00 -0.23 6.09 9.08 -1.55 -0.45 -2.31 15349
0.00 0.00 -0.07 6.27 7.03 -1.69 -0.28 -2.46 15356
0.01 -0.00 0.39 6.32 6.12 -1.89 -0.10 -2.56 15364
0.00 0.00 0.91 5.91 6.20 -2.06 0.13 -2.66 15371
0.00 0.00 0.88 5.43 6.82 -2.27 0.34 -2.70 15378
0.00 0.00 0.48 5.04 7.87 -2.53 0.55 -2.66 15385
0.00 0.00 0.26 4.78 9.03 -2.79 0.66 -2.57 15392
-0.00 0.00 -0.06 4.62 8.93 -3.10 0.66 -2.47 15399
0.00 0.00 -0.09 4.12 9.12 -3.37 0.53 -2.33 15407
0.00 0.00 0.13 3.36 9.26 -3.67 0.35 -2.22 15414
0.00 0.00 0.59 2.18 9.34 -3.90 0.18 -2.09 15421
0.00 0.00 1.25 0.96 9.48 -4.03 0.10 -1.96 15428
0.00 0.00 1.94 0.07 9.58 -4.10 0.08 -1.86 15435
0.00 0.00 2.59 -0.83 9.75 -4.11 0.15 -1.75 15442
0.00 0.00 2.86 -1.56 9.77 -4.10 0.25 -1.66 15450
0.00 0.00 3.29 -2.06 10.12 -4.07 0.38 -1.56 15457
0.00 0.00 3.71 -2.50 11.02 -4.05 0.51 -1.46 15464
0.00 0.00 4.13 -2.92 11.84 -4.04 0.67 -1.38 15471
0.00 0.00 4.29 -3.70 12.47 -4.05 0.86 -1.28 15478
0.00 0.00 4.49 -4.30 13.07 -4.04 1.03 -1.15 15485
0.00 0.00 4.55 -5.13 13.29 -4.03 1.23 -1.02 15493
0.00 0.00 4.56 -6.10 13.29 -3.99 1.49 -0.83 15500
0.00 0.00 4.38 -7.13 13.80 -3.90 1.70 -0.63 15507
0.00 0.00 3.91 -7.95 13.93 -3.74 1.86 -0.36 15514
0.00 0.00 3.57 -8.43 13.87 -3.56 1.93 -0.03 15521
0.00 0.00 3.06 -8.53 13.70 -3.31 1.88 0.27 15528
0.00 0.00 2.89 -8.15 13.59 -3.08 1.71 0.64 15536
0.00 0.00 3.19 -7.54 13.19 -2.85 1.53 0.93 15543
0.00 0.00 3.72 -7.16 12.99 -2.64 1.38 1.21 15550
0.00 0.00 3.77 -7.16 13.31 -2.47 1.33 1.44 15557
-0.00 0.00 3.93 -7.13 13.10 -2.25 1.39 1.60 15564
0.00 -0.00 3.86 -7.11 13.15 -2.02 1.54 1.73 15571
0.00 0.00 3.47 -6.91 13.20 -1.83 1.70 1.81 15579
0.00 0.00 2.72 -6.80 13.44 -1.62 1.87 1.88 15586
0.00 0.00 1.77 -6.77 13.90 -1.45 1.98 1.93 15593
0.00 0.00 0.94 -6.78 14.15 -1.28 2.04 1.97 15600
-0.00 0.00 0.12 -6.96 14.48 -1.15 1.98 1.99 15607
0.00 0.00 -0.32 -7.27 14.78 -1.08 1.88 1.98 15614
0.00 0.00 -0.90 -7.26 15.19 -1.04 1.68 1.96 15622
0.00 0.00 -1.36 -7.26 15.30 -1.06 1.43 1.92 15629
0.00 0.00 -1.65 -7.28 15.20 -1.09 1.20 1.87 15636
0.00 0.00 -1.87 -7.91 14.79 -1.12 0.96 1.77 15643
0.00 0.00 -2.63 -9.42 14.13 -1.10 0.75 1.66 15650
0.00 0.00 -1.31 -8.99 14.45 -1.00 0.58 1.56 15657
0.00 0.00 -1.03 -9.08 11.24 -1.07 0.57 1.38 15665
0.00 0.00 -1.14 -10.16 11.41 -1.08 0.66 1.17 15672
0.00 0.00 -0.56 -11.18 11.19 -1.07 0.80 1.01 15679
0.00 0.00 -1.12 -11.48 11.28 -1.07 0.96 0.79 15686
0.00 -0.00 -0.65 -11.75 10.92 -1.09 1.09 0.60 15693
0.00 0.00 -0.54 -11.64 10.15 -1.12 1.24 0.40 15700
0.00 0.00 -0.41 -11.53 9.26 -1.16 1.36 0.20 15708
0.00 0.00 -0.49 -11.58 8.50 -1.19 1.50 0.08 15715
0.00 0.00 -0.73 -11.97 7.67 -1.17 1.71 -0.01 15722
0.00 0.00 -3.81 -15.80 10.30 -1.00 1.70 -0.01 15729
0.00 0.00 -6.72 -15.22 10.31 -0.40 1.02 0.13 15736
0.00 0.00 -5.96 -13.54 5.33 -0.31 0.57 0.24 15744
0.00 0.00 -5.24 -13.80 3.25 -0.05 0.10 0.42 15751
0.00 0.00 -6.01 -15.74 5.52 0.13 -0.61 0.68 15758
0.00 0.00 -5.75 -17.00 6.12 0.31 -1.04 0.84 15765
0.00 0.00 -4.73 -16.82 7.31 0.62 -1.56 0.99 15772
0.00 0.00 -5.38 -19.89 3.53 0.87 -1.83 1.14 15779
-0.00 0.00 -5.57 -21.95 2.94 1.25 -2.11 1.33 15787
0.00 0.00 -5.90 -19.14 4.75 1.75 -1.94 1.77 15794
-0.00 0.00 -2.59 1.80 8.67 2.41 -1.36 2.12 15801
-0.01 0.14 -10.40 -5.18 10.13 2.85 -1.23 2.01 15809
-0.02 0.27 -11.59 -0.23 16.88 3.19 -1.62 1.38 15816
-0.02 0.30 -9.86 -1.08 19.98 3.20 -1.79 0.55 15823
-0.02 0.35 -5.88 -7.24 35.69 1.43 -2.38 -0.16 15831
-0.03 0.31 -1.25 -2.90 9.67 -0.13 -0.44 -0.23 15837
-0.03 0.31 0.29 -1.88 10.39 -0.24 -0.18 -0.26 15844
-0.02 0.34 1.18 -2.37 10.83 -0.14 -0.23 -0.21 15852
-0.03 0.36 1.52 -1.63 9.91 -0.04 -0.13 -0.01 15858
-0.01 0.35 0.02 -0.72 10.10 0.03 -0.03 0.03 15865
-0.02 0.37 -0.45 -1.14 10.13 0.01 0.00 -0.03 15873
-0.02 0.37 0.24 -1.02 9.76 -0.01 0.05 -0.03 15880
-0.03 0.40 0.51 -0.87 9.80 -0.02 0.08 -0.00 15887
-0.01 0.40 0.30 -0.91 9.81 -0.01 0.10 -0.00 15894
0.00 0.41 0.34 -0.99 9.88 -0.03 0.10 -0.01 15901
-0.00 0.40 0.64 -0.90 9.80 -0.03 0.09 -0.02 15908
-0.01 0.41 0.54 -0.87 9.76 -0.03 0.08 -0.02 15916
-0.01 0.42 0.49 -0.85 9.75 -0.04 0.06 -0.03 15923
-0.03 0.46 0.51 -0.81 9.75 -0.04 0.06 -0.04 15930
-0.02 0.44 0.51 -0.80 9.72 -0.03 0.05 -0.04 15937
-0.00 0.46 0.54 -0.73 9.53 -0.03 0.05 -0.04 15944
-0.00 0.46 0.39 -0.76 9.69 -0.03 0.05 -0.04 15951
-0.01 0.47 0.46 -0.81 9.77 -0.03 0.05 -0.05 15959
-0.01 0.46 0.46 -0.84 9.84 -0.02 0.07 -0.05 15966
-0.00 0.46 0.39 -0.85 9.83 -0.02 0.08 -0.05 15973
0.01 0.47 0.41 -0.84 9.87 -0.02 0.10 -0.04 15980
0.02 0.45 0.37 -0.75 9.88 -0.01 0.11 -0.05 15987
0.01 0.43 0.42 -0.81 9.81 -0.00 0.12 -0.04 15994
0.01 0.40 0.40 -0.81 9.82 -0.00 0.13 -0.04 16002
0.00 0.41 0.50 -0.90 9.75 0.01 0.13 -0.04 16009
0.01 0.39 0.52 -0.85 9.77 0.01 0.12 -0.04 16016
0.01 0.39 0.56 -0.86 9.78 0.01 0.12 -0.04 16023
0.02 0.34 0.64 -0.90 9.81 0.02 0.11 -0.05 16030
0.03 0.32 0.58 -0.85 9.81 0.02 0.11 -0.05 16037
0.03 0.31 0.54 -0.82 9.77 0.03 0.11 -0.05 16045
0.02 0.31 0.57 -0.86 9.77 0.03 0.10 -0.06 16052
0.03 0.26 0.55 -0.84 9.76 0.03 0.09 -0.06 16059
0.04 0.24 0.51 -0.87 9.82 0.03 0.09 -0.06 16066
0.06 0.22 0.50 -0.83 9.75 0.03 0.09 -0.06 16073
0.07 0.19 0.49 -0.84 9.81 0.03 0.09 -0.06 16080
0.07 0.13 0.54 -0.88 9.78 0.02 0.09 -0.05 16088
0.06 0.14 0.53 -0.91 9.73 0.03 0.09 -0.06 16095
0.06 0.17 0.55 -0.87 9.81 0.02 0.09 -0.06 16102
0.06 0.13 0.60 -0.83 9.78 0.02 0.08 -0.06 16109
0.06 0.07 0.60 -0.89 9.76 0.02 0.08 -0.06 16116
0.06 0.06 0.58 -0.86 9.75 0.02 0.07 -0.06 16123
0.06 0.10 0.59 -0.86 9.79 0.02 0.06 -0.06 16131
0.06 0.04 0.61 -0.86 9.71 0.02 0.06 -0.07 16138
0.07 0.03 0.58 -0.88 9.75 0.02 0.05 -0.07 16145
0.08 0.02 0.59 -0.84 9.74 0.02 0.05 -0.07 16152
0.09 0.02 0.56 -0.87 9.78 0.03 0.05 -0.07 16159
0.09 0.06 0.63 -0.82 9.55 0.02 0.05 -0.07 16166
0.09 0.02 0.56 -0.91 9.81 0.02 0.05 -0.07 16174
0.12 0.00 0.58 -0.90 9.81 0.02 0.05 -0.07 16181
0.11 0.03 0.55 -0.91 9.81 0.02 0.05 -0.07 16188
0.12 0.01 0.57 -0.91 9.78 0.01 0.05 -0.07 16195
0.10 0.01 0.55 -0.93 9.76 0.01 0.05 -0.07 16202
0.12 0.00 0.54 -0.90 9.78 0.02 0.05 -0.06 16209
0.10 0.00 0.59 -0.88 9.81 0.02 0.06 -0.06 16217
0.11 0.01 0.59 -0.92 9.80 0.02 0.06 -0.06 16224
0.09 0.02 0.60 -0.89 9.80 0.03 0.06 -0.06 16231
0.12 0.00 0.58 -0.90 9.82 0.03 0.06 -0.06 16238
0.14 -0.01 0.64 -0.92 9.80 0.04 0.06 -0.06 16245
0.15 -0.02 0.58 -0.90 9.79 0.04 0.06 -0.07 16252
0.20 -0.01 0.63 -0.91 9.82 0.04 0.06 -0.07 16260
0.20 -0.01 0.60 -0.91 9.80 0.04 0.07 -0.07 16267
0.22 -0.01 0.58 -0.91 9.80 0.05 0.07 -0.08 16274
0.25 -0.01 0.64 -0.93 9.80 0.06 0.07 -0.08 16281
0.25 -0.02 0.66 -0.96 9.80 0.06 0.07 -0.08 16288
0.24 -0.02 0.66 -0.97 9.80 0.07 0.07 -0.08 16295
0.24 -0.01 0.68 -0.91 9.81 0.09 0.06 -0.09 16303
0.27 -0.01 0.72 -1.01 9.81 0.11 0.07 -0.10 16310
0.31 -0.02 0.65 -0.95 9.82 0.13 0.07 -0.11 16317
0.33 -0.01 0.67 -0.99 9.84 0.15 0.08 -0.12 16324
0.39 -0.02 0.73 -1.03 9.82 0.18 0.08 -0.14 16331
0.41 -0.03 0.66 -1.01 9.86 0.22 0.10 -0.14 16338
0.42 -0.02 0.70 -1.05 9.94 0.26 0.11 -0.15 16346
0.43 -0.01 0.65 -1.06 9.85 0.31 0.12 -0.15 16353
0.47 -0.02 0.45 -1.25 10.01 0.37 0.15 -0.16 16361
0.54 -0.03 0.80 -1.23 10.03 0.45 0.16 -0.16 16368
0.56 -0.04 0.73 -1.25 10.18 0.52 0.17 -0.16 16375
0.58 -0.03 0.63 -1.26 10.19 0.64 0.16 -0.17 16382
0.64 -0.03 0.61 -1.28 10.27 0.71 0.14 -0.16 16390
0.65 -0.01 0.58 -1.31 9.96 0.77 0.12 -0.16 16396
0.75 -0.03 0.52 -1.44 10.40 0.81 0.11 -0.15 16404
0.77 -0.03 0.58 -1.48 10.54 0.87 0.10 -0.15 16411
0.79 -0.04 0.64 -1.59 10.49 0.93 0.08 -0.15 16417
0.81 -0.03 0.71 -1.67 10.46 0.98 0.07 -0.15 16425
0.85 -0.03 0.63 -1.70 10.70 1.03 0.06 -0.15 16432
0.87 -0.03 0.57 -1.80 10.72 1.10 0.06 -0.13 16439
0.95 -0.04 0.74 -1.94 10.78 1.18 0.06 -0.14 16447
0.94 -0.04 0.66 -1.89 10.51 1.27 0.06 -0.14 16454
0.94 -0.05 0.64 -2.07 10.63 1.34 0.06 -0.14 16461
0.91 -0.03 0.61 -2.05 10.98 1.43 0.08 -0.13 16468
0.92 -0.04 0.62 -2.23 10.84 1.54 0.08 -0.14 16476
0.91 -0.03 0.41 -2.31 11.48 1.63 0.06 -0.14 16483
0.91 -0.03 0.68 -2.52 11.59 1.77 0.11 -0.13 16490
0.90 -0.04 0.80 -2.64 11.36 1.91 0.11 -0.12 16497
0.85 -0.05 0.74 -2.73 11.56 2.09 0.15 -0.17 16504
0.78 -0.03 0.97 -2.89 10.99 2.25 0.21 -0.16 16512
0.75 -0.03 0.27 -2.86 9.76 2.37 0.24 -0.17 16518
0.68 -0.03 0.34 -3.01 11.61 2.52 0.36 -0.13 16526
0.58 -0.03 0.18 -3.38 12.36 2.71 0.54 -0.10 16533
0.43 -0.03 0.24 -3.90 11.76 2.90 0.70 -0.06 16539
0.28 -0.02 0.79 -3.95 12.42 3.13 0.83 -0.05 16547
0.22 -0.02 1.21 -4.11 12.37 3.33 0.95 -0.04 16555
0.15 -0.01 1.11 -4.49 12.40 3.51 0.97 -0.05 16562
0.11 -0.01 0.71 -5.05 14.15 3.64 0.95 -0.02 16568
0.10 -0.01 0.58 -6.03 14.83 3.73 0.94 0.04 16575
0.05 -0.01 0.75 -6.65 15.40 3.81 0.91 0.10 16582
0.04 -0.00 1.69 -7.21 16.51 3.89 0.89 0.14 16589
0.04 -0.00 2.59 -7.59 15.48 3.95 0.96 0.14 16596
0.04 -0.00 2.30 -7.56 15.88 3.93 1.04 0.12 16604
0.03 -0.00 2.70 -7.46 15.19 3.89 1.08 0.11 16611
0.03 -0.00 3.42 -7.36 16.09 3.82 1.22 0.09 16618
0.02 -0.00 4.38 -7.27 15.71 3.75 1.50 0.05 16625
0.00 0.00 4.99 -7.41 14.93 3.64 1.83 -0.02 16632
0.00 -0.00 4.21 -6.35 14.56 3.56 2.22 -0.13 16640
0.00 -0.00 2.93 -5.68 14.59 3.56 2.45 -0.27 16647
0.01 -0.00 1.51 -4.85 14.72 3.57 2.40 -0.41 16654
0.00 0.00 0.28 -2.26 14.31 3.49 2.27 -0.54 16661
0.00 0.00 -0.36 -1.17 13.55 3.37 2.12 -0.61 16668
0.00 0.00 -1.11 1.43 10.74 3.11 1.91 -0.66 16675
0.00 0.00 0.53 2.26 7.54 2.82 1.65 -0.71 16683
0.00 0.00 0.50 3.61 4.33 2.25 1.19 -0.84 16690
0.00 0.00 -1.92 11.92 1.64 1.63 0.43 -1.17 16697
0.00 0.00 -6.91 16.97 6.37 1.01 -0.16 -1.96 16704
0.00 0.00 -0.80 7.33 17.11 -0.26 -0.75 -2.40 16711
0.00 0.00 -0.55 5.06 16.51 -1.29 -0.92 -2.59 16718
0.00 0.00 0.08 5.91 12.94 -1.82 -0.54 -2.75 16726
0.00 0.00 1.08 6.68 9.80 -2.02 -0.09 -3.02 16733
0.00 0.00 1.09 7.07 6.99 -2.21 0.07 -3.28 16740
0.00 0.00 0.83 6.32 6.55 -2.36 0.18 -3.43 16747
0.00 0.00 0.52 5.13 7.06 -2.44 0.18 -3.56 16754
0.00 0.00 0.24 4.58 7.73 -2.55 0.08 -3.61 16761
0.00 0.00 0.01 4.15 8.20 -2.67 -0.14 -3.56 16769
0.01 -0.00 0.26 3.56 10.15 -2.81 -0.38 -3.42 16776
0.00 -0.00 0.86 3.36 8.91 -3.00 -0.64 -3.27 16783
0.00 0.00 1.92 3.55 9.79 -3.20 -0.93 -3.04 16790
0.00 0.00 2.64 3.44 10.19 -3.45 -1.12 -2.76 16797
0.00 0.00 3.39 2.79 10.37 -3.72 -1.20 -2.44 16804
0.00 0.00 4.83 1.66 10.37 -3.96 -1.13 -2.07 16812
0.00 0.00 5.22 0.76 10.46 -4.16 -0.97 -1.75 16819
0.00 0.00 5.76 -0.08 10.41 -4.27 -0.80 -1.44 16826
0.00 0.00 5.73 -0.79 9.79 -4.27 -0.64 -1.17 16833
0.00 0.00 5.57 -1.69 9.47 -4.27 -0.44 -0.95 16840
0.00 0.00 5.86 -2.59 9.81 -4.26 -0.25 -0.73 16847
0.00 0.00 6.20 -3.29 10.99 -4.19 -0.13 -0.57 16855
0.00 -0.00 6.35 -4.12 11.54 -4.02 0.03 -0.41 16862
0.00 0.00 6.67 -4.64 12.09 -3.83 0.20 -0.26 16869
0.00 0.00 6.99 -4.50 12.26 -3.66 0.45 -0.15 16876
0.00 0.00 7.13 -4.39 12.35 -3.57 0.73 -0.02 16883
0.00 0.00 6.96 -4.55 13.07 -3.52 0.99 0.10 16890
0.00 0.00 6.67 -5.05 13.94 -3.46 1.28 0.26 16898
0.00 0.00 5.59 -5.49 14.65 -3.42 1.49 0.45 16905
0.00 0.00 5.62 -5.82 15.01 -3.36 1.68 0.63 16912
0.00 0.00 5.00 -6.18 15.04 -3.30 1.81 0.87 16919
0.00 0.00 4.59 -6.36 14.97 -3.21 1.87 1.13 16926
0.00 0.00 4.36 -6.63 14.86 -3.09 1.91 1.34 16933
0.00 -0.00 4.11 -7.02 14.42 -2.97 1.91 1.54 16941
0.00 0.00 3.94 -7.33 14.22 -2.81 1.91 1.68 16948
0.00 0.00 3.72 -7.63 14.12 -2.60 1.91 1.81 16955
0.00 0.00 3.40 -7.69 13.94 -2.41 1.92 1.89 16962
0.00 0.00 3.06 -7.65 13.74 -2.17 1.90 1.96 16969
0.00 0.00 2.79 -7.61 13.54 -1.97 1.87 2.00 16976
0.00 -0.00 2.59 -7.68 13.48 -1.72 1.80 2.02 16984
0.00 0.00 2.16 -7.93 13.31 -1.48 1.70 2.01 16991
0.00 0.00 1.63 -8.27 13.21 -1.26 1.57 1.97 16998
0.00 0.00 1.18 -8.60 13.22 -1.00 1.38 1.92 17005
0.00 0.00 0.73 -8.88 13.00 -0.79 1.16 1.86 17012
0.00 0.00 -0.33 -10.94 14.19 -0.54 0.93 1.80 17019
0.00 0.00 -4.55 -14.18 18.17 0.01 0.21 1.75 17027
0.00 0.00 1.66 -6.49 9.52 0.01 -0.04 1.68 17034
0.00 0.00 1.45 -7.85 11.15 -0.26 0.15 1.61 17041
0.00 0.00 1.16 -10.61 14.44 -0.54 0.49 1.55 17048
0.00 0.00 0.40 -11.43 15.97 -0.82 0.82 1.56 17055
0.00 0.00 -0.27 -11.41 15.48 -1.09 1.34 1.55 17062
0.00 0.00 -1.65 -11.88 14.22 -1.35 1.78 1.54 17070
0.00 0.00 -2.48 -12.30 12.84 -1.65 1.93 1.54 17077
0.00 0.00 -5.73 -15.26 13.38 -1.80 1.69 1.55 17084
0.00 0.00 -5.51 -14.80 8.54 -1.79 1.39 1.52 17091
0.00 0.00 -7.51 -17.76 8.29 -1.66 0.91 1.47 17098
0.00 0.00 -5.12 -17.39 3.72 -1.40 0.56 1.38 17105
0.00 0.00 -5.72 -17.52 3.71 -1.05 0.32 1.26 17113
0.00 0.00 -5.24 -21.07 4.31 -0.70 0.17 1.07 17120
0.00 0.00 -5.43 -20.35 4.20 -0.25 -0.01 0.79 17127
0.00 0.00 -4.60 -21.40 2.64 0.28 -0.16 0.51 17134
-0.00 0.00 -6.42 -22.37 2.17 0.71 -0.50 0.32 17141
-0.00 0.00 -7.21 -23.47 1.81 1.17 -0.93 0.26 17148
-0.00 0.02 -8.84 -25.84 1.11 1.65 -1.60 0.36 17156
-0.00 0.02 -4.28 -5.95 6.74 2.28 -1.71 0.68 17163
-0.01 0.11 -2.90 -0.76 6.05 2.96 -1.18 0.72 17170
-0.03 0.26 -4.45 -0.86 17.54 3.73 -1.18 0.56 17177
-0.03 0.39 -5.75 -1.08 19.91 3.82 -1.37 0.07 17185
-0.01 0.42 -0.70 -3.91 33.26 3.68 -2.36 -0.40 17192
-0.03 0.42 0.65 -2.19 21.01 1.40 -2.83 -0.38 17200
-0.03 0.42 0.52 -5.14 12.84 0.18 -0.91 -0.07 17207
-0.03 0.48 0.70 -3.11 10.25 -0.08 -0.16 -0.03 17214
-0.02 0.49 -0.41 -2.01 11.21 -0.03 -0.21 -0.01 17221
-0.02 0.54 0.29 -0.86 9.99 -0.03 -0.08 -0.01 17227
0.06 0.54 -0.08 -0.87 10.04 -0.01 0.01 -0.02 17234
0.05 0.53 0.21 -1.03 9.83 -0.01 0.07 -0.01 17242
0.04 0.50 0.40 -0.93 9.79 0.00 0.10 0.00 17249
0.03 0.49 0.54 -0.88 9.85 0.01 0.10 -0.00 17256
0.05 0.46 0.67 -0.88 9.72 0.01 0.08 -0.01 17263
0.05 0.42 0.64 -0.83 9.61 0.01 0.05 -0.02 17270
0.03 0.39 0.59 -0.78 9.67 0.00 0.03 -0.04 17277
0.01 0.38 0.54 -0.88 9.71 -0.00 -0.00 -0.05 17285
0.02 0.37 0.44 -0.86 9.70 -0.01 -0.02 -0.06 17292
0.03 0.39 0.42 -0.85 9.76 -0.01 -0.02 -0.07 17299
0.04 0.39 0.38 -0.86 9.76 -0.02 -0.01 -0.07 17306
0.03 0.40 0.31 -0.85 9.81 -0.02 0.01 -0.07 17313
0.03 0.39 0.37 -0.81 9.81 -0.02 0.03 -0.06 17320
0.04 0.40 0.42 -0.83 9.82 -0.01 0.05 -0.06 17328
0.04 0.38 0.40 -0.87 9.75 0.00 0.05 -0.06 17335
0.04 0.37 0.42 -0.88 9.83 0.02 0.05 -0.06 17342
0.07 0.35 0.48 -0.88 9.83 0.03 0.06 -0.05 17349
0.09 0.29 0.46 -0.91 9.84 0.03 0.06 -0.06 17356
0.06 0.30 0.45 -0.93 9.75 0.00 0.06 -0.06 17363
0.09 0.23 0.51 -0.93 9.75 0.04 0.06 -0.07 17371
0.10 0.18 0.46 -0.89 9.79 0.03 0.06 -0.07 17378
0.09 0.18 0.42 -0.89 9.80 0.03 0.06 -0.08 17385
0.10 0.19 0.44 -0.91 10.42 0.03 0.07 -0.07 17392
0.14 0.12 0.44 -0.89 9.79 0.04 0.07 -0.07 17399
0.13 0.07 0.45 -0.89 9.78 0.04 0.07 -0.07 17406
0.12 0.06 0.48 -0.89 9.79 0.04 0.07 -0.07 17414
0.13 0.03 0.47 -0.91 9.77 0.04 0.07 -0.07 17421
0.17 0.02 0.50 -0.85 9.80 0.04 0.07 -0.07 17428
0.19 0.03 0.49 -0.91 9.81 0.05 0.07 -0.07 17435
0.21 0.01 0.49 -0.94 9.81 0.05 0.07 -0.08 17442
0.21 -0.01 0.46 -0.95 9.79 0.04 0.07 -0.07 17449
0.22 -0.02 0.48 -0.96 9.80 0.04 0.07 -0.08 17457
0.22 -0.00 0.50 -0.94 9.81 0.04 0.07 -0.08 17464
0.24 -0.00 0.46 -0.97 9.80 0.04 0.07 -0.08 17471
0.20 0.02 0.49 -0.96 9.74 0.04 0.07 -0.08 17478
0.22 0.00 0.52 -0.96 9.77 0.04 0.07 -0.08 17485
0.22 -0.02 0.49 -0.99 9.77 0.04 0.06 -0.08 17492
0.24 -0.02 0.49 -0.98 9.75 0.03 0.06 -0.08 17500
0.24 -0.01 0.57 -1.00 9.79 0.03 0.05 -0.08 17507
0.23 -0.00 0.55 -1.00 9.79 0.03 0.04 -0.08 17514
0.22 -0.01 0.50 -0.99 9.79 0.02 0.02 -0.08 17521
0.23 -0.01 0.56 -0.99 9.76 0.02 0.01 -0.08 17528
0.25 -0.01 0.53 -0.99 9.79 0.02 0.00 -0.09 17536
