Voltage_01 Voltage_02 Acc_x Acc_y Acc_z Gyro_x Gyro_y Gyro_z Time
5000
-0.00 0.00 -0.02 0.79 7.41 1.29 -0.59 -1.68 23
0.00 0.00 -0.48 0.01 8.42 0.96 -0.85 -1.81 30
0.00 0.00 -0.94 -0.06 8.93 0.80 -0.90 -1.89 36
0.00 0.00 -0.74 -0.12 8.25 0.68 -0.85 -1.97 43
0.00 0.00 -0.38 0.23 7.05 0.51 -0.85 -2.06 49
0.00 0.00 -0.13 0.53 6.62 0.35 -0.91 -2.14 55
0.00 0.00 -0.03 0.40 6.39 0.22 -0.97 -2.18 61
0.00 0.00 0.11 -0.03 6.39 0.05 -0.99 -2.20 67
0.00 0.00 0.34 -0.58 6.49 -0.12 -0.98 -2.18 73
0.00 0.00 0.65 -1.07 6.83 -0.26 -0.93 -2.13 79
0.00 0.00 0.86 -1.34 7.10 -0.43 -0.87 -2.05 86
0.00 0.00 0.83 -1.59 7.41 -0.59 -0.80 -1.94 92
0.00 0.00 0.76 -1.77 7.68 -0.74 -0.73 -1.80 98
-0.00 0.00 0.80 -2.43 7.95 -0.94 -0.70 -1.64 104
0.00 0.00 0.85 -1.88 7.99 -1.21 -0.67 -1.51 111
0.00 0.00 0.90 -2.17 7.67 -1.45 -0.65 -1.34 118
0.00 0.00 1.02 -2.47 7.44 -1.68 -0.62 -1.22 124
0.00 0.00 1.16 -3.08 7.11 -1.89 -0.57 -1.05 132
0.00 0.00 1.14 -3.63 6.84 -1.98 -0.51 -0.90 138
0.00 0.00 1.17 -4.19 6.82 -2.04 -0.40 -0.74 145
0.00 -0.00 1.26 -4.55 6.69 -2.02 -0.31 -0.58 151
0.00 0.00 1.23 -4.82 6.52 -1.96 -0.21 -0.39 158
0.00 0.00 1.31 -4.90 6.47 -1.84 -0.11 -0.25 165
0.00 0.00 1.27 -4.90 6.39 -1.73 -0.01 -0.09 173
0.00 0.00 1.16 -4.73 6.58 -1.63 0.02 0.01 179
0.00 -0.00 1.02 -4.51 6.94 -1.56 0.09 0.12 185
0.00 0.00 1.01 -4.22 7.45 -1.53 0.18 0.23 192
0.00 0.00 0.95 -4.01 7.72 -1.53 0.27 0.29 198
0.00 0.00 0.78 -3.80 8.04 -1.55 0.35 0.35 204
0.00 0.00 0.64 -3.65 8.33 -1.60 0.42 0.38 210
0.00 0.00 0.58 -3.56 8.52 -1.65 0.50 0.41 217
0.00 0.00 0.46 -3.53 8.59 -1.71 0.57 0.42 223
0.00 0.00 0.38 -3.54 8.72 -1.74 0.61 0.43 229
0.00 0.00 0.26 -3.65 8.74 -1.77 0.65 0.44 235
0.01 -0.00 0.17 -3.81 8.82 -1.78 0.69 0.43 241
0.00 0.00 0.09 -3.92 8.97 -1.77 0.71 0.41 248
0.00 0.00 0.08 -3.89 9.26 -1.75 0.73 0.40 254
0.00 0.00 0.20 -3.83 9.60 -1.74 0.77 0.38 261
0.00 0.00 0.16 -3.71 9.77 -1.74 0.79 0.35 267
0.00 0.00 0.17 -3.52 10.11 -1.77 0.81 0.33 273
0.00 0.00 0.07 -3.14 10.23 -1.82 0.80 0.31 280
0.00 0.00 -0.10 -2.97 10.34 -1.90 0.76 0.29 287
0.00 0.00 -0.14 -2.82 10.28 -1.99 0.69 0.27 294
0.00 0.00 0.07 -2.63 9.94 -2.05 0.62 0.25 302
0.00 0.00 0.11 -2.65 9.73 -2.10 0.54 0.24 308
0.01 0.00 0.20 -2.67 9.68 -2.12 0.46 0.22 314
0.00 0.00 0.26 -2.61 9.71 -2.12 0.40 0.19 321
0.02 -0.00 0.37 -2.64 9.80 -2.10 0.38 0.17 327
0.00 0.00 0.38 -2.61 9.81 -2.08 0.41 0.14 334
0.00 0.00 0.42 -2.58 9.83 -2.06 0.44 0.13 340
0.00 0.00 0.33 -2.58 10.07 -2.05 0.48 0.11 347
0.00 0.00 0.15 -2.68 10.20 -2.03 0.49 0.10 354
0.00 -0.00 0.03 -2.91 10.18 -1.99 0.49 0.08 361
0.00 0.00 0.01 -3.18 10.25 -1.94 0.48 0.07 368
0.00 0.00 -0.02 -3.48 10.43 -1.88 0.47 0.05 375
0.00 0.00 -0.06 -3.77 11.54 -1.81 0.42 0.02 382
0.00 0.00 -0.07 -4.06 11.85 -1.78 0.36 -0.03 390
0.00 0.00 0.01 -4.18 12.12 -1.81 0.31 -0.07 397
0.00 0.00 0.26 -4.11 12.32 -1.91 0.22 -0.10 404
0.00 0.00 0.66 -4.09 12.38 -2.02 0.10 -0.13 411
0.00 0.00 1.12 -4.26 12.31 -2.12 0.00 -0.13 418
0.00 0.00 1.60 -4.63 12.15 -2.16 -0.09 -0.12 425
0.00 0.00 1.94 -5.29 11.78 -2.15 -0.11 -0.08 433
0.00 0.00 2.27 -5.85 11.44 -2.09 -0.05 -0.03 440
0.00 -0.00 2.45 -6.69 11.11 -1.98 0.08 0.03 447
0.00 0.00 2.30 -7.37 10.74 -1.88 0.21 0.09 454
0.00 0.00 1.91 -8.12 10.38 -1.72 0.35 0.17 461
0.00 0.00 1.41 -8.68 9.82 -1.55 0.50 0.26 468
0.00 0.00 0.80 -8.84 9.53 -1.36 0.58 0.36 475
0.00 0.00 0.02 -9.21 9.30 -1.17 0.68 0.52 481
0.02 -0.00 -0.79 -9.47 9.37 -1.02 0.74 0.70 487
0.00 0.00 -1.71 -9.77 9.73 -0.84 0.75 0.89 494
0.00 0.00 -1.56 -16.41 9.70 -0.72 0.69 1.07 500
0.00 0.00 -5.52 -7.93 14.27 0.65 0.48 1.26 507
0.00 0.00 -3.33 -7.24 3.63 -0.05 0.09 1.29 515
0.00 0.00 -3.84 -20.05 12.72 -0.08 -0.29 1.24 521
0.01 -0.00 -1.31 -19.46 7.93 0.27 -0.39 1.20 528
0.00 0.00 -1.71 -22.56 5.70 0.31 -0.25 1.11 536
0.00 0.00 -2.93 -26.79 5.05 0.54 -0.30 0.95 542
-0.00 0.02 -6.07 -29.64 3.80 0.93 -0.61 0.71 549
-0.00 0.02 -3.11 -1.51 6.94 1.60 -0.75 0.44 557
-0.00 0.02 -2.56 -3.78 21.99 1.93 -1.05 0.11 564
0.01 0.04 -0.55 -0.85 21.21 0.18 -0.63 -0.02 571
-0.01 0.09 0.32 0.23 7.66 -0.24 0.03 0.03 578
-0.01 0.13 0.42 0.14 10.24 -0.28 -0.01 -0.08 585
-0.01 0.15 -0.12 -0.57 9.91 -0.14 -0.05 -0.09 592
-0.02 0.18 0.58 -0.50 9.49 -0.05 -0.03 -0.12 600
-0.02 0.21 0.35 -0.73 10.23 -0.00 -0.02 -0.09 607
-0.01 0.18 0.30 -0.93 9.79 -0.03 0.01 -0.07 614
-0.01 0.17 0.19 -0.96 9.90 -0.03 0.02 -0.06 621
0.03 0.15 0.07 -0.96 9.75 -0.01 0.06 -0.04 628
-0.02 0.17 0.61 -0.92 9.70 -0.01 0.08 -0.05 635
-0.02 0.16 0.10 -0.88 9.87 -0.03 0.10 -0.05 643
0.02 0.17 0.24 -0.99 9.76 -0.05 0.12 -0.05 650
0.04 0.21 0.28 -0.97 9.78 -0.05 0.11 -0.03 657
0.03 0.22 0.27 -0.96 9.82 -0.06 0.10 -0.03 664
0.01 0.25 0.36 -0.94 9.76 -0.07 0.09 -0.04 671
0.01 0.24 0.32 -0.94 9.68 -0.08 0.09 -0.03 678
0.00 0.26 0.27 -0.87 9.80 -0.09 0.10 -0.03 686
0.03 0.23 0.31 -0.93 9.95 -0.09 0.11 -0.03 693
0.01 0.30 0.29 -0.87 9.82 -0.09 0.14 -0.03 700
0.01 0.32 0.29 -0.84 9.87 -0.08 0.15 -0.03 707
-0.00 0.35 0.34 -0.89 9.94 -0.09 0.16 -0.03 714
-0.03 0.40 0.33 -0.87 9.82 -0.08 0.18 -0.03 721
-0.04 0.49 0.30 -0.76 9.84 -0.07 0.18 -0.03 729
-0.02 0.46 0.47 -0.77 9.82 -0.07 0.18 -0.03 736
-0.04 0.53 0.52 -0.73 9.78 -0.06 0.17 -0.03 743
-0.04 0.53 0.47 -0.74 9.83 -0.05 0.16 -0.04 750
-0.02 0.49 0.49 -0.83 9.83 -0.05 0.14 -0.04 757
-0.01 0.51 0.44 -0.83 9.78 -0.05 0.14 -0.04 764
-0.01 0.54 0.42 -0.74 9.85 -0.05 0.13 -0.04 772
0.01 0.57 0.50 -0.77 9.80 -0.04 0.13 -0.04 779
-0.00 0.63 0.42 -0.75 9.80 -0.04 0.12 -0.04 786
-0.01 0.62 0.43 -0.81 9.80 -0.04 0.13 -0.04 793
-0.02 0.69 0.12 -0.67 9.83 -0.03 0.13 -0.04 800
-0.01 0.67 0.44 -0.73 9.82 -0.03 0.13 -0.04 807
-0.02 0.68 0.42 -0.66 9.88 -0.02 0.13 -0.05 815
-0.00 0.66 0.51 -0.79 9.81 -0.02 0.13 -0.04 822
-0.01 0.67 0.54 -0.74 9.81 -0.02 0.12 -0.05 829
-0.04 0.62 0.47 -0.70 9.84 -0.02 0.11 -0.05 836
-0.05 0.62 0.52 -0.73 9.82 -0.01 0.11 -0.05 843
-0.04 0.64 0.51 -0.72 9.79 -0.00 0.10 -0.05 850
-0.04 0.63 0.49 -0.73 9.82 -0.01 0.09 -0.06 858
-0.04 0.60 0.51 -0.73 9.78 -0.01 0.09 -0.05 865
-0.04 0.59 0.51 -0.73 9.79 -0.01 0.09 -0.05 872
-0.04 0.59 0.52 -0.72 9.81 -0.01 0.09 -0.05 879
-0.05 0.58 0.51 -0.72 9.81 -0.00 0.08 -0.05 886
-0.04 0.58 0.46 -0.70 9.80 -0.00 0.08 -0.06 893
-0.04 0.57 0.43 -0.72 9.21 -0.00 0.09 -0.06 901
-0.04 0.56 0.49 -0.74 9.80 -0.01 0.09 -0.05 908
-0.03 0.54 0.50 -0.69 9.81 -0.01 0.09 -0.06 915
-0.02 0.53 0.48 -0.75 9.74 -0.00 0.09 -0.06 922
-0.04 0.54 0.56 -0.70 9.74 -0.00 0.08 -0.06 929
-0.04 0.56 0.53 -0.71 9.80 0.00 0.08 -0.06 936
-0.03 0.54 0.52 -0.71 9.81 0.00 0.07 -0.06 944
-0.02 0.54 0.47 -0.67 9.82 0.00 0.07 -0.06 951
-0.03 0.53 0.57 -0.71 9.79 0.00 0.07 -0.06 958
-0.03 0.52 0.56 -0.71 9.80 0.00 0.06 -0.06 965
-0.02 0.51 0.57 -0.71 9.80 0.00 0.05 -0.06 972
-0.01 0.50 0.58 -0.74 9.80 0.00 0.05 -0.06 979
0.01 0.49 0.56 -0.76 9.81 -0.00 0.04 -0.06 987
-0.00 0.49 0.54 -0.74 9.80 0.00 0.04 -0.06 994
-0.00 0.46 0.51 -0.77 9.80 0.00 0.04 -0.06 1001
-0.01 0.46 0.55 -0.73 9.80 -0.00 0.04 -0.06 1008
0.03 0.46 0.54 -0.76 9.81 -0.00 0.04 -0.06 1015
0.03 0.46 0.53 -0.76 9.80 -0.00 0.04 -0.05 1022
0.04 0.47 0.60 -0.77 10.41 -0.00 0.03 -0.06 1030
0.03 0.45 0.57 -0.74 9.81 -0.00 0.03 -0.05 1037
0.03 0.43 0.54 -0.72 9.83 0.00 0.03 -0.05 1044
0.03 0.43 0.58 -0.73 9.76 0.00 0.02 -0.05 1051
0.04 0.42 0.57 -0.73 9.79 0.00 0.01 -0.05 1058
0.03 0.43 0.56 -0.73 9.75 0.01 -0.00 -0.05 1065
0.04 0.41 0.53 -0.73 9.78 0.01 -0.01 -0.05 1073
0.04 0.42 0.53 -0.74 9.73 0.01 -0.03 -0.06 1080
0.03 0.38 0.55 -0.74 9.77 0.01 -0.04 -0.06 1087
0.00 0.39 0.52 -0.75 9.79 0.01 -0.05 -0.06 1094
0.01 0.36 0.53 -0.75 9.82 0.01 -0.05 -0.06 1101
0.05 0.36 0.50 -0.75 9.82 0.01 -0.03 -0.06 1108
0.07 0.39 0.46 -0.74 9.87 0.01 -0.01 -0.06 1116
0.08 0.35 0.45 -0.74 9.81 0.01 -0.01 -0.06 1123
0.08 0.32 0.48 -0.77 9.82 0.01 0.00 -0.06 1130
0.07 0.33 0.49 -0.77 9.80 0.01 0.00 -0.06 1137
0.07 0.35 0.48 -0.76 9.80 0.01 -0.00 -0.06 1144
0.09 0.35 0.49 -0.77 9.80 0.01 -0.01 -0.06 1152
0.07 0.34 0.50 -0.76 9.20 0.01 -0.01 -0.07 1159
0.06 0.33 0.53 -0.79 9.76 0.01 -0.02 -0.06 1166
0.05 0.30 0.46 -0.74 9.80 0.01 -0.03 -0.07 1173
0.05 0.29 0.45 -0.78 9.79 0.01 -0.04 -0.07 1180
0.06 0.26 0.47 -0.77 9.80 0.01 -0.05 -0.08 1187
0.09 0.25 0.48 -0.79 9.78 0.01 -0.05 -0.08 1195
0.06 0.24 0.45 -0.81 9.79 0.01 -0.05 -0.08 1202
0.05 0.26 0.45 -0.82 9.79 0.01 -0.04 -0.07 1209
0.05 0.27 0.39 -0.79 9.81 0.01 -0.02 -0.07 1216
0.07 0.25 0.36 -0.82 9.83 0.01 -0.00 -0.07 1223
0.09 0.28 0.37 -0.78 9.82 0.01 0.02 -0.06 1230
0.10 0.26 0.40 -0.80 9.82 0.01 0.03 -0.06 1238
0.11 0.22 0.42 -0.80 9.81 0.02 0.03 -0.07 1245
0.09 0.22 0.41 -0.82 9.80 0.01 0.04 -0.07 1252
0.09 0.22 0.41 -0.82 9.80 0.01 0.05 -0.07 1259
0.10 0.22 0.44 -0.80 9.76 0.01 0.05 -0.06 1266
0.11 0.22 0.41 -0.81 9.81 0.01 0.05 -0.07 1273
0.10 0.21 0.47 -0.83 9.81 0.01 0.05 -0.07 1281
0.11 0.22 0.43 -0.81 9.20 0.01 0.05 -0.07 1288
0.11 0.16 0.44 -0.81 9.79 0.01 0.05 -0.07 1295
0.09 0.17 0.41 -0.80 9.73 0.01 0.05 -0.06 1302
0.10 0.18 0.46 -0.79 9.79 0.01 0.05 -0.07 1309
0.12 0.11 0.46 -0.81 9.81 0.02 0.06 -0.07 1316
0.12 0.09 0.41 -0.84 9.78 0.01 0.06 -0.07 1324
0.12 0.10 0.38 -0.81 9.80 0.01 0.06 -0.07 1331
0.12 0.08 0.43 -0.84 9.81 0.01 0.06 -0.07 1338
0.11 0.09 0.44 -0.84 9.82 0.01 0.06 -0.07 1345
0.12 0.08 0.43 -0.83 9.81 0.02 0.06 -0.07 1352
0.14 0.05 0.46 -0.84 9.79 0.02 0.06 -0.07 1359
0.13 0.05 0.48 -0.82 9.79 0.02 0.06 -0.07 1367
0.13 0.02 0.45 -0.84 9.82 0.02 0.06 -0.07 1374
0.14 0.05 0.43 -0.84 9.20 0.02 0.06 -0.07 1381
0.14 0.04 0.43 -0.84 9.80 0.02 0.05 -0.07 1388
0.14 0.06 0.45 -0.86 9.82 0.02 0.06 -0.07 1395
0.15 0.03 0.47 -0.84 9.82 0.02 0.05 -0.07 1402
0.14 0.03 0.45 -0.87 9.82 0.02 0.05 -0.07 1410
0.15 -0.00 0.47 -0.85 9.81 0.02 0.05 -0.07 1417
0.15 0.01 0.46 -0.87 9.79 0.02 0.05 -0.07 1424
0.15 0.00 0.43 -0.86 9.82 0.02 0.06 -0.07 1431
0.15 0.01 0.43 -0.85 9.82 0.02 0.06 -0.07 1438
0.16 -0.00 0.46 -0.86 9.79 0.03 0.06 -0.07 1445
0.16 -0.01 0.46 -0.87 9.79 0.03 0.06 -0.07 1453
0.16 -0.02 0.42 -0.85 9.82 0.03 0.07 -0.07 1460
0.17 -0.01 0.46 -0.86 9.82 0.03 0.08 -0.07 1467
0.20 -0.01 0.47 -0.87 9.81 0.04 0.08 -0.07 1474
0.21 -0.01 0.48 -0.88 9.82 0.04 0.08 -0.07 1481
0.21 -0.01 0.46 -0.90 9.81 0.04 0.08 -0.07 1488
0.19 -0.01 0.48 -0.90 9.81 0.05 0.09 -0.07 1496
0.19 -0.02 0.41 -0.88 9.82 0.06 0.09 -0.07 1503
0.22 -0.01 0.48 -0.86 9.82 0.07 0.10 -0.07 1510
0.22 -0.01 0.51 -0.97 9.84 0.08 0.11 -0.07 1517
0.22 -0.00 0.53 -0.90 9.85 0.10 0.12 -0.07 1524
0.22 -0.01 0.50 -0.93 9.81 0.11 0.14 -0.07 1531
0.22 -0.02 0.55 -0.97 9.88 0.14 0.15 -0.07 1539
0.21 -0.02 0.52 -0.93 9.92 0.17 0.18 -0.07 1546
0.22 -0.02 0.57 -0.96 9.94 0.20 0.21 -0.07 1553
0.22 -0.00 0.56 -1.00 9.96 0.26 0.24 -0.08 1560
0.21 -0.02 0.63 -1.00 10.02 0.33 0.27 -0.09 1567
0.20 -0.02 0.70 -1.05 10.24 0.40 0.28 -0.10 1574
0.22 -0.02 0.80 -1.06 10.31 0.53 0.29 -0.12 1582
0.20 -0.02 0.70 -1.08 10.84 0.69 0.30 -0.14 1589
0.21 -0.02 0.78 -1.15 11.13 0.86 0.29 -0.16 1597
0.22 -0.01 0.91 -1.23 10.89 1.04 0.27 -0.18 1604
0.23 -0.02 0.77 -1.47 11.41 1.19 0.22 -0.20 1611
0.20 -0.02 0.72 -1.45 11.92 1.26 0.17 -0.21 1618
0.20 -0.02 0.59 -1.39 11.71 1.40 0.12 -0.23 1625
0.19 -0.01 0.66 -1.53 11.74 1.47 0.05 -0.23 1633
0.19 -0.01 0.79 -1.75 11.56 1.59 0.00 -0.22 1640
0.16 -0.01 0.75 -1.72 11.89 1.74 -0.04 -0.22 1647
0.15 -0.01 1.11 -2.00 10.82 1.85 -0.04 -0.22 1653
0.13 -0.01 1.05 -2.29 12.51 1.98 -0.03 -0.21 1660
0.10 -0.01 0.97 -2.31 11.05 2.11 -0.07 -0.23 1668
0.06 -0.01 1.15 -2.44 12.02 2.21 -0.08 -0.22 1675
0.06 -0.01 0.96 -2.57 11.92 2.28 -0.09 -0.23 1682
0.08 -0.01 1.12 -2.86 11.83 2.36 -0.09 -0.23 1689
0.05 -0.00 1.34 -3.17 12.21 2.41 -0.07 -0.24 1696
0.03 -0.00 1.45 -3.61 12.48 2.46 -0.04 -0.26 1703
0.06 -0.01 1.57 -3.91 12.99 2.50 -0.00 -0.27 1711
0.05 -0.00 1.99 -4.22 13.56 2.52 0.12 -0.30 1718
0.04 -0.00 1.92 -4.20 13.74 2.52 0.22 -0.34 1725
0.02 -0.00 1.99 -4.37 13.86 2.51 0.29 -0.38 1732
0.01 -0.00 1.49 -4.26 13.28 2.48 0.31 -0.43 1739
0.02 -0.00 0.97 -4.28 13.29 2.45 0.26 -0.45 1746
0.01 -0.00 0.91 -4.26 13.06 2.41 0.19 -0.47 1754
0.00 -0.00 0.57 -4.17 12.41 2.36 0.08 -0.48 1761
-0.00 0.00 0.50 -4.17 11.95 2.30 -0.05 -0.49 1768
0.01 -0.00 0.63 -3.96 11.06 2.26 -0.17 -0.50 1775
0.01 -0.00 0.71 -3.78 10.14 2.26 -0.25 -0.50 1782
0.01 -0.00 0.92 -3.32 9.27 2.23 -0.28 -0.51 1789
0.00 0.00 1.00 -3.01 8.38 2.19 -0.29 -0.51 1797
0.00 0.00 1.01 -2.94 7.92 2.12 -0.31 -0.53 1804
0.00 0.00 0.90 -2.15 7.55 2.07 -0.34 -0.53 1811
0.00 -0.00 1.04 -2.00 7.15 2.01 -0.37 -0.57 1818
0.00 0.00 0.89 -2.11 7.08 1.95 -0.47 -0.59 1825
0.00 0.00 0.33 -1.24 6.93 1.93 -0.59 -0.61 1832
0.00 0.00 0.74 -0.94 7.34 1.89 -0.67 -0.63 1840
0.00 0.00 0.66 0.31 7.19 1.82 -0.78 -0.65 1847
0.00 0.00 1.18 0.27 7.85 1.67 -0.80 -0.69 1854
0.00 0.00 1.75 0.15 8.46 1.44 -0.72 -0.71 1861
0.00 0.00 2.50 -0.14 8.81 1.19 -0.48 -0.71 1868
0.00 0.00 2.77 -0.53 8.06 0.87 -0.19 -0.69 1875
0.00 0.00 2.72 -0.68 8.33 0.55 0.15 -0.63 1883
0.00 0.00 2.41 -0.64 7.83 0.29 0.41 -0.55 1890
0.00 0.00 1.86 -0.60 7.32 0.04 0.58 -0.47 1897
0.00 0.00 1.22 -0.78 6.80 -0.13 0.62 -0.36 1904
0.00 0.00 0.73 -1.20 6.47 -0.25 0.56 -0.26 1911
0.00 0.00 0.34 -1.75 6.26 -0.32 0.43 -0.13 1918
0.00 0.00 0.16 -2.34 6.25 -0.34 0.28 0.01 1926
0.00 0.00 0.04 -2.74 6.32 -0.33 0.19 0.12 1933
0.00 0.00 0.14 -3.06 6.44 -0.32 0.07 0.23 1940
0.00 0.00 0.19 -3.26 6.58 -0.31 -0.02 0.30 1947
0.00 0.00 0.22 -3.43 6.60 -0.32 -0.11 0.37 1954
0.00 0.00 0.37 -3.47 6.61 -0.34 -0.18 0.43 1961
0.00 0.00 0.46 -3.48 6.92 -0.38 -0.21 0.47 1969
0.00 0.00 0.69 -3.45 7.20 -0.46 -0.18 0.49 1976
0.00 -0.00 0.84 -3.44 7.32 -0.51 -0.11 0.50 1983
0.00 0.00 0.83 -3.46 7.55 -0.63 -0.00 0.50 1990
0.00 0.00 0.95 -3.51 7.83 -0.74 0.13 0.48 1997
0.00 0.00 0.91 -3.68 7.84 -0.87 0.25 0.45 2004
0.00 0.00 0.76 -3.90 7.80 -0.99 0.37 0.41 2012
0.00 0.00 0.57 -4.16 7.79 -1.08 0.43 0.36 2019
0.00 0.00 0.28 -4.22 7.64 -1.15 0.46 0.30 2026
0.00 0.00 0.05 -4.21 7.63 -1.19 0.43 0.25 2033
0.00 0.00 -0.04 -4.16 7.65 -1.21 0.38 0.20 2040
0.00 0.00 -0.17 -4.13 7.61 -1.22 0.31 0.16 2048
0.00 0.00 -0.12 -4.06 7.67 -1.22 0.26 0.12 2055
0.00 0.00 -0.03 -3.98 7.70 -1.20 0.20 0.08 2062
0.00 0.00 0.11 -3.89 7.84 -1.19 0.16 0.03 2069
0.00 0.00 0.29 -3.75 7.88 -1.17 0.16 -0.00 2076
0.00 0.00 0.46 -3.59 7.91 -1.17 0.18 -0.05 2083
0.00 0.00 0.55 -3.33 7.85 -1.17 0.21 -0.09 2091
0.00 0.00 0.58 -3.14 7.88 -1.17 0.25 -0.12 2098
0.00 0.00 0.61 -3.00 8.04 -1.18 0.31 -0.14 2105
0.00 0.00 0.55 -2.91 8.25 -1.20 0.34 -0.16 2112
0.00 0.00 0.46 -2.99 8.63 -1.24 0.37 -0.15 2119
0.00 0.00 0.52 -2.97 9.43 -1.31 0.37 -0.12 2126
0.00 0.00 0.45 -2.94 9.84 -1.43 0.35 -0.07 2134
0.00 0.00 0.34 -2.95 9.98 -1.57 0.30 0.01 2141
0.00 0.00 0.33 -3.05 9.96 -1.71 0.23 0.09 2148
0.00 0.00 0.36 -3.25 9.85 -1.84 0.11 0.16 2155
0.00 0.00 0.55 -3.50 9.60 -1.91 0.01 0.23 2162
0.00 0.00 0.70 -3.73 9.35 -1.95 -0.05 0.28 2169
0.00 0.00 1.01 -3.82 9.26 -1.95 -0.10 0.33 2177
0.00 0.00 1.34 -3.80 9.24 -1.94 -0.09 0.37 2184
0.00 0.00 1.64 -3.81 9.25 -1.93 -0.02 0.41 2191
0.00 0.00 1.79 -3.74 9.42 -1.92 0.09 0.44 2198
0.00 0.00 1.75 -3.80 9.65 -1.91 0.18 0.46 2205
0.00 0.00 1.52 -3.92 9.82 -1.91 0.28 0.49 2212
0.00 0.00 1.28 -4.04 10.15 -1.90 0.34 0.49 2220
0.00 0.00 1.09 -4.17 10.43 -1.89 0.36 0.50 2227
0.00 0.00 0.96 -4.26 10.77 -1.88 0.32 0.50 2234
0.00 0.00 1.02 -4.42 10.95 -1.87 0.26 0.50 2241
0.00 0.00 1.17 -4.49 10.91 -1.87 0.21 0.49 2248
0.00 0.00 1.28 -4.53 10.87 -1.87 0.17 0.46 2255
0.00 0.00 1.50 -4.63 10.73 -1.85 0.16 0.43 2263
0.00 0.00 1.65 -4.80 10.52 -1.83 0.16 0.37 2270
0.00 0.00 1.77 -4.99 10.38 -1.80 0.19 0.31 2277
0.00 0.00 1.77 -5.24 10.15 -1.74 0.24 0.25 2284
0.00 0.00 1.68 -5.45 10.01 -1.68 0.28 0.20 2291
0.00 0.00 1.60 -5.58 9.92 -1.58 0.30 0.16 2298
0.00 0.00 1.32 -5.63 10.17 -1.47 0.25 0.12 2306
0.00 0.00 0.99 -5.71 10.37 -1.37 0.14 0.10 2313
0.00 0.00 0.76 -5.77 10.46 -1.27 0.05 0.09 2320
0.00 0.00 0.77 -5.84 10.33 -1.18 -0.08 0.09 2327
0.00 0.00 0.91 -5.82 10.37 -1.11 -0.19 0.08 2334
0.00 0.00 1.02 -5.75 10.21 -1.06 -0.28 0.05 2341
0.00 0.00 1.28 -5.77 10.12 -1.02 -0.29 0.02 2349
0.00 0.00 1.45 -5.81 9.97 -0.99 -0.25 -0.00 2356
0.00 0.00 1.57 -5.80 9.82 -0.94 -0.15 -0.03 2363
0.00 0.00 1.52 -5.75 9.65 -0.91 -0.05 -0.06 2370
0.00 0.00 1.46 -5.85 9.65 -0.84 0.08 -0.07 2377
0.00 0.00 1.35 -5.94 9.68 -0.79 0.20 -0.08 2384
0.00 0.00 1.28 -6.03 9.65 -0.72 0.30 -0.09 2392
0.00 0.00 -2.53 -14.96 15.41 -0.54 0.03 -0.13 2399
0.00 0.00 -3.78 -7.92 10.89 -0.05 -0.92 -0.27 2406
0.00 0.00 -0.74 -3.90 5.44 0.01 -0.75 -0.24 2413
0.00 0.00 -0.41 -9.66 8.04 -0.10 -0.71 -0.20 2420
0.00 0.00 -2.77 -15.47 10.89 -0.05 -1.08 -0.22 2427
0.00 0.00 1.29 -10.96 6.45 0.42 -0.63 -0.06 2435
0.00 0.00 -2.68 -18.02 6.02 0.38 -0.38 0.16 2442
0.00 0.00 -6.14 -21.00 9.83 0.61 -0.77 0.33 2449
0.00 0.00 -13.80 -22.26 13.92 0.25 -0.73 0.36 2456
0.00 0.00 -1.97 0.29 8.79 -0.07 -0.04 0.09 2463
-0.00 0.00 -0.99 -3.98 9.51 -0.20 0.04 -0.06 2470
-0.00 0.01 -0.56 -0.98 9.18 -0.27 0.05 -0.05 2478
-0.00 0.02 0.40 -1.21 10.46 -0.22 0.09 -0.11 2485
-0.00 0.05 0.66 0.25 10.11 -0.14 0.08 -0.08 2492
0.03 0.03 0.51 0.07 10.16 -0.09 0.06 -0.09 2499
0.01 0.09 0.51 -0.39 9.92 -0.06 0.05 -0.07 2506
0.02 0.09 0.34 -0.84 9.92 -0.03 0.04 -0.06 2513
0.02 0.11 0.25 -0.99 9.99 -0.01 0.05 -0.05 2521
-0.00 0.10 0.21 -0.96 9.94 0.00 0.05 -0.05 2528
-0.01 0.10 0.31 -0.80 9.82 -0.00 0.05 -0.06 2535
-0.01 0.09 0.37 -0.79 9.81 0.01 0.06 -0.06 2542
-0.01 0.10 0.30 -0.72 9.71 0.01 0.06 -0.05 2549
-0.01 0.10 0.28 -0.79 9.66 0.00 0.06 -0.05 2556
0.04 0.09 0.29 -0.82 9.70 -0.00 0.07 -0.06 2564
0.04 0.08 0.30 -0.81 9.70 -0.01 0.08 -0.05 2571
0.05 0.10 0.24 -0.82 9.73 -0.03 0.08 -0.05 2578
0.01 0.12 0.24 -0.86 9.69 -0.04 0.09 -0.04 2585
-0.00 0.11 0.22 -0.88 9.80 -0.05 0.10 -0.04 2592
0.02 0.15 0.31 -0.92 9.89 -0.06 0.10 -0.03 2599
0.03 0.14 0.41 -0.91 9.87 -0.06 0.10 -0.04 2607
0.03 0.17 0.36 -0.84 9.91 -0.06 0.09 -0.04 2614
0.02 0.19 0.36 -0.79 9.84 -0.06 0.09 -0.04 2621
0.01 0.25 0.34 -0.83 9.88 -0.06 0.09 -0.04 2628
0.02 0.26 0.33 -0.74 10.42 -0.05 0.09 -0.05 2635
0.02 0.30 0.28 -0.77 9.71 -0.05 0.09 -0.04 2642
0.03 0.31 0.30 -0.81 9.75 -0.04 0.09 -0.04 2650
0.02 0.31 0.38 -0.77 9.95 -0.04 0.08 -0.03 2657
0.02 0.29 0.49 -0.77 9.87 -0.04 0.08 -0.03 2664
0.01 0.29 0.50 -0.83 9.86 -0.04 0.08 -0.03 2671
0.01 0.33 0.45 -0.82 9.85 -0.04 0.07 -0.04 2678
0.02 0.36 0.46 -0.80 9.90 -0.03 0.07 -0.04 2685
0.03 0.36 0.13 -0.78 9.87 -0.03 0.07 -0.04 2693
0.02 0.37 0.41 -0.82 9.81 -0.03 0.06 -0.05 2700
0.04 0.37 0.37 -0.79 9.83 -0.03 0.06 -0.05 2707
0.03 0.36 0.35 -0.72 9.82 -0.03 0.06 -0.05 2714
0.05 0.39 0.40 -0.76 9.80 -0.03 0.05 -0.06 2721
0.05 0.39 0.35 -0.78 9.83 -0.03 0.05 -0.06 2728
0.07 0.39 0.36 -0.72 9.81 -0.03 0.05 -0.06 2736
0.06 0.37 0.43 -0.70 9.81 -0.02 0.05 -0.06 2743
0.05 0.39 0.39 -0.72 9.82 -0.02 0.04 -0.06 2750
0.04 0.40 0.40 -0.72 9.82 -0.02 0.04 -0.07 2757
0.04 0.40 0.36 -0.77 9.81 -0.02 0.04 -0.07 2764
0.05 0.40 0.37 -0.74 9.80 -0.02 0.04 -0.07 2771
0.05 0.40 0.33 -0.73 9.81 -0.01 0.05 -0.10 2779
0.04 0.39 0.38 -0.73 9.83 -0.00 0.06 -0.07 2786
0.06 0.37 0.40 -0.75 9.82 -0.00 0.06 -0.07 2793
0.05 0.38 0.39 -0.75 9.83 0.00 0.07 -0.06 2800
0.05 0.38 0.45 -0.70 9.81 -0.00 0.06 -0.07 2807
0.06 0.37 0.38 -0.73 9.84 -0.00 0.07 -0.06 2814
0.06 0.37 0.37 -0.73 9.82 -0.00 0.06 -0.06 2822
0.06 0.36 0.43 -0.75 9.81 -0.00 0.06 -0.06 2829
0.05 0.36 0.36 -0.77 9.83 -0.00 0.06 -0.06 2836
0.05 0.35 0.38 -0.75 9.81 -0.00 0.06 -0.07 2843
0.06 0.37 0.37 -0.73 9.82 -0.00 0.06 -0.07 2850
0.07 0.36 0.36 -0.76 9.78 -0.00 0.06 -0.06 2857
0.05 0.34 0.40 -0.74 9.81 -0.03 0.07 -0.06 2865
0.05 0.33 0.39 -0.72 9.80 -0.00 0.07 -0.07 2872
0.05 0.33 0.40 -0.76 9.79 0.01 0.07 -0.07 2879
0.04 0.33 0.39 -0.76 9.81 0.01 0.07 -0.06 2886
0.05 0.34 0.41 -0.76 9.81 0.01 0.08 -0.07 2893
0.06 0.34 0.40 -0.74 9.78 0.00 0.08 -0.07 2900
0.05 0.32 0.46 -0.75 9.79 0.01 0.09 -0.07 2908
0.05 0.29 0.43 -0.73 9.80 0.01 0.10 -0.07 2915
0.04 0.31 0.46 -0.81 9.76 0.00 0.10 -0.07 2922
0.05 0.32 0.40 -0.74 10.37 0.00 0.11 -0.07 2929
0.05 0.34 0.58 -0.84 9.78 0.01 0.11 -0.06 2936
0.06 0.32 0.43 -0.77 9.82 -0.00 0.11 -0.07 2944
0.05 0.34 0.43 -0.76 9.83 0.00 0.11 -0.06 2951
0.04 0.32 0.54 -0.75 9.79 -0.00 0.11 -0.06 2958
0.04 0.32 0.48 -0.74 9.86 -0.00 0.11 -0.07 2965
0.05 0.32 0.40 -0.76 9.82 -0.00 0.12 -0.06 2972
0.06 0.29 0.06 -0.74 9.82 -0.00 0.12 -0.06 2979
0.05 0.28 0.51 -0.77 9.79 -0.00 0.12 -0.07 2987
0.04 0.29 0.46 -0.75 9.81 -0.01 0.13 -0.06 2994
0.05 0.28 0.34 -0.72 9.81 -0.01 0.13 -0.06 3001
0.05 0.26 0.46 -0.72 9.82 -0.01 0.13 -0.06 3008
0.05 0.27 0.42 -0.73 9.73 -0.01 0.10 -0.07 3015
0.05 0.26 0.74 -0.76 9.77 -0.00 0.13 -0.06 3022
0.05 0.26 0.75 -0.80 9.74 -0.00 0.14 -0.06 3030
0.04 0.25 0.55 -0.79 9.76 -0.00 0.14 -0.06 3037
0.03 0.24 0.57 -0.74 9.78 -0.00 0.13 -0.06 3044
0.01 0.25 0.57 -0.79 9.81 0.00 0.13 -0.06 3051
0.02 0.23 0.57 -0.78 9.81 -0.00 0.13 -0.06 3058
0.04 0.24 0.47 -0.74 9.84 0.00 0.13 -0.06 3065
0.03 0.22 0.60 -0.78 9.81 -0.00 0.12 -0.06 3073
0.03 0.19 0.59 -0.74 9.81 -0.00 0.11 -0.06 3080
0.02 0.18 0.61 -0.76 9.80 0.00 0.10 -0.06 3087
0.01 0.19 0.63 -0.76 9.80 0.00 0.10 -0.05 3094
0.02 0.21 0.51 -0.75 9.78 0.01 0.09 -0.06 3101
0.03 0.19 0.63 -0.77 9.82 0.01 0.09 -0.06 3108
0.02 0.17 0.62 -0.75 9.82 0.00 0.09 -0.06 3116
0.02 0.17 0.57 -0.75 9.76 0.01 0.09 -0.06 3123
0.01 0.14 0.65 -0.78 9.82 0.00 0.08 -0.06 3130
0.02 0.13 0.62 -0.77 9.81 0.01 0.08 -0.06 3137
0.03 0.12 0.61 -0.73 9.82 0.01 0.07 -0.07 3144
0.03 0.09 0.65 -0.77 9.21 0.00 0.07 -0.07 3151
0.02 0.07 0.69 -0.78 9.76 0.01 0.06 -0.07 3159
0.03 0.05 0.62 -0.78 9.80 0.01 0.05 -0.07 3166
0.02 0.06 0.66 -0.80 9.81 0.01 0.04 -0.07 3173
0.03 0.06 0.62 -0.80 9.81 0.01 0.03 -0.07 3180
0.03 0.07 0.60 -0.78 10.42 0.01 0.03 -0.07 3187
0.03 0.04 0.66 -0.81 9.78 0.01 0.02 -0.07 3194
0.04 0.07 0.63 -0.80 9.81 0.01 0.02 -0.07 3202
0.05 0.07 0.62 -0.77 9.81 0.01 0.03 -0.07 3209
0.04 0.07 0.62 -0.83 9.82 0.01 0.02 -0.07 3216
0.06 0.06 0.59 -0.79 9.80 0.01 0.03 -0.07 3223
0.07 0.06 0.62 -0.77 9.82 0.00 0.03 -0.06 3230
0.07 0.07 1.21 -0.80 9.77 0.00 0.04 -0.06 3237
0.07 0.06 0.62 -0.79 9.80 0.00 0.05 -0.07 3245
0.06 0.06 0.64 -0.81 9.79 -0.00 0.05 -0.06 3252
0.06 0.07 0.65 -0.80 9.79 0.00 0.05 -0.07 3259
0.06 0.08 0.62 -0.82 9.81 0.00 0.05 -0.07 3266
0.08 0.07 0.63 -0.80 9.79 0.00 0.05 -0.07 3273
0.07 0.05 0.61 -0.79 9.79 -0.00 0.04 -0.07 3280
0.06 0.04 0.62 -0.78 9.79 0.03 0.05 -0.07 3288
0.05 0.04 0.62 -0.80 9.84 -0.00 0.04 -0.07 3295
0.06 0.05 0.64 -0.78 9.81 0.00 0.04 -0.07 3302
0.08 0.07 0.62 -0.79 9.79 0.01 0.03 -0.07 3309
0.08 0.04 0.64 -0.80 9.80 0.00 0.03 -0.07 3316
0.07 0.04 0.61 -0.79 9.78 0.00 0.03 -0.06 3323
0.08 0.03 0.61 -0.81 9.79 0.01 0.03 -0.07 3331
0.05 0.04 0.63 -0.81 9.79 0.01 0.04 -0.07 3338
0.06 0.07 0.60 -0.80 9.81 0.01 0.04 -0.06 3345
0.08 0.05 0.61 -0.82 9.81 0.01 0.05 -0.07 3352
0.08 0.04 0.60 -0.80 9.80 0.01 0.05 -0.07 3359
0.08 0.01 0.00 -0.84 9.82 0.01 0.05 -0.07 3366
0.07 0.00 0.60 -0.78 9.80 0.02 0.06 -0.07 3374
0.05 0.00 0.60 -0.82 9.80 0.02 0.06 -0.07 3381
0.07 -0.00 0.63 -0.83 9.79 0.02 0.06 -0.07 3388
0.07 0.01 0.63 -0.82 9.80 0.02 0.06 -0.07 3395
0.08 -0.00 0.59 -0.83 9.82 0.02 0.07 -0.07 3402
0.07 -0.01 0.67 -0.84 9.79 0.03 0.07 -0.07 3409
0.07 -0.01 0.65 -0.82 9.80 0.03 0.07 -0.07 3417
0.07 -0.01 0.63 -0.87 9.83 0.04 0.07 -0.07 3424
0.08 0.00 0.60 -0.85 9.82 0.04 0.07 -0.07 3431
0.09 -0.00 0.68 -0.81 9.82 0.05 0.07 -0.07 3438
0.08 -0.01 0.65 -0.86 9.82 0.05 0.07 -0.07 3445
0.08 -0.01 0.62 -0.83 9.83 0.06 0.08 -0.07 3452
0.10 -0.00 0.67 -0.87 9.83 0.07 0.09 -0.07 3460
0.08 -0.01 0.63 -0.88 9.83 0.09 0.10 -0.07 3467
0.09 0.00 0.62 -0.81 9.83 0.10 0.11 -0.07 3474
0.13 -0.01 0.68 -0.88 9.84 0.12 0.13 -0.07 3481
0.15 0.00 0.63 -0.88 9.87 0.14 0.14 -0.07 3488
0.14 -0.01 0.66 -0.91 9.85 0.17 0.15 -0.07 3495
0.15 -0.01 0.67 -0.92 9.91 0.22 0.17 -0.08 3503
0.13 -0.01 0.74 -0.96 9.96 0.25 0.19 -0.08 3510
0.12 -0.01 0.64 -1.01 10.11 0.33 0.21 -0.08 3518
0.17 -0.02 0.76 -0.96 10.23 0.43 0.25 -0.09 3524
0.18 -0.02 0.86 -1.00 10.46 0.54 0.28 -0.10 3531
0.19 -0.02 0.91 -1.14 10.66 0.71 0.29 -0.12 3538
0.18 -0.01 0.92 -1.25 10.86 0.87 0.27 -0.13 3547
0.20 -0.02 0.84 -1.15 11.11 1.01 0.22 -0.16 3554
0.20 -0.01 0.75 -1.33 11.41 1.13 0.12 -0.17 3561
0.20 -0.02 0.91 -1.46 11.35 1.19 0.05 -0.20 3567
0.20 -0.02 1.12 -1.56 11.56 1.27 -0.04 -0.21 3574
0.18 -0.02 0.69 -1.57 11.78 1.33 -0.11 -0.22 3581
0.18 -0.02 0.72 -1.43 11.98 1.42 -0.19 -0.24 3589
0.18 -0.01 0.90 -1.67 11.71 1.54 -0.20 -0.25 3597
0.18 -0.01 0.92 -1.87 12.21 1.64 -0.23 -0.27 3604
0.15 -0.01 0.68 -2.03 12.20 1.77 -0.28 -0.28 3610
0.16 -0.02 1.73 -2.10 11.78 1.91 -0.31 -0.28 3617
0.13 -0.01 1.77 -2.46 11.89 2.00 -0.34 -0.31 3624
0.08 -0.01 1.68 -2.80 11.67 2.13 -0.40 -0.35 3632
0.09 -0.00 1.76 -2.65 12.92 2.24 -0.33 -0.38 3640
0.08 -0.01 1.75 -2.87 13.39 2.38 -0.29 -0.42 3646
0.06 -0.01 2.25 -3.45 13.72 2.51 -0.19 -0.47 3653
0.10 -0.01 2.61 -4.06 14.66 2.59 -0.00 -0.52 3660
0.04 -0.00 3.41 -4.37 15.34 2.67 0.23 -0.56 3667
0.00 0.00 3.38 -4.29 15.27 2.69 0.51 -0.65 3675
0.00 0.00 2.86 -4.02 15.42 2.67 0.72 -0.72 3682
0.00 0.00 2.23 -3.79 14.83 2.63 0.82 -0.79 3689
0.00 0.00 1.72 -3.66 14.20 2.62 0.82 -0.84 3696
0.00 0.00 0.76 -3.59 13.99 2.55 0.74 -0.86 3703
0.00 0.00 0.54 -3.58 12.92 2.41 0.59 -0.88 3710
0.00 0.00 0.37 -3.02 10.87 2.31 0.47 -0.90 3718
0.00 0.00 0.59 -1.91 9.74 2.20 0.41 -0.90 3725
0.00 0.00 0.81 -1.17 8.14 2.10 0.37 -0.91 3732
0.00 0.00 0.54 -0.21 7.32 1.95 0.30 -0.92 3739
0.00 0.00 0.73 1.24 6.76 1.76 0.24 -0.97 3746
0.00 0.00 0.14 1.20 6.34 1.62 0.15 -1.01 3753
0.00 0.00 -0.37 2.50 6.71 1.49 0.08 -1.05 3761
0.00 0.00 -0.91 0.58 6.44 1.36 0.05 -1.13 3768
0.00 0.00 -1.20 -1.39 7.13 1.22 -0.01 -1.17 3775
0.00 0.00 -1.48 -1.69 6.91 1.11 -0.12 -1.17 3782
0.00 0.00 -1.53 -0.99 6.76 1.10 -0.26 -1.13 3789
0.00 0.00 -1.31 -0.49 6.04 1.17 -0.44 -1.08 3796
0.00 0.00 -1.00 -0.38 5.09 1.23 -0.63 -1.02 3804
0.00 -0.00 -0.61 -0.35 4.84 1.27 -0.80 -0.95 3811
0.00 0.00 -0.18 -0.60 5.02 1.30 -0.94 -0.87 3818
0.00 0.00 0.10 -0.83 5.40 1.32 -1.04 -0.77 3825
0.00 0.00 0.84 -0.80 6.40 1.31 -0.98 -0.66 3832
0.00 0.00 2.01 -0.40 7.50 1.23 -0.80 -0.55 3840
0.00 0.00 2.84 -0.26 8.09 1.07 -0.53 -0.46 3847
0.00 0.00 2.96 -1.03 8.16 0.81 -0.13 -0.35 3854
0.00 0.00 -0.63 -13.23 7.71 0.60 0.22 -0.25 3861
0.00 0.00 1.06 -8.02 10.43 0.41 0.44 -0.30 3868
0.00 0.00 -0.40 -9.56 5.70 0.27 0.53 -0.27 3875
0.00 0.00 0.80 -1.62 7.37 0.35 0.41 -0.31 3883
0.00 0.00 -1.21 -11.63 4.82 -0.01 0.48 -0.24 3890
0.00 0.00 -1.97 -4.34 9.44 -0.17 0.37 -0.14 3897
0.00 0.00 0.32 2.93 9.12 -0.45 0.19 -0.06 3904
0.00 0.00 1.62 1.62 6.31 -0.93 0.12 0.17 3911
0.00 0.00 0.17 -3.20 8.07 -1.28 0.02 0.37 3918
0.00 0.00 0.33 -4.89 9.70 -1.59 -0.10 0.52 3926
0.00 0.00 0.62 -5.48 8.65 -1.71 -0.26 0.62 3933
0.00 0.00 0.84 -4.70 8.09 -1.66 -0.39 0.62 3940
0.00 0.00 0.95 -3.65 6.75 -1.52 -0.38 0.59 3947
0.00 0.00 1.07 -3.45 5.44 -1.34 -0.25 0.54 3954
0.00 0.00 1.17 -3.51 5.01 -1.19 -0.11 0.49 3961
0.00 0.00 1.39 -3.61 5.42 -1.04 0.09 0.40 3969
0.00 0.00 1.60 -3.56 6.33 -0.99 0.27 0.28 3976
0.00 0.00 1.55 -3.43 7.06 -0.93 0.48 0.19 3983
0.00 0.00 1.23 -3.07 7.66 -0.90 0.63 0.10 3990
0.00 0.00 0.86 -2.83 7.92 -0.90 0.70 0.05 3997
0.00 0.00 0.54 -2.64 8.12 -0.92 0.69 0.01 4004
0.00 0.00 0.33 -2.49 8.48 -0.96 0.63 -0.00 4012
0.00 0.00 0.31 -2.39 8.95 -1.01 0.52 0.01 4019
0.00 0.00 0.55 -2.33 9.59 -1.07 0.41 0.04 4026
0.00 0.00 0.72 -2.62 9.81 -1.16 0.35 0.07 4033
0.00 0.00 1.10 -3.29 9.85 -1.27 0.32 0.09 4040
0.00 0.00 0.62 -9.38 11.95 -1.43 0.35 0.09 4047
0.00 0.00 1.11 0.03 16.22 -1.59 0.44 0.03 4055
0.00 0.00 1.20 -4.50 7.30 -1.87 0.47 0.04 4062
0.00 0.00 1.72 -3.17 13.38 -1.85 0.57 0.00 4069
0.00 0.00 0.35 -4.64 7.63 -2.04 0.58 0.01 4076
0.00 0.00 0.05 -5.91 9.31 -1.95 0.56 0.02 4083
0.00 0.00 0.46 -6.01 9.78 -1.88 0.52 0.03 4090
0.00 0.00 0.32 -5.71 9.28 -1.72 0.46 0.07 4098
0.00 0.00 0.38 -5.43 8.77 -1.57 0.40 0.16 4105
0.00 0.00 0.45 -5.04 8.25 -1.43 0.30 0.20 4112
0.00 0.00 0.63 -4.66 8.22 -1.33 0.19 0.26 4119
0.00 0.00 0.86 -4.52 8.42 -1.22 0.13 0.32 4126
0.00 0.00 1.08 -4.48 8.69 -1.10 0.11 0.38 4133
-0.00 0.00 1.11 -4.30 8.70 -1.01 0.10 0.43 4141
0.00 0.00 1.00 -4.21 8.61 -0.90 0.11 0.47 4148
0.00 0.00 0.85 -4.23 8.60 -0.81 0.11 0.49 4155
0.00 0.00 -0.23 -8.42 7.88 -0.71 0.12 0.49 4162
0.00 0.00 -1.10 -4.59 14.46 -0.76 0.13 0.40 4169
0.00 0.00 0.44 -4.51 12.63 -0.98 0.16 0.37 4176
0.00 0.00 1.87 -0.27 14.45 -1.03 0.43 0.30 4184
0.00 0.00 1.75 -3.07 7.55 -1.39 0.76 0.35 4191
0.00 0.00 1.31 -1.50 9.27 -1.43 0.87 0.38 4198
0.00 0.00 0.60 -3.16 8.49 -1.58 0.89 0.51 4205
0.00 0.00 0.12 -4.12 9.77 -1.57 0.78 0.60 4212
0.00 0.00 -0.33 -4.37 10.81 -1.58 0.66 0.67 4219
0.00 0.00 -0.40 -3.78 10.33 -1.58 0.45 0.75 4227
0.00 0.00 -0.28 -3.53 9.93 -1.54 0.25 0.82 4234
0.00 0.00 -0.04 -3.58 9.52 -1.51 0.06 0.87 4241
0.00 0.00 0.26 -3.54 9.36 -1.48 -0.09 0.90 4248
0.00 0.00 0.64 -3.57 9.38 -1.45 -0.15 0.91 4255
0.00 0.00 0.97 -3.63 9.32 -1.38 -0.17 0.91 4262
0.00 0.00 1.08 -3.77 9.14 -1.31 -0.15 0.88 4270
0.00 0.00 1.04 -3.83 8.94 -1.22 -0.11 0.85 4277
0.00 0.00 0.84 -3.96 8.90 -1.12 -0.10 0.80 4284
0.00 0.00 0.66 -4.08 9.15 -1.00 -0.12 0.77 4291
0.00 0.00 0.57 -4.19 9.82 -0.87 -0.19 0.72 4298
0.00 0.00 0.76 -4.19 11.19 -0.80 -0.24 0.66 4305
0.00 0.00 1.35 -3.96 12.12 -0.81 -0.23 0.61 4313
0.00 0.00 1.92 -3.60 12.82 -0.96 -0.13 0.56 4320
0.00 0.00 2.12 -3.36 12.67 -1.17 -0.00 0.53 4327
0.00 0.00 2.10 -3.24 12.18 -1.47 0.16 0.51 4334
0.00 0.00 1.85 -3.55 11.68 -1.68 0.27 0.51 4341
0.00 0.00 1.61 -4.17 10.98 -1.83 0.34 0.52 4348
0.00 0.00 1.21 -4.84 10.02 -1.86 0.33 0.52 4356
0.00 0.00 0.86 -5.61 9.21 -1.77 0.28 0.51 4363
0.00 0.00 -0.30 -15.19 12.42 -1.47 -0.10 0.42 4370
0.00 0.00 -2.76 -10.75 9.48 -0.75 -0.76 0.18 4377
0.00 0.00 0.06 -6.41 2.20 -0.51 -0.75 0.10 4384
0.00 0.00 0.84 -9.58 4.25 -0.26 -0.86 -0.01 4391
0.00 0.00 0.69 -16.11 8.43 -0.01 -0.96 -0.17 4399
0.00 0.00 0.79 -15.94 5.66 0.53 -0.51 -0.25 4406
0.00 0.00 -0.63 -15.48 4.47 0.76 -0.36 -0.29 4413
-0.00 0.01 -3.66 -20.59 5.95 1.06 -0.54 -0.32 4420
-0.00 0.03 -4.19 -21.29 6.29 1.39 -0.92 -0.30 4427
0.00 0.04 0.08 0.44 8.10 1.74 -0.88 -0.28 4434
-0.00 0.03 0.34 -6.04 33.74 1.25 -2.39 -0.34 4442
-0.01 0.11 0.63 -2.55 10.06 -0.21 -0.16 0.09 4449
-0.01 0.12 0.35 -0.21 10.66 -0.29 0.00 -0.00 4456
-0.02 0.21 -0.14 -0.34 10.22 -0.27 -0.05 -0.06 4463
-0.01 0.24 0.32 -0.69 9.77 -0.15 -0.13 -0.12 4470
-0.02 0.23 0.60 -0.76 9.90 -0.06 -0.09 -0.13 4477
0.01 0.22 0.36 -0.88 9.83 -0.07 -0.04 -0.09 4485
-0.02 0.26 0.24 -1.07 9.91 -0.07 -0.01 -0.05 4492
-0.02 0.25 0.06 -0.97 9.93 -0.04 0.01 -0.05 4499
0.01 0.27 0.16 -0.77 9.90 -0.04 0.04 -0.05 4506
0.03 0.29 0.37 -0.91 9.80 -0.04 0.05 -0.05 4513
0.06 0.29 0.37 -0.89 9.82 -0.03 0.05 -0.05 4520
0.05 0.29 0.32 -0.83 9.83 -0.04 0.05 -0.05 4528
0.04 0.29 0.36 -0.84 9.78 -0.04 0.05 -0.05 4535
0.02 0.31 0.33 -0.79 9.64 -0.05 0.04 -0.05 4542
0.02 0.38 0.32 -0.77 9.75 -0.05 0.04 -0.05 4549
0.03 0.39 0.31 -0.82 9.74 -0.05 0.05 -0.05 4556
0.04 0.36 0.31 -0.88 9.91 -0.05 0.06 -0.05 4563
0.03 0.39 0.33 -0.85 9.21 -0.05 0.07 -0.05 4571
0.03 0.40 0.37 -0.86 9.76 -0.05 0.08 -0.05 4578
0.02 0.40 0.39 -0.80 9.85 -0.05 0.08 -0.05 4585
0.03 0.41 0.42 -0.76 9.83 -0.04 0.08 -0.05 4592
0.03 0.42 0.38 -0.79 9.77 -0.04 0.07 -0.05 4599
0.04 0.41 0.30 -0.72 9.82 -0.03 0.07 -0.05 4606
0.03 0.44 0.39 -0.74 9.82 -0.03 0.07 -0.05 4614
0.03 0.46 0.39 -0.72 9.76 -0.03 0.06 -0.06 4621
0.02 0.46 0.37 -0.74 9.76 -0.03 0.06 -0.06 4628
0.03 0.46 0.36 -0.73 9.80 -0.03 0.06 -0.06 4635
0.05 0.46 0.37 -0.74 9.67 -0.02 0.06 -0.06 4642
0.04 0.47 0.41 -0.74 9.73 -0.02 0.05 -0.07 4649
0.04 0.49 0.42 -0.72 9.77 -0.02 0.05 -0.06 4657
0.04 0.49 0.39 -0.75 9.81 -0.02 0.04 -0.07 4664
0.02 0.51 0.38 -0.74 9.81 -0.02 0.04 -0.07 4671
0.03 0.51 0.41 -0.78 9.79 -0.02 0.03 -0.07 4678
0.04 0.51 0.37 -0.74 9.82 -0.02 0.03 -0.07 4685
0.04 0.50 0.37 -0.74 9.76 -0.02 0.03 -0.07 4692
0.05 0.51 0.34 -0.76 9.82 -0.02 0.03 -0.07 4700
0.04 0.50 0.36 -0.76 9.81 -0.02 0.03 -0.07 4707
0.04 0.51 0.31 -0.77 9.79 -0.02 0.03 -0.06 4714
0.05 0.52 0.41 -0.75 9.81 -0.01 0.03 -0.07 4721
0.06 0.51 0.37 -0.72 9.81 -0.02 0.03 -0.07 4728
0.05 0.50 0.38 -0.72 9.78 -0.01 0.02 -0.07 4736
0.04 0.48 0.36 -0.71 9.82 -0.01 0.02 -0.07 4743
0.03 0.48 0.36 -0.77 9.83 -0.00 0.02 -0.07 4750
0.01 0.49 0.37 -0.70 9.82 0.00 0.02 -0.07 4757
0.03 0.48 0.39 -0.72 9.82 0.01 0.03 -0.07 4764
0.03 0.47 0.36 -0.76 9.78 0.01 0.03 -0.07 4771
0.03 0.45 0.37 -0.75 9.83 0.01 0.03 -0.07 4779
0.03 0.44 0.40 -0.75 9.81 0.01 0.03 -0.07 4786
0.02 0.42 0.37 -0.76 9.94 0.01 0.04 -0.07 4793
0.02 0.41 0.37 -0.72 9.87 0.01 0.03 -0.07 4800
0.03 0.42 0.38 -0.74 9.81 0.00 0.03 -0.07 4807
0.04 0.40 0.37 -0.76 9.82 0.01 0.03 -0.07 4814
0.03 0.39 0.32 -0.77 9.81 0.01 0.02 -0.07 4822
0.04 0.37 0.38 -0.77 9.81 0.00 0.02 -0.08 4829
0.03 0.37 0.32 -0.74 9.80 0.00 0.02 -0.07 4836
0.04 0.37 0.34 -0.79 9.79 0.00 0.03 -0.08 4843
0.06 0.36 0.35 -0.74 9.81 -0.00 0.03 -0.08 4850
0.05 0.35 0.32 -0.80 9.80 0.00 0.03 -0.08 4857
0.05 0.33 0.35 -0.74 9.82 0.00 0.03 -0.07 4865
0.04 0.33 0.33 -0.79 9.81 0.01 0.03 -0.08 4872
0.04 0.33 0.33 -0.81 9.78 0.01 0.00 -0.07 4879
0.07 0.35 0.35 -0.76 9.78 0.00 0.04 -0.07 4886
0.09 0.34 0.36 -0.79 9.81 0.01 0.04 -0.08 4893
0.09 0.31 0.33 -0.78 9.85 0.00 0.04 -0.08 4900
0.08 0.31 0.32 -0.77 9.71 0.00 0.04 -0.07 4908
0.07 0.29 0.31 -0.75 9.81 0.01 0.05 -0.08 4915
0.08 0.29 0.38 -0.80 10.42 -0.00 0.05 -0.07 4922
0.08 0.30 0.35 -0.79 9.81 -0.00 0.06 -0.07 4929
0.10 0.29 0.34 -0.79 9.80 0.00 0.05 -0.08 4936
0.08 0.28 0.34 -0.79 9.81 0.00 0.05 -0.07 4943
0.08 0.27 0.37 -0.78 9.82 -0.00 0.05 -0.08 4951
0.08 0.28 0.38 -0.81 9.79 0.00 0.05 -0.07 4958
0.08 0.29 0.34 -0.81 9.81 0.00 0.05 -0.08 4965
0.08 0.29 0.38 -0.75 9.82 -0.00 0.05 -0.08 4972
0.10 0.28 0.36 -0.78 9.81 0.00 0.05 -0.07 4979
0.08 0.29 0.38 -0.81 9.81 0.00 0.05 -0.08 4986
0.09 0.27 0.37 -0.79 9.81 0.00 0.05 -0.08 4994
0.08 0.24 0.42 -0.76 9.80 0.00 0.05 -0.08 5001
0.09 0.24 0.34 -0.79 9.82 0.01 0.05 -0.08 5008
0.08 0.27 0.35 -0.78 9.81 0.00 0.05 -0.08 5015
0.09 0.26 0.38 -0.79 9.80 0.00 0.06 -0.08 5022
0.08 0.24 0.36 -0.78 9.81 0.01 0.06 -0.08 5029
0.09 0.20 0.37 -0.79 9.81 0.01 0.07 -0.09 5037
0.08 0.21 0.33 -0.81 9.82 0.01 0.07 -0.08 5044
0.09 0.17 0.40 -0.79 9.82 0.01 0.07 -0.08 5051
0.11 0.19 0.35 -0.82 9.82 0.01 0.07 -0.08 5058
0.12 0.18 0.38 -0.79 9.84 0.01 0.07 -0.08 5065
0.10 0.19 0.38 -0.77 9.82 0.01 0.08 -0.08 5072
0.11 0.18 0.38 -0.82 9.80 0.01 0.07 -0.08 5080
0.10 0.17 0.37 -0.79 9.82 0.01 0.08 -0.08 5087
0.11 0.16 0.42 -0.83 9.82 0.01 0.07 -0.07 5094
0.12 0.16 0.42 -0.86 9.81 0.01 0.08 -0.07 5101
0.11 0.15 0.43 -0.85 9.80 0.01 0.08 -0.08 5108
0.12 0.14 0.38 -0.83 9.80 0.01 0.08 -0.08 5115
0.11 0.10 0.38 -0.83 9.81 0.01 0.08 -0.08 5123
0.11 0.09 0.44 -0.80 9.81 0.01 0.08 -0.07 5130
0.10 0.10 0.44 -0.81 9.81 0.00 0.07 -0.08 5137
0.12 0.07 0.40 -0.79 9.80 0.01 0.08 -0.08 5144
0.12 0.05 0.40 -0.82 9.82 0.00 0.07 -0.08 5151
0.11 0.07 0.35 -0.81 9.86 0.01 0.07 -0.08 5158
0.09 0.03 0.41 -0.82 9.82 0.01 0.07 -0.08 5166
0.10 0.02 0.46 -0.81 9.82 0.01 0.07 -0.08 5173
0.11 0.02 0.41 -0.81 9.81 0.01 0.08 -0.08 5180
0.13 0.02 0.44 -0.85 9.81 0.01 0.08 -0.08 5187
0.14 0.00 0.44 -0.84 9.81 0.01 0.08 -0.08 5194
0.14 0.03 0.44 -0.85 9.82 0.01 0.08 -0.08 5201
0.12 0.01 0.44 -0.84 9.80 0.01 0.08 -0.08 5209
0.13 0.01 0.45 -0.84 9.81 0.01 0.08 -0.08 5216
0.14 0.02 0.47 -0.81 9.80 0.01 0.08 -0.08 5223
0.14 0.01 0.46 -0.85 9.78 0.01 0.08 -0.08 5230
0.14 0.01 0.45 -0.87 9.82 0.01 0.07 -0.08 5237
0.14 0.00 0.50 -0.85 9.81 0.01 0.08 -0.08 5244
0.14 -0.00 0.47 -0.86 9.80 0.01 0.08 -0.08 5252
0.14 0.00 0.49 -0.83 9.81 0.01 0.07 -0.08 5259
0.15 0.01 0.46 -0.80 9.82 0.01 0.08 -0.08 5266
0.15 -0.00 0.46 -0.84 10.40 0.01 0.07 -0.08 5273
0.14 0.00 0.51 -0.86 9.83 0.01 0.07 -0.08 5280
0.15 -0.01 0.47 -0.87 9.83 0.01 0.08 -0.08 5287
0.14 -0.00 0.49 -0.86 9.82 0.01 0.07 -0.08 5295
0.13 0.00 0.46 -0.86 9.82 0.01 0.07 -0.08 5302
0.15 -0.00 0.50 -0.88 9.20 0.01 0.07 -0.08 5309
0.15 -0.01 0.49 -0.86 9.82 0.01 0.08 -0.08 5316
0.15 -0.01 0.51 -0.91 9.95 0.01 0.08 -0.08 5323
0.15 -0.01 0.51 -0.85 9.80 0.02 0.07 -0.08 5330
0.15 -0.00 0.49 -0.86 9.80 0.01 0.07 -0.08 5338
0.15 -0.00 0.53 -0.89 9.79 0.01 0.07 -0.08 5345
0.16 -0.00 0.50 -0.84 9.80 0.02 0.07 -0.07 5352
0.17 -0.02 0.47 -0.85 9.81 0.01 0.08 -0.08 5359
0.17 -0.01 0.51 -0.89 9.82 0.02 0.08 -0.07 5366
0.16 -0.01 0.51 -0.89 9.82 0.02 0.08 -0.07 5373
0.13 -0.01 0.53 -0.88 9.80 0.02 0.08 -0.07 5381
0.14 0.00 0.62 -0.93 9.80 0.02 0.08 -0.07 5388
0.16 -0.02 0.52 -0.90 9.74 0.03 0.09 -0.08 5395
0.14 -0.01 0.49 -0.86 9.81 0.03 0.09 -0.07 5402
0.15 -0.02 0.52 -0.86 9.82 0.04 0.10 -0.07 5409
0.16 -0.01 0.54 -0.92 9.82 0.04 0.10 -0.07 5416
0.20 -0.01 0.50 -0.86 9.82 0.05 0.11 -0.07 5424
0.17 -0.00 0.55 -0.89 9.82 0.06 0.12 -0.07 5431
0.19 -0.00 0.52 -0.88 9.82 0.07 0.13 -0.07 5438
0.19 -0.02 0.54 -0.92 9.82 0.08 0.13 -0.07 5445
0.19 -0.02 0.58 -0.93 9.82 0.09 0.15 -0.07 5452
0.18 -0.02 0.58 -0.90 9.83 0.11 0.17 -0.07 5459
0.16 -0.02 0.52 -0.90 9.87 0.12 0.18 -0.07 5467
0.18 -0.01 0.61 -0.91 9.90 0.14 0.19 -0.07 5474
0.19 -0.01 0.57 -0.94 9.92 0.17 0.21 -0.07 5481
0.20 -0.01 1.14 -0.91 9.92 0.20 0.22 -0.07 5488
0.22 -0.02 0.66 -0.97 10.04 0.25 0.23 -0.07 5495
0.20 -0.01 0.67 -1.03 10.06 0.31 0.24 -0.08 5502
0.20 -0.01 0.72 -1.02 10.28 0.40 0.25 -0.09 5510
0.19 -0.01 0.69 -1.05 10.32 0.51 0.26 -0.09 5517
0.18 -0.02 0.79 -1.10 10.62 0.63 0.27 -0.10 5524
0.16 -0.01 0.85 -1.17 10.95 0.81 0.25 -0.11 5532
0.16 -0.01 0.94 -1.28 11.56 0.98 0.21 -0.13 5539
0.14 -0.01 0.90 -1.42 11.36 1.08 0.17 -0.16 5545
0.14 -0.00 0.83 -1.39 10.84 1.18 0.09 -0.18 5553
0.15 -0.02 0.95 -1.52 11.42 1.24 0.06 -0.20 5560
0.13 -0.01 0.66 -1.55 12.24 1.35 0.02 -0.20 5567
0.14 -0.01 0.80 -1.77 11.26 1.46 -0.01 -0.21 5574
0.11 -0.01 0.83 -1.67 11.08 1.50 -0.04 -0.21 5581
0.10 -0.01 0.84 -1.82 11.24 1.56 -0.07 -0.21 5588
0.11 -0.01 0.88 -1.91 11.04 1.62 -0.11 -0.22 5597
0.12 -0.01 1.04 -2.24 11.58 1.68 -0.11 -0.22 5603
0.12 -0.01 0.84 -2.17 10.61 1.76 -0.13 -0.22 5610
0.07 -0.01 0.86 -2.35 10.93 1.79 -0.14 -0.23 5617
0.06 -0.01 0.86 -2.57 10.82 1.85 -0.14 -0.23 5624
0.05 -0.00 0.79 -2.71 10.95 1.88 -0.14 -0.24 5632
0.09 -0.01 0.95 -3.00 10.92 1.93 -0.12 -0.24 5639
0.08 -0.01 0.95 -3.15 10.91 1.98 -0.11 -0.25 5646
0.07 -0.01 0.98 -3.36 10.98 2.02 -0.07 -0.26 5653
0.06 -0.01 1.02 -3.66 11.19 2.07 -0.03 -0.27 5660
0.06 -0.01 0.98 -3.83 11.27 2.11 0.00 -0.27 5667
0.06 -0.01 1.13 -4.07 11.42 2.14 0.04 -0.28 5675
0.05 -0.01 1.14 -4.20 11.47 2.17 0.09 -0.30 5682
0.05 -0.01 1.23 -4.37 11.48 2.19 0.14 -0.31 5689
0.05 -0.00 1.20 -4.41 11.41 2.19 0.21 -0.33 5696
0.04 -0.00 1.13 -4.59 11.65 2.20 0.24 -0.35 5703
0.02 -0.00 0.97 -4.70 11.69 2.18 0.27 -0.37 5710
0.01 -0.00 0.72 -4.72 11.57 2.17 0.27 -0.37 5718
0.02 -0.00 0.61 -4.67 10.99 2.16 0.24 -0.38 5725
0.00 -0.00 0.16 -4.67 11.49 2.15 0.16 -0.39 5732
0.00 0.00 0.10 -4.85 11.20 2.14 0.06 -0.38 5739
0.00 0.00 0.21 -4.95 11.22 2.15 -0.04 -0.38 5746
0.00 0.00 0.25 -4.95 10.91 2.16 -0.17 -0.39 5753
0.00 -0.00 0.19 -5.01 10.58 2.18 -0.31 -0.38 5761
0.00 -0.00 0.31 -4.99 10.24 2.20 -0.41 -0.38 5768
0.00 0.00 0.52 -4.88 9.99 2.21 -0.53 -0.39 5775
0.00 -0.00 0.55 -4.80 9.60 2.22 -0.62 -0.39 5782
0.00 0.00 0.66 -4.66 9.26 2.23 -0.67 -0.38 5789
0.00 0.00 0.95 -4.48 8.65 2.21 -0.70 -0.39 5796
0.00 0.00 1.02 -4.43 8.27 2.17 -0.70 -0.38 5804
0.00 -0.00 1.29 -4.28 7.84 2.07 -0.68 -0.40 5811
0.00 0.00 1.59 -3.99 7.23 1.97 -0.60 -0.42 5818
0.00 0.00 1.81 -3.56 6.74 1.82 -0.53 -0.44 5825
0.00 0.00 2.21 -2.32 6.29 1.67 -0.38 -0.48 5832
0.00 0.00 2.17 0.37 5.97 1.48 -0.22 -0.52 5839
0.00 0.00 1.70 2.12 6.42 1.22 -0.05 -0.60 5847
0.00 0.00 1.26 2.55 6.33 0.96 0.07 -0.72 5854
0.00 0.00 1.06 -0.06 8.46 0.56 0.15 -0.79 5861
0.00 0.00 0.43 -1.07 9.49 0.15 0.16 -0.82 5868
0.00 0.00 0.10 -1.07 9.19 -0.09 0.18 -0.81 5875
0.00 0.00 -0.20 -0.72 8.30 -0.28 0.14 -0.79 5882
0.00 0.00 -0.21 -0.29 7.12 -0.41 0.05 -0.76 5890
0.00 0.00 -0.34 -0.20 5.65 -0.52 -0.03 -0.71 5897
0.00 0.00 -0.30 -0.51 5.85 -0.59 -0.13 -0.65 5904
0.00 0.00 -0.24 -0.89 5.95 -0.63 -0.19 -0.60 5911
0.00 0.00 -0.12 -1.12 6.08 -0.65 -0.22 -0.55 5918
0.00 0.00 0.01 -1.28 6.22 -0.65 -0.20 -0.50 5925
0.00 0.00 0.12 -1.27 6.29 -0.65 -0.17 -0.46 5933
0.00 0.00 0.27 -1.20 6.46 -0.68 -0.13 -0.42 5940
0.00 0.00 0.32 -1.25 6.76 -0.72 -0.04 -0.39 5947
0.00 0.00 0.36 -1.32 7.23 -0.80 0.01 -0.36 5954
0.00 0.00 0.43 -1.48 7.88 -0.90 0.10 -0.34 5961
0.00 0.00 0.44 -1.56 8.38 -1.05 0.17 -0.33 5968
0.00 0.00 0.40 -1.71 8.54 -1.24 0.23 -0.33 5976
0.00 0.00 0.39 -1.85 8.50 -1.40 0.26 -0.32 5983
0.00 0.00 0.32 -1.99 8.48 -1.57 0.27 -0.31 5990
0.00 0.00 0.33 -2.31 8.40 -1.68 0.27 -0.30 5997
0.00 0.00 0.32 -2.68 8.27 -1.79 0.29 -0.28 6004
0.00 0.00 0.30 -3.08 8.10 -1.86 0.30 -0.25 6011
0.00 -0.00 0.30 -3.49 8.25 -1.88 0.33 -0.21 6019
0.00 0.00 0.34 -3.76 8.45 -1.89 0.36 -0.17 6026
0.00 0.00 0.49 -3.96 8.59 -1.88 0.41 -0.12 6033
0.00 0.00 0.50 -4.12 8.73 -1.87 0.46 -0.08 6040
0.00 0.00 0.45 -4.19 8.87 -1.85 0.50 -0.04 6047
0.00 0.00 0.36 -4.25 9.00 -1.84 0.54 0.01 6054
0.00 0.00 0.33 -4.37 9.26 -1.84 0.55 0.05 6062
0.00 0.00 0.25 -4.48 9.47 -1.83 0.55 0.10 6069
0.00 0.00 0.21 -4.68 9.66 -1.81 0.56 0.16 6076
0.00 0.00 0.19 -4.85 9.68 -1.79 0.57 0.20 6083
0.00 0.00 0.10 -4.96 9.61 -1.77 0.57 0.25 6090
0.00 0.00 0.05 -5.00 9.49 -1.74 0.57 0.29 6097
0.00 0.00 -0.05 -5.02 9.46 -1.70 0.56 0.34 6105
0.00 0.00 -0.18 -4.98 9.48 -1.66 0.53 0.40 6112
0.00 0.00 -0.27 -4.99 9.53 -1.60 0.48 0.44 6119
0.00 0.00 -0.31 -4.69 9.84 -1.56 0.42 0.49 6126
0.00 0.00 -0.18 -4.32 9.99 -1.54 0.36 0.53 6133
0.00 0.00 0.00 -4.05 10.00 -1.56 0.31 0.56 6140
0.00 0.00 0.15 -3.80 9.99 -1.58 0.28 0.59 6148
0.00 0.00 0.26 -3.78 10.04 -1.62 0.28 0.60 6155
0.00 0.00 0.28 -3.93 10.12 -1.63 0.29 0.62 6162
0.00 0.00 0.23 -4.08 10.16 -1.63 0.30 0.62 6169
0.00 0.00 0.20 -4.23 10.18 -1.62 0.33 0.62 6176
0.00 0.00 0.10 -4.38 10.25 -1.60 0.35 0.60 6183
0.00 0.00 0.00 -4.52 10.39 -1.58 0.35 0.58 6191
0.00 0.00 -0.08 -4.78 10.64 -1.55 0.34 0.55 6198
0.00 0.00 -0.08 -4.83 10.81 -1.53 0.31 0.52 6205
0.00 0.00 -0.07 -4.82 10.86 -1.51 0.28 0.49 6212
0.00 0.00 -0.06 -4.76 10.72 -1.49 0.25 0.45 6219
0.00 0.00 -0.05 -4.73 10.55 -1.48 0.22 0.41 6226
0.00 0.00 -0.03 -4.72 10.40 -1.46 0.17 0.37 6234
0.00 0.00 -0.02 -4.62 10.20 -1.44 0.07 0.34 6241
0.00 0.00 0.05 -4.56 10.03 -1.42 0.04 0.31 6248
0.00 0.00 0.15 -4.40 10.01 -1.37 -0.05 0.29 6255
0.00 0.00 0.26 -4.40 10.07 -1.32 -0.11 0.27 6262
0.00 0.00 0.34 -4.53 10.19 -1.24 -0.14 0.25 6269
0.00 0.00 0.39 -4.76 10.32 -1.18 -0.14 0.23 6277
0.00 0.00 0.45 -4.98 10.45 -1.12 -0.13 0.19 6284
0.00 0.00 0.49 -5.12 10.50 -1.06 -0.10 0.16 6291
0.00 0.00 0.54 -5.13 10.42 -1.02 -0.06 0.12 6298
0.00 0.00 0.52 -5.11 10.42 -0.97 -0.01 0.10 6305
0.00 0.00 0.47 -4.94 10.49 -0.94 0.02 0.07 6312
0.00 0.00 0.47 -4.82 10.64 -0.92 0.06 0.06 6320
0.00 0.00 0.63 -4.68 10.75 -0.93 0.10 0.05 6327
0.00 0.00 0.76 -4.60 10.70 -0.96 0.17 0.03 6334
0.00 0.00 0.87 -4.66 10.56 -1.02 0.26 0.03 6341
0.00 -0.00 0.86 -4.63 10.11 -1.10 0.37 0.02 6348
0.00 0.00 0.82 -4.73 9.81 -1.09 0.45 0.03 6355
0.00 0.00 0.77 -4.87 9.54 -1.09 0.54 0.04 6363
0.00 0.00 0.79 -5.71 9.08 -1.05 0.62 0.07 6370
0.00 0.00 -3.63 -17.45 24.16 -0.51 0.90 0.23 6377
0.00 0.00 -0.19 -3.87 6.65 -0.09 0.76 0.37 6384
0.00 0.00 -1.89 -12.78 4.05 -0.13 0.46 0.33 6391
0.00 0.00 -1.75 -12.07 4.29 0.26 -0.13 0.33 6398
0.00 0.00 -2.76 -14.62 3.43 0.41 -0.40 0.36 6406
0.00 0.00 -1.27 -13.34 3.95 0.83 -0.34 0.43 6413
0.00 0.00 -3.60 -15.83 6.90 1.20 -0.71 0.45 6420
-0.00 0.01 -11.63 -31.59 22.96 1.02 -1.86 0.22 6428
-0.00 0.00 -3.47 -9.62 15.75 0.07 -0.51 -0.01 6434
-0.00 0.00 -0.34 -4.73 8.31 -0.28 0.15 0.03 6441
-0.00 0.02 0.20 -1.60 9.10 -0.30 0.09 -0.03 6449
-0.00 0.01 -0.19 -1.54 10.10 -0.35 0.07 -0.06 6456
-0.01 0.07 0.69 -0.32 10.24 -0.24 0.01 -0.02 6463
-0.01 0.08 1.10 0.06 10.69 -0.16 -0.00 -0.05 6470
-0.00 0.12 0.45 -0.47 9.85 -0.09 0.01 -0.07 6477
-0.01 0.13 0.22 -0.84 9.97 -0.04 0.00 -0.07 6484
0.03 0.11 0.17 -0.94 9.96 -0.03 0.02 -0.07 6492
0.03 0.13 0.16 -0.89 9.93 -0.02 0.04 -0.06 6499
0.06 0.11 0.34 -0.78 9.76 -0.02 0.04 -0.05 6506
0.04 0.12 0.35 -0.74 9.75 -0.01 0.05 -0.06 6513
0.03 0.13 0.31 -0.77 9.77 -0.01 0.05 -0.06 6520
0.04 0.13 0.34 -0.77 9.70 -0.02 0.05 -0.06 6528
0.05 0.10 0.38 -0.81 9.81 -0.01 0.05 -0.05 6535
0.03 0.11 0.37 -0.85 9.82 -0.02 0.05 -0.06 6542
0.06 0.12 0.34 -0.84 9.79 -0.02 0.04 -0.07 6549
0.06 0.13 0.37 -0.79 9.73 -0.03 0.04 -0.07 6556
0.06 0.13 0.29 -0.76 9.70 -0.04 0.04 -0.07 6563
0.04 0.14 0.29 -0.82 9.83 -0.05 0.04 -0.07 6571
0.06 0.12 0.28 -0.85 9.87 -0.05 0.05 -0.06 6578
0.05 0.17 0.33 -0.83 9.88 -0.05 0.05 -0.06 6585
0.05 0.23 0.30 -0.78 9.85 -0.05 0.05 -0.06 6592
0.06 0.23 0.34 -0.78 9.82 -0.04 0.06 -0.06 6599
0.06 0.21 0.39 -0.77 9.82 -0.03 0.06 -0.06 6606
0.02 0.21 0.36 -0.74 9.81 -0.03 0.06 -0.06 6614
0.00 0.21 0.34 -0.79 9.85 -0.03 0.05 -0.06 6621
0.00 0.24 0.35 -0.80 9.82 -0.03 0.06 -0.06 6628
0.02 0.23 0.34 -0.76 9.80 -0.03 0.06 -0.06 6635
0.05 0.22 0.36 -0.78 9.92 -0.03 0.06 -0.06 6642
0.05 0.23 0.34 -0.74 9.81 -0.03 0.06 -0.05 6649
0.04 0.22 0.39 -0.75 10.41 -0.03 0.05 -0.06 6657
0.02 0.26 0.37 -0.76 9.83 -0.03 0.05 -0.06 6664
0.03 0.25 0.36 -0.77 9.82 -0.03 0.05 -0.06 6671
0.03 0.24 0.34 -0.75 9.82 -0.03 0.05 -0.05 6678
0.04 0.26 0.29 -0.74 9.85 -0.02 0.06 -0.06 6685
0.04 0.25 0.33 -0.73 10.41 -0.02 0.06 -0.06 6692
0.04 0.27 0.36 -0.76 9.87 -0.02 0.06 -0.06 6700
0.03 0.27 0.39 -0.74 9.85 -0.02 0.06 -0.06 6707
0.04 0.28 0.39 -0.79 9.79 -0.02 0.06 -0.06 6714
0.04 0.30 0.39 -0.74 9.74 -0.02 0.06 -0.06 6721
0.05 0.28 0.37 -0.76 9.79 -0.01 0.06 -0.06 6728
0.04 0.30 0.36 -0.73 9.79 -0.02 0.05 -0.06 6735
0.04 0.30 0.36 -0.75 9.83 -0.02 0.05 -0.06 6743
0.03 0.30 0.37 -0.73 9.80 -0.01 0.04 -0.06 6750
0.02 0.30 0.38 -0.74 9.89 -0.01 0.04 -0.06 6757
0.05 0.31 0.39 -0.69 9.83 -0.01 0.04 -0.07 6764
0.04 0.28 0.39 -0.77 9.83 -0.01 0.03 -0.06 6771
0.04 0.29 0.37 -0.74 9.76 -0.01 0.03 -0.06 6778
0.04 0.30 0.39 -0.74 9.82 -0.01 0.02 -0.07 6786
0.05 0.31 0.39 -0.73 9.80 -0.01 0.02 -0.07 6793
0.06 0.32 0.37 -0.73 9.79 -0.01 0.02 -0.07 6800
0.07 0.33 0.38 -0.76 9.81 -0.01 0.02 -0.07 6807
0.08 0.33 0.34 -0.76 9.82 -0.01 0.02 -0.07 6814
0.08 0.34 0.35 -0.76 9.81 -0.01 0.01 -0.07 6821
0.07 0.35 0.35 -0.74 9.81 -0.01 0.01 -0.07 6829
0.07 0.34 0.34 -0.74 9.83 -0.01 0.01 -0.07 6836
0.08 0.35 0.30 -0.74 9.83 -0.01 0.02 -0.07 6843
0.10 0.33 0.33 -0.74 9.82 -0.01 0.03 -0.07 6850
0.09 0.34 0.36 -0.76 9.81 -0.01 0.03 -0.07 6857
0.09 0.34 0.35 -0.74 9.82 -0.01 0.03 -0.06 6864
0.08 0.35 0.33 -0.74 9.82 -0.01 0.03 -0.07 6872
0.07 0.35 0.33 -0.75 9.81 -0.01 0.03 -0.07 6879
0.08 0.36 0.33 -0.71 9.81 -0.01 0.03 -0.06 6886
0.10 0.35 0.31 -0.77 9.81 -0.01 0.04 -0.06 6893
0.09 0.35 0.36 -0.76 9.82 -0.01 0.04 -0.07 6900
0.08 0.35 0.34 -0.73 9.83 -0.01 0.04 -0.07 6907
0.06 0.34 0.33 -0.74 9.20 -0.01 0.04 -0.06 6915
0.07 0.35 0.34 -0.76 9.85 -0.01 0.04 -0.07 6922
0.08 0.35 0.35 -0.73 9.81 -0.01 0.04 -0.07 6929
0.08 0.35 0.36 -0.73 9.81 -0.01 0.05 -0.06 6936
0.07 0.33 0.35 -0.75 9.80 -0.01 0.05 -0.06 6943
0.06 0.32 0.34 -0.75 10.42 -0.01 0.05 -0.07 6950
0.04 0.33 0.28 -0.74 9.79 -0.01 0.05 -0.06 6958
0.05 0.33 0.36 -0.73 9.82 -0.01 0.06 -0.06 6965
0.06 0.32 0.34 -0.72 9.81 -0.02 0.06 -0.06 6972
0.04 0.34 0.33 -0.74 9.82 -0.01 0.06 -0.06 6979
0.04 0.35 0.38 -0.75 9.81 -0.02 0.06 -0.06 6986
0.04 0.33 0.40 -0.70 9.79 -0.01 0.06 -0.06 6993
0.03 0.34 0.36 -0.73 9.82 -0.01 0.06 -0.06 7001
0.03 0.35 0.35 -0.72 9.81 -0.01 0.06 -0.06 7008
0.04 0.33 0.36 -0.74 9.83 -0.01 0.06 -0.06 7015
0.04 0.35 0.35 -0.74 9.82 -0.01 0.06 -0.06 7022
0.03 0.37 0.38 -0.75 9.82 -0.01 0.06 -0.06 7029
0.03 0.37 0.37 -0.69 9.82 -0.01 0.03 -0.06 7036
0.03 0.37 0.36 -0.74 10.41 -0.02 0.06 -0.06 7044
0.03 0.40 0.32 -0.74 9.81 -0.01 0.07 -0.06 7051
0.04 0.41 0.36 -0.73 9.82 -0.01 0.07 -0.06 7058
0.04 0.40 0.34 -0.73 9.80 -0.01 0.07 -0.06 7065
0.04 0.36 0.36 -0.77 9.82 -0.01 0.09 -0.05 7072
0.03 0.38 0.39 -0.71 9.81 -0.01 0.09 -0.06 7079
0.04 0.39 0.42 -0.70 9.81 -0.01 0.09 -0.06 7087
0.05 0.41 0.39 -0.69 9.81 -0.01 0.09 -0.06 7094
0.05 0.41 0.37 -0.67 9.78 -0.01 0.09 -0.06 7101
0.04 0.40 0.46 -0.68 9.81 -0.01 0.09 -0.06 7108
0.04 0.38 0.40 -0.71 9.80 -0.01 0.09 -0.06 7115
0.03 0.39 0.41 -0.72 9.80 -0.01 0.09 -0.06 7122
0.04 0.37 0.39 -0.70 9.81 -0.01 0.09 -0.06 7130
0.04 0.39 0.40 -0.69 9.81 -0.00 0.09 -0.06 7137
0.05 0.39 0.42 -0.72 9.81 -0.01 0.09 -0.05 7144
0.04 0.39 0.40 -0.73 9.81 -0.00 0.09 -0.06 7151
0.03 0.37 0.38 -0.72 9.80 -0.00 0.08 -0.06 7158
0.03 0.37 0.41 -0.72 9.82 -0.00 0.08 -0.06 7165
0.04 0.37 0.40 -0.74 10.40 -0.01 0.08 -0.06 7173
0.05 0.37 0.46 -0.74 9.82 -0.01 0.08 -0.06 7180
0.05 0.37 0.41 -0.70 9.82 -0.01 0.08 -0.05 7187
0.05 0.36 0.44 -0.71 9.82 -0.01 0.09 -0.06 7194
0.04 0.36 0.45 -0.68 9.79 -0.01 0.09 -0.06 7201
0.04 0.35 0.46 -0.72 9.81 -0.00 0.08 -0.06 7208
0.04 0.34 0.45 -0.72 9.80 -0.00 0.08 -0.06 7216
0.05 0.33 0.45 -0.72 9.81 -0.00 0.08 -0.06 7223
0.05 0.32 0.48 -0.72 9.81 0.00 0.08 -0.06 7230
0.05 0.32 0.45 -0.71 9.81 -0.00 0.08 -0.06 7237
0.05 0.31 0.46 -0.70 9.77 -0.00 0.08 -0.06 7244
0.04 0.32 0.45 -0.71 9.81 -0.00 0.08 -0.06 7251
0.04 0.33 0.48 -0.72 9.79 -0.00 0.03 -0.06 7259
0.06 0.31 0.51 -0.72 9.80 -0.00 0.06 -0.06 7266
0.05 0.31 0.51 -0.72 9.82 -0.00 0.06 -0.06 7273
0.05 0.31 0.49 -0.72 9.80 -0.01 0.05 -0.06 7280
0.04 0.32 0.48 -0.71 9.82 -0.01 0.05 -0.06 7287
0.04 0.32 0.49 -0.69 9.82 -0.01 0.05 -0.06 7294
0.04 0.32 0.48 -0.72 9.78 -0.01 0.04 -0.06 7302
0.05 0.31 0.49 -0.69 9.78 -0.01 0.03 -0.06 7309
0.05 0.31 0.51 -0.69 9.78 -0.01 0.03 -0.06 7316
0.05 0.30 0.50 -0.73 9.80 -0.00 0.03 -0.06 7323
0.03 0.31 0.48 -0.72 9.81 -0.00 0.03 -0.06 7330
0.05 0.31 0.47 -0.72 10.42 0.00 0.03 -0.06 7337
0.05 0.30 0.47 -0.74 9.79 0.00 0.04 -0.06 7345
0.05 0.28 0.45 -0.76 9.82 0.01 0.04 -0.06 7352
0.05 0.28 0.43 -0.73 9.82 0.00 0.04 -0.06 7359
0.06 0.26 0.45 -0.75 9.79 0.00 0.04 -0.06 7366
0.05 0.26 0.45 -0.74 9.82 0.01 0.05 -0.06 7373
0.06 0.24 0.50 -0.74 9.82 0.01 0.05 -0.06 7380
0.07 0.24 0.46 -0.74 9.79 0.01 0.05 -0.07 7388
0.06 0.23 ˜‰þ9 -0.75 9.82 0.01 0.05 -0.07 7395
0.06 0.25 0.50 -0.73 9.80 0.01 0.05 -0.07 7402
0.06 0.23 0.49 -0.74 9.76 0.01 0.04 -0.06 7409
0.06 0.25 0.50 -0.74 9.80 0.01 0.05 -0.07 7416
0.06 0.23 0.49 -0.76 9.77 0.01 0.05 -0.07 7424
0.06 0.22 0.53 -0.74 9.81 0.02 0.05 -0.07 7431
0.06 0.18 0.51 -0.74 9.79 0.02 0.05 -0.07 7438
0.06 0.17 0.46 -0.77 9.79 0.02 0.05 -0.08 7445
0.07 0.17 0.49 -0.73 9.79 0.02 0.05 -0.07 7452
0.07 0.13 0.52 -0.72 9.82 0.02 0.06 -0.07 7459
0.09 0.08 0.52 -0.79 9.20 0.02 0.06 -0.07 7467
0.10 0.04 0.49 -0.72 9.82 0.03 0.07 -0.07 7474
0.10 0.04 0.51 -0.72 9.70 0.03 0.07 -0.07 7481
0.10 0.07 0.54 -0.74 9.85 0.03 0.07 -0.07 7488
0.09 0.09 0.51 -0.79 9.83 0.04 0.08 -0.07 7495
0.12 0.05 0.52 -0.77 9.84 0.04 0.08 -0.07 7502
0.14 0.02 0.49 -0.73 9.83 0.05 0.09 -0.07 7510
0.16 -0.00 0.52 -0.81 9.89 0.06 0.10 -0.08 7517
0.14 0.00 0.51 -0.81 9.84 0.08 0.11 -0.07 7524
0.14 -0.01 0.52 -0.79 9.88 0.10 0.13 -0.07 7531
0.15 -0.02 0.60 -0.79 9.95 0.13 0.15 -0.07 7538
0.18 -0.02 0.61 -0.82 9.99 0.17 0.19 -0.08 7545
0.19 -0.01 0.65 -0.74 10.14 0.22 0.26 -0.10 7554
0.21 -0.02 0.71 -0.88 10.21 0.30 0.30 -0.11 7560
0.20 -0.01 0.87 -0.87 10.28 0.41 0.37 -0.13 7568
0.19 -0.02 1.06 -0.95 10.70 0.57 0.40 -0.15 7574
0.20 -0.02 0.77 -1.02 11.23 0.82 0.41 -0.18 7581
0.19 -0.01 0.61 -1.15 11.70 1.05 0.37 -0.19 7588
0.19 -0.01 0.51 -1.15 12.04 1.23 0.29 -0.19 7597
0.17 -0.01 0.71 -1.33 11.73 1.32 0.23 -0.20 7604
0.15 -0.02 0.65 -1.48 11.51 1.37 0.14 -0.21 7610
0.15 -0.02 0.60 -1.46 11.63 1.45 0.09 -0.21 7617
0.14 -0.01 0.89 -1.64 10.71 1.52 0.04 -0.21 7624
0.14 -0.00 0.62 -0.84 10.18 1.53 0.02 -0.17 7631
0.15 -0.01 0.82 -1.88 10.61 1.53 -0.09 -0.20 7639
0.12 -0.00 0.76 -1.93 10.69 1.56 -0.06 -0.20 7646
0.12 -0.00 0.83 -1.99 10.67 1.64 -0.09 -0.20 7653
0.11 -0.01 0.72 -2.19 10.83 1.71 -0.10 -0.18 7660
0.11 -0.01 0.70 -2.25 10.39 1.74 -0.12 -0.19 7667
0.10 0.00 0.68 -2.47 10.49 1.77 -0.14 -0.18 7674
0.06 -0.01 0.71 -2.53 10.64 1.80 -0.14 -0.18 7682
0.05 -0.01 0.76 -2.72 10.62 1.86 -0.15 -0.18 7689
0.05 -0.01 0.88 -3.02 10.31 1.91 -0.14 -0.19 7696
0.05 -0.01 0.76 -3.06 11.04 1.98 -0.14 -0.23 7703
0.04 -0.00 1.05 -3.42 10.21 2.03 -0.14 -0.21 7710
0.03 -0.00 1.02 -3.65 10.55 2.08 -0.14 -0.23 7717
0.06 -0.01 1.01 -3.68 10.48 2.14 -0.13 -0.24 7725
0.08 -0.01 1.00 -3.96 11.29 2.19 -0.11 -0.26 7732
0.06 -0.01 1.19 -4.32 11.46 2.23 -0.08 -0.27 7739
0.05 -0.01 1.29 -4.45 11.65 2.26 -0.03 -0.28 7746
0.07 -0.01 1.27 -4.60 11.42 2.27 0.02 -0.30 7753
0.07 -0.01 1.41 -4.90 11.40 2.27 0.07 -0.32 7760
0.09 -0.01 1.23 -4.89 11.38 2.25 0.12 -0.34 7768
0.08 -0.01 1.13 -5.18 11.74 2.22 0.14 -0.36 7775
0.08 -0.01 1.24 -5.37 11.77 2.18 0.17 -0.38 7782
0.08 -0.01 1.03 -5.31 11.66 2.14 0.18 -0.40 7789
0.07 -0.01 0.83 -5.19 11.25 2.08 0.14 -0.42 7796
0.07 -0.01 0.70 -5.16 11.11 2.01 0.07 -0.44 7803
0.01 -0.00 0.80 -5.28 11.10 1.99 0.02 -0.46 7811
0.00 -0.00 0.91 -5.19 10.91 1.98 -0.04 -0.48 7818
0.00 0.00 0.94 -5.16 10.62 1.97 -0.09 -0.50 7825
0.00 0.00 0.94 -4.96 10.18 1.96 -0.11 -0.51 7832
0.00 -0.00 0.90 -4.66 9.82 1.95 -0.15 -0.54 7839
0.00 -0.00 0.95 -4.64 9.25 1.94 -0.20 -0.55 7846
0.00 0.00 0.78 -4.40 8.70 1.95 -0.17 -0.56 7854
0.00 0.00 0.88 -3.90 7.63 1.93 -0.16 -0.57 7861
0.00 0.00 0.87 -3.12 6.58 1.89 -0.17 -0.58 7868
0.00 0.00 0.96 -3.33 6.08 1.81 -0.21 -0.61 7875
0.00 0.00 0.90 -2.87 5.82 1.72 -0.26 -0.64 7882
0.00 -0.00 0.77 -2.55 5.88 1.60 -0.29 -0.67 7889
0.00 0.00 0.69 -2.23 6.28 1.47 -0.30 -0.69 7897
0.00 0.00 0.63 -1.29 7.06 1.36 -0.26 -0.73 7904
0.00 0.00 0.73 0.74 6.81 1.21 -0.24 -0.75 7911
0.00 0.00 0.67 1.16 7.58 1.03 -0.19 -0.80 7918
-0.00 0.00 0.57 -0.62 8.08 0.72 -0.19 -0.83 7925
0.00 0.00 0.45 -1.38 8.88 0.43 -0.20 -0.80 7932
0.00 -0.00 0.40 -1.45 8.76 0.24 -0.18 -0.74 7940
0.00 0.00 0.48 -1.09 8.30 0.10 -0.17 -0.67 7947
0.00 0.00 0.52 -0.55 7.75 -0.01 -0.17 -0.58 7954
0.00 0.00 0.57 -0.26 7.22 -0.13 -0.17 -0.47 7961
0.00 0.00 0.70 -0.29 7.26 -0.26 -0.18 -0.41 7968
0.00 0.00 0.83 -0.56 7.57 -0.39 -0.16 -0.33 7975
0.00 0.00 0.95 -0.89 7.77 -0.53 -0.12 -0.25 7983
0.00 0.00 0.95 -1.20 7.73 -0.70 -0.07 -0.17 7990
0.00 0.00 0.99 -1.51 7.69 -0.79 -0.03 -0.07 7997
0.00 0.00 0.96 -1.77 7.47 -0.90 0.01 -0.05 8004
0.00 -0.00 0.85 -2.07 7.22 -0.98 0.02 0.00 8011
0.00 0.00 0.76 -2.30 7.21 -1.04 0.02 0.03 8018
0.00 0.00 0.71 -2.63 7.24 -1.08 0.03 0.06 8026
0.00 0.00 0.67 -2.90 7.42 -1.10 0.04 0.09 8033
0.00 0.00 0.68 -3.03 7.47 -1.12 0.07 0.09 8040
0.00 0.00 0.62 -3.09 7.56 -1.14 0.11 0.09 8047
0.00 0.00 0.57 -2.99 7.77 -1.19 0.16 0.09 8054
0.00 0.00 0.58 -2.89 7.99 -1.25 0.25 0.09 8061
0.00 0.00 0.52 -2.78 8.18 -1.32 0.32 0.09 8069
0.00 0.00 0.31 -2.80 8.27 -1.41 0.40 0.09 8076
0.00 0.00 0.12 -2.87 8.35 -1.49 0.44 0.10 8083
0.00 0.00 0.02 -2.89 8.39 -1.57 0.46 0.11 8090
0.00 0.00 -0.08 -3.07 8.38 -1.64 0.45 0.11 8097
0.00 0.00 -0.11 -3.21 8.45 -1.68 0.44 0.12 8104
0.00 0.00 -0.19 -3.33 8.61 -1.73 0.42 0.12 8112
0.00 0.00 -0.15 -3.42 8.69 -1.76 0.41 0.11 8119
0.00 0.00 -0.15 -3.42 8.80 -1.80 0.39 0.10 8126
0.00 0.00 -0.07 -3.45 8.98 -1.84 0.40 0.07 8133
0.00 -0.00 0.01 -3.50 9.07 -1.88 0.42 0.04 8140
0.00 0.00 -0.01 -3.59 9.79 -1.93 0.45 0.02 8147
0.00 0.00 -0.01 -3.70 9.30 -1.98 0.48 -0.02 8155
0.00 0.00 -0.01 -3.75 9.39 -2.02 0.50 -0.06 8162
0.00 0.00 -0.07 -3.85 9.29 -2.06 0.51 -0.09 8169
0.00 0.00 -0.05 -3.84 9.34 -2.09 0.51 -0.12 8176
0.00 0.00 -0.09 -3.88 9.09 -2.09 0.48 -0.14 8183
0.00 0.00 -0.16 -3.91 9.09 -2.07 0.46 -0.14 8190
0.00 0.00 -0.21 -4.07 9.24 -2.03 0.47 -0.12 8198
0.00 0.00 -0.23 -4.15 9.55 -1.98 0.46 -0.08 8205
0.00 0.00 -0.26 -4.19 9.94 -1.90 0.44 -0.03 8212
0.00 0.00 -0.17 -4.21 10.37 -1.90 0.42 0.06 8219
0.00 0.00 -0.03 -4.23 10.72 -1.88 0.39 0.11 8226
0.00 0.00 -0.06 -4.14 11.12 -1.88 0.38 0.19 8233
0.00 0.00 -0.03 -4.20 11.47 -1.90 0.35 0.25 8241
0.00 0.00 0.12 -4.36 11.79 -1.97 0.34 0.32 8248
0.00 0.00 0.18 -4.52 11.78 -1.97 0.33 0.36 8255
0.00 0.00 0.20 -4.65 11.62 -2.01 0.32 0.40 8262
0.00 0.00 0.29 -4.78 11.37 -2.01 0.33 0.42 8269
0.00 0.00 0.36 -4.92 11.21 -1.99 0.33 0.44 8276
0.00 0.00 0.39 -5.05 11.00 -1.94 0.31 0.44 8284
0.00 0.00 0.47 -5.13 10.71 -1.88 0.30 0.45 8291
0.00 0.00 0.63 -5.02 10.48 -1.79 0.26 0.45 8298
0.00 0.00 0.81 -4.78 10.40 -1.71 0.23 0.45 8305
0.00 0.00 0.96 -4.64 10.43 -1.61 0.20 0.47 8312
0.00 0.00 1.05 -4.56 10.39 -1.51 0.17 0.50 8320
0.00 0.00 1.13 -4.39 10.35 -1.41 0.14 0.53 8327
0.00 0.00 1.14 -4.33 10.23 -1.29 0.09 0.56 8334
0.00 0.00 1.09 -4.26 10.10 -1.15 0.03 0.59 8341
0.00 0.00 1.02 -4.22 10.11 -1.04 -0.03 0.62 8348
0.00 0.00 0.95 -4.16 10.10 -0.90 -0.11 0.65 8355
0.00 0.00 0.99 -4.09 10.14 -0.78 -0.17 0.69 8363
0.00 0.00 1.10 -4.06 10.18 -0.65 -0.22 0.71 8370
0.00 0.00 1.23 -4.11 10.27 -0.55 -0.24 0.72 8377
0.00 0.00 1.38 -4.11 10.55 -0.45 -0.22 0.73 8384
0.00 0.00 1.57 -4.20 10.75 -0.39 -0.18 0.72 8391
0.00 0.00 1.64 -4.29 10.80 -0.36 -0.08 0.71 8398
0.00 0.00 1.77 -4.33 10.63 -0.36 0.03 0.69 8406
0.00 0.00 1.67 -4.51 10.45 -0.37 0.16 0.66 8413
0.00 0.00 1.56 -4.75 10.32 -0.38 0.25 0.63 8420
0.00 0.00 1.47 -5.04 10.27 -0.40 0.34 0.60 8427
0.00 0.00 1.30 -5.39 10.43 -0.42 0.40 0.56 8434
0.00 0.00 1.11 -5.57 10.55 -0.44 0.44 0.52 8441
0.00 0.00 1.01 -5.81 10.55 -0.50 0.48 0.48 8449
0.00 0.00 0.84 -5.93 10.31 -0.57 0.49 0.42 8456
0.00 0.00 0.63 -6.05 9.93 -0.66 0.47 0.37 8463
0.00 0.00 -0.01 -8.01 10.38 -0.72 0.40 0.32 8470
0.00 0.00 -0.78 -10.43 12.08 -0.50 0.23 0.28 8477
0.00 0.00 -0.48 -7.03 6.81 -0.34 0.20 0.25 8484
0.00 0.00 -1.64 -8.44 5.62 -0.34 0.21 0.25 8492
0.00 0.00 -2.32 -10.60 7.18 -0.16 0.20 0.29 8499
0.00 0.00 -3.46 -12.00 8.04 0.07 0.10 0.31 8506
0.00 0.00 -2.88 -12.32 5.46 0.22 -0.10 0.26 8513
0.00 0.00 -3.21 -14.58 6.08 0.50 -0.43 0.21 8520
0.00 0.00 -3.08 -16.65 5.40 0.72 -0.73 0.15 8527
0.00 0.00 -3.62 -17.86 4.80 1.11 -0.84 0.18 8535
-0.00 0.02 -0.53 -4.17 7.77 1.53 -0.86 0.22 8542
-0.00 0.04 -1.32 1.22 10.65 1.79 -1.03 0.09 8549
-0.00 0.04 -3.58 -5.64 36.77 1.05 -1.91 -0.11 8556
-0.00 0.03 1.60 -0.12 5.76 -0.24 0.08 0.10 8563
-0.01 0.08 0.93 -0.86 8.84 -0.23 0.04 -0.04 8570
-0.01 0.08 -0.38 -0.49 11.00 -0.21 0.00 -0.09 8578
-0.01 0.12 0.29 -1.10 9.93 -0.15 0.01 -0.15 8585
-0.01 0.14 0.60 -1.39 9.94 -0.07 0.04 -0.11 8592
0.03 0.17 0.28 -1.42 10.13 -0.08 0.04 -0.08 8599
0.02 0.15 0.20 -1.26 10.16 -0.07 0.02 -0.06 8606
0.01 0.14 0.15 -0.86 9.99 -0.03 0.02 -0.06 8613
0.01 0.17 0.24 -0.84 9.82 -0.01 0.03 -0.07 8621
0.01 0.18 0.36 -0.97 9.77 -0.00 0.04 -0.06 8628
0.02 0.17 0.32 -0.96 9.74 0.01 0.04 -0.05 8635
0.02 0.15 0.24 -0.86 9.71 0.00 0.04 -0.06 8642
0.02 0.15 0.30 -0.87 9.66 0.00 0.03 -0.06 8649
0.02 0.15 0.36 -0.92 9.65 0.00 0.02 -0.06 8656
0.01 0.16 0.36 -0.91 9.77 0.00 0.01 -0.06 8664
0.05 0.16 0.33 -0.92 9.79 -0.00 -0.00 -0.07 8671
0.06 0.15 0.35 -0.94 9.81 -0.01 -0.01 -0.07 8678
0.05 0.16 0.26 -0.97 9.79 -0.02 -0.01 -0.08 8685
0.06 0.16 0.25 -0.95 9.81 -0.02 -0.01 -0.08 8692
0.06 0.15 0.32 -0.95 9.79 -0.03 -0.01 -0.08 8699
0.02 0.16 0.32 -0.94 9.81 -0.04 -0.01 -0.08 8707
0.03 0.18 0.29 -0.94 9.82 -0.03 -0.01 -0.09 8714
0.03 0.18 0.23 -0.96 9.85 -0.03 -0.01 -0.08 8721
0.02 0.18 0.28 -0.94 9.81 -0.03 -0.00 -0.08 8728
0.02 0.16 0.26 -0.91 9.79 -0.03 -0.00 -0.08 8735
0.01 0.17 0.20 -0.94 9.77 -0.03 0.01 -0.08 8742
0.02 0.19 0.28 -0.91 9.80 -0.02 0.01 -0.08 8750
0.02 0.20 0.25 -0.99 9.81 -0.03 0.02 -0.06 8757
0.03 0.21 0.20 -0.97 9.83 -0.02 0.03 -0.07 8764
0.04 0.22 0.24 -0.94 9.79 -0.03 0.04 -0.06 8771
0.05 0.22 0.18 -0.90 9.80 -0.03 0.04 -0.06 8778
0.06 0.22 0.19 -0.93 9.83 -0.03 0.05 -0.06 8785
0.08 0.22 0.25 -0.89 9.75 -0.03 0.05 -0.06 8793
0.09 0.20 0.27 -0.92 9.85 -0.03 0.05 -0.06 8800
0.10 0.22 0.25 -0.90 9.82 -0.03 0.05 -0.06 8807
0.08 0.20 0.25 -0.90 9.20 -0.03 0.06 -0.05 8814
0.08 0.23 0.25 -0.90 9.81 -0.03 0.06 -0.06 8821
0.07 0.22 0.26 -0.95 9.73 -0.03 0.06 -0.06 8828
0.07 0.24 0.27 -0.87 9.81 -0.03 0.06 -0.06 8836
0.08 0.25 0.28 -0.87 9.80 -0.03 0.06 -0.06 8843
0.08 0.28 0.26 -0.88 9.79 -0.03 0.07 -0.06 8850
0.08 0.28 0.27 -0.90 9.82 -0.03 0.07 -0.05 8857
0.08 0.26 0.27 -0.90 9.83 -0.02 0.08 -0.06 8864
0.07 0.26 0.28 -0.89 9.83 -0.02 0.08 -0.06 8871
0.08 0.27 0.30 -0.88 9.80 -0.02 0.08 -0.06 8879
0.09 0.28 0.28 -0.88 9.80 -0.02 0.08 -0.06 8886
0.07 0.29 0.29 -0.90 9.81 -0.02 0.08 -0.06 8893
0.07 0.27 0.32 -0.86 9.81 -0.01 0.07 -0.06 8900
0.07 0.26 0.30 -0.89 9.81 -0.01 0.07 -0.06 8907
0.07 0.29 0.32 -0.89 9.82 -0.00 0.06 -0.06 8914
0.07 0.28 0.32 -0.89 9.85 -0.00 0.06 -0.07 8922
0.09 0.28 0.32 -0.89 9.82 -0.00 0.05 -0.06 8929
0.08 0.27 0.29 -0.89 9.79 -0.00 0.05 -0.07 8936
0.08 0.27 0.30 -0.90 9.81 -0.01 0.04 -0.07 8943
0.08 0.27 0.30 -0.90 9.81 -0.01 0.04 -0.07 8950
0.10 0.28 0.27 -0.86 9.82 -0.01 0.04 -0.07 8957
0.09 0.29 0.27 -0.90 9.82 -0.00 0.04 -0.07 8965
0.09 0.28 0.31 -0.87 9.81 -0.01 0.04 -0.07 8972
0.07 0.28 0.29 -0.88 9.80 -0.00 0.04 -0.07 8979
0.07 0.26 0.30 -0.88 9.82 -0.00 0.04 -0.07 8986
0.06 0.27 0.28 -0.89 9.82 -0.00 0.05 -0.07 8993
0.06 0.27 0.27 -0.86 9.80 -0.00 0.05 -0.07 9000
0.07 0.27 0.29 -0.89 9.83 -0.00 0.05 -0.06 9008
0.07 0.25 0.24 -0.90 9.77 -0.00 0.05 -0.10 9015
0.06 0.24 0.26 -0.90 9.80 -0.00 0.05 -0.07 9022
0.06 0.24 0.27 -0.91 9.79 -0.00 0.05 -0.07 9029
0.05 0.25 0.31 -0.87 9.82 -0.01 0.05 -0.07 9036
0.04 0.25 0.30 -0.89 9.80 -0.01 0.06 -0.07 9043
0.05 0.26 0.32 -0.91 9.80 -0.00 0.06 -0.04 9051
0.05 0.26 0.30 -0.90 9.80 -0.01 0.06 -0.07 9058
0.05 0.25 0.26 -0.92 9.78 -0.00 0.06 -0.07 9065
0.05 0.24 0.29 -0.90 9.80 -0.00 0.06 -0.07 9072
0.05 0.25 0.33 -0.89 9.77 0.00 0.06 -0.07 9079
0.05 0.25 0.31 -0.87 9.84 -0.00 0.06 -0.06 9086
0.06 0.24 0.35 -0.82 9.78 0.00 0.06 -0.07 9094
0.06 0.22 0.33 -0.92 9.81 -0.00 0.06 -0.07 9101
0.05 0.26 0.33 -0.91 9.81 -0.00 0.06 -0.07 9108
0.05 0.24 0.34 -0.89 9.81 0.00 0.06 -0.07 9115
0.05 0.25 0.33 -0.91 9.79 0.00 0.06 -0.07 9122
0.05 0.24 0.32 -0.89 9.80 0.00 0.06 -0.07 9129
0.07 0.24 0.31 -0.93 9.82 -0.00 0.06 -0.07 9137
0.06 0.23 0.33 -0.89 9.81 0.00 0.06 -0.07 9144
0.06 0.23 0.33 -0.90 9.77 -0.00 0.07 -0.07 9151
0.05 0.23 0.30 -0.90 9.81 0.00 0.07 -0.07 9158
0.05 0.23 0.34 -0.92 9.81 0.00 0.07 -0.07 9165
0.06 0.25 0.33 -0.89 9.81 0.00 0.07 -0.07 9172
0.07 0.22 0.33 -0.87 9.80 0.00 0.07 -0.07 9180
0.07 0.21 0.33 -0.87 9.81 0.01 0.07 -0.07 9187
0.06 0.20 0.34 -0.91 9.82 0.01 0.07 -0.07 9194
0.05 0.19 0.31 -0.90 9.80 0.01 0.07 -0.07 9201
0.06 0.19 0.31 -0.91 9.82 0.01 0.07 -0.07 9208
0.07 0.22 0.32 -0.92 9.77 0.01 0.07 -0.07 9216
0.09 0.16 0.31 -0.89 9.84 0.01 0.08 -0.07 9223
0.10 0.17 0.33 -0.89 9.79 0.01 0.08 -0.07 9230
0.11 0.15 0.33 -0.91 9.79 0.01 0.08 -0.07 9237
0.09 0.15 0.33 -0.89 9.78 0.01 0.09 -0.07 9244
0.11 0.14 0.38 -0.92 9.75 0.01 0.09 -0.07 9251
0.13 0.12 0.35 -0.91 9.76 0.01 0.08 -0.07 9259
0.12 0.10 0.39 -0.91 9.82 0.01 0.09 -0.08 9266
0.11 0.11 0.38 -0.94 9.78 0.01 0.09 -0.07 9273
0.11 0.06 0.37 -0.93 9.80 0.01 0.09 -0.07 9280
0.08 0.08 0.39 -0.92 9.80 0.01 0.09 -0.07 9287
0.10 0.10 0.37 -0.94 9.82 0.01 0.09 -0.07 9294
0.11 0.09 0.42 -0.91 9.80 0.01 0.09 -0.07 9302
0.08 0.10 0.42 -0.95 9.77 0.01 0.08 -0.07 9309
0.08 0.09 0.43 -0.96 9.77 0.01 0.09 -0.07 9316
0.09 0.07 0.37 -0.96 9.80 0.00 0.09 -0.07 9323
0.09 0.09 0.42 -0.93 9.80 0.00 0.08 -0.07 9330
0.09 0.11 0.53 -0.97 9.80 0.00 0.08 -0.07 9337
0.08 0.10 0.45 -0.92 9.83 0.00 0.08 -0.07 9345
0.08 0.10 0.43 -0.94 9.77 0.00 0.08 -0.07 9352
0.06 0.09 0.43 -0.94 9.81 0.00 0.08 -0.07 9359
0.07 0.06 0.41 -0.94 9.81 0.00 0.07 -0.07 9366
0.06 0.06 0.37 -0.98 9.82 0.01 0.07 -0.07 9373
0.06 0.07 0.48 -0.92 9.81 0.01 0.08 -0.07 9380
0.07 0.06 0.47 -0.94 9.75 0.00 0.08 -0.07 9388
0.07 0.07 0.43 -0.94 9.79 0.01 0.08 -0.07 9395
0.07 0.08 0.46 -0.94 9.80 0.01 0.08 -0.07 9402
0.05 0.08 0.45 -0.94 9.82 0.01 0.08 -0.07 9409
0.05 0.07 0.44 -0.97 9.81 0.01 0.08 -0.07 9416
0.07 0.07 0.47 -0.96 9.81 0.01 0.08 -0.07 9423
0.09 0.06 0.47 -0.97 9.82 0.01 0.08 -0.07 9431
0.08 0.03 0.44 -0.98 9.80 0.01 0.08 -0.07 9438
0.07 0.01 0.44 -0.93 9.81 0.01 0.08 -0.07 9445
0.05 0.00 0.48 -0.93 9.77 0.01 0.08 -0.07 9452
0.07 -0.01 0.49 -0.97 9.20 0.01 0.08 -0.07 9459
0.09 0.00 0.49 -0.96 9.81 0.01 0.08 -0.07 9466
0.10 -0.00 0.48 -0.93 9.80 0.01 0.08 -0.07 9474
0.09 -0.00 0.48 -0.96 9.81 0.01 0.08 -0.07 9481
0.10 -0.01 0.52 -0.94 9.81 0.02 0.07 -0.07 9488
0.10 -0.01 0.47 -0.96 10.42 0.02 0.07 -0.07 9495
0.10 0.00 0.51 -0.98 9.79 0.02 0.07 -0.07 9502
0.10 -0.00 0.50 -0.99 9.81 0.02 0.07 -0.07 9509
0.08 -0.01 0.48 -0.98 9.81 0.02 0.07 -0.07 9517
0.09 -0.01 0.49 -0.97 9.76 0.02 0.07 -0.06 9524
0.12 -0.01 0.53 -1.00 9.81 0.03 0.07 -0.07 9531
0.12 -0.00 0.48 -0.98 9.82 0.03 0.07 -0.07 9538
0.11 -0.01 0.53 -1.00 9.77 0.03 0.07 -0.07 9545
0.13 -0.01 0.50 -1.00 9.80 0.04 0.07 -0.07 9552
0.14 -0.01 0.52 -1.02 9.81 0.05 0.07 -0.06 9560
0.14 -0.01 0.54 -1.00 9.83 0.05 0.07 -0.03 9567
0.14 -0.01 0.50 -1.02 9.77 0.05 0.07 -0.07 9574
0.15 -0.02 0.53 -1.03 9.82 0.05 0.07 -0.07 9581
0.16 -0.01 0.47 -1.00 9.22 0.06 0.08 -0.07 9588
0.18 -0.02 0.56 -0.98 9.80 0.10 0.08 -0.07 9595
0.19 -0.02 0.49 -0.96 9.81 0.07 0.09 -0.07 9603
0.19 -0.02 0.53 -1.06 9.82 0.09 0.11 -0.07 9610
0.17 -0.01 0.54 -1.02 9.90 0.11 0.13 -0.07 9617
0.16 -0.02 0.54 -1.05 9.84 0.14 0.15 -0.07 9624
0.19 -0.01 0.53 -1.03 9.96 0.17 0.18 -0.08 9631
0.21 -0.02 1.19 -1.07 9.96 0.21 0.20 -0.07 9638
0.19 -0.02 0.55 -1.10 10.06 0.26 0.21 -0.08 9646
0.21 -0.02 0.57 -1.13 10.15 0.34 0.22 -0.08 9653
0.22 -0.02 0.73 -1.14 10.28 0.45 0.24 -0.08 9660
0.22 -0.02 0.72 -1.20 10.38 0.55 0.24 -0.09 9667
0.24 -0.01 0.70 -1.28 10.59 0.67 0.26 -0.10 9675
0.23 -0.02 0.72 -1.25 10.81 0.82 0.27 -0.11 9682
0.21 -0.02 0.73 -1.36 10.27 0.89 0.23 -0.12 9690
0.21 -0.02 0.65 -1.49 10.86 0.94 0.20 -0.12 9696
0.19 -0.02 0.71 -1.59 10.89 0.97 0.16 -0.13 9703
0.17 -0.00 0.73 -1.63 10.57 0.99 0.14 -0.12 9711
0.17 -0.02 0.36 -1.24 9.57 0.99 0.07 -0.12 9717
0.16 -0.02 0.71 -1.79 10.41 0.96 0.07 -0.12 9724
0.15 -0.02 0.56 -1.80 10.22 0.99 0.05 -0.11 9732
0.12 -0.01 0.76 -1.87 10.43 1.02 0.07 -0.11 9739
0.10 -0.01 0.74 -2.05 10.08 1.04 0.08 -0.12 9746
0.13 -0.01 0.81 -2.04 9.96 1.05 0.08 -0.13 9753
0.12 -0.01 0.90 -2.12 9.92 1.07 0.09 -0.14 9760
0.10 -0.01 0.84 -2.35 10.52 1.09 0.09 -0.14 9767
0.11 -0.01 0.93 -2.34 10.10 1.13 0.08 -0.16 9775
0.07 -0.01 1.01 -2.41 10.11 1.15 0.06 -0.18 9782
0.03 -0.00 0.97 -2.51 10.15 1.20 0.05 -0.19 9789
0.05 -0.01 1.00 -2.65 10.06 1.24 0.05 -0.21 9796
0.04 -0.00 0.99 -2.73 9.98 1.30 0.05 -0.23 9803
0.06 -0.01 0.98 -2.90 10.36 1.35 0.02 -0.24 9810
0.04 -0.00 1.01 -3.05 10.63 1.42 0.02 -0.25 9818
0.03 -0.00 0.97 -3.19 10.66 1.49 0.03 -0.26 9825
0.04 -0.00 0.75 -3.28 10.63 1.58 0.02 -0.26 9832
0.05 -0.00 0.94 -3.35 10.72 1.64 0.01 -0.26 9839
0.07 -0.01 0.93 -3.47 10.84 1.72 0.03 -0.26 9846
0.07 -0.01 1.01 -3.74 11.05 1.79 0.05 -0.26 9853
0.08 -0.01 1.03 -4.01 11.20 1.88 0.06 -0.27 9861
0.07 -0.01 1.33 -4.28 11.58 1.96 0.10 -0.27 9868
0.07 -0.01 1.32 -4.46 11.89 2.03 0.14 -0.29 9875
0.09 -0.01 1.62 -4.72 12.35 2.10 0.21 -0.30 9882
0.09 -0.01 2.11 -5.04 12.66 2.18 0.32 -0.32 9889
0.07 -0.01 2.28 -5.16 12.74 2.22 0.45 -0.36 9896
0.06 -0.01 2.39 -5.29 12.43 2.25 0.58 -0.40 9904
0.04 -0.00 2.12 -5.19 12.00 2.26 0.66 -0.45 9911
0.02 -0.00 1.77 -5.12 11.65 2.27 0.68 -0.49 9918
0.04 -0.00 1.55 -4.98 11.51 2.27 0.65 -0.52 9925
0.02 -0.00 1.45 -5.07 11.28 2.25 0.63 -0.55 9932
0.01 -0.00 1.43 -5.15 11.08 2.22 0.59 -0.58 9939
0.00 0.00 1.17 -5.30 11.71 2.22 0.58 -0.62 9947
0.01 -0.00 1.09 -4.92 11.44 2.23 0.53 -0.64 9954
0.00 -0.00 0.85 -5.42 11.03 2.22 0.45 -0.66 9961
0.00 0.00 0.67 -5.30 10.16 2.19 0.37 -0.68 9968
0.00 0.00 0.58 -5.14 9.73 2.17 0.38 -0.67 9975
0.00 0.00 0.55 -4.81 9.12 2.15 0.34 -0.67 9982
0.00 0.00 0.43 -4.64 9.00 2.12 0.31 -0.66 9990
0.00 0.00 0.27 -4.21 7.79 2.07 0.27 -0.65 9997
-0.00 0.00 0.26 -3.57 6.97 2.01 0.19 -0.64 10004
0.00 -0.00 0.30 -3.11 5.60 1.92 0.09 -0.63 10011
0.00 0.00 0.24 -3.02 5.45 1.78 -0.03 -0.63 10018
0.00 0.00 0.12 -2.31 5.39 1.68 -0.14 -0.63 10025
0.00 0.00 0.30 -2.66 5.17 1.53 -0.26 -0.62 10033
0.00 0.00 0.05 -1.94 5.90 1.43 -0.34 -0.62 10040
0.00 0.00 0.05 0.91 6.18 1.28 -0.39 -0.63 10047
0.00 0.00 -0.02 2.83 6.58 0.99 -0.43 -0.69 10054
0.00 0.00 -0.40 3.02 7.98 0.59 -0.47 -0.80 10061
0.00 0.00 0.04 1.21 9.02 0.11 -0.46 -0.90 10068
0.00 0.00 0.14 0.17 9.54 -0.27 -0.38 -0.97 10076
0.00 0.00 0.17 0.09 8.85 -0.63 -0.24 -1.01 10083
0.00 0.00 0.23 0.42 7.90 -0.89 -0.08 -1.06 10090
0.00 0.00 0.25 0.47 6.84 -1.05 0.00 -1.10 10097
0.00 0.00 0.13 0.25 6.11 -1.17 0.03 -1.12 10104
0.00 0.00 0.07 -0.24 6.04 -1.27 0.01 -1.11 10112
0.00 0.00 0.03 -0.76 6.16 -1.26 -0.02 -1.08 10119
0.00 0.00 0.06 -1.14 6.28 -1.26 -0.06 -1.02 10126
0.00 0.00 0.04 -1.31 6.56 -1.24 -0.11 -0.93 10133
0.00 0.00 0.16 -1.32 6.58 -1.23 -0.19 -0.85 10140
0.00 0.00 0.21 -1.38 6.69 -1.24 -0.29 -0.74 10147
0.00 0.00 0.21 -1.47 7.14 -1.28 -0.38 -0.63 10155
0.00 0.00 0.29 -1.64 7.42 -1.35 -0.47 -0.54 10162
0.00 -0.00 0.55 -1.79 7.78 -1.43 -0.51 -0.44 10169
0.01 -0.00 0.78 -1.94 8.09 -1.53 -0.53 -0.36 10176
0.00 0.00 1.01 -2.21 8.38 -1.62 -0.49 -0.28 10183
0.00 0.00 1.33 -2.53 8.80 -1.69 -0.40 -0.22 10190
0.00 0.00 1.69 -2.86 9.13 -1.78 -0.21 -0.18 10198
0.00 0.00 1.97 -3.19 9.36 -1.86 0.05 -0.14 10205
0.00 0.00 1.95 -3.35 9.37 -1.97 0.30 -0.12 10212
0.01 -0.00 1.63 -3.61 9.32 -2.06 0.57 -0.11 10219
0.00 -0.00 1.15 -3.93 9.23 -2.13 0.76 -0.10 10226
0.00 0.00 0.80 -4.32 9.32 -2.18 0.82 -0.09 10233
0.00 0.00 0.32 -4.91 9.64 -2.14 0.84 -0.07 10241
0.00 0.00 0.03 -5.33 9.89 -2.14 0.82 -0.03 10248
0.00 0.00 -0.11 -5.64 10.12 -2.07 0.76 -0.00 10255
0.01 -0.00 -0.13 -5.73 10.16 -2.00 0.67 0.03 10262
0.00 0.00 -0.04 -5.82 9.99 -1.91 0.57 0.04 10269
0.00 0.00 0.03 -5.74 9.85 -1.82 0.48 0.05 10276
0.00 0.00 0.21 -5.70 9.78 -1.74 0.42 0.07 10284
0.00 0.00 0.38 -5.63 9.57 -1.64 0.37 0.08 10291
0.00 -0.00 0.58 -5.61 9.49 -1.55 0.36 0.11 10298
0.00 0.00 0.34 -6.36 8.77 -1.43 0.36 0.14 10305
0.00 0.00 0.63 -6.34 9.73 -1.34 0.39 0.16 10312
0.00 0.00 -1.09 -6.24 12.79 -1.23 0.42 0.17 10319
0.00 0.00 -0.72 -5.08 11.17 -1.24 0.45 0.17 10327
0.00 0.00 1.44 -6.26 8.34 -1.18 0.49 0.18 10334
0.01 -0.00 1.42 -5.74 8.49 -1.22 0.51 0.18 10341
0.00 0.00 1.18 -3.62 7.47 -1.23 0.50 0.17 10348
0.00 0.00 1.49 -3.26 8.71 -1.43 0.51 0.22 10355
0.00 0.00 -0.42 -4.37 9.34 -1.33 0.49 0.25 10362
0.00 0.00 0.36 -4.69 9.69 -1.43 0.48 0.31 10370
0.00 0.00 0.21 -4.46 10.03 -1.45 0.45 0.36 10377
0.01 -0.00 0.22 -3.97 9.98 -1.46 0.46 0.39 10384
0.00 0.00 0.26 -3.99 9.76 -1.44 0.43 0.43 10391
0.00 0.00 0.24 -3.94 9.59 -1.39 0.39 0.46 10398
0.00 0.00 0.43 -3.70 9.49 -1.33 0.36 0.49 10405
0.00 0.00 0.52 -3.57 9.41 -1.27 0.33 0.51 10413
0.00 0.00 0.62 -3.40 9.65 -1.21 0.31 0.53 10420
0.00 -0.00 0.50 -3.23 9.86 -1.16 0.28 0.55 10427
0.00 0.00 0.36 -3.06 9.82 -1.11 0.26 0.58 10434
0.00 0.00 0.12 -2.94 9.87 -1.07 0.20 0.63 10441
0.00 0.00 -0.12 -2.97 9.98 -1.02 0.10 0.68 10448
0.00 0.00 -0.19 -2.98 10.18 -0.96 -0.03 0.73 10456
0.00 0.00 -0.13 -2.95 10.34 -0.91 -0.15 0.77 10463
0.00 0.00 0.06 -2.96 10.49 -0.87 -0.24 0.81 10470
0.00 0.00 0.18 -2.99 10.60 -0.84 -0.30 0.83 10477
0.00 0.00 0.34 -2.94 10.77 -0.82 -0.32 0.84 10484
0.00 0.00 0.56 -2.93 10.84 -0.82 -0.32 0.83 10491
0.00 0.00 0.76 -2.91 10.75 -0.84 -0.29 0.80 10499
0.00 0.00 0.89 -2.91 10.54 -0.88 -0.22 0.77 10506
0.00 0.00 1.03 -2.98 10.43 -0.91 -0.12 0.72 10513
0.00 0.00 1.21 -3.14 10.17 -0.93 -0.02 0.67 10520
0.00 0.00 1.30 -3.37 9.95 -0.92 0.10 0.62 10527
0.00 0.00 1.35 -3.68 9.80 -0.87 0.21 0.56 10534
0.00 0.00 1.47 -3.97 9.61 -0.81 0.30 0.49 10542
0.00 0.00 1.48 -4.27 9.51 -0.71 0.38 0.44 10549
0.00 0.00 1.46 -4.50 9.59 -0.62 0.43 0.37 10556
0.00 0.00 1.19 -4.62 9.98 -0.53 0.44 0.32 10563
0.00 0.00 0.72 -4.56 10.09 -0.48 0.42 0.28 10570
0.00 0.00 0.31 -4.60 10.15 -0.47 0.35 0.26 10577
0.00 0.00 -0.00 -4.67 10.05 -0.48 0.23 0.26 10585
0.00 0.00 -0.25 -4.77 9.72 -0.51 0.11 0.29 10592
0.00 0.00 -0.35 -5.00 9.34 -0.55 0.02 0.35 10599
0.00 0.00 -0.41 -5.39 8.94 -0.59 -0.04 0.42 10606
0.00 0.00 -0.48 -5.80 8.58 -0.61 -0.05 0.50 10613
0.00 0.00 -0.44 -6.39 8.81 -0.62 -0.04 0.55 10620
0.00 0.00 -0.25 -20.33 16.14 -0.22 -0.08 0.58 10628
0.00 0.00 0.20 -4.50 0.83 0.26 0.03 0.59 10635
0.00 0.00 -0.59 -9.26 2.05 -0.09 -0.14 0.55 10642
0.00 0.00 -1.71 -15.59 13.63 0.31 -0.10 0.52 10649
0.00 0.00 -0.61 -15.75 5.21 0.30 -0.23 0.44 10656
0.00 0.00 -1.95 -18.37 2.91 0.71 -0.25 0.28 10663
-0.00 0.02 -3.14 -23.23 4.86 0.95 -0.62 0.08 10671
-0.00 0.01 -4.70 -19.27 22.70 0.96 -1.56 -0.15 10679
-0.00 0.01 -1.96 -2.73 11.24 -0.09 -0.09 -0.02 10685
-0.01 0.07 0.42 -1.40 8.96 -0.41 0.11 0.01 10692
0.01 0.10 1.25 0.33 9.73 -0.40 0.09 -0.00 10699
0.01 0.15 0.55 -0.47 11.24 -0.30 -0.03 -0.10 10706
-0.01 0.19 0.55 -0.41 10.29 -0.16 -0.01 -0.12 10715
0.03 0.20 0.17 -1.11 10.39 -0.10 0.00 -0.10 10721
0.02 0.19 0.17 -1.26 10.01 -0.07 0.03 -0.07 10728
0.04 0.24 0.02 -1.04 10.05 -0.03 0.05 -0.06 10735
0.02 0.23 0.17 -0.84 9.84 -0.02 0.07 -0.05 10742
0.04 0.26 0.31 -0.78 9.77 -0.01 0.09 -0.05 10749
0.05 0.24 0.37 -0.86 9.81 -0.01 0.10 -0.05 10757
0.05 0.25 0.36 -0.84 9.78 -0.01 0.10 -0.04 10764
0.04 0.28 0.41 -0.88 9.77 -0.01 0.10 -0.05 10771
0.03 0.27 0.37 -0.88 9.77 -0.01 0.09 -0.05 10778
0.04 0.26 0.41 -0.86 9.79 -0.02 0.08 -0.04 10785
0.05 0.28 0.37 -0.78 9.60 -0.03 0.08 -0.04 10792
0.03 0.29 0.42 -0.91 9.78 -0.04 0.08 -0.05 10800
0.01 0.26 0.39 -0.90 9.77 -0.04 0.08 -0.05 10807
-0.00 0.26 0.23 -0.85 9.78 -0.05 0.09 -0.04 10814
-0.00 0.28 0.36 -0.89 9.77 -0.05 0.09 -0.04 10821
-0.00 0.32 0.25 -0.87 9.87 -0.05 0.09 -0.05 10828
-0.00 0.33 0.46 -0.86 9.82 -0.05 0.08 -0.04 10835
-0.00 0.34 0.44 -0.84 9.79 -0.05 0.08 -0.05 10843
0.00 0.34 0.18 -0.76 9.82 -0.05 0.07 -0.05 10850
-0.00 0.36 0.45 -0.82 9.82 -0.05 0.08 -0.05 10857
-0.01 0.40 0.45 -0.84 9.86 -0.04 0.07 -0.05 10864
0.01 0.36 0.47 -0.77 9.82 -0.05 0.07 -0.04 10871
-0.00 0.41 0.43 -0.80 9.83 -0.04 0.07 -0.04 10878
0.00 0.43 0.30 -0.78 9.83 -0.04 0.07 -0.04 10886
-0.00 0.45 0.39 -0.90 9.73 -0.04 0.08 -0.04 10893
-0.00 0.48 0.46 -0.81 9.81 -0.04 0.08 -0.04 10900
-0.01 0.47 0.40 -0.63 9.64 -0.00 0.08 -0.04 10907
-0.00 0.49 0.39 -0.76 9.84 -0.03 0.08 -0.04 10914
0.00 0.52 0.43 -0.73 9.89 -0.03 0.08 -0.04 10921
-0.00 0.49 0.48 -0.80 9.81 -0.03 0.07 -0.04 10929
-0.01 0.47 0.46 -0.73 9.74 -0.02 0.07 -0.04 10936
-0.00 0.51 0.47 -0.77 9.78 -0.03 0.06 -0.04 10943
-0.01 0.49 0.43 -0.80 9.80 -0.03 0.05 -0.05 10950
-0.00 0.53 0.46 -0.78 9.83 -0.02 0.05 -0.05 10957
-0.00 0.59 0.46 -0.78 9.81 -0.02 0.05 -0.05 10964
-0.01 0.57 0.47 -0.78 9.24 -0.02 0.04 -0.05 10972
-0.01 0.58 0.48 -0.74 9.80 -0.02 0.03 -0.05 10979
0.00 0.58 0.46 -0.78 9.79 -0.02 0.03 -0.05 10986
-0.01 0.59 0.48 -0.79 9.79 -0.02 0.02 -0.05 10993
-0.01 0.61 0.48 -0.75 9.78 -0.01 0.01 -0.06 11000
0.01 0.61 0.50 -0.75 9.69 -0.01 0.01 -0.05 11008
0.00 0.61 0.46 -0.75 9.80 -0.01 -0.00 -0.06 11015
-0.01 0.59 0.47 -0.77 9.77 -0.01 -0.02 -0.06 11022
-0.01 0.58 0.45 -0.78 9.74 -0.01 -0.03 -0.06 11029
-0.01 0.57 0.40 -0.78 9.79 -0.01 -0.03 -0.07 11036
-0.01 0.57 0.43 -0.77 9.82 -0.01 -0.03 -0.07 11043
-0.00 0.57 0.43 -0.78 9.81 -0.01 -0.03 -0.07 11051
-0.00 0.58 0.38 -0.76 9.81 -0.01 -0.02 -0.07 11058
-0.02 0.57 0.34 -0.81 9.82 -0.01 -0.00 -0.07 11065
-0.03 0.57 0.34 -0.77 9.84 -0.00 0.02 -0.06 11072
-0.01 0.58 0.34 -0.78 9.82 -0.00 0.03 -0.06 11079
-0.00 0.59 0.35 -0.82 9.82 -0.01 0.04 -0.06 11086
0.02 0.57 0.36 -0.77 9.81 -0.00 0.04 -0.06 11094
-0.00 0.57 0.40 -0.82 9.79 -0.00 0.04 -0.06 11101
-0.01 0.56 0.41 -0.80 9.83 -0.01 0.05 -0.06 11108
-0.02 0.56 0.39 -0.81 9.82 -0.01 0.05 -0.06 11115
-0.00 0.56 0.40 -0.79 9.80 0.00 0.05 -0.06 11122
-0.01 0.56 0.40 -0.77 9.79 -0.00 0.05 -0.06 11129
-0.01 0.55 0.36 -0.79 9.80 -0.01 0.05 -0.06 11137
-0.01 0.56 0.37 -0.76 9.81 -0.01 0.05 -0.06 11144
-0.02 0.54 0.42 -0.77 9.78 -0.01 0.06 -0.06 11151
-0.02 0.54 0.42 -0.79 9.80 -0.00 0.06 -0.05 11158
-0.01 0.54 0.43 -0.77 9.78 -0.00 0.05 -0.06 11165
-0.00 0.54 0.44 -0.81 9.77 -0.01 0.05 -0.06 11172
-0.00 0.53 0.43 -0.76 9.80 -0.00 0.05 -0.06 11180
-0.01 0.53 0.45 -0.80 9.81 -0.01 0.05 -0.06 11187
-0.01 0.53 0.42 -0.78 9.78 -0.01 0.05 -0.06 11194
-0.02 0.53 0.41 -0.77 9.79 -0.01 0.05 -0.06 11201
-0.01 0.53 0.39 -0.76 9.80 -0.01 0.06 -0.06 11208
0.01 0.54 0.41 -0.79 9.80 -0.00 0.05 -0.06 11215
-0.00 0.53 0.41 -0.77 9.81 -0.01 0.05 -0.06 11223
-0.01 0.52 0.39 -0.76 10.39 -0.00 0.05 -0.06 11230
-0.02 0.52 0.40 -0.79 9.81 -0.00 0.06 -0.06 11237
-0.02 0.52 0.41 -0.79 9.81 -0.00 0.06 -0.06 11244
-0.01 0.53 0.41 -0.77 9.82 -0.00 0.05 -0.06 11251
0.00 0.51 0.40 -0.77 9.80 -0.00 0.06 -0.06 11258
-0.01 0.49 0.38 -0.78 9.79 0.00 0.05 -0.06 11266
-0.00 0.47 0.43 -0.79 9.81 -0.00 0.05 -0.06 11273
-0.02 0.47 0.47 -0.76 9.79 -0.00 0.05 -0.06 11280
-0.01 0.47 0.42 -0.78 9.82 -0.00 0.05 -0.06 11287
-0.01 0.47 0.44 -0.79 9.80 -0.00 0.05 -0.06 11294
-0.00 0.45 0.42 -0.80 9.81 -0.01 0.05 -0.06 11301
-0.00 0.45 0.41 -0.76 9.80 -0.00 0.04 -0.06 11309
-0.01 0.45 0.45 -0.80 9.78 -0.00 0.04 -0.06 11316
-0.01 0.46 0.41 -0.79 10.41 -0.00 0.05 -0.06 11323
-0.02 0.46 0.43 -0.77 9.79 -0.00 0.05 -0.06 11330
-0.01 0.47 0.39 -0.80 9.81 -0.00 0.05 -0.06 11337
-0.00 0.45 0.40 -0.80 9.81 -0.00 0.05 -0.06 11344
-0.01 0.45 0.42 -0.81 9.77 -0.00 0.05 -0.06 11352
-0.01 0.45 0.41 -0.76 9.80 -0.00 0.06 -0.06 11359
-0.01 0.46 0.44 -0.81 9.81 -0.00 0.06 -0.06 11366
-0.01 0.45 0.43 -0.79 9.77 -0.00 0.06 -0.06 11373
0.01 0.44 0.44 -0.79 9.81 -0.00 0.07 -0.06 11380
0.00 0.45 0.45 -0.78 9.81 -0.00 0.07 -0.06 11387
-0.01 0.45 0.45 -0.80 9.82 -0.00 0.07 -0.06 11395
-0.01 0.42 0.46 -0.82 9.79 0.00 0.07 -0.06 11402
-0.01 0.41 0.44 -0.81 9.81 0.00 0.08 -0.06 11409
0.00 0.41 0.44 -0.80 9.80 -0.00 0.08 -0.06 11416
0.01 0.39 0.46 -0.83 9.82 0.00 0.08 -0.06 11423
-0.00 0.39 0.44 -0.80 9.76 -0.00 0.08 -0.06 11430
-0.00 0.39 0.45 -0.78 9.80 0.00 0.08 -0.06 11438
-0.01 0.34 0.49 -0.81 9.78 0.00 0.08 -0.06 11445
-0.01 0.35 0.48 -0.80 9.81 0.00 0.08 -0.06 11452
-0.00 0.35 0.48 -0.78 9.82 0.00 0.08 -0.06 11459
0.01 0.34 0.44 -0.80 9.76 0.00 0.08 -0.06 11466
0.00 0.32 0.46 -0.81 9.78 0.00 0.09 -0.06 11473
0.01 0.33 0.49 -0.80 9.72 0.01 0.08 -0.06 11481
0.01 0.32 0.52 -0.76 9.72 0.01 0.08 -0.06 11488
0.02 0.29 0.50 -0.78 9.82 0.01 0.08 -0.07 11495
0.03 0.30 0.48 -0.80 9.79 0.01 0.08 -0.06 11502
0.04 0.27 0.49 -0.83 9.80 0.02 0.08 -0.07 11509
0.03 0.26 0.42 -0.85 9.81 0.01 0.08 -0.07 11516
0.03 0.25 0.53 -0.83 9.81 0.01 0.08 -0.06 11524
0.04 0.22 0.50 -0.82 9.79 0.02 0.08 -0.07 11531
0.06 0.22 0.47 -0.80 9.85 0.02 0.08 -0.06 11538
0.06 0.21 0.54 -0.81 9.81 0.02 0.08 -0.06 11545
0.08 0.19 0.56 -0.82 9.79 0.02 0.08 -0.07 11552
0.07 0.18 0.55 -0.86 9.72 0.02 0.08 -0.07 11559
0.06 0.14 0.53 -0.84 9.78 0.02 0.07 -0.07 11567
0.04 0.14 0.52 -0.81 9.82 0.02 0.07 -0.07 11574
0.06 0.12 0.52 -0.81 9.80 0.02 0.07 -0.07 11581
0.08 0.11 0.54 -0.82 9.80 0.03 0.07 -0.07 11588
0.07 0.06 0.54 -0.84 9.78 0.03 0.07 -0.07 11595
0.07 0.03 0.52 -0.87 9.79 0.03 0.06 -0.07 11602
0.07 0.01 0.56 -0.89 9.82 0.02 0.06 -0.07 11610
0.08 0.04 0.51 -0.88 9.81 0.03 0.06 -0.07 11617
0.09 0.08 0.56 -0.88 9.79 0.03 0.06 -0.07 11624
0.12 0.08 0.52 -0.87 9.82 0.03 0.06 -0.07 11631
0.11 0.05 0.58 -0.86 9.81 0.03 0.07 -0.07 11638
0.12 0.04 0.56 -0.87 9.82 0.03 0.07 -0.07 11645
0.13 -0.00 0.55 -0.92 9.83 0.04 0.07 -0.07 11653
0.13 0.00 0.56 -0.87 9.82 0.04 0.07 -0.07 11660
0.13 -0.00 0.54 -0.85 9.81 0.05 0.08 -0.07 11667
0.14 -0.01 0.59 -0.87 9.80 0.06 0.09 -0.07 11674
0.14 -0.01 0.58 -0.93 9.82 0.06 0.10 -0.07 11681
0.15 -0.02 0.58 -0.86 9.83 0.07 0.11 -0.07 11688
0.13 -0.01 0.56 -0.93 9.82 0.09 0.13 -0.07 11696
0.14 -0.01 0.59 -0.87 9.85 0.11 0.14 -0.07 11703
0.15 -0.01 0.58 -0.86 9.91 0.13 0.17 -0.08 11710
0.17 -0.02 0.65 -0.91 9.94 0.17 0.20 -0.07 11717
0.16 -0.01 0.63 -1.03 9.93 0.20 0.22 -0.07 11724
0.18 -0.01 0.63 -0.96 9.99 0.26 0.25 -0.07 11731
0.18 -0.02 0.67 -0.99 10.00 0.32 0.26 -0.07 11739
0.15 -0.00 0.76 -0.95 9.99 0.42 0.26 -0.07 11746
0.17 -0.00 0.76 -1.04 10.20 0.53 0.27 -0.08 11753
0.19 -0.02 0.83 -1.13 10.54 0.65 0.29 -0.10 11760
0.19 -0.02 0.84 -1.21 10.44 0.79 0.29 -0.10 11767
0.18 -0.02 0.83 -1.34 10.62 0.90 0.26 -0.11 11774
0.17 -0.02 0.86 -1.42 11.00 1.04 0.25 -0.13 11782
0.18 -0.01 0.93 -1.71 11.29 1.12 0.19 -0.14 11790
0.19 -0.01 0.79 -1.49 10.82 1.18 0.20 -0.15 11797
0.16 -0.02 0.85 -1.61 11.05 1.24 0.14 -0.15 11803
0.16 -0.02 0.81 -1.72 11.01 1.28 0.13 -0.16 11810
0.16 -0.02 0.76 -1.77 10.77 1.33 0.11 -0.15 11817
0.13 -0.01 0.78 -1.86 10.75 1.38 0.10 -0.14 11825
0.13 -0.00 0.86 -2.05 10.55 1.42 0.08 -0.14 11833
0.14 -0.01 0.85 -2.11 10.49 1.47 0.07 -0.14 11839
0.12 -0.01 0.87 -2.28 10.55 1.51 0.06 -0.14 11846
0.11 -0.01 0.94 -2.26 10.55 1.58 0.08 -0.14 11853
0.10 -0.01 0.84 -2.50 10.48 1.64 0.07 -0.15 11860
0.09 -0.01 0.87 -2.48 10.72 1.70 0.09 -0.16 11868
0.08 -0.00 0.83 -2.69 10.84 1.76 0.08 -0.17 11875
0.08 -0.01 0.91 -2.78 10.77 1.83 0.10 -0.17 11882
0.09 -0.01 0.96 -2.99 10.81 1.90 0.10 -0.18 11889
0.06 -0.01 1.11 -3.14 10.85 1.98 0.11 -0.19 11896
0.03 -0.00 1.18 -3.45 11.08 2.05 0.11 -0.20 11904
0.07 -0.01 1.15 -3.50 11.00 2.14 0.10 -0.21 11911
0.08 -0.00 1.08 -3.68 11.54 2.22 0.09 -0.22 11918
0.08 -0.01 1.22 -4.09 11.50 2.29 0.09 -0.23 11925
0.08 -0.01 1.51 -4.43 11.64 2.37 0.09 -0.23 11932
0.08 -0.01 1.61 -4.79 11.88 2.42 0.11 -0.26 11939
0.06 -0.01 1.86 -5.14 12.25 2.48 0.15 -0.27 11947
0.06 -0.01 2.14 -5.33 12.57 2.53 0.20 -0.30 11954
0.06 -0.01 2.50 -5.53 12.51 2.58 0.32 -0.34 11961
0.07 -0.01 2.63 -5.65 12.85 2.61 0.37 -0.39 11968
0.07 -0.01 2.91 -5.80 12.71 2.62 0.48 -0.45 11975
0.07 -0.01 2.82 -5.87 12.42 2.65 0.53 -0.51 11982
0.05 -0.00 2.80 -5.73 12.32 2.66 0.57 -0.57 11990
0.04 -0.00 2.68 -5.71 12.35 2.65 0.59 -0.63 11997
0.01 -0.00 2.58 -5.88 12.56 2.62 0.62 -0.69 12004
0.02 -0.00 2.19 -5.87 13.27 2.61 0.64 -0.76 12011
0.01 -0.00 1.92 -6.05 12.74 2.62 0.57 -0.84 12018
0.01 -0.00 1.61 -5.64 12.03 2.63 0.47 -0.89 12025
0.00 0.00 1.62 -5.09 11.49 2.62 0.39 -0.93 12033
0.00 0.00 1.56 -4.71 11.19 2.59 0.34 -0.96 12040
0.00 0.00 1.47 -4.45 10.51 2.55 0.35 -0.98 12047
0.00 0.00 1.51 -4.09 9.88 2.53 0.40 -1.00 12054
0.00 0.00 1.58 -3.20 8.61 2.46 0.43 -1.01 12061
0.00 0.00 1.54 -2.76 6.98 2.39 0.40 -1.05 12068
0.00 0.00 1.58 -2.67 5.09 2.26 0.32 -1.10 12076
0.00 0.00 1.27 -1.09 4.48 2.09 0.19 -1.16 12083
0.00 -0.00 0.63 1.21 4.18 1.91 0.04 -1.25 12090
0.00 0.00 0.79 2.15 4.85 1.66 -0.05 -1.33 12097
0.00 0.00 -0.02 6.52 6.47 1.40 -0.07 -1.47 12104
0.00 0.00 0.49 1.36 9.50 0.90 -0.03 -1.60 12111
0.00 0.00 0.15 0.53 11.25 0.27 0.01 -1.56 12119
-0.00 0.00 0.02 1.01 11.25 -0.12 0.16 -1.52 12126
0.00 0.00 0.12 1.92 9.75 -0.51 0.27 -1.51 12133
0.00 0.00 0.02 2.97 7.87 -0.90 0.29 -1.51 12140
0.00 0.00 -0.01 2.94 6.63 -1.17 0.25 -1.50 12147
0.00 0.00 -0.07 2.17 6.30 -1.45 0.20 -1.47 12154
0.00 0.00 -0.34 1.42 6.37 -1.62 0.12 -1.41 12162
0.00 0.00 -0.61 1.08 6.47 -1.74 0.05 -1.34 12169
0.00 0.00 -0.73 0.93 6.40 -1.81 -0.03 -1.23 12176
0.00 0.00 -0.70 0.78 6.12 -1.83 -0.12 -1.12 12183
0.00 0.00 -0.63 0.50 5.93 -1.84 -0.23 -1.02 12190
0.00 0.00 -0.34 0.25 6.05 -1.85 -0.32 -0.90 12197
0.00 0.00 0.04 0.04 6.28 -1.87 -0.38 -0.80 12205
0.00 -0.00 0.60 -0.12 6.80 -1.92 -0.37 -0.70 12212
0.00 0.00 0.92 -0.27 7.33 -1.99 -0.33 -0.60 12219
0.00 0.00 1.35 -0.26 7.61 -2.12 -0.25 -0.52 12226
0.00 0.00 1.53 -0.24 7.95 -2.25 -0.16 -0.41 12233
0.00 0.00 1.61 -0.33 8.29 -2.40 -0.08 -0.32 12240
0.00 0.00 1.71 -0.59 8.48 -2.54 0.01 -0.21 12248
0.00 0.00 1.74 -1.10 8.89 -2.64 0.08 -0.10 12255
0.00 0.00 1.74 -1.56 9.05 -2.71 0.17 -0.01 12262
0.00 0.00 1.58 -2.23 9.19 -2.76 0.29 0.07 12269
0.00 0.00 1.63 -2.82 9.36 -2.78 0.39 0.14 12276
0.00 0.00 1.60 -3.54 9.66 -2.78 0.48 0.19 12283
0.00 0.00 1.46 -4.15 10.02 -2.77 0.57 0.25 12291
0.00 0.00 1.36 -4.77 11.01 -2.73 0.65 0.30 12298
0.00 0.00 1.26 -5.30 10.79 -2.69 0.74 0.36 12305
0.00 0.00 0.95 -7.33 11.12 -2.66 0.80 0.44 12312
0.00 0.00 0.72 -7.71 11.46 -2.62 0.87 0.48 12319
0.00 0.00 -0.86 -6.80 16.13 -2.64 0.95 0.51 12326
0.00 0.00 -1.64 -5.98 13.17 -2.57 0.85 0.53 12334
0.00 0.00 0.10 -5.19 11.41 -2.54 0.77 0.58 12341
0.00 0.00 -0.91 -5.10 15.09 -2.40 0.71 0.63 12348
0.00 0.00 -0.51 -6.05 8.95 -2.29 0.56 0.70 12355
0.00 0.00 0.05 -7.26 10.93 -2.12 0.59 0.76 12362
0.00 0.00 1.62 -5.90 10.63 -2.08 0.64 0.77 12369
0.00 0.00 0.90 -5.87 11.19 -1.92 0.69 0.78 12377
0.00 0.00 0.74 -5.88 11.03 -1.91 0.71 0.77 12384
0.00 0.00 0.61 -6.03 12.25 -1.83 0.76 0.75 12391
0.00 0.00 0.33 -6.21 12.01 -1.80 0.79 0.73 12398
0.00 0.00 0.23 -6.35 12.26 -1.76 0.81 0.71 12405
0.00 0.00 0.11 -6.27 12.51 -1.73 0.79 0.69 12412
0.00 0.00 0.15 -6.20 12.71 -1.71 0.78 0.68 12420
0.00 0.00 0.23 -6.06 12.73 -1.72 0.78 0.68 12427
0.00 0.00 0.19 -5.92 12.48 -1.74 0.79 0.70 12434
0.00 0.00 0.14 -5.91 12.14 -1.76 0.79 0.72 12441
0.00 0.00 0.08 -5.92 11.79 -1.76 0.78 0.73 12448
0.00 0.00 0.09 -5.94 11.25 -1.73 0.73 0.76 12455
0.00 -0.00 0.09 -5.87 10.87 -1.66 0.67 0.79 12463
0.00 0.00 0.15 -5.73 10.62 -1.57 0.60 0.81 12470
0.00 0.00 0.26 -5.48 10.49 -1.48 0.53 0.83 12477
0.00 0.00 0.46 -5.30 10.55 -1.38 0.47 0.83 12484
0.00 0.00 0.63 -5.07 10.50 -1.30 0.43 0.82 12491
0.00 0.00 0.64 -4.95 10.38 -1.22 0.42 0.81 12498
0.01 -0.00 0.52 -4.93 10.18 -1.13 0.40 0.79 12506
0.00 0.00 0.33 -4.97 9.90 -1.05 0.36 0.76 12513
0.00 0.00 0.17 -5.07 9.71 -0.93 0.31 0.72 12520
0.00 0.00 -1.65 -8.70 10.92 -0.71 0.11 0.69 12527
0.00 0.00 -2.82 -5.24 9.38 -0.25 -0.39 0.63 12534
0.00 0.00 -0.78 -4.32 6.51 -0.22 -0.30 0.64 12541
0.00 0.00 -0.34 -6.78 5.93 -0.12 -0.29 0.65 12549
0.00 0.00 -1.10 -7.70 8.23 -0.16 -0.33 0.63 12556
0.00 0.00 0.24 -8.90 10.55 -0.02 -0.15 0.60 12563
0.00 0.00 -0.02 -6.66 9.76 -0.07 0.02 0.58 12570
0.00 0.00 -0.40 -8.73 9.81 -0.13 0.13 0.55 12577
0.00 0.00 -1.26 -9.54 9.09 -0.12 0.16 0.51 12584
0.00 0.00 -1.29 -9.68 6.20 -0.04 0.12 0.48 12592
0.00 0.00 -1.69 -10.07 5.79 0.05 0.05 0.48 12599
0.00 0.00 -1.98 -9.00 7.51 0.30 -0.08 0.48 12606
0.00 0.00 -2.33 -14.15 8.61 0.34 -0.18 0.44 12613
0.00 0.00 -3.61 -13.66 4.55 0.54 -0.32 0.35 12620
0.00 0.00 -2.92 -17.53 5.62 0.80 -0.40 0.22 12627
-0.00 0.01 -3.08 -19.09 5.32 1.04 -0.52 0.06 12635
-0.00 0.01 -1.84 -3.59 8.10 1.37 -0.65 -0.15 12642
-0.00 0.01 -0.87 -1.06 9.57 1.57 -0.77 -0.33 12649
-0.00 0.03 1.09 -1.48 22.28 1.56 -1.37 -0.50 12656
-0.01 0.08 3.05 -2.51 17.85 0.39 -1.25 -0.19 12663
-0.00 0.10 0.46 -0.23 9.32 -0.07 -0.15 0.04 12670
-0.01 0.17 1.01 -0.56 10.15 -0.22 0.08 -0.06 12679
-0.02 0.20 0.18 -0.90 9.65 -0.09 -0.06 -0.04 12685
-0.02 0.23 0.21 -1.22 10.48 0.04 -0.25 -0.08 12692
-0.02 0.22 0.36 -1.01 10.30 0.00 -0.09 -0.07 12699
-0.01 0.24 0.23 -1.03 10.00 -0.04 -0.02 -0.06 12706
-0.01 0.26 0.26 -0.89 9.81 -0.04 0.02 -0.05 12713
-0.02 0.22 0.38 -0.81 9.75 -0.02 0.03 -0.05 12721
-0.01 0.20 0.32 -0.87 9.82 -0.01 0.04 -0.04 12728
-0.02 0.20 0.38 -0.91 9.80 -0.02 0.06 -0.04 12735
-0.02 0.23 0.33 -0.93 9.78 -0.03 0.08 -0.04 12742
-0.02 0.23 0.26 -0.92 9.72 -0.04 0.09 -0.04 12749
-0.01 0.23 0.35 -0.90 9.69 -0.06 0.10 -0.04 12756
0.02 0.23 0.39 -0.81 9.68 -0.07 0.13 -0.03 12764
0.02 0.24 0.30 -0.97 9.84 -0.08 0.15 -0.02 12771
0.00 0.26 0.34 -0.95 9.83 -0.08 0.15 -0.02 12778
0.01 0.31 0.36 -0.91 9.75 -0.08 0.16 -0.02 12785
-0.03 0.34 0.36 -0.86 9.80 -0.08 0.16 -0.02 12792
-0.02 0.33 0.37 -0.83 9.79 -0.08 0.16 -0.02 12800
-0.02 0.38 0.46 -0.84 9.83 -0.07 0.15 -0.02 12807
-0.02 0.38 0.56 -0.75 9.89 -0.07 0.15 -0.03 12814
-0.04 0.43 0.22 -0.72 9.84 -0.07 0.13 -0.03 12821
-0.03 0.43 0.52 -0.83 9.84 -0.07 0.10 -0.03 12828
-0.02 0.50 0.48 -0.86 9.24 -0.07 0.13 -0.02 12835
-0.03 0.50 0.51 -0.81 9.76 -0.07 0.12 -0.03 12843
-0.03 0.50 0.48 -0.82 9.80 -0.06 0.11 -0.03 12850
-0.04 0.61 0.47 -0.77 9.82 -0.06 0.09 -0.03 12857
-0.04 0.64 0.46 -0.70 9.78 -0.05 0.07 -0.04 12864
-0.04 0.67 0.46 -0.75 9.84 -0.05 0.07 -0.04 12871
-0.03 0.71 0.41 -0.75 9.81 -0.04 0.07 -0.04 12878
-0.05 0.73 0.51 -0.78 9.83 -0.04 0.07 -0.04 12886
-0.04 0.77 0.43 -0.82 9.81 -0.04 0.07 -0.04 12893
-0.05 0.78 0.51 -0.74 9.84 -0.04 0.09 -0.04 12900
-0.04 0.83 0.50 -0.77 9.83 -0.04 0.09 -0.04 12907
-0.05 0.88 0.55 -0.76 9.78 -0.04 0.09 -0.04 12914
-0.04 0.89 0.51 -0.73 9.80 -0.03 0.09 -0.04 12921
-0.05 0.92 0.54 -0.74 9.81 -0.03 0.09 -0.04 12929
-0.05 0.91 0.54 -0.73 9.83 -0.03 0.09 -0.04 12936
-0.06 0.87 0.52 -0.73 9.81 -0.03 0.09 -0.04 12943
-0.05 0.90 0.52 -0.74 9.81 -0.02 0.09 -0.04 12950
-0.05 0.90 0.48 -0.76 9.81 -0.03 0.10 -0.04 12957
-0.04 0.88 0.54 -0.75 9.81 -0.03 0.10 -0.04 12964
-0.05 0.85 0.55 -0.75 9.82 -0.03 0.10 -0.03 12972
-0.05 0.84 0.56 -0.69 9.82 -0.02 0.10 -0.04 12979
-0.05 0.84 0.54 -0.74 9.78 -0.02 0.10 -0.04 12986
-0.05 0.84 0.55 -0.72 9.80 -0.02 0.09 -0.04 12993
-0.04 0.83 0.57 -0.71 9.76 -0.02 0.09 -0.04 13000
-0.04 0.85 0.58 -0.72 9.75 -0.01 0.08 -0.04 13007
-0.05 0.83 0.57 -0.70 9.77 -0.01 0.08 -0.05 13015
-0.05 0.83 0.62 -0.68 9.71 -0.00 0.06 -0.05 13022
-0.05 0.80 0.63 -0.67 9.69 0.01 0.03 -0.05 13029
-0.04 0.78 0.60 -0.69 9.72 0.02 0.01 -0.05 13036
-0.03 0.78 0.60 -0.74 9.70 0.03 -0.01 -0.05 13043
-0.04 0.78 0.58 -0.75 9.79 0.03 -0.03 -0.05 13050
-0.04 0.76 0.54 -0.76 9.81 0.03 -0.03 -0.05 13058
-0.04 0.74 0.56 -0.70 9.82 0.00 -0.03 -0.04 13065
-0.05 0.75 0.56 -0.73 9.79 0.03 -0.04 -0.05 13072
-0.05 0.75 0.50 -0.74 9.82 0.03 -0.04 -0.05 13079
-0.04 0.74 0.49 -0.75 9.79 0.02 -0.03 -0.04 13086
-0.04 0.73 0.49 -0.75 9.21 0.01 -0.01 -0.04 13093
-0.02 0.74 0.44 -0.76 9.79 0.01 -0.00 -0.04 13101
0.00 0.73 0.50 -0.74 9.78 0.01 -0.00 -0.05 13108
-0.02 0.73 0.50 -0.76 9.80 0.00 -0.00 -0.04 13115
-0.02 0.75 0.57 -0.77 9.82 0.01 0.00 -0.04 13122
-0.02 0.74 0.53 -0.73 9.74 0.01 -0.00 -0.04 13129
-0.05 0.74 0.52 -0.72 9.73 0.01 -0.00 -0.04 13136
-0.01 0.73 0.51 -0.77 9.75 0.01 -0.01 -0.04 13144
-0.05 0.73 0.51 -0.74 9.72 0.02 -0.01 -0.04 13151
-0.02 0.71 0.51 -0.74 9.80 0.01 -0.01 -0.04 13158
-0.01 0.72 0.47 -0.77 9.81 0.01 -0.02 -0.04 13165
-0.00 0.69 0.48 -0.73 9.77 0.02 -0.02 -0.04 13172
0.01 0.68 0.46 -0.75 9.81 0.01 -0.02 -0.04 13179
0.01 0.67 0.43 -0.77 10.36 0.01 -0.01 -0.04 13187
-0.00 0.67 0.49 -0.74 9.81 0.01 -0.00 -0.04 13194
0.01 0.67 0.43 -0.77 9.84 0.01 0.00 -0.04 13201
-0.01 0.66 0.44 -0.76 9.82 0.01 0.01 -0.05 13208
-0.00 0.66 0.43 -0.76 9.82 0.00 0.02 -0.04 13215
-0.02 0.65 0.45 -0.79 9.81 0.01 0.03 -0.04 13222
-0.02 0.64 0.44 -0.80 9.81 0.00 0.03 -0.05 13230
-0.03 0.63 0.45 -0.74 9.77 0.00 0.04 -0.04 13237
-0.02 0.62 0.44 -0.75 9.81 -0.00 0.04 -0.04 13244
-0.02 0.60 0.43 -0.78 9.78 0.00 0.05 -0.04 13251
-0.02 0.59 0.44 -0.79 9.78 -0.00 0.05 -0.05 13258
-0.02 0.59 0.48 -0.79 9.77 -0.00 0.05 -0.05 13265
-0.02 0.59 0.50 -0.77 9.80 -0.00 0.05 -0.05 13273
-0.03 0.60 0.47 -0.80 9.81 0.00 0.05 -0.05 13280
-0.03 0.60 0.43 -0.77 9.82 -0.03 0.05 -0.05 13287
-0.02 0.59 0.46 -0.78 9.80 0.00 0.05 -0.05 13294
-0.02 0.59 0.45 -0.77 9.81 0.00 0.05 -0.05 13301
-0.02 0.58 0.46 -0.79 9.82 -0.00 0.06 -0.05 13308
-0.03 0.59 0.43 -0.75 10.40 -0.00 0.06 -0.05 13316
-0.03 0.58 0.49 -0.77 9.78 -0.00 0.06 -0.05 13323
-0.02 0.58 0.47 -0.78 9.79 -0.00 0.06 -0.05 13330
-0.01 0.55 0.44 -0.79 9.78 -0.00 0.06 -0.05 13337
-0.02 0.53 0.49 -0.78 9.81 -0.00 0.07 -0.05 13344
-0.02 0.52 0.49 -0.78 9.20 -0.00 0.06 -0.05 13351
-0.04 0.52 0.47 -0.79 9.79 0.00 0.06 -0.04 13359
-0.02 0.52 0.47 -0.75 9.81 0.00 0.06 -0.04 13366
-0.02 0.53 0.50 -0.77 9.80 0.00 0.06 -0.05 13373
-0.01 0.53 0.49 -0.81 9.79 0.00 0.06 -0.05 13380
-0.02 0.52 0.49 -0.79 9.72 0.00 0.06 -0.05 13387
-0.02 0.51 0.45 -0.77 9.79 0.00 0.06 -0.05 13394
-0.03 0.50 0.49 -0.78 9.82 0.00 0.06 -0.05 13402
-0.02 0.48 0.47 -0.80 9.80 0.00 0.06 -0.05 13409
-0.02 0.46 0.50 -0.80 9.81 0.00 0.06 -0.05 13416
-0.01 0.45 0.51 -0.79 9.80 0.00 0.06 -0.05 13423
-0.02 0.44 0.51 -0.81 9.79 0.00 0.06 -0.05 13430
-0.01 0.41 0.50 -0.79 9.77 0.00 0.06 -0.05 13437
-0.02 0.42 0.49 -0.80 9.79 0.00 0.06 -0.05 13445
-0.01 0.38 0.47 -0.78 9.74 0.01 0.06 -0.05 13452
-0.00 0.38 0.50 -0.78 9.78 0.01 0.06 -0.05 13459
-0.00 0.37 0.52 -0.80 9.82 0.02 0.06 -0.05 13466
-0.01 0.35 0.49 -0.78 9.79 0.02 0.06 -0.05 13473
0.00 0.38 0.51 -0.80 9.80 0.02 0.06 -0.05 13480
0.01 0.31 0.50 -0.81 9.73 0.02 0.06 -0.05 13488
0.02 0.27 0.50 -0.79 9.81 0.02 0.06 -0.05 13495
0.02 0.28 0.49 -0.79 9.80 0.02 0.06 -0.06 13502
0.02 0.29 0.54 -0.80 9.78 0.03 0.06 -0.06 13509
0.03 0.20 0.52 -0.80 9.77 0.03 0.06 -0.05 13516
0.02 0.19 0.53 -0.84 9.81 0.03 0.05 -0.06 13523
0.01 0.19 0.56 -0.82 9.82 0.03 0.06 -0.06 13531
0.02 0.19 0.55 -0.83 9.80 0.03 0.06 -0.06 13538
0.06 0.17 0.53 -0.84 9.80 0.03 0.06 -0.06 13545
0.05 0.11 0.51 -0.83 9.81 0.03 0.06 -0.06 13552
0.05 0.04 0.51 -0.81 9.78 0.03 0.06 -0.06 13559
0.05 0.06 0.52 -0.89 9.80 0.03 0.06 -0.06 13566
0.06 0.03 0.53 -0.86 9.81 0.03 0.06 -0.06 13574
0.07 0.07 0.55 -0.86 9.81 0.04 0.06 -0.06 13581
0.05 0.08 0.54 -0.86 9.81 0.03 0.07 -0.06 13588
0.05 0.04 0.51 -0.87 9.85 0.04 0.07 -0.06 13595
0.07 0.01 0.51 -0.88 9.82 0.04 0.08 -0.06 13602
0.04 0.01 0.57 -0.91 9.82 0.05 0.09 -0.06 13609
0.07 -0.00 0.59 -0.96 9.87 0.06 0.09 -0.06 13617
0.08 0.00 0.61 -0.94 9.89 0.07 0.10 -0.06 13624
0.09 -0.00 0.58 -0.89 9.82 0.09 0.12 -0.06 13631
0.09 -0.01 0.57 -0.90 9.89 0.10 0.13 -0.06 13638
0.08 -0.01 0.63 -0.89 9.91 0.13 0.16 -0.06 13645
0.09 -0.01 0.60 -0.92 10.01 0.17 0.20 -0.06 13652
0.11 -0.01 0.71 -0.95 10.08 0.22 0.23 -0.07 13660
0.13 -0.01 0.73 -0.94 10.11 0.29 0.28 -0.08 13668
0.11 -0.01 0.73 -0.97 10.25 0.39 0.30 -0.10 13674
0.10 -0.01 0.75 -0.96 10.77 0.57 0.33 -0.12 13681
0.09 -0.01 0.79 -1.09 11.08 0.79 0.35 -0.13 13688
0.07 -0.01 0.90 -1.04 10.72 1.01 0.36 -0.15 13696
0.07 0.01 0.85 -1.26 11.52 1.16 0.32 -0.16 13704
0.08 -0.01 0.80 -1.38 11.49 1.24 0.23 -0.17 13710
0.10 -0.01 0.83 -1.51 11.84 1.35 0.19 -0.19 13717
0.08 -0.01 0.79 -1.47 11.63 1.45 0.15 -0.20 13724
0.08 -0.01 0.92 -1.73 11.42 1.53 0.13 -0.20 13731
0.07 -0.01 0.86 -1.73 11.46 1.63 0.12 -0.22 13739
0.08 -0.00 1.00 -1.82 11.21 1.72 0.10 -0.23 13746
0.07 -0.01 0.94 -2.44 11.38 1.80 0.09 -0.23 13753
0.06 -0.01 1.28 -2.27 11.51 1.90 0.08 -0.25 13760
0.05 -0.01 1.22 -2.25 11.42 1.98 0.03 -0.27 13767
0.05 0.01 1.33 -2.49 11.43 2.08 -0.01 -0.29 13774
0.06 -0.01 1.37 -2.58 11.49 2.16 -0.05 -0.31 13782
0.05 -0.01 1.41 -2.85 11.67 2.23 -0.06 -0.33 13789
0.07 -0.01 1.59 -3.11 11.77 2.30 -0.06 -0.36 13796
0.06 -0.01 1.60 -3.46 11.73 2.34 -0.04 -0.38 13803
0.05 -0.00 1.75 -3.74 12.12 2.39 0.03 -0.39 13810
0.00 0.00 1.69 -3.99 12.66 2.41 0.15 -0.41 13817
0.02 -0.00 1.28 -4.27 12.85 2.43 0.25 -0.42 13825
0.03 -0.00 2.20 -4.47 12.98 2.44 0.36 -0.43 13832
0.03 -0.00 1.90 -4.38 12.75 2.45 0.46 -0.45 13839
0.00 -0.00 1.84 -4.19 12.74 2.43 0.52 -0.48 13846
0.01 -0.00 1.68 -4.36 12.68 2.40 0.55 -0.52 13853
0.00 0.00 1.25 -4.68 12.42 2.40 0.60 -0.55 13860
0.00 -0.00 1.68 -4.42 12.42 2.38 0.57 -0.58 13868
0.00 -0.00 1.22 -4.92 11.94 2.35 0.56 -0.62 13875
0.00 0.00 0.89 -4.63 11.40 2.31 0.51 -0.64 13882
0.00 0.00 0.68 -4.45 10.56 2.29 0.41 -0.65 13889
0.00 0.00 0.66 -4.02 10.13 2.29 0.32 -0.67 13896
0.00 0.00 0.89 -3.69 9.83 2.25 0.23 -0.68 13903
0.00 0.00 1.06 -3.09 9.27 2.15 0.15 -0.69 13911
0.00 0.00 1.48 -2.29 8.47 2.09 0.08 -0.71 13918
0.00 0.00 1.61 -1.72 7.83 1.98 0.01 -0.74 13925
0.00 0.00 1.49 -0.87 7.02 1.87 -0.07 -0.78 13932
0.00 0.00 1.19 0.33 7.09 1.71 -0.13 -0.83 13939
-0.00 0.00 1.01 3.47 7.10 1.50 -0.20 -0.94 13946
-0.00 0.01 1.08 3.37 6.50 1.25 -0.24 -1.05 13954
0.00 0.00 0.20 3.32 6.94 0.96 -0.31 -1.13 13961
-0.00 0.00 0.29 1.87 7.83 0.64 -0.32 -1.22 13968
0.00 0.00 0.26 1.39 8.77 0.41 -0.31 -1.25 13975
0.00 0.00 0.31 1.54 8.62 0.15 -0.26 -1.23 13982
0.00 0.00 0.53 1.99 7.98 -0.02 -0.22 -1.17 13989
0.00 0.00 0.60 2.12 7.19 -0.22 -0.21 -1.12 13997
0.00 0.00 0.66 1.86 6.57 -0.42 -0.22 -1.05 14004
0.00 0.00 0.84 0.66 6.64 -0.55 -0.25 -0.98 14011
0.00 0.00 1.06 0.56 6.90 -0.67 -0.28 -0.91 14018
0.00 0.00 1.22 -0.02 7.11 -0.75 -0.30 -0.84 14025
0.00 0.00 1.35 -0.50 7.09 -0.81 -0.28 -0.77 14032
0.00 0.00 1.45 -0.96 7.06 -0.86 -0.27 -0.70 14040
0.00 0.00 1.47 -1.20 7.09 -0.91 -0.26 -0.62 14047
0.00 0.00 1.46 -1.38 7.20 -0.95 -0.23 -0.54 14054
0.00 0.00 1.54 -1.47 7.53 -1.00 -0.18 -0.44 14061
0.00 0.00 1.70 -1.52 7.81 -1.07 -0.13 -0.35 14068
0.00 0.00 1.74 -1.51 8.04 -1.18 -0.06 -0.24 14075
0.00 0.00 1.70 -1.55 8.16 -1.27 0.02 -0.12 14083
0.00 0.00 1.68 -1.64 8.24 -1.39 0.11 -0.03 14090
0.00 0.00 1.54 -1.83 8.61 -1.49 0.19 0.08 14097
0.00 0.00 1.34 -2.10 8.87 -1.60 0.25 0.19 14104
0.00 0.00 1.07 -2.46 9.00 -1.68 0.30 0.26 14111
0.00 0.00 0.84 -2.74 9.18 -1.74 0.37 0.34 14118
0.00 0.00 0.60 -3.40 9.17 -1.80 0.36 0.40 14126
0.00 0.00 0.24 -3.23 8.94 -1.81 0.39 0.41 14133
0.00 0.00 0.03 -4.87 7.91 -1.84 0.40 0.38 14140
0.00 0.00 -0.54 -5.96 6.03 -1.78 0.39 0.31 14147
0.00 0.00 -1.01 -8.12 8.88 -1.75 0.42 0.20 14154
0.00 0.00 -1.39 -5.84 12.48 -1.64 0.41 0.09 14161
0.00 0.00 0.73 -5.14 10.44 -1.63 0.39 -0.01 14169
0.00 0.00 -2.53 -15.36 9.75 -1.46 0.38 -0.14 14176
0.00 0.00 -0.51 -10.90 15.06 -1.54 0.47 -0.21 14183
0.00 0.00 -0.12 -5.92 9.65 -1.44 0.35 -0.23 14190
0.00 0.00 0.54 -8.42 8.63 -1.40 0.31 -0.26 14197
0.00 0.00 -0.48 -10.76 3.43 -1.36 0.25 -0.27 14204
0.00 0.00 0.06 -10.21 5.27 -1.34 0.24 -0.24 14212
0.00 0.00 -0.06 -5.00 10.69 -1.24 0.21 -0.20 14219
0.00 0.00 -1.39 -10.05 7.18 -1.19 0.14 -0.17 14226
0.00 0.00 1.87 -4.96 9.37 -1.11 0.17 -0.12 14233
0.00 0.00 -0.95 -5.71 9.51 -1.03 0.11 -0.08 14240
0.00 0.00 -3.76 -9.96 9.48 -1.06 0.07 0.01 14247
0.00 0.00 -0.52 -4.39 12.17 -1.02 0.05 0.04 14255
0.00 0.00 -0.64 -5.44 8.56 -1.06 -0.04 0.11 14262
0.00 0.00 0.20 -3.35 8.37 -1.03 -0.04 0.19 14269
0.00 0.00 -1.03 -5.47 7.39 -1.03 -0.05 0.26 14276
0.00 0.00 0.82 -3.95 9.80 -1.01 0.03 0.35 14283
0.00 -0.00 0.17 -3.89 9.14 -1.01 0.03 0.43 14290
0.00 0.00 0.37 -3.85 9.25 -0.98 0.13 0.52 14298
0.00 0.00 0.56 -3.63 9.46 -1.00 0.18 0.61 14305
0.00 0.00 0.53 -3.50 9.46 -1.00 0.25 0.70 14312
0.00 0.00 0.39 -3.30 9.84 -1.02 0.34 0.78 14319
0.00 0.00 0.21 -3.04 10.19 -1.05 0.40 0.86 14326
0.00 -0.00 0.02 -2.85 10.47 -1.10 0.44 0.94 14333
0.00 0.00 -0.18 -2.77 10.76 -1.15 0.44 1.01 14341
0.00 0.00 -0.36 -2.77 11.02 -1.20 0.41 1.06 14348
0.00 0.00 -0.45 -2.89 10.99 -1.24 0.35 1.10 14355
0.00 0.00 -0.55 -2.93 10.79 -1.28 0.29 1.12 14362
0.00 0.00 -0.58 -3.01 10.44 -1.28 0.23 1.12 14369
0.00 0.00 -0.52 -2.98 9.92 -1.27 0.14 1.10 14376
0.00 0.00 -0.53 -2.92 9.66 -1.23 0.12 1.07 14384
0.00 0.00 -0.44 -2.87 9.55 -1.18 0.07 0.99 14391
0.00 0.00 -0.34 -2.81 9.67 -1.10 0.03 0.90 14398
0.00 0.00 -0.17 -2.55 9.77 -1.02 -0.02 0.77 14405
0.00 0.00 -0.08 -2.19 9.85 -0.96 -0.04 0.61 14412
0.00 0.00 0.05 -1.92 10.05 -0.93 -0.06 0.48 14419
0.00 0.00 0.36 -1.66 10.42 -0.94 -0.04 0.32 14427
0.00 0.00 0.61 -1.55 10.39 -0.96 -0.02 0.17 14434
0.00 0.00 0.83 -1.49 10.45 -1.00 0.04 0.05 14441
0.00 0.00 1.09 -1.49 10.26 -1.04 0.10 -0.07 14448
0.00 0.00 1.24 -1.54 10.27 -1.09 0.13 -0.15 14455
0.00 0.00 1.36 -1.64 10.16 -1.13 0.14 -0.23 14462
0.00 0.00 1.42 -1.73 9.90 -1.15 0.13 -0.29 14470
0.00 0.00 1.63 -1.90 9.74 -1.17 0.10 -0.33 14477
0.00 0.00 1.90 -2.18 9.58 -1.17 0.08 -0.35 14484
0.00 0.00 2.05 -2.47 9.50 -1.14 0.07 -0.36 14491
0.00 0.00 2.22 -2.88 9.37 -1.08 0.10 -0.36 14498
0.00 0.00 2.25 -3.36 9.17 -1.03 0.20 -0.34 14505
0.00 0.00 2.17 -3.85 9.08 -0.94 0.25 -0.34 14513
0.00 0.00 2.05 -4.46 8.88 -0.87 0.34 -0.32 14520
0.00 0.00 1.93 -5.49 8.47 -0.77 0.43 -0.29 14527
0.00 0.00 1.37 -7.59 7.90 -0.63 0.56 -0.22 14534
0.00 0.00 -2.27 -10.41 18.05 0.05 0.70 0.02 14541
0.00 0.00 -0.76 -6.00 1.97 0.32 0.55 0.11 14548
0.00 0.00 -3.08 -10.34 4.40 0.46 0.31 0.19 14556
0.00 0.00 -4.23 -13.63 8.93 0.79 -0.13 0.30 14563
0.00 0.00 -4.65 -15.87 6.48 1.05 -0.58 0.34 14570
-0.00 0.01 -4.35 -17.99 4.08 1.33 -1.00 0.33 14577
0.00 0.01 -4.45 -23.78 5.24 1.69 -1.26 0.37 14584
-0.00 0.02 -9.56 -21.44 37.70 1.89 -1.87 0.38 14593
-0.00 0.01 -3.05 -2.08 10.05 -0.04 -0.02 0.11 14599
-0.00 0.02 -1.36 -3.93 9.87 -0.31 0.06 0.02 14606
-0.01 0.08 -0.50 -1.27 10.01 -0.39 -0.05 -0.08 14613
-0.01 0.13 0.43 -1.06 10.18 -0.30 -0.03 -0.14 14620
0.02 0.17 0.86 -0.41 9.81 -0.15 -0.02 -0.10 14627
0.01 0.20 0.42 -0.61 10.20 -0.08 0.01 -0.09 14635
-0.00 0.19 0.12 -1.02 10.05 -0.04 0.04 -0.07 14642
-0.02 0.24 -0.12 -1.05 10.05 -0.01 0.07 -0.05 14649
-0.02 0.21 0.03 -0.85 9.83 -0.01 0.09 -0.05 14656
0.01 0.23 0.38 -0.84 9.81 -0.01 0.10 -0.04 14663
0.02 0.22 0.41 -0.86 9.73 -0.01 0.11 -0.04 14670
0.04 0.22 0.34 -0.86 9.75 -0.01 0.10 -0.04 14678
0.05 0.24 0.38 -0.95 9.77 -0.02 0.10 -0.03 14685
0.05 0.26 0.37 -0.91 9.73 -0.03 0.09 -0.04 14692
0.06 0.27 0.43 -0.85 9.77 -0.04 0.07 -0.04 14699
0.05 0.30 0.44 -0.86 9.73 -0.04 0.06 -0.04 14706
0.06 0.29 0.37 -0.89 9.83 -0.04 0.05 -0.05 14713
0.05 0.28 0.37 -0.84 9.81 -0.05 0.04 -0.05 14721
0.05 0.28 0.41 -0.84 9.81 -0.04 0.04 -0.05 14728
0.04 0.31 0.67 -1.11 9.35 -0.04 0.04 -0.05 14735
0.04 0.33 0.33 -0.85 9.74 -0.04 0.05 -0.05 14742
0.05 0.30 0.35 -0.81 9.80 -0.04 0.05 -0.05 14749
0.05 0.34 0.40 -0.81 9.83 -0.03 0.06 -0.06 14756
0.05 0.33 0.38 -0.79 9.85 -0.03 0.06 -0.05 14764
0.05 0.35 0.40 -0.86 9.87 -0.03 0.07 -0.06 14771
0.04 0.36 0.36 -0.82 9.81 -0.03 0.07 -0.06 14778
0.05 0.36 0.37 -0.77 9.77 -0.03 0.06 -0.06 14785
0.06 0.35 0.37 -0.79 9.83 -0.03 0.07 -0.05 14792
0.05 0.37 0.30 -0.73 9.79 -0.03 0.07 -0.05 14799
0.05 0.36 0.39 -0.81 9.79 -0.03 0.06 -0.05 14807
0.04 0.37 0.37 -0.78 9.79 -0.03 0.06 -0.05 14814
0.04 0.39 0.40 -0.82 9.81 -0.02 0.06 -0.05 14821
0.04 0.41 0.36 -0.79 10.40 -0.02 0.05 -0.05 14828
0.05 0.46 0.40 -0.77 9.80 -0.02 0.04 -0.05 14835
0.03 0.44 0.40 -0.84 9.76 -0.02 0.05 -0.05 14842
0.01 0.41 0.39 -0.79 9.80 -0.02 0.05 -0.06 14850
-0.01 0.43 0.33 -0.82 9.83 -0.02 0.04 -0.06 14857
0.01 0.42 0.37 -0.84 9.82 -0.01 0.04 -0.06 14864
0.00 0.43 0.38 -0.80 9.83 -0.02 0.04 -0.06 14871
0.01 0.41 0.40 -0.79 9.83 -0.02 0.04 -0.06 14878
0.00 0.42 0.43 -0.79 9.83 -0.02 0.03 -0.06 14885
0.01 0.40 0.44 -0.80 9.83 -0.01 0.02 -0.06 14893
-0.01 0.42 0.41 -0.79 9.83 -0.02 0.02 -0.06 14900
0.01 0.42 0.37 -0.77 9.80 -0.01 0.01 -0.06 14907
0.02 0.43 0.39 -0.77 9.80 -0.01 0.01 -0.06 14914
0.01 0.42 0.36 -0.79 9.82 -0.00 0.01 -0.06 14921
0.00 0.42 0.34 -0.74 9.81 -0.00 0.01 -0.06 14928
0.02 0.41 0.39 -0.80 9.81 0.00 0.01 -0.06 14936
0.01 0.41 0.38 -0.81 9.82 0.00 0.01 -0.06 14943
0.02 0.41 0.35 -0.82 9.77 0.00 0.02 -0.07 14950
0.05 0.41 0.35 -0.80 10.41 0.00 0.02 -0.07 14957
0.03 0.40 0.32 -0.80 9.83 0.00 0.03 -0.07 14964
0.02 0.39 0.34 -0.80 9.80 0.01 0.03 -0.07 14971
0.01 0.37 0.32 -0.85 9.83 0.01 0.03 -0.06 14979
0.03 0.37 0.33 -0.78 9.81 0.00 0.04 -0.07 14986
0.03 0.36 0.37 -0.81 9.80 0.00 0.04 -0.07 14993
0.04 0.35 0.37 -0.81 9.78 0.00 0.04 -0.06 15000
0.04 0.33 0.38 -0.80 9.82 0.00 0.04 -0.06 15007
0.04 0.33 0.36 -0.78 9.80 0.00 0.04 -0.06 15014
0.04 0.32 0.34 -0.85 9.83 0.00 0.05 -0.06 15022
0.06 0.32 0.36 -0.81 9.81 -0.00 0.05 -0.06 15029
0.06 0.32 0.37 -0.80 9.81 0.00 0.05 -0.06 15036
0.08 0.31 0.40 -0.83 9.82 0.00 0.05 -0.06 15043
0.07 0.30 0.36 -0.82 9.81 -0.00 0.05 -0.06 15050
0.07 0.28 0.34 -0.84 9.81 -0.00 0.05 -0.06 15057
0.05 0.30 0.37 -0.79 9.78 -0.00 0.05 -0.06 15065
0.05 0.30 0.36 -0.82 9.80 -0.01 0.05 -0.06 15072
0.06 0.30 0.36 -0.78 9.81 -0.01 0.06 -0.06 15079
0.07 0.30 0.37 -0.82 10.39 -0.01 0.06 -0.07 15086
0.06 0.29 0.36 -0.82 9.81 -0.01 0.06 -0.07 15093
0.05 0.28 0.39 -0.82 9.80 -0.00 0.06 -0.07 15100
0.04 0.29 0.39 -0.80 9.82 -0.01 0.06 -0.07 15108
0.05 0.29 0.40 -0.81 9.81 -0.01 0.06 -0.06 15115
0.06 0.29 0.40 -0.80 9.81 -0.01 0.06 -0.06 15122
0.06 0.29 0.38 -0.82 9.82 -0.00 0.06 -0.06 15129
0.06 0.29 0.39 -0.83 9.76 -0.01 0.05 -0.06 15136
0.05 0.28 0.42 -0.82 9.80 -0.01 0.05 -0.06 15143
0.04 0.29 0.42 -0.80 9.80 -0.01 0.05 -0.06 15151
0.04 0.30 0.38 -0.83 9.79 -0.01 0.05 -0.06 15158
0.05 0.29 0.40 -0.84 9.80 -0.01 0.05 -0.07 15165
0.04 0.29 0.36 -0.82 9.80 -0.01 0.05 -0.06 15172
0.04 0.30 0.41 -0.83 9.81 -0.01 0.05 -0.06 15179
0.04 0.29 0.39 -0.79 9.81 -0.01 0.05 -0.06 15186
0.03 0.30 0.39 -0.81 9.82 -0.01 0.05 -0.07 15194
0.04 0.30 0.40 -0.82 9.80 -0.01 0.05 -0.06 15201
0.06 0.30 0.41 -0.84 9.79 -0.01 0.05 -0.06 15208
0.04 0.31 0.44 -0.79 9.81 -0.00 0.05 -0.06 15215
0.04 0.31 0.40 -0.83 9.81 -0.01 0.05 -0.06 15222
0.03 0.30 0.35 -0.82 9.83 -0.01 0.05 -0.06 15229
0.03 0.31 0.40 -0.81 9.77 -0.01 0.06 -0.06 15237
0.04 0.33 0.39 -0.79 9.82 -0.01 0.05 -0.06 15244
0.05 0.31 0.37 -0.81 9.81 -0.01 0.06 -0.06 15251
0.04 0.32 0.39 -0.80 9.81 -0.01 0.06 -0.06 15258
0.04 0.31 0.39 -0.81 9.81 -0.01 0.06 -0.06 15265
0.03 0.31 0.41 -0.82 9.80 -0.00 0.06 -0.06 15272
0.04 0.31 0.40 -0.79 9.86 -0.00 0.06 -0.07 15280
0.04 0.31 0.42 -0.82 9.80 -0.00 0.06 -0.06 15287
0.05 0.31 0.40 -0.80 9.80 -0.00 0.06 -0.06 15294
0.03 0.30 0.41 -0.79 9.81 -0.00 0.06 -0.06 15301
0.05 0.28 0.40 -0.81 9.77 0.00 0.06 -0.07 15308
0.03 0.27 0.38 -0.81 9.81 0.00 0.06 -0.06 15315
0.05 0.26 0.39 -0.80 9.82 0.00 0.06 -0.07 15323
0.04 0.28 0.42 -0.83 9.79 0.00 0.06 -0.07 15330
0.05 0.26 0.42 -0.77 9.79 0.01 0.06 -0.06 15337
0.05 0.26 0.40 -0.80 10.37 0.01 0.07 -0.07 15344
0.06 0.22 0.43 -0.85 9.82 0.01 0.06 -0.06 15351
0.05 0.21 0.39 -0.81 9.78 0.01 0.07 -0.07 15358
0.05 0.18 0.42 -0.80 9.79 0.01 0.06 -0.07 15366
0.06 0.18 0.42 -0.84 9.80 0.01 0.07 -0.07 15373
0.08 0.15 0.42 -0.81 9.80 0.01 0.07 -0.07 15380
0.08 0.12 0.40 -0.82 9.80 0.01 0.06 -0.06 15387
0.06 0.14 0.42 -0.80 9.82 0.01 0.06 -0.07 15394
0.07 0.16 0.46 -0.83 9.81 0.01 0.06 -0.06 15401
0.08 0.15 0.44 -0.86 9.81 0.01 0.06 -0.07 15409
0.10 0.13 0.45 -0.86 9.78 0.01 0.06 -0.07 15416
0.11 0.10 0.43 -0.82 9.80 0.01 0.06 -0.07 15423
0.10 0.13 0.45 -0.83 9.78 0.02 0.06 -0.07 15430
0.08 0.07 0.44 -0.88 9.82 0.02 0.06 -0.07 15437
0.10 0.06 0.45 -0.88 9.80 0.01 0.06 -0.07 15444
0.11 0.10 0.45 -0.84 9.81 0.01 0.06 -0.07 15452
0.13 0.10 0.45 -0.86 9.80 0.01 0.06 -0.07 15459
0.11 0.08 0.47 -0.87 9.77 0.01 0.06 -0.07 15466
0.10 0.08 0.47 -0.86 9.80 0.01 0.06 -0.07 15473
0.10 0.08 0.47 -0.86 9.80 0.01 0.06 -0.07 15480
0.12 0.09 0.47 -0.87 9.81 0.01 0.06 -0.07 15488
0.10 0.12 0.49 -0.85 9.82 0.00 0.05 -0.07 15495
0.13 0.09 0.49 -0.88 9.78 0.01 0.05 -0.07 15502
0.11 0.10 0.50 -0.88 9.80 0.00 0.05 -0.07 15509
0.11 0.05 0.47 -0.85 9.81 0.00 0.05 -0.07 15516
0.10 0.09 0.48 -0.88 9.80 0.00 0.05 -0.07 15523
0.11 0.08 0.49 -0.88 9.82 0.00 0.05 -0.07 15531
0.12 0.06 0.48 -0.86 9.80 0.00 0.05 -0.07 15538
0.12 0.03 0.46 -0.89 9.83 0.01 0.06 -0.04 15545
0.11 0.03 0.47 -0.87 9.80 0.01 0.06 -0.07 15552
0.12 0.01 0.48 -0.88 9.81 0.01 0.06 -0.07 15559
0.12 0.03 0.49 -0.88 9.80 0.01 0.06 -0.07 15566
0.14 0.02 0.49 -0.86 9.82 0.01 0.07 -0.07 15574
0.15 -0.00 0.51 -0.88 9.82 0.02 0.07 -0.07 15581
0.16 0.00 0.49 -0.86 9.82 0.02 0.07 -0.07 15588
0.18 -0.01 0.46 -0.89 9.82 0.03 0.08 -0.07 15595
0.16 -0.02 0.45 -0.91 9.81 0.03 0.08 -0.07 15602
0.15 -0.01 0.50 -0.87 9.81 0.04 0.09 -0.07 15609
0.17 0.00 0.49 -0.93 9.81 0.04 0.09 -0.07 15617
0.19 -0.02 0.52 -0.90 9.85 0.05 0.10 -0.07 15624
0.15 -0.01 0.46 -0.92 9.81 0.05 0.10 -0.07 15631
0.13 -0.01 0.55 -0.89 9.81 0.06 0.11 -0.07 15638
0.14 -0.01 0.49 -0.91 9.83 0.08 0.13 -0.07 15645
0.15 -0.01 0.52 -0.91 9.84 0.09 0.14 -0.07 15652
0.16 -0.01 0.54 -0.90 9.88 0.11 0.16 -0.07 15660
0.19 -0.00 0.47 -0.90 9.90 0.13 0.19 -0.07 15667
0.20 -0.01 0.55 -0.99 9.96 0.17 0.22 -0.06 15674
0.20 -0.02 0.54 -0.97 10.02 0.22 0.25 -0.05 15681
0.18 -0.02 0.70 -0.95 10.04 0.27 0.28 -0.06 15688
0.21 -0.02 0.62 -0.96 10.15 0.35 0.29 -0.06 15696
0.20 -0.01 0.66 -0.98 10.35 0.49 0.29 -0.07 15703
0.21 -0.02 0.73 -1.10 10.42 0.61 0.30 -0.08 15711
0.21 -0.02 0.67 -1.18 10.88 0.79 0.32 -0.09 15717
0.21 -0.02 0.72 -1.21 11.08 0.95 0.27 -0.11 15724
0.20 -0.01 0.75 -1.28 11.23 1.10 0.26 -0.11 15732
0.20 -0.02 0.67 -1.46 11.63 1.20 0.20 -0.12 15738
0.20 -0.02 0.73 -1.46 11.28 1.25 0.15 -0.13 15747
0.21 -0.02 0.92 -1.73 11.04 1.32 0.10 -0.13 15753
0.19 -0.01 0.78 -1.66 11.09 1.37 0.05 -0.13 15760
0.18 -0.02 0.45 -2.01 10.79 1.46 0.06 -0.14 15767
0.16 -0.02 0.89 -1.89 10.82 1.54 0.03 -0.13 15774
0.15 -0.01 1.02 -1.94 10.67 1.57 0.06 -0.15 15782
0.15 -0.02 0.78 -2.11 10.71 1.62 0.02 -0.15 15789
0.10 -0.01 0.92 -2.20 10.51 1.66 0.02 -0.16 15796
0.08 -0.01 0.91 -2.36 10.43 1.70 0.00 -0.17 15803
0.08 -0.01 0.98 -2.57 10.53 1.75 -0.00 -0.18 15810
0.10 -0.01 0.90 -2.66 10.58 1.78 -0.01 -0.19 15817
0.09 -0.01 0.90 -2.82 10.78 1.83 -0.03 -0.19 15824
0.09 -0.01 0.94 -2.98 10.75 1.88 -0.02 -0.20 15832
0.06 -0.01 0.86 -3.17 11.01 1.94 -0.04 -0.21 15839
0.09 -0.01 0.91 -3.36 11.43 2.02 -0.04 -0.21 15846
0.06 -0.01 0.93 -3.57 11.58 2.09 -0.00 -0.22 15853
0.05 -0.01 0.97 -3.66 10.99 2.15 -0.00 -0.23 15860
0.03 0.00 1.22 -4.01 11.64 2.19 0.03 -0.23 15867
0.05 -0.01 1.42 -4.26 11.83 2.21 0.09 -0.24 15875
0.03 -0.00 1.73 -4.51 11.83 2.21 0.16 -0.25 15882
0.03 -0.00 1.83 -4.57 11.87 2.20 0.23 -0.28 15889
0.00 0.00 1.65 -4.50 11.72 2.19 0.27 -0.30 15896
0.02 -0.00 1.48 -4.58 11.72 2.18 0.31 -0.33 15903
0.02 -0.00 1.27 -4.78 11.86 2.19 0.31 -0.36 15910
0.00 -0.00 1.17 -4.74 11.74 2.18 0.26 -0.38 15918
0.00 0.00 1.20 -4.97 11.72 2.14 0.21 -0.39 15925
0.00 0.00 1.00 -5.49 11.90 2.08 0.18 -0.41 15932
0.00 0.00 1.06 -5.59 12.10 2.02 0.12 -0.44 15939
0.00 0.00 1.25 -5.36 11.68 1.99 0.07 -0.47 15946
0.00 0.00 1.19 -4.97 10.80 1.97 0.04 -0.49 15953
0.00 0.00 1.17 -4.36 9.95 1.95 0.02 -0.51 15961
0.00 0.00 1.24 -3.89 8.63 1.89 0.04 -0.52 15968
0.00 0.00 1.43 -2.97 7.93 1.81 0.04 -0.55 15975
0.00 0.00 1.61 -2.88 6.86 1.71 0.01 -0.60 15982
0.00 0.00 1.57 -2.06 6.51 1.60 -0.06 -0.63 15989
0.00 0.00 1.55 -1.87 6.57 1.49 -0.11 -0.67 15996
0.00 0.00 1.06 1.12 6.74 1.36 -0.16 -0.71 16004
0.00 0.00 1.56 2.68 6.86 1.14 -0.17 -0.75 16011
0.00 0.00 0.97 2.94 7.32 0.91 -0.19 -0.76 16018
0.00 0.00 0.48 2.88 7.59 0.64 -0.19 -0.81 16025
0.00 0.00 0.51 0.79 7.73 0.39 -0.23 -0.83 16032
0.00 0.00 0.34 0.29 8.24 0.18 -0.23 -0.81 16039
0.00 0.00 0.24 0.39 7.85 0.02 -0.21 -0.76 16047
0.00 0.00 0.25 0.55 7.01 -0.05 -0.21 -0.70 16054
0.00 0.00 0.23 0.42 6.24 -0.10 -0.26 -0.65 16061
0.00 0.00 0.21 0.05 5.83 -0.14 -0.34 -0.59 16068
0.00 0.00 0.24 -0.46 5.97 -0.16 -0.41 -0.51 16075
0.00 0.00 0.34 -0.91 6.22 -0.18 -0.48 -0.44 16082
0.00 0.00 0.52 -1.35 6.45 -0.18 -0.52 -0.35 16090
0.00 0.00 0.70 -1.71 6.61 -0.19 -0.53 -0.27 16097
0.00 0.00 0.86 -2.00 6.77 -0.21 -0.51 -0.19 16104
0.00 0.00 1.03 -2.19 7.02 -0.25 -0.48 -0.10 16111
0.00 0.00 1.20 -2.27 7.38 -0.32 -0.40 -0.03 16118
0.00 0.00 1.49 -2.41 8.05 -0.41 -0.27 0.04 16125
0.00 0.00 0.01 -12.26 7.98 -0.47 -0.13 0.05 16133
0.00 0.00 -0.11 -13.19 10.56 -0.52 0.05 -0.01 16140
0.00 0.00 1.77 -12.39 7.08 -0.50 0.19 -0.16 16147
0.00 0.00 -2.21 -16.79 8.89 -0.37 0.31 -0.19 16154
0.00 0.00 -1.89 -8.72 7.74 -0.34 0.31 -0.28 16161
0.00 0.00 -3.83 -7.04 3.36 -0.53 0.32 -0.34 16168
0.00 0.00 -0.25 -8.16 5.92 -0.71 0.28 -0.28 16176
0.00 0.00 -0.02 1.26 8.23 -0.93 0.26 -0.21 16183
0.00 0.00 -0.25 -7.88 6.54 -1.20 0.25 -0.14 16190
0.00 0.00 0.46 -2.98 10.73 -1.35 0.21 0.01 16197
0.00 0.00 0.39 -5.35 7.96 -1.42 0.16 0.15 16204
0.00 0.00 0.25 -6.13 8.32 -1.37 0.17 0.22 16211
0.00 0.00 0.23 -5.96 7.75 -1.30 0.13 0.27 16219
0.00 0.00 0.26 -4.69 7.25 -1.13 0.10 0.32 16226
0.00 0.00 0.52 -3.54 6.56 -1.00 0.15 0.34 16233
0.00 0.00 0.68 -3.21 6.37 -0.94 0.21 0.33 16240
0.00 -0.00 0.73 -2.97 6.88 -0.93 0.28 0.32 16247
0.00 0.00 0.61 -2.85 7.71 -0.94 0.32 0.30 16254
0.00 0.00 0.46 -2.83 8.15 -0.94 0.35 0.28 16262
0.00 0.00 0.27 -2.76 8.31 -0.96 0.32 0.26 16269
0.00 0.00 0.11 -2.55 8.33 -0.97 0.24 0.25 16276
0.00 0.00 -0.00 -2.44 8.43 -1.00 0.18 0.26 16283
0.00 0.00 0.05 -2.40 8.69 -1.06 0.08 0.27 16290
0.00 0.00 0.03 -3.73 8.70 -1.08 0.02 0.27 16297
0.00 0.00 0.63 -2.17 8.90 -1.12 0.01 0.22 16305
0.00 0.00 2.50 -2.53 8.22 -1.33 0.04 0.15 16312
0.00 0.00 2.55 1.37 10.97 -1.51 0.13 0.14 16319
0.00 0.00 1.94 -0.96 8.36 -1.61 0.16 0.13 16326
0.00 0.00 1.37 -2.79 8.02 -1.80 0.19 0.14 16333
0.00 0.00 1.43 -2.74 9.86 -1.81 0.17 0.17 16340
0.00 0.00 0.91 -3.39 9.37 -1.82 0.16 0.20 16348
0.00 0.00 1.20 -3.26 9.37 -1.78 0.18 0.23 16355
0.00 0.00 1.50 -2.75 8.87 -1.73 0.17 0.27 16362
0.00 0.00 1.52 -2.68 8.60 -1.68 0.16 0.31 16369
0.00 0.00 1.66 -2.62 8.67 -1.62 0.17 0.34 16376
0.00 0.00 1.76 -2.57 8.92 -1.56 0.18 0.38 16384
0.00 0.00 1.74 -2.50 9.16 -1.47 0.20 0.43 16391
0.00 0.00 1.63 -2.40 9.64 -1.40 0.22 0.50 16398
0.00 0.00 1.45 -2.15 10.07 -1.37 0.23 0.58 16405
0.00 0.00 1.49 -1.83 10.66 -1.37 0.23 0.66 16412
0.00 0.00 1.72 -1.49 11.50 -1.41 0.25 0.75 16419
0.00 0.00 2.02 -1.21 12.21 -1.52 0.29 0.82 16427
0.00 0.00 2.18 -1.14 12.48 -1.68 0.38 0.89 16434
0.00 0.00 1.98 -1.23 12.35 -1.82 0.48 0.95 16441
0.00 0.00 1.73 -1.47 12.06 -1.93 0.54 0.99 16448
0.00 0.00 1.43 -1.77 11.56 -1.98 0.56 1.02 16455
0.00 0.00 1.21 -2.10 11.12 -1.97 0.55 1.03 16462
0.00 0.00 1.23 -2.33 10.96 -1.93 0.52 1.02 16470
0.00 0.00 1.17 -2.51 10.98 -1.86 0.48 0.98 16477
0.00 0.00 1.14 -2.55 10.97 -1.77 0.47 0.94 16484
0.00 0.00 1.20 -2.51 10.92 -1.67 0.46 0.87 16491
0.00 0.00 1.19 -2.45 10.82 -1.60 0.46 0.79 16498
0.00 0.00 1.24 -2.43 10.79 -1.53 0.46 0.71 16505
0.00 0.00 1.30 -2.45 10.56 -1.47 0.47 0.62 16513
0.00 0.00 1.34 -2.55 10.13 -1.39 0.48 0.53 16520
0.00 0.00 1.29 -2.79 9.85 -1.26 0.49 0.44 16527
0.00 0.00 1.10 -2.99 9.65 -1.12 0.45 0.35 16534
0.00 0.00 0.93 -3.12 9.60 -0.92 0.41 0.29 16541
0.00 0.00 0.81 -3.23 9.67 -0.70 0.34 0.23 16548
0.00 0.00 0.50 -4.40 10.22 -0.51 0.25 0.18 16556
0.00 0.00 -5.66 -14.14 19.92 0.08 -1.10 -0.07 16563
0.00 0.00 -1.26 -0.67 6.32 0.35 -0.99 -0.14 16570
0.00 -0.00 -0.04 -4.96 9.71 0.41 -1.00 -0.07 16577
0.00 0.00 -2.11 -5.58 9.43 0.23 -1.64 -0.20 16584
0.00 0.00 -1.53 -5.19 9.80 0.19 -1.76 -0.27 16591
0.00 0.00 -0.03 -5.73 12.28 0.15 -1.61 -0.29 16599
0.00 0.00 1.13 -9.02 14.20 0.02 -1.28 -0.32 16606
0.00 0.00 2.72 -15.18 14.50 0.08 -0.60 -0.32 16613
0.00 0.00 2.32 -2.18 1.49 0.10 0.14 -0.30 16620
0.00 0.00 3.95 -6.46 7.72 -0.36 0.30 -0.43 16627
0.00 0.00 -1.11 -16.04 13.06 -0.46 0.48 -0.48 16634
0.00 0.00 -1.07 -13.58 7.81 -0.38 0.32 -0.48 16642
0.00 0.00 -2.09 -17.28 4.97 -0.33 0.30 -0.41 16649
-0.00 0.00 -5.08 -23.71 3.28 -0.11 0.13 -0.32 16656
-0.00 0.01 -5.42 -26.36 2.81 0.14 -0.27 -0.25 16663
-0.00 0.00 -4.44 -32.02 8.03 0.29 -0.54 -0.25 16670
-0.00 0.02 0.77 0.00 11.70 0.07 -0.30 -0.16 16677
-0.00 0.03 0.13 -4.57 9.45 -0.25 0.00 -0.03 16685
0.01 0.08 0.87 -1.10 9.83 -0.34 0.05 0.04 16692
-0.00 0.11 0.47 0.15 10.88 -0.30 0.01 0.00 16699
0.03 0.16 0.57 0.23 10.36 -0.15 -0.01 -0.05 16706
0.02 0.22 0.34 -0.27 10.04 -0.07 0.00 -0.09 16713
0.01 0.22 0.34 -0.94 10.08 -0.05 0.02 -0.07 16720
-0.00 0.25 0.31 -1.07 9.94 -0.03 0.03 -0.06 16728
-0.01 0.25 0.15 -0.96 9.96 -0.01 0.04 -0.05 16735
-0.02 0.24 0.24 -0.85 9.82 -0.01 0.06 -0.05 16742
-0.02 0.25 0.32 -0.86 9.81 -0.00 0.07 -0.06 16749
-0.02 0.23 0.41 -0.86 9.75 0.00 0.09 -0.05 16756
-0.02 0.24 0.39 -0.84 9.77 -0.00 0.10 -0.04 16763
-0.02 0.23 0.37 -0.83 9.76 -0.00 0.09 -0.04 16771
-0.02 0.24 0.39 -0.82 9.67 -0.01 0.09 -0.04 16778
-0.02 0.23 0.36 -0.83 9.65 -0.01 0.10 -0.04 16785
-0.02 0.22 0.38 -0.80 9.62 -0.03 0.11 -0.04 16792
-0.01 0.22 0.40 -0.84 9.64 -0.05 0.10 -0.03 16799
0.02 0.18 0.47 -0.89 9.80 -0.06 0.09 -0.03 16806
-0.02 0.24 0.46 -0.88 9.72 -0.07 0.08 -0.03 16814
-0.01 0.25 0.42 -0.83 9.84 -0.07 0.07 -0.03 16821
0.02 0.26 0.46 -0.85 9.75 -0.07 0.05 -0.04 16828
0.02 0.22 0.42 -0.79 9.81 -0.07 0.05 -0.04 16835
0.03 0.24 0.21 -0.69 9.59 -0.06 0.04 -0.04 16842
0.03 0.32 0.42 -0.85 9.81 -0.06 0.04 -0.05 16849
0.03 0.33 0.39 -0.79 9.24 -0.06 0.04 -0.05 16857
0.05 0.33 0.47 -0.78 9.84 -0.05 0.03 -0.05 16864
0.05 0.36 0.45 -0.75 9.87 -0.05 0.03 -0.05 16871
0.04 0.38 0.46 -0.80 9.92 -0.04 0.02 -0.06 16878
0.04 0.39 0.44 -0.80 9.80 -0.04 0.02 -0.06 16885
0.04 0.40 0.44 -0.77 9.86 -0.04 0.02 -0.06 16892
0.04 0.38 0.41 -0.78 9.81 -0.04 0.02 -0.06 16900
0.04 0.42 0.42 -0.78 9.81 -0.04 0.02 -0.06 16907
0.05 0.45 0.42 -0.80 9.85 -0.03 0.03 -0.06 16914
0.04 0.46 0.41 -0.76 9.86 -0.03 0.03 -0.06 16921
0.04 0.42 0.37 -0.80 9.83 -0.03 0.03 -0.06 16928
0.03 0.43 0.38 -0.80 9.89 -0.03 0.04 -0.07 16935
0.03 0.48 0.42 -0.74 9.84 -0.03 0.05 -0.06 16943
0.03 0.53 0.42 -0.80 9.82 -0.02 0.05 -0.06 16950
0.04 0.53 0.41 -0.76 9.81 -0.02 0.05 -0.06 16957
0.03 0.55 0.44 -0.76 9.82 -0.02 0.05 -0.06 16964
0.03 0.53 0.45 -0.75 9.83 -0.02 0.05 -0.06 16971
0.02 0.50 0.40 -0.73 9.82 -0.02 0.05 -0.06 16978
0.02 0.51 0.39 -0.76 9.78 -0.02 0.05 -0.06 16986
0.03 0.52 0.42 -0.73 9.79 -0.02 0.05 -0.06 16993
0.03 0.53 0.40 -0.78 9.84 -0.01 0.05 -0.06 17000
0.02 0.52 0.41 -0.77 9.81 -0.02 0.05 -0.06 17007
0.02 0.51 0.44 -0.76 9.80 -0.01 0.04 -0.06 17014
0.02 0.51 0.42 -0.76 9.81 -0.01 0.05 -0.06 17021
0.02 0.54 0.42 -0.76 9.81 -0.01 0.05 -0.06 17029
0.03 0.52 0.40 -0.74 9.83 -0.01 0.04 -0.06 17036
0.03 0.55 0.39 -0.74 9.79 -0.01 0.04 -0.06 17043
0.02 0.58 0.42 -0.75 9.79 -0.01 0.04 -0.06 17050
0.01 0.59 0.40 -0.76 9.81 -0.01 0.05 -0.06 17057
-0.00 0.60 0.41 -0.75 9.83 -0.01 0.05 -0.06 17064
0.02 0.57 0.39 -0.74 9.81 -0.00 0.05 -0.06 17072
0.03 0.57 0.39 -0.77 9.81 -0.00 0.04 -0.07 17079
-0.00 0.56 0.44 -0.74 9.82 -0.01 0.05 -0.06 17086
-0.01 0.56 0.41 -0.77 9.78 -0.01 0.05 -0.06 17093
-0.02 0.55 0.40 -0.74 9.81 -0.00 0.05 -0.07 17100
-0.02 0.55 0.43 -0.72 9.80 -0.00 0.05 -0.07 17107
-0.01 0.55 0.44 -0.80 10.41 -0.00 0.05 -0.06 17115
0.01 0.53 0.43 -0.76 9.78 0.00 0.05 -0.06 17122
0.00 0.51 0.42 -0.74 9.81 0.00 0.05 -0.07 17129
-0.01 0.52 0.42 -0.76 9.81 0.01 0.05 -0.06 17136
-0.02 0.52 0.41 -0.75 9.77 0.00 0.04 -0.06 17143
-0.00 0.52 0.45 -0.74 9.82 0.01 0.05 -0.07 17150
0.00 0.52 0.40 -0.73 9.82 0.01 0.05 -0.07 17158
0.01 0.50 0.41 -0.75 9.78 0.00 0.05 -0.07 17165
0.01 0.50 0.42 -0.74 9.82 -0.00 0.05 -0.07 17172
0.01 0.49 0.43 -0.78 9.80 0.00 0.05 -0.06 17179
0.00 0.50 0.40 -0.75 9.82 0.00 0.05 -0.07 17186
0.02 0.50 0.46 -0.77 9.78 0.00 0.05 -0.07 17193
0.03 0.50 0.41 -0.76 9.74 -0.00 0.05 -0.07 17201
0.03 0.48 0.40 -0.78 9.21 0.00 0.05 -0.07 17208
0.01 0.46 0.41 -0.74 9.81 0.00 0.05 -0.07 17215
0.02 0.44 0.41 -0.76 9.73 0.00 0.05 -0.07 17222
0.01 0.44 0.45 -0.75 9.81 0.00 0.05 -0.07 17229
0.02 0.44 0.41 -0.78 9.80 0.00 0.05 -0.07 17236
0.03 0.44 0.43 -0.76 9.80 -0.00 0.05 -0.06 17244
0.03 0.42 0.44 -0.77 9.82 -0.00 0.05 -0.07 17251
0.03 0.38 0.44 -0.80 9.80 0.00 0.05 -0.07 17258
0.03 0.37 0.43 -0.77 9.78 0.00 0.05 -0.07 17265
0.02 0.39 0.44 -0.78 9.79 0.00 0.05 -0.07 17272
0.02 0.38 0.40 -0.76 9.78 -0.00 0.05 -0.06 17280
0.03 0.37 0.41 -0.74 9.73 0.00 0.05 -0.07 17287
0.04 0.34 0.45 -0.77 9.81 0.00 0.05 -0.07 17294
0.04 0.34 0.43 -0.78 9.79 0.01 0.05 -0.07 17301
0.03 0.33 0.42 -0.77 9.82 0.00 0.06 -0.07 17308
0.03 0.35 0.43 -0.74 9.84 0.00 0.06 -0.06 17315
0.05 0.35 0.46 -0.80 9.80 -0.00 0.06 -0.06 17323
0.06 0.32 0.42 -0.77 9.79 0.00 0.06 -0.07 17330
0.05 0.32 0.46 -0.74 9.80 0.00 0.06 -0.07 17337
0.05 0.31 0.43 -0.77 9.79 0.00 0.06 -0.07 17344
0.04 0.32 0.45 -0.77 9.82 0.01 0.06 -0.07 17351
0.04 0.32 0.45 -0.81 9.80 0.01 0.05 -0.07 17358
0.05 0.32 0.47 -0.80 9.85 0.01 0.06 -0.07 17366
0.07 0.28 0.45 -0.76 9.22 0.01 0.06 -0.07 17373
0.04 0.30 0.45 -0.78 9.80 0.01 0.06 -0.07 17380
0.04 0.30 0.46 -0.77 9.79 0.01 0.06 -0.06 17387
0.02 0.28 0.46 -0.78 9.77 0.01 0.06 -0.07 17394
0.05 0.26 0.49 -0.77 9.85 0.01 0.06 -0.07 17401
0.06 0.25 0.47 -0.77 9.81 0.01 0.06 -0.08 17409
0.07 0.24 0.45 -0.82 9.79 0.01 0.06 -0.07 17416
0.07 0.26 0.48 -0.83 9.75 0.01 0.05 -0.07 17423
0.06 0.28 0.48 -0.78 9.80 0.01 0.06 -0.07 17430
0.07 0.23 0.45 -0.82 9.80 0.01 0.06 -0.07 17437
0.09 0.20 0.46 -0.79 9.82 0.01 0.06 -0.07 17444
0.10 0.20 0.48 -0.83 9.83 0.01 0.06 -0.07 17452
0.10 0.16 0.46 -0.83 9.79 0.01 0.06 -0.07 17459
0.09 0.17 0.46 -0.81 9.21 0.02 0.06 -0.07 17466
0.08 0.18 0.47 -0.81 9.81 0.02 0.06 -0.08 17473
0.08 0.16 0.49 -0.83 9.81 0.02 0.06 -0.08 17480
0.10 0.17 0.47 -0.79 9.82 0.02 0.06 -0.08 17487
0.13 0.10 0.47 -0.82 9.79 0.02 0.07 -0.08 17495
0.12 0.09 0.47 -0.83 10.41 0.02 0.07 -0.07 17502
0.12 0.07 0.47 -0.81 9.79 0.02 0.07 -0.08 17509
0.11 0.07 0.49 -0.82 9.77 0.02 0.07 -0.08 17516
0.14 0.05 0.46 -0.88 9.76 0.02 0.07 -0.08 17523
0.13 0.05 0.47 -0.82 9.81 0.02 0.07 -0.08 17530
0.16 -0.00 0.49 -0.85 9.81 0.02 0.07 -0.08 17538
0.13 0.02 0.52 -0.86 9.81 0.02 0.07 -0.07 17545
0.14 0.00 0.51 -0.84 9.81 0.02 0.07 -0.07 17552
0.12 0.02 0.48 -0.86 9.79 0.02 0.07 -0.07 17559
0.15 0.04 0.50 -0.87 9.78 0.02 0.07 -0.07 17566
0.12 0.07 0.49 -0.81 9.82 0.03 0.07 -0.07 17573
0.15 0.03 0.53 -0.81 9.83 0.03 0.07 -0.07 17581
0.16 0.00 0.52 -0.85 9.82 0.03 0.07 -0.08 17588
0.16 -0.02 0.51 -0.82 9.82 0.03 0.07 -0.07 17595
0.18 -0.02 0.53 -0.87 9.81 0.04 0.07 -0.07 17602
0.18 -0.01 0.53 -0.84 9.83 0.04 0.08 -0.07 17609
0.22 -0.00 0.57 -0.85 9.82 0.05 0.09 -0.07 17616
0.24 -0.02 0.55 -0.86 9.81 0.05 0.09 -0.07 17624
0.22 -0.01 0.51 -0.93 9.82 0.06 0.10 -0.07 17631
0.22 -0.02 0.57 -0.92 9.82 0.07 0.11 -0.07 17638
0.24 -0.02 0.59 -0.90 9.79 0.08 0.12 -0.07 17645
0.24 -0.02 0.58 -0.92 9.82 0.09 0.13 -0.07 17652
0.24 -0.01 0.56 -0.92 9.82 0.10 0.14 -0.07 17659
0.25 -0.02 0.51 -0.84 9.85 0.12 0.16 -0.07 17667
0.24 -0.02 0.57 -0.97 9.82 0.13 0.18 -0.07 17674
0.24 -0.01 0.55 -0.90 9.88 0.15 0.19 -0.07 17681
