Voltage_01 Voltage_02 Acc_x Acc_y Acc_z Gyro_x Gyro_y Gyro_z Time
5000
0.03 -0.00 2.91 -4.28 10.05 -0.03 1.32 1.32 17
0.04 -0.00 2.66 -4.34 9.94 -0.08 1.20 1.34 23
0.05 -0.00 2.55 -4.30 9.83 -0.12 1.04 1.36 29
0.05 -0.00 2.63 -4.28 9.91 -0.15 0.89 1.38 35
0.04 -0.00 2.76 -4.31 9.88 -0.19 0.78 1.40 41
0.05 -0.00 2.99 -4.35 10.02 -0.23 0.70 1.43 48
0.04 -0.00 3.17 -4.39 9.96 -0.28 0.66 1.47 54
0.04 0.00 3.25 -4.40 9.90 -0.32 0.62 1.52 60
0.04 0.01 3.23 -4.39 9.81 -0.36 0.59 1.56 66
0.05 -0.00 3.20 -4.49 9.61 -0.37 0.56 1.59 72
0.04 -0.00 3.16 -4.54 9.52 -0.37 0.53 1.62 78
0.04 -0.00 3.14 -4.63 9.29 -0.35 0.51 1.61 84
0.04 -0.00 3.13 -4.68 9.08 -0.32 0.50 1.59 91
0.04 -0.00 3.15 -4.69 8.99 -0.27 0.49 1.56 97
0.05 0.00 3.33 -4.75 9.10 -0.23 0.53 1.49 103
0.05 -0.01 3.60 -4.91 9.15 -0.19 0.58 1.41 109
0.04 -0.00 3.78 -4.99 9.23 -0.17 0.65 1.30 115
0.04 -0.00 3.96 -5.00 9.37 -0.15 0.71 1.17 121
0.03 -0.00 2.11 -6.88 9.32 -0.15 0.79 1.04 128
0.04 0.00 -5.75 -9.90 16.95 -0.35 0.25 0.52 134
0.05 -0.00 0.47 -2.49 9.58 -0.35 -0.24 0.19 140
0.05 -0.00 1.58 -3.40 9.09 -0.39 0.10 0.17 146
0.04 -0.00 -0.06 -5.82 8.49 -0.60 0.34 -0.03 152
0.03 -0.00 0.66 -5.33 10.05 -0.73 0.46 -0.25 158
0.05 0.00 -0.54 -5.26 10.28 -0.80 0.57 -0.41 165
0.05 -0.00 -0.39 -4.24 9.30 -0.83 0.69 -0.53 172
0.05 -0.00 0.99 -4.80 9.79 -0.82 0.66 -0.70 178
0.04 -0.00 -1.48 -6.14 8.41 -0.84 0.74 -0.76 184
0.04 -0.00 -1.55 -4.57 9.86 -0.91 0.63 -0.83 190
0.05 -0.01 -1.55 -4.82 8.95 -0.90 0.54 -0.91 196
0.05 -0.00 -3.38 -5.07 8.34 -0.90 0.35 -1.01 202
0.04 -0.00 0.04 -4.49 8.67 -0.86 0.06 -1.07 208
0.05 -0.00 0.73 -5.04 8.53 -0.79 0.30 -1.03 215
0.04 -0.00 -2.72 -5.26 7.72 -0.77 0.13 -1.08 221
0.05 0.00 -5.32 -5.15 9.66 -0.66 -0.20 -1.11 227
0.05 -0.01 -8.34 -6.06 11.29 -0.54 -0.80 -1.04 233
0.05 -0.00 -5.17 -5.81 9.39 -0.28 -1.13 -0.75 239
0.04 -0.00 -2.12 -5.26 7.75 -0.20 -1.44 -0.63 245
0.05 0.00 -4.31 -6.50 8.46 -0.05 -1.61 -0.59 251
0.06 -0.01 -6.73 -5.97 10.86 -0.04 -1.92 -0.57 259
0.05 -0.01 -10.06 -6.79 30.10 0.54 -1.57 0.14 265
0.04 0.00 -10.52 -3.72 16.03 0.46 -1.64 0.28 271
0.06 0.02 -9.68 -2.88 9.12 0.13 -1.25 -0.07 277
0.05 0.03 -4.34 -1.87 4.22 -0.29 -0.95 -0.20 283
0.04 0.05 -4.55 -1.55 7.54 -0.37 -0.21 -0.17 289
0.04 0.08 -3.00 -0.17 6.41 -0.23 0.37 -0.18 295
0.05 0.09 -1.21 1.04 6.63 -0.06 1.13 -0.00 302
0.05 0.06 -0.42 0.42 14.27 -0.31 1.53 0.17 309
0.03 0.07 3.63 -1.01 15.37 -0.38 0.13 0.20 315
0.04 0.09 1.29 -1.64 9.77 -0.21 -0.07 0.11 321
0.05 0.11 1.72 -1.04 10.94 -0.18 -0.06 0.09 327
0.06 0.15 0.89 -0.94 10.27 -0.11 -0.02 0.09 333
0.06 0.14 0.58 -0.84 10.06 -0.05 0.01 0.08 339
0.06 0.24 0.26 -0.85 10.16 -0.04 0.03 0.07 346
0.06 0.24 0.53 -0.76 9.99 -0.05 0.03 0.06 352
0.08 0.22 0.85 -0.90 10.05 -0.04 0.02 0.06 359
0.11 0.26 0.89 -0.93 10.09 -0.02 0.01 0.07 365
0.08 0.27 0.67 -0.81 10.04 -0.02 0.00 0.08 371
0.09 0.24 0.58 -0.77 9.99 -0.02 -0.00 0.08 377
0.10 0.24 0.61 -0.82 10.00 -0.01 -0.01 0.08 384
0.11 0.25 0.70 -0.88 9.99 -0.02 -0.01 0.08 390
0.12 0.24 0.73 -0.88 9.90 -0.02 -0.01 0.08 396
0.11 0.23 0.73 -0.83 9.89 -0.03 -0.02 0.07 402
0.10 0.23 0.73 -0.78 9.88 -0.03 -0.02 0.06 408
0.11 0.25 0.64 -0.82 9.87 -0.04 -0.02 0.06 414
0.16 0.28 0.60 -0.80 9.93 -0.05 -0.03 0.06 421
0.18 0.27 0.57 -0.64 9.83 -0.05 -0.03 0.07 428
0.18 0.29 0.81 -0.55 10.04 -0.04 -0.04 0.07 434
0.17 0.30 0.55 -0.79 10.01 -0.05 -0.04 0.09 440
0.19 0.33 0.57 -0.78 9.96 -0.04 -0.04 0.10 446
0.19 0.29 0.54 -0.75 9.93 -0.04 -0.03 0.11 452
0.18 0.31 0.55 -0.74 9.91 -0.04 -0.02 0.11 458
0.18 0.36 0.60 -0.76 9.92 -0.03 -0.02 0.11 464
0.20 0.41 0.61 -0.77 9.97 -0.04 -0.02 0.11 471
0.22 0.37 0.66 -0.74 9.98 -0.03 -0.02 0.11 477
0.23 0.42 0.65 -0.78 9.96 -0.03 -0.02 0.11 484
0.22 0.34 0.66 -0.75 9.98 -0.03 -0.02 0.10 490
0.23 0.38 0.66 -0.78 9.98 -0.03 -0.03 0.10 496
0.25 0.35 0.68 -0.78 10.00 -0.03 -0.03 0.10 502
0.24 0.38 0.68 -0.74 9.98 -0.03 -0.04 0.10 508
0.22 0.40 0.67 -0.75 9.91 -0.03 -0.05 0.10 515
0.23 0.42 0.61 -0.74 9.93 -0.03 -0.05 0.10 521
0.23 0.43 0.62 -0.74 9.94 -0.03 -0.06 0.09 527
0.24 0.45 0.03 -0.75 9.96 -0.03 -0.06 0.10 533
0.25 0.48 0.62 -0.73 9.97 -0.03 -0.06 0.10 539
0.26 0.51 0.63 -0.72 9.99 -0.03 -0.06 0.09 546
0.28 0.51 0.60 -0.77 9.95 -0.03 -0.06 0.10 552
0.28 0.53 0.62 -0.73 9.99 -0.03 -0.06 0.10 559
0.27 0.56 0.61 -0.74 9.98 -0.02 -0.06 0.10 565
0.28 0.59 0.65 -0.72 9.97 -0.02 -0.06 0.10 571
0.30 0.59 0.64 -0.69 10.00 -0.02 -0.06 0.09 577
0.30 0.62 0.62 -0.70 9.98 -0.03 -0.07 0.09 583
0.31 0.62 0.60 -0.71 9.99 -0.03 -0.07 0.09 589
0.31 0.62 0.64 -0.73 9.94 -0.03 -0.07 0.09 595
0.33 0.67 0.59 -0.69 9.97 -0.03 -0.07 0.08 602
0.32 0.68 0.00 -0.70 9.98 -0.03 -0.07 0.09 608
0.32 0.69 0.60 -0.70 10.01 -0.03 -0.07 0.08 615
0.31 0.71 0.62 -0.72 9.98 -0.02 -0.07 0.09 621
0.32 0.74 0.58 -0.75 9.98 -0.02 -0.07 0.09 627
0.32 0.73 0.61 -0.69 9.94 -0.02 -0.07 0.08 633
0.32 0.75 0.58 -0.70 9.96 -0.02 -0.07 0.09 640
0.32 0.72 0.00 -0.71 9.88 -0.01 -0.06 0.09 646
0.33 0.73 0.60 -0.69 10.01 -0.01 -0.06 0.09 652
0.33 0.73 0.61 -0.68 9.96 -0.01 -0.06 0.09 658
0.35 0.72 0.57 -0.71 9.98 -0.01 -0.05 0.09 664
0.35 0.71 0.54 -0.71 9.97 -0.01 -0.05 0.10 670
0.37 0.72 0.58 -0.73 9.95 -0.00 -0.04 0.09 677
0.38 0.69 0.60 -0.69 9.95 -0.00 -0.04 0.10 684
0.38 0.69 0.55 -0.74 9.99 0.00 -0.04 0.10 690
0.38 0.69 0.60 -0.74 9.95 0.00 -0.04 0.10 696
0.39 0.69 0.59 -0.73 9.97 -0.00 -0.04 0.10 702
0.40 0.68 0.59 -0.69 9.94 -0.00 -0.03 0.09 708
0.39 0.68 0.53 -0.70 9.92 -0.00 -0.03 0.10 714
0.37 0.67 0.61 -0.72 9.93 0.00 -0.03 0.09 720
0.38 0.66 0.57 -0.74 9.95 -0.00 -0.03 0.10 727
0.37 0.66 0.59 -0.73 9.93 0.00 -0.02 0.09 733
0.38 0.63 0.55 -0.71 9.97 -0.01 -0.02 0.10 739
0.36 0.62 0.59 -0.74 9.92 -0.00 -0.02 0.10 745
0.35 0.62 0.60 -0.72 9.98 -0.01 -0.02 0.10 752
0.35 0.63 0.63 -0.70 9.99 -0.00 -0.02 0.07 758
0.36 0.63 0.63 -0.71 9.95 -0.00 -0.02 0.09 764
0.34 0.62 0.57 -0.69 9.97 -0.00 -0.02 0.10 771
0.33 0.59 0.63 -0.73 9.97 -0.00 -0.02 0.09 777
0.33 0.59 0.58 -0.70 9.95 -0.01 -0.02 0.09 783
0.32 0.60 0.62 -0.71 9.97 -0.00 -0.02 0.09 789
0.32 0.62 0.60 -0.70 9.90 -0.00 -0.02 0.09 795
0.31 0.59 0.60 -0.70 9.96 0.00 -0.02 0.10 801
0.29 0.61 0.62 -0.74 9.95 -0.00 -0.02 0.09 807
0.30 0.63 0.61 -0.73 9.92 -0.00 -0.02 0.09 814
0.29 0.61 0.64 -0.73 9.94 -0.01 -0.02 0.09 820
0.29 0.59 0.59 -0.71 9.93 -0.00 -0.02 0.08 826
0.28 0.58 0.62 -0.72 9.95 -0.01 -0.02 0.09 833
0.27 0.56 0.60 -0.72 9.95 -0.01 -0.02 0.09 839
0.28 0.54 0.61 -0.72 9.95 -0.00 -0.02 0.09 845
0.27 0.55 0.61 -0.71 9.96 -0.00 -0.02 0.09 851
0.27 0.52 0.62 -0.72 9.97 -0.00 -0.02 0.09 858
0.26 0.52 0.62 -0.69 10.01 -0.00 -0.02 0.09 864
0.26 0.51 0.65 -0.70 9.98 -0.00 -0.02 0.09 870
0.26 0.50 0.58 -0.75 9.94 -0.00 -0.02 0.09 876
0.28 0.48 0.64 -0.72 9.98 -0.00 -0.02 0.09 882
0.26 0.48 0.65 -0.72 9.95 -0.00 -0.02 0.10 888
0.26 0.49 0.64 -0.70 9.98 0.00 -0.02 0.09 894
0.27 0.44 0.59 -0.70 9.97 0.00 -0.02 0.10 902
0.25 0.44 0.61 -0.73 9.92 -0.00 -0.02 0.10 908
0.25 0.43 0.60 -0.72 9.92 0.00 -0.01 0.09 914
0.26 0.43 0.61 -0.70 9.91 -0.00 -0.01 0.09 920
0.27 0.42 1.22 -0.71 9.92 -0.00 -0.00 0.10 926
0.26 0.42 0.59 -0.70 9.99 0.00 -0.01 0.13 932
0.26 0.41 0.66 -0.72 9.98 0.00 0.00 0.10 939
0.24 0.42 0.66 -0.70 9.93 0.01 0.00 0.10 945
0.24 0.43 0.63 -0.74 9.95 0.01 0.00 0.10 951
0.25 0.43 0.66 -0.74 9.94 0.01 -0.00 0.10 957
0.25 0.42 0.63 -0.72 9.94 0.01 0.00 0.10 963
0.25 0.44 0.63 -0.69 9.88 0.01 -0.00 0.10 969
0.26 0.42 0.66 -0.74 9.96 0.01 -0.00 0.10 975
0.27 0.39 0.63 -0.72 9.92 0.00 0.00 0.09 983
0.25 0.38 0.65 -0.74 9.97 0.00 0.00 0.09 989
0.24 0.35 0.68 -0.73 9.99 0.00 0.01 0.10 995
0.23 0.33 0.64 -0.71 9.95 0.00 0.01 0.10 1001
0.24 0.31 0.67 -0.72 9.94 0.00 0.01 0.10 1007
0.23 0.32 0.69 -0.73 9.93 0.00 0.01 0.10 1013
0.24 0.29 0.71 -0.74 9.97 0.00 0.01 0.10 1019
0.24 0.27 0.72 -0.75 9.94 0.01 0.01 0.10 1026
0.23 0.27 0.73 -0.74 9.96 0.01 0.01 0.10 1032
0.23 0.23 0.73 -0.74 9.93 0.01 0.01 0.10 1039
0.21 0.24 0.74 -0.76 9.92 0.00 0.00 0.10 1045
0.23 0.26 0.70 -0.75 9.93 0.00 0.01 0.09 1051
0.24 0.21 0.72 -0.70 9.94 0.00 0.01 0.09 1057
0.24 0.19 0.72 -0.72 9.93 0.00 0.01 0.10 1063
0.22 0.21 0.71 -0.74 9.94 0.00 0.01 0.10 1070
0.23 0.19 0.72 -0.72 9.96 0.00 0.01 0.10 1076
0.21 0.17 0.69 -0.76 9.98 0.00 0.02 0.09 1082
0.19 0.19 0.72 -0.79 9.92 0.01 0.02 0.10 1089
0.19 0.16 0.70 -0.75 9.92 0.00 0.02 0.10 1095
0.20 0.15 0.73 -0.75 9.95 0.00 0.02 0.10 1101
0.20 0.11 0.74 -0.72 9.93 0.00 0.02 0.09 1107
0.19 0.10 0.75 -0.74 9.96 0.00 0.01 0.09 1114
0.19 0.12 0.76 -0.78 9.92 0.00 0.01 0.09 1120
0.20 0.08 0.73 -0.73 9.95 -0.00 0.01 0.09 1126
0.22 0.08 0.74 -0.74 9.96 0.00 0.01 0.09 1132
0.22 0.10 0.74 -0.73 9.92 0.00 0.01 0.09 1139
0.24 0.10 0.75 -0.74 9.99 -0.00 0.01 0.09 1145
0.23 0.11 0.76 -0.75 9.92 -0.00 0.00 0.09 1152
0.21 0.10 0.78 -0.77 9.91 0.00 0.00 0.09 1158
0.21 0.10 0.75 -0.73 9.92 -0.00 0.00 0.09 1164
0.20 0.09 0.81 -0.76 9.89 -0.00 -0.00 0.08 1170
0.18 0.07 0.77 -0.76 9.92 0.00 -0.01 0.08 1176
0.17 0.07 0.76 -0.77 9.93 -0.00 -0.01 0.08 1182
0.19 0.10 0.79 -0.74 9.89 -0.01 -0.02 0.08 1189
0.19 0.07 0.76 -0.72 9.90 -0.01 -0.02 0.08 1196
0.17 0.06 0.74 -0.76 9.93 -0.01 -0.03 0.08 1202
0.16 0.09 0.76 -0.76 9.94 -0.01 -0.03 0.08 1208
0.18 0.08 0.79 -0.72 9.92 -0.00 -0.02 0.08 1214
0.16 0.08 0.78 -0.76 9.97 -0.00 -0.02 0.08 1220
0.15 0.09 0.78 -0.77 9.93 -0.00 -0.02 0.08 1226
0.16 0.09 0.80 -0.75 9.96 -0.00 -0.02 0.08 1233
0.16 0.10 0.79 -0.76 9.94 0.00 -0.02 0.08 1240
0.16 0.06 0.77 -0.77 9.93 0.00 -0.03 0.08 1246
0.15 0.07 0.82 -0.79 9.93 0.00 -0.03 0.07 1252
0.17 0.07 0.80 -0.77 9.96 0.00 -0.03 0.07 1258
0.17 0.07 0.78 -0.77 9.92 -0.00 -0.03 0.08 1264
0.17 0.07 0.77 -0.78 9.93 0.00 -0.03 0.07 1270
0.17 0.05 0.78 -0.76 9.94 -0.01 -0.03 0.07 1276
0.18 0.06 0.78 -0.77 9.93 -0.00 -0.02 0.08 1283
0.16 0.06 0.80 -0.78 9.91 -0.00 -0.02 0.08 1290
0.15 0.06 0.80 -0.79 9.91 -0.00 -0.02 0.08 1296
0.15 0.09 0.78 -0.76 9.94 -0.00 -0.02 0.08 1302
0.16 0.07 0.82 -0.75 9.87 -0.01 -0.02 0.08 1308
0.15 0.07 0.78 -0.80 9.94 -0.01 -0.02 0.08 1314
0.13 0.06 0.80 -0.76 9.93 -0.01 -0.02 0.08 1320
0.15 0.08 0.79 -0.75 9.94 -0.01 -0.03 0.08 1327
0.15 0.05 0.75 -0.75 9.93 -0.01 -0.03 0.08 1334
0.15 0.04 0.80 -0.78 9.93 -0.01 -0.02 0.08 1340
0.14 0.06 0.76 -0.77 9.98 -0.01 -0.02 0.08 1346
0.15 0.06 0.83 -0.77 9.94 -0.01 -0.02 0.09 1352
0.14 0.05 0.80 -0.74 9.89 -0.01 -0.02 0.09 1358
0.13 0.05 0.80 -0.74 9.91 -0.01 -0.02 0.09 1364
0.13 0.06 0.80 -0.76 9.93 -0.01 -0.02 0.09 1371
0.14 0.04 0.83 -0.78 9.94 -0.01 -0.02 0.09 1377
0.13 0.04 0.81 -0.80 9.93 -0.01 -0.02 0.09 1384
0.13 0.04 0.81 -0.75 9.94 -0.00 -0.01 0.09 1390
0.14 0.07 0.85 -0.79 9.96 -0.00 -0.01 0.09 1396
0.14 0.06 0.87 -0.83 9.90 -0.01 -0.01 0.08 1402
0.13 0.07 0.80 -0.79 9.93 -0.01 -0.00 0.08 1409
0.14 0.05 0.85 -0.83 9.93 -0.00 -0.00 0.09 1415
0.15 0.02 0.88 -0.76 9.96 -0.00 -0.01 0.09 1421
0.13 0.03 0.87 -0.79 9.95 0.01 -0.01 0.08 1427
0.13 0.02 0.88 -0.70 9.94 0.01 -0.02 0.08 1434
0.14 0.02 0.84 -0.74 9.94 0.01 -0.03 0.08 1440
0.15 0.04 0.89 -0.78 9.93 0.01 -0.04 0.08 1446
0.14 0.01 0.84 -0.75 9.97 0.02 -0.04 0.07 1453
0.14 0.02 0.89 -0.84 9.98 0.02 -0.04 0.06 1459
0.15 0.03 0.89 -0.80 9.92 0.02 -0.04 0.06 1465
0.14 -0.01 0.94 -0.79 9.92 0.03 -0.04 0.05 1471
0.13 -0.00 0.89 -0.80 9.98 0.02 -0.04 0.04 1478
0.15 -0.00 0.90 -0.83 9.98 0.03 -0.03 0.03 1484
0.15 -0.02 0.79 -0.84 10.01 0.03 -0.03 0.04 1490
0.16 -0.02 0.91 -0.76 9.95 0.04 -0.03 0.03 1497
0.15 -0.01 0.89 -0.82 10.01 0.03 -0.03 0.03 1503
0.17 0.00 0.96 -0.85 9.93 0.05 -0.03 0.03 1509
0.17 -0.02 0.90 -0.86 9.97 0.06 -0.02 0.02 1515
0.17 -0.02 0.60 -0.83 10.08 0.06 -0.01 0.02 1521
0.16 0.00 0.79 -0.86 10.09 0.08 0.00 0.02 1527
0.17 0.00 1.03 -0.77 10.10 0.10 0.03 0.01 1534
0.17 -0.01 0.94 -0.86 10.10 0.13 0.06 0.01 1541
0.16 -0.01 0.73 -0.89 9.91 0.21 0.14 -0.01 1547
0.16 0.01 0.97 -0.90 10.50 0.27 0.20 -0.02 1553
0.16 0.00 1.02 -0.91 10.00 0.39 0.25 -0.02 1559
0.15 -0.00 0.93 -1.03 10.19 0.48 0.33 -0.03 1566
0.18 -0.00 1.20 -1.00 10.31 0.55 0.40 -0.03 1572
0.19 -0.01 0.94 -1.07 10.58 0.64 0.43 -0.04 1579
0.17 -0.01 1.15 -1.18 10.69 0.74 0.45 -0.04 1585
0.16 -0.01 1.22 -1.31 10.96 0.82 0.47 -0.06 1591
0.12 -0.01 1.07 -1.26 10.79 0.87 0.42 -0.07 1598
0.10 -0.01 1.26 -1.45 10.98 0.90 0.37 -0.08 1604
0.12 -0.00 1.13 -1.40 11.11 0.94 0.34 -0.11 1610
0.08 -0.01 1.41 -1.72 11.05 0.97 0.31 -0.12 1616
0.06 -0.00 1.12 -1.50 10.89 0.99 0.31 -0.12 1623
0.09 0.00 1.27 -1.43 11.30 1.04 0.33 -0.12 1630
0.07 -0.01 1.07 -1.63 11.37 1.08 0.37 -0.12 1636
0.07 -0.00 1.29 -1.86 11.38 1.13 0.42 -0.13 1642
0.07 0.00 1.65 -1.57 11.63 1.16 0.50 -0.13 1648
0.07 -0.01 1.51 -1.34 11.03 1.20 0.59 -0.13 1654
0.06 0.00 1.47 -1.85 11.45 1.22 0.66 -0.14 1660
0.10 0.00 1.45 -2.19 11.33 1.25 0.74 -0.13 1668
0.06 -0.01 1.86 -1.75 10.90 1.27 0.79 -0.12 1674
0.08 0.00 1.46 -2.35 11.17 1.29 0.82 -0.10 1680
0.07 0.00 1.71 -2.44 10.98 1.29 0.87 -0.08 1686
0.05 -0.01 1.59 -2.38 10.65 1.28 0.93 -0.06 1692
0.06 0.01 1.91 -3.36 11.01 1.25 0.97 -0.04 1699
0.08 0.00 1.39 -2.54 10.92 1.24 1.04 -0.02 1705
0.06 -0.01 1.16 -3.20 11.41 1.21 1.07 -0.00 1712
0.06 -0.00 1.59 -3.55 12.19 1.15 1.11 0.05 1718
0.06 0.00 1.97 -3.38 11.80 1.10 1.21 0.07 1724
0.05 -0.01 1.96 -3.04 11.35 1.04 1.37 0.08 1731
0.05 -0.01 1.67 -3.02 11.16 0.96 1.52 0.08 1737
0.06 -0.01 1.28 -3.25 11.16 0.90 1.62 0.07 1743
0.06 -0.01 0.49 -3.19 10.97 0.89 1.69 0.07 1750
0.04 -0.00 -0.50 -3.26 10.78 0.88 1.67 0.08 1756
0.06 -0.01 -2.44 -3.24 10.30 0.93 1.59 0.05 1762
0.06 -0.01 -5.20 -2.66 10.18 0.97 1.39 -0.09 1768
0.05 -0.00 -6.82 -2.37 10.05 0.99 0.98 -0.38 1775
0.05 0.00 -6.90 -2.22 9.49 0.97 0.46 -0.62 1781
0.06 -0.01 -8.29 -1.73 10.01 0.91 0.03 -0.89 1787
0.06 -0.01 -8.53 -1.16 10.07 0.79 -0.45 -1.25 1794
0.05 -0.01 -6.81 -0.88 9.73 0.65 -1.00 -1.57 1800
0.06 -0.01 -7.54 -1.01 10.45 0.52 -1.36 -1.85 1806
0.05 -0.01 -5.20 -1.21 10.39 0.42 -1.63 -2.11 1812
0.05 -0.01 -5.23 -0.95 11.25 0.32 -1.89 -2.29 1819
0.06 -0.01 -4.59 -0.87 11.82 0.21 -2.01 -2.46 1825
0.05 -0.01 -3.71 -0.85 11.83 0.15 -2.07 -2.61 1831
0.02 -0.00 -1.05 -0.98 11.30 0.07 -2.03 -2.67 1838
0.05 0.00 -1.63 -0.79 11.50 -0.02 -1.95 -2.70 1844
0.06 -0.01 -0.44 -0.50 11.57 -0.15 -1.80 -2.78 1851
0.04 -0.00 -1.68 -0.78 12.45 -0.26 -1.65 -2.84 1857
0.05 0.00 -1.01 -0.38 11.75 -0.36 -1.49 -2.90 1863
0.05 -0.01 0.62 -0.46 9.35 -0.43 -1.32 -2.95 1869
0.06 -0.01 0.88 -0.44 9.73 -0.55 -1.21 -2.95 1875
0.05 -0.00 0.78 -0.21 9.89 -0.69 -1.15 -2.92 1882
0.07 -0.01 1.06 -0.27 9.99 -0.79 -1.15 -2.88 1888
0.04 -0.00 1.40 -0.54 10.07 -0.88 -1.18 -2.80 1895
0.03 -0.00 1.51 -0.89 10.11 -0.94 -1.26 -2.70 1901
0.05 -0.00 1.70 -1.06 9.76 -0.96 -1.34 -2.60 1907
0.05 -0.01 1.89 -1.21 9.59 -0.95 -1.43 -2.47 1913
0.05 -0.01 2.11 -1.33 9.28 -0.91 -1.51 -2.33 1920
0.05 -0.01 2.33 -1.46 9.10 -0.85 -1.59 -2.18 1926
0.07 -0.01 2.52 -1.54 8.97 -0.77 -1.65 -2.01 1932
0.05 -0.01 2.58 -1.72 8.84 -0.69 -1.69 -1.84 1938
0.04 -0.00 2.72 -1.85 8.85 -0.58 -1.71 -1.66 1945
0.05 0.00 2.88 -1.95 9.13 -0.49 -1.73 -1.49 1951
0.06 -0.01 3.35 -1.94 9.79 -0.41 -1.72 -1.35 1957
0.06 -0.01 3.69 -1.84 9.98 -0.36 -1.68 -1.19 1964
0.04 -0.00 3.90 -1.78 10.03 -0.35 -1.60 -1.03 1970
0.06 -0.01 4.05 -1.71 10.09 -0.36 -1.51 -0.86 1976
0.06 -0.01 4.13 -1.76 10.01 -0.37 -1.40 -0.69 1982
0.04 -0.00 4.19 -1.85 9.88 -0.39 -1.33 -0.53 1989
0.05 0.00 4.26 -1.99 9.85 -0.41 -1.26 -0.38 1995
0.05 -0.01 4.33 -2.19 9.83 -0.41 -1.20 -0.23 2001
0.05 -0.01 4.55 -2.32 9.88 -0.41 -1.14 -0.08 2008
0.05 -0.01 4.69 -2.34 10.05 -0.40 -1.04 0.00 2014
0.07 -0.01 5.14 -2.31 10.76 -0.42 -0.90 0.12 2020
0.06 -0.01 5.60 -2.19 11.37 -0.50 -0.67 0.23 2026
0.05 -0.01 5.95 -1.99 11.64 -0.64 -0.37 0.35 2033
0.07 -0.00 5.86 -1.90 11.63 -0.82 -0.06 0.47 2039
0.06 -0.01 5.61 -1.94 11.31 -0.99 0.24 0.59 2045
0.06 -0.01 5.26 -2.38 11.42 -1.15 0.47 0.72 2052
0.07 -0.00 4.80 -2.79 11.00 -1.27 0.61 0.84 2058
0.07 -0.01 4.31 -3.24 10.60 -1.32 0.72 0.97 2065
0.06 -0.01 3.93 -3.51 10.04 -1.30 0.80 1.08 2071
0.07 0.00 3.49 -3.74 9.70 -1.25 0.82 1.20 2077
0.07 -0.01 3.11 -3.90 9.35 -1.16 0.81 1.31 2083
0.07 -0.01 2.78 -4.08 9.25 -1.07 0.77 1.41 2089
0.06 -0.01 2.57 -4.13 9.22 -0.94 0.72 1.50 2096
0.06 -0.00 2.47 -4.23 9.24 -0.88 0.65 1.57 2102
0.06 -0.01 2.38 -4.24 9.21 -0.79 0.59 1.62 2108
0.06 -0.01 2.44 -4.21 9.15 -0.71 0.53 1.65 2115
0.06 -0.01 2.56 -4.13 9.09 -0.63 0.49 1.67 2121
0.07 -0.00 2.69 -4.15 9.07 -0.55 0.48 1.67 2127
0.06 -0.01 2.87 -4.22 8.98 -0.46 0.51 1.65 2134
0.05 -0.01 2.96 -4.30 8.97 -0.37 0.57 1.62 2140
0.06 0.00 2.97 -4.33 9.03 -0.29 0.65 1.58 2146
0.07 -0.01 2.96 -4.41 9.11 -0.19 0.76 1.54 2152
0.06 -0.01 2.87 -4.43 9.19 -0.10 0.82 1.49 2158
0.05 -0.01 2.73 -4.47 9.48 -0.01 0.90 1.44 2164
0.07 -0.00 2.62 -4.46 10.05 0.04 0.96 1.39 2171
0.07 -0.01 2.42 -4.27 10.50 0.05 1.00 1.34 2178
0.06 -0.01 2.29 -4.06 10.69 0.01 1.02 1.30 2184
0.07 -0.01 2.16 -3.89 10.84 -0.09 1.02 1.27 2190
0.07 -0.01 2.15 -3.78 10.89 -0.17 1.00 1.24 2196
0.06 -0.01 2.14 -3.70 10.79 -0.29 0.99 1.21 2202
0.06 -0.01 2.10 -3.75 10.78 -0.42 0.97 1.19 2209
0.08 -0.01 2.11 -3.89 10.62 -0.53 0.95 1.17 2215
0.06 -0.01 2.06 -4.08 10.51 -0.62 0.94 1.13 2222
0.04 -0.00 1.99 -4.23 10.48 -0.67 0.94 1.10 2228
0.06 -0.01 1.92 -4.32 10.43 -0.71 0.93 1.06 2234
0.05 -0.01 1.81 -4.33 10.34 -0.74 0.92 1.02 2240
0.04 -0.00 1.65 -4.33 10.17 -0.76 0.91 0.98 2247
0.05 -0.00 1.54 -4.29 10.10 -0.78 0.89 0.94 2253
0.05 -0.00 1.60 -4.26 9.92 -0.78 0.89 0.92 2259
0.05 -0.01 1.46 -4.34 9.81 -0.79 0.91 0.91 2266
0.05 -0.01 1.32 -4.51 9.81 -0.78 0.94 0.92 2272
0.07 -0.01 1.15 -4.76 9.88 -0.76 0.95 0.94 2278
0.06 -0.01 0.97 -4.97 10.04 -0.73 0.91 0.97 2284
0.05 -0.01 0.85 -5.13 10.06 -0.67 0.82 0.99 2290
0.06 -0.01 0.79 -5.15 9.87 -0.63 0.72 1.02 2297
0.06 -0.01 0.83 -5.24 9.75 -0.57 0.62 1.04 2304
0.05 -0.01 0.88 -5.28 9.93 -0.53 0.55 1.06 2310
0.05 -0.00 0.99 -5.36 10.14 -0.51 0.49 1.07 2316
0.06 0.01 1.00 -5.38 10.27 -0.52 0.47 1.09 2322
0.06 -0.01 0.95 -5.45 10.35 -0.54 0.50 1.09 2328
0.05 -0.01 0.92 -5.65 10.34 -0.57 0.55 1.08 2334
0.06 0.01 0.81 -5.89 10.29 -0.60 0.61 1.05 2341
0.06 -0.00 0.72 -6.17 10.09 -0.62 0.66 1.00 2348
0.05 -0.01 0.63 -6.30 9.82 -0.63 0.71 0.95 2354
0.06 -0.00 0.48 -6.52 9.50 -0.61 0.76 0.88 2360
0.07 -0.00 0.34 -6.65 9.10 -0.57 0.83 0.80 2366
0.05 -0.00 0.18 -6.71 8.87 -0.50 0.83 0.72 2372
0.05 -0.00 0.06 -6.81 8.71 -0.42 0.84 0.64 2378
0.06 0.01 -0.04 -6.90 8.55 -0.33 0.84 0.55 2385
0.06 -0.01 -0.11 -6.96 8.51 -0.24 0.82 0.45 2392
0.05 -0.01 -0.14 -6.96 8.53 -0.15 0.80 0.35 2398
0.05 -0.01 -8.05 -6.32 10.25 0.06 -1.07 0.18 2404
0.07 -0.00 0.74 -4.56 4.58 0.11 -0.97 0.18 2410
0.06 -0.01 -8.41 -8.69 9.35 0.05 -1.29 0.19 2416
0.05 -0.00 -4.99 -7.24 8.34 0.05 -1.69 0.20 2422
0.06 -0.01 -6.86 -7.93 9.12 0.12 -2.00 0.21 2428
0.07 -0.01 -4.25 -7.05 9.28 0.17 -2.15 0.14 2436
0.06 -0.01 -13.30 -9.74 12.93 0.01 -2.41 -0.03 2442
0.06 -0.01 -17.94 -7.61 28.30 0.51 -1.79 0.12 2448
0.07 -0.01 -7.04 -3.36 21.50 0.52 -1.46 -0.14 2454
0.05 -0.01 -3.62 -1.54 2.45 0.07 -0.93 -0.39 2460
0.04 -0.00 -3.31 -1.96 6.46 -0.28 -0.09 -0.25 2466
0.05 0.00 -1.11 -0.13 9.57 -0.27 0.52 -0.15 2473
0.06 -0.00 -0.36 -0.28 9.43 -0.26 0.75 -0.06 2480
0.05 0.00 -0.02 -0.26 10.69 -0.39 0.80 0.10 2486
0.05 0.03 2.18 -1.12 14.31 -0.49 0.50 0.19 2492
0.06 0.04 1.47 -1.02 10.06 -0.24 0.03 0.14 2498
0.04 0.08 0.82 -0.83 9.97 -0.15 -0.00 0.10 2504
0.06 0.16 0.51 -0.95 9.87 -0.12 0.01 0.10 2511
0.05 0.24 0.60 -0.90 10.18 -0.11 0.04 0.10 2518
0.04 0.34 0.79 -0.80 10.06 -0.10 0.07 0.11 2524
0.04 0.42 1.17 -0.95 10.20 -0.09 0.08 0.11 2530
0.04 0.47 0.85 -0.96 10.17 -0.08 0.07 0.11 2536
0.03 0.58 0.86 -0.90 10.08 -0.07 0.06 0.10 2542
0.04 0.55 0.85 -0.78 10.05 -0.05 0.05 0.10 2549
0.04 0.60 0.76 -0.74 10.01 -0.04 0.04 0.10 2555
0.03 0.58 0.76 -0.74 9.96 -0.04 0.03 0.09 2562
0.02 0.64 0.74 -0.78 9.98 -0.04 0.03 0.08 2568
0.02 0.69 0.82 -0.81 9.94 -0.04 0.02 0.09 2574
0.03 0.71 0.82 -0.82 9.95 -0.04 0.01 0.09 2580
0.03 0.73 0.72 -0.70 9.93 -0.04 0.01 0.09 2587
0.02 0.81 0.82 -0.75 9.87 -0.05 0.01 0.09 2593
0.02 0.82 0.78 -0.77 9.94 -0.05 0.00 0.09 2599
0.01 0.86 0.80 -0.70 9.34 -0.04 -0.00 0.08 2606
0.01 0.96 0.77 -0.73 9.99 -0.04 -0.01 0.08 2612
0.01 1.02 0.78 -0.70 9.94 -0.04 -0.02 0.08 2618
0.01 1.01 0.71 -0.68 9.95 -0.03 -0.02 0.08 2624
0.01 1.07 0.69 -0.74 10.00 -0.03 -0.02 0.09 2630
0.01 1.09 0.67 -0.73 9.99 -0.03 -0.02 0.09 2637
0.02 1.09 0.73 -0.74 9.92 -0.02 -0.02 0.10 2643
0.00 1.08 0.68 -0.69 10.01 -0.02 -0.01 0.10 2650
-0.00 1.10 0.72 -0.69 9.94 -0.02 -0.01 0.11 2656
0.01 1.13 0.73 -0.71 9.95 -0.02 -0.00 0.12 2662
-0.00 1.18 0.76 -0.70 9.97 -0.01 -0.01 0.12 2668
-0.00 1.18 0.79 -0.68 9.95 -0.01 -0.00 0.12 2675
0.01 1.17 0.80 -0.68 9.95 -0.01 -0.01 0.12 2681
0.02 1.19 0.76 -0.72 9.96 -0.01 -0.02 0.11 2688
0.02 1.17 0.77 -0.71 9.93 -0.02 -0.02 0.12 2694
0.02 1.18 0.75 -0.71 9.99 -0.01 -0.03 0.12 2700
0.03 1.19 0.75 -0.71 9.94 -0.02 -0.03 0.11 2706
0.02 1.17 0.73 -0.73 9.90 -0.02 -0.03 0.11 2712
0.02 1.23 0.75 -0.68 9.93 -0.02 -0.04 0.10 2719
0.03 1.26 0.77 -0.67 9.93 -0.02 -0.04 0.10 2725
0.03 1.26 0.77 -0.68 9.96 -0.02 -0.05 0.09 2732
0.02 1.23 0.80 -0.66 9.97 -0.02 -0.05 0.10 2738
0.03 1.26 0.74 -0.71 9.95 -0.01 -0.05 0.10 2744
0.04 1.28 0.74 -0.66 9.95 -0.01 -0.06 0.10 2750
0.02 1.30 0.74 -0.66 10.01 -0.01 -0.05 0.10 2757
0.02 1.32 0.74 -0.68 9.96 -0.01 -0.05 0.10 2763
0.05 1.31 0.72 -0.62 9.91 -0.01 -0.05 0.10 2769
0.05 1.29 0.71 -0.66 9.93 -0.01 -0.05 0.10 2776
0.03 1.27 0.73 -0.68 9.97 -0.01 -0.04 0.10 2782
0.04 1.27 0.72 -0.68 9.95 -0.01 -0.04 0.09 2788
0.05 1.27 0.74 -0.72 9.98 -0.00 -0.04 0.10 2794
0.05 1.26 0.72 -0.72 9.96 -0.01 -0.04 0.10 2801
0.06 1.28 0.74 -0.71 9.99 -0.01 -0.00 0.09 2807
0.06 1.26 0.73 -0.69 9.99 -0.01 -0.03 0.10 2813
0.06 1.26 0.75 -0.66 10.00 -0.01 -0.03 0.10 2820
0.06 1.27 0.74 -0.68 9.92 -0.01 -0.03 0.09 2826
0.07 1.27 0.72 -0.67 9.92 -0.00 -0.03 0.10 2832
0.03 1.25 0.74 -0.67 9.95 -0.00 -0.03 0.09 2838
0.03 1.25 0.74 -0.69 9.92 -0.01 -0.03 0.09 2845
0.04 1.25 0.70 -0.69 9.98 -0.01 -0.03 0.09 2851
0.05 1.25 0.71 -0.63 9.99 -0.00 -0.03 0.10 2857
0.06 1.24 0.74 -0.68 9.96 -0.00 -0.06 0.09 2864
0.05 1.25 0.74 -0.66 9.91 -0.00 -0.03 0.09 2870
0.07 1.23 0.72 -0.68 9.94 -0.00 -0.02 0.09 2876
0.06 1.23 0.74 -0.67 9.95 -0.00 -0.02 0.10 2882
0.05 1.23 0.73 -0.64 9.95 -0.01 -0.02 0.10 2889
0.06 1.22 0.70 -0.65 9.95 -0.00 -0.02 0.09 2895
0.06 1.20 0.74 -0.66 9.96 -0.00 -0.01 0.10 2902
0.05 1.18 0.73 -0.64 9.91 -0.00 -0.01 0.09 2908
0.05 1.16 0.76 -0.65 9.92 -0.00 -0.01 0.09 2914
0.07 1.16 0.76 -0.68 9.98 0.00 -0.01 0.09 2920
0.05 1.14 0.77 -0.68 9.94 0.00 -0.01 0.10 2926
0.05 1.13 0.72 -0.66 9.92 0.00 -0.01 0.10 2933
0.06 1.10 0.78 -0.66 9.93 0.00 -0.01 0.09 2939
0.07 1.05 0.78 -0.70 9.96 0.01 -0.01 0.09 2946
0.08 1.02 0.80 -0.72 9.90 0.00 -0.01 0.10 2952
0.09 0.99 0.79 -0.71 9.94 0.00 -0.01 0.09 2958
0.10 0.95 0.78 -0.70 10.00 0.00 -0.01 0.09 2964
0.09 0.94 0.77 -0.67 9.97 -0.00 -0.02 0.09 2970
0.07 0.93 0.80 -0.68 9.92 -0.00 -0.02 0.09 2976
0.08 0.91 0.77 -0.66 9.95 -0.00 -0.02 0.09 2983
0.09 0.89 0.78 -0.68 9.98 -0.00 -0.03 0.09 2990
0.09 0.83 0.76 -0.65 9.95 0.00 -0.03 0.09 2996
0.08 0.82 0.77 -0.67 9.96 -0.00 -0.03 0.09 3002
0.10 0.81 0.78 -0.69 9.99 -0.00 -0.03 0.09 3008
0.10 0.83 0.77 -0.73 10.02 -0.01 -0.03 0.09 3014
0.09 0.81 0.78 -0.67 9.92 -0.01 -0.03 0.10 3020
0.09 0.81 0.74 -0.70 9.98 -0.01 -0.02 0.09 3027
0.09 0.80 0.78 -0.69 9.95 -0.01 -0.02 0.09 3034
0.08 0.80 0.80 -0.68 10.00 -0.01 -0.02 0.10 3040
0.09 0.79 0.75 -0.70 9.96 -0.01 -0.02 0.09 3046
0.11 0.79 0.79 -0.68 9.98 -0.01 -0.02 0.10 3052
0.10 0.79 0.79 -0.69 9.96 -0.01 -0.03 0.09 3058
0.10 0.76 0.78 -0.65 9.95 -0.01 -0.03 0.09 3064
0.10 0.74 0.80 -0.69 9.92 -0.01 -0.02 0.09 3072
0.10 0.75 0.81 -0.68 9.91 -0.01 -0.03 0.09 3078
0.09 0.75 0.79 -0.69 9.97 -0.01 -0.03 0.09 3084
0.09 0.75 0.76 -0.71 9.94 -0.01 -0.03 0.09 3090
0.11 0.76 0.80 -0.69 9.95 -0.01 -0.03 0.10 3096
0.09 0.75 0.79 -0.70 9.97 -0.01 -0.03 0.09 3102
0.09 0.74 0.79 -0.68 9.95 -0.01 -0.03 0.09 3108
0.10 0.73 0.79 -0.72 9.91 -0.01 -0.03 0.09 3116
0.10 0.71 0.79 -0.71 9.94 -0.00 -0.03 0.09 3122
0.08 0.70 0.78 -0.72 9.98 -0.01 -0.03 0.09 3128
0.10 0.73 0.78 -0.71 9.97 -0.00 -0.03 0.11 3134
0.11 0.72 0.80 -0.70 9.98 -0.01 -0.03 0.09 3140
0.10 0.72 0.80 -0.68 9.94 -0.00 -0.03 0.09 3146
0.09 0.72 0.80 -0.67 9.90 -0.00 -0.04 0.10 3152
0.10 0.74 0.79 -0.72 9.91 -0.01 -0.04 0.09 3160
0.10 0.70 0.79 -0.66 9.93 -0.01 -0.04 0.09 3166
0.10 0.67 0.83 -0.68 9.95 -0.01 -0.04 0.09 3172
0.11 0.70 0.81 -0.71 9.93 -0.01 -0.04 0.09 3178
0.12 0.68 0.79 -0.67 9.99 -0.01 -0.04 0.09 3184
0.11 0.68 0.83 -0.68 9.93 -0.01 -0.04 0.09 3190
0.11 0.67 0.76 -0.69 9.94 -0.01 -0.03 0.09 3196
0.12 0.67 0.79 -0.67 9.96 -0.01 -0.03 0.09 3204
0.11 0.69 0.79 -0.72 9.95 -0.01 -0.04 0.10 3210
0.10 0.70 0.77 -0.68 9.91 -0.01 -0.03 0.09 3216
0.11 0.70 0.81 -0.71 9.92 -0.01 -0.03 0.09 3222
0.12 0.69 0.78 -0.69 9.96 -0.01 -0.03 0.09 3228
0.11 0.68 0.76 -0.68 9.92 -0.01 -0.03 0.10 3234
0.10 0.71 0.80 -0.69 9.94 -0.01 -0.02 0.10 3240
0.11 0.70 0.82 -0.67 9.92 -0.01 -0.03 0.10 3248
0.10 0.72 0.80 -0.68 9.96 -0.00 -0.03 0.09 3254
0.08 0.72 0.81 -0.65 9.94 -0.01 -0.02 0.09 3260
0.09 0.73 0.82 -0.68 9.94 -0.01 -0.02 0.09 3266
0.10 0.72 0.80 -0.68 9.86 -0.01 -0.03 0.09 3272
0.09 0.70 0.82 -0.67 9.96 -0.01 -0.03 0.10 3278
0.09 0.70 0.80 -0.67 9.94 -0.01 -0.03 0.10 3284
0.09 0.70 0.80 -0.68 9.92 -0.01 -0.03 0.09 3292
0.09 0.70 0.84 -0.65 9.98 -0.01 -0.03 0.09 3298
0.07 0.68 0.80 -0.68 9.95 -0.00 -0.03 0.10 3304
0.08 0.68 0.78 -0.70 9.98 -0.00 -0.03 0.10 3310
0.08 0.67 0.80 -0.68 9.94 -0.01 -0.04 0.10 3316
0.08 0.66 0.81 -0.69 9.90 -0.01 -0.04 0.10 3322
0.08 0.63 0.81 -0.68 9.90 -0.01 -0.04 0.07 3329
0.09 0.64 0.81 -0.69 9.89 -0.01 -0.04 0.10 3335
0.09 0.65 0.81 -0.67 9.93 -0.01 -0.04 0.10 3342
0.08 0.62 0.80 -0.67 9.97 -0.01 -0.04 0.10 3348
0.09 0.63 0.80 -0.68 9.95 -0.01 -0.04 0.09 3354
0.10 0.63 0.84 -0.66 9.97 -0.00 -0.03 0.10 3360
0.09 0.63 0.82 -0.67 9.96 -0.01 -0.03 0.10 3366
0.08 0.65 0.78 -0.69 9.93 -0.00 -0.04 0.09 3373
0.09 0.65 0.81 -0.66 9.95 -0.00 -0.03 0.10 3379
0.09 0.62 0.81 -0.65 9.94 -0.01 -0.04 0.10 3386
0.09 0.62 0.81 -0.68 9.94 -0.00 -0.04 0.10 3392
0.09 0.61 0.85 -0.71 9.98 -0.00 -0.05 0.10 3398
0.10 0.59 0.84 -0.68 9.95 -0.00 -0.04 0.10 3404
0.09 0.61 0.83 -0.69 9.92 -0.01 -0.04 0.09 3410
0.08 0.64 0.82 -0.68 9.92 -0.00 -0.04 0.09 3417
0.09 0.64 0.82 -0.69 9.94 -0.01 -0.04 0.09 3423
0.09 0.59 0.78 -0.68 9.93 -0.00 -0.04 0.10 3430
0.09 0.59 0.82 -0.69 9.97 -0.01 -0.04 0.09 3436
0.10 0.57 0.80 -0.69 9.96 -0.00 -0.03 0.09 3442
0.11 0.59 0.78 -0.69 9.97 -0.00 -0.03 0.10 3448
0.09 0.57 0.81 -0.69 9.93 -0.00 -0.03 0.10 3454
0.09 0.57 0.83 -0.69 9.92 -0.00 -0.03 0.09 3461
0.10 0.60 0.80 -0.68 9.91 -0.00 -0.03 0.09 3467
0.10 0.57 0.80 -0.69 9.89 -0.00 -0.03 0.09 3473
0.11 0.54 0.79 -0.68 9.91 -0.00 -0.03 0.09 3480
0.10 0.53 0.81 -0.68 9.90 -0.00 -0.03 0.09 3486
0.12 0.54 0.82 -0.67 9.96 -0.00 -0.02 0.09 3492
0.10 0.56 0.77 -0.69 10.01 -0.00 -0.02 0.09 3499
0.10 0.47 0.81 -0.65 9.90 -0.00 -0.02 0.09 3505
0.10 0.53 0.81 -0.71 9.92 -0.00 -0.02 0.09 3511
0.11 0.47 0.80 -0.68 9.96 -0.00 -0.02 0.09 3517
0.10 0.47 0.80 -0.66 9.94 -0.00 -0.02 0.09 3524
0.10 0.48 1.03 -0.99 9.94 -0.00 -0.02 0.09 3530
0.11 0.42 0.80 -0.69 9.96 -0.00 -0.02 0.10 3536
0.11 0.40 0.83 -0.69 9.94 -0.00 -0.02 0.09 3543
0.10 0.35 0.83 -0.69 9.92 0.00 -0.01 0.10 3549
0.10 0.37 0.85 -0.69 9.92 0.00 -0.01 0.10 3555
0.11 0.32 0.85 -0.69 9.93 0.00 -0.01 0.09 3561
0.10 0.31 0.84 -0.70 9.94 0.00 -0.01 0.09 3568
0.11 0.30 0.82 -0.66 9.94 0.00 -0.00 0.10 3574
0.12 0.32 0.84 -0.68 9.88 0.00 -0.00 0.10 3580
0.11 0.25 0.84 -0.71 9.95 0.01 -0.00 0.10 3587
0.10 0.22 0.90 -0.72 9.96 0.01 0.00 0.09 3593
0.12 0.24 0.89 -0.69 9.96 0.01 -0.00 0.09 3599
0.12 0.24 0.88 -0.68 9.95 0.01 -0.00 0.10 3605
0.12 0.22 0.90 -0.71 9.98 0.01 -0.00 0.10 3611
0.10 0.22 0.87 -0.67 9.99 0.01 -0.01 0.09 3618
0.11 0.16 0.94 -0.68 9.96 0.01 -0.01 0.09 3624
0.11 0.16 0.91 -0.70 9.96 0.02 -0.02 0.09 3631
0.12 0.10 0.89 -0.67 9.96 0.02 -0.02 0.09 3637
0.11 0.12 0.90 -0.70 9.93 0.02 -0.03 0.09 3643
0.12 0.07 0.92 -0.74 9.94 0.02 -0.03 0.08 3649
0.12 0.04 0.67 -0.60 9.93 0.02 -0.04 0.08 3655
0.11 0.05 0.94 -0.74 9.94 0.03 -0.04 0.07 3662
0.12 0.05 0.91 -0.72 9.99 0.03 -0.04 0.07 3668
0.12 0.02 0.84 -0.75 9.97 -0.00 -0.06 0.05 3675
0.12 -0.01 0.92 -0.77 9.96 0.03 -0.05 0.07 3681
0.11 0.02 0.88 -0.84 10.10 0.02 -0.05 0.06 3687
0.14 0.02 0.91 -0.99 9.92 0.03 -0.05 0.05 3693
0.13 0.02 0.89 -0.76 9.97 0.03 -0.06 0.05 3699
0.12 0.00 0.89 -0.74 9.98 0.04 -0.06 0.05 3705
0.13 -0.00 0.80 -0.89 10.01 0.04 -0.05 0.03 3713
0.13 -0.01 0.84 -0.77 10.17 0.05 -0.05 0.04 3719
0.12 -0.01 0.98 -0.83 10.08 0.06 -0.03 0.03 3725
0.12 -0.01 0.88 -0.93 9.92 0.09 -0.01 0.03 3731
0.12 -0.01 0.30 -0.54 10.34 0.13 0.02 0.02 3737
0.11 -0.01 0.93 -0.77 10.98 0.17 0.09 0.01 3743
0.10 -0.01 0.97 -0.88 10.49 0.25 0.15 0.00 3749
0.08 -0.00 0.90 -0.62 10.03 0.43 0.32 -0.03 3757
0.09 -0.01 1.34 -0.84 11.08 0.61 0.40 -0.04 3763
0.07 -0.01 1.18 -0.80 11.16 0.80 0.51 -0.06 3769
0.06 -0.01 1.12 -0.87 11.33 0.95 0.51 -0.10 3775
0.08 -0.01 1.39 -1.18 11.48 1.01 0.41 -0.13 3781
0.07 -0.01 1.49 -1.08 11.63 1.03 0.35 -0.14 3787
0.06 -0.01 1.40 -1.39 11.34 1.05 0.34 -0.16 3793
0.07 0.00 1.13 -1.14 11.25 1.10 0.38 -0.17 3801
0.06 -0.00 1.07 -1.44 11.07 1.10 0.41 -0.14 3807
0.05 0.00 1.37 -1.42 11.46 1.11 0.43 -0.14 3813
0.06 -0.01 1.10 -1.71 10.68 1.14 0.49 -0.13 3819
0.05 0.00 1.20 -1.69 10.72 1.16 0.49 -0.12 3825
0.04 0.01 1.11 -1.76 10.72 1.17 0.52 -0.10 3832
0.07 -0.01 1.03 -1.98 10.88 1.18 0.57 -0.07 3838
0.07 -0.01 1.23 -2.07 10.81 1.20 0.62 -0.05 3845
0.06 -0.01 1.27 -2.22 11.03 1.21 0.70 -0.03 3851
0.07 -0.00 1.26 -2.29 11.04 1.22 0.80 0.00 3857
0.06 -0.01 1.27 -2.29 11.44 1.22 0.91 0.03 3863
0.05 -0.01 1.27 -2.61 11.35 1.23 1.04 0.05 3870
0.07 0.00 1.29 -2.59 11.29 1.22 1.14 0.05 3876
0.07 -0.00 1.58 -2.91 11.46 1.19 1.19 0.05 3883
0.06 0.00 1.36 -3.41 11.54 1.16 1.24 0.11 3889
0.07 0.02 1.51 -3.08 11.77 1.10 1.35 0.16 3895
0.07 0.01 1.62 -3.01 11.15 1.01 1.48 0.20 3902
0.07 0.02 1.62 -2.92 10.72 0.93 1.67 0.21 3908
0.08 0.02 1.41 -3.12 10.38 0.85 1.74 0.21 3914
0.06 -0.00 0.85 -3.48 10.30 0.80 1.82 0.21 3920
0.05 -0.00 0.35 -3.90 9.97 0.79 1.84 0.20 3927
0.05 0.00 -0.49 -4.20 9.80 0.82 1.81 0.16 3933
0.05 0.00 -1.40 -4.66 9.73 0.86 1.69 0.08 3940
0.05 0.00 -1.33 -4.26 9.51 0.94 1.44 -0.05 3946
0.05 0.01 -4.56 -4.91 9.25 1.03 1.11 -0.27 3952
0.06 0.00 -6.21 -4.62 9.34 1.06 0.66 -0.50 3958
0.07 -0.00 -6.15 -4.23 9.32 1.07 0.20 -0.76 3964
0.06 -0.01 -6.45 -3.82 9.90 1.02 -0.23 -1.00 3971
0.07 0.00 -6.27 -3.81 10.69 0.92 -0.65 -1.23 3978
0.05 -0.01 -5.43 -3.69 11.03 0.80 -0.97 -1.50 3984
0.05 -0.01 -4.78 -3.57 11.61 0.69 -1.19 -1.77 3990
0.07 -0.01 -4.31 -3.36 11.13 0.59 -1.32 -2.02 3996
0.06 -0.01 -3.54 -3.23 10.79 0.50 -1.37 -2.23 4002
0.05 -0.01 -2.39 -2.85 9.99 0.40 -1.40 -2.40 4008
0.06 -0.01 -3.07 -2.56 10.35 0.32 -1.41 -2.56 4016
0.05 -0.01 -3.19 -2.27 10.32 0.24 -1.44 -2.66 4022
0.04 -0.00 -0.78 -2.34 8.95 0.17 -1.43 -2.70 4028
0.05 -0.00 -2.00 -2.03 9.96 0.09 -1.47 -2.70 4034
0.05 -0.00 -2.29 -1.97 10.47 0.05 -1.50 -2.69 4040
0.04 -0.00 -1.02 -2.01 10.42 -0.00 -1.52 -2.67 4046
0.04 -0.00 -0.64 -1.87 9.25 -0.03 -1.54 -2.63 4052
0.04 -0.00 -0.74 -1.65 8.88 -0.04 -1.60 -2.61 4059
0.04 -0.00 -0.97 -1.96 9.29 -0.06 -1.68 -2.55 4066
0.04 -0.00 -0.95 -1.98 9.13 -0.09 -1.79 -2.46 4072
0.03 -0.00 -0.97 -1.98 9.12 -0.10 -1.87 -2.37 4078
0.05 -0.01 -1.00 -2.09 9.24 -0.08 -2.02 -2.28 4084
0.04 -0.00 -1.14 -2.12 9.34 -0.05 -2.17 -2.17 4090
0.04 -0.00 -1.63 -2.50 9.48 0.00 -2.32 -2.04 4097
0.04 -0.00 -0.68 -2.31 11.81 0.00 -2.42 -1.76 4103
0.05 -0.01 0.22 -1.89 10.41 -0.02 -2.42 -1.53 4109
0.03 -0.00 0.71 -1.37 10.72 -0.06 -2.40 -1.38 4116
0.03 -0.00 2.18 -2.37 10.43 -0.09 -2.41 -1.23 4122
0.05 -0.00 2.46 -1.91 10.21 -0.12 -2.40 -1.03 4128
0.05 -0.00 2.36 -2.13 9.98 -0.13 -2.32 -0.88 4134
0.04 -0.00 1.56 -2.20 10.94 -0.15 -2.20 -0.80 4141
0.05 -0.00 1.71 -2.14 10.08 -0.17 -2.08 -0.70 4147
0.05 -0.00 3.82 -2.34 9.31 -0.20 -1.91 -0.65 4154
0.05 -0.00 2.15 -2.29 10.02 -0.21 -1.72 -0.63 4160
0.04 -0.00 0.37 -2.20 10.03 -0.22 -1.56 -0.63 4166
0.06 -0.01 -0.83 -2.75 10.65 -0.23 -1.38 -0.64 4172
0.04 -0.00 1.27 -2.87 10.93 -0.24 -1.25 -0.65 4178
0.04 -0.00 1.72 -2.44 10.25 -0.26 -1.12 -0.68 4185
0.05 -0.01 1.80 -2.30 10.28 -0.28 -1.03 -0.71 4192
0.04 -0.00 1.83 -1.91 9.90 -0.30 -0.96 -0.74 4198
0.04 -0.00 1.26 -1.98 9.37 -0.34 -0.90 -0.78 4204
0.05 0.00 0.78 -2.11 9.80 -0.37 -0.85 -0.81 4210
0.05 -0.00 0.67 -2.27 9.91 -0.41 -0.80 -0.84 4216
0.04 -0.00 2.13 -2.46 9.99 -0.46 -0.71 -0.85 4222
0.03 -0.00 2.67 -2.32 9.99 -0.51 -0.61 -0.83 4229
0.04 0.01 3.03 -2.21 10.03 -0.56 -0.48 -0.79 4235
0.04 -0.00 3.24 -2.15 9.87 -0.60 -0.36 -0.74 4242
0.04 -0.00 3.42 -2.20 9.82 -0.63 -0.24 -0.65 4248
0.04 0.00 3.42 -2.22 9.85 -0.65 -0.14 -0.54 4254
0.05 -0.00 3.45 -2.17 10.20 -0.67 -0.07 -0.42 4260
0.05 -0.01 3.32 -2.14 10.43 -0.71 0.01 -0.27 4267
0.04 -0.00 3.27 -2.19 10.39 -0.74 0.07 -0.12 4273
0.06 -0.01 3.22 -2.37 10.48 -0.79 0.12 0.03 4280
0.05 -0.00 3.15 -2.58 10.57 -0.85 0.16 0.17 4286
0.04 -0.00 3.07 -2.78 10.60 -0.91 0.22 0.30 4292
0.05 -0.00 3.05 -2.93 10.44 -0.95 0.30 0.39 4298
0.04 -0.00 3.02 -3.14 10.28 -0.99 0.38 0.49 4304
0.04 -0.00 2.90 -3.26 10.11 -1.01 0.47 0.56 4311
0.05 -0.00 2.90 -3.40 9.94 -1.01 0.56 0.63 4317
0.06 -0.01 2.71 -3.50 9.79 -1.00 0.65 0.68 4323
0.04 -0.00 2.63 -3.57 9.64 -0.96 0.72 0.72 4330
0.04 -0.00 2.49 -3.67 9.49 -0.92 0.78 0.75 4336
0.05 -0.00 2.30 -3.54 9.41 -0.87 0.83 0.77 4342
0.06 -0.01 2.16 -3.58 9.32 -0.81 0.88 0.79 4348
0.04 -0.00 2.08 -3.59 9.30 -0.74 0.93 0.81 4355
0.04 -0.00 2.04 -3.59 9.35 -0.64 0.98 0.82 4361
0.04 -0.00 1.99 -3.58 9.40 -0.60 1.02 0.84 4367
0.05 -0.01 1.93 -3.54 9.67 -0.53 1.06 0.84 4373
0.04 -0.00 1.95 -3.46 10.16 -0.49 1.11 0.85 4379
0.04 -0.00 1.87 -3.27 10.80 -0.49 1.14 0.85 4386
0.05 0.00 1.77 -3.05 11.12 -0.53 1.17 0.86 4392
0.05 0.00 1.64 -2.88 11.20 -0.61 1.18 0.86 4399
0.04 -0.00 1.51 -2.80 11.17 -0.71 1.17 0.88 4405
0.04 0.01 1.39 -2.79 11.03 -0.81 1.14 0.91 4411
0.04 -0.00 1.32 -2.91 10.83 -0.87 1.11 0.93 4417
0.04 -0.00 1.29 -3.12 10.48 -0.93 1.07 0.95 4424
0.04 0.01 1.25 -3.31 10.28 -0.95 1.03 0.96 4430
0.04 -0.00 1.23 -3.51 10.07 -0.94 0.99 0.96 4436
0.04 -0.00 1.25 -3.59 9.79 -0.89 0.96 0.95 4443
0.04 -0.00 1.27 -3.66 9.62 -0.83 0.92 0.94 4449
0.05 -0.00 1.30 -3.68 9.54 -0.77 0.90 0.91 4455
0.04 -0.00 1.34 -3.73 9.55 -0.70 0.89 0.89 4461
0.03 -0.00 1.39 -3.71 9.71 -0.65 0.89 0.86 4467
0.04 -0.00 1.48 -3.74 9.81 -0.59 0.91 0.84 4474
0.05 -0.00 1.53 -3.08 9.92 -0.55 0.95 0.81 4481
0.04 -0.00 1.68 -3.67 10.20 -0.52 1.00 0.80 4487
0.04 -0.00 1.89 -3.71 10.54 -0.52 1.07 0.78 4493
0.04 0.00 2.06 -3.67 10.82 -0.54 1.14 0.78 4499
0.04 -0.00 2.10 -3.71 11.05 -0.58 1.22 0.78 4505
0.05 -0.00 2.04 -3.69 11.13 -0.63 1.27 0.79 4511
0.05 -0.00 1.86 -3.68 11.16 -0.68 1.29 0.82 4518
0.06 -0.01 1.61 -3.72 11.10 -0.73 1.25 0.86 4525
0.05 -0.00 1.44 -3.80 11.03 -0.76 1.19 0.90 4531
0.04 -0.00 1.29 -3.84 10.88 -0.79 1.07 0.93 4537
0.05 -0.01 1.29 -3.92 10.60 -0.79 0.92 0.95 4543
0.05 -0.01 1.39 -4.01 10.44 -0.78 0.79 0.97 4549
0.04 -0.00 1.58 -4.03 10.33 -0.76 0.69 0.97 4556
0.04 0.00 1.84 -4.16 10.28 -0.73 0.64 0.95 4562
0.04 -0.00 2.02 -4.28 10.16 -0.71 0.65 0.93 4569
0.04 -0.00 2.17 -4.31 10.02 -0.69 0.72 0.90 4575
0.04 -0.00 2.10 -4.37 9.98 -0.67 0.84 0.89 4581
0.05 -0.01 2.06 -4.38 10.18 -0.64 0.94 0.89 4587
0.04 -0.00 2.03 -4.41 10.25 -0.62 1.04 0.88 4593
0.03 -0.00 1.92 -4.40 10.35 -0.60 1.11 0.88 4600
0.04 -0.00 1.76 -4.38 10.40 -0.58 1.13 0.87 4606
0.05 -0.00 1.72 -4.39 10.27 -0.58 1.12 0.86 4613
0.03 -0.00 1.68 -4.32 10.10 -0.58 1.09 0.83 4619
0.04 0.00 1.75 -4.33 9.94 -0.58 1.05 0.81 4625
0.05 -0.00 1.88 -4.38 9.86 -0.57 1.04 0.76 4631
0.04 -0.00 -10.59 -12.40 18.15 -0.38 -0.16 0.75 4638
0.04 -0.00 0.70 -4.55 8.26 -0.19 -0.48 0.76 4644
0.06 -0.01 -3.23 -5.66 6.65 -0.35 -0.84 0.73 4651
0.04 -0.00 -4.34 -7.81 9.53 -0.32 -1.20 0.69 4657
0.04 -0.00 -6.27 -9.51 8.95 -0.24 -1.41 0.72 4663
0.05 -0.00 7.82 -7.09 14.71 0.43 -0.75 1.04 4669
0.05 -0.01 2.40 -6.78 7.19 0.36 -0.22 1.10 4675
0.05 -0.00 -3.83 -6.85 8.76 0.42 -0.15 1.08 4681
0.04 0.01 -7.80 -9.20 11.31 0.53 -0.48 1.25 4688
0.06 0.00 -8.45 -11.07 8.03 0.61 -0.65 1.44 4695
0.05 -0.00 -9.52 -10.42 8.40 0.76 -0.84 1.82 4701
0.04 0.01 -15.86 -10.72 15.95 0.71 -1.06 2.15 4707
0.06 0.02 -15.41 -5.69 10.97 0.44 -1.38 1.79 4714
0.05 0.04 -14.26 -5.11 13.36 0.23 -1.11 0.94 4720
0.04 0.08 -11.10 -3.70 12.85 -0.04 -0.38 0.22 4726
0.05 0.10 -2.69 -0.08 11.82 -0.32 0.21 -0.04 4732
0.05 0.13 0.28 -0.82 9.99 -0.33 0.23 -0.02 4739
0.06 0.14 0.87 -0.96 9.81 -0.31 0.22 -0.00 4746
0.05 0.18 1.79 -1.03 9.57 -0.28 0.14 0.01 4752
0.03 0.23 2.08 -1.38 9.58 -0.18 0.06 0.08 4758
0.03 0.36 1.18 -0.53 9.93 -0.13 -0.03 0.14 4764
0.03 0.43 0.49 -0.73 10.32 -0.06 -0.02 0.13 4770
0.03 0.47 0.50 -0.73 10.30 -0.07 0.05 0.12 4776
0.03 0.53 0.56 -0.87 10.27 -0.10 0.13 0.10 4784
0.03 0.58 0.72 -0.82 10.08 -0.11 0.10 0.08 4790
0.02 0.59 1.00 -0.75 9.85 -0.10 0.13 0.09 4796
0.02 0.68 1.10 -0.76 9.82 -0.06 0.06 0.10 4802
0.03 0.66 0.92 -0.70 9.90 -0.02 -0.00 0.09 4808
0.02 0.69 0.84 -0.74 10.04 -0.01 -0.04 0.08 4814
0.03 0.71 0.75 -0.71 10.01 -0.01 -0.04 0.08 4822
0.03 0.72 0.82 -0.71 9.96 -0.02 -0.05 0.06 4828
0.02 0.77 0.85 -0.72 9.86 -0.02 -0.07 0.06 4834
0.01 0.86 0.84 -0.72 9.91 -0.00 -0.11 0.05 4840
0.02 0.89 0.82 -0.80 10.10 0.01 -0.17 0.04 4846
0.01 0.90 0.73 -0.71 10.12 0.01 -0.13 0.04 4852
0.00 0.95 0.66 -0.71 9.98 0.01 -0.12 0.05 4859
0.01 0.94 0.67 -0.74 10.00 0.01 -0.11 0.06 4866
0.01 0.96 0.69 -0.74 10.02 0.01 -0.10 0.06 4872
0.00 0.96 0.66 -0.77 10.04 0.01 -0.08 0.07 4878
0.01 1.06 0.59 -0.70 10.03 0.00 -0.07 0.08 4884
0.01 1.05 0.58 -0.72 10.02 -0.00 -0.05 0.08 4890
0.00 1.08 0.63 -0.70 9.97 -0.01 -0.03 0.09 4897
0.00 1.13 0.62 -0.73 9.93 -0.01 -0.03 0.09 4903
0.02 1.09 0.66 -0.66 9.95 -0.01 -0.02 0.09 4910
0.00 1.11 0.67 -0.68 10.03 -0.01 -0.02 0.10 4916
0.00 1.14 0.65 -0.68 10.00 -0.01 -0.02 0.10 4922
0.01 1.19 0.72 -0.68 9.95 -0.02 -0.02 0.10 4928
0.00 1.18 0.70 -0.68 9.98 -0.01 -0.03 0.10 4935
0.02 1.21 0.70 -0.70 9.98 -0.02 -0.02 0.10 4941
0.03 1.22 0.72 -0.70 9.96 -0.02 -0.03 0.10 4947
0.02 1.24 0.69 -0.71 9.91 -0.02 -0.03 0.10 4954
0.01 1.24 0.69 -0.68 9.92 -0.02 -0.04 0.10 4960
0.01 1.28 0.69 -0.64 9.92 -0.02 -0.04 0.09 4966
0.02 1.27 0.70 -0.64 9.93 -0.01 -0.05 0.09 4972
0.03 1.25 0.72 -0.68 9.94 -0.01 -0.05 0.09 4979
0.02 1.26 0.66 -0.65 9.98 -0.01 -0.06 0.10 4985
0.03 1.28 0.69 -0.67 9.98 -0.01 -0.06 0.10 4992
0.03 1.23 0.68 -0.67 9.96 -0.01 -0.06 0.10 4998
0.03 1.22 0.63 -0.65 9.96 -0.01 -0.06 0.10 5004
0.03 1.21 0.65 -0.66 9.92 -0.01 -0.06 0.11 5010
0.03 1.22 0.66 -0.65 9.93 -0.01 -0.06 0.10 5016
0.02 1.21 0.64 -0.66 9.91 -0.01 -0.03 0.10 5023
0.03 1.20 0.66 -0.65 9.98 -0.01 -0.07 0.10 5029
0.03 1.21 0.67 -0.65 9.96 -0.01 -0.08 0.10 5036
0.06 1.17 0.64 -0.62 9.91 -0.02 -0.08 0.10 5042
0.03 1.16 0.68 -0.66 9.94 -0.02 -0.10 0.10 5048
0.04 1.16 0.67 -0.62 9.92 -0.02 -0.11 0.09 5054
0.03 1.14 0.63 -0.63 9.94 -0.03 -0.11 0.09 5061
0.03 1.16 0.67 -0.69 9.98 -0.03 -0.12 0.08 5067
0.04 1.15 0.59 -0.65 9.97 -0.03 -0.12 0.09 5073
0.05 1.14 0.64 -0.64 9.99 -0.03 -0.12 0.08 5080
0.04 1.15 0.01 -0.68 9.97 -0.03 -0.11 0.08 5086
0.06 1.15 0.64 -0.64 10.00 -0.02 -0.11 0.08 5092
0.06 1.17 0.58 -0.67 10.00 -0.02 -0.10 0.08 5099
0.06 1.15 0.59 -0.66 9.99 -0.02 -0.10 0.08 5105
0.07 1.16 0.62 -0.69 10.01 -0.02 -0.09 0.08 5111
0.08 1.19 0.61 -0.68 9.97 -0.02 -0.08 0.08 5117
0.09 1.17 0.78 -0.84 10.02 -0.02 -0.08 0.08 5124
0.07 1.12 0.62 -0.64 9.97 -0.02 -0.08 0.07 5130
0.09 1.12 0.60 -0.69 9.95 -0.02 -0.08 0.08 5136
0.11 1.12 0.62 -0.66 9.95 -0.02 -0.08 0.08 5143
0.08 1.13 0.60 -0.65 9.95 -0.01 -0.07 0.09 5149
0.09 1.07 0.62 -0.65 9.97 -0.01 -0.07 0.08 5155
0.08 1.06 0.60 -0.69 9.94 -0.01 -0.07 0.08 5161
0.09 1.03 0.61 -0.68 9.99 -0.01 -0.07 0.09 5168
0.11 1.04 0.55 -0.71 9.97 -0.01 -0.06 0.08 5174
0.12 1.01 0.61 -0.68 9.99 -0.01 -0.07 0.09 5181
0.11 1.00 0.60 -0.67 9.95 -0.01 -0.06 0.08 5187
0.11 1.00 0.62 -0.68 10.00 -0.01 -0.06 0.08 5193
0.12 0.98 0.57 -0.67 10.02 -0.01 -0.06 0.08 5199
0.11 0.99 0.57 -0.65 9.96 -0.00 -0.06 0.08 5206
0.11 0.99 0.56 -0.70 9.95 -0.01 -0.05 0.08 5212
0.12 0.98 0.56 -0.67 9.96 -0.01 -0.05 0.08 5218
0.11 0.98 0.63 -0.66 9.98 -0.01 -0.05 0.08 5225
0.10 1.00 0.62 -0.67 9.99 -0.01 -0.05 0.09 5231
0.12 1.00 0.59 -0.68 9.95 -0.01 -0.05 0.08 5237
0.11 0.99 0.62 -0.67 9.96 -0.01 -0.05 0.08 5243
0.11 0.98 0.58 -0.66 9.95 -0.01 -0.05 0.08 5250
0.10 1.00 0.57 -0.67 9.93 -0.01 -0.05 0.08 5256
0.12 0.99 0.61 -0.66 9.96 -0.01 -0.05 0.08 5262
0.12 0.97 0.62 -0.63 9.97 -0.01 -0.04 0.08 5269
0.11 0.95 0.58 -0.63 9.97 -0.01 -0.04 0.08 5275
0.12 0.94 0.55 -0.68 9.93 -0.01 -0.05 0.09 5281
0.12 0.96 0.56 -0.65 9.99 -0.01 -0.04 0.08 5287
0.12 0.95 0.59 -0.67 9.98 -0.00 -0.04 0.09 5294
0.12 0.93 0.56 -0.67 9.97 -0.00 -0.04 0.08 5300
0.13 0.93 0.57 -0.67 9.98 -0.00 -0.04 0.08 5307
0.12 0.94 0.60 -0.66 10.02 -0.00 -0.04 0.09 5313
0.12 0.93 0.58 -0.67 9.96 0.00 -0.04 0.09 5319
0.14 0.91 0.60 -0.67 9.98 -0.00 -0.03 0.09 5325
0.13 0.89 0.61 -0.69 9.96 -0.00 -0.03 0.09 5331
0.13 0.88 0.59 -0.67 9.95 -0.00 -0.03 0.09 5338
0.14 0.85 0.57 -0.66 9.97 -0.00 -0.03 0.09 5344
0.16 0.87 0.58 -0.68 9.95 -0.01 -0.03 0.09 5351
0.14 0.87 0.57 -0.64 9.98 -0.00 -0.03 0.08 5357
0.14 0.88 0.59 -0.66 9.97 -0.00 -0.03 0.09 5363
0.15 0.86 0.57 -0.65 9.96 -0.00 -0.02 0.09 5369
0.14 0.86 0.63 -0.67 9.95 -0.00 -0.03 0.09 5376
0.13 0.83 0.60 -0.65 9.95 -0.00 -0.03 0.09 5382
0.14 0.84 0.60 -0.65 9.97 -0.00 -0.03 0.09 5388
0.15 0.82 0.58 -0.67 9.98 -0.00 -0.03 0.09 5395
0.15 0.82 0.61 -0.68 9.98 -0.00 -0.02 0.09 5401
0.15 0.80 0.60 -0.66 9.98 -0.00 -0.02 0.09 5407
0.14 0.78 0.61 -0.70 9.98 -0.00 -0.02 0.09 5413
0.13 0.79 0.57 -0.66 9.98 -0.00 -0.02 0.09 5420
0.13 0.75 0.61 -0.67 9.96 -0.00 -0.02 0.09 5426
0.14 0.78 0.60 -0.63 9.99 -0.00 -0.02 0.09 5432
0.14 0.76 0.60 -0.65 9.97 -0.00 -0.02 0.09 5438
0.14 0.74 0.59 -0.67 9.99 -0.00 -0.02 0.09 5445
0.13 0.71 0.62 -0.69 9.98 -0.00 -0.02 0.09 5451
0.15 0.74 0.57 -0.67 9.94 -0.00 -0.01 0.09 5457
0.14 0.70 0.01 -0.65 9.99 -0.00 -0.02 0.09 5464
0.14 0.72 0.60 -0.69 9.94 -0.00 -0.02 0.09 5470
0.14 0.74 0.64 -0.70 9.96 0.00 -0.02 0.09 5476
0.14 0.69 0.63 -0.65 9.99 0.00 -0.02 0.09 5482
0.14 0.68 0.63 -0.65 9.99 0.00 -0.02 0.09 5489
0.14 0.66 0.60 -0.67 9.96 0.00 -0.01 0.09 5495
0.15 0.68 0.62 -0.67 9.98 0.01 -0.01 0.09 5501
0.15 0.69 0.62 -0.65 9.99 0.00 -0.01 0.09 5508
0.15 0.66 0.66 -0.68 9.93 0.01 -0.01 0.10 5514
0.16 0.63 0.63 -0.64 9.96 0.01 -0.01 0.09 5520
0.16 0.62 0.63 -0.69 9.96 0.01 -0.01 0.09 5526
0.15 0.59 0.65 -0.67 9.95 0.01 -0.01 0.09 5533
0.15 0.58 0.65 -0.68 9.97 0.01 -0.01 0.09 5539
0.17 0.55 0.65 -0.66 9.93 0.01 -0.01 0.09 5545
0.17 0.52 0.64 -0.66 9.94 0.01 -0.01 0.09 5552
0.16 0.53 0.66 -0.72 9.95 0.01 -0.01 0.09 5558
0.18 0.52 0.65 -0.67 9.95 0.01 -0.00 0.09 5564
0.19 0.48 0.62 -0.70 9.95 0.01 -0.01 0.09 5570
0.18 0.49 0.66 -0.66 9.98 0.01 0.00 0.08 5576
0.18 0.41 0.67 -0.71 9.97 0.01 -0.00 0.09 5583
0.18 0.46 0.66 -0.69 9.97 0.02 -0.00 0.09 5590
0.18 0.40 0.66 -0.70 9.99 0.02 0.00 0.08 5596
0.19 0.33 0.69 -0.68 9.97 0.01 0.00 0.09 5602
0.21 0.37 0.70 -0.66 9.91 0.01 0.00 0.09 5608
0.23 0.36 0.65 -0.72 9.92 0.02 0.00 0.08 5614
0.21 0.30 0.68 -0.68 9.90 0.02 0.00 0.09 5620
0.20 0.30 0.72 -0.74 9.96 0.02 0.00 0.08 5627
0.24 0.29 0.64 -0.71 10.02 0.01 -0.00 0.09 5634
0.25 0.23 0.76 -0.70 9.93 0.02 0.00 0.08 5640
0.24 0.23 0.73 -0.71 9.96 0.02 0.00 0.08 5646
0.23 0.19 0.75 -0.72 9.96 0.01 0.00 0.08 5652
0.27 0.15 0.69 -0.68 9.99 0.01 0.00 0.08 5658
0.26 0.14 0.73 -0.73 9.99 0.01 0.00 0.09 5664
0.27 0.13 0.71 -0.70 9.96 0.01 0.00 0.08 5670
0.30 0.12 0.72 -0.71 9.96 0.02 0.01 0.08 5678
0.31 0.11 0.67 -0.88 9.98 0.02 0.00 0.08 5684
0.29 0.10 0.73 -0.70 9.89 0.01 0.00 0.08 5690
0.32 0.07 0.69 -0.72 9.92 0.01 0.00 0.08 5696
0.32 0.07 0.74 -0.72 9.89 0.01 -0.00 0.08 5702
0.31 0.06 0.72 -0.74 9.97 0.01 -0.00 0.09 5708
0.31 0.06 0.71 -0.68 9.96 0.01 -0.00 0.09 5714
0.28 0.07 1.19 -0.20 9.90 0.02 -0.00 0.09 5721
0.29 0.02 0.74 -0.74 9.88 0.02 -0.00 0.09 5728
0.27 0.04 0.71 -0.77 9.99 0.02 -0.00 0.08 5734
0.27 0.02 0.73 -0.73 9.93 0.01 -0.00 0.09 5740
0.28 0.02 0.73 -0.74 9.96 0.02 -0.00 0.08 5746
0.26 0.03 0.86 -0.76 9.87 0.01 -0.00 0.08 5752
0.27 -0.00 0.77 -0.75 9.95 0.02 -0.00 0.09 5758
0.27 0.00 0.74 -0.74 9.96 0.02 -0.00 0.09 5765
0.28 0.02 0.75 -0.71 9.98 0.01 -0.00 0.09 5771
0.30 0.03 0.74 -0.74 9.98 0.02 0.00 0.09 5778
0.31 0.02 0.80 -0.76 9.97 0.02 0.00 0.08 5784
0.31 0.03 0.77 -0.75 9.98 0.02 -0.00 0.08 5790
0.32 -0.01 0.80 -0.72 9.93 0.02 0.00 0.08 5796
0.32 0.02 0.75 -0.79 9.92 0.02 0.00 0.08 5803
0.30 0.01 0.78 -0.75 9.96 0.02 0.00 0.08 5809
0.31 0.02 0.65 -0.34 9.68 0.02 0.01 0.08 5815
0.32 -0.01 0.77 -0.70 9.95 0.02 0.01 0.08 5821
0.31 -0.01 0.75 -0.84 10.05 0.01 0.01 0.08 5828
0.30 -0.01 0.75 -0.75 9.98 0.01 0.01 0.07 5834
0.31 -0.02 0.79 -0.83 9.96 0.02 0.01 0.08 5840
0.30 -0.01 0.90 -0.73 9.96 0.02 0.01 0.08 5847
0.30 -0.02 0.79 -0.80 9.93 0.02 0.01 0.08 5853
0.30 -0.02 0.77 -0.74 9.92 0.02 0.02 0.08 5859
0.33 -0.02 0.81 -0.80 9.94 0.02 0.02 0.08 5865
0.33 -0.02 0.78 -0.80 9.95 0.02 0.02 0.07 5872
0.31 -0.01 0.81 -0.81 9.94 0.02 0.03 0.07 5878
0.31 -0.01 0.91 -0.77 9.97 0.02 0.03 0.07 5884
0.28 -0.01 0.64 -1.42 9.94 0.02 0.03 0.06 5891
0.28 -0.03 0.87 -0.76 9.96 0.02 0.03 0.06 5897
0.30 -0.02 0.87 -0.82 10.00 0.03 0.04 0.05 5903
0.31 -0.02 0.90 -0.83 10.06 0.04 0.04 0.05 5909
0.30 -0.02 0.87 -0.80 9.89 0.04 0.04 0.05 5916
0.27 -0.02 0.86 -0.86 10.01 0.05 0.05 0.04 5922
0.28 -0.01 0.82 -0.72 10.00 0.07 0.06 0.03 5928
0.26 -0.03 1.06 -1.27 10.94 0.13 0.08 0.03 5935
0.25 -0.02 1.01 -0.86 9.99 0.14 0.11 0.03 5941
0.25 -0.01 0.45 -1.12 8.52 0.20 0.16 0.02 5947
0.23 -0.02 1.17 -0.88 9.95 0.27 0.23 0.01 5953
0.21 -0.02 0.82 -0.92 10.10 0.34 0.29 0.03 5960
0.19 -0.00 0.85 -0.93 10.30 0.40 0.33 0.00 5966
0.22 -0.01 0.94 -0.96 10.23 0.44 0.37 0.01 5972
0.17 -0.01 0.96 -1.04 10.36 0.50 0.45 0.02 5979
0.17 0.01 0.74 -1.06 10.30 0.57 0.51 0.02 5985
0.14 0.01 0.94 -1.15 10.47 0.63 0.51 0.01 5992
0.11 -0.00 1.23 -1.18 10.38 0.67 0.51 0.01 5998
0.12 0.00 1.32 -1.28 10.53 0.70 0.51 0.01 6004
0.12 -0.00 1.34 -1.38 10.33 0.74 0.50 0.01 6010
0.12 -0.01 1.22 -1.36 10.49 0.76 0.49 -0.00 6017
0.11 -0.01 1.35 -1.52 10.33 0.78 0.43 -0.01 6024
0.09 -0.01 1.36 -1.58 10.72 0.80 0.46 -0.01 6030
0.08 -0.01 1.40 -1.57 10.52 0.80 0.48 -0.01 6036
0.07 -0.01 1.38 -1.55 9.94 0.81 0.48 -0.01 6042
0.09 -0.01 1.38 -1.62 10.58 0.82 0.48 -0.01 6048
0.10 -0.01 1.78 -1.68 10.66 0.83 0.49 -0.01 6054
0.09 -0.01 1.56 -1.83 10.55 0.85 0.51 -0.01 6061
0.12 0.00 1.95 -2.12 9.82 0.84 0.54 -0.03 6068
0.09 -0.01 1.54 -1.81 10.16 0.87 0.57 0.00 6074
0.08 -0.01 1.51 -1.87 10.46 0.87 0.59 0.02 6080
0.07 -0.01 1.41 -2.16 10.44 0.87 0.61 0.04 6086
0.07 -0.01 1.49 -2.29 11.02 0.87 0.65 0.06 6092
0.06 -0.01 1.44 -2.42 10.55 0.88 0.67 0.09 6098
0.06 -0.01 1.41 -2.44 10.50 0.89 0.71 0.12 6105
0.07 -0.01 1.40 -2.60 10.43 0.91 0.74 0.16 6112
0.07 -0.01 1.54 -2.54 10.61 0.91 0.77 0.19 6118
0.05 -0.01 1.56 -2.76 10.54 0.92 0.82 0.23 6124
0.08 0.00 1.39 -2.99 10.29 0.94 0.85 0.27 6130
0.08 -0.01 1.11 -3.41 10.18 0.96 0.85 0.31 6136
0.08 -0.01 0.88 -3.44 10.22 0.99 0.79 0.38 6142
0.08 -0.01 0.99 -3.54 10.18 1.03 0.71 0.45 6150
0.09 -0.01 1.30 -3.36 9.92 1.04 0.63 0.52 6156
0.08 -0.01 1.61 -3.00 10.45 1.02 0.59 0.58 6162
0.07 -0.01 2.52 -2.73 11.13 0.97 0.67 0.59 6168
0.07 -0.01 2.78 -2.64 11.13 0.92 0.81 0.59 6174
0.06 -0.01 2.84 -2.60 10.79 0.87 0.98 0.56 6180
0.07 -0.01 2.84 -2.74 10.44 0.83 1.13 0.52 6187
0.08 -0.00 2.68 -2.84 10.28 0.79 1.18 0.49 6194
0.08 -0.01 2.57 -2.96 9.84 0.78 1.23 0.46 6200
0.08 -0.01 2.52 -3.23 9.45 0.79 1.24 0.44 6206
0.08 -0.01 2.44 -3.40 9.17 0.80 1.22 0.42 6212
0.09 -0.01 2.29 -3.58 8.95 0.83 1.19 0.39 6218
0.07 -0.01 2.05 -3.92 9.02 0.90 1.14 0.35 6224
0.07 -0.01 1.20 -4.36 9.13 0.91 1.04 0.31 6231
0.06 -0.01 0.28 -4.53 9.24 0.96 0.92 0.20 6237
0.07 -0.00 -0.55 -4.56 9.52 1.00 0.76 0.07 6243
0.06 -0.01 -0.19 -4.05 9.20 1.02 0.55 -0.07 6250
0.08 -0.01 -1.05 -4.21 9.44 0.99 0.32 -0.18 6256
0.06 -0.00 -0.48 -3.94 9.71 0.94 0.12 -0.35 6262
0.08 -0.01 -1.27 -4.08 9.46 0.89 -0.08 -0.56 6268
0.07 -0.00 -1.71 -4.03 9.31 0.83 -0.24 -0.83 6275
0.07 -0.01 -1.16 -3.55 9.32 0.76 -0.42 -1.05 6281
0.07 0.00 -1.07 -3.14 9.18 0.68 -0.59 -1.19 6287
0.07 -0.01 -0.82 -3.90 9.79 0.61 -0.73 -1.29 6293
0.07 -0.01 -1.65 -3.78 9.58 0.55 -0.91 -1.39 6300
0.05 -0.01 -0.81 -3.62 9.93 0.51 -1.09 -1.53 6306
0.07 -0.00 -0.19 -3.44 9.62 0.47 -1.22 -1.66 6312
0.06 -0.01 -0.11 -3.04 10.11 0.42 -1.31 -1.77 6319
0.04 -0.00 -0.77 -2.93 10.20 0.37 -1.37 -1.86 6325
0.07 0.00 0.32 -2.77 9.67 0.31 -1.39 -1.94 6331
0.07 -0.01 1.25 -2.63 9.50 0.25 -1.40 -2.04 6337
0.06 -0.01 2.35 -2.58 8.60 0.20 -1.42 -2.11 6344
0.07 -0.01 1.42 -2.50 8.90 0.15 -1.41 -2.19 6350
0.07 -0.00 1.44 -2.33 9.48 0.10 -1.43 -2.17 6356
0.06 -0.01 1.09 -2.17 7.49 0.08 -1.38 -2.13 6363
0.05 -0.01 2.85 -2.17 8.58 0.04 -1.38 -2.06 6369
0.06 0.00 1.60 -2.06 10.17 0.01 -1.41 -1.95 6375
0.05 -0.00 2.41 -2.21 10.38 -0.01 -1.43 -1.80 6382
0.05 -0.00 2.15 -1.85 9.19 -0.02 -1.43 -1.61 6388
0.06 0.00 1.98 -1.99 9.58 -0.02 -1.42 -1.41 6394
0.06 -0.01 4.13 -1.98 8.99 -0.04 -1.41 -1.22 6401
0.06 -0.01 3.53 -1.86 9.70 -0.07 -1.36 -1.03 6407
0.07 -0.01 3.81 -1.78 9.86 -0.13 -1.27 -0.87 6413
0.08 -0.00 4.30 -1.78 9.46 -0.18 -1.14 -0.77 6419
0.07 -0.01 3.71 -1.51 9.11 -0.24 -0.97 -0.76 6426
0.06 -0.01 2.72 -1.39 9.20 -0.31 -0.80 -0.82 6432
0.06 -0.00 1.74 -1.22 9.46 -0.37 -0.67 -0.92 6438
0.06 -0.01 1.25 -1.24 9.30 -0.42 -0.55 -1.05 6445
0.06 -0.01 -0.35 -1.33 9.57 -0.47 -0.50 -1.14 6451
0.05 -0.01 -0.58 -1.31 9.34 -0.50 -0.49 -1.23 6457
0.05 -0.00 0.55 -1.44 9.13 -0.54 -0.51 -1.31 6463
0.05 -0.00 0.01 -1.22 9.64 -0.60 -0.60 -1.35 6469
0.04 -0.00 -0.34 -1.14 9.57 -0.61 -0.73 -1.38 6476
0.04 -0.00 0.20 -1.54 9.86 -0.66 -0.80 -1.37 6482
0.05 -0.00 0.25 -1.42 10.19 -0.70 -0.88 -1.31 6489
0.04 -0.00 1.44 -1.05 10.23 -0.76 -0.90 -1.33 6495
0.04 -0.00 1.52 -1.04 10.37 -0.82 -0.89 -1.32 6501
0.05 -0.00 1.64 -1.00 9.91 -0.89 -0.82 -1.33 6507
0.05 -0.00 1.92 -0.81 9.83 -0.93 -0.71 -1.37 6513
0.04 -0.00 1.47 -1.03 9.80 -0.96 -0.59 -1.42 6519
0.05 -0.01 1.63 -1.19 9.76 -0.97 -0.50 -1.47 6526
0.07 -0.01 1.86 -0.96 10.08 -0.99 -0.39 -1.50 6533
0.05 -0.00 1.99 -0.96 10.11 -1.01 -0.31 -1.57 6539
0.04 -0.00 2.19 -1.11 9.97 -1.03 -0.26 -1.56 6545
0.05 -0.00 2.33 -1.25 9.82 -1.04 -0.21 -1.56 6551
0.05 -0.01 2.51 -1.42 9.65 -1.05 -0.18 -1.54 6557
0.04 -0.00 2.76 -1.55 9.70 -1.05 -0.18 -1.51 6563
0.04 -0.00 3.09 -1.74 9.71 -1.04 -0.18 -1.47 6571
0.05 -0.01 3.29 -1.94 9.80 -1.02 -0.19 -1.42 6577
0.04 -0.00 3.70 -2.21 9.84 -1.00 -0.19 -1.35 6583
0.05 -0.01 4.27 -2.55 9.84 -0.98 -0.16 -1.30 6589
0.05 -0.01 4.76 -2.48 9.77 -0.95 -0.10 -1.21 6595
0.06 -0.01 5.17 -2.58 9.70 -0.92 0.01 -1.11 6601
0.05 -0.01 5.55 -2.71 9.62 -0.87 0.16 -0.99 6607
0.04 -0.00 5.78 -2.79 9.66 -0.84 0.35 -0.85 6614
0.04 -0.00 5.96 -2.82 9.60 -0.80 0.51 -0.69 6620
0.05 -0.01 5.91 -2.94 9.73 -0.76 0.72 -0.52 6627
0.04 -0.00 5.84 -3.02 9.81 -0.73 0.90 -0.37 6633
0.04 -0.00 5.73 -3.09 9.85 -0.70 1.06 -0.20 6639
0.03 -0.00 5.48 -3.25 9.95 -0.66 1.18 -0.03 6645
0.05 -0.00 5.19 -3.40 10.04 -0.64 1.28 0.13 6651
0.04 -0.00 4.92 -3.46 10.21 -0.61 1.34 0.28 6658
0.02 -0.00 4.78 -3.53 10.44 -0.58 1.40 0.43 6664
0.03 -0.00 4.47 -3.59 10.91 -0.57 1.45 0.58 6670
0.04 -0.00 4.00 -3.53 11.18 -0.58 1.47 0.68 6677
0.04 -0.00 3.45 -3.50 11.13 -0.60 1.46 0.81 6683
0.03 -0.00 3.03 -3.49 11.07 -0.63 1.41 0.93 6689
0.04 -0.00 2.71 -3.50 10.98 -0.66 1.31 1.03 6695
0.03 -0.00 2.48 -3.59 10.71 -0.68 1.20 1.10 6702
0.04 -0.00 2.37 -3.65 10.56 -0.69 1.10 1.14 6708
0.05 -0.01 2.31 -3.68 10.35 -0.67 1.01 1.16 6715
0.05 -0.00 2.37 -3.63 10.29 -0.64 0.95 1.15 6721
0.04 -0.00 2.48 -3.59 10.23 -0.61 0.90 1.13 6727
0.05 -0.01 2.62 -3.47 10.26 -0.58 0.88 1.07 6733
0.04 -0.00 2.70 -3.31 10.30 -0.56 0.89 1.07 6739
0.04 -0.00 2.80 -3.11 10.43 -0.54 0.92 1.03 6746
0.05 -0.00 2.87 -2.91 10.61 -0.55 0.97 1.00 6753
0.05 -0.01 2.95 -2.70 10.99 -0.57 1.01 0.97 6759
0.05 -0.01 2.97 -2.61 11.28 -0.63 1.05 0.97 6765
0.05 -0.00 2.87 -2.44 11.32 -0.67 1.07 0.97 6771
0.05 -0.00 2.73 -2.45 11.13 -0.73 1.06 0.99 6777
0.04 -0.00 2.56 -2.52 10.89 -0.79 1.03 1.02 6784
0.04 -0.00 2.45 -2.62 10.52 -0.82 0.99 1.03 6790
0.05 -0.01 2.46 -2.79 10.27 -0.82 0.96 1.05 6797
0.05 -0.00 2.43 -2.97 9.97 -0.80 0.96 1.05 6803
0.03 -0.00 2.42 -3.14 9.81 -0.77 0.98 1.04 6809
0.04 0.00 2.34 -3.26 9.84 -0.73 1.02 1.01 6815
0.05 -0.00 2.28 -3.42 10.07 -0.70 1.07 0.97 6821
0.04 -0.00 2.13 -3.51 10.26 -0.67 1.10 0.92 6828
0.03 -0.00 1.98 -3.48 10.45 -0.66 1.13 0.87 6834
0.05 -0.00 1.70 -3.53 10.52 -0.67 1.13 0.83 6841
0.03 -0.00 -2.98 -6.28 15.83 -0.70 0.98 0.75 6847
0.03 -0.00 -2.91 -2.70 11.88 -0.77 0.35 0.59 6853
0.03 -0.00 -4.23 -9.62 12.91 -0.64 -0.09 0.59 6859
0.04 -0.00 -2.60 -6.43 10.25 -0.49 -0.47 0.64 6865
0.03 -0.00 -1.95 -6.13 7.36 -0.52 -0.68 0.62 6872
0.03 -0.00 -2.41 -7.94 8.71 -0.45 -0.92 0.57 6878
0.04 -0.00 -1.91 -8.56 9.27 -0.32 -0.99 0.54 6885
0.03 -0.00 -3.45 -9.00 9.20 -0.18 -0.92 0.52 6891
0.02 -0.00 -3.63 -8.10 9.35 -0.01 -0.86 0.51 6897
0.03 0.00 -4.77 -9.09 9.08 0.07 -0.82 0.49 6903
0.04 -0.00 -4.45 -8.72 9.37 0.17 -0.86 0.47 6909
0.04 -0.00 -6.43 -9.58 8.91 0.20 -0.95 0.44 6916
0.03 -0.00 -6.68 -9.40 8.30 0.28 -1.13 0.39 6922
0.05 -0.00 -4.20 -20.13 4.85 0.35 -1.35 0.41 6928
0.05 -0.00 -1.37 -17.02 5.02 0.91 -0.82 0.81 6935
0.06 -0.01 -16.72 -18.40 17.23 1.10 -1.14 1.04 6941
0.06 0.00 -21.53 -12.22 16.66 0.78 -2.33 0.81 6947
0.05 -0.00 -8.60 -6.40 19.39 0.65 -2.04 0.34 6953
0.04 0.01 -4.94 -5.47 6.21 0.05 -0.26 -0.01 6960
0.06 0.02 -1.87 -1.72 7.87 -0.30 0.28 -0.02 6967
0.05 0.01 -0.68 -0.48 10.25 -0.48 0.36 -0.01 6973
0.04 0.01 1.88 -0.95 10.08 -0.47 0.14 0.05 6979
0.03 0.04 1.60 -0.99 8.55 -0.18 -0.06 0.06 6985
0.04 0.05 1.29 -0.71 9.91 -0.13 -0.08 0.10 6991
0.04 0.09 0.79 -0.80 10.21 -0.10 -0.06 0.11 6998
0.04 0.20 1.10 -0.92 10.36 -0.09 -0.00 0.11 7005
0.04 0.25 0.41 -0.84 10.06 -0.08 -0.00 0.09 7011
0.04 0.29 0.43 -0.90 9.98 -0.09 0.03 0.08 7017
0.04 0.32 0.92 -0.96 9.98 -0.08 0.05 0.08 7023
0.05 0.34 0.85 -0.85 10.00 -0.06 0.06 0.09 7029
0.03 0.39 0.83 -0.84 9.99 -0.04 0.06 0.09 7035
0.03 0.47 0.72 -0.76 10.03 -0.04 0.04 0.09 7043
0.05 0.45 0.71 -0.77 10.03 -0.03 0.03 0.08 7049
0.04 0.52 0.80 -0.80 9.97 -0.03 0.01 0.08 7055
0.03 0.49 0.80 -0.83 9.95 -0.02 -0.00 0.08 7061
0.05 0.55 0.62 -0.88 9.88 -0.02 -0.01 0.07 7067
0.04 0.57 0.75 -0.83 9.89 -0.03 -0.02 0.07 7073
0.03 0.57 0.69 -0.80 9.95 -0.03 -0.03 0.07 7079
0.05 0.61 0.72 -0.81 9.99 -0.03 -0.03 0.07 7087
0.05 0.65 0.71 -0.83 9.98 -0.04 -0.03 0.07 7093
0.04 0.64 0.72 -0.76 9.98 -0.03 -0.04 0.07 7099
0.03 0.65 0.68 -0.77 9.97 -0.03 -0.04 0.07 7105
0.03 0.74 0.68 -0.76 9.93 -0.03 -0.04 0.08 7111
0.04 0.73 1.22 -0.75 10.07 -0.03 -0.04 0.08 7117
0.02 0.77 0.65 -0.78 9.97 -0.03 -0.03 0.09 7124
0.04 0.86 0.66 -0.73 9.91 -0.03 -0.03 0.10 7131
0.03 0.84 0.66 -0.74 9.91 -0.03 -0.03 0.10 7137
0.04 0.80 0.70 -0.74 9.97 -0.02 -0.02 0.11 7143
0.04 0.85 0.68 -0.75 9.94 -0.03 -0.01 0.11 7149
0.05 0.89 0.67 -0.78 9.98 -0.02 -0.01 0.11 7155
0.04 0.96 0.70 -0.75 9.97 -0.03 -0.00 0.12 7161
0.03 0.89 0.68 -0.76 9.93 -0.03 -0.00 0.12 7169
0.03 0.96 0.68 -0.76 9.92 -0.03 -0.00 0.11 7175
0.03 1.01 0.69 -0.78 9.93 -0.03 -0.01 0.12 7181
0.02 1.03 0.71 -0.76 9.96 -0.03 -0.01 0.11 7187
0.02 1.04 0.73 -0.78 9.94 -0.03 -0.01 0.12 7193
0.03 1.05 0.73 -0.74 9.94 -0.03 -0.02 0.11 7199
0.03 1.03 0.70 -0.72 9.95 -0.03 -0.02 0.11 7205
0.03 1.01 0.74 -0.70 9.91 -0.03 -0.02 0.10 7213
0.03 1.08 0.73 -0.69 9.94 -0.02 -0.03 0.10 7219
0.02 1.11 0.74 -0.70 9.95 -0.02 -0.03 0.11 7225
0.03 1.09 0.69 -0.69 10.06 -0.02 -0.03 0.10 7231
0.03 1.11 0.68 -0.72 9.93 -0.02 -0.03 0.11 7237
0.03 1.10 0.69 -0.68 9.95 -0.02 -0.03 0.11 7243
0.04 1.08 0.71 -0.71 9.96 -0.02 -0.03 0.11 7249
0.04 1.13 0.70 -0.69 9.92 -0.01 -0.04 0.10 7257
0.05 1.13 0.66 -0.73 9.96 -0.01 -0.04 0.11 7263
0.04 1.11 0.66 -0.70 9.98 -0.01 -0.04 0.11 7269
0.04 1.12 0.67 -0.69 9.95 -0.01 -0.03 0.11 7275
0.05 1.12 0.69 -0.72 9.93 -0.01 -0.03 0.11 7281
0.05 1.09 0.70 -0.68 9.97 -0.01 -0.03 0.11 7287
0.05 1.08 0.72 -0.71 9.97 -0.01 -0.03 0.10 7294
0.04 1.11 0.68 -0.68 9.95 -0.01 -0.03 0.10 7301
0.05 1.11 0.68 -0.70 10.06 -0.00 -0.02 0.10 7307
0.04 1.11 0.74 -0.68 9.95 -0.00 -0.03 0.11 7313
0.06 1.11 0.72 -0.69 9.96 -0.01 -0.03 0.10 7319
0.07 1.09 0.70 -0.70 9.93 -0.00 -0.03 0.11 7325
0.06 1.08 0.70 -0.73 9.98 -0.01 -0.03 0.10 7331
0.06 1.07 0.71 -0.70 9.93 -0.00 -0.03 0.11 7339
0.08 1.07 0.69 -0.74 9.99 -0.00 -0.03 0.10 7345
0.07 1.07 0.69 -0.68 9.94 -0.01 -0.03 0.10 7351
0.06 1.06 0.73 -0.71 9.97 -0.01 -0.03 0.10 7357
0.07 1.05 0.68 -0.67 9.93 -0.01 -0.03 0.10 7363
0.07 1.05 0.73 -0.70 9.97 -0.01 -0.03 0.10 7369
0.06 1.05 0.71 -0.68 9.95 -0.00 -0.03 0.11 7375
0.07 1.04 0.71 -0.67 9.92 -0.00 -0.03 0.10 7383
0.09 1.03 0.67 -0.68 9.97 -0.00 -0.03 0.10 7389
0.09 1.03 0.73 -0.70 9.95 0.00 -0.02 0.10 7395
0.07 1.01 0.72 -0.69 9.95 -0.00 -0.02 0.10 7401
0.08 1.02 0.69 -0.70 9.92 -0.00 -0.02 0.10 7407
0.09 1.02 0.76 -0.71 9.94 -0.00 -0.03 0.10 7413
0.06 1.01 0.71 -0.71 9.97 -0.00 -0.02 0.10 7419
0.04 1.00 0.72 -0.71 9.91 -0.00 -0.03 0.10 7426
0.05 1.01 0.72 -0.67 9.96 -0.00 -0.03 0.10 7433
0.06 1.00 0.73 -0.74 9.94 -0.00 -0.03 0.11 7439
0.06 0.99 0.72 -0.72 9.91 -0.00 -0.04 0.10 7445
0.08 0.99 0.73 -0.70 9.90 0.00 -0.04 0.10 7451
0.07 1.00 0.72 -0.68 9.94 -0.00 -0.04 0.10 7457
0.07 0.98 0.73 -0.73 9.94 -0.00 -0.04 0.10 7463
0.08 0.97 0.72 -0.68 9.92 -0.00 -0.04 0.10 7470
0.08 0.96 0.73 -0.69 9.93 -0.01 -0.04 0.09 7477
0.07 0.95 0.73 -0.74 9.92 -0.01 -0.05 0.09 7483
0.08 0.94 0.74 -0.74 9.88 -0.01 -0.05 0.09 7489
0.06 0.93 0.75 -0.71 9.93 -0.01 -0.06 0.10 7495
0.08 0.92 0.71 -0.70 9.95 -0.01 -0.07 0.09 7501
0.08 0.93 0.76 -0.70 9.89 -0.02 -0.09 0.09 7507
0.08 0.93 0.72 -0.72 9.92 -0.02 -0.09 0.09 7514
0.08 0.93 0.75 -0.73 9.94 -0.03 -0.10 0.08 7521
0.08 0.91 0.73 -0.68 9.94 -0.03 -0.10 0.09 7527
0.08 0.89 0.50 -0.70 10.31 -0.02 -0.09 0.09 7533
0.09 0.93 0.68 -0.72 10.01 -0.02 -0.09 0.08 7539
0.09 0.92 0.65 -0.69 9.99 -0.03 -0.08 0.08 7545
0.08 0.91 0.67 -0.69 9.96 -0.02 -0.08 0.09 7552
0.07 0.91 0.67 -0.71 9.95 -0.01 -0.06 0.09 7558
0.07 0.91 0.63 -0.69 9.96 -0.01 -0.06 0.09 7565
0.08 0.88 0.69 -0.70 9.98 -0.01 -0.05 0.09 7571
0.07 0.90 0.72 -0.70 9.92 -0.01 -0.05 0.09 7577
0.09 0.87 0.69 -0.70 9.94 -0.01 -0.05 0.09 7583
0.09 0.86 0.71 -0.69 9.96 0.00 -0.05 0.09 7589
0.10 0.87 0.68 -0.72 9.98 -0.01 -0.05 0.09 7596
0.11 0.83 0.71 -0.69 9.94 -0.00 -0.05 0.09 7602
0.12 0.83 0.71 -0.71 9.96 -0.00 -0.05 0.09 7609
0.11 0.84 0.73 -0.68 9.97 -0.00 -0.05 0.09 7615
0.11 0.78 0.72 -0.71 9.96 -0.00 -0.05 0.09 7621
0.13 0.80 0.73 -0.71 9.98 0.00 -0.05 0.09 7627
0.14 0.80 0.70 -0.72 9.98 0.00 -0.05 0.08 7633
0.14 0.77 0.72 -0.72 9.97 -0.00 -0.06 0.08 7640
0.14 0.75 0.68 -0.72 9.95 -0.00 -0.05 0.08 7646
0.16 0.73 0.67 -0.72 9.90 -0.00 -0.05 0.09 7653
0.14 0.74 0.65 -0.70 9.97 -0.00 -0.05 0.08 7659
0.13 0.70 0.68 -0.71 9.97 -0.00 -0.04 0.09 7665
0.14 0.69 0.67 -0.71 9.97 -0.00 -0.04 0.09 7671
0.15 0.67 0.69 -0.73 9.96 -0.00 -0.04 0.08 7677
0.14 0.63 0.71 -0.70 9.96 -0.00 -0.04 0.09 7684
0.15 0.61 0.69 -0.74 9.94 -0.00 -0.04 0.09 7690
0.15 0.59 0.71 -0.73 9.96 -0.00 -0.04 0.09 7697
0.15 0.58 0.71 -0.74 9.94 -0.00 -0.04 0.09 7703
0.14 0.57 0.71 -0.71 9.96 -0.00 -0.04 0.09 7709
0.15 0.53 0.72 -0.75 9.98 -0.00 -0.04 0.09 7715
0.15 0.57 0.68 -0.72 9.95 -0.00 -0.04 0.08 7721
0.14 0.54 0.70 -0.76 9.97 -0.00 -0.04 0.08 7728
0.15 0.48 0.71 -0.72 9.95 0.00 -0.04 0.08 7734
0.16 0.49 0.71 -0.72 9.94 -0.00 -0.04 0.08 7741
0.16 0.48 0.71 -0.76 9.93 -0.00 -0.04 0.08 7747
0.16 0.47 0.71 -0.73 9.90 -0.00 -0.04 0.09 7753
0.17 0.49 0.68 -0.72 9.96 0.00 -0.04 0.09 7759
0.18 0.46 0.70 -0.74 9.96 -0.00 -0.03 0.08 7766
0.17 0.41 0.68 -0.71 9.97 0.00 -0.03 0.09 7772
0.18 0.45 0.64 -0.70 9.94 0.01 -0.04 0.09 7778
0.19 0.39 0.69 -0.74 9.98 0.00 -0.03 0.08 7785
0.20 0.39 0.72 -0.72 9.94 0.00 -0.03 0.08 7791
0.21 0.34 0.71 -0.72 9.97 0.00 -0.03 0.09 7797
0.23 0.30 0.68 -0.75 9.97 0.00 -0.03 0.08 7803
0.22 0.32 0.70 -0.72 9.95 0.00 -0.02 0.09 7810
0.21 0.26 0.73 -0.73 9.98 0.00 -0.02 0.09 7816
0.22 0.30 0.68 -0.74 9.93 0.00 -0.03 0.09 7822
0.22 0.26 0.69 -0.73 9.98 0.00 -0.03 0.08 7829
0.21 0.27 0.68 -0.71 9.95 0.00 -0.03 0.08 7835
0.22 0.28 0.72 -0.73 9.92 0.00 -0.03 0.09 7841
0.24 0.26 0.68 -0.76 9.95 0.01 -0.02 0.09 7847
0.24 0.26 0.69 -0.72 9.93 0.01 -0.02 0.09 7854
0.23 0.25 0.74 -0.74 9.98 0.00 -0.02 0.08 7860
0.24 0.21 0.72 -0.75 9.92 0.01 -0.02 0.08 7866
0.25 0.20 0.70 -0.76 9.96 0.00 -0.02 0.09 7873
0.24 0.20 0.72 -0.74 9.95 0.00 -0.02 0.08 7879
0.24 0.19 0.73 -0.72 9.97 0.00 -0.02 0.08 7885
0.26 0.17 0.72 -0.74 9.96 -0.03 -0.02 0.09 7891
0.25 0.16 0.70 -0.75 9.90 0.00 -0.02 0.09 7898
0.25 0.14 0.73 -0.74 10.00 -0.00 -0.01 0.08 7904
0.26 0.16 0.72 -0.75 10.00 0.00 -0.02 0.08 7910
0.27 0.15 0.72 -0.75 9.94 0.00 -0.02 0.08 7917
0.28 0.15 0.75 -0.76 9.97 0.00 -0.02 0.08 7923
0.29 0.14 0.74 -0.76 9.95 0.01 -0.02 0.08 7929
0.30 0.11 0.73 -0.76 10.00 0.00 -0.02 0.09 7936
0.30 0.09 0.74 -0.76 9.96 0.00 -0.02 0.09 7942
0.29 0.09 0.75 -0.75 9.97 0.01 -0.02 0.08 7948
0.30 0.09 0.73 -0.76 9.96 0.01 -0.02 0.09 7954
0.29 0.07 0.73 -0.77 9.95 0.01 -0.02 0.09 7961
0.29 0.03 0.72 -0.78 9.99 0.01 -0.01 0.08 7967
0.30 0.07 0.73 -0.78 9.99 0.01 -0.01 0.08 7973
0.32 0.06 0.73 -0.74 9.98 0.02 -0.01 0.09 7980
0.31 0.06 0.77 -0.74 9.96 0.02 -0.01 0.09 7986
0.32 0.03 0.76 -0.73 9.97 0.02 -0.01 0.09 7992
0.34 0.02 0.77 -0.80 9.98 0.03 -0.01 0.09 7998
0.35 0.00 0.73 -0.52 9.99 0.02 -0.00 0.08 8004
0.34 -0.01 0.76 -0.78 9.99 0.03 -0.01 0.08 8011
0.33 0.02 0.75 -0.81 9.96 0.03 -0.01 0.09 8017
0.35 0.03 0.72 -0.79 9.92 0.03 -0.01 0.08 8024
0.33 0.01 0.77 -0.78 9.96 0.03 -0.01 0.09 8030
0.32 0.00 0.76 -0.77 9.93 0.03 -0.01 0.09 8036
0.35 0.01 0.78 -0.79 9.95 0.03 -0.00 0.08 8042
0.37 0.00 0.80 -0.68 9.93 0.03 -0.01 0.08 8048
0.37 -0.01 0.74 -0.77 9.97 0.03 -0.01 0.08 8055
0.37 0.01 0.82 -0.74 9.94 0.03 -0.01 0.08 8061
0.38 -0.01 0.76 -0.80 9.90 0.03 -0.01 0.08 8068
0.37 -0.02 0.77 -0.83 9.93 0.02 -0.01 0.08 8074
0.38 -0.03 0.78 -0.80 9.95 0.02 -0.01 0.07 8080
0.38 -0.02 0.82 -0.81 9.95 0.02 -0.01 0.07 8086
0.38 -0.03 0.75 -0.82 9.90 0.02 -0.01 0.08 8092
0.38 -0.03 0.86 -0.84 10.00 0.02 -0.01 0.07 8099
0.37 -0.02 0.79 -0.87 9.91 0.03 -0.00 0.06 8105
0.38 -0.01 0.74 -0.85 10.03 0.03 -0.00 0.06 8112
0.39 -0.03 0.86 -0.82 10.02 0.03 -0.00 0.05 8118
0.37 -0.03 0.83 -0.87 9.96 0.04 0.00 0.05 8124
0.37 -0.02 0.87 -0.84 9.94 0.05 0.01 0.05 8130
0.38 -0.03 0.92 -0.94 10.02 0.06 0.02 0.04 8136
0.37 -0.04 0.79 -0.80 10.07 0.08 0.03 0.03 8143
0.37 -0.02 1.13 -0.72 9.96 0.10 0.05 0.02 8150
0.38 -0.01 1.24 -0.90 9.93 0.13 0.08 0.01 8156
0.37 -0.02 1.06 -0.91 10.07 0.20 0.11 -0.00 8162
0.36 -0.02 1.23 -0.77 11.94 0.29 0.16 -0.02 8168
0.38 -0.01 0.90 -1.01 10.36 0.43 0.22 -0.03 8174
0.35 -0.02 0.81 -0.95 11.09 0.56 0.31 -0.04 8181
0.34 -0.00 0.85 -0.91 9.90 0.65 0.35 -0.06 8187
0.36 -0.02 0.79 -1.05 10.27 0.73 0.37 -0.06 8194
0.31 -0.03 1.17 -1.25 10.49 0.81 0.35 -0.08 8200
0.30 -0.02 1.14 -1.26 10.64 0.87 0.31 -0.08 8206
0.29 -0.02 1.19 -1.39 11.25 0.90 0.25 -0.09 8213
0.31 -0.03 1.31 -1.36 10.78 0.93 0.21 -0.10 8219
0.30 -0.02 1.18 -1.51 10.71 1.00 0.17 -0.10 8225
0.28 -0.02 1.40 -1.59 10.47 0.99 0.15 -0.11 8231
0.28 -0.02 1.11 -1.74 10.55 1.01 0.10 -0.11 8238
0.26 -0.01 1.24 -1.71 10.47 1.03 0.11 -0.11 8245
0.22 -0.01 1.29 -1.73 10.37 1.06 0.10 -0.11 8251
0.22 -0.02 1.32 -1.83 10.33 1.06 0.11 -0.11 8257
0.18 -0.01 1.22 -1.93 10.22 1.07 0.10 -0.11 8263
0.14 0.00 1.20 -2.00 10.43 1.08 0.10 -0.10 8269
0.13 0.00 1.13 -2.05 10.31 1.08 0.11 -0.09 8276
0.17 0.01 1.23 -2.17 10.28 1.09 0.13 -0.08 8283
0.14 -0.01 1.08 -2.30 10.17 1.10 0.16 -0.08 8289
0.14 -0.00 1.06 -2.33 10.01 1.10 0.17 -0.06 8295
0.13 -0.00 1.11 -2.49 9.97 1.10 0.19 -0.05 8301
0.09 -0.00 1.07 -2.64 9.96 1.09 0.22 -0.03 8308
0.10 -0.00 1.13 -2.75 9.87 1.08 0.25 -0.01 8314
0.11 0.01 1.07 -2.66 9.65 1.07 0.29 0.01 8321
0.10 -0.01 1.01 -2.89 9.87 1.06 0.34 0.04 8327
0.08 -0.01 0.87 -2.94 10.05 1.06 0.42 0.07 8333
0.08 -0.01 1.02 -3.11 10.05 1.05 0.52 0.10 8339
0.10 -0.01 1.05 -3.17 10.14 1.05 0.60 0.13 8345
0.06 -0.01 1.18 -3.25 10.24 1.05 0.69 0.16 8352
0.08 -0.01 1.11 -3.41 10.32 1.06 0.78 0.18 8358
0.09 -0.01 1.05 -3.48 10.34 1.06 0.85 0.22 8365
0.07 -0.01 1.09 -3.65 10.51 1.07 0.92 0.25 8371
0.08 -0.01 1.14 -3.82 10.38 1.08 0.98 0.29 8377
0.09 -0.00 0.93 -3.91 10.47 1.09 1.02 0.33 8383
0.11 -0.01 0.85 -4.24 10.51 1.09 1.06 0.38 8390
0.08 -0.01 0.74 -4.82 10.64 1.10 1.11 0.44 8396
0.10 -0.01 1.10 -4.37 10.75 1.11 1.16 0.49 8402
0.09 -0.01 1.37 -3.96 11.03 1.11 1.19 0.57 8409
0.09 -0.01 2.18 -4.10 11.76 1.07 1.24 0.62 8415
0.08 -0.00 2.80 -3.70 11.75 1.00 1.50 0.62 8421
0.09 -0.01 3.00 -3.71 11.50 0.94 1.73 0.59 8428
0.08 -0.01 2.58 -3.94 11.25 0.90 1.88 0.57 8434
0.08 -0.01 1.96 -4.13 10.85 0.88 1.93 0.56 8440
0.09 -0.01 1.77 -4.29 10.24 0.87 1.88 0.56 8446
0.09 -0.01 1.58 -4.22 9.87 0.85 1.83 0.56 8453
0.08 -0.01 1.91 -4.39 8.96 0.86 1.68 0.58 8459
0.08 -0.01 1.35 -4.34 8.64 0.89 1.48 0.59 8465
0.07 -0.01 1.51 -4.13 8.51 0.92 1.21 0.60 8471
0.08 -0.01 -0.44 -3.61 8.32 0.94 0.90 0.59 8478
0.07 -0.01 -1.02 -2.60 7.86 0.94 0.56 0.44 8484
0.08 -0.00 -2.12 -2.32 7.71 0.85 0.13 0.19 8491
0.06 -0.01 -4.14 -1.90 8.36 0.75 -0.17 -0.21 8497
0.07 -0.01 -3.74 -1.91 8.81 0.62 -0.52 -0.60 8503
0.07 -0.01 -4.76 -1.37 9.27 0.48 -0.82 -1.05 8509
0.09 -0.00 -3.93 -1.74 10.16 0.35 -1.03 -1.44 8515
0.09 -0.01 -2.75 -1.65 10.23 0.22 -1.21 -1.79 8522
0.07 -0.01 -1.12 -1.84 10.07 0.14 -1.37 -1.99 8528
0.09 -0.01 -1.60 -1.32 10.17 0.06 -1.52 -2.09 8535
0.07 -0.01 0.54 -1.66 10.01 -0.03 -1.61 -2.26 8541
0.05 -0.00 -0.39 -1.80 9.92 -0.12 -1.74 -2.28 8547
0.07 -0.00 -0.00 -1.81 10.22 -0.15 -1.78 -2.26 8553
0.08 -0.01 1.91 -1.90 9.41 -0.19 -1.74 -2.27 8560
0.07 -0.01 3.22 -1.67 8.66 -0.22 -1.72 -2.21 8566
0.07 -0.00 3.36 -1.47 9.14 -0.24 -1.67 -2.13 8572
0.08 -0.01 4.33 -1.31 8.52 -0.27 -1.57 -2.10 8579
0.08 -0.01 3.49 -1.74 8.31 -0.30 -1.51 -2.05 8585
0.07 -0.00 3.70 -1.92 8.65 -0.34 -1.43 -1.93 8591
0.07 -0.00 3.22 -1.95 8.82 -0.35 -1.35 -1.81 8597
0.08 -0.01 3.42 -2.01 8.84 -0.35 -1.29 -1.70 8604
0.06 -0.01 3.30 -1.88 8.84 -0.36 -1.27 -1.55 8610
0.08 -0.00 3.13 -2.18 8.73 -0.36 -1.23 -1.44 8616
0.08 -0.01 2.76 -1.92 8.95 -0.40 -1.21 -1.32 8623
0.08 -0.01 3.80 -2.17 9.00 -0.43 -1.20 -1.18 8629
0.07 -0.01 3.24 -2.00 9.11 -0.48 -1.15 -1.08 8635
0.07 -0.01 3.66 -2.02 9.12 -0.51 -1.12 -0.99 8641
0.07 -0.01 3.56 -2.38 8.91 -0.56 -1.01 -0.93 8648
0.06 -0.01 2.72 -2.14 9.27 -0.58 -0.97 -0.87 8654
0.06 -0.01 2.75 -2.13 9.11 -0.61 -0.86 -0.85 8660
0.06 -0.01 2.85 -2.24 8.76 -0.63 -0.75 -0.82 8667
0.06 -0.01 3.14 -2.88 9.07 -0.65 -0.66 -0.78 8673
0.04 -0.00 3.24 -2.44 9.09 -0.65 -0.58 -0.71 8679
0.05 -0.00 3.77 -1.95 8.66 -0.64 -0.53 -0.63 8685
0.05 -0.01 3.16 -2.18 8.23 -0.65 -0.50 -0.56 8691
0.05 -0.00 3.19 -2.63 8.90 -0.66 -0.48 -0.48 8698
0.05 -0.00 2.50 -3.02 9.52 -0.66 -0.47 -0.39 8705
0.05 -0.00 -1.17 -13.82 4.92 -0.65 -0.41 -0.29 8711
0.05 -0.01 -0.77 -1.36 17.55 -0.67 -0.38 -0.21 8717
0.05 -0.00 1.33 -3.62 8.89 -0.71 -0.39 -0.13 8723
0.05 -0.00 1.64 -3.17 9.88 -0.74 -0.37 -0.10 8729
0.06 -0.01 1.76 -2.74 9.69 -0.78 -0.33 -0.10 8735
0.05 -0.00 2.25 -2.36 9.39 -0.78 -0.30 -0.12 8741
0.05 -0.01 2.46 -3.04 9.14 -0.81 -0.26 -0.18 8749
0.06 -0.00 2.17 -2.57 9.80 -0.83 -0.25 -0.26 8755
0.06 -0.01 2.40 -3.15 9.36 -0.83 -0.23 -0.29 8761
0.05 -0.01 2.83 -2.27 9.24 -0.85 -0.24 -0.35 8767
0.04 -0.00 3.02 -3.20 9.14 -0.86 -0.22 -0.40 8773
0.07 -0.01 3.23 -2.79 9.44 -0.86 -0.19 -0.44 8779
0.05 -0.01 2.35 -3.48 9.95 -0.86 -0.17 -0.46 8785
0.05 -0.00 2.47 -3.30 9.33 -0.87 -0.13 -0.46 8792
0.05 -0.00 3.23 -2.40 9.87 -0.88 -0.09 -0.46 8799
0.06 -0.01 3.42 -3.03 9.62 -0.90 -0.03 -0.44 8805
0.05 -0.00 3.01 -3.06 10.07 -0.93 0.04 -0.42 8811
0.04 -0.00 3.19 -2.49 9.73 -0.95 0.06 -0.37 8817
0.05 0.00 3.03 -2.90 9.79 -0.98 0.10 -0.33 8823
0.06 -0.01 2.91 -3.20 9.70 -0.98 0.11 -0.25 8829
0.05 -0.01 3.13 -3.16 9.91 -0.98 0.14 -0.17 8836
0.04 -0.00 3.20 -3.05 9.80 -0.99 0.16 -0.11 8842
0.05 -0.01 3.19 -3.11 9.67 -0.98 0.18 -0.04 8848
0.05 -0.01 3.14 -3.38 9.64 -0.95 0.18 0.04 8855
0.05 -0.01 3.23 -3.46 9.60 -0.92 0.20 0.11 8861
0.05 -0.01 3.19 -3.52 9.54 -0.88 0.22 0.18 8867
0.06 -0.00 3.19 -3.54 9.64 -0.84 0.24 0.25 8873
0.06 -0.01 3.22 -3.48 9.58 -0.80 0.27 0.31 8880
0.05 -0.01 3.11 -3.52 9.57 -0.76 0.31 0.36 8886
0.04 -0.00 3.07 -3.52 9.65 -0.73 0.33 0.41 8892
0.05 -0.01 3.03 -3.48 9.74 -0.69 0.35 0.47 8898
0.06 -0.01 3.04 -3.48 9.83 -0.66 0.37 0.52 8904
0.06 -0.01 3.05 -3.46 9.82 -0.64 0.40 0.55 8911
0.06 -0.01 3.00 -3.41 9.81 -0.62 0.43 0.59 8918
0.06 -0.01 2.93 -3.43 9.81 -0.61 0.47 0.62 8924
0.06 -0.01 2.83 -3.46 9.85 -0.59 0.52 0.64 8930
0.06 -0.01 2.68 -3.44 9.85 -0.58 0.57 0.67 8936
0.06 -0.01 2.52 -3.37 9.88 -0.57 0.61 0.69 8942
0.06 -0.01 2.40 -3.32 10.00 -0.55 0.65 0.71 8948
0.05 -0.01 2.35 -3.23 10.11 -0.54 0.68 0.74 8954
0.04 -0.00 2.17 -3.13 10.24 -0.53 0.69 0.76 8962
0.06 -0.00 2.05 -3.06 10.35 -0.53 0.70 0.79 8968
0.07 -0.01 1.88 -2.99 10.35 -0.54 0.69 0.81 8974
0.05 -0.00 1.82 -2.93 10.33 -0.54 0.66 0.84 8980
0.06 -0.01 1.79 -2.95 10.28 -0.55 0.61 0.85 8986
0.05 -0.00 1.76 -2.94 10.25 -0.55 0.57 0.86 8992
0.05 -0.00 1.83 -2.88 10.15 -0.54 0.53 0.86 8999
0.05 -0.00 1.97 -2.85 10.10 -0.54 0.49 0.86 9006
0.06 -0.01 2.17 -2.83 10.12 -0.53 0.48 0.84 9012
0.05 -0.00 2.35 -2.80 10.22 -0.53 0.50 0.82 9018
0.04 -0.00 2.53 -2.72 10.27 -0.53 0.53 0.80 9024
0.05 -0.00 2.74 -2.61 10.37 -0.53 0.60 0.78 9030
0.04 -0.00 2.85 -2.51 10.47 -0.55 0.66 0.75 9036
0.04 -0.00 2.91 -2.47 10.54 -0.59 0.74 0.73 9043
0.05 -0.00 2.89 -2.51 10.59 -0.62 0.81 0.71 9050
0.05 -0.00 2.85 -2.63 10.66 -0.67 0.88 0.68 9056
0.04 -0.00 2.86 -2.79 10.63 -0.71 0.94 0.66 9062
0.05 0.00 2.91 -2.84 10.44 -0.75 1.00 0.64 9068
0.05 -0.00 1.82 -4.03 10.07 -0.77 1.07 0.62 9074
0.05 -0.01 -2.00 -3.15 10.58 -0.85 0.63 0.47 9081
0.05 -0.00 0.30 -2.68 9.32 -0.80 0.55 0.50 9088
0.06 -0.01 -0.32 -4.08 9.20 -0.86 0.48 0.54 9094
0.05 -0.00 -1.92 -4.86 9.65 -0.84 0.35 0.54 9100
0.05 -0.00 -1.96 -5.51 11.07 -0.77 0.17 0.53 9106
0.04 -0.00 -5.56 -3.38 9.78 -0.39 -0.66 0.62 9112
0.05 -0.01 -2.35 -7.05 8.09 -0.21 -0.61 0.76 9118
0.05 -0.00 -2.05 -7.06 6.84 -0.13 -0.75 0.82 9124
0.04 -0.00 -2.22 -6.99 8.40 -0.00 -0.96 0.88 9131
0.04 -0.00 -3.67 -8.67 7.57 0.05 -1.09 0.93 9138
0.05 -0.01 2.71 -8.01 12.74 0.64 -0.44 1.36 9144
0.04 -0.00 -7.80 -12.85 15.50 0.61 -0.74 1.57 9150
0.04 -0.00 -12.55 -11.64 10.93 0.38 -1.24 1.53 9156
0.05 -0.00 -13.91 -17.02 10.49 0.48 -1.67 1.71 9163
0.03 -0.00 -18.10 -16.55 12.93 0.53 -1.74 1.61 9169
0.05 0.00 -8.23 -13.49 13.41 0.21 -0.52 0.88 9176
0.09 -0.01 -5.62 -5.15 5.98 -0.04 -0.16 0.01 9182
0.08 0.01 -1.95 -2.11 9.19 -0.29 0.34 -0.10 9188
0.06 0.02 -0.35 -0.29 11.04 -0.43 0.54 -0.08 9194
0.05 0.03 1.68 -0.26 10.89 -0.44 0.16 0.06 9201
0.04 0.04 2.45 -0.13 8.68 -0.17 -0.09 0.10 9207
0.04 0.04 1.60 -0.90 10.85 -0.12 -0.06 0.10 9213
0.04 0.04 1.13 -0.92 10.11 -0.10 -0.06 0.10 9220
0.04 0.06 0.70 -0.83 10.11 -0.06 -0.02 0.07 9226
0.03 0.06 0.50 -0.78 10.01 -0.03 0.01 0.06 9233
0.07 0.05 0.47 -0.86 9.99 -0.03 0.01 0.06 9239
0.08 0.08 0.80 -1.01 10.11 -0.03 -0.00 0.06 9245
0.09 0.09 0.89 -1.12 10.05 -0.02 -0.01 0.07 9251
0.10 0.07 0.83 -1.00 10.13 -0.02 -0.03 0.07 9257
0.09 0.06 0.67 -0.91 10.07 -0.01 -0.03 0.08 9264
0.11 0.06 0.67 -0.85 10.02 -0.00 -0.03 0.07 9271
0.09 0.07 0.71 -0.91 10.05 -0.00 -0.03 0.07 9277
0.10 0.07 0.75 -0.97 9.98 -0.00 -0.03 0.04 9283
0.12 0.07 0.73 -0.93 9.95 -0.01 -0.03 0.06 9289
0.14 0.07 0.70 -0.90 9.87 -0.01 -0.03 0.06 9295
0.14 0.06 0.71 -0.90 9.88 -0.02 -0.03 0.05 9302
0.12 0.06 0.70 -0.88 9.89 -0.03 -0.04 0.06 9308
0.12 0.06 0.70 -0.89 9.91 -0.03 -0.04 0.05 9315
0.15 0.05 0.63 -0.81 9.93 -0.03 -0.04 0.06 9321
0.15 0.02 0.63 -0.84 9.93 -0.03 -0.04 0.05 9327
0.15 0.03 0.63 -0.88 9.98 -0.02 -0.04 0.06 9333
0.17 0.04 0.63 -0.83 9.97 -0.01 -0.04 0.07 9339
0.17 0.03 0.63 -0.84 10.01 -0.01 -0.04 0.08 9346
0.18 0.03 0.39 -0.83 9.77 -0.00 -0.03 0.08 9352
0.22 0.03 0.67 -0.84 9.98 0.00 -0.03 0.09 9359
0.22 0.02 0.68 -0.86 9.98 0.00 -0.03 0.09 9365
0.25 -0.00 0.66 -0.85 9.92 0.00 -0.03 0.09 9371
0.26 0.01 0.67 -0.86 9.93 0.00 -0.03 0.09 9377
0.29 0.01 0.67 -0.87 9.93 0.00 -0.03 0.09 9383
0.30 0.00 0.65 -0.86 9.92 -0.00 -0.03 0.09 9390
0.31 -0.00 0.70 -0.86 9.93 -0.00 -0.03 0.09 9396
0.33 0.00 0.69 -0.87 9.92 -0.01 -0.03 0.09 9402
0.35 0.00 0.66 -0.87 9.90 -0.01 -0.04 0.09 9409
0.33 0.01 0.65 -0.85 9.90 -0.02 -0.04 0.09 9415
0.33 0.02 0.65 -0.86 9.87 -0.03 -0.04 0.10 9421
0.37 0.02 0.79 -0.96 9.95 -0.03 -0.04 0.10 9427
0.40 0.01 0.64 -0.81 9.89 -0.04 -0.05 0.09 9434
0.41 0.00 0.66 -0.81 9.90 -0.04 -0.05 0.10 9440
0.43 0.03 0.62 -0.85 9.92 -0.05 -0.05 0.10 9446
0.43 0.05 0.65 -0.82 9.96 -0.05 -0.05 0.11 9453
0.44 0.05 0.64 -0.83 9.94 -0.04 -0.05 0.10 9459
0.46 0.05 0.67 -0.82 9.94 -0.04 -0.05 0.10 9465
0.47 0.08 0.71 -0.82 9.95 -0.04 -0.05 0.10 9472
0.46 0.06 0.64 -0.83 10.00 -0.04 -0.05 0.10 9478
0.46 0.08 0.68 -0.82 9.96 -0.04 -0.04 0.10 9484
0.48 0.09 0.67 -0.80 9.97 -0.04 -0.04 0.10 9490
0.50 0.08 0.68 -0.82 9.97 -0.03 -0.04 0.10 9497
0.48 0.07 0.68 -0.81 9.98 -0.03 -0.04 0.11 9503
0.49 0.11 0.69 -0.81 9.98 -0.03 -0.04 0.10 9509
0.51 0.13 0.70 -0.80 9.97 -0.02 -0.03 0.10 9516
0.49 0.14 0.63 -0.77 9.95 -0.02 -0.04 0.10 9522
0.49 0.14 0.69 -0.82 9.97 -0.02 -0.04 0.10 9528
0.50 0.15 0.68 -0.84 9.92 -0.02 -0.04 0.11 9534
0.50 0.15 0.68 -0.79 9.96 -0.02 -0.04 0.07 9541
0.52 0.13 0.64 -0.80 9.91 -0.02 -0.04 0.10 9547
0.53 0.13 0.69 -0.81 9.98 -0.02 -0.04 0.10 9553
0.54 0.14 0.68 -0.79 9.99 -0.02 -0.05 0.10 9560
0.54 0.15 0.68 -0.81 9.95 -0.02 -0.05 0.09 9566
0.53 0.16 0.68 -0.79 9.94 -0.02 -0.05 0.10 9572
0.54 0.17 0.66 -0.79 9.90 -0.02 -0.05 0.10 9579
0.53 0.13 0.69 -0.82 9.97 -0.02 -0.05 0.10 9585
0.54 0.12 0.67 -0.74 9.96 -0.02 -0.05 0.10 9591
0.56 0.12 0.65 -0.81 9.92 -0.02 -0.05 0.10 9597
0.56 0.11 0.66 -0.80 9.93 -0.02 -0.05 0.10 9604
0.56 0.10 0.69 -0.81 9.96 -0.01 -0.05 0.10 9610
0.57 0.10 0.64 -0.79 9.98 -0.01 -0.05 0.10 9616
0.58 0.10 0.69 -0.76 9.98 -0.01 -0.04 0.10 9623
0.57 0.12 0.67 -0.77 9.97 -0.01 -0.04 0.10 9629
0.56 0.12 0.64 -0.77 9.99 -0.01 -0.04 0.09 9635
0.58 0.13 0.66 -0.79 9.98 -0.01 -0.04 0.09 9641
0.58 0.12 0.65 -0.81 9.93 -0.01 -0.04 0.10 9648
0.59 0.12 0.64 -0.81 9.95 -0.01 -0.04 0.09 9654
0.59 0.13 0.69 -0.80 9.95 -0.01 -0.05 0.09 9660
0.61 0.11 0.64 -0.80 9.92 -0.01 -0.05 0.09 9667
0.60 0.10 0.67 -0.79 9.95 -0.01 -0.05 0.09 9673
0.60 0.12 0.68 -0.81 9.94 -0.01 -0.04 0.09 9679
0.61 0.12 0.66 -0.80 9.93 -0.01 -0.04 0.09 9686
0.61 0.12 0.65 -0.80 9.94 -0.01 -0.04 0.09 9692
0.60 0.11 0.66 -0.77 9.95 -0.01 -0.04 0.09 9698
0.61 0.12 0.68 -0.79 9.88 -0.01 -0.05 0.09 9704
0.61 0.11 0.63 -0.81 9.95 -0.01 -0.05 0.08 9711
0.61 0.11 0.64 -0.79 9.94 -0.02 -0.04 0.09 9717
0.60 0.13 0.66 -0.80 9.96 -0.01 -0.05 0.08 9723
0.62 0.12 0.65 -0.78 9.99 -0.01 -0.05 0.09 9730
0.60 0.12 0.66 -0.82 9.95 -0.01 -0.04 0.09 9736
0.60 0.13 0.66 -0.79 9.93 -0.01 -0.04 0.08 9742
0.60 0.16 0.65 -0.80 9.99 -0.01 -0.04 0.09 9748
0.61 0.14 0.64 -0.80 9.97 -0.00 -0.04 0.08 9755
0.60 0.12 0.68 -0.78 9.93 -0.00 -0.03 0.09 9761
0.61 0.13 0.64 -0.79 9.95 -0.00 -0.03 0.09 9767
0.62 0.13 0.61 -0.77 9.94 -0.00 -0.03 0.09 9774
0.61 0.11 0.63 -0.78 9.99 0.00 -0.03 0.09 9780
0.60 0.12 0.66 -0.78 9.95 0.00 -0.03 0.09 9786
0.60 0.12 0.67 -0.77 9.97 -0.00 -0.03 0.08 9792
0.61 0.13 0.66 -0.80 9.99 0.00 -0.03 0.09 9799
0.61 0.10 0.68 -0.79 9.94 0.00 -0.03 0.08 9805
0.61 0.11 0.66 -0.78 9.96 0.00 -0.03 0.09 9811
0.62 0.12 0.63 -0.78 9.94 -0.00 -0.03 0.09 9818
0.61 0.12 0.65 -0.78 9.95 -0.00 -0.03 0.08 9824
0.60 0.09 0.66 -0.81 9.94 -0.00 -0.03 0.08 9830
0.61 0.10 0.67 -0.76 9.93 -0.00 -0.03 0.09 9836
0.61 0.10 0.67 -0.82 9.96 -0.00 -0.03 0.09 9842
0.61 0.09 0.66 -0.78 9.97 -0.00 -0.03 0.09 9849
0.60 0.11 0.65 -0.79 9.95 -0.00 -0.02 0.09 9856
0.62 0.09 0.64 -0.79 9.94 0.00 -0.02 0.09 9862
0.61 0.08 0.61 -0.79 9.95 0.00 -0.02 0.09 9868
0.61 0.05 0.65 -0.79 9.90 0.00 -0.02 0.09 9874
0.60 0.07 0.68 -0.79 9.92 0.00 -0.01 0.08 9880
0.60 0.10 0.66 -0.80 9.93 0.01 -0.01 0.09 9886
0.59 0.07 0.67 -0.81 9.93 0.00 -0.01 0.09 9892
0.57 0.09 0.67 -0.84 9.98 0.00 -0.01 0.08 9900
0.57 0.09 0.66 -0.80 9.98 0.00 -0.01 0.10 9906
0.57 0.05 0.67 -0.78 9.95 0.00 -0.00 0.09 9912
0.55 0.02 0.68 -0.83 9.95 0.00 -0.00 0.10 9918
0.55 0.06 0.68 -0.80 9.97 0.01 0.00 0.09 9924
0.54 0.04 0.73 -0.83 9.93 0.00 -0.00 0.09 9930
0.52 0.06 0.71 -0.80 10.03 0.01 0.00 0.09 9936
0.50 0.05 0.72 -0.82 9.93 0.01 -0.00 0.09 9944
0.49 0.01 0.69 -0.80 9.92 0.00 -0.01 0.09 9950
0.49 0.03 0.73 -0.82 9.93 0.00 -0.01 0.09 9956
0.48 0.01 0.71 -0.82 9.94 0.00 -0.00 0.08 9962
0.47 0.04 0.70 -0.83 9.96 -0.00 -0.01 0.09 9968
0.47 0.06 0.71 -0.80 9.95 0.00 -0.01 0.09 9974
0.47 0.03 0.72 -0.83 9.98 0.00 -0.00 0.09 9980
0.45 0.03 0.70 -0.85 9.98 0.00 -0.00 0.09 9987
0.45 0.05 0.74 -0.78 9.95 0.00 -0.00 0.08 9993
0.46 0.03 0.72 -0.81 9.94 0.00 -0.00 0.09 10000
0.46 0.02 0.73 -0.81 9.94 0.00 -0.00 0.09 10006
0.45 0.03 0.74 -0.83 9.94 0.00 -0.00 0.09 10012
0.44 0.03 0.73 -0.82 9.95 0.01 -0.01 0.09 10018
0.43 0.03 0.72 -0.82 9.95 0.00 -0.01 0.09 10024
0.43 0.02 0.71 -0.84 9.96 0.01 -0.00 0.09 10031
0.45 0.03 0.76 -0.82 9.95 0.00 -0.01 0.10 10038
0.43 0.00 0.72 -0.82 9.94 0.01 -0.00 0.09 10044
0.42 -0.00 0.74 -0.81 9.96 0.01 -0.00 0.09 10050
0.42 0.03 0.74 -0.80 9.93 0.01 0.00 0.09 10056
0.42 -0.02 0.75 -0.81 9.91 0.00 -0.00 0.09 10062
0.40 -0.00 0.76 -0.84 9.94 0.00 0.00 0.08 10070
0.39 -0.00 0.74 -0.82 9.97 0.00 -0.00 0.09 10076
0.41 -0.02 0.79 -0.84 9.95 0.01 0.00 0.08 10082
0.38 -0.00 0.77 -0.80 9.91 0.01 0.01 0.09 10088
0.38 0.00 0.73 -0.83 9.91 0.01 0.00 0.09 10094
0.39 -0.00 0.77 -0.80 9.89 0.01 0.00 0.09 10100
0.37 -0.01 0.75 -0.80 9.92 0.01 0.00 0.09 10107
0.37 -0.01 0.75 -0.83 9.97 0.01 -0.00 0.09 10114
0.38 0.00 0.76 -0.82 9.91 0.00 -0.00 0.09 10120
0.37 -0.02 0.79 -0.85 9.93 0.01 -0.00 0.09 10126
0.37 -0.01 0.76 -0.83 9.96 0.01 0.00 0.09 10132
0.38 -0.00 0.76 -0.81 9.94 0.01 -0.00 0.10 10138
0.36 -0.01 0.77 -0.85 9.96 0.01 -0.00 0.10 10145
0.36 -0.01 0.78 -0.85 9.95 0.01 0.00 0.09 10151
0.37 0.01 0.79 -0.84 9.94 0.01 0.00 0.09 10158
0.38 -0.01 0.80 -0.84 9.96 0.01 -0.00 0.09 10164
0.37 -0.04 0.78 -0.85 9.93 0.01 0.00 0.09 10170
0.37 -0.01 0.79 -0.83 9.91 0.01 -0.00 0.09 10176
0.37 -0.03 0.79 -0.84 9.90 0.01 -0.00 0.09 10183
0.36 -0.04 0.84 -0.84 9.92 0.01 -0.00 0.09 10189
0.37 -0.02 0.82 -0.81 9.96 0.01 -0.00 0.09 10195
0.37 -0.03 0.85 -0.87 9.95 0.02 -0.00 0.08 10202
0.35 -0.03 0.85 -0.88 9.95 0.01 -0.00 0.08 10208
0.34 -0.02 0.83 -0.83 9.92 0.02 -0.01 0.07 10214
0.36 -0.02 0.85 -0.87 9.94 0.02 -0.01 0.08 10221
0.35 -0.04 0.80 -0.87 9.89 0.02 -0.01 0.06 10227
0.37 -0.02 0.76 -0.86 9.95 0.02 -0.01 0.07 10233
0.37 -0.02 0.83 -0.87 9.95 0.02 -0.00 0.07 10240
0.38 -0.04 0.83 -0.89 9.96 0.02 -0.00 0.06 10246
0.38 -0.02 0.87 -0.87 9.88 0.02 -0.00 0.07 10252
0.38 -0.01 0.81 -0.87 9.93 0.02 0.00 0.06 10259
0.36 -0.02 0.88 -0.95 9.96 0.02 0.00 0.05 10265
0.35 -0.03 0.88 -0.89 9.93 0.02 0.00 0.05 10271
0.36 -0.02 0.90 -0.92 9.92 0.02 0.00 0.05 10277
0.37 -0.02 0.93 -0.91 9.90 0.02 0.00 0.04 10284
0.36 -0.03 0.87 -0.92 9.96 0.02 0.01 0.04 10290
0.37 -0.01 0.81 -0.91 9.97 0.02 0.01 0.04 10297
0.36 -0.02 0.87 -0.88 9.96 0.03 0.01 0.04 10303
0.37 -0.03 0.82 -0.91 9.96 0.03 0.02 0.04 10309
0.38 -0.01 0.90 -0.90 9.91 0.03 0.02 0.04 10315
0.41 -0.03 0.91 -0.95 9.94 0.03 0.03 0.04 10321
0.39 -0.03 0.86 -0.95 9.94 0.04 0.03 0.03 10328
0.35 -0.01 0.91 -0.93 9.94 0.05 0.04 0.03 10335
0.38 -0.02 0.83 -0.84 9.95 0.06 0.04 0.03 10341
0.37 -0.03 0.86 -0.96 9.89 0.06 0.05 0.03 10347
0.36 -0.01 0.93 -0.92 9.92 0.07 0.06 0.02 10353
0.36 -0.02 0.89 -0.97 9.90 0.08 0.07 0.02 10359
0.34 -0.02 0.93 -0.97 9.91 0.08 0.08 0.03 10366
0.34 -0.02 0.94 -0.97 9.90 0.08 0.08 0.03 10373
0.33 -0.02 0.95 -0.99 9.95 0.09 0.08 0.03 10379
0.30 -0.03 0.95 -1.01 9.97 0.11 0.10 0.02 10385
0.29 -0.01 0.96 -0.98 10.00 0.13 0.12 0.02 10391
0.28 -0.01 1.01 -1.04 10.06 0.16 0.15 0.02 10398
0.27 -0.02 1.33 -1.00 10.10 0.19 0.19 0.02 10404
0.28 -0.01 0.97 -1.03 10.07 0.23 0.22 0.02 10411
0.23 -0.01 1.13 -1.07 10.03 0.28 0.26 0.02 10417
0.23 -0.01 1.20 -1.05 10.04 0.33 0.31 0.03 10424
0.23 -0.01 1.13 -1.13 10.21 0.39 0.37 0.02 10430
0.22 -0.02 1.16 -1.13 10.15 0.46 0.43 0.01 10436
0.18 -0.00 1.11 -1.18 10.25 0.53 0.46 0.01 10442
0.17 -0.01 1.16 -1.25 10.32 0.59 0.48 0.01 10449
0.18 -0.01 1.30 -1.31 10.30 0.65 0.48 0.01 10456
0.19 -0.01 1.35 -1.38 10.14 0.68 0.48 -0.01 10462
0.15 -0.01 1.45 -1.48 10.07 0.70 0.46 -0.03 10468
0.15 -0.00 1.36 -1.51 10.25 0.71 0.45 -0.04 10475
0.13 -0.01 1.43 -1.54 10.07 0.72 0.44 -0.03 10481
0.14 -0.01 1.48 -1.60 10.12 0.72 0.45 -0.04 10487
0.12 -0.01 1.44 -1.71 10.14 0.73 0.45 -0.04 10493
0.12 -0.01 1.46 -1.78 10.26 0.73 0.43 -0.03 10501
0.13 -0.01 1.48 -1.80 10.23 0.73 0.43 -0.03 10507
0.10 -0.01 1.55 -1.90 10.31 0.74 0.44 -0.02 10513
0.10 -0.00 1.53 -1.96 10.17 0.74 0.44 -0.02 10519
0.09 -0.00 1.64 -1.99 10.17 0.75 0.46 -0.01 10526
0.09 -0.01 1.67 -2.04 10.18 0.76 0.48 -0.01 10532
0.11 -0.01 1.78 -2.12 10.19 0.78 0.49 -0.01 10539
0.10 -0.01 1.87 -2.11 10.29 0.80 0.51 -0.02 10545
0.06 -0.01 1.81 -2.20 10.15 0.81 0.54 -0.02 10551
0.09 -0.01 1.83 -2.30 10.08 0.83 0.54 -0.02 10558
0.09 -0.01 2.12 -2.42 10.00 0.85 0.54 -0.02 10564
0.08 -0.01 1.97 -2.38 10.16 0.87 0.56 -0.03 10570
0.09 -0.01 2.02 -3.05 9.98 0.87 0.59 -0.03 10576
0.07 -0.01 2.05 -2.51 10.02 0.88 0.60 -0.02 10583
0.05 -0.00 2.05 -2.61 9.98 0.88 0.61 -0.02 10589
0.11 -0.00 2.14 -2.69 9.86 0.89 0.63 -0.02 10596
0.09 -0.01 2.14 -2.72 9.89 0.89 0.65 -0.02 10602
0.06 -0.01 2.22 -2.80 9.72 0.89 0.67 -0.02 10608
0.08 -0.00 2.21 -2.95 9.70 0.88 0.68 -0.01 10614
0.09 -0.01 2.15 -2.98 9.75 0.88 0.70 -0.00 10620
0.09 -0.01 2.14 -3.07 9.76 0.88 0.72 0.01 10627
0.08 -0.01 2.32 -3.14 9.73 0.88 0.71 0.03 10634
0.10 0.00 2.33 -3.27 9.81 0.88 0.72 0.04 10640
0.10 -0.01 2.32 -3.27 9.20 0.89 0.73 0.06 10646
0.08 -0.01 2.40 -3.31 9.72 0.89 0.73 0.08 10652
0.10 0.00 2.43 -3.43 9.79 0.90 0.73 0.09 10658
0.10 -0.01 2.49 -3.51 9.80 0.92 0.73 0.11 10664
0.10 -0.01 2.64 -3.56 9.86 0.97 0.73 0.12 10671
0.10 -0.01 2.60 -3.64 9.86 0.95 0.74 0.14 10678
0.11 -0.01 2.63 -3.76 9.80 0.97 0.74 0.15 10684
0.11 -0.01 2.61 -4.02 9.93 0.98 0.75 0.18 10690
0.10 -0.01 2.42 -3.86 10.01 0.99 0.76 0.19 10696
0.12 -0.01 2.70 -3.95 10.13 0.99 0.77 0.22 10702
0.12 -0.01 2.76 -4.08 10.18 0.99 0.79 0.24 10710
0.10 -0.01 2.70 -4.08 10.36 0.99 0.83 0.27 10716
0.11 -0.01 2.69 -4.14 10.01 0.99 0.88 0.30 10722
0.11 -0.01 2.89 -4.34 9.98 0.99 0.93 0.33 10728
0.09 -0.00 2.77 -4.20 10.08 0.99 0.97 0.36 10734
0.09 -0.01 3.25 -4.33 10.14 0.99 1.00 0.38 10741
0.07 -0.01 3.21 -4.28 10.25 0.99 1.04 0.39 10747
0.06 -0.00 3.29 -4.27 9.99 0.99 1.08 0.41 10754
0.06 -0.01 3.57 -4.13 10.35 0.98 1.14 0.43 10760
0.06 -0.01 3.04 -4.42 10.16 1.00 1.27 0.45 10766
0.07 -0.01 2.94 -4.61 9.78 0.99 1.28 0.46 10773
0.06 -0.01 1.86 -4.74 9.69 1.01 1.22 0.49 10779
0.05 -0.00 2.22 -4.78 9.32 1.04 1.14 0.52 10785
0.06 -0.00 2.13 -4.66 9.17 1.05 1.01 0.55 10791
0.07 -0.01 2.24 -4.50 8.90 1.05 0.87 0.58 10798
0.06 -0.01 2.34 -4.38 8.66 1.02 0.74 0.61 10804
0.06 -0.01 2.71 -4.32 8.28 1.00 0.63 0.63 10810
0.07 -0.01 2.38 -4.14 7.87 0.98 0.51 0.63 10817
0.08 -0.01 1.01 -3.93 7.84 0.95 0.38 0.56 10823
0.07 -0.01 -0.47 -3.82 7.88 0.91 0.17 0.35 10829
0.08 -0.01 -2.78 -3.65 8.13 0.83 -0.08 0.01 10835
0.05 -0.01 -2.08 -3.52 8.35 0.72 -0.35 -0.37 10842
0.03 -0.00 -4.12 -3.17 8.91 0.60 -0.65 -0.71 10848
0.06 -0.01 -2.46 -3.28 9.20 0.46 -0.94 -1.04 10855
0.05 -0.00 -3.51 -3.12 9.93 0.28 -1.21 -1.38 10861
0.04 -0.00 -4.80 -2.69 11.32 0.10 -1.46 -1.71 10867
0.05 -0.00 -2.59 -2.55 11.06 -0.03 -1.70 -1.87 10873
0.06 -0.01 0.95 -2.92 7.36 -0.15 -1.70 -2.07 10880
0.04 -0.00 0.24 -3.24 9.90 -0.30 -1.73 -2.39 10887
0.06 -0.01 0.16 -3.11 10.71 -0.36 -1.80 -2.54 10893
0.06 -0.01 -0.70 -2.91 10.09 -0.41 -1.77 -2.67 10899
0.06 -0.01 0.71 -2.92 9.92 -0.46 -1.69 -2.74 10905
0.07 -0.01 1.82 -2.63 8.69 -0.53 -1.64 -2.76 10911
0.06 -0.01 1.09 -2.37 8.70 -0.58 -1.61 -2.77 10917
0.04 -0.00 0.80 -2.63 9.09 -0.64 -1.60 -2.78 10925
0.05 -0.01 0.12 -2.20 9.21 -0.70 -1.64 -2.76 10931
0.05 -0.01 -0.29 -1.99 9.51 -0.74 -1.70 -2.78 10937
0.04 -0.00 0.21 -1.73 9.60 -0.80 -1.77 -2.83 10943
0.06 -0.00 0.61 -1.65 8.49 -0.87 -1.87 -2.90 10949
0.07 -0.01 -0.72 -1.68 9.11 -0.94 -2.00 -2.98 10955
0.06 -0.01 -0.05 -1.85 9.03 -1.03 -2.09 -3.06 10962
0.06 0.00 0.11 -1.88 9.34 -1.06 -2.16 -3.09 10969
0.06 -0.01 0.51 -1.78 9.48 -1.14 -2.17 -3.12 10975
0.05 -0.01 0.95 -1.78 9.69 -1.20 -2.14 -3.12 10981
0.05 -0.00 1.34 -1.92 9.84 -1.25 -2.07 -3.11 10987
0.05 -0.01 1.54 -2.08 9.90 -1.29 -1.98 -3.09 10994
0.05 -0.01 1.72 -2.17 10.05 -1.31 -1.87 -3.05 11000
0.06 -0.01 1.88 -2.24 9.97 -1.33 -1.76 -3.01 11006
0.06 -0.01 2.05 -2.43 9.94 -1.34 -1.67 -2.96 11013
0.05 -0.00 2.16 -2.68 9.94 -1.34 -1.62 -2.91 11019
0.05 -0.01 2.18 -2.98 9.90 -1.33 -1.61 -2.86 11025
0.06 -0.01 2.25 -3.30 9.90 -1.29 -1.65 -2.81 11032
0.05 -0.01 2.41 -3.65 9.90 -1.25 -1.73 -2.75 11038
0.05 -0.01 2.95 -3.92 10.21 -1.20 -1.85 -2.69 11044
0.06 -0.01 3.77 -4.12 10.70 -1.16 -1.94 -2.62 11051
0.06 -0.01 5.41 -4.24 11.19 -1.15 -1.96 -2.53 11057
0.07 -0.00 5.82 -4.23 11.45 -1.17 -1.84 -2.41 11064
0.06 -0.01 7.34 -4.29 11.31 -1.23 -1.61 -2.25 11070
0.04 -0.00 7.34 -4.50 10.70 -1.29 -1.39 -2.06 11076
0.05 -0.01 7.95 -4.67 10.32 -1.33 -1.05 -1.84 11082
0.05 -0.00 8.25 -4.93 9.46 -1.36 -0.71 -1.60 11089
0.04 -0.00 8.16 -4.92 8.96 -1.32 -0.36 -1.38 11096
0.05 -0.01 7.74 -4.82 8.73 -1.24 0.01 -1.07 11102
0.04 -0.00 7.29 -4.75 8.52 -1.11 0.33 -0.73 11108
0.04 -0.00 6.73 -4.77 8.43 -0.96 0.56 -0.35 11114
0.06 -0.01 6.41 -4.61 8.77 -0.81 0.75 0.02 11120
0.04 -0.00 5.97 -4.49 9.59 -0.68 0.90 0.37 11127
0.03 -0.00 5.56 -4.30 10.12 -0.64 1.04 0.70 11133
0.04 0.00 5.12 -4.03 10.44 -0.62 1.18 1.00 11140
0.04 -0.00 4.85 -3.91 10.78 -0.63 1.34 1.26 11146
0.04 -0.00 4.46 -3.86 10.91 -0.66 1.46 1.50 11152
0.05 -0.00 3.90 -3.86 10.75 -0.69 1.61 1.72 11159
0.03 -0.00 3.38 -3.95 10.60 -0.70 1.73 1.91 11165
0.04 -0.00 2.86 -4.07 10.54 -0.69 1.81 2.04 11171
0.04 -0.00 2.40 -4.19 10.37 -0.66 1.84 2.17 11177
0.04 -0.00 1.95 -4.28 10.32 -0.61 1.83 2.26 11184
0.04 -0.00 1.59 -4.24 10.31 -0.55 1.79 2.33 11191
0.04 -0.00 1.43 -4.17 10.33 -0.49 1.72 2.37 11197
0.04 -0.00 1.43 -4.09 10.36 -0.44 1.65 2.37 11203
0.04 0.00 1.44 -3.93 10.34 -0.39 1.59 2.35 11209
0.04 -0.00 1.51 -3.69 10.50 -0.35 1.57 2.31 11216
0.03 -0.00 1.52 -3.55 10.65 -0.33 1.58 2.26 11223
0.05 -0.00 1.14 -4.37 10.80 -0.33 1.60 2.20 11229
0.05 -0.00 2.09 -2.60 12.09 -0.37 1.76 2.09 11235
0.04 -0.00 1.01 -2.14 11.36 -0.49 1.64 2.02 11241
0.05 -0.01 -0.29 -3.03 11.35 -0.52 1.51 1.95 11248
0.04 -0.00 0.28 -2.68 11.52 -0.57 1.39 1.90 11254
0.04 -0.00 0.34 -2.29 11.45 -0.66 1.24 1.86 11260
0.04 -0.00 0.15 -2.30 11.09 -0.73 1.08 1.80 11267
0.04 -0.00 0.31 -2.41 10.88 -0.79 0.96 1.75 11273
0.04 -0.00 0.57 -2.44 10.66 -0.82 0.87 1.69 11280
0.05 -0.00 0.77 -2.53 10.54 -0.84 0.83 1.62 11286
0.04 -0.00 0.87 -2.57 10.51 -0.85 0.84 1.56 11292
0.04 -0.00 0.99 -2.64 10.68 -0.84 0.89 1.50 11298
0.04 -0.00 1.02 -2.70 10.83 -0.84 0.96 1.45 11304
0.04 -0.00 0.90 -2.70 10.95 -0.86 1.00 1.40 11311
0.04 0.00 0.75 -2.70 10.98 -0.88 1.01 1.37 11318
0.04 -0.00 0.70 -2.81 10.91 -0.91 0.99 1.33 11324
0.03 -0.00 0.71 -2.95 10.93 -0.92 0.93 1.29 11330
0.03 0.00 0.78 -3.14 10.77 -0.94 0.87 1.25 11336
0.04 -0.00 0.91 -3.31 10.64 -0.93 0.81 1.20 11343
0.03 -0.00 0.97 -3.51 10.53 -0.92 0.74 1.14 11350
0.05 -0.00 1.04 -3.63 10.45 -0.90 0.69 1.07 11356
0.03 -0.00 -0.84 -9.14 15.19 -0.89 0.55 0.92 11362
0.03 -0.00 -9.87 -6.59 14.68 -0.67 -0.75 0.68 11368
0.04 -0.00 -1.46 -4.04 7.74 -0.39 -0.82 0.68 11375
0.03 -0.00 -2.69 -7.23 6.98 -0.48 -1.04 0.58 11381
0.03 -0.00 -2.65 -8.06 9.23 -0.43 -1.32 0.41 11387
0.04 -0.00 -0.68 -32.38 1.27 -0.42 -1.44 0.32 11394
0.03 -0.00 9.91 -17.00 0.06 0.31 -0.02 0.75 11400
0.03 -0.00 1.75 -12.49 4.24 0.33 0.02 0.79 11406
0.05 -0.01 -3.07 -11.19 7.87 0.39 -0.31 0.71 11413
0.04 -0.00 -4.11 -13.69 8.27 0.45 -0.52 0.78 11419
0.04 -0.00 -11.02 -20.67 14.37 0.47 -0.93 0.95 11425
0.05 -0.00 -13.44 -18.19 9.63 0.27 -1.13 0.99 11431
0.03 -0.00 -16.92 -17.69 9.24 0.44 -1.53 0.92 11439
0.05 0.01 -21.78 -17.80 20.70 0.46 -1.00 0.54 11445
0.04 -0.00 -5.30 -4.52 5.62 0.06 -0.19 -0.00 11451
0.04 0.01 -1.47 -1.30 9.36 -0.21 0.37 -0.07 11457
0.05 0.04 -0.23 -0.66 10.26 -0.35 0.47 -0.04 11464
0.04 0.03 1.25 -0.91 12.17 -0.43 0.18 0.04 11470
0.03 0.04 2.01 0.16 9.06 -0.20 -0.02 0.09 11476
0.04 0.04 1.45 -0.63 9.99 -0.12 -0.08 0.08 11483
0.04 0.06 1.07 -0.97 9.94 -0.07 -0.08 0.11 11489
0.05 0.10 0.84 -1.00 9.97 -0.07 -0.05 0.11 11496
0.05 0.09 0.84 -0.97 10.19 -0.08 -0.03 0.10 11502
0.04 0.22 0.84 -0.95 9.38 -0.11 0.01 0.09 11508
0.03 0.21 0.52 -0.94 10.20 -0.11 0.07 0.08 11514
0.03 0.29 0.90 -1.03 9.98 -0.09 0.08 0.08 11521
0.03 0.30 0.93 -0.95 10.10 -0.07 0.07 0.09 11528
0.06 0.34 0.86 -1.03 10.01 -0.05 0.04 0.08 11534
0.04 0.36 0.81 -0.91 10.04 -0.04 0.03 0.08 11540
0.05 0.39 0.80 -0.85 10.01 -0.03 0.02 0.08 11546
0.04 0.44 0.85 -0.89 9.99 -0.02 0.00 0.07 11552
0.04 0.45 0.84 -0.93 9.96 -0.02 -0.00 0.07 11559
0.07 0.44 0.80 -0.90 9.93 -0.02 -0.01 0.06 11566
0.08 0.48 0.79 -0.87 9.94 -0.02 -0.02 0.07 11572
0.07 0.49 0.82 -0.87 9.90 -0.02 -0.03 0.06 11578
0.04 0.48 0.77 -0.84 9.92 -0.02 -0.04 0.06 11584
0.07 0.48 0.77 -0.86 9.94 -0.02 -0.05 0.06 11591
0.07 0.49 0.74 -0.85 9.99 -0.02 -0.05 0.07 11597
0.06 0.47 0.76 -0.85 9.96 -0.02 -0.05 0.07 11603
0.07 0.47 0.72 -0.81 9.97 -0.01 -0.05 0.08 11610
0.08 0.48 0.70 -0.83 9.92 -0.01 -0.05 0.09 11616
0.10 0.47 0.64 -0.84 9.84 -0.01 -0.05 0.08 11622
0.11 0.47 0.71 -0.85 9.94 -0.00 -0.04 0.09 11629
0.08 0.48 0.78 -0.86 9.92 -0.00 -0.04 0.09 11635
0.08 0.49 0.71 -0.65 9.81 -0.01 -0.04 0.10 11641
0.09 0.48 0.78 -0.83 9.93 -0.01 -0.04 0.09 11648
0.09 0.47 0.70 -0.80 9.91 -0.01 -0.04 0.09 11654
0.11 0.45 0.74 -0.84 9.94 -0.01 -0.04 0.09 11661
0.11 0.45 0.73 -0.81 9.92 -0.02 -0.04 0.09 11667
0.13 0.44 0.75 -0.82 9.95 -0.02 -0.04 0.09 11673
0.13 0.47 0.73 -0.87 9.93 -0.02 -0.04 0.09 11679
0.15 0.46 0.74 -0.79 9.93 -0.02 -0.04 0.10 11685
0.14 0.46 0.72 -0.81 9.92 -0.02 -0.04 0.10 11693
0.15 0.48 0.75 -0.78 9.95 -0.02 -0.05 0.10 11699
0.17 0.48 0.75 -0.80 9.96 -0.02 -0.05 0.10 11705
0.18 0.46 0.73 -0.80 9.95 -0.02 -0.05 0.10 11711
0.19 0.45 0.74 -0.80 9.93 -0.01 -0.05 0.10 11717
0.20 0.42 0.75 -0.81 9.97 -0.01 -0.04 0.10 11724
0.19 0.40 0.74 -0.81 9.94 -0.01 -0.04 0.10 11730
0.20 0.42 0.75 -0.82 9.89 -0.02 -0.04 0.09 11737
0.22 0.41 0.77 -0.81 9.96 -0.01 -0.04 0.10 11743
0.23 0.40 0.81 -0.84 9.90 -0.02 -0.04 0.09 11749
0.24 0.43 0.75 -0.85 9.96 -0.02 -0.04 0.09 11756
0.24 0.40 0.76 -0.85 9.94 -0.02 -0.05 0.10 11762
0.24 0.41 0.75 -0.82 9.95 -0.02 -0.05 0.10 11768
0.25 0.41 0.77 -0.83 9.95 -0.01 -0.05 0.10 11774
0.25 0.41 0.75 -0.81 9.92 -0.02 -0.05 0.10 11781
0.24 0.40 0.76 -0.84 9.94 -0.01 -0.06 0.10 11787
0.26 0.41 0.74 -0.81 9.93 -0.02 -0.06 0.09 11794
0.27 0.42 0.76 -0.80 9.91 -0.02 -0.06 0.10 11800
0.28 0.44 0.74 -0.81 9.94 -0.01 -0.06 0.10 11806
0.31 0.42 0.69 -0.81 9.91 -0.02 -0.05 0.09 11812
0.29 0.42 0.69 -0.81 9.96 -0.02 -0.05 0.10 11819
0.29 0.42 0.72 -0.81 9.95 -0.01 -0.05 0.10 11826
0.32 0.45 0.73 -0.81 9.97 -0.01 -0.04 0.10 11832
0.31 0.45 0.73 -0.80 9.97 -0.01 -0.04 0.09 11838
0.31 0.45 0.74 -0.82 9.95 -0.00 -0.04 0.10 11844
0.33 0.43 0.74 -0.78 9.96 -0.01 -0.03 0.10 11850
0.33 0.41 0.72 -0.81 9.92 -0.00 -0.03 0.10 11857
0.33 0.40 0.76 -0.80 9.91 -0.00 -0.02 0.10 11864
0.33 0.40 0.73 -0.80 9.97 0.00 -0.02 0.10 11870
0.35 0.32 0.73 -0.81 9.97 0.00 -0.01 0.09 11876
0.35 0.30 0.75 -0.80 9.95 0.01 -0.01 0.10 11882
0.37 0.31 0.75 -0.85 9.94 0.01 -0.01 0.09 11889
0.36 0.31 0.78 -0.81 9.96 0.00 -0.01 0.10 11895
0.36 0.32 0.78 -0.81 9.92 0.01 -0.01 0.09 11901
0.36 0.30 0.76 -0.81 9.95 0.01 -0.01 0.09 11908
0.39 0.25 0.76 -0.85 9.95 0.01 -0.01 0.10 11914
0.38 0.26 0.76 -0.84 9.93 0.01 -0.00 0.09 11921
0.37 0.24 0.76 -0.85 9.95 0.00 -0.00 0.09 11927
0.36 0.19 0.76 -0.84 9.95 0.01 -0.00 0.09 11933
0.36 0.23 0.79 -0.84 9.97 0.01 -0.01 0.09 11939
0.37 0.23 0.75 -0.86 9.92 0.01 -0.01 0.09 11945
0.36 0.19 0.75 -0.85 9.94 0.00 -0.01 0.08 11952
0.36 0.19 0.76 -0.83 9.92 0.00 -0.01 0.09 11959
0.37 0.18 0.77 -0.84 9.92 -0.00 -0.01 0.09 11965
0.36 0.19 0.78 -0.83 9.96 -0.00 -0.01 0.10 11971
0.35 0.22 0.78 -0.81 9.92 -0.00 -0.01 0.10 11977
0.35 0.21 0.78 -0.81 9.96 -0.00 -0.01 0.10 11983
0.35 0.17 0.78 -0.82 9.98 0.00 -0.00 0.09 11991
0.33 0.19 0.80 -0.80 9.93 -0.00 0.00 0.10 11997
0.34 0.19 0.80 -0.84 9.92 0.00 -0.00 0.10 12003
0.34 0.16 0.79 -0.82 9.93 0.00 -0.00 0.09 12009
0.33 0.17 0.80 -0.80 9.88 0.00 -0.01 0.10 12015
0.34 0.15 0.79 -0.84 9.95 0.00 -0.01 0.09 12021
0.33 0.11 0.82 -0.84 9.92 0.00 -0.01 0.10 12028
0.33 0.12 0.79 -0.84 9.94 0.00 -0.01 0.09 12035
0.33 0.11 0.79 -0.85 9.93 -0.00 -0.01 0.09 12041
0.31 0.10 0.81 -0.84 9.93 0.00 -0.01 0.09 12047
0.29 0.10 0.79 -0.84 9.94 0.00 -0.01 0.09 12053
0.31 0.10 0.77 -0.84 9.99 0.00 -0.01 0.09 12059
0.33 0.10 0.81 -0.88 9.93 0.00 -0.01 0.10 12066
0.32 0.09 0.81 -0.83 9.94 0.01 -0.01 0.09 12072
0.32 0.10 0.82 -0.84 9.90 0.00 -0.01 0.09 12079
0.31 0.09 0.82 -0.83 9.95 0.01 -0.02 0.09 12085
0.31 0.07 0.81 -0.81 9.95 0.01 -0.01 0.09 12091
0.32 0.07 0.82 -0.83 9.96 0.01 -0.02 0.09 12098
0.32 0.04 0.84 -0.88 9.96 0.01 -0.01 0.09 12104
0.30 0.05 0.84 -0.87 9.93 0.01 -0.01 0.09 12110
0.32 0.07 0.82 -0.85 9.92 0.02 -0.01 0.09 12116
0.33 0.04 0.85 -0.81 9.91 0.02 -0.01 0.09 12123
0.33 0.02 0.83 -0.84 9.94 0.02 -0.01 0.09 12129
0.32 0.01 0.85 -0.86 9.92 0.01 -0.01 0.09 12136
0.32 0.00 0.83 -0.85 9.84 0.01 -0.01 0.08 12142
0.34 0.01 0.83 -0.87 9.93 0.01 -0.01 0.09 12148
0.34 0.04 0.80 -0.85 9.92 0.01 -0.01 0.08 12154
0.35 0.01 0.84 -0.87 9.93 0.02 -0.01 0.09 12161
0.35 0.01 0.85 -0.87 9.94 0.01 -0.01 0.09 12167
0.34 0.02 0.86 -0.88 9.94 0.02 -0.01 0.08 12174
0.33 0.02 0.86 -0.90 9.95 0.02 -0.01 0.09 12180
0.33 -0.01 0.87 -0.89 9.91 0.01 -0.01 0.09 12186
0.34 0.01 0.87 -0.86 9.92 0.01 -0.01 0.08 12192
0.35 0.03 0.83 -0.89 9.91 0.01 -0.01 0.08 12198
0.35 -0.02 0.89 -0.88 9.91 0.01 -0.01 0.08 12206
0.33 -0.00 0.89 -0.89 9.91 0.01 -0.01 0.08 12212
0.34 -0.00 0.84 -0.90 9.87 0.00 -0.02 0.08 12218
0.33 -0.02 0.84 -0.87 9.92 0.00 -0.02 0.08 12224
0.32 -0.00 0.88 -0.90 9.92 0.01 -0.02 0.08 12230
0.33 -0.00 0.85 -0.89 9.93 0.01 -0.02 0.08 12236
0.36 -0.01 0.85 -0.90 9.94 0.01 -0.02 0.08 12243
0.39 -0.01 0.90 -0.91 9.92 0.01 -0.02 0.08 12250
0.42 -0.01 0.85 -0.90 9.89 0.01 -0.02 0.08 12256
0.39 -0.02 0.89 -0.88 9.89 0.01 -0.01 0.08 12262
0.39 -0.02 0.91 -0.94 9.89 0.01 -0.01 0.08 12268
0.40 -0.02 0.90 -0.91 9.88 0.01 -0.01 0.08 12275
0.39 -0.02 0.91 -0.87 9.95 0.01 -0.01 0.08 12281
0.40 -0.03 0.87 -0.91 9.92 0.01 -0.01 0.08 12288
0.42 -0.02 0.90 -0.89 9.95 0.01 -0.01 0.08 12294
0.39 -0.03 0.90 -0.91 9.92 0.01 -0.01 0.08 12300
0.39 -0.03 0.91 -0.91 9.94 0.01 -0.01 0.07 12306
0.39 -0.02 0.90 -0.92 9.93 0.00 -0.01 0.07 12313
0.38 -0.03 0.91 -0.91 9.92 0.01 -0.01 0.07 12319
0.35 -0.03 0.89 -0.90 9.92 0.01 -0.00 0.06 12325
0.37 -0.03 0.89 -0.90 9.91 0.01 0.00 0.07 12332
0.39 -0.03 0.90 -0.89 9.92 0.01 0.00 0.07 12338
0.38 -0.03 0.87 -0.95 9.93 0.01 0.00 0.06 12344
0.39 -0.02 0.88 -0.94 9.92 0.01 0.01 0.07 12351
0.38 -0.02 0.92 -0.92 9.89 0.01 0.00 0.06 12357
0.38 -0.02 0.94 -0.93 9.88 0.01 0.00 0.06 12363
0.36 -0.02 0.93 -0.98 9.93 0.01 0.01 0.06 12369
0.36 -0.02 0.96 -0.94 9.92 0.01 0.00 0.06 12376
0.34 -0.02 0.93 -0.95 9.96 0.00 0.00 0.06 12382
0.35 -0.02 0.93 -0.91 9.88 0.01 0.01 0.06 12389
0.36 -0.03 0.92 -0.93 9.90 0.00 0.00 0.05 12395
0.32 -0.03 0.97 -0.94 9.92 0.00 -0.00 0.05 12401
0.33 -0.02 0.90 -0.97 9.90 0.00 -0.00 0.05 12407
0.36 -0.03 0.90 -0.97 9.91 0.01 -0.01 0.05 12413
0.36 -0.04 0.94 -0.93 9.97 0.00 -0.01 0.05 12420
0.36 -0.02 0.96 -0.95 9.92 0.00 -0.01 0.05 12427
0.38 -0.02 0.95 -0.96 9.94 0.01 -0.02 0.05 12433
0.36 -0.03 0.97 -0.94 9.89 0.01 -0.02 0.06 12439
0.36 -0.03 0.99 -0.95 9.89 0.01 -0.02 0.05 12445
0.40 -0.03 0.97 -0.96 9.93 0.01 -0.02 0.05 12451
0.41 -0.03 0.96 -0.96 9.93 0.01 -0.03 0.05 12459
0.40 -0.03 0.97 -0.94 9.92 0.01 -0.03 0.05 12465
0.41 -0.03 0.94 -0.94 9.92 0.01 -0.03 0.05 12471
0.40 -0.03 1.08 -1.01 9.87 0.01 -0.04 0.04 12477
0.38 -0.02 0.95 -0.94 9.97 0.01 -0.03 0.05 12483
0.41 -0.03 0.97 -0.95 9.90 0.02 -0.03 0.04 12489
0.39 -0.03 0.91 -0.94 9.94 0.02 -0.03 0.04 12496
0.39 -0.02 0.99 -0.95 9.92 0.02 -0.03 0.04 12503
0.42 -0.02 0.97 -0.99 9.90 0.02 -0.03 0.04 12509
0.41 -0.03 1.00 -0.97 9.94 0.02 -0.03 0.04 12515
0.39 -0.02 0.90 -1.00 9.89 0.03 -0.03 0.03 12521
0.42 -0.02 0.98 -0.99 9.95 0.03 -0.03 0.03 12528
0.43 -0.03 0.99 -0.97 9.93 0.03 -0.03 0.03 12534
0.46 -0.03 1.00 -1.00 9.92 0.03 -0.03 0.03 12540
0.48 -0.02 0.98 -1.01 9.90 0.04 -0.02 0.03 12547
0.47 -0.03 0.97 -1.01 9.89 0.04 -0.02 0.02 12553
0.48 -0.03 0.99 -1.03 9.87 0.04 -0.01 0.03 12559
0.50 -0.02 1.03 -1.05 9.90 0.04 -0.01 0.02 12566
0.50 -0.03 0.93 -1.04 9.96 0.05 -0.01 0.02 12572
0.48 -0.03 1.01 -1.07 9.95 0.05 -0.01 0.02 12578
0.50 -0.02 1.00 -1.15 9.88 0.06 -0.00 0.02 12584
0.51 -0.03 1.07 -1.07 9.88 0.06 0.00 0.02 12591
0.48 -0.03 1.02 -1.08 9.86 0.07 0.01 0.01 12597
0.48 -0.02 1.01 -1.04 9.92 0.08 0.02 0.01 12604
0.46 -0.03 1.00 -1.08 9.89 0.08 0.02 0.00 12610
0.45 -0.03 0.97 -1.06 9.92 0.08 0.03 0.00 12616
0.49 -0.02 0.96 -1.06 9.90 0.08 0.02 0.01 12622
0.51 -0.03 0.97 -1.06 9.87 0.06 0.02 0.01 12628
0.51 -0.04 0.97 -1.09 9.86 0.05 0.02 0.02 12636
0.51 -0.02 0.99 -1.12 9.92 0.05 0.02 0.02 12642
0.52 -0.03 1.08 -1.09 9.90 0.05 0.02 0.02 12648
0.51 -0.04 1.03 -1.12 9.90 0.05 0.02 0.02 12654
0.49 -0.02 1.03 -1.11 9.93 0.05 0.02 0.02 12660
0.50 -0.03 1.07 -1.09 9.89 0.05 0.02 0.02 12666
0.49 -0.04 1.05 -1.07 9.90 0.05 0.02 0.02 12674
0.49 -0.03 1.08 -1.11 9.90 0.06 0.03 0.02 12680
0.50 -0.03 1.05 -1.12 9.96 0.07 0.03 0.02 12686
0.48 -0.04 1.07 -1.10 9.92 0.08 0.04 0.02 12692
0.48 -0.03 1.10 -1.12 9.95 0.09 0.05 0.03 12698
0.48 -0.03 1.15 -1.12 10.02 0.11 0.06 0.02 12705
0.47 -0.04 1.12 -1.18 10.04 0.14 0.07 0.02 12711
0.46 -0.02 1.17 -1.15 10.11 0.17 0.08 0.02 12718
0.46 -0.03 1.14 -1.18 9.99 0.21 0.10 0.02 12724
0.40 -0.03 1.09 -1.19 10.09 0.24 0.11 0.01 12730
0.40 -0.02 1.09 -1.24 10.11 0.28 0.12 0.02 12737
0.35 -0.04 1.18 -1.23 10.03 0.30 0.14 0.01 12743
0.34 -0.02 1.22 -1.31 10.09 0.33 0.13 0.00 12749
0.31 -0.02 1.24 -1.38 10.09 0.34 0.13 -0.01 12755
0.29 -0.02 1.25 -1.33 9.99 0.35 0.12 -0.02 12763
0.28 -0.01 1.30 -1.37 10.10 0.36 0.11 -0.03 12769
0.24 -0.02 1.37 -1.45 10.00 0.37 0.11 -0.04 12775
0.28 -0.02 1.33 -1.45 10.08 0.39 0.13 -0.05 12781
0.27 -0.02 1.37 -1.52 10.22 0.43 0.14 -0.06 12788
0.27 -0.02 1.32 -1.55 10.43 0.48 0.15 -0.07 12794
0.29 -0.01 1.26 -1.58 10.62 0.56 0.16 -0.08 12801
0.26 -0.02 1.15 -1.66 10.64 0.63 0.16 -0.07 12807
0.27 -0.02 1.14 -1.71 10.51 0.70 0.16 -0.06 12814
0.28 -0.02 1.12 -1.73 10.59 0.74 0.17 -0.05 12820
0.22 -0.02 1.23 -1.83 9.87 0.78 0.17 -0.03 12826
0.19 -0.01 1.16 -1.86 10.38 0.81 0.20 -0.02 12832
0.17 -0.02 1.27 -1.99 10.28 0.82 0.22 -0.01 12839
0.14 -0.01 1.42 -2.03 10.41 0.84 0.24 -0.00 12846
0.14 -0.01 1.35 -2.05 10.22 0.85 0.30 0.00 12852
0.14 -0.01 1.37 -2.13 10.32 0.87 0.34 0.01 12858
0.11 -0.01 1.39 -2.26 10.33 0.88 0.39 0.02 12864
0.10 -0.01 1.54 -2.28 10.32 0.89 0.44 0.02 12871
0.08 -0.01 1.52 -2.28 10.42 0.91 0.49 0.02 12877
0.08 -0.01 1.50 -2.37 10.31 0.94 0.52 0.02 12883
0.07 -0.01 1.57 -2.43 10.53 0.96 0.54 0.03 12890
0.09 -0.01 1.66 -2.51 10.35 0.98 0.57 0.03 12896
0.08 -0.01 1.79 -2.84 10.44 1.00 0.59 0.03 12903
0.10 -0.01 1.66 -2.62 10.27 1.02 0.60 0.03 12909
0.08 -0.01 1.71 -2.78 10.15 1.04 0.59 0.03 12915
0.10 -0.01 1.77 -2.85 10.07 1.05 0.59 0.05 12921
0.10 -0.01 1.66 -2.99 10.15 1.06 0.60 0.05 12928
0.08 -0.01 1.61 -3.12 9.95 1.07 0.61 0.07 12935
0.12 -0.00 1.62 -3.17 9.93 1.07 0.62 0.10 12941
0.09 -0.01 1.57 -3.36 9.99 1.06 0.64 0.13 12947
0.10 -0.01 1.52 -3.48 10.18 1.06 0.68 0.16 12953
0.09 0.00 1.50 -3.69 10.36 1.06 0.76 0.20 12959
0.07 -0.01 1.26 -3.94 10.22 1.05 0.83 0.25 12966
0.06 -0.01 1.10 -4.07 10.24 1.03 0.86 0.32 12973
0.07 -0.00 0.78 -4.33 9.90 1.02 0.85 0.39 12979
0.07 -0.01 0.85 -4.41 9.82 1.03 0.79 0.48 12985
0.08 -0.01 1.55 -4.05 10.08 1.00 0.73 0.55 12991
0.07 -0.01 1.63 -4.10 10.47 0.95 0.73 0.62 12997
0.07 -0.01 1.93 -3.73 10.76 0.90 0.88 0.66 13004
0.07 -0.01 1.58 -3.75 10.38 0.85 0.99 0.69 13010
0.07 -0.01 1.51 -3.95 10.27 0.81 1.07 0.74 13017
0.07 -0.01 0.99 -3.98 9.98 0.80 1.08 0.78 13023
0.06 -0.01 0.58 -4.11 9.51 0.80 1.05 0.84 13029
0.07 -0.00 0.63 -4.24 9.25 0.81 0.99 0.91 13036
0.07 -0.01 0.67 -4.27 9.15 0.83 0.90 1.00 13042
0.08 -0.01 1.04 -4.37 8.73 0.87 0.78 1.09 13048
0.08 -0.01 0.83 -3.76 8.49 0.92 0.69 1.17 13054
0.09 -0.01 0.89 -3.94 8.18 0.96 0.52 1.21 13061
0.08 -0.01 1.27 -3.98 8.35 0.98 0.32 1.25 13067
0.07 -0.01 1.53 -3.79 8.38 0.98 0.18 1.28 13073
0.07 -0.01 0.89 -3.35 8.82 0.97 0.06 1.23 13080
0.08 -0.01 0.73 -2.96 9.01 0.92 -0.03 1.08 13086
0.06 -0.01 -0.37 -2.85 9.37 0.82 -0.13 0.79 13092
0.06 -0.00 -1.01 -2.66 9.45 0.71 -0.17 0.38 13099
0.07 -0.01 -3.30 -2.31 9.78 0.58 -0.24 -0.08 13105
0.07 -0.01 -2.73 -2.36 9.74 0.44 -0.34 -0.55 13111
0.08 -0.01 -3.86 -2.35 10.44 0.29 -0.52 -0.98 13118
0.08 -0.01 -4.01 -1.96 9.44 0.13 -0.75 -1.30 13124
0.07 -0.01 -3.92 -2.40 10.61 0.02 -1.01 -1.60 13130
0.07 -0.00 -3.56 -2.79 9.41 -0.04 -1.28 -1.82 13136
0.08 -0.01 -2.05 -2.74 8.69 -0.09 -1.51 -1.93 13143
0.07 -0.01 -1.59 -2.74 10.25 -0.11 -1.73 -1.98 13150
0.07 -0.00 -0.10 -2.88 10.32 -0.12 -1.87 -2.03 13156
0.07 -0.01 1.65 -2.87 9.50 -0.15 -2.01 -2.04 13162
0.06 -0.01 1.37 -2.94 8.90 -0.16 -2.05 -2.03 13168
0.07 -0.01 0.71 -3.21 10.35 -0.18 -2.04 -2.02 13174
0.07 -0.01 2.52 -2.95 10.94 -0.20 -1.96 -1.96 13181
0.07 -0.01 2.60 -2.79 10.64 -0.21 -1.81 -1.91 13188
0.09 -0.01 3.63 -2.88 9.68 -0.23 -1.67 -1.88 13194
0.07 -0.01 2.66 -2.74 9.73 -0.24 -1.60 -1.83 13200
0.07 -0.01 3.44 -2.83 9.69 -0.23 -1.51 -1.79 13206
0.09 -0.01 0.94 -2.87 10.49 -0.21 -1.47 -1.71 13213
0.08 -0.01 3.16 -3.02 9.52 -0.20 -1.47 -1.63 13219
0.08 -0.01 3.49 -2.74 8.85 -0.20 -1.50 -1.55 13225
0.09 -0.01 1.31 -3.14 9.30 -0.19 -1.55 -1.45 13232
0.08 -0.01 2.11 -3.22 10.56 -0.23 -1.56 -1.37 13238
0.07 -0.01 3.56 -2.97 10.18 -0.26 -1.53 -1.31 13245
0.08 -0.01 3.98 -2.77 10.26 -0.30 -1.42 -1.31 13251
0.07 -0.01 3.47 -2.46 9.58 -0.35 -1.28 -1.36 13257
0.07 -0.01 2.71 -2.52 9.11 -0.37 -1.11 -1.45 13263
0.07 -0.01 2.23 -2.73 8.80 -0.40 -0.95 -1.53 13270
0.06 -0.01 2.16 -2.82 9.01 -0.40 -0.80 -1.61 13276
0.06 -0.01 1.85 -2.09 9.26 -0.39 -0.76 -1.69 13283
0.07 -0.01 -0.06 -2.01 9.08 -0.40 -0.77 -1.75 13289
0.07 -0.01 2.45 -2.67 8.14 -0.39 -0.79 -1.83 13295
0.06 -0.01 0.10 -2.38 9.64 -0.38 -0.84 -1.82 13301
0.06 -0.01 1.61 -1.81 9.34 -0.41 -0.88 -1.80 13307
0.06 -0.01 2.80 -1.68 9.38 -0.45 -0.88 -1.75 13314
0.05 -0.01 2.74 -1.34 9.70 -0.50 -0.85 -1.66 13321
0.06 -0.00 1.52 -1.43 10.32 -0.60 -0.79 -1.59 13327
0.08 -0.01 1.56 -0.89 10.38 -0.66 -0.74 -1.53 13333
0.07 -0.01 2.08 -1.34 9.47 -0.69 -0.69 -1.45 13339
0.08 -0.01 2.48 -1.22 9.28 -0.75 -0.55 -1.34 13345
0.08 -0.01 2.75 -1.02 9.27 -0.82 -0.45 -1.25 13352
0.08 -0.01 2.98 -1.17 9.15 -0.87 -0.32 -1.16 13359
0.08 -0.01 2.94 -1.30 8.99 -0.87 -0.20 -1.06 13365
0.07 -0.01 2.90 -1.23 8.69 -0.86 -0.09 -0.95 13371
0.08 -0.01 2.81 -1.33 8.80 -0.84 -0.00 -0.83 13377
0.07 -0.01 2.72 -1.15 8.72 -0.81 0.08 -0.72 13383
0.08 -0.01 2.50 -1.04 8.86 -0.76 0.13 -0.61 13389
0.07 -0.01 2.50 -0.89 9.24 -0.72 0.17 -0.50 13396
0.06 -0.01 2.57 -0.91 9.47 -0.69 0.18 -0.40 13403
0.09 -0.01 2.78 -1.01 9.62 -0.67 0.19 -0.30 13409
0.07 -0.01 3.13 -1.14 9.66 -0.66 0.24 -0.22 13415
0.05 -0.01 3.44 -1.35 9.81 -0.65 0.33 -0.13 13421
0.06 -0.00 3.71 -1.51 10.19 -0.66 0.44 -0.05 13427
0.06 -0.01 6.91 -4.50 8.46 -0.67 0.57 0.04 13434
0.06 -0.01 4.94 -2.38 13.18 -0.75 0.87 0.12 13441
0.06 -0.00 3.56 -1.21 11.61 -0.90 0.90 0.16 13447
0.06 -0.01 3.12 -1.78 10.75 -0.99 0.88 0.22 13453
0.06 -0.01 2.67 -2.75 10.17 -1.03 0.77 0.33 13459
0.07 -0.01 2.71 -2.83 10.29 -1.01 0.62 0.45 13466
0.06 -0.01 3.15 -2.31 10.22 -1.01 0.48 0.56 13472
0.07 -0.01 3.33 -2.39 10.10 -0.99 0.39 0.66 13478
0.08 -0.01 3.66 -2.52 10.03 -0.96 0.34 0.75 13485
0.08 -0.01 4.01 -2.49 10.03 -0.92 0.35 0.84 13491
0.07 -0.01 4.72 -3.32 9.79 -0.89 0.41 0.92 13498
0.08 -0.01 3.75 -2.78 11.23 -0.87 0.59 0.98 13504
0.07 -0.01 3.93 -2.93 10.54 -0.89 0.67 1.01 13510
0.06 -0.00 3.09 -2.85 10.43 -0.88 0.72 1.06 13516
0.05 -0.01 3.22 -2.90 10.43 -0.84 0.73 1.11 13523
0.04 -0.00 2.99 -3.18 10.68 -0.81 0.72 1.17 13530
0.05 -0.01 3.44 -2.85 11.02 -0.79 0.73 1.21 13536
0.05 -0.00 3.22 -3.02 10.91 -0.79 0.75 1.25 13542
0.04 -0.00 3.31 -3.00 11.05 -0.79 0.83 1.29 13548
0.05 -0.01 3.23 -2.98 11.14 -0.81 0.90 1.32 13555
0.04 -0.00 2.93 -3.01 11.01 -0.83 0.96 1.34 13561
0.04 -0.00 2.68 -2.98 10.91 -0.84 0.99 1.36 13568
0.06 -0.01 2.36 -3.03 10.79 -0.84 1.00 1.37 13574
0.05 -0.00 2.12 -3.10 10.66 -0.83 1.00 1.37 13580
0.05 -0.00 1.86 -3.21 10.49 -0.81 1.00 1.35 13587
0.06 -0.01 1.65 -3.29 10.34 -0.78 1.01 1.32 13593
0.05 -0.00 1.40 -3.47 10.28 -0.76 1.02 1.27 13599
0.06 -0.01 1.12 -3.56 10.34 -0.74 1.03 1.21 13605
0.06 -0.01 0.93 -3.64 10.44 -0.73 1.04 1.15 13612
0.04 -0.00 0.72 -3.66 10.50 -0.73 1.04 1.07 13619
0.05 -0.01 0.51 -3.67 10.51 -0.75 1.02 0.97 13625
0.05 -0.01 0.48 -3.71 10.57 -0.77 0.98 0.86 13631
0.05 -0.00 0.45 -3.64 10.56 -0.79 0.94 0.75 13637
0.06 -0.00 0.59 -3.66 10.50 -0.83 0.91 0.63 13643
0.06 -0.01 0.69 -3.76 10.42 -0.86 0.90 0.52 13650
0.05 -0.01 0.73 -3.80 10.31 -0.88 0.89 0.40 13657
0.06 -0.01 0.78 -3.83 10.15 -0.90 0.90 0.29 13663
0.06 -0.01 0.86 -3.92 9.95 -0.90 0.92 0.17 13669
0.05 -0.00 0.88 -4.00 9.84 -0.90 0.93 0.06 13675
0.06 -0.00 0.92 -4.12 9.70 -0.89 0.96 -0.05 13681
0.07 -0.01 0.90 -14.26 6.30 -0.86 1.00 -0.19 13688
0.05 -0.01 -10.82 -3.62 12.63 -0.29 -0.72 -0.27 13694
0.07 -0.01 -2.57 -3.61 6.01 -0.36 -0.62 -0.32 13701
0.05 -0.01 -3.32 -10.02 4.81 -0.31 -0.77 -0.36 13707
0.04 -0.00 0.03 -10.92 8.72 0.16 -0.33 -0.08 13713
0.06 -0.01 -0.34 -9.07 7.16 0.26 -0.10 0.08 13720
0.05 -0.00 -3.67 -10.27 7.08 0.31 -0.20 0.06 13726
0.04 -0.00 -4.14 -11.96 7.89 0.41 -0.46 0.13 13732
0.06 -0.01 -4.50 -13.02 8.03 0.57 -0.56 0.36 13739
0.05 -0.01 -5.61 -14.42 7.42 0.76 -0.70 0.65 13745
0.05 -0.00 -7.19 -16.08 7.52 0.98 -0.92 0.99 13752
0.06 -0.00 -22.55 -15.73 13.99 0.51 -1.75 0.86 13758
0.05 0.01 -9.95 -8.35 15.16 0.42 -1.46 0.64 13764
0.07 0.07 -5.45 -5.84 11.80 0.02 -0.56 0.22 13771
0.04 0.05 -1.92 -1.59 10.91 -0.32 0.18 0.04 13777
0.04 0.07 0.53 -0.69 10.76 -0.31 0.02 -0.01 13784
0.05 0.08 0.82 -0.49 9.95 -0.28 0.07 0.01 13790
0.04 0.11 1.62 -0.48 9.01 -0.20 -0.03 0.04 13796
0.04 0.14 1.67 -0.72 9.81 -0.12 -0.17 0.08 13803
0.04 0.15 0.99 -0.79 9.99 -0.02 -0.13 0.10 13809
0.04 0.18 0.78 -0.83 10.13 -0.02 0.00 0.11 13815
0.03 0.21 0.60 -0.82 10.20 -0.04 0.05 0.09 13821
0.04 0.22 0.63 -0.87 10.11 -0.04 0.05 0.09 13828
0.03 0.27 0.96 -1.02 10.00 -0.03 0.04 0.08 13835
0.04 0.28 1.04 -1.12 10.02 -0.01 0.02 0.08 13841
0.04 0.26 0.93 -0.98 10.00 -0.01 -0.01 0.08 13847
0.06 0.25 0.79 -0.86 10.12 0.00 -0.03 0.07 13853
0.08 0.22 0.85 -0.87 9.96 0.00 -0.03 0.06 13860
0.07 0.24 0.89 -0.93 9.96 0.00 -0.04 0.06 13867
0.10 0.25 0.88 -0.94 9.93 -0.01 -0.04 0.06 13873
0.07 0.23 0.80 -0.88 9.95 -0.01 -0.05 0.05 13879
0.07 0.24 0.79 -0.89 9.95 -0.02 -0.05 0.05 13885
0.07 0.27 0.78 -0.92 9.92 -0.03 -0.05 0.05 13891
0.08 0.27 0.79 -0.89 9.87 -0.03 -0.05 0.05 13898
0.08 0.26 0.81 -0.84 9.90 -0.03 -0.06 0.05 13904
0.10 0.28 0.77 -0.84 9.97 -0.03 -0.06 0.06 13911
0.10 0.24 0.74 -0.87 10.02 -0.03 -0.06 0.07 13917
0.11 0.25 0.08 -0.58 10.29 -0.02 -0.05 0.08 13923
0.11 0.26 0.72 -0.87 10.03 -0.01 -0.04 0.08 13930
0.12 0.28 0.91 -0.87 9.90 -0.01 -0.04 0.09 13936
0.12 0.29 0.74 -0.85 9.95 -0.01 -0.03 0.09 13942
0.15 0.28 0.77 -0.88 10.00 -0.00 -0.04 0.09 13948
0.15 0.26 0.80 -0.87 9.96 -0.00 -0.04 0.09 13956
0.15 0.26 0.81 -0.87 9.92 -0.00 -0.04 0.10 13962
0.16 0.24 0.80 -0.92 9.94 -0.00 -0.04 0.09 13968
0.17 0.21 0.80 -0.88 9.94 -0.01 -0.05 0.10 13974
0.17 0.22 0.76 -0.88 9.92 -0.01 -0.05 0.09 13980
0.20 0.22 0.77 -0.88 9.89 -0.02 -0.04 0.09 13986
0.20 0.22 1.03 -0.88 9.68 -0.02 -0.05 0.09 13993
0.20 0.22 0.73 -0.84 9.92 -0.03 -0.05 0.08 14000
0.21 0.23 0.74 -0.82 9.94 -0.02 -0.06 0.09 14006
0.20 0.21 0.76 -0.83 9.91 -0.02 -0.06 0.09 14012
0.20 0.24 0.73 -0.84 9.92 -0.03 -0.06 0.09 14018
0.24 0.26 0.74 -0.83 9.91 -0.02 -0.05 0.09 14025
0.24 0.26 0.70 -0.83 9.97 -0.02 -0.05 0.09 14031
0.26 0.24 0.74 -0.84 9.94 -0.02 -0.05 0.09 14038
0.26 0.27 0.81 -0.86 9.92 -0.02 -0.05 0.09 14044
0.26 0.27 0.74 -0.87 9.95 -0.02 -0.05 0.08 14050
0.29 0.29 0.77 -0.85 9.92 -0.03 -0.05 0.08 14057
0.28 0.28 0.81 -0.86 9.94 -0.03 -0.05 0.09 14063
0.29 0.28 0.74 -0.84 9.96 -0.03 -0.05 0.09 14069
0.28 0.28 0.78 -0.85 9.98 -0.03 -0.06 0.09 14075
0.31 0.28 0.78 -0.86 9.94 -0.03 -0.06 0.09 14082
0.30 0.28 0.76 -0.81 9.93 -0.02 -0.06 0.09 14089
0.32 0.32 0.78 -0.86 9.94 -0.03 -0.07 0.09 14095
0.34 0.35 0.77 -0.81 9.96 -0.03 -0.07 0.08 14101
0.39 0.39 0.80 -0.83 9.93 -0.03 -0.07 0.09 14107
0.40 0.41 0.77 -0.80 9.95 -0.03 -0.07 0.08 14113
0.43 0.42 0.78 -0.84 9.92 -0.03 -0.08 0.09 14120
0.41 0.37 0.74 -0.80 9.95 -0.03 -0.08 0.08 14127
0.41 0.47 0.75 -0.84 9.97 -0.03 -0.07 0.09 14133
0.44 0.47 0.75 -0.82 9.97 -0.02 -0.07 0.09 14139
0.47 0.42 0.72 -0.80 9.94 -0.02 -0.07 0.08 14145
0.49 0.47 0.74 -0.81 9.96 -0.02 -0.07 0.09 14152
0.52 0.46 0.76 -0.80 9.96 -0.02 -0.07 0.08 14158
0.53 0.48 0.74 -0.82 9.93 -0.02 -0.07 0.09 14164
0.55 0.50 0.73 -0.81 9.98 -0.02 -0.07 0.09 14171
0.55 0.51 0.74 -0.81 9.92 -0.02 -0.07 0.09 14177
0.53 0.48 0.72 -0.82 9.97 -0.01 -0.06 0.09 14184
0.54 0.50 0.72 -0.79 9.92 -0.01 -0.07 0.08 14190
0.53 0.50 0.72 -0.80 9.95 -0.02 -0.06 0.08 14196
0.54 0.50 0.72 -0.79 9.94 -0.01 -0.06 0.09 14202
0.56 0.50 0.71 -0.82 9.98 -0.01 -0.06 0.09 14209
0.56 0.51 0.72 -0.85 9.93 -0.01 -0.06 0.09 14215
0.57 0.52 0.74 -0.79 9.95 -0.01 -0.05 0.09 14222
0.60 0.51 0.70 -0.82 9.95 -0.00 -0.05 0.09 14228
0.60 0.51 0.70 -0.80 9.96 -0.00 -0.04 0.09 14234
0.60 0.51 0.68 -0.85 9.94 -0.00 -0.04 0.09 14240
0.63 0.51 0.71 -0.82 9.95 -0.00 -0.04 0.09 14246
0.62 0.48 0.69 -0.81 9.96 -0.00 -0.04 0.09 14254
0.62 0.47 0.75 -0.88 9.97 -0.03 -0.04 0.09 14260
0.64 0.46 0.68 -0.79 9.92 -0.00 -0.04 0.09 14266
0.64 0.46 0.74 -0.83 9.99 -0.00 -0.04 0.09 14272
0.63 0.47 0.74 -0.82 9.96 -0.00 -0.04 0.09 14278
0.63 0.48 0.74 -0.82 9.93 -0.00 -0.04 0.09 14285
0.63 0.45 0.71 -0.82 9.95 -0.01 -0.04 0.08 14291
0.63 0.43 0.72 -0.82 9.97 -0.00 -0.04 0.08 14298
0.65 0.39 0.74 -0.81 9.93 -0.00 -0.03 0.08 14304
0.65 0.37 0.71 -0.81 9.92 -0.00 -0.03 0.08 14310
0.64 0.40 0.70 -0.85 9.95 -0.00 -0.04 0.08 14317
0.64 0.39 0.70 -0.82 9.95 -0.00 -0.03 0.09 14323
0.65 0.37 0.71 -0.82 9.94 -0.00 -0.03 0.09 14329
0.65 0.37 0.74 -0.85 9.93 0.00 -0.03 0.09 14336
0.65 0.37 0.71 -0.83 9.96 -0.00 -0.03 0.09 14342
0.65 0.32 0.74 -0.80 9.96 -0.00 -0.03 0.09 14349
0.66 0.29 0.74 -0.82 9.93 0.00 -0.02 0.08 14355
0.68 0.25 0.72 -0.79 10.00 0.00 -0.03 0.08 14361
0.66 0.24 0.73 -0.81 9.91 0.00 -0.02 0.08 14367
0.68 0.24 0.75 -0.83 9.90 -0.00 -0.02 0.08 14373
0.68 0.21 0.71 -0.84 10.00 0.00 -0.02 0.09 14381
0.67 0.20 0.72 -0.81 9.90 -0.00 -0.02 0.09 14387
0.67 0.19 0.70 -0.85 9.94 0.00 -0.02 0.09 14393
0.67 0.16 0.70 -0.79 9.94 0.00 -0.02 0.08 14399
0.65 0.16 0.75 -0.82 9.97 0.00 -0.01 0.09 14405
0.67 0.19 0.73 -0.81 9.93 0.00 -0.01 0.09 14411
0.67 0.13 0.72 -0.82 9.95 0.00 -0.01 0.09 14418
0.66 0.15 0.74 -0.80 9.99 0.01 -0.00 0.09 14425
0.66 0.14 0.74 -0.82 9.97 0.00 0.00 0.08 14431
0.65 0.13 0.75 -0.84 9.96 0.00 -0.00 0.09 14437
0.63 0.11 0.78 -0.83 9.92 0.01 -0.00 0.09 14443
0.62 0.10 0.74 -0.83 9.96 0.01 0.00 0.09 14449
0.63 0.08 0.74 -0.87 9.96 0.01 0.00 0.09 14456
0.62 0.07 0.76 -0.81 9.96 0.01 0.00 0.09 14462
0.62 0.08 0.77 -0.86 9.96 0.01 0.01 0.09 14469
0.61 0.03 0.74 -0.86 9.97 0.02 0.01 0.09 14475
0.61 0.02 0.78 -0.86 9.98 0.02 0.01 0.09 14481
0.60 0.04 0.75 -0.83 9.96 0.02 0.01 0.09 14488
0.59 0.05 0.77 -0.83 9.91 0.02 0.01 0.09 14494
0.55 0.04 0.80 -0.87 9.93 0.02 0.01 0.09 14500
0.55 0.02 0.80 -0.85 9.96 0.02 0.01 0.09 14507
0.57 0.04 0.79 -0.86 9.95 0.02 0.01 0.09 14513
0.56 0.02 0.81 -0.84 9.94 0.02 0.01 0.09 14519
0.55 0.00 0.78 -0.86 9.97 0.02 0.01 0.10 14526
0.57 0.01 0.78 -0.87 9.95 0.02 0.01 0.09 14532
0.54 0.02 0.83 -0.84 9.91 0.02 0.00 0.10 14538
0.53 0.02 0.75 -0.85 9.93 0.02 0.01 0.09 14544
0.56 0.01 0.80 -0.85 9.96 0.01 0.01 0.09 14551
0.54 0.01 0.75 -0.84 9.91 0.01 0.00 0.09 14557
0.51 0.02 0.78 -0.83 9.98 0.01 -0.00 0.09 14564
0.52 0.02 0.81 -0.88 9.96 0.01 0.00 0.09 14570
0.51 0.02 0.86 -0.84 9.95 0.01 0.00 0.09 14576
0.51 -0.01 0.55 -0.86 9.93 0.02 0.00 0.09 14582
0.54 -0.01 0.81 -0.87 9.91 0.02 0.00 0.09 14588
0.56 -0.01 0.81 -0.88 9.91 0.02 0.00 0.09 14595
0.54 -0.02 0.83 -0.89 9.96 0.02 0.00 0.09 14602
0.55 -0.02 0.84 -0.88 9.91 0.02 0.00 0.10 14608
0.54 -0.03 0.54 -0.84 9.83 0.01 0.00 0.09 14614
0.55 -0.03 0.79 -0.86 9.91 0.02 0.00 0.09 14620
0.55 -0.02 0.81 -0.86 10.02 0.02 0.00 0.08 14626
0.54 -0.03 0.81 -0.85 9.87 0.02 -0.00 0.09 14632
0.54 -0.04 0.84 -0.90 9.94 0.02 -0.00 0.09 14640
0.55 -0.03 0.87 -0.86 9.94 0.02 -0.00 0.09 14646
0.58 -0.02 0.82 -0.89 9.97 0.02 -0.00 0.09 14652
0.57 -0.05 0.86 -0.91 9.91 0.02 -0.00 0.09 14658
0.57 -0.03 0.84 -0.90 9.92 0.02 -0.00 0.09 14664
0.59 -0.04 0.83 -0.91 9.90 0.02 -0.01 0.08 14670
0.57 -0.04 0.85 -0.90 9.90 0.02 -0.01 0.09 14678
0.57 -0.03 0.86 -0.91 9.93 0.02 -0.01 0.08 14684
0.57 -0.03 0.86 -0.92 9.94 0.02 -0.01 0.08 14690
0.59 -0.04 0.83 -0.83 9.81 0.02 -0.01 0.08 14696
0.55 -0.04 0.87 -0.94 9.96 0.02 -0.01 0.08 14702
0.57 -0.03 0.90 -0.93 9.94 0.02 -0.01 0.08 14709
0.55 -0.04 0.90 -0.93 9.93 0.02 -0.01 0.08 14715
0.56 -0.03 0.87 -0.93 9.98 0.02 -0.01 0.08 14722
0.58 -0.03 0.85 -0.88 9.94 0.03 -0.00 0.08 14728
0.59 -0.03 0.86 -0.91 9.97 0.03 -0.01 0.07 14734
0.59 -0.04 0.96 -0.93 9.98 0.03 -0.00 0.07 14740
0.59 -0.03 0.99 -0.98 9.85 0.03 0.00 0.07 14747
0.60 -0.03 0.91 -0.95 9.90 0.03 0.00 0.07 14753
0.59 -0.03 0.88 -1.00 9.88 0.04 0.00 0.06 14759
0.62 -0.03 0.90 -0.96 9.93 0.03 0.00 0.06 14766
0.64 -0.04 0.89 -0.99 9.91 0.04 0.00 0.05 14772
0.63 -0.04 0.95 -0.96 9.88 0.04 0.01 0.06 14778
0.63 -0.02 0.93 -0.99 9.92 0.04 -0.00 0.06 14785
0.63 -0.04 0.91 -0.95 9.95 0.03 0.00 0.05 14791
0.62 -0.04 0.96 -0.99 9.92 0.04 -0.00 0.06 14797
0.63 -0.02 0.96 -0.97 9.89 0.04 -0.00 0.05 14803
0.66 -0.04 0.93 -0.98 9.94 0.03 0.00 0.05 14810
0.66 -0.05 0.91 -0.99 9.90 0.03 0.00 0.05 14817
0.66 -0.03 0.97 -1.03 9.90 0.04 0.00 0.05 14823
0.66 -0.03 0.93 -1.01 9.92 0.04 0.00 0.05 14829
0.66 -0.04 0.90 -1.04 9.76 0.03 0.00 0.05 14835
0.66 -0.04 0.90 -0.99 9.89 0.03 0.01 0.05 14841
0.68 -0.04 0.94 -1.05 9.89 0.03 0.01 0.05 14848
0.66 -0.04 0.98 -1.03 9.87 0.02 0.01 0.05 14855
0.65 -0.04 0.97 -1.04 9.87 0.02 0.01 0.05 14861
0.66 -0.03 1.04 -0.92 9.84 0.01 0.01 0.04 14867
0.63 -0.04 0.96 -0.98 9.99 0.02 0.02 0.04 14873
0.63 -0.03 1.02 -1.03 9.95 0.04 0.03 0.04 14879
0.63 -0.03 0.99 -0.97 9.90 0.05 0.03 0.03 14885
0.62 -0.03 0.95 -1.03 9.94 0.06 0.04 0.04 14893
0.61 -0.04 0.97 -1.04 9.94 0.06 0.05 0.03 14899
0.61 -0.03 0.98 -1.03 9.88 0.07 0.05 0.03 14905
0.61 -0.03 1.02 -1.06 9.88 0.08 0.06 0.03 14911
0.58 -0.03 0.99 -1.06 9.90 0.07 0.06 0.02 14917
0.58 -0.02 0.98 -1.04 9.93 0.08 0.07 0.02 14923
0.55 -0.03 1.00 -1.06 9.97 0.08 0.07 0.02 14930
0.53 -0.02 1.08 -1.16 10.29 0.08 0.08 0.02 14937
0.54 -0.03 1.05 -1.08 10.03 0.10 0.10 0.02 14943
0.47 -0.05 1.05 -1.10 9.95 0.12 0.10 0.02 14949
0.44 -0.03 1.14 -1.12 10.00 0.14 0.11 0.02 14956
0.44 -0.02 1.04 -1.09 9.98 0.17 0.13 0.02 14962
0.48 -0.03 1.06 -1.14 9.99 0.20 0.16 0.02 14968
0.46 -0.02 1.14 -1.20 10.04 0.23 0.17 0.02 14974
0.41 -0.03 1.08 -1.17 10.11 0.27 0.19 0.01 14981
0.37 -0.02 1.17 -1.20 10.05 0.30 0.22 0.01 14988
0.38 -0.02 1.20 -1.32 10.20 0.35 0.24 0.00 14994
0.37 -0.02 1.25 -1.30 10.14 0.40 0.26 -0.00 15000
0.31 -0.02 1.29 -1.31 10.28 0.44 0.27 -0.01 15006
0.32 -0.02 1.37 -1.30 10.29 0.50 0.28 -0.02 15013
0.30 -0.02 1.40 -1.42 10.35 0.55 0.28 -0.04 15020
0.33 -0.02 1.42 -1.45 10.43 0.61 0.27 -0.06 15026
0.33 -0.03 1.44 -1.53 10.50 0.66 0.25 -0.07 15032
0.30 -0.02 1.43 -1.57 10.35 0.69 0.23 -0.08 15039
0.22 -0.02 1.46 -1.66 10.21 0.71 0.19 -0.10 15045
0.22 -0.02 1.51 -1.66 10.23 0.72 0.16 -0.11 15051
0.20 -0.01 1.39 -1.77 10.10 0.72 0.14 -0.11 15057
0.27 -0.03 1.43 -1.82 10.18 0.72 0.13 -0.12 15065
0.21 -0.02 1.50 -1.90 10.02 0.73 0.13 -0.12 15071
0.22 -0.02 1.44 -1.90 9.97 0.73 0.14 -0.12 15077
0.20 -0.02 1.36 -1.91 10.02 0.73 0.15 -0.12 15083
0.16 -0.01 1.35 -2.11 10.08 0.73 0.16 -0.10 15090
0.17 -0.02 1.44 -2.15 10.09 0.74 0.17 -0.09 15096
0.17 -0.01 1.41 -2.19 10.11 0.74 0.18 -0.09 15102
0.16 -0.01 1.37 -2.17 10.04 0.75 0.19 -0.08 15109
0.13 -0.01 1.54 -2.27 10.05 0.75 0.23 -0.07 15115
0.13 -0.01 1.52 -2.34 10.05 0.76 0.22 -0.06 15122
0.11 -0.01 1.57 -2.35 10.00 0.76 0.23 -0.06 15128
0.08 -0.01 1.60 -2.48 9.90 0.77 0.24 -0.06 15134
0.12 -0.01 1.58 -2.49 9.94 0.79 0.25 -0.06 15140
0.13 -0.01 1.63 -2.61 9.98 0.79 0.26 -0.05 15147
0.10 -0.01 1.62 -2.70 10.12 0.82 0.26 -0.04 15154
0.10 -0.01 1.48 -2.67 10.04 0.84 0.27 -0.03 15160
0.10 -0.01 1.49 -2.79 10.05 0.86 0.29 -0.02 15166
0.10 -0.01 1.51 -2.91 10.03 0.88 0.31 -0.01 15172
0.09 -0.01 1.50 -2.98 9.97 0.90 0.34 0.01 15178
0.10 -0.01 1.52 -3.02 10.05 0.92 0.37 0.03 15184
0.11 -0.01 1.48 -3.19 10.24 0.94 0.40 0.05 15192
0.09 -0.01 1.54 -3.13 10.11 0.97 0.46 0.08 15198
0.11 -0.01 1.58 -3.22 10.10 0.99 0.50 0.10 15204
0.09 -0.01 1.57 -3.29 10.16 1.01 0.53 0.12 15210
0.10 -0.01 1.65 -3.39 10.13 1.04 0.59 0.15 15216
0.11 -0.01 1.61 -3.52 10.19 1.05 0.66 0.17 15223
0.11 -0.01 1.51 -3.62 10.04 1.06 0.71 0.20 15229
0.09 -0.00 1.50 -4.03 9.92 1.07 0.75 0.24 15236
0.11 -0.01 1.42 -3.84 10.03 1.08 0.76 0.29 15242
0.08 -0.01 1.65 -3.98 10.04 1.08 0.77 0.33 15248
0.11 -0.00 1.58 -4.21 10.09 1.09 0.79 0.36 15255
0.13 -0.01 1.16 -4.37 9.95 1.10 0.79 0.40 15261
0.11 -0.01 0.92 -4.52 9.81 1.12 0.75 0.46 15267
