Voltage_01 Voltage_02 Acc_x Acc_y Acc_z Gyro_x Gyro_y Gyro_z Time
5000
-0.00 0.23 0.35 -0.79 9.82 -0.04 0.07 -0.04 24
0.01 0.23 0.34 -0.80 9.79 -0.03 0.06 -0.05 31
0.01 0.23 0.36 -0.82 9.84 -0.04 0.06 -0.05 38
0.00 0.29 0.33 -0.74 9.81 -0.04 0.06 -0.05 46
0.01 0.29 0.32 -0.78 9.82 -0.04 0.05 -0.05 53
-0.01 0.33 0.33 -0.80 9.79 -0.03 0.05 -0.05 60
-0.00 0.34 0.27 -0.77 9.78 -0.04 0.04 -0.05 67
0.01 0.38 0.30 -0.78 9.82 -0.04 0.04 -0.05 74
0.01 0.34 0.31 -0.77 9.81 -0.03 0.04 -0.05 81
0.01 0.32 0.24 -0.77 9.82 -0.03 0.05 -0.05 89
-0.01 0.31 0.26 -0.72 9.81 -0.03 0.05 -0.05 96
-0.01 0.36 0.24 -0.73 9.84 -0.03 0.05 -0.05 103
-0.01 0.38 0.27 -0.76 9.83 -0.02 0.04 -0.05 110
0.01 0.41 0.34 -0.75 9.91 -0.03 0.04 -0.05 117
-0.00 0.46 0.32 -0.76 9.82 -0.02 0.04 -0.05 124
-0.01 0.47 0.33 -0.72 9.82 -0.02 0.03 -0.05 132
-0.02 0.48 0.33 -0.77 9.82 -0.02 0.02 -0.06 139
-0.01 0.48 0.31 -0.75 9.80 -0.02 0.02 -0.05 146
-0.01 0.51 0.33 -0.75 9.82 -0.02 0.02 -0.06 153
0.00 0.49 0.31 -0.77 9.78 -0.02 0.01 -0.06 160
-0.00 0.46 0.32 -0.78 9.82 -0.02 0.00 -0.06 167
0.00 0.47 0.30 -0.75 9.82 -0.02 -0.00 -0.06 175
-0.02 0.47 0.28 -0.74 9.82 -0.02 0.00 -0.07 182
-0.00 0.47 0.28 -0.77 9.82 -0.01 0.03 -0.07 189
-0.00 0.49 0.21 -0.76 10.42 -0.01 0.00 -0.07 196
-0.00 0.49 0.25 -0.75 9.81 -0.01 0.01 -0.06 203
-0.01 0.48 0.24 -0.71 9.82 -0.01 0.02 -0.06 210
-0.02 0.45 0.24 -0.77 9.83 -0.00 0.02 -0.06 218
-0.02 0.46 0.29 -0.76 9.78 -0.01 0.03 -0.07 225
-0.01 0.47 0.24 -0.80 9.78 -0.00 0.03 -0.07 232
-0.00 0.47 0.30 -0.74 9.82 -0.01 0.03 -0.06 239
-0.00 0.46 0.29 -0.74 9.79 -0.00 0.03 -0.07 246
-0.00 0.46 0.27 -0.77 9.81 -0.00 0.03 -0.07 253
-0.01 0.44 0.26 -0.74 9.79 -0.01 0.03 -0.07 261
-0.02 0.46 0.28 -0.76 9.82 -0.01 0.03 -0.10 268
-0.01 0.45 0.28 -0.75 9.78 -0.00 0.04 -0.07 275
-0.01 0.46 0.26 -0.75 9.83 -0.00 0.04 -0.07 282
-0.01 0.46 0.22 -0.77 9.82 -0.01 0.04 -0.07 289
-0.01 0.45 0.24 -0.77 9.82 -0.00 0.04 -0.07 296
-0.02 0.45 0.26 -0.74 9.82 0.00 0.04 -0.07 304
-0.02 0.44 0.26 -0.74 9.82 -0.00 0.05 -0.06 311
-0.01 0.45 0.23 -0.76 9.81 0.00 0.05 -0.06 318
0.00 0.44 0.25 -0.76 9.82 0.00 0.05 -0.06 325
-0.00 0.44 0.26 -0.75 9.80 0.00 0.05 -0.06 332
0.00 0.43 0.26 -0.76 9.77 0.00 0.06 -0.06 339
-0.00 0.44 0.26 -0.77 9.84 0.00 0.06 -0.06 347
0.01 0.43 0.26 -0.74 9.78 -0.00 0.06 -0.07 354
0.01 0.43 0.26 -0.73 9.82 0.00 0.06 -0.06 361
0.02 0.41 0.27 -0.74 9.83 0.00 0.06 -0.06 368
0.01 0.40 0.23 -0.77 9.82 -0.00 0.06 -0.06 375
0.01 0.39 0.28 -0.78 9.82 0.01 0.06 -0.06 382
0.00 0.36 0.27 -0.77 9.81 0.01 0.07 -0.07 390
0.02 0.35 0.26 -0.77 9.79 0.01 0.07 -0.06 397
0.02 0.37 0.26 -0.74 9.80 0.01 0.07 -0.06 404
0.02 0.39 0.28 -0.75 9.81 0.01 0.07 -0.07 411
0.02 0.33 0.27 -0.75 9.79 0.01 0.07 -0.07 418
0.03 0.29 0.27 -0.76 9.82 0.01 0.07 -0.07 425
0.02 0.29 0.29 -0.77 9.82 0.01 0.07 -0.07 433
0.03 0.29 0.30 -0.75 9.79 0.02 0.07 -0.06 440
0.03 0.29 0.30 -0.77 9.80 0.02 0.07 -0.07 447
0.04 0.31 0.30 -0.76 9.82 0.02 0.07 -0.06 454
0.04 0.30 0.30 -0.79 9.79 0.02 0.07 -0.07 461
0.06 0.26 0.29 -0.79 9.80 0.02 0.07 -0.07 468
0.08 0.25 0.30 -0.77 9.80 0.02 0.08 -0.07 476
0.08 0.23 0.31 -0.79 9.78 0.02 0.07 -0.06 483
0.08 0.22 0.30 -0.80 9.81 0.03 0.07 -0.07 490
0.09 0.17 0.28 -0.78 9.82 0.02 0.08 -0.06 497
0.10 0.15 0.32 -0.77 9.81 0.03 0.07 -0.06 504
0.10 0.10 0.32 -0.78 9.81 0.03 0.07 -0.07 512
0.10 0.11 0.31 -0.78 9.81 0.02 0.07 -0.06 519
0.13 0.07 0.31 -0.80 9.83 0.02 0.07 -0.06 526
0.16 0.08 0.34 -0.78 9.80 0.03 0.07 -0.07 533
0.15 0.04 0.33 -0.81 9.84 0.03 0.07 -0.07 540
0.15 0.01 0.33 -0.79 9.82 0.03 0.07 -0.07 547
0.14 0.00 0.37 -0.83 9.88 0.02 0.08 -0.06 555
0.17 0.01 0.35 -0.80 9.81 0.03 0.07 -0.06 562
0.18 0.00 0.37 -0.82 9.81 0.02 0.07 -0.06 569
0.17 0.00 0.36 -0.83 9.79 0.02 0.07 -0.06 576
0.19 -0.00 0.34 -0.81 9.21 0.02 0.07 -0.07 583
0.19 -0.01 0.34 -0.86 9.80 0.02 0.08 -0.06 590
0.17 -0.02 0.35 -0.82 9.82 0.02 0.08 -0.06 598
0.16 -0.01 0.33 -0.84 9.80 0.02 0.08 -0.07 605
0.16 0.00 0.38 -0.88 9.81 0.02 0.08 -0.07 612
0.18 -0.01 0.35 -0.82 9.81 0.03 0.08 -0.06 619
0.18 -0.00 0.34 -0.83 9.79 0.02 0.09 -0.07 626
0.18 -0.02 0.39 -0.82 9.82 0.02 0.08 -0.06 633
0.15 -0.01 0.38 -0.86 9.82 0.03 0.08 -0.06 641
0.20 -0.01 0.39 -0.81 9.81 0.03 0.09 -0.07 648
0.21 -0.01 0.36 -0.83 9.82 0.03 0.09 -0.07 655
0.23 -0.01 0.39 -0.89 9.81 0.04 0.09 -0.06 662
0.23 -0.01 0.37 -0.83 9.83 0.04 0.09 -0.06 669
0.23 -0.02 0.38 -0.86 9.82 0.04 0.10 -0.06 676
0.23 -0.02 0.37 -0.83 9.81 0.04 0.10 -0.06 684
0.22 -0.01 0.37 -0.89 9.78 0.05 0.11 -0.06 691
0.25 -0.02 0.37 -0.88 9.82 0.05 0.11 -0.05 698
0.24 -0.01 0.38 -0.85 9.82 0.06 0.12 -0.06 705
0.22 -0.02 0.40 -0.82 9.82 0.07 0.12 -0.05 712
0.22 -0.02 0.44 -0.86 9.82 0.07 0.13 -0.05 719
0.21 -0.01 0.41 -0.86 9.76 0.08 0.14 -0.05 727
0.21 -0.01 0.45 -0.88 9.81 0.09 0.14 -0.05 734
0.23 -0.02 0.46 -0.88 9.81 0.10 0.15 -0.05 741
0.21 -0.02 0.43 -0.95 9.81 0.11 0.16 -0.05 748
0.22 -0.02 0.42 -0.89 9.81 0.12 0.16 -0.05 755
0.21 -0.02 0.43 -0.90 9.81 0.13 0.17 -0.05 762
0.23 -0.02 0.43 -0.93 9.80 0.14 0.17 -0.05 770
0.23 -0.01 0.47 -0.93 9.82 0.15 0.17 -0.05 777
0.26 -0.02 0.46 -0.95 9.74 0.15 0.17 -0.05 784
0.26 -0.02 0.51 -0.95 9.80 0.17 0.17 -0.05 791
0.27 -0.03 0.51 -0.95 9.82 0.18 0.17 -0.05 798
0.27 -0.02 0.54 -1.03 9.82 0.19 0.17 -0.05 805
0.28 -0.01 0.54 -1.03 9.85 0.20 0.17 -0.06 813
0.29 -0.01 0.56 -1.06 9.87 0.22 0.18 -0.06 820
0.31 -0.02 0.55 -1.12 9.87 0.24 0.18 -0.06 827
0.30 -0.02 0.58 -1.11 9.86 0.26 0.18 -0.06 834
0.30 -0.03 0.58 -1.13 9.84 0.30 0.18 -0.06 841
0.31 -0.02 0.65 -1.11 10.03 0.32 0.19 -0.06 849
0.32 -0.02 0.60 -1.20 9.90 0.36 0.18 -0.07 856
0.32 -0.02 0.68 -1.23 10.01 0.39 0.19 -0.08 864
0.33 -0.02 0.64 -1.24 9.98 0.43 0.19 -0.09 870
0.31 -0.02 0.65 -1.31 10.06 0.46 0.17 -0.08 878
0.31 -0.03 0.60 -1.29 10.05 0.50 0.15 -0.08 884
0.29 -0.01 0.70 -1.42 10.27 0.56 0.14 -0.09 892
0.31 -0.02 0.74 -1.43 10.49 0.61 0.12 -0.09 900
0.30 -0.02 0.61 -1.49 10.52 0.68 0.10 -0.09 906
0.29 -0.02 0.77 -1.57 10.63 0.75 0.08 -0.10 913
0.30 -0.02 0.71 -1.54 10.74 0.81 0.06 -0.10 920
0.26 -0.02 0.73 -1.66 10.55 0.85 0.03 -0.11 927
0.25 -0.02 0.78 -1.74 10.55 0.90 -0.01 -0.12 934
0.23 -0.01 0.88 -1.84 10.47 0.95 -0.02 -0.13 943
0.20 -0.02 0.86 -1.87 10.51 1.00 -0.03 -0.15 949
0.15 -0.01 0.91 -1.95 10.59 1.05 -0.04 -0.16 956
0.12 -0.01 0.69 -1.97 11.95 1.09 -0.11 -0.18 963
0.12 -0.01 0.85 -2.07 11.01 1.15 -0.07 -0.18 970
0.11 -0.01 0.71 -2.21 10.52 1.21 -0.11 -0.19 977
0.08 -0.00 0.82 -2.34 11.07 1.27 -0.12 -0.18 986
0.05 -0.01 0.76 -2.49 10.78 1.33 -0.14 -0.19 992
0.06 -0.01 0.76 -2.58 10.85 1.39 -0.15 -0.19 999
0.08 -0.01 0.79 -2.70 10.58 1.45 -0.18 -0.20 1006
0.03 -0.00 0.81 -2.92 10.71 1.51 -0.17 -0.21 1013
0.04 -0.00 0.83 -2.99 10.97 1.56 -0.18 -0.22 1020
0.04 -0.00 0.90 -3.15 10.98 1.62 -0.16 -0.22 1028
0.06 -0.01 0.94 -3.35 11.09 1.68 -0.12 -0.24 1035
0.08 -0.01 1.13 -3.56 11.12 1.75 -0.07 -0.25 1042
0.05 -0.00 1.25 -3.62 10.92 1.78 -0.02 -0.28 1049
0.05 -0.00 1.19 -3.77 10.95 1.79 0.05 -0.29 1056
0.06 -0.01 1.24 -3.92 10.93 1.81 0.11 -0.31 1063
0.07 -0.01 1.24 -4.04 10.78 1.81 0.19 -0.33 1071
0.05 -0.01 1.12 -4.17 10.68 1.79 0.23 -0.34 1078
0.01 -0.00 0.90 -4.25 10.88 1.76 0.26 -0.36 1085
0.00 -0.00 0.74 -4.24 11.00 1.75 0.28 -0.38 1092
0.00 -0.00 0.62 -4.33 10.70 1.71 0.21 -0.39 1099
0.02 0.00 0.84 -4.35 10.23 1.65 0.14 -0.40 1106
0.03 -0.00 1.00 -4.20 9.79 1.59 0.10 -0.41 1114
0.02 -0.00 0.79 -4.34 9.76 1.50 0.07 -0.43 1121
0.01 -0.00 0.52 -4.46 9.55 1.43 0.02 -0.44 1128
0.00 0.00 0.34 -4.46 9.26 1.37 -0.03 -0.43 1135
0.00 0.00 0.17 -4.21 8.59 1.33 -0.09 -0.43 1142
0.00 0.00 0.01 -3.99 7.65 1.26 -0.14 -0.41 1149
0.00 -0.00 0.04 -3.89 7.20 1.18 -0.21 -0.40 1157
0.00 -0.00 -0.07 -3.81 6.97 1.10 -0.29 -0.38 1164
0.00 0.00 0.03 -3.88 6.99 1.04 -0.38 -0.37 1171
0.00 0.00 0.02 -3.76 7.17 1.00 -0.47 -0.37 1178
0.00 0.00 0.17 -3.54 7.30 0.97 -0.55 -0.35 1185
0.00 0.00 0.10 -4.46 7.57 0.95 -0.61 -0.34 1192
0.01 -0.00 0.19 -4.97 8.09 0.93 -0.67 -0.33 1200
0.00 0.00 0.13 -4.92 8.09 0.95 -0.70 -0.33 1207
0.00 0.00 0.26 -4.56 7.75 0.94 -0.72 -0.33 1214
0.00 0.00 0.50 -4.34 7.16 0.92 -0.71 -0.35 1221
0.00 0.00 0.42 -4.13 6.89 0.86 -0.66 -0.36 1228
0.00 0.00 0.80 -2.99 6.79 0.80 -0.59 -0.36 1235
0.00 -0.00 0.89 -1.93 7.51 0.66 -0.46 -0.36 1243
0.00 0.00 1.39 -1.63 7.83 0.47 -0.29 -0.38 1250
0.00 0.00 1.62 0.31 8.23 0.30 -0.10 -0.38 1257
0.00 0.00 1.29 1.32 7.68 0.07 0.08 -0.38 1264
0.00 0.00 0.75 0.23 7.51 -0.15 0.23 -0.40 1271
0.00 0.00 0.48 -1.19 7.87 -0.28 0.31 -0.38 1278
0.00 0.00 0.20 -1.25 8.30 -0.41 0.36 -0.36 1286
0.00 0.00 -0.01 -1.28 8.34 -0.45 0.32 -0.33 1293
0.00 0.00 -0.12 -1.28 7.96 -0.44 0.23 -0.30 1300
0.00 0.00 -0.06 -1.23 7.43 -0.42 0.09 -0.25 1307
0.00 0.00 0.17 -1.18 7.30 -0.44 -0.02 -0.21 1314
0.00 0.00 0.54 -1.21 7.61 -0.48 -0.09 -0.17 1321
0.00 0.00 0.87 -1.45 8.00 -0.51 -0.10 -0.14 1329
0.00 0.00 1.00 -1.62 8.17 -0.56 -0.06 -0.11 1336
0.00 0.00 1.08 -1.77 8.38 -0.61 0.02 -0.10 1343
0.00 0.00 1.06 -1.93 8.46 -0.66 0.09 -0.09 1350
0.00 0.00 0.99 -2.05 8.66 -0.71 0.16 -0.08 1357
0.00 0.00 0.88 -2.15 9.00 -0.80 0.23 -0.05 1364
0.00 0.00 0.76 -2.91 8.95 -0.83 0.29 -0.04 1372
0.00 0.00 -0.07 -7.61 7.64 -0.89 0.36 -0.03 1379
0.00 0.00 1.12 -4.51 8.98 -1.01 0.43 -0.03 1386
0.00 0.00 0.24 -4.85 8.39 -1.02 0.44 -0.01 1393
0.00 0.00 -0.09 -4.24 8.19 -1.08 0.38 -0.01 1400
0.00 -0.00 -1.32 -7.34 8.04 -1.05 0.33 0.01 1408
0.00 0.00 -1.06 -4.05 9.85 -1.09 0.29 0.02 1415
0.00 0.00 -1.33 -9.63 5.77 -1.04 0.24 0.06 1422
0.00 0.00 0.40 -1.63 12.68 -1.01 0.26 0.07 1429
0.00 0.00 -2.28 -9.27 7.38 -0.91 0.20 0.12 1436
0.00 0.00 -1.14 -6.83 10.06 -0.90 0.21 0.15 1443
0.00 0.00 0.51 -0.71 10.67 -0.89 0.18 0.14 1451
0.00 0.00 -1.87 -7.61 9.41 -0.78 0.15 0.15 1458
0.00 0.00 -2.25 -6.98 11.15 -0.82 0.12 0.14 1465
0.00 0.00 -2.30 -5.41 11.67 -0.79 0.13 0.11 1472
0.00 0.00 -0.63 -2.35 12.29 -0.85 0.11 0.12 1479
0.00 0.00 -1.37 -6.45 7.39 -0.96 0.16 0.11 1486
0.00 0.00 -0.18 -5.38 13.89 -0.98 0.12 0.12 1494
0.00 0.00 0.29 -2.01 8.75 -1.06 0.13 0.10 1501
0.00 0.00 0.03 -4.20 8.87 -1.04 0.12 0.14 1508
0.00 0.00 -0.41 -2.58 11.15 -1.04 0.09 0.17 1515
0.00 0.00 0.19 -2.68 8.40 -1.09 0.08 0.17 1522
0.00 0.00 0.21 -3.43 9.40 -1.04 0.08 0.16 1529
0.00 0.00 0.21 -3.42 9.47 -1.07 0.08 0.14 1537
0.00 0.00 0.34 -3.11 9.52 -1.07 0.07 0.11 1544
0.00 0.00 0.36 -3.17 9.44 -1.06 0.06 0.10 1551
0.00 0.00 0.42 -3.10 9.48 -1.05 0.07 0.08 1558
0.00 0.00 0.55 -3.03 9.62 -1.05 0.08 0.05 1565
0.00 0.00 0.59 -3.01 9.62 -1.05 0.12 0.05 1572
0.00 0.00 0.50 -2.97 9.58 -1.05 0.16 0.05 1580
0.00 0.00 0.51 -2.77 9.73 -1.05 0.21 0.05 1587
0.00 0.00 0.43 -2.61 9.75 -1.05 0.26 0.06 1594
0.00 0.00 0.30 -2.39 9.70 -1.06 0.31 0.06 1601
0.00 0.00 0.12 -2.29 9.80 -1.07 0.33 0.07 1608
0.00 0.00 0.03 -2.22 9.85 -1.09 0.32 0.07 1615
0.00 0.00 0.02 -2.21 9.82 -1.10 0.30 0.06 1623
0.00 0.00 0.08 -2.25 9.75 -1.11 0.27 0.06 1630
0.00 0.00 0.22 -2.20 9.52 -1.10 0.26 0.06 1637
0.00 0.00 0.27 -2.16 9.32 -1.08 0.27 0.06 1644
0.00 0.00 0.30 -2.09 9.30 -1.05 0.29 0.05 1651
0.00 0.00 0.21 -1.95 9.31 -1.03 0.32 0.05 1658
0.00 0.00 0.12 -1.72 9.46 -0.99 0.34 0.04 1666
0.00 0.00 -0.02 -1.64 9.56 -0.97 0.35 0.03 1673
0.00 0.00 -0.04 -1.59 9.76 -0.97 0.32 0.01 1680
0.00 0.00 -0.12 -1.60 9.97 -0.97 0.28 -0.00 1687
0.00 0.00 0.00 -1.72 10.02 -0.97 0.22 -0.01 1694
0.00 0.00 0.14 -1.83 10.00 -0.96 0.16 -0.02 1701
0.00 0.00 0.31 -1.93 9.98 -0.96 0.10 -0.02 1709
0.00 0.00 0.50 -2.11 10.03 -0.95 0.04 -0.03 1716
0.00 0.00 0.76 -2.28 10.25 -0.95 -0.00 -0.04 1723
0.00 0.00 1.09 -2.40 10.32 -0.96 -0.01 -0.05 1730
0.00 0.00 1.31 -2.51 10.45 -0.98 0.01 -0.05 1737
0.00 0.00 1.55 -2.57 10.49 -1.00 0.05 -0.06 1744
0.00 0.00 1.68 -2.77 10.35 -1.02 0.11 -0.06 1752
0.00 0.00 1.67 -2.86 10.32 -1.03 0.18 -0.06 1759
0.00 0.00 1.62 -2.87 10.18 -1.04 0.29 -0.03 1766
0.00 0.00 1.34 -2.93 10.00 -1.04 0.43 -0.00 1773
0.00 0.00 0.97 -3.05 10.39 -1.03 0.50 0.02 1780
0.00 0.00 0.47 -3.24 9.85 -1.02 0.55 0.05 1787
0.00 0.00 0.15 -3.53 9.83 -1.00 0.55 0.07 1795
0.00 0.00 -0.17 -3.83 9.86 -0.96 0.51 0.08 1802
0.00 0.00 -0.48 -3.97 9.76 -0.92 0.46 0.09 1809
0.00 0.00 -0.73 -4.10 9.60 -0.88 0.40 0.10 1816
0.00 0.00 -1.06 -4.12 9.26 -0.83 0.34 0.11 1823
0.00 0.00 -1.34 -4.27 9.00 -0.78 0.28 0.15 1830
0.00 0.00 -5.98 -21.48 21.00 -0.29 -0.56 0.11 1838
0.00 0.00 -1.61 -4.46 4.92 0.33 -0.55 0.05 1845
0.00 0.00 -1.24 -4.62 0.87 0.32 -0.68 0.10 1852
0.00 0.00 -2.96 -13.39 9.66 0.69 -1.04 0.01 1859
0.00 0.00 -0.79 -9.49 3.73 1.04 -0.77 -0.03 1866
0.00 0.00 -1.90 -17.53 22.54 1.13 -0.76 -0.05 1873
0.00 0.00 -4.13 -32.30 12.64 -0.09 0.01 -0.10 1881
0.00 0.00 -0.12 -10.54 8.91 -0.20 0.16 -0.00 1888
0.02 0.01 -1.54 -6.47 8.75 -0.23 0.02 -0.04 1895
0.02 0.01 -0.33 -2.91 9.30 -0.24 0.04 0.04 1902
0.04 0.02 0.66 -0.13 10.11 -0.18 0.10 0.09 1909
0.01 0.05 0.37 0.05 10.17 -0.18 0.07 0.04 1916
0.02 0.10 1.05 0.05 10.11 -0.16 0.06 -0.02 1924
0.01 0.15 0.61 -0.46 10.24 -0.12 0.05 -0.05 1931
0.02 0.13 0.38 -0.79 9.94 -0.09 0.05 -0.06 1938
0.03 0.14 0.23 -0.88 10.10 -0.07 0.05 -0.05 1945
0.04 0.17 0.18 -0.87 9.95 -0.05 0.07 -0.05 1952
0.04 0.18 0.29 -0.78 9.86 -0.04 0.07 -0.06 1959
0.03 0.16 0.36 -0.78 9.81 -0.03 0.07 -0.06 1967
0.03 0.19 0.37 -0.87 9.83 -0.03 0.06 -0.06 1974
0.03 0.19 0.28 -0.92 9.81 -0.03 0.06 -0.05 1981
0.05 0.18 0.29 -0.86 9.78 -0.03 0.06 -0.06 1988
0.04 0.18 0.31 -0.82 9.79 -0.03 0.05 -0.06 1995
0.04 0.19 0.29 -0.83 9.84 -0.04 0.05 -0.06 2002
0.02 0.22 0.32 -0.83 9.75 -0.04 0.04 -0.05 2010
0.01 0.25 0.28 -0.87 9.80 -0.04 0.04 -0.06 2017
0.02 0.27 0.30 -0.86 9.78 -0.05 0.04 -0.05 2024
0.04 0.29 0.31 -0.80 9.80 -0.05 0.04 -0.05 2031
0.04 0.25 0.30 -0.81 9.81 -0.05 0.04 -0.05 2038
0.03 0.23 0.32 -0.80 9.76 -0.05 0.04 -0.06 2045
0.03 0.26 0.32 -0.81 9.83 -0.05 0.04 -0.05 2053
0.03 0.28 0.32 -0.81 9.83 -0.05 0.03 -0.06 2060
0.03 0.32 0.29 -0.81 9.80 -0.04 0.03 -0.06 2067
0.04 0.34 0.31 -0.82 9.76 -0.05 0.03 -0.06 2074
0.03 0.36 0.37 -0.83 9.80 -0.04 0.03 -0.06 2081
0.03 0.33 0.34 -0.82 9.81 -0.05 0.03 -0.06 2088
0.02 0.36 0.34 -0.78 9.79 -0.05 0.04 -0.05 2096
0.04 0.35 0.32 -0.79 9.84 -0.04 0.04 -0.06 2103
0.03 0.40 0.24 -0.75 9.86 -0.04 0.05 -0.05 2110
0.04 0.42 0.26 -0.75 9.84 -0.04 0.05 -0.05 2117
0.03 0.47 0.34 -0.77 9.82 -0.03 0.06 -0.06 2124
0.03 0.44 0.32 -0.80 9.85 -0.03 0.06 -0.05 2131
0.02 0.45 0.27 -0.76 9.80 -0.03 0.06 -0.05 2139
0.03 0.48 0.30 -0.79 9.83 -0.03 0.07 -0.05 2146
0.03 0.53 0.30 -0.75 9.81 -0.03 0.07 -0.05 2153
0.03 0.50 0.36 -0.78 9.83 -0.03 0.07 -0.06 2160
0.02 0.53 0.32 -0.76 9.80 -0.02 0.07 -0.06 2167
0.03 0.49 0.37 -0.78 9.82 -0.02 0.06 -0.05 2174
0.02 0.53 0.30 -0.78 9.81 -0.02 0.07 -0.05 2182
0.02 0.58 0.35 -0.76 9.83 -0.02 0.07 -0.05 2189
0.03 0.58 0.30 -0.77 9.82 -0.02 0.07 -0.05 2196
0.02 0.61 0.35 -0.77 9.77 -0.02 0.07 -0.05 2203
0.03 0.62 0.32 -0.75 9.80 -0.02 0.07 -0.05 2210
0.02 0.62 0.33 -0.75 9.80 -0.01 0.07 -0.06 2217
0.02 0.65 0.33 -0.73 9.21 -0.01 0.07 -0.06 2225
0.02 0.68 0.32 -0.76 9.81 -0.01 0.07 -0.05 2232
0.04 0.63 0.31 -0.78 9.80 -0.01 0.07 -0.06 2239
0.03 0.66 0.35 -0.74 9.81 -0.01 0.07 -0.06 2246
0.02 0.64 0.32 -0.75 9.82 -0.01 0.07 -0.06 2253
0.02 0.66 0.34 -0.76 9.81 -0.01 0.07 -0.05 2260
0.03 0.65 0.31 -0.75 9.78 -0.00 0.07 -0.06 2268
0.02 0.68 0.36 -0.76 9.79 -0.01 0.07 -0.06 2275
0.03 0.64 0.34 -0.76 9.80 -0.01 0.07 -0.05 2282
0.03 0.61 0.34 -0.77 9.80 -0.01 0.07 -0.06 2289
0.02 0.63 0.33 -0.76 9.78 -0.01 0.07 -0.06 2296
0.02 0.62 0.35 -0.75 9.81 -0.01 0.06 -0.06 2304
0.02 0.61 0.37 -0.76 9.78 -0.00 0.06 -0.06 2311
0.03 0.61 0.29 -0.72 10.40 -0.00 0.06 -0.06 2318
0.03 0.58 0.35 -0.76 9.79 -0.01 0.06 -0.05 2325
0.03 0.59 0.37 -0.77 9.79 -0.01 0.06 -0.06 2332
0.03 0.57 0.36 -0.75 9.76 -0.01 0.06 -0.06 2339
0.02 0.58 0.38 -0.73 9.80 -0.00 0.06 -0.06 2347
0.03 0.59 0.34 -0.75 9.77 -0.00 0.05 -0.06 2354
0.03 0.57 0.35 -0.73 9.76 0.00 0.05 -0.06 2361
0.04 0.56 0.39 -0.74 9.81 0.00 0.05 -0.06 2368
0.03 0.53 0.35 -0.76 9.79 0.00 0.05 -0.06 2375
0.02 0.53 0.36 -0.75 9.79 0.01 0.05 -0.06 2382
0.03 0.51 0.37 -0.77 9.78 0.00 0.04 -0.06 2390
0.04 0.53 0.34 -0.76 9.79 0.01 0.04 -0.06 2397
0.05 0.52 0.35 -0.74 9.73 0.01 0.05 -0.06 2404
0.04 0.50 0.36 -0.76 9.73 0.01 0.05 -0.06 2411
0.03 0.48 0.34 -0.79 9.81 0.01 0.05 -0.06 2418
0.03 0.46 0.39 -0.76 9.82 0.02 0.05 -0.06 2425
0.03 0.47 0.34 -0.77 9.82 0.01 0.05 -0.07 2433
0.03 0.45 0.33 -0.79 9.77 0.02 0.05 -0.07 2440
0.04 0.42 0.35 -0.77 9.21 0.02 0.05 -0.06 2447
0.04 0.41 0.38 -0.78 9.81 0.02 0.05 -0.06 2454
0.03 0.36 0.37 -0.77 9.81 0.02 0.05 -0.06 2461
0.04 0.35 0.36 -0.77 9.81 0.02 0.05 -0.07 2468
0.05 0.35 0.32 -0.78 9.74 0.02 0.05 -0.07 2476
0.04 0.38 0.40 -0.79 10.42 0.02 0.05 -0.07 2483
0.05 0.35 0.35 -0.77 9.82 0.02 0.05 -0.07 2490
0.05 0.33 0.40 -0.78 9.85 0.02 0.05 -0.07 2497
0.05 0.31 0.42 -0.80 9.80 0.02 0.06 -0.07 2504
0.05 0.29 0.40 -0.80 9.74 0.02 0.05 -0.07 2511
0.06 0.29 0.41 -0.79 9.82 0.02 0.06 -0.08 2519
0.07 0.26 0.40 -0.85 9.81 0.02 0.06 -0.08 2526
0.10 0.26 0.35 -0.82 9.82 0.02 0.06 -0.07 2533
0.11 0.25 0.39 -0.82 9.80 0.03 0.06 -0.07 2540
0.11 0.23 0.37 -0.81 9.80 0.03 0.06 -0.08 2547
0.10 0.20 0.36 -0.79 9.82 0.03 0.06 -0.07 2554
0.13 0.18 0.40 -0.82 9.81 0.03 0.06 -0.08 2562
0.13 0.15 0.41 -0.83 9.84 0.04 0.06 -0.08 2569
0.13 0.12 0.41 -0.84 9.80 0.03 0.06 -0.08 2576
0.15 0.09 0.38 -0.81 9.79 0.04 0.06 -0.08 2583
0.15 0.09 0.44 -0.86 9.82 0.04 0.06 -0.07 2590
0.13 0.06 0.42 -0.83 9.79 0.03 0.06 -0.07 2597
0.15 0.04 0.40 -0.89 9.80 0.04 0.06 -0.08 2605
0.16 0.03 0.41 -0.86 9.81 0.04 0.06 -0.07 2612
0.14 0.02 0.43 -0.87 9.81 0.04 0.06 -0.07 2619
0.14 0.00 0.41 -0.90 9.77 0.04 0.06 -0.07 2626
0.15 0.01 0.39 -0.90 9.83 0.04 0.06 -0.07 2633
0.17 -0.00 0.41 -0.88 9.83 0.04 0.06 -0.07 2640
0.16 0.00 0.43 -0.85 9.82 0.04 0.06 -0.07 2648
0.17 -0.01 0.39 -0.88 9.82 0.04 0.06 -0.06 2655
0.19 -0.01 0.40 -0.89 9.82 0.04 0.06 -0.06 2662
0.21 -0.02 0.39 -0.91 9.82 0.04 0.06 -0.07 2669
0.21 -0.01 0.42 -0.88 9.80 0.04 0.06 -0.06 2676
0.23 -0.01 0.43 -0.84 9.79 0.04 0.06 -0.06 2683
0.26 0.00 0.45 -0.91 9.82 0.05 0.07 -0.06 2691
0.29 -0.01 0.42 -0.88 9.83 0.05 0.07 -0.06 2698
0.29 -0.01 0.44 -0.96 9.83 0.06 0.07 -0.06 2705
0.26 -0.03 0.40 -0.92 9.82 0.06 0.07 -0.06 2712
0.29 -0.01 0.45 -0.91 9.81 0.07 0.08 -0.06 2719
0.30 -0.01 0.43 -0.92 9.82 0.07 0.08 -0.06 2726
0.31 -0.01 0.41 -0.92 9.81 0.07 0.08 -0.06 2734
0.37 -0.02 0.43 -0.90 9.79 0.08 0.09 -0.06 2741
0.38 -0.03 0.38 -0.93 9.81 0.08 0.09 -0.06 2748
0.39 -0.03 0.46 -0.93 9.81 0.08 0.10 -0.06 2755
0.40 -0.02 0.43 -0.90 9.81 0.09 0.10 -0.06 2762
0.42 -0.01 0.42 -0.96 9.77 0.10 0.11 -0.06 2769
0.44 -0.02 0.44 -0.98 9.78 0.10 0.11 -0.05 2777
0.44 -0.03 0.43 -0.94 9.83 0.11 0.12 -0.05 2784
0.42 -0.02 0.42 -0.95 9.82 0.12 0.13 -0.05 2791
0.43 -0.02 0.45 -1.00 9.81 0.12 0.14 -0.05 2798
0.43 -0.02 0.42 -1.00 9.82 0.14 0.14 -0.05 2805
0.46 -0.01 0.48 -1.00 9.82 0.15 0.15 -0.05 2812
0.49 -0.02 0.51 -1.02 9.82 0.16 0.16 -0.05 2820
0.49 -0.02 0.48 -1.03 9.80 0.17 0.16 -0.05 2827
0.51 -0.03 0.53 -1.03 9.80 0.18 0.16 -0.05 2834
0.52 -0.03 0.46 -1.09 9.78 0.19 0.15 -0.05 2841
0.52 -0.02 0.54 -1.09 9.84 0.20 0.15 -0.05 2848
0.53 -0.02 0.49 -1.09 9.81 0.21 0.15 -0.05 2855
0.54 -0.03 0.54 -1.15 9.89 0.23 0.15 -0.05 2863
0.53 -0.03 0.57 -1.14 10.40 0.25 0.15 -0.05 2871
0.55 -0.04 0.56 -1.13 9.83 0.27 0.15 -0.05 2877
0.55 -0.03 1.20 -1.18 9.83 0.29 0.15 -0.06 2884
0.58 -0.03 0.54 -1.25 9.83 0.31 0.15 -0.06 2891
0.60 -0.03 0.59 -1.25 9.82 0.32 0.15 -0.06 2898
0.61 -0.03 0.58 -1.23 9.83 0.34 0.15 -0.06 2906
0.61 -0.03 0.61 -1.30 9.98 0.35 0.14 -0.06 2913
0.62 -0.04 1.21 -1.33 9.88 0.37 0.14 -0.06 2920
0.62 -0.03 0.67 -1.37 9.92 0.38 0.13 -0.07 2927
0.62 -0.03 0.67 -1.33 9.82 0.39 0.11 -0.07 2934
0.64 -0.02 0.66 -1.44 9.77 0.39 0.11 -0.07 2941
0.64 -0.04 0.72 -1.44 9.73 0.40 0.10 -0.08 2949
0.62 -0.03 0.71 -1.50 9.84 0.39 0.09 -0.08 2956
0.63 -0.03 0.70 -1.52 10.41 0.40 0.07 -0.09 2963
0.62 -0.03 0.66 -1.54 9.82 0.40 0.06 -0.09 2970
0.62 -0.03 0.64 -1.60 9.91 0.41 0.05 -0.08 2977
0.61 -0.02 0.59 -1.65 10.06 0.43 0.02 -0.07 2984
0.60 -0.03 0.70 -1.69 10.01 0.45 0.01 -0.08 2992
0.58 -0.03 0.74 -1.71 10.06 0.48 -0.02 -0.09 3000
0.55 -0.03 0.77 -1.74 9.93 0.50 -0.03 -0.09 3006
0.53 -0.03 0.75 -1.79 9.92 0.50 -0.04 -0.10 3013
0.49 -0.01 0.73 -1.91 10.17 0.51 -0.06 -0.11 3021
0.48 -0.03 0.74 -1.91 10.16 0.52 -0.07 -0.12 3028
0.42 -0.03 0.74 -1.96 10.24 0.54 -0.08 -0.12 3036
0.37 -0.03 0.81 -1.98 10.08 0.57 -0.10 -0.14 3043
0.29 -0.02 0.90 -2.04 10.11 0.60 -0.12 -0.16 3050
0.23 -0.02 0.83 -2.07 10.23 0.63 -0.15 -0.18 3057
0.20 -0.01 0.78 -2.16 10.24 0.70 -0.18 -0.20 3064
0.19 -0.02 0.87 -2.23 10.62 0.71 -0.20 -0.21 3070
0.20 -0.02 0.83 -2.28 10.51 0.78 -0.22 -0.23 3079
0.16 -0.02 0.83 -2.30 10.52 0.83 -0.24 -0.24 3085
0.14 -0.01 0.74 -2.28 10.21 0.90 -0.28 -0.26 3092
0.12 -0.01 0.79 -2.50 10.80 0.94 -0.29 -0.26 3099
0.12 -0.01 0.88 -2.63 11.00 1.03 -0.32 -0.28 3106
0.09 -0.01 0.86 -2.76 10.99 1.12 -0.32 -0.30 3113
0.03 -0.00 1.11 -2.88 11.01 1.19 -0.32 -0.33 3121
0.06 -0.01 1.29 -3.01 10.88 1.25 -0.29 -0.36 3128
0.04 -0.00 1.43 -3.23 10.91 1.29 -0.24 -0.40 3135
0.05 -0.01 1.45 -3.38 10.95 1.34 -0.18 -0.45 3142
0.07 -0.01 1.38 -3.47 11.13 1.40 -0.10 -0.48 3149
0.02 -0.00 1.22 -3.42 11.00 1.45 -0.03 -0.51 3156
0.05 -0.00 1.00 -3.43 11.58 1.48 -0.00 -0.53 3164
0.02 -0.00 0.91 -3.51 10.91 1.48 0.02 -0.56 3171
0.01 -0.00 0.81 -3.58 10.81 1.48 0.01 -0.58 3178
0.02 -0.00 0.84 -3.58 10.74 1.46 -0.00 -0.59 3185
0.03 -0.00 0.80 -3.56 10.62 1.45 -0.02 -0.62 3192
0.03 -0.00 0.91 -3.54 10.52 1.40 -0.03 -0.62 3200
0.03 -0.00 0.80 -3.54 10.23 1.33 -0.01 -0.64 3207
0.02 -0.00 0.48 -3.41 9.75 1.26 -0.02 -0.65 3214
0.01 -0.00 0.28 -3.26 9.32 1.17 -0.07 -0.66 3221
-0.00 0.00 0.10 -3.14 8.94 1.09 -0.14 -0.66 3228
0.00 -0.00 0.06 -3.23 8.84 1.01 -0.20 -0.65 3235
0.00 0.00 0.03 -3.06 8.58 0.94 -0.25 -0.65 3243
0.00 0.00 0.08 -2.72 8.21 0.89 -0.28 -0.64 3250
0.00 0.00 0.28 -2.14 8.02 0.83 -0.28 -0.61 3257
0.00 0.00 0.51 -2.25 8.21 0.74 -0.24 -0.58 3264
0.00 0.00 0.26 -2.91 8.20 0.70 -0.19 -0.55 3271
0.00 -0.00 -0.05 -2.77 7.93 0.66 -0.16 -0.51 3278
0.00 0.00 0.33 -0.64 7.87 0.63 -0.15 -0.49 3286
0.00 0.00 0.16 0.41 7.49 0.52 -0.12 -0.43 3293
0.00 0.00 0.13 0.77 7.56 0.33 -0.07 -0.32 3300
0.00 0.00 0.42 0.98 7.68 0.21 -0.10 -0.19 3307
0.00 0.00 0.25 -0.04 7.75 0.14 -0.14 -0.10 3314
0.00 0.00 0.58 -1.30 7.68 0.09 -0.19 0.02 3321
0.00 0.00 0.32 -0.80 8.10 0.08 -0.20 0.08 3329
0.00 0.00 0.84 0.04 7.23 0.01 -0.19 0.11 3336
0.00 0.00 2.29 1.10 7.71 -0.07 -0.19 0.18 3343
0.00 0.00 0.51 -1.62 6.74 -0.12 -0.11 0.21 3350
0.00 0.00 1.21 -1.33 8.16 -0.24 -0.05 0.20 3357
0.00 0.00 0.47 -1.67 8.62 -0.25 0.02 0.21 3364
0.00 0.00 1.14 0.30 9.05 -0.35 0.10 0.23 3372
0.00 0.00 -0.51 -2.00 8.80 -0.39 0.12 0.27 3379
0.00 0.00 -1.67 -5.64 8.56 -0.40 0.12 0.21 3386
0.00 0.00 -0.74 -2.13 7.88 -0.48 0.07 0.20 3393
0.00 0.00 -1.00 -3.15 7.35 -0.45 0.11 0.11 3400
0.00 0.00 -0.03 -6.03 8.14 -0.52 0.08 0.13 3407
0.00 0.00 0.12 -3.56 10.95 -0.44 0.09 0.03 3415
0.00 0.00 -0.45 -8.25 6.71 -0.50 0.03 0.09 3422
0.00 0.00 -0.20 -6.08 10.65 -0.45 0.11 0.02 3429
0.00 0.00 -0.71 -2.79 8.79 -0.39 0.04 -0.05 3436
0.00 0.00 -0.23 -7.81 7.57 -0.46 0.12 -0.02 3443
0.00 0.00 1.44 -2.85 11.98 -0.43 0.22 -0.07 3450
0.00 0.00 -0.41 -5.30 8.94 -0.44 0.16 -0.10 3458
0.00 0.00 -0.58 -3.86 9.79 -0.47 0.20 -0.10 3465
0.00 0.00 1.05 -1.45 8.78 -0.41 0.17 -0.09 3472
0.00 0.00 -0.32 -4.82 8.25 -0.44 0.23 -0.06 3479
0.00 0.00 0.39 -3.26 8.61 -0.47 0.23 -0.04 3486
0.00 0.00 -0.14 -1.68 8.61 -0.43 0.24 0.01 3493
0.00 0.00 -0.67 -3.96 6.49 -0.39 0.26 0.05 3501
0.00 0.00 -0.55 -4.59 8.35 -0.45 0.25 0.09 3508
0.00 0.00 -0.05 -2.27 10.97 -0.44 0.27 0.10 3515
0.00 0.00 -0.01 -0.86 9.39 -0.44 0.23 0.12 3522
0.00 0.00 -0.96 -3.56 7.66 -0.45 0.16 0.17 3529
0.00 0.00 -0.75 -1.01 10.86 -0.44 0.22 0.18 3536
0.00 0.00 -2.21 -3.68 7.01 -0.45 0.10 0.15 3544
0.00 0.00 -0.68 -3.64 7.98 -0.49 0.18 0.15 3551
0.00 0.00 -0.30 -3.36 10.89 -0.53 0.19 0.10 3558
0.00 0.00 -0.57 -2.27 10.63 -0.60 0.19 0.10 3565
0.00 0.00 -1.36 -3.87 8.35 -0.54 0.19 0.09 3572
0.00 0.00 -0.73 -1.85 11.04 -0.57 0.16 0.06 3579
0.00 0.00 -0.53 -2.41 9.08 -0.60 0.14 0.05 3587
0.00 0.00 0.11 -3.93 9.66 -0.57 0.21 0.04 3594
0.00 0.00 0.77 -1.95 8.07 -0.66 0.24 0.00 3601
0.00 0.00 0.69 -1.46 9.30 -0.62 0.25 0.03 3608
0.00 0.00 0.17 -1.85 9.81 -0.65 0.27 0.03 3615
0.00 0.00 0.02 -1.98 10.75 -0.66 0.25 0.04 3622
0.00 0.00 0.03 -1.60 10.36 -0.67 0.25 0.07 3630
0.00 0.00 0.23 -0.78 9.97 -0.69 0.26 0.08 3637
-0.00 0.00 0.34 -1.14 9.12 -0.71 0.23 0.10 3644
0.00 -0.00 0.13 -1.31 9.12 -0.73 0.24 0.12 3651
0.00 0.00 0.12 -0.85 10.51 -0.76 0.25 0.14 3658
0.00 0.00 -0.01 -0.96 10.14 -0.82 0.23 0.16 3665
0.00 0.00 -0.04 -0.86 10.35 -0.87 0.20 0.18 3673
0.00 0.00 0.08 -0.73 10.51 -0.95 0.18 0.18 3680
-0.00 0.00 0.20 -0.70 10.53 -1.03 0.16 0.18 3687
0.00 -0.00 0.31 -0.78 10.27 -1.09 0.15 0.17 3694
0.00 0.00 0.50 -0.83 10.18 -1.14 0.16 0.16 3701
0.00 0.00 0.62 -1.04 10.03 -1.16 0.17 0.14 3708
0.00 0.00 0.72 -1.16 9.93 -1.19 0.19 0.12 3716
0.00 0.00 0.80 -1.26 9.90 -1.19 0.21 0.10 3723
0.00 0.00 0.85 -1.31 9.85 -1.18 0.22 0.10 3730
0.00 0.00 0.93 -1.28 9.85 -1.18 0.23 0.10 3737
0.00 0.00 0.98 -1.23 9.94 -1.17 0.25 0.10 3744
0.00 0.00 1.03 -1.13 10.02 -1.18 0.26 0.11 3751
0.00 0.00 1.04 -1.02 10.08 -1.19 0.28 0.12 3759
0.00 0.00 0.95 -0.91 10.29 -1.20 0.29 0.13 3766
0.00 0.00 1.07 -0.99 10.51 -1.22 0.30 0.15 3773
0.00 0.00 1.30 -1.21 10.56 -1.22 0.28 0.17 3780
0.00 0.00 1.36 -1.33 10.58 -1.23 0.29 0.20 3787
0.00 0.00 1.59 -1.55 10.56 -1.25 0.31 0.23 3794
0.00 0.00 1.64 -1.78 10.44 -1.24 0.34 0.27 3802
0.00 0.00 1.62 -2.02 10.28 -1.23 0.37 0.30 3809
0.00 0.00 1.49 -2.28 10.17 -1.20 0.38 0.33 3816
0.00 0.00 1.37 -2.43 10.06 -1.17 0.39 0.37 3823
0.00 0.00 1.26 -2.58 9.81 -1.12 0.39 0.39 3830
0.00 0.00 0.99 -2.71 9.60 -1.06 0.39 0.41 3837
0.00 0.00 0.66 -2.88 9.40 -0.98 0.39 0.43 3845
0.00 0.00 0.10 -3.07 9.33 -0.88 0.36 0.45 3852
0.00 -0.00 -0.25 -3.25 9.65 -0.80 0.27 0.45 3859
0.00 0.00 -0.47 -3.42 9.83 -0.72 0.22 0.44 3866
0.00 0.00 -0.53 -3.59 9.94 -0.68 0.13 0.42 3873
0.00 0.00 -0.48 -3.73 9.84 -0.66 0.07 0.38 3880
0.00 0.00 -0.44 -3.96 9.74 -0.63 -0.01 0.33 3888
0.00 0.00 -0.29 -4.70 9.65 -0.60 -0.10 0.28 3895
0.00 0.00 -2.46 -17.21 16.60 -0.21 -0.55 0.16 3902
0.00 0.00 1.68 -2.61 2.56 0.26 -0.23 0.04 3909
0.00 0.00 0.36 -8.45 4.37 0.06 -0.20 0.01 3916
0.00 0.00 -0.42 -14.13 12.42 0.36 -0.16 -0.09 3923
0.00 0.00 -1.17 -13.98 4.21 0.47 -0.09 -0.19 3931
-0.00 0.01 -1.98 -14.37 3.93 0.59 -0.28 -0.31 3938
0.00 0.00 -3.55 -17.32 5.91 0.81 -0.37 -0.35 3945
0.00 0.00 -3.48 -22.04 5.57 0.98 -0.48 -0.25 3952
0.00 0.00 -5.73 -27.27 19.90 1.09 -1.07 -0.23 3959
-0.00 0.02 1.31 1.65 15.62 0.18 -0.60 -0.18 3966
-0.00 0.02 -0.37 -3.18 8.74 -0.20 0.02 0.06 3974
0.03 0.06 0.41 -1.55 10.06 -0.31 0.04 0.07 3981
-0.00 0.07 0.24 -0.61 10.13 -0.28 0.04 0.08 3988
-0.01 0.14 0.44 0.15 10.16 -0.18 0.06 0.04 3995
0.01 0.14 0.68 -0.07 10.31 -0.16 0.05 -0.02 4002
0.01 0.21 0.59 -0.58 10.08 -0.15 0.04 -0.04 4009
0.00 0.25 0.50 -0.78 10.04 -0.11 0.05 -0.05 4017
0.02 0.25 0.42 -0.76 10.04 -0.07 0.05 -0.04 4024
0.02 0.25 0.34 -0.73 9.81 -0.06 0.06 -0.05 4031
-0.01 0.27 0.43 -0.73 9.79 -0.05 0.06 -0.05 4038
0.01 0.26 0.41 -0.80 9.95 -0.04 0.06 -0.05 4045
0.01 0.29 0.59 -0.81 9.78 -0.04 0.05 -0.05 4052
0.01 0.30 0.42 -0.81 9.80 -0.04 0.04 -0.04 4060
0.02 0.30 0.39 -0.80 9.78 -0.04 0.04 -0.05 4067
0.04 0.33 0.35 -0.75 9.64 -0.04 0.03 -0.05 4074
0.03 0.33 0.39 -0.77 9.79 -0.04 0.07 -0.05 4081
0.02 0.38 0.48 -0.71 9.82 -0.04 0.03 -0.05 4088
0.02 0.37 0.42 -0.77 9.82 -0.04 0.03 -0.05 4096
0.02 0.39 0.41 -0.76 9.85 -0.04 0.04 -0.06 4103
0.03 0.44 0.37 -0.76 9.81 -0.04 0.04 -0.05 4110
0.02 0.45 0.32 -0.76 9.79 -0.04 0.05 -0.06 4117
0.02 0.43 0.35 -0.75 9.82 -0.03 0.05 -0.06 4124
0.01 0.51 0.39 -0.75 9.82 -0.03 0.06 -0.06 4131
0.01 0.49 0.33 -0.69 9.83 -0.03 0.06 -0.06 4139
0.02 0.52 0.47 -0.77 9.82 -0.03 0.06 -0.06 4146
0.03 0.53 0.43 -0.74 9.82 -0.03 0.05 -0.06 4153
0.02 0.54 0.58 -0.78 9.78 -0.03 0.05 -0.06 4160
0.01 0.58 0.44 -0.75 9.84 -0.03 0.05 -0.06 4167
-0.00 0.60 0.34 -0.72 9.82 -0.03 0.05 -0.05 4174
0.01 0.64 0.43 -0.72 9.81 -0.03 0.06 -0.05 4182
0.02 0.67 0.40 -0.73 9.83 -0.03 0.06 -0.05 4189
0.02 0.62 0.40 -0.74 9.82 -0.03 0.07 -0.05 4196
0.01 0.66 0.48 -0.69 9.77 -0.03 0.07 -0.06 4203
0.02 0.69 0.43 -0.70 9.84 -0.03 0.08 -0.05 4210
-0.00 0.75 0.42 -0.67 9.23 -0.02 0.08 -0.06 4217
0.00 0.74 0.43 -0.70 9.83 -0.02 0.08 -0.05 4225
0.02 0.72 0.47 -0.74 9.77 -0.02 0.08 -0.06 4232
0.01 0.74 0.46 -0.75 9.83 -0.02 0.08 -0.05 4239
0.01 0.72 0.39 -0.75 9.79 -0.01 0.08 -0.05 4246
0.01 0.68 0.26 -0.72 9.79 -0.02 0.08 -0.05 4253
0.01 0.70 0.43 -0.69 9.81 -0.01 0.09 -0.05 4260
0.01 0.73 0.46 -0.74 9.79 -0.02 0.10 -0.05 4268
0.00 0.71 0.47 -0.68 9.82 -0.02 0.10 -0.05 4275
-0.00 0.71 0.44 -0.67 9.81 -0.01 0.11 -0.05 4282
-0.00 0.67 0.62 -0.74 9.85 -0.01 0.11 -0.04 4289
-0.01 0.68 0.50 -0.72 9.78 -0.01 0.11 -0.05 4296
-0.01 0.70 0.51 -0.68 9.82 -0.01 0.10 -0.05 4303
-0.01 0.74 0.27 -0.70 9.74 -0.01 0.11 -0.05 4311
-0.00 0.72 0.46 -0.71 9.77 -0.01 0.11 -0.05 4318
-0.01 0.72 0.53 -0.72 9.78 -0.01 0.11 -0.05 4325
-0.02 0.68 0.46 -0.68 9.81 -0.01 0.12 -0.05 4332
-0.02 0.67 0.53 -0.68 9.79 -0.01 0.11 -0.05 4339
-0.01 0.69 0.52 -0.67 9.82 -0.01 0.11 -0.05 4346
-0.01 0.68 0.44 -0.68 9.73 -0.00 0.10 -0.05 4354
-0.00 0.67 0.49 -0.72 9.81 -0.01 0.09 -0.05 4361
-0.01 0.67 0.54 -0.70 9.80 -0.01 0.09 -0.05 4368
-0.01 0.65 0.51 -0.65 9.77 -0.01 0.08 -0.05 4375
-0.04 0.64 0.53 -0.66 9.79 -0.01 0.08 -0.05 4382
-0.03 0.66 0.53 -0.69 9.80 -0.01 0.07 -0.05 4389
-0.03 0.67 0.55 -0.68 9.81 -0.01 0.07 -0.05 4397
-0.01 0.66 0.52 -0.70 9.80 -0.01 0.07 -0.05 4404
-0.01 0.66 0.51 -0.67 9.81 -0.01 0.06 -0.05 4411
-0.02 0.65 0.54 -0.72 9.82 -0.01 0.06 -0.05 4418
-0.03 0.68 0.50 -0.68 9.80 -0.01 0.06 -0.05 4425
-0.02 0.68 0.51 -0.69 9.81 -0.01 0.07 -0.05 4432
-0.01 0.69 0.53 -0.67 9.80 -0.01 0.06 -0.05 4440
-0.01 0.68 0.56 -0.67 9.81 -0.01 0.07 -0.04 4447
-0.01 0.67 0.58 -0.65 9.81 -0.00 0.06 -0.04 4454
-0.02 0.66 0.54 -0.70 9.77 -0.00 0.06 -0.05 4461
-0.02 0.65 0.55 -0.71 9.81 -0.00 0.06 -0.05 4468
-0.01 0.65 0.57 -0.68 10.42 0.00 0.06 -0.05 4475
0.00 0.63 0.53 -0.70 9.76 0.00 0.07 -0.05 4483
0.01 0.61 0.53 -0.70 9.78 -0.00 0.07 -0.05 4490
0.00 0.59 0.47 -0.71 9.81 -0.00 0.07 -0.05 4497
0.00 0.59 0.53 -0.69 9.70 0.00 0.08 -0.05 4504
0.01 0.60 0.58 -0.63 9.77 0.01 0.08 -0.05 4511
0.00 0.61 0.56 -0.68 9.81 0.01 0.09 -0.05 4518
0.02 0.59 0.13 -0.63 9.75 0.01 0.09 -0.05 4526
0.01 0.57 0.57 -0.69 9.75 0.01 0.10 -0.05 4533
0.01 0.56 0.61 -0.69 9.78 0.02 0.10 -0.05 4540
-0.01 0.54 0.74 -0.79 9.71 0.02 0.10 -0.05 4547
0.01 0.50 0.58 -0.70 9.80 0.02 0.10 -0.05 4554
0.02 0.49 0.54 -0.72 9.79 0.02 0.10 -0.05 4561
0.02 0.48 0.64 -0.74 9.80 0.02 0.10 -0.06 4569
0.02 0.46 0.61 -0.73 9.76 0.02 0.09 -0.06 4576
0.02 0.42 0.65 -0.05 9.86 0.02 0.10 -0.06 4583
-0.01 0.40 0.64 -0.74 9.80 0.02 0.09 -0.06 4590
0.01 0.39 0.48 -0.69 9.82 0.02 0.09 -0.06 4597
0.02 0.38 0.63 -0.76 9.77 0.02 0.09 -0.06 4604
0.03 0.34 0.80 -0.83 9.75 0.02 0.08 -0.06 4612
0.02 0.33 0.59 -0.76 9.79 0.02 0.08 -0.06 4619
0.03 0.29 0.63 -0.74 9.80 0.02 0.08 -0.06 4626
0.01 0.31 0.62 -0.74 9.78 0.02 0.07 -0.06 4633
0.02 0.31 0.64 -0.73 9.81 0.02 0.07 -0.06 4640
0.03 0.35 0.67 -0.74 9.80 0.02 0.07 -0.06 4647
0.03 0.28 0.62 -0.78 9.81 0.02 0.07 -0.06 4655
0.02 0.30 0.67 -0.77 9.82 0.02 0.08 -0.06 4662
0.03 0.33 0.64 -0.74 9.78 0.02 0.07 -0.06 4669
0.04 0.30 0.51 -0.67 9.82 0.02 0.08 -0.07 4676
0.04 0.30 0.68 -0.73 9.80 0.02 0.07 -0.07 4683
0.05 0.27 0.65 -0.76 9.78 0.02 0.07 -0.07 4690
0.04 0.23 0.62 -0.78 9.77 0.03 0.05 -0.07 4698
0.05 0.22 0.68 -0.78 9.78 0.03 0.05 -0.07 4705
0.05 0.19 0.68 -0.73 9.75 0.03 0.05 -0.07 4712
0.05 0.20 0.70 -0.75 9.81 0.03 0.05 -0.07 4719
0.06 0.20 0.68 -0.78 9.78 0.04 0.06 -0.07 4726
0.09 0.19 0.74 -0.78 10.42 0.04 0.05 -0.07 4733
0.07 0.12 0.69 -0.74 9.78 0.04 0.05 -0.07 4741
0.10 0.08 0.70 -0.79 9.74 0.04 0.05 -0.07 4748
0.08 0.04 0.66 -0.83 9.79 0.04 0.05 -0.07 4755
0.09 0.04 0.70 -0.81 9.79 0.05 0.04 -0.08 4762
0.11 -0.00 0.67 -0.78 9.76 0.05 0.04 -0.07 4769
0.13 0.04 0.68 -0.80 9.81 0.05 0.04 -0.07 4776
0.12 0.02 0.65 -0.82 9.85 0.05 0.05 -0.07 4784
0.14 0.01 0.68 -0.83 9.82 0.05 0.05 -0.07 4791
0.14 0.00 0.70 -0.83 9.82 0.05 0.05 -0.07 4798
0.15 -0.00 0.68 -0.86 9.81 0.05 0.05 -0.06 4805
0.17 0.01 0.67 -0.88 9.83 0.05 0.06 -0.07 4812
0.20 -0.02 0.66 -0.84 9.82 0.05 0.06 -0.06 4819
0.19 0.00 0.66 -0.83 9.82 0.05 0.07 -0.07 4827
0.19 -0.02 0.70 -0.86 9.82 0.05 0.07 -0.07 4834
0.18 -0.01 0.69 -0.88 9.79 0.06 0.08 -0.07 4841
0.18 -0.01 0.72 -0.86 9.79 0.06 0.08 -0.06 4848
0.20 -0.01 0.63 -0.89 9.80 0.06 0.09 -0.06 4855
0.19 -0.02 0.70 -0.89 9.78 0.06 0.10 -0.06 4862
0.20 -0.01 0.69 -0.84 9.80 0.07 0.10 -0.06 4870
0.22 -0.02 0.68 -0.88 9.77 0.07 0.11 -0.06 4877
0.25 -0.02 0.69 -0.86 9.78 0.08 0.12 -0.05 4884
0.26 -0.00 0.71 -0.86 9.82 0.09 0.13 -0.05 4891
0.25 -0.02 0.74 -0.86 9.74 0.10 0.14 -0.05 4898
0.23 -0.02 0.71 -0.86 9.81 0.10 0.14 -0.05 4905
0.24 -0.02 0.72 -0.88 9.78 0.10 0.14 -0.05 4913
0.25 -0.02 0.74 -0.90 9.78 0.10 0.15 -0.05 4920
0.25 -0.02 0.76 -0.90 9.75 0.13 0.15 -0.05 4927
0.26 -0.01 0.73 -0.89 9.76 0.10 0.15 -0.05 4934
0.25 -0.02 0.72 -0.90 9.77 0.10 0.15 -0.05 4941
0.26 -0.02 0.75 -0.93 9.77 0.10 0.15 -0.05 4948
0.26 -0.03 0.74 -0.95 9.79 0.10 0.14 -0.05 4956
0.25 -0.02 0.79 -0.97 9.75 0.10 0.15 -0.05 4963
0.25 -0.02 0.81 -0.94 9.76 0.11 0.14 -0.05 4970
0.24 -0.02 0.76 -0.99 9.75 0.12 0.14 -0.05 4977
0.25 -0.02 0.79 -0.97 9.74 0.11 0.14 -0.05 4984
0.26 -0.02 0.78 -0.99 9.76 0.11 0.14 -0.05 4992
0.27 -0.03 0.79 -0.97 9.72 0.07 0.13 -0.05 4999
0.26 -0.02 0.79 -1.00 9.74 0.10 0.13 -0.05 5006
0.27 -0.02 0.83 -0.98 9.80 0.11 0.13 -0.05 5013
0.27 -0.01 0.83 -1.03 9.75 0.12 0.14 -0.05 5020
0.29 -0.02 0.81 -0.99 9.79 0.13 0.13 -0.05 5027
0.25 -0.02 0.84 -1.02 9.79 0.15 0.14 -0.05 5035
0.26 -0.03 0.83 -1.11 9.79 0.16 0.14 -0.05 5042
0.28 -0.02 0.90 -1.05 9.75 0.18 0.13 -0.05 5049
0.31 -0.02 0.87 -1.08 9.81 0.18 0.12 -0.05 5056
0.33 -0.02 0.91 -1.14 9.74 0.18 0.12 -0.05 5063
0.31 -0.02 0.93 -1.13 9.74 0.19 0.11 -0.06 5070
0.34 -0.02 0.96 -1.12 9.76 0.19 0.11 -0.06 5078
0.35 -0.02 0.90 -1.18 10.41 0.19 0.11 -0.07 5085
0.33 -0.02 0.89 -1.14 9.87 0.20 0.12 -0.07 5092
0.35 -0.02 0.84 -1.20 9.87 0.21 0.12 -0.07 5099
0.36 -0.02 0.93 -1.24 9.88 0.25 0.13 -0.07 5106
0.35 -0.02 0.94 -1.27 9.82 0.27 0.15 -0.07 5113
0.33 -0.02 0.94 -1.26 9.21 0.30 0.16 -0.07 5121
0.33 -0.02 0.97 -1.33 9.80 0.33 0.17 -0.07 5128
0.30 -0.02 0.99 -1.31 9.87 0.35 0.17 -0.07 5135
0.30 -0.01 0.91 -1.39 9.94 0.37 0.18 -0.07 5142
0.32 -0.02 0.99 -1.41 10.05 0.40 0.18 -0.08 5150
0.31 -0.02 1.03 -1.47 10.15 0.45 0.17 -0.07 5157
0.31 -0.03 1.05 -1.41 10.07 0.51 0.19 -0.08 5165
0.30 -0.02 1.02 -1.52 10.15 0.56 0.18 -0.09 5171
0.28 -0.02 1.14 -1.58 10.10 0.59 0.17 -0.09 5179
0.28 -0.01 0.95 -1.62 10.59 0.59 0.12 -0.10 5186
0.26 -0.02 0.98 -1.73 10.37 0.66 0.13 -0.10 5193
0.26 -0.02 1.24 -1.70 10.40 0.73 0.12 -0.11 5200
0.22 -0.02 1.18 -1.79 10.25 0.76 0.09 -0.13 5207
0.20 -0.02 1.20 -1.87 10.32 0.80 0.02 -0.14 5214
0.19 -0.01 1.27 -1.97 10.39 0.87 0.03 -0.16 5222
0.21 -0.02 1.14 -1.99 10.25 0.89 0.00 -0.17 5229
0.21 -0.02 1.14 -2.05 10.04 0.92 -0.00 -0.16 5235
0.21 -0.02 1.03 -2.11 9.91 0.94 -0.01 -0.16 5242
0.19 -0.02 1.03 -2.18 9.93 0.97 -0.02 -0.16 5250
0.19 -0.01 1.02 -2.21 9.90 1.00 -0.03 -0.16 5257
0.18 -0.01 0.98 -2.46 9.78 1.02 -0.02 -0.14 5264
0.19 -0.01 0.86 -2.37 9.84 1.03 -0.03 -0.13 5271
0.17 -0.02 0.84 -2.50 9.85 1.06 0.02 -0.12 5278
0.15 -0.02 0.97 -2.63 9.22 1.09 0.02 -0.11 5285
0.11 -0.01 0.83 -2.69 9.85 1.09 0.05 -0.09 5293
0.10 -0.01 0.79 -2.73 10.45 1.11 0.08 -0.08 5300
0.10 -0.00 0.83 -2.93 9.82 1.13 0.10 -0.07 5307
0.10 -0.01 1.07 -2.92 9.69 1.15 0.15 -0.07 5314
0.06 -0.01 1.00 -3.04 9.89 1.17 0.17 -0.06 5321
0.06 -0.01 1.20 -3.13 9.88 1.20 0.20 -0.07 5328
0.06 -0.01 1.15 -3.37 9.84 1.22 0.21 -0.09 5336
0.05 -0.01 1.17 -3.43 9.83 1.25 0.21 -0.08 5343
0.06 -0.00 1.32 -3.53 9.88 1.28 0.20 -0.09 5350
0.06 -0.01 1.37 -3.53 10.04 1.31 0.19 -0.10 5357
0.04 -0.00 1.32 -3.67 10.07 1.35 0.15 -0.11 5364
0.04 -0.00 1.31 -3.84 10.10 1.40 0.10 -0.13 5371
0.03 -0.00 1.52 -3.99 10.21 1.46 0.11 -0.14 5379
0.04 -0.00 1.52 -4.18 10.58 1.51 0.08 -0.16 5386
0.04 -0.00 1.52 -4.90 10.74 1.57 0.07 -0.17 5393
0.04 -0.00 1.66 -4.58 10.83 1.64 0.08 -0.19 5400
0.03 -0.00 1.94 -4.83 11.04 1.67 0.13 -0.20 5407
0.04 -0.00 2.05 -4.91 11.01 1.71 0.20 -0.22 5414
0.03 -0.00 2.05 -5.03 10.89 1.74 0.30 -0.25 5422
0.03 -0.00 2.17 -5.11 10.65 1.75 0.37 -0.27 5429
0.03 -0.00 2.15 -5.15 10.70 1.75 0.47 -0.29 5436
0.04 -0.00 2.06 -5.19 10.62 1.74 0.57 -0.31 5443
0.03 -0.00 2.00 -5.22 10.78 1.74 0.64 -0.32 5450
0.01 -0.00 1.96 -5.18 10.73 1.74 0.73 -0.32 5457
0.00 -0.00 1.99 -5.19 10.80 1.72 0.77 -0.33 5465
0.00 0.00 1.99 -5.43 10.76 1.67 0.78 -0.35 5472
0.01 -0.00 2.04 -5.66 10.50 1.63 0.77 -0.37 5479
0.00 0.00 1.84 -5.61 10.22 1.58 0.75 -0.40 5486
0.00 0.00 1.43 -5.63 10.12 1.52 0.67 -0.43 5493
0.00 0.00 1.20 -5.17 9.84 1.46 0.57 -0.45 5500
0.00 0.00 0.93 -4.84 9.50 1.37 0.42 -0.47 5508
0.00 0.00 1.24 -4.28 8.97 1.32 0.30 -0.47 5515
0.00 -0.00 1.15 -4.17 7.82 1.22 0.21 -0.47 5522
0.00 0.00 1.66 -3.42 7.26 1.12 0.13 -0.46 5529
0.00 0.00 1.74 -4.59 6.19 1.04 0.09 -0.47 5536
0.00 0.00 1.71 -4.57 5.77 0.97 0.05 -0.48 5543
0.00 0.00 1.35 -3.51 5.70 0.93 -0.00 -0.51 5551
0.00 0.00 1.31 -0.40 5.97 0.84 -0.05 -0.53 5558
0.00 0.00 1.16 1.62 6.20 0.59 -0.11 -0.53 5565
0.00 0.00 0.64 6.90 7.36 0.23 -0.22 -0.54 5572
0.00 0.00 0.73 5.02 7.01 -0.30 -0.33 -0.58 5579
0.00 0.00 0.35 1.59 8.07 -0.70 -0.45 -0.62 5586
0.00 0.00 0.23 0.55 8.79 -0.92 -0.47 -0.65 5594
0.00 0.00 0.34 0.49 8.46 -1.01 -0.43 -0.69 5601
0.00 0.00 0.41 0.38 7.48 -0.97 -0.43 -0.75 5608
0.00 0.00 0.47 0.41 6.43 -0.93 -0.48 -0.77 5615
0.00 0.00 0.72 0.51 6.22 -0.93 -0.55 -0.78 5622
0.00 0.00 0.95 0.40 6.49 -0.96 -0.60 -0.77 5629
0.00 0.00 1.30 0.23 6.84 -1.03 -0.67 -0.73 5637
0.00 0.00 1.47 -0.16 7.27 -1.09 -0.70 -0.67 5644
0.00 0.00 1.62 -0.49 7.48 -1.16 -0.69 -0.60 5651
0.00 0.00 1.70 -0.86 7.67 -1.21 -0.67 -0.50 5658
0.00 0.00 1.80 -1.19 7.79 -1.26 -0.65 -0.40 5665
0.00 0.00 1.83 -1.43 7.36 -1.30 -0.60 -0.31 5672
0.00 0.00 2.10 -1.80 8.27 -1.31 -0.54 -0.22 5680
0.00 -0.00 2.26 -2.18 8.56 -1.32 -0.45 -0.14 5687
0.00 0.00 2.44 -2.43 8.69 -1.33 -0.33 -0.09 5694
0.00 0.00 2.56 -2.65 9.08 -1.35 -0.19 -0.03 5701
0.00 0.00 2.62 -2.71 9.25 -1.39 -0.04 0.02 5708
0.00 0.00 2.02 -5.12 8.88 -1.44 0.14 0.08 5715
0.00 0.00 1.06 -8.66 9.95 -1.45 0.27 0.13 5723
0.00 0.00 0.95 -2.99 11.98 -1.52 0.34 0.17 5730
0.00 0.00 0.17 -8.47 6.01 -1.57 0.33 0.21 5737
0.00 0.00 0.10 -5.59 13.65 -1.44 0.28 0.27 5744
0.00 0.00 -0.23 -4.45 5.85 -1.48 0.20 0.30 5751
0.00 0.00 -0.18 -7.90 9.10 -1.29 0.13 0.34 5758
0.00 0.00 -0.02 -7.48 9.16 -1.31 0.15 0.34 5766
0.00 -0.00 0.47 -4.06 12.96 -1.26 0.16 0.35 5773
0.00 0.00 -1.96 -9.27 9.72 -1.14 0.13 0.32 5780
0.00 0.00 1.47 -2.22 12.71 -1.19 0.13 0.29 5787
0.00 0.00 -1.71 -6.97 7.13 -1.06 0.10 0.28 5794
0.00 0.00 1.14 -4.10 9.30 -1.16 0.16 0.26 5801
0.00 0.00 0.58 -8.71 10.48 -0.99 0.11 0.26 5809
0.00 -0.00 1.32 -4.55 9.03 -1.09 0.15 0.21 5816
0.00 0.00 -0.56 -5.26 8.60 -1.00 0.14 0.22 5823
0.00 0.00 0.44 -4.27 12.88 -1.01 0.21 0.21 5830
0.00 0.00 0.20 -5.51 10.06 -1.00 0.20 0.21 5837
0.00 0.00 0.83 -4.64 10.84 -1.09 0.21 0.20 5844
0.00 0.00 -0.23 -4.30 12.78 -0.97 0.12 0.24 5852
0.00 0.00 0.59 -2.48 10.77 -0.97 0.11 0.26 5859
0.00 0.00 0.30 -4.32 8.82 -0.92 0.04 0.26 5866
0.00 0.00 1.09 -2.86 10.10 -0.91 0.02 0.29 5873
0.00 0.00 1.07 -2.59 9.21 -0.87 0.04 0.30 5880
0.00 0.00 0.99 -3.32 10.82 -0.84 0.04 0.31 5888
0.00 -0.00 1.11 -2.66 10.56 -0.88 0.06 0.32 5895
0.00 0.00 1.40 -2.66 12.24 -0.92 0.09 0.33 5902
0.00 0.00 1.43 -2.18 10.30 -0.99 0.10 0.34 5909
0.00 0.00 1.11 -2.15 9.83 -1.09 0.08 0.35 5916
0.00 0.00 1.03 -2.35 10.13 -1.14 0.07 0.35 5923
0.00 0.00 1.11 -2.67 10.29 -1.16 0.06 0.35 5931
0.00 -0.00 1.24 -2.87 10.03 -1.15 0.06 0.34 5938
0.00 0.00 1.32 -3.03 9.78 -1.12 0.07 0.32 5945
0.00 0.00 1.47 -3.08 9.59 -1.09 0.08 0.30 5952
0.00 0.00 1.49 -3.11 9.68 -1.04 0.12 0.28 5959
0.00 0.00 1.54 -3.14 9.61 -1.00 0.15 0.26 5966
0.00 0.00 1.47 -3.08 9.57 -0.95 0.19 0.24 5974
0.00 0.00 1.37 -3.04 9.48 -0.91 0.24 0.22 5981
0.00 0.00 1.14 -3.00 9.61 -0.87 0.27 0.21 5988
0.00 0.00 0.88 -2.75 9.87 -0.83 0.29 0.18 5995
0.00 0.00 0.73 -2.59 10.13 -0.83 0.29 0.17 6002
0.00 0.00 0.55 -2.26 10.26 -0.86 0.29 0.15 6009
0.00 0.00 0.52 -2.06 10.07 -0.90 0.28 0.14 6017
0.00 0.00 0.47 -2.11 10.12 -0.95 0.24 0.14 6024
0.00 0.00 0.63 -2.21 10.14 -0.98 0.18 0.12 6031
0.00 0.00 0.90 -2.28 10.06 -0.98 0.13 0.12 6038
0.00 0.00 1.22 -2.40 9.98 -0.98 0.08 0.11 6045
0.00 0.00 1.57 -2.51 9.81 -0.95 0.06 0.10 6052
0.00 0.00 1.77 -2.65 9.66 -0.92 0.07 0.10 6060
0.00 0.00 1.94 -2.81 9.66 -0.88 0.08 0.09 6067
0.00 0.00 2.06 -3.00 9.62 -0.85 0.08 0.09 6074
0.00 0.00 2.16 -3.15 9.71 -0.81 0.08 0.08 6081
0.00 0.00 2.15 -3.25 9.64 -0.78 0.08 0.07 6088
0.00 0.00 2.03 -3.24 9.47 -0.75 0.08 0.07 6095
0.00 -0.00 1.92 -3.29 9.21 -0.73 0.03 0.06 6103
0.00 0.00 1.94 -3.25 10.16 -0.68 -0.05 0.04 6110
0.00 0.00 1.29 -4.23 9.37 -0.59 -0.15 0.03 6117
0.00 0.00 -2.13 -6.76 11.25 -0.32 -0.69 -0.03 6124
0.00 0.00 1.40 -3.68 7.42 -0.03 -0.75 -0.06 6131
0.00 0.00 1.32 -2.56 5.19 0.08 -0.62 -0.01 6138
0.00 -0.00 -0.85 -6.89 8.39 0.13 -0.81 -0.01 6146
0.00 0.00 -1.60 -10.19 11.63 0.42 -0.98 -0.08 6153
0.00 0.00 -0.59 -5.04 7.10 0.70 -0.82 -0.05 6160
0.00 0.00 -0.06 -11.71 7.55 0.73 -0.55 0.05 6167
0.00 0.00 -3.16 -20.01 16.04 0.72 -0.86 0.09 6174
-0.00 0.01 -9.91 -28.05 14.74 0.09 -0.71 0.01 6181
0.01 0.01 -5.26 -18.52 5.23 -0.13 -0.03 0.09 6190
0.02 0.02 -2.31 -10.27 9.57 -0.16 0.07 0.04 6196
0.01 0.01 -0.23 -3.54 9.02 -0.17 0.20 -0.07 6203
-0.00 0.04 0.52 -0.85 10.59 -0.19 0.19 0.02 6210
0.02 0.05 0.63 -0.20 9.75 -0.19 0.12 0.09 6217
-0.01 0.07 0.74 0.06 10.17 -0.17 0.10 0.06 6224
-0.00 0.05 0.59 -0.11 10.10 -0.14 0.09 -0.01 6232
-0.01 0.11 0.43 -0.50 10.12 -0.12 0.09 -0.05 6239
-0.01 0.11 0.41 -0.82 9.99 -0.07 0.10 -0.04 6246
-0.01 0.13 0.29 -0.92 9.92 -0.05 0.10 -0.06 6253
0.02 0.15 0.27 -0.85 9.82 -0.04 0.12 -0.06 6260
0.02 0.15 0.36 -0.77 9.87 -0.02 0.12 -0.06 6267
0.04 0.13 0.49 -0.79 9.78 -0.01 0.12 -0.07 6275
0.06 0.14 0.47 -0.83 9.79 -0.01 0.11 -0.07 6282
0.02 0.15 0.54 -0.91 9.82 -0.01 0.09 -0.07 6289
0.05 0.15 0.52 -0.87 9.84 -0.00 0.06 -0.07 6296
0.06 0.13 0.44 -0.86 9.80 -0.00 0.04 -0.08 6303
0.07 0.14 0.46 -0.90 9.81 -0.01 0.03 -0.08 6310
0.08 0.15 0.46 -0.89 9.81 -0.02 0.03 -0.08 6318
0.07 0.15 0.48 -0.93 9.79 -0.02 0.02 -0.07 6325
0.06 0.15 0.44 -0.88 9.66 -0.03 0.01 -0.07 6332
0.06 0.16 0.42 -0.87 9.76 -0.02 0.01 -0.07 6339
0.08 0.17 0.42 -0.86 9.82 -0.02 0.02 -0.08 6346
0.08 0.15 0.37 -0.86 9.82 -0.01 0.02 -0.08 6353
0.08 0.16 0.35 -0.87 9.87 -0.01 0.03 -0.07 6361
0.08 0.15 0.31 -0.89 9.83 -0.01 0.04 -0.07 6368
0.08 0.14 0.35 -0.88 9.83 -0.01 0.05 -0.06 6375
0.08 0.15 0.41 -0.89 9.81 -0.02 0.05 -0.06 6382
0.08 0.17 0.40 -0.88 9.82 -0.02 0.06 -0.06 6389
0.10 0.16 0.38 -0.88 9.79 -0.02 0.05 -0.06 6396
0.09 0.17 0.45 -0.90 9.83 -0.03 0.05 -0.06 6404
0.08 0.19 0.43 -0.90 9.80 -0.03 0.04 -0.06 6411
0.08 0.20 0.46 -0.85 9.83 -0.03 0.03 -0.05 6418
0.09 0.20 0.43 -0.85 9.78 -0.03 0.03 -0.06 6425
0.09 0.22 0.42 -0.87 9.82 -0.03 0.04 -0.06 6432
0.11 0.21 0.42 -0.85 9.77 -0.03 0.03 -0.06 6439
0.09 0.21 0.37 -0.84 9.81 -0.02 0.03 -0.06 6447
0.08 0.22 0.40 -0.83 9.79 -0.02 0.03 -0.06 6454
0.07 0.24 0.40 -0.83 9.77 -0.02 0.02 -0.06 6461
0.09 0.25 0.42 -0.86 9.25 -0.02 0.03 -0.06 6468
0.09 0.29 0.41 -0.86 9.83 -0.02 0.03 -0.06 6475
0.11 0.28 0.43 -0.83 9.80 -0.02 0.02 -0.06 6482
0.11 0.27 0.42 -0.82 9.76 -0.01 0.02 -0.06 6490
0.10 0.26 0.41 -0.86 9.83 -0.02 0.02 -0.06 6497
0.09 0.26 0.44 -0.81 9.21 -0.02 0.01 -0.06 6504
0.10 0.27 0.39 -0.81 9.83 -0.01 0.01 -0.07 6511
0.12 0.28 0.38 -0.85 9.74 -0.01 0.01 -0.07 6518
0.12 0.26 0.38 -0.85 9.83 -0.02 0.00 -0.07 6525
0.13 0.25 0.34 -0.85 9.80 -0.01 0.01 -0.07 6533
0.14 0.23 0.37 -0.83 9.82 -0.02 0.01 -0.07 6540
0.14 0.25 0.36 -0.82 9.82 -0.01 0.02 -0.07 6547
0.17 0.25 0.35 -0.83 9.81 -0.01 0.02 -0.07 6554
0.20 0.25 0.37 -0.84 9.81 -0.00 0.03 -0.07 6561
0.19 0.23 0.39 -0.83 9.77 0.00 0.03 -0.06 6568
0.21 0.23 0.38 -0.86 9.81 0.00 0.03 -0.08 6576
0.21 0.24 0.36 -0.85 9.81 0.00 0.03 -0.08 6583
0.20 0.25 0.35 -0.88 9.81 0.00 0.07 -0.08 6590
0.21 0.25 0.39 -0.85 10.40 0.01 0.04 -0.08 6597
0.23 0.24 0.36 -0.86 9.78 0.01 0.04 -0.08 6604
0.23 0.24 0.34 -0.86 9.80 0.00 0.04 -0.08 6611
0.24 0.24 0.35 -0.85 9.82 0.00 0.04 -0.07 6619
0.23 0.23 0.38 -0.86 9.77 0.01 0.04 -0.07 6626
0.22 0.25 0.32 -0.84 9.20 0.00 0.05 -0.08 6633
0.22 0.24 0.35 -0.86 9.79 0.01 0.04 -0.07 6640
0.24 0.22 0.34 -0.85 9.79 0.01 0.05 -0.07 6647
0.22 0.20 0.36 -0.82 9.82 0.01 0.06 -0.07 6654
0.22 0.22 0.38 -0.86 9.80 0.01 0.06 -0.07 6662
0.21 0.21 0.37 -0.90 9.81 0.01 0.06 -0.08 6669
0.22 0.21 0.37 -0.87 9.81 0.01 0.06 -0.08 6676
0.22 0.19 0.35 -0.83 9.83 0.01 0.06 -0.08 6683
0.23 0.17 0.37 -0.89 9.81 0.01 0.06 -0.08 6690
0.23 0.14 0.36 -0.89 9.81 0.01 0.05 -0.08 6697
0.22 0.13 0.39 -0.91 9.80 0.01 0.05 -0.08 6705
0.22 0.11 0.41 -0.86 9.82 0.00 0.05 -0.08 6712
0.23 0.11 0.41 -0.86 9.74 0.01 0.05 -0.08 6719
0.23 0.12 0.39 -0.89 9.80 0.01 0.05 -0.08 6726
0.24 0.09 0.39 -0.86 9.80 0.01 0.05 -0.08 6733
0.23 0.11 0.39 -0.88 9.79 0.01 0.05 -0.08 6740
0.24 0.07 0.39 -0.88 9.80 0.01 0.05 -0.08 6748
0.24 0.07 0.38 -0.91 9.81 0.01 0.06 -0.08 6755
0.25 0.09 0.36 -0.87 9.79 0.01 0.06 -0.08 6762
0.26 0.08 0.34 -0.89 9.80 0.01 0.06 -0.07 6769
0.27 0.08 0.40 -0.90 9.79 0.01 0.06 -0.08 6776
0.28 0.08 0.41 -0.89 9.79 0.01 0.06 -0.08 6784
0.29 0.06 0.42 -0.89 9.81 0.01 0.06 -0.07 6791
0.30 0.07 0.45 -0.88 9.81 0.01 0.06 -0.08 6798
0.31 0.08 0.40 -0.89 9.82 0.01 0.05 -0.08 6805
0.31 0.06 0.42 -0.89 9.82 0.01 0.05 -0.08 6812
0.32 0.08 0.42 -0.89 9.80 0.01 0.05 -0.07 6819
0.32 0.10 0.36 -0.87 9.81 0.01 0.05 -0.07 6827
0.33 0.13 0.37 -0.86 9.81 0.01 0.05 -0.07 6834
0.35 0.12 0.40 -0.91 9.77 0.01 0.06 -0.07 6841
0.36 0.10 0.40 -0.93 9.80 0.01 0.05 -0.07 6848
0.37 0.08 0.39 -0.94 9.81 0.01 0.06 -0.07 6855
0.35 0.08 0.40 -0.93 9.79 0.01 0.06 -0.08 6862
0.35 0.07 0.42 -0.91 9.79 0.01 0.06 -0.07 6870
0.33 0.02 0.42 -0.93 9.80 0.01 0.07 -0.08 6877
0.34 0.01 0.40 -0.93 9.77 0.01 0.06 -0.07 6884
0.35 0.03 0.44 -0.91 9.80 0.00 0.07 -0.07 6891
0.35 0.02 0.41 -0.93 9.83 0.01 0.06 -0.08 6898
0.33 0.02 0.40 -0.92 9.81 0.00 0.06 -0.07 6905
0.34 -0.01 0.40 -0.92 9.80 0.01 0.06 -0.08 6913
0.33 0.05 0.43 -0.92 9.82 0.01 0.06 -0.07 6920
0.33 0.06 0.42 -0.93 9.81 0.01 0.06 -0.07 6927
0.35 0.03 0.43 -0.92 9.81 0.01 0.06 -0.07 6934
0.36 0.06 0.43 -0.92 9.81 0.01 0.06 -0.07 6941
0.37 0.04 0.42 -0.91 9.82 0.01 0.06 -0.07 6948
0.37 -0.02 0.42 -0.92 9.81 0.01 0.06 -0.07 6956
0.37 -0.01 0.42 -0.90 9.79 0.01 0.06 -0.07 6963
0.39 -0.00 0.42 -0.95 9.76 0.01 0.06 -0.07 6970
0.41 -0.01 0.39 -0.93 9.81 0.01 0.10 -0.08 6977
0.41 -0.01 0.43 -0.99 9.78 0.01 0.07 -0.07 6984
0.41 -0.00 0.42 -0.92 9.78 0.01 0.07 -0.07 6991
0.39 -0.02 0.43 -0.92 9.80 0.01 0.08 -0.08 6999
0.40 -0.01 0.47 -0.95 9.82 0.01 0.07 -0.08 7006
0.41 -0.01 0.41 -0.94 9.80 0.01 0.07 -0.07 7013
0.43 -0.01 0.45 -0.96 10.42 0.01 0.07 -0.07 7020
0.41 -0.02 0.42 -0.90 9.81 0.02 0.06 -0.07 7027
0.41 -0.02 0.45 -0.94 9.81 0.01 0.06 -0.07 7034
0.42 -0.01 0.43 -0.94 9.78 0.01 0.06 -0.07 7042
0.44 -0.03 0.47 -0.95 9.82 0.01 0.06 -0.07 7049
0.45 -0.00 0.46 -0.95 9.80 0.02 0.06 -0.07 7056
0.46 -0.02 0.47 -0.93 9.81 0.02 0.07 -0.07 7063
0.45 -0.02 0.44 -0.92 9.78 0.02 0.07 -0.07 7070
0.45 -0.03 0.46 -0.92 9.79 0.02 0.07 -0.07 7077
0.44 -0.01 0.46 -0.96 9.80 0.03 0.08 -0.07 7085
0.45 -0.01 0.44 -0.95 9.77 0.03 0.08 -0.10 7092
0.46 -0.01 0.48 -0.96 9.81 0.04 0.08 -0.07 7099
0.47 -0.02 0.45 -0.97 9.81 0.04 0.09 -0.07 7106
0.47 -0.02 0.48 -0.97 9.81 0.04 0.09 -0.07 7113
0.48 -0.03 0.52 -0.94 9.80 0.04 0.09 -0.07 7120
0.49 -0.02 0.51 -0.98 9.78 0.05 0.10 -0.07 7128
0.50 -0.03 0.48 -0.95 9.78 0.05 0.09 -0.07 7135
0.52 -0.02 0.49 -0.98 9.80 0.05 0.09 -0.07 7142
0.52 -0.02 0.41 -0.97 10.41 0.06 0.10 -0.07 7149
0.53 -0.03 0.51 -0.99 9.81 0.06 0.10 -0.06 7156
0.54 -0.03 0.51 -0.96 9.81 0.06 0.10 -0.06 7163
0.54 -0.03 0.47 -0.96 9.81 0.07 0.11 -0.06 7171
0.55 -0.02 0.53 -1.01 9.82 0.07 0.12 -0.06 7178
0.55 -0.03 0.50 -1.01 9.81 0.08 0.13 -0.06 7185
0.57 -0.03 0.53 -0.96 9.81 0.08 0.14 -0.06 7192
0.59 -0.04 0.51 -0.99 9.81 0.09 0.14 -0.06 7199
0.62 -0.03 0.57 -1.05 9.81 0.10 0.16 -0.06 7206
0.63 -0.02 0.56 -0.98 9.84 0.12 0.16 -0.06 7214
0.63 -0.01 0.56 -1.02 9.81 0.13 0.17 -0.06 7221
0.62 -0.03 0.55 -1.06 9.83 0.15 0.18 -0.06 7228
0.61 -0.03 0.57 -1.07 9.84 0.15 0.19 -0.06 7235
0.62 -0.04 0.54 -1.08 9.84 0.18 0.19 -0.06 7242
0.64 -0.03 0.66 -1.09 9.78 0.19 0.20 -0.06 7249
0.64 -0.03 0.68 -1.12 9.79 0.20 0.20 -0.06 7257
0.63 -0.02 0.66 -1.12 9.82 0.21 0.19 -0.07 7264
0.64 -0.04 0.63 -1.17 9.83 0.23 0.20 -0.07 7271
0.62 -0.03 0.68 -1.16 9.85 0.27 0.21 -0.07 7278
0.62 -0.04 0.75 -1.20 10.05 0.31 0.21 -0.08 7285
0.60 -0.03 0.70 -1.28 10.05 0.37 0.23 -0.09 7292
0.59 -0.03 0.70 -1.23 10.13 0.44 0.23 -0.09 7300
0.58 -0.02 0.67 -1.29 10.33 0.50 0.23 -0.10 7307
0.60 -0.03 0.70 -1.37 10.21 0.56 0.21 -0.10 7315
0.59 -0.03 0.77 -1.46 10.44 0.61 0.19 -0.10 7322
0.57 -0.03 0.76 -1.46 10.65 0.67 0.16 -0.11 7329
0.54 -0.02 0.76 -1.56 10.67 0.73 0.14 -0.11 7336
0.52 -0.03 0.90 -1.65 10.72 0.79 0.11 -0.12 7344
0.48 -0.02 0.94 -1.66 10.62 0.85 0.08 -0.14 7351
0.47 -0.03 0.84 -1.68 10.63 0.91 0.04 -0.15 7358
0.42 -0.02 0.81 -1.73 10.32 0.95 0.01 -0.15 7365
0.40 -0.03 0.72 -1.88 10.29 0.98 -0.01 -0.15 7371
0.38 -0.02 0.64 -1.87 10.14 1.00 -0.02 -0.13 7379
0.34 -0.01 0.68 -1.98 10.11 1.00 -0.03 -0.12 7387
0.31 -0.02 0.72 -2.01 9.82 1.02 -0.03 -0.11 7393
0.26 -0.02 0.62 -2.15 9.83 1.02 -0.03 -0.10 7400
0.24 -0.02 0.37 -2.04 10.15 1.02 -0.07 -0.09 7407
0.21 -0.02 0.88 -2.39 10.06 1.03 0.01 -0.09 7414
0.19 -0.01 0.74 -2.45 9.74 1.06 0.01 -0.09 7421
0.17 -0.01 0.76 -2.47 9.85 1.08 0.02 -0.08 7429
0.14 -0.01 0.83 -2.61 9.80 1.08 0.04 -0.09 7436
0.15 -0.01 0.76 -2.75 9.83 1.10 0.04 -0.09 7443
0.14 -0.01 0.82 -2.83 9.83 1.12 0.04 -0.09 7450
0.11 -0.01 0.88 -2.87 9.77 1.14 0.04 -0.10 7457
0.10 -0.01 0.90 -2.99 9.75 1.15 0.04 -0.11 7464
0.12 -0.01 0.88 -3.10 9.66 1.16 0.04 -0.13 7472
0.07 -0.01 0.98 -3.20 9.75 1.17 0.03 -0.14 7479
0.07 -0.01 1.06 -3.29 9.72 1.18 0.01 -0.15 7486
0.05 -0.01 1.09 -3.41 9.82 1.20 -0.00 -0.18 7493
0.03 -0.00 1.14 -3.52 9.82 1.23 -0.02 -0.19 7500
0.05 -0.01 1.11 -3.63 9.92 1.25 -0.04 -0.21 7507
0.06 -0.01 1.13 -3.80 10.15 1.27 -0.06 -0.27 7515
0.05 -0.00 1.19 -3.96 10.32 1.31 -0.06 -0.26 7522
0.05 -0.00 1.26 -4.16 10.54 1.35 -0.03 -0.28 7529
0.04 -0.00 1.36 -4.29 10.80 1.41 0.07 -0.30 7536
0.03 -0.00 1.40 -4.33 10.86 1.44 0.22 -0.32 7543
0.03 -0.00 1.56 -4.56 10.84 1.46 0.33 -0.33 7550
0.04 -0.00 1.60 -4.62 10.81 1.46 0.40 -0.34 7558
0.03 -0.00 1.87 -4.86 10.81 1.45 0.42 -0.37 7565
0.01 -0.00 1.99 -4.75 10.66 1.44 0.46 -0.40 7572
0.01 -0.00 1.97 -4.88 11.02 1.43 0.50 -0.45 7579
0.00 0.00 2.12 -4.79 11.11 1.42 0.51 -0.51 7586
0.00 0.00 2.01 -4.90 10.91 1.41 0.48 -0.55 7593
0.00 -0.00 1.97 -4.96 10.79 1.41 0.46 -0.60 7601
0.00 0.00 1.89 -4.97 10.39 1.39 0.41 -0.65 7608
0.00 0.00 1.60 -4.83 10.35 1.34 0.36 -0.69 7615
0.00 0.00 1.67 -4.65 10.36 1.29 0.32 -0.73 7622
0.00 0.00 1.36 -4.49 9.97 1.22 0.25 -0.76 7629
0.00 0.00 1.05 -4.12 9.31 1.18 0.17 -0.78 7636
0.02 -0.00 0.95 -3.89 8.70 1.13 0.09 -0.80 7644
0.00 0.00 0.81 -3.44 8.04 1.06 -0.04 -0.80 7651
0.00 0.00 0.82 -2.68 7.40 0.98 -0.14 -0.80 7658
0.00 0.00 0.76 -2.73 7.34 0.87 -0.24 -0.78 7665
0.00 0.00 0.88 -2.23 7.42 0.79 -0.28 -0.77 7672
-0.00 0.00 0.68 -2.84 7.19 0.72 -0.30 -0.76 7680
0.00 0.00 0.36 -1.73 7.22 0.67 -0.29 -0.77 7687
0.00 0.00 0.73 0.17 7.13 0.60 -0.29 -0.76 7694
0.00 0.00 1.07 2.68 6.81 0.42 -0.27 -0.73 7701
0.00 0.00 0.86 3.61 7.66 0.08 -0.22 -0.65 7708
0.00 0.00 0.78 1.64 7.44 -0.17 -0.23 -0.60 7715
0.00 0.00 0.63 0.72 8.30 -0.35 -0.28 -0.55 7723
0.00 0.00 0.46 0.48 8.33 -0.44 -0.32 -0.50 7730
0.00 0.00 0.56 0.68 7.62 -0.51 -0.34 -0.44 7737
0.00 0.00 0.83 0.97 6.98 -0.54 -0.37 -0.37 7744
0.00 0.00 1.10 0.97 6.71 -0.57 -0.38 -0.30 7751
0.00 0.00 1.39 0.86 6.90 -0.63 -0.34 -0.23 7758
0.00 0.00 1.54 0.72 7.36 -0.68 -0.27 -0.15 7766
0.00 0.00 1.54 0.42 7.70 -0.72 -0.18 -0.08 7773
0.00 0.00 1.45 0.04 7.81 -0.77 -0.10 -0.00 7780
0.00 0.00 0.63 -0.23 8.03 -0.81 -0.06 0.07 7787
0.00 0.00 1.09 -0.46 8.32 -0.86 -0.03 0.14 7794
0.00 0.00 0.96 -0.77 8.51 -0.91 -0.02 0.21 7801
0.00 -0.00 0.93 -1.08 9.01 -0.97 -0.01 0.26 7809
0.00 0.00 0.99 -1.37 9.34 -1.04 0.02 0.29 7816
0.00 0.00 0.87 -3.92 9.60 -1.12 0.09 0.31 7823
0.00 0.00 1.41 -1.93 12.32 -1.27 0.17 0.26 7830
0.00 0.00 0.72 -2.52 9.61 -1.37 0.22 0.20 7837
0.00 0.00 0.48 -3.45 8.34 -1.48 0.25 0.20 7844
0.00 -0.00 -0.53 -6.27 8.60 -1.47 0.24 0.17 7852
0.00 0.00 0.53 -2.03 10.98 -1.54 0.22 0.17 7859
0.00 0.00 -0.70 -4.63 10.32 -1.40 0.11 0.17 7866
0.00 0.00 0.07 -6.04 9.81 -1.34 0.11 0.15 7873
0.00 0.00 -0.14 -2.68 10.06 -1.26 0.08 0.12 7880
-0.00 0.00 -0.19 -6.71 5.51 -1.21 0.06 0.09 7887
0.00 0.00 0.18 -7.88 10.73 -1.13 0.08 0.05 7895
0.00 0.00 -0.73 -8.52 8.37 -1.14 0.04 0.05 7902
0.00 0.00 0.00 -7.42 12.13 -0.98 0.05 0.06 7909
0.00 0.00 -2.22 -7.09 12.31 -0.91 0.10 0.04 7916
0.00 0.00 0.22 -8.37 9.58 -0.87 0.01 -0.00 7923
0.00 0.00 2.01 -3.45 12.01 -0.92 0.17 -0.01 7930
0.00 0.00 0.14 -5.38 6.27 -1.00 0.21 -0.02 7938
0.00 0.00 -0.17 -5.58 9.28 -0.97 0.21 0.01 7945
0.00 0.00 -1.02 -7.62 9.15 -0.94 0.25 0.05 7952
0.00 0.00 1.41 -4.08 9.74 -0.91 0.23 0.08 7959
0.00 0.00 -0.04 -4.68 8.56 -0.86 0.23 0.12 7966
0.00 -0.00 1.37 -2.87 8.33 -0.84 0.22 0.15 7973
0.00 -0.00 1.23 -3.77 6.79 -0.76 0.18 0.20 7981
0.00 0.00 0.72 -2.90 8.34 -0.82 0.21 0.21 7988
0.00 0.00 0.40 -3.05 9.97 -0.77 0.17 0.24 7995
0.00 0.00 0.69 -2.37 9.93 -0.75 0.21 0.25 8002
0.00 0.00 -0.10 -2.79 10.05 -0.76 0.22 0.25 8009
0.00 -0.00 -0.54 -3.51 9.59 -0.76 0.20 0.23 8016
0.00 0.00 -0.24 -2.41 9.79 -0.75 0.22 0.23 8024
0.00 0.00 -0.10 -1.89 10.45 -0.81 0.22 0.22 8031
0.00 0.00 -0.35 -2.46 9.87 -0.86 0.21 0.21 8038
0.00 0.00 -0.09 -2.94 11.33 -0.89 0.22 0.22 8045
0.00 0.00 0.02 -2.13 9.94 -0.90 0.20 0.22 8052
0.01 -0.00 0.08 -2.29 10.00 -0.93 0.17 0.23 8059
0.00 0.00 0.28 -2.36 9.99 -0.93 0.15 0.24 8067
0.00 0.00 0.58 -2.11 9.94 -0.91 0.13 0.25 8074
0.00 0.00 0.78 -1.89 9.95 -0.89 0.13 0.27 8081
0.00 0.00 0.85 -1.76 10.10 -0.89 0.13 0.28 8088
-0.00 0.00 0.96 -1.68 10.25 -0.89 0.16 0.29 8095
0.00 0.00 0.94 -1.70 10.38 -0.91 0.18 0.29 8102
0.00 0.00 0.74 -1.82 10.38 -0.92 0.19 0.29 8110
0.00 0.00 0.58 -1.98 10.27 -0.91 0.19 0.28 8117
0.00 0.00 0.52 -2.08 10.17 -0.90 0.16 0.26 8124
0.00 0.00 0.52 -2.14 10.07 -0.87 0.12 0.25 8131
0.00 0.00 0.66 -2.10 10.04 -0.85 0.10 0.22 8138
0.00 0.00 0.86 -2.03 10.08 -0.82 0.11 0.20 8145
0.00 0.00 1.05 -1.90 10.29 -0.81 0.15 0.18 8153
0.00 0.00 1.14 -1.75 10.33 -0.81 0.21 0.17 8160
0.00 0.00 1.09 -1.50 10.27 -0.83 0.28 0.18 8167
0.00 0.00 0.93 -1.46 10.15 -0.85 0.32 0.21 8174
0.00 0.00 0.68 -1.46 10.00 -0.86 0.33 0.24 8181
0.00 0.00 0.52 -1.55 9.89 -0.86 0.31 0.28 8188
0.00 0.00 0.42 -1.56 9.71 -0.84 0.26 0.32 8196
0.00 0.00 0.48 -1.57 9.56 -0.82 0.21 0.35 8203
0.00 0.00 0.60 -1.65 9.59 -0.79 0.17 0.38 8210
0.00 0.00 0.66 -1.59 9.66 -0.76 0.14 0.39 8217
0.00 -0.00 0.74 -1.54 9.67 -0.74 0.13 0.39 8224
0.00 0.00 0.86 -1.55 9.67 -0.74 0.13 0.39 8231
0.00 0.00 0.97 -1.52 9.83 -0.75 0.14 0.38 8239
0.00 0.00 1.01 -1.66 9.83 -0.75 0.16 0.38 8246
0.00 0.00 0.93 -1.83 9.73 -0.76 0.17 0.37 8253
0.00 0.00 0.85 -2.01 9.53 -0.76 0.19 0.35 8260
0.00 -0.00 0.84 -2.19 9.48 -0.74 0.19 0.33 8267
0.00 0.00 0.95 -2.38 9.36 -0.73 0.20 0.30 8274
0.00 0.00 0.65 -4.83 9.77 -0.69 0.17 0.24 8282
0.00 0.00 -1.12 -8.89 15.73 -0.27 -0.24 0.06 8289
0.00 0.00 0.87 -3.55 4.47 -0.14 -0.06 -0.02 8296
0.00 0.00 1.25 -6.89 6.63 -0.13 -0.16 -0.10 8303
0.00 -0.00 1.58 -10.86 11.47 0.01 -0.29 -0.25 8310
0.00 0.00 1.69 -7.89 5.93 0.23 -0.14 -0.36 8317
0.00 0.00 1.39 -8.58 5.81 0.32 -0.14 -0.37 8325
0.00 0.00 0.37 -11.08 6.11 0.48 -0.36 -0.39 8332
-0.00 0.00 -0.97 -12.11 5.74 0.68 -0.42 -0.32 8339
-0.00 0.01 -1.86 -14.21 7.53 0.91 -0.53 -0.24 8346
0.00 0.02 -1.73 -15.82 6.77 1.13 -0.63 -0.14 8354
-0.00 0.02 -4.36 -23.00 18.04 1.25 -1.20 -0.08 8360
-0.00 0.01 -1.60 -4.29 16.52 0.32 -1.34 -0.09 8368
-0.00 0.03 -0.82 -4.50 11.33 -0.12 -0.18 0.04 8375
-0.00 0.02 0.55 -1.43 9.87 -0.25 -0.04 0.03 8382
-0.00 0.07 0.28 -0.88 9.61 -0.26 -0.03 0.01 8389
-0.01 0.12 0.66 -0.44 9.78 -0.20 -0.04 0.01 8396
-0.01 0.14 0.69 -0.31 9.99 -0.14 -0.02 -0.01 8403
-0.01 0.15 0.33 -0.58 10.05 -0.12 -0.01 -0.05 8411
0.00 0.22 0.29 -0.92 10.06 -0.09 0.01 -0.06 8418
0.01 0.25 0.21 -0.93 10.12 -0.05 0.03 -0.06 8425
0.02 0.26 0.29 -0.93 9.95 -0.03 0.05 -0.05 8432
0.05 0.29 0.39 -0.97 9.77 -0.03 0.07 -0.05 8439
0.05 0.26 0.35 -0.94 9.82 -0.02 0.08 -0.06 8446
0.05 0.28 0.35 -0.92 9.77 -0.02 0.07 -0.05 8454
0.04 0.23 0.35 -0.88 9.82 -0.02 0.07 -0.06 8461
0.05 0.24 0.39 -0.90 9.81 -0.02 0.06 -0.05 8468
0.06 0.24 0.39 -0.90 9.87 -0.02 0.06 -0.05 8475
0.05 0.25 0.39 -0.92 9.73 -0.03 0.06 -0.05 8482
0.06 0.24 0.35 -0.93 9.81 -0.03 0.06 -0.05 8489
0.07 0.24 0.33 -0.89 9.21 -0.03 0.06 -0.05 8497
0.08 0.26 0.46 -0.91 9.81 -0.04 0.06 -0.05 8504
0.08 0.26 0.37 -0.91 9.80 -0.04 0.06 -0.05 8511
0.09 0.25 0.35 -0.86 9.75 -0.04 0.06 -0.05 8518
0.07 0.26 0.35 -0.90 9.82 -0.04 0.06 -0.05 8525
0.07 0.26 0.35 -0.88 9.80 -0.04 0.06 -0.05 8532
0.06 0.24 0.33 -0.88 9.85 -0.04 0.06 -0.05 8540
0.06 0.28 0.43 -0.89 9.76 -0.04 0.07 -0.05 8547
0.07 0.29 0.37 -0.89 9.75 -0.04 0.06 -0.04 8554
0.07 0.28 0.37 -0.82 9.84 -0.04 0.06 -0.05 8561
0.07 0.28 0.30 -0.85 9.76 -0.05 0.06 -0.05 8568
0.06 0.31 0.38 -0.84 9.79 -0.04 0.06 -0.04 8576
0.05 0.38 0.37 -0.85 9.83 -0.04 0.06 -0.04 8583
0.06 0.40 0.34 -0.79 9.77 -0.04 0.07 -0.04 8590
0.07 0.39 0.39 -0.84 9.81 -0.04 0.07 -0.04 8597
0.07 0.39 0.39 -0.85 9.75 -0.03 0.07 -0.04 8604
0.06 0.41 0.38 -0.85 9.81 -0.03 0.07 -0.05 8611
0.07 0.40 0.31 -0.81 9.79 -0.03 0.08 -0.04 8619
0.05 0.42 0.45 -0.85 9.79 -0.03 0.08 -0.05 8626
0.07 0.41 0.50 -0.87 9.69 -0.03 0.08 -0.04 8633
0.08 0.40 0.42 -0.82 9.82 -0.02 0.08 -0.05 8640
0.08 0.40 0.41 -0.80 9.80 -0.02 0.09 -0.04 8647
0.07 0.41 0.34 -0.85 9.81 -0.02 0.09 -0.04 8654
0.06 0.41 0.41 -0.81 9.79 -0.01 0.09 -0.04 8662
0.07 0.41 0.36 -0.84 9.81 -0.01 0.09 -0.04 8669
0.07 0.42 0.40 -0.83 9.77 -0.02 0.09 -0.05 8676
0.08 0.41 0.18 -0.79 9.81 -0.02 0.10 -0.04 8683
0.07 0.37 0.44 -0.79 9.82 -0.01 0.10 -0.04 8690
0.06 0.39 0.18 -0.75 9.81 -0.02 0.10 -0.04 8697
0.06 0.38 0.46 -0.82 9.81 -0.01 0.10 -0.04 8705
0.06 0.41 0.50 -0.78 9.79 -0.01 0.10 -0.05 8712
0.07 0.42 0.51 -0.84 9.77 -0.00 0.10 -0.05 8719
0.07 0.41 0.45 -0.77 9.78 -0.00 0.09 -0.05 8726
0.07 0.40 0.63 -0.97 9.76 0.00 0.09 -0.05 8733
0.07 0.39 0.48 -0.80 9.82 -0.00 0.08 -0.05 8740
0.06 0.40 0.49 -0.83 9.77 -0.00 0.08 -0.05 8748
0.07 0.39 0.46 -0.78 9.80 -0.01 0.07 -0.05 8755
0.07 0.39 0.48 -0.80 9.81 -0.00 0.07 -0.05 8762
0.09 0.36 0.48 -0.77 9.81 -0.00 0.06 -0.05 8769
0.08 0.35 0.47 -0.80 9.79 -0.01 0.06 -0.05 8776
0.08 0.33 0.52 -0.79 9.80 -0.00 0.05 -0.05 8783
0.06 0.34 0.46 -0.80 9.81 -0.00 0.04 -0.05 8791
0.07 0.34 0.46 -0.80 9.79 -0.00 0.04 -0.05 8798
0.07 0.33 0.49 -0.82 9.80 -0.00 0.04 -0.05 8805
0.06 0.33 0.52 -0.80 9.78 -0.00 0.03 -0.05 8812
0.08 0.34 0.49 -0.79 9.78 0.00 0.03 -0.06 8819
0.06 0.33 0.45 -0.84 9.79 0.00 0.03 -0.06 8826
0.07 0.33 0.49 -0.79 9.80 0.00 0.03 -0.06 8834
0.07 0.34 0.46 -0.81 9.81 0.00 0.03 -0.06 8841
0.09 0.31 0.46 -0.81 9.81 0.01 0.03 -0.06 8848
0.09 0.29 0.43 -0.84 9.80 0.00 0.04 -0.06 8855
0.09 0.29 0.50 -0.81 9.82 0.00 0.04 -0.06 8862
0.09 0.29 0.44 -0.83 9.80 0.00 0.04 -0.05 8869
0.09 0.28 0.44 -0.82 9.80 0.00 0.05 -0.06 8877
0.10 0.28 0.48 -0.85 9.78 0.00 0.05 -0.06 8884
0.10 0.28 0.46 -0.82 9.81 0.00 0.05 -0.06 8891
0.09 0.27 0.47 -0.81 9.80 0.00 0.05 -0.06 8898
0.10 0.24 0.49 -0.80 9.79 0.01 0.06 -0.06 8905
0.09 0.24 0.46 -0.81 9.77 0.00 0.05 -0.06 8912
0.09 0.27 0.48 -0.80 9.73 0.00 0.05 -0.06 8920
0.09 0.24 0.50 -0.84 9.81 0.01 0.05 -0.06 8927
0.10 0.24 0.47 -0.81 9.81 0.01 0.05 -0.06 8934
0.09 0.21 0.45 -0.81 9.83 0.01 0.05 -0.06 8941
0.09 0.19 0.48 -0.82 9.72 0.00 0.05 -0.06 8948
0.08 0.20 0.49 -0.85 9.78 0.01 0.05 -0.06 8955
0.09 0.21 0.52 -0.84 9.77 0.01 0.05 -0.06 8963
0.10 0.19 0.45 -0.84 9.80 0.01 0.05 -0.06 8970
0.11 0.20 0.50 -0.87 9.77 0.01 0.05 -0.06 8977
0.10 0.19 0.43 -0.88 9.80 0.01 0.06 -0.06 8984
0.10 0.17 0.47 -0.82 9.76 0.01 0.05 -0.06 8991
0.09 0.18 0.51 -0.84 9.81 0.01 0.06 -0.06 8998
0.10 0.18 0.47 -0.85 9.79 0.01 0.05 -0.06 9006
0.13 0.18 0.50 -0.84 9.78 0.01 0.06 -0.06 9013
0.14 0.17 0.48 -0.87 9.81 0.01 0.05 -0.06 9020
0.13 0.18 0.45 -0.89 9.81 0.01 0.06 -0.06 9027
0.14 0.17 0.48 -0.86 9.78 0.01 0.06 -0.06 9034
0.13 0.17 0.56 -0.86 9.81 0.01 0.06 -0.06 9041
0.13 0.18 0.53 -0.85 9.80 0.01 0.06 -0.07 9049
0.14 0.15 0.51 -0.84 9.80 0.01 0.06 -0.06 9056
0.15 0.13 0.51 -0.87 9.80 0.01 0.06 -0.07 9063
0.15 0.11 0.51 -0.86 9.80 0.01 0.06 -0.06 9070
0.15 0.07 0.49 -0.86 9.79 0.01 0.06 -0.06 9077
0.16 0.06 0.51 -0.86 9.74 0.01 0.06 -0.07 9084
0.16 0.09 0.51 -0.87 9.81 0.01 0.06 -0.06 9092
0.18 0.07 0.57 -0.89 9.80 0.01 0.06 -0.07 9099
0.16 0.06 0.54 -0.89 9.78 0.01 0.06 -0.06 9106
0.18 0.00 0.53 -0.88 9.79 0.01 0.06 -0.06 9113
0.17 0.01 0.51 -0.85 9.80 0.02 0.06 -0.06 9120
0.15 0.00 0.50 -0.91 9.81 0.02 0.06 -0.07 9127
0.18 0.03 0.48 -0.87 9.81 0.02 0.06 -0.06 9135
0.18 0.02 0.52 -0.86 9.20 0.02 0.06 -0.06 9142
0.18 0.02 0.52 -0.88 9.80 0.02 0.06 -0.06 9149
0.20 -0.01 0.52 -0.90 9.83 0.02 0.06 -0.06 9156
0.20 -0.00 0.51 -0.88 9.82 0.03 0.07 -0.06 9163
0.24 -0.01 0.57 -0.87 9.81 0.03 0.07 -0.07 9170
0.25 -0.01 0.58 -0.92 9.78 0.03 0.07 -0.06 9178
0.23 -0.02 0.55 -0.87 9.81 0.03 0.07 -0.07 9185
0.20 -0.02 0.51 -0.89 9.81 0.04 0.07 -0.07 9192
0.24 -0.02 0.54 -0.91 9.82 0.03 0.08 -0.07 9199
0.23 -0.01 0.54 -0.93 9.82 0.04 0.08 -0.06 9206
0.25 -0.01 0.55 -0.91 9.82 0.04 0.08 -0.06 9213
0.27 -0.01 0.55 -0.91 9.79 0.05 0.08 -0.06 9221
0.25 -0.01 0.54 -0.94 9.79 0.05 0.08 -0.06 9228
0.27 -0.01 0.55 -0.90 9.80 0.05 0.09 -0.06 9235
0.27 -0.02 0.54 -0.94 9.79 0.05 0.09 -0.06 9242
0.23 -0.02 0.57 -0.94 9.80 0.06 0.09 -0.06 9249
0.25 -0.01 0.57 -0.89 9.81 0.06 0.10 -0.06 9256
0.27 -0.02 0.59 -0.93 9.81 0.07 0.10 -0.06 9264
0.27 -0.02 0.58 -0.96 9.20 0.08 0.11 -0.06 9271
0.26 -0.02 0.55 -0.97 9.82 0.08 0.11 -0.06 9278
0.23 -0.02 0.57 -0.93 9.74 0.09 0.12 -0.06 9285
0.27 -0.02 0.53 -0.96 9.81 0.10 0.13 -0.06 9292
0.29 -0.01 0.59 -0.96 9.73 0.10 0.14 -0.06 9299
0.30 -0.02 0.63 -0.99 9.81 0.11 0.14 -0.06 9307
0.30 -0.02 0.60 -0.96 9.81 0.12 0.15 -0.06 9314
0.30 -0.03 0.58 -0.97 9.75 0.13 0.15 -0.06 9321
0.29 -0.02 0.63 -1.01 9.80 0.13 0.15 -0.05 9328
0.31 -0.02 0.62 -1.01 9.83 0.14 0.15 -0.06 9335
0.33 -0.01 0.63 -1.02 9.79 0.15 0.15 -0.06 9342
0.34 -0.02 0.63 -1.07 9.78 0.16 0.15 -0.06 9350
0.34 -0.02 0.62 -1.03 9.82 0.17 0.16 -0.06 9357
0.36 -0.03 0.66 -1.08 9.83 0.19 0.16 -0.06 9364
0.35 -0.02 0.66 -1.11 9.81 0.21 0.17 -0.06 9371
0.36 -0.02 0.69 -1.09 9.83 0.23 0.17 -0.06 9378
0.37 -0.02 0.70 -1.11 9.82 0.26 0.18 -0.06 9385
0.40 -0.02 0.71 -1.16 9.89 0.28 0.19 -0.06 9393
0.41 -0.02 0.66 -1.19 9.92 0.30 0.19 -0.06 9400
0.41 -0.03 0.74 -1.22 9.92 0.33 0.20 -0.07 9407
0.39 -0.02 0.77 -1.27 9.84 0.37 0.20 -0.07 9414
0.40 -0.02 0.81 -1.30 9.86 0.40 0.20 -0.07 9421
0.40 -0.02 0.76 -1.31 9.83 0.43 0.19 -0.07 9428
0.40 -0.02 0.80 -1.38 9.82 0.44 0.19 -0.07 9436
0.40 -0.02 0.78 -1.38 9.87 0.46 0.17 -0.07 9443
0.39 -0.02 0.83 -1.46 9.89 0.47 0.16 -0.08 9450
0.40 -0.02 0.82 -1.51 9.85 0.48 0.15 -0.09 9457
0.39 -0.01 0.89 -1.52 9.94 0.49 0.13 -0.09 9464
0.41 -0.02 0.81 -1.56 10.26 0.51 0.11 -0.09 9473
0.41 -0.03 0.89 -1.63 10.33 0.56 0.09 -0.09 9480
0.40 -0.03 0.91 -1.71 10.42 0.61 0.06 -0.10 9487
0.38 -0.02 0.92 -1.70 9.86 0.66 0.03 -0.10 9493
0.33 -0.02 0.90 -1.79 10.41 0.71 0.01 -0.11 9501
0.31 -0.02 0.94 -1.86 10.35 0.76 -0.02 -0.12 9508
0.30 -0.02 0.96 -1.90 10.23 0.78 -0.05 -0.13 9515
0.28 -0.02 0.94 -1.91 10.05 0.80 -0.07 -0.14 9522
0.26 -0.03 0.96 -2.02 9.93 0.82 -0.09 -0.15 9529
0.24 -0.02 0.92 -2.09 10.05 0.84 -0.10 -0.16 9536
0.22 -0.01 1.00 -2.14 10.22 0.87 -0.11 -0.17 9544
0.23 -0.00 0.86 -2.30 10.31 0.91 -0.11 -0.17 9551
0.21 -0.01 0.85 -2.33 9.97 0.95 -0.13 -0.18 9558
0.19 -0.00 0.59 -2.34 10.30 0.98 -0.14 -0.18 9566
0.18 -0.01 0.96 -2.52 10.22 1.02 -0.14 -0.18 9573
0.14 -0.00 0.70 -2.48 9.94 1.05 -0.15 -0.19 9579
0.15 -0.01 0.79 -2.66 10.14 1.08 -0.16 -0.18 9587
0.15 0.00 0.77 -2.72 9.98 1.13 -0.19 -0.19 9593
0.14 -0.01 0.80 -2.80 10.09 1.13 -0.18 -0.19 9601
0.08 -0.01 0.85 -2.98 10.19 1.17 -0.20 -0.20 9608
0.06 -0.01 0.96 -3.02 10.24 1.20 -0.20 -0.22 9615
0.07 -0.01 0.98 -3.15 10.43 1.25 -0.19 -0.23 9622
0.06 -0.01 0.96 -3.29 10.53 1.30 -0.22 -0.25 9629
0.11 -0.01 1.02 -3.43 10.85 1.36 -0.23 -0.26 9636
0.10 -0.01 1.18 -3.61 11.07 1.43 -0.23 -0.29 9644
0.06 -0.01 1.48 -3.92 11.49 1.51 -0.20 -0.32 9651
0.06 -0.01 1.87 -4.03 11.46 1.61 -0.13 -0.36 9658
0.03 -0.00 2.29 -4.18 11.67 1.70 -0.02 -0.42 9665
0.04 -0.00 2.34 -4.24 11.28 1.68 0.11 -0.47 9672
0.02 -0.00 2.35 -4.30 11.34 1.68 0.27 -0.52 9679
0.02 -0.00 2.32 -4.24 11.51 1.67 0.44 -0.56 9687
0.00 -0.00 2.00 -4.19 11.56 1.65 0.57 -0.60 9694
0.00 0.00 1.41 -4.13 11.21 1.63 0.63 -0.64 9701
0.00 0.00 0.92 -4.88 10.78 1.57 0.60 -0.68 9708
0.00 0.00 0.74 -4.19 10.71 1.51 0.49 -0.69 9715
0.01 -0.00 0.62 -4.30 10.72 1.46 0.37 -0.70 9722
0.00 0.00 0.36 -4.28 10.13 1.41 0.27 -0.71 9730
0.00 0.00 0.54 -4.11 9.31 1.34 0.19 -0.73 9737
0.00 0.00 0.61 -3.75 8.74 1.28 0.11 -0.74 9744
0.00 0.00 0.59 -3.76 8.25 1.19 0.04 -0.75 9751
0.01 -0.00 0.69 -4.02 7.85 1.13 -0.04 -0.77 9758
0.01 -0.00 0.56 -3.75 7.69 1.08 -0.10 -0.78 9765
0.00 0.00 0.44 -3.96 7.58 1.04 -0.16 -0.78 9773
0.00 0.00 0.27 -3.67 7.68 1.03 -0.26 -0.78 9780
0.00 0.00 0.20 -2.66 7.80 1.00 -0.29 -0.78 9787
0.00 0.00 0.27 -2.58 7.05 0.91 -0.36 -0.76 9794
0.00 0.00 -0.01 -2.27 7.46 0.86 -0.40 -0.73 9801
0.00 0.00 0.43 -1.17 7.53 0.77 -0.44 -0.69 9808
0.00 0.00 0.62 0.11 7.32 0.70 -0.44 -0.63 9816
0.00 0.00 0.62 0.71 7.57 0.56 -0.38 -0.57 9823
0.00 0.00 0.99 0.45 7.75 0.38 -0.30 -0.46 9830
0.00 0.00 0.97 0.27 7.97 0.24 -0.21 -0.35 9837
0.00 0.00 1.37 0.78 8.06 0.06 -0.09 -0.23 9844
0.00 0.00 0.89 0.36 7.93 -0.09 0.02 -0.07 9851
0.00 0.00 0.60 0.27 8.05 -0.25 0.10 0.06 9859
0.00 0.00 0.34 0.20 7.91 -0.36 0.15 0.20 9865
0.00 0.00 0.12 0.03 7.63 -0.45 0.15 0.34 9872
0.00 0.00 -0.05 -0.20 7.47 -0.54 0.12 0.43 9879
0.00 0.00 -0.07 -0.55 7.35 -0.59 0.08 0.51 9886
0.00 0.00 -0.11 -1.01 7.37 -0.63 0.03 0.55 9893
0.00 0.00 -0.00 -1.40 7.42 -0.65 -0.01 0.58 9901
0.00 0.00 0.14 -1.64 7.46 -0.65 -0.03 0.57 9908
0.00 0.00 0.17 -1.76 7.40 -0.65 -0.04 0.55 9915
0.00 0.00 0.22 -1.85 7.58 -0.65 -0.02 0.50 9922
0.00 0.00 0.17 -1.95 7.82 -0.65 -0.01 0.45 9929
0.00 0.00 0.13 -2.10 7.99 -0.66 -0.01 0.40 9936
0.00 0.00 0.16 -2.43 8.40 -0.68 -0.00 0.35 9944
0.00 0.00 -0.10 -4.16 9.29 -0.70 -0.01 0.28 9951
0.00 0.00 0.13 -7.02 9.31 -0.74 0.00 0.19 9958
0.00 0.00 -0.47 -8.63 10.58 -0.81 0.05 0.05 9965
0.00 0.00 -0.30 -3.54 10.92 -0.86 0.08 -0.02 9972
0.00 0.00 -0.09 -5.59 8.88 -0.91 0.09 -0.04 9979
0.00 0.00 0.91 -4.33 7.79 -1.05 0.17 -0.07 9987
0.00 0.00 -0.12 -5.98 8.63 -1.10 0.13 -0.09 9994
0.00 0.00 -0.53 -3.82 9.37 -1.07 0.05 -0.07 10001
0.00 0.00 0.82 -5.12 7.16 -1.04 0.07 -0.05 10008
0.00 0.00 0.70 -6.10 7.13 -0.92 0.05 -0.04 10015
0.00 0.00 0.23 -4.99 8.27 -0.89 0.05 -0.03 10022
0.00 0.00 0.11 -4.63 7.74 -0.82 0.04 0.00 10030
0.00 0.00 -0.08 -6.16 7.70 -0.73 0.02 -0.00 10037
0.00 0.00 -0.08 -5.32 10.24 -0.68 0.01 -0.01 10044
0.00 0.00 -0.21 -6.17 8.62 -0.66 0.02 -0.02 10051
0.00 0.00 1.15 -4.61 10.54 -0.56 0.01 -0.04 10058
0.00 0.00 -0.01 -7.25 7.72 -0.62 0.01 -0.03 10065
0.00 0.00 0.32 -4.01 12.23 -0.62 0.06 -0.02 10073
0.00 0.00 0.43 -4.45 8.64 -0.73 0.04 -0.01 10080
0.00 0.00 0.34 -5.08 8.93 -0.78 0.03 0.05 10087
0.00 -0.00 0.13 -4.13 9.34 -0.80 0.05 0.09 10094
0.00 0.00 0.29 -4.08 9.00 -0.77 0.05 0.14 10101
0.00 0.00 0.31 -4.41 8.56 -0.75 0.08 0.19 10108
0.00 0.00 0.43 -3.94 8.36 -0.71 0.10 0.23 10116
0.00 0.00 0.36 -3.66 8.58 -0.65 0.12 0.25 10123
0.00 0.00 0.34 -3.38 8.74 -0.62 0.17 0.26 10130
0.00 0.00 0.39 -3.14 8.98 -0.61 0.13 0.25 10137
0.00 0.00 0.35 -3.00 9.25 -0.62 0.12 0.25 10144
0.00 0.00 0.45 -2.79 9.62 -0.64 0.11 0.20 10151
0.00 0.00 0.55 -2.65 9.75 -0.69 0.12 0.21 10159
0.00 0.00 0.65 -2.52 9.75 -0.75 0.14 0.19 10166
0.00 0.00 0.64 -2.42 9.57 -0.81 0.17 0.16 10173
0.00 -0.00 0.57 -2.34 9.38 -0.87 0.18 0.14 10180
0.00 0.00 0.49 -2.33 9.30 -0.88 0.19 0.12 10187
0.00 0.00 0.38 -2.36 9.42 -0.88 0.19 0.11 10194
0.00 0.00 0.33 -2.25 9.44 -0.86 0.17 0.10 10202
0.00 0.00 0.32 -2.09 9.54 -0.84 0.16 0.10 10209
0.00 0.00 0.37 -1.87 9.79 -0.85 0.13 0.09 10216
0.00 -0.00 0.37 -1.72 9.92 -0.87 0.11 0.07 10223
0.00 0.00 0.40 -1.58 9.94 -0.90 0.10 0.05 10230
0.00 0.00 0.52 -1.49 9.94 -0.93 0.08 0.03 10237
0.00 0.00 0.61 -1.54 9.91 -0.96 0.06 -0.03 10245
0.00 0.00 0.78 -1.55 9.99 -0.97 0.05 -0.03 10252
0.00 0.00 0.96 -1.50 10.14 -0.99 0.05 -0.05 10259
0.00 0.00 1.16 -1.41 10.11 -1.02 0.06 -0.06 10266
0.00 0.00 1.32 -1.37 10.03 -1.04 0.08 -0.05 10273
0.00 0.00 1.44 -1.46 9.87 -1.05 0.10 -0.02 10280
0.00 0.00 1.52 -1.53 9.85 -1.05 0.10 0.03 10288
0.00 0.00 1.58 -1.65 9.81 -1.04 0.09 0.08 10295
0.00 -0.00 1.64 -1.71 9.89 -1.01 0.08 0.13 10302
0.00 0.00 1.68 -1.77 10.09 -0.99 0.07 0.20 10309
0.00 0.00 1.75 -1.69 10.14 -0.99 0.09 0.26 10316
0.00 0.00 1.81 -1.60 10.19 -0.99 0.10 0.31 10323
0.00 0.00 1.78 -1.73 10.09 -1.01 0.12 0.36 10331
0.00 0.00 1.80 -1.81 10.03 -1.01 0.14 0.40 10338
0.00 0.00 1.79 -1.93 9.92 -1.00 0.16 0.45 10345
0.00 0.00 1.73 -2.02 9.84 -0.97 0.19 0.48 10352
0.00 0.00 1.64 -2.09 9.83 -0.93 0.22 0.49 10359
0.00 0.00 1.39 -2.14 9.91 -0.89 0.22 0.52 10366
0.00 0.00 1.14 -2.11 9.95 -0.85 0.22 0.54 10374
0.00 0.00 0.99 -2.09 10.00 -0.82 0.20 0.56 10381
0.00 -0.00 0.82 -2.18 9.99 -0.80 0.13 0.59 10388
0.00 0.00 0.79 -2.23 10.26 -0.77 0.14 0.60 10395
0.00 0.00 0.88 -2.19 10.62 -0.77 0.13 0.61 10402
0.00 0.00 0.97 -2.13 10.65 -0.80 0.15 0.62 10409
0.00 0.00 1.01 -2.13 10.49 -0.86 0.17 0.61 10417
0.00 -0.00 1.02 -2.15 10.58 -0.92 0.20 0.60 10424
0.00 0.00 1.09 -2.24 10.74 -0.99 0.21 0.59 10431
0.00 0.00 1.12 -2.35 10.72 -1.03 0.23 0.56 10438
0.00 0.00 1.13 -2.53 10.44 -1.05 0.25 0.52 10445
0.00 0.00 1.12 -2.67 10.11 -1.06 0.27 0.48 10452
0.00 0.00 1.08 -2.83 9.77 -1.04 0.30 0.41 10460
0.00 0.00 0.90 -3.74 9.81 -0.99 0.33 0.35 10467
0.00 0.00 -1.27 -11.13 15.41 -0.55 0.09 0.25 10474
0.00 0.00 -0.42 -3.82 5.34 -0.14 0.11 0.16 10481
0.00 0.00 -0.63 -4.89 2.46 -0.15 0.12 0.10 10488
0.00 0.00 -1.93 -8.38 9.59 0.01 -0.15 -0.02 10496
0.00 0.00 -1.70 -7.98 9.76 0.33 -0.35 -0.14 10503
0.00 -0.00 -2.28 -6.82 5.76 0.43 -0.44 -0.25 10510
0.00 0.00 -2.34 -8.98 8.79 0.60 -0.66 -0.35 10517
0.00 0.00 -1.38 -7.89 8.55 0.75 -0.56 -0.40 10524
0.00 0.00 -1.49 -9.03 9.20 0.82 -0.47 -0.43 10531
0.00 0.00 -1.23 -10.05 7.62 0.86 -0.43 -0.49 10539
-0.00 0.00 -1.47 -10.98 8.79 1.01 -0.60 -0.52 10546
0.00 -0.00 -1.83 -12.05 7.31 1.09 -0.75 -0.55 10553
-0.00 0.01 -1.39 -14.78 16.68 1.21 -1.09 -0.59 10561
0.00 0.01 0.92 -9.68 18.39 0.39 -1.11 -0.47 10567
-0.00 0.00 -0.63 -2.48 7.47 -0.11 0.00 0.04 10574
0.02 0.01 0.60 -2.43 9.56 -0.21 0.08 0.01 10582
0.03 0.04 0.17 -1.80 9.78 -0.24 0.06 0.05 10589
0.04 0.02 0.16 -0.09 9.97 -0.19 0.02 0.03 10596
0.03 0.02 0.26 -0.17 10.10 -0.13 0.02 -0.02 10603
0.02 0.04 0.33 -0.29 10.08 -0.13 0.02 -0.05 10610
0.01 0.06 0.32 -0.65 9.91 -0.10 0.03 -0.07 10617
0.03 0.06 0.34 -0.85 9.82 -0.06 0.02 -0.06 10625
-0.01 0.07 0.20 -0.99 9.86 -0.05 0.03 -0.05 10632
-0.00 0.06 0.09 -1.00 9.89 -0.04 0.04 -0.06 10639
0.00 0.07 0.14 -1.00 9.84 -0.04 0.05 -0.05 10646
0.01 0.06 0.21 -0.91 9.79 -0.03 0.05 -0.05 10653
0.01 0.10 0.26 -0.84 9.82 -0.03 0.06 -0.06 10660
0.03 0.08 0.25 -0.86 9.84 -0.03 0.05 -0.05 10668
0.04 0.10 0.17 -0.91 9.82 -0.03 0.06 -0.05 10675
0.04 0.07 0.17 -0.91 9.76 -0.04 0.08 -0.05 10682
0.05 0.11 0.24 -0.93 9.81 -0.05 0.09 -0.05 10689
0.04 0.12 0.22 -0.88 9.81 -0.06 0.10 -0.04 10696
0.02 0.12 0.18 -0.86 9.79 -0.06 0.11 -0.04 10703
0.02 0.14 0.23 -0.93 9.81 -0.07 0.12 -0.04 10711
0.04 0.17 0.25 -0.90 9.83 -0.06 0.12 -0.04 10718
0.03 0.16 0.29 -0.87 9.84 -0.06 0.12 -0.03 10725
0.02 0.19 0.23 -0.83 9.81 -0.05 0.11 -0.04 10732
0.02 0.20 0.26 -0.84 9.84 -0.05 0.11 -0.04 10739
0.01 0.23 0.23 -0.86 9.92 -0.06 0.11 -0.04 10746
0.01 0.26 0.27 -0.79 9.80 -0.06 0.11 -0.04 10754
0.02 0.24 0.26 -0.79 9.92 -0.05 0.11 -0.04 10761
0.01 0.26 0.33 -0.77 9.82 -0.05 0.11 -0.04 10768
0.00 0.32 0.25 -0.81 9.66 -0.05 0.09 -0.04 10775
-0.00 0.30 0.26 -0.75 9.70 -0.06 0.09 -0.04 10782
-0.00 0.34 0.31 -0.86 9.79 -0.06 0.10 -0.04 10789
-0.03 0.37 0.24 -0.83 9.83 -0.06 0.10 -0.04 10797
-0.02 0.32 0.31 -0.78 9.82 -0.06 0.10 -0.04 10804
-0.03 0.37 0.37 -0.82 9.78 -0.05 0.10 -0.04 10811
-0.03 0.43 0.38 -0.78 9.60 -0.04 0.10 -0.04 10818
-0.04 0.45 0.33 -0.75 9.80 -0.05 0.10 -0.04 10825
-0.04 0.50 0.40 -0.77 9.76 -0.04 0.10 -0.04 10832
-0.04 0.55 0.31 -0.71 10.37 -0.04 0.10 -0.04 10840
-0.03 0.51 0.35 -0.83 9.75 -0.04 0.10 -0.04 10847
-0.04 0.53 0.28 -0.76 9.74 -0.03 0.09 -0.04 10854
-0.04 0.52 0.39 -0.72 9.79 -0.03 0.08 -0.04 10861
-0.05 0.56 0.41 -0.68 9.70 -0.03 0.07 -0.04 10868
-0.04 0.56 0.39 -0.76 9.85 -0.03 0.07 -0.04 10875
-0.04 0.56 0.46 -0.83 9.62 -0.03 0.05 -0.04 10883
-0.03 0.56 0.40 -0.77 9.76 -0.02 0.04 -0.04 10890
-0.04 0.57 0.40 -0.77 9.78 -0.02 0.04 -0.05 10897
-0.04 0.60 0.34 -0.82 9.80 -0.03 0.04 -0.05 10904
-0.05 0.65 0.35 -0.75 9.83 -0.02 0.03 -0.05 10911
-0.04 0.65 0.39 -0.78 9.80 -0.02 0.03 -0.05 10918
-0.03 0.69 0.36 -0.76 9.80 -0.02 0.03 -0.05 10926
-0.04 0.68 0.35 -0.75 9.81 -0.02 0.02 -0.05 10933
-0.05 0.70 0.33 -0.76 9.82 -0.02 0.02 -0.05 10940
-0.05 0.66 0.34 -0.77 9.81 -0.01 0.01 -0.05 10947
-0.05 0.63 0.36 -0.75 9.81 -0.02 0.00 -0.06 10954
-0.05 0.65 0.35 -0.75 9.81 -0.02 -0.00 -0.06 10961
-0.04 0.67 0.33 -0.78 10.42 -0.02 -0.01 -0.06 10969
-0.04 0.67 0.35 -0.71 9.80 -0.02 -0.02 -0.06 10976
-0.04 0.67 0.34 -0.75 9.84 -0.02 -0.02 -0.06 10983
-0.05 0.68 0.34 -0.75 9.82 -0.02 -0.02 -0.06 10990
-0.04 0.67 0.34 -0.75 9.81 -0.01 -0.03 -0.06 10997
-0.03 0.69 0.32 -0.76 9.78 -0.01 -0.03 -0.06 11004
-0.03 0.68 0.34 -0.78 9.79 -0.01 -0.03 -0.07 11012
-0.03 0.69 0.34 -0.76 9.81 -0.01 -0.04 -0.07 11019
-0.01 0.70 0.29 -0.79 9.79 -0.01 -0.03 -0.07 11026
-0.04 0.71 0.27 -0.76 9.81 -0.01 -0.03 -0.07 11033
-0.01 0.73 0.31 -0.74 9.79 -0.01 -0.02 -0.07 11040
-0.02 0.74 0.32 -0.79 9.81 -0.01 -0.01 -0.07 11047
-0.00 0.74 0.28 -0.76 9.81 -0.01 -0.01 -0.07 11055
-0.01 0.74 0.28 -0.75 9.80 -0.01 -0.00 -0.07 11062
-0.00 0.73 0.25 -0.76 9.82 -0.00 0.00 -0.07 11069
-0.01 0.72 0.26 -0.75 9.78 -0.01 0.01 -0.07 11076
0.01 0.73 0.28 -0.77 9.80 -0.01 0.01 -0.07 11083
0.00 0.74 0.24 -0.75 9.82 -0.00 0.02 -0.07 11090
0.01 0.71 0.26 -0.78 9.20 -0.00 0.02 -0.06 11098
-0.03 0.71 0.25 -0.76 9.79 -0.00 0.02 -0.07 11105
-0.03 0.70 0.24 -0.78 9.82 0.00 0.02 -0.06 11112
-0.03 0.73 0.25 -0.79 9.82 -0.00 0.02 -0.07 11119
-0.03 0.72 0.25 -0.78 9.83 -0.00 0.02 -0.06 11126
-0.04 0.72 0.23 -0.78 9.82 -0.00 0.02 -0.06 11133
-0.03 0.70 0.25 -0.75 9.81 -0.00 0.03 -0.06 11141
-0.02 0.70 0.27 -0.75 9.81 -0.00 0.03 -0.06 11148
-0.01 0.69 0.23 -0.75 9.81 -0.00 0.03 -0.06 11155
-0.01 0.69 0.26 -0.75 9.81 -0.00 0.03 -0.06 11162
-0.01 0.71 0.26 -0.78 9.80 -0.01 0.03 -0.06 11169
-0.00 0.69 0.26 -0.77 9.81 -0.00 0.03 -0.06 11176
0.00 0.68 0.26 -0.75 9.79 -0.00 0.03 -0.06 11184
0.00 0.68 0.24 -0.75 9.69 -0.00 0.03 -0.07 11191
-0.01 0.66 0.26 -0.76 9.82 0.00 0.03 -0.06 11198
-0.04 0.67 0.26 -0.77 9.78 0.00 0.03 -0.06 11205
-0.03 0.67 0.23 -0.75 9.72 0.00 0.03 -0.06 11212
-0.01 0.66 0.29 -0.76 9.78 -0.00 0.03 -0.06 11219
-0.02 0.67 0.26 -0.76 9.81 -0.00 0.03 -0.06 11227
-0.03 0.66 0.25 -0.78 9.77 0.00 0.03 -0.06 11234
-0.04 0.64 0.24 -0.76 9.80 -0.00 0.03 -0.06 11241
-0.04 0.64 0.24 -0.80 9.81 -0.00 0.03 -0.06 11248
-0.03 0.65 0.23 -0.76 9.80 -0.00 0.03 -0.06 11255
-0.01 0.64 0.24 -0.78 9.80 -0.00 0.03 -0.06 11262
-0.02 0.64 0.19 -0.74 9.80 -0.00 0.03 -0.06 11270
-0.02 0.62 0.20 -0.79 9.81 -0.00 0.03 -0.06 11277
-0.02 0.64 0.25 -0.78 9.81 -0.00 0.03 -0.06 11284
-0.02 0.63 0.23 -0.76 9.83 -0.01 0.03 -0.06 11291
-0.02 0.64 0.24 -0.78 9.81 -0.01 0.04 -0.06 11298
-0.01 0.63 0.23 -0.78 9.81 -0.01 0.03 -0.06 11305
-0.02 0.62 0.24 -0.77 9.82 -0.01 0.04 -0.06 11313
-0.01 0.61 0.22 -0.75 9.84 -0.00 0.04 -0.06 11320
-0.02 0.62 0.22 -0.76 9.80 -0.01 0.04 -0.06 11327
-0.03 0.61 0.23 -0.76 9.80 -0.00 0.04 -0.07 11334
-0.01 0.61 0.22 -0.79 9.82 -0.00 0.04 -0.06 11341
-0.01 0.59 0.26 -0.78 9.81 -0.00 0.04 -0.06 11348
-0.02 0.59 0.22 -0.78 9.79 -0.00 0.04 -0.06 11356
-0.01 0.57 0.23 -0.81 9.80 -0.00 0.04 -0.06 11363
-0.02 0.58 0.21 -0.77 9.80 -0.01 0.04 -0.07 11370
-0.02 0.59 0.24 -0.78 9.81 -0.00 0.05 -0.07 11377
-0.01 0.57 0.24 -0.77 9.76 -0.00 0.05 -0.07 11384
-0.02 0.56 0.23 -0.77 9.80 -0.00 0.04 -0.07 11392
-0.02 0.56 0.26 -0.77 9.79 0.00 0.05 -0.07 11399
-0.02 0.53 0.25 -0.82 9.76 -0.00 0.05 -0.06 11406
-0.02 0.52 0.20 -0.77 9.79 -0.00 0.05 -0.07 11413
-0.02 0.53 0.23 -0.75 9.80 0.00 0.05 -0.06 11420
0.00 0.51 0.26 -0.79 9.79 0.00 0.05 -0.07 11427
-0.02 0.50 0.25 -0.78 9.81 0.00 0.05 -0.06 11435
-0.02 0.50 0.20 -0.77 9.87 0.01 0.05 -0.06 11442
-0.02 0.49 0.23 -0.77 9.80 0.00 0.05 -0.07 11449
0.00 0.48 0.24 -0.82 9.81 0.00 0.05 -0.07 11456
0.01 0.50 0.23 -0.79 9.79 0.00 0.05 -0.07 11463
0.00 0.50 0.21 -0.78 9.79 0.00 0.05 -0.07 11470
0.00 0.48 0.22 -0.79 9.85 0.00 0.05 -0.07 11478
0.00 0.48 0.25 -0.80 9.21 -0.00 0.04 -0.07 11485
-0.01 0.47 0.24 -0.79 9.80 -0.00 0.05 -0.07 11492
-0.00 0.47 0.23 -0.81 9.81 0.00 0.04 -0.07 11499
0.00 0.47 0.26 -0.82 9.83 0.00 0.05 -0.07 11506
0.01 0.47 0.25 -0.79 9.79 0.00 0.05 -0.07 11513
0.00 0.44 0.26 -0.81 9.20 0.00 0.05 -0.07 11521
0.00 0.44 0.24 -0.79 9.81 0.01 0.05 -0.07 11528
-0.00 0.43 0.22 -0.80 9.84 0.01 0.05 -0.07 11535
0.00 0.41 0.23 -0.78 9.81 0.01 0.05 -0.07 11542
0.01 0.39 0.23 -0.83 9.80 0.01 0.05 -0.07 11549
0.02 0.40 0.23 -0.79 9.79 0.01 0.06 -0.07 11556
0.02 0.39 0.26 -0.82 9.81 0.01 0.05 -0.07 11564
0.02 0.37 0.23 -0.82 9.80 0.01 0.06 -0.07 11571
0.02 0.34 0.24 -0.80 9.73 0.01 0.06 -0.07 11578
0.02 0.32 0.24 -0.78 9.80 0.01 0.06 -0.07 11585
0.03 0.30 0.29 -0.81 9.79 0.01 0.06 -0.07 11592
0.03 0.26 0.25 -0.82 9.82 0.01 0.06 -0.07 11599
0.03 0.27 0.24 -0.79 9.81 0.01 0.06 -0.07 11607
0.02 0.27 0.23 -0.84 9.78 0.02 0.07 -0.07 11614
0.02 0.27 0.26 -0.82 9.81 0.02 0.07 -0.07 11621
0.03 0.25 0.25 -0.79 9.85 0.02 0.07 -0.07 11628
0.03 0.24 0.31 -0.82 9.81 0.02 0.07 -0.07 11635
0.04 0.22 0.30 -0.86 9.80 0.03 0.07 -0.07 11642
0.05 0.20 0.25 -0.81 9.83 0.03 0.07 -0.07 11650
0.06 0.16 0.27 -0.86 9.81 0.03 0.07 -0.08 11657
0.08 0.12 0.28 -0.85 9.87 0.03 0.07 -0.07 11664
0.07 0.10 0.27 -0.88 9.85 0.03 0.07 -0.07 11671
0.09 0.02 0.26 -0.83 9.83 0.04 0.08 -0.07 11678
0.09 0.02 0.28 -0.79 9.87 0.05 0.09 -0.08 11685
0.09 0.02 0.34 -0.89 9.88 0.07 0.10 -0.08 11693
0.09 -0.00 0.42 -0.84 9.91 0.08 0.11 -0.08 11700
0.10 -0.00 0.35 -0.87 9.95 0.10 0.13 -0.08 11707
0.11 -0.01 0.45 -0.89 9.97 0.13 0.15 -0.09 11714
0.12 -0.00 0.45 -0.91 10.05 0.16 0.17 -0.10 11721
0.12 -0.01 0.47 -0.92 10.10 0.22 0.22 -0.11 11728
0.12 -0.01 0.73 -0.92 10.29 0.31 0.28 -0.14 11736
0.10 -0.01 0.93 -1.14 10.55 0.46 0.37 -0.19 11743
0.12 -0.01 0.73 -0.98 11.13 0.74 0.45 -0.23 11750
0.13 -0.01 0.61 -1.19 12.06 1.04 0.43 -0.25 11757
0.13 -0.01 0.70 -1.31 11.54 1.25 0.32 -0.26 11764
0.12 -0.01 0.51 -1.37 11.45 1.30 0.20 -0.26 11771
0.12 -0.01 0.50 -1.37 11.39 1.32 0.15 -0.25 11779
0.10 -0.01 0.28 -1.35 10.84 1.34 0.09 -0.23 11786
0.11 -0.01 0.46 -1.48 10.80 1.35 0.06 -0.21 11793
0.12 -0.01 0.31 -1.59 10.75 1.38 0.04 -0.20 11800
0.06 -0.00 0.30 -1.60 10.53 1.40 0.02 -0.19 11807
0.08 -0.01 0.40 -1.89 10.08 1.43 0.01 -0.18 11814
0.08 0.00 0.40 -2.21 10.22 1.42 -0.07 -0.16 11822
0.05 -0.00 0.35 -2.12 9.97 1.41 -0.02 -0.15 11829
0.03 -0.00 0.27 -2.23 10.25 1.41 -0.03 -0.14 11836
0.03 -0.00 0.40 -2.32 10.04 1.42 -0.04 -0.12 11843
0.02 -0.00 0.32 -2.41 10.02 1.43 -0.02 -0.11 11850
0.03 -0.00 0.36 -2.53 10.54 1.45 0.01 -0.10 11857
0.00 0.00 0.26 -2.74 10.54 1.48 0.01 -0.08 11865
0.02 -0.00 0.43 -2.86 10.71 1.53 0.02 -0.07 11872
0.03 0.00 0.49 -2.97 10.35 1.60 0.04 -0.08 11879
0.05 -0.01 0.39 -3.09 10.32 1.60 0.06 -0.07 11886
0.05 -0.00 0.48 -3.26 10.21 1.61 0.07 -0.07 11893
0.03 -0.00 0.44 -3.52 10.18 1.62 0.08 -0.06 11900
0.02 -0.00 0.43 -3.59 10.18 1.61 0.09 -0.06 11908
0.02 -0.00 0.48 -3.65 10.21 1.60 0.07 -0.06 11915
0.02 -0.00 0.48 -3.85 10.42 1.58 0.06 -0.07 11922
0.03 -0.00 0.60 -3.95 10.50 1.56 0.05 -0.07 11929
0.01 -0.00 0.74 -4.04 10.71 1.55 0.06 -0.08 11936
0.00 0.00 0.87 -4.16 10.61 1.53 0.07 -0.09 11943
0.00 0.00 0.88 -4.07 10.13 1.50 0.08 -0.11 11951
0.00 0.00 0.81 -4.09 9.92 1.49 0.08 -0.12 11958
0.01 -0.00 0.64 -4.18 9.67 1.47 0.03 -0.14 11965
0.01 -0.00 0.56 -4.08 9.33 1.43 -0.03 -0.15 11972
0.00 -0.00 0.55 -4.25 9.10 1.36 -0.08 -0.16 11979
0.00 -0.00 0.59 -4.50 9.11 1.30 -0.15 -0.17 11986
0.00 0.00 0.62 -4.56 9.08 1.26 -0.21 -0.19 11994
0.00 0.00 0.79 -4.64 8.98 1.23 -0.28 -0.20 12001
0.00 0.00 0.82 -4.77 8.73 1.22 -0.34 -0.21 12008
0.00 0.00 1.03 -4.83 8.53 1.20 -0.37 -0.24 12015
0.00 0.00 1.20 -4.93 8.34 1.20 -0.39 -0.26 12022
0.00 0.00 1.36 -4.90 8.35 1.20 -0.39 -0.29 12029
0.00 0.00 1.40 -4.92 8.39 1.19 -0.36 -0.32 12037
0.00 0.00 1.41 -4.90 8.61 1.16 -0.28 -0.34 12044
0.00 0.00 1.59 -4.85 9.15 1.11 -0.17 -0.37 12051
0.00 0.00 1.63 -4.77 8.79 1.04 -0.00 -0.39 12058
0.00 0.00 1.35 -4.26 8.13 0.97 0.13 -0.42 12065
0.00 0.00 1.09 -3.56 7.62 0.91 0.21 -0.44 12072
0.00 0.00 0.64 -3.09 7.26 0.84 0.26 -0.47 12080
0.00 -0.00 0.45 -2.62 7.28 0.76 0.27 -0.49 12087
0.00 0.00 -0.01 -2.55 7.19 0.67 0.23 -0.49 12094
0.00 0.00 -0.19 -1.23 7.68 0.60 0.16 -0.48 12101
0.00 0.00 -0.23 -2.32 7.58 0.53 0.08 -0.48 12108
0.00 0.00 -0.37 -2.00 7.58 0.49 -0.03 -0.46 12115
0.00 0.00 0.22 0.44 8.03 0.42 -0.10 -0.42 12123
0.00 0.00 0.33 1.08 7.48 0.25 -0.17 -0.39 12130
0.00 -0.00 0.43 -0.15 8.48 0.04 -0.20 -0.36 12137
0.00 0.00 0.78 -0.59 8.33 -0.09 -0.22 -0.34 12144
0.00 0.00 0.54 -1.03 8.03 -0.20 -0.18 -0.33 12151
0.00 0.00 0.70 -0.63 8.70 -0.28 -0.08 -0.33 12158
0.00 0.00 0.88 -0.21 7.92 -0.39 -0.05 -0.32 12166
0.00 0.00 1.09 0.79 7.60 -0.48 0.03 -0.31 12173
0.00 0.00 0.87 0.23 7.23 -0.55 0.06 -0.29 12180
0.00 0.00 0.69 -0.35 7.58 -0.61 0.08 -0.27 12187
0.00 0.00 0.61 -1.10 7.89 -0.64 0.09 -0.24 12194
0.00 0.00 -0.41 -5.65 7.74 -0.64 0.12 -0.22 12201
0.00 0.00 -0.37 -2.70 10.89 -0.72 0.15 -0.21 12209
0.00 0.00 -0.02 -6.44 7.85 -0.62 0.12 -0.21 12216
0.00 0.00 -0.84 -1.45 8.58 -0.72 0.18 -0.20 12223
0.00 0.00 -0.25 -10.12 4.81 -0.67 0.20 -0.24 12230
0.00 0.00 -1.60 -11.35 8.37 -0.65 0.21 -0.26 12237
0.00 0.00 -0.32 -6.06 8.42 -0.63 0.14 -0.29 12244
0.00 0.00 -0.70 -13.79 4.15 -0.61 0.12 -0.26 12252
0.00 0.00 -1.16 -19.76 8.09 -0.45 0.09 -0.30 12259
0.00 0.00 -0.53 -4.70 9.71 -0.17 -0.02 -0.30 12266
0.00 0.00 -0.85 -15.36 4.66 -0.27 0.04 -0.37 12273
0.00 0.00 0.04 -12.48 7.30 -0.26 -0.05 -0.38 12280
0.00 0.00 0.17 -1.02 7.85 -0.30 0.00 -0.30 12288
0.00 0.00 -0.28 -6.52 6.98 -0.47 0.04 -0.28 12295
0.00 0.00 -0.11 -0.47 9.90 -0.72 0.05 -0.23 12302
0.00 0.00 -1.26 -7.58 6.31 -0.80 0.04 -0.19 12309
0.00 0.00 -0.55 -2.22 10.95 -0.65 0.02 -0.14 12316
0.00 0.00 -0.11 -2.77 7.50 -0.63 -0.01 -0.12 12323
0.00 0.00 0.41 -2.12 7.66 -0.57 -0.01 -0.08 12331
0.00 0.00 0.46 -1.06 8.64 -0.61 0.03 -0.06 12338
0.00 0.00 0.62 -0.18 7.23 -0.69 0.08 -0.04 12345
0.00 0.00 0.38 -0.97 8.70 -0.71 0.16 -0.02 12352
0.00 0.00 0.05 -0.47 9.22 -0.80 0.19 -0.02 12359
0.00 0.00 -0.27 -1.05 8.92 -0.87 0.19 -0.02 12366
0.00 0.00 -0.20 -0.89 9.41 -0.94 0.17 -0.02 12374
0.00 0.00 -0.27 -1.03 9.36 -0.99 0.15 -0.02 12381
0.00 0.00 -0.10 -1.17 9.52 -1.04 0.12 -0.02 12388
0.00 0.00 0.04 -1.20 9.84 -1.09 0.10 -0.02 12395
0.00 0.00 0.18 -1.06 9.84 -1.14 0.10 -0.02 12402
0.00 0.00 0.46 -1.16 9.83 -1.19 0.12 -0.02 12409
0.00 0.00 0.51 -1.17 9.81 -1.23 0.14 -0.02 12417
0.00 -0.00 0.53 -1.24 9.83 -1.28 0.17 -0.03 12424
0.00 0.00 0.54 -1.44 9.84 -1.31 0.21 -0.04 12431
0.00 0.00 0.60 -1.60 9.90 -1.33 0.23 -0.06 12438
0.00 0.00 0.69 -1.82 9.93 -1.35 0.24 -0.07 12445
0.00 0.00 0.80 -1.97 9.84 -1.36 0.27 -0.08 12452
0.00 0.00 0.88 -2.02 9.75 -1.35 0.28 -0.09 12460
0.00 -0.00 0.98 -2.04 9.73 -1.34 0.31 -0.09 12467
0.00 0.00 1.08 -1.93 9.76 -1.31 0.34 -0.08 12474
0.00 0.00 1.16 -1.81 9.70 -1.29 0.37 -0.06 12481
0.00 0.00 1.22 -1.65 9.82 -1.27 0.41 -0.03 12488
0.00 0.00 1.19 -1.54 10.08 -1.25 0.44 0.02 12495
0.00 0.00 1.15 -1.38 10.39 -1.24 0.47 0.07 12503
0.00 0.00 1.01 -1.30 10.58 -1.25 0.50 0.13 12510
0.00 0.00 0.86 -1.26 10.66 -1.28 0.51 0.19 12517
0.00 0.00 0.77 -1.25 10.63 -1.30 0.52 0.23 12524
0.00 0.00 0.73 -1.37 10.66 -1.31 0.52 0.25 12531
0.00 0.00 0.71 -1.51 10.62 -1.31 0.51 0.27 12538
0.00 0.00 0.70 -1.62 10.54 -1.29 0.50 0.27 12546
0.00 0.00 0.73 -1.61 10.47 -1.27 0.49 0.25 12553
0.00 0.00 0.81 -1.66 10.36 -1.21 0.49 0.23 12560
0.00 0.00 0.78 -1.66 10.27 -1.21 0.49 0.20 12567
0.00 0.00 0.71 -1.65 10.35 -1.18 0.49 0.17 12574
0.00 0.00 0.63 -1.75 10.27 -1.16 0.49 0.13 12581
0.00 0.00 0.51 -1.76 10.20 -1.13 0.46 0.10 12589
0.00 0.00 0.37 -1.83 10.03 -1.08 0.40 0.07 12596
0.00 0.00 0.24 -1.91 10.08 -1.04 0.33 0.03 12603
0.00 0.00 0.16 -1.98 10.18 -0.97 0.24 0.00 12610
0.00 0.00 0.12 -1.97 10.69 -0.93 0.13 -0.03 12617
0.00 0.00 0.46 -1.90 11.69 -0.92 0.08 -0.07 12624
0.00 0.00 1.22 -1.79 12.04 -1.00 0.09 -0.09 12632
0.00 0.00 1.60 -1.82 11.99 -1.10 0.20 -0.12 12639
0.00 0.00 1.84 -1.99 11.67 -1.25 0.30 -0.14 12646
0.00 0.00 1.89 -2.33 11.18 -1.35 0.42 -0.14 12653
0.00 0.00 1.72 -2.91 10.61 -1.40 0.49 -0.12 12660
-0.00 0.00 1.50 -3.63 10.16 -1.38 0.54 -0.07 12667
0.00 0.00 1.26 -4.23 9.87 -1.31 0.56 -0.00 12675
0.00 0.00 1.17 -4.67 9.70 -1.22 0.57 0.07 12682
0.00 0.00 -0.01 -7.15 10.14 -1.09 0.54 0.16 12689
0.00 0.00 -6.70 -7.54 14.82 -0.41 -0.83 0.08 12696
0.00 0.00 -0.54 -6.37 4.53 -0.33 -0.44 0.14 12703
-0.00 0.00 -1.60 -14.10 6.10 -0.19 -0.41 0.25 12710
0.00 0.00 -2.06 -14.77 9.81 0.14 -0.47 0.28 12718
0.00 0.00 -1.54 -12.10 4.03 0.31 -0.23 0.27 12725
0.00 0.00 -1.22 -13.94 5.02 0.55 -0.41 0.24 12732
-0.00 0.00 -2.55 -17.46 3.30 0.70 -0.52 0.25 12739
0.00 0.00 -2.22 -15.42 2.05 1.01 -0.47 0.33 12746
-0.00 0.00 -3.08 -16.02 9.46 1.30 -0.54 0.38 12753
0.00 0.00 -12.63 -30.57 22.52 0.44 -0.75 0.15 12761
0.00 0.00 -1.14 -1.12 7.60 -0.10 0.10 -0.04 12768
-0.00 0.00 -0.44 -5.71 9.95 -0.13 0.09 -0.04 12775
-0.00 0.01 0.10 -1.55 9.92 -0.20 0.15 -0.05 12782
-0.00 0.05 0.63 -0.13 9.77 -0.18 0.13 0.00 12789
0.01 0.07 0.75 -0.18 9.51 -0.17 0.09 0.03 12796
0.00 0.10 0.67 -0.35 9.82 -0.15 0.07 0.01 12804
-0.01 0.11 0.54 -0.61 9.73 -0.12 0.06 -0.03 12811
0.01 0.17 0.36 -0.92 9.99 -0.09 0.06 -0.04 12818
-0.02 0.18 0.35 -0.90 9.94 -0.07 0.07 -0.04 12825
0.01 0.21 0.25 -0.89 9.87 -0.05 0.08 -0.04 12832
0.02 0.23 0.32 -0.78 9.79 -0.03 0.08 -0.04 12839
0.01 0.23 0.36 -0.78 9.75 -0.02 0.09 -0.04 12847
0.01 0.23 0.35 -0.85 9.81 -0.02 0.09 -0.04 12854
-0.02 0.23 0.35 -0.78 9.73 -0.02 0.09 -0.04 12861
0.02 0.24 0.46 -0.85 9.79 -0.02 0.08 -0.04 12868
0.04 0.24 0.46 -0.85 9.81 -0.03 0.06 -0.04 12875
0.05 0.26 0.50 -0.88 9.77 -0.03 0.06 -0.05 12882
0.04 0.25 0.48 -0.91 9.85 -0.04 0.04 -0.05 12890
0.03 0.25 0.46 -0.88 9.74 -0.03 0.04 -0.05 12897
0.01 0.25 0.42 -0.84 9.83 -0.04 0.04 -0.05 12904
0.01 0.28 0.41 -0.82 9.83 -0.04 0.04 -0.05 12911
0.01 0.29 0.40 -0.81 9.82 -0.03 0.04 -0.06 12918
0.04 0.30 0.42 -0.81 9.79 -0.03 0.04 -0.06 12925
0.04 0.29 0.39 -0.82 9.83 -0.03 0.04 -0.06 12933
0.05 0.33 0.39 -0.84 9.85 -0.03 0.04 -0.06 12940
0.02 0.31 0.40 -0.81 9.81 -0.03 0.04 -0.06 12947
0.04 0.30 0.40 -0.80 9.82 -0.03 0.04 -0.06 12954
0.06 0.31 0.38 -0.86 9.79 -0.03 0.04 -0.05 12961
0.06 0.32 0.44 -0.82 9.82 -0.07 0.04 -0.06 12968
0.04 0.35 0.39 -0.80 9.80 -0.03 0.04 -0.05 12976
0.02 0.34 0.37 -0.79 9.76 -0.04 0.05 -0.05 12983
0.01 0.34 0.40 -0.79 9.85 -0.03 0.04 -0.05 12990
0.03 0.33 0.39 -0.80 10.40 -0.03 0.05 -0.05 12997
0.03 0.35 0.43 -0.76 9.82 -0.02 0.05 -0.05 13004
0.02 0.40 0.39 -0.81 9.82 -0.02 0.05 -0.05 13011
0.02 0.40 0.40 -0.81 9.78 -0.02 0.05 -0.04 13019
0.02 0.37 0.43 -0.80 9.81 -0.02 0.06 -0.04 13026
0.01 0.40 0.38 -0.80 9.78 -0.02 0.06 -0.05 13033
0.02 0.41 0.35 -0.78 9.78 -0.02 0.07 -0.04 13040
0.02 0.43 0.42 -0.74 9.76 -0.01 0.06 -0.05 13047
0.02 0.43 0.45 -0.79 9.80 -0.01 0.06 -0.05 13054
0.01 0.44 0.43 -0.77 9.81 -0.01 0.07 -0.05 13062
0.02 0.43 0.42 -0.79 9.75 -0.01 0.06 -0.05 13069
0.01 0.42 0.40 -0.80 9.83 -0.01 0.06 -0.05 13076
0.01 0.41 0.41 -0.79 9.81 -0.01 0.06 -0.05 13083
0.03 0.42 0.44 -0.78 9.82 -0.01 0.06 -0.05 13090
0.03 0.39 0.37 -0.77 9.77 -0.01 0.06 -0.05 13097
0.03 0.40 0.42 -0.82 9.82 -0.01 0.06 -0.05 13105
0.01 0.41 0.44 -0.79 9.82 -0.01 0.06 -0.05 13112
0.02 0.41 0.44 -0.78 9.82 -0.00 0.06 -0.05 13119
0.03 0.41 0.41 -0.77 10.41 -0.00 0.07 -0.05 13126
0.04 0.40 0.54 -0.85 9.81 -0.00 0.06 -0.06 13133
0.04 0.40 0.46 -0.79 9.79 -0.00 0.07 -0.06 13140
0.02 0.38 0.42 -0.78 9.78 -0.00 0.07 -0.06 13148
0.02 0.39 0.42 -0.76 9.77 -0.00 0.07 -0.05 13155
0.02 0.39 0.45 -0.76 9.82 -0.00 0.07 -0.05 13162
0.03 0.40 0.45 -0.77 9.80 -0.00 0.07 -0.05 13169
0.04 0.41 0.50 -0.77 9.81 -0.00 0.06 -0.05 13176
0.02 0.40 0.49 -0.78 9.81 -0.00 0.07 -0.05 13184
0.03 0.39 0.42 -0.79 9.79 -0.00 0.07 -0.05 13191
0.01 0.40 0.45 -0.79 9.81 -0.00 0.07 -0.05 13198
0.03 0.39 0.43 -0.78 9.80 -0.00 0.06 -0.06 13205
0.03 0.40 0.44 -0.79 9.81 -0.00 0.07 -0.05 13212
0.03 0.40 0.46 -0.77 9.82 -0.01 0.06 -0.06 13219
0.03 0.38 0.48 -0.77 9.81 -0.01 0.06 -0.05 13227
0.03 0.37 0.45 -0.79 9.80 -0.01 0.06 -0.05 13234
0.02 0.37 0.50 -0.78 9.79 -0.00 0.06 -0.05 13241
0.02 0.37 0.49 -0.79 9.80 -0.01 0.06 -0.05 13248
0.03 0.37 0.48 -0.79 10.42 -0.00 0.05 -0.05 13255
0.04 0.36 0.47 -0.79 9.79 -0.00 0.05 -0.05 13262
0.04 0.36 0.42 -0.81 9.76 -0.00 0.06 -0.05 13270
0.04 0.36 0.46 -0.79 9.79 -0.00 0.05 -0.05 13277
0.03 0.37 0.49 -0.78 9.79 -0.00 0.05 -0.05 13284
0.03 0.37 0.47 -0.75 9.80 -0.00 0.05 -0.05 13291
0.06 0.36 0.46 -0.76 9.81 0.00 0.05 -0.05 13298
0.05 0.36 0.49 -0.81 9.79 0.00 0.05 -0.05 13305
0.05 0.34 0.45 -0.80 9.78 0.00 0.05 -0.05 13313
0.04 0.35 0.51 -0.77 9.83 -0.03 0.05 -0.05 13320
0.04 0.35 0.49 -0.79 9.74 0.00 0.05 -0.05 13327
0.04 0.36 0.49 -0.79 9.79 -0.00 0.05 -0.05 13334
0.05 0.35 0.46 -0.77 9.79 -0.00 0.04 -0.05 13341
0.05 0.34 0.50 -0.78 9.75 -0.00 0.04 -0.05 13348
0.05 0.34 0.46 -0.80 9.80 -0.00 0.04 -0.05 13356
0.04 0.34 0.47 -0.81 9.78 -0.00 0.05 -0.05 13363
0.05 0.34 0.49 -0.79 9.79 -0.00 0.05 -0.05 13370
0.06 0.35 0.48 -0.80 9.81 0.00 0.05 -0.05 13377
0.06 0.34 0.47 -0.79 9.81 -0.00 0.04 -0.06 13384
0.04 0.34 0.48 -0.81 9.79 -0.00 0.04 -0.06 13391
0.04 0.34 0.50 -0.79 9.73 -0.00 0.04 -0.06 13399
0.03 0.34 0.50 -0.77 9.79 -0.00 0.04 -0.06 13406
0.04 0.33 0.48 -0.76 9.78 -0.00 0.04 -0.05 13413
0.04 0.34 0.46 -0.80 9.77 -0.00 0.04 -0.05 13420
0.05 0.33 0.46 -0.80 9.77 -0.00 0.04 -0.05 13427
0.04 0.33 0.47 -0.80 9.77 -0.00 0.04 -0.06 13434
0.03 0.32 0.46 -0.80 9.82 -0.00 0.04 -0.06 13442
0.02 0.33 0.48 -0.78 9.75 -0.00 0.04 -0.05 13449
0.04 0.32 0.47 -0.79 9.80 -0.01 0.04 -0.05 13456
0.04 0.33 0.49 -0.82 9.80 -0.00 0.04 -0.05 13463
0.05 0.32 0.47 -0.79 9.73 -0.00 0.04 -0.05 13470
0.04 0.32 0.49 -0.78 9.75 -0.00 0.03 -0.06 13477
0.04 0.30 0.48 -0.80 9.85 -0.00 0.02 -0.06 13485
0.04 0.31 0.47 -0.84 9.81 -0.00 0.02 -0.06 13492
0.05 0.31 0.50 -0.81 9.76 -0.01 0.02 -0.06 13499
0.06 0.31 0.46 -0.80 9.76 -0.00 0.02 -0.06 13506
0.05 0.30 0.50 -0.79 9.80 -0.00 0.02 -0.06 13513
0.05 0.29 0.47 -0.77 9.81 -0.00 0.02 -0.06 13520
0.05 0.30 0.45 -0.81 9.81 -0.00 0.02 -0.06 13528
0.05 0.30 0.48 -0.79 9.77 -0.00 0.02 -0.06 13535
0.05 0.30 0.46 -0.78 9.79 -0.00 0.03 -0.06 13542
0.06 0.29 0.45 -0.82 9.78 -0.00 0.03 -0.06 13549
0.05 0.28 0.46 -0.80 9.78 -0.00 0.03 -0.06 13556
0.05 0.27 0.44 -0.80 9.82 -0.00 0.03 -0.06 13563
0.04 0.27 0.46 -0.84 9.80 -0.00 0.03 -0.06 13571
0.05 0.26 0.46 -0.79 9.81 -0.00 0.03 -0.06 13578
0.05 0.27 0.47 -0.81 9.80 0.00 0.03 -0.06 13585
0.06 0.26 0.42 -0.80 9.80 -0.00 0.03 -0.06 13592
0.05 0.25 0.44 -0.81 9.79 0.00 0.03 -0.06 13599
0.06 0.24 0.46 -0.82 9.20 0.00 0.04 -0.06 13606
0.04 0.24 0.46 -0.78 9.77 0.00 0.03 -0.06 13614
0.05 0.24 0.46 -0.78 9.80 0.00 0.04 -0.06 13621
0.05 0.24 0.45 -0.80 9.80 0.00 0.04 -0.06 13628
0.06 0.26 0.44 -0.81 9.74 0.01 0.04 -0.06 13635
0.05 0.24 0.43 -0.82 10.40 0.01 0.04 -0.06 13642
0.06 0.18 0.45 -0.81 9.80 0.00 0.04 -0.06 13649
0.06 0.17 0.50 -0.81 9.81 0.01 0.05 -0.06 13657
0.07 0.20 0.46 -0.81 9.79 0.01 0.05 -0.06 13664
0.07 0.22 0.46 -0.82 9.78 0.01 0.05 -0.06 13671
0.07 0.22 0.44 -0.80 9.82 0.01 0.05 -0.06 13678
0.06 0.18 0.47 -0.80 9.80 0.01 0.05 -0.07 13685
0.07 0.11 0.47 -0.82 9.81 0.01 0.05 -0.06 13692
0.07 0.14 0.46 -0.80 9.78 0.01 0.05 -0.06 13700
0.08 0.16 0.46 -0.81 9.82 0.01 0.05 -0.06 13707
0.09 0.12 0.47 -0.82 9.84 0.01 0.05 -0.06 13714
0.08 0.09 0.43 -0.81 9.79 0.02 0.05 -0.06 13721
0.08 0.11 0.51 -0.85 9.78 0.02 0.06 -0.06 13728
0.07 0.11 0.46 -0.83 9.80 0.02 0.06 -0.06 13735
0.08 0.10 0.46 -0.81 9.79 0.02 0.06 -0.06 13743
0.10 0.08 0.48 -0.85 9.81 0.02 0.06 -0.06 13750
0.13 0.00 0.49 -0.82 9.81 0.02 0.06 -0.06 13757
0.10 0.04 0.47 -0.86 9.80 0.02 0.06 -0.06 13764
0.09 0.02 0.49 -0.85 9.20 0.02 0.06 -0.06 13771
0.11 0.00 0.46 -0.85 9.79 0.03 0.07 -0.06 13778
0.13 0.01 0.46 -0.85 9.79 0.03 0.07 -0.06 13786
0.12 0.01 0.49 -0.88 9.81 0.03 0.07 -0.07 13793
0.13 0.00 0.51 -0.87 9.78 0.02 0.07 -0.06 13800
0.12 -0.01 0.47 -0.84 9.78 0.03 0.08 -0.06 13807
0.11 -0.01 0.50 -0.85 9.81 0.04 0.08 -0.06 13814
0.10 -0.01 0.46 -0.89 9.85 0.04 0.09 -0.06 13821
0.12 -0.01 0.47 -0.91 9.83 0.05 0.10 -0.06 13829
0.13 -0.00 0.47 -0.93 9.83 0.07 0.11 -0.06 13836
0.15 -0.01 0.51 -0.88 9.85 0.08 0.12 -0.06 13843
0.16 -0.01 0.51 -0.81 9.86 0.10 0.15 -0.06 13850
0.16 -0.02 0.06 -0.94 9.89 0.13 0.18 -0.06 13857
0.16 -0.02 0.59 -0.93 9.90 0.16 0.21 -0.06 13864
0.17 -0.01 0.55 -0.91 9.95 0.23 0.24 -0.06 13872
0.19 -0.01 0.78 -0.90 10.08 0.24 0.27 -0.07 13879
0.18 -0.01 0.66 -0.92 10.10 0.30 0.30 -0.07 13886
0.19 -0.01 0.64 -0.98 10.21 0.37 0.32 -0.08 13893
0.18 -0.02 0.66 -0.97 10.32 0.49 0.33 -0.09 13900
0.19 -0.01 0.72 -1.08 10.36 0.61 0.34 -0.10 13908
0.21 -0.01 0.80 -1.14 10.53 0.73 0.32 -0.10 13916
0.21 -0.02 0.81 -1.22 10.74 0.85 0.29 -0.11 13923
0.20 -0.02 0.76 -1.28 10.68 0.91 0.23 -0.12 13929
0.19 -0.02 0.72 -1.38 10.83 0.98 0.19 -0.13 13936
0.17 -0.02 0.81 -1.40 10.60 1.03 0.14 -0.13 13943
0.16 -0.01 0.73 -1.55 10.46 1.03 0.10 -0.13 13952
0.15 -0.00 0.85 -1.62 10.46 1.06 0.06 -0.13 13959
0.17 -0.02 0.78 -1.69 10.53 1.09 0.04 -0.13 13965
0.16 -0.02 0.85 -1.74 10.33 1.13 0.03 -0.17 13972
0.17 -0.02 0.82 -1.86 10.36 1.15 0.02 -0.14 13979
0.15 -0.02 0.84 -1.94 10.15 1.17 0.01 -0.14 13986
0.15 -0.01 0.75 -1.92 10.03 1.17 -0.05 -0.14 13995
0.15 -0.01 0.84 -2.11 10.18 1.19 -0.00 -0.15 14002
0.15 -0.02 0.76 -2.25 10.21 1.23 -0.03 -0.15 14008
0.12 -0.01 0.99 -2.31 10.17 1.26 -0.03 -0.15 14015
0.11 -0.01 0.87 -2.37 10.04 1.28 -0.05 -0.16 14022
0.09 -0.01 0.90 -2.54 10.16 1.30 -0.07 -0.16 14029
0.11 -0.01 0.85 -2.70 10.14 1.33 -0.08 -0.17 14036
0.07 -0.01 0.87 -2.73 10.33 1.36 -0.10 -0.18 14044
0.05 -0.00 0.88 -2.85 10.82 1.39 -0.11 -0.19 14051
0.09 -0.01 0.96 -3.04 10.54 1.42 -0.12 -0.20 14058
0.07 -0.01 0.96 -3.20 10.56 1.47 -0.13 -0.21 14065
0.06 -0.01 1.03 -3.30 10.55 1.51 -0.13 -0.22 14072
0.04 -0.00 1.02 -3.43 10.72 1.56 -0.12 -0.23 14080
0.04 -0.00 1.11 -3.60 10.86 1.60 -0.10 -0.25 14087
0.03 -0.00 1.14 -3.73 10.88 1.63 -0.07 -0.26 14094
0.03 -0.00 1.31 -3.92 11.28 1.67 -0.03 -0.26 14101
0.03 -0.00 1.28 -4.07 11.40 1.71 0.04 -0.29 14108
0.02 -0.00 1.38 -4.20 11.38 1.73 0.13 -0.30 14115
0.01 -0.00 1.37 -4.25 11.42 1.76 0.17 -0.32 14123
0.02 -0.00 1.34 -4.24 11.51 1.76 0.21 -0.35 14130
0.00 0.00 1.15 -4.39 11.34 1.74 0.23 -0.36 14137
0.00 0.00 1.01 -4.34 11.12 1.72 0.24 -0.37 14144
0.00 0.00 0.86 -4.33 10.68 1.70 0.22 -0.39 14151
0.00 0.00 0.65 -4.48 10.36 1.63 0.15 -0.40 14158
0.00 0.00 0.63 -4.70 10.31 1.59 0.08 -0.40 14166
0.00 -0.00 0.59 -4.91 9.81 1.56 0.03 -0.41 14173
0.00 0.00 0.51 -4.56 9.38 1.54 -0.03 -0.42 14180
0.00 0.00 0.60 -4.30 8.56 1.50 -0.08 -0.42 14187
0.00 0.00 0.55 -4.25 7.94 1.44 -0.14 -0.43 14194
0.00 0.00 0.65 -4.36 7.34 1.38 -0.22 -0.43 14201
0.00 -0.00 0.68 -3.92 7.28 1.35 -0.28 -0.45 14209
0.01 -0.00 0.69 -4.36 7.06 1.33 -0.32 -0.46 14216
0.00 -0.00 0.63 -4.23 7.31 1.31 -0.36 -0.46 14223
0.00 -0.00 0.44 -4.36 7.64 1.28 -0.37 -0.45 14230
0.00 0.00 0.53 -3.86 7.79 1.24 -0.37 -0.45 14237
0.00 0.00 0.54 -3.61 7.62 1.15 -0.36 -0.43 14244
0.00 0.00 0.61 -2.41 7.44 1.02 -0.33 -0.43 14252
0.00 0.00 0.68 -1.70 7.21 0.87 -0.28 -0.43 14259
0.00 0.00 0.85 -0.26 7.04 0.67 -0.21 -0.44 14266
0.00 0.00 1.18 0.83 7.23 0.42 -0.11 -0.43 14273
0.00 0.00 0.96 1.98 7.33 0.20 -0.05 -0.42 14280
0.00 0.00 0.62 1.37 7.53 -0.05 0.01 -0.41 14287
0.01 -0.00 0.43 0.97 7.70 -0.26 0.02 -0.39 14295
0.00 0.00 0.38 -0.34 7.69 -0.40 0.00 -0.36 14302
0.00 0.00 0.15 -0.71 7.82 -0.50 -0.04 -0.31 14309
0.00 0.00 0.06 -0.45 7.61 -0.52 -0.07 -0.25 14316
0.00 0.00 0.23 -0.26 7.42 -0.52 -0.15 -0.20 14323
-0.00 0.00 0.57 -0.02 7.47 -0.53 -0.23 -0.14 14330
0.00 0.00 0.87 0.13 7.69 -0.59 -0.26 -0.09 14338
0.00 0.00 1.14 0.09 8.07 -0.70 -0.24 -0.03 14345
0.00 0.00 1.33 -0.06 8.34 -0.81 -0.20 0.02 14352
0.00 0.00 1.37 -0.28 8.44 -0.93 -0.14 0.05 14359
0.00 0.00 1.30 -0.59 8.41 -1.03 -0.08 0.08 14366
0.00 0.00 0.63 -0.92 8.30 -1.09 -0.05 0.10 14373
0.00 -0.00 1.09 -1.20 8.22 -1.13 -0.02 0.11 14381
0.00 0.00 1.16 -1.52 8.46 -1.15 0.00 0.11 14388
0.00 0.00 1.19 -1.71 8.69 -1.17 0.03 0.12 14395
0.00 0.00 1.31 -1.84 8.77 -1.19 0.06 0.11 14402
0.00 0.00 1.37 -1.97 9.24 -1.22 0.10 0.11 14409
0.00 0.00 1.25 -2.89 9.66 -1.29 0.16 0.11 14416
0.00 0.00 0.89 -3.74 9.89 -1.37 0.22 0.10 14424
0.00 0.00 0.58 -2.75 9.99 -1.46 0.28 0.07 14431
0.00 0.00 0.78 -2.29 9.58 -1.57 0.31 0.07 14438
0.00 0.00 0.30 -5.19 9.97 -1.57 0.31 0.04 14445
0.00 0.00 -0.06 -4.55 9.50 -1.60 0.32 0.02 14452
0.00 0.00 0.96 -2.53 10.59 -1.59 0.33 0.03 14459
0.00 0.00 0.83 -5.81 7.07 -1.56 0.33 0.03 14467
0.00 0.00 0.34 -4.76 10.95 -1.53 0.34 0.05 14474
0.00 0.00 0.03 -3.70 9.29 -1.50 0.33 0.08 14481
0.00 0.00 0.84 -4.62 9.29 -1.40 0.31 0.10 14488
0.00 0.00 0.72 -3.46 8.92 -1.40 0.28 0.12 14495
0.00 0.00 0.12 -4.03 8.81 -1.34 0.26 0.13 14502
0.00 0.00 0.17 -4.05 10.22 -1.28 0.22 0.13 14510
0.00 0.00 0.72 -3.76 8.94 -1.23 0.19 0.14 14517
0.00 0.00 0.01 -4.33 9.70 -1.20 0.20 0.13 14524
0.00 0.00 0.35 -4.58 10.26 -1.18 0.21 0.12 14531
0.00 0.00 -0.28 -5.54 10.32 -1.12 0.17 0.08 14538
0.00 0.00 0.02 -2.95 12.32 -1.19 0.16 0.07 14545
0.00 0.00 -0.68 -5.63 8.82 -1.12 0.07 0.05 14553
0.00 0.00 0.91 -4.60 10.36 -1.16 0.06 0.05 14560
0.00 0.00 -0.08 -5.11 11.59 -1.12 0.02 0.05 14567
0.00 0.00 0.08 -4.99 11.23 -1.14 0.02 0.05 14574
0.00 0.00 1.03 -3.27 9.49 -1.11 -0.00 0.06 14581
0.00 -0.00 0.88 -3.15 9.88 -1.12 0.03 0.07 14588
0.00 0.00 0.02 -4.23 10.30 -1.13 0.07 0.09 14596
0.00 0.00 0.17 -3.67 9.37 -1.10 0.13 0.11 14603
0.00 0.00 1.42 -2.31 9.70 -1.09 0.15 0.15 14610
0.00 0.00 0.97 -1.96 11.43 -1.10 0.16 0.19 14617
0.00 0.00 0.19 -2.32 9.97 -1.09 0.15 0.24 14624
0.00 -0.00 0.71 -2.51 9.83 -1.09 0.11 0.28 14631
0.00 0.00 0.98 -2.37 10.68 -1.09 0.10 0.33 14639
0.00 0.00 1.27 -2.41 10.48 -1.10 0.12 0.38 14646
0.00 0.00 1.38 -2.40 10.50 -1.10 0.15 0.41 14653
0.00 0.00 1.49 -2.40 10.41 -1.09 0.18 0.43 14660
0.00 0.00 1.52 -2.35 10.28 -1.07 0.21 0.44 14667
0.00 0.00 1.44 -2.37 10.15 -1.03 0.24 0.44 14674
0.00 0.00 1.33 -2.40 10.11 -1.00 0.27 0.43 14682
0.00 0.00 1.18 -2.39 10.19 -0.94 0.27 0.43 14689
0.00 0.00 0.95 -2.43 10.13 -0.88 0.26 0.41 14696
0.00 0.00 0.91 -2.51 10.30 -0.83 0.24 0.41 14703
0.00 -0.00 0.85 -2.58 10.49 -0.79 0.22 0.39 14710
0.00 0.00 0.85 -2.56 10.60 -0.77 0.21 0.37 14717
0.00 0.00 0.84 -2.57 10.64 -0.76 0.22 0.35 14725
0.00 0.00 0.91 -2.57 10.54 -0.77 0.23 0.33 14732
0.00 0.00 0.94 -2.64 10.50 -0.78 0.26 0.30 14739
0.00 0.00 0.95 -2.70 10.47 -0.78 0.30 0.27 14746
0.00 -0.00 0.99 -2.82 10.35 -0.77 0.36 0.24 14753
0.00 0.00 0.91 -2.96 10.14 -0.77 0.41 0.20 14760
0.00 0.00 0.83 -3.08 10.03 -0.74 0.46 0.18 14768
0.00 0.00 0.67 -3.26 9.96 -0.71 0.48 0.15 14775
0.00 0.00 0.45 -3.55 9.93 -0.66 0.47 0.14 14782
0.00 0.00 -0.19 -4.30 10.19 -0.59 0.41 0.14 14789
0.00 -0.00 -0.61 -4.81 10.66 -0.49 0.23 0.13 14796
0.00 0.00 -0.52 -4.08 9.33 -0.40 0.13 0.13 14803
0.00 0.00 -0.65 -4.82 9.13 -0.35 0.03 0.15 14811
0.00 0.00 -0.85 -5.74 9.46 -0.31 -0.05 0.15 14818
0.00 0.00 -0.77 -6.61 9.58 -0.24 -0.16 0.13 14825
0.00 0.00 -0.53 -6.37 8.71 -0.18 -0.21 0.11 14832
0.00 0.00 -0.31 -7.15 8.61 -0.10 -0.21 0.11 14839
0.00 0.00 -0.34 -7.17 8.65 0.01 -0.16 0.11 14846
0.00 0.00 -0.71 -8.45 8.13 0.07 -0.13 0.11 14854
0.00 0.00 -0.73 -9.06 7.37 0.21 -0.14 0.12 14861
0.00 0.00 -1.87 -8.35 8.19 0.39 -0.25 0.11 14868
0.00 0.00 -1.89 -10.46 7.28 0.51 -0.28 0.10 14875
0.00 0.00 -1.69 -10.82 7.04 0.74 -0.36 0.07 14882
0.00 0.00 -2.87 -12.86 7.01 0.88 -0.44 0.03 14889
0.00 0.00 -2.54 -14.22 9.45 1.08 -0.57 -0.01 14897
0.00 0.00 -0.96 -3.75 19.51 0.44 -1.15 -0.17 14904
-0.00 0.00 -0.21 -3.09 10.85 -0.10 -0.23 -0.02 14911
-0.00 0.01 0.18 -1.53 9.64 -0.25 0.12 0.02 14918
-0.00 0.03 0.40 -0.81 9.82 -0.28 0.10 0.00 14925
-0.01 0.07 0.78 -0.56 9.75 -0.23 0.03 -0.03 14932
-0.01 0.08 0.77 -0.49 9.93 -0.14 -0.06 -0.05 14940
-0.01 0.14 0.71 -0.61 9.96 -0.12 -0.05 -0.07 14947
-0.01 0.17 0.52 -0.69 9.97 -0.10 -0.01 -0.07 14954
-0.00 0.18 0.39 -1.00 10.05 -0.08 0.02 -0.07 14961
-0.02 0.21 0.24 -1.07 10.06 -0.06 0.05 -0.05 14968
-0.02 0.22 0.21 -0.97 9.94 -0.05 0.06 -0.04 14976
0.00 0.25 0.33 -0.87 9.83 -0.05 0.08 -0.04 14983
0.01 0.26 0.42 -0.84 9.91 -0.04 0.10 -0.04 14990
0.01 0.27 0.43 -0.80 9.85 -0.03 0.10 -0.04 14997
0.02 0.25 0.44 -0.80 9.80 -0.03 0.09 -0.04 15004
0.01 0.25 0.47 -0.83 9.81 -0.02 0.09 -0.04 15011
0.02 0.24 0.43 -0.80 9.75 -0.03 0.08 -0.04 15019
0.00 0.25 0.47 -0.79 9.75 -0.03 0.08 -0.04 15026
0.02 0.26 0.46 -0.77 9.81 -0.03 0.07 -0.04 15033
0.01 0.27 0.44 -0.79 9.76 -0.04 0.07 -0.04 15040
0.02 0.28 0.52 -0.80 9.81 -0.04 0.07 -0.04 15047
0.01 0.29 0.48 -0.80 9.81 -0.04 0.06 -0.04 15054
0.02 0.27 0.44 -0.74 9.84 -0.04 0.06 -0.05 15062
-0.00 0.31 0.47 -0.77 9.80 -0.04 0.05 -0.05 15069
0.01 0.33 0.47 -0.78 9.81 -0.05 0.05 -0.05 15076
0.00 0.41 0.43 -0.68 9.81 -0.05 0.06 -0.05 15083
0.01 0.42 0.46 -0.76 9.87 -0.04 0.07 -0.05 15090
-0.00 0.41 0.50 -0.79 9.71 -0.05 0.07 -0.05 15097
-0.01 0.37 0.47 -0.77 9.81 -0.05 0.08 -0.04 15105
-0.02 0.43 0.45 -0.72 9.85 -0.05 0.09 -0.04 15112
-0.03 0.44 0.50 -0.75 9.20 -0.04 0.10 -0.04 15119
-0.02 0.50 0.53 -0.74 9.82 -0.04 0.10 -0.04 15126
-0.02 0.49 0.48 -0.73 9.79 -0.04 0.10 -0.04 15133
-0.04 0.46 0.56 -0.81 9.78 -0.04 0.10 -0.04 15140
-0.04 0.49 0.47 -0.80 9.89 -0.03 0.09 -0.04 15148
-0.04 0.50 0.49 -0.73 9.81 -0.03 0.09 -0.04 15155
-0.04 0.56 0.42 -0.70 9.83 -0.03 0.09 -0.04 15162
-0.03 0.61 0.59 -0.74 9.75 -0.03 0.09 -0.04 15169
-0.04 0.61 0.53 -0.70 9.72 -0.02 0.09 -0.04 15176
-0.04 0.60 0.46 -0.73 9.85 -0.02 0.09 -0.04 15183
-0.05 0.66 0.56 -0.66 9.71 -0.03 0.08 -0.04 15191
-0.04 0.64 0.60 -0.75 9.81 -0.02 0.08 -0.04 15198
-0.04 0.68 0.08 -0.64 9.83 -0.02 0.08 -0.04 15205
-0.03 0.68 0.57 -0.73 9.78 -0.01 0.07 -0.04 15212
-0.04 0.69 0.53 -0.71 9.81 -0.01 0.07 -0.04 15219
-0.05 0.70 0.58 -0.72 9.82 -0.01 0.06 -0.04 15226
-0.05 0.69 0.51 -0.68 9.79 -0.01 0.05 -0.05 15234
-0.06 0.72 0.54 -0.72 9.77 -0.01 0.05 -0.05 15241
-0.05 0.72 0.54 -0.68 9.76 -0.01 0.04 -0.04 15248
-0.03 0.69 0.51 -0.68 9.65 0.03 0.04 -0.04 15255
-0.02 0.70 0.50 -0.68 9.82 -0.00 0.04 -0.04 15262
-0.02 0.67 0.51 -0.71 9.82 -0.00 0.04 -0.05 15269
-0.01 0.67 0.55 -0.67 9.83 0.00 0.04 -0.05 15277
0.01 0.67 0.53 -0.74 9.20 0.00 0.05 -0.05 15284
0.01 0.66 0.51 -0.74 9.83 -0.00 0.05 -0.05 15291
0.02 0.64 0.50 -0.73 9.81 -0.01 0.07 -0.04 15298
0.01 0.64 0.63 -0.74 9.70 -0.00 0.08 -0.05 15305
0.01 0.63 0.47 -0.74 9.82 -0.00 0.08 -0.05 15312
0.00 0.62 0.53 -0.69 9.79 -0.01 0.09 -0.05 15320
0.01 0.61 0.53 -0.68 9.75 -0.01 0.09 -0.04 15327
0.03 0.61 0.61 -0.67 9.77 -0.01 0.07 -0.04 15334
0.02 0.60 0.53 -0.70 9.81 -0.00 0.11 -0.04 15341
0.02 0.59 0.57 -0.69 9.77 -0.01 0.11 -0.05 15348
0.01 0.57 0.45 -0.62 9.81 -0.01 0.11 -0.05 15355
0.01 0.57 0.59 -0.72 9.75 -0.00 0.11 -0.04 15363
0.03 0.56 0.57 -0.67 9.77 -0.00 0.12 -0.04 15370
0.02 0.56 0.58 -0.71 10.37 0.00 0.12 -0.04 15377
0.02 0.54 0.59 -0.74 9.78 0.00 0.12 -0.04 15384
0.02 0.53 0.49 -0.74 9.83 0.00 0.12 -0.04 15391
0.01 0.51 0.85 -0.72 9.70 0.01 0.11 -0.04 15398
0.02 0.52 0.67 -0.77 9.82 0.00 0.12 -0.04 15406
0.02 0.54 0.62 -0.73 9.82 0.00 0.12 -0.04 15413
0.03 0.53 0.59 -0.75 9.81 0.00 0.12 -0.04 15420
0.02 0.52 0.69 -0.70 9.80 0.00 0.12 -0.04 15427
0.02 0.50 0.66 -0.72 9.80 0.01 0.11 -0.04 15434
0.01 0.48 0.65 -0.75 9.82 0.00 0.12 -0.05 15441
0.03 0.47 0.66 -0.72 9.67 0.00 0.11 -0.05 15449
0.02 0.48 0.67 -0.71 9.80 -0.00 0.11 -0.04 15456
0.03 0.46 1.11 -0.73 9.78 0.00 0.11 -0.04 15463
0.02 0.43 0.69 -0.72 9.80 0.00 0.11 -0.05 15470
0.03 0.39 0.67 -0.69 9.81 0.00 0.11 -0.05 15477
-0.00 0.39 0.56 -1.21 9.81 0.01 0.11 -0.05 15484
0.01 0.39 0.73 -0.71 9.76 0.01 0.11 -0.05 15492
0.02 0.41 0.73 -0.72 9.73 0.01 0.10 -0.05 15499
0.03 0.38 0.68 -0.72 9.72 0.01 0.10 -0.05 15506
0.01 0.38 0.70 -0.72 9.72 0.01 0.10 -0.05 15513
-0.01 0.36 0.71 -0.74 9.81 0.01 0.10 -0.05 15520
-0.01 0.36 0.70 -0.74 9.83 0.00 0.10 -0.05 15527
0.02 0.35 0.72 -0.75 9.82 0.00 0.10 -0.05 15535
0.03 0.37 0.61 -0.71 9.81 0.00 0.10 -0.05 15542
0.01 0.38 0.76 -0.75 9.79 0.00 0.10 -0.05 15549
-0.01 0.37 0.92 -0.74 9.73 0.01 0.09 -0.06 15556
-0.01 0.33 0.75 -0.74 9.78 0.01 0.09 -0.05 15563
-0.01 0.34 0.74 -0.77 9.73 0.00 0.08 -0.05 15570
-0.01 0.33 0.74 -0.74 9.79 0.00 0.08 -0.05 15578
0.00 0.30 0.78 -0.74 9.78 0.00 0.07 -0.05 15585
-0.01 0.27 0.75 -0.73 9.74 0.00 0.07 -0.06 15592
-0.00 0.24 0.75 -0.70 9.74 0.00 0.07 -0.06 15599
-0.01 0.27 0.74 -0.71 9.80 0.00 0.07 -0.05 15606
-0.00 0.29 0.79 -0.74 9.78 0.00 0.06 -0.06 15613
-0.00 0.28 0.78 -0.73 9.77 0.01 0.06 -0.06 15621
0.01 0.26 0.76 -0.76 9.78 0.01 0.06 -0.06 15628
0.01 0.24 0.76 -0.74 9.80 0.01 0.05 -0.06 15635
-0.00 0.21 0.78 -0.72 9.78 0.01 0.05 -0.06 15642
-0.01 0.23 0.77 -0.74 9.80 0.01 0.04 -0.06 15649
-0.00 0.22 0.75 -0.74 9.77 0.00 0.05 -0.05 15656
0.01 0.23 0.78 -0.74 9.78 0.01 0.05 -0.06 15664
0.02 0.19 0.76 -0.75 9.78 0.00 0.04 -0.06 15671
0.01 0.21 0.76 -0.76 9.81 0.00 0.05 -0.06 15678
0.01 0.21 0.79 -0.78 9.77 0.00 0.04 -0.05 15685
-0.01 0.20 0.79 -0.75 9.80 0.01 0.04 -0.06 15692
0.01 0.20 0.77 -0.76 9.80 0.01 0.03 -0.06 15699
0.01 0.19 0.77 -0.72 9.77 0.01 0.03 -0.06 15707
0.02 0.17 0.76 -0.75 9.82 0.01 0.03 -0.06 15714
0.01 0.16 0.75 -0.74 9.78 0.01 0.03 -0.06 15721
0.01 0.14 0.75 -0.77 9.80 0.01 0.03 -0.06 15728
0.00 0.17 0.72 -0.73 9.81 0.00 0.03 -0.06 15735
0.01 0.15 0.75 -0.76 9.75 0.00 0.03 -0.06 15742
0.02 0.17 0.74 -0.78 9.77 -0.00 0.03 -0.06 15750
0.02 0.15 0.77 -0.75 9.80 0.00 0.03 -0.06 15757
0.02 0.13 0.78 -0.79 10.42 0.00 0.04 -0.06 15764
0.02 0.12 0.75 -0.74 9.81 -0.00 0.04 -0.06 15771
0.02 0.12 0.75 -0.74 9.79 -0.00 0.04 -0.06 15778
0.02 0.16 0.78 -0.75 9.76 -0.00 0.04 -0.06 15785
0.03 0.13 0.75 -0.76 9.75 0.00 0.04 -0.06 15793
0.03 0.14 0.81 -0.77 9.80 0.01 0.04 -0.06 15800
0.03 0.09 0.75 -0.75 9.79 0.01 0.04 -0.06 15807
0.01 0.07 0.75 -0.77 9.76 0.01 0.04 -0.06 15814
0.02 0.07 0.75 -0.78 9.81 0.00 0.04 -0.06 15821
0.03 0.08 0.78 -0.79 9.78 0.01 0.03 -0.06 15828
0.04 0.08 0.75 -0.79 9.77 0.00 0.04 -0.06 15836
0.02 0.07 0.75 -0.80 9.78 0.00 0.04 -0.06 15843
0.03 0.06 0.75 -0.75 9.79 -0.00 0.04 -0.06 15850
0.02 0.06 0.74 -0.80 9.78 0.00 0.04 -0.06 15857
0.02 0.05 0.74 -0.79 9.81 0.00 0.03 -0.06 15864
0.03 0.07 0.75 -0.80 9.77 0.00 0.03 -0.06 15872
0.04 0.07 0.76 -0.81 9.80 -0.00 0.03 -0.06 15879
0.05 0.06 0.79 -0.77 9.76 -0.00 0.02 -0.06 15886
0.05 0.02 0.74 -0.80 10.39 0.00 0.02 -0.06 15893
0.03 0.04 0.75 -0.78 9.80 -0.00 0.02 -0.06 15900
0.04 0.04 0.74 -0.79 9.81 -0.00 0.01 -0.06 15907
0.04 0.04 0.75 -0.81 9.78 -0.00 0.01 -0.06 15915
0.06 0.02 0.78 -0.81 9.74 0.00 0.01 -0.06 15922
0.05 0.02 0.76 -0.82 9.79 0.00 0.01 -0.06 15929
0.06 0.01 0.74 -0.80 9.81 0.00 0.01 -0.06 15936
0.07 0.02 0.71 -0.83 9.78 -0.00 0.00 -0.06 15943
0.05 0.03 0.71 -0.79 9.75 -0.00 0.01 -0.06 15950
0.06 0.06 0.72 -0.79 9.80 -0.00 0.01 -0.06 15958
0.06 0.05 0.75 -0.78 9.80 -0.00 0.01 -0.06 15965
0.07 0.06 0.73 -0.81 9.80 -0.00 -0.00 -0.06 15972
0.06 0.05 0.71 -0.80 9.81 -0.01 -0.01 -0.06 15979
0.06 0.05 0.74 -0.79 9.79 -0.00 -0.02 -0.06 15986
0.05 0.07 0.73 -0.80 9.78 -0.01 -0.03 -0.07 15993
0.08 0.07 0.73 -0.82 9.77 -0.01 -0.02 -0.06 16001
0.07 0.07 0.70 -0.80 9.78 -0.02 -0.01 -0.06 16008
0.07 0.07 0.69 -0.82 9.80 -0.01 0.00 -0.06 16015
0.05 0.07 0.68 -0.82 10.41 -0.02 0.02 -0.06 16022
0.06 0.08 0.71 -0.78 9.80 -0.01 0.03 -0.06 16029
0.07 0.09 0.69 -0.79 9.80 -0.01 0.03 -0.06 16036
0.07 0.08 0.67 -0.81 9.79 -0.00 0.04 -0.06 16044
0.08 0.08 0.70 -0.80 9.75 -0.00 0.04 -0.06 16051
0.08 0.06 0.70 -0.80 9.74 0.00 0.05 -0.06 16058
0.07 0.07 0.71 -0.81 9.80 0.00 0.05 -0.06 16065
0.09 0.03 0.74 -0.82 9.81 0.01 0.05 -0.06 16072
0.09 0.03 0.70 -0.82 9.82 0.01 0.05 -0.07 16079
0.09 0.04 0.70 -0.83 9.79 0.01 0.05 -0.06 16087
0.09 0.03 0.72 -0.79 9.76 0.01 0.05 -0.06 16094
0.11 0.01 0.66 -0.80 9.81 0.02 0.04 -0.06 16101
0.09 0.02 0.71 -0.80 9.81 0.02 0.05 -0.06 16108
0.10 -0.01 0.73 -0.82 9.83 0.03 0.05 -0.06 16115
0.11 -0.01 0.71 -0.80 9.83 0.05 0.05 -0.07 16122
0.12 -0.01 0.74 -0.84 9.85 0.06 0.05 -0.07 16130
0.12 -0.01 0.67 -0.80 9.85 0.08 0.06 -0.07 16137
0.11 -0.01 0.75 -0.85 9.85 0.09 0.07 -0.08 16144
0.13 -0.01 0.71 -0.83 9.87 0.12 0.09 -0.08 16151
0.12 -0.01 0.80 -0.89 9.98 0.16 0.12 -0.09 16158
0.13 -0.01 0.75 -0.82 10.11 0.20 0.15 -0.10 16165
0.12 -0.01 0.91 -0.89 10.06 0.27 0.19 -0.11 16173
0.11 -0.01 1.02 -0.90 10.25 0.35 0.23 -0.12 16180
0.10 -0.01 0.97 -0.90 10.94 0.48 0.25 -0.14 16187
0.10 -0.01 0.98 -0.97 10.55 0.64 0.26 -0.15 16195
0.13 -0.00 0.83 -1.12 10.92 0.80 0.25 -0.16 16202
0.15 -0.01 0.86 -1.26 10.93 0.98 0.22 -0.17 16209
0.16 -0.02 0.81 -1.29 11.02 1.08 0.16 -0.17 16216
0.16 -0.02 0.83 -1.34 10.95 1.12 0.10 -0.17 16223
0.16 -0.02 0.76 -1.44 10.58 1.13 0.03 -0.17 16230
0.15 -0.02 0.71 -1.51 10.59 1.13 -0.01 -0.16 16237
0.15 -0.00 0.77 -1.62 10.14 1.14 -0.04 -0.15 16245
0.14 -0.01 0.73 -1.69 10.06 1.14 -0.04 -0.14 16251
0.12 -0.01 0.80 -1.73 10.18 1.16 -0.03 -0.15 16259
0.13 -0.01 0.67 -1.92 10.10 1.19 -0.00 -0.14 16266
0.09 -0.01 0.72 -2.00 9.82 1.22 0.01 -0.14 16273
0.06 -0.01 0.78 -1.94 10.18 1.25 0.01 -0.14 16280
0.10 -0.01 0.74 -2.21 10.17 1.28 0.02 -0.14 16288
0.13 -0.01 0.84 -2.25 10.21 1.31 0.02 -0.14 16294
0.11 -0.01 0.87 -2.28 10.10 1.34 0.04 -0.14 16302
0.10 -0.01 0.91 -2.40 9.95 1.37 0.04 -0.14 16309
0.10 -0.01 1.04 -2.63 9.23 1.38 0.03 -0.15 16316
0.07 -0.01 0.71 -2.64 10.21 1.39 0.04 -0.14 16323
0.06 -0.01 0.78 -2.81 10.21 1.42 0.07 -0.14 16330
0.08 -0.01 0.69 -2.85 10.10 1.47 0.08 -0.13 16337
0.08 -0.01 0.74 -3.08 10.06 1.50 0.10 -0.12 16345
0.07 -0.01 0.89 -3.21 10.39 1.55 0.12 -0.11 16352
0.10 -0.01 0.76 -3.27 10.32 1.59 0.12 -0.11 16359
0.09 -0.01 0.78 -3.43 10.33 1.64 0.13 -0.11 16366
0.07 -0.01 0.93 -3.63 10.33 1.69 0.13 -0.12 16373
0.07 -0.01 0.97 -3.72 10.36 1.72 0.12 -0.12 16380
0.04 -0.00 1.03 -3.87 10.35 1.76 0.12 -0.13 16388
0.03 -0.00 1.07 -4.05 10.44 1.79 0.10 -0.14 16395
0.03 -0.00 1.14 -4.21 10.44 1.82 0.09 -0.15 16402
0.04 0.00 1.15 -4.44 10.54 1.85 0.09 -0.17 16409
0.07 -0.01 1.26 -4.63 10.63 1.86 0.09 -0.18 16416
0.04 -0.00 1.26 -4.79 10.70 1.87 0.09 -0.19 16423
0.04 -0.00 1.23 -4.87 10.76 1.87 0.12 -0.20 16431
0.02 -0.00 1.24 -5.06 10.94 1.86 0.15 -0.21 16438
0.03 -0.00 1.40 -5.16 11.12 1.83 0.17 -0.22 16445
0.03 -0.00 1.64 -5.26 11.09 1.80 0.20 -0.23 16452
0.03 -0.00 1.73 -5.32 11.16 1.75 0.23 -0.25 16459
0.02 -0.00 1.83 -5.07 11.24 1.71 0.31 -0.27 16466
0.00 0.00 1.66 -5.29 10.95 1.64 0.30 -0.31 16474
0.00 0.00 1.27 -5.69 10.63 1.55 0.25 -0.34 16481
0.00 0.00 0.95 -5.60 10.16 1.47 0.18 -0.36 16488
0.00 0.00 0.65 -5.50 9.23 1.42 0.10 -0.37 16495
0.01 -0.00 0.45 -5.24 8.21 1.36 0.02 -0.37 16502
0.01 -0.00 0.49 -4.36 6.82 1.29 -0.08 -0.37 16509
0.00 -0.00 0.72 -4.19 5.74 1.18 -0.16 -0.37 16517
0.00 0.00 0.97 -3.70 5.26 1.05 -0.27 -0.37 16524
0.00 -0.00 1.78 -4.07 5.13 0.96 -0.34 -0.39 16531
0.00 0.00 1.32 -3.10 5.56 0.89 -0.40 -0.41 16538
0.00 0.00 1.15 -3.60 5.67 0.85 -0.42 -0.44 16545
0.00 0.00 1.18 -3.45 6.10 0.81 -0.42 -0.44 16552
0.00 0.00 0.82 -2.93 6.47 0.76 -0.40 -0.43 16560
0.00 0.00 0.33 -2.67 6.42 0.70 -0.41 -0.42 16567
0.00 0.00 0.30 -1.99 7.19 0.57 -0.43 -0.43 16574
0.00 -0.00 1.22 0.62 7.42 0.39 -0.43 -0.40 16581
0.00 0.00 0.99 1.46 7.15 0.16 -0.37 -0.40 16588
0.00 0.00 1.20 1.19 7.26 -0.12 -0.27 -0.37 16595
0.00 0.00 1.14 1.20 7.73 -0.33 -0.17 -0.35 16603
0.00 0.00 1.31 1.40 7.74 -0.57 -0.09 -0.34 16610
0.00 0.00 0.73 0.33 7.33 -0.77 -0.05 -0.31 16617
0.00 0.00 0.37 -0.31 7.37 -0.88 -0.05 -0.27 16624
0.00 0.00 0.26 -0.56 7.34 -0.94 -0.08 -0.23 16631
0.00 0.00 0.17 -0.80 7.14 -0.93 -0.13 -0.17 16638
0.00 0.00 0.15 -1.09 7.01 -0.91 -0.18 -0.12 16646
0.00 0.00 0.32 -1.37 7.13 -0.88 -0.24 -0.06 16653
0.00 0.00 0.53 -1.48 7.37 -0.87 -0.27 -0.01 16660
0.00 0.00 0.67 -1.66 7.83 -0.87 -0.29 0.02 16667
0.00 0.00 0.42 -4.38 8.16 -0.89 -0.28 0.06 16674
0.00 0.00 0.28 -7.27 10.19 -0.88 -0.24 0.07 16681
0.00 0.00 1.05 -5.76 9.94 -0.89 -0.21 0.06 16689
0.00 0.00 0.62 -7.00 7.85 -0.89 -0.07 0.06 16696
0.00 0.00 -0.77 -12.32 8.95 -0.81 -0.09 0.03 16703
0.00 0.00 -0.63 -11.18 9.09 -0.84 -0.08 0.00 16710
0.00 0.00 2.61 -3.76 10.65 -0.82 -0.06 -0.02 16717
0.00 0.00 0.18 -13.34 5.95 -0.89 -0.01 -0.06 16724
0.00 0.00 -0.94 -6.25 12.39 -0.84 0.01 -0.05 16732
0.00 0.00 0.15 -8.90 7.00 -0.78 0.00 -0.10 16739
0.00 0.00 1.97 -7.00 7.81 -0.73 -0.01 -0.07 16746
0.00 0.00 0.95 -2.21 10.41 -0.78 0.05 -0.04 16753
0.00 0.00 0.14 -10.92 3.08 -0.71 -0.03 -0.09 16760
0.00 0.00 1.15 -2.55 10.29 -0.76 -0.02 -0.05 16768
0.00 0.00 1.13 -4.22 7.98 -0.71 -0.01 -0.09 16775
0.00 0.00 0.53 -4.40 7.92 -0.73 0.00 -0.10 16782
0.00 -0.00 0.47 -2.05 8.96 -0.73 0.06 -0.13 16789
0.00 0.00 0.64 -6.15 7.02 -0.71 0.08 -0.16 16796
0.00 0.00 1.26 -1.68 9.97 -0.74 0.16 -0.19 16803
0.00 0.00 0.50 -3.18 8.39 -0.73 0.19 -0.21 16811
0.00 0.00 0.28 -1.81 9.24 -0.76 0.23 -0.20 16818
0.00 0.00 0.15 -3.78 8.18 -0.77 0.24 -0.21 16825
0.00 0.00 -0.17 -3.35 9.47 -0.79 0.25 -0.20 16832
0.00 0.00 0.52 -1.05 9.84 -0.82 0.26 -0.19 16839
0.00 0.00 -0.37 -2.40 8.00 -0.88 0.22 -0.20 16846
0.00 0.00 0.00 -3.35 9.26 -0.93 0.19 -0.17 16854
0.00 0.00 0.41 -2.07 10.65 -0.94 0.20 -0.16 16861
0.00 0.00 0.39 -3.26 8.97 -0.97 0.18 -0.15 16868
0.00 0.00 0.26 -1.39 10.99 -1.00 0.19 -0.13 16875
0.00 0.00 0.46 -1.69 9.18 -1.02 0.20 -0.12 16882
0.00 0.00 0.96 -1.71 9.90 -1.04 0.23 -0.11 16889
0.00 0.00 0.72 -2.03 10.04 -1.08 0.26 -0.11 16897
0.00 0.00 1.11 -1.61 10.23 -1.11 0.29 -0.12 16904
0.00 0.00 0.80 -1.49 9.79 -1.16 0.30 -0.13 16911
0.00 0.00 0.84 -1.86 9.49 -1.17 0.29 -0.14 16918
0.00 0.00 0.84 -2.06 9.42 -1.16 0.27 -0.14 16925
0.00 0.00 0.92 -2.09 9.59 -1.15 0.26 -0.14 16932
0.00 0.00 0.99 -1.26 9.82 -1.14 0.27 -0.13 16940
0.00 0.00 1.13 -1.59 9.83 -1.14 0.30 -0.10 16947
0.00 0.00 1.22 -1.24 9.98 -1.16 0.36 -0.05 16954
0.00 0.00 1.25 -1.14 10.02 -1.19 0.37 -0.01 16961
0.00 0.00 1.32 -1.10 10.23 -1.23 0.42 0.04 16968
0.00 0.00 1.26 -1.04 10.16 -1.27 0.46 0.09 16975
0.00 0.00 1.12 -1.09 10.09 -1.30 0.47 0.13 16983
0.00 0.00 1.07 -1.17 10.06 -1.32 0.48 0.17 16990
0.00 0.00 1.01 -1.28 10.05 -1.34 0.47 0.20 16997
0.00 0.00 0.85 -1.32 10.02 -1.34 0.45 0.22 17004
0.00 0.00 0.82 -1.34 10.14 -1.33 0.43 0.25 17011
0.00 0.00 0.81 -1.41 10.28 -1.32 0.41 0.26 17018
0.00 0.00 0.88 -1.49 10.67 -1.31 0.40 0.27 17026
0.00 0.00 0.94 -1.49 10.82 -1.32 0.41 0.27 17033
0.00 0.00 0.84 -1.60 10.86 -1.33 0.44 0.26 17040
0.00 0.00 0.69 -1.76 10.89 -1.35 0.44 0.24 17047
0.00 0.00 0.61 -1.83 10.88 -1.37 0.43 0.21 17054
0.00 0.00 0.55 -2.13 10.80 -1.37 0.39 0.17 17061
0.00 0.00 0.56 -2.27 10.69 -1.35 0.35 0.13 17069
0.00 0.00 0.73 -2.48 10.59 -1.32 0.29 0.08 17076
0.00 0.00 0.92 -2.68 10.50 -1.29 0.26 0.04 17083
0.00 0.00 1.10 -2.81 10.35 -1.24 0.23 -0.00 17090
0.00 0.00 1.13 -2.95 10.20 -1.16 0.19 -0.04 17097
0.00 0.00 1.14 -3.09 10.15 -1.09 0.17 -0.07 17104
0.00 0.00 1.27 -3.14 10.19 -1.02 0.13 -0.09 17112
0.00 0.00 1.29 -3.16 10.22 -0.97 0.11 -0.10 17119
0.00 0.00 1.40 -3.18 10.33 -0.92 0.09 -0.11 17126
0.00 0.00 1.50 -3.14 10.27 -0.88 0.08 -0.11 17133
0.00 0.00 1.46 -3.83 10.53 -0.85 0.09 -0.11 17140
0.00 0.00 -0.67 -9.64 14.70 -0.67 -0.24 -0.14 17147
0.00 0.00 -1.75 -5.64 10.72 -0.36 -0.62 -0.22 17155
0.00 0.00 -0.25 -5.29 6.67 -0.26 -0.47 -0.17 17162
0.00 0.00 -0.20 -9.07 8.92 -0.16 -0.55 -0.12 17169
0.00 0.00 -0.16 -8.34 8.33 0.05 -0.52 -0.06 17176
0.00 0.00 -0.01 -7.71 6.76 0.31 -0.20 0.05 17183
0.00 0.00 -2.69 -9.81 6.05 0.63 -0.16 0.18 17190
0.00 0.00 -4.13 -11.39 7.34 0.89 -0.46 0.22 17198
0.00 -0.00 -7.95 -23.59 17.94 0.72 -1.22 0.11 17205
0.00 0.00 -5.07 -22.85 11.73 0.29 -0.63 -0.08 17212
0.00 0.00 -5.81 -24.27 7.00 -0.12 0.06 -0.07 17219
0.00 0.00 -4.01 -18.46 8.42 -0.23 0.09 -0.18 17226
-0.00 0.03 -0.26 -3.66 9.75 -0.24 0.12 -0.02 17233
-0.00 0.03 0.79 -0.49 9.84 -0.29 0.07 0.04 17241
0.03 0.04 0.87 0.00 9.48 -0.28 0.04 0.05 17248
0.02 0.05 0.79 -0.14 9.73 -0.23 0.00 -0.00 17255
0.02 0.09 0.57 -0.33 9.87 -0.17 -0.01 -0.06 17262
0.01 0.16 0.45 -0.78 9.81 -0.13 -0.01 -0.08 17269
-0.02 0.20 0.28 -1.05 10.04 -0.09 0.01 -0.07 17276
-0.01 0.23 0.12 -1.03 10.00 -0.06 0.03 -0.06 17284
-0.01 0.22 0.20 -0.87 9.93 -0.06 0.05 -0.05 17291
-0.01 0.22 0.26 -0.85 9.84 -0.05 0.07 -0.05 17298
-0.01 0.24 0.36 -0.86 9.81 -0.04 0.07 -0.05 17305
-0.02 0.27 0.35 -0.86 9.77 -0.03 0.08 -0.04 17312
-0.01 0.28 0.37 -0.84 9.81 -0.03 0.08 -0.04 17319
0.00 0.28 0.31 -0.81 9.79 -0.03 0.07 -0.05 17327
0.03 0.26 0.39 -0.85 9.79 -0.03 0.07 -0.04 17334
0.01 0.27 0.41 -0.86 9.80 -0.03 0.06 -0.04 17341
0.01 0.28 0.41 -0.83 9.75 -0.03 0.06 -0.05 17348
0.00 0.29 0.37 -0.85 9.72 -0.03 0.05 -0.04 17355
0.01 0.28 0.39 -0.81 9.81 -0.04 0.06 -0.04 17362
0.01 0.27 0.38 -0.82 9.79 -0.04 0.05 -0.05 17370
0.02 0.28 0.40 -0.84 9.79 -0.04 0.05 -0.04 17377
0.01 0.32 0.31 -0.82 9.80 -0.04 0.05 -0.05 17384
0.00 0.29 0.40 -0.78 9.82 -0.03 0.05 -0.05 17391
-0.00 0.30 0.40 -0.85 9.80 -0.03 0.06 -0.05 17398
0.01 0.33 0.40 -0.82 9.74 -0.03 0.05 -0.05 17405
0.02 0.33 0.43 -0.79 9.73 -0.03 0.06 -0.05 17413
0.02 0.35 0.38 -0.80 9.80 -0.03 0.06 -0.05 17420
0.00 0.40 0.54 -0.85 9.81 -0.04 0.07 -0.05 17427
0.01 0.41 0.40 -0.79 9.82 -0.03 0.07 -0.05 17434
-0.00 0.45 0.39 -0.81 9.82 -0.03 0.07 -0.05 17441
0.00 0.46 0.46 -0.84 9.81 -0.03 0.07 -0.05 17448
0.02 0.45 0.40 -0.80 9.80 -0.03 0.07 -0.04 17456
0.02 0.42 0.38 -0.83 9.81 -0.02 0.07 -0.05 17463
0.00 0.43 0.38 -0.77 9.74 -0.02 0.08 -0.05 17470
0.00 0.46 0.39 -0.80 9.81 -0.02 0.08 -0.05 17477
0.00 0.45 0.40 -0.81 9.79 -0.01 0.08 -0.05 17484
0.02 0.46 0.36 -0.79 9.79 -0.01 0.07 -0.04 17491
0.02 0.44 0.47 -0.79 9.80 -0.01 0.07 -0.04 17499
0.01 0.44 0.41 -0.77 9.81 -0.01 0.06 -0.05 17506
0.01 0.45 0.37 -0.80 9.76 -0.02 0.06 -0.05 17513
-0.00 0.46 0.42 -0.77 9.81 -0.02 0.05 -0.05 17520
0.01 0.49 0.45 -0.80 9.75 -0.02 0.05 -0.05 17527
0.01 0.48 0.38 -0.77 9.80 -0.02 0.05 -0.05 17534
0.02 0.44 0.37 -0.72 9.64 -0.02 0.05 -0.05 17542
0.01 0.45 0.40 -0.77 9.74 -0.01 0.06 -0.05 17549
0.01 0.47 0.38 -0.79 9.79 -0.01 0.06 -0.05 17556
0.00 0.47 0.43 -0.78 9.82 -0.01 0.07 -0.04 17563
0.01 0.47 0.42 -0.79 9.78 -0.01 0.07 -0.05 17570
0.01 0.49 0.42 -0.77 9.80 -0.01 0.07 -0.05 17577
0.01 0.47 0.42 -0.80 9.70 -0.00 0.07 -0.05 17585
-0.00 0.46 0.43 -0.77 9.81 -0.00 0.06 -0.05 17592
-0.00 0.46 0.46 -0.75 9.78 -0.00 0.07 -0.05 17599
-0.01 0.46 0.39 -0.80 9.78 -0.00 0.07 -0.05 17606
-0.00 0.45 0.46 -0.79 9.81 -0.00 0.07 -0.05 17613
0.02 0.46 0.41 -0.78 9.82 -0.01 0.08 -0.05 17620
0.02 0.45 0.39 -0.78 9.82 -0.00 0.09 -0.05 17628
0.00 0.44 0.35 -0.75 9.81 -0.01 0.09 -0.05 17635
0.01 0.43 0.44 -0.76 9.82 -0.01 0.10 -0.04 17642
-0.01 0.44 0.45 -0.79 9.79 -0.01 0.10 -0.04 17649
0.00 0.45 0.45 -0.80 9.81 -0.01 0.10 -0.04 17656
0.02 0.44 0.45 -0.79 9.78 -0.01 0.11 -0.05 17664
0.02 0.43 0.45 -0.76 9.78 -0.00 0.11 -0.04 17671
0.01 0.43 0.47 -0.76 9.85 -0.00 0.12 -0.04 17678
0.01 0.42 0.44 -0.79 9.81 -0.00 0.13 -0.04 17685
0.01 0.42 0.41 -0.75 9.81 -0.00 0.13 -0.04 17692
0.02 0.41 0.51 -0.81 9.78 -0.00 0.14 -0.04 17699
0.03 0.39 0.54 -0.78 9.81 -0.00 0.14 -0.04 17707
0.01 0.39 0.49 -0.82 9.73 0.00 0.15 -0.04 17714
