Voltage_01 Voltage_02 Acc_x Acc_y Acc_z Gyro_x Gyro_y Gyro_z Time
5000
0.05 0.26 0.48 -0.94 9.81 0.00 0.07 -0.05 24
0.05 0.23 0.49 -0.90 9.80 0.00 0.07 -0.05 31
0.04 0.20 0.48 -0.93 9.82 -0.00 0.07 -0.05 38
0.05 0.18 0.49 -0.89 9.76 0.00 0.07 -0.06 46
0.06 0.19 0.47 -0.92 9.82 0.00 0.07 -0.05 53
0.06 0.18 0.51 -0.91 9.75 0.01 0.06 -0.05 60
0.06 0.14 0.53 -0.92 9.78 0.00 0.06 -0.05 67
0.06 0.11 0.56 -0.91 9.80 0.01 0.06 -0.06 74
0.05 0.15 0.55 -0.91 9.79 0.01 0.05 -0.06 81
0.06 0.14 0.54 -0.93 9.79 0.01 0.05 -0.06 89
0.07 0.11 0.52 -0.93 9.76 0.01 0.04 -0.05 96
0.08 0.07 0.50 -0.93 9.73 0.01 0.04 -0.06 103
0.08 0.08 0.48 -0.93 9.82 0.01 0.05 -0.06 110
0.09 0.07 0.53 -0.97 9.82 0.02 0.05 -0.06 117
0.07 0.09 0.51 -0.96 9.77 0.02 0.05 -0.05 124
0.08 0.02 0.55 -0.94 9.81 0.02 0.07 -0.06 132
0.11 -0.01 0.51 -0.93 9.81 0.03 0.06 -0.06 139
0.10 0.00 0.52 -0.93 9.79 0.03 0.06 -0.05 146
0.11 -0.00 0.54 -0.96 9.81 0.04 0.07 -0.06 153
0.12 -0.01 0.57 -0.91 9.82 0.03 0.07 -0.06 160
0.12 -0.01 0.50 -0.94 9.81 0.04 0.07 -0.06 167
0.12 0.00 0.51 -0.98 9.82 0.05 0.06 -0.06 175
0.15 -0.01 0.54 -0.97 9.82 0.05 0.06 -0.06 182
0.17 -0.01 0.54 -1.00 9.80 0.06 0.06 -0.06 189
0.18 -0.02 0.54 -0.98 9.84 0.06 0.06 -0.06 196
0.17 -0.01 0.60 -1.04 9.82 0.06 0.06 -0.06 203
0.22 -0.01 0.52 -1.01 9.84 0.07 0.07 -0.06 210
0.21 -0.01 0.60 -1.03 9.83 0.08 0.07 -0.06 218
0.21 -0.02 0.27 -0.93 9.94 0.09 0.10 -0.07 225
0.21 -0.02 0.59 -1.05 9.89 0.11 0.17 -0.06 232
0.21 -0.02 0.46 -0.87 9.87 0.13 0.17 -0.07 239
0.24 -0.01 0.53 -1.04 9.82 0.16 0.20 -0.07 246
0.29 -0.01 0.68 -0.83 9.82 0.21 0.22 -0.08 253
0.30 -0.02 0.76 -1.15 10.25 0.36 0.29 -0.09 261
0.30 -0.03 0.52 -0.97 10.44 0.57 0.36 -0.09 268
0.33 -0.02 0.52 -1.04 11.35 0.87 0.39 -0.08 276
0.33 -0.03 0.82 -1.43 10.98 1.17 0.44 -0.08 283
0.33 -0.02 1.42 -1.79 12.34 1.35 0.52 -0.11 290
0.33 -0.01 0.74 -1.43 12.06 1.43 0.44 -0.12 297
0.34 -0.02 0.94 -1.31 10.84 1.53 0.40 -0.13 305
0.33 -0.02 1.18 -1.39 11.54 1.59 0.40 -0.14 312
0.28 -0.00 1.01 -1.84 11.56 1.74 0.39 -0.13 319
0.25 -0.02 0.53 -1.86 12.01 1.88 0.41 -0.13 326
0.23 -0.01 0.63 -1.81 11.80 2.01 0.45 -0.13 333
0.18 -0.01 0.67 -2.24 12.03 2.14 0.51 -0.11 340
0.14 -0.01 0.67 -2.36 11.79 2.21 0.60 -0.09 347
0.07 -0.01 0.52 -2.69 11.75 2.31 0.70 -0.06 354
0.06 -0.01 0.75 -2.74 11.54 2.41 0.83 -0.03 361
0.04 -0.00 0.52 -2.86 11.64 2.50 0.89 -0.00 368
0.04 -0.00 0.56 -3.15 11.74 2.60 0.96 0.04 375
0.04 -0.00 0.54 -3.37 11.64 2.62 1.04 0.09 382
0.06 -0.01 0.28 -3.89 11.82 2.67 1.17 0.15 390
0.06 -0.01 0.03 -4.51 12.15 2.70 1.29 0.23 397
0.06 -0.01 -0.63 -4.56 12.22 2.74 1.32 0.31 404
0.05 -0.00 -1.68 -4.36 12.50 2.76 1.25 0.46 411
0.04 -0.00 -2.50 -5.07 12.49 2.76 1.11 0.65 418
0.05 -0.01 -1.24 -6.08 12.78 2.75 0.89 0.80 425
0.03 -0.00 -0.23 -5.92 13.05 2.71 0.75 0.93 433
0.03 -0.00 0.30 -5.37 12.52 2.63 0.74 1.02 440
0.01 -0.00 -0.43 -4.35 12.88 2.41 0.73 1.07 447
0.01 -0.00 -0.82 -4.13 11.48 2.28 0.70 1.09 454
0.02 -0.00 -0.89 -4.00 12.14 2.20 0.52 1.10 461
0.02 -0.00 -0.40 -4.36 12.54 2.15 0.24 1.17 468
0.00 -0.00 -0.39 -4.01 12.38 2.11 -0.02 1.26 476
0.00 0.00 -0.41 -2.38 11.32 2.02 -0.32 1.28 483
0.00 -0.00 -0.13 -0.10 9.92 1.90 -0.65 1.29 490
0.00 0.00 -0.07 1.72 8.40 1.75 -0.97 1.23 497
0.00 0.00 0.06 3.54 6.35 1.58 -1.27 1.03 503
0.00 0.00 -1.45 5.21 6.91 1.36 -1.41 0.60 509
0.00 0.00 -2.85 4.41 6.67 0.91 -1.52 -0.00 516
0.00 0.00 0.13 3.33 6.01 0.51 -1.66 -0.59 522
0.00 0.00 -0.13 2.99 9.77 0.26 -1.73 -0.96 528
0.00 0.00 -1.44 2.74 11.38 -0.07 -1.60 -1.31 534
0.00 0.00 -0.74 2.88 10.39 -0.35 -1.56 -1.85 541
0.00 0.00 -0.09 2.99 9.44 -0.48 -1.68 -2.29 548
0.00 0.00 0.13 2.60 8.89 -0.63 -1.77 -2.51 555
0.00 0.00 0.66 2.28 8.41 -0.74 -1.81 -2.75 561
0.00 0.00 1.28 2.06 8.26 -0.88 -1.82 -2.94 567
0.00 0.00 2.12 2.05 8.31 -1.02 -1.83 -3.08 574
0.00 0.00 2.59 1.92 8.70 -1.11 -1.83 -3.19 580
-0.00 0.00 3.11 1.72 8.83 -1.24 -1.85 -3.26 587
0.00 -0.00 3.70 1.48 8.74 -1.36 -1.88 -3.31 594
0.00 0.00 4.51 1.22 8.49 -1.47 -1.88 -3.30 602
0.00 0.00 4.91 1.15 8.44 -1.58 -1.89 -3.25 608
0.00 0.00 5.86 0.87 9.07 -1.72 -1.89 -3.12 615
0.00 0.00 6.45 0.63 9.48 -1.79 -1.89 -2.97 621
0.00 0.00 7.08 0.10 9.66 -1.89 -1.87 -2.79 628
0.01 -0.00 7.83 -0.25 9.72 -1.98 -1.82 -2.60 634
0.00 0.00 8.71 -0.44 9.90 -2.10 -1.73 -2.39 642
0.00 0.00 9.41 -0.73 9.55 -2.22 -1.56 -2.15 649
0.00 0.00 10.42 -1.25 9.11 -2.32 -1.32 -1.90 656
0.00 0.00 10.09 -1.76 8.82 -2.39 -1.07 -1.68 663
0.00 0.00 10.18 -2.31 8.56 -2.39 -0.78 -1.42 670
0.00 0.00 10.11 -2.90 8.50 -2.35 -0.55 -1.15 677
0.00 0.00 10.10 -3.37 8.41 -2.24 -0.30 -0.88 685
0.00 0.00 10.10 -3.69 8.61 -2.12 -0.05 -0.56 692
0.00 0.00 10.07 -3.73 8.99 -1.99 0.18 -0.29 699
0.00 0.00 9.69 -3.80 9.26 -1.85 0.47 0.04 706
0.00 0.00 9.29 -3.84 9.61 -1.79 0.68 0.31 712
0.00 0.00 8.71 -3.94 9.99 -1.70 0.94 0.52 718
0.00 0.00 8.01 -4.06 10.58 -1.65 1.20 0.77 724
0.00 0.00 7.15 -4.15 11.28 -1.58 1.43 1.03 732
0.00 0.00 6.19 -4.12 11.70 -1.53 1.66 1.25 739
0.00 0.00 5.25 -4.26 12.06 -1.51 1.85 1.47 746
0.00 0.00 4.47 -4.47 12.31 -1.50 1.97 1.63 753
0.00 0.00 3.61 -4.81 12.60 -1.48 2.05 1.77 760
0.00 0.00 2.87 -5.17 12.88 -1.47 2.06 1.88 768
0.00 0.00 2.03 -5.30 13.08 -1.47 2.01 1.94 775
0.00 0.00 1.41 -5.47 13.16 -1.48 1.89 1.96 782
0.00 0.00 1.08 -5.55 13.09 -1.49 1.76 1.95 789
0.00 0.00 0.91 -5.65 13.08 -1.49 1.60 1.89 796
0.00 0.00 1.02 -5.83 13.07 -1.48 1.46 1.81 803
0.00 0.00 1.11 -5.94 12.98 -1.45 1.35 1.73 811
0.00 0.00 1.04 -5.82 12.62 -1.41 1.31 1.63 818
0.00 0.00 0.73 -5.60 12.29 -1.36 1.35 1.60 825
0.00 0.00 -0.09 -5.26 12.11 -1.30 1.41 1.63 832
0.00 0.00 -1.08 -5.14 12.52 -1.27 1.43 1.71 839
0.00 0.00 -1.80 -5.45 13.26 -1.24 1.37 1.77 846
0.00 0.00 -2.53 -5.60 13.27 -1.24 1.21 1.83 854
0.00 0.00 -2.76 -5.73 13.24 -1.25 1.06 1.87 861
0.00 0.00 -2.78 -5.93 12.88 -1.26 0.88 1.88 868
0.00 0.00 -2.77 -6.27 12.44 -1.25 0.71 1.84 875
0.00 0.00 -12.48 -15.46 16.90 -0.83 -0.49 1.74 882
0.00 0.00 -5.25 -9.04 7.94 -0.78 -0.70 1.63 889
0.00 0.00 -0.41 -5.42 4.91 -0.63 -0.76 1.50 896
0.00 0.00 -0.96 -9.81 4.66 -0.70 -0.56 1.33 903
0.00 0.00 0.76 -8.94 15.89 -0.17 -0.07 1.27 909
0.00 0.00 -0.94 -9.19 6.96 -0.29 0.15 0.95 916
0.00 0.00 -1.15 -8.73 8.93 -0.16 0.42 0.68 922
0.00 0.00 -3.83 -10.18 10.56 -0.01 0.55 0.44 928
0.00 0.00 -3.06 -9.32 10.61 0.08 0.60 0.21 935
0.00 0.00 -7.29 -8.88 5.82 0.22 0.45 0.04 943
0.00 0.00 -7.98 -8.06 9.32 0.26 0.24 -0.12 949
0.00 0.00 -7.76 -7.76 9.10 0.25 0.04 -0.21 955
0.00 0.00 -7.73 -7.88 8.57 0.21 -0.19 -0.29 961
0.01 -0.00 -6.90 -8.03 8.35 0.17 -0.36 -0.34 967
0.00 0.00 -6.10 -9.05 10.48 0.13 -0.40 -0.37 974
0.00 0.00 -3.83 -8.39 12.89 0.22 -0.25 -0.34 982
0.00 0.00 -3.57 -8.75 10.14 0.20 -0.09 -0.28 989
0.00 0.00 -3.22 -9.97 6.90 0.28 -0.07 -0.20 996
0.00 0.00 -2.36 -11.35 5.63 0.39 -0.16 -0.08 1002
0.00 0.00 -3.12 -13.17 5.70 0.60 -0.28 0.15 1009
0.00 0.00 -5.49 -14.66 6.27 0.90 -0.58 0.41 1016
0.00 0.00 -7.82 -17.97 6.26 1.16 -0.86 0.71 1024
0.00 0.00 -14.02 -8.12 21.61 0.78 -1.69 0.58 1031
-0.00 0.01 -0.42 -4.54 2.23 -0.22 0.08 0.00 1038
-0.00 0.02 -0.53 -2.31 10.25 -0.27 0.04 -0.05 1045
-0.00 0.04 0.13 -0.68 10.68 -0.33 0.05 -0.04 1052
-0.01 0.10 0.67 -0.53 10.31 -0.23 0.06 -0.07 1059
-0.02 0.16 0.80 -0.48 10.01 -0.13 0.07 -0.08 1067
-0.02 0.21 0.62 -0.90 10.13 -0.10 0.02 -0.08 1074
-0.02 0.23 0.29 -1.26 9.98 -0.09 -0.00 -0.07 1081
0.02 0.23 0.02 -1.14 9.90 -0.06 0.00 -0.07 1088
0.03 0.23 0.23 -0.94 9.84 -0.06 0.01 -0.07 1095
0.02 0.25 0.36 -0.92 9.82 -0.05 0.03 -0.06 1102
0.02 0.24 0.29 -0.97 9.80 -0.05 0.03 -0.05 1110
0.01 0.24 0.27 -0.93 9.80 -0.04 0.04 -0.05 1117
0.01 0.27 0.30 -0.92 9.83 -0.04 0.05 -0.05 1124
0.02 0.31 0.27 -0.92 9.81 -0.04 0.05 -0.05 1131
0.04 0.32 0.28 -0.92 9.81 -0.04 0.05 -0.05 1138
0.03 0.28 0.34 -0.91 9.82 -0.03 0.05 -0.05 1145
0.02 0.23 0.34 -0.87 9.81 -0.04 0.06 -0.05 1153
0.02 0.24 0.32 -0.88 9.82 -0.04 0.06 -0.05 1160
0.03 0.26 0.31 -0.87 9.79 -0.03 0.06 -0.05 1167
0.05 0.24 0.33 -0.90 9.80 -0.03 0.06 -0.05 1174
0.07 0.26 0.28 -0.86 9.79 -0.03 0.06 -0.05 1181
0.05 0.25 0.28 -0.86 9.79 -0.03 0.06 -0.05 1188
0.05 0.27 0.30 -0.87 9.81 -0.03 0.06 -0.05 1196
0.04 0.30 0.30 -0.88 9.81 -0.03 0.05 -0.05 1203
0.04 0.34 0.30 -0.89 9.81 -0.03 0.06 -0.05 1210
0.06 0.31 0.29 -0.88 9.81 -0.02 0.06 -0.05 1217
0.07 0.34 0.33 -0.89 9.80 -0.02 0.05 -0.05 1224
0.06 0.34 0.25 -0.85 9.82 -0.02 0.05 -0.05 1231
0.06 0.35 0.30 -0.85 9.82 -0.02 0.05 -0.05 1239
0.06 0.31 0.33 -0.84 9.82 -0.01 0.05 -0.05 1246
0.07 0.32 0.35 -0.85 9.81 -0.01 0.05 -0.05 1253
0.09 0.31 0.33 -0.87 9.81 -0.01 0.05 -0.05 1260
0.07 0.33 0.32 -0.84 9.80 -0.00 0.05 -0.05 1267
0.08 0.31 0.32 -0.88 9.81 -0.00 0.05 -0.05 1274
0.07 0.32 0.32 -0.85 9.79 -0.00 0.04 -0.06 1282
0.07 0.31 0.33 -0.86 9.82 0.00 0.04 -0.06 1289
0.06 0.32 0.34 -0.85 9.82 -0.00 0.04 -0.06 1296
0.08 0.30 0.33 -0.89 9.78 -0.00 0.04 -0.06 1303
0.07 0.31 0.35 -0.85 9.20 -0.00 0.04 -0.06 1310
0.07 0.29 0.32 -0.89 9.81 0.00 0.04 -0.07 1317
0.06 0.29 0.30 -0.88 9.78 0.00 0.03 -0.06 1325
0.07 0.27 0.32 -0.87 9.76 0.00 0.04 -0.06 1332
0.07 0.25 0.31 -0.85 9.80 -0.00 0.03 -0.07 1339
0.08 0.26 0.35 -0.86 9.79 -0.00 0.03 -0.06 1346
0.08 0.26 0.33 -0.86 9.80 -0.00 0.03 -0.07 1353
0.07 0.24 0.30 -0.84 9.79 -0.00 0.03 -0.06 1360
0.06 0.24 0.31 -0.88 9.79 -0.00 0.03 -0.06 1368
0.07 0.24 0.32 -0.85 9.81 -0.00 0.03 -0.06 1375
0.08 0.25 0.32 -0.88 9.79 -0.00 0.03 -0.06 1382
0.08 0.23 0.33 -0.88 9.78 -0.01 0.03 -0.07 1389
0.08 0.24 0.26 -0.87 9.81 -0.00 0.03 -0.07 1396
0.08 0.23 0.31 -0.89 9.79 -0.00 0.03 -0.07 1403
0.08 0.22 0.28 -0.86 9.81 -0.01 0.03 -0.07 1411
0.10 0.21 0.31 -0.87 9.76 -0.01 0.03 -0.07 1418
0.11 0.21 0.34 -0.86 9.82 -0.01 0.03 -0.07 1425
0.10 0.21 0.33 -0.91 9.80 -0.00 0.03 -0.07 1432
0.10 0.20 0.31 -0.89 9.80 -0.00 0.02 -0.07 1439
0.10 0.18 0.29 -0.89 9.81 -0.00 0.02 -0.07 1446
0.12 0.19 0.31 -0.86 9.82 -0.01 0.02 -0.07 1454
0.14 0.21 0.30 -0.85 9.81 -0.00 0.02 -0.08 1461
0.17 0.21 0.29 -0.87 9.82 -0.00 0.02 -0.07 1468
0.19 0.21 0.27 -0.91 9.83 0.00 0.02 -0.07 1475
0.18 0.19 0.31 -0.90 9.80 0.01 0.03 -0.07 1482
0.18 0.22 0.33 -0.89 9.80 0.00 0.02 -0.07 1489
0.17 0.20 0.30 -0.88 9.78 0.00 0.03 -0.07 1497
0.20 0.18 0.28 -0.91 9.78 0.00 0.03 -0.07 1504
0.22 0.17 0.33 -0.90 9.80 0.00 0.02 -0.07 1511
0.21 0.15 0.30 -0.89 9.82 0.01 0.03 -0.07 1518
0.25 0.10 0.29 -0.91 9.81 0.01 0.03 -0.07 1525
0.24 0.07 0.32 -0.86 9.82 0.01 0.03 -0.07 1532
0.29 0.06 0.24 -0.91 9.81 0.02 0.03 -0.07 1540
0.30 0.06 0.30 -0.94 9.80 0.02 0.03 -0.07 1547
0.34 0.03 0.29 -0.88 9.81 0.02 0.03 -0.07 1554
0.32 0.02 0.31 -0.93 9.81 0.02 0.03 -0.07 1561
0.35 0.00 0.37 -0.92 9.81 0.02 0.03 -0.07 1568
0.36 0.00 0.29 -0.87 9.77 0.03 0.03 -0.08 1575
0.37 -0.00 0.26 -0.90 9.81 0.03 0.03 -0.07 1583
0.42 -0.01 0.31 -0.99 9.76 0.04 0.03 -0.07 1590
0.46 -0.02 0.34 -0.94 9.80 0.04 0.04 -0.06 1597
0.49 -0.03 0.37 -1.05 9.73 0.06 0.04 -0.06 1604
0.54 -0.02 0.29 -0.97 9.81 0.07 0.04 -0.06 1611
0.57 -0.02 0.29 -0.97 9.90 0.08 0.04 -0.06 1618
0.66 -0.02 0.30 -1.00 9.89 0.10 0.04 -0.06 1626
0.72 -0.02 0.40 -0.82 9.98 0.12 0.04 -0.08 1633
0.79 -0.03 0.17 -1.06 9.91 0.17 0.03 -0.09 1640
0.81 -0.04 0.40 -0.93 9.97 0.22 0.02 -0.09 1647
0.88 -0.04 0.41 -0.87 10.66 0.28 0.03 -0.10 1654
0.98 -0.03 0.13 -1.24 10.38 0.46 0.07 -0.12 1662
1.03 -0.03 0.27 -1.10 10.02 0.97 0.14 -0.10 1669
1.07 -0.04 0.56 -0.88 11.19 1.22 0.10 -0.14 1677
1.15 -0.03 0.51 -1.23 9.76 1.14 0.03 -0.14 1683
1.17 -0.05 -0.03 -1.11 11.14 1.16 -0.01 -0.14 1691
1.18 -0.04 0.10 -1.41 11.34 1.26 0.04 -0.13 1698
1.19 -0.04 0.51 -1.68 11.78 1.37 0.11 -0.14 1705
1.19 -0.02 0.35 -1.74 11.44 1.48 0.15 -0.14 1713
1.19 -0.02 0.09 -1.76 12.16 1.62 0.18 -0.14 1720
1.17 -0.04 0.40 -1.81 11.69 1.76 0.20 -0.15 1727
1.13 -0.04 0.48 -1.83 11.49 1.93 0.18 -0.17 1734
1.07 -0.02 0.80 -2.06 11.28 2.06 0.12 -0.19 1741
1.04 -0.04 0.51 -2.19 11.28 2.18 0.05 -0.21 1748
0.95 -0.03 0.10 -2.32 11.87 2.33 0.05 -0.22 1756
0.90 -0.04 0.13 -2.38 11.95 2.52 0.08 -0.21 1763
0.77 -0.04 0.55 -2.74 12.10 2.65 0.08 -0.20 1769
0.67 -0.04 0.53 -3.01 11.87 2.83 0.05 -0.21 1777
0.47 -0.03 0.64 -3.06 11.83 2.98 0.05 -0.21 1784
0.37 -0.01 -0.11 -3.41 12.28 3.15 -0.01 -0.21 1792
0.32 -0.02 0.12 -3.77 12.57 3.30 0.01 -0.17 1798
0.19 -0.02 -0.26 -4.58 14.69 3.40 0.06 -0.12 1805
0.12 -0.01 -0.21 -4.49 12.88 3.47 0.15 -0.05 1812
0.11 -0.01 -1.14 -6.09 15.55 3.47 0.35 0.04 1819
0.10 -0.01 0.05 -5.52 14.20 3.42 0.50 0.10 1826
0.10 -0.01 -0.01 -6.36 14.29 3.35 0.61 0.13 1835
0.09 -0.01 -0.53 -6.32 14.57 3.24 0.67 0.20 1841
0.09 -0.01 0.08 -4.06 14.23 3.13 0.62 0.22 1848
0.06 -0.01 -0.53 -5.30 12.68 2.90 0.54 0.22 1855
0.04 -0.00 -0.83 -4.98 15.05 2.60 0.31 0.20 1862
0.07 -0.01 -0.32 -3.43 11.87 2.40 0.10 0.19 1869
0.07 -0.00 1.13 -1.80 11.29 2.26 -0.02 0.17 1876
0.05 -0.01 0.99 0.06 11.56 2.07 -0.13 0.14 1884
0.03 -0.00 1.17 1.88 11.61 1.83 -0.22 0.07 1891
0.01 -0.00 1.23 5.53 11.31 1.49 -0.26 -0.02 1898
0.00 0.00 0.97 9.76 9.23 1.08 -0.23 -0.24 1905
0.01 -0.00 -0.04 9.02 7.22 0.64 -0.21 -0.69 1912
0.00 -0.00 -0.29 7.64 4.94 0.20 -0.32 -1.05 1920
0.00 0.00 -1.15 8.80 7.37 -0.32 -0.39 -1.44 1927
0.00 0.00 -1.11 8.47 7.44 -0.97 -0.48 -1.79 1934
0.00 0.00 -1.06 7.18 7.18 -1.33 -0.65 -2.12 1941
0.00 0.00 -1.05 5.72 7.05 -1.50 -0.83 -2.37 1948
0.00 0.00 -0.37 5.16 6.81 -1.65 -0.99 -2.55 1955
0.01 -0.00 0.49 4.71 6.56 -1.79 -1.10 -2.70 1963
0.00 0.00 1.35 4.38 6.65 -1.87 -1.14 -2.80 1970
0.00 0.00 2.12 3.80 7.02 -1.99 -1.11 -2.79 1977
0.00 0.00 2.95 3.26 7.44 -2.10 -1.05 -2.76 1984
0.00 0.00 3.54 2.74 7.95 -2.22 -0.93 -2.71 1991
0.00 0.00 4.32 2.26 8.38 -2.36 -0.77 -2.59 1998
0.00 0.00 4.48 1.78 8.93 -2.45 -0.64 -2.45 2006
0.00 0.00 4.82 1.36 9.36 -2.58 -0.49 -2.29 2013
0.00 0.00 5.04 1.00 9.68 -2.70 -0.35 -2.08 2020
0.00 0.00 5.35 0.49 9.97 -2.81 -0.23 -1.90 2027
0.00 0.00 5.74 -0.29 10.11 -2.90 -0.11 -1.69 2034
0.00 0.00 5.88 -1.11 10.12 -2.94 0.02 -1.47 2041
0.00 -0.00 5.99 -1.73 10.06 -2.94 0.23 -1.28 2049
0.00 0.00 6.04 -2.39 10.02 -2.90 0.44 -1.08 2056
0.00 0.00 5.84 -2.88 10.38 -2.81 0.60 -0.94 2063
0.00 0.00 5.67 -3.47 10.64 -2.68 0.80 -0.80 2070
0.00 0.00 5.42 -4.03 11.21 -2.57 1.01 -0.69 2077
0.00 0.00 5.10 -4.56 11.71 -2.43 1.18 -0.61 2084
0.00 0.00 4.76 -5.03 12.26 -2.33 1.38 -0.52 2092
0.00 0.00 4.38 -5.47 12.82 -2.21 1.54 -0.41 2099
0.00 0.00 3.95 -5.96 13.07 -2.10 1.71 -0.34 2106
0.00 0.00 3.39 -6.44 13.29 -2.01 1.84 -0.20 2113
0.00 0.00 2.86 -6.67 13.27 -1.91 1.93 -0.05 2120
0.00 0.00 2.14 -6.87 13.14 -1.78 1.93 0.14 2127
0.00 0.00 1.53 -6.96 13.18 -1.71 1.88 0.35 2135
0.00 0.00 0.85 -6.74 13.06 -1.59 1.75 0.51 2142
0.00 0.00 0.47 -6.69 12.99 -1.49 1.58 0.67 2149
0.00 0.00 0.15 -6.49 12.67 -1.39 1.43 0.76 2156
0.00 0.00 -0.11 -6.36 12.43 -1.27 1.26 0.83 2163
0.00 0.00 -0.26 -6.42 12.15 -1.17 1.15 0.84 2170
0.00 0.00 -0.34 -6.49 11.83 -1.03 1.10 0.83 2178
0.00 0.00 -0.39 -6.54 11.60 -0.89 1.09 0.78 2185
0.00 0.00 -0.59 -6.62 11.50 -0.73 1.12 0.68 2192
0.00 0.00 -0.92 -6.64 11.46 -0.58 1.20 0.63 2199
0.00 0.00 -1.26 -6.74 11.59 -0.46 1.29 0.55 2206
0.00 -0.00 -1.65 -6.78 11.58 -0.36 1.33 0.49 2213
0.00 0.00 -2.10 -6.79 11.44 -0.28 1.36 0.41 2221
0.00 0.00 -2.40 -6.97 11.46 -0.20 1.34 0.35 2228
0.00 0.00 -2.48 -7.18 11.23 -0.15 1.30 0.30 2235
0.00 0.00 -2.54 -7.29 10.92 -0.08 1.29 0.24 2242
0.00 0.00 -2.39 -7.39 10.68 -0.02 1.35 0.20 2249
0.00 0.00 -2.32 -7.19 10.40 -0.04 1.47 0.14 2256
0.00 0.00 -2.18 -7.45 10.74 -0.06 1.62 0.07 2264
0.00 0.00 -2.75 -7.28 10.86 -0.15 1.81 0.01 2271
0.00 0.00 -3.33 -7.32 11.03 -0.25 1.90 -0.06 2278
0.00 0.00 -3.78 -7.53 10.99 -0.38 1.84 -0.12 2285
0.00 0.00 -4.56 -7.53 10.51 -0.51 1.61 -0.17 2292
0.00 0.00 -4.83 -7.65 9.94 -0.59 1.33 -0.19 2299
0.00 0.00 -4.80 -7.84 9.24 -0.65 0.97 -0.19 2307
0.00 0.00 -4.48 -8.09 8.70 -0.66 0.60 -0.18 2314
0.00 0.00 -4.16 -8.25 8.17 -0.61 0.34 -0.18 2321
0.00 0.00 -3.57 -8.29 7.78 -0.51 0.15 -0.16 2328
0.00 -0.00 -3.01 -8.21 7.29 -0.39 0.06 -0.13 2335
0.00 0.00 -2.48 -8.06 7.06 -0.24 0.07 -0.11 2342
0.00 0.00 -1.86 -7.73 6.95 -0.08 0.19 -0.07 2350
0.00 0.00 -4.56 -12.25 14.20 0.01 0.31 0.01 2357
0.00 0.00 -5.68 -8.84 8.65 0.44 -0.54 0.21 2364
0.00 0.00 -4.15 -5.50 6.22 0.52 -0.98 0.33 2371
0.00 0.00 -7.12 -6.30 7.91 0.62 -1.32 0.50 2378
0.00 0.00 -7.90 -7.41 7.20 0.66 -1.82 0.77 2385
0.00 0.00 -8.60 -7.19 8.51 0.68 -2.27 0.98 2393
0.00 0.00 -9.52 -7.09 7.94 0.69 -2.90 1.13 2400
0.00 0.00 -11.91 -7.74 11.21 0.67 -3.63 1.28 2407
-0.00 0.01 -7.06 0.50 -7.85 1.55 -1.79 1.03 2414
-0.00 0.04 -16.38 -2.23 20.74 0.04 -0.79 0.63 2421
-0.00 0.04 -1.46 1.20 3.45 -0.33 0.02 0.10 2428
-0.01 0.12 -0.57 -0.14 13.94 -0.63 -0.09 -0.06 2437
-0.02 0.22 0.02 0.46 10.08 -0.29 0.01 -0.21 2443
-0.03 0.26 0.50 -0.73 10.14 -0.18 0.03 -0.18 2450
-0.02 0.33 0.75 -1.72 10.28 -0.13 0.00 -0.09 2457
0.04 0.34 -0.23 -1.65 10.27 -0.10 -0.01 -0.04 2465
0.05 0.37 -0.15 -0.62 9.88 -0.07 0.02 -0.04 2471
0.05 0.36 0.49 -0.73 9.86 -0.03 0.06 -0.05 2479
0.03 0.39 0.46 -0.96 9.82 -0.03 0.06 -0.03 2486
0.04 0.41 0.22 -0.73 9.82 -0.02 0.06 -0.03 2493
0.05 0.43 0.28 -0.81 9.80 -0.01 0.07 -0.04 2500
0.05 0.40 0.41 -0.85 9.83 -0.01 0.07 -0.03 2507
0.05 0.39 0.39 -0.83 9.82 -0.01 0.06 -0.04 2514
0.04 0.42 0.34 -0.81 9.82 -0.01 0.06 -0.05 2522
0.04 0.38 0.40 -0.82 9.79 -0.02 0.04 -0.05 2529
0.05 0.35 0.44 -0.81 9.79 -0.02 0.04 -0.05 2536
0.07 0.36 0.45 -0.75 9.76 -0.02 0.03 -0.06 2543
0.07 0.35 0.34 -0.78 9.76 -0.03 0.02 -0.06 2550
0.06 0.35 0.29 -0.82 9.82 -0.03 0.02 -0.07 2557
0.08 0.36 0.26 -0.76 10.40 -0.03 0.03 -0.06 2565
0.08 0.36 0.25 -0.75 9.82 -0.04 0.03 -0.06 2572
0.09 0.40 0.27 -0.80 9.81 -0.03 0.04 -0.06 2579
0.07 0.40 0.28 -0.79 9.82 -0.04 0.04 -0.06 2586
0.05 0.41 0.36 -0.77 9.82 -0.03 0.05 -0.06 2593
0.06 0.44 0.34 -0.79 9.81 -0.03 0.05 -0.06 2600
0.04 0.46 0.36 -0.81 9.82 -0.03 0.05 -0.05 2608
0.05 0.45 0.37 -0.80 9.81 -0.03 0.04 -0.05 2615
0.05 0.50 0.33 -0.76 9.81 -0.02 0.04 -0.06 2622
0.07 0.51 0.33 -0.81 9.83 -0.02 0.03 -0.06 2629
0.05 0.53 0.30 -0.77 9.81 -0.02 0.04 -0.06 2636
0.05 0.52 0.32 -0.75 9.83 -0.01 0.04 -0.06 2643
0.06 0.51 0.33 -0.76 9.80 -0.01 0.03 -0.07 2651
0.06 0.50 0.30 -0.74 10.40 -0.01 0.03 -0.06 2658
0.07 0.51 0.32 -0.75 9.79 -0.01 0.04 -0.06 2665
0.08 0.51 0.30 -0.74 9.81 -0.00 0.04 -0.06 2672
0.09 0.50 0.30 -0.75 9.81 0.00 0.04 -0.07 2679
0.08 0.49 0.29 -0.80 9.81 0.00 0.04 -0.07 2686
0.06 0.49 0.29 -0.75 9.82 0.00 0.04 -0.06 2694
0.07 0.47 0.32 -0.77 9.81 0.01 0.04 -0.06 2701
0.07 0.47 0.30 -0.76 9.82 0.00 0.04 -0.07 2708
0.09 0.46 0.31 -0.78 9.41 0.00 0.03 -0.06 2715
0.08 0.45 0.29 -0.80 9.79 0.00 0.03 -0.07 2722
0.08 0.44 0.30 -0.77 9.81 -0.00 0.04 -0.07 2729
0.07 0.42 0.32 -0.75 9.79 0.00 0.04 -0.07 2737
0.09 0.42 0.31 -0.78 9.81 0.00 0.04 -0.07 2744
0.10 0.41 0.28 -0.77 9.80 0.00 0.04 -0.07 2751
0.11 0.39 0.31 -0.77 9.80 -0.00 0.04 -0.07 2758
0.10 0.37 0.31 -0.79 9.81 -0.01 0.04 -0.07 2765
0.10 0.34 0.29 -0.79 9.78 -0.00 0.04 -0.07 2772
0.10 0.35 0.31 -0.79 9.79 -0.00 0.04 -0.07 2780
0.11 0.37 0.33 -0.79 9.82 -0.00 0.04 -0.07 2787
0.11 0.38 0.28 -0.78 9.81 -0.00 0.04 -0.07 2794
0.11 0.37 0.29 -0.77 9.80 -0.00 0.04 -0.07 2801
0.11 0.36 0.30 -0.80 9.81 -0.01 0.04 -0.07 2808
0.11 0.37 0.29 -0.76 9.80 -0.01 0.04 -0.07 2816
0.10 0.36 0.31 -0.82 10.42 -0.00 0.04 -0.07 2823
0.10 0.37 0.30 -0.80 9.81 -0.01 0.04 -0.07 2830
0.12 0.37 0.29 -0.78 9.82 -0.01 0.04 -0.07 2837
0.12 0.36 0.31 -0.76 9.81 -0.01 0.04 -0.07 2844
0.11 0.36 0.28 -0.78 9.80 -0.01 0.04 -0.07 2851
0.09 0.36 0.32 -0.78 9.80 -0.01 0.04 -0.10 2859
0.10 0.37 0.29 -0.79 9.81 -0.01 0.04 -0.07 2866
0.11 0.37 0.32 -0.77 9.81 -0.00 0.04 -0.07 2873
0.12 0.35 0.30 -0.79 9.78 -0.01 0.04 -0.07 2880
0.11 0.35 0.34 -0.78 9.82 -0.01 0.04 -0.06 2887
0.11 0.34 0.31 -0.78 9.81 -0.00 0.04 -0.06 2894
0.10 0.33 0.30 -0.80 9.81 -0.01 0.04 -0.07 2902
0.11 0.34 0.32 -0.79 9.83 -0.00 0.04 -0.07 2909
0.12 0.33 0.30 -0.77 10.42 -0.00 0.04 -0.07 2916
0.12 0.32 0.30 -0.81 9.82 -0.01 0.04 -0.06 2923
0.12 0.32 0.28 -0.78 9.82 -0.01 0.04 -0.07 2930
0.11 0.31 0.29 -0.80 9.81 -0.01 0.04 -0.07 2937
0.10 0.31 0.31 -0.81 9.76 -0.01 0.04 -0.07 2945
0.11 0.31 0.29 -0.81 9.77 -0.00 0.04 -0.07 2952
0.12 0.32 0.33 -0.77 9.78 -0.01 0.04 -0.07 2959
0.11 0.31 0.32 -0.80 9.81 -0.00 0.04 -0.07 2966
0.13 0.32 0.29 -0.76 9.80 0.00 0.04 -0.07 2973
0.13 0.32 0.33 -0.81 9.73 0.00 0.04 -0.07 2980
0.12 0.33 0.32 -0.76 9.81 0.01 0.04 -0.07 2988
0.14 0.28 0.30 -0.81 9.81 0.01 0.04 -0.07 2995
0.16 0.22 0.31 -0.81 9.78 0.01 0.04 -0.07 3002
0.18 0.24 0.31 -0.78 9.80 0.02 0.04 -0.07 3009
0.20 0.22 0.34 -0.79 9.79 0.02 0.05 -0.07 3016
0.20 0.13 0.30 -0.79 9.78 0.02 0.05 -0.07 3023
0.23 0.09 0.29 -0.77 9.81 0.02 0.05 -0.07 3031
0.24 0.06 0.33 -0.94 9.82 0.03 0.05 -0.07 3038
0.26 0.05 0.29 -0.97 9.21 0.04 0.05 -0.07 3045
0.28 0.01 0.40 -0.82 9.94 0.04 0.05 -0.06 3052
0.30 -0.03 0.34 -0.58 9.86 0.05 0.05 -0.06 3059
0.31 -0.02 0.29 -0.85 9.82 0.06 0.05 -0.06 3066
0.34 -0.01 0.29 -0.76 9.89 0.07 0.06 -0.06 3074
0.37 -0.02 0.37 -0.81 9.88 0.08 0.06 -0.07 3081
0.42 -0.02 0.30 -0.88 9.95 0.10 0.07 -0.07 3088
0.45 -0.03 0.43 -0.55 10.01 0.12 0.08 -0.09 3095
0.50 -0.04 0.45 -0.91 10.20 0.16 0.12 -0.09 3102
0.52 -0.03 0.50 -0.94 10.08 0.21 0.16 -0.10 3109
0.54 -0.03 1.48 -0.99 10.38 0.35 0.21 -0.15 3118
0.58 -0.02 0.41 -0.67 11.92 1.02 0.45 -0.17 3125
0.62 -0.03 1.40 -1.67 13.75 1.66 0.39 -0.18 3132
0.63 -0.03 0.77 -1.24 12.26 1.76 0.28 -0.27 3139
0.64 -0.03 0.80 -1.47 12.42 1.83 0.19 -0.30 3146
0.61 -0.02 0.28 -0.62 12.51 1.99 0.12 -0.31 3153
0.59 -0.02 0.16 -1.44 12.41 2.14 0.09 -0.30 3161
0.57 -0.02 0.42 -1.59 11.78 2.26 0.08 -0.28 3168
0.52 -0.02 0.31 -1.83 12.11 2.42 0.01 -0.26 3175
0.46 -0.00 0.29 -1.93 11.76 2.53 0.01 -0.25 3182
0.44 -0.03 0.01 -2.02 11.38 2.63 0.04 -0.22 3188
0.41 -0.02 -0.22 -2.11 11.50 2.71 0.09 -0.18 3196
0.33 -0.01 -0.10 -2.61 11.99 2.78 0.12 -0.12 3204
0.23 -0.02 0.28 -2.71 12.52 2.94 0.27 -0.08 3210
0.22 -0.02 -0.17 -3.10 12.09 3.02 0.37 -0.04 3217
0.14 -0.01 0.01 -3.68 11.82 3.06 0.43 0.01 3224
0.11 -0.01 0.04 -4.11 12.98 3.07 0.62 0.05 3231
0.07 -0.01 -0.18 -4.72 13.96 3.06 0.79 0.11 3238
0.09 -0.00 0.35 -4.63 13.42 3.04 0.85 0.20 3246
0.09 -0.01 0.26 -5.42 13.18 2.96 0.85 0.19 3253
0.07 -0.01 -0.03 -4.69 12.62 2.87 0.80 0.20 3260
0.06 -0.01 0.90 -5.64 12.44 2.80 0.72 0.21 3267
0.06 -0.01 1.39 -3.70 13.51 2.67 0.72 0.19 3274
0.08 -0.01 1.50 -3.70 13.12 2.53 0.79 0.17 3281
0.05 -0.01 1.08 -2.17 13.13 2.24 0.90 0.11 3289
0.06 -0.01 0.43 -1.74 11.99 2.02 0.83 0.04 3296
0.03 -0.00 -0.52 -0.14 10.94 1.81 0.63 -0.03 3303
0.03 -0.00 -0.85 1.65 10.69 1.56 0.34 -0.14 3310
0.02 -0.00 -0.85 3.42 10.27 1.28 0.10 -0.33 3317
0.01 -0.00 -0.67 4.46 9.64 0.96 -0.13 -0.57 3324
0.02 -0.00 -1.12 6.18 9.11 0.71 -0.25 -0.95 3332
0.02 -0.00 -2.00 6.68 8.58 0.44 -0.30 -1.40 3339
0.03 -0.00 -1.82 5.66 7.54 0.22 -0.41 -1.89 3346
0.00 0.00 -2.52 6.69 9.34 -0.00 -0.54 -2.27 3353
0.00 0.00 -2.52 6.17 9.31 -0.34 -0.72 -2.52 3360
0.00 0.00 -1.98 5.81 8.26 -0.58 -1.00 -2.77 3367
0.00 0.00 -1.45 5.39 6.77 -0.81 -1.26 -2.92 3375
0.00 0.00 -0.58 4.92 6.99 -1.01 -1.49 -3.04 3382
0.00 0.00 0.35 4.64 7.18 -1.19 -1.60 -3.10 3389
0.00 0.00 1.45 4.51 7.44 -1.40 -1.60 -3.08 3396
0.00 0.00 2.51 4.24 8.08 -1.56 -1.46 -3.03 3403
0.00 0.00 3.21 4.01 8.46 -1.75 -1.23 -2.93 3410
0.01 -0.00 3.72 3.65 7.43 -1.94 -0.91 -2.77 3418
0.00 0.00 3.77 3.36 8.60 -2.08 -0.60 -2.58 3425
0.00 0.00 3.71 2.94 8.74 -2.25 -0.32 -2.40 3432
0.00 0.00 3.68 2.24 9.11 -2.39 -0.12 -2.18 3439
0.00 0.00 3.61 1.65 9.26 -2.46 -0.01 -2.00 3446
0.00 0.00 3.56 0.99 9.34 -2.52 0.10 -1.79 3453
0.00 0.00 3.65 0.45 9.39 -2.54 0.18 -1.60 3461
0.00 0.00 3.83 0.04 9.59 -2.55 0.28 -1.45 3468
0.00 0.00 4.05 -0.48 9.99 -2.54 0.38 -1.30 3475
0.00 0.00 4.23 -1.05 10.29 -2.51 0.45 -1.17 3482
0.00 0.00 4.54 -1.85 10.52 -2.47 0.50 -1.07 3489
0.00 0.00 4.79 -2.45 10.93 -2.42 0.57 -0.95 3496
0.00 0.00 5.01 -2.87 11.33 -2.35 0.66 -0.85 3504
0.00 0.00 5.23 -3.31 11.81 -2.26 0.79 -0.72 3511
0.00 0.00 5.31 -3.78 12.33 -2.19 0.93 -0.59 3518
0.00 0.00 5.38 -4.16 12.90 -2.12 1.14 -0.47 3525
0.00 0.00 5.27 -4.62 13.46 -2.08 1.37 -0.34 3532
0.00 0.00 5.07 -5.07 13.58 -2.04 1.56 -0.22 3539
0.00 0.00 4.36 -5.42 13.88 -2.01 1.75 -0.07 3547
0.00 0.00 3.67 -5.63 13.80 -1.97 1.90 0.09 3554
0.00 0.00 2.76 -5.71 13.63 -1.89 1.94 0.22 3561
0.00 0.00 1.88 -5.90 13.35 -1.79 1.97 0.35 3568
0.00 0.00 1.24 -6.67 12.88 -1.66 1.98 0.46 3575
0.00 0.00 0.49 -6.30 12.47 -1.51 1.95 0.47 3582
0.00 0.00 -0.12 -6.39 12.01 -1.38 1.90 0.46 3590
0.00 0.00 -0.56 -6.57 11.58 -1.20 1.82 0.41 3597
0.00 0.00 -0.93 -6.79 11.17 -0.99 1.72 0.31 3604
0.00 0.00 -1.09 -6.84 10.71 -0.81 1.63 0.17 3611
0.00 0.00 -1.17 -6.87 10.54 -0.57 1.52 0.04 3618
0.00 0.00 -1.29 -6.85 10.69 -0.37 1.38 -0.12 3625
0.00 0.00 -1.27 -6.78 10.84 -0.16 1.25 -0.24 3633
0.00 0.00 -1.12 -6.76 11.09 0.03 1.13 -0.36 3640
0.00 0.00 -1.05 -6.57 11.38 0.15 1.05 -0.45 3647
0.00 0.00 -1.11 -6.49 11.58 0.28 1.00 -0.49 3654
0.00 0.00 -1.28 -6.34 11.57 0.35 0.98 -0.53 3661
0.00 0.00 -1.51 -6.16 11.80 0.40 1.04 -0.54 3668
0.00 0.00 -2.04 -5.68 11.51 0.34 1.13 -0.52 3676
0.00 0.00 -3.02 -5.34 11.98 0.28 1.31 -0.47 3683
0.00 0.00 -2.81 -5.13 12.89 0.08 1.52 -0.38 3690
0.00 0.00 -3.67 -4.84 13.23 -0.20 1.71 -0.27 3697
0.00 0.00 -4.66 -4.60 12.75 -0.55 1.80 -0.12 3704
0.00 0.00 -5.54 -4.65 12.19 -0.94 1.75 -0.01 3712
0.00 0.00 -5.82 -5.34 11.17 -1.22 1.53 0.13 3719
0.00 0.00 -5.67 -6.26 10.33 -1.40 1.19 0.25 3726
0.00 0.00 -5.06 -7.19 8.90 -1.45 0.75 0.36 3733
0.00 0.00 -4.21 -7.84 7.62 -1.37 0.41 0.43 3740
0.00 0.00 -2.99 -8.30 6.79 -1.17 0.13 0.47 3747
0.00 0.00 -1.88 -8.60 6.10 -0.94 0.04 0.49 3755
¸0 0.00 &jþ10.76 11.29 -0.35 -0.51 0.58 3762
æ0 0.00 -9.18 7.08 -0.11 -0.59 0.66 3769
æ0 0.00 jþ10.49 4.67 0.10 -0.42 0.75 3776
æ0 0.00 jþ10.90 -1.16 0.46 -0.57 0.92 3783
ó0 -0.00 jþ10.58 9.60 0.79 -0.99 1.09 3790
æ0 0.00 jþ10.39 7.20 0.90 -1.03 1.19 3798
æ0 0.00 'jþ10.60 6.94 1.06 -1.55 1.33 3805
æ0 0.00 'jþ11.35 8.01 1.04 -2.09 1.41 3812
Á0 0.00 Ë10.64 10.11 1.29 -2.18 1.59 3820
‚~þ0.03 Njþ2.68 5.45 1.70 -1.08 1.64 3826
Á0 0.03 Ý3 -2.31 12.61 1.62 -1.05 1.37 3834
Á1 0.11 ³jþ1.11 26.48 0.85 -2.10 0.54 3842
‚þ&þ0.18 -0.59 -3.85 22.60 -0.25 -1.35 -0.21 3848
-0.02 0.24 þ0.81 8.96 -0.23 0.04 -0.16 3855
‚þ&þ0.33 jþ0.39 10.19 -0.17 -0.01 -0.20 3863
—þ&þ0.35  -2.61 10.11 -0.12 -0.03 -0.11 3870
—þ&þ0.42 &jþ1.60 10.05 -0.08 -0.07 -0.01 3876
—þ&þ0.41 Í8 -0.84 10.16 -0.06 -0.01 -0.02 3884
—þ&þ0.36 -0.80 9.83 -0.04 0.06 -0.04 3891
—þ&þ0.40 -0.80 9.81 -0.03 0.09 -0.02 3898
—~þ0.41 ™jþ0.86 9.82 -0.02 0.10 -0.02 3905
	~þ0.45 Ljþ0.89 9.22 -0.01 0.11 -0.02 3912
‚þ&þ0.42 jþ0.90 9.82 -0.01 0.11 -0.01 3919
‚þ&þ0.45 Njþ0.88 9.79 -0.01 0.10 -0.02 3927
	þ&þ0.42 jþ0.82 9.78 -0.01 0.09 -0.02 3934
—þ&þ0.43 ˜jþ0.83 9.78 -0.02 0.08 -0.02 3941
—þ&þ0.40 jþ0.80 9.78 -0.02 0.08 -0.03 3948
-0.02 0.41 jþ0.80 9.74 -0.03 0.06 -0.03 3955
03 0.45 -0.79 9.72 -0.03 0.06 -0.03 3962
04 0.45 jþ0.73 9.74 -0.04 0.05 -0.04 3970
Á4 0.50  -0.78 9.78 -0.04 0.05 -0.04 3977
Á5 0.55 °Ë0.82 9.76 -0.04 0.04 -0.04 3984
Á4 0.55 °Ë0.79 9.82 -0.05 0.06 -0.04 3991
03 0.60 jþ0.80 9.78 -0.04 0.06 -0.04 3998
04 0.63 -0.82 9.21 -0.04 0.07 -0.04 4005
Á4 0.63 -0.80 9.82 -0.03 0.07 -0.03 4013
Á6 0.68  -0.73 9.82 -0.03 0.08 -0.03 4020
Á5 0.68 -0.79 9.82 -0.02 0.09 -0.03 4027
05 0.72 -0.76 9.79 -0.02 0.09 -0.03 4034
04 0.75 ƒ-0.78 9.20 -0.01 0.09 -0.03 4041
04 0.74 Ë0.77 9.81 -0.01 0.09 -0.03 4048
Á5 0.70 0.44 -0.75 9.77 -0.01 0.10 -0.03 4056
&	~þ0.71 jþ0.68 9.80 -0.01 0.10 -0.03 4063
—~Mþ0.71 0.48 -0.74 9.77 -0.00 0.09 -0.03 4070
-0.04 0.67 0.43 -0.74 9.75 -0.00 0.09 -0.03 4077
-0.03 0.65 0.49 -0.75 9.78 -0.00 0.08 -0.04 4084
-0.05 0.65 0.46 -0.76 9.80 -0.00 0.07 -0.04 4091
-0.04 0.61 0.43 -0.78 9.77 0.00 0.07 -0.04 4099
-0.06 0.61 0.41 -0.70 9.87 0.03 0.07 -0.04 4106
-0.05 0.60 0.45 -0.80 9.80 0.00 0.07 -0.04 4113
-0.03 0.58 0.33 -0.74 9.79 0.01 0.08 -0.03 4120
-0.04 0.57 0.43 -0.80 9.81 0.00 0.08 -0.04 4127
-0.04 0.56 0.39 -0.80 9.21 0.00 0.08 -0.03 4134
-0.05 0.55 0.51 -0.77 9.75 -0.00 0.08 -0.03 4142
-0.05 0.54 0.48 -0.79 9.79 0.01 0.08 -0.04 4149
-0.04 0.53 0.41 -0.72 9.82 -0.00 0.08 -0.03 4156
-0.03 0.49 0.49 -0.78 9.77 -0.00 0.08 -0.04 4163
-0.01 0.48 0.39 -0.73 10.38 -0.00 0.07 -0.03 4170
-0.02 0.48 0.50 -0.79 9.73 -0.00 0.07 -0.04 4177
-0.02 0.47 0.49 -0.74 9.80 -0.01 0.07 -0.04 4185
-0.02 0.45 0.42 -0.75 9.83 -0.00 0.07 -0.04 4192
-0.01 0.47 0.48 -0.76 9.81 -0.01 0.07 -0.04 4199
-0.01 0.45 0.49 -0.75 9.79 -0.01 0.07 -0.04 4206
-0.03 0.45 0.49 -0.79 9.81 -0.00 0.07 -0.04 4213
-0.02 0.43 0.50 -0.81 9.79 -0.01 0.07 -0.04 4220
-0.02 0.43 0.50 -0.77 9.79 -0.00 0.07 -0.04 4228
-0.01 0.42 0.50 -0.81 9.76 -0.00 0.07 -0.04 4235
-0.01 0.40 0.51 -0.76 9.82 -0.00 0.07 -0.04 4242
0.00 0.37 0.50 -0.77 9.76 -0.01 0.06 -0.04 4249
-0.01 0.36 0.51 -0.76 9.76 -0.00 0.03 -0.04 4256
-0.01 0.36 0.53 -0.77 10.42 -0.00 0.06 -0.04 4263
-0.00 0.36 0.50 -0.77 9.79 0.00 0.06 -0.04 4271
0.01 0.35 0.52 -0.77 9.81 0.00 0.06 -0.04 4278
0.01 0.36 0.52 -0.78 9.79 0.00 0.06 -0.04 4285
0.02 0.35 0.54 -0.77 9.78 0.00 0.06 -0.04 4292
0.01 0.31 0.50 -0.76 9.80 0.00 0.06 -0.04 4299
0.01 0.28 0.54 -0.75 9.80 0.00 0.05 -0.05 4306
-0.01 0.31 0.53 -0.76 9.80 -0.00 0.05 -0.04 4314
0.03 0.29 0.53 -0.76 9.79 0.00 0.05 -0.05 4321
0.03 0.30 0.50 -0.79 9.78 0.00 0.05 -0.04 4328
0.01 0.29 0.54 -0.80 9.78 0.01 0.05 -0.05 4335
-0.01 0.27 0.58 -0.81 9.80 0.01 0.06 -0.05 4342
-0.01 0.28 0.56 -0.77 9.79 0.01 0.06 -0.05 4349
-0.01 0.29 0.53 -0.79 9.80 0.01 0.05 -0.05 4357
-0.00 0.29 0.57 -0.81 9.81 0.01 0.05 -0.04 4364
0.04 0.27 0.54 -0.79 9.71 0.01 0.04 -0.05 4371
0.04 0.22 0.56 -0.78 9.76 0.01 0.04 -0.05 4378
0.03 0.19 0.53 -0.76 9.78 0.01 0.04 -0.05 4385
-0.01 0.17 0.57 -0.82 9.79 0.01 0.03 -0.05 4392
0.00 0.16 0.57 -0.79 9.75 0.01 0.02 -0.06 4400
0.00 0.22 0.57 -0.80 9.74 0.01 0.00 -0.06 4407
0.02 0.19 0.58 -0.79 9.81 0.01 -0.01 -0.06 4414
0.01 0.20 0.57 -0.82 9.77 0.01 -0.03 -0.06 4421
0.01 0.17 0.59 -0.83 9.82 0.01 -0.05 -0.06 4428
0.02 0.12 0.58 -0.79 9.79 0.01 -0.06 -0.07 4435
0.04 0.08 0.52 -0.81 9.77 0.01 -0.06 -0.07 4443
0.05 0.11 0.49 -0.85 9.76 0.02 -0.04 -0.07 4450
0.09 0.04 0.40 -0.89 9.78 0.02 -0.01 -0.06 4457
0.08 0.03 0.43 -0.82 9.82 0.03 0.01 -0.06 4464
0.13 -0.01 0.46 -0.83 9.77 0.04 0.03 -0.06 4471
0.12 0.01 0.37 -0.99 9.72 0.05 0.05 -0.05 4478
0.11 0.00 0.41 -0.81 9.91 0.06 0.06 -0.05 4486
0.14 0.00 0.54 -0.87 9.90 0.06 0.07 -0.05 4493
0.15 0.00 0.56 -0.94 9.83 0.07 0.07 -0.05 4500
0.17 -0.01 0.55 -0.92 9.88 0.07 0.08 -0.06 4507
0.21 -0.02 0.01 -0.95 9.84 0.08 0.09 -0.07 4514
0.22 -0.01 0.61 -0.82 9.89 0.10 0.11 -0.09 4521
0.27 -0.00 0.46 -0.68 9.93 0.12 0.13 -0.09 4529
0.29 -0.02 0.54 -0.90 9.92 0.14 0.19 -0.09 4536
0.26 -0.02 0.54 -1.04 9.91 0.18 0.27 -0.12 4543
0.28 -0.02 0.84 -0.81 9.92 0.23 0.31 -0.14 4550
0.31 -0.03 0.59 -1.01 10.53 0.42 0.38 -0.18 4558
0.28 -0.01 0.66 -0.86 11.07 0.84 0.53 -0.17 4566
0.30 -0.00 0.70 -1.13 11.96 1.22 0.63 -0.18 4573
0.33 -0.02 0.67 -1.30 11.47 1.61 0.75 -0.21 4580
0.28 -0.02 1.00 -1.51 12.86 1.75 0.60 -0.26 4586
0.27 -0.02 0.70 -2.10 13.39 1.84 0.43 -0.29 4594
0.28 -0.02 1.16 -1.53 12.89 1.96 0.31 -0.29 4601
0.26 -0.02 0.98 -1.68 12.81 2.10 0.25 -0.29 4609
0.24 -0.01 0.78 -1.71 12.57 2.25 0.25 -0.29 4616
0.21 -0.02 1.02 -1.94 11.83 2.36 0.25 -0.31 4622
0.17 -0.02 0.70 -2.11 12.24 2.47 0.28 -0.29 4629
0.13 -0.01 0.67 -2.19 11.94 2.59 0.33 -0.27 4636
0.08 -0.01 0.65 -2.32 11.87 2.68 0.43 -0.24 4643
0.09 -0.01 0.48 -2.66 11.57 2.76 0.46 -0.21 4651
0.09 -0.01 0.48 -3.09 12.05 2.86 0.53 -0.16 4658
0.12 -0.01 0.54 -3.22 11.73 2.91 0.60 -0.11 4665
0.08 -0.01 0.47 -3.42 11.82 2.97 0.66 -0.06 4672
0.06 -0.01 0.69 -3.97 12.65 3.02 0.72 -0.01 4679
0.07 -0.01 1.17 -5.12 14.07 3.08 0.85 0.02 4686
0.07 -0.01 1.58 -5.09 13.66 3.11 1.03 0.04 4694
0.09 -0.01 1.78 -5.40 13.89 3.09 1.16 0.09 4701
0.08 -0.01 2.01 -5.14 13.39 3.04 1.32 0.09 4708
0.07 -0.01 1.71 -4.76 13.83 3.01 1.45 0.08 4715
0.07 -0.01 3.04 -4.79 12.78 2.93 1.51 0.06 4722
0.02 -0.00 4.53 -5.96 11.95 2.84 1.74 0.05 4729
0.04 -0.00 4.21 -5.35 12.82 2.70 2.06 0.02 4737
0.03 -0.00 3.13 -4.86 12.09 2.56 2.37 -0.06 4744
0.01 -0.00 0.68 -3.55 12.19 2.45 2.46 -0.15 4751
0.01 -0.00 -0.47 -3.34 12.50 2.28 2.34 -0.21 4758
0.00 -0.00 -1.89 -2.66 12.63 2.13 1.95 -0.27 4765
0.00 -0.00 -2.81 -1.27 10.81 1.96 1.42 -0.28 4772
-0.00 0.00 -3.57 2.40 10.21 1.74 0.89 -0.31 4780
0.01 -0.00 -3.57 6.05 7.56 1.35 0.32 -0.50 4787
0.00 0.00 -4.86 7.70 6.48 0.86 -0.21 -1.06 4794
0.00 0.00 -3.57 5.55 4.40 0.19 -0.67 -1.79 4801
0.00 0.00 -2.59 4.96 6.42 -0.23 -1.05 -2.31 4808
0.00 0.00 -3.29 4.35 9.21 -0.69 -1.00 -2.67 4815
0.00 0.00 -2.36 3.82 9.52 -1.05 -0.87 -3.15 4823
0.00 0.00 -1.77 3.66 8.30 -1.22 -0.93 -3.52 4830
0.00 0.00 -1.65 3.13 7.29 -1.32 -1.02 -3.77 4837
0.00 0.00 -1.33 2.66 6.49 -1.40 -1.10 -3.98 4844
0.00 0.00 -0.76 2.32 6.44 -1.50 -1.15 -4.11 4851
0.00 0.00 0.09 2.01 6.84 -1.58 -1.20 -4.19 4858
0.00 0.00 0.96 1.83 7.20 -1.66 -1.21 -4.21 4866
0.00 0.00 2.06 1.82 7.53 -1.78 -1.15 -4.18 4873
0.00 0.00 2.86 1.99 8.05 -1.90 -1.00 -4.07 4880
0.00 0.00 3.25 2.06 8.52 -2.07 -0.85 -3.92 4887
0.00 0.00 3.52 1.99 8.76 -2.25 -0.65 -3.69 4894
0.00 0.00 3.72 1.59 9.14 -2.40 -0.52 -3.43 4901
0.00 0.00 3.72 1.11 9.21 -2.56 -0.42 -3.21 4909
0.00 0.00 3.75 0.40 9.13 -2.65 -0.34 -2.93 4916
0.00 0.00 4.11 -0.10 9.25 -2.71 -0.30 -2.67 4923
0.00 0.00 4.52 -0.70 9.11 -2.73 -0.27 -2.47 4930
0.00 0.00 5.02 -1.38 9.19 -2.71 -0.18 -2.25 4937
0.00 0.00 5.53 -1.86 9.36 -2.67 -0.09 -2.08 4944
0.00 0.00 5.86 -2.20 9.72 -2.58 0.12 -1.89 4952
0.00 0.00 5.96 -2.55 10.04 -2.55 0.34 -1.71 4959
0.00 0.00 5.91 -2.94 10.38 -2.49 0.60 -1.56 4966
0.00 0.00 5.49 -3.43 10.88 -2.45 0.85 -1.38 4973
0.00 0.00 5.06 -3.91 11.25 -2.41 1.03 -1.22 4980
0.00 0.00 4.50 -4.42 11.68 -2.34 1.18 -1.01 4987
0.00 0.00 4.11 -4.92 11.86 -2.26 1.29 -0.77 4995
0.00 0.00 3.57 -5.33 12.18 -2.15 1.40 -0.55 5002
0.00 0.00 3.00 -5.65 12.27 -2.06 1.46 -0.30 5009
0.00 0.00 2.64 -5.67 12.49 -1.94 1.48 -0.07 5016
0.00 0.00 2.35 -5.39 12.51 -1.84 1.49 0.17 5023
0.00 0.00 2.05 -5.17 12.52 -1.76 1.51 0.39 5030
0.00 0.00 1.74 -4.99 12.59 -1.68 1.55 0.55 5038
0.00 0.00 1.30 -4.84 12.72 -1.57 1.58 0.69 5045
0.00 0.00 0.75 -4.74 12.73 -1.53 1.60 0.77 5052
0.00 0.00 0.11 -4.66 12.60 -1.43 1.59 0.83 5059
0.00 0.00 -0.51 -4.58 12.35 -1.35 1.52 0.85 5066
0.00 0.00 -0.96 -4.47 12.08 -1.24 1.39 0.84 5073
0.00 0.00 -1.23 -4.54 11.71 -1.13 1.22 0.81 5081
0.00 0.00 -1.26 -4.43 11.50 -0.99 1.09 0.77 5088
0.00 0.00 -1.28 -4.47 11.42 -0.83 0.96 0.70 5095
0.00 0.00 -1.55 -4.44 11.39 -0.70 0.86 0.63 5102
0.00 0.00 -1.70 -4.52 11.49 -0.55 0.82 0.55 5109
0.00 -0.00 -2.03 -4.61 11.92 -0.43 0.80 0.45 5116
0.00 -0.00 -2.57 -4.58 12.00 -0.37 0.76 0.35 5124
0.00 0.00 -3.07 -4.72 12.45 -0.35 0.72 0.25 5131
0.00 0.00 -3.58 -4.85 12.67 -0.36 0.69 0.13 5138
0.00 0.00 -3.79 -4.94 12.84 -0.41 0.67 0.03 5145
0.00 0.00 -3.94 -5.01 12.50 -0.47 0.68 -0.11 5152
0.00 -0.00 -4.10 -5.08 11.94 -0.53 0.76 -0.23 5159
0.00 0.00 -4.32 -5.06 11.44 -0.59 0.84 -0.35 5167
0.00 0.00 -4.66 -5.15 10.77 -0.63 1.00 -0.47 5174
0.00 0.00 -4.84 -5.33 10.48 -0.67 1.07 -0.62 5181
0.00 0.00 -4.85 -6.08 10.20 -0.65 1.11 -0.73 5188
0.00 0.00 -4.46 -6.54 9.82 -0.60 1.08 -0.86 5195
0.00 0.00 -4.09 -6.86 9.38 -0.52 1.03 -0.97 5202
0.00 0.00 -3.48 -7.16 8.60 -0.43 1.00 -1.08 5210
0.00 0.00 -2.99 -7.45 7.98 -0.30 1.02 -1.16 5217
0.00 0.00 -2.56 -7.69 7.79 -0.17 1.13 -1.23 5224
0.00 0.00 -2.34 -8.03 7.94 -0.11 1.30 -1.28 5231
-0.00 0.00 -2.49 -8.04 8.45 -0.10 1.48 -1.34 5238
0.00 0.00 -2.84 -8.04 8.92 -0.18 1.69 -1.39 5245
0.00 0.00 -3.10 -7.97 9.23 -0.33 1.84 -1.43 5253
0.00 0.00 -3.30 -7.62 9.08 -0.57 1.98 -1.44 5260
0.00 0.00 -3.51 -7.42 8.88 -0.79 2.06 -1.42 5267
0.00 0.00 -20.95 -11.32 9.37 -0.31 0.32 -1.03 5274
0.00 0.00 -9.23 -7.44 7.58 -0.47 -0.61 -0.84 5281
0.00 0.00 -9.63 -8.04 6.10 -0.47 -1.43 -0.57 5288
0.00 0.00 -8.26 -10.77 5.38 -0.37 -2.19 -0.22 5296
0.00 0.00 -7.16 -10.85 5.73 -0.19 -2.92 0.09 5303
0.00 0.00 -7.01 -7.25 7.88 0.13 -3.35 0.39 5310
-0.00 0.00 3.19 -2.72 -2.35 1.06 -0.74 0.78 5317
0.00 0.04 -1.45 -1.35 9.51 1.06 -0.17 1.33 5324
-0.01 0.08 -5.07 2.10 8.01 1.12 -0.25 1.37 5331
-0.02 0.18 -8.34 -0.50 9.90 1.20 -0.70 0.86 5339
-0.02 0.20 -6.66 -0.81 8.27 1.49 -0.85 0.16 5346
-0.02 0.21 2.69 -3.66 62.97 1.59 -1.35 -0.29 5353
-0.03 0.29 -0.92 -2.46 10.87 -0.07 -0.16 -0.11 5360
-0.01 0.27 0.39 -2.56 10.69 -0.16 0.00 -0.13 5368
-0.02 0.28 0.78 -1.28 9.70 -0.12 -0.03 -0.05 5374
-0.03 0.36 0.78 -0.86 9.93 -0.07 -0.06 -0.01 5382
-0.04 0.36 0.40 -0.74 9.88 -0.02 -0.05 -0.01 5389
-0.02 0.33 0.11 -0.87 9.98 -0.02 -0.03 -0.03 5396
-0.03 0.36 0.28 -1.04 9.77 -0.03 -0.01 -0.04 5403
-0.01 0.35 0.45 -0.96 9.82 -0.02 -0.00 -0.03 5410
-0.03 0.38 0.37 -0.99 9.83 -0.02 0.01 -0.03 5417
-0.03 0.35 0.40 -1.00 9.78 -0.02 0.02 -0.04 5425
-0.04 0.36 0.46 -0.97 9.79 -0.03 0.02 -0.05 5432
-0.03 0.36 0.51 -0.95 9.73 -0.03 0.01 -0.06 5439
-0.02 0.37 0.48 -0.94 9.77 -0.03 0.01 -0.07 5446
0.01 0.37 0.46 -0.90 9.78 -0.04 -0.00 -0.07 5453
0.00 0.43 0.46 -0.91 9.75 -0.04 0.00 -0.08 5460
0.00 0.41 0.45 -0.88 9.77 -0.04 0.00 -0.08 5468
-0.01 0.45 0.34 -0.91 9.77 -0.05 0.00 -0.08 5475
0.00 0.50 0.34 -0.93 9.81 -0.04 0.01 -0.07 5482
0.00 0.50 0.33 -0.86 9.84 -0.00 0.02 -0.07 5489
0.01 0.47 0.33 -0.87 9.80 -0.03 0.03 -0.03 5496
-0.00 0.52 0.36 -0.89 9.83 -0.02 0.03 -0.06 5504
0.00 0.51 0.35 -0.85 9.83 -0.02 0.04 -0.06 5511
-0.00 0.50 0.41 -0.88 9.81 -0.01 0.05 -0.06 5518
0.02 0.53 0.42 -0.94 9.83 -0.01 0.04 -0.05 5525
0.02 0.53 0.38 -0.88 9.77 -0.01 0.04 -0.06 5532
0.03 0.51 0.39 -0.91 9.82 -0.01 0.04 -0.06 5539
0.01 0.50 0.44 -0.90 9.80 -0.00 0.04 -0.06 5547
0.03 0.49 0.41 -0.89 9.81 -0.00 0.04 -0.06 5554
0.03 0.50 0.42 -0.90 9.81 -0.00 0.04 -0.06 5561
0.04 0.48 0.41 -0.90 9.79 0.00 0.03 -0.07 5568
0.06 0.46 0.39 -0.86 9.80 0.00 0.04 -0.07 5575
0.04 0.43 0.37 -0.87 9.82 0.00 0.03 -0.06 5582
0.04 0.43 0.37 -0.87 9.81 0.01 0.04 -0.06 5590
0.05 0.41 0.35 -0.86 9.81 0.01 0.04 -0.06 5597
0.04 0.39 0.37 -0.92 9.80 0.01 0.04 -0.06 5604
0.05 0.38 0.37 -0.85 10.39 0.01 0.04 -0.06 5611
0.06 0.37 0.39 -0.90 9.81 0.01 0.04 -0.06 5618
0.06 0.34 0.38 -0.88 9.77 0.01 0.04 -0.07 5625
0.07 0.34 0.40 -0.89 9.80 0.01 0.04 -0.07 5633
0.05 0.33 0.39 -0.92 9.78 0.01 0.04 -0.06 5640
0.08 0.31 0.39 -0.89 10.41 0.01 0.04 -0.07 5647
0.09 0.32 0.38 -0.89 9.76 0.01 0.04 -0.07 5654
0.10 0.29 0.38 -0.91 9.81 0.01 0.05 -0.06 5661
0.10 0.24 0.34 -0.90 9.61 0.01 0.05 -0.06 5668
0.11 0.21 0.43 -0.92 9.79 0.01 0.05 -0.07 5676
0.10 0.26 0.42 -0.91 9.78 0.00 0.04 -0.06 5683
0.12 0.25 0.41 -1.01 9.77 0.01 0.04 -0.06 5690
0.12 0.23 0.37 -0.91 9.81 0.01 0.05 -0.06 5697
0.14 0.26 0.39 -0.89 9.81 0.01 0.05 -0.07 5704
0.15 0.19 0.39 -0.91 9.80 0.01 0.04 -0.07 5711
0.14 0.20 0.40 -0.89 9.82 0.01 0.04 -0.07 5719
0.15 0.21 0.38 -0.92 9.77 0.01 0.04 -0.07 5726
0.21 0.19 0.37 -0.91 9.81 0.01 0.04 -0.07 5733
0.22 0.14 0.36 -0.90 9.78 0.01 0.04 -0.07 5740
0.23 0.12 0.40 -0.91 9.81 0.01 0.05 -0.07 5747
0.27 0.15 0.37 -0.90 9.81 0.01 0.04 -0.07 5754
0.28 0.05 0.37 -0.91 9.80 0.02 0.05 -0.07 5762
0.28 0.03 0.36 -0.94 9.83 0.02 0.05 -0.07 5769
0.29 0.03 0.37 -0.95 9.80 0.02 0.05 -0.07 5776
0.31 0.01 0.39 -0.86 9.81 0.02 0.05 -0.07 5783
0.31 -0.00 0.40 -0.91 9.80 0.02 0.04 -0.07 5790
0.33 0.01 0.42 -0.96 9.81 0.02 0.05 -0.07 5797
0.34 -0.00 0.38 -0.95 9.78 0.02 0.04 -0.06 5805
0.34 -0.01 0.37 -0.97 9.81 0.02 0.05 -0.07 5812
0.35 -0.00 0.40 -0.97 9.81 0.03 0.05 -0.07 5819
0.38 0.01 0.38 -0.97 9.80 0.03 0.05 -0.07 5826
0.37 -0.01 0.41 -0.93 9.83 0.03 0.05 -0.07 5833
0.38 -0.02 0.35 -0.93 9.81 0.03 0.05 -0.07 5840
0.38 -0.02 0.38 -0.97 9.79 0.03 0.05 -0.07 5848
0.38 -0.02 0.40 -0.98 9.81 0.03 0.05 -0.06 5855
0.39 0.00 0.44 -0.97 9.77 0.03 0.05 -0.07 5862
0.45 -0.01 0.40 -1.01 10.42 0.04 0.05 -0.07 5869
0.44 -0.02 0.44 -0.98 9.81 0.04 0.05 -0.07 5876
0.45 -0.03 0.45 -0.97 9.81 0.04 0.05 -0.08 5883
0.43 -0.02 0.42 -1.03 9.80 0.05 0.05 -0.08 5891
0.43 -0.01 0.43 -0.99 9.79 0.05 0.05 -0.08 5898
0.46 -0.02 0.41 -1.01 9.82 0.06 0.05 -0.09 5905
0.50 -0.02 0.52 -1.04 9.81 0.06 0.05 -0.09 5912
0.52 -0.02 0.54 -1.05 9.82 0.07 0.05 -0.10 5919
0.58 -0.02 0.19 -1.12 9.81 0.09 0.05 -0.11 5926
0.59 -0.02 0.45 -1.06 9.85 0.09 0.05 -0.12 5934
0.64 -0.02 0.43 -1.00 9.85 0.11 0.05 -0.14 5941
0.67 -0.03 0.46 -0.97 10.02 0.12 0.07 -0.19 5948
0.67 -0.03 0.16 -1.08 10.03 0.16 0.09 -0.18 5955
0.69 -0.01 0.44 -1.14 10.16 0.29 0.12 -0.17 5963
0.73 -0.01 0.37 -1.09 10.28 0.62 0.18 -0.18 5970
0.75 -0.01 0.68 -1.09 10.49 0.78 0.22 -0.23 5978
0.79 -0.00 0.34 -1.28 10.59 0.90 0.21 -0.21 5984
0.83 -0.01 0.54 -1.33 10.80 0.93 0.15 -0.22 5992
0.82 -0.01 0.54 -1.47 10.70 0.95 0.14 -0.22 5999
0.86 -0.02 0.50 -1.60 10.74 1.00 0.13 -0.23 6006
0.86 -0.01 0.53 -1.57 10.60 1.06 0.12 -0.23 6013
0.89 -0.01 0.85 -1.82 10.74 1.13 0.08 -0.24 6021
0.90 -0.01 0.52 -1.79 10.51 1.19 0.05 -0.25 6028
0.90 -0.01 0.52 -1.81 10.61 1.25 0.05 -0.25 6035
0.89 -0.01 0.49 -1.90 10.97 1.32 0.06 -0.26 6042
0.88 -0.02 0.27 -1.84 11.07 1.40 0.07 -0.24 6048
0.88 -0.01 0.56 -2.04 11.03 1.51 0.08 -0.24 6055
0.87 -0.01 0.60 -1.93 10.94 1.61 0.09 -0.26 6064
0.85 -0.01 0.88 -2.33 10.98 1.73 0.10 -0.28 6071
0.81 -0.01 0.28 -2.33 10.78 1.84 0.13 -0.30 6078
0.72 -0.01 0.09 -2.37 10.68 1.93 0.17 -0.27 6085
0.62 -0.01 0.02 -2.56 11.03 2.03 0.25 -0.23 6092
0.53 -0.00 0.19 -2.79 11.32 2.14 0.34 -0.20 6099
0.47 -0.02 1.30 -3.22 9.60 2.27 0.37 -0.19 6106
0.41 -0.02 -0.80 -3.20 10.63 2.35 0.28 -0.19 6114
0.26 -0.02 0.71 -3.92 12.77 2.47 0.43 -0.20 6121
0.21 -0.02 0.59 -3.69 12.65 2.67 0.56 -0.19 6128
0.15 -0.01 0.16 -3.77 12.05 2.84 0.71 -0.15 6134
0.09 -0.01 -0.03 -4.19 11.97 2.90 0.82 -0.10 6141
0.11 -0.01 -0.04 -5.00 12.70 2.95 0.99 -0.02 6149
0.12 -0.01 0.49 -5.64 13.18 3.00 1.19 0.09 6156
0.08 -0.01 1.67 -6.11 14.68 3.03 1.46 0.17 6163
0.07 -0.01 1.87 -6.46 14.37 3.02 1.81 0.22 6170
0.07 -0.01 2.77 -5.82 14.88 2.97 2.11 0.22 6177
0.06 -0.01 3.66 -5.08 13.50 2.87 2.48 0.17 6184
0.05 -0.00 5.04 -4.79 13.81 2.75 2.88 0.09 6192
0.04 -0.00 6.56 -7.05 12.22 2.63 3.33 0.06 6199
0.04 -0.00 6.30 -5.52 13.80 2.45 4.04 0.02 6206
0.04 -0.00 4.63 -6.01 13.22 2.29 4.28 -0.15 6213
0.00 -0.00 3.02 -6.11 13.72 2.15 4.28 -0.30 6220
0.01 -0.00 1.05 -6.82 13.55 2.16 4.28 -0.42 6227
0.01 -0.00 -0.87 -4.84 13.02 2.23 4.28 -0.51 6235
0.02 -0.00 -2.45 -3.76 11.59 2.21 4.28 -0.60 6242
0.01 -0.00 -3.09 -1.58 9.35 2.04 3.88 -0.66 6249
0.00 0.00 -4.05 1.32 8.34 1.72 3.26 -0.69 6256
0.00 0.00 -4.23 5.67 6.80 1.28 2.26 -0.83 6263
0.00 0.00 -7.68 10.06 6.43 0.56 1.33 -1.26 6270
0.01 -0.00 -6.08 6.03 4.60 -0.23 0.25 -1.90 6278
0.00 0.00 -3.25 3.88 9.80 -0.73 -0.66 -2.29 6285
0.00 0.00 -3.38 2.77 11.52 -1.22 -0.82 -2.50 6292
0.00 0.00 -2.45 2.76 10.07 -1.57 -0.71 -2.86 6299
0.00 0.00 -1.46 3.22 7.62 -1.75 -0.64 -3.21 6306
0.00 0.00 -1.22 3.25 6.05 -1.87 -0.59 -3.48 6313
0.00 0.00 -1.34 2.93 5.97 -1.97 -0.55 -3.69 6321
0.00 0.00 -1.30 2.64 6.18 -2.07 -0.54 -3.84 6328
0.00 0.00 -1.14 2.40 6.49 -2.15 -0.59 -3.94 6335
0.00 0.00 -0.79 2.18 7.05 -2.21 -0.65 -3.97 6342
0.00 0.00 -0.47 1.93 7.39 -2.30 -0.76 -3.94 6349
0.00 0.00 -0.08 1.67 7.63 -2.38 -0.88 -3.87 6356
0.00 -0.00 0.17 1.38 7.92 -2.49 -1.01 -3.77 6364
0.00 0.00 0.69 0.96 8.43 -2.60 -1.16 -3.62 6371
0.00 0.00 1.25 0.68 9.11 -2.69 -1.27 -3.44 6378
0.00 0.00 1.88 0.42 9.78 -2.80 -1.35 -3.25 6385
0.00 0.00 2.78 0.26 10.46 -2.95 -1.34 -2.98 6392
0.00 0.00 3.54 -0.21 11.02 -3.09 -1.25 -2.67 6400
0.00 0.00 4.28 -0.37 10.79 -3.26 -1.14 -2.36 6407
0.00 0.00 4.62 -0.16 10.56 -3.38 -1.00 -2.06 6414
0.00 0.00 4.89 -0.41 10.09 -3.46 -0.84 -1.84 6421
0.00 0.00 5.21 -1.23 9.81 -3.46 -0.58 -1.62 6428
0.00 0.00 5.45 -2.04 9.76 -3.39 -0.34 -1.44 6435
0.00 0.00 5.61 -2.71 9.74 -3.24 -0.03 -1.32 6443
0.00 0.00 5.66 -3.04 9.84 -3.09 0.29 -1.19 6450
0.00 0.00 5.48 -3.26 9.97 -2.91 0.53 -1.10 6457
0.00 0.00 4.86 -3.59 10.56 -2.76 0.76 -1.00 6464
0.00 0.00 4.12 -4.14 11.07 -2.64 0.86 -0.89 6471
0.00 0.00 3.42 -4.70 11.67 -2.52 0.87 -0.80 6478
0.00 0.00 3.14 -5.15 12.36 -2.44 0.80 -0.70 6486
0.00 0.00 3.37 -5.26 13.32 -2.38 0.73 -0.59 6493
0.00 0.00 3.62 -5.26 13.76 -2.37 0.70 -0.46 6500
0.00 0.00 3.85 -5.29 13.89 -2.36 0.73 -0.32 6507
0.00 0.00 4.13 -5.36 13.70 -2.36 0.83 -0.20 6514
0.00 0.00 3.93 -5.25 13.32 -2.32 1.02 -0.06 6521
0.00 0.00 3.53 -5.29 12.95 -2.25 1.22 0.11 6529
0.00 0.00 2.73 -5.41 12.66 -2.11 1.43 0.24 6536
0.00 0.00 1.71 -5.64 12.37 -1.96 1.56 0.39 6543
0.00 0.00 0.93 -5.76 12.14 -1.76 1.61 0.48 6550
0.00 0.00 0.08 -6.02 11.85 -1.55 1.57 0.56 6557
0.00 0.00 -0.44 -6.14 11.56 -1.35 1.47 0.61 6564
0.00 0.00 -0.84 -6.24 11.17 -1.11 1.32 0.62 6572
0.00 0.00 -1.12 -6.28 10.97 -0.88 1.16 0.61 6579
0.00 0.00 -1.35 -6.38 11.01 -0.62 1.04 0.60 6586
0.00 0.00 -1.55 -6.57 11.39 -0.39 0.93 0.54 6593
0.00 0.00 -1.67 -6.59 11.85 -0.24 0.90 0.47 6600
0.00 0.00 -1.67 -6.86 12.35 -0.11 0.93 0.39 6607
0.00 0.00 -1.65 -7.01 12.71 -0.06 1.00 0.25 6615
0.00 0.00 -1.43 -6.87 13.14 -0.08 1.13 0.10 6622
0.00 0.00 -1.20 -6.67 13.70 -0.23 1.31 -0.08 6629
0.00 0.00 -1.84 -6.31 14.37 -0.45 1.55 -0.27 6636
0.00 0.00 -1.89 -6.25 14.39 -0.79 1.78 -0.43 6643
0.00 0.00 -2.79 -6.71 13.56 -1.12 1.95 -0.61 6650
0.00 0.00 -3.87 -6.81 12.21 -1.36 2.00 -0.74 6658
0.00 0.00 -5.15 -7.00 10.70 -1.50 1.99 -0.88 6665
0.00 0.00 -12.49 -8.78 8.84 -1.26 1.29 -0.92 6672
0.00 0.00 -10.09 -6.95 6.70 -1.18 0.88 -0.98 6679
0.00 0.00 -10.05 -8.90 7.79 -0.99 0.47 -1.04 6686
0.00 0.00 -9.01 -10.32 7.64 -0.86 0.04 -1.15 6693
0.00 0.00 -7.03 -10.81 7.62 -0.71 -0.32 -1.29 6701
0.00 0.00 -5.57 -11.11 8.46 -0.60 -0.49 -1.43 6708
0.00 0.00 -5.56 -11.60 8.41 -0.49 -0.54 -1.49 6715
0.00 0.00 -5.89 -11.51 7.82 -0.37 -0.61 -1.50 6722
0.00 0.00 -6.94 -12.74 7.21 -0.23 -0.76 -1.38 6729
0.00 0.00 -7.09 -13.92 7.06 0.11 -0.85 -1.07 6736
-0.00 0.00 -8.62 -16.52 5.80 0.49 -1.04 -0.46 6744
-0.00 0.01 -5.21 -11.36 3.25 0.97 -0.83 0.49 6751
-0.00 0.02 -0.14 2.06 5.73 1.27 -0.33 1.10 6758
-0.01 0.07 -3.77 -4.39 11.63 1.54 -0.28 1.12 6765
-0.02 0.20 -8.83 -0.42 11.89 1.80 -0.65 0.73 6773
-0.00 0.22 -6.12 -0.20 10.31 1.91 -0.92 0.04 6780
-0.02 0.25 -1.51 -0.73 26.01 0.88 -2.50 -0.36 6788
-0.02 0.27 -1.38 -2.98 20.18 0.04 -1.13 -0.14 6795
-0.03 0.33 0.19 -2.60 10.64 -0.10 -0.15 -0.10 6801
-0.03 0.31 0.57 -1.49 9.97 -0.10 -0.05 -0.06 6808
-0.02 0.34 0.79 -1.02 9.81 -0.05 -0.07 -0.02 6815
-0.03 0.35 0.56 -0.66 9.93 -0.01 -0.06 -0.00 6822
-0.03 0.37 0.15 -0.80 9.90 -0.01 -0.02 -0.02 6830
-0.03 0.34 0.31 -0.86 9.81 -0.01 -0.01 -0.03 6837
-0.04 0.36 0.51 -0.86 9.76 -0.01 -0.01 -0.03 6844
-0.03 0.39 0.46 -0.83 9.79 -0.01 -0.01 -0.03 6851
-0.03 0.42 0.38 -0.84 9.78 -0.02 -0.01 -0.04 6858
-0.02 0.39 0.44 -0.82 9.77 -0.03 -0.01 -0.05 6865
-0.03 0.42 0.46 -0.78 9.77 -0.03 -0.02 -0.06 6873
-0.03 0.41 0.49 -0.82 9.78 -0.03 -0.04 -0.06 6880
-0.04 0.41 0.46 -0.81 9.74 -0.03 -0.04 -0.07 6887
-0.03 0.44 0.40 -0.79 9.80 -0.04 -0.04 -0.08 6894
-0.02 0.49 0.41 -0.80 9.79 -0.03 -0.03 -0.08 6901
0.01 0.48 0.40 -0.78 9.82 -0.03 -0.02 -0.08 6908
0.00 0.43 0.01 -0.86 9.71 -0.03 -0.01 -0.07 6916
-0.00 0.46 0.29 -0.78 9.78 -0.03 0.01 -0.08 6923
0.04 0.47 0.35 -0.80 9.83 -0.03 0.02 -0.06 6930
0.04 0.49 0.33 -0.80 9.84 -0.03 0.03 -0.06 6937
0.04 0.50 0.37 -0.80 9.82 -0.02 0.04 -0.06 6944
0.04 0.49 0.38 -0.81 9.83 -0.01 0.05 -0.06 6951
0.05 0.48 0.40 -0.80 9.81 -0.01 0.05 -0.05 6959
0.04 0.48 0.46 -0.79 9.79 -0.01 0.04 -0.06 6966
0.05 0.51 0.45 -0.80 9.79 -0.01 0.04 -0.06 6973
0.06 0.53 0.45 -0.81 9.80 -0.01 0.04 -0.06 6980
0.08 0.50 0.46 -0.78 9.81 -0.00 0.03 -0.06 6987
0.07 0.47 0.42 -0.78 9.20 -0.00 0.03 -0.07 6994
0.08 0.46 0.43 -0.79 9.79 0.00 0.02 -0.07 7002
0.07 0.45 0.36 -0.81 9.81 0.00 0.03 -0.07 7009
0.07 0.43 0.35 -0.78 9.83 0.01 0.03 -0.06 7016
0.08 0.41 0.41 -0.80 9.79 0.01 0.04 -0.07 7023
0.09 0.41 0.35 -0.78 9.80 0.01 0.04 -0.07 7030
0.09 0.36 0.38 -0.80 9.82 0.01 0.04 -0.07 7037
0.10 0.34 0.39 -0.77 9.75 0.01 0.04 -0.06 7045
0.08 0.34 0.39 -0.80 9.82 0.01 0.04 -0.06 7052
0.11 0.31 0.36 -0.81 9.81 0.01 0.04 -0.07 7059
0.12 0.30 0.40 -0.82 9.81 0.01 0.04 -0.07 7066
0.11 0.28 0.45 -0.84 9.80 0.01 0.04 -0.07 7073
0.11 0.25 0.41 -0.81 9.78 0.02 0.04 -0.07 7080
0.12 0.22 0.39 -0.83 9.20 0.02 0.05 -0.07 7088
0.12 0.24 0.39 -0.83 9.77 0.02 0.04 -0.07 7095
0.14 0.19 0.41 -0.81 9.81 0.01 0.04 -0.07 7102
0.16 0.20 0.38 -0.83 9.78 0.01 0.04 -0.06 7109
0.18 0.19 0.40 -0.84 9.81 0.01 0.04 -0.07 7116
0.16 0.17 0.43 -0.81 9.82 0.01 0.04 -0.06 7123
0.18 0.15 0.39 -0.82 9.79 0.01 0.04 -0.07 7131
0.16 0.16 0.39 -0.82 9.82 0.01 0.04 -0.06 7138
0.19 0.17 0.40 -0.82 9.81 0.01 0.05 -0.07 7145
0.21 0.13 0.38 -0.79 9.80 0.01 0.05 -0.06 7152
0.21 0.16 0.40 -0.84 9.80 0.01 0.05 -0.07 7159
0.22 0.14 0.42 -0.81 9.81 0.01 0.04 -0.07 7166
0.24 0.10 0.38 -0.84 9.82 0.01 0.05 -0.06 7174
0.26 0.04 0.38 -0.85 9.80 0.01 0.05 -0.06 7181
0.26 0.06 0.40 -0.84 9.81 0.01 0.05 -0.07 7188
0.30 0.04 0.45 -0.81 9.79 0.01 0.05 -0.06 7195
0.30 0.03 0.43 -0.83 9.80 0.01 0.05 -0.07 7202
0.29 0.04 0.42 -0.86 9.80 0.02 0.05 -0.07 7209
0.30 0.00 0.42 -0.84 10.41 0.02 0.05 -0.07 7217
0.30 0.02 0.44 -0.85 9.82 0.02 0.05 -0.07 7224
0.33 0.01 0.40 -0.85 9.81 0.02 0.05 -0.07 7231
0.36 -0.01 0.41 -0.83 9.80 0.02 0.05 -0.07 7238
0.36 0.01 0.41 -0.84 9.78 0.02 0.06 -0.07 7245
0.37 0.00 0.46 -0.84 9.81 0.02 0.05 -0.07 7252
0.36 0.03 0.41 -0.85 9.81 0.02 0.06 -0.07 7260
0.36 0.01 0.39 -0.90 9.81 0.02 0.06 -0.07 7267
0.38 -0.01 0.43 -0.86 9.82 0.02 0.06 -0.07 7274
0.40 -0.02 0.42 -0.86 9.80 0.02 0.06 -0.07 7281
0.38 0.02 0.39 -0.84 9.78 0.02 0.06 -0.06 7288
0.40 -0.03 0.43 -0.84 9.78 0.02 0.06 -0.07 7296
0.38 -0.02 0.42 -0.87 9.81 0.03 0.06 -0.07 7303
0.38 -0.00 0.41 -0.87 9.80 0.03 0.06 -0.07 7310
0.38 -0.01 0.45 -0.86 9.79 0.03 0.06 -0.07 7317
0.39 -0.02 0.41 -0.85 9.81 0.03 0.07 -0.07 7324
0.40 -0.02 0.43 -0.86 9.82 0.04 0.06 -0.07 7331
0.43 -0.01 0.45 -0.90 9.82 0.04 0.07 -0.07 7339
0.44 -0.02 0.43 -0.92 9.78 0.04 0.07 -0.07 7346
0.45 -0.01 0.51 -0.89 9.81 0.05 0.07 -0.08 7353
0.49 -0.01 0.37 -0.86 9.85 0.05 0.08 -0.08 7360
0.51 -0.02 0.50 -0.76 9.78 0.07 0.08 -0.08 7367
0.52 -0.02 0.44 -0.95 9.84 0.08 0.09 -0.08 7374
0.50 -0.03 0.54 -0.93 9.88 0.09 0.10 -0.09 7382
0.50 -0.03 0.51 -0.98 9.92 0.11 0.11 -0.10 7389
0.54 -0.02 0.58 -0.91 9.91 0.14 0.13 -0.13 7396
0.58 -0.03 0.43 -0.98 9.94 0.19 0.17 -0.13 7403
0.60 -0.01 0.57 -0.97 10.34 0.28 0.25 -0.13 7411
0.62 -0.02 0.51 -0.92 10.27 0.65 0.33 -0.12 7418
0.67 -0.01 0.87 -1.30 10.16 0.89 0.35 -0.13 7426
0.70 -0.01 0.46 -1.22 10.97 1.02 0.39 -0.15 7433
0.72 -0.00 0.46 -1.35 11.21 1.09 0.34 -0.17 7440
0.73 -0.01 0.57 -1.36 11.18 1.12 0.23 -0.18 7447
0.75 -0.01 0.63 -1.51 11.16 1.17 0.17 -0.19 7454
0.78 -0.02 0.68 -1.64 11.27 1.26 0.09 -0.20 7461
0.77 -0.01 0.75 -1.59 11.57 1.36 0.05 -0.20 7469
0.79 -0.01 0.91 -1.82 11.58 1.50 0.03 -0.21 7476
0.81 -0.01 0.82 -1.79 11.60 1.62 0.00 -0.24 7482
0.80 -0.01 0.64 -1.87 11.52 1.73 -0.02 -0.25 7490
0.78 -0.01 0.34 -1.92 11.37 1.86 -0.06 -0.23 7497
0.75 -0.01 0.43 -2.14 11.34 1.95 -0.07 -0.19 7504
0.69 -0.01 0.26 -2.21 11.31 2.06 -0.07 -0.17 7512
0.68 -0.00 0.58 -2.30 11.43 2.19 -0.08 -0.14 7519
0.61 -0.00 0.47 -2.57 11.98 2.29 -0.09 -0.14 7526
0.53 -0.01 0.28 -2.85 11.75 2.38 -0.09 -0.13 7533
0.45 -0.03 0.34 -3.02 11.80 2.52 0.07 -0.14 7539
0.37 -0.03 0.33 -3.18 11.25 2.71 0.19 -0.13 7547
0.23 -0.02 0.20 -3.28 11.81 2.87 0.33 -0.11 7555
0.13 -0.00 -0.46 -3.72 12.03 2.97 0.50 -0.08 7562
0.15 -0.01 -0.17 -4.23 12.38 3.09 0.64 -0.03 7568
0.08 -0.01 -0.19 -4.84 11.97 3.16 0.83 0.04 7575
0.10 -0.01 -0.04 -5.35 13.80 3.22 0.97 0.11 7582
0.08 -0.01 0.72 -6.01 15.07 3.22 1.20 0.19 7589
0.05 -0.01 0.45 -6.48 14.48 3.19 1.46 0.27 7597
0.06 -0.01 0.47 -6.60 14.34 3.17 1.64 0.34 7604
0.07 -0.01 0.42 -5.87 13.80 3.16 1.79 0.39 7611
0.05 -0.00 0.93 -5.68 12.48 3.15 1.90 0.42 7618
0.03 -0.00 1.08 -5.43 12.50 3.14 2.07 0.47 7625
0.01 -0.00 1.37 -6.47 11.44 3.12 2.29 0.54 7632
0.01 -0.00 1.21 -6.16 14.67 3.01 2.60 0.58 7640
0.00 -0.00 1.26 -6.50 14.70 2.90 2.91 0.58 7647
0.01 -0.00 -0.05 -6.10 14.81 2.82 3.06 0.51 7654
0.01 -0.00 -1.23 -6.11 13.93 2.76 2.95 0.50 7661
0.00 -0.00 -2.13 -5.28 13.91 2.71 2.67 0.48 7668
0.00 0.00 -3.43 -3.14 10.89 2.60 2.27 0.48 7675
0.00 0.00 -2.14 0.11 9.52 2.39 1.79 0.45 7683
0.00 0.00 -2.36 5.66 7.65 2.05 1.35 0.30 7690
0.00 0.00 -5.48 9.79 6.46 1.46 0.85 -0.21 7697
0.00 0.00 -3.82 5.45 5.41 0.82 0.19 -1.44 7704
0.00 0.00 -3.83 4.13 11.52 0.25 -0.35 -2.09 7711
0.00 0.00 -3.97 2.86 13.37 -0.23 -0.41 -2.56 7718
0.00 0.00 -3.96 2.74 11.51 -0.53 -0.40 -3.09 7726
0.00 -0.00 -3.25 3.78 9.62 -0.74 -0.56 -3.54 7733
0.00 0.00 -2.66 4.10 7.67 -0.89 -0.77 -3.91 7740
0.00 0.00 -2.27 3.76 7.25 -1.06 -0.92 -4.16 7747
0.00 0.00 -1.45 3.29 7.36 -1.24 -1.08 -4.27 7754
0.00 0.00 -0.81 3.04 7.80 -1.39 -1.22 -4.28 7761
0.00 0.00 0.01 3.08 8.17 -1.58 -1.26 -4.28 7769
0.00 -0.00 0.82 3.24 8.66 -1.81 -1.25 -4.28 7776
0.00 0.00 1.33 3.25 8.77 -2.03 -1.20 -4.21 7783
0.00 0.00 1.88 3.34 8.81 -2.32 -1.11 -4.05 7790
0.00 0.00 2.39 3.16 8.61 -2.57 -1.05 -3.82 7797
0.00 0.00 2.99 2.93 8.72 -2.83 -1.00 -3.58 7804
0.00 0.00 3.28 2.40 8.61 -3.03 -0.91 -3.25 7812
0.00 0.00 3.56 1.54 8.64 -3.15 -0.82 -2.91 7819
0.00 0.00 3.94 0.95 8.75 -3.25 -0.74 -2.62 7826
0.00 0.00 4.37 0.53 9.16 -3.31 -0.70 -2.31 7833
0.00 0.00 4.70 -0.06 9.49 -3.37 -0.68 -2.06 7840
0.00 0.00 5.42 -0.92 9.67 -3.43 -0.65 -1.77 7847
0.00 0.00 5.87 -1.75 9.88 -3.47 -0.59 -1.49 7855
0.00 0.00 6.39 -2.44 10.18 -3.48 -0.52 -1.26 7862
0.00 0.00 6.95 -3.06 10.44 -3.46 -0.40 -1.00 7869
0.00 0.00 7.41 -3.55 10.58 -3.40 -0.24 -0.74 7876
0.00 0.00 7.92 -3.87 10.84 -3.31 0.00 -0.54 7883
0.00 0.00 8.20 -4.25 11.23 -3.21 0.36 -0.32 7890
0.00 0.00 8.11 -4.83 11.53 -3.10 0.66 -0.12 7898
0.00 0.00 7.66 -5.40 12.30 -3.00 1.06 0.11 7905
0.00 0.00 6.98 -5.75 13.60 -2.87 1.35 0.36 7912
0.00 0.00 6.27 -6.30 13.55 -2.75 1.59 0.59 7919
0.00 0.00 5.50 -6.53 14.04 -2.66 1.72 0.85 7926
0.00 0.00 4.90 -6.84 14.22 -2.56 1.75 1.07 7933
0.00 0.00 4.24 -7.08 14.32 -2.47 1.71 1.30 7941
0.00 0.00 3.79 -7.22 14.22 -2.39 1.65 1.45 7948
0.00 0.00 3.39 -7.21 13.91 -2.30 1.56 1.54 7955
0.00 0.00 3.09 -7.05 13.61 -2.20 1.51 1.57 7962
0.00 0.00 2.89 -6.96 13.37 -2.08 1.53 1.55 7969
0.00 0.00 2.52 -6.88 13.24 -1.96 1.61 1.48 7976
0.00 0.00 2.06 -6.83 13.03 -1.85 1.71 1.37 7984
0.00 0.00 1.37 -6.85 12.74 -1.72 1.79 1.25 7991
0.00 0.00 0.74 -6.94 12.37 -1.56 1.82 1.09 7998
0.00 0.00 0.30 -7.07 11.96 -1.41 1.78 0.91 8005
0.00 0.00 0.01 -7.26 11.86 -1.20 1.68 0.78 8012
0.00 0.00 -0.29 -7.52 11.73 -1.01 1.55 0.61 8019
0.00 0.00 -0.53 -7.64 12.18 -0.78 1.45 0.48 8027
0.00 0.00 -0.62 -7.79 11.43 -0.56 1.31 0.34 8034
0.00 0.00 -0.54 -7.87 11.82 -0.38 1.20 0.22 8041
0.00 0.00 -0.47 -7.89 12.05 -0.23 1.11 0.14 8048
0.00 0.00 -0.29 -7.73 12.37 -0.17 1.09 0.07 8055
0.00 -0.00 -0.17 -7.68 12.52 -0.17 1.10 0.03 8062
0.00 0.00 -0.38 -7.58 12.45 -0.22 1.18 -0.00 8070
0.00 0.00 -0.71 -7.54 11.86 -0.30 1.31 -0.01 8077
0.00 0.00 -0.99 -7.87 11.46 -0.34 1.58 0.01 8084
0.00 0.00 -1.65 -8.07 10.99 -0.39 1.85 0.06 8091
0.00 0.00 -2.05 -8.36 11.22 -0.48 2.07 0.11 8098
0.00 0.00 -2.45 -8.48 11.18 -0.65 2.25 0.18 8105
0.00 0.00 -3.09 -8.72 10.92 -0.86 2.30 0.27 8113
0.00 0.00 -3.84 -9.10 10.56 -1.10 2.19 0.37 8120
0.00 0.00 -4.56 -9.81 9.83 -1.32 1.87 0.50 8127
0.00 0.00 -11.06 -16.11 25.55 -1.10 0.76 0.65 8134
-0.00 0.00 -6.46 -12.42 6.91 -0.96 -0.09 0.78 8141
0.00 0.00 -7.14 -12.20 3.43 -0.85 -0.86 0.85 8148
0.00 0.00 -5.91 -14.45 4.30 -0.55 -1.45 0.93 8156
0.00 0.00 -4.42 -14.95 4.39 -0.25 -1.98 0.94 8163
0.00 0.00 -3.13 -14.70 4.93 0.07 -2.11 0.88 8170
0.00 0.00 -2.64 -14.96 4.92 0.39 -2.11 0.81 8177
0.00 0.00 -3.82 -17.26 6.05 0.65 -2.13 0.80 8184
-0.00 0.01 -2.07 -18.69 7.23 1.22 -1.64 1.12 8192
-0.00 0.01 -3.69 -11.71 7.10 1.72 -0.69 1.73 8199
-0.00 0.02 -5.80 -2.79 11.15 1.91 -0.74 1.93 8206
-0.01 0.07 -12.02 -4.58 12.38 1.83 -1.08 1.55 8214
-0.02 0.18 -9.14 -0.55 12.35 1.72 -1.26 0.80 8220
-0.01 0.22 -6.15 -3.69 19.48 1.77 -1.18 0.05 8228
-0.02 0.29 -0.16 -1.77 16.14 0.15 -1.35 -0.31 8236
-0.03 0.30 -0.46 -1.86 10.83 -0.11 -0.12 -0.16 8242
-0.03 0.29 0.17 -1.11 10.09 -0.17 -0.00 -0.17 8249
-0.03 0.28 1.47 -1.72 9.83 -0.10 -0.06 -0.18 8256
-0.02 0.36 0.64 -0.97 9.81 -0.02 -0.04 -0.01 8263
-0.01 0.36 0.28 -0.61 9.88 -0.00 -0.01 0.01 8270
-0.02 0.34 0.06 -0.74 9.88 -0.01 0.01 -0.02 8278
-0.03 0.35 0.33 -0.80 9.81 -0.01 0.03 -0.03 8285
-0.02 0.31 0.49 -0.85 9.80 -0.00 0.05 -0.02 8292
-0.02 0.33 0.39 -0.86 9.83 -0.01 0.06 -0.01 8299
-0.03 0.37 0.40 -0.84 9.81 -0.01 0.07 -0.02 8306
-0.02 0.35 0.49 -0.81 9.75 -0.02 0.06 -0.02 8313
-0.03 0.38 0.55 -0.79 9.76 -0.02 0.06 -0.02 8321
-0.03 0.39 0.54 -0.72 9.76 -0.02 0.04 -0.03 8328
-0.03 0.39 0.44 -1.19 10.30 -0.03 0.01 -0.04 8335
-0.03 0.41 0.47 -0.75 9.74 -0.03 -0.00 -0.04 8342
0.01 0.39 0.42 -0.72 9.75 -0.04 -0.01 -0.05 8349
-0.02 0.44 0.41 -0.78 9.82 -0.04 -0.01 -0.05 8356
-0.03 0.44 0.38 -0.73 9.81 -0.04 0.00 -0.05 8364
-0.03 0.43 0.35 -0.79 9.83 -0.04 0.02 -0.05 8371
-0.02 0.45 0.36 -0.74 9.82 -0.03 0.03 -0.05 8378
-0.00 0.45 0.38 -0.77 9.82 -0.03 0.04 -0.04 8385
-0.01 0.49 0.40 -0.72 9.83 -0.03 0.05 -0.04 8392
0.03 0.47 0.40 -0.75 9.80 -0.02 0.05 -0.04 8399
-0.01 0.46 0.47 -0.68 9.83 -0.01 0.05 -0.04 8407
-0.02 0.47 0.48 -0.74 9.79 -0.01 0.05 -0.04 8414
-0.02 0.45 0.46 -0.76 9.79 -0.01 0.04 -0.05 8421
-0.02 0.46 0.48 -0.76 9.79 -0.01 0.04 -0.05 8428
-0.01 0.44 0.46 -0.74 10.41 -0.01 0.03 -0.06 8435
-0.00 0.43 0.44 -0.76 9.81 -0.00 0.03 -0.06 8442
-0.01 0.41 0.43 -0.75 9.79 -0.00 0.03 -0.06 8450
0.02 0.38 0.40 -0.76 9.82 -0.00 0.03 -0.07 8457
0.01 0.39 0.44 -0.76 9.81 0.01 0.03 -0.06 8464
0.02 0.38 0.37 -0.75 9.80 0.01 0.04 -0.06 8471
0.02 0.37 0.40 -0.75 9.83 0.01 0.05 -0.06 8478
0.03 0.35 0.42 -0.74 9.82 0.01 0.04 -0.05 8485
0.04 0.34 0.46 -0.76 9.79 0.01 0.05 -0.05 8493
0.03 0.31 0.46 -0.75 9.80 0.02 0.04 -0.05 8500
0.02 0.30 0.46 -0.77 9.78 0.02 0.04 -0.06 8507
0.04 0.30 0.44 -0.76 9.81 0.02 0.04 -0.06 8514
0.06 0.26 0.46 -0.78 9.79 0.02 0.04 -0.06 8521
0.05 0.27 0.44 -0.77 9.79 0.02 0.04 -0.06 8528
0.06 0.24 0.44 -0.79 9.81 0.02 0.04 -0.06 8536
0.06 0.18 0.44 -0.80 9.80 0.02 0.04 -0.06 8543
0.05 0.19 0.45 -0.77 9.81 0.02 0.04 -0.06 8550
0.04 0.19 0.45 -0.76 9.82 0.02 0.04 -0.07 8557
0.08 0.18 0.47 -0.78 9.78 0.02 0.03 -0.07 8564
0.09 0.13 0.44 -0.80 9.81 0.02 0.03 -0.07 8571
0.09 0.08 0.42 -0.78 9.77 0.01 0.03 -0.10 8579
0.10 0.07 0.45 -0.80 9.79 0.01 0.03 -0.07 8586
0.13 0.04 0.46 -0.79 9.81 0.01 0.03 -0.07 8593
0.13 0.07 0.42 -0.81 9.79 0.01 0.02 -0.07 8600
0.15 0.05 0.41 -0.81 9.80 0.01 0.03 -0.07 8607
0.14 0.03 0.39 -0.77 9.83 0.01 0.03 -0.07 8614
0.14 -0.00 0.45 -0.81 9.81 0.01 0.03 -0.07 8622
0.13 0.01 0.41 -0.81 9.77 0.01 0.03 -0.07 8629
0.19 0.02 0.46 -0.81 9.80 0.01 0.03 -0.07 8636
0.22 0.01 0.44 -0.87 9.82 0.01 0.03 -0.07 8643
0.24 0.02 0.38 -0.83 9.82 0.02 0.04 -0.07 8650
0.25 -0.01 0.43 -0.80 9.82 0.02 0.04 -0.07 8657
0.24 -0.01 0.37 -0.81 9.80 0.02 0.04 -0.07 8665
0.22 0.01 0.42 -0.81 9.83 0.02 0.04 -0.07 8672
0.25 -0.00 0.41 -0.84 9.83 0.03 0.04 -0.07 8679
0.27 -0.00 0.43 -0.84 9.82 0.03 0.04 -0.07 8686
0.29 -0.00 0.46 -0.84 10.42 0.03 0.04 -0.07 8693
0.30 -0.01 0.44 -0.85 9.80 0.03 0.04 -0.07 8700
0.29 -0.02 0.48 -0.84 9.82 0.04 0.05 -0.07 8708
0.34 -0.02 0.42 -0.84 9.82 0.04 0.04 -0.07 8715
0.38 -0.02 0.49 -0.86 9.82 0.05 0.05 -0.07 8722
0.42 -0.03 0.43 -0.83 9.82 0.05 0.05 -0.07 8729
0.42 -0.02 0.45 -0.85 9.81 0.06 0.05 -0.08 8736
0.47 -0.03 0.40 -0.84 9.81 0.07 0.05 -0.08 8743
0.48 -0.01 0.40 -0.89 9.85 0.08 0.06 -0.08 8751
0.54 -0.02 0.41 -0.89 9.84 0.09 0.06 -0.09 8758
0.56 -0.02 0.44 -0.91 9.81 0.10 0.06 -0.08 8765
0.60 -0.02 0.58 -0.88 9.82 0.12 0.05 -0.09 8772
0.64 -0.04 0.39 -0.91 9.84 0.15 0.06 -0.09 8779
0.67 -0.01 0.62 -0.99 9.89 0.18 0.06 -0.10 8786
0.67 -0.01 0.55 -1.01 9.94 0.21 0.09 -0.13 8794
0.72 -0.01 0.35 -0.87 10.74 0.33 0.13 -0.14 8802
0.76 -0.00 0.51 -0.99 10.39 0.64 0.18 -0.13 8809
0.81 -0.01 0.69 -1.19 10.10 0.78 0.20 -0.14 8816
0.87 -0.01 0.56 -1.05 10.68 0.87 0.20 -0.17 8823
0.92 -0.02 0.41 -1.15 10.92 0.89 0.11 -0.17 8830
0.97 -0.01 0.47 -1.37 10.55 0.90 0.04 -0.17 8837
1.01 -0.02 0.36 -1.29 10.36 0.91 0.01 -0.16 8845
1.03 -0.02 0.50 -1.57 10.68 0.93 -0.01 -0.15 8852
1.07 -0.02 0.43 -1.51 10.61 0.98 -0.01 -0.15 8859
1.14 -0.02 0.43 -1.66 10.52 1.04 -0.01 -0.14 8866
1.19 -0.02 0.39 -1.70 10.80 1.11 -0.02 -0.13 8873
1.16 -0.02 0.43 -1.77 10.75 1.18 0.00 -0.13 8881
1.16 -0.01 0.43 -1.80 10.53 1.27 0.01 -0.13 8888
1.20 -0.04 0.47 -2.02 10.56 1.34 0.01 -0.16 8895
1.22 -0.04 0.54 -2.05 10.68 1.42 0.01 -0.14 8902
1.22 -0.05 0.23 -2.18 10.78 1.49 0.01 -0.15 8909
1.23 -0.06 0.47 -2.30 10.93 1.57 0.01 -0.16 8916
1.23 -0.04 0.32 -2.41 11.01 1.69 0.00 -0.16 8924
1.21 -0.03 0.59 -2.52 10.89 1.78 -0.01 -0.16 8931
1.20 -0.05 0.72 -2.72 10.85 1.91 -0.01 -0.17 8938
1.15 -0.05 0.63 -2.79 10.90 2.03 0.02 -0.19 8944
1.10 -0.05 0.26 -2.73 11.10 2.16 0.08 -0.20 8951
1.09 -0.05 0.54 -3.20 10.29 2.30 0.12 -0.19 8960
0.99 -0.04 0.12 -3.05 11.31 2.42 0.26 -0.16 8967
0.91 -0.03 0.05 -3.21 11.12 2.61 0.38 -0.14 8974
0.72 -0.03 0.17 -3.31 11.84 2.76 0.47 -0.12 8981
0.60 -0.03 0.23 -4.02 12.58 3.00 0.60 -0.10 8987
0.40 -0.03 0.28 -4.09 12.21 3.24 0.72 -0.08 8994
0.26 -0.02 -0.48 -4.57 12.54 3.41 0.83 -0.02 9003
0.18 -0.01 -0.57 -5.18 15.50 3.58 0.94 0.05 9010
0.14 -0.01 -0.19 -5.68 12.48 3.68 0.96 0.14 9016
0.15 -0.02 -0.17 -6.68 13.81 3.74 0.95 0.22 9023
0.12 -0.01 0.07 -7.24 14.97 3.75 0.89 0.30 9030
0.07 -0.01 0.93 -7.95 18.07 3.74 0.91 0.35 9037
0.05 -0.01 0.45 -7.63 16.46 3.75 0.98 0.38 9044
0.04 -0.00 0.69 -8.87 16.63 3.72 0.97 0.40 9052
0.05 -0.01 0.98 -7.94 15.73 3.65 0.98 0.43 9059
0.07 -0.01 2.86 -6.66 15.39 3.54 1.02 0.43 9066
0.08 -0.01 2.32 -8.14 15.39 3.34 1.17 0.38 9073
0.08 -0.01 2.18 -7.39 14.76 3.21 1.24 0.30 9080
0.07 -0.01 1.35 -5.83 13.42 3.17 1.25 0.21 9088
0.03 0.00 0.94 -4.12 12.77 3.12 1.24 0.16 9095
0.03 -0.00 0.90 -3.58 13.96 3.07 1.15 0.11 9102
0.02 -0.00 0.70 -2.26 13.81 3.02 0.96 0.03 9109
0.01 -0.00 -0.34 0.17 12.40 2.94 0.73 -0.04 9116
0.01 -0.00 -0.86 7.64 12.00 2.68 0.48 -0.18 9123
0.00 0.00 -4.45 10.51 7.44 2.17 0.26 -0.76 9131
0.00 0.00 -0.50 7.64 2.41 1.33 -0.43 -1.27 9138
0.00 -0.00 -1.80 8.95 6.04 0.48 -0.96 -1.62 9145
0.00 0.00 -0.64 8.04 10.01 -0.41 -0.83 -1.92 9152
0.00 0.00 0.46 5.51 9.74 -0.92 -0.72 -2.29 9159
0.00 0.00 0.11 4.24 8.13 -1.13 -0.69 -2.60 9166
0.00 0.00 -0.46 3.94 6.91 -1.25 -0.59 -2.80 9174
0.00 0.00 -0.47 3.87 5.95 -1.32 -0.55 -2.97 9181
0.00 0.00 -0.23 3.77 5.51 -1.37 -0.59 -3.09 9188
0.00 0.00 -0.11 3.65 5.40 -1.44 -0.68 -3.20 9195
0.00 0.00 0.18 3.43 5.76 -1.52 -0.77 -3.26 9202
0.00 0.00 0.73 3.35 6.22 -1.65 -0.84 -3.24 9209
0.00 0.00 1.62 3.39 8.04 -1.81 -0.82 -3.16 9217
0.00 -0.00 2.30 3.83 7.47 -2.05 -0.77 -3.01 9224
0.00 0.00 2.70 4.15 8.38 -2.35 -0.66 -2.86 9231
0.00 0.00 2.90 4.06 9.46 -2.64 -0.52 -2.62 9238
0.00 0.00 3.11 3.67 9.84 -3.01 -0.42 -2.37 9245
0.00 0.00 3.32 2.93 9.93 -3.35 -0.33 -2.07 9252
0.00 0.00 3.57 2.05 10.09 -3.64 -0.26 -1.78 9260
0.00 -0.00 3.75 0.86 10.24 -3.90 -0.21 -1.57 9267
0.00 0.00 3.81 -0.40 10.07 -4.07 -0.16 -1.36 9274
0.00 0.00 3.78 -1.59 10.04 -4.15 -0.09 -1.20 9281
0.00 0.00 3.90 -3.08 10.22 -4.16 -0.02 -1.03 9288
0.00 0.00 4.02 -4.43 10.67 -4.13 -0.01 -0.84 9295
0.00 0.00 4.38 -5.20 11.18 -4.01 -0.02 -0.67 9303
0.00 0.00 5.07 -5.57 11.46 -3.85 -0.01 -0.46 9310
0.00 0.00 5.68 -5.72 11.67 -3.65 0.05 -0.28 9317
0.00 0.00 6.42 -5.89 12.09 -3.50 0.25 -0.08 9324
0.00 0.00 6.89 -6.40 12.94 -3.42 0.52 0.12 9331
0.00 0.00 7.02 -6.85 13.47 -3.36 0.90 0.32 9338
0.00 0.00 6.39 -7.22 14.18 -3.28 1.26 0.56 9346
0.00 -0.00 5.84 -7.58 14.79 -3.26 1.54 0.83 9353
0.00 0.00 4.97 -7.80 14.77 -3.19 1.74 1.08 9360
0.00 0.00 4.25 -8.09 14.43 -3.12 1.80 1.36 9367
0.00 0.00 3.63 -8.23 14.03 -3.01 1.75 1.59 9374
0.00 0.00 3.30 -8.38 13.70 -2.85 1.63 1.80 9381
0.00 0.00 3.27 -9.19 13.26 -2.72 1.54 1.96 9389
0.00 0.00 3.29 -8.64 12.94 -2.53 1.46 2.03 9396
0.00 0.00 3.01 -8.57 12.61 -2.36 1.41 2.06 9403
0.00 0.00 2.61 -8.39 12.38 -2.16 1.37 2.04 9410
0.00 0.00 2.21 -8.21 12.21 -1.95 1.32 1.99 9417
0.00 0.00 2.01 -7.99 11.97 -1.76 1.27 1.91 9424
0.00 0.00 1.95 -7.92 11.74 -1.55 1.21 1.82 9432
0.00 0.00 1.83 -8.00 11.35 -1.35 1.15 1.71 9439
0.00 0.00 1.72 -8.08 11.18 -1.11 1.10 1.60 9446
0.00 0.00 1.55 -8.23 11.12 -0.85 1.02 1.48 9453
0.00 0.00 1.38 -8.48 11.17 -0.62 0.94 1.37 9460
0.00 0.00 1.20 -8.59 11.35 -0.36 0.85 1.29 9467
0.00 0.00 0.85 -8.64 11.86 -0.15 0.74 1.22 9475
0.00 0.00 0.59 -8.65 12.11 -0.02 0.64 1.18 9482
0.00 0.00 0.29 -8.84 12.46 0.08 0.57 1.17 9489
0.00 0.00 0.23 -9.08 12.69 0.11 0.54 1.16 9496
0.00 0.00 0.22 -9.28 12.55 0.09 0.54 1.16 9503
0.00 0.00 0.23 -9.59 12.04 0.02 0.58 1.17 9510
0.00 0.00 0.40 -10.41 11.37 -0.11 0.64 1.17 9518
0.00 0.00 0.53 -9.95 10.85 -0.25 0.76 1.17 9525
0.00 0.00 0.64 -10.31 10.27 -0.41 0.91 1.16 9532
0.00 0.00 0.66 -10.78 9.69 -0.55 1.08 1.17 9539
0.00 0.00 0.53 -11.20 8.99 -0.68 1.25 1.18 9546
0.00 0.00 0.38 -11.66 8.30 -0.76 1.34 1.20 9553
0.00 0.00 -0.33 -11.98 8.11 -0.83 1.38 1.22 9561
0.00 0.00 -1.52 -12.16 7.72 -0.88 1.35 1.28 9568
0.00 0.00 -2.58 -12.29 7.29 -0.91 1.32 1.36 9575
0.00 0.00 -3.30 -12.72 7.14 -0.91 1.31 1.48 9582
0.00 0.00 -3.50 -13.33 6.99 -0.91 1.26 1.58 9589
0.00 0.00 -3.60 -13.49 6.87 -0.91 1.06 1.62 9596
0.00 0.00 -3.73 -15.01 6.36 -0.90 0.78 1.61 9604
0.00 0.00 -16.75 -16.40 3.99 0.08 -0.70 1.69 9611
0.00 0.00 -5.64 -10.63 2.86 0.15 -1.38 1.57 9618
0.00 0.00 -4.10 -12.75 2.82 0.47 -1.69 1.49 9625
0.00 0.00 -4.21 -15.53 4.21 0.73 -2.13 1.43 9632
0.00 0.00 -5.13 -15.02 6.39 1.21 -2.35 1.43 9639
0.00 0.00 -0.77 2.97 13.71 1.99 -1.48 1.61 9647
-0.00 0.01 -2.47 -2.87 9.89 2.07 -0.93 1.68 9654
-0.00 0.02 -8.51 -1.49 14.59 2.23 -1.32 1.49 9661
-0.01 0.07 -7.42 0.00 10.77 1.98 -1.61 0.99 9668
-0.01 0.10 -6.52 -0.96 11.21 2.03 -1.46 0.44 9675
-0.01 0.16 -9.04 -9.11 75.03 1.66 -1.99 -0.11 9683
-0.02 0.16 0.52 -1.32 6.92 -0.22 0.07 -0.12 9690
-0.02 0.17 0.41 -1.72 10.19 -0.21 0.02 -0.14 9697
-0.02 0.17 0.03 -1.59 10.10 -0.18 -0.01 -0.11 9704
-0.02 0.21 1.38 -2.09 9.97 -0.12 -0.01 -0.08 9711
-0.02 0.24 0.27 -0.96 10.07 -0.06 -0.04 -0.02 9718
-0.01 0.26 -0.00 -1.03 9.95 -0.04 -0.01 -0.05 9725
-0.03 0.28 0.33 -1.11 9.82 -0.02 0.02 -0.05 9733
-0.02 0.27 0.44 -0.98 9.81 -0.02 0.04 -0.03 9740
-0.03 0.30 0.28 -1.00 9.81 -0.02 0.06 -0.02 9747
-0.02 0.30 0.35 -1.02 9.76 -0.02 0.07 -0.03 9754
-0.02 0.33 0.43 -1.01 9.81 -0.02 0.08 -0.03 9761
-0.01 0.30 0.41 -0.99 9.77 -0.02 0.08 -0.03 9768
-0.01 0.29 0.43 -1.00 9.76 -0.03 0.07 -0.03 9776
-0.02 0.31 0.40 -0.96 9.77 -0.03 0.06 -0.03 9783
-0.03 0.31 0.47 -0.97 9.74 -0.03 0.06 -0.04 9790
-0.03 0.34 0.48 -0.93 9.68 -0.04 0.04 -0.04 9797
-0.03 0.36 0.51 -0.96 9.79 -0.04 0.03 -0.05 9804
-0.03 0.37 0.42 -0.95 9.74 -0.05 0.02 -0.05 9811
-0.02 0.37 0.06 -0.64 9.62 -0.05 0.02 -0.06 9819
-0.03 0.37 0.30 -0.98 9.79 -0.06 0.02 -0.06 9826
-0.04 0.44 0.36 -0.95 9.81 -0.06 0.03 -0.06 9833
-0.02 0.44 0.37 -0.97 9.82 -0.06 0.03 -0.05 9840
-0.00 0.46 0.38 -0.97 9.82 -0.06 0.04 -0.05 9847
0.00 0.52 0.37 -0.95 9.81 -0.05 0.05 -0.05 9854
-0.01 0.59 0.36 -0.95 9.81 -0.04 0.05 -0.05 9862
-0.01 0.62 0.40 -0.95 9.79 -0.04 0.05 -0.05 9869
-0.01 0.57 0.40 -0.92 9.81 -0.03 0.06 -0.04 9876
-0.01 0.67 0.37 -0.91 9.80 -0.03 0.06 -0.04 9883
-0.00 0.63 0.43 -0.90 9.76 -0.02 0.06 -0.04 9890
-0.01 0.66 0.45 -0.91 9.76 -0.02 0.06 -0.05 9897
-0.02 0.65 0.45 -0.88 9.83 -0.02 0.05 -0.04 9905
-0.02 0.63 0.48 -0.89 9.79 -0.01 0.04 -0.05 9912
-0.03 0.63 0.46 -0.90 9.76 -0.01 0.04 -0.06 9919
0.01 0.61 0.45 -0.92 9.79 -0.00 0.03 -0.06 9926
0.02 0.59 0.43 -0.91 9.81 -0.01 0.03 -0.07 9933
0.04 0.56 0.39 -0.92 9.80 0.00 0.03 -0.06 9940
0.01 0.55 0.42 -0.91 9.80 0.01 0.03 -0.06 9948
-0.02 0.52 0.43 -0.88 9.77 0.01 0.02 -0.06 9955
-0.02 0.49 0.36 -0.92 9.76 0.02 0.03 -0.06 9962
-0.02 0.50 0.38 -0.92 9.81 0.02 0.03 -0.06 9969
-0.00 0.45 0.34 -0.95 9.80 0.02 0.04 -0.06 9976
0.00 0.42 0.40 -0.91 9.78 0.03 0.04 -0.06 9984
0.01 0.38 0.38 -0.91 9.81 0.03 0.04 -0.06 9991
0.02 0.34 0.40 -0.93 9.79 0.03 0.04 -0.06 9998
0.05 0.24 0.40 -0.94 9.76 0.03 0.04 -0.07 10005
0.07 0.24 0.40 -0.96 9.79 0.03 0.04 -0.06 10012
0.06 0.22 0.41 -0.95 9.76 0.02 0.04 -0.07 10019
0.09 0.20 0.40 -0.98 9.80 0.02 0.04 -0.06 10027
0.09 0.17 0.40 -0.98 9.81 0.02 0.04 -0.06 10034
0.09 0.14 0.40 -0.94 9.75 0.02 0.04 -0.06 10041
0.08 0.17 0.40 -0.99 9.79 0.02 0.04 -0.06 10048
0.11 0.14 0.40 -0.96 9.78 0.02 0.04 -0.06 10055
0.11 0.14 0.43 -0.97 9.81 0.02 0.04 -0.06 10062
0.10 0.07 0.41 -0.95 9.78 0.02 0.04 -0.06 10070
0.12 0.01 0.38 -0.99 9.81 0.02 0.04 -0.06 10077
0.12 0.02 0.46 -1.16 9.75 0.02 0.04 -0.06 10084
0.13 0.02 0.39 -1.00 9.79 0.02 0.04 -0.06 10091
0.16 0.03 0.44 -1.01 9.80 0.02 0.04 -0.06 10098
0.16 0.04 0.42 -0.97 9.81 0.02 0.04 -0.07 10105
0.15 0.01 0.38 -1.00 9.80 0.02 0.04 -0.07 10113
0.18 0.04 0.45 -1.01 9.81 0.02 0.04 -0.07 10120
0.21 0.01 0.43 -1.00 9.77 0.02 0.04 -0.07 10127
0.26 0.01 0.42 -1.00 9.79 0.02 0.04 -0.07 10134
0.31 -0.02 0.43 -1.00 9.80 0.02 0.04 -0.07 10141
0.30 -0.00 0.42 -1.02 9.80 0.02 0.04 -0.07 10148
0.34 -0.03 0.41 -0.97 9.79 0.03 0.04 -0.07 10156
0.36 -0.02 0.38 -1.00 9.81 0.03 0.03 -0.07 10163
0.37 -0.02 0.40 -1.00 9.21 0.03 0.04 -0.07 10170
0.39 -0.01 0.37 -1.04 9.77 0.03 0.04 -0.06 10177
0.41 -0.02 0.40 -1.01 9.83 0.04 0.04 -0.07 10184
0.42 -0.03 0.40 -1.03 9.79 0.05 0.04 -0.06 10191
0.41 -0.02 0.44 -1.07 9.81 0.05 0.04 -0.06 10199
0.45 -0.02 0.42 -1.08 9.83 0.06 0.04 -0.06 10206
0.51 -0.02 0.46 -1.04 9.81 0.08 0.03 -0.06 10213
0.55 -0.01 0.45 -1.10 9.82 0.08 0.04 -0.07 10220
0.57 -0.03 0.42 -1.15 9.78 0.09 0.03 -0.07 10227
0.61 -0.03 0.41 -1.07 9.81 0.11 0.03 -0.08 10234
0.63 -0.04 0.42 -1.08 9.83 0.12 0.03 -0.08 10242
0.64 -0.03 0.40 -1.05 9.83 0.13 0.03 -0.09 10249
0.68 -0.00 0.39 -1.12 9.83 0.15 0.03 -0.10 10256
0.71 -0.01 0.48 -1.22 9.83 0.19 0.03 -0.10 10263
0.78 -0.01 0.58 -1.19 9.90 0.26 0.03 -0.11 10270
0.82 -0.01 0.36 -1.06 10.08 0.39 0.05 -0.12 10277
0.85 -0.02 0.48 -1.21 10.09 0.53 0.04 -0.13 10285
0.86 -0.01 0.45 -1.25 10.08 0.61 0.02 -0.14 10292
0.91 0.01 0.43 -1.37 10.06 0.68 -0.01 -0.15 10299
1.02 -0.01 0.36 -1.56 10.54 0.70 -0.08 -0.15 10307
1.06 -0.02 0.27 -1.50 10.42 0.71 -0.10 -0.14 10314
1.12 -0.02 0.23 -1.60 10.74 0.73 -0.11 -0.14 10321
1.12 -0.04 0.45 -1.59 10.47 0.76 -0.13 -0.14 10329
1.18 -0.05 0.41 -1.59 10.16 0.78 -0.13 -0.13 10336
1.28 -0.04 0.05 -1.74 10.14 0.80 -0.13 -0.12 10343
1.32 -0.04 0.42 -1.68 10.11 0.82 -0.13 -0.11 10350
1.36 -0.05 0.26 -1.82 10.36 0.86 -0.12 -0.10 10357
1.39 -0.06 0.15 -1.88 10.33 0.91 -0.11 -0.07 10364
1.39 -0.05 0.34 -1.82 10.32 0.98 -0.10 -0.06 10372
1.41 -0.04 0.32 -2.02 10.61 1.04 -0.09 -0.05 10379
1.46 -0.04 0.36 -2.09 10.60 1.12 -0.09 -0.06 10386
1.51 -0.05 0.19 -2.19 10.74 1.21 -0.09 -0.06 10393
1.54 -0.05 0.47 -2.32 10.69 1.28 -0.09 -0.07 10400
1.56 -0.07 0.27 -1.87 11.19 1.38 -0.10 -0.08 10407
1.51 -0.05 0.28 -2.41 11.42 1.50 -0.14 -0.09 10415
1.48 -0.05 0.25 -2.42 11.18 1.63 -0.23 -0.10 10422
1.52 -0.05 0.59 -2.91 11.46 1.78 -0.27 -0.12 10429
1.49 -0.06 0.13 -2.76 11.52 1.92 -0.35 -0.14 10436
1.49 -0.05 0.20 -3.01 11.52 2.05 -0.41 -0.15 10443
1.41 -0.06 0.34 -3.13 11.60 2.20 -0.42 -0.16 10450
1.33 -0.05 0.21 -3.27 11.87 2.35 -0.43 -0.15 10458
1.29 -0.04 0.44 -3.39 11.63 2.53 -0.46 -0.17 10465
1.18 -0.04 0.50 -3.70 12.02 2.71 -0.47 -0.21 10472
1.10 -0.05 0.58 -3.88 12.13 2.89 -0.53 -0.26 10479
0.97 -0.04 0.87 -4.03 11.76 3.09 -0.59 -0.31 10486
0.78 -0.04 0.81 -4.38 12.04 3.25 -0.67 -0.38 10493
0.60 -0.03 0.42 -4.66 12.84 3.43 -0.77 -0.47 10501
0.50 -0.02 0.14 -4.96 13.36 3.61 -0.92 -0.47 10508
0.41 -0.02 -0.59 -5.58 13.93 3.76 -1.07 -0.48 10515
0.33 -0.02 -1.48 -6.42 14.15 3.87 -1.12 -0.48 10522
0.23 -0.02 -1.50 -6.93 15.28 3.93 -1.16 -0.47 10528
0.17 -0.02 -1.87 -8.58 16.24 3.94 -1.18 -0.43 10535
0.16 -0.01 -2.59 -8.93 16.93 3.87 -1.21 -0.37 10544
0.08 -0.00 -3.33 -8.85 18.04 3.71 -1.30 -0.31 10551
0.10 -0.01 -4.70 -7.70 18.03 3.45 -1.47 -0.28 10557
0.05 -0.00 -3.34 -8.19 17.95 3.14 -1.82 -0.12 10564
0.05 -0.01 -2.02 -7.79 15.79 2.93 -2.03 -0.05 10571
0.05 -0.00 -0.53 -5.90 14.60 2.79 -2.27 0.03 10578
0.06 -0.01 1.05 -3.79 13.33 2.69 -2.37 0.11 10586
0.05 -0.01 1.29 -2.52 12.52 2.62 -2.34 0.16 10593
0.05 -0.01 1.19 -1.69 13.40 2.76 -2.47 0.21 10600
0.01 -0.00 0.75 -0.61 12.26 2.95 -2.60 0.25 10607
0.03 -0.00 1.37 2.30 9.33 2.99 -2.61 0.29 10614
0.00 0.00 3.35 9.52 7.35 2.71 -2.41 0.26 10621
0.01 -0.00 1.05 11.03 2.93 1.83 -2.15 0.06 10629
0.00 -0.00 2.94 9.45 1.88 0.91 -1.97 -0.18 10636
0.00 -0.00 1.86 8.95 8.74 0.16 -1.67 -0.39 10643
0.00 0.00 3.20 6.42 11.32 -0.60 -1.02 -0.57 10650
0.00 0.00 2.85 4.87 11.03 -1.07 -0.58 -0.78 10657
0.00 0.00 1.49 4.67 8.50 -1.37 -0.37 -0.90 10664
0.00 0.00 0.69 4.53 7.16 -1.53 -0.26 -0.95 10672
0.00 -0.00 0.85 4.48 6.47 -1.66 -0.26 -0.97 10679
0.00 -0.00 1.11 4.37 6.62 -1.83 -0.30 -0.97 10686
0.00 0.00 1.35 4.05 7.24 -1.99 -0.36 -0.94 10693
0.00 0.00 1.64 3.65 7.97 -2.21 -0.38 -0.88 10700
0.00 0.00 2.05 3.35 8.39 -2.46 -0.39 -0.85 10707
0.00 0.00 2.33 3.07 8.66 -2.70 -0.38 -0.77 10715
0.00 -0.00 3.11 2.67 6.40 -2.99 -0.38 -0.70 10722
0.00 0.00 2.89 2.23 9.12 -3.25 -0.38 -0.60 10729
0.00 0.00 3.24 1.65 9.81 -3.44 -0.35 -0.52 10736
0.00 0.00 3.74 0.80 10.08 -3.62 -0.25 -0.42 10743
0.00 0.00 4.37 -0.06 10.66 -3.76 -0.07 -0.32 10750
-0.00 0.00 4.71 -0.72 10.88 -3.93 0.10 -0.25 10758
0.00 0.00 4.83 -1.15 10.74 -4.08 0.33 -0.16 10765
0.00 0.00 4.78 -1.77 10.73 -4.16 0.49 -0.06 10772
0.00 0.00 4.72 -2.66 10.95 -4.21 0.63 0.02 10779
0.00 0.00 4.77 -3.69 11.64 -4.22 0.72 0.13 10786
0.00 0.00 4.86 -4.48 12.47 -4.21 0.77 0.23 10793
0.00 0.00 4.87 -5.17 12.87 -4.18 0.78 0.36 10801
0.00 0.00 5.51 -5.89 13.46 -4.11 0.79 0.50 10808
0.00 0.00 4.99 -6.30 13.70 -4.00 0.82 0.61 10815
0.00 0.00 5.13 -6.56 13.42 -3.90 0.88 0.75 10822
0.00 0.00 5.11 -6.87 13.61 -3.82 0.95 0.90 10829
0.00 0.00 5.18 -7.13 13.75 -3.72 1.03 1.00 10836
0.00 -0.00 5.11 -7.65 14.11 -3.61 1.09 1.15 10844
0.00 0.00 5.06 -7.96 14.11 -3.47 1.13 1.28 10851
0.00 0.00 5.01 -7.90 14.25 -3.34 1.15 1.44 10858
0.00 0.00 4.92 -7.36 14.47 -3.18 1.15 1.59 10865
0.00 0.00 5.23 -7.97 14.74 -3.04 1.22 1.69 10872
-0.00 0.00 5.15 -8.37 14.79 -2.93 1.33 1.80 10880
0.00 -0.00 4.56 -9.13 15.32 -2.80 1.44 1.87 10887
0.00 0.00 4.04 -9.48 15.10 -2.65 1.56 1.94 10894
0.00 0.00 3.81 -9.70 14.30 -2.50 1.60 1.98 10901
0.00 0.00 3.37 -9.83 13.78 -2.31 1.59 1.99 10908
0.00 0.00 3.02 -10.01 13.78 -2.14 1.57 1.97 10915
0.00 0.00 2.89 -10.00 13.66 -1.95 1.57 1.91 10923
0.00 0.00 2.89 -9.76 13.57 -1.78 1.53 1.81 10930
0.00 0.00 2.80 -9.67 13.31 -1.66 1.51 1.68 10937
0.00 0.00 2.61 -9.71 13.11 -1.52 1.49 1.57 10944
0.00 0.00 2.14 -9.88 12.72 -1.35 1.47 1.44 10951
0.00 0.00 1.41 -10.14 12.10 -1.18 1.42 1.33 10958
0.00 0.00 0.95 -10.53 11.34 -0.93 1.32 1.20 10966
0.00 0.00 0.50 -10.85 11.38 -0.70 1.20 1.09 10973
0.00 0.00 0.23 -11.06 11.10 -0.40 1.04 1.01 10980
0.00 0.00 0.53 -11.28 10.60 -0.07 0.91 0.93 10987
0.00 0.00 0.96 -10.92 9.65 0.14 0.87 0.87 10994
0.00 0.00 1.65 -9.94 9.87 0.29 1.00 0.85 11001
0.00 0.00 -0.35 -8.25 8.80 0.35 1.48 0.94 11009
0.00 0.00 -2.16 -7.66 10.35 0.30 2.19 1.16 11016
0.00 0.00 -3.60 -7.99 12.20 0.12 2.60 1.38 11023
0.00 0.00 -6.00 -8.61 12.86 -0.11 2.40 1.45 11030
0.00 0.00 -7.30 -9.02 13.02 -0.37 1.77 1.50 11037
0.00 0.00 -6.37 -8.97 11.59 -0.58 1.01 1.56 11044
0.00 0.00 -5.51 -9.07 9.81 -0.72 0.41 1.58 11052
0.00 0.00 -3.69 -9.24 8.06 -0.76 -0.09 1.55 11059
0.00 0.00 -2.11 -9.80 6.56 -0.74 -0.30 1.45 11066
0.00 0.00 -0.92 -10.53 6.83 -0.61 -0.26 1.32 11073
0.00 0.00 -0.58 -10.99 6.10 -0.43 -0.09 1.15 11080
-0.00 0.00 -1.04 -11.09 6.33 -0.17 0.06 0.98 11087
0.00 0.00 -2.42 -11.30 6.41 0.13 0.15 0.87 11095
0.00 0.00 -4.63 -11.43 6.64 0.37 0.04 0.81 11102
0.00 0.00 -4.84 -10.67 7.21 0.64 -0.26 0.83 11109
0.00 0.00 -4.22 -9.76 6.91 0.76 -0.59 0.83 11116
0.00 0.00 -3.88 -9.29 6.99 0.75 -0.67 0.86 11123
0.00 0.00 -5.67 -9.61 9.50 0.65 -0.74 0.93 11130
0.00 0.00 -8.78 -10.70 11.78 0.62 -1.19 1.05 11138
0.00 0.00 -9.00 -10.29 9.58 0.63 -1.78 1.15 11145
0.00 0.00 -10.21 -9.77 7.22 0.55 -2.52 1.22 11152
0.00 0.00 -10.91 -9.95 8.25 0.52 -3.28 1.30 11159
-0.00 0.01 -6.61 -8.14 11.71 0.51 -3.95 1.27 11166
-0.00 0.03 0.07 5.45 30.67 1.20 -1.31 1.06 11173
-0.00 0.01 -8.50 -0.26 13.44 0.38 -0.80 0.90 11181
-0.00 0.01 -6.08 3.14 9.94 -0.15 -0.41 0.53 11188
-0.01 0.05 -6.38 0.05 12.68 -0.11 -0.26 -0.03 11195
-0.01 0.09 -4.31 1.86 10.12 -0.03 -0.09 -0.40 11202
-0.01 0.13 -1.13 -1.49 9.93 0.25 0.10 -0.58 11209
-0.01 0.13 0.05 -1.64 12.05 0.36 0.40 -0.42 11216
-0.01 0.11 0.42 -2.01 12.51 0.12 0.34 -0.21 11225
0.02 0.14 0.05 -2.15 11.87 -0.05 0.22 -0.05 11231
0.02 0.12 -0.52 -0.91 10.42 -0.09 0.19 -0.02 11238
0.01 0.16 -0.89 0.07 9.89 0.01 0.26 -0.06 11245
0.01 0.21 -0.38 -0.39 9.89 0.07 0.30 -0.08 11252
0.02 0.19 -0.01 -0.50 10.02 0.07 0.27 -0.07 11259
0.03 0.16 -0.07 -0.38 9.93 0.05 0.23 -0.07 11267
0.01 0.14 -0.12 -0.46 9.81 0.05 0.19 -0.08 11274
0.03 0.12 -0.05 -0.81 9.87 0.04 0.16 -0.10 11281
0.01 0.15 -0.07 -0.54 9.76 0.03 0.12 -0.12 11288
0.03 0.12 -0.04 -0.46 9.69 0.02 0.08 -0.12 11295
0.04 0.18 -0.10 -0.38 9.68 0.03 0.05 -0.14 11302
0.04 0.14 -0.05 -0.37 9.58 0.03 0.03 -0.16 11310
0.03 0.17 -0.29 -0.39 9.72 0.04 0.04 -0.18 11317
0.02 0.17 -0.36 -0.53 9.82 0.03 0.06 -0.20 11324
0.02 0.20 -0.22 -0.61 9.99 0.02 0.07 -0.19 11331
0.03 0.16 -0.21 -0.52 9.95 0.01 0.08 -0.19 11338
0.05 0.18 -0.24 -0.45 9.92 0.00 0.09 -0.18 11345
0.04 0.20 -0.30 -0.46 9.93 0.01 0.11 -0.17 11353
0.04 0.29 -0.26 -0.54 9.96 0.01 0.12 -0.16 11360
0.04 0.24 -0.28 -0.49 9.98 0.01 0.13 -0.15 11367
0.04 0.24 -0.13 -0.55 9.99 0.01 0.13 -0.15 11374
0.05 0.23 -0.09 -0.51 9.93 0.02 0.13 -0.16 11381
0.07 0.24 -0.07 -0.52 9.88 0.03 0.11 -0.16 11388
0.07 0.22 -0.00 -0.52 9.92 0.04 0.09 -0.17 11396
0.06 0.23 -0.05 -0.56 9.89 0.05 0.08 -0.17 11403
0.05 0.23 -0.06 -0.53 9.94 0.05 0.06 -0.18 11410
0.06 0.24 -0.12 -0.58 10.01 0.05 0.05 -0.17 11417
0.07 0.25 -0.10 -0.59 9.96 0.06 0.04 -0.17 11424
0.07 0.23 -0.13 -0.58 9.92 0.05 0.04 -0.17 11431
0.07 0.23 -0.11 -0.55 9.93 0.06 0.04 -0.16 11439
0.10 0.18 -0.08 -0.58 9.92 0.06 0.03 -0.18 11446
0.10 0.18 -0.13 -0.59 9.88 0.06 0.03 -0.17 11453
0.11 0.19 -0.14 -0.56 9.86 0.06 0.03 -0.17 11460
0.11 0.17 -0.15 -0.57 9.86 0.06 0.03 -0.17 11467
0.13 0.13 -0.15 -0.63 9.84 0.06 0.04 -0.17 11474
0.15 0.11 -0.13 -0.59 9.89 0.07 0.04 -0.18 11482
0.15 0.07 -0.13 -0.61 9.87 0.07 0.05 -0.17 11489
0.17 0.10 -0.14 -0.62 9.86 0.08 0.05 -0.18 11496
0.19 0.07 -0.16 -0.63 9.83 0.07 0.06 -0.18 11503
0.16 0.09 -0.11 -0.62 9.87 0.08 0.06 -0.18 11510
0.18 0.05 -0.19 -0.66 9.88 0.08 0.07 -0.18 11517
0.22 0.02 -0.12 -0.68 9.86 0.07 0.07 -0.18 11525
0.23 0.01 -0.10 -0.01 9.81 0.08 0.07 -0.19 11532
0.24 0.00 -0.08 -0.74 9.84 0.07 0.07 -0.19 11539
0.25 0.02 -0.09 -0.69 9.85 0.07 0.08 -0.19 11546
0.29 0.01 -0.04 -0.72 9.82 0.07 0.08 -0.18 11553
0.30 -0.01 -0.15 -0.63 9.84 0.07 0.07 -0.18 11560
0.31 -0.01 -0.09 -0.71 9.85 0.07 0.08 -0.19 11568
0.29 0.00 -0.09 -0.73 9.84 0.07 0.08 -0.19 11575
0.30 -0.00 -0.04 -0.71 9.84 0.06 0.08 -0.18 11582
0.31 0.00 -0.09 -0.64 9.84 0.06 0.08 -0.19 11589
0.34 -0.02 -0.04 -0.74 9.85 0.06 0.07 -0.20 11596
0.38 -0.02 -0.04 -0.71 9.87 0.07 0.03 -0.20 11603
0.36 -0.03 -0.06 -0.74 9.85 0.07 0.06 -0.20 11611
0.41 -0.03 -0.08 -0.73 9.88 0.07 0.07 -0.19 11618
0.41 -0.02 -0.11 -0.72 9.86 0.08 0.07 -0.19 11625
0.43 -0.02 -0.11 -0.74 9.92 0.08 0.07 -0.19 11632
0.46 -0.02 -0.14 -0.71 9.87 0.08 0.08 -0.19 11639
0.49 -0.02 -0.14 -0.72 9.92 0.09 0.08 -0.19 11646
0.49 -0.02 -0.17 -0.75 9.86 0.09 0.09 -0.19 11654
0.50 -0.02 -0.07 -0.82 9.84 0.10 0.09 -0.18 11661
0.53 -0.01 -0.12 -0.77 9.89 0.10 0.10 -0.18 11668
0.59 -0.02 -0.17 -0.81 9.86 0.11 0.11 -0.17 11675
0.59 -0.02 -0.14 -0.81 9.89 0.13 0.13 -0.17 11682
0.63 -0.02 -0.10 -0.79 9.87 0.15 0.14 -0.17 11689
0.65 -0.03 -0.25 -0.77 10.06 0.17 0.15 -0.16 11698
0.65 -0.03 -0.13 -0.81 9.93 0.19 0.17 -0.15 11704
0.65 -0.02 -0.07 -0.83 9.99 0.22 0.19 -0.16 11711
0.68 -0.03 -0.04 -0.86 10.03 0.25 0.20 -0.15 11718
0.67 -0.03 -0.11 -0.90 9.98 0.28 0.22 -0.15 11725
0.71 -0.05 -0.02 -0.93 9.98 0.31 0.23 -0.14 11732
0.71 -0.03 -0.05 -0.94 9.97 0.34 0.25 -0.15 11740
0.73 -0.02 -0.03 -0.99 9.99 0.37 0.27 -0.14 11747
0.76 -0.02 -0.01 -0.91 10.06 0.41 0.29 -0.14 11755
0.78 -0.03 0.05 -0.98 10.00 0.44 0.31 -0.15 11761
0.79 -0.04 0.02 -1.04 9.95 0.47 0.32 -0.15 11768
0.81 -0.04 0.10 -1.10 9.99 0.50 0.34 -0.16 11776
0.82 -0.03 0.11 -1.14 9.99 0.53 0.34 -0.17 11783
0.87 -0.03 0.08 -1.12 9.95 0.56 0.33 -0.17 11790
0.88 -0.02 0.10 -1.17 10.11 0.61 0.32 -0.18 11798
0.92 -0.01 0.18 -1.28 10.15 0.66 0.30 -0.18 11805
0.92 -0.01 0.18 -1.30 10.19 0.73 0.29 -0.19 11812
0.94 -0.02 0.01 -1.34 10.40 0.80 0.28 -0.19 11819
0.96 -0.01 0.01 -1.46 10.40 0.87 0.29 -0.19 11826
0.99 -0.02 0.07 -1.50 10.37 0.95 0.29 -0.19 11833
1.00 -0.02 0.19 -1.64 10.49 1.04 0.28 -0.18 11840
1.06 -0.03 0.22 -1.72 10.57 1.13 0.27 -0.19 11848
1.05 -0.03 0.28 -1.78 10.61 1.21 0.26 -0.21 11855
1.05 -0.04 0.32 -1.82 10.64 1.28 0.25 -0.22 11863
1.05 -0.05 0.38 -2.02 10.77 1.37 0.24 -0.23 11870
1.05 -0.04 0.92 -2.00 10.78 1.45 0.23 -0.25 11877
1.06 -0.05 0.43 -1.99 11.19 1.56 0.23 -0.27 11884
1.06 -0.04 0.33 -2.27 11.49 1.70 0.23 -0.28 11891
1.04 -0.05 0.39 -2.35 11.35 1.85 0.23 -0.28 11898
1.00 -0.05 0.70 -2.46 11.46 2.01 0.23 -0.29 11906
0.99 -0.04 0.69 -2.80 11.58 2.19 0.26 -0.34 11913
0.95 -0.03 0.29 -2.68 11.95 2.36 0.32 -0.35 11920
0.89 -0.04 -0.15 -2.80 12.59 2.59 0.42 -0.34 11927
0.75 -0.04 -0.32 -3.00 12.99 2.83 0.52 -0.29 11934
0.66 -0.04 -0.09 -3.27 13.51 3.10 0.56 -0.25 11941
0.56 -0.03 0.35 -3.61 13.13 3.36 0.54 -0.20 11949
0.34 -0.02 0.32 -4.47 15.34 3.60 0.53 -0.16 11956
0.24 -0.01 0.14 -4.91 14.92 3.81 0.46 -0.12 11963
0.23 -0.02 -0.01 -5.23 15.89 3.89 0.38 -0.08 11970
0.18 -0.02 -0.34 -5.64 15.88 3.94 0.33 -0.02 11976
0.13 -0.01 0.13 -6.47 16.35 3.89 0.34 0.05 11983
0.09 -0.01 0.92 -6.94 16.65 3.85 0.47 0.09 11991
0.08 -0.01 1.67 -6.67 16.25 3.79 0.73 0.09 11998
0.07 -0.01 1.91 -6.30 16.07 3.73 1.01 0.07 12005
0.07 -0.01 1.68 -5.46 16.01 3.65 1.14 0.03 12012
0.06 -0.01 1.51 -4.96 15.89 3.54 1.24 -0.03 12019
0.04 -0.00 1.57 -4.45 15.46 3.47 1.27 -0.06 12026
0.01 -0.00 1.66 -4.09 15.06 3.37 1.25 -0.10 12034
0.02 -0.00 1.49 -3.58 14.66 3.25 1.17 -0.14 12041
0.04 -0.00 1.10 -2.53 14.10 3.21 1.08 -0.20 12048
0.01 -0.00 0.79 -2.76 13.97 3.18 0.92 -0.18 12055
0.01 -0.00 0.61 -2.94 13.62 3.18 0.60 -0.19 12062
0.00 0.00 -0.39 -2.23 9.59 3.05 0.32 -0.15 12069
0.00 0.00 -0.09 2.52 9.27 2.80 -0.13 -0.07 12077
0.00 0.00 0.11 3.47 4.28 2.39 -0.62 -0.02 12084
0.00 0.00 0.17 9.16 -0.39 1.75 -1.31 0.01 12091
0.00 0.00 0.18 14.89 0.47 1.03 -1.94 -0.06 12098
0.00 0.00 0.45 8.51 11.24 0.07 -2.22 -0.24 12105
0.00 0.00 1.71 4.97 11.68 -0.92 -2.20 -0.49 12112
0.00 0.00 2.15 3.37 9.02 -1.43 -2.00 -0.78 12120
0.00 0.00 1.76 3.41 7.08 -1.59 -1.65 -1.03 12127
0.00 0.00 1.46 3.36 5.32 -1.61 -1.29 -1.36 12134
0.00 0.00 1.15 3.59 3.60 -1.65 -1.08 -1.68 12141
0.00 0.00 0.99 3.74 3.07 -1.66 -0.98 -2.01 12148
0.00 0.00 0.87 3.61 3.42 -1.68 -0.97 -2.28 12155
0.00 0.00 0.99 3.27 4.19 -1.74 -0.99 -2.44 12163
0.00 0.00 1.24 2.89 5.08 -1.82 -0.99 -2.57 12170
0.00 0.00 1.82 2.76 6.10 -1.94 -0.95 -2.61 12177
0.00 0.00 2.69 2.86 6.89 -2.12 -0.87 -2.59 12184
0.00 0.00 3.09 2.88 7.71 -2.33 -0.80 -2.50 12191
0.00 0.00 3.64 2.68 8.41 -2.61 -0.70 -2.36 12198
0.00 0.00 3.82 2.18 8.81 -2.94 -0.64 -2.14 12206
0.00 0.00 4.04 1.66 9.23 -3.18 -0.62 -1.87 12213
0.00 0.00 4.17 0.95 9.24 -3.43 -0.65 -1.60 12220
0.00 0.00 4.37 0.06 9.15 -3.58 -0.73 -1.28 12227
0.00 0.00 4.67 -0.52 9.03 -3.67 -0.79 -1.01 12234
0.00 0.00 5.20 -1.10 9.12 -3.67 -0.80 -0.73 12241
0.00 0.00 5.82 -1.78 9.24 -3.61 -0.73 -0.48 12249
0.00 0.00 6.75 -2.24 9.36 -3.51 -0.50 -0.31 12256
0.00 0.00 7.47 -2.91 9.75 -3.43 -0.12 -0.17 12263
0.00 0.00 7.76 -3.52 10.64 -3.34 0.29 -0.08 12270
0.00 0.00 7.53 -4.13 11.55 -3.28 0.80 0.02 12277
0.00 0.00 7.04 -4.60 12.85 -3.25 1.20 0.12 12284
0.00 0.00 6.15 -5.19 13.86 -3.24 1.56 0.22 12292
0.00 0.00 5.07 -5.96 14.61 -3.25 1.72 0.36 12299
0.00 0.00 4.12 -6.59 15.52 -3.26 1.70 0.53 12306
0.00 0.00 3.39 -7.28 15.81 -3.25 1.55 0.65 12313
0.00 0.00 3.16 -7.81 15.63 -3.20 1.33 0.79 12320
0.00 0.00 3.20 -8.20 15.24 -3.11 1.18 0.88 12327
-0.00 0.00 3.40 -8.53 14.63 -2.97 1.08 0.94 12335
0.00 0.00 3.57 -8.74 14.04 -2.83 1.10 0.94 12342
0.00 0.00 3.58 -8.78 13.57 -2.62 1.22 0.92 12349
0.00 0.00 3.21 -8.57 13.15 -2.42 1.40 0.87 12356
0.00 0.00 2.78 -8.22 12.30 -2.16 1.56 0.83 12363
0.00 0.00 2.26 -7.92 12.68 -1.91 1.75 0.77 12370
0.00 0.00 1.77 -7.69 12.54 -1.69 1.88 0.71 12378
0.00 0.00 1.03 -7.58 12.37 -1.42 1.97 0.66 12385
0.00 0.00 0.20 -7.53 12.45 -1.19 1.93 0.61 12392
0.00 0.00 -0.30 -7.31 12.61 -0.94 1.83 0.57 12399
0.00 0.00 -0.71 -7.28 13.05 -0.74 1.65 0.52 12406
0.00 0.00 -1.13 -7.41 13.29 -0.61 1.46 0.47 12413
0.00 0.00 -1.31 -7.45 13.40 -0.50 1.27 0.43 12421
0.00 0.00 -1.43 -7.64 13.46 -0.45 1.11 0.38 12428
0.00 0.00 -1.26 -7.67 13.11 -0.41 1.01 0.35 12435
0.00 0.00 -1.05 -7.79 13.04 -0.39 0.92 0.33 12442
0.00 0.00 -0.88 -7.88 12.60 -0.39 0.89 0.32 12449
0.00 0.00 -0.77 -7.81 12.16 -0.37 0.90 0.33 12456
0.00 0.00 -0.76 -7.57 11.89 -0.37 0.96 0.36 12464
0.00 0.00 -0.75 -7.65 11.55 -0.35 1.10 0.41 12471
0.00 0.00 -0.95 -7.71 11.11 -0.34 1.32 0.46 12478
0.00 0.00 -1.43 -7.71 10.59 -0.35 1.56 0.53 12485
0.00 0.00 -1.88 -8.07 10.57 -0.40 1.74 0.59 12492
0.00 0.00 -2.64 -8.46 10.54 -0.46 1.91 0.69 12499
0.00 -0.00 -3.18 -8.87 10.38 -0.52 1.99 0.81 12507
0.00 0.00 -3.72 -9.52 10.39 -0.62 1.95 0.89 12514
0.00 0.00 -4.35 -10.15 10.00 -0.73 1.76 0.98 12521
0.00 0.00 -4.68 -10.72 9.34 -0.88 1.50 1.04 12528
0.00 0.00 -4.71 -11.36 8.49 -0.99 1.17 1.07 12535
0.00 0.00 -4.44 -11.76 7.42 -1.07 0.90 1.07 12542
0.00 0.00 -3.89 -12.12 6.66 -1.08 0.73 1.03 12550
0.00 0.00 -3.45 -12.36 5.86 -0.97 0.60 0.95 12557
0.00 0.00 -3.10 -12.40 5.50 -0.82 0.54 0.81 12564
0.00 0.00 -15.31 -21.89 12.31 -0.35 -0.12 0.78 12572
0.00 0.00 -5.47 -13.63 3.17 0.37 -1.02 0.87 12578
0.00 0.00 -7.55 -9.06 4.06 0.57 -1.82 0.72 12585
0.00 0.00 -6.19 -9.52 5.37 0.74 -2.39 0.62 12593
0.00 0.00 -7.15 -12.73 6.59 0.75 -2.97 0.58 12600
0.00 0.00 -6.28 -7.93 11.00 1.06 -3.45 0.75 12607
-0.00 0.02 -1.53 7.78 24.82 1.50 -2.19 0.91 12614
-0.00 0.02 -2.35 -1.02 10.73 1.43 -1.06 1.23 12621
-0.01 0.09 -2.57 1.35 8.71 1.51 -0.21 1.41 12628
-0.02 0.24 -10.15 0.42 9.53 1.61 -0.75 0.88 12637
-0.02 0.27 -9.23 -1.41 11.24 1.97 -1.08 0.13 12644
-0.02 0.23 -3.04 -2.03 10.62 2.22 -1.30 -0.52 12651
-0.02 0.30 1.99 -5.03 43.38 1.16 -3.05 -0.56 12658
-0.03 0.31 0.22 -1.90 12.37 0.11 -0.71 -0.09 12664
-0.02 0.34 0.72 -2.73 10.38 -0.14 -0.05 -0.07 12673
-0.03 0.32 0.61 -1.37 9.70 -0.12 -0.05 -0.04 12679
-0.03 0.38 0.72 -0.72 9.97 -0.04 -0.04 -0.01 12686
-0.04 0.40 0.26 -0.63 9.85 -0.01 -0.03 -0.02 12693
-0.03 0.40 0.17 -1.03 9.96 -0.02 -0.01 -0.04 12700
-0.03 0.40 0.32 -1.07 9.82 -0.03 0.00 -0.03 12707
-0.02 0.41 0.39 -0.94 9.86 -0.03 0.02 -0.02 12715
0.01 0.38 0.40 -0.95 9.80 -0.03 0.03 -0.02 12722
0.00 0.39 0.36 -0.90 9.67 -0.03 0.04 -0.03 12729
-0.01 0.43 0.44 -0.89 9.79 -0.03 0.03 -0.02 12736
-0.04 0.44 0.51 -0.88 9.74 -0.04 0.02 -0.03 12743
-0.03 0.44 0.44 -0.88 9.75 -0.04 0.02 -0.04 12750
-0.03 0.43 0.50 -0.85 9.72 -0.04 0.01 -0.05 12758
-0.04 0.49 0.30 -1.23 8.20 -0.05 -0.00 -0.05 12765
-0.04 0.53 0.37 -0.86 9.79 -0.05 -0.00 -0.05 12772
-0.03 0.53 0.40 -0.88 9.82 -0.05 -0.00 -0.06 12779
-0.03 0.57 0.35 -0.86 9.84 -0.04 0.01 -0.05 12786
0.00 0.61 0.38 -0.88 9.84 -0.04 0.01 -0.05 12793
-0.02 0.60 0.32 -0.89 9.85 -0.03 0.03 -0.05 12801
-0.03 0.60 0.34 -0.85 9.84 -0.02 0.04 -0.05 12808
-0.03 0.57 0.39 -0.86 9.82 -0.02 0.04 -0.04 12815
-0.03 0.57 0.42 -0.85 9.81 -0.01 0.04 -0.04 12822
-0.02 0.61 0.44 -0.86 9.80 -0.01 0.04 -0.04 12829
-0.01 0.62 0.46 -0.85 9.75 -0.00 0.04 -0.04 12836
-0.01 0.56 0.45 -0.89 9.80 -0.00 0.04 -0.05 12844
0.00 0.53 0.45 -0.89 9.82 -0.00 0.03 -0.05 12851
-0.00 0.53 0.43 -0.86 9.79 0.00 0.03 -0.05 12858
0.01 0.52 0.41 -0.85 9.77 0.00 0.02 -0.06 12865
0.00 0.53 0.41 -0.82 9.80 0.00 0.02 -0.06 12872
0.02 0.51 0.36 -0.85 9.76 0.00 0.02 -0.06 12879
0.01 0.49 0.35 -0.84 9.79 0.01 0.02 -0.06 12887
0.01 0.49 0.37 -0.88 9.78 0.01 0.03 -0.06 12894
-0.01 0.47 0.37 -0.87 9.78 0.01 0.03 -0.06 12901
0.01 0.45 0.35 -0.83 9.82 0.02 0.03 -0.05 12908
-0.01 0.41 0.35 -0.84 9.76 0.02 0.04 -0.06 12915
0.02 0.39 0.39 -0.87 9.76 0.02 0.03 -0.06 12922
0.03 0.37 0.45 -0.83 9.74 0.02 0.04 -0.06 12930
0.03 0.29 0.38 -0.84 9.75 0.02 0.04 -0.06 12937
0.04 0.26 0.37 -0.87 9.80 0.03 0.04 -0.06 12944
0.05 0.27 0.39 -0.88 9.81 0.02 0.05 -0.06 12951
0.05 0.22 0.39 -0.89 9.81 0.02 0.05 -0.06 12958
0.07 0.20 0.43 -0.88 9.75 0.03 0.05 -0.06 12965
0.06 0.21 0.39 -0.88 9.82 0.03 0.05 -0.06 12973
0.06 0.17 0.41 -0.89 9.80 0.03 0.05 -0.07 12980
0.07 0.20 0.36 -0.94 9.77 0.03 0.06 -0.07 12987
0.10 0.15 0.39 -1.02 10.40 0.04 0.06 -0.06 12994
0.11 0.12 0.40 -0.89 9.82 0.03 0.05 -0.07 13001
0.14 0.12 0.42 -0.90 9.81 0.03 0.05 -0.07 13008
0.14 0.11 0.37 -0.96 9.78 0.03 0.05 -0.07 13016
0.15 0.09 0.40 -0.90 9.81 0.03 0.05 -0.07 13023
0.17 0.04 0.40 -0.85 9.81 0.03 0.05 -0.07 13030
0.17 0.03 0.41 -0.93 9.80 0.03 0.05 -0.07 13037
0.16 0.00 0.39 -0.94 9.80 0.04 0.05 -0.07 13044
0.18 0.01 0.37 -0.90 9.78 0.04 0.05 -0.07 13051
0.20 -0.01 0.44 -0.94 9.81 0.04 0.05 -0.07 13059
0.20 -0.00 0.40 -0.96 9.80 0.04 0.05 -0.07 13066
0.21 -0.01 0.39 -0.97 9.80 0.04 0.05 -0.07 13073
0.22 0.01 0.39 -0.96 9.75 0.04 0.06 -0.07 13080
0.28 -0.02 0.43 -0.93 9.78 0.04 0.06 -0.07 13087
0.29 -0.01 0.42 -0.95 9.80 0.05 0.06 -0.06 13094
0.32 -0.02 0.43 -0.97 9.82 0.04 0.06 -0.06 13102
0.31 -0.02 0.43 -0.96 9.82 0.04 0.06 -0.07 13109
0.35 -0.02 0.43 -0.97 9.78 0.04 0.06 -0.07 13116
0.36 0.00 0.51 -1.00 9.22 0.05 0.06 -0.07 13123
0.39 -0.00 0.45 -0.98 9.78 0.05 0.06 -0.07 13130
0.38 -0.00 0.47 -0.98 9.81 0.05 0.06 -0.08 13137
0.41 -0.02 0.51 -0.99 9.78 0.05 0.06 -0.08 13145
0.42 -0.01 0.46 -1.03 9.79 0.05 0.06 -0.08 13152
0.46 -0.01 0.37 -0.99 9.80 0.06 0.06 -0.08 13159
0.47 -0.01 0.40 -1.03 9.77 0.06 0.06 -0.08 13166
0.49 -0.02 0.43 -0.97 9.81 0.07 0.07 -0.08 13173
0.50 -0.02 0.46 -0.97 9.82 0.08 0.07 -0.09 13180
0.53 -0.01 0.53 -1.01 9.82 0.09 0.07 -0.09 13188
0.53 -0.00 0.44 -1.02 9.84 0.10 0.08 -0.10 13195
0.54 -0.00 0.42 -1.04 9.83 0.13 0.09 -0.12 13202
0.57 -0.00 0.41 -1.04 9.96 0.17 0.11 -0.11 13209
0.63 -0.01 0.40 -1.05 10.26 0.32 0.15 -0.11 13217
0.70 -0.01 0.34 -0.97 10.29 0.52 0.19 -0.11 13224
0.73 -0.01 0.45 -1.68 10.05 0.62 0.22 -0.11 13232
0.75 -0.01 0.40 -1.25 10.21 0.73 0.25 -0.11 13239
0.83 -0.03 0.56 -1.35 10.45 0.80 0.27 -0.11 13246
0.83 -0.04 0.56 -1.46 10.49 0.83 0.22 -0.12 13253
0.86 -0.04 0.53 -1.51 10.03 0.84 0.14 -0.12 13260
0.90 -0.04 0.53 -1.45 10.28 0.86 0.11 -0.12 13267
0.86 -0.03 0.65 -1.59 10.56 0.88 0.09 -0.12 13275
0.90 -0.03 0.71 -1.73 10.38 0.93 0.08 -0.12 13282
0.94 -0.03 0.66 -1.69 10.97 0.99 0.06 -0.13 13289
0.96 -0.04 0.65 -1.82 10.44 1.06 0.06 -0.13 13296
0.98 -0.04 0.75 -1.93 10.68 1.11 0.06 -0.15 13303
0.98 -0.05 0.61 -1.95 10.53 1.18 0.07 -0.16 13310
0.98 -0.03 0.66 -2.11 10.35 1.24 0.05 -0.17 13318
1.01 -0.04 0.56 -2.22 10.51 1.30 0.04 -0.18 13325
1.02 -0.04 0.63 -2.28 10.67 1.38 0.02 -0.19 13332
1.04 -0.04 0.08 -2.34 10.77 1.45 -0.01 -0.20 13338
1.02 -0.04 0.50 -2.43 11.05 1.53 -0.07 -0.20 13345
1.01 -0.05 0.72 -2.62 10.90 1.61 -0.10 -0.20 13353
0.99 -0.03 0.81 -2.63 10.71 1.72 -0.12 -0.22 13361
0.98 -0.03 0.78 -2.79 10.80 1.83 -0.13 -0.25 13368
0.95 -0.03 0.37 -2.94 11.06 1.92 -0.12 -0.26 13375
0.97 -0.04 0.28 -3.05 11.55 2.05 -0.13 -0.24 13382
0.91 -0.04 0.30 -3.22 11.19 2.19 -0.08 -0.22 13389
0.82 -0.04 0.29 -3.42 10.52 2.32 -0.07 -0.20 13396
0.73 -0.03 0.51 -3.60 12.11 2.49 -0.04 -0.17 13404
0.66 -0.02 0.14 -3.68 11.84 2.67 0.01 -0.17 13411
0.49 -0.02 0.53 -3.96 11.51 2.87 0.05 -0.16 13418
0.35 -0.02 0.44 -4.21 12.28 3.06 0.06 -0.16 13425
0.30 -0.02 0.31 -4.61 11.97 3.23 0.07 -0.16 13431
0.22 -0.02 0.19 -4.92 13.79 3.40 0.09 -0.14 13438
0.19 -0.01 0.61 -5.74 13.45 3.51 0.12 -0.13 13447
0.15 -0.01 0.53 -6.26 12.87 3.62 0.17 -0.07 13454
0.15 -0.01 0.95 -7.08 14.59 3.66 0.22 -0.07 13460
0.10 -0.01 1.32 -7.55 15.52 3.69 0.33 -0.05 13467
0.09 -0.01 1.24 -8.27 15.51 3.68 0.47 -0.04 13474
0.06 -0.01 1.63 -8.32 14.58 3.64 0.66 -0.02 13481
0.06 -0.01 1.96 -7.60 14.61 3.57 0.85 -0.01 13489
0.07 -0.01 2.60 -6.65 14.87 3.42 1.15 0.03 13496
0.08 -0.01 0.99 -8.62 16.21 3.23 1.38 -0.04 13503
0.08 -0.01 -0.99 -8.38 14.69 3.10 1.27 -0.10 13510
0.06 -0.01 -1.47 -6.34 13.43 2.98 1.00 -0.16 13517
0.05 -0.00 -1.74 -4.87 13.48 2.85 0.69 -0.18 13524
0.01 -0.00 -1.35 -4.08 13.90 2.76 0.36 -0.18 13532
0.01 -0.00 -1.36 -3.14 14.00 2.74 -0.05 -0.18 13539
0.02 -0.00 -2.22 0.23 12.28 2.68 -0.29 -0.17 13546
0.02 -0.00 -2.40 10.82 8.38 2.33 -0.41 -0.23 13553
0.01 -0.00 -3.21 7.87 3.31 1.71 -0.42 -0.86 13560
0.00 -0.00 -3.01 6.75 3.02 0.87 -1.03 -1.28 13568
0.01 -0.00 -4.07 8.23 7.52 0.08 -1.07 -1.67 13575
0.01 -0.00 -2.72 6.63 9.52 -0.63 -0.84 -2.06 13582
0.00 -0.00 -3.01 3.87 9.18 -0.93 -0.79 -2.49 13589
0.00 0.00 -4.33 2.67 7.86 -1.00 -0.87 -2.89 13596
0.00 0.00 -4.97 2.59 7.19 -1.03 -1.02 -3.18 13603
0.00 0.00 -4.34 3.04 6.22 -1.06 -1.31 -3.48 13611
0.00 0.00 -3.40 3.37 5.79 -1.12 -1.59 -3.68 13618
0.00 -0.00 -2.35 3.45 5.74 -1.23 -1.76 -3.83 13625
0.00 -0.00 -0.64 3.42 5.92 -1.35 -1.76 -3.88 13632
0.00 0.00 0.02 3.23 6.65 -1.51 -1.58 -3.86 13639
0.00 0.00 0.97 3.50 6.65 -1.68 -1.27 -3.76 13646
0.00 0.00 1.63 3.55 7.32 -1.91 -0.97 -3.60 13654
0.00 0.00 2.09 3.61 8.02 -2.16 -0.64 -3.43 13661
0.01 -0.00 2.50 3.37 9.07 -2.41 -0.34 -3.16 13668
0.00 0.00 2.68 3.12 10.05 -2.74 -0.11 -2.90 13675
0.00 0.00 2.78 2.70 10.92 -3.05 0.07 -2.52 13682
0.00 0.00 2.86 1.95 11.21 -3.31 0.14 -2.11 13689
0.00 0.00 2.89 0.75 11.14 -3.54 0.15 -1.76 13697
-0.00 0.00 3.11 -0.53 10.74 -3.68 0.10 -1.37 13704
0.00 0.00 3.44 -1.77 10.51 -3.74 0.06 -1.08 13711
0.00 0.00 4.13 -3.18 10.69 -3.71 0.07 -0.80 13718
0.00 0.00 4.71 -4.23 11.12 -3.62 0.11 -0.56 13725
0.00 0.00 5.23 -4.95 11.43 -3.49 0.22 -0.38 13732
0.00 0.00 5.62 -5.29 11.66 -3.39 0.41 -0.18 13740
0.00 0.00 5.75 -5.24 12.13 -3.30 0.63 0.00 13747
0.00 -0.00 5.65 -5.23 12.57 -3.23 0.91 0.22 13754
0.00 0.00 5.35 -5.51 12.95 -3.18 1.12 0.45 13761
0.00 0.00 4.95 -5.89 13.14 -3.13 1.34 0.64 13768
0.00 0.00 4.71 -6.12 12.98 -3.07 1.46 0.85 13775
0.00 0.00 4.37 -6.50 13.33 -2.97 1.52 1.05 13783
0.00 0.00 4.39 -6.85 13.23 -2.83 1.59 1.19 13790
0.00 0.00 4.34 -6.96 13.16 -2.70 1.64 1.31 13797
0.00 0.00 4.26 -6.97 13.35 -2.53 1.75 1.39 13804
0.00 0.00 4.08 -7.07 13.35 -2.40 1.89 1.45 13811
0.00 0.00 3.73 -7.18 13.40 -2.26 2.00 1.47 13818
0.00 0.00 3.18 -7.32 13.62 -2.10 2.10 1.50 13826
0.00 0.00 2.75 -7.26 13.53 -1.96 2.18 1.51 13833
0.00 0.00 2.37 -7.19 13.45 -1.81 2.25 1.50 13840
0.00 0.00 2.03 -7.19 13.48 -1.68 2.31 1.50 13847
0.00 0.00 1.84 -7.16 13.40 -1.57 2.38 1.48 13854
0.00 0.00 1.37 -7.14 13.35 -1.45 2.42 1.47 13861
0.00 0.00 0.92 -7.08 13.09 -1.34 2.42 1.43 13869
0.00 -0.00 0.61 -7.21 12.95 -1.22 2.39 1.40 13876
0.00 0.00 0.24 -7.31 12.67 -1.07 2.30 1.35 13883
0.00 0.00 -0.57 -7.45 12.40 -0.93 2.19 1.28 13890
0.00 0.00 -0.15 -7.55 12.44 -0.75 2.01 1.21 13897
0.00 0.00 -0.30 -7.65 12.54 -0.60 1.79 1.12 13904
0.00 0.00 -0.33 -8.55 12.56 -0.44 1.59 1.05 13912
0.00 0.00 -0.29 -8.20 12.50 -0.30 1.38 0.97 13919
0.00 0.00 -0.42 -8.24 12.16 -0.21 1.20 0.92 13926
0.00 0.00 -0.63 -8.31 11.80 -0.14 1.16 0.89 13933
0.00 0.00 -1.07 -8.18 11.62 -0.12 1.20 0.93 13940
0.00 0.00 -1.39 -8.31 11.52 -0.14 1.32 1.01 13947
0.00 0.00 -1.86 -8.31 11.91 -0.20 1.51 1.10 13955
0.00 0.00 -2.01 -8.53 12.30 -0.31 1.63 1.19 13962
0.00 0.00 -1.95 -8.86 12.34 -0.51 1.66 1.25 13969
0.00 0.00 -1.85 -9.30 11.92 -0.73 1.52 1.29 13976
0.00 0.00 -1.68 -9.39 10.98 -0.93 1.33 1.31 13983
0.00 0.00 -1.40 -9.80 10.07 -1.13 1.11 1.31 13990
0.00 0.00 -1.04 -10.42 9.17 -1.25 0.95 1.30 13998
0.00 0.00 -0.77 -10.95 8.28 -1.30 0.90 1.28 14005
0.00 0.00 -0.53 -11.73 7.84 -1.28 0.93 1.24 14012
0.00 0.00 -0.37 -12.54 7.41 -1.23 1.01 1.19 14019
0.00 0.00 0.09 -13.06 7.02 -1.17 1.15 1.13 14026
-0.00 0.00 0.44 -13.49 6.44 -1.13 1.31 1.07 14033
0.00 0.00 -11.49 -16.97 8.65 -0.30 0.24 1.19 14041
0.00 0.00 -7.00 -15.62 7.26 -0.30 -0.06 1.24 14048
0.00 0.00 -6.13 -14.87 3.98 0.02 -0.48 1.35 14055
0.00 0.00 -5.59 -16.81 3.23 0.29 -0.99 1.48 14062
0.00 0.00 -5.94 -18.46 3.19 0.67 -1.63 1.60 14069
0.00 0.00 -6.25 -19.33 3.53 1.01 -2.18 1.67 14076
0.00 0.00 -4.29 -13.83 5.99 1.60 -2.33 1.83 14084
-0.00 0.00 -2.82 1.53 6.49 2.17 -1.09 2.00 14091
-0.00 0.04 -10.17 -4.45 15.59 2.32 -1.07 1.92 14099
-0.02 0.15 -11.24 0.75 14.08 2.35 -1.41 1.34 14106
-0.02 0.25 -7.95 -0.12 10.81 2.31 -1.68 0.38 14113
-0.02 0.25 -4.49 -2.87 27.63 2.36 -1.50 -0.11 14120
-0.02 0.23 0.15 -2.85 15.97 0.22 -1.96 -0.36 14128
-0.02 0.25 -0.47 -2.38 10.73 -0.04 -0.55 -0.16 14134
-0.03 0.33 1.08 -2.22 9.85 -0.14 -0.17 -0.12 14141
-0.04 0.36 1.06 -1.75 10.09 -0.07 -0.12 0.00 14148
-0.03 0.38 0.38 -0.90 10.12 -0.01 -0.05 0.04 14155
-0.02 0.37 -0.09 -0.90 10.20 -0.02 -0.00 -0.00 14162
-0.02 0.39 0.21 -1.05 9.79 -0.02 0.04 -0.02 14170
-0.03 0.41 0.61 -1.00 9.72 -0.02 0.06 -0.00 14177
0.00 0.39 0.39 -0.93 9.81 -0.01 0.05 0.00 14184
-0.00 0.44 0.37 -0.92 9.82 -0.01 0.05 -0.00 14191
0.00 0.41 0.51 -0.90 9.75 -0.02 0.04 -0.01 14198
0.00 0.44 0.54 -0.88 9.71 -0.02 0.02 -0.02 14205
-0.02 0.48 0.46 -0.88 9.75 -0.03 0.00 -0.02 14213
-0.00 0.50 0.43 -0.82 9.76 -0.07 -0.01 -0.03 14220
-0.00 0.47 0.46 -0.84 9.73 -0.04 -0.02 -0.04 14227
-0.01 0.51 0.47 -0.90 9.79 -0.04 -0.04 -0.04 14234
-0.01 0.52 0.45 -0.93 9.79 -0.04 -0.04 -0.05 14241
-0.01 0.51 0.40 -0.89 9.80 -0.03 -0.03 -0.05 14248
-0.01 0.53 0.33 -0.87 9.86 -0.03 -0.02 -0.05 14256
-0.01 0.49 0.33 -0.89 9.85 -0.03 -0.01 -0.05 14263
-0.03 0.48 0.38 -0.87 9.80 -0.02 -0.01 -0.05 14270
-0.02 0.49 0.38 -0.86 9.81 -0.02 -0.01 -0.06 14277
-0.02 0.51 0.46 -0.84 9.79 -0.01 -0.01 -0.06 14284
0.01 0.51 0.47 -0.89 9.80 -0.00 -0.01 -0.07 14291
-0.00 0.50 0.40 -0.77 9.84 -0.00 -0.01 -0.07 14299
0.03 0.49 0.41 -0.92 9.78 -0.00 -0.01 -0.07 14306
-0.01 0.50 0.40 -0.86 9.78 -0.00 -0.01 -0.08 14313
0.02 0.49 0.33 -0.88 9.80 0.01 0.00 -0.08 14320
0.03 0.49 0.35 -0.89 9.47 0.00 0.01 -0.08 14327
0.02 0.44 0.34 -0.90 9.79 0.01 0.02 -0.07 14334
0.05 0.42 0.34 -0.87 9.82 0.01 0.03 -0.07 14342
0.02 0.38 0.32 -0.87 9.81 0.02 0.04 -0.06 14349
0.02 0.38 0.38 -0.88 9.82 0.02 0.04 -0.06 14356
0.07 0.33 0.37 -0.89 9.83 0.03 0.04 -0.06 14363
0.08 0.28 0.34 -0.88 9.82 0.03 0.04 -0.06 14370
0.10 0.21 0.39 -0.93 9.80 0.03 0.04 -0.06 14377
0.09 0.22 0.41 -0.91 9.82 0.03 0.04 -0.07 14385
0.09 0.16 0.39 -0.91 9.79 0.04 0.04 -0.07 14392
0.11 0.15 0.41 -0.94 9.81 0.04 0.05 -0.07 14399
0.11 0.13 0.40 -0.93 9.77 0.04 0.04 -0.07 14406
0.13 0.04 0.32 -0.92 9.80 0.04 0.04 -0.07 14413
0.16 0.06 0.39 -1.12 9.79 0.04 0.04 -0.06 14420
0.19 0.03 0.40 -0.89 9.80 0.03 0.04 -0.07 14428
0.21 -0.00 0.36 -0.94 9.82 0.04 0.04 -0.06 14435
0.24 0.01 0.38 -0.97 9.81 0.03 0.04 -0.06 14442
0.25 0.00 0.42 -0.97 9.76 0.03 0.04 -0.06 14449
0.28 -0.00 0.39 -0.97 9.81 0.03 0.04 -0.07 14456
0.30 -0.01 0.38 -0.96 9.80 0.03 0.04 -0.07 14464
0.33 -0.01 0.39 -0.96 10.41 0.03 0.04 -0.06 14471
0.35 -0.01 0.36 -0.95 9.81 0.03 0.04 -0.07 14478
0.34 -0.01 0.40 -0.97 9.82 0.03 0.04 -0.07 14485
0.33 -0.00 0.36 -1.00 9.82 0.03 0.04 -0.07 14492
0.37 -0.01 0.39 -0.97 9.83 0.03 0.04 -0.07 14499
0.34 -0.01 0.39 -0.99 9.79 0.03 0.04 -0.06 14507
0.37 -0.02 0.42 -0.97 9.81 0.03 0.03 -0.06 14514
0.37 -0.02 0.40 -0.95 9.81 0.03 0.03 -0.06 14521
0.41 -0.02 0.41 -0.99 9.78 0.04 0.03 -0.07 14528
0.45 -0.02 0.35 -1.05 9.78 0.04 0.03 -0.07 14535
0.48 -0.03 0.37 -0.97 9.78 0.04 0.03 -0.07 14542
0.52 -0.03 0.41 -0.98 9.81 0.05 0.03 -0.07 14550
0.56 -0.04 0.39 -1.03 9.79 0.05 0.03 -0.07 14557
0.55 -0.02 0.35 -1.02 9.81 0.06 0.04 -0.07 14564
0.60 -0.02 0.41 -1.04 9.81 0.07 0.04 -0.07 14571
0.62 -0.01 0.44 -1.05 9.82 0.08 0.04 -0.07 14578
0.67 -0.01 0.40 -1.08 9.82 0.09 0.04 -0.08 14585
0.69 -0.01 0.40 -1.08 9.81 0.11 0.04 -0.09 14593
0.72 -0.02 0.37 -1.06 9.84 0.13 0.05 -0.09 14600
0.75 -0.02 0.36 -1.04 9.84 0.15 0.05 -0.09 14607
0.80 -0.02 0.30 -1.07 10.10 0.21 0.08 -0.10 14614
0.83 -0.03 0.39 -1.12 9.93 0.35 0.10 -0.10 14621
0.84 -0.04 0.48 -1.18 9.92 0.41 0.12 -0.10 14628
0.85 -0.03 0.40 -1.21 9.93 0.46 0.14 -0.10 14636
0.86 -0.03 0.37 -1.21 9.88 0.50 0.13 -0.11 14643
0.88 -0.04 0.47 -1.34 9.92 0.52 0.13 -0.11 14650
0.90 -0.03 0.50 -1.36 9.98 0.53 0.11 -0.12 14657
0.93 -0.03 0.49 -1.38 9.95 0.52 0.09 -0.12 14664
0.94 -0.04 0.44 -1.47 9.96 0.52 0.06 -0.13 14671
0.96 -0.04 0.49 -1.55 10.04 0.53 0.05 -0.14 14679
1.01 -0.04 0.44 -1.60 10.17 0.55 0.04 -0.14 14687
1.04 -0.04 0.50 -1.54 10.05 0.57 0.03 -0.14 14693
1.05 -0.04 0.45 -1.58 10.22 0.60 0.02 -0.14 14700
1.08 -0.05 0.48 -1.70 10.32 0.67 0.01 -0.15 14707
1.08 -0.04 0.52 -1.77 10.35 0.73 0.00 -0.15 14714
1.11 -0.05 0.39 -1.83 10.22 0.78 -0.00 -0.15 14723
1.18 -0.05 0.35 -1.80 10.36 0.84 -0.01 -0.14 14729
1.21 -0.04 0.29 -1.90 10.46 0.89 -0.01 -0.14 14737
1.27 -0.05 0.38 -1.96 10.34 0.95 -0.01 -0.13 14744
1.30 -0.05 0.38 -1.94 10.46 1.03 -0.02 -0.13 14751
1.31 -0.05 0.46 -2.08 10.50 1.09 -0.03 -0.13 14758
1.31 -0.05 0.41 -2.16 10.66 1.18 -0.03 -0.13 14766
1.35 -0.05 0.37 -2.34 10.57 1.26 -0.05 -0.15 14773
1.39 -0.05 0.48 -2.55 10.76 1.34 -0.06 -0.16 14780
1.40 -0.05 0.54 -2.54 10.64 1.43 -0.08 -0.17 14787
1.40 -0.06 0.43 -2.61 10.68 1.51 -0.09 -0.18 14794
1.41 -0.05 0.34 -2.72 10.88 1.61 -0.12 -0.19 14801
1.39 -0.06 0.25 -2.90 10.99 1.72 -0.16 -0.18 14809
1.41 -0.05 0.45 -3.02 11.13 1.83 -0.18 -0.19 14816
1.39 -0.04 0.69 -3.17 10.91 1.96 -0.21 -0.20 14823
1.37 -0.04 0.57 -3.33 10.75 2.07 -0.26 -0.23 14830
1.36 -0.03 0.28 -3.32 11.13 2.21 -0.21 -0.24 14837
1.30 -0.04 0.04 -3.36 11.03 2.37 -0.16 -0.23 14844
1.25 -0.04 -0.15 -3.50 11.17 2.52 -0.09 -0.20 14852
1.17 -0.04 -0.16 -3.88 11.29 2.70 -0.09 -0.17 14859
1.06 -0.04 0.10 -4.04 11.65 2.94 0.02 -0.14 14865
0.91 -0.04 0.12 -4.30 11.97 3.16 0.10 -0.14 14873
0.74 -0.04 -0.35 -4.34 12.70 3.41 0.17 -0.16 14880
0.46 -0.03 -0.15 -5.19 13.36 3.60 0.24 -0.15 14887
0.28 -0.02 -0.14 -5.66 13.02 3.81 0.27 -0.12 14895
0.28 -0.02 -0.60 -6.49 13.19 3.95 0.26 -0.05 14902
0.25 -0.01 -0.42 -7.55 16.44 4.03 0.27 0.02 14908
0.22 -0.02 -0.06 -8.53 15.75 4.03 0.34 0.08 14915
0.15 -0.01 0.63 -9.39 16.38 4.00 0.48 0.13 14922
0.08 -0.01 1.55 -9.85 17.49 3.96 0.68 0.16 14929
0.06 -0.01 1.28 -9.66 15.26 3.89 0.86 0.19 14937
0.04 -0.00 3.01 -7.47 15.25 3.80 0.99 0.21 14944
0.06 -0.01 0.51 -8.00 17.08 3.58 1.19 0.14 14951
0.07 -0.01 -0.67 -8.79 16.12 3.36 1.02 0.05 14958
0.05 -0.01 -1.24 -7.82 14.49 3.27 0.77 -0.05 14965
0.04 -0.00 -0.52 -5.10 14.18 3.14 0.44 -0.08 14972
0.01 -0.00 0.20 -3.17 14.40 3.00 0.23 -0.10 14980
0.03 -0.00 0.87 -2.62 15.33 2.93 0.06 -0.11 14987
0.03 -0.00 1.08 -1.56 15.63 2.99 -0.15 -0.16 14994
0.01 -0.00 -0.32 6.44 13.16 3.01 -0.22 -0.21 15001
0.00 0.00 -1.49 17.07 8.16 2.48 -0.19 -0.50 15008
0.00 0.00 1.76 10.14 -0.84 1.76 -0.33 -1.16 15015
0.00 0.00 0.45 11.31 2.57 0.54 -0.79 -1.50 15023
-0.00 0.00 -0.16 10.85 9.40 -0.52 -0.64 -1.86 15030
0.01 -0.00 1.57 6.70 10.64 -1.08 -0.30 -2.25 15037
0.00 0.00 1.18 5.01 9.26 -1.45 -0.12 -2.55 15044
0.00 0.00 -0.03 4.78 7.33 -1.61 0.05 -2.82 15051
0.00 0.00 -0.17 4.89 5.64 -1.69 0.17 -2.97 15058
0.00 0.00 0.42 4.78 5.47 -1.77 0.20 -3.11 15066
0.00 -0.00 0.88 4.63 5.39 -1.86 0.16 -3.18 15073
0.01 -0.00 1.04 4.50 5.84 -1.97 0.12 -3.19 15080
0.00 0.00 1.37 4.16 6.84 -2.11 0.14 -3.13 15087
0.00 0.00 1.73 4.07 6.84 -2.31 0.17 -3.02 15094
0.00 0.00 1.82 4.05 8.06 -2.56 0.11 -2.86 15101
0.00 0.00 1.25 3.80 8.55 -2.82 0.03 -2.65 15109
0.00 0.00 2.01 3.41 8.91 -3.12 -0.06 -2.42 15116
0.00 -0.00 2.66 2.41 9.31 -3.40 -0.10 -2.13 15123
0.00 0.00 3.22 1.53 9.58 -3.59 -0.09 -1.85 15130
0.00 0.00 3.69 0.58 9.51 -3.75 -0.02 -1.60 15137
0.00 0.00 3.87 -0.35 9.26 -3.84 0.11 -1.36 15144
0.00 0.00 3.99 -1.00 9.13 -3.87 0.29 -1.17 15152
0.00 0.00 4.08 -1.73 9.32 -3.84 0.48 -0.98 15159
0.00 0.00 4.04 -2.19 9.66 -3.75 0.65 -0.81 15166
0.00 0.00 3.88 -2.87 10.09 -3.63 0.84 -0.72 15173
0.00 0.00 3.70 -3.44 10.97 -3.52 1.01 -0.62 15180
0.00 0.00 3.47 -3.93 11.86 -3.41 1.19 -0.57 15187
0.00 0.00 3.11 -4.38 12.81 -3.34 1.37 -0.51 15195
0.00 0.00 2.71 -4.71 13.61 -3.31 1.52 -0.44 15202
0.00 0.00 2.15 -5.02 14.05 -3.30 1.67 -0.36 15209
0.00 0.00 1.54 -5.53 14.92 -3.29 1.75 -0.28 15216
0.00 0.00 1.01 -6.07 15.36 -3.28 1.77 -0.20 15223
0.00 0.00 0.48 -6.70 15.29 -3.24 1.75 -0.09 15230
0.00 0.00 0.17 -7.12 15.11 -3.18 1.69 0.03 15238
0.00 0.00 0.07 -7.27 14.85 -3.08 1.61 0.11 15245
0.00 0.00 0.23 -7.47 14.43 -2.98 1.55 0.19 15252
0.00 0.00 0.47 -7.65 13.96 -2.83 1.53 0.25 15259
0.00 0.00 0.65 -7.74 13.52 -2.65 1.56 0.30 15266
0.00 0.00 0.86 -7.68 13.17 -2.49 1.61 0.36 15273
-0.00 0.00 0.62 -7.48 12.99 -2.27 1.67 0.43 15281
0.00 0.00 0.38 -7.22 12.80 -2.04 1.73 0.52 15288
0.00 0.00 0.27 -7.01 12.65 -1.82 1.77 0.60 15295
0.00 0.00 -0.05 -6.82 12.35 -1.57 1.77 0.71 15302
0.00 0.00 -0.43 -6.96 12.04 -1.33 1.72 0.82 15309
0.00 0.00 -0.65 -7.13 12.10 -1.06 1.64 0.90 15316
0.00 0.00 -0.96 -7.12 12.61 -0.82 1.52 0.99 15324
0.00 0.00 -1.15 -7.13 13.12 -0.65 1.41 1.07 15331
0.00 0.00 -1.31 -7.37 13.42 -0.51 1.30 1.13 15338
0.00 0.00 -1.35 -7.52 13.55 -0.46 1.23 1.18 15345
0.00 0.00 -1.41 -7.71 13.76 -0.45 1.20 1.23 15352
0.00 0.00 -2.22 -9.02 15.03 -0.43 1.20 1.31 15360
0.00 0.00 -2.49 -8.48 12.78 -0.53 1.13 1.36 15367
0.00 0.00 -3.38 -10.06 16.80 -0.46 0.89 1.43 15374
0.00 0.00 -1.00 -6.93 10.60 -0.60 0.84 1.46 15381
0.00 0.00 -2.05 -8.99 11.78 -0.68 0.87 1.49 15388
0.00 0.00 -1.94 -9.59 10.81 -0.75 0.89 1.52 15395
0.00 0.00 -1.99 -9.83 10.69 -0.74 0.97 1.50 15403
0.00 0.00 -2.48 -10.27 10.24 -0.77 0.98 1.47 15410
0.00 0.00 -2.96 -10.62 9.71 -0.83 0.98 1.44 15417
0.00 0.00 -3.91 -12.63 8.68 -0.86 0.95 1.42 15424
0.00 0.00 -4.73 -12.55 8.81 -0.83 0.65 1.41 15431
0.00 0.00 -5.87 -13.13 7.39 -0.82 0.29 1.40 15438
0.00 0.00 -5.73 -13.55 7.04 -0.77 -0.04 1.41 15446
0.00 0.00 -6.45 -15.54 8.43 -0.63 -0.48 1.43 15453
0.00 0.00 -5.08 -16.19 5.85 -0.44 -0.59 1.44 15460
0.00 0.00 -5.04 -17.88 5.99 -0.14 -0.61 1.44 15467
0.00 0.00 -4.38 -19.14 4.30 0.16 -0.61 1.42 15474
0.00 0.00 -5.10 -21.70 3.09 0.57 -0.62 1.41 15481
-0.00 0.01 -5.65 -24.74 0.84 1.08 -0.50 1.61 15489
-0.00 0.01 -6.62 -16.78 2.14 1.52 -0.46 2.07 15496
-0.00 0.03 -4.59 2.42 5.79 2.10 -0.23 2.07 15503
-0.01 0.08 -9.76 -6.21 12.01 2.61 -0.69 1.68 15510
-0.02 0.18 -11.25 -0.73 14.72 2.76 -1.45 0.96 15518
-0.02 0.22 -8.31 -0.90 14.91 2.61 -1.70 0.22 15525
-0.01 0.25 2.40 -5.64 48.47 2.11 -1.83 -0.34 15533
-0.02 0.26 0.06 0.40 6.68 -0.28 0.02 -0.11 15539
-0.02 0.23 0.33 -2.26 10.72 -0.22 0.05 -0.12 15546
-0.03 0.32 1.09 -1.53 10.13 -0.14 0.04 -0.08 15554
-0.04 0.36 0.97 -0.92 9.91 -0.08 0.01 -0.04 15560
-0.03 0.37 0.45 -0.79 9.92 -0.03 0.01 -0.02 15567
-0.01 0.35 0.24 -1.01 9.82 -0.02 0.01 -0.04 15575
0.02 0.33 0.35 -0.97 9.75 -0.01 0.02 -0.04 15582
-0.02 0.34 0.46 -0.87 9.76 -0.01 0.03 -0.03 15589
-0.03 0.33 0.44 -0.91 10.42 -0.01 0.03 -0.03 15596
-0.03 0.33 0.42 -0.94 9.78 -0.00 0.03 -0.04 15603
-0.02 0.31 0.43 -0.97 9.76 -0.01 0.03 -0.05 15610
0.01 0.30 0.41 -0.99 9.80 -0.02 0.02 -0.05 15618
0.05 0.30 0.39 -0.96 9.81 -0.03 0.02 -0.06 15625
0.01 0.33 0.42 -0.90 9.79 -0.03 0.03 -0.06 15632
0.00 0.34 0.40 -0.92 9.78 -0.03 0.02 -0.07 15639
0.00 0.35 0.30 -0.91 9.76 -0.03 0.02 -0.07 15646
0.01 0.39 0.35 -0.90 9.77 -0.04 0.03 -0.07 15653
0.02 0.39 0.34 -0.88 9.80 -0.04 0.03 -0.07 15661
0.02 0.38 0.36 -0.88 9.81 -0.04 0.04 -0.06 15668
0.02 0.36 0.38 -0.74 9.77 -0.03 0.04 -0.06 15675
0.02 0.34 0.37 -0.63 9.78 -0.03 0.05 -0.06 15682
0.04 0.38 0.40 -0.90 9.80 -0.02 0.05 -0.05 15689
0.04 0.40 0.39 -0.91 9.83 -0.02 0.06 -0.05 15696
0.05 0.39 0.41 -0.90 9.80 -0.01 0.06 -0.05 15704
0.04 0.41 0.45 -0.93 9.82 -0.00 0.05 -0.05 15711
0.04 0.38 0.45 -0.90 9.79 -0.00 0.05 -0.06 15718
0.04 0.37 0.45 -0.90 9.82 -0.00 0.05 -0.06 15725
0.07 0.36 0.42 -0.92 9.81 0.00 0.04 -0.07 15732
0.06 0.38 0.44 -0.90 9.81 0.00 0.04 -0.07 15739
0.06 0.35 0.28 -0.93 9.83 0.01 0.04 -0.07 15747
0.08 0.34 0.37 -0.87 9.81 0.01 0.04 -0.07 15754
0.09 0.32 0.34 -0.90 9.80 0.01 0.04 -0.07 15761
0.09 0.33 0.39 -0.88 9.83 0.02 0.04 -0.07 15768
0.11 0.27 0.38 -0.89 9.83 0.02 0.04 -0.07 15775
0.13 0.25 0.37 -0.89 9.81 0.03 0.04 -0.07 15782
0.12 0.26 0.39 -0.89 9.82 0.03 0.05 -0.07 15790
0.14 0.20 0.40 -0.89 9.83 0.03 0.04 -0.07 15797
0.16 0.18 0.41 -0.91 9.82 0.04 0.05 -0.07 15804
0.17 0.18 0.44 -0.92 9.81 0.04 0.04 -0.07 15811
0.19 0.15 0.43 -0.91 9.79 0.04 0.05 -0.07 15818
0.25 0.09 0.33 -0.92 9.74 0.04 0.05 -0.07 15825
0.24 0.03 0.39 -0.97 9.82 0.05 0.05 -0.07 15833
0.26 0.01 0.36 -0.94 9.81 0.04 0.05 -0.07 15840
0.28 0.01 0.36 -0.88 9.78 0.04 0.05 -0.07 15847
0.30 0.00 0.41 -0.96 9.80 0.04 0.05 -0.07 15854
0.35 0.00 0.42 -0.95 9.80 0.04 0.05 -0.07 15861
0.35 -0.01 0.45 -0.94 9.82 0.04 0.05 -0.07 15868
0.35 -0.01 0.40 -0.95 9.80 0.04 0.05 -0.07 15876
0.38 -0.02 0.43 -0.99 9.81 0.04 0.05 -0.07 15883
0.41 -0.02 0.39 -0.95 9.80 0.04 0.05 -0.07 15890
0.42 -0.01 0.44 -1.00 9.80 0.04 0.05 -0.08 15897
0.46 -0.02 0.41 -0.98 9.81 0.04 0.05 -0.07 15904
0.47 -0.02 0.42 -1.00 9.81 0.04 0.05 -0.07 15911
0.45 -0.02 0.36 -0.97 9.82 0.04 0.05 -0.07 15919
0.44 -0.03 0.36 -1.02 9.81 0.04 0.05 -0.07 15926
0.45 -0.02 0.40 -1.03 9.79 0.04 0.05 -0.07 15933
0.48 -0.02 0.44 -0.98 9.82 0.05 0.06 -0.07 15940
0.50 -0.02 0.44 -1.01 9.82 0.05 0.06 -0.07 15947
0.52 -0.02 0.44 -0.99 9.79 0.05 0.06 -0.07 15954
0.54 -0.03 0.40 -0.99 9.78 0.05 0.06 -0.08 15962
0.56 -0.04 0.31 -1.00 9.81 0.06 0.06 -0.08 15969
0.58 -0.03 0.48 -1.03 9.78 0.06 0.06 -0.08 15976
0.60 -0.03 0.45 -1.05 9.80 0.06 0.07 -0.09 15983
0.62 -0.01 0.43 -1.06 9.79 0.08 0.06 -0.09 15990
0.64 -0.01 0.61 -1.08 9.81 0.08 0.07 -0.11 15997
0.66 -0.01 0.43 -1.05 9.82 0.09 0.08 -0.10 16005
0.70 -0.01 0.42 -1.05 9.81 0.11 0.10 -0.10 16012
0.71 -0.02 0.48 -1.07 9.83 0.14 0.11 -0.11 16019
0.74 -0.02 0.42 -1.06 10.03 0.21 0.13 -0.10 16026
0.75 -0.03 0.42 -1.09 9.91 0.31 0.15 -0.10 16033
0.75 -0.03 0.46 -1.12 9.95 0.39 0.16 -0.10 16040
0.75 -0.04 0.45 -1.14 9.88 0.47 0.17 -0.10 16048
0.77 -0.04 0.52 -1.23 9.84 0.47 0.18 -0.11 16055
0.83 -0.04 0.50 -1.24 9.90 0.49 0.18 -0.11 16062
0.83 -0.02 0.53 -1.28 9.90 0.50 0.17 -0.10 16069
0.83 -0.03 0.49 -1.31 9.89 0.50 0.15 -0.11 16076
0.85 -0.03 0.46 -1.41 9.93 0.49 0.13 -0.11 16083
0.85 -0.05 0.58 -1.44 9.85 0.48 0.12 -0.10 16091
0.88 -0.04 0.56 -1.46 9.87 0.49 0.11 -0.11 16098
0.89 -0.04 0.60 -1.56 9.94 0.50 0.10 -0.11 16105
0.90 -0.03 0.54 -1.57 10.05 0.52 0.09 -0.12 16112
0.92 -0.04 0.67 -1.62 9.96 0.54 0.08 -0.12 16119
0.93 -0.04 0.60 -1.70 10.03 0.57 0.07 -0.13 16126
0.95 -0.05 0.53 -1.67 10.02 0.60 0.07 -0.13 16134
0.98 -0.03 0.63 -1.77 10.15 0.63 0.06 -0.13 16142
1.02 -0.05 0.59 -1.75 10.24 0.67 0.05 -0.13 16149
1.08 -0.04 0.42 -1.82 10.42 0.72 0.05 -0.12 16155
1.08 -0.04 0.46 -1.94 10.29 0.75 0.03 -0.12 16162
1.07 -0.04 0.45 -1.91 10.18 0.81 0.07 -0.11 16171
1.09 -0.05 0.46 -2.05 10.15 0.84 0.09 -0.11 16177
1.08 -0.05 0.53 -2.05 10.21 0.90 0.08 -0.11 16184
1.09 -0.04 0.61 -2.22 10.11 0.97 0.08 -0.12 16192
1.12 -0.04 0.48 -2.22 10.26 1.02 0.08 -0.12 16199
1.13 -0.04 0.66 -2.36 10.13 1.09 0.06 -0.12 16206
1.13 -0.04 0.66 -2.52 10.28 1.14 0.05 -0.12 16214
1.13 -0.06 0.68 -2.57 10.37 1.21 0.02 -0.13 16221
1.15 -0.04 0.69 -2.69 10.21 1.28 0.00 -0.14 16228
1.14 -0.04 0.55 -2.79 10.38 1.34 -0.01 -0.15 16235
1.14 -0.04 0.66 -2.79 10.47 1.42 -0.01 -0.15 16242
1.11 -0.04 0.49 -2.88 10.44 1.51 -0.02 -0.16 16249
1.10 -0.05 0.49 -2.90 10.73 1.59 -0.01 -0.15 16257
1.07 -0.05 0.54 -3.11 11.10 1.71 -0.01 -0.14 16264
1.07 -0.04 0.85 -3.30 11.13 1.83 0.01 -0.16 16270
1.04 -0.04 0.88 -3.43 10.73 1.97 0.02 -0.18 16278
1.01 -0.05 0.48 -3.62 11.44 2.09 0.01 -0.19 16284
0.94 -0.04 0.32 -3.57 11.10 2.24 0.11 -0.18 16292
0.82 -0.04 0.14 -3.67 10.99 2.43 0.20 -0.16 16300
0.73 -0.03 0.13 -4.04 10.89 2.63 0.30 -0.13 16307
0.61 -0.03 0.17 -4.19 11.75 2.83 0.42 -0.11 16314
0.53 -0.02 -0.01 -4.60 12.50 3.08 0.54 -0.07 16320
0.35 -0.02 0.17 -4.75 12.89 3.29 0.62 -0.05 16328
0.22 -0.02 0.28 -5.44 13.22 3.51 0.71 -0.02 16335
0.22 -0.02 0.16 -5.98 14.90 3.71 0.74 0.02 16342
0.16 -0.02 0.32 -6.97 15.14 3.80 0.71 0.10 16349
0.16 -0.02 0.28 -7.84 14.54 3.88 0.64 0.12 16356
0.10 -0.01 0.50 -8.57 16.21 3.92 0.64 0.17 16363
0.09 -0.01 1.15 -8.96 15.54 3.94 0.77 0.21 16370
0.09 -0.01 1.17 -9.61 16.81 3.91 0.78 0.23 16377
0.08 -0.01 2.06 -8.65 16.07 3.87 0.80 0.26 16385
0.08 -0.01 2.52 -7.20 15.08 3.80 0.93 0.27 16392
0.06 -0.00 2.17 -8.57 15.57 3.65 1.09 0.24 16399
0.08 -0.01 1.86 -8.68 15.39 3.46 1.22 0.14 16406
0.07 -0.01 0.97 -7.30 14.65 3.36 1.14 0.04 16413
0.06 -0.01 0.57 -4.80 14.24 3.29 1.03 -0.04 16420
0.03 -0.00 0.23 -3.42 14.52 3.20 0.85 -0.08 16428
0.02 -0.00 0.56 -2.78 15.28 3.19 0.62 -0.13 16435
0.01 0.00 0.40 -1.05 14.49 3.17 0.36 -0.18 16442
0.01 -0.00 -0.28 3.22 12.83 3.09 0.15 -0.21 16449
0.01 -0.00 -1.49 14.76 9.01 2.75 -0.04 -0.40 16456
0.00 0.00 -1.12 10.46 2.06 2.02 -0.16 -1.05 16463
0.00 0.00 -0.37 9.41 4.24 1.03 -0.91 -1.53 16471
0.00 -0.00 -1.54 10.20 9.76 -0.17 -1.11 -1.82 16478
0.00 -0.00 0.36 7.18 11.05 -0.95 -0.75 -2.15 16485
0.00 0.00 0.87 4.76 9.81 -1.30 -0.59 -2.51 16492
0.00 0.00 -0.32 4.31 8.09 -1.53 -0.43 -2.75 16499
0.00 0.00 -0.62 4.32 6.84 -1.62 -0.22 -2.96 16506
0.00 0.00 -0.30 4.33 6.23 -1.69 -0.13 -3.12 16514
0.00 0.00 -0.00 4.32 6.07 -1.79 -0.14 -3.21 16521
0.01 -0.00 0.05 4.09 6.22 -1.90 -0.18 -3.28 16528
0.00 0.00 0.29 3.99 6.36 -2.07 -0.22 -3.27 16535
0.00 0.00 0.75 3.94 6.61 -2.29 -0.26 -3.19 16542
0.00 0.00 1.12 4.18 7.53 -2.51 -0.28 -3.04 16549
0.00 0.00 1.20 4.29 8.13 -2.79 -0.37 -2.91 16557
0.00 0.00 1.35 4.06 8.77 -3.04 -0.46 -2.71 16564
0.00 0.00 1.67 3.42 9.11 -3.31 -0.49 -2.52 16571
0.00 0.00 2.43 2.50 9.42 -3.57 -0.44 -2.27 16578
0.00 0.00 3.09 1.48 9.60 -3.77 -0.36 -2.02 16585
0.00 0.00 3.57 0.61 9.41 -3.95 -0.22 -1.84 16592
0.00 0.00 3.70 -0.35 9.15 -4.04 -0.04 -1.63 16600
0.00 0.00 3.76 -1.12 9.21 -4.09 0.13 -1.42 16607
0.01 -0.00 3.88 -1.91 9.52 -4.09 0.33 -1.26 16614
0.00 0.00 3.83 -2.79 10.32 -4.06 0.45 -1.06 16621
0.00 0.00 3.82 -3.51 11.03 -3.97 0.51 -0.89 16628
0.00 0.00 3.90 -4.24 11.87 -3.84 0.53 -0.66 16635
0.00 0.00 4.13 -4.80 12.54 -3.76 0.55 -0.43 16643
0.00 0.00 4.59 -5.14 12.76 -3.65 0.64 -0.22 16650
0.00 0.00 4.91 -5.47 13.10 -3.59 0.82 0.01 16657
0.00 0.00 4.93 -5.98 14.05 -3.52 1.00 0.19 16664
0.00 0.00 4.62 -6.47 13.93 -3.44 1.24 0.42 16671
0.00 0.00 4.23 -6.92 14.31 -3.34 1.42 0.64 16678
0.00 0.00 3.67 -7.19 14.44 -3.21 1.58 0.83 16686
0.00 0.00 2.97 -7.54 14.23 -3.08 1.66 1.03 16693
0.00 0.00 2.73 -7.66 14.47 -2.92 1.66 1.17 16700
0.00 0.00 2.42 -7.98 14.42 -2.76 1.63 1.29 16707
0.00 0.00 2.21 -8.35 14.30 -2.61 1.60 1.36 16714
0.00 0.00 2.01 -8.55 14.21 -2.43 1.60 1.38 16721
0.00 -0.00 1.80 -8.67 14.17 -2.25 1.63 1.38 16729
0.00 0.00 1.58 -8.63 14.12 -2.10 1.66 1.36 16736
0.00 0.00 1.37 -8.46 13.86 -1.94 1.70 1.32 16743
0.00 0.00 1.06 -8.31 13.38 -1.79 1.73 1.27 16750
0.00 0.00 0.67 -8.34 12.91 -1.60 1.73 1.22 16757
0.00 0.00 0.30 -8.51 12.65 -1.39 1.68 1.15 16764
0.00 0.00 -0.09 -8.72 12.52 -1.19 1.61 1.08 16772
0.00 0.00 -0.50 -8.94 12.52 -0.94 1.50 1.00 16779
0.00 0.00 -0.85 -9.18 12.80 -0.75 1.41 0.90 16786
0.00 0.00 -1.01 -9.35 12.30 -0.58 1.33 0.83 16793
0.00 0.00 -1.31 -9.45 12.88 -0.50 1.28 0.76 16800
0.00 0.00 -1.46 -9.36 12.92 -0.47 1.25 0.71 16807
0.00 0.00 -1.80 -9.46 12.77 -0.49 1.21 0.68 16815
0.00 0.00 -2.13 -9.39 12.22 -0.53 1.20 0.69 16822
0.00 0.00 -2.37 -9.43 12.03 -0.58 1.17 0.71 16829
0.00 0.00 -2.77 -9.51 11.74 -0.65 1.10 0.75 16836
0.00 0.00 -3.07 -9.56 11.31 -0.73 1.03 0.80 16843
0.00 0.00 -3.04 -9.69 10.86 -0.83 0.94 0.83 16850
0.00 0.00 -2.63 -10.11 10.38 -0.95 0.85 0.85 16858
0.00 0.00 -2.34 -10.57 9.74 -1.05 0.78 0.86 16865
0.00 0.00 -1.83 -11.13 9.30 -1.17 0.76 0.86 16872
0.00 0.00 -1.33 -11.77 8.54 -1.25 0.78 0.85 16879
0.00 0.00 -1.21 -12.24 7.68 -1.29 0.83 0.85 16886
0.00 0.00 -7.36 -21.60 3.01 -1.27 0.80 0.88 16893
0.00 0.00 -3.61 -14.73 3.87 -0.64 0.22 0.97 16901
0.00 -0.00 -4.24 -13.52 1.50 -0.46 -0.30 0.97 16908
0.00 0.00 -4.65 -15.61 4.90 -0.17 -0.70 1.04 16915
0.00 0.00 -3.96 -16.91 5.81 0.08 -1.07 1.08 16922
0.00 0.00 -2.55 -16.35 5.84 0.36 -1.11 1.10 16929
0.00 0.00 -2.33 -18.00 5.84 0.59 -0.98 1.16 16936
0.00 0.00 -3.83 -20.51 4.72 0.97 -0.73 1.35 16944
-0.00 0.01 -8.26 -18.12 5.25 1.45 -0.57 1.85 16951
-0.00 0.03 -2.78 2.44 4.45 1.79 -0.19 2.01 16958
-0.00 0.03 -9.39 -5.46 9.98 2.19 -0.61 1.72 16965
-0.02 0.15 -9.79 0.36 12.35 2.41 -1.23 1.08 16972
-0.01 0.26 -8.92 -0.11 13.09 2.62 -1.54 0.29 16980
0.00 0.24 -0.82 -9.24 78.47 1.83 -2.02 -0.40 16988
-0.03 0.25 -0.46 -3.28 12.15 0.14 -1.10 -0.22 16994
-0.03 0.26 0.26 -2.48 10.51 -0.14 -0.09 -0.11 17001
-0.03 0.27 1.05 -1.77 9.84 -0.16 -0.04 -0.14 17008
-0.03 0.32 0.88 -1.80 10.15 -0.06 -0.07 -0.06 17016
-0.02 0.34 0.58 -0.85 9.98 -0.02 -0.05 -0.00 17022
-0.01 0.35 -0.04 -0.97 9.98 -0.01 -0.00 -0.03 17030
-0.02 0.34 0.02 -1.06 9.77 -0.02 0.03 -0.04 17037
-0.02 0.34 0.29 -0.97 9.82 -0.02 0.08 -0.02 17044
-0.04 0.37 0.39 -0.92 9.89 -0.02 0.09 -0.01 17051
-0.03 0.38 0.28 -0.96 9.77 -0.02 0.11 -0.02 17058
-0.03 0.39 0.43 -0.94 9.80 -0.02 0.11 -0.02 17065
-0.02 0.40 0.50 -0.93 9.76 -0.02 0.10 -0.02 17073
-0.03 0.38 0.47 -0.86 9.67 -0.02 0.08 -0.03 17080
-0.01 0.37 0.43 -0.88 9.60 -0.03 0.06 -0.03 17087
-0.02 0.38 0.44 -0.92 9.74 -0.04 0.05 -0.04 17094
-0.00 0.38 0.44 -0.94 9.80 -0.04 0.04 -0.04 17101
-0.02 0.39 0.41 -0.91 9.78 -0.04 0.03 -0.04 17108
0.01 0.40 0.38 -0.89 9.80 -0.04 0.04 -0.05 17116
0.01 0.40 0.36 -0.89 9.78 -0.04 0.05 -0.05 17123
0.01 0.45 0.40 -0.92 9.82 -0.04 0.05 -0.05 17130
-0.01 0.49 0.39 -0.93 9.82 -0.03 0.06 -0.05 17137
-0.00 0.50 0.34 -0.89 9.82 -0.03 0.06 -0.04 17144
0.01 0.49 0.41 -0.91 9.82 -0.02 0.06 -0.04 17152
0.00 0.50 0.43 -0.92 9.82 -0.02 0.06 -0.05 17159
-0.00 0.52 0.42 -0.89 9.78 -0.01 0.05 -0.05 17166
0.00 0.51 0.46 -0.93 9.81 -0.01 0.04 -0.05 17173
-0.00 0.52 0.44 -0.90 9.80 -0.01 0.03 -0.06 17180
-0.00 0.53 0.42 -0.91 9.79 -0.01 0.02 -0.06 17187
0.01 0.53 0.44 -0.88 9.79 -0.00 0.02 -0.07 17195
0.00 0.52 0.43 -0.90 9.80 0.00 0.01 -0.07 17202
0.01 0.49 0.40 -0.90 9.80 0.00 0.01 -0.07 17209
0.00 0.47 0.37 -0.88 9.81 0.00 0.01 -0.07 17216
0.02 0.46 0.34 -0.86 9.79 0.01 0.01 -0.07 17223
0.01 0.47 0.36 -0.93 9.80 0.01 0.02 -0.07 17230
0.01 0.44 0.38 -0.91 9.78 0.01 0.03 -0.06 17238
0.02 0.41 0.36 -0.93 9.79 0.02 0.04 -0.07 17245
0.02 0.37 0.42 -0.94 9.70 0.02 0.04 -0.06 17252
0.03 0.36 0.42 -0.95 9.80 0.02 0.04 -0.07 17259
0.04 0.33 0.37 -0.95 9.82 0.02 0.05 -0.06 17266
0.06 0.29 0.40 -0.91 9.79 0.02 0.05 -0.06 17273
0.06 0.28 0.41 -0.91 9.77 0.03 0.04 -0.06 17281
0.06 0.27 0.40 -0.93 9.76 0.03 0.05 -0.06 17288
0.06 0.27 0.40 -0.94 9.78 0.02 0.05 -0.06 17295
0.05 0.23 0.43 -0.94 9.81 0.02 0.05 -0.06 17302
0.07 0.24 0.40 -0.94 9.80 0.02 0.05 -0.07 17309
0.08 0.20 0.41 -0.93 9.80 0.02 0.05 -0.07 17316
0.10 0.20 0.45 -0.98 9.78 0.02 0.05 -0.07 17324
0.12 0.15 0.39 -0.93 9.78 0.02 0.05 -0.07 17331
0.14 0.10 0.43 -0.97 9.79 0.03 0.04 -0.07 17338
0.14 0.10 0.43 -0.95 9.81 0.02 0.04 -0.07 17345
0.16 0.09 0.42 -0.97 9.80 0.03 0.04 -0.07 17352
0.18 0.04 0.41 -0.98 9.80 0.03 0.04 -0.07 17359
0.19 0.04 0.43 -0.98 9.80 0.03 0.04 -0.07 17367
0.22 0.01 0.41 -0.96 9.81 0.02 0.04 -0.07 17374
0.23 0.01 0.40 -0.97 9.79 0.03 0.04 -0.07 17381
0.24 0.00 0.43 -0.97 9.83 0.02 0.04 -0.07 17388
0.25 0.01 0.42 -0.95 9.81 0.02 0.04 -0.07 17395
0.29 -0.00 0.44 -1.01 9.79 0.02 0.03 -0.07 17402
0.30 0.01 0.45 -0.99 9.81 0.02 0.03 -0.08 17410
0.30 -0.02 0.42 -0.99 9.81 0.02 0.03 -0.08 17417
0.29 -0.02 0.45 -1.01 9.79 0.02 0.03 -0.07 17424
0.31 -0.01 0.41 -1.01 9.81 0.03 0.03 -0.07 17431
0.31 0.00 0.39 -0.97 9.83 0.03 0.03 -0.07 17438
0.34 -0.02 0.44 -0.99 9.81 0.03 0.03 -0.08 17445
0.32 -0.02 0.37 -1.00 9.80 0.03 0.03 -0.08 17453
0.34 -0.03 0.40 -1.03 9.81 0.03 0.03 -0.08 17460
0.38 -0.01 0.36 -1.02 9.79 0.04 0.03 -0.08 17467
0.41 -0.01 0.40 -0.99 9.82 0.04 0.04 -0.07 17474
0.44 -0.02 0.40 -1.03 9.81 0.04 0.04 -0.08 17481
0.46 -0.02 0.43 -1.05 9.81 0.05 0.04 -0.08 17488
0.50 -0.02 0.47 -1.06 9.78 0.05 0.04 -0.08 17496
0.50 -0.03 0.44 -1.07 9.80 0.06 0.05 -0.08 17503
0.51 -0.02 0.41 -1.08 9.81 0.06 0.04 -0.09 17510
0.53 -0.03 0.43 -1.03 9.80 0.07 0.04 -0.10 17517
0.55 -0.03 0.41 -1.07 9.79 0.08 0.04 -0.10 17524
0.58 -0.02 0.47 -1.10 9.80 0.09 0.04 -0.10 17531
0.59 -0.04 0.43 -1.08 9.82 0.10 0.05 -0.11 17539
0.60 -0.04 0.51 -1.13 9.79 0.12 0.05 -0.13 17546
0.62 -0.03 0.40 -1.15 9.81 0.13 0.06 -0.15 17553
0.67 -0.02 0.38 -1.12 9.88 0.16 0.08 -0.15 17560
0.75 -0.03 0.40 -1.06 10.06 0.28 0.11 -0.13 17567
0.76 -0.04 0.43 -1.28 10.07 0.46 0.13 -0.13 17575
0.81 -0.03 0.35 -1.17 10.15 0.56 0.16 -0.13 17583
0.85 -0.04 0.37 -1.24 10.21 0.68 0.18 -0.14 17590
