Voltage_01 Voltage_02 Acc_x Acc_y Acc_z Gyro_x Gyro_y Gyro_z Time
5000
0.00 0.00 -2.50 4.39 6.98 -1.49 -1.39 -4.28 17
0.00 0.00 -1.88 3.12 6.63 -1.60 -1.57 -4.28 23
0.00 0.00 -0.91 3.00 6.45 -1.67 -1.78 -4.28 29
0.00 0.00 0.27 2.33 6.61 -1.69 -1.96 -4.28 35
0.00 0.00 0.88 2.09 7.30 -1.68 -2.06 -4.28 41
0.00 0.00 1.67 1.77 8.06 -1.65 -2.09 -4.28 48
0.00 0.00 2.82 1.52 8.43 -1.65 -2.02 -4.13 54
-0.00 0.00 3.15 1.60 10.20 -1.69 -1.93 -3.85 60
0.01 -0.00 5.44 1.91 9.75 -1.80 -1.72 -3.57 67
0.00 0.00 6.41 1.83 9.63 -1.93 -1.39 -3.23 74
0.00 0.00 6.83 1.70 9.58 -2.08 -1.06 -2.97 80
0.00 0.00 7.13 1.23 9.77 -2.23 -0.61 -2.64 87
0.00 0.00 7.27 0.27 10.10 -2.33 -0.22 -2.31 93
0.00 0.00 7.11 -0.77 10.28 -2.40 -0.01 -2.00 100
0.00 0.00 7.05 -1.86 10.35 -2.43 0.12 -1.66 107
0.00 0.00 7.18 -2.69 10.15 -2.42 0.16 -1.34 114
0.00 0.00 7.44 -3.31 10.10 -2.39 0.20 -1.08 121
0.00 0.00 7.84 -3.92 10.11 -2.34 0.28 -0.79 129
0.00 0.00 8.32 -4.33 10.39 -2.26 0.40 -0.57 136
0.00 0.00 8.62 -4.89 10.49 -2.16 0.60 -0.34 143
0.00 0.00 8.68 -5.34 10.57 -2.06 0.83 -0.13 150
0.00 0.00 8.52 -5.67 10.69 -1.94 1.15 0.04 157
0.00 0.00 7.89 -5.93 11.00 -1.82 1.50 0.24 164
0.00 0.00 7.00 -5.99 11.29 -1.68 1.77 0.46 172
0.00 0.00 5.84 -5.85 11.59 -1.55 2.03 0.66 179
-0.00 0.00 4.60 -5.70 12.04 -1.44 2.20 0.92 186
0.00 0.00 3.65 -5.58 12.42 -1.33 2.27 1.14 193
0.00 0.00 2.63 -5.47 12.80 -1.26 2.28 1.39 200
0.00 0.00 1.94 -5.49 13.23 -1.19 2.25 1.60 207
0.00 0.00 1.33 -5.39 13.18 -1.16 2.21 1.73 215
0.00 0.00 0.67 -5.37 13.00 -1.16 2.12 1.83 222
0.00 0.00 0.33 -5.40 12.80 -1.16 2.03 1.86 229
0.00 0.00 0.09 -5.38 12.60 -1.15 1.90 1.84 236
0.00 0.00 0.04 -5.50 12.50 -1.14 1.77 1.75 243
0.00 0.00 0.25 -5.50 12.29 -1.11 1.65 1.63 250
0.00 0.00 0.64 -5.59 12.24 -1.06 1.59 1.47 258
0.00 0.00 1.10 -5.46 11.90 -1.01 1.59 1.31 265
0.00 0.00 1.28 -5.49 11.74 -0.96 1.64 1.13 272
0.00 0.00 1.42 -5.66 11.80 -0.90 1.69 0.97 279
0.00 0.00 1.35 -5.80 11.72 -0.82 1.72 0.83 286
0.00 0.00 1.02 -5.72 11.45 -0.71 1.70 0.70 293
0.00 0.00 0.85 -5.71 11.38 -0.66 1.64 0.57 301
0.00 0.00 0.69 -5.74 11.53 -0.55 1.55 0.52 308
0.00 0.00 0.48 -5.47 11.32 -0.45 1.54 0.47 315
0.00 0.00 -0.00 -4.98 11.10 -0.33 1.69 0.50 322
0.00 0.00 -0.52 -4.87 11.13 -0.26 1.92 0.60 329
0.00 0.00 -1.03 -4.98 11.78 -0.23 2.01 0.68 336
0.00 0.00 -1.83 -5.27 12.02 -0.26 2.00 0.74 344
0.00 0.00 -2.56 -5.52 11.98 -0.33 1.95 0.77 351
0.00 0.00 -3.16 -6.02 11.17 -0.45 1.85 0.77 358
0.00 0.00 -3.99 -6.47 11.25 -0.58 1.62 0.74 365
0.00 0.00 -4.86 -6.80 10.45 -0.65 1.38 0.66 372
0.00 0.00 -5.65 -7.31 10.13 -0.68 1.09 0.55 379
0.00 0.00 -9.88 -10.18 10.64 -0.61 0.58 0.45 387
0.00 0.00 -8.06 -8.28 7.04 -0.40 0.04 0.38 394
0.00 0.00 -6.41 -7.42 7.52 -0.36 -0.29 0.30 400
0.00 0.00 -5.82 -9.83 4.80 -0.42 -0.25 0.24 406
0.00 0.00 -9.64 -12.21 10.54 -0.20 -0.76 0.24 412
0.00 0.00 -5.99 -9.81 8.91 0.01 -1.17 0.24 419
0.00 0.00 -5.73 -9.49 5.95 0.06 -1.13 0.21 425
0.00 0.00 -7.53 -11.39 7.71 0.20 -1.35 0.26 432
0.00 0.00 -7.41 -12.04 6.12 0.35 -1.69 0.36 439
0.00 0.00 -8.95 -12.41 6.32 0.50 -2.17 0.44 446
0.00 0.00 -11.43 -18.75 7.74 0.87 -2.71 0.63 453
-0.00 0.00 -7.64 -22.21 7.09 1.54 -1.94 1.43 460
-0.00 0.02 -8.83 -9.55 12.92 1.95 -1.76 2.18 467
-0.01 0.12 -25.10 -4.81 26.89 0.68 -2.32 1.25 476
-0.01 0.18 -3.38 -2.91 9.52 -0.34 -0.12 0.14 482
-0.02 0.29 -1.42 -0.86 11.15 -0.37 -0.16 -0.08 490
-0.03 0.31 0.02 -0.45 10.56 -0.21 -0.07 -0.29 496
-0.03 0.39 2.21 -0.88 10.41 -0.08 -0.03 -0.09 504
-0.03 0.40 0.75 -0.94 10.22 -0.03 0.05 0.02 510
-0.03 0.37 -0.24 -0.90 10.12 -0.01 0.06 -0.01 518
0.00 0.34 0.04 -0.54 9.64 -0.01 0.06 -0.03 525
0.01 0.35 0.62 -0.83 9.82 -0.02 0.06 -0.02 532
0.01 0.40 0.58 -1.02 9.83 -0.03 0.06 -0.01 539
0.02 0.37 0.32 -0.82 9.82 -0.05 0.05 -0.01 546
0.03 0.37 0.48 -0.84 9.81 -0.05 0.04 -0.03 553
0.03 0.40 0.43 -0.89 9.81 -0.05 0.04 -0.03 561
0.03 0.42 0.44 -0.81 9.76 -0.06 0.03 -0.04 568
0.03 0.48 0.35 -0.79 9.65 -0.06 0.03 -0.04 575
0.03 0.47 0.41 -0.75 9.79 -0.06 0.03 -0.05 582
0.02 0.52 0.36 -0.75 9.85 -0.05 0.04 -0.07 589
0.02 0.55 0.34 -0.73 9.78 -0.04 0.05 -0.07 596
0.03 0.57 0.40 -0.77 9.79 -0.03 0.05 -0.08 604
0.03 0.53 0.36 -0.75 9.83 -0.03 0.06 -0.08 611
0.01 0.53 0.36 -0.74 9.90 -0.02 0.07 -0.08 618
0.01 0.53 0.44 -0.79 9.85 -0.01 0.06 -0.07 625
0.00 0.53 0.32 -0.73 9.82 -0.01 0.06 -0.07 632
0.02 0.53 0.34 -0.77 9.80 -0.00 0.06 -0.06 640
0.03 0.50 0.37 -0.75 9.81 0.00 0.05 -0.06 647
0.02 0.48 0.39 -0.74 9.85 0.00 0.06 -0.07 654
0.01 0.47 0.39 -0.74 9.81 0.01 0.05 -0.06 661
0.02 0.40 0.43 -0.76 9.77 0.01 0.05 -0.07 668
0.01 0.38 0.48 -0.76 9.81 0.01 0.04 -0.07 675
0.03 0.37 0.44 -0.77 9.81 0.01 0.03 -0.07 683
0.06 0.35 0.46 -0.77 9.78 0.01 0.03 -0.08 690
0.04 0.34 0.40 -0.75 9.79 0.01 0.02 -0.08 697
0.04 0.33 0.36 -0.74 9.81 0.00 0.02 -0.08 704
0.04 0.33 0.36 -0.76 9.81 0.00 0.02 -0.08 711
0.05 0.31 0.35 -0.75 9.81 0.01 0.02 -0.07 718
0.06 0.30 0.39 -0.77 9.81 0.00 0.02 -0.07 726
0.07 0.28 0.37 -0.76 9.79 0.01 0.02 -0.08 733
0.05 0.30 0.38 -0.77 9.87 0.01 0.02 -0.08 740
0.05 0.28 0.38 -0.77 9.80 0.01 0.02 -0.08 747
0.04 0.28 0.38 -0.78 9.83 0.00 0.02 -0.08 754
0.06 0.28 0.36 -0.77 9.74 0.00 0.02 -0.08 761
0.08 0.22 0.38 -0.76 9.83 -0.00 0.02 -0.09 769
0.07 0.19 0.36 -0.78 9.81 0.00 0.02 -0.08 776
0.07 0.21 0.37 -0.76 9.82 -0.00 0.03 -0.08 783
0.06 0.21 0.36 -0.78 9.83 0.00 0.03 -0.09 790
0.06 0.20 0.35 -0.76 9.78 0.00 0.02 -0.08 797
0.07 0.19 0.40 -0.77 9.78 0.01 0.02 -0.09 804
0.09 0.20 0.39 -0.78 9.80 0.01 0.03 -0.09 812
0.09 0.18 0.38 -0.80 9.83 0.01 0.02 -0.09 819
0.09 0.19 0.34 -0.78 9.81 0.01 0.03 -0.08 826
0.11 0.18 0.38 -0.80 9.78 0.01 0.03 -0.09 833
0.13 0.14 0.39 -0.81 10.41 0.02 0.03 -0.09 840
0.13 0.16 0.41 -0.76 9.82 0.02 0.04 -0.09 847
0.14 0.13 0.34 -0.83 9.82 0.02 0.04 -0.09 855
0.13 0.05 0.35 -0.76 9.80 0.02 0.04 -0.09 862
0.11 0.09 0.36 -0.82 9.77 0.02 0.04 -0.09 869
0.12 0.07 0.39 -0.83 9.80 0.02 0.04 -0.09 876
0.17 0.04 0.41 -0.78 9.79 0.02 0.05 -0.09 883
0.23 0.01 0.36 -0.85 9.81 0.03 0.05 -0.09 890
0.28 -0.01 0.34 -0.83 9.82 0.04 0.05 -0.09 898
0.28 -0.01 0.35 -0.80 9.81 0.04 0.06 -0.09 905
0.29 -0.02 0.39 -0.85 9.84 0.05 0.06 -0.09 912
0.30 -0.00 0.42 -0.84 9.81 0.06 0.07 -0.09 919
0.32 -0.02 0.39 -0.79 9.87 0.07 0.07 -0.09 926
0.35 -0.01 0.41 -0.81 9.87 0.09 0.08 -0.09 933
0.41 -0.02 0.45 -0.82 9.88 0.11 0.08 -0.10 941
0.43 -0.02 0.41 -0.87 9.89 0.15 0.10 -0.11 948
0.45 -0.03 0.44 -0.95 10.04 0.21 0.11 -0.11 956
0.53 -0.03 0.44 -0.94 10.12 0.27 0.14 -0.13 963
0.59 -0.03 0.45 -0.95 10.12 0.37 0.16 -0.14 970
0.61 -0.02 0.57 -0.95 10.47 0.49 0.20 -0.16 977
0.69 -0.03 0.52 -1.03 10.77 0.68 0.23 -0.18 985
0.73 -0.03 0.54 -1.06 11.18 0.99 0.27 -0.17 992
0.79 -0.04 0.73 -1.25 11.07 1.20 0.21 -0.17 999
0.80 -0.04 0.58 -1.28 11.17 1.30 0.14 -0.18 1006
0.85 -0.03 0.62 -1.44 11.20 1.33 0.05 -0.20 1013
0.89 -0.04 1.22 -1.33 11.16 1.41 0.03 -0.20 1020
0.90 -0.03 0.58 -1.51 11.49 1.50 0.02 -0.21 1027
0.90 -0.04 0.55 -1.62 11.61 1.66 0.02 -0.21 1035
0.88 -0.04 0.63 -2.43 11.00 1.74 0.03 -0.21 1041
0.89 -0.04 0.47 -1.77 11.60 1.85 0.04 -0.21 1049
0.86 -0.02 0.34 -2.01 11.46 1.96 0.01 -0.19 1055
0.84 -0.03 0.21 -1.96 12.13 2.09 -0.00 -0.17 1063
0.81 -0.04 0.79 -2.52 11.23 2.23 0.00 -0.17 1071
0.75 -0.04 0.31 -2.26 11.61 2.35 0.04 -0.19 1078
0.70 -0.04 0.42 -2.49 11.88 2.50 0.08 -0.19 1084
0.59 -0.03 0.37 -2.48 10.84 2.67 0.13 -0.19 1092
0.50 -0.02 0.39 -2.97 13.07 2.83 0.15 -0.17 1098
0.39 -0.02 0.51 -3.32 12.96 3.07 0.26 -0.18 1106
0.26 -0.03 0.30 -3.51 12.43 3.26 0.30 -0.16 1113
0.20 -0.02 -0.04 -3.88 13.14 3.46 0.34 -0.12 1120
0.16 -0.02 -0.30 -4.48 14.77 3.62 0.40 -0.06 1127
0.11 -0.01 -0.11 -5.20 15.96 3.78 0.46 -0.00 1134
0.09 -0.00 -0.12 -5.83 16.19 3.90 0.50 0.07 1141
0.08 -0.01 0.30 -6.50 17.34 3.96 0.56 0.14 1148
0.05 -0.01 0.06 -6.46 16.38 3.97 0.64 0.18 1156
0.02 -0.00 0.15 -6.98 16.30 3.96 0.67 0.19 1163
0.02 -0.00 0.37 -6.53 16.19 3.94 0.62 0.18 1170
0.03 -0.00 0.55 -6.54 16.25 3.93 0.51 0.14 1177
0.03 -0.00 1.21 -6.06 16.18 3.90 0.40 0.10 1184
0.06 -0.01 1.43 -6.06 16.56 3.81 0.32 0.07 1191
0.01 -0.00 2.20 -5.91 15.99 3.70 0.27 0.03 1199
0.01 -0.00 2.63 -5.90 16.29 3.71 0.24 -0.02 1206
0.00 0.00 2.42 -5.10 16.33 3.84 0.13 -0.11 1213
0.00 -0.00 1.98 -2.53 15.51 3.81 0.13 -0.15 1220
0.02 -0.00 1.83 2.22 10.44 3.45 0.20 -0.15 1227
0.00 -0.00 3.01 2.22 8.56 2.92 0.30 -0.17 1234
0.00 0.00 2.79 6.34 3.41 2.33 0.39 -0.25 1242
0.00 0.00 5.03 10.67 0.57 1.52 0.43 -0.43 1249
0.00 0.00 -2.25 26.36 5.70 1.03 0.34 -1.04 1256
-0.00 0.00 2.76 11.18 12.39 0.25 0.18 -1.75 1263
0.00 -0.00 0.97 6.19 16.58 -0.94 -0.22 -2.06 1270
0.00 0.00 -0.91 8.31 12.65 -1.57 -0.16 -2.21 1277
0.00 0.00 -0.26 9.33 9.77 -1.79 0.04 -2.42 1285
0.00 0.00 0.73 8.99 7.07 -1.98 -0.12 -2.62 1292
0.00 0.00 0.63 7.84 6.27 -2.19 -0.36 -2.77 1299
0.00 0.00 1.17 6.41 6.61 -2.33 -0.54 -2.89 1306
0.00 0.00 1.98 5.59 6.92 -2.44 -0.62 -2.93 1313
0.00 0.00 2.90 5.12 8.19 -2.56 -0.64 -2.89 1320
0.00 0.00 3.32 4.64 7.45 -2.66 -0.62 -2.77 1328
0.00 0.00 3.74 4.18 7.54 -2.79 -0.59 -2.63 1335
0.00 0.00 4.05 3.74 7.81 -2.93 -0.57 -2.41 1342
0.00 0.00 4.57 2.98 8.44 -3.05 -0.53 -2.16 1349
0.00 0.00 4.96 2.37 8.99 -3.20 -0.47 -1.94 1356
0.00 0.00 5.06 1.68 9.86 -3.36 -0.34 -1.66 1363
0.00 0.00 5.21 1.08 10.43 -3.50 -0.18 -1.36 1371
0.00 0.00 5.41 0.34 10.50 -3.68 0.01 -1.08 1378
0.00 0.00 5.49 -0.28 10.36 -3.83 0.14 -0.80 1385
0.00 0.00 5.46 -0.74 10.18 -3.93 0.28 -0.60 1392
0.00 0.00 5.49 -1.42 10.23 -3.94 0.40 -0.40 1399
0.00 0.00 5.52 -2.02 10.35 -3.86 0.53 -0.24 1406
0.00 0.00 5.56 -2.79 10.78 -3.68 0.70 -0.12 1414
0.00 0.00 5.56 -3.28 11.34 -3.50 0.92 -0.01 1421
0.00 0.00 5.41 -3.56 11.18 -3.29 1.18 0.07 1428
0.00 0.00 4.89 -3.62 12.29 -3.11 1.55 0.13 1435
0.00 0.00 4.30 -3.70 12.87 -2.97 1.84 0.19 1442
0.00 0.00 3.61 -3.78 13.63 -2.84 2.12 0.23 1449
0.00 0.00 3.10 -4.28 14.92 -2.74 2.30 0.27 1457
0.00 0.00 2.46 -4.58 16.25 -2.67 2.38 0.31 1464
0.00 0.00 1.71 -5.22 17.12 -2.65 2.35 0.36 1471
0.00 0.00 1.14 -6.13 17.96 -2.66 2.23 0.44 1478
0.00 0.00 0.80 -7.01 18.07 -2.69 2.00 0.52 1485
0.00 0.00 0.94 -8.12 17.43 -2.74 1.71 0.63 1492
0.00 0.00 1.41 -8.89 16.43 -2.76 1.47 0.77 1500
0.00 0.00 1.84 -9.58 15.49 -2.72 1.28 0.84 1507
-0.00 0.00 2.09 -10.14 14.35 -2.60 1.20 0.92 1514
0.00 0.00 2.28 -10.78 12.97 -2.40 1.22 0.96 1521
0.00 0.00 2.09 -11.57 12.76 -2.10 1.27 0.98 1528
0.00 0.00 1.60 -12.40 12.03 -1.86 1.35 0.98 1536
0.00 0.00 0.83 -12.95 11.51 -1.50 1.48 1.00 1543
0.00 0.00 0.17 -13.54 11.24 -1.19 1.67 1.05 1550
0.00 0.00 -0.61 -13.79 11.00 -0.83 1.87 1.11 1557
0.00 0.00 -1.84 -14.01 10.76 -0.50 2.12 1.20 1564
0.00 0.00 -12.40 -18.96 19.58 0.10 1.43 1.36 1571
0.00 0.00 -3.35 -12.41 8.22 0.26 1.18 1.44 1579
0.00 0.00 -5.13 -15.08 7.15 0.08 1.38 1.44 1586
0.00 0.00 -5.01 -15.98 11.49 0.09 0.98 1.51 1593
0.00 0.00 -5.53 -15.87 11.30 -0.16 0.65 1.50 1600
0.00 0.00 -4.05 -15.22 9.66 -0.31 0.54 1.41 1607
0.00 0.00 -5.71 -15.83 8.02 -0.42 0.21 1.34 1614
0.00 0.00 -5.45 -15.26 6.33 -0.43 -0.15 1.27 1622
0.00 0.00 -5.97 -15.44 6.24 -0.33 -0.42 1.19 1629
0.00 0.00 -6.32 -16.72 4.95 -0.15 -0.84 1.09 1636
0.00 0.00 -5.78 -15.61 3.81 0.13 -1.24 1.05 1643
0.00 0.00 -7.45 -18.15 4.38 0.46 -1.59 1.03 1650
0.00 0.00 -5.81 -18.42 4.01 0.97 -1.67 1.21 1657
0.00 0.00 -5.64 -19.86 5.65 1.47 -1.61 1.67 1665
-0.00 0.02 -10.79 -20.89 5.42 2.10 -1.69 2.33 1673
-0.00 0.03 -8.94 -3.91 10.83 2.58 -1.86 2.57 1679
-0.00 0.03 -29.67 -11.08 37.93 1.57 -3.40 1.37 1687
-0.01 0.11 -5.34 -4.46 9.81 -0.26 -0.26 0.19 1693
-0.02 0.17 -3.47 -2.41 11.45 -0.37 -0.19 -0.11 1700
-0.02 0.22 -1.91 -1.31 10.28 -0.29 -0.14 -0.43 1708
-0.02 0.21 3.22 -1.07 9.77 -0.14 -0.14 -0.27 1715
0.03 0.31 2.04 -1.08 9.92 -0.08 -0.04 -0.00 1722
0.03 0.27 -0.47 -1.02 10.29 -0.04 -0.01 0.02 1729
0.04 0.29 -0.49 -0.57 9.76 -0.04 0.03 -0.05 1736
0.04 0.31 0.57 -0.78 9.68 -0.05 0.06 -0.03 1743
0.04 0.30 0.52 -0.87 9.77 -0.04 0.07 -0.00 1751
0.04 0.28 0.25 -0.69 9.82 -0.04 0.07 -0.02 1758
0.04 0.33 0.49 -0.81 9.82 -0.05 0.07 -0.02 1765
0.05 0.32 0.50 -0.82 9.88 -0.06 0.06 -0.03 1772
0.03 0.35 0.45 -0.82 9.79 -0.06 0.05 -0.00 1779
0.03 0.34 0.36 -0.70 9.51 -0.06 0.04 -0.05 1786
0.02 0.46 0.44 -0.73 9.82 -0.06 0.04 -0.05 1794
0.02 0.44 0.47 -0.72 10.38 -0.05 0.04 -0.06 1801
0.04 0.48 0.44 -0.69 9.80 -0.05 0.04 -0.06 1808
0.03 0.48 0.41 -0.64 9.86 -0.03 0.04 -0.07 1815
0.02 0.48 0.36 -0.68 9.82 -0.02 0.04 -0.07 1822
0.04 0.41 0.33 -0.73 9.94 -0.02 0.05 -0.07 1829
0.03 0.44 0.34 -0.72 9.87 -0.01 0.05 -0.07 1837
0.03 0.44 0.35 -0.74 9.54 -0.00 0.05 -0.07 1844
0.05 0.42 0.37 -0.74 9.88 0.00 0.06 -0.07 1851
0.04 0.40 0.38 -0.71 9.85 0.00 0.06 -0.07 1858
0.03 0.40 0.40 -0.73 9.80 0.01 0.06 -0.07 1865
0.03 0.36 0.47 -0.74 9.82 0.01 0.05 -0.07 1872
0.04 0.34 0.45 -0.73 9.81 0.01 0.05 -0.08 1880
0.04 0.35 0.45 -0.74 9.79 0.01 0.05 -0.08 1887
0.06 0.33 0.45 -0.72 9.78 0.01 0.04 -0.08 1894
0.05 0.28 0.43 -0.71 9.78 0.02 0.04 -0.09 1901
0.08 0.26 0.40 -0.72 9.77 0.02 0.04 -0.08 1908
0.08 0.24 0.36 -0.77 9.82 0.03 0.04 -0.08 1915
0.09 0.24 0.38 -0.73 9.80 0.03 0.05 -0.09 1923
0.11 0.20 0.34 -0.70 9.82 0.03 0.05 -0.08 1930
0.11 0.19 0.39 -0.78 9.82 0.03 0.06 -0.08 1937
0.15 0.13 0.38 -0.76 9.78 0.04 0.06 -0.08 1944
0.16 0.11 0.39 -0.74 9.81 0.04 0.05 -0.08 1951
0.15 0.12 0.45 -0.80 9.78 0.04 0.06 -0.08 1958
0.17 0.08 0.47 -0.76 9.81 0.04 0.06 -0.08 1966
0.20 0.06 0.46 -0.78 9.84 0.04 0.06 -0.08 1973
0.23 0.00 0.44 -0.77 9.83 0.04 0.06 -0.08 1980
0.24 0.00 0.40 -0.81 9.80 0.03 0.06 -0.08 1987
0.24 -0.01 0.46 -0.78 9.81 0.03 0.06 -0.08 1994
0.23 -0.00 0.46 -0.76 9.79 0.03 0.05 -0.08 2001
0.27 0.01 0.42 -0.79 9.81 0.03 0.06 -0.08 2009
0.29 0.00 0.45 -0.81 9.82 0.03 0.05 -0.08 2016
0.31 -0.01 0.41 -0.81 9.80 0.03 0.05 -0.08 2023
0.33 -0.01 0.38 -0.80 9.81 0.07 0.05 -0.08 2030
0.36 -0.01 0.45 -0.78 9.81 0.04 0.04 -0.09 2037
0.39 -0.02 0.42 -0.83 9.83 0.04 0.05 -0.08 2044
0.42 -0.02 0.46 -0.81 9.82 0.06 0.05 -0.09 2052
0.44 -0.02 0.45 -0.84 9.83 0.06 0.05 -0.09 2059
0.41 -0.02 0.44 -0.80 9.81 0.10 0.05 -0.09 2066
0.41 -0.02 0.44 -0.83 9.83 0.08 0.05 -0.09 2073
0.44 -0.02 0.45 -0.86 9.81 0.08 0.05 -0.09 2080
0.49 -0.02 0.47 -0.84 9.86 0.09 0.05 -0.10 2087
0.52 -0.01 0.41 -0.89 9.84 0.11 0.05 -0.10 2095
0.58 -0.01 0.46 -0.86 9.86 0.12 0.06 -0.11 2102
0.59 -0.03 0.46 -0.89 9.85 0.14 0.07 -0.11 2109
0.63 -0.04 0.43 -0.94 9.86 0.18 0.07 -0.11 2116
0.65 -0.04 0.52 -0.95 9.89 0.21 0.08 -0.12 2123
0.70 -0.03 0.48 -0.94 10.04 0.26 0.09 -0.13 2130
0.75 -0.03 0.46 -0.97 10.02 0.33 0.10 -0.14 2138
0.75 -0.03 0.43 -0.97 10.27 0.42 0.11 -0.14 2146
0.79 -0.04 0.43 -1.02 10.45 0.54 0.13 -0.15 2153
0.83 -0.04 0.51 -1.09 10.43 0.70 0.13 -0.15 2160
0.79 -0.04 0.58 -1.79 10.44 0.77 0.11 -0.15 2167
0.86 -0.03 0.69 -1.35 10.52 0.85 0.08 -0.15 2174
0.87 -0.03 0.60 -1.38 10.50 0.89 0.05 -0.16 2181
0.87 -0.03 0.55 -1.38 10.62 0.93 0.02 -0.16 2189
0.90 -0.04 0.65 -1.51 10.79 0.98 0.01 -0.17 2196
0.97 -0.04 0.58 -1.49 10.60 1.06 -0.00 -0.18 2202
0.99 -0.04 0.66 -1.61 11.12 1.15 -0.01 -0.20 2210
1.04 -0.04 0.57 -1.49 11.16 1.25 -0.01 -0.21 2217
1.05 -0.04 0.77 -1.93 11.60 1.36 -0.02 -0.22 2225
1.07 -0.04 0.34 -1.58 11.71 1.48 -0.03 -0.24 2232
1.07 -0.04 0.68 -1.93 11.23 1.59 -0.05 -0.25 2239
1.09 -0.05 0.74 -2.28 11.10 1.73 -0.08 -0.25 2246
1.07 -0.04 0.47 -2.32 11.41 1.84 -0.12 -0.25 2253
1.05 -0.04 0.37 -2.27 12.37 2.00 -0.15 -0.25 2260
1.04 -0.05 0.09 -2.17 12.12 2.18 -0.14 -0.25 2268
1.01 -0.04 0.32 -2.44 12.28 2.36 -0.12 -0.24 2275
0.94 -0.05 0.51 -2.81 13.06 2.59 -0.07 -0.24 2282
0.84 -0.04 0.53 -3.10 13.08 2.90 0.03 -0.26 2288
0.71 -0.03 0.49 -2.54 11.86 3.10 0.06 -0.27 2296
0.58 -0.02 0.50 -3.73 13.59 3.37 0.18 -0.26 2304
0.47 -0.02 -0.88 -3.70 14.68 3.60 0.19 -0.24 2311
0.31 -0.02 -0.17 -4.33 14.88 3.86 0.30 -0.20 2318
0.22 -0.02 -1.04 -4.92 15.97 4.07 0.35 -0.10 2324
0.13 -0.01 -1.04 -5.65 15.74 4.16 0.41 0.03 2331
0.11 -0.01 -0.37 -6.63 17.25 4.21 0.45 0.11 2338
0.11 -0.01 0.34 -7.48 18.40 4.21 0.54 0.19 2347
0.08 -0.01 0.86 -7.49 17.27 4.20 0.69 0.21 2353
0.07 -0.01 0.85 -7.23 16.56 4.18 0.79 0.19 2360
0.05 -0.01 0.71 -6.69 16.35 4.15 0.78 0.13 2367
0.05 -0.01 -0.12 -6.66 16.45 4.09 0.62 0.07 2374
0.03 -0.00 -0.18 -5.92 16.52 4.00 0.35 0.01 2381
0.02 -0.00 0.28 -5.58 15.38 3.82 0.10 -0.03 2388
0.01 -0.00 1.29 -4.78 15.14 3.70 -0.10 -0.06 2396
0.01 -0.00 2.15 -4.12 15.60 3.75 -0.19 -0.09 2403
0.01 -0.00 2.53 -3.18 15.56 3.90 -0.26 -0.13 2410
0.00 -0.00 2.26 -0.64 14.33 3.92 -0.11 -0.15 2417
0.01 -0.00 3.54 3.84 8.77 3.68 0.15 -0.22 2424
0.00 -0.00 3.95 5.33 7.24 3.20 0.51 -0.32 2432
0.00 0.00 2.72 11.70 3.04 2.57 0.70 -0.65 2439
0.00 0.00 0.71 17.71 1.44 1.67 0.64 -1.23 2446
0.00 0.00 1.14 12.06 9.80 0.99 0.52 -1.93 2453
0.00 0.00 2.17 6.60 15.85 0.06 0.46 -2.24 2460
0.00 0.00 0.36 6.06 14.61 -0.75 0.57 -2.41 2467
0.00 0.00 0.14 7.50 11.68 -1.12 0.77 -2.61 2475
0.00 0.00 0.66 8.50 9.33 -1.48 0.66 -2.76 2482
0.00 0.00 0.83 8.32 7.58 -1.82 0.42 -2.88 2489
0.00 0.00 1.09 7.25 7.39 -2.07 0.21 -2.97 2496
0.00 0.00 1.51 5.93 7.68 -2.29 -0.01 -2.94 2503
0.00 0.00 2.04 5.02 7.88 -2.45 -0.19 -2.88 2510
0.00 0.00 2.46 4.60 7.96 -2.61 -0.29 -2.76 2518
0.00 0.00 3.11 4.41 8.21 -2.78 -0.36 -2.56 2525
0.00 0.00 3.55 4.15 8.38 -2.95 -0.41 -2.31 2532
0.00 0.00 4.11 3.72 8.54 -3.17 -0.42 -2.08 2539
0.00 0.00 4.50 3.16 8.91 -3.37 -0.34 -1.80 2546
0.00 0.00 4.83 2.56 9.43 -3.60 -0.20 -1.55 2553
0.00 0.00 4.99 1.60 9.67 -3.80 0.02 -1.25 2561
0.00 0.00 4.99 0.57 9.88 -3.96 0.19 -0.94 2568
0.00 0.00 4.85 -0.31 9.83 -4.09 0.37 -0.69 2575
0.00 0.00 4.73 -0.97 9.69 -4.14 0.49 -0.42 2582
0.00 0.00 4.65 -1.56 9.57 -4.16 0.56 -0.19 2589
0.00 0.00 4.83 -2.32 9.65 -4.12 0.62 -0.02 2596
0.00 0.00 5.07 -3.07 10.15 -4.03 0.72 0.14 2604
0.00 0.00 5.25 -3.77 10.88 -3.84 0.81 0.25 2611
0.00 0.00 5.46 -4.36 11.75 -3.63 0.96 0.34 2618
0.00 0.00 5.53 -4.62 12.42 -3.47 1.14 0.38 2625
0.00 0.00 5.35 -4.70 12.84 -3.34 1.39 0.41 2632
0.00 0.00 4.78 -4.62 13.82 -3.26 1.66 0.42 2639
0.00 0.00 4.08 -4.75 14.39 -3.23 1.84 0.42 2647
0.00 0.00 3.44 -5.03 15.26 -3.21 1.96 0.44 2654
0.00 0.00 2.73 -5.27 16.02 -3.20 1.99 0.47 2661
0.00 0.00 2.12 -5.76 16.29 -3.17 1.97 0.51 2668
0.00 0.00 1.79 -6.30 16.47 -3.13 1.91 0.56 2675
0.00 -0.00 1.63 -6.97 16.56 -3.04 1.85 0.61 2682
0.00 0.00 1.69 -7.77 16.39 -2.95 1.79 0.64 2690
0.00 0.00 1.76 -8.56 16.19 -2.86 1.74 0.67 2697
0.00 0.00 1.80 -9.12 15.74 -2.73 1.69 0.69 2704
0.00 0.00 1.54 -9.65 15.19 -2.60 1.67 0.71 2711
0.00 0.00 1.29 -10.04 14.52 -2.38 1.64 0.77 2718
0.00 0.00 1.03 -10.71 14.17 -2.11 1.57 0.74 2725
0.00 0.00 0.86 -11.77 13.23 -1.83 1.52 0.72 2733
0.00 0.00 0.66 -12.62 12.72 -1.47 1.53 0.70 2740
0.00 0.00 0.31 -13.05 12.08 -1.08 1.70 0.70 2747
0.00 0.00 -0.15 -13.28 11.60 -0.80 1.94 0.76 2754
0.00 0.00 -0.96 -13.31 11.51 -0.53 2.29 0.78 2761
0.00 0.00 -2.06 -13.50 11.72 -0.36 2.64 0.85 2768
0.00 0.00 -3.04 -13.94 12.05 -0.25 2.85 0.90 2776
0.00 0.00 -4.07 -14.44 12.82 -0.21 2.87 0.96 2783
0.00 0.00 -4.99 -14.91 13.18 -0.25 2.69 0.99 2790
0.00 0.00 -5.96 -15.50 12.78 -0.36 2.27 0.98 2797
0.00 0.00 -6.78 -15.97 11.32 -0.51 1.76 0.97 2804
0.00 0.00 -7.16 -15.98 9.41 -0.70 1.32 0.95 2811
0.00 0.00 -7.08 -16.03 8.12 -0.87 0.87 0.87 2819
0.00 0.00 -7.00 -16.60 7.00 -0.94 0.57 0.76 2826
0.00 0.00 -6.62 -17.34 6.50 -0.91 0.30 0.63 2833
0.00 0.00 -8.28 -19.60 7.69 -0.72 -0.07 0.48 2840
0.00 0.00 -15.24 -20.49 13.28 -0.05 -1.13 0.46 2847
0.00 0.00 -7.76 -17.62 4.07 0.22 -1.70 0.36 2854
0.00 0.00 -7.02 -15.98 4.11 0.61 -2.34 0.35 2862
0.00 0.00 -5.50 -15.81 4.37 0.81 -2.72 0.36 2869
0.00 0.00 -7.59 -15.97 6.87 1.12 -3.35 0.54 2876
-0.00 0.02 -6.27 -9.23 11.06 1.45 -3.82 0.90 2883
-0.00 0.01 2.20 3.45 16.39 1.98 -2.64 1.07 2890
-0.00 0.03 -3.67 2.80 13.35 1.99 -1.22 1.47 2897
-0.01 0.08 -4.91 -1.00 14.85 1.98 -0.73 1.63 2905
-0.02 0.20 -8.18 1.33 8.95 1.79 -1.03 1.21 2912
-0.02 0.26 -8.50 -1.87 15.37 2.01 -1.28 0.42 2920
-0.02 0.30 -3.02 -2.10 18.00 0.84 -2.21 -0.14 2927
-0.02 0.31 -2.49 -3.32 12.69 0.02 -0.52 -0.00 2934
-0.03 0.40 0.29 -3.59 10.07 -0.18 -0.05 -0.09 2940
-0.03 0.45 0.83 -2.50 9.94 -0.13 -0.05 -0.01 2948
-0.04 0.43 0.50 -0.85 10.04 -0.07 -0.02 0.04 2955
-0.04 0.50 0.02 -0.46 10.02 -0.04 0.03 0.01 2962
-0.03 0.56 0.43 -1.02 9.76 -0.04 0.07 -0.01 2969
-0.01 0.53 0.70 -1.00 9.87 -0.04 0.08 0.01 2976
-0.02 0.56 0.54 -0.92 9.83 -0.04 0.09 -0.00 2983
-0.02 0.52 0.55 -0.92 9.81 -0.04 0.11 -0.02 2991
-0.03 0.55 0.64 -1.03 9.73 -0.04 0.11 -0.03 2998
-0.02 0.57 0.62 -0.98 9.82 -0.04 0.11 -0.04 3005
-0.02 0.60 0.57 -0.85 9.78 -0.04 0.11 -0.04 3012
-0.02 0.58 0.64 -0.89 9.68 -0.04 0.10 -0.04 3019
-0.02 0.62 0.75 -0.88 9.63 -0.03 0.10 -0.05 3026
-0.02 0.59 0.62 -0.85 9.61 -0.03 0.10 -0.05 3034
-0.02 0.57 0.57 -0.86 9.78 -0.02 0.10 -0.05 3041
-0.01 0.58 0.58 -0.86 9.81 -0.01 0.09 -0.05 3048
0.00 0.57 0.54 -0.83 9.23 -0.01 0.11 -0.05 3055
-0.01 0.57 0.67 -0.94 9.81 -0.00 0.13 -0.04 3062
-0.01 0.55 0.63 -0.90 9.79 -0.00 0.13 -0.04 3069
-0.01 0.53 0.63 -0.90 9.79 -0.00 0.13 -0.04 3077
-0.02 0.50 0.58 -0.81 9.81 0.00 0.13 -0.04 3084
0.00 0.50 0.69 -0.86 10.40 0.00 0.13 -0.05 3091
0.01 0.46 0.61 -0.84 9.78 0.00 0.12 -0.05 3098
-0.00 0.45 0.70 -0.87 9.78 0.00 0.12 -0.05 3105
-0.02 0.43 0.69 -0.86 9.77 0.00 0.11 -0.05 3112
-0.04 0.42 0.66 -0.87 9.73 0.01 0.11 -0.06 3120
-0.03 0.43 0.65 -0.85 9.75 0.00 0.11 -0.05 3127
-0.02 0.42 0.68 -0.88 9.78 0.00 0.11 -0.05 3134
-0.03 0.40 0.64 -0.87 9.79 0.01 0.12 -0.05 3141
-0.03 0.38 0.67 -0.89 9.78 0.01 0.12 -0.05 3148
-0.03 0.38 0.68 -0.89 9.80 0.01 0.13 -0.05 3155
-0.03 0.32 0.65 -0.83 9.83 0.01 0.13 -0.05 3163
-0.02 0.33 0.74 -0.82 9.75 0.01 0.13 -0.04 3170
-0.02 0.34 0.73 -0.85 9.74 0.01 0.13 -0.05 3177
-0.02 0.29 0.78 -0.90 9.79 0.01 0.13 -0.05 3184
0.01 0.32 0.71 -0.89 9.72 0.00 0.12 -0.05 3191
0.02 0.25 0.79 -0.89 9.71 0.00 0.12 -0.05 3198
0.01 0.31 0.80 -0.85 9.71 0.01 0.11 -0.05 3206
0.02 0.30 0.78 -0.88 9.79 0.01 0.10 -0.05 3213
0.03 0.23 0.76 -0.90 9.68 0.01 0.10 -0.06 3220
0.02 0.25 0.76 -0.85 9.71 0.01 0.09 -0.06 3227
0.02 0.23 0.79 -0.84 9.75 0.01 0.08 -0.06 3234
0.02 0.19 0.80 -0.85 9.74 0.01 0.07 -0.06 3241
0.01 0.22 0.74 -0.89 9.77 0.01 0.06 -0.06 3249
0.02 0.18 0.78 -0.87 9.71 0.02 0.05 -0.06 3256
0.04 0.15 0.81 -0.83 9.76 0.02 0.05 -0.06 3263
0.05 0.12 0.78 -0.89 9.76 0.02 0.04 -0.06 3270
0.05 0.07 0.79 -0.87 9.78 0.02 0.04 -0.06 3277
0.04 0.08 0.80 -0.86 9.82 0.03 0.04 -0.06 3284
0.01 0.08 0.76 -0.89 9.75 0.03 0.04 -0.06 3292
0.02 0.04 0.75 -0.89 9.80 0.03 0.03 -0.06 3299
0.03 0.04 0.75 -0.88 9.78 0.03 0.03 -0.05 3306
0.03 0.02 0.74 -0.92 9.79 0.03 0.02 -0.06 3313
0.02 0.05 0.82 -0.91 9.78 0.03 0.00 -0.06 3320
0.02 0.01 0.82 -0.92 9.75 0.03 -0.01 -0.06 3328
0.03 0.02 0.80 -0.96 9.77 0.04 -0.03 -0.07 3335
0.04 0.02 0.83 -0.91 9.77 0.04 -0.04 -0.07 3342
0.10 0.00 0.80 -0.96 9.77 0.04 -0.06 -0.08 3349
0.05 0.01 0.80 -0.93 9.78 0.05 -0.07 -0.08 3356
0.12 -0.01 0.76 -0.91 9.78 0.05 -0.07 -0.08 3363
0.11 0.00 0.77 -0.98 9.79 0.05 -0.07 -0.08 3371
0.12 0.00 0.77 -0.95 9.79 0.05 -0.05 -0.09 3378
0.15 0.00 0.70 -0.93 9.81 0.06 -0.04 -0.09 3385
0.14 -0.01 0.69 -1.01 9.85 0.08 -0.02 -0.09 3392
0.17 -0.02 0.69 -0.97 9.87 0.09 0.00 -0.10 3399
0.22 -0.02 0.68 -0.98 9.85 0.12 0.04 -0.10 3406
0.21 -0.02 0.67 -0.98 9.92 0.16 0.08 -0.10 3414
0.28 -0.00 0.81 -0.99 9.99 0.22 0.14 -0.12 3421
0.37 -0.02 0.79 -1.12 10.14 0.32 0.22 -0.12 3429
0.37 -0.02 0.87 -1.20 10.21 0.43 0.27 -0.12 3436
0.41 -0.02 0.87 -1.25 10.44 0.62 0.27 -0.14 3443
0.45 -0.03 0.95 -1.29 10.88 0.90 0.28 -0.15 3449
0.47 -0.03 0.84 -1.27 11.50 1.16 0.30 -0.17 3458
0.55 -0.03 0.81 -1.43 11.48 1.44 0.27 -0.18 3465
0.59 -0.03 0.99 -1.54 11.76 1.61 0.21 -0.20 3472
0.60 -0.03 0.89 -1.59 11.58 1.73 0.16 -0.21 3479
0.59 -0.04 0.97 -1.72 11.66 1.82 0.11 -0.21 3486
0.61 -0.03 1.20 -1.55 12.05 1.94 0.08 -0.21 3493
0.63 -0.01 0.98 -2.09 11.79 2.08 0.08 -0.19 3500
0.63 -0.02 0.14 -1.83 12.95 2.26 0.10 -0.18 3508
0.64 -0.03 0.96 -3.03 12.64 2.44 0.13 -0.20 3515
0.62 -0.03 1.07 -2.29 12.33 2.62 0.16 -0.17 3522
0.55 -0.04 0.72 -2.35 12.51 2.80 0.21 -0.19 3529
0.50 -0.03 0.63 -2.70 13.15 3.02 0.30 -0.20 3535
0.43 -0.02 1.02 -2.94 13.69 3.31 0.36 -0.18 3544
0.33 -0.01 0.55 -3.26 14.40 3.50 0.35 -0.14 3551
0.25 -0.02 1.04 -3.58 14.79 3.80 0.43 -0.13 3558
0.14 -0.01 0.72 -4.06 15.39 4.05 0.44 -0.12 3564
0.09 -0.01 0.88 -4.68 15.73 4.20 0.43 -0.10 3571
0.09 -0.01 0.61 -5.66 17.62 4.25 0.46 -0.07 3578
0.07 -0.01 0.80 -6.54 18.34 4.28 0.49 -0.02 3586
0.07 -0.01 1.51 -7.22 18.76 4.28 0.62 0.04 3593
0.07 -0.01 1.70 -7.01 18.37 4.28 0.76 0.05 3600
0.06 -0.01 1.93 -6.44 17.28 4.28 0.83 0.02 3607
0.06 -0.01 2.31 -6.40 16.92 4.28 0.83 -0.03 3614
0.02 -0.00 2.62 -5.21 17.03 4.28 0.88 -0.06 3621
0.00 0.00 3.06 -4.78 16.94 4.27 0.99 -0.10 3629
0.02 -0.00 2.88 -5.34 17.61 4.24 1.13 -0.16 3636
0.02 -0.00 1.67 -5.54 18.07 4.21 1.15 -0.22 3643
0.01 -0.00 0.77 -4.86 18.31 4.24 1.00 -0.33 3650
0.00 0.00 0.06 -1.83 16.49 4.21 0.83 -0.39 3657
0.00 0.00 0.28 3.07 13.77 3.98 0.74 -0.34 3664
0.01 -0.00 0.55 6.65 8.21 3.26 0.76 -0.35 3672
0.00 -0.00 1.20 8.82 0.30 2.34 0.65 -0.46 3679
0.00 0.00 1.33 19.15 3.82 1.18 0.08 -0.60 3686
0.00 0.00 -5.41 20.60 1.66 0.65 -0.10 -1.38 3693
0.00 0.00 -3.22 7.55 17.48 -0.57 -1.16 -1.82 3700
0.00 0.00 -2.71 6.26 15.14 -1.73 -1.37 -2.06 3707
0.00 0.00 -2.21 7.83 10.95 -1.89 -1.05 -2.32 3715
0.00 0.00 -0.14 7.47 8.92 -1.86 -0.80 -2.60 3722
0.00 0.00 -0.05 7.41 6.46 -1.98 -0.89 -2.92 3729
0.00 0.00 -0.02 7.18 6.14 -2.10 -0.96 -3.14 3736
0.00 0.00 0.82 6.37 6.82 -2.25 -0.94 -3.31 3743
0.00 0.00 1.49 5.85 7.26 -2.43 -0.88 -3.37 3750
0.00 0.00 2.30 5.60 7.59 -2.67 -0.72 -3.36 3758
0.00 0.00 2.99 5.32 8.73 -2.88 -0.53 -3.28 3765
0.00 0.00 3.12 5.21 8.98 -3.14 -0.42 -3.17 3772
0.00 0.00 3.20 4.82 9.14 -3.42 -0.33 -3.00 3779
0.00 0.00 3.43 4.24 9.33 -3.67 -0.29 -2.74 3786
0.00 0.00 3.54 3.49 9.27 -3.91 -0.27 -2.48 3793
0.00 -0.00 3.73 2.40 9.58 -4.05 -0.23 -2.13 3801
0.00 0.00 4.04 1.43 9.49 -4.11 -0.21 -1.82 3808
0.00 0.00 4.49 0.40 9.54 -4.11 -0.22 -1.46 3815
0.00 0.00 4.98 -0.17 9.65 -4.10 -0.24 -1.11 3822
0.00 0.00 5.56 -0.58 10.27 -4.05 -0.22 -0.85 3829
0.00 0.00 6.37 -0.99 11.01 -4.01 -0.09 -0.57 3836
0.00 0.00 7.05 -1.63 11.88 -3.95 0.12 -0.32 3844
0.00 0.00 7.69 -2.53 12.49 -3.90 0.47 -0.15 3851
0.00 0.00 7.76 -3.35 13.20 -3.87 0.88 0.05 3858
0.00 0.00 7.62 -3.87 13.85 -3.84 1.26 0.19 3865
0.00 0.00 7.08 -4.79 14.37 -3.81 1.69 0.36 3872
0.00 0.00 6.37 -6.12 15.14 -3.75 1.98 0.52 3879
0.00 -0.00 5.44 -6.36 15.71 -3.67 2.18 0.66 3887
0.00 0.00 4.60 -7.33 16.20 -3.58 2.22 0.83 3894
0.00 0.00 4.07 -8.28 17.11 -3.44 2.16 0.98 3901
0.00 0.00 3.41 -9.40 16.96 -3.26 2.01 1.15 3908
0.00 0.00 3.11 -10.30 16.82 -3.08 1.85 1.30 3915
0.00 0.00 2.88 -10.74 16.51 -2.86 1.68 1.40 3922
0.00 0.00 2.87 -11.12 15.71 -2.67 1.60 1.46 3930
0.00 0.00 2.68 -11.46 14.91 -2.43 1.58 1.47 3937
0.00 0.00 2.29 -12.09 14.24 -2.16 1.60 1.46 3944
0.00 0.00 1.83 -12.96 13.71 -1.88 1.63 1.42 3951
0.00 0.00 1.41 -13.56 13.80 -1.53 1.67 1.36 3958
0.00 0.00 1.39 -13.96 14.38 -1.18 1.76 1.28 3965
0.00 0.00 1.79 -14.29 15.14 -0.99 1.94 1.19 3973
0.00 0.00 2.77 -15.76 15.23 -0.85 2.27 1.08 3980
0.00 0.00 -0.59 -20.08 17.80 -0.69 2.45 1.04 3987
0.00 0.00 -4.75 -18.32 15.81 -0.27 1.72 1.02 3994
0.00 0.00 0.74 -11.51 7.06 -0.66 1.90 0.92 4001
0.00 0.00 -3.78 -20.49 9.79 -0.92 1.83 0.84 4008
0.00 0.00 -5.45 -19.63 10.20 -0.96 1.29 0.85 4016
0.00 0.00 -4.90 -16.00 6.65 -0.90 1.02 0.85 4023
0.00 0.00 -6.94 -17.91 5.57 -0.89 1.15 0.91 4030
0.00 0.00 -8.58 -20.34 10.01 -0.60 1.00 1.11 4037
-0.00 0.00 -7.05 -17.79 8.03 -0.27 0.67 1.31 4044
0.00 0.00 -8.76 -20.53 4.53 -0.17 0.49 1.37 4051
0.00 0.00 -9.03 -20.09 6.80 0.19 -0.41 1.49 4059
0.00 0.00 -7.62 -21.08 2.86 0.24 -0.91 1.47 4066
0.00 0.00 -10.86 -24.18 4.51 0.64 -1.83 1.51 4073
0.00 0.00 -9.43 -25.60 2.32 1.01 -2.39 1.62 4080
-0.00 0.02 -7.71 -22.12 5.33 1.59 -2.53 1.85 4087
-0.00 0.04 -4.67 -1.03 8.78 2.27 -1.61 2.20 4094
-0.01 0.07 -9.53 -4.98 10.34 2.58 -1.12 2.05 4102
-0.02 0.16 -12.79 -1.14 20.53 2.81 -1.58 1.43 4110
-0.03 0.26 -7.50 -1.88 29.74 1.42 -2.42 0.22 4116
-0.02 0.27 -3.11 -2.29 9.69 -0.19 -0.25 -0.08 4123
-0.02 0.33 -0.81 -1.90 10.92 -0.21 -0.19 -0.29 4131
-0.02 0.35 1.31 -2.48 10.62 -0.12 -0.20 -0.29 4139
-0.03 0.38 1.79 -1.79 9.90 -0.02 -0.08 -0.05 4145
-0.02 0.35 -0.17 -0.83 10.12 -0.00 -0.01 0.04 4152
-0.00 0.35 -0.38 -1.30 10.02 -0.01 0.03 -0.03 4159
0.01 0.38 0.47 -0.82 9.61 -0.02 0.06 -0.03 4166
0.02 0.38 0.66 -1.02 9.76 -0.01 0.07 0.01 4173
0.02 0.36 0.40 -1.02 9.86 -0.01 0.06 -0.00 4180
0.02 0.37 0.44 -0.94 9.81 -0.02 0.06 -0.02 4188
0.03 0.34 0.60 -1.10 9.81 -0.03 0.05 -0.03 4195
0.02 0.37 0.49 -1.05 9.72 -0.04 0.03 -0.05 4202
0.03 0.41 0.45 -0.95 9.83 -0.04 0.02 -0.06 4209
0.03 0.43 0.49 -0.92 9.89 -0.04 0.03 -0.06 4216
0.04 0.42 0.44 -0.95 9.82 -0.04 0.03 -0.07 4224
0.02 0.44 0.43 -1.02 9.98 -0.03 0.03 -0.08 4231
0.02 0.43 0.36 -0.94 9.85 -0.03 0.05 -0.07 4238
0.02 0.42 0.27 -0.92 9.77 -0.02 0.06 -0.07 4245
0.02 0.47 -0.40 -0.96 9.78 -0.02 0.07 -0.07 4252
0.03 0.46 0.33 -0.90 9.81 -0.01 0.09 -0.07 4259
0.02 0.43 0.36 -0.95 9.83 -0.01 0.10 -0.06 4267
0.03 0.43 0.39 -0.91 10.39 0.00 0.11 -0.06 4274
0.02 0.41 0.50 -0.92 9.74 0.01 0.11 -0.07 4281
0.03 0.40 0.52 -0.92 9.82 0.01 0.10 -0.07 4288
0.04 0.37 0.52 -0.91 9.79 0.01 0.09 -0.07 4295
0.05 0.30 0.52 -0.93 9.81 0.01 0.08 -0.08 4302
0.05 0.28 0.47 -0.92 9.79 0.01 0.08 -0.09 4310
0.04 0.27 0.48 -0.90 9.77 0.02 0.08 -0.08 4317
0.02 0.25 0.41 -0.93 9.82 0.02 0.08 -0.08 4324
0.03 0.23 0.43 -0.93 9.76 0.02 0.09 -0.08 4331
0.04 0.18 0.48 -0.95 9.81 0.02 0.09 -0.08 4338
0.05 0.16 0.45 -0.92 9.81 0.03 0.09 -0.07 4345
0.05 0.17 0.48 -0.95 9.79 0.03 0.10 -0.08 4353
0.08 0.10 0.47 -0.93 9.78 0.03 0.09 -0.08 4360
0.10 0.05 0.53 -0.97 9.81 0.04 0.09 -0.08 4367
0.10 0.06 Í8 -0.94 9.75 0.03 0.09 -0.08 4374
ó1 0.03 -0.98 9.78 0.03 0.09 -0.08 4381
þ0 0.02 -0.96 9.80 0.03 0.09 -0.08 4388
÷9 0.02 -0.96 9.72 0.03 0.08 -0.08 4396
ó1 0.01 -1.01 9.80 0.03 0.08 -0.08 4403
ó0 -0.01 -0.98 9.73 0.02 0.09 -0.08 4410
ó2 0.02 -0.98 9.81 0.02 0.08 -0.08 4417
ÿ¾þ0.01 Ë0.98 9.81 0.02 0.07 -0.08 4424
þ4 0.01 -0.95 9.78 0.02 0.07 -0.08 4431
ó4 -0.01 Ë0.97 9.21 0.02 0.06 -0.08 4439
þ5 -0.00 Ë0.99 9.81 0.02 0.06 -0.07 4446
ó5 0.01 -1.00 9.80 0.02 0.06 -0.07 4453
þ6 0.02 -1.00 9.80 0.03 0.06 -0.08 4460
0.20 -0.00 0.52 -1.00 9.81 0.03 0.06 -0.07 4467
É1 -0.01 ƒ-0.98 9.81 0.03 0.05 -0.08 4474
™0 -0.02 -0.98 9.82 0.03 0.05 -0.08 4482
™5 -0.02 -1.04 9.81 0.03 0.05 -0.08 4489
æ4 -0.02 -0.99 9.80 0.03 0.04 -0.08 4496
™6 -0.01 jþ0.97 9.80 0.00 0.04 -0.08 4503
æ9 -0.01 jþ1.02 9.82 0.03 0.03 -0.08 4510
ó0 -0.01  -1.03 9.80 0.04 0.02 -0.08 4517
ó1 -0.03 ƒ-1.01 9.80 0.04 0.02 -0.08 4525
æ1 -0.01 'jþ1.01 9.80 0.04 0.01 -0.09 4532
÷3 -0.01 &jþ1.03 9.82 0.05 0.01 -0.09 4539
ó5 -0.01 Njþ1.04 9.83 0.06 0.01 -0.10 4546
ó8 -0.01 ƒ-1.04 9.82 0.08 0.01 -0.11 4553
Í1 -0.02 jþ1.13 9.81 0.10 0.02 -0.11 4560
š4 -0.03 ó5 -1.12 9.83 0.11 0.03 -0.11 4568
0.45 -0.03  -1.13 9.82 0.14 0.04 -0.11 4575
ó9 -0.02 -1.11 9.85 0.17 0.06 -0.11 4582
ÿ›jþ0.02 Ë1.15 9.95 0.23 0.08 -0.12 4589
˜jþ0.03 HË1.13 10.12 0.29 0.10 -0.14 4597
ÿšjþ0.03 Ë1.15 10.27 0.40 0.13 -0.15 4604
þ8 -0.03 -1.14 10.32 0.55 0.15 -0.17 4612
ÿ™jþ0.03 &jþ1.32 10.42 0.69 0.10 -0.18 4619
jþ0.02 °Ë1.27 10.46 0.83 0.08 -0.18 4626
ç4 -0.03  Ë1.46 10.60 0.91 0.00 -0.19 4632
ÿLjþ0.04  -1.47 10.84 0.99 -0.05 -0.18 4640
ÿ5 -0.04 Ë1.54 10.83 1.06 -0.10 -0.19 4647
ç8 -0.04 Ë1.67 10.97 1.14 -0.12 -0.18 4655
æ3 -0.04  -1.61 10.94 1.20 -0.14 -0.18 4662
æ4 -0.03 jþ1.80 10.77 1.30 -0.14 -0.17 4669
1.07 -0.04 0.43 -1.86 10.88 1.35 -0.14 -0.16 4676
Á9 -0.04 Mjþ2.05 11.15 1.43 -0.14 -0.15 4683
Ì9 -0.05 0.63 -2.11 10.52 1.50 -0.15 -0.15 4690
1.12 -0.04 0.43 -2.02 11.27 1.59 -0.17 -0.16 4698
1.14 -0.04 0.26 -2.25 11.18 1.68 -0.19 -0.16 4705
1.17 -0.04 0.35 -2.56 10.76 1.76 -0.20 -0.16 4712
1.16 -0.04 0.57 -2.49 10.89 1.85 -0.21 -0.16 4719
1.15 -0.05 0.29 -2.81 11.23 1.96 -0.22 -0.16 4726
1.12 -0.06 0.21 -2.84 11.45 2.11 -0.21 -0.15 4733
1.09 -0.05 0.66 -2.78 11.64 2.30 -0.26 -0.15 4741
1.08 -0.04 0.95 -3.20 11.72 2.47 -0.26 -0.20 4748
1.05 -0.04 0.98 -3.50 12.32 2.68 -0.26 -0.24 4755
1.02 -0.04 0.45 -3.71 12.36 2.91 -0.26 -0.27 4762
0.95 -0.04 -0.07 -3.75 11.56 3.11 -0.25 -0.27 4769
0.88 -0.05 0.54 -3.84 12.50 3.38 -0.20 -0.26 4776
0.73 -0.02 0.17 -4.26 12.55 3.61 -0.13 -0.26 4784
0.60 -0.02 0.43 -4.25 13.02 3.89 -0.05 -0.27 4791
0.41 -0.01 0.11 -5.17 13.39 4.13 0.02 -0.25 4798
0.22 -0.01 -0.41 -6.15 15.36 4.23 0.08 -0.23 4805
0.27 -0.02 -0.27 -7.08 16.55 4.28 0.21 -0.18 4812
0.28 -0.01 -0.81 -8.58 18.46 4.28 0.37 -0.08 4819
0.19 -0.00 -0.08 -9.21 18.53 4.28 0.60 0.01 4826
0.09 -0.00 0.60 -9.62 18.31 4.28 0.97 0.13 4833
0.08 -0.00 1.16 -9.64 18.06 4.27 1.33 0.20 4840
0.07 -0.01 1.21 -8.74 16.92 4.21 1.66 0.25 4847
0.03 -0.00 1.13 -7.37 17.09 4.12 1.87 0.27 4854
0.05 -0.01 0.64 -7.50 16.58 3.90 1.93 0.20 4861
0.06 -0.01 -0.25 -6.48 16.50 3.67 1.85 0.07 4869
0.04 0.01 -0.18 -4.42 15.47 3.52 1.71 -0.06 4877
0.05 -0.01 0.08 -2.85 14.72 3.38 1.58 -0.14 4883
0.02 -0.00 -0.27 -1.05 15.46 3.33 1.39 -0.29 4890
0.02 -0.00 -1.43 1.13 15.23 3.21 1.07 -0.41 4897
0.01 -0.00 -0.80 8.80 11.66 2.81 0.78 -0.46 4904
0.01 -0.00 -2.07 14.84 6.59 2.16 0.49 -0.85 4912
0.00 0.00 -0.69 12.15 3.82 1.11 -0.22 -1.26 4919
0.01 -0.00 -1.30 13.13 7.38 -0.38 -0.77 -1.59 4926
0.00 0.00 -0.28 10.76 10.24 -1.28 -0.74 -1.96 4933
0.00 0.00 0.80 6.95 9.82 -1.73 -0.68 -2.24 4940
0.00 0.00 0.30 5.41 8.18 -1.86 -0.63 -2.58 4947
0.00 0.00 -0.13 5.21 6.83 -1.90 -0.50 -2.82 4955
0.00 0.00 0.14 5.09 5.95 -1.89 -0.41 -3.02 4962
0.00 0.00 0.61 5.01 5.57 -1.90 -0.37 -3.15 4969
0.00 0.00 1.08 4.97 5.68 -1.96 -0.34 -3.23 4976
0.00 0.00 1.55 4.91 6.33 -2.05 -0.31 -3.23 4983
0.00 0.00 2.21 4.89 8.39 -2.22 -0.26 -3.17 4990
0.00 0.00 2.16 4.94 8.17 -2.45 -0.16 -3.04 4998
0.00 0.00 2.32 4.73 8.91 -2.71 -0.15 -2.85 5005
0.00 0.00 2.54 4.37 9.25 -3.04 -0.18 -2.64 5012
0.00 0.00 2.94 3.57 9.48 -3.32 -0.20 -2.34 5019
0.00 0.00 3.47 2.61 9.61 -3.60 -0.18 -2.05 5026
0.00 0.00 3.99 1.46 9.95 -3.82 -0.14 -1.71 5033
0.00 0.00 4.40 0.38 10.00 -3.96 -0.07 -1.38 5041
0.00 0.00 4.64 -0.40 9.86 -4.06 -0.01 -1.11 5048
0.00 0.00 4.90 -1.10 9.79 -4.10 0.09 -0.82 5055
0.00 0.00 5.28 -1.76 9.72 -4.12 0.22 -0.57 5062
0.00 0.00 5.64 -2.51 9.99 -4.11 0.38 -0.37 5069
0.00 0.00 5.86 -3.32 10.61 -4.07 0.58 -0.16 5076
0.00 0.00 6.07 -4.02 11.31 -3.99 0.76 0.02 5084
0.00 0.00 6.52 -4.80 13.09 -3.85 0.99 0.22 5091
0.00 0.00 6.30 -5.19 13.02 -3.77 1.20 0.37 5098
0.00 0.00 6.25 -5.59 13.64 -3.69 1.45 0.55 5105
0.00 0.00 6.04 -5.85 14.29 -3.66 1.66 0.74 5112
0.00 0.00 5.82 -6.13 15.06 -3.62 1.80 0.92 5120
0.00 0.00 5.57 -6.62 15.61 -3.56 1.94 1.13 5127
0.00 0.00 5.17 -7.06 15.79 -3.49 2.00 1.34 5134
0.00 0.00 4.72 -7.46 15.74 -3.39 2.02 1.52 5141
0.00 0.00 4.24 -7.83 15.66 -3.29 2.01 1.70 5148
0.00 0.00 3.96 -8.33 15.55 -3.15 1.97 1.84 5155
0.00 0.00 3.59 -9.10 15.28 -3.00 1.91 1.96 5163
0.00 0.00 3.31 -9.64 14.90 -2.84 1.85 2.05 5170
0.00 0.00 3.01 -9.88 14.63 -2.63 1.80 2.08 5177
0.00 0.00 2.74 -10.22 14.19 -2.42 1.77 2.07 5184
0.00 0.00 2.58 -10.59 13.63 -2.14 1.78 1.98 5191
0.00 0.00 2.27 -10.87 13.28 -1.81 1.82 1.89 5198
0.00 0.00 2.07 -10.96 13.58 -1.53 1.92 1.71 5206
0.00 0.00 2.23 -11.03 14.53 -1.22 2.03 1.53 5213
0.00 0.00 -4.75 -20.74 17.83 -0.95 2.10 1.30 5220
0.00 0.00 -17.55 -8.78 17.80 0.04 0.23 1.14 5227
0.00 0.00 4.21 -2.27 5.98 -0.42 1.04 1.11 5234
0.00 0.00 1.47 -17.58 14.16 -0.97 1.33 0.94 5241
0.00 0.00 -4.60 -22.08 18.63 -1.35 0.77 0.80 5249
0.00 0.00 2.11 -12.70 9.03 -1.55 1.15 0.70 5256
0.00 0.00 -1.56 -18.72 6.52 -1.64 1.27 0.61 5263
0.00 0.00 -4.03 -19.10 7.29 -1.42 1.01 0.59 5270
0.00 0.00 -4.02 -16.41 4.56 -1.07 1.15 0.66 5277
0.00 0.00 -5.17 -18.21 5.02 -0.62 1.44 0.81 5284
-0.00 0.00 -5.79 -16.99 3.19 0.03 1.20 1.05 5292
0.00 0.00 -7.88 -19.07 5.63 0.35 0.86 1.03 5299
0.00 0.00 -5.86 -17.50 8.82 0.81 0.37 0.95 5306
0.00 0.00 -6.13 -16.99 6.37 0.96 -0.01 0.85 5313
0.00 0.00 -4.78 -18.40 6.00 0.96 0.12 0.74 5320
0.00 0.00 -11.66 -19.73 8.49 1.21 -0.56 0.82 5327
-0.00 0.00 -12.87 -19.22 6.64 1.28 -1.47 0.81 5336
-0.00 0.01 -14.10 -19.22 5.23 1.30 -2.44 0.78 5343
-0.00 0.02 -11.66 -20.44 8.07 1.59 -3.54 0.89 5350
-0.00 0.03 -9.02 -0.13 18.09 2.16 -2.54 0.91 5356
-0.01 0.06 -9.73 -1.50 27.91 1.00 -2.89 0.24 5363
-0.02 0.17 -1.24 -2.40 13.62 0.03 -1.07 0.05 5370
-0.01 0.25 -1.08 0.09 9.74 -0.28 -0.24 -0.16 5378
-0.01 0.27 -0.37 -0.06 10.08 -0.20 -0.26 -0.27 5386
-0.02 0.32 1.49 -1.58 9.98 -0.08 -0.18 -0.24 5392
-0.02 0.35 1.09 -1.69 9.86 -0.03 -0.08 -0.06 5399
-0.02 0.34 -0.28 -1.24 10.38 -0.03 -0.02 -0.01 5406
0.01 0.36 -0.14 -0.06 9.81 -0.03 0.01 -0.05 5413
0.03 0.36 0.43 -0.56 9.77 -0.00 0.04 -0.04 5421
0.02 0.34 0.43 -0.90 9.75 0.01 0.06 -0.02 5428
0.03 0.31 0.24 -0.87 9.23 0.00 0.06 -0.02 5435
0.02 0.29 0.50 -0.85 9.68 -0.00 0.06 -0.03 5442
0.03 0.29 0.57 -0.97 9.66 -0.01 0.05 -0.03 5449
0.02 0.29 0.50 -0.95 9.72 -0.02 0.03 -0.04 5456
0.04 0.30 0.47 -0.88 9.78 -0.03 0.02 -0.05 5464
0.04 0.33 0.49 -0.80 9.77 -0.03 0.01 -0.07 5471
0.02 0.33 0.48 -0.83 9.69 -0.04 0.01 -0.08 5478
0.02 0.33 0.31 -0.86 9.88 -0.04 0.02 -0.08 5485
0.03 0.36 0.31 -0.80 9.91 -0.05 0.02 -0.08 5492
0.04 0.36 2.45 -1.57 14.65 -0.04 0.04 -0.07 5499
0.07 0.35 0.37 -0.82 9.80 -0.03 0.04 -0.03 5507
0.06 0.37 0.27 -0.78 9.89 -0.03 0.04 -0.07 5514
0.07 0.35 0.32 -0.82 9.90 -0.02 0.05 -0.06 5521
0.07 0.34 0.41 -0.84 9.91 -0.00 0.05 -0.06 5528
0.10 0.31 0.40 -0.80 9.88 0.00 0.05 -0.07 5535
0.10 0.30 0.43 -0.82 9.78 0.01 0.05 -0.07 5542
0.12 0.28 0.41 -0.83 9.84 0.02 0.05 -0.07 5550
0.13 0.28 0.40 -0.85 9.82 0.02 0.05 -0.08 5557
0.13 0.24 0.41 -0.80 9.82 0.02 0.05 -0.08 5564
0.15 0.26 0.38 -0.83 9.81 0.02 0.05 -0.08 5571
0.16 0.24 0.38 -0.81 9.83 0.02 0.05 -0.09 5578
0.18 0.21 0.40 -0.82 9.84 0.03 0.05 -0.08 5585
0.19 0.14 0.36 -0.82 9.83 0.03 0.05 -0.09 5593
0.22 0.11 0.37 -0.85 9.82 0.03 0.05 -0.08 5600
0.23 0.05 0.36 -0.81 9.81 0.03 0.05 -0.07 5607
0.25 0.03 0.38 -0.87 9.81 0.04 0.05 -0.08 5614
0.26 0.02 0.39 -0.84 9.81 0.04 0.05 -0.08 5621
0.29 0.00 0.42 -0.88 9.81 0.04 0.05 -0.08 5628
0.32 -0.01 0.35 -0.89 9.80 0.04 0.05 -0.08 5636
0.31 -0.02 0.37 -0.89 9.83 0.05 0.05 -0.07 5643
0.32 -0.01 0.38 -0.86 9.81 0.05 0.05 -0.08 5650
0.36 -0.00 0.34 -0.85 9.82 0.07 0.05 -0.08 5657
0.39 -0.00 0.43 -0.92 9.83 0.07 0.05 -0.07 5664
0.44 -0.01 0.45 -0.95 9.80 0.09 0.05 -0.07 5671
0.42 -0.01 0.40 -0.89 9.83 0.09 0.05 -0.07 5679
0.42 -0.03 0.42 -0.99 9.82 0.11 0.04 -0.07 5686
0.49 -0.03 0.40 -0.90 9.82 0.12 0.03 -0.08 5693
0.54 -0.03 0.41 -0.94 9.81 0.13 0.03 -0.08 5700
0.58 -0.02 0.42 -0.97 9.82 0.13 0.03 -0.09 5707
0.57 -0.03 0.42 -0.96 9.81 0.14 0.03 -0.09 5714
0.60 -0.03 0.46 -0.97 9.81 0.15 0.03 -0.10 5722
0.61 -0.04 0.46 -0.97 9.83 0.15 0.02 -0.10 5729
0.67 -0.04 0.53 -1.05 9.81 0.16 0.02 -0.11 5736
0.73 -0.03 0.44 -1.05 9.82 0.17 0.02 -0.12 5743
0.75 -0.03 0.40 -1.06 9.82 0.19 0.01 -0.13 5750
0.79 -0.03 0.48 -1.07 9.82 0.23 0.01 -0.14 5757
0.80 -0.04 0.44 -1.08 9.83 0.22 0.01 -0.14 5765
0.84 -0.04 0.44 -1.14 9.90 0.24 0.01 -0.15 5772
0.84 -0.03 0.40 -1.20 9.86 0.27 0.02 -0.16 5779
0.85 -0.03 0.45 -1.19 9.98 0.31 0.02 -0.16 5786
0.90 -0.03 0.42 -1.18 9.98 0.36 0.02 -0.16 5793
0.95 -0.04 0.40 -1.30 10.08 0.40 0.02 -0.16 5800
0.96 -0.03 0.34 -1.25 9.94 0.44 0.02 -0.16 5808
0.98 -0.04 0.34 -1.27 10.02 0.47 0.02 -0.16 5815
1.03 -0.04 0.35 -1.34 10.06 0.50 0.02 -0.15 5822
1.04 -0.04 0.33 -1.39 10.07 0.53 0.01 -0.15 5829
1.06 -0.04 0.38 -1.48 10.20 0.56 -0.00 -0.14 5836
1.07 -0.05 0.31 -1.37 10.17 0.59 -0.02 -0.14 5844
1.08 -0.05 0.47 -1.60 10.14 0.64 -0.04 -0.14 5852
1.13 -0.04 0.43 -1.70 10.26 0.69 -0.04 -0.14 5859
1.13 -0.05 0.49 -1.67 10.39 0.75 -0.04 -0.14 5866
1.16 -0.04 0.34 -1.69 10.41 0.80 -0.04 -0.15 5873
1.20 -0.04 0.35 -1.78 10.17 0.85 -0.03 -0.15 5880
1.26 -0.05 0.32 -1.78 10.54 0.92 -0.02 -0.14 5888
1.29 -0.05 0.27 -1.85 10.46 0.98 -0.02 -0.14 5895
1.30 -0.05 0.22 -1.83 10.63 1.05 -0.01 -0.13 5902
1.32 -0.04 0.17 -2.04 10.56 1.12 -0.01 -0.11 5909
1.32 -0.05 0.19 -2.12 10.49 1.19 -0.00 -0.11 5916
1.33 -0.04 0.18 -2.10 10.67 1.27 -0.01 -0.11 5923
1.33 -0.04 0.28 -2.41 10.75 1.35 -0.01 -0.10 5931
1.36 -0.06 0.25 -2.42 10.66 1.44 0.00 -0.11 5938
1.33 -0.05 0.28 -2.52 10.66 1.52 0.01 -0.12 5945
1.33 -0.04 0.42 -2.65 10.84 1.61 0.01 -0.12 5952
1.33 -0.04 0.48 -2.67 10.79 1.72 0.02 -0.14 5959
1.33 -0.05 0.31 -2.88 10.91 1.84 0.02 -0.16 5966
1.32 -0.05 0.36 -3.13 11.53 1.99 0.03 -0.16 5974
1.30 -0.05 0.62 -3.05 11.66 2.13 0.01 -0.19 5981
1.24 -0.05 0.84 -3.38 12.38 2.31 -0.01 -0.23 5988
1.21 -0.04 0.61 -3.43 11.44 2.50 -0.02 -0.23 5995
1.16 -0.04 0.04 -3.37 11.18 2.66 0.02 -0.25 6002
1.07 -0.05 -0.35 -3.37 11.47 2.84 0.07 -0.23 6009
0.93 -0.03 -0.24 -3.84 12.06 3.10 0.18 -0.18 6017
0.77 -0.04 -0.02 -4.74 12.60 3.35 0.29 -0.15 6024
0.58 -0.03 0.05 -4.72 13.47 3.62 0.37 -0.13 6031
0.38 -0.01 0.30 -5.57 14.10 3.83 0.39 -0.12 6038
0.27 -0.02 -0.11 -6.25 13.68 4.03 0.39 -0.08 6044
0.24 -0.02 0.06 -7.75 14.78 4.10 0.45 -0.01 6051
0.17 -0.02 0.34 -8.70 16.29 4.12 0.63 0.07 6059
0.08 -0.01 1.15 -9.52 20.05 4.10 0.84 0.15 6066
0.06 -0.01 1.98 -9.74 18.58 4.05 1.13 0.19 6073
0.04 -0.00 2.37 -9.14 17.30 3.96 1.32 0.17 6080
0.05 -0.00 2.41 -8.30 16.66 3.83 1.46 0.13 6087
0.05 -0.00 2.37 -7.45 16.88 3.69 1.55 0.06 6094
0.05 -0.01 1.52 -7.63 17.34 3.44 1.54 -0.06 6102
0.05 -0.01 1.00 -6.33 15.55 3.22 1.39 -0.20 6109
0.01 -0.00 1.29 -4.00 14.35 3.06 1.25 -0.30 6116
0.03 -0.00 1.66 -1.88 15.38 2.92 1.14 -0.38 6123
0.03 -0.00 0.88 0.47 17.60 2.82 1.00 -0.52 6130
0.01 -0.00 -1.69 4.14 15.54 2.63 0.77 -0.65 6137
0.00 -0.00 -3.14 14.83 10.23 2.28 0.59 -0.82 6145
0.00 0.00 -2.27 14.93 2.85 1.48 0.41 -1.27 6152
0.00 -0.00 -2.47 12.70 4.58 0.17 -0.40 -1.65 6159
0.01 -0.00 -2.54 12.50 9.60 -0.95 -0.58 -1.96 6166
0.00 -0.00 -1.20 9.44 10.28 -1.65 -0.55 -2.28 6173
0.00 0.00 -1.34 6.77 9.80 -1.85 -0.59 -2.63 6180
0.00 -0.00 -2.06 5.76 7.93 -1.89 -0.59 -2.91 6188
0.00 0.00 -2.10 5.43 6.75 -1.85 -0.58 -3.09 6195
0.00 0.00 -1.44 5.40 5.87 -1.83 -0.69 -3.25 6202
0.01 -0.00 -0.94 5.32 5.33 -1.83 -0.85 -3.37 6209
0.00 -0.00 -0.48 4.74 5.36 -1.87 -1.05 -3.45 6216
0.00 -0.00 0.14 4.16 6.04 -1.91 -1.19 -3.45 6223
0.00 0.00 1.20 3.80 7.36 -2.01 -1.28 -3.39 6231
0.00 0.00 2.73 3.26 8.65 -2.15 -1.21 -3.28 6238
0.00 0.00 3.76 3.13 9.37 -2.39 -1.02 -3.17 6245
0.00 0.00 4.35 3.14 10.29 -2.71 -0.77 -3.00 6252
0.00 0.00 4.75 2.74 10.99 -2.99 -0.49 -2.72 6259
0.00 0.00 5.22 1.75 11.01 -3.32 -0.20 -2.43 6266
0.00 0.00 5.28 0.28 10.70 -3.58 0.03 -2.06 6274
0.00 0.00 5.02 -1.01 10.27 -3.77 0.16 -1.71 6281
0.00 0.00 4.72 -2.50 9.95 -3.85 0.21 -1.27 6288
0.00 0.00 4.68 -3.51 9.74 -3.81 0.19 -0.83 6295
0.00 0.00 4.92 -4.05 9.89 -3.67 0.11 -0.47 6302
0.00 0.00 5.34 -4.49 9.97 -3.46 0.04 -0.10 6309
0.00 0.00 5.92 -4.67 10.26 -3.31 0.06 0.22 6317
0.00 0.00 6.57 -4.70 10.90 -3.18 0.23 0.45 6324
0.00 0.00 6.90 -4.94 11.91 -3.12 0.55 0.67 6331
0.00 -0.00 6.92 -5.47 12.62 -3.09 0.91 0.80 6338
0.00 0.00 6.35 -6.16 13.50 -3.10 1.32 0.91 6345
0.00 0.00 5.77 -6.96 14.20 -3.11 1.61 0.99 6352
0.00 0.00 4.91 -7.99 14.44 -3.10 1.82 1.05 6360
0.00 0.00 4.15 -8.97 14.53 -3.07 1.89 1.12 6367
0.00 -0.00 3.59 -9.81 14.57 -3.00 1.85 1.17 6374
0.00 0.00 3.15 -10.76 14.48 -2.88 1.70 1.23 6381
0.00 0.00 3.03 -11.56 13.97 -2.77 1.54 1.31 6388
0.00 0.00 3.27 -11.87 13.14 -2.59 1.37 1.39 6395
0.00 0.00 3.59 -11.92 12.27 -2.42 1.27 1.50 6403
0.00 0.00 3.89 -11.81 11.59 -2.21 1.26 1.58 6410
0.00 0.00 3.92 -11.55 11.41 -1.95 1.32 1.66 6417
0.00 0.00 3.71 -11.22 11.24 -1.71 1.43 1.72 6424
0.00 0.00 3.15 -10.84 11.17 -1.42 1.53 1.76 6431
0.00 0.00 2.32 -10.30 11.16 -1.16 1.64 1.77 6438
0.00 0.00 1.65 -9.92 11.28 -0.95 1.74 1.78 6446
0.00 0.00 0.92 -9.49 11.52 -0.77 1.89 1.78 6453
0.00 0.00 0.17 -9.13 11.84 -0.66 2.09 1.78 6460
0.00 0.00 -0.67 -9.07 12.01 -0.60 2.23 1.77 6467
0.00 0.00 -1.63 -8.97 12.12 -0.58 2.36 1.75 6474
0.00 0.00 -2.29 -9.08 12.22 -0.59 2.38 1.71 6481
0.00 0.00 -3.06 -9.47 12.21 -0.60 2.25 1.64 6489
0.00 0.00 -3.75 -9.81 12.11 -0.61 2.00 1.53 6496
0.00 0.00 -3.85 -10.00 11.98 -0.63 1.73 1.40 6503
0.00 0.00 -3.64 -10.09 11.39 -0.66 1.41 1.20 6510
0.00 0.00 -3.34 -9.98 10.84 -0.69 1.20 0.98 6517
0.00 0.00 -3.02 -9.83 10.41 -0.74 1.09 0.78 6524
0.00 0.00 -2.89 -9.83 10.27 -0.80 1.08 0.57 6532
0.00 0.00 -2.79 -9.91 10.21 -0.89 1.12 0.41 6539
0.00 0.00 -3.42 -10.48 10.02 -0.96 1.14 0.24 6546
0.00 0.00 -8.82 -12.57 12.20 -0.80 0.56 0.12 6553
0.00 0.00 -6.61 -12.19 9.86 -0.72 0.10 0.05 6560
0.00 0.00 -7.90 -12.89 8.95 -0.60 -0.43 0.01 6567
0.00 0.00 -3.57 -15.31 5.63 -0.66 -0.35 -0.00 6575
0.00 -0.00 -8.14 -15.80 6.22 -0.37 -0.95 0.02 6582
0.00 0.00 -4.85 -12.84 2.53 -0.13 -1.22 -0.02 6589
0.00 0.00 -7.15 -14.81 5.25 0.08 -1.35 -0.12 6596
0.00 0.00 -9.17 -17.51 6.33 0.39 -1.50 -0.09 6603
0.00 0.00 -10.01 -20.06 6.58 0.76 -1.82 0.06 6610
-0.00 0.01 -9.16 -19.63 6.96 1.42 -2.11 0.38 6618
-0.00 0.03 -13.38 -18.83 6.14 1.78 -1.79 1.11 6626
-0.00 0.04 -15.78 -5.77 40.18 2.10 -2.11 1.25 6633
-0.01 0.11 -5.11 -0.10 21.75 -0.20 -0.72 0.28 6639
-0.02 0.22 -2.85 -1.55 10.16 -0.44 -0.02 0.05 6646
-0.03 0.25 -1.80 0.15 9.26 -0.34 -0.14 -0.23 6653
-0.02 0.33 0.68 -0.73 10.19 -0.16 -0.08 -0.36 6662
0.02 0.29 2.15 -1.51 10.21 -0.09 -0.05 -0.10 6669
-0.01 0.36 0.25 -1.32 10.55 -0.06 -0.00 0.01 6675
0.02 0.32 -0.53 -0.96 9.94 -0.03 0.02 -0.02 6682
0.02 0.38 0.07 -0.58 9.68 -0.02 0.05 -0.05 6689
0.02 0.35 0.74 -0.89 9.78 -0.01 0.06 -0.02 6696
0.02 0.31 0.42 -0.81 9.75 -0.00 0.06 -0.02 6704
0.01 0.30 0.20 -0.81 9.71 -0.00 0.07 -0.02 6711
0.01 0.28 0.56 -0.92 9.78 -0.01 0.06 -0.03 6718
0.01 0.28 0.62 -1.00 9.86 -0.02 0.04 -0.03 6725
-0.01 0.30 0.24 -0.77 9.68 -0.02 0.02 -0.05 6732
0.00 0.33 0.40 -0.85 9.70 -0.04 -0.00 -0.06 6739
0.01 0.36 0.41 -0.85 9.64 -0.05 -0.01 -0.07 6747
0.01 0.35 0.34 -0.85 9.76 -0.05 -0.01 -0.08 6754
0.01 0.35 0.28 -0.85 9.72 -0.06 -0.00 -0.08 6761
0.02 0.38 0.24 -0.80 9.82 -0.06 0.01 -0.08 6768
0.01 0.42 0.16 -0.81 9.83 -0.05 0.02 -0.08 6775
0.02 0.42 0.13 -0.77 10.47 -0.05 0.04 -0.07 6782
0.02 0.44 0.06 -0.81 9.85 -0.04 0.05 -0.06 6790
0.03 0.42 0.25 -0.78 9.94 -0.03 0.06 -0.05 6797
0.04 0.39 0.34 -0.83 9.98 -0.02 0.07 -0.05 6804
0.04 0.40 0.40 -0.85 9.91 -0.02 0.07 -0.06 6811
0.04 0.41 0.39 -0.79 9.82 -0.01 0.06 -0.06 6818
0.05 0.38 0.40 -0.77 9.96 -0.01 0.06 -0.06 6825
0.05 0.39 0.44 -0.83 9.85 -0.00 0.05 -0.07 6833
0.05 0.37 0.46 -0.80 9.81 -0.00 0.05 -0.08 6840
0.04 0.37 0.44 -0.80 9.84 0.00 0.05 -0.08 6847
0.04 0.36 0.37 -0.82 9.84 0.00 0.04 -0.09 6854
0.05 0.37 0.36 -0.81 9.82 0.01 0.04 -0.08 6861
0.08 0.37 0.30 -0.80 9.95 0.01 0.04 -0.09 6868
0.09 0.35 0.30 -0.80 9.80 0.01 0.04 -0.08 6876
0.11 0.28 0.32 -0.78 9.83 0.02 0.04 -0.08 6883
0.12 0.27 0.32 -0.82 9.84 0.02 0.04 -0.08 6890
0.13 0.24 0.31 -0.83 9.82 0.03 0.05 -0.08 6897
0.14 0.17 0.34 -0.79 9.82 0.03 0.05 -0.08 6904
0.16 0.16 0.32 -0.80 9.80 0.03 0.05 -0.09 6912
0.17 0.13 0.37 -0.74 9.75 0.03 0.05 -0.09 6919
0.18 0.10 0.34 -0.81 9.78 0.03 0.05 -0.09 6926
0.23 0.04 0.34 -0.84 9.82 0.04 0.06 -0.08 6933
0.23 0.03 0.34 -0.83 9.82 0.03 0.06 -0.09 6940
0.31 0.03 0.36 -0.86 9.80 0.04 0.06 -0.09 6947
0.29 0.00 0.35 -0.81 9.81 0.04 0.06 -0.08 6955
0.29 0.01 0.39 -0.86 9.82 0.04 0.06 -0.09 6962
0.29 0.00 0.36 -0.88 9.81 0.05 0.06 -0.08 6969
0.32 -0.00 0.34 -0.86 9.79 0.05 0.06 -0.08 6976
0.35 -0.01 0.34 -0.91 9.81 0.05 0.06 -0.08 6983
0.39 -0.01 0.34 -0.86 9.81 0.06 0.06 -0.09 6990
0.41 -0.02 0.35 -0.93 9.81 0.06 0.06 -0.08 6998
0.42 -0.01 0.36 -0.93 9.21 0.06 0.07 -0.09 7005
0.44 -0.02 0.32 -0.92 9.76 0.07 0.08 -0.09 7012
0.47 -0.03 0.39 -0.91 9.80 0.07 0.08 -0.09 7019
0.48 -0.01 0.36 -0.91 9.80 0.08 0.09 -0.09 7026
0.50 -0.01 0.39 -0.95 9.83 0.09 0.09 -0.10 7033
0.51 -0.02 0.40 -0.94 10.42 0.10 0.10 -0.10 7041
0.52 -0.02 0.42 -0.97 9.84 0.11 0.10 -0.10 7048
0.56 -0.04 0.39 -0.93 9.82 0.12 0.11 -0.11 7055
0.56 -0.03 0.46 -1.02 9.82 0.13 0.12 -0.11 7062
0.58 -0.02 0.40 -0.96 9.83 0.14 0.13 -0.11 7069
0.60 -0.02 0.41 -1.03 9.87 0.16 0.13 -0.11 7076
0.62 -0.03 0.40 -0.97 9.84 0.19 0.15 -0.11 7084
0.62 -0.03 0.44 -1.05 10.01 0.22 0.16 -0.12 7091
0.66 -0.04 0.43 -1.00 10.10 0.28 0.19 -0.12 7098
0.70 -0.03 0.44 -1.05 10.07 0.39 0.21 -0.12 7105
0.78 -0.03 0.41 -1.08 10.19 0.46 0.23 -0.12 7113
0.82 -0.03 0.48 -1.13 9.99 0.55 0.22 -0.11 7119
0.84 -0.04 0.42 -1.16 10.10 0.62 0.19 -0.11 7128
0.84 -0.04 0.49 -1.29 10.86 0.70 0.17 -0.11 7135
0.85 -0.04 0.62 -1.31 10.38 0.77 0.15 -0.11 7142
0.88 -0.03 0.68 -1.43 10.12 0.85 0.15 -0.12 7149
0.92 -0.03 0.64 -1.47 10.61 0.94 0.15 -0.13 7156
0.92 -0.03 0.53 -1.60 10.65 1.00 0.14 -0.14 7163
0.95 -0.04 0.44 -1.44 10.76 1.06 0.13 -0.14 7171
1.00 -0.04 0.53 -1.70 10.93 1.13 0.11 -0.13 7178
1.04 -0.05 0.43 -1.68 10.71 1.19 0.09 -0.13 7185
1.04 -0.04 0.42 -1.90 10.76 1.28 0.09 -0.14 7191
1.05 -0.03 0.47 -1.81 10.79 1.36 0.09 -0.14 7199
1.05 -0.04 0.62 -2.21 10.91 1.44 0.10 -0.15 7206
1.04 -0.04 0.73 -2.12 10.84 1.54 0.10 -0.15 7214
1.05 -0.04 0.74 -2.42 10.76 1.64 0.10 -0.17 7221
1.05 -0.05 0.82 -2.45 10.97 1.76 0.10 -0.18 7228
1.03 -0.04 0.87 -2.51 11.19 1.88 0.10 -0.21 7235
1.02 -0.03 0.66 -2.65 11.33 2.01 0.11 -0.27 7242
1.00 -0.05 0.75 -2.66 11.33 2.16 0.13 -0.24 7249
0.96 -0.04 0.55 -2.92 11.93 2.33 0.18 -0.25 7257
0.90 -0.05 0.65 -3.10 12.16 2.56 0.25 -0.25 7264
0.83 -0.03 0.79 -3.35 12.25 2.78 0.26 -0.25 7271
0.70 -0.03 0.92 -3.51 12.51 3.03 0.39 -0.28 7278
0.61 -0.03 0.94 -3.15 11.31 3.32 0.53 -0.29 7285
0.52 -0.03 0.29 -3.85 12.89 3.58 0.66 -0.26 7292
0.31 -0.02 -0.42 -4.27 13.71 3.89 0.79 -0.21 7300
0.22 -0.02 -0.61 -5.05 15.79 4.10 0.80 -0.09 7306
0.12 -0.01 -0.21 -6.23 16.58 4.19 0.78 0.03 7313
0.12 -0.01 0.13 -6.97 17.05 4.25 0.73 0.12 7320
0.10 -0.01 0.91 -8.14 18.13 4.26 0.69 0.21 7327
0.09 -0.01 1.69 -8.64 17.49 4.26 0.74 0.24 7334
0.09 -0.01 2.17 -8.65 18.07 4.26 0.88 0.23 7342
0.05 -0.01 1.95 -8.27 17.02 4.24 0.85 0.18 7349
0.04 -0.00 1.78 -8.11 16.85 4.22 0.77 0.12 7356
0.07 -0.01 1.77 -7.97 17.27 4.20 0.72 0.04 7363
0.05 -0.01 1.64 -7.49 17.69 4.14 0.67 -0.06 7370
0.05 -0.00 1.89 -6.30 17.08 4.01 0.55 -0.13 7377
0.01 -0.00 1.61 -4.76 16.36 3.91 0.40 -0.22 7385
0.00 0.00 2.16 -3.17 15.83 3.87 0.27 -0.26 7392
0.00 0.00 2.64 -2.41 17.14 3.93 0.21 -0.31 7399
0.00 0.00 2.06 -0.06 15.82 3.92 0.20 -0.36 7406
0.00 0.00 3.44 4.32 14.57 3.62 0.34 -0.38 7413
0.00 0.00 3.61 8.68 6.43 3.13 0.62 -0.45 7420
0.00 0.00 0.68 14.71 2.67 2.35 0.66 -0.72 7428
0.00 0.00 -1.99 18.18 -1.79 1.29 0.15 -1.54 7435
0.00 0.00 -0.09 10.02 13.39 0.20 -0.26 -2.07 7442
0.00 0.00 0.57 6.97 16.47 -0.91 -0.36 -2.24 7449
0.00 0.00 0.09 6.45 13.19 -1.50 -0.12 -2.47 7456
0.00 0.00 0.02 6.89 9.64 -1.82 0.06 -2.68 7463
0.00 0.00 0.17 7.11 7.12 -2.01 0.08 -2.89 7471
0.00 0.00 0.30 6.42 6.25 -2.19 0.03 -3.06 7478
0.00 0.00 0.55 5.43 6.29 -2.31 -0.05 -3.18 7485
0.00 0.00 0.73 4.58 6.51 -2.38 -0.13 -3.26 7492
0.00 0.00 0.60 4.18 6.55 -2.49 -0.18 -3.26 7499
0.00 0.00 1.18 3.95 7.63 -2.64 -0.25 -3.19 7506
0.00 0.00 1.65 4.05 7.98 -2.80 -0.32 -3.05 7514
0.00 0.00 1.94 4.18 8.53 -3.05 -0.39 -2.89 7521
0.00 0.00 2.31 4.03 9.07 -3.30 -0.45 -2.68 7528
0.00 0.00 2.69 3.41 9.40 -3.62 -0.44 -2.43 7535
0.00 0.00 3.38 2.27 9.54 -3.91 -0.33 -2.22 7542
0.00 0.00 4.03 1.18 9.53 -4.09 -0.15 -1.99 7549
0.00 0.00 4.42 0.27 9.63 -4.19 0.05 -1.84 7557
0.00 0.00 4.41 -0.61 9.54 -4.22 0.34 -1.68 7564
0.00 0.00 4.37 -1.83 9.66 -4.22 0.62 -1.54 7571
0.00 0.00 4.17 -1.98 9.98 -4.21 0.97 -1.50 7578
0.00 0.00 4.08 -3.11 10.39 -4.18 1.28 -1.47 7585
0.00 0.00 3.91 -4.41 10.85 -4.16 1.50 -1.47 7592
0.00 0.00 3.51 -5.62 11.45 -4.12 1.69 -1.46 7600
0.00 0.00 3.09 -6.84 12.17 -4.05 1.77 -1.42 7607
0.00 0.00 2.90 -7.71 12.84 -3.90 1.79 -1.34 7614
0.00 -0.00 2.83 -8.44 13.58 -3.73 1.70 -1.19 7621
0.00 0.00 2.96 -8.85 13.94 -3.53 1.63 -1.01 7628
0.00 0.00 3.14 -9.29 14.02 -3.38 1.55 -0.74 7635
0.00 0.00 3.37 -9.61 14.23 -3.27 1.47 -0.43 7643
0.00 0.00 3.72 -9.66 14.64 -3.13 1.38 -0.11 7650
0.00 0.00 4.24 -9.29 14.42 -2.99 1.35 0.29 7657
0.00 -0.00 4.56 -9.02 14.27 -2.83 1.37 0.67 7664
0.00 0.00 4.67 -9.11 13.80 -2.66 1.47 1.01 7671
0.00 0.00 4.69 -9.33 13.66 -2.52 1.60 1.36 7678
0.00 0.00 4.22 -9.38 13.49 -2.34 1.82 1.62 7686
0.00 0.00 3.26 -9.45 13.12 -2.14 2.05 1.88 7693
0.00 0.00 2.37 -9.48 13.01 -1.97 2.22 2.09 7700
0.00 0.00 1.29 -9.34 12.89 -1.76 2.33 2.23 7707
0.00 0.00 0.36 -9.17 12.97 -1.58 2.36 2.33 7714
0.00 0.00 -0.35 -9.24 12.93 -1.36 2.31 2.37 7721
0.00 0.00 -0.94 -9.39 12.84 -1.16 2.17 2.36 7729
0.00 0.00 -1.25 -9.78 12.72 -0.99 2.01 2.29 7736
0.00 0.00 -1.44 -10.12 12.67 -0.81 1.77 2.20 7743
0.00 0.00 -1.54 -10.74 12.62 -0.66 1.56 2.10 7750
0.00 0.00 -1.58 -11.12 12.58 -0.47 1.41 2.02 7757
0.00 0.00 -1.70 -11.45 12.59 -0.30 1.32 1.97 7764
0.00 0.00 -2.22 -11.61 12.62 -0.20 1.32 1.96 7772
0.00 0.00 -3.24 -11.60 13.43 -0.13 1.35 1.99 7779
0.00 0.00 -6.64 -14.10 15.00 -0.14 1.34 2.07 7786
0.00 0.00 -6.43 -11.84 11.36 -0.17 1.30 2.20 7793
0.00 0.00 -6.90 -13.00 12.11 -0.48 1.19 2.22 7800
0.00 0.00 -4.44 -14.48 9.75 -0.85 1.12 2.21 7808
0.00 0.00 -8.31 -15.78 12.29 -0.94 0.58 2.15 7815
0.00 0.00 -8.18 -19.46 11.56 -1.04 0.09 1.99 7822
0.00 0.00 -6.21 -16.42 4.80 -0.74 -0.34 1.80 7829
0.00 0.00 -3.96 -15.91 1.23 -0.69 -0.38 1.53 7836
0.00 0.00 -7.73 -21.17 5.51 -0.24 -0.64 1.27 7843
0.00 0.00 -5.39 -18.80 3.50 0.32 -0.68 1.06 7851
0.00 0.00 -6.06 -17.45 3.83 0.88 -0.65 0.83 7858
0.00 0.00 -6.79 -18.70 4.90 1.25 -0.76 0.67 7865
0.00 0.00 -10.12 -19.54 4.62 1.54 -1.27 0.64 7872
-0.00 0.00 -10.89 -19.07 6.65 1.76 -2.14 0.67 7880
-0.00 0.00 -7.01 -9.13 12.50 2.01 -2.62 0.72 7886
-0.00 0.04 -5.14 0.85 15.95 2.40 -1.74 0.68 7894
-0.02 0.16 -10.70 -3.87 29.61 2.26 -2.06 0.40 7902
-0.02 0.28 -2.26 0.37 20.76 0.57 -2.44 -0.17 7909
-0.02 0.33 -1.15 -1.21 14.79 -0.10 -0.70 -0.10 7916
-0.03 0.38 -0.93 -1.88 10.05 -0.23 -0.18 -0.20 7923
-0.03 0.42 0.55 -1.70 9.84 -0.15 -0.19 -0.16 7929
-0.04 0.47 0.85 -2.35 10.20 -0.07 -0.10 -0.04 7937
-0.04 0.45 -0.11 -0.99 10.51 -0.03 -0.03 0.04 7944
-0.02 0.49 -0.33 -0.75 10.07 -0.03 0.03 -0.02 7951
-0.03 0.50 0.35 -0.54 9.68 -0.02 0.07 -0.02 7958
-0.02 0.50 0.45 -0.81 9.76 -0.00 0.11 -0.00 7965
-0.01 0.47 0.24 -0.94 9.78 -0.00 0.12 0.01 7972
-0.02 0.49 0.36 -0.92 9.74 -0.02 0.11 0.00 7980
-0.01 0.46 0.61 -0.83 9.78 -0.02 0.10 -0.01 7987
0.00 0.43 0.46 -0.97 9.75 -0.02 0.08 -0.01 7994
0.00 0.45 0.46 -0.91 9.72 -0.03 0.06 -0.02 8001
0.00 0.47 0.39 -0.81 9.80 -0.04 0.06 -0.02 8008
0.01 0.46 0.39 -0.86 9.64 -0.04 0.07 -0.03 8015
0.01 0.45 0.42 -0.80 9.80 -0.03 0.07 -0.04 8023
0.00 0.49 0.43 -0.78 9.81 -0.02 0.07 -0.04 8030
0.02 0.50 0.36 -0.74 15.34 -0.01 0.07 -0.04 8037
0.02 0.47 0.31 -0.82 9.78 -0.02 0.07 -0.04 8044
0.01 0.47 0.28 -0.80 9.83 -0.01 0.08 -0.04 8051
-0.00 0.49 0.37 -0.84 9.81 -0.01 0.10 -0.04 8058
0.01 0.47 0.51 -0.93 9.73 -0.00 0.12 -0.04 8066
0.01 0.47 0.39 -0.81 9.87 -0.00 0.13 -0.04 8073
0.01 0.44 0.43 -0.84 9.78 0.00 0.13 -0.04 8080
0.01 0.43 0.34 -0.72 9.80 0.01 0.13 -0.05 8087
0.00 0.42 0.44 -0.83 9.77 0.01 0.12 -0.05 8094
0.01 0.37 0.35 -0.74 9.76 0.01 0.11 -0.05 8101
0.01 0.36 0.48 -0.83 9.75 0.02 0.11 -0.05 8109
0.01 0.39 0.48 -0.79 9.75 0.01 0.10 -0.06 8116
0.04 0.34 0.43 -0.83 9.83 0.02 0.11 -0.06 8123
0.04 0.34 0.39 -0.83 9.82 0.02 0.10 -0.06 8130
0.04 0.32 0.49 -0.85 9.80 0.02 0.10 -0.06 8137
0.03 0.33 0.47 -0.83 9.81 0.02 0.10 -0.06 8144
0.04 0.23 0.45 -0.87 9.82 0.02 0.10 -0.06 8152
0.05 0.25 0.52 -0.83 9.75 0.02 0.09 -0.06 8159
0.06 0.21 0.41 -0.84 9.75 0.02 0.09 -0.06 8166
0.04 0.19 0.49 -0.85 9.77 0.02 0.09 -0.06 8173
0.05 0.17 0.48 -0.84 9.76 0.02 0.08 -0.06 8180
0.04 0.17 0.56 -0.84 9.78 0.02 0.08 -0.05 8187
0.04 0.15 0.51 -0.83 9.78 0.02 0.08 -0.06 8195
0.07 0.11 0.49 -0.87 9.79 0.02 0.08 -0.06 8202
0.07 0.09 0.46 -0.89 9.78 0.02 0.08 -0.05 8209
0.09 0.03 0.51 -0.89 9.82 0.02 0.08 -0.06 8216
0.07 0.04 0.51 -0.87 9.73 0.02 0.08 -0.05 8223
0.09 0.04 0.54 -0.86 9.75 0.01 0.08 -0.06 8230
0.08 0.02 0.52 -0.85 9.75 0.02 0.07 -0.06 8238
0.09 0.02 0.53 -0.87 9.79 0.01 0.07 -0.06 8245
0.10 0.01 0.53 -0.84 9.81 0.01 0.06 -0.06 8252
0.13 0.01 0.53 -0.90 9.77 0.01 0.05 -0.06 8259
0.10 0.01 0.52 -0.87 9.81 0.01 0.05 -0.06 8266
0.09 0.02 0.51 -0.88 9.81 0.01 0.04 -0.06 8273
0.11 0.04 0.50 -0.90 9.80 0.01 0.04 -0.06 8281
0.13 0.03 0.56 -0.90 9.78 0.01 0.04 -0.06 8288
0.12 0.02 0.49 -0.88 9.78 0.01 0.03 -0.06 8295
0.12 -0.00 0.55 -0.91 9.81 0.01 0.03 -0.07 8302
0.12 0.01 0.52 -0.86 9.81 0.02 0.03 -0.07 8309
0.16 0.00 0.55 -0.88 9.81 0.02 0.03 -0.07 8316
0.18 0.01 0.51 -0.88 9.81 0.02 0.02 -0.07 8324
0.18 -0.01 0.54 -0.89 9.83 0.02 0.02 -0.06 8331
0.17 -0.01 0.52 -0.89 9.81 0.02 0.01 -0.07 8338
0.17 -0.02 0.56 -0.86 9.82 0.02 0.01 -0.07 8345
0.15 0.01 0.58 -0.89 9.79 0.03 0.00 -0.07 8352
0.16 -0.00 0.50 -0.89 9.81 0.02 -0.01 -0.07 8359
0.18 -0.01 0.53 -0.95 9.81 0.03 -0.01 -0.07 8367
0.19 -0.01 0.51 -0.91 9.79 0.03 -0.01 -0.08 8374
0.22 -0.00 0.51 -0.94 9.81 0.04 -0.02 -0.09 8381
0.26 -0.01 0.50 -0.95 10.42 0.05 -0.02 -0.09 8388
0.28 -0.00 0.56 -1.00 9.81 0.05 -0.01 -0.10 8395
0.29 0.00 0.47 -0.93 9.84 0.07 -0.00 -0.11 8402
0.34 -0.02 0.53 -0.92 9.87 0.08 0.01 -0.11 8410
0.39 -0.02 0.51 -1.10 9.82 0.10 0.03 -0.12 8417
0.42 -0.02 0.49 -0.99 9.88 0.13 0.05 -0.13 8424
0.44 -0.02 0.45 -0.99 9.90 0.17 0.07 -0.13 8431
0.49 -0.02 0.52 -1.02 9.96 0.22 0.09 -0.14 8438
0.53 -0.02 0.63 -1.04 10.14 0.30 0.11 -0.15 8446
0.61 -0.03 0.58 -1.08 10.22 0.40 0.15 -0.16 8453
0.61 -0.03 0.53 -1.12 10.26 0.56 0.17 -0.16 8461
0.67 -0.04 0.49 -1.22 10.40 0.76 0.17 -0.15 8468
0.69 -0.03 0.46 -1.20 10.92 0.94 0.13 -0.16 8475
0.72 -0.03 0.59 -1.34 10.93 1.12 0.07 -0.17 8482
0.76 -0.03 0.56 -1.48 11.09 1.24 0.02 -0.18 8489
0.80 -0.03 0.53 -1.56 11.39 1.35 -0.02 -0.18 8497
0.82 -0.04 0.58 -1.69 11.56 1.44 -0.07 -0.19 8504
0.84 -0.04 0.59 -1.81 11.59 1.52 -0.09 -0.20 8511
0.87 -0.03 0.50 -1.77 11.96 1.62 -0.13 -0.21 8518
0.93 -0.04 0.41 -1.94 11.72 1.74 -0.13 -0.22 8525
1.00 -0.04 0.59 -1.99 11.51 1.85 -0.14 -0.22 8532
1.00 -0.05 0.60 -2.02 11.50 1.97 -0.17 -0.21 8539
1.01 -0.05 0.57 -2.30 11.90 2.10 -0.22 -0.20 8547
1.02 -0.05 0.73 -2.58 11.77 2.25 -0.24 -0.20 8554
0.98 -0.04 0.93 -2.70 11.97 2.40 -0.25 -0.23 8561
0.96 -0.03 0.74 -2.97 11.86 2.54 -0.27 -0.27 8568
0.97 -0.04 0.06 -2.97 12.08 2.70 -0.26 -0.28 8576
0.91 -0.04 -0.28 -2.97 12.63 2.92 -0.21 -0.26 8583
0.80 -0.03 0.32 -2.86 12.24 3.12 -0.15 -0.22 8590
0.71 -0.03 0.44 -3.58 12.78 3.38 -0.06 -0.21 8597
0.59 -0.03 0.02 -4.01 13.53 3.58 -0.03 -0.20 8603
0.38 -0.02 0.44 -4.24 13.23 3.85 0.08 -0.19 8611
0.24 -0.02 0.06 -5.01 14.68 4.09 0.20 -0.18 8617
0.17 -0.02 0.05 -6.18 15.73 4.20 0.27 -0.13 8625
0.14 -0.01 0.24 -7.21 17.48 4.25 0.39 -0.08 8632
0.12 -0.01 0.86 -8.37 18.69 4.26 0.59 -0.03 8639
0.06 -0.01 1.17 -8.88 19.23 4.25 0.81 0.01 8646
0.07 0.00 1.51 -8.84 18.87 4.22 1.06 0.01 8653
0.06 -0.01 1.33 -8.19 18.12 4.19 1.25 0.00 8660
0.05 -0.00 1.25 -7.73 17.03 4.12 1.35 0.01 8668
0.03 -0.00 -0.78 -6.10 18.16 4.00 1.30 -0.05 8675
0.03 -0.00 -0.86 -6.15 18.36 3.65 1.04 -0.12 8682
0.03 -0.00 -0.52 -4.58 16.17 3.43 0.66 -0.18 8689
0.01 -0.00 0.78 -2.25 14.61 3.39 0.41 -0.24 8696
0.01 -0.00 1.76 -0.13 15.23 3.39 0.22 -0.28 8704
0.01 -0.00 0.50 4.16 16.01 3.33 0.24 -0.33 8711
0.00 -0.00 -0.64 7.72 14.59 3.00 0.45 -0.47 8718
0.00 0.00 -1.56 12.43 9.60 2.36 0.38 -0.85 8725
0.00 0.00 -3.52 15.81 1.44 1.55 0.09 -1.47 8732
0.00 -0.00 -0.69 14.54 6.37 0.21 -0.63 -1.81 8739
0.00 0.00 -1.01 11.24 11.58 -0.81 -0.54 -2.08 8747
0.00 0.00 0.42 8.32 10.73 -1.37 -0.28 -2.34 8754
0.00 0.00 0.27 6.63 9.12 -1.52 -0.21 -2.60 8761
0.00 0.00 -0.62 5.92 6.91 -1.54 -0.19 -2.78 8768
0.00 0.00 -0.79 5.85 5.92 -1.54 -0.18 -2.90 8775
0.00 -0.00 -0.40 5.87 5.38 -1.55 -0.29 -2.98 8782
0.00 0.00 -0.28 5.64 5.81 -1.61 -0.41 -3.00 8790
0.00 0.00 -0.13 5.33 6.52 -1.70 -0.53 -2.98 8797
0.00 0.00 0.49 5.13 7.41 -1.82 -0.59 -2.90 8804
0.00 0.00 0.88 4.97 8.15 -2.01 -0.62 -2.78 8811
0.00 0.00 1.57 4.98 8.73 -2.25 -0.61 -2.63 8818
0.02 -0.00 2.06 4.85 9.27 -2.51 -0.55 -2.44 8825
0.00 0.00 2.54 4.52 9.59 -2.84 -0.39 -2.27 8833
0.00 0.00 2.89 3.80 10.01 -3.12 -0.18 -2.06 8840
0.00 0.00 3.17 3.02 10.46 -3.40 0.04 -1.88 8847
0.00 0.00 3.47 2.09 10.39 -3.63 0.32 -1.72 8854
0.00 0.00 3.41 1.11 10.28 -3.78 0.57 -1.57 8861
0.00 0.00 3.23 0.32 10.40 -3.91 0.86 -1.46 8868
0.00 0.00 2.97 -0.52 10.69 -3.97 1.11 -1.35 8876
0.00 0.00 2.84 -1.37 11.13 -3.99 1.27 -1.27 8883
0.00 0.00 2.42 -2.56 11.70 -3.98 1.40 -1.22 8890
0.00 0.00 2.20 -3.78 12.29 -3.93 1.47 -1.16 8897
0.00 0.00 2.21 -4.78 13.04 -3.87 1.54 -1.11 8904
0.00 0.00 2.19 -5.69 13.63 -3.79 1.60 -1.01 8911
0.00 0.00 2.17 -6.31 14.33 -3.70 1.63 -0.86 8919
0.00 0.00 2.26 -7.05 15.01 -3.61 1.72 -0.71 8926
0.00 0.00 2.42 -7.90 15.09 -3.55 1.81 -0.49 8933
0.00 0.00 2.31 -8.78 15.39 -3.46 1.88 -0.27 8940
0.00 -0.00 2.18 -9.42 15.36 -3.33 1.88 0.04 8947
0.00 0.00 2.10 -9.56 15.15 -3.18 1.81 0.38 8954
0.00 0.00 2.12 -9.29 14.60 -2.96 1.67 0.66 8962
0.00 0.00 2.28 -8.94 13.85 -2.76 1.53 0.98 8969
0.00 0.00 2.43 -8.70 13.03 -2.53 1.47 1.22 8976
0.00 0.00 2.09 -8.35 12.67 -2.30 1.48 1.45 8983
0.00 0.00 1.93 -8.17 12.53 -2.10 1.58 1.64 8990
0.00 0.00 1.20 -7.86 12.15 -1.85 1.76 1.76 8997
0.00 0.00 0.27 -7.73 11.66 -1.63 1.92 1.86 9005
0.00 0.00 -0.66 -7.89 11.41 -1.35 1.99 1.93 9012
0.00 0.00 -1.60 -8.07 11.52 -1.08 1.94 1.96 9019
0.00 0.00 -2.20 -8.46 11.95 -0.84 1.74 1.96 9026
0.00 0.00 -2.28 -8.88 12.75 -0.60 1.52 1.93 9033
0.00 0.00 -2.01 -9.23 14.12 -0.45 1.25 1.89 9040
0.00 0.00 -1.69 -9.64 15.14 -0.38 1.05 1.81 9048
0.00 0.00 -1.09 -10.15 15.17 -0.42 0.94 1.75 9055
0.00 0.00 -0.55 -10.68 14.75 -0.53 0.90 1.62 9062
-0.00 0.00 -0.32 -11.57 13.72 -0.67 0.91 1.48 9069
0.00 0.00 -0.50 -12.57 11.84 -0.78 0.93 1.30 9076
0.00 0.00 -0.75 -13.28 10.21 -0.83 0.97 1.13 9083
0.00 0.00 -1.40 -13.80 8.63 -0.77 1.10 1.00 9091
0.00 0.00 -2.24 -13.99 7.40 -0.63 1.40 0.92 9098
0.00 0.00 -2.53 -14.37 6.92 -0.46 1.77 0.91 9105
0.00 0.00 -3.07 -14.73 7.43 -0.34 2.18 0.91 9112
0.00 0.00 -8.76 -19.94 14.74 -0.21 2.12 0.91 9119
0.00 0.00 -7.71 -16.13 6.56 -0.04 1.60 0.91 9126
0.00 0.00 -11.34 -15.87 5.82 0.01 0.70 0.86 9134
0.00 0.00 -9.58 -17.75 5.98 0.00 -0.10 0.88 9141
0.00 0.00 -9.35 -19.07 3.25 0.02 -0.90 0.80 9148
0.00 0.00 -8.87 -20.23 3.55 0.24 -1.56 0.65 9155
0.00 0.00 -7.31 -19.88 2.71 0.56 -1.97 0.48 9162
0.00 0.00 -7.56 -22.58 3.20 0.96 -2.33 0.30 9169
0.00 0.00 -7.40 -23.59 4.51 1.41 -2.45 0.36 9177
-0.00 0.03 -3.45 -6.82 9.52 2.06 -1.78 0.64 9184
-0.01 0.09 -7.95 -2.42 22.06 2.36 -1.77 0.63 9191
-0.01 0.20 -2.34 3.03 20.07 0.47 -2.19 0.04 9198
-0.02 0.27 -0.59 -0.67 10.97 -0.35 -0.04 0.01 9205
-0.03 0.36 -1.18 -1.23 11.18 -0.26 -0.07 -0.22 9213
-0.02 0.40 -0.51 -2.60 10.33 -0.12 -0.11 -0.16 9221
-0.04 0.43 0.83 -1.90 10.40 -0.06 -0.02 -0.07 9227
-0.02 0.45 0.12 -0.89 10.35 -0.03 0.02 0.01 9234
0.01 0.42 -0.04 -0.79 9.91 -0.01 0.06 -0.02 9241
0.00 0.41 0.28 -0.50 9.66 0.01 0.08 -0.03 9248
0.01 0.39 0.51 -0.89 9.76 0.01 0.09 -0.02 9255
-0.00 0.39 0.39 -0.93 9.74 -0.00 0.08 -0.01 9263
0.01 0.41 0.35 -0.93 9.77 -0.02 0.08 -0.01 9270
0.01 0.42 0.60 -0.94 9.75 -0.03 0.06 -0.02 9277
0.01 0.40 0.48 -0.89 9.71 -0.03 0.03 -0.03 9284
0.01 0.41 0.33 -0.90 9.80 -0.03 0.02 -0.04 9291
0.01 0.46 0.37 -0.84 9.76 -0.04 0.02 -0.04 9298
-0.00 0.48 0.35 -0.80 9.80 -0.04 0.01 -0.05 9306
0.00 0.52 0.36 -0.74 9.77 -0.04 0.01 -0.05 9313
-0.00 0.56 0.35 -0.77 9.77 -0.04 0.01 -0.06 9320
0.00 0.61 0.34 -0.82 9.77 -0.04 0.01 -0.06 9327
-0.00 0.62 0.33 -0.77 9.73 -0.04 0.02 -0.06 9334
-0.01 0.62 0.29 -0.78 9.83 -0.04 0.03 -0.07 9341
-0.01 0.63 0.17 -0.76 9.86 -0.03 0.04 -0.06 9349
0.00 0.60 0.32 -0.77 9.90 -0.02 0.04 -0.06 9356
0.01 0.59 0.34 -0.79 9.77 -0.02 0.04 -0.06 9363
-0.00 0.59 0.30 -0.80 9.67 -0.02 0.05 -0.06 9370
-0.00 0.57 0.34 -0.76 9.81 -0.01 0.04 -0.06 9377
0.00 0.56 0.34 -0.74 9.80 -0.00 0.03 -0.07 9384
-0.00 0.55 0.42 -0.79 9.81 -0.01 0.03 -0.07 9392
0.00 0.55 0.41 -0.76 9.74 -0.00 0.02 -0.07 9399
0.01 0.54 0.39 -0.75 9.72 -0.00 0.01 -0.08 9406
0.01 0.51 0.36 -0.78 9.76 -0.00 0.01 -0.08 9413
0.01 0.48 0.29 -0.79 9.84 0.00 0.01 -0.09 9420
0.00 0.46 0.37 -0.77 9.80 0.00 0.01 -0.09 9427
0.00 0.45 0.34 -0.80 9.83 0.01 0.01 -0.09 9435
0.02 0.44 0.32 -0.81 9.85 0.01 0.01 -0.09 9442
0.03 0.43 0.27 -0.78 9.82 0.01 0.02 -0.08 9449
0.04 0.41 0.28 -0.76 9.76 0.01 0.02 -0.08 9456
0.04 0.38 0.27 -0.77 9.81 0.01 0.03 -0.08 9463
0.04 0.32 0.30 -0.79 9.81 0.01 0.03 -0.08 9470
0.05 0.32 0.29 -0.78 9.81 0.01 0.03 -0.08 9478
0.08 0.31 0.34 -0.86 9.79 0.02 0.03 -0.08 9485
0.08 0.32 0.34 -0.80 9.74 0.02 0.04 -0.08 9492
0.08 0.26 0.36 -0.82 9.80 0.02 0.03 -0.08 9499
0.08 0.21 0.33 -0.84 9.78 0.02 0.03 -0.08 9506
0.09 0.15 0.34 -0.86 9.78 0.02 0.03 -0.09 9513
0.14 0.19 0.32 -0.84 9.82 0.01 0.03 -0.09 9521
0.15 0.18 0.34 -0.84 9.79 0.02 0.03 -0.09 9528
0.17 0.16 0.31 -0.84 9.82 0.02 0.04 -0.09 9535
0.20 0.19 0.31 -0.83 9.77 0.02 0.03 -0.09 9542
0.16 0.17 0.33 -0.84 9.83 0.01 0.04 -0.09 9549
0.18 0.14 0.33 -0.85 9.81 0.01 0.04 -0.09 9556
0.21 0.12 0.32 -0.81 9.83 0.01 0.04 -0.09 9564
0.23 0.07 0.33 -0.83 9.82 0.02 0.03 -0.09 9571
0.27 0.03 0.33 -0.84 9.81 0.02 0.04 -0.10 9578
0.28 0.04 0.29 -0.86 9.85 0.02 0.04 -0.09 9585
0.26 0.04 0.32 -0.83 9.82 0.03 0.04 -0.10 9592
0.31 0.02 0.28 -0.88 9.81 0.02 0.04 -0.09 9600
0.33 -0.00 0.31 -0.84 9.82 0.02 0.04 -0.09 9607
0.36 0.00 0.31 -0.84 9.81 0.03 0.04 -0.09 9614
0.37 -0.01 0.35 -0.82 9.82 0.03 0.04 -0.10 9621
0.35 -0.02 0.33 -0.90 9.79 0.03 0.05 -0.10 9628
0.36 -0.03 0.33 -0.86 9.81 0.04 0.04 -0.10 9635
0.36 -0.01 0.32 -0.88 9.83 0.04 0.05 -0.10 9643
0.43 -0.01 0.33 -0.92 9.85 0.05 0.05 -0.10 9650
0.49 -0.03 0.32 -0.90 9.87 0.06 0.05 -0.10 9657
0.53 -0.03 0.36 -0.93 9.83 0.08 0.05 -0.10 9664
0.61 -0.04 0.34 -0.93 9.83 0.10 0.05 -0.11 9671
0.63 -0.04 0.39 -0.92 9.87 0.13 0.05 -0.12 9678
0.63 -0.03 0.43 -0.99 9.90 0.16 0.06 -0.13 9686
0.68 -0.02 0.42 -1.00 10.02 0.20 0.06 -0.14 9693
0.76 -0.04 0.49 -0.98 10.04 0.26 0.07 -0.15 9700
0.85 -0.04 0.40 -1.00 10.10 0.36 0.07 -0.17 9707
0.87 -0.04 0.56 -1.06 10.18 0.41 0.07 -0.19 9715
0.89 -0.03 0.50 -1.05 10.33 0.53 0.07 -0.21 9721
0.92 -0.03 0.37 -1.02 10.73 0.67 0.07 -0.22 9730
1.02 -0.04 0.48 -1.21 10.85 0.88 0.06 -0.23 9736
1.06 -0.04 0.32 -1.30 10.64 1.01 0.03 -0.23 9743
1.05 -0.04 0.33 -1.42 10.72 1.11 -0.02 -0.22 9751
1.10 -0.05 0.39 -1.44 10.88 1.16 -0.08 -0.22 9758
1.17 -0.04 0.42 -1.61 11.27 1.23 -0.14 -0.22 9765
1.24 -0.05 0.57 -1.65 11.38 1.34 -0.16 -0.22 9773
1.25 -0.05 0.52 -1.68 11.22 1.45 -0.18 -0.23 9780
1.27 -0.04 0.29 -1.86 11.62 1.55 -0.18 -0.23 9787
1.33 -0.05 0.04 -1.79 11.65 1.68 -0.18 -0.23 9794
1.34 -0.06 0.33 -2.01 11.44 1.78 -0.19 -0.23 9801
1.38 -0.06 0.26 -2.14 11.40 1.91 -0.19 -0.23 9808
1.40 -0.05 0.18 -2.18 11.31 2.02 -0.20 -0.23 9816
1.40 -0.05 0.21 -2.24 11.28 2.12 -0.20 -0.22 9823
1.38 -0.05 0.04 -2.40 11.32 2.26 -0.16 -0.21 9830
1.37 -0.05 -0.01 -2.82 11.54 2.42 -0.18 -0.19 9837
1.30 -0.05 0.18 -2.71 12.21 2.60 -0.16 -0.19 9844
1.26 -0.05 0.54 -2.96 11.98 2.81 -0.14 -0.21 9851
1.18 -0.04 0.64 -3.25 11.68 3.00 -0.04 -0.25 9859
1.13 -0.05 -0.58 -3.09 12.15 3.23 0.06 -0.25 9866
0.98 -0.03 0.29 -3.39 11.42 3.49 0.08 -0.22 9873
0.79 -0.05 -0.62 -4.07 13.80 3.73 0.08 -0.16 9880
0.69 -0.03 -0.49 -4.16 13.93 4.04 0.09 -0.13 9887
0.50 -0.02 -0.50 -4.78 14.48 4.21 0.06 -0.11 9894
0.32 -0.01 0.04 -5.85 14.92 4.28 -0.04 -0.09 9901
0.29 -0.02 0.19 -6.84 16.45 4.28 -0.17 -0.09 9909
0.21 -0.02 0.10 -7.89 17.34 4.28 -0.25 -0.11 9915
0.18 -0.02 0.01 -8.89 19.55 4.28 -0.27 -0.12 9922
0.11 -0.01 0.47 -9.68 19.37 4.28 -0.27 -0.13 9929
0.09 -0.01 0.49 -9.98 18.20 4.28 -0.21 -0.13 9936
0.07 -0.01 0.54 -9.18 16.98 4.28 -0.14 -0.15 9944
0.05 -0.01 0.27 -8.32 16.68 4.26 -0.11 -0.18 9951
0.04 -0.00 0.39 -7.15 17.43 4.20 -0.20 -0.23 9958
0.05 -0.01 1.13 -6.58 17.20 4.11 -0.34 -0.27 9965
0.04 -0.00 2.14 -5.26 15.40 4.00 -0.35 -0.28 9972
0.04 0.00 3.52 -3.35 14.76 3.89 -0.26 -0.30 9979
0.03 -0.00 3.70 -2.31 14.50 3.84 -0.08 -0.36 9987
0.01 -0.00 3.07 -1.45 16.42 3.99 0.04 -0.42 9994
0.01 -0.00 2.12 0.09 15.71 4.11 0.23 -0.52 10001
0.01 -0.00 3.83 4.68 10.02 3.88 0.41 -0.62 10008
0.00 0.00 2.73 6.42 7.06 3.14 0.65 -0.75 10015
0.00 0.00 1.42 19.88 -1.46 2.15 0.56 -1.19 10022
0.00 -0.00 0.78 20.60 0.68 0.91 0.36 -1.88 10030
0.00 0.00 3.27 8.73 15.67 -0.42 0.49 -2.26 10037
0.00 0.00 1.86 4.37 17.28 -1.57 0.55 -2.41 10044
0.00 0.00 0.29 5.66 12.91 -2.41 0.72 -2.53 10051
0.00 0.00 -0.03 6.65 8.50 -2.70 0.70 -2.60 10058
0.00 0.00 0.10 6.35 6.00 -2.93 0.45 -2.60 10065
0.00 0.00 0.60 5.19 4.86 -3.10 0.16 -2.58 10073
0.00 0.00 1.24 3.60 5.14 -3.10 -0.05 -2.54 10080
0.00 0.00 1.80 2.55 5.55 -3.04 -0.22 -2.47 10087
0.00 0.00 2.17 1.91 8.85 -2.99 -0.24 -2.31 10094
0.00 0.00 3.08 1.93 6.94 -2.97 -0.17 -2.12 10101
0.00 0.00 3.85 2.76 7.24 -3.07 -0.06 -1.87 10108
0.00 0.00 3.97 3.23 7.44 -3.23 0.05 -1.60 10116
0.00 0.00 4.03 3.08 8.00 -3.48 0.19 -1.34 10123
0.00 0.00 4.26 2.18 8.66 -3.70 0.34 -1.01 10130
0.00 0.00 4.26 1.10 9.24 -3.92 0.48 -0.69 10137
0.00 0.00 4.27 -0.03 9.15 -4.05 0.62 -0.39 10144
0.00 0.00 3.96 -0.95 9.10 -4.08 0.72 -0.08 10151
0.00 0.00 3.37 -1.39 9.11 -4.06 0.82 0.16 10159
0.00 0.00 2.78 -1.68 9.56 -3.98 0.90 0.39 10166
0.00 0.00 2.16 -1.99 10.22 -3.90 0.96 0.52 10173
0.00 0.00 1.49 -2.82 10.85 -3.79 1.04 0.62 10180
0.00 0.00 0.91 -3.66 11.82 -3.72 1.16 0.67 10187
0.00 0.00 0.33 -4.12 12.70 -3.66 1.21 0.69 10194
0.00 0.00 -0.21 -4.54 13.69 -3.63 1.27 0.68 10202
0.00 0.00 -0.40 -4.94 14.30 -3.60 1.35 0.64 10209
0.00 0.00 -0.75 -5.20 14.49 -3.59 1.43 0.62 10216
0.00 0.00 -1.00 -5.53 14.65 -3.58 1.51 0.61 10223
0.00 0.00 -1.28 -5.91 14.90 -3.55 1.52 0.63 10230
0.00 -0.00 -1.76 -6.21 15.17 -3.49 1.46 0.71 10237
0.00 0.00 -2.02 -6.43 15.04 -3.42 1.35 0.81 10245
0.00 0.00 -2.11 -6.64 14.78 -3.32 1.16 0.91 10252
0.00 0.00 -1.78 -6.81 14.32 -3.22 0.91 1.00 10259
0.00 0.00 -1.07 -7.08 13.81 -3.08 0.68 1.07 10266
0.00 0.00 -0.07 -7.79 13.65 -2.91 0.47 1.05 10273
0.00 0.00 1.03 -8.62 13.34 -2.74 0.34 1.04 10280
0.00 0.00 2.24 -9.48 12.96 -2.52 0.37 1.02 10288
0.00 0.00 3.02 -10.20 12.49 -2.29 0.45 1.00 10295
0.00 0.00 3.33 -10.76 11.94 -2.07 0.55 0.98 10302
0.00 0.00 3.42 -11.43 11.74 -1.79 0.69 0.97 10309
0.00 0.00 3.65 -11.86 12.20 -1.53 0.86 0.95 10316
0.00 0.00 4.23 -12.04 12.70 -1.27 1.10 0.94 10323
0.00 0.00 4.76 -12.25 13.10 -1.10 1.49 0.92 10331
0.00 0.00 4.68 -12.59 13.16 -1.05 1.87 0.89 10338
0.00 0.00 3.91 -12.98 12.99 -1.03 2.27 0.89 10345
0.00 0.00 2.92 -13.36 12.58 -1.04 2.57 0.89 10352
0.00 0.00 2.07 -13.61 11.97 -1.03 2.71 0.89 10359
0.00 0.00 0.97 -13.91 11.50 -0.98 2.76 0.89 10366
0.00 0.00 -0.16 -14.11 11.29 -0.91 2.69 0.87 10374
0.00 0.00 -2.83 -15.61 11.37 -0.80 2.48 0.85 10381
0.00 0.00 -8.52 -17.44 13.42 -0.42 1.58 0.90 10388
0.00 0.00 -4.52 -10.89 4.17 -0.28 1.00 0.96 10395
0.00 0.00 -4.32 -10.08 2.73 -0.51 1.29 1.04 10402
0.00 0.00 -16.43 -19.60 16.54 -0.11 0.21 1.42 10409
0.00 0.00 -6.30 -13.87 5.97 -0.06 -0.08 1.61 10417
0.00 0.00 -5.42 -12.16 2.49 -0.21 -0.34 1.55 10424
0.00 0.00 -9.94 -21.67 8.68 -0.19 -1.11 1.48 10431
0.00 0.00 -6.72 -19.31 6.72 0.11 -1.80 1.40 10438
0.00 0.00 -5.39 -20.53 2.82 0.39 -2.01 1.32 10445
0.00 0.00 -3.46 -25.19 4.80 1.04 -1.55 1.54 10452
-0.00 0.01 -11.75 -30.79 1.86 1.63 -1.12 2.28 10461
-0.00 0.04 -8.11 0.40 7.61 2.40 -1.11 2.60 10467
-0.01 0.13 -17.03 -8.50 13.43 2.74 -1.52 2.04 10475
-0.02 0.25 -9.54 1.37 25.56 0.99 -2.93 0.58 10482
-0.01 0.32 -3.77 -2.28 8.46 -0.30 -0.11 0.09 10488
-0.03 0.33 -4.49 0.15 11.36 -0.24 -0.27 -0.32 10497
-0.03 0.32 0.66 -1.33 9.70 -0.16 -0.13 -0.44 10503
-0.03 0.34 3.44 -1.79 10.39 -0.04 -0.09 -0.23 10510
-0.03 0.36 0.99 -0.86 9.98 0.01 -0.02 0.03 10517
-0.02 0.34 -0.64 -0.71 10.08 0.03 0.01 -0.01 10524
-0.02 0.33 -0.10 -0.68 9.59 0.01 0.03 -0.07 10531
-0.03 0.32 0.71 -0.87 9.62 0.00 0.03 -0.03 10539
0.02 0.34 0.38 -0.87 9.74 -0.01 0.02 -0.02 10546
0.02 0.35 0.22 -0.78 9.79 -0.03 0.01 -0.03 10553
-0.01 0.35 0.52 -0.89 9.82 -0.03 0.01 -0.05 10560
0.02 0.35 0.41 -0.88 9.82 -0.03 -0.00 -0.05 10567
0.02 0.38 0.26 -0.87 9.81 -0.04 -0.01 -0.06 10574
0.03 0.32 0.27 -0.85 9.84 -0.06 -0.01 -0.06 10582
0.02 0.38 0.23 -0.84 9.88 -0.06 -0.00 -0.07 10589
0.01 0.40 0.28 -0.79 9.73 -0.06 0.00 -0.07 10596
0.03 0.41 0.21 -0.81 10.41 -0.05 0.01 -0.07 10603
0.03 0.46 0.19 -0.75 9.80 -0.05 0.02 -0.07 10610
0.02 0.51 0.23 -0.73 9.86 -0.04 0.03 -0.07 10617
0.04 0.50 0.21 -0.80 9.92 -0.03 0.05 -0.07 10625
0.03 0.52 0.18 -0.81 9.84 -0.02 0.06 -0.07 10632
0.03 0.52 0.11 -0.75 9.85 -0.01 0.06 -0.06 10639
0.04 0.51 0.33 -0.77 9.84 -0.00 0.06 -0.06 10646
0.06 0.48 0.34 -0.78 9.83 -0.00 0.06 -0.07 10653
0.07 0.46 0.30 -0.76 9.84 0.00 0.05 -0.06 10660
0.06 0.42 0.34 -0.78 9.80 0.00 0.05 -0.07 10668
0.07 0.36 0.35 -0.79 9.81 0.01 0.04 -0.08 10675
0.08 0.36 0.34 -0.76 9.76 0.02 0.04 -0.08 10682
0.10 0.34 0.32 -0.81 9.78 0.02 0.04 -0.09 10689
0.12 0.28 0.23 -0.78 9.82 0.01 0.04 -0.09 10696
0.10 0.26 0.25 -0.77 9.83 0.02 0.04 -0.09 10703
0.13 0.24 0.23 -0.78 9.80 0.02 0.04 -0.08 10711
0.10 0.23 0.25 -0.78 9.82 0.02 0.05 -0.08 10718
0.11 0.21 0.23 -0.76 9.79 0.03 0.05 -0.08 10725
0.13 0.21 0.24 -0.79 9.80 0.04 0.05 -0.07 10732
0.18 0.17 0.28 -0.77 9.80 0.03 0.05 -0.08 10739
0.19 0.13 0.31 -0.80 9.77 0.04 0.05 -0.08 10746
0.22 0.03 0.31 -0.83 9.80 0.04 0.06 -0.08 10754
0.22 0.02 0.26 -0.80 9.80 0.04 0.06 -0.07 10761
0.25 0.03 0.30 -0.82 9.81 0.04 0.07 -0.07 10768
0.29 0.05 0.30 -0.84 9.81 0.04 0.07 -0.07 10775
0.29 0.01 0.29 -0.83 9.81 0.04 0.07 -0.08 10782
0.30 -0.02 0.36 -0.85 9.78 0.04 0.07 -0.07 10789
0.31 -0.02 0.31 -0.82 9.78 0.04 0.06 -0.08 10797
0.33 -0.01 0.32 -0.84 9.80 0.03 0.07 -0.07 10804
0.34 -0.00 0.30 -0.85 9.79 0.04 0.06 -0.08 10811
0.36 -0.01 0.27 -0.87 9.82 0.04 0.03 -0.07 10818
0.36 -0.01 0.32 -0.87 9.77 0.04 0.06 -0.07 10825
0.38 -0.01 0.30 -0.88 9.81 0.04 0.07 -0.08 10832
0.38 -0.00 0.33 -0.90 9.75 0.04 0.07 -0.08 10840
0.41 -0.02 0.30 -0.86 9.80 0.04 0.07 -0.07 10847
0.47 -0.01 0.32 -0.88 9.79 0.04 0.07 -0.08 10854
0.46 -0.02 0.35 -0.89 9.81 0.05 0.07 -0.08 10861
0.47 -0.01 0.36 -0.91 9.82 0.05 0.07 -0.08 10868
0.46 -0.03 0.36 -0.88 9.79 0.06 0.07 -0.08 10875
0.44 -0.02 0.40 -0.89 9.82 0.06 0.07 -0.08 10883
0.48 -0.02 0.43 -0.90 9.81 0.07 0.07 -0.09 10890
0.48 -0.01 0.35 -0.95 9.82 0.08 0.07 -0.09 10897
0.51 -0.01 0.36 -0.92 9.80 0.09 0.06 -0.09 10904
0.53 -0.02 0.33 -0.94 9.83 0.09 0.05 -0.10 10911
0.56 -0.04 0.37 -0.98 9.78 0.10 0.05 -0.10 10918
0.57 -0.03 0.34 -0.97 9.80 0.10 0.05 -0.11 10926
0.58 -0.03 0.33 -0.99 9.81 0.10 0.05 -0.11 10933
0.62 -0.03 0.30 -1.01 9.81 0.11 0.06 -0.11 10940
0.63 -0.03 0.28 -0.98 9.87 0.12 0.06 -0.11 10947
0.66 -0.03 0.40 -0.99 9.83 0.14 0.06 -0.12 10954
0.68 -0.04 0.32 -1.04 9.86 0.16 0.07 -0.13 10961
0.70 -0.03 0.42 -1.04 9.91 0.20 0.07 -0.13 10969
0.69 -0.02 0.36 -1.05 9.92 0.23 0.09 -0.14 10976
0.73 -0.02 0.45 -1.03 9.97 0.28 0.10 -0.14 10983
0.74 -0.03 0.41 -1.07 10.01 0.35 0.12 -0.15 10991
0.75 -0.04 0.41 -1.13 10.10 0.45 0.15 -0.16 10998
0.80 -0.04 0.31 -1.23 10.32 0.55 0.17 -0.16 11005
0.87 -0.04 0.44 -1.26 10.23 0.65 0.18 -0.16 11013
0.91 -0.03 0.39 -1.29 10.34 0.72 0.16 -0.17 11020
0.96 -0.03 0.51 -1.39 10.39 0.80 0.13 -0.17 11027
0.95 -0.03 0.52 -1.44 10.72 0.87 0.09 -0.17 11033
0.97 -0.04 0.40 -1.53 10.81 0.94 0.08 -0.17 11040
1.04 -0.05 0.44 -1.54 10.91 1.03 0.06 -0.18 11048
1.08 -0.04 0.64 -1.70 10.69 1.10 0.04 -0.18 11055
1.14 -0.04 0.43 -1.70 10.95 1.18 0.02 -0.18 11063
1.17 -0.04 0.23 -1.68 11.30 1.28 0.03 -0.17 11070
1.18 -0.05 0.24 -1.96 10.96 1.38 0.04 -0.17 11077
1.20 -0.06 0.42 -2.01 10.92 1.48 0.04 -0.17 11083
1.21 -0.05 0.53 -2.16 10.83 1.57 0.04 -0.18 11091
1.24 -0.04 0.47 -2.28 10.96 1.68 0.03 -0.19 11099
1.25 -0.03 0.48 -2.48 10.98 1.80 0.03 -0.19 11105
1.26 -0.04 0.58 -2.45 10.73 1.89 0.02 -0.20 11113
1.26 -0.04 0.47 -2.68 10.92 1.99 0.02 -0.20 11119
1.25 -0.06 0.66 -2.79 11.08 2.11 0.02 -0.21 11127
1.19 -0.04 0.39 -3.43 11.82 2.22 0.03 -0.22 11134
1.17 -0.04 0.30 -3.03 11.52 2.37 0.05 -0.21 11142
1.13 -0.04 0.55 -3.14 11.72 2.51 0.05 -0.22 11149
1.07 -0.04 1.00 -3.42 11.37 2.71 0.10 -0.24 11156
0.97 -0.04 0.34 -3.36 11.99 2.88 0.15 -0.27 11163
0.82 -0.04 -0.05 -3.66 11.73 3.10 0.31 -0.26 11170
0.67 -0.03 -0.39 -4.12 12.12 3.36 0.48 -0.20 11177
0.52 -0.02 -0.57 -4.45 13.45 3.62 0.63 -0.13 11185
0.35 -0.02 -0.93 -5.22 16.09 3.84 0.73 -0.01 11192
0.24 -0.02 -0.80 -6.05 16.55 4.07 0.71 0.06 11198
0.17 -0.02 -0.18 -7.14 16.22 4.17 0.67 0.16 11205
0.11 -0.01 0.60 -8.15 15.67 4.21 0.70 0.22 11212
0.07 -0.01 1.92 -9.19 17.59 4.22 0.81 0.26 11219
0.08 -0.00 2.33 -8.97 16.97 4.22 1.00 0.26 11227
0.08 -0.01 2.70 -8.80 17.47 4.20 1.22 0.20 11234
0.06 -0.01 3.30 -8.62 17.05 4.17 1.33 0.12 11241
0.07 -0.01 3.83 -7.75 16.60 4.13 1.43 0.03 11248
0.04 -0.00 4.62 -6.99 15.55 4.10 1.63 -0.07 11255
0.04 -0.00 4.38 -6.40 16.30 4.03 1.86 -0.23 11262
0.02 -0.00 3.64 -5.92 16.94 3.96 1.97 -0.37 11270
0.02 -0.00 2.82 -4.77 17.70 3.95 1.94 -0.57 11277
0.00 -0.00 1.89 -4.04 18.77 4.01 1.87 -0.70 11284
0.00 0.00 1.24 -2.17 18.58 4.03 1.67 -0.87 11291
0.00 0.00 1.27 2.84 16.36 3.73 1.55 -0.97 11298
0.00 0.00 2.00 3.23 9.87 3.15 1.42 -1.01 11305
0.00 0.00 1.83 6.98 2.96 2.41 1.07 -1.16 11313
0.00 0.00 1.63 16.47 -2.55 1.36 0.46 -1.39 11320
0.00 0.00 -6.10 23.09 1.72 0.84 -0.36 -1.90 11327
0.00 0.00 -0.93 7.68 18.35 0.03 -0.58 -2.39 11334
0.00 0.00 -0.15 3.34 15.22 -1.51 -0.80 -2.61 11341
0.00 0.00 0.10 4.95 11.98 -2.05 -0.75 -2.67 11348
0.00 0.00 0.61 5.68 9.90 -2.20 -0.57 -2.71 11356
0.00 0.00 0.57 6.19 7.06 -2.37 -0.43 -2.86 11363
0.00 0.00 0.70 6.33 5.01 -2.49 -0.40 -3.06 11370
0.00 0.00 1.19 5.65 4.92 -2.55 -0.43 -3.18 11377
0.00 0.00 1.48 4.56 5.48 -2.64 -0.39 -3.23 11384
0.00 0.00 1.76 4.02 6.18 -2.68 -0.28 -3.14 11392
0.00 0.00 1.91 3.74 7.02 -2.78 -0.12 -3.04 11399
0.00 0.00 1.72 3.84 7.65 -2.90 -0.05 -2.84 11406
0.00 0.00 1.59 3.74 8.03 -3.09 -0.02 -2.62 11413
0.00 0.00 1.59 3.32 8.43 -3.33 -0.05 -2.31 11420
0.00 0.00 1.98 2.78 8.90 -3.55 -0.09 -2.00 11427
0.00 0.00 2.30 1.98 9.28 -3.79 -0.06 -1.75 11435
0.00 -0.00 2.57 0.97 9.43 -3.95 0.01 -1.47 11442
0.00 0.00 2.76 0.05 9.60 -4.08 0.11 -1.25 11449
0.00 0.00 2.78 -0.88 9.47 -4.14 0.22 -1.03 11456
0.00 0.00 2.58 -1.74 9.38 -4.15 0.31 -0.85 11463
0.00 0.00 2.59 -2.37 9.79 -4.12 0.42 -0.71 11470
0.00 0.00 2.91 -3.10 10.39 -4.06 0.49 -0.58 11478
0.00 0.00 3.22 -3.84 11.48 -3.93 0.55 -0.48 11485
0.00 0.00 3.68 -4.51 12.37 -3.78 0.67 -0.36 11492
0.00 0.00 4.26 -4.82 13.04 -3.69 0.87 -0.23 11499
0.00 0.00 4.64 -5.27 13.46 -3.65 1.17 -0.14 11506
0.00 0.00 4.56 -6.05 13.95 -3.66 1.51 0.00 11513
0.00 0.00 4.33 -6.93 14.23 -3.68 1.79 0.18 11521
0.00 0.00 3.66 -8.14 14.37 -3.63 2.01 0.39 11528
0.00 0.00 2.93 -8.81 14.33 -3.53 2.05 0.70 11535
0.00 0.00 2.37 -8.95 14.26 -3.34 1.91 1.01 11542
0.00 0.00 2.13 -8.87 13.91 -3.11 1.64 1.38 11549
0.00 0.00 2.33 -8.75 13.69 -2.92 1.39 1.68 11556
0.00 0.00 2.83 -8.95 13.56 -2.71 1.15 1.85 11564
0.00 0.00 3.24 -9.36 13.43 -2.54 1.05 1.96 11571
0.00 0.00 3.52 -9.68 13.42 -2.32 1.09 1.99 11578
0.00 0.00 3.63 -9.80 13.19 -2.09 1.23 1.96 11585
0.00 0.00 3.43 -9.82 12.94 -1.89 1.40 1.90 11592
0.00 0.00 2.66 -9.84 12.81 -1.67 1.56 1.82 11599
0.00 -0.00 1.96 -9.81 13.00 -1.45 1.64 1.72 11607
0.00 0.00 1.80 -9.78 13.45 -1.29 1.67 1.64 11614
0.00 0.00 1.72 -9.75 13.84 -1.17 1.72 1.56 11621
0.00 0.00 1.49 -9.75 14.04 -1.11 1.80 1.48 11628
0.00 0.00 1.07 -9.85 13.94 -1.10 1.79 1.41 11635
-0.00 0.00 0.47 -10.06 13.72 -1.10 1.74 1.33 11642
0.00 0.00 -0.03 -10.29 13.27 -1.10 1.63 1.26 11650
0.00 0.00 -1.16 -11.49 13.21 -1.04 1.41 1.17 11657
0.00 0.00 -6.26 -15.11 15.10 -0.79 0.66 1.07 11664
0.00 0.00 -1.51 -8.74 6.33 -0.57 0.27 1.02 11671
0.00 0.00 -1.45 -9.08 5.22 -0.68 0.51 0.96 11678
0.00 0.00 -2.85 -13.83 9.43 -0.53 0.73 1.03 11685
0.00 0.00 -7.14 -15.51 11.00 -0.16 0.63 1.09 11693
0.00 0.00 -2.06 -9.85 5.70 -0.08 0.96 1.08 11700
0.00 0.00 -6.82 -16.12 11.20 -0.08 1.06 1.03 11707
0.00 0.00 -5.93 -14.40 9.13 0.07 0.57 0.98 11714
0.00 0.00 -4.45 -12.81 7.16 -0.07 0.47 0.82 11721
0.00 0.00 -8.50 -20.08 11.39 -0.11 0.03 0.67 11728
0.00 0.00 -4.86 -14.81 7.20 0.03 -0.53 0.55 11736
0.00 0.00 -4.69 -14.29 5.54 -0.14 -0.69 0.40 11743
0.00 0.00 -7.65 -16.51 6.75 -0.15 -1.10 0.27 11750
0.00 0.00 -7.96 -17.37 6.60 -0.21 -1.58 0.17 11757
0.00 0.00 -10.75 -20.52 8.30 0.06 -2.37 0.13 11764
-0.00 0.02 -8.39 -25.61 5.30 0.54 -2.84 0.30 11771
-0.00 0.02 -6.44 -20.68 1.62 1.26 -2.01 1.07 11779
-0.00 0.03 -3.01 1.50 8.20 1.92 -1.19 1.60 11786
-0.01 0.12 -13.67 -6.84 18.37 2.49 -1.04 1.26 11794
-0.02 0.23 -2.17 1.41 18.02 0.41 -1.25 0.33 11800
-0.02 0.26 -0.83 0.21 9.13 -0.27 -0.04 0.08 11807
-0.01 0.31 -2.77 -0.96 10.84 -0.25 -0.21 -0.31 11815
-0.03 0.36 0.77 -2.65 10.07 -0.10 -0.09 -0.23 11823
-0.03 0.38 0.84 -1.19 10.36 -0.05 0.00 -0.01 11829
-0.04 0.38 -0.23 -1.03 10.26 -0.02 0.03 -0.00 11836
-0.03 0.41 -0.04 -0.69 9.77 -0.00 0.05 -0.04 11843
-0.01 0.37 0.42 -0.74 9.77 0.00 0.06 -0.03 11850
0.02 0.33 0.48 -0.94 9.64 0.00 0.07 -0.03 11857
0.00 0.35 0.24 -0.80 9.70 -0.01 0.06 -0.03 11865
0.01 0.32 0.32 -0.86 9.73 -0.02 0.06 -0.03 11872
-0.01 0.35 0.50 -0.97 9.79 -0.03 0.05 -0.03 11879
0.00 0.36 0.46 -0.87 9.75 -0.03 0.03 -0.04 11886
0.01 0.37 0.28 -0.91 9.74 -0.04 0.02 -0.05 11893
0.01 0.43 0.23 -0.85 9.70 -0.05 0.01 -0.06 11900
0.00 0.40 0.28 -0.84 9.79 -0.06 0.00 -0.07 11908
0.00 0.44 0.29 -0.82 9.75 -0.06 0.01 -0.06 11915
0.00 0.47 0.21 -0.77 9.65 -0.06 0.01 -0.07 11922
0.01 0.50 0.25 -0.79 9.83 -0.05 0.01 -0.07 11929
0.02 0.49 0.23 -0.81 9.82 -0.05 0.02 -0.07 11936
0.01 0.48 2.69 -1.04 12.05 -0.04 0.03 -0.08 11943
0.01 0.51 0.19 -0.78 9.88 -0.03 0.04 -0.07 11951
0.01 0.48 0.23 -0.78 9.78 -0.03 0.04 -0.07 11958
0.01 0.51 0.21 -0.77 9.81 -0.02 0.04 -0.04 11965
0.02 0.49 0.31 -0.80 9.82 -0.01 0.03 -0.06 11972
0.02 0.48 0.30 -0.78 9.82 -0.01 0.03 -0.07 11979
0.03 0.49 0.33 -0.82 10.39 -0.01 0.03 -0.07 11986
0.02 0.48 0.32 -0.83 9.74 0.00 0.02 -0.07 11994
0.02 0.45 0.34 -0.81 9.82 -0.00 0.02 -0.08 12001
0.02 0.46 0.36 -0.80 9.82 0.01 0.02 -0.08 12008
0.03 0.45 0.34 -0.81 9.82 0.00 0.02 -0.08 12015
0.06 0.42 0.28 -0.79 9.82 0.01 0.02 -0.09 12022
0.04 0.41 0.25 -0.78 9.82 0.01 0.02 -0.09 12029
0.04 0.38 0.22 -0.76 9.82 0.01 0.03 -0.09 12037
0.04 0.34 0.23 -0.80 9.83 0.01 0.03 -0.08 12044
0.06 0.32 0.18 -0.85 9.81 0.02 0.03 -0.08 12051
0.09 0.28 0.17 -0.81 9.81 0.02 0.03 -0.07 12058
0.11 0.26 0.23 -0.83 9.83 0.02 0.04 -0.07 12065
0.11 0.23 0.29 -0.79 9.81 0.02 0.04 -0.07 12072
0.12 0.20 0.31 -0.86 9.79 0.02 0.04 -0.07 12080
0.13 0.15 0.29 -0.85 9.79 0.02 0.04 -0.08 12087
0.15 0.17 0.29 -0.86 9.80 0.02 0.04 -0.08 12094
0.15 0.16 0.27 -0.86 9.80 0.02 0.04 -0.07 12101
0.18 0.13 0.28 -0.86 9.79 0.02 0.04 -0.08 12108
0.20 0.13 0.28 -0.85 9.20 0.02 0.04 -0.09 12115
0.20 0.09 0.27 -0.87 9.81 0.02 0.04 -0.08 12123
0.23 0.10 0.23 -0.82 9.76 0.03 0.03 -0.09 12130
0.25 0.07 0.24 -0.87 9.79 0.03 0.04 -0.08 12137
0.28 0.08 0.27 -0.86 9.80 0.02 0.03 -0.08 12144
0.31 0.07 0.30 -0.84 9.78 0.03 0.04 -0.08 12151
0.31 0.06 0.24 -0.88 9.81 0.03 0.03 -0.08 12158
0.32 0.05 0.28 -0.84 9.81 0.03 0.04 -0.08 12166
0.35 0.00 0.29 -0.86 9.82 0.03 0.04 -0.09 12173
0.39 0.00 0.25 -0.89 9.80 0.03 0.03 -0.08 12180
0.43 -0.01 0.28 -0.86 9.83 0.04 0.03 -0.08 12187
0.48 -0.02 0.26 -0.86 9.82 0.04 0.03 -0.09 12194
0.54 -0.03 0.23 -0.87 9.81 0.05 0.03 -0.09 12201
0.54 -0.02 0.26 -0.92 9.82 0.05 0.03 -0.09 12209
0.56 -0.02 0.25 -0.90 9.83 0.06 0.03 -0.09 12216
0.60 -0.01 0.27 -0.94 9.82 0.07 0.02 -0.09 12223
0.64 -0.02 0.30 -0.96 9.82 0.08 0.02 -0.09 12230
0.68 -0.02 0.28 -0.93 9.84 0.09 0.02 -0.10 12237
0.68 -0.03 0.34 -0.98 9.88 0.11 0.02 -0.10 12244
0.75 -0.03 0.29 -1.05 9.86 0.14 0.02 -0.11 12252
0.78 -0.03 0.30 -1.00 9.94 0.16 0.02 -0.12 12259
0.81 -0.03 0.30 -1.04 9.92 0.19 0.02 -0.13 12266
0.85 -0.03 0.35 -1.04 9.95 0.23 0.02 -0.14 12273
0.86 -0.04 0.41 -1.07 9.95 0.28 0.01 -0.14 12280
0.92 -0.04 0.39 -1.09 10.08 0.35 0.01 -0.15 12288
0.91 -0.03 0.45 -1.21 10.30 0.43 0.01 -0.16 12296
0.94 -0.03 0.33 -1.15 10.31 0.54 -0.00 -0.17 12303
1.02 -0.04 0.24 -1.09 10.44 0.65 -0.00 -0.18 12309
1.05 -0.05 0.24 -1.17 10.60 0.77 -0.01 -0.18 12316
1.11 -0.04 0.24 -1.25 10.71 0.85 -0.01 -0.18 12324
1.16 -0.05 0.17 -1.43 10.43 0.91 -0.04 -0.16 12332
1.20 -0.04 0.14 -1.42 10.43 0.95 -0.06 -0.16 12339
1.21 -0.04 0.18 -1.57 10.57 0.98 -0.09 -0.15 12346
1.27 -0.05 0.20 -1.53 10.74 1.04 -0.10 -0.14 12353
1.28 -0.05 0.16 -1.74 10.93 1.12 -0.11 -0.15 12360
1.33 -0.05 0.17 -1.76 11.04 1.22 -0.11 -0.14 12367
1.34 -0.05 0.12 -1.83 10.95 1.30 -0.11 -0.13 12375
1.36 -0.04 0.06 -1.96 10.74 1.40 -0.11 -0.12 12382
1.37 -0.04 0.26 -2.05 10.77 1.48 -0.12 -0.11 12389
1.39 -0.06 0.04 -2.14 11.01 1.59 -0.13 -0.11 12396
1.40 -0.05 0.23 -2.22 10.89 1.68 -0.13 -0.11 12403
1.41 -0.05 0.11 -2.49 10.74 1.77 -0.11 -0.12 12410
1.42 -0.05 0.24 -2.47 10.77 1.86 -0.10 -0.13 12418
1.39 -0.05 0.01 -2.82 10.83 1.97 -0.08 -0.13 12425
1.38 -0.04 -0.04 -2.75 10.95 2.09 -0.04 -0.15 12432
1.38 -0.06 0.26 -2.85 11.32 2.25 -0.01 -0.16 12439
1.35 -0.05 -0.03 -3.00 12.10 2.38 -0.03 -0.15 12446
1.28 -0.06 -0.09 -3.31 12.41 2.57 -0.13 -0.14 12453
1.20 -0.05 0.31 -3.46 12.15 2.76 -0.17 -0.14 12461
1.13 -0.05 0.23 -3.59 12.10 2.96 -0.21 -0.19 12468
1.02 -0.04 0.82 -3.96 11.80 3.18 -0.20 -0.24 12475
0.86 -0.03 0.05 -4.06 11.86 3.38 -0.18 -0.26 12482
0.74 -0.04 -0.68 -4.25 12.97 3.64 -0.11 -0.25 12489
0.56 -0.04 -0.32 -4.88 13.91 3.88 -0.05 -0.21 12496
0.42 -0.02 -0.22 -5.33 14.34 4.12 -0.09 -0.19 12504
0.30 -0.02 0.04 -6.59 16.44 4.24 -0.14 -0.20 12510
0.21 -0.02 0.04 -7.62 16.88 4.27 -0.26 -0.22 12518
0.22 -0.02 0.21 -8.74 18.09 4.28 -0.21 -0.23 12524
0.17 -0.01 0.75 -10.00 19.44 4.28 -0.10 -0.23 12532
0.19 -0.02 1.31 -10.50 18.35 4.28 0.07 -0.24 12539
0.11 -0.01 1.01 -9.66 17.45 4.26 0.25 -0.25 12546
0.09 -0.00 0.04 -8.46 17.34 4.23 0.40 -0.27 12553
0.07 -0.01 0.14 -6.84 17.18 4.18 0.30 -0.32 12560
0.03 -0.00 0.20 -5.84 17.05 4.12 0.10 -0.37 12567
0.04 -0.00 0.34 -5.10 15.78 4.02 -0.09 -0.40 12574
0.03 -0.00 1.38 -3.86 15.40 3.96 -0.21 -0.43 12581
0.05 -0.00 2.05 -3.27 16.41 3.98 -0.30 -0.47 12589
0.02 -0.00 1.66 -3.05 17.49 4.10 -0.43 -0.50 12596
0.02 -0.00 0.78 1.08 9.40 4.00 -0.37 -0.50 12603
0.02 -0.00 2.89 4.30 9.40 3.59 -0.17 -0.55 12610
0.01 -0.00 1.48 6.94 2.11 2.76 0.04 -0.64 12617
0.00 0.00 1.84 21.87 -2.51 1.75 -0.01 -0.94 12624
0.00 0.00 0.83 28.53 7.39 0.71 0.01 -1.43 12632
-0.00 0.00 4.08 10.84 16.66 -0.42 0.39 -1.89 12639
0.00 -0.00 1.19 7.86 18.19 -1.78 0.48 -2.03 12646
0.01 -0.00 -1.04 9.72 12.20 -2.55 0.91 -2.10 12653
0.00 0.00 -0.93 10.43 7.89 -2.72 1.03 -2.18 12660
0.00 0.00 -1.03 9.51 5.11 -2.97 0.82 -2.22 12667
0.00 0.00 -1.15 7.77 5.00 -3.12 0.49 -2.26 12675
0.00 0.00 -0.85 6.04 6.14 -3.16 0.27 -2.28 12682
0.00 0.00 -0.48 5.02 7.33 -3.20 0.10 -2.24 12689
0.00 0.00 0.31 4.56 9.17 -3.28 0.08 -2.16 12696
0.00 0.00 1.03 4.30 8.61 -3.46 0.11 -2.08 12703
0.00 0.00 1.70 4.04 8.93 -3.75 0.13 -1.99 12710
0.00 0.00 2.17 3.45 9.63 -4.04 0.19 -1.88 12718
0.00 -0.00 2.67 2.48 10.36 -4.23 0.34 -1.77 12725
0.00 0.00 2.99 1.10 11.04 -4.28 0.57 -1.63 12732
0.00 0.00 3.04 -0.17 11.13 -4.28 0.83 -1.50 12739
0.00 0.00 3.07 -1.88 11.04 -4.28 1.12 -1.35 12746
0.00 0.00 2.90 -3.61 10.68 -4.28 1.31 -1.21 12753
0.00 0.00 2.38 -4.92 10.72 -4.28 1.44 -1.08 12761
0.00 0.00 2.06 -6.22 11.57 -4.27 1.47 -0.91 12768
0.00 0.00 1.85 -6.81 12.57 -4.13 1.40 -0.76 12775
0.00 0.00 1.66 -7.36 13.62 -3.83 1.27 -0.58 12782
0.00 0.00 1.92 -7.34 13.90 -3.58 1.14 -0.42 12789
0.00 0.00 2.52 -6.93 13.80 -3.40 1.15 -0.31 12796
0.00 0.00 3.22 -6.89 13.89 -3.33 1.23 -0.18 12804
0.00 0.00 3.38 -7.02 14.84 -3.32 1.38 -0.06 12811
0.00 0.00 3.50 -7.52 14.98 -3.31 1.62 0.05 12818
0.00 0.00 3.28 -7.96 14.72 -3.26 1.82 0.17 12825
0.00 0.00 3.01 -8.03 14.43 -3.17 1.90 0.29 12832
0.00 0.00 2.68 -8.32 13.89 -3.03 1.90 0.44 12839
0.00 0.00 1.84 -8.33 13.48 -2.87 1.83 0.60 12847
0.00 0.00 2.23 -8.28 13.05 -2.68 1.70 0.74 12854
0.00 0.00 2.12 -8.13 12.43 -2.50 1.54 0.91 12861
0.00 0.00 2.12 -8.03 12.06 -2.27 1.43 1.05 12868
0.00 0.00 2.20 -7.96 11.84 -1.99 1.36 1.18 12875
0.00 0.00 2.02 -7.99 11.47 -1.73 1.35 1.30 12882
0.00 0.00 1.62 -8.06 11.09 -1.40 1.37 1.37 12890
0.00 0.00 1.05 -8.09 11.06 -1.05 1.38 1.44 12897
0.00 0.00 0.76 -8.19 11.88 -0.78 1.37 1.49 12904
0.00 0.00 0.86 -8.22 13.25 -0.52 1.37 1.53 12911
0.00 0.00 0.97 -7.97 15.07 -0.42 1.45 1.57 12918
0.00 0.00 0.92 -7.62 16.13 -0.48 1.57 1.61 12925
0.00 0.00 0.37 -7.63 16.39 -0.70 1.70 1.66 12933
0.00 0.00 -0.30 -8.31 15.74 -0.94 1.74 1.68 12940
0.00 0.00 -0.89 -9.02 14.91 -1.16 1.70 1.68 12947
0.00 0.00 -1.49 -9.95 13.32 -1.26 1.57 1.62 12954
0.00 0.00 -1.90 -10.76 11.44 -1.25 1.46 1.56 12961
0.00 0.00 -2.22 -11.67 10.14 -1.12 1.38 1.48 12968
0.00 0.00 -2.59 -12.44 8.73 -0.93 1.33 1.41 12976
0.00 0.00 -2.82 -12.87 8.23 -0.67 1.36 1.36 12983
0.00 0.00 -3.07 -13.39 8.20 -0.44 1.40 1.29 12990
0.00 0.00 -3.18 -13.69 8.24 -0.21 1.45 1.22 12997
0.00 0.00 -2.96 -14.04 8.59 -0.06 1.46 1.10 13004
0.00 0.00 -2.67 -14.11 8.96 -0.02 1.43 0.95 13011
0.00 -0.00 -2.12 -14.18 8.83 -0.07 1.45 0.81 13019
0.00 0.00 -1.94 -14.33 8.25 -0.17 1.53 0.63 13026
0.00 0.00 -4.21 -16.84 9.71 -0.25 1.47 0.51 13033
0.00 0.00 -10.35 -18.49 13.00 0.05 0.71 0.52 13040
0.00 0.00 -5.99 -15.05 4.35 0.09 0.13 0.52 13047
0.00 0.00 -9.07 -15.18 5.97 0.32 -0.75 0.61 13054
0.00 0.00 -7.98 -17.00 6.23 0.34 -1.47 0.71 13062
0.00 0.00 -6.71 -16.49 5.49 0.57 -2.12 0.87 13069
0.00 0.00 -6.06 -15.00 4.89 0.71 -2.89 0.97 13076
0.00 0.00 -9.04 -14.56 6.04 0.86 -3.67 1.08 13083
-0.00 0.01 -7.63 -8.96 12.53 1.27 -4.17 1.35 13090
-0.00 0.03 -3.77 4.37 11.38 2.03 -2.07 1.63 13097
-0.01 0.07 -7.10 -2.98 12.80 1.99 -1.28 1.87 13105
-0.02 0.22 -10.71 2.67 14.04 2.05 -1.45 1.55 13113
-0.02 0.28 -16.28 -6.00 35.86 1.36 -2.20 0.52 13120
-0.03 0.31 -0.63 1.32 5.58 -0.25 -0.05 -0.11 13126
-0.02 0.36 -0.63 -0.69 9.75 -0.18 -0.03 -0.23 13133
0.01 0.37 0.94 -3.27 10.27 -0.15 0.02 -0.24 13142
0.01 0.38 1.43 -2.45 10.42 -0.12 0.04 -0.00 13148
0.01 0.43 -0.49 -0.54 10.43 -0.08 0.08 0.03 13155
0.03 0.41 -0.21 -0.72 9.73 -0.03 0.16 -0.01 13162
0.02 0.41 0.41 -0.90 9.86 -0.04 0.17 0.01 13169
0.03 0.45 0.40 -0.89 9.78 -0.03 0.17 0.02 13176
0.04 0.48 0.39 -0.86 9.85 -0.03 0.17 0.02 13184
0.03 0.48 0.55 -0.83 9.83 -0.03 0.16 0.01 13191
0.03 0.46 0.51 -0.89 9.81 -0.03 0.14 -0.01 13198
0.03 0.43 0.45 -0.89 9.79 -0.04 0.12 -0.01 13205
0.01 0.45 0.49 -0.80 9.76 -0.04 0.11 -0.02 13212
0.02 0.47 0.45 -0.79 9.80 -0.04 0.09 -0.03 13219
0.03 0.49 0.46 -0.80 9.66 -0.04 0.08 -0.03 13227
0.01 0.51 0.50 -0.75 9.77 -0.04 0.07 -0.04 13234
0.01 0.56 0.26 -0.84 7.22 -0.03 0.06 -0.04 13241
0.00 0.55 0.43 -0.79 9.72 -0.03 0.06 -0.04 13248
0.00 0.54 0.36 -0.72 9.84 -0.03 0.06 -0.04 13255
0.01 0.57 0.34 -0.76 9.77 -0.02 0.07 -0.04 13262
0.02 0.54 0.40 -0.71 9.81 -0.01 0.07 -0.05 13270
0.03 0.54 0.40 -0.76 9.81 -0.01 0.08 -0.04 13277
0.02 0.53 0.39 -0.74 9.79 0.00 0.08 -0.04 13284
0.00 0.53 0.44 -0.79 9.78 0.00 0.08 -0.04 13291
0.02 0.53 0.43 -0.78 9.81 0.01 0.07 -0.04 13298
0.02 0.50 0.42 -0.78 9.82 0.00 0.06 -0.04 13305
0.03 0.47 0.47 -0.79 9.81 0.01 0.06 -0.05 13313
0.03 0.43 0.42 -0.78 9.78 0.01 0.05 -0.05 13320
0.03 0.42 0.42 -0.76 9.80 0.01 0.05 -0.06 13327
0.03 0.40 0.40 -0.80 9.78 0.01 0.04 -0.06 13334
0.04 0.37 0.41 -0.75 9.78 0.01 0.05 -0.05 13341
0.04 0.35 0.41 -0.76 9.82 0.01 0.05 -0.05 13348
0.04 0.33 0.39 -0.79 9.81 0.02 0.06 -0.05 13356
0.04 0.33 0.39 -0.79 9.80 0.02 0.07 -0.05 13363
0.04 0.28 0.40 -0.77 9.81 0.02 0.07 -0.05 13370
0.03 0.28 0.42 -0.79 9.81 0.02 0.08 -0.05 13377
0.05 0.26 0.45 -0.77 9.77 0.02 0.08 -0.05 13384
0.07 0.24 0.46 -0.76 9.79 0.02 0.08 -0.05 13391
0.07 0.24 0.46 -0.78 9.81 0.02 0.08 -0.06 13399
0.07 0.26 0.44 -0.81 9.82 0.02 0.08 -0.06 13406
0.06 0.18 0.46 -0.78 9.80 0.02 0.08 -0.06 13413
0.08 0.15 0.46 -0.80 9.77 0.02 0.08 -0.05 13420
0.09 0.20 0.45 -0.79 9.76 0.02 0.08 -0.06 13427
0.09 0.14 0.49 -0.81 9.82 0.02 0.08 -0.06 13434
0.10 0.11 0.43 -0.87 9.81 0.02 0.08 -0.05 13442
0.10 0.10 0.46 -0.81 9.72 0.02 0.07 -0.06 13449
0.11 0.11 0.45 -0.81 9.77 0.02 0.08 -0.05 13456
0.08 0.11 0.49 -0.85 9.79 0.02 0.08 -0.06 13463
0.11 0.10 0.46 -0.82 9.79 0.02 0.07 -0.06 13470
0.15 0.08 0.48 -0.81 9.81 0.02 0.07 -0.06 13477
0.14 0.07 0.47 -0.85 9.81 0.02 0.07 -0.05 13485
0.13 0.05 0.50 -0.85 9.81 0.02 0.08 -0.06 13492
0.13 0.02 0.51 -0.82 9.81 0.02 0.07 -0.06 13499
0.12 0.02 0.51 -0.87 9.81 0.02 0.07 -0.06 13506
0.14 0.01 0.50 -0.85 9.81 0.02 0.08 -0.06 13513
0.15 -0.02 0.53 -0.86 9.81 0.02 0.08 -0.06 13520
0.14 -0.01 0.53 -0.87 9.82 0.02 0.08 -0.06 13528
0.16 -0.01 0.48 -0.87 9.81 0.02 0.07 -0.06 13535
0.19 -0.02 0.50 -0.86 9.82 0.03 0.07 -0.06 13542
0.21 -0.01 0.49 -0.82 9.80 0.03 0.06 -0.06 13549
0.22 -0.01 0.52 -0.94 9.81 0.03 0.06 -0.06 13556
0.22 -0.02 0.56 -0.92 9.84 0.04 0.05 -0.07 13563
0.23 -0.01 0.61 -0.87 9.80 0.04 0.04 -0.07 13571
0.23 -0.02 0.59 -0.89 9.82 0.06 0.04 -0.08 13578
0.26 -0.00 0.63 -0.88 9.81 0.07 0.03 -0.09 13585
0.30 0.01 0.57 -0.87 9.84 0.08 0.02 -0.10 13592
0.32 -0.01 0.61 -0.88 9.80 0.10 0.03 -0.11 13599
0.35 -0.02 0.51 -0.96 9.89 0.12 0.03 -0.11 13606
0.36 -0.03 0.64 -1.06 9.82 0.15 0.05 -0.13 13614
0.39 -0.02 0.59 -0.89 9.97 0.18 0.07 -0.14 13621
0.41 -0.02 0.62 -1.08 9.99 0.23 0.09 -0.16 13628
0.50 -0.02 0.69 -1.17 9.99 0.31 0.13 -0.18 13635
0.57 -0.03 0.21 -1.01 10.30 0.40 0.16 -0.19 13642
0.59 -0.03 0.67 -1.17 10.31 0.55 0.18 -0.20 13650
0.61 -0.04 0.60 -1.14 10.47 0.73 0.17 -0.21 13658
0.67 -0.03 0.45 -1.16 10.72 0.94 0.14 -0.21 13665
0.76 -0.03 0.54 -1.20 10.62 1.13 0.13 -0.20 13672
0.80 -0.03 0.52 -1.44 11.29 1.21 0.11 -0.19 13679
0.87 -0.03 0.68 -1.38 11.14 1.29 0.09 -0.18 13686
0.89 -0.04 0.24 -1.39 11.22 1.35 0.07 -0.18 13693
0.95 -0.05 0.80 -1.25 10.63 1.43 0.06 -0.16 13701
0.98 -0.04 0.34 -1.66 10.95 1.52 0.05 -0.15 13708
1.02 -0.04 0.13 -1.67 11.36 1.62 0.07 -0.14 13715
1.03 -0.04 0.47 -1.93 10.75 1.74 0.09 -0.13 13722
1.06 -0.04 0.72 -2.19 11.31 1.85 0.09 -0.12 13729
1.05 -0.05 0.68 -2.06 11.65 1.98 0.10 -0.13 13736
1.04 -0.05 0.86 -2.40 11.88 2.14 0.08 -0.12 13744
1.01 -0.05 0.84 -2.55 12.09 2.30 0.07 -0.14 13751
0.98 -0.03 0.65 -2.36 11.32 2.46 0.06 -0.16 13758
0.97 -0.03 0.74 -2.70 11.67 2.63 0.09 -0.17 13765
0.91 -0.04 -0.55 -2.86 11.85 2.78 0.13 -0.14 13772
0.86 -0.04 0.18 -3.19 12.28 2.97 0.17 -0.12 13779
0.75 -0.04 1.28 -3.51 11.12 3.19 0.18 -0.10 13787
0.69 -0.03 1.25 -3.17 12.60 3.38 0.22 -0.11 13794
0.55 -0.02 0.80 -4.08 12.71 3.64 0.26 -0.12 13801
0.42 -0.02 0.80 -4.39 13.13 3.83 0.28 -0.13 13808
0.29 -0.02 0.74 -5.00 13.56 4.05 0.31 -0.13 13814
0.16 -0.02 0.74 -5.99 14.77 4.16 0.34 -0.12 13821
0.15 -0.01 0.94 -6.90 15.54 4.23 0.35 -0.11 13829
0.13 -0.01 1.13 -7.69 16.15 4.25 0.40 -0.09 13836
0.12 -0.01 1.21 -8.45 17.15 4.26 0.41 -0.07 13843
0.11 -0.01 1.41 -8.50 17.15 4.25 0.50 -0.06 13850
0.07 -0.01 1.17 -8.20 16.38 4.23 0.56 -0.07 13857
0.07 -0.01 1.15 -7.83 15.92 4.21 0.58 -0.08 13864
0.05 -0.01 1.77 -8.00 15.81 4.20 0.64 -0.08 13872
0.06 -0.01 2.08 -7.39 16.07 4.18 0.70 -0.11 13879
0.04 -0.00 2.35 -7.07 17.05 4.10 0.75 -0.16 13886
0.04 -0.00 2.18 -6.50 16.48 3.96 0.74 -0.21 13893
0.01 -0.00 1.83 -5.26 16.11 3.85 0.67 -0.30 13900
0.01 -0.00 1.55 -4.37 16.39 3.78 0.58 -0.36 13907
0.01 -0.00 0.87 -3.22 17.82 3.76 0.38 -0.44 13915
0.01 -0.00 -0.94 2.70 10.53 3.59 0.30 -0.44 13922
0.01 -0.00 1.48 4.68 10.28 3.02 0.38 -0.44 13929
0.01 -0.00 0.90 8.76 4.24 2.37 0.52 -0.63 13936
0.00 0.00 -0.94 18.58 -1.04 1.36 0.23 -1.13 13943
0.00 0.00 0.79 13.76 8.68 0.47 -0.17 -2.12 13950
0.00 0.00 1.38 7.52 15.79 -0.74 -0.45 -2.52 13958
0.00 0.00 -0.98 5.11 14.06 -1.64 -0.39 -2.85 13965
0.00 -0.00 -1.65 5.30 10.55 -1.89 -0.03 -3.21 13972
0.00 0.00 -1.47 5.23 8.26 -1.95 0.09 -3.47 13979
0.00 0.00 -1.71 4.98 6.32 -2.00 -0.04 -3.75 13986
0.00 0.00 -1.49 4.52 5.48 -2.00 -0.22 -3.99 13993
0.00 0.00 -0.75 3.97 5.54 -1.97 -0.42 -4.15 14001
0.00 0.00 -0.27 3.61 6.05 -1.96 -0.52 -4.22 14008
0.00 -0.00 0.18 3.65 6.48 -1.99 -0.51 -4.18 14015
0.00 0.00 1.16 3.79 7.26 -2.10 -0.41 -4.08 14022
0.00 0.00 1.70 4.06 7.57 -2.23 -0.29 -3.91 14029
0.00 0.00 2.17 4.36 8.13 -2.44 -0.16 -3.72 14036
0.00 0.00 2.62 4.29 8.94 -2.67 0.04 -3.46 14044
0.00 -0.00 3.05 3.96 9.76 -2.96 0.24 -3.19 14051
0.01 -0.00 3.57 3.46 10.16 -3.28 0.53 -2.83 14058
0.00 0.00 3.68 2.65 10.36 -3.55 0.78 -2.45 14065
0.00 0.00 3.60 1.62 10.39 -3.84 0.99 -2.12 14072
0.00 0.00 3.57 0.25 10.36 -4.05 1.11 -1.73 14080
0.00 0.00 3.55 -0.76 10.74 -4.17 1.12 -1.42 14087
0.00 0.00 3.42 -1.81 10.84 -4.21 1.09 -1.05 14094
0.00 -0.00 3.59 -2.96 11.02 -4.21 1.06 -0.69 14101
0.00 0.00 4.07 -3.81 11.18 -4.16 1.03 -0.41 14108
0.00 0.00 4.85 -4.58 11.68 -4.07 1.07 -0.14 14115
0.00 0.00 5.42 -5.10 12.29 -3.90 1.21 0.08 14123
0.00 0.00 5.77 -5.76 12.86 -3.75 1.52 0.21 14130
0.00 -0.00 5.76 -6.65 13.66 -3.67 1.96 0.33 14137
0.00 0.00 5.37 -7.46 15.11 -3.61 2.36 0.43 14144
0.00 0.00 4.31 -8.27 15.44 -3.60 2.77 0.56 14151
0.00 0.00 3.37 -8.79 15.76 -3.57 3.01 0.74 14158
0.00 0.00 2.21 -9.49 16.02 -3.50 3.04 0.94 14166
0.00 0.00 1.12 -9.92 16.57 -3.39 2.83 1.21 14173
0.00 0.00 0.60 -10.44 16.39 -3.20 2.52 1.48 14180
0.00 0.00 0.94 -10.41 15.59 -2.99 2.05 1.78 14187
0.00 0.00 1.74 -9.81 14.65 -2.84 1.67 1.99 14194
0.00 0.00 2.46 -9.96 14.34 -2.67 1.41 2.11 14201
0.00 0.00 3.07 -10.43 14.10 -2.52 1.37 2.19 14209
0.00 0.00 3.14 -10.57 13.70 -2.29 1.47 2.22 14216
0.00 0.00 2.83 -10.68 13.17 -2.03 1.67 2.19 14223
0.00 0.00 2.38 -10.89 12.68 -1.79 1.87 2.12 14230
0.00 0.00 1.71 -11.15 12.51 -1.49 2.00 2.03 14237
0.00 0.00 1.24 -11.60 12.50 -1.17 2.14 1.91 14244
0.00 0.00 0.87 -11.86 12.78 -0.97 2.25 1.79 14252
0.00 0.00 0.40 -12.31 13.37 -0.74 2.33 1.66 14259
0.00 0.00 -0.02 -12.78 14.42 -0.61 2.33 1.52 14266
0.00 0.00 -0.42 -13.05 14.84 -0.59 2.28 1.40 14273
0.00 0.00 -0.80 -13.38 14.61 -0.69 2.19 1.28 14280
0.00 0.00 -1.23 -13.60 13.68 -0.80 2.04 1.15 14287
0.00 0.00 -1.40 -13.90 12.35 -0.90 1.82 1.00 14295
0.00 0.00 -1.08 -14.20 10.30 -0.90 1.59 0.81 14302
0.00 0.00 -1.08 -14.15 8.09 -0.77 1.48 0.65 14309
0.00 0.00 -1.59 -13.82 6.95 -0.52 1.62 0.55 14316
0.00 0.00 -1.83 -14.18 6.05 -0.26 1.99 0.59 14323
0.00 0.00 -2.27 -14.48 6.47 0.03 2.49 0.69 14330
0.00 0.00 -2.93 -15.27 7.92 0.20 2.75 0.75 14338
0.00 -0.00 -4.11 -15.56 9.03 0.29 2.71 0.73 14345
0.00 0.00 -5.99 -16.04 8.93 0.25 2.41 0.72 14352
0.00 0.00 -14.32 -19.48 11.35 0.32 1.36 0.85 14359
0.00 0.00 -14.20 -17.46 5.20 0.46 0.10 1.05 14366
0.00 0.00 -12.44 -15.90 4.27 0.47 -1.31 1.19 14373
0.00 0.00 -13.21 -18.83 6.24 0.47 -2.34 1.30 14381
0.00 0.00 -11.89 -20.63 4.19 0.68 -3.42 1.38 14388
0.00 0.00 -11.47 -19.10 4.09 0.88 -4.25 1.41 14395
0.00 0.00 -9.01 -11.90 5.77 0.98 -4.28 1.48 14402
-0.00 0.02 1.76 7.30 21.07 1.40 -4.28 1.40 14409
-0.01 0.08 -10.32 -0.16 18.61 1.93 -2.13 1.60 14417
-0.02 0.27 -6.55 8.98 6.28 1.11 -1.57 1.35 14424
-0.01 0.35 -13.20 -3.25 31.89 1.69 -2.01 0.45 14432
-0.03 0.39 -4.65 -1.85 12.64 0.23 -1.28 -0.30 14439
-0.03 0.40 -1.40 -2.85 11.35 -0.09 -0.14 -0.26 14446
-0.05 0.50 0.19 -1.54 10.04 -0.16 -0.05 -0.24 14452
-0.04 0.56 1.56 -2.38 10.38 -0.10 -0.03 -0.08 14460
-0.03 0.57 0.45 -0.91 10.16 -0.03 0.03 0.07 14467
-0.03 0.54 -0.19 -0.51 10.11 0.00 0.06 0.02 14474
-0.03 0.54 0.13 -0.71 9.76 -0.00 0.10 -0.01 14481
-0.03 0.46 0.75 -0.89 9.80 -0.00 0.11 0.02 14488
-0.05 0.50 0.53 -0.87 9.82 0.00 0.11 0.02 14495
-0.03 0.48 0.36 -0.74 9.80 -0.00 0.10 0.02 14502
-0.02 0.47 0.51 -0.75 9.78 -0.01 0.10 0.01 14510
-0.03 0.46 0.62 -0.81 9.74 -0.01 0.09 -0.00 14517
-0.03 0.45 0.52 -0.65 9.71 -0.02 0.07 -0.01 14524
-0.03 0.47 0.56 -0.69 9.76 -0.02 0.06 -0.02 14531
-0.04 0.49 0.50 -0.72 9.72 -0.02 0.04 -0.03 14538
-0.02 0.54 0.55 -0.79 9.73 -0.03 0.02 -0.04 14545
0.01 0.52 0.49 -0.77 9.78 -0.03 0.01 -0.04 14553
0.01 0.50 0.39 -0.68 9.19 -0.07 0.02 -0.04 14560
-0.00 0.51 0.44 -0.70 9.80 -0.03 0.02 -0.05 14567
-0.00 0.52 0.41 -0.68 9.81 -0.02 0.02 -0.05 14574
-0.00 0.54 0.41 -0.71 9.82 -0.02 0.02 -0.04 14581
-0.00 0.52 0.44 -0.69 10.39 -0.01 0.02 -0.04 14588
0.01 0.53 0.42 -0.72 9.81 -0.00 0.02 -0.04 14596
-0.00 0.51 0.46 -0.73 9.90 -0.00 0.02 -0.04 14603
0.00 0.49 0.52 -0.73 9.78 0.00 0.02 -0.05 14610
0.01 0.48 0.51 -0.72 9.81 -0.00 0.01 -0.05 14617
0.00 0.49 0.49 -0.70 9.81 0.00 0.00 -0.05 14624
0.01 0.50 0.46 -0.69 9.77 -0.00 -0.01 -0.06 14631
0.03 0.47 0.50 -0.68 9.76 -0.00 -0.02 -0.06 14639
0.03 0.46 0.47 -0.72 9.79 0.00 -0.01 -0.07 14646
0.01 0.44 0.40 -0.69 9.81 0.01 -0.00 -0.06 14653
0.01 0.43 0.39 -0.71 9.81 0.01 0.00 -0.06 14660
0.03 0.44 0.39 -0.72 9.83 0.02 0.01 -0.06 14667
0.03 0.45 0.39 -0.73 9.82 0.02 0.02 -0.06 14674
0.05 0.37 0.39 -0.75 9.21 0.02 0.02 -0.06 14682
0.03 0.32 0.43 -0.76 9.82 0.02 0.03 -0.06 14689
0.02 0.27 0.42 -0.74 9.81 0.02 0.03 -0.06 14696
0.02 0.28 0.43 -0.74 9.81 0.02 0.04 -0.06 14703
0.02 0.28 0.46 -0.71 9.80 0.01 0.04 -0.06 14710
0.03 0.25 0.42 -0.73 10.36 0.02 0.03 -0.07 14717
0.03 0.23 0.44 -0.78 9.82 0.01 0.03 -0.07 14725
0.04 0.23 0.47 -0.73 9.82 0.02 0.03 -0.07 14732
0.05 0.20 0.43 -0.92 9.80 0.02 0.03 -0.07 14739
0.04 0.22 0.43 -0.77 9.79 0.02 0.02 -0.07 14746
0.06 0.16 0.41 -0.77 9.78 0.02 0.02 -0.07 14753
0.10 0.12 0.43 -0.74 9.80 0.02 0.02 -0.08 14760
0.12 0.13 0.44 -0.78 9.75 0.02 0.02 -0.08 14768
0.11 0.06 0.40 -0.77 9.80 0.02 0.01 -0.08 14775
0.10 0.06 0.42 -0.76 9.82 0.02 0.01 -0.08 14782
0.11 0.06 0.37 -0.76 9.81 0.02 0.01 -0.08 14789
0.13 0.07 0.42 -0.74 9.82 0.02 0.01 -0.08 14796
0.17 0.06 0.35 -0.82 9.81 0.02 0.01 -0.08 14803
0.17 0.04 0.41 -0.78 9.81 0.02 0.02 -0.09 14811
0.20 0.06 0.41 -0.80 9.79 0.02 0.02 -0.09 14818
0.23 0.01 0.41 -0.80 9.82 0.03 0.02 -0.09 14825
0.27 -0.00 0.39 -0.78 9.82 0.03 0.02 -0.09 14832
0.32 -0.00 0.37 -0.80 9.83 0.03 0.03 -0.09 14839
0.35 -0.00 0.44 -0.82 9.82 0.03 0.03 -0.09 14846
0.38 -0.01 0.37 -0.83 9.82 0.04 0.03 -0.09 14854
0.36 -0.02 0.41 -0.86 9.84 0.05 0.03 -0.09 14861
0.33 -0.01 0.42 -0.86 9.82 0.06 0.03 -0.09 14868
0.37 -0.01 0.42 -0.84 9.83 0.07 0.03 -0.10 14875
0.42 -0.00 0.43 -0.88 9.84 0.08 0.03 -0.10 14882
0.44 -0.02 0.43 -0.85 9.83 0.10 0.04 -0.11 14889
0.49 -0.02 0.41 -0.89 9.85 0.12 0.04 -0.12 14897
0.55 -0.03 0.45 -0.86 9.88 0.15 0.04 -0.13 14904
0.60 -0.02 0.53 -0.91 9.89 0.18 0.05 -0.14 14911
0.64 -0.01 0.45 -0.96 9.87 0.22 0.05 -0.15 14918
0.69 -0.03 0.45 -0.96 9.93 0.26 0.05 -0.16 14925
0.72 -0.03 0.46 -0.97 10.04 0.31 0.05 -0.17 14934
0.76 -0.04 0.55 -1.04 10.11 0.38 0.04 -0.18 14940
0.84 -0.04 0.65 -0.99 10.26 0.49 0.04 -0.20 14947
0.88 -0.03 0.72 -1.10 10.34 0.61 0.04 -0.21 14955
0.95 -0.03 0.43 -1.15 10.77 0.80 0.04 -0.22 14961
1.00 -0.04 0.53 -1.20 10.72 0.94 0.01 -0.23 14968
1.03 -0.04 0.51 -1.37 10.65 1.05 -0.04 -0.24 14977
1.10 -0.04 0.39 -1.35 11.15 1.10 -0.11 -0.23 14984
1.11 -0.04 0.52 -1.51 10.62 1.16 -0.15 -0.22 14991
1.15 -0.05 0.30 -1.52 11.02 1.24 -0.17 -0.21 14998
1.21 -0.03 0.49 -1.59 10.81 1.30 -0.19 -0.20 15005
1.27 -0.05 0.28 -1.65 11.24 1.41 -0.20 -0.19 15012
1.29 -0.05 0.28 -1.82 11.37 1.54 -0.19 -0.18 15020
1.30 -0.05 0.25 -1.85 11.27 1.64 -0.19 -0.18 15027
1.32 -0.05 0.27 -1.96 11.05 1.78 -0.20 -0.18 15034
1.33 -0.04 0.20 -2.08 11.38 1.88 -0.21 -0.18 15041
1.35 -0.04 0.07 -2.22 11.37 2.01 -0.21 -0.19 15048
1.36 -0.04 0.37 -2.50 11.43 2.13 -0.22 -0.19 15055
1.35 -0.05 0.24 -2.41 11.28 2.25 -0.27 -0.18 15063
1.35 -0.06 0.09 -2.73 12.11 2.41 -0.26 -0.17 15070
1.30 -0.05 0.16 -3.08 12.26 2.60 -0.28 -0.15 15077
1.28 -0.05 0.56 -2.98 12.03 2.77 -0.27 -0.18 15084
1.19 -0.04 0.43 -3.59 11.64 2.98 -0.24 -0.22 15091
1.11 -0.04 0.49 -3.55 12.37 3.17 -0.17 -0.24 15098
1.02 -0.05 -0.03 -3.40 12.17 3.42 -0.14 -0.26 15106
0.87 -0.04 0.19 -3.84 12.84 3.70 -0.02 -0.25 15113
0.68 -0.03 -0.34 -3.74 12.95 3.98 0.10 -0.22 15120
0.54 -0.03 -0.21 -4.95 14.37 4.21 0.18 -0.20 15127
0.38 -0.02 -0.15 -5.66 15.69 4.28 0.16 -0.16 15134
0.28 -0.02 -0.11 -6.91 16.06 4.28 0.12 -0.14 15141
0.21 -0.02 -0.26 -8.06 16.23 4.28 0.15 -0.09 15149
0.19 -0.02 0.40 -9.42 16.81 4.28 0.19 -0.04 15155
0.14 -0.01 -0.25 -10.13 20.06 4.28 0.30 -0.01 15162
0.12 -0.00 0.02 -10.00 18.96 4.28 0.42 0.02 15170
0.09 -0.01 -0.14 -9.20 17.19 4.28 0.43 0.02 15176
0.06 -0.01 -0.37 -8.29 17.32 4.27 0.36 -0.00 15183
0.06 -0.01 -0.60 -7.40 18.34 4.24 0.20 -0.05 15191
0.02 -0.00 0.34 -6.86 18.17 4.14 0.05 -0.08 15198
0.03 -0.00 1.82 -5.51 16.81 4.01 -0.05 -0.11 15205
0.01 -0.00 3.08 -3.08 15.35 3.92 -0.03 -0.15 15212
0.02 -0.00 3.00 -2.14 15.48 3.84 0.09 -0.19 15219
0.01 -0.00 2.48 -0.80 16.54 3.91 0.23 -0.23 15226
0.01 -0.00 1.49 4.26 8.09 3.95 0.40 -0.28 15234
0.00 0.00 2.36 6.99 6.88 3.47 0.70 -0.39 15241
0.00 0.00 0.92 10.50 3.56 2.83 0.87 -0.76 15248
0.00 0.00 -1.84 18.37 -2.72 1.83 0.64 -1.45 15255
0.00 0.00 0.01 12.66 8.99 0.89 0.37 -2.09 15262
0.00 0.00 1.36 7.12 15.97 -0.30 0.36 -2.30 15269
0.00 0.00 0.43 5.75 14.84 -1.33 0.47 -2.50 15277
0.00 0.00 -0.27 6.58 10.97 -1.80 0.59 -2.67 15284
0.00 0.00 -0.23 7.18 8.20 -2.18 0.53 -2.75 15291
0.00 0.00 0.06 6.76 6.33 -2.49 0.39 -2.78 15298
0.00 -0.00 0.52 5.88 5.79 -2.77 0.28 -2.77 15305
0.00 0.00 0.97 4.61 6.09 -2.94 0.17 -2.73 15312
0.00 0.00 1.17 3.63 6.25 -3.04 0.12 -2.64 15320
0.00 0.00 1.49 3.27 6.11 -3.12 0.09 -2.50 15327
0.00 0.00 1.57 3.11 6.25 -3.18 0.04 -2.31 15334
0.00 0.00 2.00 3.12 6.39 -3.26 -0.01 -2.09 15341
0.00 0.00 2.58 3.15 6.61 -3.37 -0.04 -1.89 15348
0.00 0.00 2.94 2.82 7.14 -3.48 0.02 -1.65 15355
0.00 0.00 3.37 2.29 7.95 -3.63 0.10 -1.42 15363
0.00 0.00 3.96 1.65 8.93 -3.78 0.27 -1.15 15370
0.00 0.00 4.22 1.14 9.56 -3.98 0.44 -0.90 15377
0.00 -0.00 4.01 0.45 9.74 -4.16 0.62 -0.69 15384
0.00 0.00 3.68 -0.52 9.90 -4.25 0.79 -0.47 15391
0.00 0.00 3.43 -1.43 10.08 -4.28 0.87 -0.30 15398
0.00 0.00 3.33 -2.53 10.21 -4.28 0.93 -0.12 15406
0.00 0.00 3.26 -3.66 10.55 -4.28 0.95 0.04 15413
0.00 0.00 3.38 -4.54 11.13 -4.27 0.98 0.16 15420
0.00 0.00 3.30 -5.50 12.28 -4.21 1.06 0.28 15427
0.00 0.00 3.43 -6.38 13.06 -4.06 1.17 0.35 15434
0.00 0.00 3.35 -6.99 13.45 -3.84 1.31 0.40 15441
0.00 0.00 2.48 -7.06 13.80 -3.70 1.43 0.43 15449
0.00 0.00 2.84 -7.10 14.21 -3.60 1.58 0.47 15456
0.00 0.00 2.37 -7.15 14.98 -3.53 1.71 0.54 15463
0.00 0.00 2.03 -7.20 15.85 -3.45 1.83 0.64 15470
0.00 0.00 1.53 -7.28 16.40 -3.39 1.93 0.78 15477
0.00 0.00 0.99 -7.43 16.55 -3.35 1.95 0.93 15484
0.00 0.00 0.55 -7.67 16.59 -3.31 1.91 1.04 15492
0.00 0.00 0.09 -8.07 16.28 -3.21 1.80 1.14 15499
0.00 0.00 -0.21 -8.33 15.90 -3.12 1.65 1.20 15506
0.00 0.00 -0.36 -8.71 15.52 -2.96 1.49 1.20 15513
0.00 0.00 -0.35 -8.85 15.12 -2.80 1.39 1.16 15520
0.00 0.00 -0.30 -8.84 14.62 -2.58 1.34 1.10 15527
0.00 0.00 -0.44 -8.86 14.06 -2.34 1.37 1.01 15535
0.00 0.00 -0.75 -9.00 13.25 -2.11 1.42 0.94 15542
0.00 0.00 -1.08 -9.31 12.79 -1.79 1.43 0.88 15549
0.00 0.00 -1.31 -9.94 12.34 -1.48 1.42 0.81 15556
0.00 0.00 -1.37 -10.49 12.32 -1.09 1.39 0.76 15563
0.00 0.00 -1.56 -11.07 12.36 -0.70 1.34 0.70 15570
0.00 0.00 -1.67 -11.51 12.41 -0.43 1.30 0.65 15578
0.00 0.00 -1.55 -11.95 12.62 -0.20 1.26 0.60 15585
0.00 0.00 -1.36 -12.26 13.06 -0.08 1.26 0.55 15592
0.00 0.00 -1.19 -12.45 13.32 -0.09 1.29 0.47 15599
0.00 0.00 -1.01 -12.60 13.00 -0.22 1.40 0.45 15606
0.00 0.00 -1.05 -12.73 11.94 -0.40 1.54 0.42 15613
0.00 0.00 -1.31 -12.92 11.00 -0.61 1.60 0.39 15621
0.00 0.00 -1.48 -13.14 10.02 -0.80 1.67 0.38 15628
0.00 0.00 -1.62 -13.73 8.83 -0.87 1.74 0.37 15635
0.00 0.00 -2.40 -14.10 7.61 -0.90 1.79 0.39 15642
0.00 0.00 -3.24 -14.94 6.52 -0.86 1.86 0.48 15649
0.00 0.00 -3.97 -15.45 5.91 -0.73 1.81 0.59 15656
0.00 0.00 -5.30 -15.76 5.06 -0.51 1.65 0.78 15664
0.00 0.00 -5.87 -16.30 4.65 -0.29 1.49 1.00 15671
0.00 0.00 -11.49 -22.04 7.89 0.10 0.78 1.19 15678
0.00 0.00 -9.36 -18.48 3.08 1.01 -0.71 1.52 15685
0.00 0.00 -7.72 -15.23 1.95 1.02 -1.69 1.53 15692
0.00 0.00 -5.94 -17.40 4.85 1.32 -2.58 1.55 15699
0.00 0.00 -3.92 -17.76 5.48 1.44 -3.11 1.54 15707
0.00 -0.00 -1.66 -9.06 7.81 1.71 -3.43 1.53 15714
-0.00 0.01 0.62 7.19 14.66 2.09 -2.68 1.51 15721
-0.00 0.04 -5.19 0.28 18.53 2.18 -1.77 1.64 15728
-0.02 0.21 -7.65 5.97 16.82 1.96 -1.25 1.58 15735
-0.03 0.28 -7.61 0.69 9.25 1.69 -1.48 0.97 15742
-0.03 0.36 -6.56 -1.96 16.60 2.20 -1.24 0.44 15751
-0.01 0.34 -7.67 -6.72 35.30 1.45 -1.32 -0.01 15758
-0.03 0.37 -0.91 -2.38 10.98 -0.02 -0.05 -0.18 15765
-0.04 0.40 0.72 -2.60 9.86 -0.19 0.06 -0.13 15771
-0.04 0.50 1.37 -2.24 10.16 -0.11 0.02 -0.08 15779
-0.04 0.52 1.03 -1.70 10.26 -0.07 0.05 0.01 15785
-0.04 0.51 -0.21 -0.74 10.38 -0.02 0.09 0.01 15793
-0.02 0.50 0.19 -1.28 9.81 -0.03 0.13 -0.03 15800
-0.03 0.51 0.61 -1.08 9.78 -0.02 0.14 -0.01 15807
-0.03 0.52 0.53 -1.01 9.85 -0.02 0.14 -0.01 15814
-0.04 0.54 0.44 -1.04 9.81 -0.02 0.14 -0.01 15821
-0.04 0.54 0.53 -0.99 9.75 -0.02 0.13 -0.02 15828
-0.03 0.55 0.58 -0.99 9.75 -0.02 0.12 -0.02 15836
-0.02 0.52 0.47 -0.98 9.80 -0.02 0.12 -0.02 15843
-0.02 0.54 0.50 -0.81 9.61 -0.03 0.13 -0.03 15850
-0.03 0.50 0.55 -0.91 9.70 -0.03 0.12 -0.03 15857
-0.06 0.55 0.53 -0.90 9.64 -0.03 0.12 -0.03 15864
-0.04 0.59 0.69 -0.96 9.62 -0.03 0.10 -0.03 15872
-0.04 0.57 0.63 -0.92 9.70 -0.03 0.09 -0.04 15879
-0.03 0.58 0.57 -0.85 9.76 -0.02 0.08 -0.03 15886
-0.04 0.56 0.49 -0.97 9.77 -0.02 0.09 -0.03 15893
-0.04 0.56 0.48 -0.93 9.76 -0.01 0.10 -0.03 15900
-0.04 0.55 0.49 -1.00 9.83 -0.00 0.11 -0.03 15907
-0.02 0.55 0.55 -1.02 9.79 0.00 0.12 -0.03 15915
-0.01 0.56 0.50 -0.97 9.75 -0.00 0.12 -0.03 15922
-0.01 0.52 0.55 -0.93 9.81 0.00 0.12 -0.03 15929
-0.02 0.51 0.59 -0.91 9.21 0.00 0.12 -0.03 15936
-0.02 0.50 0.62 -0.95 9.79 0.01 0.11 -0.04 15943
-0.02 0.51 0.63 -0.95 9.73 0.02 0.10 -0.04 15950
-0.02 0.49 0.60 -0.92 9.71 0.02 0.09 -0.04 15958
-0.00 0.48 0.58 -0.95 9.76 0.03 0.09 -0.05 15965
-0.01 0.44 0.55 -0.93 9.79 0.02 0.10 -0.04 15972
-0.01 0.41 0.59 -0.95 9.76 0.03 0.10 -0.05 15979
-0.01 0.36 0.59 -0.98 9.80 0.03 0.10 -0.05 15986
-0.02 0.35 0.57 -0.97 9.79 0.04 0.10 -0.04 15993
-0.00 0.29 0.60 -0.96 9.81 0.03 0.11 -0.05 16001
0.01 0.28 0.61 -1.01 9.78 0.03 0.11 -0.05 16008
0.00 0.25 0.65 -1.01 9.78 0.03 0.11 -0.05 16015
-0.01 0.26 0.71 -0.99 9.69 0.03 0.11 -0.05 16022
-0.01 0.21 0.67 -0.97 9.79 0.03 0.11 -0.05 16029
-0.00 0.17 0.57 -0.92 9.78 0.03 0.10 -0.05 16036
-0.00 0.13 0.67 -0.99 9.75 0.03 0.10 -0.05 16044
0.02 0.15 0.81 -1.02 9.72 0.03 0.10 -0.06 16051
0.02 0.13 0.65 -1.02 9.73 0.03 0.10 -0.06 16058
0.00 0.12 0.64 -0.98 9.76 0.03 0.09 -0.06 16065
0.00 0.10 0.64 -1.03 9.79 0.03 0.08 -0.06 16072
0.00 0.12 0.68 -0.99 9.81 0.03 0.07 -0.06 16079
0.01 0.11 0.67 -1.03 9.77 0.02 0.06 -0.07 16087
0.01 0.09 0.69 -1.07 9.74 0.02 0.05 -0.07 16094
0.01 0.08 0.72 -1.00 9.77 0.02 0.04 -0.07 16101
0.02 0.09 0.74 -1.04 9.76 0.01 0.03 -0.07 16108
0.01 0.07 0.70 -1.02 9.73 0.01 0.01 -0.08 16115
0.02 0.03 0.71 -1.00 9.75 0.00 -0.01 -0.08 16122
0.03 0.04 0.69 -1.01 9.71 0.00 -0.03 -0.08 16130
0.04 0.04 0.64 -1.05 9.74 -0.00 -0.03 -0.08 16137
0.03 0.04 0.65 -0.98 9.76 0.00 -0.03 -0.08 16144
0.03 0.02 0.62 -1.06 9.77 0.01 -0.01 -0.07 16151
0.02 0.05 0.62 -1.02 9.82 0.01 0.01 -0.08 16158
0.05 0.04 0.58 -1.05 9.77 0.01 0.02 -0.07 16165
0.06 0.01 0.65 -1.06 9.76 0.02 0.03 -0.07 16173
0.06 0.00 0.63 -1.03 9.77 0.02 0.05 -0.07 16180
0.09 -0.00 0.61 -1.05 9.80 0.03 0.05 -0.06 16187
0.08 0.00 0.64 -1.06 9.77 0.03 0.05 -0.06 16194
0.09 0.01 0.61 -1.11 9.76 0.03 0.05 -0.06 16201
0.08 0.01 0.65 -1.07 9.78 0.03 0.05 -0.05 16208
0.07 -0.01 0.66 -1.09 9.77 0.03 0.05 -0.05 16216
0.07 -0.01 0.64 -1.06 9.72 0.03 0.05 -0.06 16223
0.06 -0.01 0.67 -1.09 9.74 0.03 0.04 -0.05 16230
0.05 -0.00 0.71 -1.03 9.77 0.03 0.03 -0.06 16237
0.07 0.00 0.64 -1.13 9.81 0.04 0.02 -0.06 16244
0.08 0.01 0.68 -1.08 9.77 0.04 0.01 -0.07 16251
0.11 -0.00 0.70 -1.05 9.74 0.05 0.00 -0.07 16259
0.14 -0.00 0.69 -1.16 9.77 0.05 -0.00 -0.08 16266
0.16 -0.02 0.67 -1.16 9.81 0.06 -0.00 -0.08 16273
0.18 -0.01 0.66 -1.11 9.83 0.07 0.01 -0.09 16280
0.23 -0.01 0.68 -1.13 9.84 0.09 0.03 -0.09 16287
0.25 -0.02 0.66 -1.11 9.89 0.12 0.05 -0.10 16294
0.33 -0.02 0.63 -1.17 9.96 0.18 0.09 -0.11 16302
0.37 -0.02 0.70 -1.15 9.98 0.25 0.15 -0.12 16309
0.44 -0.03 0.74 -1.24 10.14 0.34 0.23 -0.14 16317
0.46 -0.02 0.73 -1.32 10.17 0.47 0.28 -0.14 16324
0.52 -0.03 0.70 -1.32 10.27 0.63 0.30 -0.14 16331
0.53 -0.02 0.66 -1.45 10.91 0.80 0.29 -0.15 16338
0.60 -0.03 0.71 -1.46 10.91 1.02 0.30 -0.15 16346
0.61 -0.03 0.81 -1.65 11.33 1.18 0.26 -0.16 16353
0.67 -0.02 0.87 -1.66 11.26 1.35 0.20 -0.18 16360
0.65 -0.03 0.83 -1.86 11.61 1.49 0.15 -0.19 16367
0.73 -0.02 0.84 -1.87 11.65 1.61 0.12 -0.21 16374
0.76 -0.03 0.88 -2.09 11.15 1.72 0.07 -0.21 16381
0.76 -0.03 1.09 -2.28 11.91 1.82 0.03 -0.21 16389
0.75 -0.04 0.84 -2.19 11.68 1.97 0.04 -0.22 16396
0.74 -0.04 0.80 -2.14 11.36 2.09 0.06 -0.23 16403
0.72 -0.03 0.78 -2.60 11.53 2.19 0.11 -0.23 16410
0.70 -0.02 0.74 -2.52 11.57 2.34 0.15 -0.23 16417
0.68 -0.03 0.39 -2.62 12.02 2.50 0.22 -0.21 16424
0.64 -0.03 0.71 -2.17 12.20 2.65 0.27 -0.20 16432
0.61 -0.04 0.68 -3.07 12.10 2.86 0.31 -0.19 16439
0.56 -0.03 1.01 -3.24 11.88 3.06 0.44 -0.20 16445
0.46 -0.03 0.86 -3.73 12.41 3.32 0.57 -0.21 16453
0.29 -0.01 0.58 -3.83 12.90 3.61 0.77 -0.20 16460
0.23 -0.01 0.57 -4.07 14.19 3.84 0.93 -0.17 16467
0.15 -0.02 0.14 -4.66 13.92 4.07 1.06 -0.11 16474
0.09 -0.01 0.21 -5.40 15.14 4.20 1.05 -0.01 16481
0.06 -0.01 0.61 -6.65 17.13 4.25 1.02 0.06 16488
0.06 -0.01 1.46 -8.10 18.21 4.28 1.07 0.14 16495
0.06 -0.01 2.02 -8.67 20.90 4.28 1.22 0.23 16502
0.05 -0.00 1.81 -8.70 19.29 4.28 1.36 0.27 16509
0.06 -0.01 1.89 -8.69 19.18 4.28 1.38 0.28 16517
0.07 -0.01 2.17 -8.57 19.52 4.27 1.40 0.27 16524
0.04 -0.00 3.01 -7.93 18.56 4.26 1.51 0.24 16531
0.03 -0.00 3.47 -7.04 18.15 4.20 1.67 0.15 16538
0.04 -0.00 2.61 -5.69 17.77 4.07 1.84 0.05 16545
0.02 -0.00 1.79 -3.85 16.64 4.01 1.85 -0.07 16552
0.01 -0.00 1.21 -1.66 16.49 3.94 1.73 -0.20 16560
0.00 0.00 0.37 1.05 16.14 3.79 1.62 -0.31 16567
0.00 0.00 -1.09 6.69 16.21 3.59 1.58 -0.42 16574
0.00 0.00 -1.86 8.03 8.90 3.07 1.43 -0.61 16581
0.00 -0.00 -3.33 11.90 5.08 2.40 0.85 -1.19 16588
0.00 0.00 -4.57 13.29 1.32 1.47 -0.07 -2.00 16595
0.01 -0.00 -2.77 10.36 7.92 -0.03 -0.95 -2.39 16603
0.00 0.00 -1.80 7.12 12.48 -0.86 -1.03 -2.76 16610
0.00 0.00 -0.31 4.93 10.79 -1.36 -0.86 -3.12 16617
-0.00 0.00 -0.27 4.13 7.81 -1.55 -0.68 -3.49 16624
0.00 0.00 -0.41 4.87 5.71 -1.64 -0.53 -3.74 16631
0.00 -0.00 -0.17 4.37 5.13 -1.72 -0.39 -3.89 16638
0.00 0.00 0.42 4.33 5.30 -1.80 -0.35 -4.05 16646
0.00 0.00 0.73 4.24 5.42 -1.94 -0.36 -4.13 16653
0.00 0.00 1.01 4.09 5.75 -2.13 -0.39 -4.13 16660
0.00 0.00 1.39 3.93 6.04 -2.30 -0.39 -4.05 16667
0.00 0.00 1.86 3.62 5.84 -2.51 -0.35 -3.89 16674
0.00 0.00 2.59 3.58 6.70 -2.70 -0.30 -3.68 16681
0.00 0.00 2.76 3.93 7.74 -2.94 -0.31 -3.49 16689
0.00 0.00 2.86 3.49 8.07 -3.15 -0.33 -3.22 16696
0.00 0.00 3.64 2.31 8.44 -3.34 -0.34 -2.89 16703
0.00 0.00 3.71 1.19 8.74 -3.56 -0.32 -2.58 16710
0.00 0.00 4.39 0.39 9.09 -3.76 -0.32 -2.22 16717
0.00 0.00 4.60 0.11 9.19 -3.87 -0.28 -1.89 16724
0.00 0.00 4.75 -0.39 8.99 -3.94 -0.18 -1.61 16732
0.00 0.00 5.07 -1.01 9.06 -3.95 -0.02 -1.34 16739
0.00 0.00 5.52 -1.56 9.33 -3.91 0.16 -1.14 16746
0.00 0.00 5.89 -2.29 9.82 -3.84 0.49 -0.95 16753
0.00 0.00 5.95 -3.68 10.54 -3.75 0.83 -0.79 16760
0.00 0.00 5.77 -3.94 11.13 -3.69 1.23 -0.67 16768
0.00 0.00 5.39 -4.44 11.50 -3.64 1.59 -0.51 16775
0.00 0.00 4.92 -5.10 12.49 -3.60 1.83 -0.35 16782
0.00 0.00 4.34 -5.64 13.26 -3.55 2.05 -0.11 16789
0.00 0.00 3.72 -6.48 14.28 -3.50 2.16 0.15 16796
0.00 0.00 3.02 -7.31 14.72 -3.44 2.23 0.40 16803
0.00 0.00 2.43 -8.21 14.96 -3.35 2.16 0.70 16811
0.00 0.00 1.81 -8.61 14.94 -3.23 1.98 0.96 16818
0.00 0.00 1.75 -8.67 14.41 -3.05 1.73 1.26 16825
0.00 0.00 2.00 -8.38 14.20 -2.89 1.46 1.51 16832
0.00 0.00 2.24 -8.53 13.79 -2.67 1.31 1.66 16839
0.00 0.00 2.56 -8.74 13.54 -2.46 1.24 1.78 16846
0.00 0.00 2.73 -8.76 13.37 -2.28 1.24 1.85 16854
0.00 0.00 2.57 -8.78 13.14 -2.07 1.32 1.89 16861
0.00 0.00 2.28 -8.77 12.81 -1.88 1.46 1.91 16868
0.00 0.00 1.89 -8.88 12.67 -1.65 1.51 1.91 16875
0.00 0.00 1.71 -8.99 12.88 -1.44 1.56 1.91 16882
0.00 0.00 1.52 -8.93 13.29 -1.30 1.56 1.88 16889
0.00 0.00 1.39 -8.87 13.60 -1.18 1.53 1.86 16897
0.00 0.00 1.25 -8.73 14.03 -1.11 1.45 1.82 16904
0.00 0.00 1.21 -8.65 14.42 -1.07 1.36 1.79 16911
0.00 -0.00 1.07 -8.68 14.65 -1.05 1.25 1.75 16918
0.00 -0.00 0.90 -9.12 14.27 -1.04 1.23 1.70 16925
0.00 0.00 0.55 -9.80 14.13 -1.02 1.27 1.66 16932
0.00 0.00 0.02 -10.55 13.37 -0.99 1.34 1.60 16940
0.00 0.00 -0.62 -11.18 12.75 -0.96 1.39 1.55 16947
0.00 0.00 -1.25 -11.89 12.36 -0.94 1.41 1.47 16954
0.00 -0.00 -1.56 -12.33 12.20 -0.96 1.38 1.37 16962
0.00 0.00 -1.58 -12.58 11.62 -1.02 1.39 1.26 16968
0.00 0.00 -1.56 -12.77 11.12 -1.11 1.47 1.12 16975
0.00 0.00 -1.63 -13.05 10.33 -1.22 1.60 1.00 16983
0.00 0.00 -2.07 -13.29 9.58 -1.32 1.76 0.86 16990
0.00 0.00 -2.80 -13.65 8.59 -1.36 1.88 0.75 16997
0.00 0.00 -4.29 -14.91 7.69 -1.32 1.93 0.67 17004
0.00 0.00 -10.52 -19.80 11.31 -0.82 1.29 0.68 17011
0.00 0.00 -5.58 -12.10 0.50 -0.47 0.73 0.67 17018
0.00 0.00 -8.32 -16.26 3.49 -0.42 0.29 0.60 17026
0.00 0.00 -6.21 -18.10 6.34 0.11 -0.43 0.69 17033
0.00 0.00 -4.70 -15.83 3.37 0.30 -0.81 0.64 17040
0.00 -0.00 -4.90 -16.06 4.54 0.68 -1.14 0.53 17047
0.00 0.00 -5.52 -17.22 5.79 0.86 -1.43 0.49 17054
0.00 0.00 -4.51 -16.29 5.65 1.04 -1.74 0.46 17061
0.00 0.00 -7.27 -17.29 6.17 1.15 -2.24 0.48 17069
-0.00 0.02 -8.73 -15.70 7.23 1.44 -2.72 0.71 17076
-0.00 0.02 -2.41 1.54 13.83 2.01 -1.88 0.98 17083
-0.00 0.05 -6.86 -2.20 11.34 2.14 -1.12 1.10 17090
-0.02 0.29 -7.62 1.22 13.77 2.33 -1.05 0.77 17098
-0.01 0.31 -6.55 -3.82 38.84 1.96 -2.34 -0.06 17105
-0.02 0.30 0.11 -2.51 16.09 0.38 -1.71 -0.27 17113
-0.03 0.35 -1.31 -1.24 11.40 -0.10 -0.43 -0.17 17120
-0.02 0.40 0.44 -2.71 10.32 -0.14 -0.14 -0.13 17127
-0.02 0.40 1.05 -2.54 10.17 -0.09 -0.07 0.02 17133
-0.03 0.45 0.28 -0.94 10.31 -0.04 -0.00 0.06 17140
-0.04 0.50 -0.61 -0.64 10.15 -0.03 0.05 0.01 17147
-0.04 0.54 0.22 -0.70 9.75 -0.02 0.11 -0.01 17155
-0.03 0.53 0.62 -0.88 9.69 -0.01 0.14 0.01 17162
-0.02 0.49 0.60 -0.95 9.78 -0.01 0.14 0.02 17169
-0.03 0.41 0.49 -0.87 9.79 -0.00 0.12 0.00 17176
-0.04 0.43 0.64 -0.76 9.79 -0.01 0.10 -0.01 17183
-0.04 0.44 0.74 -0.79 9.75 -0.02 0.08 -0.01 17190
-0.03 0.41 0.60 -0.78 9.69 -0.03 0.05 -0.02 17198
-0.03 0.45 0.64 -0.76 9.74 -0.03 0.03 -0.03 17205
-0.02 0.49 0.62 -0.80 9.73 -0.03 0.01 -0.04 17212
-0.03 0.47 0.57 -0.81 9.75 -0.03 -0.01 -0.05 17219
-0.02 0.49 0.52 -0.76 9.78 -0.03 -0.02 -0.05 17226
0.01 0.52 0.45 -0.71 9.88 -0.03 -0.02 -0.06 17233
0.01 0.54 0.48 -0.72 9.85 -0.02 -0.00 -0.06 17241
0.02 0.55 0.44 -0.76 9.87 -0.01 0.02 -0.06 17248
0.04 0.52 0.45 -0.84 9.84 0.00 0.04 -0.06 17255
0.04 0.51 'jþ0.82 9.84 0.01 0.05 -0.06 17262
æ4 0.49  -0.81 9.81 0.02 0.06 -0.06 17269
Ì3 0.47 -0.77 9.82 0.02 0.06 -0.06 17276
æ6 0.45 -0.79 9.81 0.03 0.05 -0.06 17284
æ6 0.41 -0.80 9.79 0.03 0.05 -0.07 17291
æ8 0.36 -0.81 9.78 0.03 0.05 -0.07 17298
æ6 0.35 Ë0.85 9.81 0.03 0.04 -0.08 17305
Ì7 0.28  -0.81 9.80 0.03 0.03 -0.08 17312
Ì6 0.27 jþ0.80 10.41 0.03 0.04 -0.08 17319
Ì7 0.27 °Ë0.82 9.79 0.03 0.03 -0.08 17327
ó0 0.29 Ë0.85 9.82 0.04 0.03 -0.08 17334
æ9 0.20 -0.80 9.82 0.05 0.03 -0.08 17341
ó1 0.14  -0.85 9.80 0.05 0.02 -0.08 17348
æ1 0.09 0.54 -0.83 9.80 0.05 0.02 -0.09 17355
0.12 0.09 ÿ™jþ0.91 9.82 0.05 0.01 -0.08 17362
15 0.13 Ljþ0.88 9.78 0.05 0.01 -0.09 17370
Ì5 0.10 7jþ0.91 9.79 0.04 0.01 -0.09 17377
î9 0.09 Ljþ0.92 9.82 0.04 0.02 -0.09 17384
Ì9 0.07 -0.91 9.81 0.04 0.03 -0.09 17391
19 0.02 &jþ0.86 9.79 0.03 0.04 -0.09 17398
Ì8 0.01 jþ0.94 9.76 0.03 0.05 -0.09 17405
™0 0.01 7jþ0.91 9.79 0.02 0.05 -0.09 17413
™3 -0.01 jþ0.91 9.81 0.03 0.06 -0.09 17420
™3 -0.00 jþ0.91 9.82 0.02 0.06 -0.09 17427
22 -0.02 jþ0.92 9.81 0.02 0.06 -0.09 17434
™2 0.01 jþ0.91 9.78 0.02 0.06 -0.09 17441
»5 -0.01 7jþ0.92 10.41 0.02 0.06 -0.08 17448
28 0.02 Njþ0.92 9.83 0.02 0.05 -0.09 17456
ó0 -0.01 0.52 -0.93 9.79 0.02 0.05 -0.09 17463
æ0 -0.02 -0.92 9.78 0.02 0.04 -0.09 17470
þ0 -0.02 -0.95 9.80 0.02 0.04 -0.09 17477
ó8 -0.01 Ë0.94 9.81 0.03 0.04 -0.10 17484
þ0jþ0.00 Ë0.93 9.81 0.03 0.04 -0.10 17491
ÿ0 0.00  -0.95 9.80 0.03 0.04 -0.10 17499
ÿLþ0.00 Ë1.00 9.79 0.02 0.03 -0.10 17506
ÿ&jþ0.01 HË0.94 9.79 0.03 0.03 -0.10 17513
þ4 -0.01 HË0.94 9.81 0.03 0.02 -0.10 17520
þ5 -0.02 -1.02 9.80 0.03 0.01 -0.11 17527
ÿ?jþ0.00 -1.02 9.79 0.03 0.01 -0.12 17534
ÿNjþ0.01  Ë1.00 9.79 0.04 0.01 -0.12 17542
ÿNjþ0.01 -1.08 9.79 0.05 0.01 -0.12 17549
ó2 -0.01  -0.92 9.82 0.06 0.01 -0.12 17556
Í5 -0.02 0.54 -1.01 9.82 0.07 0.02 -0.13 17563
0.49 -0.01 ™jþ0.99 9.83 0.09 0.02 -0.12 17570
0.53 -0.01 0.55 -0.98 9.84 0.11 0.03 -0.12 17577
0.57 -0.03 0.54 -1.05 9.86 0.14 0.05 -0.13 17585
0.56 -0.03 0.58 -1.08 9.93 0.17 0.05 -0.14 17592
0.59 -0.03 0.57 -1.05 9.95 0.21 0.07 -0.15 17599
0.66 -0.03 0.53 -1.07 9.99 0.25 0.07 -0.16 17606
0.68 -0.03 0.68 -1.12 10.10 0.31 0.08 -0.17 17614
0.70 -0.02 0.59 -1.15 10.04 0.40 0.08 -0.18 17620
0.80 -0.04 0.64 -1.16 10.08 0.49 0.04 -0.18 17628
0.82 -0.04 0.71 -1.31 10.31 0.62 0.05 -0.19 17636
