Voltage_01 Voltage_02 Acc_x Acc_y Acc_z Gyro_x Gyro_y Gyro_z Time
5000
0.06 0.19 0.38 -0.94 9.78 -0.04 0.04 -0.05 24
0.07 0.18 0.44 -0.98 9.22 -0.03 0.03 -0.06 31
0.07 0.18 0.43 -0.94 9.82 -0.04 0.03 -0.06 38
0.07 0.17 0.41 -0.97 9.83 -0.04 0.02 -0.06 46
0.06 0.15 0.34 -0.94 9.76 -0.04 0.03 -0.06 53
0.07 0.17 0.38 -0.97 9.82 -0.03 0.03 -0.07 60
0.08 0.17 0.39 -0.93 9.78 -0.03 0.03 -0.07 67
0.05 0.23 0.36 -0.94 9.81 -0.03 0.03 -0.07 74
0.03 0.26 0.34 -0.95 9.83 -0.03 0.04 -0.06 81
0.02 0.24 0.36 -0.98 9.79 -0.04 0.04 -0.06 89
0.01 0.23 0.37 -0.96 9.82 -0.03 0.04 -0.06 96
0.03 0.22 0.36 -0.94 9.83 -0.03 0.05 -0.06 103
0.03 0.26 0.36 -0.91 9.77 -0.03 0.05 -0.05 110
0.02 0.26 0.34 -0.94 9.85 -0.03 0.06 -0.05 117
0.02 0.26 0.39 -0.95 9.75 -0.03 0.06 -0.06 124
0.02 0.23 0.38 -0.94 9.81 -0.03 0.06 -0.06 132
0.01 0.28 0.38 -0.86 9.86 -0.02 0.06 -0.05 139
0.02 0.33 0.38 -0.95 9.83 -0.02 0.06 -0.06 146
0.04 0.31 0.37 -0.89 9.80 -0.03 0.05 -0.06 153
0.02 0.31 0.43 -0.91 9.21 -0.02 0.05 -0.06 160
0.02 0.31 0.41 -0.88 9.80 -0.02 0.05 -0.06 167
0.01 0.29 0.40 -0.93 9.80 -0.02 0.05 -0.06 175
0.01 0.32 0.43 -0.88 9.81 -0.02 0.05 -0.06 182
0.02 0.33 0.37 -0.89 9.80 -0.01 0.04 -0.06 189
0.03 0.33 0.41 -0.86 9.82 -0.01 0.04 -0.06 196
0.02 0.33 0.39 -0.90 9.82 -0.01 0.03 -0.06 203
0.01 0.31 0.40 -0.89 9.80 -0.01 0.04 -0.06 210
0.01 0.33 0.42 -0.92 9.81 -0.02 0.04 -0.06 218
0.02 0.34 0.40 -0.91 9.78 -0.01 0.04 -0.06 225
0.01 0.33 0.38 -0.89 9.73 -0.01 0.04 -0.06 232
0.02 0.33 0.40 -0.90 9.75 -0.01 0.04 -0.06 239
0.02 0.34 0.34 -0.91 9.80 -0.01 0.04 -0.06 246
0.02 0.33 0.37 -0.93 9.21 -0.01 0.04 -0.06 253
-0.00 0.35 0.35 -0.88 9.79 -0.01 0.04 -0.06 261
0.00 0.34 0.39 -0.89 9.77 -0.01 0.04 -0.06 268
0.02 0.36 0.40 -0.92 9.78 -0.01 0.04 -0.06 275
0.02 0.35 0.38 -0.90 9.81 -0.01 0.04 -0.06 282
0.02 0.34 0.38 -0.91 9.78 -0.01 0.04 -0.06 289
0.02 0.34 0.37 -0.92 9.81 -0.01 0.05 -0.06 296
0.01 0.35 0.40 -0.89 9.80 -0.00 0.05 -0.06 304
0.03 0.34 0.37 -0.91 9.83 -0.01 0.06 -0.06 311
0.05 0.34 0.34 -0.92 9.82 -0.01 0.06 -0.06 318
0.04 0.34 0.42 -0.91 9.83 0.00 0.05 -0.06 325
0.04 0.32 0.39 -0.90 9.77 -0.00 0.05 -0.07 332
0.04 0.31 0.43 -0.91 9.80 -0.00 0.06 -0.06 339
0.04 0.32 0.40 -0.90 9.80 -0.00 0.05 -0.06 347
0.04 0.32 0.38 -0.90 9.80 -0.01 0.05 -0.06 354
0.06 0.32 0.42 -0.92 9.79 -0.01 0.05 -0.06 361
0.05 0.31 0.38 -0.88 9.80 -0.00 0.05 -0.07 368
0.03 0.31 0.40 -0.90 9.80 -0.00 0.05 -0.07 375
0.02 0.31 0.40 -0.90 9.81 0.00 0.05 -0.06 382
0.03 0.31 0.39 -0.90 9.80 -0.00 0.05 -0.06 390
0.04 0.32 0.40 -0.92 9.82 0.00 0.05 -0.06 397
0.05 0.30 0.43 -0.91 9.82 0.01 0.04 -0.06 404
0.03 0.30 0.40 -0.91 9.80 0.00 0.04 -0.06 411
0.03 0.27 0.35 -0.89 9.80 0.00 0.04 -0.07 418
0.03 0.27 0.42 -0.92 9.80 0.00 0.03 -0.07 425
0.03 0.27 0.42 -0.90 9.81 0.00 0.03 -0.06 433
0.04 0.26 0.43 -0.92 9.77 0.00 0.03 -0.06 440
0.05 0.25 0.43 -0.90 9.80 0.00 0.03 -0.06 447
0.06 0.25 0.41 -0.92 9.84 0.01 0.03 -0.06 454
0.05 0.24 0.37 -0.90 9.80 0.01 0.04 -0.07 461
0.03 0.25 0.41 -0.93 9.77 0.00 0.04 -0.07 468
0.04 0.23 0.40 -0.90 9.81 0.01 0.04 -0.07 476
0.05 0.23 0.38 -0.90 9.81 0.01 0.05 -0.06 483
0.05 0.22 0.43 -0.93 9.79 0.01 0.04 -0.03 490
0.05 0.23 0.39 -0.93 9.77 0.01 0.04 -0.07 497
0.06 0.23 0.39 -0.92 9.79 0.01 0.04 -0.07 504
0.06 0.22 0.37 -0.93 10.38 0.01 0.04 -0.07 512
0.07 0.22 0.41 -0.95 9.78 0.01 0.04 -0.07 519
0.09 0.21 0.41 -0.95 9.76 0.01 0.04 -0.07 526
0.07 0.22 0.39 -0.93 9.81 0.01 0.05 -0.07 533
0.08 0.23 0.43 -0.93 9.79 0.01 0.05 -0.07 540
0.08 0.21 0.41 -0.91 9.80 0.01 0.05 -0.07 547
0.08 0.17 0.41 -0.95 9.79 0.01 0.05 -0.07 555
0.10 0.18 0.38 -0.94 9.75 0.00 0.05 -0.07 562
0.12 0.15 0.38 -0.91 9.80 0.01 0.04 -0.07 569
0.11 0.14 0.40 -0.97 9.79 0.01 0.05 -0.07 576
0.11 0.16 0.40 -0.95 9.76 0.00 0.04 -0.07 583
0.12 0.14 0.44 -0.97 9.78 0.00 0.04 -0.07 590
0.13 0.14 0.38 -0.94 9.81 0.00 0.04 -0.07 598
0.13 0.14 0.44 -0.94 9.79 0.00 0.04 -0.07 605
0.16 0.11 0.41 -0.94 9.80 -0.00 0.03 -0.07 612
0.16 0.11 0.40 -0.93 9.76 -0.00 0.03 -0.06 619
0.16 0.09 0.42 -0.94 9.77 -0.01 0.03 -0.07 626
0.14 0.10 0.40 -0.93 9.81 -0.00 0.03 -0.07 633
0.14 0.10 0.39 -0.96 9.81 -0.00 0.03 -0.07 641
0.15 0.10 0.40 -0.95 9.80 -0.00 0.03 -0.07 648
0.19 0.07 0.37 -0.94 9.82 0.00 0.03 -0.07 655
0.20 0.05 0.40 -0.94 9.78 0.00 0.03 -0.07 662
0.20 0.04 0.39 -0.94 9.81 0.00 0.03 -0.07 669
0.20 0.04 0.40 -0.92 9.80 0.00 0.04 -0.07 676
0.21 0.07 0.39 -0.97 9.81 0.00 0.04 -0.07 684
0.22 0.07 0.38 -0.98 9.77 -0.00 0.04 -0.07 691
0.23 0.08 0.39 -0.94 9.78 -0.00 0.04 -0.07 698
0.22 0.08 0.43 -0.95 9.79 -0.00 0.04 -0.07 705
0.23 0.05 0.41 -0.96 9.83 0.00 0.04 -0.07 712
0.22 0.07 0.38 -0.96 9.80 0.00 0.04 -0.07 719
0.23 0.09 0.40 -0.97 9.78 0.00 0.04 -0.07 727
0.24 0.08 0.40 -0.98 9.82 -0.00 0.04 -0.07 734
0.25 0.07 0.39 -0.96 9.81 -0.00 0.04 -0.07 741
0.24 0.06 0.36 -0.95 9.81 -0.00 0.03 -0.07 748
0.23 0.06 0.39 -0.94 9.79 -0.00 0.03 -0.07 755
0.22 0.08 0.31 -0.96 9.79 -0.00 0.04 -0.07 762
0.22 0.08 0.39 -0.97 9.80 -0.00 0.04 -0.07 770
0.25 0.07 0.40 -0.97 9.79 0.00 0.04 -0.07 777
0.23 0.08 0.41 -0.95 9.82 0.00 0.04 -0.07 784
0.22 0.08 0.38 -0.94 9.80 -0.00 0.05 -0.06 791
0.21 0.09 0.37 -0.97 9.81 0.00 0.05 -0.06 798
0.22 0.06 0.39 -0.98 9.82 0.00 0.05 -0.06 805
0.22 0.07 0.40 -0.96 9.82 0.00 0.05 -0.07 813
0.24 0.02 0.41 -0.98 9.79 0.01 0.05 -0.07 820
0.23 0.05 0.36 -0.98 9.81 0.01 0.05 -0.07 827
0.23 0.03 0.40 -0.97 9.82 0.00 0.06 -0.06 834
0.22 0.03 0.42 -0.98 9.80 0.01 0.06 -0.07 841
0.23 0.03 0.40 -0.96 9.82 0.01 0.07 -0.07 848
0.24 0.01 0.44 -1.00 9.82 0.01 0.07 -0.07 856
0.26 -0.00 0.42 -0.98 9.82 0.01 0.07 -0.07 863
0.26 -0.01 0.45 -0.98 9.80 0.02 0.06 -0.06 870
0.25 -0.02 0.42 -0.97 9.79 0.01 0.06 -0.07 877
0.24 -0.01 0.41 -0.98 9.81 0.01 0.06 -0.07 884
0.26 -0.01 0.43 -1.00 9.81 0.02 0.06 -0.07 891
0.27 -0.00 0.41 -0.98 9.79 0.01 0.06 -0.07 899
0.28 -0.01 0.40 -0.97 9.80 0.01 0.06 -0.07 906
0.28 -0.00 0.43 -0.99 9.77 0.01 0.06 -0.07 913
0.28 -0.02 0.41 -0.98 9.81 0.01 0.06 -0.07 920
0.29 -0.00 0.43 -1.02 9.80 0.02 0.06 -0.06 927
0.30 -0.01 0.45 -1.00 9.80 0.02 0.06 -0.07 934
0.31 -0.01 0.44 -0.99 9.79 0.02 0.06 -0.07 942
0.32 -0.02 0.45 -1.02 9.75 0.02 0.06 -0.06 949
0.32 -0.02 0.42 -1.03 9.82 0.02 0.07 -0.07 956
0.31 -0.03 0.40 -0.98 9.81 0.03 0.07 -0.07 963
0.32 -0.02 0.46 -1.05 9.77 0.03 0.07 -0.07 970
0.32 -0.01 0.43 -1.03 9.82 0.04 0.07 -0.07 977
0.35 -0.02 0.47 -1.04 9.78 0.04 0.08 -0.07 985
0.32 -0.02 0.43 -1.01 9.21 0.04 0.08 -0.07 992
0.32 -0.01 0.48 -1.06 9.82 0.05 0.09 -0.07 999
0.31 -0.02 0.44 -1.07 9.82 0.06 0.09 -0.07 1006
0.32 -0.02 0.47 -1.02 9.80 0.07 0.10 -0.07 1013
0.34 -0.00 0.47 -1.03 9.79 0.07 0.11 -0.07 1020
0.35 -0.02 0.43 -1.02 9.81 0.09 0.12 -0.08 1028
0.35 -0.02 0.50 -1.08 9.82 0.11 0.13 -0.08 1035
0.36 -0.03 0.48 -1.09 9.85 0.12 0.15 -0.08 1042
0.36 -0.02 0.48 -1.06 9.90 0.15 0.17 -0.09 1049
0.36 -0.01 0.50 -1.04 9.97 0.19 0.21 -0.09 1056
0.37 -0.01 0.54 -1.11 10.00 0.24 0.24 -0.09 1063
0.36 -0.02 0.52 -1.14 10.10 0.31 0.27 -0.09 1072
0.36 -0.02 0.57 -1.14 10.15 0.39 0.31 -0.10 1079
0.35 -0.03 0.63 -1.20 10.20 0.50 0.32 -0.10 1085
0.32 -0.02 0.57 -1.13 10.47 0.65 0.32 -0.10 1093
0.32 -0.02 0.81 -1.37 10.75 0.75 0.28 -0.11 1100
0.33 -0.02 0.72 -1.43 10.68 0.86 0.23 -0.11 1107
0.33 -0.02 0.62 -1.46 10.85 0.89 0.17 -0.12 1115
0.32 -0.02 0.70 -1.51 10.66 0.95 0.12 -0.12 1122
0.30 -0.03 0.61 -1.51 10.67 0.99 0.09 -0.12 1128
0.29 -0.02 0.63 -1.64 10.04 0.97 0.04 -0.12 1135
0.30 -0.02 0.46 -1.71 10.17 0.96 0.02 -0.10 1142
0.31 -0.02 0.42 -1.72 9.95 0.96 -0.02 -0.08 1149
0.30 -0.02 0.64 -1.80 9.96 0.96 -0.02 -0.07 1157
0.29 -0.01 0.36 -2.00 10.51 0.95 -0.06 -0.07 1164
0.26 -0.02 0.47 -2.01 10.04 0.95 -0.03 -0.06 1171
0.23 -0.02 0.52 -2.11 10.09 1.00 -0.04 -0.06 1178
0.22 -0.01 0.63 -2.17 9.85 1.03 -0.03 -0.05 1185
0.22 -0.01 0.69 -2.34 9.67 1.03 -0.03 -0.06 1192
0.22 -0.02 0.81 -2.30 9.51 1.02 -0.04 -0.06 1200
0.19 -0.02 0.73 -2.51 9.64 1.02 -0.04 -0.08 1207
0.17 -0.02 0.74 -2.58 9.69 1.01 -0.03 -0.08 1214
0.15 -0.01 0.75 -2.65 9.56 1.01 -0.04 -0.10 1221
0.13 -0.01 0.88 -2.86 9.69 1.00 -0.08 -0.13 1228
0.13 -0.01 0.84 -2.83 9.66 1.01 -0.01 -0.11 1235
0.11 -0.01 0.69 -2.85 9.70 1.03 -0.04 -0.12 1243
0.12 -0.01 0.68 -3.01 9.65 1.04 -0.04 -0.13 1250
0.08 -0.01 0.80 -3.09 9.73 1.10 -0.05 -0.14 1257
0.10 -0.01 0.69 -3.09 9.69 1.09 -0.08 -0.14 1264
0.09 -0.00 0.58 -3.16 9.60 1.11 -0.09 -0.15 1271
0.11 -0.01 0.51 -3.33 9.72 1.14 -0.11 -0.15 1278
0.07 -0.01 0.45 -3.40 10.29 1.17 -0.11 -0.15 1286
0.05 -0.01 0.50 -3.50 9.81 1.20 -0.12 -0.15 1293
0.07 -0.01 0.50 -3.60 9.86 1.23 -0.12 -0.15 1300
0.07 -0.01 0.59 -3.72 9.98 1.28 -0.12 -0.15 1307
0.07 -0.01 0.60 -3.92 10.02 1.31 -0.14 -0.16 1314
0.07 -0.01 0.64 -3.96 9.98 1.36 -0.14 -0.17 1321
0.08 -0.01 0.70 -4.16 10.04 1.42 -0.17 -0.19 1329
0.07 -0.01 0.78 -4.27 10.14 1.46 -0.19 -0.21 1336
0.07 -0.01 0.83 -4.35 10.06 1.51 -0.20 -0.22 1343
0.06 -0.01 0.78 -4.60 10.23 1.55 -0.22 -0.25 1350
0.07 -0.01 0.78 -4.72 10.26 1.60 -0.24 -0.26 1357
0.07 -0.01 0.77 -4.86 10.36 1.64 -0.24 -0.28 1364
0.09 -0.01 0.75 -5.08 10.25 1.67 -0.23 -0.30 1372
0.09 -0.01 0.76 -5.24 10.35 1.70 -0.22 -0.32 1379
0.08 -0.01 0.75 -5.35 10.31 1.72 -0.19 -0.33 1386
0.07 -0.00 0.81 -5.43 10.29 1.74 -0.17 -0.35 1394
0.08 -0.01 0.92 -5.62 10.20 1.75 -0.14 -0.37 1400
0.07 -0.01 0.93 -5.65 10.11 1.76 -0.10 -0.39 1408
0.05 -0.00 0.72 -5.78 9.98 1.75 -0.06 -0.41 1415
0.05 -0.00 0.67 -5.90 10.19 1.74 -0.04 -0.42 1422
0.05 -0.01 0.75 -6.20 10.38 1.73 -0.03 -0.44 1429
0.04 0.00 0.92 -6.35 10.58 1.71 -0.01 -0.46 1436
0.06 -0.01 1.05 -6.54 10.80 1.68 0.03 -0.49 1443
0.06 -0.01 0.97 -6.68 11.19 1.62 0.05 -0.51 1451
0.05 -0.01 0.92 -6.70 11.34 1.57 0.07 -0.54 1458
0.05 -0.00 0.87 -6.64 11.08 1.53 0.04 -0.57 1465
0.04 -0.00 0.68 -6.36 10.52 1.44 -0.02 -0.60 1472
0.05 0.00 0.60 -6.12 9.99 1.36 -0.06 -0.62 1479
0.02 -0.00 0.57 -5.62 9.22 1.31 -0.10 -0.63 1486
0.00 0.00 0.51 -5.24 8.58 1.28 -0.12 -0.65 1494
0.01 -0.00 0.30 -4.45 7.82 1.30 -0.11 -0.66 1501
0.00 0.00 0.54 -4.11 6.52 1.28 -0.09 -0.67 1508
0.00 0.00 0.87 -3.83 5.28 1.21 -0.10 -0.71 1515
0.00 0.00 0.75 -3.86 4.57 1.13 -0.11 -0.74 1522
0.00 0.00 0.75 -3.26 4.75 1.05 -0.12 -0.79 1529
0.00 0.00 1.09 -2.59 4.99 0.98 -0.10 -0.84 1537
0.00 0.00 0.68 -2.75 5.48 0.88 -0.06 -0.86 1544
0.00 0.00 0.20 -3.60 6.22 0.80 -0.01 -0.88 1551
0.00 0.00 -0.11 -1.31 6.58 0.74 0.02 -0.89 1558
0.00 0.00 0.23 1.99 7.03 0.61 0.10 -0.92 1565
0.00 0.00 0.22 -0.04 7.01 0.33 0.14 -0.92 1572
0.00 0.00 -0.16 -1.25 8.81 -0.05 0.18 -0.89 1580
0.00 0.00 -0.19 -1.85 9.35 -0.38 0.28 -0.82 1587
0.00 0.00 -0.14 -1.95 9.05 -0.60 0.34 -0.74 1594
0.00 0.00 -0.13 -1.75 8.27 -0.79 0.37 -0.67 1601
0.00 -0.00 -0.24 -1.58 7.04 -0.91 0.34 -0.60 1608
0.00 0.00 -0.33 -1.88 5.52 -1.01 0.28 -0.53 1615
0.00 0.00 -0.29 -2.41 5.73 -1.04 0.22 -0.46 1623
0.00 0.00 -0.30 -3.02 5.77 -1.01 0.18 -0.38 1630
0.00 0.00 -0.27 -3.43 6.00 -0.93 0.17 -0.32 1637
0.00 0.00 -0.24 -3.80 6.57 -0.82 0.19 -0.25 1644
0.00 -0.00 -0.17 -3.91 7.17 -0.71 0.21 -0.17 1651
0.00 0.00 -0.11 -3.65 7.36 -0.64 0.24 -0.15 1658
0.00 0.00 -0.10 -3.19 7.70 -0.65 0.27 -0.11 1666
0.00 0.00 -0.13 -2.96 7.86 -0.71 0.30 -0.08 1673
0.00 0.00 -0.19 -2.95 8.15 -0.83 0.31 -0.05 1680
0.00 0.00 -0.32 -3.00 8.29 -0.89 0.31 -0.03 1687
0.00 0.00 -0.42 -3.04 8.31 -0.97 0.29 -0.00 1694
0.00 0.00 -0.42 -3.12 8.14 -1.02 0.26 0.02 1701
0.00 0.00 -0.36 -3.18 8.13 -1.07 0.24 0.03 1709
0.00 0.00 -0.26 -3.17 8.41 -1.10 0.22 0.04 1716
0.00 0.00 -0.06 -3.09 8.61 -1.16 0.24 0.04 1723
0.00 0.00 0.09 -3.08 8.69 -1.23 0.28 0.04 1730
0.00 0.00 0.08 -3.20 8.80 -1.30 0.34 0.04 1737
0.00 0.00 0.03 -3.27 8.89 -1.39 0.40 0.04 1744
0.00 0.00 -0.02 -3.42 8.96 -1.46 0.45 0.06 1752
0.00 0.00 -0.13 -3.49 9.00 -1.51 0.47 0.07 1759
0.00 0.00 -0.34 -3.65 8.93 -1.55 0.46 0.10 1766
0.00 -0.00 -0.45 -3.77 9.00 -1.57 0.42 0.14 1773
0.00 0.00 -0.46 -3.90 9.03 -1.56 0.38 0.18 1780
0.00 0.00 -0.49 -4.01 9.03 -1.54 0.33 0.22 1787
0.00 0.00 -0.46 -4.11 9.04 -1.51 0.28 0.26 1795
0.00 0.00 -0.30 -4.07 9.24 -1.47 0.25 0.28 1802
0.00 0.00 -0.12 -3.92 9.49 -1.45 0.24 0.30 1809
0.00 0.00 -0.01 -3.81 9.59 -1.44 0.25 0.30 1816
0.00 0.00 0.13 -3.65 9.83 -1.46 0.28 0.28 1823
0.00 0.00 0.31 -3.53 10.20 -1.49 0.30 0.27 1830
0.00 0.00 0.40 -3.41 10.22 -1.55 0.34 0.26 1838
0.00 0.00 0.41 -3.23 10.11 -1.61 0.37 0.26 1845
0.00 0.00 0.37 -3.14 9.97 -1.66 0.39 0.26 1852
0.00 -0.00 0.40 -3.12 9.76 -1.70 0.39 0.27 1859
0.00 0.00 0.26 -3.30 9.56 -1.71 0.37 0.30 1866
0.00 0.00 0.30 -3.23 9.44 -1.70 0.36 0.34 1873
0.00 0.00 0.42 -3.20 9.36 -1.67 0.35 0.39 1881
0.00 0.00 0.50 -3.25 9.29 -1.62 0.35 0.44 1888
0.00 0.00 0.48 -3.14 9.24 -1.57 0.35 0.48 1895
0.00 0.00 0.52 -3.02 9.42 -1.52 0.35 0.52 1902
0.00 0.00 0.45 -2.99 9.63 -1.48 0.36 0.56 1909
0.00 0.00 0.43 -3.02 9.86 -1.45 0.38 0.58 1916
0.00 0.00 0.42 -3.03 10.10 -1.44 0.40 0.59 1924
0.00 0.00 0.42 -3.06 10.44 -1.46 0.43 0.58 1931
0.00 0.00 0.53 -3.13 10.91 -1.49 0.45 0.57 1938
0.00 0.00 0.48 -3.11 11.11 -1.54 0.46 0.56 1945
0.00 0.00 0.39 -3.14 11.00 -1.60 0.46 0.56 1952
0.00 0.00 0.43 -3.26 10.80 -1.65 0.44 0.56 1959
0.00 0.00 0.45 -3.44 10.53 -1.66 0.41 0.56 1967
0.00 0.00 0.68 -3.59 10.33 -1.64 0.37 0.57 1974
0.00 -0.00 0.77 -3.72 10.13 -1.60 0.34 0.59 1981
0.00 0.00 1.03 -3.76 10.17 -1.54 0.32 0.60 1988
0.00 0.00 1.10 -3.81 10.27 -1.48 0.32 0.61 1995
0.00 0.00 1.08 -3.84 10.48 -1.41 0.33 0.62 2002
0.00 0.00 1.00 -3.88 10.66 -1.35 0.35 0.62 2010
0.00 0.00 0.88 -4.04 10.73 -1.31 0.36 0.62 2017
0.00 0.00 0.74 -4.17 10.71 -1.26 0.35 0.61 2024
0.00 0.00 0.59 -4.26 10.61 -1.21 0.31 0.60 2031
0.00 0.00 0.49 -4.35 10.52 -1.14 0.27 0.60 2038
0.00 0.00 0.53 -4.35 10.33 -1.06 0.23 0.60 2045
0.00 0.00 0.51 -4.37 10.24 -0.98 0.20 0.61 2053
0.00 0.00 0.56 -4.37 10.13 -0.87 0.15 0.60 2060
0.01 -0.00 0.61 -4.37 10.23 -0.77 0.11 0.58 2067
0.00 0.00 0.64 -4.37 10.44 -0.68 0.09 0.56 2074
0.00 0.00 0.71 -4.50 10.69 -0.59 0.05 0.52 2081
0.00 0.00 0.83 -4.51 11.03 -0.55 0.03 0.48 2088
0.00 0.00 1.07 -4.50 11.29 -0.53 0.05 0.44 2096
-0.00 0.00 1.45 -4.53 11.36 -0.58 0.13 0.38 2103
0.00 0.00 1.45 -8.14 11.55 -0.60 0.22 0.35 2110
0.00 0.00 0.37 -7.91 18.85 -0.20 0.30 0.35 2117
0.00 0.00 1.43 -2.53 5.02 -0.36 0.36 0.32 2124
0.00 0.00 -0.06 -6.42 9.92 -0.63 0.30 0.30 2131
0.00 0.00 -0.20 -8.63 16.02 -0.31 0.17 0.33 2139
0.00 0.00 -0.40 -7.69 7.67 -0.32 0.20 0.33 2146
0.00 -0.00 0.17 -5.79 5.77 -0.23 0.14 0.34 2153
0.00 0.00 -0.98 -9.52 7.00 -0.18 -0.04 0.35 2160
0.00 0.00 -0.48 -7.74 6.49 0.05 -0.05 0.34 2167
0.00 0.00 -1.09 -8.26 9.16 0.19 -0.12 0.33 2174
0.00 0.00 -1.66 -9.10 8.26 0.29 -0.13 0.29 2182
0.00 -0.00 -1.58 -8.70 6.10 0.45 -0.20 0.25 2189
0.00 0.00 -2.67 -9.74 8.41 0.62 -0.24 0.19 2196
-0.00 0.01 -3.04 -10.82 7.78 0.72 -0.37 0.13 2203
-0.00 0.01 -2.88 -11.16 7.36 0.88 -0.55 0.04 2210
-0.00 0.02 -1.39 -3.69 8.53 1.06 -0.66 -0.09 2217
-0.00 0.04 -0.41 -0.46 9.21 1.20 -0.65 -0.19 2225
0.00 0.08 -0.72 -0.76 13.20 1.29 -0.71 -0.31 2232
-0.01 0.06 2.02 -2.04 21.50 1.07 -1.02 -0.34 2239
-0.01 0.10 1.89 -0.81 13.47 0.21 -0.85 -0.16 2246
-0.01 0.13 0.21 -0.70 10.87 0.02 -0.41 -0.05 2253
-0.02 0.19 0.67 -1.06 10.34 -0.08 -0.22 -0.08 2260
-0.01 0.19 0.16 -1.01 10.13 -0.05 -0.15 -0.06 2269
0.00 0.18 0.14 -1.05 10.02 -0.05 -0.07 -0.08 2275
-0.02 0.20 0.03 -0.98 9.84 -0.04 -0.03 -0.08 2282
0.02 0.20 0.10 -1.15 9.98 -0.05 0.02 -0.07 2289
0.01 0.19 0.19 -1.06 9.91 -0.04 0.04 -0.06 2296
-0.02 0.21 0.12 -0.97 9.83 -0.02 0.06 -0.05 2304
-0.02 0.22 0.27 -0.91 9.82 -0.01 0.08 -0.05 2311
-0.01 0.25 0.34 -0.96 9.83 -0.01 0.09 -0.05 2318
0.01 0.25 0.33 -0.97 9.78 -0.02 0.09 -0.05 2325
0.04 0.24 0.36 -0.89 9.75 -0.02 0.09 -0.04 2332
0.03 0.26 0.33 -0.93 9.78 -0.03 0.10 -0.04 2339
0.05 0.27 0.34 -0.97 9.82 -0.03 0.10 -0.04 2347
0.04 0.29 0.29 -0.94 9.76 -0.04 0.10 -0.04 2354
0.05 0.30 0.32 -0.96 9.70 -0.05 0.10 -0.04 2361
0.04 0.30 0.33 -0.91 9.79 -0.05 0.09 -0.03 2368
0.04 0.29 0.19 -0.93 9.69 -0.05 0.09 -0.04 2375
0.04 0.33 0.26 -0.91 9.83 -0.06 0.09 -0.04 2382
0.04 0.35 0.37 -0.89 9.76 -0.06 0.10 -0.04 2390
0.05 0.40 0.43 -0.93 9.63 -0.06 0.11 -0.04 2397
0.04 0.38 0.54 -0.97 9.84 -0.06 0.14 -0.03 2404
0.04 0.44 0.25 -0.84 10.41 -0.05 0.15 -0.03 2411
0.03 0.48 0.43 -0.89 9.82 -0.06 0.17 -0.03 2418
0.01 0.50 0.35 -0.79 9.73 -0.05 0.18 -0.03 2425
0.01 0.55 0.49 -0.89 9.83 -0.05 0.19 -0.03 2433
0.03 0.52 0.38 -0.85 9.86 -0.05 0.20 -0.03 2440
0.00 0.51 0.42 -0.93 9.83 -0.04 0.20 -0.03 2447
-0.01 0.51 0.35 -0.82 9.84 -0.04 0.20 -0.02 2454
-0.05 0.53 0.40 -0.87 9.83 -0.04 0.20 -0.03 2461
-0.03 0.53 0.45 -0.85 9.81 -0.03 0.20 -0.02 2468
-0.01 0.54 0.52 -0.83 9.79 -0.02 0.19 -0.02 2476
0.00 0.55 0.42 -0.76 9.77 -0.02 0.19 -0.02 2483
0.00 0.52 0.54 -0.82 9.82 -0.01 0.17 -0.03 2490
-0.00 0.53 0.53 -0.82 9.73 -0.01 0.15 -0.03 2497
-0.01 0.53 0.49 -0.77 10.38 -0.00 0.13 -0.03 2504
-0.01 0.52 0.70 -0.90 9.77 -0.01 0.12 -0.04 2511
-0.01 0.49 0.59 -0.81 9.78 -0.01 0.10 -0.04 2519
-0.02 0.50 0.54 -0.86 9.75 -0.00 0.09 -0.04 2526
-0.03 0.50 0.54 -0.84 9.77 -0.00 0.08 -0.04 2533
-0.03 0.50 0.58 -0.84 10.37 -0.00 0.07 -0.04 2540
-0.05 0.49 0.56 -0.81 9.72 -0.00 0.06 -0.04 2547
-0.04 0.50 0.57 -0.83 9.82 0.00 0.04 -0.04 2554
-0.03 0.49 0.55 -0.80 9.78 0.01 0.03 -0.04 2562
-0.02 0.49 0.54 -0.81 9.79 0.01 0.00 -0.05 2569
-0.01 0.48 0.59 -0.82 9.80 0.02 -0.02 -0.05 2576
-0.00 0.47 0.58 -0.82 9.72 0.02 -0.04 -0.05 2583
0.01 0.48 0.53 -0.82 9.81 0.01 -0.04 -0.05 2590
0.02 0.48 0.48 -0.85 9.77 0.01 -0.03 -0.05 2597
0.03 0.47 0.46 -0.83 9.81 0.01 -0.01 -0.05 2605
0.02 0.46 0.50 -0.82 9.81 0.01 0.00 -0.04 2612
0.02 0.45 0.48 -0.83 9.80 0.01 0.01 -0.05 2619
0.03 0.43 0.46 -0.80 9.77 0.01 0.02 -0.04 2626
0.02 0.44 0.46 -0.83 9.80 0.00 0.03 -0.05 2633
0.03 0.44 0.49 -0.84 9.79 0.01 0.04 -0.05 2640
0.04 0.43 0.50 -0.83 9.78 0.01 0.05 -0.04 2648
0.04 0.40 0.54 -0.84 9.77 0.01 0.05 -0.04 2655
0.03 0.38 0.54 -0.84 9.78 0.01 0.04 -0.04 2662
0.03 0.37 0.51 -0.85 9.78 0.01 0.04 -0.05 2669
0.03 0.36 0.53 -0.87 9.79 0.00 0.03 -0.05 2676
0.04 0.36 0.53 -0.85 9.79 0.01 0.02 -0.05 2683
0.05 0.35 0.54 -0.86 9.79 0.00 -0.00 -0.05 2691
0.04 0.36 0.52 -0.85 9.79 0.00 -0.02 -0.05 2698
0.04 0.35 0.51 -0.84 9.79 0.00 -0.05 -0.05 2705
-0.02 0.36 0.49 -0.85 9.79 -0.00 -0.08 -0.05 2712
-0.00 0.36 0.55 -0.85 9.74 -0.01 -0.10 -0.05 2719
0.02 0.37 0.51 -0.80 9.75 -0.01 -0.13 -0.06 2726
0.06 0.35 0.48 -0.91 9.82 -0.01 -0.14 -0.06 2734
0.02 0.35 0.43 -0.87 9.81 -0.02 -0.14 -0.07 2741
0.03 0.35 0.45 -0.89 9.79 -0.02 -0.13 -0.07 2748
0.01 0.36 0.42 -0.88 9.80 -0.02 -0.12 -0.07 2755
0.03 0.36 0.39 -0.89 10.41 -0.02 -0.11 -0.08 2763
0.02 0.38 0.35 -0.90 9.79 -0.02 -0.09 -0.08 2769
0.03 0.38 0.37 -0.87 9.83 -0.03 -0.07 -0.08 2777
0.03 0.36 0.38 -0.86 9.83 -0.02 -0.06 -0.08 2784
0.04 0.36 0.33 -0.85 9.81 -0.02 -0.04 -0.07 2791
0.03 0.39 0.33 -0.88 9.21 -0.02 -0.03 -0.07 2798
0.06 0.40 0.35 -0.83 9.82 -0.01 -0.02 -0.07 2805
0.07 0.41 0.31 -0.88 9.81 -0.02 -0.01 -0.07 2812
0.09 0.41 0.32 -0.85 9.78 -0.01 0.00 -0.07 2820
0.08 0.40 0.35 -0.86 9.77 -0.01 0.00 -0.07 2827
0.08 0.38 0.35 -0.88 9.76 -0.00 0.01 -0.03 2834
0.07 0.39 0.34 -0.87 9.82 -0.00 0.02 -0.07 2841
0.08 0.39 0.32 -0.88 9.81 0.00 0.02 -0.07 2848
0.08 0.38 0.32 -0.87 9.81 0.00 0.03 -0.07 2855
0.08 0.38 0.31 -0.86 9.81 0.01 0.03 -0.07 2863
0.08 0.38 0.36 -0.86 9.82 0.01 0.04 -0.06 2870
0.08 0.36 0.34 -0.87 9.81 0.01 0.04 -0.06 2877
0.08 0.34 0.33 -0.89 9.80 0.01 0.05 -0.06 2884
0.09 0.34 0.34 -0.86 9.20 0.01 0.05 -0.07 2891
0.12 0.33 0.36 -0.89 9.80 0.01 0.05 -0.07 2898
0.09 0.32 0.32 -0.88 9.80 0.01 0.05 -0.07 2906
0.11 0.30 0.33 -0.89 9.77 0.01 0.05 -0.07 2913
0.10 0.30 0.34 -0.86 9.81 0.01 0.06 -0.07 2920
0.11 0.27 0.32 -0.91 9.82 0.01 0.06 -0.06 2927
0.11 0.26 0.38 -0.87 9.79 0.01 0.06 -0.07 2934
0.12 0.27 0.37 -0.90 9.81 0.01 0.06 -0.07 2941
0.11 0.23 0.37 -0.89 9.81 0.02 0.07 -0.07 2949
0.13 0.24 0.30 -0.89 9.79 0.02 0.07 -0.07 2956
0.12 0.22 0.33 -0.91 9.81 0.02 0.07 -0.07 2963
0.13 0.20 0.34 -0.90 9.80 0.02 0.07 -0.06 2970
0.14 0.21 0.34 -0.93 9.81 0.02 0.07 -0.06 2977
0.13 0.16 0.35 -0.91 9.80 0.02 0.08 -0.07 2984
0.12 0.15 0.37 -0.91 9.79 0.02 0.09 -0.07 2992
0.11 0.16 0.34 -0.91 9.80 0.02 0.09 -0.07 2999
0.10 0.09 0.35 -0.89 9.82 0.03 0.10 -0.07 3006
0.12 0.08 0.40 -0.90 9.79 0.03 0.11 -0.07 3013
0.12 0.08 0.43 -0.94 9.80 0.03 0.11 -0.07 3020
0.11 0.04 0.36 -0.93 9.77 0.02 0.11 -0.07 3027
0.12 0.07 0.40 -0.95 9.81 0.02 0.11 -0.07 3035
0.11 0.06 0.43 -0.94 9.82 0.03 0.11 -0.07 3042
0.09 0.06 0.43 -0.92 9.82 0.03 0.11 -0.06 3049
0.12 0.04 0.41 -0.94 9.82 0.03 0.11 -0.07 3056
0.13 0.03 0.42 -0.93 9.80 0.03 0.11 -0.07 3063
0.14 0.02 0.45 -0.96 9.78 0.03 0.11 -0.07 3070
0.13 0.01 0.46 -0.97 9.79 0.03 0.10 -0.07 3078
0.12 -0.01 0.44 -0.96 9.74 0.04 0.10 -0.07 3085
0.14 -0.01 0.45 -0.96 9.78 0.03 0.10 -0.07 3092
0.14 -0.00 0.42 -0.97 9.80 0.03 0.09 -0.07 3099
0.15 -0.01 0.45 -0.93 9.80 0.03 0.09 -0.06 3106
0.15 -0.01 0.46 -0.94 9.77 0.04 0.09 -0.06 3113
0.14 -0.01 0.45 -0.96 9.82 0.04 0.09 -0.06 3121
0.12 -0.01 0.48 -0.92 9.82 0.04 0.09 -0.06 3128
0.13 0.00 0.48 -0.99 9.80 0.05 0.09 -0.06 3135
0.13 0.01 0.50 -0.96 9.83 0.05 0.09 -0.06 3142
0.15 -0.01 0.48 -0.94 10.42 0.06 0.09 -0.06 3149
0.15 -0.01 0.49 -0.98 9.78 0.06 0.08 -0.07 3156
0.15 -0.01 0.48 -1.01 9.81 0.07 0.08 -0.03 3164
0.14 -0.01 0.48 -0.98 9.82 0.07 0.08 -0.07 3171
0.14 -0.01 0.50 -1.02 9.75 0.08 0.08 -0.07 3178
0.17 -0.01 0.46 -0.96 9.78 0.08 0.07 -0.07 3185
0.20 -0.02 0.43 -0.97 9.81 0.08 0.06 -0.07 3192
0.19 -0.02 0.50 -1.02 9.81 0.08 0.06 -0.07 3200
0.20 -0.02 0.50 -1.00 9.82 0.09 0.06 -0.07 3207
0.23 -0.02 0.49 -1.01 9.80 0.09 0.06 -0.08 3214
0.26 -0.02 0.55 -1.06 9.80 0.11 0.06 -0.08 3221
0.30 -0.02 0.53 -1.10 9.84 0.12 0.05 -0.09 3228
0.33 -0.02 0.56 -1.08 9.88 0.15 0.06 -0.10 3235
0.33 -0.02 0.56 -1.09 9.90 0.18 0.06 -0.11 3243
0.35 -0.02 0.48 -1.08 9.99 0.22 0.08 -0.12 3250
0.36 -0.02 0.53 -1.09 10.16 0.30 0.10 -0.13 3257
0.38 -0.01 0.45 -1.18 10.28 0.40 0.13 -0.14 3265
0.41 -0.02 0.64 -1.24 10.51 0.53 0.14 -0.15 3272
0.43 -0.02 0.71 -1.33 11.03 0.69 0.13 -0.17 3279
0.46 -0.03 0.71 -1.37 10.78 0.83 0.11 -0.19 3287
0.46 -0.03 0.68 -1.28 10.84 0.91 0.08 -0.21 3294
0.48 -0.03 0.65 -1.48 10.78 0.98 0.03 -0.20 3300
0.49 -0.02 0.31 -1.36 10.80 1.02 -0.01 -0.19 3308
0.50 -0.03 0.42 -1.62 11.04 1.05 -0.03 -0.17 3314
0.50 -0.03 0.35 -1.62 10.52 1.06 -0.07 -0.17 3322
0.48 -0.03 0.09 -1.58 10.68 1.06 -0.08 -0.15 3329
0.47 -0.03 -0.00 -1.63 10.66 1.07 -0.10 -0.13 3336
0.48 -0.02 0.33 -2.00 10.08 1.07 -0.12 -0.12 3343
0.47 -0.01 0.25 -1.93 10.00 1.06 -0.12 -0.11 3351
0.42 -0.02 0.23 -2.10 9.89 1.06 -0.14 -0.10 3357
0.36 -0.02 0.46 -2.20 9.76 1.05 -0.13 -0.09 3364
0.33 -0.02 0.44 -2.25 9.81 1.04 -0.11 -0.10 3372
0.25 -0.03 -0.00 -2.55 10.35 1.03 -0.14 -0.09 3379
0.24 -0.02 0.38 -2.36 9.66 1.04 -0.06 -0.10 3386
0.21 -0.01 0.51 -2.59 9.32 1.06 -0.05 -0.11 3393
0.19 -0.02 0.56 -2.65 9.59 1.07 -0.02 -0.12 3400
0.17 -0.02 -0.10 -2.21 8.98 1.07 -0.05 -0.13 3407
0.16 -0.02 0.27 -2.87 10.06 1.09 -0.02 -0.12 3415
0.16 -0.02 0.23 -2.88 9.99 1.15 -0.00 -0.12 3422
0.12 -0.01 0.23 -3.06 10.09 1.19 -0.01 -0.11 3429
0.07 -0.01 0.31 -3.13 9.81 1.22 -0.00 -0.10 3436
0.12 -0.01 0.38 -3.23 10.08 1.26 -0.01 -0.09 3443
0.08 -0.01 0.30 -3.31 9.60 1.29 -0.04 -0.10 3450
0.06 -0.01 0.41 -3.25 10.17 1.32 -0.03 -0.10 3458
0.06 -0.01 0.32 -3.58 9.81 1.35 -0.03 -0.10 3465
0.06 -0.00 0.36 -3.51 9.94 1.38 -0.01 -0.10 3472
0.05 -0.00 0.40 -3.82 9.88 1.40 -0.00 -0.10 3479
0.07 -0.01 0.31 -3.94 9.89 1.42 0.03 -0.10 3486
0.04 -0.00 0.37 -4.07 9.93 1.44 0.05 -0.10 3493
0.06 -0.01 0.46 -4.26 9.82 1.45 0.08 -0.10 3501
0.06 -0.01 0.58 -4.49 10.12 1.48 0.12 -0.10 3508
0.07 -0.00 0.57 -4.60 10.27 1.50 0.15 -0.11 3515
0.13 -0.01 0.59 -4.63 10.34 1.53 0.19 -0.11 3522
0.12 -0.01 0.68 -4.86 10.48 1.54 0.22 -0.12 3529
0.10 -0.01 0.73 -4.96 10.50 1.56 0.25 -0.13 3536
0.11 -0.01 0.84 -5.06 10.54 1.58 0.28 -0.14 3544
0.07 -0.01 0.90 -5.18 10.42 1.60 0.32 -0.15 3551
0.07 -0.01 0.78 -5.28 10.46 1.61 0.34 -0.17 3558
0.06 -0.01 0.58 -5.31 10.42 1.62 0.33 -0.18 3565
0.08 -0.01 0.58 -5.48 10.47 1.63 0.31 -0.19 3572
0.06 -0.01 0.60 -5.62 10.55 1.64 0.27 -0.20 3579
0.06 -0.01 0.66 -5.72 10.55 1.64 0.23 -0.21 3587
0.07 -0.01 0.74 -5.83 10.52 1.63 0.17 -0.23 3594
0.05 -0.00 0.76 -5.86 10.49 1.62 0.12 -0.26 3601
0.02 -0.00 0.80 -5.95 10.40 1.60 0.07 -0.28 3608
0.02 -0.00 0.79 -5.92 10.38 1.59 0.01 -0.30 3615
0.02 -0.00 0.80 -5.97 10.23 1.59 -0.02 -0.32 3622
0.00 0.00 0.84 -5.87 9.96 1.62 -0.05 -0.33 3630
0.01 -0.00 0.60 -5.65 9.69 1.65 -0.10 -0.35 3637
0.02 -0.00 0.58 -5.41 9.12 1.69 -0.13 -0.36 3644
0.01 -0.00 0.42 -5.42 8.76 1.73 -0.19 -0.37 3651
0.00 -0.00 0.42 -5.30 8.32 1.76 -0.26 -0.37 3658
0.00 0.00 0.29 -5.32 8.09 1.81 -0.27 -0.37 3665
0.00 0.00 0.24 -5.34 7.92 1.86 -0.30 -0.37 3673
0.00 0.00 0.22 -5.41 7.41 1.91 -0.32 -0.36 3680
0.01 -0.00 0.25 -5.47 7.32 1.93 -0.36 -0.36 3687
0.00 -0.00 0.27 -5.59 6.92 1.94 -0.39 -0.36 3694
0.00 0.00 0.30 -5.84 6.78 1.94 -0.43 -0.36 3701
0.00 0.00 0.22 -5.94 6.94 1.92 -0.45 -0.36 3708
0.00 0.00 0.25 -6.17 7.29 1.90 -0.46 -0.36 3716
0.00 -0.00 0.12 -6.34 7.32 1.87 -0.46 -0.36 3723
0.01 -0.00 0.07 -6.12 7.07 1.83 -0.45 -0.35 3730
0.00 0.00 0.07 -6.22 6.33 1.78 -0.47 -0.35 3737
0.00 0.00 0.07 -5.98 6.33 1.71 -0.51 -0.35 3744
0.00 0.00 0.28 -5.78 5.77 1.66 -0.53 -0.35 3751
0.00 0.00 0.47 -5.62 5.33 1.62 -0.54 -0.36 3759
0.00 0.00 0.36 -4.94 5.39 1.56 -0.52 -0.37 3766
0.00 0.00 0.44 -4.60 5.08 1.49 -0.49 -0.39 3773
0.00 0.00 0.38 -1.92 5.56 1.37 -0.41 -0.43 3780
0.00 0.00 0.03 -0.59 6.40 1.18 -0.33 -0.52 3787
0.00 0.00 0.38 0.88 7.26 0.86 -0.27 -0.62 3794
0.00 0.00 0.48 -1.57 8.60 0.37 -0.20 -0.74 3802
0.00 0.00 0.14 -2.72 9.26 0.02 -0.13 -0.79 3809
0.00 0.00 0.21 -2.95 8.97 -0.29 0.01 -0.82 3816
0.00 0.00 0.26 -2.70 8.11 -0.53 0.13 -0.84 3823
0.00 0.00 0.08 -2.13 7.44 -0.79 0.13 -0.85 3830
0.00 0.00 -0.11 -1.73 7.14 -1.07 0.10 -0.84 3837
0.00 0.00 -0.27 -1.79 6.81 -1.23 0.04 -0.82 3845
0.00 0.00 -0.42 -2.07 6.87 -1.44 -0.04 -0.78 3852
0.00 0.00 -0.24 -2.34 6.98 -1.59 -0.09 -0.71 3859
0.00 0.00 -0.01 -2.54 6.81 -1.73 -0.09 -0.65 3866
0.00 0.00 0.20 -2.76 6.40 -1.83 -0.06 -0.58 3873
0.00 0.00 0.34 -2.91 6.10 -1.88 -0.01 -0.52 3880
0.00 0.00 0.21 -3.11 6.09 -1.92 0.06 -0.46 3888
0.00 0.00 0.01 -3.39 6.39 -1.93 0.15 -0.38 3895
0.00 0.00 -0.13 -3.59 6.87 -1.93 0.23 -0.31 3902
0.00 0.00 -0.27 -3.48 7.03 -1.94 0.28 -0.23 3909
0.00 0.00 -0.37 -3.32 7.12 -1.96 0.29 -0.16 3916
0.00 0.00 -0.51 -3.11 7.19 -1.99 0.28 -0.09 3923
0.00 0.00 -0.47 -2.88 7.37 -2.03 0.25 -0.02 3931
0.00 -0.00 -0.35 -2.73 7.44 -2.08 0.25 0.02 3938
0.00 0.00 -0.19 -2.68 7.73 -2.13 0.27 0.08 3945
0.00 0.00 0.00 -2.70 7.85 -2.17 0.31 0.12 3952
0.00 0.00 0.15 -2.74 7.99 -2.23 0.41 0.14 3959
0.00 0.00 0.24 -2.85 8.43 -2.31 0.54 0.14 3966
0.00 0.00 0.31 -2.96 8.83 -2.34 0.68 0.14 3974
0.00 -0.00 0.20 -3.03 8.96 -2.40 0.84 0.13 3981
0.00 0.00 -0.00 -3.23 9.10 -2.44 0.96 0.12 3988
0.00 0.00 -0.19 -3.49 9.31 -2.47 1.02 0.11 3995
0.00 0.00 -0.48 -3.93 9.63 -2.46 1.03 0.10 4002
0.00 0.00 -0.74 -4.37 9.59 -2.42 0.99 0.10 4009
0.00 0.00 -1.01 -4.60 9.67 -2.33 0.89 0.11 4017
0.00 0.00 -1.16 -4.71 9.72 -2.25 0.77 0.12 4024
0.00 0.00 -1.16 -4.55 9.80 -2.16 0.65 0.13 4031
0.00 0.00 -1.03 -4.29 9.91 -2.08 0.53 0.13 4038
0.00 0.00 -0.80 -4.16 10.20 -2.03 0.45 0.12 4045
0.00 0.00 -0.47 -4.07 10.49 -2.00 0.40 0.11 4052
0.00 0.00 -0.18 -3.98 10.82 -1.99 0.41 0.09 4060
0.00 0.00 0.07 -3.88 10.96 -1.98 0.44 0.08 4067
0.00 0.00 0.27 -3.78 11.08 -1.98 0.51 0.07 4074
0.00 0.00 0.43 -3.76 11.06 -1.99 0.55 0.06 4081
0.00 0.00 0.51 -3.85 11.01 -1.98 0.60 0.07 4088
0.00 0.00 0.43 -4.01 10.89 -1.96 0.63 0.09 4096
0.00 0.00 0.40 -4.02 10.83 -1.91 0.63 0.11 4103
0.00 0.00 0.34 -4.14 10.73 -1.84 0.63 0.13 4110
0.00 0.00 0.29 -4.13 10.74 -1.77 0.61 0.16 4117
0.00 0.00 0.26 -4.15 10.75 -1.68 0.59 0.17 4124
0.00 0.00 0.34 -4.37 10.94 -1.60 0.56 0.18 4131
0.00 0.00 0.45 -4.48 11.27 -1.54 0.54 0.17 4139
0.00 0.00 0.51 -4.49 11.99 -1.49 0.54 0.17 4146
0.00 0.00 0.58 -4.49 12.43 -1.50 0.57 0.14 4153
0.00 0.00 0.62 -4.37 12.50 -1.55 0.57 0.13 4160
0.00 0.00 0.66 -4.33 12.36 -1.63 0.57 0.11 4167
0.00 0.00 0.62 -4.41 12.05 -1.68 0.54 0.10 4174
0.00 0.00 0.69 -4.58 11.55 -1.70 0.51 0.09 4182
0.00 -0.00 0.86 -4.68 10.83 -1.68 0.49 0.10 4189
0.00 0.00 1.04 -4.80 10.53 -1.62 0.47 0.11 4196
0.00 0.00 1.15 -4.85 10.24 -1.51 0.46 0.12 4203
0.00 0.00 1.10 -4.82 10.07 -1.41 0.47 0.15 4210
0.00 0.00 0.88 -4.72 9.91 -1.27 0.48 0.19 4217
0.00 0.00 0.50 -4.64 9.70 -1.12 0.46 0.24 4225
0.00 0.00 0.14 -4.59 9.57 -1.00 0.41 0.32 4232
0.00 0.00 -0.22 -4.56 9.64 -0.85 0.31 0.38 4239
0.00 0.00 -0.52 -4.51 9.71 -0.72 0.18 0.46 4246
0.00 0.00 -0.58 -4.33 9.83 -0.61 0.06 0.52 4253
0.00 0.00 -0.37 -4.15 10.25 -0.55 -0.07 0.57 4260
0.00 -0.00 0.55 -3.94 10.82 -0.54 -0.13 0.61 4268
0.00 -0.00 0.50 -3.74 11.34 -0.60 -0.13 0.62 4275
0.00 0.00 1.10 -3.71 11.50 -0.69 -0.05 0.62 4282
0.00 0.00 1.47 -3.85 11.22 -0.81 0.05 0.60 4289
0.00 0.00 1.67 -4.99 10.73 -0.91 0.20 0.57 4296
0.00 0.00 -0.53 -13.67 25.23 -0.53 0.46 0.62 4303
0.00 0.00 2.25 -2.83 0.05 -0.33 0.48 0.62 4311
0.00 0.00 0.17 -6.69 5.09 -0.51 0.32 0.55 4318
0.00 0.00 -0.22 -12.35 12.44 -0.21 0.18 0.54 4325
0.00 0.00 0.01 -8.79 5.44 -0.11 0.23 0.55 4332
0.00 0.00 -0.81 -7.79 8.28 -0.06 0.16 0.48 4339
0.00 0.00 -1.92 -11.24 11.38 0.02 0.01 0.43 4346
0.01 -0.00 -2.92 -14.18 7.41 0.14 -0.08 0.38 4354
0.00 0.00 -1.19 -12.32 2.10 0.35 -0.18 0.33 4361
0.00 0.00 -1.82 -15.37 5.52 0.50 -0.38 0.24 4368
0.00 0.00 -2.81 -16.29 4.40 0.75 -0.55 0.15 4375
-0.00 0.02 -3.15 -17.22 4.21 1.09 -0.62 0.07 4382
-0.00 0.03 -1.94 -3.85 6.79 1.48 -0.82 -0.00 4389
0.01 0.03 -0.90 -0.93 9.98 1.74 -0.93 -0.14 4397
-0.00 0.04 0.61 -3.69 35.62 1.61 -1.50 -0.24 4404
-0.01 0.08 0.16 -1.03 12.63 -0.19 -0.20 0.00 4411
-0.01 0.10 -0.28 -1.67 10.37 -0.24 -0.02 -0.04 4418
-0.02 0.17 0.94 -0.13 9.56 -0.25 0.00 -0.07 4425
-0.01 0.20 -0.08 -0.92 10.18 -0.14 -0.05 -0.11 4432
-0.00 0.22 0.32 -1.05 9.95 -0.07 -0.00 -0.10 4440
-0.02 0.21 0.31 -1.02 9.93 -0.06 0.02 -0.07 4447
-0.00 0.20 0.25 -1.09 10.07 -0.05 0.03 -0.06 4454
-0.02 0.22 0.20 -1.00 9.91 -0.01 0.04 -0.05 4461
0.01 0.19 0.18 -0.89 9.81 0.00 0.06 -0.06 4468
0.01 0.22 0.38 -1.02 9.88 0.01 0.06 -0.06 4475
0.01 0.22 0.36 -1.03 9.87 0.02 0.05 -0.06 4483
-0.00 0.22 0.32 -0.96 9.80 0.01 0.04 -0.06 4490
0.00 0.19 0.34 -0.94 9.81 0.01 0.03 -0.06 4497
-0.01 0.20 0.34 -0.93 9.81 -0.03 0.03 -0.06 4504
-0.00 0.21 0.31 -0.96 9.83 -0.01 0.03 -0.04 4511
0.02 0.20 0.32 -0.99 9.78 -0.02 0.03 -0.07 4518
0.00 0.21 0.39 -0.93 9.76 -0.02 0.04 -0.06 4526
-0.01 0.21 0.28 -0.97 9.77 -0.03 0.06 -0.06 4533
-0.00 0.21 0.28 -1.00 9.83 -0.03 0.07 -0.05 4540
-0.01 0.23 0.26 -0.96 9.87 -0.03 0.09 -0.06 4547
0.00 0.24 0.34 -0.95 9.85 -0.03 0.09 -0.05 4554
0.01 0.23 0.34 -0.91 9.86 -0.03 0.10 -0.05 4561
-0.00 0.26 0.36 -0.99 9.81 -0.03 0.10 -0.05 4569
-0.00 0.23 0.35 -0.91 9.80 -0.03 0.10 -0.05 4576
-0.02 0.27 0.36 -0.98 9.73 -0.03 0.10 -0.05 4583
-0.02 0.26 0.35 -0.94 9.82 -0.04 0.09 -0.04 4590
-0.01 0.30 0.40 -1.00 9.80 -0.04 0.11 -0.04 4597
0.00 0.30 0.32 -0.98 9.84 -0.04 0.12 -0.04 4604
-0.01 0.29 0.41 -0.93 9.75 -0.04 0.13 -0.04 4612
-0.01 0.31 0.44 -0.87 9.81 -0.04 0.13 -0.04 4619
-0.02 0.34 0.37 -0.79 9.92 -0.03 0.12 -0.04 4626
-0.01 0.35 0.37 -0.82 9.82 -0.03 0.13 -0.04 4633
0.00 0.36 0.09 -0.89 9.78 -0.04 0.13 -0.04 4640
0.01 0.32 0.20 -0.88 9.71 -0.03 0.15 -0.04 4647
0.01 0.32 0.43 -0.80 9.79 -0.03 0.15 -0.04 4655
0.00 0.29 0.39 -0.84 9.78 -0.03 0.15 -0.04 4662
-0.01 0.34 0.47 -0.93 9.70 -0.03 0.16 -0.04 4669
0.00 0.36 0.46 -0.92 9.74 -0.03 0.17 -0.04 4676
-0.00 0.36 0.60 -0.92 9.75 -0.02 0.17 -0.04 4683
0.01 0.37 0.45 -0.84 9.81 -0.02 0.17 -0.04 4690
-0.01 0.36 0.49 -0.86 9.78 -0.01 0.17 -0.04 4698
-0.00 0.34 0.59 -0.88 9.76 -0.00 0.16 -0.04 4705
-0.01 0.35 0.06 -0.84 9.82 -0.00 0.16 -0.05 4712
-0.01 0.34 0.58 -0.88 9.76 0.00 0.14 -0.04 4719
0.00 0.35 0.80 -0.99 9.78 0.00 0.13 -0.05 4726
-0.00 0.33 0.57 -0.88 9.79 0.01 0.12 -0.05 4733
-0.00 0.32 0.46 -0.90 9.81 0.01 0.11 -0.05 4741
-0.01 0.32 0.56 -0.87 9.79 0.01 0.11 -0.05 4748
-0.01 0.32 0.45 -0.86 10.35 0.01 0.09 -0.05 4755
-0.01 0.29 0.58 -0.89 9.78 0.01 0.08 -0.05 4762
0.01 0.28 0.54 -0.89 9.78 0.01 0.07 -0.06 4769
0.01 0.28 0.55 -0.89 9.81 0.01 0.05 -0.06 4776
-0.01 0.28 0.57 -0.88 9.81 0.01 0.03 -0.06 4784
-0.01 0.27 0.56 -0.92 9.77 0.01 0.02 -0.05 4791
-0.01 0.27 0.59 -0.91 9.79 0.01 0.00 -0.06 4798
-0.00 0.27 0.57 -0.89 9.79 0.02 -0.01 -0.05 4805
0.01 0.23 0.57 -0.88 9.79 0.02 -0.03 -0.06 4812
0.01 0.21 0.52 -0.92 9.82 0.02 -0.04 -0.06 4819
0.01 0.19 0.52 -0.91 9.78 0.02 -0.04 -0.06 4827
0.02 0.20 0.53 -0.90 9.74 0.01 -0.03 -0.06 4834
0.02 0.19 0.46 -0.89 9.81 0.01 -0.02 -0.06 4841
0.05 0.16 0.48 -0.88 9.81 0.01 -0.00 -0.06 4848
0.09 0.16 0.51 -0.92 9.82 0.01 0.02 -0.06 4855
0.04 0.18 0.49 -0.91 9.75 0.01 0.03 -0.06 4862
0.06 0.17 0.49 -0.90 9.78 0.01 0.04 -0.06 4870
0.05 0.17 0.52 -0.92 9.81 0.01 0.04 -0.06 4877
0.05 0.15 0.50 -0.94 9.79 0.01 0.04 -0.06 4884
0.06 0.17 0.49 -0.97 9.78 0.01 0.04 -0.05 4891
0.05 0.16 0.51 -0.92 9.81 0.01 0.03 -0.05 4898
0.05 0.14 0.53 -0.93 9.79 0.00 0.02 -0.06 4905
0.05 0.14 0.50 -0.93 9.80 0.00 0.02 -0.06 4913
0.04 0.16 0.51 -0.92 9.76 -0.00 0.01 -0.06 4920
0.05 0.17 0.56 -0.94 9.71 -0.00 -0.01 -0.06 4927
0.07 0.17 0.52 -0.92 9.75 0.00 -0.03 -0.06 4934
0.07 0.16 0.50 -0.95 9.77 -0.01 -0.05 -0.06 4941
0.07 0.15 0.50 -0.95 9.76 -0.01 -0.06 -0.07 4948
0.07 0.13 0.51 -0.96 9.77 -0.01 -0.06 -0.06 4956
0.07 0.14 0.46 -0.96 9.82 -0.01 -0.05 -0.06 4963
0.09 0.14 0.47 -0.94 9.81 -0.01 -0.03 -0.06 4970
0.11 0.16 0.40 -0.93 9.80 0.00 -0.01 -0.06 4977
0.10 0.15 0.41 -0.91 9.80 0.00 0.00 -0.06 4984
0.07 0.13 0.44 -0.97 9.81 0.00 0.01 -0.06 4992
0.07 0.14 0.41 -0.94 9.80 0.00 0.02 -0.06 4999
0.09 0.16 0.42 -0.97 9.80 0.00 0.02 -0.06 5006
0.10 0.16 0.40 -0.95 9.82 0.00 0.03 -0.06 5013
0.12 0.15 0.47 -0.97 9.78 0.00 0.03 -0.06 5020
0.12 0.11 0.44 -0.93 9.79 0.00 0.03 -0.06 5027
0.13 0.10 0.46 -0.94 9.82 -0.00 0.03 -0.06 5035
0.14 0.11 0.48 -0.97 9.81 0.00 0.03 -0.06 5042
0.15 0.05 0.44 -0.96 9.20 0.01 0.03 -0.06 5049
0.16 0.05 0.46 -0.94 9.81 0.00 0.03 -0.06 5056
0.17 0.04 0.46 -0.94 9.78 0.00 0.03 -0.06 5063
0.17 0.04 0.44 -0.97 9.79 0.01 0.03 -0.06 5070
0.17 0.02 0.42 -0.99 9.80 0.00 0.02 -0.06 5078
0.15 0.03 0.45 -0.98 9.77 0.00 0.02 -0.06 5085
0.16 0.06 0.40 -0.94 9.78 0.00 0.02 -0.06 5092
0.18 0.07 0.44 -0.98 9.76 0.00 0.03 -0.06 5099
0.18 0.05 0.46 -0.97 9.81 0.01 0.03 -0.06 5106
0.19 0.07 0.42 -0.94 9.80 0.01 0.04 -0.06 5113
0.20 0.04 0.42 -0.97 9.81 0.01 0.04 -0.06 5121
0.20 0.04 0.42 -0.95 9.79 0.01 0.04 -0.06 5128
0.21 0.05 0.41 -0.99 9.78 0.01 0.04 -0.06 5135
0.22 0.03 0.42 -0.97 10.41 0.01 0.04 -0.06 5142
0.23 0.03 0.44 -0.98 9.80 0.01 0.04 -0.06 5149
0.23 0.01 0.43 -0.98 9.78 0.01 0.05 -0.06 5156
0.23 -0.01 0.40 -1.00 9.80 0.01 0.05 -0.06 5164
0.24 -0.01 0.45 -0.94 9.80 0.02 0.05 -0.06 5171
0.25 -0.00 0.45 -0.99 10.38 0.02 0.05 -0.06 5178
0.27 -0.00 0.44 -1.01 9.80 0.02 0.05 -0.06 5185
0.27 -0.01 0.43 -1.00 9.81 0.02 0.05 -0.06 5192
0.28 -0.01 0.41 -1.00 9.78 0.02 0.05 -0.06 5199
0.28 -0.01 0.45 -1.01 9.80 0.02 0.05 -0.06 5207
0.29 -0.02 0.47 -1.03 9.81 0.02 0.05 -0.06 5214
0.31 -0.00 0.45 -1.03 9.80 0.02 0.05 -0.06 5221
0.35 -0.01 0.44 -0.99 9.81 0.02 0.05 -0.07 5228
0.33 -0.01 0.46 -1.03 9.79 0.02 0.05 -0.06 5235
0.32 -0.02 0.47 -1.02 9.81 0.03 0.06 -0.06 5242
0.31 -0.01 0.42 -1.00 9.82 0.03 0.06 -0.06 5250
0.31 -0.03 0.46 -1.00 9.79 0.03 0.06 -0.06 5257
0.33 -0.01 0.43 -0.99 9.82 0.04 0.06 -0.07 5264
0.37 -0.02 0.42 -1.01 9.21 0.04 0.06 -0.06 5271
0.34 -0.01 0.44 -1.02 9.81 0.05 0.06 -0.06 5278
0.37 -0.03 0.45 -1.03 9.79 0.06 0.07 -0.06 5285
0.37 -0.02 0.43 -1.01 9.83 0.08 0.07 -0.06 5293
0.38 -0.02 0.45 -1.03 9.81 0.09 0.08 -0.06 5300
0.40 -0.02 0.45 -1.06 9.81 0.11 0.09 -0.06 5307
0.42 -0.03 0.48 -1.05 9.82 0.12 0.10 -0.06 5314
0.42 -0.02 0.46 -1.09 9.82 0.14 0.11 -0.06 5321
0.42 -0.03 0.43 -1.09 9.82 0.15 0.11 -0.06 5328
0.44 -0.02 0.47 -1.06 9.80 0.17 0.11 -0.06 5336
0.46 -0.01 0.48 -1.10 9.83 0.19 0.12 -0.06 5343
0.46 -0.02 0.47 -1.14 9.83 0.22 0.13 -0.06 5350
0.48 -0.03 0.45 -1.13 9.86 0.25 0.13 -0.06 5357
0.49 -0.03 0.48 -1.17 9.85 0.29 0.13 -0.06 5364
0.49 -0.02 0.49 -1.18 9.89 0.32 0.12 -0.06 5371
0.48 -0.02 0.50 -1.20 9.85 0.36 0.12 -0.06 5379
0.52 -0.02 0.52 -1.23 9.81 0.38 0.11 -0.07 5386
0.56 -0.03 0.60 -1.32 9.93 0.39 0.11 -0.07 5393
0.55 -0.03 0.58 -1.32 9.82 0.40 0.10 -0.07 5400
0.56 -0.03 0.51 -1.38 9.82 0.39 0.10 -0.07 5407
0.55 -0.03 0.55 -1.37 9.84 0.39 0.09 -0.07 5414
0.56 -0.03 0.57 -1.41 9.74 0.39 0.09 -0.07 5422
0.60 -0.03 0.59 -1.50 9.87 0.39 0.09 -0.08 5429
0.62 -0.03 0.59 -1.52 9.85 0.41 0.08 -0.08 5436
0.62 -0.03 0.67 -1.57 9.88 0.42 0.08 -0.09 5443
0.62 -0.04 0.65 -1.61 9.94 0.44 0.07 -0.10 5450
0.65 -0.04 0.55 -1.62 9.89 0.45 0.08 -0.10 5457
0.70 -0.03 0.59 -1.65 9.86 0.45 0.08 -0.11 5465
0.70 -0.02 0.53 -1.66 9.78 0.45 0.08 -0.10 5472
0.72 -0.03 0.51 -1.73 9.82 0.44 0.08 -0.10 5479
0.74 -0.03 1.20 -1.71 9.86 0.45 0.07 -0.10 5486
0.74 -0.04 0.59 -1.75 9.84 0.46 0.07 -0.11 5493
0.73 -0.03 0.63 -1.79 9.81 0.47 0.08 -0.11 5500
0.74 -0.03 0.57 -2.45 9.74 0.47 0.08 -0.11 5508
0.74 -0.02 0.76 -1.96 9.85 0.49 0.07 -0.12 5515
0.76 -0.04 0.67 -1.92 10.10 0.52 0.07 -0.13 5523
0.75 -0.04 0.62 -2.03 9.93 0.55 0.07 -0.12 5529
0.75 -0.04 0.61 -2.05 10.01 0.58 0.06 -0.13 5536
0.71 -0.03 0.51 -2.11 9.95 0.61 0.05 -0.13 5543
0.70 -0.03 0.67 -2.18 10.04 0.65 0.04 -0.13 5551
0.68 -0.03 0.49 -2.13 10.32 0.68 0.05 -0.13 5559
0.66 -0.04 0.64 -2.32 10.27 0.72 0.04 -0.12 5566
0.61 -0.03 0.47 -2.27 10.54 0.78 0.02 -0.12 5572
0.55 -0.03 0.66 -2.38 10.60 0.85 0.02 -0.13 5579
0.52 -0.03 0.90 -2.40 10.68 0.94 0.00 -0.13 5586
0.50 -0.02 0.77 -2.56 10.59 1.01 -0.02 -0.15 5595
0.48 -0.02 0.58 -2.58 10.82 1.11 -0.04 -0.16 5602
0.45 -0.02 0.49 -2.65 10.44 1.20 -0.07 -0.16 5609
0.42 -0.02 1.19 -2.67 10.29 1.26 -0.10 -0.15 5616
0.39 -0.03 0.41 -2.78 10.14 1.31 -0.07 -0.15 5623
0.34 -0.02 0.37 -2.97 10.08 1.36 -0.04 -0.13 5630
0.33 -0.01 0.41 -3.02 9.81 1.41 -0.04 -0.11 5637
0.27 -0.01 0.51 -3.43 9.89 1.42 -0.07 -0.09 5644
0.19 -0.01 0.46 -3.20 10.19 1.46 0.01 -0.08 5651
0.15 -0.01 0.35 -3.32 9.82 1.51 0.03 -0.07 5658
0.18 -0.02 0.37 -3.54 9.57 1.57 0.05 -0.05 5665
0.17 -0.01 0.41 -3.69 9.53 1.55 0.08 -0.04 5672
0.10 -0.00 0.42 -3.82 9.61 1.57 0.11 -0.03 5680
0.08 -0.01 0.53 -3.96 9.49 1.57 0.13 -0.03 5687
0.10 -0.01 0.58 -4.03 9.48 1.58 0.15 -0.04 5694
0.08 -0.01 0.51 -4.18 9.48 1.58 0.15 -0.04 5701
0.08 -0.01 0.65 -4.33 9.28 1.59 0.13 -0.05 5708
0.05 -0.00 0.87 -4.29 9.04 1.62 0.12 -0.06 5715
0.08 -0.01 0.80 -4.46 9.37 1.64 0.09 -0.09 5723
0.09 -0.01 0.76 -4.63 9.38 1.66 0.08 -0.09 5730
0.09 -0.01 0.78 -4.77 9.13 1.69 0.07 -0.10 5737
0.08 -0.01 0.63 -4.87 9.10 1.69 0.06 -0.11 5744
0.07 -0.01 0.65 -4.99 8.70 1.72 0.09 -0.10 5751
0.08 -0.01 0.37 -5.37 9.25 1.71 0.08 -0.10 5758
0.11 -0.01 0.32 -5.51 9.05 1.69 0.10 -0.08 5766
0.12 -0.01 0.28 -5.45 8.77 1.67 0.12 -0.05 5773
0.11 -0.01 0.38 -5.36 8.30 1.66 0.14 -0.04 5780
0.11 -0.01 0.46 -5.33 8.07 1.67 0.16 -0.03 5787
0.09 -0.01 0.46 -5.59 8.19 1.66 0.18 -0.02 5794
0.07 -0.01 0.41 -5.76 8.21 1.66 0.18 -0.01 5801
0.09 -0.01 0.44 -6.03 8.35 1.65 0.18 0.00 5809
0.08 -0.01 0.38 -6.36 8.49 1.62 0.18 0.02 5816
0.07 -0.01 0.32 -6.50 8.42 1.57 0.18 0.02 5823
0.07 -0.01 0.36 -6.47 8.25 1.53 0.16 0.04 5830
0.07 -0.01 0.43 -6.53 8.18 1.49 0.14 0.05 5837
0.08 -0.00 0.42 -6.50 8.07 1.46 0.10 0.05 5844
0.08 -0.01 0.49 -6.72 8.05 1.44 0.06 0.05 5852
0.08 -0.01 0.66 -6.88 8.47 1.40 0.03 0.04 5859
0.08 -0.01 1.13 -7.39 9.20 1.36 0.06 0.05 5866
0.07 -0.01 1.60 -7.59 9.29 1.33 0.13 0.04 5873
0.07 -0.01 1.66 -7.64 9.23 1.31 0.21 0.02 5880
0.06 -0.01 1.43 -7.84 9.43 1.28 0.26 -0.01 5888
0.07 -0.01 1.02 -7.92 9.97 1.23 0.22 -0.03 5895
0.04 -0.00 0.53 -7.75 9.54 1.15 0.10 -0.05 5902
0.00 -0.00 0.33 -7.63 8.89 1.09 -0.04 -0.08 5909
0.00 0.00 0.49 -7.33 8.62 1.02 -0.21 -0.08 5916
0.00 0.00 1.08 -7.31 8.75 0.95 -0.33 -0.09 5923
0.00 -0.00 1.46 -7.10 8.65 0.88 -0.36 -0.09 5931
0.01 -0.00 2.01 -6.64 8.54 0.81 -0.32 -0.10 5938
0.00 -0.00 2.33 -6.33 7.22 0.75 -0.24 -0.13 5945
0.00 -0.00 2.63 -6.16 6.09 0.64 -0.19 -0.16 5952
0.00 0.00 2.71 -5.75 5.46 0.56 -0.12 -0.21 5959
0.00 0.00 2.70 -5.28 5.09 0.51 -0.06 -0.30 5966
0.01 -0.00 2.76 -5.01 4.91 0.49 0.00 -0.33 5974
0.00 0.00 2.44 -4.22 4.91 0.49 0.08 -0.41 5981
0.00 0.00 2.26 -3.48 5.62 0.48 0.14 -0.46 5988
0.00 0.00 2.00 -4.45 6.13 0.44 0.21 -0.51 5995
0.00 0.00 1.92 -4.47 6.66 0.45 0.24 -0.55 6002
0.00 0.00 1.24 1.60 7.01 0.45 0.25 -0.60 6009
0.00 0.00 1.25 3.41 7.21 0.24 0.22 -0.70 6017
0.00 0.00 1.17 -1.13 8.46 -0.27 0.11 -0.76 6024
0.00 0.00 0.90 -2.40 9.59 -0.66 0.00 -0.78 6031
0.00 0.00 0.93 -2.54 9.44 -0.75 -0.03 -0.83 6038
0.00 0.00 0.61 -2.52 8.37 -0.71 -0.07 -0.89 6045
0.00 0.00 0.36 -2.36 6.87 -0.65 -0.12 -0.93 6052
0.00 -0.00 0.43 -2.32 5.86 -0.55 -0.16 -0.96 6060
0.00 0.00 0.63 -2.47 5.61 -0.47 -0.21 -0.99 6067
0.00 0.00 0.77 -2.71 5.70 -0.41 -0.23 -1.01 6074
0.00 0.00 0.86 -2.89 6.27 -0.34 -0.23 -1.00 6081
0.00 0.00 1.01 -3.05 7.03 -0.27 -0.18 -0.94 6088
0.00 0.00 1.08 -3.09 7.39 -0.30 -0.11 -0.84 6095
0.00 0.00 0.97 -2.98 7.58 -0.35 -0.05 -0.76 6103
0.00 0.00 0.87 -2.80 7.94 -0.42 -0.02 -0.62 6110
0.00 0.00 0.94 -2.83 8.36 -0.55 0.03 -0.49 6117
0.00 0.00 1.14 -3.06 8.58 -0.70 0.09 -0.33 6124
0.00 0.00 1.10 -3.44 8.46 -0.83 0.15 -0.18 6131
0.00 0.00 0.93 -3.74 8.37 -0.96 0.22 -0.05 6138
0.00 0.00 0.69 -4.14 8.25 -1.05 0.27 0.09 6146
0.00 0.00 0.02 -6.10 7.97 -1.12 0.30 0.19 6153
0.00 0.00 -0.97 -12.01 13.17 -1.17 0.35 0.25 6160
0.00 0.00 0.32 -5.59 11.88 -1.02 0.23 0.14 6167
0.00 0.00 -1.63 -13.50 5.25 -0.86 0.20 0.12 6174
0.00 0.00 -0.51 -7.17 9.92 -0.63 0.12 -0.05 6181
0.00 0.00 -1.44 -16.26 3.90 -0.46 0.02 -0.20 6189
0.00 0.00 -0.96 -19.89 2.76 -0.12 -0.16 -0.33 6196
0.00 0.00 1.18 -3.77 7.01 0.10 -0.03 -0.35 6203
0.00 0.00 -0.38 -11.38 1.04 0.16 0.01 -0.37 6210
0.00 0.00 1.29 -1.55 6.06 -0.01 0.15 -0.39 6217
0.00 -0.00 0.97 -6.38 4.17 -0.49 0.34 -0.23 6224
0.00 0.00 4.39 6.28 10.11 -0.90 0.52 -0.13 6232
0.00 0.00 2.01 -2.17 5.64 -1.37 0.59 0.05 6239
0.00 0.00 0.67 -5.25 9.44 -1.44 0.59 0.18 6246
0.00 0.00 -0.01 -6.80 10.73 -1.53 0.52 0.29 6253
0.00 0.00 -0.55 -5.74 9.08 -1.48 0.44 0.33 6260
0.00 0.00 -0.36 -3.33 7.79 -1.31 0.32 0.35 6267
0.00 0.00 -0.40 -2.14 5.61 -1.20 0.25 0.35 6275
0.00 0.00 -0.19 -1.87 5.19 -1.09 0.23 0.33 6282
0.00 0.00 0.11 -2.04 5.95 -1.02 0.23 0.29 6289
0.00 0.00 0.05 -2.13 7.04 -0.94 0.26 0.24 6296
0.00 0.00 -0.04 -1.94 7.59 -0.86 0.31 0.20 6303
0.00 0.00 -0.26 -1.49 7.51 -0.82 0.33 0.16 6310
0.00 0.00 -0.60 -1.15 7.52 -0.81 0.30 0.15 6318
0.00 0.00 -0.84 -0.98 7.90 -0.82 0.21 0.14 6325
0.00 0.00 -0.00 -0.78 8.90 -0.85 0.12 0.14 6332
0.00 0.00 0.02 -0.42 10.18 -0.94 0.09 0.15 6339
0.00 0.00 0.68 -0.10 10.99 -1.14 0.17 0.16 6346
0.00 0.00 0.79 0.06 10.76 -1.38 0.26 0.16 6353
0.00 0.00 0.59 -0.17 10.39 -1.70 0.33 0.14 6361
0.00 0.00 0.27 -0.90 10.20 -1.93 0.33 0.10 6368
0.00 0.00 0.11 -1.69 10.05 -2.10 0.28 0.07 6375
0.00 0.00 0.19 -2.31 9.68 -2.15 0.19 0.01 6382
0.00 0.00 0.30 -3.00 9.27 -2.12 0.12 -0.05 6389
0.00 0.00 0.84 -3.39 10.42 -2.06 0.06 -0.10 6396
0.00 0.00 1.17 -3.35 8.97 -1.98 0.04 -0.14 6404
0.00 0.00 1.43 -3.23 8.69 -1.89 0.07 -0.16 6411
0.00 0.00 1.52 -3.09 8.63 -1.79 0.10 -0.16 6418
0.00 0.00 1.47 -2.97 8.98 -1.71 0.11 -0.12 6425
0.00 0.00 1.45 -2.89 9.38 -1.61 0.13 -0.05 6432
0.00 0.00 1.44 -2.75 9.69 -1.51 0.13 0.04 6439
0.00 0.00 1.75 -2.45 10.29 -1.49 0.14 0.16 6447
0.00 0.00 2.37 -2.08 10.74 -1.50 0.21 0.23 6454
0.00 0.00 2.55 -1.82 11.06 -1.56 0.34 0.33 6461
0.00 0.00 2.50 -1.76 11.12 -1.66 0.48 0.43 6468
0.00 0.00 2.17 -1.83 11.26 -1.74 0.58 0.52 6475
0.00 0.00 1.87 -2.13 11.21 -1.81 0.61 0.59 6482
0.00 0.00 1.48 -2.47 11.26 -1.85 0.59 0.65 6490
0.00 0.00 1.24 -2.77 11.05 -1.85 0.52 0.70 6497
0.00 0.00 1.07 -2.99 10.92 -1.85 0.44 0.72 6504
0.00 0.00 1.05 -3.26 10.81 -1.82 0.34 0.73 6511
0.00 0.00 0.95 -3.46 10.61 -1.79 0.25 0.73 6518
0.00 0.00 0.82 -3.58 10.45 -1.72 0.15 0.71 6525
0.00 0.00 0.55 -4.51 10.46 -1.64 0.01 0.67 6533
0.00 0.00 -1.67 -11.86 16.21 -1.61 -0.43 0.50 6540
0.00 0.00 -3.96 -6.85 10.93 -1.56 -1.03 0.19 6547
0.00 0.00 -3.08 -5.72 10.68 -1.40 -0.96 0.07 6554
0.00 0.00 1.48 -5.08 11.94 -1.33 -0.88 0.01 6561
0.00 0.00 2.90 -7.95 1.59 -1.31 -0.67 -0.06 6568
0.00 0.00 1.66 -8.65 11.62 -1.38 -0.48 -0.12 6576
0.00 0.00 1.46 -9.75 21.73 -1.34 -0.33 -0.20 6583
0.00 0.00 1.30 -7.30 10.32 -1.11 -0.23 -0.27 6590
0.00 0.00 1.47 -7.61 10.52 -1.02 -0.03 -0.28 6597
0.00 0.00 0.85 -7.40 10.14 -1.06 0.14 -0.29 6604
0.00 0.00 -1.67 -26.66 11.21 -0.75 -0.18 -0.36 6611
0.00 0.00 4.55 -0.83 8.97 0.11 0.50 -0.22 6619
0.00 0.00 -0.92 -19.12 6.25 -0.55 0.24 -0.21 6626
-0.00 0.01 -4.54 -17.91 16.25 0.08 0.18 -0.15 6633
-0.00 0.02 -6.11 -16.17 13.53 -0.10 -0.08 -0.09 6641
-0.00 0.00 -3.86 -20.79 10.94 0.03 -0.23 -0.10 6647
-0.00 0.01 -7.94 -31.49 9.53 0.02 -0.45 -0.07 6654
-0.00 0.00 -7.75 -30.63 7.61 0.01 -0.43 -0.05 6662
0.00 0.00 0.00 -0.70 10.67 -0.02 -0.08 -0.01 6669
-0.00 0.03 -0.28 -2.46 9.89 -0.16 0.03 -0.03 6676
0.04 0.02 0.22 -1.48 9.84 -0.22 0.07 -0.01 6683
0.03 0.03 0.71 0.87 9.98 -0.19 0.05 -0.00 6690
0.03 0.05 0.48 0.17 9.67 -0.13 0.04 -0.03 6697
0.02 0.04 0.38 -0.09 9.74 -0.09 0.06 -0.04 6705
-0.01 0.08 0.24 -0.67 10.00 -0.07 0.09 -0.05 6712
0.03 0.13 0.10 -0.97 9.89 -0.05 0.08 -0.06 6719
0.04 0.11 0.18 -0.97 9.96 -0.03 0.09 -0.06 6726
0.06 0.10 0.32 -1.18 9.94 -0.02 0.09 -0.06 6733
0.06 0.05 0.38 -1.10 9.86 -0.01 0.08 -0.05 6740
0.05 0.05 0.28 -0.98 9.82 -0.01 0.07 -0.05 6748
0.07 0.05 0.37 -0.93 9.87 -0.01 0.07 -0.06 6755
0.07 0.06 0.30 -0.97 9.90 -0.02 0.06 -0.06 6762
0.07 0.04 0.36 -0.92 9.81 -0.01 0.04 -0.06 6769
0.07 0.04 0.44 -0.91 9.93 -0.02 0.03 -0.07 6776
0.06 0.03 0.38 -0.87 9.24 -0.01 0.02 -0.07 6784
0.05 0.06 0.34 -0.90 9.75 -0.02 0.01 -0.06 6791
0.05 0.08 0.34 -0.97 9.88 -0.03 0.01 -0.07 6798
0.06 0.09 0.41 -0.86 9.64 -0.03 -0.00 -0.07 6805
0.07 0.06 0.39 -0.92 9.81 -0.03 -0.01 -0.07 6812
0.06 0.06 0.35 -0.86 9.21 -0.03 -0.01 -0.07 6819
0.04 0.06 0.33 -0.90 9.81 -0.03 -0.01 -0.08 6827
0.06 0.07 0.30 -0.87 9.97 -0.03 -0.01 -0.08 6834
0.07 0.08 0.30 -0.88 9.78 -0.02 -0.01 -0.08 6841
0.10 0.09 0.31 -0.87 9.83 -0.02 -0.01 -0.08 6848
0.09 0.08 0.27 -0.85 9.99 -0.02 0.00 -0.07 6855
0.11 0.08 0.29 -0.91 9.81 -0.02 0.01 -0.07 6862
0.11 0.08 0.29 -0.90 9.81 -0.02 0.02 -0.07 6870
0.10 0.12 0.31 -0.87 9.79 -0.02 0.02 -0.08 6877
0.10 0.14 0.27 -0.91 9.81 -0.02 0.02 -0.07 6884
0.12 0.14 0.26 -0.89 9.83 -0.02 0.02 -0.07 6891
0.11 0.16 0.25 -0.90 9.80 -0.02 0.03 -0.07 6898
0.10 0.16 0.28 -0.88 9.84 -0.02 0.03 -0.07 6905
0.10 0.17 0.27 -0.89 9.21 -0.02 0.04 -0.07 6913
0.11 0.18 0.27 -0.85 9.81 -0.02 0.04 -0.07 6920
0.13 0.19 0.23 -0.88 9.82 -0.02 0.05 -0.07 6927
0.14 0.16 0.29 -0.89 9.80 -0.01 0.05 -0.07 6934
0.14 0.14 0.26 -0.88 9.81 -0.01 0.05 -0.07 6941
0.14 0.16 0.32 -0.84 9.81 -0.01 0.05 -0.07 6948
0.14 0.17 0.30 -0.89 9.82 -0.00 0.05 -0.07 6956
0.16 0.17 0.34 -0.89 9.78 -0.00 0.05 -0.07 6963
0.17 0.19 0.36 -0.87 9.87 -0.00 0.04 -0.07 6970
0.19 0.17 0.34 -0.91 9.82 -0.00 0.04 -0.07 6977
0.20 0.18 0.32 -0.86 9.82 -0.00 0.03 -0.07 6984
0.21 0.17 0.29 -0.86 9.82 -0.00 0.03 -0.07 6991
0.20 0.18 0.31 -0.91 9.83 -0.00 0.03 -0.07 6999
0.21 0.17 0.29 -0.86 9.82 -0.00 0.03 -0.07 7006
0.20 0.16 0.30 -0.90 9.81 -0.00 0.03 -0.08 7013
0.21 0.15 0.26 -0.84 9.82 0.00 0.03 -0.07 7020
0.21 0.14 0.25 -0.85 9.76 0.00 0.03 -0.07 7027
0.23 0.11 0.26 -0.89 9.83 0.00 0.03 -0.08 7034
0.24 0.10 0.29 -0.87 10.42 0.00 0.03 -0.07 7042
0.25 0.12 0.26 -0.87 9.80 0.00 0.04 -0.08 7049
0.28 0.09 0.25 -0.89 9.81 0.00 0.04 -0.07 7056
0.27 0.13 0.29 -0.89 9.81 0.01 0.05 -0.07 7063
0.28 0.12 0.27 -0.91 9.77 0.01 0.05 -0.08 7070
0.27 0.11 0.28 -0.90 9.78 0.01 0.06 -0.07 7077
0.28 0.10 0.29 -0.86 9.80 0.01 0.06 -0.07 7085
0.29 0.10 0.28 -0.89 9.79 0.01 0.07 -0.08 7092
0.31 0.07 0.28 -0.88 9.80 0.01 0.08 -0.07 7099
0.31 0.06 0.26 -0.90 9.77 0.01 0.09 -0.07 7106
0.28 0.05 0.29 -0.85 9.74 0.00 0.10 -0.07 7113
0.26 0.06 0.29 -0.93 9.80 0.01 0.10 -0.07 7120
0.26 0.08 0.38 -0.89 9.85 0.01 0.11 -0.07 7128
0.23 0.14 0.32 -0.89 9.82 0.01 0.10 -0.07 7135
0.24 0.10 0.38 -0.88 9.91 0.01 0.10 -0.07 7142
0.24 0.09 0.36 -0.88 9.80 0.01 0.10 -0.07 7149
0.22 0.07 0.38 -0.87 9.82 0.00 0.09 -0.08 7156
0.19 0.11 0.34 -0.90 9.83 0.01 0.08 -0.07 7163
0.21 0.09 0.42 -0.92 9.80 0.00 0.06 -0.07 7171
0.23 0.08 0.35 -0.93 9.82 0.00 0.06 -0.08 7178
0.22 0.10 0.39 -0.89 9.83 0.00 0.05 -0.07 7185
0.21 0.09 0.37 -0.92 9.78 -0.00 0.05 -0.07 7192
0.21 0.09 0.35 -0.92 9.81 -0.00 0.05 -0.07 7199
0.20 0.10 0.36 -0.91 9.83 -0.00 0.05 -0.07 7206
0.21 0.09 0.32 -0.94 9.82 -0.00 0.04 -0.07 7214
0.22 0.09 0.37 -0.92 9.80 -0.00 0.05 -0.07 7221
0.21 0.08 0.33 -0.90 9.80 -0.00 0.04 -0.07 7228
0.21 0.08 0.32 -0.88 9.80 -0.00 0.04 -0.07 7235
0.22 0.06 0.27 -0.89 9.79 -0.00 0.05 -0.08 7242
0.22 0.07 0.35 -0.91 9.80 -0.00 0.05 -0.08 7249
0.22 0.07 0.35 -0.91 9.75 -0.01 0.06 -0.07 7257
0.24 0.05 0.36 -0.89 9.78 0.00 0.06 -0.07 7264
0.23 0.05 0.33 -0.91 9.80 0.01 0.07 -0.07 7271
0.22 0.06 0.33 -0.92 9.82 0.01 0.08 -0.07 7278
0.23 0.05 0.37 -0.93 9.81 0.01 0.09 -0.07 7285
0.23 0.05 0.37 -0.88 9.79 0.00 0.10 -0.08 7292
0.23 0.02 0.35 -0.93 9.81 0.01 0.10 -0.08 7300
0.24 -0.01 0.39 -0.90 9.80 0.01 0.10 -0.07 7307
0.24 0.00 0.40 -0.93 9.81 0.01 0.11 -0.07 7314
0.24 -0.00 0.35 -0.86 9.65 0.01 0.11 -0.07 7321
0.22 0.00 0.40 -0.93 9.76 0.00 0.10 -0.07 7328
0.21 -0.00 0.43 -0.91 9.81 0.01 0.10 -0.07 7335
0.22 0.01 0.40 -0.95 9.82 0.01 0.10 -0.07 7343
0.23 -0.00 0.41 -0.90 9.82 0.00 0.10 -0.08 7350
0.20 0.00 0.44 -0.93 9.82 0.01 0.10 -0.07 7357
0.22 -0.02 0.44 -0.92 9.83 0.01 0.09 -0.07 7364
0.22 -0.01 0.46 -0.94 9.80 0.01 0.09 -0.07 7371
0.23 0.00 0.44 -0.91 9.82 0.01 0.08 -0.07 7378
0.23 0.01 0.46 -0.92 9.80 0.00 0.08 -0.07 7386
0.25 -0.02 0.46 -0.94 9.79 0.00 0.08 -0.08 7393
0.24 -0.02 0.41 -0.94 9.77 0.00 0.08 -0.07 7400
0.22 -0.02 0.44 -0.95 9.79 0.01 0.08 -0.07 7407
0.21 -0.01 0.47 -0.95 9.82 0.00 0.08 -0.07 7414
0.23 0.00 0.44 -0.94 9.83 0.00 0.08 -0.07 7421
0.23 -0.00 0.45 -0.95 9.80 0.01 0.08 -0.07 7429
0.24 -0.01 0.46 -0.92 9.80 0.01 0.08 -0.07 7436
0.23 -0.01 0.47 -0.94 9.76 0.01 0.08 -0.07 7443
0.23 -0.01 0.49 -0.95 9.81 0.01 0.07 -0.07 7450
0.23 -0.00 0.45 -0.94 9.81 0.01 0.07 -0.07 7457
0.21 0.00 0.48 -0.93 9.80 0.01 0.07 -0.07 7464
0.24 -0.00 0.46 -0.92 9.78 0.01 0.08 -0.07 7472
0.24 -0.01 0.48 -0.93 9.77 0.01 0.07 -0.07 7479
0.22 -0.01 0.48 -0.95 9.79 0.01 0.08 -0.07 7486
0.24 -0.01 0.48 -0.93 9.81 0.01 0.08 -0.07 7493
0.25 -0.01 0.49 -0.93 9.79 0.01 0.07 -0.07 7500
0.26 -0.00 0.50 -0.94 9.77 0.01 0.07 -0.07 7507
0.27 -0.01 0.49 -0.96 9.79 0.01 0.08 -0.07 7515
0.26 -0.01 0.47 -0.94 9.81 0.01 0.08 -0.07 7522
0.27 -0.02 0.51 -0.93 9.81 0.02 0.08 -0.07 7529
0.27 -0.01 0.52 -0.92 9.81 0.02 0.08 -0.07 7536
0.29 -0.00 0.46 -0.94 9.80 0.02 0.09 -0.07 7543
0.29 0.00 0.42 -0.94 9.81 0.02 0.09 -0.06 7550
0.30 -0.00 0.47 -0.93 9.82 0.03 0.09 -0.07 7558
0.30 -0.01 0.51 -0.96 9.81 0.04 0.10 -0.06 7565
0.33 -0.02 0.51 -0.96 9.82 0.04 0.11 -0.06 7572
0.32 -0.02 0.50 -0.95 9.83 0.05 0.12 -0.06 7579
0.29 -0.01 0.47 -0.99 9.81 0.06 0.13 -0.06 7586
0.30 -0.01 0.49 -0.97 9.81 0.06 0.14 -0.06 7593
0.30 -0.02 0.53 -1.01 9.82 0.08 0.15 -0.06 7601
0.29 -0.02 0.50 -0.96 9.82 0.09 0.16 -0.05 7608
0.32 -0.03 0.51 -0.98 9.83 0.11 0.18 -0.05 7615
0.32 -0.02 0.57 -0.92 9.82 0.12 0.19 -0.05 7622
0.34 -0.02 0.57 -1.00 9.83 0.15 0.20 -0.05 7629
0.36 -0.02 0.59 -0.98 9.83 0.18 0.20 -0.05 7636
0.37 -0.03 0.60 -1.03 9.88 0.20 0.20 -0.05 7644
0.35 -0.02 0.57 -1.00 9.87 0.24 0.20 -0.05 7651
0.35 -0.02 0.57 -1.03 9.84 0.27 0.21 -0.05 7658
0.34 -0.02 0.62 -1.10 10.06 0.31 0.21 -0.05 7665
0.37 -0.01 0.71 -1.16 9.97 0.36 0.22 -0.05 7672
0.37 -0.02 0.54 -1.20 9.93 0.39 0.22 -0.05 7680
0.40 -0.03 0.68 -1.17 10.40 0.42 0.22 -0.05 7687
0.42 -0.02 0.70 -1.26 9.86 0.44 0.22 -0.05 7694
0.43 -0.03 0.71 -1.25 9.83 0.46 0.21 -0.06 7701
0.40 -0.02 0.70 -1.30 10.00 0.48 0.20 -0.06 7708
0.40 -0.01 0.74 -1.39 9.85 0.50 0.19 -0.07 7715
0.42 -0.02 0.74 -1.34 9.95 0.50 0.18 -0.07 7723
0.42 -0.03 0.67 -1.44 9.98 0.51 0.17 -0.07 7730
0.43 -0.03 0.76 -1.50 10.03 0.51 0.15 -0.07 7737
0.42 -0.02 0.76 -1.55 10.07 0.52 0.13 -0.07 7744
0.43 -0.02 0.78 -1.59 10.00 0.53 0.11 -0.08 7751
0.44 -0.02 0.81 -1.56 9.80 0.54 0.09 -0.08 7758
0.48 -0.02 0.82 -1.71 9.98 0.54 0.05 -0.08 7766
0.50 -0.03 0.88 -1.71 9.84 0.55 0.03 -0.09 7773
0.51 -0.04 0.86 -1.75 9.80 0.55 0.02 -0.10 7780
0.50 -0.03 0.79 -1.80 9.78 0.56 -0.00 -0.10 7787
0.51 -0.03 0.75 -1.26 9.78 0.55 -0.01 -0.10 7794
0.53 -0.02 0.73 -1.83 9.79 0.55 -0.02 -0.10 7801
0.56 -0.03 0.85 -1.95 9.76 0.56 -0.04 -0.10 7809
0.57 -0.03 0.74 -1.93 9.91 0.58 -0.05 -0.10 7816
0.59 -0.03 0.78 -2.10 10.00 0.60 -0.05 -0.11 7823
0.61 -0.03 0.81 -2.10 9.82 0.61 -0.06 -0.11 7830
0.64 -0.04 0.85 -2.22 9.75 0.63 -0.06 -0.12 7837
0.65 -0.03 0.69 -2.15 9.83 0.64 -0.06 -0.13 7844
0.64 -0.03 0.73 -2.25 9.95 0.67 -0.06 -0.12 7852
0.64 -0.03 0.66 -2.37 10.01 0.69 -0.05 -0.13 7860
0.63 -0.04 0.73 -2.36 10.06 0.72 -0.05 -0.13 7867
0.64 -0.03 0.76 -2.40 10.11 0.75 -0.04 -0.13 7874
0.65 -0.02 0.71 -2.45 10.25 0.79 -0.04 -0.13 7881
0.64 -0.03 0.62 -2.49 10.40 0.85 -0.03 -0.13 7888
0.63 -0.03 0.80 -2.57 10.66 0.92 -0.03 -0.13 7896
0.59 -0.04 0.66 -2.74 10.70 1.00 -0.03 -0.13 7903
0.57 -0.03 0.75 -2.67 10.24 1.08 -0.03 -0.13 7910
0.50 -0.02 0.55 -2.86 11.47 1.19 -0.00 -0.12 7917
0.43 -0.02 0.70 -2.98 11.60 1.33 -0.01 -0.12 7924
0.40 -0.03 1.10 -3.08 11.47 1.49 -0.01 -0.14 7930
0.29 -0.02 1.12 -3.24 11.47 1.62 -0.03 -0.19 7939
0.16 -0.02 1.04 -3.28 11.43 1.77 -0.07 -0.22 7945
0.15 -0.01 1.10 -3.55 11.98 1.93 -0.14 -0.24 7952
0.17 -0.01 1.22 -3.68 12.31 2.06 -0.19 -0.28 7960
0.09 -0.00 1.26 -3.91 12.56 2.22 -0.24 -0.30 7967
0.09 -0.01 1.08 -4.26 13.08 2.36 -0.26 -0.33 7973
0.06 -0.01 1.26 -4.61 13.23 2.51 -0.27 -0.33 7981
0.11 -0.01 1.34 -5.02 13.19 2.64 -0.24 -0.34 7988
0.07 -0.01 1.35 -5.17 13.61 2.71 -0.14 -0.34 7995
0.08 -0.01 1.28 -5.32 13.72 2.76 0.02 -0.35 8002
0.07 -0.01 0.69 -5.39 13.23 2.76 0.09 -0.36 8009
0.08 -0.01 0.71 -5.14 12.59 2.76 0.10 -0.36 8016
0.06 -0.01 0.90 -5.30 11.97 2.74 0.05 -0.38 8024
0.07 -0.01 0.87 -5.14 11.41 2.66 0.03 -0.41 8031
0.06 -0.01 0.80 -5.19 11.56 2.52 -0.01 -0.43 8038
0.05 -0.00 0.63 -5.34 11.16 2.38 -0.08 -0.45 8045
0.02 -0.00 0.63 -4.92 10.55 2.31 -0.16 -0.47 8052
0.01 -0.00 0.58 -5.20 9.72 2.24 -0.21 -0.48 8059
0.01 -0.00 0.77 -4.97 8.78 2.21 -0.20 -0.47 8067
0.00 0.00 0.90 -4.52 7.79 2.18 -0.12 -0.47 8074
0.00 0.00 1.11 -4.10 6.72 2.12 -0.03 -0.46 8081
0.00 0.00 1.07 -4.16 6.06 2.05 0.02 -0.48 8088
0.00 -0.00 1.23 -4.02 5.81 1.98 0.04 -0.51 8095
0.01 -0.00 1.10 -4.00 5.76 1.95 0.04 -0.54 8102
0.00 0.00 0.96 -4.23 5.87 1.93 0.05 -0.57 8110
0.00 0.00 0.72 -4.01 6.27 1.92 0.04 -0.60 8117
0.00 0.00 0.50 -4.41 6.27 1.90 -0.01 -0.64 8124
0.01 -0.00 0.01 -5.33 6.53 1.88 -0.11 -0.67 8131
0.01 -0.00 0.13 -5.80 6.66 1.86 -0.26 -0.69 8138
0.00 0.00 -0.11 -5.25 6.38 1.84 -0.39 -0.67 8145
0.00 0.00 -0.48 -4.96 5.88 1.77 -0.56 -0.67 8153
0.00 0.00 0.03 -2.77 5.46 1.67 -0.70 -0.64 8160
0.00 0.00 0.29 0.04 5.70 1.45 -0.80 -0.62 8167
0.00 0.00 1.26 3.06 6.70 1.14 -0.78 -0.61 8174
0.00 -0.00 1.48 2.47 7.73 0.71 -0.74 -0.59 8181
0.00 0.00 1.01 -0.46 8.77 0.20 -0.60 -0.54 8188
0.00 0.00 0.85 -1.63 9.23 -0.19 -0.42 -0.47 8196
0.00 0.00 0.88 -1.82 8.45 -0.49 -0.23 -0.42 8203
0.00 0.00 0.85 -1.71 7.28 -0.68 -0.06 -0.35 8210
0.00 0.00 0.73 -1.50 6.23 -0.80 0.04 -0.32 8217
0.00 0.00 0.53 -1.57 5.51 -0.90 0.10 -0.29 8224
0.00 0.00 0.30 -2.10 5.30 -0.95 0.10 -0.26 8231
0.00 0.00 0.11 -2.59 6.07 -0.98 0.07 -0.22 8239
0.00 0.00 0.01 -3.07 5.71 -0.97 -0.01 -0.17 8246
0.00 0.00 -0.01 -3.33 5.92 -0.94 -0.09 -0.12 8253
0.00 -0.00 0.06 -3.60 5.93 -0.90 -0.19 -0.10 8260
0.00 0.00 0.28 -3.83 5.98 -0.87 -0.28 -0.07 8267
0.00 0.00 0.43 -4.03 6.18 -0.85 -0.33 -0.06 8274
0.00 0.00 0.54 -4.31 6.64 -0.84 -0.33 -0.05 8282
0.00 0.00 0.74 -4.75 7.13 -0.87 -0.26 -0.06 8289
0.00 0.00 1.05 -5.07 7.42 -0.94 -0.07 -0.09 8296
0.00 -0.00 1.45 -5.25 7.61 -1.02 0.19 -0.15 8303
0.00 0.00 0.05 -12.37 6.32 -1.12 0.47 -0.27 8310
0.00 0.00 -1.28 -26.49 6.01 -0.92 0.72 -0.47 8317
0.00 0.00 -6.67 -36.20 4.31 -0.52 0.84 -0.69 8325
0.00 0.00 -6.78 -48.19 0.38 0.70 0.46 -0.90 8332
0.00 0.00 -6.70 -38.97 -0.52 1.99 0.40 -1.13 8339
0.00 0.00 -2.06 -6.73 -15.56 2.63 -0.12 -1.20 8346
0.00 0.00 -2.53 -17.83 -5.69 2.26 -0.17 -1.07 8353
0.00 0.00 -0.46 -8.77 16.25 1.91 0.16 -0.90 8360
0.00 0.00 0.04 -5.48 9.83 1.10 0.43 -0.91 8368
0.00 0.00 -0.34 0.82 6.53 0.41 0.41 -0.87 8375
0.00 0.00 -0.04 0.07 5.06 0.13 0.60 -0.49 8382
0.00 0.00 -0.83 -5.07 9.94 -0.74 0.85 -0.27 8389
0.00 0.00 -0.74 -4.84 8.62 -1.16 0.86 -0.06 8396
0.00 0.00 -0.94 -4.75 7.79 -0.97 0.65 0.11 8403
0.00 0.00 -1.89 -4.75 6.76 -0.60 0.40 0.24 8411
0.00 0.00 -1.85 -3.99 4.95 -0.27 0.22 0.33 8418
0.00 0.00 -1.34 -2.63 3.82 0.09 0.04 0.41 8425
0.00 0.00 -1.26 -1.73 3.78 0.27 -0.09 0.47 8432
0.00 0.00 -0.87 -1.25 4.39 0.36 -0.17 0.48 8439
0.00 0.00 -0.62 -0.91 5.39 0.37 -0.23 0.45 8446
0.00 0.00 -0.52 -0.67 6.29 0.35 -0.20 0.41 8454
0.00 0.00 -0.45 -0.61 6.73 0.31 -0.11 0.36 8461
0.00 0.00 -0.45 -0.59 7.00 0.21 -0.03 0.28 8468
0.00 0.00 -0.51 -0.41 7.71 0.12 0.01 0.17 8475
0.00 0.00 -0.29 0.01 8.84 -0.09 0.07 0.11 8482
0.00 0.00 0.23 0.33 9.66 -0.36 0.22 0.01 8489
0.00 0.00 0.70 0.51 9.84 -0.78 0.39 -0.08 8497
0.00 0.00 0.91 0.72 9.87 -1.29 0.56 -0.20 8504
0.00 0.00 0.78 0.50 9.47 -1.72 0.66 -0.32 8511
0.00 0.00 0.33 -0.17 8.84 -2.13 0.73 -0.39 8518
0.00 0.00 -0.03 -1.24 8.20 -2.34 0.75 -0.43 8525
0.00 0.00 -0.29 -2.11 7.86 -2.43 0.71 -0.43 8532
0.00 0.00 -0.42 -2.82 7.74 -2.36 0.63 -0.40 8540
0.00 0.00 -0.38 -3.21 7.83 -2.22 0.50 -0.34 8547
0.00 -0.00 -0.30 -3.41 8.21 -2.02 0.35 -0.27 8554
0.00 0.00 0.04 -3.19 8.78 -1.91 0.22 -0.16 8561
0.00 0.00 0.59 -2.65 9.04 -1.88 0.16 -0.01 8568
0.00 0.00 1.57 -2.00 8.83 -1.96 0.13 0.08 8576
0.00 0.00 1.49 -2.16 9.65 -2.06 0.09 0.21 8583
0.00 0.00 0.49 -7.04 11.22 -2.18 0.08 0.31 8590
0.00 0.00 2.60 -6.16 15.67 -2.17 0.11 0.25 8597
0.00 0.00 -2.79 -16.56 6.15 -2.19 0.14 0.18 8604
0.00 0.00 -3.62 -10.74 9.88 -2.15 0.19 0.10 8611
0.00 0.00 0.31 -0.48 8.70 -2.07 0.15 -0.01 8619
0.00 0.00 -3.88 -21.41 7.38 -2.14 0.26 -0.05 8626
0.00 -0.00 0.17 -8.45 8.41 -2.26 0.38 -0.05 8633
0.00 -0.00 0.51 -2.13 13.09 -2.38 0.43 0.04 8640
0.00 0.00 -2.24 -8.48 9.90 -2.36 0.41 0.13 8647
0.00 0.00 1.83 -1.76 13.63 -2.38 0.42 0.31 8654
0.00 0.00 1.20 -3.13 9.77 -2.27 0.40 0.47 8662
0.00 0.00 1.19 -4.33 9.08 -2.10 0.43 0.63 8669
0.00 -0.00 2.38 -4.52 9.51 -2.04 0.43 0.79 8676
0.00 0.00 2.19 -4.09 10.40 -1.95 0.45 0.88 8683
0.00 0.00 2.20 -3.88 10.91 -1.89 0.49 0.93 8690
0.00 0.00 1.98 -3.72 10.78 -1.85 0.50 0.95 8697
0.00 0.00 1.87 -3.13 10.67 -1.84 0.52 0.97 8705
0.00 0.00 1.81 -2.85 10.63 -1.85 0.53 0.97 8712
0.00 0.00 1.67 -2.89 10.63 -1.85 0.50 0.98 8719
0.00 0.00 1.66 -3.02 10.51 -1.83 0.48 0.99 8726
0.00 0.00 1.60 -3.01 10.22 -1.78 0.46 0.99 8733
0.00 0.00 1.74 -2.94 10.28 -1.69 0.43 0.99 8740
0.00 0.00 1.94 -2.79 10.28 -1.60 0.40 0.98 8748
0.00 0.00 1.85 -2.51 10.04 -1.49 0.39 0.96 8755
0.00 -0.00 1.87 -2.19 9.93 -1.40 0.42 0.96 8762
0.00 0.00 1.89 -2.08 10.20 -1.34 0.46 0.96 8769
0.00 0.00 1.82 -2.07 10.68 -1.29 0.51 0.95 8776
0.00 0.00 1.60 -2.01 11.04 -1.26 0.56 0.95 8783
0.00 0.00 1.43 -1.94 11.31 -1.24 0.58 0.96 8791
0.00 0.00 1.12 -1.97 11.34 -1.24 0.55 0.96 8798
0.00 -0.00 1.06 -2.11 11.45 -1.25 0.49 0.95 8805
0.00 0.00 1.02 -2.26 11.40 -1.26 0.39 0.94 8812
0.00 0.00 1.10 -2.58 11.26 -1.25 0.30 0.91 8819
0.00 0.00 1.18 -2.74 11.17 -1.22 0.22 0.87 8826
0.00 0.00 1.30 -2.96 11.15 -1.18 0.16 0.81 8834
0.00 0.00 1.28 -3.19 11.02 -1.15 0.12 0.75 8841
0.00 0.00 1.12 -3.34 10.94 -1.11 0.09 0.69 8848
0.00 0.00 0.82 -3.40 10.95 -1.09 0.06 0.63 8855
0.00 0.00 0.47 -3.56 11.08 -1.05 0.04 0.58 8862
0.00 0.00 0.23 -3.80 11.18 -1.01 0.02 0.54 8869
0.00 0.00 -0.04 -4.10 11.30 -0.98 -0.01 0.51 8877
0.00 -0.00 -0.13 -4.17 11.39 -0.95 -0.03 0.48 8884
0.00 -0.00 -0.02 -4.40 11.32 -0.95 -0.05 0.43 8891
0.00 0.00 -1.09 -8.96 14.66 -0.91 -0.21 0.34 8898
0.00 0.00 -2.61 -7.62 13.10 -0.61 -0.78 0.20 8905
0.00 0.00 -0.75 -4.72 6.89 -0.63 -0.54 0.15 8912
0.00 0.00 -0.67 -8.03 9.58 -0.68 -0.45 0.14 8920
0.00 0.00 -1.48 -10.17 16.57 -0.43 -0.28 0.12 8927
0.00 0.00 -1.05 -7.83 8.30 -0.39 0.09 0.10 8934
0.00 0.00 -0.34 -8.02 5.01 -0.41 0.25 0.06 8941
0.00 0.00 -2.98 -11.08 11.82 -0.28 0.20 0.03 8948
0.00 0.00 -1.96 -14.63 6.32 -0.24 0.13 -0.02 8955
-0.00 0.03 -1.66 -15.45 2.18 -0.09 0.05 -0.05 8963
0.00 0.02 -3.98 -18.37 2.81 0.11 -0.12 -0.01 8970
-0.00 0.01 -2.32 -20.95 1.50 0.43 -0.25 0.02 8977
-0.00 0.02 -3.50 -21.86 4.02 0.95 -0.50 0.10 8984
-0.00 0.04 -4.54 -18.81 3.61 1.38 -0.74 0.06 8991
-0.00 0.04 -1.22 -3.22 7.18 1.99 -0.81 -0.03 8998
-0.01 0.05 -0.54 -1.37 29.98 2.26 -1.20 -0.18 9006
-0.01 0.06 -1.61 -0.71 12.73 0.09 -0.50 -0.08 9013
-0.01 0.09 -0.05 -0.22 8.69 -0.21 0.03 0.01 9020
0.04 0.08 1.18 -0.43 10.27 -0.24 0.02 -0.08 9027
0.02 0.14 0.10 -1.05 9.81 -0.14 -0.02 -0.08 9034
0.02 0.18 0.60 -0.97 10.01 -0.03 0.02 -0.06 9041
0.03 0.21 0.30 -0.96 9.76 -0.08 0.05 -0.04 9049
0.06 0.20 0.17 -1.04 10.04 -0.07 0.06 -0.04 9056
0.07 0.17 0.06 -1.00 9.83 -0.05 0.10 -0.03 9063
0.06 0.20 0.09 -0.87 10.04 -0.04 0.12 -0.03 9070
0.05 0.22 0.33 -0.89 9.94 -0.04 0.13 -0.04 9077
0.06 0.21 0.46 -0.92 9.83 -0.04 0.12 -0.04 9084
0.07 0.21 0.37 -0.93 9.89 -0.04 0.12 -0.03 9092
0.06 0.21 0.35 -0.94 9.74 -0.04 0.10 -0.04 9099
0.05 0.23 0.29 -0.90 9.75 -0.05 0.09 -0.04 9106
0.03 0.20 0.57 -0.85 9.73 -0.05 0.08 -0.04 9113
-0.01 0.26 0.45 -0.84 9.81 -0.05 0.07 -0.04 9120
0.02 0.27 0.43 -0.84 9.81 -0.05 0.06 -0.05 9127
0.02 0.30 0.42 -0.81 9.85 -0.04 0.06 -0.05 9135
0.02 0.26 0.42 -0.89 9.88 -0.04 0.05 -0.05 9142
0.02 0.29 0.45 -0.90 9.87 -0.04 0.05 -0.05 9149
0.03 0.28 0.41 -0.87 9.80 -0.04 0.05 -0.05 9156
0.02 0.31 0.47 -0.85 9.87 -0.04 0.04 -0.06 9163
0.02 0.33 0.41 -0.84 9.81 -0.03 0.03 -0.06 9170
0.03 0.38 0.43 -0.84 9.79 -0.03 0.02 -0.06 9178
0.04 0.37 0.39 -0.84 9.84 -0.03 0.02 -0.06 9185
0.05 0.36 0.38 -0.79 9.80 -0.03 0.01 -0.06 9192
0.05 0.36 0.43 -0.86 9.27 -0.02 0.01 -0.06 9199
0.04 0.38 0.36 -0.84 9.82 -0.02 0.01 -0.07 9206
0.04 0.38 0.44 -0.84 9.82 -0.02 0.00 -0.07 9213
0.05 0.38 0.41 -0.82 9.82 -0.02 0.00 -0.07 9221
0.05 0.38 0.39 -0.83 9.82 -0.02 -0.00 -0.07 9228
0.04 0.37 0.44 -0.83 9.82 -0.01 -0.01 -0.08 9235
0.02 0.37 0.38 -0.81 9.85 -0.01 -0.01 -0.07 9242
0.02 0.37 0.40 -0.82 9.84 -0.01 -0.02 -0.08 9249
0.04 0.39 0.36 -0.80 9.84 -0.01 -0.03 -0.08 9256
0.07 0.37 0.34 -0.83 9.83 -0.01 -0.02 -0.08 9264
0.08 0.36 0.38 -0.85 9.83 -0.01 -0.02 -0.09 9271
0.08 0.35 0.34 -0.83 9.82 -0.01 -0.02 -0.08 9278
0.08 0.35 0.33 -0.81 9.82 -0.01 -0.02 -0.08 9285
0.09 0.35 0.34 -0.79 10.42 -0.01 -0.01 -0.08 9292
0.10 0.37 0.32 -0.83 9.79 -0.01 -0.01 -0.08 9299
0.10 0.35 0.32 -0.81 9.80 -0.00 -0.00 -0.08 9307
0.09 0.34 0.29 -0.82 9.81 -0.00 0.00 -0.08 9314
0.10 0.33 0.29 -0.78 9.81 -0.00 0.00 -0.08 9321
0.09 0.33 0.27 -0.85 10.42 -0.01 0.01 -0.08 9328
0.10 0.33 0.30 -0.82 9.78 -0.00 0.02 -0.08 9335
0.12 0.31 0.32 -0.81 9.81 0.00 0.02 -0.08 9342
0.13 0.31 0.29 -0.80 9.81 0.00 0.03 -0.08 9350
0.13 0.32 0.26 -0.84 9.81 0.01 0.03 -0.07 9357
0.14 0.30 0.28 -0.84 9.80 0.00 0.04 -0.07 9364
0.15 0.29 0.26 -0.82 9.82 0.00 0.05 -0.07 9371
0.15 0.28 0.30 -0.85 9.79 0.01 0.05 -0.07 9378
0.16 0.26 0.29 -0.85 9.81 0.00 0.05 -0.07 9385
0.16 0.25 0.31 -0.84 9.78 0.01 0.06 -0.07 9393
0.16 0.24 0.31 -0.82 9.75 0.00 0.06 -0.08 9400
0.17 0.23 0.28 -0.82 9.81 0.01 0.07 -0.07 9407
0.16 0.23 0.32 -0.83 9.77 0.01 0.07 -0.07 9414
0.15 0.26 0.34 -0.83 9.21 0.01 0.08 -0.08 9421
0.17 0.25 0.33 -0.84 9.87 0.01 0.07 -0.08 9428
0.16 0.23 0.38 -0.86 9.80 0.01 0.07 -0.07 9436
0.15 0.21 0.39 -0.86 9.83 0.00 0.05 -0.08 9443
0.14 0.22 0.40 -0.86 9.82 0.00 0.05 -0.08 9450
0.14 0.22 0.35 -0.83 9.80 -0.00 0.04 -0.08 9457
0.15 0.24 0.36 -0.85 9.80 -0.00 0.04 -0.07 9464
0.15 0.23 0.31 -0.86 9.80 -0.00 0.04 -0.08 9472
0.14 0.23 0.32 -0.82 9.82 -0.00 0.04 -0.07 9479
0.13 0.22 0.32 -0.85 9.81 -0.00 0.04 -0.07 9486
0.12 0.22 0.34 -0.86 9.82 -0.00 0.04 -0.07 9493
0.13 0.24 0.31 -0.85 9.79 -0.01 0.04 -0.08 9500
0.15 0.24 0.30 -0.84 9.80 -0.01 0.04 -0.07 9507
0.15 0.23 0.30 -0.85 9.80 -0.01 0.04 -0.07 9515
0.14 0.22 0.33 -0.81 9.82 -0.01 0.04 -0.07 9522
0.14 0.20 0.34 -0.86 9.77 -0.00 0.04 -0.08 9529
0.12 0.22 0.34 -0.84 9.80 -0.00 0.05 -0.07 9536
0.14 0.21 0.35 -0.87 9.80 -0.00 0.05 -0.07 9543
0.15 0.21 0.36 -0.84 10.41 -0.00 0.04 -0.07 9550
0.15 0.20 0.33 -0.86 9.81 0.00 0.04 -0.07 9558
0.14 0.20 0.32 -0.86 9.81 -0.00 0.04 -0.07 9565
0.13 0.20 0.34 -0.86 9.80 -0.00 0.04 -0.08 9572
0.13 0.20 0.36 -0.85 9.79 -0.01 0.04 -0.08 9579
0.14 0.20 0.36 -0.85 9.81 -0.01 0.03 -0.07 9586
0.16 0.20 0.31 -0.86 9.81 -0.00 0.04 -0.07 9593
0.15 0.18 0.32 -0.87 9.82 -0.01 0.03 -0.08 9601
0.15 0.17 0.34 -0.84 9.81 -0.01 0.03 -0.07 9608
0.14 0.17 0.31 -0.87 9.80 -0.01 0.04 -0.07 9615
0.15 0.18 0.32 -0.86 9.83 -0.00 0.03 -0.08 9622
0.15 0.19 0.32 -0.85 9.81 -0.00 0.03 -0.07 9629
0.16 0.18 0.34 -0.85 9.82 -0.00 0.04 -0.07 9636
0.14 0.17 0.33 -0.84 9.80 -0.00 0.04 -0.07 9644
0.15 0.14 0.29 -0.84 9.81 -0.00 0.04 -0.07 9651
0.13 0.17 0.33 -0.83 9.80 -0.00 0.04 -0.07 9658
0.14 0.20 0.35 -0.86 9.81 0.00 0.05 -0.07 9665
0.16 0.20 0.33 -0.87 9.79 -0.00 0.05 -0.07 9672
0.17 0.20 0.32 -0.86 9.80 0.00 0.05 -0.07 9679
0.16 0.18 0.33 -0.85 9.81 -0.00 0.05 -0.08 9687
0.15 0.16 0.36 -0.85 9.77 0.00 0.05 -0.08 9694
0.14 0.17 0.34 -0.83 9.81 0.00 0.05 -0.08 9701
0.15 0.17 0.32 -0.83 9.79 0.00 0.05 -0.07 9708
0.16 0.17 0.31 -0.87 9.82 0.00 0.05 -0.07 9715
0.17 0.15 0.34 -0.87 9.81 0.01 0.05 -0.08 9722
0.17 0.12 0.33 -0.87 9.81 0.01 0.05 -0.08 9730
0.18 0.10 0.35 -0.85 9.81 0.01 0.04 -0.07 9737
0.17 0.11 0.35 -0.88 9.79 0.01 0.05 -0.08 9744
0.20 0.08 0.36 -0.86 9.79 0.01 0.05 -0.08 9751
0.20 0.07 0.34 -0.86 9.81 0.01 0.05 -0.08 9758
0.22 0.04 0.34 -0.89 9.81 0.01 0.04 -0.08 9765
0.24 0.02 0.32 -0.89 9.79 0.01 0.04 -0.08 9773
0.25 0.01 0.33 -0.84 9.80 0.00 0.05 -0.08 9780
0.23 0.05 0.33 -0.86 9.81 0.01 0.04 -0.08 9787
0.24 0.06 0.36 -0.92 9.80 0.01 0.04 -0.08 9794
0.25 0.05 0.36 -0.87 9.81 0.00 0.04 -0.08 9801
0.25 0.04 0.32 -0.88 9.80 0.01 0.05 -0.08 9808
0.25 0.01 0.35 -0.89 9.81 0.00 0.04 -0.08 9816
0.24 0.03 0.34 -0.87 9.81 0.01 0.05 -0.08 9823
0.23 0.00 0.35 -0.89 9.79 0.01 0.05 -0.08 9830
0.27 0.00 0.30 -0.85 9.79 0.01 0.04 -0.07 9837
0.27 -0.00 0.32 -0.86 9.81 0.00 0.05 -0.08 9844
0.28 0.00 0.34 -0.82 9.81 0.01 0.05 -0.08 9851
0.29 -0.01 0.30 -0.89 9.81 0.01 0.05 -0.07 9859
0.28 -0.01 0.32 -0.86 9.81 0.01 0.05 -0.07 9866
0.31 -0.01 0.32 -0.86 9.81 0.01 0.05 -0.07 9873
0.33 0.00 0.32 -0.89 9.81 0.01 0.05 -0.07 9880
0.34 -0.02 0.35 -0.90 9.81 0.01 0.06 -0.07 9887
0.34 -0.01 0.33 -0.93 9.81 0.02 0.06 -0.07 9894
0.34 -0.02 0.32 -0.88 9.82 0.02 0.07 -0.07 9902
0.36 -0.02 0.35 -0.91 9.82 0.03 0.07 -0.07 9909
0.38 -0.03 0.37 -0.88 9.82 0.03 0.07 -0.07 9916
0.39 -0.02 0.35 -0.89 9.82 0.04 0.08 -0.07 9923
0.40 -0.02 0.39 -0.89 9.82 0.05 0.09 -0.07 9930
0.40 -0.02 0.36 -0.94 9.22 0.05 0.09 -0.07 9937
0.42 -0.03 0.35 -0.89 9.80 0.05 0.09 -0.06 9945
0.40 -0.02 0.40 -0.91 9.84 0.06 0.09 -0.07 9952
0.42 -0.02 0.40 -0.95 9.81 0.06 0.09 -0.06 9959
0.43 -0.02 0.42 -0.92 9.81 0.07 0.09 -0.07 9966
0.44 -0.02 0.42 -0.98 9.81 0.07 0.09 -0.06 9973
0.48 -0.02 0.40 -0.93 9.80 0.07 0.08 -0.07 9980
0.50 -0.03 0.40 -0.93 9.81 0.07 0.09 -0.07 9988
0.51 -0.03 0.41 -0.97 9.80 0.07 0.09 -0.07 9995
0.51 -0.02 0.40 -0.97 9.83 0.07 0.08 -0.07 10002
0.51 -0.03 0.39 -0.96 9.82 0.08 0.09 -0.06 10009
0.55 -0.04 0.38 -0.95 9.83 0.09 0.10 -0.07 10016
0.56 -0.03 0.38 -0.99 9.85 0.11 0.13 -0.06 10023
0.56 -0.03 0.38 -0.97 9.86 0.13 0.12 -0.06 10031
0.62 -0.03 0.39 -1.00 9.89 0.15 0.14 -0.07 10038
0.65 -0.02 0.42 -1.00 9.83 0.18 0.15 -0.06 10045
0.67 -0.03 0.46 -1.04 9.92 0.21 0.16 -0.06 10052
0.69 -0.04 0.45 -1.06 9.89 0.24 0.18 -0.07 10059
0.68 -0.04 0.45 -1.06 9.91 0.28 0.18 -0.07 10066
0.70 -0.04 0.46 -1.12 9.84 0.31 0.19 -0.07 10074
0.71 -0.03 0.46 -1.09 9.88 0.34 0.18 -0.06 10081
0.75 -0.03 0.52 -1.17 9.95 0.37 0.18 -0.07 10088
0.77 -0.03 0.52 -1.17 9.86 0.39 0.17 -0.07 10095
0.78 -0.04 0.57 -1.30 9.82 0.42 0.15 -0.07 10102
0.82 -0.04 0.52 -1.29 9.98 0.44 0.14 -0.08 10109
0.84 -0.04 0.57 -1.32 9.89 0.45 0.14 -0.08 10117
0.85 -0.03 0.60 -1.36 9.92 0.44 0.12 -0.08 10124
0.86 -0.03 0.59 -1.44 9.90 0.44 0.12 -0.08 10131
0.87 -0.04 0.57 -1.38 9.91 0.44 0.11 -0.08 10138
0.88 -0.04 0.65 -1.46 9.82 0.44 0.10 -0.09 10145
0.90 -0.04 0.53 -1.52 9.85 0.44 0.10 -0.09 10152
0.88 -0.03 0.56 -1.54 10.41 0.44 0.10 -0.09 10160
0.90 -0.04 0.56 -1.48 9.90 0.44 0.10 -0.09 10167
0.90 -0.03 0.57 -1.55 9.87 0.45 0.10 -0.09 10174
0.90 -0.03 0.66 -1.60 10.01 0.47 0.09 -0.09 10181
0.92 -0.04 0.60 -1.73 9.99 0.49 0.09 -0.10 10188
0.93 -0.05 0.61 -1.71 10.10 0.51 0.09 -0.10 10195
0.93 -0.04 0.55 -1.75 10.00 0.54 0.09 -0.09 10203
0.94 -0.03 0.56 -1.82 9.91 0.56 0.09 -0.10 10210
0.94 -0.04 0.54 -1.85 9.92 0.59 0.09 -0.10 10217
0.92 -0.03 0.56 -1.88 9.89 0.61 0.09 -0.09 10224
0.91 -0.03 0.54 -1.91 9.89 0.63 0.08 -0.09 10231
0.90 -0.04 0.54 -1.97 10.23 0.67 0.07 -0.08 10238
0.85 -0.04 0.62 -2.06 10.50 0.72 0.06 -0.08 10246
0.83 -0.02 0.81 -2.15 10.52 0.79 0.03 -0.08 10253
0.80 -0.03 0.70 -2.26 10.53 0.85 0.00 -0.10 10260
0.75 -0.03 0.69 -2.23 10.32 0.92 -0.03 -0.10 10268
0.70 -0.04 0.65 -2.33 10.35 0.99 -0.05 -0.11 10275
0.66 -0.03 0.69 -2.36 10.31 1.03 -0.06 -0.12 10283
0.62 -0.03 0.72 -2.47 10.95 1.10 -0.07 -0.13 10290
0.61 -0.02 0.68 -2.48 10.42 1.15 -0.08 -0.13 10297
0.58 -0.03 0.60 -2.61 10.25 1.21 -0.09 -0.13 10304
0.54 -0.03 0.57 -2.67 10.12 1.26 -0.08 -0.13 10311
0.48 -0.03 0.42 -2.87 10.17 1.30 -0.08 -0.13 10318
0.46 -0.02 0.50 -2.99 10.13 1.35 -0.06 -0.12 10326
0.43 -0.02 0.53 -3.00 9.83 1.40 -0.07 -0.12 10332
0.40 -0.02 0.69 -3.08 10.32 1.41 -0.11 -0.12 10340
0.35 -0.02 0.59 -3.22 9.87 1.47 -0.05 -0.13 10346
0.27 -0.02 0.56 -3.36 9.87 1.51 -0.06 -0.13 10353
0.20 -0.02 0.59 -3.51 9.95 1.56 -0.05 -0.14 10360
0.21 -0.02 0.68 -3.72 10.17 1.61 -0.05 -0.15 10369
0.16 -0.02 0.65 -3.84 10.30 1.65 -0.04 -0.16 10375
0.15 -0.02 0.58 -3.91 10.16 1.71 -0.05 -0.17 10382
0.12 -0.01 0.71 -4.22 10.20 1.75 -0.06 -0.18 10389
0.08 -0.01 0.72 -4.42 10.38 1.81 -0.08 -0.20 10396
0.06 -0.01 0.87 -4.60 10.44 1.87 -0.10 -0.22 10403
0.05 -0.01 0.91 -4.70 10.56 1.92 -0.12 -0.24 10411
0.06 -0.01 0.91 -5.02 10.78 1.98 -0.13 -0.26 10418
0.08 -0.01 1.22 -5.40 10.97 2.06 -0.13 -0.29 10425
0.06 -0.01 1.37 -5.56 11.10 2.08 -0.09 -0.31 10432
0.07 -0.01 1.36 -5.72 11.11 2.12 -0.03 -0.34 10439
0.04 -0.00 1.51 -6.05 11.38 2.14 0.04 -0.37 10446
0.03 -0.00 1.40 -6.26 11.07 2.16 0.14 -0.39 10454
0.04 0.00 1.57 -6.27 10.88 2.15 0.25 -0.41 10461
0.06 -0.01 1.45 -6.27 10.93 2.14 0.34 -0.43 10468
0.05 -0.01 1.21 -6.30 10.94 2.11 0.42 -0.46 10475
0.03 -0.00 1.04 -6.37 10.97 2.09 0.47 -0.47 10482
0.02 -0.00 0.84 -6.30 11.13 2.07 0.48 -0.49 10489
0.02 -0.00 0.60 -6.11 11.10 2.03 0.43 -0.52 10497
0.02 -0.00 0.42 -6.15 11.04 2.01 0.36 -0.54 10504
0.04 -0.00 0.58 -5.95 10.79 2.00 0.25 -0.57 10511
0.03 -0.00 0.48 -6.12 10.26 2.01 0.13 -0.60 10518
0.00 0.00 0.51 -5.86 10.10 2.01 0.05 -0.62 10525
0.00 0.00 0.44 -5.80 9.76 2.03 -0.02 -0.63 10532
0.00 0.00 0.25 -5.49 9.32 2.04 -0.07 -0.64 10540
0.00 0.00 0.17 -5.37 8.99 2.06 -0.14 -0.64 10547
0.00 0.00 -0.13 -5.29 8.44 2.08 -0.19 -0.64 10554
0.00 0.00 -0.19 -4.98 7.23 2.07 -0.22 -0.62 10561
0.00 0.00 -0.15 -4.74 6.45 2.01 -0.26 -0.60 10568
0.00 0.00 -0.23 -4.37 5.44 1.92 -0.29 -0.59 10575
0.01 -0.00 -0.39 -3.77 4.65 1.77 -0.31 -0.57 10583
0.02 -0.00 -0.45 -3.79 3.99 1.63 -0.32 -0.55 10590
0.00 -0.00 -0.63 -3.91 4.59 1.50 -0.34 -0.53 10597
0.00 0.00 -0.89 -3.87 4.42 1.39 -0.31 -0.52 10604
0.00 0.00 -1.26 -2.67 4.57 1.30 -0.29 -0.52 10611
0.00 0.00 -1.60 1.85 5.50 1.13 -0.25 -0.57 10618
0.00 0.00 -1.06 -0.74 6.29 0.76 -0.23 -0.68 10626
0.00 0.00 -1.33 -2.28 8.43 0.35 -0.26 -0.73 10633
0.00 0.00 -1.32 -2.44 8.67 -0.03 -0.18 -0.74 10640
0.00 0.00 -1.09 -2.37 7.77 -0.24 -0.07 -0.75 10647
0.00 0.00 -0.97 -2.17 6.59 -0.45 -0.04 -0.76 10654
0.00 0.00 -0.70 -1.95 5.59 -0.62 -0.06 -0.76 10661
0.00 0.00 -0.54 -2.34 5.02 -0.74 -0.09 -0.76 10669
0.00 0.00 -0.42 -2.92 4.97 -0.82 -0.12 -0.74 10676
0.00 0.00 -0.21 -3.57 5.08 -0.84 -0.15 -0.71 10683
0.00 0.00 -0.16 -3.89 5.24 -0.83 -0.16 -0.66 10690
0.00 0.00 -0.07 -4.12 5.22 -0.78 -0.17 -0.60 10697
0.00 0.00 -0.01 -4.30 4.89 -0.74 -0.18 -0.54 10704
0.00 0.00 0.18 -4.26 5.12 -0.71 -0.19 -0.50 10712
0.00 0.00 0.30 -4.39 5.28 -0.69 -0.20 -0.44 10719
0.00 0.00 0.41 -4.59 5.62 -0.68 -0.19 -0.39 10726
0.00 0.00 0.52 -5.02 6.02 -0.68 -0.17 -0.33 10733
0.00 0.00 0.59 -5.41 6.28 -0.70 -0.13 -0.27 10740
0.00 0.00 0.60 -5.67 6.42 -0.74 -0.07 -0.22 10747
0.00 0.00 0.62 -5.83 6.59 -0.78 -0.01 -0.17 10755
0.00 0.00 0.52 -5.96 6.60 -0.84 0.05 -0.11 10762
0.00 0.00 0.43 -6.08 6.61 -0.88 0.12 -0.07 10769
0.00 0.00 0.29 -6.16 6.71 -0.92 0.18 -0.03 10776
0.00 0.00 0.13 -6.26 6.91 -0.96 0.21 0.00 10783
0.00 0.00 -0.04 -6.38 7.12 -1.00 0.24 0.04 10790
0.00 -0.00 -1.05 -9.08 7.02 -1.03 0.23 0.06 10798
0.00 0.00 -5.67 -22.96 7.72 -0.93 0.19 -0.00 10805
0.00 0.00 -5.63 -25.76 4.41 -0.49 -0.18 -0.26 10812
0.00 0.00 -5.27 -32.71 1.68 0.36 -0.52 -0.40 10819
0.00 0.00 -4.15 -18.79 0.80 1.27 -0.94 -0.54 10826
0.00 0.01 -5.06 -36.73 -11.69 1.65 -1.04 -0.65 10834
0.01 -0.00 -1.73 -13.98 -3.76 2.05 -1.13 -0.56 10841
0.00 0.00 3.75 -12.98 -0.14 2.17 -0.58 -0.54 10848
0.00 0.00 3.92 -9.98 12.75 1.62 0.28 -0.60 10855
0.00 0.00 2.06 -8.93 12.98 0.61 1.09 -0.63 10862
0.00 0.00 -0.97 -6.23 9.38 0.04 1.21 -0.67 10869
0.00 0.00 -0.59 5.58 2.62 -0.27 1.10 -0.69 10876
0.01 -0.00 0.55 3.71 4.76 -0.65 1.21 -0.61 10884
0.00 0.00 -0.77 -2.22 12.43 -1.54 1.23 -0.47 10891
0.00 0.00 -0.73 -2.63 11.32 -2.16 1.33 -0.31 10898
0.00 0.00 -0.44 -2.70 9.71 -2.18 1.30 -0.11 10905
0.01 -0.00 -0.83 -2.29 7.69 -2.05 1.17 0.04 10912
0.00 0.00 -1.41 -1.73 5.79 -1.81 0.86 0.18 10919
0.01 -0.00 -1.87 -1.39 4.22 -1.57 0.43 0.30 10927
0.01 -0.00 -1.65 -1.03 3.69 -1.30 0.09 0.40 10934
0.00 0.00 -1.04 -0.51 3.90 -1.09 -0.17 0.46 10941
0.00 0.00 -0.38 -0.58 4.83 -0.85 -0.25 0.50 10948
0.00 0.00 0.16 -0.35 5.58 -0.66 -0.21 0.52 10955
0.01 -0.00 0.57 0.12 6.40 -0.57 -0.03 0.52 10962
0.01 -0.00 0.70 0.58 7.03 -0.54 0.15 0.49 10970
0.01 -0.00 0.55 1.02 7.87 -0.60 0.36 0.46 10977
0.00 -0.00 0.35 1.39 9.16 -0.78 0.52 0.42 10984
0.00 0.00 0.23 1.63 9.85 -1.02 0.69 0.40 10991
0.00 -0.00 0.05 1.61 10.38 -1.26 0.81 0.37 10998
0.01 -0.00 -0.12 1.54 10.73 -1.55 0.84 0.36 11005
0.01 -0.00 -0.32 1.22 10.63 -1.82 0.82 0.35 11013
0.00 0.00 -0.45 0.69 10.50 -2.02 0.77 0.37 11020
0.00 -0.00 -0.55 0.03 10.34 -2.19 0.69 0.38 11027
0.00 0.00 -0.41 -0.66 10.32 -2.27 0.57 0.39 11034
0.00 0.00 -0.24 -1.23 10.33 -2.28 0.47 0.39 11041
0.01 -0.00 0.02 -1.90 10.29 -2.24 0.38 0.36 11048
0.00 -0.00 0.16 -2.42 10.41 -2.19 0.34 0.33 11056
0.00 -0.00 0.44 -2.46 10.52 -2.13 0.36 0.31 11063
0.00 0.00 0.53 -2.24 10.61 -2.09 0.39 0.28 11070
0.00 -0.00 0.59 -2.03 11.24 -2.09 0.44 0.26 11077
0.01 0.00 0.66 -1.70 11.56 -2.14 0.52 0.25 11084
0.01 -0.00 0.58 -1.55 11.87 -2.21 0.56 0.25 11091
0.00 -0.00 0.47 -1.57 12.03 -2.28 0.59 0.26 11099
0.00 -0.00 0.35 -1.69 11.92 -2.34 0.57 0.28 11106
0.00 0.00 0.24 -1.89 11.69 -2.37 0.55 0.31 11113
0.00 -0.00 0.20 -2.05 11.49 -2.36 0.52 0.33 11120
0.00 0.00 0.19 -2.29 11.36 -2.32 0.49 0.35 11127
0.01 -0.00 0.11 -2.42 11.33 -2.25 0.46 0.35 11134
0.00 -0.00 0.11 -2.59 11.27 -2.16 0.45 0.34 11142
0.00 -0.00 0.06 -2.74 11.37 -2.08 0.44 0.31 11149
0.00 0.00 0.07 -2.64 11.38 -1.99 0.43 0.27 11156
0.00 0.00 0.09 -2.69 11.63 -1.94 0.43 0.22 11163
0.00 -0.00 0.12 -2.75 11.94 -1.90 0.41 0.16 11170
0.01 -0.00 0.15 -2.97 12.19 -1.89 0.39 0.11 11177
0.01 -0.00 0.11 -3.16 12.37 -1.88 0.35 0.07 11185
0.00 -0.00 0.19 -3.28 12.36 -1.88 0.30 0.05 11192
0.00 0.00 0.13 -3.56 12.19 -1.87 0.25 0.05 11199
0.01 -0.00 0.10 -3.88 11.95 -1.85 0.21 0.09 11206
0.01 -0.00 0.08 -4.37 11.94 -1.81 0.15 0.15 11213
0.01 -0.00 -0.15 -6.33 15.08 -1.78 0.08 0.22 11220
0.00 -0.00 -0.86 -7.90 18.54 -1.66 0.01 0.26 11228
0.00 0.00 -1.14 -8.00 14.28 -1.60 -0.12 0.28 11235
0.00 0.00 -1.51 -9.49 17.82 -1.41 -0.22 0.33 11242
0.00 0.00 -0.59 -9.78 17.26 -1.35 -0.18 0.32 11249
0.01 -0.00 -0.47 -8.43 13.88 -1.38 -0.21 0.34 11256
0.00 -0.00 -0.08 -12.54 3.47 -1.32 -0.08 0.31 11264
0.00 0.00 1.34 -25.89 5.45 -0.90 -0.03 0.32 11271
0.00 0.00 2.01 -3.89 3.85 0.29 0.59 0.44 11278
0.00 0.00 0.65 -9.46 -8.28 -0.48 0.09 0.34 11285
-0.00 0.01 -6.89 -28.42 20.07 0.05 -0.39 0.23 11292
0.02 0.02 -6.94 -28.56 6.42 -0.09 -0.31 0.22 11300
0.01 0.01 -3.61 -28.72 10.54 -0.02 -0.22 0.16 11308
0.00 0.02 -3.65 -34.10 6.80 -0.13 -0.10 -0.02 11314
-0.00 0.02 -0.55 -2.12 10.08 -0.16 0.08 -0.05 11321
0.01 0.04 0.27 -3.94 9.19 -0.30 0.07 0.03 11328
-0.00 0.02 0.70 -0.46 10.25 -0.32 0.07 0.07 11335
0.01 0.11 0.93 1.43 10.36 -0.23 0.03 0.06 11342
0.00 0.12 0.73 0.63 10.08 -0.16 -0.01 -0.03 11350
-0.01 0.18 0.52 -0.06 9.85 -0.12 -0.04 -0.06 11357
0.01 0.19 0.40 -0.73 9.83 -0.08 -0.05 -0.08 11364
0.02 0.19 0.33 -0.94 9.90 -0.07 -0.03 -0.07 11371
0.01 0.20 0.03 -0.89 9.85 -0.06 -0.00 -0.06 11378
0.04 0.23 0.09 -0.67 9.82 -0.05 0.03 -0.06 11385
0.04 0.24 0.18 -0.72 9.65 -0.04 0.05 -0.06 11393
0.00 0.24 0.28 -0.81 9.79 -0.04 0.07 -0.06 11400
-0.01 0.25 0.35 -0.80 9.87 -0.04 0.07 -0.05 11407
-0.00 0.24 0.33 -0.77 9.82 -0.03 0.07 -0.05 11414
0.01 0.26 0.34 -0.81 9.82 -0.04 0.07 -0.05 11421
0.01 0.28 0.35 -0.80 9.82 -0.03 0.06 -0.06 11428
-0.00 0.27 0.35 -0.76 9.85 -0.03 0.06 -0.06 11436
0.01 0.26 0.37 -0.73 9.74 -0.04 0.06 -0.06 11443
-0.01 0.32 0.37 -0.79 9.81 -0.03 0.06 -0.07 11450
0.01 0.33 0.40 -0.76 9.82 -0.03 0.06 -0.07 11457
0.02 0.35 0.40 -0.69 9.87 -0.03 0.06 -0.06 11464
0.01 0.36 0.35 -0.76 9.81 -0.02 0.06 -0.07 11471
-0.01 0.36 0.42 -0.75 9.83 -0.02 0.06 -0.07 11479
-0.02 0.35 0.37 -0.75 9.80 -0.01 0.06 -0.07 11486
-0.01 0.36 0.37 -0.75 9.77 -0.02 0.06 -0.07 11493
-0.00 0.37 0.35 -0.74 9.83 -0.01 0.05 -0.07 11500
0.01 0.36 0.38 -0.76 9.83 -0.01 0.05 -0.07 11507
0.00 0.35 0.35 -0.81 9.81 -0.02 0.04 -0.07 11514
0.00 0.35 0.39 -0.76 9.83 -0.02 0.04 -0.07 11522
-0.00 0.36 0.39 -0.75 9.82 -0.02 0.03 -0.07 11529
0.01 0.36 0.39 -0.77 9.82 -0.01 0.03 -0.07 11536
0.02 0.38 0.37 -0.73 9.20 -0.01 0.02 -0.08 11543
0.04 0.36 0.37 -0.76 9.78 -0.02 0.02 -0.07 11550
0.04 0.37 0.36 -0.77 9.83 -0.02 0.02 -0.07 11557
0.02 0.37 0.32 -0.75 9.84 -0.02 0.02 -0.07 11565
0.00 0.37 0.35 -0.73 9.80 -0.02 0.02 -0.07 11572
0.01 0.40 0.29 -0.73 9.21 -0.02 0.02 -0.07 11579
0.02 0.43 0.33 -0.72 9.81 -0.01 0.02 -0.07 11586
0.03 0.41 0.34 -0.70 9.82 -0.02 0.02 -0.07 11593
0.02 0.41 0.35 -0.75 9.84 -0.01 0.03 -0.07 11600
0.01 0.38 0.35 -0.74 9.82 -0.01 0.03 -0.07 11608
0.00 0.39 0.30 -0.75 9.79 -0.01 0.03 -0.07 11615
0.01 0.39 0.35 -0.73 9.79 -0.00 0.03 -0.07 11622
0.03 0.39 0.34 -0.73 9.81 -0.01 0.03 -0.07 11629
0.03 0.39 0.32 -0.74 9.81 -0.00 0.03 -0.07 11636
0.02 0.39 0.36 -0.71 9.82 -0.00 0.03 -0.07 11643
0.02 0.38 0.31 -0.74 9.80 -0.00 0.03 -0.07 11651
0.02 0.38 0.30 -0.74 9.82 0.00 0.04 -0.07 11658
0.03 0.37 0.33 -0.72 9.81 0.00 0.04 -0.08 11665
0.04 0.38 0.33 -0.74 10.41 0.01 0.04 -0.07 11672
0.05 0.36 0.34 -0.71 9.79 0.01 0.04 -0.07 11679
0.05 0.34 0.35 -0.72 9.80 0.01 0.04 -0.07 11686
0.04 0.33 0.34 -0.76 9.81 0.01 0.04 -0.07 11694
0.06 0.32 0.33 -0.75 9.79 0.01 0.04 -0.07 11701
0.06 0.31 0.33 -0.75 9.77 0.01 0.04 -0.08 11708
0.08 0.30 0.31 -0.74 9.80 0.01 0.04 -0.07 11715
0.08 0.28 0.34 -0.74 9.81 0.02 0.05 -0.07 11722
0.08 0.27 0.33 -0.77 9.81 0.01 0.05 -0.07 11729
0.08 0.25 0.33 -0.77 9.80 0.01 0.05 -0.07 11737
0.09 0.25 0.34 -0.79 9.83 0.01 0.05 -0.07 11744
0.11 0.24 0.32 -0.78 9.82 0.01 0.05 -0.07 11751
0.13 0.22 0.36 -0.75 9.81 0.01 0.05 -0.07 11758
0.15 0.20 0.34 -0.77 9.78 0.02 0.05 -0.07 11765
0.16 0.17 0.33 -0.79 9.82 0.01 0.05 -0.07 11772
0.15 0.18 0.35 -0.76 9.82 0.01 0.05 -0.08 11780
0.16 0.17 0.36 -0.76 9.78 0.01 0.05 -0.07 11787
0.18 0.18 0.36 -0.78 9.81 0.01 0.04 -0.08 11794
0.20 0.21 0.31 -0.62 9.82 0.01 0.04 -0.07 11801
0.18 0.21 0.36 -0.77 9.81 0.00 0.05 -0.08 11808
0.17 0.20 0.33 -0.79 9.81 0.01 0.04 -0.07 11815
0.17 0.17 0.35 -0.79 9.80 0.00 0.05 -0.07 11823
0.17 0.17 0.36 -0.80 9.79 0.00 0.05 -0.08 11830
0.18 0.18 0.34 -0.77 9.79 0.01 0.05 -0.07 11837
0.19 0.16 0.34 -0.76 9.83 0.01 0.05 -0.07 11844
0.18 0.14 0.34 -0.80 9.83 0.01 0.05 -0.07 11851
0.18 0.12 0.36 -0.78 9.82 0.01 0.05 -0.08 11858
0.17 0.11 0.35 -0.79 9.78 0.01 0.05 -0.07 11866
0.20 0.12 0.34 -0.77 9.83 0.01 0.05 -0.07 11873
0.22 0.08 0.34 -0.76 9.81 0.01 0.05 -0.08 11880
0.23 0.06 0.36 -0.77 9.82 0.01 0.05 -0.08 11887
0.22 0.07 0.35 -0.80 9.79 0.01 0.06 -0.08 11894
0.22 0.04 0.35 -0.80 9.81 0.01 0.06 -0.07 11901
0.21 0.05 0.37 -0.83 9.81 0.01 0.06 -0.08 11909
0.24 0.05 0.34 -0.80 9.82 0.01 0.07 -0.08 11916
0.25 0.04 0.36 -0.77 9.81 0.01 0.06 -0.08 11923
0.25 0.06 0.35 -0.79 9.78 0.01 0.07 -0.07 11930
0.26 0.00 0.37 -0.80 9.80 0.01 0.07 -0.07 11937
0.26 0.01 0.39 -0.78 9.80 0.01 0.07 -0.08 11944
0.26 0.02 0.33 -0.80 9.82 0.01 0.07 -0.08 11952
0.26 0.03 0.40 -0.82 9.79 0.01 0.07 -0.07 11959
0.27 0.03 0.40 -0.80 9.20 0.01 0.06 -0.08 11966
0.27 0.02 0.37 -0.81 9.81 0.01 0.06 -0.07 11973
0.26 0.03 0.41 -0.81 9.81 0.01 0.06 -0.08 11980
0.27 -0.02 0.38 -0.82 9.80 0.01 0.06 -0.08 11987
0.28 -0.02 0.37 -0.83 9.81 0.01 0.06 -0.07 11995
0.27 -0.01 0.41 -0.83 9.80 0.01 0.06 -0.07 12002
0.28 -0.02 0.30 -0.80 9.64 0.01 0.06 -0.07 12009
0.28 -0.01 0.37 -0.83 9.79 0.01 0.06 -0.07 12016
0.27 -0.01 0.39 -0.82 9.80 0.01 0.06 -0.07 12023
0.26 -0.01 0.37 -0.85 9.80 0.00 0.06 -0.07 12030
0.27 -0.00 0.39 -0.81 9.85 0.00 0.05 -0.08 12038
0.28 0.01 0.39 -0.84 9.81 0.01 0.05 -0.08 12045
0.28 -0.01 0.38 -0.80 9.81 0.00 0.05 -0.07 12052
0.27 -0.02 0.39 -0.82 9.81 0.01 0.05 -0.08 12059
0.28 -0.01 0.40 -0.82 9.82 0.01 0.06 -0.08 12066
0.27 -0.01 0.40 -0.84 9.80 0.01 0.06 -0.08 12073
0.30 -0.02 0.39 -0.82 9.80 0.01 0.06 -0.07 12081
0.30 -0.01 0.41 -0.86 9.82 0.01 0.06 -0.07 12088
0.29 -0.01 0.41 -0.83 10.42 0.01 0.06 -0.07 12095
0.29 -0.01 0.40 -0.82 9.82 0.01 0.06 -0.08 12102
0.31 -0.02 0.43 -0.87 9.79 0.01 0.06 -0.07 12109
0.32 -0.01 0.43 -0.82 9.81 0.01 0.05 -0.08 12116
0.33 -0.00 0.44 -0.83 9.85 0.02 0.06 -0.07 12124
0.37 -0.01 0.41 -0.86 9.80 0.01 0.06 -0.08 12131
0.36 -0.01 0.39 -0.86 9.81 0.01 0.05 -0.08 12138
0.35 -0.02 0.39 -0.86 9.82 0.02 0.06 -0.07 12145
0.34 -0.01 0.41 -0.87 9.79 0.02 0.06 -0.07 12152
0.36 -0.01 0.40 -0.82 9.82 0.02 0.06 -0.07 12160
0.36 0.00 0.42 -0.83 9.82 0.02 0.06 -0.07 12167
0.37 -0.01 0.45 -0.83 9.80 0.02 0.06 -0.07 12174
0.40 -0.02 0.41 -0.89 9.80 0.02 0.05 -0.07 12181
0.41 -0.03 0.40 -0.86 9.82 0.03 0.06 -0.07 12188
0.40 -0.02 0.41 -0.89 9.82 0.03 0.06 -0.07 12195
0.41 -0.02 0.41 -0.89 9.83 0.03 0.06 -0.07 12203
0.43 -0.01 0.42 -0.85 9.82 0.04 0.06 -0.07 12210
0.44 -0.01 0.42 -0.86 9.81 0.04 0.07 -0.07 12217
0.43 -0.01 0.46 -0.86 9.82 0.05 0.07 -0.07 12224
0.44 -0.03 0.42 -0.90 9.82 0.05 0.07 -0.07 12231
0.43 -0.02 0.41 -0.94 9.82 0.06 0.07 -0.06 12238
0.44 -0.02 0.45 -0.85 9.81 0.07 0.07 -0.07 12246
0.44 -0.02 0.40 -0.94 9.81 0.07 0.07 -0.07 12253
0.48 -0.02 0.45 -0.92 9.84 0.08 0.07 -0.07 12260
0.50 -0.02 0.42 -0.91 9.82 0.09 0.08 -0.06 12267
0.51 -0.03 0.42 -0.93 9.82 0.10 0.08 -0.06 12274
0.50 -0.03 0.45 -0.91 9.83 0.11 0.08 -0.07 12281
0.51 -0.02 0.45 -0.94 9.82 0.12 0.09 -0.07 12289
0.54 -0.02 0.48 -0.96 9.84 0.13 0.09 -0.07 12296
0.54 -0.02 0.44 -0.95 9.82 0.15 0.10 -0.07 12303
0.55 -0.02 0.45 -0.93 9.84 0.17 0.11 -0.07 12310
0.54 -0.02 0.46 -1.00 9.86 0.20 0.13 -0.07 12317
0.58 -0.02 0.49 -1.05 9.94 0.22 0.14 -0.07 12324
0.61 -0.02 0.46 -1.05 9.95 0.25 0.15 -0.07 12332
0.62 -0.02 0.46 -1.00 9.91 0.29 0.16 -0.07 12339
0.61 -0.03 0.51 -1.08 9.83 0.32 0.17 -0.07 12346
0.62 -0.04 0.54 -1.09 9.93 0.36 0.17 -0.07 12353
0.63 -0.03 0.51 -1.10 10.00 0.40 0.17 -0.07 12360
0.65 -0.03 0.57 -1.15 9.93 0.43 0.17 -0.07 12367
0.66 -0.02 0.62 -1.20 9.96 0.47 0.16 -0.08 12375
0.71 -0.03 0.62 -1.31 10.02 0.50 0.16 -0.09 12383
0.70 -0.03 0.58 -1.31 10.19 0.51 0.15 -0.09 12390
0.72 -0.04 0.59 -1.36 10.13 0.52 0.15 -0.09 12397
0.72 -0.03 0.54 -1.36 10.00 0.54 0.15 -0.10 12403
0.74 -0.03 0.64 -1.38 10.10 0.55 0.15 -0.10 12411
0.76 -0.03 0.50 -1.52 10.04 0.60 0.15 -0.10 12418
0.76 -0.04 0.57 -1.43 10.13 0.59 0.14 -0.11 12426
0.75 -0.03 0.61 -1.48 9.95 0.59 0.14 -0.10 12432
0.75 -0.04 0.55 -1.65 10.24 0.61 0.13 -0.10 12440
0.73 -0.03 0.62 -1.63 10.24 0.65 0.12 -0.10 12447
0.75 -0.03 0.68 -1.72 10.20 0.68 0.10 -0.10 12453
0.73 -0.03 0.75 -1.78 10.19 0.72 0.09 -0.10 12462
0.69 -0.03 0.69 -1.91 10.32 0.76 0.06 -0.11 12469
0.68 -0.03 0.72 -1.91 10.50 0.81 0.03 -0.11 12476
0.66 -0.04 0.91 -2.05 10.46 0.85 -0.01 -0.12 12482
0.64 -0.03 0.78 -1.95 10.49 0.92 -0.02 -0.12 12490
0.62 -0.03 0.73 -2.13 10.63 0.99 -0.06 -0.14 12497
0.59 -0.03 0.70 -2.17 10.57 1.07 -0.08 -0.15 12505
0.56 -0.03 0.74 -2.29 10.21 1.13 -0.11 -0.16 12512
0.51 -0.03 0.69 -2.34 10.35 1.17 -0.13 -0.16 12519
0.49 -0.03 0.46 -2.34 10.26 1.22 -0.13 -0.16 12526
0.44 -0.02 0.51 -2.50 10.29 1.26 -0.12 -0.15 12533
0.44 -0.02 0.53 -2.57 10.07 1.31 -0.12 -0.14 12540
0.44 -0.03 0.41 -2.75 10.12 1.35 -0.11 -0.13 12548
0.38 -0.02 0.44 -2.89 10.11 1.40 -0.08 -0.12 12555
0.33 -0.03 0.39 -2.96 10.02 1.45 -0.07 -0.12 12562
0.31 -0.02 0.46 -2.96 10.31 1.47 -0.08 -0.12 12569
0.28 -0.02 0.54 -3.25 10.11 1.53 -0.03 -0.11 12576
0.22 -0.01 0.52 -3.41 10.07 1.59 -0.03 -0.11 12583
0.21 -0.02 0.60 -3.44 10.01 1.63 -0.02 -0.11 12591
0.17 -0.02 0.58 -3.62 10.04 1.67 -0.03 -0.12 12597
0.14 -0.01 0.61 -3.78 9.99 1.69 -0.05 -0.13 12604
0.10 -0.01 0.73 -3.88 9.73 1.71 -0.06 -0.15 12611
0.10 -0.01 0.73 -4.11 10.02 1.72 -0.07 -0.16 12618
0.08 -0.01 0.56 -4.38 9.97 1.73 -0.08 -0.18 12625
0.08 -0.01 0.65 -4.48 10.07 1.74 -0.09 -0.18 12633
0.05 -0.00 0.75 -4.75 10.17 1.75 -0.08 -0.19 12640
0.03 -0.00 0.71 -4.99 10.48 1.75 -0.07 -0.21 12647
0.02 -0.00 0.80 -5.04 10.43 1.77 -0.05 -0.21 12654
0.04 -0.00 0.83 -5.25 10.49 1.77 -0.03 -0.23 12661
0.04 -0.00 1.03 -5.42 10.59 1.77 0.00 -0.24 12668
0.04 -0.00 1.06 -5.57 10.62 1.78 0.04 -0.26 12676
0.04 -0.00 0.95 -5.56 10.52 1.77 0.08 -0.28 12683
0.05 -0.01 0.81 -5.66 10.41 1.77 0.08 -0.30 12690
0.05 -0.00 0.91 -5.70 10.19 1.77 0.06 -0.32 12697
0.04 0.00 0.83 -5.72 10.05 1.77 0.04 -0.33 12704
0.06 -0.01 0.82 -5.74 10.11 1.78 0.04 -0.35 12711
0.04 -0.00 0.63 -5.87 10.13 1.76 0.02 -0.37 12719
0.04 -0.00 0.49 -5.90 10.34 1.75 -0.03 -0.38 12726
0.04 -0.00 0.34 -6.00 10.19 1.72 -0.09 -0.40 12733
0.03 -0.00 0.28 -6.02 10.06 1.69 -0.14 -0.40 12740
0.00 -0.00 0.24 -5.89 9.83 1.70 -0.20 -0.41 12747
0.02 -0.00 0.15 -5.75 9.52 1.72 -0.25 -0.41 12754
0.00 -0.00 0.19 -5.62 9.22 1.74 -0.30 -0.41 12762
0.00 0.00 0.20 -5.60 8.97 1.77 -0.34 -0.41 12769
0.00 0.00 0.14 -5.55 8.73 1.80 -0.37 -0.41 12776
0.00 0.00 0.09 -5.56 8.49 1.84 -0.40 -0.40 12783
0.00 0.00 0.17 -5.34 7.80 1.85 -0.45 -0.40 12790
0.00 0.00 0.18 -5.34 6.93 1.82 -0.51 -0.41 12797
0.00 0.00 0.19 -5.31 6.44 1.78 -0.57 -0.41 12805
0.00 0.00 0.07 -5.33 6.06 1.72 -0.62 -0.41 12812
0.00 0.00 0.06 -5.41 5.96 1.68 -0.69 -0.41 12819
0.03 -0.00 0.09 -5.32 5.94 1.65 -0.72 -0.42 12826
0.04 -0.00 0.11 -5.17 6.03 1.60 -0.72 -0.42 12833
0.02 -0.00 0.22 -5.32 6.41 1.50 -0.69 -0.42 12840
0.00 0.00 0.27 -5.61 6.38 1.48 -0.66 -0.43 12848
0.01 -0.00 0.19 -6.25 5.90 1.41 -0.61 -0.43 12855
0.00 0.00 0.36 -4.68 5.60 1.36 -0.58 -0.42 12862
0.00 0.00 0.42 -3.26 5.14 1.25 -0.48 -0.44 12869
0.00 -0.00 0.33 -4.42 5.29 1.08 -0.39 -0.45 12876
0.00 -0.00 0.35 -4.14 5.90 0.97 -0.30 -0.48 12883
0.01 -0.00 0.10 -1.55 5.74 0.86 -0.18 -0.51 12891
0.00 0.00 0.80 2.74 6.67 0.61 -0.03 -0.60 12898
0.00 0.00 0.56 0.32 9.12 0.06 0.07 -0.68 12905
0.00 0.00 -0.17 -1.53 9.60 -0.48 0.12 -0.74 12912
0.01 -0.00 -0.30 -1.98 9.65 -0.78 0.19 -0.76 12919
0.00 0.00 -0.37 -1.83 8.66 -1.04 0.26 -0.77 12926
0.00 0.00 -0.35 -1.23 7.50 -1.22 0.26 -0.76 12934
0.00 0.00 -0.40 -1.05 6.30 -1.36 0.24 -0.75 12941
0.00 0.00 -0.56 -1.46 5.84 -1.44 0.22 -0.72 12948
0.00 0.00 -0.64 -1.83 5.79 -1.47 0.20 -0.68 12955
0.00 -0.00 -0.77 -2.08 5.90 -1.44 0.16 -0.63 12962
0.00 0.00 -0.74 -2.28 5.82 -1.32 0.11 -0.58 12969
0.00 0.00 -0.64 -2.37 5.69 -1.23 0.06 -0.53 12977
0.00 0.00 -0.53 -2.21 5.61 -1.13 -0.01 -0.47 12984
0.00 0.00 -0.46 -1.94 5.89 -1.08 -0.09 -0.41 12991
0.00 0.00 -0.37 -1.80 6.33 -1.06 -0.11 -0.36 12998
0.00 -0.00 -0.29 -1.68 6.93 -1.07 -0.12 -0.30 13005
0.00 0.00 -0.19 -1.57 7.87 -1.09 -0.10 -0.24 13012
0.00 0.00 0.03 -1.63 8.73 -1.21 -0.05 -0.21 13020
0.00 0.00 -11.04 -43.31 2.85 -1.15 0.02 -0.25 13027
0.00 0.00 -14.04 -68.07 8.63 -0.39 -0.46 -0.47 13034
-0.00 0.01 -7.46 -48.24 6.39 1.66 -1.76 -0.56 13041
0.01 0.01 0.04 -1.96 -42.06 2.30 -2.48 -0.91 13048
0.00 0.00 1.12 -32.11 2.11 2.90 -1.79 -0.60 13056
-0.00 0.00 7.49 -8.06 18.90 2.16 0.80 -0.44 13063
0.00 0.00 5.61 -7.56 16.07 0.59 1.73 -0.64 13070
0.00 0.00 -2.28 -4.15 9.76 -0.59 1.84 -0.78 13077
0.00 -0.00 -0.67 7.52 -2.90 -0.75 1.69 -0.77 13084
0.00 0.00 -1.69 -2.12 8.94 -1.06 1.70 -0.62 13091
0.00 0.00 -2.48 -5.08 11.71 -1.93 1.62 -0.35 13099
0.00 0.00 -2.52 -3.99 9.93 -1.92 1.57 -0.05 13106
0.00 0.00 -2.86 -3.18 9.94 -1.54 1.33 0.20 13113
0.00 0.00 -3.40 -2.07 7.22 -1.34 0.92 0.40 13120
0.01 -0.00 -2.93 -0.35 5.15 -1.19 0.47 0.54 13127
0.00 0.00 -2.17 0.93 5.03 -1.12 -0.02 0.63 13134
0.00 0.00 -1.65 1.10 6.08 -1.06 -0.29 0.65 13142
0.00 0.00 -0.68 0.99 6.85 -1.00 -0.39 0.62 13149
0.00 0.00 -0.06 1.44 6.96 -0.93 -0.28 0.55 13156
0.00 -0.00 0.56 1.63 6.86 -0.87 -0.11 0.44 13163
0.01 -0.00 0.48 1.98 7.07 -0.85 0.11 0.24 13170
0.00 -0.00 0.27 2.37 7.44 -0.87 0.32 0.02 13177
0.00 -0.00 -0.07 2.78 8.36 -0.94 0.55 -0.15 13185
0.00 0.00 -0.37 3.05 9.06 -1.05 0.76 -0.35 13192
0.00 0.00 -0.62 3.32 9.31 -1.23 0.87 -0.49 13199
0.00 0.00 -0.93 3.58 9.19 -1.46 0.90 -0.63 13206
0.01 -0.00 -1.10 3.50 9.03 -1.67 0.85 -0.72 13213
0.00 -0.00 -1.07 3.03 9.05 -1.89 0.73 -0.76 13220
0.00 0.00 -0.94 2.33 9.20 -2.06 0.62 -0.76 13228
0.00 0.00 -0.70 1.64 9.19 -2.11 0.59 -0.71 13235
0.00 0.00 -0.47 0.97 9.14 -2.13 0.60 -0.63 13242
0.00 0.00 -0.29 0.51 9.11 -2.11 0.63 -0.53 13249
0.00 -0.00 -0.19 0.25 9.97 -2.08 0.65 -0.44 13256
0.00 0.00 -0.43 0.20 9.60 -2.05 0.69 -0.32 13263
0.00 0.00 -0.27 -0.18 9.84 -2.00 0.72 -0.21 13271
0.00 0.00 -0.41 -0.32 10.27 -1.97 0.74 -0.13 13278
0.00 0.00 -0.24 -0.50 10.77 -1.96 0.74 -0.05 13285
0.00 0.00 -0.16 -0.75 11.10 -1.95 0.74 -0.00 13292
0.00 0.00 -0.22 -0.94 11.52 -1.98 0.79 0.04 13299
0.00 0.00 -0.25 -1.03 12.27 -2.00 0.85 0.08 13306
0.00 0.00 -0.23 -1.23 12.81 -2.05 0.94 0.11 13314
0.00 0.00 -0.21 -1.29 13.08 -2.13 1.02 0.13 13321
0.00 0.00 -0.32 -1.38 13.35 -2.23 1.06 0.15 13328
0.00 -0.00 -0.42 -1.60 13.36 -2.32 1.07 0.16 13335
0.00 0.00 -0.47 -1.99 13.23 -2.38 1.01 0.17 13342
0.00 0.00 -0.47 -2.36 13.17 -2.41 0.97 0.17 13349
0.00 0.00 -0.35 -2.67 12.97 -2.41 0.89 0.18 13357
0.00 0.00 -0.32 -3.62 13.05 -2.38 0.83 0.21 13364
0.00 0.00 -0.13 -3.34 13.20 -2.32 0.77 0.24 13371
0.01 -0.00 0.03 -3.58 13.22 -2.27 0.71 0.28 13378
0.00 0.00 0.18 -3.90 13.40 -2.21 0.67 0.32 13385
0.00 0.00 0.31 -4.18 13.20 -2.16 0.62 0.37 13392
0.00 0.00 0.36 -4.33 13.01 -2.10 0.55 0.43 13400
0.00 0.00 0.50 -4.69 12.81 -2.02 0.49 0.48 13407
0.00 0.00 0.67 -5.05 12.75 -1.95 0.44 0.52 13414
0.00 -0.00 0.88 -5.40 12.79 -1.86 0.42 0.56 13421
0.00 0.00 1.23 -5.71 12.90 -1.77 0.41 0.57 13428
0.00 0.00 1.34 -6.17 12.66 -1.70 0.41 0.58 13435
0.00 0.00 1.24 -6.47 12.34 -1.62 0.45 0.58 13443
0.00 0.00 0.91 -6.90 11.87 -1.54 0.52 0.60 13450
0.00 0.00 0.47 -7.18 11.33 -1.43 0.59 0.63 13457
0.00 0.00 0.65 -9.91 11.01 -1.30 0.69 0.66 13464
0.00 0.00 -1.67 -8.42 24.54 -0.14 1.43 0.89 13471
0.00 0.00 -2.70 -8.27 2.09 -0.47 0.80 0.83 13478
0.00 0.00 -3.60 -19.51 13.06 -0.23 0.17 0.63 13486
0.00 0.00 -2.44 -12.82 9.87 -0.09 -0.03 0.56 13493
0.00 0.00 -3.07 -15.71 7.98 -0.15 -0.00 0.50 13500
0.00 0.00 -2.68 -15.64 7.24 -0.01 0.02 0.41 13507
-0.00 0.00 -4.09 -18.10 5.59 0.14 0.05 0.26 13514
0.00 0.00 -3.57 -18.23 7.51 0.30 0.03 0.06 13521
-0.00 0.01 -4.46 -21.05 6.45 0.51 -0.08 -0.13 13529
0.00 0.03 -5.67 -25.03 4.23 0.80 -0.38 -0.27 13536
0.01 0.04 -3.08 -14.58 7.01 1.29 -0.70 -0.37 13543
-0.00 0.04 0.98 -1.86 12.67 1.56 -0.76 -0.42 13550
-0.00 0.04 0.37 0.23 20.54 0.34 -1.48 -0.35 13557
-0.01 0.09 0.27 -0.89 8.57 -0.21 -0.01 0.11 13564
-0.02 0.19 1.10 -0.30 9.81 -0.30 0.13 0.03 13572
-0.01 0.24 -0.24 -0.52 9.79 -0.22 0.05 -0.01 13579
-0.01 0.28 0.29 -0.48 9.76 -0.10 -0.06 -0.08 13586
-0.02 0.25 0.50 -0.83 10.32 -0.07 -0.01 -0.08 13593
-0.02 0.30 0.45 -0.92 10.06 -0.10 0.09 -0.04 13600
-0.03 0.32 0.28 -0.87 9.89 -0.08 0.12 -0.03 13607
-0.02 0.34 0.21 -0.77 9.82 -0.06 0.13 -0.02 13615
-0.02 0.34 0.31 -0.69 9.79 -0.06 0.13 -0.02 13622
-0.02 0.36 0.43 -0.75 9.72 -0.07 0.14 -0.02 13629
-0.03 0.38 0.48 -0.86 9.81 -0.07 0.12 -0.03 13636
-0.03 0.39 0.51 -0.81 9.53 -0.06 0.10 -0.02 13643
-0.03 0.40 0.50 -0.77 9.82 -0.06 0.09 -0.02 13650
-0.04 0.47 0.45 -0.80 9.78 -0.07 0.08 -0.03 13658
-0.02 0.46 0.45 -0.78 9.80 -0.06 0.08 -0.04 13665
-0.03 0.49 0.47 -0.71 9.81 -0.06 0.08 -0.04 13672
-0.03 0.52 0.48 -0.75 9.89 -0.06 0.07 -0.04 13679
-0.04 0.51 0.44 -0.69 9.91 -0.05 0.06 -0.04 13686
-0.05 0.54 0.49 -0.73 9.83 -0.04 0.06 -0.04 13693
-0.05 0.57 0.44 -0.72 9.22 -0.04 0.07 -0.05 13701
-0.04 0.67 0.48 -0.72 9.82 -0.03 0.06 -0.05 13708
-0.04 0.69 0.45 -0.67 9.89 -0.03 0.06 -0.05 13715
-0.04 0.67 0.49 -0.71 9.81 -0.02 0.04 -0.05 13722
-0.04 0.67 0.49 -0.69 9.81 -0.02 0.02 -0.06 13729
-0.04 0.68 0.48 -0.68 9.82 -0.02 0.01 -0.06 13736
-0.02 0.66 0.46 -0.74 9.84 -0.01 -0.00 -0.06 13744
-0.01 0.77 0.46 -0.68 9.82 -0.01 -0.00 -0.06 13751
-0.02 0.75 0.45 -0.67 9.81 -0.01 -0.01 -0.06 13758
-0.02 0.76 0.45 -0.65 9.79 -0.01 -0.01 -0.06 13765
-0.02 0.73 0.44 -0.68 9.82 -0.01 -0.02 -0.06 13772
-0.05 0.74 0.46 -0.72 9.81 -0.01 -0.03 -0.06 13779
-0.03 0.76 0.40 -0.73 9.82 -0.01 -0.04 -0.06 13787
-0.02 0.75 0.42 -0.72 9.81 -0.01 -0.03 -0.07 13794
-0.01 0.70 0.43 -0.75 9.79 -0.01 -0.04 -0.07 13801
-0.00 0.70 0.41 -0.69 9.82 -0.01 -0.04 -0.07 13808
-0.03 0.71 0.41 -0.72 9.81 -0.01 -0.04 -0.07 13815
-0.04 0.70 0.39 -0.73 9.79 -0.00 -0.04 -0.08 13822
-0.03 0.71 0.36 -0.71 9.21 -0.01 -0.04 -0.07 13830
-0.02 0.71 0.40 -0.70 9.75 0.00 -0.04 -0.08 13837
-0.02 0.69 0.40 -0.73 9.80 -0.00 -0.03 -0.08 13844
-0.01 0.67 0.38 -0.67 9.82 0.00 -0.03 -0.08 13851
-0.03 0.67 0.33 -0.70 9.82 0.00 -0.03 -0.08 13858
-0.03 0.68 0.37 -0.74 9.84 0.00 -0.02 -0.08 13865
-0.01 0.69 0.35 -0.73 9.83 0.00 -0.01 -0.08 13873
0.02 0.69 0.37 -0.74 9.84 0.00 -0.00 -0.08 13880
0.00 0.69 0.38 -0.72 9.86 -0.00 -0.00 -0.07 13887
0.00 0.68 0.34 -0.72 9.80 -0.00 0.01 -0.07 13894
-0.02 0.66 0.34 -0.73 9.81 -0.00 0.01 -0.07 13901
-0.00 0.66 0.32 -0.73 9.81 -0.00 0.01 -0.08 13908
0.01 0.66 0.34 -0.74 9.85 -0.00 0.01 -0.07 13916
0.01 0.64 0.36 -0.73 9.82 -0.01 0.01 -0.07 13923
0.01 0.63 0.34 -0.72 9.82 -0.00 0.02 -0.07 13930
0.02 0.61 0.30 -0.71 9.81 -0.01 0.02 -0.08 13937
0.01 0.61 0.31 -0.74 9.75 -0.00 0.02 -0.07 13944
0.02 0.61 0.37 -0.73 9.79 0.00 0.02 -0.08 13952
0.04 0.58 0.35 -0.76 9.79 -0.00 0.02 -0.08 13959
0.04 0.56 0.35 -0.72 9.81 -0.00 0.03 -0.07 13966
0.04 0.54 0.31 -0.74 9.82 0.00 0.02 -0.08 13973
0.04 0.53 0.33 -0.74 9.81 0.00 0.03 -0.07 13980
0.03 0.54 0.33 -0.74 9.82 0.00 0.03 -0.08 13987
0.03 0.54 0.34 -0.74 9.82 0.00 0.03 -0.08 13995
0.04 0.54 0.35 -0.72 9.82 0.01 0.03 -0.07 14002
0.03 0.53 0.32 -0.72 9.81 0.00 0.03 -0.08 14009
0.03 0.55 0.30 -0.71 9.83 0.00 0.03 -0.08 14016
0.03 0.54 0.31 -0.74 9.83 0.00 0.04 -0.08 14023
0.03 0.53 0.32 -0.74 9.78 0.00 0.04 -0.08 14030
0.05 0.53 0.33 -0.75 9.76 0.00 0.04 -0.07 14038
0.07 0.53 0.31 -0.77 9.84 0.00 0.04 -0.08 14045
0.07 0.50 0.32 -0.72 9.82 0.00 0.05 -0.08 14052
0.07 0.49 0.33 -0.74 9.80 0.00 0.05 -0.07 14059
0.07 0.50 0.37 -0.74 9.81 0.00 0.05 -0.07 14066
0.08 0.49 0.31 -0.73 9.81 0.00 0.05 -0.08 14073
0.08 0.51 0.31 -0.73 9.84 0.01 0.05 -0.08 14081
0.09 0.49 0.33 -0.78 9.22 0.01 0.05 -0.07 14088
0.08 0.46 0.32 -0.74 9.80 0.00 0.06 -0.07 14095
0.08 0.42 0.34 -0.74 9.76 0.01 0.06 -0.08 14102
0.06 0.44 0.32 -0.75 9.83 0.01 0.06 -0.08 14109
0.08 0.45 0.38 -0.75 9.80 0.01 0.06 -0.08 14116
0.08 0.42 0.36 -0.75 9.81 0.01 0.06 -0.08 14124
0.08 0.42 0.31 -0.77 9.80 0.01 0.06 -0.08 14131
0.08 0.43 0.35 -0.75 9.83 0.01 0.06 -0.08 14138
0.09 0.36 0.38 -0.76 9.79 0.01 0.06 -0.08 14145
0.09 0.34 0.41 -0.78 9.86 0.01 0.05 -0.08 14152
0.10 0.31 0.35 -0.76 9.82 0.01 0.06 -0.08 14159
0.12 0.31 0.39 -0.78 9.79 0.01 0.05 -0.08 14167
0.13 0.30 0.36 -0.78 9.82 0.01 0.05 -0.08 14174
0.12 0.29 0.37 -0.78 9.80 0.01 0.05 -0.08 14181
0.13 0.29 0.36 -0.74 9.81 0.01 0.05 -0.08 14188
0.13 0.25 0.33 -0.78 9.81 0.02 0.05 -0.08 14195
0.15 0.26 0.34 -0.81 9.82 0.02 0.05 -0.08 14202
0.18 0.22 0.32 -0.79 9.80 0.01 0.05 -0.08 14210
0.17 0.21 0.35 -0.80 9.21 0.01 0.06 -0.08 14217
0.17 0.19 0.36 -0.75 9.81 0.02 0.05 -0.07 14224
0.17 0.17 0.33 -0.78 9.83 0.02 0.05 -0.08 14231
0.19 0.18 0.36 -0.79 9.80 0.01 0.05 -0.08 14238
0.21 0.16 0.37 -0.80 9.83 0.01 0.05 -0.08 14245
0.23 0.17 0.39 -0.76 9.82 0.02 0.05 -0.08 14253
0.20 0.18 0.37 -0.83 9.81 0.01 0.05 -0.08 14260
0.21 0.13 0.40 -0.83 9.76 0.01 0.05 -0.08 14267
0.22 0.10 0.36 -0.82 9.79 0.02 0.05 -0.08 14274
0.24 0.10 0.37 -0.83 9.83 0.01 0.05 -0.08 14281
0.24 0.09 0.37 -0.78 9.78 0.01 0.04 -0.09 14288
0.26 0.08 0.37 -0.80 9.81 0.01 0.04 -0.08 14296
0.28 0.07 0.35 -0.82 9.81 0.01 0.05 -0.08 14303
0.30 0.04 0.38 -0.83 9.20 0.01 0.05 -0.08 14310
0.28 0.07 0.40 -0.81 9.80 0.01 0.05 -0.08 14317
0.30 0.05 0.38 -0.82 9.81 0.01 0.05 -0.08 14324
0.31 0.03 0.36 -0.80 9.81 0.01 0.05 -0.08 14331
0.30 0.01 0.34 -0.84 9.82 0.01 0.05 -0.08 14339
0.30 0.02 0.36 -0.82 9.82 0.01 0.05 -0.08 14346
0.31 0.01 0.38 -0.80 9.81 0.01 0.05 -0.07 14353
0.32 0.02 0.35 -0.82 9.83 0.02 0.05 -0.07 14360
0.33 0.02 0.36 -0.80 9.81 0.01 0.05 -0.08 14367
0.35 0.01 0.37 -0.82 9.83 0.02 0.05 -0.08 14374
0.38 0.01 0.37 -0.86 9.82 0.02 0.05 -0.08 14382
0.43 -0.02 0.33 -0.88 9.82 0.03 0.05 -0.07 14389
0.47 -0.03 0.34 -0.80 9.82 0.03 0.05 -0.07 14396
0.48 -0.01 0.42 -0.81 9.84 0.04 0.05 -0.08 14403
0.48 -0.01 0.37 -0.86 9.84 0.05 0.06 -0.07 14410
0.47 -0.02 0.34 -0.83 9.84 0.05 0.06 -0.07 14417
0.46 -0.03 0.41 -0.87 9.82 0.06 0.06 -0.07 14425
0.47 -0.03 0.38 -0.86 9.83 0.06 0.06 -0.08 14432
0.48 -0.03 0.39 -0.86 9.81 0.07 0.06 -0.07 14439
0.51 -0.03 0.36 -0.88 9.81 0.07 0.06 -0.07 14446
0.52 -0.01 0.38 -0.81 9.83 0.08 0.07 -0.07 14453
0.54 -0.02 0.34 -0.94 9.83 0.08 0.07 -0.07 14460
0.55 -0.03 0.41 -0.92 9.81 0.09 0.08 -0.07 14468
0.56 -0.03 0.35 -0.92 9.85 0.10 0.08 -0.07 14475
0.59 -0.02 0.41 -0.93 9.82 0.12 0.08 -0.07 14482
0.63 -0.03 0.41 -0.91 9.83 0.13 0.08 -0.06 14489
0.67 -0.02 0.39 -0.95 9.82 0.14 0.09 -0.07 14496
0.70 -0.03 0.42 -0.93 9.81 0.16 0.09 -0.08 14503
0.70 -0.03 0.43 -0.98 9.82 0.17 0.09 -0.07 14511
0.71 -0.03 0.35 -0.96 9.83 0.20 0.09 -0.07 14518
0.72 -0.03 0.45 -0.95 9.82 0.21 0.10 -0.08 14525
0.73 -0.03 0.43 -0.99 9.83 0.23 0.10 -0.08 14532
0.75 -0.03 0.44 -1.02 9.86 0.26 0.10 -0.08 14539
0.75 -0.04 0.40 -1.05 9.89 0.28 0.10 -0.08 14546
0.76 -0.04 0.45 -1.07 9.96 0.30 0.10 -0.08 14554
0.76 -0.04 0.46 -1.15 9.97 0.32 0.10 -0.08 14561
0.78 -0.03 0.46 -1.14 10.03 0.35 0.09 -0.08 14568
0.80 -0.03 0.43 -1.17 9.85 0.38 0.08 -0.08 14575
0.84 -0.04 0.40 -1.20 10.05 0.41 0.08 -0.08 14582
0.85 -0.04 0.48 -1.27 10.07 0.43 0.07 -0.07 14589
0.84 -0.04 0.42 -1.27 10.01 0.45 0.06 -0.07 14597
0.84 -0.04 0.53 -1.26 9.95 0.47 0.07 -0.08 14604
0.85 -0.03 0.48 -1.40 9.97 0.48 0.06 -0.08 14611
0.86 -0.02 0.49 -1.36 9.92 0.48 0.08 -0.09 14618
0.89 -0.04 0.41 -1.44 9.96 0.48 0.08 -0.09 14625
0.91 -0.03 0.44 -1.43 10.03 0.50 0.08 -0.08 14632
0.92 -0.03 0.53 -1.54 9.93 0.50 0.08 -0.08 14640
0.92 -0.03 0.44 -1.58 10.04 0.52 0.07 -0.09 14647
0.91 -0.04 0.55 -1.56 9.88 0.53 0.07 -0.09 14654
0.92 -0.02 0.60 -1.66 9.88 0.54 0.06 -0.10 14661
0.94 -0.04 0.60 -1.69 9.82 0.55 0.06 -0.10 14668
0.94 -0.04 0.52 -1.74 9.96 0.57 0.06 -0.11 14675
0.97 -0.04 0.56 -1.74 9.94 0.58 0.05 -0.11 14683
0.97 -0.03 0.54 -1.82 9.89 0.60 0.04 -0.13 14690
0.97 -0.03 0.54 -1.92 10.03 0.62 0.04 -0.13 14698
0.96 -0.03 0.53 -1.90 10.00 0.64 0.03 -0.13 14704
0.96 -0.03 0.46 -1.99 10.05 0.66 0.02 -0.14 14711
0.95 -0.04 0.52 -2.05 9.99 0.68 0.01 -0.15 14718
0.94 -0.05 0.46 -2.05 10.07 0.70 -0.01 -0.15 14726
0.92 -0.04 0.45 -2.10 9.93 0.72 -0.01 -0.14 14733
0.91 -0.03 0.40 -2.19 9.97 0.75 -0.02 -0.14 14740
0.91 -0.03 0.40 -2.19 10.32 0.77 -0.03 -0.14 14748
0.89 -0.04 0.41 -2.38 10.08 0.80 -0.04 -0.13 14754
0.86 -0.04 0.37 -2.36 10.08 0.83 -0.05 -0.12 14763
0.81 -0.05 0.34 -2.45 10.27 0.86 -0.05 -0.11 14770
0.74 -0.03 0.48 -2.37 10.15 0.90 -0.08 -0.11 14777
0.70 -0.03 0.46 -2.64 10.68 0.95 -0.12 -0.11 14784
0.64 -0.02 0.71 -2.84 10.97 1.06 -0.11 -0.12 14791
0.54 -0.02 0.71 -2.78 10.60 1.19 -0.15 -0.14 14798
0.48 -0.02 0.53 -2.88 10.21 1.25 -0.17 -0.16 14806
0.43 -0.02 0.36 -2.95 10.41 1.33 -0.19 -0.17 14813
0.38 -0.02 0.36 -3.09 10.45 1.42 -0.18 -0.17 14820
0.35 -0.01 0.38 -3.06 10.01 1.51 -0.17 -0.17 14827
0.32 -0.02 0.45 -3.52 10.39 1.60 -0.17 -0.17 14834
0.24 -0.02 0.39 -3.51 10.39 1.66 -0.20 -0.18 14841
0.19 -0.02 0.32 -3.47 10.43 1.77 -0.15 -0.19 14848
0.20 -0.02 0.48 -3.25 8.84 1.85 -0.19 -0.19 14855
0.14 -0.01 0.51 -3.95 9.98 1.93 -0.15 -0.20 14862
0.15 -0.00 0.48 -4.17 10.25 2.01 -0.12 -0.21 14870
0.14 -0.01 0.50 -4.31 10.67 2.08 -0.13 -0.22 14876
0.13 -0.01 0.55 -4.56 11.02 2.15 -0.11 -0.24 14883
0.08 -0.01 0.44 -4.97 11.49 2.22 -0.07 -0.25 14891
0.08 -0.01 0.75 -5.18 11.22 2.31 -0.02 -0.25 14898
0.08 -0.01 0.81 -5.46 11.44 2.37 0.05 -0.27 14905
0.08 -0.01 1.04 -5.72 11.43 2.38 0.13 -0.28 14912
0.10 -0.01 1.08 -6.03 11.59 2.35 0.24 -0.28 14919
0.07 -0.01 1.03 -6.27 11.47 2.32 0.35 -0.29 14926
0.07 -0.01 0.91 -6.03 10.97 2.27 0.43 -0.33 14934
0.03 -0.00 0.73 -5.99 10.78 2.20 0.47 -0.31 14941
0.03 -0.00 0.55 -5.91 10.80 2.15 0.48 -0.33 14948
0.04 -0.00 0.56 -5.94 10.50 2.10 0.43 -0.35 14955
0.04 -0.00 0.50 -5.69 10.08 2.06 0.39 -0.38 14962
0.01 -0.00 0.52 -5.81 9.65 2.00 0.34 -0.41 14969
0.04 -0.00 0.54 -5.78 9.43 1.94 0.30 -0.44 14977
0.03 -0.00 0.61 -5.82 9.32 1.91 0.30 -0.45 14984
0.05 -0.01 0.61 -5.81 8.98 1.89 0.30 -0.47 14991
0.05 -0.00 0.40 -5.50 8.40 1.87 0.30 -0.48 14998
0.04 -0.00 0.16 -5.34 7.64 1.87 0.30 -0.49 15005
0.01 -0.00 -0.13 -5.22 7.04 1.87 0.27 -0.49 15012
0.00 0.00 -0.37 -4.73 6.04 1.86 0.23 -0.49 15020
0.00 0.00 -0.55 -4.95 5.06 1.82 0.14 -0.48 15027
0.02 0.00 -0.54 -5.06 4.66 1.79 0.01 -0.47 15034
0.03 -0.00 -0.69 -5.42 4.68 1.75 -0.12 -0.47 15041
0.02 -0.00 -0.91 -5.70 5.10 1.72 -0.29 -0.45 15048
0.02 -0.00 -0.95 -6.10 5.58 1.68 -0.45 -0.43 15055
0.02 -0.00 -0.92 -6.28 6.20 1.62 -0.57 -0.41 15063
0.02 -0.00 -0.66 -6.50 6.56 1.53 -0.69 -0.37 15070
0.00 0.00 -0.06 -6.03 7.01 1.39 -0.73 -0.34 15077
0.00 0.00 0.62 -5.89 6.48 1.17 -0.73 -0.33 15084
0.00 0.00 1.38 -4.91 5.83 0.95 -0.66 -0.32 15091
0.00 0.00 1.67 -3.71 4.89 0.70 -0.54 -0.33 15098
0.00 0.00 1.18 -4.74 4.97 0.51 -0.36 -0.33 15106
0.00 0.00 0.94 -2.08 4.49 0.44 -0.18 -0.36 15113
0.00 -0.00 1.59 4.97 5.20 0.33 -0.09 -0.40 15120
0.01 -0.00 1.26 1.48 6.54 -0.13 0.02 -0.45 15127
0.00 -0.00 0.46 -1.69 8.39 -0.61 0.02 -0.46 15134
0.00 0.00 0.28 -2.41 8.64 -0.93 0.05 -0.46 15141
0.00 0.00 0.23 -2.67 7.88 -1.01 0.08 -0.45 15149
0.00 0.00 0.04 -2.39 7.02 -1.02 0.05 -0.45 15156
0.00 0.00 -0.01 -1.92 5.97 -0.98 -0.01 -0.45 15163
0.00 0.00 -0.01 -1.88 5.23 -0.92 -0.07 -0.44 15170
0.00 0.00 0.02 -2.13 5.26 -0.88 -0.17 -0.41 15177
0.00 0.00 0.10 -2.32 5.86 -0.85 -0.25 -0.38 15184
0.00 0.00 0.32 -2.54 6.39 -0.82 -0.28 -0.35 15192
0.00 0.00 0.44 -2.81 6.72 -0.80 -0.30 -0.31 15199
0.00 0.00 0.49 -2.88 6.89 -0.79 -0.30 -0.27 15206
0.00 0.00 0.42 -2.97 7.02 -0.79 -0.32 -0.23 15213
0.00 0.00 0.10 -4.61 7.38 -0.81 -0.32 -0.18 15220
0.00 0.00 -3.79 -32.81 4.66 -0.57 -0.35 -0.25 15227
0.00 0.00 -11.87 -78.47 1.23 0.35 -0.67 -0.55 15235
0.00 0.00 -0.69 -2.55 11.43 2.38 -1.73 -0.61 15242
0.01 0.00 1.95 -3.89 -38.63 2.81 -1.77 -0.98 15250
0.02 0.00 -2.24 -19.17 3.84 2.55 -1.06 -0.58 15257
0.02 -0.00 3.42 -10.62 16.07 1.98 0.38 -0.47 15263
0.00 0.00 3.63 -8.62 15.24 0.97 0.86 -0.61 15270
-0.00 0.00 -1.56 -7.71 10.46 0.18 1.01 -0.71 15278
-0.00 0.01 -2.69 -3.91 5.04 -0.17 1.00 -0.66 15285
0.00 0.00 -0.32 6.35 -1.03 -0.05 0.96 -0.59 15292
0.00 0.00 -0.57 -2.27 8.01 -0.56 0.91 -0.48 15299
0.00 0.00 -1.89 -3.79 9.81 -1.18 0.74 -0.36 15306
0.00 0.00 -1.51 -3.96 9.97 -1.17 0.67 -0.23 15313
0.00 0.00 -2.02 -4.38 9.23 -0.95 0.59 -0.11 15321
-0.00 0.00 -1.99 -3.60 7.35 -0.79 0.48 0.00 15328
0.00 -0.00 -1.37 -1.25 5.31 -0.69 0.20 0.07 15335
0.00 0.00 -1.38 -0.29 4.71 -0.65 -0.10 0.08 15342
0.00 0.00 -1.13 -0.33 5.31 -0.67 -0.28 0.07 15349
0.00 0.00 -0.67 -0.72 6.71 -0.67 -0.30 0.06 15356
0.00 0.00 -0.27 -0.92 7.35 -0.67 -0.22 0.03 15364
0.00 0.00 -0.11 -0.80 7.57 -0.68 -0.09 -0.04 15371
0.00 0.00 -0.17 -0.59 7.57 -0.76 0.05 -0.12 15378
0.00 0.00 -0.18 -0.20 8.07 -0.92 0.15 -0.23 15385
0.00 0.00 -0.09 0.03 9.02 -1.10 0.25 -0.32 15392
0.00 0.00 0.05 0.20 9.58 -1.38 0.40 -0.42 15399
0.00 0.00 0.20 0.34 9.81 -1.64 0.54 -0.49 15407
0.01 -0.00 0.13 0.44 9.54 -1.94 0.59 -0.54 15414
0.00 -0.00 0.01 0.29 9.13 -2.18 0.58 -0.56 15421
0.00 -0.00 0.01 -0.34 8.76 -2.30 0.55 -0.56 15428
0.00 0.00 0.05 -1.04 8.58 -2.36 0.51 -0.52 15435
0.00 0.00 0.06 -1.79 8.48 -2.34 0.47 -0.46 15442
0.00 0.00 0.09 -2.30 8.63 -2.26 0.44 -0.40 15450
0.01 -0.00 0.21 -2.43 8.90 -2.16 0.40 -0.33 15457
0.00 0.00 0.49 -2.34 9.18 -2.09 0.39 -0.26 15464
0.00 0.00 0.34 -2.47 7.60 -2.07 0.41 -0.21 15471
0.00 0.00 1.14 -1.66 9.85 -2.08 0.52 -0.15 15478
0.00 0.00 1.24 -1.45 10.31 -2.15 0.62 -0.10 15485
0.00 0.00 0.90 -1.46 10.55 -2.25 0.74 -0.04 15493
0.01 -0.00 0.83 -1.67 10.99 -2.33 0.84 0.03 15500
0.00 0.00 0.67 -1.88 11.08 -2.42 0.91 0.11 15507
0.00 0.00 0.45 -2.31 11.06 -2.46 0.96 0.20 15514
0.00 0.00 0.25 -2.65 11.07 -2.47 0.96 0.27 15521
0.00 0.00 0.11 -2.94 11.04 -2.45 0.94 0.37 15528
-0.00 0.00 0.06 -3.22 11.03 -2.42 0.91 0.44 15536
0.00 -0.00 0.06 -3.47 11.01 -2.36 0.87 0.49 15543
0.00 0.00 0.17 -3.40 10.95 -2.29 0.83 0.52 15550
0.00 -0.00 0.23 -3.31 10.88 -2.22 0.81 0.54 15557
0.00 0.00 0.35 -3.32 10.81 -2.14 0.83 0.55 15564
0.00 0.00 0.26 -3.33 10.92 -2.07 0.84 0.53 15571
0.00 0.00 0.01 -3.27 11.21 -1.99 0.85 0.51 15579
0.01 -0.00 0.02 -2.96 11.71 -1.93 0.88 0.51 15586
0.01 -0.00 -0.56 -2.75 12.39 -1.90 0.90 0.50 15593
0.01 -0.00 -0.01 -2.71 13.16 -1.93 0.89 0.49 15600
0.00 0.00 -0.10 -2.65 13.52 -2.03 0.87 0.47 15607
0.00 -0.00 -0.24 -2.63 13.48 -2.10 0.84 0.47 15614
0.01 -0.00 -0.18 -2.94 13.01 -2.20 0.80 0.46 15622
0.01 -0.00 -0.11 -3.39 12.53 -2.24 0.74 0.43 15629
0.00 -0.00 -0.00 -3.82 12.05 -2.23 0.70 0.41 15636
0.00 0.00 0.12 -4.20 11.67 -2.18 0.66 0.37 15643
0.00 -0.00 0.17 -4.46 11.55 -2.08 0.64 0.34 15650
0.00 -0.00 0.21 -4.77 11.52 -1.94 0.62 0.31 15657
0.01 -0.00 0.17 -4.89 11.43 -1.82 0.59 0.29 15665
0.01 -0.00 0.00 -4.82 11.24 -1.68 0.55 0.29 15672
0.00 0.00 -0.10 -4.91 11.01 -1.52 0.46 0.30 15679
0.00 0.00 -0.34 -5.11 11.02 -1.37 0.35 0.33 15686
0.00 -0.00 -0.42 -5.21 11.14 -1.19 0.19 0.35 15693
0.01 -0.00 -0.32 -5.30 11.31 -1.04 0.04 0.38 15700
0.01 -0.00 -0.04 -5.40 11.61 -0.92 -0.05 0.40 15708
0.00 -0.00 -2.22 -14.31 17.38 -0.68 -0.51 0.34 15716
0.00 0.00 -1.58 -4.55 10.57 -0.33 -0.86 0.22 15722
0.00 0.00 0.80 -6.03 9.66 -0.40 -0.41 0.30 15729
0.00 0.00 -0.13 -12.06 12.51 -0.29 -0.33 0.37 15736
0.00 0.00 1.33 -9.78 4.86 -0.30 0.02 0.43 15744
0.02 -0.00 -0.63 -9.13 13.25 -0.12 -0.01 0.41 15751
0.01 -0.00 -2.70 -10.50 9.16 -0.18 -0.07 0.39 15758
0.00 0.00 -2.69 -12.64 7.10 0.05 -0.03 0.42 15765
0.00 0.00 -1.43 -13.19 7.06 0.07 -0.04 0.48 15772
0.00 -0.00 -0.51 -16.22 10.04 0.22 -0.04 0.48 15779
0.01 0.02 -1.64 -12.60 4.91 0.36 -0.18 0.45 15787
0.01 0.02 -0.13 -14.40 4.89 0.63 -0.15 0.43 15794
0.01 0.03 -3.30 -16.07 7.43 0.88 -0.34 0.34 15801
0.01 0.01 -5.03 -21.69 5.70 1.14 -0.73 0.26 15808
-0.00 0.02 -9.79 -23.92 20.09 0.93 -1.64 0.05 15815
0.00 0.02 0.25 0.74 13.85 0.02 -0.33 -0.03 15822
0.01 0.05 -0.06 -2.71 8.69 -0.24 0.12 -0.01 15830
0.03 0.05 -0.05 -1.22 10.02 -0.30 0.06 -0.01 15837
0.02 0.07 0.21 -0.76 9.95 -0.25 0.06 -0.02 15844
-0.01 0.10 0.76 -0.23 9.95 -0.16 0.02 -0.03 15851
0.00 0.11 0.49 -0.26 10.11 -0.13 0.01 -0.04 15858
-0.02 0.15 0.24 -0.78 9.87 -0.07 0.02 -0.06 15865
0.01 0.21 0.07 -0.94 9.90 -0.07 0.01 -0.07 15873
0.00 0.15 -0.01 -0.90 9.87 -0.05 0.03 -0.06 15880
0.02 0.18 0.05 -0.89 9.83 -0.05 0.05 -0.06 15887
-0.01 0.17 0.12 -0.91 9.83 -0.05 0.07 -0.05 15894
-0.01 0.24 0.15 -0.88 9.93 -0.04 0.07 -0.05 15901
-0.00 0.24 0.23 -0.92 9.82 -0.04 0.07 -0.05 15908
0.02 0.26 0.25 -0.93 9.81 -0.04 0.06 -0.05 15916
0.01 0.22 0.23 -0.88 9.75 -0.04 0.05 -0.05 15923
0.01 0.22 0.20 -0.86 9.81 -0.03 0.05 -0.05 15930
0.00 0.22 0.14 -0.86 9.77 -0.04 0.05 -0.05 15937
0.00 0.26 0.17 -0.86 9.79 -0.04 0.05 -0.05 15944
0.00 0.30 0.16 -0.87 9.83 -0.04 0.06 -0.05 15951
0.01 0.30 0.18 -0.87 9.84 -0.04 0.05 -0.05 15959
0.00 0.27 0.23 -0.85 9.81 -0.04 0.06 -0.05 15966
-0.00 0.30 0.23 -0.83 9.83 -0.04 0.06 -0.05 15973
-0.00 0.34 0.21 -0.81 9.84 -0.04 0.06 -0.05 15980
-0.00 0.36 0.21 -0.85 9.81 -0.03 0.05 -0.06 15987
-0.01 0.42 0.25 -0.83 9.83 -0.03 0.05 -0.06 15994
-0.00 0.39 0.22 -0.85 9.82 -0.03 0.05 -0.06 16002
-0.01 0.42 0.17 -0.80 9.85 -0.03 0.05 -0.06 16009
-0.01 0.40 0.23 -0.83 9.85 -0.03 0.05 -0.06 16016
-0.02 0.44 0.23 -0.86 9.78 -0.03 0.05 -0.06 16023
-0.02 0.47 0.21 -0.83 9.81 -0.03 0.04 -0.06 16030
-0.01 0.42 0.15 -0.81 9.82 -0.03 0.04 -0.06 16037
-0.01 0.44 0.19 -0.82 9.84 -0.03 0.04 -0.06 16045
-0.01 0.45 0.22 -0.80 9.82 -0.03 0.04 -0.06 16052
-0.02 0.48 0.22 -0.85 9.83 -0.02 0.04 -0.06 16059
-0.03 0.48 0.24 -0.80 9.82 -0.02 0.04 -0.06 16066
-0.02 0.52 0.23 -0.81 9.80 -0.02 0.04 -0.06 16073
-0.01 0.53 0.20 -0.80 9.80 -0.02 0.04 -0.06 16080
-0.00 0.53 0.17 -0.80 9.80 -0.02 0.03 -0.07 16088
-0.02 0.54 0.25 -0.83 9.81 -0.02 0.03 -0.07 16095
-0.02 0.53 0.24 -0.82 9.83 -0.01 0.03 -0.06 16102
-0.02 0.50 0.23 -0.81 9.83 -0.02 0.03 -0.07 16109
-0.02 0.52 0.22 -0.81 9.81 -0.02 0.02 -0.07 16116
0.00 0.53 0.21 -0.81 9.82 -0.01 0.02 -0.07 16123
-0.01 0.51 0.21 -0.81 9.83 -0.02 0.02 -0.07 16131
-0.01 0.51 0.21 -0.81 9.81 -0.01 0.02 -0.07 16138
-0.01 0.51 0.18 -0.80 9.83 -0.01 0.02 -0.07 16145
-0.00 0.52 0.18 -0.81 9.80 -0.01 0.02 -0.07 16152
-0.00 0.53 0.17 -0.82 9.82 -0.01 0.02 -0.07 16159
0.00 0.52 0.22 -0.80 9.69 -0.01 0.02 -0.07 16166
-0.01 0.50 0.19 -0.81 9.80 -0.01 0.03 -0.07 16174
-0.00 0.49 0.18 -0.81 9.82 -0.01 0.03 -0.07 16181
-0.02 0.49 0.17 -0.82 9.85 -0.01 0.03 -0.07 16188
-0.00 0.48 0.19 -0.83 9.81 -0.01 0.03 -0.07 16195
-0.00 0.48 0.19 -0.82 9.78 -0.01 0.03 -0.07 16202
0.00 0.48 0.16 -0.79 9.81 -0.01 0.03 -0.07 16209
0.00 0.50 0.17 -0.81 9.81 -0.01 0.03 -0.07 16217
0.00 0.49 0.20 -0.81 9.81 -0.00 0.03 -0.07 16224
-0.01 0.49 0.23 -0.77 9.80 -0.01 0.03 -0.07 16231
0.00 0.48 0.20 -0.79 9.81 -0.00 0.03 -0.07 16238
0.01 0.49 0.17 -0.79 9.83 -0.00 0.03 -0.07 16245
0.02 0.50 0.15 -0.79 9.83 -0.01 0.03 -0.07 16252
0.01 0.50 0.18 -0.82 9.81 -0.00 0.03 -0.06 16260
0.01 0.49 0.18 -0.82 9.81 -0.00 0.03 -0.06 16267
0.01 0.49 0.18 -0.80 9.81 -0.00 0.03 -0.07 16274
0.02 0.49 0.19 -0.81 9.81 -0.00 0.03 -0.07 16281
0.03 0.49 0.16 -0.82 9.80 -0.01 0.03 -0.07 16288
0.03 0.49 0.17 -0.83 9.79 -0.01 0.03 -0.07 16295
0.03 0.49 0.17 -0.83 9.82 -0.00 0.03 -0.07 16303
0.03 0.47 0.15 -0.81 9.81 -0.01 0.03 -0.07 16310
0.04 0.48 0.17 -0.81 9.80 -0.01 0.04 -0.07 16317
0.05 0.48 0.15 -0.81 9.81 -0.00 0.03 -0.07 16324
0.06 0.48 0.17 -0.83 9.81 -0.01 0.07 -0.07 16331
0.04 0.47 0.15 -0.79 9.81 -0.01 0.03 -0.08 16338
0.05 0.47 0.19 -0.78 9.79 -0.00 0.03 -0.08 16346
0.04 0.47 0.17 -0.79 9.82 -0.00 0.03 -0.07 16353
0.04 0.47 0.18 -0.79 9.81 0.00 0.03 -0.07 16360
0.04 0.47 0.17 -0.80 9.79 0.00 0.03 -0.07 16367
0.07 0.46 0.17 -0.82 9.82 0.00 0.04 -0.07 16374
0.08 0.45 0.17 -0.80 9.79 0.00 0.03 -0.07 16381
0.08 0.45 0.15 -0.84 9.82 -0.00 0.03 -0.07 16389
0.07 0.45 0.16 -0.84 9.81 0.00 0.03 -0.07 16396
0.08 0.44 0.16 -0.82 9.80 -0.00 0.04 -0.07 16403
0.09 0.45 0.16 -0.82 9.77 -0.00 0.04 -0.07 16410
0.09 0.44 0.16 -0.81 9.81 -0.00 0.04 -0.07 16417
0.09 0.43 0.16 -0.82 9.80 -0.00 0.07 -0.07 16424
0.08 0.41 0.15 -0.80 9.81 -0.00 0.04 -0.07 16432
0.07 0.40 0.13 -0.79 9.81 -0.00 0.04 -0.07 16439
0.08 0.41 0.16 -0.83 9.81 -0.00 0.04 -0.10 16446
0.09 0.42 0.17 -0.82 9.81 -0.00 0.04 -0.07 16453
0.09 0.41 0.12 -0.83 9.83 -0.00 0.04 -0.07 16460
0.10 0.39 0.17 -0.82 9.81 -0.00 0.04 -0.07 16467
0.11 0.37 0.15 -0.84 9.79 -0.00 0.04 -0.07 16475
0.09 0.37 0.15 -0.80 9.85 -0.00 0.04 -0.07 16482
0.10 0.38 0.15 -0.84 9.81 -0.00 0.04 -0.07 16489
0.12 0.38 0.15 -0.80 9.89 -0.00 0.04 -0.07 16496
0.12 0.36 0.14 -0.81 9.78 -0.00 0.04 -0.07 16503
0.13 0.34 0.16 -0.84 9.84 -0.00 0.04 -0.07 16510
0.12 0.33 0.17 -0.82 9.80 -0.00 0.04 -0.07 16518
0.12 0.33 0.12 -0.83 9.81 -0.00 0.05 -0.07 16525
0.13 0.32 0.17 -0.83 9.83 -0.00 0.04 -0.07 16532
0.15 0.31 0.17 -0.82 9.82 -0.00 0.04 -0.03 16539
0.14 0.31 0.12 -0.82 9.81 -0.00 0.04 -0.07 16546
0.14 0.32 0.14 -0.83 9.81 -0.00 0.04 -0.07 16553
0.14 0.32 0.16 -0.83 9.21 -0.01 0.04 -0.07 16561
0.13 0.33 0.16 -0.81 9.84 -0.01 0.04 -0.07 16568
0.13 0.33 0.12 -0.81 9.80 -0.01 0.04 -0.07 16575
0.14 0.31 0.15 -0.80 9.80 -0.01 0.04 -0.07 16582
0.14 0.31 0.16 -0.82 9.81 -0.00 0.04 -0.07 16589
0.14 0.30 0.13 -0.84 9.81 -0.00 0.04 -0.08 16596
0.14 0.31 0.15 -0.81 9.81 -0.00 0.04 -0.07 16604
0.15 0.31 0.17 -0.83 9.78 -0.00 0.04 -0.07 16611
0.15 0.31 0.13 -0.82 9.81 -0.00 0.04 -0.07 16618
0.16 0.31 0.18 -0.83 9.81 -0.00 0.04 -0.08 16625
0.16 0.30 0.18 -0.81 9.77 -0.00 0.04 -0.07 16632
0.16 0.31 0.15 -0.83 9.80 -0.01 0.04 -0.07 16640
0.16 0.32 0.14 -0.84 9.80 -0.01 0.04 -0.07 16647
0.17 0.32 0.14 -0.81 9.82 -0.00 0.04 -0.07 16654
0.18 0.32 0.18 -0.81 9.82 -0.00 0.04 -0.07 16661
0.18 0.31 0.15 -0.81 9.82 -0.00 0.04 -0.07 16668
0.18 0.30 0.17 -0.82 9.83 -0.00 0.04 -0.07 16675
0.19 0.30 0.14 -0.80 9.82 -0.00 0.03 -0.07 16683
0.17 0.31 0.11 -0.81 10.41 -0.00 0.04 -0.07 16690
0.19 0.30 0.16 -0.80 9.80 -0.00 0.04 -0.07 16697
0.21 0.31 0.14 -0.84 9.82 -0.00 0.04 -0.07 16704
0.22 0.29 0.17 -0.83 9.81 -0.00 0.04 -0.07 16711
0.21 0.27 0.15 -0.82 9.82 -0.00 0.04 -0.07 16718
0.21 0.26 0.16 -0.81 9.82 -0.00 0.04 -0.07 16726
0.21 0.25 0.14 -0.83 9.81 -0.00 0.04 -0.07 16733
0.21 0.27 0.17 -0.82 9.83 -0.00 0.03 -0.07 16740
0.23 0.26 0.13 -0.84 9.81 -0.00 0.03 -0.07 16747
0.22 0.26 0.17 -0.84 9.81 -0.00 0.04 -0.08 16754
0.23 0.23 0.18 -0.86 9.82 -0.00 0.04 -0.07 16761
0.24 0.24 0.10 -0.81 9.81 -0.00 0.04 -0.07 16769
0.25 0.23 0.10 -0.85 9.78 0.00 0.04 -0.07 16776
0.27 0.22 0.13 -0.86 9.81 0.01 0.04 -0.07 16783
0.29 0.18 0.15 -0.86 9.82 0.01 0.04 -0.07 16790
0.31 0.17 0.16 -0.81 9.82 0.01 0.04 -0.07 16797
0.33 0.12 0.10 -0.86 9.81 0.01 0.04 -0.07 16804
0.35 0.15 0.14 -0.83 9.79 0.02 0.05 -0.07 16812
0.35 0.17 0.11 -0.85 9.82 0.01 0.05 -0.08 16819
0.36 0.13 0.11 -0.83 9.83 0.02 0.06 -0.07 16826
0.38 0.06 0.10 -0.87 9.82 0.02 0.07 -0.07 16833
0.39 0.09 0.16 -0.84 9.83 0.02 0.07 -0.08 16840
0.39 0.04 0.10 -0.89 9.85 0.02 0.07 -0.08 16847
0.38 0.03 0.13 -0.87 9.84 0.03 0.07 -0.08 16855
0.37 0.04 0.22 -0.86 9.84 0.03 0.07 -0.08 16862
0.41 0.05 0.19 -0.88 9.81 0.03 0.07 -0.08 16869
0.42 0.01 0.17 -0.89 9.82 0.04 0.07 -0.08 16876
0.44 -0.02 0.20 -0.88 9.85 0.05 0.08 -0.08 16883
0.43 -0.03 0.17 -0.86 9.91 0.06 0.08 -0.08 16890
0.42 -0.02 0.22 -0.87 9.96 0.08 0.09 -0.08 16898
0.44 -0.01 0.16 -0.92 9.96 0.10 0.10 -0.09 16905
0.44 -0.02 0.27 -0.90 10.04 0.14 0.11 -0.09 16912
0.43 -0.02 0.37 -1.01 10.13 0.19 0.13 -0.10 16920
0.41 -0.02 0.47 -1.06 10.33 0.27 0.16 -0.11 16927
0.41 -0.03 0.64 -1.05 10.59 0.40 0.21 -0.16 16934
0.40 -0.03 0.63 -1.02 11.32 0.62 0.30 -0.20 16941
0.39 -0.01 0.45 -1.04 11.84 1.00 0.28 -0.22 16949
0.39 -0.01 0.47 -1.11 11.70 1.22 0.22 -0.22 16956
0.38 -0.02 0.49 -0.68 11.37 1.24 0.21 -0.24 16963
0.35 -0.03 0.25 -1.31 11.23 1.26 0.16 -0.25 16970
0.33 -0.02 0.19 -1.39 10.95 1.29 0.12 -0.24 16977
0.30 -0.02 0.15 -1.35 10.79 1.32 0.10 -0.23 16985
0.25 -0.01 0.16 -1.63 10.51 1.35 0.08 -0.21 16992
0.24 -0.01 0.13 -1.70 10.16 1.38 0.05 -0.19 16998
0.21 -0.02 0.33 -1.85 9.41 1.41 -0.03 -0.18 17005
0.19 -0.02 0.27 -2.02 10.53 1.40 -0.11 -0.16 17012
0.15 -0.01 0.38 -2.01 10.29 1.38 -0.05 -0.17 17019
0.12 -0.01 0.18 -2.12 10.85 1.44 -0.04 -0.17 17028
0.07 -0.01 0.18 -2.22 10.87 1.50 -0.05 -0.16 17034
0.08 -0.01 0.48 -2.44 10.59 1.57 -0.03 -0.16 17041
0.06 -0.01 0.58 -2.59 10.25 1.60 -0.05 -0.17 17048
0.03 -0.00 0.67 -2.76 10.09 1.60 -0.10 -0.19 17055
0.01 -0.00 0.62 -2.90 10.43 1.62 -0.08 -0.21 17062
0.01 -0.00 1.10 -3.17 10.76 1.65 -0.07 -0.23 17070
0.03 -0.00 0.61 -3.13 10.55 1.69 -0.05 -0.24 17077
0.02 -0.00 0.69 -3.45 10.55 1.74 -0.02 -0.26 17084
0.01 -0.00 0.56 -3.41 10.76 1.79 0.03 -0.28 17091
0.01 -0.00 0.68 -3.71 10.85 1.83 0.08 -0.29 17098
0.00 0.00 0.04 -3.89 10.67 1.85 0.10 -0.30 17105
0.05 -0.01 0.45 -3.96 10.75 1.85 0.14 -0.30 17113
0.06 -0.01 0.66 -4.21 10.63 1.86 0.16 -0.31 17120
0.06 -0.01 0.61 -4.31 10.68 1.85 0.18 -0.32 17127
0.04 -0.00 0.46 -4.38 10.45 1.83 0.19 -0.33 17134
0.04 -0.00 0.52 -4.52 10.37 1.80 0.17 -0.34 17141
0.04 -0.00 0.54 -4.53 10.49 1.78 0.15 -0.36 17148
0.04 -0.00 0.66 -4.63 10.29 1.76 0.12 -0.37 17156
0.03 -0.00 0.58 -4.64 10.15 1.74 0.07 -0.40 17163
0.03 -0.00 0.64 -4.77 10.09 1.74 0.01 -0.42 17170
0.02 -0.00 0.70 -4.87 10.13 1.72 -0.04 -0.45 17177
0.02 -0.00 0.73 -4.94 10.03 1.72 -0.08 -0.47 17184
0.01 -0.00 0.85 -4.97 9.85 1.73 -0.13 -0.51 17191
0.02 -0.00 0.86 -4.92 9.59 1.75 -0.16 -0.53 17199
0.04 -0.00 0.76 -4.90 9.38 1.77 -0.20 -0.56 17206
0.03 -0.00 0.59 -4.84 9.10 1.79 -0.25 -0.59 17213
0.02 -0.00 0.38 -4.84 8.83 1.80 -0.30 -0.61 17220
0.02 -0.00 0.11 -4.90 8.58 1.80 -0.36 -0.62 17227
0.00 0.00 0.61 -4.93 8.37 1.81 -0.42 -0.63 17234
0.00 0.00 0.01 -4.92 8.13 1.79 -0.48 -0.64 17242
0.00 0.00 0.07 -5.00 7.84 1.78 -0.53 -0.64 17249
0.00 0.00 0.01 -5.07 7.24 1.74 -0.52 -0.63 17256
0.00 0.00 0.01 -5.09 6.91 1.68 -0.47 -0.62 17263
0.00 0.00 -0.03 -5.21 6.54 1.62 -0.38 -0.60 17270
0.00 0.00 -0.09 -5.38 6.49 1.57 -0.29 -0.60 17277
0.00 0.00 -0.21 -5.43 6.50 1.52 -0.20 -0.59 17285
0.00 0.00 -0.43 -5.67 6.52 1.47 -0.15 -0.57 17292
0.00 0.00 -0.78 -5.44 6.58 1.42 -0.11 -0.56 17299
0.00 0.00 -1.13 -5.71 6.31 1.38 -0.10 -0.55 17306
0.00 0.00 -1.15 -5.51 6.73 1.35 -0.12 -0.53 17313
0.00 0.00 -1.39 -6.25 5.78 1.33 -0.15 -0.51 17320
0.00 0.00 -1.61 -7.29 5.39 1.36 -0.20 -0.49 17328
0.00 0.00 -1.37 -7.11 5.26 1.44 -0.25 -0.49 17335
0.00 0.00 -1.42 -7.64 4.59 1.52 -0.29 -0.48 17342
0.00 0.00 -1.20 -7.32 4.64 1.61 -0.28 -0.48 17349
0.00 0.00 -0.94 -7.64 4.69 1.67 -0.22 -0.48 17356
0.00 0.00 -0.52 -7.73 5.13 1.71 -0.13 -0.48 17363
0.00 -0.00 -0.22 -7.41 6.10 1.72 0.01 -0.49 17371
0.00 0.00 0.03 -7.46 5.68 1.67 0.17 -0.51 17378
0.00 0.00 0.07 -7.61 5.83 1.65 0.31 -0.53 17385
0.00 0.00 0.05 -7.73 5.73 1.59 0.46 -0.55 17392
0.00 0.00 -0.02 -7.73 5.45 1.53 0.60 -0.58 17399
0.00 0.00 -0.12 -7.68 5.47 1.45 0.66 -0.61 17406
0.00 0.00 -0.38 -7.53 5.54 1.36 0.72 -0.65 17414
0.00 0.00 -0.62 -7.91 5.35 1.24 0.73 -0.67 17421
0.00 0.00 -0.93 -7.31 5.18 1.11 0.66 -0.70 17428
0.00 0.00 -1.04 -6.14 4.87 0.99 0.52 -0.72 17435
0.00 0.00 -1.08 -5.00 4.34 0.83 0.38 -0.72 17442
0.00 0.00 -0.85 -1.01 4.92 0.59 0.21 -0.68 17449
0.01 -0.00 1.00 3.25 5.75 0.26 0.10 -0.61 17457
0.00 0.00 0.61 0.43 8.25 -0.31 0.09 -0.49 17464
0.00 0.00 -0.08 -1.71 9.19 -0.86 0.04 -0.36 17471
0.00 0.00 -0.10 -2.38 9.52 -1.25 -0.02 -0.26 17478
0.00 0.00 -0.17 -2.91 8.95 -1.51 -0.12 -0.16 17485
0.00 0.00 -0.40 -2.83 7.97 -1.69 -0.21 -0.09 17492
0.00 0.00 -0.46 -2.56 7.35 -1.81 -0.28 -0.05 17500
0.00 0.00 -0.34 -2.34 6.75 -1.90 -0.31 -0.01 17507
0.00 0.00 -0.34 -2.40 6.36 -1.89 -0.32 0.02 17514
0.00 0.00 -0.28 -2.68 6.58 -1.90 -0.30 0.07 17521
0.00 0.00 -0.01 -2.88 6.85 -1.88 -0.25 0.11 17528
0.00 -0.00 0.17 -2.95 6.97 -1.88 -0.17 0.15 17536
0.00 0.00 0.33 -2.90 7.21 -1.94 -0.09 0.17 17543
0.00 0.00 0.59 -2.89 7.54 -1.95 -0.02 0.17 17550
0.00 0.00 0.79 -2.92 7.86 -2.04 0.10 0.15 17557
0.00 0.00 0.74 -3.16 8.14 -2.13 0.23 0.14 17564
0.00 0.00 0.52 -3.25 8.24 -2.26 0.33 0.14 17571
0.00 -0.00 0.18 -3.42 8.24 -2.35 0.39 0.15 17579
0.00 0.00 -0.06 -3.67 8.16 -2.39 0.39 0.17 17586
0.00 0.00 -0.24 -4.12 8.13 -2.38 0.35 0.19 17593
0.00 0.00 -0.37 -4.61 8.31 -2.33 0.28 0.21 17600
0.00 0.00 -0.34 -4.90 8.83 -2.25 0.22 0.24 17607
-0.00 0.00 -0.15 -5.02 9.17 -2.16 0.19 0.27 17614
0.00 0.00 -0.91 -8.22 9.13 -2.09 0.18 0.28 17622
0.00 0.00 -1.04 -9.34 10.79 -1.99 0.19 0.20 17629
0.00 0.00 -0.18 -7.76 12.68 -1.95 0.22 0.07 17636
0.00 0.00 -2.45 -10.13 10.34 -1.87 0.23 -0.03 17643
