Voltage_01 Voltage_02 Acc_x Acc_y Acc_z Gyro_x Gyro_y Gyro_z Time
5000
0.00 0.00 -4.11 -3.54 9.75 0.38 -0.82 0.51 23
0.00 0.00 -4.42 -3.59 9.60 0.47 -0.74 0.52 29
0.00 0.00 -1.37 -2.85 8.57 0.62 -0.41 0.60 35
-0.00 0.00 -5.09 -2.07 9.54 0.65 -0.39 0.63 41
0.00 0.00 -16.00 -3.24 20.81 0.41 -0.52 0.55 48
-0.00 0.00 -5.33 -2.29 11.50 0.03 -0.07 0.10 55
0.00 0.00 -0.93 -0.95 8.98 -0.05 0.09 -0.07 62
-0.00 0.01 0.13 -0.99 9.82 -0.09 0.10 -0.06 68
-0.00 0.01 0.47 -0.68 9.70 -0.10 0.02 -0.08 74
0.01 0.01 0.66 -0.90 9.35 -0.12 -0.00 -0.06 80
-0.00 0.00 0.51 -1.06 9.39 -0.15 -0.02 -0.03 88
-0.00 0.03 0.38 -1.04 9.37 -0.17 -0.02 -0.01 94
-0.00 0.02 0.38 -0.91 9.51 -0.22 -0.04 -0.01 100
-0.01 0.07 0.26 -0.84 9.67 -0.27 -0.04 -0.01 107
-0.01 0.06 0.50 -0.88 10.88 -0.30 -0.01 -0.03 114
-0.00 0.11 0.55 -0.87 10.15 -0.23 -0.00 -0.03 121
-0.01 0.17 0.55 -0.87 10.00 -0.17 0.00 -0.04 129
0.01 0.19 0.42 -0.85 9.87 -0.14 -0.01 -0.05 136
-0.02 0.20 0.34 -0.83 9.94 -0.13 -0.02 -0.05 143
-0.02 0.23 0.35 -0.82 9.88 -0.11 -0.03 -0.05 150
-0.00 0.24 0.36 -0.79 9.86 -0.10 -0.02 -0.06 157
0.01 0.29 0.33 -0.77 9.83 -0.09 -0.00 -0.06 164
0.01 0.28 0.30 -0.77 9.78 -0.08 0.01 -0.06 172
-0.00 0.31 0.32 -0.76 9.82 -0.08 0.02 -0.05 179
0.00 0.39 0.41 -0.78 9.82 -0.07 0.03 -0.05 186
0.02 0.37 0.40 -0.77 9.80 -0.07 0.04 -0.05 193
0.01 0.41 0.34 -0.75 9.81 -0.06 0.04 -0.05 200
0.02 0.46 0.33 -0.73 9.82 -0.05 0.05 -0.05 207
0.00 0.48 0.34 -0.75 9.82 -0.04 0.05 -0.04 215
-0.01 0.47 0.34 -0.76 9.83 -0.04 0.05 -0.04 222
-0.02 0.46 0.36 -0.75 9.84 -0.04 0.05 -0.05 229
0.02 0.57 0.39 -0.73 9.82 -0.04 0.06 -0.04 236
0.05 0.56 0.38 -0.75 9.82 -0.03 0.05 -0.05 243
0.06 0.56 0.41 -0.75 9.81 -0.03 0.05 -0.05 250
0.05 0.53 0.38 -0.74 9.82 -0.03 0.05 -0.05 258
0.04 0.57 0.37 -0.71 9.82 -0.03 0.05 -0.05 265
0.04 0.56 0.37 -0.70 9.82 -0.02 0.05 -0.06 272
0.05 0.58 0.35 -0.70 9.82 -0.02 0.05 -0.06 279
0.08 0.57 0.38 -0.73 9.82 -0.01 0.05 -0.06 286
0.09 0.54 0.34 -0.71 9.81 -0.01 0.05 -0.06 293
0.09 0.54 0.39 -0.69 9.82 -0.01 0.05 -0.06 301
0.09 0.53 0.34 -0.72 9.82 -0.00 0.05 -0.06 308
0.09 0.53 0.33 -0.74 9.82 -0.03 0.05 -0.06 315
0.09 0.53 0.34 -0.71 9.82 -0.00 0.05 -0.06 322
0.11 0.53 0.36 -0.68 9.81 0.00 0.05 -0.06 329
0.10 0.51 0.35 -0.73 9.83 0.00 0.05 -0.06 336
0.10 0.49 0.36 -0.71 9.79 0.00 0.06 -0.06 344
0.09 0.47 0.35 -0.73 9.81 0.01 0.05 -0.06 351
0.08 0.47 0.34 -0.71 9.80 0.00 0.06 -0.07 358
0.09 0.45 0.34 -0.74 9.78 0.01 0.05 -0.07 365
0.11 0.45 0.34 -0.72 9.78 0.00 0.05 -0.06 372
0.10 0.44 0.36 -0.76 9.79 0.01 0.06 -0.06 379
0.10 0.42 0.40 -0.73 9.80 0.00 0.06 -0.06 387
0.11 0.42 0.40 -0.71 9.80 0.00 0.06 -0.07 394
0.10 0.41 0.38 -0.74 9.79 0.01 0.05 -0.06 401
0.11 0.43 0.39 -0.74 9.81 0.00 0.05 -0.06 408
0.12 0.39 0.39 -0.74 9.81 0.01 0.05 -0.06 415
0.11 0.37 0.40 -0.77 9.80 0.00 0.05 -0.06 422
0.11 0.35 0.39 -0.73 9.81 0.00 0.04 -0.06 430
0.10 0.31 0.40 -0.74 9.80 0.01 0.05 -0.06 437
0.12 0.30 0.38 -0.75 9.79 0.00 0.04 -0.06 444
0.13 0.28 0.34 -0.75 9.78 0.00 0.04 -0.06 451
0.13 0.24 0.33 -0.71 9.79 0.00 0.04 -0.07 458
0.13 0.25 0.37 -0.73 9.77 0.00 0.04 -0.07 465
0.12 0.22 0.37 -0.74 9.80 0.01 0.04 -0.06 473
0.11 0.24 0.41 -0.72 9.82 0.01 0.04 -0.07 480
0.13 0.23 0.41 -0.75 9.80 0.00 0.04 -0.06 487
0.15 0.22 0.42 -0.74 9.82 0.00 0.03 -0.07 494
0.16 0.22 0.38 -0.73 9.80 0.01 0.03 -0.07 501
0.17 0.16 0.38 -0.75 9.82 0.01 0.03 -0.07 508
0.17 0.19 0.38 -0.75 9.80 0.00 0.03 -0.06 516
0.18 0.19 0.36 -0.77 9.76 0.00 0.03 -0.07 523
0.19 0.18 0.37 -0.77 9.79 0.01 0.03 -0.07 530
0.21 0.17 0.34 -0.77 9.78 0.01 0.03 -0.07 537
0.21 0.17 0.38 -0.74 9.84 0.01 0.03 -0.07 544
0.21 0.14 0.39 -0.75 9.81 0.01 0.03 -0.07 551
0.23 0.10 0.38 -0.74 9.79 0.01 0.03 -0.07 559
0.23 0.07 0.34 -0.74 9.80 0.01 0.04 -0.07 566
0.25 0.06 0.38 -0.77 9.80 0.01 0.04 -0.07 573
0.26 0.06 0.35 -0.75 9.82 0.01 0.04 -0.10 580
0.28 0.04 0.34 -0.78 9.81 0.01 0.04 -0.06 587
0.28 0.01 0.41 -0.76 9.82 0.01 0.04 -0.07 594
0.26 0.00 0.40 -0.78 10.40 0.01 0.04 -0.06 602
0.29 0.00 0.39 -0.78 9.80 0.02 0.04 -0.07 609
0.32 -0.01 0.38 -0.75 9.84 0.02 0.04 -0.07 616
0.33 -0.00 0.41 -0.79 9.82 0.02 0.04 -0.06 623
0.34 -0.01 0.35 -0.80 9.80 0.02 0.04 -0.07 630
0.38 -0.01 0.40 -0.72 9.77 0.03 0.04 -0.06 637
0.37 -0.02 0.36 -0.79 9.83 0.03 0.05 -0.06 645
0.40 -0.01 0.39 -0.83 9.80 0.04 0.05 -0.06 652
0.43 0.00 0.38 -0.81 9.82 0.04 0.05 -0.06 659
0.43 -0.02 0.38 -0.78 9.81 0.04 0.06 -0.06 666
0.43 -0.01 0.32 -0.82 9.82 0.04 0.06 -0.06 673
0.44 -0.03 0.39 -0.81 9.80 0.05 0.07 -0.06 680
0.44 -0.02 0.35 -0.83 9.81 0.06 0.10 -0.06 688
0.47 -0.02 0.42 -0.91 9.81 0.06 0.07 -0.06 695
0.52 -0.01 0.41 -0.85 9.82 0.10 0.08 -0.07 702
0.56 -0.03 0.41 -0.82 9.81 0.07 0.08 -0.10 709
0.55 -0.02 0.39 -0.81 9.84 0.08 0.08 -0.07 716
0.58 -0.03 0.42 -0.84 9.82 0.09 0.09 -0.08 723
0.63 -0.03 0.45 -0.84 9.26 0.11 0.08 -0.08 731
0.65 -0.03 0.46 -0.85 10.01 0.15 0.08 -0.09 738
0.70 -0.03 0.42 -0.82 9.95 0.19 0.10 -0.11 745
0.72 -0.03 0.19 -0.92 10.59 0.26 0.12 -0.12 753
0.76 -0.04 0.38 -0.98 10.23 0.49 0.17 -0.11 760
0.78 -0.03 0.45 -1.04 10.17 0.68 0.18 -0.11 768
0.82 -0.01 1.76 -1.53 11.92 0.79 0.20 -0.13 775
0.86 -0.02 0.52 -1.15 10.99 0.83 0.16 -0.14 782
0.91 -0.04 0.59 -1.12 10.94 0.85 0.05 -0.15 789
0.92 -0.03 0.74 -1.30 10.68 0.93 0.01 -0.16 795
0.91 -0.02 0.57 -1.26 11.25 0.97 -0.02 -0.20 802
0.91 -0.02 0.77 -1.19 11.12 1.05 -0.05 -0.18 811
0.92 -0.01 0.44 -1.43 11.06 1.13 -0.07 -0.19 818
0.92 -0.01 0.54 -1.57 11.10 1.21 -0.10 -0.19 825
0.92 -0.01 0.55 -1.76 10.93 1.28 -0.12 -0.19 832
0.89 -0.02 0.60 -1.65 10.98 1.37 -0.14 -0.20 839
0.87 -0.02 0.30 -1.66 11.07 1.46 -0.16 -0.20 846
0.82 -0.02 0.46 -2.00 10.98 1.52 -0.19 -0.20 852
0.80 -0.02 0.33 -1.98 10.75 1.60 -0.21 -0.20 861
0.75 -0.02 0.25 -2.11 10.69 1.68 -0.24 -0.19 868
0.71 -0.02 0.17 -2.26 10.91 1.74 -0.22 -0.17 875
0.64 -0.03 0.41 -2.40 10.68 1.83 -0.17 -0.18 882
0.56 -0.03 0.27 -2.52 10.91 1.91 -0.07 -0.17 889
0.50 -0.02 -0.11 -2.68 11.56 2.01 -0.03 -0.16 897
0.39 -0.02 0.08 -2.77 11.35 2.12 0.09 -0.14 904
0.32 -0.02 0.10 -3.46 11.24 2.18 0.02 -0.10 910
0.22 -0.02 0.68 -3.46 11.89 2.28 0.15 -0.09 917
0.19 -0.02 -0.42 -3.54 12.42 2.37 0.17 -0.07 924
0.14 -0.01 -0.33 -3.93 12.91 2.43 0.23 -0.02 931
0.10 -0.01 -0.16 -4.25 13.18 2.45 0.34 0.01 939
0.14 -0.01 -0.40 -4.91 13.86 2.43 0.46 0.05 946
0.10 -0.01 -0.55 -5.30 13.63 2.36 0.47 0.08 953
0.07 -0.01 -1.27 -4.99 13.83 2.25 0.39 0.11 960
0.05 -0.01 -1.83 -0.99 13.11 2.12 0.19 0.13 967
0.04 -0.00 -2.26 -1.69 14.42 1.79 -0.20 0.11 974
0.05 -0.01 -1.21 0.09 15.25 1.43 -0.59 0.14 982
0.04 -0.00 0.20 1.53 12.42 1.14 -0.66 0.12 989
0.02 -0.00 0.13 2.27 11.27 0.94 -0.73 -0.00 996
0.02 -0.00 -0.12 4.04 9.79 0.78 -0.70 -0.22 1003
0.02 -0.00 -0.09 6.02 7.90 0.58 -0.58 -0.55 1010
0.00 -0.00 -1.47 6.17 6.12 0.40 -0.51 -1.11 1017
0.01 -0.00 -1.14 5.10 4.36 0.27 -0.51 -1.58 1025
0.00 0.00 -1.94 5.78 7.81 -0.03 -0.46 -2.01 1032
0.00 -0.00 -1.94 6.02 8.38 -0.37 -0.47 -2.39 1039
0.00 -0.00 -1.55 5.65 8.17 -0.65 -0.63 -2.62 1046
0.00 -0.00 -1.19 4.73 7.99 -0.79 -0.86 -2.79 1053
0.00 0.00 -0.56 4.23 7.60 -0.92 -1.01 -2.87 1060
0.00 0.00 0.29 3.80 7.01 -1.03 -1.16 -2.92 1068
0.00 -0.00 1.77 3.39 7.01 -1.09 -1.23 -2.92 1075
0.00 -0.00 2.24 2.94 7.37 -1.17 -1.18 -2.89 1082
0.00 0.00 3.32 2.67 7.77 -1.24 -1.01 -2.83 1089
0.00 0.00 3.98 2.46 7.97 -1.35 -0.79 -2.74 1096
0.00 0.00 4.54 2.15 8.17 -1.47 -0.49 -2.60 1103
0.00 0.00 4.56 1.68 8.10 -1.58 -0.17 -2.41 1111
0.00 0.00 4.70 1.19 8.60 -1.69 -0.01 -2.24 1118
0.00 0.00 4.80 0.52 8.94 -1.75 0.17 -2.02 1125
0.00 0.00 4.85 -0.03 9.22 -1.78 0.27 -1.78 1132
0.00 0.00 4.96 -0.70 9.48 -1.79 0.37 -1.57 1139
0.00 0.00 5.20 -1.33 9.76 -1.78 0.49 -1.32 1146
0.00 0.00 5.30 -1.73 10.08 -1.78 0.55 -1.12 1154
0.00 -0.00 5.44 -2.22 10.40 -1.79 0.67 -0.90 1161
0.00 0.00 5.41 -2.62 10.85 -1.80 0.78 -0.66 1168
0.00 0.00 5.25 -2.99 11.24 -1.80 0.89 -0.45 1175
0.00 0.00 4.95 -3.46 11.39 -1.80 0.98 -0.20 1182
0.00 0.00 4.00 -3.48 10.35 -1.76 1.08 0.02 1189
0.00 0.00 3.95 -3.76 11.44 -1.71 1.27 0.28 1197
0.00 0.00 3.58 -4.22 11.36 -1.65 1.19 0.47 1204
0.00 0.00 3.23 -4.79 11.89 -1.58 1.15 0.64 1211
0.00 0.00 3.37 -5.13 11.91 -1.52 1.17 0.85 1218
0.00 0.00 3.20 -5.21 11.71 -1.45 1.19 1.00 1225
0.00 0.00 2.87 -5.39 11.57 -1.39 1.23 1.15 1232
0.00 0.00 2.65 -5.72 11.48 -1.32 1.28 1.26 1240
0.00 0.00 2.24 -6.00 11.42 -1.23 1.31 1.33 1247
0.00 0.00 1.78 -6.30 11.40 -1.10 1.35 1.37 1254
0.00 0.00 1.47 -6.57 11.26 -1.04 1.38 1.38 1261
0.00 0.00 1.12 -6.95 11.18 -0.95 1.39 1.36 1268
0.00 0.00 0.94 -7.02 11.59 -0.90 1.41 1.35 1275
0.00 0.00 1.05 -6.84 12.05 -0.86 1.44 1.35 1283
0.00 0.00 0.96 -6.31 12.34 -0.86 1.47 1.36 1290
0.00 0.00 0.66 -5.86 12.46 -0.88 1.49 1.39 1297
0.00 0.00 0.26 -5.74 12.35 -0.90 1.52 1.42 1304
0.00 0.00 -0.27 -5.73 11.99 -0.92 1.51 1.44 1311
0.00 0.00 -0.85 -5.71 11.54 -0.92 1.48 1.45 1318
0.00 -0.00 -1.54 -5.78 11.20 -0.88 1.44 1.45 1326
0.00 0.00 -2.05 -5.97 10.89 -0.82 1.40 1.43 1333
0.00 0.00 -2.62 -6.16 10.49 -0.73 1.34 1.39 1340
0.00 0.00 -3.12 -6.37 10.23 -0.66 1.22 1.30 1347
0.00 0.00 -3.36 -6.62 10.10 -0.57 1.09 1.20 1354
0.00 0.00 -3.51 -6.64 9.87 -0.49 0.96 1.05 1361
0.00 -0.00 -3.65 -6.71 9.82 -0.42 0.87 0.87 1369
0.00 0.00 -3.93 -7.07 9.78 -0.34 0.81 0.70 1376
0.00 0.00 -5.91 -7.29 8.84 -0.12 0.37 0.56 1383
0.00 0.00 -4.63 -6.13 8.07 -0.13 0.19 0.35 1390
0.00 0.00 -5.79 -7.76 10.27 -0.13 0.10 0.23 1397
0.00 0.00 -5.56 -7.42 9.98 -0.14 0.09 0.08 1404
0.00 0.00 -5.17 -7.17 10.25 -0.13 0.15 -0.05 1412
0.00 0.00 -5.88 -7.64 9.40 -0.11 0.12 -0.18 1419
0.00 0.00 -6.23 -7.76 8.86 -0.08 0.05 -0.27 1426
0.00 0.00 -6.04 -7.59 8.44 -0.02 -0.12 -0.34 1433
0.00 0.00 -6.37 -7.84 8.16 0.05 -0.32 -0.38 1440
0.00 0.00 -5.89 -7.76 8.38 0.18 -0.42 -0.35 1447
0.00 0.00 -4.91 -7.48 8.06 0.30 -0.49 -0.27 1455
0.00 0.00 -4.76 -7.35 8.23 0.42 -0.57 -0.16 1462
0.00 0.00 -4.87 -7.43 8.19 0.54 -0.68 -0.02 1469
0.00 0.00 -4.60 -7.48 8.41 0.62 -0.85 0.19 1476
0.00 0.00 -3.20 -6.05 9.66 0.91 -0.58 0.55 1483
0.00 0.00 -1.95 -2.05 9.98 1.00 -0.46 0.74 1490
-0.00 0.01 -3.41 -1.30 10.23 1.00 -0.52 0.66 1498
-0.00 0.03 -3.90 -1.50 10.82 0.94 -0.56 0.47 1505
-0.00 0.03 -5.96 0.77 15.25 0.41 -1.15 -0.02 1512
-0.00 0.03 0.56 -1.98 12.50 -0.04 -0.80 -0.07 1519
-0.01 0.07 -0.22 -0.53 9.91 -0.28 -0.21 -0.04 1526
-0.00 0.14 0.41 -1.03 12.83 -0.31 -0.08 -0.07 1533
-0.02 0.17 0.55 -0.77 10.16 -0.17 0.02 -0.06 1541
-0.02 0.22 0.54 -0.92 10.11 -0.08 0.05 -0.05 1548
-0.03 0.27 0.37 -1.01 10.01 -0.07 0.04 -0.05 1555
-0.02 0.26 0.25 -0.96 9.95 -0.07 0.01 -0.04 1562
-0.02 0.28 0.21 -0.91 9.90 -0.06 -0.00 -0.05 1569
-0.01 0.27 0.26 -0.87 9.86 -0.05 0.01 -0.05 1576
-0.03 0.32 0.30 -0.86 9.82 -0.05 0.02 -0.05 1584
-0.02 0.33 0.27 -0.81 9.81 -0.04 0.02 -0.05 1591
-0.01 0.33 0.27 -0.83 9.20 -0.04 0.03 -0.05 1598
-0.02 0.35 0.34 -0.78 9.81 -0.04 0.03 -0.05 1605
-0.00 0.36 0.33 -0.77 9.81 -0.04 0.03 -0.05 1612
-0.01 0.41 0.31 -0.75 9.82 -0.04 0.03 -0.05 1619
-0.01 0.44 0.25 -0.80 9.83 -0.03 0.04 -0.05 1627
0.00 0.43 0.27 -0.80 9.80 -0.03 0.04 -0.05 1634
-0.01 0.45 0.28 -0.80 9.81 -0.03 0.04 -0.05 1641
0.00 0.48 0.28 -0.80 9.81 -0.03 0.04 -0.04 1648
0.01 0.48 0.31 -0.75 9.81 -0.03 0.05 -0.04 1655
0.02 0.53 0.29 -0.74 9.80 -0.04 0.04 -0.05 1662
0.00 0.52 0.32 -0.79 9.81 -0.04 0.04 -0.05 1670
0.00 0.46 0.32 -0.75 9.82 -0.03 0.04 -0.05 1677
-0.01 0.51 0.26 -0.80 9.82 -0.03 0.04 -0.05 1684
0.00 0.55 0.34 -0.78 9.82 -0.03 0.04 -0.05 1691
0.01 0.51 0.33 -0.78 9.82 -0.03 0.04 -0.06 1698
0.00 0.53 0.29 -0.78 9.81 -0.03 0.03 -0.06 1705
-0.01 0.56 0.28 -0.74 9.83 -0.03 0.04 -0.06 1713
-0.01 0.61 0.32 -0.74 9.83 -0.02 0.03 -0.06 1720
-0.01 0.59 0.31 -0.75 10.42 -0.02 0.03 -0.06 1727
0.01 0.59 0.30 -0.75 9.82 -0.02 0.03 -0.06 1734
0.01 0.58 0.31 -0.74 9.82 -0.02 0.03 -0.06 1741
-0.00 0.60 0.30 -0.76 9.82 -0.01 0.04 -0.06 1748
0.01 0.62 0.31 -0.74 9.82 -0.01 0.04 -0.06 1756
-0.00 0.59 0.31 -0.75 9.81 -0.01 0.04 -0.06 1763
0.01 0.57 0.30 -0.75 9.82 -0.00 0.04 -0.06 1770
0.02 0.57 0.29 -0.76 9.82 -0.00 0.04 -0.06 1777
0.03 0.58 0.30 -0.73 9.81 -0.00 0.04 -0.06 1784
0.02 0.58 0.33 -0.77 9.81 -0.00 0.04 -0.06 1792
0.02 0.57 0.29 -0.77 9.83 -0.00 0.03 -0.06 1799
0.01 0.56 0.31 -0.77 9.80 0.00 0.03 -0.06 1806
0.02 0.54 0.27 -0.74 9.83 -0.00 0.04 -0.07 1813
0.02 0.54 0.30 -0.77 10.40 -0.00 0.03 -0.06 1820
0.03 0.53 0.31 -0.75 9.80 -0.00 0.04 -0.06 1827
0.02 0.53 0.31 -0.79 9.81 -0.00 0.04 -0.06 1835
0.02 0.52 0.26 -0.74 9.78 -0.01 0.04 -0.07 1842
0.02 0.54 0.31 -0.78 9.83 -0.01 0.04 -0.06 1849
0.03 0.52 0.30 -0.76 10.41 -0.01 0.04 -0.06 1856
0.04 0.53 0.31 -0.74 9.82 -0.01 0.04 -0.06 1863
0.04 0.53 0.27 -0.74 9.82 -0.01 0.04 -0.06 1870
0.03 0.53 0.28 -0.73 9.80 -0.01 0.04 -0.06 1878
0.03 0.52 0.31 -0.76 9.81 -0.01 0.04 -0.07 1885
0.02 0.53 0.32 -0.73 9.78 -0.01 0.05 -0.06 1892
0.02 0.52 0.31 -0.77 9.81 -0.01 0.04 -0.06 1899
0.04 0.52 0.30 -0.74 9.82 -0.01 0.04 -0.06 1906
0.03 0.52 0.28 -0.77 9.80 -0.01 0.04 -0.06 1913
0.02 0.52 0.30 -0.74 9.80 -0.01 0.04 -0.06 1921
0.03 0.52 0.31 -0.76 9.81 -0.01 0.04 -0.06 1928
0.02 0.52 0.28 -0.74 9.80 -0.01 0.04 -0.06 1935
0.03 0.52 0.31 -0.75 9.78 -0.01 0.04 -0.07 1942
0.04 0.52 0.28 -0.78 10.19 -0.00 0.05 -0.06 1949
0.04 0.51 0.33 -0.78 9.82 -0.01 0.04 -0.06 1956
0.02 0.51 0.33 -0.76 9.82 -0.01 0.04 -0.07 1964
0.02 0.50 0.30 -0.74 9.81 -0.01 0.04 -0.07 1971
0.02 0.50 0.28 -0.77 9.81 -0.00 0.04 -0.07 1978
0.03 0.49 0.29 -0.76 9.83 -0.00 0.04 -0.07 1985
0.04 0.48 0.32 -0.76 9.83 -0.00 0.04 -0.06 1992
0.04 0.48 0.31 -0.77 9.79 0.00 0.04 -0.06 1999
0.04 0.46 0.28 -0.75 9.81 -0.00 0.05 -0.07 2007
0.03 0.47 0.28 -0.76 9.79 0.00 0.05 -0.07 2014
0.04 0.45 0.28 -0.77 9.80 -0.00 0.04 -0.06 2021
0.05 0.44 0.29 -0.74 9.79 -0.00 0.05 -0.06 2028
0.05 0.43 0.27 -0.76 9.79 0.00 0.04 -0.07 2035
0.05 0.43 0.28 -0.75 9.78 0.00 0.04 -0.07 2042
0.06 0.39 0.30 -0.74 9.82 0.03 0.05 -0.06 2050
0.05 0.38 0.30 -0.75 9.79 0.00 0.05 -0.10 2057
0.07 0.37 0.29 -0.75 9.79 0.00 0.05 -0.07 2064
0.08 0.36 0.33 -0.77 9.81 0.00 0.04 -0.06 2071
0.08 0.37 0.28 -0.77 10.39 0.00 0.04 -0.07 2078
0.07 0.36 0.32 -0.76 9.82 0.00 0.05 -0.07 2085
0.07 0.34 0.32 -0.78 9.81 0.00 0.05 -0.07 2093
0.07 0.33 0.31 -0.75 9.79 0.01 0.04 -0.06 2100
0.07 0.33 0.32 -0.77 9.81 0.01 0.05 -0.06 2107
0.10 0.27 0.29 -0.76 9.81 0.01 0.05 -0.06 2114
0.10 0.27 0.29 -0.73 9.80 0.01 0.05 -0.06 2121
0.10 0.28 0.32 -0.72 9.82 0.02 0.05 -0.07 2128
0.13 0.27 0.28 -0.76 9.83 0.02 0.05 -0.07 2136
0.16 0.20 0.34 -0.80 9.80 0.03 0.05 -0.07 2143
0.18 0.18 0.27 -0.82 9.81 0.04 0.06 -0.07 2150
0.22 0.14 0.32 -0.73 9.81 0.04 0.05 -0.07 2157
0.22 0.05 0.36 -0.70 9.83 0.05 0.06 -0.07 2164
0.25 0.02 0.31 -0.67 9.86 0.05 0.06 -0.07 2171
0.27 -0.01 0.29 -0.87 9.82 0.06 0.07 -0.06 2179
0.30 -0.02 0.35 -0.79 9.83 0.07 0.07 -0.07 2186
0.35 -0.01 0.36 -0.80 9.88 0.08 0.08 -0.06 2193
0.41 -0.02 0.40 -0.85 9.92 0.10 0.09 -0.06 2200
0.45 -0.03 0.38 -0.96 9.95 0.12 0.10 -0.06 2207
0.43 -0.02 0.35 -1.06 9.97 0.15 0.14 -0.07 2214
0.50 -0.02 0.28 -0.65 10.12 0.19 0.17 -0.09 2222
0.54 -0.03 0.80 -1.00 10.07 0.27 0.25 -0.10 2229
0.59 -0.02 0.94 -0.94 11.25 0.48 0.41 -0.14 2237
0.61 -0.03 0.20 -0.75 10.78 1.46 0.50 -0.15 2243
0.66 -0.03 0.06 -1.40 11.71 1.72 0.42 -0.20 2250
0.68 -0.03 0.48 -1.07 12.39 1.69 0.26 -0.23 2258
0.67 -0.02 0.71 -1.41 14.75 1.87 0.16 -0.25 2266
0.68 -0.02 0.35 -1.56 12.37 2.12 0.12 -0.25 2273
0.68 -0.03 0.36 -1.52 11.92 2.19 0.06 -0.24 2280
0.67 -0.03 0.26 -1.59 12.29 2.31 -0.02 -0.23 2287
0.62 -0.03 0.38 -1.66 11.99 2.43 -0.03 -0.22 2294
0.56 -0.03 0.44 -2.02 11.18 2.55 -0.01 -0.22 2301
0.54 -0.02 0.48 -2.06 11.60 2.66 0.02 -0.22 2308
0.48 -0.02 0.63 -2.28 10.49 2.75 0.04 -0.21 2316
0.44 -0.02 0.49 -2.77 11.10 2.85 0.07 -0.19 2322
0.38 -0.03 0.40 -2.86 11.50 2.95 0.10 -0.18 2329
0.31 -0.02 0.37 -3.14 12.45 3.08 0.06 -0.16 2336
0.27 -0.02 0.41 -3.44 11.77 3.19 0.04 -0.13 2344
0.14 -0.01 0.24 -3.94 11.87 3.26 0.06 -0.11 2351
0.17 -0.01 0.08 -4.21 13.30 3.30 0.05 -0.08 2358
0.16 -0.01 0.09 -4.89 13.24 3.32 0.07 -0.05 2365
0.13 -0.01 0.40 -5.19 13.32 3.29 0.09 -0.03 2372
0.13 -0.01 -0.08 -5.50 12.70 3.22 0.16 -0.02 2379
0.12 -0.01 0.48 -6.19 13.65 3.13 0.17 0.00 2386
0.11 -0.01 0.10 -6.01 13.47 2.98 0.19 0.00 2394
0.10 -0.01 -0.55 -2.97 12.85 2.83 0.05 -0.01 2401
0.11 -0.01 -0.68 -3.77 11.75 2.47 -0.07 -0.02 2408
0.09 -0.01 -0.29 -3.81 13.39 2.16 -0.31 -0.02 2415
0.08 -0.01 1.33 -3.56 10.23 2.01 -0.32 -0.02 2422
0.06 -0.01 2.02 -2.38 10.84 1.83 -0.24 -0.03 2429
0.06 -0.01 1.60 -0.60 12.30 1.59 -0.19 -0.11 2437
0.10 -0.01 0.80 2.30 12.15 1.30 -0.20 -0.22 2444
0.09 -0.01 0.09 3.67 10.28 0.91 -0.23 -0.32 2451
0.04 -0.00 -0.08 7.89 8.33 0.59 -0.29 -0.49 2458
0.00 -0.00 -0.88 10.65 5.50 0.18 -0.35 -0.79 2465
0.00 -0.00 -0.02 7.50 2.13 -0.28 -0.43 -1.32 2472
0.02 -0.00 -0.72 7.40 5.25 -0.61 -0.60 -1.72 2480
0.03 -0.00 -0.92 7.71 7.86 -1.06 -0.56 -1.99 2487
0.01 -0.00 -0.27 6.37 8.17 -1.30 -0.56 -2.24 2494
0.00 0.00 -0.14 5.51 7.72 -1.43 -0.68 -2.37 2501
0.00 0.00 -0.29 4.97 7.34 -1.50 -0.83 -2.45 2508
0.00 0.00 0.10 4.75 6.92 -1.60 -0.89 -2.46 2515
0.00 -0.00 0.87 4.32 6.97 -1.69 -0.94 -2.42 2523
0.00 -0.00 1.70 3.90 7.55 -1.77 -0.92 -2.35 2530
0.00 0.00 2.39 3.59 8.02 -1.88 -0.83 -2.28 2537
0.00 0.00 3.11 3.18 8.61 -2.03 -0.66 -2.17 2544
0.00 0.00 3.53 2.79 9.28 -2.17 -0.48 -2.03 2551
0.00 0.00 3.64 2.41 9.26 -2.32 -0.33 -1.91 2558
0.00 0.00 3.70 1.73 9.53 -2.44 -0.19 -1.77 2566
0.00 0.00 3.64 1.08 9.80 -2.53 -0.08 -1.66 2573
0.00 0.00 3.56 0.30 9.86 -2.57 0.07 -1.55 2580
0.00 0.00 3.49 -0.42 9.98 -2.56 0.26 -1.45 2587
0.00 0.00 3.40 -0.82 10.29 -2.52 0.44 -1.41 2594
0.00 0.00 3.26 -1.20 10.58 -2.44 0.64 -1.39 2601
0.00 0.00 3.00 -1.56 11.05 -2.43 0.82 -1.39 2609
0.00 0.00 2.59 -1.80 11.42 -2.38 1.02 -1.39 2616
0.00 0.00 2.12 -2.07 11.72 -2.33 1.15 -1.38 2623
0.00 0.00 1.76 -2.25 12.80 -2.26 1.27 -1.33 2630
0.00 0.00 1.46 -2.56 12.70 -2.20 1.36 -1.26 2637
0.00 0.00 1.19 -2.78 13.09 -2.13 1.42 -1.15 2644
0.00 0.00 0.99 -3.20 13.19 -2.07 1.46 -1.03 2652
0.00 0.00 0.92 -3.70 13.39 -2.02 1.46 -0.87 2659
0.00 0.00 0.95 -4.11 13.44 -1.97 1.45 -0.71 2666
0.00 0.00 1.02 -4.59 13.42 -1.93 1.42 -0.50 2673
0.00 0.00 1.35 -4.96 13.24 -1.90 1.38 -0.28 2680
0.00 0.00 1.26 -5.38 12.92 -1.85 1.34 -0.08 2688
0.00 0.00 1.28 -5.71 12.36 -1.78 1.31 0.12 2695
0.00 0.00 1.47 -5.98 11.96 -1.68 1.31 0.28 2702
0.00 0.00 1.52 -6.22 11.71 -1.54 1.28 0.41 2709
0.00 0.00 1.45 -6.39 11.32 -1.38 1.25 0.51 2716
0.00 0.00 1.38 -6.54 10.91 -1.18 1.25 0.56 2723
0.00 0.00 1.30 -6.67 10.73 -0.96 1.29 0.60 2731
0.00 0.00 1.42 -6.86 11.08 -0.78 1.36 0.62 2738
0.00 0.00 1.70 -6.84 11.54 -0.62 1.52 0.63 2745
0.00 0.00 1.73 -6.80 11.94 -0.54 1.74 0.65 2752
0.00 0.00 1.45 -6.82 12.10 -0.50 1.93 0.69 2759
0.00 0.00 5.04 -6.34 10.15 -0.21 2.14 0.90 2766
0.00 0.00 -0.63 -6.79 9.95 -0.43 1.88 0.95 2774
0.00 0.00 -6.87 -9.36 16.44 0.01 0.67 1.17 2781
0.00 0.00 -1.31 -6.12 6.47 -0.17 0.47 1.28 2788
0.00 0.00 -2.77 -9.71 9.93 -0.19 0.32 1.37 2795
0.00 0.00 -1.62 -10.42 10.07 -0.25 0.05 1.53 2802
0.00 0.00 -1.73 -9.81 9.60 -0.28 0.04 1.60 2809
0.00 0.00 -1.86 -10.46 9.10 -0.22 0.16 1.65 2817
0.00 0.00 -2.93 -10.43 8.80 -0.14 0.28 1.71 2824
0.00 0.00 -4.81 -10.50 7.90 -0.01 0.31 1.73 2831
0.00 0.00 -5.88 -11.12 7.79 0.09 0.25 1.69 2838
0.00 0.00 -6.20 -11.70 7.87 0.18 0.07 1.62 2845
0.00 0.00 -6.26 -11.64 7.50 0.24 -0.07 1.52 2852
0.00 -0.00 -6.96 -11.94 7.88 0.28 -0.29 1.36 2860
0.00 0.00 -7.60 -11.98 7.96 0.32 -0.48 1.18 2867
0.00 0.00 -7.63 -12.08 8.24 0.40 -0.67 1.09 2874
0.00 0.00 -5.78 -10.02 10.52 0.57 -0.49 1.14 2881
0.00 0.00 -9.49 -11.55 9.88 0.75 -0.52 1.25 2888
-0.00 0.01 -11.59 -10.72 8.93 0.95 -0.64 1.54 2896
-0.00 0.02 -11.49 -4.14 11.31 1.08 -0.70 1.83 2904
-0.00 0.01 -13.63 -2.26 13.49 0.34 -1.01 1.34 2911
-0.00 0.01 -12.39 -4.38 15.66 -0.01 -0.28 0.69 2917
-0.00 0.03 -3.88 -1.54 7.49 -0.23 -0.05 0.15 2924
-0.00 0.04 -1.33 -1.04 9.79 -0.28 0.03 -0.05 2931
-0.01 0.08 1.21 -0.48 10.92 -0.27 -0.03 -0.14 2938
-0.00 0.10 0.89 -0.72 10.98 -0.31 -0.04 -0.10 2946
-0.01 0.15 0.86 -1.01 10.47 -0.26 0.01 -0.06 2953
-0.01 0.14 0.52 -0.90 9.74 -0.15 0.05 -0.02 2960
-0.02 0.19 0.11 -0.83 9.83 -0.11 0.03 -0.03 2967
-0.02 0.16 0.06 -0.74 9.77 -0.10 0.02 -0.05 2974
0.01 0.17 0.32 -0.90 9.82 -0.09 0.01 -0.05 2981
0.03 0.19 0.54 -0.94 9.87 -0.09 -0.00 -0.03 2989
0.04 0.24 0.32 -0.84 9.96 -0.08 0.00 -0.05 2996
0.07 0.21 0.35 -0.78 9.82 -0.07 0.01 -0.05 3003
0.07 0.22 0.29 -0.83 9.85 -0.06 0.02 -0.06 3010
0.07 0.20 0.30 -0.86 9.84 -0.06 0.02 -0.06 3017
0.10 0.24 0.39 -0.82 9.89 -0.05 0.02 -0.07 3024
0.10 0.22 0.37 -0.74 9.81 -0.06 0.02 -0.08 3032
0.08 0.28 0.28 -0.74 9.81 -0.05 0.02 -0.07 3039
0.10 0.31 0.23 -0.76 9.82 -0.05 0.02 -0.07 3046
0.09 0.32 0.10 -0.74 9.77 -0.04 0.02 -0.07 3053
0.10 0.32 0.20 -0.74 9.84 -0.03 0.03 -0.06 3060
0.10 0.34 0.20 -0.73 9.83 -0.03 0.04 -0.06 3067
0.12 0.32 0.05 -0.77 10.23 -0.03 0.04 -0.05 3075
0.14 0.32 0.21 -0.73 9.81 -0.03 0.05 -0.05 3082
0.13 0.30 0.23 -0.71 9.87 -0.02 0.05 -0.05 3089
0.11 0.30 0.25 -0.74 9.83 -0.02 0.05 -0.06 3096
0.12 0.34 0.24 -0.73 9.83 -0.02 0.05 -0.06 3103
0.14 0.34 0.28 -0.73 9.83 -0.01 0.05 -0.05 3110
0.14 0.33 0.37 -0.70 9.83 -0.01 0.05 -0.05 3118
0.14 0.33 0.28 -0.73 9.81 -0.01 0.05 -0.06 3125
0.12 0.32 0.28 -0.72 9.82 -0.01 0.05 -0.06 3132
0.14 0.33 0.24 -0.74 9.82 -0.00 0.05 -0.05 3139
0.14 0.35 0.28 -0.73 9.83 -0.00 0.05 -0.06 3146
0.17 0.34 0.23 -0.69 9.81 0.00 0.05 -0.06 3153
0.15 0.32 0.24 -0.68 9.86 -0.00 0.05 -0.06 3161
0.14 0.31 0.25 -0.72 9.83 0.01 0.05 -0.05 3168
0.12 0.31 0.27 -0.74 9.82 0.01 0.05 -0.06 3175
0.14 0.29 0.25 -0.72 9.82 0.01 0.05 -0.06 3182
0.15 0.30 0.28 -0.72 9.79 0.01 0.04 -0.06 3189
0.17 0.28 0.27 -0.74 9.82 0.01 0.05 -0.06 3196
0.17 0.26 0.28 -0.74 9.81 0.01 0.04 -0.05 3204
0.16 0.24 0.25 -0.74 9.81 0.00 0.05 -0.06 3211
0.15 0.24 0.25 -0.75 9.77 0.00 0.04 -0.05 3218
0.17 0.23 0.24 -0.76 9.80 -0.00 0.04 -0.06 3225
0.18 0.22 0.28 -0.73 9.80 0.00 0.05 -0.06 3232
0.18 0.22 0.31 -0.74 9.79 0.00 0.05 -0.05 3239
0.18 0.22 0.29 -0.72 9.81 0.00 0.05 -0.05 3247
0.18 0.22 0.26 -0.74 9.79 -0.00 0.05 -0.06 3254
0.17 0.22 0.28 -0.76 9.79 0.00 0.05 -0.05 3261
0.18 0.22 0.27 -0.72 9.82 -0.00 0.05 -0.06 3268
0.19 0.21 0.30 -0.73 9.77 -0.00 0.05 -0.06 3275
0.19 0.22 0.28 -0.71 9.82 -0.01 0.05 -0.06 3282
0.18 0.21 0.26 -0.74 9.79 -0.00 0.05 -0.06 3290
0.18 0.20 0.26 -0.74 10.39 -0.01 0.05 -0.06 3297
0.18 0.20 0.28 -0.72 9.78 -0.00 0.06 -0.06 3304
0.18 0.19 0.27 -0.75 9.77 -0.01 0.06 -0.06 3311
0.19 0.18 0.29 -0.76 9.81 -0.01 0.06 -0.06 3318
0.19 0.18 0.31 -0.73 9.82 -0.00 0.05 -0.06 3325
0.19 0.17 0.25 -0.71 9.20 -0.01 0.05 -0.06 3333
0.18 0.17 0.28 -0.71 9.81 -0.00 0.05 -0.06 3340
0.18 0.18 0.30 -0.78 9.81 -0.00 0.05 -0.06 3347
0.18 0.20 0.27 -0.74 9.81 -0.00 0.06 -0.06 3354
0.20 0.17 0.26 -0.70 9.81 -0.00 0.06 -0.06 3361
0.19 0.16 0.27 -0.74 9.81 0.00 0.06 -0.06 3368
0.19 0.17 0.28 -0.76 9.81 0.00 0.06 -0.06 3376
0.17 0.19 0.27 -0.71 9.78 0.00 0.06 -0.06 3383
0.19 0.17 0.27 -0.71 9.81 0.01 0.06 -0.06 3390
0.19 0.16 0.31 -0.72 9.81 0.01 0.06 -0.06 3397
0.21 0.09 0.30 -0.73 9.77 0.01 0.06 -0.06 3404
0.19 0.08 0.31 -0.75 9.80 0.01 0.06 -0.06 3411
0.20 0.04 0.29 -0.75 9.82 0.01 0.06 -0.06 3419
0.20 0.08 0.26 -0.75 9.81 0.02 0.06 -0.06 3426
0.21 0.05 0.31 -0.74 9.82 0.01 0.06 -0.06 3433
0.22 0.03 0.28 -0.75 9.80 0.02 0.06 -0.06 3440
0.24 -0.00 0.29 -0.74 9.81 0.01 0.06 -0.06 3447
0.25 -0.01 0.32 -0.76 9.76 0.01 0.06 -0.06 3454
0.26 -0.00 0.31 -0.76 9.81 0.02 0.06 -0.06 3462
0.26 -0.01 0.30 -0.78 9.81 0.01 0.06 -0.06 3469
0.29 0.00 0.34 -0.80 9.78 0.01 0.06 -0.06 3476
0.31 -0.01 0.33 -0.79 9.81 0.02 0.06 -0.05 3483
0.31 -0.02 0.33 -0.74 9.83 0.02 0.06 -0.06 3490
0.32 -0.01 0.35 -0.72 9.84 0.03 0.06 -0.06 3497
0.33 -0.02 0.37 -0.80 9.84 0.03 0.06 -0.05 3505
0.32 -0.02 0.32 -0.76 9.81 0.04 0.06 -0.06 3512
0.34 -0.01 0.20 -0.69 9.84 0.05 0.06 -0.05 3519
0.36 -0.02 0.28 -0.82 9.91 0.05 0.06 -0.06 3526
0.35 -0.03 0.29 -0.86 9.81 0.06 0.07 -0.06 3533
0.39 -0.03 0.32 -0.87 9.85 0.07 0.07 -0.06 3540
0.43 -0.03 0.41 -0.80 9.94 0.08 0.08 -0.06 3548
0.51 -0.03 0.32 -0.94 9.82 0.10 0.09 -0.06 3555
0.51 -0.01 0.33 -0.79 9.89 0.13 0.11 -0.07 3562
0.56 -0.03 0.49 -0.86 9.92 0.16 0.14 -0.09 3569
0.57 -0.01 0.57 -0.65 10.00 0.21 0.20 -0.11 3576
0.58 -0.04 0.30 -0.51 10.79 0.33 0.31 -0.12 3585
0.57 -0.03 0.48 -1.09 10.49 0.82 0.41 -0.10 3591
0.57 -0.03 0.75 -1.00 10.66 1.16 0.39 -0.12 3599
0.58 -0.02 0.78 -1.42 14.01 1.28 0.42 -0.17 3606
0.57 -0.03 0.52 -1.31 11.93 1.33 0.33 -0.21 3613
0.55 -0.03 0.55 -1.24 11.97 1.48 0.29 -0.22 3620
0.55 -0.04 0.47 -1.45 11.70 1.63 0.24 -0.22 3628
0.50 -0.03 0.62 -1.65 11.77 1.76 0.16 -0.20 3635
0.47 -0.02 0.49 -1.36 12.81 1.92 0.10 -0.19 3642
0.45 -0.02 0.76 -1.64 12.20 2.13 0.09 -0.20 3649
0.43 -0.01 0.33 -1.90 11.92 2.25 0.03 -0.21 3655
0.44 -0.00 -0.04 -2.09 12.34 2.34 0.01 -0.20 3662
0.40 -0.02 0.44 -1.96 11.86 2.39 0.02 -0.17 3671
0.35 -0.02 0.31 -2.26 11.48 2.52 0.20 -0.17 3678
0.25 -0.02 -0.06 -2.68 11.02 2.62 0.23 -0.14 3685
0.25 -0.02 0.44 -2.82 11.09 2.69 0.31 -0.10 3691
0.22 -0.02 0.04 -2.53 11.84 2.77 0.42 -0.07 3698
0.13 -0.01 0.03 -3.43 11.52 2.87 0.56 -0.03 3705
0.14 -0.01 -0.06 -3.88 12.50 2.94 0.69 0.01 3713
0.11 -0.01 -0.26 -4.50 12.62 3.01 0.83 0.07 3720
0.08 0.00 0.06 -4.66 13.20 3.05 0.96 0.14 3727
0.09 -0.01 0.45 -5.32 13.78 3.06 1.10 0.20 3734
0.07 -0.01 0.59 -5.48 13.84 3.05 1.22 0.26 3741
0.06 -0.01 -0.32 -5.68 13.59 3.01 1.31 0.31 3748
0.05 -0.00 -0.27 -5.91 12.79 2.99 1.21 0.36 3756
0.05 -0.01 -0.58 -6.16 12.67 2.97 1.02 0.40 3763
0.04 -0.00 -0.07 -5.11 12.04 2.95 0.92 0.42 3770
0.05 -0.01 1.52 -5.47 11.37 2.89 0.80 0.44 3777
0.05 -0.00 0.92 -5.00 12.15 2.71 0.88 0.47 3784
0.03 -0.00 0.99 -5.14 12.94 2.57 0.90 0.45 3791
0.01 -0.00 0.97 -5.11 11.99 2.52 0.85 0.42 3799
0.02 -0.00 0.95 -4.89 12.95 2.47 0.71 0.40 3806
0.02 -0.00 0.51 -3.59 13.58 2.37 0.53 0.38 3813
0.02 -0.00 -0.41 1.05 13.84 2.18 0.24 0.30 3820
0.02 -0.00 -0.66 4.16 9.89 1.91 0.02 0.20 3827
0.01 -0.00 -0.42 7.35 8.76 1.47 -0.27 0.05 3834
0.01 -0.00 -2.08 10.31 6.50 0.93 -0.46 -0.49 3842
0.02 -0.00 0.51 6.88 3.68 0.38 -0.64 -1.07 3849
0.04 -0.00 -1.26 7.63 9.83 -0.16 -0.69 -1.53 3856
0.03 -0.00 -0.98 6.70 10.50 -0.62 -0.45 -2.04 3863
0.03 -0.00 -0.65 5.94 9.41 -0.89 -0.47 -2.42 3870
0.02 -0.00 -1.33 5.68 8.05 -1.03 -0.63 -2.75 3877
0.01 -0.00 -0.87 5.69 7.08 -1.20 -0.76 -2.99 3885
0.01 -0.00 -0.12 5.30 6.82 -1.37 -0.96 -3.20 3892
0.02 -0.00 0.42 4.81 6.81 -1.51 -1.12 -3.34 3899
0.01 -0.00 1.18 4.50 6.98 -1.68 -1.24 -3.41 3906
0.01 -0.00 2.11 4.05 7.19 -1.85 -1.29 -3.44 3913
0.00 0.00 2.86 3.76 7.02 -1.96 -1.27 -3.42 3920
0.00 0.00 3.55 3.30 8.07 -2.10 -1.25 -3.34 3928
0.00 0.00 3.90 2.75 8.29 -2.22 -1.19 -3.24 3935
0.00 -0.00 4.60 2.21 8.92 -2.36 -1.08 -3.12 3942
0.00 -0.00 5.48 1.54 9.40 -2.53 -0.93 -2.94 3949
0.00 -0.00 5.97 1.08 9.70 -2.65 -0.77 -2.77 3956
0.00 0.00 6.27 0.54 9.67 -2.77 -0.55 -2.55 3963
0.00 0.00 6.49 -0.09 9.58 -2.84 -0.32 -2.32 3971
0.00 0.00 6.71 -0.62 9.48 -2.87 -0.10 -2.13 3978
0.00 0.00 6.60 -1.13 9.44 -2.85 0.16 -1.91 3985
0.00 0.00 6.46 -1.70 9.54 -2.78 0.38 -1.72 3992
0.00 0.00 6.06 -2.23 9.93 -2.68 0.62 -1.57 3999
0.00 0.00 5.54 -2.72 10.36 -2.59 0.79 -1.42 4006
0.00 0.00 5.04 -3.05 10.86 -2.50 0.91 -1.28 4014
0.00 0.00 4.61 -3.39 11.64 -2.42 1.01 -1.11 4021
0.00 0.00 4.29 -3.63 12.45 -2.37 1.07 -0.95 4028
0.00 0.00 3.93 -3.94 12.85 -2.34 1.16 -0.78 4035
0.00 0.00 3.70 -4.31 13.22 -2.32 1.26 -0.57 4042
0.00 0.00 3.38 -4.77 13.42 -2.29 1.34 -0.39 4049
0.00 0.00 2.97 -5.52 13.53 -2.25 1.41 -0.16 4057
0.00 0.00 2.56 -6.08 13.51 -2.19 1.47 0.08 4064
0.00 0.00 2.21 -6.44 13.55 -2.11 1.50 0.30 4071
0.00 0.00 1.98 -6.66 13.34 -2.03 1.52 0.55 4078
0.00 0.00 1.79 -6.71 13.22 -1.93 1.55 0.81 4085
0.00 0.00 1.49 -6.69 13.09 -1.83 1.60 1.05 4092
0.00 0.00 1.13 -6.70 12.70 -1.75 1.63 1.31 4100
0.00 0.00 0.75 -6.82 12.71 -1.65 1.64 1.54 4107
0.00 0.00 0.44 -7.08 12.85 -1.56 1.59 1.76 4114
0.00 0.00 0.20 -7.37 12.87 -1.43 1.51 1.93 4121
0.00 0.00 -0.14 -7.80 12.70 -1.30 1.40 2.03 4128
0.00 0.00 -0.35 -8.34 12.33 -1.18 1.27 2.08 4135
-0.00 0.00 -0.69 -8.70 11.73 -1.01 1.16 2.07 4143
0.00 0.00 -0.85 -8.90 11.36 -0.81 1.09 2.01 4150
0.00 0.00 -0.88 -8.93 11.40 -0.66 1.13 1.92 4157
0.00 0.00 -0.53 -9.07 11.68 -0.53 1.27 1.80 4164
0.00 0.00 -0.26 -9.30 11.77 -0.48 1.46 1.64 4171
0.00 0.00 -0.47 -9.35 11.88 -0.48 1.61 1.45 4178
0.00 0.00 -0.84 -9.32 11.96 -0.51 1.74 1.30 4186
0.00 0.00 -1.29 -9.23 11.80 -0.55 1.75 1.11 4193
0.00 0.00 -5.59 -13.78 19.26 -0.43 1.26 0.96 4200
0.00 0.00 -1.24 -7.80 7.84 -0.43 1.06 0.82 4207
0.00 0.00 -2.83 -9.39 8.95 -0.49 0.95 0.68 4214
0.00 0.00 -3.47 -9.97 8.91 -0.46 0.73 0.59 4221
0.00 0.00 -2.62 -8.94 8.72 -0.40 0.70 0.46 4229
0.00 0.00 -3.22 -9.36 8.15 -0.31 0.67 0.37 4236
0.00 0.00 -4.04 -9.78 8.35 -0.22 0.59 0.30 4243
0.00 0.00 -3.59 -9.60 8.68 -0.14 0.52 0.24 4250
0.00 0.00 -4.65 -9.77 7.99 -0.06 0.40 0.23 4257
0.00 0.00 -4.57 -9.80 8.67 0.02 0.24 0.26 4264
0.00 -0.00 -5.01 -9.54 8.24 0.07 0.07 0.30 4272
0.00 0.00 -5.15 -9.74 8.02 0.14 -0.17 0.36 4279
0.00 0.00 -6.10 -9.81 7.60 0.20 -0.43 0.44 4286
0.00 0.00 -5.76 -9.85 7.28 0.31 -0.74 0.51 4293
0.00 0.00 -6.47 -10.06 6.58 0.42 -1.10 0.59 4300
0.00 0.00 -7.02 -10.15 6.43 0.55 -1.47 0.69 4307
0.00 0.00 -8.78 -11.11 6.28 0.70 -1.98 0.75 4315
0.00 0.00 -8.84 -15.09 7.91 0.96 -2.29 1.01 4322
-0.00 0.01 -2.71 -4.80 10.97 1.58 -1.12 1.30 4329
-0.00 0.04 -8.60 -4.28 9.39 1.51 -0.89 1.07 4336
-0.01 0.07 -9.68 -0.08 13.08 1.34 -1.20 0.36 4343
-0.02 0.20 -2.02 -1.36 16.63 -0.35 -1.07 -0.09 4350
-0.02 0.26 0.10 0.07 9.78 -0.22 -0.06 -0.08 4358
-0.02 0.26 -0.37 -1.03 10.49 -0.12 -0.10 -0.17 4366
-0.02 0.32 0.88 -1.55 10.16 -0.03 -0.06 -0.12 4373
-0.04 0.40 0.03 -1.16 10.24 0.00 -0.04 -0.04 4379
-0.03 0.40 0.01 -1.02 10.16 -0.01 -0.02 -0.04 4386
-0.02 0.37 0.24 -0.86 9.89 -0.01 0.01 -0.05 4393
-0.02 0.37 0.46 -0.91 9.81 -0.01 0.03 -0.04 4401
-0.02 0.38 0.42 -0.98 9.85 -0.01 0.02 -0.04 4408
-0.02 0.35 0.35 -0.94 9.82 -0.01 0.02 -0.04 4415
-0.02 0.36 0.41 -0.90 9.21 -0.01 0.02 -0.04 4422
-0.01 0.38 0.46 -0.92 9.77 -0.01 0.02 -0.05 4429
0.02 0.38 0.36 -0.88 9.74 -0.02 0.01 -0.06 4436
0.00 0.39 0.35 -0.88 9.79 -0.02 0.01 -0.06 4444
0.01 0.39 0.33 -0.86 9.75 -0.02 0.01 -0.06 4451
0.02 0.38 0.31 -0.86 9.77 -0.03 0.02 -0.07 4458
0.00 0.41 0.28 -0.86 9.80 -0.03 0.03 -0.07 4465
0.02 0.42 0.27 -0.87 9.79 -0.03 0.04 -0.07 4472
0.03 0.48 0.27 -0.80 9.80 -0.03 0.06 -0.06 4480
0.05 0.46 0.29 -0.88 9.82 -0.03 0.07 -0.06 4487
0.05 0.43 0.31 -0.86 9.83 -0.02 0.07 -0.05 4494
0.05 0.42 0.34 -0.87 9.81 -0.02 0.08 -0.06 4501
0.05 0.41 0.38 -0.89 9.81 -0.02 0.07 -0.05 4508
0.06 0.41 0.39 -0.88 9.82 -0.01 0.07 -0.06 4515
0.07 0.41 0.40 -0.86 9.79 -0.01 0.07 -0.06 4523
0.07 0.39 0.41 -0.86 9.79 -0.01 0.06 -0.06 4530
0.07 0.38 0.40 -0.86 9.82 -0.00 0.06 -0.07 4537
0.05 0.38 0.39 -0.84 9.82 0.00 0.05 -0.07 4544
0.05 0.37 0.41 -0.86 9.21 0.00 0.05 -0.06 4551
0.04 0.37 0.38 -0.86 9.81 0.00 0.04 -0.07 4558
0.05 0.37 0.37 -0.89 9.75 0.00 0.04 -0.07 4566
0.05 0.36 0.38 -0.86 9.81 0.00 0.04 -0.07 4573
0.05 0.34 0.39 -0.87 9.81 0.00 0.04 -0.07 4580
0.05 0.35 0.33 -0.86 9.85 0.01 0.04 -0.07 4587
0.06 0.33 0.35 -0.86 9.82 0.00 0.05 -0.06 4594
0.07 0.34 0.36 -0.89 9.81 0.00 0.05 -0.06 4601
0.07 0.31 0.36 -0.90 9.79 0.00 0.05 -0.07 4609
0.06 0.29 0.37 -0.86 9.79 0.00 0.05 -0.07 4616
0.07 0.26 0.35 -0.87 9.82 0.00 0.05 -0.03 4623
0.05 0.28 0.40 -0.87 9.81 0.00 0.05 -0.06 4630
0.06 0.28 0.38 -0.87 9.72 0.00 0.05 -0.07 4637
0.08 0.27 0.34 -0.87 9.78 0.00 0.06 -0.07 4644
0.07 0.23 0.38 -0.86 9.76 0.03 0.06 -0.07 4652
0.07 0.24 0.37 -0.85 9.82 0.00 0.06 -0.07 4659
0.06 0.24 0.39 -0.89 9.77 -0.00 0.06 -0.07 4666
0.07 0.25 0.39 -0.89 9.75 -0.00 0.06 -0.07 4673
0.07 0.26 0.37 -0.91 9.79 -0.00 0.06 -0.07 4680
0.08 0.29 0.38 -0.86 9.80 -0.00 0.06 -0.07 4687
0.08 0.25 0.38 -0.90 9.80 -0.00 0.07 -0.07 4695
0.08 0.22 0.41 -0.89 9.77 -0.00 0.07 -0.08 4702
0.07 0.25 0.36 -0.87 9.79 -0.00 0.07 -0.07 4709
0.06 0.26 0.40 -0.88 9.78 0.00 0.07 -0.07 4716
0.07 0.26 0.41 -0.86 9.81 0.00 0.07 -0.07 4723
0.09 0.21 0.40 -0.88 9.81 0.00 0.07 -0.07 4730
0.09 0.20 0.42 -0.89 9.78 0.00 0.07 -0.07 4738
0.09 0.17 0.37 -0.89 9.81 0.00 0.06 -0.07 4745
0.08 0.18 0.39 -0.86 9.81 0.01 0.06 -0.08 4752
0.10 0.18 0.41 -0.90 9.81 0.01 0.06 -0.07 4759
0.10 0.16 0.40 -0.93 9.78 0.00 0.06 -0.07 4766
0.10 0.16 0.40 -0.89 9.82 0.00 0.06 -0.07 4773
0.10 0.13 0.43 -0.92 9.80 0.00 0.06 -0.07 4781
0.10 0.14 0.42 -0.85 9.80 0.00 0.05 -0.07 4788
0.09 0.13 0.45 -0.91 9.79 -0.00 0.05 -0.07 4795
0.11 0.11 0.42 -0.87 9.79 0.00 0.05 -0.08 4802
0.12 0.09 0.41 -0.91 10.42 0.00 0.04 -0.08 4809
0.12 0.13 0.42 -0.91 9.78 0.00 0.04 -0.08 4816
0.12 0.05 0.40 -0.91 9.80 0.00 0.03 -0.08 4824
0.12 0.04 0.42 -0.90 9.81 0.01 0.03 -0.08 4831
0.11 0.02 0.44 -0.89 9.78 0.01 0.03 -0.08 4838
0.12 0.04 0.44 -0.90 9.70 0.01 0.02 -0.07 4845
0.13 0.04 0.42 -0.93 9.80 0.00 0.02 -0.07 4852
0.14 0.02 0.41 -0.88 9.75 0.00 0.02 -0.08 4859
0.15 -0.00 0.42 -0.90 9.79 0.00 0.03 -0.08 4867
0.15 0.00 0.41 -0.92 9.80 0.00 0.03 -0.08 4874
0.16 -0.01 0.42 -0.88 9.82 0.00 0.03 -0.08 4881
0.16 0.02 0.41 -0.90 9.77 0.01 0.03 -0.08 4888
0.16 0.01 0.40 -0.93 9.80 0.01 0.03 -0.08 4895
0.19 -0.01 0.40 -0.93 10.40 0.01 0.03 -0.08 4902
0.18 -0.01 0.40 -0.89 9.80 0.02 0.04 -0.08 4910
0.20 -0.01 0.36 -0.90 9.79 0.02 0.04 -0.08 4917
0.21 -0.00 0.41 -0.85 9.83 0.03 0.04 -0.08 4924
0.22 0.01 0.45 -0.92 9.85 0.03 0.05 -0.08 4931
0.25 -0.01 0.40 -0.85 9.81 0.04 0.05 -0.08 4938
0.25 -0.02 0.44 -0.97 9.82 0.05 0.06 -0.09 4945
0.26 -0.03 0.48 -0.91 9.87 0.06 0.06 -0.09 4953
0.28 -0.03 0.44 -0.97 9.82 0.06 0.07 -0.09 4960
0.29 -0.02 0.43 -0.98 9.85 0.08 0.08 -0.10 4967
0.32 -0.01 0.42 -0.93 9.88 0.09 0.10 -0.10 4974
0.34 -0.01 0.71 -0.93 9.89 0.12 0.12 -0.13 4981
0.35 -0.01 0.14 -0.99 10.07 0.15 0.22 -0.18 4988
0.37 -0.02 0.77 -0.94 10.04 0.27 0.36 -0.19 4997
0.40 -0.03 0.64 -0.51 10.78 0.68 0.54 -0.18 5004
0.43 -0.02 1.00 -1.20 10.00 1.10 0.59 -0.15 5011
0.46 -0.02 0.93 -1.52 11.52 1.45 0.59 -0.17 5018
0.44 -0.02 0.94 -1.46 13.03 1.54 0.43 -0.23 5025
0.40 -0.02 0.78 -1.32 13.37 1.60 0.24 -0.25 5031
0.40 -0.03 0.64 -1.48 12.98 1.83 0.17 -0.27 5039
0.39 -0.01 0.46 -1.53 11.92 2.04 0.21 -0.27 5047
0.36 -0.01 0.68 -1.71 11.81 2.20 0.26 -0.26 5054
0.31 -0.02 0.06 -1.71 11.55 2.32 0.30 -0.24 5061
0.27 -0.02 -0.45 -0.97 10.73 2.40 0.30 -0.22 5068
0.19 0.00 0.62 -2.18 13.43 2.51 0.50 -0.20 5074
0.16 0.01 0.16 -2.37 12.39 2.67 0.67 -0.17 5083
0.13 -0.00 0.19 -2.53 12.78 2.79 0.80 -0.11 5090
0.11 -0.01 0.30 -2.98 12.58 2.83 1.04 -0.07 5097
0.11 -0.01 0.44 -3.20 12.82 2.91 1.16 -0.03 5104
0.07 -0.01 0.42 -3.58 12.65 2.93 1.25 0.03 5110
0.07 -0.01 0.45 -4.48 13.22 2.93 1.31 0.09 5117
0.06 0.00 1.14 -4.72 13.14 2.89 1.41 0.16 5125
0.08 0.00 1.92 -4.92 13.47 2.86 1.54 0.17 5132
0.07 -0.01 1.72 -4.83 13.66 2.78 1.65 0.16 5139
0.08 -0.01 2.10 -4.40 12.66 2.68 1.65 0.13 5146
0.05 -0.00 3.78 -5.12 12.52 2.59 1.83 0.13 5153
0.05 -0.01 3.35 -4.35 12.50 2.48 2.12 0.09 5160
0.02 -0.00 2.31 -4.12 12.26 2.43 2.28 0.00 5168
0.01 -0.00 0.09 -3.58 12.90 2.33 2.21 -0.08 5175
0.02 -0.00 -0.90 -2.14 12.43 2.18 1.89 -0.14 5182
0.03 -0.00 -1.70 -0.80 11.67 2.02 1.42 -0.16 5189
0.03 -0.00 -2.79 2.87 11.05 1.78 0.92 -0.22 5196
0.03 -0.00 -2.35 3.62 10.15 1.46 0.30 -0.35 5203
0.01 -0.00 -2.38 6.34 9.82 1.16 -0.06 -0.64 5211
0.02 -0.00 -3.66 5.53 8.56 0.79 -0.34 -1.13 5218
0.02 -0.00 -2.23 4.17 8.03 0.49 -0.61 -1.66 5225
0.00 0.00 -3.15 4.78 9.97 0.10 -0.76 -1.98 5232
0.00 0.00 -2.87 4.99 9.49 -0.35 -0.84 -2.38 5239
0.00 0.00 -2.45 4.49 8.33 -0.61 -1.00 -2.69 5246
0.00 0.00 -2.28 3.74 7.94 -0.79 -1.21 -2.89 5254
0.00 -0.00 -1.93 3.18 7.52 -0.92 -1.38 -3.07 5261
0.01 -0.00 -1.51 2.87 6.94 -1.02 -1.53 -3.23 5268
0.00 0.00 -1.10 2.48 6.61 -1.08 -1.68 -3.30 5275
0.00 0.00 -0.69 2.13 6.80 -1.12 -1.79 -3.36 5282
0.00 0.00 -0.03 1.80 7.21 -1.18 -1.87 -3.39 5289
0.00 0.00 1.06 1.52 7.88 -1.29 -1.85 -3.41 5297
0.00 0.00 2.17 1.39 8.65 -1.38 -1.72 -3.37 5304
0.00 -0.00 3.18 1.30 9.00 -1.57 -1.45 -3.39 5311
0.00 0.00 3.86 1.03 9.26 -1.78 -1.12 -3.36 5318
0.00 0.00 4.33 0.72 9.27 -2.03 -0.79 -3.31 5325
0.00 0.00 4.54 0.06 9.22 -2.28 -0.48 -3.24 5332
0.00 0.00 4.51 -1.17 9.19 -2.43 -0.29 -3.15 5340
0.00 0.00 4.34 -1.44 9.20 -2.53 -0.18 -3.04 5347
0.00 0.00 4.19 -2.50 9.13 -2.56 -0.18 -2.88 5354
0.00 0.00 4.25 -3.48 9.04 -2.52 -0.23 -2.71 5361
0.00 0.00 4.48 -4.34 8.71 -2.44 -0.33 -2.47 5368
0.00 0.00 4.88 -4.97 8.83 -2.35 -0.40 -2.20 5376
0.00 0.00 5.43 -5.59 8.97 -2.24 -0.52 -1.95 5383
0.00 0.00 5.94 -6.08 8.95 -2.12 -0.61 -1.60 5390
0.00 0.00 6.53 -6.29 8.91 -1.98 -0.61 -1.26 5397
0.00 0.00 7.14 -6.29 9.13 -1.81 -0.54 -0.82 5404
0.00 0.00 7.42 -6.01 9.42 -1.67 -0.39 -0.36 5411
0.00 0.00 7.81 -5.70 9.82 -1.53 -0.10 0.03 5419
0.00 0.00 8.23 -5.17 10.16 -1.45 0.26 0.49 5426
0.00 0.00 7.94 -4.72 10.26 -1.41 0.59 0.94 5433
0.00 0.00 7.44 -4.17 10.61 -1.40 0.99 1.31 5440
0.00 0.00 6.54 -4.10 10.97 -1.40 1.31 1.70 5447
0.00 0.00 5.53 -4.05 11.18 -1.39 1.55 1.99 5454
0.00 0.00 4.27 -4.18 11.30 -1.36 1.71 2.26 5462
0.00 0.00 3.14 -4.33 11.25 -1.31 1.77 2.47 5469
0.00 0.00 2.04 -4.62 11.23 -1.26 1.76 2.59 5476
0.00 0.00 1.04 -4.84 11.37 -1.22 1.69 2.66 5483
0.00 0.00 0.55 -5.01 11.50 -1.17 1.59 2.67 5490
0.00 0.00 0.18 -5.05 11.56 -1.14 1.45 2.59 5497
0.00 0.00 0.03 -5.13 11.77 -1.12 1.32 2.45 5505
0.00 0.00 -0.01 -4.95 11.67 -1.11 1.19 2.29 5512
0.00 0.00 0.21 -4.87 11.87 -1.11 1.08 2.08 5519
0.00 0.00 0.52 -4.88 11.93 -1.11 1.02 1.89 5526
0.00 0.00 0.83 -4.62 11.81 -1.12 0.98 1.66 5533
0.00 0.00 1.01 -4.51 11.95 -1.12 0.98 1.44 5540
0.00 0.00 1.05 -4.49 12.03 -1.12 0.99 1.27 5548
0.00 0.00 1.08 -4.63 12.09 -1.11 1.03 1.09 5555
0.00 0.00 1.03 -4.93 11.92 -1.09 1.06 0.92 5562
0.00 0.00 0.85 -5.28 11.95 -1.06 1.08 0.80 5569
0.00 0.00 0.65 -5.35 11.43 -1.01 1.09 0.67 5576
0.00 0.00 0.43 -5.52 11.30 -0.94 1.11 0.58 5583
0.00 0.00 0.12 -5.60 11.17 -0.84 1.15 0.52 5591
0.00 0.00 -0.18 -5.52 11.09 -0.79 1.22 0.51 5598
0.00 0.00 -0.78 -5.61 11.01 -0.74 1.27 0.55 5605
0.00 0.00 -1.23 -5.78 11.04 -0.71 1.29 0.63 5612
0.00 0.00 -1.61 -6.12 10.48 -0.68 1.26 0.72 5619
0.00 0.00 -2.07 -6.56 10.99 -0.66 1.18 0.84 5626
0.00 0.00 -2.31 -7.12 10.71 -0.62 1.11 0.98 5634
0.00 0.00 -2.35 -7.74 10.40 -0.58 1.00 1.09 5641
0.00 0.00 -9.76 -8.58 7.58 -0.21 0.26 1.22 5648
0.00 0.00 -3.95 -7.21 6.38 -0.30 0.01 1.27 5655
0.00 0.00 -3.26 -10.63 9.24 -0.20 -0.20 1.36 5662
0.00 0.00 -2.01 -10.61 8.69 -0.15 -0.33 1.43 5669
0.00 0.00 -1.30 -10.90 9.07 -0.03 -0.23 1.43 5677
0.00 0.00 -1.76 -11.49 8.81 0.05 -0.10 1.41 5684
0.00 0.00 -3.18 -11.15 8.66 0.12 -0.05 1.39 5691
0.00 0.00 -4.66 -11.85 7.95 0.20 -0.09 1.37 5698
0.00 0.00 -6.10 -11.99 7.27 0.30 -0.21 1.36 5705
0.00 0.00 -6.58 -12.29 6.24 0.45 -0.46 1.35 5712
0.00 0.00 -6.70 -13.01 6.05 0.67 -0.68 1.35 5720
0.00 0.00 -6.87 -13.79 5.51 0.89 -0.93 1.34 5727
-0.00 0.00 -8.14 -14.73 7.46 1.33 -0.91 1.45 5734
0.00 0.00 -9.60 -10.28 10.10 1.69 -1.12 1.63 5741
-0.00 0.00 -8.31 -2.65 9.34 1.91 -1.37 1.21 5748
-0.00 0.02 -22.76 -9.96 39.34 1.65 -1.90 0.61 5756
-0.01 0.05 2.68 -1.57 6.68 -0.28 -0.05 -0.03 5763
-0.01 0.07 0.48 -2.50 11.70 -0.52 -0.06 -0.09 5770
-0.01 0.15 -0.37 -0.61 9.70 -0.26 -0.04 -0.17 5777
-0.01 0.18 0.46 -1.07 10.23 -0.16 -0.05 -0.19 5785
-0.02 0.21 1.37 -1.56 9.89 -0.10 -0.05 -0.11 5791
-0.02 0.23 0.34 -1.39 10.22 -0.08 -0.05 -0.04 5798
-0.01 0.22 -0.02 -1.09 10.08 -0.08 -0.02 -0.05 5806
-0.02 0.25 0.34 -0.90 9.83 -0.05 0.02 -0.06 5813
-0.02 0.27 0.61 -0.99 9.85 -0.04 0.04 -0.05 5820
-0.02 0.27 0.38 -0.99 9.82 -0.04 0.04 -0.05 5827
-0.02 0.29 0.34 -0.90 9.81 -0.07 0.06 -0.05 5834
-0.01 0.31 0.49 -0.95 9.75 -0.03 0.06 -0.05 5841
0.01 0.25 0.51 -0.96 9.81 -0.03 0.06 -0.05 5849
0.00 0.25 0.44 -0.94 9.77 -0.03 0.06 -0.05 5856
0.01 0.26 0.52 -0.97 9.77 -0.03 0.05 -0.05 5863
0.01 0.31 0.47 -0.91 9.75 -0.03 0.04 -0.06 5870
0.01 0.32 0.49 -0.91 9.67 -0.04 0.03 -0.06 5877
0.03 0.37 0.40 -0.99 9.81 -0.05 0.03 -0.06 5884
0.03 0.38 0.48 -0.93 9.73 -0.05 0.02 -0.07 5892
0.00 0.41 0.55 -0.84 9.77 -0.05 0.02 -0.08 5899
0.02 0.38 0.49 -0.94 9.70 -0.04 0.03 -0.08 5906
0.01 0.44 0.40 -0.90 9.79 -0.04 0.04 -0.08 5913
0.04 0.46 0.38 -0.91 9.82 -0.03 0.06 -0.07 5920
0.05 0.49 0.37 -0.92 9.82 -0.03 0.07 -0.06 5927
0.06 0.46 0.41 -0.90 9.82 -0.03 0.08 -0.06 5935
0.05 0.42 0.46 -0.92 9.82 -0.02 0.08 -0.06 5942
0.06 0.42 0.48 -0.92 9.79 -0.02 0.08 -0.07 5949
0.04 0.45 0.51 -0.86 9.81 -0.01 0.08 -0.07 5956
0.05 0.45 0.50 -0.89 9.82 0.00 0.08 -0.07 5963
0.07 0.46 0.48 -0.90 9.83 0.01 0.07 -0.07 5970
0.04 0.43 0.46 -0.92 9.82 0.01 0.08 -0.08 5978
0.05 0.40 0.57 -0.87 9.83 0.00 0.08 -0.08 5985
0.05 0.39 0.49 -0.89 9.83 0.01 0.08 -0.08 5992
0.05 0.37 0.46 -0.93 9.81 0.01 0.08 -0.07 5999
0.06 0.35 0.43 -0.91 9.81 0.01 0.08 -0.08 6006
0.07 0.33 0.45 -0.89 9.79 0.01 0.09 -0.08 6013
0.08 0.31 0.48 -0.99 9.82 0.01 0.10 -0.07 6021
0.08 0.31 0.49 -0.92 9.82 0.01 0.10 -0.08 6028
0.08 0.29 0.51 -0.93 9.79 0.01 0.11 -0.07 6035
0.08 0.26 0.43 -0.89 9.84 0.01 0.11 -0.07 6042
0.08 0.24 0.51 -0.90 9.79 0.01 0.10 -0.08 6049
0.10 0.22 0.51 -0.94 9.79 0.01 0.10 -0.08 6056
0.08 0.19 0.50 -0.94 9.78 0.02 0.10 -0.07 6064
0.08 0.21 0.51 -0.95 9.77 0.02 0.10 -0.07 6071
0.07 0.20 0.51 -0.94 9.79 0.02 0.11 -0.08 6078
0.07 0.16 0.56 -0.95 9.80 0.01 0.11 -0.08 6085
0.07 0.16 0.54 -0.92 9.81 0.02 0.11 -0.07 6092
0.09 0.18 0.51 -0.91 9.82 0.02 0.11 -0.08 6099
0.09 0.12 0.57 -0.91 9.79 0.01 0.10 -0.08 6107
0.09 0.07 0.57 -0.93 9.77 0.02 0.10 -0.08 6114
0.09 0.07 0.57 -0.96 10.35 0.01 0.10 -0.08 6121
0.10 0.05 0.59 -0.92 9.78 0.01 0.09 -0.07 6128
0.11 0.04 0.63 -0.94 9.81 0.01 0.09 -0.07 6135
0.12 0.04 0.56 -0.96 9.77 0.00 0.09 -0.08 6142
0.12 0.02 0.56 -0.93 9.80 0.01 0.08 -0.07 6150
0.11 0.01 0.63 -0.93 9.80 0.01 0.08 -0.07 6157
0.11 0.02 0.59 -0.94 9.81 0.01 0.08 -0.07 6164
0.12 0.04 0.56 -0.92 9.78 0.01 0.08 -0.08 6171
0.13 0.04 0.60 -0.96 9.78 0.01 0.08 -0.08 6178
0.13 0.01 0.60 -0.95 9.80 0.01 0.08 -0.07 6185
0.11 0.01 0.59 -0.96 9.80 0.01 0.08 -0.07 6193
0.12 -0.00 0.60 -0.97 9.78 0.01 0.08 -0.08 6200
0.12 0.00 0.59 -0.96 9.80 0.00 0.08 -0.07 6207
0.12 0.02 0.65 -0.95 9.81 0.01 0.08 -0.08 6214
0.13 0.02 0.62 -0.95 9.80 0.01 0.07 -0.08 6221
0.13 0.00 0.65 -0.95 9.80 0.01 0.07 -0.08 6228
0.13 0.00 0.65 -0.97 9.80 0.01 0.07 -0.08 6236
0.13 -0.00 0.63 -0.97 9.80 0.01 0.06 -0.08 6243
0.14 -0.00 0.63 -0.98 9.81 0.01 0.06 -0.08 6250
0.13 0.01 0.64 -0.94 9.78 0.01 0.07 -0.08 6257
0.14 0.00 0.60 -1.00 9.77 0.01 0.07 -0.08 6264
0.14 0.00 0.64 -0.95 9.77 0.01 0.09 -0.08 6272
0.14 -0.01 0.65 -0.98 9.80 0.02 0.13 -0.08 6279
0.12 -0.01 0.65 -0.96 9.79 0.02 0.11 -0.08 6286
0.13 -0.00 0.86 -1.12 9.78 0.03 0.11 -0.08 6293
0.13 0.01 1.22 -1.02 9.77 0.03 0.12 -0.08 6300
0.13 -0.01 0.70 -0.98 9.81 0.04 0.13 -0.08 6307
0.12 -0.01 0.60 -1.01 9.81 0.04 0.14 -0.09 6315
0.13 -0.01 0.64 -1.04 9.83 0.05 0.16 -0.09 6322
0.12 -0.01 0.61 -0.96 9.87 0.07 0.18 -0.09 6329
0.12 -0.01 0.06 -1.04 9.83 0.08 0.20 -0.09 6336
0.09 0.00 0.68 -0.99 9.86 0.10 0.21 -0.08 6343
0.11 0.01 0.76 -1.00 9.81 0.11 0.21 -0.08 6350
0.08 -0.01 0.67 -1.03 9.88 0.14 0.22 -0.08 6358
0.10 -0.01 0.65 -1.00 9.87 0.17 0.22 -0.07 6365
0.11 -0.01 0.09 -1.01 9.84 0.20 0.24 -0.07 6372
0.12 -0.00 0.81 -1.07 9.89 0.26 0.27 -0.06 6379
0.11 -0.01 0.65 -1.05 9.97 0.34 0.34 -0.06 6386
0.09 -0.00 0.78 -1.03 9.81 0.45 0.38 -0.07 6393
0.12 0.01 0.91 -1.10 10.00 0.53 0.40 -0.06 6401
0.13 0.01 0.68 -1.07 10.27 0.62 0.48 -0.06 6408
0.12 0.01 0.89 -1.15 10.89 0.84 0.54 -0.05 6415
0.12 0.02 0.92 -1.38 11.64 1.13 0.65 -0.07 6423
0.11 0.01 1.22 -1.51 11.68 1.37 0.72 -0.11 6430
0.11 0.01 1.02 -1.54 11.64 1.54 0.67 -0.16 6437
0.13 0.01 1.10 -1.58 12.38 1.62 0.54 -0.19 6445
0.14 0.00 1.34 -1.96 12.32 1.72 0.42 -0.22 6452
0.15 0.01 0.85 -1.85 12.99 1.86 0.32 -0.24 6458
0.16 0.02 1.76 -1.93 12.54 2.01 0.33 -0.26 6466
0.16 -0.00 1.17 -2.25 12.26 2.16 0.28 -0.27 6473
0.17 -0.02 1.25 -2.34 12.02 2.27 0.28 -0.27 6479
0.16 -0.02 1.23 -2.38 12.18 2.41 0.34 -0.26 6487
0.08 -0.01 1.15 -2.73 11.79 2.54 0.44 -0.24 6494
0.06 -0.01 0.97 -2.90 11.74 2.63 0.52 -0.21 6501
0.10 0.00 1.17 -3.01 12.10 2.75 0.61 -0.19 6508
0.09 -0.01 1.21 -3.41 12.35 2.84 0.74 -0.17 6515
0.06 -0.01 0.87 -3.10 12.37 2.95 0.83 -0.14 6522
0.05 -0.00 1.27 -4.03 12.79 3.04 0.91 -0.09 6530
0.05 -0.00 1.27 -4.52 13.78 3.08 0.99 -0.05 6537
0.04 -0.00 1.54 -5.21 13.49 3.11 1.06 -0.02 6544
0.04 -0.00 2.28 -5.28 14.12 3.12 1.12 0.02 6551
0.03 -0.00 2.23 -5.47 14.78 3.11 1.17 0.03 6558
0.01 -0.00 2.44 -5.34 14.86 3.04 1.24 0.02 6565
0.01 -0.00 3.24 -5.42 13.59 2.98 1.30 -0.01 6573
0.00 0.00 4.12 -5.50 13.80 2.90 1.41 0.01 6580
0.00 -0.00 2.25 -5.07 12.80 2.83 1.61 -0.07 6587
0.01 -0.00 0.16 -5.35 12.09 2.80 1.60 -0.11 6594
0.01 -0.00 -0.03 -4.26 13.39 2.77 1.42 -0.16 6601
0.01 -0.00 -0.68 -4.01 13.59 2.73 1.04 -0.17 6608
0.01 -0.00 -0.49 -1.56 13.38 2.60 0.69 -0.16 6616
0.00 -0.00 -0.54 1.42 12.86 2.37 0.27 -0.14 6623
0.00 0.00 -0.72 6.92 11.39 2.04 -0.05 -0.15 6630
0.01 -0.00 -1.31 11.30 9.18 1.50 -0.35 -0.28 6637
0.00 0.00 -3.72 15.27 7.11 0.88 -0.72 -0.67 6644
0.00 0.00 -1.61 12.23 4.35 0.07 -0.94 -1.30 6651
0.00 0.00 -3.38 11.31 8.38 -0.63 -1.37 -1.60 6659
0.00 0.00 -3.74 10.75 11.21 -1.12 -1.23 -1.98 6666
0.00 0.00 -3.14 9.89 9.51 -1.49 -1.25 -2.34 6673
0.00 -0.00 -3.05 9.43 7.48 -1.73 -1.51 -2.71 6680
0.00 0.00 -2.74 8.88 6.86 -1.93 -1.68 -3.00 6687
0.00 0.00 -1.48 7.98 6.98 -2.19 -1.82 -3.20 6694
0.00 0.00 -0.17 7.00 7.65 -2.41 -1.94 -3.34 6702
0.00 0.00 0.57 6.22 8.29 -2.64 -1.98 -3.40 6709
0.00 0.00 1.65 5.18 9.06 -2.87 -1.93 -3.38 6716
0.00 -0.00 2.98 4.30 9.32 -3.04 -1.82 -3.29 6723
0.00 0.00 3.28 3.49 10.11 -3.19 -1.68 -3.18 6730
0.00 0.00 3.76 2.45 10.52 -3.31 -1.57 -3.02 6737
0.00 0.00 4.45 1.53 11.51 -3.39 -1.51 -2.85 6745
0.00 0.00 5.10 0.20 12.05 -3.41 -1.47 -2.61 6752
0.00 0.00 5.87 -1.25 12.68 -3.41 -1.43 -2.35 6759
0.00 0.00 6.95 -2.32 12.78 -3.38 -1.41 -2.12 6766
0.00 0.00 8.04 -3.38 13.18 -3.35 -1.33 -1.86 6773
0.00 0.00 8.97 -4.91 13.24 -3.31 -1.20 -1.59 6780
0.00 0.00 10.02 -5.47 13.34 -3.28 -0.99 -1.35 6788
0.00 0.00 10.82 -6.65 13.20 -3.25 -0.72 -1.07 6795
0.00 0.00 11.12 -7.56 12.37 -3.17 -0.47 -0.79 6802
0.00 0.00 11.30 -8.72 12.39 -3.03 -0.19 -0.43 6809
0.00 0.00 11.46 -9.53 11.80 -2.88 0.07 -0.01 6816
0.00 0.00 10.47 -9.19 10.29 -2.64 0.47 0.40 6823
0.00 0.00 11.22 -9.73 12.09 -2.41 0.90 0.86 6831
0.00 0.00 9.96 -9.86 11.68 -2.15 1.11 1.22 6838
0.00 0.00 9.20 -9.58 11.68 -1.92 1.44 1.70 6845
0.00 0.00 8.15 -9.12 11.76 -1.75 1.69 2.15 6852
0.00 0.00 6.74 -8.76 11.97 -1.57 1.90 2.48 6859
0.00 0.00 5.41 -8.73 12.02 -1.42 2.00 2.79 6866
0.00 0.00 4.31 -8.65 12.41 -1.24 2.01 3.01 6874
0.00 0.00 3.03 -8.43 12.84 -1.09 1.91 3.18 6881
0.00 0.00 1.29 -8.04 13.06 -1.01 1.70 3.28 6888
0.00 0.00 0.97 -7.82 13.25 -0.97 1.45 3.28 6895
0.00 0.00 0.52 -7.68 13.41 -0.96 1.09 3.19 6902
0.00 0.00 0.55 -7.62 13.65 -1.00 0.81 2.98 6909
0.00 0.00 1.22 -7.38 13.71 -1.07 0.61 2.74 6917
0.00 0.00 1.99 -7.27 13.58 -1.15 0.56 2.39 6924
0.00 0.00 2.38 -7.29 13.38 -1.24 0.63 2.06 6931
0.00 0.00 2.63 -7.43 12.61 -1.28 0.82 1.64 6938
0.00 0.00 2.03 -6.80 10.42 -1.27 1.08 1.25 6945
0.00 0.00 0.25 -6.89 9.09 -1.17 1.64 1.03 6952
0.00 0.00 -1.37 -7.22 9.86 -1.06 2.17 0.86 6960
0.00 0.00 -3.13 -7.35 10.58 -0.92 2.23 0.69 6967
0.00 0.00 -4.82 -7.40 11.10 -0.78 1.96 0.51 6974
0.00 0.00 -5.32 -6.90 10.87 -0.68 1.56 0.39 6981
0.00 0.00 -5.11 -6.37 10.47 -0.61 1.00 0.32 6988
0.00 0.00 -4.38 -6.20 10.03 -0.55 0.48 0.23 6995
0.00 0.00 -3.34 -6.43 9.85 -0.46 0.14 0.17 7003
0.00 0.00 -2.36 -6.92 9.77 -0.33 -0.11 0.09 7010
0.00 0.00 -1.13 -6.67 8.98 -0.24 -0.19 -0.01 7017
0.00 0.00 -0.43 -7.01 9.24 -0.15 -0.14 -0.08 7024
0.00 0.00 -0.00 -7.14 9.43 -0.09 0.04 -0.14 7031
0.00 0.00 0.19 -7.04 9.59 -0.06 0.26 -0.17 7038
-0.00 0.00 0.23 -6.70 9.52 -0.09 0.57 -0.16 7046
0.00 0.00 0.01 -6.45 9.28 -0.14 0.90 -0.09 7053
0.00 0.00 -0.32 -6.39 9.02 -0.20 1.09 0.04 7060
0.00 0.00 -0.84 -6.52 8.84 -0.24 1.25 0.23 7067
0.00 0.00 -1.20 -6.75 8.92 -0.23 1.30 0.47 7074
0.00 0.00 -6.00 -11.26 9.57 -0.14 1.15 0.75 7081
0.00 0.00 -3.46 -8.67 5.74 0.23 0.42 1.18 7089
0.00 0.00 -4.79 -7.09 5.63 0.29 -0.17 1.42 7096
0.00 0.00 -4.43 -9.75 7.96 0.38 -0.63 1.77 7103
0.00 0.00 -3.84 -10.77 9.05 0.50 -0.77 2.09 7110
0.00 0.00 -2.85 -10.64 8.52 0.67 -0.75 2.28 7117
0.00 0.00 -3.45 -11.99 6.90 0.76 -0.73 2.40 7124
0.00 0.00 -4.35 -13.91 7.23 0.94 -0.75 2.51 7132
0.00 0.00 -5.27 -14.54 5.62 1.25 -0.58 2.69 7139
0.00 0.00 -4.33 -6.63 7.12 1.54 -0.14 2.89 7146
-0.00 0.00 -8.58 -7.67 11.40 1.79 -0.26 2.67 7153
-0.00 0.03 -13.45 -4.10 11.16 2.02 -0.98 2.06 7161
-0.00 0.06 -15.29 -1.43 12.64 1.94 -1.45 1.09 7169
-0.00 0.16 -9.81 -0.69 13.18 1.86 -1.40 0.15 7176
-0.01 0.13 -1.48 -4.05 30.02 0.07 -1.75 -0.32 7183
-0.02 0.19 0.06 -0.18 9.19 -0.25 0.07 -0.14 7189
-0.02 0.19 1.06 -1.93 9.84 -0.21 0.08 -0.14 7196
-0.02 0.20 1.17 -1.90 10.15 -0.11 0.05 -0.05 7203
-0.02 0.26 0.57 -1.14 9.87 -0.06 0.08 0.01 7211
-0.02 0.27 0.03 -0.91 10.01 -0.04 0.07 -0.00 7218
-0.02 0.26 0.27 -0.83 9.82 -0.04 0.08 -0.02 7225
-0.03 0.29 0.68 -0.99 9.71 -0.03 0.08 -0.02 7232
-0.03 0.29 0.01 -1.03 9.75 -0.03 0.03 -0.02 7239
-0.03 0.28 0.41 -0.93 10.37 -0.04 0.05 -0.02 7246
-0.03 0.32 0.51 -0.88 9.74 -0.04 0.05 -0.03 7254
-0.01 0.34 0.54 -0.87 9.67 -0.05 0.04 -0.02 7261
-0.02 0.36 0.51 -0.90 9.66 -0.05 0.04 -0.03 7268
-0.02 0.41 0.47 -0.87 9.79 -0.05 0.04 -0.03 7275
0.00 0.37 0.46 -0.84 9.81 -0.05 0.04 -0.03 7282
0.03 0.38 0.46 -0.87 9.81 -0.04 0.05 -0.03 7289
0.01 0.40 0.49 -0.93 9.80 -0.04 0.06 -0.03 7297
0.02 0.40 0.40 -0.91 9.82 -0.04 0.08 -0.03 7304
0.01 0.40 0.45 -0.91 9.80 -0.03 0.09 -0.03 7311
0.02 0.41 0.45 -0.90 9.79 -0.03 0.11 -0.03 7318
0.01 0.40 0.49 -0.80 9.83 -0.03 0.13 -0.03 7325
0.02 0.39 0.47 -0.90 9.83 -0.03 0.14 -0.02 7332
0.02 0.40 0.46 -0.85 9.82 -0.02 0.15 -0.03 7340
0.02 0.37 0.57 -0.88 9.79 -0.00 0.15 -0.03 7347
0.02 0.37 0.60 -0.91 9.74 0.00 0.14 -0.03 7354
0.02 0.35 0.63 -0.85 9.81 0.01 0.13 -0.03 7361
0.00 0.36 0.61 -0.89 9.79 0.01 0.13 -0.04 7368
0.02 0.33 0.59 -0.87 10.37 0.01 0.11 -0.04 7375
0.04 0.33 0.57 -0.90 9.75 0.02 0.11 -0.04 7383
0.04 0.28 0.55 -0.88 9.77 0.02 0.12 -0.04 7390
0.03 0.26 0.57 -0.86 9.80 0.02 0.12 -0.04 7397
0.03 0.24 0.55 -0.90 9.78 0.03 0.12 -0.05 7404
0.03 0.17 0.56 -0.90 9.81 0.03 0.12 -0.04 7411
0.04 0.21 0.60 -0.91 9.80 0.03 0.12 -0.04 7418
0.05 0.19 0.59 -0.93 9.77 0.03 0.12 -0.04 7426
0.05 0.17 0.51 -0.98 9.81 0.03 0.11 -0.04 7433
0.05 0.14 0.55 -0.89 9.79 0.03 0.11 -0.04 7440
0.03 0.07 0.60 -0.90 9.73 0.03 0.12 -0.04 7447
0.03 0.04 0.61 -0.94 9.80 0.02 0.12 -0.04 7454
0.04 0.06 1.20 -0.95 9.78 0.03 0.12 -0.04 7461
0.05 0.05 0.65 -0.91 10.36 0.02 0.12 -0.04 7469
0.03 0.05 0.63 -0.92 9.74 0.02 0.12 -0.04 7476
0.04 0.04 0.67 -0.92 9.76 0.02 0.11 -0.03 7483
0.06 0.01 0.66 -0.89 9.75 0.02 0.11 -0.04 7490
0.08 0.01 0.66 -0.88 9.75 0.02 0.11 -0.04 7497
0.08 0.04 0.67 -0.94 9.77 0.02 0.10 -0.04 7504
0.06 0.01 0.70 -0.90 9.79 0.02 0.10 -0.04 7512
0.05 0.01 0.64 -0.96 9.76 0.02 0.10 -0.04 7519
0.03 -0.00 0.68 -0.94 9.77 0.02 0.10 -0.04 7526
0.02 0.00 0.69 -0.95 9.75 0.02 0.09 -0.04 7533
0.04 0.01 0.67 -0.95 9.77 0.01 0.09 -0.04 7540
0.04 0.01 0.73 -0.93 9.75 0.01 0.09 -0.04 7547
0.05 0.00 0.68 -0.99 9.77 0.01 0.08 -0.04 7555
0.04 0.00 0.74 -0.90 9.78 0.01 0.08 -0.05 7562
0.05 -0.00 0.70 -0.94 9.76 0.01 0.07 -0.05 7569
0.03 0.00 0.70 -0.96 9.73 0.01 0.06 -0.05 7576
0.04 0.01 0.79 -0.92 9.78 0.01 0.05 -0.05 7583
0.06 -0.01 0.71 -0.93 9.80 0.02 0.05 -0.05 7590
0.06 -0.01 0.71 -1.00 9.77 0.02 0.04 -0.05 7598
0.06 0.00 0.75 -0.93 9.67 0.01 0.04 -0.06 7605
0.06 -0.00 0.68 -0.94 9.76 0.01 0.04 -0.05 7612
0.05 -0.00 0.70 -0.92 9.77 0.02 0.04 -0.06 7619
0.06 0.00 0.73 -0.91 9.74 0.02 0.04 -0.05 7626
0.05 -0.01 0.64 -1.00 9.78 0.02 0.04 -0.05 7633
0.06 -0.01 0.74 -0.97 9.80 0.02 0.04 -0.05 7641
0.04 -0.00 0.72 -1.05 9.77 0.02 0.05 -0.05 7648
0.04 -0.00 0.69 -0.97 9.78 0.03 0.06 -0.06 7655
0.03 -0.00 0.68 -1.00 9.77 0.03 0.06 -0.05 7662
0.05 0.01 0.74 -0.94 9.81 0.04 0.06 -0.05 7669
0.06 -0.01 0.70 -0.97 9.80 0.05 0.07 -0.05 7676
0.05 -0.01 0.65 -0.98 9.74 0.05 0.06 -0.06 7684
0.06 -0.01 0.64 -1.02 9.80 0.06 0.06 -0.05 7691
0.07 -0.01 0.71 -1.03 9.80 0.06 0.07 -0.05 7698
0.08 0.02 0.73 -0.99 9.84 0.07 0.07 -0.05 7705
0.05 0.02 0.67 -0.97 9.83 0.09 0.07 -0.06 7712
0.12 0.01 0.74 -1.02 9.81 0.10 0.06 -0.06 7719
0.11 0.01 0.80 -0.98 9.80 0.12 0.07 -0.07 7727
0.11 -0.01 0.79 -1.01 9.75 0.14 0.07 -0.07 7734
0.15 -0.01 0.76 -1.06 9.70 0.16 0.09 -0.08 7741
0.17 -0.01 0.76 -1.12 9.80 0.18 0.10 -0.09 7748
0.19 -0.01 0.72 -1.10 9.83 0.21 0.14 -0.09 7755
0.19 -0.02 0.68 -1.00 9.91 0.26 0.16 -0.10 7762
0.21 -0.02 0.74 -1.12 9.92 0.35 0.21 -0.10 7770
0.22 -0.02 0.72 -1.16 10.15 0.45 0.24 -0.10 7777
0.25 -0.02 0.80 -1.21 10.16 0.59 0.30 -0.10 7785
0.27 -0.01 0.75 -1.34 10.34 0.70 0.35 -0.09 7792
0.27 -0.01 0.84 -1.36 10.68 0.85 0.39 -0.10 7799
0.32 -0.02 0.79 -1.50 10.64 0.99 0.43 -0.11 7806
0.35 -0.03 0.79 -1.63 11.25 1.09 0.41 -0.13 7814
0.35 -0.03 0.90 -1.73 10.94 1.15 0.36 -0.15 7821
0.33 -0.02 0.98 -1.76 10.94 1.23 0.32 -0.16 7828
0.36 -0.01 0.89 -1.86 11.40 1.32 0.29 -0.18 7835
0.37 -0.02 1.23 -2.13 11.65 1.44 0.26 -0.19 7842
0.36 -0.02 0.79 -1.94 11.75 1.55 0.24 -0.20 7849
0.33 -0.02 1.06 -1.96 12.00 1.71 0.23 -0.20 7856
0.34 -0.02 1.45 -2.18 11.78 1.87 0.24 -0.22 7864
0.29 -0.01 1.52 -2.39 11.81 2.02 0.25 -0.25 7871
0.30 -0.01 1.13 -2.42 12.26 2.19 0.26 -0.26 7878
0.24 -0.01 0.92 -2.56 12.17 2.33 0.26 -0.25 7885
0.18 -0.02 0.77 -2.63 12.17 2.52 0.29 -0.23 7891
0.13 -0.01 0.83 -2.85 12.26 2.68 0.31 -0.19 7899
0.09 -0.01 0.90 -3.13 12.50 2.86 0.41 -0.16 7906
0.07 -0.01 0.79 -3.39 12.25 3.06 0.50 -0.13 7913
0.07 -0.01 0.88 -3.82 12.41 3.22 0.56 -0.11 7920
0.09 -0.01 1.25 -3.96 12.64 3.40 0.63 -0.10 7927
0.07 -0.01 1.25 -4.81 13.04 3.53 0.67 -0.08 7934
0.06 -0.01 1.33 -5.34 13.12 3.64 0.66 -0.06 7942
0.06 -0.01 2.30 -6.16 16.31 3.75 0.74 -0.04 7949
0.07 -0.01 3.14 -6.83 17.33 3.79 0.94 -0.02 7956
0.06 -0.01 2.75 -6.91 16.40 3.79 1.09 -0.02 7963
0.06 -0.01 1.69 -6.73 15.39 3.77 1.10 -0.06 7970
0.04 -0.00 1.90 -7.08 15.46 3.74 0.99 -0.07 7977
0.02 -0.00 3.26 -5.63 14.87 3.69 1.08 -0.11 7985
0.00 0.00 4.18 -6.72 15.81 3.57 1.23 -0.14 7992
0.01 -0.00 2.21 -6.70 15.93 3.33 1.44 -0.20 7999
0.01 -0.00 1.41 -6.53 15.09 3.23 1.44 -0.30 8006
0.00 -0.00 0.77 -4.89 14.08 3.22 1.23 -0.38 8013
0.00 0.00 0.30 -2.95 13.25 3.08 1.09 -0.41 8020
0.00 0.00 0.57 -1.15 12.62 2.79 1.01 -0.42 8028
0.00 0.00 1.37 1.03 9.87 2.50 0.99 -0.44 8035
0.00 0.00 -2.27 10.04 8.87 2.13 1.18 -0.79 8042
0.00 0.00 -4.33 7.55 4.36 1.47 1.16 -2.16 8049
0.00 0.00 -2.92 6.73 7.45 0.57 0.50 -3.04 8056
0.00 0.00 -4.18 7.16 12.22 -0.44 0.35 -3.56 8064
0.00 0.00 -3.58 5.00 12.96 -1.09 0.49 -3.98 8071
0.00 0.00 -2.51 4.36 11.73 -1.56 0.32 -4.27 8078
0.00 0.00 -2.66 4.13 9.24 -1.79 0.07 -4.28 8085
0.00 0.00 -2.53 3.90 7.18 -1.95 -0.08 -4.28 8092
0.00 0.00 -2.18 3.38 6.32 -2.05 -0.26 -4.28 8099
0.00 0.00 -1.51 2.90 5.83 -2.09 -0.42 -4.28 8107
0.00 0.00 -0.72 2.68 5.69 -2.11 -0.60 -4.28 8114
0.00 0.00 -0.17 2.67 5.74 -2.11 -0.72 -4.28 8121
0.00 0.00 0.28 2.76 5.64 -2.11 -0.78 -4.15 8128
0.00 0.00 0.91 2.98 5.64 -2.13 -0.84 -3.90 8135
0.00 0.00 1.47 3.01 5.65 -2.17 -0.87 -3.60 8142
0.00 0.00 2.10 2.98 6.19 -2.24 -0.90 -3.33 8150
0.00 0.00 2.80 2.72 6.55 -2.30 -0.89 -3.00 8157
0.00 0.00 3.46 2.36 7.30 -2.37 -0.83 -2.69 8164
0.00 0.00 4.05 1.90 7.81 -2.47 -0.71 -2.40 8171
0.00 0.00 4.41 1.66 8.23 -2.57 -0.57 -2.07 8178
0.00 0.00 4.74 1.49 9.11 -2.70 -0.43 -1.79 8185
0.00 0.00 5.15 1.21 9.01 -2.84 -0.27 -1.46 8193
0.00 0.00 5.45 0.75 9.52 -2.95 -0.14 -1.14 8200
0.00 0.00 5.65 0.26 9.67 -3.06 -0.02 -0.85 8207
0.00 0.00 5.84 -0.35 9.81 -3.13 0.10 -0.51 8214
0.00 0.00 6.20 -0.74 9.84 -3.15 0.22 -0.24 8221
0.00 0.00 6.56 -1.14 10.14 -3.12 0.41 0.06 8228
0.00 0.00 6.78 -1.66 10.65 -3.07 0.62 0.33 8236
0.00 0.00 6.84 -2.01 11.05 -3.01 0.91 0.54 8243
0.00 0.00 6.56 -2.46 11.67 -2.96 1.22 0.77 8250
0.00 0.00 6.08 -2.84 12.37 -2.89 1.45 0.99 8257
0.00 0.00 5.57 -3.47 12.91 -2.81 1.68 1.17 8264
0.00 0.00 5.09 -4.19 13.57 -2.74 1.80 1.38 8271
0.00 0.00 4.51 -4.79 14.68 -2.65 1.87 1.56 8279
0.00 0.00 4.02 -5.52 14.81 -2.55 1.85 1.75 8286
0.00 0.00 3.62 -5.95 15.54 -2.51 1.75 1.92 8293
0.00 0.00 3.20 -6.35 15.88 -2.48 1.58 2.05 8300
0.00 0.00 2.90 -6.56 15.88 -2.46 1.43 2.18 8307
0.00 0.00 2.69 -6.73 15.63 -2.43 1.33 2.26 8314
0.00 0.00 2.53 -7.02 15.41 -2.38 1.21 2.31 8322
0.00 0.00 2.37 -7.53 15.05 -2.32 1.11 2.31 8329
0.00 0.00 2.10 -8.06 14.69 -2.20 1.00 2.28 8336
0.00 0.00 2.01 -8.65 14.44 -2.08 0.90 2.23 8343
0.00 0.00 2.19 -9.25 14.43 -1.92 0.85 2.18 8350
0.00 0.00 2.59 -9.75 14.26 -1.76 0.86 2.11 8357
0.00 0.00 3.65 -10.10 13.84 -1.62 0.94 2.03 8365
0.00 0.00 3.25 -10.23 13.63 -1.46 1.07 1.97 8372
0.00 0.00 2.94 -10.50 13.55 -1.28 1.22 1.90 8379
0.00 0.00 2.56 -10.72 13.34 -1.15 1.35 1.85 8386
0.00 0.00 2.00 -11.18 13.12 -1.00 1.45 1.80 8393
0.00 0.00 1.36 -11.46 12.41 -0.88 1.57 1.77 8400
0.00 0.00 0.84 -11.40 11.78 -0.73 1.67 1.78 8408
-0.00 0.00 0.51 -11.31 11.58 -0.62 1.90 1.83 8415
0.00 0.00 0.27 -11.07 12.21 -0.59 2.14 1.89 8422
0.00 0.00 0.04 -11.02 12.85 -0.67 2.42 1.93 8429
0.00 0.00 -0.74 -11.06 12.90 -0.84 2.50 1.93 8436
0.00 0.00 -1.94 -11.04 12.32 -1.10 2.39 1.93 8443
0.00 0.00 -2.72 -11.31 11.41 -1.33 2.13 1.90 8451
0.00 0.00 -3.09 -11.81 9.59 -1.44 1.85 1.86 8458
0.00 0.00 -3.09 -12.60 8.42 -1.45 1.50 1.80 8465
0.00 0.00 -2.65 -13.59 7.43 -1.38 1.15 1.66 8472
0.00 0.00 -2.17 -14.08 6.76 -1.21 0.93 1.50 8479
0.00 0.00 -5.96 -21.30 3.14 -0.98 0.72 1.26 8486
0.00 0.00 -1.29 -16.07 3.28 -0.39 0.30 1.11 8494
0.00 0.00 -4.64 -14.29 4.67 -0.17 0.01 0.94 8501
0.00 0.00 -4.80 -14.60 5.73 0.07 -0.20 0.84 8508
0.00 0.00 -4.75 -14.44 6.01 0.29 -0.52 0.77 8515
0.00 0.00 -4.56 -13.81 6.36 0.52 -0.84 0.64 8522
0.00 0.00 -5.42 -14.82 6.57 0.73 -1.17 0.57 8529
0.00 0.00 -4.75 -15.34 5.79 1.02 -1.38 0.64 8537
-0.00 0.00 -4.01 -16.27 6.49 1.34 -1.41 0.97 8544
0.00 0.00 -0.27 -0.78 8.99 1.69 -0.77 1.43 8551
-0.00 0.03 -3.47 -0.77 7.10 1.77 -0.42 1.46 8558
-0.01 0.10 -8.33 -0.75 14.21 1.98 -0.43 1.26 8565
-0.02 0.28 -9.60 0.52 12.15 2.02 -0.64 0.65 8573
-0.02 0.34 -7.94 -0.22 13.04 2.17 -0.82 -0.09 8581
-0.02 0.37 -3.98 -1.30 12.99 2.28 -0.84 -0.73 8588
-0.02 0.37 19.06 0.80 46.89 2.14 -1.37 -0.99 8595
-0.03 0.37 5.72 -3.13 10.73 0.61 -1.68 -0.45 8602
-0.03 0.44 -0.19 -2.53 14.18 0.43 -0.95 -0.10 8609
-0.03 0.49 0.92 -2.14 10.22 0.08 -0.28 0.02 8616
-0.03 0.50 0.37 -0.32 9.46 0.18 -0.45 0.03 8623
-0.02 0.51 0.12 -0.38 9.96 0.21 -0.50 -0.01 8630
-0.02 0.51 0.21 -0.71 10.09 0.17 -0.39 -0.03 8637
-0.03 0.49 0.44 -1.01 9.84 0.12 -0.27 -0.01 8644
-0.03 0.47 0.51 -1.03 9.87 0.07 -0.12 0.00 8651
-0.03 0.48 0.28 -0.88 9.82 0.04 -0.07 0.01 8658
-0.03 0.53 0.19 -0.80 9.84 0.01 -0.06 -0.01 8666
-0.02 0.55 0.30 -0.79 9.75 -0.01 -0.03 -0.02 8673
-0.03 0.53 0.46 -0.84 9.79 -0.01 -0.04 -0.03 8680
-0.04 0.53 0.38 -0.80 9.78 -0.01 -0.03 -0.03 8687
-0.03 0.54 0.31 -0.77 9.81 -0.01 -0.02 -0.04 8694
0.01 0.54 4.47 -0.79 9.15 -0.01 -0.00 -0.04 8701
0.03 0.56 0.28 -0.86 9.86 -0.01 0.03 -0.04 8709
0.00 0.56 0.24 -0.85 9.88 -0.01 0.05 -0.03 8716
0.01 0.55 0.28 -0.80 9.84 -0.01 0.07 -0.02 8723
0.03 0.52 0.30 -0.83 9.81 0.00 0.08 -0.02 8730
0.03 0.52 0.37 -0.78 9.80 0.00 0.09 -0.02 8737
0.03 0.53 0.42 -0.81 9.82 0.00 0.09 -0.02 8744
0.04 0.53 0.41 -0.79 9.78 0.01 0.08 -0.02 8752
0.04 0.51 0.41 -0.79 9.78 0.00 0.08 -0.02 8759
0.02 0.49 0.39 -0.79 9.80 0.01 0.07 -0.03 8766
0.04 0.46 0.37 -0.82 9.80 0.01 0.07 -0.03 8773
0.02 0.45 0.40 -0.81 9.77 0.01 0.06 -0.03 8780
0.03 0.46 0.37 -0.80 9.81 0.01 0.06 -0.04 8787
0.04 0.44 0.36 -0.84 9.79 0.01 0.07 -0.04 8795
0.04 0.41 0.36 -0.79 9.81 0.01 0.08 -0.04 8802
0.04 0.41 0.34 -0.78 9.79 0.00 0.08 -0.03 8809
0.03 0.34 0.37 -0.80 9.79 0.01 0.08 -0.03 8816
0.04 0.35 0.37 -0.82 9.79 0.02 0.09 -0.03 8823
0.03 0.40 0.39 -0.80 9.75 0.01 0.09 -0.03 8830
0.04 0.37 0.39 -0.80 9.79 0.02 0.10 -0.03 8838
0.04 0.33 0.41 -0.77 9.77 0.02 0.09 -0.03 8845
0.04 0.30 0.44 -0.83 9.74 0.01 0.09 -0.03 8852
0.03 0.27 0.49 -0.81 9.77 0.02 0.08 -0.03 8859
0.04 0.26 0.31 -0.84 9.82 0.01 0.08 -0.03 8866
0.03 0.28 0.45 -0.81 9.75 0.01 0.08 -0.03 8873
0.05 0.27 0.43 -0.84 9.79 0.01 0.07 -0.03 8881
0.04 0.26 0.45 -0.82 9.75 0.01 0.06 -0.03 8888
0.04 0.24 0.45 -0.83 9.80 0.00 0.05 -0.03 8895
0.03 0.26 0.45 -0.81 9.81 0.00 0.05 -0.03 8902
0.04 0.26 0.46 -0.82 9.78 0.00 0.04 -0.03 8909
0.04 0.23 0.43 -0.82 9.78 0.01 0.03 -0.03 8916
0.05 0.20 0.46 -0.83 9.78 0.00 0.03 -0.03 8924
0.05 0.20 0.42 -0.83 9.81 0.01 0.02 -0.03 8931
0.06 0.18 0.46 -0.85 9.80 0.01 0.02 -0.04 8938
0.06 0.19 0.41 -0.79 9.80 0.01 0.02 -0.03 8945
0.06 0.19 0.43 -0.83 9.78 0.00 0.01 -0.04 8952
0.03 0.20 0.41 -0.85 9.77 0.00 0.01 -0.04 8960
0.04 0.17 0.44 -0.83 9.78 0.00 0.00 -0.04 8967
0.05 0.17 0.45 -0.83 9.77 0.00 -0.00 -0.04 8974
0.05 0.16 0.41 -0.86 9.77 0.00 -0.01 -0.04 8981
0.05 0.16 0.52 -0.82 9.81 0.00 -0.02 -0.04 8988
0.05 0.16 0.45 -0.85 9.80 0.00 -0.03 -0.04 8995
0.06 0.20 0.44 -0.82 9.81 0.00 -0.03 -0.05 9003
0.06 0.17 0.38 -0.85 9.78 -0.00 -0.03 -0.05 9010
0.06 0.18 0.38 -0.77 9.81 -0.00 -0.04 -0.05 9017
0.05 0.15 0.41 -0.86 9.76 -0.00 -0.03 -0.05 9024
0.06 0.15 0.38 -0.86 9.77 0.00 -0.03 -0.05 9031
0.08 0.15 0.35 -0.86 9.78 0.00 -0.02 -0.05 9038
0.09 0.14 0.33 -0.87 9.82 0.03 -0.02 -0.05 9046
0.09 0.11 0.30 -0.86 9.83 0.00 -0.01 -0.05 9053
0.09 0.11 0.34 -0.91 9.80 -0.00 -0.01 -0.05 9060
0.08 0.14 0.34 -0.86 9.81 0.00 -0.01 -0.05 9067
0.10 0.08 0.33 -0.88 9.79 0.01 0.00 -0.06 9074
0.11 0.12 0.38 -0.86 9.79 0.00 0.01 -0.06 9081
0.12 0.12 0.34 -0.88 9.81 0.00 0.00 -0.06 9089
0.12 0.11 0.36 -0.84 9.76 0.00 0.01 -0.06 9096
0.12 0.04 0.33 -0.83 9.82 0.01 0.01 -0.06 9103
0.12 0.05 0.30 -0.84 9.80 0.01 0.01 -0.06 9110
0.14 0.05 0.35 -0.87 9.77 0.01 0.01 -0.06 9117
0.16 0.07 0.32 -0.83 9.75 0.02 0.02 -0.06 9124
0.18 0.04 0.33 -0.88 9.79 0.02 0.02 -0.06 9132
0.20 0.02 0.34 -0.89 9.81 0.03 0.02 -0.06 9139
0.25 -0.02 0.38 -0.96 9.80 0.04 0.02 -0.06 9146
0.29 0.00 0.36 -0.85 9.82 0.04 0.03 -0.06 9153
0.35 0.01 0.43 -0.79 9.81 0.05 0.03 -0.06 9160
0.41 -0.02 0.28 -0.96 9.81 0.06 0.03 -0.05 9167
0.38 -0.00 0.26 -0.93 9.86 0.08 0.04 -0.06 9175
0.45 -0.04 0.26 -0.95 9.88 0.10 0.04 -0.06 9182
0.55 -0.04 0.31 -0.96 9.90 0.13 0.05 -0.06 9189
0.62 -0.03 0.29 -0.95 10.03 0.16 0.05 -0.06 9196
0.71 -0.01 0.56 -0.88 10.11 0.20 0.06 -0.07 9203
0.79 -0.04 0.37 -1.09 9.96 0.30 0.03 -0.09 9210
0.88 -0.04 0.54 -1.60 9.95 0.43 0.05 -0.11 9218
0.95 -0.05 0.49 -1.05 11.10 1.04 0.18 -0.15 9225
0.99 -0.04 0.60 -1.35 11.70 1.40 0.14 -0.16 9232
1.05 -0.04 0.42 -1.22 11.13 1.35 -0.04 -0.18 9240
1.08 -0.04 0.63 -1.36 11.49 1.35 -0.13 -0.18 9247
1.12 -0.04 1.04 -1.41 12.09 1.46 -0.13 -0.18 9254
1.15 -0.05 0.45 -1.77 12.16 1.67 -0.15 -0.18 9262
1.16 -0.05 0.52 -1.71 11.44 1.81 -0.16 -0.19 9269
1.16 -0.04 0.58 -1.76 11.60 1.94 -0.17 -0.21 9276
1.14 -0.04 0.37 -1.92 11.99 2.06 -0.17 -0.23 9283
1.13 -0.04 0.35 -1.96 11.21 2.17 -0.21 -0.24 9290
1.13 -0.04 0.29 -2.03 10.40 2.29 -0.23 -0.23 9297
1.06 -0.04 0.40 -2.42 11.57 2.43 -0.25 -0.23 9305
1.03 -0.05 0.26 -2.45 12.02 2.56 -0.22 -0.23 9312
0.94 -0.04 0.33 -2.65 12.17 2.73 -0.17 -0.22 9319
0.81 -0.04 -0.05 -2.81 12.55 2.87 -0.16 -0.22 9326
0.63 -0.03 0.24 -3.05 12.68 3.08 -0.14 -0.24 9333
0.51 -0.03 0.18 -3.48 12.93 3.24 -0.21 -0.23 9340
0.36 -0.02 0.86 -3.93 13.65 3.39 -0.17 -0.22 9348
0.23 -0.02 0.23 -4.40 12.89 3.56 -0.18 -0.22 9354
0.16 -0.02 -0.55 -4.86 16.25 3.68 -0.08 -0.18 9361
0.14 -0.01 -0.63 -5.76 16.03 3.76 0.05 -0.13 9369
0.12 -0.01 -0.53 -6.92 16.88 3.74 0.22 -0.10 9375
0.06 -0.01 -0.35 -6.77 15.45 3.68 0.29 -0.08 9382
0.06 -0.01 0.06 -7.64 15.66 3.54 0.37 -0.04 9390
0.05 -0.00 -0.10 -3.13 17.28 3.36 0.40 -0.03 9397
0.03 -0.00 -0.34 -7.37 17.55 2.95 0.29 -0.06 9404
0.05 0.00 -1.26 -5.98 14.78 2.75 0.00 -0.07 9411
0.05 -0.00 -0.24 -4.60 13.39 2.74 -0.15 -0.07 9418
0.03 -0.00 0.41 -2.51 14.54 2.67 -0.29 -0.08 9425
0.03 -0.00 0.98 1.53 15.41 2.51 -0.41 -0.10 9433
0.00 -0.00 0.98 7.97 14.18 2.14 -0.40 -0.19 9440
0.01 -0.00 -1.03 12.08 11.04 1.53 -0.32 -0.44 9447
0.00 -0.00 0.27 7.89 4.15 1.08 -0.40 -0.86 9454
0.00 0.00 -0.26 9.43 7.32 0.44 -0.43 -1.17 9461
0.00 0.00 0.01 8.63 7.34 -0.14 -0.41 -1.55 9468
0.00 0.00 0.08 7.10 7.09 -0.48 -0.41 -1.90 9476
0.00 0.00 -0.15 5.64 7.19 -0.56 -0.47 -2.09 9483
0.00 0.00 0.01 5.15 6.50 -0.60 -0.56 -2.29 9490
0.00 0.00 0.49 5.26 5.81 -0.66 -0.63 -2.40 9497
0.00 0.00 1.21 5.47 5.58 -0.74 -0.72 -2.48 9504
0.00 0.00 1.87 5.25 5.84 -0.86 -0.73 -2.49 9511
0.00 0.00 2.69 4.97 6.25 -1.03 -0.67 -2.45 9519
0.00 0.00 3.35 4.88 6.72 -1.22 -0.55 -2.35 9526
0.00 0.00 4.04 4.95 7.32 -1.46 -0.39 -2.21 9533
0.01 -0.00 4.30 4.80 7.75 -1.73 -0.21 -2.01 9540
0.00 0.00 4.29 4.33 7.94 -1.99 -0.10 -1.77 9547
0.00 0.00 4.31 3.77 8.02 -2.26 -0.00 -1.54 9554
0.00 -0.00 4.28 2.93 8.35 -2.45 0.06 -1.28 9562
0.00 0.00 4.31 2.05 8.59 -2.61 0.08 -1.05 9569
0.00 0.00 4.45 1.02 8.56 -2.72 0.08 -0.78 9576
0.00 -0.00 4.65 0.10 8.68 -2.76 0.08 -0.53 9583
0.00 0.00 5.02 -0.41 8.69 -2.77 0.15 -0.34 9590
0.00 0.00 5.18 -0.86 8.99 -2.75 0.29 -0.17 9597
0.00 0.00 5.29 -1.20 9.67 -2.73 0.47 -0.06 9605
0.00 0.00 5.29 -1.54 10.31 -2.73 0.70 0.04 9612
0.00 0.00 5.13 -1.86 11.29 -2.75 0.94 0.11 9619
0.00 0.00 4.77 -2.09 12.04 -2.79 1.12 0.17 9626
0.00 0.00 4.20 -2.60 12.76 -2.84 1.29 0.22 9633
0.00 0.00 3.61 -3.11 13.46 -2.90 1.40 0.30 9640
0.00 0.00 3.00 -3.94 13.75 -2.93 1.47 0.32 9648
0.00 0.00 2.29 -5.03 13.95 -2.94 1.46 0.36 9655
0.00 0.00 1.95 -5.96 14.11 -2.90 1.39 0.40 9662
0.00 0.00 1.72 -6.75 13.84 -2.80 1.25 0.47 9669
0.00 0.00 1.87 -6.83 13.34 -2.69 1.11 0.56 9676
0.00 0.00 1.72 -5.83 10.54 -2.53 1.05 0.64 9683
0.00 0.00 1.38 -4.55 13.05 -2.37 1.35 0.79 9691
0.00 0.00 1.85 -6.35 13.07 -2.21 1.20 0.76 9698
0.00 0.00 1.64 -6.30 13.43 -2.07 0.99 0.73 9705
0.00 0.00 2.37 -5.68 13.15 -1.96 1.05 0.81 9712
0.00 0.00 2.66 -5.48 13.12 -1.83 1.12 0.88 9719
0.00 0.00 2.42 -5.59 12.95 -1.73 1.18 0.97 9726
0.00 0.00 2.29 -5.83 13.05 -1.61 1.23 1.05 9734
0.00 0.00 2.07 -6.11 13.22 -1.47 1.23 1.12 9741
0.00 0.00 1.74 -6.46 13.01 -1.38 1.21 1.20 9748
0.00 0.00 1.60 -6.73 12.26 -1.26 1.18 1.25 9755
0.00 0.00 1.31 -7.18 12.70 -1.12 1.12 1.30 9762
0.00 0.00 1.12 -7.57 12.43 -1.01 1.05 1.34 9769
0.00 0.00 0.98 -8.11 12.01 -0.86 0.99 1.37 9777
0.00 0.00 1.00 -8.49 11.57 -0.71 0.94 1.39 9784
0.00 -0.00 1.03 -8.71 11.31 -0.54 0.92 1.41 9791
0.00 0.00 1.35 -8.80 11.29 -0.36 0.95 1.41 9798
0.00 0.00 1.54 -8.80 11.29 -0.23 1.04 1.41 9805
0.00 0.00 1.66 -8.68 11.33 -0.11 1.23 1.42 9812
0.00 0.00 1.19 -8.41 11.53 -0.03 1.48 1.44 9820
0.00 0.00 0.28 -8.03 12.15 -0.02 1.73 1.49 9827
0.00 0.00 -0.98 -7.72 13.00 -0.11 2.02 1.58 9834
0.00 0.00 -2.09 -7.56 13.73 -0.32 2.16 1.70 9841
0.00 0.00 -3.89 -7.67 13.88 -0.69 2.11 1.78 9848
0.00 0.00 -5.44 -8.22 13.13 -1.06 1.89 1.85 9856
0.00 0.00 -6.37 -9.71 11.92 -1.29 1.57 1.87 9863
0.00 0.00 -6.99 -10.03 10.38 -1.47 1.05 1.82 9870
0.00 0.00 -9.76 -11.95 10.41 -1.31 0.23 1.68 9877
0.00 0.00 -6.60 -11.11 5.36 -1.26 -0.27 1.47 9884
0.00 0.00 -5.27 -12.83 5.69 -1.03 -0.70 1.15 9891
0.00 0.00 -4.05 -13.87 5.48 -0.76 -0.90 0.81 9899
0.00 0.00 -2.37 -13.98 6.19 -0.44 -0.85 0.49 9906
0.00 0.00 -2.34 -13.99 6.29 -0.14 -0.62 0.17 9913
0.00 0.00 -2.84 -13.97 7.16 0.14 -0.44 -0.03 9920
0.00 0.00 -3.74 -12.88 8.75 0.38 -0.29 -0.19 9927
0.00 0.00 -4.79 -12.59 8.03 0.49 -0.21 -0.25 9934
0.00 0.00 -5.94 -12.71 7.59 0.56 -0.35 -0.19 9942
0.00 0.00 -7.30 -13.59 7.06 0.66 -0.80 0.01 9949
-0.00 0.02 -6.88 -15.80 6.34 0.86 -1.13 0.39 9956
0.00 0.00 0.54 0.69 9.78 1.27 -0.71 0.73 9963
-0.00 0.01 0.73 -1.35 4.64 1.36 -0.43 0.77 9970
-0.01 0.10 -3.25 -0.85 11.33 1.73 -0.41 0.71 9977
-0.03 0.25 -5.99 0.15 11.83 1.90 -0.75 0.33 9985
-0.02 0.31 -4.05 -0.51 10.64 2.09 -1.03 -0.23 9993
-0.00 0.26 -0.90 -1.96 12.60 2.30 -1.09 -0.50 9999
-0.02 0.34 11.41 -0.79 14.16 2.25 -1.37 -0.55 10007
-0.02 0.31 3.81 -3.19 21.98 0.89 -1.98 -0.28 10014
-0.03 0.34 0.53 -1.74 11.91 0.25 -0.82 -0.05 10020
-0.03 0.39 0.37 -2.33 10.44 0.03 -0.22 0.00 10028
-0.03 0.40 0.22 -1.06 10.00 -0.03 -0.06 0.04 10035
-0.01 0.38 -0.07 -1.12 10.08 -0.05 0.03 -0.00 10042
-0.03 0.42 0.09 -0.97 9.89 -0.05 0.05 -0.02 10049
-0.03 0.41 0.32 -1.03 9.91 -0.04 0.09 -0.01 10056
-0.04 0.48 0.28 -0.97 9.87 -0.03 0.10 -0.01 10063
-0.03 0.46 0.37 -0.87 9.82 -0.02 0.11 -0.01 10071
-0.02 0.48 0.45 -0.90 9.79 -0.02 0.10 -0.01 10078
-0.03 0.51 0.53 -0.94 9.76 -0.02 0.09 -0.02 10085
-0.04 0.52 0.47 -0.89 9.69 -0.03 0.06 -0.02 10092
-0.04 0.54 0.48 -0.91 9.77 -0.03 0.05 -0.03 10099
-0.05 0.54 0.44 -0.87 9.74 -0.03 0.03 -0.04 10106
-0.04 0.55 0.38 -0.82 9.86 -0.03 0.03 -0.04 10114
-0.00 0.53 0.36 -0.89 9.81 -0.04 0.03 -0.04 10121
-0.00 0.57 0.38 -0.92 9.81 -0.03 0.04 -0.04 10128
-0.00 0.54 0.31 -0.86 9.81 -0.03 0.05 -0.03 10135
0.02 0.54 0.32 -0.88 9.80 -0.01 0.06 -0.00 10142
0.00 0.56 0.36 -0.86 9.81 -0.01 0.07 -0.03 10149
0.02 0.54 0.39 -0.90 9.81 -0.00 0.08 -0.03 10157
0.00 0.51 0.38 -0.90 9.81 -0.00 0.09 -0.03 10164
0.01 0.51 0.44 -0.92 9.80 -0.00 0.09 -0.03 10171
-0.01 0.50 0.44 -0.88 9.81 0.00 0.09 -0.04 10178
0.02 0.48 0.42 -0.89 9.82 0.00 0.08 -0.04 10185
0.01 0.46 0.45 -0.90 9.79 0.00 0.08 -0.04 10192
0.02 0.45 0.43 -0.90 9.81 0.00 0.08 -0.04 10200
0.04 0.44 0.43 -0.90 9.80 0.00 0.08 -0.05 10207
0.03 0.42 0.43 -0.90 9.78 0.00 0.08 -0.05 10214
0.01 0.40 0.42 -0.88 9.82 0.00 0.08 -0.05 10221
-0.01 0.39 0.41 -0.86 9.80 0.01 0.08 -0.05 10228
-0.00 0.39 0.46 -0.89 9.78 0.01 0.09 -0.05 10235
0.00 0.37 0.44 -0.90 9.79 0.02 0.08 -0.04 10243
0.02 0.35 0.46 -0.91 9.79 0.02 0.09 -0.04 10250
0.02 0.35 0.46 -0.92 9.80 0.02 0.09 -0.05 10257
0.02 0.31 0.47 -0.92 9.80 0.01 0.09 -0.05 10264
0.02 0.27 0.42 -0.89 9.78 0.01 0.10 -0.05 10271
0.02 0.29 0.50 -0.90 9.73 0.01 0.09 -0.05 10278
0.03 0.30 0.49 -0.87 9.76 0.01 0.09 -0.05 10286
0.04 0.27 0.37 -0.82 9.81 0.01 0.09 -0.05 10293
0.02 0.25 0.49 -0.91 9.79 0.01 0.08 -0.05 10300
0.03 0.20 0.50 -0.91 9.79 0.01 0.08 -0.05 10307
0.02 0.21 0.47 -0.89 9.75 0.01 0.08 -0.05 10314
0.04 0.21 0.51 -0.90 9.81 0.01 0.08 -0.05 10321
0.03 0.19 0.49 -0.89 9.79 0.01 0.08 -0.05 10329
0.03 0.18 0.54 -0.91 9.76 0.01 0.07 -0.05 10336
0.03 0.18 0.46 -0.93 9.75 0.01 0.07 -0.06 10343
0.04 0.14 0.49 -0.92 9.76 0.00 0.07 -0.06 10350
0.04 0.13 0.49 -0.91 9.74 0.01 0.06 -0.05 10357
0.05 0.17 0.55 -0.88 9.77 0.01 0.06 -0.06 10364
0.05 0.16 0.56 -0.88 9.80 0.01 0.05 -0.06 10372
0.01 0.11 0.52 -0.91 9.81 0.01 0.05 -0.05 10379
0.00 0.14 0.51 -0.93 9.79 0.02 0.05 -0.06 10386
0.00 0.12 0.46 -0.93 9.80 0.01 0.05 -0.06 10393
0.02 0.08 0.51 -0.90 9.77 0.02 0.05 -0.06 10400
0.02 0.05 0.52 -0.97 9.77 0.02 0.06 -0.06 10407
0.04 0.03 0.50 -0.94 9.81 0.02 0.06 -0.06 10415
0.03 0.04 0.50 -0.93 10.40 0.01 0.07 -0.06 10422
0.05 0.01 0.50 -0.97 9.80 0.01 0.07 -0.06 10429
0.04 0.02 0.57 -0.96 9.79 0.02 0.07 -0.05 10436
0.05 0.02 0.56 -0.94 9.77 0.02 0.07 -0.06 10443
0.05 0.02 0.57 -0.91 9.82 0.02 0.07 -0.06 10450
0.07 0.02 0.54 -0.90 9.80 0.02 0.06 -0.06 10458
0.05 0.00 0.53 -0.96 9.77 0.03 0.06 -0.06 10465
0.05 -0.00 0.51 -0.92 9.78 0.03 0.06 -0.06 10472
0.04 0.01 0.55 -0.97 9.77 0.03 0.06 -0.06 10479
0.07 -0.00 0.52 -0.99 9.81 0.03 0.06 -0.06 10486
0.08 0.01 0.57 -0.95 9.80 0.03 0.06 -0.06 10493
0.08 -0.00 0.52 -1.00 9.79 0.03 0.07 -0.06 10501
0.09 -0.00 0.55 -0.93 9.75 0.03 0.06 -0.06 10508
0.12 -0.01 0.52 -0.98 9.78 0.04 0.07 -0.06 10515
0.09 -0.01 0.58 -0.98 9.81 0.04 0.07 -0.06 10522
0.11 -0.01 0.55 -1.00 9.80 0.05 0.07 -0.06 10529
0.14 -0.01 0.62 -1.00 9.80 0.06 0.08 -0.07 10536
0.16 -0.01 0.49 -0.99 9.84 0.06 0.09 -0.07 10544
0.13 -0.01 0.54 -1.05 9.82 0.08 0.10 -0.06 10551
0.13 -0.01 0.59 -1.00 9.81 0.08 0.11 -0.05 10558
0.12 -0.01 0.44 -0.95 9.80 0.10 0.12 -0.05 10565
0.13 -0.01 0.51 -0.95 9.83 0.11 0.12 -0.06 10572
0.15 0.01 0.65 -1.02 9.76 0.13 0.13 -0.06 10579
0.14 0.01 0.70 -1.05 9.77 0.16 0.14 -0.05 10587
0.15 0.00 0.67 -0.97 9.83 0.21 0.18 -0.07 10594
0.17 -0.02 0.57 -1.01 10.05 0.28 0.20 -0.08 10601
0.22 -0.02 0.72 -1.07 10.06 0.39 0.26 -0.09 10608
0.25 -0.01 0.77 -1.12 9.99 0.51 0.29 -0.09 10615
0.30 -0.02 0.68 -1.16 10.32 0.67 0.31 -0.08 10622
0.30 -0.02 0.65 -1.25 10.36 0.82 0.36 -0.09 10630
0.33 -0.03 0.73 -1.42 10.42 0.92 0.36 -0.10 10638
0.34 -0.02 0.64 -1.43 10.65 1.03 0.36 -0.12 10645
0.37 -0.02 0.81 -1.58 10.74 1.09 0.30 -0.14 10652
0.42 -0.02 0.90 -1.74 11.07 1.16 0.26 -0.16 10659
0.47 -0.02 0.74 -1.83 11.33 1.24 0.20 -0.17 10667
0.46 -0.02 0.70 -1.96 11.49 1.35 0.10 -0.18 10674
0.47 -0.04 0.89 -1.91 11.91 1.49 0.08 -0.18 10681
0.49 -0.03 0.92 -2.07 11.98 1.65 0.06 -0.18 10688
0.47 -0.03 0.83 -2.15 11.90 1.76 0.08 -0.20 10695
0.46 -0.02 0.62 -2.25 11.98 1.91 0.09 -0.19 10702
0.44 -0.02 0.18 -1.98 10.77 2.03 0.07 -0.18 10710
0.39 -0.02 1.18 -2.67 11.46 2.18 0.12 -0.16 10717
0.32 -0.03 0.88 -2.67 11.79 2.35 0.17 -0.15 10724
0.28 -0.02 0.02 -2.70 12.01 2.50 0.24 -0.14 10730
0.26 -0.01 0.31 -2.97 12.23 2.67 0.35 -0.12 10738
0.17 -0.02 0.67 -3.27 12.33 2.83 0.47 -0.10 10744
0.14 -0.01 0.86 -3.37 12.36 3.02 0.54 -0.09 10752
0.09 -0.01 1.11 -3.70 12.71 3.20 0.60 -0.08 10759
0.10 -0.01 1.22 -4.11 13.25 3.32 0.63 -0.10 10766
0.08 -0.01 1.12 -4.44 13.65 3.46 0.66 -0.09 10773
0.07 -0.01 1.41 -5.09 14.30 3.56 0.67 -0.06 10780
0.07 -0.01 1.59 -6.13 15.57 3.64 0.72 -0.04 10787
0.03 -0.00 2.06 -6.59 16.00 3.65 0.84 -0.01 10795
0.03 -0.00 1.65 -6.96 15.91 3.63 0.94 0.01 10802
0.02 -0.00 0.80 -6.93 15.27 3.57 0.92 0.02 10809
0.02 -0.00 1.37 -5.71 14.44 3.46 0.86 0.06 10816
0.04 -0.00 3.03 -6.63 12.81 3.34 0.95 0.10 10823
0.05 -0.00 1.04 -5.91 15.42 3.14 1.09 0.07 10830
0.02 -0.00 0.80 -6.15 14.89 3.04 1.13 0.03 10838
0.00 0.00 0.15 -5.67 14.63 3.04 1.01 -0.01 10845
0.00 0.00 -0.75 -4.03 14.93 2.96 0.73 -0.04 10852
0.00 0.00 -1.23 0.04 14.95 2.85 0.57 -0.02 10859
0.00 0.00 -1.92 3.43 13.73 2.60 0.41 -0.00 10866
0.00 0.00 -1.51 11.47 10.46 2.16 0.15 -0.19 10873
0.00 0.00 -4.61 14.65 6.19 1.27 -0.11 -0.80 10881
0.00 0.00 -0.79 9.41 2.10 0.38 -0.77 -1.61 10888
0.00 0.00 -2.25 10.46 9.93 -0.33 -0.87 -2.13 10895
0.00 0.00 -0.76 8.36 11.23 -0.93 -0.45 -2.60 10902
0.00 0.00 -0.60 6.55 10.06 -1.13 -0.38 -3.07 10909
0.00 0.00 -1.41 6.08 7.97 -1.20 -0.42 -3.38 10916
0.00 0.00 -1.23 6.28 6.68 -1.29 -0.53 -3.65 10924
0.00 0.00 -0.44 6.16 5.99 -1.39 -0.71 -3.85 10931
0.00 0.00 0.22 5.52 6.10 -1.52 -0.95 -3.96 10938
0.00 0.00 1.36 4.96 6.72 -1.64 -1.14 -4.01 10945
0.00 -0.00 2.29 4.54 7.42 -1.81 -1.20 -3.95 10952
0.00 0.00 3.48 4.41 7.75 -2.01 -1.15 -3.86 10959
0.00 0.00 4.07 4.37 7.97 -2.20 -1.05 -3.68 10967
0.00 0.00 4.59 4.10 8.19 -2.45 -0.96 -3.49 10974
0.00 0.00 5.06 3.66 8.54 -2.69 -0.78 -3.24 10981
0.00 0.00 5.45 2.57 8.81 -2.85 -0.59 -2.95 10988
0.00 0.00 5.80 2.23 9.12 -3.01 -0.37 -2.67 10995
0.00 0.00 6.12 1.13 9.29 -3.12 -0.13 -2.34 11002
0.00 0.00 6.36 0.44 9.46 -3.20 0.07 -2.04 11010
0.00 0.00 6.61 -0.08 9.66 -3.25 0.31 -1.68 11017
0.00 0.00 6.70 -0.60 9.79 -3.26 0.48 -1.34 11024
0.00 0.00 6.67 -0.99 9.95 -3.25 0.68 -1.07 11031
0.00 -0.00 6.64 -1.59 10.42 -3.23 0.87 -0.77 11038
0.00 0.00 6.58 -2.31 11.02 -3.17 1.02 -0.55 11045
0.00 0.00 6.37 -3.21 11.67 -3.10 1.21 -0.30 11053
0.00 0.00 6.14 -3.83 12.51 -3.03 1.39 -0.08 11060
0.00 0.00 5.94 -4.43 13.35 -2.94 1.58 0.08 11067
0.00 0.00 5.48 -4.87 14.06 -2.87 1.76 0.25 11074
0.00 0.00 4.95 -5.36 14.63 -2.81 1.90 0.43 11081
0.00 0.00 4.27 -6.08 15.00 -2.75 2.01 0.56 11088
0.00 0.00 3.67 -7.00 15.36 -2.69 2.03 0.73 11096
0.00 0.00 2.93 -7.82 15.43 -2.60 1.98 0.88 11103
0.00 0.00 2.26 -8.88 15.16 -2.45 1.85 1.06 11110
0.00 -0.00 2.08 -9.44 14.56 -2.33 1.70 1.24 11117
0.00 0.00 2.21 -9.42 14.04 -2.16 1.50 1.38 11124
0.00 0.00 2.51 -9.10 13.45 -2.00 1.35 1.52 11131
0.00 0.00 2.85 -9.01 12.35 -1.82 1.30 1.61 11139
0.00 0.00 2.94 -9.01 12.48 -1.63 1.30 1.67 11146
0.00 0.00 2.75 -8.89 12.07 -1.46 1.34 1.71 11153
0.00 -0.00 2.19 -8.70 12.03 -1.24 1.36 1.73 11160
0.00 0.00 1.51 -8.36 12.09 -1.08 1.33 1.73 11167
0.00 0.00 0.99 -8.15 12.28 -0.90 1.26 1.74 11174
0.00 0.00 0.51 -8.14 12.67 -0.77 1.11 1.71 11182
0.00 0.00 0.30 -8.35 13.24 -0.69 0.95 1.68 11189
0.00 0.00 0.32 -8.43 13.52 -0.65 0.79 1.65 11196
0.00 -0.00 0.82 -8.43 13.31 -0.65 0.74 1.64 11203
0.00 0.00 1.00 -7.36 12.42 -0.68 0.80 1.70 11210
0.00 0.00 0.81 -7.22 11.40 -0.69 0.99 1.77 11217
0.00 0.00 0.34 -6.98 10.74 -0.67 1.30 1.94 11225
0.00 0.00 -0.20 -7.34 10.40 -0.61 1.47 2.10 11232
0.00 0.00 -0.98 -7.73 10.30 -0.53 1.59 2.29 11239
0.00 0.00 -5.07 -11.82 15.75 -0.35 1.48 2.48 11246
0.00 0.00 -0.79 -7.59 9.13 -0.14 1.33 2.63 11253
0.00 0.00 -2.68 -8.27 9.77 -0.10 1.16 2.72 11260
0.00 0.00 -3.23 -8.47 11.88 -0.16 0.90 2.76 11268
0.00 0.00 -2.96 -8.34 11.66 -0.28 0.65 2.76 11275
0.00 0.00 -2.88 -8.89 11.90 -0.43 0.43 2.67 11282
0.00 0.00 -2.35 -8.95 11.26 -0.65 0.22 2.55 11289
0.00 0.00 -1.83 -9.18 9.68 -0.82 0.11 2.33 11296
0.00 0.00 -2.11 -11.22 6.36 -0.96 0.15 2.09 11303
0.00 0.00 -2.48 -12.78 6.54 -0.69 0.06 1.74 11311
0.00 0.00 -1.60 -13.17 4.19 -0.50 0.18 1.29 11318
0.00 0.00 -2.09 -14.85 4.27 -0.07 0.33 0.88 11325
0.00 0.00 -3.18 -15.47 4.76 0.34 0.48 0.42 11332
0.00 0.00 -4.04 -15.25 5.97 0.65 0.58 0.01 11339
0.00 0.00 -5.35 -14.64 7.14 0.93 0.55 -0.22 11346
0.00 0.00 -6.11 -13.74 7.90 1.07 0.40 -0.40 11354
0.00 0.00 -7.15 -13.64 8.65 1.12 0.12 -0.47 11361
0.00 0.00 -8.44 -13.69 8.32 1.10 -0.45 -0.47 11368
0.00 0.00 -9.62 -14.99 7.02 1.09 -1.21 -0.43 11375
0.00 0.00 -9.16 -15.53 6.87 1.12 -2.33 -0.43 11382
-0.00 0.01 0.26 1.38 11.83 1.26 -3.20 -0.51 11389
-0.00 0.03 -1.41 -6.96 12.90 1.88 -1.77 -0.31 11397
-0.01 0.09 0.15 -0.21 14.42 1.59 -1.43 -0.18 11404
-0.01 0.16 0.08 0.47 11.65 0.75 -2.25 -0.24 11412
-0.01 0.26 -1.68 -3.42 15.55 0.26 -1.96 -0.24 11419
-0.03 0.31 -0.25 -1.43 9.97 0.00 -0.64 -0.12 11425
-0.03 0.34 -0.27 -1.27 10.51 -0.06 -0.33 -0.09 11432
-0.02 0.35 0.20 -1.70 9.87 -0.06 -0.15 -0.04 11440
-0.03 0.41 0.26 -1.28 10.10 -0.06 -0.06 -0.01 11447
-0.02 0.41 -0.03 -0.94 10.13 -0.04 -0.02 -0.00 11454
-0.03 0.39 0.08 -0.85 9.84 -0.02 0.04 -0.02 11461
0.00 0.35 0.27 -0.83 9.82 0.00 0.07 -0.01 11468
-0.00 0.36 0.35 -0.90 9.82 0.01 0.09 0.00 11475
0.01 0.36 0.36 -0.81 9.77 0.01 0.09 -0.00 11483
0.01 0.36 0.43 -0.80 9.74 0.02 0.08 -0.01 11490
0.01 0.34 0.48 -0.98 9.70 0.01 0.05 -0.02 11497
0.01 0.32 0.48 -1.00 9.74 -0.01 0.03 -0.03 11504
0.04 0.32 0.46 -0.91 9.68 -0.02 0.00 -0.03 11511
0.02 0.33 0.39 -0.91 9.82 -0.03 -0.01 -0.04 11518
-0.00 0.34 0.26 -0.85 9.76 -0.03 -0.00 -0.04 11526
0.02 0.34 0.24 -0.85 9.86 -0.03 0.01 -0.05 11533
0.07 0.35 0.24 -0.83 9.83 -0.03 0.03 -0.05 11540
0.05 0.34 0.19 -0.77 9.82 -0.02 0.04 -0.04 11547
0.03 0.35 0.36 -0.95 9.85 -0.01 0.06 -0.04 11554
0.04 0.37 0.35 -0.97 9.83 -0.01 0.07 -0.04 11561
0.04 0.41 0.30 -0.89 9.83 -0.01 0.08 -0.04 11569
0.08 0.41 0.30 -0.88 9.84 -0.01 0.08 -0.04 11576
0.06 0.39 0.36 -0.88 9.82 -0.01 0.09 -0.04 11583
0.06 0.38 0.36 -0.91 9.81 0.00 0.09 -0.04 11590
0.05 0.37 0.39 -0.87 9.81 -0.01 0.09 -0.04 11597
0.05 0.38 0.37 -0.87 9.82 0.00 0.09 -0.04 11604
0.06 0.42 0.44 -0.86 9.81 0.01 0.08 -0.05 11612
0.07 0.39 0.40 -0.84 9.81 0.01 0.06 -0.05 11619
0.07 0.37 0.40 -0.85 9.82 0.01 0.05 -0.05 11626
0.08 0.32 0.41 -0.84 9.81 0.01 0.05 -0.06 11633
0.07 0.31 0.37 -0.88 9.81 0.02 0.04 -0.05 11640
0.08 0.31 0.39 -0.83 9.87 0.02 0.04 -0.05 11648
0.08 0.30 0.38 -0.88 9.76 0.02 0.04 -0.06 11655
0.09 0.29 0.33 -0.87 9.80 0.02 0.05 -0.06 11662
0.09 0.25 0.38 -0.87 9.79 0.02 0.05 -0.05 11669
0.07 0.19 0.37 -0.90 9.79 0.02 0.05 -0.06 11676
0.07 0.20 0.35 -0.92 9.78 0.02 0.06 -0.06 11683
0.08 0.21 0.37 -0.89 9.81 0.02 0.05 -0.05 11691
0.09 0.17 0.41 -0.90 9.81 0.02 0.05 -0.05 11698
0.07 0.15 0.41 -0.89 9.80 0.02 0.04 -0.06 11705
0.07 0.10 0.40 -0.90 9.78 0.03 0.04 -0.06 11712
0.07 0.11 0.38 -0.88 9.79 0.02 0.03 -0.06 11719
0.07 0.09 0.38 -0.90 9.81 0.02 0.03 -0.06 11726
0.10 0.08 0.40 -0.88 9.80 0.02 0.02 -0.06 11734
0.07 0.08 0.37 -0.90 9.80 0.02 0.02 -0.06 11741
0.07 0.06 0.37 -0.92 9.76 0.02 0.02 -0.06 11748
0.09 0.05 0.36 -0.94 9.80 0.02 0.02 -0.06 11755
0.10 0.05 0.37 -0.94 9.79 0.01 0.02 -0.06 11762
0.10 0.05 0.38 -0.92 9.78 0.01 0.02 -0.06 11769
0.10 0.06 0.36 -0.95 9.79 0.01 0.03 -0.06 11777
0.12 0.05 0.38 -0.90 9.80 0.01 0.03 -0.06 11784
0.11 0.02 0.34 -0.90 9.80 0.02 0.04 -0.06 11791
0.12 0.04 0.40 -0.93 9.81 0.02 0.04 -0.06 11798
0.13 0.04 0.38 -0.92 9.79 0.02 0.04 -0.06 11805
0.17 0.01 0.39 -0.91 9.81 0.02 0.04 -0.06 11812
0.19 0.00 0.36 -0.91 9.85 0.02 0.04 -0.06 11820
0.21 -0.01 0.35 -0.94 9.81 0.02 0.04 -0.06 11827
0.20 -0.01 0.30 -0.99 9.80 0.02 0.05 -0.06 11834
0.20 -0.00 0.35 -0.95 9.80 0.03 0.05 -0.06 11841
0.19 0.00 0.37 -0.94 9.83 0.03 0.05 -0.06 11848
0.22 0.01 0.41 -0.96 9.80 0.02 0.04 -0.06 11855
0.25 0.00 0.37 -0.95 9.81 0.03 0.04 -0.06 11863
0.27 -0.02 0.38 -0.97 9.80 0.02 0.03 -0.06 11870
0.28 -0.01 0.42 -0.94 9.80 0.03 0.01 -0.07 11877
0.31 -0.01 0.41 -0.98 9.81 0.03 0.01 -0.07 11884
0.29 -0.01 0.39 -0.99 9.82 0.03 -0.01 -0.07 11891
0.32 -0.01 0.39 -0.97 9.81 0.03 -0.01 -0.07 11898
0.35 -0.02 0.39 -1.02 9.80 0.03 -0.01 -0.07 11906
0.38 -0.02 0.48 -0.96 9.81 0.03 -0.02 -0.08 11913
0.39 -0.02 0.33 -1.01 9.79 0.03 -0.02 -0.08 11920
0.41 -0.04 0.32 -1.00 9.78 0.03 -0.01 -0.08 11927
0.43 -0.01 0.32 -1.03 9.77 0.03 -0.01 -0.08 11934
0.47 -0.02 0.32 -1.05 9.71 0.03 -0.01 -0.08 11941
0.51 -0.03 0.31 -1.01 9.82 0.03 -0.00 -0.09 11949
0.52 -0.02 0.33 -1.00 9.78 0.04 0.00 -0.08 11956
0.55 -0.02 0.29 -0.98 9.79 0.04 0.01 -0.08 11963
0.59 -0.04 0.32 -0.99 9.80 0.05 0.01 -0.08 11970
0.65 -0.03 0.35 -0.98 9.84 0.06 0.01 -0.09 11977
0.67 -0.01 0.31 -1.03 9.83 0.08 0.02 -0.09 11984
0.72 -0.03 0.40 -1.05 9.84 0.11 0.03 -0.10 11992
0.78 -0.03 0.37 -1.14 9.87 0.15 0.03 -0.10 11999
0.79 -0.04 0.40 -1.08 9.97 0.19 0.05 -0.12 12006
0.84 -0.02 0.74 -1.05 9.92 0.29 0.07 -0.13 12013
0.83 -0.02 0.33 -1.13 10.24 0.54 0.12 -0.13 12021
0.89 -0.01 0.38 -1.20 10.48 0.79 0.12 -0.13 12027
0.93 -0.01 0.47 -1.40 10.52 0.94 0.12 -0.17 12036
1.02 -0.04 0.48 -1.50 11.30 0.99 0.07 -0.18 12042
1.09 -0.05 0.29 -1.42 11.10 1.03 -0.06 -0.18 12050
1.15 -0.05 0.55 -1.50 11.14 1.09 -0.09 -0.19 12057
1.17 -0.04 0.40 -1.61 11.20 1.14 -0.10 -0.19 12064
1.20 -0.04 0.36 -1.59 11.44 1.25 -0.10 -0.20 12071
1.21 -0.04 0.59 -1.76 11.12 1.34 -0.11 -0.20 12079
1.22 -0.04 0.34 -1.91 11.95 1.45 -0.10 -0.21 12086
1.24 -0.06 0.18 -1.79 11.91 1.55 -0.11 -0.21 12093
1.23 -0.04 0.14 -1.92 12.00 1.71 -0.13 -0.21 12100
1.22 -0.05 0.31 -2.02 11.77 1.86 -0.14 -0.23 12107
1.20 -0.04 0.27 -2.27 11.54 1.99 -0.15 -0.25 12114
1.16 -0.05 0.51 -2.43 11.01 2.13 -0.16 -0.25 12122
1.10 -0.05 0.22 -2.62 11.50 2.29 -0.12 -0.23 12129
1.04 -0.05 0.04 -2.63 11.35 2.41 -0.06 -0.22 12136
0.99 -0.04 -0.08 -2.81 11.64 2.59 0.07 -0.19 12143
0.86 -0.02 0.49 -3.17 11.51 2.75 0.21 -0.17 12150
0.72 -0.03 0.49 -3.17 12.74 2.99 0.37 -0.16 12157
0.56 -0.02 -0.54 -3.41 12.77 3.23 0.50 -0.14 12165
0.30 -0.03 -0.85 -4.04 14.09 3.32 0.37 -0.08 12171
0.22 -0.02 0.20 -4.59 16.34 3.53 0.60 -0.04 12178
0.15 -0.02 -0.91 -5.31 16.06 3.71 0.79 0.04 12185
0.12 -0.00 -0.95 -5.76 14.64 3.74 0.89 0.15 12193
0.08 -0.01 0.20 -6.62 16.32 3.69 0.95 0.24 12199
0.05 -0.01 0.63 -7.59 16.85 3.60 1.06 0.28 12207
0.04 -0.00 -0.30 -7.27 16.20 3.50 1.09 0.28 12214
0.04 -0.00 -0.25 -6.15 14.90 3.39 0.98 0.27 12221
0.04 -0.00 -0.96 -3.02 16.12 3.17 0.89 0.25 12228
0.04 -0.00 -0.91 -7.52 16.63 2.87 0.59 0.23 12235
0.04 -0.00 0.45 -6.46 13.39 2.78 0.35 0.20 12242
0.04 -0.00 0.74 -4.76 13.58 2.73 0.22 0.18 12250
0.00 0.00 1.46 -3.12 14.96 2.65 0.16 0.16 12257
0.00 0.00 0.80 1.38 15.27 2.52 0.09 0.12 12264
0.00 0.00 -0.25 7.56 12.60 2.27 0.10 -0.00 12271
0.00 0.00 -2.18 14.84 10.22 1.77 0.05 -0.44 12278
0.01 -0.00 0.21 9.94 2.79 1.01 -0.09 -1.09 12285
0.00 0.00 -1.54 9.96 4.96 0.43 -0.60 -1.52 12293
0.00 0.00 -2.34 9.96 8.42 -0.40 -0.59 -1.94 12300
0.00 0.00 -0.83 8.44 8.68 -0.97 -0.52 -2.30 12307
0.00 0.00 -0.76 6.23 7.60 -1.17 -0.67 -2.65 12314
0.01 -0.00 -1.04 5.16 6.61 -1.27 -0.81 -2.88 12321
0.00 0.00 -0.40 4.97 5.53 -1.35 -0.92 -3.11 12328
0.00 0.00 0.49 4.95 5.11 -1.44 -1.01 -3.29 12336
0.00 0.00 1.34 4.63 5.19 -1.54 -1.07 -3.37 12343
0.00 0.00 2.42 4.28 6.03 -1.66 -0.99 -3.40 12350
0.00 0.00 3.37 4.16 7.04 -1.84 -0.82 -3.35 12357
0.00 -0.00 4.29 3.90 7.30 -2.06 -0.52 -3.22 12364
0.00 0.00 4.42 3.55 7.74 -2.29 -0.30 -3.02 12371
0.00 0.00 4.20 3.03 7.89 -2.55 -0.11 -2.82 12379
0.00 0.00 4.07 1.99 8.31 -2.72 -0.03 -2.54 12386
0.00 0.00 4.01 0.79 8.67 -2.85 -0.05 -2.27 12393
0.00 0.00 4.20 -0.67 8.81 -2.88 -0.16 -1.93 12400
0.01 -0.00 4.85 -1.86 8.88 -2.85 -0.27 -1.56 12407
0.00 0.00 4.88 -2.30 8.91 -2.79 -0.37 -1.24 12414
0.00 0.00 5.77 -2.09 9.07 -2.72 -0.40 -0.89 12422
0.00 0.00 6.43 -2.01 9.41 -2.64 -0.29 -0.59 12429
0.00 0.00 7.04 -2.41 9.72 -2.59 -0.03 -0.36 12436
0.00 -0.00 7.18 -2.88 10.40 -2.55 0.33 -0.15 12443
0.00 -0.00 6.99 -3.31 11.14 -2.52 0.67 -0.00 12450
0.00 0.00 6.65 -3.96 12.89 -2.50 1.09 0.14 12457
0.00 0.00 5.64 -4.36 12.16 -2.48 1.37 0.25 12465
0.00 0.00 4.63 -4.96 12.45 -2.46 1.58 0.36 12472
0.00 0.00 3.63 -5.65 12.99 -2.42 1.65 0.47 12479
0.00 0.00 2.97 -6.11 13.41 -2.37 1.62 0.56 12486
0.00 0.00 2.39 -6.44 13.71 -2.32 1.49 0.67 12493
0.00 0.00 2.11 -6.43 13.60 -2.28 1.34 0.77 12500
0.00 0.00 2.12 -6.06 13.37 -2.24 1.18 0.85 12508
0.00 0.00 2.22 -5.79 13.14 -2.20 1.09 0.91 12515
0.00 0.00 2.22 -5.72 13.04 -2.14 1.08 0.95 12522
0.00 -0.00 2.26 -5.79 12.98 -2.05 1.14 0.99 12529
0.00 0.00 2.01 -5.77 12.95 -1.97 1.21 1.00 12536
0.00 0.00 1.64 -5.88 12.68 -1.86 1.29 1.00 12544
0.00 0.00 1.13 -5.97 12.37 -1.72 1.32 0.98 12551
0.00 0.00 0.71 -6.74 12.02 -1.60 1.30 0.96 12558
0.00 0.00 0.30 -6.27 11.92 -1.45 1.21 0.94 12565
0.00 0.00 0.19 -6.33 11.86 -1.30 1.13 0.91 12572
0.00 0.00 0.33 -6.37 11.92 -1.15 1.03 0.88 12579
0.00 0.00 0.47 -6.43 12.26 -1.03 0.94 0.86 12587
0.00 0.00 0.68 -6.36 12.84 -0.94 0.90 0.85 12594
0.00 0.00 0.94 -6.32 13.33 -0.91 0.89 0.84 12601
-0.00 0.00 1.25 -6.29 13.58 -0.93 0.95 0.85 12608
0.00 0.00 1.40 -6.33 13.35 -0.98 1.04 0.86 12615
0.00 0.00 1.33 -6.43 12.88 -1.04 1.15 0.89 12622
0.00 0.00 1.15 -6.71 12.20 -1.05 1.24 0.93 12630
0.00 0.00 0.74 -6.95 11.64 -1.02 1.29 0.96 12637
0.00 0.00 0.26 -7.02 10.86 -0.94 1.28 1.00 12644
0.00 0.00 -0.09 -7.18 10.37 -0.82 1.24 1.03 12651
0.00 0.00 -0.55 -7.31 9.98 -0.65 1.17 1.06 12658
0.00 0.00 -0.95 -7.48 9.61 -0.47 1.12 1.09 12665
0.00 0.00 -1.30 -7.58 9.38 -0.28 1.04 1.10 12673
0.00 0.00 -1.59 -7.58 9.41 -0.12 0.95 1.09 12680
0.00 0.00 -1.44 -7.32 9.76 -0.03 0.90 1.06 12687
0.00 0.00 -1.09 -7.29 10.37 -0.02 0.93 1.00 12694
0.00 0.00 -1.15 -7.07 11.00 -0.12 1.03 0.91 12701
0.00 0.00 -1.57 -6.97 10.47 -0.32 1.08 0.82 12708
0.00 0.00 -2.23 -7.06 10.47 -0.57 1.10 0.70 12716
0.00 0.00 -2.76 -7.96 9.80 -0.73 1.03 0.54 12723
0.00 0.00 -3.05 -7.84 8.95 -0.82 0.88 0.40 12730
0.00 -0.00 -3.04 -8.14 7.96 -0.79 0.70 0.24 12737
0.00 0.00 -2.97 -8.29 7.28 -0.66 0.57 0.10 12744
0.00 0.00 -2.67 -8.41 6.93 -0.47 0.48 -0.05 12751
0.00 0.00 -2.37 -8.22 7.09 -0.29 0.44 -0.18 12759
0.00 0.00 -1.88 -7.93 7.34 -0.11 0.46 -0.27 12766
0.00 0.00 -1.70 -7.49 7.77 -0.02 0.56 -0.36 12773
0.00 0.00 -1.67 -7.17 8.27 0.01 0.68 -0.40 12780
0.00 0.00 -2.08 -7.01 8.54 -0.02 0.81 -0.41 12787
0.00 0.00 -2.65 -6.83 8.73 -0.07 0.86 -0.39 12794
0.00 0.00 -3.40 -6.88 8.52 -0.10 0.80 -0.34 12802
0.00 0.00 -4.03 -7.18 7.97 -0.07 0.64 -0.25 12809
0.00 0.00 -4.25 -7.58 7.41 -0.04 0.46 -0.11 12816
0.00 -0.00 -19.26 -11.52 21.47 0.81 -1.33 0.28 12824
0.00 0.00 -7.17 -7.01 8.63 0.82 -2.08 0.55 12830
0.00 0.00 -6.71 -6.92 6.14 0.84 -2.55 0.66 12837
0.00 0.00 -5.80 -11.58 7.43 0.87 -3.07 0.92 12845
0.00 0.00 -1.52 2.06 16.52 1.02 -3.35 1.05 12852
-0.00 0.01 -6.71 2.01 6.30 1.62 -0.99 1.14 12859
-0.00 0.05 -6.61 -1.88 17.36 1.46 -0.65 1.30 12866
-0.02 0.18 -8.84 3.24 5.98 1.35 -0.89 0.90 12873
-0.02 0.29 -8.68 0.14 8.81 1.65 -1.56 0.11 12880
-0.02 0.28 -2.13 -1.55 10.32 2.03 -1.51 -0.49 12889
-0.01 0.29 -3.26 -5.53 17.97 0.73 -2.50 -0.42 12896
-0.01 0.26 0.66 -0.90 8.22 -0.16 0.12 -0.05 12902
-0.02 0.30 0.50 -1.59 9.47 -0.17 0.04 -0.07 12909
-0.02 0.36 0.49 -1.88 10.17 -0.12 -0.06 -0.06 12917
-0.03 0.41 0.02 -0.66 10.02 -0.08 -0.02 -0.03 12923
-0.00 0.37 0.00 -0.87 10.04 -0.03 0.03 -0.05 12931
0.01 0.38 0.45 -1.10 9.92 -0.02 0.06 -0.03 12938
0.01 0.40 0.31 -0.82 9.83 -0.01 0.07 -0.02 12945
0.01 0.42 0.37 -0.91 9.79 -0.00 0.09 -0.02 12952
-0.01 0.41 0.43 -0.95 9.79 -0.01 0.09 -0.02 12959
-0.02 0.41 0.44 -0.88 9.76 -0.01 0.08 -0.02 12966
-0.02 0.42 0.46 -0.91 9.75 -0.01 0.06 -0.03 12974
-0.01 0.45 0.47 -0.90 9.76 -0.01 0.05 -0.04 12981
0.02 0.41 0.46 -0.90 9.74 -0.02 0.04 -0.04 12988
0.00 0.42 0.37 -0.91 9.75 -0.02 0.04 -0.05 12995
0.02 0.42 0.26 -0.93 9.76 -0.03 0.05 -0.04 13002
-0.00 0.46 0.33 -0.87 9.78 -0.03 0.05 -0.05 13009
0.01 0.45 0.31 -0.86 9.80 -0.04 0.06 -0.04 13017
0.02 0.47 0.33 -0.83 9.80 -0.03 0.06 -0.04 13024
0.02 0.46 0.27 -0.91 9.89 -0.02 0.07 -0.04 13031
0.01 0.48 0.38 -0.92 9.86 -0.01 0.07 -0.04 13038
0.01 0.46 0.39 -0.89 9.80 -0.01 0.08 -0.04 13045
0.01 0.44 0.41 -0.89 9.85 -0.00 0.08 -0.04 13052
0.02 0.44 0.41 -0.88 9.82 -0.00 0.08 -0.04 13060
0.03 0.45 0.43 -0.90 9.83 -0.00 0.07 -0.04 13067
0.02 0.43 0.41 -0.87 9.82 0.00 0.07 -0.05 13074
0.01 0.44 0.43 -0.86 9.80 0.00 0.07 -0.05 13081
0.01 0.44 0.42 -0.86 9.82 0.00 0.06 -0.05 13088
0.01 0.43 0.41 -0.89 9.80 0.01 0.06 -0.05 13095
0.03 0.43 0.37 -0.84 9.80 0.01 0.06 -0.05 13103
0.04 0.42 0.39 -0.87 9.81 0.01 0.07 -0.05 13110
0.04 0.39 0.34 -0.90 9.85 0.02 0.07 -0.05 13117
0.06 0.37 0.40 -0.89 9.82 0.02 0.07 -0.05 13124
0.04 0.34 0.42 -0.92 9.79 0.02 0.07 -0.05 13131
0.05 0.32 0.44 -0.94 9.80 0.02 0.07 -0.06 13138
0.06 0.30 0.42 -0.89 9.79 0.02 0.07 -0.06 13146
0.07 0.28 0.44 -0.91 9.80 0.02 0.07 -0.06 13153
0.08 0.25 0.44 -0.91 9.82 0.03 0.08 -0.06 13160
0.08 0.25 0.42 -0.85 9.75 0.02 0.07 -0.06 13167
0.07 0.21 0.47 -0.78 9.74 0.02 0.07 -0.06 13174
0.06 0.20 0.47 -0.87 9.79 0.02 0.07 -0.06 13181
0.08 0.18 0.38 -0.85 9.74 0.03 0.07 -0.06 13189
0.09 0.16 0.44 -0.87 9.76 0.02 0.07 -0.06 13196
0.08 0.13 0.45 -0.91 9.80 0.02 0.07 -0.06 13203
0.09 0.13 0.46 -0.91 9.80 0.02 0.07 -0.06 13210
0.07 0.14 0.46 -0.93 9.76 0.02 0.07 -0.06 13217
0.09 0.10 0.45 -0.93 9.80 0.02 0.07 -0.06 13224
0.10 0.07 0.47 -0.91 9.77 0.02 0.06 -0.06 13232
0.11 0.05 0.45 -0.91 9.78 0.02 0.10 -0.06 13239
0.11 0.03 0.45 -0.92 10.38 0.02 0.07 -0.06 13246
0.12 0.03 0.47 -0.97 9.81 0.02 0.07 -0.06 13253
0.10 0.04 0.43 -0.94 9.78 0.02 0.06 -0.06 13260
0.13 0.03 0.47 -0.92 9.80 0.02 0.06 -0.06 13267
0.14 0.05 0.46 -0.93 9.80 0.01 0.06 -0.06 13275
0.14 0.02 0.47 -0.95 10.41 0.02 0.06 -0.06 13282
0.14 0.02 0.46 -0.92 9.81 0.01 0.06 -0.06 13289
0.14 -0.01 0.45 -0.97 9.80 0.02 0.05 -0.06 13296
0.12 -0.00 0.50 -0.94 9.81 0.02 0.04 -0.06 13303
0.14 0.02 0.48 -0.95 9.79 0.01 0.04 -0.06 13310
0.17 0.02 0.46 -0.94 9.76 0.01 0.04 -0.06 13318
0.15 0.00 0.50 -0.96 9.76 0.01 0.03 -0.06 13325
0.16 -0.00 0.51 -0.94 9.79 0.01 0.03 -0.06 13332
0.16 -0.00 0.46 -0.98 9.78 0.01 0.01 -0.06 13339
0.17 0.01 0.51 -0.94 9.80 0.01 0.01 -0.07 13346
0.18 0.02 0.49 -0.94 9.76 0.01 -0.00 -0.04 13353
0.20 0.00 0.45 -0.95 9.80 0.01 -0.01 -0.07 13361
0.21 -0.01 0.46 -0.95 9.80 0.01 -0.02 -0.07 13368
0.22 -0.02 0.44 -0.94 9.80 0.00 -0.02 -0.07 13375
0.23 -0.02 0.41 -0.97 9.78 0.01 -0.01 -0.07 13382
0.27 -0.02 0.41 -0.96 9.81 0.00 -0.01 -0.07 13389
0.28 -0.00 0.46 -0.98 9.78 0.00 -0.00 -0.07 13396
0.30 -0.02 0.46 -0.95 9.81 0.01 0.00 -0.07 13404
0.31 -0.02 0.40 -0.95 10.39 0.01 0.00 -0.07 13411
0.35 -0.02 0.42 -0.95 9.80 0.01 0.01 -0.08 13418
0.39 -0.02 0.43 -0.96 9.80 0.02 0.01 -0.08 13425
0.40 -0.02 0.39 -1.02 9.82 0.02 0.02 -0.08 13432
0.41 -0.01 0.46 -1.00 9.81 0.02 0.02 -0.07 13440
0.41 -0.02 0.47 -0.96 9.80 0.03 0.03 -0.08 13447
0.44 -0.02 0.48 -1.08 9.81 0.05 0.03 -0.08 13454
0.46 -0.03 0.51 -1.06 9.82 0.05 0.04 -0.08 13461
0.49 -0.02 0.42 -1.02 9.91 0.07 0.04 -0.09 13468
0.52 -0.02 0.41 -1.01 9.87 0.08 0.05 -0.09 13475
0.56 -0.03 0.41 -1.05 9.82 0.10 0.05 -0.09 13483
0.57 -0.03 0.59 -1.06 9.96 0.14 0.06 -0.10 13490
0.66 -0.04 1.01 -1.26 9.85 0.19 0.08 -0.12 13497
0.71 -0.02 0.21 -0.91 10.10 0.26 0.13 -0.17 13505
0.75 -0.01 0.42 -1.10 10.47 0.58 0.20 -0.11 13512
0.80 -0.01 0.46 -1.16 10.21 0.89 0.22 -0.12 13519
0.87 -0.01 0.67 -1.27 10.50 1.01 0.25 -0.14 13527
0.87 -0.02 0.43 -1.31 11.01 1.01 0.15 -0.14 13534
0.90 -0.02 0.55 -1.37 10.49 1.04 0.08 -0.15 13540
0.92 -0.03 0.56 -1.62 11.28 1.11 0.05 -0.14 13548
0.96 -0.04 1.21 -1.65 11.11 1.17 0.06 -0.16 13555
0.98 -0.02 0.63 -1.77 10.93 1.28 0.03 -0.16 13562
1.02 -0.04 0.30 -1.56 11.36 1.38 0.03 -0.17 13570
1.03 -0.04 0.75 -1.90 11.09 1.47 0.04 -0.18 13576
1.03 -0.05 0.48 -1.80 11.59 1.58 0.03 -0.17 13583
1.04 -0.05 0.59 -2.12 11.36 1.70 0.01 -0.20 13590
1.04 -0.05 0.64 -2.03 11.15 1.82 -0.03 -0.21 13598
1.00 -0.04 0.62 -2.35 11.12 1.94 -0.04 -0.22 13605
0.96 -0.04 0.35 -2.23 10.94 2.01 -0.04 -0.22 13613
0.90 -0.04 0.16 -2.52 10.97 2.12 -0.02 -0.20 13620
0.82 -0.05 0.37 -2.88 11.17 2.21 0.02 -0.19 13627
0.74 -0.03 0.56 -2.80 12.07 2.35 0.08 -0.17 13634
0.67 -0.03 0.39 -3.10 10.75 2.50 0.08 -0.16 13640
0.61 -0.03 0.39 -3.21 11.85 2.66 0.19 -0.16 13648
0.49 -0.02 0.30 -3.40 11.78 2.84 0.25 -0.17 13656
0.41 -0.02 -1.02 -3.85 9.47 2.95 0.08 -0.14 13662
0.25 -0.03 0.35 -4.41 14.15 3.11 0.28 -0.10 13669
0.16 -0.02 0.23 -4.41 13.28 3.32 0.39 -0.09 13676
0.12 -0.01 0.08 -5.00 13.65 3.42 0.39 -0.02 13683
0.13 -0.01 0.48 -5.86 13.89 3.47 0.51 0.02 13690
0.12 -0.01 0.52 -6.67 15.41 3.52 0.66 0.08 13698
0.09 -0.01 0.61 -6.93 15.44 3.49 0.75 0.12 13705
0.08 -0.01 0.16 -7.56 15.73 3.41 0.83 0.15 13712
0.08 -0.01 0.56 -6.93 14.61 3.33 0.78 0.15 13719
0.09 -0.01 0.56 -5.62 14.71 3.23 0.72 0.15 13726
0.09 -0.01 0.31 -6.08 13.61 3.02 0.66 0.13 13733
0.07 -0.01 -0.70 -7.13 14.43 2.76 0.46 0.12 13741
0.07 -0.01 0.46 -5.77 12.63 2.72 0.28 0.09 13748
0.05 -0.00 1.00 -3.54 12.49 2.66 0.14 0.04 13755
0.00 0.00 1.54 -1.20 13.52 2.53 0.12 -0.01 13762
0.00 -0.00 1.12 1.76 13.54 2.31 0.07 -0.11 13769
0.01 -0.00 0.09 7.21 12.82 2.08 0.03 -0.31 13776
0.01 -0.00 -1.20 13.78 11.65 1.50 0.18 -0.76 13784
0.01 -0.00 0.40 9.08 4.05 0.86 0.14 -1.64 13791
0.00 -0.00 -2.94 10.32 7.57 0.23 -0.06 -2.14 13798
0.00 -0.00 -3.35 10.43 9.44 -0.53 0.02 -2.64 13805
0.01 -0.00 -2.45 8.99 9.11 -0.99 -0.14 -3.10 13812
0.02 -0.00 -2.71 7.70 8.37 -1.21 -0.49 -3.38 13819
0.00 0.00 -2.34 6.77 7.77 -1.29 -0.76 -3.59 13827
0.00 0.00 -1.27 6.11 6.99 -1.39 -0.97 -3.70 13834
0.00 0.00 0.02 5.82 6.54 -1.50 -1.15 -3.75 13841
0.00 0.00 0.84 5.54 6.86 -1.64 -1.21 -3.74 13848
0.00 -0.00 1.92 5.20 7.08 -1.83 -1.14 -3.69 13855
0.00 0.00 2.87 4.55 7.34 -2.02 -0.97 -3.57 13862
0.00 0.00 3.29 4.39 7.37 -2.23 -0.82 -3.42 13870
0.00 0.00 3.64 3.79 7.40 -2.42 -0.62 -3.21 13877
0.00 0.00 3.87 3.08 7.64 -2.54 -0.46 -2.96 13884
0.00 0.00 4.22 2.38 7.99 -2.64 -0.25 -2.71 13891
0.00 -0.00 4.43 1.72 8.44 -2.73 -0.02 -2.42 13898
0.00 0.00 4.65 0.64 9.07 -2.74 0.21 -2.11 13905
0.00 0.00 4.68 0.68 9.48 -2.77 0.47 -1.88 13913
0.00 0.00 4.75 0.23 10.26 -2.81 0.72 -1.59 13920
0.00 0.00 4.74 -0.12 11.00 -2.87 0.94 -1.34 13927
-0.00 0.00 4.69 -0.74 11.68 -2.96 1.16 -1.08 13934
0.00 0.00 4.35 -1.54 12.18 -3.04 1.29 -0.83 13941
0.00 -0.00 3.85 -2.48 12.73 -3.12 1.38 -0.61 13948
0.00 0.00 3.44 -3.37 13.14 -3.14 1.42 -0.34 13956
0.00 0.00 3.31 -4.21 13.46 -3.10 1.44 -0.11 13963
0.00 0.00 3.07 -5.07 13.60 -3.01 1.47 0.13 13970
0.00 0.00 3.00 -5.70 13.86 -2.92 1.52 0.36 13977
0.00 -0.00 2.97 -6.13 13.98 -2.79 1.60 0.53 13984
0.00 0.00 2.74 -6.55 13.86 -2.66 1.67 0.72 13991
0.00 0.00 2.46 -6.80 13.58 -2.49 1.73 0.87 13999
0.00 0.00 2.06 -6.93 13.45 -2.32 1.75 1.03 14006
0.00 0.00 1.75 -7.07 13.35 -2.15 1.76 1.17 14013
0.00 0.00 1.42 -7.14 13.33 -1.97 1.74 1.27 14020
0.00 -0.00 1.14 -7.21 13.29 -1.79 1.70 1.36 14027
0.00 -0.00 0.93 -7.18 13.36 -1.67 1.67 1.42 14034
0.00 0.00 0.78 -7.15 13.50 -1.58 1.64 1.46 14042
0.00 0.00 0.66 -7.19 13.59 -1.54 1.62 1.44 14049
0.00 0.00 0.44 -7.27 13.46 -1.52 1.57 1.41 14056
0.00 -0.00 0.30 -7.48 13.02 -1.51 1.51 1.32 14063
0.00 0.00 0.25 -7.69 12.53 -1.48 1.44 1.22 14070
0.00 0.00 0.26 -7.77 12.12 -1.41 1.36 1.12 14077
0.00 0.00 0.29 -7.82 11.55 -1.31 1.29 1.02 14085
0.00 0.00 0.23 -7.92 11.24 -1.17 1.23 0.95 14092
0.00 0.00 0.05 -7.87 10.97 -0.99 1.16 0.88 14099
0.00 0.00 -0.03 -7.82 10.86 -0.83 1.08 0.84 14106
0.00 0.00 -0.28 -7.76 10.81 -0.65 0.98 0.82 14113
0.00 0.00 -0.51 -7.55 10.48 -0.49 0.86 0.81 14120
0.00 0.00 -0.63 -7.57 10.32 -0.32 0.74 0.83 14128
0.00 0.00 -0.62 -7.72 10.29 -0.18 0.61 0.86 14135
0.00 0.00 -0.51 -7.57 10.29 -0.07 0.54 0.90 14142
0.00 -0.00 -0.31 -7.54 11.01 0.04 0.53 0.95 14149
0.00 0.00 -0.19 -7.61 10.35 0.08 0.58 1.01 14156
0.00 0.00 -0.20 -7.65 10.40 0.09 0.65 1.10 14163
0.00 0.00 -0.37 -7.78 10.83 0.02 0.73 1.13 14171
0.00 0.00 -0.38 -7.81 11.21 -0.12 0.78 1.17 14178
0.00 0.00 -0.37 -7.81 11.54 -0.36 0.83 1.19 14185
0.00 0.00 -0.21 -8.07 11.05 -0.66 0.86 1.20 14192
0.00 0.00 -0.10 -8.24 10.08 -0.84 0.86 1.21 14199
0.00 0.00 -0.09 -8.76 9.33 -1.00 0.89 1.21 14206
0.00 0.00 -0.16 -9.49 8.28 -1.05 0.95 1.20 14214
0.00 0.00 -0.37 -9.85 6.74 -1.02 1.02 1.20 14221
0.00 0.00 -5.40 -16.50 4.72 -0.88 1.07 1.22 14228
0.00 0.00 -5.74 -12.59 4.01 -0.20 0.39 1.35 14235
0.00 0.00 -3.67 -10.05 2.07 -0.04 -0.09 1.33 14242
0.00 0.00 -4.63 -12.28 5.54 0.23 -0.46 1.37 14249
0.00 0.00 -4.60 -13.44 6.55 0.44 -0.85 1.42 14257
0.00 0.00 -3.36 -12.23 7.53 0.64 -1.04 1.40 14264
0.00 -0.00 -2.90 -12.12 8.04 0.73 -1.11 1.36 14271
0.00 0.00 -3.75 -12.93 8.37 0.81 -1.17 1.38 14278
0.00 0.00 -3.88 -13.51 8.59 0.98 -1.00 1.57 14285
-0.00 0.00 -5.81 -10.74 11.02 1.25 -0.71 2.09 14294
-0.00 0.01 -1.66 -3.65 9.27 1.50 -0.15 2.47 14300
-0.00 0.03 -10.12 -4.51 9.71 1.48 -0.50 2.27 14307
-0.01 0.08 -11.76 -1.14 11.91 1.55 -0.79 1.86 14315
-0.01 0.18 -10.96 -0.68 10.32 1.54 -1.13 1.00 14322
-0.02 0.21 -7.62 -1.36 12.07 1.74 -1.04 0.11 14328
-0.02 0.22 -0.54 -2.11 23.71 0.36 -2.30 -0.47 14336
-0.03 0.26 0.74 -2.54 11.99 0.08 -0.70 -0.26 14343
-0.03 0.31 0.25 -1.53 10.32 -0.13 -0.09 -0.15 14350
-0.02 0.33 1.03 -1.76 9.66 -0.13 0.00 -0.10 14357
-0.03 0.37 1.16 -1.10 9.81 -0.05 -0.04 -0.00 14364
-0.02 0.37 0.62 -0.62 9.84 0.02 -0.06 0.03 14371
-0.03 0.38 0.04 -0.70 9.92 0.01 -0.01 0.02 14379
-0.03 0.37 0.11 -0.89 9.83 -0.01 0.03 -0.01 14386
-0.03 0.40 0.43 -0.93 9.79 -0.01 0.04 -0.01 14393
-0.01 0.39 0.39 -0.81 9.80 -0.00 0.04 0.00 14400
-0.03 0.40 0.36 -0.80 9.80 -0.01 0.04 -0.01 14407
-0.02 0.39 0.42 -0.86 9.76 -0.02 0.03 -0.02 14414
-0.04 0.41 0.46 -0.91 9.78 -0.03 0.02 -0.03 14422
0.00 0.36 0.44 -0.89 9.74 -0.03 0.01 -0.03 14429
0.01 0.45 0.37 -0.85 9.77 -0.03 -0.00 -0.04 14436
-0.03 0.47 0.34 -0.84 9.81 -0.04 0.01 -0.04 14443
-0.03 0.48 0.34 -0.86 9.79 -0.04 0.02 -0.04 14450
0.00 0.46 0.35 -0.76 9.83 -0.03 0.04 -0.04 14457
0.01 0.49 0.35 -0.83 9.81 -0.03 0.05 -0.04 14465
0.03 0.50 0.36 -0.80 9.82 -0.02 0.06 -0.04 14472
0.02 0.50 0.38 -0.86 9.82 -0.01 0.07 -0.07 14479
0.02 0.49 0.40 -0.80 9.81 0.00 0.08 -0.03 14486
0.01 0.45 0.41 -0.83 9.81 0.00 0.08 -0.04 14493
0.03 0.42 0.41 -0.86 9.81 0.01 0.07 -0.04 14500
-0.00 0.45 0.47 -0.89 9.81 0.02 0.06 -0.04 14508
0.01 0.41 0.44 -0.80 9.83 0.02 0.06 -0.05 14515
0.03 0.39 0.41 -0.82 9.81 0.02 0.06 -0.05 14522
0.03 0.36 0.41 -0.86 9.83 0.02 0.06 -0.05 14529
0.04 0.35 0.41 -0.81 9.83 0.03 0.06 -0.05 14536
0.04 0.30 0.40 -0.85 9.60 0.03 0.06 -0.05 14543
0.05 0.29 0.43 -0.84 9.83 0.03 0.06 -0.05 14551
0.06 0.27 0.41 -0.85 9.81 0.03 0.05 -0.06 14558
0.07 0.25 0.44 -0.86 9.82 0.03 0.05 -0.06 14565
0.09 0.20 0.45 -0.89 9.71 0.03 0.05 -0.06 14572
0.08 0.19 0.41 -0.86 9.81 0.03 0.05 -0.05 14579
0.05 0.16 0.44 -0.90 9.81 0.03 0.04 -0.06 14586
0.07 0.15 0.46 -0.89 9.79 0.03 0.04 -0.06 14594
0.07 0.19 0.41 -0.87 9.79 0.07 0.04 -0.05 14601
0.08 0.10 0.40 -0.88 9.80 0.03 0.04 -0.06 14608
0.09 0.11 0.42 -0.90 9.79 0.03 0.05 -0.06 14615
0.09 0.08 0.42 -0.90 9.81 0.03 0.04 -0.06 14622
0.09 0.08 0.44 -0.92 9.20 0.02 0.05 -0.06 14629
0.11 0.04 0.44 -0.90 9.81 0.02 0.04 -0.06 14637
0.12 0.02 0.43 -0.88 9.76 0.02 0.04 -0.06 14644
0.12 0.04 0.42 -0.88 9.80 0.02 0.04 -0.06 14651
0.11 0.03 0.45 -0.88 9.77 0.01 0.03 -0.06 14658
0.10 0.04 0.43 -0.90 9.81 0.02 0.03 -0.06 14665
0.11 0.06 0.45 -0.93 9.81 0.02 0.03 -0.06 14672
0.11 0.03 0.43 -0.88 9.80 0.01 0.02 -0.06 14680
0.12 0.03 0.44 -0.94 9.81 0.01 0.02 -0.06 14687
0.12 0.04 0.44 -0.97 9.80 0.01 0.01 -0.06 14694
0.11 0.03 0.45 -0.92 9.81 0.01 0.01 -0.06 14701
0.11 0.03 0.44 -0.87 9.78 0.00 0.00 -0.07 14708
0.13 0.01 0.43 -0.90 9.81 0.01 0.00 -0.06 14715
0.14 0.01 0.37 -0.93 10.38 0.01 0.00 -0.06 14723
0.17 0.01 0.40 -0.97 9.82 0.01 0.01 -0.07 14730
0.18 -0.01 0.43 -0.93 9.79 0.00 0.01 -0.07 14737
0.19 0.00 0.41 -0.95 9.81 0.01 0.01 -0.07 14744
0.19 -0.00 0.36 -0.93 9.77 0.01 0.01 -0.07 14751
0.20 0.01 0.38 -0.92 9.76 0.01 0.01 -0.07 14758
0.23 0.02 0.41 -0.92 9.81 0.01 0.02 -0.07 14766
0.25 -0.00 0.37 -0.90 9.81 0.01 0.02 -0.07 14773
0.27 -0.02 0.38 -0.96 9.81 0.01 0.02 -0.06 14780
0.27 -0.02 0.38 -0.96 9.78 0.01 0.03 -0.07 14787
0.27 -0.01 0.37 -0.93 9.82 0.01 0.02 -0.06 14794
0.29 -0.01 0.41 -0.94 9.81 0.02 0.03 -0.07 14801
0.30 -0.00 0.40 -0.97 9.82 0.02 0.03 -0.07 14809
0.30 -0.02 0.39 -0.93 9.82 0.03 0.02 -0.07 14816
0.32 -0.02 0.36 -1.00 9.82 0.03 0.02 -0.08 14823
0.33 -0.03 0.40 -0.93 9.82 0.03 0.02 -0.07 14830
0.37 -0.02 0.41 -0.98 9.82 0.04 0.02 -0.08 14837
0.38 -0.01 0.35 -0.99 9.85 0.05 0.03 -0.08 14844
0.40 -0.01 0.39 -1.00 9.79 0.05 0.03 -0.08 14852
0.44 -0.02 0.33 -1.00 9.83 0.07 0.04 -0.08 14859
0.52 -0.02 0.40 -1.01 9.85 0.08 0.05 -0.08 14866
0.56 -0.03 0.36 -1.03 9.83 0.10 0.05 -0.09 14873
0.60 -0.03 0.37 -1.02 9.86 0.13 0.05 -0.09 14880
0.68 -0.02 0.46 -1.08 9.85 0.17 0.06 -0.10 14887
0.76 -0.03 0.68 -1.07 9.96 0.22 0.08 -0.11 14895
0.79 -0.04 0.47 -0.96 10.46 0.31 0.12 -0.16 14903
0.85 -0.04 0.47 -1.13 10.53 0.71 0.20 -0.12 14910
0.91 -0.02 0.50 -1.27 10.35 0.97 0.22 -0.14 14917
0.95 -0.02 ˜©þ3 -1.36 10.65 1.03 0.18 -0.16 14924
1.04 -0.02 0.37 -1.48 10.93 1.00 0.04 -0.16 14931
1.10 -0.02 0.48 -1.43 11.13 1.05 -0.02 -0.15 14939
1.11 -0.02 0.52 -1.60 10.90 1.12 -0.03 -0.15 14946
1.16 -0.03 0.44 -1.57 10.82 1.23 -0.03 -0.15 14953
1.19 -0.02 0.46 -1.73 10.82 1.28 -0.03 -0.15 14960
1.21 -0.02 0.41 -1.84 10.75 1.35 -0.00 -0.15 14967
1.26 -0.03 0.43 -1.76 10.92 1.41 0.01 -0.15 14974
1.24 -0.05 0.63 -2.01 10.74 1.50 0.02 -0.16 14982
1.24 -0.05 0.46 -2.07 10.78 1.60 0.02 -0.17 14988
1.23 -0.06 0.57 -2.21 10.88 1.68 0.03 -0.18 14996
1.20 -0.05 0.42 -2.37 11.05 1.77 0.02 -0.19 15002
1.20 -0.04 0.29 -2.47 11.05 1.88 0.00 -0.18 15009
1.17 -0.05 0.79 -2.66 11.23 2.01 0.01 -0.19 15017
1.15 -0.05 0.51 -2.70 11.24 2.16 0.03 -0.20 15024
1.08 -0.04 0.49 -2.81 11.30 2.28 0.06 -0.22 15031
1.00 -0.05 -0.08 -2.89 11.54 2.44 0.16 -0.21 15039
0.90 -0.04 -0.02 -3.30 11.67 2.57 0.20 -0.17 15045
0.76 -0.04 0.23 -3.31 11.95 2.78 0.33 -0.14 15053
0.64 -0.03 0.46 -3.65 12.01 3.03 0.40 -0.12 15060
0.44 -0.03 -0.61 -3.69 13.66 3.16 0.36 -0.10 15068
0.36 -0.02 0.54 -4.46 12.73 3.40 0.45 -0.10 15075
0.21 -0.02 -0.74 -4.58 14.06 3.57 0.50 -0.05 15081
0.18 -0.02 -0.56 -5.89 13.41 3.71 0.50 0.06 15088
0.12 -0.00 -0.63 -6.20 16.06 3.79 0.50 0.11 15095
0.11 -0.01 -0.39 -7.45 15.12 3.83 0.48 0.19 15102
0.08 -0.01 -0.06 -7.66 15.11 3.82 0.46 0.23 15110
0.07 -0.01 -0.43 -8.18 16.80 3.71 0.46 0.27 15117
0.05 -0.01 -0.43 -8.10 15.57 3.67 0.43 0.33 15124
0.05 -0.01 -0.89 -7.36 16.02 3.58 0.29 0.34 15131
0.04 0.00 -1.57 -5.46 16.98 3.37 0.05 0.33 15138
0.05 -0.00 -2.08 -8.44 16.23 3.06 -0.20 0.37 15145
0.05 -0.00 -0.23 -7.39 13.63 2.94 -0.41 0.40 15153
0.08 -0.01 1.07 -5.02 13.10 2.90 -0.43 0.42 15160
0.06 -0.01 2.13 -3.26 13.90 2.77 -0.33 0.44 15167
0.01 -0.00 1.89 -0.51 15.34 2.70 -0.21 0.41 15174
0.00 -0.00 0.50 3.46 13.66 2.61 -0.16 0.28 15181
0.02 -0.00 -2.17 12.10 13.28 2.21 0.04 -0.09 15188
0.01 -0.00 -1.44 10.40 6.03 1.50 0.18 -1.07 15196
0.00 -0.00 -3.05 10.23 3.87 0.83 -0.18 -1.72 15203
0.00 0.00 -3.59 11.07 7.74 0.18 -0.14 -2.36 15210
0.00 -0.00 -2.32 10.01 9.69 -0.65 -0.15 -2.95 15217
0.00 -0.00 -2.14 8.03 9.20 -1.07 -0.33 -3.34 15224
0.01 -0.00 -2.19 6.51 8.21 -1.23 -0.53 -3.66 15232
0.00 0.00 -1.57 5.90 7.34 -1.33 -0.68 -3.85 15239
0.00 0.00 -0.47 5.63 6.62 -1.43 -0.83 -3.99 15246
0.00 0.00 0.37 5.54 6.66 -1.57 -0.90 -4.03 15253
0.00 0.00 1.40 5.25 6.85 -1.74 -0.86 -4.01 15260
0.00 -0.00 1.99 4.77 7.92 -1.94 -0.72 -3.91 15267
0.00 0.00 2.84 4.82 9.24 -2.19 -0.58 -3.78 15275
0.00 0.00 2.87 4.42 8.16 -2.46 -0.47 -3.56 15282
0.00 0.00 3.04 3.24 8.41 -2.69 -0.40 -3.28 15289
0.00 0.00 3.36 2.77 8.52 -2.91 -0.33 -2.98 15296
0.00 0.00 3.81 2.00 8.94 -3.05 -0.28 -2.61 15303
0.00 -0.00 4.19 1.35 9.36 -3.14 -0.21 -2.26 15310
0.00 0.00 4.68 0.59 9.60 -3.19 -0.09 -1.85 15318
0.00 0.00 5.07 -0.01 9.57 -3.22 0.02 -1.46 15325
0.00 0.00 5.48 -0.53 9.76 -3.22 0.19 -1.14 15332
0.00 0.00 5.81 -1.10 10.05 -3.22 0.42 -0.82 15339
0.00 0.00 5.87 -1.54 10.80 -3.20 0.64 -0.58 15346
0.00 0.00 5.68 -2.11 11.37 -3.19 0.89 -0.34 15353
0.00 0.00 5.33 -2.69 12.08 -3.17 1.09 -0.12 15361
0.00 0.00 4.91 -3.20 12.63 -3.17 1.28 0.04 15368
0.00 0.00 3.99 -3.61 13.07 -3.17 1.45 0.21 15375
0.00 0.00 4.20 -4.39 13.78 -3.16 1.57 0.39 15382
0.00 0.00 3.76 -5.25 14.20 -3.13 1.68 0.50 15389
0.00 0.00 3.39 -6.05 14.61 -3.08 1.76 0.65 15396
0.00 0.00 2.80 -6.42 14.84 -3.01 1.77 0.77 15404
0.00 0.00 2.41 -6.90 14.92 -2.87 1.73 0.91 15411
0.00 0.00 1.98 -7.12 14.74 -2.77 1.64 1.06 15418
0.00 0.00 1.72 -7.15 14.34 -2.63 1.51 1.15 15425
0.00 0.00 1.64 -7.07 13.92 -2.51 1.34 1.24 15432
0.00 0.00 1.86 -7.08 13.81 -2.37 1.21 1.28 15439
0.00 0.00 2.17 -7.29 13.72 -2.21 1.14 1.30 15447
0.00 0.00 2.45 -7.31 13.62 -2.07 1.14 1.30 15454
0.00 0.00 2.62 -7.34 13.38 -1.91 1.24 1.28 15461
0.00 0.00 2.48 -7.37 13.15 -1.78 1.39 1.24 15468
0.00 0.00 2.17 -7.42 13.35 -1.63 1.52 1.19 15475
0.00 0.00 1.88 -7.56 13.74 -1.49 1.67 1.12 15482
0.00 0.00 1.51 -7.66 13.88 -1.41 1.78 1.05 15490
0.00 0.00 0.95 -7.89 13.81 -1.36 1.85 0.98 15497
0.00 0.00 5.17 -17.51 12.67 -1.31 1.83 0.93 15504
0.00 0.00 13.20 -8.48 -4.26 -0.53 1.96 1.27 15511
0.00 0.00 -1.25 -8.53 5.35 -0.68 1.25 1.17 15518
0.00 0.00 -1.93 -12.31 7.77 -0.62 1.05 1.18 15525
0.00 0.00 2.23 -9.54 5.95 -0.45 0.98 1.27 15533
0.00 0.00 -2.16 -8.00 11.46 -0.34 0.92 1.24 15540
0.00 0.00 -1.20 -9.14 9.30 -0.41 1.00 1.18 15547
0.00 0.00 0.45 -7.80 8.96 -0.23 1.30 1.21 15554
0.00 -0.00 -2.59 -10.71 12.81 -0.13 1.46 1.25 15562
0.00 0.00 -5.26 -11.96 12.20 0.24 1.15 1.29 15568
0.00 0.00 -2.95 -8.67 9.44 0.15 1.22 1.28 15576
0.00 0.00 -3.09 -10.03 10.44 0.12 1.27 1.29 15583
0.00 0.00 -2.87 -10.95 10.89 -0.01 1.23 1.29 15590
0.00 0.00 -1.79 -10.60 10.34 -0.11 1.16 1.24 15597
0.00 0.00 -1.97 -10.50 10.14 -0.28 1.11 1.19 15604
0.00 0.00 -4.30 -11.11 8.95 -0.38 0.88 1.16 15611
0.00 0.00 -3.75 -11.06 8.98 -0.46 0.54 1.11 15619
0.00 0.00 -4.15 -12.39 13.76 -0.43 0.15 1.09 15626
0.00 0.00 -5.15 -11.58 11.61 -0.34 -0.31 1.06 15633
0.00 -0.00 -5.63 -13.29 11.28 -0.33 -0.57 1.01 15641
0.00 0.00 -2.61 -12.79 3.71 -0.18 -0.82 0.96 15647
0.00 0.00 -4.18 -13.18 5.88 0.09 -1.20 0.91 15654
0.00 0.00 -3.03 -14.03 8.16 0.21 -1.28 0.84 15662
0.00 0.00 -2.72 -14.88 7.39 0.59 -1.24 0.91 15669
0.00 0.00 -2.22 -14.45 8.99 0.86 -0.80 1.21 15676
0.00 -0.00 -3.54 -14.97 6.62 1.16 -0.37 1.57 15683
0.00 0.00 -8.62 -14.94 8.20 1.45 -0.58 2.15 15690
-0.00 0.01 -6.33 -5.01 12.35 1.67 -0.88 2.38 15697
-0.00 0.02 -9.46 -4.86 11.24 1.54 -1.28 1.97 15705
-0.01 0.09 -9.93 -2.74 12.50 1.45 -1.39 1.40 15712
-0.01 0.16 -8.40 -2.05 22.47 0.05 -1.69 0.49 15719
-0.00 0.19 -1.11 -0.13 7.35 -0.28 -0.03 -0.09 15726
-0.02 0.21 -1.24 -0.53 9.99 -0.24 -0.08 -0.25 15733
-0.02 0.18 0.36 -1.35 10.15 -0.15 -0.00 -0.20 15740
-0.02 0.22 1.22 -1.54 9.76 -0.10 0.05 -0.11 15748
-0.02 0.29 0.90 -1.32 9.86 -0.06 0.04 -0.02 15755
0.02 0.30 0.14 -0.88 9.86 -0.05 0.02 -0.01 15762
-0.02 0.29 0.10 -0.83 9.82 -0.04 0.02 -0.04 15769
-0.02 0.28 0.52 -0.86 9.77 -0.03 0.03 -0.05 15776
-0.02 0.25 0.52 -0.92 9.82 -0.02 0.01 -0.04 15783
-0.03 0.26 0.30 -0.85 9.81 -0.02 0.00 -0.04 15791
-0.01 0.26 0.35 -0.86 9.81 -0.02 0.00 -0.05 15798
-0.01 0.27 0.40 -0.91 9.81 -0.02 -0.00 -0.06 15805
0.02 0.27 0.37 -0.93 9.82 -0.03 -0.00 -0.06 15812
0.06 0.27 0.35 -0.88 9.79 -0.03 -0.01 -0.07 15819
0.06 0.25 0.39 -0.85 9.84 -0.03 -0.01 -0.07 15826
0.05 0.27 0.34 -0.89 9.77 -0.03 -0.00 -0.08 15834
0.08 0.28 0.27 -0.86 9.81 -0.03 0.00 -0.08 15841
0.09 0.30 0.17 -0.85 9.20 -0.04 0.01 -0.08 15848
0.10 0.31 0.87 -0.90 9.89 -0.04 0.02 -0.07 15855
0.11 0.29 0.23 -0.84 9.84 -0.04 0.03 -0.06 15862
0.13 0.32 0.25 -0.82 9.82 -0.03 0.04 -0.06 15869
0.13 0.30 0.29 -0.85 9.84 -0.03 0.05 -0.05 15877
0.15 0.33 0.44 -0.84 9.83 -0.02 0.05 -0.06 15884
0.17 0.32 0.35 -0.85 9.83 -0.02 0.05 -0.06 15891
0.16 0.31 0.37 -0.85 9.82 -0.01 0.05 -0.06 15898
0.16 0.29 0.33 -0.88 9.82 -0.01 0.05 -0.07 15905
0.16 0.30 0.32 -0.85 9.82 -0.01 0.05 -0.07 15912
0.17 0.31 0.31 -0.85 9.82 -0.00 0.04 -0.07 15920
0.17 0.31 0.34 -0.83 9.83 0.00 0.04 -0.07 15927
0.19 0.29 0.32 -0.86 9.82 0.00 0.04 -0.07 15934
0.19 0.30 0.33 -0.81 9.82 0.01 0.04 -0.07 15941
0.19 0.27 0.35 -0.82 9.81 0.01 0.04 -0.07 15948
0.19 0.28 0.33 -0.83 9.79 0.01 0.04 -0.07 15955
0.22 0.26 0.34 -0.87 9.82 0.02 0.04 -0.07 15963
0.23 0.24 0.31 -0.87 9.79 0.02 0.04 -0.07 15970
0.24 0.21 0.34 -0.86 9.20 0.02 0.04 -0.07 15977
0.25 0.18 0.33 -0.88 9.81 0.02 0.04 -0.07 15984
0.24 0.20 0.32 -0.86 9.81 0.02 0.04 -0.07 15991
0.23 0.14 0.34 -0.89 9.78 0.02 0.04 -0.07 15998
0.22 0.15 0.33 -0.87 9.78 0.02 0.05 -0.07 16006
0.23 0.10 0.30 -0.85 9.75 0.01 0.05 -0.07 16013
0.22 0.07 0.30 -0.91 9.79 0.01 0.04 -0.07 16020
0.22 0.05 0.33 -0.86 9.81 0.01 0.05 -0.07 16027
0.23 0.01 0.37 -0.86 9.80 0.01 0.04 -0.07 16034
0.23 0.02 0.37 -0.88 9.79 0.01 0.04 -0.07 16041
0.23 0.02 0.30 -0.85 9.81 0.01 0.04 -0.10 16049
0.26 0.03 0.31 -0.88 9.78 0.01 0.04 -0.07 16056
0.26 0.03 0.34 -0.88 9.80 0.00 0.04 -0.07 16063
0.28 0.03 0.33 -0.89 9.81 0.01 0.04 -0.07 16070
0.29 0.02 0.34 -0.88 9.80 0.01 0.04 -0.07 16077
0.31 0.02 0.35 -0.92 9.77 0.01 0.04 -0.07 16084
0.32 0.03 0.33 -0.87 9.81 0.00 0.04 -0.07 16092
0.34 0.01 0.34 -0.86 9.82 0.00 0.04 -0.07 16099
0.34 0.03 0.35 -0.87 9.20 0.00 0.04 -0.07 16106
0.33 0.03 0.30 -0.88 9.82 0.00 0.04 -0.07 16113
0.31 0.05 0.30 -0.90 9.78 0.00 0.04 -0.07 16120
0.35 0.03 0.34 -0.86 9.81 0.00 0.04 -0.07 16128
0.37 0.01 0.35 -0.87 9.81 0.00 0.04 -0.07 16135
0.39 -0.01 0.30 -0.91 9.80 0.01 0.04 -0.07 16142
0.40 -0.00 0.35 -0.91 9.82 0.01 0.04 -0.07 16149
0.38 -0.00 0.34 -0.93 9.73 0.00 0.04 -0.07 16156
0.39 0.00 0.36 -0.88 9.81 0.01 0.04 -0.06 16163
0.39 -0.01 0.32 -0.90 9.81 0.00 0.03 -0.07 16171
0.43 -0.01 0.33 -0.89 9.82 0.01 0.03 -0.10 16178
0.45 -0.01 0.33 -0.89 9.80 0.01 0.03 -0.07 16185
0.44 -0.02 0.29 -0.88 9.81 0.01 0.04 -0.07 16192
0.44 -0.03 0.33 -0.91 9.76 0.01 0.04 -0.07 16199
0.43 -0.01 0.29 -0.87 9.82 0.01 0.04 -0.07 16206
0.45 -0.02 0.29 -0.91 9.79 0.01 0.04 -0.07 16214
0.46 -0.01 0.30 -0.89 9.80 0.01 0.04 -0.06 16221
0.47 -0.01 0.35 -0.96 9.79 0.01 0.04 -0.06 16228
0.46 -0.01 0.32 -0.93 9.21 0.02 0.05 -0.06 16235
0.48 -0.02 0.35 -0.90 9.79 0.01 0.05 -0.06 16242
0.47 -0.02 0.30 -0.92 9.81 0.02 0.05 -0.06 16249
0.47 -0.01 0.29 -0.92 9.82 0.02 0.05 -0.06 16257
0.49 -0.02 0.29 -0.92 9.82 0.02 0.05 -0.06 16264
0.48 -0.03 0.32 -0.90 9.84 0.02 0.06 -0.06 16271
0.48 -0.01 0.36 -0.93 9.82 0.03 0.06 -0.06 16278
0.49 -0.01 0.34 -0.91 9.78 0.03 0.06 -0.06 16285
0.49 -0.02 0.29 -0.93 9.82 0.02 0.06 -0.06 16292
0.50 -0.01 0.30 -0.93 9.82 0.03 0.06 -0.05 16300
0.51 -0.02 0.30 -0.94 9.80 0.02 0.06 -0.05 16307
0.50 -0.02 0.34 -1.02 9.82 0.02 0.06 -0.05 16314
0.49 -0.03 0.30 -0.92 9.87 0.02 0.10 -0.04 16321
0.47 -0.03 0.33 -0.92 9.87 0.03 0.07 -0.04 16328
0.44 -0.02 0.41 -0.96 9.83 0.03 0.07 -0.04 16335
0.42 -0.01 0.40 -0.94 9.86 0.05 0.08 -0.04 16343
0.42 -0.01 0.35 -0.90 9.73 0.07 0.09 -0.05 16350
0.38 -0.03 0.37 -0.89 9.96 0.10 0.12 -0.06 16357
0.33 -0.03 0.34 -0.95 10.11 0.20 0.19 -0.06 16364
0.27 -0.02 0.49 -0.96 10.74 0.58 0.27 -0.07 16371
0.25 -0.02 0.61 -1.13 11.36 0.78 0.32 -0.09 16379
0.24 -0.01 0.54 -1.26 11.85 0.85 0.29 -0.12 16387
0.19 -0.02 0.55 -1.24 11.55 0.92 0.29 -0.15 16393
0.18 0.00 0.44 -1.26 11.45 1.04 0.25 -0.16 16400
0.17 -0.00 0.40 -1.49 10.78 1.13 0.21 -0.17 16408
0.15 0.01 0.43 -1.42 10.53 1.21 0.10 -0.17 16415
0.14 0.01 0.41 -1.52 10.73 1.27 0.08 -0.17 16422
0.15 0.01 0.27 -1.52 10.43 1.31 0.08 -0.17 16430
0.12 0.01 0.60 -1.65 10.80 1.32 0.01 -0.20 16436
0.11 0.01 0.85 -1.79 11.81 1.42 0.18 -0.19 16444
0.07 0.01 0.53 -1.70 11.36 1.55 0.24 -0.20 16450
0.10 0.01 0.75 -1.74 10.95 1.61 0.29 -0.21 16457
0.09 0.02 0.99 -1.90 10.75 1.58 0.39 -0.25 16464
0.01 0.00 0.75 -1.99 11.09 1.52 0.48 -0.26 16472
0.01 -0.00 0.87 -2.42 12.04 1.47 0.62 -0.28 16479
0.00 -0.00 1.17 -1.99 12.47 1.39 0.91 -0.30 16486
0.00 0.00 0.28 -1.05 12.50 1.28 1.07 -0.35 16493
0.01 -0.00 -2.69 -0.01 12.33 1.17 1.06 -0.49 16500
0.01 -0.00 -6.10 1.71 11.85 0.99 0.82 -0.83 16507
0.02 -0.00 -7.22 1.01 11.56 0.80 0.33 -1.25 16515
0.01 -0.00 -6.91 2.08 12.52 0.64 -0.32 -1.67 16522
0.01 -0.00 -6.92 3.14 12.32 0.34 -0.78 -1.93 16529
0.00 0.00 -4.11 3.26 10.94 0.02 -1.21 -2.20 16536
0.00 -0.00 -2.81 2.82 10.13 -0.13 -1.45 -2.39 16543
0.00 -0.00 -1.25 2.39 9.67 -0.20 -1.49 -2.51 16550
0.01 -0.00 -0.05 2.43 9.44 -0.21 -1.43 -2.62 16558
0.00 -0.00 0.51 2.66 9.30 -0.22 -1.35 -2.66 16565
0.00 0.00 0.88 2.72 9.24 -0.26 -1.27 -2.68 16572
0.00 0.00 1.14 2.73 8.68 -0.31 -1.24 -2.64 16579
0.00 0.00 1.37 2.49 8.18 -0.36 -1.25 -2.58 16586
0.00 0.00 1.65 2.11 7.68 -0.37 -1.27 -2.49 16593
0.00 0.00 1.95 1.78 7.52 -0.33 -1.26 -2.40 16601
0.00 0.00 2.24 1.55 7.59 -0.26 -1.22 -2.29 16608
0.00 0.00 3.04 1.58 7.78 -0.21 -1.15 -2.16 16615
0.00 0.00 2.73 1.58 7.86 -0.16 -1.02 -2.06 16622
0.00 0.00 3.15 1.56 7.95 -0.13 -0.82 -1.91 16629
0.00 -0.00 3.53 1.51 8.15 -0.11 -0.60 -1.74 16636
0.00 0.00 3.86 1.49 8.28 -0.11 -0.30 -1.59 16644
0.00 0.00 3.85 1.54 8.41 -0.14 0.01 -1.38 16651
0.00 0.00 3.80 1.35 8.21 -0.20 0.26 -1.19 16658
0.00 0.00 2.91 1.03 8.82 -0.26 0.43 -0.97 16665
0.00 0.00 2.38 0.59 8.78 -0.30 0.50 -0.75 16672
0.00 -0.00 1.86 0.30 8.56 -0.31 0.50 -0.57 16679
0.00 0.00 1.69 -0.06 8.39 -0.29 0.45 -0.38 16687
0.00 0.00 1.69 -0.40 8.56 -0.24 0.43 -0.24 16694
0.00 0.00 1.92 -0.61 9.29 -0.19 0.48 -0.11 16701
0.00 0.00 2.01 -0.56 10.15 -0.19 0.59 -0.03 16708
0.00 0.00 1.79 -0.62 10.91 -0.25 0.75 0.00 16715
0.00 -0.00 1.25 -0.73 11.32 -0.39 0.90 0.02 16722
0.00 0.00 0.83 -0.91 11.64 -0.51 0.99 0.01 16730
0.00 0.00 0.50 -1.28 11.70 -0.69 1.06 0.00 16737
0.00 0.00 0.36 -1.69 11.46 -0.83 1.13 -0.03 16744
0.00 0.00 0.11 -2.02 11.15 -0.97 1.11 -0.06 16751
0.00 0.00 -0.11 -2.53 11.20 -1.05 1.10 -0.10 16758
0.00 0.00 -0.16 -2.87 11.19 -1.11 1.06 -0.14 16765
0.00 0.00 -0.28 -3.22 10.99 -1.16 1.00 -0.19 16773
0.00 0.00 -0.29 -3.39 10.75 -1.18 0.89 -0.24 16780
0.00 0.00 -0.11 -3.48 10.50 -1.19 0.77 -0.27 16787
0.00 0.00 0.33 -3.60 10.24 -1.16 0.65 -0.30 16794
0.00 0.00 0.69 -3.68 10.05 -1.12 0.59 -0.32 16801
0.00 0.00 1.09 -3.80 9.93 -1.05 0.55 -0.32 16808
0.00 0.00 1.40 -3.82 9.83 -0.97 0.55 -0.32 16816
0.00 0.00 1.48 -3.83 9.69 -0.87 0.56 -0.31 16823
0.00 0.00 1.39 -3.89 9.64 -0.75 0.57 -0.28 16830
0.00 0.00 1.25 -3.94 9.66 -0.64 0.57 -0.26 16837
0.00 0.00 1.13 -3.93 9.79 -0.51 0.57 -0.23 16844
0.00 0.00 1.04 -3.84 9.93 -0.41 0.57 -0.20 16851
0.00 0.00 0.77 -3.74 10.18 -0.31 0.59 -0.14 16859
0.00 0.00 0.54 -3.79 10.49 -0.24 0.64 -0.14 16866
0.00 0.00 0.37 -3.71 10.99 -0.23 0.72 -0.13 16873
0.00 0.00 0.13 -3.67 11.15 -0.29 0.83 -0.15 16880
0.00 0.00 -0.23 -3.68 11.09 -0.38 0.96 -0.17 16887
0.00 0.00 -0.78 -3.87 10.64 -0.48 1.03 -0.23 16894
0.00 0.00 -1.44 -4.11 10.24 -0.55 1.04 -0.30 16902
0.00 0.00 -2.10 -4.55 9.81 -0.57 0.98 -0.39 16909
0.00 0.00 -2.61 -4.75 8.68 -0.52 0.87 -0.49 16916
0.00 0.00 -2.78 -4.84 9.02 -0.43 0.74 -0.62 16923
0.00 -0.00 -2.67 -4.86 8.80 -0.35 0.63 -0.75 16930
0.00 0.00 -2.60 -4.87 8.97 -0.25 0.53 -0.88 16937
0.00 0.00 -2.39 -4.87 9.28 -0.18 0.47 -1.02 16945
0.00 0.00 -2.32 -4.91 9.53 -0.10 0.44 -1.16 16952
0.00 0.00 -2.18 -4.94 9.81 -0.07 0.43 -1.32 16959
0.00 0.00 -2.13 -4.91 10.09 -0.07 0.43 -1.49 16966
0.00 0.00 -2.12 -4.94 10.10 -0.09 0.45 -1.63 16973
0.00 0.00 -2.19 -4.87 9.95 -0.16 0.51 -1.80 16980
0.00 0.00 -2.17 -4.80 9.61 -0.18 0.58 -1.94 16988
0.00 0.00 -2.30 -4.72 9.22 -0.22 0.67 -2.10 16995
0.00 0.00 -2.77 -4.85 8.73 -0.23 0.75 -2.23 17002
0.00 0.00 -3.23 -5.04 8.52 -0.18 0.79 -2.35 17009
0.00 0.00 -3.49 -5.26 8.28 -0.11 0.76 -2.47 17016
0.00 0.00 -3.58 -5.31 8.19 -0.01 0.70 -2.59 17024
0.00 0.00 -3.40 -5.27 8.11 0.11 0.63 -2.68 17031
0.00 0.00 -3.27 -5.19 8.02 0.21 0.58 -2.77 17038
0.00 0.00 -3.09 -5.10 8.08 0.33 0.56 -2.82 17045
0.00 0.00 -2.80 -4.93 7.98 0.42 0.56 -2.85 17052
0.00 0.00 -2.70 -3.79 7.27 0.50 0.57 -2.84 17059
0.00 0.00 -10.99 -4.29 10.02 0.76 -0.62 -2.56 17067
0.00 0.00 -5.19 0.94 5.87 0.39 -1.90 -2.36 17074
0.00 0.00 -1.90 4.85 19.85 -0.10 -2.09 -2.04 17081
0.00 0.00 -11.59 -8.59 16.24 -0.02 0.10 -1.28 17088
0.00 -0.00 2.30 -1.55 8.10 0.07 0.12 -0.99 17095
0.00 0.00 -3.76 1.07 9.88 -0.05 -0.01 -0.84 17102
0.00 0.00 -2.28 1.24 9.20 -0.05 0.10 -0.32 17110
0.00 0.00 -1.01 -0.41 8.21 -0.22 0.28 -0.10 17117
0.01 0.00 -0.58 -0.26 11.79 -0.39 0.31 0.03 17124
0.02 0.02 -0.49 0.20 7.68 -0.29 0.05 -0.01 17131
-0.00 0.03 0.20 -0.44 10.23 -0.30 0.04 -0.01 17138
-0.00 0.02 0.52 -0.76 11.06 -0.36 0.06 -0.02 17145
-0.01 0.06 0.31 -0.90 10.21 -0.26 0.09 -0.02 17153
-0.01 0.07 0.25 -1.12 10.21 -0.20 0.09 -0.02 17160
-0.01 0.15 0.43 -1.17 10.10 -0.16 0.08 -0.01 17167
0.02 0.17 0.41 -0.99 9.98 -0.11 0.08 -0.01 17174
0.03 0.16 0.52 -0.98 9.95 -0.08 0.07 -0.01 17181
0.03 0.15 0.38 -0.81 9.88 -0.05 0.05 -0.01 17188
0.03 0.20 0.51 -0.92 9.82 -0.04 0.05 -0.02 17196
0.02 0.25 0.37 -0.89 9.76 -0.04 0.04 -0.02 17203
0.03 0.24 0.42 -0.91 9.69 -0.04 0.03 -0.03 17210
0.05 0.19 0.41 -0.92 9.73 -0.06 0.02 -0.04 17217
0.05 0.25 0.42 -0.90 9.71 -0.07 0.01 -0.04 17224
0.04 0.28 0.42 -0.89 9.80 -0.07 0.01 -0.05 17231
0.04 0.27 0.38 -0.88 9.82 -0.07 0.01 -0.05 17239
0.04 0.30 0.35 -0.85 9.81 -0.06 0.01 -0.05 17246
0.06 0.33 0.30 -0.85 9.85 -0.06 0.02 -0.05 17253
0.07 0.35 0.22 -0.83 9.71 -0.06 0.03 -0.05 17260
0.07 0.38 0.29 -0.78 9.81 -0.05 0.03 -0.04 17267
0.08 0.40 0.31 -0.79 9.83 -0.05 0.04 -0.04 17274
0.08 0.38 0.34 -0.81 9.81 -0.04 0.04 -0.04 17282
0.07 0.37 0.36 -0.85 9.82 -0.03 0.05 -0.04 17289
0.08 0.36 0.35 -0.84 9.82 -0.03 0.05 -0.04 17296
0.09 0.38 0.41 -0.85 9.81 -0.03 0.05 -0.04 17303
0.07 0.41 0.41 -0.85 9.82 -0.03 0.05 -0.05 17310
0.08 0.42 0.40 -0.82 9.84 -0.03 0.04 -0.05 17317
0.06 0.42 0.37 -0.79 9.20 -0.02 0.04 -0.05 17325
0.08 0.44 0.33 -0.85 9.82 -0.03 0.04 -0.05 17332
0.08 0.45 0.34 -0.82 9.85 -0.02 0.04 -0.06 17339
0.09 0.47 0.40 -0.80 9.82 -0.02 0.04 -0.05 17346
0.08 0.46 0.35 -0.80 9.81 -0.02 0.04 -0.05 17353
0.07 0.46 0.35 -0.79 9.83 -0.01 0.04 -0.05 17360
0.06 0.46 0.36 -0.79 9.81 -0.01 0.04 -0.05 17368
0.07 0.46 0.34 -0.81 9.84 -0.01 0.05 -0.06 17375
0.07 0.46 0.35 -0.82 9.81 -0.01 0.04 -0.05 17382
0.08 0.46 0.37 -0.80 9.80 -0.01 0.04 -0.06 17389
0.07 0.46 0.37 -0.82 9.81 -0.00 0.04 -0.06 17396
0.07 0.44 0.35 -0.81 9.80 -0.00 0.04 -0.05 17403
0.06 0.44 0.37 -0.79 9.80 -0.00 0.04 -0.06 17411
0.07 0.45 0.33 -0.80 9.81 0.00 0.04 -0.06 17418
0.08 0.44 0.36 -0.83 9.81 -0.01 0.03 -0.06 17425
0.08 0.43 0.36 -0.82 9.77 -0.00 0.03 -0.05 17432
0.07 0.43 0.38 -0.81 9.81 -0.01 0.04 -0.06 17439
0.07 0.41 0.36 -0.80 9.80 -0.01 0.04 -0.05 17446
0.06 0.42 0.35 -0.77 9.79 -0.00 0.04 -0.05 17454
0.06 0.43 0.36 -0.78 9.79 -0.00 0.04 -0.06 17461
0.08 0.42 0.38 -0.77 9.76 -0.00 0.04 -0.06 17468
0.08 0.41 0.36 -0.78 9.76 -0.00 0.05 -0.05 17475
0.08 0.41 0.34 -0.79 9.77 -0.00 0.05 -0.05 17482
0.07 0.40 0.36 -0.81 9.81 -0.00 0.05 -0.05 17489
0.07 0.40 0.35 -0.90 9.83 -0.01 0.05 -0.05 17497
0.08 0.41 0.33 -0.87 9.78 -0.00 0.05 -0.05 17504
0.09 0.40 0.30 -0.80 9.77 -0.01 0.05 -0.05 17511
0.07 0.42 0.21 -0.77 9.81 -0.01 0.05 -0.06 17518
0.07 0.42 0.41 -0.84 9.76 -0.01 0.06 -0.05 17525
0.06 0.42 0.38 -0.74 9.80 -0.01 0.05 -0.05 17532
0.07 0.42 0.38 -0.82 9.82 -0.01 0.05 -0.05 17540
0.07 0.43 0.36 -0.80 9.21 -0.01 0.05 -0.05 17547
0.08 0.44 0.37 -0.80 9.82 -0.01 0.05 -0.06 17554
0.08 0.45 0.35 -0.83 9.80 -0.01 0.05 -0.05 17561
0.08 0.44 0.38 -0.81 9.80 -0.01 0.05 -0.05 17568
0.06 0.45 0.37 -0.81 9.80 -0.00 0.05 -0.05 17575
0.07 0.43 0.36 -0.78 9.81 -0.00 0.05 -0.05 17583
0.07 0.43 0.38 -0.80 9.78 -0.01 0.05 -0.05 17590
0.08 0.43 0.38 -0.80 9.79 -0.00 0.05 -0.05 17597
0.08 0.42 0.36 -0.77 9.81 -0.00 0.05 -0.05 17604
0.08 0.41 0.36 -0.80 9.81 -0.00 0.05 -0.05 17611
0.07 0.41 0.34 -0.81 9.81 0.00 0.05 -0.05 17618
0.07 0.41 0.40 -0.78 9.78 -0.00 0.05 -0.05 17626
0.09 0.40 0.39 -0.82 9.78 0.00 0.05 -0.05 17633
