Voltage_01 Voltage_02 Acc_x Acc_y Acc_z Gyro_x Gyro_y Gyro_z Time
5000
0.02 0.18 0.33 -0.89 9.92 -0.04 0.07 -0.05 24
0.04 0.19 0.37 -0.80 9.81 -0.03 0.07 -0.05 31
0.04 0.20 0.34 -0.86 9.85 -0.03 0.07 -0.04 38
0.04 0.23 0.40 -0.87 9.81 -0.07 0.07 -0.04 46
0.04 0.22 0.36 -0.85 9.80 -0.04 0.07 -0.04 53
0.02 0.21 0.35 -0.80 9.78 -0.04 0.07 -0.05 60
0.03 0.25 0.36 -0.77 9.81 -0.04 0.06 -0.05 67
0.03 0.22 0.36 -0.77 9.81 -0.04 0.06 -0.05 74
0.00 0.26 0.43 -0.81 9.81 -0.05 0.05 -0.05 81
-0.00 0.22 0.39 -0.77 9.80 -0.04 0.05 -0.05 89
0.00 0.23 0.41 -0.75 9.83 -0.05 0.04 -0.05 96
-0.01 0.27 0.43 -0.77 9.81 -0.04 0.04 -0.06 103
-0.00 0.30 0.38 -0.77 9.80 -0.05 0.04 -0.06 110
0.01 0.27 0.31 -0.76 9.67 -0.05 0.04 -0.06 117
-0.00 0.32 0.35 -0.80 9.82 -0.04 0.05 -0.06 124
-0.00 0.36 0.35 -0.77 9.82 -0.04 0.05 -0.06 132
-0.01 0.35 0.34 -0.77 9.86 -0.04 0.06 -0.05 139
-0.00 0.38 0.36 -0.74 9.79 -0.04 0.06 -0.05 146
-0.00 0.39 0.39 -0.73 9.82 -0.04 0.07 -0.05 153
0.00 0.38 0.34 -0.73 9.81 -0.04 0.07 -0.05 160
0.00 0.37 0.42 -0.76 9.20 -0.04 0.06 -0.05 167
-0.01 0.40 0.41 -0.76 9.80 -0.00 0.06 -0.05 175
-0.02 0.45 0.40 -0.74 9.80 -0.03 0.06 -0.05 182
-0.01 0.43 0.37 -0.79 9.82 -0.03 0.06 -0.05 189
-0.01 0.45 0.38 -0.78 9.82 -0.03 0.05 -0.05 196
0.01 0.46 0.43 -0.73 10.41 -0.03 0.05 -0.06 203
-0.01 0.50 0.40 -0.75 9.82 -0.03 0.04 -0.06 210
-0.01 0.49 0.32 -0.77 9.82 -0.02 0.04 -0.06 218
-0.02 0.52 0.40 -0.72 9.82 -0.02 0.04 -0.06 225
-0.01 0.51 0.37 -0.70 9.77 -0.02 0.04 -0.06 232
-0.01 0.51 0.37 -0.75 9.82 -0.02 0.04 -0.06 239
-0.00 0.56 0.36 -0.71 9.80 -0.02 0.04 -0.06 246
-0.01 0.59 0.39 -0.73 9.78 -0.02 0.04 -0.06 253
-0.02 0.55 0.39 -0.73 9.85 -0.02 0.04 -0.06 261
-0.03 0.58 0.39 -0.72 9.80 -0.02 0.05 -0.06 268
-0.02 0.55 0.34 -0.74 9.79 -0.02 0.05 -0.06 275
-0.01 0.57 0.39 -0.71 9.81 -0.02 0.05 -0.06 282
-0.00 0.55 0.42 -0.75 9.79 -0.01 0.06 -0.06 289
-0.01 0.54 0.41 -0.73 9.83 -0.01 0.05 -0.06 296
-0.01 0.55 0.44 -0.72 9.82 -0.01 0.05 -0.06 304
-0.01 0.55 0.37 -0.76 9.83 -0.01 0.05 -0.06 311
-0.01 0.56 0.40 -0.76 9.81 -0.01 0.05 -0.06 318
-0.00 0.54 0.40 -0.72 9.82 -0.01 0.05 -0.06 325
-0.01 0.53 0.37 -0.74 9.20 -0.01 0.05 -0.06 332
-0.01 0.54 0.39 -0.70 9.81 -0.01 0.05 -0.07 339
-0.01 0.53 0.39 -0.70 9.79 -0.01 0.04 -0.07 347
-0.02 0.54 0.40 -0.72 9.80 -0.01 0.05 -0.06 354
-0.03 0.56 0.38 -0.75 9.82 -0.01 0.04 -0.07 361
-0.01 0.55 0.39 -0.75 9.82 -0.01 0.04 -0.06 368
-0.02 0.54 0.39 -0.74 9.81 -0.01 0.04 -0.06 375
-0.02 0.53 0.37 -0.72 9.82 -0.01 0.04 -0.06 382
-0.02 0.52 0.41 -0.70 9.81 -0.01 0.04 -0.06 390
-0.02 0.53 0.42 -0.72 9.77 -0.01 0.03 -0.07 397
-0.01 0.53 0.40 -0.71 9.82 -0.01 0.02 -0.07 404
-0.01 0.52 0.41 -0.74 9.80 -0.01 0.01 -0.07 411
-0.02 0.51 0.38 -0.72 9.83 -0.01 0.03 -0.07 418
-0.02 0.50 0.41 -0.72 10.41 -0.01 -0.00 -0.07 425
-0.03 0.50 0.38 -0.74 9.81 -0.01 -0.01 -0.07 433
-0.01 0.50 0.38 -0.71 9.78 -0.01 -0.01 -0.08 440
-0.01 0.52 0.38 -0.74 9.80 -0.01 -0.01 -0.08 447
0.01 0.51 0.34 -0.74 9.82 -0.01 -0.01 -0.08 454
0.01 0.51 0.33 -0.70 9.20 -0.01 -0.01 -0.08 461
0.01 0.49 0.33 -0.72 9.81 -0.01 0.00 -0.08 468
0.02 0.51 0.31 -0.74 9.82 -0.00 0.01 -0.07 476
0.03 0.50 0.33 -0.75 9.83 -0.00 0.02 -0.08 483
0.06 0.50 0.35 -0.71 9.81 0.00 0.03 -0.08 490
0.05 0.48 0.37 -0.73 9.81 0.00 0.03 -0.08 497
0.04 0.47 0.36 -0.70 9.82 0.00 0.03 -0.08 504
0.05 0.45 0.35 -0.75 9.77 0.00 0.03 -0.08 512
0.05 0.46 0.36 -0.74 9.83 0.00 0.03 -0.08 519
0.06 0.47 0.35 -0.74 9.81 0.01 0.03 -0.08 526
0.08 0.45 0.38 -0.71 9.82 0.01 0.03 -0.08 533
0.11 0.43 0.34 -0.73 9.81 0.01 0.03 -0.08 540
0.12 0.42 0.37 -0.72 9.79 0.01 0.03 -0.08 547
0.13 0.36 0.36 -0.74 9.81 0.01 0.03 -0.08 555
0.15 0.36 0.35 -0.75 9.81 0.01 0.03 -0.08 562
0.18 0.36 0.34 -0.76 9.80 0.01 0.03 -0.07 569
0.19 0.34 0.36 -0.72 9.81 0.01 0.04 -0.08 576
0.18 0.37 0.31 -0.78 9.80 0.01 0.03 -0.08 583
0.18 0.36 0.31 -0.73 9.81 0.01 0.04 -0.07 590
0.18 0.33 0.37 -0.75 9.82 0.01 0.04 -0.07 598
0.19 0.33 0.37 -0.77 9.77 0.01 0.04 -0.08 605
0.19 0.31 0.38 -0.74 9.82 0.01 0.04 -0.08 612
0.22 0.28 0.34 -0.73 9.82 0.01 0.03 -0.08 619
0.24 0.28 0.36 -0.76 9.81 0.01 0.04 -0.08 626
0.25 0.24 0.31 -0.74 9.80 0.01 0.04 -0.08 633
0.24 0.24 0.36 -0.76 9.78 0.01 0.03 -0.07 641
0.26 0.26 0.31 -0.77 9.81 0.01 0.03 -0.08 648
0.26 0.27 0.34 -0.78 9.80 0.01 0.04 -0.07 655
0.27 0.28 0.34 -0.77 9.77 0.00 0.04 -0.08 662
0.28 0.24 0.34 -0.77 9.81 0.01 0.04 -0.07 669
0.28 0.22 0.34 -0.75 9.79 0.00 0.04 -0.08 676
0.28 0.22 0.35 -0.76 9.82 0.00 0.04 -0.07 684
0.29 0.23 0.34 -0.76 9.82 0.00 0.04 -0.07 691
0.31 0.22 0.34 -0.77 9.79 0.01 0.04 -0.07 698
0.30 0.24 0.36 -0.74 9.82 0.00 0.04 -0.08 705
0.30 0.23 0.33 -0.76 9.82 0.01 0.04 -0.07 712
0.31 0.22 0.35 -0.79 9.82 0.01 0.04 -0.07 719
0.30 0.23 0.31 -0.79 9.83 0.01 0.04 -0.08 727
0.31 0.22 0.33 -0.78 9.78 0.01 0.05 -0.07 734
0.33 0.20 0.34 -0.78 9.81 0.01 0.05 -0.08 741
0.33 0.19 0.35 -0.76 9.81 0.00 0.05 -0.08 748
0.34 0.15 0.37 -0.75 9.82 0.01 0.05 -0.07 755
0.34 0.14 0.34 -0.77 9.80 0.01 0.05 -0.08 762
0.35 0.15 0.35 -0.79 9.81 0.00 0.04 -0.08 770
0.37 0.13 0.35 -0.79 9.79 0.00 0.04 -0.07 777
0.37 0.12 0.33 -0.78 9.81 0.01 0.05 -0.08 784
0.37 0.11 0.34 -0.76 9.84 0.00 0.05 -0.07 791
0.36 0.09 0.35 -0.80 9.82 -0.00 0.05 -0.07 798
0.35 0.05 0.33 -0.78 9.82 0.00 0.05 -0.08 805
0.35 0.09 0.33 -0.83 9.82 0.00 0.06 -0.08 813
0.36 0.11 0.34 -0.77 9.81 0.00 0.06 -0.08 820
0.36 0.10 0.36 -0.80 9.81 0.00 0.06 -0.07 827
0.36 0.09 0.33 -0.80 9.81 0.00 0.06 -0.08 834
0.35 0.09 0.38 -0.77 9.81 0.00 0.06 -0.07 841
0.34 0.09 0.37 -0.79 9.78 0.00 0.06 -0.07 848
0.33 0.09 0.38 -0.81 9.82 0.00 0.06 -0.07 856
0.34 0.09 0.38 -0.80 9.80 0.01 0.06 -0.08 863
0.36 0.08 0.34 -0.80 9.84 0.00 0.06 -0.08 870
0.35 0.06 0.35 -0.81 9.81 0.00 0.06 -0.07 877
0.34 0.08 0.38 -0.77 9.84 0.00 0.06 -0.08 884
0.33 0.07 0.36 -0.80 9.76 0.00 0.06 -0.08 891
0.33 0.06 0.34 -0.78 9.81 0.00 0.06 -0.08 899
0.35 0.04 0.41 -0.80 9.80 0.01 0.06 -0.08 906
0.36 0.02 0.37 -0.78 9.81 0.01 0.06 -0.08 913
0.35 0.01 0.40 -0.79 9.80 0.01 0.06 -0.07 920
0.36 0.02 0.38 -0.78 9.81 0.01 0.06 -0.08 927
0.35 0.02 0.40 -0.80 9.82 0.01 0.06 -0.08 934
0.36 0.01 0.38 -0.81 9.82 0.01 0.06 -0.08 942
0.38 0.01 0.40 -0.82 9.82 0.01 0.06 -0.08 949
0.37 -0.01 0.39 -0.79 9.84 0.02 0.06 -0.08 956
0.38 -0.02 0.40 -0.85 9.82 0.02 0.06 -0.08 963
0.38 -0.02 0.42 -0.83 9.80 0.02 0.06 -0.08 970
0.39 -0.01 0.40 -0.83 9.81 0.02 0.06 -0.08 977
0.40 -0.01 0.42 -0.83 9.82 0.02 0.05 -0.08 985
0.42 -0.02 0.42 -0.85 9.79 0.02 0.06 -0.09 992
0.41 -0.03 0.41 -0.84 9.82 0.02 0.06 -0.08 999
0.42 -0.02 0.44 -0.84 9.82 0.02 0.06 -0.08 1006
0.41 -0.01 0.38 -0.86 9.82 0.03 0.06 -0.08 1013
0.42 -0.01 0.41 -0.85 9.82 0.03 0.07 -0.08 1020
0.42 0.00 0.40 -0.86 9.78 0.03 0.07 -0.08 1028
0.43 -0.02 0.40 -0.84 9.81 0.03 0.07 -0.08 1035
0.43 -0.02 0.42 -0.82 9.81 0.04 0.07 -0.09 1042
0.43 -0.03 0.41 -0.87 9.82 0.04 0.07 -0.08 1049
0.42 -0.01 0.44 -0.88 9.83 0.04 0.07 -0.08 1056
0.46 -0.02 0.37 -0.87 9.82 0.05 0.08 -0.08 1063
0.46 -0.01 0.41 -0.88 9.82 0.05 0.08 -0.08 1071
0.48 -0.02 0.45 -0.86 9.83 0.05 0.08 -0.08 1078
0.47 -0.03 0.45 -0.88 9.83 0.05 0.08 -0.08 1085
0.47 -0.04 0.43 -0.91 9.82 0.06 0.08 -0.08 1092
0.47 -0.03 0.46 -0.84 9.82 0.06 0.09 -0.08 1099
0.48 -0.02 0.44 -0.93 9.82 0.07 0.09 -0.09 1106
0.49 -0.02 0.43 -0.90 9.83 0.07 0.09 -0.09 1114
0.51 -0.03 0.44 -0.90 9.85 0.08 0.10 -0.08 1121
0.49 -0.02 0.46 -0.89 9.82 0.09 0.11 -0.09 1128
0.50 -0.04 0.48 -0.92 9.84 0.10 0.11 -0.08 1135
0.51 -0.03 0.50 -0.97 9.82 0.11 0.12 -0.09 1142
0.52 -0.02 0.50 -0.96 9.84 0.12 0.13 -0.09 1149
0.52 -0.01 0.49 -0.95 9.89 0.14 0.14 -0.09 1157
0.53 -0.02 0.50 -0.95 9.89 0.16 0.15 -0.09 1164
0.52 -0.01 0.52 -0.95 9.88 0.18 0.15 -0.09 1171
0.53 -0.03 0.49 -1.01 9.89 0.21 0.16 -0.09 1178
0.50 -0.02 0.46 -0.96 9.98 0.24 0.17 -0.09 1185
0.48 -0.01 0.55 -1.02 9.99 0.27 0.17 -0.08 1192
0.44 -0.01 0.52 -1.02 10.09 0.31 0.17 -0.09 1200
0.42 -0.02 0.56 -1.08 10.34 0.39 0.16 -0.08 1208
0.40 -0.02 0.70 -1.16 10.40 0.45 0.14 -0.09 1214
0.36 -0.01 0.76 -1.18 10.38 0.51 0.10 -0.10 1222
0.33 -0.01 0.75 -1.21 10.43 0.56 0.07 -0.12 1229
0.32 -0.01 0.62 -1.18 10.75 0.64 0.03 -0.14 1236
0.32 -0.02 0.69 -1.34 10.82 0.72 -0.01 -0.15 1244
0.29 -0.02 0.71 -1.34 10.78 0.78 -0.04 -0.17 1251
0.25 -0.02 0.68 -1.43 10.71 0.85 -0.07 -0.18 1257
0.25 -0.02 0.63 -1.45 10.86 0.92 -0.11 -0.19 1265
0.20 -0.02 0.53 -1.52 10.79 0.99 -0.14 -0.19 1271
0.18 -0.01 0.47 -1.63 10.85 1.06 -0.17 -0.19 1280
0.16 -0.02 0.43 -1.75 10.43 1.12 -0.22 -0.19 1286
0.14 -0.01 0.46 -1.76 10.76 1.19 -0.24 -0.19 1293
0.13 -0.01 0.43 -1.84 10.62 1.27 -0.24 -0.18 1300
0.09 -0.01 0.39 -1.97 10.55 1.29 -0.24 -0.18 1307
0.12 -0.01 0.31 -2.10 10.44 1.34 -0.25 -0.18 1314
0.11 -0.01 0.37 -2.22 10.28 1.36 -0.23 -0.18 1323
0.12 -0.01 0.38 -2.24 10.22 1.38 -0.22 -0.18 1329
0.05 -0.01 0.51 -2.48 10.07 1.40 -0.21 -0.19 1336
0.08 -0.01 0.48 -2.59 10.26 1.41 -0.20 -0.23 1343
0.02 -0.00 0.68 -2.82 10.28 1.44 -0.18 -0.20 1350
0.03 -0.00 0.36 -2.79 10.48 1.45 -0.24 -0.21 1357
0.04 -0.00 0.51 -2.95 10.69 1.50 -0.19 -0.22 1364
0.03 -0.00 0.59 -3.13 11.03 1.55 -0.17 -0.23 1372
0.06 -0.01 0.56 -3.18 10.38 1.59 -0.18 -0.25 1379
0.02 -0.00 0.63 -3.33 10.56 1.62 -0.16 -0.26 1386
0.03 -0.00 0.78 -3.54 10.67 1.64 -0.14 -0.28 1393
0.01 -0.00 0.84 -3.66 10.92 1.65 -0.11 -0.30 1400
0.03 -0.00 0.84 -3.86 11.18 1.65 -0.05 -0.32 1408
0.03 -0.00 0.68 -3.94 11.20 1.64 0.01 -0.33 1415
0.03 -0.00 0.49 -4.01 10.89 1.61 0.05 -0.34 1422
0.02 -0.00 0.10 -4.05 10.49 1.56 0.07 -0.34 1429
0.02 -0.00 0.01 -4.05 10.58 1.50 0.06 -0.34 1436
0.00 -0.00 -0.28 -4.05 10.19 1.46 0.00 -0.33 1443
0.00 -0.00 -0.39 -3.90 9.64 1.41 -0.10 -0.31 1451
0.00 0.00 -0.68 -3.87 9.17 1.33 -0.14 -0.29 1458
0.00 0.00 -0.52 -3.94 8.70 1.26 -0.22 -0.27 1465
0.00 0.00 -0.55 -4.21 8.36 1.19 -0.26 -0.24 1472
0.03 -0.00 -0.42 -4.36 8.28 1.13 -0.30 -0.22 1479
0.04 -0.00 -0.37 -4.19 8.13 1.09 -0.32 -0.19 1486
0.01 -0.00 -0.20 -4.23 7.37 1.03 -0.33 -0.18 1494
0.00 0.00 -0.12 -4.43 7.90 0.99 -0.33 -0.17 1501
0.01 -0.00 0.05 -4.18 7.87 0.95 -0.33 -0.17 1508
0.00 0.00 0.11 -4.01 7.41 0.91 -0.31 -0.17 1515
0.00 0.00 0.08 -4.30 7.08 0.88 -0.31 -0.17 1522
0.00 0.00 0.14 -4.42 6.82 0.86 -0.31 -0.18 1529
0.00 0.00 0.15 -4.07 6.70 0.86 -0.32 -0.19 1537
0.00 0.00 0.03 -4.54 6.60 0.84 -0.30 -0.19 1544
0.00 0.00 0.06 -3.97 6.92 0.80 -0.30 -0.20 1551
0.00 0.00 -0.00 -4.63 7.14 0.75 -0.28 -0.20 1558
0.00 0.00 0.03 -4.35 7.54 0.67 -0.25 -0.19 1565
0.00 0.00 0.11 -3.91 7.39 0.58 -0.20 -0.18 1572
0.00 0.00 0.15 -3.48 7.39 0.48 -0.17 -0.18 1580
0.00 0.00 -0.22 -3.03 6.85 0.36 -0.15 -0.17 1587
0.00 0.00 -0.32 -3.08 6.86 0.26 -0.15 -0.17 1594
0.00 0.00 -0.05 -2.13 7.01 0.18 -0.16 -0.15 1601
0.00 0.00 0.23 -1.58 7.21 0.10 -0.15 -0.12 1608
0.01 -0.00 0.37 -1.88 7.15 0.00 -0.13 -0.07 1615
0.00 0.00 0.01 -3.18 6.81 -0.04 -0.14 -0.03 1623
0.00 0.00 0.34 -2.28 7.63 -0.07 -0.12 0.01 1630
0.00 0.00 -0.05 -2.81 7.60 -0.08 -0.12 0.01 1637
0.00 -0.00 -0.01 -3.58 7.12 -0.12 -0.15 0.02 1644
0.00 0.00 -0.38 -5.13 7.31 -0.11 -0.13 -0.01 1651
0.01 -0.00 0.65 -3.93 8.13 -0.10 -0.11 -0.06 1658
0.01 -0.00 -0.49 -5.42 7.30 -0.13 -0.08 -0.09 1666
0.00 -0.00 -1.08 -8.79 7.98 -0.13 -0.08 -0.16 1673
0.00 0.00 -1.77 -15.91 6.64 -0.00 -0.11 -0.25 1680
0.01 -0.00 -0.20 -2.94 10.41 0.22 -0.14 -0.32 1687
0.01 -0.00 -0.27 -5.23 5.91 0.08 -0.10 -0.35 1694
0.01 -0.00 -0.53 -9.78 7.08 -0.21 0.03 -0.31 1701
0.00 0.00 -1.17 -8.76 9.38 -0.20 0.04 -0.30 1709
0.01 -0.00 -0.90 -7.97 7.69 -0.00 -0.00 -0.33 1716
0.00 0.00 -1.20 -7.58 7.57 0.01 -0.02 -0.35 1723
0.00 -0.00 -1.08 -6.74 8.10 -0.04 -0.00 -0.36 1730
0.01 -0.00 -0.25 -3.85 8.94 -0.13 0.00 -0.34 1737
0.01 -0.00 -0.21 -3.48 8.57 -0.21 0.05 -0.30 1744
0.00 -0.00 0.32 -2.49 8.05 -0.31 0.08 -0.28 1752
0.00 0.00 0.33 -1.31 8.21 -0.39 0.11 -0.25 1759
0.00 0.00 0.47 -0.64 8.08 -0.46 0.13 -0.20 1766
0.00 0.00 -0.07 -1.53 7.92 -0.51 0.18 -0.17 1773
0.00 0.00 0.06 -1.21 8.45 -0.53 0.21 -0.14 1780
0.00 0.00 -0.28 -1.44 8.28 -0.54 0.22 -0.14 1787
0.00 0.00 -0.10 -0.69 8.69 -0.55 0.25 -0.14 1795
0.00 0.00 -0.46 -1.97 8.22 -0.57 0.27 -0.16 1802
0.00 0.00 -0.66 -2.43 8.91 -0.60 0.26 -0.20 1809
0.00 0.00 0.02 -0.08 9.20 -0.65 0.24 -0.25 1816
0.00 -0.00 -0.26 -2.29 6.99 -0.75 0.22 -0.27 1823
0.00 0.00 -0.36 -4.67 9.53 -0.74 0.21 -0.28 1830
0.00 0.00 -0.17 -4.06 9.94 -0.74 0.19 -0.28 1838
0.00 0.00 -0.67 -3.42 9.99 -0.75 0.23 -0.28 1845
0.00 0.00 -0.54 -4.06 9.30 -0.77 0.24 -0.29 1852
0.00 0.00 -0.41 -6.55 9.58 -0.85 0.26 -0.24 1859
0.00 0.00 -0.80 -3.29 11.32 -0.82 0.25 -0.25 1866
0.00 0.00 -0.75 -5.29 6.89 -0.88 0.26 -0.24 1873
0.00 0.00 -0.66 -4.51 9.42 -0.85 0.22 -0.22 1881
0.00 0.00 -0.49 -3.08 9.51 -0.86 0.23 -0.23 1888
0.00 0.00 -1.57 -5.00 9.18 -0.82 0.20 -0.25 1895
0.00 0.00 -0.41 -4.48 9.50 -0.83 0.22 -0.25 1902
0.00 0.00 0.06 -2.60 10.67 -0.76 0.27 -0.28 1909
0.00 0.00 -2.55 -10.52 7.70 -0.73 0.25 -0.29 1916
0.00 0.00 0.51 -2.57 12.02 -0.71 0.32 -0.29 1924
0.00 0.00 -1.01 -6.07 8.57 -0.70 0.33 -0.29 1931
0.00 0.00 -0.02 -3.35 11.35 -0.72 0.33 -0.26 1938
0.00 -0.00 0.12 -4.22 7.62 -0.67 0.26 -0.28 1945
0.00 0.00 -1.33 -4.91 7.96 -0.71 0.24 -0.27 1952
0.00 0.00 -1.27 -4.32 10.80 -0.65 0.20 -0.25 1959
0.00 0.00 -0.09 -4.12 8.31 -0.67 0.17 -0.26 1967
0.00 0.00 -1.37 -3.98 9.52 -0.65 0.13 -0.26 1974
0.00 0.00 -0.33 -4.79 8.22 -0.62 0.17 -0.26 1981
0.00 0.00 -0.57 -3.50 9.13 -0.63 0.22 -0.30 1988
0.00 0.00 -1.12 -5.19 9.98 -0.61 0.28 -0.26 1995
0.00 0.00 0.21 -4.40 9.84 -0.57 0.35 -0.24 2002
0.00 0.00 0.19 -2.33 8.78 -0.59 0.39 -0.21 2010
0.00 0.00 -1.75 -3.14 10.18 -0.56 0.41 -0.18 2017
0.00 0.00 -1.32 -2.35 9.34 -0.62 0.38 -0.16 2024
0.00 -0.00 -0.61 -1.14 9.12 -0.63 0.33 -0.15 2031
0.00 0.00 -2.49 -3.35 8.39 -0.66 0.29 -0.11 2038
0.00 0.00 -0.18 -2.05 10.25 -0.67 0.26 -0.08 2045
0.00 0.00 -1.30 -1.96 10.36 -0.73 0.22 -0.06 2053
0.00 0.00 -0.56 -3.39 10.26 -0.73 0.19 -0.00 2060
0.00 0.00 -0.52 -1.49 8.28 -0.70 0.24 0.03 2067
0.00 0.00 0.49 -1.24 9.46 -0.76 0.25 0.07 2074
0.00 0.00 0.05 -0.46 10.44 -0.75 0.30 0.11 2081
0.00 0.00 0.50 -0.44 7.57 -0.78 0.32 0.16 2088
0.00 0.00 -0.34 -1.74 10.02 -0.78 0.30 0.22 2096
0.00 0.00 -0.49 -1.71 9.56 -0.77 0.27 0.28 2103
0.00 0.00 0.29 -0.79 11.16 -0.79 0.26 0.32 2110
0.00 -0.00 1.19 -0.33 10.36 -0.80 0.24 0.35 2117
0.00 0.00 0.40 -0.25 9.52 -0.84 0.26 0.38 2124
0.00 0.00 0.29 -0.29 9.40 -0.87 0.24 0.41 2131
0.00 0.00 -0.45 -1.22 9.84 -0.89 0.28 0.46 2139
0.00 0.00 0.51 -0.32 10.65 -0.88 0.29 0.51 2146
0.00 0.00 0.98 0.51 9.72 -0.90 0.31 0.55 2153
0.00 0.00 0.67 0.17 9.81 -0.95 0.34 0.58 2160
0.00 0.00 0.67 -0.01 10.36 -0.98 0.35 0.60 2167
0.00 0.00 0.52 -0.23 10.76 -1.00 0.36 0.61 2174
0.00 0.00 0.51 -0.37 10.92 -1.02 0.35 0.61 2182
0.00 0.00 0.52 -0.33 11.09 -1.03 0.34 0.60 2189
0.00 0.00 0.55 -0.27 11.10 -1.06 0.33 0.58 2196
0.00 0.00 0.51 -0.38 11.08 -1.09 0.32 0.55 2203
0.00 0.00 0.52 -0.46 10.97 -1.12 0.32 0.51 2210
0.00 0.00 0.44 -0.60 10.88 -1.15 0.32 0.48 2217
0.00 0.00 0.39 -0.76 10.78 -1.17 0.32 0.44 2225
0.00 0.00 0.39 -0.87 10.71 -1.16 0.32 0.40 2232
0.00 -0.00 0.42 -0.95 10.63 -1.15 0.31 0.36 2239
0.00 0.00 0.46 -0.99 10.82 -1.13 0.33 0.31 2246
0.00 0.00 0.48 -1.07 10.81 -1.11 0.35 0.26 2253
0.00 0.00 0.36 -1.16 10.84 -1.11 0.38 0.22 2260
0.00 0.00 0.28 -1.31 10.89 -1.11 0.37 0.18 2268
0.00 0.00 0.24 -1.55 10.78 -1.10 0.35 0.14 2275
0.00 0.00 0.22 -1.89 10.56 -1.10 0.32 0.10 2282
0.00 0.00 0.29 -2.11 10.23 -1.08 0.26 0.08 2289
0.00 0.00 0.43 -2.40 9.87 -1.04 0.20 0.05 2296
0.00 0.00 0.57 -2.53 9.64 -0.95 0.17 0.04 2304
0.00 0.00 0.86 -2.59 9.83 -0.86 0.17 0.03 2311
0.00 0.00 1.29 -2.56 10.22 -0.80 0.25 0.03 2318
0.00 0.00 1.58 -2.38 10.41 -0.80 0.37 0.05 2325
0.00 0.00 1.44 -2.49 10.28 -0.84 0.48 0.08 2332
0.00 0.00 1.14 -3.35 10.24 -0.89 0.53 0.11 2339
0.00 0.00 -0.14 -9.48 13.28 -0.67 0.49 0.20 2347
0.00 0.00 0.75 -4.82 8.58 -0.34 0.46 0.30 2354
0.00 0.00 0.11 -6.19 3.19 -0.36 0.27 0.33 2361
0.00 0.00 -0.92 -9.53 9.61 -0.11 0.07 0.36 2368
0.00 0.00 -1.20 -9.91 7.18 0.08 0.03 0.37 2375
0.00 0.00 -0.80 -9.55 6.54 0.22 0.06 0.34 2382
0.00 0.00 -1.40 -9.65 8.97 0.41 0.10 0.29 2390
-0.00 0.00 -2.90 -12.89 11.01 0.59 -0.02 0.25 2397
-0.00 0.00 -3.83 -17.60 7.23 0.67 -0.21 0.19 2404
-0.00 0.02 -4.06 -16.87 5.90 0.89 -0.30 0.13 2411
-0.00 0.03 -4.38 -20.84 6.73 1.16 -0.50 0.12 2418
-0.00 0.03 -1.87 -4.16 12.03 1.50 -0.56 0.07 2425
-0.00 0.03 -0.86 -1.75 18.34 1.64 -0.81 -0.09 2433
-0.01 0.07 -0.58 -1.77 17.68 0.48 -1.30 -0.19 2440
-0.00 0.06 0.55 -1.14 9.45 -0.09 -0.17 0.04 2447
-0.01 0.12 0.27 -0.99 10.51 -0.19 -0.07 -0.05 2454
-0.01 0.14 0.24 -0.99 9.90 -0.13 -0.08 -0.10 2461
-0.02 0.17 0.46 -0.98 10.09 -0.05 -0.12 -0.12 2468
-0.02 0.22 0.37 -0.92 10.11 -0.04 -0.04 -0.07 2476
-0.02 0.23 0.21 -0.98 9.91 -0.05 -0.02 -0.06 2483
0.02 0.24 0.09 -1.04 9.85 -0.03 -0.00 -0.06 2490
0.02 0.20 0.11 -1.01 9.83 -0.02 0.03 -0.06 2497
-0.01 0.17 0.20 -0.89 9.82 -0.02 0.05 -0.05 2504
-0.02 0.20 0.23 -0.95 9.82 -0.02 0.06 -0.05 2511
0.01 0.18 0.24 -0.92 9.76 -0.02 0.06 -0.05 2519
0.00 0.22 0.25 -0.91 9.86 -0.02 0.06 -0.05 2526
0.01 0.20 0.24 -0.95 9.88 -0.03 0.06 -0.05 2533
0.00 0.22 0.29 -0.92 9.79 -0.03 0.06 -0.05 2540
-0.01 0.22 0.27 -0.97 9.86 -0.03 0.06 -0.05 2547
-0.02 0.25 0.26 -0.91 9.82 -0.04 0.06 -0.05 2554
-0.01 0.28 0.29 -0.96 9.79 -0.04 0.06 -0.05 2562
0.01 0.25 0.31 -0.86 9.80 -0.03 0.06 -0.05 2569
0.01 0.25 0.32 -0.87 9.83 -0.03 0.06 -0.05 2576
-0.00 0.25 0.30 -0.89 9.21 -0.03 0.06 -0.05 2583
0.00 0.23 0.32 -0.84 9.79 -0.03 0.06 -0.05 2590
-0.01 0.26 0.37 -0.91 9.79 -0.03 0.05 -0.05 2597
0.00 0.26 0.31 -0.86 9.79 -0.03 0.05 -0.05 2605
0.01 0.26 0.32 -0.86 9.79 -0.03 0.04 -0.06 2612
0.01 0.28 0.28 -0.85 9.75 -0.04 0.03 -0.06 2619
-0.01 0.34 0.33 -0.88 9.81 -0.03 0.02 -0.06 2626
-0.01 0.33 0.27 -0.86 9.78 -0.03 0.03 -0.06 2633
0.00 0.36 0.29 -0.86 9.81 -0.03 0.03 -0.06 2640
0.00 0.35 0.30 -0.86 9.81 -0.02 0.03 -0.06 2648
0.03 0.36 0.26 -0.86 9.92 -0.02 0.03 -0.06 2655
0.01 0.36 0.25 -0.86 9.77 -0.02 0.03 -0.06 2662
0.01 0.38 0.28 -0.86 9.82 -0.02 0.03 -0.06 2669
0.01 0.38 0.27 -0.86 9.83 -0.02 0.03 -0.06 2676
0.01 0.38 0.29 -0.86 9.83 -0.02 0.03 -0.06 2683
0.00 0.39 0.33 -0.87 9.81 -0.02 0.03 -0.06 2691
0.02 0.38 0.31 -0.89 9.76 -0.02 0.03 -0.06 2698
0.01 0.38 0.32 -0.86 9.76 -0.02 0.02 -0.06 2705
0.00 0.38 0.32 -0.83 9.83 -0.02 0.02 -0.07 2712
0.00 0.39 0.32 -0.83 9.77 -0.01 0.01 -0.07 2719
-0.00 0.40 0.28 -0.81 9.86 -0.01 0.01 -0.07 2726
0.00 0.40 0.30 -0.87 9.80 -0.01 0.00 -0.07 2734
0.02 0.38 0.30 -0.83 9.87 -0.01 -0.00 -0.08 2741
0.00 0.36 0.23 -0.84 9.81 -0.01 -0.00 -0.08 2748
0.00 0.34 0.25 -0.85 9.83 -0.00 -0.00 -0.08 2755
-0.00 0.33 0.27 -0.85 9.84 -0.01 0.00 -0.08 2762
0.01 0.35 0.29 -0.89 9.82 -0.00 0.00 -0.08 2769
0.03 0.36 0.25 -0.86 9.82 -0.00 0.01 -0.08 2777
0.03 0.35 0.26 -0.85 9.79 0.00 0.01 -0.08 2784
0.03 0.33 0.22 -0.85 9.82 0.00 0.02 -0.07 2791
0.04 0.31 0.25 -0.88 9.81 0.00 0.02 -0.07 2798
0.04 0.29 0.24 -0.87 9.82 0.00 0.02 -0.07 2805
0.05 0.30 0.27 -0.86 9.80 0.00 0.03 -0.07 2812
0.07 0.32 0.28 -0.85 9.81 0.00 0.02 -0.07 2820
0.11 0.29 0.26 -0.86 9.79 0.00 0.02 -0.07 2827
0.11 0.29 0.21 -0.88 9.79 0.00 0.02 -0.08 2834
0.12 0.27 0.26 -0.84 9.82 0.01 0.02 -0.07 2841
0.09 0.28 0.25 -0.86 9.81 0.00 0.02 -0.07 2848
0.12 0.27 0.26 -0.86 9.83 0.01 0.02 -0.08 2855
0.14 0.25 0.27 -0.85 9.81 0.00 0.02 -0.08 2863
0.14 0.25 0.27 -0.89 9.82 0.01 0.02 -0.08 2870
0.18 0.23 0.23 -0.88 9.82 0.01 0.01 -0.08 2877
0.19 0.23 0.21 -0.87 9.83 0.01 0.02 -0.08 2884
0.20 0.23 0.20 -0.86 9.81 0.01 0.02 -0.08 2891
0.19 0.26 0.25 -0.89 9.81 0.01 0.02 -0.07 2898
0.22 0.24 0.23 -0.87 9.81 0.00 0.02 -0.08 2906
0.23 0.25 0.22 -0.87 9.78 0.00 0.02 -0.08 2913
0.25 0.22 0.28 -0.88 9.81 0.00 0.02 -0.07 2920
0.24 0.21 0.24 -0.86 9.81 -0.00 0.02 -0.07 2927
0.23 0.23 0.22 -0.86 9.21 -0.00 0.02 -0.07 2934
0.26 0.21 0.20 -0.90 9.78 0.00 0.02 -0.08 2941
0.27 0.21 0.21 -0.88 9.81 0.01 0.02 -0.07 2949
0.27 0.20 0.19 -0.87 9.81 0.00 0.03 -0.08 2956
0.28 0.20 0.20 -0.88 9.80 -0.00 0.03 -0.07 2963
0.27 0.22 0.21 -0.91 9.21 0.00 0.03 -0.07 2970
0.28 0.21 0.23 -0.87 9.80 0.00 0.03 -0.07 2977
0.30 0.21 0.21 -0.86 9.78 0.00 0.03 -0.07 2984
0.33 0.20 0.19 -0.89 9.81 0.00 0.03 -0.07 2992
0.32 0.19 0.24 -0.89 9.79 0.00 0.03 -0.07 2999
0.34 0.16 0.26 -0.91 9.80 -0.00 0.04 -0.07 3006
0.33 0.19 0.21 -0.89 9.78 -0.00 0.04 -0.07 3013
0.33 0.19 0.21 -0.90 9.82 -0.00 0.04 -0.07 3020
0.33 0.19 0.20 -0.92 9.77 0.00 0.04 -0.06 3027
0.34 0.18 0.18 -0.89 9.79 0.03 0.04 -0.07 3035
0.34 0.21 0.18 -0.91 9.80 0.00 0.04 -0.07 3042
0.33 0.17 0.20 -0.89 9.80 -0.00 0.04 -0.07 3049
0.32 0.17 0.22 -0.87 9.80 0.00 0.05 -0.06 3056
0.32 0.21 0.19 -0.90 9.79 0.00 0.05 -0.06 3063
0.32 0.20 0.22 -0.90 9.75 0.03 0.05 -0.07 3070
0.31 0.19 0.23 -0.90 9.78 0.00 0.06 -0.06 3078
0.31 0.19 0.22 -0.91 9.79 0.00 0.06 -0.07 3085
0.29 0.15 0.20 -0.91 9.79 0.01 0.07 -0.06 3092
0.28 0.17 0.20 -0.89 9.80 0.01 0.07 -0.07 3099
0.29 0.16 0.24 -0.90 9.82 0.01 0.07 -0.06 3106
0.30 0.15 0.23 -0.91 9.83 0.01 0.07 -0.07 3113
0.29 0.08 0.27 -0.88 9.81 0.01 0.06 -0.07 3121
0.29 0.06 0.25 -0.92 9.80 0.01 0.06 -0.07 3128
0.29 0.04 0.21 -0.91 9.81 0.01 0.06 -0.07 3135
0.29 0.05 0.23 -0.89 9.77 0.00 0.06 -0.07 3142
0.29 0.07 0.23 -0.90 9.82 0.01 0.06 -0.07 3149
0.30 0.05 0.23 -0.91 9.79 0.01 0.06 -0.07 3156
0.28 0.06 0.25 -0.91 9.82 0.01 0.07 -0.07 3164
0.29 0.05 0.25 -0.91 9.82 0.01 0.07 -0.07 3171
0.27 0.05 0.21 -0.90 9.80 0.01 0.06 -0.07 3178
0.28 0.02 0.23 -0.90 9.75 0.01 0.07 -0.07 3185
0.28 0.03 0.23 -0.93 9.79 0.01 0.07 -0.07 3192
0.29 0.02 0.26 -0.92 9.79 0.01 0.07 -0.07 3200
0.28 0.00 0.23 -0.92 9.83 0.01 0.07 -0.07 3207
0.27 -0.01 0.29 -0.93 9.81 0.01 0.08 -0.07 3214
0.26 -0.00 0.26 -0.94 9.82 0.01 0.07 -0.08 3221
0.28 0.01 0.23 -0.92 9.81 0.01 0.07 -0.07 3228
0.29 0.01 0.27 -0.97 9.82 0.01 0.07 -0.07 3235
0.30 -0.01 0.24 -0.92 9.79 0.01 0.07 -0.07 3243
0.28 -0.01 0.25 -0.93 9.80 0.02 0.07 -0.07 3250
0.28 -0.01 0.28 -0.95 9.81 0.01 0.07 -0.07 3257
0.29 -0.01 0.30 -0.94 9.75 0.01 0.06 -0.08 3264
0.30 -0.00 0.28 -0.93 9.80 0.01 0.06 -0.07 3271
0.32 -0.01 0.28 -0.95 9.80 0.01 0.07 -0.07 3278
0.30 -0.02 0.27 -0.97 9.80 0.01 0.07 -0.07 3286
0.29 -0.02 0.29 -0.96 9.81 0.02 0.07 -0.07 3293
0.28 -0.02 0.26 -0.93 9.79 0.02 0.07 -0.07 3300
0.29 -0.01 0.32 -0.96 9.82 0.01 0.08 -0.08 3307
0.30 -0.00 0.28 -0.96 9.82 0.01 0.08 -0.07 3314
0.31 -0.02 0.26 -0.96 9.20 0.02 0.08 -0.08 3321
0.30 -0.02 0.29 -0.96 9.81 0.02 0.09 -0.08 3329
0.29 -0.01 0.32 -0.93 9.82 0.02 0.09 -0.07 3336
0.27 -0.01 0.31 -0.94 9.82 0.03 0.09 -0.07 3343
0.28 -0.01 0.28 -0.94 9.80 0.04 0.09 -0.08 3350
0.26 -0.00 0.34 -0.97 9.82 0.04 0.09 -0.07 3357
0.29 -0.00 0.34 -0.98 9.82 0.04 0.10 -0.08 3364
0.29 -0.01 0.32 -0.98 9.82 0.04 0.10 -0.08 3372
0.29 -0.02 0.34 -0.98 9.79 0.04 0.11 -0.08 3379
0.28 -0.02 0.35 -0.98 9.82 0.05 0.10 -0.07 3386
0.29 -0.01 0.37 -0.98 9.75 0.04 0.10 -0.07 3393
0.30 -0.02 0.36 -0.99 9.80 0.04 0.10 -0.07 3400
0.30 -0.02 0.39 -0.97 9.77 0.04 0.07 -0.07 3407
0.29 -0.02 0.40 -0.97 9.79 0.04 0.10 -0.08 3415
0.27 -0.03 0.36 -0.96 9.83 0.04 0.10 -0.07 3422
0.28 -0.02 0.35 -0.97 9.76 0.04 0.11 -0.07 3429
0.31 -0.02 0.34 -0.98 9.82 0.06 0.12 -0.07 3436
0.34 -0.01 0.39 -0.99 9.82 0.07 0.17 -0.07 3443
0.33 -0.01 0.40 -1.00 9.87 0.09 0.14 -0.07 3450
0.34 -0.02 0.40 -1.01 9.84 0.10 0.17 -0.07 3458
0.33 -0.03 0.40 -1.03 9.82 0.12 0.18 -0.07 3465
0.33 -0.02 0.42 -1.05 9.85 0.14 0.21 -0.07 3472
0.34 -0.01 0.38 -1.04 9.83 0.16 0.23 -0.07 3479
0.35 -0.02 0.36 -1.05 9.82 0.18 0.24 -0.06 3486
0.34 -0.02 0.40 -1.04 9.87 0.20 0.25 -0.06 3493
0.36 -0.03 0.44 -1.05 9.90 0.23 0.26 -0.05 3501
0.35 -0.02 0.50 -1.06 9.93 0.27 0.28 -0.06 3508
0.35 -0.02 0.57 -1.14 9.84 0.29 0.28 -0.06 3515
0.35 -0.01 0.60 -1.15 9.84 0.32 0.27 -0.06 3522
0.36 -0.02 0.57 -1.21 9.96 0.36 0.27 -0.07 3529
0.36 -0.03 0.02 -1.23 10.05 0.40 0.27 -0.07 3536
0.33 -0.03 0.63 -1.31 10.12 0.46 0.26 -0.08 3545
0.32 -0.02 0.66 -1.30 10.26 0.50 0.26 -0.08 3551
0.32 -0.02 0.64 -1.35 10.36 0.58 0.24 -0.08 3559
0.32 -0.02 0.68 -1.38 10.41 0.64 0.21 -0.10 3566
0.32 -0.03 0.67 -1.43 10.44 0.69 0.19 -0.10 3573
0.31 -0.02 0.71 -1.54 9.84 0.74 0.15 -0.11 3579
0.29 -0.03 0.68 -1.53 10.48 0.80 0.12 -0.12 3587
0.27 -0.02 0.67 -1.64 10.36 0.79 0.08 -0.12 3595
0.24 -0.02 0.60 -1.71 10.28 0.81 0.05 -0.12 3601
0.21 -0.01 0.62 -1.81 10.03 0.82 0.02 -0.12 3609
0.21 -0.02 0.62 -1.83 9.97 0.83 -0.01 -0.12 3615
0.18 -0.02 0.63 -1.87 9.96 0.83 -0.02 -0.11 3622
0.16 -0.02 0.51 -1.97 9.98 0.82 -0.03 -0.10 3630
0.14 -0.01 0.56 -1.97 9.89 0.82 -0.03 -0.10 3637
0.14 -0.01 0.59 -2.11 9.86 0.83 -0.02 -0.10 3644
0.14 -0.01 0.78 -2.10 9.49 0.83 -0.03 -0.10 3651
0.13 -0.01 0.80 -2.32 10.15 0.84 -0.04 -0.11 3658
0.11 -0.01 0.85 -2.16 10.54 0.86 -0.06 -0.12 3665
0.12 -0.01 0.41 -2.27 10.28 0.88 -0.07 -0.13 3673
0.10 -0.01 0.58 -2.42 10.14 0.93 -0.04 -0.14 3680
0.12 -0.00 0.41 -3.04 9.97 0.98 -0.09 -0.14 3687
0.13 -0.01 0.66 -2.59 10.16 1.01 -0.05 -0.14 3694
0.10 -0.01 0.60 -2.69 9.89 1.06 -0.07 -0.15 3701
0.12 -0.01 0.69 -2.83 10.19 1.11 -0.06 -0.15 3708
0.10 -0.01 0.59 -2.79 10.14 1.15 -0.07 -0.14 3716
0.08 -0.01 0.46 -2.90 10.23 1.20 -0.06 -0.14 3723
0.11 -0.00 0.48 -3.13 10.07 1.26 -0.05 -0.14 3731
0.09 -0.01 0.51 -3.19 10.06 1.31 -0.00 -0.13 3737
0.08 -0.01 0.47 -3.25 10.07 1.37 -0.02 -0.12 3744
0.09 -0.01 0.40 -3.37 10.18 1.43 -0.01 -0.12 3751
0.07 -0.01 0.50 -3.57 10.22 1.48 -0.00 -0.11 3759
0.06 -0.01 0.52 -3.64 10.24 1.54 -0.00 -0.11 3766
0.08 -0.00 0.61 -3.82 10.48 1.59 0.00 -0.11 3773
0.14 -0.01 0.52 -3.85 10.54 1.65 -0.01 -0.11 3780
0.10 -0.01 0.61 -4.07 10.53 1.71 -0.02 -0.12 3787
0.07 -0.01 0.57 -4.25 10.48 1.75 -0.04 -0.12 3794
0.06 -0.01 0.63 -4.42 10.50 1.79 -0.06 -0.12 3802
0.07 -0.01 0.71 -4.53 10.33 1.82 -0.07 -0.13 3809
0.08 -0.01 0.70 -4.72 10.41 1.84 -0.07 -0.14 3816
0.10 -0.01 0.74 -4.91 10.30 1.85 -0.06 -0.15 3823
0.08 -0.01 0.87 -5.03 10.38 1.86 -0.05 -0.16 3830
0.06 -0.01 0.86 -5.14 10.21 1.85 -0.04 -0.17 3837
0.04 -0.00 0.81 -5.28 9.99 1.82 -0.02 -0.18 3845
0.06 -0.01 0.81 -5.32 9.82 1.79 -0.02 -0.19 3852
0.07 -0.01 0.74 -5.39 9.79 1.75 -0.03 -0.20 3859
0.07 -0.01 0.66 -5.47 9.63 1.72 -0.05 -0.22 3866
0.07 -0.01 0.52 -5.52 9.59 1.67 -0.08 -0.22 3873
0.06 -0.01 0.48 -5.72 9.93 1.61 -0.13 -0.24 3880
0.04 -0.00 0.47 -5.96 10.37 1.57 -0.15 -0.24 3888
0.05 -0.01 0.71 -6.20 10.49 1.51 -0.18 -0.26 3895
0.04 -0.00 0.60 -6.46 9.98 1.46 -0.23 -0.27 3902
0.04 -0.00 0.46 -6.33 9.43 1.40 -0.26 -0.27 3909
0.02 -0.00 0.38 -6.08 9.00 1.31 -0.31 -0.27 3916
0.02 -0.00 0.44 -5.60 8.06 1.25 -0.33 -0.27 3923
0.00 0.00 0.32 -5.18 7.53 1.18 -0.35 -0.27 3931
0.00 0.00 0.37 -4.72 6.50 1.11 -0.36 -0.26 3938
0.00 0.00 0.61 -4.62 5.37 1.01 -0.37 -0.25 3945
0.00 0.00 0.75 -4.53 4.74 0.92 -0.39 -0.27 3952
0.01 -0.00 0.89 -4.74 4.59 0.84 -0.41 -0.29 3959
0.00 0.00 0.91 -4.47 5.10 0.78 -0.41 -0.32 3966
0.00 0.00 1.07 -4.79 5.64 0.73 -0.36 -0.34 3974
0.00 0.00 1.02 -5.00 6.44 0.66 -0.28 -0.37 3981
0.00 0.00 0.95 -3.98 6.83 0.58 -0.18 -0.38 3988
0.00 0.00 0.88 -4.46 6.43 0.48 -0.08 -0.40 3995
0.00 0.00 0.89 -3.17 6.49 0.36 -0.02 -0.42 4002
0.00 0.00 0.56 0.52 6.75 0.14 0.02 -0.42 4009
0.00 0.00 0.43 2.70 6.40 -0.07 0.03 -0.42 4017
0.00 -0.00 0.50 2.97 7.11 -0.43 0.06 -0.42 4024
0.00 0.00 0.33 2.23 7.80 -0.71 0.04 -0.42 4031
0.00 0.00 0.29 0.25 8.20 -0.97 0.04 -0.40 4038
0.00 0.00 0.19 -0.46 8.75 -1.13 0.05 -0.37 4045
0.00 0.00 0.03 -0.44 8.36 -1.17 0.05 -0.35 4052
0.00 0.00 -0.12 -0.51 7.75 -1.15 0.02 -0.33 4060
0.00 0.00 -0.08 -0.45 7.33 -1.13 -0.06 -0.30 4067
0.00 0.00 0.06 -0.45 7.24 -1.12 -0.13 -0.27 4074
0.00 0.00 0.48 -0.48 7.54 -1.12 -0.20 -0.24 4081
0.00 0.00 0.81 -0.74 7.84 -1.15 -0.22 -0.22 4088
0.00 0.00 1.07 -0.95 8.11 -1.18 -0.21 -0.20 4096
0.00 0.00 1.31 -1.20 8.44 -1.22 -0.15 -0.18 4103
0.00 0.00 1.42 -1.29 8.73 -1.27 -0.06 -0.15 4110
0.00 0.00 1.38 -1.44 9.17 -1.34 0.04 -0.11 4117
0.00 0.00 1.21 -2.05 9.36 -1.40 0.17 -0.07 4124
0.00 0.00 0.70 -3.60 9.87 -1.49 0.21 -0.02 4131
0.00 0.00 0.46 -3.72 10.75 -1.53 0.25 0.01 4139
0.00 0.00 -0.26 -2.52 8.50 -1.58 0.25 0.03 4146
0.00 0.00 0.41 -2.41 9.90 -1.67 0.28 0.05 4153
0.00 0.00 -0.64 -6.64 9.73 -1.65 0.23 0.03 4160
0.00 0.00 1.44 -2.78 7.68 -1.77 0.27 0.05 4167
0.00 0.00 0.54 -3.38 10.31 -1.67 0.28 0.04 4174
0.00 0.00 -0.02 -6.61 7.89 -1.69 0.32 0.04 4182
0.00 0.00 -0.11 -4.11 11.96 -1.61 0.38 0.05 4189
0.00 0.00 -0.31 -3.84 9.58 -1.55 0.39 0.04 4196
0.00 0.00 -0.56 -5.39 10.63 -1.44 0.39 0.01 4203
0.00 0.00 0.34 -2.66 10.04 -1.44 0.41 -0.00 4210
0.00 0.00 -0.22 -4.00 8.86 -1.37 0.37 -0.04 4217
0.00 0.00 -0.02 -4.33 10.44 -1.36 0.36 -0.07 4225
0.00 0.00 -0.67 -4.16 10.33 -1.33 0.39 -0.09 4232
0.00 0.00 -0.78 -3.60 11.64 -1.34 0.42 -0.13 4239
0.00 0.00 0.06 -2.93 9.98 -1.33 0.45 -0.18 4246
0.00 0.00 0.32 -3.58 10.70 -1.33 0.47 -0.20 4253
0.00 0.00 -0.91 -2.31 10.82 -1.36 0.47 -0.23 4260
0.00 0.00 -0.58 -2.97 10.13 -1.30 0.40 -0.25 4268
0.00 0.00 -0.25 -2.53 9.61 -1.36 0.36 -0.26 4275
0.00 0.00 -0.37 -3.00 10.15 -1.34 0.31 -0.27 4282
0.00 0.00 -0.11 -2.88 10.08 -1.34 0.29 -0.28 4289
0.00 0.00 0.03 -2.60 10.06 -1.31 0.28 -0.28 4296
0.00 0.00 0.00 -2.38 9.84 -1.29 0.29 -0.28 4303
0.00 0.00 -0.04 -2.33 9.88 -1.27 0.32 -0.26 4311
0.00 0.00 -0.06 -2.39 10.10 -1.25 0.36 -0.24 4318
0.00 0.00 -0.14 -2.48 10.26 -1.24 0.39 -0.21 4325
0.00 0.00 -0.16 -2.49 10.54 -1.23 0.40 -0.19 4332
0.00 0.00 -0.07 -2.51 10.89 -1.24 0.40 -0.14 4339
0.00 0.00 -0.11 -2.40 11.01 -1.26 0.39 -0.09 4346
0.00 0.00 0.00 -2.44 11.05 -1.29 0.35 -0.03 4354
0.00 0.00 0.14 -2.43 11.04 -1.33 0.29 0.04 4361
0.00 0.00 0.32 -2.52 10.83 -1.36 0.24 0.12 4368
0.00 0.00 0.62 -2.59 10.61 -1.36 0.20 0.21 4375
0.00 0.00 0.76 -2.66 10.35 -1.35 0.17 0.30 4382
0.00 0.00 0.88 -2.74 10.13 -1.32 0.16 0.38 4389
0.00 0.00 0.95 -2.70 9.93 -1.28 0.16 0.46 4397
0.00 0.00 0.99 -2.67 9.88 -1.22 0.16 0.53 4404
0.00 0.00 1.03 -2.62 10.00 -1.16 0.16 0.58 4411
0.00 0.00 1.18 -2.45 10.10 -1.12 0.19 0.63 4418
0.00 0.00 1.26 -2.39 10.21 -1.08 0.22 0.67 4425
0.00 0.00 1.33 -2.25 10.41 -1.07 0.27 0.71 4432
0.00 0.00 1.36 -2.20 10.67 -1.07 0.32 0.74 4440
0.00 0.00 1.39 -2.30 10.66 -1.10 0.38 0.77 4447
0.00 0.00 1.34 -2.34 10.67 -1.12 0.42 0.80 4454
0.00 0.00 1.26 -2.44 10.73 -1.15 0.43 0.82 4461
0.00 0.00 1.22 -2.70 10.72 -1.17 0.40 0.83 4468
0.00 0.00 1.29 -2.97 10.44 -1.17 0.37 0.83 4475
0.00 0.00 1.40 -3.24 10.23 -1.16 0.33 0.81 4483
0.00 0.00 0.96 -11.43 11.10 -1.07 0.24 0.77 4490
0.00 0.00 -0.65 -5.79 13.43 -0.12 0.23 0.78 4497
0.00 0.00 0.97 -3.80 0.56 -0.31 0.22 0.72 4504
0.00 0.00 0.72 -12.55 8.76 -0.23 -0.03 0.60 4511
0.00 0.00 1.87 -10.93 5.83 0.06 -0.01 0.58 4518
0.00 0.00 1.69 -8.45 5.11 0.29 0.01 0.55 4526
0.00 0.00 -0.63 -12.24 7.87 0.41 -0.12 0.51 4533
0.00 0.00 -2.41 -13.50 6.21 0.69 -0.40 0.46 4540
0.00 0.00 -2.94 -13.24 5.95 0.93 -0.57 0.45 4547
0.00 0.00 -2.90 -13.41 4.72 1.21 -0.60 0.44 4554
-0.00 0.03 -4.79 -17.59 9.01 1.55 -0.78 0.44 4561
0.00 0.01 -14.14 -25.33 23.31 1.02 -1.40 0.20 4570
-0.00 0.01 -0.54 -1.22 8.86 -0.05 -0.02 -0.04 4576
-0.00 0.02 0.50 -4.68 10.23 -0.14 0.09 -0.04 4583
0.01 0.02 -0.48 -1.69 9.48 -0.24 0.10 -0.07 4590
0.02 0.01 0.73 -0.36 9.82 -0.22 0.08 -0.06 4597
0.02 0.05 0.81 -0.60 9.45 -0.18 0.05 -0.02 4604
0.03 0.09 0.61 -0.31 9.25 -0.17 0.02 -0.04 4612
0.02 0.12 0.54 -0.41 9.93 -0.13 -0.01 -0.07 4619
0.02 0.13 0.40 -0.85 9.96 -0.08 0.00 -0.07 4626
-0.02 0.18 0.21 -1.01 9.96 -0.05 0.03 -0.06 4633
-0.00 0.17 0.19 -0.99 9.93 -0.03 0.05 -0.06 4640
-0.00 0.23 0.24 -0.91 9.81 -0.02 0.06 -0.06 4647
-0.00 0.21 0.26 -0.86 9.77 -0.01 0.07 -0.05 4655
0.00 0.19 0.28 -0.91 9.74 -0.01 0.08 -0.05 4662
0.01 0.19 0.33 -0.98 9.86 -0.01 0.07 -0.05 4669
-0.00 0.17 0.40 -0.88 9.82 -0.01 0.06 -0.06 4676
0.00 0.19 0.41 -0.88 9.84 -0.01 0.06 -0.06 4683
0.01 0.20 0.38 -0.89 9.81 -0.01 0.05 -0.06 4690
0.01 0.20 0.39 -0.89 9.83 -0.01 0.04 -0.06 4698
0.02 0.17 0.37 -0.90 9.87 -0.01 0.03 -0.06 4705
0.02 0.16 0.36 -0.91 9.82 -0.01 0.03 -0.07 4712
0.01 0.16 0.39 -0.86 9.80 -0.01 0.03 -0.07 4719
0.02 0.18 0.39 -0.86 9.88 -0.01 0.03 -0.07 4726
0.04 0.17 0.36 -0.89 9.84 -0.01 0.02 -0.07 4733
0.02 0.16 0.32 -0.90 9.83 -0.01 0.02 -0.07 4741
0.02 0.16 0.32 -0.87 9.78 -0.01 0.02 -0.07 4748
0.00 0.15 0.31 -0.92 9.84 -0.01 0.02 -0.07 4755
0.01 0.14 0.31 -0.90 9.82 -0.01 0.02 -0.07 4762
0.02 0.15 0.35 -0.85 9.77 -0.01 0.02 -0.07 4769
0.03 0.15 0.34 -0.86 9.77 -0.01 0.02 -0.10 4776
0.02 0.15 0.34 -0.86 9.82 -0.01 0.02 -0.06 4784
0.02 0.15 0.32 -0.90 9.83 -0.02 0.02 -0.07 4791
0.01 0.15 0.30 -0.87 9.80 -0.01 0.03 -0.07 4798
0.02 0.15 0.32 -0.88 9.81 -0.02 0.03 -0.06 4805
0.02 0.16 0.32 -0.88 9.75 -0.02 0.04 -0.06 4812
0.03 0.15 0.28 -0.86 9.80 -0.02 0.05 -0.07 4819
0.02 0.14 0.31 -0.85 9.82 -0.02 0.05 -0.07 4827
0.03 0.13 0.35 -0.87 9.21 -0.02 0.05 -0.07 4834
0.00 0.15 0.33 -0.85 9.82 -0.02 0.05 -0.07 4841
0.02 0.15 0.32 -0.88 9.82 -0.01 0.05 -0.06 4848
0.02 0.16 0.33 -0.89 9.81 -0.02 0.05 -0.06 4855
0.03 0.15 0.30 -0.89 9.82 -0.02 0.04 -0.06 4862
0.03 0.16 0.35 -0.87 9.80 -0.02 0.04 -0.06 4870
0.03 0.17 0.33 -0.85 9.77 -0.01 0.04 -0.06 4877
0.02 0.19 0.30 -0.89 9.80 -0.01 0.04 -0.06 4884
0.02 0.19 0.34 -0.87 9.81 -0.02 0.04 -0.06 4891
0.04 0.18 0.37 -0.86 9.77 -0.02 0.04 -0.06 4898
0.05 0.18 0.39 -0.87 9.80 -0.02 0.04 -0.07 4905
0.05 0.20 0.33 -0.87 9.80 -0.02 0.03 -0.06 4913
0.04 0.20 0.39 -0.86 9.80 -0.02 0.03 -0.07 4920
0.04 0.20 0.31 -0.86 9.81 -0.03 0.03 -0.07 4927
0.04 0.22 0.32 -0.85 9.81 -0.02 0.03 -0.06 4934
0.04 0.22 0.28 -0.84 9.81 -0.03 0.03 -0.07 4941
0.04 0.22 0.33 -0.83 9.81 -0.02 0.03 -0.07 4948
0.03 0.23 0.33 -0.83 9.82 -0.02 0.07 -0.06 4956
0.04 0.21 0.34 -0.83 10.41 -0.01 0.03 -0.07 4963
0.06 0.22 0.30 -0.83 9.80 -0.01 0.04 -0.07 4970
0.06 0.23 0.30 -0.87 9.81 -0.01 0.04 -0.07 4977
0.07 0.23 0.31 -0.86 9.79 -0.00 0.05 -0.07 4984
0.07 0.23 0.33 -0.79 9.78 -0.00 0.05 -0.07 4992
0.07 0.22 0.29 -0.86 9.77 -0.00 0.06 -0.07 4999
0.07 0.22 0.28 -0.87 9.81 0.01 0.06 -0.07 5006
0.09 0.21 0.29 -0.86 9.82 0.01 0.06 -0.06 5013
0.11 0.19 0.32 -0.86 9.82 0.01 0.06 -0.07 5020
0.11 0.18 0.35 -0.86 9.81 0.01 0.07 -0.07 5027
0.11 0.19 0.35 -0.88 9.82 0.01 0.07 -0.07 5035
0.10 0.16 0.33 -0.86 9.80 0.01 0.06 -0.07 5042
0.10 0.17 0.37 -0.86 9.78 0.01 0.06 -0.08 5049
0.11 0.16 0.35 -0.85 9.82 0.01 0.06 -0.07 5056
0.12 0.16 0.34 -0.86 9.81 0.01 0.06 -0.07 5063
0.14 0.15 0.40 -0.92 9.81 0.01 0.06 -0.07 5070
0.13 0.16 0.37 -0.90 9.78 0.01 0.06 -0.07 5078
0.14 0.15 0.32 -0.87 9.81 0.01 0.06 -0.07 5085
0.13 0.15 0.33 -0.86 9.20 0.01 0.06 -0.07 5092
0.14 0.14 0.34 -0.89 9.80 0.01 0.06 -0.06 5099
0.15 0.12 0.36 -0.87 9.81 0.01 0.06 -0.07 5106
0.15 0.10 0.30 -0.86 9.81 0.01 0.06 -0.07 5113
0.15 0.11 0.39 -0.86 9.80 0.01 0.07 -0.07 5121
0.15 0.08 0.33 -0.87 9.82 0.01 0.07 -0.07 5128
0.14 0.08 0.34 -0.86 9.80 0.01 0.07 -0.07 5135
0.14 0.07 0.35 -0.88 9.77 0.01 0.07 -0.07 5142
0.15 0.05 0.37 -0.88 9.81 0.01 0.07 -0.07 5149
0.15 0.04 0.36 -0.87 9.81 0.01 0.07 -0.07 5156
0.14 0.02 0.38 -0.90 9.79 0.01 0.07 -0.07 5164
0.14 0.02 0.35 -0.90 9.80 0.01 0.08 -0.07 5171
0.13 0.01 0.41 -0.88 9.76 0.01 0.08 -0.07 5178
0.15 0.03 0.39 -0.90 9.80 0.02 0.07 -0.07 5185
0.16 0.02 0.40 -0.90 9.79 0.01 0.07 -0.07 5192
0.16 0.02 0.39 -0.90 9.77 0.01 0.08 -0.07 5199
0.15 0.01 0.38 -0.91 9.78 0.02 0.07 -0.08 5207
0.13 0.03 0.37 -0.92 9.82 0.02 0.08 -0.07 5214
0.16 0.01 0.41 -0.89 9.81 0.01 0.07 -0.07 5221
0.16 0.02 0.42 -0.90 9.82 0.01 0.07 -0.07 5228
0.18 0.01 0.37 -0.86 9.82 0.01 0.07 -0.07 5235
0.16 0.00 0.40 -0.92 9.81 0.01 0.07 -0.07 5242
0.17 -0.01 0.41 -0.91 9.82 0.01 0.07 -0.08 5250
0.16 -0.01 0.41 -0.95 9.81 0.00 0.06 -0.07 5257
0.16 -0.00 0.40 -0.91 9.79 0.00 0.06 -0.07 5264
0.17 0.01 0.40 -0.91 9.81 0.00 0.05 -0.07 5271
0.18 0.00 0.43 -0.91 9.81 0.00 0.05 -0.08 5278
0.17 -0.01 0.45 -0.93 9.82 0.00 0.05 -0.07 5285
0.18 -0.02 0.41 -0.92 9.79 0.00 0.05 -0.07 5293
0.17 -0.00 0.44 -0.87 9.79 -0.00 0.04 -0.07 5300
0.18 0.00 0.39 -0.92 9.82 -0.00 0.04 -0.07 5307
0.20 0.01 0.43 -0.91 9.75 -0.00 0.04 -0.07 5314
0.20 0.01 0.42 -0.88 9.79 -0.00 0.03 -0.07 5321
0.20 -0.00 0.44 -0.92 9.82 -0.01 0.03 -0.07 5328
0.21 -0.00 0.41 -0.93 9.81 -0.01 0.03 -0.07 5336
0.19 0.01 0.38 -0.92 9.83 -0.01 0.02 -0.07 5343
0.20 0.01 0.41 -0.91 9.20 -0.01 0.02 -0.07 5350
0.21 0.00 0.42 -0.92 9.77 -0.01 0.03 -0.07 5357
0.22 0.00 0.43 -0.91 9.81 -0.01 0.03 -0.07 5364
0.22 0.00 0.39 -0.93 9.79 -0.01 0.02 -0.08 5371
0.20 -0.01 0.44 -0.91 9.82 -0.01 0.02 -0.07 5379
0.21 -0.01 0.41 -0.95 9.76 -0.01 0.02 -0.07 5386
0.22 0.02 0.40 -0.91 9.81 -0.01 0.03 -0.07 5393
0.24 0.01 0.40 -0.94 9.81 -0.01 0.03 -0.07 5400
0.24 0.02 0.39 -0.95 9.80 -0.01 0.03 -0.07 5407
0.22 0.02 0.40 -0.92 9.80 -0.01 0.03 -0.07 5414
0.22 0.02 0.39 -0.91 9.81 -0.01 0.03 -0.07 5422
0.22 0.02 0.40 -0.91 9.81 -0.01 0.03 -0.07 5429
0.23 0.02 0.37 -0.93 9.80 -0.01 0.07 -0.07 5436
0.23 0.02 0.42 -0.93 9.79 -0.01 0.04 -0.07 5443
0.24 0.02 0.39 -0.88 9.82 -0.01 0.04 -0.07 5450
0.23 0.01 0.42 -0.92 9.81 -0.01 0.04 -0.07 5457
0.22 0.02 0.40 -0.92 9.82 -0.01 0.04 -0.08 5465
0.22 0.02 0.38 -0.94 9.78 -0.01 0.04 -0.07 5472
0.23 0.03 0.38 -0.94 9.20 -0.01 0.04 -0.07 5479
0.24 0.02 0.39 -0.93 9.80 -0.01 0.04 -0.07 5486
0.23 0.01 0.41 -0.93 9.74 -0.01 0.04 -0.07 5493
0.23 0.00 0.38 -0.95 9.79 -0.01 0.04 -0.07 5500
0.22 0.02 0.39 -0.90 9.80 -0.01 0.04 -0.07 5508
0.23 0.02 0.38 -0.88 9.79 -0.01 0.05 -0.07 5515
0.22 0.03 0.39 -0.94 9.80 -0.01 0.04 -0.07 5522
0.24 0.02 0.42 -0.92 9.81 -0.01 0.04 -0.07 5529
0.23 0.02 0.40 -0.91 9.81 -0.00 0.05 -0.08 5536
0.22 0.02 0.36 -0.91 9.81 -0.00 0.05 -0.07 5543
0.22 0.03 0.38 -0.93 9.83 -0.00 0.04 -0.08 5551
0.22 0.04 0.40 -0.94 9.81 -0.00 0.04 -0.07 5558
0.24 0.03 0.38 -0.94 9.81 0.00 0.04 -0.07 5565
0.23 0.02 0.37 -0.89 9.79 -0.00 0.05 -0.08 5572
0.23 0.03 0.40 -0.90 9.81 0.03 0.05 -0.07 5579
0.22 0.02 0.42 -0.93 9.81 0.00 0.04 -0.07 5586
0.22 0.03 0.37 -0.89 9.76 0.00 0.05 -0.08 5594
0.23 0.04 0.40 -0.92 9.80 -0.00 0.05 -0.08 5601
0.23 0.03 0.40 -0.95 9.82 0.00 0.05 -0.08 5608
0.23 0.01 0.36 -0.93 9.81 -0.00 0.05 -0.07 5615
0.23 0.01 0.39 -0.95 9.79 -0.00 0.06 -0.08 5622
0.22 0.01 0.45 -0.92 9.81 0.00 0.05 -0.08 5629
0.22 0.01 0.46 -0.94 9.81 0.00 0.06 -0.07 5637
0.22 0.00 0.43 -0.91 9.81 0.01 0.06 -0.07 5644
0.23 -0.00 0.43 -0.92 9.82 0.01 0.06 -0.08 5651
0.22 -0.01 0.42 -0.95 9.82 0.02 0.06 -0.08 5658
0.23 -0.02 0.44 -0.91 9.82 0.03 0.07 -0.08 5665
0.22 -0.01 0.43 -0.93 9.86 0.04 0.08 -0.08 5672
0.23 -0.01 0.41 -0.94 9.89 0.06 0.09 -0.08 5680
0.23 -0.00 0.46 -0.96 9.92 0.08 0.10 -0.09 5687
0.24 -0.01 0.43 -0.94 9.92 0.10 0.12 -0.08 5694
0.24 -0.01 0.43 -0.99 9.99 0.13 0.14 -0.09 5701
0.23 -0.02 0.53 -0.96 10.02 0.17 0.17 -0.09 5708
0.21 -0.01 0.51 -0.97 10.05 0.23 0.20 -0.10 5715
0.22 -0.02 0.57 -0.99 10.20 0.32 0.25 -0.11 5724
0.23 -0.01 0.63 -1.07 10.28 0.43 0.28 -0.12 5731
0.23 -0.02 0.65 -1.08 10.54 0.58 0.30 -0.13 5738
0.23 -0.01 0.59 -1.23 10.63 0.72 0.27 -0.14 5745
0.22 -0.02 0.63 -1.25 10.63 0.82 0.23 -0.15 5752
0.21 -0.02 0.41 -1.32 10.64 0.90 0.16 -0.15 5760
0.20 -0.01 0.53 -1.36 10.71 0.93 0.10 -0.15 5767
0.20 -0.02 0.45 -1.37 10.65 0.94 0.06 -0.14 5773
0.19 -0.02 0.50 -1.50 10.40 0.97 0.03 -0.13 5780
0.17 -0.02 0.52 -1.50 10.43 0.98 0.01 -0.12 5787
0.16 -0.02 0.51 -1.63 10.23 0.98 -0.02 -0.12 5794
0.15 -0.02 0.62 -1.77 10.12 0.98 -0.04 -0.12 5801
0.16 -0.01 0.53 -1.79 10.17 0.99 -0.05 -0.12 5810
0.16 -0.02 0.63 -1.95 10.30 1.01 -0.09 -0.12 5816
0.15 -0.01 0.05 -2.00 10.16 1.02 -0.07 -0.13 5823
0.14 -0.01 0.59 -1.99 9.72 1.04 -0.11 -0.14 5830
0.12 -0.01 0.73 -2.19 10.17 1.07 -0.11 -0.14 5837
0.13 -0.01 0.71 -2.26 9.92 1.09 -0.12 -0.16 5844
0.09 -0.00 0.66 -2.32 9.98 1.11 -0.15 -0.17 5852
0.07 -0.01 0.80 -2.42 10.09 1.12 -0.17 -0.19 5859
0.06 -0.01 0.71 -2.57 10.24 1.14 -0.18 -0.20 5866
0.03 -0.00 0.74 -2.69 10.32 1.17 -0.20 -0.22 5873
0.04 -0.00 0.79 -2.74 10.42 1.21 -0.22 -0.24 5880
0.03 -0.00 0.89 -2.87 10.42 1.27 -0.24 -0.26 5888
0.02 -0.00 0.86 -2.95 10.46 1.30 -0.27 -0.29 5895
0.06 -0.01 0.43 -2.73 10.90 1.33 -0.33 -0.31 5902
0.04 -0.00 1.03 -3.27 10.89 1.38 -0.29 -0.34 5909
0.03 -0.00 0.97 -3.39 10.77 1.42 -0.28 -0.37 5916
0.00 -0.00 0.88 -3.49 10.68 1.47 -0.24 -0.38 5923
0.03 -0.00 0.91 -3.67 10.79 1.50 -0.19 -0.41 5931
0.02 -0.00 0.84 -3.65 11.03 1.52 -0.15 -0.43 5938
0.03 -0.00 0.78 -3.76 10.98 1.54 -0.12 -0.45 5945
0.03 -0.00 0.11 -3.90 10.62 1.53 -0.12 -0.47 5952
0.01 -0.00 0.60 -3.96 10.59 1.50 -0.14 -0.48 5959
0.01 -0.00 0.53 -3.99 10.67 1.44 -0.18 -0.50 5966
0.00 0.00 0.45 -4.15 10.67 1.44 -0.24 -0.51 5974
0.00 0.00 0.42 -4.20 10.45 1.42 -0.30 -0.53 5981
0.00 0.00 0.31 -4.26 10.22 1.40 -0.37 -0.55 5988
0.00 0.00 0.22 -4.11 10.02 1.35 -0.46 -0.56 5995
0.00 0.00 0.20 -4.31 9.58 1.27 -0.52 -0.57 6002
0.00 0.00 0.26 -4.32 9.90 1.26 -0.55 -0.58 6009
0.00 0.00 0.38 -4.60 9.88 1.21 -0.54 -0.59 6017
0.00 0.00 0.48 -4.52 9.39 1.15 -0.50 -0.59 6024
0.00 0.00 0.63 -4.14 8.75 1.08 -0.46 -0.60 6031
0.00 0.00 0.59 -3.85 8.07 0.98 -0.42 -0.62 6038
0.00 0.00 0.35 -4.27 7.62 0.91 -0.39 -0.64 6045
0.00 0.00 0.29 -3.27 7.43 0.82 -0.38 -0.66 6052
0.00 0.00 0.29 -2.11 7.24 0.76 -0.34 -0.67 6060
0.00 0.00 0.32 -2.09 7.15 0.67 -0.30 -0.67 6067
0.00 0.00 -0.14 -1.90 7.26 0.58 -0.26 -0.66 6074
0.00 0.00 0.11 -1.14 7.58 0.53 -0.24 -0.62 6081
0.00 0.00 -0.04 -0.30 7.23 0.45 -0.23 -0.56 6088
0.00 0.00 0.06 0.09 7.21 0.35 -0.19 -0.47 6095
0.00 0.00 0.07 -0.15 7.36 0.26 -0.16 -0.39 6103
0.00 -0.00 0.02 -0.30 7.55 0.19 -0.14 -0.26 6110
0.00 0.00 0.26 -0.06 7.68 0.12 -0.09 -0.10 6117
0.01 -0.00 0.10 -0.46 7.37 0.05 -0.05 0.05 6124
0.00 0.00 0.13 -0.62 7.51 -0.03 -0.01 0.20 6131
0.00 0.00 0.07 -0.01 7.36 -0.06 0.01 0.31 6138
0.00 0.00 0.00 -0.83 7.42 -0.10 0.04 0.41 6146
0.00 0.00 -0.02 -1.17 7.50 -0.12 0.07 0.48 6153
0.00 0.00 -1.27 -3.14 7.19 -0.14 0.09 0.48 6160
0.00 0.00 -1.57 -3.76 8.65 -0.19 0.13 0.39 6167
0.00 0.00 -1.95 -4.58 8.90 -0.17 0.15 0.26 6174
0.00 0.00 -1.94 -4.20 9.34 -0.20 0.22 0.16 6181
0.00 0.00 -2.51 -8.13 8.23 -0.16 0.27 -0.02 6189
0.00 0.00 -1.68 -5.89 9.78 -0.17 0.28 -0.08 6196
0.00 0.00 -2.05 -4.73 8.53 -0.25 0.33 -0.08 6203
0.00 0.00 -2.32 -8.16 8.35 -0.32 0.32 -0.12 6210
0.00 0.00 -2.24 -4.98 10.44 -0.42 0.13 -0.09 6217
0.00 0.00 -2.22 -5.43 8.40 -0.41 0.04 -0.02 6224
0.00 0.00 -1.49 -4.54 7.95 -0.44 -0.01 0.01 6232
0.00 0.00 -0.51 -4.28 8.01 -0.48 -0.11 0.05 6239
0.00 0.00 0.22 -2.71 8.85 -0.42 -0.12 0.09 6246
0.00 0.00 -0.08 -3.53 6.81 -0.41 -0.08 0.09 6253
0.00 0.00 -0.46 -4.41 7.24 -0.36 -0.05 0.04 6260
0.00 0.00 -0.22 -5.09 6.67 -0.33 -0.02 -0.00 6267
0.00 0.00 -0.44 -5.47 8.51 -0.28 0.08 -0.06 6275
0.00 0.00 -0.86 -4.14 10.00 -0.21 0.11 -0.12 6282
0.00 0.00 -1.33 -7.53 8.28 -0.23 0.10 -0.18 6289
0.00 0.00 -0.77 -7.05 9.08 -0.26 0.15 -0.20 6296
0.00 0.00 -0.91 -6.32 9.11 -0.25 0.16 -0.24 6303
0.00 0.00 0.51 -3.26 9.51 -0.28 0.13 -0.23 6310
0.00 0.00 -0.79 -4.04 7.84 -0.42 0.15 -0.21 6318
0.00 0.00 -1.58 -6.39 8.94 -0.48 0.16 -0.18 6325
0.00 0.00 -0.14 -2.85 9.56 -0.50 0.12 -0.18 6332
0.00 0.00 -0.60 -3.88 7.03 -0.46 0.10 -0.20 6339
0.00 0.00 -0.29 -3.62 8.02 -0.46 0.15 -0.21 6346
0.00 0.00 0.08 -4.69 7.61 -0.45 0.18 -0.23 6353
0.00 0.00 0.25 -3.06 8.70 -0.44 0.24 -0.25 6361
0.00 0.00 0.31 -2.91 7.32 -0.45 0.25 -0.26 6368
0.00 0.00 -0.07 -3.21 7.21 -0.51 0.25 -0.27 6375
0.00 0.00 0.23 -2.50 9.27 -0.51 0.27 -0.26 6382
0.00 0.00 0.64 -3.42 7.40 -0.47 0.22 -0.21 6389
0.00 0.00 -0.37 -3.68 9.55 -0.51 0.26 -0.18 6396
0.00 0.00 -0.74 -4.74 8.70 -0.55 0.26 -0.15 6404
0.00 0.00 -0.32 -4.31 8.05 -0.60 0.25 -0.10 6411
0.00 0.00 0.32 -1.49 9.62 -0.63 0.30 -0.07 6418
0.00 0.00 -0.23 -3.50 7.63 -0.64 0.25 -0.02 6425
-0.00 0.00 -0.73 -4.32 9.59 -0.62 0.27 0.03 6432
0.00 0.00 -0.38 -3.01 9.21 -0.64 0.29 0.04 6439
0.00 0.00 -0.46 -3.62 8.08 -0.61 0.25 0.04 6447
0.00 0.00 -0.57 -2.33 9.47 -0.66 0.28 0.04 6454
0.00 0.00 0.67 -1.69 8.14 -0.66 0.27 0.03 6461
0.00 0.00 -1.24 -2.99 9.17 -0.66 0.24 0.02 6468
0.00 0.00 -0.88 -4.91 8.90 -0.73 0.29 -0.01 6475
0.00 0.00 0.13 -1.36 11.12 -0.75 0.29 -0.02 6482
0.00 0.00 -0.14 -2.96 8.60 -0.83 0.27 -0.00 6490
0.00 0.00 1.14 -1.42 9.05 -0.84 0.24 -0.01 6497
0.00 0.00 -0.11 -3.27 8.85 -0.87 0.21 0.01 6504
0.00 0.00 -0.08 -2.19 10.18 -0.89 0.23 0.03 6511
0.00 0.00 1.40 0.06 8.98 -0.93 0.25 0.06 6518
0.00 0.00 0.80 -1.40 8.76 -0.91 0.27 0.08 6525
0.00 0.00 0.11 -1.80 9.72 -0.94 0.33 0.12 6533
0.00 0.00 0.10 -1.70 10.32 -0.93 0.38 0.15 6540
0.00 0.00 0.55 -0.99 11.02 -0.95 0.39 0.17 6547
0.00 0.00 -0.10 -1.49 10.58 -0.95 0.41 0.19 6554
0.00 0.00 0.39 -1.25 10.68 -1.00 0.42 0.20 6561
0.00 0.00 0.17 -0.30 10.26 -1.05 0.42 0.21 6568
0.00 0.00 0.18 -0.67 10.78 -1.11 0.42 0.21 6576
0.00 0.00 0.13 -0.83 10.23 -1.18 0.41 0.20 6583
0.00 0.00 -0.00 -1.38 10.30 -1.23 0.41 0.18 6590
0.00 0.00 0.01 -1.68 10.47 -1.26 0.40 0.16 6597
0.00 0.00 0.12 -1.60 10.40 -1.28 0.40 0.13 6604
0.00 0.00 0.15 -1.56 10.19 -1.27 0.40 0.09 6611
0.00 0.00 0.21 -1.49 10.12 -1.25 0.41 0.08 6619
0.00 0.00 0.11 -1.42 10.22 -1.24 0.44 0.07 6626
0.00 0.00 -0.00 -1.35 10.45 -1.24 0.45 0.08 6633
0.00 0.00 -0.19 -1.33 10.49 -1.24 0.45 0.09 6640
0.00 0.00 -0.32 -1.43 10.53 -1.26 0.42 0.11 6647
0.00 0.00 -0.39 -1.49 10.65 -1.28 0.37 0.12 6654
0.00 0.00 -0.36 -1.65 10.56 -1.30 0.29 0.14 6662
0.00 0.00 -0.25 -1.87 10.37 -1.31 0.22 0.16 6669
0.00 0.00 -0.16 -2.07 10.21 -1.29 0.14 0.17 6676
0.00 0.00 -0.01 -2.37 9.84 -1.24 0.06 0.19 6683
0.00 0.00 0.05 -2.69 9.66 -1.18 -0.01 0.21 6690
0.00 0.00 0.24 -2.85 9.64 -1.09 -0.07 0.24 6697
0.00 0.00 0.53 -3.08 9.71 -1.02 -0.09 0.27 6705
0.00 0.00 0.80 -3.11 10.14 -0.95 -0.06 0.30 6712
0.00 0.00 1.16 -3.16 10.61 -0.93 0.04 0.33 6719
0.00 -0.00 1.53 -3.06 10.90 -0.96 0.17 0.37 6726
0.00 -0.00 1.70 -3.08 10.96 -1.04 0.35 0.39 6733
0.00 0.00 1.57 -3.39 10.84 -1.12 0.54 0.43 6740
0.00 0.00 0.50 -17.45 20.29 -0.95 0.78 0.58 6748
0.00 0.00 2.45 -4.58 7.69 -0.18 1.13 0.82 6755
0.00 0.00 -1.67 -12.90 4.91 -0.31 0.41 0.73 6762
0.00 -0.00 -1.33 -15.00 5.67 0.00 0.08 0.70 6769
-0.00 0.01 -2.16 -16.41 4.72 0.29 -0.07 0.72 6776
-0.00 0.01 -0.81 -19.66 2.83 0.52 -0.14 0.66 6784
0.00 -0.00 -2.88 -20.13 6.34 1.02 -0.28 0.57 6791
0.00 0.00 -10.44 -26.72 19.73 1.05 -1.15 0.22 6799
-0.00 0.00 -0.17 -4.58 12.83 0.22 -0.58 -0.12 6805
-0.00 0.00 -0.31 -4.39 9.99 -0.10 0.09 -0.01 6812
0.03 0.02 0.23 -1.36 9.87 -0.16 0.09 -0.03 6819
0.02 0.04 0.44 -0.69 9.81 -0.18 0.07 -0.05 6827
0.02 0.01 0.75 -0.46 9.92 -0.13 0.02 -0.03 6834
0.01 0.09 0.65 -0.36 9.61 -0.13 -0.00 -0.04 6841
0.02 0.09 0.32 -0.55 9.77 -0.14 -0.01 -0.07 6848
0.03 0.11 0.43 -0.90 9.99 -0.12 -0.01 -0.08 6855
0.02 0.13 0.42 -1.02 10.02 -0.10 -0.02 -0.08 6862
-0.02 0.20 0.40 -1.03 9.78 -0.08 -0.01 -0.07 6870
-0.02 0.20 0.34 -0.85 9.71 -0.07 0.00 -0.07 6877
-0.00 0.17 0.28 -0.79 9.89 -0.05 0.00 -0.07 6884
0.00 0.19 0.33 -0.83 9.70 -0.04 0.01 -0.07 6891
0.04 0.17 0.27 -0.89 9.86 -0.04 0.01 -0.07 6898
0.02 0.18 0.36 -1.02 9.93 -0.04 0.02 -0.06 6905
0.01 0.20 0.28 -0.92 9.88 -0.04 0.03 -0.06 6913
-0.00 0.24 0.30 -0.93 9.83 -0.04 0.03 -0.06 6920
0.00 0.24 jþ0.87 9.83 -0.04 0.03 -0.06 6927
Á0 0.28 jþ0.89 9.84 -0.04 0.03 -0.06 6934
æ1 0.25 ƒ-0.91 9.92 -0.05 0.04 -0.06 6941
Á1 0.26  -0.90 9.82 -0.04 0.04 -0.06 6948
Ì0 0.22 -0.91 9.83 -0.04 0.04 -0.07 6956
î0 0.26 &jþ0.89 9.86 -0.04 0.04 -0.07 6963
Ì0 0.30 -0.88 9.80 -0.04 0.05 -0.07 6970
æ0 0.29 -0.86 9.81 -0.03 0.04 -0.06 6977
æ1 0.29 jþ0.86 9.83 -0.03 0.05 -0.07 6984
æ1 0.32 -0.88 9.20 -0.03 0.04 -0.07 6991
Ì0 0.32 Ë0.87 9.80 -0.03 0.04 -0.06 6999
Á1 0.31 -0.81 9.76 -0.03 0.04 -0.07 7006
Ì0 0.33 -0.87 9.82 -0.03 0.04 -0.07 7013
æ1 0.31 Ë0.85 9.81 -0.02 0.04 -0.07 7020
0.01 0.33 Í1 -0.85 9.84 -0.02 0.04 -0.07 7027
00 0.31 Ljþ0.83 9.82 -0.02 0.04 -0.07 7034
—~þ0.32 Ljþ0.84 9.82 -0.02 0.04 -0.07 7042
00 0.32 &jþ0.82 9.80 -0.02 0.05 -0.07 7049
˜1 0.32 šjþ0.81 9.81 -0.02 0.05 -0.07 7056
˜2 0.33 Mjþ0.81 9.79 -0.02 0.05 -0.07 7063
˜1 0.35 Mjþ0.84 9.79 -0.01 0.06 -0.06 7070
˜1 0.33 jþ0.83 9.77 -0.01 0.06 -0.07 7077
01 0.32 &jþ0.82 9.81 -0.01 0.06 -0.06 7085
01 0.36 jþ0.84 9.77 -0.02 0.06 -0.06 7092
01 0.38 jþ0.82 9.79 -0.02 0.07 -0.07 7099
˜2 0.37 jþ0.85 9.80 -0.01 0.07 -0.07 7106
˜2 0.37 Mjþ0.82 9.73 -0.02 0.06 -0.06 7113
˜1 0.39 -0.85 10.39 -0.02 0.06 -0.06 7120
.00 0.41 0.35 -0.80 9.80 -0.02 0.06 -0.07 7128
Ì1 0.41 Ë0.85 9.81 -0.01 0.06 -0.06 7135
Ì2 0.43 Ë0.80 9.84 -0.01 0.06 -0.06 7142
æ2 0.43  -0.86 9.81 -0.01 0.06 -0.06 7149
æ2 0.42  Ë0.79 9.83 -0.01 0.05 -0.06 7156
æ2 0.42  -0.80 9.78 -0.01 0.05 -0.06 7163
Ì1 0.42 jþ0.78 9.82 -0.01 0.05 -0.06 7171
Ì1 0.41 7jþ0.81 9.80 -0.01 0.05 -0.07 7178
æ2 0.41 -0.83 9.83 -0.01 0.05 -0.07 7185
æ3 0.40 ƒ-0.86 9.77 -0.01 0.06 -0.06 7192
æ2 0.41 -0.83 9.83 -0.01 0.05 -0.07 7199
Ì2 0.39  -0.82 9.81 -0.02 0.06 -0.07 7206
Ì1 0.41 jþ0.80 9.20 -0.01 0.06 -0.06 7214
Ì2 0.42 -0.79 9.80 -0.01 0.06 -0.07 7221
î3 0.42 0.34 -0.79 9.81 -0.01 0.06 -0.07 7228
0.02 0.40 ÿšjþ0.83 9.82 -0.01 0.07 -0.07 7235
0.02 0.40 0.33 -0.84 9.82 -0.01 0.07 -0.06 7242
0.02 0.39 0.37 -0.80 9.78 -0.01 0.08 -0.06 7249
0.01 0.40 0.41 -0.80 9.82 -0.01 0.08 -0.06 7257
0.02 0.39 0.39 -0.81 9.82 -0.01 0.07 -0.07 7264
0.03 0.39 0.39 -0.77 9.81 -0.00 0.07 -0.07 7271
0.02 0.38 0.43 -0.81 9.81 -0.00 0.07 -0.07 7278
0.02 0.38 0.40 -0.81 9.80 -0.00 0.07 -0.06 7285
0.01 0.38 0.35 -0.82 9.82 -0.00 0.07 -0.07 7292
0.01 0.38 0.36 -0.80 9.81 -0.00 0.03 -0.06 7300
0.01 0.39 0.39 -0.82 9.81 -0.00 0.07 -0.07 7307
0.03 0.37 0.38 -0.82 9.81 -0.01 0.06 -0.07 7314
0.02 0.38 0.40 -0.80 9.79 -0.00 0.06 -0.07 7321
0.01 0.37 0.41 -0.84 9.82 -0.00 0.06 -0.07 7328
0.00 0.37 0.44 -0.82 9.80 -0.00 0.06 -0.07 7335
0.02 0.37 0.42 -0.79 9.80 -0.01 0.06 -0.07 7343
0.03 0.37 0.41 -0.82 9.81 -0.01 0.05 -0.07 7350
0.04 0.37 0.40 -0.83 9.77 -0.01 0.05 -0.07 7357
0.03 0.37 0.41 -0.82 9.81 -0.00 0.05 -0.07 7364
0.03 0.36 0.38 -0.79 9.81 -0.00 0.04 -0.07 7371
0.01 0.36 0.39 -0.80 9.79 -0.01 0.04 -0.06 7378
0.03 0.37 0.39 -0.81 9.82 -0.00 0.04 -0.07 7386
0.04 0.37 0.39 -0.81 9.81 -0.00 0.03 -0.07 7393
0.04 0.35 0.44 -0.82 9.79 -0.00 0.03 -0.07 7400
0.03 0.35 0.45 -0.81 9.78 -0.00 0.02 -0.07 7407
0.03 0.34 0.41 -0.82 9.74 -0.00 0.02 -0.07 7414
0.02 0.34 0.37 -0.82 9.81 -0.00 0.01 -0.07 7421
0.03 0.34 0.42 -0.80 9.79 0.00 0.00 -0.07 7429
0.04 0.34 0.37 -0.80 9.79 0.00 0.00 -0.08 7436
0.04 0.33 0.36 -0.84 9.81 0.00 0.00 -0.07 7443
0.04 0.33 0.41 -0.85 9.80 -0.00 0.00 -0.07 7450
0.04 0.32 0.36 -0.83 9.82 -0.00 0.01 -0.07 7457
0.04 0.33 0.37 -0.87 9.81 0.00 0.01 -0.08 7464
0.04 0.32 0.35 -0.85 9.80 -0.00 0.01 -0.08 7472
0.06 0.33 0.34 -0.83 9.80 0.00 0.03 -0.07 7479
0.05 0.32 0.31 -0.86 9.75 -0.00 0.03 -0.07 7486
0.07 0.30 0.36 -0.80 9.81 0.00 0.03 -0.07 7493
0.06 0.31 0.37 -0.85 9.81 0.00 0.04 -0.07 7500
0.06 0.31 0.35 -0.82 9.21 0.01 0.04 -0.07 7507
0.07 0.34 0.37 -0.83 9.79 0.00 0.04 -0.07 7515
0.08 0.31 0.36 -0.83 9.82 0.01 0.05 -0.07 7522
0.08 0.31 0.39 -0.84 9.81 0.00 0.04 -0.07 7529
0.08 0.29 0.40 -0.83 9.81 0.01 0.05 -0.07 7536
0.07 0.29 0.35 -0.84 9.78 0.00 0.05 -0.07 7543
0.07 0.29 0.36 -0.83 9.81 0.00 0.05 -0.07 7550
0.09 0.28 0.38 -0.81 9.79 0.01 0.05 -0.08 7558
0.10 0.27 0.33 -0.84 9.82 0.01 0.04 -0.07 7565
0.10 0.27 0.33 -0.82 9.81 0.01 0.05 -0.08 7572
0.11 0.22 0.36 -0.85 9.81 0.01 0.05 -0.07 7579
0.10 0.23 0.36 -0.87 9.81 0.01 0.05 -0.07 7586
0.11 0.25 0.39 -0.82 9.75 0.01 0.05 -0.08 7593
0.13 0.25 0.39 -0.85 10.41 0.01 0.05 -0.07 7601
0.12 0.22 0.40 -0.84 9.83 0.01 0.05 -0.07 7608
0.12 0.23 0.38 -0.87 9.80 0.01 0.05 -0.08 7615
0.11 0.21 0.35 -0.86 9.80 0.01 0.05 -0.07 7622
0.11 0.22 0.42 -0.86 9.77 0.01 0.05 -0.07 7629
0.12 0.21 0.41 -0.89 9.81 0.00 0.05 -0.07 7636
0.13 0.19 0.40 -0.87 9.81 0.01 0.05 -0.07 7644
0.14 0.19 0.38 -0.90 9.78 0.00 0.05 -0.08 7651
0.13 0.20 0.37 -0.84 9.81 0.01 0.05 -0.08 7658
0.13 0.15 0.39 -0.85 9.80 0.01 0.05 -0.07 7665
0.13 0.16 0.37 -0.85 9.79 0.00 0.05 -0.07 7672
0.14 0.16 0.41 -0.86 9.81 0.01 0.05 -0.07 7680
0.17 0.14 0.40 -0.85 9.81 0.01 0.05 -0.08 7687
0.15 0.12 0.36 -0.88 9.81 0.01 0.04 -0.07 7694
0.16 0.09 0.35 -0.85 9.83 0.01 0.05 -0.08 7701
0.15 0.09 0.33 -0.86 9.78 0.01 0.05 -0.08 7708
0.17 0.06 0.39 -0.87 9.81 0.01 0.04 -0.08 7715
0.16 0.07 0.39 -0.87 9.82 0.01 0.05 -0.08 7723
0.17 0.06 0.37 -0.88 9.78 0.01 0.05 -0.07 7730
0.17 0.05 0.37 -0.89 9.79 0.01 0.05 -0.08 7737
0.17 0.03 0.40 -0.88 9.81 0.01 0.05 -0.08 7744
0.16 0.04 0.40 -0.88 9.80 0.01 0.04 -0.08 7751
0.17 0.03 0.43 -0.91 9.81 0.01 0.05 -0.08 7758
0.18 0.05 0.39 -0.88 9.80 0.01 0.04 -0.08 7766
0.20 0.02 0.40 -0.88 9.81 0.01 0.05 -0.08 7773
0.19 0.02 0.38 -0.88 9.82 0.01 0.05 -0.08 7780
0.18 0.01 0.41 -0.86 9.80 0.01 0.05 -0.08 7787
0.19 0.02 0.38 -0.88 9.79 0.01 0.05 -0.08 7794
0.21 0.02 0.40 -0.91 9.80 0.01 0.05 -0.08 7801
0.22 0.03 0.42 -0.88 9.82 0.01 0.05 -0.08 7809
0.22 0.02 0.37 -0.89 9.79 0.01 0.05 -0.08 7816
0.21 0.00 0.40 -0.88 9.79 0.01 0.05 -0.08 7823
0.21 -0.00 0.42 -0.88 9.81 0.00 0.05 -0.08 7830
0.22 0.00 0.39 -0.89 9.80 0.01 0.06 -0.08 7837
0.23 0.00 0.41 -0.91 9.81 0.01 0.05 -0.07 7844
0.23 0.01 0.43 -0.90 9.82 0.01 0.05 -0.08 7852
0.24 -0.00 0.42 -0.88 9.80 0.01 0.06 -0.08 7859
0.25 -0.01 0.40 -0.91 9.83 0.01 0.06 -0.07 7866
0.26 -0.02 0.43 -0.91 9.84 0.01 0.06 -0.08 7873
0.27 -0.01 0.42 -0.89 9.82 0.02 0.06 -0.08 7880
0.28 -0.00 0.39 -0.94 9.78 0.02 0.07 -0.08 7887
0.28 -0.00 0.44 -0.92 9.81 0.03 0.07 -0.08 7895
0.27 -0.01 0.39 -0.91 9.82 0.03 0.07 -0.08 7902
0.27 -0.02 0.44 -0.91 9.81 0.03 0.08 -0.08 7909
0.28 -0.01 0.43 -0.89 9.81 0.04 0.08 -0.08 7916
0.27 -0.02 0.41 -0.95 9.82 0.04 0.08 -0.08 7923
0.29 -0.01 0.44 -0.96 9.83 0.05 0.09 -0.08 7930
0.31 -0.02 0.45 -0.89 9.82 0.06 0.09 -0.09 7938
0.31 -0.01 0.42 -0.92 9.85 0.07 0.11 -0.08 7945
0.30 -0.02 0.47 -0.95 9.83 0.09 0.12 -0.08 7952
0.30 -0.02 0.48 -0.95 9.89 0.11 0.14 -0.08 7959
0.32 -0.02 0.48 -0.94 9.88 0.14 0.17 -0.08 7966
0.32 -0.02 0.47 -0.97 9.95 0.17 0.20 -0.09 7973
0.33 -0.01 0.45 -1.01 9.99 0.21 0.24 -0.09 7981
0.32 -0.01 0.58 -0.99 10.08 0.26 0.27 -0.09 7988
0.30 -0.01 0.64 -1.00 10.22 0.35 0.32 -0.10 7995
0.28 -0.02 0.56 -1.02 10.55 0.45 0.36 -0.10 8002
0.30 -0.02 0.65 -1.12 10.44 0.59 0.37 -0.10 8009
0.32 -0.02 0.79 -1.13 10.55 0.71 0.36 -0.11 8017
0.32 -0.02 0.68 -1.20 10.56 0.83 0.32 -0.13 8025
0.32 -0.02 0.69 -1.33 10.58 0.89 0.25 -0.14 8032
0.32 -0.02 0.59 -1.35 10.54 0.91 0.17 -0.13 8039
0.31 -0.02 0.60 -1.47 10.48 0.91 0.12 -0.13 8046
0.32 -0.02 0.54 -1.47 10.51 0.91 0.08 -0.12 8053
0.30 -0.02 0.64 -1.59 10.40 0.93 0.06 -0.12 8059
0.28 -0.02 0.61 -1.66 10.35 0.94 0.01 -0.11 8067
0.27 -0.02 1.21 -1.70 10.09 0.95 -0.02 -0.11 8075
0.22 -0.02 0.65 -1.80 10.10 0.95 -0.04 -0.11 8081
0.21 -0.01 0.81 -1.89 10.01 0.97 -0.06 -0.11 8089
0.19 -0.01 0.72 -1.96 9.91 0.98 -0.07 -0.12 8095
0.21 -0.02 0.63 -1.98 9.26 0.99 -0.08 -0.12 8102
0.20 -0.02 0.63 -2.12 9.95 1.00 -0.08 -0.12 8110
0.19 -0.02 0.73 -2.16 9.59 1.02 -0.10 -0.13 8117
0.17 -0.02 0.78 -2.26 9.36 1.01 -0.10 -0.15 8124
0.18 -0.01 0.69 -2.37 9.58 0.99 -0.12 -0.16 8131
0.17 -0.01 0.62 -2.45 9.75 0.98 -0.13 -0.15 8138
0.19 -0.02 0.53 -2.50 9.74 0.98 -0.14 -0.16 8145
0.16 -0.02 0.59 -2.59 9.64 0.98 -0.13 -0.16 8153
0.13 -0.01 0.54 -2.70 9.72 0.99 -0.14 -0.16 8160
0.12 -0.01 0.55 -2.80 9.35 0.99 -0.14 -0.16 8167
0.11 -0.01 0.47 -2.91 9.51 0.99 -0.12 -0.15 8174
0.11 -0.01 0.53 -3.04 9.70 0.97 -0.16 -0.14 8181
0.11 -0.01 0.53 -3.06 9.58 0.99 -0.10 -0.14 8188
0.10 -0.01 0.28 -3.07 9.72 1.01 -0.12 -0.13 8196
0.06 -0.01 0.39 -3.23 9.82 1.03 -0.12 -0.13 8203
0.06 -0.01 0.50 -3.37 9.79 1.05 -0.12 -0.13 8210
0.06 -0.01 0.43 -3.41 9.58 1.06 -0.13 -0.13 8217
0.05 -0.00 0.46 -3.51 9.65 1.08 -0.14 -0.13 8224
0.08 -0.01 0.41 -3.54 9.75 1.11 -0.14 -0.14 8231
0.09 -0.01 0.47 -3.65 9.64 1.13 -0.15 -0.14 8239
0.05 -0.00 0.39 -3.72 9.63 1.15 -0.16 -0.14 8246
0.06 -0.01 0.42 -3.82 9.74 1.17 -0.16 -0.14 8253
0.05 0.00 0.41 -3.97 9.76 1.20 -0.17 -0.15 8260
0.05 -0.00 0.45 -4.05 9.75 1.22 -0.17 -0.15 8267
0.04 -0.00 0.35 -4.21 9.84 1.24 -0.16 -0.16 8274
0.03 -0.00 0.40 -4.30 9.83 1.26 -0.16 -0.16 8282
0.03 -0.00 0.40 -4.36 9.83 1.28 -0.14 -0.16 8289
0.02 -0.00 0.50 -4.52 10.09 1.30 -0.12 -0.17 8296
0.02 -0.00 0.63 -4.85 10.54 1.30 -0.09 -0.17 8303
0.03 -0.00 0.73 -4.89 10.57 1.31 -0.02 -0.18 8310
0.04 -0.00 0.85 -4.92 10.14 1.32 0.04 -0.20 8317
0.03 -0.00 0.91 -5.02 10.02 1.30 0.09 -0.22 8325
0.02 -0.00 0.91 -4.98 10.03 1.27 0.13 -0.24 8332
0.03 -0.00 0.80 -5.20 10.19 1.24 0.14 -0.26 8339
0.04 -0.00 0.64 -5.24 10.69 1.21 0.16 -0.28 8346
0.03 -0.00 0.57 -5.30 10.95 1.19 0.15 -0.29 8353
0.02 -0.00 0.37 -5.45 10.89 1.15 0.07 -0.31 8360
0.00 -0.00 0.18 -5.51 10.51 1.10 -0.06 -0.34 8368
0.00 0.00 0.18 -5.57 10.27 1.04 -0.16 -0.36 8375
0.01 -0.00 0.34 -5.64 9.74 1.00 -0.27 -0.37 8382
0.01 0.00 0.43 -5.27 9.24 0.97 -0.35 -0.39 8389
0.01 -0.00 0.79 -4.83 8.60 0.93 -0.39 -0.40 8396
0.00 -0.00 1.04 -4.36 7.70 0.87 -0.38 -0.42 8403
0.00 -0.00 1.16 -4.00 7.15 0.79 -0.33 -0.44 8411
0.00 0.00 1.07 -3.82 7.02 0.73 -0.28 -0.47 8418
0.00 0.00 1.13 -3.20 7.01 0.70 -0.24 -0.49 8425
0.00 0.00 0.87 -3.35 7.04 0.67 -0.18 -0.52 8432
0.00 0.00 0.51 -3.62 6.94 0.66 -0.12 -0.53 8439
0.00 0.00 0.18 -2.99 6.31 0.63 -0.08 -0.54 8446
0.00 0.00 -0.03 -3.78 6.59 0.62 -0.06 -0.54 8454
0.00 0.00 -0.49 -3.34 6.96 0.61 -0.10 -0.54 8461
0.00 0.00 -0.42 -2.86 6.77 0.61 -0.14 -0.54 8468
0.00 0.00 -0.36 -2.12 7.21 0.58 -0.19 -0.53 8475
0.00 0.00 -0.41 -2.28 7.02 0.49 -0.25 -0.51 8482
0.00 0.00 0.25 0.01 7.50 0.36 -0.28 -0.46 8489
0.00 0.00 -0.02 -0.35 7.90 0.22 -0.28 -0.41 8497
0.00 0.00 -0.17 -3.02 7.75 0.08 -0.27 -0.37 8504
0.00 0.00 0.01 -2.18 8.32 0.02 -0.21 -0.33 8511
0.00 -0.00 0.29 -0.04 7.44 -0.05 -0.14 -0.29 8518
0.00 0.00 0.92 1.72 8.42 -0.21 -0.02 -0.24 8525
0.00 0.00 0.34 -2.24 6.59 -0.41 0.01 -0.18 8532
0.00 0.00 1.15 1.70 9.39 -0.54 0.07 -0.14 8540
0.00 0.00 -0.32 -4.40 6.32 -0.62 0.04 -0.12 8547
0.00 0.00 -0.20 -2.15 8.89 -0.67 0.05 -0.05 8554
0.00 -0.00 -0.18 -3.67 8.02 -0.64 0.05 -0.04 8561
0.00 0.00 -1.22 -3.39 8.09 -0.62 0.02 -0.05 8568
0.00 0.00 -0.89 -5.03 6.99 -0.63 -0.01 -0.07 8576
0.00 0.00 -1.02 -7.72 8.12 -0.65 0.04 -0.09 8583
0.00 0.00 -2.05 -6.03 8.75 -0.52 0.00 -0.13 8590
0.00 0.00 -0.93 -9.47 7.04 -0.46 0.05 -0.18 8597
0.00 0.00 -2.37 -11.58 7.87 -0.37 0.03 -0.23 8604
0.00 0.00 -1.72 -7.11 8.30 -0.37 0.07 -0.28 8611
0.00 0.00 -1.76 -9.15 7.59 -0.36 0.04 -0.31 8619
0.00 0.00 -0.88 -7.41 8.16 -0.40 0.08 -0.32 8626
0.00 0.00 -0.76 -7.13 8.91 -0.46 0.10 -0.29 8633
0.00 0.00 -0.43 -4.81 8.80 -0.48 0.12 -0.26 8640
0.00 0.00 -0.25 -5.02 6.73 -0.55 0.13 -0.29 8647
0.00 0.00 0.86 -3.17 8.11 -0.58 0.15 -0.25 8654
0.00 0.00 -0.39 -5.02 6.67 -0.62 0.19 -0.18 8662
0.00 0.00 0.17 -2.61 8.82 -0.57 0.22 -0.16 8669
0.00 0.00 0.27 -2.34 7.47 -0.59 0.21 -0.11 8676
0.00 0.00 -0.10 -2.96 7.44 -0.56 0.21 -0.08 8683
0.00 0.00 -0.39 -2.93 8.24 -0.58 0.22 -0.04 8690
0.00 0.00 -0.65 -4.59 8.35 -0.59 0.22 -0.01 8697
0.00 0.00 -0.88 -3.10 9.74 -0.57 0.21 -0.03 8705
0.00 0.00 -1.42 -4.36 7.03 -0.58 0.14 -0.05 8712
0.00 0.00 -0.92 -2.96 9.30 -0.67 0.18 -0.05 8719
0.00 0.00 -1.21 -4.93 9.06 -0.70 0.16 -0.05 8726
0.00 0.00 -0.55 -3.81 9.69 -0.77 0.14 -0.06 8733
0.00 0.00 -0.50 -2.40 10.18 -0.76 0.12 -0.02 8740
0.00 0.00 -0.57 -2.88 9.23 -0.79 0.13 -0.03 8748
0.00 0.00 -0.44 -3.83 8.42 -0.83 0.08 -0.02 8755
0.00 0.00 0.44 -1.83 8.11 -0.81 0.10 -0.02 8762
0.00 -0.00 -0.62 -6.49 7.54 -0.83 0.15 -0.03 8769
0.00 0.00 1.42 -3.79 9.57 -0.85 0.21 -0.05 8776
0.00 0.00 -0.70 -4.59 10.13 -0.84 0.25 -0.08 8783
0.00 0.00 -0.74 -3.83 10.07 -0.88 0.33 -0.10 8791
0.00 0.00 0.40 -2.22 9.69 -0.95 0.31 -0.11 8798
0.00 0.00 -0.39 -3.94 9.42 -0.94 0.28 -0.10 8805
0.00 0.00 0.90 -0.89 10.27 -0.99 0.30 -0.08 8812
0.00 0.00 0.21 -1.99 7.42 -0.98 0.26 -0.06 8819
0.00 0.00 0.25 -2.82 8.57 -1.00 0.25 0.00 8826
0.00 0.00 0.46 -2.16 9.97 -1.00 0.27 0.05 8834
0.00 0.00 0.03 -2.49 9.81 -0.98 0.29 0.12 8841
0.00 0.00 0.28 -2.77 9.62 -0.95 0.32 0.18 8848
0.00 0.00 0.37 -2.07 10.20 -0.95 0.36 0.23 8855
0.00 0.00 0.62 -1.58 10.08 -0.97 0.39 0.32 8862
0.00 0.00 0.38 -1.67 10.51 -0.98 0.38 0.36 8869
0.00 0.00 0.09 -1.38 10.02 -1.05 0.34 0.44 8877
0.00 0.00 0.28 -1.99 10.36 -1.07 0.32 0.49 8884
0.00 0.00 0.66 -0.78 10.74 -1.13 0.32 0.53 8891
0.00 0.00 0.69 -1.21 9.85 -1.16 0.30 0.56 8898
0.00 0.00 0.74 -1.03 10.27 -1.17 0.30 0.58 8905
0.00 0.00 0.66 -1.29 10.11 -1.19 0.33 0.59 8912
0.00 0.00 0.69 -1.19 10.22 -1.21 0.40 0.57 8920
0.00 0.00 0.65 -1.04 10.33 -1.23 0.40 0.55 8927
0.00 0.00 0.52 -0.93 10.33 -1.25 0.41 0.50 8934
0.00 0.00 0.48 -0.87 10.34 -1.28 0.41 0.45 8941
0.00 0.00 0.39 -0.81 10.39 -1.31 0.41 0.40 8948
0.00 0.00 0.45 -0.82 10.45 -1.34 0.40 0.34 8955
0.00 0.00 0.46 -0.86 10.45 -1.37 0.39 0.29 8963
0.00 0.00 0.46 -0.85 10.50 -1.39 0.40 0.23 8970
0.00 0.00 0.50 -0.85 10.49 -1.41 0.40 0.18 8977
0.00 0.00 0.56 -0.89 10.44 -1.43 0.39 0.14 8984
0.00 0.00 0.70 -0.97 10.34 -1.43 0.40 0.09 8991
0.00 0.00 0.79 -1.04 10.55 -1.44 0.40 0.05 8998
0.00 0.00 0.92 -1.15 10.69 -1.45 0.43 0.02 9006
0.00 0.00 1.06 -1.23 10.89 -1.47 0.50 -0.02 9013
0.00 0.00 1.19 -1.26 10.99 -1.50 0.50 -0.04 9020
0.00 0.00 1.16 -1.43 11.09 -1.54 0.53 -0.06 9027
0.00 0.00 1.07 -1.57 11.02 -1.58 0.53 -0.06 9034
0.00 0.00 1.03 -1.81 11.02 -1.62 0.49 -0.05 9041
0.00 0.00 1.14 -2.24 10.83 -1.63 0.46 -0.03 9049
0.00 0.00 1.35 -2.61 10.68 -1.61 0.41 -0.00 9056
0.00 0.00 1.57 -3.03 10.44 -1.59 0.38 0.03 9063
0.00 0.00 1.69 -3.40 10.23 -1.53 0.37 0.06 9070
0.00 0.00 1.80 -3.77 10.08 -1.44 0.41 0.08 9077
0.00 0.00 1.23 -5.59 9.63 -1.34 0.44 0.11 9084
0.00 0.00 -5.75 -17.51 24.58 -0.32 -0.31 0.14 9092
0.00 0.00 -0.23 -4.64 -2.40 -0.25 -0.02 0.17 9099
0.00 0.00 -1.32 -11.07 6.26 0.04 -0.22 0.25 9106
0.00 0.00 -1.69 -15.87 7.47 0.35 -0.23 0.32 9113
-0.00 0.01 -1.93 -12.60 4.12 0.72 -0.07 0.37 9120
-0.00 0.00 -4.44 -14.86 6.13 1.02 -0.34 0.35 9127
-0.00 0.01 -5.55 -20.38 5.25 1.33 -0.69 0.31 9135
0.00 0.00 -6.54 -20.89 5.80 1.75 -1.01 0.29 9142
0.00 0.00 -13.95 -31.50 30.33 1.07 -2.18 0.06 9149
0.00 0.00 -2.33 -2.56 6.78 -0.15 0.07 0.05 9156
-0.00 0.02 1.26 -3.24 10.24 -0.15 0.05 -0.05 9163
0.02 0.02 -0.26 -1.50 9.85 -0.27 0.02 -0.08 9170
0.02 0.05 0.87 0.04 9.60 -0.22 0.03 -0.03 9178
0.03 0.12 0.77 -0.38 9.70 -0.17 0.02 -0.01 9185
0.02 0.15 0.45 -0.38 9.91 -0.16 0.03 -0.05 9192
0.01 0.16 0.18 -0.63 10.01 -0.12 0.03 -0.06 9199
0.01 0.19 0.24 -0.92 10.01 -0.07 0.05 -0.06 9206
0.01 0.25 0.08 -0.90 9.93 -0.05 0.08 -0.04 9213
-0.02 0.25 0.23 -0.88 9.89 -0.04 0.10 -0.04 9221
-0.01 0.26 0.29 -0.82 9.86 -0.03 0.11 -0.04 9228
-0.02 0.29 0.36 -0.82 9.72 -0.03 0.11 -0.04 9235
-0.02 0.26 0.38 -0.83 9.27 -0.03 0.10 -0.04 9242
-0.03 0.27 0.41 -0.85 9.81 -0.03 0.10 -0.04 9249
-0.02 0.26 0.39 -0.78 9.82 -0.03 0.08 -0.04 9256
-0.01 0.29 0.38 -0.80 9.78 -0.03 0.07 -0.04 9264
-0.02 0.28 0.40 -0.81 9.80 -0.03 0.06 -0.05 9271
-0.02 0.30 0.40 -0.79 9.79 -0.04 0.05 -0.05 9278
-0.01 0.28 0.39 -0.82 9.82 -0.04 0.05 -0.05 9285
-0.02 0.34 0.34 -0.79 9.81 -0.04 0.05 -0.05 9292
-0.01 0.36 0.38 -0.82 9.82 -0.04 0.05 -0.06 9299
-0.00 0.36 0.40 -0.76 9.82 -0.04 0.04 -0.06 9307
-0.01 0.36 0.68 -0.86 9.76 -0.03 0.04 -0.06 9314
-0.02 0.37 0.34 -0.77 9.79 -0.03 0.04 -0.06 9321
-0.02 0.35 0.38 -0.75 9.80 -0.03 0.04 -0.06 9328
-0.02 0.39 0.35 -0.78 9.81 -0.03 0.04 -0.06 9335
-0.01 0.42 0.35 -0.78 9.79 -0.03 0.04 -0.06 9342
-0.01 0.40 0.33 -0.78 9.79 -0.03 0.04 -0.05 9350
-0.01 0.44 0.33 -0.76 9.83 -0.03 0.05 -0.06 9357
-0.02 0.43 0.35 -0.75 9.81 -0.03 0.05 -0.06 9364
-0.03 0.49 0.29 -0.74 10.34 -0.03 0.05 -0.05 9371
-0.03 0.50 0.32 -0.75 9.81 -0.03 0.06 -0.05 9378
-0.02 0.55 0.33 -0.71 9.86 -0.03 0.06 -0.05 9385
-0.01 0.52 0.38 -0.75 9.82 -0.03 0.06 -0.05 9393
-0.02 0.50 0.41 -0.75 9.79 -0.03 0.06 -0.05 9400
-0.02 0.50 0.37 -0.76 9.84 -0.03 0.06 -0.05 9407
-0.03 0.53 0.34 -0.72 9.81 -0.03 0.06 -0.05 9414
-0.03 0.54 0.42 -0.74 9.81 -0.03 0.06 -0.05 9421
-0.03 0.58 0.44 -0.72 9.82 -0.02 0.05 -0.05 9428
-0.02 0.60 0.38 -0.71 9.80 -0.02 0.05 -0.05 9436
-0.02 0.61 0.38 -0.72 9.76 -0.02 0.05 -0.05 9443
-0.03 0.69 0.36 -0.72 9.84 -0.02 0.05 -0.05 9450
-0.04 0.69 0.33 -0.72 9.83 -0.02 0.04 -0.05 9457
-0.03 0.73 0.40 -0.73 9.79 -0.02 0.04 -0.05 9464
-0.03 0.71 0.36 -0.73 9.81 -0.02 0.04 -0.05 9472
-0.02 0.70 0.36 -0.74 9.74 -0.01 0.04 -0.05 9479
-0.03 0.73 0.37 -0.70 9.73 -0.01 0.04 -0.05 9486
-0.03 0.73 0.44 -0.80 9.80 -0.01 0.05 -0.05 9493
-0.05 0.76 0.37 -0.74 9.20 -0.01 0.05 -0.05 9500
-0.03 0.75 0.37 -0.74 9.81 -0.01 0.06 -0.05 9507
-0.02 0.77 0.38 -0.75 9.83 -0.01 0.06 -0.05 9515
-0.03 0.77 0.37 -0.73 9.81 -0.01 0.06 -0.06 9522
-0.03 0.76 0.40 -0.72 9.79 -0.01 0.06 -0.05 9529
-0.03 0.74 0.38 -0.71 9.81 -0.01 0.06 -0.05 9536
-0.04 0.76 0.37 -0.74 9.81 -0.01 0.06 -0.05 9543
-0.03 0.74 0.39 -0.73 9.78 -0.00 0.06 -0.05 9550
-0.02 0.73 0.35 -0.70 9.80 -0.00 0.06 -0.05 9558
-0.03 0.71 0.35 -0.74 9.80 -0.01 0.06 -0.06 9565
-0.03 0.72 0.30 -0.69 9.74 -0.00 0.06 -0.06 9572
-0.03 0.70 0.40 -0.72 9.81 -0.00 0.06 -0.06 9579
-0.03 0.68 0.38 -0.74 9.82 0.00 0.06 -0.05 9586
-0.02 0.67 0.40 -0.71 10.42 -0.00 0.06 -0.05 9593
-0.01 0.67 0.41 -0.68 9.78 0.03 0.06 -0.05 9601
-0.00 0.66 0.40 -0.71 9.82 0.00 0.05 -0.05 9608
-0.01 0.64 0.43 -0.73 9.78 0.00 0.05 -0.06 9615
-0.02 0.64 0.37 -0.72 9.80 -0.00 0.05 -0.05 9622
-0.01 0.62 0.40 -0.73 10.42 0.00 0.05 -0.06 9629
-0.00 0.61 0.38 -0.74 9.79 0.00 0.05 -0.05 9636
0.01 0.58 0.40 -0.74 9.77 0.00 0.05 -0.06 9644
-0.00 0.59 0.39 -0.73 9.82 0.00 0.05 -0.06 9651
-0.00 0.57 0.40 -0.75 9.80 0.00 0.06 -0.06 9658
-0.01 0.56 0.40 -0.73 9.80 -0.00 0.06 -0.06 9665
-0.01 0.56 0.42 -0.71 9.81 -0.00 0.05 -0.06 9672
0.00 0.57 0.37 -0.69 9.78 -0.00 0.06 -0.06 9679
0.01 0.56 0.42 -0.75 9.81 0.00 0.05 -0.06 9687
0.00 0.55 0.38 -0.75 9.82 0.00 0.04 -0.06 9694
0.00 0.53 0.37 -0.72 9.84 0.00 0.04 -0.06 9701
-0.01 0.54 0.36 -0.74 9.82 -0.00 0.04 -0.06 9708
0.00 0.54 0.40 -0.76 9.77 0.00 0.04 -0.06 9715
0.01 0.54 0.42 -0.76 9.82 -0.00 0.04 -0.06 9722
0.01 0.53 0.43 -0.74 9.77 0.00 0.04 -0.06 9730
0.00 0.51 0.38 -0.73 9.81 -0.00 0.04 -0.06 9737
0.01 0.51 0.38 -0.74 9.81 -0.00 0.04 -0.06 9744
0.01 0.52 0.36 -0.74 9.80 -0.00 0.04 -0.06 9751
0.02 0.52 0.40 -0.77 9.83 -0.00 0.04 -0.06 9758
0.03 0.50 0.41 -0.73 9.81 -0.00 0.04 -0.05 9765
0.02 0.49 0.43 -0.75 9.80 -0.00 0.04 -0.06 9773
0.02 0.48 0.40 -0.73 9.80 -0.00 0.04 -0.06 9780
0.01 0.46 0.40 -0.76 9.80 -0.00 0.04 -0.06 9787
0.02 0.45 0.44 -0.80 9.81 -0.00 0.04 -0.06 9794
0.02 0.45 0.42 -0.75 9.82 -0.01 0.04 -0.06 9801
0.04 0.46 0.42 -0.75 9.79 -0.00 0.04 -0.06 9808
0.02 0.45 0.41 -0.74 9.80 -0.00 0.03 -0.06 9816
0.02 0.44 0.40 -0.75 9.81 -0.01 0.03 -0.06 9823
0.01 0.44 0.42 -0.72 9.83 -0.01 0.03 -0.06 9830
0.02 0.44 0.38 -0.76 9.82 -0.00 0.03 -0.06 9837
0.03 0.45 0.42 -0.76 9.79 -0.01 0.03 -0.06 9844
0.04 0.44 0.43 -0.72 10.41 -0.01 0.03 -0.06 9851
0.02 0.43 0.38 -0.71 9.78 -0.01 0.03 -0.06 9859
0.02 0.42 0.38 -0.76 9.78 -0.00 0.03 -0.06 9866
0.01 0.43 0.39 -0.72 9.76 -0.00 0.03 -0.06 9873
0.01 0.44 0.39 -0.74 9.76 -0.00 0.03 -0.06 9880
0.02 0.44 0.41 -0.77 9.80 -0.00 0.02 -0.06 9887
0.03 0.44 0.40 -0.71 9.80 0.00 0.03 -0.06 9894
0.02 0.42 0.40 -0.77 9.82 0.00 0.03 -0.07 9902
0.03 0.42 0.41 -0.77 9.79 0.00 0.03 -0.06 9909
0.01 0.41 0.39 -0.75 9.80 0.00 0.03 -0.06 9916
0.02 0.39 0.36 -0.74 9.80 -0.00 0.03 -0.07 9923
0.04 0.39 0.38 -0.75 9.78 0.00 0.03 -0.06 9930
0.03 0.38 0.40 -0.75 9.79 0.00 0.03 -0.06 9937
0.03 0.38 0.39 -0.77 9.79 -0.00 0.03 -0.06 9945
0.03 0.38 0.40 -0.75 9.81 0.00 0.03 -0.06 9952
0.03 0.36 0.41 -0.78 9.82 0.00 0.03 -0.06 9959
0.04 0.37 0.35 -0.77 9.79 0.00 0.03 -0.07 9966
0.06 0.38 0.41 -0.75 9.81 0.00 0.03 -0.07 9973
0.07 0.34 0.39 -0.78 9.20 0.00 0.03 -0.06 9980
0.07 0.35 0.38 -0.72 9.81 0.03 0.03 -0.06 9988
0.06 0.33 0.34 -0.74 9.83 0.00 0.03 -0.07 9995
0.06 0.34 0.41 -0.77 9.80 -0.00 0.04 -0.07 10002
0.08 0.36 0.39 -0.77 9.80 0.00 0.04 -0.07 10009
0.09 0.34 0.40 -0.76 9.20 0.00 0.03 -0.07 10016
0.09 0.30 0.35 -0.76 9.80 0.00 0.04 -0.06 10023
0.09 0.26 0.36 -0.77 9.81 0.01 0.04 -0.07 10031
0.08 0.30 0.35 -0.79 9.81 0.00 0.04 -0.07 10038
0.08 0.29 0.37 -0.77 9.81 0.00 0.04 -0.07 10045
0.09 0.29 0.37 -0.79 9.82 0.00 0.04 -0.06 10052
0.10 0.24 0.37 -0.79 9.82 0.00 0.05 -0.07 10059
0.10 0.24 0.37 -0.80 9.81 0.00 0.05 -0.07 10066
0.10 0.19 0.39 -0.79 9.79 0.00 0.05 -0.06 10074
0.09 0.20 0.38 -0.75 9.79 0.00 0.05 -0.07 10081
0.10 0.20 0.39 -0.80 9.80 0.00 0.05 -0.04 10088
0.10 0.21 0.39 -0.74 9.79 0.00 0.05 -0.07 10095
0.11 0.19 0.37 -0.76 9.83 0.00 0.05 -0.07 10102
0.10 0.21 0.39 -0.78 9.20 0.01 0.05 -0.07 10109
0.10 0.19 0.39 -0.78 9.82 0.01 0.05 -0.07 10117
0.09 0.17 0.39 -0.83 9.77 0.00 0.05 -0.07 10124
0.09 0.19 0.39 -0.79 9.82 0.01 0.05 -0.07 10131
0.11 0.15 0.39 -0.79 9.83 0.01 0.05 -0.07 10138
0.12 0.16 0.37 -0.77 9.21 0.01 0.05 -0.07 10145
0.11 0.12 0.41 -0.82 9.81 0.01 0.05 -0.07 10152
0.11 0.13 0.43 -0.77 9.81 0.01 0.05 -0.07 10160
0.11 0.12 0.39 -0.79 9.81 0.01 0.05 -0.07 10167
0.12 0.13 0.40 -0.77 9.81 0.01 0.05 -0.07 10174
0.15 0.11 0.40 -0.81 9.79 0.01 0.05 -0.07 10181
0.16 0.11 0.40 -0.82 9.80 0.01 0.05 -0.07 10188
0.15 0.06 0.41 -0.79 9.81 0.01 0.05 -0.07 10195
0.16 0.06 0.38 -0.78 9.84 0.01 0.05 -0.07 10203
0.15 0.06 0.41 -0.81 9.81 0.01 0.05 -0.07 10210
0.15 0.08 0.41 -0.80 9.83 0.01 0.05 -0.07 10217
0.17 0.06 0.42 -0.82 9.81 0.01 0.05 -0.07 10224
0.17 0.03 0.40 -0.83 9.79 0.01 0.06 -0.07 10231
0.17 0.03 0.40 -0.78 10.42 0.01 0.05 -0.07 10238
0.15 0.05 0.41 -0.80 9.81 0.01 0.05 -0.07 10246
0.15 0.05 0.45 -0.82 9.80 0.02 0.05 -0.07 10253
0.17 0.04 0.41 -0.84 9.80 0.01 0.06 -0.07 10260
0.17 0.02 0.41 -0.81 9.81 0.01 0.06 -0.07 10267
0.17 0.00 0.40 -0.84 10.41 0.01 0.06 -0.07 10274
0.16 -0.02 0.42 -0.83 9.80 0.02 0.06 -0.07 10281
0.15 -0.00 0.40 -0.84 9.82 0.02 0.07 -0.07 10289
0.14 -0.01 0.42 -0.84 9.81 0.02 0.07 -0.07 10296
0.17 0.00 0.43 -0.84 9.82 0.02 0.07 -0.07 10303
0.16 -0.00 0.43 -0.83 9.80 0.03 0.08 -0.07 10310
0.15 -0.01 0.45 -0.85 9.81 0.03 0.08 -0.08 10317
0.14 -0.00 0.42 -0.84 9.87 0.04 0.08 -0.08 10324
0.13 -0.01 0.46 -0.84 9.82 0.04 0.09 -0.08 10332
0.14 -0.01 0.41 -0.86 9.85 0.05 0.10 -0.07 10339
0.15 -0.02 0.40 -0.84 9.89 0.07 0.12 -0.08 10346
0.17 -0.01 0.47 -0.87 9.92 0.09 0.14 -0.08 10353
0.15 -0.01 0.51 -0.91 9.93 0.12 0.20 -0.08 10360
0.17 -0.02 0.55 -0.83 9.98 0.16 0.20 -0.08 10368
0.16 -0.02 0.57 -0.78 10.01 0.20 0.26 -0.08 10375
0.15 0.01 0.59 -0.87 10.13 0.27 0.31 -0.09 10382
0.17 0.01 0.73 -0.90 10.32 0.36 0.37 -0.09 10389
0.16 -0.00 0.61 -0.97 10.37 0.48 0.39 -0.10 10396
0.17 -0.01 0.55 -1.03 10.45 0.62 0.39 -0.10 10404
0.16 -0.01 0.66 -1.07 10.48 0.74 0.34 -0.10 10412
0.14 -0.01 0.59 -1.14 10.56 0.81 0.29 -0.10 10418
0.13 0.00 0.70 -1.23 10.74 0.86 0.24 -0.10 10425
0.14 -0.01 0.69 -1.32 10.61 0.89 0.18 -0.11 10432
0.13 -0.01 0.64 -1.33 10.62 0.91 0.13 -0.11 10439
0.12 -0.01 0.66 -1.40 10.39 0.92 0.08 -0.12 10446
0.11 -0.01 0.68 -1.49 10.21 0.94 0.05 -0.12 10454
0.14 -0.01 0.68 -1.58 10.24 0.95 0.02 -0.12 10461
0.14 -0.01 0.71 -1.63 10.20 0.96 -0.01 -0.13 10468
0.15 -0.01 0.77 -1.70 10.21 0.97 -0.03 -0.13 10475
0.13 -0.01 0.80 -1.79 10.09 0.99 -0.05 -0.14 10482
0.09 -0.01 0.73 -1.90 10.02 1.00 -0.10 -0.15 10489
0.08 -0.01 0.74 -1.95 10.00 1.01 -0.08 -0.15 10497
0.07 -0.01 0.78 -2.10 10.03 1.02 -0.10 -0.15 10504
0.06 -0.01 0.82 -2.17 9.98 1.03 -0.12 -0.16 10511
0.06 -0.01 1.00 -2.37 10.01 1.04 -0.13 -0.17 10518
0.05 -0.00 0.73 -2.37 10.27 1.04 -0.15 -0.18 10525
0.06 -0.01 0.83 -2.46 10.09 1.06 -0.16 -0.19 10532
0.02 -0.00 0.68 -2.51 10.07 1.08 -0.19 -0.20 10540
0.03 -0.00 0.82 -2.62 10.18 1.10 -0.20 -0.20 10547
0.06 -0.01 0.78 -2.69 10.12 1.13 -0.20 -0.21 10554
0.05 -0.01 0.78 -2.76 10.19 1.16 -0.21 -0.22 10561
0.05 -0.00 0.73 -2.89 10.19 1.18 -0.20 -0.23 10568
0.03 -0.00 0.81 -3.04 10.31 1.22 -0.19 -0.24 10575
0.01 -0.00 0.84 -3.19 10.27 1.25 -0.18 -0.26 10583
0.04 -0.00 0.84 -3.26 10.39 1.28 -0.17 -0.27 10590
0.06 -0.01 1.00 -3.44 10.61 1.31 -0.13 -0.29 10597
0.05 -0.00 1.10 -3.48 10.72 1.34 -0.09 -0.31 10604
0.04 -0.00 0.96 -3.56 10.75 1.37 -0.03 -0.33 10611
0.03 -0.00 1.00 -3.58 10.54 1.38 0.03 -0.35 10618
0.02 -0.00 0.75 -3.79 10.40 1.37 0.05 -0.36 10626
0.02 -0.00 0.51 -3.93 10.28 1.36 0.05 -0.38 10633
0.01 -0.00 0.66 -3.95 10.17 1.36 0.03 -0.38 10640
0.01 -0.00 0.57 -3.98 10.28 1.35 0.01 -0.39 10647
0.00 -0.00 0.56 -4.05 10.36 1.34 -0.01 -0.40 10654
0.00 0.00 0.52 -4.06 10.44 1.32 -0.03 -0.41 10661
0.01 -0.00 0.53 -4.24 10.18 1.31 -0.07 -0.42 10669
0.01 -0.00 0.58 -4.31 9.84 1.30 -0.10 -0.43 10676
0.01 -0.00 0.36 -4.29 9.61 1.27 -0.14 -0.44 10683
0.00 0.00 0.45 -4.46 9.48 1.24 -0.16 -0.45 10690
0.00 0.00 0.45 -4.58 9.40 1.20 -0.18 -0.46 10697
0.00 0.00 0.49 -4.58 9.13 1.15 -0.16 -0.46 10704
0.00 0.00 0.52 -4.37 8.77 1.11 -0.13 -0.47 10712
0.00 0.00 0.51 -4.39 8.48 1.06 -0.11 -0.47 10719
0.00 0.00 0.30 -4.02 8.17 1.04 -0.09 -0.47 10726
0.00 -0.00 0.28 -3.93 8.00 1.01 -0.09 -0.47 10733
0.00 0.00 -0.08 -3.95 7.94 0.96 -0.11 -0.46 10740
0.00 0.00 -0.30 -3.68 8.07 0.92 -0.13 -0.45 10747
0.00 0.00 -0.30 -3.72 8.26 0.88 -0.17 -0.44 10755
0.00 0.00 -0.32 -3.58 8.46 0.85 -0.21 -0.43 10762
0.00 0.00 -0.09 -3.23 8.16 0.82 -0.26 -0.42 10769
0.00 0.00 0.01 -2.87 8.20 0.75 -0.26 -0.40 10776
0.00 0.00 -0.55 -1.90 8.11 0.67 -0.25 -0.38 10783
0.00 0.00 0.34 -2.10 7.69 0.53 -0.24 -0.36 10790
0.00 0.00 0.38 -0.81 7.32 0.41 -0.23 -0.33 10798
0.00 -0.00 0.54 0.74 7.78 0.31 -0.19 -0.27 10805
0.00 0.00 0.51 0.13 7.21 0.15 -0.14 -0.22 10812
0.00 0.00 0.61 0.47 7.67 0.04 -0.12 -0.14 10819
0.00 0.00 0.49 0.11 7.60 -0.06 -0.09 -0.08 10826
0.00 0.00 0.40 -0.08 7.88 -0.12 -0.07 -0.01 10833
0.00 0.00 0.45 -0.12 7.89 -0.18 -0.06 0.04 10841
0.00 0.00 0.46 0.14 7.89 -0.25 -0.05 0.08 10848
0.00 0.00 0.49 -0.02 7.65 -0.31 -0.05 0.09 10855
0.00 0.00 0.51 -0.02 7.88 -0.39 -0.05 0.11 10862
0.00 0.00 0.46 -1.00 7.75 -0.47 -0.02 0.12 10869
0.00 0.00 0.58 -0.97 8.11 -0.53 0.02 0.14 10876
-0.00 0.00 -0.01 -2.82 8.35 -0.61 0.08 0.15 10884
0.00 0.00 0.48 -1.92 9.00 -0.62 0.10 0.13 10891
0.00 0.00 -0.97 -5.59 7.44 -0.73 0.10 0.12 10898
0.00 0.00 -1.11 -4.29 9.67 -0.76 0.11 0.10 10905
0.00 0.00 -0.50 -5.02 9.77 -0.78 0.08 0.07 10912
0.00 0.00 0.47 -1.59 8.43 -0.84 0.06 0.07 10919
0.00 0.00 -0.28 -5.24 8.12 -0.90 0.05 0.08 10927
0.00 0.00 -1.33 -6.39 9.37 -0.94 0.04 0.08 10934
0.00 0.00 0.46 -4.16 8.41 -0.92 0.00 0.05 10941
0.00 0.00 -2.39 -9.44 9.68 -0.91 0.04 0.08 10948
0.00 0.00 0.43 -0.14 15.97 -0.79 -0.02 0.06 10955
0.00 0.00 -0.53 -5.35 4.36 -0.83 -0.01 0.02 10962
0.00 -0.00 -1.43 -4.95 10.36 -0.80 0.02 0.01 10970
0.00 0.00 -0.80 -6.72 6.82 -0.83 0.04 -0.02 10977
0.00 0.00 -0.23 -5.38 10.35 -0.81 0.05 -0.02 10984
0.00 0.00 0.05 -5.85 9.36 -0.80 0.07 -0.02 10991
0.00 0.00 1.20 -5.30 8.68 -0.77 0.07 -0.06 10998
0.00 0.00 -0.21 -8.27 7.00 -0.75 0.08 -0.09 11005
0.00 -0.00 1.08 -3.87 9.04 -0.75 0.09 -0.10 11013
0.00 0.00 1.34 -4.83 8.92 -0.75 0.11 -0.08 11020
0.00 0.00 1.30 -4.45 10.12 -0.74 0.10 -0.08 11027
0.00 0.00 0.86 -3.86 7.46 -0.72 0.12 -0.08 11034
0.00 0.00 -0.96 -6.33 7.87 -0.71 0.16 -0.09 11041
0.01 -0.00 0.87 -4.73 10.76 -0.67 0.18 -0.10 11048
0.01 -0.00 -0.30 -3.04 8.05 -0.67 0.23 -0.10 11056
0.01 -0.00 0.51 -4.46 9.38 -0.69 0.23 -0.13 11063
0.00 -0.00 0.37 -2.76 8.34 -0.68 0.22 -0.11 11070
0.00 0.00 -1.56 -6.45 9.43 -0.65 0.23 -0.13 11077
0.00 0.00 1.11 -4.59 8.54 -0.65 0.26 -0.10 11084
0.00 0.00 -1.09 -6.42 10.95 -0.63 0.29 -0.10 11091
0.01 -0.00 0.37 -5.33 10.17 -0.62 0.29 -0.10 11099
0.01 -0.00 2.34 -0.25 10.92 -0.65 0.32 -0.08 11106
0.00 0.00 -1.09 -4.87 8.50 -0.68 0.31 -0.05 11113
0.00 0.00 1.54 -2.07 9.37 -0.71 0.30 -0.02 11120
0.00 0.00 -1.97 -4.42 9.58 -0.70 0.24 0.00 11127
0.00 -0.00 2.22 -0.75 9.40 -0.69 0.21 0.03 11134
0.01 -0.00 1.65 -2.38 8.88 -0.71 0.22 0.04 11142
0.00 0.00 0.04 -2.22 8.13 -0.72 0.23 0.04 11149
0.00 0.00 0.28 -2.87 9.13 -0.74 0.23 0.03 11156
0.00 0.00 0.46 -1.84 9.84 -0.77 0.23 0.03 11163
0.00 0.00 -0.34 -2.68 10.28 -0.75 0.24 0.03 11170
0.00 -0.00 0.40 -2.66 9.68 -0.76 0.22 0.03 11177
0.00 -0.00 0.17 -2.64 9.91 -0.76 0.23 0.03 11185
0.00 0.00 0.17 -2.10 10.44 -0.75 0.22 0.05 11192
0.00 0.00 -0.07 -2.92 9.33 -0.76 0.21 0.06 11199
0.00 0.00 0.86 -1.67 10.64 -0.80 0.23 0.08 11206
0.00 0.00 0.47 -1.82 10.27 -0.82 0.23 0.09 11213
0.00 0.00 0.74 -1.92 10.44 -0.85 0.23 0.12 11220
0.00 0.00 0.81 -1.84 9.65 -0.86 0.23 0.15 11228
0.00 0.00 1.00 -1.69 10.58 -0.89 0.23 0.17 11235
0.00 0.00 1.09 -1.89 9.99 -0.89 0.24 0.21 11242
0.00 0.00 1.12 -1.93 9.88 -0.90 0.26 0.25 11249
-0.00 0.00 1.05 -1.81 10.09 -0.90 0.28 0.29 11256
0.00 -0.00 1.01 -1.68 9.95 -0.89 0.28 0.33 11264
0.00 0.00 1.02 -1.53 9.84 -0.88 0.28 0.37 11271
0.00 0.00 1.02 -1.47 9.83 -0.87 0.28 0.41 11278
0.00 0.00 0.97 -1.48 9.88 -0.85 0.28 0.44 11285
0.00 0.00 0.91 -1.50 9.98 -0.84 0.29 0.46 11292
0.00 0.00 0.93 -1.45 10.09 -0.83 0.30 0.48 11299
0.00 0.00 0.86 -1.38 10.24 -0.84 0.30 0.48 11307
0.00 0.00 0.81 -1.29 10.49 -0.84 0.32 0.49 11314
0.00 0.00 0.84 -1.23 10.61 -0.88 0.33 0.48 11321
0.00 0.00 0.77 -1.25 10.62 -0.93 0.36 0.47 11328
0.00 0.00 0.63 -1.25 10.61 -0.96 0.37 0.46 11335
0.00 0.00 0.47 -1.38 10.57 -0.99 0.37 0.45 11342
0.00 0.00 0.35 -1.51 10.41 -0.99 0.36 0.42 11350
0.00 0.00 0.29 -1.64 10.10 -0.99 0.34 0.39 11357
0.00 0.00 0.27 -1.72 9.99 -0.97 0.32 0.35 11364
0.00 0.00 0.25 -1.77 9.90 -0.96 0.31 0.31 11371
0.00 0.00 0.24 -1.79 9.89 -0.93 0.29 0.27 11378
0.00 0.00 0.25 -1.79 10.00 -0.91 0.27 0.21 11385
0.00 0.00 0.26 -1.78 10.24 -0.89 0.25 0.16 11393
0.00 0.00 0.27 -1.73 10.32 -0.88 0.23 0.11 11400
0.00 0.00 0.21 -1.73 10.31 -0.88 0.21 0.06 11407
0.00 0.00 0.15 -2.44 10.29 -0.89 0.18 0.03 11414
0.00 0.00 -1.08 -5.62 11.72 -0.83 0.01 -0.03 11421
0.00 0.00 -2.30 -5.25 12.47 -0.54 -0.53 -0.15 11428
0.00 0.00 -0.67 -2.36 6.36 -0.39 -0.50 -0.19 11436
0.00 0.00 -0.15 -7.03 7.78 -0.36 -0.49 -0.20 11443
0.00 0.00 0.25 -7.76 10.49 -0.13 -0.35 -0.19 11450
0.00 0.00 -0.00 -7.59 7.35 0.01 -0.12 -0.17 11457
-0.00 0.00 -0.45 -7.91 7.44 0.12 -0.09 -0.16 11464
0.00 -0.00 -1.18 -8.81 6.93 0.26 -0.20 -0.15 11471
0.00 0.00 -1.30 -8.37 7.83 0.44 -0.25 -0.12 11479
0.00 0.00 -2.44 -10.84 7.72 0.59 -0.45 -0.07 11486
0.00 0.00 -2.09 -11.30 5.09 0.79 -0.59 -0.05 11493
-0.00 0.01 -2.36 -13.73 11.00 1.01 -0.76 -0.03 11500
-0.00 0.00 -3.85 -15.85 16.92 0.59 -1.10 -0.17 11508
-0.00 0.00 -1.35 -2.42 8.51 -0.01 -0.06 -0.07 11514
0.03 -0.00 0.42 -4.35 10.55 -0.10 0.07 -0.04 11522
0.02 0.00 0.11 -1.39 9.46 -0.15 0.09 -0.02 11529
0.00 0.00 0.30 -0.47 9.46 -0.15 0.07 -0.01 11536
-0.00 0.02 0.40 -0.80 9.76 -0.16 0.06 -0.01 11543
-0.00 0.04 0.35 -0.69 9.59 -0.17 0.04 -0.02 11550
0.00 0.03 0.51 -0.61 9.79 -0.16 0.03 -0.05 11557
0.03 0.07 0.45 -0.82 9.80 -0.13 0.03 -0.05 11565
0.02 0.06 0.24 -0.92 9.97 -0.10 0.05 -0.05 11572
0.01 0.13 0.17 -0.96 10.02 -0.08 0.06 -0.05 11579
0.03 0.16 0.27 -0.93 9.99 -0.07 0.07 -0.05 11586
0.04 0.14 0.24 -0.92 9.89 -0.06 0.09 -0.05 11593
0.04 0.18 0.36 -0.92 9.80 -0.05 0.09 -0.05 11600
0.04 0.20 0.41 -0.86 9.82 -0.04 0.08 -0.04 11608
0.03 0.16 0.38 -0.86 9.82 -0.04 0.08 -0.05 11615
0.03 0.20 0.34 -0.85 9.74 -0.03 0.07 -0.05 11622
0.04 0.17 0.36 -0.82 9.82 -0.03 0.06 -0.05 11629
0.04 0.24 0.36 -0.85 9.75 -0.03 0.05 -0.05 11636
0.04 0.26 0.35 -0.88 9.82 -0.04 0.04 -0.05 11643
0.01 0.23 0.32 -0.83 9.80 -0.03 0.03 -0.05 11651
0.00 0.24 0.37 -0.86 10.41 -0.04 0.03 -0.05 11658
0.00 0.26 0.36 -0.85 9.70 -0.03 0.03 -0.06 11665
0.01 0.25 0.35 -0.81 9.81 -0.04 0.02 -0.06 11672
0.03 0.25 0.35 -0.82 9.84 -0.04 0.03 -0.06 11679
0.02 0.26 0.35 -0.84 9.84 -0.03 0.04 -0.06 11686
0.01 0.26 0.31 -0.82 9.81 -0.03 0.04 -0.06 11694
0.01 0.27 0.25 -0.82 9.70 -0.03 0.05 -0.06 11701
0.02 0.31 0.32 -0.81 9.86 -0.03 0.05 -0.05 11708
0.02 0.32 0.34 -0.77 9.76 -0.03 0.06 -0.06 11715
0.02 0.32 0.31 -0.81 9.78 -0.03 0.06 -0.06 11722
0.02 0.30 0.34 -0.82 9.83 -0.02 0.06 -0.05 11729
0.03 0.32 0.34 -0.82 9.87 -0.03 0.06 -0.05 11737
0.02 0.33 0.34 -0.83 9.81 -0.03 0.06 -0.05 11744
0.02 0.33 0.31 -0.84 9.20 -0.03 0.06 -0.05 11751
0.02 0.33 0.34 -0.78 9.77 -0.03 0.07 -0.05 11758
0.02 0.34 0.35 -0.79 9.82 -0.03 0.07 -0.05 11765
0.03 0.33 0.31 -0.81 9.81 -0.03 0.07 -0.05 11772
0.03 0.32 0.30 -0.76 9.81 -0.02 0.07 -0.05 11780
0.01 0.32 0.35 -0.79 9.78 -0.03 0.07 -0.05 11787
0.02 0.39 0.37 -0.78 9.82 -0.02 0.07 -0.05 11794
0.03 0.40 0.32 -0.75 9.81 -0.02 0.07 -0.05 11801
0.02 0.38 0.32 -0.79 9.80 -0.02 0.07 -0.05 11808
0.02 0.39 0.36 -0.77 9.82 -0.02 0.07 -0.05 11815
0.03 0.37 0.38 -0.82 9.84 -0.02 0.07 -0.05 11823
0.02 0.37 0.36 -0.80 9.81 -0.01 0.08 -0.05 11830
0.03 0.38 0.36 -0.79 9.81 -0.01 0.07 -0.05 11837
0.05 0.37 0.45 -0.78 9.80 -0.01 0.07 -0.05 11844
0.04 0.36 0.42 -0.81 9.84 -0.01 0.07 -0.05 11851
0.04 0.36 0.37 -0.78 9.83 -0.01 0.07 -0.05 11858
0.03 0.35 0.38 -0.79 9.80 -0.01 0.07 -0.05 11866
0.04 0.36 0.38 -0.80 9.82 -0.01 0.07 -0.05 11873
0.03 0.36 0.37 -0.78 9.20 -0.00 0.07 -0.05 11880
0.05 0.34 0.50 -0.81 9.75 -0.01 0.07 -0.05 11887
0.03 0.34 0.40 -0.81 9.81 -0.01 0.07 -0.05 11894
0.04 0.34 0.37 -0.78 9.81 -0.00 0.08 -0.05 11901
0.03 0.34 0.40 -0.80 9.77 -0.00 0.07 -0.05 11909
0.04 0.35 0.30 -0.67 9.88 0.00 0.07 -0.05 11916
0.05 0.36 0.39 -0.81 9.82 -0.00 0.07 -0.05 11923
0.06 0.34 0.40 -0.80 9.80 -0.00 0.07 -0.06 11930
0.05 0.35 0.41 -0.76 9.81 -0.00 0.08 -0.05 11937
0.04 0.33 0.39 -0.76 9.78 0.00 0.08 -0.05 11944
0.04 0.33 0.40 -0.79 9.80 0.00 0.07 -0.05 11952
0.05 0.32 0.41 -0.77 9.81 -0.00 0.07 -0.06 11959
0.05 0.32 0.41 -0.80 9.79 0.00 0.08 -0.06 11966
0.06 0.32 0.43 -0.78 9.77 0.00 0.08 -0.05 11973
0.07 0.31 0.44 -0.76 9.79 0.00 0.08 -0.05 11980
0.06 0.29 0.45 -0.77 9.80 0.00 0.07 -0.06 11987
0.05 0.30 0.42 -0.78 9.77 0.00 0.07 -0.06 11995
0.06 0.30 0.46 -0.79 9.81 0.00 0.08 -0.06 12002
0.06 0.32 0.49 -0.80 9.20 0.00 0.08 -0.06 12009
0.07 0.31 0.48 -0.80 9.82 0.01 0.07 -0.06 12016
0.07 0.30 0.43 -0.81 9.79 0.01 0.07 -0.06 12023
0.06 0.27 0.50 -0.86 9.79 0.01 0.07 -0.06 12030
0.05 0.28 0.49 -0.80 9.77 0.00 0.07 -0.06 12038
0.06 0.27 0.47 -0.77 9.79 0.01 0.07 -0.06 12045
0.07 0.27 0.40 -0.75 9.66 0.01 0.06 -0.06 12052
0.08 0.26 0.46 -0.81 9.81 0.01 0.06 -0.06 12059
0.07 0.24 0.47 -0.80 9.81 0.00 0.06 -0.06 12066
0.06 0.26 0.48 -0.78 9.82 0.00 0.05 -0.06 12073
0.07 0.26 0.48 -0.80 9.79 0.00 0.05 -0.06 12081
0.08 0.23 0.46 -0.83 9.80 0.00 0.05 -0.06 12088
0.08 0.22 0.47 -0.82 9.79 0.00 0.05 -0.06 12095
0.08 0.24 0.42 -0.81 9.82 0.00 0.05 -0.06 12102
0.08 0.23 0.45 -0.81 9.79 0.01 0.05 -0.06 12109
0.06 0.23 0.48 -0.78 9.81 0.01 0.05 -0.06 12116
0.07 0.22 0.46 -0.81 9.81 0.01 0.05 -0.06 12124
0.08 0.22 0.42 -0.82 9.82 0.01 0.04 -0.06 12131
0.10 0.20 0.44 -0.80 9.79 0.01 0.04 -0.06 12138
0.09 0.19 0.46 -0.84 9.81 0.01 0.04 -0.06 12145
0.10 0.17 0.44 -0.82 9.80 0.00 0.05 -0.06 12152
0.09 0.16 0.48 -0.82 9.81 0.00 0.05 -0.06 12160
0.10 0.16 0.48 -0.81 9.82 0.01 0.05 -0.06 12167
0.11 0.17 0.48 -0.80 9.77 0.00 0.04 -0.06 12174
0.12 0.16 0.48 -0.80 9.79 0.00 0.05 -0.06 12181
0.12 0.15 0.47 -0.82 9.81 0.01 0.05 -0.06 12188
0.11 0.13 0.47 -0.82 9.81 0.00 0.04 -0.06 12195
0.11 0.13 0.45 -0.81 9.70 0.00 0.04 -0.06 12203
0.11 0.12 0.44 -0.81 9.81 0.00 0.05 -0.06 12210
0.11 0.12 0.48 -0.84 9.82 0.01 0.05 -0.06 12217
0.12 0.12 0.47 -0.82 9.79 0.00 0.04 -0.06 12224
0.12 0.09 0.46 -0.82 9.80 0.00 0.05 -0.06 12231
0.11 0.08 0.48 -0.83 9.80 0.00 0.04 -0.06 12238
0.09 0.08 0.47 -0.83 9.79 -0.00 0.04 -0.06 12246
0.11 0.06 0.50 -0.80 9.80 0.00 0.04 -0.06 12253
0.11 0.07 0.44 -0.81 9.81 0.00 0.04 -0.06 12260
0.11 0.06 0.51 -0.82 9.80 0.00 0.04 -0.06 12267
0.12 0.05 0.45 -0.85 9.81 -0.00 0.04 -0.06 12274
0.11 0.07 0.47 -0.81 9.81 0.01 0.04 -0.06 12281
0.11 0.08 0.46 -0.82 9.78 0.00 0.04 -0.07 12289
0.13 0.07 0.48 -0.86 9.85 0.00 0.05 -0.06 12296
0.15 0.05 0.46 -0.84 9.82 0.00 0.04 -0.07 12303
0.14 0.05 0.47 -0.84 9.78 -0.00 0.04 -0.06 12310
0.13 0.04 0.47 -0.87 9.81 0.00 0.05 -0.06 12317
0.13 0.06 0.46 -0.85 9.79 -0.00 0.04 -0.06 12324
0.13 0.05 0.50 -0.85 9.83 0.03 0.04 -0.06 12332
0.13 0.07 0.49 -0.84 9.80 -0.00 0.04 -0.06 12339
0.13 0.06 0.50 -0.88 9.81 0.00 0.05 -0.06 12346
0.12 0.06 0.49 -0.81 9.80 0.00 0.04 -0.07 12353
0.13 0.05 0.47 -0.87 9.79 0.00 0.04 -0.06 12360
0.12 0.04 0.47 -0.85 9.80 0.00 0.04 -0.06 12367
0.14 0.04 0.48 -0.84 9.78 -0.00 0.04 -0.07 12375
0.15 0.05 0.49 -0.86 9.80 0.00 0.05 -0.06 12382
0.17 0.04 0.47 -0.85 9.81 -0.00 0.05 -0.07 12389
0.16 0.05 0.50 -0.89 9.20 0.00 0.05 -0.06 12396
0.16 0.01 0.49 -0.87 9.81 0.00 0.05 -0.06 12403
0.14 0.03 0.46 -0.88 9.76 -0.00 0.05 -0.06 12410
0.15 0.03 0.48 -0.86 9.81 0.01 0.05 -0.07 12418
0.17 0.04 0.52 -0.87 9.82 -0.00 0.05 -0.07 12425
0.16 0.03 0.46 -0.86 9.80 0.01 0.05 -0.06 12432
0.15 0.02 0.50 -0.84 9.80 0.00 0.05 -0.07 12439
0.16 0.01 0.51 -0.90 9.79 0.00 0.05 -0.07 12446
0.15 0.02 0.51 -0.88 9.79 0.00 0.05 -0.06 12453
0.16 0.02 0.46 -0.86 9.79 0.00 0.05 -0.06 12461
0.17 0.02 0.52 -0.86 9.81 0.00 0.05 -0.07 12468
0.17 0.02 0.48 -0.86 9.78 0.00 0.05 -0.07 12475
0.16 0.01 0.47 -0.90 9.80 0.00 0.05 -0.07 12482
0.15 0.00 0.45 -0.86 9.79 0.00 0.05 -0.06 12489
0.17 0.02 0.47 -0.86 9.82 0.00 0.05 -0.06 12496
0.17 0.04 0.50 -0.89 9.80 0.00 0.05 -0.06 12504
0.17 0.02 0.48 -0.88 9.82 0.00 0.05 -0.07 12511
0.17 0.01 0.46 -0.87 9.83 0.01 0.05 -0.07 12518
0.18 0.00 0.48 -0.88 9.79 0.01 0.05 -0.06 12525
0.17 0.01 0.49 -0.88 9.80 0.01 0.05 -0.07 12532
0.17 0.01 0.49 -0.86 9.82 0.01 0.05 -0.06 12539
0.18 0.02 0.50 -0.88 9.81 0.01 0.06 -0.07 12547
0.21 0.00 0.48 -0.86 9.79 0.01 0.05 -0.07 12554
0.21 -0.00 0.49 -0.88 9.81 0.01 0.06 -0.07 12561
0.21 -0.02 0.49 -0.91 9.81 0.01 0.05 -0.06 12568
0.20 -0.01 0.50 -0.90 9.72 0.01 0.06 -0.07 12575
0.23 -0.01 0.47 -0.86 9.79 0.01 0.06 -0.06 12582
0.24 -0.00 0.49 -0.90 9.82 0.02 0.06 -0.07 12590
0.25 -0.02 0.51 -0.91 9.80 0.01 0.06 -0.07 12597
0.24 -0.01 0.49 -0.88 9.78 0.01 0.06 -0.06 12604
0.24 -0.01 0.53 -0.91 9.77 0.02 0.06 -0.07 12611
0.22 -0.00 0.54 -0.84 9.21 0.02 0.06 -0.07 12618
0.23 -0.01 0.50 -0.86 9.81 0.02 0.06 -0.07 12625
0.25 -0.00 0.51 -0.91 9.79 0.02 0.07 -0.07 12633
0.26 -0.01 0.50 -0.91 9.80 0.03 0.07 -0.07 12640
0.27 -0.01 0.51 -0.89 9.81 0.04 0.08 -0.07 12647
0.27 -0.01 0.50 -0.91 9.81 0.04 0.08 -0.07 12654
0.26 -0.01 0.50 -0.92 9.81 0.05 0.09 -0.07 12661
0.26 -0.00 0.50 -0.89 9.81 0.05 0.10 -0.07 12668
0.27 -0.00 0.51 -0.91 9.81 0.06 0.10 -0.07 12676
0.27 -0.02 0.52 -0.91 9.82 0.06 0.11 -0.06 12683
0.29 -0.02 0.54 -0.92 9.82 0.07 0.12 -0.06 12690
0.28 -0.02 0.53 -0.92 9.81 0.08 0.13 -0.06 12697
0.27 -0.01 0.52 -0.94 9.85 0.09 0.14 -0.06 12704
0.28 -0.00 0.55 -0.98 9.84 0.11 0.15 -0.06 12711
0.29 -0.02 0.62 -0.93 9.81 0.12 0.17 -0.06 12719
0.27 -0.02 0.59 -0.97 9.86 0.14 0.18 -0.06 12726
0.25 -0.03 0.56 -0.93 9.87 0.16 0.19 -0.06 12733
0.24 -0.01 0.61 -0.97 9.88 0.19 0.20 -0.06 12740
0.24 -0.01 0.63 -0.95 9.95 0.23 0.20 -0.06 12747
0.24 -0.01 0.62 -1.01 10.10 0.28 0.22 -0.06 12754
0.25 -0.02 0.71 -1.03 10.19 0.36 0.23 -0.07 12763
0.24 -0.02 0.72 -1.07 10.26 0.45 0.25 -0.07 12769
0.23 -0.02 0.67 -1.09 10.35 0.54 0.25 -0.08 12776
0.21 -0.02 0.69 -1.16 10.40 0.63 0.25 -0.09 12784
0.21 -0.01 0.69 -1.25 10.38 0.71 0.23 -0.09 12791
0.21 -0.01 0.69 -1.37 10.43 0.76 0.21 -0.09 12798
0.21 -0.02 0.71 -1.41 10.43 0.77 0.17 -0.10 12806
0.19 -0.02 0.75 -1.44 10.29 0.77 0.12 -0.10 12812
0.18 -0.02 0.74 -1.51 10.29 0.78 0.10 -0.10 12819
0.17 -0.01 0.76 -1.61 10.27 0.80 0.07 -0.10 12826
0.16 -0.01 0.79 -1.65 10.26 0.81 0.05 -0.10 12833
0.18 -0.01 0.77 -1.71 10.24 0.83 0.03 -0.11 12840
0.17 -0.02 0.82 -1.77 10.20 0.85 0.01 -0.12 12848
0.13 -0.01 0.61 -1.76 10.17 0.85 -0.04 -0.12 12855
0.13 -0.01 0.96 -1.94 10.35 0.87 -0.02 -0.14 12862
0.11 -0.01 0.94 -1.96 10.30 0.90 -0.04 -0.16 12869
0.10 -0.01 1.01 -2.02 10.25 0.94 -0.07 -0.17 12877
0.11 -0.01 0.91 -2.09 10.09 0.97 -0.08 -0.18 12883
0.09 -0.01 0.99 -2.21 10.48 1.02 -0.12 -0.20 12891
0.10 -0.01 1.03 -2.32 10.70 1.07 -0.16 -0.21 12898
0.07 -0.01 1.06 -2.41 10.77 1.13 -0.18 -0.23 12905
0.06 -0.01 0.99 -2.51 10.85 1.21 -0.21 -0.24 12912
0.02 -0.00 1.05 -2.60 10.96 1.27 -0.23 -0.26 12919
0.06 -0.01 0.89 -2.40 9.99 1.35 -0.24 -0.27 12926
0.07 -0.01 0.93 -2.91 11.16 1.42 -0.24 -0.29 12934
0.06 -0.01 0.93 -3.01 11.25 1.48 -0.25 -0.29 12941
0.05 -0.01 1.00 -3.09 11.27 1.56 -0.23 -0.30 12948
0.05 -0.00 1.00 -3.28 11.32 1.62 -0.19 -0.31 12955
0.07 -0.01 1.07 -3.40 11.40 1.67 -0.15 -0.32 12962
0.04 -0.00 1.13 -3.51 11.21 1.70 -0.08 -0.33 12969
0.01 -0.00 0.90 -3.64 11.07 1.71 0.00 -0.33 12977
0.01 -0.00 0.84 -3.70 10.89 1.72 0.06 -0.33 12984
0.00 0.00 0.57 -3.86 10.88 1.75 0.11 -0.34 12991
0.01 -0.00 0.20 -3.84 10.85 1.74 0.09 -0.33 12998
0.00 0.00 -0.03 -3.83 10.61 1.69 0.01 -0.32 13005
0.00 0.00 -0.21 -3.89 10.56 1.66 -0.10 -0.31 13012
0.00 0.00 -0.30 -3.97 10.57 1.62 -0.23 -0.30 13020
0.00 0.00 -0.16 -4.09 10.31 1.58 -0.36 -0.29 13027
0.00 0.00 0.60 -4.28 10.05 1.56 -0.44 -0.28 13034
0.00 0.00 0.11 -4.39 9.99 1.53 -0.50 -0.27 13041
0.00 -0.00 0.30 -4.39 9.71 1.44 -0.51 -0.26 13048
0.00 -0.00 0.35 -4.35 8.97 1.40 -0.50 -0.24 13056
0.00 0.00 0.71 -3.98 8.27 1.32 -0.46 -0.24 13063
0.00 0.00 0.56 -3.61 7.41 1.25 -0.43 -0.24 13070
0.00 0.00 0.67 -3.40 7.12 1.18 -0.37 -0.24 13077
0.00 0.00 0.55 -3.14 6.93 1.12 -0.33 -0.25 13084
0.01 -0.00 0.39 -2.85 6.90 1.05 -0.30 -0.27 13091
0.00 0.00 0.34 -3.07 6.97 0.98 -0.28 -0.27 13099
0.00 0.00 0.17 -3.13 7.33 0.93 -0.26 -0.27 13106
0.00 0.00 0.18 -3.02 7.05 0.89 -0.25 -0.28 13113
0.00 0.00 0.19 -2.74 7.03 0.85 -0.24 -0.27 13120
0.00 0.00 0.22 -2.01 7.15 0.78 -0.22 -0.29 13127
0.00 -0.00 0.25 -2.44 7.16 0.68 -0.22 -0.29 13134
0.00 0.00 0.06 -2.90 7.26 0.61 -0.23 -0.30 13142
0.00 0.00 -0.16 -3.54 7.58 0.57 -0.22 -0.28 13149
0.00 0.00 -0.21 -3.12 7.33 0.53 -0.21 -0.29 13156
0.00 0.00 0.17 -0.64 8.10 0.43 -0.19 -0.26 13163
0.00 0.00 -0.04 -1.10 6.99 0.26 -0.17 -0.24 13170
0.00 -0.00 -0.15 -0.87 8.00 0.08 -0.12 -0.21 13177
0.00 0.00 0.15 -0.73 8.07 -0.06 -0.09 -0.19 13185
0.00 0.00 0.24 -0.60 7.81 -0.19 -0.08 -0.15 13192
0.00 0.00 0.06 -1.20 7.74 -0.28 -0.05 -0.13 13199
0.00 0.00 0.20 -0.62 7.93 -0.37 -0.03 -0.11 13206
0.00 0.00 0.11 -1.64 7.34 -0.44 -0.01 -0.09 13213
0.00 0.00 0.06 -1.21 7.95 -0.47 -0.01 -0.08 13220
0.00 0.00 0.10 -1.65 7.76 -0.52 -0.03 -0.08 13228
0.00 0.00 0.14 -1.71 8.36 -0.55 -0.05 -0.10 13235
0.00 0.00 0.36 -1.98 8.31 -0.63 -0.08 -0.12 13242
0.00 0.00 0.46 -3.19 8.18 -0.68 -0.12 -0.13 13249
0.00 0.00 0.39 -2.85 8.06 -0.76 -0.13 -0.12 13256
0.00 0.00 -0.09 -6.35 7.52 -0.80 -0.14 -0.11 13263
0.00 0.00 1.18 -3.33 10.19 -0.81 -0.12 -0.11 13271
0.00 0.00 1.33 -4.45 7.12 -0.83 -0.15 -0.10 13278
0.00 0.00 -0.17 -7.59 7.11 -0.82 -0.12 -0.09 13285
0.00 0.00 1.20 -7.33 9.49 -0.78 -0.08 -0.08 13292
0.00 0.00 0.22 -5.27 8.03 -0.69 -0.07 -0.11 13299
0.00 0.00 1.38 -5.35 7.17 -0.71 -0.03 -0.10 13306
0.00 0.00 0.99 -7.96 7.02 -0.75 0.08 -0.12 13314
0.00 0.00 0.35 -5.60 7.51 -0.73 0.10 -0.12 13321
0.00 0.00 0.93 -6.47 6.41 -0.78 0.16 -0.13 13328
0.00 0.00 -1.38 -7.66 6.42 -0.77 0.19 -0.14 13335
0.00 -0.00 0.66 -5.43 8.97 -0.77 0.17 -0.15 13342
0.00 0.00 -0.19 -5.02 7.92 -0.77 0.20 -0.12 13349
0.00 0.00 -0.48 -5.91 7.90 -0.69 0.23 -0.09 13357
0.00 0.00 -0.02 -5.63 9.11 -0.69 0.23 -0.05 13364
0.00 0.00 -0.63 -5.79 10.71 -0.59 0.20 -0.03 13371
0.00 0.00 -1.09 -5.11 8.67 -0.62 0.18 -0.04 13378
0.00 0.00 -0.07 -3.83 8.68 -0.56 0.16 -0.04 13385
0.00 0.00 -1.03 -6.70 6.98 -0.57 0.16 -0.03 13392
0.00 0.00 -0.69 -3.75 9.32 -0.55 0.17 -0.04 13400
0.00 0.00 -0.96 -5.48 7.69 -0.58 0.17 -0.03 13407
0.00 0.00 -0.90 -3.78 11.75 -0.59 0.24 0.00 13414
0.00 0.00 -0.23 -4.26 9.41 -0.59 0.21 0.02 13421
0.00 0.00 0.14 -3.53 9.34 -0.65 0.23 0.05 13428
0.00 0.00 -0.15 -3.69 9.43 -0.64 0.23 0.08 13435
0.00 0.00 0.68 -2.16 8.27 -0.67 0.23 0.10 13443
0.00 0.00 -0.44 -4.25 7.79 -0.69 0.22 0.11 13450
0.00 0.00 -0.39 -3.51 9.15 -0.73 0.23 0.13 13457
0.00 0.00 0.35 -0.99 9.35 -0.75 0.20 0.14 13464
0.00 0.00 -0.44 -3.24 8.33 -0.75 0.16 0.17 13471
0.00 0.00 0.10 -2.97 9.67 -0.72 0.13 0.18 13478
0.00 0.00 0.43 -2.08 8.76 -0.77 0.15 0.18 13486
0.00 0.00 0.07 -2.68 9.26 -0.76 0.19 0.19 13493
0.00 0.00 -0.22 -3.15 9.22 -0.77 0.21 0.20 13500
0.00 0.00 0.08 -2.66 9.60 -0.81 0.25 0.20 13507
0.00 0.00 0.12 -2.33 9.50 -0.84 0.22 0.22 13514
0.00 0.00 -0.40 -2.32 10.27 -0.86 0.23 0.24 13521
0.00 0.00 -0.02 -2.54 10.53 -0.89 0.19 0.25 13529
0.00 0.00 -0.21 -1.91 10.83 -0.91 0.18 0.27 13536
0.00 0.00 0.56 -1.83 9.51 -0.94 0.15 0.28 13543
0.00 -0.00 0.99 -1.83 9.55 -0.95 0.18 0.28 13550
0.00 0.00 0.79 -1.85 9.84 -0.97 0.19 0.29 13557
0.00 0.00 0.89 -2.04 9.81 -0.96 0.22 0.31 13564
0.00 0.00 0.93 -2.22 9.91 -0.96 0.26 0.32 13572
0.00 0.00 0.82 -2.31 9.98 -0.96 0.29 0.34 13579
0.00 0.00 0.71 -2.38 10.07 -0.95 0.30 0.37 13586
0.01 -0.00 0.59 -2.45 10.15 -0.95 0.30 0.39 13593
0.00 0.00 0.50 -2.55 10.21 -0.95 0.28 0.42 13600
0.00 0.00 0.49 -2.66 10.25 -0.96 0.26 0.43 13607
0.00 0.00 0.54 -2.68 10.24 -0.97 0.25 0.45 13615
0.00 0.00 0.61 -2.73 10.11 -0.98 0.25 0.46 13622
0.00 0.00 0.66 -2.68 10.22 -0.99 0.27 0.46 13629
0.00 0.00 0.65 -2.68 10.21 -0.98 0.30 0.45 13636
0.00 0.00 0.02 -2.61 10.21 -0.97 0.33 0.44 13643
0.00 0.00 0.53 -2.52 10.22 -0.96 0.36 0.42 13650
0.00 0.00 0.42 -2.46 10.22 -0.96 0.38 0.38 13658
0.00 0.00 0.33 -2.41 10.26 -0.95 0.39 0.35 13665
0.00 0.00 0.23 -2.34 10.18 -0.94 0.39 0.30 13672
0.00 0.00 0.20 -2.31 10.06 -0.93 0.38 0.24 13679
0.00 0.00 0.09 -2.35 10.00 -0.92 0.35 0.18 13686
0.00 0.00 0.05 -2.32 10.02 -0.91 0.30 0.11 13693
0.00 0.00 0.12 -2.27 10.07 -0.90 0.27 0.00 13701
0.00 0.00 0.18 -2.20 9.91 -0.89 0.26 -0.04 13708
0.00 0.00 0.23 -2.06 9.74 -0.90 0.26 -0.11 13715
0.00 0.00 0.27 -2.03 9.74 -0.91 0.28 -0.17 13722
0.00 0.00 0.35 -1.96 9.81 -0.92 0.30 -0.23 13729
0.00 0.00 0.44 -1.91 9.82 -0.93 0.33 -0.27 13736
0.00 0.00 0.52 -1.89 9.68 -0.93 0.35 -0.32 13744
0.00 0.00 0.55 -1.83 9.57 -0.93 0.37 -0.35 13751
0.00 -0.00 0.58 -1.85 9.59 -0.92 0.39 -0.37 13758
0.00 0.00 0.59 -1.85 9.57 -0.92 0.42 -0.37 13765
0.00 0.00 0.54 -1.86 9.62 -0.91 0.47 -0.35 13772
0.00 0.00 0.40 -1.92 9.33 -0.90 0.52 -0.31 13779
0.00 0.00 0.10 -2.00 9.53 -0.89 0.54 -0.23 13787
0.00 0.00 -0.46 -5.45 10.76 -0.87 0.49 -0.15 13794
0.00 0.00 -5.51 -12.33 17.26 -0.40 -0.53 -0.18 13801
0.00 0.00 -0.80 -3.45 6.64 -0.12 -0.50 -0.17 13808
0.00 0.00 -0.10 -7.39 4.69 -0.07 -0.58 -0.07 13815
0.00 0.00 -0.25 -15.47 10.39 0.26 -0.59 -0.03 13822
-0.00 0.00 -0.50 -13.53 4.22 0.47 -0.44 0.00 13830
-0.00 0.03 -1.54 -18.49 5.89 0.77 -0.48 0.04 13837
-0.00 0.01 -6.11 -25.96 16.19 0.80 -1.22 -0.02 13844
-0.00 0.01 -1.67 -12.40 13.28 0.24 -0.68 -0.06 13851
0.00 0.00 -0.34 -4.63 9.78 -0.08 -0.03 0.01 13858
-0.00 0.01 0.14 -1.93 9.69 -0.15 0.02 -0.02 13865
-0.00 0.02 0.29 -1.10 9.97 -0.18 0.04 -0.02 13873
-0.00 0.02 0.53 -0.35 9.79 -0.13 0.03 -0.01 13880
-0.00 0.02 0.56 -0.39 9.75 -0.10 0.01 -0.02 13887
-0.00 0.05 0.52 -0.59 9.82 -0.10 0.01 -0.05 13894
0.02 0.05 0.44 -0.73 9.75 -0.09 0.01 -0.06 13901
0.02 0.07 0.35 -0.90 10.39 -0.06 0.01 -0.06 13908
0.03 0.07 0.34 -0.89 9.81 -0.05 0.03 -0.06 13916
0.04 0.12 0.32 -0.89 9.81 -0.05 0.04 -0.06 13923
0.06 0.13 0.32 -0.87 9.61 -0.04 0.06 -0.06 13930
0.06 0.14 0.34 -0.93 9.74 -0.03 0.06 -0.06 13937
0.06 0.13 0.37 -0.98 9.82 -0.03 0.06 -0.06 13944
0.05 0.13 0.34 -1.03 9.84 -0.03 0.06 -0.06 13952
0.02 0.15 0.43 -0.99 9.82 -0.03 0.05 -0.05 13959
0.04 0.15 0.42 -0.92 9.82 -0.04 0.05 -0.05 13966
0.03 0.19 0.42 -0.94 9.82 -0.03 0.04 -0.06 13973
0.03 0.17 0.45 -0.95 9.86 -0.04 0.03 -0.05 13980
0.03 0.17 0.40 -0.93 9.79 -0.04 0.03 -0.06 13987
0.02 0.19 0.42 -0.89 9.79 -0.03 0.03 -0.06 13995
0.01 0.21 0.41 -0.90 9.81 -0.03 0.03 -0.07 14002
0.05 0.18 0.42 -0.89 9.85 -0.02 0.03 -0.07 14009
0.04 0.19 0.39 -0.92 9.84 -0.02 0.03 -0.07 14016
0.04 0.19 0.36 -0.94 9.79 -0.02 0.02 -0.07 14023
0.02 0.20 0.41 -0.89 9.87 -0.01 0.03 -0.07 14030
0.02 0.19 0.40 -0.88 9.20 -0.01 0.03 -0.08 14038
0.02 0.21 0.37 -0.89 9.89 -0.01 0.03 -0.08 14045
0.04 0.19 0.40 -0.92 9.82 -0.01 0.03 -0.07 14052
0.04 0.19 0.40 -0.89 9.80 -0.01 0.03 -0.07 14059
0.03 0.20 0.42 -0.88 9.78 -0.01 0.03 -0.07 14066
0.01 0.19 0.36 -0.90 9.81 -0.01 0.04 -0.07 14073
0.02 0.20 0.38 -0.91 9.79 -0.01 0.05 -0.07 14081
0.04 0.21 0.44 -0.86 9.72 -0.01 0.05 -0.07 14088
0.05 0.21 0.39 -0.90 9.84 -0.01 0.05 -0.07 14095
0.04 0.20 0.43 -0.87 9.77 -0.01 0.05 -0.07 14102
0.03 0.20 0.41 -0.90 9.80 -0.01 0.05 -0.07 14109
0.03 0.22 0.42 -0.96 9.80 -0.01 0.05 -0.07 14116
0.05 0.22 0.42 -0.91 9.80 -0.01 0.05 -0.07 14124
0.06 0.21 0.38 -0.88 9.83 -0.01 0.04 -0.07 14131
0.06 0.22 0.43 -0.89 9.80 -0.01 0.04 -0.07 14138
0.05 0.22 0.42 -0.86 9.80 -0.01 0.04 -0.07 14145
0.06 0.21 0.38 -0.90 9.80 -0.01 0.04 -0.07 14152
0.07 0.22 0.44 -0.94 9.85 -0.01 0.04 -0.07 14159
0.06 0.24 0.39 -0.92 9.80 -0.01 0.04 -0.07 14167
0.07 0.23 0.43 -0.91 9.83 -0.01 0.04 -0.07 14174
0.07 0.22 0.43 -0.93 9.83 -0.01 0.04 -0.07 14181
0.08 0.22 0.40 -0.91 9.80 -0.01 0.04 -0.07 14188
0.06 0.22 0.41 -0.90 9.80 -0.01 0.04 -0.07 14195
0.06 0.24 0.41 -0.91 9.80 -0.02 0.04 -0.07 14202
0.07 0.25 0.42 -0.89 9.80 -0.02 0.04 -0.07 14210
0.09 0.22 0.40 -0.92 9.82 -0.02 0.04 -0.07 14217
0.08 0.22 0.41 -0.90 9.88 -0.02 0.04 -0.07 14224
0.07 0.22 0.39 -0.87 9.80 -0.02 0.03 -0.07 14231
0.06 0.23 0.43 -0.90 9.81 -0.02 0.03 -0.06 14238
0.06 0.23 0.44 -0.91 9.82 -0.02 0.03 -0.07 14245
0.07 0.23 0.39 -0.86 9.82 -0.02 0.03 -0.07 14253
0.09 0.22 0.38 -0.88 9.77 -0.02 0.03 -0.07 14260
0.08 0.25 0.38 -0.87 9.81 -0.02 0.03 -0.07 14267
0.08 0.25 0.35 -0.88 9.84 -0.02 0.04 -0.07 14274
0.07 0.26 0.36 -0.89 9.81 -0.02 0.05 -0.07 14281
0.09 0.25 0.37 -0.88 9.83 -0.02 0.05 -0.07 14288
0.09 0.27 0.43 -0.87 9.21 -0.01 0.05 -0.07 14296
0.09 0.26 0.38 -0.88 9.77 -0.01 0.06 -0.07 14303
0.08 0.28 0.36 -0.86 9.81 -0.00 0.05 -0.07 14310
0.08 0.26 0.39 -0.86 9.81 -0.01 0.06 -0.07 14317
0.07 0.27 0.40 -0.91 9.80 -0.00 0.06 -0.07 14324
0.08 0.28 0.37 -0.83 9.81 0.00 0.06 -0.07 14331
0.09 0.28 0.41 -0.90 9.82 0.00 0.07 -0.07 14339
0.08 0.27 0.39 -0.86 9.80 0.00 0.07 -0.07 14346
0.08 0.27 0.40 -0.88 9.81 0.00 0.07 -0.07 14353
0.09 0.24 0.39 -0.91 9.80 0.01 0.07 -0.07 14360
0.08 0.25 0.41 -0.88 9.75 0.01 0.08 -0.07 14367
0.09 0.25 0.43 -0.87 9.80 0.01 0.08 -0.07 14374
0.11 0.24 0.42 -0.87 9.74 0.01 0.08 -0.08 14382
0.10 0.22 0.37 -0.87 9.78 0.01 0.09 -0.07 14389
0.09 0.20 0.42 -0.90 9.78 0.01 0.09 -0.07 14396
0.09 0.19 0.39 -0.90 9.77 0.02 0.10 -0.07 14403
0.08 0.19 0.42 -0.90 9.79 0.02 0.11 -0.08 14410
0.09 0.17 0.40 -0.87 9.82 0.02 0.11 -0.07 14417
0.13 0.13 0.46 -0.92 9.79 0.02 0.11 -0.07 14425
0.12 0.10 0.46 -0.92 9.80 0.02 0.11 -0.07 14432
0.08 0.09 0.45 -0.89 9.76 0.02 0.12 -0.07 14439
0.09 0.10 0.49 -0.93 9.81 0.02 0.11 -0.07 14446
0.09 0.05 0.46 -0.89 9.79 0.02 0.12 -0.08 14453
0.10 0.05 0.47 -0.90 9.78 0.02 0.12 -0.07 14460
0.12 0.06 0.47 -0.90 9.80 0.02 0.12 -0.07 14468
0.11 0.03 0.51 -0.91 9.80 0.02 0.12 -0.07 14475
0.10 -0.01 0.52 -0.88 9.79 0.02 0.12 -0.08 14482
0.09 0.02 0.51 -0.91 9.81 0.02 0.11 -0.08 14489
0.09 0.02 0.52 -0.94 9.80 0.02 0.11 -0.07 14496
0.11 0.02 0.51 -0.96 9.81 0.02 0.11 -0.08 14503
0.12 0.02 0.53 -0.96 9.78 0.02 0.11 -0.08 14511
0.11 -0.00 0.52 -0.93 9.20 0.02 0.10 -0.07 14518
0.11 0.00 0.50 -0.97 9.78 0.02 0.10 -0.07 14525
0.12 0.00 0.53 -0.92 9.82 0.02 0.10 -0.07 14532
0.14 0.00 0.54 -0.93 9.80 0.02 0.10 -0.07 14539
0.17 0.00 0.60 -0.94 9.79 0.02 0.10 -0.07 14546
0.16 -0.00 0.56 -0.93 9.78 0.02 0.09 -0.07 14554
0.17 0.00 0.55 -0.95 9.81 0.02 0.09 -0.07 14561
0.16 -0.00 0.56 -0.97 9.82 0.02 0.09 -0.07 14568
0.18 -0.01 0.57 -0.95 9.81 0.02 0.09 -0.07 14575
0.22 -0.00 0.56 -0.97 9.78 0.02 0.08 -0.07 14582
0.21 -0.02 0.55 -0.93 9.82 0.02 0.07 -0.07 14589
0.19 -0.00 0.59 -0.94 9.77 0.02 0.07 -0.07 14597
0.20 -0.01 0.59 -0.95 9.78 0.01 0.07 -0.06 14604
0.19 0.00 0.58 -0.94 9.80 0.02 0.06 -0.06 14611
0.20 -0.01 0.57 -0.93 9.77 0.02 0.06 -0.06 14618
0.22 -0.01 0.60 -0.96 9.81 0.02 0.06 -0.07 14625
0.23 -0.01 0.58 -0.94 9.76 0.02 0.06 -0.06 14632
0.25 -0.02 0.53 -0.95 9.79 0.02 0.07 -0.06 14640
0.27 -0.03 0.54 -0.98 9.80 0.03 0.07 -0.07 14647
0.27 -0.01 0.58 -0.95 9.81 0.03 0.07 -0.06 14654
0.29 -0.00 0.57 -0.93 9.75 0.03 0.07 -0.07 14661
0.29 0.00 0.53 -0.96 9.82 0.03 0.08 -0.06 14668
0.31 -0.01 0.52 -0.86 9.80 0.03 0.08 -0.06 14675
0.33 -0.01 0.59 -0.98 9.79 0.03 0.08 -0.06 14683
0.35 -0.02 0.63 -0.99 9.78 0.03 0.08 -0.06 14690
0.33 -0.01 0.57 -0.96 9.79 0.03 0.08 -0.06 14697
0.35 -0.01 0.59 -0.99 9.78 0.03 0.08 -0.06 14704
0.36 -0.02 0.60 -0.97 9.76 0.03 0.08 -0.06 14711
0.37 -0.02 0.59 -0.99 9.76 0.04 0.08 -0.06 14718
0.39 -0.01 0.60 -0.97 9.81 0.03 0.08 -0.06 14726
0.37 -0.02 0.61 -0.97 9.76 0.04 0.08 -0.06 14733
0.36 -0.01 0.60 -0.99 9.80 0.04 0.08 -0.06 14740
0.37 -0.01 0.59 -0.99 9.76 0.04 0.09 -0.06 14747
0.38 -0.02 0.59 -1.00 9.79 0.04 0.08 -0.06 14754
0.38 -0.02 0.61 -1.02 9.78 0.04 0.09 -0.05 14761
0.38 -0.02 0.58 -0.99 9.80 0.04 0.09 -0.05 14769
0.39 -0.03 0.61 -1.00 9.79 0.04 0.09 -0.05 14776
0.38 -0.02 0.60 -0.99 9.78 0.04 0.09 -0.05 14783
0.38 -0.01 0.64 -1.03 9.81 0.04 0.09 -0.05 14790
0.39 -0.02 0.62 -1.01 9.78 0.05 0.09 -0.05 14797
0.39 -0.01 0.63 -1.00 9.77 0.05 0.10 -0.05 14804
0.38 -0.02 0.63 -1.03 9.79 0.06 0.10 -0.05 14812
0.39 -0.02 0.60 -1.03 9.82 0.06 0.11 -0.05 14819
0.38 -0.01 0.64 -0.97 9.78 0.07 0.11 -0.05 14826
0.38 -0.01 0.62 -1.07 9.81 0.07 0.12 -0.05 14833
0.40 -0.02 0.63 -1.01 9.75 0.09 0.12 -0.04 14840
0.40 -0.03 0.68 -1.05 9.75 0.09 0.12 -0.04 14848
0.41 -0.04 0.63 -1.03 9.81 0.09 0.13 -0.04 14855
0.39 -0.02 0.66 -1.05 9.76 0.09 0.13 -0.04 14862
0.39 -0.02 0.67 -1.05 9.80 0.11 0.13 -0.04 14869
0.38 -0.01 0.71 -1.04 9.81 0.12 0.13 -0.05 14876
0.38 -0.02 0.73 -1.07 9.74 0.14 0.14 -0.05 14883
0.38 -0.03 0.69 -1.12 9.83 0.15 0.14 -0.05 14891
0.37 -0.03 0.68 -1.13 9.77 0.16 0.15 -0.06 14898
0.38 -0.02 0.69 -1.16 9.78 0.17 0.14 -0.05 14905
0.38 -0.02 0.69 -1.15 9.75 0.17 0.14 -0.06 14912
0.40 -0.02 0.66 -1.19 9.77 0.17 0.14 -0.05 14919
0.40 -0.03 0.73 -1.17 9.77 0.17 0.13 -0.05 14926
0.39 -0.02 0.73 -1.17 9.79 0.18 0.13 -0.05 14934
0.38 -0.03 0.77 -1.20 9.75 0.18 0.13 -0.05 14941
0.38 -0.02 0.76 -1.21 9.75 0.19 0.13 -0.05 14948
0.40 -0.02 0.77 -1.25 9.81 0.20 0.13 -0.06 14955
0.41 -0.02 0.79 -1.26 9.74 0.20 0.12 -0.05 14962
0.42 -0.02 0.72 -1.27 9.85 0.21 0.12 -0.06 14969
0.41 -0.02 0.75 -1.26 9.76 0.22 0.12 -0.06 14977
0.40 -0.03 0.85 -1.33 9.75 0.22 0.12 -0.06 14984
0.39 -0.02 0.79 -1.31 9.81 0.23 0.11 -0.06 14991
0.39 -0.01 0.82 -1.37 10.41 0.24 0.11 -0.06 14999
0.41 -0.02 0.82 -1.40 9.77 0.25 0.10 -0.06 15005
0.42 -0.03 0.81 -1.41 9.76 0.25 0.10 -0.06 15012
0.43 -0.03 0.91 -1.43 9.70 0.25 0.10 -0.06 15020
0.41 -0.03 0.89 -1.44 9.85 0.26 0.10 -0.06 15027
0.42 -0.02 0.84 -1.47 9.82 0.29 0.10 -0.07 15034
0.43 -0.01 0.87 -1.54 9.82 0.30 0.10 -0.07 15041
0.45 -0.03 0.91 -1.52 9.81 0.32 0.10 -0.08 15048
0.45 -0.03 0.84 -1.59 9.79 0.32 0.09 -0.08 15055
0.45 -0.03 0.82 -1.56 9.84 0.33 0.09 -0.08 15063
0.45 -0.03 0.81 -1.62 9.91 0.35 0.09 -0.08 15070
0.45 -0.03 0.93 -1.65 9.89 0.37 0.09 -0.08 15077
0.47 -0.02 0.89 -1.68 9.88 0.40 0.08 -0.08 15084
0.47 -0.02 0.87 -1.75 9.98 0.42 0.08 -0.08 15091
0.44 -0.02 0.86 -1.79 10.01 0.44 0.08 -0.09 15098
0.44 -0.03 0.86 -1.78 9.99 0.47 0.06 -0.08 15106
0.42 -0.02 0.88 -1.87 10.14 0.49 0.05 -0.08 15113
0.42 -0.03 0.95 -1.88 10.13 0.54 0.05 -0.08 15120
0.41 -0.02 0.90 -1.93 10.14 0.58 0.04 -0.09 15127
0.40 -0.02 0.93 -1.97 10.20 0.61 0.02 -0.09 15134
0.38 -0.02 0.93 -2.06 10.28 0.67 0.01 -0.09 15141
0.37 -0.03 0.96 -2.10 10.28 0.72 -0.00 -0.10 15149
0.36 -0.02 0.99 -2.12 10.23 0.76 -0.03 -0.11 15157
0.34 -0.01 1.14 -2.22 10.29 0.79 -0.06 -0.11 15164
0.35 -0.02 0.99 -2.20 10.14 0.85 -0.04 -0.12 15171
0.33 -0.02 1.00 -2.34 10.16 0.90 -0.06 -0.13 15178
0.29 -0.02 0.96 -2.33 9.90 0.94 -0.07 -0.14 15184
0.25 -0.02 0.98 -2.41 10.10 0.96 -0.10 -0.14 15193
0.22 -0.02 0.82 -2.58 9.98 0.99 -0.08 -0.14 15199
0.21 -0.01 0.92 -2.67 9.97 1.03 -0.10 -0.14 15206
0.23 -0.01 0.83 -2.75 9.90 1.05 -0.11 -0.14 15213
0.23 -0.01 0.82 -2.73 9.87 1.08 -0.09 -0.14 15220
0.21 -0.02 0.74 -2.91 9.87 1.10 -0.10 -0.14 15227
0.18 -0.02 0.87 -2.92 9.86 1.12 -0.08 -0.14 15235
0.17 -0.02 0.88 -3.08 9.70 1.16 -0.12 -0.14 15242
0.17 -0.01 0.95 -3.26 9.71 1.18 -0.11 -0.15 15249
0.14 -0.01 0.83 -3.26 9.64 1.21 -0.12 -0.16 15256
0.14 -0.01 0.80 -3.34 9.72 1.23 -0.13 -0.17 15263
0.12 -0.01 0.66 -3.45 9.55 1.25 -0.12 -0.17 15270
0.08 -0.01 0.72 -3.60 9.54 1.27 -0.12 -0.17 15278
0.12 -0.01 0.69 -3.71 9.40 1.27 -0.12 -0.17 15285
0.11 -0.01 0.68 -3.73 9.47 1.28 -0.12 -0.17 15292
0.11 -0.01 0.62 -3.87 9.42 1.30 -0.11 -0.16 15299
0.07 -0.01 0.68 -3.96 9.59 1.31 -0.11 -0.17 15306
0.10 -0.01 0.74 -4.13 9.62 1.33 -0.12 -0.17 15313
0.05 -0.01 0.73 -4.28 9.79 1.35 -0.11 -0.17 15321
0.06 -0.01 0.82 -4.38 9.23 1.38 -0.12 -0.18 15328
0.07 -0.01 0.69 -4.54 9.72 1.41 -0.13 -0.18 15335
0.08 -0.01 0.73 -4.56 9.74 1.43 -0.14 -0.18 15342
0.09 -0.01 0.67 -4.72 9.66 1.45 -0.14 -0.19 15349
0.09 -0.01 0.74 -4.86 9.63 1.47 -0.14 -0.19 15356
0.08 -0.01 0.68 -5.03 9.74 1.48 -0.15 -0.19 15364
0.09 -0.01 0.62 -5.06 9.61 1.50 -0.12 -0.20 15371
0.10 -0.01 0.66 -5.28 9.78 1.50 -0.07 -0.19 15378
0.09 -0.01 0.67 -5.49 9.85 1.50 -0.07 -0.20 15385
0.07 -0.01 0.84 -5.64 10.12 1.50 -0.01 -0.19 15392
0.06 -0.01 1.03 -5.77 10.17 1.49 0.06 -0.19 15399
0.04 -0.00 1.30 -5.90 9.86 1.49 0.15 -0.21 15407
0.04 0.00 1.29 -5.98 9.64 1.47 0.23 -0.23 15414
0.04 -0.00 1.25 -6.02 10.37 1.45 0.28 -0.25 15421
0.04 -0.00 1.10 -6.00 10.03 1.43 0.32 -0.27 15428
0.03 -0.00 0.99 -6.02 10.04 1.41 0.33 -0.29 15435
0.02 -0.00 0.72 -6.20 9.96 1.36 0.29 -0.32 15442
0.03 -0.00 0.53 -6.34 9.75 1.32 0.22 -0.33 15450
0.03 0.00 0.52 -6.37 9.67 1.27 0.16 -0.36 15457
0.01 -0.00 0.47 -6.43 9.41 1.20 0.06 -0.38 15464
0.00 -0.00 0.43 -6.30 9.12 1.15 -0.05 -0.39 15471
0.00 -0.00 0.54 -5.97 8.78 1.11 -0.17 -0.40 15478
0.00 0.00 0.60 -5.84 8.43 1.08 -0.29 -0.42 15485
0.00 0.00 0.69 -5.44 7.53 1.05 -0.37 -0.43 15493
-0.00 0.00 0.98 -5.08 6.66 1.01 -0.44 -0.45 15500
0.00 0.00 1.22 -4.85 6.12 0.96 -0.48 -0.48 15507
0.00 -0.00 1.60 -4.92 5.73 0.91 -0.48 -0.51 15514
0.00 -0.00 1.69 -4.45 5.70 0.84 -0.43 -0.54 15521
0.00 0.00 1.72 -4.75 5.56 0.82 -0.36 -0.58 15528
0.00 0.00 1.50 -4.76 5.93 0.77 -0.28 -0.62 15536
0.00 -0.00 1.29 -4.54 6.19 0.73 -0.22 -0.64 15543
0.00 0.00 1.14 -4.45 6.36 0.67 -0.15 -0.66 15550
0.00 0.00 0.60 -2.31 6.83 0.59 -0.11 -0.67 15557
0.00 0.00 1.12 -2.62 6.50 0.43 -0.07 -0.68 15564
0.00 0.00 0.67 -0.36 6.90 0.25 -0.08 -0.66 15571
0.00 0.00 0.79 1.93 6.98 0.03 -0.06 -0.63 15579
0.00 -0.00 1.52 4.02 7.68 -0.31 -0.05 -0.56 15586
0.00 0.00 0.89 1.47 7.76 -0.72 -0.03 -0.46 15593
0.00 0.00 0.74 -0.26 8.53 -0.96 -0.06 -0.37 15600
0.00 0.00 0.72 -0.64 8.82 -1.11 -0.11 -0.29 15607
0.00 0.00 0.63 -0.42 8.41 -1.13 -0.14 -0.23 15614
0.00 0.00 0.67 -0.23 7.72 -1.09 -0.16 -0.19 15622
0.00 0.00 0.83 0.18 6.78 -1.09 -0.15 -0.14 15629
0.00 0.00 0.95 0.39 6.66 -1.13 -0.12 -0.10 15636
0.00 0.00 1.11 0.34 6.81 -1.21 -0.04 -0.07 15643
0.00 0.00 1.12 0.12 7.38 -1.30 0.05 -0.05 15650
0.00 0.00 0.99 -0.03 7.83 -1.38 0.15 -0.02 15657
0.00 0.00 0.80 -0.31 7.99 -1.44 0.23 0.00 15665
0.00 0.00 0.58 -0.60 7.97 -1.49 0.28 0.03 15672
0.00 0.00 0.36 -0.63 8.17 -1.53 0.30 0.06 15679
0.00 0.00 0.24 -0.74 8.50 -1.57 0.30 0.10 15686
0.00 0.00 0.18 -0.90 8.88 -1.61 0.29 0.14 15693
0.00 0.00 0.12 -1.43 9.09 -1.66 0.27 0.17 15700
0.00 0.00 -0.33 -5.57 8.26 -1.65 0.27 0.15 15708
0.00 0.00 -0.53 -5.12 10.25 -1.79 0.34 0.08 15715
0.00 0.00 -1.14 -2.51 10.24 -1.75 0.30 -0.06 15722
0.00 0.00 0.93 -8.13 9.75 -1.84 0.33 -0.14 15729
0.00 0.00 -0.13 3.07 9.52 -1.79 0.32 -0.25 15736
0.00 0.00 -1.93 -8.19 4.05 -1.94 0.31 -0.31 15744
0.00 0.00 0.53 -5.18 10.23 -1.96 0.29 -0.34 15751
0.00 0.00 0.26 -4.20 11.82 -1.93 0.27 -0.33 15758
0.00 0.00 0.04 -6.20 8.44 -1.90 0.20 -0.31 15765
0.00 0.00 0.17 -3.79 10.80 -1.83 0.18 -0.24 15772
0.00 0.00 -0.25 -6.43 7.61 -1.77 0.13 -0.20 15779
0.00 0.00 0.76 -5.35 10.40 -1.67 0.11 -0.15 15787
0.00 0.00 -0.17 -5.61 9.82 -1.56 0.11 -0.11 15794
0.00 0.00 0.78 -4.86 9.24 -1.49 0.15 -0.06 15801
0.00 0.00 -0.03 -5.14 11.51 -1.42 0.20 -0.03 15808
0.00 0.00 0.16 -3.39 9.90 -1.43 0.23 0.03 15815
0.00 0.00 -0.29 -4.33 11.86 -1.37 0.26 0.07 15822
0.00 0.00 -0.46 -3.98 11.74 -1.37 0.32 0.13 15830
0.00 0.00 0.38 -2.82 10.52 -1.34 0.33 0.19 15837
0.00 0.00 0.72 -2.69 9.86 -1.30 0.35 0.24 15844
0.00 0.00 0.61 -2.99 10.29 -1.28 0.39 0.28 15851
0.00 0.00 0.46 -2.91 10.65 -1.25 0.41 0.32 15858
0.00 0.00 0.69 -2.83 10.66 -1.24 0.46 0.36 15865
0.00 0.00 0.40 -2.61 10.43 -1.22 0.48 0.38 15873
0.00 -0.00 0.19 -2.35 10.67 -1.21 0.49 0.40 15880
0.00 0.00 0.15 -1.98 10.55 -1.21 0.49 0.43 15887
0.00 0.00 0.03 -1.82 10.37 -1.21 0.47 0.44 15894
0.00 0.00 -0.07 -1.75 10.34 -1.21 0.45 0.45 15901
0.00 0.00 -0.09 -1.77 10.38 -1.19 0.45 0.45 15908
0.00 0.00 -0.11 -1.76 10.21 -1.16 0.46 0.40 15916
0.00 0.00 -0.19 -1.94 10.19 -1.14 0.46 0.41 15923
0.00 0.00 -0.30 -2.05 10.24 -1.10 0.46 0.37 15930
0.00 0.00 -0.43 -2.17 10.27 -1.05 0.44 0.34 15937
0.00 0.00 -0.52 -2.21 10.44 -1.01 0.40 0.30 15944
0.00 0.00 -0.57 -2.18 10.74 -0.98 0.35 0.28 15951
0.00 0.00 -0.58 -2.09 11.01 -0.98 0.27 0.25 15959
0.00 0.00 -0.41 -1.92 11.12 -1.00 0.19 0.23 15966
0.00 0.00 -0.11 -1.91 11.20 -1.05 0.13 0.21 15973
0.00 0.00 0.39 -1.79 11.41 -1.13 0.12 0.18 15980
0.00 0.00 0.77 -1.74 11.25 -1.17 0.16 0.16 15987
0.00 0.00 0.98 -1.77 11.04 -1.23 0.23 0.15 15994
0.00 0.00 1.06 -1.89 10.72 -1.28 0.30 0.14 16002
0.00 0.00 0.98 -2.03 10.56 -1.30 0.33 0.13 16009
0.00 0.00 1.00 -2.30 10.38 -1.28 0.35 0.15 16016
0.00 0.00 0.97 -2.36 10.12 -1.25 0.36 0.17 16023
0.00 0.00 0.97 -2.40 9.83 -1.20 0.36 0.20 16030
0.00 0.00 0.80 -2.77 9.80 -1.16 0.33 0.22 16037
0.00 0.00 -1.17 -9.61 14.69 -0.96 0.08 0.17 16045
0.00 0.00 -1.06 -5.57 11.58 -0.38 -0.19 0.15 16052
0.00 0.00 0.29 -4.11 3.27 -0.30 -0.12 0.18 16059
0.00 0.00 -0.16 -6.90 9.81 -0.20 -0.13 0.18 16066
0.00 0.00 0.39 -8.98 9.50 -0.12 -0.18 0.16 16073
0.00 0.00 1.42 -7.91 8.75 -0.04 -0.17 0.12 16080
0.01 -0.00 0.22 -7.87 7.51 0.01 -0.16 0.09 16088
0.00 0.00 1.02 -9.73 5.31 0.05 -0.19 0.04 16095
-0.00 0.01 -0.75 -10.72 7.39 0.16 -0.29 0.03 16102
0.00 0.00 -0.94 -12.58 7.01 0.21 -0.33 0.04 16109
-0.00 0.02 -0.31 -13.55 5.36 0.41 -0.33 0.08 16116
-0.00 0.03 -1.84 -17.59 7.39 0.62 -0.24 0.16 16123
0.00 0.03 -4.91 -21.24 4.88 0.90 -0.49 0.25 16131
-0.00 0.01 -5.27 -17.71 14.86 1.40 -0.46 0.35 16139
-0.00 0.01 -3.40 -2.83 19.18 0.68 -0.52 0.12 16145
-0.01 0.06 0.33 -1.81 9.64 -0.16 0.06 -0.02 16152
-0.01 0.10 0.35 -1.18 9.58 -0.26 0.12 -0.01 16159
-0.01 0.13 -0.04 -0.90 9.77 -0.27 0.06 -0.07 16166
-0.02 0.15 0.91 -0.38 9.73 -0.14 0.03 -0.11 16174
-0.02 0.23 0.83 -0.41 9.83 -0.08 -0.01 -0.09 16181
-0.02 0.21 0.51 -0.83 10.06 -0.07 -0.00 -0.07 16188
-0.02 0.21 0.33 -0.94 10.02 -0.06 0.01 -0.07 16195
0.02 0.23 0.27 -0.91 10.00 -0.04 0.02 -0.07 16202
-0.01 0.23 0.29 -0.83 9.81 -0.03 0.04 -0.07 16209
0.00 0.24 0.42 -0.83 9.85 -0.03 0.04 -0.06 16217
0.02 0.23 0.47 -0.90 9.88 -0.02 0.04 -0.06 16224
0.02 0.24 0.46 -0.91 9.86 -0.02 0.04 -0.06 16231
0.02 0.22 0.44 -0.83 9.83 -0.02 0.02 -0.06 16238
0.02 0.22 0.47 -0.82 9.78 -0.02 0.03 -0.06 16245
0.03 0.20 0.43 -0.85 9.81 -0.02 0.02 -0.07 16252
0.03 0.23 0.40 -0.83 9.79 -0.03 0.02 -0.07 16260
0.02 0.25 0.37 -0.82 9.81 -0.03 0.03 -0.06 16267
0.00 0.24 0.40 -0.81 9.79 -0.03 0.04 -0.06 16274
0.03 0.25 0.37 -0.84 9.78 -0.03 0.05 -0.06 16281
0.03 0.28 0.37 -0.83 9.87 -0.03 0.05 -0.06 16288
0.04 0.30 0.38 -0.80 9.81 -0.03 0.05 -0.06 16295
0.01 0.31 0.40 -0.80 9.83 -0.03 0.05 -0.06 16303
0.03 0.32 0.40 -0.79 9.81 -0.02 0.05 -0.06 16310
0.02 0.31 0.38 -0.82 9.81 -0.02 0.06 -0.06 16317
0.03 0.31 0.39 -0.80 9.76 -0.02 0.05 -0.06 16324
0.03 0.35 0.40 -0.80 9.79 -0.02 0.05 -0.06 16331
0.04 0.33 0.40 -0.82 9.81 -0.02 0.05 -0.06 16338
0.03 0.33 0.40 -0.80 9.73 -0.02 0.05 -0.06 16346
0.03 0.33 0.45 -0.85 9.83 -0.02 0.05 -0.06 16353
0.02 0.35 0.41 -0.81 9.79 -0.02 0.04 -0.06 16360
0.03 0.31 0.40 -0.78 9.80 -0.02 0.04 -0.06 16367
0.04 0.37 0.38 -0.77 9.78 -0.02 0.04 -0.06 16374
0.04 0.35 0.42 -0.77 9.77 -0.03 0.04 -0.06 16381
0.03 0.34 0.39 -0.78 9.83 -0.02 0.04 -0.06 16389
0.02 0.36 0.42 -0.80 9.79 -0.02 0.04 -0.06 16396
0.02 0.39 0.37 -0.77 9.80 -0.02 0.04 -0.06 16403
0.04 0.39 0.37 -0.77 9.80 -0.03 0.04 -0.06 16410
0.05 0.41 0.41 -0.79 9.82 -0.02 0.04 -0.06 16417
0.05 0.42 0.37 -0.78 9.80 -0.02 0.04 -0.06 16424
0.04 0.44 0.39 -0.74 9.80 -0.02 0.04 -0.06 16432
0.04 0.43 0.43 -0.78 9.81 -0.02 0.04 -0.06 16439
0.03 0.46 0.40 -0.79 9.81 -0.02 0.04 -0.06 16446
0.04 0.48 0.42 -0.76 9.79 -0.02 0.03 -0.06 16453
0.05 0.51 0.41 -0.75 9.81 -0.02 0.03 -0.06 16460
0.05 0.51 0.39 -0.74 9.82 -0.02 0.03 -0.07 16467
0.05 0.52 0.38 -0.78 9.82 -0.02 0.03 -0.06 16475
0.05 0.49 0.40 -0.80 9.86 -0.02 0.02 -0.06 16482
0.04 0.52 0.42 -0.79 9.83 -0.02 0.02 -0.07 16489
0.04 0.52 0.40 -0.79 9.81 -0.02 0.02 -0.07 16496
0.06 0.50 0.42 -0.78 9.83 -0.02 0.02 -0.07 16503
0.05 0.50 0.38 -0.78 9.80 -0.02 0.01 -0.07 16510
0.04 0.51 0.39 -0.77 9.78 -0.02 0.01 -0.08 16518
0.04 0.49 0.34 -0.76 9.78 -0.01 0.01 -0.08 16525
0.04 0.51 0.42 -0.75 9.84 -0.02 0.01 -0.07 16532
0.04 0.55 0.38 -0.77 9.82 -0.01 0.01 -0.08 16539
0.03 0.55 0.39 -0.77 9.82 -0.01 0.01 -0.08 16546
0.01 0.54 0.31 -0.78 9.77 -0.01 0.01 -0.08 16553
0.01 0.53 0.34 -0.76 9.83 -0.01 0.02 -0.08 16561
-0.01 0.52 0.33 -0.75 9.81 -0.01 0.02 -0.08 16568
0.02 0.52 0.38 -0.76 9.81 -0.01 0.02 -0.08 16575
0.02 0.52 0.37 -0.79 9.81 -0.01 0.02 -0.07 16582
0.01 0.53 0.37 -0.77 9.81 -0.01 0.02 -0.08 16589
0.02 0.51 0.38 -0.79 9.83 -0.01 0.03 -0.08 16596
0.02 0.49 0.37 -0.76 9.82 -0.01 0.03 -0.08 16604
0.01 0.49 0.38 -0.77 9.82 -0.01 0.03 -0.08 16611
0.02 0.50 0.37 -0.76 9.80 -0.01 0.03 -0.08 16618
0.02 0.51 0.33 -0.75 9.80 -0.01 0.03 -0.08 16625
0.03 0.51 0.36 -0.80 9.77 -0.01 0.03 -0.08 16632
0.02 0.52 0.35 -0.75 9.82 -0.01 0.03 -0.07 16640
0.02 0.51 0.31 -0.79 9.77 -0.00 0.03 -0.07 16647
0.02 0.52 0.37 -0.78 9.82 -0.01 0.03 -0.07 16654
0.02 0.53 0.36 -0.79 9.82 -0.01 0.04 -0.07 16661
0.03 0.52 0.36 -0.79 9.80 -0.00 0.03 -0.07 16668
0.02 0.50 0.36 -0.80 9.20 -0.00 0.03 -0.08 16675
0.03 0.50 0.42 -0.78 9.82 -0.00 0.03 -0.08 16683
0.02 0.48 0.33 -0.76 9.82 -0.00 0.04 -0.08 16690
0.02 0.48 0.40 -0.78 9.79 0.00 0.03 -0.07 16697
0.03 0.48 0.38 -0.74 9.81 -0.00 0.03 -0.08 16704
0.05 0.47 0.36 -0.75 9.84 -0.01 0.04 -0.08 16711
0.04 0.47 0.38 -0.78 9.81 -0.00 0.04 -0.08 16718
0.03 0.46 0.35 -0.79 9.82 -0.01 0.04 -0.07 16726
0.03 0.46 0.36 -0.78 9.80 -0.00 0.04 -0.08 16733
0.04 0.45 0.33 -0.78 9.83 -0.00 0.05 -0.08 16740
0.05 0.44 0.33 -0.79 9.82 -0.00 0.05 -0.08 16747
0.06 0.42 0.36 -0.77 9.83 0.00 0.05 -0.08 16754
0.06 0.42 0.36 -0.77 9.81 -0.00 0.05 -0.07 16761
0.05 0.41 0.33 -0.79 9.21 0.00 0.05 -0.08 16769
0.04 0.41 0.33 -0.78 9.78 -0.00 0.06 -0.08 16776
0.05 0.43 0.35 -0.77 9.82 0.00 0.06 -0.07 16783
0.04 0.44 0.36 -0.77 9.80 -0.00 0.06 -0.07 16790
0.05 0.41 0.34 -0.80 9.81 -0.00 0.06 -0.07 16797
0.05 0.40 0.38 -0.74 10.42 0.00 0.06 -0.07 16804
0.05 0.41 0.40 -0.79 9.79 0.00 0.06 -0.07 16812
0.05 0.42 0.38 -0.80 9.78 -0.00 0.06 -0.07 16819
0.05 0.40 0.38 -0.79 9.82 -0.00 0.06 -0.07 16826
0.05 0.38 0.42 -0.80 9.82 0.00 0.06 -0.07 16833
0.06 0.38 0.37 -0.75 9.79 -0.00 0.06 -0.08 16840
0.07 0.37 0.40 -0.77 9.81 0.00 0.05 -0.08 16847
0.07 0.36 0.42 -0.80 9.84 0.00 0.06 -0.07 16855
0.06 0.35 0.38 -0.80 9.82 0.00 0.05 -0.07 16862
0.09 0.37 0.37 -0.79 9.81 0.00 0.05 -0.08 16869
0.10 0.35 0.37 -0.79 9.84 0.01 0.05 -0.08 16876
0.11 0.29 0.39 -0.76 9.78 0.01 0.05 -0.08 16883
0.10 0.29 0.38 -0.80 9.86 0.00 0.05 -0.08 16890
0.11 0.29 0.41 -0.79 9.82 0.01 0.05 -0.08 16898
0.12 0.26 0.39 -0.79 9.81 0.01 0.05 -0.07 16905
0.14 0.26 0.40 -0.77 9.80 0.00 0.05 -0.08 16912
0.15 0.22 0.41 -0.78 9.82 0.01 0.05 -0.08 16919
0.15 0.23 0.43 -0.81 9.82 0.01 0.05 -0.08 16926
0.14 0.22 0.39 -0.82 9.80 0.01 0.05 -0.08 16933
0.14 0.18 0.40 -0.82 9.82 0.00 0.05 -0.08 16941
0.15 0.18 0.38 -0.81 9.80 0.01 0.05 -0.08 16948
0.15 0.20 0.42 -0.78 9.80 0.01 0.05 -0.08 16955
0.16 0.19 0.43 -0.79 9.81 0.00 0.05 -0.08 16962
0.17 0.20 0.39 -0.82 9.80 0.01 0.05 -0.08 16969
0.17 0.19 0.43 -0.83 9.81 0.00 0.05 -0.08 16976
0.16 0.17 0.41 -0.82 9.80 0.01 0.05 -0.08 16984
0.15 0.19 0.43 -0.83 9.82 0.01 0.05 -0.08 16991
0.18 0.20 0.38 -0.82 9.82 0.01 0.05 -0.09 16998
0.18 0.18 0.41 -0.84 9.79 0.01 0.05 -0.08 17005
0.18 0.17 0.45 -0.81 9.82 0.02 0.04 -0.09 17012
0.20 0.13 0.36 -0.84 9.83 0.01 0.04 -0.09 17019
0.22 0.11 0.40 -0.85 9.81 0.01 0.05 -0.09 17027
0.24 0.08 0.42 -0.83 9.79 0.02 0.05 -0.08 17034
0.27 0.05 0.42 -0.82 9.82 0.01 0.04 -0.09 17041
0.28 0.05 0.42 -0.88 9.82 0.01 0.05 -0.08 17048
0.28 0.01 0.42 -0.85 9.81 0.01 0.05 -0.08 17055
0.28 0.01 0.44 -0.87 9.80 0.00 0.05 -0.09 17062
0.28 0.02 0.44 -0.84 9.80 0.01 0.05 -0.09 17070
0.30 0.04 0.38 -0.83 9.81 0.01 0.05 -0.09 17077
0.32 0.06 0.42 -0.85 9.80 0.01 0.05 -0.09 17084
0.30 0.05 0.41 -0.86 9.79 0.01 0.05 -0.09 17091
0.30 0.00 0.40 -0.85 9.82 0.01 0.05 -0.08 17098
0.30 0.00 0.44 -0.86 9.80 0.01 0.05 -0.09 17105
0.30 0.01 0.42 -0.86 9.82 0.01 0.05 -0.08 17113
0.31 0.01 0.39 -0.86 9.80 0.01 0.06 -0.09 17120
0.32 0.02 0.42 -0.86 9.81 0.01 0.06 -0.09 17127
0.32 0.00 0.46 -0.84 9.82 0.01 0.06 -0.09 17134
0.32 -0.01 0.46 -0.86 9.81 0.01 0.06 -0.08 17141
0.31 -0.00 0.44 -0.88 9.82 0.01 0.06 -0.09 17148
0.32 0.00 0.44 -0.84 9.20 0.01 0.06 -0.09 17156
0.33 0.01 0.43 -0.88 9.82 0.01 0.06 -0.09 17163
0.35 -0.01 0.43 -0.83 9.80 0.01 0.06 -0.08 17170
0.35 -0.02 0.46 -0.87 9.81 0.01 0.06 -0.08 17177
0.34 -0.02 0.45 -0.87 9.81 0.02 0.06 -0.08 17184
0.33 -0.00 0.45 -0.86 9.79 0.02 0.06 -0.08 17191
0.35 -0.02 0.44 -0.85 9.81 0.02 0.06 -0.09 17199
0.36 0.00 0.44 -0.88 9.80 0.02 0.06 -0.08 17206
0.36 -0.02 0.46 -0.88 9.82 0.03 0.06 -0.08 17213
0.36 -0.00 0.46 -0.84 9.83 0.03 0.06 -0.08 17220
0.37 -0.02 0.45 -0.88 9.82 0.03 0.07 -0.08 17227
0.34 -0.00 0.48 -0.87 9.82 0.03 0.07 -0.08 17234
0.35 -0.02 0.46 -0.84 9.81 0.03 0.07 -0.09 17242
0.36 -0.02 0.44 -0.90 9.81 0.04 0.08 -0.08 17249
0.38 -0.01 0.46 -0.89 9.82 0.04 0.08 -0.08 17256
0.38 -0.03 0.45 -0.90 9.82 0.05 0.08 -0.09 17263
0.39 -0.03 0.44 -0.88 9.82 0.05 0.09 -0.08 17270
0.38 -0.02 0.48 -0.89 9.82 0.06 0.09 -0.08 17277
0.38 -0.01 0.48 -0.91 9.82 0.07 0.09 -0.09 17285
0.38 -0.01 0.48 -0.90 9.81 0.07 0.10 -0.09 17292
0.37 -0.02 0.47 -0.91 9.79 0.07 0.10 -0.08 17299
0.38 -0.01 0.50 -0.94 9.81 0.08 0.11 -0.08 17306
0.37 -0.02 0.49 -0.91 9.81 0.08 0.12 -0.08 17313
0.38 -0.01 0.51 -0.93 9.82 0.10 0.13 -0.08 17320
0.40 -0.02 0.52 -0.95 9.83 0.12 0.14 -0.08 17328
0.41 -0.02 0.50 -1.01 9.84 0.13 0.15 -0.08 17335
0.39 -0.02 0.49 -0.97 9.86 0.15 0.17 -0.09 17342
0.39 -0.03 0.55 -0.98 9.92 0.17 0.19 -0.09 17349
0.38 -0.02 0.56 -0.97 9.89 0.21 0.21 -0.09 17356
0.39 -0.02 0.53 -1.00 9.88 0.24 0.22 -0.08 17363
0.40 -0.02 0.00 -1.02 9.97 0.27 0.24 -0.08 17371
0.41 -0.02 0.55 -1.05 9.94 0.31 0.25 -0.09 17378
0.40 -0.03 0.62 -1.10 10.05 0.36 0.26 -0.08 17385
0.40 -0.03 0.58 -1.05 10.21 0.42 0.26 -0.08 17392
0.40 -0.02 0.71 -1.18 10.34 0.51 0.26 -0.09 17400
0.41 -0.02 0.68 -1.19 10.45 0.59 0.27 -0.10 17408
0.42 -0.01 0.79 -1.28 10.45 0.68 0.26 -0.10 17415
0.43 -0.02 0.76 -1.29 10.45 0.74 0.23 -0.12 17422
0.41 -0.02 0.69 -1.39 10.44 0.76 0.20 -0.12 17429
0.41 -0.03 0.72 -1.43 10.42 0.79 0.15 -0.13 17436
0.39 -0.02 0.76 -1.46 10.40 0.81 0.10 -0.13 17443
0.38 -0.02 0.71 -1.59 10.43 0.84 0.06 -0.13 17451
0.37 -0.01 0.65 -1.60 10.32 0.86 0.04 -0.13 17458
0.37 -0.02 0.64 -1.69 10.22 0.88 0.01 -0.13 17465
0.35 -0.02 0.71 -1.75 10.26 0.90 -0.02 -0.12 17472
0.33 -0.02 0.63 -1.87 10.12 0.92 -0.05 -0.12 17479
0.30 -0.02 0.73 -1.94 10.08 0.93 -0.07 -0.12 17486
0.30 -0.01 0.71 -2.00 9.94 0.95 -0.08 -0.12 17492
0.29 -0.02 0.67 -2.05 9.71 0.98 -0.10 -0.12 17500
0.26 -0.02 0.77 -2.09 9.74 0.98 -0.11 -0.13 17507
0.23 -0.02 0.82 -2.27 9.87 0.99 -0.13 -0.14 17514
0.21 -0.02 0.72 -2.27 9.94 1.01 -0.14 -0.14 17521
0.20 -0.02 0.62 -2.42 10.04 1.04 -0.14 -0.15 17529
0.18 -0.01 0.68 -2.52 9.88 1.07 -0.13 -0.15 17536
0.18 -0.02 0.61 -2.54 9.81 1.08 -0.13 -0.15 17543
0.19 -0.01 0.58 -2.76 9.68 1.09 -0.17 -0.15 17550
0.17 -0.02 0.68 -2.79 9.81 1.11 -0.13 -0.16 17557
0.17 -0.02 0.64 -2.88 10.25 1.16 -0.13 -0.16 17564
0.14 -0.01 0.55 -2.97 10.11 1.19 -0.15 -0.17 17572
0.12 -0.01 0.80 -3.04 9.97 1.23 -0.15 -0.18 17579
0.12 -0.01 0.75 -3.19 10.10 1.27 -0.18 -0.19 17586
0.11 -0.01 0.71 -3.30 10.11 1.31 -0.20 -0.21 17593
0.10 -0.01 0.71 -3.40 10.42 1.36 -0.22 -0.22 17600
0.08 -0.01 0.58 -3.56 10.35 1.40 -0.26 -0.23 17607
0.04 -0.00 0.50 -3.63 10.47 1.47 -0.25 -0.23 17614
0.03 -0.00 0.48 -3.77 10.60 1.54 -0.24 -0.24 17622
0.04 -0.00 0.41 -4.00 10.84 1.60 -0.21 -0.23 17629
0.04 -0.00 0.45 -4.12 11.00 1.67 -0.17 -0.23 17636
0.08 -0.01 0.56 -4.37 11.14 1.72 -0.10 -0.23 17643
0.03 -0.00 0.73 -4.47 10.95 1.77 -0.04 -0.23 17650
0.03 -0.00 0.74 -4.60 10.55 1.77 0.01 -0.24 17657
0.03 -0.00 1.04 -4.73 10.44 1.76 0.08 -0.25 17665
0.06 -0.01 1.00 -4.90 10.61 1.74 0.14 -0.27 17672
0.07 -0.01 0.85 -5.01 10.65 1.67 0.20 -0.28 17679
0.06 -0.01 0.86 -5.05 10.57 1.68 0.20 -0.30 17686
0.07 -0.01 0.66 -5.10 10.59 1.64 0.18 -0.32 17693
0.05 -0.00 0.67 -5.22 10.39 1.62 0.14 -0.34 17701
0.06 -0.01 0.70 -5.31 10.72 1.59 0.11 -0.36 17708
0.07 -0.01 0.77 -5.42 11.46 1.55 0.06 -0.38 17715
