Voltage_01 Voltage_02 Acc_x Acc_y Acc_z Gyro_x Gyro_y Gyro_z Time
5000
0.05 -0.00 1.56 -4.06 9.93 -0.43 1.31 1.36 23
0.05 -0.01 1.51 -4.09 10.23 -0.41 1.35 1.42 29
0.05 -0.01 1.43 -4.05 10.47 -0.42 1.38 1.48 35
0.05 -0.01 1.27 -3.99 10.59 -0.45 1.38 1.54 41
0.04 -0.00 1.16 -3.99 10.65 -0.48 1.33 1.58 48
0.04 -0.00 1.11 -4.02 10.72 -0.52 1.24 1.62 54
0.05 -0.00 1.04 -4.08 10.99 -0.55 1.17 1.64 60
0.06 -0.01 0.99 -4.03 10.97 -0.60 1.08 1.67 66
0.04 -0.00 0.80 -3.94 10.78 -0.64 0.97 1.69 72
0.04 -0.00 0.72 -3.92 10.52 -0.67 0.86 1.71 78
0.05 -0.01 0.74 -4.01 10.11 -0.69 0.75 1.71 84
0.06 -0.01 0.73 -4.01 9.86 -0.67 0.69 1.67 91
0.06 -0.00 0.71 -4.16 9.67 -0.63 0.63 1.69 97
0.07 -0.01 0.80 -4.25 9.38 -0.57 0.59 1.65 103
0.06 -0.01 0.81 -4.28 9.27 -0.50 0.59 1.61 109
0.06 -0.01 0.87 -4.27 9.46 -0.43 0.60 1.55 115
0.06 -0.01 1.06 -4.28 9.73 -0.37 0.65 1.49 121
0.06 -0.01 1.24 -4.17 10.09 -0.34 0.74 1.42 129
0.07 -0.01 1.42 -4.05 10.37 -0.33 0.85 1.34 135
0.06 -0.01 1.53 -3.92 10.70 -0.37 0.97 1.25 141
0.06 -0.01 1.61 -3.98 10.73 -0.41 1.10 1.17 147
0.05 -0.01 1.63 -4.05 10.60 -0.48 1.14 1.07 153
0.06 -0.01 1.49 -4.30 10.42 -0.54 1.15 0.99 159
0.05 -0.00 1.33 -4.68 10.06 -0.58 1.12 0.89 165
0.05 -0.01 1.29 -4.96 9.71 -0.59 1.04 0.79 172
0.06 -0.01 1.35 -5.14 9.30 -0.57 0.91 0.69 178
0.06 -0.01 1.45 -5.18 8.99 -0.51 0.79 0.59 184
0.04 -0.00 1.72 -5.19 8.82 -0.44 0.67 0.52 190
0.05 -0.00 2.20 -5.06 8.78 -0.36 0.60 0.46 196
0.04 -0.00 2.72 -4.95 8.94 -0.30 0.60 0.41 202
0.04 -0.00 3.18 -4.79 9.27 -0.27 0.66 0.38 208
0.05 -0.01 3.34 -4.66 9.58 -0.25 0.76 0.38 216
0.05 -0.00 3.50 -4.65 9.95 -0.24 0.91 0.38 222
0.05 -0.00 3.66 -4.76 10.41 -0.26 1.06 0.40 228
0.03 -0.00 3.75 -4.80 10.62 -0.30 1.18 0.44 234
0.04 0.01 3.59 -4.76 10.56 -0.35 1.28 0.49 240
0.05 -0.00 3.31 -4.82 10.34 -0.41 1.35 0.56 246
0.05 -0.00 2.89 -4.87 10.03 -0.45 1.42 0.66 252
0.04 -0.00 2.35 -4.91 9.79 -0.45 1.46 0.78 259
0.05 -0.00 1.78 -5.05 9.21 -0.41 1.45 0.93 265
0.06 -0.01 1.24 -5.02 8.65 -0.33 1.41 1.07 271
0.05 -0.01 0.76 -4.94 8.27 -0.24 1.40 1.21 277
0.05 -0.00 -9.09 -3.03 6.20 -0.34 -0.13 0.84 283
0.04 -0.00 -5.94 -2.36 8.52 -0.21 -0.75 0.90 289
0.05 -0.00 -5.84 -4.85 9.25 -0.32 -1.07 0.98 296
0.05 -0.01 -8.86 -6.12 11.32 -0.38 -1.24 0.76 303
0.04 -0.00 -8.14 -5.57 12.07 -0.41 -1.41 0.35 309
0.04 -0.00 -12.74 -6.59 12.89 -0.49 -1.28 -0.11 315
0.05 0.00 -14.22 -7.02 13.42 -0.56 -1.15 -0.70 321
0.05 -0.01 -14.83 -9.58 13.59 -0.64 -0.75 -1.33 327
0.04 -0.00 -45.44 -16.36 12.71 -0.30 0.23 -1.51 334
0.06 -0.00 -1.73 -3.38 3.06 0.04 -0.04 -1.39 340
0.05 -0.01 -5.07 -1.00 8.59 -0.29 0.32 -1.35 347
0.05 -0.01 -5.79 -0.55 12.60 -0.39 0.22 -0.80 353
0.05 -0.00 -0.73 -0.00 10.50 -0.19 -0.07 -0.14 359
0.04 0.00 -0.06 -0.78 8.06 -0.29 0.03 0.05 365
0.07 -0.01 0.67 -0.58 10.05 -0.40 0.10 0.12 371
0.06 0.02 1.09 -1.36 9.52 -0.22 -0.09 0.08 377
0.05 0.04 0.30 -0.76 9.98 -0.25 -0.09 0.05 384
0.05 0.11 0.72 -1.01 11.11 -0.28 -0.11 0.06 390
0.06 0.16 0.98 -0.92 10.35 -0.19 -0.03 0.07 396
0.05 0.37 0.74 -1.12 10.03 -0.15 0.02 0.09 403
0.04 0.39 0.77 -0.93 10.32 -0.12 0.04 0.10 409
0.04 0.58 0.65 -0.79 10.11 -0.09 0.02 0.09 415
0.07 0.62 0.73 -0.54 10.03 -0.06 0.00 0.09 421
0.08 0.65 0.06 -0.14 10.67 -0.05 0.00 0.11 428
0.04 0.68 0.73 -0.77 10.03 -0.04 -0.02 0.09 434
0.06 0.72 0.63 -0.84 10.06 -0.03 -0.02 0.08 440
0.06 0.75 0.60 -0.86 10.01 -0.02 -0.02 0.08 446
0.05 0.74 1.19 -0.85 10.00 -0.03 -0.02 0.09 453
0.06 0.76 0.59 -0.88 9.95 -0.02 -0.02 0.08 459
0.08 0.79 0.63 -0.87 9.94 -0.03 -0.02 0.08 465
0.07 0.76 0.66 -0.82 9.90 -0.03 -0.02 0.08 472
0.07 0.81 0.66 -0.81 9.88 -0.03 -0.03 0.08 478
0.07 0.85 0.63 -0.78 9.94 -0.04 -0.03 0.08 484
0.07 0.90 0.57 -0.83 9.87 -0.04 -0.00 0.07 490
0.06 0.88 0.63 -0.74 10.41 -0.04 -0.04 0.07 496
0.08 0.88 0.56 -0.77 10.01 -0.04 -0.03 0.08 502
0.06 0.88 0.57 -0.78 10.04 -0.03 -0.03 0.09 509
0.08 0.89 0.64 -0.78 10.00 -0.03 -0.03 0.09 516
0.09 0.89 0.60 -0.78 9.95 -0.03 -0.03 0.10 522
0.09 0.89 0.59 -0.76 9.93 -0.02 -0.03 0.10 528
0.09 0.90 0.62 -0.76 9.91 -0.02 -0.03 0.10 534
0.09 0.91 0.59 -0.75 9.93 -0.02 -0.03 0.10 540
0.11 0.90 0.60 -0.76 9.96 -0.02 -0.03 0.10 546
0.12 0.90 0.64 -0.75 9.96 -0.01 -0.03 0.10 552
0.12 0.90 0.63 -0.71 9.98 -0.01 -0.03 0.10 559
0.13 0.91 0.59 -0.77 9.93 -0.01 -0.03 0.10 565
0.13 0.89 0.63 -0.75 9.91 -0.01 -0.03 0.10 571
0.12 0.90 0.62 -0.75 9.94 -0.01 -0.03 0.10 578
0.11 0.91 0.61 -0.77 9.95 -0.02 -0.03 0.10 584
0.12 0.92 0.61 -0.75 9.99 -0.02 -0.03 0.10 590
0.12 0.91 0.60 -0.75 9.97 -0.01 -0.03 0.10 596
0.12 0.92 1.19 -0.76 9.93 -0.02 -0.03 0.10 603
0.11 0.92 0.56 -0.79 9.98 -0.02 -0.03 0.10 609
0.11 0.92 0.58 -0.81 9.92 -0.02 -0.03 0.11 615
0.13 0.91 0.60 -0.71 9.95 -0.02 -0.02 0.11 621
0.13 0.90 0.59 -0.72 9.96 -0.02 -0.02 0.11 627
0.13 0.90 0.63 -0.73 9.97 -0.01 -0.02 0.12 633
0.12 0.91 1.20 -0.75 9.94 -0.01 -0.01 0.12 640
0.13 0.88 0.57 -0.73 9.94 -0.01 -0.01 0.11 647
0.14 0.86 0.59 -0.74 9.92 -0.01 -0.01 0.11 653
0.13 0.85 0.60 -0.73 9.94 -0.01 -0.01 0.11 659
0.13 0.85 0.61 -0.73 9.93 -0.01 -0.01 0.12 665
0.16 0.83 0.62 -0.74 9.94 -0.00 -0.01 0.11 671
0.15 0.83 0.58 -0.72 9.91 0.00 -0.01 0.11 677
0.15 0.84 0.60 -0.74 10.01 -0.00 -0.00 0.12 684
0.16 0.85 0.63 -0.75 9.93 -0.01 -0.00 0.12 690
0.16 0.87 0.62 -0.77 9.96 -0.00 0.00 0.11 696
0.16 0.87 0.65 -0.73 9.97 -0.00 0.00 0.13 702
0.17 0.87 0.62 -0.73 9.91 0.00 0.01 0.13 708
0.15 0.92 0.61 -0.74 9.94 -0.00 0.01 0.13 715
0.16 0.92 0.59 -0.74 9.94 0.00 0.01 0.13 721
0.17 0.90 0.61 -0.75 9.91 -0.00 0.02 0.13 728
0.16 0.91 0.61 -0.72 9.94 0.00 0.03 0.13 734
0.15 0.90 0.65 -0.73 9.92 0.00 0.04 0.14 740
0.15 0.91 0.64 -0.71 9.95 0.01 0.05 0.14 746
0.16 0.91 0.69 -0.73 9.90 0.01 0.05 0.14 752
0.14 0.91 0.62 -0.69 9.90 0.01 0.06 0.15 758
0.11 0.89 0.69 -0.77 9.92 0.01 0.06 0.15 764
0.13 0.88 0.69 -0.77 9.95 0.01 0.05 0.15 771
0.12 0.86 0.68 -0.73 9.91 0.01 0.05 0.14 777
0.11 0.84 0.71 -0.74 9.95 0.00 0.04 0.14 783
0.11 0.82 0.73 -0.75 9.89 0.00 0.04 0.14 790
0.10 0.81 0.74 -0.73 9.94 0.00 0.03 0.14 796
0.10 0.79 0.73 -0.75 9.91 0.00 0.03 0.14 802
0.12 0.77 0.72 -0.74 9.94 0.00 0.02 0.13 808
0.12 0.76 0.70 -0.75 9.94 -0.00 0.02 0.12 815
0.12 0.75 0.74 -0.79 9.95 -0.00 0.01 0.12 821
0.12 0.75 0.76 -0.74 9.90 0.00 0.00 0.12 827
0.12 0.77 0.74 -0.74 9.91 -0.00 -0.01 0.12 833
0.12 0.76 0.76 -0.75 9.91 0.00 -0.02 0.12 839
0.13 0.75 0.73 -0.74 9.90 -0.01 -0.02 0.11 845
0.13 0.75 0.77 -0.76 9.92 -0.00 -0.03 0.10 851
0.13 0.77 0.73 -0.77 9.97 -0.00 -0.04 0.09 858
0.13 0.77 0.75 -0.76 9.96 -0.00 -0.04 0.10 865
0.13 0.77 0.75 -0.79 9.91 -0.01 -0.05 0.10 871
0.11 0.78 0.75 -0.78 9.92 -0.01 -0.06 0.10 877
0.11 0.80 0.74 -0.78 9.91 -0.01 -0.06 0.10 883
0.13 0.80 0.74 -0.77 9.93 -0.01 -0.07 0.10 889
0.12 0.80 0.75 -0.73 9.93 -0.01 -0.07 0.09 896
0.10 0.81 0.72 -0.74 9.96 -0.01 -0.07 0.09 902
0.12 0.82 0.71 -0.76 9.91 -0.01 -0.07 0.10 908
0.13 0.84 0.74 -0.75 9.95 -0.01 -0.07 0.10 914
0.12 0.83 0.69 -0.74 9.91 -0.01 -0.07 0.09 920
0.12 0.83 0.70 -0.76 9.90 -0.01 -0.07 0.10 926
0.12 0.84 0.73 -0.78 9.91 -0.01 -0.06 0.09 933
0.13 0.85 0.75 -0.73 9.90 -0.01 -0.06 0.09 940
0.11 0.87 0.69 -0.75 9.92 -0.01 -0.05 0.09 946
0.11 0.85 0.71 -0.75 9.92 -0.01 -0.04 0.10 952
0.11 0.86 0.69 -0.75 9.93 -0.01 -0.04 0.09 958
0.12 0.87 0.71 -0.73 9.97 -0.01 -0.03 0.09 964
0.12 0.86 0.76 -0.74 9.91 -0.01 -0.03 0.10 970
0.12 0.84 0.72 -0.73 9.97 -0.00 -0.02 0.09 976
0.12 0.86 0.70 -0.73 9.93 -0.00 -0.02 0.08 983
0.12 0.87 0.71 -0.76 9.93 -0.00 -0.02 0.09 989
0.12 0.86 0.71 -0.77 9.92 0.03 -0.02 0.09 995
0.11 0.84 0.73 -0.74 9.93 0.00 -0.02 0.09 1002
0.11 0.83 0.74 -0.76 9.90 0.00 -0.02 0.09 1008
0.11 0.82 0.73 -0.73 9.89 -0.00 -0.01 0.09 1014
0.12 0.79 0.74 -0.76 9.90 0.00 -0.01 0.10 1020
0.11 0.78 0.75 -0.75 9.93 -0.00 -0.01 0.09 1027
0.10 0.75 0.74 -0.75 9.92 -0.00 -0.01 0.09 1033
0.12 0.75 0.77 -0.72 9.91 -0.03 -0.00 0.09 1039
0.11 0.72 0.74 -0.74 9.92 -0.00 -0.01 0.09 1046
0.10 0.71 0.72 -0.71 9.98 -0.00 -0.00 0.09 1052
0.10 0.72 0.78 -0.72 9.90 -0.00 -0.00 0.09 1058
0.11 0.68 0.75 -0.74 9.91 -0.00 -0.00 0.08 1064
0.11 0.63 0.79 -0.79 9.93 0.00 -0.00 0.09 1071
0.10 0.58 0.74 -0.79 9.92 0.00 -0.00 0.09 1077
0.12 0.56 0.80 -0.76 9.93 -0.00 0.00 0.09 1083
0.11 0.56 0.75 -0.81 9.93 -0.00 -0.00 0.09 1089
0.10 0.51 0.79 -0.76 9.94 -0.00 0.00 0.09 1096
0.11 0.53 0.79 -0.76 9.89 -0.00 -0.00 0.09 1102
0.11 0.47 0.78 -0.78 9.94 0.00 -0.00 0.08 1108
0.09 0.46 0.81 -0.76 9.94 -0.00 0.00 0.09 1115
0.08 0.43 0.80 -0.74 9.95 -0.00 0.00 0.08 1121
0.08 0.47 0.75 -0.78 9.96 -0.00 0.00 0.08 1127
0.09 0.42 0.81 -0.75 9.92 0.00 0.00 0.09 1133
0.08 0.37 0.79 -0.78 9.91 0.00 0.00 0.09 1139
0.07 0.37 0.82 -0.77 9.92 0.01 0.00 0.09 1146
0.09 0.32 0.81 -0.79 9.92 0.00 0.00 0.09 1153
0.08 0.30 0.81 -0.76 9.91 0.00 -0.00 0.08 1159
0.08 0.28 0.79 -0.78 9.96 0.00 0.00 0.09 1165
0.09 0.23 0.80 -0.81 9.94 0.00 -0.00 0.09 1171
0.09 0.28 0.81 -0.79 9.94 -0.00 -0.00 0.08 1177
0.08 0.23 0.82 -0.76 9.92 -0.00 -0.00 0.09 1183
0.09 0.23 0.83 -0.78 9.96 -0.00 -0.00 0.08 1189
0.09 0.23 0.82 -0.77 9.93 0.00 -0.00 0.08 1196
0.11 0.20 0.83 -0.78 9.92 -0.00 -0.00 0.08 1203
0.10 0.23 0.78 -0.81 9.97 0.00 -0.00 0.09 1209
0.09 0.22 0.85 -0.78 9.92 0.00 -0.00 0.08 1215
0.11 0.20 0.83 -0.80 9.96 -0.00 -0.01 0.08 1221
0.11 0.18 0.80 -0.78 9.90 0.00 -0.01 0.08 1227
0.11 0.16 0.88 -0.76 9.91 0.00 -0.01 0.08 1233
0.10 0.15 1.71 -0.53 9.93 -0.03 -0.02 0.07 1240
0.11 0.17 0.83 -0.77 9.94 -0.00 -0.01 0.08 1247
0.09 0.15 0.85 -0.81 9.92 -0.00 -0.01 0.08 1253
0.09 0.15 0.86 -0.79 9.91 -0.00 -0.01 0.07 1259
0.09 0.13 0.84 -0.78 9.92 -0.00 -0.01 0.07 1265
0.10 0.11 0.83 -0.76 9.95 -0.00 -0.01 0.08 1271
0.09 0.13 0.86 -0.82 9.94 -0.00 -0.01 0.07 1277
0.10 0.12 0.88 -0.80 9.90 -0.00 -0.01 0.07 1284
0.10 0.13 0.86 -0.81 9.90 -0.00 -0.02 0.08 1290
0.09 0.11 0.83 -0.80 9.92 -0.00 -0.02 0.07 1297
0.09 0.12 0.88 -0.84 9.96 -0.00 -0.02 0.07 1303
0.08 0.12 0.89 -0.82 9.90 -0.01 -0.02 0.07 1309
0.09 0.11 0.87 -0.79 9.95 -0.01 -0.03 0.07 1315
0.08 0.10 0.89 -0.84 9.90 -0.01 -0.03 0.07 1321
0.08 0.11 0.91 -0.80 9.95 -0.01 -0.03 0.07 1328
0.08 0.14 0.87 -0.78 9.91 -0.01 -0.03 0.04 1334
0.08 0.14 0.87 -0.79 9.93 -0.01 -0.03 0.07 1340
0.08 0.12 0.88 -0.77 9.92 -0.01 -0.03 0.07 1347
0.08 0.13 0.85 -0.82 9.95 -0.01 -0.03 0.06 1353
0.09 0.14 0.87 -0.78 9.90 -0.01 -0.04 0.07 1359
0.06 0.13 0.88 -0.80 9.93 -0.01 -0.04 0.07 1366
0.06 0.13 0.89 -0.80 9.92 -0.01 -0.03 0.07 1372
0.06 0.15 0.87 -0.81 9.94 -0.01 -0.04 0.07 1378
0.05 0.14 0.86 -0.75 9.93 -0.01 -0.04 0.07 1384
0.06 0.13 0.90 -0.80 9.95 -0.00 -0.04 0.07 1391
0.05 0.14 0.89 -0.79 9.92 -0.00 -0.04 0.07 1397
0.07 0.15 0.87 -0.80 9.94 -0.00 -0.05 0.07 1403
0.06 0.14 0.91 -0.80 9.93 0.00 -0.05 0.07 1410
0.04 0.13 0.90 -0.77 9.94 0.00 -0.06 0.08 1416
0.05 0.13 0.88 -0.80 9.89 0.00 -0.06 0.08 1422
0.07 0.12 0.91 -0.85 9.86 0.00 -0.07 0.07 1428
0.06 0.12 0.85 -0.82 9.95 -0.00 -0.07 0.07 1434
0.05 0.14 0.86 -0.84 9.95 -0.00 -0.08 0.08 1441
0.06 0.16 0.86 -0.82 9.97 -0.00 -0.08 0.07 1447
0.06 0.17 0.84 -0.83 9.96 -0.01 -0.09 0.08 1454
0.05 0.18 0.85 -0.86 9.97 -0.01 -0.09 0.07 1460
0.06 0.20 0.89 -0.80 9.99 -0.02 -0.09 0.07 1466
0.06 0.23 0.66 -0.71 10.14 -0.02 -0.09 0.07 1472
0.05 0.26 0.80 -0.80 9.97 -0.02 -0.10 0.07 1478
0.05 0.27 0.81 -0.80 10.04 -0.03 -0.10 0.07 1485
0.06 0.29 0.81 -0.83 9.97 -0.03 -0.11 0.08 1491
0.04 0.35 0.84 -0.85 9.95 -0.04 -0.11 0.07 1498
0.03 0.39 0.83 -0.80 9.96 -0.04 -0.11 0.08 1504
0.05 0.45 0.88 -0.79 9.96 -0.03 -0.11 0.08 1510
0.04 0.49 0.90 -0.78 9.75 -0.03 -0.11 0.08 1516
0.05 0.55 0.89 -0.81 10.02 -0.02 -0.12 0.08 1523
0.02 0.58 0.83 -0.76 9.92 -0.01 -0.12 0.08 1529
0.03 0.58 0.91 -0.71 9.88 0.00 -0.12 0.07 1536
0.02 0.52 0.86 -0.71 9.94 0.01 -0.13 0.07 1542
0.02 0.53 0.86 -0.73 9.90 0.01 -0.14 0.06 1548
0.04 0.53 0.83 -0.77 9.95 0.02 -0.13 0.06 1554
0.04 0.46 0.83 -0.79 9.94 0.03 -0.14 0.06 1560
0.03 0.35 0.82 -0.81 9.96 0.04 -0.14 0.05 1567
0.04 0.34 0.81 -0.83 9.96 0.04 -0.13 0.05 1573
0.05 0.28 0.75 -0.87 9.94 0.04 -0.13 0.05 1580
0.05 0.23 0.74 -0.91 9.95 0.04 -0.13 0.05 1586
0.05 0.20 0.73 -0.90 9.88 0.04 -0.11 0.05 1592
0.06 0.19 0.74 -0.91 9.92 0.03 -0.11 0.04 1598
0.06 0.14 0.72 -0.91 9.92 0.03 -0.10 0.04 1604
0.05 0.13 0.72 -0.91 9.94 0.02 -0.09 0.04 1611
0.07 0.10 0.75 -0.91 9.97 0.02 -0.08 0.04 1617
0.07 0.09 0.74 -0.91 9.95 0.01 -0.07 0.04 1624
0.07 0.07 0.73 -0.90 9.95 0.01 -0.04 0.04 1630
0.05 0.08 0.74 -0.89 10.04 0.01 -0.06 0.04 1636
0.06 0.09 0.72 -0.91 9.99 0.01 -0.05 0.04 1642
0.06 0.06 0.74 -0.87 10.00 0.02 -0.05 0.04 1648
0.08 0.01 0.74 -0.88 9.94 0.02 -0.05 0.04 1654
0.08 0.03 0.80 -0.87 9.93 0.02 -0.04 0.04 1661
0.09 0.02 0.82 -0.96 10.00 0.02 -0.04 0.04 1668
0.08 -0.00 0.80 -0.89 10.03 0.02 -0.04 0.04 1674
0.08 0.02 0.71 -0.93 9.95 0.02 -0.04 0.04 1680
0.08 0.02 0.73 -0.88 9.91 0.03 -0.04 0.04 1686
0.08 0.01 0.77 -0.94 10.00 0.03 -0.03 0.00 1692
0.07 -0.00 0.80 -0.86 10.06 0.03 -0.03 0.03 1699
0.08 0.01 0.73 -0.89 10.13 0.04 -0.03 0.03 1705
0.08 -0.00 0.75 -1.14 9.91 0.05 -0.02 -0.01 1712
0.08 -0.01 0.80 -0.98 10.10 0.08 -0.01 0.03 1718
0.09 0.01 0.81 -0.96 10.09 0.11 0.01 0.03 1724
0.10 0.00 0.67 -1.03 10.13 0.14 0.03 0.03 1730
0.08 -0.01 1.06 -1.12 8.97 0.24 0.11 0.02 1736
0.08 -0.00 0.75 -1.68 9.99 0.22 0.12 0.02 1743
0.09 0.00 0.92 -0.85 10.29 0.25 0.14 0.01 1750
0.09 -0.01 0.71 -1.02 9.90 0.28 0.16 0.01 1756
0.09 -0.01 0.85 -0.98 10.27 0.31 0.16 0.02 1762
0.08 -0.00 1.00 -1.19 10.63 0.33 0.17 0.01 1768
0.08 -0.00 0.86 -1.14 10.20 0.33 0.16 0.01 1774
0.07 -0.01 1.06 -1.04 9.53 0.32 0.14 0.01 1780
0.06 -0.00 0.95 -1.16 10.14 0.31 0.14 0.01 1787
0.07 -0.01 1.01 -1.19 9.85 0.30 0.14 0.00 1794
0.06 -0.01 0.99 -1.28 9.91 0.29 0.13 -0.01 1800
0.06 -0.01 0.97 -1.21 10.07 0.29 0.14 -0.01 1806
0.07 -0.01 0.96 -1.29 10.11 0.29 0.13 -0.02 1812
0.08 -0.01 0.99 -1.31 10.17 0.30 0.14 -0.02 1818
0.06 -0.01 0.98 -1.27 10.09 0.31 0.14 -0.02 1824
0.05 -0.00 1.00 -1.35 10.00 0.32 0.14 -0.02 1830
0.06 0.00 1.27 -1.52 9.58 0.32 0.14 -0.04 1838
0.05 0.00 1.11 -1.75 9.67 0.35 0.14 -0.03 1844
0.05 -0.00 1.07 -1.47 10.15 0.35 0.13 -0.03 1850
0.06 0.00 1.02 -1.52 10.00 0.35 0.11 -0.02 1856
0.06 -0.00 1.06 -1.62 9.99 0.35 0.08 -0.02 1862
0.05 -0.01 0.97 -1.59 10.09 0.34 0.06 -0.02 1868
0.04 -0.00 0.91 -1.62 10.31 0.35 0.06 -0.00 1874
0.05 0.00 0.84 -1.65 10.32 0.35 0.08 0.01 1882
0.05 -0.00 0.75 -1.75 10.53 0.37 0.13 0.03 1888
0.04 -0.00 0.70 -1.71 10.51 0.39 0.13 0.07 1894
0.05 -0.00 0.71 -1.75 10.51 0.41 0.18 0.09 1900
0.05 -0.01 0.66 -1.99 10.84 0.44 0.23 0.13 1906
0.04 -0.00 0.46 -2.08 10.78 0.48 0.29 0.17 1912
0.05 -0.01 -0.09 -2.54 10.91 0.52 0.35 0.25 1920
0.08 -0.00 -0.57 -2.99 10.81 0.59 0.36 0.37 1926
0.06 -0.01 -0.87 -3.40 10.76 0.65 0.33 0.52 1932
0.05 -0.01 -1.01 -3.47 10.63 0.72 0.30 0.68 1938
0.07 -0.01 -0.91 -3.52 10.51 0.78 0.27 0.85 1944
0.05 -0.01 -0.97 -3.76 10.54 0.82 0.23 1.03 1950
0.05 -0.00 -0.80 -3.65 10.61 0.86 0.19 1.17 1956
0.05 0.00 -0.69 -3.47 10.72 0.88 0.18 1.32 1964
0.05 -0.01 -0.65 -3.10 11.26 0.90 0.17 1.44 1970
0.04 -0.00 -0.20 -2.87 11.08 0.89 0.19 1.50 1976
0.05 0.01 0.35 -3.45 11.18 0.88 0.29 1.52 1982
0.06 -0.01 0.74 -3.87 11.46 0.87 0.48 1.47 1988
0.05 -0.01 0.70 -4.60 11.54 0.87 0.70 1.35 1994
0.06 -0.00 0.15 -5.21 11.26 0.89 0.93 1.17 2001
0.05 -0.01 -0.55 -5.71 10.86 0.92 1.12 0.95 2008
0.05 -0.00 -1.48 -5.50 10.58 0.96 1.19 0.72 2014
0.04 -0.00 -2.37 -6.31 10.20 0.99 1.19 0.47 2020
0.06 -0.01 -3.48 -6.73 10.16 1.04 1.10 0.29 2026
0.05 -0.00 -3.18 -6.95 9.62 1.12 0.94 0.05 2032
0.04 -0.00 -4.48 -7.11 9.98 1.20 0.70 -0.16 2038
0.05 -0.00 -4.85 -6.66 10.08 1.26 0.42 -0.37 2045
0.05 -0.01 -4.94 -6.21 10.27 1.32 0.09 -0.56 2052
0.05 -0.01 -5.13 -6.34 10.09 1.37 -0.24 -0.67 2058
0.05 -0.01 -4.41 -5.67 10.39 1.40 -0.56 -0.78 2064
0.06 -0.01 -3.45 -4.96 10.37 1.42 -0.76 -0.84 2070
0.06 -0.01 -3.29 -4.69 10.59 1.42 -0.99 -0.88 2077
0.05 -0.01 -2.57 -4.12 10.73 1.43 -1.17 -0.89 2083
0.06 -0.01 -1.02 -2.99 10.93 1.41 -1.30 -0.84 2089
0.06 -0.01 -1.88 -2.88 10.77 1.36 -1.37 -0.74 2096
0.06 -0.01 -0.71 -2.58 11.19 1.31 -1.39 -0.72 2102
0.06 -0.01 -0.19 -1.89 10.60 1.26 -1.39 -0.71 2108
0.06 -0.01 -0.23 -1.74 10.74 1.19 -1.33 -0.68 2115
0.07 -0.01 1.31 -1.30 10.95 1.13 -1.22 -0.65 2121
0.07 -0.00 1.04 -1.10 10.61 1.04 -1.13 -0.61 2127
0.06 -0.01 0.88 -0.96 10.58 0.96 -1.05 -0.57 2134
0.05 -0.01 0.97 -1.10 10.21 0.90 -1.00 -0.56 2140
0.06 -0.01 0.88 -1.11 9.85 0.86 -0.99 -0.58 2146
0.05 -0.01 0.83 -1.09 9.76 0.83 -0.97 -0.59 2153
0.05 -0.00 -0.17 -1.00 9.89 0.80 -0.96 -0.64 2159
0.05 -0.01 -0.57 -1.23 9.63 0.79 -0.95 -0.70 2165
0.07 -0.00 -0.56 -1.62 10.13 0.78 -1.02 -0.74 2171
0.05 -0.01 -1.01 -1.37 8.95 0.76 -1.08 -0.77 2178
0.04 -0.00 0.36 -1.50 9.45 0.72 -1.13 -0.77 2184
0.05 0.00 -0.23 -1.54 9.92 0.66 -1.19 -0.78 2190
0.05 -0.00 -0.51 -1.60 10.08 0.61 -1.25 -0.78 2197
0.05 -0.00 -0.33 -1.76 10.23 0.56 -1.30 -0.75 2203
0.05 0.00 0.41 -1.78 10.23 0.53 -1.31 -0.74 2209
0.06 -0.01 -0.01 -1.78 9.63 0.49 -1.31 -0.73 2215
0.05 -0.00 0.40 -1.87 9.46 0.45 -1.28 -0.70 2222
0.05 0.00 1.14 -1.84 9.07 0.42 -1.20 -0.69 2228
0.07 -0.00 1.08 -1.84 9.53 0.40 -1.14 -0.66 2234
0.06 -0.01 0.71 -1.82 9.35 0.38 -1.09 -0.63 2241
0.05 -0.00 1.78 -1.25 9.35 0.36 -1.04 -0.60 2247
0.05 0.00 1.28 -1.70 9.76 0.34 -1.01 -0.59 2253
0.05 -0.01 2.51 -1.83 9.05 0.33 -0.99 -0.56 2259
0.05 -0.00 2.39 -1.92 9.74 0.30 -0.95 -0.52 2266
0.04 -0.00 6.35 -2.15 10.46 0.28 -0.90 -0.45 2272
0.05 0.00 6.94 -1.88 9.25 0.24 -0.83 -0.39 2278
0.05 -0.00 5.44 -2.07 9.32 0.22 -0.76 -0.35 2284
0.05 -0.00 2.76 -1.98 10.21 0.18 -0.66 -0.28 2291
0.05 0.00 3.34 -2.09 9.53 0.15 -0.55 -0.20 2297
0.06 -0.00 2.93 -2.45 8.94 0.12 -0.41 -0.12 2304
0.05 -0.00 3.50 -2.20 10.32 0.09 -0.28 -0.05 2310
0.05 -0.00 2.85 -2.55 9.10 0.05 -0.19 -0.01 2316
0.05 0.00 3.72 -3.06 9.50 -0.00 -0.14 0.06 2322
0.05 -0.01 2.77 -2.70 9.84 -0.02 -0.12 0.10 2328
0.05 -0.01 1.55 -2.17 9.56 -0.08 -0.13 0.08 2334
0.05 -0.00 3.12 -2.53 8.81 -0.16 -0.19 0.02 2341
0.05 -0.00 0.83 -2.57 9.38 -0.25 -0.30 -0.06 2348
0.06 -0.00 0.41 -2.21 9.39 -0.33 -0.42 -0.15 2354
0.04 -0.00 1.44 -2.61 9.07 -0.41 -0.47 -0.30 2360
0.06 -0.00 -0.47 -2.37 9.82 -0.48 -0.49 -0.45 2366
0.05 -0.00 -0.37 -2.20 9.18 -0.52 -0.48 -0.60 2372
0.04 -0.00 0.18 -2.42 9.15 -0.55 -0.40 -0.79 2378
0.04 -0.00 0.59 -2.49 9.30 -0.58 -0.33 -0.97 2384
0.05 0.00 0.53 -2.66 9.23 -0.60 -0.24 -1.15 2392
0.05 -0.01 0.68 -2.99 9.27 -0.60 -0.15 -1.27 2398
0.05 -0.01 0.77 -3.02 9.47 -0.61 -0.06 -1.39 2404
0.05 0.00 0.85 -2.88 9.42 -0.62 0.03 -1.50 2410
0.06 -0.01 1.05 -2.87 9.23 -0.63 0.10 -1.60 2416
0.05 -0.01 1.16 -2.95 9.13 -0.64 0.19 -1.67 2422
0.05 -0.00 1.32 -3.02 9.06 -0.64 0.24 -1.73 2428
0.05 -0.01 1.45 -3.06 8.99 -0.63 0.34 -1.77 2435
0.06 -0.01 1.53 -3.01 8.92 -0.62 0.44 -1.81 2442
0.05 -0.01 1.59 -3.08 8.80 -0.60 0.55 -1.83 2448
0.04 -0.00 1.63 -3.18 8.71 -0.58 0.66 -1.85 2454
0.05 -0.00 1.60 -3.20 8.61 -0.55 0.77 -1.85 2460
0.06 -0.01 1.54 -3.26 8.58 -0.52 0.84 -1.86 2466
0.05 -0.01 1.44 -3.33 8.66 -0.48 0.89 -1.86 2472
0.04 -0.00 1.38 -3.47 8.69 -0.44 0.90 -1.85 2479
0.05 -0.00 1.37 -3.67 8.83 -0.40 0.87 -1.84 2485
0.05 -0.01 1.41 -3.82 8.95 -0.37 0.82 -1.81 2491
0.05 -0.00 1.45 -3.96 9.03 -0.34 0.77 -1.76 2498
0.05 -0.01 6.73 -7.75 4.78 -0.30 0.71 -1.60 2504
0.05 0.00 3.06 -5.85 11.51 -0.28 0.85 -1.45 2510
0.05 -0.00 1.35 -4.94 9.67 -0.41 0.81 -1.35 2516
0.05 -0.00 1.37 -5.14 9.53 -0.48 0.90 -1.27 2523
0.05 -0.00 1.51 -4.66 9.49 -0.62 0.88 -1.16 2529
0.06 -0.00 0.89 -4.34 9.22 -0.78 0.82 -1.06 2535
0.05 -0.00 0.63 -4.76 9.16 -0.90 0.74 -0.96 2541
0.04 -0.00 0.75 -4.79 9.27 -0.95 0.64 -0.85 2548
0.05 0.01 0.36 -5.97 8.83 -0.99 0.55 -0.76 2554
0.05 -0.01 0.90 -5.12 8.87 -0.99 0.47 -0.67 2561
0.04 -0.00 0.92 -5.42 8.97 -0.98 0.46 -0.60 2567
0.03 0.00 1.25 -5.61 8.68 -0.97 0.49 -0.52 2573
0.05 0.00 1.79 -5.31 9.04 -0.95 0.53 -0.46 2579
0.04 -0.00 1.60 -5.59 8.52 -0.92 0.58 -0.41 2585
0.05 -0.01 2.16 -5.09 8.37 -0.91 0.62 -0.35 2591
0.05 -0.01 2.20 -5.74 9.42 -0.90 0.75 -0.29 2598
0.06 -0.00 3.22 -5.09 9.76 -0.93 0.89 -0.21 2605
0.05 -0.00 4.22 -5.07 9.38 -0.98 1.05 -0.08 2611
0.06 -0.01 4.26 -5.62 9.04 -1.02 1.24 0.03 2617
0.06 0.00 4.37 -5.82 9.48 -1.05 1.45 0.19 2623
0.07 0.00 4.28 -5.58 9.77 -1.11 1.59 0.34 2629
0.05 0.00 3.72 -5.63 9.46 -1.13 1.66 0.48 2635
0.04 0.01 3.28 -5.95 9.16 -1.11 1.63 0.62 2642
0.06 0.01 2.97 -6.17 8.98 -1.05 1.49 0.76 2649
0.05 0.00 2.80 -6.05 9.01 -0.95 1.24 0.89 2655
0.03 0.01 2.88 -5.88 9.32 -0.83 1.03 1.04 2661
0.04 0.01 3.44 -5.69 9.25 -0.71 0.76 1.16 2667
0.04 -0.00 4.11 -5.36 9.14 -0.60 0.53 1.30 2673
0.04 -0.00 4.73 -5.01 9.08 -0.51 0.38 1.42 2679
0.03 -0.00 5.24 -4.76 9.16 -0.41 0.36 1.54 2685
0.03 0.00 5.81 -4.71 9.39 -0.36 0.45 1.63 2693
0.03 -0.00 6.74 -4.70 9.58 -0.28 0.64 1.72 2699
0.04 -0.00 6.33 -4.72 9.60 -0.20 0.86 1.80 2705
0.03 -0.00 6.27 -4.64 10.39 -0.12 1.16 1.86 2711
0.05 -0.01 2.47 -5.61 10.64 -0.06 1.45 1.86 2717
0.04 -0.00 0.46 -4.65 13.64 -0.17 1.77 1.46 2723
0.03 -0.00 3.40 -3.31 14.54 -0.46 1.63 1.24 2729
0.05 -0.00 -0.60 -3.67 11.60 -0.56 1.57 1.21 2737
0.05 -0.01 -1.54 -4.16 10.58 -0.52 1.54 1.11 2743
0.04 -0.00 -2.17 -4.28 11.54 -0.52 1.24 1.00 2749
0.05 -0.00 -4.52 -3.97 11.81 -0.56 0.58 0.83 2755
0.04 -0.00 -2.91 -3.43 11.46 -0.57 0.14 0.72 2761
0.03 -0.00 0.29 -3.26 10.15 -0.56 -0.00 0.71 2767
0.05 0.00 0.87 -3.88 10.55 -0.57 0.21 0.73 2775
0.05 -0.01 1.27 -3.79 11.27 -0.55 0.50 0.76 2781
0.04 -0.00 0.03 -3.57 12.22 -0.54 0.66 0.79 2787
0.04 0.01 -1.08 -2.78 10.87 -0.53 0.64 0.84 2793
0.05 -0.00 -1.08 -2.70 10.96 -0.52 0.62 0.93 2799
0.05 -0.00 -2.16 -2.56 10.02 -0.51 0.54 0.98 2806
0.05 0.00 -2.69 -2.65 9.31 -0.49 0.42 0.99 2812
0.05 -0.01 -4.66 -3.01 10.06 -0.45 0.33 0.95 2819
0.04 -0.00 -3.01 -2.79 9.66 -0.41 0.22 0.86 2825
0.04 -0.00 -2.89 -2.54 7.80 -0.37 0.18 0.79 2831
0.04 0.01 -5.38 -2.95 12.06 -0.31 0.17 0.63 2837
0.05 -0.00 -1.14 -1.65 10.10 -0.30 -0.03 0.43 2843
0.04 -0.00 -4.76 -2.25 10.07 -0.28 -0.22 0.23 2850
0.05 0.01 -9.91 -2.38 9.85 -0.28 -0.35 0.03 2856
0.05 -0.01 -6.70 -0.49 10.62 -0.32 -0.56 -0.18 2863
0.04 -0.00 -10.47 -0.35 9.39 -0.36 -0.81 -0.42 2869
0.05 -0.01 -12.04 -1.07 9.01 -0.40 -1.07 -0.70 2875
0.05 -0.00 -13.34 -2.09 9.86 -0.48 -1.35 -1.05 2881
0.04 -0.00 -13.54 -4.77 10.61 -0.57 -1.67 -1.43 2888
0.04 -0.00 -15.57 -11.47 13.67 -0.69 -2.02 -1.82 2894
0.05 -0.00 3.55 -10.58 22.95 0.28 -1.56 -1.04 2900
0.04 -0.00 -1.72 1.26 1.21 0.11 -0.19 -0.78 2907
0.05 0.02 -4.55 -3.31 10.71 -0.46 0.17 -0.39 2913
0.05 -0.00 -0.72 -1.91 10.78 -0.48 0.13 0.01 2920
0.04 0.04 2.03 -1.15 14.55 -0.47 -0.01 0.10 2926
0.06 0.11 0.10 -0.76 9.87 -0.29 -0.08 0.08 2932
0.06 0.18 0.49 -0.51 10.04 -0.20 -0.03 0.07 2938
0.05 0.28 0.55 -0.65 10.18 -0.15 -0.00 0.05 2945
0.05 0.37 0.89 -0.69 10.22 -0.11 0.01 0.06 2951
0.06 0.41 0.82 -0.70 10.16 -0.06 0.00 0.07 2958
0.06 0.46 0.65 -0.70 10.13 -0.03 -0.01 0.07 2964
0.06 0.48 0.59 -0.71 10.03 -0.01 -0.02 0.08 2970
0.06 0.46 0.63 -0.74 9.97 0.00 -0.02 0.07 2976
0.06 0.46 0.71 -0.75 9.94 0.01 -0.03 0.08 2982
0.06 0.43 0.69 -0.78 9.95 0.01 -0.02 0.07 2989
0.07 0.39 0.67 -0.79 9.94 0.01 -0.03 0.07 2996
0.07 0.37 0.69 -0.81 9.98 0.00 -0.02 0.07 3002
0.06 0.35 0.70 -0.79 9.97 -0.03 -0.03 0.07 3008
0.08 0.34 0.73 -0.83 9.96 -0.01 -0.03 0.07 3014
0.09 0.31 0.67 -0.83 9.96 -0.01 -0.03 0.06 3020
0.07 0.28 0.69 -0.84 9.91 -0.02 -0.03 0.06 3026
0.08 0.31 0.68 -0.79 9.89 -0.02 -0.03 0.06 3033
0.07 0.32 0.66 -0.81 9.93 -0.03 -0.03 0.05 3040
0.07 0.33 0.66 -0.75 9.88 -0.03 -0.03 0.06 3046
0.08 0.30 0.59 -0.77 9.95 -0.04 -0.03 0.05 3052
0.09 0.32 0.64 -0.74 9.96 -0.03 -0.03 0.06 3058
0.09 0.32 0.62 -0.74 9.97 -0.04 -0.04 0.06 3064
0.08 0.33 1.21 -0.74 9.97 -0.04 -0.07 0.06 3070
0.08 0.36 0.60 -0.73 9.99 -0.03 -0.03 0.08 3077
0.11 0.37 0.59 -0.73 9.96 -0.03 -0.03 0.08 3084
0.11 0.37 0.61 -0.75 9.98 -0.03 -0.03 0.10 3090
0.09 0.37 0.63 -0.77 9.99 -0.03 -0.03 0.09 3096
0.10 0.38 0.60 -0.70 9.96 -0.02 -0.02 0.09 3102
0.10 0.37 0.61 -0.70 10.01 -0.02 -0.02 0.10 3108
0.11 0.37 0.64 -0.69 9.97 -0.02 -0.02 0.10 3115
0.13 0.38 0.61 -0.70 9.97 -0.01 -0.03 0.10 3121
0.13 0.37 0.63 -0.71 9.94 -0.02 -0.02 0.10 3128
0.12 0.37 0.66 -0.71 9.93 -0.02 -0.03 0.07 3134
0.11 0.38 0.63 -0.70 9.91 -0.02 -0.02 0.10 3140
0.13 0.40 0.64 -0.74 9.92 -0.03 -0.03 0.10 3146
0.12 0.40 0.61 -0.71 9.93 -0.03 -0.03 0.10 3152
0.11 0.43 0.64 -0.70 9.91 -0.03 -0.03 0.11 3159
0.11 0.49 0.63 -0.71 9.90 -0.04 -0.03 0.10 3165
0.12 0.44 0.63 -0.71 9.93 -0.04 -0.03 0.11 3172
0.12 0.45 0.63 -0.71 9.96 -0.04 -0.03 0.10 3178
0.12 0.48 0.64 -0.65 9.95 -0.03 -0.03 0.11 3184
0.14 0.51 0.61 -0.69 9.98 -0.03 -0.03 0.10 3190
0.12 0.56 0.59 -0.56 10.00 -0.03 -0.03 0.11 3196
0.12 0.59 0.69 -0.68 9.97 -0.03 -0.03 0.11 3203
0.14 0.63 0.60 -0.69 9.93 -0.03 -0.03 0.11 3210
0.12 0.67 0.62 -0.67 9.92 -0.02 -0.03 0.12 3216
0.12 0.67 0.61 -0.66 9.92 -0.03 -0.03 0.11 3222
0.13 0.69 0.64 -0.68 9.97 -0.03 -0.03 0.11 3228
0.14 0.69 0.62 -0.72 9.97 -0.02 -0.03 0.12 3234
0.13 0.71 0.66 -0.68 9.96 -0.02 -0.03 0.11 3240
0.14 0.74 0.65 -0.63 9.96 -0.02 -0.03 0.11 3248
0.14 0.76 0.67 -0.68 9.98 -0.02 -0.03 0.11 3254
0.15 0.81 0.65 -0.66 9.95 -0.02 -0.04 0.11 3260
0.15 0.85 0.65 -0.68 9.96 -0.02 -0.04 0.11 3266
0.16 0.85 0.65 -0.63 9.92 -0.03 -0.04 0.12 3272
0.14 0.81 0.61 -0.68 9.92 -0.03 -0.05 0.11 3278
0.12 0.83 0.67 -0.71 9.93 -0.03 -0.05 0.11 3284
0.13 0.84 0.63 -0.66 9.96 -0.03 -0.06 0.11 3292
0.13 0.91 0.67 -0.65 9.92 -0.03 -0.05 0.11 3298
0.12 0.88 0.65 -0.66 9.96 -0.03 -0.06 0.10 3304
0.14 0.94 0.64 -0.65 9.97 -0.03 -0.06 0.11 3310
0.14 1.03 0.64 -0.65 9.96 -0.02 -0.07 0.11 3316
0.14 1.00 0.64 -0.65 9.99 -0.02 -0.07 0.11 3322
0.14 1.02 0.64 -0.65 9.96 -0.02 -0.07 0.10 3330
0.15 1.03 0.67 -0.64 9.95 -0.02 -0.07 0.10 3336
0.15 1.01 0.63 -0.66 9.95 -0.02 -0.08 0.10 3342
0.16 1.03 0.62 -0.67 9.97 -0.02 -0.08 0.10 3348
0.17 1.01 1.21 -0.64 10.01 -0.02 -0.09 0.09 3354
0.18 1.02 0.07 -0.67 9.91 -0.02 -0.09 0.09 3360
0.19 1.00 0.61 -0.65 9.95 -0.02 -0.09 0.09 3367
0.21 1.03 0.63 -0.65 9.89 -0.02 -0.09 0.09 3374
0.22 1.01 0.62 -0.64 9.95 -0.02 -0.09 0.08 3380
0.21 1.05 0.63 -0.66 9.98 -0.02 -0.09 0.08 3386
0.20 1.13 0.61 -0.65 9.93 -0.02 -0.09 0.08 3392
0.22 1.14 0.59 -0.65 9.98 -0.02 -0.09 0.08 3398
0.23 1.16 0.64 -0.67 10.00 -0.02 -0.09 0.07 3404
0.23 1.13 0.57 -0.60 9.93 -0.02 -0.10 0.08 3411
0.23 1.13 0.58 -0.65 9.93 -0.01 -0.09 0.08 3418
0.20 1.13 0.55 -0.65 9.99 -0.02 -0.09 0.08 3424
0.20 1.13 0.56 -0.64 9.98 -0.02 -0.09 0.08 3430
0.23 1.14 0.54 -0.67 9.99 -0.02 -0.08 0.07 3436
0.23 1.13 0.56 -0.67 9.99 -0.02 -0.08 0.07 3442
0.23 1.17 0.54 -0.65 9.97 -0.02 -0.08 0.08 3449
0.23 1.18 0.54 -0.64 9.99 -0.01 -0.07 0.08 3456
0.26 1.16 0.53 -0.65 9.98 -0.01 -0.07 0.08 3462
0.24 1.15 0.53 -0.67 9.95 -0.01 -0.07 0.08 3468
0.24 1.13 0.57 -0.65 9.95 -0.01 -0.07 0.08 3474
0.26 1.15 0.57 -0.67 9.98 -0.01 -0.07 0.08 3480
0.25 1.14 0.52 -0.00 9.96 -0.01 -0.07 0.08 3486
0.24 1.17 0.53 -0.66 9.97 -0.01 -0.06 0.08 3493
0.27 1.16 0.54 -0.67 9.98 -0.01 -0.06 0.08 3500
0.24 1.16 0.56 -0.65 9.98 -0.01 -0.06 0.07 3506
0.24 1.16 0.55 -0.63 9.99 -0.01 -0.06 0.08 3512
0.26 1.15 0.55 -0.64 9.97 -0.01 -0.06 0.08 3518
0.26 1.15 0.52 -0.63 9.96 -0.01 -0.05 0.08 3524
0.25 1.15 0.53 -0.64 9.96 -0.01 -0.06 0.08 3531
0.25 1.16 0.55 -0.62 9.99 -0.01 -0.05 0.08 3537
0.26 1.16 0.57 -0.62 9.92 -0.01 -0.05 0.08 3544
0.27 1.15 0.55 -0.65 9.95 -0.01 -0.05 0.08 3550
0.26 1.16 0.52 -0.65 9.99 -0.01 -0.05 0.09 3556
0.26 1.15 0.55 -0.65 9.95 -0.01 -0.05 0.08 3562
0.27 1.16 0.55 -0.61 9.98 -0.01 -0.05 0.09 3568
0.25 1.16 0.54 -0.64 9.98 -0.01 -0.05 0.08 3575
0.26 1.14 0.53 -0.66 9.94 -0.01 -0.05 0.09 3581
0.28 1.13 0.56 -0.66 9.91 -0.01 -0.05 0.08 3588
0.29 1.12 0.54 -0.66 9.98 -0.01 -0.05 0.09 3594
0.28 1.13 0.52 -0.62 10.02 -0.01 -0.05 0.08 3600
0.28 1.13 0.53 -0.64 9.92 -0.01 -0.05 0.09 3606
0.27 1.12 0.55 -0.66 9.96 -0.01 -0.05 0.08 3613
0.27 1.13 0.52 -0.62 9.98 -0.00 -0.05 0.08 3619
0.26 1.13 0.54 -0.62 9.95 -0.00 -0.04 0.09 3625
0.25 1.13 0.52 -0.61 9.98 -0.01 -0.04 0.09 3632
0.24 1.13 0.52 -0.66 9.93 -0.01 -0.04 0.09 3638
0.26 1.14 0.50 -0.65 9.99 -0.01 -0.04 0.09 3644
0.25 1.14 0.53 -0.62 9.98 -0.00 -0.04 0.09 3651
0.25 1.13 0.53 -0.65 10.03 -0.00 -0.04 0.08 3657
0.26 1.14 0.51 -0.62 9.97 -0.00 -0.04 0.09 3663
0.27 1.13 0.53 -0.64 9.95 -0.00 -0.04 0.09 3670
0.27 1.12 0.56 -0.66 9.97 -0.01 -0.04 0.09 3676
0.27 1.12 0.54 -0.65 9.94 -0.00 -0.04 0.09 3682
0.26 1.11 0.52 -0.64 9.98 -0.01 -0.04 0.09 3688
0.24 1.09 0.55 -0.65 9.95 -0.01 -0.04 0.09 3695
0.23 1.09 0.53 -0.63 9.92 -0.01 -0.04 0.08 3701
0.25 1.08 0.54 -0.66 9.94 -0.01 -0.04 0.09 3707
0.24 1.07 0.56 -0.65 9.97 -0.01 -0.04 0.08 3714
0.24 1.07 0.52 -0.67 9.97 -0.01 -0.04 0.09 3720
0.25 1.06 0.51 -0.64 9.95 -0.01 -0.03 0.09 3726
0.24 1.06 0.52 -0.63 9.92 -0.01 -0.03 0.09 3733
0.24 1.04 0.53 -0.65 9.97 -0.01 -0.02 0.09 3739
0.24 1.07 0.50 -0.65 9.96 -0.01 -0.01 0.09 3745
0.24 1.07 0.50 -0.65 9.98 -0.01 -0.00 0.09 3751
0.22 1.07 0.46 -0.61 9.97 -0.01 0.01 0.10 3758
0.21 1.05 0.53 -0.64 10.00 -0.01 0.01 0.09 3764
0.19 1.05 0.55 -1.22 9.97 -0.01 0.01 0.10 3770
0.18 1.05 0.56 -0.63 9.99 -0.00 0.01 0.10 3777
0.19 1.04 0.54 -0.66 9.96 -0.00 0.01 0.10 3783
0.17 1.06 0.60 -0.62 9.93 0.00 0.01 0.10 3789
0.18 1.05 0.53 -0.64 9.97 0.00 0.01 0.10 3795
0.17 1.05 0.55 -0.61 9.95 0.00 0.01 0.10 3802
0.17 1.03 0.59 -0.61 9.95 0.00 0.01 0.10 3808
0.16 1.04 0.54 -0.64 10.03 0.00 0.01 0.09 3814
0.16 1.01 0.57 -0.63 9.98 0.00 0.00 0.13 3821
0.14 0.99 0.57 -0.63 9.94 0.00 0.00 0.10 3827
0.12 0.98 0.61 -0.63 9.95 0.00 0.00 0.10 3833
0.13 0.96 0.60 -0.62 9.94 0.00 -0.00 0.10 3840
0.13 0.97 0.59 -0.62 9.93 0.00 -0.00 0.10 3846
0.12 0.96 0.61 -0.66 9.95 0.00 -0.00 0.10 3852
0.13 0.94 0.57 -0.64 9.96 0.00 -0.00 0.10 3858
0.12 0.90 0.62 -0.64 9.98 0.00 -0.01 0.11 3864
0.10 0.89 0.57 -0.63 9.95 0.00 -0.01 0.10 3871
0.10 0.87 0.64 -0.62 9.98 0.01 -0.01 0.10 3877
0.11 0.89 0.57 -0.66 9.92 0.00 -0.01 0.10 3884
0.10 0.87 0.59 -0.64 9.98 0.01 -0.01 0.11 3890
0.09 0.86 0.59 -0.67 9.96 0.00 -0.01 0.10 3896
0.10 0.86 0.57 -0.61 9.96 0.01 -0.01 0.10 3902
0.11 0.84 0.61 -0.66 9.92 0.01 -0.01 0.10 3908
0.10 0.82 0.61 -0.64 9.95 0.01 -0.01 0.10 3915
0.09 0.79 0.64 -0.65 9.95 0.00 -0.01 0.10 3921
0.11 0.81 0.62 -0.67 9.97 0.00 -0.01 0.11 3928
0.12 0.78 0.61 -0.64 9.95 0.01 -0.01 0.10 3934
0.12 0.79 0.59 -0.64 9.97 0.01 -0.01 0.10 3940
0.12 0.75 0.62 -0.64 9.93 0.01 -0.01 0.10 3946
0.13 0.73 0.61 -0.66 9.94 0.01 -0.01 0.10 3952
0.13 0.68 0.63 -0.66 9.98 0.01 -0.01 0.09 3958
0.12 0.65 0.61 -0.62 9.94 0.01 -0.01 0.10 3965
0.13 0.67 0.60 -0.68 9.96 0.00 -0.01 0.09 3972
0.12 0.66 0.64 -0.65 9.93 0.01 -0.01 0.10 3978
0.11 0.63 0.60 -0.68 9.97 0.01 -0.01 0.10 3984
0.12 0.60 0.63 -0.66 9.93 0.01 -0.01 0.10 3990
0.14 0.59 0.61 -0.62 9.94 0.00 -0.01 0.10 3996
0.15 0.53 0.64 -0.66 9.95 0.00 -0.00 0.10 4002
0.14 0.55 0.64 -0.67 9.92 0.01 -0.00 0.11 4009
0.15 0.53 0.67 -0.65 9.97 0.01 -0.00 0.10 4016
0.15 0.48 0.63 -0.64 9.90 0.01 -0.00 0.10 4022
0.13 0.44 0.67 -0.64 9.94 0.01 -0.00 0.10 4028
0.15 0.47 0.66 -0.68 9.96 0.01 -0.00 0.10 4034
0.15 0.44 0.68 -0.65 9.98 0.01 -0.00 0.10 4040
0.16 0.37 0.66 -0.67 9.99 0.01 -0.01 0.10 4046
0.15 0.36 0.65 -0.64 9.93 0.01 -0.01 0.10 4054
0.17 0.33 0.66 -0.63 9.98 0.01 -0.00 0.10 4060
0.17 0.27 0.65 -0.67 9.92 0.01 -0.01 0.09 4066
0.17 0.27 0.68 -0.68 9.94 0.01 -0.00 0.09 4072
0.19 0.27 0.64 -0.67 9.99 0.01 -0.00 0.10 4078
0.20 0.24 0.66 -0.66 9.99 0.01 -0.00 0.09 4084
0.20 0.20 0.66 -0.68 9.92 0.01 -0.00 0.10 4090
0.19 0.20 0.75 -0.68 9.96 0.01 -0.01 0.10 4097
0.20 0.21 0.70 -0.72 9.95 0.01 -0.01 0.11 4104
0.21 0.18 0.69 -0.67 9.95 0.01 -0.01 0.10 4110
0.21 0.11 0.72 -0.68 9.92 0.00 -0.02 0.07 4116
0.21 0.13 0.67 -0.69 9.94 -0.00 -0.02 0.10 4122
0.22 0.14 0.71 -0.70 9.93 -0.00 -0.02 0.10 4128
0.20 0.18 0.55 -0.72 9.57 -0.01 -0.03 0.10 4134
0.20 0.17 0.76 -0.64 10.55 -0.01 -0.03 0.10 4141
0.20 0.17 0.72 -0.62 10.33 -0.01 -0.03 0.09 4148
0.21 0.17 0.68 -0.66 10.08 -0.01 -0.03 0.10 4154
0.20 0.17 0.69 -0.66 10.02 -0.01 -0.03 0.10 4160
0.20 0.18 0.68 -0.71 9.95 -0.00 -0.03 0.10 4166
0.19 0.17 0.70 -0.67 9.97 -0.00 -0.03 0.10 4172
0.17 0.17 0.62 -0.62 9.97 -0.00 -0.03 0.10 4178
0.17 0.17 0.66 -0.68 9.95 -0.00 -0.03 0.11 4186
0.17 0.16 0.56 -0.54 9.84 -0.00 -0.03 0.10 4192
0.17 0.16 0.61 -0.71 9.98 -0.00 -0.03 0.10 4198
0.16 0.15 0.68 -0.72 9.98 -0.00 -0.03 0.10 4204
0.17 0.18 0.72 -0.67 10.01 0.00 -0.03 0.10 4210
0.16 0.16 0.74 -0.68 9.94 -0.00 -0.03 0.11 4216
0.14 0.15 0.73 -0.69 9.96 -0.00 -0.03 0.10 4222
0.15 0.18 0.73 -0.69 9.93 -0.00 -0.04 0.10 4230
0.15 0.17 0.67 -0.68 9.92 -0.01 -0.04 0.10 4236
0.14 0.19 0.75 -0.67 9.96 -0.01 -0.05 0.10 4242
0.14 0.21 0.70 -0.68 9.98 -0.02 -0.05 0.11 4248
0.15 0.23 0.71 -0.67 10.02 -0.02 -0.05 0.10 4254
0.14 0.22 0.71 -0.68 9.96 -0.01 -0.05 0.10 4260
0.11 0.24 0.68 -0.66 9.98 -0.01 -0.04 0.10 4268
0.12 0.27 0.70 -0.68 10.05 -0.01 -0.04 0.10 4274
0.10 0.29 0.70 -0.69 9.96 -0.01 -0.04 0.11 4280
0.08 0.29 0.70 -0.69 9.94 -0.00 -0.04 0.11 4286
0.09 0.30 0.74 -0.68 9.93 0.00 -0.05 0.11 4292
0.08 0.30 0.73 -0.65 9.97 0.00 -0.05 0.10 4298
0.08 0.29 0.69 -0.69 9.98 0.01 -0.05 0.11 4304
0.07 0.28 0.69 -0.66 9.92 0.01 -0.05 0.10 4312
0.08 0.27 0.72 -0.70 9.93 0.02 -0.05 0.11 4318
0.08 0.23 0.67 -0.69 9.98 0.02 -0.04 0.10 4324
0.07 0.19 0.67 -0.68 9.96 0.02 -0.05 0.11 4330
0.08 0.16 0.77 -0.16 10.26 0.02 -0.04 0.11 4336
0.08 0.15 0.68 -0.71 9.98 0.03 -0.05 0.10 4342
0.08 0.11 0.74 -0.72 9.97 0.02 -0.05 0.10 4348
0.09 0.14 0.80 -0.61 9.85 0.02 -0.05 0.11 4356
0.09 0.14 0.68 -0.71 9.97 0.02 -0.05 0.10 4362
0.09 0.08 0.72 -0.71 9.95 0.02 -0.05 0.10 4368
0.09 0.12 0.67 -0.76 9.88 0.02 -0.05 0.10 4374
0.10 0.08 0.66 -0.75 9.96 0.01 -0.05 0.10 4380
0.10 0.06 0.70 -0.72 9.96 0.01 -0.05 0.09 4386
0.10 0.06 2.63 -0.97 10.19 -0.00 -0.06 0.10 4392
0.09 0.06 0.73 -0.74 9.98 0.01 -0.06 0.09 4400
0.09 0.06 0.72 -0.74 10.01 0.01 -0.06 0.09 4406
0.09 0.05 0.69 -0.58 10.06 0.01 -0.06 0.08 4412
0.08 0.06 0.69 -0.76 10.00 0.02 -0.07 0.08 4418
0.10 0.06 0.69 -0.74 9.96 0.02 -0.07 0.08 4424
0.10 0.04 0.69 -0.73 9.85 0.02 -0.06 0.07 4430
0.09 0.03 0.68 -0.74 9.91 0.02 -0.06 0.07 4436
0.10 0.02 0.70 -0.76 9.95 0.02 -0.06 0.07 4444
0.11 0.01 0.66 -0.76 9.97 0.02 -0.05 0.07 4450
0.11 -0.01 0.70 -0.79 9.99 0.02 -0.05 0.06 4456
0.10 0.02 0.70 -0.77 9.99 0.02 -0.05 0.06 4462
0.10 0.00 0.71 -0.77 10.01 0.02 -0.05 0.06 4468
0.11 0.01 0.70 -0.79 9.95 0.02 -0.04 0.05 4474
0.11 -0.01 0.71 -0.78 10.00 0.02 -0.04 0.05 4481
0.10 0.00 0.74 -0.80 9.96 0.02 -0.04 0.05 4487
0.12 0.00 0.74 -0.80 9.99 0.02 -0.04 0.05 4494
0.11 -0.01 0.72 -0.77 9.99 0.02 -0.04 0.04 4500
0.10 -0.01 0.74 -0.85 9.98 0.03 -0.03 0.04 4506
0.11 0.00 0.70 -0.75 9.98 0.03 -0.03 0.04 4512
0.12 -0.01 0.72 -0.89 10.02 0.03 -0.03 0.04 4518
0.11 -0.01 0.01 -0.80 10.13 0.05 -0.01 0.03 4525
0.11 -0.00 0.68 -0.81 10.01 0.07 0.01 0.03 4531
0.13 -0.00 0.77 -0.83 10.02 0.09 0.02 0.02 4538
0.12 -0.01 0.98 -1.13 10.06 0.17 0.06 0.02 4544
0.11 -0.00 0.55 -1.20 11.01 0.27 0.13 0.02 4550
0.12 -0.00 0.76 -0.86 10.41 0.32 0.16 0.01 4556
0.12 -0.01 0.77 -0.88 10.26 0.37 0.20 0.01 4562
0.10 -0.00 0.80 -1.03 10.54 0.42 0.22 0.01 4569
0.11 -0.00 0.95 -1.08 10.31 0.50 0.25 0.01 4576
0.11 -0.01 0.70 -1.20 11.44 0.52 0.24 -0.01 4582
0.10 -0.01 0.78 -1.24 10.43 0.55 0.24 -0.00 4588
0.10 -0.00 0.97 -1.23 10.50 0.58 0.24 0.00 4594
0.11 -0.01 0.85 -1.26 10.26 0.59 0.26 0.00 4600
0.11 -0.01 0.96 -1.22 10.31 0.61 0.27 0.01 4606
0.12 -0.01 0.86 -1.14 10.17 0.62 0.29 0.01 4614
0.11 -0.01 0.90 -1.32 10.06 0.63 0.30 0.03 4620
0.12 -0.01 0.84 -1.45 10.40 0.62 0.32 0.03 4626
0.07 -0.01 0.95 -1.48 10.57 0.62 0.33 0.04 4632
0.09 -0.01 0.97 -1.48 10.82 0.64 0.39 0.05 4638
0.09 -0.01 1.01 -1.59 10.63 0.69 0.43 0.05 4644
0.08 -0.01 1.04 -1.53 10.23 0.73 0.46 0.06 4651
0.10 -0.01 1.13 -1.60 10.89 0.75 0.47 0.07 4658
0.10 -0.01 1.13 -1.78 10.72 0.78 0.49 0.07 4664
0.06 -0.01 1.08 -1.86 10.80 0.83 0.52 0.08 4670
0.07 -0.01 0.98 -2.00 10.64 0.86 0.55 0.10 4676
0.06 -0.01 0.64 -2.13 10.63 0.90 0.59 0.14 4682
0.08 -0.01 0.28 -2.45 10.69 0.93 0.62 0.20 4688
0.05 -0.00 0.19 -2.68 10.71 0.96 0.62 0.29 4695
0.07 0.00 -0.01 -2.92 10.83 0.99 0.63 0.39 4702
0.06 -0.01 -0.40 -3.25 10.70 1.03 0.64 0.53 4708
0.06 -0.01 -0.55 -3.51 10.66 1.07 0.63 0.64 4714
0.08 -0.01 -0.72 -3.63 10.70 1.11 0.61 0.80 4720
0.08 -0.01 -0.93 -3.96 10.65 1.15 0.59 0.98 4726
0.07 -0.01 -0.97 -4.02 10.50 1.19 0.53 1.16 4732
0.04 -0.00 -0.93 -4.05 10.29 1.22 0.46 1.36 4739
0.07 -0.00 -0.94 -3.81 10.31 1.24 0.39 1.55 4746
0.06 -0.01 -1.05 -3.55 10.48 1.25 0.35 1.72 4752
0.05 -0.00 -0.94 -3.11 10.94 1.24 0.33 1.88 4758
0.07 0.00 -0.75 -2.81 11.08 1.20 0.35 1.99 4764
0.06 -0.01 -0.33 -2.59 11.41 1.18 0.41 2.05 4770
0.04 -0.00 0.41 -2.53 11.25 1.15 0.48 2.10 4777
0.05 -0.01 0.88 -2.69 11.17 1.13 0.57 2.14 4784
0.04 -0.00 1.23 -2.47 10.98 1.13 0.68 2.16 4790
0.04 -0.00 1.65 -2.51 10.62 1.11 0.77 2.15 4796
0.05 0.00 1.64 -2.64 10.53 1.10 0.86 2.13 4802
0.06 -0.01 1.83 -3.02 10.21 1.09 0.97 2.08 4808
0.05 -0.00 1.62 -3.68 10.10 1.08 1.07 2.01 4815
0.06 -0.00 1.01 -4.46 10.22 1.10 1.15 1.87 4822
0.05 -0.01 0.18 -4.81 9.92 1.16 1.20 1.66 4828
0.05 -0.00 -0.22 -4.51 9.91 1.22 1.17 1.44 4834
0.05 -0.01 -0.34 -4.24 9.59 1.24 1.03 1.29 4840
0.06 -0.01 -1.48 -5.14 9.33 1.24 0.81 1.10 4846
0.05 -0.00 -2.53 -5.45 9.76 1.25 0.55 0.80 4852
0.04 -0.00 -2.42 -5.44 9.44 1.26 0.27 0.49 4858
0.05 -0.00 -2.27 -5.23 9.46 1.26 -0.01 0.19 4866
0.07 -0.01 -2.40 -4.87 9.32 1.24 -0.25 -0.09 4872
0.06 -0.01 -2.29 -4.66 9.67 1.20 -0.50 -0.32 4878
0.05 -0.00 -1.88 -4.61 9.24 1.16 -0.72 -0.48 4884
0.06 -0.01 -1.08 -4.64 9.65 1.11 -0.94 -0.64 4890
0.07 -0.01 -1.16 -4.49 9.53 1.08 -1.15 -0.75 4896
0.06 -0.01 0.14 -4.21 9.76 1.07 -1.32 -0.82 4902
0.04 -0.00 0.15 -3.42 9.77 1.05 -1.49 -0.84 4909
0.06 -0.01 0.77 -3.65 9.94 1.04 -1.58 -0.82 4915
0.06 -0.01 1.05 -3.34 9.85 1.03 -1.69 -0.79 4922
0.05 -0.01 1.94 -3.30 9.70 1.04 -1.77 -0.73 4928
0.04 -0.00 1.81 -3.09 9.83 1.04 -1.85 -0.68 4934
0.06 -0.00 1.84 -2.65 10.14 1.02 -1.86 -0.65 4940
0.05 -0.01 2.43 -2.36 10.17 0.99 -1.88 -0.58 4946
0.05 -0.00 2.71 -2.15 10.59 0.96 -1.88 -0.48 4953
0.05 -0.00 1.77 -2.18 10.63 0.91 -1.83 -0.43 4960
0.06 -0.01 5.04 -2.02 10.31 0.87 -1.74 -0.36 4966
0.05 -0.00 2.97 -2.29 10.25 0.84 -1.70 -0.27 4972
0.05 0.00 3.54 -2.14 10.16 0.82 -1.61 -0.25 4978
0.05 -0.00 3.26 -2.21 10.16 0.80 -1.55 -0.21 4984
0.04 -0.00 3.38 -2.31 9.77 0.78 -1.49 -0.20 4990
0.05 -0.00 3.45 -2.43 9.43 0.75 -1.44 -0.22 4998
0.06 -0.01 3.00 -2.48 9.65 0.70 -1.39 -0.29 5004
0.05 -0.01 2.63 -2.55 9.33 0.68 -1.34 -0.37 5010
0.04 -0.00 2.34 -2.73 9.21 0.63 -1.28 -0.49 5016
0.04 0.00 2.72 -2.88 9.13 0.59 -1.21 -0.59 5022
0.05 -0.00 2.27 -3.00 9.37 0.55 -1.16 -0.69 5028
0.04 -0.00 1.81 -3.11 8.91 0.50 -1.12 -0.77 5035
0.03 -0.00 2.21 -3.24 9.76 0.48 -1.11 -0.89 5041
0.05 -0.00 2.54 -3.32 9.11 0.46 -1.12 -0.97 5047
0.04 -0.00 1.78 -3.41 9.39 0.44 -1.13 -1.06 5054
0.04 -0.00 1.11 -3.33 9.39 0.43 -1.14 -1.12 5060
0.04 -0.00 1.19 -3.42 9.28 0.41 -1.13 -1.21 5066
0.06 -0.01 1.22 -3.38 9.79 0.39 -1.14 -1.25 5072
0.06 -0.01 1.48 -3.32 9.59 0.37 -1.13 -1.29 5079
0.06 -0.01 2.16 -3.22 9.57 0.34 -1.11 -1.34 5085
0.06 -0.01 2.64 -3.11 8.51 0.32 -1.08 -1.38 5091
0.07 -0.01 2.20 -3.14 8.76 0.29 -1.02 -1.42 5097
0.06 -0.01 2.52 -3.04 9.36 0.27 -0.98 -1.44 5104
0.05 -0.01 0.98 -3.17 9.33 0.21 -0.93 -1.51 5110
0.06 0.00 0.97 -2.88 9.84 0.20 -0.89 -1.53 5116
0.07 -0.01 2.23 -3.44 7.57 0.16 -0.81 -1.61 5123
0.06 -0.01 0.67 -3.38 10.27 0.14 -0.78 -1.65 5129
0.06 -0.01 1.27 -3.14 9.22 0.09 -0.75 -1.71 5135
0.07 -0.01 3.00 -3.34 7.85 0.08 -0.69 -1.74 5141
0.05 -0.01 2.21 -3.12 8.25 0.02 -0.59 -1.78 5147
0.05 -0.01 2.69 -3.33 8.09 -0.01 -0.52 -1.80 5154
0.05 -0.01 1.99 -3.22 8.64 -0.08 -0.41 -1.83 5160
0.06 -0.01 2.00 -3.38 9.03 -0.11 -0.32 -1.84 5167
0.05 -0.01 2.57 -3.42 8.60 -0.17 -0.21 -1.86 5173
0.04 -0.00 2.71 -3.54 8.59 -0.20 -0.11 -1.85 5179
0.05 -0.00 2.70 -3.58 8.74 -0.24 -0.01 -1.82 5185
0.06 -0.01 2.64 -3.41 8.82 -0.26 0.06 -1.76 5191
0.05 -0.01 2.57 -3.42 8.84 -0.29 0.11 -1.69 5197
0.04 -0.00 2.45 -3.40 8.85 -0.32 0.14 -1.58 5204
0.05 -0.00 2.26 -3.42 8.81 -0.36 0.11 -1.49 5211
0.05 -0.01 2.05 -3.47 8.74 -0.40 0.04 -1.34 5217
0.05 -0.01 2.00 -3.49 8.52 -0.46 -0.07 -1.16 5223
0.05 -0.01 2.09 -4.88 8.15 -0.49 -0.19 -0.93 5229
0.07 -0.01 2.42 -4.59 8.53 -0.55 -0.28 -0.72 5235
0.06 -0.01 1.91 -4.95 9.14 -0.61 -0.33 -0.54 5241
0.05 -0.00 2.56 -4.36 9.75 -0.68 -0.27 -0.37 5248
0.05 -0.01 2.69 -4.18 9.80 -0.79 -0.20 -0.26 5255
0.06 -0.01 2.99 -2.57 9.23 -0.93 -0.12 -0.14 5261
0.05 -0.01 3.47 -1.35 8.86 -1.11 -0.01 -0.05 5267
0.04 -0.00 3.44 -3.21 7.88 -1.30 0.15 0.05 5273
0.04 0.01 3.79 -3.65 9.57 -1.40 0.34 0.12 5279
0.05 -0.00 3.58 -3.49 10.15 -1.50 0.50 0.17 5285
0.05 -0.00 3.24 -3.71 9.42 -1.55 0.62 0.19 5292
0.04 0.00 3.09 -3.88 8.89 -1.53 0.73 0.20 5298
0.05 -0.00 2.87 -4.00 8.40 -1.50 0.80 0.22 5305
0.05 -0.00 2.65 -4.12 8.03 -1.43 0.84 0.24 5311
0.05 -0.00 2.48 -4.22 7.81 -1.34 0.86 0.26 5317
0.04 -0.00 2.38 -4.24 7.52 -1.24 0.87 0.27 5323
0.06 -0.00 2.15 -4.42 7.45 -1.10 0.84 0.29 5329
0.05 -0.00 2.09 -4.45 7.54 -0.96 0.82 0.30 5336
0.04 -0.00 2.13 -4.41 7.62 -0.82 0.80 0.31 5342
0.05 0.00 2.17 -4.38 7.73 -0.68 0.79 0.33 5348
0.06 0.00 2.32 -4.34 7.96 -0.57 0.80 0.35 5354
0.05 -0.00 2.53 -4.26 8.30 -0.48 0.84 0.36 5361
0.04 0.00 -9.44 -16.92 8.55 -0.43 0.93 0.27 5367
0.07 -0.01 2.66 -5.92 15.78 -0.33 1.40 -0.07 5373
0.05 -0.01 1.69 -3.98 12.23 -0.81 1.49 -0.24 5380
0.04 -0.00 0.43 -3.00 11.56 -1.03 1.81 -0.42 5386
0.05 -0.01 0.85 -2.65 10.19 -1.20 2.01 -0.51 5392
0.05 -0.01 0.29 -3.75 8.45 -1.28 2.03 -0.51 5399
0.05 -0.00 1.24 -4.33 8.25 -1.27 1.88 -0.42 5405
0.06 -0.01 0.99 -5.60 9.02 -1.18 1.68 -0.30 5411
0.07 -0.00 1.46 -5.35 9.95 -1.05 1.52 -0.20 5417
0.06 -0.01 1.66 -5.33 9.98 -0.99 1.37 -0.09 5424
0.04 -0.00 2.42 -4.72 10.71 -0.98 1.33 -0.02 5430
0.05 -0.00 2.38 -4.31 10.34 -1.02 1.31 0.05 5436
0.04 -0.00 2.58 -4.15 9.92 -1.07 1.29 0.14 5443
0.05 -0.00 2.89 -4.52 9.35 -1.08 1.25 0.24 5449
0.05 -0.00 3.07 -4.73 9.50 -1.04 1.17 0.35 5455
0.06 -0.01 3.08 -5.09 9.84 -0.97 1.09 0.45 5462
0.05 -0.01 1.40 -6.02 11.76 -0.91 1.01 0.42 5468
0.04 -0.00 2.34 -5.35 11.80 -0.96 0.97 0.32 5474
0.05 0.00 1.85 -5.22 11.10 -1.02 0.97 0.17 5480
0.05 -0.01 3.37 -4.47 10.82 -1.05 1.03 0.07 5487
0.05 -0.00 3.95 -4.75 9.85 -1.07 1.12 0.08 5493
0.04 -0.00 5.00 -4.83 10.42 -1.02 1.28 0.12 5499
0.04 -0.00 5.27 -5.38 10.05 -0.98 1.40 0.21 5506
0.04 -0.00 4.80 -5.48 10.59 -0.95 1.46 0.29 5512
0.03 -0.00 4.29 -5.20 10.49 -0.91 1.47 0.42 5518
0.04 -0.00 1.37 -5.60 10.24 -0.86 1.44 0.55 5524
0.04 -0.00 -1.68 -5.42 13.47 -0.90 1.01 0.50 5531
0.03 -0.00 -1.50 -3.22 11.60 -1.00 0.34 0.50 5537
0.04 -0.00 -0.09 -3.40 9.19 -0.96 0.16 0.65 5543
0.05 -0.00 -3.51 -3.94 12.03 -0.94 0.05 0.66 5550
0.04 -0.00 0.50 -4.54 11.34 -0.86 0.09 0.66 5556
0.04 -0.00 -2.32 -5.46 12.98 -0.82 0.04 0.62 5562
0.05 -0.00 -4.16 -3.32 11.82 -0.77 0.03 0.55 5568
0.04 -0.00 -3.53 -3.78 12.51 -0.79 0.16 0.47 5575
0.04 -0.00 -11.01 -3.82 10.88 -0.80 0.26 0.37 5581
0.05 -0.00 -3.77 -3.78 14.14 -0.84 0.30 0.29 5587
0.05 -0.00 -5.37 -2.87 10.29 -0.87 0.35 0.25 5594
0.05 -0.00 -4.73 -2.57 8.44 -0.83 0.25 0.16 5600
0.05 -0.01 -6.17 -3.33 7.92 -0.78 0.10 0.08 5606
0.06 -0.01 -6.77 -4.17 10.19 -0.71 -0.14 -0.04 5612
0.05 -0.01 -11.00 -8.13 17.34 -0.56 -0.61 -0.16 5619
0.05 -0.00 -9.25 -4.95 10.03 -0.24 -1.10 0.04 5625
0.06 -0.01 -7.42 -4.71 7.85 -0.10 -1.45 0.13 5632
0.05 -0.01 -7.95 -5.53 8.56 0.05 -1.87 0.16 5638
0.04 -0.00 -30.12 -4.66 23.30 0.25 -1.73 0.62 5644
0.05 -0.01 -12.61 -1.77 13.67 0.63 -1.71 0.80 5650
0.05 0.00 -15.51 -4.85 22.32 0.32 -1.22 0.40 5657
0.05 -0.00 -3.65 -2.69 5.58 0.01 -0.44 -0.07 5663
0.04 0.01 -2.31 -1.29 9.38 -0.17 0.10 -0.12 5669
0.05 0.01 -1.00 -0.34 9.37 -0.28 0.41 -0.07 5676
0.04 0.02 0.47 -0.71 11.09 -0.37 0.37 0.06 5682
0.05 0.01 1.48 -0.65 10.12 -0.35 0.08 0.18 5689
0.05 0.02 1.46 -0.17 10.37 -0.14 -0.14 0.18 5695
0.05 0.04 0.95 -1.02 10.40 -0.13 -0.12 0.12 5701
0.06 0.08 0.89 -0.92 9.98 -0.11 -0.11 0.11 5707
0.06 0.10 0.63 -0.96 9.96 -0.11 -0.07 0.09 5713
0.06 0.11 0.67 -0.91 9.99 -0.10 -0.07 0.08 5720
0.05 0.23 0.96 -0.92 9.98 -0.09 -0.06 0.07 5727
0.06 0.29 0.70 -0.96 10.10 -0.08 -0.04 0.07 5733
0.04 0.32 0.72 -0.88 10.04 -0.07 -0.03 0.06 5739
0.05 0.35 0.71 -0.76 10.12 -0.05 -0.03 0.06 5745
0.06 0.34 0.80 -0.75 10.06 -0.03 -0.03 0.05 5751
0.08 0.36 0.76 -0.72 10.01 -0.01 -0.04 0.05 5757
0.07 0.38 0.67 -0.78 9.98 0.00 -0.05 0.04 5765
0.09 0.37 0.68 -0.80 9.95 0.00 -0.04 0.05 5771
0.07 0.33 0.69 -0.79 9.96 0.00 -0.05 0.03 5777
0.06 0.29 0.69 -0.84 9.97 -0.00 -0.05 0.04 5783
0.10 0.28 0.67 -0.85 9.99 -0.00 -0.05 0.04 5789
0.11 0.26 0.67 -0.87 9.98 -0.01 -0.05 0.04 5795
0.12 0.25 0.59 -0.86 9.98 -0.02 -0.05 0.04 5801
0.12 0.26 0.65 -0.80 9.85 -0.02 -0.05 0.05 5809
0.12 0.27 0.61 -0.84 9.95 -0.03 -0.04 0.06 5815
0.10 0.28 0.62 -0.80 9.99 -0.03 -0.04 0.06 5821
0.10 0.29 0.59 -0.81 9.98 -0.03 -0.04 0.07 5827
0.12 0.31 0.60 -0.80 9.97 -0.03 -0.04 0.07 5833
0.12 0.30 0.60 -0.79 9.95 -0.03 -0.04 0.08 5839
0.13 0.33 0.59 -0.78 9.98 -0.03 -0.03 0.09 5846
0.12 0.35 0.60 -0.77 9.97 -0.03 -0.03 0.09 5853
0.14 0.33 0.62 -0.76 9.98 -0.03 -0.03 0.09 5859
0.12 0.37 0.63 -0.78 9.96 -0.03 -0.02 0.09 5865
0.12 0.37 0.66 -0.76 9.98 -0.03 -0.03 0.09 5871
0.13 0.39 0.62 -0.76 9.98 -0.02 -0.03 0.09 5877
0.13 0.37 0.68 -0.75 9.95 -0.02 -0.03 0.09 5883
0.13 0.39 0.64 -0.75 9.96 -0.02 -0.03 0.09 5890
0.14 0.48 0.62 -0.76 9.96 -0.02 -0.03 0.08 5897
0.13 0.54 0.63 -0.75 9.92 -0.03 -0.03 0.09 5903
0.12 0.52 0.64 -0.75 9.93 -0.02 -0.03 0.09 5909
0.11 0.50 0.63 -0.74 9.94 -0.02 -0.03 0.09 5915
0.12 0.52 0.61 -0.74 9.98 -0.02 -0.03 0.09 5921
0.11 0.53 0.63 -0.73 9.95 -0.02 -0.03 0.09 5927
0.09 0.56 0.62 -0.74 9.92 -0.02 -0.02 0.09 5934
0.11 0.59 0.61 -0.75 9.92 -0.02 -0.03 0.09 5941
0.11 0.59 0.01 -0.72 9.96 -0.02 -0.03 0.09 5947
0.10 0.60 0.66 -0.73 9.95 -0.02 -0.03 0.09 5953
0.09 0.65 0.79 -0.66 9.82 -0.02 -0.03 0.09 5959
0.11 0.67 0.60 -0.74 9.94 -0.02 -0.04 0.10 5965
0.10 0.66 0.62 -0.73 9.92 -0.02 -0.03 0.10 5971
0.09 0.66 0.63 -0.73 9.95 -0.02 -0.03 0.09 5978
0.09 0.72 0.62 -0.73 9.92 -0.02 -0.04 0.09 5985
0.10 0.74 0.63 -0.71 9.92 -0.02 -0.04 0.10 5991
0.09 0.76 0.63 -0.70 9.92 -0.02 -0.04 0.10 5997
0.09 0.79 0.64 -0.68 9.99 -0.02 -0.04 0.09 6003
0.10 0.75 0.64 -0.70 9.95 -0.02 -0.04 0.09 6009
0.10 0.75 0.66 -0.69 9.93 -0.02 -0.04 0.10 6016
0.09 0.77 0.63 -0.72 9.95 -0.02 -0.04 0.10 6022
0.11 0.81 0.61 -0.71 9.95 -0.02 -0.05 0.10 6029
0.11 0.79 0.66 -0.72 9.94 -0.02 -0.05 0.10 6035
0.11 0.75 0.62 -0.72 9.96 -0.02 -0.05 0.10 6041
0.12 0.82 0.63 -0.69 9.92 -0.02 -0.06 0.09 6047
0.14 0.80 0.61 -0.68 9.98 -0.02 -0.06 0.09 6053
0.14 0.84 0.68 -0.70 10.00 -0.03 -0.06 0.09 6060
0.15 0.82 0.60 -0.68 9.92 -0.03 -0.06 0.07 6067
0.16 0.86 0.62 -0.72 9.93 -0.03 -0.06 0.09 6073
0.16 0.87 0.61 -0.70 9.92 -0.03 -0.06 0.09 6079
0.15 0.85 0.58 -0.69 9.97 -0.03 -0.06 0.11 6085
0.16 0.90 0.59 -0.66 9.94 -0.04 -0.05 0.10 6091
0.17 0.89 0.57 -0.68 9.96 -0.04 -0.04 0.10 6097
0.17 0.92 0.69 -0.72 9.92 -0.04 -0.04 0.11 6104
0.18 0.96 0.65 -0.67 9.99 -0.04 -0.04 0.10 6111
0.17 0.95 0.63 -0.66 10.04 -0.03 -0.03 0.11 6117
0.17 0.94 0.64 -0.68 10.01 -0.03 -0.03 0.11 6123
0.18 1.01 0.64 -0.67 9.98 -0.03 -0.04 0.10 6129
0.20 0.99 0.58 -0.68 10.07 -0.03 -0.04 0.11 6135
0.18 1.01 0.63 -0.67 9.97 -0.03 -0.04 0.10 6142
0.20 1.02 0.63 -0.67 9.96 -0.02 -0.05 0.10 6149
0.21 1.04 0.64 -0.67 9.97 -0.02 -0.05 0.10 6155
0.21 1.04 0.63 -0.69 9.96 -0.02 -0.05 0.10 6161
0.22 1.02 0.60 -0.68 9.91 -0.02 -0.05 0.10 6167
0.24 1.00 1.22 -0.68 9.97 -0.02 -0.06 0.10 6173
0.24 1.01 0.62 -0.67 9.93 -0.02 -0.06 0.09 6179
0.23 1.01 0.60 -0.67 9.99 -0.01 -0.06 0.09 6187
0.24 1.02 0.63 -0.69 9.92 -0.01 -0.06 0.09 6193
0.24 1.03 0.60 -0.69 10.00 -0.01 -0.06 0.09 6199
0.24 1.04 0.63 -0.73 9.94 -0.01 -0.06 0.09 6205
0.24 1.04 0.59 -0.66 10.02 -0.01 -0.06 0.10 6211
0.27 1.03 0.61 -0.66 9.98 -0.01 -0.06 0.10 6217
0.26 0.99 0.62 -0.64 9.99 -0.00 -0.06 0.09 6224
0.27 0.99 0.57 -0.68 9.99 -0.01 -0.06 0.10 6231
0.27 0.98 0.61 -0.68 9.99 -0.00 -0.06 0.09 6237
0.28 1.00 0.61 -0.64 9.98 -0.00 -0.06 0.13 6243
0.28 1.01 0.63 -0.64 9.99 -0.00 -0.07 0.10 6249
0.30 1.01 0.64 -0.68 9.95 -0.00 -0.07 0.09 6255
0.28 1.00 0.60 -0.70 9.95 -0.01 -0.07 0.09 6261
0.29 1.00 0.59 -0.64 9.96 -0.01 -0.07 0.08 6268
0.29 1.00 0.63 -0.65 9.84 -0.01 -0.08 0.08 6275
0.30 1.01 0.60 -0.67 9.99 -0.01 -0.08 0.08 6281
0.28 1.00 1.21 -0.73 9.99 -0.02 -0.08 0.08 6287
0.28 0.98 0.60 -0.68 9.92 -0.02 -0.08 0.07 6293
0.31 1.01 0.60 -0.68 9.97 -0.02 -0.08 0.08 6299
0.32 1.04 0.55 -0.66 9.95 -0.02 -0.07 0.08 6305
0.32 1.03 0.58 -0.67 10.00 -0.02 -0.07 0.08 6312
0.33 1.04 0.57 -0.68 9.94 -0.01 -0.06 0.08 6319
0.32 1.05 0.59 -0.66 9.97 -0.01 -0.06 0.08 6325
0.31 1.03 0.52 -0.66 9.97 -0.01 -0.06 0.08 6331
0.31 1.06 0.55 -0.69 9.96 -0.01 -0.06 0.08 6337
0.32 1.07 0.58 -0.65 9.98 -0.01 -0.06 0.08 6343
0.32 1.07 0.59 -0.68 9.98 -0.01 -0.05 0.08 6350
0.31 1.08 0.55 -0.68 9.97 -0.00 -0.05 0.08 6356
0.34 1.07 0.58 -0.66 9.97 -0.00 -0.05 0.09 6363
0.34 1.09 0.56 -0.67 9.99 -0.01 -0.05 0.08 6369
0.32 1.07 0.57 -0.66 9.94 -0.00 -0.05 0.09 6375
0.33 1.08 0.59 -0.70 9.95 -0.00 -0.05 0.09 6381
0.35 1.08 0.56 -0.67 9.94 -0.00 -0.05 0.08 6387
0.35 1.07 0.56 -0.69 9.94 -0.00 -0.05 0.08 6394
0.34 1.07 0.56 -0.66 9.94 -0.01 -0.05 0.08 6401
0.36 1.07 0.58 -0.67 9.95 -0.01 -0.05 0.08 6407
0.34 1.08 0.54 -0.69 9.95 -0.01 -0.05 0.08 6413
0.33 1.07 0.56 -0.65 9.97 -0.00 -0.05 0.08 6419
0.34 1.08 0.55 -0.68 9.98 -0.01 -0.05 0.09 6425
0.34 1.07 0.52 -0.68 9.97 -0.01 -0.04 0.09 6431
0.34 1.06 0.57 -0.66 9.96 -0.01 -0.04 0.08 6438
0.35 1.07 0.53 -0.66 9.99 -0.01 -0.03 0.09 6445
0.37 1.08 0.58 -0.67 9.96 -0.01 -0.03 0.08 6451
0.36 1.06 0.56 -0.66 9.97 -0.00 -0.03 0.09 6457
0.36 1.05 0.56 -0.71 10.00 -0.00 -0.03 0.09 6463
0.37 1.05 0.58 -0.68 9.98 -0.00 -0.03 0.08 6469
0.36 1.02 0.56 -0.67 9.95 -0.00 -0.03 0.08 6476
0.34 1.01 0.57 -0.65 9.99 -0.00 -0.03 0.08 6482
0.35 1.02 0.55 -0.65 9.98 -0.00 -0.03 0.09 6489
0.35 1.00 0.57 -0.67 9.95 -0.00 -0.03 0.09 6495
0.36 0.99 0.55 -0.64 9.97 -0.00 -0.03 0.09 6501
0.36 1.00 0.56 -0.67 9.97 -0.00 -0.03 0.09 6507
0.37 0.97 0.56 -0.67 9.97 -0.00 -0.03 0.09 6513
0.37 0.97 0.58 -0.69 9.96 -0.00 -0.03 0.09 6519
0.36 0.96 0.56 -0.65 9.95 -0.00 -0.03 0.10 6526
0.37 0.96 0.59 -0.68 9.99 -0.00 -0.03 0.09 6533
0.37 0.93 0.56 -0.67 9.97 -0.00 -0.03 0.09 6539
0.37 0.90 0.57 -0.66 9.93 -0.01 -0.03 0.09 6545
0.38 0.92 0.57 -0.67 9.93 -0.00 -0.02 0.09 6551
0.39 0.88 0.56 -0.67 9.92 -0.00 -0.02 0.09 6557
0.37 0.84 0.55 -0.68 9.95 -0.01 -0.02 0.09 6563
0.36 0.83 0.55 -0.66 9.96 -0.01 -0.02 0.08 6571
0.37 0.80 0.57 -0.66 9.94 -0.01 -0.01 0.09 6577
0.35 0.78 0.54 -0.68 9.93 -0.01 -0.00 0.09 6583
0.33 0.82 0.56 -0.67 9.97 -0.00 -0.00 0.10 6589
0.32 0.79 0.59 -0.66 9.97 -0.00 -0.00 0.09 6595
0.32 0.77 0.59 -0.65 9.97 -0.00 -0.01 0.09 6601
0.31 0.73 1.19 -0.64 10.00 0.00 -0.01 0.09 6607
0.31 0.69 0.63 -0.69 9.94 0.00 -0.02 0.09 6615
0.33 0.70 0.62 -0.68 10.02 0.00 -0.02 0.09 6621
0.32 0.71 0.62 -0.68 9.95 0.00 -0.03 0.09 6627
0.32 0.67 0.58 -0.69 9.97 0.00 -0.03 0.09 6633
0.33 0.65 0.61 -0.67 9.97 -0.00 -0.03 0.09 6639
0.34 0.68 0.60 -0.71 9.96 -0.00 -0.03 0.09 6645
0.34 0.66 0.57 -0.68 9.98 -0.00 -0.03 0.10 6652
0.33 0.68 0.60 -0.66 9.95 0.00 -0.02 0.08 6659
0.34 0.68 0.54 -0.65 9.95 0.00 -0.02 0.10 6665
0.35 0.65 0.58 -0.66 9.95 0.00 -0.02 0.09 6671
0.34 0.63 0.56 -0.66 9.96 0.00 -0.01 0.10 6677
0.34 0.62 0.57 -0.68 9.99 0.00 -0.01 0.09 6683
0.35 0.61 0.60 -0.68 9.97 0.00 -0.01 0.09 6689
0.34 0.59 0.62 -0.68 9.96 0.00 -0.00 0.09 6695
0.31 0.57 0.59 -0.68 9.89 0.00 0.01 0.10 6703
0.32 0.60 0.60 -0.67 9.94 -0.00 0.01 0.09 6709
0.31 0.57 0.60 -0.67 9.99 0.00 0.01 0.10 6715
0.29 0.54 0.61 -0.65 9.98 0.01 0.01 0.10 6721
0.28 0.55 0.63 -0.64 9.98 0.01 0.00 0.09 6727
0.28 0.49 0.63 -0.69 10.00 0.01 -0.00 0.09 6733
0.26 0.48 0.68 -0.68 9.90 0.01 -0.01 0.09 6739
0.25 0.49 0.60 -0.70 9.98 0.01 -0.01 0.10 6746
0.26 0.46 0.60 -0.68 9.97 0.01 -0.01 0.09 6753
0.27 0.43 0.63 -0.70 9.94 0.01 -0.01 0.09 6759
0.28 0.40 0.57 -0.68 9.93 0.01 -0.01 0.09 6765
0.28 0.34 0.60 -0.70 9.92 0.01 -0.01 0.08 6771
0.30 0.37 0.62 -0.67 9.97 0.01 -0.00 0.09 6777
0.29 0.36 0.62 -0.66 9.95 0.01 -0.00 0.09 6784
0.30 0.32 0.65 -0.69 9.89 0.01 -0.00 0.09 6790
0.29 0.31 0.65 -0.71 9.92 0.01 0.00 0.09 6797
0.29 0.29 0.67 -0.67 9.93 0.01 0.01 0.09 6803
0.28 0.28 0.63 -0.70 9.93 0.01 0.01 0.09 6809
0.29 0.25 0.68 -0.71 9.98 0.01 0.02 0.10 6815
0.30 0.22 0.63 -0.68 9.96 0.01 0.02 0.09 6821
0.28 0.23 0.66 -0.68 9.96 0.01 0.02 0.09 6828
0.27 0.19 0.63 -0.67 9.95 0.02 0.01 0.10 6834
0.26 0.18 0.68 -0.71 9.94 0.01 0.00 0.09 6840
0.28 0.12 0.66 -0.74 9.99 0.01 -0.00 0.09 6847
0.28 0.11 0.67 -0.72 9.95 0.01 -0.01 0.10 6853
0.27 0.14 0.69 -0.71 9.99 0.01 -0.01 0.10 6859
0.29 0.11 0.68 -0.73 9.93 0.01 -0.01 0.09 6865
0.29 0.14 0.71 -0.72 9.96 0.02 -0.02 0.10 6872
0.28 0.09 0.70 -0.75 9.96 0.01 -0.02 0.09 6878
0.29 0.09 0.68 -0.74 9.93 0.01 -0.02 0.10 6884
0.30 0.05 0.71 -0.73 9.92 0.01 -0.02 0.09 6891
0.29 0.07 0.70 -0.69 9.95 0.00 -0.02 0.10 6897
0.29 0.07 0.68 -0.73 9.90 0.00 -0.02 0.09 6903
0.30 0.07 0.70 -0.73 9.95 0.00 -0.02 0.09 6909
0.30 0.07 0.68 -0.71 9.92 0.01 -0.02 0.10 6916
0.31 0.04 0.69 -0.74 9.95 0.01 -0.01 0.09 6922
0.30 0.06 0.67 -0.72 9.96 0.00 -0.01 0.09 6928
0.31 0.05 0.66 -0.74 9.99 0.00 -0.01 0.09 6934
0.31 0.05 0.67 -0.73 9.96 0.00 -0.01 0.10 6941
0.32 0.05 0.71 -0.71 9.93 0.01 -0.01 0.10 6947
0.33 0.06 0.72 -0.70 9.91 0.01 -0.01 0.09 6953
0.33 0.03 0.73 -0.70 9.97 0.01 -0.01 0.09 6960
0.33 0.04 0.66 -0.77 9.92 0.01 -0.01 0.09 6966
0.30 0.07 0.68 -0.74 9.96 0.01 -0.01 0.10 6972
0.32 0.05 0.69 -0.72 9.94 0.01 -0.01 0.10 6978
0.30 0.04 0.74 -0.71 9.98 0.00 -0.01 0.09 6985
0.26 0.03 0.76 -0.76 9.94 0.01 -0.01 0.10 6991
0.27 0.04 0.73 -0.75 9.93 0.00 -0.01 0.10 6998
0.25 0.04 0.72 -0.73 9.91 0.00 -0.01 0.09 7004
0.25 0.01 0.74 -0.73 9.95 -0.00 -0.01 0.10 7010
0.21 0.01 0.76 -0.74 9.95 0.00 -0.01 0.09 7016
0.19 0.02 0.73 -0.78 9.98 0.00 -0.02 0.10 7022
0.16 0.03 0.75 -0.79 9.99 0.00 -0.02 0.09 7028
0.13 0.01 0.78 -0.76 10.00 -0.00 -0.02 0.09 7035
0.14 0.03 0.78 -0.75 9.96 -0.00 -0.03 0.10 7042
0.11 0.02 0.77 -0.75 9.92 -0.00 -0.03 0.09 7048
0.11 0.01 0.77 -0.72 9.87 -0.00 -0.02 0.09 7054
0.10 0.03 0.80 -0.70 9.30 -0.00 -0.04 0.09 7060
0.11 0.06 0.77 -0.72 10.00 0.01 -0.04 0.08 7066
0.12 0.02 0.76 -0.74 9.97 0.02 -0.04 0.08 7072
0.12 -0.01 0.65 -0.77 10.01 0.02 -0.04 0.07 7079
0.12 0.01 0.75 -0.80 9.96 0.02 -0.03 0.07 7086
0.13 0.01 0.80 -0.77 9.99 0.03 -0.03 0.06 7092
0.12 -0.01 0.78 -0.78 10.02 0.03 -0.03 0.05 7098
0.11 -0.00 0.93 -0.84 10.05 0.03 -0.01 0.04 7104
0.12 -0.01 0.71 -0.73 10.04 0.05 -0.01 0.05 7110
0.12 0.01 0.75 -0.80 9.95 0.05 0.01 0.06 7117
0.09 -0.00 0.53 -0.86 10.07 0.07 0.03 0.05 7123
0.10 0.00 0.84 -0.80 10.00 0.09 0.03 0.05 7130
0.10 0.00 0.68 -0.74 10.12 0.12 0.06 0.05 7136
0.09 -0.00 0.51 -0.78 10.32 0.15 0.10 0.04 7142
0.09 0.01 0.55 -0.89 10.70 0.21 0.16 0.03 7148
0.10 0.00 0.74 -0.86 10.07 0.29 0.22 0.03 7155
0.10 -0.00 0.84 -1.04 9.74 0.35 0.25 0.02 7161
0.08 0.03 0.88 -1.07 10.57 0.40 0.33 0.01 7168
0.08 -0.00 1.03 -0.95 11.02 0.49 0.37 0.01 7174
0.07 -0.00 0.97 -1.13 11.34 0.55 0.39 0.00 7180
0.08 -0.00 1.17 -1.14 10.79 0.59 0.39 -0.01 7186
0.08 -0.00 0.99 -1.00 10.82 0.62 0.35 -0.03 7193
0.07 -0.01 1.30 -1.37 10.98 0.64 0.33 -0.04 7199
0.07 -0.00 1.36 -1.38 10.48 0.66 0.35 -0.05 7205
0.09 -0.01 1.09 -1.48 10.55 0.67 0.38 -0.06 7212
0.06 -0.01 1.16 -1.33 10.70 0.70 0.43 -0.06 7218
0.06 -0.01 1.06 -1.48 10.66 0.73 0.49 -0.06 7224
0.06 -0.01 1.13 -1.43 10.57 0.74 0.50 -0.05 7231
0.05 -0.01 1.09 -1.48 10.59 0.76 0.53 -0.04 7237
0.05 -0.01 0.93 -1.58 10.95 0.79 0.60 -0.02 7243
0.06 -0.00 1.12 -1.73 10.82 0.82 0.67 -0.00 7249
0.05 -0.01 1.18 -1.86 10.59 0.83 0.77 0.01 7256
0.05 -0.01 1.08 -2.11 11.28 0.85 0.88 0.05 7262
0.05 -0.00 1.20 -2.25 11.10 0.85 1.01 0.09 7269
0.05 -0.00 0.97 -2.01 11.19 0.85 1.13 0.14 7275
0.06 -0.01 0.93 -2.55 11.29 0.85 1.26 0.20 7281
0.06 -0.01 0.83 -2.59 11.40 0.85 1.36 0.28 7287
0.07 -0.01 0.96 -3.67 11.63 0.85 1.49 0.39 7293
0.06 -0.01 0.70 -2.74 11.38 0.86 1.59 0.44 7300
0.05 -0.01 0.50 -2.86 11.35 0.86 1.59 0.53 7306
0.07 -0.01 0.74 -2.96 11.25 0.84 1.58 0.62 7313
0.08 -0.01 1.16 -2.64 11.14 0.82 1.63 0.70 7319
0.06 -0.01 1.39 -2.71 10.79 0.81 1.69 0.74 7325
0.07 -0.00 1.43 -2.57 10.74 0.80 1.75 0.78 7331
0.07 -0.01 1.31 -2.74 10.40 0.79 1.78 0.81 7337
0.06 -0.01 1.26 -2.77 10.54 0.81 1.79 0.85 7344
0.06 -0.01 1.27 -2.87 9.91 0.83 1.76 0.91 7350
0.07 -0.01 1.24 -3.23 9.21 0.88 1.75 0.94 7357
0.06 -0.01 1.44 -3.03 9.52 0.93 1.68 0.96 7363
0.05 -0.00 1.76 -3.23 9.52 0.99 1.61 0.97 7369
0.05 -0.01 1.65 -3.48 9.55 1.06 1.54 0.94 7375
0.06 -0.01 1.84 -3.74 9.74 1.07 1.49 0.87 7382
0.05 -0.00 1.51 -3.93 9.92 1.11 1.43 0.74 7388
0.04 -0.00 1.12 -4.25 9.37 1.14 1.37 0.59 7394
0.05 -0.00 -1.42 -4.45 10.11 1.15 1.20 0.40 7400
0.06 -0.01 -1.91 -4.53 9.22 1.13 0.94 0.08 7407
0.05 -0.01 -2.68 -4.23 9.07 1.09 0.58 -0.21 7413
0.05 -0.01 -2.20 -4.15 9.51 1.01 0.18 -0.48 7419
0.06 -0.01 -5.27 -4.62 9.39 0.93 -0.20 -0.76 7426
0.05 -0.00 -1.16 -3.90 9.31 0.87 -0.59 -1.10 7432
0.04 -0.00 -3.94 -4.13 9.62 0.78 -0.94 -1.36 7438
0.04 -0.00 -0.58 -3.71 9.99 0.75 -1.23 -1.53 7444
0.05 -0.01 -0.75 -3.60 9.33 0.66 -1.47 -1.69 7450
0.04 -0.00 0.83 -3.30 9.92 0.60 -1.64 -1.73 7456
0.04 -0.00 1.12 -3.09 10.06 0.53 -1.71 -1.79 7463
0.05 0.00 1.91 -2.97 9.78 0.49 -1.78 -1.80 7470
0.05 -0.01 2.91 -3.00 9.09 0.49 -1.78 -1.77 7476
0.05 -0.00 3.73 -2.91 8.86 0.48 -1.77 -1.66 7482
0.04 -0.00 2.87 -2.82 8.85 0.49 -1.75 -1.55 7488
0.05 -0.00 4.48 -2.58 8.87 0.52 -1.76 -1.35 7494
0.05 -0.00 2.39 -2.71 9.36 0.55 -1.77 -1.13 7500
0.04 -0.00 3.99 -2.60 8.97 0.58 -1.79 -1.00 7507
0.04 -0.00 4.48 -2.46 9.27 0.60 -1.88 -0.77 7514
0.06 -0.01 4.67 -2.39 9.27 0.61 -1.93 -0.54 7520
0.05 -0.00 3.75 -2.24 9.27 0.60 -1.96 -0.36 7526
0.05 -0.00 3.78 -2.04 9.80 0.58 -2.02 -0.24 7532
0.04 -0.00 3.71 -2.18 9.45 0.55 -2.05 -0.08 7538
0.06 -0.01 3.97 -2.50 9.30 0.52 -2.03 0.04 7544
0.04 -0.00 3.16 -2.31 8.98 0.49 -1.98 0.14 7550
0.04 -0.00 3.21 -2.29 9.07 0.44 -1.85 0.11 7557
0.05 -0.00 3.76 -2.57 9.39 0.38 -1.77 0.05 7563
0.05 -0.01 2.57 -2.54 8.92 0.31 -1.54 -0.04 7570
0.06 -0.01 1.92 -2.70 9.21 0.24 -1.33 -0.14 7576
0.05 -0.00 1.78 -2.66 9.06 0.18 -1.15 -0.26 7582
0.05 -0.00 0.69 -2.67 8.87 0.15 -1.01 -0.43 7588
0.06 -0.01 0.19 -2.68 8.27 0.13 -0.97 -0.54 7595
0.05 -0.00 -0.29 -2.94 8.25 0.11 -0.95 -0.65 7601
0.04 -0.00 0.09 -2.95 8.76 0.10 -1.00 -0.71 7607
0.05 -0.00 0.07 -3.07 9.18 0.08 -1.12 -0.74 7613
0.05 -0.01 0.21 -3.14 9.30 0.06 -1.23 -0.69 7619
0.05 -0.00 0.39 -3.10 9.40 0.05 -1.32 -0.59 7625
0.05 -0.01 0.55 -2.97 9.72 0.04 -1.41 -0.49 7632
0.05 -0.00 0.29 -3.01 9.93 0.01 -1.49 -0.42 7639
0.06 -0.01 0.80 -2.50 10.41 -0.03 -1.56 -0.31 7645
0.06 -0.01 0.42 -2.92 10.32 -0.07 -1.59 -0.29 7651
0.05 -0.00 0.44 -2.60 10.30 -0.11 -1.62 -0.28 7657
0.05 0.00 0.09 -2.54 9.99 -0.15 -1.62 -0.32 7663
0.06 -0.01 0.56 -2.57 9.52 -0.17 -1.56 -0.37 7669
0.05 -0.00 0.87 -2.51 9.64 -0.19 -1.45 -0.47 7676
0.05 -0.00 1.33 -2.62 9.92 -0.22 -1.37 -0.58 7683
0.06 -0.01 0.78 -2.56 10.10 -0.25 -1.29 -0.70 7689
0.05 -0.01 0.36 -2.53 10.22 -0.29 -1.22 -0.85 7695
0.04 -0.00 -0.35 -2.47 9.98 -0.31 -1.19 -1.02 7701
0.05 -0.00 0.10 -2.58 9.79 -0.34 -1.17 -1.13 7707
0.06 -0.01 -0.52 -2.67 10.03 -0.36 -1.13 -1.30 7713
0.06 -0.01 -0.38 -2.57 10.08 -0.36 -1.13 -1.42 7720
0.05 -0.01 -0.22 -2.53 9.32 -0.37 -1.12 -1.53 7727
0.07 -0.01 -0.40 -2.50 9.44 -0.34 -1.10 -1.63 7733
0.05 -0.01 -0.46 -2.52 9.39 -0.37 -1.09 -1.71 7739
0.05 -0.00 -0.33 -2.51 9.52 -0.37 -1.05 -1.75 7745
0.05 -0.00 -0.35 -2.37 9.59 -0.38 -1.00 -1.77 7751
0.06 -0.01 -0.33 -2.16 9.63 -0.39 -0.94 -1.77 7757
0.05 -0.01 -0.11 -2.14 9.74 -0.40 -0.89 -1.75 7763
0.05 -0.01 -0.27 -2.12 9.84 -0.41 -0.86 -1.73 7771
0.07 -0.01 -0.23 -1.99 9.99 -0.43 -0.84 -1.69 7777
0.05 -0.01 -0.27 -1.88 10.04 -0.46 -0.84 -1.65 7783
0.05 -0.00 -0.18 -1.91 9.95 -0.50 -0.84 -1.61 7789
0.06 -0.00 0.04 -1.96 9.90 -0.54 -0.83 -1.58 7795
0.06 -0.01 0.22 -1.96 9.79 -0.57 -0.81 -1.55 7801
0.05 -0.01 0.54 -2.11 9.65 -0.61 -0.74 -1.52 7808
0.04 -0.00 0.80 -2.26 9.51 -0.63 -0.64 -1.51 7815
0.06 0.00 1.10 -2.38 9.29 -0.64 -0.52 -1.50 7821
0.06 -0.01 1.36 -2.55 9.05 -0.64 -0.38 -1.49 7827
0.05 -0.01 1.53 -2.72 8.93 -0.63 -0.22 -1.48 7833
0.05 -0.01 1.67 -2.87 8.88 -0.61 -0.09 -1.47 7839
0.07 -0.01 1.78 -2.92 8.95 -0.58 0.09 -1.45 7845
0.06 -0.01 1.72 -2.93 9.05 -0.56 0.25 -1.42 7852
0.05 -0.01 1.67 -2.92 9.20 -0.54 0.39 -1.36 7858
0.05 -0.01 1.64 -2.88 9.40 -0.55 0.51 -1.29 7864
0.07 -0.00 1.52 -2.83 9.62 -0.55 0.61 -1.21 7871
0.05 -0.00 1.44 -2.83 9.71 -0.58 0.67 -1.12 7877
0.05 -0.00 1.37 -2.87 9.69 -0.59 0.69 -1.03 7883
0.06 -0.00 1.38 -2.94 9.62 -0.60 0.69 -0.93 7889
0.05 -0.01 1.40 -3.02 9.63 -0.61 0.68 -0.82 7896
0.04 -0.00 1.54 -3.22 9.76 -0.61 0.65 -0.70 7902
0.04 -0.00 1.83 -3.33 9.92 -0.62 0.63 -0.59 7908
0.06 -0.00 2.27 -3.33 10.14 -0.64 0.65 -0.48 7915
0.05 -0.01 2.78 -3.43 10.28 -0.67 0.73 -0.39 7921
0.05 -0.00 3.15 -3.31 10.42 -0.72 0.84 -0.30 7927
0.04 0.01 3.28 -3.31 10.23 -0.78 1.03 -0.21 7933
0.05 0.00 3.30 -3.37 10.06 -0.81 1.17 -0.10 7940
0.04 -0.00 3.11 -3.40 9.94 -0.83 1.30 0.00 7946
0.05 0.00 2.87 -3.40 9.21 -0.82 1.40 0.13 7953
0.04 -0.00 2.58 -3.48 9.70 -0.79 1.43 0.27 7959
0.04 -0.00 2.34 -3.50 9.49 -0.75 1.41 0.42 7965
0.04 -0.00 2.17 -3.54 9.49 -0.70 1.35 0.56 7971
0.04 0.00 2.12 -3.57 9.58 -0.64 1.28 0.70 7977
0.04 -0.00 2.06 -3.58 9.75 -0.58 1.22 0.83 7984
0.04 -0.00 1.99 -3.63 10.00 -0.53 1.16 0.96 7990
0.04 -0.00 2.01 -3.64 10.25 -0.50 1.11 1.03 7996
0.04 -0.00 2.05 -3.56 10.52 -0.48 1.09 1.11 8003
0.03 -0.00 2.23 -3.44 10.87 -0.48 1.10 1.18 8009
0.03 -0.00 2.35 -3.28 11.06 -0.51 1.17 1.24 8015
0.05 -0.00 2.40 -3.17 11.13 -0.56 1.28 1.29 8022
0.04 -0.00 2.21 -3.00 11.05 -0.61 1.42 1.35 8028
0.04 -0.00 1.79 -3.04 10.99 -0.65 1.59 1.41 8034
0.05 0.00 1.38 -3.23 10.98 -0.69 1.76 1.49 8041
0.05 -0.01 0.84 -3.52 11.05 -0.71 1.83 1.57 8047
0.03 -0.00 0.28 -3.77 11.11 -0.71 1.84 1.63 8053
0.05 -0.00 -0.11 -3.85 10.93 -0.68 1.74 1.68 8059
0.05 -0.00 -0.44 -3.92 10.61 -0.64 1.56 1.71 8066
0.04 -0.00 -0.62 -3.93 10.32 -0.59 1.36 1.73 8072
0.05 -0.00 -0.57 -3.94 10.19 -0.53 1.18 1.74 8079
0.05 -0.00 -0.39 -3.93 10.16 -0.47 1.06 1.74 8085
0.04 -0.00 -0.24 -3.87 10.50 -0.43 1.01 1.73 8091
0.05 -0.00 0.00 -3.83 11.10 -0.39 1.00 1.70 8097
0.06 -0.01 0.22 -3.66 11.47 -0.38 1.05 1.66 8103
0.05 -0.01 0.27 -3.46 11.59 -0.41 1.13 1.61 8110
0.05 -0.01 0.11 -3.39 11.56 -0.46 1.21 1.55 8117
0.06 -0.01 -0.06 -3.35 11.21 -0.51 1.25 1.48 8123
0.05 -0.01 -0.40 -3.32 10.95 -0.54 1.26 1.41 8129
0.05 -0.01 -0.60 -3.29 10.64 -0.54 1.25 1.35 8135
0.07 -0.01 -0.80 -3.24 10.27 -0.51 1.23 1.29 8141
0.06 -0.01 -1.02 -3.22 10.08 -0.45 1.21 1.23 8147
0.05 -0.01 -1.09 -3.07 10.02 -0.40 1.19 1.16 8155
0.06 -0.01 -1.01 -2.97 10.35 -0.36 1.18 1.10 8161
0.05 -0.01 -7.07 -10.55 22.99 -0.36 0.24 0.81 8167
0.05 -0.00 -3.86 0.76 9.87 -0.47 -0.12 0.67 8173
0.06 -0.01 -5.71 -8.24 7.94 -0.43 -0.24 0.65 8179
0.06 -0.01 -8.94 -6.03 11.41 -0.33 -0.89 0.70 8185
0.06 -0.01 -6.38 -6.57 9.09 -0.19 -1.03 0.63 8192
0.05 -0.01 -3.56 -6.19 8.21 -0.11 -1.19 0.47 8199
0.06 -0.01 -2.57 -6.33 8.93 -0.03 -1.27 0.34 8205
0.05 -0.00 -10.47 -10.03 14.48 -0.01 -1.22 0.55 8211
0.04 -0.00 -7.22 -14.58 4.74 0.50 -0.47 0.80 8217
0.05 -0.01 -8.90 -9.78 7.36 0.37 -0.81 0.62 8223
0.04 -0.00 -8.09 -10.09 10.90 0.33 -1.09 0.53 8229
0.03 -0.00 -11.08 -13.55 10.81 0.33 -1.14 0.52 8237
0.05 -0.00 -11.26 -12.53 11.91 0.30 -0.99 0.31 8243
0.04 -0.00 -5.47 -6.90 6.90 0.14 -0.39 -0.05 8249
0.04 -0.00 -2.61 -2.73 7.64 -0.04 -0.08 -0.21 8255
0.05 0.00 -1.57 -1.43 8.78 -0.17 0.29 -0.16 8261
0.04 -0.00 -0.33 -0.55 10.09 -0.25 0.43 -0.05 8267
0.05 -0.00 0.28 -0.55 10.02 -0.33 0.36 0.09 8274
0.04 0.02 1.15 -0.61 10.35 -0.33 0.18 0.17 8281
0.05 0.00 1.05 -0.64 9.01 -0.30 0.09 0.20 8287
0.05 0.02 1.05 -1.30 9.44 -0.14 -0.08 0.11 8293
0.05 0.03 0.67 -1.00 10.05 -0.16 -0.08 0.10 8299
0.06 0.08 0.80 -1.13 9.98 -0.17 -0.06 0.09 8305
0.07 0.14 0.86 -1.09 10.06 -0.12 0.01 0.08 8312
0.05 0.17 0.61 -0.81 10.00 -0.10 0.03 0.07 8318
0.07 0.20 0.78 -0.83 10.11 -0.07 0.02 0.06 8325
0.07 0.24 0.49 -0.75 10.10 -0.04 0.01 0.05 8331
0.07 0.24 0.53 -0.81 10.20 -0.03 0.00 0.06 8337
0.09 0.24 0.57 -0.82 10.09 -0.02 -0.01 0.05 8344
0.08 0.23 0.59 -0.80 10.02 -0.01 -0.01 0.06 8350
0.07 0.22 0.57 -0.80 10.04 -0.01 -0.01 0.06 8356
0.09 0.22 0.53 -0.82 9.97 -0.00 -0.01 0.06 8363
0.09 0.22 0.55 -0.81 9.95 -0.01 -0.01 0.06 8369
0.10 0.22 0.59 -0.81 9.98 -0.01 -0.01 0.06 8375
0.10 0.23 0.57 -0.84 9.94 -0.02 -0.02 0.07 8381
0.12 0.24 0.57 -0.81 9.97 -0.03 -0.01 0.06 8388
0.11 0.25 0.57 -0.79 9.93 -0.03 -0.02 0.07 8394
0.12 0.24 0.50 -0.78 9.93 -0.03 -0.01 0.07 8400
0.10 0.28 0.54 -0.78 9.96 -0.03 -0.02 0.08 8407
0.11 0.25 0.54 -0.76 9.93 -0.04 -0.02 0.08 8413
0.10 0.25 0.51 -0.77 9.92 -0.04 -0.02 0.09 8419
0.12 0.29 0.51 -0.74 9.94 -0.04 -0.01 0.09 8425
0.13 0.32 0.51 -0.75 9.96 -0.04 -0.01 0.09 8432
0.13 0.30 0.56 -0.74 9.97 -0.03 -0.02 0.10 8438
0.13 0.32 0.58 -0.76 10.00 -0.03 -0.02 0.10 8444
0.12 0.34 0.54 -0.74 10.00 -0.03 -0.02 0.10 8451
0.12 0.33 0.58 -0.76 9.98 -0.03 -0.02 0.10 8457
0.11 0.34 0.56 -0.75 9.94 -0.02 -0.02 0.11 8463
0.11 0.41 0.56 -0.76 9.95 -0.03 -0.02 0.11 8470
0.11 0.43 0.58 -0.78 9.93 -0.02 -0.02 0.11 8476
0.11 0.42 0.59 -0.72 9.94 -0.02 -0.02 0.11 8482
0.12 0.44 0.58 -0.72 9.95 -0.02 -0.02 0.11 8488
0.14 0.44 0.59 -0.76 9.93 -0.02 -0.02 0.11 8495
0.12 0.51 0.55 -0.74 9.96 -0.02 -0.02 0.11 8501
0.11 0.57 0.56 -0.72 9.95 -0.03 -0.02 0.11 8507
0.13 0.55 0.57 -0.74 9.93 -0.02 -0.02 0.12 8514
0.11 0.60 0.63 -0.77 9.88 -0.02 -0.02 0.12 8520
0.10 0.62 0.55 -0.72 9.97 -0.03 -0.03 0.12 8526
0.11 0.68 0.58 -0.73 9.95 -0.03 -0.03 0.12 8532
0.11 0.66 0.57 -0.74 9.90 -0.03 -0.03 0.12 8539
0.11 0.68 0.57 -0.69 9.94 -0.03 -0.03 0.12 8545
0.10 0.72 0.57 -0.70 9.95 -0.03 -0.03 0.12 8551
0.11 0.76 0.56 -0.72 9.95 -0.03 -0.03 0.11 8558
0.11 0.79 0.56 -0.72 9.96 -0.03 -0.04 0.12 8564
0.10 0.75 0.58 -0.70 9.97 -0.03 -0.04 0.12 8570
0.12 0.78 0.57 -0.68 9.95 -0.03 -0.04 0.12 8577
0.11 0.79 0.62 -0.70 9.96 -0.02 -0.05 0.12 8583
0.11 0.85 0.63 -0.69 9.94 -0.02 -0.05 0.11 8589
0.11 0.86 0.59 -0.71 9.98 -0.02 -0.05 0.12 8596
0.11 0.86 0.57 -0.69 9.94 -0.02 -0.05 0.11 8602
0.10 0.90 0.59 -0.67 9.97 -0.02 -0.06 0.11 8608
0.11 0.90 0.27 -0.81 9.79 -0.03 -0.07 0.11 8614
0.11 0.95 0.53 -0.70 9.95 -0.02 -0.06 0.11 8621
0.12 0.91 0.56 -0.68 9.94 -0.02 -0.06 0.10 8627
0.11 0.95 0.56 -0.69 9.92 -0.02 -0.06 0.10 8633
0.11 0.95 0.58 -0.69 9.94 -0.02 -0.06 0.10 8640
0.10 0.92 0.58 -0.71 9.95 -0.02 -0.07 0.10 8646
0.09 0.92 0.56 -0.70 9.92 -0.02 -0.07 0.10 8652
0.11 0.97 0.57 -0.67 9.95 -0.03 -0.08 0.10 8658
0.10 0.95 0.56 -0.69 9.95 -0.03 -0.08 0.10 8665
0.09 0.96 0.54 -0.73 9.96 -0.03 -0.08 0.09 8671
0.11 1.00 0.57 -0.70 9.95 -0.03 -0.09 0.09 8677
0.13 0.99 0.56 -0.68 9.98 -0.03 -0.08 0.09 8684
0.12 1.00 0.47 -0.69 9.92 -0.02 -0.08 0.09 8690
0.11 1.01 0.57 -0.68 9.96 -0.02 -0.08 0.09 8696
0.13 0.99 0.54 -0.68 9.98 -0.02 -0.07 0.09 8702
0.10 1.01 0.49 -0.68 9.94 -0.01 -0.07 0.09 8709
0.13 1.01 0.51 -0.68 9.95 -0.01 -0.06 0.09 8715
0.14 1.03 0.53 -0.67 9.97 -0.01 -0.06 0.09 8721
0.15 1.02 0.55 -0.71 9.97 -0.01 -0.06 0.09 8728
0.15 1.03 0.52 -0.68 10.02 -0.01 -0.06 0.09 8734
0.15 1.03 0.57 -0.69 9.94 -0.01 -0.07 0.09 8740
0.17 1.03 0.53 -0.70 9.95 -0.01 -0.06 0.09 8747
0.17 1.02 0.54 -0.69 9.98 -0.01 -0.06 0.09 8753
0.17 1.00 0.52 -0.67 9.97 -0.01 -0.06 0.09 8759
0.18 1.01 0.56 -0.68 9.95 -0.00 -0.06 0.08 8766
0.19 0.98 0.56 -0.67 9.96 -0.01 -0.06 0.09 8772
0.17 0.97 0.54 -0.68 9.96 -0.01 -0.06 0.08 8778
0.19 0.98 0.53 -0.66 9.99 -0.01 -0.06 0.08 8784
0.20 0.98 0.54 -0.66 9.98 -0.01 -0.07 0.08 8791
0.20 0.96 0.49 -0.66 10.01 -0.01 -0.06 0.08 8797
0.22 0.97 0.53 -0.71 9.94 -0.01 -0.06 0.08 8803
0.23 0.98 0.55 -0.71 10.02 -0.01 -0.07 0.09 8810
0.25 0.98 0.53 -0.68 10.01 -0.01 -0.07 0.08 8816
0.24 0.96 0.50 -0.68 9.95 -0.01 -0.06 0.08 8822
0.25 0.95 0.50 -0.65 9.97 -0.00 -0.06 0.09 8828
0.26 0.96 0.51 -0.71 9.99 -0.00 -0.06 0.08 8835
0.24 0.94 0.50 -0.67 9.98 -0.00 -0.06 0.08 8841
0.24 0.95 0.52 -0.65 9.98 0.00 -0.06 0.09 8848
0.26 0.94 0.52 -0.69 9.97 -0.00 -0.06 0.09 8854
0.26 0.92 0.51 -0.71 9.96 0.00 -0.06 0.09 8860
0.27 0.92 0.51 -0.72 9.92 -0.00 -0.05 0.08 8866
0.31 0.90 0.50 -0.72 9.93 -0.00 -0.05 0.08 8872
0.31 0.90 0.50 -0.74 9.96 -0.00 -0.05 0.08 8879
0.31 0.89 0.49 -0.70 9.96 -0.00 -0.05 0.08 8885
0.33 0.89 0.53 -0.69 9.99 0.00 -0.05 0.09 8892
0.33 0.87 0.52 -0.73 9.97 -0.00 -0.05 0.08 8898
0.34 0.78 0.53 -0.69 9.96 0.00 -0.04 0.09 8904
0.34 0.80 0.55 -0.71 9.98 0.01 -0.04 0.08 8910
0.36 0.79 0.49 -0.67 9.90 0.00 -0.04 0.09 8916
0.35 0.80 0.48 -0.71 9.99 0.00 -0.04 0.08 8923
0.35 0.75 0.49 -0.71 10.00 0.01 -0.04 0.09 8929
0.37 0.73 0.51 -0.75 9.99 0.00 -0.03 0.09 8936
0.39 0.75 0.52 -0.73 9.94 0.00 -0.03 0.08 8942
0.40 0.68 0.54 -0.71 9.97 0.01 -0.03 0.09 8948
0.42 0.70 0.50 -0.68 9.96 0.00 -0.03 0.09 8954
0.42 0.68 0.54 -0.74 9.99 0.00 -0.03 0.09 8961
0.43 0.65 0.52 -0.70 10.00 0.00 -0.03 0.08 8967
0.43 0.63 0.49 -0.72 9.98 0.00 -0.04 0.08 8973
0.46 0.62 0.54 -0.71 9.98 0.00 -0.03 0.09 8980
0.46 0.58 0.51 -0.66 9.95 0.00 -0.03 0.08 8986
0.45 0.57 0.53 -0.70 9.98 0.01 -0.04 0.09 8992
0.47 0.55 0.48 -0.75 9.94 0.00 -0.03 0.09 8998
0.50 0.51 0.54 -0.76 9.96 -0.03 -0.04 0.09 9005
0.50 0.52 0.51 -0.72 9.93 -0.00 -0.03 0.08 9011
0.51 0.52 0.54 -0.74 9.97 -0.00 -0.04 0.08 9017
0.53 0.53 0.48 -0.71 9.95 -0.01 -0.03 0.09 9024
0.52 0.49 0.54 -0.75 9.94 -0.01 -0.04 0.09 9030
0.52 0.52 0.49 -0.73 9.94 -0.01 -0.03 0.08 9036
0.54 0.53 0.50 -0.72 9.97 -0.00 -0.03 0.09 9042
0.54 0.52 0.51 -0.72 10.02 0.00 -0.03 0.09 9049
0.54 0.51 0.53 -0.72 9.97 -0.00 -0.02 0.09 9055
0.54 0.48 0.51 -0.73 9.98 0.00 -0.02 0.09 9062
0.56 0.46 0.52 -0.73 9.97 0.00 -0.02 0.08 9068
0.56 0.41 0.51 -0.68 9.96 0.01 -0.02 0.09 9074
0.56 0.38 0.51 -0.70 9.97 0.01 -0.01 0.10 9080
0.56 0.39 0.51 -0.71 9.92 0.01 -0.01 0.09 9086
0.55 0.33 0.49 -0.72 9.94 0.01 0.00 0.09 9093
0.54 0.28 0.47 -0.73 9.93 0.01 0.01 0.09 9099
0.53 0.27 0.51 -0.76 9.95 0.01 0.02 0.10 9105
0.54 0.26 0.51 -0.73 9.96 0.00 0.03 0.09 9112
0.51 0.21 0.55 -0.73 9.98 0.00 0.04 0.09 9118
0.48 0.20 0.48 -0.69 9.95 0.00 0.04 0.09 9124
0.49 0.21 0.53 -0.70 9.96 0.01 0.04 0.09 9131
0.42 0.17 0.57 -0.71 9.94 0.01 0.05 0.09 9137
0.38 0.21 0.56 -0.71 9.95 0.01 0.05 0.10 9143
0.36 0.17 0.59 -0.72 9.99 0.01 0.04 0.10 9149
0.35 0.17 0.58 -0.74 10.00 0.02 0.03 0.09 9156
0.32 0.12 0.53 -0.77 9.97 0.02 0.02 0.09 9162
0.32 0.12 0.64 -0.75 9.89 0.02 0.02 0.10 9168
0.35 0.11 1.21 -0.75 9.95 0.02 0.01 0.09 9175
0.34 0.09 0.60 -0.74 9.97 0.02 0.01 0.09 9181
0.35 0.14 0.61 -0.76 9.96 0.01 0.00 0.09 9187
0.35 0.13 0.64 -0.75 9.98 0.01 0.00 0.09 9193
0.36 0.06 0.59 -0.72 9.96 0.01 0.00 0.09 9200
0.35 0.06 0.61 -0.75 9.92 0.02 0.00 0.10 9206
0.34 0.03 0.67 -0.73 9.92 0.01 0.00 0.09 9212
0.36 0.06 0.59 -0.78 9.93 0.01 0.00 0.09 9219
0.38 0.06 0.61 -0.72 9.95 0.02 -0.00 0.09 9225
0.38 0.05 0.61 -0.76 9.97 0.02 0.00 0.10 9231
0.37 0.05 0.61 -0.76 9.96 0.01 -0.00 0.09 9237
0.37 0.07 0.61 -0.74 9.96 0.01 0.01 0.09 9243
0.37 0.05 0.65 -0.77 9.96 0.01 0.00 0.10 9250
0.36 0.05 0.66 -0.77 9.94 0.01 0.00 0.09 9256
0.36 0.01 0.64 -0.79 9.92 0.01 0.00 0.09 9263
0.37 0.04 0.67 -0.74 10.00 0.01 0.00 0.09 9269
0.35 0.01 0.54 -0.72 9.77 0.01 0.00 0.09 9275
0.34 0.06 0.64 -0.74 9.98 0.01 -0.00 0.10 9281
0.33 0.04 0.65 -0.78 9.99 0.02 -0.00 0.10 9287
0.33 0.02 0.67 -0.76 9.93 0.01 0.00 0.09 9293
0.33 0.01 0.69 -0.75 9.98 0.02 0.00 0.09 9300
0.34 0.00 0.69 -0.78 9.97 0.02 -0.00 0.09 9307
0.38 0.01 0.69 -0.74 9.89 0.02 -0.00 0.09 9313
0.38 0.02 0.65 -0.74 9.89 0.02 -0.00 0.09 9319
0.37 -0.00 0.68 -0.79 9.93 0.02 -0.00 0.09 9325
0.38 0.00 0.65 -0.77 9.93 0.01 -0.00 0.09 9331
0.39 -0.01 0.68 -0.79 9.95 0.01 -0.00 0.09 9337
0.39 -0.00 0.67 -0.77 9.96 0.01 0.00 0.08 9344
0.36 -0.01 0.74 -1.15 9.87 0.01 0.00 0.09 9351
0.36 0.00 0.65 -0.79 9.90 0.01 0.00 0.09 9357
0.35 -0.02 0.69 -0.76 9.97 0.01 -0.00 0.08 9363
0.35 -0.02 0.70 -0.80 9.93 0.01 -0.00 0.08 9369
0.31 -0.00 0.69 -0.78 9.94 0.01 -0.01 0.09 9375
0.35 -0.02 0.71 -0.78 9.96 0.01 -0.00 0.08 9381
0.34 -0.01 0.73 -0.80 9.96 0.01 -0.00 0.08 9388
0.32 -0.02 0.68 -0.77 9.93 0.01 -0.00 0.09 9395
0.31 0.01 0.72 -0.80 9.92 0.01 -0.01 0.08 9401
0.31 -0.01 0.69 -0.76 9.99 0.01 -0.01 0.08 9407
0.28 -0.00 0.69 -0.81 9.87 0.01 -0.01 0.08 9413
0.30 -0.01 0.70 -0.82 9.95 0.01 -0.01 0.08 9419
0.32 -0.00 0.72 -0.79 9.95 0.01 -0.01 0.08 9425
0.32 -0.01 0.74 -0.80 9.92 0.02 -0.02 0.08 9432
0.30 -0.01 0.79 -0.78 9.96 0.02 -0.01 0.08 9438
0.30 0.00 0.65 -0.78 9.98 0.02 -0.01 0.08 9445
0.30 -0.02 0.71 -0.83 9.91 0.02 -0.02 0.07 9451
0.30 -0.01 0.74 -0.84 9.90 0.02 -0.02 0.07 9457
0.30 -0.01 0.70 -0.83 9.95 0.02 -0.01 0.06 9463
0.31 -0.00 0.73 -0.80 9.94 0.02 -0.02 0.06 9469
0.33 -0.01 0.71 -0.81 9.96 0.02 -0.02 0.06 9476
0.33 -0.02 0.71 -0.78 9.97 0.02 -0.02 0.06 9482
0.33 -0.01 0.76 -0.85 9.94 0.02 -0.01 0.06 9489
0.35 -0.01 0.83 -0.88 9.96 0.02 -0.02 0.05 9495
0.34 -0.01 0.73 -0.85 9.94 0.02 -0.01 0.05 9501
0.33 -0.01 0.76 -0.86 9.94 0.02 -0.01 0.05 9507
0.36 -0.01 0.77 -0.86 9.91 0.02 -0.02 0.06 9513
0.35 -0.02 0.70 -0.84 9.90 0.02 -0.01 0.05 9520
0.35 -0.02 0.72 -0.89 9.93 0.02 -0.01 0.05 9526
0.35 -0.02 0.77 -0.86 9.88 0.02 -0.02 0.05 9532
0.35 -0.02 0.77 -0.88 9.89 0.01 -0.02 0.04 9539
0.33 -0.01 0.75 -0.86 9.92 0.01 -0.02 0.05 9545
0.31 -0.02 0.75 -0.88 9.97 0.01 -0.02 0.04 9551
0.31 -0.01 0.80 -0.87 9.94 0.01 -0.02 0.04 9558
0.33 -0.01 0.74 -0.85 9.92 0.01 -0.02 0.04 9564
0.34 -0.03 0.78 -0.92 9.95 0.01 -0.02 0.03 9570
0.33 -0.02 0.70 -0.88 9.94 0.01 -0.02 0.03 9576
0.32 -0.02 0.75 -0.88 9.90 0.00 -0.02 0.04 9583
0.32 -0.02 0.72 -0.86 9.93 0.00 -0.02 0.03 9589
0.31 -0.01 0.74 -0.88 9.94 -0.00 -0.02 0.04 9595
0.32 -0.01 0.71 -0.89 9.92 -0.00 -0.02 0.04 9602
0.35 -0.01 0.75 -0.91 9.95 -0.01 -0.03 0.04 9608
0.34 -0.02 0.75 -0.88 9.88 -0.01 -0.03 0.05 9614
0.33 -0.01 0.74 -0.91 9.92 -0.02 -0.03 0.05 9620
0.35 -0.02 0.77 -0.88 9.91 -0.03 -0.04 0.05 9627
0.31 -0.02 0.76 -0.86 9.92 -0.03 -0.04 0.05 9633
0.29 -0.01 0.77 -0.82 9.93 -0.03 -0.03 0.05 9639
0.30 -0.01 0.77 -0.86 9.95 -0.03 -0.03 0.05 9646
0.30 -0.01 0.76 -0.84 10.03 -0.03 -0.03 0.04 9652
0.27 -0.01 0.71 -0.85 9.99 -0.02 -0.03 0.04 9658
0.26 -0.00 0.78 -0.85 10.06 -0.01 -0.02 0.05 9665
0.27 -0.01 0.78 -0.81 9.95 -0.00 -0.02 0.05 9671
0.28 -0.02 0.74 -0.86 10.00 0.01 -0.01 0.06 9677
0.28 -0.00 0.75 -0.86 10.00 0.02 -0.00 0.06 9683
0.29 -0.01 0.80 -0.88 10.03 0.03 0.01 0.06 9690
0.27 -0.02 0.83 -0.90 9.93 0.04 0.03 0.06 9696
0.23 -0.01 0.81 -0.85 10.05 0.07 0.03 0.06 9703
0.26 -0.01 0.81 -0.90 9.83 0.11 0.06 0.05 9709
0.21 -0.01 0.88 -0.87 10.05 0.14 0.09 0.05 9715
0.20 -0.01 0.78 -0.91 10.00 0.17 0.11 0.05 9721
0.19 -0.01 0.77 -0.92 10.00 0.20 0.12 0.06 9728
0.17 -0.01 0.74 -0.97 9.93 0.20 0.11 0.07 9734
0.13 -0.01 0.60 -0.94 9.75 0.19 0.11 0.06 9741
0.15 -0.02 0.82 -1.06 9.76 0.13 0.06 0.07 9747
0.13 -0.01 0.90 -1.04 9.68 0.07 0.01 0.06 9753
0.12 -0.01 0.92 -1.04 9.69 0.01 -0.04 0.06 9759
0.10 -0.01 0.92 -1.01 9.84 -0.05 -0.08 0.05 9765
0.11 -0.00 0.95 -1.00 9.92 -0.08 -0.10 0.05 9772
0.12 -0.01 0.89 -0.98 10.02 -0.08 -0.10 0.04 9778
0.12 -0.01 0.92 -0.93 10.05 -0.06 -0.09 0.03 9784
0.11 -0.01 0.87 -0.98 10.10 -0.03 -0.08 0.03 9790
0.10 -0.01 0.86 -0.96 10.12 0.01 -0.05 0.02 9797
0.10 -0.01 0.90 -0.97 10.14 0.05 -0.02 0.02 9803
0.10 -0.01 0.90 -1.02 10.15 0.09 0.01 0.01 9809
0.10 -0.00 0.93 -0.98 10.17 0.15 0.04 0.01 9816
0.10 -0.01 0.97 -1.02 10.32 0.20 0.08 0.00 9822
0.09 -0.01 0.07 -1.01 10.63 0.26 0.11 -0.01 9828
0.09 -0.01 0.95 -1.02 10.40 0.32 0.15 -0.01 9834
0.09 -0.01 0.76 -1.10 10.27 0.39 0.18 -0.01 9841
0.07 -0.01 1.13 -1.24 10.69 0.45 0.19 -0.02 9847
0.06 -0.01 1.16 -1.25 10.50 0.49 0.18 -0.04 9853
0.07 -0.00 1.20 -1.29 10.64 0.52 0.15 -0.05 9860
0.06 -0.01 1.24 -1.28 10.54 0.55 0.14 -0.06 9866
0.05 -0.00 1.04 -1.40 10.50 0.57 0.13 -0.07 9872
0.05 -0.00 1.09 -1.48 10.61 0.59 0.11 -0.09 9879
0.06 -0.01 1.15 -1.38 10.39 0.62 0.11 -0.09 9885
0.06 -0.01 1.09 -1.23 10.51 0.65 0.11 -0.10 9891
0.06 -0.00 1.03 -1.53 10.51 0.67 0.15 -0.11 9897
0.06 -0.01 1.21 -1.55 10.44 0.69 0.17 -0.11 9904
0.06 -0.01 1.17 -1.67 10.38 0.70 0.18 -0.12 9910
0.05 -0.01 1.06 -1.67 10.34 0.71 0.20 -0.12 9917
0.06 -0.01 1.13 -1.71 10.19 0.71 0.19 -0.11 9923
0.05 -0.00 1.05 -1.74 10.21 0.73 0.21 -0.11 9929
0.07 -0.01 1.08 -1.88 10.25 0.74 0.21 -0.10 9935
0.10 -0.01 1.01 -2.03 10.22 0.74 0.23 -0.10 9942
0.06 -0.01 1.02 -2.00 10.18 0.75 0.26 -0.09 9948
0.04 -0.00 1.08 -2.07 10.21 0.75 0.27 -0.07 9954
0.08 -0.01 0.93 -2.23 10.10 0.76 0.29 -0.05 9961
0.06 -0.01 0.88 -2.24 10.07 0.75 0.31 -0.03 9967
0.06 -0.01 0.87 -2.34 10.07 0.75 0.34 -0.00 9973
0.05 -0.00 0.90 -2.34 10.01 0.74 0.38 0.03 9979
0.07 -0.01 1.00 -2.50 10.09 0.73 0.41 0.06 9986
0.06 -0.01 0.97 -2.53 10.16 0.73 0.45 0.08 9992
0.04 -0.00 0.99 -2.63 10.18 0.72 0.52 0.10 9998
0.05 -0.00 0.82 -2.84 10.18 0.70 0.57 0.13 10005
0.05 -0.00 0.64 -2.84 10.21 0.68 0.62 0.17 10011
0.05 -0.01 0.57 -3.20 10.21 0.66 0.65 0.22 10017
0.06 -0.01 0.87 -3.14 10.63 0.64 0.68 0.28 10023
0.05 -0.00 0.93 -3.20 10.60 0.60 0.73 0.34 10030
0.04 -0.00 1.13 -2.99 10.44 0.56 0.83 0.38 10037
0.06 -0.01 1.12 -2.97 10.04 0.52 0.92 0.41 10043
0.05 -0.00 0.97 -3.04 9.78 0.50 0.98 0.45 10049
0.04 -0.00 0.70 -3.08 9.65 0.49 1.01 0.49 10055
0.05 0.00 0.68 -3.20 9.65 0.49 0.97 0.54 10061
0.05 -0.01 0.57 -3.39 9.71 0.51 0.98 0.60 10067
0.05 -0.00 0.63 -3.51 9.66 0.53 0.95 0.65 10074
0.05 -0.00 0.61 -3.59 9.62 0.56 0.90 0.70 10081
0.06 -0.01 0.73 -3.61 9.52 0.59 0.86 0.73 10087
0.05 -0.01 0.55 -3.82 9.67 0.61 0.81 0.75 10093
0.05 -0.00 0.58 -3.95 9.67 0.67 0.76 0.74 10099
0.05 -0.00 0.55 -4.06 9.68 0.67 0.72 0.70 10105
0.05 -0.00 0.37 -4.24 9.68 0.70 0.64 0.64 10112
0.05 -0.00 0.32 -4.23 9.60 0.73 0.61 0.55 10118
0.05 -0.01 -0.23 -4.42 9.78 0.75 0.56 0.46 10125
0.06 -0.01 -0.62 -4.65 9.68 0.78 0.48 0.34 10131
0.05 -0.01 -0.84 -4.68 9.85 0.80 0.39 0.18 10137
0.05 -0.01 -0.51 -4.52 9.66 0.83 0.28 0.04 10143
0.05 -0.01 -0.35 -4.41 9.67 0.82 0.16 -0.05 10149
0.06 -0.01 -0.02 -4.37 9.47 0.82 0.06 -0.10 10156
0.06 -0.01 0.40 -4.50 9.73 0.82 -0.01 -0.13 10162
0.05 -0.00 0.15 -4.54 9.58 0.84 -0.09 -0.16 10169
0.05 -0.01 1.20 -4.20 9.34 0.87 -0.15 -0.19 10175
0.05 -0.00 0.70 -4.21 9.70 0.88 -0.21 -0.17 10181
0.05 -0.00 1.29 -3.93 9.91 0.88 -0.24 -0.14 10187
0.06 -0.01 1.02 -4.23 10.16 0.87 -0.29 -0.09 10193
0.05 -0.01 0.80 -3.99 9.91 0.86 -0.33 -0.09 10200
0.04 -0.00 0.35 -3.99 9.68 0.85 -0.38 -0.13 10207
0.05 -0.01 0.34 -3.69 9.55 0.85 -0.42 -0.21 10213
0.06 -0.01 0.15 -3.49 9.32 0.83 -0.48 -0.26 10219
0.04 -0.00 0.05 -3.24 9.32 0.79 -0.54 -0.31 10225
0.06 -0.00 -0.22 -3.39 9.48 0.76 -0.60 -0.33 10231
0.05 -0.00 0.36 -3.19 9.47 0.74 -0.69 -0.34 10237
0.05 -0.00 -0.45 -3.18 9.46 0.71 -0.76 -0.36 10245
0.05 -0.01 -0.07 -3.19 9.73 0.69 -0.86 -0.40 10251
0.06 -0.01 -0.99 -3.25 9.83 0.65 -0.97 -0.44 10257
0.05 -0.01 0.02 -2.98 9.55 0.62 -1.08 -0.49 10263
0.04 -0.00 0.18 -3.05 9.36 0.60 -1.20 -0.48 10269
0.05 -0.00 0.42 -2.80 9.52 0.57 -1.29 -0.49 10275
0.06 -0.01 0.31 -2.93 9.66 0.54 -1.37 -0.49 10281
0.04 -0.00 2.01 -3.02 9.12 0.51 -1.43 -0.44 10289
0.05 -0.00 0.69 -2.90 9.67 0.48 -1.45 -0.42 10295
0.05 -0.01 1.90 -2.94 9.47 0.46 -1.44 -0.40 10301
0.05 -0.00 1.45 -2.85 9.89 0.44 -1.43 -0.38 10307
0.05 -0.00 2.01 -2.71 9.91 0.40 -1.39 -0.37 10313
0.06 -0.01 2.02 -2.51 10.06 0.36 -1.35 -0.43 10319
0.06 -0.01 2.36 -2.39 10.16 0.30 -1.31 -0.49 10327
0.06 0.00 1.71 -2.07 9.88 0.26 -1.29 -0.60 10333
0.06 -0.01 2.33 -2.11 9.81 0.17 -1.26 -0.73 10339
0.04 -0.00 1.74 -2.02 9.45 0.16 -1.27 -0.85 10345
0.05 -0.00 1.76 -2.11 9.27 0.11 -1.24 -0.98 10351
0.05 -0.01 1.20 -2.07 10.01 0.06 -1.23 -1.09 10358
0.04 -0.00 1.00 -2.03 9.75 0.02 -1.20 -1.20 10364
0.05 -0.00 1.62 -2.20 9.80 -0.01 -1.17 -1.27 10371
0.05 -0.00 1.77 -2.05 9.58 -0.04 -1.14 -1.34 10377
0.05 -0.00 1.28 -2.00 9.20 -0.08 -1.11 -1.41 10383
0.04 -0.00 0.93 -1.90 9.77 -0.11 -1.12 -1.46 10389
0.06 -0.01 2.13 -2.01 9.68 -0.15 -1.12 -1.53 10396
0.05 -0.00 0.93 -1.91 9.44 -0.19 -1.14 -1.56 10402
0.05 -0.00 -0.23 -1.62 9.40 -0.25 -1.15 -1.61 10408
0.06 -0.01 -0.39 -1.72 10.08 -0.29 -1.15 -1.66 10415
0.04 -0.00 0.19 -1.71 9.88 -0.36 -1.14 -1.72 10421
0.05 -0.00 -0.12 -1.72 10.15 -0.42 -1.10 -1.80 10427
0.06 -0.01 2.24 -1.72 9.71 -0.48 -1.05 -1.90 10434
0.04 -0.00 2.08 -1.42 9.77 -0.53 -0.97 -1.96 10440
0.04 -0.00 1.91 -1.54 9.45 -0.55 -0.89 -2.06 10446
0.05 -0.01 2.01 -1.54 9.57 -0.59 -0.79 -2.12 10452
0.06 -0.01 2.04 -1.42 9.51 -0.62 -0.68 -2.18 10459
0.06 -0.01 2.13 -1.52 9.43 -0.65 -0.55 -2.23 10466
0.06 -0.01 2.19 -1.65 9.25 -0.68 -0.43 -2.26 10472
0.06 -0.01 2.16 -1.74 9.27 -0.70 -0.30 -2.27 10478
0.05 -0.01 2.13 -1.84 9.21 -0.72 -0.18 -2.27 10484
0.07 -0.01 2.15 -1.89 9.26 -0.73 -0.08 -2.27 10490
0.07 -0.01 2.22 -1.97 9.25 -0.74 0.02 -2.24 10497
0.06 -0.01 2.27 -1.97 9.31 -0.76 0.13 -2.22 10504
0.06 -0.00 2.36 -1.93 9.38 -0.77 0.22 -2.17 10510
0.07 -0.01 2.44 -1.99 9.29 -0.81 0.30 -2.12 10516
0.06 -0.01 2.53 -2.01 9.19 -0.84 0.37 -2.06 10522
0.06 -0.00 2.60 -2.14 9.10 -0.86 0.44 -1.99 10528
0.07 -0.01 2.59 -2.21 9.06 -0.88 0.48 -1.91 10534
0.06 -0.01 2.62 -2.37 8.97 -0.88 0.52 -1.82 10542
0.06 -0.01 2.63 -2.50 8.96 -0.87 0.54 -1.72 10548
0.07 -0.01 2.71 -2.62 9.01 -0.85 0.55 -1.62 10554
0.06 -0.01 2.85 -2.72 9.22 -0.82 0.56 -1.52 10560
0.05 -0.01 2.95 -2.75 9.39 -0.79 0.57 -1.38 10566
0.06 -0.01 3.11 -2.74 9.52 -0.76 0.59 -1.28 10572
0.05 -0.00 3.17 -2.75 9.71 -0.74 0.61 -1.14 10579
0.03 -0.00 3.34 -2.81 9.84 -0.71 0.64 -0.98 10586
0.06 -0.01 3.43 -2.85 10.17 -0.71 0.67 -0.81 10592
0.06 -0.01 3.51 -2.86 10.39 -0.72 0.72 -0.62 10598
0.05 -0.00 3.48 -2.76 10.54 -0.74 0.77 -0.43 10604
0.06 -0.01 3.34 -2.79 10.66 -0.77 0.84 -0.22 10611
0.05 -0.00 3.15 -2.83 10.64 -0.81 0.89 -0.01 10617
0.05 -0.00 2.87 -2.96 10.47 -0.86 0.91 0.19 10624
0.06 -0.01 2.61 -3.04 10.24 -0.87 0.91 0.38 10630
0.05 -0.01 2.44 -3.23 10.03 -0.86 0.91 0.56 10636
0.05 -0.00 2.22 -3.34 9.83 -0.83 0.89 0.73 10643
0.05 -0.01 2.05 -3.41 9.81 -0.78 0.87 0.89 10649
0.05 -0.00 2.02 -3.47 9.77 -0.71 0.85 1.00 10655
0.04 -0.00 -0.99 -5.41 11.29 -0.65 0.90 1.07 10661
0.06 -0.01 1.66 -4.06 12.30 -0.69 1.21 0.99 10668
0.05 -0.00 0.56 -3.13 11.26 -0.79 1.18 0.92 10674
0.05 -0.00 0.21 -3.02 10.08 -0.80 1.13 0.87 10681
0.07 -0.01 0.20 -3.47 9.26 -0.79 1.06 0.87 10687
0.05 -0.01 -0.32 -4.22 9.83 -0.71 1.01 0.91 10693
0.04 -0.00 0.23 -4.32 11.17 -0.66 0.93 0.95 10699
0.06 -0.01 -0.59 -4.32 11.09 -0.61 0.90 0.96 10705
0.05 -0.00 -0.25 -4.08 11.02 -0.59 0.85 0.92 10712
0.04 -0.00 -0.40 -4.22 10.18 -0.58 0.79 0.88 10719
0.05 -0.00 -0.85 -4.44 10.35 -0.58 0.74 0.82 10725
0.04 -0.00 -1.20 -4.93 10.55 -0.56 0.66 0.74 10731
0.04 -0.00 -0.80 -4.31 10.92 -0.56 0.62 0.66 10737
0.05 -0.00 -0.49 -4.36 10.90 -0.55 0.58 0.56 10743
0.05 -0.00 -0.31 -4.13 10.91 -0.55 0.54 0.47 10750
0.04 -0.00 0.63 -3.59 10.04 -0.55 0.59 0.39 10757
0.04 -0.00 1.29 -3.20 10.57 -0.55 0.57 0.34 10763
0.04 -0.00 3.51 -2.11 9.38 -0.56 0.65 0.32 10769
0.03 -0.00 3.07 -3.05 11.27 -0.55 0.72 0.33 10775
0.05 -0.01 3.66 -3.38 11.44 -0.56 1.00 0.38 10782
0.04 -0.00 4.63 -2.86 11.75 -0.55 1.23 0.42 10788
0.05 -0.01 3.73 -2.42 11.54 -0.59 1.37 0.46 10795
0.05 -0.00 3.77 -2.29 10.83 -0.63 1.54 0.48 10801
0.03 -0.00 3.49 -2.31 10.49 -0.68 1.65 0.51 10807
0.04 0.00 3.28 -2.39 10.49 -0.68 1.68 0.51 10814
0.03 -0.00 3.09 -2.49 10.39 -0.66 1.67 0.51 10820
0.02 -0.00 3.18 -2.50 10.35 -0.64 1.67 0.50 10826
0.03 0.00 3.25 -2.42 10.31 -0.60 1.67 0.49 10832
0.04 -0.00 3.17 -2.34 10.37 -0.57 1.69 0.48 10840
0.04 -0.00 3.05 -2.16 10.53 -0.56 1.73 0.48 10846
0.05 -0.01 -12.14 -8.81 12.90 -0.54 1.30 0.41 10852
0.04 -0.00 -3.49 -0.86 14.24 -0.35 0.25 0.59 10858
0.03 -0.00 -2.93 -3.02 8.21 -0.45 0.00 0.76 10864
0.05 -0.01 -1.89 -4.12 8.83 -0.49 -0.31 0.79 10870
0.05 -0.00 -0.95 -3.91 10.34 -0.51 -0.50 0.77 10877
0.05 -0.00 -2.01 -5.21 10.16 -0.51 -0.42 0.70 10884
0.05 -0.01 0.04 -4.32 11.08 -0.43 -0.28 0.64 10890
0.04 -0.00 -1.63 -4.51 9.98 -0.37 -0.07 0.60 10896
0.04 -0.00 -3.55 -4.73 9.53 -0.27 0.02 0.56 10902
0.05 -0.00 -4.16 -4.53 8.45 -0.18 0.01 0.52 10909
0.04 -0.00 -6.36 -5.04 8.29 -0.10 -0.09 0.46 10915
0.02 -0.00 -5.91 -5.01 8.65 -0.01 -0.28 0.40 10921
0.04 -0.00 -7.24 -5.67 7.82 0.09 -0.50 0.34 10928
0.03 -0.00 -8.48 -7.35 7.50 0.25 -0.70 0.38 10934
0.03 -0.00 -7.12 -8.05 8.42 0.54 -0.62 0.54 10940
0.03 -0.00 -9.81 -8.79 5.86 0.77 -0.76 0.72 10946
0.04 -0.00 -10.91 -10.82 5.32 1.11 -1.11 0.92 10953
0.03 -0.00 -10.38 -9.86 7.71 1.51 -1.43 1.03 10959
0.04 0.04 -8.42 -3.31 20.86 0.96 -2.55 0.23 10966
0.04 0.04 -1.36 -5.55 18.14 0.03 -2.08 -0.16 10972
0.04 0.09 -0.18 -1.16 9.91 -0.17 -0.37 0.08 10979
0.05 0.24 0.22 -1.38 10.75 -0.26 -0.18 0.01 10985
0.03 0.29 0.31 -0.73 10.24 -0.22 -0.07 0.02 10991
0.03 0.36 1.48 -0.62 9.96 -0.13 -0.07 0.05 10997
0.03 0.48 1.18 -0.78 10.02 -0.06 -0.04 0.10 11004
0.02 0.51 0.60 -0.76 10.10 -0.05 -0.04 0.10 11011
0.03 0.59 0.49 -0.71 10.10 -0.03 -0.05 0.09 11017
0.03 0.57 0.59 -0.74 10.11 -0.01 -0.05 0.08 11023
0.03 0.60 0.80 -0.82 9.97 -0.00 -0.05 0.09 11029
0.04 0.65 0.73 -0.82 9.96 0.00 -0.05 0.10 11036
0.04 0.63 0.62 -0.84 10.05 0.00 -0.05 0.10 11042
0.03 0.60 0.57 -0.86 9.99 -0.00 -0.05 0.09 11048
0.04 0.61 0.58 -0.88 9.97 -0.01 -0.05 0.09 11055
0.06 0.64 0.63 -0.89 9.94 -0.01 -0.05 0.09 11061
0.06 0.65 0.63 -0.87 9.97 -0.02 -0.05 0.09 11068
0.07 0.63 0.66 -0.79 9.95 -0.02 -0.04 0.08 11074
0.05 0.65 0.61 -0.81 9.94 -0.02 -0.05 0.08 11080
0.04 0.63 0.63 -0.79 9.93 -0.02 -0.05 0.08 11086
0.06 0.69 0.60 -0.80 9.94 -0.03 -0.06 0.08 11092
0.06 0.73 0.61 -0.82 9.87 -0.03 -0.06 0.08 11099
0.05 0.77 0.59 -0.82 10.00 -0.03 -0.06 0.09 11106
0.06 0.77 0.64 -0.79 9.34 -0.03 -0.05 0.09 11112
0.04 0.79 0.56 -0.82 9.94 -0.03 -0.05 0.10 11118
0.06 0.80 0.54 -0.78 9.97 -0.03 -0.04 0.10 11124
0.06 0.82 0.57 -0.77 9.97 -0.03 -0.04 0.11 11130
0.07 0.85 0.56 -0.79 9.96 -0.02 -0.03 0.11 11138
0.07 0.85 0.62 -0.77 9.97 -0.02 -0.03 0.11 11144
0.08 0.80 0.62 -0.77 9.94 -0.02 -0.03 0.10 11150
0.07 0.84 0.58 -0.77 9.92 -0.02 -0.03 0.10 11156
0.07 0.85 0.62 -0.79 9.95 -0.01 -0.03 0.10 11162
0.07 0.85 1.21 -0.77 9.92 -0.01 -0.07 0.11 11169
0.06 0.84 0.63 -0.76 9.93 -0.01 -0.04 0.10 11175
0.06 0.88 0.60 -0.77 9.92 -0.01 -0.04 0.10 11182
0.08 0.86 0.61 -0.80 9.91 -0.01 -0.04 0.10 11188
0.07 0.85 0.59 -0.80 9.93 -0.02 -0.04 0.10 11194
0.06 0.88 0.57 -0.78 9.92 -0.01 -0.04 0.10 11201
0.07 0.84 0.56 -0.81 9.96 -0.02 -0.03 0.10 11207
0.06 0.87 0.58 -0.80 9.91 -0.02 -0.03 0.10 11213
0.06 0.87 0.59 -0.79 9.91 -0.02 -0.03 0.11 11219
0.06 0.86 0.59 -0.75 9.94 -0.02 -0.03 0.10 11226
0.06 0.85 0.59 -0.77 9.94 -0.02 -0.03 0.10 11233
0.06 0.88 0.57 -0.75 9.92 -0.01 -0.03 0.11 11239
0.07 0.90 0.57 -0.78 9.94 -0.01 -0.03 0.11 11245
0.07 0.90 1.22 -0.72 9.90 -0.02 -0.03 0.10 11251
0.08 0.92 0.58 -0.75 9.95 -0.02 -0.03 0.11 11257
0.07 0.91 0.63 -0.74 9.92 -0.01 -0.03 0.11 11264
0.07 0.88 0.58 -0.75 9.96 -0.01 -0.04 0.10 11271
0.07 0.88 0.59 -0.75 9.93 -0.01 -0.04 0.10 11277
0.07 0.88 0.61 -0.76 9.95 -0.01 -0.04 0.10 11283
0.07 0.85 0.59 -0.75 9.90 -0.01 -0.04 0.11 11289
0.07 0.88 0.62 -0.76 9.93 -0.01 -0.04 0.10 11295
0.08 0.87 0.59 -0.77 9.91 -0.01 -0.04 0.11 11302
0.08 0.85 0.81 -0.61 10.18 -0.01 -0.04 0.11 11309
0.09 0.86 0.57 -0.77 9.92 -0.01 -0.04 0.11 11315
0.08 0.86 0.58 -0.78 9.92 -0.01 -0.04 0.11 11321
0.08 0.86 0.60 -0.78 9.90 -0.01 -0.04 0.11 11327
0.10 0.86 0.60 -0.75 9.91 -0.02 -0.04 0.10 11334
0.09 0.87 0.57 -0.77 9.93 -0.02 -0.04 0.10 11340
0.09 0.87 0.62 -0.75 9.88 -0.01 -0.03 0.11 11346
0.09 0.89 0.58 -0.72 9.97 -0.01 -0.04 0.11 11353
0.09 0.90 0.58 -0.76 9.96 -0.01 -0.03 0.11 11359
0.09 0.90 0.60 -0.74 9.93 -0.00 -0.03 0.11 11366
0.10 0.91 0.62 -0.77 9.94 -0.00 -0.03 0.11 11372
0.09 0.89 0.57 -0.76 9.92 -0.00 -0.03 0.10 11378
0.10 0.89 0.59 -0.75 9.93 -0.00 -0.03 0.10 11384
0.12 0.89 0.58 -0.74 9.95 -0.00 -0.03 0.10 11390
0.12 0.88 0.60 -0.75 9.93 0.00 -0.03 0.11 11397
0.11 0.87 0.57 -0.74 9.94 -0.00 -0.03 0.11 11404
0.12 0.87 0.61 -0.73 9.92 -0.00 -0.02 0.11 11410
0.11 0.88 0.64 -0.74 9.92 -0.00 -0.02 0.11 11416
0.11 0.88 1.22 -0.80 9.92 -0.00 -0.02 0.11 11422
0.12 0.90 0.63 -0.74 9.93 -0.00 -0.02 0.11 11428
0.11 0.89 0.61 -0.74 9.87 0.00 -0.02 0.11 11436
0.10 0.89 0.59 -0.76 9.92 -0.00 -0.02 0.10 11442
0.13 0.90 0.61 -0.74 9.93 0.00 -0.02 0.10 11448
0.11 0.88 0.58 -0.74 9.93 -0.00 -0.01 0.10 11454
0.10 0.89 0.60 -0.75 9.96 0.00 -0.01 0.11 11460
0.12 0.88 0.62 -0.76 9.91 0.00 -0.01 0.11 11466
0.11 0.88 0.61 -0.77 9.94 0.00 -0.00 0.11 11473
0.11 0.88 0.57 -0.79 9.95 0.00 0.00 0.11 11480
0.12 0.88 0.64 -0.76 9.93 0.00 0.01 0.10 11486
0.10 0.87 0.66 -0.78 9.93 0.00 0.02 0.10 11492
0.09 0.87 0.63 -0.75 9.84 -0.00 0.02 0.11 11498
0.11 0.86 0.63 -0.76 9.93 -0.00 0.02 0.11 11505
0.11 0.85 0.66 -0.79 9.94 -0.00 0.02 0.11 11511
0.11 0.80 0.62 -0.79 9.98 0.00 0.03 0.11 11517
0.11 0.81 0.67 -0.76 9.94 0.01 0.04 0.11 11524
0.09 0.79 0.64 -0.83 9.94 0.01 0.04 0.11 11530
0.09 0.79 0.66 -0.78 9.91 0.00 0.03 0.12 11537
0.11 0.78 0.73 -0.83 9.95 0.00 0.03 0.11 11543
0.09 0.72 0.70 -0.76 9.92 0.01 0.03 0.11 11549
0.09 0.69 0.66 -0.73 9.92 0.00 0.02 0.12 11555
0.09 0.66 0.69 -0.76 9.90 0.00 0.02 0.11 11561
0.08 0.65 0.69 -0.77 9.92 0.00 0.01 0.11 11568
0.07 0.64 0.68 -0.77 9.93 0.00 0.00 0.11 11575
0.09 0.61 0.71 -0.77 9.95 -0.00 -0.00 0.11 11581
0.10 0.59 0.71 -0.77 9.93 0.00 -0.00 0.11 11587
0.09 0.59 0.68 -0.77 9.93 -0.00 -0.01 0.10 11593
0.09 0.58 0.69 -0.79 9.90 -0.00 -0.01 0.10 11599
0.08 0.57 0.68 -0.79 9.91 -0.00 -0.02 0.10 11606
0.07 0.57 0.69 -0.77 9.94 -0.00 -0.02 0.11 11613
0.08 0.59 0.71 -0.76 9.94 0.00 -0.02 0.11 11619
0.08 0.59 0.72 -0.75 9.99 0.00 -0.02 0.10 11625
0.06 0.59 0.71 -0.77 9.94 0.00 -0.02 0.11 11631
0.07 0.61 0.69 -0.77 9.94 0.00 -0.02 0.10 11637
0.07 0.62 0.72 -0.79 9.92 -0.00 -0.02 0.10 11644
0.07 0.62 0.67 -0.77 9.90 -0.00 -0.02 0.10 11651
0.08 0.62 0.71 -0.78 9.93 0.00 -0.01 0.10 11657
0.08 0.63 0.72 -0.76 9.88 -0.00 -0.01 0.10 11663
0.08 0.59 0.72 -0.74 9.96 -0.00 0.00 0.10 11669
0.07 0.61 0.76 -0.76 9.93 -0.00 0.00 0.10 11675
0.06 0.58 0.73 -0.77 9.93 0.00 0.01 0.10 11682
0.07 0.51 0.74 -0.80 9.91 0.00 0.01 0.10 11688
0.07 0.49 0.73 -0.78 9.92 0.00 0.01 0.10 11695
0.08 0.43 0.76 -0.77 9.92 0.03 0.01 0.10 11701
0.06 0.46 0.75 -0.78 9.87 0.00 0.02 0.10 11707
0.07 0.43 0.79 -0.77 9.93 -0.00 0.02 0.10 11713
0.08 0.42 0.79 -0.77 9.92 -0.00 0.03 0.10 11720
0.08 0.38 0.80 -0.70 9.91 -0.00 0.03 0.10 11726
0.06 0.35 0.81 -0.76 9.93 0.00 0.03 0.13 11732
0.07 0.36 0.80 -0.79 9.92 0.00 0.03 0.11 11739
0.06 0.32 0.80 -0.78 9.90 0.00 0.03 0.10 11745
0.05 0.36 0.80 -0.80 9.92 0.00 0.03 0.10 11751
0.06 0.37 0.81 -0.78 9.89 0.00 0.03 0.10 11758
0.05 0.31 0.82 -0.81 9.94 -0.00 0.03 0.10 11764
0.05 0.26 0.78 -0.83 9.93 -0.00 0.03 0.10 11770
0.06 0.30 0.82 -0.78 9.93 -0.01 0.04 0.09 11777
0.04 0.28 0.79 -0.80 9.93 -0.01 0.04 0.09 11783
0.05 0.24 0.87 -0.79 10.02 -0.01 0.05 0.09 11790
0.06 0.29 0.81 -0.80 9.90 -0.01 0.05 0.09 11796
0.04 0.25 0.85 -0.81 9.95 -0.01 0.05 0.09 11802
0.03 0.22 0.87 -0.76 9.92 -0.01 0.05 0.09 11808
0.05 0.27 0.90 -0.81 9.93 -0.01 0.05 0.09 11814
0.05 0.22 0.83 -0.80 9.92 -0.01 0.05 0.08 11821
0.04 0.22 0.87 -0.85 9.97 -0.01 0.06 0.08 11828
0.05 0.19 0.84 -0.81 10.02 -0.01 0.06 0.08 11834
0.03 0.20 0.91 -0.81 9.92 -0.02 0.06 0.09 11840
0.04 0.16 0.91 -0.81 9.92 -0.01 0.06 0.08 11846
0.04 0.20 0.56 -1.06 10.18 -0.01 0.09 0.09 11852
0.05 0.18 0.88 -0.85 9.94 -0.01 0.06 0.08 11859
0.05 0.19 1.01 -0.85 9.82 -0.02 0.07 0.08 11866
0.08 0.19 0.94 -0.80 9.92 -0.01 0.05 0.07 11872
0.07 0.16 0.92 -0.82 9.90 -0.01 0.05 0.07 11878
0.05 0.15 0.95 -0.81 9.94 -0.01 0.04 0.07 11884
0.06 0.14 0.98 -0.83 9.95 -0.00 0.04 0.07 11890
0.07 0.10 0.96 -0.81 9.90 0.00 0.04 0.06 11897
0.06 0.13 0.97 -0.80 9.91 -0.00 0.04 0.07 11904
0.06 0.11 1.00 -0.88 9.92 -0.00 0.04 0.06 11910
0.04 0.14 1.00 -0.86 9.96 0.03 0.04 0.06 11916
0.06 0.10 1.06 -0.84 10.00 -0.00 0.05 0.06 11922
0.06 0.10 0.96 -0.83 9.89 -0.01 0.06 0.06 11929
0.06 0.09 0.99 -0.84 9.93 -0.00 0.06 0.05 11935
0.06 0.06 1.06 -0.83 9.98 -0.01 0.06 0.06 11941
0.06 0.09 1.02 -0.83 9.92 -0.01 0.07 0.06 11948
0.05 0.09 1.01 -0.85 9.87 -0.01 0.06 0.05 11954
0.05 0.07 1.10 -0.81 9.88 -0.01 0.06 0.05 11960
0.06 0.06 1.06 -0.84 9.83 -0.01 0.05 0.05 11967
0.07 0.05 1.08 -0.87 9.93 -0.01 0.05 0.04 11973
0.06 0.04 1.06 -0.84 9.91 -0.00 0.02 0.04 11979
0.05 0.05 1.04 -0.84 9.87 0.00 -0.00 0.03 11985
0.07 0.06 1.11 -0.83 9.87 0.00 -0.03 0.03 11992
0.06 0.07 1.11 -0.84 9.84 0.01 -0.04 0.03 11998
0.07 0.05 1.08 -0.86 9.93 0.00 -0.05 0.02 12005
0.09 0.05 1.06 -0.90 9.94 0.00 -0.05 0.03 12011
0.07 0.04 1.05 -0.91 9.93 0.00 -0.05 0.03 12017
0.07 0.05 1.02 -0.87 9.92 -0.01 -0.04 0.03 12023
0.08 0.06 1.03 -0.89 9.92 -0.01 -0.04 0.03 12029
0.08 0.04 1.03 -0.89 9.92 -0.01 -0.03 0.04 12036
0.06 0.04 1.08 -0.89 9.95 -0.02 -0.02 0.04 12043
0.08 0.07 1.08 -0.88 9.92 -0.02 -0.02 0.04 12049
0.08 0.05 1.08 -0.86 9.89 -0.02 -0.02 0.04 12055
0.07 0.04 1.07 -0.85 9.89 -0.01 -0.01 0.04 12061
0.07 0.07 1.07 -0.84 9.94 -0.01 -0.01 0.04 12067
0.07 0.05 1.06 -0.88 9.92 -0.01 0.00 0.04 12073
0.07 0.05 1.08 -0.86 9.95 -0.01 0.01 0.04 12081
0.07 0.06 1.13 -0.84 9.95 -0.01 0.02 0.04 12087
0.06 0.06 1.11 -0.87 9.95 -0.01 0.01 0.04 12093
0.07 0.05 1.12 -0.84 9.90 -0.01 0.01 0.04 12099
0.06 0.05 1.09 -0.90 9.90 0.00 -0.00 0.04 12105
0.07 0.07 1.14 -0.86 9.89 0.01 -0.01 0.04 12111
0.05 0.07 1.12 -0.91 9.87 0.01 -0.03 0.03 12119
0.05 0.07 1.14 -0.88 9.89 0.01 -0.05 0.03 12125
0.07 0.08 1.11 -0.88 9.89 0.01 -0.05 0.03 12131
0.06 0.05 1.11 -0.87 9.87 0.00 -0.05 0.02 12137
0.05 0.04 1.14 -0.84 9.94 0.00 -0.06 0.02 12143
0.06 0.05 1.11 -0.91 9.92 0.00 -0.06 0.02 12149
0.05 0.04 1.08 -0.84 9.96 0.01 -0.06 0.02 12156
0.05 0.02 1.12 -0.87 9.95 0.01 -0.06 0.02 12163
0.06 0.03 1.12 -0.87 9.91 0.01 -0.07 0.02 12169
0.06 0.03 1.10 -0.87 9.91 0.02 -0.07 0.02 12175
0.05 0.03 1.09 -0.89 9.92 0.01 -0.08 0.02 12181
0.05 0.04 1.07 -0.90 9.94 0.01 -0.07 0.02 12187
0.05 0.03 1.06 -0.92 9.99 0.01 -0.06 0.02 12194
0.05 0.02 1.06 -0.92 9.95 0.01 -0.06 0.03 12200
0.05 0.03 1.07 -0.94 9.95 0.00 -0.06 0.03 12207
0.05 0.01 1.07 -0.88 9.94 -0.00 -0.05 0.03 12213
0.05 0.02 1.09 -0.91 9.92 -0.00 -0.05 0.03 12219
0.05 0.03 1.10 -0.91 9.95 -0.00 -0.05 0.03 12225
0.05 0.02 1.10 -0.88 9.92 -0.00 -0.05 0.03 12232
0.05 0.01 1.11 -0.89 9.94 -0.00 -0.06 0.03 12238
0.05 0.01 1.08 -0.90 9.94 -0.00 -0.06 0.03 12244
0.06 0.02 1.06 -0.92 9.98 -0.00 -0.05 0.03 12251
0.04 0.02 1.08 -0.90 9.95 -0.01 -0.04 0.03 12257
0.04 0.02 1.10 -0.88 9.98 -0.01 -0.05 0.03 12263
0.05 0.02 1.06 -0.91 9.92 -0.01 -0.04 0.04 12270
0.05 0.01 1.06 -0.94 9.93 -0.00 -0.04 0.04 12276
0.04 0.02 1.03 -0.90 9.93 -0.01 -0.04 0.04 12282
0.05 0.03 1.08 -0.89 9.95 -0.01 -0.04 0.04 12289
0.05 0.01 1.08 -0.89 9.95 -0.01 -0.04 0.03 12295
0.05 0.01 1.11 -0.86 9.94 -0.01 -0.04 0.04 12302
0.06 0.03 1.14 -0.88 9.91 -0.01 -0.04 0.04 12308
0.05 0.02 1.09 -0.92 9.94 -0.01 -0.05 0.03 12314
0.05 0.01 1.13 -0.92 9.94 -0.00 -0.04 0.03 12320
0.07 0.03 1.07 -0.89 9.88 -0.01 -0.05 0.03 12326
0.06 0.01 1.08 -0.90 9.93 -0.00 -0.05 0.03 12333
0.06 -0.00 1.08 -0.89 10.04 -0.01 -0.05 0.03 12340
0.06 0.02 1.05 -0.89 9.95 -0.00 -0.04 0.04 12346
0.07 0.02 1.05 -0.92 9.92 -0.00 -0.05 0.04 12352
0.06 0.00 1.08 -0.95 9.95 -0.00 -0.04 0.04 12358
0.06 0.02 1.06 -0.94 9.98 -0.00 -0.05 0.04 12364
0.07 0.02 1.07 -0.92 9.96 -0.00 -0.05 0.04 12370
0.06 0.01 1.07 -0.93 9.96 -0.01 -0.05 0.04 12378
0.06 0.01 1.08 -0.93 9.96 -0.01 -0.05 0.04 12384
0.07 -0.00 1.08 -0.92 9.91 -0.02 -0.05 0.04 12390
0.06 -0.01 1.08 -0.91 9.92 -0.02 -0.05 0.04 12396
0.06 0.00 1.09 -0.89 9.91 -0.03 -0.05 0.03 12402
0.08 0.01 1.12 -0.90 9.97 -0.03 -0.05 0.03 12408
0.06 0.00 1.08 -0.92 9.95 -0.02 -0.06 0.00 12416
0.05 0.03 1.06 -0.86 9.90 -0.02 -0.06 0.03 12422
0.07 0.03 1.04 -0.84 9.97 -0.02 -0.06 0.03 12428
0.06 0.04 0.98 -0.91 9.92 -0.02 -0.06 0.03 12434
0.04 0.05 1.02 -0.89 9.99 -0.01 -0.07 0.03 12440
0.05 0.04 1.03 -0.90 10.02 -0.01 -0.07 0.04 12447
0.05 0.05 1.08 -0.92 9.96 -0.02 -0.08 0.04 12453
0.04 0.07 1.07 -0.91 9.99 -0.02 -0.08 0.04 12460
0.07 0.07 1.03 -0.93 9.94 -0.01 -0.09 0.04 12466
0.05 0.05 1.05 -0.90 10.02 -0.01 -0.10 0.04 12472
0.05 0.05 1.06 -0.94 9.96 -0.01 -0.13 0.04 12478
0.06 0.03 1.04 -0.87 9.95 -0.01 -0.11 0.04 12485
0.05 0.03 1.02 -0.93 10.00 -0.01 -0.11 0.04 12491
0.04 0.05 1.02 -0.85 9.86 -0.01 -0.11 0.03 12497
0.06 0.07 1.02 -0.89 9.85 -0.01 -0.11 0.03 12504
0.04 0.06 1.03 -0.88 9.91 0.00 -0.11 0.03 12510
0.05 0.06 1.03 -0.87 9.97 0.01 -0.11 0.03 12517
0.06 0.07 0.99 -0.91 9.95 0.02 -0.11 0.03 12523
0.06 0.05 0.98 -0.93 9.95 0.02 -0.10 0.03 12529
0.05 0.04 0.95 -0.94 9.98 0.02 -0.10 0.03 12535
0.06 0.05 1.00 -0.93 9.97 0.02 -0.09 0.04 12541
0.05 0.04 0.98 -0.91 9.97 0.02 -0.09 0.04 12548
0.04 0.02 1.03 -0.92 9.93 0.02 -0.08 0.03 12555
0.04 0.05 1.00 -0.94 9.92 0.03 -0.09 0.03 12561
0.04 0.03 0.98 -0.94 10.00 0.04 -0.09 0.03 12567
0.04 0.01 1.00 -0.95 9.98 0.03 -0.09 0.03 12573
0.05 0.03 0.65 -1.06 10.12 0.03 -0.09 0.03 12579
0.04 -0.00 0.99 -0.96 9.99 0.03 -0.09 0.02 12585
0.04 -0.00 0.99 -0.97 9.98 0.04 -0.09 0.02 12593
0.04 0.00 0.92 -1.03 10.03 0.04 -0.09 0.02 12599
0.05 -0.00 0.97 -1.02 10.01 0.04 -0.09 0.01 12605
0.05 -0.00 1.02 -0.88 10.03 0.04 -0.08 0.01 12611
0.05 0.00 0.79 -1.20 10.16 0.06 -0.02 0.00 12617
0.05 -0.01 0.66 -1.06 9.79 0.11 0.10 -0.00 12623
0.04 -0.00 0.71 -0.90 10.25 0.15 0.20 -0.01 12631
0.05 -0.00 1.00 -1.04 10.80 0.18 0.28 -0.01 12637
0.05 -0.01 1.08 -1.08 9.92 0.27 0.41 -0.02 12643
0.05 -0.00 1.14 -1.55 10.19 0.30 0.46 -0.02 12649
0.04 0.00 0.90 -1.27 9.95 0.30 0.48 -0.04 12655
0.07 -0.00 1.23 -1.04 10.32 0.35 0.51 -0.04 12662
0.06 -0.01 1.26 -1.08 10.26 0.38 0.53 -0.05 12668
0.05 -0.01 1.32 -1.12 10.31 0.41 0.50 -0.06 12675
0.07 -0.01 1.25 -1.15 10.26 0.42 0.48 -0.08 12681
0.06 -0.01 1.36 -1.34 9.96 0.44 0.46 -0.09 12687
0.06 -0.01 1.44 -1.38 10.41 0.46 0.41 -0.09 12694
0.07 -0.01 1.52 -1.49 10.51 0.48 0.43 -0.11 12700
0.06 -0.01 1.59 -1.43 10.93 0.49 0.42 -0.14 12706
0.06 -0.00 1.67 -1.82 10.10 0.52 0.42 -0.13 12712
0.06 -0.01 1.73 -1.48 10.52 0.53 0.42 -0.13 12719
0.05 -0.01 1.62 -1.39 10.32 0.54 0.44 -0.13 12726
0.06 0.00 1.75 -1.52 10.29 0.56 0.45 -0.14 12732
0.06 -0.01 2.07 -1.51 10.40 0.57 0.42 -0.16 12738
0.05 0.00 1.86 -1.44 10.31 0.59 0.46 -0.20 12744
0.07 0.00 1.65 -1.48 10.04 0.60 0.46 -0.20 12751
0.07 -0.01 1.80 -1.67 10.01 0.62 0.44 -0.20 12758
0.07 -0.00 1.62 -1.63 10.06 0.64 0.43 -0.21 12764
0.06 -0.00 1.93 -1.93 10.11 0.65 0.42 -0.20 12770
0.05 -0.01 2.11 -1.96 10.03 0.66 0.42 -0.20 12776
0.06 0.00 1.83 -1.87 9.97 0.66 0.45 -0.21 12783
0.06 -0.01 1.84 -2.05 10.06 0.67 0.46 -0.20 12789
0.04 0.00 1.70 -2.03 10.05 0.67 0.47 -0.19 12795
0.07 -0.00 1.51 -2.23 9.97 0.67 0.50 -0.17 12802
0.06 -0.01 1.48 -2.37 9.90 0.67 0.51 -0.14 12808
0.04 -0.00 1.67 -2.56 9.85 0.68 0.52 -0.10 12815
0.06 -0.01 1.45 -2.57 9.95 0.68 0.53 -0.05 12821
0.06 -0.01 1.25 -2.69 10.10 0.69 0.54 -0.01 12827
0.04 -0.00 1.41 -2.79 10.04 0.69 0.57 0.05 12833
0.05 -0.00 1.25 -2.90 10.37 0.69 0.59 0.11 12839
0.05 -0.00 1.35 -3.01 10.48 0.69 0.63 0.17 12847
0.04 -0.00 1.51 -2.96 10.56 0.69 0.67 0.23 12853
0.06 -0.01 1.72 -2.91 10.61 0.68 0.72 0.28 12859
0.04 -0.00 1.90 -2.94 10.75 0.67 0.78 0.31 12865
0.04 -0.00 1.92 -2.85 10.70 0.65 0.84 0.33 12871
0.05 -0.01 2.02 -2.74 10.46 0.63 0.92 0.35 12878
0.04 -0.00 2.02 -2.92 10.23 0.60 0.97 0.37 12884
0.05 -0.00 2.11 -2.92 10.06 0.59 1.02 0.39 12891
0.06 -0.01 2.09 -2.95 9.92 0.59 1.05 0.41 12897
0.04 -0.00 2.00 -3.03 9.81 0.59 1.07 0.43 12903
0.05 -0.00 1.85 -3.09 9.75 0.60 1.07 0.46 12909
0.05 0.00 1.82 -3.26 9.65 0.62 1.05 0.49 12915
0.06 -0.01 1.78 -3.31 9.60 0.64 1.01 0.52 12922
0.06 -0.01 1.91 -3.40 9.60 0.66 0.97 0.55 12929
0.06 -0.01 2.00 -3.53 9.58 0.68 0.92 0.56 12935
0.07 -0.01 2.05 -3.64 9.62 0.70 0.88 0.54 12941
0.05 -0.00 2.03 -3.95 9.34 0.70 0.80 0.49 12947
0.04 -0.00 1.31 -4.12 9.51 0.73 0.82 0.41 12953
0.05 -0.00 2.00 -4.32 9.22 0.75 0.80 0.37 12959
0.05 -0.00 -0.01 -4.98 9.43 0.76 0.71 0.28 12966
0.05 -0.01 -2.10 -5.68 9.64 0.79 0.57 0.03 12973
0.05 -0.00 -0.36 -5.11 9.17 0.82 0.37 -0.20 12979
0.07 -0.00 -0.20 -5.02 9.47 0.81 0.16 -0.36 12985
0.06 -0.01 -2.66 -5.01 9.79 0.78 -0.04 -0.59 12991
0.05 -0.00 -1.10 -4.98 10.11 0.75 -0.26 -0.81 12997
0.06 -0.01 -1.22 -5.34 9.56 0.70 -0.40 -1.01 13004
0.05 -0.01 -1.54 -4.90 9.68 0.68 -0.57 -1.19 13010
0.04 0.01 -1.61 -5.12 10.13 0.65 -0.72 -1.34 13017
0.05 -0.01 -0.72 -4.81 10.02 0.62 -0.83 -1.44 13023
0.04 -0.00 -0.49 -4.79 9.93 0.60 -0.92 -1.53 13029
0.05 -0.00 -0.30 -4.82 9.89 0.59 -0.99 -1.58 13036
0.06 -0.01 -0.13 -4.60 9.71 0.58 -1.05 -1.60 13042
0.05 -0.00 0.32 -4.54 9.64 0.59 -1.11 -1.58 13048
0.05 -0.00 0.67 -4.37 9.14 0.60 -1.17 -1.52 13054
0.06 -0.01 1.73 -4.48 9.53 0.62 -1.25 -1.39 13061
0.05 -0.00 0.49 -4.16 9.41 0.65 -1.34 -1.29 13067
0.03 -0.00 0.65 -3.72 9.81 0.68 -1.46 -1.21 13073
0.05 -0.00 0.19 -3.68 10.29 0.70 -1.56 -1.04 13080
0.05 -0.00 1.76 -3.17 10.24 0.71 -1.62 -0.88 13086
0.04 -0.00 1.25 -3.26 10.55 0.70 -1.67 -0.72 13092
0.06 -0.00 2.79 -3.34 9.94 0.69 -1.69 -0.53 13099
0.04 -0.00 2.69 -3.14 9.76 0.68 -1.65 -0.42 13105
0.04 -0.00 2.90 -3.13 8.66 0.68 -1.57 -0.31 13112
0.05 -0.01 2.29 -3.19 9.04 0.67 -1.43 -0.20 13118
0.04 -0.00 1.41 -2.92 8.87 0.67 -1.25 -0.17 13124
0.04 -0.00 1.97 -3.04 9.44 0.66 -1.10 -0.14 13130
0.05 0.00 1.38 -2.96 9.03 0.67 -0.97 -0.13 13136
0.04 -0.00 0.86 -2.89 9.41 0.67 -0.90 -0.11 13143
0.04 -0.00 1.14 -2.75 9.32 0.65 -0.93 -0.09 13150
0.04 0.00 0.44 -2.70 9.39 0.62 -0.92 -0.11 13156
0.05 0.00 0.35 -2.79 9.68 0.57 -0.99 -0.16 13162
0.05 -0.00 -0.18 -2.96 9.95 0.54 -1.08 -0.18 13168
0.05 0.00 0.34 -3.13 10.38 0.51 -1.15 -0.20 13174
0.05 0.00 0.35 -3.13 9.71 0.46 -1.19 -0.25 13181
0.04 0.00 0.02 -3.16 9.68 0.43 -1.21 -0.31 13188
0.05 0.01 -0.33 -3.31 9.80 0.40 -1.22 -0.37 13194
0.05 0.00 0.06 -3.42 9.52 0.40 -1.23 -0.41 13200
0.04 0.01 0.36 -3.32 8.92 0.39 -1.24 -0.43 13206
0.05 0.01 0.95 -3.28 9.41 0.37 -1.27 -0.45 13213
0.06 0.00 1.26 -3.20 9.45 0.35 -1.31 -0.44 13219
0.05 0.00 1.16 -3.05 9.71 0.32 -1.34 -0.43 13225
0.06 0.01 1.33 -3.13 9.59 0.27 -1.37 -0.43 13232
0.05 -0.01 0.81 -3.25 10.31 0.22 -1.40 -0.41 13238
0.05 0.00 0.16 -3.19 10.00 0.15 -1.41 -0.43 13245
0.06 -0.01 0.03 -3.04 10.48 0.10 -1.44 -0.47 13251
0.05 -0.01 0.48 -3.62 10.05 0.07 -1.46 -0.53 13257
0.05 -0.00 1.33 -3.19 9.21 0.03 -1.45 -0.63 13263
0.06 -0.01 2.03 -3.09 8.02 -0.01 -1.41 -0.69 13270
0.05 -0.01 0.54 -3.05 8.81 -0.04 -1.38 -0.80 13277
0.05 -0.00 0.35 -2.86 8.95 -0.07 -1.35 -0.89 13283
0.06 -0.00 -0.11 -3.05 9.70 -0.09 -1.30 -0.97 13289
0.05 -0.00 0.16 -3.06 9.67 -0.13 -1.25 -1.05 13295
0.04 -0.00 1.77 -2.76 9.13 -0.16 -1.21 -1.10 13301
0.05 0.00 -0.29 -2.89 9.56 -0.20 -1.16 -1.18 13307
0.05 0.00 0.66 -2.77 9.79 -0.23 -1.14 -1.23 13315
0.04 0.00 0.39 -2.76 9.48 -0.28 -1.12 -1.28 13321
0.06 -0.00 -0.06 -2.73 9.66 -0.30 -1.11 -1.33 13327
0.05 -0.01 0.13 -2.58 9.47 -0.32 -1.11 -1.37 13333
0.05 0.00 0.75 -2.74 9.04 -0.34 -1.09 -1.41 13339
0.06 -0.01 1.04 -2.45 9.63 -0.37 -1.07 -1.45 13346
0.05 -0.01 0.80 -2.58 8.60 -0.39 -1.05 -1.48 13352
0.04 -0.00 1.88 -2.61 8.81 -0.43 -0.99 -1.54 13359
0.06 -0.01 1.52 -2.68 9.36 -0.47 -0.92 -1.61 13365
0.04 -0.00 1.06 -2.78 9.56 -0.51 -0.85 -1.65 13371
0.04 -0.00 1.09 -2.64 9.46 -0.55 -0.73 -1.67 13377
0.05 -0.00 1.19 -2.46 9.42 -0.60 -0.60 -1.70 13384
0.05 -0.01 1.34 -2.52 9.27 -0.64 -0.49 -1.71 13390
0.05 -0.00 1.36 -2.45 9.03 -0.68 -0.36 -1.70 13396
0.05 -0.00 1.33 -2.45 8.88 -0.70 -0.23 -1.67 13403
0.06 -0.01 1.30 -2.41 8.89 -0.71 -0.12 -1.63 13409
0.05 -0.01 1.32 -2.41 8.84 -0.72 -0.03 -1.57 13415
0.06 -0.01 1.34 -2.46 8.90 -0.71 0.05 -1.50 13422
0.06 -0.01 1.43 -2.45 9.02 -0.70 0.12 -1.42 13428
0.05 -0.01 1.54 -2.50 9.19 -0.69 0.18 -1.34 13434
0.05 -0.01 1.69 -2.62 9.30 -0.68 0.23 -1.26 13441
0.07 -0.01 1.91 -2.71 9.32 -0.68 0.29 -1.17 13447
0.05 -0.00 2.06 -2.84 9.32 -0.68 0.36 -1.08 13453
0.04 -0.00 2.33 -2.97 9.33 -0.68 0.38 -0.99 13459
0.05 -0.01 2.57 -3.08 9.32 -0.67 0.45 -0.87 13466
0.05 -0.00 2.74 -3.21 9.24 -0.66 0.53 -0.80 13472
0.04 -0.00 2.76 -3.30 9.50 -0.65 0.61 -0.69 13478
0.05 0.00 2.75 -3.39 9.83 -0.65 0.70 -0.58 13485
0.05 -0.01 2.71 -3.38 10.29 -0.67 0.77 -0.46 13491
0.04 -0.00 2.54 -3.32 10.69 -0.74 0.80 -0.34 13498
0.04 -0.00 2.40 -3.24 10.86 -0.85 0.81 -0.22 13504
0.04 -0.00 0.67 -5.12 11.08 -0.93 0.80 -0.11 13510
0.04 -0.00 1.09 -3.97 12.16 -1.03 0.83 -0.03 13516
0.05 -0.00 1.59 -3.43 11.13 -1.17 0.78 0.04 13522
0.05 -0.00 2.87 -3.29 9.78 -1.23 0.79 0.13 13530
0.03 -0.00 2.51 -4.21 9.72 -1.25 0.84 0.24 13536
0.04 -0.00 2.73 -4.30 10.05 -1.23 0.92 0.32 13542
0.04 -0.00 2.71 -4.42 9.96 -1.19 0.99 0.40 13548
0.04 -0.00 2.52 -4.67 9.66 -1.13 1.07 0.47 13554
0.04 -0.00 2.30 -4.78 9.49 -1.06 1.13 0.52 13560
0.05 -0.00 0.73 -6.23 9.34 -0.98 1.15 0.55 13566
0.05 -0.00 0.46 -5.90 10.76 -0.93 1.22 0.48 13574
0.05 -0.00 0.04 -5.60 10.67 -0.91 1.21 0.39 13580
0.05 -0.00 -0.15 -5.60 10.55 -0.89 1.23 0.28 13586
0.05 -0.00 -0.30 -5.20 10.13 -0.88 1.23 0.18 13592
0.05 -0.01 0.33 -4.93 9.98 -0.85 1.26 0.10 13598
0.06 -0.01 0.27 -4.39 10.27 -0.82 1.28 0.05 13605
0.05 -0.01 -0.49 -5.44 10.67 -0.79 1.29 0.02 13612
0.05 -0.00 0.26 -5.02 10.67 -0.74 1.28 -0.00 13618
0.05 -0.01 0.34 -4.63 10.66 -0.73 1.24 0.00 13624
0.05 -0.00 0.50 -4.58 10.54 -0.73 1.22 0.03 13630
0.05 -0.01 -0.86 -4.83 10.42 -0.73 1.20 0.09 13637
0.06 -0.01 0.24 -4.32 10.13 -0.71 1.14 0.16 13643
0.05 -0.01 0.80 -3.96 10.08 -0.69 1.05 0.25 13649
0.05 -0.00 0.59 -4.34 10.09 -0.64 1.02 0.37 13656
0.05 -0.01 0.09 -4.74 9.78 -0.62 0.99 0.52 13662
0.05 -0.00 1.64 -4.19 10.34 -0.54 0.96 0.65 13668
0.05 -0.00 1.29 -4.07 10.88 -0.51 0.91 0.78 13675
0.06 -0.01 1.79 -4.10 10.84 -0.49 0.91 0.90 13681
0.05 -0.01 1.85 -3.92 10.66 -0.49 0.89 1.03 13687
0.05 0.00 1.62 -3.96 10.93 -0.51 0.90 1.12 13693
0.05 -0.01 1.81 -3.79 11.12 -0.52 0.92 1.22 13701
0.04 -0.00 1.69 -3.68 10.96 -0.55 0.96 1.31 13707
0.06 -0.01 1.39 -3.54 10.72 -0.56 1.05 1.39 13713
0.05 -0.01 1.03 -3.52 10.53 -0.56 1.14 1.48 13719
0.05 -0.00 0.67 -3.60 10.41 -0.54 1.21 1.54 13725
0.07 -0.01 0.23 -3.70 10.43 -0.51 1.26 1.60 13732
0.05 -0.01 -0.14 -3.77 10.50 -0.49 1.29 1.66 13739
0.05 -0.01 -0.46 -3.78 10.71 -0.47 1.31 1.71 13745
0.06 -0.01 -0.67 -3.67 11.14 -0.46 1.32 1.77 13751
0.05 -0.01 -0.89 -3.56 11.62 -0.49 1.30 1.82 13757
0.05 -0.00 -0.98 -3.28 11.89 -0.54 1.27 1.87 13764
0.05 -0.01 -1.10 -3.09 11.98 -0.66 1.22 1.91 13770
0.04 -0.00 -1.13 -3.02 11.64 -0.72 1.15 1.94 13776
0.06 -0.01 -1.08 -2.96 11.16 -0.81 1.06 1.95 13783
0.04 -0.00 -0.94 -3.16 10.52 -0.88 0.95 1.91 13790
0.04 -0.00 -0.75 -3.38 9.87 -0.90 0.90 1.84 13796
0.05 -0.01 -0.57 -4.24 9.28 -0.87 0.86 1.73 13802
0.04 -0.00 -0.61 -3.91 8.82 -0.81 0.88 1.63 13808
0.03 -0.00 -0.91 -4.22 8.69 -0.70 0.94 1.49 13814
0.03 -0.00 -1.39 -4.32 8.52 -0.57 1.00 1.34 13820
0.04 -0.00 -1.90 -4.25 8.51 -0.45 1.00 1.17 13827
0.03 -0.00 -2.38 -4.11 8.56 -0.35 0.95 1.00 13834
0.03 -0.00 -16.13 -11.01 14.80 -0.13 0.02 0.94 13840
0.03 -0.00 -6.25 -5.94 7.18 0.16 -0.58 0.91 13846
0.03 -0.00 -6.34 -4.55 4.39 0.10 -1.20 0.81 13852
0.03 -0.00 -7.74 -9.51 7.24 0.11 -1.74 0.75 13858
0.04 -0.00 -7.26 -10.54 8.66 0.31 -1.92 0.85 13865
0.03 -0.00 -2.62 -10.35 11.44 0.82 -1.44 1.06 13872
0.04 -0.00 -1.87 -7.70 5.44 1.14 -1.08 1.21 13878
0.05 -0.00 -4.29 -7.56 6.62 1.34 -1.03 1.38 13884
0.04 -0.00 -6.51 -7.61 10.05 1.64 -1.30 1.59 13890
0.04 0.01 -41.93 -10.63 10.12 1.70 -1.78 1.54 13897
0.03 -0.00 -13.12 -4.75 29.15 0.39 -1.58 0.35 13903
0.04 0.03 -6.08 -1.57 3.54 -0.02 -0.09 -0.03 13910
0.05 0.04 -0.44 -2.12 14.60 -0.47 0.38 -0.03 13916
0.04 0.15 0.39 -0.76 10.76 -0.42 -0.02 -0.08 13923
0.07 0.27 2.04 -1.22 10.97 -0.31 -0.05 -0.03 13929
0.03 0.35 1.45 -0.95 10.49 -0.23 0.02 0.08 13935
0.03 0.37 1.03 -0.83 10.30 -0.19 0.03 0.12 13941
0.02 0.47 0.70 -0.88 10.44 -0.15 0.02 0.12 13948
0.02 0.56 0.43 -0.63 10.29 -0.09 0.02 0.10 13955
0.04 0.61 0.82 -0.76 10.17 -0.04 0.02 0.10 13961
0.03 0.65 0.91 -0.81 10.11 -0.02 0.01 0.11 13967
0.04 0.62 0.82 -0.89 10.05 -0.01 -0.00 0.10 13974
0.04 0.63 0.66 -0.82 10.02 0.00 -0.01 0.09 13980
0.04 0.60 0.66 -0.83 9.96 0.01 -0.01 0.09 13986
0.05 0.58 0.70 -0.86 9.95 0.01 -0.01 0.09 13992
0.06 0.52 0.69 -0.87 9.91 0.01 -0.01 0.08 13999
0.07 0.50 0.73 -0.82 9.92 0.00 -0.02 0.08 14006
0.08 0.48 0.75 -0.84 9.93 -0.00 -0.02 0.08 14012
0.08 0.41 0.73 -0.84 9.98 0.00 -0.03 0.08 14018
0.06 0.40 0.71 -0.83 9.95 -0.00 -0.04 0.08 14024
0.08 0.40 0.67 -0.82 9.93 -0.01 -0.04 0.08 14030
0.09 0.37 0.68 -0.86 9.89 -0.01 -0.05 0.08 14036
0.07 0.37 0.63 -0.87 9.92 -0.02 -0.05 0.08 14044
0.07 0.41 0.59 -0.88 10.02 -0.02 -0.05 0.09 14050
0.08 0.43 0.49 -0.56 9.97 -0.03 -0.04 0.09 14056
0.09 0.42 0.69 -0.81 10.00 -0.03 -0.05 0.10 14062
0.09 0.46 0.67 -0.79 9.99 -0.03 -0.05 0.10 14068
0.10 0.44 0.64 -0.78 10.02 -0.02 -0.05 0.10 14075
0.08 0.42 0.69 -0.77 9.98 -0.01 -0.04 0.10 14082
0.10 0.43 0.68 -0.78 9.97 -0.00 -0.04 0.10 14088
0.12 0.39 0.68 -0.80 9.95 0.00 -0.04 0.09 14094
0.10 0.37 0.68 -0.78 9.99 0.00 -0.05 0.09 14100
0.12 0.31 0.63 -0.82 9.93 0.00 -0.04 0.09 14107
0.13 0.31 0.67 -0.81 9.90 0.00 -0.04 0.09 14113
0.11 0.31 0.67 -0.83 9.95 -0.00 -0.04 0.09 14119
0.11 0.33 0.63 -0.83 9.91 -0.00 -0.04 0.09 14126
0.12 0.30 0.65 -0.81 9.94 -0.01 -0.05 0.09 14132
0.11 0.28 0.70 -0.81 9.91 -0.01 -0.04 0.09 14139
0.11 0.29 0.68 -0.79 9.93 -0.01 -0.04 0.09 14145
0.11 0.27 0.65 -0.82 9.92 -0.01 -0.05 0.09 14151
0.10 0.28 0.65 -0.80 9.93 -0.02 -0.05 0.10 14157
0.10 0.30 0.71 -0.79 9.92 -0.01 -0.06 0.09 14163
0.11 0.30 0.70 -0.78 9.92 -0.01 -0.06 0.09 14171
0.09 0.26 0.66 -0.84 9.97 -0.01 -0.06 0.09 14177
0.11 0.26 0.72 -0.78 10.00 -0.00 -0.06 0.09 14183
0.13 0.23 0.66 -0.83 9.98 0.00 -0.06 0.09 14189
0.12 0.28 0.65 -0.83 9.92 0.00 -0.06 0.09 14195
0.15 0.21 0.63 -0.83 9.97 0.00 -0.06 0.08 14201
0.17 0.20 0.66 -0.81 9.91 0.00 -0.06 0.08 14209
0.15 0.21 0.65 -0.83 9.95 -0.00 -0.06 0.09 14215
0.19 0.18 0.63 -0.83 9.94 -0.00 -0.06 0.09 14221
0.19 0.18 0.71 -0.80 9.92 -0.00 -0.05 0.08 14227
0.17 0.16 0.63 -0.85 9.94 -0.01 -0.06 0.09 14233
0.20 0.17 0.63 -0.85 9.95 -0.01 -0.05 0.09 14240
0.20 0.16 0.61 -0.85 9.94 -0.01 -0.05 0.08 14246
0.19 0.17 0.68 -0.86 9.93 -0.01 -0.05 0.09 14253
0.21 0.18 0.68 -0.79 9.93 -0.01 -0.06 0.09 14259
0.19 0.16 0.66 -0.83 9.95 -0.02 -0.06 0.09 14265
0.19 0.17 0.67 -0.82 9.92 -0.01 -0.07 0.09 14272
0.21 0.17 0.63 -0.81 9.92 -0.02 -0.07 0.09 14278
0.21 0.17 0.65 -0.82 9.95 -0.01 -0.07 0.09 14284
0.21 0.18 0.65 -0.84 9.91 -0.02 -0.07 0.09 14290
0.22 0.21 0.65 -0.81 9.93 -0.02 -0.06 0.09 14297
0.20 0.20 0.66 -0.81 9.92 -0.03 -0.07 0.09 14304
0.22 0.23 0.62 -0.79 9.95 -0.03 -0.07 0.09 14310
0.24 0.23 0.65 -0.83 9.97 -0.02 -0.07 0.09 14316
0.23 0.28 0.64 -0.81 9.94 -0.02 -0.06 0.09 14322
0.23 0.28 0.64 -0.82 9.96 -0.03 -0.06 0.09 14328
0.24 0.28 0.63 -0.84 9.97 -0.03 -0.06 0.10 14336
0.24 0.29 0.64 -0.80 9.96 -0.03 -0.06 0.09 14342
0.24 0.30 0.59 -0.82 9.97 -0.02 -0.06 0.09 14348
0.27 0.30 0.63 -0.80 9.91 -0.03 -0.06 0.09 14354
0.26 0.31 0.61 -0.80 9.93 -0.03 -0.06 0.09 14360
0.28 0.39 0.64 -0.82 9.98 -0.03 -0.06 0.09 14366
0.28 0.35 0.62 -0.81 9.88 -0.03 -0.06 0.09 14373
0.27 0.38 0.63 -0.75 9.99 -0.02 -0.06 0.09 14380
0.27 0.39 0.63 -0.81 9.97 -0.02 -0.06 0.09 14386
0.28 0.41 0.65 -0.80 9.98 -0.02 -0.06 0.09 14392
0.27 0.42 0.66 -0.77 9.94 -0.02 -0.07 0.09 14398
0.26 0.44 0.57 -0.79 9.94 -0.02 -0.06 0.09 14405
0.29 0.42 0.60 -0.80 9.91 -0.02 -0.06 0.09 14411
0.28 0.46 0.58 -0.78 9.94 -0.02 -0.06 0.10 14417
0.29 0.46 0.59 -0.78 9.97 -0.02 -0.06 0.10 14424
0.29 0.50 0.64 -0.78 9.96 -0.01 -0.05 0.09 14430
0.29 0.48 0.63 -0.81 9.95 -0.02 -0.05 0.09 14437
0.30 0.51 0.58 -0.81 9.92 -0.02 -0.05 0.09 14443
0.30 0.52 0.62 -0.78 9.97 -0.01 -0.05 0.09 14449
0.29 0.51 0.63 -0.77 9.98 -0.01 -0.04 0.09 14455
0.31 0.49 0.61 -0.78 9.95 -0.01 -0.04 0.09 14461
0.32 0.50 0.63 -0.79 9.94 -0.01 -0.05 0.09 14469
0.32 0.50 0.60 -0.77 9.95 -0.01 -0.04 0.09 14475
0.33 0.51 0.62 -0.78 9.95 -0.01 -0.04 0.09 14481
0.33 0.48 0.59 -0.79 9.93 -0.01 -0.04 0.09 14487
0.33 0.47 0.63 -0.80 9.94 -0.01 -0.04 0.09 14493
0.35 0.46 0.58 -0.80 9.92 -0.01 -0.05 0.09 14500
0.34 0.47 0.57 -0.74 9.96 -0.01 -0.05 0.09 14507
0.33 0.50 0.61 -0.78 9.92 -0.01 -0.04 0.09 14513
0.35 0.51 0.59 -0.79 9.97 -0.01 -0.04 0.09 14519
0.34 0.51 0.64 -0.76 9.93 -0.01 -0.04 0.09 14525
0.35 0.51 1.19 -0.79 9.87 -0.01 -0.04 0.09 14532
0.36 0.52 0.60 -0.75 9.99 -0.01 -0.03 0.08 14538
0.35 0.51 0.61 -0.79 9.95 -0.01 -0.04 0.09 14544
0.34 0.50 0.61 -0.75 9.91 -0.01 -0.03 0.09 14551
0.36 0.50 0.57 -0.79 9.91 -0.01 -0.02 0.09 14557
0.35 0.49 0.60 -0.77 9.94 -0.00 -0.02 0.09 14563
0.35 0.50 0.59 -0.79 9.95 -0.01 -0.02 0.09 14570
0.36 0.50 0.61 -0.80 9.94 -0.00 -0.01 0.08 14576
0.35 0.49 0.63 -0.77 9.97 -0.00 -0.01 0.09 14582
0.35 0.49 0.60 -0.76 9.93 -0.00 -0.01 0.09 14588
0.35 0.46 0.57 -0.81 9.98 -0.00 -0.00 0.09 14595
0.31 0.45 0.61 -0.77 9.96 -0.00 0.01 0.08 14602
0.31 0.43 0.62 -0.75 9.87 0.00 0.02 0.09 14608
0.31 0.42 0.62 -0.78 9.94 0.00 0.02 0.09 14614
0.28 0.38 0.60 -0.82 9.96 0.00 0.02 0.09 14620
0.27 0.38 0.62 -0.78 9.98 0.00 0.03 0.09 14626
0.26 0.38 0.64 -0.79 9.95 0.01 0.03 0.10 14632
0.24 0.36 0.63 -0.80 9.93 0.01 0.03 0.09 14640
0.22 0.34 0.68 -0.78 9.96 0.01 0.03 0.09 14646
0.23 0.34 0.66 -0.78 9.94 0.01 0.03 0.09 14652
0.20 0.30 0.66 -0.80 9.90 0.01 0.04 0.09 14658
0.18 0.29 0.67 -0.81 9.92 0.01 0.03 0.10 14664
0.20 0.28 0.72 -0.81 10.18 0.00 0.03 0.10 14671
0.20 0.26 0.68 -0.78 9.95 0.01 0.02 0.10 14678
0.20 0.27 0.70 -0.80 10.01 0.01 0.01 0.10 14684
0.19 0.26 0.70 -0.77 9.96 0.01 0.01 0.09 14690
0.19 0.23 0.70 -0.80 9.92 0.01 0.00 0.10 14696
0.17 0.24 0.68 -0.77 9.87 0.01 -0.00 0.10 14703
0.19 0.22 0.69 -0.80 9.93 0.00 -0.01 0.09 14709
0.18 0.25 0.73 -0.83 9.92 0.00 -0.02 0.10 14715
0.18 0.21 0.73 -0.83 9.91 0.00 -0.03 0.10 14722
0.20 0.21 0.69 -0.79 9.93 -0.00 -0.03 0.09 14728
0.19 0.21 0.72 -0.80 9.93 -0.00 -0.04 0.09 14734
0.17 0.22 0.69 -0.82 9.92 -0.01 -0.04 0.10 14741
0.19 0.22 0.74 -0.80 9.96 -0.01 -0.04 0.10 14747
0.18 0.21 0.64 -0.82 9.93 -0.02 -0.04 0.09 14753
0.18 0.21 0.67 -0.80 9.94 -0.01 -0.04 0.10 14759
0.19 0.22 0.70 -0.80 9.98 -0.01 -0.04 0.10 14766
0.18 0.22 0.66 -0.77 9.96 -0.02 -0.04 0.09 14773
0.18 0.22 0.68 -0.78 9.93 -0.02 -0.05 0.10 14779
0.19 0.23 0.70 -0.80 9.89 -0.01 -0.05 0.09 14785
0.18 0.23 0.69 -0.79 9.95 -0.02 -0.05 0.09 14791
0.17 0.24 0.70 -0.75 9.95 -0.01 -0.05 0.09 14797
0.19 0.25 0.68 -0.79 9.95 -0.01 -0.05 0.09 14803
0.18 0.24 0.68 -0.80 9.98 -0.01 -0.05 0.09 14811
0.18 0.24 0.66 -0.81 9.94 -0.01 -0.04 0.09 14817
0.20 0.25 0.68 -0.81 9.93 -0.00 -0.04 0.10 14823
0.18 0.23 0.69 -0.81 9.97 -0.00 -0.03 0.09 14829
0.19 0.22 0.68 -0.79 9.95 -0.00 -0.03 0.09 14835
0.20 0.23 0.64 -0.78 9.95 -0.00 -0.04 0.09 14842
0.19 0.21 0.70 -0.79 9.92 -0.00 -0.03 0.09 14849
0.18 0.24 0.67 -0.80 9.92 -0.00 -0.03 0.09 14855
0.19 0.22 0.70 -0.80 9.97 -0.00 -0.03 0.09 14861
0.19 0.21 0.71 -0.78 9.91 -0.00 -0.03 0.09 14867
0.19 0.20 0.67 -0.79 9.95 -0.00 -0.03 0.09 14873
0.20 0.19 0.69 -0.79 9.94 -0.00 -0.04 0.09 14880
0.19 0.17 0.69 -0.77 9.92 -0.00 -0.04 0.09 14886
0.18 0.18 0.66 -0.79 9.89 -0.00 -0.04 0.09 14893
0.20 0.18 0.69 -0.81 9.95 -0.01 -0.04 0.09 14899
0.19 0.19 0.74 -0.76 9.93 -0.01 -0.04 0.08 14905
0.19 0.18 0.69 -0.80 9.92 -0.01 -0.04 0.09 14912
0.19 0.18 0.70 -0.79 9.96 -0.01 -0.04 0.09 14918
0.19 0.18 0.70 -0.83 9.90 -0.01 -0.04 0.09 14924
0.18 0.20 0.65 -0.80 10.02 -0.00 -0.03 0.10 14930
0.20 0.19 0.70 -0.79 9.93 -0.00 -0.03 0.09 14937
0.18 0.19 0.70 -0.79 9.99 -0.00 -0.02 0.09 14944
0.18 0.19 0.69 -0.80 9.94 -0.00 -0.02 0.09 14950
0.20 0.20 0.71 -0.79 9.92 -0.00 -0.02 0.09 14956
0.18 0.19 0.70 -0.80 9.94 0.00 -0.02 0.10 14962
0.18 0.17 0.71 -0.79 9.97 0.00 -0.01 0.09 14968
0.20 0.21 0.69 -0.83 9.91 0.00 -0.01 0.09 14974
0.19 0.17 0.68 -0.80 9.96 0.00 -0.02 0.09 14982
0.18 0.16 0.68 -0.79 9.93 0.00 -0.01 0.09 14988
0.19 0.15 0.73 -0.77 9.96 0.00 -0.01 0.09 14994
0.19 0.16 0.70 -0.79 9.97 0.00 -0.01 0.10 15000
0.18 0.14 0.73 -0.80 9.98 0.00 -0.01 0.09 15006
0.19 0.11 0.74 -0.80 9.94 0.00 -0.01 0.09 15012
0.19 0.10 0.75 -0.80 9.92 0.00 -0.01 0.09 15020
0.18 0.10 0.71 -0.82 9.95 0.00 -0.01 0.09 15026
0.19 0.13 0.73 -0.81 9.90 0.00 -0.00 0.09 15032
0.19 0.07 0.75 -0.83 9.96 -0.00 0.00 0.10 15038
0.19 0.07 0.74 -0.81 9.84 0.00 0.01 0.10 15044
0.18 0.07 0.75 -0.81 9.94 0.01 0.01 0.10 15050
0.19 0.07 0.72 -0.82 9.97 0.01 0.01 0.09 15057
0.18 0.06 0.73 -0.85 9.99 0.01 0.01 0.10 15064
0.18 0.06 0.78 -0.78 9.96 0.01 0.01 0.10 15070
0.20 0.07 0.78 -0.81 9.96 0.01 0.01 0.10 15076
0.20 0.04 0.71 -0.80 9.92 0.02 0.00 0.10 15082
0.20 0.00 0.76 -0.80 9.95 0.02 -0.00 0.10 15088
0.21 0.03 0.74 -0.84 9.93 0.02 -0.01 0.10 15095
0.21 0.01 0.77 -0.79 9.92 0.02 -0.01 0.10 15101
0.20 0.01 0.74 -0.81 9.91 0.02 -0.01 0.09 15108
0.24 0.02 0.80 -0.83 9.98 0.02 -0.02 0.09 15114
0.25 0.01 0.76 -0.82 9.93 0.01 -0.02 0.09 15120
0.23 0.03 0.80 -0.86 9.91 0.02 -0.02 0.08 15127
0.23 0.02 0.76 -0.84 9.97 0.01 -0.02 0.09 15133
0.24 0.02 0.80 -0.85 9.91 0.01 -0.02 0.09 15139
0.23 0.01 0.81 -0.85 9.94 0.02 -0.02 0.09 15145
0.25 0.01 0.82 -0.86 9.96 0.02 -0.01 0.08 15152
0.25 -0.00 0.79 -0.24 9.95 0.02 -0.01 0.09 15158
0.25 -0.01 0.78 -0.87 9.94 0.02 -0.01 0.08 15165
0.27 -0.01 0.79 -0.84 9.94 0.02 -0.00 0.08 15171
0.29 -0.02 0.82 -0.85 9.98 0.03 -0.01 0.08 15177
0.29 -0.02 0.72 -0.81 9.99 0.02 -0.01 0.07 15183
0.29 -0.01 0.79 -0.91 9.89 0.03 -0.01 0.08 15190
0.28 -0.01 0.75 -0.88 9.98 0.03 -0.01 0.08 15196
0.28 -0.02 0.76 -0.87 9.96 0.03 -0.01 0.08 15203
0.29 -0.01 0.77 -0.85 9.93 0.03 -0.01 0.08 15209
0.29 -0.02 0.83 -0.89 9.90 0.03 -0.01 0.07 15215
0.28 -0.03 0.86 -0.90 9.91 0.02 -0.01 0.07 15221
0.25 -0.02 0.84 -0.89 9.89 0.02 -0.02 0.07 15227
0.25 -0.02 0.83 -0.88 9.89 0.01 -0.02 0.07 15234
0.24 -0.02 0.85 -0.88 9.91 0.01 -0.02 0.07 15241
0.24 -0.02 0.87 -0.95 9.84 0.00 -0.03 0.07 15247
0.24 -0.01 0.80 -0.91 9.92 -0.00 -0.03 0.06 15253
0.21 -0.02 0.85 -0.93 9.94 -0.01 -0.04 0.06 15259
0.20 -0.02 0.81 -0.91 9.95 -0.01 -0.04 0.05 15265
0.20 -0.01 0.82 -0.94 9.93 -0.02 -0.05 0.05 15271
0.18 -0.01 0.87 -0.93 9.92 -0.03 -0.05 0.05 15279
0.16 -0.02 0.81 -0.94 9.95 -0.03 -0.05 0.04 15285
0.15 -0.00 0.90 -0.70 10.06 -0.04 -0.06 0.05 15291
0.16 -0.02 0.79 -0.90 9.92 -0.05 -0.06 0.04 15297
0.13 -0.01 0.79 -0.90 9.92 -0.06 -0.05 0.04 15303
0.11 -0.00 0.78 -0.87 9.94 -0.06 -0.05 0.04 15309
0.11 -0.01 0.73 -0.87 9.99 -0.07 -0.04 0.05 15316
0.09 -0.01 0.77 -0.82 9.94 -0.07 -0.04 0.05 15323
0.07 0.02 0.77 -0.88 10.04 -0.07 -0.03 0.06 15329
0.07 0.01 0.87 -0.89 10.03 -0.06 -0.04 0.07 15335
0.05 0.01 0.81 -0.86 10.03 -0.05 -0.05 0.07 15341
0.06 0.05 0.86 -0.86 9.98 -0.03 -0.05 0.07 15348
0.06 0.03 0.87 -0.78 9.91 -0.02 -0.06 0.07 15354
0.04 0.04 0.85 -0.82 9.96 -0.01 -0.06 0.06 15361
0.06 0.05 0.78 -0.79 9.94 0.00 -0.06 0.06 15367
0.05 0.04 0.79 -0.84 9.94 0.01 -0.06 0.06 15373
0.05 0.02 0.79 -0.88 9.94 0.02 -0.06 0.06 15379
0.04 0.03 0.82 -0.90 9.90 0.02 -0.06 0.06 15386
0.06 0.02 0.80 -0.94 9.95 0.02 -0.05 0.05 15392
0.05 -0.00 0.84 -0.92 9.92 0.01 -0.05 0.05 15398
0.05 0.00 0.80 -0.93 9.96 0.01 -0.04 0.05 15405
0.06 -0.01 0.82 -0.92 9.91 0.01 -0.04 0.05 15411
0.05 0.00 0.84 -0.91 9.96 0.00 -0.03 0.05 15417
0.05 0.00 0.84 -0.96 9.96 0.00 -0.03 0.05 15424
0.06 0.00 0.83 -0.88 9.94 0.01 -0.02 0.05 15430
0.05 -0.00 0.87 -0.90 10.00 0.01 -0.03 0.04 15436
0.03 -0.00 0.96 -0.96 10.05 0.01 -0.03 0.04 15442
0.05 0.00 0.93 -0.93 9.95 0.02 -0.03 0.02 15449
0.05 -0.00 0.90 -0.92 9.99 0.02 -0.01 0.02 15455
0.05 -0.00 0.90 -0.92 10.01 0.02 -0.01 0.02 15461
0.05 -0.00 0.95 -0.82 9.83 0.02 0.02 -0.01 15468
0.06 -0.01 1.15 -0.75 10.33 0.04 0.06 -0.02 15474
0.05 -0.01 0.71 -1.09 10.19 0.08 0.12 -0.03 15480
0.05 -0.00 1.04 -0.84 10.51 0.16 0.23 -0.02 15486
0.06 -0.01 0.98 -1.01 10.12 0.22 0.31 -0.04 15493
0.05 -0.01 0.87 -1.03 10.10 0.26 0.35 -0.04 15500
0.05 -0.00 0.88 -1.06 10.25 0.29 0.37 -0.04 15506
0.06 -0.01 1.07 -1.14 10.54 0.33 0.38 -0.02 15512
0.04 -0.00 0.88 -1.18 10.22 0.37 0.39 -0.03 15518
0.04 -0.00 1.18 -1.25 10.26 0.38 0.38 -0.00 15524
0.06 -0.01 1.06 -1.23 10.46 0.39 0.40 -0.00 15531
0.04 -0.00 1.06 -1.27 10.26 0.40 0.40 0.00 15538
0.04 -0.00 1.21 -1.32 10.17 0.39 0.39 0.01 15544
0.06 -0.00 1.15 -1.30 10.14 0.39 0.40 0.02 15550
0.05 -0.00 1.13 -1.36 10.12 0.38 0.42 0.03 15556
0.04 -0.00 1.16 -1.32 10.02 0.38 0.43 0.03 15562
0.06 -0.01 1.29 -1.32 9.75 0.37 0.46 0.04 15569
0.05 -0.00 1.32 -1.33 10.03 0.36 0.46 0.03 15576
0.04 0.00 1.41 -1.41 10.26 0.37 0.44 0.03 15582
