Voltage_01 Voltage_02 Acc_x Acc_y Acc_z Gyro_x Gyro_y Gyro_z Time
5000
-0.00 0.02 -8.29 -17.77 4.20 1.01 -1.37 0.37 17
0.00 0.03 -1.83 -0.95 7.34 1.48 -0.86 0.63 24
-0.01 0.09 -5.36 -1.27 7.19 1.80 -0.73 0.46 31
-0.02 0.20 -4.75 -0.63 16.34 2.12 -0.95 0.06 39
-0.02 0.22 0.27 -2.95 33.11 1.51 -2.14 -0.38 47
-0.03 0.35 1.45 -1.74 12.69 0.03 -0.77 -0.18 54
-0.03 0.37 -0.01 -1.14 10.47 -0.15 -0.07 -0.13 61
-0.02 0.42 0.86 -2.00 10.21 -0.09 -0.13 -0.11 68
-0.02 0.44 0.97 -1.94 10.21 -0.05 -0.09 -0.03 75
-0.03 0.51 0.14 -0.71 10.22 -0.02 -0.03 0.01 81
-0.05 0.49 -0.15 -0.89 10.09 -0.03 0.02 -0.03 89
-0.02 0.51 0.31 -0.86 9.81 -0.02 0.06 -0.03 96
-0.02 0.47 0.51 -0.85 9.87 -0.01 0.08 -0.02 103
0.01 0.47 0.41 -0.94 9.81 -0.01 0.09 -0.02 110
0.01 0.47 0.45 -0.87 9.80 -0.01 0.08 -0.03 117
0.01 0.47 0.51 -0.83 9.81 -0.01 0.07 -0.03 124
-0.01 0.50 0.52 -0.89 9.80 -0.01 0.06 -0.03 132
-0.00 0.52 0.48 -0.83 9.80 -0.01 0.05 -0.04 139
0.00 0.53 0.51 -0.84 9.78 -0.01 0.04 -0.04 146
-0.01 0.54 0.49 -0.85 9.70 -0.01 0.03 -0.05 153
-0.01 0.53 0.44 -0.82 9.70 -0.01 0.02 -0.05 160
-0.01 0.51 0.30 -0.91 9.80 -0.02 0.03 -0.05 167
-0.01 0.54 0.37 -0.83 9.78 -0.02 0.03 -0.05 175
-0.00 0.55 0.38 -0.83 9.83 -0.02 0.04 -0.05 182
0.00 0.58 0.39 -0.80 9.78 -0.02 0.04 -0.05 189
-0.01 0.58 0.40 -0.84 9.80 -0.02 0.05 -0.05 196
-0.01 0.57 0.42 -0.83 9.79 -0.01 0.04 -0.06 203
-0.01 0.58 0.44 -0.88 9.86 -0.01 0.04 -0.05 210
-0.01 0.57 0.45 -0.90 9.80 -0.01 0.05 -0.06 218
-0.01 0.59 0.48 -0.85 9.80 -0.01 0.04 -0.06 225
0.01 0.58 0.46 -0.86 9.82 -0.00 0.04 -0.06 232
0.00 0.58 0.47 -0.83 9.81 -0.01 0.04 -0.06 239
-0.01 0.55 0.45 -0.83 9.76 0.00 0.04 -0.06 246
0.00 0.51 0.42 -0.81 9.77 0.00 0.03 -0.07 253
-0.00 0.50 0.45 -0.84 9.80 -0.00 0.04 -0.06 261
0.01 0.50 0.45 -0.83 9.81 0.00 0.03 -0.06 268
0.02 0.47 0.42 -0.86 9.79 0.01 0.03 -0.07 275
0.02 0.46 0.42 -0.84 9.78 0.00 0.03 -0.06 282
0.02 0.44 0.46 -0.87 9.79 0.00 0.03 -0.07 289
0.03 0.41 0.45 -0.86 9.78 0.00 0.03 -0.07 296
0.03 0.42 0.45 -0.85 9.81 0.01 0.03 -0.07 304
0.05 0.41 0.46 -0.87 9.82 0.00 0.03 -0.07 311
0.06 0.38 0.44 -0.84 9.82 0.01 0.03 -0.07 318
0.04 0.38 0.45 -0.86 9.79 0.01 0.02 -0.07 325
0.05 0.37 0.44 -0.85 9.80 0.00 0.02 -0.08 332
0.06 0.35 0.45 -0.90 9.82 0.00 0.02 -0.08 339
0.06 0.35 0.44 -0.88 9.80 0.00 0.01 -0.08 347
0.06 0.34 0.45 -0.84 9.80 0.00 0.02 -0.08 354
0.07 0.34 0.40 -0.91 9.85 -0.00 0.02 -0.08 361
0.06 0.33 0.42 -0.88 9.82 0.00 0.01 -0.08 368
0.07 0.31 0.42 -0.86 9.79 0.00 0.02 -0.08 375
0.05 0.30 0.44 -0.85 9.80 0.00 0.02 -0.09 382
0.07 0.26 0.41 -0.86 9.79 -0.03 0.02 -0.08 390
0.08 0.26 0.38 -0.87 9.81 -0.00 0.02 -0.08 397
0.12 0.24 0.41 -0.88 9.76 0.00 0.01 -0.08 404
0.12 0.25 0.43 -0.87 9.78 0.01 0.02 -0.09 411
0.10 0.22 0.42 -0.89 9.80 0.01 0.02 -0.08 418
0.11 0.26 0.39 -0.87 9.82 0.01 0.02 -0.09 425
0.14 0.25 0.37 -0.90 9.80 0.01 0.02 -0.09 433
0.16 0.21 0.42 -0.84 9.81 0.01 0.03 -0.09 440
0.16 0.21 0.43 -0.88 9.77 0.01 0.03 -0.09 447
0.17 0.20 0.40 -0.88 10.40 0.01 0.03 -0.09 454
0.19 0.15 0.41 -0.92 9.79 0.01 0.03 -0.08 461
0.21 0.12 0.40 -0.86 9.80 0.01 0.03 -0.09 468
0.23 0.09 0.40 -0.91 9.81 0.01 0.04 -0.09 476
0.24 0.11 0.37 -0.90 9.79 0.01 0.04 -0.09 483
0.27 0.06 0.43 -0.92 9.80 0.02 0.04 -0.09 490
0.26 0.05 0.44 -0.90 9.81 0.02 0.04 -0.09 497
0.30 0.03 0.40 -0.93 9.76 0.02 0.04 -0.09 504
0.30 0.01 0.36 -0.90 9.81 0.03 0.05 -0.09 512
0.32 0.02 0.39 -0.90 9.82 0.03 0.05 -0.09 519
0.36 -0.01 0.38 -0.91 9.79 0.03 0.05 -0.09 526
0.36 0.00 0.41 -0.97 9.78 0.04 0.06 -0.09 533
0.37 -0.02 0.41 -0.92 9.84 0.04 0.06 -0.09 540
0.39 -0.02 0.42 -0.96 10.41 0.04 0.06 -0.09 547
0.40 -0.01 0.40 -0.89 9.80 0.05 0.07 -0.09 555
0.40 -0.01 0.40 -0.99 9.85 0.06 0.06 -0.08 562
0.46 -0.02 0.43 -0.92 9.87 0.07 0.07 -0.08 569
0.46 -0.03 0.41 -0.95 9.83 0.09 0.08 -0.09 576
0.51 -0.05 0.40 -0.97 9.86 0.11 0.08 -0.09 583
0.49 -0.03 0.43 -1.03 9.85 0.14 0.10 -0.09 590
0.52 -0.02 0.45 -1.04 9.93 0.17 0.11 -0.10 598
0.62 -0.02 0.48 -1.04 9.97 0.22 0.12 -0.10 605
0.63 -0.02 0.51 -1.06 10.05 0.27 0.14 -0.11 613
0.65 -0.02 0.52 -1.06 10.21 0.36 0.16 -0.12 620
0.66 -0.04 0.52 -1.11 10.47 0.51 0.20 -0.13 627
0.67 -0.03 0.47 -1.20 10.61 0.69 0.24 -0.13 634
0.72 -0.03 0.57 -1.28 10.66 0.89 0.26 -0.12 642
0.74 -0.04 0.56 -1.26 10.62 1.02 0.23 -0.14 649
0.78 -0.03 0.54 -1.39 10.80 1.10 0.17 -0.14 656
0.80 -0.04 0.62 -1.42 10.86 1.14 0.13 -0.15 663
0.84 -0.04 0.64 -1.65 11.05 1.18 0.13 -0.15 670
0.84 -0.04 0.60 -1.62 11.17 1.24 0.13 -0.15 677
0.85 -0.03 0.58 -1.68 11.10 1.33 0.12 -0.16 685
0.87 -0.03 0.59 -1.87 11.06 1.42 0.13 -0.17 692
0.86 -0.04 0.78 -1.94 11.25 1.53 0.16 -0.17 699
0.81 -0.03 0.77 -2.07 11.00 1.64 0.16 -0.17 706
0.74 -0.03 0.84 -2.23 10.60 1.77 0.19 -0.19 713
0.72 -0.03 0.91 -2.44 11.41 1.90 0.22 -0.21 720
0.65 -0.03 0.32 -2.15 11.64 2.04 0.30 -0.24 728
0.61 -0.03 0.29 -2.58 11.63 2.20 0.38 -0.22 735
0.51 -0.03 0.42 -2.65 12.10 2.35 0.48 -0.20 742
0.39 -0.03 0.61 -2.68 12.63 2.57 0.59 -0.18 749
0.26 -0.02 0.32 -3.14 13.79 2.80 0.67 -0.17 756
0.23 -0.01 0.57 -3.34 13.81 2.99 0.86 -0.14 763
0.09 -0.00 0.36 -3.91 14.81 3.18 0.97 -0.10 770
0.08 -0.01 0.52 -4.49 14.75 3.34 1.13 -0.04 777
0.06 -0.01 0.84 -4.93 15.51 3.45 1.22 0.00 784
0.06 -0.01 1.26 -5.64 16.24 3.58 1.23 0.04 791
0.05 -0.00 1.58 -6.53 16.69 3.59 1.31 0.10 798
0.05 -0.01 1.70 -6.31 16.55 3.54 1.32 0.12 805
0.01 -0.00 0.91 -5.92 15.69 3.49 1.22 0.11 813
0.01 -0.00 0.81 -5.88 15.05 3.44 1.07 0.10 820
0.00 -0.00 0.61 -5.25 14.43 3.41 0.90 0.08 827
0.00 0.00 1.21 -4.87 13.86 3.38 0.73 0.04 834
0.00 0.00 1.09 -4.63 13.97 3.32 0.58 -0.00 841
0.00 -0.00 0.91 -4.34 14.17 3.31 0.33 -0.05 848
0.01 -0.00 0.87 -4.29 14.04 3.34 -0.02 -0.12 856
0.00 0.00 1.18 -3.26 13.33 3.28 -0.37 -0.13 863
0.00 0.00 1.42 -1.94 13.10 3.19 -0.57 -0.11 870
0.00 0.00 2.04 -0.23 10.80 3.01 -0.71 -0.09 877
0.00 0.00 2.62 2.47 8.89 2.77 -0.77 -0.11 884
0.00 0.00 3.19 5.39 5.97 2.50 -0.79 -0.20 890
0.01 -0.00 0.93 10.56 5.35 2.02 -0.92 -0.41 897
0.00 0.00 -0.47 10.73 4.39 1.29 -1.18 -1.08 904
0.00 0.00 0.38 6.15 10.30 0.59 -1.40 -1.60 911
0.00 0.00 0.17 4.58 12.30 -0.03 -1.39 -1.83 918
0.00 0.00 -0.33 3.94 11.08 -0.36 -1.18 -2.13 925
0.00 0.00 -0.13 4.29 8.81 -0.55 -1.04 -2.41 932
0.00 0.00 0.08 4.93 7.52 -0.69 -1.04 -2.68 939
0.00 0.00 -0.61 5.00 6.29 -0.79 -1.11 -2.91 945
0.00 0.00 -0.17 4.66 5.52 -0.90 -1.20 -3.07 951
0.00 0.00 -0.22 4.06 6.27 -0.99 -1.33 -3.24 957
0.00 0.00 -0.12 3.46 6.52 -1.06 -1.49 -3.35 963
0.00 0.00 0.03 2.94 7.06 -1.14 -1.64 -3.42 970
0.00 0.00 0.37 2.71 7.55 -1.21 -1.78 -3.45 976
0.00 0.00 0.80 2.37 7.64 -1.32 -1.85 -3.44 984
0.00 0.00 1.67 2.29 8.68 -1.47 -1.87 -3.44 990
0.00 0.00 2.85 2.19 9.01 -1.68 -1.75 -3.42 997
0.00 0.00 3.67 2.14 9.08 -1.93 -1.56 -3.40 1003
0.00 0.00 4.48 1.85 9.18 -2.25 -1.12 -3.35 1010
0.00 0.00 4.93 1.45 9.17 -2.53 -0.55 -3.25 1017
0.00 -0.00 5.11 0.94 9.13 -2.81 -0.08 -3.14 1025
0.00 0.00 4.96 0.40 9.07 -3.01 0.40 -3.00 1032
0.00 0.00 4.78 -0.06 9.17 -3.14 0.71 -2.83 1039
0.00 0.00 4.64 -0.84 9.37 -3.25 0.97 -2.67 1046
0.00 0.00 4.70 -1.87 9.81 -3.32 1.11 -2.44 1053
0.00 0.00 4.65 -2.80 10.27 -3.37 1.18 -2.21 1060
0.00 -0.00 4.67 -3.79 10.59 -3.38 1.21 -1.89 1068
0.00 0.00 4.70 -4.71 10.78 -3.35 1.19 -1.51 1075
0.00 0.00 4.96 -5.32 10.84 -3.26 1.11 -1.16 1082
0.00 0.00 5.23 -5.69 11.00 -3.15 1.05 -0.73 1089
0.00 0.00 5.61 -5.85 11.29 -3.01 1.10 -0.30 1096
0.00 0.00 5.80 -6.43 11.64 -2.85 1.31 0.05 1103
0.00 0.00 5.76 -7.02 12.47 -2.73 1.63 0.47 1111
0.00 0.00 5.13 -7.30 12.62 -2.60 1.87 0.83 1118
0.00 0.00 4.33 -7.23 13.00 -2.45 2.14 1.24 1125
0.00 0.00 3.63 -7.03 13.43 -2.36 2.30 1.62 1132
0.00 0.00 2.90 -6.98 13.46 -2.23 2.42 1.94 1139
0.00 0.00 2.39 -7.02 13.47 -2.14 2.48 2.26 1146
0.00 0.00 1.82 -6.99 13.62 -2.02 2.51 2.50 1154
0.00 0.00 1.22 -7.13 13.69 -1.91 2.51 2.72 1161
0.00 0.00 0.57 -7.20 13.55 -1.83 2.48 2.88 1168
0.00 0.00 -0.14 -7.25 13.67 -1.73 2.38 2.95 1175
0.00 0.00 -0.74 -7.46 13.59 -1.64 2.20 2.97 1182
0.00 0.00 -1.12 -7.60 13.59 -1.54 2.01 2.90 1189
0.00 0.00 -1.27 -7.76 13.28 -1.43 1.81 2.75 1197
0.00 0.00 -1.25 -7.81 12.62 -1.33 1.64 2.53 1204
0.00 0.00 -1.31 -8.01 12.83 -1.22 1.45 2.31 1211
0.00 0.00 -1.76 -7.84 12.60 -1.12 1.24 2.01 1218
0.00 0.00 -1.90 -7.70 12.67 -1.04 1.08 1.74 1225
0.00 0.00 -1.84 -7.53 12.60 -0.99 0.89 1.49 1232
0.00 0.00 -1.82 -7.38 12.84 -0.99 0.71 1.23 1240
0.00 0.00 -1.49 -7.40 12.90 -1.00 0.66 1.03 1247
0.00 0.00 -1.03 -7.66 12.90 -1.01 0.65 0.83 1254
0.00 0.00 -0.69 -7.81 12.51 -1.02 0.71 0.69 1261
0.00 0.00 -0.31 -7.76 12.26 -1.04 0.86 0.55 1268
0.00 0.00 -0.05 -7.72 11.67 -1.06 1.09 0.46 1275
0.00 0.00 -0.17 -7.62 10.43 -1.07 1.31 0.42 1283
0.00 0.00 -0.63 -7.78 10.71 -1.08 1.53 0.41 1290
0.00 0.00 -1.30 -8.04 10.42 -1.08 1.66 0.43 1297
0.00 0.00 -2.12 -8.39 10.21 -1.05 1.73 0.48 1304
0.00 0.00 -2.75 -8.69 9.89 -1.01 1.69 0.53 1311
0.00 0.00 -3.06 -8.94 9.65 -0.96 1.63 0.57 1318
0.00 0.00 -3.24 -9.19 9.23 -0.92 1.55 0.62 1326
0.00 0.00 -3.24 -9.53 9.03 -0.90 1.46 0.66 1333
0.00 0.00 -4.84 -11.58 9.64 -0.85 1.22 0.67 1340
0.00 0.00 -9.68 -14.06 14.45 -0.48 0.31 0.75 1347
0.00 0.00 -5.87 -10.01 6.37 -0.35 -0.12 0.75 1354
0.00 0.00 -3.57 -9.62 2.38 -0.39 -0.35 0.66 1361
0.00 0.00 -7.40 -15.69 9.54 -0.26 -0.97 0.60 1369
0.00 0.00 -6.33 -15.21 9.35 0.16 -1.34 0.55 1376
0.00 0.00 -4.01 -12.80 4.22 0.43 -1.37 0.40 1383
0.00 0.00 -4.80 -15.78 5.53 0.70 -1.46 0.30 1390
0.00 -0.00 -5.08 -16.37 5.98 1.05 -1.54 0.40 1397
0.00 0.00 -6.62 -17.64 7.92 1.36 -1.64 0.72 1404
-0.00 0.02 -5.92 -10.36 8.43 1.62 -1.46 1.17 1412
-0.00 0.03 -3.15 2.01 9.94 1.90 -0.95 1.32 1419
-0.01 0.09 -6.81 -2.83 13.47 2.11 -0.76 1.19 1426
-0.02 0.18 -8.60 0.50 14.48 2.13 -0.86 0.76 1433
-0.01 0.29 -7.15 -1.13 15.77 2.12 -1.04 -0.01 1441
-0.02 0.30 -1.15 -3.23 26.14 1.25 -1.91 -0.47 1448
-0.03 0.31 0.59 -1.71 10.73 0.02 -0.51 -0.19 1455
-0.03 0.34 0.63 -1.79 10.20 -0.14 -0.13 -0.13 1462
-0.03 0.37 1.03 -1.88 9.79 -0.11 -0.07 -0.09 1469
-0.02 0.37 0.79 -1.01 9.85 -0.04 -0.15 -0.01 1476
-0.02 0.39 0.55 -0.54 9.89 0.00 -0.09 0.01 1483
-0.02 0.36 0.03 -0.86 10.00 -0.00 -0.05 -0.02 1490
0.01 0.34 0.21 -0.95 9.85 -0.02 -0.03 -0.04 1498
-0.03 0.35 0.46 -0.92 9.82 -0.02 -0.01 -0.03 1505
-0.03 0.38 0.43 -0.82 9.75 -0.01 0.01 -0.02 1512
-0.02 0.39 0.39 -0.89 9.81 -0.01 0.01 -0.03 1519
-0.01 0.40 0.45 -0.86 9.81 -0.02 0.01 -0.03 1526
-0.01 0.38 0.52 -0.86 9.74 -0.02 0.01 -0.04 1533
0.01 0.34 0.53 -0.81 9.66 -0.03 -0.00 -0.05 1541
0.00 0.37 0.55 -0.75 9.62 -0.03 -0.02 -0.07 1548
-0.01 0.42 0.48 -0.80 9.76 -0.03 -0.02 -0.08 1555
0.02 0.38 0.41 -0.88 9.78 -0.03 -0.02 -0.08 1562
0.02 0.43 0.34 -0.78 9.78 -0.07 -0.01 -0.08 1569
0.05 0.48 0.22 -0.84 9.89 -0.03 0.00 -0.08 1576
0.05 0.49 0.29 -0.79 9.93 -0.03 0.02 -0.07 1584
0.03 0.50 0.31 -0.80 9.92 -0.02 0.04 -0.07 1591
0.03 0.48 0.28 -0.83 9.91 -0.02 0.05 -0.07 1598
0.04 0.48 0.39 -0.77 9.89 -0.01 0.05 -0.06 1605
0.04 0.48 0.40 -0.80 9.78 -0.01 0.06 -0.06 1612
0.05 0.49 0.42 -0.82 9.82 -0.00 0.06 -0.06 1619
0.04 0.46 0.46 -0.86 9.81 -0.00 0.06 -0.07 1627
0.06 0.43 0.44 -0.82 9.82 -0.00 0.06 -0.07 1634
0.05 0.44 0.42 -0.80 9.82 0.00 0.06 -0.07 1641
0.06 0.40 0.44 -0.86 9.78 0.01 0.06 -0.08 1648
0.05 0.38 0.46 -0.82 9.78 0.01 0.06 -0.08 1655
0.04 0.36 0.42 -0.77 9.81 0.01 0.06 -0.08 1662
0.04 0.34 0.43 -0.78 9.84 0.02 0.06 -0.09 1670
0.06 0.31 0.42 -0.83 9.73 0.02 0.06 -0.08 1677
0.11 0.30 0.39 -0.80 9.79 0.02 0.06 -0.08 1684
0.13 0.28 0.40 -0.81 10.40 0.02 0.06 -0.08 1691
0.13 0.22 0.40 -0.81 9.83 0.02 0.07 -0.08 1698
0.14 0.18 0.41 -0.80 9.82 0.03 0.06 -0.08 1705
0.14 0.16 0.43 -0.82 9.82 0.03 0.06 -0.08 1713
0.15 0.18 0.47 -0.83 9.80 0.03 0.06 -0.08 1720
0.16 0.16 0.46 -0.83 9.20 0.03 0.07 -0.08 1727
0.19 0.15 0.45 -0.84 9.81 0.03 0.06 -0.08 1734
0.19 0.05 0.42 -0.84 9.79 0.03 0.07 -0.08 1741
0.21 0.04 0.41 -0.83 9.77 0.04 0.07 -0.08 1748
0.20 0.04 0.43 -0.86 9.79 0.03 0.06 -0.08 1756
0.21 0.04 0.46 -0.87 9.82 0.03 0.07 -0.09 1763
0.24 0.02 0.43 -0.86 9.81 0.04 0.07 -0.09 1770
0.24 0.02 0.45 -0.88 9.81 0.03 0.07 -0.09 1777
0.26 0.03 0.48 -0.90 9.78 0.03 0.07 -0.09 1784
0.24 0.03 0.44 -0.92 9.81 0.02 0.07 -0.09 1792
0.24 0.01 0.49 -0.86 9.79 0.03 0.07 -0.09 1799
0.26 0.02 0.46 -0.91 9.80 0.02 0.07 -0.10 1806
0.29 0.01 0.48 -0.90 9.76 0.02 0.07 -0.09 1813
0.30 -0.03 0.51 -0.88 9.80 0.02 0.07 -0.09 1820
0.33 -0.01 0.44 -0.90 9.77 0.02 0.07 -0.09 1827
0.31 -0.01 0.49 -0.89 9.79 0.02 0.07 -0.09 1835
0.31 -0.01 0.46 -0.88 9.82 0.03 0.07 -0.10 1842
0.31 -0.00 0.49 -0.91 9.81 0.03 0.08 -0.09 1849
0.32 -0.00 0.47 -0.89 9.81 0.03 0.08 -0.10 1856
0.34 -0.02 0.47 -0.92 9.81 0.03 0.08 -0.09 1863
0.36 -0.02 0.52 -0.87 9.78 0.03 0.08 -0.10 1870
0.38 -0.02 0.49 -0.86 9.81 0.04 0.09 -0.10 1878
0.39 -0.02 0.51 -0.89 9.81 0.04 0.08 -0.09 1885
0.41 -0.01 0.54 -0.91 9.80 0.04 0.08 -0.09 1892
0.45 -0.02 0.56 -0.91 9.81 0.05 0.09 -0.10 1899
0.44 -0.03 0.52 -0.91 9.82 0.05 0.09 -0.10 1906
0.43 -0.03 0.53 -0.94 9.80 0.05 0.09 -0.10 1913
0.41 -0.02 0.53 -0.92 9.81 0.06 0.09 -0.10 1921
0.42 -0.02 0.53 -0.95 9.76 0.06 0.10 -0.13 1928
0.45 -0.02 0.50 -0.90 9.81 0.07 0.10 -0.11 1935
0.47 -0.02 0.53 -0.95 9.82 0.08 0.10 -0.11 1942
0.45 -0.03 0.51 -0.92 9.83 0.09 0.10 -0.11 1949
0.43 -0.03 0.58 -0.97 9.81 0.11 0.12 -0.12 1956
0.47 -0.02 0.55 -1.01 9.83 0.13 0.13 -0.12 1964
0.47 -0.02 0.62 -1.00 9.87 0.15 0.13 -0.12 1971
0.50 -0.02 0.58 -1.06 9.89 0.19 0.15 -0.13 1978
0.51 -0.03 0.59 -0.99 10.01 0.24 0.16 -0.13 1986
0.49 -0.02 0.53 -1.02 10.09 0.30 0.18 -0.14 1992
0.49 -0.03 0.02 -1.07 9.96 0.36 0.19 -0.14 1999
0.50 -0.03 0.57 -1.10 10.17 0.43 0.21 -0.14 2007
0.57 -0.02 0.59 -1.12 10.19 0.51 0.23 -0.14 2015
0.60 -0.03 0.62 -1.22 10.24 0.60 0.24 -0.14 2022
0.63 -0.02 0.69 -1.26 10.26 0.69 0.23 -0.15 2029
0.64 -0.04 0.77 -1.44 10.05 0.76 0.21 -0.15 2036
0.66 -0.04 0.70 -1.35 10.27 0.82 0.19 -0.16 2043
0.68 -0.03 0.58 -1.42 10.67 0.85 0.17 -0.16 2051
0.70 -0.02 0.65 -1.61 10.32 0.89 0.14 -0.16 2058
0.72 -0.03 0.83 -1.64 9.89 0.91 0.11 -0.16 2064
0.71 -0.03 0.61 -1.67 10.39 0.90 0.12 -0.16 2072
0.73 -0.04 0.73 -1.79 10.52 0.95 0.11 -0.17 2079
0.71 -0.03 0.66 -1.85 10.47 1.02 0.11 -0.17 2086
0.73 -0.03 0.70 -1.87 10.90 1.08 0.11 -0.17 2094
0.74 -0.03 0.80 -1.96 11.19 1.19 0.12 -0.17 2101
0.73 -0.03 0.76 -2.14 11.25 1.30 0.09 -0.17 2108
0.71 -0.03 0.81 -2.24 11.39 1.43 0.06 -0.17 2115
0.68 -0.04 0.63 -2.17 11.60 1.57 0.01 -0.16 2122
0.63 -0.03 1.12 -2.58 11.99 1.71 -0.01 -0.17 2129
0.61 -0.03 1.27 -2.57 11.51 1.88 -0.01 -0.19 2137
0.57 -0.02 0.13 -2.61 12.58 2.04 -0.05 -0.21 2144
0.50 -0.04 0.68 -2.84 12.11 2.17 -0.01 -0.21 2151
0.44 -0.03 0.66 -2.79 12.01 2.38 0.09 -0.21 2158
0.37 -0.03 0.78 -3.15 11.54 2.54 0.12 -0.19 2165
0.25 -0.02 0.63 -3.31 12.69 2.73 0.16 -0.20 2172
0.21 -0.01 0.36 -3.52 13.87 2.93 0.27 -0.18 2180
0.15 -0.01 0.44 -3.86 13.61 3.08 0.31 -0.15 2186
0.10 -0.01 0.55 -4.37 13.72 3.24 0.41 -0.10 2193
0.10 -0.01 0.36 -5.00 13.78 3.33 0.55 -0.06 2200
0.07 -0.01 0.49 -5.27 14.10 3.41 0.64 -0.01 2207
0.07 -0.01 1.08 -6.48 14.83 3.42 0.71 0.05 2214
0.03 -0.00 1.27 -6.58 15.05 3.40 0.81 0.08 2222
0.05 -0.00 1.17 -6.48 14.88 3.35 0.89 0.08 2229
0.01 -0.00 0.90 -6.20 14.50 3.31 0.90 0.08 2236
0.01 -0.00 0.43 -6.06 14.30 3.23 0.80 0.06 2243
0.00 0.00 0.64 -5.53 13.87 3.17 0.69 0.04 2250
0.00 -0.00 0.58 -5.35 13.81 3.06 0.59 0.02 2257
0.00 0.00 0.81 -5.63 13.93 2.91 0.48 -0.00 2265
0.00 0.00 1.31 -5.44 13.42 2.87 0.34 -0.03 2272
0.00 0.00 1.39 -4.23 12.94 2.91 0.26 -0.06 2279
0.00 0.00 1.37 -2.11 12.81 2.88 0.23 -0.09 2286
0.00 0.00 1.27 -0.54 12.36 2.78 0.26 -0.11 2293
0.00 0.00 1.56 1.48 11.40 2.55 0.26 -0.16 2300
0.00 0.00 1.17 6.32 8.91 2.25 0.17 -0.35 2308
0.00 0.00 1.17 7.61 7.29 1.73 0.01 -0.60 2315
0.00 0.00 -2.42 14.15 6.94 1.04 -0.34 -1.15 2322
0.00 0.00 0.42 8.70 8.90 0.26 -0.66 -1.64 2329
0.00 0.00 -0.86 7.51 12.38 -0.47 -0.64 -1.91 2336
0.00 0.00 0.01 6.49 11.69 -0.83 -0.31 -2.26 2343
0.01 -0.00 0.38 6.17 9.20 -1.04 -0.26 -2.61 2351
0.01 -0.00 -0.02 6.45 7.59 -1.22 -0.34 -2.81 2358
0.00 0.00 0.16 6.26 6.72 -1.35 -0.41 -3.02 2365
0.00 0.00 0.84 5.80 6.82 -1.51 -0.50 -3.14 2372
0.00 0.00 1.54 5.36 7.27 -1.70 -0.56 -3.22 2379
0.00 0.00 2.18 5.16 7.83 -1.86 -0.55 -3.21 2386
0.00 0.00 2.91 5.05 7.27 -2.07 -0.46 -3.12 2394
0.00 0.00 3.05 4.72 8.43 -2.27 -0.42 -2.97 2401
0.00 0.00 3.23 4.34 8.31 -2.52 -0.38 -2.81 2408
0.00 0.00 3.56 3.98 8.42 -2.75 -0.36 -2.59 2415
0.00 0.00 3.71 3.23 8.68 -2.92 -0.32 -2.33 2422
0.00 0.00 4.08 2.53 8.93 -3.07 -0.25 -2.11 2429
0.00 0.00 4.45 1.50 8.86 -3.16 -0.18 -1.85 2437
0.00 0.00 4.56 0.68 8.98 -3.22 -0.13 -1.63 2444
0.00 0.00 4.57 0.14 9.12 -3.25 -0.07 -1.41 2451
0.00 0.00 4.63 -0.36 9.22 -3.23 0.01 -1.24 2458
0.00 0.00 4.74 -0.71 9.37 -3.19 0.11 -1.14 2465
0.00 0.00 4.91 -1.08 9.91 -3.16 0.25 -1.06 2472
0.00 0.00 4.97 -1.51 10.62 -3.12 0.41 -1.00 2480
0.00 0.00 4.93 -2.11 11.21 -3.11 0.64 -1.03 2487
0.00 0.00 4.75 -2.79 11.96 -3.11 0.88 -1.00 2494
0.00 0.00 4.48 -3.34 12.59 -3.11 1.07 -0.95 2501
0.00 0.00 4.14 -3.85 13.36 -3.09 1.29 -0.83 2508
0.00 0.00 3.84 -4.88 13.84 -3.04 1.45 -0.66 2515
0.00 0.00 3.39 -4.72 14.05 -2.97 1.57 -0.47 2523
0.00 0.00 3.03 -5.16 14.12 -2.90 1.64 -0.22 2530
0.00 0.00 2.83 -5.38 14.21 -2.78 1.68 0.03 2537
0.00 0.00 2.64 -5.52 14.37 -2.65 1.71 0.31 2544
0.00 0.00 2.51 -5.42 14.35 -2.52 1.75 0.56 2551
0.00 0.00 2.34 -5.30 14.40 -2.38 1.83 0.74 2558
0.00 0.00 2.16 -5.21 14.53 -2.26 1.92 0.91 2566
0.00 0.00 1.78 -5.16 14.74 -2.14 2.01 1.03 2573
0.00 0.00 1.11 -5.19 14.79 -2.02 2.07 1.15 2580
0.00 0.00 0.32 -5.40 14.51 -1.90 2.05 1.24 2587
0.00 0.00 -0.44 -5.63 14.14 -1.75 1.93 1.30 2594
0.00 -0.00 -1.11 -6.15 14.01 -1.56 1.74 1.35 2601
0.00 0.00 -1.30 -6.59 14.22 -1.38 1.57 1.37 2609
0.00 0.00 -1.41 -7.01 14.40 -1.18 1.38 1.39 2616
0.00 0.00 -1.44 -9.32 14.07 -1.02 1.24 1.40 2623
0.00 0.00 -4.80 -13.99 26.62 -0.12 1.39 1.74 2630
0.00 0.00 -4.83 -5.90 9.08 -0.27 0.73 1.75 2637
0.00 0.00 -1.33 -6.94 8.18 -0.34 0.58 1.63 2644
0.00 0.00 -2.45 -11.92 11.54 -0.48 0.67 1.63 2652
0.00 0.00 3.74 -16.25 16.88 -0.32 0.72 1.69 2659
0.00 0.00 1.65 -10.60 5.93 -0.32 0.73 1.60 2666
0.00 0.00 -1.30 -10.44 9.76 -0.45 0.94 1.41 2673
0.00 0.00 -1.33 -13.34 11.69 -0.53 1.14 1.31 2680
0.00 0.00 -1.36 -13.82 12.48 -0.56 1.37 1.24 2688
0.00 0.00 -1.43 -12.15 10.54 -0.64 1.69 1.14 2695
0.00 0.00 -3.00 -12.35 9.39 -0.79 1.94 1.10 2702
0.00 0.00 -6.52 -15.41 9.82 -0.82 1.83 1.12 2709
0.00 0.00 -9.22 -16.25 8.30 -0.64 1.25 1.20 2716
0.00 0.00 -8.54 -15.09 5.25 -0.55 0.61 1.25 2723
0.00 0.00 -8.23 -15.76 2.68 -0.41 -0.15 1.30 2731
0.00 0.00 -7.46 -16.57 4.82 -0.22 -0.88 1.29 2738
0.00 0.00 -4.72 -20.25 4.62 0.02 -1.38 1.19 2745
0.00 0.00 -0.05 -13.63 8.61 0.61 -1.53 1.12 2752
-0.00 0.00 -5.62 -20.00 6.45 0.98 -1.68 1.15 2759
-0.00 0.01 -4.13 -20.72 3.10 1.50 -1.57 1.37 2766
0.00 0.00 -5.40 -10.70 7.26 2.02 -1.49 1.75 2774
-0.00 0.04 -4.20 1.74 10.88 2.45 -1.21 1.81 2781
-0.01 0.08 -10.49 -4.76 17.40 2.68 -1.51 1.54 2789
-0.02 0.17 -14.09 -2.86 44.85 2.54 -2.10 0.91 2796
-0.02 0.25 -2.42 -0.65 16.73 -0.03 -0.71 0.05 2802
-0.02 0.27 -2.84 -1.45 10.17 -0.24 -0.05 -0.14 2810
-0.02 0.32 -1.19 -2.34 10.27 -0.20 -0.11 -0.29 2818
-0.02 0.34 1.49 -1.64 10.04 -0.12 -0.10 -0.27 2825
-0.03 0.34 1.74 -1.34 9.99 -0.05 -0.07 -0.04 2831
-0.03 0.33 0.23 -0.87 10.17 -0.01 -0.03 0.01 2838
-0.02 0.32 -0.11 -0.75 9.89 -0.01 0.00 -0.04 2845
-0.02 0.32 0.37 -0.71 9.62 -0.01 0.02 -0.05 2852
-0.02 0.34 0.74 -0.93 9.72 -0.01 0.03 -0.03 2860
-0.02 0.29 0.41 -0.79 9.75 -0.00 0.02 -0.03 2867
-0.01 0.32 0.32 -0.72 9.72 -0.01 0.02 -0.04 2874
0.01 0.31 0.58 -0.79 9.72 -0.02 0.02 -0.04 2881
0.00 0.32 0.53 -0.80 9.77 -0.01 0.01 -0.04 2888
0.03 0.31 0.49 -0.77 9.82 -0.02 0.01 -0.05 2895
0.01 0.36 0.44 -0.83 9.78 -0.02 0.00 -0.06 2903
0.04 0.37 0.47 -0.79 9.68 -0.02 -0.00 -0.06 2910
0.04 0.37 0.41 -0.79 9.80 -0.03 -0.00 -0.07 2917
0.03 0.37 0.40 -0.72 9.82 -0.03 0.01 -0.07 2924
0.03 0.36 0.55 -0.73 9.76 -0.02 0.02 -0.07 2931
0.04 0.36 0.36 -0.74 9.88 -0.02 0.03 -0.06 2938
0.04 0.42 0.36 -0.77 10.42 -0.02 0.04 -0.06 2946
0.04 0.40 0.34 -0.73 9.81 -0.01 0.05 -0.05 2953
0.04 0.41 0.33 -0.74 9.85 -0.00 0.06 -0.05 2960
0.05 0.41 0.40 -0.80 9.84 0.00 0.07 -0.05 2967
0.07 0.41 0.44 -0.78 9.82 0.00 0.07 -0.05 2974
0.07 0.39 0.49 -0.74 9.21 0.01 0.06 -0.06 2981
0.06 0.37 0.45 -0.80 9.80 0.01 0.06 -0.06 2989
0.06 0.31 0.46 -0.79 9.76 0.01 0.06 -0.07 2996
0.06 0.32 0.53 -0.77 9.81 0.01 0.05 -0.07 3003
0.08 0.31 0.45 -0.78 9.81 0.02 0.05 -0.07 3010
0.10 0.28 0.43 -0.81 9.78 0.02 0.05 -0.10 3017
0.10 0.24 0.41 -0.78 9.82 0.02 0.05 -0.07 3024
0.10 0.23 0.41 -0.80 9.79 0.02 0.05 -0.06 3032
0.10 0.22 0.43 -0.75 9.81 0.02 0.05 -0.06 3039
0.11 0.18 0.44 -0.79 9.81 0.02 0.06 -0.07 3046
0.12 0.20 0.45 -0.77 9.80 0.02 0.05 -0.06 3053
0.14 0.18 0.42 -0.80 9.81 0.03 0.06 -0.06 3060
0.12 0.15 0.44 -0.78 9.80 0.03 0.06 -0.06 3067
0.16 0.12 0.41 -0.80 9.78 0.03 0.06 -0.07 3075
0.18 0.04 0.44 -0.81 9.78 0.03 0.06 -0.06 3082
0.16 0.09 0.44 -0.76 9.81 0.03 0.07 -0.07 3089
0.17 0.04 0.43 -0.80 9.80 0.03 0.07 -0.07 3096
0.15 0.03 0.46 -0.80 9.80 0.02 0.07 -0.07 3103
0.17 0.04 0.45 -0.84 9.80 0.02 0.07 -0.07 3110
0.18 0.03 0.46 -0.82 9.80 0.02 0.07 -0.06 3118
0.17 0.06 0.49 -0.82 9.79 0.02 0.07 -0.07 3125
0.21 0.05 0.46 -0.82 9.79 0.02 0.07 -0.07 3132
0.21 0.05 0.49 -0.83 9.80 0.02 0.07 -0.07 3139
0.22 -0.00 0.48 -0.82 9.81 0.02 0.07 -0.07 3146
0.24 -0.01 0.45 -0.83 9.81 0.02 0.07 -0.07 3153
0.24 -0.01 0.48 -0.84 9.75 0.02 0.07 -0.07 3161
0.22 -0.01 0.47 -0.85 9.81 0.02 0.07 -0.07 3168
0.23 -0.01 0.49 -0.82 9.81 0.02 0.07 -0.07 3175
0.27 -0.01 0.49 -0.84 9.79 0.02 0.08 -0.07 3182
0.28 0.00 0.48 -0.85 9.80 0.02 0.08 -0.07 3189
0.29 -0.02 0.51 -0.87 9.78 0.02 0.08 -0.07 3196
0.28 -0.02 0.47 -0.86 9.79 0.02 0.08 -0.07 3204
0.28 -0.02 0.51 -0.86 9.78 0.02 0.08 -0.07 3211
0.30 -0.01 0.48 -0.88 9.80 0.03 0.08 -0.07 3218
0.33 -0.02 0.52 -0.82 9.75 0.03 0.08 -0.07 3225
0.34 -0.02 0.52 -0.85 9.78 0.03 0.08 -0.07 3232
0.34 -0.01 0.49 -0.88 9.80 0.04 0.09 -0.07 3239
0.35 -0.02 0.51 -0.90 9.80 0.04 0.09 -0.07 3247
0.35 -0.02 0.51 -0.87 9.79 0.05 0.09 -0.07 3254
0.37 -0.01 0.55 -0.87 9.80 0.05 0.09 -0.07 3261
0.37 -0.02 0.53 -0.91 9.81 0.05 0.10 -0.08 3268
0.37 -0.01 0.46 -0.87 9.81 0.06 0.11 -0.08 3275
0.37 -0.03 0.54 -0.89 9.80 0.07 0.11 -0.08 3282
0.36 -0.03 0.54 -0.92 9.84 0.08 0.12 -0.08 3290
0.37 -0.02 0.46 -0.89 9.82 0.09 0.13 -0.08 3297
0.40 -0.02 0.53 -0.93 9.81 0.10 0.14 -0.08 3304
0.42 -0.02 0.58 -0.90 9.82 0.12 0.15 -0.08 3311
0.41 -0.02 0.57 -0.93 9.82 0.14 0.17 -0.07 3318
0.43 -0.04 0.61 -0.93 9.84 0.17 0.18 -0.08 3325
0.41 -0.03 0.59 -0.95 9.95 0.20 0.20 -0.08 3333
0.43 -0.02 0.70 -1.02 9.86 0.25 0.22 -0.09 3340
0.42 -0.02 0.63 -1.10 9.89 0.29 0.24 -0.10 3347
0.46 -0.03 0.69 -1.01 9.85 0.34 0.25 -0.11 3354
0.49 -0.02 0.76 -1.08 9.93 0.41 0.26 -0.10 3361
0.52 -0.03 0.63 -1.05 10.02 0.49 0.25 -0.11 3369
0.52 -0.03 0.83 -1.19 10.09 0.56 0.24 -0.11 3377
0.55 -0.02 0.68 -1.25 10.42 0.63 0.23 -0.12 3384
0.60 -0.03 0.67 -1.20 10.29 0.72 0.22 -0.12 3390
0.63 -0.03 0.72 -1.40 10.36 0.77 0.21 -0.12 3398
0.66 -0.03 0.80 -1.43 10.32 0.82 0.18 -0.17 3405
0.68 -0.03 0.73 -1.45 10.55 0.86 0.17 -0.14 3412
0.71 -0.03 0.79 -1.51 10.68 0.92 0.17 -0.15 3420
0.75 -0.03 0.73 -1.63 10.93 0.99 0.17 -0.15 3427
0.78 -0.03 0.71 -1.74 11.00 1.07 0.17 -0.15 3434
0.75 -0.04 0.79 -1.76 10.84 1.18 0.18 -0.15 3441
0.74 -0.04 0.89 -1.91 11.05 1.27 0.16 -0.16 3448
0.70 -0.03 0.77 -1.95 10.35 1.34 0.13 -0.16 3456
0.72 -0.03 0.57 -1.98 11.43 1.44 0.11 -0.15 3463
0.73 -0.02 0.60 -1.94 11.32 1.53 0.12 -0.15 3470
0.72 -0.04 1.02 -2.22 11.34 1.61 0.09 -0.14 3477
0.70 -0.04 0.41 -2.14 11.81 1.75 0.08 -0.14 3484
0.64 -0.03 1.03 -2.52 11.13 1.87 0.12 -0.13 3491
0.57 -0.03 1.24 -2.90 10.90 1.99 0.14 -0.15 3499
0.55 -0.04 1.03 -2.83 11.04 2.11 0.20 -0.17 3506
0.53 -0.02 0.17 -2.78 11.28 2.24 0.30 -0.16 3513
0.42 -0.03 0.36 -3.22 11.30 2.39 0.42 -0.13 3520
0.36 -0.03 0.43 -3.34 11.96 2.56 0.63 -0.10 3527
0.26 -0.03 0.47 -3.44 12.39 2.77 0.84 -0.05 3533
0.14 -0.01 0.57 -3.87 13.16 2.99 1.05 -0.03 3540
0.08 -0.01 1.06 -4.19 13.45 3.18 1.20 -0.00 3548
0.09 -0.01 1.05 -4.60 14.11 3.38 1.34 0.01 3555
0.10 -0.01 0.98 -5.32 15.38 3.50 1.42 0.04 3562
0.06 -0.01 1.18 -6.54 16.09 3.63 1.47 0.11 3569
0.05 -0.00 2.07 -7.25 16.73 3.70 1.59 0.19 3576
0.03 -0.00 2.28 -7.37 17.75 3.73 1.75 0.26 3584
0.04 -0.00 2.20 -7.53 17.45 3.72 1.87 0.27 3591
0.04 -0.00 2.02 -7.05 17.16 3.65 1.92 0.30 3598
0.00 0.00 2.48 -6.74 17.17 3.61 2.01 0.27 3605
0.01 -0.00 2.52 -6.24 16.32 3.52 2.13 0.27 3612
0.00 0.00 1.36 -5.43 15.87 3.44 2.26 0.22 3619
0.01 -0.00 0.81 -5.30 15.68 3.39 2.30 0.14 3627
0.00 -0.00 -0.20 -3.88 15.10 3.37 2.10 0.04 3634
0.01 -0.00 -0.49 -2.21 13.99 3.35 1.82 -0.04 3641
0.00 -0.00 -0.69 -0.45 14.07 3.20 1.43 -0.07 3648
0.00 0.00 -0.72 2.21 11.85 2.99 1.04 -0.07 3655
0.00 0.00 -0.90 5.54 10.68 2.66 0.80 -0.15 3662
0.00 0.00 -3.58 11.14 7.31 2.18 0.35 -0.47 3670
0.00 0.00 -5.65 11.60 5.19 1.55 -0.27 -1.32 3677
0.00 -0.00 -2.21 9.18 8.34 0.23 -1.17 -1.69 3684
0.00 0.00 -2.15 7.98 11.74 -0.60 -1.27 -1.94 3691
0.00 0.00 -1.03 6.24 11.15 -1.03 -1.03 -2.29 3698
0.00 0.00 -0.60 5.08 8.88 -1.20 -0.85 -2.74 3705
0.00 0.00 -0.82 5.13 6.62 -1.27 -0.74 -3.09 3713
0.00 0.00 -0.86 5.17 5.81 -1.34 -0.63 -3.31 3720
0.00 0.00 -0.71 5.03 5.99 -1.41 -0.66 -3.52 3727
0.00 0.00 -0.46 4.74 6.60 -1.54 -0.77 -3.65 3734
0.00 0.00 0.12 4.45 7.36 -1.74 -0.90 -3.71 3741
0.00 0.00 0.74 4.28 8.09 -1.95 -0.97 -3.67 3748
0.00 0.00 1.35 4.32 9.80 -2.26 -1.03 -3.58 3756
0.00 0.00 1.73 4.33 9.11 -2.57 -1.09 -3.43 3763
0.00 0.00 2.15 4.16 9.03 -2.88 -1.18 -3.23 3770
0.00 0.00 2.61 3.63 8.90 -3.18 -1.23 -3.02 3777
0.00 0.00 3.19 2.78 9.10 -3.38 -1.21 -2.75 3784
0.00 0.00 3.66 1.91 9.19 -3.54 -1.20 -2.52 3791
0.00 0.00 4.27 0.88 9.27 -3.62 -1.20 -2.26 3799
0.00 0.00 4.70 0.16 9.51 -3.66 -1.16 -2.00 3806
0.00 0.00 5.49 -0.36 9.70 -3.67 -1.02 -1.77 3813
0.00 0.00 6.33 -0.73 9.91 -3.68 -0.78 -1.51 3820
0.00 0.00 6.84 -1.21 10.20 -3.70 -0.54 -1.30 3827
0.00 0.00 7.14 -1.83 10.34 -3.71 -0.22 -1.06 3834
0.00 0.00 7.24 -2.51 10.63 -3.71 0.06 -0.80 3842
0.00 0.00 7.25 -3.19 10.98 -3.67 0.37 -0.57 3849
0.00 0.00 7.07 -4.00 11.39 -3.60 0.66 -0.26 3856
0.00 0.00 6.82 -4.52 12.01 -3.47 0.90 0.07 3863
0.00 0.00 6.40 -5.06 12.69 -3.32 1.14 0.31 3870
0.00 0.00 5.83 -5.24 13.25 -3.19 1.35 0.60 3877
0.00 0.00 5.10 -5.36 13.77 -3.06 1.45 0.83 3885
0.00 -0.00 4.45 -5.57 14.02 -2.97 1.50 1.05 3892
0.00 0.00 3.98 -5.75 14.30 -2.90 1.49 1.22 3899
0.00 0.00 3.61 -6.16 14.39 -2.81 1.44 1.32 3906
0.00 0.00 3.40 -6.68 14.33 -2.71 1.44 1.40 3913
0.00 0.00 3.29 -7.03 14.42 -2.58 1.45 1.43 3920
0.00 0.00 2.94 -7.42 14.39 -2.44 1.47 1.42 3928
0.00 0.00 2.47 -7.49 14.26 -2.31 1.50 1.40 3935
0.00 0.00 1.77 -7.50 14.26 -2.17 1.49 1.36 3942
0.00 0.00 1.12 -7.53 13.88 -2.04 1.39 1.29 3949
0.00 0.00 0.73 -7.52 13.21 -1.87 1.25 1.21 3956
0.00 0.00 0.52 -7.63 12.62 -1.67 1.06 1.11 3963
0.00 0.00 0.55 -7.90 12.19 -1.47 0.91 1.01 3971
0.00 0.00 0.76 -8.19 11.90 -1.21 0.78 0.93 3978
0.00 0.00 1.01 -8.49 11.85 -0.92 0.70 0.85 3985
0.00 0.00 1.11 -9.75 11.59 -0.66 0.70 0.79 3992
0.00 0.00 -1.06 -19.34 18.86 -0.02 0.88 0.90 3999
0.00 0.00 0.74 -8.14 7.77 0.37 0.70 0.97 4006
0.00 0.00 -0.11 -7.43 7.11 0.18 0.55 0.87 4014
0.00 0.00 -1.65 -11.22 10.77 -0.08 0.43 0.81 4021
0.00 0.00 1.37 -11.08 14.19 -0.07 0.50 0.89 4028
0.00 0.00 -0.98 -10.37 13.48 -0.26 0.42 0.89 4035
0.00 0.00 -0.98 -10.14 13.57 -0.49 0.61 0.85 4042
0.00 0.00 0.37 -9.90 12.72 -0.89 1.04 0.86 4049
0.00 0.00 0.87 -9.93 10.99 -1.30 1.71 0.92 4057
0.00 0.00 -2.95 -18.40 13.23 -1.53 2.08 1.04 4064
0.00 0.00 -8.17 -15.94 11.14 -1.14 1.48 1.18 4071
0.00 0.00 -7.47 -12.35 2.52 -1.04 1.06 1.33 4078
0.00 0.00 -6.27 -16.25 0.85 -0.76 0.72 1.46 4085
0.00 0.00 -6.64 -20.72 -0.87 -0.30 -0.00 1.59 4092
0.00 0.00 -5.23 -22.33 2.20 0.27 -0.51 1.63 4100
0.00 0.00 -4.65 -22.39 2.59 0.94 -0.66 1.62 4107
0.00 0.00 -5.56 -29.94 1.49 1.56 -0.71 1.61 4114
-0.00 0.02 -10.91 -39.09 -0.74 2.03 -1.30 1.52 4122
-0.01 0.06 -12.72 -15.94 10.37 2.89 -1.81 1.35 4129
-0.01 0.18 -15.06 -14.88 78.47 2.72 -4.23 0.30 4136
-0.03 0.32 -3.98 -6.30 9.11 -0.40 -0.30 0.12 4143
-0.03 0.46 0.77 -1.82 10.98 -0.37 -0.19 -0.15 4151
-0.04 0.59 0.26 -3.46 11.70 -0.17 -0.14 -0.18 4158
-0.05 0.61 0.81 -1.13 10.67 -0.05 0.01 -0.01 4164
-0.02 0.65 -0.38 -1.12 10.34 -0.02 0.08 -0.02 4171
-0.02 0.64 0.24 -0.74 9.72 -0.02 0.11 -0.03 4178
-0.02 0.59 0.81 -0.93 9.81 -0.01 0.13 -0.02 4186
-0.02 0.52 0.55 -0.96 9.78 -0.01 0.12 -0.01 4193
-0.01 0.51 0.49 -0.84 9.77 -0.00 0.11 -0.01 4200
-0.01 0.54 0.65 -0.81 9.83 -0.00 0.10 -0.01 4207
-0.01 0.54 0.60 -0.90 9.70 0.00 0.10 -0.02 4214
-0.00 0.55 0.53 -0.77 9.82 0.00 0.08 -0.02 4221
0.01 0.52 0.53 -0.80 9.74 0.00 0.08 -0.02 4229
-0.01 0.52 0.45 -0.80 9.76 -0.00 0.07 -0.02 4236
-0.02 0.49 0.62 -0.78 9.77 -0.01 0.06 -0.03 4243
-0.02 0.49 0.58 -0.81 9.69 -0.01 0.05 -0.03 4250
-0.02 0.50 0.59 -0.82 9.75 -0.02 0.04 -0.03 4257
-0.01 0.51 0.58 -0.82 9.62 -0.01 0.03 -0.04 4264
-0.02 0.52 0.56 -0.85 9.81 -0.02 0.03 -0.04 4272
-0.02 0.51 0.49 -0.83 9.79 -0.01 0.04 -0.04 4279
-0.03 0.49 0.47 -0.85 9.81 -0.01 0.05 -0.04 4286
-0.02 0.47 0.51 -0.88 9.84 -0.01 0.06 -0.04 4293
-0.01 0.49 0.40 -0.85 9.64 -0.01 0.07 -0.04 4300
0.00 0.47 0.57 -0.83 9.78 -0.01 0.07 -0.05 4307
-0.01 0.48 0.63 -0.89 9.79 -0.00 0.06 -0.05 4315
-0.01 0.46 0.62 -0.81 9.81 -0.00 0.05 -0.05 4322
-0.02 0.45 0.57 -0.87 10.38 0.00 0.05 -0.05 4329
-0.01 0.44 0.55 -0.81 9.77 0.01 0.04 -0.05 4336
-0.00 0.45 0.54 -0.83 9.80 0.01 0.05 -0.05 4343
0.01 0.41 0.51 -0.83 9.76 0.01 0.05 -0.06 4350
0.01 0.41 0.57 -0.83 9.79 0.01 0.05 -0.06 4358
0.00 0.39 0.56 -0.83 9.79 0.01 0.05 -0.06 4365
-0.00 0.37 0.55 -0.84 9.80 0.01 0.05 -0.06 4372
0.01 0.33 0.55 -0.84 9.73 0.01 0.05 -0.07 4379
0.02 0.35 0.56 -0.82 9.75 0.01 0.04 -0.07 4386
0.02 0.34 0.57 -0.85 9.78 0.01 0.05 -0.07 4393
0.02 0.34 0.58 -0.82 9.79 0.02 0.05 -0.07 4401
0.02 0.30 0.54 -0.83 9.78 0.01 0.05 -0.06 4408
0.02 0.33 0.57 -0.86 9.78 0.01 0.05 -0.07 4415
0.03 0.33 0.56 -0.87 9.77 0.01 0.04 -0.06 4422
0.05 0.25 0.54 -0.85 9.77 0.02 0.05 -0.06 4429
0.07 0.26 0.52 -0.87 9.78 0.02 0.05 -0.07 4436
0.05 0.28 0.57 -0.86 9.76 0.02 0.05 -0.06 4444
0.05 0.23 0.56 -0.84 9.79 0.03 0.05 -0.06 4451
0.05 0.21 0.62 -0.88 10.42 0.02 0.04 -0.06 4458
0.05 0.18 0.62 -0.86 9.78 0.03 0.04 -0.07 4465
0.06 0.17 0.57 -0.87 9.79 0.03 0.04 -0.07 4472
0.06 0.08 0.59 -0.88 9.79 0.03 0.03 -0.07 4480
0.09 0.04 0.56 -0.89 9.75 0.03 0.04 -0.07 4487
0.10 0.02 0.59 -0.86 9.20 0.03 0.04 -0.07 4494
0.09 0.04 0.58 -0.92 9.78 0.03 0.04 -0.07 4501
0.12 0.04 0.57 -0.92 9.77 0.03 0.04 -0.07 4508
0.15 -0.00 0.54 -0.93 9.81 0.03 0.04 -0.07 4515
0.15 0.00 0.58 -0.96 9.82 0.03 0.03 -0.07 4523
0.15 0.02 0.58 -0.91 9.78 0.03 0.04 -0.07 4530
0.13 0.01 0.55 -0.92 9.80 0.03 0.04 -0.07 4537
0.17 -0.00 0.58 -0.94 9.81 0.03 0.03 -0.07 4544
0.22 0.00 0.56 -0.92 9.80 0.03 0.04 -0.07 4551
0.25 -0.02 0.62 -0.93 9.78 0.04 0.03 -0.07 4558
0.26 -0.01 0.58 -0.93 9.81 0.04 0.03 -0.07 4566
0.25 -0.03 0.58 -0.95 9.76 0.04 0.04 -0.07 4573
0.28 -0.02 0.52 -0.93 9.77 0.05 0.04 -0.08 4580
0.30 -0.02 0.55 -0.94 9.82 0.06 0.05 -0.08 4587
0.32 -0.02 0.59 -0.93 9.82 0.07 0.05 -0.08 4594
0.35 -0.02 0.57 -0.96 9.82 0.08 0.06 -0.09 4601
0.35 -0.02 0.59 -0.98 9.82 0.09 0.06 -0.09 4609
0.35 -0.03 0.60 -1.02 9.77 0.10 0.07 -0.10 4616
0.39 -0.02 0.64 -0.99 9.83 0.12 0.07 -0.10 4623
0.40 -0.01 0.62 -1.00 9.88 0.15 0.08 -0.11 4630
0.43 -0.02 0.72 -1.03 9.87 0.18 0.10 -0.13 4637
0.46 -0.03 0.71 -1.08 9.95 0.24 0.12 -0.15 4644
0.49 -0.03 0.74 -1.11 10.03 0.31 0.16 -0.16 4653
0.53 -0.03 0.71 -1.10 10.27 0.44 0.19 -0.17 4660
0.54 -0.03 0.74 -1.22 10.26 0.60 0.24 -0.19 4667
0.64 -0.02 0.72 -1.44 10.20 0.77 0.25 -0.20 4673
0.69 -0.03 0.72 -1.37 10.44 0.90 0.22 -0.21 4681
0.72 -0.04 0.70 -1.35 10.66 0.98 0.17 -0.21 4688
0.71 -0.04 0.67 -1.28 10.79 1.06 0.14 -0.21 4696
0.74 -0.04 0.81 -1.56 10.76 1.11 0.12 -0.22 4703
0.75 -0.03 0.58 -1.57 10.87 1.15 0.11 -0.22 4710
0.78 -0.02 0.53 -1.60 10.79 1.20 0.11 -0.21 4717
0.81 -0.03 0.62 -1.83 10.76 1.26 0.13 -0.21 4724
0.81 -0.03 0.70 -1.95 10.79 1.34 0.16 -0.21 4731
0.79 -0.04 0.75 -1.97 11.08 1.44 0.16 -0.20 4738
0.79 -0.04 0.69 -2.03 10.98 1.56 0.18 -0.21 4746
0.77 -0.03 0.67 -2.23 11.02 1.68 0.21 -0.20 4753
0.72 -0.03 0.81 -2.37 10.58 1.81 0.25 -0.19 4760
0.69 -0.03 0.85 -2.50 11.12 1.97 0.35 -0.20 4767
0.60 -0.03 1.01 -2.81 11.82 2.18 0.46 -0.21 4774
0.53 -0.04 0.88 -2.60 12.07 2.39 0.53 -0.21 4782
0.43 -0.02 0.56 -3.18 12.43 2.55 0.63 -0.18 4789
0.31 -0.02 -0.46 -3.42 14.53 2.79 0.75 -0.14 4796
0.19 -0.01 0.56 -3.41 15.02 3.02 0.83 -0.05 4802
0.13 -0.01 0.40 -3.75 15.81 3.36 0.94 0.02 4809
0.06 -0.01 0.80 -3.84 16.21 3.74 1.04 0.06 4816
0.08 -0.01 1.14 -4.65 17.83 4.11 1.06 0.07 4824
0.06 -0.01 1.12 -5.25 16.57 4.24 1.00 0.10 4831
0.05 -0.00 1.58 -6.61 18.27 4.26 0.86 0.15 4838
0.06 -0.01 2.30 -7.28 18.96 4.26 0.84 0.16 4845
0.05 -0.01 2.80 -7.16 18.45 4.25 0.84 0.12 4852
0.05 -0.00 1.98 -6.84 17.46 4.21 0.77 0.05 4859
0.01 -0.00 1.17 -6.36 17.14 4.16 0.61 -0.00 4867
0.00 0.00 0.11 -4.95 16.38 4.12 0.38 -0.05 4874
0.01 0.00 -0.09 -4.87 16.95 4.00 0.07 -0.11 4881
0.00 -0.00 1.23 -4.85 16.66 3.96 -0.30 -0.15 4888
0.02 -0.00 2.34 -3.52 16.00 4.04 -0.55 -0.18 4895
0.01 -0.00 3.16 -1.40 13.81 4.02 -0.54 -0.16 4902
0.00 0.00 3.48 0.11 12.32 3.92 -0.21 -0.10 4910
0.00 0.00 4.99 2.55 9.31 3.64 0.19 -0.11 4917
0.00 0.00 5.32 4.67 7.24 3.29 0.56 -0.19 4924
0.00 0.00 3.59 5.10 5.81 2.81 0.69 -0.44 4931
0.00 0.00 -1.67 17.69 4.05 2.23 0.53 -0.83 4938
0.00 0.00 0.35 14.29 6.67 1.46 0.15 -1.59 4945
0.00 0.00 0.04 9.31 12.83 0.06 -0.38 -1.81 4953
0.00 0.00 -0.87 7.57 13.46 -0.77 -0.48 -1.87 4960
0.00 0.00 -0.55 6.69 11.81 -1.14 -0.33 -1.98 4967
0.00 0.00 -0.00 7.14 9.07 -1.50 -0.37 -2.09 4974
0.00 0.00 -0.04 7.47 6.81 -1.77 -0.59 -2.21 4981
0.00 0.00 -0.00 6.14 6.26 -2.00 -0.76 -2.33 4988
0.00 0.00 0.19 5.62 6.47 -2.18 -0.97 -2.37 4996
0.00 0.00 0.47 4.82 6.69 -2.31 -1.19 -2.39 5003
0.00 -0.00 0.99 4.40 7.03 -2.44 -1.34 -2.38 5010
0.00 0.00 1.53 4.05 7.52 -2.55 -1.48 -2.34 5017
0.00 0.00 1.95 3.95 7.78 -2.70 -1.57 -2.24 5024
0.00 0.00 2.49 3.83 8.38 -2.88 -1.67 -2.18 5031
0.00 0.00 3.23 3.54 8.99 -3.06 -1.65 -2.08 5039
0.00 0.00 4.05 3.13 9.41 -3.29 -1.51 -1.98 5046
0.00 -0.00 4.82 2.31 9.79 -3.52 -1.23 -1.86 5053
0.00 0.00 5.39 1.57 9.71 -3.70 -0.94 -1.73 5060
0.00 0.00 5.66 1.02 9.53 -3.88 -0.59 -1.63 5067
0.00 0.00 5.54 0.42 9.31 -3.97 -0.26 -1.51 5074
0.00 0.00 5.41 -0.15 9.72 -4.02 -0.03 -1.40 5082
0.00 0.00 5.22 -0.93 10.20 -4.01 0.21 -1.27 5089
0.00 -0.00 4.90 -2.00 11.09 -3.95 0.43 -1.12 5096
0.00 0.00 4.88 -2.99 11.72 -3.85 0.59 -0.98 5103
0.00 0.00 4.91 -4.09 12.38 -3.72 0.75 -0.80 5110
0.00 0.00 4.98 -4.63 13.06 -3.63 0.87 -0.59 5117
0.00 0.00 5.13 -4.97 13.51 -3.52 1.04 -0.40 5125
0.00 0.00 5.14 -5.04 13.80 -3.45 1.24 -0.14 5132
0.00 0.00 4.93 -5.18 14.07 -3.38 1.38 0.08 5139
0.00 0.00 4.67 -5.36 14.49 -3.32 1.51 0.35 5146
0.00 0.00 4.41 -5.56 14.63 -3.24 1.59 0.62 5153
0.00 0.00 4.05 -5.70 14.69 -3.14 1.64 0.85 5160
0.00 0.00 3.86 -5.85 14.89 -3.03 1.66 1.08 5168
0.00 0.00 3.74 -5.96 14.86 -2.88 1.67 1.23 5175
0.00 0.00 3.58 -6.17 14.77 -2.73 1.69 1.37 5182
0.00 0.00 3.55 -6.42 14.86 -2.59 1.73 1.45 5189
0.00 0.00 3.42 -6.64 14.83 -2.42 1.82 1.49 5196
0.00 0.00 2.97 -6.78 14.43 -2.27 1.94 1.53 5203
0.00 0.00 2.43 -7.05 13.94 -2.07 2.04 1.56 5211
0.00 0.00 1.65 -7.39 13.54 -1.84 2.09 1.58 5218
0.00 0.00 1.03 -7.89 13.63 -1.61 2.05 1.61 5225
0.00 0.00 0.17 -8.47 14.14 -1.34 1.87 1.62 5232
0.00 0.00 -0.69 -9.14 14.74 -1.09 1.57 1.62 5239
0.00 0.00 -1.36 -9.63 15.31 -0.95 1.23 1.62 5246
-0.00 0.00 -1.76 -10.00 15.43 -0.85 0.79 1.59 5254
0.00 0.00 -1.72 -10.30 15.68 -0.84 0.37 1.53 5261
0.00 0.00 -0.85 -10.57 15.79 -0.94 0.21 1.46 5268
0.00 0.00 0.72 -10.78 14.90 -1.13 0.27 1.36 5275
0.00 0.00 1.69 -10.92 13.54 -1.32 0.56 1.24 5282
0.00 0.00 2.00 -11.15 11.86 -1.51 1.16 1.13 5289
0.00 0.00 0.94 -12.19 10.00 -1.62 1.90 1.06 5297
0.00 0.00 -0.54 -13.41 10.73 -1.66 2.43 1.02 5304
0.00 0.00 -4.45 -17.54 11.68 -1.55 2.67 0.98 5311
0.00 0.00 -10.21 -17.52 9.65 -0.93 2.09 0.97 5318
0.00 0.00 -6.16 -15.43 0.92 -1.15 1.85 0.81 5325
0.00 0.00 -9.17 -18.67 6.27 -0.70 1.09 0.74 5332
0.00 0.00 -10.03 -23.05 4.62 -0.65 0.45 0.63 5340
0.00 0.00 -7.63 -20.96 4.87 -0.15 -0.14 0.44 5347
0.00 0.00 -8.56 -23.62 3.07 0.15 -0.61 0.23 5354
0.00 0.00 -6.95 -22.96 2.82 0.62 -0.93 0.07 5361
0.00 0.00 -7.79 -24.43 3.64 1.13 -1.38 -0.03 5368
0.00 0.00 -8.68 -25.19 3.51 1.58 -1.65 0.09 5376
-0.00 0.01 -4.81 -16.36 5.83 2.06 -1.94 0.37 5383
-0.00 0.04 -1.13 5.71 8.21 2.41 -1.54 0.47 5390
-0.01 0.14 -4.98 -3.78 18.86 2.75 -1.42 0.49 5397
-0.02 0.33 -4.12 1.34 16.82 2.76 -1.45 0.26 5405
-0.03 0.38 -4.18 -1.87 17.80 2.80 -1.38 -0.25 5412
-0.03 0.41 -0.46 -6.58 45.43 2.15 -2.43 -0.49 5420
-0.03 0.49 0.56 -2.96 11.86 0.27 -1.08 -0.17 5427
-0.03 0.54 0.08 -2.84 11.45 -0.05 -0.29 -0.08 5433
-0.04 0.55 0.45 -1.83 10.18 -0.07 -0.06 0.00 5440
-0.04 0.55 0.40 -0.65 10.04 -0.00 -0.07 0.02 5447
-0.04 0.61 0.18 -0.64 10.08 0.02 -0.01 -0.00 5454
-0.04 0.59 0.22 -0.84 9.66 0.00 0.03 -0.01 5462
-0.03 0.55 0.35 -0.99 9.85 -0.00 0.05 0.00 5469
-0.04 0.54 0.54 -0.94 9.89 0.00 0.05 -0.00 5476
-0.04 0.55 0.56 -0.82 9.79 0.01 0.04 -0.01 5483
-0.04 0.52 0.55 -0.88 9.76 0.00 0.03 -0.02 5490
-0.01 0.52 0.52 -0.80 9.72 -0.00 0.01 -0.03 5497
0.03 0.52 0.54 -0.80 9.66 -0.01 -0.00 -0.04 5505
0.04 0.50 0.48 -0.79 9.74 -0.02 -0.02 -0.04 5512
0.04 0.53 0.43 -0.78 9.77 -0.02 -0.01 -0.05 5519
0.04 0.51 0.41 -0.80 9.78 -0.03 -0.01 -0.05 5526
0.03 0.56 0.35 -0.81 9.66 -0.03 0.01 -0.05 5533
0.03 0.58 0.19 -0.84 9.88 -0.02 0.03 -0.06 5540
0.03 0.59 0.35 -0.81 9.84 -0.01 0.06 -0.05 5548
0.05 0.60 0.37 -0.80 9.82 -0.01 0.09 -0.04 5555
0.04 0.59 0.38 -0.83 9.81 -0.00 0.10 -0.04 5562
0.05 0.53 0.47 -0.83 9.78 0.00 0.10 -0.04 5569
0.04 0.52 0.48 -0.82 9.81 0.01 0.11 -0.04 5576
0.06 0.46 0.53 -0.82 9.21 0.02 0.10 -0.04 5583
0.08 0.47 0.49 -0.79 9.81 0.02 0.10 -0.05 5591
0.08 0.42 0.56 -0.83 9.75 0.03 0.10 -0.06 5598
0.08 0.41 0.52 -0.82 9.77 0.03 0.10 -0.06 5605
0.08 0.37 0.51 -0.84 9.78 0.03 0.10 -0.06 5612
0.08 0.32 0.46 -0.82 9.80 0.03 0.09 -0.06 5619
0.08 0.30 0.47 -0.83 9.67 0.03 0.09 -0.07 5626
0.10 0.24 0.48 -0.80 9.82 0.04 0.09 -0.06 5634
0.10 0.19 0.40 -0.79 9.84 0.04 0.10 -0.06 5641
0.10 0.18 0.52 -0.91 9.81 0.04 0.10 -0.06 5648
0.13 0.10 0.52 -0.86 9.77 0.04 0.11 -0.06 5655
0.13 0.12 0.50 -0.87 9.78 0.04 0.11 -0.06 5662
0.13 0.05 0.49 -0.86 9.79 0.04 0.11 -0.06 5669
0.13 0.04 0.54 -0.87 9.79 0.03 0.11 -0.06 5677
0.12 0.03 0.55 -0.88 9.75 0.00 0.11 -0.06 5684
0.13 0.04 0.46 -0.82 9.86 0.03 0.12 -0.06 5691
0.13 0.05 0.56 -0.84 9.81 0.02 0.12 -0.06 5698
0.13 0.04 0.57 -0.88 9.81 0.03 0.12 -0.06 5705
0.11 0.02 0.58 -0.87 9.75 0.03 0.11 -0.06 5712
0.13 0.00 0.54 -0.80 9.73 0.02 0.11 -0.06 5720
0.12 0.01 0.66 -0.88 9.73 0.02 0.11 -0.06 5727
0.12 -0.01 0.58 -0.93 9.78 0.02 0.10 -0.06 5734
0.12 -0.00 0.57 -0.88 9.79 0.02 0.10 -0.06 5741
0.14 0.01 0.60 -0.92 9.76 0.02 0.09 -0.06 5748
0.17 0.01 0.59 -0.89 9.78 0.01 0.10 -0.07 5755
0.19 0.01 0.59 -0.91 9.81 0.01 0.08 -0.07 5763
0.17 0.00 0.62 -0.91 9.78 0.01 0.08 -0.07 5770
0.16 -0.02 0.63 -0.93 9.78 0.01 0.07 -0.06 5777
0.16 -0.01 0.63 -0.88 9.80 0.01 0.06 -0.07 5784
0.15 -0.00 0.60 -0.96 9.74 0.01 0.05 -0.07 5791
0.17 -0.01 0.64 -0.90 9.78 0.01 0.04 -0.07 5798
0.17 -0.00 0.62 -0.88 9.79 0.02 0.04 -0.07 5806
0.17 -0.01 0.62 -0.91 9.81 0.02 0.02 -0.07 5813
0.18 -0.02 0.60 -0.89 9.81 0.02 0.00 -0.07 5820
0.17 -0.01 0.60 -0.95 9.77 0.02 -0.02 -0.07 5827
0.18 -0.00 0.62 -0.94 9.80 0.02 -0.04 -0.08 5834
0.20 -0.01 0.60 -0.96 9.79 0.02 -0.05 -0.08 5841
0.20 -0.01 0.61 -0.91 9.76 0.01 -0.06 -0.08 5849
0.20 -0.02 0.63 -0.96 9.80 0.01 -0.07 -0.09 5856
0.21 -0.02 0.63 -0.93 9.81 0.01 -0.08 -0.09 5863
0.21 -0.02 0.55 -0.94 9.79 0.01 -0.09 -0.10 5870
0.22 -0.00 0.59 -0.97 9.73 0.01 -0.09 -0.11 5877
0.28 -0.02 0.58 -0.98 9.80 0.01 -0.08 -0.11 5884
0.31 -0.02 0.51 -1.01 9.83 0.01 -0.07 -0.11 5892
0.30 -0.02 0.49 -0.94 9.82 0.01 -0.05 -0.11 5899
0.33 -0.02 0.47 -0.96 9.83 0.02 -0.04 -0.11 5906
0.35 -0.02 0.46 -0.97 9.84 0.03 -0.02 -0.11 5913
0.35 -0.01 0.46 -1.00 9.80 0.05 -0.00 -0.11 5920
0.41 -0.02 0.50 -0.98 9.92 0.06 0.00 -0.11 5927
0.43 -0.02 0.51 -1.01 9.85 0.08 0.01 -0.12 5935
0.44 -0.02 0.57 -1.00 9.89 0.10 0.02 -0.13 5942
0.47 -0.02 0.60 -1.12 9.82 0.14 0.03 -0.17 5949
0.54 -0.03 0.59 -1.10 9.86 0.17 0.04 -0.14 5956
0.55 -0.02 0.63 -1.14 9.97 0.22 0.07 -0.16 5963
0.65 -0.03 0.71 -1.12 10.03 0.29 0.10 -0.18 5971
0.68 -0.03 0.68 -1.08 10.23 0.41 0.13 -0.20 5979
0.75 -0.04 0.65 -1.15 10.50 0.55 0.16 -0.20 5986
0.80 -0.04 0.52 -1.22 10.55 0.80 0.20 -0.20 5992
0.84 -0.04 0.63 -1.41 10.81 0.95 0.22 -0.21 6000
0.85 -0.03 0.84 -1.54 10.84 1.11 0.16 -0.22 6007
0.89 -0.03 0.22 -1.22 11.53 1.22 0.14 -0.23 6014
0.91 -0.04 0.62 -1.42 10.79 1.25 0.11 -0.23 6022
0.93 -0.04 0.50 -1.44 12.21 1.33 0.11 -0.23 6029
0.94 -0.04 0.65 -1.69 11.61 1.45 0.11 -0.24 6036
0.94 -0.03 0.57 -1.71 11.76 1.56 0.12 -0.24 6043
0.93 -0.02 0.78 -1.97 11.19 1.69 0.18 -0.24 6050
0.90 -0.04 0.71 -2.05 11.51 1.85 0.22 -0.23 6057
0.85 -0.04 0.57 -2.14 12.69 2.02 0.24 -0.23 6065
0.76 -0.03 0.14 -2.26 12.36 2.20 0.33 -0.24 6072
0.65 -0.03 -0.06 -2.22 12.25 2.34 0.40 -0.22 6079
0.51 -0.01 0.17 -2.66 11.50 2.51 0.43 -0.18 6086
0.46 -0.03 0.04 -2.64 12.90 2.67 0.57 -0.13 6093
0.34 -0.02 0.20 -3.48 12.03 2.85 0.53 -0.08 6099
0.26 -0.03 0.35 -3.29 14.09 3.02 0.63 -0.04 6107
0.16 -0.02 0.44 -3.78 15.79 3.31 0.68 -0.01 6114
0.10 -0.01 0.67 -4.03 17.34 3.73 0.84 0.01 6121
0.07 -0.00 0.60 -4.44 13.80 3.88 1.00 0.07 6128
0.07 -0.01 0.80 -5.65 15.60 3.90 1.07 0.13 6135
0.03 -0.00 1.33 -6.72 17.25 3.94 1.25 0.20 6142
0.05 -0.00 2.05 -6.90 17.45 3.91 1.45 0.25 6150
0.01 -0.00 2.34 -6.67 16.94 3.81 1.65 0.23 6157
0.02 -0.00 2.05 -6.34 16.28 3.73 1.73 0.19 6164
0.00 0.00 1.68 -5.91 16.02 3.63 1.71 0.16 6171
0.00 -0.00 1.22 -5.69 15.99 3.49 1.68 0.11 6178
0.00 0.00 0.62 -5.23 15.94 3.40 1.60 0.05 6185
0.00 0.00 0.48 -4.56 14.99 3.42 1.43 -0.01 6193
0.00 0.00 0.16 -2.83 14.49 3.46 1.19 -0.07 6200
0.00 0.00 0.16 -0.88 14.54 3.42 0.97 -0.09 6207
0.00 -0.00 -0.49 2.37 13.30 3.24 0.72 -0.09 6214
0.00 0.00 -0.14 4.03 11.44 2.92 0.54 -0.05 6221
0.00 0.00 -1.56 10.83 8.95 2.43 0.23 -0.10 6228
0.00 0.00 -3.25 14.85 4.43 1.67 -0.25 -0.44 6236
0.00 0.00 -3.23 12.51 4.85 0.83 -1.08 -0.93 6243
0.00 0.00 -2.03 9.81 10.55 -0.34 -1.73 -1.10 6250
0.00 -0.00 -1.81 7.86 10.69 -0.99 -1.71 -1.28 6257
0.00 0.00 -1.12 6.77 9.61 -1.25 -1.47 -1.50 6264
0.00 0.00 -0.75 5.68 7.47 -1.33 -1.33 -1.80 6272
0.00 0.00 -0.86 5.49 5.60 -1.34 -1.30 -2.09 6279
0.00 0.00 -0.88 5.56 5.14 -1.39 -1.32 -2.29 6286
0.00 0.00 -0.59 5.28 5.50 -1.47 -1.41 -2.47 6293
0.00 -0.00 -0.25 4.87 6.48 -1.60 -1.53 -2.56 6300
0.00 0.00 0.49 4.52 7.39 -1.77 -1.63 -2.58 6307
0.00 0.00 1.35 4.46 8.48 -1.94 -1.66 -2.54 6315
0.00 0.00 2.28 4.31 8.94 -2.19 -1.63 -2.47 6322
0.00 -0.00 2.97 4.11 9.00 -2.43 -1.58 -2.36 6329
0.00 0.00 3.55 3.72 9.64 -2.72 -1.51 -2.25 6336
0.00 0.00 4.13 2.95 9.88 -2.98 -1.36 -2.12 6343
0.00 0.00 4.60 1.97 10.41 -3.17 -1.21 -1.99 6350
0.00 0.00 5.21 1.08 10.58 -3.35 -1.10 -1.89 6358
0.00 0.00 5.51 0.23 10.72 -3.46 -1.05 -1.76 6365
0.00 0.00 5.73 -1.17 10.78 -3.54 -0.99 -1.59 6372
0.00 0.00 6.30 -1.38 11.16 -3.57 -0.86 -1.44 6379
0.00 0.00 6.93 -2.26 11.56 -3.56 -0.73 -1.24 6386
0.00 0.00 7.45 -2.96 11.69 -3.54 -0.55 -1.05 6393
0.00 0.00 7.86 -3.71 12.09 -3.50 -0.32 -0.83 6401
0.00 0.00 8.11 -4.83 12.10 -3.44 -0.09 -0.57 6408
0.00 0.00 8.28 -4.70 12.21 -3.36 0.23 -0.35 6415
0.00 0.00 8.10 -5.17 12.37 -3.26 0.59 -0.07 6422
0.00 0.00 7.65 -5.41 12.78 -3.14 0.91 0.18 6429
0.00 0.00 6.89 -5.67 13.19 -3.00 1.23 0.49 6436
0.00 0.00 6.14 -5.83 13.29 -2.88 1.41 0.79 6444
0.00 0.00 5.18 -5.93 13.58 -2.74 1.54 1.03 6451
0.00 0.00 4.30 -5.95 13.68 -2.62 1.58 1.27 6458
0.00 -0.00 3.61 -6.14 13.56 -2.48 1.57 1.44 6465
0.00 0.00 2.84 -6.15 13.42 -2.34 1.54 1.58 6472
0.00 0.00 2.20 -6.05 13.40 -2.21 1.51 1.67 6479
0.00 0.00 1.54 -6.03 13.28 -2.06 1.45 1.71 6487
0.00 0.00 0.94 -5.73 12.94 -1.93 1.39 1.69 6494
0.00 0.00 0.42 -5.46 12.47 -1.78 1.32 1.66 6501
0.01 -0.00 -0.19 -5.30 12.13 -1.62 1.20 1.57 6508
0.00 0.00 -0.66 -5.39 11.81 -1.47 1.04 1.46 6515
0.00 0.00 -0.94 -5.60 11.66 -1.27 0.93 1.35 6522
0.00 0.00 -1.18 -5.77 12.09 -1.06 0.77 1.21 6530
0.00 0.00 -1.43 -5.88 13.14 -0.93 0.63 1.06 6537
0.00 -0.00 -1.56 -6.11 14.05 -0.85 0.52 0.93 6544
0.01 -0.00 -1.31 -5.94 14.94 -0.88 0.48 0.78 6551
0.00 0.00 -0.87 -6.09 15.33 -1.02 0.51 0.64 6558
0.00 0.00 -0.47 -6.19 15.14 -1.25 0.63 0.47 6565
0.00 0.00 -0.29 -6.47 14.21 -1.48 0.80 0.30 6573
0.00 0.00 -0.34 -6.86 13.42 -1.71 1.02 0.16 6580
0.00 0.00 -0.69 -7.53 12.53 -1.82 1.20 0.03 6587
0.00 0.00 -1.27 -8.30 11.39 -1.85 1.34 -0.06 6594
0.00 0.00 -2.14 -9.30 10.35 -1.78 1.49 -0.16 6601
0.00 0.00 -2.66 -10.97 9.53 -1.62 1.59 -0.21 6608
0.00 0.00 -3.32 -10.82 9.07 -1.33 1.66 -0.22 6616
0.00 0.00 -4.86 -12.67 7.67 -1.19 1.52 -0.27 6623
0.01 -0.00 -5.31 -14.26 11.02 -0.90 1.39 -0.27 6631
0.00 -0.00 -4.57 -15.54 5.93 -0.85 1.20 -0.28 6637
0.00 0.00 -4.85 -14.22 7.19 -0.45 0.92 -0.22 6644
0.00 0.00 -4.29 -13.12 4.12 -0.48 0.71 -0.21 6651
0.00 0.00 -8.53 -18.85 14.56 -0.14 0.16 -0.13 6659
0.00 0.00 -3.45 -16.31 2.45 -0.05 0.16 -0.08 6666
0.00 0.00 -4.79 -18.73 6.23 0.27 -0.09 -0.04 6673
0.00 0.00 -3.97 -20.01 3.51 0.61 -0.22 0.06 6680
0.00 0.00 -4.55 -21.49 3.33 1.04 -0.39 0.21 6687
0.00 0.00 -4.87 -25.27 4.24 1.50 -0.74 0.47 6694
-0.00 0.01 -5.48 -23.62 2.12 1.84 -1.08 0.85 6702
-0.01 0.07 -0.92 3.32 8.94 2.49 -1.43 0.94 6709
-0.01 0.16 -6.77 -5.36 14.07 3.03 -1.32 0.82 6717
-0.03 0.33 -6.10 -0.34 21.54 3.19 -1.49 0.38 6724
-0.02 0.35 -3.77 -4.19 40.54 1.74 -2.87 -0.14 6731
-0.03 0.37 -1.11 -2.58 11.53 0.04 -0.51 -0.06 6738
-0.03 0.39 -1.19 -2.82 10.24 -0.17 -0.05 -0.15 6746
-0.02 0.38 0.23 -1.77 10.05 -0.11 -0.13 -0.17 6753
-0.02 0.41 1.53 -1.22 9.98 -0.05 -0.10 -0.09 6759
-0.03 0.44 0.57 -0.55 10.03 0.01 -0.06 -0.01 6766
-0.03 0.42 -0.02 -0.83 10.10 0.01 -0.02 -0.03 6773
-0.01 0.41 0.20 -0.84 9.77 -0.00 -0.01 -0.05 6780
-0.00 0.42 0.48 -0.83 9.71 0.00 0.01 -0.04 6788
0.01 0.43 0.48 -0.80 9.75 0.00 0.02 -0.04 6795
0.01 0.41 0.35 -0.76 9.62 0.00 0.01 -0.04 6802
0.01 0.41 0.46 -0.76 9.67 -0.00 0.01 -0.05 6809
0.02 0.38 0.50 -0.76 9.68 -0.01 0.00 -0.05 6816
0.02 0.39 0.46 -0.80 9.70 -0.02 -0.01 -0.06 6823
-0.01 0.40 0.38 -0.79 9.78 -0.02 -0.02 -0.07 6831
0.01 0.40 0.39 -0.78 9.79 -0.03 -0.02 -0.07 6838
0.01 0.40 0.36 -0.81 9.84 -0.03 -0.02 -0.08 6845
0.01 0.41 0.34 -0.79 9.76 -0.04 -0.00 -0.08 6852
0.02 0.41 0.32 -0.78 9.82 -0.03 0.01 -0.08 6859
0.04 0.44 2.38 -0.62 7.53 -0.03 0.02 -0.08 6866
0.05 0.47 0.30 -0.77 9.80 -0.03 0.02 -0.07 6874
0.05 0.46 0.26 -0.78 9.88 -0.02 0.03 -0.06 6881
0.01 0.46 0.31 -0.74 9.81 -0.01 0.04 -0.07 6888
0.02 0.46 0.34 -0.77 9.81 -0.01 0.05 -0.07 6895
0.03 0.44 0.43 -0.82 9.84 -0.00 0.04 -0.06 6902
0.03 0.42 0.40 -0.80 9.82 0.00 0.04 -0.10 6909
0.03 0.44 0.36 -0.78 9.87 0.00 0.04 -0.07 6917
0.04 0.40 0.41 -0.76 9.79 0.00 0.04 -0.08 6924
0.03 0.37 0.48 -0.83 9.83 0.01 0.04 -0.08 6931
0.02 0.38 0.43 -0.79 9.85 0.01 0.04 -0.08 6938
0.01 0.34 0.34 -0.76 9.83 0.01 0.03 -0.09 6945
0.03 0.35 0.35 -0.76 9.79 0.01 0.04 -0.08 6952
0.04 0.32 0.33 -0.78 9.82 0.02 0.04 -0.09 6960
0.07 0.26 0.35 -0.77 9.21 0.02 0.05 -0.09 6967
0.07 0.21 0.36 -0.74 9.81 0.02 0.05 -0.09 6974
0.08 0.18 0.36 -0.69 9.80 0.03 0.05 -0.09 6981
0.08 0.20 0.36 -0.81 9.81 0.03 0.05 -0.09 6988
0.12 0.11 0.34 -0.78 9.80 0.03 0.05 -0.08 6995
0.15 0.09 0.36 -0.80 9.81 0.03 0.06 -0.08 7003
0.17 0.08 0.40 -0.80 9.75 0.03 0.06 -0.08 7010
0.18 0.04 0.35 -0.82 9.81 0.04 0.06 -0.08 7017
0.21 0.00 0.38 -0.84 9.79 0.04 0.06 -0.08 7024
0.21 0.03 0.39 -0.83 9.80 0.04 0.07 -0.08 7031
0.23 0.04 0.40 -0.89 9.81 0.03 0.07 -0.08 7038
0.25 -0.01 0.43 -0.90 9.76 0.03 0.07 -0.08 7046
0.29 -0.00 0.41 -0.85 9.77 0.03 0.07 -0.08 7053
0.29 -0.01 0.40 -0.86 9.82 0.03 0.07 -0.08 7060
0.29 -0.00 0.38 -0.85 9.81 0.03 0.07 -0.08 7067
0.31 -0.01 0.40 -0.90 9.80 0.03 0.07 -0.08 7074
0.30 0.00 0.43 -0.86 9.80 0.03 0.07 -0.08 7081
0.33 -0.00 0.40 -0.91 9.82 0.04 0.07 -0.08 7089
0.32 -0.02 0.40 -0.86 9.81 0.04 0.07 -0.09 7096
0.34 -0.02 0.41 -0.88 9.82 0.05 0.07 -0.08 7103
0.37 -0.02 0.41 -0.89 9.81 0.05 0.07 -0.08 7110
0.39 -0.01 0.38 -0.87 9.83 0.06 0.07 -0.08 7117
0.41 0.00 0.42 -0.89 9.80 0.07 0.08 -0.08 7124
0.46 -0.01 0.44 -0.92 9.82 0.08 0.08 -0.09 7132
0.45 -0.01 0.42 -0.85 9.82 0.10 0.09 -0.09 7139
0.47 -0.03 0.44 -0.89 9.83 0.11 0.09 -0.09 7146
0.49 -0.02 0.48 -0.96 9.82 0.12 0.10 -0.10 7153
0.52 -0.03 0.48 -0.88 9.83 0.13 0.11 -0.10 7160
0.54 -0.02 0.52 -0.97 9.87 0.16 0.12 -0.10 7168
0.55 -0.02 0.49 -0.98 9.91 0.20 0.12 -0.12 7175
0.58 -0.03 0.50 -0.95 9.94 0.24 0.12 -0.12 7182
0.59 -0.04 0.64 -1.05 9.87 0.29 0.12 -0.13 7189
0.58 -0.03 0.55 -1.07 9.96 0.34 0.11 -0.14 7196
0.65 -0.03 0.50 -1.09 10.03 0.40 0.11 -0.14 7203
0.67 -0.02 0.57 -1.08 10.14 0.47 0.12 -0.15 7212
0.71 -0.03 0.58 -1.13 10.11 0.53 0.12 -0.16 7219
0.73 -0.03 0.52 -1.23 10.18 0.59 0.11 -0.16 7226
0.76 -0.04 0.56 -1.10 10.18 0.65 0.10 -0.17 7233
0.78 -0.03 0.56 -1.34 10.22 0.70 0.07 -0.18 7239
0.80 -0.03 0.55 -1.45 10.28 0.74 0.06 -0.19 7246
0.83 -0.03 0.45 -1.37 10.23 0.76 0.05 -0.18 7255
0.88 -0.04 0.50 -1.53 10.25 0.80 0.04 -0.18 7261
0.91 -0.04 0.45 -1.58 10.44 0.85 0.03 -0.18 7269
0.93 -0.04 0.54 -1.65 10.32 0.88 0.01 -0.17 7276
0.97 -0.03 0.47 -1.71 10.37 0.93 0.01 -0.17 7283
0.99 -0.03 0.45 -1.72 10.59 0.99 0.01 -0.17 7290
1.00 -0.05 0.57 -1.78 10.77 1.05 0.03 -0.17 7297
1.02 -0.04 0.28 -1.83 10.54 1.12 0.05 -0.16 7305
0.98 -0.04 0.29 -1.93 10.36 1.16 0.06 -0.15 7312
1.00 -0.04 0.29 -2.01 10.61 1.23 0.07 -0.15 7319
0.99 -0.03 0.14 -1.94 10.78 1.30 0.10 -0.14 7326
0.98 -0.03 0.47 -2.20 10.62 1.40 0.10 -0.14 7332
0.98 -0.03 0.47 -2.58 10.79 1.51 0.13 -0.14 7341
0.96 -0.03 0.46 -2.63 10.74 1.63 0.16 -0.13 7348
0.87 -0.04 0.15 -2.57 12.13 1.77 0.18 -0.12 7355
0.78 -0.03 0.97 -2.85 11.54 1.96 0.32 -0.12 7362
0.70 -0.03 0.50 -2.74 11.75 2.19 0.42 -0.14 7369
0.62 -0.03 0.20 -2.62 9.74 2.36 0.48 -0.15 7375
0.54 -0.03 0.34 -3.27 11.64 2.50 0.63 -0.13 7384
0.41 -0.03 0.26 -3.27 13.17 2.74 0.74 -0.09 7391
0.28 -0.03 0.09 -3.89 13.67 2.99 0.82 -0.02 7397
0.22 -0.02 0.21 -4.15 13.78 3.25 0.90 0.02 7404
0.16 -0.02 0.34 -4.22 15.80 3.53 0.89 0.06 7411
0.10 -0.01 0.77 -4.97 15.35 3.72 0.82 0.10 7418
0.10 -0.01 0.80 -5.70 15.91 3.89 0.78 0.11 7426
0.06 -0.01 0.97 -6.45 16.07 4.02 0.72 0.13 7433
0.06 -0.01 1.65 -7.20 17.35 4.11 0.71 0.15 7440
0.05 -0.00 1.55 -7.64 17.71 4.12 0.78 0.16 7447
0.04 -0.00 1.99 -7.50 17.54 4.12 0.82 0.14 7454
0.05 -0.00 2.19 -7.91 16.89 4.11 0.81 0.10 7461
0.05 -0.00 2.29 -7.13 16.71 4.10 0.83 0.05 7469
0.02 -0.00 2.10 -6.51 16.58 4.03 0.88 0.01 7476
0.01 -0.00 1.66 -6.37 16.97 3.86 0.88 -0.05 7483
0.00 -0.00 1.68 -5.60 16.39 3.71 0.73 -0.13 7490
0.00 0.00 1.83 -4.71 17.08 3.78 0.54 -0.21 7497
0.01 -0.00 1.72 -2.25 15.68 3.79 0.33 -0.29 7504
0.00 0.00 2.10 -0.03 14.41 3.72 0.32 -0.31 7512
0.00 0.00 2.70 2.60 10.84 3.37 0.46 -0.31 7519
0.00 0.00 2.48 7.35 8.29 2.86 0.64 -0.39 7526
0.00 0.00 0.77 11.83 4.11 2.15 0.57 -0.69 7533
0.00 0.00 -2.95 18.96 0.90 1.17 0.13 -1.12 7540
0.00 -0.00 -0.47 11.50 10.32 0.25 -0.35 -1.62 7547
0.00 0.00 -0.57 7.58 12.59 -0.85 -0.55 -1.77 7555
0.00 -0.00 -1.88 6.20 10.82 -1.44 -0.35 -1.92 7562
0.00 0.00 -1.71 5.84 7.97 -1.60 -0.18 -2.10 7569
0.00 0.00 -1.76 5.84 5.92 -1.68 -0.21 -2.24 7576
0.00 0.00 -2.09 5.74 4.65 -1.75 -0.32 -2.37 7583
0.00 0.00 -2.16 5.33 4.56 -1.78 -0.43 -2.44 7590
0.00 0.00 -2.08 4.72 5.06 -1.84 -0.60 -2.47 7598
0.00 0.00 -1.81 4.39 5.99 -1.93 -0.76 -2.43 7605
0.00 0.00 -1.14 4.37 6.78 -2.09 -0.92 -2.35 7612
0.00 0.00 -0.42 4.51 7.57 -2.33 -1.06 -2.20 7619
0.00 0.00 0.11 4.70 8.32 -2.58 -1.16 -2.01 7626
0.00 0.00 0.77 4.58 8.75 -2.92 -1.25 -1.81 7633
0.00 0.00 1.49 3.98 9.39 -3.20 -1.27 -1.56 7641
0.00 0.00 2.08 3.20 9.69 -3.50 -1.25 -1.35 7648
0.00 0.00 2.78 2.30 9.68 -3.71 -1.20 -1.12 7655
0.00 0.00 3.19 1.51 9.53 -3.87 -1.12 -0.94 7662
0.00 0.00 3.55 0.76 9.41 -3.95 -0.96 -0.81 7669
0.00 0.00 3.91 0.07 9.82 -3.97 -0.75 -0.68 7676
0.00 0.00 4.24 -0.57 10.37 -3.94 -0.55 -0.61 7684
0.00 0.00 4.61 -1.62 11.01 -3.90 -0.30 -0.54 7691
0.00 0.00 4.84 -2.49 11.64 -3.86 -0.07 -0.46 7698
0.00 0.00 5.14 -3.27 12.41 -3.82 0.19 -0.39 7705
0.00 -0.00 5.36 -4.13 13.36 -3.74 0.41 -0.27 7712
0.00 0.00 5.36 -4.68 14.06 -3.72 0.59 -0.15 7719
0.00 0.00 5.15 -5.33 14.42 -3.66 0.78 0.01 7727
0.00 0.00 4.89 -5.89 14.39 -3.60 0.88 0.18 7734
0.00 0.00 4.58 -6.29 14.59 -3.52 0.96 0.33 7741
0.00 0.00 4.51 -6.79 14.66 -3.43 1.00 0.48 7748
0.00 0.00 4.48 -7.08 14.56 -3.30 1.01 0.59 7755
0.00 0.00 4.53 -7.42 14.45 -3.16 1.01 0.67 7762
0.00 0.00 4.73 -7.76 14.25 -3.03 1.02 0.70 7770
0.00 0.00 4.94 -7.99 14.70 -2.87 1.04 0.70 7777
0.00 0.00 5.00 -8.17 14.06 -2.69 1.10 0.69 7784
0.00 0.00 4.99 -8.14 13.75 -2.53 1.17 0.69 7791
0.00 0.00 4.67 -8.17 13.60 -2.33 1.29 0.69 7798
0.00 0.00 4.07 -8.13 13.18 -2.14 1.39 0.70 7805
0.00 0.00 3.49 -8.05 12.80 -1.91 1.44 0.70 7813
0.00 0.00 2.83 -8.09 12.48 -1.65 1.50 0.70 7820
0.00 0.00 2.40 -8.17 12.48 -1.42 1.56 0.69 7827
0.00 0.00 2.11 -8.18 12.61 -1.15 1.65 0.66 7834
0.00 0.00 1.67 -8.27 12.61 -0.93 1.76 0.62 7841
0.00 0.00 1.03 -8.43 12.84 -0.71 1.86 0.57 7848
0.00 0.00 0.54 -8.70 13.05 -0.53 1.99 0.52 7856
0.00 0.00 0.08 -8.99 13.32 -0.41 2.08 0.45 7863
0.00 0.00 -0.53 -9.16 13.35 -0.34 2.15 0.38 7870
0.00 0.00 -1.13 -9.31 13.84 -0.32 2.17 0.28 7877
0.00 0.00 -1.69 -9.33 14.44 -0.41 2.15 0.17 7884
0.00 0.00 -3.25 -9.33 14.61 -0.57 1.91 0.14 7891
0.00 0.00 -4.21 -9.09 14.08 -0.84 1.69 0.11 7899
0.00 0.00 -3.81 -8.27 11.73 -1.26 1.58 0.10 7906
0.00 0.00 -4.89 -10.16 12.12 -1.60 1.32 0.10 7913
0.00 0.00 -6.98 -10.59 11.33 -1.68 0.79 0.10 7920
0.00 0.00 -5.58 -10.44 8.35 -1.80 0.43 0.08 7927
0.00 0.00 -6.97 -14.46 8.16 -1.69 0.04 0.09 7934
0.00 0.00 -8.24 -16.28 7.72 -1.28 -0.61 0.09 7942
0.00 0.00 -1.71 -11.23 2.00 -1.14 -0.70 -0.01 7949
0.00 0.00 -3.69 -21.09 6.19 -1.03 -0.59 -0.09 7956
0.00 0.00 -3.42 -19.50 3.35 -0.22 -0.88 -0.03 7963
0.00 0.00 -2.21 -18.16 1.83 0.12 -0.73 -0.10 7970
0.00 0.00 -1.48 -16.74 4.55 0.64 -0.30 -0.05 7977
0.00 0.00 -5.31 -19.28 4.02 1.05 -0.43 0.06 7985
0.00 0.00 -7.90 -18.52 5.81 1.39 -0.91 0.25 7992
-0.00 0.00 -12.06 -19.00 6.97 1.66 -1.58 0.54 7999
-0.00 0.00 -4.10 -7.77 10.39 2.00 -1.69 0.99 8006
-0.00 0.04 -3.38 1.91 11.64 2.12 -1.40 0.94 8013
-0.01 0.15 -7.20 -1.71 15.62 2.19 -1.22 0.81 8020
-0.02 0.25 -5.65 -0.17 16.47 2.14 -1.34 0.32 8028
-0.02 0.29 -3.61 -3.52 22.70 1.00 -1.93 -0.19 8036
-0.02 0.33 -0.45 -1.96 11.24 -0.07 -0.38 -0.11 8043
-0.02 0.34 -0.08 -1.77 10.33 -0.15 -0.06 -0.11 8050
-0.03 0.34 0.78 -1.95 9.94 -0.10 -0.12 -0.15 8056
-0.03 0.35 1.24 -1.22 10.07 -0.04 -0.07 -0.06 8065
-0.02 0.36 0.46 -0.62 10.09 -0.01 -0.01 0.00 8071
-0.00 0.36 -0.02 -0.95 10.04 0.00 0.03 -0.01 8078
-0.01 0.39 0.16 -0.89 9.78 -0.00 0.06 -0.02 8085
-0.01 0.39 0.49 -0.81 9.82 -0.00 0.08 -0.02 8092
0.01 0.33 0.47 -0.86 9.86 -0.00 0.08 -0.01 8099
0.00 0.34 0.44 -0.78 9.79 -0.01 0.08 -0.02 8107
0.02 0.35 0.43 -0.83 9.75 -0.01 0.07 -0.02 8114
0.04 0.31 0.52 -0.85 9.79 -0.02 0.05 -0.03 8121
0.04 0.36 0.44 -0.75 9.71 -0.02 0.04 -0.04 8128
0.03 0.35 0.46 -0.72 9.64 -0.03 0.02 -0.04 8135
0.02 0.38 0.41 -0.77 9.72 -0.03 0.01 -0.05 8142
0.02 0.36 0.42 -0.73 9.70 -0.04 -0.00 -0.05 8150
0.03 0.37 0.34 -0.74 9.75 -0.04 -0.00 -0.06 8157
0.03 0.44 0.37 -0.70 9.77 -0.04 0.00 -0.06 8164
0.04 0.47 0.33 -0.74 9.91 -0.04 0.01 -0.06 8171
0.03 0.50 0.36 -0.76 9.91 -0.04 0.02 -0.06 8178
0.04 0.51 0.28 -0.78 9.89 -0.03 0.02 -0.06 8185
0.03 0.51 0.40 -0.78 9.91 -0.03 0.04 -0.06 8193
0.01 0.53 0.38 -0.76 9.84 -0.02 0.04 -0.06 8200
0.02 0.54 0.41 -0.78 9.83 -0.02 0.03 -0.07 8207
0.03 0.54 0.36 -0.76 9.83 -0.01 0.03 -0.06 8214
0.02 0.55 0.44 -0.78 9.23 -0.01 0.02 -0.07 8221
0.02 0.54 0.43 -0.77 9.82 -0.01 0.01 -0.08 8228
0.02 0.52 0.42 -0.72 9.84 -0.01 0.01 -0.08 8236
0.02 0.52 0.41 -0.74 9.81 -0.00 -0.00 -0.08 8243
0.02 0.51 0.45 -0.74 9.82 0.00 -0.00 -0.08 8250
0.03 0.46 0.42 -0.75 9.81 0.01 -0.01 -0.09 8257
0.03 0.46 0.35 -0.77 9.80 0.01 -0.00 -0.08 8264
0.03 0.42 0.35 -0.76 9.83 0.02 -0.00 -0.09 8271
0.01 0.44 0.34 -0.80 9.83 0.01 0.00 -0.08 8279
0.05 0.43 0.31 -0.74 9.82 0.01 0.01 -0.09 8286
0.06 0.40 0.34 -0.80 9.86 0.01 0.01 -0.09 8293
0.03 0.34 0.34 -0.80 9.80 0.01 0.01 -0.08 8300
0.06 0.32 0.36 -0.77 9.80 0.01 0.01 -0.08 8307
0.05 0.30 0.33 -0.79 9.80 0.01 0.01 -0.08 8314
0.06 0.29 0.36 -0.76 9.83 0.01 0.01 -0.09 8322
0.06 0.28 0.37 -0.78 9.76 0.01 0.02 -0.09 8329
0.08 0.27 0.36 -0.79 9.76 0.00 0.02 -0.09 8336
0.09 0.25 0.27 -0.81 9.80 0.00 0.02 -0.09 8343
0.11 0.23 0.34 -0.75 9.77 0.01 0.02 -0.09 8350
0.12 0.22 0.33 -0.77 9.80 0.00 0.02 -0.09 8357
0.16 0.21 0.37 -0.77 9.77 0.01 0.02 -0.09 8365
0.16 0.21 0.32 -0.79 9.81 0.01 0.02 -0.09 8372
0.17 0.20 0.32 -0.83 9.81 0.01 0.02 -0.09 8379
0.18 0.17 0.29 -0.80 9.82 0.01 0.02 -0.09 8386
0.20 0.14 0.31 -0.80 9.83 0.01 0.03 -0.09 8393
0.24 0.12 0.33 -0.80 9.78 0.02 0.03 -0.09 8400
0.23 0.12 0.30 -0.80 9.81 0.02 0.03 -0.09 8408
0.25 0.12 0.36 -0.82 9.81 0.02 0.03 -0.09 8415
0.29 0.08 0.31 -0.78 9.79 0.02 0.03 -0.09 8422
0.30 0.05 0.32 -0.83 9.80 0.02 0.03 -0.09 8429
0.33 0.04 0.31 -0.81 9.76 0.02 0.03 -0.09 8436
0.33 0.03 0.32 -0.82 9.80 0.03 0.03 -0.09 8443
0.34 0.04 0.31 -0.83 9.81 0.03 0.03 -0.09 8451
0.36 -0.00 0.32 -0.84 9.80 0.03 0.03 -0.10 8458
0.40 0.00 0.34 -0.85 9.82 0.04 0.03 -0.09 8465
0.39 -0.01 0.34 -0.88 9.81 0.04 0.03 -0.10 8472
0.42 -0.02 0.40 -0.86 9.21 0.05 0.03 -0.10 8479
0.41 -0.01 0.33 -0.85 9.82 0.05 0.04 -0.10 8486
0.43 -0.01 0.34 -0.87 9.80 0.06 0.03 -0.10 8494
0.47 -0.02 0.35 -0.91 9.82 0.08 0.04 -0.10 8501
0.52 -0.02 0.35 -0.89 9.86 0.08 0.03 -0.11 8508
0.57 -0.04 0.33 -0.91 9.85 0.11 0.04 -0.12 8515
0.57 -0.03 0.34 -0.92 9.86 0.14 0.04 -0.12 8522
0.62 -0.03 0.35 -0.98 9.92 0.16 0.03 -0.13 8529
0.66 -0.01 0.35 -0.86 9.95 0.20 0.03 -0.13 8537
0.77 -0.04 0.40 -1.01 10.02 0.24 0.02 -0.14 8544
0.79 -0.04 0.45 -1.04 10.12 0.30 0.02 -0.15 8551
0.86 -0.05 0.49 -1.03 10.23 0.39 0.01 -0.17 8558
0.90 -0.04 0.50 -1.08 10.35 0.50 -0.00 -0.18 8565
0.92 -0.03 0.42 -1.14 10.65 0.65 -0.01 -0.20 8573
0.97 -0.03 0.38 -1.11 11.00 0.86 -0.01 -0.20 8580
1.00 -0.03 0.40 -1.80 10.99 1.02 -0.02 -0.21 8587
1.05 -0.04 0.41 -1.32 11.06 1.14 -0.02 -0.20 8594
1.07 -0.05 0.31 -1.41 10.84 1.20 -0.04 -0.20 8602
1.08 -0.04 0.27 -1.41 10.46 1.24 -0.04 -0.20 8609
1.14 -0.05 0.23 -1.54 10.41 1.27 -0.01 -0.19 8616
1.14 -0.04 0.34 -1.60 10.41 1.29 0.01 -0.19 8624
1.11 -0.04 0.22 -1.75 10.51 1.33 0.07 -0.18 8631
1.12 -0.04 0.25 -1.72 10.95 1.39 0.16 -0.18 8638
1.10 -0.05 0.13 -1.89 10.83 1.51 0.21 -0.17 8645
1.05 -0.04 0.03 -1.98 11.14 1.64 0.26 -0.18 8652
1.03 -0.04 0.10 -2.18 11.48 1.76 0.30 -0.17 8658
0.96 -0.04 0.27 -2.42 12.12 1.97 0.30 -0.18 8667
0.87 -0.03 0.65 -2.40 12.15 2.14 0.31 -0.20 8674
0.75 -0.04 0.31 -3.05 10.75 2.33 0.36 -0.22 8681
0.66 -0.04 0.01 -2.41 11.52 2.48 0.43 -0.20 8687
0.53 -0.02 -0.48 -2.79 13.74 2.65 0.47 -0.16 8695
0.38 -0.00 0.79 -3.13 14.40 2.90 0.51 -0.12 8702
0.25 -0.02 0.73 -3.81 15.44 3.18 0.55 -0.12 8710
0.16 -0.02 1.00 -4.12 16.00 3.42 0.54 -0.13 8716
0.08 -0.01 1.43 -4.76 16.44 3.64 0.57 -0.15 8723
0.06 -0.01 1.19 -5.87 18.47 3.74 0.62 -0.13 8730
0.06 -0.01 1.36 -6.62 18.90 3.79 0.69 -0.10 8737
0.06 -0.00 2.40 -6.84 18.71 3.74 0.83 -0.08 8744
0.05 -0.01 2.29 -6.42 17.37 3.67 0.91 -0.12 8752
0.05 -0.00 1.37 -5.47 16.64 3.55 0.92 -0.19 8759
0.01 -0.00 0.35 -4.95 16.32 3.40 0.79 -0.25 8766
0.00 0.00 -0.28 -4.77 15.40 3.22 0.54 -0.29 8773
0.00 0.00 -0.15 -4.47 16.05 3.10 0.18 -0.33 8780
0.01 -0.00 0.85 -3.25 15.38 3.10 -0.11 -0.37 8787
0.02 -0.00 1.99 -0.69 14.17 3.14 -0.33 -0.41 8795
0.00 0.00 2.37 1.97 10.47 3.09 -0.27 -0.43 8802
0.00 0.00 2.90 5.75 8.83 2.80 -0.09 -0.44 8809
0.00 0.00 1.99 11.67 7.82 2.23 0.07 -0.63 8816
0.00 0.00 0.20 14.08 5.30 1.53 0.02 -1.10 8823
0.00 0.00 1.18 10.61 5.97 0.63 -0.33 -1.44 8830
0.00 -0.00 0.03 9.92 9.97 -0.17 -0.42 -1.61 8838
0.00 0.00 -0.56 9.00 9.72 -0.63 -0.30 -1.73 8845
0.00 0.00 -0.53 7.93 8.43 -0.89 -0.30 -1.90 8852
0.00 0.00 -0.45 7.38 6.58 -1.03 -0.45 -2.05 8859
0.00 0.00 -0.24 7.23 5.25 -1.17 -0.63 -2.15 8866
0.00 -0.00 0.34 6.94 5.04 -1.34 -0.74 -2.23 8873
0.00 0.00 1.03 6.48 5.80 -1.48 -0.79 -2.25 8881
0.00 0.00 1.67 6.04 6.45 -1.69 -0.77 -2.22 8888
0.00 0.00 2.22 5.63 6.88 -1.87 -0.70 -2.12 8895
0.00 0.00 2.52 5.31 6.85 -2.09 -0.60 -2.00 8902
0.00 0.00 2.71 5.11 7.14 -2.30 -0.54 -1.83 8909
0.00 0.00 2.86 4.80 7.39 -2.45 -0.50 -1.65 8916
0.00 0.00 3.12 4.12 7.91 -2.59 -0.42 -1.49 8924
0.00 0.00 3.60 3.33 8.68 -2.70 -0.28 -1.30 8931
0.00 0.00 4.04 2.62 9.30 -2.80 -0.14 -1.14 8938
0.00 0.00 4.25 1.96 9.82 -2.89 0.05 -0.98 8945
0.00 0.00 4.26 1.45 10.32 -2.98 0.21 -0.84 8952
0.00 0.00 4.17 1.08 10.83 -3.07 0.40 -0.74 8960
0.00 0.00 4.02 0.56 11.57 -3.15 0.55 -0.64 8967
0.00 0.00 3.79 -0.13 12.13 -3.23 0.62 -0.58 8974
0.00 0.00 3.58 -1.31 12.38 -3.30 0.65 -0.53 8981
0.00 0.00 3.39 -2.53 12.61 -3.34 0.64 -0.50 8988
0.00 0.00 3.59 -3.45 12.74 -3.34 0.65 -0.46 8995
0.00 0.00 3.66 -4.51 13.17 -3.25 0.66 -0.40 9003
0.00 0.00 3.71 -5.27 13.33 -3.17 0.67 -0.35 9010
0.00 0.00 3.83 -6.08 13.36 -3.03 0.70 -0.27 9017
0.00 0.00 4.10 -6.60 13.37 -2.90 0.71 -0.17 9024
0.00 0.00 4.30 -6.90 13.56 -2.75 0.73 -0.08 9031
0.00 0.00 4.71 -7.08 13.60 -2.63 0.79 0.08 9038
0.00 0.00 4.94 -6.99 13.57 -2.49 0.86 0.26 9046
0.00 0.00 5.11 -6.79 13.47 -2.35 0.97 0.44 9053
0.00 0.00 5.06 -6.46 13.05 -2.22 1.10 0.67 9060
0.00 0.00 4.76 -6.28 12.77 -2.05 1.25 0.88 9067
0.00 0.00 4.11 -6.14 12.48 -1.86 1.40 1.10 9074
0.00 0.00 3.37 -6.02 12.37 -1.69 1.51 1.31 9081
0.00 0.00 2.33 -5.99 12.39 -1.47 1.59 1.45 9089
0.00 0.00 1.20 -6.01 12.59 -1.29 1.60 1.59 9096
0.00 0.00 0.43 -6.06 12.47 -1.09 1.57 1.68 9103
0.00 0.00 -0.40 -6.10 12.32 -0.91 1.45 1.74 9110
0.00 0.00 -1.03 -6.30 12.55 -0.78 1.27 1.76 9117
0.00 0.00 -1.45 -6.62 12.42 -0.64 1.10 1.74 9124
0.00 0.00 -1.64 -6.88 12.28 -0.52 0.89 1.68 9132
0.00 0.00 -1.47 -7.07 12.19 -0.39 0.75 1.58 9139
0.00 0.00 -1.42 -7.30 12.39 -0.28 0.63 1.53 9146
0.00 0.00 -1.38 -7.47 13.06 -0.22 0.58 1.42 9153
0.00 0.00 -1.40 -7.71 13.84 -0.22 0.61 1.33 9160
0.00 -0.00 -1.11 -7.95 14.39 -0.37 0.74 1.21 9167
0.00 0.00 -0.91 -8.01 14.14 -0.61 0.90 1.08 9175
0.00 0.00 -1.34 -7.98 13.56 -0.99 1.12 0.97 9182
0.00 0.00 -2.07 -8.21 12.79 -1.31 1.33 0.86 9189
0.00 0.00 -2.71 -8.68 11.06 -1.59 1.43 0.79 9196
0.00 0.00 -3.60 -9.49 10.26 -1.73 1.48 0.73 9203
0.00 0.00 -4.28 -10.52 8.84 -1.74 1.43 0.67 9210
0.00 0.00 -4.86 -11.34 8.04 -1.62 1.21 0.61 9218
0.00 0.00 -5.19 -12.12 6.98 -1.44 0.90 0.56 9225
0.00 0.00 -4.99 -12.58 6.13 -1.17 0.65 0.52 9232
0.00 0.00 -4.45 -12.73 5.76 -0.88 0.36 0.47 9239
0.00 0.00 -3.87 -12.87 5.57 -0.65 0.15 0.43 9246
0.00 0.00 -3.07 -13.04 6.08 -0.44 0.09 0.38 9253
0.00 0.00 -7.85 -19.34 14.22 -0.05 -0.23 0.38 9261
0.00 0.00 -2.70 -12.97 5.90 0.35 -0.48 0.40 9268
0.00 0.00 -2.87 -11.77 3.27 0.44 -0.68 0.30 9275
0.00 0.00 -3.97 -15.66 6.49 0.58 -0.80 0.27 9282
0.00 0.00 -3.82 -16.09 6.50 0.93 -0.83 0.35 9289
0.00 0.00 -5.04 -16.80 5.00 1.14 -0.85 0.45 9296
0.00 0.00 -5.33 -16.82 4.18 1.50 -1.05 0.76 9304
-0.00 0.01 -0.35 -4.80 5.19 1.83 -0.98 1.02 9311
-0.00 0.04 -1.94 1.45 10.21 2.21 -0.76 1.06 9318
-0.01 0.11 -5.96 -1.20 15.14 2.54 -0.86 0.90 9325
-0.01 0.26 -7.04 0.22 14.79 2.56 -1.19 0.49 9333
-0.02 0.31 -4.82 -1.81 16.22 2.54 -1.23 -0.15 9340
-0.02 0.26 -2.32 -4.92 24.39 0.98 -2.26 -0.41 9348
-0.03 0.29 0.02 -2.19 8.95 -0.17 -0.31 -0.11 9354
-0.04 0.35 -0.24 -2.19 10.15 -0.21 0.03 -0.11 9361
-0.03 0.40 0.20 -2.11 10.19 -0.10 -0.03 -0.06 9368
-0.02 0.42 0.69 -0.97 10.00 -0.06 0.01 0.01 9375
-0.03 0.40 0.15 -0.73 10.17 -0.01 0.03 0.01 9382
0.01 0.40 0.01 -0.81 9.87 -0.01 0.07 -0.01 9390
-0.01 0.39 0.27 -0.87 9.77 -0.01 0.09 -0.02 9397
0.00 0.37 0.53 -0.83 9.82 -0.01 0.10 -0.01 9404
0.00 0.39 0.41 -0.87 9.80 -0.00 0.09 -0.00 9411
0.02 0.41 0.38 -0.86 9.76 -0.01 0.08 -0.01 9418
0.01 0.41 0.47 -0.80 9.75 -0.01 0.06 -0.02 9425
0.00 0.40 0.49 -0.77 9.72 -0.02 0.05 -0.03 9433
-0.01 0.41 0.49 -0.73 9.73 -0.02 0.03 -0.03 9440
-0.00 0.45 0.44 -0.75 9.64 -0.03 0.01 -0.04 9447
-0.01 0.48 0.40 -0.75 9.69 -0.03 -0.01 -0.04 9454
-0.00 0.49 2.31 -0.49 8.30 -0.04 -0.02 -0.05 9461
0.01 0.50 0.35 -0.73 9.70 -0.04 -0.03 -0.06 9468
-0.02 0.53 0.36 -0.73 10.30 -0.04 -0.03 -0.06 9476
-0.03 0.55 0.30 -0.83 9.88 -0.04 -0.02 -0.06 9483
-0.01 0.56 0.29 -0.77 9.87 -0.04 -0.00 -0.06 9490
-0.01 0.55 0.28 -0.78 9.87 -0.03 0.01 -0.06 9497
-0.01 0.58 0.32 -0.78 9.85 -0.02 0.02 -0.06 9504
-0.02 0.60 0.40 -0.79 9.82 -0.02 0.02 -0.05 9511
-0.02 0.56 0.43 -0.78 9.81 -0.01 0.02 -0.05 9519
-0.01 0.58 0.40 -0.76 9.81 -0.01 0.02 -0.06 9526
-0.01 0.58 0.46 -0.78 9.81 -0.01 0.01 -0.06 9533
0.01 0.56 0.40 -0.76 9.82 -0.00 -0.00 -0.07 9540
-0.01 0.54 0.40 -0.78 9.78 0.00 -0.01 -0.07 9547
0.00 0.52 0.34 -0.79 9.81 0.00 -0.01 -0.08 9554
-0.00 0.52 0.36 -0.74 9.80 0.01 -0.01 -0.08 9562
0.01 0.50 0.33 -0.77 9.81 0.01 -0.01 -0.08 9569
0.00 0.47 0.34 -0.80 9.82 0.01 -0.00 -0.08 9576
0.04 0.40 0.29 -0.80 9.84 0.01 0.00 -0.08 9583
0.03 0.38 0.32 -0.86 9.82 0.01 0.01 -0.08 9590
0.05 0.37 0.28 -0.82 9.87 0.01 0.01 -0.08 9597
0.03 0.37 0.30 -0.81 10.37 0.01 0.02 -0.07 9605
0.03 0.38 0.37 -0.83 9.76 0.01 0.02 -0.08 9612
0.05 0.36 0.32 -0.81 9.82 0.01 0.02 -0.08 9619
0.07 0.33 0.32 -0.79 9.77 0.01 0.02 -0.08 9626
0.05 0.28 0.32 -0.80 9.79 0.01 0.02 -0.08 9633
0.05 0.23 0.34 -0.83 9.81 0.01 0.02 -0.09 9640
0.07 0.27 0.34 -0.85 9.79 0.01 0.02 -0.09 9648
0.10 0.25 0.31 -0.84 9.83 0.01 0.02 -0.09 9655
0.11 0.19 0.32 -0.80 9.78 0.01 0.02 -0.08 9662
0.13 0.18 0.32 -0.82 9.79 0.02 0.02 -0.09 9669
0.13 0.17 0.31 -0.82 9.80 0.01 0.02 -0.08 9676
0.15 0.19 0.37 -0.84 9.79 0.01 0.02 -0.09 9683
0.15 0.15 0.30 -0.86 9.81 0.02 0.02 -0.09 9691
0.20 0.13 0.31 -0.85 10.42 0.02 0.02 -0.09 9698
0.22 0.12 0.29 -0.84 9.81 0.01 0.02 -0.09 9705
0.24 0.11 0.27 -0.89 9.82 0.02 0.02 -0.08 9712
0.24 0.09 0.29 -0.82 9.81 0.02 0.03 -0.09 9719
0.23 0.09 0.27 -0.85 9.80 0.02 0.03 -0.09 9726
0.26 0.07 0.33 -0.86 9.80 0.02 0.03 -0.09 9734
0.30 0.03 0.27 -0.85 9.79 0.02 0.03 -0.09 9741
0.32 0.01 0.29 -0.87 9.76 0.02 0.03 -0.09 9748
0.33 0.02 0.34 -0.84 9.82 0.03 0.04 -0.09 9755
0.35 0.05 0.31 -0.86 9.81 0.03 0.04 -0.09 9762
0.37 0.03 0.29 -0.86 9.82 0.04 0.03 -0.09 9769
0.38 0.00 0.31 -0.89 9.80 0.04 0.04 -0.10 9777
0.41 -0.01 0.32 -0.88 9.80 0.05 0.04 -0.09 9784
0.42 -0.02 0.30 -0.87 9.82 0.05 0.04 -0.10 9791
0.42 -0.02 0.32 -0.97 9.82 0.10 0.04 -0.10 9798
0.46 -0.03 0.36 -0.91 9.82 0.07 0.04 -0.11 9805
0.46 -0.03 0.33 -0.90 9.82 0.09 0.05 -0.11 9812
0.52 -0.02 0.31 -0.95 9.83 0.10 0.05 -0.11 9820
0.56 -0.01 0.34 -0.93 9.87 0.12 0.06 -0.11 9827
0.61 -0.03 0.39 -0.92 9.85 0.14 0.06 -0.11 9834
0.67 -0.02 0.39 -0.99 9.98 0.18 0.06 -0.12 9841
0.68 -0.03 0.40 -1.00 10.01 0.24 0.07 -0.12 9848
0.71 -0.03 0.35 -1.05 10.05 0.31 0.07 -0.14 9857
0.74 -0.04 0.42 -1.07 10.25 0.42 0.07 -0.14 9864
0.82 -0.03 0.37 -1.12 10.50 0.58 0.08 -0.16 9870
0.86 -0.03 0.30 -1.15 10.91 0.77 0.10 -0.16 9878
0.90 -0.04 0.30 -1.08 10.93 0.99 0.11 -0.16 9884
0.95 -0.04 0.35 -1.29 11.04 1.10 0.09 -0.15 9891
0.94 -0.03 0.36 -1.39 11.03 1.17 0.05 -0.15 9900
1.00 -0.03 0.31 -1.43 10.86 1.21 0.01 -0.14 9907
1.03 -0.05 0.48 -1.56 10.96 1.24 -0.01 -0.13 9914
1.06 -0.05 0.40 -1.63 11.02 1.28 -0.02 -0.13 9921
1.06 -0.04 0.32 -1.83 10.99 1.37 -0.00 -0.12 9928
1.05 -0.05 0.42 -1.73 11.01 1.40 0.00 -0.13 9934
1.03 -0.04 0.23 -1.90 10.89 1.48 -0.00 -0.13 9942
1.01 -0.04 0.32 -2.04 10.91 1.57 -0.01 -0.14 9950
1.02 -0.04 0.39 -2.09 11.18 1.68 -0.03 -0.15 9957
0.98 -0.03 0.40 -2.29 11.50 1.83 -0.05 -0.16 9964
0.98 -0.04 0.45 -2.62 11.66 1.94 -0.10 -0.16 9971
0.93 -0.04 0.69 -2.52 12.31 2.13 -0.18 -0.17 9978
0.88 -0.03 0.83 -2.70 12.32 2.30 -0.21 -0.23 9986
0.86 -0.03 0.50 -2.86 12.11 2.49 -0.21 -0.26 9993
0.79 -0.04 0.18 -2.76 12.06 2.68 -0.20 -0.26 10000
0.69 -0.03 0.06 -3.11 12.73 2.84 -0.24 -0.25 10007
0.62 -0.04 0.26 -3.20 12.97 3.10 -0.19 -0.25 10014
0.42 -0.02 0.22 -3.49 13.32 3.33 -0.17 -0.26 10021
0.37 -0.02 0.69 -4.29 13.49 3.60 -0.17 -0.28 10029
0.25 -0.02 0.46 -4.72 15.09 3.87 -0.13 -0.30 10036
0.20 -0.01 0.00 -5.50 15.93 4.06 -0.11 -0.31 10042
0.15 -0.02 0.62 -6.45 15.37 4.18 -0.04 -0.30 10049
0.11 -0.01 0.68 -7.76 18.61 4.23 0.14 -0.28 10056
0.09 -0.01 1.19 -8.07 18.63 4.25 0.33 -0.25 10063
0.05 -0.00 1.90 -7.99 17.82 4.25 0.58 -0.25 10071
0.03 -0.00 1.63 -7.81 17.41 4.24 0.75 -0.28 10078
0.05 -0.01 1.36 -7.52 17.24 4.22 0.85 -0.31 10085
0.09 -0.01 0.60 -6.51 17.42 4.19 0.84 -0.37 10092
0.04 -0.00 -0.29 -5.42 18.27 4.08 0.66 -0.44 10099
0.00 0.00 -0.89 -5.17 18.44 3.90 0.24 -0.51 10106
0.00 0.00 -0.08 -4.32 18.94 3.89 -0.26 -0.57 10114
0.02 -0.00 0.64 -2.40 16.91 3.96 -0.69 -0.62 10121
0.00 0.00 1.66 0.50 14.87 3.96 -0.88 -0.61 10128
0.00 0.00 2.84 2.96 8.29 3.66 -0.73 -0.54 10135
0.00 0.00 3.67 4.35 6.02 3.23 -0.39 -0.58 10142
0.00 0.00 3.64 10.84 3.75 2.71 -0.12 -0.67 10149
-0.00 0.00 1.31 23.63 2.49 1.83 -0.02 -0.98 10157
0.00 0.00 1.84 13.35 11.00 0.74 0.14 -1.46 10164
0.00 0.00 1.33 7.52 18.23 -0.37 0.27 -1.62 10171
0.00 0.00 -0.67 7.89 14.75 -1.29 0.41 -1.66 10178
0.00 0.00 -1.31 9.32 10.76 -1.65 0.50 -1.72 10185
0.00 0.00 -1.41 9.39 7.72 -1.93 0.38 -1.75 10192
0.00 0.00 -1.39 8.43 6.05 -2.14 0.09 -1.80 10200
0.00 0.00 -1.13 7.17 6.30 -2.26 -0.15 -1.84 10207
0.00 0.00 -0.72 6.49 6.68 -2.37 -0.35 -1.84 10214
0.00 0.00 -0.24 6.16 6.97 -2.46 -0.45 -1.79 10221
0.00 0.00 0.31 5.94 7.98 -2.58 -0.46 -1.73 10228
0.00 0.00 0.95 5.86 7.13 -2.75 -0.43 -1.63 10235
0.00 0.00 1.48 5.66 7.75 -2.95 -0.34 -1.53 10243
0.00 0.00 2.02 5.32 8.26 -3.19 -0.24 -1.42 10250
0.00 0.00 2.39 4.67 8.90 -3.41 -0.02 -1.31 10257
0.00 0.00 2.54 3.92 9.45 -3.63 0.23 -1.19 10264
0.00 0.00 2.48 3.00 9.71 -3.82 0.54 -1.06 10271
0.00 0.00 2.36 1.98 9.83 -3.95 0.79 -0.95 10278
0.00 -0.00 2.23 1.21 10.10 -4.08 0.94 -0.86 10286
0.00 0.00 1.98 0.40 10.47 -4.17 1.05 -0.76 10293
0.00 0.00 1.75 -0.45 11.11 -4.17 1.09 -0.66 10300
0.00 0.00 1.66 -1.44 11.78 -4.15 1.09 -0.54 10307
0.00 0.00 1.48 -2.47 12.65 -4.11 1.07 -0.41 10314
0.00 0.00 1.51 -3.35 12.97 -4.02 1.06 -0.29 10321
0.00 0.00 1.76 -4.06 13.34 -3.90 1.06 -0.16 10329
0.00 0.00 2.03 -4.46 13.84 -3.80 1.10 -0.04 10336
0.00 0.00 2.15 -4.65 14.04 -3.69 1.18 0.05 10343
0.00 0.00 2.05 -4.94 14.47 -3.61 1.29 0.19 10350
0.00 0.00 1.93 -5.19 14.62 -3.50 1.39 0.30 10357
0.00 0.00 1.76 -5.63 15.09 -3.37 1.47 0.43 10364
0.00 0.00 1.48 -5.94 14.79 -3.23 1.50 0.56 10372
0.00 0.00 1.18 -6.22 14.78 -3.05 1.47 0.65 10379
0.00 0.00 1.28 -6.70 14.99 -2.83 1.40 0.74 10386
0.00 0.00 1.43 -7.03 14.76 -2.65 1.34 0.81 10393
0.00 0.00 1.50 -7.51 14.72 -2.43 1.27 0.88 10400
-0.00 0.00 1.46 -7.96 14.40 -2.23 1.18 0.95 10407
0.00 0.00 1.29 -8.60 14.20 -1.98 1.09 1.01 10415
0.00 0.00 1.08 -9.44 14.02 -1.72 0.94 1.08 10422
0.00 0.00 1.06 -10.27 13.83 -1.49 0.81 1.16 10429
0.00 0.00 1.44 -11.00 14.05 -1.23 0.66 1.21 10436
0.00 0.00 2.14 -12.67 15.03 -1.05 0.60 1.26 10443
0.00 0.00 -4.71 -18.73 27.16 0.45 1.36 1.79 10450
0.00 0.00 0.52 -6.40 10.86 -0.17 0.30 1.63 10458
0.00 0.00 1.99 -11.01 11.32 -0.50 0.55 1.42 10465
0.00 0.00 5.03 -15.91 18.96 -0.91 1.17 1.50 10472
0.00 0.00 0.49 -15.68 17.14 -1.32 1.73 1.56 10479
0.00 0.00 1.94 -12.75 14.77 -1.45 2.24 1.57 10486
0.00 0.00 -3.71 -13.55 9.29 -1.77 2.85 1.65 10493
0.00 0.00 -12.02 -18.21 15.29 -1.14 2.20 1.93 10502
0.00 0.00 -11.44 -16.06 5.90 -1.12 1.81 2.05 10508
0.00 0.00 -13.62 -17.27 6.27 -1.01 0.74 1.93 10515
0.00 0.00 -9.08 -22.32 5.21 -0.86 -0.39 1.62 10522
0.00 0.00 -6.25 -25.24 4.75 -0.54 -1.30 1.24 10529
0.00 0.00 -2.56 -25.35 3.58 -0.03 -1.36 0.87 10536
0.00 0.00 -2.80 -29.18 0.68 0.50 -0.94 0.68 10544
-0.00 0.00 -5.25 -36.32 1.13 1.06 -0.43 0.75 10551
-0.00 0.01 -10.60 -39.22 1.29 1.81 -0.82 1.19 10559
-0.01 0.11 -6.81 2.87 7.87 2.73 -1.33 1.18 10565
-0.02 0.22 -8.66 -8.74 16.77 3.41 -1.38 0.63 10572
-0.00 0.25 -9.21 -3.41 46.52 2.76 -2.49 0.05 10580
-0.03 0.35 0.04 0.23 6.52 -0.30 0.09 0.04 10587
-0.03 0.43 -1.04 -0.60 10.62 -0.30 -0.03 -0.25 10595
-0.04 0.53 -0.22 -2.45 10.35 -0.12 -0.13 -0.26 10602
-0.04 0.58 2.15 -1.81 10.13 -0.03 -0.05 -0.15 10609
-0.03 0.53 0.64 -0.70 10.24 0.00 0.00 0.02 10615
-0.03 0.53 -0.38 -0.95 10.20 -0.01 0.04 -0.02 10622
-0.04 0.54 0.20 -0.81 9.76 -0.01 0.07 -0.05 10630
-0.04 0.53 0.60 -0.81 9.79 -0.00 0.08 -0.03 10637
-0.05 0.53 0.35 -0.94 9.81 0.00 0.08 -0.02 10644
-0.03 0.48 0.23 -0.85 9.80 0.00 0.08 -0.02 10651
-0.04 0.46 0.45 -0.81 9.59 0.00 0.08 -0.03 10658
-0.03 0.48 0.51 -0.87 9.78 0.00 0.06 -0.03 10665
-0.03 0.47 0.43 -0.88 9.65 0.01 0.04 -0.04 10673
-0.01 0.47 0.39 -0.85 9.70 0.00 0.03 -0.05 10680
-0.02 0.47 0.42 -0.86 9.77 -0.01 0.02 -0.05 10687
-0.01 0.48 0.36 -0.84 9.78 -0.00 0.01 -0.06 10694
0.00 0.50 0.30 -0.86 9.72 -0.01 0.02 -0.06 10701
0.00 0.51 0.25 -0.86 9.79 -0.02 0.03 -0.06 10708
-0.01 0.50 0.19 -0.89 9.79 -0.02 0.04 -0.06 10716
0.01 0.48 0.21 -0.86 9.93 -0.02 0.06 -0.06 10723
0.01 0.53 0.28 -0.84 9.22 -0.02 0.08 -0.06 10730
0.01 0.54 0.33 -0.83 9.83 -0.01 0.10 -0.06 10737
0.02 0.53 0.36 -0.87 9.77 -0.00 0.10 -0.05 10744
0.01 0.51 0.39 -0.86 9.81 -0.00 0.11 -0.05 10752
-0.00 0.51 0.38 -0.85 9.72 0.01 0.10 -0.05 10759
0.00 0.48 0.22 -0.91 9.97 0.01 0.09 -0.06 10766
0.01 0.46 0.46 -0.88 9.79 0.02 0.09 -0.07 10773
0.02 0.43 0.42 -0.85 9.80 0.02 0.08 -0.07 10780
0.02 0.41 0.38 -0.87 9.81 0.02 0.08 -0.07 10787
0.01 0.38 0.42 -0.89 9.80 0.02 0.07 -0.07 10795
0.01 0.31 0.37 -0.83 9.84 0.02 0.07 -0.07 10802
0.00 0.30 0.39 -0.84 9.81 0.03 0.07 -0.07 10809
0.02 0.26 0.39 -0.84 9.78 0.03 0.08 -0.07 10816
0.04 0.23 0.41 -0.86 9.82 0.03 0.08 -0.07 10823
0.06 0.21 0.39 -0.88 9.82 0.03 0.08 -0.07 10830
0.07 0.20 0.41 -0.92 9.77 0.04 0.09 -0.07 10838
0.08 0.19 0.40 -0.88 9.80 0.04 0.09 -0.07 10845
0.09 0.10 0.45 -0.93 9.77 0.05 0.09 -0.07 10852
0.12 0.04 0.41 -0.92 9.80 0.05 0.09 -0.07 10859
0.12 0.04 0.43 -0.99 9.81 0.05 0.09 -0.07 10866
0.16 0.09 0.44 -0.94 9.81 0.05 0.09 -0.07 10873
0.16 0.05 0.43 -0.90 9.79 0.05 0.09 -0.07 10881
0.13 -0.00 0.43 -0.95 9.82 0.05 0.08 -0.07 10888
0.16 -0.01 0.37 -0.94 9.82 0.05 0.09 -0.07 10895
0.17 -0.01 0.53 -0.98 9.81 0.05 0.08 -0.07 10902
0.17 -0.00 0.49 -0.94 9.82 0.05 0.09 -0.06 10909
0.20 -0.01 0.46 -0.95 9.80 0.05 0.08 -0.07 10916
0.19 0.00 0.50 -1.00 9.81 0.05 0.09 -0.07 10924
0.19 -0.02 0.44 -0.94 9.78 0.05 0.10 -0.07 10931
0.19 -0.01 0.51 -0.99 9.80 0.05 0.10 -0.07 10938
0.24 0.00 0.51 -0.97 9.79 0.05 0.10 -0.07 10945
0.24 -0.00 0.51 -0.95 9.81 0.05 0.10 -0.07 10952
0.24 -0.00 0.49 -0.96 9.78 0.05 0.12 -0.07 10959
0.25 -0.01 0.50 -1.00 9.77 0.06 0.12 -0.08 10967
0.22 -0.02 0.52 -0.97 9.78 0.06 0.12 -0.08 10974
0.23 -0.02 0.48 -0.96 9.82 0.07 0.12 -0.07 10981
0.26 -0.00 0.52 -1.02 9.21 0.07 0.14 -0.08 10988
0.29 -0.01 0.51 -0.97 9.78 0.08 0.14 -0.08 10995
0.31 -0.02 0.49 -1.04 9.78 0.09 0.15 -0.08 11002
0.35 -0.02 0.54 -1.00 9.80 0.10 0.16 -0.08 11010
0.35 -0.02 0.55 -1.03 9.81 0.11 0.16 -0.07 11017
0.36 -0.02 0.59 -1.01 9.77 0.13 0.17 -0.08 11024
0.37 -0.01 0.60 -1.04 9.76 0.14 0.16 -0.08 11031
0.37 -0.02 1.21 -1.03 9.81 0.15 0.16 -0.09 11038
0.38 -0.02 0.59 -1.01 9.85 0.17 0.15 -0.09 11045
0.36 -0.03 0.63 -1.05 9.83 0.23 0.14 -0.10 11053
0.37 -0.02 0.63 -1.08 9.85 0.23 0.14 -0.11 11060
0.40 -0.02 0.66 -1.10 9.93 0.26 0.15 -0.12 11067
0.40 -0.02 0.68 -1.10 9.87 0.31 0.15 -0.13 11074
0.41 -0.02 0.66 -1.21 10.00 0.36 0.17 -0.13 11082
0.41 -0.02 0.67 -1.18 10.00 0.42 0.17 -0.14 11088
0.47 -0.03 0.70 -1.36 9.87 0.49 0.16 -0.16 11096
0.47 -0.02 0.58 -1.27 10.22 0.57 0.15 -0.16 11104
0.45 -0.03 0.82 -1.41 9.87 0.64 0.14 -0.16 11110
0.52 -0.03 0.63 -1.35 9.86 0.67 0.12 -0.17 11117
0.53 -0.03 0.71 -1.50 10.17 0.73 0.09 -0.18 11124
0.58 -0.03 0.66 -1.70 10.49 0.77 0.07 -0.19 11132
0.65 -0.03 0.57 -1.55 10.55 0.80 0.02 -0.19 11139
0.70 -0.03 0.59 -1.55 10.34 0.82 -0.02 -0.20 11146
0.76 -0.03 0.62 -1.77 10.55 0.86 -0.05 -0.20 11154
0.83 -0.03 0.64 -1.83 10.77 0.91 -0.06 -0.19 11161
0.87 -0.03 0.70 -1.80 10.79 0.97 -0.08 -0.18 11167
0.86 -0.04 0.61 -1.95 10.85 1.09 -0.10 -0.18 11175
0.91 -0.03 0.68 -1.97 10.57 1.17 -0.09 -0.18 11183
0.92 -0.03 0.48 -2.09 10.78 1.27 -0.08 -0.18 11190
0.94 -0.03 0.55 -2.27 10.85 1.37 -0.09 -0.16 11197
0.94 -0.04 0.23 -2.11 10.95 1.47 -0.10 -0.14 11204
0.94 -0.04 0.32 -2.34 10.45 1.57 -0.11 -0.13 11211
0.92 -0.05 0.48 -2.63 11.06 1.69 -0.14 -0.12 11218
0.91 -0.03 0.47 -2.57 11.79 1.80 -0.14 -0.10 11226
0.92 -0.04 0.47 -2.55 11.48 1.96 -0.14 -0.11 11233
0.92 -0.02 0.81 -3.03 11.54 2.10 -0.11 -0.13 11240
0.91 -0.03 0.80 -2.94 10.98 2.26 -0.08 -0.12 11247
0.81 -0.04 -0.01 -3.15 12.04 2.43 -0.02 -0.10 11254
0.73 -0.04 0.15 -3.19 12.86 2.62 0.04 -0.07 11261
0.57 -0.03 0.25 -3.44 12.43 2.87 0.13 -0.06 11269
0.40 -0.02 0.62 -3.84 12.53 3.08 0.25 -0.06 11276
0.29 -0.02 0.34 -4.16 12.88 3.32 0.33 -0.06 11283
0.21 -0.02 0.64 -4.91 12.97 3.54 0.46 -0.06 11290
0.14 -0.01 0.68 -5.31 13.62 3.70 0.55 -0.05 11296
0.09 -0.01 0.70 -6.22 14.65 3.84 0.66 -0.04 11303
0.05 -0.00 0.87 -7.28 16.25 3.93 0.81 -0.00 11311
0.03 -0.00 1.39 -7.89 17.32 3.97 0.97 0.03 11318
0.04 -0.00 1.54 -8.17 17.62 3.95 1.21 0.07 11325
0.03 -0.00 1.72 -7.89 16.69 3.91 1.41 0.10 11332
0.03 -0.00 1.71 -7.18 16.04 3.84 1.60 0.11 11339
0.01 -0.00 1.08 -6.43 15.68 3.73 1.74 0.13 11346
0.00 0.00 0.51 -6.45 15.73 3.55 1.82 0.15 11354
0.01 -0.00 0.22 -6.83 15.45 3.37 1.85 0.12 11361
0.04 -0.00 -0.97 -5.31 14.89 3.33 1.79 0.07 11368
0.03 -0.00 -0.98 -3.94 15.58 3.34 1.62 0.04 11375
0.01 -0.00 -1.79 -1.84 15.63 3.30 1.46 0.04 11382
0.00 0.00 -2.31 0.87 13.98 3.18 1.45 0.08 11389
0.00 0.00 -3.00 3.79 11.64 2.85 1.48 0.08 11397
0.00 0.00 -2.65 7.14 7.15 2.47 1.25 -0.16 11404
0.00 0.00 -4.99 14.49 6.74 1.78 0.67 -0.58 11411
0.00 0.00 -1.50 13.96 7.00 0.77 -0.22 -1.47 11418
0.00 0.00 -3.05 9.77 14.85 -0.35 -0.86 -1.90 11425
0.00 0.00 -2.86 7.13 14.33 -1.13 -0.60 -2.25 11432
0.00 0.00 -1.65 6.44 11.72 -1.30 -0.21 -2.70 11440
0.00 -0.00 -1.65 6.40 9.10 -1.33 -0.08 -3.02 11447
0.00 0.00 -2.00 6.81 7.75 -1.38 -0.03 -3.33 11454
0.00 0.00 -1.70 6.99 7.42 -1.45 -0.10 -3.56 11461
0.00 0.00 -1.16 6.71 7.62 -1.61 -0.27 -3.69 11468
0.00 0.00 -0.63 6.56 8.17 -1.83 -0.43 -3.76 11475
0.00 -0.00 -0.04 6.53 8.75 -2.13 -0.52 -3.75 11483
0.00 0.00 0.74 6.32 10.14 -2.46 -0.60 -3.66 11490
0.00 0.00 1.40 6.28 9.81 -2.74 -0.64 -3.49 11497
0.00 0.00 1.86 5.88 9.78 -3.07 -0.69 -3.31 11504
0.00 0.00 2.26 4.94 9.91 -3.36 -0.69 -3.06 11511
0.00 0.00 2.89 3.97 9.95 -3.59 -0.64 -2.80 11518
0.00 0.00 3.66 2.76 10.09 -3.79 -0.52 -2.55 11526
0.00 -0.00 4.36 1.71 10.22 -3.92 -0.35 -2.27 11533
0.00 0.00 4.79 0.93 10.06 -4.03 -0.19 -2.04 11540
0.00 0.00 4.95 -0.10 9.98 -4.07 -0.02 -1.78 11547
0.00 0.00 5.08 -0.86 10.38 -4.08 0.12 -1.53 11554
0.00 0.00 5.45 -1.77 10.93 -4.06 0.29 -1.32 11561
0.00 0.00 5.68 -2.68 11.61 -4.03 0.43 -1.08 11569
0.00 -0.00 5.84 -3.49 12.26 -3.96 0.54 -0.86 11576
0.00 0.00 6.00 -4.39 12.82 -3.87 0.69 -0.59 11583
0.00 0.00 6.23 -5.18 13.35 -3.77 0.82 -0.30 11590
0.00 0.00 6.25 -5.64 13.86 -3.64 0.98 -0.04 11597
0.00 0.00 6.21 -6.03 13.65 -3.52 1.15 0.24 11604
0.00 0.00 5.83 -6.41 14.15 -3.38 1.26 0.51 11612
0.00 0.00 5.47 -6.63 14.19 -3.23 1.35 0.75 11619
0.00 0.00 5.15 -6.69 13.87 -3.09 1.39 1.02 11626
0.00 0.00 4.77 -6.68 13.63 -2.90 1.38 1.24 11633
0.00 0.00 4.53 -6.63 13.48 -2.70 1.36 1.45 11640
0.00 0.00 4.55 -6.56 13.49 -2.52 1.38 1.64 11648
0.00 0.00 4.38 -6.57 13.54 -2.32 1.43 1.72 11655
0.00 0.00 4.25 -6.56 13.79 -2.14 1.55 1.79 11662
0.00 0.00 3.91 -6.68 13.89 -1.95 1.64 1.82 11669
0.00 0.00 3.24 -6.91 13.75 -1.74 1.74 1.82 11676
0.00 0.00 1.90 -7.69 15.03 -1.58 1.80 1.80 11683
0.00 0.00 1.17 -9.89 16.08 -1.40 1.94 1.77 11691
0.00 0.00 -0.37 -9.22 15.34 -1.24 2.07 1.70 11698
0.00 0.00 -1.94 -9.37 12.22 -1.06 1.57 1.56 11705
0.00 0.00 -1.66 -13.07 16.75 -0.78 0.70 1.36 11712
0.00 0.00 -5.04 -18.90 17.86 -0.33 0.21 1.25 11719
0.00 0.00 0.84 -3.97 1.87 0.05 -0.40 1.13 11726
0.00 0.00 1.48 -15.41 9.13 -0.14 -0.30 0.95 11734
0.00 0.00 -1.76 -14.97 14.30 -0.19 0.07 0.97 11741
0.00 0.00 -2.98 -14.89 14.14 -0.17 0.34 0.95 11748
0.00 0.00 4.20 -10.47 9.72 -0.26 0.75 0.84 11755
0.00 0.00 3.26 -11.91 15.23 -0.70 1.31 0.64 11762
0.00 0.00 -5.12 -23.16 18.14 -0.88 1.59 0.46 11769
0.00 0.00 0.06 -11.84 6.56 -0.91 1.32 0.41 11777
0.00 0.00 -5.03 -13.46 8.32 -1.10 1.46 0.41 11784
0.00 0.00 -8.48 -15.07 8.80 -0.96 1.14 0.58 11791
0.00 0.00 -8.60 -16.76 5.71 -0.88 0.66 0.74 11798
0.00 0.00 -7.42 -16.17 4.79 -0.49 0.09 0.95 11805
0.00 0.00 -6.03 -19.45 5.19 -0.20 -0.24 1.14 11812
0.00 0.00 -4.58 -22.09 3.21 0.25 -0.34 1.28 11820
0.00 -0.00 -7.44 -26.48 3.81 0.64 -0.74 1.40 11827
-0.00 0.01 -8.57 -34.01 1.18 1.03 -1.01 1.61 11834
-0.00 0.02 -13.08 -40.66 0.03 1.64 -1.49 2.02 11841
-0.01 0.07 -31.96 -8.33 52.19 2.26 -2.71 1.78 11849
-0.02 0.16 -4.12 -2.53 21.61 0.02 -1.26 0.23 11855
-0.03 0.26 -1.71 -0.54 8.82 -0.46 -0.09 -0.04 11863
-0.02 0.32 -2.78 0.08 10.04 -0.29 -0.27 -0.31 11871
-0.03 0.39 1.31 -1.05 9.92 -0.09 -0.15 -0.32 11877
-0.03 0.40 1.04 -1.09 10.34 -0.02 0.00 -0.08 11884
-0.04 0.40 -0.17 -1.25 10.00 -0.02 0.04 -0.02 11891
-0.01 0.37 -0.34 -0.80 9.76 -0.02 0.05 -0.05 11898
-0.00 0.37 0.19 -0.59 9.70 0.01 0.08 -0.05 11906
0.00 0.37 0.68 -0.85 9.80 0.01 0.08 -0.04 11913
-0.01 0.35 0.33 -0.76 9.79 0.01 0.07 -0.04 11920
0.01 0.31 0.23 -0.74 9.75 0.01 0.06 -0.05 11927
0.01 0.29 0.40 -0.87 9.77 0.01 0.05 -0.06 11934
0.02 0.27 0.51 -0.86 9.73 0.01 0.04 -0.06 11941
0.04 0.27 0.35 -0.77 9.75 -0.00 0.02 -0.07 11949
0.04 0.24 0.25 -0.79 9.72 -0.01 0.02 -0.08 11956
0.06 0.25 0.26 -0.76 9.69 -0.02 0.02 -0.09 11963
0.08 0.24 0.29 -0.75 9.67 -0.01 0.02 -0.10 11970
0.08 0.25 0.23 -0.80 9.81 -0.02 0.03 -0.10 11977
0.09 0.24 0.17 -0.77 9.86 -0.01 0.03 -0.09 11984
0.11 0.24 0.19 -0.77 9.83 -0.01 0.04 -0.09 11992
0.11 0.22 0.18 -0.80 9.77 -0.01 0.05 -0.08 11999
0.14 0.21 0.25 -0.80 9.82 0.00 0.05 -0.08 12006
0.16 0.17 0.26 -0.79 9.84 0.01 0.05 -0.08 12013
0.19 0.17 0.27 -0.78 9.85 0.01 0.05 -0.08 12020
0.18 0.17 1.54 -0.69 11.02 0.03 0.06 -0.08 12027
0.27 0.14 0.31 -0.81 9.88 0.03 0.05 -0.09 12035
0.31 0.06 0.36 -0.78 9.75 0.04 0.05 -0.08 12042
0.33 0.07 0.29 -0.81 9.83 0.04 0.05 -0.08 12049
0.36 0.00 0.34 -0.84 9.83 0.04 0.05 -0.09 12056
0.38 0.01 0.29 -0.84 9.86 0.05 0.05 -0.09 12063
0.40 0.01 0.26 -0.80 9.84 0.05 0.05 -0.09 12070
0.41 -0.02 0.27 -0.79 9.83 0.06 0.05 -0.08 12078
0.44 -0.02 0.27 -0.83 9.85 0.06 0.05 -0.07 12085
0.47 -0.03 0.30 -0.81 9.83 0.08 0.06 -0.07 12092
0.49 -0.02 0.24 -0.90 9.85 0.11 0.06 -0.07 12099
0.52 -0.01 0.26 -0.86 9.98 0.13 0.07 -0.06 12106
0.56 -0.01 0.19 -0.89 9.98 0.18 0.07 -0.06 12113
0.58 -0.02 0.17 -0.88 10.10 0.23 0.08 -0.06 12121
0.62 -0.03 0.17 -0.94 10.04 0.29 0.09 -0.06 12128
0.68 -0.04 0.22 -0.97 10.24 0.37 0.11 -0.06 12135
0.72 -0.03 0.38 -1.00 10.27 0.46 0.14 -0.07 12142
0.76 -0.02 0.23 -1.06 10.37 0.60 0.16 -0.07 12149
0.80 -0.03 0.38 -1.09 10.42 0.73 0.18 -0.07 12156
0.83 -0.04 0.37 -1.18 10.26 0.80 0.19 -0.07 12165
0.84 -0.04 0.40 -1.23 9.98 0.84 0.17 -0.07 12171
0.85 -0.03 0.31 -1.32 10.05 0.85 0.16 -0.07 12179
0.85 -0.03 0.39 -1.37 9.91 0.83 0.17 -0.08 12185
0.87 -0.02 0.41 -1.42 9.87 0.80 0.15 -0.08 12192
0.89 -0.03 0.47 -1.54 9.80 0.77 0.15 -0.09 12199
0.89 -0.04 0.35 -1.55 9.74 0.74 0.15 -0.09 12207
0.89 -0.03 0.47 -1.67 9.71 0.67 0.13 -0.10 12214
0.88 -0.03 0.49 -1.71 9.62 0.67 0.13 -0.10 12221
0.87 -0.03 0.49 -1.73 9.57 0.64 0.12 -0.11 12228
0.87 -0.02 0.48 -1.74 9.52 0.61 0.10 -0.12 12235
0.88 -0.03 0.50 -1.82 9.60 0.57 0.08 -0.13 12242
0.88 -0.04 0.52 -1.83 9.68 0.56 0.07 -0.14 12250
0.89 -0.04 0.49 -1.91 9.60 0.54 0.06 -0.14 12257
0.88 -0.04 0.42 -1.96 9.58 0.52 0.06 -0.15 12264
0.90 -0.04 0.02 -2.00 10.27 0.51 0.06 -0.15 12271
0.91 -0.03 0.38 -2.05 9.49 0.49 0.05 -0.15 12278
0.92 -0.03 0.42 -2.09 9.46 0.47 0.05 -0.14 12285
0.93 -0.04 0.40 -2.11 9.54 0.45 0.05 -0.14 12293
0.94 -0.04 0.34 -2.15 9.59 0.44 0.05 -0.15 12300
0.94 -0.04 0.45 -2.22 9.60 0.44 0.04 -0.14 12307
0.98 -0.04 0.42 -2.22 9.59 0.45 0.04 -0.15 12314
0.99 -0.03 0.40 -2.33 9.62 0.45 0.05 -0.15 12321
1.00 -0.04 0.40 -2.38 9.63 0.46 0.06 -0.15 12328
0.99 -0.03 0.41 -2.36 9.66 0.47 0.07 -0.15 12336
0.99 -0.04 0.39 -2.40 9.68 0.48 0.09 -0.15 12343
1.02 -0.04 0.38 -3.03 9.82 0.51 0.11 -0.16 12350
1.06 -0.03 0.36 -2.42 9.85 0.55 0.12 -0.16 12357
1.07 -0.04 0.40 -2.49 9.78 0.59 0.13 -0.16 12364
1.06 -0.04 0.36 -2.56 9.35 0.62 0.14 -0.16 12371
1.05 -0.04 0.40 -2.68 9.81 0.67 0.14 -0.15 12379
1.07 -0.04 0.43 -2.69 10.14 0.70 0.13 -0.14 12387
1.07 -0.04 0.49 -2.81 10.03 0.77 0.12 -0.14 12394
1.06 -0.04 0.40 -2.70 10.52 0.84 0.11 -0.15 12400
1.09 -0.05 0.45 -3.00 10.22 0.94 0.11 -0.15 12408
1.10 -0.05 0.35 -2.98 10.65 1.03 0.09 -0.15 12416
1.09 -0.05 0.28 -2.87 10.74 1.10 0.08 -0.15 12423
1.10 -0.04 0.54 -3.16 10.95 1.18 0.06 -0.13 12430
1.08 -0.04 0.49 -3.22 10.87 1.32 0.07 -0.14 12437
1.08 -0.04 0.11 -3.23 11.09 1.42 0.07 -0.13 12444
1.08 -0.04 0.57 -3.42 10.52 1.56 0.08 -0.13 12451
1.07 -0.04 0.24 -3.53 11.14 1.69 0.11 -0.13 12459
1.04 -0.05 0.92 -3.76 10.32 1.86 0.12 -0.13 12466
0.99 -0.04 0.44 -3.76 11.33 2.06 0.18 -0.14 12473
0.96 -0.03 0.06 -3.79 11.30 2.26 0.25 -0.16 12480
0.87 -0.03 -0.04 -3.98 13.10 2.51 0.32 -0.13 12487
0.77 -0.03 0.49 -4.38 13.35 2.79 0.50 -0.10 12494
0.65 -0.03 0.41 -4.33 12.77 3.16 0.62 -0.09 12502
0.48 -0.03 0.42 -4.79 13.45 3.45 0.67 -0.10 12509
0.29 -0.02 -0.53 -5.36 15.63 3.70 0.79 -0.03 12516
0.23 -0.02 -1.17 -6.00 16.06 3.98 0.81 0.08 12522
0.17 -0.02 -0.78 -7.06 16.86 4.17 0.73 0.21 12529
0.12 -0.01 0.12 -8.46 20.27 4.28 0.67 0.28 12536
0.07 -0.01 0.73 -9.77 19.69 4.28 0.86 0.36 12544
0.06 -0.01 1.65 -10.47 19.97 4.28 1.01 0.43 12552
0.03 -0.00 2.30 -10.65 20.40 4.28 1.15 0.43 12558
0.04 0.00 2.36 -10.19 19.99 4.28 1.21 0.37 12566
0.05 -0.00 2.18 -9.06 19.26 4.28 1.20 0.32 12572
0.06 -0.01 1.50 -8.05 18.91 4.23 1.16 0.21 12579
0.04 -0.00 0.95 -7.51 19.22 4.12 1.03 0.09 12587
0.00 0.00 0.32 -5.69 18.82 4.03 0.81 0.02 12594
0.00 0.00 0.69 -2.86 19.63 4.03 0.48 -0.06 12601
0.00 0.00 0.43 0.31 18.30 3.92 0.22 -0.11 12608
0.00 0.00 0.39 3.95 16.50 3.64 0.16 -0.06 12615
0.00 0.00 1.83 10.65 11.52 3.14 0.18 -0.05 12622
0.00 0.00 -0.80 15.14 5.38 2.48 0.00 -0.31 12630
0.00 0.00 -0.00 14.29 -0.22 1.49 -0.83 -1.03 12637
0.00 0.00 0.29 13.02 9.52 0.08 -1.43 -1.38 12644
0.00 0.00 0.49 9.70 12.49 -1.13 -1.38 -1.55 12651
0.00 0.00 0.61 6.19 10.64 -1.59 -1.10 -1.85 12658
0.00 0.00 0.11 5.07 7.75 -1.78 -0.89 -2.11 12665
0.00 0.00 -0.15 4.97 5.98 -1.83 -0.76 -2.36 12673
0.00 0.00 0.04 4.32 4.67 -1.82 -0.71 -2.60 12680
0.00 0.00 0.26 4.66 4.03 -1.79 -0.77 -2.78 12687
0.00 0.00 0.34 4.33 4.04 -1.81 -0.91 -2.93 12694
0.00 0.00 0.68 4.17 5.47 -1.86 -1.04 -3.00 12701
0.00 -0.00 1.54 4.09 6.00 -1.99 -1.16 -2.99 12708
0.00 0.00 2.45 4.45 7.50 -2.19 -1.16 -2.90 12716
0.00 0.00 3.16 4.93 8.29 -2.51 -1.07 -2.78 12723
0.00 0.00 3.51 5.08 8.99 -2.87 -0.96 -2.60 12730
0.00 -0.00 3.59 4.73 9.36 -3.30 -0.90 -2.38 12737
0.00 0.00 3.77 3.57 9.26 -3.69 -0.83 -2.15 12744
0.00 0.00 4.82 2.09 9.18 -3.95 -0.77 -1.88 12751
0.00 0.00 4.61 0.86 8.88 -4.12 -0.71 -1.67 12759
0.00 0.00 4.75 -0.34 8.73 -4.15 -0.64 -1.45 12766
0.00 0.00 4.86 -1.82 8.75 -4.14 -0.56 -1.25 12773
0.00 0.00 5.11 -1.97 9.15 -4.06 -0.42 -1.08 12780
0.00 0.00 5.47 -2.58 9.94 -3.93 -0.24 -0.89 12787
0.00 0.00 5.87 -3.02 11.61 -3.82 -0.02 -0.74 12794
0.00 0.00 6.39 -3.30 12.07 -3.78 0.33 -0.56 12802
0.00 0.00 6.62 -3.40 13.09 -3.82 0.68 -0.37 12809
0.00 0.00 6.47 -3.65 13.62 -3.91 1.11 -0.20 12816
0.00 0.00 5.93 -4.23 14.01 -4.01 1.52 0.02 12823
0.00 0.00 5.23 -4.96 13.55 -4.07 1.79 0.23 12830
0.00 0.00 4.53 -5.95 14.34 -4.06 1.98 0.47 12837
0.00 0.00 3.96 -6.90 14.54 -3.98 2.04 0.71 12845
0.00 0.00 3.32 -7.52 14.93 -3.79 1.99 0.91 12852
0.00 0.00 2.77 -8.06 15.13 -3.58 1.87 1.14 12859
0.00 0.00 2.56 -8.17 15.01 -3.33 1.75 1.30 12866
0.00 0.00 2.77 -7.92 14.72 -3.09 1.62 1.44 12873
0.00 0.00 2.90 -7.68 14.72 -2.93 1.48 1.52 12880
0.00 0.00 2.83 -7.64 14.66 -2.76 1.38 1.55 12888
0.00 0.00 2.87 -7.71 14.82 -2.58 1.28 1.56 12895
0.00 0.00 2.99 -7.80 14.95 -2.43 1.23 1.51 12902
0.00 0.00 2.88 -7.98 14.79 -2.24 1.20 1.50 12909
0.00 0.00 2.66 -8.13 14.49 -2.07 1.18 1.45 12916
0.00 0.00 2.42 -8.30 14.20 -1.85 1.16 1.39 12923
0.00 0.00 1.95 -8.63 13.83 -1.61 1.13 1.32 12931
0.00 0.00 1.56 -8.92 13.91 -1.39 1.12 1.24 12938
0.00 0.00 1.05 -9.21 14.19 -1.15 1.12 1.18 12945
0.00 0.00 0.51 -11.30 14.11 -0.99 1.11 1.12 12952
0.00 0.00 -4.09 -15.91 22.32 -0.34 1.25 1.27 12959
0.00 0.00 -1.88 -5.74 10.80 -0.36 0.84 1.22 12966
0.00 0.00 -3.77 -8.14 12.80 -0.67 0.69 1.02 12974
0.00 0.00 -1.91 -10.71 14.87 -0.95 0.79 0.96 12981
0.00 0.00 -1.72 -12.22 19.39 -1.07 0.98 0.91 12988
0.00 0.00 -1.95 -11.49 16.48 -1.35 1.13 0.67 12995
0.00 0.00 -1.72 -10.95 11.86 -1.65 1.42 0.47 13002
0.00 0.00 -2.00 -12.10 10.91 -1.92 1.58 0.23 13009
0.00 0.00 -2.41 -13.31 9.84 -2.07 1.70 -0.00 13017
0.00 0.00 -3.94 -16.43 10.11 -1.92 1.75 -0.26 13024
0.00 0.00 -4.79 -15.89 6.73 -1.58 1.69 -0.46 13031
0.00 0.00 -5.37 -15.95 3.80 -1.28 1.81 -0.55 13038
0.00 0.00 -7.81 -19.39 5.01 -0.87 1.71 -0.49 13045
0.00 0.00 -7.04 -18.73 1.97 -0.40 1.52 -0.38 13052
0.00 0.00 -10.60 -19.94 4.45 0.06 0.77 -0.23 13060
0.00 0.00 -9.40 -19.66 2.27 0.33 0.11 -0.06 13067
0.00 -0.00 -7.96 -18.84 2.20 0.56 -0.65 0.04 13074
0.00 0.00 -8.54 -20.01 5.39 0.85 -1.42 0.18 13081
0.00 0.00 -6.64 -20.00 5.40 1.18 -1.78 0.29 13088
0.00 0.00 -5.83 -20.08 5.24 1.54 -2.13 0.39 13095
0.00 0.00 -4.91 -19.92 5.75 1.93 -2.18 0.65 13103
-0.00 0.04 -2.65 -5.18 11.24 2.39 -1.80 0.98 13110
-0.01 0.05 -4.85 -0.87 14.03 2.58 -1.39 1.11 13117
-0.02 0.24 -8.72 0.43 21.48 2.64 -1.55 0.85 13125
-0.03 0.32 -9.04 -4.40 41.60 1.54 -2.86 0.13 13132
-0.03 0.34 -1.01 -2.34 12.13 -0.05 -0.47 -0.10 13138
-0.03 0.40 -1.36 -1.90 10.29 -0.22 -0.04 -0.14 13147
-0.02 0.44 0.13 -2.42 9.91 -0.14 -0.09 -0.15 13153
-0.03 0.47 0.84 -1.69 10.49 -0.07 -0.03 -0.04 13161
-0.03 0.46 0.22 -0.86 10.32 -0.03 0.04 0.02 13167
-0.03 0.43 -0.14 -0.96 10.01 -0.01 0.08 -0.02 13174
-0.03 0.47 0.29 -0.90 9.76 0.00 0.10 -0.02 13181
-0.01 0.48 0.46 -0.98 9.82 0.00 0.11 -0.01 13189
-0.01 0.47 0.42 -0.91 9.84 0.01 0.07 -0.00 13196
-0.01 0.43 0.45 -0.82 9.21 0.01 0.09 -0.01 13203
-0.01 0.43 0.51 -0.87 9.78 0.01 0.08 -0.02 13210
-0.01 0.38 0.52 -0.89 9.75 0.00 0.06 -0.04 13217
-0.02 0.41 0.46 -0.86 9.70 -0.01 0.04 -0.04 13224
-0.02 0.41 0.42 -0.84 9.76 -0.01 0.03 -0.05 13232
0.00 0.39 0.41 -0.83 9.69 -0.01 0.02 -0.05 13239
0.01 0.39 0.33 -0.84 9.65 -0.02 0.02 -0.05 13246
0.01 0.40 0.29 0.28 6.60 -0.02 0.03 -0.06 13253
0.01 0.42 0.33 -0.81 9.76 -0.03 0.04 -0.05 13260
0.01 0.44 0.31 -0.80 9.80 -0.02 0.06 -0.05 13267
0.02 0.45 0.35 -0.81 9.74 -0.01 0.07 -0.05 13275
0.03 0.46 0.33 -0.90 9.69 -0.00 0.08 -0.05 13282
0.03 0.46 0.36 -0.85 9.81 -0.00 0.08 -0.05 13289
0.04 0.42 0.39 -0.84 9.82 0.00 0.08 -0.05 13296
0.01 0.40 0.37 -0.86 9.84 0.01 0.08 -0.05 13303
0.03 0.38 0.38 -0.87 9.81 0.01 0.08 -0.06 13310
0.04 0.41 0.40 -0.86 9.83 0.01 0.08 -0.06 13318
0.04 0.38 0.43 -0.86 9.58 0.01 0.07 -0.06 13325
0.03 0.38 0.51 -0.94 9.88 0.01 0.07 -0.07 13332
0.04 0.34 0.37 -0.86 9.80 0.02 0.07 -0.07 13339
0.05 0.33 0.38 -0.81 9.83 0.02 0.07 -0.07 13346
0.07 0.32 0.34 -0.84 9.82 0.02 0.07 -0.07 13353
0.08 0.27 0.42 -0.83 9.83 0.03 0.07 -0.06 13361
0.09 0.24 0.40 -0.87 9.82 0.04 0.07 -0.06 13368
0.08 0.21 0.40 -0.88 9.78 0.03 0.07 -0.06 13375
0.07 0.15 0.42 -0.86 9.83 0.04 0.08 -0.06 13382
0.11 0.10 0.41 -0.90 9.80 0.04 0.08 -0.06 13389
0.13 0.11 0.42 -0.90 9.78 0.04 0.08 -0.06 13396
0.18 0.08 0.46 -0.88 9.81 0.04 0.08 -0.06 13404
0.17 0.05 0.39 -0.90 9.81 0.04 0.08 -0.07 13411
0.18 0.02 0.44 -0.89 9.83 0.04 0.07 -0.07 13418
0.16 0.01 0.47 -0.92 9.79 0.04 0.08 -0.07 13425
0.15 0.06 0.45 -0.90 9.82 0.04 0.08 -0.07 13432
0.16 0.02 0.45 -0.91 9.80 0.04 0.08 -0.06 13440
0.17 -0.00 0.47 -0.88 9.79 0.04 0.08 -0.07 13447
0.18 -0.00 0.46 -0.95 9.81 0.04 0.07 -0.07 13454
0.18 -0.02 0.46 -0.92 9.82 0.04 0.08 -0.07 13461
0.16 -0.00 0.47 -0.93 9.82 0.04 0.07 -0.07 13468
0.18 -0.00 0.49 -0.93 9.78 0.04 0.08 -0.07 13475
0.18 0.01 0.50 -0.94 9.79 0.04 0.07 -0.07 13483
0.20 -0.00 0.47 -0.90 9.78 0.04 0.07 -0.08 13490
0.22 -0.01 0.49 -0.95 9.78 0.04 0.05 -0.08 13497
0.22 -0.02 0.53 -0.93 9.78 0.04 0.04 -0.08 13504
0.22 -0.01 0.46 -0.92 9.79 0.04 0.03 -0.08 13511
0.25 -0.01 0.51 -0.97 9.81 0.04 0.02 -0.09 13518
0.28 -0.01 0.53 -0.94 9.74 0.04 0.01 -0.09 13526
0.32 -0.01 0.49 -0.97 9.82 0.04 0.00 -0.10 13533
0.32 -0.01 0.48 -0.96 9.81 0.05 -0.00 -0.10 13540
0.34 -0.02 0.45 -1.02 9.81 0.05 -0.00 -0.11 13547
0.39 -0.02 0.48 -0.98 9.85 0.06 -0.00 -0.11 13554
0.41 -0.02 0.46 -1.02 9.83 0.07 0.00 -0.12 13561
0.42 -0.02 0.43 -1.01 9.84 0.08 0.01 -0.12 13569
0.42 -0.02 0.53 -1.07 9.84 0.10 0.01 -0.12 13576
0.47 -0.02 0.48 -1.04 9.83 0.12 0.02 -0.13 13583
0.48 -0.02 0.49 -1.04 9.85 0.14 0.02 -0.13 13590
0.52 -0.03 0.48 -1.13 9.84 0.20 0.04 -0.14 13597
0.60 -0.02 0.46 -1.11 9.87 0.20 0.05 -0.15 13604
0.64 -0.03 0.44 -1.12 10.00 0.25 0.06 -0.16 13612
0.65 -0.03 0.32 -1.04 9.99 0.30 0.08 -0.16 13619
0.67 -0.03 0.49 -1.22 10.03 0.39 0.10 -0.16 13626
0.69 -0.03 0.42 -1.22 10.22 0.49 0.12 -0.15 13634
0.72 -0.03 0.44 -1.32 10.34 0.59 0.14 -0.15 13641
0.76 -0.02 0.52 -1.34 10.56 0.71 0.13 -0.16 13648
0.78 -0.03 0.54 -1.46 10.55 0.77 0.10 -0.16 13656
0.86 -0.04 0.49 -1.46 10.60 0.85 0.05 -0.17 13662
0.89 -0.04 0.48 -1.45 10.62 0.94 0.03 -0.18 13669
0.93 -0.04 0.43 -1.64 10.84 1.00 0.00 -0.17 13676
0.99 -0.04 0.39 -1.50 10.84 1.06 -0.01 -0.16 13683
1.02 -0.04 0.39 -1.70 10.92 1.12 -0.03 -0.16 13691
1.03 -0.04 0.30 -1.77 10.56 1.21 -0.02 -0.15 13699
1.03 -0.04 0.54 -1.89 10.48 1.28 -0.00 -0.13 13706
1.05 -0.05 0.24 -2.02 10.85 1.36 0.03 -0.13 13713
1.04 -0.05 0.32 -2.04 11.08 1.44 0.03 -0.12 13719
1.05 -0.04 0.45 -2.16 10.85 1.54 0.00 -0.11 13726
1.02 -0.04 0.41 -2.27 10.83 1.65 -0.02 -0.11 13734
1.02 -0.04 0.64 -2.48 10.92 1.76 -0.04 -0.12 13742
1.01 -0.04 1.18 -2.87 10.83 1.86 -0.09 -0.14 13749
0.99 -0.04 0.23 -2.47 11.81 2.01 -0.11 -0.15 13756
0.97 -0.03 0.98 -3.12 11.21 2.18 -0.11 -0.17 13763
0.92 -0.03 0.69 -2.99 11.73 2.32 -0.12 -0.17 13770
0.90 -0.03 0.25 -3.34 12.17 2.52 -0.10 -0.17 13777
0.82 -0.04 0.63 -3.13 12.02 2.73 -0.08 -0.15 13785
0.78 -0.03 0.85 -3.87 12.27 2.97 -0.07 -0.16 13792
0.68 -0.03 0.68 -3.39 11.19 3.19 -0.10 -0.20 13799
0.53 -0.02 0.36 -3.78 12.37 3.39 -0.02 -0.22 13806
0.47 -0.02 -0.39 -4.09 13.27 3.67 0.06 -0.20 13812
0.30 -0.02 -0.31 -4.64 13.67 3.93 0.19 -0.15 13820
0.21 -0.02 -0.57 -5.34 15.53 4.14 0.29 -0.08 13827
0.19 -0.02 -0.66 -6.55 17.51 4.26 0.39 -0.00 13834
0.16 -0.02 -0.03 -7.72 18.67 4.28 0.49 0.05 13841
0.16 -0.02 0.14 -8.76 19.34 4.28 0.55 0.10 13848
0.12 -0.00 0.27 -9.00 19.22 4.28 0.69 0.15 13855
0.12 -0.01 0.02 -7.98 18.97 4.28 0.81 0.18 13862
0.11 -0.01 -0.97 -8.15 18.21 4.28 0.78 0.18 13870
0.04 -0.00 -1.88 -7.68 18.18 4.28 0.63 0.20 13877
0.02 -0.00 -2.84 -7.14 19.42 4.28 0.40 0.24 13884
0.03 -0.00 -2.90 -6.58 19.62 4.22 -0.02 0.27 13891
0.01 -0.00 -2.31 -5.60 19.46 4.19 -0.41 0.32 13898
0.00 0.00 -1.52 -4.10 19.31 4.18 -0.88 0.35 13905
0.00 0.00 -1.28 -0.74 17.53 4.17 -1.26 0.44 13913
0.00 0.00 -0.87 4.69 8.53 4.05 -1.28 0.59 13920
0.00 0.00 1.76 5.83 7.79 3.49 -1.07 0.72 13927
0.00 0.00 2.01 9.26 5.04 3.00 -0.72 0.67 13934
0.00 0.00 -3.87 20.02 0.48 2.22 -0.50 0.09 13941
0.00 0.00 -0.02 14.41 5.20 1.31 -0.56 -1.00 13948
0.00 0.00 -0.48 9.32 16.40 0.06 -0.51 -1.44 13956
0.00 0.00 -2.58 7.01 14.77 -0.95 -0.12 -1.84 13963
0.00 0.00 -2.77 7.83 10.90 -1.39 0.19 -2.27 13970
0.00 0.00 -2.40 8.61 8.18 -1.74 0.19 -2.55 13977
0.00 -0.00 -2.36 7.96 6.56 -2.05 0.02 -2.78 13984
0.00 0.00 -1.98 6.73 6.59 -2.27 -0.09 -2.95 13991
0.00 0.00 -1.33 5.59 7.12 -2.47 -0.24 -3.06 13999
0.00 0.00 -0.96 5.04 7.53 -2.62 -0.42 -3.07 14006
0.00 0.00 -0.53 4.78 7.76 -2.78 -0.57 -3.01 14013
0.00 0.00 -0.02 4.26 8.15 -2.95 -0.72 -2.87 14020
0.00 -0.00 0.79 3.90 8.09 -3.09 -0.84 -2.71 14027
0.00 0.00 1.87 3.65 8.73 -3.30 -0.94 -2.58 14034
0.00 0.00 2.70 3.49 9.57 -3.50 -1.00 -2.42 14042
0.00 0.00 3.50 2.84 10.43 -3.72 -0.97 -2.25 14049
0.00 0.00 4.65 1.83 11.00 -3.96 -0.79 -2.01 14056
0.00 0.00 5.46 0.99 11.29 -4.14 -0.60 -1.75 14063
0.00 -0.00 6.06 0.34 11.36 -4.26 -0.38 -1.54 14070
0.00 0.00 6.02 -0.48 11.34 -4.28 -0.13 -1.31 14077
0.00 0.00 6.08 -1.45 11.36 -4.28 0.09 -1.11 14085
0.00 0.00 6.24 -2.55 11.48 -4.28 0.31 -0.88 14092
0.00 0.00 6.33 -3.83 11.80 -4.28 0.47 -0.67 14099
0.00 0.00 6.43 -4.94 12.14 -4.28 0.63 -0.49 14106
0.00 0.00 6.42 -6.00 12.67 -4.27 0.81 -0.29 14113
0.00 0.00 6.51 -6.61 12.90 -4.18 1.00 -0.11 14120
0.00 0.00 6.60 -6.95 13.60 -3.99 1.25 0.00 14128
0.00 0.00 6.39 -7.09 14.10 -3.82 1.52 0.12 14135
0.00 0.00 6.05 -7.10 14.63 -3.68 1.77 0.22 14142
0.00 0.00 5.52 -7.36 15.27 -3.55 2.03 0.35 14149
0.00 0.00 4.99 -7.53 15.95 -3.49 2.23 0.47 14156
0.00 0.00 4.32 -7.86 16.16 -3.37 2.39 0.60 14163
0.00 0.00 3.46 -8.32 16.65 -3.25 2.44 0.74 14171
0.00 0.00 2.49 -8.60 16.11 -3.09 2.42 0.84 14178
0.00 0.00 1.44 -8.95 15.54 -2.89 2.28 0.93 14185
0.00 0.00 0.86 -9.11 15.15 -2.70 2.12 1.00 14192
0.00 0.00 0.38 -9.06 14.68 -2.46 1.89 1.02 14199
0.00 0.00 0.40 -8.84 14.02 -2.25 1.69 1.02 14206
0.00 0.00 0.42 -8.64 13.42 -2.00 1.57 0.98 14214
0.00 0.00 0.46 -8.57 12.74 -1.74 1.47 0.92 14221
0.00 0.00 0.42 -8.59 12.47 -1.48 1.41 0.83 14228
0.00 -0.00 0.16 -8.67 12.46 -1.16 1.35 0.76 14235
0.00 0.00 -0.27 -8.84 12.73 -0.88 1.31 0.67 14242
0.00 0.00 -0.80 -8.92 12.90 -0.58 1.27 0.62 14249
0.00 0.00 -1.82 -11.13 13.37 -0.31 1.21 0.58 14257
0.00 0.00 1.67 -11.31 14.41 0.22 1.22 0.69 14264
0.00 0.00 -2.50 -8.13 10.60 0.10 0.91 0.62 14271
0.00 0.00 -1.23 -9.06 11.43 -0.06 0.88 0.50 14278
0.00 0.00 -0.12 -11.57 13.77 -0.25 1.01 0.45 14285
0.00 0.00 0.97 -12.28 14.30 -0.41 1.25 0.39 14292
0.00 0.00 1.08 -12.62 13.98 -0.54 1.62 0.30 14300
0.00 0.00 0.35 -11.85 11.88 -0.77 1.88 0.21 14307
0.00 0.00 -0.93 -11.45 10.66 -1.00 2.07 0.13 14314
0.00 0.00 -2.16 -11.57 9.28 -1.18 2.12 0.08 14321
0.00 0.00 -3.65 -11.70 8.70 -1.30 2.12 0.09 14328
0.00 0.00 -4.61 -12.24 8.12 -1.32 2.18 0.14 14336
0.00 0.00 -6.43 -14.36 9.18 -1.24 2.11 0.18 14343
0.00 0.00 -13.95 -19.11 15.87 -0.54 1.02 0.30 14350
0.00 0.00 -5.18 -12.68 0.37 -0.54 0.70 0.24 14357
0.00 0.00 -12.06 -19.92 4.24 -0.28 -0.22 0.19 14364
0.00 0.00 -6.75 -20.26 0.70 0.05 -1.14 0.21 14371
0.00 0.00 -4.15 -18.80 -0.50 0.29 -1.60 0.05 14379
0.00 0.00 -7.21 -20.44 6.68 0.88 -2.24 0.10 14386
0.00 0.00 -3.99 -20.94 4.01 1.19 -2.44 0.29 14393
-0.00 0.01 -6.02 -21.94 6.16 1.73 -2.66 0.67 14400
-0.00 0.03 -4.58 -11.31 9.68 2.36 -1.97 1.62 14407
-0.01 0.05 -2.64 2.11 12.26 2.61 -1.52 2.02 14414
-0.02 0.21 -14.25 -4.37 26.35 2.79 -1.99 1.81 14423
-0.03 0.34 -9.24 0.19 21.60 0.28 -1.61 0.50 14430
-0.03 0.38 -2.49 -2.14 10.53 -0.29 -0.09 -0.03 14437
-0.03 0.41 -2.91 -1.65 9.41 -0.21 -0.10 -0.33 14443
-0.03 0.44 1.02 -2.14 10.37 -0.10 -0.04 -0.36 14451
-0.03 0.47 2.38 -1.64 10.25 -0.06 0.03 -0.09 14458
-0.04 0.43 0.17 -0.99 10.24 -0.03 0.07 0.05 14465
-0.04 0.42 -0.50 -0.70 9.82 -0.01 0.08 -0.02 14472
0.00 0.44 0.26 -0.77 9.81 -0.00 0.12 -0.01 14479
0.01 0.46 0.86 -1.08 9.80 -0.01 0.11 0.02 14486
-0.02 0.40 0.41 -0.89 10.37 -0.00 0.09 0.01 14493
-0.01 0.39 0.35 -0.75 9.77 0.00 0.09 -0.01 14500
-0.02 0.40 0.51 -0.80 9.78 -0.01 0.07 -0.01 14508
-0.01 0.40 0.57 -0.81 9.74 -0.01 0.05 -0.02 14515
-0.02 0.38 0.49 -0.73 9.70 -0.02 0.03 -0.03 14522
-0.00 0.40 0.46 -0.70 9.56 -0.02 0.01 -0.04 14529
-0.01 0.42 0.44 -0.73 9.62 -0.03 0.00 -0.05 14536
-0.01 0.43 0.41 -0.73 9.66 -0.02 -0.01 -0.06 14543
-0.02 0.45 0.04 -0.72 9.60 -0.03 -0.01 -0.06 14551
0.00 0.45 0.26 -0.77 9.71 -0.03 0.00 -0.06 14558
0.01 0.46 0.28 -0.79 9.76 -0.04 0.01 -0.07 14565
0.02 0.48 0.14 -0.72 9.67 -0.03 0.02 -0.06 14572
-0.01 0.47 0.32 -0.75 9.83 -0.03 0.03 -0.05 14579
-0.01 0.45 0.31 -0.73 9.29 -0.02 0.04 -0.05 14586
-0.00 0.42 0.36 -0.76 9.81 -0.02 0.04 -0.06 14594
0.00 0.45 0.42 -0.75 9.80 -0.01 0.04 -0.06 14601
0.04 0.43 0.44 -0.77 9.83 -0.00 0.03 -0.06 14608
0.02 0.44 0.35 -0.77 9.85 -0.00 0.02 -0.07 14615
0.01 0.42 0.41 -0.82 9.21 0.01 0.01 -0.08 14622
0.04 0.39 0.41 -0.78 9.83 0.01 0.01 -0.08 14629
0.03 0.38 0.35 -0.80 9.64 0.01 0.01 -0.08 14637
0.04 0.39 0.34 -0.77 9.80 0.01 0.01 -0.09 14644
0.06 0.38 0.30 -0.75 9.90 0.02 0.02 -0.08 14651
0.04 0.32 0.33 -0.82 9.84 0.02 0.02 -0.08 14658
0.07 0.27 0.29 -0.79 9.82 0.02 0.03 -0.09 14665
0.08 0.25 0.32 -0.95 9.77 0.03 0.03 -0.08 14672
0.10 0.19 0.32 -0.79 9.83 0.04 0.03 -0.08 14680
0.12 0.17 0.35 -0.81 9.82 0.04 0.04 -0.08 14687
0.17 0.08 0.32 -0.85 9.80 0.04 0.04 -0.08 14694
0.20 0.10 0.36 -0.85 9.82 0.04 0.04 -0.07 14701
0.25 0.01 0.36 -0.81 9.79 0.05 0.04 -0.07 14708
0.24 0.01 0.35 -0.85 9.80 0.05 0.04 -0.07 14715
0.24 0.05 0.31 -0.81 9.82 0.05 0.04 -0.07 14723
0.28 0.04 0.35 -0.84 9.80 0.06 0.05 -0.07 14730
0.34 -0.02 0.32 -0.86 9.83 0.06 0.05 -0.07 14737
0.34 -0.01 0.33 -0.85 9.83 0.07 0.05 -0.06 14744
0.35 -0.02 0.29 -0.93 9.83 0.08 0.05 -0.06 14751
0.33 -0.03 0.37 -0.90 9.83 0.09 0.05 -0.07 14758
0.36 -0.01 0.39 -0.88 9.83 0.11 0.05 -0.07 14766
0.40 -0.02 0.32 -0.90 9.81 0.12 0.05 -0.07 14773
0.46 -0.02 0.40 -0.94 9.82 0.13 0.05 -0.08 14780
0.47 -0.02 0.38 -0.91 9.85 0.13 0.05 -0.08 14787
0.52 -0.03 0.41 -0.94 9.82 0.14 0.05 -0.09 14794
0.54 -0.02 0.42 -0.96 9.78 0.14 0.06 -0.09 14801
0.57 -0.02 0.45 -0.94 9.82 0.14 0.05 -0.10 14809
0.58 -0.02 0.41 -1.01 9.83 0.15 0.06 -0.11 14816
0.58 -0.03 0.42 -0.95 9.83 0.17 0.06 -0.11 14823
0.60 -0.03 0.40 -1.04 9.85 0.19 0.08 -0.12 14830
0.61 -0.03 0.41 -1.04 9.87 0.22 0.08 -0.13 14837
0.64 -0.03 0.40 -1.05 9.87 0.27 0.09 -0.13 14844
0.67 -0.02 0.36 -1.08 9.94 0.31 0.10 -0.14 14852
0.71 -0.03 0.40 -1.11 9.95 0.37 0.11 -0.14 14859
0.72 -0.03 0.42 -1.10 10.05 0.43 0.11 -0.14 14867
0.74 -0.04 0.41 -1.20 10.07 0.48 0.13 -0.14 14874
0.77 -0.03 0.41 -1.21 10.07 0.55 0.12 -0.14 14881
0.79 -0.03 0.40 -1.29 10.01 0.59 0.13 -0.15 14888
0.82 -0.02 0.50 -1.27 10.25 0.63 0.12 -0.15 14896
0.83 -0.03 0.59 -1.44 10.11 0.68 0.11 -0.16 14903
0.84 -0.04 0.58 -1.52 10.10 0.72 0.09 -0.17 14910
0.88 -0.05 0.65 -1.57 10.13 0.75 0.08 -0.18 14917
0.88 -0.02 0.55 -1.59 10.26 0.79 0.07 -0.19 14923
0.90 -0.02 0.66 -1.61 10.27 0.82 0.05 -0.21 14930
0.97 -0.02 0.55 -1.65 10.36 0.86 0.04 -0.21 14938
0.98 -0.03 0.57 -1.78 10.26 0.91 0.03 -0.24 14946
1.01 -0.04 0.56 -1.23 10.52 0.95 0.04 -0.24 14952
1.04 -0.05 0.44 -1.81 10.67 1.02 0.02 -0.25 14960
1.05 -0.04 0.44 -2.06 10.31 1.07 0.02 -0.24 14966
1.05 -0.04 0.28 -1.99 11.54 1.15 0.00 -0.24 14973
1.05 -0.04 0.36 -2.17 10.56 1.24 -0.01 -0.23 14982
1.08 -0.05 0.41 -2.17 11.17 1.33 -0.03 -0.22 14989
1.11 -0.04 0.04 -2.11 11.18 1.44 -0.02 -0.21 14996
1.11 -0.04 0.46 -2.67 10.80 1.52 -0.03 -0.20 15003
1.15 -0.05 0.56 -2.44 10.79 1.60 -0.04 -0.19 15010
1.15 -0.04 -0.03 -2.51 11.16 1.72 -0.04 -0.18 15017
1.16 -0.04 0.46 -2.80 10.98 1.82 -0.04 -0.18 15025
1.15 -0.05 0.82 -3.17 11.02 1.97 -0.00 -0.18 15032
1.10 -0.05 0.46 -2.92 10.95 2.12 0.07 -0.18 15039
1.03 -0.04 0.17 -3.38 11.93 2.33 0.18 -0.17 15046
0.96 -0.03 0.16 -3.21 11.80 2.58 0.31 -0.17 15053
0.86 -0.03 0.17 -3.49 12.18 2.79 0.37 -0.17 15060
0.76 -0.03 0.44 -3.55 12.62 3.10 0.55 -0.21 15068
0.57 -0.03 -0.36 -4.16 12.62 3.40 0.62 -0.18 15075
0.42 -0.02 -1.07 -4.55 15.29 3.66 0.73 -0.05 15082
0.30 -0.02 -1.32 -5.16 16.38 4.01 0.84 0.06 15088
0.18 -0.02 -1.03 -5.99 18.99 4.19 0.84 0.20 15095
0.15 -0.01 0.41 -7.55 19.30 4.26 0.78 0.28 15104
0.15 -0.01 1.28 -8.78 18.72 4.27 0.72 0.32 15111
0.15 -0.01 2.41 -9.50 21.16 4.28 0.77 0.31 15117
0.11 -0.01 2.19 -8.93 19.95 4.28 0.83 0.25 15124
0.06 -0.01 1.48 -8.74 19.62 4.27 0.82 0.18 15131
0.06 -0.01 0.89 -8.03 18.72 4.26 0.68 0.11 15138
0.06 -0.01 0.16 -6.72 18.29 4.24 0.47 0.03 15145
0.05 -0.01 -0.09 -6.74 19.06 4.08 0.20 -0.03 15153
0.01 -0.00 0.52 -5.11 17.44 3.84 -0.11 -0.06 15160
0.00 -0.00 1.43 -3.11 16.88 3.76 -0.32 -0.07 15167
0.01 -0.00 2.36 -1.10 16.92 3.81 -0.46 -0.08 15174
0.01 -0.00 2.54 1.70 15.45 3.75 -0.40 -0.08 15181
0.00 -0.00 2.91 6.62 14.28 3.49 -0.19 -0.15 15188
0.00 0.00 0.67 11.58 8.38 3.01 0.07 -0.49 15196
0.00 0.00 -2.22 12.86 3.02 2.33 -0.02 -1.41 15203
0.00 0.00 0.45 13.03 7.09 1.09 -0.47 -1.99 15210
0.00 0.00 -0.62 10.93 10.96 -0.18 -0.55 -2.32 15217
0.00 0.00 -0.33 7.45 11.78 -0.79 -0.27 -2.63 15224
0.00 -0.00 -0.02 5.94 9.79 -1.19 -0.11 -2.90 15232
0.00 0.00 -0.60 5.75 7.06 -1.38 -0.14 -3.14 15239
0.00 0.00 -0.67 5.68 5.31 -1.49 -0.19 -3.27 15246
0.00 0.00 -0.28 5.25 4.58 -1.56 -0.31 -3.39 15253
0.00 0.00 0.07 4.67 4.63 -1.62 -0.48 -3.45 15260
0.00 0.00 0.58 4.26 5.02 -1.69 -0.61 -3.43 15267
0.00 0.00 1.22 4.06 6.83 -1.77 -0.69 -3.33 15275
0.00 0.00 1.78 4.10 6.86 -1.91 -0.71 -3.17 15282
0.00 0.00 2.48 4.31 7.57 -2.13 -0.71 -3.00 15289
0.00 0.00 2.90 4.79 8.41 -2.39 -0.73 -2.76 15296
0.00 0.00 3.23 4.72 8.96 -2.74 -0.68 -2.52 15303
0.00 0.00 3.83 4.13 9.37 -3.08 -0.53 -2.21 15310
0.00 0.00 4.45 3.27 9.73 -3.41 -0.34 -1.90 15318
0.00 0.00 4.98 2.37 9.68 -3.72 -0.12 -1.63 15325
0.00 0.00 5.09 1.13 9.60 -3.92 0.11 -1.34 15332
0.00 0.00 5.00 0.26 9.36 -4.06 0.33 -1.12 15339
0.00 0.00 4.88 -0.75 9.23 -4.10 0.56 -0.88 15346
0.00 0.00 4.79 -1.85 9.54 -4.08 0.72 -0.66 15353
0.00 0.00 4.59 -2.77 9.83 -4.02 0.87 -0.48 15361
0.00 0.00 4.52 -3.64 10.75 -3.91 0.97 -0.29 15368
0.00 0.00 4.33 -4.24 11.60 -3.77 1.04 -0.11 15375
0.00 0.00 4.26 -4.78 12.39 -3.64 1.13 0.01 15382
0.00 0.00 4.21 -5.26 13.33 -3.58 1.26 0.16 15389
0.00 0.00 3.99 -5.69 14.12 -3.55 1.38 0.27 15396
0.00 0.00 3.69 -6.32 14.64 -3.56 1.55 0.41 15404
0.00 0.00 3.33 -7.34 15.07 -3.59 1.69 0.56 15411
0.00 0.00 2.70 -7.16 15.29 -3.57 1.82 0.67 15418
0.00 0.00 2.13 -7.59 15.17 -3.52 1.88 0.83 15425
0.00 0.00 1.73 -7.90 14.97 -3.40 1.89 0.96 15432
0.00 0.00 1.54 -8.07 14.89 -3.22 1.85 1.09 15439
0.00 0.00 1.31 -8.17 14.74 -3.07 1.80 1.17 15447
0.00 0.00 1.12 -8.43 14.53 -2.90 1.73 1.21 15454
0.00 0.00 0.86 -8.43 14.10 -2.75 1.66 1.21 15461
0.00 0.00 0.62 -8.27 13.78 -2.57 1.61 1.19 15468
0.00 0.00 0.48 -7.98 13.49 -2.37 1.54 1.15 15475
0.00 0.00 0.45 -7.70 13.32 -2.19 1.52 1.11 15482
0.00 0.00 0.37 -7.63 13.14 -1.97 1.51 1.08 15490
0.00 0.00 0.25 -7.60 12.81 -1.78 1.50 1.03 15497
0.00 0.00 0.06 -7.69 12.50 -1.54 1.47 0.94 15504
0.00 0.00 -0.11 -7.90 12.30 -1.28 1.42 0.93 15511
0.00 0.00 -0.30 -8.20 12.20 -1.05 1.35 0.88 15518
0.00 0.00 -0.59 -8.45 12.43 -0.80 1.24 0.84 15525
0.00 0.00 -1.15 -8.84 12.72 -0.56 1.11 0.80 15533
0.00 0.00 -1.62 -8.95 13.29 -0.40 0.97 0.77 15540
0.00 0.00 -2.05 -9.41 13.73 -0.28 0.81 0.72 15547
0.00 0.00 -1.82 -9.87 14.19 -0.26 0.72 0.67 15554
0.00 0.00 -1.27 -10.26 13.57 -0.33 0.73 0.59 15561
0.00 0.00 -0.30 -10.45 13.74 -0.51 0.88 0.50 15568
0.00 0.00 0.49 -10.52 12.72 -0.73 1.14 0.40 15576
0.00 0.00 0.82 -10.53 11.97 -0.99 1.58 0.33 15583
0.00 0.00 0.12 -10.54 10.70 -1.20 2.13 0.33 15590
0.00 0.00 -1.13 -10.89 9.65 -1.36 2.58 0.40 15597
0.00 0.00 -3.23 -11.91 9.18 -1.37 2.93 0.55 15604
0.00 0.00 -5.57 -13.63 8.55 -1.27 2.96 0.73 15611
0.00 0.00 -9.24 -16.32 7.87 -1.03 2.61 0.86 15619
0.00 0.00 -14.83 -19.85 11.73 -0.50 1.46 1.05 15626
0.00 0.00 -9.48 -15.56 0.21 -0.24 0.74 1.06 15633
0.00 0.00 -12.11 -19.38 3.94 0.00 -0.35 0.96 15640
0.00 0.00 -10.67 -22.97 5.97 0.13 -1.28 0.75 15647
0.00 0.00 -8.16 -21.47 5.18 0.50 -1.79 0.51 15654
0.00 0.00 -7.02 -21.79 3.88 0.67 -1.98 0.17 15662
0.00 0.00 -6.97 -23.11 3.27 0.98 -2.19 0.02 15669
0.00 0.00 -9.26 -22.93 5.70 1.53 -2.57 0.07 15676
-0.00 0.02 -2.24 -4.74 12.71 2.16 -1.80 0.47 15683
-0.00 0.05 -3.06 3.23 15.46 2.41 -1.34 0.68 15690
-0.02 0.19 -6.78 1.17 21.79 2.20 -1.64 0.61 15697
-0.02 0.29 -6.13 -2.17 30.06 1.33 -2.71 0.03 15706
-0.03 0.32 -0.68 -2.19 14.75 -0.02 -0.92 -0.14 15712
-0.04 0.38 -2.00 -2.00 10.27 -0.22 -0.09 -0.13 15719
-0.03 0.39 -0.19 -2.11 10.22 -0.16 -0.11 -0.20 15727
-0.03 0.40 0.95 -1.75 10.32 -0.09 -0.11 -0.17 15734
-0.03 0.41 0.71 -0.79 10.12 -0.05 -0.04 -0.02 15741
-0.03 0.38 0.08 -0.68 10.09 -0.02 0.00 -0.01 15748
-0.04 0.41 0.05 -0.73 9.79 -0.01 0.04 -0.03 15755
-0.03 0.38 0.38 -0.73 9.79 -0.00 0.05 -0.02 15762
-0.02 0.37 0.52 -0.80 9.85 -0.01 0.06 -0.01 15769
-0.02 0.36 0.42 -0.77 9.80 -0.01 0.06 -0.01 15776
-0.03 0.36 0.44 -0.67 9.70 -0.02 0.06 -0.02 15783
-0.01 0.33 0.51 -0.73 9.78 -0.02 0.05 -0.03 15791
-0.02 0.35 0.47 -0.70 9.63 -0.03 0.04 -0.03 15798
-0.01 0.37 0.50 -0.70 9.68 -0.03 0.02 -0.04 15805
0.01 0.39 0.27 -0.64 9.70 -0.03 0.02 -0.05 15812
-0.00 0.38 0.46 -0.63 9.76 -0.03 0.01 -0.06 15819
0.00 0.42 0.06 -0.59 9.66 -0.04 0.01 -0.07 15826
0.01 0.40 0.39 -0.73 9.80 -0.04 0.01 -0.07 15834
-0.00 0.44 0.33 -0.70 9.87 -0.04 0.02 -0.07 15841
0.00 0.48 0.32 -0.68 9.89 -0.04 0.03 -0.07 15848
0.02 0.47 0.30 -0.64 9.83 -0.03 0.03 -0.07 15855
0.02 0.47 0.33 -0.63 9.87 -0.03 0.04 -0.06 15862
0.05 0.49 0.40 -0.61 9.79 -0.02 0.05 -0.06 15869
0.05 0.48 0.38 -0.65 9.24 -0.02 0.04 -0.06 15877
0.03 0.50 0.36 -0.68 9.77 -0.01 0.04 -0.06 15884
0.02 0.49 0.42 -0.63 9.80 -0.00 0.03 -0.06 15891
0.04 0.47 0.42 -0.66 9.82 0.00 0.03 -0.07 15898
0.01 0.44 0.45 -0.65 9.86 0.01 0.03 -0.07 15905
0.02 0.43 0.42 -0.70 9.81 0.01 0.02 -0.08 15912
0.05 0.41 0.42 -0.71 9.82 0.02 0.02 -0.08 15920
0.06 0.39 0.41 -0.67 9.83 0.02 0.02 -0.08 15927
0.07 0.37 0.36 -0.72 9.88 0.02 0.02 -0.08 15934
0.08 0.28 0.36 -0.68 9.89 0.02 0.02 -0.08 15941
0.07 0.29 0.36 -0.67 9.88 0.03 0.02 -0.08 15948
0.09 0.23 0.41 -0.68 9.84 0.02 0.02 -0.08 15955
0.10 0.21 0.35 -0.72 9.82 0.03 0.03 -0.08 15963
0.14 0.20 0.34 -0.69 9.82 0.02 0.02 -0.08 15970
0.15 0.20 0.33 -0.69 9.76 0.02 0.02 -0.08 15977
0.17 0.17 0.37 -0.67 9.82 0.02 0.03 -0.08 15984
0.16 0.16 0.39 -0.73 9.81 0.02 0.03 -0.08 15991
0.17 0.08 0.39 -0.74 9.82 0.01 0.03 -0.08 15998
0.16 0.09 0.36 -0.70 9.81 0.01 0.03 -0.08 16006
0.16 0.08 0.37 -0.66 9.83 0.01 0.03 -0.08 16013
0.19 0.09 0.39 -0.71 9.78 0.01 0.03 -0.08 16020
0.20 0.08 0.38 -0.74 9.79 0.02 0.03 -0.09 16027
0.22 0.07 0.37 -0.69 9.79 0.02 0.03 -0.09 16034
0.23 0.01 0.36 -0.72 9.82 0.01 0.03 -0.09 16041
0.25 0.01 0.35 -0.71 9.78 0.01 0.04 -0.09 16049
0.26 0.03 0.36 -0.72 9.77 0.01 0.04 -0.09 16056
0.27 0.03 0.35 -0.73 9.78 0.01 0.04 -0.09 16063
0.26 0.05 0.35 -0.70 9.82 0.01 0.05 -0.08 16070
0.26 0.05 0.38 -0.77 9.81 0.01 0.04 -0.09 16077
0.28 0.04 0.37 -0.76 9.82 0.01 0.05 -0.09 16084
0.30 0.04 0.39 -0.70 9.83 0.02 0.05 -0.09 16092
0.30 0.05 0.35 -0.72 9.83 0.03 0.05 -0.09 16099
0.32 0.02 0.38 -0.78 9.82 0.03 0.04 -0.09 16106
0.32 0.01 0.40 -0.77 9.78 0.03 0.04 -0.10 16113
0.35 -0.02 0.37 -0.72 9.81 0.03 0.05 -0.10 16120
0.35 -0.02 0.41 -0.78 9.83 0.04 0.05 -0.11 16128
0.37 -0.00 0.44 -0.66 9.84 0.05 0.04 -0.11 16135
0.42 -0.01 0.28 -0.72 9.82 0.06 0.04 -0.11 16142
0.48 -0.01 0.44 -0.83 9.86 0.07 0.05 -0.11 16149
0.51 -0.02 0.34 -0.82 9.88 0.09 0.04 -0.12 16156
0.52 -0.03 0.40 -0.85 9.92 0.12 0.04 -0.12 16163
0.55 -0.03 0.47 -0.88 9.90 0.15 0.04 -0.13 16171
0.60 -0.02 0.46 -0.82 9.91 0.21 0.04 -0.14 16178
0.65 -0.02 0.51 -0.89 10.09 0.26 0.03 -0.15 16185
0.71 -0.03 0.51 -0.86 10.19 0.35 0.02 -0.17 16192
0.73 -0.03 0.64 -0.97 10.30 0.44 0.01 -0.20 16199
0.81 -0.04 0.52 -0.95 10.42 0.58 -0.00 -0.21 16206
0.87 -0.03 0.52 -1.05 10.73 0.76 -0.01 -0.22 16215
0.94 -0.02 0.43 -1.13 11.18 0.94 -0.02 -0.23 16222
0.98 -0.03 0.42 -1.16 11.53 1.13 -0.04 -0.23 16229
1.00 -0.03 0.50 -1.24 10.91 1.22 -0.05 -0.22 16235
1.10 -0.04 0.41 -1.39 10.88 1.27 -0.08 -0.21 16243
1.15 -0.05 0.30 -1.48 10.99 1.30 -0.13 -0.19 16250
1.19 -0.05 0.26 -1.49 10.84 1.34 -0.16 -0.17 16258
1.21 -0.03 0.28 -1.54 11.42 1.40 -0.16 -0.16 16265
1.28 -0.05 0.08 -1.64 11.30 1.50 -0.13 -0.15 16272
1.35 -0.05 0.26 -1.80 11.34 1.60 -0.11 -0.13 16279
1.37 -0.06 0.18 -2.05 11.03 1.72 -0.10 -0.14 16286
1.37 -0.05 0.30 -2.22 10.55 1.81 -0.09 -0.14 16293
1.36 -0.04 0.31 -2.30 10.91 1.91 -0.09 -0.15 16301
1.38 -0.04 0.35 -2.37 10.91 2.01 -0.07 -0.16 16308
1.39 -0.05 0.33 -2.56 11.31 2.11 -0.06 -0.17 16315
1.38 -0.05 0.21 -2.41 11.12 2.24 -0.05 -0.18 16322
1.34 -0.06 0.32 -3.04 11.64 2.38 -0.00 -0.19 16329
1.29 -0.05 0.03 -3.51 12.09 2.58 0.03 -0.19 16336
1.23 -0.04 0.57 -3.12 11.90 2.82 0.09 -0.21 16344
1.17 -0.04 1.06 -3.62 11.84 3.01 0.14 -0.26 16351
1.07 -0.05 0.59 -3.52 11.99 3.26 0.27 -0.29 16358
0.86 -0.03 -1.25 -3.42 13.09 3.53 0.33 -0.25 16365
0.69 -0.04 -0.70 -4.28 14.83 3.83 0.46 -0.18 16372
0.44 -0.02 0.14 -4.79 15.35 4.14 0.51 -0.12 16379
0.29 -0.02 -0.02 -5.36 16.83 4.27 0.44 -0.07 16387
0.22 -0.02 0.46 -6.38 18.02 4.28 0.36 -0.04 16393
0.20 -0.02 -0.03 -7.75 20.00 4.28 0.35 -0.02 16400
0.13 -0.01 0.24 -9.62 20.67 4.28 0.38 0.03 16407
0.07 -0.01 0.35 -9.93 22.49 4.28 0.44 0.08 16414
0.07 -0.01 -0.07 -9.64 19.94 4.28 0.45 0.09 16421
0.06 -0.01 -0.56 -8.63 19.97 4.27 0.33 0.05 16429
0.07 -0.01 -1.81 -7.68 19.92 4.17 0.01 0.01 16436
0.04 -0.00 -1.74 -6.91 18.92 3.95 -0.41 -0.04 16443
0.04 -0.00 -0.41 -4.92 17.35 3.73 -0.93 -0.05 16450
0.01 -0.00 1.30 -2.00 15.35 3.63 -1.24 -0.04 16457
0.00 -0.00 2.39 -0.11 15.65 3.63 -1.33 -0.02 16464
0.01 -0.00 2.60 1.69 15.33 3.79 -1.40 -0.02 16472
0.03 -0.00 1.54 4.52 13.35 3.84 -1.24 -0.05 16479
0.00 0.00 1.91 10.27 9.47 3.56 -1.05 -0.33 16486
0.00 0.00 -1.18 12.03 4.91 2.98 -0.90 -1.13 16493
0.00 0.00 1.78 12.24 5.78 1.84 -1.01 -1.67 16500
0.00 0.00 0.06 12.32 9.29 0.52 -0.92 -2.08 16507
0.00 0.00 0.41 8.62 12.02 -0.23 -0.34 -2.48 16515
0.00 -0.00 1.17 6.48 11.02 -0.80 -0.05 -2.78 16522
0.00 0.00 0.17 6.35 8.26 -1.16 0.10 -3.02 16529
0.00 0.00 -0.37 6.57 6.38 -1.38 0.19 -3.15 16536
0.00 0.00 -0.05 6.39 5.42 -1.59 0.21 -3.25 16543
0.00 0.00 0.20 5.71 5.39 -1.75 0.11 -3.27 16550
0.00 0.00 0.42 5.06 5.77 -1.92 0.06 -3.25 16558
0.00 0.00 0.89 4.57 7.58 -2.08 0.01 -3.15 16565
0.00 0.00 0.97 4.18 7.01 -2.22 0.00 -3.00 16572
0.00 0.00 1.26 4.08 7.27 -2.44 -0.02 -2.84 16579
0.00 0.00 1.67 4.03 7.83 -2.65 -0.09 -2.64 16586
0.00 0.00 2.14 3.82 8.40 -2.93 -0.12 -2.45 16593
0.00 0.00 2.65 3.17 8.69 -3.20 -0.09 -2.21 16601
0.00 0.00 3.30 2.34 9.32 -3.41 0.02 -1.95 16608
0.00 0.00 3.98 1.65 9.83 -3.63 0.19 -1.74 16615
0.00 0.00 4.33 0.94 9.92 -3.80 0.40 -1.49 16622
0.00 0.00 4.43 0.21 9.59 -3.96 0.61 -1.28 16629
0.00 0.00 4.26 -0.67 9.46 -4.06 0.83 -1.09 16636
0.00 0.00 4.16 -1.64 9.63 -4.09 1.02 -0.89 16644
0.00 0.00 4.15 -2.41 10.14 -4.07 1.12 -0.71 16651
0.00 0.00 4.15 -3.28 11.20 -4.01 1.26 -0.50 16658
0.00 0.00 4.00 -3.93 11.95 -3.90 1.37 -0.29 16665
0.00 0.00 3.80 -4.45 12.38 -3.78 1.50 -0.11 16672
0.00 0.00 3.55 -4.98 13.00 -3.70 1.61 0.06 16679
0.00 -0.00 3.22 -5.32 13.43 -3.63 1.77 0.21 16687
0.00 0.00 2.83 -5.88 13.87 -3.57 1.95 0.37 16694
0.00 0.00 2.21 -6.34 14.21 -3.52 2.06 0.53 16701
0.00 0.00 1.61 -6.69 14.34 -3.43 2.15 0.67 16708
0.00 0.00 1.06 -6.85 14.39 -3.34 2.16 0.84 16715
0.00 0.00 0.64 -6.88 14.28 -3.18 2.10 0.97 16722
0.00 0.00 0.45 -6.74 14.18 -2.99 1.98 1.12 16730
0.00 0.00 0.31 -6.66 14.09 -2.84 1.86 1.21 16737
0.00 0.00 0.20 -6.72 13.92 -2.64 1.74 1.24 16744
0.00 0.00 0.15 -6.94 13.90 -2.47 1.63 1.25 16751
0.00 0.00 0.18 -7.10 13.78 -2.27 1.57 1.21 16758
0.00 0.00 0.18 -7.00 13.58 -2.06 1.52 1.15 16765
0.00 0.00 0.11 -6.84 13.24 -1.88 1.49 1.08 16773
0.00 0.00 0.06 -7.04 13.16 -1.64 1.46 1.03 16780
0.00 0.00 0.21 -7.32 13.35 -1.40 1.45 1.00 16787
0.00 0.00 0.53 -7.58 13.87 -1.20 1.50 0.94 16794
0.00 0.00 0.72 -8.04 14.25 -0.99 1.62 0.94 16801
0.00 0.00 0.65 -8.46 14.73 -0.86 1.75 0.92 16808
0.00 0.00 0.23 -8.82 15.15 -0.76 1.86 0.91 16816
0.00 0.00 -0.38 -9.13 15.93 -0.73 1.92 0.90 16823
0.00 0.00 -0.80 -9.36 16.27 -0.78 1.91 0.91 16830
0.00 0.00 -1.14 -9.66 16.17 -0.91 1.89 0.92 16837
0.00 0.00 -1.43 -10.10 15.97 -1.06 1.87 0.93 16844
0.00 0.00 -1.76 -10.52 15.30 -1.29 1.83 0.94 16851
0.00 0.00 -2.22 -10.86 14.33 -1.56 1.79 0.93 16859
0.00 0.00 -2.74 -11.22 12.59 -1.77 1.77 0.93 16866
0.00 0.00 -3.41 -11.66 11.35 -1.95 1.82 0.96 16873
0.00 0.00 -4.18 -12.48 10.02 -2.03 1.88 1.03 16880
0.00 0.00 -5.05 -13.53 8.88 -2.00 1.87 1.10 16887
0.00 0.00 -5.93 -15.07 8.26 -1.86 1.67 1.15 16894
0.00 0.00 -6.32 -16.58 6.92 -1.69 1.26 1.13 16902
0.00 0.00 -5.97 -17.62 5.68 -1.47 0.88 1.07 16909
0.00 0.00 -6.07 -21.37 4.08 -1.23 0.54 0.97 16916
0.00 0.00 -11.21 -22.14 11.75 -0.25 -0.40 0.98 16923
0.00 0.00 -2.72 -18.63 -4.87 -0.32 -0.36 0.78 16930
0.00 0.00 -9.38 -23.63 8.97 0.36 -1.09 0.67 16937
0.00 0.00 -3.02 -21.91 4.50 0.94 -1.19 0.70 16945
0.00 0.00 -2.89 -19.19 0.74 1.39 -1.27 0.70 16952
0.00 0.00 -4.13 -21.35 4.83 1.81 -1.49 1.01 16959
0.00 0.00 -3.34 -13.52 6.74 2.19 -1.68 1.63 16966
-0.00 0.02 0.41 6.33 9.17 2.36 -0.92 2.06 16973
-0.01 0.09 -2.98 -4.10 15.64 2.58 -0.51 2.32 16980
-0.02 0.29 -9.70 1.17 13.43 2.73 -0.83 2.13 16989
-0.03 0.36 -13.14 -1.80 14.96 2.90 -1.21 1.24 16996
-0.04 0.41 -10.31 -4.38 17.87 2.95 -1.25 0.44 17003
-0.03 0.44 -4.98 -7.02 39.46 2.99 -1.30 -0.26 17010
-0.03 0.44 0.46 -1.95 13.60 0.39 -1.13 -0.45 17017
-0.03 0.46 2.00 -2.28 11.21 -0.09 -0.27 -0.17 17025
-0.04 0.47 1.56 -1.83 9.43 -0.13 -0.02 -0.06 17031
-0.03 0.45 0.72 -1.33 10.02 -0.00 -0.09 0.03 17038
-0.04 0.51 0.39 -0.83 10.07 0.04 -0.06 0.05 17045
-0.02 0.48 0.05 -0.83 9.82 0.02 -0.01 0.01 17052
-0.03 0.50 0.36 -1.04 9.76 -0.00 0.01 -0.01 17059
-0.03 0.47 0.77 -1.01 9.76 0.00 0.00 -0.01 17067
-0.03 0.42 0.56 -0.91 9.75 0.00 -0.00 -0.01 17074
-0.01 0.48 0.47 -0.90 9.86 0.00 0.00 -0.04 17081
-0.01 0.49 0.52 -0.95 9.75 -0.00 -0.01 -0.05 17088
-0.01 0.49 0.57 -0.97 9.81 0.00 -0.01 -0.05 17095
0.02 0.47 0.37 -0.84 9.75 0.00 -0.00 -0.06 17102
0.01 0.46 0.38 -0.88 9.83 0.00 0.02 -0.07 17110
0.04 0.46 0.37 -0.95 9.80 0.00 0.05 -0.07 17117
0.04 0.46 0.40 -0.95 9.82 0.01 0.06 -0.06 17124
0.05 0.43 0.38 -0.81 9.80 0.02 0.07 -0.05 17131
0.06 0.43 0.46 -0.86 9.82 0.03 0.08 -0.05 17138
0.09 0.39 0.42 -0.93 9.78 0.03 0.08 -0.05 17145
0.07 0.28 0.48 -0.97 9.81 0.04 0.09 -0.04 17153
0.07 0.27 0.59 -0.95 9.81 0.04 0.08 -0.05 17160
0.05 0.23 0.59 -0.92 9.90 0.05 0.08 -0.06 17167
0.08 0.21 0.64 -0.94 9.83 0.06 0.07 -0.07 17174
0.10 0.19 0.55 -0.91 9.79 0.06 0.07 -0.07 17181
0.11 0.10 0.46 -0.98 9.82 0.06 0.06 -0.08 17188
0.10 0.06 0.47 -0.97 9.82 0.06 0.07 -0.07 17196
0.11 0.02 0.47 -0.96 9.83 0.06 0.07 -0.07 17203
0.14 0.03 0.42 -0.99 9.83 0.06 0.07 -0.07 17210
0.14 0.02 0.47 -1.02 9.81 0.06 0.08 -0.06 17217
0.20 0.02 0.49 -1.00 9.78 0.06 0.08 -0.07 17224
0.21 -0.01 0.53 -0.99 9.81 0.03 0.08 -0.07 17231
0.19 -0.00 0.48 -1.01 9.82 0.07 0.09 -0.07 17239
0.23 -0.01 0.51 -1.00 9.82 0.07 0.10 -0.07 17246
0.21 -0.00 0.51 -1.07 9.82 0.08 0.11 -0.07 17253
0.24 -0.00 0.56 -1.04 9.20 0.09 0.12 -0.07 17260
0.26 -0.02 0.56 -0.99 9.82 0.09 0.13 -0.07 17267
0.32 -0.02 0.51 -1.04 9.81 0.10 0.14 -0.08 17274
0.29 -0.02 0.57 -1.07 9.79 0.11 0.15 -0.08 17282
0.29 -0.02 0.57 -1.05 9.78 0.12 0.16 -0.08 17289
0.32 -0.02 0.57 -1.06 9.59 0.12 0.17 -0.07 17296
0.31 -0.01 0.55 -1.06 9.78 0.13 0.19 -0.08 17303
0.33 -0.02 0.60 -1.04 9.78 0.14 0.23 -0.08 17310
0.35 -0.02 0.60 -1.11 9.83 0.15 0.21 -0.08 17317
0.37 -0.03 0.63 -1.13 9.83 0.20 0.22 -0.08 17325
0.36 -0.02 0.65 -1.16 9.87 0.19 0.22 -0.08 17332
0.35 -0.02 0.69 -1.11 9.87 0.22 0.22 -0.08 17339
0.35 -0.02 0.72 -1.10 9.83 0.25 0.22 -0.10 17346
0.38 -0.02 0.64 -1.19 9.81 0.28 0.20 -0.10 17353
0.40 -0.02 0.69 -1.23 9.90 0.31 0.18 -0.11 17360
0.40 -0.03 0.76 -1.29 9.87 0.37 0.17 -0.12 17368
0.38 -0.02 0.76 -1.31 9.83 0.41 0.15 -0.13 17375
0.42 -0.01 0.85 -1.35 9.83 0.43 0.12 -0.14 17382
0.44 -0.02 0.72 -1.34 9.76 0.46 0.10 -0.15 17389
0.49 -0.02 0.79 -1.44 9.83 0.47 0.07 -0.16 17396
0.52 -0.03 0.78 -1.56 9.85 0.49 0.06 -0.17 17403
0.57 -0.04 0.78 -1.56 9.71 0.49 0.04 -0.17 17411
0.57 -0.03 0.76 -1.49 9.74 0.49 0.03 -0.18 17418
0.60 -0.03 0.74 -1.61 9.82 0.49 0.01 -0.19 17425
0.64 -0.03 0.62 -1.62 9.80 0.49 -0.00 -0.18 17432
0.66 -0.03 0.70 -1.71 9.81 0.49 -0.02 -0.18 17439
0.65 -0.03 0.65 -1.65 9.86 0.50 -0.02 -0.18 17446
0.70 -0.04 0.62 -1.74 9.84 0.50 -0.04 -0.17 17454
0.72 -0.03 0.64 -1.28 10.01 0.53 -0.03 -0.16 17462
0.79 -0.03 0.55 -1.84 10.33 0.55 -0.03 -0.16 17469
0.83 -0.03 0.46 -1.82 10.48 0.57 -0.00 -0.14 17476
0.88 -0.03 0.67 -1.94 10.18 0.61 -0.03 -0.14 17483
0.87 -0.03 0.75 -1.96 9.99 0.69 -0.03 -0.14 17489
0.86 -0.04 0.77 -1.99 10.53 0.71 -0.04 -0.15 17498
0.91 -0.03 0.55 -2.18 10.44 0.78 -0.02 -0.15 17505
0.95 -0.03 0.49 -2.09 10.97 0.86 -0.02 -0.15 17511
1.01 -0.04 0.86 -2.40 9.92 0.95 -0.03 -0.16 17518
1.01 -0.04 0.74 -2.43 10.51 1.04 -0.03 -0.16 17526
1.02 -0.04 1.01 -2.45 10.19 1.13 -0.02 -0.15 17533
1.01 -0.05 0.60 -2.45 10.52 1.23 -0.03 -0.15 17541
1.01 -0.05 0.70 -2.59 10.22 1.30 -0.03 -0.16 17548
1.03 -0.04 0.70 -2.67 10.62 1.39 -0.03 -0.15 17555
1.03 -0.04 0.72 -2.84 10.53 1.50 -0.03 -0.15 17562
1.03 -0.04 0.20 -2.98 10.59 1.60 -0.02 -0.15 17568
