Voltage_01 Voltage_02 Acc_x Acc_y Acc_z Gyro_x Gyro_y Gyro_z Time
5000
0.07 -0.01 9.85 -3.57 9.61 1.23 -1.45 -3.67 17
0.07 -0.01 8.90 -3.44 9.69 1.07 -1.24 -3.96 23
0.06 -0.01 7.17 -3.27 11.06 0.84 -1.24 -4.25 29
0.05 -0.01 6.27 -2.31 12.46 0.55 -1.48 -4.28 35
0.07 -0.01 5.36 -0.81 13.05 0.24 -2.11 -4.28 41
0.05 -0.01 3.41 1.21 11.24 -0.11 -2.91 -4.28 48
0.07 -0.01 3.67 4.24 9.44 -0.41 -3.55 -4.28 54
0.04 -0.00 3.17 7.19 7.65 -0.83 -3.71 -4.28 60
0.04 -0.00 13.70 8.59 7.02 -1.11 -3.48 -3.71 66
0.05 -0.01 15.93 3.79 8.42 -1.29 -2.45 -2.27 72
0.04 -0.00 17.85 1.82 12.30 -1.50 -0.98 -1.28 78
0.04 -0.00 17.63 0.92 9.34 -1.69 -0.12 -0.65 84
0.04 -0.00 14.24 0.29 6.84 -1.78 0.47 -0.16 91
0.04 -0.00 10.05 0.12 5.82 -1.64 1.14 0.17 98
0.04 -0.00 7.12 -0.57 5.20 -1.32 1.64 0.50 104
0.03 -0.00 5.16 -1.45 5.39 -0.99 1.88 0.71 110
0.03 -0.00 3.93 -1.86 6.39 -0.71 1.90 0.80 116
0.03 -0.00 2.79 -1.83 8.05 -0.46 1.87 0.83 122
0.04 -0.00 1.74 -1.31 9.50 -0.29 1.86 0.82 129
0.05 -0.01 0.74 -0.81 10.45 -0.21 1.88 0.79 135
0.03 -0.00 -0.31 -0.51 11.16 -0.20 1.85 0.74 141
0.03 -0.00 -1.26 -0.48 11.77 -0.22 1.79 0.68 147
0.03 -0.00 -1.94 -0.77 12.18 -0.27 1.69 0.62 153
0.04 -0.00 -2.51 -1.02 12.14 -0.32 1.57 0.57 159
0.04 -0.00 -2.90 -1.33 12.16 -0.35 1.46 0.51 165
0.04 -0.00 -2.93 -1.56 11.87 -0.38 1.42 0.47 172
0.04 -0.00 -2.78 -1.74 11.72 -0.43 1.44 0.45 179
0.05 -0.01 -2.84 -1.99 11.51 -0.42 1.50 0.44 185
0.05 -0.01 -2.91 -2.29 11.41 -0.44 1.53 0.43 191
0.05 -0.00 -3.00 -2.51 11.18 -0.45 1.55 0.44 197
0.04 -0.00 -2.97 -2.76 10.48 -0.44 1.55 0.48 203
0.05 -0.01 -2.97 -2.99 11.03 -0.42 1.49 0.53 209
0.04 -0.00 -2.89 -3.25 11.02 -0.38 1.39 0.60 216
0.05 -0.00 -2.69 -3.43 11.13 -0.35 1.26 0.68 222
0.04 -0.00 -1.86 -3.49 11.19 -0.32 1.13 0.77 228
0.04 -0.00 -2.08 -3.48 11.23 -0.31 0.96 0.89 234
0.04 0.00 -1.39 -3.34 11.27 -0.31 0.81 0.97 241
0.04 -0.00 -0.71 -3.38 11.06 -0.32 0.73 1.09 247
0.03 -0.00 -0.38 -3.43 10.77 -0.34 0.71 1.22 253
0.04 -0.00 -0.45 -3.67 10.53 -0.35 0.77 1.34 260
0.03 -0.00 -0.84 -4.02 10.19 -0.34 0.87 1.45 266
0.03 -0.00 -1.24 -4.38 9.76 -0.30 0.93 1.54 272
0.03 -0.00 -1.63 -4.61 9.56 -0.24 0.96 1.60 278
0.04 -0.00 -1.71 -4.64 9.34 -0.17 0.92 1.65 284
0.05 -0.00 -1.60 -4.54 9.22 -0.09 0.86 1.67 290
0.03 -0.00 -1.19 -4.29 9.35 -0.02 0.80 1.68 296
0.04 -0.00 -0.73 -4.01 9.54 0.04 0.78 1.68 303
0.02 -0.00 -0.41 -3.80 9.75 0.08 0.80 1.66 309
0.04 -0.00 -0.27 -3.69 10.20 0.10 0.85 1.63 315
0.05 -0.00 0.04 -3.61 10.61 0.09 0.91 1.58 321
0.04 -0.00 0.08 -3.60 10.53 0.06 0.95 1.53 328
0.04 -0.00 -0.01 -3.56 10.38 0.01 0.98 1.44 334
0.03 -0.00 -0.20 -3.54 10.11 -0.03 0.97 1.43 340
0.04 0.00 -0.28 -3.47 9.72 -0.06 0.92 1.39 347
0.04 -0.00 -0.21 -3.32 9.41 -0.06 0.87 1.37 353
0.02 -0.00 0.00 -3.18 8.99 -0.04 0.84 1.36 359
0.03 -0.00 0.07 -3.13 8.83 -0.00 0.85 1.36 365
0.02 -0.00 0.16 -3.15 8.74 0.04 0.89 1.35 371
0.05 -0.00 0.25 -3.20 8.78 0.08 0.98 1.33 377
0.05 -0.01 0.03 -3.26 9.15 0.12 1.10 1.30 384
0.03 -0.00 -0.42 -3.15 9.42 0.16 1.19 1.27 390
0.03 -0.00 -1.12 -2.92 9.58 0.19 1.26 1.25 396
0.03 -0.00 -1.99 -2.68 9.72 0.20 1.26 1.23 402
0.03 -0.00 -2.82 -2.44 9.84 0.21 1.19 1.22 408
0.04 -0.00 -3.35 -2.28 10.22 0.20 1.09 1.20 414
0.04 -0.00 -3.62 -2.18 10.54 0.16 1.01 1.19 420
0.04 -0.00 -3.77 -2.20 10.78 0.09 0.92 1.17 427
0.03 -0.00 -3.94 -2.28 10.72 0.00 0.85 1.13 434
0.04 0.00 -4.25 -2.46 10.55 -0.08 0.82 1.10 440
0.04 -0.00 -4.65 -2.80 10.10 -0.14 0.82 1.06 446
0.04 -0.00 -5.23 -3.28 9.66 -0.17 0.82 1.02 452
0.03 -0.00 -5.78 -3.75 9.21 -0.16 0.78 0.97 458
0.05 0.00 -6.36 -4.01 8.88 -0.11 0.69 0.92 464
0.06 -0.01 -6.60 -4.30 8.74 -0.05 0.56 0.86 471
0.04 -0.00 -6.70 -4.51 8.79 0.02 0.44 0.80 477
0.03 -0.00 -6.74 -4.64 8.99 0.08 0.33 0.75 483
0.03 -0.00 -6.61 -4.62 9.19 0.14 0.22 0.72 489
0.04 -0.00 -6.11 -4.38 9.43 0.17 0.07 0.70 495
0.04 -0.00 -5.55 -4.14 9.51 0.18 -0.07 0.71 501
0.03 -0.00 -5.04 -4.05 9.33 0.18 -0.15 0.74 507
0.03 -0.00 -4.53 -4.02 8.94 0.20 -0.21 0.78 514
0.04 -0.00 -3.95 -3.86 8.50 0.20 -0.27 0.82 520
0.03 -0.00 -4.20 -3.30 9.19 0.23 -0.41 0.89 526
0.04 -0.00 -32.08 -3.35 16.42 0.64 -4.01 1.40 533
0.04 -0.00 -13.94 1.63 3.84 0.42 -4.28 2.02 539
0.04 -0.00 -2.96 2.74 5.05 0.09 -4.28 2.38 545
0.02 0.04 -0.59 19.46 54.13 0.81 -4.15 2.20 551
0.02 0.15 -20.12 -7.66 38.50 1.01 -1.96 2.28 558
0.02 0.32 -16.11 4.22 11.39 -0.02 -0.96 1.79 564
0.03 0.47 -14.46 -1.38 15.89 -0.21 -0.23 0.92 571
0.01 0.50 -6.21 -0.86 9.43 -0.14 -0.19 0.06 577
0.03 0.44 -0.48 0.23 8.43 0.13 0.00 -0.20 583
0.01 0.36 4.96 -0.02 10.23 0.35 0.15 -0.06 589
0.03 0.34 3.38 -0.18 10.43 0.13 0.05 0.29 595
0.05 0.32 2.57 0.48 10.30 0.02 -0.12 0.41 602
0.05 0.28 0.26 -1.37 10.32 -0.10 -0.26 0.41 608
0.04 0.29 -0.23 -2.30 10.09 -0.08 -0.23 0.34 614
0.05 0.30 -0.86 -2.91 10.50 -0.04 -0.13 0.18 621
0.06 0.30 -0.17 -1.70 9.42 -0.09 -0.13 0.11 627
0.07 0.34 -0.22 -1.29 9.46 -0.10 -0.07 0.09 633
0.07 0.40 -0.01 -1.03 10.00 -0.11 -0.03 0.07 640
0.11 0.45 0.38 -0.85 10.17 -0.10 -0.01 0.05 646
0.10 0.49 0.48 -0.71 10.56 -0.09 -0.01 0.05 652
0.11 0.50 0.04 -0.80 10.29 -0.06 0.01 0.04 658
0.13 0.54 0.57 -0.75 10.23 -0.04 -0.00 0.04 664
0.15 0.53 0.60 -0.91 10.16 -0.04 -0.01 0.05 671
0.13 0.59 0.55 -0.90 10.14 -0.04 -0.01 0.05 677
0.12 0.65 0.52 -0.92 10.03 -0.05 -0.01 0.04 684
0.12 0.61 0.51 -0.87 9.91 -0.06 -0.01 0.04 690
0.11 0.60 0.51 -0.77 9.99 -0.05 -0.00 0.04 696
0.11 0.63 0.57 -0.74 10.21 -0.05 0.00 0.03 702
0.12 0.66 0.61 -0.69 10.14 -0.03 0.01 0.03 708
0.15 0.65 0.65 -0.74 10.02 -0.02 0.01 0.03 714
0.13 0.61 0.59 -0.85 9.94 -0.01 0.01 0.03 721
0.14 0.62 0.59 -0.81 10.05 -0.01 0.01 0.02 728
0.15 0.61 0.58 -0.77 9.98 -0.01 0.01 0.02 734
0.14 0.60 0.63 -0.83 10.03 -0.01 0.00 0.02 740
0.14 0.61 0.01 -0.78 10.10 -0.02 0.00 0.02 746
0.15 0.62 0.60 -0.79 10.09 -0.01 -0.00 0.02 752
0.13 0.65 0.66 -0.78 10.05 -0.01 0.00 0.02 758
0.14 0.63 0.63 -0.82 10.09 -0.00 0.00 0.02 764
0.14 0.62 0.63 -0.78 10.12 0.00 0.00 0.02 771
0.14 0.62 0.62 -0.80 10.09 0.00 0.00 0.02 777
0.14 0.63 0.65 -0.78 10.03 0.00 0.00 0.02 784
0.14 0.64 0.69 -0.74 10.03 0.00 0.00 0.02 790
0.13 0.63 0.66 -0.75 10.07 0.00 0.00 0.02 796
0.11 0.63 0.65 -0.75 10.05 0.01 0.00 0.02 802
0.11 0.66 0.60 -0.77 10.08 0.01 0.00 0.02 808
0.13 0.64 0.66 -0.77 10.07 0.01 -0.00 0.02 815
0.12 0.63 0.66 -0.76 10.10 0.00 -0.00 0.02 821
0.11 0.65 0.67 -0.78 10.06 0.00 -0.00 0.02 827
0.13 0.67 0.65 -0.82 10.04 -0.00 -0.00 0.02 834
0.13 0.63 0.65 -0.80 9.98 -0.00 -0.00 0.02 840
0.13 0.62 0.66 -0.79 9.99 -0.01 -0.00 0.02 846
0.11 0.61 0.63 -0.79 10.00 -0.01 -0.00 0.02 852
0.10 0.66 0.63 -0.79 10.02 -0.01 -0.00 0.02 859
0.10 0.64 0.61 -0.78 10.05 -0.01 -0.00 0.02 865
0.09 0.63 0.61 -0.76 10.03 -0.01 0.00 0.02 871
0.08 0.65 0.63 -0.74 10.00 -0.01 0.00 0.01 877
0.09 0.68 0.67 -0.79 9.99 -0.01 0.01 0.01 883
0.07 0.69 0.69 -0.78 9.99 -0.01 0.00 0.02 889
0.06 0.69 0.69 -0.77 10.04 -0.02 0.01 0.01 897
0.05 0.70 0.71 -0.81 10.00 -0.02 0.01 0.02 903
0.06 0.73 0.63 -0.77 10.03 -0.01 0.01 0.01 909
0.05 0.74 0.65 -0.77 10.04 -0.01 0.00 0.02 915
0.04 0.73 0.62 -0.75 9.98 -0.01 0.00 0.01 921
0.03 0.76 0.64 -0.74 9.97 -0.01 0.01 0.01 927
0.05 0.78 0.67 -0.76 10.06 -0.01 0.01 0.02 933
0.05 0.74 0.68 -0.77 9.98 -0.01 0.01 0.02 940
0.05 0.73 0.66 -0.79 9.99 -0.01 0.01 0.02 946
0.03 0.74 0.71 -0.76 9.93 -0.01 0.01 0.01 952
0.03 0.75 0.70 -0.78 10.01 -0.01 0.02 0.01 959
0.04 0.75 0.68 -0.77 9.99 -0.01 0.02 0.01 965
0.03 0.73 0.66 -0.78 10.12 -0.01 0.02 0.01 971
0.01 0.73 0.72 -0.76 10.09 -0.01 0.02 0.01 977
0.03 0.74 0.66 -0.78 10.03 -0.01 0.02 0.01 984
0.03 0.76 0.68 -0.75 10.01 -0.00 0.02 0.01 990
0.03 0.77 0.72 -0.72 9.98 -0.00 0.02 0.01 996
-0.02 0.78 0.71 -0.76 9.98 0.00 0.03 0.01 1002
0.01 0.79 0.66 -0.74 9.99 -0.00 0.03 0.02 1008
0.02 0.75 0.74 -0.74 9.96 -0.00 0.04 0.02 1015
0.02 0.73 0.72 -0.71 10.03 0.00 0.04 0.02 1021
0.02 0.72 0.78 -0.74 9.99 0.01 0.03 0.02 1028
0.04 0.71 0.78 -0.77 9.98 0.00 0.03 0.02 1034
0.03 0.71 0.75 -0.74 9.98 0.00 0.02 0.03 1040
0.02 0.69 0.75 -0.78 9.97 0.00 0.01 0.03 1046
0.04 0.69 0.73 -0.76 9.93 0.00 0.01 0.02 1052
0.04 0.66 0.75 -0.77 9.99 0.00 0.00 0.03 1058
0.04 0.66 0.74 -0.77 9.98 -0.00 -0.00 0.03 1065
0.03 0.66 0.67 -0.78 9.99 -0.00 0.00 0.03 1072
0.04 0.69 0.72 -0.73 10.06 -0.01 0.00 0.02 1078
0.04 0.68 0.72 -0.73 9.98 -0.00 0.01 0.03 1084
0.05 0.65 0.75 -0.76 10.04 -0.01 0.01 0.02 1090
0.05 0.65 0.74 -0.76 9.98 -0.01 0.01 0.03 1096
0.06 0.64 0.74 -0.74 10.05 -0.01 0.01 0.03 1102
0.05 0.62 0.73 -0.74 10.00 -0.00 0.01 0.03 1110
0.04 0.61 0.69 -0.72 9.94 -0.00 0.01 0.03 1116
0.06 0.61 0.76 -0.71 10.03 -0.00 0.02 0.03 1122
0.05 0.60 0.75 -0.77 9.96 -0.00 0.02 0.03 1128
0.05 0.60 0.74 -0.77 10.00 -0.00 0.02 0.03 1134
0.05 0.60 0.75 -0.74 10.01 -0.00 0.01 0.03 1140
0.04 0.60 0.77 -0.77 9.94 -0.01 0.01 0.04 1147
0.04 0.60 0.75 -0.76 9.97 -0.01 0.01 0.04 1154
0.03 0.61 0.77 -0.77 10.00 -0.01 0.01 0.04 1160
0.04 0.60 0.73 -0.78 10.01 -0.01 0.01 0.04 1166
0.01 0.60 0.79 -0.74 10.00 -0.01 0.01 0.04 1172
0.02 0.62 0.76 -0.73 9.98 -0.01 0.02 0.04 1178
0.05 0.62 0.76 -0.75 10.00 -0.01 0.02 0.04 1184
0.03 0.62 0.77 -0.74 9.99 -0.01 0.02 0.04 1191
0.02 0.60 0.74 -0.71 10.03 -0.01 0.01 0.04 1198
0.05 0.61 0.81 -0.74 10.01 -0.00 0.01 0.00 1204
0.03 0.61 0.81 -0.73 10.00 -0.00 0.01 0.04 1210
0.02 0.61 0.81 -0.75 9.97 -0.00 0.01 0.04 1216
0.03 0.63 0.77 -0.70 9.98 -0.00 0.01 0.03 1222
0.03 0.60 0.80 -0.73 10.01 -0.00 0.00 0.03 1229
0.03 0.59 0.81 -0.75 9.90 0.00 0.00 0.03 1235
0.03 0.61 0.81 -0.72 9.95 -0.00 -0.00 0.03 1242
0.03 0.60 0.81 -0.74 9.99 0.00 -0.01 0.03 1248
0.03 0.59 0.80 -0.74 9.99 -0.00 -0.01 0.03 1254
0.03 0.59 0.85 -0.78 10.02 0.00 -0.01 0.03 1260
0.03 0.59 0.78 -0.77 10.01 0.00 -0.01 0.04 1266
0.04 0.58 0.83 -0.77 9.97 -0.00 -0.00 0.03 1273
0.03 0.56 0.86 -0.78 10.02 -0.00 -0.00 0.03 1280
0.03 0.56 0.90 -0.82 10.12 -0.00 -0.01 0.04 1286
0.04 0.56 0.74 -0.71 10.79 -0.03 -0.02 0.03 1292
0.03 0.53 0.88 -0.75 9.97 0.00 -0.01 0.03 1298
0.02 0.50 0.86 -0.68 9.98 0.01 -0.02 0.02 1304
0.04 0.46 0.88 -0.75 9.96 0.02 -0.03 0.02 1310
0.03 0.42 0.88 -0.78 9.94 0.02 -0.03 0.01 1317
0.04 0.37 0.90 -0.77 9.93 0.03 -0.04 0.01 1324
0.05 0.36 0.88 -0.72 9.92 0.03 -0.04 0.00 1330
0.05 0.27 0.88 -0.70 9.96 0.04 -0.03 -0.00 1336
0.05 0.23 0.88 -0.74 9.99 0.05 -0.03 -0.01 1342
0.04 0.17 0.99 -0.63 10.10 0.06 -0.03 -0.01 1348
0.06 0.11 1.00 -0.75 9.98 0.08 -0.03 -0.02 1354
0.08 0.06 1.06 -0.25 10.12 0.10 -0.04 -0.03 1361
0.07 0.03 1.29 -1.15 10.15 0.12 -0.04 -0.03 1368
0.08 0.02 1.14 -0.93 10.17 0.14 -0.05 -0.04 1374
0.07 -0.01 1.19 -1.17 9.41 0.17 -0.08 -0.06 1380
0.09 -0.01 1.25 -1.15 10.48 0.21 -0.07 -0.11 1386
0.09 -0.01 1.71 -0.90 10.79 0.29 -0.08 -0.20 1392
0.10 -0.01 2.87 -1.12 11.20 0.42 -0.08 -0.36 1399
0.08 -0.01 3.35 -1.24 12.55 0.70 -0.05 -0.61 1405
0.11 -0.01 3.65 -1.38 14.81 1.34 -0.00 -0.80 1412
0.12 -0.01 3.91 -1.71 15.97 2.08 -0.12 -0.98 1418
0.14 -0.01 3.81 -1.83 14.27 2.43 -0.32 -1.15 1424
0.11 -0.01 5.25 -2.18 14.07 2.51 -0.53 -1.30 1430
0.12 -0.01 6.60 -2.44 13.41 2.50 -0.69 -1.55 1437
0.09 -0.01 8.23 -3.69 12.92 2.46 -0.84 -1.82 1443
0.07 -0.00 9.96 -4.00 12.10 2.38 -0.85 -2.11 1449
0.09 -0.01 12.96 -4.58 11.75 2.25 -0.68 -2.42 1456
0.05 -0.01 11.59 -5.21 11.77 2.06 -0.27 -2.77 1462
0.04 0.01 13.40 -4.81 12.75 1.75 0.21 -3.13 1469
0.05 -0.00 9.79 -4.20 13.93 1.42 0.47 -3.51 1475
0.04 -0.00 7.76 -3.75 13.52 1.11 0.38 -3.79 1481
0.05 0.00 7.02 -3.07 12.48 0.94 0.18 -3.93 1487
0.05 -0.00 6.33 -2.55 10.96 0.74 -0.10 -3.96 1494
0.05 -0.00 5.67 -1.80 9.81 0.52 -0.43 -3.94 1500
0.03 -0.00 5.45 -0.87 9.12 0.23 -0.89 -3.90 1507
0.05 -0.00 7.07 -0.83 8.45 -0.04 -1.43 -3.71 1513
0.04 -0.00 8.71 -0.83 7.76 -0.16 -1.86 -3.18 1519
0.04 -0.00 8.12 -0.61 10.27 -0.31 -1.85 -2.51 1525
0.04 0.01 9.46 0.66 10.82 -0.67 -1.58 -1.89 1531
0.04 -0.00 10.38 1.66 9.13 -0.90 -1.60 -1.37 1538
0.04 -0.00 10.06 1.59 8.16 -1.05 -1.77 -0.92 1545
0.03 -0.00 9.68 1.21 6.71 -1.12 -1.83 -0.54 1551
0.03 -0.00 9.53 1.22 5.72 -1.09 -1.75 -0.18 1557
0.03 -0.00 9.76 0.97 5.37 -0.99 -1.51 0.09 1563
0.02 -0.00 9.82 1.01 5.02 -0.85 -1.17 0.39 1569
0.04 -0.00 9.80 1.15 5.02 -0.68 -0.76 0.65 1575
0.04 -0.00 9.55 1.40 5.06 -0.55 -0.31 0.88 1582
0.03 -0.00 9.08 1.52 5.47 -0.41 0.14 1.08 1588
0.03 -0.00 8.17 1.47 5.99 -0.30 0.47 1.27 1594
0.03 -0.00 7.01 1.27 7.25 -0.22 0.77 1.39 1600
0.04 -0.00 5.75 0.94 7.43 -0.15 0.94 1.50 1607
0.04 -0.00 4.82 0.59 8.35 -0.12 1.01 1.57 1613
0.03 -0.00 4.14 0.47 9.45 -0.12 1.03 1.60 1619
0.03 -0.00 3.85 0.51 10.32 -0.17 1.03 1.60 1626
0.04 -0.00 3.61 0.67 10.97 -0.26 1.02 1.56 1632
0.03 -0.00 3.62 0.79 11.41 -0.41 1.04 1.50 1638
0.02 -0.00 3.42 0.71 11.41 -0.59 1.10 1.38 1644
0.03 0.00 3.19 0.42 11.27 -0.78 1.16 1.21 1650
0.03 -0.00 2.79 -0.01 11.36 -0.92 1.22 1.01 1657
0.04 -0.00 2.32 -0.57 10.74 -1.04 1.28 0.78 1664
0.06 -0.01 1.70 -1.27 10.27 -1.08 1.30 0.54 1670
0.05 -0.00 1.33 -1.72 9.98 -1.11 1.30 0.30 1676
0.03 -0.00 1.29 -1.94 10.12 -1.12 1.29 0.08 1682
0.02 -0.00 1.48 -1.99 10.23 -1.09 1.28 -0.12 1688
0.05 -0.01 1.79 -2.00 10.27 -1.06 1.30 -0.24 1695
0.04 -0.00 2.03 -1.94 10.29 -1.04 1.32 -0.34 1701
0.03 -0.00 2.16 -2.01 10.38 -0.99 1.35 -0.39 1708
0.04 0.00 2.30 -2.10 10.42 -0.94 1.38 -0.42 1714
0.04 -0.00 2.33 -2.16 10.41 -0.88 1.44 -0.42 1720
0.03 0.00 2.34 -2.33 10.43 -0.82 1.53 -0.40 1726
0.04 -0.00 2.14 -2.55 10.60 -0.77 1.64 -0.38 1733
0.03 -0.00 1.83 -2.71 10.77 -0.72 1.76 -0.35 1739
0.04 0.01 1.40 -2.82 10.86 -0.67 1.84 -0.31 1745
0.04 0.00 1.13 -2.90 11.24 -0.61 1.91 -0.24 1752
0.04 -0.00 0.73 -2.91 11.59 -0.56 1.95 -0.15 1758
0.04 -0.00 0.29 -2.91 11.80 -0.52 1.96 -0.06 1764
0.04 0.00 -0.14 -2.94 11.84 -0.50 1.94 0.04 1771
0.04 -0.00 -0.75 -2.93 11.86 -0.50 1.90 0.16 1777
0.03 -0.00 -1.43 -3.02 11.90 -0.48 1.85 0.27 1783
0.03 -0.00 -2.08 -2.96 11.93 -0.46 1.78 0.40 1789
0.05 -0.00 -2.69 -2.90 11.76 -0.45 1.69 0.51 1796
0.04 -0.00 -3.28 -2.93 11.44 -0.42 1.59 0.62 1802
0.03 -0.00 -3.69 -3.17 11.20 -0.38 1.48 0.71 1809
0.03 -0.00 -4.16 -3.53 11.04 -0.34 1.42 0.78 1815
0.04 -0.00 -4.46 -3.88 11.07 -0.27 1.32 0.81 1821
0.02 -0.00 -4.61 -4.25 10.47 -0.21 1.24 0.85 1827
0.03 0.01 -4.63 -4.52 11.08 -0.15 1.17 0.86 1833
0.02 -0.00 -4.60 -4.74 11.08 -0.10 1.10 0.88 1840
0.02 -0.00 -4.67 -4.97 11.06 -0.08 1.00 0.88 1847
0.03 0.00 -4.74 -5.16 11.21 -0.07 0.86 0.88 1853
0.03 -0.00 -4.85 -5.45 11.22 -0.07 0.71 0.88 1859
0.02 -0.00 -4.79 -5.72 10.90 -0.08 0.55 0.86 1865
0.03 -0.00 -4.89 -6.04 10.67 -0.09 0.39 0.82 1871
0.04 -0.00 -4.76 -6.34 10.38 -0.09 0.30 0.77 1878
0.03 -0.00 -4.66 -6.61 10.17 -0.07 0.23 0.73 1884
0.02 -0.00 -4.54 -6.77 9.96 -0.03 0.21 0.70 1891
0.02 -0.00 -4.60 -6.74 9.80 0.01 0.20 0.68 1897
0.03 -0.00 -4.71 -6.63 9.63 0.06 0.19 0.70 1903
0.03 -0.00 -4.97 -6.53 9.43 0.11 0.15 0.75 1909
0.02 -0.00 -5.15 -6.45 9.19 0.18 0.07 0.83 1915
0.03 -0.00 -5.35 -6.32 9.19 0.26 0.03 0.90 1922
0.03 -0.00 -5.49 -6.10 9.06 0.34 -0.06 1.00 1928
0.02 -0.00 -5.64 -6.02 8.89 0.43 -0.14 1.10 1934
0.02 -0.00 -5.74 -5.89 8.83 0.50 -0.21 1.19 1940
0.03 -0.00 -5.93 -5.75 8.80 0.56 -0.28 1.27 1946
0.04 -0.00 -6.03 -5.39 8.49 0.62 -0.34 1.33 1953
0.02 -0.00 -5.98 -4.86 8.15 0.68 -0.41 1.39 1959
0.01 -0.00 -5.60 -3.92 7.54 0.71 -0.47 1.48 1966
0.03 -0.00 -5.00 -2.06 7.13 0.75 -0.60 1.59 1972
0.04 -0.00 -36.68 2.01 20.43 1.44 -4.28 2.16 1978
0.03 -0.00 -11.72 5.87 6.18 1.08 -4.28 2.96 1984
0.04 -0.00 5.19 0.01 1.29 0.50 -4.28 2.91 1990
0.05 0.02 -8.41 6.95 14.98 0.13 -4.28 2.22 1997
0.02 0.23 -22.94 -6.73 52.70 1.30 -3.32 1.49 2003
-0.00 0.61 -1.96 2.01 16.55 0.21 -2.10 0.79 2010
0.00 0.76 -9.34 0.80 19.79 0.29 -1.28 0.50 2016
0.01 0.76 -2.13 1.18 9.93 0.07 -0.31 0.10 2022
-0.02 0.68 1.35 0.09 9.42 0.19 -0.17 0.10 2029
0.02 0.52 2.85 -0.24 9.93 0.27 -0.24 0.23 2035
0.04 0.36 2.05 -0.37 10.36 0.21 -0.17 0.43 2041
0.04 0.33 -0.74 -1.40 10.16 0.11 -0.16 0.40 2048
0.06 0.26 -0.27 -1.51 10.04 0.06 -0.15 0.27 2054
0.06 0.22 0.23 -2.17 9.58 0.03 -0.12 0.21 2060
0.06 0.21 0.47 -1.64 9.74 -0.04 -0.11 0.13 2067
0.11 0.26 0.17 -1.17 10.16 -0.07 -0.09 0.09 2073
0.09 0.27 0.43 -0.98 10.01 -0.10 -0.07 0.05 2079
0.12 0.32 0.62 -0.92 10.22 -0.08 -0.05 0.04 2085
0.15 0.36 0.45 -0.69 10.42 -0.06 -0.04 0.05 2092
0.16 0.35 0.46 -0.67 10.27 -0.02 -0.02 0.06 2099
0.16 0.35 1.10 -1.11 10.10 -0.01 -0.02 0.08 2105
0.17 0.33 0.58 -1.74 10.29 -0.01 -0.02 0.11 2111
0.21 0.29 0.68 -0.90 10.21 -0.01 -0.03 0.11 2117
0.22 0.29 0.79 -0.96 9.95 -0.02 -0.04 0.11 2123
0.23 0.29 0.76 -1.00 10.04 -0.02 -0.05 0.10 2130
0.22 0.30 0.71 -0.92 10.12 -0.02 -0.04 0.08 2137
0.24 0.33 0.69 -0.87 10.04 -0.02 -0.05 0.07 2143
0.27 0.33 0.65 -0.85 10.03 -0.02 -0.04 0.06 2149
0.27 0.31 0.70 -0.83 10.06 -0.02 -0.04 0.06 2155
0.26 0.36 0.76 -0.86 10.07 -0.01 -0.04 0.06 2162
0.28 0.33 0.73 -0.92 10.04 -0.01 -0.04 0.05 2168
0.29 0.31 0.74 -0.91 10.01 -0.01 -0.05 0.04 2174
0.28 0.33 0.66 -0.91 10.04 -0.02 -0.04 0.04 2181
0.29 0.30 0.63 -0.87 10.07 -0.01 -0.04 0.03 2187
0.30 0.29 0.63 -0.84 10.07 -0.01 -0.04 0.03 2194
0.33 0.28 0.63 -0.85 10.06 -0.01 -0.03 0.03 2200
0.33 0.26 0.66 -0.86 10.03 -0.01 -0.02 0.03 2206
0.33 0.26 0.66 -0.86 9.99 -0.01 -0.03 0.03 2212
0.34 0.24 0.62 -0.86 10.04 0.00 -0.02 0.03 2219
0.38 0.18 0.63 -0.81 10.00 0.00 -0.01 0.03 2225
0.36 0.18 0.65 -0.78 10.00 0.01 -0.01 0.03 2232
0.39 0.19 0.64 -0.80 9.99 0.01 -0.00 0.04 2238
0.36 0.19 0.62 -0.82 10.05 0.01 0.00 0.04 2244
0.37 0.12 0.65 -0.85 9.98 0.02 0.01 0.04 2250
0.38 0.15 0.70 -0.81 10.03 0.02 0.01 0.05 2256
0.38 0.12 0.67 -0.80 9.96 0.02 0.02 0.05 2263
0.38 0.10 0.72 -0.85 10.04 0.02 0.01 0.05 2270
0.39 0.10 0.74 -0.88 9.99 0.02 0.01 0.05 2276
0.40 0.10 0.71 -0.87 10.02 0.02 0.01 0.04 2282
0.40 0.08 0.67 -0.88 9.99 0.02 0.01 0.04 2288
0.40 0.05 0.71 -0.85 10.04 0.02 0.01 0.04 2294
0.42 0.04 0.71 -0.91 10.00 0.02 0.01 0.04 2300
0.42 0.02 0.73 -0.90 10.01 0.02 0.01 0.04 2308
0.42 0.02 0.69 -0.97 9.98 0.02 0.01 0.04 2314
0.42 0.02 0.66 -0.88 9.98 0.03 0.01 0.04 2320
0.42 0.01 0.73 -0.90 10.05 0.03 0.02 0.04 2326
0.41 -0.02 0.64 -0.85 10.06 0.04 0.02 0.04 2332
0.42 0.01 0.67 -0.90 10.02 0.05 0.03 0.05 2338
0.42 -0.01 0.68 -0.90 10.03 0.06 0.03 0.05 2345
0.41 -0.03 0.70 -0.89 10.04 0.07 0.04 0.06 2352
0.42 -0.03 0.69 -0.87 10.01 0.08 0.05 0.06 2358
0.43 -0.03 0.78 -0.93 10.02 0.08 0.05 0.06 2364
0.43 -0.03 0.77 -0.89 9.97 0.08 0.05 0.06 2370
0.42 -0.03 0.79 -0.94 9.98 0.08 0.05 0.05 2376
0.44 -0.01 0.80 -0.92 9.92 0.07 0.05 0.05 2382
0.43 -0.03 0.84 -0.92 9.98 0.07 0.05 0.05 2390
0.42 -0.04 0.80 -0.92 9.93 0.07 0.04 0.05 2396
0.41 -0.03 0.85 -0.97 9.95 0.06 0.04 0.04 2402
0.42 -0.01 0.88 -0.97 9.87 0.06 0.04 0.04 2408
0.41 -0.02 0.84 -0.94 9.98 0.05 0.03 0.03 2414
0.39 -0.03 0.83 -0.96 9.92 0.04 0.03 0.02 2420
0.39 -0.01 0.82 -0.97 9.97 0.04 0.03 0.02 2426
0.39 -0.02 0.81 -0.90 9.92 0.03 0.03 0.02 2433
0.37 -0.04 0.86 -0.93 10.05 0.04 0.04 0.02 2440
0.37 -0.03 0.87 -1.01 9.99 0.04 0.04 0.02 2446
0.37 -0.03 0.85 -0.97 10.07 0.05 0.05 0.02 2452
0.37 -0.03 0.86 -1.00 10.06 0.06 0.05 0.02 2458
0.34 -0.02 0.84 -0.92 9.92 0.06 0.05 0.02 2464
0.36 -0.02 0.86 -0.97 9.95 0.06 0.05 0.01 2470
0.36 -0.03 0.85 -1.00 9.84 0.05 0.05 0.01 2478
0.36 -0.04 0.88 -1.00 9.89 0.04 0.05 0.01 2484
0.35 -0.02 0.89 -1.00 9.89 0.03 0.04 0.01 2490
0.36 -0.02 0.90 -1.04 9.86 0.01 0.02 0.01 2496
0.35 -0.02 0.89 -1.01 9.92 0.00 0.02 0.01 2502
0.35 -0.03 0.88 -1.01 9.91 -0.01 0.01 0.00 2508
0.34 -0.02 0.90 -1.02 9.95 -0.01 0.01 0.00 2514
0.35 -0.03 0.91 -1.05 9.95 -0.02 0.00 0.00 2521
0.31 -0.02 0.91 -0.99 9.92 -0.03 -0.00 0.00 2527
0.30 -0.02 0.88 -1.04 10.03 -0.03 -0.00 0.00 2534
0.30 -0.02 0.89 -1.02 9.98 -0.03 -0.00 0.00 2540
0.30 -0.03 0.92 -0.97 9.97 -0.03 -0.00 -0.00 2546
0.28 -0.03 0.92 -0.97 9.94 -0.03 -0.00 0.01 2552
0.27 -0.02 0.89 -1.01 9.98 -0.03 -0.00 0.00 2558
0.28 -0.01 0.91 -1.00 9.97 -0.03 -0.01 0.00 2565
0.27 -0.02 0.88 -0.97 10.02 -0.04 -0.01 0.00 2571
0.25 -0.03 0.88 -1.03 9.90 -0.04 -0.01 0.03 2577
0.24 -0.01 0.93 -1.01 9.89 -0.05 -0.02 -0.00 2584
0.25 -0.02 0.90 -0.97 9.91 -0.06 -0.02 -0.00 2590
0.24 -0.02 0.91 -0.99 9.92 -0.07 -0.02 0.00 2596
0.23 -0.02 0.90 -0.97 9.88 -0.08 -0.03 0.00 2603
0.22 -0.01 0.86 -0.99 9.88 -0.08 -0.03 0.00 2609
0.23 -0.01 0.90 -0.95 9.95 -0.09 -0.03 0.00 2615
0.22 -0.02 0.89 -0.94 9.98 -0.09 -0.03 0.00 2621
0.22 -0.02 0.87 -0.94 10.02 -0.09 -0.03 0.00 2627
0.20 -0.02 0.88 -0.93 9.96 -0.09 -0.03 -0.00 2633
0.20 -0.01 0.88 -0.93 10.05 -0.09 -0.03 -0.00 2640
0.18 -0.01 0.87 -0.93 10.07 -0.09 -0.03 0.00 2647
0.16 0.01 0.90 -0.88 10.07 -0.09 -0.02 -0.00 2653
0.16 0.00 0.86 -0.91 9.99 -0.09 -0.02 -0.00 2659
0.13 0.01 0.88 -0.87 9.89 -0.08 -0.02 0.01 2665
0.15 0.01 0.90 -0.92 9.98 -0.08 -0.02 0.01 2671
0.13 0.04 0.86 -0.91 10.02 -0.08 -0.02 0.01 2678
0.10 0.04 0.80 -0.94 10.06 -0.08 -0.02 0.01 2684
0.10 0.03 0.87 -0.91 9.97 -0.08 -0.01 0.01 2691
0.09 0.08 0.89 -0.90 9.99 -0.08 -0.00 0.02 2697
0.10 0.08 0.90 -0.80 10.06 -0.07 0.01 0.02 2703
0.08 0.09 0.94 -0.79 10.11 -0.06 0.01 0.02 2709
0.07 0.10 0.92 -0.80 10.09 -0.04 0.01 0.02 2715
0.06 0.11 0.88 -0.82 10.03 -0.03 0.01 0.02 2722
0.06 0.10 0.89 -0.83 10.01 -0.02 0.01 0.02 2728
0.05 0.12 0.97 -0.83 9.98 -0.02 0.01 0.02 2735
0.05 0.15 0.95 -0.86 9.94 -0.03 0.01 0.02 2741
0.06 0.12 0.91 -0.86 9.94 -0.03 0.01 0.01 2747
0.05 0.13 0.91 -0.84 9.93 -0.03 0.01 0.01 2753
0.05 0.14 0.92 -0.85 10.01 -0.03 0.01 0.01 2759
0.06 0.14 0.91 -0.88 9.99 -0.02 0.02 0.01 2766
0.07 0.14 0.94 -0.81 10.04 -0.02 0.02 0.01 2772
0.06 0.13 0.97 -0.83 9.96 -0.02 0.02 0.01 2779
0.05 0.14 1.03 -0.83 10.00 -0.02 0.00 0.01 2785
0.06 0.11 0.98 -0.84 10.02 -0.02 0.00 0.01 2791
0.06 0.10 0.95 -0.86 10.01 -0.01 -0.00 0.00 2797
0.05 0.12 0.97 -0.80 10.02 -0.01 0.00 -0.00 2804
0.06 0.11 0.96 -0.85 10.03 -0.02 -0.00 0.00 2810
0.05 0.09 0.90 -0.88 10.00 -0.02 -0.00 -0.00 2817
0.05 0.08 0.95 -0.87 10.00 -0.02 0.00 0.00 2823
0.06 0.07 0.92 -0.87 10.01 -0.01 0.01 -0.00 2829
0.05 0.05 0.97 -0.86 10.02 -0.01 0.00 0.00 2835
0.05 0.04 1.05 -0.88 9.96 -0.01 -0.01 -0.00 2841
0.07 0.05 1.04 -0.82 10.00 0.00 -0.02 -0.01 2848
0.07 0.03 1.05 -0.82 10.06 0.01 -0.03 -0.01 2854
0.05 0.01 1.09 -0.82 10.06 0.02 -0.05 -0.02 2861
0.06 0.03 1.16 -0.89 10.01 0.03 -0.06 -0.03 2867
0.06 0.01 1.12 -0.82 10.10 0.05 -0.07 -0.04 2873
0.04 0.00 1.17 -0.87 10.02 0.06 -0.08 -0.05 2880
0.07 -0.00 1.25 -0.93 10.04 0.07 -0.09 -0.06 2886
0.06 -0.01 1.25 -0.92 10.00 0.10 -0.10 -0.08 2892
0.07 -0.01 1.35 -0.94 10.15 0.12 -0.10 -0.12 2898
0.06 -0.01 1.42 -0.90 10.12 0.14 -0.11 -0.16 2905
0.07 -0.01 1.47 -0.86 10.23 0.18 -0.11 -0.22 2911
0.05 -0.01 1.68 -0.83 10.41 0.24 -0.12 -0.29 2918
0.06 -0.01 1.71 -0.84 10.91 0.33 -0.10 -0.36 2924
0.08 -0.01 1.84 -0.68 11.27 0.53 -0.05 -0.43 2930
0.06 -0.01 1.95 -0.95 12.16 0.88 0.04 -0.53 2936
0.05 -0.01 2.37 -1.20 12.40 1.17 0.07 -0.64 2942
0.06 -0.01 2.39 -1.14 12.95 1.42 0.02 -0.75 2949
0.06 -0.01 2.84 -1.31 12.83 1.59 -0.01 -0.84 2955
0.05 -0.00 3.16 -1.51 12.78 1.71 -0.03 -0.96 2962
0.06 0.00 2.96 -1.43 12.51 1.82 -0.10 -1.03 2968
0.06 -0.01 3.42 -2.14 12.41 1.92 -0.18 -1.14 2974
0.06 -0.01 4.48 -2.24 12.51 2.01 -0.31 -1.28 2980
0.08 0.01 5.24 -2.40 11.95 2.05 -0.36 -1.45 2987
0.09 -0.01 6.45 -3.18 11.63 2.03 -0.39 -1.65 2994
0.06 -0.01 8.64 -3.13 12.22 1.97 -0.32 -1.88 3000
0.06 0.00 10.23 -3.75 12.42 1.85 -0.11 -2.15 3006
0.05 -0.01 11.89 -3.61 11.94 1.67 0.26 -2.46 3012
0.05 0.00 11.64 -3.10 11.75 1.41 0.63 -2.76 3018
0.07 -0.01 10.73 -4.09 12.11 1.21 0.79 -3.07 3025
0.05 -0.00 9.17 -3.60 12.10 1.00 0.77 -3.32 3032
0.05 -0.00 6.86 -3.20 11.04 0.84 0.58 -3.50 3038
0.06 -0.01 5.84 -2.97 9.95 0.63 0.29 -3.56 3044
0.05 -0.00 4.51 -2.94 9.71 0.38 -0.20 -3.54 3050
0.05 -0.00 4.51 -1.80 10.35 0.10 -0.75 -3.47 3056
0.04 0.00 5.69 -0.89 10.60 -0.16 -1.31 -3.27 3063
0.04 -0.00 6.03 -1.83 9.92 -0.43 -1.60 -2.74 3069
0.04 -0.00 7.59 -1.77 10.78 -0.73 -1.88 -2.15 3076
0.04 -0.00 8.94 -0.59 11.06 -1.04 -2.29 -1.69 3082
0.06 -0.01 9.07 -0.65 9.41 -1.32 -2.59 -1.31 3088
0.04 -0.00 9.24 -1.51 8.13 -1.39 -2.64 -0.95 3094
0.04 -0.00 9.68 -1.92 6.96 -1.31 -2.53 -0.69 3100
0.05 -0.00 10.08 -1.98 6.36 -1.12 -2.32 -0.46 3107
0.05 -0.01 10.42 -1.85 5.66 -0.87 -2.00 -0.29 3113
0.05 -0.01 10.41 -1.40 5.12 -0.62 -1.60 -0.17 3120
0.04 -0.00 10.18 -0.70 4.92 -0.40 -1.10 -0.08 3126
0.04 -0.00 9.69 -0.03 5.11 -0.20 -0.56 -0.00 3132
0.03 -0.00 9.04 0.54 5.53 -0.10 -0.01 0.06 3138
0.04 -0.00 8.19 0.81 6.04 0.00 0.34 0.13 3144
0.04 -0.00 7.14 0.98 6.66 0.04 0.70 0.13 3150
0.05 -0.00 6.18 1.14 7.34 0.05 0.94 0.16 3156
0.04 -0.00 5.31 1.10 7.92 0.02 1.08 0.17 3164
0.04 -0.00 4.42 0.98 8.18 -0.01 1.14 0.19 3170
0.04 -0.00 3.80 0.91 8.33 -0.07 1.16 0.22 3176
0.04 -0.00 3.40 0.93 8.63 -0.12 1.18 0.24 3182
0.03 -0.00 3.29 0.98 9.74 -0.18 1.18 0.27 3188
0.04 -0.00 3.22 1.05 9.65 -0.26 1.20 0.28 3194
0.03 -0.00 3.00 0.97 9.81 -0.35 1.24 0.29 3201
0.04 -0.00 2.69 0.94 9.73 -0.43 1.29 0.27 3207
0.04 -0.00 2.39 0.77 9.59 -0.54 1.33 0.24 3213
0.04 -0.00 1.92 0.45 9.54 -0.62 1.38 0.19 3219
0.03 -0.00 1.53 0.01 9.71 -0.69 1.43 0.11 3225
0.05 -0.00 1.30 -0.22 9.82 -0.74 1.46 0.03 3232
0.04 -0.00 1.16 -0.43 9.81 -0.76 1.48 -0.02 3238
0.04 -0.00 1.07 -0.61 9.85 -0.77 1.50 -0.05 3245
0.03 -0.00 0.96 -0.86 9.97 -0.78 1.51 -0.06 3251
0.04 -0.00 0.92 -1.06 10.13 -0.77 1.48 -0.04 3257
0.04 -0.00 0.91 -1.27 10.13 -0.77 1.45 0.01 3263
0.03 -0.00 0.92 -1.46 10.22 -0.74 1.41 0.09 3269
0.04 -0.00 1.03 -1.60 10.42 -0.70 1.38 0.22 3275
0.03 -0.00 1.29 -1.71 10.87 -0.67 1.35 0.38 3282
0.03 -0.00 1.64 -1.81 11.22 -0.65 1.34 0.58 3289
0.03 -0.00 1.89 -1.88 11.38 -0.65 1.34 0.82 3295
0.04 0.01 2.11 -2.11 11.24 -0.65 1.36 1.07 3301
0.04 -0.00 2.17 -2.56 11.15 -0.66 1.39 1.33 3307
0.03 -0.00 2.18 -2.91 11.24 -0.66 1.40 1.60 3313
0.04 -0.00 2.15 -3.32 11.28 -0.63 1.43 1.76 3320
0.03 -0.00 1.92 -3.67 11.27 -0.60 1.47 1.97 3326
0.04 -0.00 1.66 -3.87 11.07 -0.57 1.49 2.13 3333
0.03 -0.00 1.41 -4.05 11.12 -0.53 1.51 2.26 3339
0.04 -0.00 1.10 -4.29 11.14 -0.49 1.54 2.35 3345
0.03 -0.00 0.68 -4.66 11.20 -0.40 1.60 2.39 3351
0.03 -0.00 0.13 -5.01 11.34 -0.36 1.65 2.40 3358
0.04 -0.00 -0.37 -5.35 11.36 -0.28 1.67 2.37 3364
0.03 -0.00 -0.88 -5.58 11.36 -0.19 1.66 2.31 3371
0.03 -0.00 -1.35 -5.86 11.43 -0.10 1.65 2.23 3377
0.04 -0.00 -2.03 -6.07 11.66 -0.02 1.60 2.13 3383
0.03 -0.00 -2.76 -6.11 11.79 0.05 1.49 2.01 3389
0.04 -0.00 -3.45 -5.97 11.70 0.09 1.32 1.88 3395
0.04 -0.00 -4.06 -5.93 11.35 0.11 1.13 1.73 3402
0.04 -0.00 -4.49 -6.06 11.11 0.11 0.93 1.55 3408
0.04 -0.00 -4.67 -6.15 11.11 0.12 0.77 1.34 3415
0.03 -0.00 -4.84 -6.29 11.17 0.14 0.70 1.10 3421
0.06 -0.01 -5.07 -6.35 11.02 0.13 0.68 0.84 3427
0.04 -0.00 -5.37 -5.54 10.82 0.11 0.67 0.59 3433
0.02 -0.00 -5.65 -5.71 10.77 0.06 0.63 0.38 3440
0.04 -0.00 -5.85 -5.23 10.58 -0.00 0.53 0.18 3446
0.03 -0.00 -5.82 -4.67 9.98 -0.07 0.40 0.05 3452
0.03 -0.00 -5.39 -4.22 9.17 -0.14 0.25 -0.01 3459
0.03 -0.00 -5.00 -4.28 8.41 -0.16 0.13 -0.01 3465
0.03 -0.00 -4.75 -4.89 7.55 -0.13 0.01 0.00 3471
0.04 -0.00 -4.16 -5.46 7.06 -0.04 -0.02 0.02 3477
0.04 -0.00 -3.43 -5.96 6.71 0.09 -0.06 0.03 3483
0.02 -0.00 -4.06 -6.51 6.75 0.27 -0.12 0.07 3489
0.04 -0.00 -36.11 -11.36 26.09 0.96 -4.17 0.34 3496
0.05 -0.00 -15.29 -2.35 4.49 0.60 -4.28 0.61 3503
0.02 -0.00 -11.83 -3.88 3.39 0.43 -4.28 0.82 3509
0.04 0.01 -15.84 -8.89 11.35 0.07 -4.28 0.78 3515
0.06 -0.01 -18.62 -6.78 17.19 -0.06 -4.28 0.77 3521
0.05 0.05 -21.03 14.36 78.47 0.11 -4.15 0.46 3528
0.04 0.21 -15.36 -6.77 18.01 -0.06 -1.19 0.10 3534
0.02 0.36 -2.51 -1.27 11.32 -0.35 -0.25 0.06 3540
0.02 0.53 -0.05 0.19 12.67 -0.22 -0.15 0.06 3547
0.03 0.58 1.62 0.15 11.30 -0.03 -0.12 0.11 3554
0.02 0.46 2.91 0.09 10.73 0.13 -0.15 0.18 3560
0.00 0.36 2.19 0.43 10.26 0.16 -0.21 0.29 3566
0.04 0.32 1.16 -0.66 9.74 0.10 -0.24 0.36 3572
0.05 0.29 0.21 -0.43 10.06 0.06 -0.24 0.33 3578
0.09 0.29 0.27 -1.34 9.76 0.04 -0.21 0.26 3586
0.08 0.31 0.63 -1.70 9.91 -0.01 -0.19 0.21 3592
0.08 0.34 0.22 -2.04 9.52 -0.06 -0.14 0.18 3598
0.14 0.35 -0.14 -1.35 9.19 -0.10 -0.08 0.11 3604
0.16 0.36 0.71 -1.07 9.61 -0.13 -0.05 0.07 3610
0.15 0.42 0.24 -1.14 10.48 -0.14 -0.07 0.04 3616
0.14 0.44 0.51 -0.61 10.35 -0.11 -0.08 0.04 3623
0.15 0.47 0.54 -0.63 10.27 -0.07 -0.07 0.03 3630
0.13 0.49 0.56 -0.72 10.12 -0.05 -0.06 0.04 3636
0.18 0.51 0.65 -0.75 10.01 -0.04 -0.05 0.06 3642
0.18 0.49 0.74 -0.94 9.89 -0.05 -0.05 0.06 3648
0.16 0.51 0.65 -1.05 10.13 -0.06 -0.05 0.05 3655
0.19 0.56 0.67 -0.92 10.02 -0.06 -0.04 0.05 3661
0.18 0.59 0.66 -0.81 10.04 -0.06 -0.04 0.05 3667
0.19 0.56 0.65 -0.75 10.07 -0.05 -0.03 0.05 3674
0.19 0.57 0.64 -0.78 9.98 -0.03 -0.03 0.04 3680
0.20 0.59 0.64 -0.81 9.93 -0.03 -0.03 0.04 3686
0.22 0.59 0.71 -0.86 10.02 -0.03 -0.02 0.03 3693
0.23 0.58 0.72 -0.84 10.01 -0.03 -0.02 0.03 3699
0.21 0.60 0.71 -0.82 10.01 -0.03 -0.02 0.02 3705
0.21 0.62 0.67 -0.82 10.07 -0.02 -0.02 0.02 3712
0.24 0.67 0.64 -0.79 9.99 -0.02 -0.01 0.02 3718
0.24 0.63 0.63 -0.78 10.03 -0.01 -0.02 0.02 3725
0.23 0.62 0.67 -0.78 9.97 -0.01 -0.01 0.01 3731
0.24 0.61 0.69 -0.78 10.08 -0.01 -0.01 0.01 3737
0.25 0.59 0.73 -0.84 10.03 -0.00 -0.01 0.01 3743
0.24 0.60 0.73 -0.79 10.09 -0.00 -0.02 0.01 3749
0.25 0.60 0.71 -0.79 10.01 -0.01 -0.01 0.02 3756
0.25 0.57 0.69 -0.79 10.05 -0.00 -0.02 0.01 3763
0.25 0.56 0.70 -0.80 10.08 -0.01 -0.02 0.02 3769
0.25 0.57 0.70 -0.78 10.01 -0.01 -0.02 0.02 3775
0.26 0.52 0.66 -0.80 9.96 -0.00 -0.01 0.02 3781
0.27 0.49 0.73 -0.76 10.04 -0.00 -0.01 0.02 3787
0.25 0.51 0.69 -0.79 9.98 0.00 -0.01 0.02 3793
0.26 0.48 0.66 -0.77 10.01 0.00 -0.01 0.01 3801
0.26 0.43 0.67 -0.81 9.95 0.00 -0.01 0.02 3807
0.28 0.40 0.69 -0.78 10.02 0.00 -0.01 0.01 3813
0.30 0.42 0.66 -0.80 9.98 0.01 -0.01 0.01 3819
0.29 0.36 0.68 -0.79 10.01 0.01 -0.01 0.01 3825
0.28 0.30 0.71 -0.72 9.98 0.01 -0.01 0.01 3831
0.30 0.30 0.67 -0.83 10.00 0.01 -0.01 0.01 3838
0.27 0.32 0.77 -0.80 10.02 0.01 -0.01 0.01 3845
0.27 0.29 0.74 -0.82 9.98 0.01 -0.01 0.01 3851
0.29 0.30 0.73 -0.78 9.99 0.01 -0.01 0.01 3857
0.31 0.29 0.68 -0.83 10.01 0.01 -0.01 0.01 3863
0.31 0.27 0.74 -0.83 9.97 0.01 -0.01 0.02 3869
0.32 0.26 0.75 -0.84 9.97 0.00 -0.01 0.01 3876
0.32 0.24 0.71 -0.83 10.01 -0.00 -0.01 0.01 3883
0.31 0.24 0.67 -0.81 9.99 -0.00 -0.00 0.01 3889
0.31 0.23 0.71 -0.82 10.03 -0.00 -0.00 0.01 3895
0.32 0.20 0.74 -0.83 10.00 -0.00 -0.00 0.01 3901
0.30 0.20 0.71 -0.80 9.97 0.00 0.00 0.01 3907
0.30 0.23 0.74 -0.81 10.00 0.00 0.01 0.00 3913
0.30 0.22 0.69 -0.80 10.09 0.00 0.00 0.01 3920
0.31 0.20 0.73 -0.80 10.00 0.01 0.01 0.00 3927
0.30 0.21 0.73 -0.81 10.03 0.00 0.01 0.01 3933
0.32 0.19 0.78 -0.79 9.98 0.01 0.01 0.00 3939
0.33 0.22 0.77 -0.82 10.02 0.00 0.01 0.00 3945
0.32 0.18 0.75 -0.81 9.97 0.01 0.01 0.00 3951
0.30 0.19 0.74 -0.83 9.98 -0.00 0.01 0.00 3958
0.33 0.18 0.75 -0.81 9.98 -0.00 -0.03 0.00 3964
0.30 0.19 0.77 -0.84 9.99 -0.01 -0.00 0.00 3971
0.29 0.19 0.72 -0.82 10.00 -0.01 0.00 0.00 3977
0.26 0.22 0.74 -0.79 10.01 -0.01 0.00 0.00 3983
0.26 0.20 0.71 -0.80 10.01 -0.01 0.01 0.00 3989
0.25 0.19 0.77 -0.78 10.04 -0.01 0.01 -0.00 3995
0.24 0.21 0.77 -0.80 10.01 -0.01 0.01 -0.00 4002
0.26 0.21 0.77 -0.79 9.99 -0.01 0.01 0.00 4008
0.26 0.21 0.76 -0.81 9.98 -0.01 0.01 -0.00 4015
0.24 0.20 0.75 -0.82 9.99 -0.00 0.01 -0.00 4021
0.24 0.21 0.78 -0.80 10.00 -0.00 0.02 -0.00 4027
0.24 0.20 0.79 -0.80 10.03 -0.00 0.02 -0.00 4033
0.22 0.19 0.77 -0.81 9.96 -0.00 0.01 0.00 4040
0.22 0.20 0.79 -0.80 10.01 -0.01 0.01 0.00 4046
0.22 0.17 0.82 -0.82 10.00 -0.01 0.01 0.00 4052
0.19 0.17 0.82 -0.81 9.98 -0.01 0.00 0.00 4059
0.17 0.19 0.79 -0.83 9.98 -0.01 0.00 0.00 4065
0.20 0.19 0.79 -0.86 9.97 -0.02 -0.00 0.00 4071
0.18 0.19 0.78 -0.85 9.96 -0.02 -0.00 0.00 4077
0.17 0.21 0.80 -0.81 10.00 -0.02 -0.01 0.00 4084
0.17 0.23 0.80 -0.83 10.00 -0.02 -0.01 0.01 4090
0.19 0.22 0.82 -0.81 9.97 -0.02 -0.01 0.01 4097
0.17 0.23 0.82 -0.78 9.96 -0.02 -0.01 0.01 4103
0.16 0.24 0.75 -0.76 10.00 -0.02 -0.01 0.01 4109
0.16 0.24 0.78 -0.79 10.01 -0.02 -0.01 0.01 4115
0.15 0.24 0.79 -0.79 10.02 -0.01 -0.00 0.00 4122
0.13 0.25 0.81 -0.79 9.98 -0.02 -0.01 0.01 4128
0.14 0.27 0.79 -0.76 9.99 -0.02 -0.00 0.00 4134
0.13 0.26 0.79 -0.79 9.94 -0.01 -0.00 0.00 4141
0.11 0.26 0.82 -0.83 10.01 -0.02 0.00 0.01 4147
0.12 0.27 0.78 -0.78 9.99 -0.02 0.00 0.01 4153
0.11 0.26 0.78 -0.76 10.00 -0.02 0.00 0.01 4159
0.09 0.27 0.82 -0.78 10.00 -0.02 -0.00 0.01 4166
0.10 0.29 0.80 -0.79 10.01 -0.02 0.00 0.00 4172
0.10 0.30 0.80 -0.78 10.04 -0.02 -0.00 0.00 4178
0.07 0.29 0.78 -0.81 10.01 -0.02 0.00 0.00 4185
0.08 0.33 0.78 -0.76 10.03 -0.02 0.00 0.00 4191
0.09 0.31 0.84 -0.75 9.98 -0.02 0.00 0.00 4197
0.09 0.34 0.83 -0.76 10.05 -0.01 0.00 -0.03 4204
0.07 0.35 0.79 -0.79 10.06 -0.01 0.01 0.00 4210
0.08 0.34 0.82 -0.81 9.99 -0.01 0.01 0.01 4216
0.06 0.37 0.84 -0.78 10.00 -0.00 0.00 0.00 4222
0.04 0.35 0.86 -0.78 10.04 -0.00 0.01 0.00 4229
0.06 0.36 0.84 -0.81 10.00 0.00 0.01 0.01 4235
0.06 0.35 0.85 -0.76 10.03 0.00 0.01 0.00 4242
0.07 0.35 0.82 -0.79 9.98 0.01 0.01 0.00 4248
0.10 0.33 0.84 -0.78 9.94 0.01 0.01 0.00 4254
0.09 0.32 0.85 -0.74 10.05 0.01 0.01 0.00 4260
0.10 0.32 0.86 -0.76 10.02 0.02 0.01 0.01 4267
0.06 0.32 0.88 -0.78 10.02 0.02 0.00 0.01 4273
0.07 0.31 0.90 -0.81 9.98 0.02 -0.00 0.01 4279
0.07 0.29 0.94 -0.85 10.01 0.02 -0.01 0.01 4286
0.06 0.27 0.93 -0.80 9.98 0.02 -0.02 0.01 4292
0.05 0.23 0.93 -0.82 9.98 0.03 -0.03 0.01 4298
0.06 0.18 0.92 -0.83 10.02 0.03 -0.07 0.01 4304
0.07 0.16 0.91 -0.83 9.94 0.04 -0.04 0.01 4311
0.09 0.17 0.92 -0.89 9.96 0.04 -0.05 0.01 4317
0.09 0.14 0.92 -0.83 10.01 0.04 -0.06 0.01 4323
0.11 0.11 0.95 -0.77 10.09 0.05 -0.07 -0.00 4330
0.10 0.07 1.04 -0.84 10.05 0.06 -0.08 -0.01 4336
0.13 0.04 1.01 -0.86 10.08 0.08 -0.09 -0.02 4342
0.11 0.01 0.98 -0.85 10.09 0.09 -0.10 -0.03 4348
0.10 0.01 0.56 -0.28 10.23 0.12 -0.12 -0.06 4355
0.14 -0.00 1.27 -0.89 10.50 0.15 -0.13 -0.10 4362
0.11 -0.01 1.59 -0.88 10.71 0.19 -0.15 -0.17 4368
0.12 -0.01 2.93 -0.98 11.04 0.29 -0.16 -0.30 4374
0.14 -0.01 3.96 -0.95 11.16 0.44 -0.16 -0.55 4380
0.13 -0.01 5.59 -1.92 12.22 0.60 -0.19 -0.89 4386
0.16 -0.01 5.59 -1.29 13.56 0.96 -0.23 -1.21 4392
0.20 -0.01 4.74 -1.66 14.40 1.42 -0.28 -1.51 4400
0.16 -0.02 5.49 -2.25 13.53 1.68 -0.35 -1.78 4406
0.16 -0.01 5.76 -3.40 12.42 1.75 -0.47 -2.05 4412
0.14 -0.01 6.60 -3.10 12.51 1.80 -0.47 -2.36 4418
0.13 -0.01 9.08 -4.29 11.69 1.82 -0.65 -2.69 4424
0.09 -0.01 9.20 -3.48 11.96 1.86 -0.52 -3.09 4431
0.10 -0.01 10.72 -2.83 11.02 1.76 -0.34 -3.48 4438
0.07 -0.01 10.71 -3.47 10.42 1.55 -0.07 -3.80 4444
0.05 0.01 12.69 -3.41 10.74 1.33 0.19 -4.09 4450
0.05 -0.01 10.57 -1.45 12.62 1.07 0.48 -4.28 4457
0.03 -0.00 9.36 -1.22 11.93 0.71 0.59 -4.28 4463
0.06 -0.00 7.12 -1.93 12.31 0.38 0.50 -4.28 4469
0.05 -0.00 5.33 -0.22 11.48 0.13 0.18 -4.28 4475
0.04 -0.00 4.82 0.77 10.04 -0.09 -0.36 -4.28 4482
0.03 -0.00 6.02 1.09 8.33 -0.34 -0.97 -4.28 4488
0.04 -0.00 7.15 0.44 8.15 -0.58 -1.48 -4.14 4494
0.04 -0.00 7.46 -1.11 10.49 -0.82 -1.54 -3.63 4501
0.04 -0.00 8.03 -0.81 12.09 -1.11 -1.20 -3.03 4507
0.06 -0.01 9.13 0.54 11.02 -1.30 -0.87 -2.40 4513
0.06 -0.01 9.10 0.99 8.86 -1.36 -0.81 -1.84 4519
0.04 -0.00 8.06 0.83 6.77 -1.38 -0.86 -1.36 4526
0.04 -0.00 7.22 0.60 5.77 -1.32 -0.88 -1.02 4532
0.06 -0.01 7.13 0.26 5.43 -1.19 -0.80 -0.66 4538
0.04 -0.00 7.18 -0.03 5.59 -1.00 -0.61 -0.36 4544
0.04 -0.00 7.12 -0.30 5.82 -0.79 -0.34 -0.13 4551
0.05 -0.00 6.90 -0.34 5.97 -0.63 -0.02 0.03 4557
0.06 -0.01 6.52 -0.21 6.27 -0.48 0.25 0.17 4563
0.04 -0.00 5.78 -0.21 6.76 -0.37 0.57 0.26 4570
0.02 -0.00 4.83 -0.42 7.15 -0.29 0.84 0.35 4576
0.03 -0.00 3.82 -0.67 7.66 -0.22 1.02 0.43 4582
0.06 -0.01 2.84 -0.84 8.17 -0.16 1.09 0.51 4588
0.04 -0.00 2.03 -1.04 8.58 -0.11 1.09 0.59 4594
0.04 -0.00 1.52 -1.22 8.82 -0.06 1.04 0.67 4600
0.04 -0.00 1.09 -1.31 9.39 -0.02 0.99 0.72 4606
0.06 -0.01 0.86 -1.49 9.89 -0.00 0.94 0.77 4613
0.04 -0.00 0.73 -1.67 10.19 0.00 0.92 0.81 4620
0.03 -0.00 0.64 -1.73 10.49 -0.01 0.91 0.83 4626
0.05 -0.00 0.57 -1.68 10.76 -0.02 0.92 0.84 4632
0.06 -0.01 0.50 -1.69 10.97 -0.06 0.94 0.84 4638
0.04 -0.00 0.29 -1.73 11.04 -0.10 0.98 0.84 4644
0.03 -0.00 0.11 -1.86 11.21 -0.15 1.02 0.85 4651
0.04 0.01 -0.13 -2.04 11.17 -0.19 1.04 0.85 4657
0.03 -0.00 -0.42 -2.28 10.99 -0.21 1.03 0.86 4664
0.03 -0.00 -0.65 -2.46 10.77 -0.21 0.98 0.88 4670
0.04 0.01 -0.78 -2.51 10.72 -0.18 0.90 0.91 4676
0.04 -0.00 -0.79 -2.55 10.65 -0.15 0.83 0.95 4682
0.03 -0.00 -0.49 -2.40 10.51 -0.12 0.76 1.00 4688
0.04 -0.00 -0.22 -2.23 10.48 -0.10 0.71 1.05 4695
0.04 -0.00 0.60 -2.14 10.42 -0.08 0.69 1.10 4702
0.04 -0.00 0.14 -2.01 10.25 -0.07 0.67 1.20 4708
0.02 -0.00 0.29 -1.88 10.32 -0.06 0.65 1.25 4714
0.03 -0.00 0.40 -1.83 10.26 -0.04 0.63 1.32 4720
0.03 -0.00 0.51 -1.71 10.37 -0.01 0.59 1.40 4726
0.03 -0.00 0.74 -1.57 10.34 0.00 0.52 1.48 4732
0.04 0.00 0.99 -1.42 10.44 -0.01 0.46 1.55 4740
0.04 -0.00 1.31 -1.47 10.50 -0.02 0.42 1.61 4746
0.02 -0.00 1.65 -1.57 10.49 -0.05 0.40 1.67 4752
0.03 -0.00 1.88 -1.72 10.45 -0.09 0.41 1.71 4758
0.04 -0.00 2.06 -1.96 10.39 -0.15 0.46 1.77 4764
0.03 -0.00 2.05 -2.30 10.27 -0.20 0.54 1.75 4770
0.01 -0.00 1.89 -2.65 10.01 -0.23 0.63 1.73 4776
0.03 -0.00 1.48 -3.03 9.81 -0.24 0.71 1.70 4783
0.03 -0.00 1.07 -3.26 9.59 -0.22 0.77 1.67 4790
0.03 -0.00 0.77 -3.36 9.59 -0.19 0.79 1.63 4796
0.02 -0.00 0.03 -3.25 9.69 -0.14 0.79 1.60 4802
0.02 -0.00 0.56 -2.47 9.87 -0.11 0.77 1.57 4808
0.03 -0.00 0.50 -2.85 10.01 -0.10 0.74 1.57 4814
0.03 -0.00 0.29 -2.69 9.98 -0.10 0.72 1.57 4820
0.03 -0.00 0.03 -2.64 9.82 -0.12 0.67 1.57 4827
0.03 0.01 -0.11 -2.77 9.74 -0.12 0.63 1.57 4833
0.03 -0.00 -0.27 -3.00 9.62 -0.12 0.58 1.56 4839
0.04 -0.00 -0.48 -3.31 9.47 -0.11 0.55 1.52 4846
0.03 -0.00 -0.66 -3.46 9.33 -0.09 0.53 1.49 4852
0.04 -0.00 -0.70 -3.65 9.39 -0.05 0.55 1.43 4858
0.04 -0.00 -0.71 -3.60 9.49 -0.03 0.57 1.37 4865
0.04 -0.00 -0.73 -3.46 9.74 -0.02 0.61 1.32 4871
0.03 -0.00 -0.91 -3.44 9.82 -0.03 0.66 1.29 4877
0.03 -0.00 -1.08 -3.59 9.43 -0.04 0.70 1.27 4883
0.03 -0.00 -1.30 -3.84 9.09 -0.03 0.76 1.25 4889
0.03 -0.00 -1.52 -4.16 8.89 0.01 0.80 1.23 4895
0.02 -0.00 -1.96 -4.73 8.80 0.09 0.83 1.20 4901
0.03 0.01 -2.52 -5.13 8.69 0.19 0.82 1.15 4909
0.03 -0.00 -3.04 -5.26 8.66 0.27 0.76 1.09 4915
0.04 -0.00 -3.47 -5.31 8.63 0.37 0.70 1.02 4921
0.03 -0.00 -3.88 -5.26 8.68 0.44 0.61 0.94 4927
0.03 -0.00 -4.15 -5.05 8.78 0.49 0.52 0.88 4933
0.03 -0.00 -4.23 -4.57 8.76 0.51 0.45 0.82 4939
0.03 -0.00 -4.22 -3.88 8.41 0.51 0.38 0.79 4945
0.03 -0.00 -4.22 -3.01 7.77 0.49 0.32 0.80 4952
0.03 -0.00 -30.75 -10.79 33.45 0.82 -2.31 0.95 4959
0.03 -0.00 -20.81 -0.66 4.14 1.01 -4.13 1.39 4965
0.02 -0.00 -15.39 -0.92 3.08 0.62 -4.28 1.67 4971
0.04 0.00 -16.67 -6.62 8.25 0.28 -4.28 1.63 4977
0.05 0.00 -18.49 -6.39 18.64 0.05 -4.28 1.44 4983
0.04 0.12 -14.49 -17.67 32.01 1.24 -3.64 1.17 4990
0.04 0.34 -7.50 -0.26 17.09 0.14 -1.26 0.57 4997
0.00 0.50 -4.97 -0.79 11.64 -0.18 -0.07 0.09 5003
0.02 0.52 -1.34 0.49 10.56 -0.02 -0.14 0.02 5009
0.01 0.41 3.09 0.70 9.12 0.10 -0.07 0.02 5015
0.03 0.35 2.39 -0.13 9.50 0.15 -0.13 0.17 5022
0.04 0.29 1.45 -0.33 10.25 0.12 -0.08 0.26 5028
0.05 0.25 0.41 -1.59 10.24 0.06 -0.12 0.21 5035
0.04 0.24 0.73 -0.14 9.81 0.03 -0.14 0.17 5041
0.05 0.24 1.15 -0.55 8.56 0.03 -0.14 0.18 5047
0.10 0.24 0.24 -1.76 10.00 -0.03 -0.12 0.13 5054
0.08 0.24 -0.01 -1.74 10.02 -0.06 -0.09 0.09 5060
0.07 0.29 -0.60 -1.31 10.10 -0.08 -0.06 0.05 5066
0.08 0.28 0.34 -1.00 9.79 -0.11 -0.05 0.04 5072
0.10 0.32 0.61 -1.06 10.10 -0.12 -0.04 0.04 5079
0.10 0.40 0.70 -0.93 10.41 -0.10 -0.03 0.04 5085
0.09 0.42 0.75 -0.76 10.17 -0.07 -0.03 0.04 5092
0.09 0.40 0.60 -0.83 10.03 -0.05 -0.02 0.03 5098
0.10 0.45 0.69 -0.88 10.01 -0.04 -0.03 0.03 5104
0.11 0.49 0.60 -0.91 9.84 -0.04 -0.03 0.04 5110
0.11 0.48 0.61 -0.95 9.90 -0.05 -0.03 0.04 5116
0.12 0.47 0.73 -1.00 9.95 -0.05 -0.04 0.03 5123
0.15 0.51 0.68 -0.92 10.06 -0.05 -0.05 0.03 5130
0.13 0.54 0.63 -0.84 10.09 -0.05 -0.05 0.02 5136
0.14 0.51 0.12 -0.86 10.17 -0.05 -0.06 0.02 5142
0.17 0.48 0.63 -0.88 10.00 -0.04 -0.05 0.02 5148
0.19 0.45 0.62 -0.87 10.05 -0.05 -0.05 0.02 5154
0.16 0.43 0.61 -0.88 10.08 -0.05 -0.05 0.02 5161
0.15 0.42 0.61 -0.89 10.03 -0.05 -0.05 0.02 5168
0.17 0.39 0.67 -0.92 10.04 -0.05 -0.05 0.02 5174
0.19 0.42 0.66 -0.89 10.06 -0.05 -0.05 0.02 5180
0.21 0.39 0.65 -0.87 10.09 -0.04 -0.04 0.02 5186
0.21 0.37 0.67 -0.85 10.16 -0.03 -0.04 0.02 5193
0.22 0.37 0.64 -0.85 10.04 -0.03 -0.04 0.02 5199
0.23 0.36 0.62 -0.80 10.08 -0.02 -0.03 0.01 5206
0.24 0.32 0.66 -0.83 10.06 -0.02 -0.03 0.02 5212
0.23 0.35 0.63 -0.86 10.01 -0.02 -0.03 0.01 5218
0.25 0.32 0.66 -0.84 9.98 -0.02 -0.03 0.01 5225
0.26 0.28 -0.32 -0.77 9.74 -0.05 0.01 0.02 5231
0.26 0.29 0.63 -0.89 10.07 -0.02 -0.03 0.01 5237
0.29 0.28 0.59 -0.86 10.11 -0.01 -0.03 0.01 5243
0.29 0.26 0.66 -0.83 9.99 -0.01 -0.03 0.01 5250
0.29 0.26 0.65 -0.86 10.07 -0.01 -0.03 0.01 5256
0.31 0.30 0.65 -0.87 10.02 -0.02 -0.03 0.01 5263
0.31 0.32 0.64 -0.87 9.99 -0.01 -0.03 0.02 5269
0.33 0.27 0.62 -0.86 10.02 -0.01 -0.03 0.01 5275
0.36 0.26 0.65 -0.85 10.03 -0.01 -0.03 0.02 5281
0.34 0.28 0.66 -0.86 10.03 -0.01 -0.03 0.01 5287
0.34 0.27 0.69 -0.84 10.05 -0.01 -0.03 0.01 5295
0.33 0.25 0.64 -0.86 9.99 -0.01 -0.03 0.01 5301
0.29 0.24 0.62 -0.85 10.01 -0.01 -0.03 0.01 5307
0.32 0.22 0.67 -0.87 10.01 -0.01 -0.03 0.01 5313
0.33 0.24 0.67 -0.86 10.01 -0.01 -0.03 0.01 5319
0.33 0.21 0.68 -0.90 10.00 -0.01 -0.03 0.01 5325
0.31 0.23 0.67 -0.86 9.98 -0.01 -0.03 0.01 5332
0.33 0.24 0.63 -0.85 9.98 -0.01 -0.03 0.01 5339
0.32 0.25 0.63 -0.86 9.99 -0.01 -0.03 0.01 5345
0.31 0.23 0.61 -0.83 9.98 -0.01 -0.03 0.01 5351
0.32 0.25 0.64 -0.88 10.06 -0.01 -0.03 0.01 5357
0.32 0.24 1.22 -0.83 10.06 -0.01 -0.03 0.01 5363
0.33 0.22 1.21 -0.83 10.06 -0.00 -0.03 0.00 5370
0.33 0.23 0.61 -0.85 9.99 0.00 -0.03 0.01 5377
0.33 0.23 0.65 -0.83 10.00 -0.00 -0.03 0.00 5383
0.33 0.19 0.67 -0.85 10.04 0.00 -0.03 0.00 5389
0.33 0.21 0.63 -0.83 10.02 0.00 -0.03 0.00 5395
0.34 0.21 0.64 -0.81 10.01 0.00 -0.02 0.00 5401
0.33 0.17 0.61 -0.84 10.00 0.00 -0.03 0.00 5408
0.34 0.19 0.63 -0.88 9.95 0.00 -0.03 0.01 5414
0.37 0.17 0.65 -0.85 10.00 -0.00 -0.02 0.00 5421
0.35 0.13 0.64 -0.86 9.96 -0.00 -0.02 0.01 5427
0.35 0.12 0.62 -0.86 9.99 -0.00 -0.02 0.01 5433
0.35 0.16 0.64 -0.82 10.05 -0.00 -0.02 0.01 5439
0.35 0.14 0.65 -0.87 10.00 -0.01 -0.02 0.00 5446
0.33 0.16 0.65 -0.86 9.97 -0.01 -0.02 0.00 5452
0.34 0.17 0.67 -0.86 10.00 -0.01 -0.02 0.01 5458
0.36 0.17 0.66 -0.86 10.00 -0.01 -0.02 0.01 5465
0.34 0.16 0.64 -0.88 10.00 -0.01 -0.01 0.00 5471
0.33 0.18 0.59 -0.85 9.99 -0.01 -0.01 0.00 5477
0.34 0.16 0.64 -0.86 9.96 -0.01 -0.01 0.00 5483
0.33 0.16 0.69 -0.85 10.02 -0.01 -0.01 0.01 5490
0.31 0.17 0.64 -0.85 9.98 -0.01 -0.01 0.00 5496
0.31 0.16 0.67 -0.86 10.05 -0.00 -0.01 0.00 5502
0.30 0.15 0.65 -0.86 9.98 -0.01 -0.00 0.00 5509
0.29 0.14 0.65 -0.86 10.02 -0.01 -0.01 0.00 5515
0.30 0.15 0.65 -0.87 9.95 -0.01 -0.01 0.00 5521
0.27 0.16 0.65 -0.87 10.02 -0.01 -0.01 0.00 5528
0.26 0.16 0.63 -0.86 9.98 -0.01 -0.01 0.00 5534
0.27 0.17 0.61 -0.86 10.00 -0.02 -0.01 0.00 5540
0.27 0.17 0.67 -0.85 10.04 -0.01 -0.00 -0.00 5547
0.24 0.17 0.68 -0.84 10.01 -0.01 -0.00 0.00 5553
0.25 0.17 0.68 -0.88 9.99 -0.01 -0.00 -0.00 5559
0.25 0.16 0.70 -0.87 10.03 -0.01 -0.00 -0.00 5566
0.24 0.16 0.63 -0.83 10.02 -0.00 -0.00 -0.00 5572
0.25 0.16 0.69 -0.86 9.98 -0.01 0.00 0.00 5578
0.23 0.16 0.69 -0.87 9.96 -0.01 0.00 -0.00 5584
0.20 0.15 0.66 -0.84 9.98 -0.01 0.01 0.00 5591
0.19 0.16 0.69 -0.85 9.98 -0.00 0.01 -0.00 5597
0.22 0.17 0.71 -0.84 9.99 -0.01 0.01 -0.00 5603
0.20 0.16 0.66 -0.87 10.02 -0.00 0.01 0.00 5610
0.16 0.17 0.71 -0.86 9.98 -0.00 0.01 -0.00 5616
0.16 0.18 0.70 -0.86 9.99 -0.01 0.01 0.00 5622
0.16 0.18 0.69 -0.86 9.98 -0.01 0.00 -0.00 5628
0.15 0.19 0.72 -0.85 9.98 -0.01 0.00 -0.00 5635
0.15 0.17 0.65 -0.86 10.02 -0.01 -0.00 -0.00 5641
0.15 0.17 0.68 -0.83 10.01 -0.01 -0.00 -0.00 5647
0.12 0.16 0.68 -0.86 10.01 -0.01 -0.00 -0.00 5654
0.12 0.18 0.68 -0.84 10.03 -0.00 -0.00 -0.00 5660
0.13 0.20 0.71 -0.88 9.92 -0.00 0.00 -0.00 5666
0.11 0.20 0.71 -0.86 9.96 -0.00 0.00 -0.01 5672
0.11 0.18 0.76 -0.86 10.03 -0.00 0.00 -0.00 5679
0.11 0.21 0.72 -0.89 9.96 -0.00 0.00 -0.01 5685
0.12 0.21 0.71 -0.87 10.02 -0.00 0.00 -0.00 5692
0.13 0.20 1.28 -0.68 10.56 0.00 0.02 -0.01 5698
0.10 0.21 0.74 -0.83 10.03 0.01 0.02 0.00 5704
0.11 0.23 0.70 -0.87 10.00 0.01 0.02 0.00 5710
0.11 0.20 0.79 -0.87 9.99 0.02 0.01 0.01 5716
0.09 0.20 0.80 -0.87 10.02 0.02 0.02 0.01 5723
0.11 0.19 0.79 -0.85 10.01 0.02 0.01 0.01 5730
0.10 0.13 0.83 -0.83 9.99 0.03 0.00 0.01 5736
0.11 0.11 0.80 -0.90 10.06 0.04 -0.00 0.00 5742
0.10 0.08 0.84 -0.88 10.01 0.05 -0.01 0.01 5748
0.10 0.09 0.82 -0.90 9.99 0.06 -0.02 0.00 5754
0.12 0.06 0.83 -0.97 10.09 0.06 -0.04 -0.00 5761
0.13 0.02 0.86 -0.89 10.05 0.07 -0.05 -0.01 5767
0.15 0.01 0.88 -0.95 10.03 0.08 -0.05 -0.02 5774
0.15 -0.00 1.88 -1.02 9.07 0.09 -0.05 -0.03 5780
0.14 -0.01 1.00 -1.07 10.31 0.12 -0.06 -0.06 5786
0.20 -0.02 1.25 0.23 10.54 0.16 -0.06 -0.11 5792
0.19 -0.02 1.63 -1.14 10.99 0.24 -0.06 -0.19 5798
0.20 -0.02 3.06 -1.79 11.23 0.38 -0.07 -0.35 5805
0.22 -0.02 4.19 -1.41 11.53 0.58 -0.08 -0.61 5812
0.24 -0.02 3.32 -1.66 12.63 0.96 -0.06 -0.87 5818
0.25 -0.03 3.38 -2.13 14.94 1.61 -0.11 -1.01 5824
0.30 -0.02 4.43 -1.88 12.95 2.10 -0.34 -1.22 5830
0.28 -0.02 3.50 -1.73 13.65 2.25 -0.43 -1.38 5836
0.27 -0.01 3.71 -2.22 14.45 2.38 -0.54 -1.51 5843
0.31 -0.01 4.69 -2.94 14.23 2.59 -0.72 -1.65 5850
0.27 -0.03 6.06 -4.04 13.75 2.71 -0.93 -1.83 5856
0.28 -0.02 5.89 -4.40 12.43 2.79 -0.91 -2.04 5862
0.21 -0.01 6.83 -5.51 12.20 2.74 -0.90 -2.27 5869
0.16 -0.02 7.32 -5.62 11.32 2.54 -0.90 -2.48 5875
0.12 0.01 8.90 -4.77 13.72 2.40 -0.86 -2.72 5881
0.08 -0.01 8.17 -4.96 15.42 2.30 -0.75 -2.97 5888
0.08 -0.01 8.16 -3.28 16.01 2.16 -0.67 -3.07 5894
0.07 0.01 6.74 -4.00 15.69 2.00 -0.50 -3.24 5901
0.07 0.00 6.75 -3.29 14.54 1.78 -0.48 -3.35 5907
0.06 -0.01 5.21 -3.47 14.14 1.58 -0.47 -3.47 5913
0.07 0.01 5.97 -1.94 14.43 1.29 -0.63 -3.56 5919
0.06 -0.01 4.88 -0.51 13.70 0.92 -0.92 -3.63 5925
0.04 -0.00 4.13 -0.51 12.33 0.51 -1.32 -3.70 5932
0.05 -0.00 3.47 0.77 9.55 0.27 -1.81 -3.76 5939
0.05 -0.01 7.16 4.60 5.66 0.02 -2.33 -3.78 5945
0.03 -0.00 9.96 7.57 3.46 -0.24 -2.69 -3.61 5951
0.03 -0.00 10.52 5.20 3.96 -0.52 -2.78 -3.26 5957
0.05 -0.00 10.74 1.86 10.18 -0.87 -2.27 -2.80 5963
0.05 -0.00 11.44 0.40 11.94 -1.38 -1.52 -2.34 5969
0.04 -0.00 11.72 -0.03 9.81 -1.55 -1.03 -1.92 5977
0.05 -0.01 10.43 -0.47 7.49 -1.52 -0.83 -1.61 5983
0.03 -0.00 9.26 -1.18 4.47 -1.44 -0.72 -1.38 5989
0.02 -0.00 8.90 -1.87 3.81 -1.28 -0.63 -1.19 5995
0.04 0.00 9.16 -2.13 4.56 -1.04 -0.46 -1.03 6001
0.05 -0.01 9.56 -1.73 5.28 -0.78 -0.21 -0.89 6007
0.04 -0.00 9.60 -1.11 5.64 -0.55 0.17 -0.80 6013
0.02 -0.00 9.04 -0.42 5.78 -0.41 0.58 -0.70 6020
0.04 0.00 7.97 -0.08 6.43 -0.33 0.91 -0.62 6027
0.05 -0.01 6.81 -0.05 7.34 -0.26 1.12 -0.54 6033
0.05 -0.01 5.60 -0.07 8.08 -0.21 1.24 -0.48 6039
0.04 0.00 4.76 -0.15 8.67 -0.17 1.28 -0.43 6045
0.05 -0.00 3.86 -0.21 9.05 -0.16 1.29 -0.41 6051
0.04 -0.00 3.24 -0.26 9.64 -0.18 1.30 -0.42 6057
0.03 -0.00 3.01 -0.28 10.21 -0.23 1.36 -0.45 6064
0.04 -0.00 2.82 -0.37 10.78 -0.31 1.46 -0.49 6070
0.04 -0.00 2.58 -0.49 11.23 -0.42 1.58 -0.55 6077
0.04 -0.00 2.23 -0.63 11.45 -0.54 1.70 -0.59 6083
0.03 -0.00 1.86 -0.74 11.63 -0.64 1.80 -0.62 6089
0.05 -0.01 1.64 -0.98 11.45 -0.73 1.88 -0.61 6095
0.05 -0.01 1.49 -1.19 11.50 -0.80 1.92 -0.57 6102
0.04 -0.00 1.19 -1.38 11.37 -0.84 1.96 -0.50 6108
0.04 -0.00 0.93 -1.57 11.34 -0.87 1.97 -0.45 6115
0.04 -0.00 0.65 -1.72 11.27 -0.88 1.96 -0.38 6121
0.03 -0.00 0.30 -1.71 11.35 -0.88 1.93 -0.31 6127
0.03 -0.00 0.18 -1.61 11.48 -0.86 1.90 -0.25 6133
0.04 -0.00 0.01 -1.57 11.69 -0.85 1.91 -0.18 6139
0.04 -0.00 -0.18 -1.82 11.88 -0.83 1.96 -0.12 6146
0.03 -0.00 -0.62 -2.20 11.85 -0.82 2.02 -0.08 6152
0.03 -0.00 -1.06 -2.56 11.91 -0.80 2.10 -0.05 6159
0.03 -0.00 -1.41 -2.71 12.00 -0.76 2.13 -0.01 6165
0.02 -0.00 -1.84 -2.91 12.06 -0.70 2.18 0.05 6171
0.03 0.00 -2.31 -3.12 12.12 -0.62 2.22 0.15 6177
0.04 -0.00 -2.86 -3.24 12.12 -0.55 2.25 0.30 6183
0.03 -0.00 -3.47 -3.37 12.22 -0.48 2.22 0.48 6190
0.05 0.00 -3.84 -3.38 12.26 -0.42 2.11 0.70 6197
0.04 -0.00 -4.03 -3.35 12.19 -0.36 1.93 0.95 6203
0.03 -0.00 -3.97 -3.32 12.00 -0.33 1.70 1.24 6209
0.04 0.01 -3.62 -3.43 11.64 -0.29 1.47 1.53 6215
0.03 -0.00 -3.09 -3.66 11.25 -0.27 1.25 1.80 6221
0.03 -0.00 -2.53 -3.84 10.72 -0.24 1.06 2.04 6228
0.04 0.01 -2.11 -3.97 10.33 -0.18 1.00 2.25 6235
0.04 -0.00 -1.84 -4.09 9.88 -0.10 1.01 2.42 6241
0.03 -0.00 -1.80 -4.31 9.58 0.00 1.09 2.50 6247
0.04 -0.00 -2.25 -4.80 9.32 0.11 1.21 2.57 6253
0.05 -0.01 -3.17 -5.42 9.28 0.23 1.32 2.58 6259
0.04 -0.00 -4.42 -5.85 9.49 0.34 1.34 2.51 6265
0.04 -0.00 -5.22 -5.74 10.17 0.45 1.27 2.38 6272
0.04 -0.00 -5.87 -5.18 11.04 0.49 1.24 2.23 6279
0.04 -0.00 -6.54 -4.63 11.45 0.43 1.15 2.07 6285
0.03 -0.00 -7.24 -4.01 11.45 0.29 1.01 1.95 6291
0.02 -0.00 -7.82 -3.59 11.10 0.10 0.81 1.81 6297
0.04 -0.00 -8.05 -3.36 10.70 -0.08 0.58 1.68 6303
0.04 -0.00 -7.90 -3.43 9.57 -0.21 0.37 1.55 6309
0.03 -0.00 -7.47 -3.79 8.18 -0.30 0.23 1.42 6316
0.03 -0.00 -6.83 -4.15 6.89 -0.25 0.16 1.30 6323
0.04 -0.00 -6.25 -4.60 5.55 -0.14 0.19 1.17 6329
0.03 -0.00 -5.34 -4.88 4.80 0.03 0.32 1.08 6335
0.04 -0.00 -4.63 -4.80 4.82 0.23 0.50 1.01 6341
0.04 -0.00 -4.11 -4.46 4.80 0.43 0.67 0.99 6347
0.04 -0.00 -3.54 -3.87 4.76 0.57 0.82 1.03 6353
0.04 -0.00 -2.87 -3.14 4.65 0.71 0.91 1.18 6360
0.03 -0.00 -75.30 -15.94 78.47 0.89 -2.07 0.94 6366
0.04 0.00 -14.46 7.26 -21.03 0.11 -4.28 1.54 6373
0.05 0.00 -17.11 -10.14 16.79 0.26 -4.28 2.24 6379
0.06 0.05 -47.08 20.73 78.47 -0.52 -4.28 1.74 6385
0.02 0.26 -24.27 -17.84 25.07 -0.23 -0.80 0.78 6392
0.03 0.55 -12.11 -2.48 17.80 -0.55 -0.38 0.19 6398
0.03 0.74 0.01 0.51 12.20 -0.16 -0.08 -0.03 6405
0.05 0.58 3.20 1.02 10.38 0.11 -0.09 0.09 6411
0.03 0.50 3.47 0.75 10.27 0.17 -0.14 0.27 6418
0.04 0.35 0.76 -0.86 10.18 0.14 -0.20 0.39 6424
0.04 0.28 -0.48 -0.72 9.78 0.05 -0.27 0.39 6430
0.07 0.26 -0.04 -1.68 9.55 0.02 -0.26 0.32 6436
0.09 0.21 0.37 -2.09 10.16 -0.03 -0.21 0.25 6443
0.08 0.25 0.66 -1.95 9.98 -0.08 -0.16 0.19 6449
0.14 0.29 -0.33 -1.32 9.61 -0.08 -0.10 0.10 6456
0.15 0.32 -0.02 -1.07 9.63 -0.11 -0.04 0.05 6462
0.16 0.34 0.48 -0.96 10.06 -0.12 -0.04 0.04 6468
0.17 0.40 0.54 -0.34 10.44 -0.09 -0.05 0.03 6474
0.20 0.43 0.51 -0.57 10.28 -0.05 -0.03 0.03 6480
0.24 0.43 0.54 -0.56 10.16 -0.01 -0.03 0.04 6487
0.27 0.43 0.60 -0.57 10.05 -0.02 -0.04 0.06 6494
0.29 0.41 0.67 -0.97 9.98 -0.02 -0.05 0.07 6500
0.28 0.43 0.72 -0.85 10.06 -0.04 -0.06 0.07 6506
0.27 0.47 0.68 -0.77 10.02 -0.07 -0.06 0.06 6512
0.29 0.49 0.64 -0.71 10.06 -0.08 -0.07 0.05 6518
0.26 0.50 0.56 -0.69 10.07 -0.06 -0.07 0.05 6525
0.25 0.54 0.62 -0.63 10.00 -0.05 -0.06 0.04 6532
0.30 0.54 0.20 -0.49 10.07 -0.03 -0.06 0.04 6538
0.32 0.56 0.46 -0.63 10.08 -0.02 -0.06 0.04 6544
0.33 0.53 0.51 -0.72 10.02 -0.03 -0.06 0.04 6550
0.33 0.53 0.55 -0.70 10.08 -0.03 -0.05 0.03 6557
0.32 0.49 0.54 -0.74 10.11 -0.02 -0.05 0.03 6563
0.34 0.54 0.57 -0.72 9.98 -0.02 -0.05 0.03 6569
0.34 0.53 1.20 -0.70 9.98 -0.02 -0.05 0.03 6576
0.33 0.51 0.60 -0.69 10.02 -0.02 -0.06 0.02 6582
0.36 0.50 0.61 -0.72 10.08 -0.02 -0.05 0.02 6588
0.39 0.49 0.55 -0.67 10.04 -0.01 -0.05 0.02 6595
0.38 0.47 0.57 -0.68 10.04 -0.01 -0.05 0.02 6601
0.40 0.49 0.52 -0.68 10.04 -0.01 -0.04 0.02 6607
0.41 0.50 0.52 -0.68 10.10 -0.01 -0.04 0.02 6614
0.43 0.44 0.56 -0.70 10.04 -0.01 -0.04 0.02 6620
0.40 0.46 0.55 -0.68 10.04 -0.01 -0.04 0.02 6627
0.42 0.47 0.56 -0.69 10.05 -0.01 -0.04 0.02 6633
0.40 0.45 0.57 -0.72 10.02 -0.01 -0.04 0.02 6639
0.39 0.46 0.59 -0.72 9.99 -0.01 -0.03 0.02 6645
0.40 0.45 0.57 -0.69 10.08 -0.00 -0.03 0.02 6651
0.40 0.46 0.56 -0.66 10.04 -0.01 -0.03 0.02 6658
0.41 0.45 0.50 -0.67 10.01 -0.01 -0.03 0.02 6665
0.43 0.42 0.50 -0.68 10.05 -0.00 -0.02 0.02 6671
0.41 0.42 0.52 -0.67 10.00 0.00 -0.02 0.02 6677
0.41 0.42 0.47 -0.68 9.98 0.00 -0.02 0.01 6683
0.42 0.40 0.54 -0.66 10.01 0.01 -0.02 0.02 6689
0.39 0.38 0.55 -0.69 10.05 0.01 -0.01 0.01 6696
0.40 0.36 0.61 -0.67 10.01 0.01 -0.01 0.02 6703
0.43 0.35 0.62 -0.72 10.04 0.01 -0.02 0.02 6709
0.43 0.32 0.55 -0.71 9.98 0.00 -0.02 0.02 6715
0.45 0.36 0.58 -0.70 10.03 0.00 -0.02 0.02 6721
0.47 0.33 0.58 -0.73 10.00 0.01 -0.02 0.01 6727
0.47 0.35 0.51 -0.71 10.03 0.01 -0.02 0.01 6734
0.45 0.34 0.56 -0.71 10.04 0.01 -0.02 0.01 6740
0.48 0.31 0.57 -0.72 10.04 0.01 -0.02 0.01 6747
0.48 0.28 0.55 -0.69 10.02 0.01 -0.02 0.01 6753
0.46 0.26 0.57 -0.70 9.99 0.01 -0.01 0.01 6759
0.47 0.27 0.57 -0.68 10.01 0.01 -0.01 0.01 6765
0.48 0.25 0.60 -0.68 10.02 0.01 -0.01 0.01 6772
0.46 0.26 0.55 -0.74 9.98 0.01 -0.01 0.01 6778
0.48 0.25 0.53 -0.68 9.98 0.01 -0.01 0.01 6785
0.48 0.25 0.57 -0.71 9.96 0.01 -0.00 0.01 6791
0.47 0.21 0.59 -0.70 9.99 0.01 -0.00 0.01 6797
0.48 0.22 0.59 -0.71 10.03 0.01 -0.00 0.01 6803
0.49 0.21 0.58 -0.68 9.99 0.01 0.00 0.01 6809
0.50 0.22 0.61 -0.71 10.03 0.01 0.00 0.01 6816
0.50 0.15 0.60 -0.68 10.03 0.01 -0.00 0.01 6822
0.50 0.18 0.58 -0.69 10.05 0.01 0.00 0.01 6829
0.51 0.14 0.60 -0.70 10.03 0.00 -0.00 0.01 6835
0.50 0.15 0.61 -0.73 10.07 0.01 -0.01 0.01 6841
0.48 0.19 0.59 -0.70 10.01 0.01 -0.01 0.01 6847
0.49 0.18 0.62 -0.68 9.97 0.00 -0.01 0.01 6854
0.48 0.17 0.66 -0.73 10.00 -0.00 -0.01 0.00 6860
0.45 0.16 0.60 -0.73 10.01 0.00 -0.01 0.00 6866
0.49 0.14 0.61 -0.73 10.03 -0.00 -0.01 0.00 6873
0.51 0.14 0.62 -0.72 9.99 -0.00 -0.01 0.00 6879
0.51 0.14 0.60 -0.73 10.10 -0.01 -0.01 0.00 6885
0.51 0.16 0.56 -0.71 9.97 -0.01 -0.01 0.00 6892
0.50 0.14 0.57 -0.71 10.03 -0.01 -0.01 0.00 6898
0.49 0.15 0.61 -0.72 10.02 -0.01 -0.01 0.01 6904
0.48 0.15 0.60 -0.72 10.04 -0.01 -0.01 0.00 6910
0.48 0.15 0.67 -0.69 10.06 -0.01 -0.01 0.00 6917
0.48 0.14 0.56 -0.70 9.99 -0.01 -0.01 0.01 6923
0.43 0.17 0.63 -0.71 10.03 -0.01 -0.02 0.01 6930
0.42 0.17 0.63 -0.70 10.03 -0.01 -0.02 0.01 6936
0.42 0.18 0.63 -0.69 10.02 -0.01 -0.02 0.00 6942
0.43 0.19 0.62 -0.73 10.03 -0.02 -0.02 0.01 6948
0.39 0.20 0.63 -0.70 9.98 -0.02 -0.03 0.01 6955
0.36 0.21 0.65 -0.73 10.00 -0.02 -0.03 0.01 6961
0.34 0.26 0.60 -0.70 10.04 -0.02 -0.03 0.00 6968
0.32 0.24 0.60 -0.72 10.01 -0.01 -0.04 0.00 6974
0.31 0.24 0.01 -0.70 10.06 -0.02 -0.04 0.00 6980
0.34 0.28 0.57 -0.73 9.94 -0.02 -0.03 -0.00 6986
0.34 0.28 0.57 -0.72 9.96 -0.01 -0.03 -0.00 6992
0.32 0.28 0.59 -0.71 10.05 -0.01 -0.03 -0.00 7000
0.31 0.29 0.62 -0.71 10.01 -0.01 -0.02 -0.01 7006
0.31 0.30 0.62 -0.72 10.02 -0.01 -0.03 -0.00 7012
0.31 0.28 0.59 -0.69 9.99 -0.00 -0.03 -0.01 7018
0.27 0.31 0.61 -0.72 10.05 0.00 -0.02 -0.00 7024
0.29 0.30 0.59 -0.72 10.09 -0.00 -0.03 -0.01 7030
0.29 0.27 0.61 -0.75 10.10 0.00 -0.02 -0.00 7037
0.27 0.26 0.64 -0.73 10.07 0.01 -0.03 -0.00 7044
0.28 0.26 0.64 -0.76 10.04 0.01 -0.03 -0.01 7050
0.27 0.24 0.66 -0.71 10.10 0.01 -0.03 -0.00 7056
0.24 0.23 0.66 -0.74 10.05 0.02 -0.03 -0.01 7062
0.26 0.19 0.64 -0.72 10.10 0.02 -0.04 -0.01 7069
0.22 0.14 0.63 -0.74 10.05 0.03 -0.04 -0.01 7075
0.23 0.15 0.62 -0.74 10.10 0.03 -0.04 -0.01 7081
0.24 0.09 0.67 -0.68 10.05 0.05 -0.04 -0.01 7088
0.22 0.05 0.72 -0.69 10.19 0.06 -0.04 -0.02 7094
0.20 0.04 0.75 -0.77 10.19 0.09 -0.05 -0.03 7101
0.22 0.02 0.80 -0.80 10.28 0.12 -0.06 -0.04 7107
0.21 -0.01 0.90 -0.77 10.34 0.16 -0.07 -0.06 7113
0.23 -0.01 1.71 -0.58 10.74 0.22 -0.11 -0.11 7119
0.26 -0.03 1.37 -1.05 10.97 0.33 -0.18 -0.16 7126
0.29 -0.02 2.69 -1.17 11.70 0.46 -0.27 -0.29 7133
0.29 -0.02 3.74 -1.75 12.09 0.71 -0.43 -0.45 7139
0.32 -0.03 4.70 -2.34 13.05 0.93 -0.53 -0.73 7145
0.29 -0.02 2.81 -1.94 15.17 1.23 -0.64 -0.98 7151
0.34 -0.03 3.71 -2.11 16.03 1.72 -0.85 -1.09 7157
0.35 -0.03 3.70 -2.42 13.92 2.06 -1.15 -1.26 7164
0.31 -0.02 4.73 -3.02 13.48 2.15 -1.18 -1.50 7171
0.32 -0.03 5.07 -3.80 13.25 2.24 -1.27 -1.70 7177
0.29 -0.03 5.78 -3.62 13.41 2.35 -1.33 -1.88 7183
0.25 -0.01 6.90 -4.03 11.29 2.37 -1.31 -2.11 7190
0.20 -0.02 8.20 -4.35 11.42 2.27 -1.06 -2.42 7196
0.11 -0.01 7.97 -4.17 11.80 2.11 -0.76 -2.71 7202
0.09 0.00 10.31 -3.97 12.72 1.89 -0.46 -2.94 7208
0.07 -0.01 9.06 -4.04 12.45 1.63 -0.13 -3.15 7215
0.04 -0.00 8.88 -3.28 12.69 1.35 0.13 -3.38 7221
0.05 0.00 6.89 -3.11 12.50 1.03 0.23 -3.55 7228
0.06 -0.01 5.40 -2.30 12.34 0.73 0.04 -3.73 7234
0.03 -0.00 3.87 -0.58 11.49 0.38 -0.40 -3.84 7240
0.05 0.00 3.61 0.60 9.75 0.06 -0.96 -3.92 7246
0.06 -0.01 3.08 1.24 7.39 -0.18 -1.45 -4.02 7252
0.05 -0.01 3.39 1.40 6.31 -0.32 -2.03 -4.16 7259
0.03 -0.00 5.00 -0.08 7.86 -0.42 -2.40 -4.18 7265
0.03 0.00 6.79 -1.48 11.23 -0.78 -2.11 -4.00 7272
0.05 -0.00 7.12 -0.85 11.05 -1.25 -1.38 -3.67 7278
0.04 -0.00 7.95 -0.33 10.38 -1.52 -0.71 -3.28 7284
0.05 -0.00 7.87 -0.87 8.29 -1.67 -0.37 -2.90 7290
0.04 -0.00 7.53 -1.57 5.96 -1.75 -0.33 -2.54 7297
0.04 -0.00 7.04 -2.24 4.89 -1.66 -0.39 -2.15 7303
0.04 -0.00 6.97 -3.24 4.39 -1.44 -0.41 -1.80 7310
0.04 -0.00 7.72 -4.02 4.21 -1.09 -0.31 -1.36 7316
0.02 -0.00 8.82 -4.25 4.57 -0.69 -0.11 -0.94 7322
0.03 -0.00 9.57 -4.00 5.10 -0.32 0.22 -0.54 7328
0.03 -0.00 9.60 -3.59 5.68 -0.07 0.65 -0.19 7334
0.05 -0.01 8.99 -3.27 6.60 0.11 1.01 0.13 7341
0.04 -0.00 7.77 -3.04 7.75 0.20 1.36 0.42 7347
0.06 -0.01 6.58 -2.83 8.56 0.25 1.58 0.68 7353
0.06 -0.01 5.56 -2.73 9.20 0.27 1.70 0.99 7359
0.06 -0.01 4.64 -2.53 9.87 0.26 1.73 1.29 7365
0.03 -0.00 3.87 -2.37 10.34 0.23 1.71 1.56 7372
0.02 -0.00 3.32 -2.24 10.94 0.17 1.64 1.79 7378
0.04 0.00 2.93 -2.05 11.33 0.10 1.64 1.97 7385
0.05 -0.00 2.47 -1.27 11.62 0.01 1.61 2.08 7391
0.05 -0.00 1.85 -1.60 11.75 -0.09 1.60 2.11 7397
0.04 -0.00 1.11 -1.45 11.82 -0.20 1.59 2.10 7403
0.06 -0.01 0.28 -1.39 11.68 -0.31 1.58 2.00 7410
0.04 -0.00 -0.46 -1.39 11.42 -0.41 1.56 1.84 7416
0.05 -0.00 -1.01 -1.37 11.29 -0.50 1.52 1.64 7422
0.05 -0.01 -1.36 -1.32 11.24 -0.57 1.47 1.43 7429
0.04 -0.00 -1.42 -1.33 10.76 -0.62 1.42 1.22 7435
0.03 -0.00 -1.34 -1.60 9.91 -0.63 1.40 1.05 7441
0.04 0.01 -1.06 -1.97 9.52 -0.59 1.40 0.90 7447
0.04 -0.00 -0.70 -2.28 9.67 -0.48 1.40 0.81 7454
0.03 -0.00 -0.38 -2.49 10.03 -0.34 1.40 0.72 7460
0.03 -0.00 -0.08 -2.50 10.14 -0.23 1.39 0.65 7467
0.03 -0.00 0.12 -2.39 10.21 -0.14 1.34 0.61 7473
0.02 -0.00 0.35 -2.22 10.39 -0.07 1.26 0.61 7479
0.02 -0.00 0.70 -2.06 10.58 -0.08 1.17 0.65 7485
0.03 -0.00 1.03 -1.77 10.73 -0.05 1.12 0.74 7491
0.03 -0.00 1.41 -1.48 10.91 -0.05 1.13 0.86 7498
0.04 -0.00 1.52 -1.29 11.01 -0.06 1.19 0.97 7504
0.03 0.00 1.29 -1.28 11.14 -0.10 1.29 1.10 7511
0.04 -0.00 0.94 -1.18 11.27 -0.15 1.37 1.23 7517
0.03 -0.00 0.49 -0.97 11.32 -0.21 1.41 1.37 7523
0.04 -0.00 -0.06 -0.79 11.12 -0.27 1.40 1.51 7529
0.04 -0.00 -0.55 -0.70 10.79 -0.32 1.32 1.65 7536
0.03 -0.00 -0.91 -0.89 10.60 -0.35 1.20 1.79 7542
0.03 -0.00 -1.14 -1.45 10.06 -0.38 1.09 1.91 7548
0.03 -0.00 -1.05 -2.17 9.40 -0.37 1.00 2.01 7555
0.03 -0.00 -1.03 -2.80 8.94 -0.30 0.94 2.06 7561
0.03 -0.00 -1.09 -3.46 8.61 -0.19 0.93 2.07 7567
0.03 -0.00 -1.18 -4.00 8.31 -0.06 0.99 2.04 7573
0.03 0.00 -1.41 -4.38 8.25 0.08 1.12 1.99 7579
0.03 -0.00 -1.78 -4.81 8.90 0.19 1.28 1.93 7586
0.04 -0.00 -2.24 -5.03 9.67 0.30 1.43 1.89 7592
0.03 -0.00 -3.14 -5.04 10.39 0.36 1.47 1.86 7599
0.05 -0.00 -3.96 -4.98 10.77 0.37 1.42 1.90 7605
0.03 -0.00 -4.56 -4.82 10.85 0.33 1.22 1.93 7611
0.04 -0.00 -4.92 -4.67 10.57 0.26 0.92 2.06 7617
0.04 -0.00 -4.94 -4.54 10.24 0.20 0.58 2.22 7623
0.03 -0.00 -4.77 -4.59 9.62 0.14 0.28 2.38 7630
0.02 -0.00 -4.57 -4.96 8.80 0.13 0.08 2.52 7636
0.05 -0.00 -4.72 -5.24 7.99 0.11 0.02 2.61 7643
0.05 -0.01 -5.17 -5.30 7.33 0.11 0.03 2.65 7649
0.04 -0.00 -5.99 -5.17 6.93 0.14 0.08 2.64 7655
0.04 -0.00 -7.12 -4.85 6.46 0.19 0.11 2.61 7661
0.04 -0.00 -8.06 -4.36 5.86 0.25 0.10 2.54 7667
0.05 -0.01 -43.99 -17.55 29.64 1.19 -4.02 2.69 7673
0.04 -0.00 -32.99 -9.72 4.35 1.28 -4.28 3.10 7681
0.03 -0.00 -11.18 -9.51 -7.10 0.79 -4.28 2.99 7687
0.05 0.04 -16.94 11.27 23.43 0.65 -4.28 2.30 7693
0.03 0.42 -44.69 -38.55 78.47 1.98 -4.04 1.53 7699
0.01 0.77 -5.60 0.86 12.02 0.21 -1.87 0.49 7706
0.01 0.88 -4.31 1.51 16.01 0.18 -0.62 0.01 7712
0.03 0.77 -0.81 0.91 11.02 -0.03 0.12 -0.14 7718
0.02 0.62 2.87 0.01 6.97 0.09 -0.07 -0.11 7725
0.02 0.44 4.84 -0.33 9.33 0.35 -0.56 0.16 7731
0.02 0.40 3.20 -0.89 11.03 0.27 -0.46 0.45 7738
0.04 0.40 0.93 -0.12 10.12 0.07 -0.28 0.45 7744
0.02 0.43 -1.65 -3.48 10.38 -0.02 -0.23 0.31 7750
0.03 0.46 -0.32 -1.97 9.24 0.00 -0.13 0.18 7756
0.04 0.51 -0.16 -1.11 9.87 -0.03 -0.08 0.12 7762
0.04 0.54 0.33 -1.16 9.96 -0.06 -0.05 0.09 7769
0.03 0.56 0.46 -0.99 10.32 -0.06 -0.04 0.06 7776
0.07 0.61 0.59 -0.66 10.30 -0.05 -0.04 0.04 7782
0.04 0.63 0.53 -0.50 10.19 -0.01 -0.03 0.04 7788
0.06 0.64 0.53 -0.62 10.13 0.00 -0.02 0.04 7794
0.08 0.65 0.67 -0.74 9.98 -0.00 -0.02 0.05 7800
0.09 0.64 0.61 -0.83 10.03 -0.01 -0.02 0.06 7808
0.10 0.63 0.59 -0.84 9.90 -0.03 -0.02 0.06 7814
0.11 0.67 0.64 -0.85 10.05 -0.04 -0.02 0.06 7820
0.12 0.62 0.72 -0.83 10.15 -0.04 -0.03 0.06 7826
0.09 0.66 0.74 -0.75 10.19 -0.04 -0.03 0.06 7832
0.09 0.66 0.65 -0.69 10.04 -0.03 -0.04 0.05 7838
0.12 0.68 0.68 -0.76 10.12 -0.03 -0.04 0.05 7845
0.12 0.68 0.68 -0.75 10.05 -0.02 -0.04 0.05 7852
0.13 0.69 0.67 -0.74 10.04 -0.02 -0.04 0.05 7858
0.12 0.69 0.68 -0.74 10.01 -0.02 -0.04 0.05 7864
0.10 0.74 0.66 -0.73 10.04 -0.02 -0.04 0.05 7870
0.11 0.74 0.69 -0.73 9.96 -0.02 -0.04 0.04 7877
0.10 0.76 0.02 -0.70 9.92 -0.02 -0.04 0.04 7883
0.10 0.73 0.63 -0.75 10.01 -0.02 -0.03 0.04 7889
0.10 0.75 0.65 -0.67 9.97 -0.02 -0.02 0.03 7896
0.12 0.72 0.60 -0.73 9.95 -0.02 -0.01 0.03 7902
0.13 0.70 0.66 -0.71 9.98 -0.01 -0.01 0.03 7908
0.12 0.68 0.63 -0.70 9.93 -0.01 -0.01 0.03 7914
0.13 0.67 0.67 -0.70 10.11 -0.01 -0.01 0.03 7921
0.11 0.63 0.66 -0.72 10.04 -0.01 -0.01 0.03 7927
0.13 0.63 0.69 -0.72 10.05 -0.01 -0.00 0.03 7933
0.14 0.62 0.70 -0.73 10.04 -0.01 -0.00 0.03 7940
0.13 0.59 0.70 -0.70 10.00 -0.01 -0.00 0.03 7946
0.14 0.61 0.74 -0.71 10.05 -0.00 0.01 0.03 7953
0.14 0.59 0.67 -0.71 10.03 -0.01 -0.00 0.03 7959
0.13 0.54 -0.05 0.43 10.15 0.00 -0.02 0.04 7965
0.12 0.51 0.69 -0.72 10.04 -0.01 -0.01 0.02 7971
0.16 0.53 0.70 -0.74 10.04 -0.01 -0.01 0.02 7977
0.15 0.53 0.74 -0.72 10.04 -0.01 -0.02 0.02 7985
0.14 0.52 0.72 -0.69 10.06 -0.01 -0.02 0.02 7991
0.15 0.49 0.75 -0.70 10.07 -0.01 -0.02 0.02 7997
0.15 0.49 0.73 -0.73 9.99 -0.01 -0.03 0.02 8003
0.16 0.50 0.69 -0.72 9.98 -0.01 -0.03 0.02 8009
0.17 0.52 0.71 -0.70 10.01 -0.01 -0.03 0.02 8015
0.17 0.51 0.71 -0.71 10.00 -0.01 -0.03 0.02 8023
0.16 0.48 0.68 -0.68 10.03 -0.01 -0.03 0.02 8029
0.17 0.49 0.70 -0.70 10.01 -0.01 -0.03 0.02 8035
0.17 0.47 0.68 -0.69 10.04 -0.01 -0.03 0.02 8041
0.17 0.46 0.67 -0.70 10.05 -0.01 -0.03 0.02 8047
0.19 0.42 0.71 -0.71 10.01 -0.01 -0.03 0.01 8054
0.17 0.43 0.71 -0.67 9.98 -0.01 -0.04 0.02 8060
0.17 0.42 0.70 -0.70 9.99 -0.01 -0.04 0.01 8067
0.17 0.42 0.69 -0.73 9.96 -0.01 -0.03 0.01 8073
0.17 0.44 0.72 -0.72 10.01 -0.02 -0.04 0.01 8079
0.16 0.45 0.69 -0.73 9.99 -0.02 -0.04 0.01 8085
0.17 0.45 0.71 -0.72 10.02 -0.01 -0.04 0.01 8091
0.17 0.42 0.72 -0.74 10.06 -0.02 -0.04 0.01 8098
0.16 0.40 0.75 -0.68 10.03 -0.02 -0.04 0.01 8104
0.17 0.42 0.70 -0.77 10.03 -0.02 -0.04 0.01 8111
0.17 0.41 0.71 -0.71 10.04 -0.02 -0.04 0.01 8117
0.16 0.41 0.71 -0.71 10.01 -0.02 -0.04 0.01 8123
0.17 0.41 0.70 -0.68 10.03 -0.02 -0.04 0.01 8130
0.17 0.41 0.69 -0.74 10.00 -0.02 -0.04 0.01 8136
0.15 0.41 0.70 -0.70 10.02 -0.02 -0.04 0.01 8142
0.17 0.43 0.68 -0.70 10.00 -0.02 -0.04 0.01 8148
0.17 0.42 0.69 -0.69 10.04 -0.01 -0.03 0.01 8155
0.16 0.42 0.68 -0.70 9.99 -0.01 -0.03 0.01 8162
0.16 0.42 0.68 -0.68 9.93 -0.01 -0.02 0.01 8168
0.16 0.42 0.66 -0.68 9.93 -0.01 -0.02 0.00 8174
0.15 0.43 0.67 -0.69 10.03 -0.02 -0.02 0.00 8180
0.14 0.43 0.71 -0.68 9.99 -0.02 -0.02 0.00 8186
0.14 0.43 0.74 -0.71 10.01 -0.02 -0.02 0.00 8193
0.12 0.42 0.66 -0.68 10.00 -0.02 -0.02 0.01 8200
0.10 0.43 0.72 -0.68 10.05 -0.02 -0.02 0.00 8206
0.13 0.46 0.71 -0.70 10.01 -0.02 -0.02 0.00 8212
0.11 0.45 0.67 -0.69 10.06 -0.02 -0.03 0.00 8218
0.10 0.46 0.72 -0.68 9.98 -0.02 -0.03 0.01 8224
0.10 0.47 0.72 -0.67 10.00 -0.02 -0.03 0.01 8230
0.10 0.46 0.70 -0.70 9.99 -0.02 -0.04 0.01 8238
0.11 0.47 0.87 -0.88 10.07 -0.02 -0.04 0.01 8244
0.11 0.47 0.72 -0.68 10.02 -0.02 -0.04 0.01 8250
0.09 0.48 0.72 -0.68 10.00 -0.02 -0.04 0.01 8256
0.07 0.49 0.68 -0.67 9.99 -0.02 -0.04 0.01 8262
0.09 0.51 0.67 -0.69 9.99 -0.01 -0.05 0.01 8268
0.09 0.51 0.71 -0.66 9.98 -0.02 -0.05 0.01 8275
0.10 0.50 0.66 -0.71 10.00 -0.02 -0.04 0.01 8282
0.07 0.57 0.71 -0.68 10.02 -0.02 -0.04 0.01 8288
0.08 0.55 0.68 -0.69 10.00 -0.02 -0.04 0.01 8294
0.05 0.55 0.68 -0.66 10.06 -0.02 -0.04 0.01 8300
0.04 0.57 0.65 -0.72 10.03 -0.02 -0.03 0.01 8306
0.05 0.60 0.66 -0.68 10.04 -0.02 -0.03 0.01 8313
0.05 0.58 0.67 -0.68 10.02 -0.02 -0.04 0.01 8320
0.05 0.62 0.65 -0.67 9.99 -0.01 -0.03 0.01 8326
0.07 0.63 0.61 -0.71 10.03 -0.02 -0.03 0.01 8332
0.06 0.63 0.72 -0.71 10.02 -0.02 -0.03 0.01 8338
0.06 0.63 0.73 -0.69 10.03 -0.02 -0.03 0.01 8344
0.06 0.66 0.65 -0.71 10.02 -0.02 -0.03 0.00 8351
0.05 0.64 0.67 -0.68 10.03 -0.01 -0.03 0.00 8357
0.04 0.67 0.66 -0.69 10.03 -0.01 -0.02 0.00 8364
0.03 0.69 0.68 -0.68 9.95 -0.01 -0.03 0.00 8370
0.03 0.70 0.71 -0.70 10.01 -0.01 -0.03 0.00 8376
0.03 0.70 0.68 -0.68 10.02 -0.01 -0.03 0.00 8382
0.04 0.73 0.70 -0.67 10.06 -0.01 -0.03 0.00 8389
0.03 0.72 0.65 -0.68 9.99 -0.01 -0.02 0.00 8395
0.00 0.74 0.66 -0.65 10.00 -0.01 -0.02 0.00 8401
0.01 0.75 0.76 -0.65 10.07 -0.01 -0.02 0.00 8408
0.04 0.72 0.79 -0.72 9.99 0.00 -0.02 0.01 8414
0.04 0.70 0.74 -0.73 10.02 0.00 -0.02 0.01 8420
0.02 0.69 0.77 -0.65 9.98 0.01 -0.03 0.01 8427
0.04 0.68 0.78 -0.67 10.03 0.02 -0.03 0.02 8433
0.04 0.64 0.73 -0.69 10.01 0.02 -0.04 0.02 8439
0.04 0.62 0.74 -0.66 10.02 0.02 -0.04 0.02 8445
0.05 0.59 0.70 -0.69 10.02 0.03 -0.04 0.02 8452
0.04 0.54 0.69 -0.73 10.08 0.03 -0.04 0.02 8458
0.03 0.48 0.69 -0.72 10.03 0.03 -0.04 0.02 8465
0.06 0.46 0.70 -0.74 10.03 0.03 -0.04 0.02 8471
0.04 0.40 0.73 -0.68 10.02 0.03 -0.03 0.01 8477
0.04 0.33 0.75 -0.69 10.03 0.04 -0.03 0.01 8483
0.06 0.28 0.69 -0.68 9.93 0.04 -0.03 0.00 8489
0.07 0.25 0.74 -0.69 10.07 0.06 -0.03 -0.00 8497
0.07 0.16 0.76 -0.64 10.10 0.07 -0.03 -0.01 8503
0.09 0.11 0.78 -0.73 10.07 0.08 -0.04 -0.01 8509
0.08 0.04 0.75 -0.76 10.15 0.10 -0.05 -0.02 8515
0.10 0.02 0.89 -0.85 10.25 0.12 -0.06 -0.03 8521
0.15 -0.01 0.92 -0.80 10.44 0.15 -0.08 -0.04 8527
0.16 -0.02 1.07 -0.89 10.47 0.21 -0.12 -0.07 8535
0.17 -0.01 1.38 -0.89 10.64 0.29 -0.15 -0.13 8541
0.20 -0.02 1.35 -1.37 11.44 0.43 -0.24 -0.20 8547
0.22 -0.02 2.51 -0.40 11.57 0.63 -0.34 -0.38 8553
0.22 -0.02 3.21 -1.77 13.81 1.01 -0.46 -0.59 8559
0.26 -0.03 2.34 -1.88 14.39 1.44 -0.65 -0.69 8566
0.26 -0.03 2.30 -1.64 14.23 1.74 -0.97 -0.74 8572
0.27 -0.02 2.72 -1.79 12.68 1.81 -1.11 -0.80 8579
0.29 -0.02 2.93 -2.14 12.27 1.78 -1.24 -0.88 8585
0.24 -0.02 2.73 -2.12 12.12 1.78 -1.27 -0.97 8591
0.21 -0.02 3.25 -2.36 12.04 1.77 -1.34 -1.04 8598
0.15 -0.02 4.04 -3.00 11.46 1.72 -1.35 -1.13 8604
0.16 -0.02 4.60 -3.27 10.84 1.63 -1.28 -1.27 8610
0.12 -0.01 5.62 -3.17 10.68 1.54 -1.17 -1.41 8616
0.09 -0.00 5.64 -3.65 11.01 1.40 -1.01 -1.58 8623
0.10 -0.01 5.81 -3.67 11.64 1.21 -0.83 -1.77 8630
0.07 0.01 7.12 -3.75 12.79 0.98 -0.76 -1.96 8636
0.08 -0.00 5.90 -3.07 12.55 0.74 -0.75 -2.12 8642
0.04 -0.00 5.71 -1.54 11.36 0.51 -0.83 -2.27 8648
0.04 0.00 5.38 0.83 10.79 0.27 -1.07 -2.39 8654
0.06 -0.01 5.59 2.65 10.55 -0.01 -1.38 -2.47 8662
0.04 -0.00 8.15 7.41 9.62 -0.30 -1.61 -2.33 8668
0.06 0.01 9.81 7.39 8.57 -0.59 -1.63 -1.93 8674
0.04 0.00 9.92 5.14 8.74 -0.81 -1.47 -1.29 8680
0.04 -0.00 9.92 4.44 10.82 -0.99 -1.05 -0.80 8686
0.04 -0.00 9.83 4.68 9.59 -1.26 -0.73 -0.40 8692
0.05 -0.01 8.61 3.90 6.50 -1.36 -0.66 -0.21 8698
0.04 -0.00 7.24 2.37 4.95 -1.29 -0.62 -0.17 8706
0.04 -0.00 6.66 0.83 4.74 -1.09 -0.46 -0.23 8712
0.04 0.01 7.26 0.02 6.32 -0.83 -0.19 -0.34 8718
0.04 -0.00 7.68 -0.00 8.10 -0.55 0.05 -0.45 8724
0.03 -0.00 7.45 0.59 8.95 -0.39 0.36 -0.52 8730
0.02 -0.00 6.89 1.60 9.42 -0.37 0.64 -0.53 8736
0.02 0.00 6.02 1.93 9.74 -0.43 0.81 -0.48 8742
0.02 -0.00 5.31 1.56 10.02 -0.53 0.84 -0.36 8749
0.03 -0.00 4.76 0.92 10.21 -0.55 0.78 -0.22 8756
0.05 -0.01 4.59 0.32 10.19 -0.55 0.68 -0.06 8762
0.05 -0.01 4.70 -0.02 10.04 -0.51 0.63 0.06 8768
0.04 -0.00 4.95 -0.13 9.87 -0.49 0.61 0.15 8774
0.04 -0.00 5.11 -0.26 9.86 -0.46 0.68 0.22 8780
0.04 -0.00 5.06 -0.40 10.30 -0.47 0.80 0.27 8786
0.06 -0.01 4.84 -0.41 10.77 -0.47 0.94 0.31 8793
0.04 -0.00 4.49 -0.25 11.09 -0.49 1.05 0.35 8799
0.03 -0.00 4.07 -0.22 11.18 -0.52 1.11 0.40 8806
0.04 -0.00 3.64 -0.34 11.14 -0.57 1.13 0.44 8812
0.04 -0.00 3.37 -0.53 11.23 -0.62 1.12 0.46 8818
0.04 -0.00 3.23 -0.62 11.30 -0.65 1.11 0.49 8824
0.05 -0.00 3.06 -0.71 11.19 -0.68 1.11 0.51 8830
0.05 -0.00 2.88 -1.01 10.82 -0.69 1.15 0.51 8837
0.03 -0.00 2.52 -1.32 10.55 -0.67 1.20 0.48 8844
0.04 -0.00 2.13 -1.56 10.57 -0.63 1.26 0.44 8850
0.04 -0.00 1.77 -1.62 10.65 -0.58 1.30 0.38 8856
0.03 -0.00 1.57 -1.50 10.70 -0.53 1.32 0.32 8862
0.02 -0.00 1.52 -1.46 10.63 -0.49 1.31 0.28 8868
0.04 -0.00 1.48 -1.50 10.70 -0.46 1.29 0.27 8875
0.03 -0.00 1.52 -1.62 10.74 -0.42 1.27 0.28 8881
0.03 -0.00 1.60 -1.92 10.73 -0.37 1.25 0.30 8888
0.05 0.00 1.76 -2.34 10.72 -0.30 1.27 0.32 8894
0.04 -0.00 1.86 -2.73 10.89 -0.24 1.31 0.35 8900
0.04 -0.00 2.01 -2.98 11.35 -0.18 1.39 0.36 8906
0.04 0.00 1.83 -3.25 11.55 -0.15 1.48 0.37 8912
0.04 -0.00 1.44 -3.48 11.68 -0.14 1.56 0.39 8920
0.04 -0.00 1.09 -3.77 11.93 -0.14 1.62 0.40 8926
0.03 -0.00 0.66 -4.04 12.11 -0.15 1.63 0.41 8932
0.04 -0.00 0.35 -4.23 12.12 -0.16 1.61 0.42 8938
0.03 -0.00 0.10 -4.31 11.88 -0.17 1.57 0.44 8944
0.04 -0.00 -0.00 -4.32 11.61 -0.17 1.50 0.47 8950
0.05 -0.01 -0.01 -4.30 11.36 -0.16 1.43 0.50 8956
0.03 -0.00 -0.01 -4.14 11.24 -0.15 1.37 0.56 8964
0.03 -0.00 -0.18 -4.05 10.98 -0.12 1.34 0.63 8970
0.04 0.01 -0.56 -3.96 10.73 -0.09 1.32 0.72 8976
0.04 -0.00 -1.05 -3.95 10.44 -0.06 1.27 0.81 8982
0.03 -0.00 -1.48 -3.95 10.29 -0.01 1.21 0.89 8988
0.04 0.00 -1.77 -4.03 10.09 0.03 1.16 0.97 8994
0.03 -0.00 -2.11 -4.06 9.93 0.09 1.12 1.04 9001
0.03 -0.00 -2.58 -4.14 9.82 0.14 1.11 1.08 9008
0.03 -0.00 -2.96 -4.25 9.75 0.20 1.09 1.11 9014
0.03 -0.00 -3.25 -4.32 9.72 0.24 1.07 1.12 9020
0.04 -0.00 -3.47 -4.30 9.71 0.29 1.05 1.12 9026
0.04 -0.00 -3.82 -4.22 9.57 0.31 1.04 1.11 9032
0.04 -0.00 -3.98 -4.03 9.49 0.34 1.00 1.09 9038
0.03 -0.00 -3.96 -3.83 9.37 0.35 1.01 1.08 9044
0.04 -0.00 -3.83 -3.52 9.27 0.35 0.99 1.08 9051
0.03 -0.00 -3.74 -3.22 8.84 0.34 0.97 1.10 9057
0.02 -0.00 -3.44 -2.98 8.35 0.33 0.93 1.15 9064
0.04 -0.00 -3.13 -2.78 7.86 0.34 0.88 1.22 9070
0.03 -0.00 -3.02 -2.84 7.22 0.35 0.81 1.31 9076
0.03 -0.00 -2.99 -2.96 6.41 0.39 0.78 1.40 9082
0.02 -0.00 -15.69 -8.37 13.88 0.79 -0.58 1.58 9089
0.04 -0.00 -14.93 -3.67 6.84 1.29 -2.64 2.00 9095
0.03 -0.00 -8.87 -3.53 -0.96 1.14 -2.82 2.31 9101
0.02 -0.00 -7.58 -8.11 6.48 1.35 -3.82 2.48 9107
0.04 0.00 -20.99 -10.65 10.88 1.12 -4.28 2.53 9114
0.04 -0.00 -26.66 -10.92 8.56 0.64 -4.28 2.48 9120
0.04 0.04 -18.67 -7.01 26.37 0.86 -4.28 2.32 9126
0.03 0.20 -28.94 -19.16 31.31 0.84 -3.81 1.73 9134
0.01 0.45 -12.03 -0.45 14.81 0.22 -1.68 0.78 9140
0.02 0.52 -5.34 0.12 15.34 0.04 -0.83 0.08 9146
0.02 0.54 0.55 1.32 10.52 -0.05 -0.08 -0.04 9152
-0.00 0.47 3.01 0.10 8.41 0.06 -0.15 0.04 9158
0.03 0.40 2.58 -0.34 9.77 0.23 -0.59 0.20 9165
0.04 0.38 3.10 0.34 10.64 0.20 -0.46 0.43 9171
0.03 0.37 1.02 -0.72 10.40 0.08 -0.36 0.40 9178
0.05 0.36 0.46 -1.69 10.14 -0.00 -0.36 0.26 9184
0.04 0.39 0.17 -1.60 9.70 -0.00 -0.30 0.21 9190
0.03 0.38 -0.20 -1.20 10.10 -0.03 -0.24 0.15 9197
0.07 0.41 0.14 -1.52 10.01 -0.07 -0.20 0.12 9203
0.07 0.40 -0.22 -0.78 9.51 -0.09 -0.14 0.10 9209
0.07 0.45 0.29 -0.95 9.99 -0.10 -0.11 0.06 9216
0.08 0.49 0.59 -0.76 10.24 -0.09 -0.10 0.06 9222
0.10 0.56 0.63 -0.61 10.11 -0.08 -0.10 0.05 9228
0.11 0.52 0.44 -0.66 10.09 -0.08 -0.10 0.05 9235
0.15 0.55 0.50 -0.78 9.90 -0.06 -0.10 0.04 9241
0.17 0.51 0.34 -0.84 10.01 -0.07 -0.08 0.04 9247
0.15 0.50 0.52 -0.81 9.99 -0.06 -0.09 0.05 9253
0.17 0.52 0.44 -0.84 10.12 -0.06 -0.08 0.04 9260
0.19 0.52 0.48 -0.80 10.04 -0.05 -0.08 0.04 9267
0.19 0.54 0.50 -0.80 10.11 -0.04 -0.06 0.04 9273
0.22 0.47 0.53 -0.76 10.14 -0.03 -0.05 0.04 9279
0.24 0.45 0.58 -0.78 10.13 -0.03 -0.05 0.04 9285
0.26 0.47 0.48 -0.82 10.01 -0.03 -0.05 0.04 9291
0.28 0.48 0.52 -0.80 10.04 -0.03 -0.04 0.04 9297
0.27 0.47 0.49 -0.76 9.99 -0.03 -0.04 0.04 9305
0.28 0.49 0.54 -0.77 10.05 -0.03 -0.04 0.04 9311
0.29 0.48 0.57 -0.78 10.10 -0.03 -0.03 0.04 9317
0.30 0.51 0.57 -0.79 10.01 -0.03 -0.03 0.03 9323
0.28 0.51 0.57 -0.78 10.03 -0.02 -0.07 0.03 9329
0.29 0.52 0.56 -0.72 10.05 -0.02 -0.03 0.03 9336
0.27 0.51 0.57 -0.75 10.04 -0.02 -0.03 0.03 9342
0.22 0.51 0.53 -0.72 10.15 -0.01 -0.02 0.03 9349
0.27 0.49 0.51 -0.75 10.01 -0.01 -0.03 0.03 9355
0.26 0.52 0.55 -0.74 9.99 -0.01 -0.03 0.03 9361
0.25 0.52 0.56 -0.74 9.99 -0.01 -0.03 0.03 9368
0.24 0.55 0.57 -0.73 10.03 -0.01 -0.03 0.03 9374
0.25 0.53 0.58 -0.74 10.05 -0.01 -0.03 0.02 9380
0.22 0.51 0.58 -0.73 10.03 -0.01 -0.03 0.03 9387
0.21 0.52 0.55 -0.72 10.02 -0.01 -0.03 0.03 9393
0.22 0.49 0.56 -0.72 10.05 -0.01 -0.03 0.02 9399
0.21 0.52 0.54 -0.76 10.01 -0.01 -0.03 0.02 9406
0.21 0.52 0.55 -0.74 9.99 -0.01 -0.04 0.02 9412
0.17 0.52 0.52 -0.70 10.09 -0.02 -0.03 0.02 9418
0.14 0.52 0.58 -0.76 10.05 -0.01 -0.04 0.02 9424
0.16 0.54 0.53 -0.74 9.96 -0.02 -0.04 0.02 9431
0.17 0.53 0.53 -0.71 10.01 -0.02 -0.04 0.02 9438
0.14 0.54 0.51 -0.68 10.02 -0.02 -0.04 0.02 9444
0.15 0.55 0.52 -0.70 10.00 -0.01 -0.03 0.02 9450
0.15 0.54 0.49 -0.70 9.98 -0.02 -0.03 0.02 9456
0.13 0.52 0.50 -0.69 9.98 -0.02 -0.03 0.02 9462
0.14 0.53 0.52 -0.70 9.99 -0.01 -0.03 0.02 9468
0.14 0.53 0.54 -0.72 9.99 -0.01 -0.02 0.01 9476
0.14 0.51 0.51 -0.73 10.02 -0.01 -0.02 0.01 9482
0.13 0.52 0.54 -0.74 10.04 -0.01 -0.02 0.01 9488
0.15 0.52 0.51 -0.74 9.99 -0.01 -0.02 0.01 9494
0.14 0.51 0.50 -0.70 9.98 -0.01 -0.02 0.01 9500
0.14 0.50 0.52 -0.73 10.04 -0.01 -0.02 0.01 9506
0.16 0.50 0.52 -0.74 10.02 -0.01 -0.02 0.01 9513
0.14 0.49 0.56 -0.74 10.03 -0.01 -0.02 0.01 9520
0.14 0.49 0.55 -0.71 10.03 -0.01 -0.02 0.00 9526
0.17 0.48 0.55 -0.70 10.03 -0.01 -0.02 0.01 9532
0.17 0.48 0.55 -0.73 10.01 -0.01 -0.02 0.00 9538
0.18 0.47 0.60 -0.72 10.01 -0.01 -0.02 0.00 9544
0.19 0.47 0.56 -0.69 9.96 -0.01 -0.02 0.00 9551
0.15 0.46 0.49 -0.71 10.02 -0.02 -0.02 0.00 9558
0.13 0.47 0.55 -0.72 9.97 -0.02 -0.01 0.00 9564
0.15 0.49 0.50 -0.70 9.99 -0.01 -0.02 0.00 9570
0.17 0.49 0.51 -0.73 10.12 -0.01 -0.01 -0.00 9576
0.16 0.48 0.60 -0.72 10.04 -0.01 -0.01 -0.00 9582
0.16 0.50 0.54 -0.73 9.96 -0.00 -0.01 -0.00 9589
0.20 0.47 0.55 -0.71 10.04 -0.00 -0.01 -0.00 9595
0.20 0.44 0.56 -0.71 10.03 -0.00 -0.01 -0.00 9602
0.19 0.41 0.53 -0.70 10.05 -0.00 -0.01 -0.00 9608
0.21 0.43 0.55 -0.72 10.01 0.00 -0.01 -0.00 9614
0.21 0.39 0.63 -0.72 9.99 -0.00 -0.02 -0.00 9620
0.26 0.35 0.59 -0.72 9.99 -0.01 -0.02 0.00 9627
0.26 0.37 0.60 -0.73 10.02 -0.01 -0.03 0.00 9633
0.27 0.36 0.59 -0.73 10.05 -0.01 -0.03 0.00 9639
0.25 0.36 0.56 -0.74 10.07 -0.01 -0.04 0.00 9646
0.29 0.35 0.61 -0.75 10.08 -0.01 -0.05 -0.00 9652
0.30 0.35 0.54 -0.72 10.05 -0.01 -0.05 -0.00 9658
0.27 0.32 0.53 -0.74 10.00 -0.01 -0.05 -0.01 9665
0.30 0.32 0.56 -0.73 10.02 -0.01 -0.06 -0.00 9671
0.29 0.31 0.56 -0.76 10.03 -0.01 -0.05 -0.01 9677
0.28 0.32 0.58 -0.69 10.04 -0.02 -0.06 -0.00 9683
0.33 0.32 0.49 -0.70 10.05 -0.02 -0.06 -0.01 9690
0.32 0.33 0.51 -0.72 9.97 -0.02 -0.05 -0.01 9697
0.31 0.35 0.56 -0.76 10.04 -0.01 -0.05 -0.01 9703
0.32 0.35 0.54 -0.73 10.05 -0.01 -0.05 -0.01 9709
0.28 0.35 0.51 -0.73 10.03 -0.01 -0.05 -0.01 9715
0.29 0.34 0.56 -0.76 10.05 -0.01 -0.05 -0.01 9721
0.29 0.34 0.54 -0.71 10.05 -0.01 -0.05 -0.00 9729
0.30 0.34 0.53 -0.72 9.98 -0.01 -0.05 -0.01 9735
0.32 0.35 0.51 -0.71 10.05 -0.01 -0.05 -0.00 9741
0.31 0.36 0.49 -0.73 10.06 -0.01 -0.04 -0.00 9747
0.30 0.37 0.49 -0.74 10.02 -0.01 -0.04 -0.00 9753
0.32 0.36 0.50 -0.73 10.03 -0.01 -0.04 0.00 9760
0.31 0.36 0.50 -0.70 10.00 -0.01 -0.04 -0.00 9766
0.31 0.34 0.51 -0.71 10.04 -0.00 -0.03 0.00 9773
0.29 0.37 0.48 -0.70 10.02 -0.00 -0.03 -0.00 9779
0.34 0.38 0.50 -0.70 9.99 0.00 -0.02 -0.00 9785
0.32 0.38 0.46 -0.71 10.03 0.01 -0.01 -0.00 9791
0.26 0.36 0.53 -0.71 10.04 0.01 -0.01 -0.00 9798
0.27 0.38 0.51 -0.72 9.99 0.01 -0.01 -0.00 9804
0.26 0.34 0.53 -0.72 10.01 0.02 0.00 0.00 9810
0.27 0.34 0.56 -0.67 10.07 0.02 0.01 0.00 9817
0.29 0.29 0.58 -0.73 10.08 0.03 0.00 0.01 9823
0.26 0.29 0.61 -0.73 10.05 0.04 0.00 0.00 9829
0.22 0.22 0.65 -0.73 10.08 0.05 -0.03 -0.00 9836
0.27 0.15 0.77 -0.79 10.18 0.07 0.00 -0.00 9842
0.28 0.08 0.72 -0.75 10.19 0.09 -0.01 -0.02 9848
0.28 0.01 1.22 -1.14 10.41 0.11 -0.01 -0.04 9854
0.30 0.02 0.87 -0.92 10.34 0.15 -0.03 -0.05 9861
0.32 -0.03 0.90 -0.91 9.82 0.20 -0.05 -0.09 9868
0.30 -0.02 1.73 -1.28 10.58 0.26 -0.07 -0.13 9874
0.32 -0.03 1.59 -1.06 10.73 0.35 -0.14 -0.20 9880
0.31 -0.03 2.32 -1.39 11.00 0.50 -0.25 -0.29 9886
0.30 -0.02 2.06 -1.01 11.06 0.68 -0.37 -0.47 9892
0.31 -0.02 5.30 -2.21 11.44 0.80 -0.49 -0.73 9900
0.29 -0.03 5.60 -1.99 11.93 0.93 -0.48 -1.02 9906
0.29 -0.02 3.02 -2.36 13.90 1.24 -0.50 -1.21 9912
0.30 -0.03 3.59 -2.72 15.60 1.53 -0.67 -1.31 9918
0.27 -0.03 3.53 -2.54 12.20 1.72 -0.78 -1.47 9924
0.25 -0.02 4.25 -2.97 11.71 1.78 -0.79 -1.62 9931
0.27 -0.02 3.22 -3.29 12.22 1.82 -0.79 -1.77 9937
0.23 -0.02 3.61 -4.46 11.81 1.87 -0.83 -1.90 9944
0.22 -0.00 3.81 -3.65 11.81 1.91 -0.88 -2.03 9950
0.23 -0.01 4.23 -3.39 11.22 1.91 -0.88 -2.15 9957
0.13 -0.01 4.45 -3.66 10.79 1.87 -0.75 -2.30 9963
0.15 -0.01 5.51 -2.93 11.62 1.80 -0.62 -2.43 9969
0.13 -0.01 5.49 -2.99 11.16 1.73 -0.47 -2.59 9975
0.07 -0.01 6.55 -3.33 12.71 1.64 -0.43 -2.74 9981
0.07 -0.01 5.79 -3.47 12.87 1.54 -0.38 -2.88 9988
0.06 -0.01 5.36 -2.98 12.82 1.47 -0.26 -3.01 9995
0.05 -0.01 5.59 -3.11 12.89 1.36 -0.08 -3.11 10001
0.08 -0.01 4.85 -1.49 13.03 1.19 0.03 -3.16 10007
0.07 -0.01 4.70 -0.87 13.47 0.99 -0.10 -3.21 10013
0.06 -0.01 3.58 -0.14 12.55 0.71 -0.51 -3.24 10019
0.09 -0.01 3.13 0.24 11.24 0.43 -1.14 -3.23 10027
0.05 -0.00 3.05 1.65 8.65 0.16 -1.58 -3.03 10033
0.06 -0.01 3.01 3.17 6.25 -0.04 -1.61 -2.52 10039
0.08 -0.00 7.38 3.59 6.85 -0.13 -1.46 -1.73 10045
0.06 -0.01 9.24 3.31 8.84 -0.21 -1.25 -1.06 10051
0.04 -0.00 10.49 3.21 10.88 -0.39 -0.93 -0.49 10058
0.04 -0.00 9.82 3.08 9.44 -0.70 -0.59 -0.09 10064
0.04 -0.00 8.20 3.01 7.80 -0.92 -0.22 0.18 10071
0.04 -0.00 6.52 2.57 6.68 -1.04 0.15 0.32 10077
0.04 -0.00 4.86 1.73 6.42 -1.00 0.39 0.34 10083
0.04 -0.00 3.48 0.91 6.55 -0.96 0.48 0.28 10089
0.02 -0.00 2.61 0.29 6.85 -0.83 0.50 0.16 10095
0.03 -0.00 2.01 0.17 7.00 -0.70 0.52 0.01 10102
0.04 -0.00 1.71 0.50 7.39 -0.60 0.55 -0.10 10108
0.04 -0.00 1.71 0.85 7.89 -0.56 0.60 -0.24 10115
0.03 -0.00 1.64 0.94 8.41 -0.55 0.66 -0.36 10121
0.05 -0.00 1.34 0.81 8.76 -0.56 0.68 -0.46 10127
0.03 -0.00 1.03 0.68 8.77 -0.58 0.68 -0.54 10133
0.03 -0.00 0.83 0.53 8.83 -0.59 0.67 -0.59 10139
0.03 -0.00 0.78 0.37 9.07 -0.60 0.67 -0.62 10146
0.03 -0.00 0.93 0.15 9.46 -0.59 0.70 -0.63 10152
0.03 -0.00 1.13 -0.08 9.88 -0.60 0.76 -0.63 10159
0.03 -0.00 1.25 -0.20 10.40 -0.62 0.83 -0.60 10165
0.05 -0.01 1.35 -0.26 10.89 -0.65 0.92 -0.56 10171
0.03 -0.00 1.38 -0.42 11.19 -0.71 1.00 -0.51 10177
0.04 -0.00 1.21 -0.78 11.23 -0.78 1.04 -0.46 10184
0.05 -0.00 1.04 -1.19 11.26 -0.85 1.04 -0.43 10190
0.04 -0.00 0.91 -1.51 11.20 -0.89 1.01 -0.39 10196
0.04 -0.00 0.85 -1.75 11.04 -0.90 0.97 -0.35 10203
0.04 -0.00 0.92 -1.97 10.77 -0.88 0.94 -0.29 10209
0.03 -0.00 1.08 -2.11 10.64 -0.85 0.91 -0.23 10216
0.03 -0.00 1.83 -2.18 10.54 -0.81 0.88 -0.16 10222
0.04 -0.00 1.36 -2.12 10.35 -0.76 0.87 -0.08 10228
0.04 -0.00 1.52 -2.09 10.22 -0.70 0.85 0.01 10234
0.04 0.00 1.51 -2.02 10.04 -0.64 0.85 0.08 10241
0.04 -0.00 1.50 -2.11 9.99 -0.57 0.86 0.17 10248
0.03 -0.00 1.41 -2.26 10.06 -0.50 0.90 0.26 10254
0.04 0.00 1.33 -2.40 10.20 -0.43 0.93 0.33 10260
0.03 -0.00 1.25 -2.46 10.37 -0.36 0.98 0.39 10266
0.03 -0.00 1.17 -2.39 10.48 -0.31 1.02 0.44 10272
0.03 -0.00 1.05 -2.29 10.67 -0.28 1.05 0.49 10279
0.03 -0.00 1.04 -2.02 10.89 -0.26 1.07 0.54 10286
0.02 -0.00 1.14 -1.80 11.27 -0.25 1.09 0.60 10292
0.03 0.00 1.11 -1.62 11.37 -0.28 1.11 0.67 10298
0.03 -0.00 0.92 -1.59 11.22 -0.32 1.10 0.74 10304
0.03 -0.00 0.63 -1.81 11.15 -0.37 1.07 0.80 10311
0.04 -0.00 0.48 -2.09 11.11 -0.41 1.03 0.84 10317
0.04 -0.00 0.32 -2.56 10.95 -0.43 0.97 0.86 10323
0.03 -0.00 0.21 -2.84 10.69 -0.43 0.92 0.86 10330
0.05 -0.00 0.15 -3.24 10.45 -0.43 0.88 0.80 10336
0.03 -0.00 0.16 -3.52 10.98 -0.41 0.85 0.80 10343
0.03 -0.00 0.29 -3.71 10.29 -0.39 0.82 0.75 10349
0.05 -0.01 0.40 -3.79 10.27 -0.36 0.81 0.72 10355
0.04 -0.00 0.46 -3.87 10.16 -0.33 0.82 0.71 10361
0.03 -0.00 0.59 -3.87 10.21 -0.31 0.85 0.72 10368
0.05 -0.00 0.64 -3.90 10.21 -0.29 0.86 0.74 10375
0.04 -0.00 0.59 -3.83 10.11 -0.27 0.87 0.77 10381
0.03 -0.00 0.35 -3.92 10.06 -0.25 0.90 0.81 10387
0.04 -0.00 0.23 -4.06 10.19 -0.23 0.93 0.85 10393
0.04 -0.00 -0.02 -4.15 10.21 -0.21 0.93 0.87 10399
0.04 -0.00 -0.20 -4.22 10.27 -0.20 0.92 0.89 10405
0.03 -0.00 -0.39 -4.23 10.20 -0.20 0.92 0.90 10413
0.03 -0.00 -0.55 -4.27 10.27 -0.20 0.91 0.91 10419
0.03 -0.00 -0.86 -4.33 10.15 -0.21 0.88 0.91 10425
0.04 -0.00 -1.08 -4.33 9.96 -0.21 0.84 0.91 10431
0.03 -0.00 -1.31 -4.25 9.78 -0.21 0.80 0.91 10437
0.04 -0.00 -1.57 -4.18 9.48 -0.19 0.77 0.92 10444
0.05 -0.00 -1.88 -4.03 9.12 -0.16 0.76 0.95 10450
0.04 -0.00 -2.27 -3.94 8.83 -0.12 0.75 0.98 10457
0.02 -0.00 -2.69 -3.79 8.58 -0.06 0.75 1.01 10463
0.04 -0.00 -3.62 -3.61 8.44 0.01 0.74 1.04 10469
0.04 -0.00 -3.54 -3.51 8.32 0.07 0.73 1.06 10475
0.04 -0.00 -4.15 -3.38 8.27 0.15 0.71 1.07 10481
0.03 -0.00 -4.63 -3.17 8.35 0.22 0.68 1.07 10488
0.04 -0.00 -4.92 -2.84 8.45 0.26 0.63 1.07 10494
0.03 -0.00 -5.14 -2.40 8.55 0.29 0.57 1.07 10501
0.03 -0.00 -5.14 -1.95 8.55 0.28 0.47 1.09 10507
0.03 -0.00 -5.12 -1.41 8.27 0.25 0.35 1.13 10513
0.03 -0.00 -4.88 -0.90 7.93 0.20 0.21 1.19 10519
0.03 -0.00 -4.49 -0.42 7.34 0.15 0.10 1.28 10525
0.03 0.00 -3.89 0.56 6.74 0.10 -0.01 1.39 10532
0.03 -0.00 -3.16 0.41 6.05 0.06 -0.08 1.51 10539
0.04 -0.00 -2.32 0.99 5.49 0.03 -0.14 1.68 10545
0.03 -0.00 -23.30 -12.85 25.34 0.60 -2.15 1.95 10551
0.03 -0.00 -20.04 -5.17 10.76 1.22 -4.28 2.63 10557
0.02 0.00 -6.62 -7.28 -8.02 0.52 -4.28 2.84 10564
0.04 0.21 -4.26 33.74 35.54 2.25 -4.17 2.60 10570
0.01 0.56 -27.42 -26.44 73.56 3.18 -2.77 2.59 10576
0.01 0.79 -18.71 1.85 19.70 0.39 -1.36 1.34 10584
0.03 0.70 -6.96 3.18 12.75 0.03 -0.37 0.09 10590
0.00 0.63 -2.53 2.24 9.39 0.01 -0.16 -0.23 10596
0.03 0.48 5.19 -1.22 8.22 0.14 -0.13 -0.11 10602
0.01 0.39 4.97 0.04 10.09 0.37 -0.04 0.39 10609
0.04 0.32 0.89 0.63 10.89 0.17 -0.03 0.60 10615
0.05 0.33 -0.89 -1.51 10.47 0.03 -0.18 0.39 10621
0.06 0.34 1.46 -0.09 9.78 -0.04 -0.21 0.30 10628
0.08 0.36 -0.30 -1.97 9.81 -0.02 -0.11 0.31 10635
0.07 0.39 -0.62 -1.87 9.90 -0.06 -0.09 0.16 10641
0.09 0.44 0.36 -1.20 9.55 -0.10 -0.07 0.10 10647
0.10 0.47 0.12 -0.98 9.98 -0.11 -0.04 0.07 10653
0.10 0.45 0.43 -0.61 10.11 -0.12 -0.03 0.05 10659
0.13 0.52 0.56 -0.43 10.13 -0.09 -0.00 0.05 10667
0.14 0.54 0.63 -0.38 10.19 -0.05 0.02 0.05 10673
0.13 0.56 0.78 -0.51 10.18 -0.03 0.03 0.05 10679
0.15 0.57 0.79 -0.65 10.04 -0.02 0.03 0.06 10685
0.13 0.55 0.98 -1.09 10.19 -0.02 0.03 0.08 10692
0.14 0.55 0.77 -0.77 10.14 -0.03 0.01 0.07 10698
0.16 0.55 0.81 -0.79 10.09 -0.04 -0.00 0.06 10704
0.14 0.58 0.75 -0.72 10.10 -0.04 -0.01 0.05 10711
0.14 0.56 0.75 -0.74 10.27 -0.04 -0.01 0.05 10718
0.13 0.57 0.76 -0.68 10.11 -0.03 -0.02 0.05 10724
0.13 0.59 0.84 -0.67 10.04 -0.03 -0.03 0.04 10730
0.14 0.57 0.80 -0.67 10.04 -0.03 -0.03 0.04 10736
0.12 0.61 0.76 -0.68 9.98 -0.03 -0.03 0.04 10742
0.11 0.63 0.78 -0.68 10.07 -0.04 -0.04 0.03 10749
0.11 0.61 0.78 -0.67 9.99 -0.04 -0.04 0.03 10756
0.08 0.64 0.74 -0.66 10.02 -0.04 -0.04 0.03 10762
0.11 0.68 0.74 -0.67 9.98 -0.04 -0.04 0.02 10768
0.11 0.69 0.76 -0.60 10.10 -0.03 -0.03 0.02 10775
0.11 0.70 0.75 -0.62 10.05 -0.03 -0.03 0.02 10781
0.12 0.68 0.76 -0.63 10.06 -0.03 -0.03 0.02 10787
0.09 0.71 0.75 -0.60 9.99 -0.03 -0.02 0.02 10793
0.12 0.70 0.74 -0.61 10.04 -0.02 -0.02 0.02 10800
0.12 0.71 0.75 -0.63 10.05 -0.02 -0.02 0.02 10807
0.11 0.73 0.71 -0.58 10.01 -0.02 -0.02 0.02 10813
0.11 0.74 0.75 -0.67 9.98 -0.02 -0.02 0.02 10819
0.11 0.72 0.78 -0.62 9.94 -0.02 -0.02 0.02 10825
0.10 0.72 0.75 -0.65 9.96 -0.03 -0.02 0.01 10831
0.10 0.77 0.79 -0.62 10.02 -0.03 -0.02 0.01 10839
0.09 0.74 0.78 -0.58 10.00 -0.03 -0.02 0.01 10845
0.10 0.76 0.77 -0.59 10.02 -0.03 -0.02 0.01 10851
0.10 0.76 0.71 -0.61 10.05 -0.02 -0.02 0.00 10857
0.08 0.76 0.78 -0.64 9.97 -0.02 -0.02 0.00 10864
0.10 0.78 0.78 -0.65 10.09 -0.02 -0.03 0.00 10870
0.10 0.77 0.85 -0.63 10.04 -0.02 -0.03 0.00 10876
0.08 0.76 0.78 -0.62 10.06 -0.03 -0.03 -0.00 10883
0.10 0.75 0.80 -0.03 10.09 -0.02 -0.03 -0.00 10889
0.08 0.76 0.77 -0.62 10.03 -0.02 -0.04 0.00 10896
0.08 0.74 0.82 -0.62 10.03 -0.01 -0.04 0.00 10902
0.07 0.76 0.81 -0.60 10.01 -0.02 -0.04 0.00 10908
0.07 0.75 0.79 -0.59 10.03 -0.02 -0.04 0.00 10914
0.07 0.78 0.77 -0.61 10.02 -0.02 -0.04 0.00 10921
0.09 0.76 0.77 -0.61 10.02 -0.02 -0.04 0.01 10928
0.06 0.77 0.72 -0.60 10.04 -0.02 -0.03 0.01 10934
0.08 0.78 0.76 -0.62 10.05 -0.02 -0.03 0.01 10940
0.07 0.75 0.76 -0.61 10.02 -0.02 -0.03 0.01 10947
0.05 0.77 0.75 -0.61 10.03 -0.02 -0.02 0.01 10953
0.06 0.78 0.74 -0.58 10.02 -0.02 -0.01 0.01 10959
0.04 0.78 0.79 -0.59 10.01 -0.03 -0.01 0.01 10966
0.03 0.80 0.76 -0.60 9.99 -0.02 -0.01 0.01 10972
0.04 0.79 0.77 -0.62 10.02 -0.02 -0.01 0.01 10979
0.03 0.81 0.75 -0.58 10.01 -0.02 -0.01 0.01 10985
0.06 0.82 0.77 -0.61 10.00 -0.03 -0.00 0.01 10991
0.03 0.78 0.75 -0.62 9.99 -0.03 0.00 0.01 10997
0.02 0.82 0.77 -0.60 10.00 -0.03 0.00 0.01 11004
0.04 0.84 0.79 -0.58 10.04 -0.03 0.00 0.01 11011
0.02 0.86 0.79 -0.55 9.98 -0.03 0.00 0.01 11017
0.03 0.88 0.76 -0.59 10.05 -0.03 0.00 0.00 11023
0.03 0.86 0.81 -0.57 10.07 -0.02 0.00 0.01 11029
0.01 0.86 0.78 -0.55 9.98 -0.02 -0.00 0.01 11036
0.02 0.90 0.82 -0.54 10.02 -0.02 0.00 0.00 11042
0.02 0.89 0.80 -0.56 9.99 -0.02 0.00 -0.00 11048
0.02 0.91 0.83 -0.60 10.02 -0.02 0.00 0.00 11055
0.03 0.93 0.83 -0.59 10.01 -0.01 -0.00 0.00 11061
0.02 0.94 0.81 -0.56 10.01 -0.02 -0.00 0.00 11068
0.01 0.91 0.88 -0.57 9.98 -0.01 -0.01 0.00 11074
0.01 0.91 0.82 -0.60 10.01 -0.01 -0.00 0.00 11080
0.00 0.92 0.82 -0.57 9.95 -0.01 -0.00 0.01 11086
0.01 0.93 0.85 -0.55 10.01 -0.02 -0.01 0.01 11092
0.01 0.96 0.81 -0.59 10.00 -0.01 -0.00 0.01 11100
0.02 0.95 0.85 -0.57 9.98 -0.01 -0.01 0.01 11106
-0.00 0.94 0.80 -0.58 10.02 -0.01 -0.00 0.01 11112
0.02 0.96 0.81 -0.57 10.00 -0.01 -0.00 0.01 11118
-0.01 0.97 0.83 -0.56 10.02 -0.01 0.00 0.01 11124
-0.00 0.94 0.82 -0.57 10.02 -0.01 0.01 0.01 11131
0.02 0.94 0.84 -0.56 10.01 -0.01 0.01 0.01 11138
0.02 0.94 0.85 -0.59 9.99 -0.01 0.01 0.02 11144
0.02 0.96 0.84 -0.57 9.96 -0.01 0.01 0.01 11150
0.03 0.94 0.83 -0.59 10.03 -0.02 0.00 0.01 11156
0.01 0.93 0.85 -0.57 9.97 -0.01 -0.00 0.02 11163
0.01 0.95 0.87 -0.60 9.99 -0.02 -0.01 0.02 11169
0.01 0.96 0.86 -0.55 9.99 -0.02 -0.01 0.02 11175
-0.00 0.94 0.83 -0.52 10.00 -0.02 -0.01 0.02 11182
0.00 0.95 0.86 -0.57 10.03 -0.02 -0.01 0.02 11188
0.02 0.96 0.86 -0.56 10.07 -0.02 -0.01 0.02 11195
-0.01 0.96 0.83 -0.56 10.07 -0.02 -0.01 0.02 11201
0.01 0.98 0.85 -0.57 10.04 -0.03 -0.01 0.02 11207
0.01 0.98 0.85 -0.55 9.99 -0.02 -0.00 0.02 11213
0.00 0.96 0.84 -0.55 10.04 -0.02 -0.00 0.02 11219
0.02 0.97 0.83 -0.53 9.99 -0.02 -0.00 0.02 11227
0.02 0.97 0.81 -0.53 10.00 -0.02 0.00 0.02 11233
0.01 0.95 0.83 -0.49 10.03 -0.02 0.00 0.02 11239
0.03 0.96 0.84 -0.55 10.04 -0.01 0.00 0.01 11245
0.02 0.96 0.83 -0.54 10.04 -0.02 -0.00 0.01 11251
0.01 0.97 0.83 -0.53 9.92 -0.02 -0.00 0.01 11258
0.02 0.97 0.87 -0.56 10.01 -0.02 -0.01 0.01 11265
0.01 0.98 0.85 -0.58 10.01 -0.03 -0.01 0.00 11271
0.02 1.00 0.82 -0.58 9.98 -0.03 -0.01 0.01 11277
0.01 0.99 0.85 -0.55 10.01 -0.03 -0.01 0.01 11284
-0.01 0.97 0.85 -0.55 9.97 -0.03 -0.00 0.01 11290
0.01 0.99 0.83 -0.54 10.04 -0.02 -0.00 0.01 11296
0.00 0.97 0.93 -0.56 10.00 -0.02 -0.00 0.01 11302
-0.01 0.97 0.95 -0.52 10.00 -0.01 -0.00 0.01 11309
0.01 0.98 0.85 -0.50 10.00 -0.00 0.00 0.01 11316
0.01 0.97 0.82 -0.55 10.01 -0.00 0.01 0.01 11322
0.01 0.96 0.88 -0.59 9.99 -0.00 0.01 0.00 11328
0.02 0.96 0.92 -0.57 10.08 -0.00 0.00 0.00 11334
0.01 0.94 0.96 -0.57 10.05 0.00 -0.00 0.00 11340
-0.01 0.93 0.98 -0.63 9.98 0.00 -0.01 0.00 11347
0.02 0.90 0.95 -0.57 9.98 0.00 -0.02 0.00 11354
-0.00 0.88 0.93 -0.56 9.99 0.00 -0.03 0.00 11360
0.00 0.88 0.95 -0.62 9.99 0.00 -0.03 0.00 11366
0.03 0.86 0.91 -0.59 10.05 0.01 -0.04 0.00 11372
0.01 0.83 0.93 -0.60 9.93 0.02 -0.04 0.01 11378
0.02 0.81 0.94 -0.63 9.93 0.02 -0.05 0.01 11385
0.03 0.78 0.93 -0.61 9.82 0.03 -0.06 0.01 11392
0.02 0.73 0.95 -0.53 9.87 0.04 -0.06 0.01 11398
0.02 0.69 1.02 -0.47 9.95 0.05 -0.07 -0.00 11404
0.04 0.61 0.95 -0.47 9.89 0.06 -0.06 -0.01 11410
0.04 0.49 1.08 -0.33 10.08 0.07 -0.06 -0.02 11417
0.04 0.40 0.92 -0.42 9.99 0.08 -0.06 -0.03 11423
0.05 0.32 0.91 -0.42 10.08 0.09 -0.06 -0.03 11429
0.05 0.23 1.02 -0.59 10.03 0.09 -0.05 -0.04 11436
0.06 0.16 0.97 -0.59 10.10 0.10 -0.05 -0.04 11442
0.07 0.09 1.01 -0.64 10.13 0.11 -0.05 -0.04 11449
0.05 0.04 1.09 -0.75 10.16 0.13 -0.06 -0.04 11455
0.07 0.01 1.12 -0.77 10.25 0.15 -0.06 -0.05 11461
0.08 -0.01 1.24 -0.70 10.39 0.17 -0.07 -0.07 11467
0.08 -0.01 1.36 -0.84 10.50 0.21 -0.09 -0.10 11474
0.10 -0.01 1.89 -0.76 10.73 0.29 -0.11 -0.17 11481
0.09 -0.01 3.06 -0.76 11.31 0.40 -0.09 -0.36 11487
0.11 -0.01 3.84 -1.07 11.95 0.62 -0.06 -0.60 11493
0.16 -0.02 3.31 -1.71 13.77 1.11 -0.03 -0.77 11499
0.16 -0.02 3.01 -1.31 14.61 1.71 -0.16 -0.89 11506
0.20 -0.01 3.43 -1.74 14.16 2.03 -0.41 -1.00 11512
0.16 -0.02 3.58 -2.09 13.00 2.10 -0.68 -1.10 11518
0.17 -0.01 4.25 -2.46 12.43 2.12 -0.92 -1.21 11525
0.17 -0.02 4.78 -2.51 13.07 2.12 -1.06 -1.35 11532
0.14 -0.01 5.48 -2.98 12.67 2.06 -1.14 -1.49 11538
0.11 0.00 5.13 -3.07 11.91 1.99 -1.18 -1.62 11544
0.13 -0.01 5.24 -2.65 11.87 1.89 -1.21 -1.70 11550
0.05 -0.01 6.04 -3.03 10.76 1.75 -1.14 -1.81 11557
0.08 -0.01 5.57 -3.64 12.02 1.60 -1.04 -1.94 11564
0.05 -0.01 6.07 -3.09 12.18 1.41 -1.02 -2.09 11570
0.05 -0.00 4.94 -3.43 12.01 1.24 -1.13 -2.23 11576
0.06 -0.01 4.06 -3.24 11.92 1.10 -1.30 -2.35 11582
0.06 -0.01 3.81 -3.03 11.97 0.95 -1.46 -2.45 11589
0.07 -0.01 4.40 -2.34 12.72 0.76 -1.62 -2.53 11595
0.08 -0.01 4.89 -1.08 12.87 0.53 -1.74 -2.60 11601
0.06 -0.01 5.33 0.45 11.59 0.26 -1.96 -2.66 11608
0.05 -0.00 5.75 2.59 9.80 -0.01 -2.28 -2.67 11614
0.04 -0.00 5.89 3.22 7.84 -0.23 -2.59 -2.59 11621
0.03 -0.00 9.30 5.99 7.24 -0.34 -2.78 -2.37 11627
0.04 -0.00 11.98 5.71 6.62 -0.42 -2.69 -1.84 11633
0.05 -0.00 12.13 4.42 7.53 -0.50 -2.21 -1.23 11639
0.04 -0.00 12.84 3.79 8.31 -0.69 -1.51 -0.74 11645
0.06 -0.01 13.40 3.40 7.19 -0.90 -1.01 -0.41 11653
0.05 -0.01 13.06 3.02 6.69 -0.99 -0.54 -0.21 11659
0.05 -0.00 11.80 2.45 6.54 -0.97 -0.13 -0.12 11665
0.06 -0.01 10.25 1.53 6.40 -0.89 0.33 -0.08 11671
0.04 -0.00 8.89 0.90 6.59 -0.77 0.81 -0.06 11677
0.02 -0.00 7.73 0.58 7.06 -0.66 1.24 -0.07 11684
0.06 0.00 6.56 0.33 7.77 -0.59 1.54 -0.12 11691
0.05 -0.00 5.45 0.21 8.78 -0.56 1.72 -0.18 11697
0.04 -0.00 4.28 0.09 9.80 -0.56 1.79 -0.25 11703
0.05 0.00 3.30 -0.09 10.77 -0.59 1.78 -0.31 11709
0.04 -0.00 2.39 -0.27 11.45 -0.65 1.71 -0.36 11715
0.04 -0.00 1.80 -0.41 12.04 -0.74 1.58 -0.40 11722
0.04 0.01 1.33 -0.44 12.36 -0.85 1.45 -0.43 11728
0.05 -0.00 1.08 -0.40 12.43 -0.95 1.37 -0.46 11735
0.03 -0.00 1.02 -1.20 12.29 -1.05 1.32 -0.47 11741
0.05 -0.01 0.98 -0.94 11.95 -1.13 1.31 -0.48 11747
0.05 -0.01 0.85 -1.47 11.61 -1.18 1.34 -0.50 11754
0.05 -0.00 0.67 -1.88 11.39 -1.20 1.38 -0.52 11760
0.06 -0.01 0.29 -2.36 10.46 -1.17 1.43 -0.54 11766
0.03 -0.00 -0.09 -2.76 10.88 -1.11 1.48 -0.55 11772
0.03 -0.00 -0.35 -3.04 10.77 -1.03 1.50 -0.56 11780
0.05 -0.00 -0.68 -3.25 10.80 -0.92 1.52 -0.55 11786
0.04 -0.00 -0.93 -3.43 10.72 -0.81 1.54 -0.52 11792
0.04 -0.00 -1.12 -3.48 10.72 -0.70 1.55 -0.47 11798
0.03 -0.00 -1.21 -3.54 10.81 -0.59 1.54 -0.39 11804
0.02 -0.00 -1.34 -3.48 10.88 -0.50 1.51 -0.30 11811
0.04 -0.00 -1.46 -3.36 11.12 -0.40 1.47 -0.18 11817
0.04 -0.00 -1.48 -3.22 11.27 -0.30 1.44 -0.06 11824
0.03 -0.00 -1.40 -3.05 11.34 -0.23 1.42 0.06 11830
0.04 -0.00 -1.31 -2.87 11.58 -0.18 1.40 0.19 11836
0.03 -0.00 -1.25 -2.70 11.89 -0.15 1.40 0.31 11843
0.03 -0.00 -1.37 -2.53 11.94 -0.14 1.40 0.44 11849
0.05 -0.00 -1.62 -2.38 11.90 -0.14 1.38 0.59 11855
0.03 -0.00 -2.03 -2.33 11.68 -0.14 1.34 0.68 11862
0.03 -0.00 -2.59 -2.41 11.48 -0.15 1.26 0.79 11868
0.04 -0.00 -3.08 -2.44 10.47 -0.15 1.12 0.89 11875
0.04 -0.00 -3.37 -2.32 10.62 -0.13 0.96 0.99 11881
0.04 0.00 -3.46 -2.18 10.16 -0.09 0.79 1.08 11887
0.03 -0.00 -3.28 -1.98 9.84 -0.05 0.65 1.16 11893
0.04 -0.00 -2.91 -1.77 9.87 0.01 0.56 1.23 11899
0.03 -0.00 -2.57 -1.63 10.03 0.05 0.52 1.28 11907
0.04 -0.00 -2.31 -1.53 10.21 0.07 0.52 1.32 11913
0.04 -0.00 -2.21 -1.54 10.35 0.07 0.53 1.33 11919
0.04 -0.00 -2.33 -1.70 10.47 0.05 0.51 1.31 11925
0.04 -0.00 -2.25 -1.90 10.47 0.02 0.44 1.27 11931
0.03 -0.00 -2.20 -2.06 10.41 -0.01 0.41 1.20 11938
0.03 0.00 -2.00 -2.09 10.20 -0.05 0.34 1.13 11944
0.03 -0.00 -1.65 -2.06 9.98 -0.08 0.29 1.04 11951
0.02 -0.00 -1.32 -1.97 9.79 -0.10 0.29 1.01 11957
0.04 0.00 -1.05 -1.98 9.75 -0.12 0.33 0.95 11963
0.04 -0.00 -1.07 -2.01 9.52 -0.14 0.42 0.91 11969
0.04 -0.00 -1.31 -2.11 9.34 -0.15 0.50 0.88 11976
0.03 -0.00 -1.66 -2.36 9.14 -0.13 0.56 0.87 11982
0.04 -0.00 -2.17 -2.74 9.02 -0.11 0.58 0.85 11988
0.03 -0.00 -2.61 -3.13 8.97 -0.07 0.57 0.84 11995
0.03 -0.00 -2.85 -3.34 8.95 -0.02 0.54 0.82 12001
0.04 -0.00 -3.15 -3.27 8.92 0.03 0.50 0.81 12007
0.03 -0.00 -3.44 -3.19 8.90 0.06 0.42 0.79 12013
0.03 -0.00 -3.50 -3.05 8.78 0.08 0.31 0.78 12020
0.04 -0.00 -3.39 -2.86 8.43 0.09 0.19 0.78 12026
0.04 -0.00 -3.06 -2.66 8.15 0.10 0.09 0.80 12033
0.03 -0.00 -2.79 -2.57 7.79 0.12 0.01 0.85 12039
0.02 -0.00 -2.55 -2.54 7.33 0.16 -0.04 0.90 12045
0.04 -0.00 -2.37 -2.49 6.96 0.20 -0.07 0.95 12051
0.03 -0.00 -2.16 -2.37 6.50 0.24 -0.11 1.01 12057
0.03 -0.00 -1.88 -2.07 6.10 0.29 -0.15 1.07 12064
0.03 0.00 -9.84 -5.13 19.72 0.50 -0.69 1.18 12070
0.03 -0.00 -15.11 -3.66 11.77 1.14 -4.16 1.68 12077
0.02 -0.00 -9.70 -1.35 1.91 0.79 -4.28 2.03 12083
0.04 0.03 -8.45 -6.33 5.31 0.72 -4.28 2.14 12090
0.02 0.11 -9.45 0.46 16.30 2.34 -3.30 2.40 12096
0.00 0.29 -29.75 -5.14 50.65 0.85 -1.05 2.19 12102
0.03 0.44 -15.38 -2.86 10.90 -0.32 -0.17 0.53 12108
0.02 0.46 -6.93 0.38 9.23 -0.10 -0.32 -0.16 12115
0.04 0.41 0.87 0.53 8.59 0.11 -0.09 -0.28 12122
0.05 0.32 6.18 0.45 9.90 0.21 0.05 -0.01 12128
0.05 0.32 3.29 0.19 10.28 0.13 0.10 0.32 12134
0.06 0.34 0.89 -0.66 10.56 -0.01 -0.03 0.40 12140
0.07 0.32 0.13 -1.48 10.29 -0.07 -0.15 0.31 12147
0.07 0.33 0.54 -0.95 9.44 -0.05 -0.12 0.28 12153
0.08 0.31 0.34 -1.16 9.96 -0.03 -0.05 0.23 12160
0.08 0.33 0.13 -0.95 9.92 -0.08 -0.09 0.18 12166
0.10 0.36 0.25 -1.55 9.86 -0.09 -0.06 0.16 12173
0.11 0.41 -0.29 -1.17 9.91 -0.08 -0.03 0.10 12179
0.13 0.45 0.06 -0.74 9.87 -0.09 0.03 0.07 12185
0.14 0.48 0.23 -0.75 10.12 -0.07 0.04 0.08 12191
0.11 0.52 0.34 -0.51 10.16 -0.05 0.06 0.07 12197
0.16 0.52 0.73 -0.73 10.10 -0.03 0.06 0.06 12205
0.17 0.53 0.79 -0.82 10.27 -0.03 0.03 0.06 12211
0.16 0.58 0.71 -0.75 10.04 -0.03 0.01 0.06 12217
0.17 0.59 0.57 -0.82 10.11 -0.03 -0.01 0.05 12223
0.17 0.56 0.56 -0.83 9.94 -0.03 0.00 0.03 12230
0.17 0.54 0.58 -0.86 9.95 -0.03 -0.01 0.04 12236
0.20 0.53 0.39 -0.64 9.85 -0.04 -0.00 0.04 12242
0.20 0.58 0.63 -0.74 10.08 -0.03 -0.01 0.03 12249
0.21 0.57 0.64 -0.71 10.02 -0.03 -0.00 0.03 12255
0.25 0.53 0.64 -0.77 10.00 -0.03 -0.01 0.03 12262
0.23 0.49 0.65 -0.77 10.07 -0.03 -0.01 0.03 12268
0.25 0.53 0.59 -0.76 10.05 -0.03 -0.01 0.02 12274
0.25 0.49 0.61 -0.71 10.03 -0.03 -0.01 0.02 12280
0.24 0.49 0.56 -0.77 10.01 -0.03 -0.00 0.02 12288
0.28 0.52 0.62 -0.78 10.04 -0.03 0.00 0.02 12294
0.24 0.54 0.62 -0.75 10.09 -0.03 0.01 0.02 12300
0.26 0.53 0.65 -0.71 10.08 -0.02 0.01 0.02 12306
0.30 0.53 0.65 -0.70 10.05 -0.02 0.01 0.01 12313
0.26 0.54 0.64 -0.73 10.12 -0.01 0.01 0.01 12319
0.27 0.53 0.61 -0.73 10.07 -0.01 0.01 0.01 12325
0.28 0.51 0.68 -0.70 10.05 -0.01 0.01 0.01 12332
0.27 0.50 0.67 -0.68 10.07 -0.00 0.01 0.01 12338
0.28 0.50 0.68 -0.76 10.06 -0.00 0.01 0.01 12345
0.29 0.47 0.68 -0.71 10.10 -0.01 0.01 0.01 12351
0.29 0.48 0.66 -0.73 9.99 -0.01 0.01 0.01 12357
0.29 0.49 0.67 -0.70 10.10 -0.00 0.01 0.01 12363
0.30 0.46 0.65 -0.72 10.04 -0.00 0.01 0.01 12370
0.32 0.46 0.69 -0.75 10.02 -0.00 0.01 0.01 12377
0.31 0.40 0.69 -0.71 9.98 -0.00 0.00 0.01 12383
0.29 0.40 0.69 -0.70 9.98 -0.00 -0.00 0.01 12389
0.31 0.42 0.70 -0.72 10.01 -0.01 -0.00 0.01 12395
0.32 0.40 0.74 -0.73 10.04 -0.01 -0.01 0.01 12402
0.32 0.39 0.71 -0.72 10.05 -0.01 -0.01 0.01 12408
0.30 0.39 0.67 -0.71 10.01 -0.01 -0.01 0.01 12414
0.28 0.41 0.66 -0.70 9.98 -0.01 -0.01 0.01 12421
0.28 0.43 0.67 -0.72 10.00 -0.01 -0.01 0.01 12428
0.29 0.42 0.71 -0.70 10.04 -0.01 -0.02 0.01 12434
0.28 0.41 0.68 -0.71 10.02 -0.01 -0.02 0.01 12440
0.29 0.42 0.67 -0.68 10.10 -0.01 -0.02 0.01 12446
0.27 0.40 0.71 -0.71 10.05 -0.01 -0.02 0.01 12452
0.27 0.40 0.69 -0.71 10.01 -0.01 -0.02 0.01 12460
0.28 0.38 0.70 -0.70 10.04 -0.01 -0.02 0.01 12466
0.27 0.37 0.72 -0.72 10.04 -0.00 -0.03 0.01 12472
0.26 0.38 0.69 -0.72 10.03 -0.01 -0.03 0.01 12478
0.28 0.35 0.69 -0.71 10.03 -0.01 -0.03 0.01 12485
0.27 0.37 0.67 -0.72 10.00 -0.01 -0.03 0.01 12491
0.30 0.37 0.66 -0.72 10.00 -0.01 -0.03 0.01 12497
0.28 0.35 0.66 -0.70 9.98 -0.01 -0.03 0.01 12504
0.27 0.35 0.66 -0.72 10.01 -0.01 -0.03 0.01 12511
0.26 0.36 0.66 -0.70 10.05 -0.01 -0.03 0.01 12517
0.27 0.35 0.68 -0.71 10.00 -0.01 -0.03 0.01 12523
0.27 0.37 0.62 -0.68 10.02 -0.02 -0.03 0.00 12529
0.27 0.35 0.66 -0.72 9.98 -0.01 -0.03 0.00 12535
0.25 0.36 0.68 -0.75 10.01 -0.02 -0.03 0.01 12542
0.27 0.36 0.68 -0.70 9.99 -0.01 -0.03 0.01 12549
0.25 0.36 0.67 -0.71 10.03 -0.01 -0.03 0.00 12555
0.25 0.36 0.67 -0.70 10.06 -0.01 -0.02 0.00 12561
0.24 0.36 0.65 -0.66 10.01 -0.01 -0.02 0.00 12568
0.22 0.35 0.66 -0.71 10.01 -0.01 -0.02 0.00 12574
0.21 0.36 0.68 -0.72 9.99 -0.01 -0.02 0.00 12580
0.20 0.36 0.68 -0.69 10.03 -0.01 -0.02 0.01 12587
0.20 0.37 0.67 -0.69 9.98 -0.01 -0.02 0.00 12593
0.20 0.39 0.70 -0.70 10.01 -0.01 -0.02 0.01 12600
0.18 0.40 0.68 -0.70 10.00 -0.02 -0.02 0.01 12606
0.13 0.42 0.65 -0.68 10.00 -0.02 -0.02 0.01 12612
0.17 0.42 0.68 -0.70 9.95 -0.02 -0.02 0.01 12618
0.16 0.43 0.66 -0.71 10.04 -0.02 -0.02 0.01 12624
0.15 0.45 0.66 -0.67 9.99 -0.02 -0.02 0.01 12632
0.14 0.47 0.69 -0.68 10.03 -0.02 -0.02 0.01 12638
0.14 0.47 0.68 -0.67 10.01 -0.02 -0.02 0.01 12644
0.13 0.52 0.67 -0.67 10.02 -0.02 -0.02 0.01 12650
0.11 0.53 0.68 -0.69 10.09 -0.02 -0.02 0.01 12657
0.11 0.55 0.67 -0.68 9.99 -0.02 -0.02 0.01 12663
0.12 0.54 0.67 -0.70 10.00 -0.02 -0.02 0.01 12669
0.10 0.57 0.70 -0.67 10.00 -0.02 -0.02 0.01 12676
0.08 0.60 0.69 -0.68 10.00 -0.01 -0.02 0.01 12682
0.09 0.60 0.72 -0.69 10.00 -0.01 -0.02 0.01 12689
0.07 0.59 0.67 -0.66 9.97 -0.02 -0.03 0.01 12695
0.05 0.63 0.67 -0.68 9.95 -0.02 -0.03 0.01 12701
0.07 0.66 0.67 -0.68 9.99 -0.02 -0.02 0.01 12707
0.06 0.65 0.67 -0.67 10.01 -0.01 -0.02 0.01 12713
0.05 0.67 0.67 -0.69 10.04 -0.01 -0.02 0.01 12721
0.05 0.66 0.67 -0.65 9.97 -0.01 -0.02 0.01 12727
0.03 0.67 0.70 -0.68 9.98 -0.01 -0.02 0.01 12733
0.06 0.67 0.65 -0.67 10.02 -0.01 -0.02 0.01 12739
0.06 0.65 0.68 -0.67 9.97 -0.01 -0.02 0.01 12745
0.05 0.64 0.68 -0.69 9.96 -0.02 -0.02 0.01 12752
0.06 0.67 0.70 -0.67 10.05 -0.02 -0.02 0.01 12759
0.06 0.67 0.68 -0.65 10.13 -0.01 -0.02 0.01 12765
0.07 0.68 0.68 -0.69 10.04 -0.01 -0.02 0.01 12771
0.10 0.69 0.70 -0.67 9.98 -0.01 -0.02 0.01 12778
0.07 0.69 0.72 -0.66 10.04 -0.01 -0.02 0.01 12784
0.05 0.69 0.67 -0.64 9.98 -0.01 -0.01 0.01 12790
0.06 0.68 0.67 -0.65 9.98 -0.01 -0.01 0.01 12796
0.07 0.67 0.70 -0.66 10.02 -0.01 -0.01 0.01 12803
0.09 0.68 0.68 -0.67 10.00 -0.01 -0.01 0.01 12810
0.06 0.68 0.74 -0.71 10.01 -0.01 -0.01 0.01 12816
0.05 0.69 0.65 -0.67 9.99 -0.01 -0.01 0.01 12822
0.05 0.71 0.70 -0.68 10.07 -0.00 -0.01 0.01 12828
0.07 0.70 0.69 -0.67 10.03 -0.00 -0.01 0.01 12834
0.06 0.69 0.70 -0.66 10.01 -0.01 -0.01 0.01 12841
0.06 0.70 0.67 -0.70 10.05 -0.00 -0.01 0.01 12848
0.05 0.72 0.72 -0.65 10.00 0.03 -0.01 0.01 12854
0.03 0.73 0.72 -0.68 9.99 0.00 -0.00 0.01 12860
0.04 0.73 0.72 -0.73 10.04 -0.00 -0.00 0.01 12867
0.04 0.71 0.69 -0.67 9.99 0.00 0.00 0.01 12873
0.02 0.72 0.75 -0.66 10.06 0.00 0.00 0.01 12879
0.04 0.72 0.76 -0.68 10.04 0.01 0.00 0.01 12886
0.04 0.70 0.76 -0.67 10.04 0.01 0.00 0.02 12892
0.03 0.70 0.75 -0.70 10.03 0.02 -0.00 0.02 12899
0.04 0.67 0.73 -0.69 9.99 0.02 -0.00 0.02 12905
0.03 0.64 0.74 -0.69 9.96 0.01 -0.01 0.02 12911
0.03 0.64 0.80 -0.68 9.99 0.01 -0.01 0.02 12917
0.04 0.61 0.76 -0.67 9.98 0.02 -0.01 0.03 12923
0.04 0.57 0.76 -0.69 10.00 0.02 -0.01 0.03 12930
0.04 0.53 0.76 -0.67 9.93 0.02 -0.01 0.03 12937
0.05 0.46 0.77 -0.63 9.95 0.02 -0.01 0.03 12943
0.04 0.41 0.79 -0.62 10.04 0.03 -0.02 0.02 12949
0.04 0.40 0.80 -0.67 10.02 0.04 -0.02 0.02 12955
0.04 0.30 0.84 -0.68 10.00 0.05 -0.02 0.02 12962
0.04 0.24 0.81 -0.67 9.95 0.06 -0.02 0.01 12968
0.07 0.23 0.87 -0.67 10.07 0.07 -0.03 0.01 12975
0.07 0.11 0.90 -0.69 10.02 0.07 -0.03 -0.00 12981
0.07 0.07 1.24 -1.12 10.20 0.08 -0.04 -0.00 12987
0.07 0.03 0.89 -0.78 10.19 0.10 -0.05 -0.01 12994
0.08 -0.01 0.98 -0.74 10.27 0.11 -0.05 -0.02 13000
0.07 0.03 0.96 -0.77 10.27 0.13 -0.06 -0.03 13006
0.10 -0.01 0.89 -0.85 10.26 0.14 -0.07 -0.04 13012
0.12 -0.01 1.00 -0.90 10.47 0.17 -0.09 -0.06 13019
0.14 -0.01 1.30 -0.89 10.72 0.22 -0.10 -0.10 13026
0.13 -0.01 2.00 -0.86 11.01 0.32 -0.10 -0.19 13032
0.13 -0.01 2.48 -1.13 11.66 0.50 -0.10 -0.34 13038
0.21 -0.02 2.46 -1.10 12.02 0.84 -0.14 -0.47 13044
0.19 -0.02 2.21 -1.28 13.92 1.29 -0.23 -0.58 13050
0.20 -0.02 2.30 -1.33 13.33 1.58 -0.40 -0.68 13058
0.21 -0.02 2.50 -1.76 12.89 1.69 -0.59 -0.77 13064
0.21 -0.02 2.98 -2.25 12.61 1.76 -0.75 -0.88 13070
0.19 -0.00 4.04 -2.48 13.02 1.82 -0.91 -1.03 13076
0.19 -0.02 4.80 -3.15 12.41 1.86 -1.08 -1.22 13083
0.17 -0.01 5.52 -3.14 12.39 1.87 -1.21 -1.44 13089
0.17 -0.01 5.65 -4.31 12.55 1.85 -1.31 -1.67 13095
0.15 -0.01 6.99 -4.04 12.26 1.78 -1.41 -1.90 13102
0.11 0.00 6.95 -4.62 12.59 1.69 -1.38 -2.12 13109
0.07 -0.01 6.93 -4.66 12.49 1.56 -1.36 -2.33 13115
0.08 -0.01 7.81 -4.35 12.86 1.39 -1.35 -2.52 13121
0.09 -0.01 7.47 -3.41 12.97 1.22 -1.35 -2.71 13127
0.08 -0.01 7.73 -2.86 13.06 1.03 -1.38 -2.89 13134
0.05 -0.00 6.39 -2.21 12.91 0.79 -1.51 -3.05 13140
0.06 -0.01 6.23 -1.22 12.30 0.52 -1.74 -3.17 13147
0.03 -0.00 6.07 0.02 11.76 0.26 -2.01 -3.26 13153
0.06 -0.00 7.34 1.17 10.14 0.00 -2.23 -3.26 13160
0.05 -0.00 9.30 1.73 8.44 -0.19 -2.34 -3.10 13166
0.04 -0.00 10.57 0.17 7.77 -0.28 -2.24 -2.72 13172
0.06 -0.01 10.69 -1.05 9.19 -0.31 -1.80 -2.22 13178
0.04 -0.00 11.59 -0.62 10.81 -0.42 -1.20 -1.75 13185
0.05 -0.00 11.66 0.31 9.99 -0.52 -0.69 -1.36 13192
0.05 -0.00 11.00 0.42 8.95 -0.52 -0.36 -1.08 13198
0.04 -0.00 10.16 -0.05 7.88 -0.51 -0.12 -0.88 13204
0.05 -0.00 9.36 -0.28 7.28 -0.48 0.09 -0.73 13210
0.06 -0.01 8.96 -0.28 7.27 -0.37 0.31 -0.60 13216
0.04 -0.00 8.60 -0.17 7.54 -0.29 0.55 -0.51 13222
0.05 -0.00 8.26 0.08 7.68 -0.17 0.73 -0.46 13230
0.04 -0.00 7.70 0.45 7.77 -0.08 0.93 -0.44 13236
0.04 -0.00 6.96 0.91 8.58 -0.01 1.07 -0.44 13242
0.04 -0.00 6.32 1.32 8.19 0.03 1.16 -0.46 13248
0.05 -0.00 5.71 1.59 8.50 0.04 1.21 -0.49 13254
0.05 -0.00 5.22 1.78 8.92 0.05 1.27 -0.53 13260
0.03 -0.00 4.80 1.78 9.50 0.04 1.34 -0.58 13266
0.02 -0.00 4.67 1.66 10.08 -0.00 1.41 -0.65 13274
0.03 -0.00 4.66 1.57 10.82 -0.07 1.51 -0.71 13280
0.04 -0.00 4.43 1.50 11.32 -0.17 1.63 -0.77 13286
0.04 -0.00 3.88 1.33 11.38 -0.28 1.77 -0.80 13292
0.05 -0.01 3.19 0.94 11.26 -0.40 1.91 -0.84 13298
0.05 -0.00 2.59 0.58 11.26 -0.51 1.99 -0.86 13305
0.04 -0.00 2.19 0.27 11.20 -0.57 2.02 -0.87 13312
0.05 -0.00 1.90 0.08 10.98 -0.60 2.04 -0.86 13318
0.04 -0.00 1.58 -0.01 10.65 -0.61 2.07 -0.83 13324
0.03 -0.00 1.28 -0.13 10.32 -0.60 2.12 -0.78 13330
0.04 -0.00 0.95 -0.24 10.27 -0.57 2.13 -0.72 13337
0.03 -0.00 0.66 -0.22 10.37 -0.54 2.11 -0.65 13343
0.04 -0.00 0.28 -0.17 10.48 -0.50 2.07 -0.56 13349
0.04 -0.00 0.00 -0.04 10.39 -0.46 2.05 -0.44 13356
0.04 -0.00 -0.15 0.07 10.36 -0.41 2.03 -0.30 13362
0.04 -0.00 -0.34 0.20 10.35 -0.37 2.01 -0.16 13368
0.04 -0.00 -0.64 0.33 10.52 -0.34 2.00 -0.01 13375
0.03 -0.00 -0.85 0.36 10.92 -0.30 2.04 0.15 13381
0.03 -0.00 -1.22 0.31 11.42 -0.27 2.10 0.28 13387
0.04 -0.00 -1.71 0.20 11.88 -0.26 2.17 0.45 13393
0.04 -0.00 -2.35 0.06 12.35 -0.27 2.22 0.62 13400
0.04 -0.00 -3.18 -0.24 12.70 -0.30 2.23 0.80 13407
0.03 -0.00 -4.10 -0.52 12.83 -0.36 2.14 1.00 13413
0.03 -0.00 -4.77 -0.80 12.83 -0.42 1.97 1.20 13419
0.04 -0.00 -5.27 -1.07 12.48 -0.48 1.72 1.40 13425
0.04 -0.00 -5.49 -1.42 12.07 -0.56 1.45 1.59 13431
0.04 -0.00 -5.39 -1.77 11.55 -0.57 1.18 1.74 13438
0.03 0.00 -5.23 -2.19 10.99 -0.59 0.98 1.85 13445
0.04 -0.00 -5.04 -2.55 10.46 -0.58 0.87 1.90 13451
0.02 -0.00 -5.00 -2.76 10.17 -0.54 0.83 1.91 13457
0.04 -0.00 -5.08 -2.79 10.06 -0.50 0.79 1.89 13463
0.04 -0.00 -5.20 -2.64 10.28 -0.44 0.75 1.84 13470
0.03 -0.00 -5.27 -2.61 10.51 -0.42 0.70 1.78 13476
0.04 -0.00 -5.34 -2.61 10.71 -0.43 0.63 1.72 13483
0.04 -0.00 -5.26 -2.62 10.84 -0.48 0.52 1.65 13489
0.03 -0.00 -5.21 -2.76 10.84 -0.55 0.40 1.60 13496
0.03 -0.00 -5.00 -3.09 10.66 -0.62 0.27 1.55 13502
0.03 -0.00 -4.76 -3.57 10.21 -0.66 0.15 1.50 13508
0.03 -0.00 -4.56 -4.15 9.54 -0.68 0.05 1.46 13514
0.04 -0.00 -4.29 -4.79 8.83 -0.64 -0.01 1.40 13520
0.02 -0.00 -3.87 -5.50 8.28 -0.57 -0.04 1.34 13527
0.03 -0.00 -3.42 -6.01 8.05 -0.43 -0.03 1.27 13534
0.03 -0.00 -29.13 -17.06 27.50 0.26 -2.90 1.45 13540
0.04 -0.00 -16.88 -8.12 6.48 0.63 -3.17 1.73 13546
0.04 -0.00 -8.36 -4.71 -2.70 0.54 -3.88 1.91 13552
0.04 -0.00 -7.39 -11.73 7.50 0.61 -4.26 1.99 13558
0.03 -0.00 -15.25 -10.63 14.13 0.86 -4.28 2.28 13565
0.03 0.09 -6.90 -5.70 10.53 1.80 -2.57 2.99 13572
0.03 0.31 -11.58 -2.27 17.77 2.00 -1.90 2.87 13578
0.04 0.34 -18.23 -6.17 22.90 2.08 -1.36 2.48 13585
0.03 0.34 -13.34 -0.08 18.33 1.73 -1.48 1.62 13591
0.02 0.29 -9.57 -0.77 20.20 0.95 -1.27 0.81 13597
0.02 0.26 -2.77 -0.76 10.80 0.19 -0.38 0.22 13604
0.02 0.19 1.16 -0.35 10.29 0.12 -0.26 0.11 13611
0.04 0.18 1.61 -0.24 9.87 0.10 -0.25 0.21 13617
0.04 0.17 2.79 0.22 10.26 0.06 -0.23 0.36 13623
0.04 0.21 0.02 -0.99 10.40 -0.02 -0.21 0.41 13629
0.06 0.25 0.13 -1.06 10.10 -0.08 -0.26 0.30 13636
0.06 0.33 0.17 -2.22 10.22 -0.10 -0.25 0.25 13642
0.06 0.33 0.30 -2.91 10.47 -0.10 -0.21 0.20 13648
0.07 0.34 -0.03 -0.82 9.73 -0.14 -0.21 0.17 13655
0.06 0.34 -0.08 -1.47 9.98 -0.14 -0.14 0.14 13662
0.08 0.39 -0.11 -1.09 9.72 -0.14 -0.09 0.07 13668
0.08 0.47 0.22 -0.67 9.83 -0.13 -0.07 0.08 13674
0.09 0.47 0.37 -0.55 10.11 -0.10 -0.05 0.06 13680
0.13 0.48 0.49 -0.62 10.16 -0.06 -0.03 0.05 13687
0.14 0.50 0.46 -0.67 10.14 -0.04 -0.02 0.04 13693
0.14 0.52 0.48 -0.75 10.16 -0.03 -0.03 0.04 13700
0.14 0.51 0.44 -0.81 10.10 -0.02 -0.03 0.04 13706
0.17 0.52 0.56 -0.39 9.78 -0.03 -0.03 0.04 13712
0.18 0.50 0.41 -0.79 9.95 -0.04 -0.03 0.05 13719
0.18 0.49 0.55 -0.77 9.89 -0.05 -0.03 0.06 13725
0.19 0.49 0.60 -0.83 10.10 -0.05 -0.03 0.06 13731
0.20 0.49 0.68 -0.76 10.01 -0.05 -0.04 0.06 13737
0.21 0.49 0.66 -0.77 10.02 -0.04 -0.04 0.06 13745
0.23 0.52 0.68 -0.76 10.10 -0.04 -0.05 0.05 13751
0.22 0.55 0.58 -0.76 10.04 -0.04 -0.05 0.05 13757
0.25 0.52 0.54 -0.79 10.07 -0.04 -0.05 0.04 13763
0.27 0.53 0.55 -0.74 10.09 -0.03 -0.05 0.04 13770
0.28 0.53 0.62 -0.76 10.05 -0.03 -0.06 0.04 13776
0.30 0.53 0.61 -0.75 10.05 -0.03 -0.05 0.04 13783
0.33 0.57 0.53 -0.68 10.10 -0.02 -0.05 0.03 13789
0.29 0.56 0.59 -0.71 10.09 -0.02 -0.05 0.03 13795
0.31 0.54 0.64 -0.74 10.05 -0.01 -0.06 0.03 13802
0.32 0.55 0.60 -0.72 10.06 -0.01 -0.06 0.02 13808
0.36 0.54 0.57 -0.74 10.05 -0.01 -0.06 0.03 13814
0.35 0.52 0.59 -0.71 10.05 -0.00 -0.06 0.02 13820
0.38 0.50 0.58 -0.70 10.04 -0.01 -0.06 0.03 13828
0.38 0.53 0.53 -0.74 10.07 -0.01 -0.06 0.02 13834
0.40 0.52 0.57 -0.73 10.04 -0.01 -0.06 0.03 13840
0.41 0.52 0.58 -0.75 10.04 -0.01 -0.06 0.03 13846
0.41 0.55 0.57 -0.71 10.06 -0.01 -0.06 0.03 13853
0.40 0.57 0.54 -0.72 10.05 -0.02 -0.06 0.03 13859
0.40 0.61 0.52 -0.67 10.03 -0.02 -0.06 0.03 13865
0.39 0.60 0.49 -0.68 10.04 -0.02 -0.06 0.02 13872
0.41 0.58 0.53 -0.73 10.04 -0.01 -0.06 0.03 13879
0.44 0.56 0.47 -0.68 10.05 -0.02 -0.06 0.03 13885
0.41 0.54 0.51 -0.70 10.02 -0.02 -0.06 0.02 13891
0.41 0.60 0.53 -0.71 10.02 -0.02 -0.06 0.02 13897
0.39 0.60 0.51 -0.70 10.04 -0.01 -0.05 0.02 13904
0.36 0.63 0.51 -0.67 10.04 -0.01 -0.06 0.03 13911
0.37 0.63 0.52 -0.68 10.02 -0.01 -0.06 0.02 13917
0.36 0.60 0.51 -0.70 10.04 -0.02 -0.06 0.02 13923
0.36 0.59 0.46 -0.68 10.04 -0.02 -0.06 0.02 13929
0.36 0.63 0.51 -0.72 10.04 -0.02 -0.06 0.02 13936
0.32 0.64 0.44 -0.68 10.04 -0.02 -0.06 0.02 13942
0.30 0.69 0.46 -0.68 10.02 -0.02 -0.06 0.02 13948
0.28 0.72 0.46 -0.64 10.01 -0.01 -0.06 0.02 13955
0.29 0.74 0.47 -0.65 10.01 -0.01 -0.05 0.02 13962
0.29 0.74 0.46 -0.64 10.02 -0.01 -0.04 0.02 13968
0.29 0.70 0.50 -0.65 9.99 -0.00 -0.04 0.02 13974
0.29 0.72 0.49 -0.71 10.02 -0.00 -0.04 0.02 13980
0.28 0.70 0.50 -0.67 10.00 -0.01 -0.04 0.02 13987
0.29 0.70 0.50 -0.69 10.00 -0.00 -0.04 0.01 13993
0.30 0.72 0.47 -0.68 9.99 -0.01 -0.04 0.01 14000
0.30 0.71 0.48 -0.71 10.02 -0.01 -0.04 0.01 14006
0.28 0.70 0.51 -0.70 10.01 -0.01 -0.04 0.01 14012
0.28 0.70 0.51 -0.69 10.08 -0.01 -0.05 0.01 14019
0.28 0.69 0.50 -0.66 10.03 -0.01 -0.05 0.01 14025
0.28 0.68 0.43 -0.68 10.05 -0.01 -0.05 0.00 14031
0.28 0.70 0.50 -0.69 10.03 -0.01 -0.05 0.00 14038
0.27 0.69 0.46 -0.65 10.02 -0.01 -0.05 -0.00 14045
0.26 0.74 0.51 -0.72 9.96 -0.01 -0.05 -0.00 14051
0.25 0.76 0.52 -0.68 10.03 -0.01 -0.05 -0.00 14057
0.23 0.76 0.44 -0.68 10.03 -0.00 -0.05 -0.00 14063
0.23 0.75 0.50 -0.65 9.99 -0.01 -0.05 0.00 14069
0.23 0.75 0.50 -0.68 9.98 -0.01 -0.05 -0.00 14076
0.23 0.74 0.47 -0.67 10.03 -0.01 -0.04 0.00 14083
0.24 0.74 0.53 -0.66 10.01 -0.01 -0.04 0.00 14089
0.22 0.75 0.46 -0.66 10.03 -0.02 -0.03 0.00 14095
0.19 0.79 0.44 -0.70 10.02 -0.01 -0.03 0.00 14102
0.18 0.83 0.44 -0.68 9.99 -0.01 -0.03 0.01 14108
0.15 0.82 0.49 -0.65 10.02 -0.01 -0.03 0.01 14114
0.16 0.84 0.44 -0.67 10.05 -0.01 -0.03 0.01 14120
0.15 0.86 0.46 -0.69 10.03 -0.01 -0.03 0.01 14127
0.14 0.83 0.50 -0.66 10.00 -0.01 -0.03 0.00 14134
0.18 0.85 0.52 -0.69 10.03 -0.01 -0.03 0.00 14140
0.20 0.82 0.46 -0.67 10.05 -0.01 -0.04 0.01 14146
0.20 0.84 0.46 -0.66 10.02 -0.01 -0.04 0.00 14152
0.17 0.86 0.49 -0.67 10.00 -0.01 -0.04 0.00 14159
0.14 0.90 0.40 -0.71 10.01 -0.01 -0.04 0.00 14166
0.20 0.89 0.45 -0.66 9.98 -0.01 -0.03 -0.00 14172
0.17 0.90 0.47 -0.68 10.00 -0.01 -0.03 -0.00 14178
0.15 0.89 0.41 -0.69 10.01 -0.01 -0.03 -0.00 14184
0.18 0.92 0.43 -0.65 9.98 -0.01 -0.02 -0.00 14191
0.16 0.91 0.37 -0.65 9.95 -0.00 -0.01 0.00 14197
0.14 0.87 0.37 -0.66 10.05 -0.00 0.01 -0.00 14203
0.15 0.89 0.36 -0.67 10.04 -0.00 0.03 0.00 14210
0.10 0.88 0.36 -0.69 10.00 -0.00 0.04 0.00 14216
0.08 0.90 0.43 -0.66 10.08 0.00 0.05 0.00 14223
0.10 0.90 0.45 -0.68 10.04 0.01 0.06 0.01 14229
0.09 0.90 0.50 -0.67 10.05 0.02 0.07 0.00 14235
0.08 0.90 0.42 -0.70 9.95 0.02 0.07 0.00 14241
0.06 0.88 0.57 -0.67 10.09 0.03 0.07 -0.00 14247
0.05 0.81 0.71 -0.59 10.14 0.04 0.06 -0.01 14255
0.12 0.73 0.83 -0.69 10.15 0.05 0.04 -0.02 14261
0.13 0.60 0.71 -0.76 10.18 0.07 0.03 -0.03 14267
0.16 0.50 0.73 -0.65 10.14 0.07 0.02 -0.04 14273
0.18 0.40 0.86 -0.57 10.04 0.09 0.01 -0.06 14280
0.17 0.31 0.71 -0.74 10.12 0.10 -0.00 -0.06 14286
0.19 0.27 0.68 -0.76 10.11 0.12 -0.01 -0.07 14292
0.20 0.18 0.62 -0.83 10.21 0.14 -0.02 -0.07 14299
0.22 0.09 0.58 -0.80 10.05 0.16 -0.03 -0.08 14306
0.26 0.05 0.82 -0.79 10.30 0.19 -0.05 -0.09 14312
0.25 0.01 0.88 -0.91 10.14 0.24 -0.07 -0.11 14318
0.25 0.01 0.89 -1.03 10.54 0.28 -0.10 -0.13 14324
0.22 0.01 1.14 -1.21 11.08 0.37 -0.18 -0.19 14331
0.24 -0.01 1.31 3.91 10.96 0.52 -0.30 -0.29 14338
0.27 -0.03 3.05 -1.95 12.67 0.74 -0.53 -0.43 14344
0.27 -0.03 4.66 -2.26 14.43 0.95 -0.77 -0.63 14350
0.28 -0.01 2.79 -1.94 15.12 1.32 -0.97 -0.88 14357
0.26 -0.02 2.47 -2.12 15.53 1.64 -1.37 -0.94 14363
0.24 -0.02 2.62 -2.19 14.54 1.84 -1.66 -1.03 14369
0.27 -0.02 2.82 -2.77 13.88 1.87 -1.79 -1.13 14375
0.24 -0.02 4.08 -3.02 13.58 1.90 -1.84 -1.28 14383
0.22 -0.01 3.58 -3.57 13.25 1.93 -1.89 -1.43 14389
0.17 -0.02 4.07 -3.38 12.75 1.93 -1.91 -1.59 14395
0.15 -0.02 4.42 -4.22 12.70 1.90 -1.91 -1.74 14401
0.16 -0.01 4.01 -4.18 13.26 1.80 -1.89 -1.93 14408
0.12 -0.01 5.46 -4.59 13.29 1.65 -1.87 -2.13 14414
0.11 0.01 5.48 -4.82 14.55 1.53 -1.92 -2.31 14420
0.07 -0.01 6.35 -4.17 14.87 1.38 -1.99 -2.50 14427
0.07 -0.01 4.84 -2.53 15.20 1.16 -2.14 -2.66 14434
0.08 -0.01 4.62 -2.27 15.10 0.86 -2.41 -2.76 14440
0.06 -0.01 3.77 -2.01 13.86 0.50 -2.90 -2.82 14446
0.06 -0.00 3.31 -1.62 11.67 0.17 -3.56 -2.87 14452
0.07 -0.01 3.71 -0.38 8.84 -0.10 -4.16 -2.82 14459
0.06 -0.01 5.93 0.26 6.49 -0.27 -4.18 -2.52 14466
0.06 -0.00 13.16 0.09 7.63 -0.36 -3.50 -1.78 14472
0.06 -0.01 13.12 -0.22 10.61 -0.46 -2.21 -0.96 14478
0.05 -0.01 15.33 -0.01 11.91 -0.71 -1.00 -0.51 14485
0.07 -0.01 14.07 -0.46 9.51 -0.92 -0.31 -0.30 14491
0.05 -0.01 10.91 -0.50 7.04 -1.06 0.17 -0.15 14497
0.05 -0.00 8.78 -0.33 5.88 -1.07 0.56 -0.00 14503
0.05 -0.01 7.53 -0.76 5.44 -0.94 0.68 0.12 14510
0.05 -0.00 6.40 -1.19 5.37 -0.76 0.71 0.18 14516
0.04 -0.00 5.53 -1.40 6.12 -0.57 0.70 0.20 14522
0.03 -0.00 5.21 -1.21 5.83 -0.39 0.74 0.17 14529
0.04 -0.00 5.20 -0.75 6.68 -0.26 0.87 0.09 14535
0.05 -0.01 5.11 -0.11 7.42 -0.16 1.07 0.01 14541
0.06 -0.01 4.84 0.32 8.18 -0.11 1.33 -0.07 14547
0.05 -0.01 4.14 0.64 9.04 -0.09 1.60 -0.15 14554
0.04 -0.00 3.59 0.69 9.59 -0.10 1.80 -0.21 14560
0.04 -0.00 2.59 0.56 9.98 -0.13 1.97 -0.25 14566
0.03 -0.00 1.51 0.42 10.52 -0.17 2.04 -0.28 14573
0.03 -0.00 0.72 0.27 10.77 -0.23 2.00 -0.30 14579
0.04 -0.00 0.14 0.09 11.04 -0.30 1.91 -0.32 14585
0.06 -0.01 -0.04 -0.16 11.05 -0.37 1.80 -0.33 14592
0.04 -0.00 0.02 -0.20 11.08 -0.42 1.71 -0.34 14598
0.02 -0.00 0.20 -0.24 10.97 -0.46 1.66 -0.35 14605
0.05 -0.00 0.38 -0.30 10.83 -0.47 1.65 -0.34 14611
0.05 -0.00 0.44 -0.29 10.90 -0.47 1.68 -0.33 14617
0.03 -0.00 0.45 -0.26 11.01 -0.43 1.74 -0.30 14623
0.05 -0.01 0.46 -0.22 11.12 -0.39 1.80 -0.26 14629
0.04 -0.00 0.34 -0.21 11.36 -0.35 1.78 -0.22 14637
0.02 -0.00 0.15 -0.19 11.68 -0.32 1.77 -0.16 14643
0.04 -0.00 0.09 -0.11 12.09 -0.29 1.73 -0.07 14649
0.04 -0.00 0.12 -0.05 12.33 -0.29 1.69 -0.01 14655
0.03 -0.00 0.15 -0.10 12.27 -0.30 1.66 0.10 14661
0.05 -0.01 0.08 -0.30 12.15 -0.33 1.65 0.23 14667
0.04 -0.00 0.04 -0.64 11.84 -0.34 1.64 0.35 14674
0.02 -0.00 -0.10 -1.04 11.50 -0.34 1.66 0.46 14681
0.03 -0.00 -0.30 -1.36 11.24 -0.31 1.72 0.54 14687
0.03 -0.00 -0.62 -1.56 11.03 -0.24 1.82 0.61 14693
0.03 -0.00 -1.02 -1.68 10.81 -0.21 1.93 0.67 14699
0.05 -0.01 -1.42 -1.63 11.00 -0.15 2.02 0.73 14706
0.04 -0.00 -2.03 -1.71 11.29 -0.09 2.07 0.79 14712
0.03 -0.00 -2.80 -1.66 11.52 -0.06 2.01 0.85 14718
0.04 -0.00 -3.51 -1.43 11.51 -0.03 1.90 0.90 14725
0.03 -0.00 -3.79 -0.65 11.36 -0.05 1.67 0.95 14731
0.04 -0.00 -3.63 -1.07 11.26 -0.09 1.40 1.01 14738
0.04 -0.00 -3.28 -1.09 11.16 -0.15 1.16 1.07 14744
0.03 -0.00 -2.69 -1.13 10.79 -0.21 0.98 1.13 14750
0.04 -0.00 -2.28 -1.38 10.32 -0.26 0.90 1.18 14756
0.04 -0.00 -2.11 -1.87 9.98 -0.29 0.91 1.20 14763
0.04 -0.00 -2.05 -2.38 9.79 -0.30 0.97 1.20 14770
0.03 -0.00 -2.01 -2.75 9.74 -0.27 1.02 1.18 14776
0.05 -0.00 -2.10 -3.02 9.71 -0.29 1.08 1.16 14782
0.04 -0.00 -2.20 -3.19 9.89 -0.29 1.10 1.13 14788
0.03 -0.00 -2.21 -3.45 10.10 -0.30 1.11 1.10 14794
0.05 -0.00 -2.35 -3.55 10.21 -0.33 1.12 1.07 14800
0.03 -0.00 -2.44 -3.71 10.08 -0.38 1.14 1.05 14808
0.03 -0.00 -2.65 -3.89 9.91 -0.43 1.13 1.04 14814
0.05 -0.01 -2.90 -4.24 9.72 -0.45 1.10 1.06 14820
0.03 -0.00 -3.05 -4.66 9.57 -0.45 1.02 1.12 14826
0.03 -0.00 -3.11 -4.96 9.26 -0.42 0.91 1.21 14832
0.03 -0.00 -3.05 -5.14 8.81 -0.37 0.77 1.32 14838
0.04 -0.00 -3.09 -5.30 8.34 -0.27 0.66 1.46 14845
0.03 -0.00 -3.18 -5.47 8.02 -0.21 0.56 1.59 14852
0.03 -0.00 -3.46 -5.80 7.87 -0.11 0.53 1.70 14858
0.04 -0.00 -4.02 -6.12 7.66 -0.01 0.52 1.76 14864
0.03 -0.00 -4.71 -6.01 7.54 0.08 0.52 1.79 14870
0.03 -0.00 -5.16 -5.58 7.56 0.16 0.54 1.80 14876
0.05 -0.00 -5.69 -5.06 7.26 0.20 0.56 1.81 14882
0.04 -0.00 -6.20 -4.26 7.09 0.23 0.54 1.82 14889
0.02 -0.00 -6.20 -3.29 7.04 0.23 0.47 1.85 14896
0.03 0.00 -5.98 -2.28 6.85 0.21 0.36 1.90 14902
0.04 -0.00 -5.50 -1.48 6.54 0.16 0.21 1.98 14908
0.03 -0.00 -24.25 -15.02 25.43 0.31 -2.13 2.15 14914
0.03 -0.00 -22.32 -9.56 13.23 1.38 -4.28 2.79 14921
0.04 -0.00 -6.68 -5.79 -6.53 0.54 -4.28 2.74 14927
0.04 0.08 -9.55 25.82 35.89 0.42 -4.28 1.95 14934
0.00 0.49 -24.17 -34.36 48.20 2.12 -2.73 1.71 14941
-0.02 0.84 -8.21 5.68 22.11 1.01 -2.02 0.83 14947
-0.01 0.90 -6.54 5.11 16.00 0.37 -1.38 0.17 14953
-0.02 0.78 -3.68 3.04 10.11 0.03 -0.21 -0.14 14959
0.04 0.61 0.86 -0.09 7.21 -0.05 0.14 -0.25 14966
0.02 0.51 4.79 -1.49 5.96 0.31 -0.28 -0.12 14972
0.01 0.37 3.82 -1.73 14.36 0.59 -0.38 0.26 14979
0.05 0.35 1.78 -0.08 10.52 0.17 -0.12 0.41 14985
0.04 0.32 -0.40 -0.56 11.23 0.02 -0.27 0.26 14992
0.03 0.35 -0.57 -1.97 9.83 -0.05 -0.29 0.19 14998
0.05 0.34 -0.83 -2.10 10.13 0.02 -0.15 0.10 15004
0.04 0.36 -0.44 -0.86 9.84 -0.04 -0.11 0.04 15010
0.07 0.38 0.41 -1.01 9.89 -0.09 -0.07 0.05 15016
0.07 0.41 0.03 -0.70 10.00 -0.11 -0.04 0.03 15024
0.06 0.47 0.36 -0.68 10.26 -0.11 -0.03 0.03 15030
0.08 0.51 0.67 -0.55 10.33 -0.08 -0.01 0.02 15036
0.11 0.47 0.61 -0.53 10.32 -0.06 -0.02 0.02 15042
0.13 0.50 0.54 -0.64 10.11 -0.05 -0.02 0.03 15049
0.14 0.51 0.52 -0.76 10.04 -0.05 -0.02 0.03 15055
0.12 0.54 0.52 -0.78 10.06 -0.05 -0.02 0.03 15062
0.12 0.54 0.57 -0.76 9.71 -0.06 -0.03 0.02 15068
0.12 0.53 0.63 -0.71 10.11 -0.05 -0.04 0.02 15074
0.13 0.55 0.66 -0.74 10.09 -0.05 -0.04 0.01 15081
0.16 0.56 0.65 -0.69 10.12 -0.05 -0.04 0.01 15087
0.16 0.53 0.58 -0.68 10.18 -0.04 -0.04 0.01 15093
0.19 0.56 0.60 -0.66 10.05 -0.04 -0.04 0.02 15099
0.18 0.54 0.63 -0.68 10.10 -0.03 -0.04 0.01 15107
0.17 0.54 0.59 -0.70 10.07 -0.04 -0.05 0.01 15113
0.19 0.53 0.59 -0.65 10.01 -0.04 -0.05 0.01 15119
0.18 0.55 0.60 -0.64 10.01 -0.04 -0.04 0.01 15125
0.20 0.57 0.62 -0.68 9.98 -0.03 -0.04 0.01 15132
0.21 0.56 0.55 -0.64 10.03 -0.03 -0.04 0.01 15138
0.21 0.56 0.53 -0.64 10.04 -0.02 -0.03 0.01 15144
0.26 0.56 0.55 -0.60 10.06 -0.02 -0.02 0.01 15151
0.26 0.55 0.57 -0.60 10.13 -0.01 -0.02 0.01 15158
0.26 0.55 0.61 -0.65 10.10 -0.01 -0.01 0.02 15164
0.27 0.55 0.57 -0.67 10.07 -0.01 -0.01 0.02 15170
0.27 0.54 0.60 -0.68 10.05 -0.01 -0.01 0.02 15176
0.28 0.56 1.21 -0.64 10.10 -0.01 -0.01 0.02 15183
0.26 0.56 0.54 -0.63 10.08 -0.01 -0.01 0.02 15190
0.27 0.53 0.55 -0.65 10.03 -0.01 -0.01 0.01 15196
0.27 0.52 0.59 -0.66 10.07 -0.01 -0.00 0.02 15202
0.26 0.48 0.61 -0.64 10.05 -0.01 -0.01 0.02 15208
0.29 0.51 0.60 -0.64 9.98 -0.01 -0.00 0.02 15215
0.29 0.47 0.59 -0.62 10.03 -0.01 -0.00 0.02 15221
0.27 0.48 0.60 -0.61 9.97 -0.01 0.00 0.02 15227
0.28 0.49 0.62 -0.63 10.03 -0.01 0.00 0.02 15234
0.28 0.49 0.61 -0.64 10.05 -0.01 0.00 0.02 15240
0.26 0.50 0.64 -0.62 10.03 -0.01 0.00 0.02 15247
0.28 0.50 0.62 -0.64 10.04 -0.01 0.00 0.03 15253
0.26 0.50 0.62 -0.64 10.04 -0.01 0.00 0.03 15259
0.24 0.50 0.58 -0.63 10.03 -0.01 0.01 0.03 15265
0.22 0.51 0.64 -0.61 10.06 -0.00 0.00 0.02 15272
0.21 0.50 0.63 -0.65 10.06 -0.00 0.00 0.02 15279
0.22 0.52 0.59 -0.62 9.98 -0.00 0.01 0.02 15285
0.23 0.51 0.58 -0.61 10.00 -0.01 0.01 0.03 15291
0.22 0.50 0.60 -0.60 10.00 -0.00 0.01 0.03 15297
0.21 0.51 0.61 -0.60 9.99 -0.00 0.01 0.03 15304
0.22 0.50 0.68 -0.62 10.09 -0.00 0.00 0.03 15310
0.20 0.50 0.03 -0.65 9.98 -0.00 0.00 0.03 15316
0.21 0.51 0.63 -0.63 10.00 -0.00 0.00 0.03 15323
0.20 0.50 0.65 -0.63 10.07 -0.01 0.00 0.03 15329
0.19 0.50 0.65 -0.62 10.04 -0.00 0.00 0.03 15336
0.20 0.49 0.66 -0.61 9.99 -0.01 0.00 0.03 15342
0.18 0.50 0.65 -0.61 9.98 -0.01 0.00 0.02 15348
0.17 0.50 0.63 -0.63 10.04 -0.01 -0.00 0.03 15354
0.20 0.50 0.63 -0.60 10.02 -0.01 0.00 0.03 15361
0.18 0.51 0.68 -0.64 10.02 -0.01 0.00 0.03 15368
0.19 0.52 0.62 -0.60 10.02 -0.01 0.01 0.03 15374
0.18 0.52 0.67 -0.66 10.05 -0.01 0.00 0.03 15380
0.17 0.51 0.64 -0.62 10.04 -0.01 0.01 0.03 15386
0.18 0.56 0.67 -0.60 10.01 -0.02 0.01 0.03 15393
0.19 0.54 0.65 -0.62 10.03 -0.02 0.01 0.03 15399
0.13 0.56 0.66 -0.62 10.05 -0.02 0.02 0.03 15406
0.11 0.58 0.67 -0.64 10.03 -0.02 0.02 0.03 15412
0.09 0.60 0.64 -0.62 10.05 -0.02 0.02 0.03 15419
0.09 0.61 0.64 -0.60 9.97 -0.02 0.02 0.03 15425
0.11 0.59 0.64 -0.62 10.03 -0.02 0.02 0.03 15431
0.10 0.61 0.68 -0.59 10.02 -0.02 0.02 0.03 15437
0.09 0.68 0.71 -0.61 9.98 -0.02 0.02 0.03 15443
0.07 0.67 0.71 -0.60 10.02 -0.02 0.02 0.03 15451
0.05 0.66 0.68 -0.61 10.03 -0.02 0.01 0.03 15457
0.07 0.73 0.65 -0.60 10.05 -0.03 0.01 0.03 15463
