Voltage_01 Voltage_02 Acc_x Acc_y Acc_z Gyro_x Gyro_y Gyro_z Time
5000
0.25 -0.02 7.28 -5.81 12.20 1.40 -2.18 -2.10 23
0.18 -0.02 6.60 -6.10 13.23 1.36 -1.85 -2.43 29
0.13 -0.01 7.71 -5.16 13.53 1.25 -1.69 -2.76 35
0.09 -0.00 7.58 -4.15 14.58 1.10 -1.74 -3.02 41
0.08 -0.01 6.40 -4.04 15.45 0.94 -1.86 -3.24 48
0.06 -0.01 5.09 -2.57 15.59 0.68 -2.26 -3.45 54
0.04 0.00 5.54 -0.91 13.70 0.39 -2.99 -3.56 60
0.05 -0.01 5.81 -0.03 12.40 0.12 -3.69 -3.62 67
0.05 -0.01 8.45 1.49 11.49 -0.10 -4.20 -3.52 73
0.03 -0.00 13.15 2.32 11.66 -0.24 -4.03 -3.01 79
0.05 0.00 17.01 1.59 14.67 -0.39 -2.49 -2.03 86
0.05 -0.01 19.79 3.81 13.46 -0.74 -1.09 -1.24 92
0.06 -0.01 18.87 4.90 8.38 -1.08 -0.17 -0.80 98
0.05 -0.00 14.62 4.27 3.96 -1.29 0.22 -0.48 104
0.06 -0.00 11.98 3.15 2.73 -1.19 0.49 -0.04 110
0.06 -0.01 11.66 2.16 3.71 -0.85 0.61 0.37 116
0.05 -0.00 12.39 2.07 4.25 -0.52 0.75 0.68 122
0.04 -0.00 12.73 2.69 4.72 -0.23 1.06 0.87 130
0.05 -0.01 12.15 3.28 6.57 -0.10 1.46 1.02 136
0.06 -0.01 10.59 3.84 8.04 -0.09 1.99 1.09 142
0.05 -0.00 8.34 3.93 9.76 -0.13 2.40 1.16 148
0.05 -0.00 5.54 3.94 10.00 -0.21 2.58 1.23 154
0.06 -0.00 3.14 3.75 10.05 -0.28 2.55 1.30 160
0.06 -0.01 1.63 3.22 10.16 -0.34 2.42 1.34 166
0.05 -0.01 0.57 2.62 10.60 -0.38 2.31 1.31 173
0.04 -0.00 0.01 1.93 10.87 -0.42 2.22 1.29 179
0.05 -0.00 -0.34 1.33 11.39 -0.46 2.18 1.16 185
0.05 -0.01 -0.80 0.73 11.86 -0.52 2.19 0.97 192
0.06 -0.01 -1.36 0.24 12.38 -0.58 2.21 0.70 198
0.05 -0.01 -2.00 -0.39 12.65 -0.66 2.16 0.38 204
0.06 -0.00 -3.06 -1.12 12.76 -0.72 2.09 0.03 210
0.06 -0.01 -2.62 -1.64 12.44 -0.75 1.96 -0.32 217
0.06 -0.01 -2.34 -2.07 11.97 -0.74 1.83 -0.56 223
0.06 -0.01 -1.69 -2.24 11.56 -0.71 1.72 -0.83 229
0.07 -0.01 -1.01 -2.34 11.37 -0.66 1.68 -1.05 235
0.06 -0.01 -0.42 -2.50 11.14 -0.58 1.72 -1.20 242
0.06 -0.01 -0.19 -2.59 11.09 -0.55 1.80 -1.27 248
0.06 -0.01 -0.18 -2.57 11.10 -0.48 1.86 -1.27 254
0.07 -0.01 -0.39 -2.61 11.13 -0.41 1.90 -1.17 261
0.06 -0.01 -0.72 -2.64 11.20 -0.34 1.85 -1.07 267
0.05 -0.01 -1.04 -2.71 11.08 -0.27 1.74 -0.87 273
0.06 -0.00 -1.10 -2.64 10.96 -0.20 1.57 -0.64 279
0.07 -0.01 -0.91 -2.50 11.18 -0.11 1.40 -0.36 285
0.06 -0.01 -0.53 -2.34 11.56 -0.08 1.29 -0.06 291
0.05 -0.00 -0.35 -2.13 12.21 -0.03 1.24 0.26 299
0.05 -0.01 -0.45 -2.04 12.68 -0.03 1.21 0.59 305
0.06 -0.01 -0.49 -2.05 12.91 -0.07 1.17 0.82 311
0.05 -0.01 -0.68 -2.22 13.02 -0.15 1.13 1.09 317
0.04 -0.00 -0.98 -2.52 12.44 -0.20 1.09 1.33 323
0.05 -0.00 -1.50 -3.03 11.37 -0.21 1.07 1.51 329
0.06 -0.01 -2.04 -3.71 10.53 -0.17 1.04 1.60 335
0.05 -0.00 -2.60 -4.19 10.25 -0.08 1.06 1.57 342
0.04 -0.00 -3.15 -4.45 10.10 0.03 1.08 1.54 348
0.05 -0.00 -4.05 -4.38 10.36 0.15 1.11 1.40 355
0.06 -0.01 -5.03 -4.04 10.62 0.25 1.14 1.23 361
0.06 -0.01 -5.95 -3.57 10.66 0.31 1.15 1.03 367
0.05 -0.01 -6.80 -3.14 10.84 0.33 1.09 0.84 373
0.05 -0.01 -7.36 -2.77 11.00 0.30 1.00 0.66 379
0.05 -0.01 -7.78 -2.53 10.96 0.25 0.85 0.54 386
0.05 -0.01 -7.88 -2.37 11.30 0.17 0.67 0.42 392
0.05 -0.00 -7.56 -2.27 11.20 0.07 0.49 0.33 398
0.06 -0.00 -7.22 -2.48 10.63 -0.02 0.33 0.27 404
0.05 -0.01 -6.79 -3.05 9.84 -0.07 0.20 0.24 410
0.05 -0.01 -6.39 -3.71 9.21 -0.06 0.12 0.20 416
0.04 -0.00 -5.93 -4.20 8.91 0.00 0.05 0.18 423
0.05 -0.01 -5.60 -4.55 8.89 0.09 0.03 0.16 430
0.06 -0.01 -5.49 -4.56 9.01 0.18 0.03 0.17 436
0.06 -0.01 -5.62 -4.42 9.19 0.22 0.01 0.22 442
0.05 -0.00 -5.82 -4.35 9.11 0.24 -0.05 0.31 448
0.05 -0.00 -5.88 -4.26 8.98 0.25 -0.16 0.42 454
0.05 -0.01 -5.68 -4.14 9.03 0.26 -0.31 0.58 460
0.06 -0.01 -5.24 -3.99 9.11 0.27 -0.45 0.77 466
0.06 -0.01 -4.80 -3.68 9.24 0.28 -0.51 0.96 473
0.05 -0.01 -4.31 -3.40 9.07 0.28 -0.52 1.14 479
0.05 -0.00 -4.59 -3.33 9.24 0.27 -0.50 1.28 485
0.05 -0.01 -24.63 -3.06 21.17 0.68 -2.74 1.63 491
0.07 -0.01 -14.47 0.84 7.91 0.57 -3.83 2.18 497
0.05 -0.00 -1.40 -0.81 4.15 0.34 -4.28 2.43 503
0.04 -0.00 5.11 0.16 12.31 0.33 -4.28 2.28 509
0.05 0.02 -3.37 10.33 20.73 1.31 -2.61 2.06 517
0.04 0.10 -7.00 1.20 18.94 1.11 -1.61 1.84 523
0.03 0.27 -17.73 -0.92 21.10 0.39 -1.93 1.15 529
0.02 0.48 -4.17 -1.66 15.28 -0.13 -0.90 0.21 535
0.03 0.57 -2.06 0.30 11.01 -0.15 -0.25 -0.02 541
0.02 0.60 -0.57 0.07 10.04 -0.03 -0.13 -0.08 548
0.01 0.58 1.93 -0.39 9.86 0.08 -0.09 0.01 555
0.02 0.56 2.12 -0.06 9.92 0.12 -0.07 0.13 561
0.02 0.52 2.30 -0.07 9.77 0.10 -0.11 0.25 567
0.02 0.50 1.83 -0.26 9.97 0.03 -0.12 0.33 573
0.02 0.48 -0.07 -1.86 10.32 -0.01 -0.12 0.31 579
0.04 0.51 0.19 -1.30 8.33 -0.03 -0.07 0.23 585
0.05 0.54 -0.35 -1.46 9.71 -0.03 -0.03 0.17 591
0.06 0.55 -0.26 -1.55 10.16 -0.05 0.00 0.13 598
0.04 0.62 0.26 -1.03 9.96 -0.08 0.02 0.10 604
0.06 0.69 0.58 -0.91 10.00 -0.10 0.03 0.09 611
0.08 0.75 0.70 -0.80 10.10 -0.10 0.02 0.07 617
0.07 0.77 0.53 -0.70 10.17 -0.09 -0.00 0.07 623
0.06 0.83 0.67 -0.65 10.15 -0.07 0.00 0.07 629
0.09 0.84 0.63 -0.65 9.96 -0.05 0.02 0.07 635
0.07 0.82 0.65 -0.77 10.10 -0.04 0.02 0.07 642
0.07 0.84 0.40 -0.53 10.23 -0.04 0.02 0.07 648
0.10 0.85 0.65 -0.71 10.01 -0.04 0.03 0.08 654
0.09 0.91 0.59 -0.76 10.16 -0.03 0.02 0.04 661
0.09 0.90 0.70 -0.78 10.18 -0.03 0.03 0.06 667
0.11 0.88 0.69 -0.77 10.02 -0.02 0.03 0.06 673
0.15 0.88 0.67 -0.74 10.12 -0.02 0.03 0.06 679
0.17 0.82 0.65 -0.73 9.98 -0.01 0.03 0.06 686
0.17 0.83 0.77 -0.69 10.06 -0.01 0.04 0.06 692
0.18 0.80 0.70 -0.73 9.96 -0.01 0.04 0.06 698
0.18 0.82 0.80 -0.75 9.94 -0.00 0.04 0.05 704
0.15 0.83 0.78 -0.77 10.11 -0.00 0.03 0.05 711
0.15 0.78 0.77 -0.72 10.01 -0.00 0.03 0.05 717
0.16 0.78 0.82 -0.75 10.07 -0.00 0.03 0.05 723
0.18 0.72 0.79 -0.78 9.96 -0.00 0.03 0.05 730
0.18 0.67 0.76 -0.73 9.99 -0.01 0.03 0.05 736
0.18 0.61 0.72 -0.71 9.97 -0.00 0.03 0.05 742
0.18 0.65 0.81 -0.71 10.07 0.00 0.03 0.05 748
0.18 0.63 0.74 -0.72 10.02 0.00 0.02 0.05 754
0.16 0.57 0.80 -0.74 9.99 0.01 0.02 0.05 760
0.17 0.56 0.81 -0.75 9.92 0.01 0.01 0.05 766
0.17 0.52 0.78 -0.76 9.97 0.01 0.01 0.05 773
0.17 0.50 0.80 -0.73 9.96 0.00 0.00 0.05 780
0.17 0.50 0.80 -0.72 9.98 0.01 0.00 0.05 786
0.17 0.47 0.80 -0.72 9.99 0.01 0.00 0.05 792
0.17 0.40 0.78 -0.74 9.99 0.01 0.00 0.05 798
0.18 0.38 0.82 -0.74 10.01 0.01 0.00 0.05 804
0.20 0.40 0.81 -0.74 9.98 0.01 -0.00 0.05 811
0.18 0.34 0.79 -0.74 9.98 0.01 -0.01 0.05 817
0.19 0.33 0.84 -0.72 9.96 0.01 -0.01 0.05 823
0.18 0.34 0.80 -0.74 9.96 0.01 -0.00 0.04 829
0.20 0.32 0.82 -0.73 9.94 0.02 -0.01 0.04 835
0.20 0.35 0.84 -0.73 9.99 0.01 -0.01 0.04 841
0.20 0.29 0.81 -0.75 9.95 0.02 -0.02 0.04 847
0.20 0.29 0.83 -0.73 9.98 0.01 -0.02 0.04 854
0.20 0.28 0.81 -0.76 9.99 0.02 -0.02 0.04 861
0.22 0.30 0.77 -0.72 9.97 0.01 -0.03 0.04 867
0.22 0.27 0.80 -0.74 9.96 0.01 -0.03 0.04 873
0.23 0.23 0.85 -0.71 10.04 0.01 -0.04 0.04 879
0.23 0.23 0.79 -0.74 9.96 0.01 -0.05 0.04 885
0.25 0.23 0.82 -0.77 9.99 0.01 -0.05 0.03 891
0.26 0.21 0.81 -0.75 9.96 0.00 -0.05 0.03 898
0.25 0.20 0.80 -0.75 9.97 0.00 -0.05 0.03 904
0.25 0.18 0.83 -0.77 9.97 0.00 -0.05 0.03 910
0.26 0.20 0.78 -0.73 9.99 -0.00 -0.05 0.03 916
0.27 0.21 0.78 -0.76 9.96 0.00 -0.05 0.03 922
0.27 0.20 0.81 -0.77 10.00 -0.00 -0.04 0.03 928
0.26 0.20 0.82 -0.80 9.99 -0.00 -0.04 0.02 935
0.29 0.18 0.81 -0.76 9.99 -0.00 -0.05 0.02 942
0.32 0.16 0.80 -0.76 9.97 -0.00 -0.04 0.02 948
0.31 0.15 0.76 -0.75 9.99 -0.00 -0.04 0.02 954
0.32 0.15 0.79 -0.76 9.93 -0.00 -0.04 0.02 960
0.33 0.16 0.78 -0.78 9.97 -0.00 -0.04 0.02 966
0.35 0.17 0.80 -0.78 9.98 0.00 -0.04 0.02 972
0.35 0.15 0.79 -0.76 9.94 -0.00 -0.05 0.03 978
0.34 0.14 0.80 -0.74 9.93 -0.00 -0.05 0.02 985
0.34 0.13 0.81 -0.78 9.97 -0.01 -0.05 0.02 991
0.35 0.15 0.80 -0.75 9.93 -0.01 -0.05 0.02 997
0.37 0.16 0.76 -0.79 9.98 -0.01 -0.05 0.02 1003
0.37 0.16 0.79 -0.78 9.96 -0.01 -0.05 0.02 1010
0.37 0.16 0.79 -0.75 9.92 -0.01 -0.05 0.02 1016
0.38 0.17 0.74 -0.76 9.99 -0.01 -0.05 0.02 1022
0.36 0.16 0.80 -0.77 9.98 -0.00 -0.06 0.02 1029
0.35 0.16 0.77 -0.74 9.98 -0.01 -0.05 0.02 1035
0.36 0.18 0.77 -0.80 10.03 -0.00 -0.06 0.02 1041
0.39 0.17 0.81 -0.76 9.99 -0.00 -0.06 0.02 1047
0.39 0.18 0.77 -0.82 9.97 -0.01 -0.06 0.02 1054
0.39 0.19 0.77 -0.79 9.95 -0.01 -0.06 0.02 1060
0.40 0.18 0.85 -0.80 10.09 -0.01 -0.06 0.02 1067
0.43 0.17 0.76 -0.79 9.97 -0.01 -0.06 0.02 1073
0.44 0.16 0.77 -0.78 10.06 -0.01 -0.06 0.02 1079
0.43 0.17 0.77 -0.79 9.96 -0.02 -0.06 0.03 1085
0.45 0.17 0.78 -0.78 9.98 -0.01 -0.06 0.02 1092
0.46 0.13 0.74 -0.74 9.99 -0.02 -0.06 0.02 1098
0.47 0.14 0.77 -0.77 9.98 -0.02 -0.06 0.02 1104
0.46 0.12 0.78 -0.77 9.98 -0.02 -0.06 0.02 1111
0.45 0.14 0.76 -0.76 10.00 -0.02 -0.06 0.02 1117
0.48 0.14 0.76 -0.77 9.98 -0.02 -0.06 0.02 1123
0.50 0.15 0.76 -0.79 9.99 -0.02 -0.06 0.02 1129
0.48 0.14 0.72 -0.75 9.98 -0.02 -0.06 0.02 1136
0.45 0.13 0.75 -0.76 9.94 -0.02 -0.06 0.02 1142
0.43 0.14 0.71 -0.77 9.99 -0.02 -0.06 0.03 1148
0.43 0.13 0.76 -0.80 10.00 -0.01 -0.06 0.03 1155
0.44 0.13 0.72 -0.74 9.97 -0.01 -0.06 0.03 1161
0.43 0.14 0.71 -0.77 9.98 -0.01 -0.05 0.03 1167
0.45 0.14 0.72 -0.75 10.00 -0.01 -0.05 0.03 1174
0.45 0.14 0.72 -0.79 9.97 -0.01 -0.05 0.04 1180
0.45 0.15 0.74 -0.78 10.01 -0.01 -0.05 0.04 1186
0.45 0.15 0.76 -0.76 9.99 -0.01 -0.05 0.04 1192
0.45 0.15 0.76 -0.76 10.00 -0.01 -0.05 0.04 1199
0.43 0.15 0.74 -0.76 9.97 -0.01 -0.06 0.04 1205
0.43 0.17 0.75 -0.76 9.96 -0.00 -0.06 0.04 1212
0.43 0.16 0.75 -0.74 9.96 -0.00 -0.06 0.04 1218
0.42 0.16 0.77 -0.78 10.02 0.00 -0.06 0.04 1224
0.43 0.17 0.74 -0.77 10.05 0.01 -0.06 0.03 1230
0.45 0.13 0.74 -0.79 10.01 0.01 -0.06 0.03 1236
0.44 0.13 0.71 -0.78 10.02 0.02 -0.06 0.03 1243
0.43 0.13 0.74 -0.76 10.10 0.03 -0.07 0.02 1250
0.47 0.09 0.71 -0.83 10.15 0.05 -0.07 0.02 1256
0.48 0.06 0.75 -0.84 10.15 0.07 -0.08 0.01 1262
0.48 0.03 0.75 -0.80 10.21 0.10 -0.09 0.01 1268
0.49 0.01 0.80 -0.87 10.25 0.13 -0.11 0.01 1274
0.48 0.02 0.90 -0.79 10.33 0.16 -0.12 -0.03 1282
0.52 0.01 0.79 -0.89 10.37 0.20 -0.14 -0.01 1288
0.53 -0.00 0.85 -0.92 10.45 0.25 -0.16 -0.03 1294
0.56 -0.03 0.92 -0.96 10.50 0.31 -0.19 -0.05 1300
0.57 -0.04 1.14 -1.16 10.80 0.39 -0.25 -0.09 1306
0.53 -0.03 1.60 -1.31 11.27 0.50 -0.38 -0.16 1313
0.54 -0.03 2.05 -1.51 12.16 0.66 -0.57 -0.26 1319
0.56 -0.04 2.95 -1.92 12.48 0.85 -0.81 -0.40 1326
0.55 -0.04 2.78 -1.93 12.82 1.03 -1.04 -0.56 1332
0.54 -0.02 2.68 -2.04 13.42 1.19 -1.25 -0.69 1339
0.53 -0.03 3.15 -2.35 12.90 1.29 -1.45 -0.82 1345
0.50 -0.03 3.82 -2.87 12.93 1.36 -1.59 -0.97 1351
0.47 -0.03 4.00 -3.53 12.40 1.35 -1.69 -1.16 1357
0.41 -0.03 4.70 -3.66 12.22 1.39 -1.69 -1.38 1363
0.34 -0.02 4.85 -3.70 11.82 1.40 -1.64 -1.61 1371
0.33 -0.02 5.10 -3.75 11.68 1.41 -1.55 -1.83 1377
0.23 -0.02 4.63 -4.09 11.83 1.38 -1.44 -2.05 1383
0.17 -0.01 3.99 -4.18 12.03 1.29 -1.35 -2.27 1389
0.11 -0.01 4.44 -4.01 12.15 1.19 -1.34 -2.45 1396
0.10 -0.01 4.29 -3.56 11.75 1.11 -1.36 -2.62 1402
0.08 0.01 3.88 -3.65 12.08 0.96 -1.43 -2.75 1409
0.07 -0.01 4.22 -2.68 12.20 0.77 -1.62 -2.87 1415
0.06 -0.00 3.39 -2.30 12.02 0.59 -1.90 -2.95 1421
0.08 -0.01 2.83 -2.08 12.22 0.38 -2.27 -3.05 1428
0.06 -0.01 2.47 -1.43 11.59 0.15 -2.68 -3.13 1434
0.05 -0.00 3.09 -0.30 10.51 -0.02 -3.03 -3.13 1440
0.07 0.00 3.78 0.86 9.27 -0.14 -3.21 -3.01 1446
0.07 -0.00 6.67 1.25 8.04 -0.22 -2.87 -2.59 1453
0.05 -0.00 9.95 -0.24 9.12 -0.28 -2.06 -1.86 1459
0.05 0.00 11.22 0.05 10.71 -0.36 -1.02 -1.17 1466
0.05 -0.00 11.61 0.77 9.77 -0.51 -0.29 -0.71 1472
0.06 -0.01 9.65 0.97 7.47 -0.65 0.27 -0.35 1478
0.06 -0.01 6.95 0.97 6.29 -0.71 0.70 -0.05 1484
0.06 -0.01 4.85 0.56 6.42 -0.65 0.97 0.31 1490
0.05 -0.01 3.55 0.09 6.55 -0.52 1.08 0.58 1497
0.05 -0.01 2.69 0.12 6.73 -0.40 1.07 0.79 1503
0.05 -0.01 2.22 0.48 7.02 -0.30 1.03 0.91 1509
0.05 -0.01 1.89 0.86 7.57 -0.23 0.99 0.98 1515
0.06 -0.01 1.55 1.24 8.25 -0.21 1.03 1.03 1521
0.05 -0.01 1.13 1.54 8.95 -0.22 1.12 1.04 1528
0.05 -0.01 0.61 1.73 9.37 -0.26 1.23 1.02 1534
0.07 -0.01 -0.15 1.83 9.55 -0.31 1.31 0.98 1541
0.06 -0.01 -1.13 1.77 9.81 -0.38 1.35 0.95 1547
0.05 -0.01 -1.88 1.59 9.83 -0.44 1.35 0.91 1553
0.05 -0.01 -2.63 1.50 9.81 -0.49 1.30 0.89 1559
0.06 -0.01 -3.12 1.24 9.74 -0.53 1.22 0.86 1565
0.05 -0.01 -3.51 0.95 9.72 -0.56 1.11 0.82 1571
0.05 -0.01 -3.64 0.66 9.71 -0.57 1.04 0.77 1577
0.05 -0.01 -3.70 0.29 9.62 -0.56 0.99 0.70 1585
0.06 -0.01 -3.07 0.04 9.87 -0.55 0.96 0.61 1591
0.04 -0.00 -3.67 -0.22 10.18 -0.53 0.96 0.51 1597
0.05 -0.00 -3.63 -0.54 10.42 -0.52 0.97 0.44 1603
0.05 -0.00 -3.60 -0.87 10.53 -0.52 0.95 0.35 1609
0.05 -0.01 -3.40 -1.11 10.79 -0.53 0.89 0.26 1615
0.05 -0.01 -2.95 -1.03 10.71 -0.53 0.80 0.18 1622
0.06 -0.01 -2.93 -1.48 10.88 -0.54 0.71 0.12 1629
0.06 -0.01 -2.55 -1.69 10.91 -0.53 0.63 0.09 1635
0.06 -0.01 -2.03 -1.87 10.93 -0.52 0.56 0.07 1641
0.05 -0.00 -1.68 -2.13 10.88 -0.51 0.53 0.08 1647
0.06 -0.01 -1.27 -2.40 10.89 -0.50 0.53 0.10 1653
0.05 -0.00 -1.01 -2.69 10.94 -0.48 0.56 0.15 1659
0.03 -0.00 -0.89 -2.81 10.96 -0.46 0.59 0.22 1667
0.05 0.00 -0.96 -2.94 10.83 -0.44 0.63 0.31 1673
0.05 -0.00 -1.14 -3.00 10.68 -0.42 0.63 0.43 1679
0.05 -0.00 -1.21 -3.03 10.54 -0.39 0.60 0.56 1685
0.05 -0.00 -1.29 -3.01 10.63 -0.37 0.55 0.69 1691
0.05 -0.00 -1.20 -3.02 10.59 -0.34 0.50 0.82 1697
0.04 -0.00 -1.11 -2.97 10.55 -0.32 0.47 0.92 1704
0.05 -0.00 -1.08 -2.97 10.37 -0.30 0.45 0.99 1711
0.06 -0.01 -1.14 -3.08 10.21 -0.29 0.46 1.03 1717
0.05 -0.01 -1.22 -3.11 9.98 -0.27 0.47 1.05 1723
0.05 -0.00 -1.34 -3.21 9.90 -0.24 0.48 1.05 1729
0.05 -0.00 -1.47 -3.20 9.88 -0.21 0.48 1.03 1735
0.05 -0.01 -1.51 -3.09 9.82 -0.18 0.47 1.01 1741
0.05 -0.00 -1.56 -2.95 9.78 -0.16 0.43 0.97 1747
0.05 -0.00 -1.59 -2.86 9.69 -0.15 0.37 0.94 1755
0.06 -0.01 -1.59 -2.78 9.70 -0.13 0.37 0.90 1761
0.05 -0.00 -1.43 -2.73 9.70 -0.11 0.35 0.87 1767
0.05 -0.01 -1.37 -2.65 9.71 -0.10 0.35 0.84 1773
0.05 -0.00 -1.30 -2.60 9.59 -0.09 0.33 0.80 1779
0.06 -0.01 -1.21 -2.48 9.62 -0.08 0.30 0.76 1785
0.05 -0.00 -1.04 -2.46 9.61 -0.08 0.24 0.73 1792
0.04 -0.00 -0.93 -2.43 9.62 -0.07 0.25 0.69 1798
0.04 -0.00 -0.75 -2.37 9.51 -0.07 0.25 0.66 1804
0.05 -0.01 -0.67 -2.42 9.29 -0.07 0.25 0.63 1810
0.05 -0.00 -0.68 -2.56 9.10 -0.06 0.25 0.59 1817
0.05 -0.00 -0.68 -2.85 9.02 -0.00 0.27 0.55 1823
0.04 -0.00 -0.60 -3.10 9.05 -0.00 0.29 0.50 1829
0.05 0.00 -0.56 -3.17 9.42 0.03 0.32 0.45 1836
0.05 -0.00 -0.47 -3.14 9.70 0.05 0.34 0.41 1842
0.05 -0.00 -0.43 -3.07 9.88 0.06 0.36 0.36 1848
0.04 -0.00 -0.42 -3.06 10.04 0.06 0.37 0.32 1854
0.04 -0.00 -0.44 -2.96 10.20 0.05 0.37 0.29 1860
0.04 -0.00 -0.38 -2.95 10.25 0.03 0.35 0.28 1866
0.04 -0.00 -0.30 -3.03 10.16 0.01 0.34 0.29 1873
0.04 -0.00 -0.28 -3.08 9.94 0.01 0.32 0.31 1880
0.05 -0.01 -0.24 -3.25 9.21 0.00 0.32 0.33 1886
0.05 -0.00 -0.22 -3.41 9.73 0.02 0.32 0.37 1892
0.05 -0.00 -0.23 -3.49 9.66 0.05 0.32 0.41 1898
0.05 -0.01 -0.32 -3.57 9.70 0.09 0.33 0.46 1904
0.06 -0.01 -0.39 -3.46 9.78 0.13 0.32 0.50 1910
0.06 -0.01 -0.50 -3.34 9.87 0.16 0.32 0.54 1916
0.05 -0.01 -0.61 -3.10 9.93 0.18 0.31 0.58 1923
0.05 -0.01 -0.80 -2.83 10.00 0.19 0.30 0.63 1929
0.06 -0.01 -1.02 -2.64 10.03 0.20 0.29 0.68 1936
0.06 -0.01 -1.19 -2.39 9.97 0.20 0.27 0.71 1942
0.06 -0.01 -1.24 -2.21 9.91 0.21 0.23 0.73 1948
0.05 -0.01 -1.32 -1.94 10.08 0.22 0.17 0.75 1954
0.06 -0.01 -1.33 -1.70 10.20 0.21 0.17 0.77 1960
0.05 -0.01 -1.26 -1.35 10.23 0.19 0.15 0.78 1967
0.05 -0.01 -1.25 -0.96 10.21 0.15 0.13 0.80 1973
0.07 -0.01 -1.27 -0.65 10.24 0.10 0.11 0.80 1980
0.05 -0.01 -1.21 -0.36 10.26 0.06 0.09 0.81 1986
0.04 -0.00 -1.14 -0.06 10.16 0.01 0.07 0.82 1992
0.06 -0.01 -1.10 0.07 9.98 -0.03 0.04 0.82 1998
0.07 -0.01 -1.14 0.20 9.80 -0.08 0.02 0.82 2004
0.05 -0.01 -1.09 0.24 9.60 -0.11 0.01 0.81 2011
0.05 -0.00 -1.08 0.22 9.59 -0.12 -0.00 0.80 2017
0.05 -0.01 -1.10 0.23 9.70 -0.14 0.01 0.77 2023
0.06 -0.01 -1.13 0.25 9.75 -0.16 0.03 0.74 2029
0.06 -0.01 -1.30 0.32 9.78 -0.18 0.04 0.70 2035
0.05 -0.01 -1.39 0.29 9.83 -0.22 0.04 0.65 2042
0.05 -0.00 -1.60 0.19 9.82 -0.26 0.03 0.60 2049
0.05 -0.01 -1.67 -0.08 9.72 -0.28 -0.00 0.56 2055
0.05 -0.01 -1.69 -0.27 9.56 -0.29 -0.05 0.51 2061
0.05 -0.01 -1.56 -0.57 9.32 -0.28 -0.10 0.47 2067
0.05 -0.00 -8.73 -2.79 13.60 -0.19 -0.50 0.50 2073
0.05 -0.01 -11.13 -0.47 17.46 0.46 -1.91 0.96 2079
0.04 -0.00 -1.89 -0.17 4.85 0.55 -1.59 1.24 2085
0.03 0.00 0.94 -1.02 7.90 0.62 -1.15 1.41 2093
0.05 0.03 -1.73 -1.83 14.17 0.84 -0.71 1.49 2099
0.05 0.05 -13.06 -2.80 20.77 0.55 -0.57 1.32 2105
0.04 0.07 -8.54 -3.24 9.67 -0.08 -0.42 0.63 2111
0.05 0.07 -3.11 -1.55 9.24 -0.15 -0.21 0.14 2117
0.05 0.07 -2.14 -1.24 9.66 -0.12 0.15 0.01 2124
0.04 0.07 0.00 -0.64 9.99 -0.01 0.24 -0.11 2130
0.06 0.09 2.63 -0.42 11.16 0.05 0.16 -0.11 2137
0.06 0.09 2.60 -0.53 10.40 0.02 0.02 0.04 2143
0.04 0.09 1.45 -0.75 9.87 -0.01 -0.02 0.13 2149
0.05 0.11 1.40 -0.52 9.86 0.02 -0.05 0.16 2155
0.07 0.11 0.89 -1.21 10.14 0.03 -0.06 0.18 2161
0.06 0.10 0.15 -0.95 9.99 0.03 -0.04 0.16 2168
0.06 0.11 0.33 -0.99 10.09 0.02 -0.04 0.11 2174
0.07 0.13 0.52 -0.89 10.04 0.01 -0.04 0.10 2181
0.06 0.14 0.67 -0.87 9.99 -0.00 -0.02 0.10 2187
0.06 0.14 0.68 -0.98 10.07 -0.01 -0.02 0.12 2193
0.07 0.15 0.60 -0.98 9.97 -0.02 -0.01 0.12 2199
0.06 0.14 0.60 -0.94 9.98 -0.04 -0.01 0.11 2206
0.07 0.16 0.67 -0.95 10.07 -0.06 -0.01 0.10 2212
0.08 0.18 0.68 -0.86 9.82 -0.06 -0.01 0.11 2219
0.09 0.18 0.70 -0.86 9.60 -0.07 -0.00 0.10 2225
0.10 0.21 0.63 -0.80 10.36 -0.08 0.01 0.10 2231
0.09 0.24 0.73 -0.81 10.06 -0.08 0.01 0.09 2237
0.10 0.27 0.72 -0.77 9.80 -0.08 0.01 0.09 2244
0.09 0.30 0.74 -0.76 10.03 -0.07 0.00 0.09 2250
0.09 0.35 0.70 -0.73 10.07 -0.07 0.00 0.09 2256
0.12 0.36 0.62 -0.74 10.01 -0.06 -0.00 0.10 2263
0.11 0.33 0.69 -0.75 10.18 -0.06 -0.01 0.10 2269
0.13 0.37 0.68 -0.79 10.10 -0.06 -0.02 0.10 2275
0.17 0.39 0.65 -0.86 9.92 -0.07 -0.03 0.11 2282
0.17 0.42 0.60 -0.81 9.94 -0.08 -0.03 0.10 2288
0.15 0.47 0.61 -0.82 9.99 -0.08 -0.03 0.11 2294
0.17 0.50 0.66 -0.80 10.06 -0.08 -0.03 0.10 2300
0.19 0.51 0.66 -0.79 10.06 -0.07 -0.03 0.10 2307
0.22 0.51 0.62 -0.72 10.05 -0.08 -0.03 0.09 2314
0.24 0.53 0.68 -0.77 10.04 -0.06 -0.02 0.08 2320
0.23 0.53 0.64 -0.71 10.14 -0.06 -0.01 0.08 2326
0.25 0.55 0.70 -0.73 10.07 -0.05 -0.02 0.08 2332
0.26 0.57 0.74 -0.69 10.08 -0.04 -0.01 0.06 2338
0.26 0.56 0.70 -0.79 10.10 -0.04 -0.00 0.06 2345
0.27 0.60 0.74 -0.73 10.08 -0.03 -0.00 0.06 2352
0.31 0.60 0.73 -0.69 10.16 -0.02 -0.00 0.06 2358
0.30 0.58 0.75 -0.70 10.00 -0.02 -0.00 0.05 2364
0.31 0.57 0.70 -0.73 10.06 -0.02 -0.00 0.05 2370
0.31 0.57 0.71 -0.67 10.00 -0.01 -0.00 0.05 2377
0.29 0.59 0.69 -0.68 10.05 -0.01 -0.00 0.05 2383
0.29 0.60 0.76 -0.72 9.98 -0.01 -0.00 0.05 2390
0.30 0.59 0.76 -0.66 10.04 -0.00 -0.00 0.05 2396
0.30 0.57 0.75 -0.69 10.05 -0.01 -0.00 0.05 2402
0.29 0.56 0.74 -0.69 9.99 -0.00 -0.01 0.05 2408
0.30 0.57 0.73 -0.70 9.99 -0.00 -0.01 0.05 2414
0.28 0.55 0.72 -0.73 9.94 -0.00 -0.01 0.05 2421
0.28 0.56 0.74 -0.73 9.96 -0.01 -0.01 0.05 2427
0.30 0.57 0.75 -0.70 9.91 -0.02 -0.02 0.05 2434
0.30 0.57 0.72 -0.74 10.02 -0.02 -0.01 0.05 2440
0.28 0.59 0.75 -0.68 10.05 -0.01 -0.01 0.05 2446
0.28 0.61 0.73 -0.69 10.00 -0.01 -0.02 0.05 2453
0.28 0.58 0.77 -0.70 10.04 -0.01 -0.01 0.05 2459
0.26 0.58 0.76 -0.68 10.02 -0.01 -0.02 0.05 2465
0.27 0.59 0.77 -0.68 9.95 -0.01 -0.02 0.05 2471
0.27 0.58 0.74 -0.71 9.97 -0.01 -0.02 0.05 2478
0.26 0.59 0.79 -0.70 9.96 -0.01 -0.03 0.05 2484
0.27 0.59 0.77 -0.75 9.98 -0.01 -0.03 0.04 2491
0.27 0.59 0.75 -0.70 10.06 -0.00 -0.03 0.04 2497
0.27 0.58 0.78 -0.71 9.99 -0.01 -0.03 0.05 2503
0.26 0.59 0.74 -0.70 9.94 -0.01 -0.03 0.05 2509
0.28 0.59 0.74 -0.70 9.97 -0.01 -0.04 0.05 2515
0.25 0.58 0.75 -0.67 9.98 -0.01 -0.04 0.05 2522
0.25 0.59 0.75 -0.68 9.94 -0.01 -0.03 0.05 2528
0.24 0.60 0.74 -0.68 9.96 -0.01 -0.03 0.05 2535
0.25 0.60 0.71 -0.69 9.98 -0.01 -0.03 0.05 2541
0.24 0.61 0.74 -0.69 9.97 -0.01 -0.04 0.05 2547
0.23 0.62 0.73 -0.69 9.96 -0.02 -0.03 0.05 2553
0.22 0.62 0.73 -0.73 9.97 -0.01 -0.03 0.05 2560
0.22 0.61 0.73 -0.68 9.95 -0.02 -0.03 0.05 2566
0.21 0.64 0.75 -0.71 9.96 -0.02 -0.03 0.05 2573
0.23 0.64 0.76 -0.73 9.98 -0.02 -0.03 0.05 2579
0.21 0.63 0.69 -0.70 9.98 -0.01 -0.03 0.05 2585
0.19 0.64 0.74 -0.71 9.99 -0.01 -0.03 0.05 2591
0.19 0.67 0.71 -0.70 9.99 -0.01 -0.03 0.05 2597
0.16 0.65 0.72 -0.68 9.97 -0.02 -0.03 0.05 2604
0.15 0.65 0.76 -0.68 9.98 -0.01 -0.03 0.05 2610
0.14 0.69 0.78 -0.70 9.97 -0.02 -0.03 0.04 2617
0.15 0.69 0.69 -0.68 9.98 -0.02 -0.03 0.05 2623
0.14 0.66 0.73 -0.69 9.99 -0.01 -0.03 0.05 2629
0.13 0.68 0.72 -0.70 9.99 -0.02 -0.03 0.05 2635
0.14 0.69 0.78 -0.67 9.98 -0.02 -0.03 0.04 2641
0.13 0.65 0.76 -0.68 9.96 -0.02 -0.03 0.04 2648
0.12 0.69 0.74 -0.70 9.98 -0.02 -0.03 0.05 2654
0.11 0.74 0.78 -0.69 9.98 -0.02 -0.03 0.05 2661
0.10 0.75 0.73 -0.67 9.96 -0.02 -0.03 0.04 2667
0.08 0.77 0.70 -0.72 10.01 -0.02 -0.03 0.04 2673
0.07 0.75 0.75 -0.70 9.94 -0.01 -0.03 0.05 2679
0.09 0.76 0.78 -0.69 9.97 -0.02 -0.03 0.05 2685
0.07 0.76 0.71 -0.67 9.95 -0.01 -0.03 0.05 2692
0.06 0.78 0.76 -0.68 9.97 -0.02 -0.03 0.04 2698
0.07 0.78 0.73 -0.71 9.95 -0.01 -0.03 0.04 2705
0.06 0.81 0.75 -0.70 10.00 -0.02 -0.03 0.04 2711
0.05 0.81 0.72 -0.66 9.94 -0.01 -0.04 0.04 2717
0.05 0.82 0.74 -0.69 9.99 -0.01 -0.03 0.04 2723
0.06 0.83 0.73 -0.64 9.94 -0.01 -0.03 0.04 2729
0.05 0.85 0.72 -0.65 9.95 -0.01 -0.03 0.05 2736
0.04 0.88 0.77 -0.69 9.97 -0.01 -0.03 0.04 2742
0.05 0.87 0.73 -0.63 9.97 -0.02 -0.03 0.04 2749
0.04 0.88 0.75 -0.67 9.93 -0.01 -0.03 0.04 2755
0.04 0.91 0.71 -0.67 9.97 -0.01 -0.03 0.04 2761
0.04 0.84 0.74 -0.66 9.96 -0.01 -0.00 0.05 2767
0.04 0.88 0.74 -0.64 9.96 -0.02 -0.03 0.04 2774
0.02 0.90 0.80 -0.67 9.92 -0.01 -0.04 0.05 2780
0.01 0.92 0.76 -0.68 9.92 -0.02 -0.03 0.05 2786
0.03 0.93 0.75 -0.64 9.94 -0.02 -0.03 0.04 2793
0.03 0.96 0.74 -0.67 9.94 -0.02 -0.03 0.05 2799
0.02 0.95 0.73 -0.66 9.94 -0.02 -0.04 0.05 2805
0.03 0.94 0.76 -0.64 9.93 -0.02 -0.04 0.05 2811
0.04 0.94 0.80 -0.64 9.94 -0.02 -0.03 0.05 2818
0.03 0.96 0.78 -0.68 9.94 -0.02 -0.04 0.05 2824
0.03 0.96 0.76 -0.66 9.93 -0.01 -0.04 0.05 2830
0.03 0.95 0.74 -0.67 9.97 -0.01 -0.03 0.05 2837
0.02 0.94 0.72 -0.68 10.02 -0.01 -0.04 0.05 2843
0.01 0.91 0.74 -0.67 9.95 -0.01 -0.04 0.05 2849
0.02 0.93 0.76 -0.64 9.97 -0.00 -0.04 0.05 2855
0.03 0.93 0.74 -0.64 9.96 -0.00 -0.04 0.05 2862
0.02 0.91 0.70 -0.64 9.95 -0.00 -0.05 0.05 2868
0.02 0.91 0.75 -0.63 10.01 -0.01 -0.04 0.04 2874
0.04 0.90 0.77 -0.63 9.99 -0.00 -0.04 0.04 2881
0.02 0.89 0.73 -0.69 10.03 0.00 -0.04 0.04 2887
0.03 0.85 0.76 -0.64 9.95 -0.00 -0.05 0.04 2893
0.04 0.87 0.74 -0.68 10.01 -0.00 -0.05 0.04 2899
0.03 0.85 0.76 -0.68 10.01 -0.00 -0.05 0.05 2906
0.03 0.84 0.72 -0.68 9.98 -0.00 -0.05 0.04 2912
0.04 0.84 0.74 -0.66 9.95 -0.00 -0.05 0.05 2919
0.05 0.82 0.73 -0.68 9.92 0.00 -0.05 0.05 2925
0.05 0.78 0.74 -0.68 10.00 -0.00 -0.05 0.05 2931
0.05 0.78 0.73 -0.69 10.00 -0.00 -0.05 0.05 2937
0.06 0.74 0.73 -0.68 9.97 0.00 -0.05 0.05 2944
0.05 0.73 0.74 -0.69 9.98 -0.00 -0.05 0.04 2950
0.05 0.71 0.74 -0.70 10.02 0.00 -0.06 0.05 2956
0.07 0.71 0.73 -0.67 10.00 0.00 -0.05 0.04 2963
0.09 0.67 0.75 -0.69 9.99 0.00 -0.05 0.05 2969
0.11 0.64 0.70 -0.68 10.00 0.00 -0.05 0.05 2975
0.13 0.62 0.72 -0.72 10.00 0.00 -0.05 0.05 2981
0.12 0.60 0.73 -0.71 9.97 0.00 -0.05 0.05 2988
0.12 0.58 0.72 -0.67 9.95 0.01 -0.05 0.05 2994
0.12 0.55 0.77 -0.70 10.07 0.01 -0.05 0.05 3001
0.13 0.48 0.78 -0.69 10.04 0.01 -0.05 0.04 3007
0.11 0.42 0.74 -0.66 9.99 0.02 -0.06 0.04 3013
0.15 0.39 0.80 -0.71 10.00 0.03 -0.06 0.04 3019
0.17 0.35 0.82 -0.74 10.02 0.03 -0.06 0.04 3025
0.17 0.31 0.77 -0.75 10.03 0.03 -0.06 0.03 3032
0.18 0.29 0.72 -0.71 10.03 0.04 -0.06 0.03 3039
0.20 0.23 0.78 -0.67 10.05 0.04 -0.06 0.02 3045
0.20 0.18 0.72 -0.76 10.09 0.05 -0.06 0.01 3051
0.20 0.16 0.74 -0.75 10.08 0.07 -0.06 0.00 3057
0.21 0.14 0.75 -0.67 10.12 0.09 -0.06 -0.01 3063
0.20 0.10 0.78 -0.73 10.16 0.10 -0.06 -0.02 3070
0.21 0.07 0.75 -0.75 10.16 0.13 -0.06 -0.03 3077
0.22 0.02 0.85 -0.81 10.22 0.16 -0.06 -0.04 3083
0.21 0.00 0.85 -0.77 10.31 0.20 -0.07 -0.06 3089
0.20 0.00 1.05 -0.93 10.46 0.24 -0.09 -0.09 3095
0.22 -0.00 1.30 -0.90 10.71 0.31 -0.14 -0.14 3102
0.26 -0.03 2.11 -1.23 11.21 0.43 -0.21 -0.23 3108
0.26 -0.02 3.62 -1.83 11.49 0.57 -0.28 -0.43 3115
0.24 -0.02 4.77 -2.01 11.67 0.69 -0.39 -0.70 3121
0.22 -0.02 3.63 -1.77 13.03 0.87 -0.52 -0.93 3127
0.23 -0.01 2.87 -1.89 13.70 1.15 -0.71 -1.06 3134
0.27 -0.02 3.49 -2.16 13.02 1.37 -0.87 -1.17 3140
0.24 -0.02 3.53 -2.30 11.89 1.45 -0.88 -1.29 3146
0.26 -0.02 3.99 -2.73 12.34 1.48 -0.84 -1.44 3152
0.25 -0.02 3.92 -2.36 11.72 1.54 -0.83 -1.59 3160
0.21 -0.01 3.70 -2.67 11.47 1.61 -0.79 -1.70 3166
0.19 -0.01 3.81 -2.30 11.20 1.64 -0.70 -1.82 3172
0.14 -0.01 3.36 -2.28 11.22 1.62 -0.58 -1.92 3178
0.15 -0.00 3.17 -3.04 11.08 1.56 -0.51 -2.00 3184
0.10 -0.00 3.02 -2.46 11.57 1.47 -0.50 -2.05 3191
0.06 -0.00 3.48 -2.44 11.78 1.40 -0.54 -2.12 3197
0.11 -0.00 3.24 -2.66 12.85 1.29 -0.59 -2.17 3204
0.10 -0.01 3.18 -1.57 12.66 1.18 -0.63 -2.22 3210
0.07 -0.01 2.77 -1.70 11.81 1.05 -0.71 -2.27 3216
0.08 -0.01 2.77 -0.52 11.72 0.88 -0.86 -2.32 3223
0.07 -0.01 2.59 0.69 10.91 0.65 -1.10 -2.36 3229
0.06 -0.01 3.14 2.37 10.84 0.37 -1.38 -2.40 3235
0.05 -0.01 3.71 3.68 10.15 0.16 -1.62 -2.41 3241
0.05 -0.00 4.29 3.45 9.46 -0.11 -1.72 -2.44 3248
0.05 -0.00 4.45 3.16 10.96 -0.33 -1.81 -2.44 3254
0.05 -0.01 6.09 2.94 9.04 -0.49 -1.79 -2.32 3260
0.06 -0.01 6.35 1.63 9.30 -0.58 -1.51 -2.16 3267
0.04 -0.00 6.74 1.71 10.04 -0.71 -0.98 -1.95 3273
0.04 -0.00 6.71 1.82 8.99 -0.84 -0.45 -1.74 3279
0.05 0.00 6.21 1.49 7.93 -0.86 -0.11 -1.60 3286
0.06 -0.01 5.54 0.80 7.23 -0.84 0.01 -1.49 3292
0.05 -0.01 4.90 0.31 6.60 -0.79 0.03 -1.40 3298
0.05 -0.00 4.44 0.08 6.62 -0.69 0.02 -1.32 3304
0.05 -0.01 4.21 -0.11 6.85 -0.57 0.03 -1.21 3310
0.05 -0.01 4.14 -0.32 7.33 -0.46 0.07 -1.09 3317
0.05 -0.01 3.96 -0.46 7.65 -0.35 0.14 -0.96 3323
0.05 -0.01 3.72 -0.69 7.82 -0.24 0.19 -0.83 3330
0.06 -0.01 3.49 -0.85 8.25 -0.22 0.26 -0.70 3336
0.06 -0.01 3.30 -0.95 8.61 -0.17 0.27 -0.57 3342
0.06 -0.01 3.08 -1.11 8.91 -0.13 0.29 -0.44 3348
0.05 -0.01 2.83 -1.27 9.07 -0.09 0.32 -0.29 3354
0.07 -0.01 2.56 -1.43 9.04 -0.06 0.35 -0.14 3360
0.06 -0.01 2.32 -1.53 8.92 -0.03 0.35 0.01 3366
0.05 -0.01 2.19 -1.42 9.16 0.01 0.38 0.15 3373
0.06 -0.01 2.28 -1.28 9.65 0.03 0.44 0.28 3380
0.07 -0.01 2.42 -1.18 10.24 0.03 0.58 0.37 3386
0.06 -0.01 2.38 -1.19 10.74 -0.00 0.79 0.47 3392
0.05 -0.00 2.22 -1.12 11.54 -0.09 1.02 0.54 3398
0.06 -0.00 1.81 -1.11 12.07 -0.22 1.22 0.59 3404
0.06 -0.01 1.02 -1.25 12.02 -0.40 1.33 0.62 3410
0.05 -0.00 0.04 -1.48 11.92 -0.58 1.34 0.63 3418
0.06 -0.00 -0.71 -1.84 11.54 -0.68 1.24 0.64 3424
0.06 -0.01 -1.31 -2.27 11.07 -0.75 1.08 0.64 3430
0.06 -0.01 -1.48 -2.60 10.68 -0.75 0.89 0.64 3436
0.05 -0.01 -1.38 -2.63 10.20 -0.72 0.75 0.63 3442
0.06 -0.01 -0.89 -2.57 9.79 -0.67 0.63 0.62 3448
0.06 -0.01 -0.40 -2.46 9.70 -0.62 0.60 0.60 3454
0.05 -0.00 -0.05 -2.39 9.84 -0.57 0.66 0.58 3462
0.05 -0.00 0.05 -2.21 10.22 -0.52 0.79 0.56 3468
0.06 -0.01 -0.03 -2.04 10.57 -0.49 0.93 0.56 3474
0.05 -0.01 -0.41 -1.85 10.70 -0.48 1.03 0.57 3480
0.05 -0.01 -0.74 -1.69 10.78 -0.49 1.06 0.59 3486
0.06 -0.01 -1.10 -1.64 10.89 -0.50 1.03 0.62 3492
0.05 -0.01 -1.34 -1.63 10.97 -0.51 0.95 0.69 3500
0.05 -0.00 -1.38 -1.66 10.99 -0.52 0.84 0.72 3506
0.06 -0.01 -1.15 -1.70 11.01 -0.53 0.74 0.77 3512
0.05 -0.01 -0.75 -1.75 10.90 -0.54 0.66 0.83 3518
0.05 -0.00 -0.37 -1.77 10.78 -0.54 0.61 0.89 3524
0.05 -0.01 -0.05 -1.81 10.57 -0.53 0.60 0.93 3530
0.05 -0.00 0.05 -1.99 10.29 -0.52 0.62 0.97 3536
0.04 -0.00 0.03 -2.21 10.02 -0.51 0.65 1.01 3544
0.05 -0.01 -0.09 -2.43 9.87 -0.46 0.69 1.03 3550
0.06 -0.01 -0.31 -2.64 9.66 -0.41 0.70 1.05 3556
0.05 -0.01 -0.42 -2.79 9.61 -0.34 0.69 1.05 3562
0.04 -0.00 -0.49 -2.85 9.75 -0.27 0.67 1.05 3568
0.05 -0.00 -0.46 -2.78 9.88 -0.21 0.65 1.04 3574
0.06 -0.01 -0.46 -2.78 9.93 -0.13 0.66 1.03 3580
0.05 -0.00 -0.40 -2.73 10.15 -0.14 0.63 1.01 3587
0.04 -0.00 -0.39 -2.67 10.44 -0.11 0.68 1.00 3594
0.06 -0.01 -0.42 -2.51 10.67 -0.11 0.69 1.00 3600
0.04 -0.00 -0.52 -2.30 10.72 -0.14 0.67 1.01 3606
0.04 -0.00 -0.67 -2.19 10.59 -0.17 0.63 1.04 3612
0.05 -0.00 -0.76 -2.19 10.34 -0.20 0.55 1.06 3618
0.05 -0.00 -0.68 -2.28 9.95 -0.22 0.47 1.08 3624
0.04 -0.00 -0.46 -2.30 9.57 -0.21 0.39 1.09 3631
0.04 -0.00 -0.23 -2.42 8.97 -0.18 0.36 1.09 3637
0.05 0.00 -0.02 -2.56 8.43 -0.11 0.37 1.08 3644
0.05 -0.00 0.15 -2.57 8.40 -0.03 0.42 1.07 3650
0.04 -0.00 0.21 -2.59 8.59 0.08 0.50 1.03 3656
0.04 -0.00 0.15 -2.57 8.88 0.16 0.60 1.00 3662
0.04 0.01 -0.11 -2.49 9.32 0.21 0.68 0.96 3668
0.05 -0.00 -0.49 -2.28 9.60 0.23 0.73 0.93 3675
0.05 -0.00 -0.87 -2.08 9.86 0.21 0.74 0.92 3681
0.04 -0.00 -1.26 -1.84 10.24 0.16 0.71 0.93 3687
0.05 -0.00 -1.33 -1.56 10.49 0.09 0.65 0.96 3693
0.05 -0.00 -1.13 -1.33 10.41 -0.00 0.58 0.99 3700
0.04 -0.00 -1.06 -1.28 9.98 -0.10 0.52 1.02 3706
0.04 -0.00 -1.04 -1.47 9.52 -0.16 0.48 1.04 3713
0.05 -0.01 -0.97 -1.90 9.08 -0.20 0.47 1.02 3719
0.05 -0.00 -0.96 -2.35 8.92 -0.19 0.50 0.98 3725
0.05 -0.00 -2.08 -3.16 9.73 -0.13 0.52 0.93 3731
0.04 -0.00 -15.06 -5.48 17.71 0.46 -1.73 1.03 3737
0.05 -0.01 -7.60 -3.32 6.48 0.25 -1.64 1.07 3743
0.05 -0.00 -8.67 -4.14 6.35 0.27 -2.06 1.10 3750
0.03 -0.00 -12.02 -9.64 12.44 0.34 -2.38 1.20 3757
0.05 0.01 -3.17 -7.76 15.82 1.16 -1.35 1.82 3763
0.05 0.03 -15.57 -11.49 8.12 0.74 -1.47 2.21 3769
0.05 0.08 -13.52 -7.87 12.12 1.18 -1.94 2.50 3776
0.05 0.07 -16.94 -6.85 22.30 1.21 -1.70 2.62 3782
0.03 0.12 -18.85 -4.49 17.13 0.30 -0.68 1.94 3788
0.05 0.14 -12.79 -2.68 10.34 -0.01 -0.18 0.79 3794
0.05 0.12 -4.85 -1.61 9.92 -0.09 -0.01 0.09 3802
0.05 0.13 -1.83 0.02 8.74 -0.07 0.15 -0.18 3808
0.06 0.14 2.87 -0.23 10.55 0.02 0.12 -0.19 3814
0.05 0.15 4.54 -0.33 10.29 -0.01 -0.04 -0.01 3820
0.05 0.15 2.25 -0.72 9.70 -0.04 -0.05 0.20 3826
0.05 0.17 1.88 -0.50 10.04 -0.04 -0.05 0.26 3832
0.04 0.23 1.41 -0.55 9.97 -0.05 -0.04 0.35 3840
0.03 0.25 -0.88 -1.37 10.12 -0.05 -0.03 0.30 3846
0.07 0.24 -0.06 -0.54 9.99 -0.03 -0.02 0.14 3852
0.06 0.24 0.73 -0.63 9.79 -0.04 -0.01 0.12 3858
0.05 0.28 0.88 -0.74 9.84 -0.05 0.00 0.15 3864
0.06 0.31 0.54 -0.97 10.06 -0.06 0.00 0.15 3870
0.08 0.34 0.53 -0.94 10.07 -0.06 -0.01 0.13 3877
0.07 0.33 0.71 -0.84 9.99 -0.06 -0.01 0.11 3884
0.10 0.34 0.82 -0.92 9.90 -0.07 -0.02 0.09 3890
0.10 0.30 0.83 -0.92 10.07 -0.07 -0.04 0.08 3896
0.09 0.28 0.69 -0.81 9.98 -0.08 -0.05 0.08 3902
0.11 0.36 0.58 -0.79 10.00 -0.08 -0.06 0.07 3908
0.12 0.36 0.64 -0.81 10.08 -0.08 -0.06 0.08 3915
0.13 0.38 0.69 -0.79 10.22 -0.07 -0.05 0.08 3921
0.13 0.40 0.69 -0.78 10.08 -0.07 -0.05 0.08 3928
0.15 0.40 0.77 -0.74 10.12 -0.06 -0.05 0.09 3934
0.16 0.40 0.76 -0.81 10.08 -0.06 -0.05 0.09 3940
0.16 0.43 0.79 -0.79 10.08 -0.06 -0.05 0.08 3947
0.18 0.43 0.77 -0.82 10.21 -0.05 -0.06 0.08 3953
0.18 0.43 0.74 -0.78 10.02 -0.05 -0.06 0.07 3959
0.21 0.43 0.71 -0.82 10.02 -0.05 -0.05 0.06 3965
0.23 0.39 0.71 -0.56 10.06 -0.05 -0.05 0.06 3972
0.23 0.40 0.70 -0.74 10.01 -0.05 -0.05 0.06 3979
0.23 0.47 0.70 -0.63 10.05 -0.03 -0.03 0.04 3985
0.23 0.45 0.70 -0.68 10.11 -0.04 -0.03 0.04 3991
0.23 0.47 0.70 -0.74 10.03 -0.03 -0.03 0.05 3997
0.24 0.47 0.73 -0.73 10.02 -0.03 -0.03 0.04 4003
0.25 0.45 0.70 -0.73 9.99 -0.02 -0.02 0.04 4011
0.25 0.44 0.72 -0.72 10.08 -0.02 -0.02 0.04 4017
0.27 0.43 0.73 -0.72 9.97 -0.02 -0.02 0.05 4023
0.27 0.43 0.68 -0.65 9.97 -0.02 -0.02 0.05 4029
0.27 0.43 0.68 -0.70 10.01 -0.01 -0.02 0.05 4035
0.29 0.43 0.72 -0.69 9.98 -0.01 -0.02 0.05 4041
0.29 0.41 0.73 -0.70 10.04 -0.01 -0.02 0.05 4048
0.27 0.41 0.74 -0.73 9.96 -0.01 -0.02 0.04 4055
0.30 0.43 0.73 -0.72 10.04 -0.01 -0.03 0.04 4061
0.30 0.39 0.75 -0.67 10.00 -0.01 -0.03 0.05 4067
0.30 0.38 0.72 -0.73 10.00 -0.01 -0.03 0.04 4073
0.30 0.40 0.72 -0.73 9.98 -0.01 -0.03 0.04 4079
0.30 0.40 0.72 -0.69 9.98 -0.01 -0.03 0.04 4086
0.30 0.40 0.75 -0.72 9.97 -0.01 -0.03 0.04 4092
0.30 0.41 0.73 -0.68 9.95 -0.01 -0.03 0.04 4099
0.30 0.40 0.76 -0.72 10.05 -0.01 -0.03 0.04 4105
0.30 0.41 0.71 -0.69 9.98 -0.01 -0.03 0.04 4111
0.29 0.40 0.73 -0.70 9.99 -0.01 -0.04 0.04 4117
0.30 0.42 0.77 -0.70 10.01 -0.01 -0.04 0.04 4124
0.29 0.40 0.73 -0.70 9.97 -0.01 -0.04 0.04 4130
0.29 0.38 0.72 -0.73 9.94 -0.01 -0.04 0.04 4136
0.30 0.38 0.70 -0.68 9.96 -0.01 -0.04 0.05 4143
0.30 0.37 0.72 -0.71 9.95 -0.01 -0.04 0.04 4149
0.30 0.38 0.69 -0.70 10.01 -0.01 -0.04 0.04 4155
0.30 0.38 0.70 -0.70 9.96 -0.01 -0.04 0.04 4162
0.30 0.38 0.71 -0.70 10.01 -0.01 -0.04 0.04 4168
0.30 0.38 0.69 -0.69 10.02 -0.01 -0.04 0.03 4174
0.30 0.39 0.69 -0.68 9.99 -0.01 -0.04 0.04 4180
0.31 0.37 0.73 -0.69 9.99 -0.01 -0.04 0.04 4187
0.30 0.34 0.69 -0.71 10.00 -0.01 -0.04 0.03 4193
0.30 0.36 0.73 -0.72 9.99 -0.01 -0.04 0.03 4200
0.31 0.37 0.71 -0.68 9.98 -0.01 -0.04 0.04 4206
0.30 0.36 0.70 -0.72 9.98 -0.01 -0.04 0.04 4212
0.29 0.35 0.68 -0.67 9.94 -0.01 -0.04 0.04 4218
0.31 0.38 0.70 -0.67 9.98 -0.01 -0.04 0.04 4225
0.30 0.39 0.73 -0.69 9.98 -0.01 -0.04 0.04 4231
0.29 0.38 0.72 -0.69 10.01 -0.01 -0.04 0.04 4237
0.30 0.40 0.69 -0.69 9.98 -0.01 -0.04 0.04 4244
0.30 0.41 0.71 -0.69 9.98 -0.01 -0.04 0.04 4250
0.30 0.40 0.68 -0.71 9.96 -0.01 -0.04 0.04 4256
0.30 0.41 0.72 -0.71 9.95 -0.01 -0.05 0.04 4262
0.31 0.40 0.73 -0.71 9.97 -0.01 -0.05 0.04 4269
0.30 0.41 0.72 -0.68 9.96 -0.01 -0.05 0.04 4275
0.29 0.41 0.67 -0.74 10.00 -0.01 -0.05 0.04 4282
0.32 0.41 0.68 -0.69 9.97 -0.01 -0.05 0.03 4288
0.32 0.41 0.76 -0.68 9.87 -0.00 -0.05 0.03 4294
0.31 0.40 0.68 -0.69 9.99 -0.01 -0.04 0.03 4300
0.33 0.42 0.70 -0.70 9.96 -0.01 -0.05 0.03 4306
0.33 0.41 0.65 -0.65 9.99 -0.01 -0.04 0.03 4313
0.33 0.38 0.66 -0.71 10.01 -0.01 -0.04 0.03 4319
0.34 0.41 0.65 -0.71 9.94 -0.01 -0.04 0.03 4326
0.36 0.41 0.68 -0.72 9.92 -0.01 -0.05 0.03 4332
0.37 0.43 0.71 -0.70 9.96 -0.01 -0.05 0.03 4338
0.36 0.44 0.69 -0.68 9.95 -0.01 -0.05 0.03 4344
0.38 0.45 0.69 -0.71 9.96 -0.01 -0.04 0.03 4350
0.36 0.45 0.68 -0.70 10.00 -0.01 -0.04 0.03 4357
0.34 0.44 0.65 -0.66 9.96 -0.01 -0.04 0.03 4364
0.36 0.44 0.66 -0.67 9.97 -0.01 -0.04 0.03 4370
0.36 0.43 0.68 -0.71 9.97 -0.00 -0.04 0.03 4376
0.35 0.42 0.70 -0.69 9.95 -0.01 -0.03 0.02 4382
0.36 0.44 0.68 -0.74 9.97 -0.01 -0.04 0.03 4388
0.38 0.42 0.72 -0.72 9.95 -0.01 -0.04 0.03 4395
0.35 0.42 0.68 -0.72 9.97 -0.01 -0.04 0.03 4401
0.33 0.45 0.70 -0.69 9.96 -0.02 -0.04 0.03 4408
0.33 0.46 0.67 -0.67 9.98 -0.01 -0.04 0.03 4414
0.32 0.45 0.67 -0.69 9.97 -0.01 -0.04 0.03 4420
0.30 0.47 0.66 -0.67 10.01 -0.01 -0.04 0.03 4426
0.32 0.50 0.68 -0.69 9.96 -0.01 -0.04 0.03 4432
0.33 0.45 0.69 -0.69 10.00 -0.00 -0.03 0.03 4439
0.33 0.45 0.69 -0.66 9.97 0.00 -0.03 0.03 4446
0.37 0.45 0.71 -0.69 10.00 -0.00 -0.04 0.03 4452
0.36 0.44 0.69 -0.68 10.02 0.00 -0.04 0.02 4458
0.35 0.42 0.70 -0.77 9.91 0.00 -0.04 0.02 4464
0.37 0.42 0.71 -0.69 9.98 0.01 -0.04 0.02 4470
0.38 0.36 0.68 -0.70 10.03 0.01 -0.04 0.02 4476
0.37 0.31 0.69 -0.69 9.99 0.01 -0.03 0.02 4484
0.37 0.32 0.70 -0.73 9.98 0.02 -0.03 0.02 4490
0.43 0.26 0.70 -0.66 9.98 0.02 -0.03 0.02 4496
0.46 0.22 0.72 -0.69 10.01 0.03 -0.03 0.01 4502
0.46 0.15 0.67 -0.68 10.05 0.04 -0.02 0.01 4508
0.44 0.13 0.72 -0.67 10.10 0.06 -0.02 0.01 4514
0.44 0.10 0.73 -0.72 10.14 0.08 -0.01 0.00 4521
0.46 0.05 0.72 -0.71 10.14 0.10 -0.01 -0.00 4528
0.49 0.03 0.80 -0.73 10.18 0.13 -0.01 -0.00 4534
0.47 0.01 0.85 -1.12 10.30 0.17 0.00 -0.01 4540
0.49 -0.01 0.91 -0.96 10.47 0.22 0.01 -0.03 4546
0.54 -0.03 0.97 -0.92 10.40 0.28 0.01 -0.05 4553
0.55 -0.04 1.21 -0.99 10.67 0.37 0.00 -0.10 4559
0.53 -0.03 1.91 -1.22 10.82 0.48 -0.01 -0.20 4566
0.53 -0.03 2.80 -1.28 11.09 0.62 -0.03 -0.34 4572
0.52 -0.05 2.67 -1.22 13.05 0.96 -0.08 -0.51 4578
0.51 -0.02 2.45 -1.10 13.70 1.42 -0.22 -0.62 4585
0.50 -0.04 3.06 -1.76 13.70 1.66 -0.40 -0.78 4591
0.47 -0.03 3.84 -2.15 12.83 1.74 -0.54 -0.94 4597
0.48 -0.03 4.61 -2.29 12.61 1.82 -0.64 -1.15 4603
0.43 -0.03 5.77 -2.76 12.43 1.87 -0.73 -1.39 4611
0.41 -0.03 5.69 -3.35 11.95 1.89 -0.76 -1.65 4617
0.36 -0.03 6.30 -3.67 11.76 1.90 -0.75 -1.92 4623
0.33 -0.02 6.18 -3.41 10.96 1.87 -0.70 -2.19 4629
0.34 -0.01 7.59 -4.04 10.18 1.83 -0.67 -2.43 4636
0.22 -0.02 8.83 -4.16 10.28 1.76 -0.50 -2.73 4642
0.19 -0.01 9.64 -3.31 9.54 1.61 -0.24 -3.02 4648
0.16 -0.02 8.52 -3.75 10.22 1.45 0.08 -3.31 4655
0.08 -0.01 8.18 -1.57 10.69 1.28 0.27 -3.53 4661
0.08 -0.01 5.84 -1.42 10.18 1.10 0.39 -3.74 4667
0.08 -0.01 5.74 -1.72 10.53 0.92 0.35 -3.86 4674
0.08 -0.01 6.03 -1.09 10.77 0.74 0.19 -3.98 4680
0.08 -0.01 7.75 0.68 10.51 0.51 0.10 -4.09 4686
0.07 0.00 6.09 0.40 9.10 0.25 0.04 -4.22 4692
0.07 -0.01 5.08 1.06 9.01 -0.04 -0.15 -4.28 4699
0.06 -0.01 6.53 4.74 9.06 -0.29 -0.38 -4.28 4705
0.05 -0.01 6.08 5.60 8.55 -0.62 -0.49 -4.28 4711
0.06 -0.01 5.62 4.97 7.51 -0.94 -0.67 -4.28 4718
0.04 -0.00 6.64 3.35 6.60 -1.16 -0.83 -4.28 4724
0.04 -0.00 7.47 0.74 7.88 -1.30 -0.69 -4.28 4730
0.04 -0.00 8.38 -0.14 9.82 -1.52 -0.26 -4.28 4737
0.05 -0.01 8.81 0.48 8.70 -1.66 0.17 -4.28 4743
0.04 -0.00 8.67 0.51 7.84 -1.64 0.44 -4.13 4749
0.04 -0.00 8.12 -0.07 6.73 -1.53 0.56 -3.81 4755
0.05 -0.00 7.57 -0.94 6.07 -1.38 0.63 -3.54 4761
0.05 -0.01 7.21 -1.53 6.27 -1.18 0.68 -3.17 4767
0.05 -0.00 7.05 -1.93 7.18 -0.94 0.77 -2.76 4774
0.05 -0.00 6.95 -2.19 8.13 -0.67 0.91 -2.33 4781
0.05 -0.00 6.74 -2.25 8.67 -0.53 1.08 -1.90 4787
0.06 -0.01 6.45 -2.11 9.00 -0.38 1.19 -1.50 4793
0.05 -0.01 5.99 -2.04 9.26 -0.30 1.29 -1.11 4799
0.05 -0.00 5.33 -1.86 9.48 -0.24 1.38 -0.81 4805
0.05 -0.01 4.69 -1.97 9.83 -0.19 1.46 -0.46 4811
0.06 -0.01 3.96 -1.92 9.99 -0.11 1.53 -0.14 4817
0.05 -0.01 3.26 -1.95 10.24 -0.01 1.60 0.14 4824
0.04 -0.00 2.61 -1.81 10.35 0.05 1.67 0.38 4831
0.05 -0.00 1.85 -1.65 10.57 0.13 1.74 0.58 4837
0.05 -0.01 1.17 -1.65 10.90 0.20 1.83 0.74 4843
0.04 -0.00 0.29 -1.69 11.35 0.26 1.90 0.84 4849
0.05 -0.00 -0.64 -1.80 11.95 0.30 1.92 0.92 4855
0.05 -0.00 -1.72 -1.89 12.46 0.31 1.88 0.96 4861
0.05 -0.00 -2.67 -1.88 12.91 0.29 1.79 0.97 4869
0.05 -0.00 -3.41 -1.71 13.17 0.22 1.63 0.95 4875
0.05 -0.01 -4.08 -1.62 13.14 0.12 1.43 0.91 4881
0.05 -0.01 -4.54 -1.55 12.91 0.00 1.21 0.85 4887
0.05 -0.00 -4.69 -1.63 12.67 -0.07 0.99 0.77 4893
0.06 -0.01 -4.66 -1.68 12.30 -0.14 0.83 0.66 4899
0.05 -0.00 -4.42 -1.65 11.77 -0.19 0.68 0.56 4907
0.04 -0.00 -3.97 -1.59 11.38 -0.22 0.59 0.44 4913
0.05 -0.01 -3.54 -1.48 10.46 -0.23 0.55 0.39 4919
0.05 -0.00 -3.29 -1.39 10.97 -0.23 0.55 0.33 4925
0.04 -0.00 -3.21 -1.22 10.85 -0.21 0.55 0.29 4931
0.05 -0.00 -3.25 -1.31 11.01 -0.20 0.52 0.28 4937
0.05 -0.00 -3.27 -1.39 11.05 -0.19 0.48 0.29 4943
0.05 -0.00 -3.21 -1.53 11.01 -0.15 0.39 0.33 4951
0.05 -0.01 -3.10 -1.55 10.83 -0.14 0.29 0.39 4957
0.06 -0.01 -2.87 -1.62 10.80 -0.12 0.16 0.46 4963
0.05 -0.00 -2.41 -1.67 10.65 -0.10 0.03 0.56 4969
0.04 -0.00 -1.79 -1.72 10.40 -0.08 -0.09 0.63 4975
0.04 -0.00 -1.28 -1.78 10.18 -0.06 -0.16 0.74 4981
0.05 -0.00 -0.62 -1.80 10.16 -0.03 -0.16 0.86 4988
0.04 -0.00 -0.18 -1.83 10.14 0.01 -0.10 0.99 4995
0.04 0.01 0.12 -1.82 10.19 0.04 0.03 1.11 5001
0.05 -0.00 0.15 -1.72 10.20 0.07 0.18 1.23 5007
0.05 -0.00 -0.12 -1.60 10.22 0.09 0.29 1.35 5013
0.04 -0.00 -0.55 -1.39 10.32 0.10 0.32 1.49 5019
0.05 -0.00 -1.12 -1.25 10.40 0.09 0.29 1.65 5025
0.04 -0.00 -1.50 -1.22 10.34 0.09 0.18 1.76 5032
0.03 -0.00 -1.60 -1.25 10.14 0.07 0.02 1.87 5039
0.04 -0.00 -1.31 -1.38 9.87 0.04 -0.14 1.95 5045
0.05 -0.00 -0.86 -1.48 9.79 0.01 -0.24 1.99 5051
0.04 -0.00 -0.50 -1.59 9.54 -0.00 -0.26 2.00 5057
0.03 -0.00 -0.23 -1.75 9.44 -0.01 -0.22 1.98 5063
0.04 -0.00 -0.07 -1.80 9.36 -0.01 -0.11 1.91 5069
0.05 -0.00 -0.12 -1.79 9.41 -0.01 0.02 1.89 5075
0.04 -0.00 -0.39 -1.76 9.44 -0.00 0.12 1.82 5082
0.03 -0.00 -0.83 -1.66 9.56 -0.00 0.18 1.76 5088
0.04 0.00 -1.25 -1.56 9.60 -0.01 0.17 1.70 5095
0.04 -0.00 -1.45 -1.53 9.61 -0.03 0.10 1.66 5101
0.05 -0.00 -1.42 -1.52 9.52 -0.05 0.08 1.62 5107
0.03 -0.00 -1.29 -1.61 9.34 -0.06 0.05 1.59 5113
0.04 0.00 -1.11 -1.77 9.25 -0.07 0.03 1.55 5120
0.04 -0.00 -0.92 -1.93 9.24 -0.05 0.05 1.51 5126
0.04 -0.00 -0.74 -2.07 9.26 -0.02 0.09 1.48 5132
0.03 -0.00 -0.69 -2.18 9.22 0.01 0.14 1.46 5138
0.04 0.00 -0.69 -2.26 9.35 0.04 0.17 1.45 5144
0.05 -0.01 -0.87 -2.43 9.58 0.05 0.19 1.45 5151
0.05 -0.00 -1.25 -2.62 9.66 0.07 0.17 1.45 5157
0.04 -0.00 -1.53 -2.58 9.81 0.07 0.09 1.46 5164
0.05 0.00 -1.64 -2.50 9.79 0.06 0.00 1.47 5170
0.05 -0.00 -1.54 -2.45 9.57 0.05 -0.09 1.49 5176
0.04 -0.00 -1.49 -2.50 9.32 0.04 -0.13 1.51 5182
0.04 -0.00 -1.33 -2.62 9.15 0.05 -0.15 1.51 5188
0.04 0.00 -1.20 -2.67 9.00 0.07 -0.12 1.51 5194
0.04 -0.00 -1.08 -2.55 8.80 0.11 -0.09 1.50 5200
0.04 -0.00 -1.06 -2.37 8.67 0.15 -0.05 1.50 5208
0.04 -0.00 -1.05 -2.22 8.54 0.18 -0.02 1.51 5214
0.04 0.00 -1.53 -2.14 8.53 0.22 -0.02 1.52 5220
0.04 -0.00 -14.13 -4.34 19.64 0.52 -1.13 1.68 5226
0.03 -0.00 -10.62 -0.62 9.75 0.60 -2.83 1.93 5232
0.04 0.00 -5.48 -0.39 4.49 0.35 -3.36 2.06 5238
0.05 -0.00 -4.39 -2.57 9.13 0.28 -3.63 2.08 5244
0.04 0.00 1.80 3.98 19.24 1.23 -1.89 2.13 5252
0.04 0.05 -10.19 -0.59 14.79 1.00 -1.14 2.23 5258
0.04 0.07 -17.98 -0.15 23.17 0.35 -1.35 1.67 5264
0.03 0.13 -11.98 -4.18 9.98 -0.13 -0.46 0.62 5270
0.05 0.22 -2.28 0.44 10.69 -0.15 -0.09 0.20 5277
0.04 0.18 -2.68 -0.74 9.43 -0.07 0.10 -0.05 5283
0.04 0.17 1.32 -0.45 10.32 0.10 0.18 -0.14 5289
0.05 0.16 3.05 -0.44 10.55 0.04 0.01 -0.02 5296
0.05 0.16 2.03 -0.75 9.86 0.04 -0.05 0.12 5302
0.04 0.15 1.86 -0.53 9.86 0.05 -0.06 0.21 5308
0.05 0.16 1.28 -0.66 10.23 0.04 -0.09 0.25 5315
0.05 0.13 0.08 -1.07 10.16 0.04 -0.10 0.22 5321
0.05 0.15 0.03 -1.04 9.92 0.03 -0.08 0.14 5327
0.07 0.17 0.51 -0.89 9.91 0.01 -0.07 0.12 5334
0.07 0.18 0.59 -0.93 9.84 -0.01 -0.05 0.14 5340
0.07 0.21 0.40 -1.15 9.92 -0.03 -0.03 0.15 5346
0.08 0.21 0.32 -1.17 9.97 -0.04 -0.02 0.13 5353
0.10 0.23 0.53 -0.91 9.81 -0.07 -0.01 0.12 5359
0.07 0.26 0.70 -0.81 9.79 -0.09 0.03 0.12 5365
0.06 0.30 0.87 -0.98 10.03 -0.10 -0.00 0.12 5371
0.08 0.36 0.65 -0.92 9.91 -0.11 -0.01 0.11 5378
0.08 0.43 0.68 -0.91 10.11 -0.10 -0.01 0.11 5384
0.07 0.39 0.63 -0.81 9.88 -0.09 -0.01 0.10 5391
0.09 0.48 0.68 -0.86 10.00 -0.08 -0.01 0.10 5397
0.10 0.49 0.66 -0.80 9.92 -0.07 -0.00 0.11 5403
0.08 0.50 0.71 -0.80 9.95 -0.07 -0.01 0.11 5409
0.09 0.54 0.74 -0.83 10.08 -0.06 -0.01 0.11 5415
0.10 0.52 0.74 -0.79 10.04 -0.06 -0.00 0.11 5422
0.10 0.61 0.68 -0.83 10.03 -0.06 -0.01 0.11 5429
0.12 0.60 0.66 -0.84 9.99 -0.06 -0.02 0.10 5435
0.13 0.60 0.59 -0.79 9.92 -0.06 -0.02 0.10 5441
0.13 0.63 0.68 -0.83 10.04 -0.07 -0.02 0.09 5447
0.13 0.70 0.66 -0.79 10.04 -0.07 -0.03 0.09 5453
0.15 0.71 0.61 -0.80 10.01 -0.06 -0.02 0.08 5459
0.15 0.71 0.64 -0.78 10.05 -0.06 -0.02 0.08 5467
0.15 0.79 0.70 -0.77 10.03 -0.06 -0.01 0.08 5473
0.13 0.79 0.63 -0.73 10.02 -0.05 -0.01 0.08 5479
0.12 0.77 0.68 -0.73 10.01 -0.05 -0.01 0.07 5485
0.11 0.85 0.71 -0.77 10.05 -0.04 -0.00 0.07 5491
0.13 0.84 0.69 -0.75 10.01 -0.04 0.00 0.06 5498
0.11 0.87 0.64 -0.74 10.01 -0.03 0.00 0.06 5505
0.11 0.89 0.70 -0.74 9.96 -0.03 0.01 0.06 5511
0.12 0.87 0.72 -0.73 9.99 -0.02 0.01 0.06 5517
0.11 0.88 0.73 -0.73 10.02 -0.02 0.01 0.05 5523
0.10 0.88 0.69 -0.74 9.94 -0.02 0.01 0.05 5529
0.11 0.88 0.72 -0.75 9.96 -0.02 0.01 0.06 5536
0.09 0.90 0.72 -0.76 10.00 -0.02 0.01 0.06 5542
0.09 0.92 0.74 -0.75 9.94 -0.02 0.01 0.05 5549
0.10 0.95 0.71 -0.74 9.99 -0.02 0.01 0.05 5555
0.09 0.95 0.73 -0.73 10.04 -0.02 0.01 0.05 5561
0.09 0.93 0.78 -0.78 10.03 -0.02 0.01 0.05 5567
0.09 0.94 0.73 -0.72 10.01 -0.02 0.01 0.05 5574
0.09 0.95 0.78 -0.75 10.03 -0.02 0.01 0.05 5580
0.07 0.95 0.77 -0.73 10.05 -0.02 0.01 0.05 5586
0.09 0.95 0.76 -0.73 9.97 -0.02 0.01 0.05 5593
0.08 0.95 0.80 -0.74 10.02 -0.02 0.01 0.05 5599
0.07 0.95 0.76 -0.75 9.97 -0.02 0.01 0.05 5605
0.07 0.94 0.78 -0.76 10.01 -0.02 0.01 0.05 5612
0.06 0.93 0.76 -0.70 10.00 -0.01 0.00 0.05 5618
0.06 0.96 0.73 -0.70 9.99 -0.01 0.00 0.05 5624
0.06 0.98 0.79 -0.71 10.03 -0.01 0.01 0.05 5630
0.08 1.00 0.76 -0.72 9.96 -0.02 0.01 0.05 5637
0.04 0.98 0.75 -0.76 9.94 -0.02 0.01 0.05 5643
0.02 1.01 0.77 -0.73 9.99 -0.02 -0.00 0.05 5649
0.04 1.00 0.77 -0.71 10.03 -0.02 -0.00 0.05 5656
0.03 1.02 0.75 -0.68 10.00 -0.02 -0.00 0.05 5662
0.02 1.03 0.75 -0.73 9.98 -0.02 -0.00 0.06 5668
0.02 1.05 0.76 -0.69 9.96 -0.02 0.00 0.06 5675
0.03 1.05 0.79 -0.69 9.98 -0.02 0.00 0.06 5681
0.02 1.02 0.79 -0.71 9.95 -0.02 0.00 0.06 5687
0.01 1.03 0.80 -0.71 9.94 -0.02 0.01 0.05 5693
0.01 1.07 0.78 -0.71 9.99 -0.02 0.01 0.06 5700
0.01 1.06 0.79 -0.70 9.94 -0.02 0.01 0.06 5706
0.01 1.07 0.80 -0.68 9.94 -0.02 0.01 0.06 5712
0.01 1.07 0.80 -0.68 9.98 -0.02 0.01 0.06 5719
0.02 1.09 0.77 -0.72 9.95 -0.02 0.02 0.05 5725
0.01 1.07 0.81 -0.68 9.98 -0.02 0.02 0.06 5731
0.00 1.04 0.79 -0.68 10.03 -0.02 0.02 0.06 5737
0.01 1.10 0.83 -0.73 10.00 -0.02 0.02 0.06 5744
0.01 1.09 0.80 -0.70 9.98 -0.03 0.03 0.05 5750
-0.00 1.08 0.85 -0.72 9.96 -0.03 0.03 0.06 5756
-0.01 1.12 0.81 -0.69 9.99 -0.03 0.04 0.05 5763
0.01 1.16 0.85 -0.69 10.00 -0.04 0.04 0.05 5769
0.00 1.12 0.82 -0.68 10.00 -0.04 0.04 0.06 5775
0.00 1.13 0.86 -0.70 10.02 -0.04 0.04 0.05 5782
0.01 1.18 0.79 -0.69 10.00 -0.04 0.05 0.05 5788
-0.01 1.17 0.84 -0.69 9.97 -0.04 0.06 0.05 5794
-0.00 1.15 0.86 -0.67 10.00 -0.04 0.06 0.04 5800
0.01 1.16 0.91 -0.67 9.98 -0.04 0.06 0.05 5807
-0.00 1.13 0.91 -0.69 9.97 -0.04 0.06 0.04 5813
-0.01 1.14 0.88 -0.69 9.97 -0.05 0.05 0.04 5820
0.01 1.13 0.93 -0.71 9.96 -0.05 0.05 0.03 5826
0.01 1.11 0.94 -0.68 9.91 -0.04 0.04 0.03 5832
0.01 1.10 0.97 -0.67 9.93 -0.04 0.03 0.03 5838
0.01 1.11 0.93 -0.68 9.94 -0.04 0.02 0.03 5844
0.02 1.13 0.91 -0.70 10.03 -0.04 0.02 0.03 5851
0.02 1.13 0.91 -0.70 9.96 -0.04 0.02 0.03 5857
0.01 1.14 0.89 -0.72 9.92 -0.04 0.03 0.02 5864
0.02 1.15 0.94 -0.71 9.93 -0.04 0.03 0.03 5870
0.02 1.15 1.00 -0.70 9.95 -0.04 0.03 0.02 5876
0.00 1.15 0.97 -0.65 9.98 -0.03 0.02 0.03 5882
0.00 1.14 0.97 -0.67 9.96 -0.03 0.02 0.03 5889
0.01 1.13 0.98 -0.67 9.91 -0.03 0.02 0.03 5895
0.00 1.12 0.96 -0.65 9.94 -0.03 0.02 0.03 5901
0.00 1.08 0.97 -0.68 9.89 -0.02 0.01 0.03 5907
0.01 1.10 1.02 -0.68 9.93 -0.02 0.00 0.02 5914
0.01 1.09 1.00 -0.66 9.90 -0.01 -0.02 0.03 5920
0.01 1.09 1.04 -0.65 9.91 -0.01 -0.02 0.03 5926
0.01 1.10 0.96 -0.68 9.97 -0.02 -0.03 0.03 5933
0.01 1.09 0.96 -0.66 9.94 -0.01 -0.03 0.03 5939
0.00 1.08 0.95 -0.65 9.93 -0.01 -0.04 0.03 5945
0.00 1.10 0.98 -0.66 9.91 -0.01 -0.04 0.03 5951
0.00 1.14 0.96 -0.67 9.95 -0.01 -0.05 0.03 5957
0.00 1.13 0.97 -0.65 9.91 -0.00 -0.06 0.03 5964
0.00 1.13 0.98 -0.68 9.91 0.00 -0.07 0.03 5970
-0.01 1.13 0.94 -0.61 9.86 0.01 -0.08 0.03 5977
-0.00 1.15 0.94 -0.63 9.82 0.02 -0.11 0.02 5983
0.00 1.12 0.97 -0.55 9.79 0.07 -0.15 0.02 5989
-0.01 1.12 1.01 -0.60 9.81 0.05 -0.19 0.01 5995
-0.00 1.12 0.93 -0.63 9.93 0.06 -0.21 0.01 6001
-0.00 1.11 0.93 -0.66 9.84 0.06 -0.22 0.01 6008
-0.01 1.08 0.86 -0.66 10.05 0.07 -0.22 0.02 6014
-0.00 1.07 0.83 -0.65 10.04 0.06 -0.20 0.02 6021
0.00 1.02 0.82 -0.65 10.03 0.05 -0.18 0.03 6027
0.00 1.01 0.83 -0.69 10.05 0.04 -0.18 0.04 6033
0.01 1.00 0.80 -0.66 9.93 0.03 -0.17 0.04 6040
0.02 0.97 0.80 -0.68 9.99 0.02 -0.16 0.04 6046
0.01 0.92 0.82 -0.68 9.99 0.02 -0.15 0.04 6052
-0.01 0.89 0.72 -0.60 9.98 0.02 -0.15 0.04 6059
0.01 0.87 1.21 -0.70 10.22 0.01 -0.15 0.04 6065
0.02 0.81 0.76 -0.68 10.01 0.01 -0.14 0.04 6071
0.00 0.75 0.79 -0.73 9.98 0.01 -0.13 0.04 6077
0.03 0.72 0.80 -0.68 10.00 0.01 -0.12 0.03 6084
0.04 0.67 0.74 -0.66 9.98 0.01 -0.12 0.03 6090
0.02 0.63 0.80 -0.68 10.05 0.01 -0.11 0.03 6096
0.05 0.60 0.78 -0.74 10.03 0.02 -0.10 0.03 6103
0.06 0.51 0.73 -0.70 9.97 0.02 -0.10 0.03 6109
0.06 0.46 0.80 -0.73 10.00 0.02 -0.09 0.02 6115
0.10 0.39 0.77 -0.71 10.06 0.03 -0.08 0.02 6122
0.11 0.39 0.81 -0.71 9.99 0.03 -0.08 0.01 6128
0.11 0.27 0.80 -0.73 10.04 0.04 -0.08 0.01 6134
0.11 0.25 0.76 -0.71 10.00 0.04 -0.07 0.01 6140
0.14 0.17 0.79 -0.69 9.96 0.04 -0.06 0.00 6147
0.14 0.14 0.79 -0.79 10.02 0.05 -0.05 -0.00 6154
0.16 0.14 0.79 -0.74 10.06 0.06 -0.06 -0.00 6160
0.15 0.09 0.84 -0.75 10.12 0.08 -0.05 -0.00 6166
0.16 0.03 0.84 -0.71 10.14 0.10 -0.05 -0.01 6172
0.21 0.02 0.88 -0.84 10.16 0.13 -0.05 -0.03 6178
0.26 0.01 0.87 -0.91 10.15 0.15 -0.05 -0.05 6184
0.25 -0.02 0.94 -0.85 10.25 0.19 -0.04 -0.08 6192
0.26 -0.02 1.51 -0.91 10.53 0.25 -0.05 -0.15 6198
0.28 -0.02 2.76 -1.07 10.74 0.33 -0.04 -0.33 6204
0.31 -0.03 4.61 -1.45 11.35 0.51 -0.04 -0.64 6210
0.31 -0.02 5.10 -1.51 12.97 0.88 -0.06 -0.97 6216
0.33 -0.02 3.54 -1.70 14.46 1.52 -0.15 -1.14 6223
0.31 -0.03 4.20 -1.90 14.47 2.02 -0.31 -1.27 6230
0.34 -0.01 4.18 -1.85 14.02 2.11 -0.40 -1.47 6236
0.31 -0.02 3.88 -2.21 13.72 2.15 -0.45 -1.62 6242
0.31 -0.01 3.69 -2.51 12.73 2.20 -0.56 -1.72 6249
0.26 -0.01 5.57 -2.91 12.15 2.24 -0.59 -1.85 6255
0.20 -0.02 5.33 -1.98 11.05 2.24 -0.55 -1.99 6261
0.17 -0.00 5.71 -3.19 11.53 2.18 -0.51 -2.15 6267
0.11 -0.01 6.24 -2.75 10.67 2.14 -0.42 -2.25 6275
0.12 -0.01 7.66 -3.07 11.15 2.02 -0.19 -2.39 6281
0.09 0.00 8.55 -1.73 11.28 1.86 0.19 -2.54 6287
0.07 -0.01 6.22 -3.02 11.73 1.64 0.49 -2.73 6293
0.06 -0.01 4.95 -1.76 13.71 1.49 0.60 -2.88 6299
0.08 0.00 4.26 -1.59 13.28 1.32 0.49 -2.98 6305
0.08 -0.01 3.17 -1.15 11.94 1.18 0.36 -3.06 6312
0.05 -0.00 4.00 1.16 11.00 0.99 0.19 -3.13 6319
0.05 -0.00 2.78 1.90 9.98 0.70 0.00 -3.24 6325
0.07 -0.01 4.07 4.51 10.42 0.37 -0.25 -3.31 6331
0.04 -0.00 4.85 9.11 10.65 0.01 -0.44 -3.40 6337
0.05 -0.01 4.49 9.18 8.82 -0.40 -0.57 -3.57 6343
0.06 -0.01 4.14 8.16 7.80 -0.71 -0.73 -3.73 6349
0.05 -0.01 4.57 6.08 6.60 -0.89 -0.83 -3.82 6356
0.05 -0.00 4.99 4.28 7.64 -0.97 -0.75 -3.81 6363
0.05 -0.00 5.53 3.78 7.97 -1.13 -0.49 -3.75 6369
0.06 -0.01 5.68 3.55 6.62 -1.21 -0.24 -3.68 6375
0.05 -0.00 5.61 2.82 5.65 -1.14 -0.14 -3.61 6381
0.04 -0.00 5.50 1.83 4.94 -1.03 -0.15 -3.54 6387
0.05 0.00 5.67 1.31 5.22 -0.88 -0.18 -3.46 6393
0.05 -0.00 6.30 1.17 6.28 -0.72 -0.16 -3.35 6400
0.04 -0.00 6.91 1.18 7.70 -0.61 -0.03 -3.20 6406
0.03 -0.00 7.49 1.44 9.22 -0.53 0.18 -3.00 6413
0.05 0.00 8.00 1.72 10.34 -0.54 0.53 -2.79 6419
0.05 -0.00 7.93 1.85 10.58 -0.65 0.88 -2.57 6425
0.04 -0.00 7.43 1.80 10.75 -0.82 1.17 -2.33 6431
0.04 0.00 6.42 1.42 10.74 -1.00 1.36 -2.09 6437
0.04 -0.00 5.52 0.56 10.61 -1.12 1.44 -1.85 6444
0.04 -0.00 4.65 -0.39 10.43 -1.15 1.43 -1.62 6451
0.04 0.00 4.15 -1.22 9.98 -1.07 1.39 -1.39 6457
0.05 -0.00 3.88 -1.67 9.81 -1.00 1.35 -1.18 6463
0.04 -0.00 3.85 -1.70 9.68 -0.89 1.37 -0.99 6469
0.03 -0.00 3.85 -1.65 9.94 -0.77 1.47 -0.83 6475
0.04 0.00 3.59 -1.68 11.00 -0.66 1.64 -0.66 6481
0.04 -0.00 2.97 -1.65 10.84 -0.57 1.83 -0.50 6488
0.04 -0.00 2.15 -1.55 11.38 -0.50 1.99 -0.36 6495
0.05 0.00 1.07 -1.44 11.79 -0.43 2.07 -0.24 6501
0.05 -0.01 -0.04 -1.50 12.04 -0.39 2.08 -0.16 6507
0.04 -0.00 -1.00 -1.64 12.49 -0.37 2.04 -0.11 6513
0.05 -0.00 -1.66 -1.78 12.95 -0.37 1.96 -0.08 6519
0.05 -0.01 -2.06 -1.91 13.29 -0.39 1.85 -0.08 6525
0.04 -0.00 -2.32 -1.94 13.46 -0.43 1.74 -0.13 6533
0.04 -0.00 -2.49 -1.94 13.41 -0.48 1.66 -0.12 6539
0.06 -0.01 -2.73 -1.92 13.12 -0.53 1.59 -0.14 6545
0.04 -0.00 -2.97 -1.94 12.68 -0.56 1.52 -0.14 6551
0.04 -0.00 -3.09 -2.00 12.25 -0.56 1.41 -0.14 6557
0.06 -0.01 -3.24 -2.11 11.88 -0.52 1.29 -0.12 6564
0.05 -0.00 -3.31 -2.21 11.67 -0.47 1.16 -0.07 6571
0.04 -0.00 -3.22 -2.05 11.52 -0.42 1.01 -0.02 6577
0.05 -0.00 -3.07 -1.95 11.12 -0.36 0.86 0.06 6583
0.05 -0.00 -2.92 -1.94 10.95 -0.30 0.75 0.13 6589
0.04 -0.00 -2.69 -1.99 10.83 -0.24 0.64 0.18 6595
0.04 -0.00 -2.42 -2.12 10.76 -0.18 0.57 0.25 6601
0.05 -0.01 -2.11 -2.26 10.68 -0.11 0.52 0.30 6608
0.04 -0.00 -1.87 -2.39 10.62 -0.04 0.49 0.34 6615
0.04 -0.00 -1.58 -2.40 10.66 0.01 0.47 0.37 6621
0.05 -0.00 -1.09 -2.29 11.03 0.05 0.48 0.40 6627
0.04 -0.00 -0.67 -2.13 11.26 0.06 0.53 0.42 6633
0.03 -0.00 -0.62 -2.02 11.25 0.02 0.57 0.45 6639
0.05 0.00 -0.82 -1.86 11.20 -0.03 0.60 0.49 6645
0.04 -0.00 -1.15 -1.76 10.82 -0.08 0.55 0.52 6652
0.04 -0.00 -1.28 -1.76 10.43 -0.12 0.43 0.56 6659
0.04 0.00 -1.14 -1.84 10.08 -0.14 0.29 0.60 6665
0.04 -0.00 -0.80 -1.77 9.87 -0.15 0.17 0.63 6671
0.04 -0.00 -0.41 -1.71 9.62 -0.14 0.11 0.66 6677
0.03 -0.00 -0.01 -1.59 9.33 -0.13 0.11 0.68 6683
0.04 0.00 0.14 -1.67 9.19 -0.12 0.15 0.71 6689
0.04 -0.00 0.23 -1.70 9.04 -0.12 0.21 0.72 6696
0.04 -0.00 0.18 -1.73 8.94 -0.11 0.28 0.77 6703
0.03 -0.00 -0.01 -1.65 8.99 -0.09 0.34 0.74 6709
0.04 0.00 -0.47 -1.67 8.89 -0.06 0.38 0.75 6715
0.04 -0.00 -0.82 -1.91 8.89 -0.03 0.38 0.74 6721
0.04 -0.00 -1.11 -2.16 9.17 -0.01 0.36 0.71 6727
0.04 -0.00 -1.27 -2.31 9.58 0.00 0.31 0.65 6733
0.04 0.00 -1.30 -2.33 9.91 0.01 0.33 0.59 6739
0.04 -0.00 -1.40 -2.31 10.02 -0.01 0.35 0.52 6746
0.04 -0.00 -1.62 -2.45 10.04 -0.05 0.36 0.45 6753
0.04 -0.00 -1.86 -2.57 10.01 -0.08 0.36 0.40 6759
0.05 -0.00 -2.07 -2.81 9.87 -0.10 0.33 0.36 6765
0.04 -0.00 -2.31 -3.00 9.51 -0.11 0.28 0.34 6771
0.03 -0.00 -2.56 -3.23 9.17 -0.09 0.20 0.34 6777
0.04 -0.00 -2.64 -3.40 8.79 -0.05 0.19 0.35 6784
0.05 -0.01 -2.75 -3.49 8.57 0.02 0.12 0.38 6790
0.04 -0.00 -2.77 -3.54 8.27 0.09 0.04 0.41 6796
0.04 -0.00 -2.67 -3.58 7.94 0.18 -0.02 0.46 6802
0.04 -0.00 -2.51 -3.57 7.77 0.27 -0.07 0.51 6808
0.05 -0.01 -2.39 -3.55 7.51 0.37 -0.12 0.56 6815
0.04 -0.00 -2.30 -3.82 7.47 0.48 -0.18 0.61 6821
0.04 -0.00 -1.77 -3.82 7.64 0.59 -0.19 0.65 6828
0.04 -0.00 -1.21 -3.76 8.01 0.68 -0.16 0.70 6834
0.05 -0.01 -2.34 -3.45 9.62 0.76 -0.17 0.77 6840
0.05 -0.00 -26.86 -2.41 25.43 1.02 -3.04 1.01 6846
0.04 -0.00 -10.20 1.02 5.30 0.46 -4.22 1.23 6852
0.05 -0.00 -2.49 0.77 5.01 0.27 -4.28 1.45 6859
0.04 -0.00 -6.54 -2.69 12.47 0.02 -4.28 1.74 6865
0.04 -0.00 -10.04 15.40 52.33 0.35 -4.28 1.88 6872
0.04 0.04 -16.70 3.09 19.91 0.34 -1.96 1.43 6878
0.04 0.11 -12.75 -3.61 12.57 -0.27 -0.33 0.76 6884
0.04 0.21 -7.40 -0.22 12.78 -0.39 -0.06 0.37 6891
0.04 0.33 -2.21 -0.34 11.70 -0.22 0.16 -0.08 6897
0.04 0.36 0.76 -0.17 11.06 -0.01 0.14 -0.01 6903
0.05 0.34 2.86 0.11 10.76 0.05 0.02 0.07 6909
0.05 0.29 1.89 -0.34 10.15 0.06 -0.06 0.17 6916
0.05 0.29 1.64 -0.14 10.09 0.07 -0.12 0.25 6923
0.06 0.27 0.52 -0.73 9.94 0.06 -0.14 0.27 6929
0.06 0.28 0.22 -0.75 9.71 0.05 -0.11 0.24 6935
0.06 0.30 0.34 -1.25 9.84 0.02 -0.08 0.21 6941
0.07 0.31 0.57 -0.56 9.73 -0.02 -0.06 0.22 6947
0.11 0.28 0.59 -1.36 9.81 -0.04 -0.04 0.19 6953
0.11 0.34 0.03 -1.11 9.97 -0.05 -0.02 0.15 6961
0.11 0.35 0.50 -0.97 9.79 -0.07 -0.00 0.13 6967
0.10 0.43 0.57 -0.94 10.37 -0.10 0.00 0.12 6973
0.11 0.48 0.78 -1.03 10.19 -0.11 -0.00 0.09 6979
0.09 0.51 0.71 -0.86 10.36 -0.10 -0.02 0.08 6985
0.11 0.51 0.68 -0.73 10.19 -0.08 -0.03 0.07 6992
0.09 0.59 0.59 -0.67 10.04 -0.06 -0.03 0.07 6999
0.08 0.63 0.64 -0.74 9.96 -0.06 -0.03 0.07 7005
0.11 0.64 0.64 -0.79 9.95 -0.05 -0.03 0.08 7011
0.10 0.72 0.61 -0.78 9.95 -0.04 -0.03 0.08 7017
0.09 0.73 0.60 -0.79 9.92 -0.05 -0.03 0.08 7023
0.09 0.77 0.59 -0.77 10.01 -0.05 -0.04 0.07 7029
0.08 0.84 0.54 -0.78 10.03 -0.05 -0.03 0.07 7036
0.09 0.86 0.50 -0.80 10.00 -0.05 -0.03 0.07 7043
0.07 0.88 0.54 -0.75 10.03 -0.05 -0.02 0.06 7049
0.08 0.95 0.51 -0.75 10.10 -0.05 -0.02 0.06 7055
0.08 0.93 0.58 -0.76 10.06 -0.04 -0.00 0.06 7061
0.05 0.97 0.58 -0.74 10.05 -0.04 0.00 0.05 7068
0.04 0.97 0.54 -0.76 10.03 -0.04 0.01 0.05 7074
0.04 0.96 0.56 -0.74 9.99 -0.04 0.02 0.05 7080
0.03 1.02 0.58 -0.75 9.97 -0.04 0.02 0.05 7087
0.04 1.04 0.64 -0.75 9.94 -0.04 0.02 0.05 7093
0.02 1.06 0.64 -0.73 10.00 -0.05 0.02 0.05 7099
0.02 1.10 0.59 -0.72 10.03 -0.04 0.02 0.04 7106
0.03 1.13 0.63 -0.70 10.04 -0.04 0.03 0.05 7112
0.01 1.14 0.60 -0.75 9.98 -0.04 0.03 0.05 7118
-0.01 1.18 0.58 -0.71 9.99 -0.04 0.03 0.04 7124
0.01 1.20 0.66 -0.73 10.05 -0.04 0.03 0.04 7131
0.00 1.22 0.64 -0.72 10.00 -0.04 0.03 0.04 7137
-0.01 1.22 0.64 -0.71 10.03 -0.07 0.03 0.04 7144
0.00 1.25 0.65 -0.69 9.93 -0.03 0.03 0.05 7150
-0.01 1.27 0.65 -0.73 9.98 -0.03 0.03 0.05 7156
0.00 1.22 0.68 -0.68 9.96 -0.03 0.04 0.05 7162
-0.01 1.27 0.66 -0.71 10.02 -0.02 0.03 0.05 7169
0.01 1.25 0.68 -0.70 9.99 -0.01 0.04 0.05 7175
0.00 1.21 0.64 -0.68 10.04 -0.01 0.04 0.05 7181
-0.00 1.25 0.69 -0.71 10.01 -0.01 0.04 0.05 7188
0.02 1.24 0.68 -0.69 9.99 -0.01 0.04 0.06 7194
0.00 1.25 0.73 -0.72 9.99 -0.01 0.05 0.05 7200
-0.01 1.23 0.68 -0.70 9.97 -0.02 0.04 0.06 7206
0.01 1.23 0.68 -0.66 10.04 -0.01 0.05 0.06 7213
-0.01 1.22 0.72 -0.70 9.96 -0.02 0.05 0.05 7219
-0.01 1.19 0.78 -0.72 9.98 -0.02 0.04 0.06 7226
-0.01 1.21 0.73 -0.72 9.93 -0.02 0.05 0.06 7232
-0.01 1.18 0.74 -0.65 10.01 -0.03 0.05 0.06 7238
-0.01 1.17 0.70 -0.69 9.99 -0.02 0.05 0.06 7244
-0.01 1.18 0.75 -0.68 10.01 -0.03 0.05 0.06 7250
0.00 1.20 0.73 -0.65 10.02 -0.03 0.05 0.06 7257
-0.01 1.18 0.73 -0.63 10.01 -0.03 0.06 0.06 7264
-0.01 1.18 0.78 -0.68 9.97 -0.07 0.07 0.06 7270
-0.00 1.17 0.78 -0.68 9.99 -0.04 0.07 0.06 7276
0.00 1.15 0.75 -0.69 9.94 -0.04 0.07 0.06 7282
-0.01 1.17 0.78 -0.68 9.98 -0.04 0.08 0.05 7288
0.00 1.16 0.78 -0.68 9.96 -0.05 0.07 0.05 7294
-0.01 1.15 0.76 -0.68 9.98 -0.05 0.08 0.05 7302
-0.01 1.15 0.79 -0.66 9.97 -0.05 0.08 0.04 7308
-0.01 1.16 0.75 -0.68 10.00 -0.05 0.09 0.04 7314
-0.00 1.16 0.80 -0.68 10.02 -0.05 0.09 0.04 7320
-0.02 1.17 0.79 -0.70 9.97 -0.06 0.10 0.04 7326
-0.00 1.20 0.91 -0.68 9.97 -0.06 0.10 0.03 7332
0.01 1.20 0.87 -0.70 9.99 -0.06 0.10 0.03 7340
-0.01 1.19 0.86 -0.67 9.98 -0.05 0.10 0.02 7346
-0.01 1.19 0.87 -0.63 9.90 -0.05 0.09 0.02 7352
0.01 1.19 0.92 -0.63 9.91 -0.05 0.08 0.01 7358
-0.00 1.18 0.94 -0.68 9.91 -0.05 0.07 0.01 7364
-0.01 1.17 0.92 -0.63 9.89 -0.04 0.05 0.01 7370
-0.01 1.17 0.96 -0.66 9.93 -0.04 0.04 0.01 7376
-0.00 1.15 0.96 -0.65 9.91 -0.03 0.03 0.01 7384
-0.01 1.15 0.93 -0.67 10.02 -0.03 0.02 0.01 7390
-0.01 1.15 0.95 -0.69 9.90 -0.03 0.01 0.01 7396
0.01 1.16 0.93 -0.66 9.98 -0.02 0.01 0.02 7402
-0.00 1.14 0.91 -0.64 10.04 -0.02 0.01 0.02 7408
-0.01 1.15 0.93 -0.61 9.98 -0.02 0.01 0.02 7414
0.01 1.12 0.98 -0.64 9.96 -0.02 0.01 0.02 7420
0.00 1.11 0.97 -0.61 9.97 -0.01 0.00 0.02 7428
-0.01 1.09 0.95 -0.63 9.96 -0.01 -0.00 0.02 7434
-0.00 1.10 0.95 -0.61 10.00 -0.01 -0.01 0.02 7440
-0.00 1.08 0.96 -0.64 9.92 -0.01 -0.01 0.02 7446
-0.00 1.08 0.96 -0.63 9.99 -0.01 -0.01 0.02 7452
-0.00 1.09 0.98 -0.63 9.96 -0.01 -0.02 0.02 7458
-0.00 1.07 0.97 -0.63 9.96 -0.00 -0.02 0.02 7464
-0.01 1.06 0.97 -0.67 9.92 0.00 -0.03 0.02 7472
-0.01 1.04 0.94 -0.67 9.93 0.00 -0.04 0.02 7478
-0.00 1.06 0.95 -0.67 9.98 0.01 -0.04 0.02 7484
-0.00 1.03 0.96 -0.68 9.97 0.01 -0.04 0.03 7490
-0.01 1.03 0.97 -0.69 10.03 0.00 -0.04 0.03 7496
-0.01 1.03 0.94 -0.68 9.94 -0.00 -0.03 0.03 7502
-0.01 1.02 0.94 -0.66 9.99 -0.00 -0.02 0.03 7508
-0.00 1.02 0.93 -0.67 9.96 -0.01 -0.02 0.03 7516
-0.02 1.01 0.95 -0.68 9.99 -0.01 -0.02 0.03 7522
-0.00 1.03 0.99 -0.66 9.97 -0.01 -0.03 0.03 7528
0.00 1.02 0.96 -0.65 9.93 -0.01 -0.03 0.03 7534
-0.00 1.01 0.96 -0.63 9.97 -0.00 -0.04 0.03 7540
-0.01 0.99 0.92 -0.62 9.99 -0.00 -0.04 0.03 7546
0.01 1.00 0.95 -0.67 9.96 -0.00 -0.04 0.02 7553
-0.00 1.00 0.94 -0.64 9.95 0.00 -0.05 0.02 7560
-0.02 1.00 0.93 -0.65 9.94 0.01 -0.07 0.02 7566
-0.00 1.00 0.93 -0.62 9.90 0.02 -0.08 0.02 7572
-0.01 0.97 0.91 -0.61 9.88 0.03 -0.11 0.02 7578
-0.01 0.96 0.91 -0.66 9.87 0.04 -0.14 0.02 7584
-0.01 0.97 0.95 -0.63 9.88 0.04 -0.16 0.01 7590
0.01 0.96 0.90 -0.61 9.83 0.06 -0.18 0.01 7597
0.00 0.93 0.89 -0.63 9.95 0.06 -0.21 0.01 7604
-0.03 0.94 0.87 -0.69 10.00 0.06 -0.20 0.01 7610
-0.01 0.93 0.78 -0.73 9.94 0.05 -0.18 0.02 7616
0.01 0.93 0.86 -0.69 10.01 0.03 -0.14 0.02 7622
0.00 0.92 0.81 -0.67 10.00 0.03 -0.12 0.03 7628
0.01 0.87 0.81 -0.68 9.92 0.02 -0.11 0.03 7634
0.02 0.86 0.78 -0.66 9.99 0.02 -0.10 0.03 7642
0.02 0.85 0.81 -0.63 9.93 0.02 -0.11 0.03 7648
0.01 0.86 0.80 -0.67 9.95 0.03 -0.11 0.04 7654
0.02 0.83 0.75 -0.71 9.95 0.02 -0.12 0.04 7660
0.01 0.83 0.82 -0.67 9.88 0.03 -0.12 0.04 7666
0.01 0.81 0.80 -0.69 9.89 0.03 -0.12 0.04 7672
0.02 0.81 0.81 -0.69 9.95 0.03 -0.12 0.03 7678
0.01 0.77 0.79 -0.68 9.98 0.03 -0.13 0.04 7686
0.02 0.73 0.73 -0.70 10.08 0.03 -0.12 0.04 7692
0.02 0.72 0.77 -0.67 10.03 0.02 -0.12 0.05 7698
0.04 0.69 0.73 -0.67 9.96 0.02 -0.12 0.04 7704
0.03 0.66 0.80 -0.69 9.99 0.02 -0.11 0.04 7710
0.02 0.64 0.73 -0.67 9.95 0.01 -0.12 0.04 7716
0.04 0.64 0.73 -0.66 10.00 0.01 -0.11 0.04 7724
0.04 0.61 0.68 -0.70 9.99 0.01 -0.11 0.04 7730
0.02 0.60 0.78 -0.71 9.98 0.01 -0.10 0.03 7736
0.05 0.59 0.77 -0.67 9.97 0.00 -0.10 0.03 7742
0.06 0.53 0.76 -0.67 10.01 0.01 -0.10 0.04 7748
0.06 0.49 0.73 -0.70 9.98 0.01 -0.10 0.03 7754
0.08 0.43 0.76 -0.69 10.02 0.01 -0.09 0.02 7760
0.08 0.42 0.75 -0.71 9.97 0.01 -0.08 0.03 7768
0.08 0.36 0.72 -0.68 10.07 0.02 -0.08 0.02 7774
0.08 0.31 0.79 -0.68 10.04 0.02 -0.07 0.02 7780
0.10 0.29 0.78 -0.68 9.97 0.03 -0.07 0.02 7786
0.11 0.22 0.76 -0.75 10.01 0.03 -0.07 0.02 7792
0.11 0.18 0.80 -0.73 10.02 0.04 -0.07 0.01 7798
0.11 0.16 0.75 -0.42 10.08 0.05 -0.06 0.01 7805
0.12 0.12 0.81 -0.74 10.12 0.06 -0.06 0.00 7812
0.11 0.09 0.79 -0.72 10.10 0.07 -0.06 -0.00 7818
0.13 0.06 0.80 -0.73 10.07 0.09 -0.07 -0.02 7824
0.13 0.01 0.81 -0.78 10.24 0.11 -0.07 -0.04 7830
0.09 0.02 0.88 -0.74 10.22 0.13 -0.07 -0.07 7837
0.11 0.01 1.14 -0.75 10.28 0.16 -0.07 -0.13 7843
0.12 -0.01 2.36 -0.73 10.46 0.20 -0.06 -0.26 7849
0.14 -0.01 3.23 -0.47 10.54 0.27 -0.02 -0.52 7856
0.13 -0.01 5.11 -0.48 11.19 0.38 0.00 -0.89 7862
0.10 -0.01 6.87 0.37 11.85 0.60 0.06 -1.28 7868
0.11 -0.01 5.39 -0.15 12.91 0.94 0.21 -1.80 7875
0.12 -0.01 5.37 -0.52 12.39 1.31 0.27 -2.17 7881
0.09 -0.01 5.83 -1.58 12.17 1.36 0.24 -2.48 7887
0.07 -0.01 7.68 -0.95 10.32 1.31 0.26 -2.81 7894
0.07 -0.00 7.76 -1.45 10.43 1.29 0.23 -3.19 7900
0.07 -0.01 8.93 -2.23 10.40 1.22 0.33 -3.52 7906
0.04 -0.00 8.31 -0.54 12.49 1.19 0.48 -3.87 7913
0.07 -0.01 9.42 -1.06 9.35 1.01 0.56 -4.23 7919
0.06 -0.01 9.55 -1.36 11.84 0.88 0.84 -4.28 7925
0.06 -0.01 8.66 0.10 11.34 0.70 0.94 -4.28 7931
0.06 -0.00 8.95 -0.96 10.81 0.54 0.93 -4.28 7938
0.05 -0.00 6.15 0.29 10.99 0.41 0.85 -4.28 7944
0.04 -0.00 3.70 2.28 11.18 0.21 0.47 -4.28 7951
0.04 -0.00 2.12 3.68 10.54 -0.01 -0.08 -4.28 7957
0.05 -0.01 2.85 3.28 9.85 -0.18 -0.65 -4.28 7963
0.04 -0.00 3.67 2.17 10.08 -0.33 -1.04 -4.28 7969
0.04 -0.00 3.99 2.45 10.48 -0.46 -1.16 -4.28 7975
0.05 -0.00 6.09 1.83 10.30 -0.59 -1.07 -4.28 7982
0.04 -0.00 7.26 2.13 9.80 -0.67 -0.85 -4.28 7988
0.04 -0.00 7.62 2.69 8.77 -0.71 -0.59 -4.28 7995
0.05 -0.00 7.73 3.03 7.64 -0.73 -0.37 -4.28 8001
0.05 -0.01 7.77 3.14 7.04 -0.73 -0.23 -4.28 8007
0.04 -0.00 7.68 3.10 6.83 -0.71 -0.12 -4.15 8013
0.04 -0.00 7.40 2.97 7.02 -0.66 -0.05 -3.89 8019
0.04 0.00 7.26 2.74 7.40 -0.57 0.02 -3.59 8026
0.04 -0.00 7.53 2.52 7.88 -0.47 0.09 -3.33 8032
0.04 -0.00 7.72 2.89 8.15 -0.38 0.19 -3.00 8038
0.04 -0.00 8.00 2.91 8.42 -0.32 0.32 -2.70 8045
0.05 -0.00 8.02 2.87 8.90 -0.29 0.49 -2.40 8051
0.05 -0.01 8.09 2.75 9.49 -0.28 0.69 -2.12 8057
0.05 -0.00 7.73 2.55 9.70 -0.28 0.89 -1.84 8064
0.04 -0.00 6.97 2.35 9.94 -0.28 1.04 -1.58 8070
0.06 -0.01 5.96 2.07 9.99 -0.28 1.17 -1.36 8076
0.05 -0.01 4.82 1.70 10.15 -0.28 1.23 -1.12 8082
0.04 -0.00 4.02 1.48 10.51 -0.27 1.24 -0.91 8088
0.04 0.00 3.42 1.32 10.73 -0.27 1.23 -0.73 8095
0.04 0.00 2.97 1.25 10.88 -0.28 1.23 -0.58 8101
0.04 -0.00 2.66 1.20 10.84 -0.30 1.23 -0.46 8108
0.05 -0.00 2.39 1.22 10.95 -0.31 1.23 -0.35 8114
0.05 -0.01 2.06 1.15 10.93 -0.32 1.26 -0.27 8120
0.04 -0.00 1.70 0.93 10.75 -0.33 1.29 -0.20 8127
0.05 -0.01 1.38 0.81 10.85 -0.33 1.32 -0.17 8133
0.05 -0.01 1.13 0.57 11.15 -0.32 1.33 -0.20 8139
0.04 -0.00 0.81 0.34 11.49 -0.30 1.33 -0.19 8145
0.04 -0.00 0.41 0.12 11.79 -0.30 1.33 -0.23 8152
0.05 -0.01 0.00 -0.01 11.95 -0.31 1.32 -0.27 8158
0.04 -0.00 -0.36 -0.03 12.06 -0.34 1.28 -0.32 8164
0.03 -0.00 -0.56 -0.03 12.16 -0.37 1.23 -0.35 8171
0.04 -0.00 -0.80 -0.08 11.88 -0.41 1.17 -0.37 8177
0.04 -0.00 -1.13 -0.18 11.56 -0.45 1.13 -0.36 8183
0.03 -0.00 -1.35 -0.33 11.42 -0.47 1.07 -0.34 8189
0.04 -0.00 -1.34 -0.50 11.44 -0.46 1.00 -0.31 8196
0.04 -0.00 -1.22 -0.61 11.33 -0.44 0.91 -0.26 8202
0.04 -0.00 -1.20 -0.63 11.14 -0.41 0.83 -0.19 8209
0.03 -0.00 -1.15 -0.64 11.03 -0.36 0.77 -0.09 8215
0.04 -0.00 -1.10 -0.85 10.77 -0.32 0.72 -0.00 8221
0.04 -0.00 -1.25 -1.15 10.66 -0.24 0.66 0.10 8227
0.04 -0.00 -1.24 -1.45 10.69 -0.21 0.60 0.20 8233
0.04 -0.00 -1.07 -1.69 10.66 -0.14 0.55 0.31 8240
0.05 -0.00 -0.80 -1.77 10.72 -0.08 0.49 0.43 8246
0.04 -0.00 -0.40 -1.74 10.97 -0.05 0.43 0.51 8253
0.04 0.01 0.10 -1.45 11.09 -0.04 0.40 0.63 8259
0.04 -0.00 0.59 -1.22 11.22 -0.08 0.38 0.77 8265
0.04 -0.00 0.86 -1.07 11.06 -0.15 0.40 0.92 8271
0.04 -0.00 0.90 -1.05 10.69 -0.22 0.41 1.08 8278
0.05 -0.01 0.68 -1.20 9.91 -0.28 0.40 1.21 8284
0.04 -0.00 0.37 -1.65 9.13 -0.29 0.39 1.31 8290
0.04 -0.00 0.10 -2.00 8.67 -0.25 0.40 1.34 8296
0.04 -0.00 -0.08 -2.43 8.45 -0.18 0.43 1.34 8303
0.05 -0.01 -0.42 -2.68 8.29 -0.09 0.52 1.30 8309
0.04 -0.00 -0.83 -2.72 8.40 0.00 0.65 1.23 8315
0.04 -0.00 -1.44 -2.62 8.51 0.07 0.77 1.15 8322
0.04 -0.00 -1.92 -2.56 8.78 0.13 0.86 1.08 8328
0.04 -0.00 -2.42 -2.55 8.96 0.16 0.84 1.01 8334
0.04 -0.00 -2.83 -2.58 9.04 0.17 0.78 1.01 8340
0.04 -0.00 -3.04 -2.78 9.05 0.17 0.67 1.02 8346
0.04 -0.00 -2.84 -3.10 8.88 0.16 0.55 1.05 8352
0.04 -0.00 -6.61 -5.87 10.58 0.18 0.21 1.12 8358
0.04 -0.00 -12.18 -4.83 11.65 0.60 -1.90 1.40 8366
0.03 -0.00 -2.78 -2.66 2.35 0.33 -1.73 1.57 8372
0.04 -0.00 -4.80 -6.03 6.89 0.44 -2.60 1.75 8378
0.05 -0.00 -7.82 -9.94 11.04 0.45 -2.76 1.89 8384
0.04 -0.00 -7.49 -7.86 7.25 0.70 -3.13 2.09 8390
0.03 -0.00 -8.16 -7.11 5.84 0.81 -3.13 2.28 8396
0.04 0.02 -20.83 -10.45 11.08 1.13 -3.67 2.59 8403
0.04 0.06 -20.31 -4.15 28.00 1.69 -2.49 3.31 8410
0.04 0.13 -23.34 2.32 19.04 0.37 -2.20 2.82 8416
0.02 0.25 -22.61 -6.48 17.89 0.03 -0.40 1.53 8422
0.02 0.28 -15.55 -1.51 12.71 -0.15 -0.10 0.51 8429
0.05 0.30 -3.32 0.85 9.05 -0.04 0.09 -0.18 8435
0.03 0.25 4.49 0.24 10.30 0.08 0.09 -0.08 8441
0.03 0.30 3.50 -0.23 10.15 0.03 -0.02 0.28 8448
0.05 0.31 2.51 -0.43 10.35 -0.01 -0.08 0.48 8454
0.05 0.27 0.59 -1.59 10.36 -0.01 -0.14 0.42 8461
0.06 0.28 0.33 -0.53 9.44 0.02 -0.15 0.27 8467
0.08 0.28 0.52 -0.30 9.75 -0.02 -0.14 0.22 8473
0.10 0.32 0.37 -1.08 9.91 -0.06 -0.12 0.18 8479
0.09 0.35 0.31 -1.26 10.01 -0.08 -0.13 0.13 8485
0.15 0.40 0.70 -0.90 9.77 -0.11 -0.14 0.10 8492
0.15 0.39 0.48 -0.98 9.89 -0.12 -0.13 0.09 8499
0.14 0.49 0.40 -0.74 10.16 -0.12 -0.11 0.08 8505
0.17 0.52 0.47 -0.56 10.32 -0.09 -0.08 0.08 8511
0.19 0.52 0.67 -0.37 10.16 -0.08 -0.04 0.10 8517
0.19 0.51 0.76 -0.75 10.27 -0.06 -0.05 0.08 8523
0.22 0.52 0.69 -0.69 10.13 -0.04 -0.04 0.08 8530
0.24 0.52 0.59 -0.74 10.04 -0.03 -0.04 0.06 8537
0.24 0.51 0.67 -0.76 10.03 -0.04 -0.04 0.07 8543
0.27 0.51 0.70 -0.70 10.08 -0.03 -0.04 0.07 8549
0.27 0.50 0.67 -0.70 10.04 -0.03 -0.04 0.07 8555
0.29 0.53 0.75 -0.72 10.06 -0.02 -0.04 0.07 8562
0.30 0.56 0.66 -0.70 9.97 -0.02 -0.03 0.06 8568
0.30 0.54 0.68 -0.70 10.03 -0.01 -0.03 0.06 8574
0.30 0.52 0.72 -0.70 10.02 -0.01 -0.03 0.05 8581
0.32 0.54 0.82 -0.66 10.01 -0.01 -0.03 0.05 8587
0.31 0.53 0.68 -0.63 9.95 -0.01 -0.03 0.05 8593
0.31 0.52 0.71 -0.65 9.97 0.00 -0.03 0.05 8600
0.33 0.54 0.67 -0.66 10.01 0.00 -0.03 0.04 8606
0.31 0.53 0.66 -0.68 10.03 0.00 -0.03 0.05 8612
0.30 0.51 0.70 -0.69 10.11 0.01 -0.03 0.04 8619
0.32 0.47 0.68 -0.68 10.03 0.00 -0.03 0.04 8625
0.31 0.47 0.68 -0.72 10.00 0.01 -0.03 0.05 8632
0.30 0.46 0.71 -0.68 10.08 0.01 -0.03 0.05 8638
0.32 0.46 0.66 -0.67 10.06 0.01 -0.03 0.05 8644
0.31 0.44 0.67 -0.68 10.01 0.01 -0.03 0.05 8650
0.30 0.43 0.72 -0.69 10.00 0.01 -0.03 0.05 8656
0.33 0.42 0.71 -0.72 10.00 0.01 -0.03 0.05 8664
0.32 0.36 0.68 -0.71 9.97 0.01 -0.04 0.04 8670
0.32 0.36 0.72 -0.71 10.02 0.01 -0.03 0.04 8676
0.33 0.33 0.63 -0.68 9.99 0.01 -0.03 0.04 8682
0.33 0.31 0.72 -0.69 10.00 0.01 -0.03 0.04 8688
0.31 0.31 0.68 -0.65 9.97 0.01 -0.03 0.04 8694
0.32 0.32 0.74 -0.70 10.08 0.01 -0.03 0.04 8701
0.32 0.28 0.67 -0.68 9.97 0.01 -0.03 0.04 8708
0.31 0.28 0.72 -0.70 10.01 0.01 -0.03 0.04 8714
0.32 0.29 0.71 -0.70 10.00 0.01 -0.03 0.04 8720
0.32 0.31 0.68 -0.70 10.03 0.01 -0.03 0.04 8726
0.31 0.27 0.70 -0.71 9.98 0.01 -0.04 0.04 8732
0.32 0.26 0.72 -0.69 9.94 0.00 -0.04 0.04 8739
0.32 0.26 0.69 -0.71 9.90 0.00 -0.04 0.03 8745
0.32 0.24 0.68 -0.71 9.95 0.00 -0.04 0.03 8752
0.32 0.26 0.72 -0.72 9.97 0.00 -0.04 0.03 8758
0.35 0.27 0.70 -0.74 9.96 -0.00 -0.04 0.03 8764
0.35 0.26 0.69 -0.70 9.96 -0.01 -0.04 0.03 8770
0.34 0.27 0.67 -0.67 10.00 -0.01 -0.05 0.03 8776
0.35 0.27 0.67 -0.69 9.99 -0.01 -0.05 0.03 8783
0.36 0.23 0.68 -0.68 9.99 -0.01 -0.05 0.03 8790
0.35 0.25 0.70 -0.71 9.99 -0.01 -0.05 0.03 8796
0.35 0.27 0.68 -0.70 10.00 -0.01 -0.05 0.03 8802
0.36 0.27 0.65 -0.70 9.96 -0.01 -0.05 0.03 8808
0.36 0.26 0.66 -0.74 10.00 -0.02 -0.05 0.03 8814
0.34 0.28 0.70 -0.69 9.96 -0.02 -0.05 0.03 8821
0.36 0.29 0.65 -0.69 10.01 -0.02 -0.05 0.03 8827
0.34 0.29 0.67 -0.68 10.04 -0.02 -0.05 0.03 8834
0.33 0.31 0.65 -0.71 10.00 -0.02 -0.05 0.03 8840
0.33 0.32 0.68 -0.69 9.99 -0.02 -0.05 0.03 8846
0.32 0.33 0.65 -0.72 10.02 -0.02 -0.05 0.03 8852
0.31 0.34 0.67 -0.66 9.97 -0.02 -0.05 0.03 8859
0.34 0.35 0.68 -0.66 9.97 -0.02 -0.05 0.02 8865
0.32 0.34 0.70 -0.70 9.98 -0.02 -0.05 0.02 8871
0.31 0.34 0.61 -0.66 9.98 -0.02 -0.05 0.02 8878
0.34 0.34 0.64 -0.69 10.01 -0.02 -0.05 0.02 8884
0.36 0.35 0.60 -0.69 9.99 -0.02 -0.06 0.02 8890
0.34 0.37 0.59 -0.69 10.02 -0.02 -0.05 0.02 8897
0.34 0.41 0.58 -0.68 9.97 -0.02 -0.05 0.02 8903
0.35 0.41 0.62 -0.67 9.97 -0.02 -0.05 0.01 8909
0.38 0.40 0.58 -0.65 10.03 -0.01 -0.05 0.02 8915
0.38 0.42 0.64 -0.66 9.99 -0.01 -0.04 0.02 8922
0.38 0.42 0.67 -0.67 9.98 -0.01 -0.04 0.02 8928
0.40 0.41 0.65 -0.66 9.94 -0.01 -0.04 0.02 8935
0.41 0.42 0.69 -0.66 10.03 -0.01 -0.04 0.02 8941
0.38 0.41 0.65 -0.70 10.01 -0.01 -0.04 0.01 8947
0.36 0.40 0.60 -0.71 10.03 -0.01 -0.04 0.02 8953
0.37 0.39 0.63 -0.66 10.01 -0.01 -0.04 0.02 8960
0.38 0.42 0.64 -0.69 10.03 -0.01 -0.04 0.02 8966
0.37 0.40 0.59 -0.71 10.00 -0.01 -0.04 0.02 8973
0.40 0.41 0.62 -0.68 9.99 -0.01 -0.04 0.02 8979
0.43 0.41 0.65 -0.69 10.02 -0.01 -0.04 0.02 8985
0.43 0.40 0.68 -0.71 9.98 -0.01 -0.04 0.02 8991
0.41 0.41 0.66 -0.69 9.98 -0.01 -0.04 0.03 8997
0.43 0.40 0.64 -0.66 9.99 -0.01 -0.05 0.02 9004
0.39 0.42 0.63 -0.67 10.05 -0.01 -0.04 0.03 9011
0.37 0.40 0.65 -0.68 9.97 0.00 -0.04 0.03 9017
0.38 0.39 0.66 -0.70 10.02 -0.00 -0.04 0.02 9023
0.38 0.35 0.63 -0.68 9.97 0.00 -0.04 0.03 9029
0.38 0.30 0.67 -0.68 10.06 0.01 -0.03 0.02 9035
0.41 0.30 0.67 -0.68 9.99 0.01 -0.03 0.03 9041
0.44 0.26 0.65 -0.69 10.03 0.02 -0.02 0.03 9049
0.42 0.25 0.65 -0.69 10.02 0.02 -0.02 0.02 9055
0.38 0.24 0.68 -0.68 10.11 0.03 -0.03 0.02 9061
0.37 0.17 0.74 -0.71 10.12 0.05 -0.04 0.02 9067
0.33 0.12 0.75 -0.70 10.19 0.07 -0.05 0.01 9073
0.35 0.10 0.82 -0.81 10.22 0.10 -0.06 -0.00 9080
0.36 0.07 0.73 -0.71 10.30 0.14 -0.08 -0.01 9086
0.39 0.03 0.78 -0.78 10.39 0.18 -0.09 -0.02 9093
0.40 0.02 0.86 -0.70 10.61 0.25 -0.12 -0.04 9099
0.41 -0.00 1.06 -0.74 10.76 0.33 -0.16 -0.07 9105
0.41 -0.03 1.26 -1.07 10.99 0.44 -0.25 -0.11 9112
0.44 -0.03 2.02 -1.42 11.63 0.58 -0.45 -0.21 9118
0.46 -0.04 3.33 -1.89 12.89 0.81 -0.71 -0.37 9124
0.44 -0.03 4.14 -2.33 13.34 1.04 -0.97 -0.61 9131
0.42 -0.02 3.62 -2.08 14.45 1.33 -1.20 -0.84 9138
0.42 -0.03 4.08 -2.46 13.59 1.56 -1.40 -1.01 9144
0.43 -0.01 4.99 -3.16 13.46 1.67 -1.57 -1.23 9150
0.40 -0.03 7.33 -3.64 13.30 1.71 -1.55 -1.53 9156
0.36 -0.02 7.07 -3.86 12.27 1.76 -1.38 -1.88 9163
0.25 -0.02 6.26 -4.02 11.89 1.78 -1.23 -2.19 9169
0.20 -0.02 7.45 -4.68 11.64 1.78 -1.17 -2.48 9176
0.13 -0.01 7.99 -3.70 10.89 1.75 -0.92 -2.76 9182
0.12 -0.01 7.23 -4.05 11.41 1.63 -0.52 -3.08 9188
0.08 -0.01 8.35 -2.14 12.15 1.50 -0.32 -3.35 9194
0.09 -0.01 7.52 -2.15 12.23 1.37 -0.23 -3.56 9201
0.07 -0.01 7.52 -1.27 12.41 1.24 -0.27 -3.73 9207
0.07 -0.01 7.64 -0.48 11.97 1.10 -0.27 -3.84 9213
0.05 -0.00 5.80 0.08 11.80 0.91 -0.39 -3.96 9220
0.07 -0.01 5.41 1.01 11.84 0.65 -0.66 -4.08 9226
0.05 -0.00 5.19 3.19 11.11 0.36 -1.09 -4.22 9232
0.05 -0.00 6.55 5.62 9.40 0.06 -1.41 -4.28 9239
0.05 -0.00 7.99 7.32 7.75 -0.23 -1.51 -4.26 9245
0.04 -0.00 9.33 5.22 7.20 -0.44 -1.36 -4.01 9251
0.04 -0.00 9.52 2.45 9.24 -0.57 -0.84 -3.64 9257
0.04 -0.00 10.21 2.00 10.69 -0.80 -0.22 -3.29 9264
0.05 -0.00 11.04 2.31 8.99 -0.94 0.40 -2.95 9270
0.04 -0.00 10.27 2.21 7.93 -0.92 0.70 -2.75 9276
0.03 -0.00 9.15 1.57 5.98 -0.87 0.83 -2.51 9283
0.04 -0.00 8.27 0.91 5.36 -0.76 0.94 -2.26 9289
0.05 -0.00 7.80 0.51 5.81 -0.58 1.09 -1.99 9295
0.04 -0.00 7.58 0.12 6.79 -0.40 1.26 -1.72 9302
0.04 -0.00 6.76 -0.05 7.62 -0.19 1.42 -1.48 9308
0.05 0.00 6.82 -0.02 7.88 -0.01 1.59 -1.25 9314
0.05 -0.01 6.07 0.21 8.08 0.10 1.72 -1.08 9320
0.05 -0.00 5.11 0.45 8.41 0.18 1.80 -0.87 9326
0.04 -0.00 4.09 0.66 8.68 0.26 1.81 -0.66 9332
0.05 0.00 2.95 0.80 9.09 0.36 1.78 -0.44 9339
0.05 -0.01 1.94 1.00 9.44 0.42 1.77 -0.21 9346
0.05 -0.00 1.21 1.26 9.98 0.51 1.79 0.03 9352
0.04 -0.00 0.69 1.56 10.67 0.58 1.84 0.23 9358
0.05 -0.01 0.25 2.01 11.44 0.60 1.90 0.45 9364
0.06 -0.01 -0.23 2.39 12.43 0.56 1.97 0.66 9370
0.05 -0.01 -0.74 2.50 13.29 0.47 2.02 0.84 9376
0.05 -0.00 -1.25 2.31 13.74 0.31 2.01 0.98 9383
0.05 -0.01 -1.66 1.91 13.91 0.12 1.94 1.08 9390
0.03 -0.00 -1.99 1.32 13.85 -0.06 1.80 1.15 9396
0.05 -0.00 -2.19 0.67 13.56 -0.28 1.64 1.18 9402
0.05 -0.01 -2.42 0.15 13.05 -0.46 1.44 1.18 9408
0.04 -0.00 -2.41 -0.43 12.40 -0.60 1.23 1.15 9414
0.05 -0.00 -2.23 -1.00 11.92 -0.70 1.05 1.07 9420
0.05 -0.01 -1.74 -1.56 11.47 -0.77 0.93 0.96 9427
0.04 -0.00 -1.26 -2.00 11.16 -0.80 0.88 0.82 9434
0.03 -0.00 -0.78 -2.45 10.94 -0.81 0.90 0.68 9440
0.05 -0.01 -0.40 -2.78 10.82 -0.81 0.96 0.54 9446
0.05 -0.01 -0.20 -2.98 10.75 -0.79 1.01 0.42 9452
0.04 -0.00 -0.14 -2.98 10.80 -0.78 1.03 0.32 9458
0.04 -0.00 -0.15 -2.89 10.94 -0.76 1.01 0.28 9464
0.05 -0.01 -0.17 -2.88 10.96 -0.73 0.96 0.26 9472
0.04 -0.00 -0.15 -2.91 11.06 -0.71 0.86 0.28 9478
0.05 -0.00 0.04 -2.84 11.12 -0.71 0.75 0.33 9484
0.06 -0.01 0.36 -2.77 11.08 -0.71 0.65 0.40 9490
0.05 -0.00 0.70 -2.85 10.77 -0.73 0.56 0.48 9496
0.03 -0.00 0.99 -2.97 10.51 -0.74 0.49 0.56 9502
0.04 0.00 1.28 -3.07 10.36 -0.74 0.46 0.62 9509
0.04 -0.00 1.40 -3.24 10.06 -0.73 0.46 0.68 9516
0.04 -0.00 1.52 -3.28 9.73 -0.70 0.46 0.72 9522
0.05 -0.00 1.56 -3.38 9.40 -0.65 0.48 0.74 9528
0.05 -0.01 1.48 -3.55 9.11 -0.58 0.50 0.74 9534
0.04 -0.00 1.52 -3.75 9.03 -0.48 0.53 0.72 9540
0.04 -0.00 1.64 -3.87 9.09 -0.34 0.59 0.69 9546
0.04 -0.00 1.68 -3.99 9.20 -0.25 0.67 0.65 9552
0.06 -0.00 1.60 -4.03 9.35 -0.13 0.75 0.62 9559
0.04 -0.00 1.40 -4.03 9.42 -0.03 0.83 0.57 9566
0.04 -0.00 0.99 -4.11 9.51 0.06 0.88 0.59 9572
0.04 -0.00 0.70 -4.03 9.81 0.14 0.87 0.61 9578
0.06 -0.01 0.46 -3.83 10.13 0.20 0.83 0.65 9584
0.04 -0.00 0.23 -3.53 10.40 0.23 0.77 0.71 9590
0.03 -0.00 -0.01 -3.33 10.56 0.24 0.71 0.78 9596
0.05 -0.00 -0.19 -3.22 10.54 0.22 0.64 0.85 9603
0.05 -0.00 -0.35 -2.45 10.41 0.18 0.57 0.91 9610
0.04 -0.00 -0.59 -3.00 10.13 0.14 0.51 0.97 9616
0.04 -0.00 -0.79 -2.92 9.85 0.11 0.45 1.02 9622
0.06 -0.01 -1.02 -2.96 9.34 0.10 0.41 1.06 9628
0.04 -0.00 -1.28 -2.94 8.83 0.11 0.38 1.10 9634
0.04 -0.00 -1.48 -2.95 8.56 0.14 0.37 1.13 9640
0.04 -0.00 -1.64 -3.08 8.49 0.20 0.37 1.17 9647
0.05 -0.01 -1.83 -3.20 8.43 0.27 0.37 1.19 9653
0.04 -0.00 -2.10 -3.26 8.43 0.33 0.37 1.23 9659
0.04 -0.00 -2.27 -3.39 8.38 0.38 0.38 1.26 9666
0.04 -0.00 -2.32 -3.64 8.34 0.42 0.39 1.29 9672
0.06 -0.01 -2.50 -3.72 8.44 0.46 0.39 1.34 9678
0.04 -0.00 -2.66 -3.54 8.40 0.50 0.34 1.40 9684
0.04 -0.00 -2.73 -3.31 8.35 0.54 0.31 1.47 9691
0.04 -0.00 -2.63 -2.99 8.37 0.58 0.22 1.54 9697
0.05 -0.01 -2.17 -2.72 8.50 0.59 0.13 1.63 9703
0.03 -0.00 -1.61 -2.47 8.68 0.58 0.08 1.73 9709
0.03 -0.00 -1.13 -2.30 8.52 0.55 0.07 1.84 9715
0.04 -0.00 -20.13 -7.30 20.50 0.89 -2.13 2.12 9722
0.05 -0.00 -15.54 -4.48 10.38 1.18 -3.73 2.68 9729
0.03 -0.00 -9.88 -2.31 1.13 0.93 -4.28 3.13 9735
0.04 0.01 -6.50 -6.89 4.23 0.74 -4.28 3.29 9741
0.05 0.02 -8.81 -6.27 11.97 0.65 -4.28 3.28 9747
0.04 0.10 0.83 23.41 31.63 1.90 -3.79 3.15 9754
0.04 0.30 -27.99 -15.41 38.36 1.17 -2.84 2.70 9760
0.03 0.45 -13.89 2.64 10.41 0.34 -1.68 1.60 9766
0.01 0.61 -13.96 -0.42 19.03 0.09 -0.92 0.66 9773
0.02 0.62 -5.17 1.17 11.36 -0.07 -0.24 -0.14 9780
0.02 0.59 -0.13 -0.40 9.40 0.07 -0.12 -0.23 9786
0.03 0.56 4.46 -0.80 10.63 0.18 -0.10 -0.05 9792
0.02 0.50 3.27 -0.66 9.99 0.14 -0.08 0.29 9798
0.03 0.41 1.82 -0.73 10.23 0.09 -0.09 0.43 9804
0.05 0.42 -0.05 -1.32 10.15 0.04 -0.16 0.40 9811
0.06 0.41 -0.08 -0.83 9.60 0.03 -0.11 0.32 9818
0.07 0.41 -0.22 -1.19 9.81 -0.00 -0.06 0.24 9824
0.09 0.48 0.20 -1.33 9.57 -0.04 -0.04 0.17 9830
0.08 0.49 0.65 -1.35 9.90 -0.07 -0.03 0.15 9836
0.09 0.50 0.50 -0.94 9.97 -0.10 -0.03 0.13 9842
0.10 0.59 0.53 -0.79 10.02 -0.11 -0.03 0.12 9849
0.09 0.62 0.67 -0.80 10.28 -0.10 -0.02 0.11 9856
0.09 0.63 0.66 -0.71 10.19 -0.08 -0.02 0.10 9862
0.08 0.67 0.80 -0.73 10.09 -0.05 -0.01 0.10 9868
0.10 0.73 0.75 -0.71 10.09 -0.04 -0.01 0.10 9874
0.10 0.73 0.73 -0.85 10.19 -0.04 -0.02 0.10 9881
0.11 0.74 0.83 -1.04 9.87 -0.05 -0.03 0.10 9887
0.11 0.76 0.76 -0.83 10.11 -0.05 -0.03 0.09 9893
0.10 0.81 0.72 -0.82 9.95 -0.05 -0.03 0.08 9900
0.10 0.85 0.73 -0.78 10.05 -0.05 -0.04 0.09 9906
0.11 0.90 0.70 -0.77 9.97 -0.04 -0.03 0.08 9912
0.11 0.86 0.72 -0.72 10.02 -0.04 -0.03 0.08 9919
0.10 0.89 0.74 -0.79 9.91 -0.04 -0.03 0.07 9925
0.11 0.88 0.68 -0.64 10.39 -0.04 -0.03 0.07 9931
0.10 0.85 0.73 -0.79 10.04 -0.04 -0.03 0.07 9937
0.10 0.87 0.72 -0.78 9.96 -0.03 -0.03 0.06 9944
0.12 0.83 0.72 -0.76 10.03 -0.03 -0.03 0.07 9951
0.10 0.83 0.68 -0.74 10.04 -0.03 -0.02 0.05 9957
0.10 0.85 0.73 -0.75 9.95 -0.03 -0.02 0.05 9963
0.11 0.86 0.72 -0.77 10.01 -0.03 -0.02 0.05 9969
0.10 0.84 0.77 -0.78 9.98 -0.02 -0.01 0.05 9975
0.10 0.84 0.78 -0.74 10.05 -0.02 -0.01 0.05 9981
0.13 0.81 0.78 -0.72 10.08 -0.02 -0.01 0.05 9989
0.12 0.81 0.73 -0.76 10.06 -0.01 -0.01 0.05 9995
0.12 0.83 0.74 -0.79 10.02 -0.01 -0.01 0.05 10001
0.14 0.81 0.75 -0.74 9.99 -0.02 -0.01 0.05 10007
0.14 0.79 0.76 -0.73 10.02 -0.01 -0.01 0.05 10013
0.14 0.77 0.74 -0.77 10.01 -0.01 -0.01 0.05 10020
0.15 0.74 0.74 -0.75 9.96 -0.01 -0.02 0.05 10027
0.13 0.75 0.74 -0.74 9.94 -0.01 -0.01 0.05 10033
0.13 0.77 0.75 -0.75 9.98 -0.01 -0.01 0.05 10039
0.13 0.72 0.76 -0.73 10.08 -0.01 -0.01 0.05 10045
0.11 0.70 0.74 -0.73 9.96 -0.00 -0.01 0.05 10052
0.13 0.70 0.78 -0.76 9.96 -0.01 -0.01 0.05 10058
0.11 0.64 0.80 -0.77 9.95 -0.01 -0.02 0.05 10064
0.12 0.67 0.80 -0.73 9.98 -0.01 -0.02 0.04 10071
0.12 0.67 0.79 -0.73 9.98 -0.01 -0.02 0.05 10077
0.12 0.67 0.80 -0.75 9.99 -0.01 -0.02 0.05 10084
0.11 0.63 0.79 -0.72 10.03 -0.01 -0.03 0.05 10090
0.13 0.63 0.76 -0.73 10.02 -0.01 -0.03 0.05 10096
0.12 0.61 0.75 -0.75 9.97 -0.01 -0.04 0.04 10102
0.12 0.61 0.77 -0.73 9.93 -0.01 -0.03 0.05 10109
0.13 0.57 0.72 -0.77 9.96 -0.01 -0.04 0.05 10116
0.13 0.58 0.77 -0.71 9.99 -0.01 -0.04 0.04 10122
0.13 0.60 0.75 -0.72 9.96 -0.01 -0.04 0.04 10128
0.14 0.59 0.74 -0.73 10.01 -0.01 -0.04 0.04 10134
0.12 0.54 0.74 -0.78 9.97 -0.01 -0.04 0.04 10141
0.15 0.57 0.75 -0.73 9.98 -0.01 -0.04 0.04 10147
0.13 0.55 0.72 -0.75 9.95 -0.01 -0.03 0.04 10153
0.12 0.51 0.78 -0.76 9.98 -0.01 -0.04 0.04 10160
0.15 0.52 0.75 -0.74 9.96 -0.02 -0.04 0.04 10166
0.13 0.50 0.77 -0.76 9.91 -0.02 -0.04 0.04 10173
0.12 0.51 0.77 -0.74 9.96 -0.02 -0.04 0.03 10179
0.13 0.51 0.74 -0.75 9.97 -0.02 -0.04 0.03 10185
0.12 0.51 0.73 -0.76 9.92 -0.02 -0.04 0.03 10191
0.11 0.50 0.74 -0.72 10.01 -0.02 -0.05 0.03 10198
0.13 0.52 0.73 -0.72 9.96 -0.02 -0.05 0.03 10205
0.13 0.47 0.78 -0.75 9.85 -0.01 -0.04 0.02 10211
0.11 0.47 0.75 -0.73 9.96 -0.01 -0.04 0.03 10217
0.12 0.45 0.76 -0.72 9.91 -0.00 -0.04 0.03 10223
0.12 0.43 0.77 -0.76 9.92 -0.01 -0.04 0.03 10229
0.12 0.43 0.72 -0.76 9.98 -0.01 -0.03 0.02 10236
0.12 0.43 0.72 -0.77 9.98 -0.01 -0.03 0.03 10243
0.11 0.42 0.75 -0.71 9.98 -0.01 -0.03 0.03 10249
0.12 0.41 0.75 -0.73 9.99 -0.01 -0.03 0.03 10255
0.13 0.34 0.75 -0.72 10.02 -0.00 -0.03 0.03 10261
0.13 0.35 0.75 -0.75 9.90 -0.00 -0.03 0.03 10268
0.14 0.38 0.79 -0.68 9.98 -0.01 -0.03 0.03 10274
0.15 0.37 0.80 -0.75 10.00 0.03 -0.02 0.03 10280
0.15 0.34 0.75 -0.71 9.95 0.00 -0.03 0.02 10287
0.17 0.33 0.73 -0.76 9.93 -0.00 -0.03 0.02 10293
0.17 0.33 0.76 -0.74 9.95 -0.00 -0.03 0.02 10300
0.17 0.32 0.75 -0.79 9.96 -0.00 -0.03 0.02 10306
0.18 0.34 0.77 -2.03 10.19 -0.00 -0.03 0.04 10312
0.20 0.30 0.73 -0.69 10.11 0.00 -0.03 0.03 10318
0.20 0.30 0.74 -0.72 9.98 0.00 -0.03 0.02 10324
0.19 0.30 0.73 -0.73 10.01 0.00 -0.03 0.02 10332
0.20 0.27 0.79 -0.76 9.99 -0.00 -0.03 0.03 10338
0.20 0.26 0.75 -0.76 9.96 0.00 -0.02 0.03 10344
0.22 0.27 0.75 -0.79 9.97 0.00 -0.02 0.02 10350
0.22 0.25 0.76 -0.74 9.97 0.00 -0.02 0.03 10356
0.23 0.23 0.80 -0.75 9.99 0.00 -0.03 0.03 10362
0.23 0.22 0.80 -0.75 9.95 0.03 -0.03 0.03 10370
0.21 0.23 0.80 -0.77 10.00 0.00 -0.03 0.03 10376
0.21 0.24 0.77 -0.77 9.88 -0.00 -0.04 0.03 10382
0.21 0.24 0.72 -0.76 10.01 -0.00 -0.04 0.03 10388
0.24 0.21 0.75 -0.77 9.89 -0.00 -0.04 0.03 10395
0.26 0.23 0.75 -0.74 9.99 -0.00 -0.03 0.03 10401
0.24 0.22 0.73 -0.76 10.00 0.00 -0.04 0.03 10407
0.24 0.21 0.80 -0.75 9.95 0.00 -0.04 0.07 10414
0.26 0.22 0.74 -0.76 9.98 0.00 -0.04 0.03 10420
0.28 0.18 0.77 -0.75 9.99 0.01 -0.04 0.03 10426
0.29 0.15 0.73 -0.73 9.99 0.01 -0.04 0.03 10433
0.29 0.16 0.76 -0.77 10.00 0.01 -0.03 0.03 10439
0.29 0.13 0.75 -0.78 10.02 0.01 -0.03 0.03 10445
0.28 0.10 0.77 -0.77 9.98 0.02 -0.04 0.03 10451
0.31 0.08 0.80 -0.76 10.02 0.03 -0.03 0.03 10459
0.30 0.07 0.78 -0.77 10.01 0.06 -0.04 0.03 10465
0.31 0.03 0.76 -0.81 10.04 0.04 -0.03 0.03 10471
0.33 0.04 0.78 -0.83 10.07 0.06 -0.03 0.03 10477
0.32 0.00 0.79 -0.85 10.07 0.07 -0.04 0.03 10483
0.34 0.01 0.83 -0.77 10.19 0.10 -0.04 0.03 10490
0.35 -0.02 0.81 -0.78 10.27 0.14 -0.04 0.02 10497
0.38 -0.02 0.91 -0.87 10.41 0.19 -0.04 0.02 10503
0.41 -0.04 0.89 -0.94 10.54 0.27 -0.05 0.00 10509
0.40 -0.03 1.02 -0.89 10.68 0.35 -0.10 -0.02 10516
0.41 -0.02 1.43 -0.99 10.97 0.46 -0.12 -0.07 10522
0.45 -0.02 2.43 -1.09 12.02 0.66 -0.18 -0.17 10528
0.48 -0.02 1.84 -1.46 13.69 1.09 -0.26 -0.32 10534
0.52 -0.03 2.60 -2.00 14.14 1.68 -0.37 -0.47 10542
0.55 -0.04 2.56 -1.71 14.20 2.08 -0.54 -0.59 10548
0.53 -0.02 4.91 -5.85 11.42 2.24 -0.74 -0.77 10554
0.58 -0.03 3.63 -2.11 13.83 2.36 -0.90 -0.85 10561
0.49 -0.02 3.99 -2.33 13.74 2.46 -1.13 -0.97 10567
0.48 -0.03 4.21 -2.77 13.38 2.52 -1.27 -1.11 10573
0.42 -0.02 5.35 -3.72 13.09 2.54 -1.34 -1.27 10579
0.44 -0.02 5.57 -4.16 13.20 2.53 -1.41 -1.47 10587
0.28 -0.02 6.34 -4.28 12.26 2.46 -1.34 -1.67 10593
0.18 -0.02 6.88 -4.44 10.28 2.29 -1.13 -1.89 10599
0.17 -0.02 7.26 -4.32 10.20 2.18 -0.84 -2.08 10605
0.13 -0.00 7.41 -4.26 13.08 2.02 -0.48 -2.29 10612
0.09 -0.00 7.52 -3.71 14.14 1.89 -0.25 -2.47 10618
0.07 -0.01 6.97 -4.05 14.33 1.76 -0.18 -2.65 10625
0.08 -0.00 7.43 -3.60 13.70 1.60 -0.20 -2.83 10631
0.07 -0.01 8.14 -3.26 12.14 1.39 -0.19 -3.07 10638
0.07 -0.01 7.43 -2.72 10.33 1.11 -0.20 -3.28 10644
0.06 -0.01 7.48 -0.84 9.61 0.81 -0.30 -3.51 10650
0.05 -0.01 7.32 1.05 9.14 0.50 -0.44 -3.72 10656
0.06 -0.01 7.63 3.95 9.18 0.17 -0.61 -3.94 10662
0.07 -0.01 9.14 6.24 8.41 -0.21 -0.77 -4.07 10670
0.05 -0.00 9.98 10.04 6.93 -0.62 -0.90 -4.07 10676
0.03 -0.00 10.96 7.40 5.23 -0.99 -0.79 -3.83 10682
0.06 -0.01 10.00 3.74 7.79 -1.29 -0.45 -3.44 10688
0.05 -0.00 10.62 3.10 9.41 -1.55 -0.02 -3.05 10694
0.05 -0.00 10.54 3.99 7.67 -1.72 0.26 -2.68 10701
0.07 -0.01 9.78 3.74 6.30 -1.64 0.37 -2.38 10707
0.05 -0.01 9.13 2.93 4.51 -1.50 0.45 -2.11 10714
0.05 -0.00 8.84 2.28 4.04 -1.34 0.55 -1.88 10720
0.07 -0.01 8.89 1.86 4.78 -1.13 0.76 -1.69 10726
0.05 -0.01 9.07 1.62 5.58 -0.91 1.09 -1.50 10732
0.04 -0.00 8.93 1.35 6.64 -0.68 1.50 -1.32 10738
0.05 0.00 8.15 1.20 7.28 -0.50 1.90 -1.15 10745
0.04 -0.00 6.96 1.21 7.95 -0.37 2.23 -1.00 10752
0.04 -0.00 5.84 1.23 8.82 -0.28 2.43 -0.86 10758
0.04 -0.00 4.87 1.05 9.82 -0.26 2.52 -0.73 10764
0.05 -0.01 4.21 0.66 10.65 -0.25 2.54 -0.61 10770
0.04 -0.00 3.46 0.27 11.32 -0.25 2.54 -0.48 10777
0.04 0.00 2.68 -0.01 11.88 -0.28 2.51 -0.35 10783
0.05 -0.00 2.09 -0.11 12.38 -0.32 2.46 -0.21 10789
0.04 -0.00 1.34 -0.18 12.74 -0.38 2.42 -0.06 10796
0.04 -0.00 0.43 -0.29 12.96 -0.44 2.37 0.05 10802
0.04 -0.00 -0.24 -0.53 13.28 -0.51 2.32 0.17 10809
0.03 -0.00 -0.85 -0.82 13.69 -0.58 2.24 0.27 10815
0.04 -0.00 -1.33 -1.06 13.89 -0.66 2.15 0.35 10821
0.05 -0.00 -1.94 -1.27 13.82 -0.73 2.07 0.44 10827
0.04 -0.00 -2.40 -1.44 13.50 -0.78 1.98 0.51 10833
0.05 -0.01 -2.81 -1.78 13.21 -0.81 1.90 0.56 10841
0.04 -0.00 -3.07 -2.26 12.77 -0.81 1.81 0.59 10847
0.04 -0.00 -3.16 -2.73 12.52 -0.80 1.74 0.60 10853
0.05 -0.01 -3.22 -3.04 12.38 -0.77 1.66 0.59 10859
0.04 -0.00 -3.24 -3.13 12.29 -0.71 1.59 0.59 10865
0.05 -0.00 -3.27 -3.08 12.25 -0.65 1.53 0.61 10872
0.05 -0.00 -3.23 -3.01 12.16 -0.60 1.42 0.66 10878
0.04 -0.00 -3.00 -3.01 12.25 -0.56 1.30 0.72 10885
0.04 0.00 -2.65 -3.09 12.30 -0.53 1.12 0.79 10891
0.04 -0.00 -2.11 -3.24 12.35 -0.51 0.93 0.85 10898
0.03 -0.00 -1.45 -3.53 12.30 -0.50 0.77 0.91 10904
0.04 -0.00 -0.79 -3.66 12.03 -0.50 0.65 0.97 10910
0.04 -0.00 -0.15 -3.75 11.57 -0.50 0.56 1.01 10916
0.03 -0.00 0.32 -3.76 10.94 -0.49 0.51 1.05 10923
0.05 -0.00 0.58 -3.78 10.56 -0.46 0.50 1.09 10929
0.04 -0.00 0.57 -3.71 10.28 -0.40 0.50 1.13 10936
0.04 -0.00 0.46 -3.69 10.06 -0.33 0.48 1.17 10942
0.05 -0.01 0.40 -3.57 9.80 -0.25 0.46 1.21 10948
0.04 -0.00 0.26 -3.47 9.65 -0.18 0.44 1.23 10954
0.03 -0.00 0.15 -3.42 9.51 -0.11 0.43 1.25 10960
0.04 -0.00 0.15 -3.36 9.44 -0.04 0.43 1.27 10967
0.04 -0.00 0.10 -3.21 9.40 0.03 0.42 1.27 10974
0.04 -0.00 0.17 -2.95 9.40 0.09 0.39 1.29 10980
0.04 -0.00 0.34 -2.62 9.43 0.12 0.33 1.31 10986
0.05 -0.01 0.59 -2.33 9.49 0.15 0.26 1.34 10992
0.03 -0.00 0.94 -2.20 9.49 0.16 0.20 1.38 10998
0.02 -0.00 1.27 -2.19 9.49 0.16 0.17 1.42 11004
0.04 0.00 1.51 -2.25 9.30 0.17 0.17 1.46 11011
0.04 -0.00 1.61 -2.28 9.18 0.18 0.19 1.48 11018
0.03 -0.00 1.74 -2.45 9.14 0.19 0.23 1.49 11024
0.03 -0.00 1.85 -2.48 9.23 0.19 0.28 1.49 11030
0.04 -0.00 1.73 -2.55 9.24 0.20 0.33 1.48 11036
0.03 -0.00 1.48 -2.63 9.25 0.18 0.40 1.46 11042
0.03 -0.00 1.07 -2.77 9.19 0.16 0.47 1.45 11048
0.05 -0.00 0.54 -2.99 9.22 0.13 0.51 1.44 11055
0.04 -0.00 0.02 -3.21 9.18 0.12 0.51 1.44 11062
0.03 -0.00 -0.50 -3.50 8.97 0.12 0.49 1.45 11068
0.04 0.00 -0.93 -3.79 8.78 0.14 0.46 1.46 11074
0.04 -0.00 -1.45 -4.05 8.41 0.17 0.43 1.47 11080
0.04 -0.00 -1.87 -4.39 8.38 0.23 0.40 1.49 11086
0.04 -0.00 -2.22 -4.67 8.38 0.29 0.39 1.50 11092
0.05 -0.01 -2.51 -4.86 8.42 0.36 0.36 1.51 11100
0.04 -0.00 -2.75 -4.91 8.43 0.42 0.32 1.53 11106
0.04 -0.00 -2.84 -4.90 8.35 0.47 0.27 1.56 11112
0.05 -0.01 -7.35 -7.73 12.42 0.54 -0.17 1.62 11118
0.04 -0.00 -16.02 -8.02 17.09 1.14 -2.67 1.95 11124
0.04 -0.00 -8.57 -3.79 6.27 0.92 -3.17 2.20 11131
0.05 -0.00 -6.62 -4.66 5.70 0.80 -3.75 2.35 11138
0.05 -0.00 -9.12 -9.45 9.20 0.69 -4.27 2.42 11144
0.03 -0.00 -11.78 -10.97 9.52 0.55 -4.28 2.46 11150
0.04 0.00 -11.08 -9.01 8.86 0.55 -4.28 2.46 11156
0.04 0.07 -5.08 16.43 29.75 1.03 -4.23 2.31 11163
0.05 0.21 -17.87 -12.87 26.55 1.62 -2.30 2.19 11169
0.02 0.36 -13.64 4.49 18.65 0.71 -2.18 1.39 11175
0.02 0.49 -8.55 -2.03 18.52 0.16 -1.11 0.51 11183
0.02 0.55 -3.21 0.35 10.09 -0.08 -0.19 -0.05 11189
0.01 0.61 0.93 0.20 9.59 -0.00 -0.07 -0.14 11195
0.04 0.56 3.92 -0.83 9.72 0.11 -0.20 0.06 11201
0.01 0.49 2.98 -0.15 9.64 0.14 -0.16 0.35 11208
0.04 0.47 1.41 -1.37 10.65 0.07 -0.10 0.47 11214
0.04 0.44 -1.08 -1.21 9.87 0.01 -0.13 0.30 11220
0.04 0.48 0.74 -0.72 9.73 -0.00 -0.12 0.20 11227
0.05 0.48 1.13 -1.48 9.92 -0.03 -0.08 0.19 11233
0.06 0.52 0.41 -1.49 10.21 -0.06 -0.06 0.15 11240
0.08 0.51 0.59 -1.13 9.86 -0.08 -0.06 0.11 11246
0.10 0.58 0.60 -0.77 10.04 -0.10 -0.06 0.10 11252
0.10 0.67 0.67 -0.76 9.97 -0.10 -0.05 0.09 11258
0.09 0.72 0.62 -0.68 10.16 -0.08 -0.04 0.08 11266
0.10 0.80 0.57 -0.56 9.96 -0.06 -0.03 0.08 11272
0.11 0.77 0.60 -0.65 9.95 -0.04 -0.01 0.08 11278
0.12 0.83 0.68 -0.68 9.86 -0.04 -0.00 0.08 11284
0.11 0.89 0.74 -0.75 10.06 -0.04 -0.00 0.08 11290
0.08 0.90 0.75 -0.81 10.04 -0.04 -0.01 0.07 11297
0.12 0.92 0.78 -0.80 10.07 -0.05 -0.02 0.07 11303
0.13 0.93 0.84 -0.76 10.09 -0.04 -0.03 0.07 11310
0.11 0.93 0.82 -0.75 10.11 -0.04 -0.03 0.06 11316
0.11 0.92 0.73 -0.72 10.04 -0.03 -0.03 0.06 11323
0.09 0.91 0.71 -0.69 10.03 -0.03 -0.03 0.06 11329
0.11 0.90 0.75 -0.73 10.05 -0.03 -0.03 0.06 11335
0.11 0.87 0.78 -0.73 10.04 -0.02 -0.03 0.06 11341
0.11 0.88 0.75 -0.65 10.24 -0.02 -0.04 0.06 11348
0.11 0.87 0.74 -0.72 10.07 -0.02 -0.04 0.05 11355
0.09 0.89 0.74 -0.71 10.01 -0.02 -0.04 0.05 11361
0.09 0.91 0.75 -0.70 10.04 -0.02 -0.04 0.05 11367
0.09 0.91 0.75 -0.66 9.98 -0.02 -0.04 0.05 11373
0.08 0.91 0.74 -0.71 10.06 -0.01 -0.05 0.05 11380
0.11 0.91 0.75 -0.71 10.02 -0.01 -0.05 0.05 11386
0.09 0.90 0.73 -0.70 10.02 -0.01 -0.06 0.04 11393
0.09 0.90 0.75 -0.70 10.04 -0.01 -0.05 0.04 11399
0.10 0.88 0.71 -0.68 9.99 -0.01 -0.06 0.04 11406
0.10 0.86 0.73 -0.65 9.97 -0.01 -0.05 0.04 11412
0.10 0.84 0.68 -0.73 10.05 -0.01 -0.06 0.04 11418
0.11 0.82 0.69 -0.69 9.97 -0.01 -0.05 0.04 11424
0.10 0.79 0.73 -0.69 10.01 -0.00 -0.05 0.04 11430
0.12 0.81 0.69 -0.73 10.02 -0.00 -0.05 0.04 11438
0.11 0.80 0.72 -0.69 9.98 -0.01 -0.05 0.04 11444
0.10 0.77 0.75 -0.71 9.99 -0.00 -0.05 0.04 11450
0.12 0.72 0.73 -0.72 9.89 -0.01 -0.04 0.04 11456
0.12 0.71 0.73 -0.68 10.00 -0.01 -0.04 0.04 11462
0.11 0.73 0.72 -0.69 10.00 -0.01 -0.04 0.04 11469
0.10 0.71 0.70 -0.67 10.00 -0.01 -0.04 0.04 11475
0.11 0.64 0.71 -0.71 10.01 -0.01 -0.04 0.03 11482
0.12 0.64 0.75 -0.68 10.05 -0.00 -0.04 0.04 11488
0.12 0.61 0.72 -0.68 9.97 -0.00 -0.04 0.04 11495
0.12 0.61 0.70 -0.70 9.99 0.00 -0.04 0.04 11501
0.14 0.58 0.71 -0.72 9.96 0.00 -0.04 0.04 11507
0.14 0.53 0.74 -0.69 9.96 -0.00 -0.04 0.04 11513
0.13 0.52 0.72 -0.68 9.97 -0.00 -0.04 0.03 11520
0.14 0.48 0.70 -0.68 10.00 -0.00 -0.04 0.04 11527
0.14 0.45 0.68 -0.77 9.99 -0.00 -0.04 0.03 11533
0.14 0.46 0.69 -0.68 9.97 -0.00 -0.04 0.03 11539
0.15 0.45 0.72 -0.69 9.94 0.00 -0.04 0.04 11545
0.15 0.40 0.68 -0.66 9.87 -0.00 -0.04 0.04 11551
0.15 0.39 0.72 -0.68 9.95 -0.00 -0.03 0.03 11558
0.16 0.39 0.71 -0.68 10.00 -0.01 -0.03 0.04 11565
0.15 0.34 0.72 -0.65 9.97 -0.00 -0.03 0.03 11571
0.17 0.37 0.73 -0.65 9.98 -0.01 -0.03 0.04 11577
0.18 0.34 0.71 -0.69 9.97 -0.01 -0.03 0.03 11583
0.18 0.36 0.71 -0.69 9.97 -0.01 -0.02 0.04 11590
0.19 0.38 0.70 -0.68 9.96 -0.01 -0.02 0.04 11596
0.19 0.33 0.75 -0.65 9.94 -0.01 -0.02 0.04 11602
0.20 0.33 0.73 -0.68 10.01 -0.01 -0.02 0.04 11609
0.21 0.35 0.72 -0.68 10.01 -0.01 -0.02 0.04 11615
0.21 0.32 0.73 -0.67 9.98 -0.00 -0.02 0.04 11622
0.21 0.30 0.70 -0.66 9.98 -0.00 -0.02 0.04 11628
0.22 0.30 0.73 -0.71 9.95 -0.00 -0.03 0.04 11634
0.22 0.28 0.75 -0.70 9.94 -0.01 -0.03 0.04 11640
0.22 0.32 0.73 -0.68 9.98 -0.01 -0.03 0.04 11646
0.25 0.35 0.73 -0.73 10.03 -0.01 -0.03 0.04 11654
0.24 0.32 0.70 -0.72 9.95 -0.01 -0.03 0.03 11660
0.24 0.30 0.69 -0.71 10.01 -0.01 -0.03 0.03 11666
0.25 0.33 0.73 -0.64 9.98 -0.01 -0.03 0.03 11672
0.25 0.32 0.79 -0.71 10.00 -0.01 -0.03 0.03 11678
0.24 0.32 0.73 -0.70 10.00 -0.01 -0.03 0.03 11685
0.25 0.31 0.77 -0.72 10.03 -0.01 -0.04 0.03 11692
0.25 0.28 0.75 -0.68 9.98 -0.01 -0.04 0.03 11698
0.25 0.31 0.76 -0.66 10.03 -0.01 -0.04 0.03 11704
0.25 0.31 0.77 -0.69 9.97 -0.01 -0.04 0.03 11711
0.24 0.33 0.74 -0.68 9.99 -0.00 -0.04 0.03 11717
0.27 0.34 0.68 -0.68 10.03 -0.01 -0.04 0.03 11723
0.25 0.29 0.72 -0.67 9.98 -0.00 -0.04 0.02 11729
0.24 0.30 0.69 -0.72 9.98 -0.01 -0.04 0.03 11736
0.26 0.30 0.64 -0.69 10.00 -0.00 -0.04 0.02 11743
0.26 0.31 0.75 -0.71 9.99 -0.00 -0.04 0.02 11749
0.27 0.32 0.72 -0.71 9.99 0.00 -0.04 0.02 11755
0.28 0.28 0.74 -0.68 10.03 0.00 -0.04 0.02 11761
0.29 0.26 0.75 -0.65 9.97 0.00 -0.04 0.02 11767
0.31 0.26 0.77 -0.71 10.01 0.00 -0.04 0.02 11774
0.31 0.22 0.72 -0.70 10.00 0.01 -0.04 0.02 11781
0.30 0.20 0.77 -0.71 9.99 0.01 -0.04 0.02 11787
0.32 0.22 0.70 -0.72 9.97 0.00 -0.04 0.02 11793
0.32 0.21 0.67 -0.71 10.03 0.00 -0.04 0.02 11799
0.32 0.16 0.71 -0.71 9.98 0.00 -0.04 0.01 11806
0.36 0.18 0.72 -0.73 10.04 0.01 -0.04 0.01 11812
0.36 0.15 0.74 -0.71 10.04 0.01 -0.04 0.02 11819
0.34 0.15 0.73 -0.73 10.01 0.02 -0.04 0.01 11825
0.35 0.14 0.72 -0.70 10.04 0.02 -0.04 0.01 11832
0.35 0.11 0.77 -0.74 10.05 0.03 -0.04 0.01 11838
0.34 0.11 0.75 -0.68 10.12 0.03 -0.04 0.01 11844
0.36 0.07 0.74 -0.74 10.08 0.05 -0.04 0.01 11850
0.36 0.05 0.74 -0.75 10.09 0.06 -0.05 0.01 11857
0.38 0.05 0.75 -0.73 10.16 0.08 -0.05 0.01 11864
0.43 0.01 0.80 -0.74 10.34 0.12 -0.05 0.00 11870
0.44 0.02 0.74 -0.69 10.40 0.18 -0.06 0.00 11876
0.43 -0.02 0.97 -0.86 10.48 0.23 -0.09 -0.01 11882
0.46 -0.02 1.05 -0.83 10.65 0.29 -0.12 -0.03 11889
0.49 -0.02 1.16 -0.86 10.97 0.38 -0.17 -0.07 11895
0.51 -0.04 1.71 -1.10 11.44 0.51 -0.26 -0.14 11901
0.51 -0.02 2.70 -1.36 12.14 0.74 -0.35 -0.28 11909
0.53 -0.03 3.86 -1.69 13.94 1.15 -0.48 -0.51 11915
0.56 -0.03 4.92 -2.27 14.73 1.67 -0.71 -0.74 11921
0.56 -0.03 3.65 -2.25 14.32 1.92 -1.11 -0.94 11927
0.51 -0.03 4.30 -2.80 13.42 1.96 -1.36 -1.10 11934
0.49 -0.02 5.26 -3.44 13.61 1.98 -1.49 -1.31 11940
0.42 -0.04 5.84 -3.88 12.85 2.04 -1.56 -1.54 11947
0.41 -0.01 6.30 -3.89 12.19 2.05 -1.57 -1.79 11953
0.38 -0.02 5.94 -4.40 11.28 2.03 -1.48 -2.05 11960
0.28 -0.02 6.50 -4.43 11.14 1.97 -1.35 -2.30 11966
0.21 -0.02 7.73 -4.11 11.45 1.88 -1.17 -2.55 11972
0.19 -0.02 8.29 -4.27 12.00 1.76 -0.94 -2.81 11979
0.15 -0.00 7.33 -3.67 11.91 1.62 -0.71 -3.04 11985
0.07 -0.01 6.80 -3.91 13.58 1.47 -0.54 -3.23 11992
0.08 -0.01 7.81 -2.49 13.17 1.31 -0.44 -3.38 11998
0.07 -0.01 6.82 -1.82 13.29 1.10 -0.52 -3.51 12004
0.06 -0.01 7.51 -0.75 12.47 0.87 -0.78 -3.64 12011
0.07 -0.00 6.10 -0.21 11.82 0.61 -1.10 -3.77 12017
0.06 -0.01 6.79 1.11 10.68 0.32 -1.49 -3.90 12023
0.04 -0.00 7.95 3.54 9.58 0.01 -1.81 -3.88 12029
0.04 -0.00 9.79 5.37 7.84 -0.19 -1.83 -3.63 12036
0.05 -0.00 11.11 3.95 6.43 -0.38 -1.53 -3.03 12043
0.04 -0.00 12.63 1.95 7.52 -0.43 -0.78 -2.31 12049
0.05 0.00 14.64 1.92 9.90 -0.55 -0.23 -1.80 12055
0.05 -0.01 13.69 2.44 8.40 -0.73 0.21 -1.47 12061
0.04 -0.00 11.65 2.69 7.23 -0.76 0.50 -1.22 12068
0.06 -0.01 9.42 2.96 6.24 -0.74 0.79 -1.00 12075
0.04 -0.00 7.78 3.12 5.81 -0.65 1.05 -0.82 12081
0.03 -0.00 6.73 2.99 6.05 -0.53 1.22 -0.65 12087
0.04 0.00 5.98 2.88 6.63 -0.39 1.34 -0.56 12093
0.04 -0.00 5.45 2.77 7.49 -0.28 1.47 -0.54 12099
0.04 -0.00 4.96 2.85 8.53 -0.23 1.62 -0.56 12105
0.05 0.00 4.23 3.00 9.52 -0.22 1.79 -0.61 12112
0.05 -0.00 3.34 2.97 10.20 -0.28 1.92 -0.69 12119
0.04 -0.00 2.37 2.70 10.56 -0.38 1.97 -0.79 12125
0.05 0.00 1.43 2.29 10.80 -0.50 1.93 -0.89 12131
0.05 -0.00 0.80 1.85 11.15 -0.62 1.83 -1.01 12138
0.03 -0.00 0.52 1.39 11.21 -0.70 1.71 -1.10 12144
0.05 -0.01 0.54 0.93 11.43 -0.77 1.64 -1.20 12150
0.04 -0.00 0.76 0.57 11.53 -0.81 1.64 -1.22 12156
0.03 -0.00 0.95 0.26 11.52 -0.85 1.70 -1.27 12163
0.05 -0.00 0.87 -0.04 11.43 -0.89 1.79 -1.30 12170
0.03 -0.00 0.45 -0.31 11.52 -0.92 1.87 -1.32 12176
0.03 -0.00 0.02 -0.74 11.61 -0.93 1.93 -1.33 12182
0.05 -0.00 -0.46 -1.17 11.68 -0.92 1.94 -1.33 12188
0.04 -0.00 -0.94 -1.52 11.56 -0.90 1.92 -1.32 12194
0.03 -0.00 -1.26 -2.01 11.48 -0.87 1.88 -1.29 12201
0.04 -0.00 -1.57 -2.50 11.27 -0.77 1.83 -1.26 12208
0.04 -0.00 -1.90 -2.98 11.17 -0.73 1.78 -1.23 12214
0.04 -0.00 -2.05 -3.51 11.30 -0.61 1.74 -1.19 12220
0.04 -0.00 -2.06 -3.83 11.29 -0.49 1.67 -1.16 12226
0.03 -0.00 -2.11 -4.15 11.35 -0.36 1.64 -1.10 12233
0.04 -0.00 -2.19 -4.18 11.41 -0.23 1.64 -1.01 12239
0.04 -0.00 -2.43 -4.06 11.44 -0.11 1.58 -0.88 12246
0.03 -0.00 -2.50 -3.77 11.21 -0.01 1.48 -0.72 12252
0.04 -0.00 -2.90 -3.65 11.26 0.08 1.33 -0.53 12258
0.04 -0.00 -3.14 -3.50 11.32 0.17 1.21 -0.32 12265
0.04 -0.00 -3.16 -3.14 11.70 0.25 1.06 -0.05 12271
0.05 -0.00 -3.15 -2.70 11.94 0.29 0.93 0.23 12277
0.04 -0.00 -3.18 -2.34 11.84 0.29 0.78 0.51 12283
0.04 -0.00 -3.37 -2.11 11.78 0.26 0.62 0.79 12290
0.05 -0.01 -3.50 -1.95 11.59 0.22 0.44 1.05 12297
0.05 -0.00 -3.51 -1.92 11.07 0.17 0.25 1.28 12303
0.04 -0.00 -3.28 -1.95 10.62 0.10 0.05 1.45 12309
0.05 -0.00 -2.86 -2.10 10.24 0.11 -0.12 1.58 12315
0.05 -0.00 -2.35 -2.32 9.95 0.11 -0.23 1.65 12321
0.04 -0.00 -1.73 -2.52 9.86 0.12 -0.25 1.67 12328
0.05 -0.00 -1.09 -2.64 9.79 0.12 -0.21 1.65 12335
0.04 -0.00 -0.68 -2.76 9.79 0.12 -0.12 1.57 12341
0.03 -0.00 -0.35 -2.75 9.70 0.11 -0.00 1.53 12347
0.05 -0.01 -0.13 -2.69 9.76 0.08 0.12 1.44 12353
0.04 -0.00 -0.01 -2.47 9.73 0.04 0.20 1.36 12359
0.04 -0.00 -0.01 -2.21 9.49 -0.00 0.23 1.31 12365
0.04 -0.00 -0.01 -1.94 9.18 -0.04 0.23 1.28 12372
0.04 -0.00 0.06 -1.68 8.82 -0.08 0.22 1.28 12379
0.04 -0.00 0.20 -1.43 8.50 -0.12 0.21 1.30 12385
0.04 -0.00 0.43 -1.31 8.24 -0.14 0.20 1.37 12391
0.04 -0.00 0.77 -1.26 8.19 -0.16 0.21 1.38 12397
0.04 -0.00 0.99 -1.31 8.33 -0.15 0.27 1.42 12403
0.03 -0.00 1.30 -1.44 8.67 -0.15 0.38 1.46 12409
0.04 -0.00 1.26 -1.62 8.81 -0.15 0.49 1.50 12417
0.04 -0.00 1.01 -1.81 8.97 -0.15 0.59 1.54 12423
0.04 -0.00 0.61 -2.14 9.13 -0.16 0.66 1.58 12429
0.04 -0.00 0.23 -2.48 9.17 -0.16 0.68 1.62 12435
0.05 -0.01 -0.10 -2.83 9.32 -0.13 0.65 1.65 12441
0.04 -0.00 -0.37 -3.18 9.29 -0.11 0.59 1.69 12447
0.03 -0.00 -0.57 -3.46 8.61 -0.08 0.54 1.72 12453
0.04 -0.00 -0.68 -3.75 9.11 -0.04 0.51 1.76 12461
0.04 -0.00 -0.89 -3.98 9.15 0.02 0.49 1.79 12467
0.04 -0.00 -1.05 -4.25 9.22 0.09 0.50 1.82 12473
0.04 -0.00 -1.28 -4.51 9.24 0.16 0.50 1.85 12479
0.05 -0.00 -1.60 -4.69 9.22 0.24 0.49 1.88 12485
0.04 -0.00 -13.70 -8.79 21.79 0.55 -0.40 2.07 12491
0.04 -0.00 -14.04 -3.84 11.02 0.90 -2.76 2.51 12498
0.04 -0.00 -5.99 -2.02 3.75 0.57 -3.20 2.70 12505
0.04 -0.00 -3.11 -4.29 7.31 0.47 -3.52 2.81 12511
0.04 -0.00 -8.50 -6.90 11.96 0.40 -3.86 2.89 12517
0.04 -0.00 -11.00 -4.77 12.92 0.50 -3.99 3.11 12523
0.04 0.01 -7.00 8.77 22.75 1.03 -3.07 3.41 12530
0.04 0.07 -5.08 1.15 9.92 1.13 -1.48 3.53 12536
0.03 0.12 -12.55 1.41 12.86 1.18 -1.39 3.68 12542
0.03 0.19 -21.28 -2.29 21.02 0.92 -1.54 3.34 12550
0.03 0.31 -20.01 -0.95 14.27 0.44 -1.50 2.32 12556
0.02 0.30 -15.93 -2.50 16.32 0.35 -0.90 1.20 12562
0.03 0.35 -9.06 -1.82 10.38 0.05 -0.14 0.06 12568
0.02 0.31 -1.74 -0.18 9.90 0.02 -0.03 -0.30 12575
0.04 0.33 2.38 -0.48 9.20 0.03 -0.02 -0.27 12581
0.03 0.25 4.88 -1.08 9.61 0.04 -0.15 0.02 12588
0.03 0.24 3.21 -0.04 9.03 0.07 -0.11 0.35 12594
0.04 0.31 1.36 -0.91 10.53 0.04 -0.11 0.50 12600
0.03 0.29 -0.77 -1.13 10.44 -0.01 -0.10 0.40 12607
0.04 0.29 -0.64 -1.74 10.23 -0.03 -0.09 0.20 12613
0.04 0.31 0.66 -1.10 9.98 -0.04 -0.06 0.14 12619
0.05 0.33 0.58 -0.72 9.81 -0.07 -0.04 0.16 12625
0.07 0.42 0.27 -1.27 9.91 -0.10 -0.03 0.16 12633
0.07 0.46 0.39 -0.98 9.94 -0.11 -0.03 0.13 12639
0.06 0.54 0.61 -0.84 10.23 -0.12 -0.03 0.11 12645
0.07 0.53 0.52 -0.81 10.21 -0.10 -0.04 0.10 12651
0.08 0.53 0.54 -0.77 10.13 -0.09 -0.03 0.09 12658
0.06 0.54 0.51 -0.66 10.06 -0.07 -0.03 0.09 12664
0.08 0.60 0.53 -0.80 10.11 -0.06 -0.04 0.09 12670
0.07 0.64 0.54 -0.83 10.09 -0.06 -0.04 0.09 12677
0.08 0.65 0.59 -0.87 10.15 -0.06 -0.04 0.09 12683
0.07 0.65 0.54 -0.81 10.00 -0.06 -0.05 0.10 12690
0.07 0.63 0.58 -0.85 9.97 -0.06 -0.05 0.10 12696
0.09 0.69 0.67 -0.81 10.03 -0.06 -0.05 0.10 12702
0.06 0.71 0.61 -0.85 10.00 -0.06 -0.05 0.10 12708
0.07 0.75 0.60 -0.79 10.08 -0.05 -0.06 0.09 12716
0.08 0.73 0.64 -0.78 10.00 -0.04 -0.05 0.08 12722
0.07 0.73 0.64 -0.75 10.10 -0.04 -0.05 0.08 12728
0.12 0.73 0.68 -0.80 10.00 -0.04 -0.05 0.08 12734
0.12 0.70 0.53 -0.76 9.82 -0.03 -0.05 0.07 12741
0.13 0.72 0.57 -0.80 10.07 -0.03 -0.05 0.06 12747
0.15 0.72 0.62 -0.82 10.08 -0.03 -0.05 0.06 12753
0.15 0.68 0.59 -0.76 10.00 -0.03 -0.05 0.06 12760
0.14 0.70 0.58 -0.74 9.98 -0.03 -0.05 0.05 12766
0.15 0.68 0.60 -0.78 10.00 -0.03 -0.05 0.05 12773
0.13 0.67 0.59 -0.76 10.03 -0.03 -0.04 0.05 12779
0.14 0.69 0.63 -0.75 10.03 -0.03 -0.04 0.05 12785
0.15 0.65 0.62 -0.76 10.09 -0.02 -0.04 0.06 12791
0.15 0.68 0.62 -0.72 10.04 -0.02 -0.04 0.05 12798
0.16 0.67 0.65 -0.75 10.00 -0.01 -0.04 0.06 12805
0.14 0.68 0.56 -0.73 10.01 -0.02 -0.04 0.06 12811
0.15 0.70 0.61 -0.77 10.01 -0.02 -0.05 0.06 12817
0.15 0.70 0.57 -0.75 10.02 -0.02 -0.04 0.05 12824
0.13 0.75 0.64 -0.75 10.03 -0.02 -0.05 0.05 12830
0.14 0.75 0.62 -0.75 10.01 -0.01 -0.04 0.05 12836
0.13 0.72 0.58 -0.73 9.98 -0.01 -0.04 0.05 12843
0.13 0.72 0.58 -0.75 9.97 -0.01 -0.04 0.05 12849
0.13 0.73 1.20 -0.73 10.05 -0.01 -0.04 0.05 12856
0.11 0.72 0.60 -0.73 10.01 -0.01 -0.04 0.04 12862
0.12 0.69 0.59 -0.74 9.99 -0.01 -0.04 0.04 12868
0.13 0.67 0.59 -0.73 9.99 -0.00 -0.04 0.05 12874
0.11 0.66 0.58 -0.74 9.96 -0.01 -0.04 0.04 12881
0.14 0.68 0.62 -0.74 9.97 -0.01 -0.04 0.04 12888
0.12 0.68 0.60 -0.74 10.01 -0.01 -0.04 0.04 12894
0.12 0.69 0.60 -0.77 9.99 -0.01 -0.04 0.04 12900
0.14 0.68 0.61 -0.74 10.01 -0.01 -0.04 0.04 12906
0.12 0.66 0.60 -0.73 9.98 -0.01 -0.04 0.04 12913
0.12 0.65 0.58 -0.72 10.01 -0.01 -0.04 0.04 12919
0.12 0.66 0.58 -0.74 10.00 -0.02 -0.05 0.04 12925
0.10 0.66 0.62 -0.71 9.97 -0.02 -0.05 0.04 12932
0.11 0.71 0.58 -0.73 10.00 -0.01 -0.05 0.04 12938
0.12 0.69 0.61 -0.72 9.94 -0.01 -0.04 0.04 12945
0.11 0.67 0.60 -0.72 9.99 -0.01 -0.05 0.04 12951
0.12 0.67 0.55 -0.73 9.95 -0.01 -0.05 0.04 12957
0.12 0.65 0.61 -0.68 9.99 -0.01 -0.04 0.04 12963
0.11 0.66 0.58 -0.72 9.97 -0.01 -0.05 0.04 12969
0.12 0.66 0.60 -0.74 9.95 -0.01 -0.05 0.04 12977
0.12 0.65 0.56 -0.72 9.98 -0.01 -0.05 0.04 12983
0.12 0.63 0.60 -0.76 10.00 -0.01 -0.06 0.04 12989
0.14 0.63 0.56 -0.72 10.03 -0.01 -0.06 0.03 12995
0.13 0.63 0.53 -0.74 9.98 -0.01 -0.06 0.03 13001
0.13 0.67 0.52 -0.72 10.00 -0.01 -0.06 0.03 13008
0.14 0.66 0.55 -0.72 9.98 -0.01 -0.07 0.03 13015
0.16 0.66 0.54 -0.72 9.95 -0.01 -0.06 0.03 13021
0.17 0.67 0.50 -0.71 9.99 -0.01 -0.06 0.03 13027
0.17 0.67 0.55 -0.74 9.99 -0.01 -0.06 0.03 13033
0.18 0.65 0.54 -0.72 9.97 -0.01 -0.06 0.03 13040
0.19 0.68 0.48 -0.75 9.98 -0.01 -0.06 0.04 13046
0.19 0.68 0.53 -0.73 9.99 -0.01 -0.05 0.03 13052
0.20 0.66 0.55 -0.72 9.99 -0.01 -0.06 0.03 13059
0.26 0.70 0.51 -0.72 9.97 -0.00 -0.05 0.03 13065
0.25 0.72 0.51 -0.72 9.99 -0.00 -0.05 0.03 13072
0.25 0.70 0.54 -0.69 9.98 -0.00 -0.05 0.03 13078
0.24 0.71 0.56 -0.74 10.00 -0.00 -0.05 0.03 13084
0.27 0.66 0.50 -0.70 9.97 0.00 -0.05 0.03 13090
0.27 0.62 0.51 -0.70 9.95 0.00 -0.05 0.02 13096
0.27 0.66 0.57 -0.73 9.98 0.00 -0.05 0.02 13104
0.30 0.65 0.49 -0.75 9.92 0.00 -0.05 0.02 13110
0.29 0.64 0.51 -0.71 10.03 0.00 -0.05 0.02 13116
0.33 0.66 0.51 -0.74 10.03 0.01 -0.05 0.02 13122
0.37 0.61 0.54 -0.72 10.01 0.01 -0.04 0.02 13128
0.37 0.57 0.53 -0.77 9.93 0.01 -0.04 0.02 13135
0.41 0.54 0.57 -0.76 10.02 0.01 -0.04 0.02 13142
0.41 0.56 0.54 -0.75 10.08 0.01 -0.04 0.02 13148
0.43 0.54 0.53 -0.73 9.96 0.01 -0.04 0.02 13154
0.44 0.55 0.48 -0.73 10.03 0.02 -0.04 0.02 13161
0.44 0.45 0.54 -0.72 9.95 0.03 -0.04 0.02 13167
0.45 0.46 0.52 -0.74 9.94 0.03 -0.03 0.02 13173
0.47 0.41 0.49 -0.73 10.03 0.04 -0.04 0.01 13179
0.48 0.39 0.53 -0.76 10.05 0.05 -0.04 0.01 13186
0.52 0.32 0.60 -0.76 10.16 0.06 -0.04 0.01 13193
0.52 0.26 0.60 -0.71 10.20 0.08 -0.04 0.00 13199
0.54 0.26 0.63 -0.72 10.18 0.11 -0.04 0.00 13205
0.55 0.23 0.63 -0.83 10.27 0.13 -0.06 -0.00 13211
0.56 0.13 0.65 -0.82 10.29 0.17 -0.07 -0.02 13218
0.57 0.11 0.75 -0.86 10.47 0.21 -0.09 -0.03 13224
0.63 0.03 0.61 -0.77 10.62 0.29 -0.13 -0.05 13231
0.65 0.02 1.07 -0.95 11.40 0.39 -0.18 -0.08 13237
0.67 -0.00 1.54 -1.35 11.25 0.53 -0.30 -0.16 13244
0.69 -0.04 2.24 -1.89 11.71 0.71 -0.54 -0.29 13250
0.72 -0.04 3.54 -2.33 12.68 0.94 -0.88 -0.49 13256
0.74 -0.05 5.66 -3.28 13.94 1.08 -1.11 -0.82 13262
0.71 -0.03 5.41 -3.06 14.51 1.33 -1.14 -1.20 13270
0.69 -0.04 4.70 -3.06 14.93 1.62 -1.41 -1.49 13276
0.62 -0.03 5.42 -4.05 12.91 1.78 -1.62 -1.75 13282
0.61 -0.04 6.14 -4.37 12.29 1.86 -1.55 -2.09 13289
0.54 -0.03 7.21 -4.52 11.65 1.91 -1.38 -2.52 13295
0.49 -0.02 6.08 -7.76 11.76 1.98 -1.18 -2.88 13301
0.42 -0.04 5.92 -5.47 11.66 1.98 -1.09 -3.17 13307
0.27 -0.01 6.97 -4.45 11.36 1.94 -0.91 -3.47 13315
0.18 -0.02 7.56 -4.60 11.53 1.90 -0.67 -3.72 13321
0.14 -0.01 7.38 -4.07 10.87 1.79 -0.42 -3.94 13327
0.11 -0.01 8.50 -2.17 12.10 1.66 -0.18 -4.16 13333
0.08 -0.01 9.44 -1.90 11.73 1.50 0.04 -4.27 13340
0.08 -0.01 7.40 -0.63 13.63 1.29 0.04 -4.27 13346
0.09 -0.01 6.86 0.29 14.60 1.02 -0.18 -4.27 13352
0.06 -0.01 5.53 0.75 14.92 0.69 -0.67 -4.26 13359
0.06 -0.00 4.60 0.92 13.76 0.28 -1.28 -4.27 13365
0.05 -0.01 5.30 2.94 10.73 -0.15 -1.82 -4.15 13372
0.05 -0.00 5.82 4.57 7.49 -0.46 -2.01 -3.76 13378
0.05 -0.00 9.12 3.13 5.21 -0.57 -1.66 -3.01 13384
0.05 -0.00 10.66 1.91 7.97 -0.58 -0.99 -2.28 13390
0.04 -0.00 13.10 1.63 10.78 -0.75 -0.38 -1.81 13396
0.07 -0.01 12.20 1.86 9.34 -1.01 -0.01 -1.46 13404
0.05 -0.00 9.57 2.45 8.17 -1.10 0.36 -1.16 13410
0.04 -0.00 7.98 2.79 6.77 -1.07 0.73 -0.83 13416
0.06 -0.01 6.35 2.83 5.63 -1.00 1.06 -0.49 13422
0.05 -0.01 5.09 2.43 5.35 -0.87 1.21 -0.26 13428
0.04 -0.00 4.22 1.93 5.61 -0.70 1.28 -0.03 13434
0.05 -0.01 3.71 1.57 6.16 -0.51 1.31 0.13 13442
0.05 -0.01 3.25 1.47 6.92 -0.34 1.38 0.24 13448
0.05 -0.00 2.84 1.61 7.60 -0.22 1.51 0.31 13454
0.05 -0.01 2.30 1.85 8.27 -0.16 1.64 0.32 13460
0.06 -0.01 1.63 1.89 8.90 -0.15 1.73 0.30 13466
0.05 -0.01 0.81 1.76 9.53 -0.19 1.73 0.25 13472
0.04 -0.00 0.01 1.42 10.04 -0.26 1.71 0.19 13479
0.06 -0.01 -0.69 1.12 11.03 -0.33 1.67 0.11 13486
0.05 -0.00 -1.10 0.80 10.81 -0.41 1.62 0.03 13492
0.05 -0.00 -1.27 0.41 11.05 -0.50 1.57 -0.06 13498
0.06 -0.01 -1.33 -0.02 11.13 -0.60 1.53 -0.15 13504
0.05 -0.00 -1.37 -0.45 11.15 -0.69 1.49 -0.22 13511
0.04 -0.00 -1.38 -0.81 11.12 -0.76 1.48 -0.27 13517
0.05 -0.01 -1.37 -1.13 11.00 -0.80 1.47 -0.29 13523
0.05 -0.01 -1.36 -1.51 10.76 -0.82 1.46 -0.28 13530
0.05 -0.01 -1.34 -1.88 10.60 -0.81 1.44 -0.24 13536
0.05 -0.00 -1.17 -2.25 10.55 -0.78 1.39 -0.18 13543
0.03 -0.00 -0.96 -2.60 10.71 -0.75 1.35 -0.10 13549
0.04 -0.00 -0.81 -2.89 10.85 -0.70 1.32 -0.01 13555
0.05 -0.00 -0.67 -3.17 11.03 -0.65 1.28 0.08 13561
0.03 -0.00 -0.57 -3.29 10.94 -0.60 1.24 0.19 13568
0.05 -0.01 -0.43 -3.37 10.95 -0.55 1.20 0.28 13575
0.04 -0.00 -0.47 -3.48 10.91 -0.50 1.15 0.42 13581
0.04 -0.00 -0.75 -3.73 10.95 -0.44 1.10 0.50 13587
0.06 -0.01 -0.99 -3.88 10.80 -0.37 1.03 0.61 13593
0.05 -0.01 -1.02 -3.99 10.70 -0.31 0.95 0.71 13599
0.05 -0.00 -1.08 -3.95 10.56 -0.25 0.87 0.82 13606
0.06 -0.01 -0.92 -3.93 10.56 -0.19 0.81 0.94 13613
0.05 -0.01 -0.76 -3.80 10.64 -0.12 0.78 1.07 13619
0.04 -0.00 -0.63 -3.75 10.72 -0.08 0.74 1.19 13625
0.05 -0.01 -0.53 -3.86 10.70 -0.04 0.73 1.31 13631
0.04 -0.00 -0.57 -3.90 10.73 -0.01 0.69 1.43 13638
0.05 -0.00 -0.52 -4.00 10.71 0.03 0.64 1.53 13644
0.05 -0.00 -0.40 -4.13 10.67 0.07 0.58 1.60 13650
0.05 -0.00 -0.23 -4.16 10.67 0.10 0.52 1.65 13657
0.04 -0.00 -0.03 -4.24 10.63 0.12 0.47 1.68 13663
0.05 -0.01 0.11 -4.17 10.68 0.14 0.45 1.69 13670
0.05 -0.00 0.12 -4.18 10.64 0.15 0.45 1.69 13676
0.05 -0.00 0.06 -4.15 10.59 0.16 0.45 1.66 13682
0.05 -0.01 0.04 -4.01 10.58 0.17 0.43 1.62 13688
0.05 -0.00 -0.06 -3.92 10.68 0.17 0.41 1.57 13694
0.04 0.00 -0.24 -3.80 10.71 0.17 0.40 1.49 13702
0.04 -0.00 -0.55 -3.59 10.69 0.16 0.37 1.41 13708
0.03 -0.00 -0.86 -3.35 10.61 0.16 0.34 1.32 13714
0.04 -0.00 -1.18 -3.00 10.49 0.14 0.30 1.24 13720
0.05 -0.01 -1.54 -2.71 10.17 0.14 0.27 1.15 13726
0.05 -0.00 -1.93 -2.53 9.96 0.14 0.23 1.08 13733
0.05 -0.01 -2.15 -2.43 9.83 0.16 0.19 1.01 13740
0.05 -0.01 -2.16 -2.36 9.77 0.19 0.13 0.94 13746
0.04 -0.00 -2.07 -2.24 9.72 0.22 0.08 0.87 13752
0.05 -0.01 -1.81 -2.11 9.75 0.24 0.03 0.81 13758
0.05 -0.01 -1.44 -2.00 9.81 0.26 0.02 0.77 13764
0.05 -0.00 -1.10 -1.86 9.90 0.25 0.04 0.74 13770
0.04 -0.00 -0.87 -1.86 9.85 0.22 0.06 0.73 13777
0.05 -0.01 -0.83 -1.83 9.85 0.21 0.09 0.73 13784
0.04 -0.00 -0.82 -1.86 9.70 0.18 0.11 0.76 13790
0.03 -0.00 -0.86 -2.03 9.52 0.17 0.11 0.81 13796
0.04 0.00 -0.94 -2.20 9.31 0.18 0.09 0.87 13802
0.05 -0.01 -1.23 -2.28 9.08 0.20 0.06 0.96 13808
0.04 -0.00 -1.51 -2.47 8.77 0.23 -0.00 0.99 13814
0.04 -0.00 -1.74 -2.61 8.51 0.27 -0.06 1.04 13821
0.05 -0.01 -1.95 -2.70 8.35 0.33 -0.10 1.08 13828
0.04 -0.00 -5.22 -3.04 9.92 0.40 -0.37 1.11 13834
0.05 -0.00 -13.93 -3.35 15.78 0.28 -1.80 1.06 13840
0.06 -0.01 -5.58 0.35 4.66 0.11 -2.63 1.14 13846
0.05 -0.00 -5.11 -1.02 9.14 0.13 -2.53 1.30 13853
0.04 -0.00 -10.52 -2.95 11.04 0.13 -3.11 1.41 13859
0.05 -0.01 -6.22 -1.57 7.05 0.17 -3.57 1.50 13865
0.04 -0.00 -15.25 1.41 25.34 0.14 -3.84 1.59 13872
0.05 0.03 -19.30 3.97 29.72 0.66 -2.19 1.84 13879
0.04 0.06 -7.86 -0.80 2.51 -0.51 -0.35 1.35 13885
0.03 0.13 -16.43 -2.80 12.89 -0.46 -0.34 0.88 13891
0.05 0.17 -9.90 -2.60 10.22 -0.37 0.30 0.34 13897
0.04 0.16 -1.16 -0.62 9.79 -0.04 0.51 0.01 13904
0.08 0.19 1.69 -0.40 12.64 0.10 0.55 0.06 13911
0.06 0.24 2.83 0.19 10.43 -0.06 0.10 0.15 13917
0.06 0.26 2.62 0.61 9.86 -0.12 0.01 0.27 13923
0.07 0.27 2.11 -0.71 10.48 -0.07 -0.01 0.34 13929
0.07 0.29 0.51 -1.40 10.20 -0.03 -0.06 0.28 13936
0.09 0.27 0.47 -0.07 10.14 -0.03 -0.09 0.20 13942
0.10 0.30 0.67 -0.89 9.69 -0.05 -0.09 0.18 13948
0.12 0.29 0.16 -0.89 10.01 -0.07 -0.06 0.17 13955
0.12 0.35 0.10 -1.23 10.01 -0.09 -0.05 0.14 13962
0.11 0.33 0.25 -0.65 9.89 -0.10 -0.03 0.13 13968
0.12 0.39 0.52 -0.85 9.94 -0.12 -0.03 0.13 13974
0.14 0.46 0.66 -0.87 10.10 -0.13 -0.06 0.10 13980
0.19 0.50 0.92 -0.74 10.26 -0.11 -0.07 0.08 13987
0.16 0.50 0.27 0.64 10.31 -0.10 -0.06 0.08 13993
0.17 0.56 0.59 -0.65 10.07 -0.08 -0.07 0.06 14000
0.18 0.56 0.49 -0.60 9.84 -0.07 -0.06 0.05 14006
0.23 0.59 0.51 -0.60 10.08 -0.05 -0.06 0.05 14012
0.25 0.59 0.63 -0.69 10.20 -0.05 -0.05 0.05 14019
0.27 0.59 0.64 -0.67 10.07 -0.05 -0.06 0.06 14025
0.31 0.57 0.67 -0.67 10.13 -0.05 -0.05 0.06 14031
0.29 0.57 0.62 -0.64 10.08 -0.04 -0.05 0.06 14038
0.28 0.59 0.55 -0.61 9.96 -0.04 -0.05 0.06 14045
0.30 0.62 0.61 -0.63 10.07 -0.03 -0.05 0.06 14051
0.31 0.58 0.56 -0.63 10.12 -0.03 -0.04 0.06 14057
0.34 0.56 0.68 -0.64 10.03 -0.03 -0.04 0.05 14063
0.32 0.59 0.68 -0.63 10.12 -0.03 -0.05 0.05 14070
0.35 0.58 0.70 -0.66 10.06 -0.02 -0.05 0.05 14076
0.33 0.60 0.67 -0.63 10.06 -0.02 -0.05 0.04 14083
0.30 0.57 0.68 -0.68 10.01 -0.02 -0.05 0.04 14089
0.36 0.61 1.17 -0.60 9.97 -0.02 -0.05 0.04 14096
0.37 0.59 0.63 -0.64 10.03 -0.02 -0.05 0.04 14102
0.37 0.61 0.57 -0.61 10.02 -0.02 -0.05 0.04 14108
0.39 0.63 0.60 -0.64 10.04 -0.02 -0.05 0.04 14114
0.38 0.63 0.59 -0.60 10.07 -0.01 -0.05 0.04 14121
0.39 0.61 0.64 -0.60 9.99 -0.01 -0.05 0.04 14128
0.37 0.64 0.61 -0.61 9.98 -0.01 -0.05 0.04 14134
0.37 0.61 0.59 -0.60 10.07 -0.01 -0.04 0.04 14140
0.38 0.63 0.59 -0.63 9.98 -0.01 -0.04 0.04 14146
0.35 0.64 0.63 -0.60 10.00 -0.00 -0.05 0.04 14153
0.35 0.68 0.60 -0.59 10.03 -0.01 -0.04 0.04 14159
0.34 0.66 0.62 -0.60 10.01 -0.00 -0.04 0.04 14166
0.33 0.63 0.61 -0.58 10.02 -0.00 -0.05 0.04 14172
0.33 0.63 0.60 -0.58 9.99 -0.00 -0.04 0.04 14178
0.34 0.61 0.58 -0.60 10.01 -0.01 -0.04 0.03 14185
0.32 0.61 0.58 -0.62 10.00 0.00 -0.04 0.03 14191
0.33 0.60 0.61 -0.65 9.99 -0.00 -0.04 0.04 14197
0.32 0.57 0.59 -0.63 10.04 0.00 -0.04 0.03 14203
0.32 0.57 0.59 -0.64 9.99 -0.00 -0.04 0.03 14211
0.35 0.59 0.60 -0.57 10.02 -0.00 -0.04 0.03 14217
0.32 0.56 0.58 -0.61 10.02 -0.00 -0.04 0.03 14223
0.30 0.58 0.02 -0.63 9.98 -0.00 -0.04 0.03 14229
0.31 0.58 0.57 -0.61 10.00 -0.01 -0.04 0.03 14235
0.30 0.57 0.56 -0.61 10.02 -0.00 -0.04 0.03 14242
0.28 0.59 0.58 -0.62 9.95 -0.00 -0.04 0.03 14248
0.29 0.58 0.58 -0.02 9.96 -0.00 -0.04 0.03 14255
0.29 0.56 0.63 -0.66 10.04 -0.00 -0.04 0.03 14261
0.32 0.57 0.58 -0.63 9.98 -0.00 -0.04 0.03 14267
0.30 0.52 0.62 -0.60 9.98 -0.00 -0.04 0.03 14274
0.28 0.52 0.57 -0.63 10.00 -0.01 -0.04 0.03 14280
0.28 0.54 0.58 -0.58 9.96 -0.01 -0.04 0.03 14286
0.29 0.54 0.57 -0.57 9.98 -0.01 -0.04 0.03 14292
0.29 0.55 0.60 -0.62 9.98 -0.01 -0.04 0.03 14299
0.32 0.53 0.53 -0.57 9.97 -0.00 -0.04 0.03 14306
0.33 0.54 0.61 -0.59 10.07 -0.00 -0.03 0.03 14312
0.33 0.57 0.52 -0.63 9.98 0.00 -0.04 0.03 14318
0.36 0.56 0.57 -0.68 9.97 0.00 -0.04 0.03 14324
0.35 0.58 0.60 -0.64 9.97 -0.01 -0.04 0.02 14330
0.32 0.57 0.59 -0.59 9.99 -0.00 -0.04 0.02 14338
0.33 0.60 0.54 -0.00 10.03 -0.01 -0.04 0.02 14344
0.30 0.59 0.56 -0.63 9.96 -0.01 -0.04 0.02 14350
0.32 0.59 0.58 -0.62 10.04 -0.00 -0.04 0.02 14356
0.31 0.59 0.56 -0.61 9.97 -0.01 -0.04 0.02 14362
0.32 0.55 0.54 -0.59 9.97 -0.01 -0.04 0.02 14369
0.32 0.56 0.53 -0.60 9.98 -0.01 -0.04 0.03 14375
0.33 0.57 0.57 -0.57 9.95 -0.01 -0.04 0.03 14382
0.30 0.55 0.57 -0.64 10.03 -0.01 -0.05 0.02 14388
0.28 0.55 0.58 -0.64 10.01 -0.01 -0.04 0.02 14394
0.30 0.54 0.52 -0.60 9.95 -0.02 -0.04 0.02 14401
0.28 0.57 0.56 -0.61 9.96 -0.01 -0.04 0.03 14407
0.30 0.57 0.55 -0.62 10.04 -0.01 -0.04 0.03 14413
0.33 0.58 0.51 -0.62 10.00 -0.01 -0.04 0.03 14419
0.33 0.60 0.51 -0.62 9.88 -0.01 -0.04 0.02 14426
0.32 0.60 0.52 -0.58 9.99 -0.01 -0.04 0.02 14433
0.29 0.61 0.50 -0.61 10.06 -0.01 -0.04 0.03 14439
0.31 0.61 0.52 -0.60 10.01 -0.01 -0.04 0.03 14445
0.30 0.63 0.54 -1.21 9.96 -0.01 -0.04 0.02 14451
0.35 0.63 0.57 -0.58 10.01 -0.00 -0.04 0.02 14458
0.33 0.63 0.57 -0.60 10.06 0.00 -0.05 0.02 14465
0.35 0.62 0.58 -0.63 10.03 0.01 -0.05 0.02 14471
0.29 0.59 0.56 -0.62 10.00 0.01 -0.05 0.02 14477
0.31 0.59 0.54 -0.63 10.01 0.01 -0.05 0.02 14483
0.34 0.56 0.53 -0.62 10.02 0.02 -0.05 0.02 14490
0.34 0.53 0.56 -0.58 10.06 0.02 -0.05 0.01 14496
0.36 0.46 0.62 -0.61 10.08 0.03 -0.06 0.01 14502
0.34 0.44 0.64 -0.66 10.08 0.05 -0.06 0.00 14509
0.34 0.43 0.68 -0.69 10.10 0.06 -0.07 -0.00 14516
0.35 0.35 0.65 -0.70 10.13 0.08 -0.08 -0.01 14522
0.35 0.29 0.67 -0.72 10.20 0.10 -0.09 -0.02 14528
0.40 0.28 0.74 -0.77 10.35 0.13 -0.11 -0.03 14534
0.41 0.18 1.13 -1.20 10.67 0.21 -0.13 -0.07 14541
0.42 0.15 0.95 -0.89 10.61 0.23 -0.18 -0.08 14547
0.42 0.08 1.11 -0.92 10.87 0.32 -0.27 -0.14 14554
0.42 0.03 1.70 -1.31 11.98 0.46 -0.49 -0.22 14560
0.43 0.02 2.17 -1.46 13.20 0.66 -0.96 -0.35 14567
0.41 -0.00 2.28 -1.54 13.20 0.83 -1.52 -0.50 14573
0.40 -0.02 3.95 -2.42 12.85 0.83 -1.86 -0.68 14579
0.37 -0.04 7.91 -4.08 10.55 0.72 -1.88 -1.05 14585
0.38 -0.03 9.44 -4.72 9.85 0.67 -1.61 -1.61 14593
0.37 -0.03 7.72 -4.89 11.73 0.78 -1.25 -2.22 14599
0.31 -0.03 5.19 -3.56 12.57 1.04 -1.08 -2.65 14605
0.30 -0.02 4.29 -4.31 12.72 1.16 -1.29 -2.92 14612
0.20 -0.02 6.04 -4.28 11.43 1.15 -1.31 -3.19 14618
0.16 -0.00 9.84 -6.88 11.21 1.15 -1.12 -3.53 14624
0.14 -0.01 8.18 -4.60 10.26 1.10 -0.69 -3.94 14630
0.08 -0.01 9.53 -3.82 9.80 1.01 -0.26 -4.27 14637
0.06 -0.01 7.41 -3.06 10.51 0.91 0.06 -4.28 14644
0.05 -0.00 5.64 -1.99 11.89 0.72 0.04 -4.28 14650
0.07 -0.01 4.08 -0.78 13.00 0.46 -0.28 -4.28 14656
0.05 -0.01 3.84 -0.13 13.00 0.17 -0.81 -4.28 14662
0.05 -0.01 1.75 1.12 12.67 -0.10 -1.54 -4.28 14669
0.05 -0.00 2.23 1.80 11.30 -0.31 -2.26 -4.28 14675
0.07 -0.01 4.22 1.73 9.60 -0.47 -2.79 -4.28 14682
0.05 -0.00 6.20 1.04 9.87 -0.53 -2.85 -4.19 14688
0.05 -0.00 8.87 -0.71 10.71 -0.49 -1.89 -3.37 14694
0.06 -0.01 12.35 0.00 10.96 -0.41 -0.79 -2.61 14701
0.05 -0.00 13.19 0.73 9.44 -0.36 -0.07 -2.08 14707
0.05 -0.00 11.17 1.44 6.87 -0.36 0.36 -1.65 14713
0.06 -0.01 9.00 2.13 6.12 -0.31 0.73 -1.18 14720
0.05 -0.00 7.45 2.33 6.68 -0.23 1.01 -0.66 14726
0.05 -0.01 6.44 2.13 7.36 -0.09 1.13 -0.16 14732
0.05 -0.01 5.85 1.98 7.78 0.04 1.11 0.26 14739
0.05 -0.00 5.45 2.07 8.17 0.12 1.10 0.60 14745
0.05 -0.00 4.94 2.17 8.68 0.16 1.14 0.87 14751
0.05 -0.01 4.27 2.08 9.09 0.18 1.26 1.07 14757
0.05 -0.00 3.43 2.00 9.41 0.19 1.40 1.26 14764
0.04 -0.00 2.43 1.94 9.64 0.19 1.51 1.38 14770
0.05 -0.00 1.27 1.83 9.84 0.18 1.58 1.45 14776
0.05 -0.00 0.22 1.73 10.16 0.16 1.61 1.49 14783
0.05 -0.00 -0.60 1.53 10.58 0.13 1.60 1.48 14789
0.05 -0.01 -1.21 1.34 10.89 0.08 1.54 1.43 14795
0.05 -0.01 -1.55 1.09 11.41 0.01 1.50 1.36 14801
0.04 -0.00 -2.39 0.93 11.61 -0.08 1.42 1.27 14808
0.05 -0.00 -2.00 0.79 11.70 -0.18 1.34 1.15 14815
0.05 -0.01 -2.10 0.01 11.62 -0.29 1.26 1.01 14821
0.04 -0.00 -2.13 0.39 11.46 -0.40 1.18 0.90 14827
0.05 -0.01 -2.13 0.10 11.19 -0.48 1.11 0.74 14833
0.04 -0.00 -1.90 -0.29 11.03 -0.55 1.05 0.59 14839
0.05 -0.00 -1.70 -0.76 11.00 -0.58 0.98 0.43 14846
0.06 -0.01 -1.37 -1.25 11.00 -0.58 0.93 0.29 14853
0.04 -0.00 -0.96 -1.67 10.99 -0.57 0.92 0.16 14859
0.04 -0.00 -0.50 -1.98 10.93 -0.55 0.91 0.06 14865
0.05 -0.01 -0.22 -2.31 10.95 -0.55 0.92 -0.01 14871
0.05 -0.00 -0.05 -2.56 11.05 -0.53 0.93 -0.05 14878
0.05 -0.01 0.06 -2.87 10.96 -0.51 0.93 -0.04 14884
0.07 -0.01 0.21 -3.13 10.92 -0.48 0.90 0.01 14891
0.05 -0.01 0.26 -3.39 10.85 -0.43 0.84 0.08 14897
0.06 -0.01 0.39 -3.56 10.82 -0.37 0.74 0.17 14903
0.06 -0.01 0.59 -4.28 10.83 -0.29 0.66 0.28 14910
0.05 -0.01 0.77 -3.77 10.67 -0.21 0.60 0.37 14916
0.04 -0.00 0.99 -3.65 10.54 -0.13 0.56 0.48 14922
0.05 -0.00 1.09 -3.43 10.54 -0.06 0.55 0.57 14928
0.05 -0.00 1.19 -3.22 10.49 -0.01 0.56 0.67 14935
0.05 0.00 1.04 -3.02 10.35 0.04 0.58 0.77 14942
0.04 -0.00 0.71 -2.78 10.15 0.09 0.61 0.87 14948
0.04 -0.00 0.41 -2.58 10.04 0.12 0.60 0.96 14954
0.04 0.00 0.37 -2.48 10.45 0.16 0.58 1.04 14960
0.04 -0.00 0.03 -2.05 10.07 0.23 0.54 1.10 14966
0.03 -0.00 0.10 -1.73 10.31 0.22 0.53 1.15 14973
0.04 -0.00 0.06 -1.54 10.42 0.23 0.54 1.17 14980
0.04 -0.00 0.03 -1.53 10.51 0.21 0.56 1.17 14986
0.04 -0.00 -0.02 -1.54 10.50 0.17 0.55 1.13 14992
0.05 -0.00 -0.17 -1.46 10.40 0.14 0.54 1.07 14998
0.05 -0.00 -0.34 -1.32 10.31 0.10 0.52 1.03 15005
0.03 -0.00 -0.44 -0.95 10.01 0.08 0.48 0.98 15011
0.05 -0.00 -0.34 -0.65 9.77 0.06 0.41 0.95 15017
0.05 -0.00 -0.13 -0.29 9.52 0.03 0.32 0.93 15024
0.04 -0.00 0.18 -0.12 9.29 0.00 0.26 0.90 15030
0.04 -0.00 0.47 -0.16 9.14 -0.01 0.25 0.88 15036
0.05 -0.01 0.52 -0.23 9.01 -0.01 0.30 0.86 15042
0.04 -0.00 0.50 -0.59 8.79 -0.00 0.36 0.84 15048
0.04 -0.00 0.35 -1.00 8.73 0.01 0.42 0.81 15055
0.05 -0.00 0.06 -1.44 8.77 0.05 0.46 0.78 15062
0.05 -0.01 -0.23 -1.87 9.00 0.10 0.48 0.75 15068
0.04 -0.00 -0.45 -2.21 9.16 0.15 0.50 0.73 15074
0.03 -0.00 -0.58 -2.28 9.46 0.18 0.47 0.71 15080
0.04 -0.00 -0.56 -2.24 9.66 0.19 0.44 0.71 15086
0.05 -0.00 -0.60 -2.01 9.82 0.17 0.40 0.73 15092
0.04 -0.00 -0.48 -1.73 9.91 0.13 0.35 0.79 15099
0.04 0.00 -0.53 -1.63 9.82 0.07 0.29 0.89 15106
0.04 -0.00 -0.63 -1.72 9.77 0.03 0.22 0.94 15112
0.04 -0.00 -0.67 -2.15 9.47 -0.01 0.14 1.00 15118
0.04 -0.00 -0.56 -2.57 9.20 -0.03 0.08 1.03 15124
0.05 -0.01 -0.52 -2.90 8.91 -0.01 0.07 1.03 15130
0.05 -0.00 -0.51 -3.14 8.65 0.01 0.13 1.02 15136
0.03 -0.00 -0.68 -3.25 8.58 0.06 0.21 1.01 15143
0.04 -0.00 -0.95 -3.24 8.65 0.12 0.27 1.02 15150
0.04 -0.00 -1.33 -3.27 8.77 0.17 0.31 1.03 15156
0.04 -0.00 -1.67 -3.22 8.79 0.20 0.31 1.05 15162
0.03 -0.00 -1.91 -3.22 8.90 0.23 0.27 1.08 15168
0.06 -0.01 -2.10 -3.31 8.99 0.24 0.22 1.11 15174
0.04 -0.00 -2.24 -3.54 8.88 0.26 0.16 1.15 15180
0.03 -0.00 -2.22 -3.76 8.79 0.27 0.09 1.17 15187
0.04 -0.00 -5.15 -4.26 10.17 0.30 -0.12 1.19 15194
0.04 -0.00 -21.04 -5.07 17.63 0.68 -2.47 1.54 15200
0.04 -0.00 -8.27 -2.32 7.17 0.61 -3.36 1.84 15206
0.05 -0.01 -5.77 -2.23 5.32 0.39 -3.90 1.99 15212
0.04 -0.00 -11.21 2.07 16.60 0.40 -4.25 2.25 15219
0.04 0.04 -1.58 -0.03 13.44 1.46 -2.39 2.65 15225
0.04 0.13 -3.40 3.11 15.61 1.12 -1.51 2.99 15232
0.02 0.22 -21.85 -3.55 23.62 1.01 -1.38 2.90 15238
0.03 0.29 -24.20 -2.12 14.99 0.37 -0.86 1.83 15245
0.02 0.28 -11.92 -3.25 12.86 -0.03 -0.14 0.58 15251
0.04 0.37 -3.71 -0.16 10.52 -0.03 0.01 -0.11 15257
0.03 0.33 1.36 -0.58 10.04 0.07 0.08 -0.21 15264
0.05 0.27 4.57 -0.71 10.50 0.10 -0.07 -0.02 15270
0.04 0.24 3.35 -0.08 9.13 0.10 -0.04 0.27 15277
0.04 0.23 3.05 -0.28 10.09 0.09 -0.08 0.46 15283
0.06 0.26 -0.18 -1.40 10.38 0.00 -0.15 0.44 15290
0.07 0.27 -1.00 -2.12 10.06 -0.02 -0.16 0.26 15296
0.07 0.27 0.32 -1.23 10.09 -0.03 -0.11 0.16 15302
0.10 0.33 0.80 -1.27 9.94 -0.06 -0.09 0.16 15308
0.09 0.35 0.32 -1.13 10.03 -0.08 -0.07 0.17 15315
0.09 0.41 0.01 -0.74 9.86 -0.10 -0.02 0.15 15322
0.08 0.41 0.36 -0.94 9.83 -0.10 -0.00 0.10 15328
0.07 0.48 0.68 -0.91 9.91 -0.12 -0.01 0.08 15334
0.08 0.53 0.58 -1.02 10.17 -0.11 -0.01 0.08 15340
0.09 0.56 0.56 -0.81 10.07 -0.09 -0.01 0.08 15347
0.08 0.61 0.69 -0.68 10.09 -0.07 -0.01 0.07 15353
0.09 0.65 0.75 -0.74 9.99 -0.06 -0.02 0.07 15360
0.09 0.68 0.74 -0.88 10.08 -0.06 -0.03 0.08 15366
0.09 0.68 0.76 -0.84 9.92 -0.06 -0.04 0.07 15372
0.10 0.74 0.70 -0.83 9.96 -0.06 -0.06 0.06 15379
0.09 0.71 0.72 -0.97 10.07 -0.06 -0.06 0.08 15385
0.11 0.76 0.58 -0.83 10.07 -0.06 -0.06 0.07 15391
0.11 0.77 0.59 -0.80 10.04 -0.07 -0.06 0.07 15397
0.11 0.87 0.62 -0.78 9.97 -0.07 -0.05 0.07 15405
0.13 0.91 0.60 -0.78 10.01 -0.06 -0.05 0.07 15411
0.12 0.93 0.69 -0.80 10.04 -0.06 -0.04 0.06 15417
0.13 0.97 0.58 -0.81 10.11 -0.05 -0.04 0.06 15423
0.14 0.98 0.65 -0.81 10.08 -0.05 -0.04 0.06 15430
0.13 0.99 0.65 -0.77 10.01 -0.04 -0.03 0.06 15436
0.15 1.05 0.64 -0.78 10.02 -0.03 -0.03 0.06 15442
0.13 1.03 0.72 -0.81 10.04 -0.03 -0.03 0.06 15449
0.13 0.97 0.68 -0.78 10.03 -0.03 -0.02 0.05 15456
0.15 1.00 0.71 -0.79 10.01 -0.02 -0.02 0.05 15462
0.15 1.01 0.71 -0.76 9.95 -0.02 -0.03 0.05 15468
0.15 1.06 0.69 -0.75 10.03 -0.02 -0.03 0.04 15474
0.15 1.03 0.67 -0.74 10.03 -0.02 -0.03 0.04 15480
0.14 1.02 0.69 -0.77 10.02 -0.02 -0.03 0.04 15488
0.16 0.97 0.70 -0.74 9.99 -0.02 -0.03 0.04 15494
0.15 0.99 0.69 -0.70 9.98 -0.02 -0.03 0.04 15500
0.13 0.98 0.67 -0.73 9.99 -0.01 -0.03 0.04 15506
0.14 1.00 0.70 -0.72 9.98 -0.01 -0.04 0.04 15513
