Voltage_01 Voltage_02 Acc_x Acc_y Acc_z Gyro_x Gyro_y Gyro_z Time
5000
0.17 0.69 0.73 -0.71 9.95 -0.01 -0.03 0.03 23
0.19 0.68 0.74 -0.70 9.99 -0.00 -0.03 0.03 29
0.18 0.66 0.68 -0.71 9.97 -0.00 -0.03 0.02 35
0.19 0.61 0.67 -0.74 9.98 -0.00 -0.03 0.03 41
0.20 0.59 0.74 -0.74 9.97 0.00 -0.03 0.02 48
0.21 0.56 0.73 -0.73 9.93 0.01 -0.03 0.02 54
0.23 0.56 0.74 -0.77 9.92 0.00 -0.03 0.02 60
0.25 0.52 0.73 -0.75 9.96 0.00 -0.02 0.02 66
0.23 0.50 0.75 -0.75 9.96 0.00 -0.02 0.02 72
0.27 0.48 0.70 -0.75 10.04 0.01 -0.02 0.03 78
0.25 0.43 0.74 -0.72 9.98 0.01 -0.02 0.02 84
0.27 0.46 0.74 -0.69 10.01 0.01 -0.02 0.02 91
0.29 0.41 0.67 -0.76 10.02 0.01 -0.02 0.02 97
0.28 0.43 0.67 -0.76 10.03 0.01 -0.02 0.02 103
0.28 0.41 0.73 -0.72 9.91 0.02 -0.02 0.02 109
0.30 0.35 0.68 -0.75 9.99 0.02 -0.02 0.02 116
0.34 0.36 0.70 -0.75 9.99 0.02 -0.01 0.02 122
0.35 0.28 0.74 -0.75 10.03 0.03 -0.01 0.02 129
0.38 0.28 0.71 -0.74 9.98 0.03 -0.01 0.02 135
0.39 0.23 0.73 -0.78 9.99 0.03 -0.01 0.02 141
0.42 0.20 0.74 -0.76 10.00 0.03 -0.01 0.02 147
0.43 0.15 0.78 -0.75 9.95 0.02 -0.01 0.02 153
0.46 0.14 0.69 -0.76 9.94 0.02 -0.01 0.03 159
0.46 0.13 0.74 -0.78 10.00 0.02 -0.01 0.03 165
0.48 0.14 0.77 -0.77 10.00 0.02 -0.02 0.03 172
0.52 0.11 0.74 -0.78 9.98 0.02 -0.02 0.03 178
0.54 0.09 0.76 -0.76 10.04 0.02 -0.02 0.03 185
0.53 0.11 0.76 -0.80 10.03 0.02 -0.03 0.02 191
0.58 0.08 0.77 -0.78 9.98 0.02 -0.03 0.02 197
0.58 0.06 0.77 -0.79 9.99 0.01 -0.04 0.03 203
0.61 0.06 0.79 -0.80 10.01 0.02 -0.04 0.03 209
0.61 0.04 0.74 -0.82 10.01 0.01 -0.05 0.03 216
0.64 0.07 0.73 -0.81 10.00 0.01 -0.05 0.02 222
0.68 0.04 0.73 -0.80 9.94 0.01 -0.04 0.02 228
0.68 0.04 0.73 -0.79 9.98 0.01 -0.04 0.03 234
0.69 0.03 0.73 -0.80 10.05 0.01 -0.04 0.02 240
0.73 0.05 0.78 -0.80 9.95 0.01 -0.04 0.03 247
0.73 0.02 0.75 -0.82 9.95 0.00 -0.05 0.02 253
0.72 0.04 0.75 -0.80 9.96 0.00 -0.05 0.02 260
0.73 0.01 0.74 -0.81 10.02 -0.00 -0.05 0.02 266
0.73 0.03 0.74 -0.77 10.00 -0.00 -0.05 0.02 272
0.73 0.06 0.74 -0.82 10.01 -0.00 -0.05 0.03 278
0.71 0.06 0.73 -0.82 10.00 -0.01 -0.05 0.03 284
0.69 0.05 0.71 -0.77 9.99 -0.01 -0.05 0.03 290
0.70 0.07 0.73 -0.77 10.00 -0.02 -0.05 0.02 296
0.69 0.07 0.75 -0.83 10.01 -0.02 -0.05 0.03 304
0.68 0.05 0.75 -0.81 10.02 -0.02 -0.05 0.03 310
0.66 0.06 0.73 -0.80 10.01 -0.02 -0.06 0.03 316
0.66 0.09 0.69 -0.83 9.98 -0.02 -0.06 0.03 322
0.66 0.08 0.72 -0.81 10.03 -0.03 -0.06 0.02 328
0.65 0.10 0.70 -0.80 9.96 -0.02 -0.06 0.02 334
0.64 0.12 0.70 -0.83 10.00 -0.02 -0.06 0.03 340
0.64 0.11 0.74 -0.81 9.99 -0.03 -0.06 0.02 347
0.62 0.11 0.70 -0.79 10.00 -0.02 -0.06 0.03 353
0.59 0.10 0.74 -0.80 10.05 -0.02 -0.06 0.02 360
0.58 0.13 0.70 -0.79 9.99 -0.01 -0.07 0.02 366
0.56 0.15 0.73 -0.75 10.02 -0.02 -0.06 0.02 372
0.56 0.16 0.76 -0.80 10.03 -0.01 -0.07 0.02 378
0.57 0.15 0.70 -0.77 10.03 -0.00 -0.07 0.02 385
0.56 0.16 0.72 -0.82 10.02 0.00 -0.07 0.02 391
0.58 0.12 0.68 -0.80 10.04 0.01 -0.08 0.01 397
0.59 0.12 0.72 -0.79 10.09 0.02 -0.08 0.01 403
0.59 0.09 0.78 -0.81 10.06 0.03 -0.08 0.01 410
0.60 0.09 0.73 -0.85 10.07 0.05 -0.09 -0.00 416
0.60 0.03 0.72 -0.84 10.09 0.06 -0.09 -0.01 422
0.61 0.01 0.79 -0.84 10.18 0.08 -0.10 -0.02 429
0.63 0.00 0.73 -0.83 10.27 0.11 -0.10 -0.03 435
0.66 -0.00 0.87 -0.90 10.41 0.15 -0.12 -0.05 441
0.68 -0.01 1.16 -0.95 10.55 0.21 -0.15 -0.08 447
0.68 -0.02 0.89 -1.04 10.80 0.31 -0.18 -0.15 454
0.72 -0.01 1.79 -1.33 11.13 0.45 -0.26 -0.25 460
0.72 -0.05 2.46 -1.56 11.98 0.66 -0.41 -0.40 466
0.73 -0.05 5.02 -2.34 12.14 0.88 -0.62 -0.61 473
0.76 -0.04 5.23 -2.63 12.87 1.02 -0.83 -0.94 479
0.75 -0.05 5.03 -2.82 13.68 1.29 -1.16 -1.15 485
0.78 -0.05 3.91 -2.53 14.38 1.61 -1.55 -1.30 492
0.73 -0.03 4.66 -3.17 13.65 1.76 -1.74 -1.47 498
0.71 -0.04 5.60 -3.66 13.21 1.80 -1.76 -1.71 504
0.63 -0.03 5.99 -4.01 13.22 1.85 -1.73 -1.98 510
0.57 -0.02 4.93 -3.40 12.51 1.90 -1.76 -2.21 517
0.48 -0.03 4.70 -3.86 12.60 1.89 -1.81 -2.39 524
0.34 -0.02 5.42 -3.96 12.14 1.85 -1.80 -2.59 530
0.30 -0.01 6.84 -4.19 11.28 1.75 -1.65 -2.81 536
0.19 -0.02 4.25 2.91 9.85 1.65 -1.36 -3.05 542
0.15 -0.01 7.35 -3.50 9.75 1.47 -1.01 -3.24 548
0.12 -0.01 6.44 -3.32 10.95 1.28 -0.83 -3.46 555
0.12 -0.01 5.83 -1.59 12.03 1.04 -0.89 -3.61 561
0.09 -0.00 5.30 -0.83 12.59 0.81 -1.09 -3.72 568
0.09 -0.01 4.30 -0.31 12.61 0.48 -1.56 -3.83 574
0.09 0.01 5.03 1.86 13.13 0.14 -2.10 -3.91 580
0.08 -0.00 6.25 4.92 12.55 -0.22 -2.66 -3.86 586
0.06 -0.01 8.64 9.19 9.57 -0.60 -2.91 -3.70 592
0.05 -0.01 12.43 8.04 8.03 -1.00 -2.86 -3.19 599
0.05 0.01 11.87 4.45 8.30 -1.31 -2.01 -2.22 605
0.06 -0.01 14.55 2.56 10.54 -1.41 -0.66 -1.29 611
0.04 -0.00 15.97 2.64 9.74 -1.52 0.11 -0.68 618
0.04 0.00 13.33 1.44 6.60 -1.54 0.41 -0.29 624
0.06 -0.01 12.14 1.74 5.21 -1.42 0.65 -0.03 630
0.05 -0.00 10.84 1.33 5.04 -1.24 1.04 0.18 636
0.04 -0.00 10.01 0.95 5.90 -1.03 1.46 0.39 643
0.05 -0.00 9.03 0.61 6.80 -0.82 1.81 0.52 649
0.04 0.00 7.93 0.41 7.72 -0.67 2.07 0.58 655
0.05 -0.01 7.01 0.35 8.33 -0.54 2.20 0.60 661
0.05 -0.00 5.84 0.34 8.95 -0.45 2.30 0.61 667
0.04 -0.00 4.62 0.27 9.42 -0.39 2.36 0.62 673
0.05 -0.00 3.54 -0.19 9.75 -0.33 2.38 0.65 679
0.05 0.01 2.39 -0.68 10.18 -0.25 2.38 0.70 686
0.06 -0.00 1.57 -1.22 10.81 -0.17 2.36 0.75 693
0.06 -0.01 1.01 -1.60 11.36 -0.10 2.34 0.83 699
0.05 -0.01 0.55 -2.11 11.65 -0.06 2.31 0.85 705
0.07 -0.01 0.11 -2.40 11.78 -0.04 2.25 0.90 711
0.06 -0.01 -0.23 -2.54 11.70 -0.01 2.19 0.97 717
0.05 -0.01 -0.50 -2.80 11.71 0.02 2.12 1.05 723
0.05 -0.00 -0.74 -3.11 11.53 0.06 2.07 1.14 730
0.05 -0.00 -0.96 -3.53 11.53 0.13 2.01 1.21 736
0.05 -0.01 -1.04 -4.08 11.53 0.21 1.97 1.30 742
0.05 -0.01 -1.03 -4.56 11.63 0.30 1.93 1.38 748
0.06 -0.01 -1.12 -4.92 11.85 0.39 1.88 1.47 755
0.07 -0.01 -1.33 -5.08 12.16 0.49 1.82 1.57 761
0.06 -0.01 -1.67 -5.13 12.46 0.52 1.72 1.68 768
0.05 -0.00 -1.95 -4.96 12.78 0.53 1.59 1.80 774
0.05 -0.01 -2.37 -4.78 13.20 0.50 1.40 1.91 780
0.06 -0.01 -4.99 -4.89 14.78 0.40 1.14 2.00 786
0.05 -0.01 -8.68 -4.30 19.01 0.10 0.36 1.86 792
0.05 -0.01 -0.55 -2.03 13.30 -0.16 -0.37 1.88 798
0.05 -0.00 -0.83 -3.03 12.29 -0.30 0.02 2.09 804
0.05 -0.01 -0.03 -4.18 11.75 -0.42 0.57 2.14 811
0.05 -0.01 0.81 -4.91 11.38 -0.46 1.00 2.04 818
0.05 -0.00 0.26 -5.25 10.88 -0.48 1.21 1.97 824
0.05 -0.00 -1.58 -4.84 10.32 -0.43 1.36 1.88 830
0.06 -0.01 -2.75 -4.56 9.84 -0.32 1.44 1.81 836
0.05 -0.01 -3.24 -4.22 9.37 -0.23 1.36 1.76 842
0.05 -0.01 -3.57 -3.68 9.18 -0.13 1.17 1.69 848
0.04 -0.00 -3.72 -3.18 9.12 -0.06 0.86 1.64 855
0.05 -0.01 -3.44 -2.75 9.14 -0.01 0.55 1.58 861
0.06 -0.01 -2.79 -2.53 9.23 0.00 0.29 1.53 867
0.05 -0.01 -2.07 -2.49 9.43 0.00 0.11 1.47 873
0.05 -0.00 -1.54 -2.49 9.71 -0.01 0.02 1.40 879
0.05 -0.00 -0.98 -2.65 9.83 -0.02 0.01 1.33 885
0.05 -0.01 -0.53 -2.68 10.03 -0.05 0.04 1.22 891
0.05 -0.01 -0.19 -2.66 10.27 -0.08 0.11 1.11 898
0.05 -0.01 0.03 -2.46 10.19 -0.14 0.23 1.01 905
0.05 -0.00 0.01 -2.38 9.93 -0.22 0.34 0.93 911
0.04 -0.00 -0.14 -2.34 9.97 -0.30 0.48 0.88 917
0.05 -0.00 -0.25 -2.51 9.96 -0.37 0.59 0.85 923
0.06 -0.01 -0.46 -2.67 9.65 -0.42 0.62 0.85 929
0.05 -0.01 -0.90 -2.85 9.22 -0.44 0.58 0.87 935
0.05 -0.01 -1.26 -3.07 8.70 -0.43 0.52 0.92 942
0.04 -0.00 -1.50 -3.50 8.33 -0.37 0.40 0.97 948
0.05 -0.00 -1.70 -3.99 7.94 -0.29 0.24 1.02 954
0.07 -0.01 -1.54 -4.46 7.65 -0.19 0.08 1.05 960
0.05 -0.01 -1.26 -4.89 7.64 -0.09 -0.04 1.06 966
0.05 -0.01 -1.30 -5.88 8.24 0.02 -0.10 1.06 972
0.04 0.02 -5.32 -7.28 12.01 0.21 -0.48 1.08 978
0.05 0.01 -8.98 -7.04 12.86 0.49 -1.49 1.20 985
0.05 0.01 -8.23 -5.36 8.52 0.48 -2.16 1.32 992
0.04 0.01 -3.20 -4.24 6.11 0.36 -2.38 1.39 998
0.05 -0.01 -7.09 -7.63 8.23 0.24 -2.52 1.45 1004
0.07 -0.01 -10.20 -7.72 11.19 0.24 -3.22 1.57 1010
0.05 -0.01 -10.21 -6.77 8.78 0.25 -3.53 1.71 1016
0.05 0.00 -12.30 -5.69 9.69 0.31 -3.85 1.91 1022
0.06 0.05 -7.69 0.46 11.03 1.31 -2.58 2.46 1030
0.05 0.12 -8.06 -6.12 17.28 1.45 -1.92 2.74 1036
0.04 0.26 -27.87 -5.01 30.89 1.31 -2.05 2.38 1042
0.04 0.37 -15.77 -1.45 11.90 -0.11 -0.23 0.89 1048
0.02 0.41 -6.72 -1.12 12.63 -0.16 -0.04 0.08 1055
0.04 0.47 -2.83 0.34 8.86 -0.00 0.02 -0.18 1061
0.03 0.43 3.48 -0.19 10.27 0.14 0.08 -0.17 1068
0.03 0.38 3.06 -0.30 10.12 0.11 0.04 0.14 1074
0.06 0.36 1.85 0.06 9.94 0.07 0.03 0.34 1080
0.06 0.35 0.67 -0.27 10.38 0.03 -0.06 0.37 1086
0.07 0.31 0.18 -1.47 10.15 0.03 -0.11 0.28 1093
0.08 0.31 0.83 -0.45 9.61 0.01 -0.10 0.22 1099
0.09 0.32 0.55 -1.94 9.72 -0.04 -0.09 0.19 1105
0.15 0.34 0.30 -1.72 9.69 -0.09 -0.03 0.13 1112
0.15 0.39 0.21 -0.97 9.61 -0.12 -0.05 0.10 1118
0.17 0.43 0.42 -1.01 9.99 -0.16 -0.05 0.10 1124
0.17 0.44 0.66 -0.90 10.34 -0.18 -0.07 0.10 1131
0.18 0.51 0.76 -0.73 10.26 -0.15 -0.07 0.09 1137
0.17 0.54 0.68 -0.67 10.24 -0.11 -0.06 0.07 1143
0.21 0.56 0.66 -0.81 10.09 -0.08 -0.05 0.06 1149
0.21 0.58 0.57 -0.77 9.99 -0.07 -0.05 0.08 1156
0.22 0.59 0.64 -0.89 10.03 -0.06 -0.05 0.06 1163
0.25 0.57 0.61 -0.87 10.07 -0.06 -0.05 0.06 1169
0.24 0.60 0.64 -0.89 9.93 -0.06 -0.04 0.06 1175
0.26 0.59 0.65 -0.79 10.11 -0.06 -0.03 0.05 1181
0.24 0.56 0.66 -0.75 10.03 -0.05 -0.04 0.05 1187
0.24 0.55 0.64 -0.74 10.08 -0.04 -0.04 0.05 1193
0.24 0.55 0.69 -0.75 10.05 -0.03 -0.03 0.05 1201
0.22 0.54 0.64 -0.77 10.04 -0.03 -0.03 0.05 1207
0.22 0.52 0.64 -0.81 10.05 -0.03 -0.03 0.05 1213
0.24 0.52 0.62 -0.77 10.05 -0.03 -0.04 0.05 1219
0.24 0.53 0.69 -0.77 9.99 -0.03 -0.03 0.04 1225
0.25 0.54 0.64 -0.76 10.00 -0.03 -0.03 0.05 1232
0.25 0.54 0.69 -0.76 10.01 -0.03 -0.03 0.04 1239
0.25 0.53 0.67 -0.76 10.00 -0.03 -0.03 0.04 1245
0.26 0.54 0.68 -0.72 10.02 -0.02 -0.03 0.04 1251
0.24 0.54 0.68 -0.73 10.04 -0.02 -0.03 0.04 1257
0.24 0.52 0.66 -0.79 10.04 -0.02 -0.03 0.04 1264
0.25 0.52 0.67 -0.75 10.01 -0.02 -0.03 0.04 1270
0.25 0.54 0.67 -0.76 10.06 -0.01 -0.03 0.04 1276
0.23 0.52 0.65 -0.72 10.05 -0.02 -0.03 0.04 1283
0.25 0.53 0.71 -0.71 10.01 -0.01 -0.03 0.04 1289
0.23 0.52 0.67 -0.74 10.03 -0.01 -0.03 0.04 1296
0.22 0.55 0.65 -0.75 9.98 -0.01 -0.03 0.04 1302
0.23 0.54 0.70 -0.77 10.01 -0.01 -0.03 0.04 1308
0.22 0.54 0.70 -0.76 10.03 -0.01 -0.03 0.04 1314
0.22 0.54 0.67 -0.74 9.98 -0.00 -0.03 0.04 1320
0.22 0.53 0.67 -0.72 9.98 -0.01 -0.03 0.04 1327
0.21 0.53 0.65 -0.70 10.01 -0.01 -0.03 0.03 1334
0.19 0.54 0.64 -0.74 9.99 -0.01 -0.03 0.04 1340
0.21 0.55 0.68 -0.73 10.00 -0.01 -0.03 0.04 1346
0.20 0.55 0.70 -0.72 9.98 -0.01 -0.03 0.04 1352
0.19 0.54 0.66 -0.73 9.96 -0.01 -0.03 0.04 1358
0.19 0.55 0.66 -0.76 9.96 -0.01 -0.03 0.04 1364
0.18 0.54 0.68 -0.71 9.99 -0.01 -0.03 0.03 1372
0.17 0.53 0.70 -0.77 10.00 -0.01 -0.03 0.04 1378
0.17 0.55 0.68 -0.73 9.96 -0.01 -0.03 0.03 1384
0.18 0.52 0.68 -0.73 10.01 -0.00 -0.03 0.04 1390
0.17 0.50 0.67 -0.75 9.98 -0.01 -0.03 0.03 1396
0.16 0.52 0.68 -0.73 9.98 -0.01 -0.03 0.03 1402
0.17 0.53 0.67 -0.71 9.98 -0.01 -0.03 0.03 1410
0.17 0.52 0.64 -0.74 10.00 -0.01 -0.03 0.03 1416
0.16 0.52 0.68 -0.74 10.00 -0.01 -0.03 0.04 1422
0.18 0.51 0.66 -0.74 9.98 -0.01 -0.03 0.03 1428
0.18 0.51 0.66 -0.72 9.97 -0.01 -0.03 0.04 1434
0.16 0.50 0.66 -0.72 9.98 -0.01 -0.03 0.03 1440
0.18 0.52 0.67 -0.74 9.98 -0.01 -0.02 0.03 1447
0.18 0.51 0.68 -0.74 9.98 -0.01 -0.03 0.03 1454
0.18 0.51 0.69 -0.73 10.01 -0.01 -0.03 0.03 1460
0.17 0.52 0.66 -0.74 9.99 -0.01 -0.02 0.03 1466
0.19 0.52 0.65 -0.74 9.95 -0.01 -0.02 0.03 1472
0.17 0.52 0.67 -0.72 10.01 -0.01 -0.02 0.03 1478
0.17 0.51 0.65 -0.71 9.96 -0.01 -0.02 0.03 1485
0.16 0.52 0.68 -0.74 10.02 -0.01 -0.02 0.03 1491
0.14 0.50 0.70 -0.69 10.00 -0.01 -0.01 0.03 1498
0.13 0.49 0.74 -0.71 9.98 -0.01 -0.01 0.02 1504
0.15 0.50 0.69 -0.74 9.96 -0.00 -0.01 0.02 1510
0.15 0.48 0.73 -0.74 10.04 -0.01 -0.01 0.02 1516
0.14 0.48 0.70 -0.77 9.99 -0.00 -0.01 0.02 1523
0.16 0.48 0.69 -0.73 10.00 0.00 -0.01 0.02 1529
0.16 0.47 0.70 -0.74 9.99 -0.00 -0.02 0.02 1536
0.15 0.47 0.74 -0.73 10.00 -0.00 -0.02 0.02 1542
0.15 0.49 0.70 -0.76 10.01 -0.01 -0.02 0.02 1548
0.16 0.46 0.65 -0.74 9.93 -0.01 -0.02 0.02 1554
0.16 0.44 0.69 -0.70 9.96 -0.01 -0.02 0.02 1560
0.15 0.44 0.66 -0.71 9.96 -0.01 -0.02 0.02 1567
0.17 0.44 0.69 -0.74 9.98 -0.01 -0.02 0.02 1573
0.15 0.42 0.67 -0.72 10.02 -0.01 -0.01 0.02 1580
0.15 0.43 0.67 -0.73 9.98 -0.00 -0.01 0.02 1586
0.16 0.44 0.70 -0.70 9.98 -0.01 -0.01 0.02 1592
0.17 0.44 0.66 -0.71 9.98 -0.01 -0.01 0.02 1598
0.16 0.41 0.72 -0.75 9.94 -0.01 -0.01 0.02 1605
0.17 0.41 0.74 -0.75 10.01 -0.01 -0.01 0.02 1611
0.18 0.40 0.75 -0.78 10.00 -0.01 -0.01 0.03 1617
0.16 0.40 0.73 -0.75 10.01 -0.01 -0.01 0.03 1624
0.16 0.40 0.75 -0.77 10.03 -0.01 -0.01 0.03 1630
0.15 0.39 0.73 -0.76 10.02 -0.01 -0.01 0.03 1636
0.14 0.39 0.69 -0.74 10.02 -0.01 -0.01 0.03 1643
0.14 0.41 0.72 -0.76 10.01 -0.01 -0.01 0.03 1649
0.14 0.41 0.70 -0.70 10.02 -0.01 -0.01 0.03 1655
0.14 0.40 0.73 -0.70 10.01 -0.01 -0.01 0.03 1661
0.14 0.40 0.70 -0.74 9.99 -0.01 -0.01 0.03 1668
0.14 0.38 0.75 -0.72 9.97 -0.01 -0.01 0.03 1675
0.14 0.37 0.72 -0.71 9.97 -0.01 -0.01 0.03 1681
0.13 0.40 0.72 -0.71 9.98 -0.01 -0.01 0.03 1687
0.16 0.41 0.75 -0.75 9.98 -0.01 -0.02 0.03 1693
0.15 0.41 0.71 -0.76 9.99 -0.01 -0.02 0.02 1699
0.14 0.40 0.67 -0.76 9.98 -0.01 -0.02 0.03 1705
0.15 0.42 0.72 -0.76 9.96 -0.01 -0.02 0.02 1712
0.16 0.41 0.72 -0.73 10.06 -0.00 -0.01 0.02 1719
0.15 0.41 0.73 -0.72 9.98 0.00 -0.01 0.02 1725
0.15 0.42 0.74 -0.75 10.00 0.00 -0.01 0.02 1731
0.16 0.41 0.71 -0.75 10.04 0.01 -0.01 0.02 1737
0.14 0.39 0.76 -0.77 10.01 0.01 -0.01 0.02 1743
0.15 0.39 0.78 -0.75 10.02 0.01 -0.02 0.02 1750
0.15 0.37 0.79 -0.78 10.04 0.02 -0.01 0.02 1757
0.18 0.32 0.82 -0.77 9.97 0.02 -0.02 0.02 1763
0.19 0.31 0.81 -0.72 9.89 0.02 -0.03 0.02 1769
0.20 0.29 -0.13 -0.89 11.97 0.02 -0.02 0.02 1775
0.18 0.25 0.85 -0.81 9.93 0.03 -0.04 0.02 1781
0.17 0.25 0.84 -0.80 10.04 0.02 -0.04 0.01 1787
0.19 0.19 0.82 -0.74 10.10 0.03 -0.04 0.01 1795
0.18 0.18 0.83 -0.76 10.06 0.04 -0.05 0.00 1801
0.16 0.15 0.85 -0.68 10.06 0.06 -0.05 -0.01 1807
0.20 0.11 0.86 -0.82 10.05 0.07 -0.06 -0.01 1813
0.22 0.06 0.84 -0.82 10.07 0.09 -0.06 -0.02 1819
0.21 0.02 0.89 -0.84 10.14 0.12 -0.07 -0.03 1826
0.24 0.02 0.92 -0.81 10.20 0.14 -0.08 -0.05 1832
0.24 -0.01 1.03 -0.90 10.29 0.18 -0.08 -0.08 1839
0.25 -0.02 1.31 -0.91 10.48 0.21 -0.11 -0.13 1845
0.27 -0.02 1.60 -3.06 10.83 0.29 -0.14 -0.22 1851
0.30 -0.02 4.13 -1.23 10.07 0.38 -0.18 -0.40 1858
0.30 -0.03 6.28 -1.92 11.80 0.49 -0.19 -0.77 1864
0.36 -0.03 6.11 -1.98 12.21 0.79 -0.19 -1.16 1870
0.33 -0.03 6.06 -2.13 14.61 1.17 -0.26 -1.53 1876
0.35 -0.02 4.64 -2.88 13.58 1.53 -0.39 -1.74 1883
0.37 -0.02 5.67 -3.33 11.58 1.67 -0.65 -1.92 1890
0.33 -0.02 6.91 -3.55 13.12 1.72 -0.80 -2.21 1896
0.33 -0.02 6.84 -3.13 11.32 1.70 -0.74 -2.46 1902
0.28 -0.03 6.80 -3.59 10.59 1.67 -0.81 -2.77 1908
0.24 -0.02 7.65 -3.75 10.60 1.60 -0.70 -2.95 1915
0.19 -0.02 6.91 -3.12 10.38 1.48 -0.64 -3.23 1922
0.16 -0.02 9.50 -3.63 9.47 1.33 -0.48 -3.50 1928
0.14 -0.01 8.46 -2.62 9.28 1.19 -0.13 -3.78 1934
0.10 -0.01 8.04 -2.93 10.91 0.93 0.12 -4.03 1940
0.08 -0.01 8.10 0.04 11.06 0.66 0.14 -4.24 1946
0.07 -0.01 6.81 0.23 10.47 0.45 0.05 -4.28 1952
0.05 0.00 6.60 1.35 10.64 0.20 -0.26 -4.28 1959
0.06 -0.01 5.21 1.94 9.98 -0.03 -0.56 -4.28 1966
0.05 -0.00 5.30 3.62 8.98 -0.29 -0.95 -4.28 1972
0.05 -0.00 7.03 6.39 8.05 -0.57 -1.23 -4.21 1978
0.06 -0.01 8.81 6.27 6.52 -0.79 -1.22 -3.77 1984
0.05 -0.00 8.64 3.76 7.89 -0.91 -0.88 -3.12 1990
0.04 -0.00 9.42 2.79 9.68 -0.95 -0.25 -2.44 1996
0.04 -0.00 9.98 3.07 9.33 -0.98 0.25 -1.82 2002
0.06 -0.01 9.43 3.39 7.39 -0.92 0.44 -1.30 2010
0.06 -0.01 8.31 3.08 6.13 -0.83 0.55 -1.03 2016
0.05 -0.00 7.47 2.71 6.20 -0.75 0.66 -0.72 2022
0.06 -0.00 6.86 2.27 7.18 -0.64 0.85 -0.47 2028
0.07 -0.01 6.36 1.71 8.35 -0.56 1.10 -0.26 2034
0.06 -0.01 5.71 1.28 9.16 -0.48 1.39 -0.11 2040
0.04 -0.00 5.00 0.83 9.60 -0.43 1.56 0.01 2046
0.05 0.00 4.09 0.70 9.83 -0.41 1.70 0.12 2053
0.06 -0.01 2.90 0.63 10.23 -0.41 1.73 0.18 2059
0.06 -0.01 1.68 0.34 10.62 -0.42 1.69 0.28 2066
0.06 -0.01 0.65 0.01 11.06 -0.41 1.59 0.38 2072
0.07 -0.01 -0.18 -0.28 11.01 -0.40 1.43 0.48 2078
0.06 -0.01 -0.68 -0.60 11.22 -0.40 1.27 0.57 2084
0.05 -0.00 -0.93 -0.80 11.29 -0.39 1.12 0.64 2091
0.05 0.00 -1.06 -1.04 11.46 -0.38 1.05 0.69 2097
0.05 -0.00 -1.14 -1.78 11.48 -0.39 0.98 0.72 2104
0.05 -0.00 -1.20 -1.46 11.44 -0.41 0.93 0.73 2110
0.05 0.00 -1.28 -1.80 11.46 -0.43 0.88 0.73 2116
0.05 -0.01 -1.30 -2.14 11.49 -0.44 0.83 0.72 2122
0.05 -0.00 -1.31 -2.57 11.50 -0.44 0.77 0.70 2128
0.05 -0.00 -1.19 -3.00 11.48 -0.43 0.72 0.67 2135
0.06 -0.01 -0.91 -3.49 11.39 -0.42 0.68 0.64 2142
0.04 -0.00 -0.44 -4.00 11.33 -0.39 0.65 0.60 2148
0.04 -0.00 -0.16 -4.42 11.32 -0.35 0.63 0.55 2154
0.06 -0.01 0.17 -4.58 11.24 -0.31 0.63 0.53 2160
0.05 -0.01 0.41 -4.58 11.26 -0.27 0.63 0.51 2166
0.04 -0.00 0.46 -4.45 10.43 -0.21 0.63 0.51 2172
0.05 -0.00 0.45 -4.25 10.76 -0.16 0.62 0.54 2179
0.05 -0.00 0.40 -3.92 10.50 -0.11 0.59 0.59 2186
0.05 -0.00 0.23 -3.55 10.33 -0.05 0.54 0.64 2192
0.05 -0.00 0.04 -3.20 10.15 -0.00 0.51 0.72 2198
0.05 -0.01 0.01 -2.75 10.04 0.05 0.47 0.80 2204
0.06 -0.01 0.01 -2.24 10.07 0.10 0.45 0.89 2210
0.05 -0.01 0.05 -1.75 10.05 0.15 0.42 0.99 2216
0.07 -0.01 0.04 -1.46 10.07 0.19 0.40 1.09 2223
0.06 -0.01 0.01 -1.19 10.11 0.21 0.38 1.14 2230
0.04 -0.00 -0.07 -1.06 10.19 0.23 0.37 1.21 2236
0.05 -0.01 -0.11 -1.01 10.32 0.22 0.35 1.26 2242
0.06 -0.01 -0.05 -1.03 10.39 0.20 0.31 1.28 2248
0.06 -0.01 0.00 -1.20 10.33 0.18 0.26 1.26 2254
0.05 -0.01 0.18 -1.25 10.25 0.14 0.22 1.21 2260
0.07 -0.01 0.31 -1.16 10.28 0.11 0.22 1.13 2268
0.05 -0.01 0.27 -1.04 10.40 0.08 0.27 1.06 2274
0.05 -0.00 -0.00 -0.98 10.58 0.05 0.35 1.00 2280
0.06 -0.01 -0.44 -0.98 10.55 0.01 0.37 0.93 2286
0.06 -0.01 -0.68 -0.99 10.59 -0.03 0.31 0.85 2292
0.05 -0.01 -0.72 -0.98 10.44 -0.08 0.18 0.79 2298
0.05 -0.01 -0.49 -1.08 10.20 -0.17 0.03 0.73 2305
0.06 -0.01 -0.08 -1.19 10.09 -0.19 -0.10 0.68 2311
0.05 -0.01 0.46 -1.55 9.93 -0.24 -0.20 0.62 2318
0.04 -0.00 1.17 -1.75 9.75 -0.27 -0.20 0.56 2324
0.05 0.00 1.76 -1.93 9.53 -0.29 -0.18 0.50 2330
0.05 -0.01 2.07 -1.93 9.23 -0.28 -0.10 0.45 2336
0.05 -0.00 2.17 -1.79 9.06 -0.26 0.03 0.42 2342
0.04 -0.00 2.04 -1.66 8.93 -0.24 0.18 0.43 2349
0.05 -0.00 1.74 -1.72 8.79 -0.20 0.29 0.46 2355
0.05 -0.01 1.43 -1.94 8.72 -0.18 0.35 0.49 2361
0.05 -0.00 0.95 -2.03 8.80 -0.14 0.37 0.53 2367
0.03 -0.00 0.43 -2.18 8.89 -0.10 0.39 0.52 2374
0.05 0.00 -0.09 -2.31 8.84 -0.05 0.43 0.53 2380
0.05 -0.00 -0.73 -2.30 8.86 -0.02 0.48 0.54 2386
0.04 -0.00 -1.48 -2.41 8.90 0.01 0.50 0.55 2393
0.03 -0.00 -2.11 -2.64 8.95 0.04 0.49 0.53 2399
0.05 0.00 -2.94 -2.78 8.89 0.06 0.43 0.48 2405
0.05 -0.01 -3.73 -2.83 8.85 0.09 0.33 0.46 2411
0.05 -0.00 -4.22 -2.78 8.80 0.11 0.21 0.42 2417
0.04 -0.00 -4.45 -2.72 8.76 0.13 0.09 0.37 2423
0.04 0.00 -4.48 -2.68 8.63 0.15 -0.03 0.33 2430
0.05 -0.00 -4.49 -2.58 8.51 0.15 -0.12 0.29 2437
0.04 -0.00 -4.37 -2.42 8.25 0.16 -0.18 0.26 2443
0.04 -0.00 -4.28 -2.37 7.99 0.16 -0.25 0.25 2449
0.04 -0.00 -4.21 -2.31 7.71 0.16 -0.30 0.23 2455
0.05 -0.00 -4.03 -2.17 7.34 0.16 -0.37 0.23 2461
0.05 -0.00 -3.74 -1.97 6.99 0.16 -0.44 0.24 2467
0.04 -0.00 -3.27 -1.70 6.51 0.17 -0.53 0.27 2473
0.05 -0.00 -16.48 -6.36 22.92 0.36 -1.27 0.36 2481
0.05 -0.00 -19.41 -2.67 11.97 0.74 -4.28 0.75 2487
0.05 -0.00 -8.37 -2.39 -0.20 0.34 -4.28 0.94 2493
0.05 0.06 -6.50 4.82 66.23 1.05 -4.28 0.66 2499
0.04 0.14 -7.54 -15.31 9.41 -0.30 -0.37 0.61 2505
0.05 0.29 -4.28 0.47 10.44 -0.61 -0.14 0.37 2511
0.04 0.46 -6.25 -0.97 14.15 -0.42 -0.07 -0.03 2519
0.03 0.50 -0.22 -0.58 11.21 -0.06 0.02 -0.00 2525
0.03 0.50 2.18 0.86 10.78 0.08 0.06 0.06 2531
0.06 0.46 1.54 0.17 9.95 0.08 0.01 0.14 2537
0.05 0.41 1.39 -0.25 10.26 0.09 -0.02 0.17 2543
0.05 0.36 0.95 -0.59 9.87 0.08 -0.05 0.23 2550
0.07 0.32 0.38 -1.20 9.89 0.06 -0.07 0.21 2556
0.08 0.29 0.87 -0.51 9.62 0.02 -0.07 0.18 2563
0.08 0.28 0.83 -0.66 9.95 -0.02 -0.06 0.21 2569
0.10 0.31 0.09 -1.86 9.98 -0.04 -0.03 0.18 2575
0.13 0.31 0.22 -1.60 9.89 -0.06 -0.03 0.12 2581
0.12 0.33 0.57 -1.07 9.74 -0.08 -0.01 0.09 2587
0.13 0.36 0.53 -0.84 9.80 -0.10 0.00 0.07 2594
0.14 0.42 0.65 -0.81 9.98 -0.11 0.01 0.06 2600
0.15 0.46 0.67 -0.71 10.20 -0.10 0.01 0.06 2607
0.15 0.49 0.72 -0.64 10.26 -0.09 -0.01 0.06 2613
0.21 0.46 0.69 -0.64 10.26 -0.07 -0.02 0.05 2619
0.18 0.51 0.67 -0.69 10.17 -0.05 -0.01 0.06 2626
0.21 0.52 0.63 -0.79 10.10 -0.04 -0.01 0.06 2632
0.24 0.55 0.72 -0.82 10.07 -0.04 -0.02 0.06 2638
0.23 0.54 0.73 -0.88 9.91 -0.04 -0.02 0.06 2644
0.24 0.55 0.71 -0.80 10.01 -0.05 -0.02 0.05 2651
0.26 0.54 0.73 -0.76 9.95 -0.05 -0.03 0.05 2657
0.26 0.56 1.67 -2.53 10.28 -0.05 -0.02 0.05 2664
0.25 0.61 0.72 -0.71 10.06 -0.04 -0.03 0.04 2670
0.26 0.61 0.76 -0.74 10.02 -0.03 -0.03 0.04 2676
0.25 0.65 0.69 -0.77 10.00 -0.03 -0.02 0.04 2682
0.25 0.66 0.76 -0.79 10.07 -0.03 -0.02 0.03 2689
0.27 0.66 0.74 -0.73 10.03 -0.03 -0.02 0.03 2696
0.24 0.63 0.71 -0.76 10.03 -0.03 -0.02 0.03 2702
0.25 0.63 0.73 -0.73 10.05 -0.03 -0.02 0.03 2708
0.25 0.63 0.76 -0.75 10.09 -0.03 -0.02 0.02 2714
0.23 0.62 0.75 -0.75 9.98 -0.02 -0.02 0.02 2720
0.24 0.65 0.70 -0.73 10.00 -0.02 -0.02 0.02 2727
0.26 0.67 0.74 -0.71 10.10 -0.02 -0.02 0.03 2734
0.25 0.66 0.75 -0.74 10.02 -0.02 -0.02 0.02 2740
0.25 0.69 0.71 -0.71 9.97 -0.02 -0.02 0.03 2746
0.25 0.67 0.74 -0.75 9.99 -0.02 -0.02 0.03 2752
0.24 0.66 0.72 -0.73 9.98 -0.02 -0.02 0.03 2758
0.22 0.68 0.72 -0.71 10.00 -0.02 -0.02 0.03 2765
0.23 0.70 0.79 -0.71 10.01 -0.01 -0.02 0.03 2771
0.22 0.69 0.75 -0.74 9.95 -0.01 -0.01 0.03 2778
0.21 0.71 0.72 -0.71 10.03 -0.01 -0.02 0.03 2784
0.22 0.69 0.73 -0.72 10.00 -0.01 -0.02 0.03 2790
0.20 0.69 0.73 -0.68 10.00 -0.01 -0.02 0.02 2797
0.19 0.67 0.74 -0.73 9.99 -0.01 -0.02 0.03 2803
0.20 0.69 0.72 -0.68 10.03 -0.01 -0.02 0.03 2809
0.19 0.70 0.75 -0.70 10.02 -0.01 -0.02 0.03 2816
0.18 0.70 0.76 -0.74 9.97 -0.01 -0.02 0.03 2822
0.19 0.72 0.75 -0.72 9.98 -0.01 -0.03 0.03 2828
0.19 0.71 0.75 -0.72 9.96 -0.01 -0.03 0.02 2834
0.18 0.70 0.77 -0.72 9.99 -0.01 -0.03 0.03 2841
0.17 0.72 0.73 -0.75 10.04 -0.01 -0.03 0.03 2847
0.18 0.71 0.74 -0.71 10.01 -0.01 -0.03 0.03 2853
0.18 0.69 0.74 -0.68 10.06 -0.01 -0.04 0.03 2860
0.18 0.69 0.72 -0.75 9.99 -0.01 -0.03 0.03 2866
0.18 0.68 0.74 -0.72 10.00 -0.01 -0.04 0.03 2873
0.17 0.66 0.79 -0.72 9.99 -0.01 -0.04 0.03 2879
0.17 0.66 0.74 -0.70 9.98 -0.01 -0.04 0.02 2885
0.18 0.65 0.74 -0.69 9.97 -0.01 -0.05 0.03 2891
0.17 0.65 0.71 -0.70 9.99 -0.01 -0.04 0.02 2897
0.16 0.64 0.76 -0.70 10.02 -0.01 -0.05 0.02 2904
0.18 0.65 0.74 -0.71 9.94 -0.01 -0.05 0.02 2910
0.17 0.64 0.71 -0.72 10.01 -0.01 -0.05 0.03 2917
0.16 0.64 0.67 -0.72 10.00 -0.01 -0.04 0.02 2923
0.18 0.64 0.72 -0.71 10.01 -0.01 -0.04 0.03 2929
0.18 0.63 0.70 -0.73 10.02 -0.01 -0.04 0.02 2935
0.17 0.62 0.70 -0.66 9.98 -0.01 -0.04 0.02 2941
0.19 0.62 0.72 -0.68 9.98 -0.01 -0.03 0.02 2949
0.19 0.60 0.71 -0.67 9.99 -0.00 -0.04 0.02 2955
0.17 0.59 0.74 -0.70 10.00 -0.01 -0.03 0.02 2961
0.19 0.61 0.73 -0.73 9.94 -0.01 -0.04 0.02 2967
0.20 0.59 0.75 -0.73 10.01 -0.01 -0.04 0.02 2973
0.20 0.58 0.75 -0.69 9.98 -0.01 -0.04 0.02 2979
0.21 0.58 0.77 -0.74 9.92 -0.01 -0.05 0.02 2985
0.22 0.58 0.73 -0.72 9.98 -0.01 -0.05 0.02 2993
0.22 0.58 0.72 -0.70 9.98 -0.01 -0.05 0.03 2999
0.20 0.58 0.71 -0.72 10.00 -0.01 -0.05 0.02 3005
0.23 0.57 0.70 -0.70 9.99 -0.01 -0.05 0.02 3011
0.22 0.56 0.69 -0.70 9.94 -0.01 -0.05 0.02 3017
0.22 0.53 0.74 -0.67 10.00 -0.01 -0.05 0.02 3023
0.25 0.56 0.73 -0.73 9.94 -0.01 -0.05 0.02 3031
0.26 0.54 0.74 -0.74 9.96 -0.01 -0.05 0.01 3037
0.25 0.52 0.74 -0.70 9.94 -0.01 -0.05 0.02 3043
0.25 0.55 0.70 -0.69 10.04 -0.01 -0.05 0.02 3049
0.26 0.55 0.67 -0.70 9.97 -0.01 -0.05 0.02 3055
0.25 0.54 0.72 -0.72 10.01 -0.01 -0.05 0.02 3061
0.25 0.55 0.70 -0.70 9.97 -0.01 -0.06 0.02 3068
0.27 0.52 0.69 -0.72 9.99 -0.01 -0.05 0.02 3075
0.26 0.52 0.69 -0.69 9.98 -0.01 -0.05 0.02 3081
0.27 0.52 0.72 -0.73 9.98 -0.01 -0.05 0.02 3087
0.28 0.54 0.72 -0.70 9.99 -0.01 -0.05 0.02 3093
0.30 0.54 0.70 -0.69 9.97 -0.02 -0.05 0.02 3099
0.33 0.53 0.71 -0.67 10.01 -0.02 -0.05 0.02 3105
0.35 0.56 0.68 -0.71 9.98 -0.02 -0.05 0.02 3112
0.36 0.55 0.70 -0.68 10.01 -0.02 -0.05 0.03 3119
0.36 0.54 0.71 -0.71 10.01 -0.02 -0.05 0.03 3125
0.34 0.57 0.70 -0.74 9.99 -0.01 -0.05 0.03 3131
0.37 0.57 0.74 -0.73 9.97 -0.01 -0.05 0.02 3137
0.36 0.56 0.66 -0.71 9.97 -0.01 -0.05 0.02 3143
0.36 0.56 0.67 -0.72 10.00 -0.01 -0.05 0.02 3150
0.37 0.57 0.69 -0.71 9.95 -0.01 -0.06 0.02 3156
0.38 0.56 0.70 -0.72 9.99 -0.01 -0.06 0.02 3163
0.35 0.58 0.66 -0.72 9.97 -0.01 -0.05 0.02 3169
0.36 0.60 0.68 -0.72 9.98 -0.01 -0.06 0.02 3175
0.38 0.59 0.68 -0.69 9.98 -0.01 -0.06 0.03 3181
0.34 0.58 0.70 -0.73 9.99 -0.01 -0.06 0.02 3187
0.32 0.59 0.66 -0.70 9.96 -0.01 -0.06 0.03 3194
0.33 0.58 0.69 -0.71 9.97 -0.00 -0.05 0.02 3201
0.33 0.58 0.67 -0.74 9.96 -0.00 -0.06 0.02 3207
0.33 0.55 0.68 -0.72 9.97 -0.00 -0.06 0.02 3213
0.33 0.54 0.66 -0.71 9.95 0.00 -0.06 0.02 3219
0.33 0.52 0.70 -0.71 10.03 0.00 -0.06 0.02 3225
0.32 0.51 0.74 -0.73 9.97 0.01 -0.06 0.01 3232
0.35 0.48 0.72 -0.73 10.03 0.01 -0.06 0.01 3238
0.37 0.37 0.73 -0.71 10.03 0.02 -0.06 0.01 3245
0.37 0.36 0.65 -0.74 10.05 0.04 -0.06 -0.00 3251
0.37 0.36 0.70 -0.74 10.13 0.05 -0.06 -0.01 3257
0.39 0.27 0.70 -0.78 10.12 0.06 -0.07 -0.02 3264
0.40 0.21 0.75 -0.76 10.15 0.08 -0.08 -0.02 3270
0.47 0.14 0.72 -0.76 10.16 0.10 -0.09 -0.04 3276
0.50 0.06 0.78 -0.83 10.23 0.12 -0.13 -0.04 3282
0.52 0.02 0.87 -0.90 10.28 0.16 -0.12 -0.06 3289
0.57 0.01 0.88 -0.86 10.48 0.20 -0.14 -0.09 3296
0.58 0.00 1.29 -1.06 10.73 0.29 -0.19 -0.13 3302
0.58 -0.01 1.58 -1.28 11.38 0.43 -0.31 -0.22 3308
0.63 -0.03 2.52 -1.71 13.11 0.66 -0.62 -0.36 3314
0.63 -0.04 4.27 -2.36 14.05 0.92 -1.14 -0.55 3320
0.63 -0.03 7.29 -3.50 12.00 0.95 -1.52 -0.89 3328
0.62 -0.04 5.98 -3.31 14.85 0.99 -1.60 -1.32 3334
0.58 -0.03 5.21 -3.77 16.11 1.27 -1.79 -1.65 3340
0.54 -0.03 5.72 -3.06 14.55 1.55 -2.12 -1.90 3346
0.48 -0.04 6.45 -4.04 13.17 1.63 -2.26 -2.15 3353
0.41 -0.03 7.81 -4.94 12.99 1.61 -2.10 -2.44 3359
0.32 -0.02 8.06 -5.33 12.31 1.61 -1.81 -2.76 3365
0.23 -0.02 8.64 -5.15 12.04 1.55 -1.50 -3.16 3372
0.14 -0.00 9.70 -5.00 12.20 1.42 -1.25 -3.52 3379
0.09 -0.01 8.99 -3.97 12.89 1.26 -1.04 -3.80 3385
0.07 -0.01 7.43 -2.57 14.22 0.98 -1.10 -4.00 3391
0.08 -0.00 6.52 -1.26 14.46 0.67 -1.53 -4.11 3397
0.07 -0.01 4.39 -0.01 14.19 0.31 -2.20 -4.19 3403
0.06 -0.01 4.62 2.24 12.44 -0.03 -2.82 -4.22 3409
0.07 -0.00 6.83 5.22 9.84 -0.34 -3.44 -4.08 3417
0.06 -0.01 10.75 4.89 8.64 -0.59 -3.72 -3.73 3423
0.05 -0.00 12.48 2.07 11.50 -0.78 -2.93 -2.92 3429
0.05 0.00 14.70 0.45 10.64 -0.94 -1.12 -2.04 3435
0.06 -0.01 17.03 0.95 8.17 -0.92 0.04 -1.43 3441
0.05 -0.00 15.24 0.35 4.65 -0.76 0.50 -1.08 3447
0.06 0.00 12.50 -0.30 3.50 -0.47 0.77 -0.82 3454
0.06 -0.01 11.63 -0.27 4.82 -0.12 1.17 -0.52 3461
0.05 -0.00 11.62 -0.05 6.82 0.14 1.62 -0.23 3467
0.05 -0.01 10.81 0.40 8.64 0.29 2.02 0.01 3473
0.06 -0.01 9.50 0.95 9.49 0.28 2.24 0.20 3479
0.06 -0.01 7.50 1.07 10.00 0.18 2.38 0.34 3485
0.05 -0.01 5.47 1.10 10.16 0.07 2.40 0.50 3491
0.06 0.00 3.72 0.74 10.37 -0.01 2.32 0.63 3499
0.06 -0.01 2.64 0.44 10.60 -0.05 2.20 0.72 3505
0.06 -0.01 1.81 0.44 10.75 -0.07 2.09 0.76 3511
0.06 -0.00 1.17 0.53 10.86 -0.09 2.04 0.74 3517
0.07 -0.00 0.59 0.67 11.09 -0.13 2.03 0.66 3523
0.06 -0.01 -0.01 0.81 11.56 -0.21 2.04 0.53 3529
0.06 -0.00 -0.84 0.87 11.97 -0.33 2.04 0.36 3536
0.07 -0.00 -1.56 1.02 12.41 -0.47 1.98 0.17 3543
0.06 -0.01 -2.22 1.16 12.58 -0.62 1.87 -0.02 3549
0.06 -0.00 -2.79 1.27 11.71 -0.77 1.75 -0.17 3555
0.07 -0.01 -3.47 0.88 10.72 -0.90 1.64 -0.32 3561
0.06 -0.01 -3.78 -0.15 9.12 -0.93 1.58 -0.46 3568
0.06 -0.01 -3.62 -1.31 8.73 -0.83 1.53 -0.55 3574
0.07 -0.01 -2.96 -2.40 9.20 -0.64 1.50 -0.63 3580
0.06 -0.01 -2.34 -3.00 9.96 -0.45 1.49 -0.66 3587
0.06 -0.01 -1.93 -2.83 10.54 -0.26 1.48 -0.63 3593
0.06 -0.00 -1.69 -2.27 10.89 -0.13 1.43 -0.52 3599
0.06 -0.01 -1.50 -1.96 11.21 -0.09 1.35 -0.33 3605
0.05 -0.01 -1.37 -2.05 11.30 -0.10 1.23 -0.10 3612
0.06 0.00 -1.12 -2.48 11.29 -0.11 1.08 0.19 3618
0.05 -0.01 -0.79 -2.85 11.42 -0.08 0.97 0.49 3624
0.05 -0.01 -0.32 -3.13 11.47 -0.03 0.96 0.79 3631
0.06 -0.01 -0.09 -3.04 11.36 0.01 1.03 1.09 3637
0.06 -0.01 -0.28 -2.93 11.22 0.04 1.11 1.37 3643
0.06 -0.01 -0.83 -3.00 11.07 0.03 1.15 1.63 3650
0.06 -0.01 -1.35 -3.12 10.72 0.01 1.07 1.86 3656
0.07 -0.01 -2.03 -3.16 10.35 0.00 0.97 2.05 3662
0.06 -0.01 -2.45 -3.03 10.10 0.00 0.81 2.21 3668
0.05 -0.00 -2.50 -2.89 9.77 0.02 0.68 2.29 3675
0.06 -0.01 -2.52 -2.87 9.51 0.04 0.61 2.34 3681
0.07 -0.01 -2.75 -2.97 9.26 0.06 0.64 2.30 3687
0.05 -0.00 -3.36 -3.10 9.15 0.09 0.76 2.18 3693
0.05 -0.00 -3.83 -3.31 9.39 0.14 0.87 2.02 3700
0.06 -0.01 -4.47 -3.36 9.65 0.18 0.95 1.83 3706
0.07 -0.01 -5.01 -3.28 10.40 0.19 0.90 1.68 3713
0.06 -0.01 -5.52 -3.19 9.93 0.18 0.72 1.50 3719
0.05 -0.00 -5.33 -3.16 9.84 0.13 0.48 1.36 3725
0.06 -0.00 -4.61 -3.43 9.81 0.06 0.24 1.27 3731
0.06 -0.01 -3.54 -3.83 9.44 0.02 0.06 1.22 3737
0.06 -0.01 -2.59 -4.34 9.01 -0.01 -0.02 1.22 3743
0.05 -0.00 -1.88 -4.66 8.58 0.01 -0.06 1.30 3749
0.06 -0.00 -1.36 -5.02 8.27 0.07 -0.04 1.37 3757
0.06 -0.01 -1.11 -5.16 8.03 0.15 0.02 1.53 3763
0.05 -0.01 -1.17 -5.15 7.85 0.23 0.07 1.74 3769
0.06 -0.01 -1.47 -4.89 7.75 0.33 0.09 1.97 3775
0.06 -0.01 -2.06 -4.52 7.55 0.37 0.09 2.22 3781
0.06 -0.01 -2.51 -4.06 7.69 0.43 0.06 2.48 3787
0.05 -0.01 -3.04 -3.65 7.77 0.46 0.02 2.72 3793
0.06 -0.01 -3.32 -2.91 7.37 0.46 -0.04 2.91 3800
0.07 -0.01 -12.59 -6.05 15.24 0.64 -0.76 3.15 3807
0.06 -0.01 -18.44 -3.30 12.02 1.17 -4.00 3.73 3813
0.06 -0.01 -12.31 -2.13 1.79 0.76 -4.28 4.04 3819
0.06 0.02 -6.39 -2.65 6.23 0.48 -4.28 3.98 3825
0.05 0.17 -15.96 6.54 13.55 1.94 -2.85 3.73 3831
0.04 0.39 -21.96 -12.58 33.65 2.16 -2.04 3.48 3838
0.02 0.62 -26.08 4.29 25.26 0.58 -1.21 1.96 3845
0.01 0.67 -9.05 -0.84 13.24 -0.15 -0.38 0.21 3851
0.02 0.67 -3.89 0.03 9.87 0.03 -0.11 -0.19 3857
0.03 0.58 2.56 -0.79 9.27 0.17 -0.03 -0.29 3864
0.03 0.56 3.49 -0.03 9.81 0.19 0.02 0.14 3870
0.04 0.52 3.06 -0.19 10.23 0.14 -0.03 0.41 3876
0.05 0.44 1.16 -0.34 11.24 0.05 -0.13 0.40 3883
0.05 0.43 0.33 -1.22 9.67 0.02 -0.23 0.29 3889
0.08 0.39 0.56 -0.89 9.75 0.01 -0.18 0.24 3895
0.10 0.41 -0.51 -2.32 9.68 -0.07 -0.15 0.19 3902
0.11 0.46 -0.28 -2.10 9.70 -0.08 -0.07 0.10 3908
0.17 0.47 0.14 -0.90 9.47 -0.12 -0.02 0.08 3914
0.17 0.52 0.40 -0.91 10.01 -0.15 -0.03 0.07 3920
0.14 0.55 0.41 -0.83 10.27 -0.16 -0.03 0.08 3927
0.14 0.64 0.63 -0.74 10.43 -0.13 -0.02 0.08 3934
0.13 0.68 0.70 -0.78 10.16 -0.09 -0.02 0.08 3940
0.12 0.68 0.67 -0.84 10.14 -0.07 -0.02 0.07 3946
0.14 0.73 0.58 -0.91 10.04 -0.06 -0.02 0.07 3952
0.14 0.69 0.97 -0.55 9.98 -0.06 -0.02 0.06 3958
0.12 0.72 0.55 -0.97 10.04 -0.06 -0.01 0.07 3964
0.13 0.75 0.58 -0.92 10.13 -0.06 -0.01 0.06 3972
0.14 0.78 0.69 -0.91 10.12 -0.05 -0.01 0.06 3978
0.13 0.80 0.72 -0.84 10.16 -0.04 -0.02 0.05 3984
0.15 0.85 0.65 -0.81 10.04 -0.03 -0.02 0.05 3990
0.14 0.85 0.63 -0.81 9.93 -0.02 -0.02 0.05 3996
0.13 0.90 0.66 -0.81 9.97 -0.03 -0.02 0.05 4003
0.14 0.91 0.74 -0.80 9.89 -0.03 -0.02 0.05 4009
0.14 0.87 0.66 -0.83 9.98 -0.04 -0.03 0.05 4016
0.14 0.89 0.65 -0.78 10.01 -0.03 -0.03 0.05 4022
0.14 0.92 0.61 -0.78 9.98 -0.03 -0.02 0.04 4028
0.13 0.94 0.64 -0.76 10.00 -0.03 -0.01 0.05 4034
0.13 0.91 0.60 -0.80 9.97 -0.02 -0.01 0.04 4041
0.13 0.95 0.65 -0.81 10.02 -0.02 -0.01 0.04 4047
0.14 0.97 0.68 -0.79 10.05 -0.02 -0.01 0.04 4054
0.13 0.95 0.66 -0.85 9.99 -0.02 -0.01 0.04 4060
0.13 0.94 0.68 -0.79 10.04 -0.01 -0.01 0.04 4066
0.13 0.93 0.72 -0.81 10.02 -0.01 -0.01 0.04 4072
0.13 0.94 0.66 -0.80 9.99 -0.01 -0.02 0.04 4079
0.13 0.94 0.67 -0.75 10.04 -0.01 -0.02 0.04 4085
0.15 0.94 0.65 -0.80 9.97 -0.01 -0.02 0.04 4091
0.14 0.96 0.67 -0.78 10.02 -0.01 -0.02 0.04 4098
0.13 0.92 0.66 -0.77 9.95 -0.00 -0.02 0.04 4104
0.14 0.94 0.68 -0.77 10.03 -0.01 -0.03 0.04 4110
0.13 0.93 0.68 -0.80 9.99 -0.00 -0.03 0.04 4117
0.12 0.94 0.64 -0.78 9.98 -0.00 -0.02 0.04 4123
0.13 0.95 0.66 -0.78 9.99 -0.00 -0.02 0.03 4129
0.13 0.93 0.64 -0.77 9.95 -0.01 -0.03 0.04 4135
0.13 0.91 0.73 -0.79 9.93 -0.01 -0.03 0.04 4142
0.12 0.91 0.68 -0.76 9.98 -0.01 -0.03 0.03 4148
0.13 0.90 0.72 -0.77 10.00 -0.01 -0.03 0.04 4155
0.12 0.89 0.68 -0.80 9.99 -0.01 -0.03 0.04 4161
0.12 0.89 0.64 -0.80 10.00 -0.01 -0.03 0.03 4167
0.14 0.88 0.67 -0.80 9.97 -0.01 -0.03 0.03 4173
0.13 0.88 0.61 -0.76 9.93 -0.01 -0.03 0.03 4179
0.12 0.86 0.66 -0.79 9.98 -0.01 -0.03 0.03 4186
0.13 0.85 0.65 -0.79 9.98 -0.01 -0.03 0.03 4192
0.14 0.82 0.67 -0.74 9.99 -0.01 -0.03 0.04 4199
0.13 0.79 0.69 -0.78 10.01 -0.01 -0.03 0.03 4205
0.13 0.80 0.67 -0.79 9.92 -0.01 -0.03 0.03 4211
0.14 0.78 0.69 -0.79 9.97 -0.01 -0.03 0.03 4217
0.15 0.76 0.70 -0.79 9.99 -0.01 -0.03 0.03 4224
0.14 0.74 0.67 -0.78 9.96 -0.01 -0.03 0.03 4230
0.15 0.73 0.66 -0.78 9.99 -0.01 -0.04 0.03 4236
0.15 0.73 0.69 -0.79 9.94 -0.02 -0.04 0.03 4243
0.14 0.73 0.69 -0.77 10.00 -0.01 -0.04 0.03 4249
0.15 0.75 0.65 -0.78 10.04 -0.01 -0.04 0.03 4255
0.14 0.73 0.68 -0.79 9.96 -0.01 -0.04 0.03 4261
0.14 0.73 0.68 -0.76 9.96 -0.02 -0.04 0.03 4268
0.15 0.74 0.67 -0.78 9.99 -0.01 -0.04 0.03 4274
0.17 0.74 0.66 -0.82 9.98 -0.01 -0.04 0.03 4281
0.16 0.72 0.67 -0.78 9.98 -0.02 -0.04 0.03 4287
0.17 0.73 0.62 -0.76 9.96 -0.01 -0.04 0.03 4293
0.19 0.73 0.67 -0.79 9.98 -0.02 -0.04 0.03 4299
0.19 0.73 0.65 -0.78 9.97 -0.02 -0.04 0.03 4305
0.19 0.72 0.64 -0.79 9.98 -0.02 -0.04 0.03 4312
0.20 0.71 0.66 -0.73 9.94 -0.02 -0.03 0.03 4319
0.21 0.69 0.67 -0.73 9.95 -0.02 -0.07 0.02 4325
0.21 0.67 0.65 -0.76 9.98 -0.02 -0.03 0.02 4331
0.21 0.68 0.69 -0.75 9.98 -0.02 -0.04 0.02 4337
0.25 0.66 0.66 -0.75 10.00 -0.02 -0.03 0.02 4343
0.26 0.62 0.65 -0.77 9.95 -0.02 -0.04 0.02 4349
0.27 0.61 0.66 -0.78 10.01 -0.02 -0.03 0.02 4357
0.30 0.62 0.64 -0.73 10.00 -0.02 -0.03 0.02 4363
0.30 0.61 0.66 -0.79 10.01 -0.01 -0.04 0.02 4369
0.32 0.62 0.65 -0.79 9.98 -0.01 -0.04 0.02 4375
0.33 0.60 0.68 -0.78 9.97 -0.01 -0.04 0.02 4381
0.31 0.59 0.65 -0.74 9.97 -0.01 -0.04 0.02 4387
0.31 0.59 0.65 -0.75 10.01 -0.01 -0.04 0.02 4395
0.33 0.56 0.70 -0.75 9.94 -0.01 -0.03 0.02 4401
0.37 0.54 0.65 -0.79 10.03 -0.01 -0.03 0.02 4407
0.34 0.55 0.68 -0.77 9.96 -0.01 -0.03 0.03 4413
0.36 0.56 0.62 -0.77 9.99 -0.01 -0.03 0.03 4419
0.39 0.56 0.65 -0.78 9.96 -0.01 -0.03 0.03 4425
0.37 0.53 0.65 -0.77 10.00 -0.01 -0.03 0.03 4432
0.37 0.55 0.65 -0.77 10.00 -0.01 -0.03 0.03 4439
0.39 0.51 0.70 -0.79 9.96 -0.01 -0.03 0.03 4445
0.42 0.47 0.68 -0.74 10.01 -0.01 -0.03 0.03 4451
0.44 0.50 0.70 -0.74 9.98 -0.01 -0.03 0.03 4457
0.45 0.48 0.67 -0.79 10.00 -0.00 -0.03 0.03 4463
0.44 0.47 0.69 -0.74 9.95 -0.01 -0.03 0.03 4470
0.45 0.49 0.66 -0.77 9.97 -0.01 -0.04 0.03 4476
0.49 0.49 0.66 -0.73 9.98 -0.00 -0.04 0.03 4483
0.46 0.47 0.68 -0.79 9.99 -0.00 -0.04 0.03 4489
0.46 0.48 0.65 -0.74 10.02 -0.00 -0.04 0.03 4495
0.49 0.47 0.66 -0.80 9.99 -0.00 -0.04 0.03 4501
0.47 0.44 0.66 -0.75 10.00 -0.01 -0.04 0.03 4507
0.48 0.44 0.65 -0.79 10.01 -0.00 -0.04 0.03 4514
0.48 0.46 0.67 -0.74 9.93 0.00 -0.04 0.03 4520
0.47 0.40 0.67 -0.79 9.96 0.01 -0.04 0.03 4527
0.49 0.38 0.67 -0.80 10.03 0.00 -0.04 0.02 4533
0.49 0.38 0.65 -0.76 10.00 0.01 -0.04 0.03 4539
0.48 0.34 0.64 -0.77 10.01 0.01 -0.04 0.03 4545
0.51 0.31 0.61 -0.78 10.02 0.01 -0.04 0.02 4552
0.51 0.32 0.60 -0.78 9.98 0.02 -0.03 0.02 4558
0.57 0.29 0.68 -0.77 10.04 0.03 -0.04 0.02 4564
0.55 0.23 0.69 -0.79 10.06 0.04 -0.03 0.01 4571
0.58 0.20 0.72 -0.80 10.09 0.05 -0.04 0.01 4577
0.61 0.15 0.75 -0.82 10.03 0.06 -0.04 0.00 4584
0.65 0.10 0.72 -0.82 10.06 0.08 -0.04 0.00 4590
0.65 0.09 0.77 -0.86 10.12 0.10 -0.05 -0.01 4596
0.73 0.05 0.74 -0.83 10.29 0.13 -0.06 -0.01 4602
0.76 0.01 0.81 -0.84 10.34 0.16 -0.08 -0.02 4609
0.79 -0.01 1.28 -0.77 10.31 0.20 -0.10 -0.03 4616
0.79 -0.03 1.01 -0.96 10.51 0.26 -0.14 -0.05 4622
0.80 -0.05 1.48 -1.09 10.84 0.34 -0.19 -0.10 4628
0.80 -0.04 2.15 -1.63 10.88 0.48 -0.29 -0.21 4634
0.80 -0.06 3.39 -1.88 11.72 0.64 -0.41 -0.39 4640
0.82 -0.05 4.26 -1.86 14.03 0.85 -0.64 -0.62 4647
0.82 -0.04 3.57 -2.19 13.67 1.13 -0.85 -0.83 4654
0.78 -0.05 2.17 -1.99 13.51 1.37 -1.02 -0.96 4660
0.74 -0.03 2.92 -3.12 11.87 1.46 -1.20 -1.05 4666
0.74 -0.04 3.51 -2.65 12.37 1.52 -1.27 -1.23 4673
0.72 -0.04 4.09 -2.88 12.28 1.58 -1.33 -1.42 4679
0.69 -0.03 4.31 -3.08 11.42 1.61 -1.36 -1.62 4685
0.59 -0.04 4.02 -3.04 11.27 1.63 -1.31 -1.80 4691
0.55 -0.02 3.55 -3.21 11.04 1.62 -1.22 -1.96 4699
0.48 -0.02 3.65 -3.23 10.79 1.59 -1.15 -2.12 4705
0.38 -0.02 4.20 -3.71 10.61 1.54 -1.04 -2.27 4711
0.28 -0.01 4.77 -3.48 10.01 1.47 -0.94 -2.42 4717
0.25 -0.02 4.80 -3.81 10.02 1.39 -0.83 -2.59 4724
0.19 -0.01 4.81 -3.44 10.12 1.31 -0.68 -2.78 4730
0.15 -0.02 4.70 -3.25 10.34 1.20 -0.62 -2.96 4737
0.16 -0.02 4.56 -2.65 9.81 1.09 -0.55 -3.13 4743
0.13 -0.01 4.44 -2.40 10.19 0.96 -0.53 -3.24 4749
0.11 -0.01 6.21 -1.69 9.67 0.81 -0.51 -3.33 4755
0.11 -0.01 4.67 -1.40 9.38 0.62 -0.54 -3.44 4762
0.10 -0.00 4.43 -1.00 10.38 0.42 -0.70 -3.58 4768
0.10 0.00 3.84 -0.88 10.71 0.18 -0.90 -3.73 4774
0.09 0.00 4.29 1.30 10.43 -0.08 -1.09 -3.84 4781
0.09 0.00 4.69 2.34 9.68 -0.33 -1.19 -3.88 4787
0.10 -0.00 6.25 4.27 8.05 -0.52 -1.25 -3.79 4794
0.08 0.00 8.15 5.09 7.22 -0.73 -1.20 -3.48 4800
0.05 -0.00 8.85 2.56 7.52 -0.87 -0.87 -2.94 4806
0.06 0.00 8.50 1.47 9.44 -0.94 -0.16 -2.32 4812
0.06 0.00 9.82 1.22 10.02 -0.99 0.44 -1.87 4818
0.05 -0.00 9.18 1.22 8.55 -1.01 0.68 -1.46 4825
0.07 0.01 7.82 0.83 7.17 -0.97 0.77 -1.17 4831
0.06 -0.00 6.87 0.29 6.90 -0.89 0.89 -0.95 4838
0.06 -0.00 6.19 -0.29 7.26 -0.78 1.08 -0.77 4844
0.06 -0.00 5.59 -0.94 8.22 -0.62 1.32 -0.63 4850
0.06 -0.01 5.00 -1.43 9.07 -0.50 1.56 -0.55 4856
0.05 0.00 4.48 -1.58 9.95 -0.38 1.69 -0.52 4862
0.05 -0.01 3.73 -1.43 10.60 -0.31 1.79 -0.51 4869
0.06 -0.00 2.91 -1.14 11.30 -0.31 1.82 -0.51 4876
0.04 -0.00 1.91 -0.94 11.70 -0.35 1.81 -0.50 4882
0.04 -0.00 0.92 -0.87 11.94 -0.43 1.75 -0.48 4888
0.06 0.00 0.00 -0.97 12.17 -0.49 1.64 -0.44 4894
0.06 -0.01 -0.69 -1.18 12.15 -0.55 1.52 -0.40 4900
0.05 0.00 -1.13 -1.43 11.98 -0.58 1.39 -0.35 4907
0.06 0.00 -1.37 -1.68 11.69 -0.59 1.30 -0.29 4914
0.06 -0.00 -1.42 -1.83 11.50 -0.58 1.24 -0.25 4920
0.04 -0.00 -1.49 -1.97 11.36 -0.54 1.22 -0.22 4926
0.05 0.00 -1.43 -2.02 11.42 -0.49 1.27 -0.18 4932
0.05 0.00 -1.42 -1.90 11.48 -0.42 1.28 -0.14 4938
0.05 -0.00 -1.46 -1.23 11.42 -0.36 1.32 -0.08 4945
0.06 -0.00 -1.46 -1.71 11.39 -0.32 1.32 -0.03 4952
0.05 -0.01 -1.48 -1.70 11.12 -0.29 1.28 0.04 4958
0.05 -0.00 -1.50 -1.69 10.93 -0.27 1.19 0.12 4964
0.06 -0.00 -1.47 -1.71 10.98 -0.23 1.09 0.21 4970
0.05 -0.00 -1.17 -1.82 11.01 -0.19 1.01 0.30 4977
0.04 0.00 -0.74 -1.95 10.86 -0.14 0.94 0.38 4983
0.06 -0.00 -0.34 -1.84 10.54 -0.11 0.90 0.47 4989
0.05 -0.00 -0.15 -1.71 10.51 -0.08 0.91 0.55 4996
0.04 -0.00 -0.16 -1.59 10.48 -0.06 0.97 0.65 5002
0.05 0.00 -0.35 -1.50 10.54 -0.03 1.02 0.74 5008
0.05 0.00 -0.59 -1.41 10.67 -0.01 1.06 0.84 5015
0.04 -0.00 -0.92 -1.36 10.68 -0.01 1.05 0.96 5021
0.05 0.00 -1.21 -1.30 10.86 -0.01 0.98 1.02 5027
0.05 -0.00 -1.22 -1.24 10.83 -0.02 0.90 1.10 5033
0.04 -0.00 -1.15 -1.28 10.72 -0.04 0.80 1.16 5040
0.06 0.00 -0.93 -1.27 10.60 -0.06 0.70 1.20 5046
0.06 -0.01 -0.65 -1.30 10.41 -0.09 0.60 1.22 5053
0.05 -0.01 -0.35 -1.37 10.20 -0.10 0.54 1.22 5059
0.05 -0.00 -0.06 -1.36 9.92 -0.11 0.51 1.20 5065
0.06 -0.01 0.11 -1.52 9.68 -0.12 0.51 1.17 5071
0.06 -0.01 0.19 -1.71 9.50 -0.11 0.52 1.14 5078
0.04 -0.00 0.35 -1.74 9.47 -0.11 0.51 1.10 5084
0.06 0.01 0.52 -1.66 9.51 -0.10 0.50 1.05 5090
0.06 -0.01 0.84 -1.48 9.52 -0.09 0.52 1.02 5096
0.05 -0.01 0.77 -1.40 9.66 -0.10 0.58 1.00 5103
0.04 0.00 0.63 -1.28 9.74 -0.11 0.62 1.00 5109
0.05 -0.00 0.33 -1.25 9.86 -0.12 0.64 1.00 5115
0.05 -0.01 0.10 -1.29 9.90 -0.14 0.65 1.00 5122
0.05 -0.01 -0.29 -1.35 9.89 -0.15 0.66 1.02 5128
0.05 -0.01 -0.60 -1.47 9.81 -0.16 0.65 1.04 5134
0.07 -0.00 -0.89 -1.71 9.72 -0.16 0.62 1.06 5140
0.06 -0.01 -1.11 -1.85 9.58 -0.17 0.59 1.08 5146
0.05 -0.00 -1.19 -2.05 9.54 -0.17 0.56 1.09 5153
0.05 -0.00 -1.31 -2.30 9.46 -0.15 0.53 1.12 5159
0.06 -0.01 -1.40 -2.54 9.36 -0.14 0.50 1.15 5166
0.06 -0.01 -1.48 -2.79 9.33 -0.12 0.46 1.16 5172
0.05 0.00 -1.60 -3.12 9.16 -0.09 0.42 1.18 5178
0.06 -0.00 -1.77 -3.44 9.08 -0.06 0.39 1.19 5184
0.05 -0.01 -1.78 -3.72 8.90 -0.02 0.34 1.20 5190
0.05 -0.00 -1.87 -3.88 8.75 0.02 0.29 1.21 5196
0.05 -0.00 -1.79 -4.00 8.58 0.07 0.25 1.23 5203
0.06 0.00 -1.78 -4.13 8.47 0.13 0.20 1.25 5210
0.06 -0.01 -1.71 -4.12 8.27 0.19 0.15 1.28 5216
0.06 -0.01 -1.56 -4.00 8.15 0.26 0.11 1.33 5222
0.06 -0.01 -1.42 -3.89 7.99 0.33 0.07 1.40 5228
0.07 -0.01 -1.24 -3.76 7.73 0.39 0.02 1.48 5234
0.06 -0.01 -1.26 -3.58 7.55 0.46 -0.02 1.57 5240
0.06 -0.01 -14.00 -4.84 15.93 0.68 -1.11 1.78 5246
0.06 -0.00 -12.86 -2.80 11.29 1.00 -2.92 2.23 5254
0.06 -0.01 -8.80 -0.35 3.87 0.75 -3.82 2.57 5260
0.06 -0.01 -7.49 -1.04 5.98 0.50 -4.28 2.84 5266
0.06 0.01 -11.22 15.02 34.78 1.12 -4.25 3.17 5272
0.06 0.08 -13.45 1.44 14.00 1.73 -2.34 3.64 5279
0.02 0.24 -31.94 -8.83 48.18 1.86 -1.62 3.76 5285
0.04 0.30 -30.13 -0.48 -0.34 -0.47 -0.33 2.11 5292
0.03 0.37 -12.15 -2.28 13.94 -0.25 -0.26 0.51 5298
0.04 0.47 -6.51 -1.16 9.19 -0.07 -0.13 -0.18 5304
0.04 0.41 1.55 0.15 8.39 0.22 0.35 -0.29 5311
0.04 0.38 4.85 -0.16 11.94 0.22 0.35 -0.03 5317
0.07 0.35 3.21 -0.42 10.41 0.03 0.03 0.20 5323
0.08 0.33 3.08 -0.02 10.34 -0.01 -0.03 0.37 5329
0.09 0.36 0.98 -1.31 10.13 -0.04 -0.08 0.45 5336
0.08 0.42 -0.51 -1.84 9.39 -0.02 -0.10 0.29 5343
0.09 0.36 0.37 -1.20 9.60 -0.03 -0.08 0.15 5349
0.09 0.37 0.80 -0.87 9.62 -0.08 -0.07 0.15 5355
0.11 0.41 0.35 -1.73 10.04 -0.09 -0.05 0.14 5361
0.10 0.47 0.07 -1.18 9.90 -0.10 -0.04 0.10 5367
0.10 0.50 0.36 -0.84 10.38 -0.11 -0.02 0.08 5373
0.11 0.54 0.46 -0.83 9.89 -0.12 0.00 0.08 5381
0.12 0.53 0.51 -0.73 10.13 -0.12 0.01 0.08 5387
0.12 0.58 0.56 -0.60 10.10 -0.10 0.01 0.08 5393
0.13 0.58 0.59 -0.69 10.17 -0.08 0.01 0.08 5399
0.14 0.61 0.73 -0.78 10.47 -0.05 0.00 0.07 5405
0.15 0.62 0.70 -0.75 9.98 -0.04 0.00 0.06 5411
0.16 0.62 0.75 -0.84 10.06 -0.04 -0.01 0.06 5419
0.16 0.62 0.72 -0.82 10.00 -0.04 -0.02 0.06 5425
0.15 0.64 0.66 -0.79 10.02 -0.04 -0.02 0.06 5431
0.15 0.63 0.72 -0.79 9.96 -0.05 -0.03 0.06 5437
0.17 0.64 0.72 -0.79 10.04 -0.05 -0.03 0.06 5443
0.17 0.64 0.70 -0.75 9.98 -0.04 -0.03 0.06 5450
0.16 0.63 0.70 -0.76 10.02 -0.04 -0.04 0.06 5456
0.18 0.66 0.67 -0.71 9.97 -0.04 -0.04 0.06 5463
0.17 0.67 0.64 -0.69 9.96 -0.04 -0.04 0.06 5469
0.17 0.69 0.70 -0.71 10.04 -0.04 -0.04 0.06 5475
0.20 0.72 0.65 -0.73 9.96 -0.04 -0.04 0.06 5481
0.19 0.73 0.71 -0.76 9.99 -0.04 -0.04 0.06 5488
0.19 0.71 0.67 -0.72 10.08 -0.04 -0.00 0.06 5494
0.20 0.72 0.71 -0.71 10.02 -0.03 -0.03 0.06 5500
0.21 0.68 0.65 -0.75 10.07 -0.03 -0.03 0.06 5507
0.20 0.72 0.69 -0.72 10.07 -0.03 -0.03 0.06 5513
0.22 0.76 0.69 -0.73 9.96 -0.02 -0.03 0.06 5520
0.22 0.72 0.73 -0.75 10.05 -0.02 -0.03 0.06 5526
0.21 0.74 0.68 -0.75 10.02 -0.02 -0.03 0.05 5532
0.23 0.73 0.71 -0.71 10.04 -0.02 -0.03 0.05 5538
0.22 0.75 0.69 -0.71 10.00 -0.02 -0.03 0.05 5544
0.22 0.75 0.65 -0.71 9.98 -0.01 -0.03 0.06 5551
0.24 0.79 0.66 -0.71 9.98 -0.01 -0.03 0.06 5558
0.23 0.81 0.72 -0.69 9.98 -0.01 -0.03 0.05 5564
0.22 0.80 0.67 -0.68 10.00 -0.01 -0.03 0.05 5570
0.21 0.82 0.66 -0.68 10.04 -0.01 -0.03 0.05 5576
0.21 0.78 0.68 -0.71 9.99 -0.01 -0.03 0.05 5582
0.20 0.79 0.68 -0.69 9.98 -0.01 -0.03 0.05 5588
0.20 0.82 0.63 -0.69 10.01 -0.01 -0.02 0.05 5596
0.21 0.79 0.68 -0.71 10.02 -0.01 -0.03 0.05 5602
0.19 0.78 0.67 -0.70 9.99 -0.01 -0.02 0.05 5608
0.20 0.80 0.67 -0.69 10.02 -0.01 -0.03 0.05 5614
0.19 0.76 0.69 -0.69 9.96 -0.01 -0.02 0.05 5620
0.19 0.76 0.67 -0.67 9.94 -0.01 -0.02 0.05 5626
0.18 0.79 0.67 -0.68 9.95 -0.01 -0.02 0.05 5634
0.19 0.81 0.67 -0.75 9.98 -0.01 -0.02 0.05 5640
0.18 0.80 0.69 -0.68 9.97 -0.01 -0.02 0.05 5646
0.15 0.82 0.72 -0.71 9.98 -0.01 -0.02 0.05 5652
0.15 0.83 0.71 -0.71 9.96 -0.01 -0.03 0.05 5658
0.15 0.82 0.68 -0.68 9.98 -0.01 -0.03 0.05 5664
0.12 0.81 0.69 -0.68 9.95 -0.01 -0.02 0.05 5670
0.13 0.82 0.70 -0.69 9.98 -0.01 -0.02 0.05 5678
0.13 0.84 0.69 -0.68 9.96 -0.01 -0.02 0.05 5684
0.11 0.85 0.70 -0.66 9.92 -0.01 -0.02 0.05 5690
0.10 0.84 0.71 -0.71 9.95 -0.02 -0.02 0.05 5696
0.10 0.86 0.65 -0.72 9.92 -0.02 -0.02 0.05 5702
0.11 0.86 0.67 -0.65 9.98 -0.02 -0.02 0.05 5708
0.09 0.87 0.70 -0.70 9.99 -0.02 -0.01 0.05 5714
0.10 0.89 0.67 -0.70 9.97 -0.02 -0.01 0.05 5722
0.10 0.92 0.71 -0.69 9.99 -0.02 -0.01 0.05 5728
0.09 0.91 0.69 -0.71 9.97 -0.01 -0.01 0.05 5734
0.08 0.90 0.71 -0.69 9.95 -0.02 -0.01 0.05 5740
0.08 0.93 0.68 -0.69 10.01 -0.02 -0.01 0.05 5746
0.08 0.94 0.71 -0.67 9.97 -0.02 -0.01 0.05 5752
0.07 0.95 0.69 -0.69 9.94 -0.02 -0.01 0.05 5758
0.07 0.98 0.69 -0.68 10.00 -0.02 -0.01 0.05 5766
0.07 1.00 0.68 -0.71 10.02 -0.02 -0.01 0.04 5772
0.06 0.99 0.74 -0.66 9.96 -0.02 -0.02 0.04 5778
0.04 1.00 0.70 -0.66 9.98 -0.02 -0.02 0.04 5784
0.06 1.02 0.71 -0.68 9.96 -0.02 -0.02 0.04 5790
0.05 0.99 0.70 -0.66 9.99 -0.02 -0.02 0.04 5796
0.04 1.01 0.71 -0.67 9.94 -0.02 -0.02 0.03 5804
0.06 1.02 0.72 -0.68 9.97 -0.01 -0.02 0.04 5810
0.06 1.01 0.67 -0.66 9.98 -0.01 -0.02 0.04 5816
0.05 0.99 0.70 -0.68 9.97 -0.02 -0.02 0.04 5822
0.05 0.99 0.72 -0.68 9.97 -0.02 -0.02 0.04 5828
0.05 0.99 0.73 -0.71 10.00 -0.02 -0.02 0.04 5834
0.04 0.99 0.75 -0.68 9.93 -0.02 -0.02 0.04 5840
0.03 0.99 0.72 -0.67 9.94 -0.02 -0.02 0.04 5848
0.04 1.00 0.71 -0.63 9.95 -0.01 -0.02 0.04 5854
0.04 1.00 0.72 -0.69 10.01 -0.02 -0.02 0.04 5860
0.03 1.00 0.74 -0.66 9.93 -0.01 -0.02 0.04 5866
0.04 1.00 0.73 -0.67 9.99 -0.01 -0.03 0.04 5872
0.04 1.01 0.73 -0.68 9.98 -0.01 -0.03 0.04 5878
0.03 1.00 0.74 -0.67 10.00 -0.01 -0.03 0.04 5884
0.03 1.00 0.74 -0.65 10.04 -0.01 -0.03 0.04 5892
0.04 1.00 0.78 -0.67 9.98 -0.01 -0.03 0.04 5898
0.03 0.99 0.75 -0.64 9.97 -0.01 -0.04 0.04 5904
0.02 0.99 0.74 -0.63 9.96 -0.01 -0.05 0.04 5910
0.03 0.99 0.75 -0.66 9.96 -0.01 -0.05 0.04 5916
0.03 0.97 0.68 -0.63 9.98 -0.01 -0.05 0.04 5922
0.03 0.96 0.73 -0.65 9.96 -0.01 -0.06 0.04 5928
0.05 0.94 0.72 -0.64 9.96 -0.01 -0.05 0.04 5936
0.06 0.95 0.70 -0.67 10.01 -0.01 -0.05 0.04 5942
0.05 0.92 0.69 -0.67 9.99 -0.01 -0.06 0.04 5948
0.05 0.92 0.71 -0.67 9.94 -0.01 -0.05 0.04 5954
0.06 0.92 0.66 -0.71 9.98 -0.01 -0.05 0.04 5960
0.05 0.92 0.68 -0.66 9.98 -0.01 -0.05 0.04 5966
0.05 0.91 0.67 -0.65 9.89 -0.01 -0.04 0.04 5972
0.07 0.92 0.68 -0.65 9.96 -0.01 -0.04 0.04 5980
0.08 0.92 0.70 -0.66 9.96 -0.01 -0.04 0.04 5986
0.08 0.90 0.69 -0.67 9.97 -0.01 -0.04 0.04 5992
0.08 0.88 0.69 -0.66 9.97 -0.00 -0.04 0.04 5998
0.10 0.87 0.70 -0.66 10.00 -0.01 -0.04 0.03 6004
0.08 0.87 0.69 -0.69 9.93 -0.01 -0.04 0.03 6010
0.11 0.84 0.69 -0.68 9.97 -0.00 -0.04 0.03 6018
0.13 0.85 0.71 -0.63 9.98 -0.00 -0.04 0.00 6024
0.12 0.83 0.66 -0.67 10.00 -0.00 -0.04 0.03 6030
0.11 0.79 0.71 -0.68 9.97 -0.00 -0.04 0.03 6036
0.12 0.78 0.71 -0.66 9.98 0.00 -0.04 0.03 6042
0.12 0.76 0.70 -0.65 9.98 -0.00 -0.04 0.03 6048
0.12 0.75 0.72 -0.64 10.00 0.00 -0.04 0.03 6054
0.12 0.72 0.71 -0.66 10.03 0.00 -0.03 0.03 6062
0.15 0.72 0.69 -0.67 9.99 0.00 -0.03 0.03 6068
0.18 0.65 0.68 -0.68 9.98 0.00 -0.03 0.03 6074
0.20 0.60 0.70 -0.70 9.96 0.01 -0.03 0.03 6080
0.21 0.59 0.74 -0.70 10.01 0.01 -0.03 0.03 6086
0.23 0.54 0.77 -0.63 10.03 0.01 -0.03 0.03 6092
0.22 0.50 0.74 -0.67 9.99 0.01 -0.04 0.03 6099
0.17 0.48 0.74 -0.69 9.96 0.01 -0.03 0.03 6106
0.19 0.43 0.75 -0.74 9.99 0.01 -0.04 0.03 6112
0.17 0.36 0.70 -0.72 10.01 0.02 -0.04 0.03 6118
0.20 0.38 0.75 -0.67 10.08 0.02 -0.04 0.03 6124
0.23 0.31 0.73 -0.73 10.00 0.03 -0.04 0.03 6130
0.21 0.28 0.74 -0.72 10.00 0.03 -0.04 0.02 6137
0.22 0.23 0.70 -0.72 9.99 0.04 -0.04 0.02 6144
0.23 0.24 0.77 -0.69 10.02 0.04 -0.04 0.02 6150
0.26 0.15 0.73 -0.69 10.00 0.05 -0.03 0.01 6156
0.30 0.13 0.68 -0.71 10.01 0.06 -0.04 0.01 6162
0.31 0.10 0.74 -0.70 10.03 0.07 -0.04 -0.00 6168
0.31 0.09 0.79 -0.74 10.13 0.08 -0.03 -0.00 6175
0.33 0.04 0.83 -0.75 10.21 0.11 -0.04 -0.01 6181
0.34 -0.01 0.91 -0.79 10.29 0.16 -0.05 -0.02 6188
0.36 -0.03 0.87 -0.79 10.22 0.17 -0.06 -0.04 6194
0.42 -0.02 1.20 -0.83 10.46 0.21 -0.09 -0.07 6200
0.44 -0.03 1.43 -0.91 10.86 0.29 -0.16 -0.12 6207
0.45 -0.04 1.96 -1.22 11.05 0.40 -0.18 -0.23 6213
0.43 -0.03 4.89 -1.44 10.77 0.52 -0.29 -0.44 6219
0.40 -0.03 4.59 -2.21 11.70 0.70 -0.35 -0.69 6225
0.37 -0.03 4.00 -1.89 13.46 0.96 -0.50 -0.89 6233
0.39 -0.02 3.42 -2.10 13.63 1.22 -0.78 -1.06 6239
0.38 -0.04 3.13 -2.29 12.08 1.35 -1.06 -1.19 6245
0.36 -0.02 4.63 -3.03 12.11 1.36 -1.20 -1.35 6251
0.33 -0.02 5.37 -3.07 11.91 1.36 -1.26 -1.60 6257
0.30 -0.03 6.00 -3.32 11.67 1.35 -1.25 -1.86 6264
0.27 -0.01 6.21 -4.03 10.46 1.33 -1.19 -2.11 6270
0.21 -0.02 7.42 -3.91 10.02 1.29 -1.05 -2.40 6277
0.17 -0.01 8.37 -3.96 9.27 1.21 -0.74 -2.73 6283
0.14 0.00 8.48 -3.57 9.18 1.10 -0.39 -3.08 6289
0.10 -0.01 8.55 -3.55 9.81 0.96 -0.06 -3.39 6296
0.09 -0.01 7.27 -2.80 9.92 0.82 0.13 -3.66 6302
0.07 -0.01 7.33 -2.14 11.09 0.66 0.17 -3.88 6308
0.11 -0.01 6.21 -1.40 11.29 0.44 -0.01 -3.98 6315
0.07 -0.01 6.03 -0.93 10.62 0.23 -0.34 -4.00 6321
0.05 -0.00 4.37 -0.69 10.18 -0.01 -0.68 -3.99 6327
0.05 -0.01 5.71 0.69 10.25 -0.28 -1.04 -3.94 6333
0.05 -0.00 7.28 1.60 9.97 -0.56 -1.32 -3.75 6340
0.04 -0.00 9.13 0.73 9.36 -0.78 -1.47 -3.28 6346
0.05 -0.01 8.67 -0.31 9.82 -0.86 -1.27 -2.61 6352
0.06 -0.01 9.70 -0.71 10.78 -0.97 -0.68 -1.96 6359
0.05 -0.01 10.33 -0.17 9.30 -1.12 -0.34 -1.39 6365
0.05 -0.01 9.91 -0.61 7.79 -1.14 -0.20 -0.95 6371
0.07 -0.01 9.04 -0.30 6.20 -1.07 -0.15 -0.66 6377
0.06 -0.01 8.37 -0.47 6.12 -0.92 -0.08 -0.37 6384
0.06 -0.01 8.01 -0.52 6.66 -0.71 0.07 -0.12 6390
0.06 -0.00 7.88 -0.84 7.06 -0.50 0.36 0.09 6396
0.07 -0.00 7.58 -0.76 7.87 -0.33 0.70 0.28 6403
0.05 -0.00 7.19 -0.55 8.41 -0.17 0.99 0.43 6409
0.05 -0.00 6.32 -0.32 8.89 -0.07 1.29 0.57 6415
0.05 -0.00 5.18 -0.03 9.20 -0.02 1.48 0.65 6421
0.06 -0.01 3.96 0.11 9.69 -0.01 1.57 0.75 6427
0.05 -0.00 2.88 0.19 10.13 0.00 1.57 0.86 6433
0.04 -0.00 2.14 0.23 10.75 -0.01 1.52 0.97 6440
0.04 -0.00 1.69 0.19 11.07 -0.03 1.46 1.08 6447
0.06 -0.01 1.45 0.15 11.21 -0.08 1.38 1.17 6453
0.05 -0.00 1.20 0.06 11.39 -0.14 1.31 1.27 6459
0.04 0.00 1.16 -0.08 11.52 -0.20 1.25 1.28 6465
0.05 -0.01 1.03 -0.29 11.58 -0.26 1.20 1.30 6471
0.04 -0.00 0.86 -0.40 11.59 -0.31 1.18 1.29 6477
0.03 -0.00 0.66 -0.67 11.32 -0.35 1.19 1.25 6484
0.05 -0.00 0.38 -1.06 11.19 -0.38 1.22 1.17 6491
0.05 -0.00 0.34 -1.50 11.16 -0.40 1.23 1.07 6497
0.04 -0.00 0.21 -1.75 11.35 -0.41 1.20 0.94 6503
0.05 0.00 0.09 -2.05 11.34 -0.41 1.23 0.81 6509
0.05 -0.01 0.08 -2.13 11.36 -0.40 1.22 0.68 6515
0.05 -0.00 0.12 -2.09 11.17 -0.38 1.19 0.61 6522
0.05 -0.00 0.06 -1.92 10.80 -0.36 1.15 0.54 6529
0.06 -0.01 0.06 -1.77 10.46 -0.34 1.11 0.50 6535
0.05 -0.00 0.03 -1.71 10.29 -0.31 1.07 0.48 6541
0.04 -0.00 0.06 -1.65 10.24 -0.26 1.03 0.49 6547
0.05 -0.01 0.07 -1.52 10.15 -0.21 1.00 0.52 6553
0.05 -0.00 0.05 -1.34 10.00 -0.14 0.99 0.58 6559
0.04 -0.00 -0.08 -1.11 10.04 -0.08 0.99 0.65 6566
0.04 -0.00 -0.19 -0.84 10.13 -0.02 0.99 0.72 6573
0.06 -0.01 -0.34 -0.61 10.32 0.04 0.97 0.83 6579
0.06 -0.01 -0.41 -0.34 10.41 0.07 0.94 0.96 6585
0.05 -0.00 -0.45 -0.07 10.44 0.08 0.90 1.10 6591
0.06 0.00 -0.47 0.03 10.37 0.06 0.86 1.24 6597
0.06 -0.01 -0.48 0.08 10.45 0.03 0.80 1.38 6603
0.05 -0.01 -0.49 0.01 10.33 -0.02 0.76 1.50 6610
0.05 -0.00 -0.60 -0.61 10.37 -0.06 0.72 1.61 6617
0.05 -0.01 -0.79 -0.03 10.23 -0.10 0.70 1.73 6623
0.04 -0.00 -0.94 -0.18 10.10 -0.13 0.67 1.78 6629
0.04 -0.00 -1.06 -0.35 9.85 -0.15 0.60 1.84 6635
0.05 0.00 -1.09 -0.43 9.68 -0.17 0.50 1.90 6641
0.05 -0.01 -0.95 -0.43 9.58 -0.16 0.41 1.95 6647
0.05 -0.00 -0.91 -0.63 9.50 -0.16 0.36 1.99 6653
0.04 -0.00 -0.83 -1.07 9.21 -0.14 0.33 2.02 6660
0.05 -0.00 -0.79 -1.60 8.97 -0.12 0.31 2.03 6667
0.05 -0.00 -0.90 -2.04 9.04 -0.08 0.27 2.01 6673
0.04 -0.00 -0.95 -2.52 9.00 -0.03 0.23 1.97 6679
0.04 -0.00 -0.90 -2.99 8.61 0.06 0.20 1.93 6685
0.05 0.00 -0.71 -3.39 8.53 0.10 0.22 1.87 6691
0.05 -0.01 -0.53 -3.72 8.89 0.18 0.24 1.81 6697
0.05 -0.01 -0.45 -4.05 8.98 0.25 0.28 1.76 6704
0.04 -0.00 -0.52 -4.28 9.04 0.30 0.31 1.70 6710
0.05 -0.01 -0.52 -4.39 9.26 0.34 0.31 1.66 6716
0.05 -0.01 -0.79 -4.59 9.25 0.37 0.27 1.64 6723
0.04 -0.00 -0.90 -4.78 9.40 0.38 0.20 1.62 6729
0.04 -0.00 -0.80 -4.87 9.62 0.39 0.11 1.61 6735
0.05 0.00 -0.86 -5.13 9.33 0.39 0.06 1.61 6742
0.05 -0.01 -1.09 -5.27 8.83 0.40 -0.00 1.60 6748
0.05 -0.01 -1.81 -5.68 8.04 0.43 -0.08 1.59 6754
0.04 -0.00 -11.11 -9.52 16.09 0.91 -1.46 1.65 6760
0.06 -0.01 -7.63 -4.67 5.24 0.92 -1.92 1.69 6766
0.05 -0.00 -7.17 -5.53 5.60 0.98 -2.55 1.85 6773
0.04 -0.00 -5.83 -6.92 8.40 1.01 -3.13 1.97 6779
0.05 0.00 -8.33 -7.96 8.93 0.95 -3.66 2.03 6786
0.05 -0.01 -9.79 -8.07 7.78 0.95 -4.14 2.11 6792
0.05 0.00 -7.58 -6.78 14.25 1.24 -4.22 2.29 6798
0.04 0.10 -9.62 -5.23 10.94 2.03 -2.47 2.66 6804
0.04 0.22 -25.48 -8.82 39.99 2.05 -2.86 2.48 6811
0.02 0.36 -22.23 -0.35 21.37 0.46 -1.52 1.29 6817
0.05 0.46 -7.55 -2.45 11.61 -0.14 -0.12 0.30 6823
0.04 0.49 -2.97 0.01 10.53 -0.07 -0.10 -0.14 6830
0.04 0.48 1.96 -0.35 9.47 0.05 -0.05 -0.21 6836
0.05 0.43 3.10 -0.20 10.05 0.07 -0.03 0.07 6843
0.04 0.43 1.73 -0.37 9.84 0.04 -0.02 0.26 6849
0.06 0.39 0.74 -1.46 10.43 0.02 -0.09 0.27 6855
0.07 0.37 0.64 -1.40 9.78 0.02 -0.12 0.18 6861
0.09 0.35 0.62 -0.73 9.60 0.01 -0.09 0.15 6867
0.08 0.38 0.44 -1.40 9.81 -0.04 -0.07 0.15 6874
0.14 0.41 0.11 -1.80 9.94 -0.07 -0.05 0.08 6881
0.17 0.42 0.42 -1.10 9.89 -0.08 -0.04 0.07 6887
0.19 0.44 0.49 -0.90 9.80 -0.11 -0.04 0.08 6893
0.17 0.53 0.45 -0.93 9.94 -0.13 -0.06 0.06 6899
0.18 0.51 0.49 -0.83 10.23 -0.11 -0.06 0.05 6905
0.17 0.52 0.57 -0.72 10.31 -0.09 -0.04 0.04 6912
0.20 0.53 0.61 -0.84 9.99 -0.07 -0.04 0.04 6919
0.20 0.56 0.58 -0.91 10.08 -0.06 -0.03 0.05 6925
0.22 0.55 0.53 -0.91 10.06 -0.05 -0.03 0.05 6931
0.20 0.57 0.57 -0.91 9.99 -0.05 -0.02 0.05 6937
0.24 0.54 0.66 -0.95 10.04 -0.05 -0.02 0.05 6943
0.24 0.52 0.57 -0.80 10.10 -0.04 -0.03 0.05 6950
0.26 0.55 0.64 -0.86 10.07 -0.05 -0.02 0.05 6957
0.28 0.56 0.66 -0.83 10.04 -0.04 -0.02 0.05 6963
0.30 0.57 0.59 -0.81 10.06 -0.03 -0.02 0.05 6969
0.29 0.57 0.60 -0.82 10.07 -0.03 -0.02 0.05 6975
0.31 0.56 0.63 -0.86 10.03 -0.03 -0.02 0.05 6982
0.29 0.57 0.64 -0.85 10.02 -0.03 -0.02 0.05 6988
0.29 0.57 0.55 -0.76 10.01 -0.02 -0.03 0.05 6994
0.28 0.60 0.65 -0.85 10.04 -0.03 -0.02 0.05 7001
0.28 0.59 0.65 -0.85 10.04 -0.02 -0.03 0.05 7007
0.27 0.61 0.66 -0.86 10.05 -0.02 -0.02 0.05 7013
0.28 0.63 0.65 -0.80 10.06 -0.02 -0.03 0.05 7020
0.27 0.63 0.64 -0.82 9.92 -0.02 -0.03 0.05 7026
0.27 0.64 0.65 -0.82 10.05 -0.02 -0.03 0.05 7032
0.27 0.65 0.65 -0.84 10.02 -0.02 -0.03 0.06 7038
0.26 0.64 0.66 -0.84 10.03 -0.01 -0.03 0.05 7045
0.26 0.64 0.63 -0.83 10.01 -0.01 -0.03 0.06 7052
0.26 0.61 0.66 -0.79 10.00 -0.01 -0.04 0.06 7058
0.25 0.59 0.63 -0.85 9.99 -0.01 -0.04 0.06 7064
0.25 0.61 0.66 -0.83 10.03 -0.01 -0.03 0.05 7070
0.25 0.62 0.61 -0.81 10.01 -0.01 -0.04 0.06 7076
0.23 0.60 0.60 -0.80 9.99 -0.01 -0.03 0.05 7084
0.22 0.62 0.65 -0.82 10.00 -0.01 -0.03 0.05 7090
0.23 0.60 0.63 -0.80 9.97 -0.01 -0.03 0.05 7096
0.22 0.60 0.65 -0.81 9.95 -0.01 -0.03 0.05 7102
0.21 0.61 0.63 -0.79 10.03 -0.01 -0.03 0.05 7108
0.23 0.60 0.66 -0.83 9.98 -0.01 -0.03 0.05 7114
0.22 0.61 0.64 -0.81 10.01 -0.01 -0.03 0.05 7121
0.21 0.61 0.62 -0.81 9.99 -0.01 -0.03 0.05 7128
0.23 0.62 0.63 -0.82 9.97 -0.01 -0.03 0.05 7134
0.22 0.60 0.65 -0.80 9.97 -0.01 -0.03 0.05 7140
0.22 0.60 0.66 -0.83 9.99 -0.01 -0.03 0.05 7146
0.22 0.60 0.66 -0.83 9.98 -0.01 -0.03 0.05 7152
0.23 0.61 0.68 -0.81 9.94 -0.01 -0.03 0.04 7158
0.22 0.60 0.68 -0.79 9.97 -0.01 -0.03 0.04 7165
0.22 0.60 0.63 -0.81 9.98 -0.01 -0.03 0.05 7172
0.23 0.60 0.63 -0.81 9.96 -0.01 -0.03 0.04 7178
0.22 0.60 0.63 -0.81 9.95 -0.01 -0.03 0.04 7184
0.21 0.60 0.65 -0.81 9.96 -0.01 -0.03 0.04 7190
0.23 0.60 0.66 -0.78 9.98 -0.01 -0.03 0.04 7196
0.23 0.59 0.63 -0.81 9.99 -0.01 -0.03 0.04 7202
0.23 0.57 1.22 -0.82 9.89 -0.01 -0.03 0.04 7209
0.23 0.59 0.63 -0.79 9.97 -0.01 -0.02 0.04 7216
0.23 0.58 0.61 -0.79 9.98 -0.01 -0.03 0.04 7222
0.23 0.57 0.64 -0.80 9.96 -0.01 -0.02 0.04 7228
0.22 0.58 0.63 -0.79 9.94 -0.01 -0.02 0.04 7234
0.24 0.59 0.64 -0.80 9.94 -0.01 -0.02 0.04 7240
0.23 0.59 0.67 -0.79 10.00 -0.01 -0.02 0.04 7246
0.22 0.58 0.64 -0.84 9.96 -0.01 -0.02 0.04 7254
0.23 0.58 0.70 -0.78 9.96 -0.01 -0.02 0.04 7260
0.24 0.57 0.64 -0.79 9.98 -0.01 -0.02 0.04 7266
0.24 0.54 0.64 -0.78 9.96 -0.01 -0.02 0.04 7272
0.23 0.56 0.67 -0.80 9.98 -0.01 -0.02 0.04 7278
0.24 0.57 0.64 -0.78 9.98 -0.01 -0.02 0.04 7284
0.22 0.56 0.67 -0.81 9.98 -0.01 -0.02 0.04 7291
0.22 0.56 0.63 -0.80 9.92 -0.01 -0.02 0.04 7298
0.24 0.57 0.63 -0.79 9.97 -0.01 -0.02 0.04 7304
0.23 0.54 0.65 -0.81 9.93 -0.01 -0.02 0.04 7310
0.23 0.55 0.60 -0.81 10.00 -0.01 -0.02 0.04 7316
0.24 0.56 0.60 -0.78 9.95 -0.01 -0.02 0.04 7322
0.24 0.56 0.63 -0.79 9.99 -0.02 -0.02 0.03 7328
0.23 0.57 0.66 -0.77 10.01 -0.02 -0.01 0.04 7335
0.24 0.58 0.62 -0.80 9.92 -0.01 -0.01 0.04 7342
0.25 0.57 0.67 -0.77 9.98 -0.01 -0.01 0.04 7348
0.24 0.56 0.64 -0.80 9.96 -0.01 -0.01 0.04 7354
0.24 0.57 0.68 -0.79 10.03 -0.01 -0.02 0.04 7360
0.23 0.57 0.67 -0.81 9.96 -0.01 -0.01 0.04 7366
0.24 0.54 0.69 -0.78 9.99 -0.01 -0.02 0.04 7373
0.23 0.53 0.66 -0.81 10.01 -0.01 -0.02 0.04 7379
0.25 0.53 0.70 -0.80 9.99 -0.01 -0.02 0.04 7386
0.24 0.54 0.70 -0.77 9.94 -0.01 -0.02 0.04 7392
0.24 0.54 0.71 -0.78 9.99 -0.01 -0.03 0.04 7398
0.24 0.56 0.69 -0.81 10.01 -0.01 -0.03 0.05 7404
0.24 0.55 0.68 -0.78 9.95 -0.02 -0.03 0.05 7411
0.23 0.55 0.66 -0.81 9.96 -0.02 -0.03 0.04 7417
0.22 0.56 0.69 -0.80 9.97 -0.02 -0.04 0.04 7424
0.22 0.56 0.69 -0.79 9.97 -0.01 -0.04 0.04 7430
0.21 0.56 0.69 -0.83 9.94 -0.01 -0.04 0.04 7436
0.21 0.56 0.63 -0.78 9.97 -0.01 -0.04 0.04 7442
0.24 0.55 0.70 -0.79 10.03 -0.02 -0.04 0.04 7449
0.21 0.54 0.70 -0.78 9.96 -0.01 -0.04 0.04 7455
0.20 0.55 0.69 -0.76 10.00 -0.01 -0.05 0.05 7461
0.22 0.56 0.65 -0.75 9.97 -0.01 -0.04 0.04 7468
0.22 0.55 0.69 -0.77 9.96 -0.01 -0.04 0.04 7474
0.21 0.56 0.69 -0.77 10.02 -0.01 -0.04 0.04 7480
0.23 0.56 0.66 -0.80 10.00 -0.01 -0.05 0.04 7487
0.22 0.54 0.61 -0.79 9.81 -0.00 -0.04 0.04 7493
0.21 0.54 0.67 -0.79 9.95 -0.00 -0.04 0.04 7499
0.22 0.51 0.66 -0.77 10.00 0.00 -0.05 0.04 7505
0.24 0.47 0.64 -0.80 9.99 0.00 -0.04 0.04 7512
0.26 0.45 0.68 -0.82 9.93 0.01 -0.04 0.04 7518
0.26 0.43 0.69 -0.78 10.07 0.01 -0.04 0.03 7525
0.26 0.36 0.66 -0.78 10.05 0.02 -0.04 0.03 7531
0.28 0.34 0.69 -0.82 10.05 0.03 -0.04 0.03 7537
0.29 0.30 0.70 -0.83 9.98 0.03 -0.04 0.02 7543
0.30 0.25 0.66 -0.85 10.01 0.04 -0.04 0.02 7549
0.31 0.22 0.70 -0.79 10.03 0.05 -0.04 0.02 7556
0.30 0.21 0.69 -0.84 10.11 0.06 -0.04 0.01 7563
0.32 0.15 0.77 -0.87 10.19 0.08 -0.05 0.01 7569
0.33 0.07 0.76 -0.90 10.16 0.10 -0.05 0.00 7575
0.37 0.05 0.73 -0.91 10.18 0.14 -0.06 -0.00 7581
0.39 0.01 0.75 -0.90 10.35 0.17 -0.08 -0.01 7587
0.41 -0.01 0.77 -1.57 10.51 0.21 -0.10 -0.02 7595
0.42 0.01 1.05 -0.91 10.52 0.26 -0.14 -0.02 7601
0.47 -0.02 1.42 -1.78 10.68 0.35 -0.22 -0.10 7607
0.48 -0.03 3.16 -1.51 11.91 0.48 -0.33 -0.18 7613
0.51 -0.04 4.10 -1.96 14.06 0.78 -0.39 -0.43 7620
0.55 -0.04 3.86 -1.98 14.95 1.24 -0.49 -0.70 7626
0.52 -0.03 3.96 -2.27 15.09 1.65 -0.78 -0.91 7632
0.50 -0.03 3.83 -2.37 13.71 1.81 -1.12 -1.08 7639
0.45 -0.04 5.08 -3.08 12.81 1.83 -1.26 -1.30 7645
0.40 -0.01 5.78 -3.71 12.93 1.86 -1.30 -1.56 7652
0.38 -0.03 6.21 -3.58 12.32 1.89 -1.25 -1.85 7658
0.30 -0.02 5.86 -4.18 11.57 1.92 -1.09 -2.12 7664
0.25 -0.02 5.54 -4.12 10.85 1.90 -0.89 -2.36 7670
0.21 -0.02 5.83 -3.79 11.17 1.87 -0.70 -2.59 7677
0.14 -0.01 7.07 -4.28 11.60 1.78 -0.52 -2.80 7684
0.14 -0.01 8.58 -2.47 10.99 1.65 -0.30 -3.00 7690
0.12 -0.01 8.14 -3.20 12.17 1.55 -0.15 -3.15 7696
0.09 0.00 7.31 -1.83 13.18 1.32 -0.20 -3.27 7702
0.07 -0.01 7.03 -0.66 13.32 1.01 -0.48 -3.37 7709
0.05 -0.00 6.48 0.23 12.48 0.66 -0.85 -3.47 7715
0.07 0.01 6.50 2.21 10.77 0.25 -1.37 -3.53 7721
0.05 -0.01 8.30 4.48 8.52 -0.18 -1.82 -3.48 7728
0.05 -0.00 10.50 4.57 6.73 -0.53 -1.98 -3.27 7734
0.05 -0.00 10.85 2.41 6.50 -0.69 -1.70 -2.78 7740
0.07 -0.00 12.54 1.77 9.49 -0.78 -0.93 -2.30 7747
0.05 -0.00 13.38 2.68 9.46 -0.88 -0.22 -1.87 7753
0.05 0.00 12.51 3.23 8.00 -0.83 0.21 -1.57 7759
0.07 -0.01 10.69 3.13 6.69 -0.77 0.46 -1.37 7766
0.07 -0.01 9.19 3.26 5.70 -0.76 0.65 -1.23 7772
0.06 -0.01 8.30 3.29 5.93 -0.74 0.81 -1.11 7778
0.06 -0.00 7.55 2.95 6.82 -0.70 1.03 -1.01 7785
0.05 -0.01 7.15 2.46 7.90 -0.64 1.27 -1.00 7791
0.06 -0.01 6.55 2.05 7.70 -0.59 1.47 -0.99 7797
0.06 -0.00 5.71 1.73 7.80 -0.57 1.66 -0.99 7803
0.07 -0.01 4.52 1.71 8.06 -0.56 1.83 -0.99 7810
0.06 -0.01 3.67 1.60 8.71 -0.55 1.96 -0.99 7816
0.05 -0.01 2.48 1.31 9.48 -0.54 1.98 -0.98 7822
0.06 -0.00 2.34 1.17 10.06 -0.52 1.92 -0.96 7828
0.06 -0.01 1.63 1.07 10.37 -0.52 1.80 -0.93 7835
0.06 -0.01 1.20 1.09 10.53 -0.52 1.70 -0.89 7841
0.06 -0.01 1.07 1.08 10.66 -0.53 1.66 -0.84 7847
0.07 -0.00 1.10 0.87 10.87 -0.56 1.67 -0.79 7854
0.07 -0.01 1.08 0.62 11.12 -0.59 1.74 -0.75 7860
0.06 0.00 0.94 0.40 11.41 -0.62 1.82 -0.72 7866
0.07 -0.00 0.47 0.06 11.58 -0.63 1.92 -0.70 7873
0.06 -0.01 -0.05 -0.21 11.71 -0.64 2.01 -0.67 7879
0.05 -0.01 -0.45 -0.53 11.85 -0.63 2.06 -0.65 7885
0.07 -0.00 -0.93 -0.78 12.09 -0.61 2.06 -0.61 7891
0.05 -0.01 -1.48 -0.95 12.23 -0.58 2.01 -0.56 7898
0.05 -0.01 -2.11 -1.09 12.34 -0.55 1.92 -0.46 7905
0.07 -0.00 -2.64 -1.18 11.73 -0.52 1.80 -0.33 7911
0.05 -0.01 -3.01 -1.32 12.35 -0.49 1.66 -0.18 7917
0.05 -0.00 -3.18 -1.53 12.21 -0.46 1.48 -0.03 7923
0.06 -0.01 -3.19 -1.85 11.95 -0.44 1.31 0.12 7929
0.05 -0.01 -3.08 -2.16 11.82 -0.40 1.16 0.26 7936
0.04 -0.00 -2.81 -2.45 11.67 -0.36 1.04 0.40 7943
0.05 -0.00 -2.55 -2.61 11.52 -0.29 0.95 0.53 7949
0.05 -0.00 -2.19 -2.62 11.43 -0.22 0.89 0.66 7955
0.04 -0.00 -2.00 -2.52 11.25 -0.16 0.85 0.79 7961
0.05 0.00 -1.89 -2.33 11.02 -0.11 0.81 0.93 7967
0.04 -0.00 -1.84 -2.24 10.94 -0.08 0.74 1.08 7973
0.04 -0.00 -1.69 -2.13 10.80 -0.06 0.65 1.19 7981
0.05 0.00 -1.52 -2.04 10.75 -0.03 0.55 1.33 7987
0.05 -0.00 -1.29 -2.00 10.55 -0.02 0.46 1.47 7993
0.04 -0.00 -0.99 -2.02 10.28 -0.01 0.39 1.59 7999
0.05 -0.00 -0.75 -2.10 9.98 0.00 0.32 1.69 8005
0.06 -0.00 -0.55 -2.11 9.75 0.01 0.27 1.77 8011
0.05 -0.00 -0.35 -2.02 9.43 0.03 0.23 1.83 8017
0.05 -0.00 -0.39 -1.91 9.54 0.05 0.18 1.87 8024
0.05 -0.00 -0.30 -1.70 9.58 0.07 0.16 1.92 8031
0.05 -0.00 -0.28 -1.48 9.58 0.09 0.14 1.96 8037
0.05 -0.00 -0.17 -1.28 9.64 0.09 0.11 2.02 8043
0.05 -0.00 -0.13 -1.06 9.61 0.09 0.07 2.06 8049
0.05 -0.00 -0.02 -1.09 9.71 0.08 0.03 2.10 8055
0.05 -0.01 0.10 -1.12 9.74 0.06 -0.01 2.13 8061
0.05 -0.00 0.25 -1.26 9.74 0.03 -0.05 2.14 8068
0.05 -0.00 0.32 -1.43 9.67 0.02 -0.05 2.15 8074
0.04 -0.00 0.37 -1.79 9.50 0.01 -0.05 2.15 8080
0.05 0.01 0.34 -2.18 9.22 0.02 -0.04 2.13 8086
0.05 -0.01 0.37 -2.65 9.01 0.06 -0.03 2.10 8093
0.06 -0.01 0.34 -3.12 8.76 0.12 -0.03 2.07 8099
0.05 -0.00 0.48 -3.50 8.89 0.20 -0.04 2.02 8105
0.06 0.00 0.70 -3.94 9.08 0.27 -0.04 1.96 8112
0.06 -0.00 -2.48 -6.07 11.79 0.41 -0.34 1.93 8118
0.06 -0.01 -4.72 -6.12 13.35 0.67 -1.27 1.95 8124
0.05 -0.00 -3.47 -4.61 9.10 0.64 -1.67 2.01 8130
0.06 -0.01 -0.72 -4.48 7.03 0.56 -1.84 2.06 8136
0.05 -0.01 -1.57 -6.06 9.81 0.46 -1.98 2.10 8143
0.04 -0.00 -2.86 -6.66 10.62 0.42 -2.11 2.10 8150
0.05 -0.01 -5.89 -7.25 10.21 0.46 -2.14 2.12 8156
0.05 -0.01 -5.79 -7.34 9.19 0.58 -2.21 2.23 8162
0.05 -0.00 -7.41 -8.45 9.01 0.83 -2.18 2.46 8168
0.06 0.02 -8.79 -7.99 9.40 1.20 -1.52 2.91 8174
0.05 0.03 -9.73 -5.31 9.96 1.37 -1.61 3.34 8181
0.05 0.05 -9.01 -1.49 13.30 1.60 -1.85 3.23 8187
0.04 0.12 -26.32 -7.71 31.72 1.54 -1.95 2.82 8194
0.03 0.15 -22.82 -2.31 13.28 0.44 -0.89 1.66 8200
0.03 0.23 -9.70 -3.23 10.67 0.00 -0.21 0.40 8206
0.06 0.20 -3.73 0.02 10.31 -0.11 -0.00 -0.07 8213
0.05 0.21 -0.01 -0.42 9.53 -0.02 0.13 -0.34 8219
0.04 0.23 4.06 -0.29 10.74 0.01 0.06 -0.19 8225
0.06 0.30 2.72 -0.81 9.78 -0.05 -0.01 0.09 8231
0.07 0.27 1.91 -0.40 9.91 -0.05 0.01 0.26 8238
0.05 0.32 0.31 -1.83 10.49 -0.03 -0.00 0.25 8245
0.07 0.34 0.40 -0.83 9.92 -0.01 -0.03 0.09 8251
0.10 0.35 1.01 -0.47 9.80 -0.02 -0.03 0.08 8257
0.10 0.32 0.81 -1.22 9.83 -0.03 -0.02 0.11 8263
0.12 0.31 0.29 -1.24 10.29 -0.04 -0.02 0.08 8269
0.12 0.31 0.50 -0.80 10.08 -0.06 -0.03 0.06 8275
0.13 0.29 0.70 -0.85 9.89 -0.06 -0.02 0.06 8282
0.12 0.31 0.70 -0.94 9.89 -0.08 -0.03 0.06 8289
0.18 0.33 0.68 -0.81 10.15 -0.09 -0.05 0.06 8295
0.19 0.35 0.61 -0.77 9.92 -0.09 -0.05 0.05 8301
0.20 0.37 0.68 -0.86 10.02 -0.09 -0.06 0.04 8307
0.20 0.42 0.66 -0.97 9.95 -0.08 -0.04 0.03 8313
0.21 0.41 0.60 -0.83 10.14 -0.07 -0.04 0.05 8321
0.22 0.41 0.66 -0.80 10.11 -0.06 -0.03 0.06 8327
0.23 0.39 0.67 -0.80 10.05 -0.05 -0.03 0.06 8333
0.24 0.38 0.78 -0.84 10.11 -0.04 -0.02 0.06 8339
0.25 0.40 0.75 -0.77 9.98 -0.04 -0.03 0.07 8345
0.27 0.41 0.71 -0.77 10.09 -0.03 -0.02 0.07 8351
0.29 0.39 0.75 -0.76 10.04 -0.03 -0.03 0.07 8358
0.29 0.40 0.75 -0.79 9.99 -0.03 -0.02 0.07 8365
0.30 0.38 0.75 -0.82 10.06 -0.03 -0.03 0.07 8371
0.29 0.37 0.77 -0.82 9.93 -0.03 -0.03 0.07 8377
0.30 0.37 0.73 -0.81 9.98 -0.04 -0.03 0.06 8383
0.32 0.40 0.70 -0.77 9.95 -0.03 -0.03 0.06 8389
0.31 0.38 0.76 -0.77 10.01 -0.03 -0.04 0.06 8396
0.31 0.39 0.72 -0.73 10.05 -0.03 -0.03 0.06 8402
0.34 0.41 0.71 -0.73 9.96 -0.02 -0.03 0.05 8409
0.34 0.38 0.73 -0.76 10.07 -0.02 -0.03 0.05 8415
0.34 0.38 0.72 -0.75 9.95 -0.02 -0.03 0.05 8421
0.36 0.36 0.68 -0.74 10.01 -0.01 -0.03 0.05 8428
0.39 0.35 0.68 -0.72 9.94 -0.01 -0.03 0.05 8434
0.39 0.36 0.68 -0.73 10.02 -0.01 -0.02 0.06 8440
0.40 0.36 0.63 -0.75 10.00 -0.00 -0.02 0.06 8446
0.42 0.36 0.71 -0.75 10.05 -0.01 -0.03 0.06 8453
0.42 0.33 0.72 -0.73 9.98 -0.01 -0.03 0.06 8459
0.45 0.34 0.72 -0.75 9.96 -0.01 -0.03 0.05 8466
0.46 0.32 0.74 -0.74 9.99 -0.00 -0.03 0.06 8472
0.45 0.31 0.76 -0.74 10.03 -0.00 -0.03 0.05 8478
0.46 0.29 0.76 -0.75 9.98 -0.01 -0.03 0.05 8484
0.47 0.31 0.77 -0.74 10.03 -0.01 -0.03 0.06 8491
0.46 0.27 0.81 -0.74 9.96 -0.01 -0.04 0.05 8497
0.46 0.27 0.70 -0.75 9.98 -0.01 -0.04 0.05 8504
0.48 0.30 0.72 -0.74 10.00 -0.01 -0.04 0.05 8510
0.49 0.27 0.70 -0.73 10.00 -0.01 -0.04 0.05 8516
0.49 0.25 0.74 -0.77 10.07 -0.01 -0.04 0.06 8522
0.50 0.27 0.70 -0.73 10.01 -0.01 -0.04 0.05 8528
0.49 0.24 0.75 -0.74 9.99 -0.01 -0.04 0.05 8536
0.49 0.28 0.74 -0.75 10.00 -0.00 -0.05 0.05 8542
0.50 0.29 0.69 -0.72 9.97 -0.00 -0.04 0.05 8548
0.50 0.22 0.73 -0.75 9.97 -0.01 -0.04 0.05 8554
0.50 0.22 0.72 -0.75 9.97 -0.00 -0.04 0.05 8560
0.50 0.23 0.74 -0.74 9.98 -0.00 -0.04 0.04 8566
0.51 0.23 0.73 -0.74 10.00 -0.00 -0.04 0.04 8572
0.51 0.22 0.74 -0.75 9.98 -0.00 -0.04 0.04 8580
0.52 0.22 0.68 -0.76 9.97 -0.00 -0.04 0.04 8586
0.54 0.22 0.69 -0.75 9.93 -0.00 -0.04 0.04 8592
0.53 0.23 0.67 -0.73 9.98 -0.00 -0.04 0.04 8598
0.52 0.21 0.72 -0.77 9.99 -0.00 -0.04 0.03 8604
0.54 0.20 0.67 -0.74 9.97 0.00 -0.03 0.04 8610
0.52 0.23 0.70 -0.75 10.00 -0.00 -0.03 0.04 8617
0.53 0.22 0.70 -0.73 9.98 -0.00 -0.03 0.03 8624
0.54 0.22 0.70 -0.75 9.95 -0.00 -0.03 0.03 8630
0.57 0.20 0.74 -0.77 9.99 -0.00 -0.03 0.03 8636
0.56 0.20 0.72 -0.76 9.97 -0.00 -0.03 0.03 8642
0.56 0.24 0.74 -0.76 9.96 -0.01 -0.03 0.03 8648
0.57 0.24 0.71 -0.74 9.98 -0.01 -0.03 0.03 8654
0.56 0.22 0.74 -0.76 9.92 -0.01 -0.03 0.03 8662
0.55 0.23 0.71 -0.78 9.94 -0.01 -0.03 0.04 8668
0.57 0.23 0.71 -0.75 9.98 -0.01 -0.03 0.03 8674
0.56 0.23 0.71 -0.75 10.04 -0.01 -0.03 0.03 8680
0.55 0.24 0.72 -0.75 9.98 -0.01 -0.03 0.03 8686
0.56 0.26 0.72 -0.75 9.98 -0.01 -0.03 0.03 8692
0.57 0.25 0.77 -0.75 9.99 -0.01 -0.03 0.03 8698
0.56 0.26 0.70 -0.74 9.97 -0.01 -0.04 0.03 8706
0.56 0.27 0.68 -0.74 9.99 -0.01 -0.03 0.03 8712
0.56 0.26 0.69 -0.76 9.94 -0.02 -0.03 0.03 8718
0.56 0.25 0.69 -0.72 9.97 -0.02 -0.03 0.03 8724
0.54 0.27 0.70 -0.73 10.01 -0.02 -0.03 0.03 8730
0.55 0.28 0.73 -0.75 10.07 -0.02 -0.03 0.03 8736
0.53 0.28 0.71 -0.73 9.91 -0.02 -0.03 0.03 8743
0.51 0.27 0.73 -0.73 9.97 -0.01 -0.03 0.03 8750
0.54 0.26 0.71 -0.72 9.99 -0.02 -0.03 0.03 8756
0.51 0.27 0.69 -0.74 9.97 -0.02 -0.03 0.03 8762
0.51 0.27 0.76 -0.72 9.99 -0.02 -0.04 0.03 8768
0.50 0.28 0.72 -0.74 9.95 -0.02 -0.04 0.03 8774
0.50 0.30 0.66 -0.80 10.00 -0.02 -0.03 0.03 8781
0.47 0.29 0.71 -0.73 9.96 -0.02 -0.04 0.03 8787
0.48 0.30 0.67 -0.74 9.96 -0.03 -0.04 0.03 8794
0.48 0.32 0.71 -0.76 10.01 -0.03 -0.04 0.04 8800
0.45 0.34 0.68 -0.72 9.98 -0.03 -0.04 0.04 8806
0.45 0.37 0.66 -0.74 10.02 -0.02 -0.04 0.04 8812
0.46 0.41 0.67 -0.75 9.98 -0.02 -0.04 0.04 8819
0.44 0.38 0.69 -0.73 9.94 -0.02 -0.04 0.04 8825
0.42 0.36 0.74 -0.71 9.99 -0.01 -0.04 0.03 8832
0.42 0.37 0.75 -0.69 10.01 -0.01 -0.04 0.03 8838
0.43 0.37 0.71 -0.68 9.98 0.00 -0.04 0.03 8844
0.42 0.35 0.72 -0.73 10.07 0.01 -0.03 0.03 8850
0.44 0.33 0.75 -0.71 9.99 0.01 -0.04 0.02 8857
0.44 0.29 0.72 -0.74 10.01 0.01 -0.03 0.02 8863
0.43 0.26 0.80 -0.77 10.02 0.02 -0.03 0.01 8869
0.44 0.24 0.74 -0.78 10.05 0.03 -0.03 0.01 8876
0.47 0.19 0.76 -0.77 10.13 0.05 -0.03 0.01 8882
0.48 0.12 0.80 -0.82 10.08 0.06 -0.04 0.00 8888
0.49 0.08 0.83 -0.82 10.18 0.08 -0.04 -0.01 8895
0.51 0.04 0.83 -0.74 10.28 0.11 -0.05 -0.02 8901
0.52 0.00 0.81 -0.78 10.37 0.15 -0.06 -0.04 8907
0.55 -0.01 1.00 -0.85 10.52 0.19 -0.08 -0.05 8913
0.56 -0.03 1.15 -1.03 10.78 0.26 -0.11 -0.09 8920
0.58 -0.04 1.72 -1.24 11.02 0.37 -0.16 -0.18 8927
0.61 -0.04 3.39 -1.65 11.40 0.52 -0.24 -0.36 8933
0.63 -0.05 4.33 -2.15 12.01 0.71 -0.33 -0.62 8939
0.64 -0.03 3.92 -1.84 14.26 1.01 -0.45 -0.88 8945
0.64 -0.04 2.89 -1.16 15.73 1.43 -0.62 -1.04 8952
0.63 -0.04 3.40 -2.09 13.62 1.69 -0.87 -1.21 8958
0.62 -0.03 4.72 -2.90 13.06 1.79 -0.96 -1.39 8965
0.51 -0.03 5.50 -2.83 12.54 1.85 -1.02 -1.61 8971
0.47 -0.02 5.53 -3.21 12.62 1.91 -1.03 -1.90 8978
0.44 -0.02 5.31 -3.15 11.75 1.95 -1.00 -2.11 8984
0.38 -0.04 5.87 -4.02 11.44 1.91 -0.91 -2.31 8990
0.31 -0.02 5.79 -3.97 10.87 1.89 -0.80 -2.53 8996
0.26 -0.02 6.61 -3.88 10.52 1.83 -0.64 -2.74 9003
0.24 -0.02 6.31 -4.05 10.53 1.76 -0.48 -2.96 9010
0.19 -0.01 6.80 -3.04 11.58 1.64 -0.30 -3.18 9016
0.14 -0.01 6.49 -3.11 11.32 1.49 -0.13 -3.36 9022
0.10 -0.01 7.16 -1.38 11.27 1.34 -0.01 -3.49 9028
0.08 -0.01 6.79 -0.46 10.68 1.16 0.11 -3.58 9034
0.06 -0.01 6.14 0.37 11.01 0.96 0.10 -3.63 9041
0.07 -0.01 5.40 2.20 11.83 0.65 -0.01 -3.71 9048
0.07 -0.00 4.80 2.69 11.57 0.25 -0.21 -3.82 9054
0.06 -0.01 4.10 4.03 10.73 -0.15 -0.51 -3.93 9060
0.05 -0.00 3.94 6.01 8.54 -0.52 -0.86 -3.99 9066
0.05 -0.01 3.85 5.19 6.51 -0.79 -0.99 -3.95 9072
0.06 -0.01 4.76 2.61 7.39 -0.95 -0.77 -3.78 9078
0.04 -0.00 6.17 1.90 9.66 -1.21 -0.24 -3.55 9085
0.04 -0.00 6.48 2.53 8.52 -1.33 0.22 -3.28 9092
0.06 0.00 6.28 2.17 8.02 -1.25 0.41 -3.01 9098
0.05 -0.01 5.64 1.18 6.50 -1.08 0.44 -2.75 9104
0.05 -0.00 5.30 0.92 6.03 -0.91 0.42 -2.47 9110
0.04 -0.00 5.28 1.00 6.31 -0.73 0.43 -2.16 9116
0.05 -0.01 5.65 0.81 7.28 -0.57 0.49 -1.79 9122
0.05 -0.01 6.29 0.50 7.37 -0.47 0.58 -1.43 9128
0.06 -0.01 6.52 0.58 8.24 -0.42 0.68 -1.10 9135
0.05 -0.01 6.56 0.49 8.50 -0.38 0.82 -0.80 9142
0.05 0.00 6.18 0.25 8.74 -0.37 0.98 -0.55 9148
0.05 -0.01 5.54 -0.18 9.05 -0.35 1.19 -0.36 9154
0.05 -0.01 4.80 -0.52 9.79 -0.34 1.38 -0.16 9160
0.05 -0.01 4.00 -0.76 10.29 -0.34 1.51 0.00 9166
0.06 -0.01 3.07 -0.83 10.58 -0.35 1.57 0.15 9172
0.05 -0.01 2.20 -0.95 10.81 -0.38 1.55 0.28 9179
0.05 -0.00 1.61 -1.11 10.95 -0.43 1.49 0.39 9185
0.06 -0.00 1.19 -1.26 11.11 -0.47 1.34 0.47 9192
0.06 -0.01 1.02 -1.15 11.03 -0.51 1.27 0.53 9198
0.05 -0.00 0.82 -1.09 10.42 -0.52 1.21 0.55 9204
0.06 0.00 0.64 -1.22 9.90 -0.52 1.24 0.56 9210
0.06 -0.01 0.63 -1.50 9.84 -0.48 1.35 0.54 9217
0.05 -0.01 0.61 -1.88 10.04 -0.41 1.48 0.48 9223
0.05 -0.01 0.67 -2.26 10.51 -0.33 1.60 0.38 9230
0.06 -0.01 0.58 -2.50 10.88 -0.28 1.69 0.26 9236
0.05 -0.00 0.24 -2.55 11.09 -0.22 1.74 0.14 9242
0.04 -0.00 -0.12 -2.54 11.23 -0.20 1.77 0.04 9248
0.05 -0.01 -0.47 -2.47 11.63 -0.19 1.74 -0.04 9254
0.04 -0.00 -0.70 -2.55 11.80 -0.19 1.64 -0.08 9261
0.04 -0.00 -0.56 -2.66 11.91 -0.21 1.47 -0.11 9267
0.05 -0.00 -0.06 -2.62 11.93 -0.24 1.27 -0.12 9274
0.05 -0.00 0.52 -2.51 11.88 -0.27 1.08 -0.11 9280
0.05 -0.00 1.18 -2.41 11.46 -0.29 0.97 -0.06 9286
0.05 -0.00 1.61 -2.36 11.03 -0.31 0.93 0.02 9292
0.05 -0.01 1.90 -2.12 10.62 -0.32 0.95 0.10 9298
0.05 -0.00 1.74 -1.89 10.32 -0.30 1.00 0.21 9305
0.05 -0.00 1.35 -1.76 10.08 -0.27 1.11 0.33 9312
0.06 -0.01 0.75 -1.60 10.27 -0.23 1.21 0.44 9318
0.05 -0.00 0.20 -1.39 10.50 -0.19 1.24 0.56 9324
0.03 -0.00 -0.20 -0.97 10.70 -0.16 1.19 0.69 9330
0.05 -0.00 -0.59 -0.61 10.72 -0.16 1.10 0.81 9336
0.05 -0.00 -0.91 -0.49 10.65 -0.18 1.01 0.93 9342
0.05 -0.00 -1.15 -0.62 10.62 -0.20 0.91 1.03 9350
0.04 -0.00 -1.31 -0.90 10.81 -0.22 0.79 1.11 9356
0.05 -0.01 -1.28 -1.20 10.86 -0.23 0.69 1.17 9362
0.04 -0.00 -1.14 -1.56 10.68 -0.25 0.57 1.21 9368
0.05 -0.00 -0.84 -2.39 10.31 -0.27 0.46 1.25 9374
0.06 -0.01 -0.39 -2.16 9.94 -0.29 0.37 1.28 9380
0.05 -0.00 0.02 -2.60 9.47 -0.30 0.32 1.30 9387
0.05 -0.00 0.36 -2.98 9.19 -0.28 0.34 1.31 9393
0.04 -0.00 0.40 -3.25 8.97 -0.21 0.45 1.31 9400
0.06 -0.01 0.01 -3.36 8.82 -0.18 0.59 1.30 9406
0.05 -0.00 -0.69 -3.25 8.83 -0.10 0.71 1.30 9412
0.05 -0.00 -1.63 -3.18 8.95 -0.01 0.79 1.30 9418
0.05 -0.00 -2.57 -3.19 9.08 0.05 0.78 1.30 9424
0.06 -0.01 -3.31 -3.20 9.30 0.10 0.68 1.29 9431
0.05 -0.00 -3.82 -3.38 9.43 0.12 0.53 1.27 9437
0.05 -0.00 -4.02 -3.63 9.49 0.13 0.36 1.27 9443
0.05 -0.00 -4.02 -3.96 9.61 0.14 0.22 1.27 9449
0.05 -0.01 -3.77 -4.24 9.72 0.14 0.07 1.30 9455
0.05 -0.00 -3.17 -4.63 9.75 0.15 -0.04 1.28 9462
0.05 -0.00 -2.71 -4.83 9.53 0.14 -0.12 1.32 9468
0.05 -0.01 -2.58 -4.90 9.24 0.14 -0.17 1.36 9475
0.06 -0.01 -2.65 -5.05 8.71 0.15 -0.22 1.43 9481
0.05 -0.00 -2.81 -5.33 8.22 0.21 -0.26 1.49 9487
0.04 -0.00 -2.84 -5.65 7.89 0.29 -0.31 1.55 9493
0.05 -0.01 -2.78 -5.83 7.72 0.40 -0.34 1.59 9499
0.06 -0.01 -2.85 -6.02 7.66 0.53 -0.36 1.63 9505
0.05 -0.00 -11.05 -7.06 15.63 0.86 -1.13 1.73 9512
0.04 -0.00 -12.16 -5.02 12.03 1.27 -3.28 2.09 9519
0.06 -0.01 -10.21 -2.76 6.17 1.15 -3.92 2.42 9525
0.05 -0.00 -7.42 -2.39 7.84 1.00 -4.28 2.74 9531
0.04 -0.00 -5.71 -2.68 12.98 0.80 -4.28 2.86 9537
0.05 0.01 -1.60 17.85 36.39 0.95 -4.21 2.43 9544
0.04 0.04 -16.55 1.83 29.53 1.27 -2.92 1.88 9550
0.04 0.13 -13.23 2.13 16.03 0.23 -1.20 1.06 9556
0.04 0.23 -8.21 0.06 12.75 -0.24 -0.16 0.32 9563
0.04 0.27 -1.90 0.00 11.32 -0.20 -0.06 -0.07 9570
0.04 0.38 0.58 -0.57 10.76 -0.02 0.00 -0.05 9576
0.06 0.30 2.55 -0.55 10.66 0.07 -0.05 0.03 9582
0.04 0.29 2.09 -0.38 9.80 0.07 -0.07 0.17 9588
0.07 0.25 2.04 -0.12 9.79 0.06 -0.08 0.26 9594
0.08 0.22 1.19 0.10 9.88 0.03 -0.07 0.31 9601
0.10 0.20 0.43 -0.47 9.90 0.00 -0.07 0.28 9607
0.13 0.20 -0.02 -0.81 9.86 -0.02 -0.06 0.23 9614
0.13 0.20 0.30 -1.76 9.77 -0.08 -0.06 0.20 9620
0.18 0.23 0.40 -1.82 9.77 -0.10 -0.05 0.17 9626
0.15 0.24 0.32 -1.12 9.59 -0.14 -0.04 0.12 9632
0.22 0.31 0.53 -0.96 9.82 -0.17 -0.03 0.11 9638
0.22 0.35 0.46 -0.92 10.09 -0.20 -0.04 0.09 9645
0.21 0.45 0.79 -1.26 10.20 -0.20 -0.05 0.10 9652
0.22 0.48 0.63 -0.50 10.31 -0.17 -0.07 0.07 9658
0.23 0.46 0.54 -0.58 10.22 -0.12 -0.06 0.06 9664
0.23 0.49 0.53 -0.56 10.10 -0.09 -0.04 0.06 9670
0.25 0.50 0.52 -0.73 10.11 -0.06 -0.03 0.06 9676
0.25 0.49 0.65 -0.81 10.06 -0.05 -0.02 0.06 9683
0.27 0.48 0.66 -0.66 10.02 -0.04 -0.03 0.06 9690
0.31 0.47 0.70 -0.77 9.94 -0.04 -0.04 0.06 9696
0.34 0.44 0.69 -0.74 10.09 -0.04 -0.04 0.06 9702
0.35 0.42 0.72 -0.74 10.02 -0.04 -0.05 0.06 9708
0.40 0.47 0.72 -0.67 10.05 -0.03 -0.05 0.06 9715
0.40 0.44 0.76 -0.71 10.03 -0.03 -0.05 0.06 9721
0.42 0.45 0.77 -0.78 10.08 -0.03 -0.05 0.05 9728
0.44 0.43 0.77 -0.75 9.94 -0.03 -0.05 0.05 9734
0.45 0.44 0.76 -0.71 9.99 -0.03 -0.06 0.04 9740
0.46 0.42 0.66 -0.73 9.99 -0.03 -0.05 0.04 9746
0.49 0.47 0.68 -0.69 10.04 -0.03 -0.05 0.04 9753
0.49 0.47 0.67 -0.68 9.98 -0.03 -0.05 0.04 9759
0.49 0.49 0.69 -0.66 10.02 -0.03 -0.05 0.03 9765
0.50 0.50 0.69 -0.66 10.03 -0.02 -0.05 0.04 9772
0.50 0.49 0.70 -0.67 10.02 -0.02 -0.04 0.04 9778
0.50 0.50 0.64 -0.68 10.00 -0.02 -0.04 0.04 9785
0.52 0.48 0.65 -0.67 10.01 -0.01 -0.04 0.04 9791
0.52 0.45 0.67 -0.66 10.08 -0.01 -0.04 0.04 9797
0.49 0.43 0.63 -0.67 10.02 -0.01 -0.04 0.04 9803
0.51 0.45 0.69 -0.66 9.95 -0.01 -0.03 0.04 9809
0.51 0.44 0.67 -0.68 10.01 -0.01 -0.04 0.04 9817
0.50 0.42 0.68 -0.67 10.01 -0.00 -0.03 0.04 9823
0.52 0.43 0.70 -0.67 9.93 -0.01 -0.03 0.04 9829
0.51 0.44 0.74 -0.67 10.02 -0.01 -0.04 0.04 9835
0.51 0.45 0.71 -0.67 9.99 -0.01 -0.04 0.04 9841
0.51 0.47 0.69 -0.68 10.00 -0.01 -0.04 0.03 9847
0.51 0.42 0.69 -0.70 9.98 -0.01 -0.04 0.03 9854
0.51 0.43 0.73 -0.66 9.98 -0.01 -0.04 0.03 9861
0.52 0.47 0.67 -0.70 9.99 -0.01 -0.04 0.03 9867
0.53 0.45 0.68 -0.68 10.01 -0.01 -0.04 0.03 9873
0.52 0.45 0.68 -0.67 10.00 -0.01 -0.04 0.03 9879
0.53 0.45 0.64 -0.69 10.00 -0.01 -0.03 0.03 9885
0.53 0.45 0.66 -0.66 9.98 -0.01 -0.03 0.03 9892
0.53 0.43 0.68 -0.68 9.99 -0.01 -0.03 0.03 9899
0.53 0.46 0.67 -0.67 10.01 -0.01 -0.03 0.03 9905
0.53 0.45 0.67 -0.65 9.97 -0.01 -0.03 0.03 9911
0.53 0.43 0.66 -0.67 10.01 -0.01 -0.03 0.03 9917
0.53 0.44 0.68 -0.65 10.00 -0.01 -0.03 0.03 9923
0.54 0.44 0.71 -0.67 9.98 -0.01 -0.03 0.03 9930
0.54 0.45 0.69 -0.66 9.97 -0.01 -0.04 0.03 9936
0.52 0.46 0.70 -0.68 10.04 -0.01 -0.03 0.03 9943
0.53 0.47 0.66 -0.68 10.03 -0.01 -0.03 0.03 9949
0.52 0.48 0.66 -0.67 9.98 -0.01 -0.03 0.03 9955
0.52 0.49 0.70 -0.66 10.03 -0.02 -0.04 0.03 9962
0.53 0.50 0.71 -0.66 10.00 -0.01 -0.03 0.03 9968
0.52 0.50 0.71 -0.69 10.01 -0.01 -0.04 0.03 9974
0.51 0.52 0.66 -0.68 10.01 -0.02 -0.03 0.03 9980
0.52 0.52 0.67 -0.68 10.03 -0.02 -0.04 0.03 9987
0.50 0.51 0.65 -0.65 10.00 -0.02 -0.04 0.03 9993
0.48 0.54 0.68 -0.67 9.99 -0.02 -0.04 0.03 10000
0.49 0.56 0.64 -0.65 10.01 -0.02 -0.04 0.03 10006
0.47 0.57 0.68 -0.67 9.97 -0.02 -0.04 0.03 10012
0.45 0.60 0.67 -0.68 9.95 -0.02 -0.04 0.03 10018
0.43 0.59 0.67 -0.63 10.00 -0.02 -0.04 0.03 10025
0.41 0.57 0.67 -0.67 9.99 -0.02 -0.04 0.03 10032
0.41 0.62 0.64 -0.64 9.98 -0.02 -0.03 0.03 10038
0.39 0.62 0.66 -0.63 10.01 -0.01 -0.03 0.03 10044
0.38 0.62 0.66 -0.63 9.93 -0.01 -0.04 0.03 10050
0.39 0.61 0.65 -0.64 9.94 -0.02 -0.03 0.03 10057
0.35 0.61 0.67 -0.65 9.99 -0.01 -0.03 0.03 10063
0.35 0.62 0.66 -0.68 9.97 -0.02 -0.03 0.03 10070
0.36 0.66 0.68 -0.67 9.99 -0.02 -0.03 0.02 10076
0.35 0.65 0.67 -0.66 9.93 -0.01 -0.03 0.03 10082
0.34 0.67 0.67 -0.62 9.98 -0.02 -0.04 0.02 10089
0.35 0.66 0.65 -0.65 10.00 -0.01 -0.04 0.02 10095
0.33 0.65 0.68 -0.65 10.02 -0.01 -0.03 0.02 10101
0.34 0.69 0.69 -0.67 9.99 -0.01 -0.03 0.02 10107
0.32 0.69 0.68 -0.63 9.99 -0.01 -0.03 0.02 10114
0.28 0.69 0.63 -0.62 9.96 -0.01 -0.07 0.02 10121
0.28 0.70 0.63 -0.63 9.98 -0.01 -0.00 0.02 10127
0.28 0.69 0.63 -0.67 10.00 -0.01 -0.04 0.01 10133
0.26 0.71 0.68 -0.65 9.97 -0.02 -0.04 0.01 10139
0.27 0.72 0.64 -0.63 9.99 -0.02 -0.03 0.02 10145
0.27 0.71 0.64 -0.64 10.02 -0.02 -0.04 0.02 10152
0.28 0.70 0.66 -0.67 10.00 -0.02 -0.03 0.02 10159
0.27 0.71 0.67 -0.67 10.03 -0.01 -0.04 0.02 10165
0.26 0.70 0.65 -0.65 9.98 -0.02 -0.04 0.02 10171
0.24 0.71 0.64 -0.67 9.98 -0.01 -0.04 0.02 10178
0.24 0.71 0.66 -0.63 9.98 -0.01 -0.03 0.01 10184
0.25 0.71 0.67 -0.63 9.97 -0.02 -0.04 0.01 10190
0.28 0.75 0.65 -0.67 10.00 -0.02 -0.04 0.02 10196
0.27 0.78 0.62 -0.68 10.01 -0.02 -0.04 0.02 10203
0.25 0.76 0.63 -0.65 10.00 -0.02 -0.04 0.02 10210
0.25 0.79 0.63 -0.65 10.00 -0.02 -0.04 0.02 10216
0.20 0.82 0.65 -0.63 9.98 -0.02 -0.04 0.02 10222
0.23 0.82 0.66 -0.65 10.03 -0.02 -0.04 0.02 10228
0.22 0.81 0.63 -0.65 9.43 -0.01 -0.03 0.02 10235
0.20 0.85 0.72 -0.64 9.92 -0.01 -0.04 0.02 10242
0.19 0.87 0.68 -0.61 9.97 -0.01 -0.04 0.02 10248
0.21 0.84 0.67 -0.61 9.98 -0.01 -0.04 0.02 10254
0.23 0.84 0.66 -0.62 9.98 -0.01 -0.04 0.02 10260
0.25 0.85 0.68 -0.63 9.96 -0.00 -0.04 0.02 10266
0.24 0.82 0.64 -0.62 9.97 -0.00 -0.03 0.02 10273
0.23 0.83 0.65 -0.65 9.95 -0.00 -0.04 0.02 10279
0.23 0.84 0.65 -0.66 9.98 -0.00 -0.04 0.02 10286
0.25 0.82 0.65 -0.62 10.01 0.00 -0.03 0.01 10292
0.26 0.78 0.68 -0.61 9.98 0.01 -0.03 0.01 10298
0.24 0.77 0.68 -0.66 9.97 0.01 -0.03 0.01 10305
0.26 0.72 0.73 -0.64 9.98 0.01 -0.03 0.01 10311
0.25 0.63 0.69 -0.64 10.01 0.02 -0.03 0.01 10317
0.25 0.60 0.71 -0.66 10.05 0.03 -0.02 -0.00 10323
0.26 0.54 0.74 -0.65 10.07 0.03 -0.02 -0.01 10331
0.26 0.46 0.76 -0.69 10.01 0.05 -0.02 -0.01 10337
0.27 0.37 0.72 -0.73 10.07 0.07 -0.02 -0.02 10343
0.28 0.29 0.79 -0.81 10.12 0.08 -0.02 -0.03 10349
0.28 0.25 0.79 -0.73 10.11 0.09 -0.02 -0.04 10356
0.34 0.16 0.72 -0.74 10.19 0.12 -0.03 -0.05 10362
0.32 0.09 0.70 -0.53 10.23 0.14 -0.03 -0.07 10369
0.39 0.06 0.91 -0.81 10.37 0.18 -0.04 -0.09 10375
0.43 -0.01 1.14 -0.91 10.58 0.24 -0.06 -0.13 10381
0.47 0.01 1.62 -1.11 10.90 0.34 -0.10 -0.21 10388
0.51 -0.03 3.08 -1.64 11.45 0.50 -0.19 -0.38 10394
0.53 -0.04 5.14 -2.26 12.23 0.73 -0.34 -0.67 10400
0.52 -0.04 6.28 -2.53 13.45 0.89 -0.55 -1.06 10407
0.56 -0.04 6.35 -2.54 14.05 1.18 -0.71 -1.42 10414
0.57 -0.04 6.59 -3.34 10.25 1.52 -0.90 -1.63 10420
0.54 -0.04 4.90 -3.18 13.58 1.73 -1.12 -1.85 10426
0.47 -0.02 6.49 -3.37 12.43 1.76 -1.20 -2.08 10433
0.40 -0.03 6.45 -4.14 11.92 1.80 -1.12 -2.35 10439
0.35 -0.02 5.81 -3.95 11.43 1.83 -1.03 -2.63 10445
0.27 -0.02 6.03 -3.86 11.06 1.79 -0.83 -2.90 10452
0.22 -0.02 5.84 -4.39 10.51 1.70 -0.62 -3.13 10459
0.23 -0.01 6.62 -4.34 11.05 1.60 -0.50 -3.36 10465
0.19 -0.02 8.54 -4.11 10.33 1.45 -0.34 -3.54 10471
0.10 0.00 7.41 -3.17 9.90 1.29 -0.14 -3.72 10478
0.10 -0.01 6.98 -2.75 10.96 1.08 -0.03 -3.85 10484
0.07 -0.00 6.64 -1.63 12.10 0.77 -0.12 -3.90 10490
0.08 -0.01 5.37 -1.07 12.52 0.45 -0.39 -3.87 10497
0.07 0.00 5.07 -1.16 11.35 0.13 -0.88 -3.81 10504
0.06 -0.00 4.37 -0.75 9.02 -0.15 -1.44 -3.49 10510
0.05 -0.01 4.91 -0.78 8.19 -0.28 -1.72 -3.01 10516
0.05 -0.01 4.66 0.18 9.71 -0.28 -1.21 -2.05 10522
0.05 0.00 9.58 1.07 10.96 -0.34 -0.43 -1.20 10528
0.06 -0.01 10.43 1.37 10.27 -0.51 -0.14 -0.65 10535
0.03 -0.00 9.07 0.97 8.41 -0.64 -0.09 -0.29 10542
0.06 0.01 7.41 1.33 7.27 -0.73 0.06 -0.03 10548
0.06 -0.01 6.33 1.83 6.38 -0.76 0.32 0.16 10554
0.05 -0.01 5.81 1.73 6.42 -0.72 0.62 0.30 10560
0.05 0.00 5.25 1.28 6.81 -0.65 0.87 0.38 10566
0.05 -0.00 4.67 0.93 6.95 -0.58 1.06 0.39 10573
0.05 -0.00 4.14 0.91 6.76 -0.54 1.13 0.38 10579
0.04 -0.00 3.52 1.00 6.68 -0.50 1.17 0.36 10586
0.06 -0.01 2.81 1.00 6.81 -0.47 1.18 0.33 10592
0.05 -0.01 2.31 0.95 7.20 -0.42 1.18 0.33 10598
0.04 -0.00 1.99 0.77 7.64 -0.36 1.19 0.33 10604
0.05 0.00 1.92 0.56 8.06 -0.31 1.20 0.33 10610
0.05 -0.01 1.81 0.42 8.54 -0.28 1.19 0.34 10617
0.05 -0.00 1.69 0.31 8.97 -0.27 1.18 0.34 10624
0.05 0.01 1.47 0.37 9.38 -0.29 1.18 0.35 10630
0.06 -0.01 1.28 0.38 9.85 -0.34 1.20 0.38 10636
0.05 -0.01 0.98 0.32 10.12 -0.39 1.22 0.42 10642
0.05 -0.00 0.72 0.08 10.38 -0.46 1.21 0.49 10649
0.06 -0.01 0.54 -0.28 10.53 -0.52 1.17 0.50 10655
0.07 -0.00 0.57 -0.74 10.71 -0.57 1.10 0.53 10661
0.06 0.00 0.72 -1.24 10.96 -0.61 1.00 0.55 10668
0.06 -0.00 0.87 -1.66 11.65 -0.62 0.89 0.56 10674
0.06 -0.00 1.14 -1.93 10.99 -0.62 0.81 0.55 10681
0.05 -0.01 1.47 -2.23 10.80 -0.60 0.77 0.53 10687
0.05 -0.00 1.77 -2.45 10.81 -0.59 0.77 0.48 10693
0.05 0.00 1.80 -2.52 10.89 -0.56 0.80 0.42 10699
0.05 -0.00 1.50 -2.40 10.80 -0.53 0.84 0.37 10706
0.04 -0.00 1.10 -2.15 10.90 -0.48 0.86 0.34 10713
0.06 -0.00 0.81 -1.84 11.02 -0.43 0.85 0.33 10719
0.05 -0.01 0.80 -1.67 11.20 -0.39 0.81 0.34 10725
0.05 -0.01 0.77 -1.50 11.29 -0.39 0.74 0.37 10731
0.06 -0.00 0.91 -1.27 11.33 -0.38 0.67 0.40 10738
0.05 -0.01 1.33 -1.08 11.42 -0.39 0.60 0.44 10744
0.05 -0.01 1.73 -0.91 11.23 -0.41 0.57 0.48 10750
0.06 -0.01 1.91 -0.83 10.92 -0.43 0.59 0.51 10757
0.05 -0.01 1.85 -0.79 10.55 -0.45 0.65 0.53 10763
0.06 -0.00 1.71 -0.89 10.41 -0.44 0.72 0.56 10770
0.06 -0.01 1.44 -0.97 10.28 -0.41 0.78 0.58 10776
0.04 -0.00 1.14 -1.07 10.08 -0.35 0.81 0.60 10782
0.06 -0.00 0.95 -1.16 10.05 -0.29 0.83 0.63 10788
0.05 -0.01 0.87 -1.34 10.05 -0.23 0.82 0.66 10796
0.05 -0.00 0.78 -1.42 10.05 -0.18 0.78 0.69 10802
0.06 -0.01 0.55 -1.59 9.93 -0.14 0.75 0.71 10808
0.05 -0.01 0.43 -1.68 10.02 -0.09 0.71 0.74 10814
0.04 -0.00 0.38 -1.84 10.05 -0.04 0.68 0.76 10820
0.06 -0.01 0.30 -2.02 9.98 0.02 0.65 0.80 10826
0.06 -0.01 0.46 -2.06 10.02 0.06 0.63 0.84 10833
0.04 -0.00 0.50 -2.30 10.25 0.11 0.60 0.89 10840
0.05 -0.00 0.64 -2.31 10.59 0.15 0.60 0.97 10846
0.05 -0.01 0.85 -2.23 10.78 0.16 0.59 1.07 10852
0.04 -0.00 0.87 -2.11 10.66 0.15 0.58 1.18 10858
0.06 -0.01 0.66 -1.99 10.36 0.12 0.57 1.28 10865
0.05 -0.01 0.26 -2.06 10.07 0.09 0.57 1.39 10871
0.04 -0.00 -0.11 -2.31 9.89 0.07 0.56 1.50 10877
0.05 -0.01 -0.65 -2.58 9.60 0.08 0.53 1.57 10884
0.05 -0.00 -1.22 -2.76 9.32 0.12 0.50 1.62 10890
0.05 -0.00 -1.65 -2.96 9.18 0.17 0.48 1.64 10896
0.05 -0.01 -2.00 -3.26 9.12 0.21 0.47 1.63 10903
0.06 -0.01 -2.58 -3.60 9.24 0.26 0.44 1.61 10909
0.05 -0.00 -3.63 -3.87 9.21 0.30 0.40 1.57 10915
0.05 -0.00 -3.45 -4.03 9.20 0.34 0.33 1.55 10921
0.06 -0.01 -5.14 -4.78 10.28 0.39 0.14 1.53 10928
0.05 -0.01 -8.39 -5.52 11.77 0.48 -0.30 1.54 10934
0.05 -0.00 -10.79 -5.00 13.98 0.76 -1.87 1.65 10941
0.06 -0.01 -7.74 -3.73 5.19 0.61 -1.90 1.73 10947
0.05 -0.00 -7.93 -5.56 9.82 0.68 -2.42 1.81 10953
0.05 -0.01 -7.64 -4.62 8.83 0.65 -2.91 1.83 10959
0.06 -0.01 -9.50 -5.35 7.49 0.64 -3.07 1.80 10966
0.05 -0.01 -11.03 -6.16 7.56 0.73 -3.58 1.83 10973
0.05 -0.00 -11.80 -7.06 8.40 0.81 -4.21 1.93 10979
0.05 0.03 -10.11 1.87 23.31 1.47 -3.39 2.08 10985
0.03 0.13 -27.10 -11.15 39.72 1.03 -2.67 1.92 10991
0.05 0.24 -9.05 -2.19 8.09 -0.30 -0.13 0.88 10998
0.03 0.37 -7.56 -3.00 13.31 -0.29 0.01 0.23 11004
0.04 0.42 -1.80 -0.45 10.49 -0.13 -0.00 -0.11 11011
0.03 0.36 2.91 0.13 9.94 0.00 0.01 -0.05 11017
0.03 0.35 2.82 -0.06 9.76 0.03 -0.00 0.18 11023
0.07 0.38 2.02 -0.35 10.05 0.02 0.03 0.32 11030
0.08 0.40 1.19 -1.00 10.38 0.01 -0.06 0.29 11036
0.08 0.37 0.51 -1.22 9.74 0.01 -0.06 0.20 11042
0.09 0.38 0.74 -0.57 9.59 0.00 -0.04 0.20 11048
0.10 0.38 0.51 -0.74 9.80 -0.05 -0.02 0.22 11056
0.08 0.36 0.02 -1.69 10.11 -0.08 -0.00 0.19 11062
0.11 0.40 0.40 -1.26 9.90 -0.09 0.00 0.14 11068
0.10 0.49 0.54 -1.10 9.91 -0.10 0.01 0.13 11074
0.10 0.51 0.45 -1.00 9.90 -0.12 0.01 0.13 11080
0.13 0.52 0.62 -0.85 10.08 -0.12 -0.01 0.12 11087
0.13 0.56 0.75 -0.67 10.20 -0.10 -0.01 0.11 11094
0.13 0.60 0.84 -0.71 10.20 -0.08 -0.02 0.10 11100
0.13 0.62 0.73 -0.71 10.03 -0.05 -0.02 0.10 11106
0.14 0.61 0.63 -0.83 9.98 -0.05 -0.01 0.09 11113
0.18 0.63 0.73 -0.84 10.03 -0.04 -0.01 0.10 11119
0.19 0.63 0.74 -0.89 10.03 -0.04 -0.01 0.10 11125
0.19 0.65 0.82 -0.93 10.05 -0.04 -0.02 0.09 11131
0.19 0.66 0.81 -0.81 10.05 -0.04 -0.03 0.08 11139
0.18 0.63 0.81 -0.81 10.05 -0.00 -0.03 0.07 11145
0.21 0.67 0.80 -0.76 9.99 -0.03 -0.02 0.07 11151
0.21 0.65 0.78 -0.78 9.96 -0.03 -0.02 0.07 11157
0.20 0.66 0.77 -0.81 10.03 -0.03 -0.02 0.07 11163
0.24 0.62 0.74 -0.83 9.90 -0.03 -0.03 0.07 11170
0.22 0.62 0.78 -0.80 10.04 -0.03 -0.02 0.06 11176
0.22 0.65 0.76 -0.84 10.01 -0.02 -0.02 0.06 11183
0.23 0.68 0.78 -0.81 9.97 -0.02 -0.03 0.06 11189
0.22 0.69 0.79 -0.81 10.01 -0.02 -0.02 0.05 11196
0.24 0.69 0.80 -0.76 9.95 -0.02 -0.02 0.05 11202
0.24 0.67 0.80 -0.77 10.02 -0.02 -0.01 0.05 11208
0.23 0.66 0.79 -0.79 9.98 -0.01 -0.02 0.05 11214
0.25 0.67 0.83 -0.80 9.96 -0.01 -0.02 0.05 11220
0.24 0.66 0.77 -0.78 9.95 -0.01 -0.02 0.05 11228
0.24 0.64 0.80 -0.79 9.97 -0.01 -0.02 0.05 11234
0.25 0.66 0.78 -0.80 10.02 -0.01 -0.02 0.05 11240
0.25 0.62 0.79 -0.78 9.92 -0.01 -0.02 0.05 11246
0.25 0.61 0.77 -0.77 9.98 -0.01 -0.02 0.05 11252
0.26 0.60 0.77 -0.76 9.95 -0.01 -0.02 0.05 11259
0.25 0.61 0.79 -0.78 9.97 -0.01 -0.02 0.04 11266
0.25 0.62 0.77 -0.80 9.96 -0.00 -0.02 0.04 11272
0.26 0.62 0.78 -0.78 9.98 0.00 -0.02 0.04 11278
0.25 0.63 0.79 -0.75 10.04 0.00 -0.02 0.04 11284
0.25 0.60 0.77 -0.77 9.99 0.00 -0.02 0.04 11290
0.26 0.60 0.84 -0.80 10.02 0.00 -0.02 0.04 11297
0.26 0.57 0.82 -0.80 9.95 0.00 -0.02 0.04 11303
0.26 0.57 0.80 -0.79 9.98 0.00 -0.03 0.04 11310
0.27 0.55 0.79 -0.82 9.98 0.00 -0.02 0.04 11316
0.27 0.53 0.80 -0.80 9.99 -0.00 -0.02 0.04 11322
0.27 0.52 0.77 -0.76 9.95 0.00 -0.02 0.04 11329
0.27 0.50 0.81 -0.79 9.97 -0.01 -0.02 0.04 11335
0.27 0.49 0.83 -0.77 9.99 -0.00 -0.02 0.04 11341
0.27 0.48 0.82 -0.82 9.95 -0.01 -0.02 0.04 11347
0.27 0.47 0.78 -0.80 9.97 -0.01 -0.02 0.04 11354
0.27 0.44 0.83 -0.79 9.97 -0.01 -0.02 0.04 11361
0.27 0.43 0.81 -0.83 9.97 -0.00 -0.02 0.04 11367
0.28 0.44 0.80 -0.76 9.95 -0.00 -0.02 0.03 11373
0.27 0.45 0.82 -0.79 10.00 -0.00 -0.02 0.04 11379
0.27 0.46 0.81 -0.76 9.99 -0.00 -0.01 0.03 11385
0.28 0.41 0.81 -0.77 9.95 -0.00 -0.02 0.03 11393
0.27 0.43 0.81 -0.80 9.98 -0.00 -0.02 0.03 11399
0.28 0.44 0.80 -0.77 9.96 -0.01 -0.02 0.03 11405
0.28 0.44 0.81 -0.83 9.95 -0.00 -0.02 0.04 11411
0.27 0.41 0.80 -0.79 9.93 -0.00 -0.02 0.03 11417
0.26 0.45 0.83 -0.81 9.92 -0.00 -0.02 0.03 11423
0.26 0.45 0.78 -0.79 9.97 -0.01 -0.02 0.04 11430
0.27 0.41 0.84 -0.77 9.95 -0.00 -0.02 0.04 11437
0.26 0.43 0.80 -0.78 9.92 -0.01 -0.02 0.03 11443
0.26 0.41 0.83 -0.78 9.94 -0.01 -0.02 0.03 11449
0.25 0.43 0.84 -0.80 9.98 -0.01 -0.02 0.03 11455
0.25 0.45 0.78 -0.79 10.01 -0.01 -0.02 0.03 11462
0.26 0.42 0.82 -0.77 9.97 -0.01 -0.02 0.03 11468
0.25 0.42 0.85 -0.81 9.98 -0.01 -0.02 0.03 11474
0.25 0.41 0.80 -0.81 9.97 -0.01 -0.01 0.03 11481
0.25 0.40 0.85 -0.78 9.97 -0.01 -0.02 0.03 11487
0.24 0.41 0.85 -0.79 9.96 -0.00 -0.02 0.02 11494
0.24 0.42 0.85 -0.77 9.95 -0.01 -0.02 0.03 11500
0.24 0.42 0.87 -0.82 9.99 -0.01 -0.02 0.03 11506
0.23 0.40 0.86 -0.79 9.96 -0.01 -0.02 0.03 11512
0.25 0.40 0.87 -0.80 9.95 -0.01 -0.02 0.03 11518
0.23 0.39 0.85 -0.78 9.94 -0.01 -0.02 0.03 11526
0.23 0.38 0.82 -0.82 9.93 -0.01 -0.03 0.03 11532
0.26 0.39 0.84 -0.77 9.97 -0.01 -0.03 0.03 11538
0.25 0.37 0.82 -0.82 9.99 -0.01 -0.03 0.03 11544
0.23 0.39 0.85 -0.79 10.02 -0.01 -0.03 0.02 11550
0.26 0.40 0.86 -0.79 10.01 -0.02 -0.03 0.02 11557
0.25 0.39 0.84 -0.80 10.02 -0.02 -0.03 0.02 11564
0.23 0.42 0.85 -0.80 9.99 -0.01 -0.03 0.02 11570
0.23 0.42 0.84 -0.75 9.94 -0.01 -0.03 0.02 11576
0.24 0.39 0.83 -0.80 9.96 -0.01 -0.03 0.02 11582
0.23 0.40 0.84 -0.74 9.95 -0.01 -0.03 0.02 11589
0.24 0.37 0.83 -0.80 9.94 -0.01 -0.03 0.02 11595
0.23 0.36 0.82 -0.81 9.97 -0.01 -0.03 0.02 11601
0.24 0.39 0.83 -0.75 9.98 -0.01 -0.03 0.02 11608
0.25 0.37 0.86 -0.79 9.97 -0.01 -0.03 0.02 11614
0.26 0.37 0.83 -0.80 9.93 -0.01 -0.03 0.02 11621
0.27 0.35 0.84 -0.78 9.96 -0.01 -0.04 0.02 11627
0.28 0.35 0.89 -0.79 9.97 -0.01 -0.04 0.02 11633
0.27 0.31 0.85 -0.76 10.01 -0.01 -0.04 0.02 11639
0.28 0.33 0.79 -0.76 9.95 -0.01 -0.04 0.02 11645
0.28 0.32 0.84 -0.78 9.97 -0.00 -0.04 0.02 11653
0.28 0.32 0.84 -0.80 9.92 -0.00 -0.04 0.02 11659
0.30 0.29 0.86 -0.81 9.93 -0.00 -0.04 0.02 11665
0.31 0.31 0.83 -0.81 9.98 -0.01 -0.04 0.02 11671
0.31 0.31 0.86 -0.79 9.96 -0.01 -0.04 0.02 11677
0.33 0.31 0.83 -0.82 9.98 -0.01 -0.04 0.03 11683
0.32 0.31 0.82 -0.79 9.98 -0.01 -0.04 0.03 11691
0.31 0.30 0.86 -0.79 9.96 -0.01 -0.05 0.03 11697
0.34 0.29 0.85 -0.76 10.01 -0.01 -0.05 0.03 11703
0.35 0.28 0.84 -0.80 9.98 -0.02 -0.05 0.03 11709
0.34 0.29 0.84 -0.80 9.98 -0.01 -0.05 0.03 11716
0.35 0.30 0.81 -0.78 9.99 -0.01 -0.04 0.03 11722
0.33 0.30 0.84 -0.81 9.97 -0.02 -0.05 0.03 11728
0.33 0.31 0.85 -0.78 9.96 -0.01 -0.05 0.03 11735
0.35 0.31 0.84 -0.78 10.00 -0.01 -0.04 0.03 11741
0.35 0.28 0.85 -0.81 10.00 -0.01 -0.04 0.03 11748
0.34 0.30 0.82 -0.80 9.97 -0.01 -0.04 0.03 11754
0.35 0.30 0.87 -0.77 9.97 -0.01 -0.04 0.03 11760
0.33 0.28 0.84 -0.79 10.01 -0.01 -0.04 0.03 11766
0.33 0.28 0.84 -0.78 9.98 -0.00 -0.05 0.03 11772
0.32 0.27 0.84 -0.77 9.98 -0.00 -0.04 0.03 11780
0.31 0.27 0.84 -0.80 9.99 0.00 -0.05 0.04 11786
0.33 0.24 0.84 -0.80 9.98 0.00 -0.04 0.03 11792
0.33 0.21 0.84 -0.85 9.98 0.00 -0.04 0.03 11798
0.32 0.20 0.87 -0.80 9.98 0.00 -0.05 0.03 11804
0.32 0.20 0.81 -0.80 10.00 0.01 -0.05 0.03 11810
0.34 0.19 0.85 -0.77 10.01 0.02 -0.05 0.03 11817
0.33 0.20 0.91 -0.79 10.05 0.03 -0.04 0.02 11824
0.37 0.15 0.94 -0.84 10.10 0.04 -0.04 0.01 11830
0.37 0.09 0.91 -0.80 10.08 0.06 -0.04 0.00 11836
0.38 0.09 0.86 -0.87 9.99 0.08 -0.04 -0.00 11843
0.38 0.05 0.87 -0.85 10.16 0.09 -0.05 -0.01 11849
0.40 -0.00 0.89 -0.88 10.17 0.11 -0.06 -0.02 11855
0.42 0.01 0.85 -0.84 10.29 0.14 -0.07 -0.03 11862
0.45 -0.02 1.00 -0.93 10.28 0.16 -0.09 -0.04 11869
0.45 -0.03 1.13 -0.84 10.42 0.20 -0.11 -0.07 11875
0.49 -0.02 1.40 -0.99 10.61 0.25 -0.15 -0.12 11881
0.49 -0.03 2.23 -1.16 10.81 0.34 -0.19 -0.21 11887
0.49 -0.03 3.44 -1.53 11.13 0.48 -0.24 -0.40 11894
0.50 -0.04 4.84 -1.83 13.50 0.67 -0.29 -0.69 11900
0.46 -0.03 3.46 -2.00 14.86 1.03 -0.43 -0.96 11907
0.45 -0.03 4.17 -2.28 13.18 1.38 -0.56 -1.20 11913
0.43 -0.02 3.93 -2.29 12.36 1.49 -0.69 -1.39 11920
0.42 -0.02 5.35 -3.24 12.90 1.49 -0.80 -1.60 11926
0.37 -0.02 5.85 -3.74 11.59 1.49 -0.82 -1.86 11932
0.33 -0.01 5.73 -3.91 11.24 1.49 -0.84 -2.17 11939
0.32 -0.03 5.44 -3.75 10.77 1.45 -0.83 -2.40 11945
0.28 -0.02 6.89 -3.63 10.57 1.37 -0.78 -2.63 11952
0.16 -0.02 6.76 -4.03 9.79 1.30 -0.69 -2.87 11958
0.16 -0.02 7.89 -3.02 10.55 1.19 -0.56 -3.10 11965
0.14 0.00 8.27 -3.00 10.35 0.99 -0.48 -3.31 11971
0.11 -0.01 7.57 -2.61 11.26 0.80 -0.43 -3.49 11977
0.09 -0.01 6.37 -1.65 11.20 0.56 -0.50 -3.58 11983
0.09 -0.01 5.75 -0.72 11.16 0.30 -0.73 -3.65 11990
0.06 -0.01 4.81 0.15 10.84 0.03 -1.11 -3.69 11997
0.04 -0.00 4.85 2.81 10.67 -0.28 -1.49 -3.70 12003
0.06 -0.01 7.02 4.09 8.86 -0.57 -1.71 -3.60 12009
0.05 -0.00 8.76 3.46 7.76 -0.77 -1.71 -3.30 12015
0.05 -0.00 9.30 1.20 8.69 -0.89 -1.44 -2.84 12021
0.06 -0.01 10.11 0.48 10.40 -0.97 -1.03 -2.35 12028
0.06 -0.01 10.87 1.33 9.89 -1.06 -0.56 -1.90 12035
0.06 -0.01 10.68 1.98 8.40 -1.05 -0.25 -1.53 12041
0.05 -0.01 9.83 1.97 7.06 -1.00 -0.05 -1.26 12047
0.05 -0.00 9.08 1.56 6.60 -0.94 0.14 -1.05 12053
0.05 -0.00 8.50 1.13 7.02 -0.84 0.33 -0.86 12059
0.06 -0.01 8.07 0.71 7.77 -0.71 0.54 -0.71 12066
0.05 -0.01 7.82 0.40 8.33 -0.57 0.77 -0.59 12072
0.04 -0.00 7.53 0.32 8.82 -0.45 0.99 -0.50 12079
0.05 -0.00 7.04 0.39 9.23 -0.41 1.19 -0.42 12085
0.05 -0.01 6.66 0.51 9.81 -0.37 1.36 -0.36 12091
0.05 -0.01 6.13 0.58 10.37 -0.36 1.45 -0.27 12097
0.06 -0.00 5.61 0.70 10.86 -0.36 1.52 -0.18 12104
0.05 -0.01 5.12 0.63 11.03 -0.36 1.59 -0.09 12110
0.05 -0.00 4.62 0.56 11.00 -0.37 1.66 0.02 12116
0.06 -0.01 4.12 0.43 11.06 -0.36 1.73 0.13 12123
0.06 -0.01 3.62 0.32 11.20 -0.34 1.78 0.22 12129
0.04 -0.00 3.15 0.16 11.32 -0.33 1.83 0.30 12136
0.05 -0.01 2.74 0.09 11.52 -0.30 1.87 0.35 12142
0.05 -0.00 2.40 0.01 11.65 -0.29 1.90 0.39 12148
0.04 -0.00 2.05 -0.00 11.78 -0.28 1.92 0.41 12154
0.05 -0.00 1.73 0.10 11.82 -0.28 1.91 0.42 12161
0.05 -0.00 1.29 0.07 11.92 -0.29 1.90 0.41 12168
0.04 -0.00 0.70 -0.01 11.89 -0.28 1.87 0.38 12174
0.06 -0.00 0.24 -0.23 11.85 -0.29 1.82 0.33 12180
0.04 -0.00 -0.19 -0.47 11.77 -0.28 1.73 0.26 12186
0.04 -0.00 -0.46 -0.63 11.80 -0.27 1.59 0.19 12192
0.05 -0.01 -0.56 -0.68 11.67 -0.25 1.43 0.11 12199
0.05 -0.00 -0.54 -0.67 11.59 -0.22 1.29 0.05 12206
0.05 -0.00 -0.32 -0.48 11.47 -0.20 1.21 -0.00 12212
0.05 -0.00 -0.04 -0.41 11.36 -0.18 1.19 -0.04 12218
0.05 -0.01 0.06 -0.38 11.27 -0.18 1.20 -0.05 12224
0.05 -0.00 -0.00 -0.37 11.28 -0.18 1.20 -0.04 12231
0.05 0.00 -0.20 -0.46 11.25 -0.17 1.20 0.00 12237
0.05 -0.00 -0.36 -0.58 11.11 -0.15 1.18 0.07 12243
0.05 0.00 -0.54 -0.51 10.80 -0.12 1.13 0.16 12250
0.05 -0.00 -0.57 -0.53 10.61 -0.10 1.05 0.28 12256
0.03 -0.00 -0.41 -0.50 10.42 -0.07 0.95 0.41 12263
0.05 0.00 -0.24 -0.52 10.43 -0.04 0.85 0.57 12269
0.05 -0.00 -0.07 -0.60 10.33 -0.02 0.78 0.73 12275
0.04 -0.00 0.03 -0.78 10.21 0.00 0.72 0.92 12281
0.04 0.01 0.19 -0.91 10.00 0.02 0.67 1.10 12288
0.04 -0.00 0.36 -1.25 9.66 0.04 0.63 1.29 12294
0.04 -0.00 0.41 -1.56 9.34 0.06 0.60 1.43 12301
0.05 -0.00 0.46 -1.84 8.97 0.09 0.57 1.58 12307
0.05 -0.00 0.28 -2.26 8.77 0.13 0.55 1.70 12313
0.05 -0.00 0.15 -2.54 8.55 0.18 0.57 1.80 12319
0.04 -0.00 0.05 -2.66 8.44 0.25 0.59 1.89 12325
0.04 -0.00 -0.07 -2.80 8.18 0.31 0.61 1.96 12332
0.04 -0.00 -0.39 -3.19 7.49 0.38 0.62 2.02 12338
0.05 -0.00 -0.89 -3.71 7.10 0.45 0.60 2.06 12345
0.05 -0.00 -1.31 -4.04 7.91 0.55 0.59 2.10 12351
0.05 -0.01 -1.51 -4.27 7.95 0.65 0.58 2.13 12357
0.04 -0.00 -1.77 -4.28 8.24 0.73 0.58 2.15 12363
0.05 -0.00 -2.20 -4.23 8.21 0.74 0.56 2.18 12369
0.05 -0.01 -2.90 -4.10 8.24 0.71 0.51 2.21 12376
0.04 -0.00 -3.79 -4.05 8.34 0.65 0.42 2.22 12382
0.04 -0.00 -4.43 -4.12 8.32 0.59 0.28 2.21 12389
0.05 -0.00 -5.02 -4.25 8.24 0.54 0.14 2.16 12395
0.05 -0.00 -5.60 -4.25 8.06 0.47 -0.03 2.10 12401
0.04 -0.00 -5.98 -4.26 7.59 0.43 -0.16 1.97 12407
0.04 -0.00 -5.89 -4.07 6.65 0.39 -0.26 1.82 12413
0.05 -0.01 -5.55 -3.48 5.95 0.38 -0.32 1.68 12420
0.05 -0.00 -5.00 -2.63 5.28 0.38 -0.36 1.58 12427
0.04 -0.00 -6.56 -6.14 5.87 0.49 -0.59 1.55 12433
0.05 -0.01 -27.99 -12.34 23.57 1.67 -4.28 1.46 12439
0.04 -0.00 -26.23 -12.37 0.23 1.07 -4.28 1.36 12445
0.05 0.01 -8.15 -8.89 -5.47 0.16 -4.28 0.91 12451
0.05 0.17 -25.86 5.34 78.47 0.50 -4.28 0.08 12459
0.03 0.51 -3.37 1.51 16.36 -0.15 -0.97 0.25 12465
0.02 0.81 -2.06 -0.87 15.82 -0.21 -0.50 0.07 12471
-0.00 0.86 -1.48 2.73 9.86 -0.03 -0.36 0.15 12478
0.04 0.82 0.25 0.88 9.26 0.04 -0.11 0.16 12484
0.03 0.72 0.93 0.38 9.93 0.17 -0.06 0.16 12490
0.04 0.61 1.07 0.12 10.15 0.19 -0.06 0.22 12496
0.07 0.53 1.17 -0.54 10.37 0.12 -0.10 0.29 12503
0.08 0.52 0.82 -2.01 9.29 0.08 -0.17 0.27 12510
0.10 0.48 0.60 -1.68 9.36 0.03 -0.12 0.24 12516
0.12 0.45 -0.16 -1.73 9.58 -0.05 -0.06 0.17 12522
0.14 0.48 0.12 -1.44 9.45 -0.09 -0.02 0.07 12528
0.12 0.57 0.82 -1.13 9.97 -0.12 -0.00 0.09 12534
0.15 0.63 0.58 -0.77 10.33 -0.12 -0.00 0.08 12541
0.12 0.70 0.39 -0.46 10.29 -0.09 -0.00 0.08 12548
0.15 0.76 0.48 -0.54 10.27 -0.06 0.02 0.09 12554
0.13 0.77 0.68 -0.66 10.16 -0.04 0.03 0.09 12560
0.14 0.79 0.68 -0.79 10.08 -0.03 0.03 0.09 12567
0.16 0.81 0.71 -0.78 9.98 -0.03 0.03 0.09 12573
0.17 0.79 0.63 -0.86 9.97 -0.05 0.03 0.09 12579
0.15 0.82 0.68 -0.85 9.95 -0.05 0.03 0.08 12585
0.13 0.82 0.70 -0.77 10.09 -0.05 0.03 0.08 12592
0.13 0.85 0.68 -0.68 10.14 -0.03 0.03 0.07 12599
0.12 0.88 0.70 -0.69 10.04 -0.02 0.03 0.07 12605
0.13 0.83 0.77 -0.67 10.02 -0.01 0.03 0.07 12611
0.13 0.84 0.73 -0.72 10.01 -0.01 0.02 0.07 12617
0.14 0.84 0.77 -0.73 9.92 -0.01 0.01 0.07 12624
0.12 0.84 0.77 -0.76 9.94 -0.01 0.01 0.07 12631
0.13 0.84 0.77 -0.74 9.99 -0.02 0.01 0.06 12637
0.14 0.83 0.70 -0.74 10.03 -0.02 0.00 0.07 12643
0.12 0.82 0.73 -0.72 9.91 -0.01 0.00 0.07 12649
0.11 0.82 0.74 -0.70 10.04 -0.01 0.01 0.07 12656
0.14 0.76 0.77 -0.74 9.98 -0.01 0.00 0.06 12662
0.14 0.71 0.76 -0.75 10.02 -0.01 0.00 0.05 12668
0.15 0.72 0.76 -0.72 9.98 -0.01 0.01 0.06 12675
0.15 0.72 0.77 -0.72 10.00 -0.00 0.00 0.05 12681
0.13 0.72 0.76 -0.71 10.00 -0.01 0.01 0.05 12688
0.14 0.70 0.76 -0.72 10.00 -0.00 0.00 0.05 12694
0.12 0.67 0.75 -0.69 10.00 -0.00 -0.00 0.05 12700
0.12 0.65 0.76 -0.67 9.98 -0.00 -0.00 0.05 12706
0.15 0.62 0.77 -0.72 10.00 -0.00 -0.00 0.05 12713
0.13 0.63 0.76 -0.69 9.97 -0.00 -0.00 0.05 12720
0.13 0.61 0.78 -0.69 9.96 -0.01 -0.00 0.04 12726
0.15 0.59 0.78 -0.73 9.98 -0.00 -0.01 0.04 12732
0.15 0.61 0.81 -0.69 9.98 -0.00 -0.02 0.05 12738
0.14 0.60 0.83 -0.71 9.97 -0.00 -0.02 0.04 12745
0.16 0.60 0.76 -0.70 9.96 -0.00 -0.03 0.04 12751
0.16 0.57 0.73 -0.70 9.99 -0.00 -0.03 0.04 12758
0.16 0.54 0.79 -0.68 10.06 0.00 -0.03 0.04 12764
0.16 0.51 0.76 -0.71 10.01 0.01 -0.03 0.04 12770
0.15 0.48 0.81 -0.72 9.99 0.01 -0.04 0.04 12777
0.16 0.47 0.80 -0.72 9.98 0.01 -0.05 0.04 12783
0.15 0.43 0.79 -0.73 9.99 0.01 -0.04 0.04 12789
0.15 0.41 0.77 -0.73 9.98 0.01 -0.04 0.03 12795
0.16 0.37 0.78 -0.71 10.01 0.01 -0.05 0.03 12802
0.17 0.38 0.76 -0.73 9.98 0.01 -0.04 0.03 12809
0.18 0.36 0.77 -0.73 9.98 0.01 -0.04 0.03 12815
0.21 0.34 0.75 -0.75 9.96 0.01 -0.04 0.03 12821
0.20 0.36 0.81 -0.74 9.97 0.01 -0.04 0.04 12827
0.21 0.33 0.80 -0.70 10.01 0.00 -0.04 0.03 12833
0.25 0.34 0.78 -0.73 9.99 0.00 -0.04 0.03 12840
0.25 0.29 0.78 -0.74 10.04 0.00 -0.04 0.03 12847
0.26 0.27 0.77 -0.72 10.00 0.00 -0.03 0.03 12853
0.27 0.29 0.76 -0.76 10.03 0.00 -0.03 0.04 12859
0.29 0.26 0.79 -0.75 9.99 0.00 -0.03 0.03 12865
0.28 0.28 0.79 -0.73 9.99 0.00 -0.02 0.03 12872
0.30 0.23 0.80 -0.75 9.93 0.00 -0.02 0.03 12878
0.31 0.22 0.78 -0.74 9.99 0.00 -0.02 0.03 12884
0.33 0.22 0.77 -0.75 10.01 0.00 -0.02 0.02 12891
0.33 0.24 0.80 -0.79 9.97 0.00 -0.02 0.02 12897
0.34 0.20 0.79 -0.76 9.99 0.00 -0.02 0.02 12903
0.34 0.19 0.79 -0.74 9.97 -0.00 -0.02 0.02 12910
0.35 0.20 0.78 -0.77 10.03 -0.00 -0.02 0.02 12916
0.35 0.20 0.82 -0.73 9.99 -0.01 -0.03 0.03 12922
0.35 0.19 0.80 -0.75 9.94 -0.01 -0.02 0.03 12929
0.37 0.16 0.77 -0.74 10.04 -0.01 -0.03 0.03 12935
0.36 0.15 0.81 -0.74 9.97 -0.01 -0.03 0.03 12942
0.37 0.17 0.80 -0.78 9.96 -0.01 -0.03 0.03 12948
0.37 0.18 0.83 -0.75 9.98 -0.01 -0.04 0.03 12954
0.36 0.17 0.79 -0.76 9.96 -0.01 -0.04 0.02 12960
0.36 0.20 0.80 -0.69 10.00 -0.01 -0.04 0.02 12966
0.36 0.19 0.80 -0.73 9.98 -0.01 -0.04 0.03 12974
0.36 0.17 0.79 -0.74 9.96 -0.01 -0.04 0.03 12980
0.37 0.18 0.78 -0.73 9.98 -0.01 -0.04 0.03 12986
0.37 0.18 0.81 -0.75 10.00 -0.01 -0.04 0.03 12992
0.36 0.18 0.80 -0.74 10.00 -0.01 -0.04 0.02 12998
0.38 0.18 0.76 -0.76 9.98 -0.01 -0.04 0.03 13005
0.36 0.18 0.79 -0.74 9.96 -0.01 -0.04 0.03 13011
0.37 0.18 0.77 -0.82 9.95 -0.01 -0.04 0.03 13018
0.39 0.17 0.78 -0.73 9.94 -0.01 -0.04 0.03 13024
0.39 0.16 0.77 -0.76 9.97 -0.01 -0.04 0.03 13030
0.39 0.18 0.79 -0.73 9.96 -0.02 -0.04 0.03 13037
0.41 0.18 0.78 -0.70 9.98 -0.02 -0.04 0.03 13043
0.40 0.18 0.78 -0.78 10.03 -0.02 -0.04 0.03 13049
0.39 0.20 0.81 -0.75 9.97 -0.02 -0.05 0.03 13056
0.41 0.19 0.81 -0.74 9.98 -0.02 -0.05 0.03 13062
0.41 0.19 0.80 -0.74 10.03 -0.02 -0.05 0.03 13069
0.40 0.21 0.79 -0.77 9.96 -0.01 -0.05 0.03 13075
0.40 0.20 0.74 -0.75 9.97 -0.02 -0.04 0.03 13081
0.41 0.20 0.75 -0.76 9.98 -0.02 -0.05 0.03 13087
0.41 0.21 0.77 -0.73 9.98 -0.02 -0.05 0.03 13093
0.40 0.22 0.76 -0.76 9.97 -0.02 -0.05 0.03 13101
0.41 0.23 0.78 -0.74 10.00 -0.02 -0.06 0.03 13107
0.40 0.26 0.77 -0.75 10.00 -0.03 -0.05 0.03 13113
0.39 0.24 0.74 -0.77 10.00 -0.02 -0.06 0.03 13119
0.39 0.26 0.74 -0.73 10.01 -0.02 -0.06 0.03 13126
0.41 0.27 0.75 -0.76 9.99 -0.02 -0.05 0.03 13132
0.41 0.26 0.75 -0.74 9.97 -0.02 -0.05 0.03 13138
0.41 0.28 0.75 -0.74 9.99 -0.02 -0.06 0.02 13145
0.40 0.29 0.74 -0.73 10.04 -0.02 -0.06 0.03 13151
0.38 0.30 0.75 -0.74 9.95 -0.02 -0.05 0.02 13158
0.38 0.31 0.76 -0.79 9.98 -0.02 -0.06 0.02 13164
0.38 0.32 0.76 -0.74 9.96 -0.03 -0.06 0.03 13170
0.36 0.32 0.72 -0.73 9.97 -0.02 -0.05 0.02 13176
0.35 0.37 0.72 -0.74 9.99 -0.02 -0.05 0.02 13182
0.35 0.36 0.75 -0.74 9.98 -0.02 -0.05 0.03 13190
0.32 0.36 0.74 -0.71 9.98 -0.01 -0.05 0.03 13196
0.34 0.38 0.71 -0.71 9.99 -0.01 -0.05 0.03 13202
0.34 0.37 0.73 -0.74 9.97 -0.01 -0.04 0.03 13208
0.32 0.35 0.82 -0.71 10.02 -0.00 -0.05 0.03 13214
0.34 0.36 0.80 -0.74 9.98 -0.00 -0.05 0.03 13221
0.33 0.36 0.79 -0.74 9.96 0.00 -0.05 0.02 13228
0.32 0.35 0.78 -0.75 9.95 0.01 -0.05 0.03 13234
0.35 0.33 0.73 -0.76 9.97 0.01 -0.05 0.02 13240
0.36 0.30 0.74 -0.76 9.99 0.01 -0.05 0.02 13246
0.37 0.28 0.77 -0.72 10.04 0.01 -0.04 0.02 13253
0.38 0.23 0.74 -0.74 10.04 0.02 -0.04 0.02 13259
0.38 0.17 0.75 -0.73 10.02 0.04 -0.03 0.02 13265
0.38 0.13 0.75 -0.81 10.02 0.04 -0.02 0.01 13272
0.41 0.09 0.80 -0.74 10.01 0.05 -0.02 0.01 13278
0.39 0.06 0.79 -0.78 10.07 0.07 -0.02 0.01 13285
0.40 0.03 0.78 -0.83 10.14 0.08 -0.01 0.00 13291
0.38 -0.01 0.88 -0.73 10.24 0.10 -0.02 -0.00 13297
0.36 0.01 0.82 -0.90 10.24 0.12 -0.03 -0.01 13303
0.40 -0.02 0.89 -0.88 10.23 0.15 -0.06 -0.02 13310
0.40 -0.02 0.86 -0.78 10.24 0.17 -0.10 -0.04 13317
0.39 -0.02 1.13 -0.93 10.69 0.24 -0.12 -0.09 13323
0.41 -0.03 1.68 -0.98 10.88 0.36 -0.15 -0.15 13329
0.40 -0.02 3.55 -1.38 11.90 0.58 -0.15 -0.30 13336
0.39 -0.03 2.58 -1.37 13.36 1.03 -0.16 -0.49 13342
0.42 -0.04 2.34 -1.42 14.22 1.59 -0.20 -0.63 13348
0.44 -0.02 2.84 -1.50 13.91 1.87 -0.32 -0.75 13356
0.41 -0.04 2.72 -1.61 13.07 1.97 -0.44 -0.86 13362
0.42 -0.02 3.06 -2.00 13.17 2.05 -0.57 -0.97 13368
0.41 -0.02 3.06 -2.29 12.73 2.13 -0.68 -1.06 13374
0.40 -0.02 3.68 -2.49 12.34 2.17 -0.84 -1.18 13381
0.37 -0.02 4.11 -2.95 12.23 2.18 -0.96 -1.34 13387
0.34 -0.02 4.83 -3.77 11.91 2.18 -1.08 -1.49 13393
0.30 -0.02 5.25 -2.95 11.85 2.12 -1.07 -1.66 13400
0.22 -0.02 5.31 -3.59 10.99 2.01 -1.00 -1.81 13407
0.17 -0.01 5.98 -3.53 10.68 1.90 -0.86 -1.97 13413
0.14 -0.01 6.51 -3.10 10.20 1.74 -0.62 -2.12 13419
0.08 -0.01 7.20 -2.08 9.42 1.54 -0.34 -2.30 13425
0.10 -0.00 7.28 -2.40 10.32 1.28 -0.07 -2.47 13432
0.09 -0.01 6.24 -1.77 10.78 1.06 0.12 -2.63 13438
0.08 -0.01 5.18 -1.70 11.01 0.82 0.10 -2.77 13445
0.08 -0.01 4.89 -0.15 11.22 0.52 -0.17 -2.87 13451
0.05 -0.01 4.64 2.89 10.91 0.17 -0.43 -2.95 13457
0.07 -0.01 4.65 4.62 9.14 -0.31 -0.75 -2.99 13464
0.08 -0.01 4.81 7.05 7.90 -0.78 -1.05 -2.95 13470
0.05 -0.01 6.94 5.87 7.18 -1.15 -1.24 -2.77 13476
0.05 -0.01 7.13 1.71 7.45 -1.31 -1.27 -2.42 13483
0.07 -0.01 8.42 0.00 10.60 -1.41 -1.08 -2.04 13489
0.06 -0.01 9.10 0.48 10.27 -1.57 -0.82 -1.67 13496
0.04 -0.00 9.02 0.94 8.35 -1.56 -0.62 -1.37 13502
0.06 -0.01 8.86 0.29 6.67 -1.44 -0.45 -1.14 13508
0.06 -0.01 8.80 -0.41 5.81 -1.36 -0.27 -0.95 13514
0.04 -0.00 8.96 -0.74 6.00 -1.25 -0.03 -0.79 13520
0.06 -0.01 9.07 -1.06 6.93 -1.11 0.29 -0.65 13527
0.05 -0.01 8.98 -1.45 7.73 -0.98 0.58 -0.52 13533
0.05 -0.00 8.48 -1.68 8.25 -0.87 0.91 -0.37 13540
0.05 -0.00 7.66 -1.80 8.57 -0.78 1.16 -0.24 13546
0.05 -0.00 6.62 -1.76 8.85 -0.71 1.30 -0.06 13552
0.04 -0.00 5.57 -1.69 9.14 -0.65 1.34 0.13 13558
0.04 -0.00 4.68 -1.75 9.55 -0.60 1.33 0.35 13564
0.07 -0.01 4.01 -1.85 9.95 -0.56 1.30 0.57 13571
0.06 -0.01 3.52 -1.98 10.29 -0.53 1.30 0.78 13578
0.05 -0.00 3.27 -2.20 10.59 -0.51 1.31 0.96 13584
0.06 -0.01 3.13 -2.32 10.57 -0.50 1.33 1.09 13590
0.05 -0.00 2.80 -2.49 10.60 -0.49 1.38 1.18 13596
0.05 -0.00 2.27 -2.68 10.67 -0.49 1.44 1.25 13602
0.06 -0.01 1.77 -2.94 10.92 -0.47 1.53 1.28 13609
0.06 -0.01 1.14 -3.12 11.13 -0.44 1.61 1.30 13616
0.06 -0.01 0.63 -3.32 11.13 -0.41 1.64 1.27 13622
0.05 -0.01 0.07 -3.36 11.02 -0.38 1.63 1.29 13628
0.04 -0.00 -0.12 -3.34 10.95 -0.34 1.57 1.26 13635
0.06 -0.01 -0.25 -3.23 10.88 -0.31 1.49 1.21 13641
0.04 -0.00 -0.33 -3.16 10.93 -0.28 1.42 1.15 13647
0.05 -0.00 -0.39 -3.16 11.08 -0.26 1.39 1.07 13654
0.06 -0.01 -0.36 -3.22 11.12 -0.25 1.40 0.97 13660
0.05 -0.01 -0.49 -3.32 11.25 -0.24 1.39 0.87 13667
0.05 -0.01 -0.81 -3.38 11.27 -0.25 1.36 0.76 13673
0.06 -0.01 -1.12 -3.31 11.28 -0.25 1.29 0.65 13679
0.05 -0.01 -1.29 -3.13 11.23 -0.25 1.21 0.57 13685
0.05 -0.00 -1.30 -2.93 11.06 -0.27 1.10 0.51 13692
0.05 -0.01 -1.16 -2.57 10.82 -0.29 0.98 0.49 13699
0.04 -0.00 -0.89 -2.30 10.59 -0.32 0.86 0.50 13705
0.05 -0.01 -0.55 -2.05 10.47 -0.33 0.79 0.54 13711
0.05 -0.00 -0.40 -1.94 10.21 -0.34 0.73 0.61 13717
0.04 -0.00 -0.26 -1.81 10.16 -0.34 0.72 0.71 13724
0.05 -0.01 -0.26 -2.44 10.14 -0.33 0.73 0.80 13730
0.05 -0.00 -0.38 -1.91 10.11 -0.32 0.73 0.87 13736
0.04 -0.00 -0.46 -2.02 9.95 -0.30 0.73 0.95 13743
0.06 -0.01 -0.76 -2.13 9.95 -0.28 0.73 1.02 13749
0.04 -0.00 -0.98 -2.18 10.01 -0.26 0.71 1.08 13755
0.04 -0.00 -1.11 -2.42 10.02 -0.25 0.66 1.12 13762
0.06 -0.01 -1.04 -2.61 9.90 -0.25 0.59 1.14 13768
0.05 -0.00 -0.98 -2.63 9.82 -0.26 0.50 1.15 13774
0.04 -0.00 -0.98 -2.81 9.75 -0.27 0.41 1.15 13780
0.05 -0.00 -1.00 -2.91 9.81 -0.27 0.32 1.12 13787
0.05 -0.01 -0.93 -3.12 9.81 -0.28 0.27 1.07 13793
0.04 -0.00 -1.01 -3.27 9.55 -0.28 0.22 1.00 13800
0.06 -0.00 -1.28 -3.52 9.40 -0.27 0.22 0.88 13806
0.05 -0.01 -1.59 -3.69 9.43 -0.24 0.27 0.82 13812
0.06 -0.01 -1.94 -3.78 9.51 -0.20 0.33 0.74 13818
0.05 -0.00 -2.40 -3.88 9.59 -0.16 0.36 0.68 13825
0.06 -0.01 -2.79 -3.89 9.71 -0.12 0.35 0.64 13831
0.05 -0.00 -2.97 -3.77 9.81 -0.10 0.29 0.65 13838
0.05 -0.01 -3.03 -3.70 9.84 -0.09 0.19 0.68 13844
0.06 -0.01 -3.12 -3.74 9.73 -0.10 0.07 0.76 13850
0.05 -0.01 -3.12 -3.77 9.59 -0.11 -0.08 0.86 13856
0.05 -0.01 -3.11 -3.85 9.33 -0.10 -0.20 0.96 13862
0.06 -0.01 -2.89 -4.00 9.04 -0.09 -0.35 1.04 13869
0.05 -0.01 -2.55 -4.13 8.65 -0.06 -0.47 1.11 13876
0.04 -0.00 -2.16 -4.17 8.30 -0.03 -0.54 1.17 13882
0.05 -0.01 -1.82 -4.13 7.92 0.03 -0.56 1.20 13888
0.05 -0.01 -1.61 -4.06 7.47 0.09 -0.53 1.23 13894
0.05 -0.00 -1.41 -3.92 7.01 0.19 -0.48 1.25 13900
0.05 -0.00 -1.12 -3.67 6.59 0.25 -0.43 1.29 13906
0.06 -0.01 -0.92 -3.33 6.13 0.36 -0.39 1.35 13914
0.05 -0.01 -20.02 -6.41 19.26 0.76 -2.07 1.62 13920
0.06 -0.01 -15.19 -3.46 9.52 1.29 -4.00 2.15 13926
0.05 -0.01 -9.09 -1.03 1.18 0.98 -4.28 2.60 13932
0.04 0.02 -0.93 12.14 18.89 0.98 -4.28 2.71 13939
0.05 0.14 -8.11 -3.04 11.21 2.42 -2.89 2.88 13945
0.04 0.28 -25.18 -14.34 58.52 2.55 -1.98 2.92 13952
0.04 0.47 -25.02 1.81 5.92 -0.34 0.13 1.33 13958
0.03 0.54 -6.26 0.21 13.31 -0.11 -0.06 0.14 13965
0.03 0.52 -2.20 0.27 9.00 0.08 -0.04 -0.33 13971
0.03 0.46 4.40 -0.31 9.43 0.16 0.03 -0.13 13977
0.04 0.35 4.12 0.55 9.33 0.14 -0.00 0.27 13983
0.06 0.33 2.72 0.18 10.06 0.10 0.02 0.48 13990
0.07 0.27 -0.52 -0.90 10.69 0.03 -0.07 0.43 13997
0.06 0.26 -0.02 -0.64 9.95 -0.00 -0.13 0.30 14003
0.11 0.29 0.77 -0.78 9.29 -0.03 -0.10 0.25 14009
0.13 0.26 0.51 -1.65 9.97 -0.08 -0.09 0.23 14015
0.12 0.28 0.33 -2.29 9.87 -0.09 -0.07 0.15 14022
0.14 0.32 0.25 -1.16 9.80 -0.10 -0.05 0.10 14028
0.16 0.33 0.26 -0.89 9.70 -0.14 -0.03 0.08 14034
0.15 0.37 0.50 -0.86 10.27 -0.16 -0.01 0.08 14041
0.16 0.45 0.71 -0.68 10.48 -0.14 -0.02 0.08 14047
0.17 0.44 0.74 -0.58 10.31 -0.12 -0.03 0.08 14054
0.19 0.44 0.72 -0.59 10.15 -0.08 -0.02 0.07 14060
0.21 0.46 0.68 -0.74 10.19 -0.06 -0.01 0.07 14066
0.21 0.46 0.65 -0.75 10.14 -0.04 -0.01 0.07 14072
0.22 0.46 0.73 -0.84 10.06 -0.05 -0.01 0.07 14080
0.24 0.42 0.69 -0.85 9.92 -0.05 -0.01 0.06 14086
0.24 0.43 0.68 -0.79 9.98 -0.05 -0.02 0.06 14092
0.26 0.44 0.72 -0.73 10.05 -0.05 -0.02 0.05 14098
0.26 0.46 0.73 -0.70 9.93 -0.04 -0.02 0.05 14105
0.27 0.45 0.69 -0.69 10.07 -0.04 -0.01 0.05 14111
0.30 0.43 0.71 -0.78 10.04 -0.03 -0.01 0.05 14117
0.29 0.45 0.75 -0.74 10.00 -0.04 -0.02 0.05 14124
0.32 0.46 0.70 -0.77 9.99 -0.03 -0.02 0.05 14130
0.31 0.44 0.73 -0.74 10.02 -0.03 -0.02 0.05 14137
0.32 0.44 0.76 -0.74 10.05 -0.04 -0.02 0.05 14143
0.33 0.43 0.73 -0.72 10.00 -0.03 -0.02 0.04 14149
0.34 0.44 0.74 -0.68 10.01 -0.03 -0.02 0.04 14155
0.34 0.44 0.78 -0.71 10.07 -0.03 -0.01 0.04 14162
0.34 0.43 0.75 -0.73 10.03 -0.02 -0.01 0.04 14169
0.32 0.44 0.77 -0.76 10.02 -0.02 -0.01 0.03 14175
0.33 0.44 0.80 -0.75 10.03 -0.02 -0.02 0.04 14181
0.31 0.43 0.75 -0.70 10.04 -0.02 -0.02 0.04 14188
0.34 0.43 0.78 -0.69 10.05 -0.01 -0.02 0.04 14194
0.34 0.40 0.77 -0.72 9.94 -0.01 -0.02 0.04 14200
0.34 0.39 0.76 -0.73 10.03 -0.02 -0.02 0.03 14206
0.35 0.39 0.76 -0.71 9.98 -0.01 -0.02 0.04 14214
0.34 0.39 0.78 -0.73 9.98 -0.01 -0.03 0.04 14220
0.34 0.39 0.76 -0.70 10.02 -0.01 -0.03 0.03 14226
0.35 0.38 0.80 -0.72 10.03 -0.01 -0.03 0.03 14232
0.35 0.38 0.75 -0.72 9.97 -0.01 -0.03 0.03 14238
0.36 0.40 0.74 -0.69 9.98 -0.01 -0.03 0.03 14245
0.37 0.37 0.76 -0.68 9.93 -0.01 -0.03 0.03 14252
0.37 0.37 0.74 -0.68 10.02 -0.01 -0.03 0.03 14258
0.38 0.37 0.74 -0.71 9.98 -0.01 -0.03 0.03 14264
0.38 0.34 0.76 -0.71 10.00 -0.01 -0.03 0.03 14270
0.39 0.34 0.75 -0.67 10.06 -0.00 -0.03 0.03 14277
0.40 0.32 0.75 -0.71 10.02 -0.01 -0.03 0.03 14283
0.39 0.32 0.77 -0.72 9.96 -0.00 -0.03 0.03 14289
0.40 0.33 0.77 -0.68 9.98 -0.00 -0.03 0.03 14296
0.42 0.30 0.79 -0.69 9.98 -0.00 -0.03 0.03 14302
0.42 0.28 0.75 -0.67 9.98 -0.00 -0.03 0.03 14309
0.42 0.30 0.78 -0.71 9.98 -0.01 -0.03 0.03 14315
0.44 0.29 0.77 -0.69 10.01 -0.01 -0.03 0.03 14321
0.44 0.28 0.78 -0.73 10.00 -0.00 -0.03 0.03 14327
0.44 0.29 0.76 -0.69 10.03 -0.01 -0.03 0.03 14334
0.46 0.26 0.74 -0.70 9.97 -0.01 -0.03 0.03 14341
0.46 0.28 0.77 -0.67 9.99 -0.01 -0.03 0.03 14347
0.49 0.29 0.74 -0.71 9.95 -0.01 -0.03 0.03 14353
0.49 0.27 0.75 -0.69 9.95 -0.01 -0.03 0.03 14359
0.50 0.26 0.75 -0.69 10.02 -0.01 -0.03 0.03 14366
0.52 0.25 0.76 -0.65 9.99 -0.01 -0.03 0.03 14372
0.51 0.26 0.70 -0.72 10.00 -0.01 -0.07 0.03 14379
0.50 0.27 0.78 -0.69 10.03 -0.01 -0.03 0.03 14385
0.51 0.26 0.77 -0.68 10.05 -0.01 -0.03 0.03 14391
0.50 0.26 0.77 -0.70 9.97 -0.01 -0.03 0.02 14398
0.49 0.29 0.74 -0.71 10.04 -0.02 -0.03 0.03 14404
0.50 0.28 0.78 -0.69 9.98 -0.01 -0.03 0.03 14410
0.49 0.30 0.76 -0.70 10.00 -0.02 -0.03 0.03 14416
0.50 0.32 0.75 -0.69 10.02 -0.01 -0.04 0.03 14424
0.49 0.32 0.76 -0.69 9.99 -0.01 -0.04 0.02 14430
0.51 0.32 0.77 -0.68 9.98 -0.01 -0.04 0.02 14436
0.53 0.33 0.76 -0.70 10.04 -0.01 -0.04 0.03 14442
0.52 0.32 0.75 -0.70 10.00 -0.01 -0.04 0.02 14448
0.52 0.33 0.77 -0.75 9.97 -0.02 -0.05 0.02 14455
0.51 0.33 0.76 -0.72 9.98 -0.02 -0.05 0.02 14461
0.50 0.33 0.80 -0.72 10.02 -0.02 -0.05 0.03 14468
0.50 0.36 0.80 -0.73 9.97 -0.02 -0.05 0.02 14474
0.51 0.37 0.71 -0.67 9.99 -0.02 -0.05 0.03 14480
0.49 0.38 0.73 -0.70 10.01 -0.02 -0.06 0.02 14487
0.51 0.39 0.77 -0.71 10.00 -0.03 -0.06 0.02 14493
0.51 0.39 0.78 -0.69 10.03 -0.02 -0.06 0.02 14499
0.51 0.41 0.77 -0.70 10.00 -0.02 -0.06 0.02 14505
0.50 0.40 0.73 -0.69 9.96 -0.02 -0.06 0.02 14513
0.48 0.42 0.74 -0.70 9.99 -0.02 -0.06 0.02 14519
0.48 0.43 0.77 -0.73 9.97 -0.02 -0.06 0.02 14525
0.49 0.44 0.74 -0.73 10.01 -0.02 -0.06 0.03 14531
0.44 0.46 0.71 -0.70 9.98 -0.02 -0.06 0.02 14537
0.45 0.47 0.74 -0.69 9.97 -0.02 -0.06 0.02 14544
0.46 0.47 0.74 -0.70 10.03 -0.02 -0.06 0.02 14551
0.44 0.43 0.73 -0.71 10.00 -0.01 -0.06 0.02 14557
0.44 0.45 0.71 -0.71 10.00 -0.02 -0.06 0.02 14563
0.44 0.45 0.71 -0.69 9.99 -0.02 -0.06 0.02 14569
0.45 0.45 0.71 -0.74 10.00 -0.01 -0.05 0.02 14576
0.41 0.49 0.72 -0.66 10.01 -0.01 -0.06 0.02 14582
0.42 0.48 0.72 -0.70 10.01 -0.01 -0.06 0.02 14588
0.41 0.50 0.71 -0.70 10.03 -0.01 -0.06 0.02 14595
0.40 0.48 0.73 -0.68 10.01 -0.01 -0.06 0.03 14602
0.37 0.48 0.69 -0.70 10.03 -0.01 -0.06 0.02 14608
0.39 0.47 0.72 -0.69 10.02 -0.01 -0.06 0.02 14614
0.38 0.45 0.69 -0.66 9.99 -0.00 -0.06 0.02 14620
0.36 0.46 0.70 -0.71 10.03 -0.00 -0.06 0.02 14627
0.39 0.44 0.72 -0.69 10.00 -0.00 -0.06 0.02 14633
0.40 0.44 0.72 -0.73 9.99 0.00 -0.06 0.02 14640
0.39 0.45 0.73 -0.70 10.01 0.00 -0.06 0.01 14646
0.38 0.43 0.75 -0.70 10.06 0.01 -0.07 0.01 14652
0.38 0.41 0.72 -0.75 10.08 0.01 -0.07 0.01 14659
0.43 0.39 0.72 -0.73 10.05 0.02 -0.07 0.00 14665
0.39 0.35 0.72 -0.72 10.04 0.03 -0.07 -0.00 14671
0.40 0.31 0.74 -0.71 10.06 0.03 -0.07 -0.01 14678
0.41 0.26 0.78 -0.79 10.07 0.04 -0.08 -0.02 14685
0.39 0.22 0.81 -0.70 10.10 0.06 -0.08 -0.06 14691
0.40 0.22 0.79 -0.80 10.11 0.08 -0.08 -0.04 14697
0.41 0.12 0.88 -0.74 10.15 0.10 -0.08 -0.05 14703
0.39 0.08 0.90 -0.78 10.24 0.13 -0.09 -0.06 14710
0.38 0.02 1.00 -0.81 10.28 0.17 -0.10 -0.09 14716
0.34 0.01 1.13 -0.98 10.52 0.22 -0.12 -0.13 14723
0.36 0.01 1.88 -1.14 10.91 0.32 -0.18 -0.21 14729
0.32 -0.00 2.41 -1.52 11.52 0.46 -0.29 -0.37 14736
0.34 -0.00 4.33 -1.92 11.74 0.61 -0.52 -0.60 14742
0.35 -0.02 7.30 -3.06 11.30 0.66 -0.77 -0.98 14748
0.33 -0.03 8.95 -3.94 10.53 0.60 -0.75 -1.58 14754
0.35 -0.01 9.88 -3.10 12.61 0.70 -0.60 -2.19 14761
0.33 -0.03 5.72 -3.32 14.15 0.99 -0.57 -2.65 14768
0.32 -0.01 5.43 -3.79 12.22 1.19 -0.90 -2.90 14774
0.31 -0.02 5.93 -3.53 9.82 1.25 -1.02 -3.13 14781
0.25 -0.02 7.18 -3.72 10.76 1.21 -0.96 -3.42 14787
0.22 -0.02 7.23 -4.07 10.07 1.20 -0.73 -3.73 14793
0.19 -0.02 6.75 -2.86 10.44 1.19 -0.40 -4.02 14799
0.17 -0.01 6.58 -2.47 10.34 1.08 -0.21 -4.26 14806
0.12 -0.01 6.22 -1.66 10.67 0.96 -0.09 -4.28 14813
0.10 -0.01 6.35 -1.21 11.14 0.84 -0.04 -4.28 14819
0.10 -0.01 5.87 -0.31 11.93 0.63 -0.15 -4.28 14825
0.09 -0.01 3.98 -0.20 12.01 0.42 -0.43 -4.28 14831
0.07 -0.01 3.81 0.62 12.69 0.20 -0.83 -4.28 14838
0.06 -0.01 2.45 2.37 11.85 -0.08 -1.28 -4.28 14844
0.05 -0.00 3.54 3.77 10.11 -0.33 -1.67 -4.27 14851
0.04 0.00 5.36 5.00 8.72 -0.58 -1.98 -4.01 14857
0.04 -0.00 7.58 3.70 8.04 -0.74 -1.99 -3.47 14863
0.04 -0.00 7.48 1.04 9.82 -0.79 -1.59 -2.76 14870
0.04 -0.00 9.20 0.16 11.42 -0.78 -0.69 -2.04 14876
0.06 -0.01 10.34 0.30 10.07 -0.75 -0.01 -1.57 14882
0.04 -0.00 9.21 0.65 7.69 -0.70 0.35 -1.12 14888
0.05 -0.01 7.46 0.62 6.80 -0.64 0.53 -0.75 14895
0.06 -0.01 6.09 0.37 7.00 -0.56 0.66 -0.41 14901
0.05 -0.01 5.31 -0.06 8.12 -0.42 0.79 -0.09 14908
0.04 -0.00 4.87 -0.48 8.93 -0.27 0.90 0.18 14914
0.05 -0.00 4.42 -0.50 9.18 -0.19 0.97 0.40 14920
0.05 -0.01 4.03 -0.25 9.43 -0.15 0.98 0.57 14926
0.05 -0.00 3.51 0.00 9.44 -0.15 0.95 0.71 14932
0.05 -0.01 2.77 0.22 9.46 -0.17 0.94 0.80 14939
0.06 -0.01 2.02 0.19 9.58 -0.17 0.93 0.89 14945
0.06 -0.01 1.30 -0.01 9.67 -0.15 0.94 0.95 14951
0.05 -0.00 0.70 -0.26 9.76 -0.11 0.94 0.99 14958
0.06 -0.01 0.22 -0.44 9.81 -0.03 0.94 1.00 14964
0.06 -0.01 -0.15 -0.49 9.84 -0.02 0.94 0.98 14970
0.06 -0.01 -0.53 -0.60 10.13 0.02 0.96 0.92 14977
0.06 -0.01 -0.90 -0.59 10.60 0.04 1.03 0.85 14983
0.06 -0.01 -1.04 -0.68 10.97 0.06 1.10 0.75 14989
0.05 -0.01 -1.20 -0.81 11.11 0.03 1.13 0.70 14996
0.04 0.00 -1.49 -0.79 11.36 -0.01 1.12 0.62 15002
0.05 -0.00 -1.66 -0.68 11.41 -0.06 1.05 0.55 15008
0.04 -0.00 -1.43 -0.62 11.25 -0.11 0.90 0.51 15014
0.05 -0.00 -1.02 -0.47 11.01 -0.14 0.73 0.49 15022
0.05 -0.01 -0.30 -0.44 10.67 -0.17 0.56 0.48 15028
0.04 -0.00 0.57 -0.51 10.38 -0.19 0.43 0.48 15034
0.06 -0.01 1.37 -0.60 10.12 -0.20 0.37 0.49 15040
0.05 -0.01 2.03 -0.61 9.91 -0.19 0.39 0.50 15046
0.04 -0.00 2.39 -0.73 9.70 -0.17 0.47 0.52 15052
0.05 -0.01 2.51 -0.83 9.64 -0.14 0.59 0.53 15059
0.05 -0.01 2.37 -0.82 9.60 -0.10 0.68 0.54 15066
0.05 -0.00 2.05 -0.72 9.63 -0.06 0.79 0.55 15072
0.05 -0.00 1.69 -0.58 9.62 -0.02 0.88 0.57 15078
0.07 -0.01 1.40 -0.25 9.66 0.01 0.93 0.60 15084
0.05 -0.01 1.16 0.03 9.66 0.02 0.94 0.64 15090
0.04 -0.00 1.02 0.21 9.77 0.01 0.90 0.69 15096
0.05 -0.01 1.03 0.26 9.85 0.00 0.85 0.75 15102
0.06 -0.01 1.10 0.32 10.02 -0.03 0.80 0.80 15110
0.06 -0.01 1.18 0.25 10.17 -0.06 0.76 0.85 15116
0.06 -0.01 1.26 0.06 10.21 -0.10 0.73 0.90 15122
0.06 -0.01 1.39 -0.20 10.16 -0.15 0.70 0.94 15128
0.05 -0.01 1.59 -0.48 10.19 -0.20 0.67 0.97 15134
0.05 -0.00 1.69 -0.72 10.17 -0.24 0.66 0.97 15141
0.06 -0.01 1.60 -0.96 10.05 -0.28 0.69 0.97 15148
0.05 -0.00 1.54 -1.29 10.01 -0.31 0.75 0.96 15154
0.04 -0.00 1.26 -1.56 9.98 -0.32 0.81 0.96 15160
0.06 -0.01 0.92 -1.81 9.98 -0.32 0.85 0.96 15166
0.05 -0.01 0.61 -2.05 9.84 -0.31 0.87 0.96 15172
0.04 -0.00 0.39 -2.18 9.89 -0.30 0.87 0.96 15178
0.05 -0.01 0.11 -2.40 9.81 -0.27 0.83 0.97 15185
0.05 -0.01 -0.10 -2.55 9.70 -0.25 0.75 0.98 15192
0.05 -0.00 -0.22 -2.68 9.68 -0.21 0.68 0.99 15198
0.05 -0.00 -0.16 -2.84 9.58 -0.18 0.61 1.00 15204
0.05 -0.01 0.03 -3.01 9.63 -0.15 0.55 1.01 15210
0.04 -0.00 0.13 -3.12 9.76 -0.11 0.52 1.05 15216
0.05 -0.00 0.17 -3.24 9.87 -0.07 0.52 1.09 15222
0.06 -0.01 0.14 -3.36 9.92 -0.05 0.54 1.15 15229
0.05 -0.00 0.02 -3.44 9.82 -0.04 0.54 1.21 15236
0.04 -0.00 -0.22 -3.53 9.53 -0.04 0.52 1.28 15242
0.05 -0.00 -0.54 -3.55 9.39 -0.03 0.46 1.36 15248
0.05 -0.00 -0.64 -3.64 9.26 -0.01 0.37 1.44 15254
0.05 -0.00 -0.58 -3.76 9.11 0.01 0.30 1.53 15260
0.05 -0.00 -0.48 -3.98 8.87 0.04 0.26 1.60 15267
0.06 -0.01 -0.52 -4.14 8.68 0.08 0.27 1.66 15273
0.05 -0.00 -0.65 -4.29 8.63 0.11 0.32 1.70 15280
0.04 -0.00 -0.90 -4.46 8.56 0.16 0.37 1.73 15286
0.05 -0.01 -1.37 -4.56 8.35 0.21 0.41 1.74 15292
0.05 -0.00 -2.00 -4.68 8.21 0.27 0.42 1.74 15298
0.04 -0.00 -4.62 -5.98 8.78 0.36 0.28 1.74 15304
0.05 0.00 -15.49 -7.73 17.15 0.88 -1.97 1.85 15311
0.04 -0.00 -12.24 -3.87 8.27 0.78 -2.70 2.04 15318
0.03 -0.00 -9.46 -2.60 3.20 0.69 -3.43 2.20 15324
0.05 -0.01 -9.71 -5.34 7.24 0.59 -4.21 2.30 15330
0.04 -0.00 -11.00 -6.47 9.78 0.50 -4.28 2.32 15337
0.04 0.04 -14.13 1.70 29.65 1.43 -3.45 2.59 15343
0.04 0.14 -15.01 -11.14 16.82 1.61 -2.01 2.99 15349
0.02 0.30 -31.90 -3.46 25.17 0.93 -2.01 2.21 15356
0.03 0.35 -11.72 -4.43 12.19 -0.11 -0.39 0.72 15363
0.03 0.37 -5.76 -1.37 12.79 -0.12 -0.17 -0.04 15369
0.04 0.44 -1.81 0.68 9.61 -0.07 -0.11 -0.37 15375
0.03 0.39 3.45 -0.02 9.25 0.09 -0.08 -0.37 15382
0.03 0.37 5.15 -0.33 10.39 0.12 -0.09 0.01 15388
0.05 0.36 2.64 0.97 9.54 0.08 -0.08 0.26 15394
0.07 0.36 1.72 -0.01 10.91 0.01 -0.14 0.36 15400
0.06 0.40 -0.58 -2.60 10.70 -0.01 -0.17 0.28 15407
0.07 0.39 0.06 -1.46 9.67 -0.00 -0.13 0.15 15414
0.07 0.39 0.79 -0.39 9.83 -0.05 -0.12 0.14 15420
0.09 0.45 0.06 -1.67 9.88 -0.09 -0.09 0.17 15426
0.11 0.43 -0.13 -1.37 10.08 -0.11 -0.06 0.12 15432
0.11 0.48 0.44 -0.81 10.05 -0.12 -0.05 0.09 15439
0.11 0.56 0.49 -0.69 10.26 -0.12 -0.04 0.10 15446
0.11 0.63 0.39 -0.55 10.11 -0.12 -0.05 0.09 15452
0.11 0.69 0.38 -0.54 9.81 -0.08 -0.04 0.07 15458
0.11 0.69 0.48 -0.61 10.08 -0.07 -0.00 0.07 15465
0.11 0.70 0.52 -0.69 10.01 -0.06 -0.02 0.07 15471
0.16 0.73 0.52 -0.81 9.99 -0.05 -0.02 0.06 15477
0.14 0.69 0.59 -0.81 9.96 -0.06 -0.02 0.05 15483
0.14 0.74 0.52 -0.76 10.05 -0.06 -0.03 0.05 15490
0.16 0.76 0.45 -0.74 10.08 -0.05 -0.02 0.04 15497
0.16 0.76 0.18 -0.39 10.42 -0.04 -0.01 0.04 15503
0.18 0.74 0.54 -0.68 10.18 -0.05 -0.01 0.05 15509
0.20 0.73 0.56 -0.69 10.11 -0.04 -0.00 0.04 15515
