Voltage_01 Voltage_02 Acc_x Acc_y Acc_z Gyro_x Gyro_y Gyro_z Time
5000
0.09 0.73 0.71 -0.73 9.94 0.00 -0.05 0.04 17
0.10 0.71 0.73 -0.73 9.95 0.01 -0.05 0.04 23
0.11 0.69 0.70 -0.71 9.96 0.00 -0.05 0.04 29
0.13 0.64 0.73 -0.70 9.98 0.00 -0.05 0.04 35
0.12 0.60 0.73 -0.73 9.96 0.00 -0.04 0.04 41
0.12 0.55 0.76 -0.77 10.00 0.00 -0.04 0.04 48
0.16 0.54 0.70 -0.71 10.03 0.01 -0.04 0.04 54
0.16 0.52 0.75 -0.76 9.98 0.01 -0.04 0.04 60
0.16 0.48 0.76 -0.77 9.94 0.00 -0.04 0.04 66
0.14 0.49 0.73 -0.76 9.96 -0.00 -0.05 0.04 72
0.17 0.46 0.75 -0.74 9.97 -0.00 -0.04 0.04 78
0.19 0.47 0.75 -0.74 9.96 -0.01 -0.05 0.04 84
0.20 0.42 0.75 -0.71 10.00 -0.01 -0.05 0.04 91
0.20 0.41 0.75 -0.72 9.97 -0.00 -0.05 0.04 97
0.20 0.42 0.73 -0.73 9.98 -0.00 -0.05 0.03 103
0.21 0.40 0.74 -0.74 9.98 -0.00 -0.04 0.04 109
0.21 0.39 0.72 -0.75 9.97 -0.00 -0.04 0.04 116
0.22 0.38 0.73 -0.78 9.98 -0.00 -0.04 0.04 122
0.21 0.37 0.74 -0.73 9.83 -0.00 -0.04 0.04 129
0.23 0.37 0.72 -0.76 9.96 -0.00 -0.05 0.04 135
0.24 0.35 0.74 -0.74 9.94 0.00 -0.04 0.04 141
0.25 0.31 0.70 -0.73 9.94 0.01 -0.05 0.03 147
0.25 0.27 0.76 -0.80 10.07 0.01 -0.04 0.03 153
0.21 0.30 0.68 -0.73 9.97 0.01 -0.04 0.03 159
0.24 0.25 0.72 -0.76 9.94 0.01 -0.05 0.03 165
0.23 0.23 0.70 -0.74 9.98 0.00 -0.04 0.03 172
0.25 0.21 0.71 -0.76 9.96 0.01 -0.05 0.03 178
0.28 0.22 0.69 -0.77 9.98 0.01 -0.05 0.03 184
0.27 0.21 0.72 -0.79 9.96 0.00 -0.05 0.03 191
0.29 0.19 0.72 -0.76 9.95 -0.00 -0.05 0.04 197
0.29 0.19 0.73 -0.79 9.92 0.00 -0.05 0.07 203
0.27 0.17 0.72 -0.76 9.98 -0.00 -0.05 0.04 209
0.31 0.17 0.71 -0.74 10.03 -0.00 -0.05 0.03 216
0.31 0.16 0.74 -0.75 10.02 -0.00 -0.06 0.03 222
0.28 0.16 0.70 -0.77 9.96 -0.00 -0.06 0.04 228
0.28 0.15 0.71 -0.77 9.98 0.00 -0.06 0.03 234
0.29 0.16 0.70 -0.77 9.93 -0.01 -0.06 0.04 240
0.33 0.15 0.73 -0.76 9.98 -0.00 -0.06 0.04 246
0.34 0.16 0.70 -0.77 9.99 -0.00 -0.06 0.04 252
0.33 0.16 0.72 -0.76 9.99 -0.01 -0.07 0.04 260
0.34 0.16 0.71 -0.78 9.97 -0.01 -0.07 0.04 266
0.35 0.18 0.75 -0.75 10.03 -0.00 -0.07 0.04 272
0.35 0.16 0.66 -0.74 9.98 -0.00 -0.07 0.04 278
0.35 0.13 0.69 -0.79 9.97 -0.00 -0.07 0.04 284
0.34 0.14 0.65 -0.80 9.96 -0.00 -0.07 0.04 290
0.36 0.15 0.73 -0.77 9.95 -0.00 -0.07 0.04 296
0.36 0.11 0.71 -0.79 10.05 0.00 -0.08 0.03 303
0.38 0.10 0.70 -0.81 10.00 0.00 -0.07 0.04 309
0.37 0.08 0.63 -0.78 10.05 0.00 -0.08 0.03 316
0.39 0.10 0.68 -0.77 10.02 0.00 -0.08 0.03 322
0.39 0.05 0.76 -0.75 10.03 0.01 -0.08 0.03 328
0.37 0.05 0.69 -0.75 10.05 0.02 -0.09 0.03 334
0.35 0.04 0.64 -0.81 10.05 0.02 -0.09 0.02 340
0.38 0.05 0.65 -0.79 10.03 0.04 -0.09 0.02 347
0.35 0.03 0.63 -0.74 10.07 0.05 -0.09 0.02 353
0.35 0.00 0.68 -0.73 10.17 0.07 -0.09 0.01 359
0.39 0.01 0.74 -0.77 10.25 0.11 -0.09 0.01 366
0.40 -0.02 0.76 -0.82 10.28 0.16 -0.10 0.00 372
0.41 -0.04 0.86 -0.88 10.43 0.21 -0.13 -0.01 378
0.44 -0.02 1.07 -0.86 10.84 0.29 -0.17 -0.03 385
0.54 -0.03 1.48 -0.95 11.02 0.41 -0.23 -0.08 391
0.57 -0.04 2.25 -1.16 11.68 0.53 -0.35 -0.18 397
0.54 -0.04 3.31 -1.69 12.43 0.71 -0.53 -0.35 403
0.59 -0.04 3.33 -1.76 14.31 1.01 -0.82 -0.52 410
0.60 -0.04 2.99 -2.09 15.02 1.39 -1.14 -0.64 416
0.57 -0.03 3.25 -2.22 14.35 1.58 -1.57 -0.78 422
0.58 -0.03 3.51 -2.67 14.07 1.60 -1.81 -0.90 429
0.52 -0.03 1.84 -5.21 18.39 1.56 -2.07 -1.10 435
0.47 -0.02 4.70 -3.67 13.25 1.61 -2.17 -1.30 442
0.40 -0.01 5.22 -4.31 12.55 1.62 -2.24 -1.54 448
0.33 -0.02 5.56 -4.96 11.80 1.55 -2.19 -1.80 454
0.23 -0.02 6.42 -4.70 11.86 1.46 -2.05 -2.09 460
0.21 -0.01 6.47 -5.06 11.59 1.31 -1.92 -2.36 466
0.13 -0.01 5.90 -4.32 11.51 1.14 -1.88 -2.59 473
0.11 -0.01 5.74 -3.59 12.04 0.96 -1.92 -2.77 479
0.08 -0.01 4.98 -2.44 12.34 0.71 -2.19 -2.88 486
0.07 -0.01 4.31 -1.68 12.35 0.42 -2.64 -3.00 492
0.06 -0.01 4.12 -0.63 11.90 0.13 -3.10 -3.12 498
0.08 -0.01 5.39 0.71 11.71 -0.13 -3.45 -3.18 504
0.08 -0.00 8.95 2.70 10.77 -0.32 -3.52 -3.11 510
0.08 -0.01 13.26 4.75 8.58 -0.53 -3.19 -2.73 517
0.07 -0.01 17.97 4.17 8.92 -0.74 -2.39 -1.93 523
0.06 -0.01 17.29 3.47 8.96 -0.96 -0.59 -1.13 529
0.07 -0.00 18.19 3.79 9.18 -1.10 0.63 -0.51 536
0.06 -0.01 15.25 2.68 5.54 -1.13 0.92 -0.06 542
0.06 -0.01 11.48 1.77 3.57 -1.03 1.00 0.30 548
0.06 -0.01 9.81 0.94 3.35 -0.81 1.21 0.62 555
0.06 -0.01 9.71 0.20 4.68 -0.48 1.41 0.90 561
0.07 -0.01 9.51 0.12 6.17 -0.18 1.70 1.08 567
0.05 -0.01 9.14 0.94 8.06 0.03 2.00 1.22 573
0.06 -0.01 8.42 1.75 9.23 0.09 2.28 1.31 579
0.05 -0.01 6.87 2.23 9.80 0.06 2.50 1.37 585
0.05 -0.01 5.25 2.31 10.53 -0.03 2.60 1.47 591
0.07 -0.01 3.19 2.15 11.64 -0.12 2.64 1.50 598
0.06 -0.01 1.31 1.57 11.82 -0.19 2.59 1.55 604
0.05 -0.01 -0.15 0.98 12.62 -0.23 2.49 1.57 610
0.05 -0.01 -1.12 0.52 13.13 -0.28 2.37 1.53 616
0.07 -0.01 -1.69 0.09 13.42 -0.36 2.27 1.43 623
0.06 -0.01 -2.01 -0.06 13.34 -0.47 2.13 1.25 629
0.05 -0.01 -2.08 -0.32 13.15 -0.59 2.01 1.06 635
0.05 -0.01 -2.25 -0.76 12.91 -0.69 1.92 0.80 642
0.06 -0.01 -2.17 -1.06 12.68 -0.78 1.88 0.50 648
0.05 -0.01 -2.12 -1.43 12.69 -0.82 1.85 0.20 654
0.05 -0.01 -2.38 -1.67 12.74 -0.86 1.82 -0.10 660
0.05 -0.01 -2.55 -1.96 12.76 -0.89 1.78 -0.37 666
0.06 -0.01 -2.68 -2.22 12.70 -0.91 1.69 -0.61 672
0.05 -0.01 -2.64 -2.39 12.66 -0.91 1.56 -0.80 679
0.05 -0.00 -2.59 -2.64 12.40 -0.90 1.42 -0.97 686
0.05 -0.01 -2.33 -2.97 12.25 -0.88 1.32 -1.08 692
0.06 -0.01 -1.92 -3.25 12.02 -0.80 1.24 -1.15 698
0.05 -0.01 -1.49 -3.54 11.82 -0.77 1.19 -1.18 704
0.05 -0.00 -1.12 -3.69 11.68 -0.69 1.13 -1.17 710
0.06 -0.00 -0.77 -3.63 11.43 -0.60 1.07 -1.12 716
0.06 -0.01 -0.54 -3.54 11.19 -0.50 1.02 -1.01 722
0.06 -0.01 -0.48 -3.31 11.04 -0.41 0.98 -0.86 730
0.05 -0.00 -0.52 -3.11 11.03 -0.33 0.95 -0.66 736
0.05 -0.00 -0.61 -2.86 10.95 -0.26 0.94 -0.42 742
0.06 -0.01 -0.78 -2.61 10.92 -0.18 0.93 -0.17 748
0.06 -0.01 -0.83 -2.36 10.93 -0.11 0.93 0.10 754
0.05 -0.01 -1.09 -2.18 11.12 -0.05 0.94 0.36 760
0.07 -0.01 -1.37 -2.06 11.18 0.00 0.95 0.57 766
0.06 -0.01 -1.74 -2.04 11.23 0.04 0.93 0.80 773
0.06 -0.01 -2.15 -2.14 11.04 0.06 0.91 0.99 779
0.05 -0.01 -2.40 -2.23 10.93 0.08 0.86 1.16 785
0.06 -0.01 -2.53 -2.40 10.81 0.08 0.79 1.29 792
0.05 -0.01 -2.57 -2.48 10.78 0.08 0.69 1.38 798
0.05 -0.01 -2.54 -2.57 10.63 0.05 0.60 1.46 804
0.05 -0.00 -2.50 -2.74 10.39 0.02 0.52 1.53 811
0.05 -0.00 -2.31 -2.95 9.97 0.00 0.45 1.57 817
0.06 -0.01 -2.03 -3.22 9.48 -0.01 0.39 1.60 823
0.05 -0.00 -1.89 -3.47 8.98 0.00 0.35 1.61 829
0.05 -0.01 -1.66 -3.75 8.71 0.04 0.34 1.61 835
0.05 -0.01 -1.48 -3.93 8.53 0.10 0.36 1.61 841
0.05 -0.00 -1.40 -4.03 8.66 0.17 0.39 1.61 847
0.06 -0.01 -1.39 -3.89 8.78 0.21 0.41 1.60 854
0.05 -0.01 -1.52 -3.63 8.69 0.26 0.43 1.60 860
0.06 -0.01 -1.65 -3.54 8.71 0.29 0.44 1.62 866
0.05 -0.01 -1.81 -3.54 8.91 0.31 0.44 1.63 872
0.05 -0.01 -2.04 -3.42 9.20 0.32 0.42 1.65 879
0.06 -0.01 -2.28 -3.14 9.38 0.32 0.39 1.67 885
0.05 -0.01 -2.45 -3.00 9.37 0.31 0.35 1.69 891
0.05 -0.00 -2.83 -3.02 9.30 0.28 0.35 1.69 898
0.05 -0.01 -3.08 -3.08 9.21 0.25 0.34 1.69 904
0.06 -0.01 -3.38 -3.05 8.92 0.24 0.32 1.68 910
0.06 -0.01 -3.64 -2.90 8.36 0.23 0.24 1.68 916
0.05 -0.01 -3.77 -2.62 7.81 0.24 0.20 1.68 922
0.05 -0.01 -3.68 -2.20 7.42 0.27 0.10 1.68 928
0.05 -0.01 -6.83 -4.10 8.91 0.36 -0.21 1.69 934
0.05 -0.01 -12.72 -2.75 16.10 0.98 -2.53 1.84 941
0.05 -0.01 -9.85 -3.27 5.48 0.87 -2.70 1.95 947
0.06 -0.01 -5.69 -4.30 4.79 0.85 -3.25 1.98 953
0.04 -0.00 -5.72 -5.68 9.49 0.80 -3.67 1.87 959
0.05 -0.00 -8.27 -4.55 10.76 0.81 -4.06 1.63 965
0.06 0.01 -4.12 7.78 18.70 1.18 -3.69 1.41 972
0.05 0.06 -5.85 -4.12 11.95 1.65 -1.99 1.30 978
0.04 0.18 -15.48 -2.15 34.95 1.22 -2.62 0.78 985
0.04 0.28 -4.74 -0.71 16.21 0.23 -1.57 0.12 991
0.04 0.38 -0.44 -1.75 14.57 0.03 -0.46 0.06 997
0.03 0.39 -0.49 -0.41 10.69 -0.02 -0.12 0.08 1004
0.04 0.39 1.32 -0.29 9.86 0.05 -0.11 0.08 1010
0.04 0.37 2.18 -0.05 9.68 0.13 -0.15 0.17 1016
0.05 0.35 2.35 0.06 10.30 0.14 -0.16 0.31 1022
0.04 0.32 1.18 -0.38 9.68 0.08 -0.12 0.40 1029
0.04 0.33 0.13 -1.19 9.83 0.03 -0.12 0.37 1035
0.08 0.31 0.24 -1.28 9.49 -0.01 -0.08 0.30 1041
0.08 0.31 -0.13 -1.54 9.71 -0.02 -0.04 0.23 1048
0.12 0.29 -0.14 -1.71 9.97 -0.04 -0.01 0.18 1054
0.10 0.32 0.22 -1.37 9.89 -0.07 -0.00 0.14 1060
0.13 0.38 0.44 -1.19 9.97 -0.10 0.00 0.11 1067
0.13 0.41 0.52 -0.83 10.04 -0.13 0.01 0.09 1073
0.14 0.46 0.66 -0.92 10.19 -0.14 -0.01 0.08 1079
0.15 0.53 0.67 -0.78 10.34 -0.13 -0.04 0.07 1086
0.16 0.58 0.67 -0.63 10.11 -0.09 -0.04 0.07 1092
0.15 0.60 0.66 -0.72 10.07 -0.06 -0.02 0.07 1098
0.16 0.64 0.66 -0.76 10.09 -0.05 -0.02 0.07 1104
0.16 0.65 0.69 -0.82 10.05 -0.04 -0.02 0.07 1111
0.17 0.64 0.68 -0.90 9.99 -0.05 -0.01 0.08 1118
0.17 0.65 0.70 -0.91 10.02 -0.05 -0.02 0.07 1124
0.17 0.69 0.74 -0.86 10.06 -0.05 -0.01 0.07 1130
0.14 0.71 0.76 -0.76 10.09 -0.04 -0.01 0.06 1136
0.15 0.73 0.74 -0.75 9.97 -0.03 -0.01 0.06 1142
0.16 0.73 0.74 -0.79 9.99 -0.03 -0.01 0.06 1148
0.14 0.77 0.75 -0.74 9.94 -0.03 -0.01 0.06 1156
0.13 0.79 0.79 -0.73 10.01 -0.03 -0.01 0.06 1162
0.13 0.78 0.79 -0.75 9.95 -0.03 -0.00 0.06 1168
0.14 0.77 0.75 -0.75 10.00 -0.03 -0.00 0.05 1174
0.13 0.77 0.75 -0.79 9.97 -0.03 -0.00 0.05 1180
0.15 0.80 0.76 -0.77 10.02 -0.03 -0.00 0.05 1186
0.12 0.75 0.76 -0.76 10.05 -0.02 0.00 0.05 1193
0.12 0.79 0.76 -0.75 10.00 -0.02 0.00 0.05 1200
0.14 0.78 0.72 -0.80 10.03 -0.02 0.01 0.05 1206
0.13 0.77 0.76 -0.75 10.03 -0.02 0.01 0.05 1212
0.12 0.77 0.77 -0.77 10.00 -0.02 0.02 0.05 1218
0.14 0.78 0.76 -0.76 10.00 -0.02 0.02 0.05 1225
0.10 0.76 0.78 -0.72 10.02 -0.01 0.02 0.05 1231
0.10 0.74 0.78 -0.69 9.92 -0.01 0.02 0.05 1238
0.09 0.76 0.83 -0.70 9.97 -0.01 0.02 0.05 1244
0.09 0.74 0.80 -0.69 9.99 -0.00 0.02 0.05 1250
0.07 0.73 0.81 -0.72 10.02 -0.00 0.01 0.05 1256
0.07 0.75 0.80 -0.70 9.93 -0.00 0.01 0.04 1262
0.08 0.74 0.84 -0.71 9.98 -0.00 0.01 0.05 1269
0.07 0.75 0.79 -0.73 9.98 -0.00 0.01 0.04 1275
0.07 0.75 0.79 -0.73 10.01 -0.00 0.01 0.04 1282
0.08 0.75 0.84 -0.73 9.92 -0.00 0.00 0.04 1288
0.07 0.73 0.85 -0.72 9.98 -0.01 0.00 0.04 1294
0.06 0.72 0.82 -0.73 9.95 -0.00 -0.00 0.05 1300
0.08 0.71 0.85 -0.73 9.95 -0.00 -0.01 0.04 1306
0.08 0.70 0.82 -0.73 9.97 -0.00 -0.01 0.04 1313
0.08 0.69 0.86 -0.74 9.93 -0.00 -0.02 0.04 1319
0.07 0.69 0.86 -0.70 9.98 -0.00 -0.02 0.04 1326
0.08 0.70 0.90 -0.75 9.93 -0.01 -0.03 0.04 1332
0.08 0.70 0.86 -0.74 9.93 -0.01 -0.04 0.04 1338
0.07 0.70 0.84 -0.72 9.96 -0.01 -0.05 0.04 1344
0.07 0.70 0.87 -0.74 9.98 -0.01 -0.06 0.04 1350
0.09 0.70 0.85 -0.78 10.09 -0.01 -0.06 0.04 1357
0.07 0.69 0.82 -0.78 9.96 -0.02 -0.07 0.04 1363
0.07 0.68 0.85 -0.72 9.96 -0.02 -0.07 0.03 1370
0.08 0.69 0.80 -0.76 9.95 -0.02 -0.07 0.04 1376
0.08 0.68 0.79 -0.75 10.00 -0.02 -0.06 0.04 1382
0.08 0.68 0.80 -0.73 9.99 -0.01 -0.06 0.03 1388
0.08 0.68 0.79 -0.73 9.98 -0.01 -0.05 0.04 1394
0.09 0.68 0.80 -0.72 9.98 -0.01 -0.05 0.04 1401
0.08 0.65 0.82 -0.70 9.93 -0.01 -0.04 0.04 1408
0.08 0.67 0.83 -0.71 9.96 -0.01 -0.04 0.04 1414
0.08 0.67 0.79 -0.73 9.96 -0.01 -0.04 0.04 1420
0.08 0.66 0.79 -0.74 9.97 -0.01 -0.04 0.04 1426
0.07 0.67 0.80 -0.73 9.96 -0.01 -0.04 0.04 1432
0.08 0.67 0.79 -0.74 10.01 -0.02 -0.04 0.04 1438
0.09 0.67 0.78 -0.71 9.97 -0.01 -0.03 0.04 1445
0.08 0.66 0.81 -0.78 9.97 -0.01 -0.03 0.03 1452
0.08 0.68 0.79 -0.72 9.92 -0.01 -0.03 0.03 1458
0.10 0.68 0.80 -0.70 9.95 -0.01 -0.03 0.03 1464
0.09 0.68 0.81 -0.73 9.98 -0.01 -0.02 0.03 1470
0.08 0.69 0.79 -0.68 9.95 -0.01 -0.02 0.03 1476
0.10 0.69 0.80 -0.70 10.01 -0.01 -0.02 0.03 1482
0.09 0.67 0.81 -0.74 9.98 -0.01 -0.02 0.03 1489
0.09 0.64 0.79 -0.75 9.95 -0.01 -0.02 0.02 1496
0.09 0.63 0.82 -0.69 10.00 -0.01 -0.02 0.03 1502
0.11 0.64 0.82 -0.76 9.98 -0.01 -0.02 0.03 1508
0.09 0.65 0.84 -0.71 9.98 -0.01 -0.02 0.03 1514
0.09 0.65 0.82 -0.73 9.96 -0.01 -0.02 0.03 1520
0.11 0.66 0.80 -0.74 9.97 -0.01 -0.02 0.03 1526
0.11 0.65 0.80 -0.72 9.99 -0.02 -0.02 0.02 1533
0.10 0.65 0.76 -0.74 9.95 -0.01 -0.03 0.02 1540
0.09 0.65 0.81 -0.71 10.01 -0.01 -0.03 0.03 1546
0.09 0.65 0.83 -0.76 10.00 -0.01 -0.03 0.03 1552
0.09 0.64 0.79 -0.75 9.98 -0.01 -0.03 0.03 1558
0.08 0.65 0.85 -0.71 10.03 -0.01 -0.03 0.03 1564
0.09 0.64 0.83 -0.74 9.97 -0.01 -0.03 0.03 1571
0.08 0.64 0.81 -0.72 9.91 -0.01 -0.04 0.03 1577
0.06 0.64 0.84 -0.72 9.96 -0.01 -0.04 0.03 1584
0.07 0.63 0.78 -0.72 9.93 -0.01 -0.04 0.03 1590
0.06 0.61 0.68 -1.12 9.76 -0.01 -0.05 0.03 1596
0.07 0.59 0.81 -0.76 10.00 -0.01 -0.04 0.03 1602
0.08 0.61 0.85 -0.69 9.96 -0.01 -0.05 0.03 1608
0.09 0.56 0.84 -0.73 9.96 -0.01 -0.05 0.03 1615
0.09 0.53 0.83 -0.74 10.08 -0.01 -0.06 0.03 1622
0.07 0.57 0.81 -0.70 9.97 -0.01 -0.05 0.03 1628
0.09 0.53 0.83 -0.74 10.01 -0.01 -0.05 0.04 1634
0.09 0.51 0.78 -0.72 9.95 -0.01 -0.06 0.04 1640
0.09 0.52 0.82 -0.72 9.98 -0.01 -0.06 0.03 1646
0.10 0.51 0.82 -0.70 10.04 -0.01 -0.06 0.03 1653
0.10 0.50 0.82 -0.71 9.99 -0.01 -0.06 0.00 1659
0.10 0.49 0.80 -0.69 9.98 -0.01 -0.06 0.04 1666
0.11 0.50 0.80 -0.70 10.02 -0.01 -0.06 0.04 1672
0.10 0.49 0.77 -0.72 9.98 -0.02 -0.06 0.04 1678
0.09 0.50 0.82 -0.74 9.98 -0.01 -0.06 0.04 1684
0.10 0.52 0.79 -0.76 10.03 -0.01 -0.07 0.04 1690
0.11 0.51 0.80 -0.75 10.01 -0.01 -0.06 0.04 1697
0.11 0.51 0.76 -0.76 10.02 -0.01 -0.06 0.04 1703
0.12 0.54 0.80 -0.74 9.93 -0.01 -0.06 0.04 1710
0.13 0.52 0.80 -0.74 9.98 -0.01 -0.06 0.04 1716
0.11 0.53 0.78 -0.75 10.00 -0.01 -0.06 0.04 1722
0.11 0.54 0.76 -0.73 10.00 -0.01 -0.05 0.04 1729
0.12 0.52 0.80 -0.72 9.98 -0.01 -0.05 0.04 1735
0.11 0.52 0.76 -0.73 9.98 -0.01 -0.05 0.04 1741
0.12 0.53 0.75 -0.73 9.99 -0.01 -0.05 0.04 1747
0.13 0.52 0.77 -0.74 10.03 -0.01 -0.05 0.04 1754
0.11 0.52 0.74 -0.74 10.03 -0.01 -0.05 0.04 1760
0.11 0.52 0.80 -0.71 9.98 -0.01 -0.05 0.05 1767
0.12 0.53 0.79 -0.76 10.04 -0.01 -0.05 0.05 1773
0.11 0.52 0.77 -0.76 9.99 -0.01 -0.05 0.05 1779
0.11 0.51 0.77 -0.73 9.95 -0.01 -0.04 0.05 1785
0.11 0.53 0.74 -0.72 9.98 -0.01 -0.05 0.05 1792
0.11 0.52 0.80 -0.73 9.98 -0.00 -0.04 0.05 1798
0.11 0.50 0.78 -0.70 9.98 0.00 -0.04 0.05 1804
0.11 0.51 0.80 -0.73 9.94 0.00 -0.03 0.05 1811
0.13 0.45 0.76 -0.74 10.00 0.00 -0.04 0.05 1817
0.12 0.40 0.78 -0.74 9.97 0.01 -0.04 0.06 1823
0.11 0.36 0.83 -0.73 9.97 0.01 -0.04 0.05 1829
0.12 0.37 0.78 -0.75 10.05 0.02 -0.04 0.05 1836
0.13 0.29 0.84 -0.70 10.01 0.03 -0.04 0.05 1842
0.12 0.23 0.83 -0.74 10.00 0.03 -0.04 0.04 1849
0.15 0.24 0.82 -0.73 10.02 0.04 -0.04 0.04 1855
0.15 0.19 0.78 -0.73 9.99 0.05 -0.04 0.04 1861
0.13 0.17 0.77 -0.74 10.01 0.05 -0.04 0.04 1867
0.14 0.15 0.72 -0.74 10.07 0.06 -0.04 0.04 1873
0.15 0.12 0.72 -0.76 10.06 0.07 -0.03 0.04 1881
0.16 0.07 0.77 -0.81 10.11 0.09 -0.03 0.04 1887
0.18 0.05 0.76 -0.82 10.15 0.11 -0.03 0.04 1893
0.18 0.05 0.78 -0.80 10.15 0.14 -0.03 0.04 1899
0.20 0.02 0.75 -0.84 10.24 0.17 -0.04 0.04 1905
0.24 0.00 0.75 -0.87 10.34 0.20 -0.05 0.03 1911
0.25 -0.01 0.78 -0.99 10.40 0.24 -0.07 0.03 1918
0.25 -0.02 0.96 -0.87 10.58 0.28 -0.11 0.03 1925
0.28 -0.02 1.18 -0.79 11.11 0.37 -0.15 0.01 1931
0.25 -0.02 1.89 -1.10 12.15 0.57 -0.15 -0.06 1937
0.25 -0.02 2.20 -1.40 13.03 0.95 -0.16 -0.18 1944
0.26 -0.03 2.03 -1.40 13.87 1.44 -0.37 -0.29 1950
0.25 -0.03 2.74 -1.82 13.69 1.65 -0.66 -0.40 1956
0.24 -0.02 3.34 -2.21 13.00 1.65 -0.87 -0.54 1963
0.21 -0.02 4.24 -2.89 12.95 1.62 -1.08 -0.73 1969
0.19 -0.02 5.17 -3.28 12.79 1.62 -1.24 -0.94 1976
0.18 -0.01 5.86 -3.44 12.18 1.57 -1.28 -1.17 1982
0.13 -0.01 6.15 -4.01 12.56 1.55 -1.25 -1.40 1988
0.10 -0.01 6.85 -3.66 12.27 1.49 -1.24 -1.62 1994
0.07 -0.00 6.73 -4.05 13.70 1.39 -1.21 -1.81 2000
0.08 -0.01 5.69 -2.68 14.32 1.24 -1.26 -1.96 2008
0.05 -0.01 5.50 -1.06 14.85 1.05 -1.43 -2.04 2014
0.06 -0.00 5.48 1.47 13.67 0.79 -1.72 -2.04 2020
0.05 -0.01 6.35 4.22 11.72 0.45 -2.00 -2.05 2026
0.06 -0.01 7.96 5.18 10.51 0.08 -2.18 -1.96 2032
0.06 -0.01 9.86 4.56 8.41 -0.20 -2.13 -1.77 2038
0.06 -0.01 10.36 2.94 8.65 -0.30 -1.65 -1.52 2044
0.06 -0.01 11.49 3.15 8.64 -0.35 -0.95 -1.33 2052
0.06 -0.01 11.31 3.50 7.02 -0.34 -0.51 -1.22 2058
0.07 -0.01 10.15 3.93 6.27 -0.29 -0.27 -1.18 2064
0.06 -0.01 9.54 4.58 6.25 -0.28 -0.09 -1.12 2070
0.05 -0.01 8.99 4.93 6.68 -0.31 0.10 -1.02 2076
0.06 -0.00 8.55 4.84 7.09 -0.36 0.26 -0.95 2082
0.05 -0.01 8.14 4.44 7.38 -0.43 0.41 -0.87 2088
0.06 -0.01 7.62 4.09 7.25 -0.47 0.55 -0.81 2096
0.06 -0.01 7.02 3.42 7.30 -0.49 0.67 -0.80 2102
0.06 -0.01 6.33 2.69 7.65 -0.49 0.77 -0.84 2108
0.06 -0.01 5.60 2.15 8.11 -0.48 0.83 -0.91 2114
0.06 -0.01 4.63 1.65 8.49 -0.45 0.88 -1.02 2120
0.06 -0.01 3.87 1.42 8.80 -0.44 0.92 -1.08 2126
0.05 -0.01 3.49 1.31 9.47 -0.44 0.94 -1.17 2132
0.05 -0.00 3.26 1.16 9.93 -0.47 0.93 -1.25 2139
0.05 -0.00 2.89 0.90 10.09 -0.51 0.89 -1.31 2145
0.04 -0.00 2.69 0.74 10.16 -0.55 0.87 -1.34 2152
0.06 -0.01 2.59 0.50 10.18 -0.58 0.86 -1.36 2158
0.05 -0.00 2.74 0.17 10.49 -0.60 0.87 -1.36 2164
0.04 -0.00 3.02 -0.08 10.59 -0.61 0.93 -1.35 2170
0.05 -0.01 3.02 -0.34 10.68 -0.63 1.00 -1.32 2177
0.05 -0.01 2.91 -0.45 10.54 -0.65 1.09 -1.28 2183
0.04 -0.00 2.58 -0.81 10.49 -0.66 1.16 -1.21 2190
0.06 -0.00 2.25 -1.19 10.43 -0.65 1.20 -1.13 2196
0.05 -0.01 1.87 -1.64 10.46 -0.60 1.21 -1.04 2202
0.04 -0.00 1.71 -2.04 10.61 -0.58 1.21 -0.92 2208
0.05 -0.00 1.64 -2.34 10.87 -0.53 1.21 -0.79 2214
0.05 -0.01 1.51 -2.49 11.34 -0.47 1.20 -0.63 2222
0.04 -0.00 1.46 -2.46 11.71 -0.42 1.18 -0.46 2228
0.05 -0.01 1.44 -2.46 11.96 -0.39 1.16 -0.26 2234
0.05 -0.01 1.26 -2.50 12.03 -0.37 1.12 -0.07 2240
0.05 -0.01 1.12 -2.49 11.87 -0.36 1.07 0.15 2246
0.05 0.00 1.18 -2.58 11.60 -0.35 1.02 0.38 2252
0.06 -0.01 1.36 -2.66 11.26 -0.32 1.00 0.59 2259
0.05 -0.01 1.42 -2.71 10.85 -0.29 1.02 0.79 2266
0.05 -0.01 1.41 -2.77 10.62 -0.25 1.10 0.95 2272
0.05 -0.01 1.36 -2.72 10.49 -0.20 1.18 1.09 2278
0.05 -0.00 1.14 -2.54 10.60 -0.15 1.27 1.20 2284
0.04 -0.00 0.59 -2.14 10.59 -0.11 1.27 1.31 2290
0.06 -0.01 0.13 -1.75 10.61 -0.09 1.25 1.43 2297
0.05 -0.01 -0.19 -1.35 10.67 -0.09 1.15 1.51 2304
0.05 -0.00 -0.31 -1.02 10.65 -0.12 1.04 1.60 2310
0.05 -0.01 -0.26 -0.79 10.59 -0.15 0.94 1.67 2316
0.05 -0.01 -0.34 -0.89 10.33 -0.18 0.88 1.71 2322
0.05 -0.00 -0.59 -1.39 10.14 -0.19 0.90 1.71 2328
0.05 -0.00 -1.01 -2.03 10.32 -0.17 0.97 1.67 2334
0.05 -0.01 -1.49 -2.52 10.51 -0.14 1.02 1.60 2341
0.05 -0.00 -1.89 -2.74 10.41 -0.10 1.05 1.50 2348
0.05 -0.01 -2.33 -2.78 10.47 -0.09 1.02 1.38 2354
0.06 -0.01 -2.59 -2.91 10.57 -0.10 0.96 1.23 2360
0.05 -0.01 -2.66 -3.01 10.69 -0.13 0.90 1.11 2366
0.05 -0.01 -2.78 -3.21 10.72 -0.17 0.85 0.98 2372
0.07 -0.01 -3.02 -3.64 10.55 -0.21 0.78 0.85 2379
0.05 -0.01 -3.39 -4.23 9.85 -0.20 0.68 0.73 2385
0.05 -0.00 -3.36 -4.91 9.57 -0.14 0.59 0.62 2392
0.06 -0.01 -3.19 -5.26 9.64 -0.10 0.49 0.55 2398
0.06 -0.01 -4.04 -5.33 9.62 -0.02 0.41 0.53 2404
0.05 -0.01 -6.46 -5.98 10.39 0.10 0.13 0.63 2410
0.05 -0.01 -6.89 -5.57 8.59 0.28 -0.52 0.77 2416
0.06 -0.01 -7.87 -6.04 8.13 0.38 -1.01 1.01 2422
0.05 -0.01 -5.75 -5.37 6.70 0.47 -1.32 1.26 2429
0.05 -0.00 -3.79 -4.41 8.17 0.55 -1.54 1.53 2436
0.05 -0.01 -5.01 -5.33 8.47 0.55 -1.34 1.76 2442
0.06 -0.01 -10.73 -4.67 10.36 0.74 -1.85 2.06 2448
0.05 -0.00 -11.14 -4.56 7.01 0.80 -2.35 2.39 2454
0.05 0.00 -11.08 -5.19 5.13 0.78 -2.86 2.73 2460
0.05 0.03 -15.70 -11.48 10.85 1.08 -3.11 3.24 2467
0.03 0.09 -17.45 -16.16 16.23 1.68 -2.05 3.89 2473
0.05 0.23 -35.11 -9.08 28.04 1.19 -2.52 3.07 2480
0.03 0.34 -25.77 -4.32 17.62 0.25 -0.94 1.37 2487
0.03 0.42 -7.39 -0.19 13.11 -0.05 -0.14 0.16 2493
0.02 0.36 -0.58 1.43 9.34 -0.09 0.00 -0.16 2499
0.03 0.41 3.52 0.05 9.03 0.01 -0.06 -0.04 2505
0.03 0.38 3.36 -0.42 9.38 0.08 -0.10 0.21 2511
0.04 0.36 2.45 -0.64 9.96 0.11 -0.08 0.38 2518
0.03 0.37 0.56 -1.07 10.48 0.09 -0.11 0.36 2525
0.03 0.38 -0.16 -0.60 10.08 0.04 -0.12 0.23 2531
0.06 0.37 -0.03 -0.79 9.76 0.01 -0.08 0.17 2537
0.06 0.41 0.57 -1.17 9.86 -0.06 -0.07 0.14 2543
0.08 0.45 0.65 -1.62 10.39 -0.06 -0.09 0.13 2549
0.11 0.45 0.56 -1.19 10.16 -0.08 -0.09 0.11 2556
0.09 0.46 0.38 -0.76 10.05 -0.08 -0.08 0.08 2563
0.09 0.51 0.57 -0.77 10.03 -0.07 -0.07 0.07 2569
0.10 0.54 0.82 -0.80 10.13 -0.06 -0.06 0.07 2575
0.12 0.53 0.85 -0.74 10.04 -0.04 -0.06 0.07 2581
0.13 0.56 0.75 -0.68 9.96 -0.02 -0.05 0.06 2588
0.16 0.55 0.63 -0.80 10.00 -0.02 -0.06 0.08 2594
0.18 0.51 0.74 -0.87 10.04 -0.03 -0.05 0.09 2600
0.20 0.49 0.79 -0.93 10.00 -0.03 -0.05 0.08 2607
0.24 0.48 0.70 -0.80 10.08 -0.03 -0.05 0.07 2613
0.26 0.47 0.71 -0.82 10.05 -0.02 -0.05 0.07 2619
0.28 0.46 0.57 -0.73 10.01 -0.02 -0.04 0.07 2626
0.29 0.44 0.70 -0.80 10.06 -0.01 -0.04 0.07 2632
0.27 0.45 0.73 -0.81 10.07 -0.01 -0.04 0.07 2638
0.30 0.46 0.77 -0.84 9.97 -0.01 -0.04 0.06 2644
0.31 0.43 0.74 -0.83 9.98 -0.01 -0.04 0.06 2651
0.34 0.41 0.82 -0.87 9.96 -0.01 -0.04 0.06 2658
0.33 0.40 0.71 -0.81 10.04 -0.00 -0.04 0.05 2664
0.35 0.42 0.77 -0.80 10.04 -0.00 -0.03 0.04 2670
0.37 0.39 0.75 -0.82 10.01 -0.00 -0.03 0.05 2676
0.36 0.41 0.76 -0.79 10.02 0.00 -0.03 0.04 2682
0.36 0.40 0.77 -0.80 10.02 0.00 -0.03 0.05 2689
0.37 0.36 0.75 -0.79 9.95 0.00 -0.03 0.05 2696
0.37 0.34 0.75 -0.79 10.05 -0.00 -0.03 0.05 2702
0.39 0.35 0.76 -0.79 9.98 0.00 -0.04 0.05 2708
0.39 0.30 0.76 -0.80 9.98 0.00 -0.04 0.05 2714
0.39 0.31 0.80 -0.82 9.98 -0.00 -0.04 0.04 2720
0.39 0.32 0.74 -0.82 10.02 -0.00 -0.04 0.05 2726
0.41 0.29 0.78 -0.82 10.01 0.00 -0.04 0.05 2734
0.41 0.26 0.75 -0.80 9.98 0.00 -0.04 0.04 2740
0.43 0.27 0.80 -0.81 10.00 0.00 -0.04 0.04 2746
0.44 0.29 0.79 -0.79 10.01 0.00 -0.04 0.04 2752
0.44 0.26 0.77 -0.79 10.01 -0.03 -0.04 0.04 2758
0.46 0.25 0.74 -0.81 9.99 0.00 -0.04 0.04 2764
0.48 0.23 0.75 -0.83 9.96 0.00 -0.04 0.04 2771
0.48 0.21 0.75 -0.77 9.98 0.01 -0.04 0.04 2778
0.48 0.21 0.74 -0.84 9.96 0.01 -0.04 0.04 2784
0.50 0.21 0.73 -0.82 9.96 0.01 -0.04 0.04 2790
0.50 0.20 0.76 -0.79 9.98 0.01 -0.04 0.03 2796
0.49 0.23 0.77 -0.80 9.98 0.00 -0.04 0.04 2802
0.49 0.24 0.74 -0.79 10.01 0.00 -0.04 0.04 2808
0.51 0.22 0.75 -0.81 9.94 0.00 -0.05 0.04 2816
0.52 0.21 0.69 -0.81 10.00 0.00 -0.05 0.04 2822
0.53 0.18 0.76 -0.82 9.98 0.00 -0.05 0.03 2828
0.53 0.16 0.73 -0.82 9.99 0.00 -0.05 0.03 2834
0.53 0.15 0.76 -0.80 9.98 0.00 -0.05 0.03 2840
0.53 0.18 0.73 -0.83 10.02 0.00 -0.05 0.03 2846
0.58 0.16 0.75 -0.85 9.96 0.00 -0.05 0.03 2853
0.57 0.16 0.75 -0.84 9.95 -0.00 -0.05 0.03 2860
0.59 0.18 0.72 -0.83 9.95 -0.00 -0.05 0.03 2866
0.60 0.21 0.74 -0.82 9.95 -0.01 -0.05 0.03 2872
0.64 0.17 0.74 -0.83 9.99 -0.00 -0.05 0.02 2878
0.64 0.17 0.73 -0.82 10.02 -0.01 -0.05 0.02 2884
0.65 0.17 0.75 -0.82 9.94 -0.01 -0.05 0.03 2890
0.65 0.17 0.73 -0.80 10.01 -0.01 -0.04 0.02 2897
0.65 0.17 0.71 -0.81 10.00 -0.01 -0.05 0.02 2904
0.66 0.16 0.72 -0.79 9.98 -0.01 -0.05 0.02 2910
0.69 0.15 0.74 -0.81 9.98 -0.01 -0.04 0.02 2916
0.67 0.15 0.72 -0.83 9.99 -0.01 -0.04 0.02 2922
0.67 0.15 0.74 -0.83 10.01 -0.01 -0.04 0.02 2928
0.68 0.14 0.71 -0.83 10.01 -0.01 -0.04 0.02 2935
0.68 0.14 0.72 -0.77 10.04 -0.01 -0.05 0.02 2941
0.70 0.14 0.72 -0.82 9.98 -0.01 -0.04 0.02 2948
0.72 0.15 0.74 -0.83 9.97 -0.01 -0.04 0.01 2954
0.72 0.15 0.72 -0.84 9.98 -0.01 -0.03 0.02 2960
0.72 0.14 0.72 -0.82 10.01 -0.01 -0.03 0.02 2966
0.73 0.15 0.68 -0.81 9.99 -0.01 -0.03 0.01 2973
0.73 0.13 0.71 -0.79 10.01 -0.01 -0.03 0.01 2979
0.72 0.14 0.69 -0.79 10.01 -0.00 -0.03 0.01 2985
0.71 0.16 0.72 -0.83 9.98 -0.00 -0.03 0.02 2992
0.72 0.13 0.72 -0.82 10.00 -0.01 -0.03 0.02 2998
0.73 0.10 0.70 -0.81 9.96 -0.00 -0.03 0.02 3005
0.75 0.12 0.71 -0.82 9.99 -0.00 -0.04 0.02 3011
0.75 0.12 0.71 -0.84 9.97 -0.01 -0.03 0.02 3017
0.76 0.09 0.68 -0.83 9.98 -0.01 -0.03 0.02 3023
0.75 0.11 0.65 -0.80 9.97 -0.02 -0.04 0.02 3030
0.76 0.10 0.72 -0.80 9.97 -0.02 -0.04 0.02 3036
0.74 0.10 0.70 -0.82 9.97 -0.02 -0.04 0.02 3042
0.73 0.12 0.71 -0.81 9.98 -0.02 -0.04 0.02 3049
0.74 0.15 0.72 -0.81 9.97 -0.02 -0.04 0.02 3055
0.73 0.16 0.69 -0.80 10.00 -0.02 -0.04 0.02 3061
0.71 0.15 0.72 -0.82 9.99 -0.02 -0.05 0.02 3067
0.70 0.19 0.74 -0.85 10.04 -0.02 -0.05 0.02 3074
0.71 0.18 0.71 -0.82 10.04 -0.02 -0.04 0.02 3080
0.69 0.18 0.70 -0.82 9.99 -0.02 -0.05 0.02 3087
0.67 0.22 0.67 -0.81 9.95 -0.03 -0.05 0.02 3093
0.64 0.25 0.70 -0.80 9.99 -0.03 -0.05 0.02 3099
0.62 0.25 0.69 -0.83 10.03 -0.02 -0.05 0.02 3105
0.61 0.25 0.71 -0.77 10.02 -0.02 -0.05 0.02 3111
0.60 0.31 0.69 -0.82 9.98 -0.02 -0.05 0.02 3118
0.62 0.29 0.67 -0.85 9.98 -0.02 -0.06 0.02 3125
0.59 0.36 0.66 -0.80 9.98 -0.02 -0.05 0.02 3131
0.66 0.34 0.70 -0.80 9.97 -0.02 -0.06 0.02 3137
0.63 0.36 0.73 -0.79 10.05 -0.02 -0.05 0.02 3143
0.62 0.34 0.69 -0.78 9.99 -0.01 -0.05 0.02 3149
0.59 0.35 0.71 -0.79 9.99 -0.01 -0.05 0.02 3155
0.56 0.33 0.70 -0.81 10.00 -0.00 -0.05 0.02 3162
0.58 0.30 0.68 -0.76 10.00 0.00 -0.05 0.02 3169
0.58 0.31 0.70 -0.82 10.04 0.01 -0.05 0.02 3175
0.59 0.28 0.68 -0.82 10.04 0.02 -0.05 0.01 3181
0.62 0.21 0.68 -0.84 10.13 0.03 -0.04 0.01 3187
0.66 0.18 0.68 -0.83 10.13 0.04 -0.05 0.01 3193
0.67 0.14 0.69 -0.78 10.10 0.05 -0.06 0.01 3201
0.69 0.09 0.74 -0.81 10.15 0.07 -0.06 0.01 3207
0.68 0.07 0.76 -0.80 10.21 0.10 -0.08 0.00 3213
0.71 0.05 0.72 -0.79 10.22 0.13 -0.09 0.00 3219
0.73 0.01 0.71 -0.89 10.30 0.17 -0.13 0.01 3225
0.73 0.03 0.82 -0.82 10.46 0.24 -0.17 0.00 3232
0.74 -0.02 0.88 -0.87 10.77 0.32 -0.23 -0.02 3238
0.76 -0.02 1.24 -0.99 11.45 0.44 -0.33 -0.05 3245
0.79 -0.05 1.55 -1.24 11.69 0.58 -0.45 -0.11 3251
0.80 -0.04 2.40 -1.33 12.46 0.76 -0.65 -0.21 3257
0.77 -0.05 2.66 -1.78 14.33 1.07 -0.91 -0.34 3264
0.79 -0.04 2.27 -1.83 14.81 1.44 -1.24 -0.46 3270
0.76 -0.05 2.96 -2.17 14.36 1.68 -1.58 -0.58 3276
0.70 -0.03 3.12 -2.45 13.48 1.76 -1.82 -0.72 3282
0.69 -0.04 3.77 -3.05 13.96 1.84 -1.93 -0.94 3290
0.62 -0.02 4.20 -3.48 13.41 1.90 -2.02 -1.15 3296
0.54 -0.03 4.23 -3.78 12.49 1.92 -2.01 -1.37 3302
0.46 -0.04 4.40 -4.08 11.94 1.87 -1.85 -1.58 3308
0.33 -0.01 4.24 -4.15 12.26 1.85 -1.69 -1.79 3315
0.31 -0.02 4.44 -4.09 12.78 1.72 -1.63 -1.97 3321
0.20 -0.02 4.08 -3.36 13.79 1.65 -1.69 -2.10 3328
0.14 -0.00 4.21 -1.88 14.01 1.55 -1.83 -2.19 3334
0.09 -0.01 3.19 -0.82 14.14 1.37 -2.03 -2.21 3340
0.08 -0.01 4.35 1.30 13.71 1.11 -2.26 -2.22 3347
0.08 -0.00 5.21 3.62 12.27 0.76 -2.51 -2.27 3353
0.08 -0.01 6.40 5.11 9.62 0.39 -2.68 -2.28 3359
0.04 -0.00 8.40 8.03 7.94 0.08 -2.55 -2.32 3365
0.06 -0.00 11.46 10.08 6.20 -0.16 -2.06 -2.24 3372
0.05 -0.00 13.22 7.13 6.02 -0.34 -1.22 -1.99 3378
0.05 -0.01 12.34 5.92 8.04 -0.44 -0.12 -1.63 3385
0.07 -0.00 11.41 6.19 8.19 -0.53 0.80 -1.35 3391
0.06 -0.01 9.91 5.98 6.80 -0.56 1.08 -1.16 3397
0.08 -0.01 7.54 5.17 5.93 -0.57 0.98 -1.04 3403
0.07 -0.01 6.91 4.76 6.63 -0.59 0.89 -0.93 3409
0.08 -0.01 6.70 4.45 7.82 -0.61 0.91 -0.84 3416
0.07 -0.01 6.55 3.86 8.43 -0.62 1.03 -0.76 3422
0.07 -0.01 6.21 3.36 8.64 -0.64 1.17 -0.75 3429
0.07 -0.01 5.61 2.98 9.26 -0.69 1.26 -0.80 3435
0.08 -0.01 4.55 2.48 9.64 -0.74 1.33 -0.87 3441
0.07 -0.01 3.12 1.99 10.38 -0.80 1.37 -0.95 3447
0.06 -0.01 2.97 1.53 11.02 -0.85 1.42 -1.02 3453
0.07 -0.01 2.33 1.20 11.29 -0.90 1.44 -1.08 3460
0.07 -0.01 1.68 0.73 11.31 -0.96 1.47 -1.15 3466
0.06 -0.01 1.03 0.02 11.16 -1.00 1.50 -1.22 3473
0.07 -0.00 0.56 -0.71 10.72 -1.01 1.52 -1.30 3479
0.06 -0.01 0.17 -1.64 10.49 -0.97 1.53 -1.38 3485
0.07 -0.01 0.00 -2.47 10.52 -0.89 1.55 -1.47 3491
0.06 -0.01 0.02 -3.11 10.85 -0.80 1.58 -1.56 3497
0.06 -0.01 0.11 -3.46 11.25 -0.69 1.61 -1.66 3504
0.05 -0.01 -0.60 -3.64 11.60 -0.61 1.64 -1.74 3511
0.06 -0.01 -0.26 -3.67 11.92 -0.55 1.68 -1.80 3517
0.08 -0.01 -0.60 -3.89 12.19 -0.52 1.69 -1.82 3523
0.06 -0.01 -0.95 -4.01 12.35 -0.49 1.67 -1.81 3529
0.06 -0.01 -1.46 -4.24 12.31 -0.45 1.61 -1.75 3535
0.07 -0.01 -1.94 -4.56 12.19 -0.39 1.53 -1.64 3542
0.06 -0.01 -2.06 -4.76 12.19 -0.32 1.43 -1.50 3549
0.05 -0.00 -1.93 -4.62 12.36 -0.23 1.35 -1.33 3555
0.06 -0.01 -1.94 -4.33 12.17 -0.17 1.33 -1.13 3561
0.06 -0.01 -2.18 -3.98 12.02 -0.10 1.33 -0.90 3567
0.05 -0.00 -2.57 -3.64 11.90 -0.05 1.32 -0.64 3573
0.06 -0.00 -2.89 -3.31 11.83 -0.01 1.28 -0.37 3579
0.06 -0.01 -3.22 -3.02 11.64 0.03 1.21 -0.08 3587
0.04 -0.00 -3.41 -2.63 11.55 0.06 1.11 0.21 3593
0.06 -0.00 -3.44 -2.26 11.42 0.07 1.00 0.47 3599
0.06 -0.01 -3.36 -1.99 11.23 0.07 0.88 0.74 3605
0.05 -0.01 -3.16 -1.93 11.03 0.07 0.76 0.99 3611
0.06 -0.01 -2.89 -2.06 10.87 0.05 0.63 1.18 3617
0.06 -0.01 -2.63 -2.17 10.65 0.04 0.49 1.33 3624
0.06 -0.01 -2.06 -2.20 10.42 0.04 0.40 1.44 3631
0.05 -0.01 -1.48 -2.23 10.15 0.03 0.35 1.51 3637
0.07 -0.01 -1.05 -2.08 9.81 0.03 0.34 1.54 3643
0.06 -0.01 -0.73 -1.95 9.47 0.02 0.38 1.54 3649
0.05 -0.01 -0.51 -1.74 9.40 0.02 0.45 1.53 3655
0.05 -0.00 -0.54 -1.60 9.37 0.02 0.53 1.50 3661
0.06 -0.01 -0.81 -1.40 9.23 0.02 0.59 1.47 3667
0.06 -0.01 -1.00 -1.23 9.01 0.00 0.61 1.43 3674
0.05 -0.01 -1.13 -1.06 9.08 -0.01 0.59 1.39 3681
0.05 -0.01 -1.09 -0.94 9.21 -0.03 0.55 1.36 3687
0.06 -0.01 -0.94 -0.73 9.36 -0.06 0.53 1.34 3693
0.06 -0.01 -0.83 -0.53 9.43 -0.10 0.51 1.33 3699
0.06 -0.01 -0.83 -0.56 9.24 -0.16 0.50 1.31 3705
0.05 -0.01 -0.91 -0.90 8.97 -0.20 0.45 1.29 3712
0.06 -0.01 -0.90 -1.22 8.88 -0.24 0.37 1.26 3718
0.05 -0.01 -0.65 -1.44 8.81 -0.24 0.34 1.20 3724
0.04 -0.00 -0.45 -1.63 8.93 -0.23 0.32 1.20 3730
0.04 -0.00 -0.31 -1.74 8.94 -0.22 0.35 1.18 3737
0.05 -0.01 -0.32 -1.99 8.86 -0.23 0.38 1.16 3743
0.05 -0.01 -0.60 -2.32 8.72 -0.24 0.40 1.14 3749
0.05 -0.01 -0.93 -2.70 8.57 -0.22 0.41 1.12 3756
0.04 -0.00 -1.11 -3.11 8.59 -0.16 0.40 1.11 3762
0.06 -0.01 -1.31 -3.33 8.83 -0.10 0.40 1.11 3768
0.05 -0.01 -1.43 -3.57 9.04 -0.04 0.42 1.11 3774
0.05 -0.01 -1.47 -3.66 9.25 0.00 0.44 1.11 3780
0.05 -0.00 -1.71 -3.77 9.42 0.03 0.45 1.14 3786
0.06 -0.01 -1.88 -3.98 9.46 0.05 0.46 1.17 3792
0.05 -0.00 -2.03 -4.31 9.35 0.08 0.40 1.22 3800
0.05 -0.00 -2.10 -4.52 9.43 0.12 0.39 1.26 3806
0.05 -0.01 -2.17 -4.77 9.26 0.17 0.33 1.30 3812
0.06 -0.01 -14.20 -7.31 15.12 0.45 -0.52 1.46 3818
0.04 -0.00 -10.10 -4.05 12.38 0.71 -1.98 1.74 3824
0.04 -0.00 -5.52 -4.33 5.06 0.59 -2.15 1.97 3830
0.06 -0.01 -6.36 -5.58 9.68 0.60 -2.52 2.18 3836
0.05 -0.00 -9.52 -5.48 11.81 0.68 -2.72 2.43 3844
0.03 -0.00 -6.91 0.12 14.91 1.12 -1.90 2.84 3850
0.05 0.02 -5.21 -1.44 10.13 1.28 -1.21 3.15 3856
0.04 0.07 -11.67 3.26 11.99 1.32 -1.36 3.03 3862
0.04 0.11 -21.97 -0.90 25.66 1.16 -1.53 2.67 3869
0.05 0.14 -17.92 -1.04 14.65 0.46 -1.22 1.75 3875
0.03 0.17 -10.93 -2.55 13.87 0.15 -0.46 0.76 3881
0.05 0.21 -3.14 -1.10 11.23 -0.00 -0.02 0.10 3888
0.04 0.24 0.16 -0.57 10.16 0.01 -0.02 -0.04 3895
0.05 0.23 2.56 -0.53 9.79 0.02 -0.09 0.10 3901
0.07 0.24 3.00 -0.25 9.53 0.05 -0.08 0.30 3907
0.05 0.24 1.64 -0.99 10.05 0.09 -0.11 0.48 3913
0.06 0.22 0.82 -0.55 10.16 0.05 -0.13 0.48 3919
0.05 0.25 -0.06 -0.78 9.70 0.02 -0.14 0.34 3926
0.06 0.26 -0.20 -0.95 9.57 -0.00 -0.13 0.23 3933
0.06 0.24 0.22 -1.32 10.09 -0.02 -0.10 0.17 3939
0.09 0.32 0.29 -1.19 9.96 -0.05 -0.07 0.13 3945
0.09 0.36 0.38 -1.12 10.04 -0.06 -0.06 0.11 3951
0.09 0.37 0.47 -0.91 9.84 -0.07 -0.06 0.09 3957
0.11 0.39 0.52 -0.89 9.98 -0.09 -0.07 0.07 3963
0.11 0.42 0.51 -0.82 10.02 -0.11 -0.08 0.07 3971
0.12 0.45 0.47 -0.77 10.05 -0.09 -0.07 0.06 3977
0.10 0.44 0.60 -0.74 10.19 -0.08 -0.06 0.06 3983
0.14 0.46 0.53 -0.79 10.21 -0.06 -0.04 0.06 3989
0.16 0.48 0.54 -0.80 10.16 -0.05 -0.04 0.07 3995
0.20 0.51 0.57 -0.82 10.12 -0.04 -0.04 0.08 4002
0.23 0.53 0.63 -0.84 9.98 -0.04 -0.03 0.08 4008
0.23 0.46 0.64 -0.79 10.03 -0.05 -0.02 0.08 4015
0.24 0.54 0.64 -0.84 10.12 -0.05 -0.03 0.08 4021
0.25 0.50 0.70 -0.81 10.17 -0.04 -0.03 0.08 4027
0.25 0.52 0.64 -0.81 10.09 -0.04 -0.03 0.07 4034
0.29 0.56 0.66 -0.79 10.03 -0.04 -0.04 0.06 4040
0.29 0.56 0.68 -0.80 9.98 -0.03 -0.04 0.06 4046
0.28 0.59 0.70 -0.83 9.69 -0.03 -0.04 0.05 4052
0.30 0.57 0.58 -0.80 10.14 -0.03 -0.05 0.05 4059
0.30 0.58 0.64 -0.71 10.09 -0.03 -0.04 0.04 4065
0.28 0.57 0.63 -0.76 10.03 -0.03 -0.04 0.04 4072
0.29 0.60 0.67 -0.75 10.00 -0.03 -0.04 0.04 4078
0.29 0.59 0.62 -0.71 10.03 -0.03 -0.04 0.04 4084
0.28 0.57 0.63 -0.76 10.04 -0.03 -0.05 0.04 4090
0.29 0.60 0.64 -0.73 10.02 -0.02 -0.04 0.05 4097
0.29 0.61 0.61 -0.73 9.98 -0.02 -0.04 0.04 4104
0.28 0.61 0.64 -0.68 10.00 -0.02 -0.04 0.05 4110
0.30 0.65 0.63 -0.70 10.03 -0.02 -0.04 0.04 4116
0.29 0.63 1.22 -0.74 9.98 -0.02 -0.04 0.05 4122
0.28 0.61 0.63 -0.76 9.94 -0.02 -0.05 0.04 4128
0.30 0.62 0.61 -0.69 9.96 -0.01 -0.04 0.04 4134
0.30 0.62 0.65 -0.70 9.99 -0.01 -0.04 0.04 4142
0.29 0.59 0.61 -0.71 10.03 -0.01 -0.05 0.04 4148
0.29 0.59 0.64 -0.72 10.03 -0.01 -0.05 0.04 4154
0.30 0.58 0.63 -0.69 10.02 -0.01 -0.05 0.03 4160
0.30 0.56 0.62 -0.73 10.04 -0.02 -0.05 0.03 4166
0.28 0.57 0.59 -0.73 10.00 -0.01 -0.05 0.04 4173
0.29 0.56 0.61 -0.73 10.03 -0.01 -0.04 0.03 4179
0.28 0.56 0.61 -0.73 10.03 -0.01 -0.04 0.03 4186
0.27 0.58 0.61 -0.71 10.04 -0.01 -0.05 0.03 4192
0.27 0.58 0.02 -0.72 9.98 -0.01 -0.05 0.03 4198
0.27 0.56 0.59 -0.72 10.02 -0.01 -0.05 0.04 4204
0.27 0.57 0.62 -0.71 9.97 -0.01 -0.04 0.03 4211
0.27 0.56 0.61 -0.70 9.98 -0.01 -0.05 0.04 4217
0.26 0.56 0.61 -0.72 9.97 -0.01 -0.04 0.03 4224
0.26 0.57 0.59 -0.71 9.97 -0.02 -0.05 0.03 4230
0.27 0.57 0.62 -0.71 9.98 -0.02 -0.05 0.03 4236
0.25 0.57 0.61 -0.69 9.99 -0.01 -0.04 0.03 4242
0.23 0.56 0.61 -0.71 9.98 -0.01 -0.05 0.03 4248
0.25 0.57 1.22 -0.73 9.86 -0.01 -0.05 0.03 4255
0.22 0.57 0.59 -0.70 9.97 -0.02 -0.05 0.03 4261
0.22 0.58 0.58 -0.69 10.01 -0.01 -0.04 0.03 4268
0.24 0.59 0.62 -0.69 10.00 -0.02 -0.04 0.03 4274
0.24 0.60 0.61 -0.71 9.99 -0.02 -0.04 0.03 4280
0.25 0.59 0.62 -0.70 10.00 -0.01 -0.04 0.03 4287
0.23 0.63 0.62 -0.71 9.99 -0.01 -0.04 0.03 4293
0.24 0.62 0.60 -0.71 9.93 -0.02 -0.04 0.03 4299
0.24 0.61 0.61 -0.68 9.99 -0.02 -0.04 0.03 4305
0.23 0.61 0.62 -0.70 10.02 -0.01 -0.04 0.03 4312
0.25 0.59 0.59 -0.72 10.00 -0.02 -0.04 0.04 4318
0.22 0.60 0.59 -0.71 9.98 -0.01 -0.04 0.03 4325
0.22 0.61 0.62 -0.73 9.99 -0.01 -0.05 0.03 4331
0.24 0.64 0.58 -0.70 9.99 -0.02 -0.05 0.03 4337
0.22 0.66 0.59 -0.69 10.03 -0.02 -0.05 0.03 4343
0.18 0.66 0.59 -0.70 9.98 -0.02 -0.05 0.03 4349
0.20 0.67 0.60 -0.72 9.95 -0.02 -0.05 0.03 4356
0.20 0.68 0.59 -0.71 9.94 -0.02 -0.05 0.03 4362
0.23 0.67 0.58 -0.71 9.98 -0.02 -0.05 0.03 4369
0.22 0.69 1.17 -0.69 9.97 -0.02 -0.05 0.03 4375
0.21 0.71 0.60 -0.71 9.98 -0.02 -0.04 0.03 4381
0.21 0.70 0.58 -0.68 9.98 -0.01 -0.04 0.03 4387
0.19 0.71 0.59 -0.69 9.97 -0.01 -0.04 0.03 4393
0.22 0.72 0.58 -0.68 9.98 -0.01 -0.04 0.03 4400
0.21 0.71 0.58 -0.69 9.99 -0.01 -0.04 0.02 4406
0.20 0.69 0.60 -0.68 9.96 -0.00 -0.04 0.03 4413
0.22 0.70 0.58 -0.70 9.99 -0.01 -0.04 0.02 4419
0.21 0.70 0.51 -0.54 9.98 -0.01 -0.04 0.03 4425
0.21 0.68 0.61 -0.73 9.92 -0.01 -0.04 0.03 4431
0.20 0.67 0.58 -0.70 10.01 -0.01 -0.03 0.03 4438
0.21 0.67 0.54 -0.72 9.98 -0.00 -0.04 0.03 4444
0.21 0.65 0.59 -0.72 9.98 -0.00 -0.04 0.02 4450
0.19 0.64 0.53 -0.70 9.97 -0.00 -0.04 0.03 4457
0.22 0.64 0.60 -0.65 9.99 0.00 -0.04 0.03 4463
0.20 0.61 0.58 -0.71 10.03 0.01 -0.04 0.03 4469
0.18 0.59 0.59 -0.69 10.01 0.01 -0.04 0.03 4475
0.22 0.55 0.52 -0.63 9.95 0.01 -0.04 0.02 4482
0.22 0.52 0.61 -0.69 10.03 0.01 -0.04 0.02 4488
0.22 0.43 0.60 -0.66 10.01 0.01 -0.04 0.02 4495
0.24 0.39 0.56 -0.68 10.04 0.02 -0.04 0.02 4501
0.28 0.40 0.57 -0.71 10.02 0.02 -0.04 0.02 4507
0.30 0.34 0.60 -0.71 10.04 0.03 -0.04 0.02 4513
0.30 0.33 0.60 -0.73 10.13 0.04 -0.05 0.02 4519
0.34 0.30 0.62 -0.77 10.13 0.07 -0.05 0.01 4527
0.35 0.25 0.60 -0.74 10.21 0.09 -0.06 0.01 4533
0.39 0.22 0.68 -0.77 10.26 0.13 -0.07 0.00 4539
0.43 0.16 0.68 -0.75 10.37 0.18 -0.09 0.00 4545
0.46 0.09 0.80 -0.82 10.44 0.26 -0.12 -0.01 4551
0.44 0.09 0.77 -0.83 10.61 0.30 -0.18 -0.02 4558
0.49 0.01 1.21 -1.11 11.07 0.41 -0.27 -0.07 4564
0.51 -0.02 1.60 -1.36 11.92 0.58 -0.45 -0.15 4571
0.58 -0.03 2.23 -1.79 12.81 0.77 -0.71 -0.26 4577
0.60 -0.04 4.10 -2.12 13.39 0.97 -1.12 -0.42 4584
0.59 -0.03 3.78 -2.11 14.09 1.20 -1.30 -0.64 4590
0.59 -0.04 2.45 -1.96 14.58 1.48 -1.52 -0.80 4596
0.60 -0.04 2.55 -2.24 14.35 1.68 -1.72 -0.91 4602
0.62 -0.02 0.11 -3.19 12.61 1.81 -1.81 -1.06 4609
0.60 -0.02 3.82 -4.20 13.17 1.90 -1.86 -1.30 4616
0.54 -0.02 5.03 -3.77 13.04 1.98 -1.85 -1.47 4622
0.48 -0.01 5.31 -3.92 12.71 2.04 -1.80 -1.71 4628
0.39 -0.03 5.16 -4.32 12.84 2.04 -1.68 -1.96 4634
0.31 -0.02 4.98 -4.93 12.26 1.95 -1.56 -2.17 4641
0.21 -0.02 5.53 -4.99 12.81 1.87 -1.52 -2.39 4647
0.14 -0.01 6.42 -4.51 13.01 1.75 -1.58 -2.60 4654
0.12 -0.00 5.52 -3.62 13.35 1.59 -1.70 -2.78 4660
0.11 -0.01 5.85 -3.32 14.43 1.33 -1.98 -2.90 4666
0.07 -0.01 4.67 -2.02 14.42 1.04 -2.40 -3.00 4673
0.08 -0.00 5.83 -0.97 13.60 0.78 -2.77 -3.05 4679
0.09 -0.01 4.99 0.90 11.29 0.58 -2.89 -2.99 4685
0.07 -0.01 7.61 3.68 8.72 0.42 -2.55 -2.72 4691
0.08 -0.00 13.06 3.32 7.07 0.28 -2.03 -2.08 4698
0.08 -0.01 16.88 2.36 6.70 0.18 -1.10 -1.11 4704
0.07 -0.01 16.25 1.92 8.70 0.11 0.07 -0.52 4711
0.07 -0.01 15.12 1.85 8.78 -0.07 0.69 -0.06 4717
0.08 -0.01 11.12 2.48 6.97 -0.23 0.85 0.30 4723
0.06 -0.01 7.65 2.73 5.88 -0.27 0.95 0.57 4729
0.06 -0.01 5.98 2.29 5.62 -0.25 1.00 0.76 4736
0.07 -0.00 5.25 1.86 5.99 -0.19 1.03 0.85 4742
0.06 -0.01 4.76 1.39 6.83 -0.12 1.11 0.82 4748
0.06 -0.01 4.30 1.35 7.60 -0.07 1.29 0.69 4754
0.05 -0.01 3.74 1.49 8.16 -0.06 1.49 0.55 4761
0.06 -0.01 2.54 1.77 8.70 -0.10 1.66 0.34 4767
0.06 -0.01 1.10 2.03 9.11 -0.16 1.75 0.14 4773
0.06 -0.01 -0.20 2.22 9.68 -0.20 1.76 -0.04 4780
0.06 -0.01 -0.99 2.35 10.24 -0.27 1.72 -0.21 4786
0.07 -0.01 -1.66 2.50 10.66 -0.35 1.63 -0.36 4792
0.06 -0.01 -1.95 2.56 10.88 -0.45 1.55 -0.53 4798
0.05 -0.00 -1.99 2.48 11.05 -0.57 1.50 -0.66 4804
0.06 -0.00 -1.84 2.24 11.20 -0.71 1.47 -0.85 4811
0.06 -0.01 -1.83 1.80 11.26 -0.83 1.47 -1.04 4817
0.05 -0.00 -1.99 1.34 11.29 -0.95 1.48 -1.24 4824
0.06 -0.00 -2.10 0.76 11.10 -1.04 1.48 -1.43 4830
0.06 -0.01 -2.31 0.14 10.85 -1.10 1.45 -1.60 4836
0.06 -0.01 -2.61 -0.46 10.38 -1.15 1.37 -1.74 4843
0.06 -0.00 -2.63 -1.26 9.64 -1.14 1.25 -1.84 4849
0.06 -0.01 -2.28 -2.00 9.41 -1.07 1.16 -1.91 4855
0.06 -0.01 -1.61 -2.52 9.52 -0.94 1.06 -1.95 4861
0.05 -0.01 -0.91 -2.85 9.81 -0.79 0.98 -1.96 4868
0.07 -0.01 -0.31 -2.91 9.94 -0.63 0.96 -1.91 4874
0.06 -0.01 0.15 -2.70 10.04 -0.49 0.97 -1.82 4880
0.06 -0.01 0.34 -2.54 10.04 -0.37 0.99 -1.67 4887
0.07 0.00 0.22 -2.45 10.13 -0.29 1.01 -1.45 4893
0.07 -0.01 0.39 -2.34 11.02 -0.19 1.06 -1.18 4899
0.06 -0.01 0.73 -1.94 11.98 -0.15 1.19 -0.87 4905
0.05 -0.00 0.57 -1.88 12.17 -0.15 1.27 -0.55 4912
0.05 -0.01 -0.00 -2.18 11.89 -0.20 1.35 -0.26 4918
0.06 -0.01 -0.73 -2.51 11.71 -0.25 1.32 -0.01 4925
0.07 -0.01 -1.45 -2.84 11.61 -0.26 1.21 0.23 4931
0.08 -0.01 -1.84 -3.23 11.50 -0.24 1.07 0.44 4937
0.07 -0.01 -1.95 -3.38 11.46 -0.22 0.90 0.60 4943
0.06 -0.01 -1.71 -3.28 11.34 -0.23 0.76 0.73 4950
0.07 -0.01 -1.41 -3.21 11.09 -0.24 0.64 0.84 4956
0.05 -0.01 -1.09 -3.13 11.03 -0.27 0.56 0.93 4963
0.05 -0.00 -0.84 -2.96 11.09 -0.31 0.54 1.01 4969
0.06 -0.01 -0.57 -2.94 10.66 -0.34 0.54 1.08 4975
0.06 -0.01 -0.43 -3.07 10.38 -0.36 0.58 1.11 4981
0.04 -0.00 -0.35 -3.29 10.33 -0.36 0.62 1.11 4987
0.05 0.00 -0.30 -3.40 10.29 -0.34 0.68 1.10 4994
0.04 -0.00 -0.31 -3.45 10.18 -0.31 0.75 1.07 5001
0.04 -0.00 -0.39 -3.48 10.27 -0.29 0.83 1.03 5007
0.05 -0.00 -0.62 -3.54 10.31 -0.27 0.90 0.99 5013
0.05 -0.01 -0.75 -3.63 10.19 -0.23 0.93 0.94 5019
0.04 -0.00 -0.78 -3.83 10.08 -0.26 0.94 0.90 5025
0.04 -0.00 -0.71 -3.91 10.10 -0.25 0.93 0.86 5031
0.05 -0.01 -0.75 -3.98 10.09 -0.24 0.91 0.83 5038
0.04 -0.00 -0.88 -4.00 9.92 -0.23 0.88 0.79 5045
0.03 -0.00 -1.17 -4.02 9.75 -0.21 0.84 0.77 5051
0.04 -0.00 -1.45 -4.04 9.65 -0.18 0.80 0.75 5057
0.05 -0.00 -1.71 -4.04 9.54 -0.14 0.75 0.74 5063
0.05 -0.00 -1.84 -3.99 9.39 -0.11 0.70 0.74 5069
0.04 -0.00 -1.98 -3.86 9.34 -0.08 0.68 0.76 5075
0.05 -0.00 -1.99 -3.82 9.30 -0.04 0.64 0.79 5082
0.06 -0.01 -2.01 -3.80 9.49 -0.01 0.61 0.84 5088
0.05 -0.00 -2.17 -3.76 9.49 0.02 0.58 0.90 5094
0.05 -0.00 -2.24 -3.81 9.42 0.05 0.55 0.97 5100
0.06 -0.01 -2.47 -3.84 9.49 0.08 0.51 1.04 5107
0.07 -0.01 -2.63 -4.01 9.43 0.11 0.46 1.09 5113
0.05 -0.01 -2.75 -4.21 9.05 0.16 0.41 1.13 5120
0.05 -0.00 -2.87 -4.54 8.80 0.21 0.39 1.15 5126
0.05 -0.01 -2.94 -4.79 8.73 0.27 0.37 1.16 5132
0.07 -0.01 -3.04 -5.00 8.66 0.36 0.39 1.14 5138
0.05 -0.01 -3.13 -4.98 8.53 0.46 0.41 1.11 5144
0.04 -0.00 -3.19 -4.83 8.39 0.49 0.47 1.07 5150
0.04 -0.00 -3.31 -4.62 8.27 0.56 0.46 1.05 5156
0.06 -0.01 -3.38 -4.49 8.16 0.62 0.48 1.03 5164
0.05 -0.00 -3.46 -4.22 8.05 0.68 0.49 1.04 5170
0.04 -0.00 -3.55 -3.78 7.88 0.74 0.49 1.06 5176
0.04 -0.00 -26.01 -1.24 30.19 0.69 -0.97 0.96 5182
0.05 -0.00 -24.30 2.89 2.93 0.07 -4.15 1.03 5188
0.04 -0.00 -14.31 2.55 8.62 0.32 -4.28 1.35 5194
0.04 -0.00 -11.68 1.56 9.50 0.02 -4.28 1.60 5200
0.06 -0.01 -8.29 2.25 14.23 0.00 -4.28 1.54 5208
0.04 -0.00 -9.62 21.67 59.16 0.02 -4.04 0.89 5214
0.05 0.02 -2.49 -5.69 5.20 -0.26 -0.39 0.09 5220
0.05 0.13 -2.65 1.09 12.22 -0.58 -0.14 -0.00 5226
0.05 0.20 -2.39 -0.09 12.89 -0.53 -0.14 -0.12 5232
0.05 0.32 0.75 -1.19 10.57 -0.27 -0.07 0.05 5238
0.07 0.37 1.29 -0.80 10.97 -0.07 -0.07 0.15 5245
0.06 0.39 1.41 -0.06 10.21 0.04 -0.07 0.17 5252
0.06 0.37 1.04 0.08 10.04 0.11 -0.08 0.22 5258
0.09 0.32 0.32 -0.18 9.98 0.11 -0.08 0.22 5264
0.08 0.32 0.53 -0.74 9.63 0.08 -0.09 0.21 5270
0.11 0.27 0.09 -1.56 9.92 0.05 -0.09 0.22 5277
0.12 0.31 0.16 -1.63 9.84 -0.00 -0.07 0.20 5283
0.16 0.30 0.35 -0.82 9.75 -0.05 -0.06 0.16 5289
0.19 0.31 0.37 -1.02 10.30 -0.09 -0.05 0.12 5296
0.22 0.35 0.68 -1.18 9.86 -0.15 -0.06 0.10 5302
0.22 0.39 0.67 -1.06 10.07 -0.18 -0.09 0.07 5308
0.19 0.45 0.55 -0.80 10.28 -0.16 -0.09 0.05 5315
0.21 0.47 0.48 -0.72 10.25 -0.11 -0.07 0.05 5321
0.20 0.48 0.47 -0.73 10.18 -0.07 -0.05 0.05 5327
0.20 0.50 0.53 -0.79 10.12 -0.05 -0.04 0.06 5334
0.21 0.53 0.49 -0.88 10.06 -0.05 -0.03 0.06 5340
0.22 0.51 0.63 -0.92 10.05 -0.05 -0.04 0.07 5347
0.22 0.50 0.62 -0.91 10.05 -0.05 -0.04 0.06 5353
0.23 0.59 0.63 -0.88 10.08 -0.05 -0.04 0.06 5359
0.21 0.60 0.57 -0.79 10.07 -0.05 -0.04 0.05 5365
0.20 0.58 0.51 -0.81 10.18 -0.05 -0.04 0.05 5371
0.21 0.63 0.54 -0.72 10.01 -0.05 -0.04 0.05 5379
0.21 0.63 0.54 -0.76 9.99 -0.04 -0.03 0.05 5385
0.21 0.62 0.55 -0.78 9.99 -0.03 -0.02 0.04 5391
0.23 0.64 0.60 -0.81 10.03 -0.03 -0.02 0.05 5397
0.22 0.64 0.48 -0.59 10.04 -0.03 -0.02 0.04 5403
0.22 0.63 0.59 -0.80 10.00 -0.03 -0.02 0.04 5409
0.25 0.62 0.09 -0.26 9.97 -0.03 -0.03 0.04 5416
0.24 0.63 0.60 -0.80 10.04 -0.02 -0.03 0.04 5423
0.23 0.64 0.62 -0.79 9.97 -0.02 -0.03 0.04 5429
0.25 0.63 0.59 -0.75 10.05 -0.02 -0.02 0.04 5435
0.24 0.61 0.59 -0.77 10.01 -0.02 -0.03 0.03 5441
0.23 0.63 0.63 -0.78 10.00 -0.02 -0.03 0.04 5448
0.24 0.65 0.59 -0.79 10.04 -0.01 -0.02 0.04 5454
0.23 0.66 0.60 -0.76 10.01 -0.01 -0.02 0.03 5460
0.21 0.67 0.62 -0.75 10.05 -0.01 -0.02 0.04 5467
0.23 0.67 0.58 -0.78 10.03 -0.01 -0.02 0.03 5473
0.22 0.68 0.57 -0.77 10.03 -0.01 -0.02 0.03 5479
0.22 0.68 0.57 -0.77 9.99 -0.01 -0.02 0.03 5486
0.22 0.68 0.51 -0.75 9.92 -0.01 -0.02 0.03 5492
0.20 0.66 0.59 -0.75 10.01 -0.01 -0.02 0.03 5498
0.19 0.66 0.61 -0.74 10.00 -0.00 -0.02 0.03 5505
0.19 0.67 0.56 -0.78 10.01 -0.01 -0.01 0.03 5511
0.19 0.66 0.58 -0.77 10.00 -0.01 -0.01 0.03 5518
0.17 0.65 0.56 -0.80 10.03 -0.00 -0.01 0.03 5524
0.18 0.64 0.60 -0.76 10.01 -0.00 -0.01 0.03 5530
0.18 0.62 0.64 -0.80 9.98 0.00 -0.01 0.03 5536
0.18 0.59 0.64 -0.79 10.00 -0.00 -0.02 0.03 5542
0.19 0.60 0.64 -0.78 9.98 -0.01 -0.02 0.03 5549
0.18 0.58 0.63 -0.78 10.01 -0.01 -0.02 0.03 5556
0.17 0.58 0.61 -0.78 10.00 -0.01 -0.02 0.03 5562
0.18 0.57 0.59 -0.78 10.01 -0.01 -0.02 0.03 5568
0.19 0.56 0.60 -0.82 10.00 -0.01 -0.02 0.03 5574
0.18 0.54 0.01 -0.75 10.01 -0.01 -0.03 0.02 5580
0.18 0.57 0.62 -0.76 10.03 -0.01 -0.02 0.03 5586
0.17 0.55 0.57 -0.76 10.04 -0.01 -0.02 0.03 5594
0.16 0.54 0.66 -0.76 9.98 -0.01 -0.02 0.03 5600
0.18 0.54 0.61 -0.76 9.95 -0.01 -0.03 0.03 5606
0.18 0.53 0.63 -0.78 10.00 -0.01 -0.03 0.03 5612
0.18 0.50 0.64 -0.78 10.01 -0.01 -0.02 0.03 5618
0.18 0.51 0.63 -0.76 9.98 -0.01 -0.03 0.03 5625
0.20 0.51 0.61 -0.79 9.97 -0.01 -0.03 0.02 5632
0.19 0.50 0.64 -0.79 10.04 -0.01 -0.02 0.03 5638
0.19 0.51 0.62 -0.78 9.99 -0.01 -0.02 0.02 5644
0.20 0.51 0.65 -0.77 10.04 -0.01 -0.03 0.02 5650
0.19 0.52 0.63 -0.80 9.98 -0.01 -0.03 0.02 5656
0.18 0.52 0.64 -0.79 9.97 -0.01 -0.02 0.02 5662
0.19 0.53 0.63 -0.78 10.01 -0.02 -0.03 0.03 5669
0.18 0.53 0.65 -0.77 9.96 -0.01 -0.02 0.02 5676
0.18 0.52 0.65 -0.81 10.01 -0.02 -0.03 0.02 5682
0.17 0.52 0.62 -0.80 9.98 -0.01 -0.03 0.02 5688
0.18 0.50 0.63 -0.73 9.97 -0.02 -0.03 0.02 5694
0.17 0.49 0.67 -0.81 9.96 -0.02 -0.03 0.02 5700
0.17 0.52 0.62 -0.77 10.01 -0.02 -0.03 0.02 5707
0.17 0.51 0.02 -0.78 9.99 -0.01 -0.03 0.02 5713
0.16 0.50 0.63 -0.79 9.95 -0.01 -0.03 0.02 5720
0.16 0.49 0.66 -0.79 9.96 -0.01 -0.03 0.02 5726
0.18 0.49 0.64 -0.82 9.97 -0.01 -0.03 0.02 5732
0.19 0.47 0.63 -0.77 9.97 -0.01 -0.03 0.02 5738
0.18 0.47 0.61 -0.78 9.97 -0.02 -0.03 0.02 5744
0.18 0.48 0.62 -0.77 9.98 -0.01 -0.03 0.02 5751
0.19 0.47 0.64 -0.80 9.98 -0.01 -0.03 0.03 5757
0.18 0.45 0.61 -0.77 9.98 -0.01 -0.03 0.02 5764
0.18 0.45 0.63 -0.76 10.04 -0.01 -0.03 0.02 5770
0.19 0.44 0.63 -0.79 10.01 -0.01 -0.04 0.03 5776
0.19 0.41 0.65 -0.75 9.98 -0.01 -0.04 0.02 5782
0.19 0.41 0.63 -0.77 9.96 -0.02 -0.04 0.02 5789
0.20 0.42 0.65 -0.76 9.99 -0.02 -0.04 0.02 5795
0.21 0.41 0.59 -0.81 10.02 -0.01 -0.04 0.03 5801
0.20 0.41 0.63 -0.75 10.00 -0.02 -0.05 0.02 5808
0.22 0.42 0.67 -0.77 9.97 -0.01 -0.05 0.02 5814
0.20 0.42 0.64 -0.79 9.97 -0.01 -0.04 0.02 5820
0.20 0.42 0.62 -0.76 10.00 -0.01 -0.04 0.02 5827
0.20 0.41 0.62 -0.77 9.99 -0.01 -0.04 0.02 5833
0.18 0.40 0.59 -0.74 9.98 -0.00 -0.04 0.02 5839
0.18 0.39 0.65 -0.73 10.00 -0.01 -0.04 0.02 5846
0.18 0.39 0.64 -0.78 9.99 -0.00 -0.04 0.02 5852
0.20 0.37 0.59 -0.78 9.99 -0.00 -0.04 0.02 5858
0.19 0.35 0.59 -0.77 9.97 0.00 -0.04 0.03 5864
0.19 0.30 0.64 -0.78 9.93 -0.00 -0.04 0.03 5871
0.20 0.29 0.60 -0.75 10.02 -0.00 -0.04 0.03 5877
0.20 0.29 0.58 -0.76 9.97 -0.00 -0.07 0.03 5883
0.22 0.27 0.62 -0.78 9.98 0.00 -0.04 0.03 5890
0.24 0.26 0.63 -0.77 9.99 0.00 -0.04 0.03 5896
0.26 0.30 0.63 -0.76 10.01 0.01 -0.04 0.03 5902
0.27 0.24 0.62 -0.77 10.02 0.01 -0.04 0.03 5909
0.27 0.25 0.66 -0.78 10.00 0.01 -0.04 0.02 5915
0.29 0.25 0.66 -0.79 10.01 0.02 -0.04 0.02 5921
0.30 0.22 0.59 -0.77 10.04 0.02 -0.04 0.02 5927
0.29 0.17 0.62 -0.76 10.04 0.02 -0.04 0.02 5934
0.33 0.15 0.66 -0.78 10.05 0.03 -0.04 0.02 5941
0.34 0.13 0.64 -0.78 10.03 0.04 -0.04 0.02 5947
0.35 0.11 0.66 -0.80 10.06 0.05 -0.04 0.02 5953
0.35 0.09 0.62 -0.80 10.06 0.06 -0.04 0.02 5959
0.37 0.07 0.67 -0.81 10.01 0.07 -0.04 0.02 5965
0.39 0.07 0.66 -0.80 10.01 0.08 -0.04 0.02 5971
0.45 0.06 0.63 -0.84 10.07 0.09 -0.05 0.02 5979
0.48 0.02 0.60 -0.62 10.13 0.11 -0.05 0.02 5985
0.49 0.02 0.57 -0.87 10.13 0.13 -0.06 0.02 5991
0.52 0.00 0.63 -0.85 10.19 0.16 -0.06 0.01 5997
0.53 -0.02 0.62 -0.88 10.23 0.20 -0.07 0.01 6003
0.59 -0.00 0.58 -0.96 10.24 0.24 -0.08 0.00 6010
0.62 -0.04 0.64 -0.90 10.37 0.29 -0.08 -0.01 6017
0.63 -0.04 0.76 -0.93 10.53 0.35 -0.10 -0.03 6023
0.66 -0.03 0.88 -1.13 10.57 0.42 -0.14 -0.06 6029
0.72 -0.05 1.10 -1.17 11.11 0.55 -0.18 -0.11 6035
0.71 -0.05 1.29 -1.30 11.80 0.76 -0.24 -0.16 6042
0.73 -0.04 1.26 -1.38 11.92 1.02 -0.32 -0.21 6048
0.72 -0.05 1.44 -1.58 12.40 1.24 -0.42 -0.26 6054
0.70 -0.04 2.44 -1.93 12.45 1.39 -0.56 -0.32 6061
0.71 -0.04 2.10 -1.70 13.16 1.51 -0.74 -0.41 6068
0.70 -0.04 2.48 -2.16 13.50 1.63 -0.97 -0.52 6074
0.69 -0.03 3.15 -2.67 13.42 1.73 -1.23 -0.65 6080
0.67 -0.03 3.54 -2.91 13.80 1.81 -1.48 -0.82 6086
0.62 -0.03 4.25 -4.23 13.79 1.87 -1.71 -1.02 6093
0.61 -0.03 5.42 -3.95 13.43 1.93 -1.90 -1.22 6099
0.48 -0.03 5.56 -4.41 13.82 1.95 -1.96 -1.43 6106
0.39 -0.01 6.04 -4.74 13.06 1.93 -1.98 -1.67 6112
0.27 -0.02 7.40 -4.51 12.12 1.87 -1.88 -1.90 6119
0.17 -0.02 7.79 -4.92 12.79 1.78 -1.65 -2.15 6125
0.14 -0.01 9.65 -4.39 11.88 1.67 -1.46 -2.42 6131
0.10 -0.01 8.80 -4.91 11.45 1.55 -1.21 -2.69 6137
0.07 -0.01 7.61 -4.57 12.69 1.40 -1.00 -2.96 6144
0.10 -0.01 7.72 -3.38 12.64 1.19 -0.97 -3.18 6150
0.07 -0.01 6.78 -2.88 12.33 0.95 -1.14 -3.33 6157
0.07 -0.01 5.49 -2.24 12.59 0.73 -1.44 -3.47 6163
0.07 -0.01 5.08 -1.09 12.06 0.38 -1.91 -3.63 6169
0.05 -0.01 5.20 1.14 10.65 -0.03 -2.35 -3.74 6175
0.05 -0.00 7.64 5.86 8.45 -0.37 -2.73 -3.67 6181
0.05 0.00 10.78 7.38 6.73 -0.66 -2.87 -3.34 6189
0.04 -0.00 15.01 4.89 6.65 -0.83 -2.37 -2.38 6195
0.04 -0.00 15.59 2.79 10.78 -0.94 -1.23 -1.40 6201
0.05 -0.00 16.56 2.87 10.61 -1.29 -0.40 -0.79 6207
0.04 -0.00 14.60 3.06 6.69 -1.47 -0.02 -0.39 6213
0.04 -0.00 11.88 2.99 5.22 -1.46 0.29 -0.09 6219
0.04 0.00 10.00 2.60 4.97 -1.33 0.64 0.16 6226
0.05 -0.00 8.99 2.14 5.10 -1.14 0.94 0.37 6233
0.05 -0.00 8.30 2.11 5.49 -0.92 1.15 0.48 6239
0.04 -0.00 7.42 2.31 6.23 -0.74 1.40 0.52 6245
0.04 -0.00 6.26 2.61 7.04 -0.62 1.67 0.51 6251
0.04 -0.00 4.95 2.89 8.14 -0.54 1.95 0.45 6257
0.04 -0.00 3.53 2.91 9.25 -0.49 2.17 0.36 6263
0.04 -0.00 2.07 2.68 10.03 -0.47 2.28 0.24 6269
0.04 -0.00 0.88 2.40 10.75 -0.48 2.28 0.13 6276
0.04 -0.00 -0.13 2.08 11.80 -0.51 2.23 0.02 6283
0.04 -0.00 -0.71 1.86 12.77 -0.57 2.14 -0.09 6289
0.04 0.00 -1.00 1.68 13.21 -0.67 2.08 -0.14 6295
0.04 -0.00 -1.21 1.55 13.43 -0.80 2.04 -0.21 6301
0.04 -0.00 -1.55 1.21 13.23 -0.93 2.03 -0.27 6307
0.04 -0.00 -1.73 0.60 12.96 -1.05 2.02 -0.34 6313
0.05 -0.00 -1.91 -0.22 12.67 -1.12 2.00 -0.41 6321
0.04 -0.00 -1.98 -0.97 12.38 -1.16 1.94 -0.48 6327
0.03 -0.00 -1.92 -1.63 12.16 -1.15 1.86 -0.55 6333
0.05 -0.01 -1.66 -2.16 11.78 -1.11 1.77 -0.61 6339
0.04 -0.00 -1.31 -2.56 11.58 -1.05 1.72 -0.65 6345
0.04 -0.00 -0.92 -3.05 11.76 -0.98 1.71 -0.70 6351
0.04 -0.00 -0.83 -3.58 11.75 -0.90 1.73 -0.66 6359
0.04 -0.00 -0.92 -4.03 11.76 -0.83 1.71 -0.64 6365
0.03 -0.00 -0.90 -4.19 11.82 -0.74 1.68 -0.58 6371
0.04 0.01 -0.83 -4.27 12.05 -0.65 1.63 -0.47 6377
0.04 -0.00 -0.74 -4.31 12.19 -0.56 1.59 -0.32 6383
0.04 -0.00 -0.71 -4.35 12.27 -0.50 1.55 -0.13 6389
0.04 0.00 -0.67 -4.24 12.39 -0.42 1.52 0.08 6396
0.04 -0.00 -0.67 -4.19 12.30 -0.36 1.47 0.32 6403
0.04 -0.00 -0.87 -4.09 12.06 -0.31 1.49 0.58 6409
0.04 -0.00 -1.05 -4.10 11.92 -0.26 1.50 0.84 6415
0.05 -0.00 -1.40 -4.19 11.11 -0.19 1.50 1.07 6421
0.04 -0.00 -1.86 -4.35 10.98 -0.12 1.47 1.31 6427
0.03 -0.00 -2.38 -4.74 10.36 -0.02 1.43 1.51 6434
0.05 -0.01 -2.73 -5.09 9.97 0.11 1.40 1.67 6440
0.04 -0.00 -3.15 -5.46 9.99 0.28 1.37 1.78 6447
0.03 -0.00 -3.59 -5.43 10.24 0.41 1.32 1.82 6453
0.04 -0.00 -3.92 -5.08 10.45 0.53 1.26 1.83 6459
0.04 -0.00 -4.30 -4.64 10.74 0.61 1.17 1.82 6465
0.04 -0.00 -4.54 -4.03 11.00 0.62 1.04 1.80 6471
0.04 -0.00 -4.65 -3.52 11.26 0.59 0.91 1.79 6478
0.05 -0.01 -4.73 -3.07 11.40 0.53 0.76 1.78 6484
0.04 -0.00 -4.71 -2.72 11.51 0.45 0.62 1.77 6491
0.03 -0.00 -4.73 -2.61 11.20 0.35 0.51 1.77 6497
0.04 -0.00 -4.98 -2.65 10.57 0.23 0.38 1.76 6503
0.04 -0.00 -5.20 -2.93 9.67 0.20 0.25 1.72 6509
0.04 -0.00 -5.28 -3.11 9.02 0.18 0.14 1.66 6515
0.04 -0.00 -5.27 -3.28 8.32 0.21 0.05 1.60 6521
0.05 -0.01 -5.11 -3.38 7.40 0.27 -0.00 1.50 6529
0.04 -0.00 -5.00 -3.30 7.90 0.35 -0.00 1.40 6535
0.04 -0.00 -4.92 -2.99 7.99 0.40 0.02 1.31 6541
0.04 -0.00 -4.93 -2.64 8.11 0.43 0.05 1.23 6547
0.05 -0.01 -4.95 -2.24 8.16 0.42 0.03 1.18 6553
0.03 -0.00 -4.90 -2.01 8.15 0.40 -0.02 1.18 6559
0.04 -0.00 -4.76 -1.79 8.41 0.36 -0.10 1.21 6565
0.03 -0.00 -4.56 -1.73 8.42 0.31 -0.18 1.28 6572
0.04 -0.00 -4.29 -1.80 8.28 0.26 -0.26 1.38 6578
0.04 -0.00 -4.03 -1.81 7.95 0.23 -0.35 1.52 6584
0.03 -0.00 -3.83 -1.75 7.45 0.20 -0.41 1.67 6591
0.04 -0.00 -3.50 -1.57 6.90 0.20 -0.47 1.86 6597
0.05 -0.00 -6.22 -3.86 12.70 0.28 -0.73 2.03 6603
0.04 -0.00 -22.73 -10.44 18.26 1.04 -4.26 2.41 6609
0.03 -0.00 -6.57 -7.57 2.25 0.89 -4.28 2.60 6616
0.04 0.02 0.23 -9.67 5.76 0.83 -4.28 2.42 6622
0.03 0.15 -34.30 5.17 56.57 1.34 -3.63 1.87 6629
0.01 0.36 -7.45 0.64 16.22 -0.06 -1.08 0.80 6635
0.04 0.50 -7.05 -2.21 17.07 -0.27 -0.37 0.18 6641
0.02 0.59 -1.53 0.10 11.97 -0.11 -0.18 -0.06 6647
0.03 0.50 1.75 0.39 9.81 0.09 -0.09 0.07 6653
0.03 0.48 2.76 0.66 9.06 0.17 -0.09 0.21 6661
0.04 0.42 1.97 0.05 10.22 0.20 -0.14 0.30 6667
0.04 0.38 1.86 -1.29 10.48 0.12 -0.20 0.31 6673
0.05 0.36 1.35 -1.42 9.86 0.09 -0.21 0.33 6679
0.04 0.34 -0.04 -1.04 9.78 0.06 -0.19 0.33 6685
0.05 0.37 -0.53 -2.60 9.57 -0.00 -0.15 0.25 6691
0.05 0.42 -0.54 -2.02 9.86 -0.05 -0.08 0.12 6699
0.07 0.42 0.04 -1.27 9.83 -0.10 -0.04 0.07 6705
0.07 0.49 0.26 -0.99 10.02 -0.13 -0.01 0.06 6711
0.11 0.56 0.39 -0.66 10.04 -0.14 -0.03 0.06 6717
0.13 0.54 0.58 -0.74 10.34 -0.13 -0.02 0.06 6723
0.09 0.62 0.56 -0.65 10.35 -0.08 -0.01 0.06 6730
0.14 0.63 0.46 -0.75 10.21 -0.05 0.00 0.07 6736
0.14 0.64 0.59 -0.90 10.10 -0.03 0.00 0.08 6743
0.12 0.60 0.61 -0.92 10.09 -0.03 0.00 0.08 6749
0.16 0.61 0.70 -0.92 10.00 -0.03 -0.00 0.08 6755
0.17 0.59 0.70 -0.88 9.98 -0.03 -0.01 0.07 6761
0.17 0.63 0.77 -0.83 10.01 -0.03 -0.01 0.07 6768
0.19 0.63 0.76 -0.85 10.19 -0.03 -0.02 0.06 6774
0.20 0.62 0.73 -0.79 10.07 -0.02 -0.02 0.06 6780
0.20 0.62 0.72 -0.83 10.09 -0.01 -0.03 0.06 6787
0.22 0.61 0.69 -0.87 10.03 -0.02 -0.03 0.05 6793
0.22 0.60 0.71 -0.84 10.06 -0.02 -0.04 0.05 6800
0.20 0.62 0.63 -0.83 9.96 -0.02 -0.04 0.04 6806
0.22 0.62 0.66 -0.77 10.00 -0.02 -0.04 0.04 6812
0.22 0.63 0.63 -0.82 10.09 -0.02 -0.07 0.04 6818
0.22 0.62 1.21 -0.80 9.95 -0.02 -0.03 0.04 6824
0.24 0.59 0.67 -0.75 10.01 -0.02 -0.03 0.04 6832
0.25 0.58 0.64 -0.75 10.03 -0.02 -0.03 0.04 6838
0.25 0.57 0.68 -0.78 10.00 -0.01 -0.03 0.04 6844
0.28 0.60 0.65 -0.80 10.02 -0.01 -0.03 0.04 6850
0.28 0.59 0.64 -0.80 10.02 -0.01 -0.03 0.04 6856
0.28 0.56 0.65 -0.77 10.04 -0.01 -0.03 0.04 6863
0.30 0.54 0.66 -0.80 10.00 -0.00 -0.02 0.04 6870
0.29 0.55 0.68 -0.80 10.01 -0.00 -0.03 0.04 6876
0.29 0.55 0.52 -0.67 9.26 -0.00 -0.03 0.05 6882
0.31 0.52 0.67 -0.80 10.00 -0.00 -0.03 0.04 6888
0.31 0.48 0.70 -0.81 9.96 0.00 -0.03 0.04 6894
0.31 0.47 0.66 -0.82 10.01 -0.00 -0.03 0.04 6901
0.32 0.48 0.64 -0.81 9.97 0.00 -0.03 0.04 6907
0.33 0.44 0.67 -0.77 9.98 -0.00 -0.04 0.04 6914
0.32 0.43 0.67 -0.81 10.01 -0.01 -0.04 0.03 6920
0.33 0.43 0.68 -0.77 9.98 -0.01 -0.04 0.03 6926
0.33 0.41 0.70 -0.78 10.01 -0.01 -0.04 0.03 6932
0.33 0.40 0.71 -0.80 10.00 -0.01 -0.04 0.03 6939
0.32 0.41 0.72 -0.79 10.00 -0.01 -0.04 0.03 6945
0.33 0.42 0.67 -0.80 10.05 -0.01 -0.04 0.03 6951
0.31 0.42 0.68 -0.78 9.96 -0.01 -0.04 0.04 6958
0.32 0.43 0.68 -0.78 9.96 -0.01 -0.04 0.03 6964
0.33 0.43 0.66 -0.76 9.94 -0.01 -0.04 0.03 6970
0.32 0.43 0.67 -0.80 9.98 -0.01 -0.04 0.03 6977
0.32 0.41 0.67 -0.81 9.98 -0.01 -0.04 0.04 6983
0.33 0.42 0.65 -0.80 9.99 -0.01 -0.04 0.04 6989
0.33 0.38 0.64 -0.78 9.98 -0.01 -0.04 0.04 6995
0.32 0.38 0.65 -0.80 9.99 -0.01 -0.04 0.03 7002
0.33 0.42 0.64 -0.78 10.00 -0.01 -0.04 0.03 7008
0.33 0.43 0.66 -0.80 10.02 -0.01 -0.04 0.04 7015
0.32 0.40 0.64 -0.81 10.04 -0.01 -0.04 0.04 7021
0.33 0.40 0.65 -0.81 10.01 -0.02 -0.04 0.03 7027
0.34 0.38 0.62 -0.80 10.00 -0.01 -0.04 0.03 7033
0.33 0.37 0.66 -0.79 9.97 -0.01 -0.04 0.03 7040
0.34 0.38 0.67 -0.81 9.98 -0.01 -0.04 0.03 7046
0.35 0.36 0.65 -0.81 9.94 -0.02 -0.04 0.03 7053
0.34 0.36 0.68 -0.76 9.97 -0.02 -0.03 0.03 7059
0.34 0.37 0.66 -0.77 9.97 -0.03 -0.04 0.03 7065
0.35 0.37 0.64 -0.82 10.00 -0.03 -0.03 0.03 7071
0.35 0.35 0.63 -0.79 9.98 -0.03 -0.03 0.03 7077
0.35 0.36 0.66 -0.78 10.01 -0.04 -0.03 0.03 7084
0.37 0.37 0.62 -0.78 9.98 -0.03 -0.03 0.03 7091
0.37 0.35 0.66 -0.75 9.99 -0.03 -0.03 0.03 7097
0.36 0.37 0.64 -0.76 9.99 -0.03 -0.03 0.03 7103
0.38 0.36 0.62 -0.78 9.99 -0.02 -0.03 0.03 7109
0.38 0.34 0.63 -0.77 9.95 -0.02 -0.02 0.03 7115
0.37 0.36 0.68 -0.77 9.99 -0.01 -0.03 0.03 7121
0.38 0.35 0.68 -0.74 9.99 -0.01 -0.02 0.02 7128
0.39 0.34 0.63 -0.74 10.04 -0.01 -0.02 0.02 7135
0.40 0.30 0.63 -0.75 9.96 -0.01 -0.03 0.02 7141
0.40 0.33 0.64 -0.79 10.00 -0.01 -0.02 0.03 7147
0.41 0.31 0.65 -0.78 9.92 -0.01 -0.03 0.02 7153
0.41 0.31 0.63 -0.80 9.90 -0.01 -0.03 0.03 7159
0.42 0.34 0.68 -0.77 9.97 -0.01 -0.03 0.03 7165
0.44 0.36 0.67 -0.76 10.01 -0.00 -0.04 0.02 7173
0.44 0.32 0.69 -0.81 9.97 -0.00 -0.03 0.02 7179
0.44 0.33 0.63 -0.75 9.98 -0.01 -0.03 0.02 7185
0.45 0.32 0.68 -0.79 10.01 -0.01 -0.04 0.02 7191
0.46 0.28 0.59 -0.73 9.89 -0.00 -0.03 0.02 7197
0.45 0.29 0.67 -0.76 10.00 -0.00 -0.04 0.02 7203
0.45 0.30 0.63 -0.80 9.97 -0.00 -0.04 0.02 7211
0.45 0.28 0.66 -0.76 10.02 -0.00 -0.04 0.02 7217
0.45 0.26 0.65 -0.77 10.07 0.00 -0.04 0.02 7223
0.47 0.28 0.68 -0.80 10.00 0.00 -0.04 0.02 7229
0.49 0.26 0.67 -0.80 9.97 -0.00 -0.04 0.02 7235
0.49 0.25 0.71 -0.80 10.04 -0.00 -0.04 0.02 7241
0.47 0.26 0.63 -0.80 9.97 -0.00 -0.04 0.02 7248
0.48 0.27 0.66 -0.78 9.98 -0.00 -0.05 0.02 7255
0.46 0.26 0.63 -0.77 9.97 0.00 -0.04 0.02 7261
0.44 0.24 0.64 -0.78 9.98 0.00 -0.05 0.02 7267
0.44 0.24 0.66 -0.80 9.98 0.00 -0.04 0.02 7273
0.46 0.24 0.68 -0.80 9.97 0.00 -0.05 0.02 7279
0.48 0.22 0.64 -0.79 9.98 0.00 -0.05 0.02 7285
0.49 0.22 0.64 -0.78 9.97 0.00 -0.05 0.02 7292
0.51 0.22 0.64 -0.78 9.97 0.01 -0.06 0.02 7299
0.50 0.17 0.62 -0.79 9.97 0.01 -0.06 0.01 7305
0.52 0.16 0.66 -0.78 10.00 0.01 -0.06 0.01 7311
0.55 0.18 0.68 -0.77 10.02 0.02 -0.06 0.01 7317
0.55 0.12 0.66 -0.81 10.02 0.03 -0.06 0.01 7323
0.54 0.12 0.65 -0.79 10.06 0.04 -0.06 0.01 7330
0.55 0.12 0.67 -0.80 10.08 0.05 -0.06 0.01 7336
0.54 0.07 0.67 -0.94 10.16 0.06 -0.06 0.00 7343
0.54 0.06 0.68 -0.78 10.17 0.09 -0.07 -0.03 7349
0.56 0.06 0.74 -0.83 10.24 0.12 -0.07 -0.01 7355
0.55 0.01 0.74 -0.86 10.31 0.17 -0.08 -0.01 7362
0.56 0.02 0.77 -0.95 10.36 0.22 -0.11 -0.03 7368
0.60 -0.01 1.01 -1.04 10.68 0.30 -0.14 -0.07 7374
0.63 -0.03 1.41 -1.15 10.99 0.44 -0.22 -0.13 7380
0.62 -0.02 2.02 -1.46 11.63 0.63 -0.37 -0.24 7387
0.66 -0.04 3.46 -2.03 11.51 0.84 -0.61 -0.42 7394
0.65 -0.05 5.24 -2.45 12.91 1.07 -0.82 -0.75 7400
0.64 -0.03 3.85 -2.53 12.04 1.37 -1.09 -1.02 7406
0.64 -0.04 4.22 -2.66 13.23 1.53 -1.36 -1.19 7412
0.59 -0.04 5.26 -3.21 12.71 1.53 -1.42 -1.42 7419
0.58 -0.03 6.12 -3.79 12.27 1.52 -1.40 -1.72 7426
0.51 -0.03 6.39 -3.34 11.36 1.52 -1.36 -2.03 7432
0.44 -0.02 6.24 -4.22 11.30 1.50 -1.28 -2.32 7438
0.35 -0.03 7.23 -4.24 10.61 1.45 -1.14 -2.60 7445
0.28 -0.02 7.26 -3.57 10.16 1.39 -0.97 -2.86 7451
0.23 -0.02 7.19 -3.52 9.93 1.27 -0.77 -3.13 7457
0.18 -0.02 8.96 -2.56 10.40 1.12 -0.52 -3.37 7463
0.11 -0.01 7.92 -2.80 9.97 0.92 -0.30 -3.61 7470
0.10 -0.01 7.31 -2.80 10.47 0.71 -0.16 -3.81 7477
0.08 -0.01 6.92 -0.58 11.37 0.53 -0.09 -3.93 7483
0.07 -0.01 5.61 -0.33 11.27 0.32 -0.17 -4.02 7489
0.07 -0.01 4.13 0.71 11.12 0.09 -0.43 -4.08 7495
0.06 -0.01 3.86 1.88 11.13 -0.15 -0.80 -4.16 7501
0.03 -0.00 3.46 2.72 11.02 -0.39 -1.18 -4.23 7507
0.05 -0.00 5.78 6.10 9.70 -0.60 -1.42 -4.16 7515
0.05 -0.00 9.12 6.87 6.77 -0.70 -1.41 -3.86 7521
0.05 -0.00 9.26 4.25 6.59 -0.72 -1.21 -3.24 7527
0.04 -0.00 9.78 2.44 9.75 -0.70 -0.68 -2.57 7533
0.05 -0.01 10.15 2.00 9.27 -0.74 -0.09 -2.05 7539
0.05 -0.00 9.75 2.52 8.17 -0.71 0.23 -1.52 7545
0.04 -0.00 8.34 2.55 6.71 -0.63 0.33 -1.09 7552
0.05 -0.00 7.03 1.89 6.30 -0.50 0.41 -0.72 7558
0.06 -0.01 6.39 1.04 7.17 -0.41 0.54 -0.41 7564
0.05 -0.00 6.35 0.49 8.35 -0.27 0.72 -0.16 7571
0.04 -0.00 6.10 0.25 9.12 -0.14 0.96 0.00 7577
0.05 -0.00 5.46 0.19 9.66 -0.07 1.19 0.16 7583
0.06 -0.01 4.34 0.29 9.91 -0.04 1.35 0.29 7589
0.05 -0.01 3.03 0.22 10.11 -0.04 1.44 0.39 7596
0.05 -0.00 1.93 -0.10 10.46 -0.03 1.44 0.48 7602
0.05 -0.01 0.65 -0.44 10.88 -0.02 1.39 0.55 7608
0.05 -0.01 0.70 -0.64 11.12 -0.02 1.32 0.60 7614
0.05 -0.00 0.48 -0.84 11.25 -0.03 1.23 0.61 7621
0.04 -0.00 0.37 -0.84 11.25 -0.05 1.19 0.59 7627
0.05 -0.01 0.24 -1.02 11.17 -0.10 1.18 0.53 7633
0.04 -0.00 0.03 -1.36 11.05 -0.15 1.20 0.44 7640
0.03 -0.00 -0.22 -1.63 11.01 -0.20 1.22 0.32 7646
0.04 0.01 -0.58 -1.78 11.14 -0.22 1.22 0.20 7652
0.04 -0.00 -0.73 -1.84 11.30 -0.25 1.20 0.08 7658
0.04 -0.00 -0.70 -1.75 11.55 -0.27 1.14 0.00 7665
0.05 0.00 -0.54 -1.65 11.75 -0.32 1.13 -0.05 7671
0.05 -0.01 -0.34 -1.53 12.05 -0.39 1.07 -0.07 7677
0.05 -0.00 -0.28 -1.53 12.03 -0.47 1.02 -0.05 7684
0.04 -0.00 -0.39 -1.56 11.70 -0.54 0.94 0.01 7690
0.05 -0.00 -0.34 -1.77 11.20 -0.58 0.83 0.11 7696
0.04 -0.00 -0.16 -2.10 10.74 -0.59 0.72 0.22 7703
0.04 -0.00 0.24 -2.40 10.38 -0.56 0.64 0.35 7709
0.05 0.00 0.62 -2.74 9.89 -0.49 0.61 0.45 7715
0.05 -0.00 1.08 -2.98 9.85 -0.40 0.64 0.53 7721
0.04 -0.00 1.29 -3.13 10.11 -0.31 0.74 0.59 7728
0.04 0.01 1.28 -3.14 10.32 -0.23 0.87 0.67 7734
0.04 -0.00 0.93 -2.97 10.37 -0.18 0.96 0.69 7740
0.04 -0.00 0.46 -2.75 10.37 -0.15 0.96 0.76 7747
0.05 0.00 0.17 -2.58 10.35 -0.13 0.90 0.84 7753
0.05 -0.01 0.05 -2.51 10.26 -0.11 0.79 0.93 7759
0.04 -0.00 -0.28 -2.43 9.83 -0.08 0.68 1.01 7766
0.04 -0.00 0.56 -2.34 10.34 -0.05 0.61 1.07 7772
0.04 -0.00 0.77 -2.32 10.48 -0.03 0.59 1.10 7778
0.04 -0.00 0.96 -2.28 10.52 -0.02 0.63 1.13 7785
0.03 -0.00 0.85 -2.23 10.58 -0.01 0.66 1.14 7791
0.05 0.00 0.54 -2.17 10.62 -0.02 0.68 1.16 7797
0.05 -0.00 0.37 -2.04 10.68 -0.02 0.67 1.18 7803
0.04 -0.00 0.21 -1.84 10.72 -0.06 0.62 1.21 7810
0.04 -0.00 0.19 -1.60 10.61 -0.10 0.54 1.25 7816
0.05 -0.00 0.28 -1.52 10.40 -0.14 0.45 1.27 7822
0.04 -0.00 0.51 -1.59 10.08 -0.20 0.40 1.30 7829
0.03 -0.00 0.70 -1.71 9.82 -0.23 0.38 1.31 7835
0.04 0.00 0.96 -1.87 9.42 -0.24 0.39 1.30 7841
0.04 -0.00 1.01 -1.99 9.07 -0.22 0.43 1.29 7847
0.04 -0.00 1.04 -2.12 8.94 -0.17 0.51 1.26 7854
0.03 -0.00 0.98 -2.14 9.07 -0.12 0.59 1.25 7860
0.04 -0.00 0.70 -2.16 9.34 -0.04 0.67 1.23 7866
0.04 -0.00 0.46 -2.04 9.64 -0.03 0.71 1.22 7872
0.04 -0.00 0.19 -1.94 9.73 -0.02 0.72 1.21 7878
0.04 -0.00 -0.13 -1.88 9.79 -0.02 0.71 1.22 7884
0.04 0.00 -0.36 -2.10 9.69 -0.02 0.70 1.23 7891
0.04 -0.00 -0.39 -2.40 9.87 -0.02 0.69 1.24 7898
0.04 -0.00 -0.38 -2.71 10.13 -0.02 0.73 1.23 7904
0.04 -0.00 -0.68 -2.92 10.05 -0.01 0.77 1.21 7910
0.05 -0.01 -1.04 -3.07 9.83 -0.00 0.80 1.19 7916
0.05 -0.00 -1.45 -3.24 9.81 0.00 0.79 1.17 7922
0.04 -0.00 -2.08 -3.47 9.83 0.01 0.73 1.17 7928
0.03 -0.00 -2.50 -3.64 10.04 0.02 0.62 1.19 7934
0.06 -0.01 -2.82 -3.79 10.06 0.04 0.47 1.23 7942
0.04 -0.00 -2.88 -3.87 9.92 0.05 0.30 1.28 7948
0.04 -0.00 -2.73 -4.07 9.61 0.06 0.17 1.33 7954
0.05 -0.00 -2.57 -4.52 9.18 0.09 0.11 1.39 7960
0.06 -0.01 -2.51 -5.03 8.45 0.15 0.09 1.47 7966
0.04 -0.00 -2.45 -5.38 8.24 0.25 0.11 1.48 7972
0.04 -0.00 -2.71 -5.52 8.21 0.38 0.13 1.52 7979
0.04 -0.00 -4.63 -5.42 9.36 0.56 -0.09 1.62 7985
0.05 -0.01 -9.99 -5.24 11.52 0.75 -0.96 1.85 7991
0.04 -0.00 -10.32 -3.75 9.24 0.90 -1.90 2.17 7998
0.04 -0.00 -7.10 -2.64 7.98 0.91 -2.60 2.44 8004
0.04 -0.00 -7.98 -3.96 8.22 0.85 -2.95 2.66 8010
0.04 -0.00 -9.57 -4.68 9.84 0.80 -3.34 2.82 8016
0.04 -0.00 -11.39 -5.37 9.79 0.78 -3.69 3.00 8023
0.05 0.02 -8.59 1.77 19.26 1.21 -3.25 3.17 8029
0.05 0.10 -10.47 -4.26 9.27 1.44 -1.74 3.29 8036
0.04 0.16 -30.31 -4.88 32.36 1.07 -2.45 2.63 8042
0.02 0.30 -20.14 -2.50 17.45 0.24 -1.31 1.28 8048
0.02 0.41 -7.72 -1.81 13.27 -0.07 -0.19 0.34 8054
0.02 0.45 -2.08 0.21 10.25 -0.05 -0.09 -0.06 8061
0.04 0.41 2.96 -0.48 9.38 0.05 -0.12 -0.08 8068
0.03 0.40 3.49 -0.94 9.39 0.08 -0.11 0.22 8074
0.03 0.40 2.19 -0.29 9.74 0.11 -0.10 0.40 8080
0.04 0.44 0.99 -1.50 10.66 0.06 -0.12 0.39 8086
0.05 0.39 0.06 -0.95 9.97 0.02 -0.14 0.27 8092
0.06 0.39 0.44 -0.79 9.38 0.01 -0.13 0.24 8098
0.04 0.42 -0.03 -1.17 9.76 -0.03 -0.11 0.20 8105
0.06 0.45 -0.04 -1.63 10.07 -0.04 -0.08 0.15 8112
0.07 0.50 0.44 -1.07 10.01 -0.06 -0.06 0.11 8118
0.07 0.53 0.63 -0.79 9.84 -0.08 -0.05 0.09 8124
0.08 0.54 0.62 -0.88 9.96 -0.08 -0.06 0.08 8130
0.08 0.57 0.59 -0.78 10.11 -0.10 -0.07 0.07 8137
0.07 0.57 0.61 -0.74 10.18 -0.08 -0.06 0.08 8143
0.08 0.62 1.19 -0.68 10.07 -0.06 -0.05 0.08 8150
0.07 0.61 0.68 -0.81 10.15 -0.05 -0.04 0.08 8156
0.11 0.64 0.69 -0.85 10.06 -0.04 -0.03 0.08 8162
0.11 0.66 0.70 -0.88 10.01 -0.04 -0.03 0.08 8168
0.12 0.65 0.73 -0.85 9.94 -0.04 -0.04 0.08 8175
0.13 0.72 0.69 -0.79 10.01 -0.04 -0.04 0.07 8181
0.15 0.70 0.64 -0.09 9.98 -0.03 -0.04 0.06 8187
0.14 0.72 0.72 -0.78 10.07 -0.03 -0.04 0.06 8194
0.15 0.73 0.74 -0.80 10.03 -0.03 -0.03 0.06 8200
0.16 0.75 0.72 -0.81 9.98 -0.03 -0.03 0.06 8207
0.17 0.76 0.50 -0.30 9.78 -0.04 -0.02 0.06 8213
0.17 0.77 0.64 -0.86 10.00 -0.03 -0.03 0.05 8219
0.19 0.79 0.72 -0.78 9.98 -0.03 -0.03 0.05 8225
0.19 0.78 0.73 -0.77 10.00 -0.03 -0.03 0.04 8231
0.18 0.78 0.69 -0.74 10.04 -0.03 -0.03 0.04 8238
0.20 0.77 0.70 -0.74 10.02 -0.02 -0.03 0.04 8245
0.18 0.77 0.72 -0.73 10.00 -0.02 -0.02 0.04 8251
0.19 0.78 0.71 -0.77 9.99 -0.02 -0.02 0.04 8257
0.20 0.78 0.71 -0.74 9.99 -0.02 -0.02 0.04 8263
0.19 0.77 0.68 -0.74 10.01 -0.02 -0.02 0.04 8269
0.19 0.76 0.73 -0.74 10.00 -0.01 -0.02 0.04 8275
0.21 0.77 0.75 -0.81 10.35 -0.01 -0.02 0.04 8283
0.20 0.77 0.74 -0.79 10.01 -0.01 -0.02 0.04 8289
0.20 0.76 0.74 -0.74 9.97 -0.01 -0.02 0.03 8295
0.21 0.73 0.74 -0.74 10.01 -0.01 -0.02 0.03 8301
0.20 0.71 0.75 -0.70 10.00 -0.01 -0.02 0.03 8307
0.20 0.69 0.75 -0.75 10.03 -0.01 -0.02 0.04 8314
0.22 0.68 0.77 -0.74 9.98 -0.01 -0.02 0.03 8321
0.22 0.65 0.74 -0.73 10.00 -0.00 -0.03 0.04 8327
0.20 0.63 0.78 -0.73 9.99 -0.01 -0.02 0.03 8333
0.22 0.60 0.77 -0.76 9.99 -0.01 -0.03 0.04 8339
0.22 0.62 0.80 -0.74 9.98 -0.01 -0.03 0.03 8345
0.22 0.57 0.72 -0.75 9.98 -0.01 -0.03 0.03 8352
0.22 0.58 0.75 -0.72 9.98 -0.01 -0.04 0.03 8358
0.23 0.56 0.74 -0.73 9.99 -0.02 -0.04 0.03 8365
0.22 0.57 0.76 -0.78 9.98 -0.02 -0.04 0.03 8371
0.22 0.58 0.77 -0.74 9.96 -0.01 -0.05 0.03 8377
0.23 0.56 0.77 -0.74 9.96 -0.02 -0.05 0.03 8383
0.23 0.50 0.69 -0.75 9.96 -0.01 -0.05 0.03 8389
0.22 0.52 0.74 -0.72 10.01 -0.01 -0.05 0.03 8396
0.25 0.50 0.73 -0.75 9.97 -0.01 -0.05 0.03 8402
0.24 0.47 0.73 -0.71 9.97 -0.01 -0.05 0.03 8409
0.24 0.46 0.75 -0.72 9.90 -0.01 -0.05 0.02 8415
0.25 0.48 0.74 -0.71 9.94 -0.01 -0.05 0.03 8421
0.26 0.46 0.74 -0.72 9.98 -0.01 -0.05 0.02 8427
0.27 0.41 0.70 -0.73 10.01 -0.02 -0.05 0.03 8434
0.27 0.45 0.71 -0.74 9.99 -0.01 -0.05 0.02 8440
0.29 0.42 0.71 -0.72 10.01 -0.02 -0.05 0.02 8446
0.29 0.39 0.72 -0.72 9.96 -0.02 -0.05 0.03 8453
0.28 0.40 0.70 -0.71 9.96 -0.02 -0.05 0.02 8459
0.29 0.46 0.73 -0.71 9.92 -0.02 -0.05 0.02 8465
0.28 0.43 0.67 -0.68 9.99 -0.02 -0.05 0.02 8472
0.28 0.39 0.68 -0.72 9.99 -0.02 -0.05 0.02 8478
0.31 0.40 0.66 -0.85 10.04 -0.01 -0.05 0.03 8484
0.32 0.39 0.74 -0.73 10.01 -0.01 -0.04 0.02 8491
0.32 0.38 0.72 -0.72 9.96 -0.01 -0.04 0.02 8497
0.32 0.38 0.72 -0.70 9.98 -0.01 -0.04 0.02 8503
0.33 0.39 0.73 -0.74 9.98 -0.01 -0.05 0.02 8509
0.33 0.40 0.69 -0.69 9.99 -0.01 -0.04 0.02 8516
0.33 0.40 0.73 -0.74 9.98 -0.01 -0.05 0.02 8522
0.34 0.40 0.69 -0.74 9.97 -0.01 -0.05 0.03 8528
0.32 0.41 0.72 -0.70 9.97 -0.01 -0.04 0.02 8535
0.32 0.39 0.68 -0.73 9.99 -0.01 -0.05 0.02 8541
0.32 0.39 0.71 -0.69 9.98 -0.01 -0.05 0.02 8547
0.33 0.37 0.69 -0.72 9.94 -0.01 -0.05 0.03 8554
0.32 0.37 0.70 -0.73 9.98 -0.01 -0.04 0.03 8560
0.33 0.37 0.68 -0.73 9.98 -0.02 -0.05 0.02 8566
0.33 0.39 0.68 -0.70 9.99 -0.02 -0.04 0.03 8572
0.34 0.37 0.69 -0.72 10.06 -0.01 -0.04 0.02 8579
0.34 0.39 0.71 -0.73 10.02 -0.01 -0.04 0.03 8585
0.37 0.40 0.71 -0.74 9.96 -0.01 -0.05 0.02 8592
0.37 0.41 0.68 -0.72 10.03 -0.01 -0.04 0.03 8598
0.38 0.44 0.67 -0.74 10.00 -0.01 -0.04 0.03 8604
0.39 0.42 0.65 -0.73 10.02 -0.01 -0.05 0.02 8610
0.37 0.40 0.66 -0.74 10.04 -0.01 -0.04 0.02 8616
0.38 0.42 0.66 -0.71 9.99 -0.01 -0.04 0.02 8623
0.41 0.40 0.66 -0.73 9.97 -0.01 -0.04 0.02 8630
0.40 0.40 0.71 -0.69 10.09 -0.01 -0.04 0.02 8636
0.40 0.39 0.71 -0.76 10.02 -0.01 -0.04 0.02 8642
0.40 0.40 0.68 -0.68 9.98 -0.01 -0.04 0.02 8648
0.37 0.39 0.65 -0.70 9.97 -0.01 -0.04 0.01 8654
0.37 0.39 0.68 -0.71 9.98 -0.01 -0.04 0.01 8660
0.40 0.40 0.67 -0.72 10.00 -0.01 -0.04 0.02 8668
0.38 0.41 0.70 -0.73 9.99 -0.00 -0.04 0.02 8674
0.33 0.38 0.65 -0.71 10.01 -0.01 -0.04 0.02 8680
0.36 0.37 0.71 -0.72 10.04 -0.01 -0.04 0.02 8686
0.33 0.33 0.70 -0.74 9.98 0.00 -0.04 0.02 8692
0.34 0.33 0.68 -0.71 9.99 -0.00 -0.04 0.01 8698
0.34 0.33 0.66 -0.73 10.00 0.00 -0.04 0.02 8706
0.36 0.31 0.66 -0.75 10.04 0.00 -0.04 0.02 8712
0.37 0.27 0.65 -0.73 9.97 0.01 -0.04 0.01 8718
0.39 0.26 0.68 -0.71 10.03 0.01 -0.04 0.02 8724
0.37 0.28 0.72 -0.73 9.97 0.02 -0.04 0.01 8730
0.39 0.24 0.68 -0.73 10.03 0.01 -0.05 0.01 8737
0.38 0.23 0.72 -0.72 10.04 0.02 -0.04 0.02 8743
0.39 0.20 0.71 -0.76 10.02 0.04 -0.05 0.01 8750
0.39 0.15 0.71 -0.77 10.13 0.05 -0.04 0.00 8756
0.41 0.14 0.75 -0.74 10.13 0.07 -0.05 0.00 8762
0.42 0.11 0.73 -0.77 10.16 0.09 -0.06 -0.00 8768
0.45 0.08 0.74 -0.74 10.17 0.12 -0.06 0.00 8775
0.50 0.05 0.75 -0.78 10.20 0.15 -0.06 -0.01 8781
0.51 0.02 0.81 -0.77 10.34 0.19 -0.07 -0.01 8787
0.54 0.02 0.86 -0.79 10.61 0.27 -0.08 -0.04 8794
0.55 -0.00 1.08 -0.90 10.83 0.38 -0.11 -0.08 8800
0.60 -0.03 1.27 -1.07 11.04 0.51 -0.18 -0.15 8807
0.61 -0.04 2.03 -1.45 11.49 0.73 -0.32 -0.25 8813
0.66 -0.04 3.90 -2.04 11.98 0.85 -0.50 -0.46 8819
0.73 -0.04 4.10 -2.27 13.62 1.10 -0.68 -0.74 8825
0.72 -0.04 3.91 -2.34 15.03 1.47 -1.00 -0.95 8833
0.70 -0.04 4.80 -2.99 11.35 1.72 -1.33 -1.13 8839
0.71 -0.05 5.50 -3.16 13.65 1.83 -1.49 -1.37 8845
0.69 -0.03 5.59 -3.76 13.80 1.88 -1.52 -1.65 8851
0.65 -0.03 5.74 -3.89 13.62 1.99 -1.54 -1.95 8858
0.59 -0.03 6.16 -4.47 13.14 2.07 -1.56 -2.22 8864
0.54 -0.03 6.30 -4.38 12.48 2.13 -1.58 -2.50 8870
0.45 -0.04 7.55 -4.16 12.26 2.14 -1.46 -2.77 8877
0.30 -0.01 7.64 -4.03 12.38 2.10 -1.31 -3.03 8884
0.22 -0.01 7.22 -3.63 12.46 2.01 -1.21 -3.26 8890
0.20 -0.02 8.54 -2.70 12.44 1.87 -1.12 -3.43 8896
0.19 -0.01 9.29 -2.41 11.45 1.76 -0.95 -3.57 8902
0.12 -0.01 10.45 -1.43 10.72 1.61 -0.59 -3.74 8908
0.11 -0.01 9.81 -1.38 9.34 1.45 -0.21 -3.94 8915
0.11 -0.01 7.65 -0.70 9.88 1.26 0.08 -4.14 8922
0.07 -0.01 7.50 1.18 11.24 0.99 0.21 -4.28 8928
0.07 -0.00 5.53 2.60 11.23 0.64 0.19 -4.28 8934
0.09 -0.00 4.79 3.76 10.32 0.29 -0.15 -4.28 8940
0.06 -0.01 4.56 6.63 9.37 0.01 -0.64 -4.28 8946
0.05 -0.00 4.58 9.87 7.02 -0.35 -0.88 -4.28 8953
0.06 -0.00 5.66 10.11 5.63 -0.65 -0.95 -4.28 8960
0.05 -0.00 7.13 7.92 6.12 -0.89 -0.79 -4.08 8966
0.05 -0.00 6.93 3.68 9.56 -1.10 -0.11 -3.51 8972
0.05 -0.00 8.65 2.55 10.99 -1.27 0.51 -2.91 8978
0.06 -0.01 8.56 3.13 9.04 -1.32 0.69 -2.47 8984
0.04 -0.00 7.55 2.75 6.66 -1.24 0.66 -2.16 8990
0.04 -0.00 6.50 1.95 5.36 -1.18 0.72 -1.88 8996
0.06 -0.00 6.34 1.15 6.06 -1.02 0.89 -1.62 9004
0.06 -0.01 6.44 0.45 7.50 -0.81 1.19 -1.39 9010
0.05 -0.00 6.39 -0.20 9.04 -0.63 1.51 -1.24 9016
0.05 -0.00 5.85 -0.52 9.43 -0.50 1.78 -1.08 9022
0.05 -0.00 4.83 -0.52 9.72 -0.45 2.00 -0.91 9028
0.05 -0.00 3.73 -0.68 10.25 -0.40 2.12 -0.72 9034
0.04 -0.00 2.62 -1.05 10.74 -0.42 2.11 -0.51 9040
0.04 -0.00 1.77 -1.43 11.12 -0.41 1.99 -0.29 9048
0.05 -0.01 0.96 -1.74 11.31 -0.38 1.88 -0.07 9054
0.05 -0.00 0.61 -1.88 11.54 -0.36 1.76 0.13 9060
0.05 -0.00 0.38 -2.03 11.80 -0.35 1.68 0.26 9066
0.06 -0.01 0.04 -2.16 11.88 -0.37 1.67 0.38 9072
0.06 -0.00 -0.46 -2.34 11.98 -0.39 1.69 0.45 9078
0.05 -0.00 -1.10 -2.65 12.02 -0.42 1.72 0.47 9085
0.06 -0.01 -1.80 -3.04 12.09 -0.44 1.72 0.46 9092
0.05 -0.01 -2.22 -3.37 11.86 -0.44 1.69 0.41 9098
0.04 -0.00 -2.46 -3.72 11.67 -0.42 1.63 0.35 9104
0.05 -0.00 -2.50 -3.92 11.54 -0.39 1.56 0.30 9110
0.05 -0.01 -2.37 -4.13 11.41 -0.35 1.48 0.26 9116
0.03 -0.00 -2.17 -4.27 11.18 -0.28 1.40 0.26 9123
0.05 -0.00 -1.82 -4.23 10.84 -0.23 1.32 0.28 9129
0.05 -0.00 -1.48 -4.11 10.74 -0.17 1.24 0.33 9136
0.04 -0.00 -1.12 -4.00 10.74 -0.09 1.19 0.40 9142
0.05 0.00 -0.88 -3.93 10.67 -0.03 1.16 0.50 9148
0.05 -0.01 -0.77 -3.80 10.70 0.04 1.14 0.60 9154
0.05 -0.00 -0.79 -3.65 10.73 0.09 1.12 0.71 9161
0.05 -0.00 -1.00 -3.47 10.71 0.12 1.10 0.82 9167
0.05 -0.01 -1.18 -3.14 10.73 0.15 1.04 0.92 9174
0.05 -0.00 -1.31 -2.72 10.87 0.16 0.97 1.02 9180
0.04 -0.00 -1.37 -2.34 10.94 0.16 0.96 1.12 9186
0.05 -0.01 -1.36 -1.81 11.05 0.14 0.92 1.24 9192
0.04 -0.00 -1.35 -1.26 11.06 0.10 0.87 1.31 9199
0.04 -0.00 -1.37 -0.83 10.92 0.05 0.81 1.43 9205
0.05 -0.00 -1.49 -0.59 10.66 -0.00 0.73 1.55 9211
0.05 -0.00 -1.68 -0.51 10.52 -0.05 0.63 1.65 9218
0.04 -0.00 -1.73 -0.58 10.43 -0.08 0.53 1.74 9224
0.05 -0.00 -1.62 -0.65 10.20 -0.11 0.45 1.80 9230
0.04 -0.00 -1.61 -0.85 9.86 -0.15 0.39 1.83 9236
0.05 -0.00 -1.43 -1.11 9.67 -0.18 0.33 1.83 9243
0.03 -0.00 -1.30 -1.48 9.62 -0.20 0.27 1.80 9249
0.04 0.00 -1.03 -1.82 9.52 -0.20 0.24 1.73 9255
0.05 -0.00 -0.77 -1.99 9.33 -0.18 0.25 1.63 9262
0.04 -0.00 -0.75 -2.15 9.16 -0.15 0.30 1.51 9268
0.04 -0.00 -0.80 -2.29 9.06 -0.11 0.38 1.39 9274
0.05 -0.00 -0.86 -2.30 9.24 -0.05 0.43 1.28 9280
0.05 -0.00 -0.99 -2.21 9.38 -0.01 0.48 1.17 9286
0.05 -0.00 -1.07 -2.07 9.64 0.02 0.48 1.15 9292
0.04 -0.00 -1.01 -1.92 9.98 0.01 0.44 1.13 9298
0.04 -0.00 -0.94 -1.96 10.10 -0.03 0.38 1.16 9306
0.04 -0.00 -0.98 -2.16 10.01 -0.07 0.31 1.19 9312
0.05 -0.00 -0.93 -2.33 9.86 -0.11 0.20 1.25 9318
0.04 -0.00 -0.87 -2.65 9.57 -0.14 0.16 1.32 9324
0.05 -0.01 -0.82 -2.94 9.23 -0.14 0.09 1.37 9330
0.04 -0.00 -0.74 -3.21 8.98 -0.10 0.05 1.44 9336
0.05 -0.00 -0.63 -3.53 8.87 -0.05 0.04 1.50 9342
0.04 -0.00 -0.66 -3.95 8.75 0.01 0.05 1.56 9349
0.05 -0.00 -0.78 -4.36 8.84 0.07 0.07 1.61 9355
0.05 -0.00 -0.96 -4.67 9.03 0.15 0.08 1.65 9362
0.05 -0.00 -1.16 -4.92 9.12 0.21 0.09 1.70 9368
0.05 -0.00 -1.36 -5.13 9.03 0.27 0.10 1.75 9374
0.05 -0.00 -1.63 -5.23 8.97 0.32 0.10 1.82 9380
0.05 -0.00 -1.91 -5.29 8.84 0.37 0.09 1.88 9387
0.05 -0.00 -2.16 -5.21 8.56 0.44 0.05 1.94 9393
0.04 -0.00 -2.23 -4.92 8.21 0.52 0.00 1.99 9399
0.04 -0.00 -2.12 -4.51 7.88 0.58 -0.06 2.07 9405
0.05 -0.00 -2.79 -4.04 8.41 0.65 -0.18 2.08 9411
0.05 -0.00 -16.04 -4.81 16.45 0.95 -1.63 2.28 9418
0.04 -0.00 -13.40 -2.35 10.49 1.02 -3.12 2.65 9424
0.05 -0.00 -7.08 -0.74 4.88 0.86 -4.03 2.94 9431
0.04 -0.00 -6.54 -3.30 6.70 0.73 -4.28 3.07 9437
0.04 0.00 -10.93 3.83 18.71 0.76 -4.28 3.08 9443
0.05 0.06 -28.45 2.81 31.20 1.52 -3.17 2.76 9450
0.03 0.16 -24.42 -1.89 21.27 0.23 -1.51 1.80 9456
0.03 0.34 -14.44 -2.51 12.21 -0.32 -0.22 0.73 9462
0.03 0.42 -4.89 -1.46 11.42 -0.21 -0.08 -0.09 9468
0.03 0.42 0.35 -0.45 10.31 -0.00 0.03 -0.19 9475
0.04 0.40 3.09 -0.18 10.54 0.09 -0.02 -0.01 9482
0.03 0.38 2.40 0.34 9.69 0.07 -0.03 0.19 9488
0.04 0.37 1.81 -0.40 9.95 0.08 -0.06 0.29 9494
0.05 0.38 0.55 -0.67 10.43 0.07 -0.09 0.28 9500
0.05 0.34 0.22 -1.37 9.98 0.05 -0.10 0.16 9506
0.05 0.33 0.78 -0.61 9.53 0.01 -0.08 0.14 9512
0.09 0.35 0.98 -1.30 9.93 -0.03 -0.06 0.16 9520
0.10 0.35 0.19 -1.55 10.06 -0.04 -0.04 0.14 9526
0.09 0.36 0.24 -1.04 9.92 -0.07 -0.03 0.09 9532
0.09 0.43 0.40 -0.81 9.82 -0.07 -0.01 0.08 9538
0.14 0.46 0.49 -0.93 9.97 -0.10 -0.01 0.08 9544
0.14 0.53 0.53 -0.86 10.12 -0.11 -0.02 0.07 9550
0.13 0.55 0.53 -0.74 10.15 -0.10 -0.03 0.07 9558
0.14 0.61 0.57 -0.72 10.18 -0.07 -0.02 0.06 9564
0.13 0.59 0.53 -0.70 10.06 -0.05 -0.02 0.06 9570
0.14 0.61 0.55 -0.78 9.94 -0.04 -0.00 0.06 9576
0.13 0.64 0.59 -0.79 10.04 -0.04 -0.01 0.07 9582
0.13 0.66 0.65 -0.80 10.03 -0.04 -0.01 0.07 9589
0.14 0.72 0.67 -0.80 10.07 -0.04 -0.01 0.07 9595
0.15 0.67 0.71 -0.78 10.11 -0.04 -0.01 0.07 9602
0.13 0.68 0.70 -0.80 10.06 -0.03 -0.02 0.07 9608
0.14 0.68 0.65 -0.74 9.97 -0.03 -0.02 0.06 9614
0.15 0.69 0.67 -0.74 10.06 -0.02 -0.02 0.06 9621
0.15 0.74 0.65 -0.72 10.03 -0.02 -0.02 0.06 9627
0.15 0.73 0.61 -0.74 10.04 -0.02 -0.03 0.06 9633
0.15 0.72 0.60 -0.81 10.00 -0.02 -0.03 0.06 9639
0.15 0.75 0.59 -0.76 9.96 -0.02 -0.03 0.05 9646
0.13 0.79 0.64 -0.73 9.98 -0.03 -0.03 0.05 9652
0.16 0.75 0.64 -0.74 9.99 -0.03 -0.02 0.05 9659
0.15 0.78 0.60 -0.69 10.04 -0.03 -0.02 0.04 9665
0.14 0.78 0.64 -0.73 10.04 -0.03 -0.02 0.04 9671
0.15 0.78 0.62 -0.71 10.03 -0.02 -0.02 0.04 9677
0.14 0.77 0.66 -0.70 10.03 -0.02 -0.02 0.04 9683
0.14 0.76 0.69 -0.71 10.03 -0.02 -0.02 0.04 9690
0.16 0.77 0.66 -0.70 10.03 -0.02 -0.02 0.04 9697
0.15 0.75 0.66 -0.70 10.00 -0.02 -0.02 0.04 9703
0.16 0.76 0.62 -0.74 9.97 -0.01 -0.02 0.04 9709
0.17 0.74 0.63 -0.71 10.00 -0.01 -0.02 0.04 9715
0.16 0.73 0.68 -0.69 9.97 -0.01 -0.02 0.04 9721
0.15 0.74 0.65 -0.72 9.99 -0.01 -0.02 0.05 9729
0.17 0.73 0.63 -0.70 10.02 -0.01 -0.02 0.04 9735
0.16 0.73 0.66 -0.73 10.01 -0.01 -0.01 0.04 9741
0.14 0.72 0.63 -0.73 9.92 -0.01 -0.02 0.04 9747
0.17 0.72 0.66 -0.71 10.00 -0.01 -0.01 0.04 9753
0.17 0.69 0.63 -0.72 9.99 -0.01 -0.01 0.04 9759
0.16 0.68 0.64 -0.75 9.91 -0.00 -0.01 0.04 9766
0.17 0.67 0.67 -0.72 9.99 -0.00 -0.01 0.04 9773
0.16 0.66 0.67 -0.73 9.94 -0.00 -0.01 0.04 9779
0.15 0.64 0.65 -0.68 9.98 -0.01 -0.01 0.04 9785
0.15 0.66 0.69 -0.72 9.96 -0.01 -0.02 0.04 9791
0.17 0.64 0.65 -0.71 9.96 -0.01 -0.02 0.04 9797
0.16 0.62 0.68 -0.69 9.99 -0.00 -0.02 0.04 9803
0.15 0.61 0.66 -0.71 9.96 -0.01 -0.02 0.03 9810
0.17 0.61 0.67 -0.71 9.97 -0.00 -0.02 0.04 9817
0.15 0.58 0.70 -0.71 10.01 -0.00 -0.02 0.04 9823
0.16 0.56 0.72 -0.69 10.03 -0.01 -0.03 0.04 9829
0.16 0.55 0.69 -0.71 10.01 -0.00 -0.03 0.03 9835
0.16 0.54 0.67 -0.70 9.96 -0.00 -0.03 0.04 9841
0.16 0.53 0.67 -0.71 9.97 -0.00 -0.03 0.03 9848
0.17 0.52 0.69 -0.74 9.98 -0.01 -0.03 0.04 9854
0.18 0.51 0.66 -0.73 10.01 -0.01 -0.04 0.04 9861
0.17 0.48 0.66 -0.71 9.97 -0.01 -0.04 0.03 9867
0.17 0.48 0.69 -0.72 9.99 -0.01 -0.03 0.03 9873
0.18 0.49 0.68 -0.73 10.02 -0.01 -0.03 0.03 9879
0.18 0.47 0.68 -0.71 10.01 -0.02 -0.07 0.03 9886
0.18 0.48 0.69 -0.74 10.02 -0.01 -0.04 0.04 9892
0.18 0.48 0.66 -0.69 10.01 -0.01 -0.03 0.03 9899
0.17 0.49 0.68 -0.72 9.98 -0.01 -0.03 0.03 9905
0.18 0.47 0.69 -0.72 10.00 -0.01 -0.03 0.03 9911
0.18 0.49 0.65 -0.70 10.01 -0.01 -0.03 0.03 9918
0.18 0.50 0.69 -0.72 9.98 -0.01 -0.03 0.03 9924
0.18 0.48 0.67 -0.74 9.96 -0.01 -0.03 0.03 9930
0.20 0.49 0.67 -0.72 9.97 -0.02 -0.03 0.03 9936
0.19 0.48 0.65 -0.68 10.00 -0.01 -0.03 0.03 9943
0.19 0.46 0.69 -0.70 10.00 -0.01 -0.07 0.03 9949
0.21 0.46 0.70 -0.69 9.99 -0.02 -0.03 0.03 9955
0.21 0.46 0.65 -0.71 10.01 -0.01 -0.03 0.02 9962
0.19 0.46 0.67 -0.72 9.98 -0.01 -0.03 0.03 9968
0.20 0.47 0.64 -0.70 9.98 -0.01 -0.03 0.02 9974
0.22 0.46 0.63 -0.73 9.98 -0.01 -0.04 0.03 9980
0.22 0.43 0.66 -0.71 9.96 -0.01 -0.04 0.03 9987
0.22 0.44 0.69 -0.75 10.01 -0.02 -0.03 0.02 9993
0.24 0.45 0.68 -0.69 9.99 -0.01 -0.04 0.03 10000
0.23 0.44 0.71 -0.73 10.02 -0.01 -0.03 0.02 10006
0.22 0.46 0.66 -0.73 10.01 -0.01 -0.03 0.03 10012
0.23 0.44 0.67 -0.72 10.02 -0.01 -0.03 0.03 10018
0.22 0.44 0.67 -0.74 10.00 -0.01 -0.03 0.03 10025
0.24 0.42 0.67 -0.73 10.01 -0.01 -0.03 0.03 10032
0.23 0.41 0.71 -0.70 10.01 -0.01 -0.04 0.03 10038
0.23 0.42 0.65 -0.70 10.00 -0.01 -0.00 0.03 10044
0.24 0.44 0.65 -0.73 10.05 -0.01 -0.04 0.03 10051
0.23 0.42 0.68 -0.70 9.98 -0.01 -0.04 0.03 10057
0.23 0.44 0.69 -0.72 9.99 -0.01 -0.04 0.03 10063
0.24 0.43 0.68 -0.71 9.99 -0.01 -0.04 0.03 10070
0.22 0.41 0.68 -0.69 9.97 -0.01 -0.04 0.03 10076
0.23 0.43 0.68 -0.69 9.98 -0.02 -0.04 0.03 10083
0.23 0.42 0.68 -0.68 9.98 -0.01 -0.04 0.03 10089
0.21 0.42 0.69 -0.68 10.02 -0.01 -0.04 0.03 10095
0.23 0.42 0.65 -0.70 9.95 -0.01 -0.04 0.03 10101
0.21 0.40 0.70 -0.72 10.01 -0.01 -0.04 0.03 10107
0.21 0.41 0.69 -0.69 9.95 -0.01 -0.05 0.02 10115
0.22 0.40 0.67 -0.69 9.98 -0.02 -0.05 0.03 10121
0.19 0.41 0.68 -0.78 9.98 -0.02 -0.05 0.02 10127
0.21 0.40 0.67 -0.69 9.98 -0.02 -0.05 0.03 10133
0.20 0.40 0.64 -0.71 10.03 -0.01 -0.05 0.03 10139
0.20 0.37 0.62 -0.71 9.98 -0.01 -0.05 0.02 10146
0.20 0.39 0.66 -0.71 9.98 -0.01 -0.04 0.02 10152
0.22 0.36 0.68 -0.76 9.94 -0.00 -0.04 0.02 10159
0.22 0.32 0.68 -0.69 9.99 -0.00 -0.04 0.02 10165
0.21 0.37 0.65 -0.72 9.94 0.00 -0.04 0.02 10171
0.25 0.32 0.70 -0.67 9.99 0.01 -0.04 0.02 10177
0.25 0.30 0.68 -0.71 9.98 0.01 -0.04 0.02 10184
0.23 0.28 0.70 -0.72 10.03 0.01 -0.04 0.02 10190
0.23 0.29 0.65 -0.71 10.01 0.01 -0.04 0.01 10196
0.26 0.25 0.70 -0.72 10.04 0.02 -0.04 0.02 10203
0.27 0.22 0.67 -0.68 10.02 0.03 -0.04 0.02 10210
0.30 0.17 0.68 -0.71 10.05 0.04 -0.03 0.02 10216
0.32 0.14 0.72 -0.73 10.04 0.04 -0.03 0.01 10222
0.35 0.13 0.69 -0.73 10.05 0.05 -0.03 0.01 10228
0.37 0.06 0.67 -0.74 10.16 0.06 -0.04 0.01 10235
0.41 0.04 0.74 -0.78 10.22 0.09 -0.04 -0.00 10242
0.43 0.01 0.73 -0.77 10.19 0.12 -0.04 -0.00 10248
0.43 -0.00 0.78 -0.77 10.37 0.16 -0.05 -0.02 10254
0.46 -0.01 0.86 -0.92 10.49 0.20 -0.06 -0.04 10261
0.46 -0.04 1.12 -0.68 10.48 0.26 -0.08 -0.07 10267
0.48 -0.02 1.45 -1.06 10.84 0.36 -0.11 -0.15 10273
0.54 -0.03 2.58 -1.43 11.16 0.52 -0.19 -0.29 10279
0.58 -0.03 4.33 -1.62 11.66 0.72 -0.31 -0.55 10287
0.58 -0.03 4.28 -2.34 13.26 1.05 -0.46 -0.84 10293
0.57 -0.04 4.59 -2.21 14.58 1.48 -0.68 -1.06 10299
0.56 -0.03 5.16 -2.90 14.64 1.78 -0.96 -1.29 10305
0.59 -0.04 5.23 -2.86 12.95 1.89 -1.09 -1.55 10312
0.61 -0.02 5.74 -2.92 12.77 1.91 -1.16 -1.81 10318
0.59 -0.03 5.45 -3.14 12.38 1.94 -1.23 -2.06 10324
0.52 -0.03 6.26 -3.83 12.17 1.99 -1.29 -2.27 10332
0.48 -0.03 6.80 -4.22 11.66 1.99 -1.28 -2.50 10338
0.29 -0.02 6.77 -4.08 11.02 1.96 -1.19 -2.72 10344
0.25 -0.02 7.51 -4.37 10.89 1.86 -1.01 -2.97 10350
0.22 -0.02 7.07 -3.67 10.37 1.67 -0.83 -3.24 10357
0.17 -0.00 8.71 -3.89 10.94 1.51 -0.63 -3.47 10363
0.15 -0.01 10.11 -2.54 10.10 1.37 -0.35 -3.70 10370
0.09 -0.00 9.33 -2.05 9.87 1.22 -0.00 -3.96 10376
0.10 -0.01 7.80 -2.01 10.56 1.07 0.18 -4.16 10383
0.11 -0.01 7.28 -0.62 11.28 0.86 0.26 -4.28 10389
0.09 0.00 6.33 0.46 11.74 0.63 0.22 -4.28 10395
0.08 -0.01 6.25 1.34 11.60 0.34 -0.03 -4.28 10401
0.06 -0.01 5.92 3.02 10.44 0.03 -0.49 -4.28 10408
0.06 -0.01 5.39 4.06 8.77 -0.28 -0.86 -4.28 10415
0.05 -0.00 6.78 5.62 6.97 -0.56 -1.21 -4.28 10421
0.06 -0.01 8.88 5.09 6.44 -0.76 -1.28 -4.27 10427
0.05 -0.01 9.08 2.43 6.96 -0.86 -1.02 -3.73 10433
0.04 -0.00 9.71 0.65 9.78 -0.94 -0.34 -3.08 10439
0.05 -0.00 11.66 0.54 9.81 -1.00 0.23 -2.47 10446
0.05 -0.01 11.45 0.92 8.15 -0.96 0.52 -1.99 10452
0.05 -0.01 10.44 0.65 6.48 -0.86 0.68 -1.59 10459
0.04 -0.00 9.53 0.15 5.77 -0.72 0.89 -1.21 10465
0.05 0.00 9.05 -0.28 6.54 -0.58 1.14 -0.85 10471
0.05 -0.01 8.75 -0.73 7.74 -0.39 1.41 -0.54 10477
0.05 -0.01 8.44 -1.01 8.70 -0.22 1.65 -0.27 10484
0.05 -0.00 7.45 -1.04 9.36 -0.12 1.90 -0.05 10490
0.05 -0.01 6.14 -0.91 9.85 -0.08 2.08 0.10 10497
0.05 -0.00 4.82 -0.78 10.33 -0.09 2.14 0.26 10503
0.04 -0.00 3.41 -0.70 10.95 -0.13 2.10 0.42 10509
0.05 -0.01 2.17 -0.74 11.35 -0.19 2.00 0.55 10516
0.05 -0.00 1.19 -0.88 11.63 -0.25 1.84 0.67 10522
0.05 -0.00 0.66 -0.86 11.84 -0.33 1.68 0.76 10528
0.06 -0.01 0.32 -0.92 11.95 -0.43 1.55 0.80 10534
0.05 -0.01 0.03 -1.04 12.04 -0.52 1.49 0.79 10541
0.05 -0.01 -0.15 -1.10 12.09 -0.57 1.49 0.74 10548
0.06 -0.01 -0.35 -1.28 11.94 -0.66 1.50 0.66 10554
0.05 -0.00 -0.67 -1.53 11.39 -0.72 1.51 0.56 10560
0.05 -0.00 -1.07 -1.75 10.86 -0.74 1.53 0.46 10566
0.05 -0.01 -1.29 -2.03 10.41 -0.72 1.56 0.34 10572
0.04 -0.00 -1.40 -3.03 10.15 -0.66 1.59 0.21 10579
0.05 -0.00 -1.30 -2.71 10.28 -0.56 1.60 0.14 10586
0.04 -0.00 -1.08 -2.84 10.62 -0.45 1.61 0.05 10592
0.04 -0.00 -1.09 -2.89 10.59 -0.35 1.63 0.01 10598
0.05 0.00 -1.18 -2.85 10.61 -0.27 1.61 0.00 10604
0.05 -0.01 -1.12 -2.77 10.75 -0.20 1.53 0.04 10611
0.05 -0.00 -0.91 -2.61 11.00 -0.14 1.41 0.15 10617
0.07 -0.01 -0.41 -2.29 11.43 -0.08 1.28 0.31 10624
0.05 -0.00 0.08 -2.06 11.75 -0.06 1.19 0.53 10630
0.05 -0.00 0.55 -1.86 11.86 -0.10 1.11 0.78 10636
0.06 -0.01 0.79 -1.73 11.97 -0.13 1.06 1.03 10643
0.05 -0.00 0.66 -1.78 11.97 -0.13 1.03 1.27 10649
0.05 -0.00 0.16 -2.12 11.62 -0.17 1.03 1.48 10655
0.05 -0.00 -0.46 -2.59 11.07 -0.17 1.01 1.65 10661
0.05 -0.01 -1.10 -2.95 10.75 -0.14 0.95 1.78 10668
0.04 0.00 -1.55 -3.10 10.51 -0.08 0.87 1.87 10675
0.05 -0.00 -1.75 -3.09 10.33 -0.01 0.80 1.92 10681
0.04 -0.00 -1.84 -2.87 10.19 0.04 0.74 2.00 10687
0.05 -0.00 -1.97 -2.66 10.09 0.07 0.70 2.01 10693
0.05 -0.01 -2.08 -2.44 9.95 0.09 0.64 2.05 10699
0.04 -0.00 -2.21 -2.47 9.88 0.11 0.57 2.08 10706
0.05 0.00 -2.15 -2.53 9.69 0.14 0.47 2.10 10713
0.04 -0.00 -2.05 -2.75 9.44 0.19 0.38 2.09 10719
0.05 -0.00 -1.88 -3.02 9.64 0.24 0.32 2.06 10725
0.05 -0.00 -1.54 -3.25 9.82 0.29 0.30 2.02 10731
0.06 -0.01 -1.34 -3.28 10.15 0.31 0.29 1.97 10737
0.04 -0.00 -1.23 -3.22 10.40 0.29 0.28 1.94 10744
0.05 -0.00 -1.25 -3.13 10.38 0.25 0.26 1.92 10750
0.05 -0.01 -1.35 -3.03 10.06 0.19 0.19 1.93 10757
0.04 -0.00 -1.42 -3.01 9.78 0.12 0.10 1.95 10763
0.04 -0.00 -1.46 -3.19 9.42 0.07 -0.01 1.99 10769
0.05 -0.01 -1.37 -3.37 8.88 0.05 -0.10 2.02 10775
0.04 -0.00 -1.28 -3.64 8.26 0.06 -0.17 2.05 10782
0.04 -0.00 -1.24 -3.90 7.71 0.12 -0.18 2.07 10788
0.05 -0.01 -1.18 -4.23 7.44 0.19 -0.14 2.08 10795
0.04 -0.00 -1.24 -4.48 7.43 0.29 -0.09 2.08 10801
0.03 -0.00 -1.40 -4.66 7.23 0.40 -0.01 2.09 10807
0.04 -0.00 -1.84 -4.78 6.93 0.49 0.07 2.11 10813
0.05 -0.00 -2.28 -4.71 6.88 0.60 0.13 2.15 10819
0.04 -0.00 -2.68 -4.40 6.97 0.69 0.14 2.22 10826
0.04 -0.00 -9.32 -6.73 11.73 0.90 -0.38 2.33 10832
0.05 -0.01 -21.79 -6.64 18.24 1.44 -3.55 2.71 10839
0.04 -0.00 -13.89 -2.00 3.46 1.10 -4.27 2.99 10845
0.04 0.00 -12.10 -4.77 3.28 0.77 -4.28 3.10 10852
0.05 0.00 -14.91 -10.31 9.39 0.50 -4.28 3.00 10858
0.05 0.08 -14.65 11.73 62.86 1.23 -4.18 2.46 10864
0.04 0.22 -24.05 -10.82 24.02 0.11 -2.11 1.71 10871
0.02 0.45 -13.23 -1.87 16.31 -0.25 -0.47 0.57 10877
0.02 0.56 -5.05 0.39 12.31 -0.22 -0.22 -0.14 10884
0.02 0.62 0.82 0.58 10.34 -0.05 -0.12 -0.17 10890
0.03 0.57 3.86 0.08 9.67 0.09 -0.13 0.05 10897
0.02 0.52 2.57 0.25 9.57 0.16 -0.09 0.29 10903
0.04 0.47 0.76 -1.65 10.61 0.13 -0.12 0.34 10909
0.04 0.45 0.49 -0.16 9.96 0.08 -0.16 0.23 10915
0.04 0.47 0.53 -0.65 9.15 0.05 -0.14 0.19 10921
0.05 0.48 0.57 -1.01 9.90 0.01 -0.09 0.19 10929
0.08 0.48 0.10 -1.64 9.85 -0.04 -0.07 0.14 10935
0.06 0.52 0.38 -1.02 9.72 -0.06 -0.05 0.09 10941
0.06 0.58 0.46 -0.96 9.96 -0.09 -0.06 0.07 10947
0.09 0.62 0.36 -0.81 10.25 -0.10 -0.10 0.07 10953
0.09 0.62 0.39 -0.58 10.11 -0.09 -0.05 0.06 10960
0.10 0.68 0.00 -0.55 10.13 -0.06 -0.02 0.06 10967
0.12 0.68 0.17 0.59 9.91 -0.05 -0.02 0.08 10973
0.12 0.68 0.67 -0.78 10.17 -0.04 -0.02 0.06 10979
0.14 0.72 0.68 -0.83 9.97 -0.04 -0.02 0.06 10986
0.15 0.69 0.64 -0.81 10.13 -0.04 -0.02 0.06 10992
0.15 0.72 0.70 -0.81 10.02 -0.05 -0.02 0.06 10998
0.16 0.67 0.73 -0.82 10.11 -0.05 -0.02 0.06 11004
0.14 0.71 0.69 -0.74 10.08 -0.04 -0.02 0.05 11012
0.17 0.72 0.73 -0.68 10.03 -0.03 -0.02 0.05 11018
0.17 0.71 0.67 -0.72 10.10 -0.02 -0.02 0.05 11024
0.18 0.67 0.63 -0.72 10.04 -0.02 -0.02 0.05 11030
0.18 0.67 0.69 -0.74 10.01 -0.02 -0.02 0.05 11037
0.18 0.67 0.67 -0.75 10.00 -0.02 -0.02 0.05 11043
0.20 0.67 0.67 -0.71 9.93 -0.01 -0.03 0.05 11049
0.21 0.65 0.71 -0.72 10.09 -0.02 -0.03 0.05 11056
0.21 0.65 0.70 -0.73 10.03 -0.01 -0.03 0.05 11062
0.22 0.65 0.67 -0.72 10.05 -0.01 -0.03 0.05 11069
0.21 0.63 0.71 -0.69 10.01 -0.01 -0.03 0.05 11075
0.21 0.64 0.74 -0.71 10.01 -0.01 -0.03 0.05 11081
0.21 0.60 0.72 -0.69 10.11 -0.01 -0.03 0.05 11087
0.20 0.57 0.73 -0.72 10.07 -0.01 -0.03 0.05 11095
0.21 0.57 0.73 -0.67 10.00 -0.01 -0.03 0.05 11101
0.21 0.56 0.69 -0.70 9.99 -0.01 -0.03 0.05 11107
0.21 0.57 0.69 -0.70 9.98 -0.00 -0.04 0.05 11113
0.22 0.57 0.69 -0.65 9.99 -0.00 -0.03 0.05 11119
0.21 0.56 0.67 -0.69 9.99 -0.00 -0.03 0.05 11126
0.22 0.55 0.71 -0.65 10.02 -0.00 -0.04 0.05 11132
0.23 0.56 0.72 -0.67 9.98 0.00 -0.03 0.05 11139
0.21 0.52 0.69 -0.68 9.97 -0.00 -0.04 0.05 11145
0.21 0.51 0.66 -0.69 10.00 -0.00 -0.04 0.05 11152
0.21 0.47 0.73 -0.68 9.97 -0.00 -0.04 0.05 11158
0.19 0.46 0.73 -0.69 9.97 -0.01 -0.04 0.05 11164
0.21 0.46 0.69 -0.69 9.97 -0.01 -0.04 0.04 11170
0.21 0.46 0.73 -0.70 9.98 -0.01 -0.04 0.04 11176
0.20 0.45 0.71 -0.70 9.98 -0.01 -0.04 0.05 11184
0.22 0.44 0.71 -0.69 9.99 -0.01 -0.04 0.04 11190
0.21 0.41 0.73 -0.70 10.00 -0.01 -0.04 0.04 11196
0.21 0.42 0.69 -0.68 9.98 -0.01 -0.04 0.05 11202
0.22 0.43 0.67 -0.71 9.99 -0.01 -0.05 0.04 11208
0.21 0.42 0.69 -0.68 9.98 -0.01 -0.04 0.04 11215
0.21 0.42 0.69 -0.67 9.96 -0.01 -0.04 0.04 11222
0.22 0.42 0.69 -0.71 9.94 -0.01 -0.04 0.05 11228
0.22 0.37 0.70 -0.70 9.97 -0.01 -0.04 0.04 11234
0.21 0.39 0.70 -0.72 9.97 -0.01 -0.04 0.05 11240
0.22 0.40 0.69 -0.68 10.00 -0.01 -0.04 0.04 11247
0.21 0.41 0.66 -0.70 9.97 -0.01 -0.05 0.04 11253
0.22 0.44 0.68 -0.70 10.03 -0.01 -0.04 0.04 11259
0.23 0.42 0.70 -0.70 10.02 -0.01 -0.04 0.04 11266
0.22 0.41 0.68 -0.68 9.98 -0.02 -0.04 0.04 11272
0.25 0.42 0.68 -0.66 9.99 -0.02 -0.04 0.04 11279
0.25 0.42 0.72 -0.66 9.99 -0.01 -0.04 0.04 11285
0.24 0.43 0.72 -0.70 9.99 -0.02 -0.04 0.04 11291
0.26 0.44 0.70 -0.68 9.99 -0.01 -0.04 0.04 11297
0.24 0.44 0.68 -0.71 10.04 -0.02 -0.04 0.04 11303
0.23 0.44 0.66 -0.67 10.06 -0.02 -0.03 0.04 11311
0.24 0.44 0.68 -0.66 9.99 -0.01 -0.03 0.04 11317
0.24 0.43 0.66 -0.70 10.03 -0.01 -0.03 0.04 11323
0.24 0.45 0.64 -0.68 9.95 -0.02 -0.03 0.04 11329
0.23 0.45 0.66 -0.67 9.98 -0.02 -0.03 0.04 11336
0.22 0.45 0.63 -0.71 9.96 -0.02 -0.03 0.04 11342
0.23 0.46 0.67 -0.69 10.02 -0.02 -0.03 0.04 11348
0.22 0.46 0.67 -0.67 9.99 -0.02 -0.03 0.04 11355
0.21 0.47 0.66 -0.73 9.97 -0.02 -0.03 0.04 11361
0.23 0.49 0.64 -0.66 9.99 -0.02 -0.02 0.04 11368
0.21 0.48 0.69 -0.68 10.00 -0.02 -0.02 0.03 11374
0.20 0.49 0.65 -0.65 9.98 -0.02 -0.03 0.00 11380
0.21 0.50 0.71 -0.69 9.96 -0.01 -0.03 0.03 11386
0.22 0.49 0.71 -0.69 9.99 -0.01 -0.03 0.03 11393
0.21 0.49 0.75 -0.64 9.98 -0.01 -0.03 0.03 11400
0.22 0.49 0.68 -0.69 10.03 -0.01 -0.03 0.03 11406
0.21 0.48 0.71 -0.69 10.00 -0.01 -0.03 0.03 11412
0.21 0.48 0.69 -0.67 10.00 -0.02 -0.03 0.03 11418
0.21 0.49 0.70 -0.68 10.01 -0.01 -0.03 0.03 11425
0.21 0.49 0.71 -0.67 9.96 -0.01 -0.02 0.04 11431
0.22 0.50 0.68 -0.68 9.98 -0.01 -0.03 0.04 11438
0.22 0.50 0.67 -0.67 10.02 -0.01 -0.02 0.03 11444
0.20 0.50 0.72 -0.65 10.01 -0.01 -0.02 0.04 11450
0.21 0.50 0.71 -0.67 10.00 -0.01 -0.02 0.04 11457
0.19 0.47 0.69 -0.67 9.96 -0.01 -0.03 0.04 11463
0.20 0.50 0.72 -0.70 10.00 -0.01 -0.02 0.04 11469
0.21 0.50 0.68 -0.66 9.99 -0.01 -0.02 0.04 11475
0.20 0.48 0.65 -0.69 10.01 -0.01 -0.03 0.04 11482
0.21 0.51 0.67 -0.66 9.96 -0.01 -0.03 0.03 11489
0.21 0.50 0.67 -0.65 10.01 -0.01 -0.03 0.04 11495
0.20 0.50 0.68 -0.68 10.01 -0.01 -0.03 0.00 11501
0.21 0.51 0.72 -0.66 9.97 -0.00 -0.03 0.04 11507
0.20 0.50 0.66 -0.68 9.95 -0.00 -0.03 0.04 11514
0.19 0.49 0.72 -0.68 9.98 -0.00 -0.03 0.03 11521
0.21 0.49 0.69 -0.65 10.00 -0.00 -0.03 0.04 11527
0.20 0.48 0.70 -0.64 9.98 -0.00 -0.04 0.03 11533
0.20 0.48 0.70 -0.65 9.99 -0.00 -0.04 0.03 11539
0.22 0.47 0.69 -0.68 10.02 -0.00 -0.04 0.03 11546
0.22 0.44 0.70 -0.65 9.96 -0.00 -0.04 0.03 11552
0.22 0.44 0.68 -0.67 10.00 -0.00 -0.03 0.02 11558
0.23 0.44 0.70 -0.64 10.01 0.01 -0.04 0.03 11565
0.23 0.40 0.71 -0.64 9.96 0.01 -0.03 0.03 11571
0.23 0.40 0.68 -0.70 10.06 0.01 -0.04 0.03 11578
0.25 0.32 0.71 -0.69 10.01 0.01 -0.04 0.02 11584
0.25 0.33 0.75 -0.71 10.03 0.02 -0.04 0.02 11590
0.24 0.31 0.75 -0.72 9.92 0.03 -0.04 0.02 11596
0.23 0.23 0.72 -0.68 10.03 0.03 -0.04 0.01 11603
0.24 0.21 0.70 -0.71 10.03 0.04 -0.04 0.01 11610
0.27 0.20 0.69 -0.68 10.10 0.05 -0.03 -0.00 11616
0.26 0.18 0.76 -0.71 10.16 0.07 -0.04 -0.00 11622
0.30 0.12 0.76 -0.69 10.12 0.09 -0.03 -0.01 11628
0.32 0.07 0.83 -0.74 10.20 0.12 -0.04 -0.02 11635
0.33 0.03 0.80 -0.71 10.23 0.15 -0.05 -0.02 11641
0.36 -0.01 0.94 -0.91 10.51 0.18 -0.06 -0.03 11648
0.36 -0.00 1.19 -1.09 10.62 0.24 -0.08 -0.07 11654
0.41 -0.01 1.82 -0.75 11.02 0.35 -0.13 -0.16 11661
0.42 -0.04 2.57 -1.61 11.52 0.52 -0.23 -0.31 11667
0.44 -0.03 5.79 -2.08 12.84 0.75 -0.39 -0.60 11673
0.49 -0.04 8.45 -2.14 13.99 1.06 -0.49 -1.11 11680
0.45 -0.03 7.27 -1.77 11.01 1.42 -0.65 -1.59 11686
0.49 -0.03 6.54 -2.63 14.57 1.79 -0.81 -1.97 11693
0.42 -0.04 6.75 -3.43 13.08 1.93 -1.09 -2.25 11699
0.38 -0.01 8.77 -4.15 12.71 1.94 -1.07 -2.59 11706
0.32 -0.02 10.28 -8.73 13.24 1.96 -1.00 -3.04 11712
0.23 -0.01 9.23 -4.87 10.04 1.91 -0.75 -3.43 11718
0.20 -0.02 9.10 -4.71 10.53 1.83 -0.53 -3.68 11724
0.19 -0.01 9.23 -2.82 10.98 1.69 -0.30 -4.01 11731
0.15 -0.01 9.73 -2.80 10.00 1.46 0.03 -4.27 11738
0.08 -0.01 10.39 -1.37 10.64 1.24 0.35 -4.28 11744
0.09 0.00 9.92 -0.61 11.62 1.00 0.54 -4.28 11751
0.09 -0.01 9.81 1.04 12.73 0.75 0.56 -4.28 11757
0.06 -0.01 8.44 0.77 11.77 0.50 0.43 -4.28 11763
0.08 -0.01 7.77 1.72 11.20 0.22 0.10 -4.28 11769
0.04 -0.00 6.81 2.60 10.03 -0.07 -0.30 -4.28 11776
0.05 -0.00 6.59 3.55 8.58 -0.39 -0.69 -4.28 11783
0.06 -0.01 8.83 4.58 7.37 -0.67 -0.94 -4.28 11789
0.04 -0.00 8.54 2.52 7.29 -0.88 -0.81 -3.78 11795
0.03 -0.00 8.66 1.51 9.34 -0.98 -0.19 -3.11 11801
0.04 -0.00 10.18 1.20 9.45 -1.13 0.29 -2.54 11807
0.04 -0.00 10.40 0.89 7.38 -1.14 0.38 -2.09 11813
0.04 -0.00 9.46 0.41 5.77 -1.04 0.33 -1.74 11821
0.05 0.00 8.62 0.12 5.08 -0.86 0.37 -1.43 11827
0.04 -0.00 8.40 0.00 6.01 -0.62 0.55 -1.16 11833
0.04 -0.00 8.55 -0.16 6.56 -0.36 0.85 -0.87 11839
0.04 -0.00 8.52 -0.21 7.53 -0.14 1.20 -0.62 11845
0.05 -0.01 8.14 0.06 8.27 -0.01 1.52 -0.40 11851
0.04 -0.00 7.02 0.29 8.73 0.05 1.76 -0.20 11857
0.04 -0.00 5.89 0.42 9.35 0.06 1.89 -0.02 11865
0.04 0.00 4.50 0.47 10.06 0.05 1.93 0.13 11871
0.04 -0.00 3.65 0.33 10.80 0.02 1.88 0.24 11877
0.03 -0.00 3.01 0.36 11.12 -0.02 1.77 0.35 11883
0.05 -0.01 2.55 0.45 11.32 -0.09 1.67 0.42 11889
0.05 -0.01 2.18 0.57 11.33 -0.18 1.62 0.46 11895
0.03 -0.00 1.90 0.67 11.48 -0.27 1.61 0.47 11902
0.05 -0.01 1.54 0.62 11.52 -0.37 1.63 0.45 11909
0.05 -0.00 1.27 0.53 11.52 -0.47 1.64 0.40 11915
0.04 -0.00 0.96 0.48 11.50 -0.55 1.61 0.33 11921
0.05 -0.01 0.62 0.41 11.41 -0.63 1.59 0.24 11927
0.05 -0.00 0.22 0.07 11.07 -0.64 1.60 0.14 11934
0.04 -0.00 -0.27 -0.37 10.66 -0.64 1.64 0.02 11940
0.06 -0.01 -1.22 -0.79 10.62 -0.60 1.68 -0.09 11947
0.05 -0.01 -0.96 -0.91 11.01 -0.53 1.70 -0.18 11953
0.05 -0.00 -1.35 -1.02 11.30 -0.45 1.68 -0.24 11959
0.06 -0.01 -1.67 -1.02 11.57 -0.37 1.62 -0.24 11966
0.03 -0.00 -1.94 -0.79 11.58 -0.33 1.50 -0.19 11972
0.05 -0.00 -2.02 -0.51 11.04 -0.29 1.35 -0.08 11978
0.06 -0.01 -1.87 -0.37 11.68 -0.27 1.16 0.08 11984
0.05 -0.00 -1.43 -0.24 11.75 -0.27 0.97 0.27 11991
0.05 -0.01 -0.72 -0.13 11.72 -0.27 0.81 0.50 11998
0.05 -0.00 -0.07 -0.11 11.66 -0.29 0.69 0.73 12004
0.05 -0.00 0.35 -0.22 11.52 -0.31 0.63 0.96 12010
0.05 -0.00 0.75 -0.39 11.30 -0.33 0.60 1.17 12016
0.05 -0.01 0.73 -0.78 11.09 -0.34 0.60 1.36 12022
0.04 -0.00 0.45 -1.13 10.77 -0.33 0.59 1.51 12029
0.05 -0.00 0.07 -1.46 10.33 -0.30 0.59 1.64 12036
0.05 -0.01 -0.27 -1.71 10.00 -0.26 0.63 1.73 12042
0.04 -0.00 -0.78 -1.92 9.80 -0.20 0.64 1.81 12048
0.05 0.00 -1.32 -2.11 9.79 -0.13 0.67 1.85 12054
0.05 -0.00 -1.76 -2.33 9.90 -0.08 0.68 1.87 12061
0.05 -0.00 -2.13 -2.48 9.96 -0.02 0.65 1.89 12067
0.05 -0.00 -2.52 -2.71 9.93 0.02 0.58 1.89 12073
0.05 -0.01 -2.66 -3.14 9.84 0.06 0.47 1.88 12080
0.04 -0.00 -2.28 -3.55 9.84 0.10 0.33 1.87 12086
0.04 -0.00 -1.86 -4.03 9.88 0.13 0.17 1.86 12092
0.05 -0.01 -1.19 -4.53 9.80 0.17 0.04 1.86 12098
0.04 -0.00 -0.58 -5.06 9.69 0.20 -0.01 1.90 12105
0.04 -0.00 0.02 -5.40 9.38 0.25 -0.05 2.00 12111
0.05 0.00 0.55 -5.87 9.27 0.30 -0.07 2.08 12118
0.05 -0.00 0.75 -6.11 9.11 0.37 -0.10 2.22 12124
0.04 -0.00 0.86 -6.38 8.96 0.45 -0.11 2.40 12130
0.04 -0.00 0.65 -6.57 8.67 0.54 -0.15 2.57 12136
0.06 -0.01 0.11 -6.67 8.43 0.61 -0.23 2.74 12142
0.04 -0.00 -0.39 -6.51 8.21 0.69 -0.31 2.88 12149
0.04 -0.00 -3.11 -7.29 8.70 0.80 -0.52 2.99 12155
0.05 -0.01 -7.87 -6.69 11.03 1.04 -1.30 3.15 12162
0.04 -0.00 -7.12 -4.68 7.36 1.13 -1.98 3.26 12168
0.04 -0.00 -6.52 -3.70 6.34 1.19 -2.45 3.31 12174
0.04 -0.00 -8.31 -4.46 6.85 1.23 -2.99 3.37 12180
0.04 -0.00 -9.49 -4.50 7.42 1.25 -3.64 3.39 12187
0.03 -0.00 -11.95 -4.71 6.08 1.20 -4.12 3.37 12193
0.05 0.01 -15.93 -6.88 7.13 1.21 -4.28 3.30 12199
0.04 0.09 -18.68 5.82 33.45 1.75 -4.12 2.90 12206
0.03 0.26 -32.57 -11.71 35.14 0.64 -2.66 1.98 12213
0.02 0.45 -11.76 -3.83 14.56 -0.23 -0.29 0.68 12219
0.03 0.54 -5.43 -0.95 12.03 -0.24 -0.22 -0.12 12225
0.02 0.57 1.22 0.36 8.76 -0.11 -0.11 -0.21 12232
0.02 0.52 3.38 0.07 9.59 0.02 -0.08 0.06 12238
0.03 0.58 2.71 0.09 9.36 0.10 -0.03 0.30 12244
0.04 0.53 0.21 -0.44 10.74 0.08 -0.08 0.31 12251
0.03 0.57 0.42 -0.86 10.14 0.04 -0.14 0.18 12257
0.05 0.56 1.48 -0.67 9.64 0.03 -0.14 0.16 12264
0.05 0.54 0.72 -1.39 9.51 -0.02 -0.12 0.17 12270
0.06 0.57 0.16 -1.50 9.94 -0.06 -0.10 0.14 12276
0.08 0.61 0.33 -1.09 9.96 -0.08 -0.08 0.10 12282
0.10 0.63 0.54 -0.99 10.21 -0.10 -0.09 0.09 12290
0.11 0.69 0.47 -0.85 10.14 -0.11 -0.10 0.08 12296
0.10 0.73 0.40 -0.70 10.32 -0.09 -0.07 0.07 12302
0.09 0.74 0.48 -0.67 10.14 -0.06 -0.06 0.08 12308
0.11 0.79 0.64 -0.79 10.10 -0.05 -0.04 0.07 12315
0.11 0.80 0.70 -0.41 9.81 -0.05 -0.02 0.07 12321
0.13 0.80 0.70 -0.84 9.90 -0.04 -0.04 0.07 12327
0.14 0.82 0.68 -0.78 9.94 -0.05 -0.04 0.06 12334
0.14 0.81 0.68 -0.79 10.11 -0.05 -0.03 0.06 12340
0.14 0.83 0.67 -0.78 9.97 -0.05 -0.03 0.05 12347
0.14 0.81 0.77 -0.82 10.05 -0.04 -0.03 0.06 12353
0.13 0.81 0.69 -0.77 9.99 -0.03 -0.03 0.05 12359
0.15 0.78 0.69 -0.74 10.02 -0.03 -0.03 0.05 12365
0.16 0.76 0.68 -0.75 10.04 -0.02 -0.03 0.05 12372
0.16 0.75 0.66 -0.78 9.98 -0.02 -0.03 0.05 12379
0.18 0.75 0.69 -0.77 10.04 -0.02 -0.03 0.05 12385
0.17 0.72 0.71 -0.79 10.02 -0.02 -0.03 0.05 12391
0.17 0.72 0.60 -0.69 9.93 -0.02 -0.03 0.05 12397
0.17 0.71 0.73 -0.73 10.00 -0.02 -0.03 0.05 12404
0.17 0.67 0.73 -0.76 10.01 -0.01 -0.03 0.05 12410
0.18 0.67 0.72 -0.73 10.02 -0.01 -0.03 0.04 12417
0.16 0.63 0.72 -0.74 9.97 -0.01 -0.03 0.04 12423
0.17 0.62 0.71 -0.75 10.01 -0.01 -0.03 0.04 12430
0.18 0.61 0.70 -0.75 9.99 -0.02 -0.04 0.04 12436
0.16 0.62 0.72 -0.74 9.99 -0.01 -0.04 0.04 12442
0.17 0.64 0.68 -0.73 9.99 -0.01 -0.05 0.04 12448
0.17 0.63 0.68 -0.75 9.99 -0.01 -0.04 0.04 12454
0.18 0.64 0.72 -0.73 9.94 -0.01 -0.04 0.04 12462
0.18 0.65 0.70 -0.74 9.99 -0.01 -0.04 0.04 12468
0.18 0.62 0.68 -0.73 10.04 -0.01 -0.05 0.04 12474
0.17 0.59 0.71 -0.73 9.92 -0.01 -0.05 0.05 12480
0.20 0.57 0.71 -0.73 9.99 -0.01 -0.04 0.04 12486
0.19 0.55 0.70 -0.73 9.99 -0.01 -0.04 0.04 12493
0.17 0.53 0.70 -0.75 9.98 -0.01 -0.04 0.04 12499
0.20 0.52 0.67 -0.71 10.03 -0.00 -0.05 0.05 12506
0.19 0.48 0.71 -0.73 9.99 -0.01 -0.05 0.04 12512
0.19 0.50 0.70 -0.72 9.97 -0.01 -0.05 0.04 12518
0.23 0.49 0.70 -0.76 9.98 -0.01 -0.05 0.04 12525
0.22 0.47 0.71 -0.76 9.98 -0.01 -0.05 0.04 12531
0.23 0.48 0.75 -0.73 9.94 -0.01 -0.05 0.04 12537
0.25 0.47 0.69 -0.74 10.00 -0.01 -0.05 0.04 12544
0.25 0.46 0.68 -0.70 9.93 -0.01 -0.05 0.04 12550
0.25 0.47 0.61 -0.80 9.87 -0.01 -0.05 0.04 12557
0.27 0.47 0.70 -0.77 9.99 -0.01 -0.05 0.04 12563
0.28 0.46 0.64 -0.70 10.00 -0.02 -0.05 0.03 12569
0.28 0.49 0.69 -0.77 9.98 -0.01 -0.05 0.04 12575
0.28 0.49 0.68 -0.70 10.06 -0.01 -0.05 0.04 12581
0.28 0.48 0.65 -0.72 9.96 -0.02 -0.05 0.04 12589
0.29 0.49 0.67 -0.73 9.97 -0.02 -0.05 0.04 12595
0.31 0.48 0.70 -0.74 9.99 -0.01 -0.04 0.04 12601
0.30 0.48 0.69 -0.74 9.99 -0.01 -0.04 0.04 12607
0.32 0.48 0.68 -0.80 9.99 -0.02 -0.04 0.04 12613
0.32 0.46 0.66 -0.76 9.97 -0.02 -0.04 0.04 12620
0.31 0.46 0.64 -0.72 9.96 -0.02 -0.04 0.04 12626
0.32 0.49 0.71 -0.71 9.98 -0.02 -0.04 0.04 12633
0.31 0.48 0.65 -0.73 9.99 -0.02 -0.04 0.04 12639
0.29 0.49 0.68 -0.70 10.00 -0.02 -0.04 0.04 12645
0.32 0.48 0.68 -0.73 9.97 -0.02 -0.05 0.04 12652
0.30 0.47 0.69 -0.75 10.00 -0.02 -0.05 0.04 12658
0.29 0.49 0.65 -0.76 9.96 -0.02 -0.05 0.04 12664
0.30 0.51 0.65 -0.71 10.00 -0.02 -0.05 0.04 12670
0.29 0.52 0.66 -0.70 10.01 -0.02 -0.05 0.04 12678
0.29 0.55 0.70 -0.69 10.03 -0.02 -0.05 0.03 12684
0.29 0.52 0.67 -0.71 9.96 -0.02 -0.05 0.03 12690
0.29 0.53 0.66 -0.71 10.00 -0.01 -0.04 0.03 12696
0.29 0.54 0.65 -0.70 9.98 -0.02 -0.04 0.03 12702
0.28 0.53 0.63 -0.70 10.00 -0.01 -0.04 0.03 12709
0.28 0.53 0.67 -0.69 9.97 -0.02 -0.04 0.03 12716
0.29 0.53 0.65 -0.71 9.97 -0.02 -0.04 0.03 12722
0.28 0.53 0.64 -0.72 10.03 -0.02 -0.04 0.03 12728
0.28 0.55 0.65 -0.70 10.00 -0.02 -0.04 0.03 12735
0.29 0.55 0.69 -0.74 10.00 -0.02 -0.04 0.03 12741
0.27 0.54 0.70 -0.71 9.98 -0.01 -0.04 0.03 12747
0.28 0.57 0.66 -0.70 10.02 -0.01 -0.04 0.03 12753
0.26 0.55 0.67 -0.73 9.98 -0.01 -0.04 0.03 12760
0.28 0.56 0.63 -0.73 10.01 -0.01 -0.04 0.03 12767
0.29 0.57 0.67 -0.69 10.00 -0.01 -0.04 0.03 12773
0.27 0.54 0.70 -0.74 9.99 -0.01 -0.04 0.03 12779
0.26 0.56 0.67 -0.69 9.97 -0.01 -0.05 0.03 12785
0.26 0.56 0.66 -0.72 10.00 -0.02 -0.04 0.03 12791
0.26 0.58 0.65 -0.75 9.96 -0.01 -0.05 0.03 12798
0.25 0.60 0.65 -0.72 10.02 -0.01 -0.04 0.03 12805
0.24 0.60 0.61 -0.69 10.00 -0.01 -0.05 0.02 12811
0.22 0.60 0.63 -0.69 10.00 -0.01 -0.04 0.02 12817
0.24 0.60 0.65 -0.68 9.97 -0.01 -0.04 0.02 12824
0.23 0.58 0.63 -0.74 10.06 -0.01 -0.04 0.02 12830
0.23 0.57 0.68 -0.69 9.98 -0.00 -0.04 0.02 12836
0.25 0.56 0.64 -0.73 9.98 -0.01 -0.04 0.01 12843
0.25 0.56 0.67 -0.73 10.02 -0.00 -0.04 0.01 12849
0.24 0.56 0.64 -0.72 9.99 -0.01 -0.04 0.01 12856
0.24 0.54 0.67 -0.71 10.01 -0.00 -0.04 0.01 12862
0.26 0.51 0.65 -0.77 10.01 -0.00 -0.04 0.01 12868
0.26 0.51 0.67 -0.73 10.01 0.00 -0.04 0.01 12874
0.27 0.45 0.64 -0.70 10.03 0.01 -0.04 0.01 12881
0.26 0.43 0.67 -0.72 10.03 0.01 -0.04 0.01 12888
0.28 0.40 0.66 -0.78 10.01 0.02 -0.03 0.00 12894
0.31 0.36 0.68 -0.76 10.03 0.02 -0.04 0.00 12900
0.32 0.35 0.68 -0.73 10.07 0.02 -0.04 -0.00 12906
0.34 0.28 0.75 -0.74 10.05 0.04 -0.04 -0.01 12913
0.33 0.25 0.72 -0.76 10.13 0.06 -0.04 -0.02 12919
0.31 0.24 0.72 -0.75 10.13 0.07 -0.04 -0.03 12925
0.29 0.19 0.71 -0.78 10.15 0.09 -0.05 -0.03 12932
0.35 0.15 0.69 -0.83 10.19 0.11 -0.06 -0.03 12939
0.34 0.09 0.77 -0.82 10.26 0.14 -0.07 -0.04 12945
0.34 0.05 0.87 -0.79 10.30 0.18 -0.09 -0.04 12951
0.33 0.02 0.57 -0.79 12.06 0.23 -0.12 -0.06 12957
0.34 -0.02 1.02 -0.86 10.56 0.29 -0.19 -0.10 12964
0.31 -0.00 1.41 -1.40 10.86 0.37 -0.29 -0.18 12971
0.30 -0.02 2.64 -1.78 11.37 0.44 -0.46 -0.29 12977
0.25 -0.02 4.71 -2.52 11.01 0.53 -0.69 -0.51 12984
0.26 -0.03 6.75 -3.76 11.27 0.58 -0.90 -0.91 12990
0.23 -0.02 8.54 -4.33 11.08 0.59 -0.90 -1.46 12996
0.24 -0.01 8.48 -4.56 11.82 0.62 -0.78 -2.01 13002
0.23 -0.02 5.73 -4.14 11.95 0.74 -0.75 -2.45 13008
0.21 -0.02 5.46 -3.86 11.54 0.89 -0.84 -2.74 13016
0.19 -0.01 5.55 -3.56 10.61 0.92 -0.90 -3.01 13022
0.17 -0.02 6.90 -4.09 11.12 0.89 -0.81 -3.32 13028
0.12 -0.01 7.48 -4.48 10.21 0.86 -0.62 -3.66 13034
0.12 -0.01 7.69 -4.74 10.38 0.84 -0.36 -3.99 13041
0.08 -0.01 7.93 -2.42 10.55 0.77 -0.12 -4.19 13047
0.09 0.00 6.01 -2.10 12.17 0.63 -0.05 -4.28 13053
0.07 -0.01 6.22 -1.27 12.15 0.44 -0.26 -4.28 13060
0.07 -0.01 4.47 -0.36 12.23 0.25 -0.64 -4.28 13067
0.07 -0.01 4.41 0.13 12.21 0.08 -1.13 -4.28 13073
0.05 -0.01 4.30 0.45 10.90 -0.10 -1.61 -4.25 13079
0.05 -0.01 6.21 0.94 9.85 -0.26 -1.92 -4.02 13085
0.06 -0.01 8.32 0.77 8.92 -0.35 -1.93 -3.61 13091
0.04 -0.00 9.22 0.62 9.01 -0.36 -1.47 -3.07 13097
0.04 -0.00 10.78 0.76 9.37 -0.33 -0.73 -2.54 13105
0.06 -0.01 12.03 1.29 8.86 -0.27 -0.15 -2.08 13111
0.05 -0.00 11.55 1.83 7.61 -0.23 0.17 -1.70 13117
0.04 -0.00 10.18 2.12 6.27 -0.17 0.38 -1.36 13123
0.05 -0.01 8.89 2.24 6.01 -0.08 0.61 -1.03 13129
0.04 -0.00 8.32 2.21 6.94 0.07 0.84 -0.68 13136
0.05 -0.00 8.10 2.04 8.43 0.24 1.04 -0.46 13143
0.06 -0.01 7.85 2.19 8.47 0.35 1.22 -0.22 13149
0.05 -0.01 7.16 2.56 8.92 0.37 1.38 -0.03 13155
0.04 -0.00 6.21 2.74 9.32 0.33 1.51 0.12 13161
0.05 -0.00 5.13 2.68 9.70 0.26 1.60 0.23 13167
0.05 -0.00 4.02 2.58 10.15 0.19 1.61 0.32 13174
0.05 -0.00 3.31 2.48 10.54 0.11 1.59 0.40 13180
0.05 0.00 1.89 2.27 10.84 0.03 1.55 0.44 13187
0.05 -0.00 1.93 1.97 11.04 -0.06 1.49 0.46 13193
0.04 -0.00 1.33 1.64 11.22 -0.15 1.42 0.44 13199
0.05 -0.00 0.90 1.28 11.33 -0.24 1.37 0.40 13206
0.05 -0.00 0.53 0.84 11.41 -0.33 1.33 0.32 13212
0.04 -0.00 0.21 0.49 11.52 -0.41 1.30 0.22 13218
0.05 -0.01 0.06 0.18 11.51 -0.49 1.25 0.10 13224
0.04 -0.00 -0.09 -0.15 11.52 -0.56 1.21 -0.01 13231
0.04 -0.00 -0.17 -0.42 11.40 -0.62 1.15 -0.12 13237
0.05 -0.01 -0.17 -0.82 11.04 -0.67 1.12 -0.19 13244
0.04 -0.00 -0.32 -1.39 10.58 -0.68 1.06 -0.23 13250
0.04 -0.00 -0.20 -1.98 10.38 -0.60 1.02 -0.24 13256
0.06 -0.00 0.12 -2.66 10.46 -0.51 0.99 -0.24 13262
0.04 -0.00 0.66 -3.26 10.65 -0.44 0.96 -0.22 13270
0.05 -0.00 1.06 -3.54 10.97 -0.32 0.95 -0.17 13276
0.05 -0.01 1.27 -3.61 11.07 -0.22 0.94 -0.08 13282
0.05 -0.00 1.50 -3.54 11.22 -0.15 0.93 0.06 13288
0.05 0.00 1.57 -3.46 11.22 -0.09 0.89 0.25 13294
0.05 -0.01 1.73 -3.43 11.18 -0.05 0.83 0.47 13301
0.04 -0.00 1.82 -3.42 11.06 -0.03 0.75 0.73 13307
0.05 -0.00 1.86 -3.40 10.80 -0.01 0.69 0.88 13314
0.05 -0.00 1.72 -3.53 10.57 0.02 0.65 1.07 13320
0.04 -0.00 1.52 -3.63 10.36 0.06 0.67 1.22 13326
0.05 0.00 1.34 -3.75 9.97 0.12 0.72 1.32 13333
0.05 -0.00 1.00 -3.63 10.23 0.18 0.78 1.38 13339
0.03 -0.00 0.71 -3.49 10.34 0.23 0.82 1.40 13345
0.05 -0.01 0.56 -3.11 10.53 0.26 0.86 1.40 13351
0.04 -0.00 0.41 -2.74 10.66 0.27 0.87 1.39 13358
0.04 -0.00 0.21 -2.27 10.70 0.26 0.89 1.41 13365
0.05 -0.01 -0.02 -1.88 10.58 0.24 0.88 1.44 13371
0.05 -0.00 -0.32 -1.73 10.42 0.23 0.83 1.49 13377
0.04 -0.00 -0.43 -1.64 10.19 0.21 0.73 1.54 13383
0.06 -0.01 -0.39 -1.59 9.95 0.20 0.60 1.59 13389
0.05 -0.01 -0.26 -1.42 9.91 0.19 0.47 1.64 13395
0.04 -0.00 0.03 -1.39 9.83 0.19 0.38 1.69 13403
0.05 -0.01 0.29 -1.37 9.74 0.18 0.35 1.73 13409
0.05 -0.01 0.40 -1.34 9.63 0.16 0.35 1.75 13415
0.05 -0.00 0.25 -1.47 9.25 0.13 0.38 1.77 13421
0.05 -0.00 -0.03 -1.62 8.95 0.11 0.40 1.77 13427
0.05 -0.01 -0.27 -1.77 8.75 0.09 0.40 1.78 13433
0.05 -0.01 -0.46 -1.94 8.57 0.10 0.38 1.81 13440
0.04 -0.00 -0.55 -2.15 8.35 0.12 0.34 1.87 13447
0.05 -0.01 -0.51 -2.39 8.41 0.13 0.30 1.90 13453
0.05 -0.01 -0.34 -2.56 8.53 0.17 0.28 1.98 13459
0.04 -0.00 -0.20 -2.82 8.54 0.21 0.27 2.07 13465
0.05 -0.00 -0.06 -3.10 8.55 0.25 0.28 2.15 13471
0.06 -0.01 -0.19 -3.48 8.57 0.33 0.30 2.22 13477
0.05 -0.00 -0.28 -3.97 8.46 0.34 0.31 2.27 13485
0.05 -0.00 -0.34 -4.53 8.54 0.39 0.29 2.30 13491
0.06 -0.01 -1.80 -5.73 9.73 0.45 0.15 2.33 13497
0.04 -0.00 -8.38 -7.30 15.13 0.72 -1.04 2.49 13503
0.04 -0.00 -8.95 -5.21 9.63 0.76 -2.08 2.64 13509
0.05 -0.00 -2.58 -3.82 6.02 0.67 -2.50 2.82 13515
0.04 -0.00 -5.74 -6.53 7.62 0.58 -2.69 2.93 13521
0.03 -0.00 -6.78 -7.04 9.28 0.52 -3.10 3.03 13529
0.05 0.00 -12.31 -8.34 7.50 0.52 -3.39 3.15 13535
0.05 -0.00 -14.02 -7.54 5.88 0.60 -4.04 3.33 13541
0.04 0.06 -12.97 1.39 19.56 1.10 -3.88 3.50 13547
0.04 0.18 -26.99 -11.06 30.07 1.22 -2.69 3.38 13554
0.03 0.33 -29.07 -2.07 18.46 0.46 -2.02 2.30 13560
0.03 0.48 -19.61 -3.43 18.83 0.20 -0.95 0.94 13566
0.01 0.49 -4.66 0.82 11.58 -0.09 -0.18 -0.03 13574
0.05 0.51 0.50 1.09 9.07 -0.08 -0.05 -0.23 13580
0.02 0.50 5.12 -0.47 8.73 0.09 -0.23 -0.06 13586
0.03 0.47 4.99 0.21 9.45 0.19 -0.22 0.35 13592
0.04 0.49 1.50 -0.57 10.78 0.16 -0.13 0.54 13599
0.03 0.51 -0.41 -0.38 10.72 0.05 -0.17 0.41 13605
0.04 0.51 -0.88 -1.14 9.74 0.00 -0.16 0.23 13612
0.05 0.55 -0.00 -1.11 9.83 -0.01 -0.11 0.15 13618
0.04 0.60 0.19 -1.50 10.01 -0.06 -0.10 0.11 13624
0.08 0.62 0.57 -1.17 10.10 -0.09 -0.11 0.10 13631
0.07 0.69 0.41 -0.65 10.18 -0.09 -0.11 0.08 13637
0.09 0.69 0.48 -0.80 10.40 -0.08 -0.07 0.07 13643
0.09 0.74 0.60 -0.65 10.20 -0.05 -0.06 0.06 13649
0.09 0.72 0.79 -0.68 10.09 -0.04 -0.05 0.06 13657
0.10 0.69 0.74 -0.84 10.15 -0.03 -0.06 0.06 13663
0.12 0.71 0.01 -0.77 10.04 -0.03 -0.06 0.06 13669
0.11 0.71 0.62 -0.77 10.05 -0.03 -0.06 0.06 13675
0.15 0.72 0.68 -0.74 10.05 -0.04 -0.05 0.06 13682
0.15 0.70 0.71 -0.77 10.09 -0.04 -0.05 0.05 13688
0.17 0.70 0.68 -0.65 10.01 -0.04 -0.05 0.05 13694
0.17 0.70 0.64 -0.69 10.17 -0.02 -0.05 0.05 13701
0.18 0.71 0.64 -0.69 10.04 -0.02 -0.05 0.05 13708
0.22 0.69 0.63 -0.74 9.91 -0.01 -0.05 0.05 13714
0.21 0.69 0.68 -0.75 10.14 -0.01 -0.05 0.05 13720
0.22 0.67 0.70 -0.66 9.97 -0.00 -0.04 0.04 13726
0.25 0.67 0.73 -0.74 10.00 -0.01 -0.05 0.04 13733
0.25 0.61 0.69 -0.69 10.00 -0.00 -0.05 0.04 13740
0.26 0.60 0.63 -0.71 10.17 -0.00 -0.05 0.04 13746
0.28 0.59 0.69 -0.81 10.03 0.00 -0.05 0.04 13752
0.28 0.57 0.70 -0.69 10.02 0.00 -0.04 0.04 13758
0.31 0.56 0.69 -0.69 10.00 0.01 -0.04 0.04 13765
0.31 0.52 0.69 -0.70 10.05 0.01 -0.04 0.04 13771
0.32 0.50 0.69 -0.73 10.02 0.01 -0.05 0.05 13777
0.33 0.48 0.69 -0.69 9.97 0.00 -0.05 0.04 13784
0.33 0.48 0.69 -0.68 10.01 0.01 -0.05 0.04 13791
0.36 0.45 0.71 -0.71 10.01 0.00 -0.05 0.05 13797
0.35 0.43 0.70 -0.71 10.00 0.01 -0.05 0.04 13803
0.36 0.37 0.70 -0.71 9.97 0.00 -0.05 0.04 13809
0.37 0.38 0.65 -0.74 9.97 0.00 -0.05 0.04 13815
0.36 0.36 0.67 -0.70 9.99 0.00 -0.05 0.04 13822
0.36 0.36 0.69 -0.69 9.98 0.00 -0.05 0.04 13829
0.37 0.34 0.68 -0.72 9.99 -0.00 -0.05 0.04 13835
0.37 0.36 0.63 -0.70 9.97 0.00 -0.05 0.04 13841
0.37 0.33 0.67 -0.72 9.98 0.00 -0.06 0.04 13847
0.38 0.33 0.69 -0.68 9.98 0.00 -0.06 0.03 13854
0.38 0.34 0.65 -0.69 9.98 0.00 -0.06 0.03 13860
0.38 0.34 0.67 -0.69 10.04 0.00 -0.06 0.04 13867
0.40 0.31 0.64 -0.72 9.92 -0.00 -0.06 0.03 13873
0.42 0.27 0.69 -0.71 9.97 -0.01 -0.06 0.03 13879
0.42 0.27 0.67 -0.70 10.01 -0.01 -0.06 0.03 13886
0.43 0.25 0.66 -0.72 10.00 -0.01 -0.06 0.03 13892
0.42 0.27 0.63 -0.70 9.98 -0.01 -0.06 0.03 13898
0.43 0.29 0.63 -0.70 10.03 -0.01 -0.06 0.03 13904
0.44 0.28 0.61 -0.71 9.98 -0.01 -0.06 0.03 13911
0.45 0.27 0.67 -0.70 10.02 -0.01 -0.06 0.03 13918
0.48 0.27 0.68 -0.73 9.98 -0.01 -0.05 0.03 13924
0.47 0.27 0.60 -0.62 10.06 -0.01 -0.05 0.03 13930
0.47 0.27 0.61 -0.72 9.97 -0.01 -0.05 0.03 13936
0.48 0.27 0.63 -0.73 9.99 -0.01 -0.05 0.03 13942
0.50 0.26 0.65 -0.70 10.00 -0.01 -0.05 0.03 13949
0.52 0.30 0.64 -0.69 10.03 -0.01 -0.05 0.03 13956
0.54 0.29 0.63 -0.69 9.96 -0.01 -0.05 0.03 13962
0.53 0.26 0.63 -0.70 10.00 -0.00 -0.05 0.03 13968
0.55 0.28 0.63 -0.71 10.04 -0.00 -0.05 0.02 13975
0.56 0.24 0.62 -0.71 10.00 -0.01 -0.05 0.03 13981
0.58 0.25 0.61 -0.72 10.02 -0.01 -0.05 0.03 13987
0.62 0.25 0.62 -0.70 9.96 -0.00 -0.05 0.03 13993
0.59 0.23 0.61 -0.70 9.96 -0.01 -0.05 0.03 14000
0.58 0.25 0.63 -0.70 9.99 -0.01 -0.05 0.03 14007
0.60 0.26 0.63 -0.70 10.12 -0.01 -0.05 0.03 14013
0.59 0.27 0.60 -0.73 10.02 -0.01 -0.04 0.03 14019
0.59 0.29 0.60 -0.72 10.02 -0.01 -0.04 0.03 14025
0.60 0.28 0.64 -0.71 10.02 -0.02 -0.04 0.03 14032
0.59 0.27 0.61 -0.74 10.05 -0.01 -0.04 0.03 14039
0.61 0.30 0.61 -0.71 9.99 -0.01 -0.04 0.03 14045
0.61 0.28 0.65 -0.71 10.07 -0.01 -0.04 0.03 14051
0.59 0.29 0.61 -0.67 10.04 -0.01 -0.04 0.03 14058
0.59 0.30 0.65 -0.72 9.99 -0.01 -0.04 0.03 14064
0.59 0.30 0.64 -0.69 10.04 -0.01 -0.04 0.03 14070
0.56 0.34 0.62 -0.77 10.00 -0.02 -0.04 0.03 14076
0.55 0.35 0.60 -0.74 9.99 -0.02 -0.04 0.03 14083
0.53 0.34 0.65 -0.73 9.97 -0.02 -0.04 0.03 14090
0.53 0.35 0.60 -0.77 10.02 -0.02 -0.04 0.04 14096
0.53 0.38 0.63 -0.71 9.97 -0.02 -0.04 0.04 14102
0.51 0.39 0.60 -0.66 9.99 -0.02 -0.04 0.04 14108
0.51 0.41 0.60 -0.74 9.98 -0.02 -0.04 0.04 14114
0.47 0.44 0.57 -0.72 9.96 -0.03 -0.04 0.03 14121
0.48 0.46 0.60 -0.67 9.99 -0.03 -0.04 0.03 14128
0.48 0.47 0.59 -0.68 9.97 -0.02 -0.04 0.03 14134
0.45 0.48 0.58 -0.74 10.00 -0.02 -0.04 0.03 14140
0.43 0.48 0.61 -0.69 9.95 -0.02 -0.03 0.03 14146
0.43 0.51 0.58 -0.70 9.98 -0.02 -0.03 0.03 14153
0.40 0.52 0.60 -0.68 10.03 -0.02 -0.02 0.03 14159
0.37 0.53 0.55 -0.71 9.96 -0.02 -0.01 0.03 14166
0.35 0.54 0.60 -0.69 10.01 -0.02 -0.01 0.03 14172
0.31 0.53 0.03 -0.69 10.00 -0.02 -0.01 0.03 14178
0.33 0.56 0.61 -0.66 10.05 -0.02 -0.01 0.02 14185
0.30 0.56 0.69 -0.68 9.99 -0.01 -0.02 0.03 14191
0.29 0.55 0.68 -0.67 9.94 -0.01 -0.02 0.02 14197
0.28 0.54 0.66 -0.69 10.04 -0.00 -0.02 0.03 14203
0.29 0.53 0.60 -0.68 9.98 -0.00 -0.03 0.02 14211
0.30 0.53 0.61 -0.72 9.98 -0.01 -0.03 0.02 14217
0.32 0.52 0.62 -0.71 9.98 -0.00 -0.03 0.02 14223
0.29 0.50 0.57 -0.74 9.98 0.00 -0.03 0.02 14229
0.28 0.48 0.63 -0.67 10.00 0.00 -0.02 0.02 14235
0.32 0.46 0.68 -0.69 10.03 0.01 -0.02 0.01 14242
0.33 0.42 0.63 -0.69 10.01 0.02 -0.03 0.01 14248
0.34 0.39 0.65 -0.70 10.08 0.03 -0.02 0.01 14255
0.41 0.32 0.70 -0.72 10.04 0.03 -0.03 0.00 14261
0.39 0.25 0.69 -0.73 10.05 0.04 -0.03 -0.01 14267
0.41 0.23 0.66 -0.71 10.07 0.05 -0.03 -0.01 14274
0.41 0.19 0.72 -0.71 10.13 0.06 -0.03 -0.01 14280
0.44 0.12 0.73 -0.73 10.17 0.08 -0.03 -0.01 14286
0.44 0.08 0.74 -0.72 10.24 0.10 -0.04 -0.02 14292
0.48 0.02 0.80 -0.76 10.36 0.14 -0.05 -0.02 14300
0.52 0.01 0.99 -0.82 10.42 0.18 -0.08 -0.05 14306
0.51 -0.02 1.20 -0.84 10.83 0.26 -0.13 -0.09 14312
0.53 -0.01 0.17 -1.71 10.89 0.38 -0.23 -0.18 14318
0.55 -0.04 2.35 -1.45 11.71 0.53 -0.36 -0.31 14325
0.53 -0.04 5.32 -2.26 12.01 0.69 -0.59 -0.54 14331
0.56 -0.03 7.65 -2.62 11.54 0.82 -0.73 -0.96 14338
0.55 -0.05 5.82 -2.54 13.53 1.01 -0.85 -1.39 14345
0.51 -0.02 5.20 -3.23 14.18 1.31 -1.02 -1.70 14351
0.50 -0.03 4.84 -3.03 12.92 1.49 -1.17 -1.96 14357
0.42 -0.03 7.00 -3.89 12.43 1.50 -1.14 -2.23 14363
0.35 -0.03 7.53 -3.95 11.72 1.52 -1.03 -2.56 14370
0.28 -0.02 8.11 -4.32 10.93 1.54 -0.82 -2.92 14376
0.24 -0.01 8.37 -3.68 10.25 1.48 -0.54 -3.25 14383
0.15 -0.01 8.85 -4.60 10.34 1.36 -0.21 -3.57 14389
0.13 0.00 8.91 -2.48 11.58 1.20 0.07 -3.88 14396
0.08 -0.01 8.99 -2.14 12.29 0.99 0.27 -4.10 14402
0.07 -0.01 8.64 -1.14 11.78 0.71 0.17 -4.24 14408
0.09 -0.01 7.40 0.39 11.89 0.45 -0.01 -4.26 14414
0.06 -0.01 6.33 1.30 11.63 0.15 -0.39 -4.24 14422
0.05 -0.00 5.25 2.87 11.69 -0.18 -0.89 -4.19 14428
0.06 -0.01 6.94 4.68 9.92 -0.55 -1.39 -3.99 14434
0.05 -0.00 7.96 4.15 9.92 -0.84 -1.59 -3.55 14440
0.04 -0.00 7.94 2.94 10.22 -1.08 -1.27 -2.97 14446
0.06 -0.01 8.35 2.51 8.77 -1.28 -0.64 -2.37 14452
0.05 -0.01 9.34 1.97 7.02 -1.25 -0.22 -1.91 14459
0.05 -0.00 9.50 1.21 5.50 -1.06 -0.07 -1.60 14466
0.06 -0.00 9.40 0.72 4.90 -0.79 0.02 -1.38 14472
0.06 -0.01 9.13 0.72 5.36 -0.53 0.23 -1.18 14478
0.04 -0.00 8.90 1.16 6.34 -0.27 0.59 -0.97 14484
0.05 -0.00 8.71 1.69 7.14 -0.13 1.08 -0.73 14490
0.05 -0.01 8.07 1.87 7.84 -0.06 1.50 -0.50 14497
0.05 -0.00 6.82 1.83 8.36 -0.05 1.77 -0.29 14503
0.05 -0.00 5.40 1.61 8.81 -0.06 1.88 -0.06 14510
0.06 -0.01 4.09 1.23 9.24 -0.03 1.86 0.16 14516
0.05 -0.01 3.29 0.87 9.45 0.01 1.75 0.36 14522
0.04 -0.00 2.89 0.72 9.80 0.05 1.62 0.50 14528
0.05 -0.01 2.76 0.66 10.09 0.06 1.55 0.57 14534
0.06 -0.01 2.62 0.60 10.56 0.03 1.53 0.59 14541
0.04 -0.00 2.31 0.38 10.90 -0.05 1.55 0.55 14547
0.05 -0.00 1.74 0.17 11.08 -0.14 1.57 0.45 14554
0.05 -0.01 1.15 0.06 11.22 -0.24 1.54 0.37 14560
0.04 -0.00 0.67 -0.02 11.33 -0.34 1.47 0.24 14566
0.05 -0.01 0.28 -0.16 11.24 -0.40 1.39 0.13 14573
0.05 -0.00 0.07 -0.47 11.05 -0.45 1.31 0.03 14579
0.04 -0.00 0.17 -0.85 10.88 -0.47 1.24 -0.04 14585
0.05 -0.01 0.30 -1.25 10.89 -0.47 1.19 -0.11 14592
0.05 -0.00 0.62 -1.60 10.88 -0.45 1.15 -0.14 14598
0.04 -0.00 0.91 -1.84 10.91 -0.42 1.14 -0.16 14605
0.06 -0.01 1.13 -1.95 10.66 -0.39 1.15 -0.14 14611
0.04 -0.00 1.12 -2.17 10.39 -0.35 1.18 -0.12 14617
0.05 -0.00 1.06 -2.33 10.28 -0.31 1.20 -0.08 14623
0.05 -0.01 0.98 -2.42 10.34 -0.26 1.20 -0.02 14629
0.05 -0.00 0.99 -2.48 10.62 -0.20 1.19 0.06 14637
0.05 -0.00 1.10 -2.41 10.75 -0.13 1.17 0.17 14643
0.04 -0.00 1.23 -2.33 11.05 -0.08 1.15 0.31 14649
0.05 -0.00 1.38 -2.16 11.24 -0.04 1.13 0.43 14655
0.05 -0.00 1.36 -2.02 11.50 -0.01 1.12 0.59 14661
0.05 -0.00 1.11 -1.89 11.72 0.00 1.11 0.76 14668
0.04 -0.00 0.79 -1.84 11.62 0.00 1.05 0.93 14674
0.05 0.00 0.49 -1.84 11.37 0.00 0.96 1.09 14681
0.05 -0.00 0.23 -1.86 10.99 -0.01 0.85 1.24 14687
0.04 -0.00 0.05 -1.91 10.66 0.00 0.76 1.38 14693
0.05 -0.00 -0.04 -2.06 10.40 0.02 0.70 1.48 14700
0.05 -0.00 -0.02 -2.11 10.18 0.06 0.66 1.55 14706
0.04 -0.00 -0.06 -2.03 10.02 0.09 0.63 1.59 14712
0.05 -0.00 -0.16 -1.96 9.75 0.13 0.63 1.60 14718
0.05 -0.00 -0.30 -2.00 9.52 0.16 0.65 1.60 14725
0.05 -0.00 -0.38 -2.13 9.46 0.20 0.65 1.58 14731
0.05 -0.00 -0.28 -2.40 9.48 0.23 0.61 1.55 14738
0.05 -0.00 -0.11 -2.71 9.51 0.27 0.56 1.50 14744
0.05 -0.01 0.01 -3.02 9.65 0.31 0.54 1.46 14750
0.04 -0.00 0.10 -3.41 9.72 0.34 0.52 1.43 14756
0.05 -0.01 0.20 -3.73 9.69 0.36 0.47 1.40 14763
0.05 -0.00 0.14 -4.06 9.56 0.37 0.41 1.40 14769
0.04 -0.00 0.00 -4.25 9.52 0.38 0.35 1.41 14775
0.05 -0.00 0.00 -4.43 9.34 0.41 0.29 1.45 14782
0.05 -0.01 -0.15 -4.63 9.11 0.44 0.25 1.51 14788
0.05 -0.00 -0.43 -4.81 8.86 0.48 0.22 1.58 14794
0.05 -0.00 -0.73 -4.94 8.58 0.53 0.20 1.65 14800
0.05 -0.01 -1.16 -5.04 8.21 0.59 0.17 1.70 14807
0.05 -0.00 -1.76 -4.96 7.80 0.64 0.17 1.74 14813
0.04 -0.00 -2.57 -4.71 7.62 0.72 0.18 1.77 14819
0.05 -0.00 -7.71 -4.95 12.06 0.77 -0.21 1.76 14826
0.05 -0.00 -18.03 -3.82 14.83 0.65 -2.41 1.66 14832
0.05 -0.00 -10.78 1.30 4.36 0.50 -3.33 1.78 14838
0.06 -0.01 -10.56 -1.21 8.39 0.40 -3.47 1.96 14844
0.05 -0.00 -13.86 -3.08 7.74 0.29 -4.07 2.01 14852
0.04 -0.00 -13.95 -2.71 8.04 0.34 -4.28 1.96 14858
0.05 -0.01 -15.78 -2.95 7.50 0.26 -4.28 1.87 14864
0.05 0.02 -21.60 -6.04 37.25 -0.03 -4.28 1.65 14870
0.05 0.15 -21.84 -2.53 23.50 0.17 -2.09 1.10 14877
0.04 0.30 -9.99 -3.14 11.93 -0.54 -0.18 0.29 14883
0.04 0.51 -4.57 -0.74 12.78 -0.36 -0.22 -0.19 14889
0.03 0.60 1.39 0.22 9.95 -0.12 -0.08 -0.01 14896
0.04 0.56 2.54 0.93 9.60 -0.01 -0.05 0.19 14903
0.05 0.55 1.98 0.67 9.52 0.05 -0.03 0.22 14909
0.05 0.55 0.53 -0.79 9.91 0.08 -0.08 0.22 14915
0.05 0.55 0.39 -0.40 10.20 0.07 -0.11 0.18 14921
0.10 0.49 0.93 -0.63 9.84 0.05 -0.12 0.19 14927
0.09 0.51 0.83 -0.80 9.87 0.00 -0.10 0.21 14935
0.10 0.51 0.24 -1.60 9.89 -0.05 -0.10 0.16 14941
0.15 0.53 0.42 -1.34 9.81 -0.10 -0.11 0.11 14947
0.15 0.53 0.74 -1.05 10.28 -0.13 -0.10 0.09 14953
0.18 0.56 0.50 -0.72 10.22 -0.13 -0.10 0.07 14960
0.18 0.62 0.52 -0.65 10.22 -0.11 -0.08 0.07 14966
0.18 0.60 0.62 -0.62 10.17 -0.08 -0.07 0.06 14972
0.21 0.63 0.62 -0.69 10.08 -0.06 -0.06 0.06 14979
0.21 0.61 0.70 -0.74 10.10 -0.05 -0.05 0.07 14986
0.23 0.64 0.70 -0.73 9.96 -0.04 -0.05 0.06 14992
0.25 0.59 0.64 -0.72 10.04 -0.04 -0.05 0.06 14998
0.25 0.62 0.68 -0.72 9.98 -0.04 -0.05 0.06 15004
0.28 0.61 0.71 -0.72 9.96 -0.03 -0.05 0.05 15010
0.30 0.62 0.72 -0.71 10.06 -0.03 -0.05 0.05 15017
0.29 0.60 0.68 -0.62 10.12 -0.02 -0.05 0.06 15024
0.34 0.60 0.65 -0.62 10.00 -0.01 -0.05 0.06 15030
0.34 0.55 0.69 -0.71 10.04 -0.01 -0.05 0.06 15036
0.35 0.52 0.63 -0.70 10.06 -0.01 -0.05 0.07 15043
0.36 0.52 0.68 -0.70 10.11 -0.01 -0.05 0.07 15049
0.35 0.52 0.75 -0.70 10.00 -0.01 -0.05 0.03 15055
0.39 0.49 0.74 -0.73 10.01 -0.01 -0.05 0.06 15062
0.38 0.46 0.72 -0.71 10.02 -0.01 -0.05 0.05 15069
0.39 0.46 0.71 -0.69 10.00 -0.01 -0.05 0.05 15075
0.39 0.45 0.70 -0.69 10.01 -0.01 -0.06 0.05 15081
0.39 0.43 0.74 -0.70 10.03 -0.00 -0.05 0.05 15087
0.42 0.44 0.70 -0.67 9.98 -0.00 -0.05 0.05 15093
0.41 0.38 0.68 -0.65 9.95 -0.01 -0.06 0.05 15100
0.40 0.42 0.68 -0.68 9.98 -0.00 -0.05 0.05 15107
0.43 0.42 0.68 -0.65 10.04 -0.00 -0.05 0.05 15113
0.44 0.39 0.66 -0.67 9.97 -0.01 -0.05 0.05 15119
0.45 0.40 0.62 -0.67 9.92 -0.01 -0.05 0.06 15125
0.48 0.34 0.68 -0.66 10.01 0.00 -0.05 0.06 15132
0.47 0.34 0.64 -0.66 9.97 0.03 -0.05 0.05 15138
0.49 0.33 0.70 -0.65 10.01 0.00 -0.05 0.05 15144
0.49 0.37 0.60 -0.66 9.95 0.00 -0.05 0.05 15151
0.48 0.30 0.70 -0.65 10.05 0.00 -0.05 0.05 15158
0.49 0.34 0.67 -0.71 9.99 0.00 -0.05 0.05 15164
0.52 0.31 0.63 -0.65 9.96 -0.00 -0.05 0.05 15170
0.52 0.33 0.67 -0.68 10.00 0.00 -0.05 0.05 15176
0.54 0.33 0.62 -0.64 9.98 0.00 -0.05 0.05 15182
0.54 0.33 0.61 -0.64 9.98 0.00 -0.05 0.05 15190
0.55 0.31 0.67 -0.64 10.01 0.00 -0.05 0.05 15196
0.58 0.33 0.61 -0.66 9.97 -0.00 -0.05 0.05 15202
0.58 0.32 0.64 -0.63 10.02 0.00 -0.05 0.05 15208
0.58 0.30 0.64 -0.64 10.01 0.00 -0.04 0.05 15214
0.62 0.27 0.63 -0.67 9.99 0.00 -0.05 0.05 15221
0.61 0.25 0.63 -0.69 10.01 0.00 -0.05 0.05 15227
0.62 0.29 0.66 -0.67 10.01 0.01 -0.05 0.05 15234
0.64 0.29 0.66 -0.66 9.96 0.01 -0.05 0.05 15240
0.62 0.26 0.63 -0.66 9.95 0.01 -0.05 0.05 15246
0.63 0.28 0.64 -0.65 9.95 0.01 -0.05 0.05 15253
0.63 0.28 0.62 -0.68 9.97 0.01 -0.05 0.05 15259
0.64 0.26 1.22 -0.67 9.99 0.01 -0.05 0.05 15265
0.67 0.30 0.64 -0.67 10.05 0.01 -0.05 0.05 15271
0.67 0.26 0.64 -0.67 10.00 0.01 -0.05 0.05 15278
0.67 0.23 0.67 -0.66 9.95 0.02 -0.05 0.05 15285
0.69 0.25 0.65 -0.68 10.02 0.01 -0.05 0.05 15291
0.71 0.23 0.67 -0.68 10.01 0.01 -0.05 0.05 15297
0.72 0.25 0.66 -0.71 9.92 0.01 -0.05 0.05 15303
0.74 0.24 0.66 -0.68 9.86 0.01 -0.05 0.04 15310
0.76 0.23 0.62 -0.74 9.97 0.00 -0.05 0.04 15316
0.76 0.24 0.62 -0.68 9.96 0.00 -0.05 0.04 15323
0.78 0.22 0.63 -0.66 9.98 0.00 -0.06 0.04 15329
0.78 0.23 0.62 -0.65 9.99 -0.00 -0.05 0.04 15335
0.78 0.26 0.63 -0.67 9.99 -0.00 -0.05 0.04 15341
0.80 0.26 0.65 -0.65 10.00 -0.01 -0.05 0.04 15348
0.80 0.22 0.63 -0.65 9.95 -0.01 -0.05 0.04 15354
0.81 0.26 0.62 -0.68 9.94 -0.00 -0.05 0.04 15361
0.84 0.24 0.03 -0.67 9.97 -0.01 -0.05 0.04 15367
0.85 0.23 0.62 -0.69 9.92 -0.01 -0.05 0.04 15373
0.83 0.26 0.61 -0.71 10.00 -0.01 -0.05 0.04 15380
0.82 0.26 0.61 -0.68 9.97 -0.01 -0.04 0.04 15386
0.83 0.26 0.57 -0.66 10.02 -0.01 -0.04 0.04 15392
0.85 0.28 0.62 -0.68 9.93 -0.01 -0.04 0.04 15398
0.84 0.27 0.58 -0.66 9.99 -0.01 -0.04 0.04 15406
0.84 0.28 0.60 -0.71 10.00 -0.01 -0.04 0.04 15412
0.85 0.28 0.63 -0.68 10.00 -0.01 -0.04 0.04 15418
0.86 0.27 0.64 -0.66 9.97 -0.01 -0.05 0.04 15424
0.85 0.28 0.63 -0.67 9.96 -0.01 -0.04 0.04 15430
0.84 0.29 0.59 -0.66 9.96 -0.01 -0.04 0.04 15437
0.82 0.29 0.59 -0.69 9.93 -0.02 -0.04 0.04 15443
0.78 0.33 0.61 -0.66 9.93 -0.02 -0.04 0.04 15450
0.76 0.34 0.60 -0.69 9.95 -0.02 -0.04 0.05 15456
0.72 0.34 0.61 -0.68 9.98 -0.03 -0.04 0.04 15462
0.71 0.39 0.57 -0.71 9.97 -0.02 -0.03 0.04 15469
0.69 0.39 0.04 -0.69 9.94 -0.02 -0.03 0.04 15475
0.67 0.38 0.61 -0.68 10.00 -0.02 -0.03 0.05 15481
0.63 0.41 0.56 -0.64 9.92 -0.02 -0.02 0.05 15488
0.59 0.39 0.59 -0.68 9.97 -0.02 -0.01 0.05 15494
0.56 0.40 0.55 -0.68 9.98 -0.02 -0.01 0.05 15501
