Voltage_01 Voltage_02 Acc_x Acc_y Acc_z Gyro_x Gyro_y Gyro_z Time
5000
0.16 0.50 0.61 -0.73 9.96 -0.01 -0.03 0.00 17
0.14 0.52 0.64 -0.70 10.05 -0.01 -0.04 0.00 23
0.14 0.52 0.60 -0.70 9.93 -0.01 -0.04 0.00 29
0.14 0.53 0.62 -0.72 9.98 -0.00 -0.03 0.00 35
0.13 0.50 0.58 -0.71 10.04 -0.00 -0.03 -0.00 41
0.14 0.47 0.57 -0.75 10.04 -0.00 -0.03 -0.00 48
0.13 0.44 0.60 -0.71 10.00 0.00 -0.02 -0.00 54
0.16 0.44 0.63 -0.74 10.06 0.01 -0.03 -0.00 60
0.18 0.40 0.59 -0.71 10.06 0.01 -0.02 0.00 66
0.16 0.37 0.62 -0.77 10.04 0.01 -0.02 -0.00 72
0.16 0.35 0.63 -0.72 10.11 0.01 -0.02 0.00 78
0.17 0.35 0.67 -0.74 10.02 0.01 -0.02 0.00 84
0.20 0.31 0.65 -0.74 10.07 0.01 -0.02 0.00 92
0.21 0.27 0.68 -0.78 10.04 0.01 -0.03 0.00 98
0.22 0.27 0.65 -0.71 10.05 0.02 -0.03 -0.00 104
0.20 0.29 0.62 -0.77 10.04 0.02 -0.03 -0.00 110
0.22 0.29 0.59 -0.76 10.04 0.02 -0.03 -0.00 116
0.21 0.24 0.64 -0.77 10.00 0.02 -0.03 -0.00 122
0.21 0.21 0.54 -0.80 10.06 0.03 -0.02 -0.00 129
0.19 0.19 0.63 -0.75 10.12 0.03 -0.02 -0.00 135
0.21 0.17 0.60 -0.77 10.07 0.04 -0.02 0.00 141
0.17 0.15 0.65 -0.78 10.09 0.05 -0.02 0.00 148
0.16 0.09 0.61 -0.76 10.09 0.06 -0.02 0.01 154
0.16 0.07 0.59 -0.74 10.15 0.07 -0.01 0.01 160
0.17 0.07 0.69 -0.79 10.08 0.09 -0.01 0.00 166
0.17 0.04 0.63 -0.83 10.09 0.10 -0.02 0.00 173
0.14 0.01 0.68 -0.86 10.16 0.11 -0.02 0.00 179
0.18 0.04 0.69 -0.82 10.07 0.12 -0.03 0.00 185
0.21 0.01 0.74 -0.84 10.17 0.12 -0.05 -0.01 191
0.16 -0.02 0.72 -0.86 10.18 0.13 -0.07 -0.03 197
0.15 -0.01 0.97 -0.92 10.26 0.15 -0.08 -0.06 204
0.15 -0.00 0.98 -1.03 10.28 0.17 -0.09 -0.10 210
0.13 -0.01 1.21 -0.89 10.52 0.21 -0.11 -0.15 217
0.10 -0.01 1.81 -1.31 10.60 0.27 -0.13 -0.24 223
0.14 -0.01 2.59 -1.39 10.69 0.32 -0.15 -0.38 229
0.14 -0.01 2.07 -1.33 10.67 0.37 -0.19 -0.53 235
0.12 -0.01 2.83 -1.57 11.03 0.52 -0.26 -0.69 241
0.09 -0.01 2.19 -1.85 11.82 0.62 -0.33 -0.82 247
0.11 -0.01 2.32 -2.00 11.27 0.73 -0.43 -0.90 254
0.12 -0.01 2.71 -2.83 11.91 0.77 -0.50 -0.97 261
0.09 -0.01 2.72 -2.06 11.14 0.82 -0.52 -1.04 267
0.06 -0.01 2.36 -2.36 11.70 0.82 -0.60 -1.09 273
0.08 -0.01 2.55 -2.14 10.87 0.85 -0.68 -1.17 279
0.09 -0.01 3.77 -2.63 11.31 0.86 -0.70 -1.28 285
0.07 -0.01 4.47 -3.09 11.12 0.84 -0.70 -1.43 291
0.07 -0.01 6.08 -3.22 11.33 0.81 -0.66 -1.60 297
0.05 -0.00 5.79 -2.89 11.06 0.78 -0.58 -1.75 304
0.06 -0.01 5.86 -2.67 10.97 0.73 -0.44 -1.94 311
0.04 -0.00 5.34 -2.21 10.85 0.67 -0.33 -2.13 317
0.04 -0.00 4.73 -1.99 11.13 0.61 -0.32 -2.28 323
0.05 0.00 3.80 -1.86 11.88 0.53 -0.40 -2.41 329
0.05 -0.00 3.39 -1.59 11.82 0.43 -0.56 -2.49 335
0.05 -0.00 2.80 -1.51 11.25 0.34 -0.83 -2.52 342
0.03 0.00 1.80 -0.53 11.18 0.27 -1.10 -2.50 348
0.05 0.00 1.32 0.65 10.33 0.15 -1.35 -2.45 354
0.04 -0.00 2.15 1.93 9.34 0.01 -1.56 -2.33 360
0.04 -0.00 3.74 2.34 8.78 -0.09 -1.69 -2.10 366
0.04 -0.00 4.54 1.08 8.84 -0.15 -1.71 -1.76 373
0.05 0.00 5.31 -0.21 10.03 -0.16 -1.54 -1.38 379
0.05 -0.00 6.11 -0.96 11.06 -0.19 -1.16 -1.09 386
0.05 -0.00 7.07 -0.53 10.99 -0.21 -0.77 -0.81 392
0.04 -0.00 6.92 0.14 10.11 -0.23 -0.44 -0.61 398
0.04 0.01 6.01 0.44 9.15 -0.26 -0.20 -0.48 404
0.04 -0.00 4.49 0.48 8.71 -0.31 -0.01 -0.37 410
0.05 0.00 4.10 0.33 8.92 -0.33 0.08 -0.29 416
0.05 -0.00 3.14 0.22 9.12 -0.31 0.11 -0.20 422
0.04 -0.00 2.53 0.08 9.12 -0.28 0.08 -0.12 429
0.05 0.00 2.26 0.10 9.02 -0.25 0.02 -0.06 435
0.07 -0.00 2.18 0.11 9.04 -0.22 -0.00 -0.00 441
0.05 -0.01 2.07 0.10 9.05 -0.19 -0.00 0.04 447
0.05 -0.01 1.88 -0.03 9.10 -0.17 0.05 0.08 453
0.04 0.00 1.59 -0.16 9.11 -0.14 0.11 0.12 459
0.05 -0.00 1.31 -0.33 9.34 -0.11 0.16 0.17 466
0.06 0.00 1.09 -0.45 9.62 -0.07 0.19 0.21 473
0.05 -0.00 0.88 -0.58 9.83 -0.03 0.20 0.26 479
0.04 -0.00 0.83 -0.60 10.05 -0.02 0.21 0.32 485
0.04 -0.00 0.85 -0.61 10.36 -0.03 0.22 0.40 491
0.04 0.01 0.90 -0.70 10.66 -0.06 0.22 0.47 497
0.04 -0.00 0.91 -0.79 10.64 -0.12 0.22 0.55 503
0.05 -0.00 0.88 -0.91 10.67 -0.18 0.21 0.62 509
0.04 0.01 0.96 -1.19 10.41 -0.22 0.20 0.69 516
0.04 0.01 1.03 -1.51 10.09 -0.26 0.20 0.76 522
0.05 -0.00 1.07 -1.75 9.82 -0.27 0.21 0.82 528
0.05 -0.00 1.18 -2.00 9.61 -0.27 0.21 0.88 534
0.04 -0.00 1.20 -2.20 9.32 -0.24 0.23 0.94 541
0.05 0.00 1.37 -2.24 9.30 -0.21 0.26 0.99 547
0.05 0.00 1.52 -2.24 9.35 -0.18 0.27 1.06 553
0.04 -0.00 1.48 -2.17 9.53 -0.15 0.28 1.14 560
0.05 -0.00 1.37 -2.08 9.51 -0.12 0.25 1.22 566
0.03 -0.00 1.43 -1.95 9.47 -0.10 0.23 1.31 572
0.04 -0.00 1.49 -1.89 9.64 -0.10 0.21 1.37 578
0.06 -0.01 1.65 -1.89 9.83 -0.10 0.23 1.43 584
0.04 -0.00 1.73 -2.00 10.04 -0.11 0.26 1.47 590
0.05 -0.00 1.73 -2.05 10.04 -0.13 0.31 1.50 596
0.04 -0.00 1.55 -2.25 9.98 -0.17 0.34 1.51 603
0.05 0.01 1.35 -3.06 9.83 -0.20 0.36 1.50 609
0.05 -0.01 1.26 -2.58 9.80 -0.22 0.35 1.49 615
0.04 -0.00 1.35 -2.72 9.81 -0.23 0.35 1.47 621
0.05 -0.00 1.49 -2.79 9.73 -0.24 0.36 1.45 627
0.04 -0.00 1.64 -2.80 9.52 -0.25 0.38 1.42 633
0.05 -0.00 1.64 -2.88 9.45 -0.26 0.41 1.39 641
0.05 -0.01 1.49 -2.98 9.41 -0.27 0.44 1.35 647
0.05 -0.01 1.35 -3.05 9.33 -0.26 0.47 1.31 653
0.04 -0.00 1.25 -3.13 9.37 -0.25 0.49 1.26 659
0.04 -0.00 1.20 -3.11 9.45 -0.23 0.51 1.22 665
0.04 0.01 1.12 -3.18 9.51 -0.22 0.52 1.17 671
0.04 -0.00 1.11 -3.22 9.59 -0.21 0.53 1.11 677
0.04 -0.00 1.25 -3.24 9.78 -0.20 0.53 1.06 684
0.03 -0.00 1.43 -3.32 9.97 -0.20 0.56 0.99 690
0.04 -0.00 1.66 -3.34 10.09 -0.22 0.58 0.93 696
0.04 -0.00 1.82 -3.31 10.07 -0.24 0.62 0.89 702
0.04 -0.00 1.96 -3.25 10.00 -0.27 0.66 0.85 708
0.04 -0.00 1.90 -3.34 9.81 -0.29 0.71 0.81 714
0.03 -0.00 1.87 -3.49 9.61 -0.29 0.76 0.79 720
0.04 -0.00 1.79 -3.60 9.51 -0.28 0.79 0.76 727
0.05 -0.01 1.65 -3.67 9.42 -0.24 0.82 0.74 733
0.04 -0.00 1.49 -3.54 9.52 -0.20 0.86 0.73 740
0.04 -0.00 1.20 -3.40 9.45 -0.15 0.90 0.73 746
0.04 -0.00 0.84 -3.37 9.45 -0.12 0.92 0.74 752
0.04 -0.00 0.03 -3.28 9.72 -0.08 0.93 0.75 758
0.04 -0.00 0.39 -3.27 9.90 -0.05 0.91 0.76 764
0.05 -0.00 0.27 -3.23 10.08 -0.03 0.90 0.76 771
0.04 -0.00 0.30 -3.30 10.48 -0.03 0.88 0.76 777
0.04 -0.00 0.40 -3.31 10.88 -0.04 0.89 0.74 783
0.04 -0.00 0.32 -3.26 10.90 -0.08 0.91 0.72 789
0.04 -0.00 0.09 -3.37 10.68 -0.11 0.96 0.71 795
0.04 -0.00 -0.14 -3.50 10.67 -0.12 1.01 0.68 801
0.04 -0.00 -0.44 -3.59 10.71 -0.14 1.03 0.65 807
0.03 -0.00 -0.97 -3.59 10.43 -0.10 1.05 0.63 814
0.05 0.00 -1.48 -3.41 10.10 -0.11 1.05 0.62 820
0.05 -0.00 -1.92 -3.19 9.82 -0.07 1.03 0.63 827
0.04 -0.00 -2.43 -2.99 9.75 -0.01 1.01 0.64 833
0.03 -0.00 -2.95 -2.82 9.75 0.06 0.98 0.65 839
0.04 -0.00 -3.43 -2.71 9.82 0.13 0.93 0.67 845
0.04 -0.00 -3.84 -2.62 9.82 0.18 0.87 0.68 851
0.04 -0.00 -4.09 -2.55 9.88 0.22 0.79 0.68 858
0.04 -0.00 -4.32 -2.55 10.00 0.25 0.68 0.68 864
0.03 -0.00 -4.47 -2.55 10.05 0.26 0.55 0.68 870
0.03 -0.00 -4.44 -2.59 10.07 0.26 0.42 0.66 876
0.05 -0.01 -4.36 -2.54 10.02 0.25 0.29 0.65 882
0.04 -0.00 -3.98 -2.49 9.97 0.24 0.20 0.63 888
0.03 -0.00 -3.58 -2.44 9.92 0.20 0.15 0.61 894
0.02 -0.00 -3.38 -2.49 9.63 0.15 0.12 0.59 901
0.04 0.00 -3.34 -2.59 9.25 0.12 0.10 0.57 907
0.04 -0.00 -3.41 -2.73 8.87 0.12 0.07 0.57 913
0.03 -0.00 -3.46 -2.84 8.41 0.14 0.04 0.59 919
0.04 -0.00 -3.42 -2.84 8.09 0.19 -0.01 0.60 925
0.03 -0.00 -3.32 -2.76 7.74 0.25 -0.06 0.63 931
0.04 -0.00 -3.15 -2.39 7.39 0.30 -0.10 0.67 939
0.04 -0.00 -3.81 -1.89 7.18 0.34 -0.16 0.74 945
0.03 -0.00 -22.59 -4.97 26.99 0.19 -1.57 0.54 951
0.04 -0.00 -17.58 1.20 3.61 -0.29 -4.28 0.48 957
0.04 -0.00 -7.95 1.30 8.44 -0.16 -4.28 0.76 963
0.04 -0.00 -8.17 -6.91 9.81 -0.35 -4.28 0.83 969
0.04 -0.00 -5.85 -5.74 19.23 -0.08 -4.28 0.59 975
0.04 0.03 -11.75 0.69 32.34 0.47 -1.66 0.40 982
0.05 0.18 -5.73 0.86 9.42 -0.61 0.10 0.30 988
0.04 0.36 -6.12 -2.38 14.13 -0.55 -0.09 -0.06 995
0.03 0.46 -1.18 -1.03 12.75 -0.20 -0.05 -0.00 1001
0.02 0.46 0.86 -0.37 10.37 -0.01 -0.00 0.10 1007
0.02 0.46 1.68 0.54 9.67 0.04 0.01 0.17 1013
0.03 0.42 1.00 0.09 10.05 0.10 -0.01 0.18 1019
0.04 0.41 0.06 -0.94 10.40 0.11 -0.03 0.21 1026
0.07 0.39 0.65 -0.32 10.18 0.10 -0.06 0.20 1033
0.08 0.33 0.79 -0.52 9.70 0.08 -0.08 0.23 1039
0.08 0.28 0.43 -1.89 10.18 0.05 -0.08 0.23 1045
0.10 0.29 0.12 -1.86 9.82 -0.01 -0.05 0.17 1051
0.10 0.32 0.16 -1.50 9.78 -0.06 -0.02 0.11 1057
0.13 0.35 0.37 -0.64 9.83 -0.11 0.00 0.09 1063
0.10 0.41 0.62 -1.20 9.91 -0.14 0.01 0.07 1070
0.13 0.46 0.65 -0.95 10.30 -0.13 -0.00 0.05 1077
0.11 0.45 0.59 -0.79 10.37 -0.11 -0.01 0.04 1083
0.13 0.49 0.49 -0.76 10.19 -0.07 -0.02 0.04 1089
0.17 0.50 0.54 -0.76 10.05 -0.05 -0.02 0.04 1095
0.17 0.49 0.49 -0.82 9.91 -0.03 -0.02 0.05 1101
0.14 0.53 0.48 -0.84 9.97 -0.03 -0.02 0.05 1108
0.15 0.53 0.53 -0.92 9.99 -0.03 -0.02 0.05 1115
0.16 0.51 1.14 -0.88 9.97 -0.04 -0.02 0.05 1121
0.16 0.52 0.51 -0.88 10.08 -0.04 -0.01 0.04 1127
0.19 0.54 0.58 -0.82 9.98 -0.03 -0.01 0.04 1133
0.19 0.51 0.55 -0.86 10.05 -0.02 -0.01 0.04 1139
0.18 0.50 0.54 -0.87 10.09 -0.02 -0.01 0.04 1146
0.19 0.51 0.54 -0.87 10.01 -0.02 -0.01 0.03 1153
0.21 0.49 0.52 -0.87 9.92 -0.02 -0.01 0.03 1159
0.21 0.47 0.53 -0.83 9.99 -0.02 -0.00 0.03 1165
0.25 0.47 0.55 -0.85 10.00 -0.02 0.00 0.03 1171
0.26 0.46 0.54 -0.85 10.05 -0.02 0.01 0.03 1177
0.27 0.44 0.60 -0.82 10.06 -0.01 0.01 0.03 1184
0.27 0.44 0.57 -0.86 10.10 -0.01 0.02 0.03 1190
0.27 0.47 0.61 -0.85 10.04 -0.01 0.01 0.02 1197
0.24 0.43 0.63 -0.81 9.98 -0.00 0.02 0.02 1203
0.24 0.41 0.60 -0.83 10.03 -0.01 0.02 0.02 1209
0.27 0.40 0.60 -0.84 10.06 -0.00 0.02 0.02 1215
0.25 0.38 0.59 -0.83 10.05 -0.00 0.03 0.02 1222
0.22 0.37 0.64 -0.82 10.04 0.00 0.03 0.02 1228
0.22 0.36 0.65 -0.84 10.01 0.00 0.03 0.02 1234
0.22 0.36 0.67 -0.83 9.97 0.00 0.03 0.02 1241
0.21 0.33 0.62 -0.83 10.04 0.01 0.03 0.02 1247
0.22 0.36 0.65 -0.84 10.03 0.00 0.03 0.02 1253
0.23 0.30 0.68 -0.90 10.05 0.00 0.03 0.02 1260
0.21 0.28 0.64 -0.86 10.03 0.00 0.03 0.02 1266
0.23 0.31 0.67 -0.85 10.01 0.00 0.03 0.02 1272
0.20 0.29 0.67 -0.83 10.01 0.00 0.03 0.02 1278
0.20 0.29 0.69 -0.84 10.04 -0.00 0.03 0.02 1285
0.18 0.30 0.69 -0.83 9.98 -0.00 0.03 0.02 1291
0.19 0.27 0.68 -0.84 9.98 -0.00 0.02 0.02 1298
0.20 0.22 0.73 -0.86 10.02 0.00 0.02 0.02 1304
0.20 0.24 0.68 -0.85 10.03 0.00 0.02 0.02 1310
0.20 0.25 0.73 -0.82 10.00 0.01 0.02 0.02 1316
0.20 0.20 0.68 -0.82 10.01 0.01 0.02 0.02 1323
0.20 0.18 0.69 -0.85 10.02 0.01 0.02 0.02 1329
0.21 0.20 0.74 -0.82 9.98 0.01 0.02 0.02 1336
0.20 0.16 0.70 -0.86 10.01 0.00 0.01 0.02 1342
0.19 0.17 0.75 -0.87 10.06 0.00 0.01 0.02 1348
0.20 0.18 0.73 -0.84 10.02 -0.00 0.01 0.02 1354
0.21 0.13 0.71 -0.87 10.01 -0.03 0.00 0.02 1360
0.18 0.17 0.72 -0.86 9.97 -0.00 0.00 0.02 1367
0.18 0.19 0.70 -0.87 10.03 -0.00 0.03 0.02 1373
0.18 0.16 0.71 -0.86 10.02 -0.00 0.00 0.02 1380
0.17 0.15 0.70 -0.87 10.06 -0.00 0.01 0.02 1386
0.15 0.14 0.72 -0.85 10.05 0.00 0.01 0.02 1392
0.16 0.15 0.69 -0.83 9.97 0.00 0.01 0.02 1398
0.15 0.13 0.71 -0.84 10.02 0.00 0.01 0.02 1404
0.14 0.14 0.73 -0.83 9.98 0.00 0.02 0.02 1411
0.14 0.12 0.76 -0.85 9.98 0.01 0.02 0.02 1418
0.14 0.11 0.74 -0.85 9.95 0.00 0.01 0.02 1424
0.14 0.11 0.73 -0.87 9.91 0.00 0.01 0.02 1430
0.13 0.09 0.75 -0.82 10.01 0.00 0.01 0.02 1436
0.16 0.09 0.74 -0.85 9.98 -0.00 0.01 0.02 1442
0.14 0.07 0.75 -0.86 9.98 0.00 0.01 0.02 1448
0.13 0.06 0.75 -0.87 9.99 -0.00 0.01 0.02 1455
0.14 0.06 0.74 -0.86 9.99 -0.01 0.01 0.02 1461
0.15 0.04 0.78 -0.85 9.98 -0.01 0.01 0.02 1468
0.14 0.05 0.78 -0.87 9.94 -0.01 0.01 0.02 1474
0.13 0.04 0.78 -0.84 10.03 -0.02 0.01 0.02 1480
0.14 0.05 0.83 -0.87 10.00 -0.02 0.01 0.02 1486
0.14 0.04 0.78 -0.85 9.97 -0.02 0.01 0.02 1492
0.12 0.06 0.78 -0.86 9.99 -0.01 0.01 0.01 1499
0.13 0.07 0.77 -0.84 9.98 -0.01 0.00 0.02 1505
0.14 0.06 0.80 -0.85 10.02 -0.01 0.00 0.02 1512
0.13 0.04 0.79 -0.88 10.01 -0.01 -0.00 0.02 1518
0.12 0.07 0.80 -0.82 10.03 -0.00 -0.00 0.02 1524
0.13 0.05 0.78 -0.83 9.98 -0.00 -0.00 0.02 1530
0.12 0.06 0.79 -0.85 10.00 -0.00 -0.01 0.02 1537
0.12 0.03 0.83 -0.87 9.97 -0.00 -0.01 0.02 1543
0.13 0.05 0.81 -0.87 9.97 -0.01 -0.01 0.02 1549
0.13 0.04 0.80 -0.86 9.98 -0.01 -0.02 0.02 1556
0.13 0.04 0.81 -0.87 9.99 -0.02 -0.02 0.01 1562
0.14 0.05 0.81 -0.87 9.99 -0.02 -0.01 0.01 1568
0.16 0.06 0.77 -0.86 10.02 -0.02 -0.02 0.01 1574
0.14 0.05 0.78 -0.84 10.00 -0.02 -0.02 0.02 1581
0.13 0.06 0.75 -0.88 10.01 -0.02 -0.02 0.02 1587
0.14 0.06 0.79 -0.85 10.00 -0.02 -0.02 0.02 1594
0.13 0.06 0.78 -0.83 10.01 -0.02 -0.02 0.01 1600
0.11 0.07 0.80 -0.86 10.00 -0.02 -0.03 0.02 1606
0.13 0.09 0.81 -0.83 9.96 -0.02 -0.02 0.02 1612
0.12 0.09 0.85 -0.84 10.00 -0.02 -0.02 0.01 1618
0.11 0.10 0.83 -0.88 9.98 -0.03 -0.03 0.01 1625
0.11 0.11 0.80 -0.80 9.99 -0.02 -0.02 0.01 1631
0.10 0.13 0.80 -0.79 10.04 -0.02 -0.02 0.01 1638
0.09 0.10 0.76 -0.85 9.99 -0.01 -0.01 0.01 1644
0.08 0.10 0.77 -0.81 9.99 -0.01 -0.01 0.02 1650
0.09 0.12 0.80 -0.80 10.01 -0.01 -0.01 0.02 1656
0.08 0.11 0.87 -0.80 9.99 -0.01 -0.01 0.02 1662
0.08 0.10 0.86 -0.78 10.01 -0.01 -0.02 0.02 1669
0.08 0.12 0.79 -0.83 9.97 -0.01 -0.02 0.02 1675
0.09 0.11 0.81 -0.87 10.01 -0.01 -0.03 0.02 1682
0.09 0.11 0.81 -0.82 9.99 -0.01 -0.03 0.02 1688
0.08 0.12 0.80 -0.80 9.99 -0.01 -0.03 0.02 1694
0.12 0.11 0.79 -0.81 10.02 -0.01 -0.03 0.02 1700
0.11 0.10 0.80 -0.81 9.97 -0.00 -0.03 0.02 1707
0.09 0.11 0.81 -0.81 9.94 0.00 -0.04 0.02 1713
0.09 0.14 0.80 -0.84 9.97 -0.00 -0.04 0.02 1719
0.10 0.12 0.80 -0.89 9.99 -0.00 -0.05 0.02 1726
0.10 0.10 0.82 -0.87 9.97 -0.00 -0.05 0.02 1732
0.07 0.12 0.74 -0.89 9.97 -0.00 -0.06 0.02 1738
0.10 0.13 0.80 -0.83 10.01 -0.01 -0.06 0.02 1744
0.09 0.12 0.82 -0.86 10.00 -0.01 -0.06 0.02 1751
0.08 0.12 0.82 -0.85 10.02 -0.01 -0.06 0.02 1757
0.10 0.13 0.80 -0.81 9.97 -0.00 -0.06 0.02 1764
0.08 0.10 0.79 -0.84 9.99 -0.01 -0.06 0.02 1770
0.07 0.09 0.77 -0.86 9.98 -0.01 -0.07 0.02 1776
0.07 0.10 0.75 -0.84 9.99 -0.01 -0.06 0.02 1782
0.09 0.10 0.80 -0.85 10.00 -0.00 -0.06 0.02 1788
0.06 0.09 0.80 -0.83 9.97 -0.00 -0.06 0.03 1795
0.05 0.09 0.80 -0.83 10.02 -0.00 -0.06 0.03 1801
0.07 0.11 0.84 -0.85 10.03 0.01 -0.07 0.03 1808
0.06 0.08 0.85 -0.81 10.01 0.01 -0.07 0.03 1814
0.07 0.05 0.82 -0.86 10.05 0.02 -0.08 0.03 1820
0.07 0.07 0.83 -0.87 10.05 0.03 -0.09 0.03 1826
0.07 0.03 0.84 -0.86 9.99 0.03 -0.09 0.02 1832
0.08 0.01 0.79 -0.88 10.05 0.03 -0.09 0.02 1839
0.08 0.02 0.73 -0.90 10.07 0.04 -0.10 0.02 1845
0.10 -0.00 0.74 -0.91 10.10 0.05 -0.09 0.01 1852
0.09 -0.01 0.73 -0.90 10.11 0.06 -0.09 0.02 1858
0.10 -0.01 0.75 -0.92 10.13 0.08 -0.08 0.02 1864
0.12 -0.01 0.77 -0.97 10.17 0.09 -0.07 0.02 1870
0.10 -0.01 0.75 -0.96 10.17 0.11 -0.07 0.02 1876
0.10 -0.01 0.83 -0.91 10.31 0.14 -0.06 0.02 1883
0.12 -0.01 0.82 -1.04 10.28 0.19 -0.06 0.01 1889
0.12 -0.01 0.84 -1.02 10.56 0.29 -0.04 0.00 1896
0.12 -0.01 1.09 -1.15 10.79 0.39 -0.03 -0.02 1902
0.12 -0.01 1.60 -1.09 11.23 0.60 -0.03 -0.07 1908
0.13 -0.01 1.67 -1.21 11.87 0.90 -0.04 -0.12 1914
0.11 -0.01 1.46 -1.84 12.57 1.24 -0.06 -0.18 1921
0.11 -0.01 1.60 -0.57 13.06 1.49 -0.13 -0.23 1927
0.13 -0.01 1.51 -1.43 12.90 1.72 -0.21 -0.27 1934
0.12 -0.01 1.88 -1.67 13.39 1.89 -0.31 -0.32 1940
0.10 -0.01 1.87 -1.61 12.38 2.01 -0.40 -0.37 1946
0.10 -0.01 1.56 1.75 13.34 2.06 -0.50 -0.46 1952
0.11 -0.01 2.92 -2.10 12.23 2.09 -0.55 -0.53 1958
0.09 -0.01 3.80 -2.46 12.14 2.09 -0.56 -0.64 1965
0.07 0.01 4.46 -2.67 12.11 2.07 -0.48 -0.79 1972
0.07 -0.01 5.09 -2.73 11.91 2.00 -0.30 -0.95 1978
0.08 -0.01 6.10 -3.39 12.19 1.91 -0.12 -1.11 1984
0.07 0.00 7.20 -3.28 12.44 1.80 0.11 -1.27 1990
0.07 -0.01 6.50 -3.43 12.56 1.65 0.36 -1.43 1996
0.05 -0.00 6.76 -3.27 12.53 1.49 0.51 -1.62 2003
0.06 -0.00 5.96 -3.34 11.84 1.33 0.60 -1.78 2010
0.04 -0.00 5.50 -3.08 11.23 1.17 0.59 -1.95 2016
0.05 -0.00 4.35 -2.54 10.98 1.02 0.45 -2.12 2022
0.04 0.00 4.42 -1.54 10.24 0.86 0.19 -2.22 2028
0.04 -0.00 3.76 -1.14 8.89 0.69 -0.12 -2.28 2034
0.04 -0.00 3.60 -0.39 8.52 0.55 -0.49 -2.32 2041
0.02 -0.00 3.79 0.74 8.10 0.34 -0.81 -2.37 2048
0.04 -0.00 5.41 2.59 7.88 0.15 -1.14 -2.38 2054
0.03 -0.00 6.21 2.05 7.32 -0.01 -1.36 -2.28 2060
0.04 -0.00 6.47 1.01 7.32 -0.10 -1.44 -2.12 2066
0.03 -0.00 6.74 0.64 7.97 -0.18 -1.42 -1.96 2072
0.04 -0.00 7.31 1.27 7.80 -0.25 -1.35 -1.82 2078
0.04 -0.00 7.47 1.98 7.37 -0.30 -1.28 -1.71 2084
0.02 -0.00 7.37 2.09 7.01 -0.30 -1.25 -1.64 2091
0.03 -0.00 7.26 2.01 7.08 -0.29 -1.12 -1.55 2097
0.04 -0.00 7.51 2.00 7.44 -0.30 -0.92 -1.47 2104
0.03 -0.00 7.64 1.92 7.63 -0.32 -0.67 -1.38 2110
0.04 -0.00 7.60 1.83 7.93 -0.40 -0.38 -1.28 2116
0.04 -0.00 7.68 1.78 8.38 -0.43 -0.06 -1.18 2122
0.03 -0.00 7.63 1.56 8.92 -0.52 0.22 -1.06 2128
0.03 -0.00 7.17 1.28 9.04 -0.61 0.52 -0.95 2135
0.03 -0.00 6.39 0.85 8.80 -0.71 0.74 -0.81 2141
0.03 -0.00 5.61 0.37 8.67 -0.79 0.88 -0.67 2147
0.03 -0.00 4.96 -0.08 8.54 -0.83 0.93 -0.54 2153
0.03 -0.00 4.49 -0.64 8.75 -0.84 0.90 -0.42 2159
0.02 -0.00 4.19 -1.20 8.92 -0.83 0.87 -0.32 2166
0.02 -0.00 4.04 -1.57 9.17 -0.81 0.82 -0.25 2172
0.03 -0.00 4.15 -1.74 9.41 -0.79 0.81 -0.16 2179
0.03 -0.00 4.38 -1.81 9.72 -0.79 0.82 -0.08 2185
0.04 -0.00 4.40 -1.84 9.73 -0.82 0.87 -0.00 2191
0.03 -0.00 4.19 -1.91 9.77 -0.84 0.94 0.07 2197
0.04 -0.00 3.97 -2.10 9.90 -0.87 1.01 0.14 2203
0.03 -0.00 3.67 -2.32 10.05 -0.88 1.07 0.19 2209
0.03 -0.00 3.29 -2.61 10.22 -0.89 1.10 0.23 2215
0.03 -0.00 2.90 -2.91 10.30 -0.88 1.12 0.27 2223
0.05 -0.00 2.54 -3.04 10.29 -0.87 1.12 0.29 2229
0.03 -0.00 2.22 -3.14 10.36 -0.85 1.10 0.30 2235
0.03 -0.00 1.88 -3.13 10.42 -0.83 1.05 0.32 2241
0.04 -0.00 1.59 -3.18 10.36 -0.80 0.99 0.32 2247
0.03 -0.00 1.34 -3.14 10.37 -0.78 0.93 0.32 2253
0.02 -0.00 1.20 -3.02 10.69 -0.76 0.87 0.31 2260
0.03 0.00 1.32 -2.98 11.03 -0.75 0.84 0.30 2267
0.04 -0.00 1.20 -3.03 11.28 -0.76 0.83 0.27 2273
0.03 -0.00 1.03 -3.17 11.32 -0.78 0.85 0.26 2279
0.03 -0.00 0.96 -3.26 11.36 -0.81 0.85 0.23 2285
0.04 -0.00 0.91 -3.36 11.35 -0.82 0.86 0.21 2291
0.02 -0.00 0.87 -3.63 11.25 -0.81 0.85 0.18 2297
0.02 -0.00 0.88 -3.86 11.10 -0.80 0.85 0.15 2305
0.03 -0.00 1.00 -3.93 10.96 -0.77 0.85 0.13 2311
0.03 -0.00 1.04 -3.89 10.91 -0.72 0.86 0.12 2317
0.03 -0.00 1.11 -3.79 10.85 -0.65 0.86 0.14 2323
0.03 0.00 1.14 -3.58 10.82 -0.58 0.85 0.18 2329
0.02 -0.00 1.05 -3.21 10.78 -0.51 0.82 0.26 2335
0.02 -0.00 1.19 -2.85 10.69 -0.44 0.77 0.36 2342
0.03 -0.00 1.33 -2.53 10.68 -0.39 0.71 0.49 2349
0.03 -0.00 1.45 -2.36 10.62 -0.36 0.65 0.63 2355
0.03 -0.00 1.61 -2.38 10.59 -0.34 0.59 0.75 2361
0.02 -0.00 1.73 -2.65 10.64 -0.32 0.57 0.85 2367
0.03 -0.00 1.87 -2.95 10.58 -0.29 0.57 0.92 2373
0.02 -0.00 1.97 -3.12 10.62 -0.26 0.63 0.95 2379
0.01 -0.00 2.06 -3.20 10.76 -0.22 0.72 0.96 2386
0.03 -0.00 2.17 -3.11 10.73 -0.20 0.83 0.94 2393
0.03 -0.00 2.10 -2.98 10.61 -0.19 0.93 0.91 2399
0.03 -0.00 1.87 -2.83 10.56 -0.18 1.03 0.88 2405
0.03 -0.00 1.60 -2.75 10.64 -0.18 1.12 0.84 2411
0.05 -0.00 1.15 -2.62 10.69 -0.18 1.21 0.82 2417
0.03 -0.00 0.59 -2.56 10.69 -0.17 1.27 0.81 2424
0.02 -0.00 -0.25 -2.68 10.45 -0.17 1.34 0.81 2430
0.03 -0.00 -1.11 -2.77 10.42 -0.15 1.39 0.82 2437
0.03 -0.00 -1.83 -2.95 10.55 -0.12 1.40 0.82 2443
0.02 -0.00 -2.53 -3.12 10.58 -0.10 1.39 0.82 2449
0.02 0.01 -3.22 -3.22 10.47 -0.07 1.32 0.80 2455
0.03 -0.00 -3.78 -3.17 10.38 -0.05 1.26 0.80 2462
0.03 -0.00 -4.26 -3.23 10.38 -0.03 1.18 0.82 2468
0.03 0.00 -4.44 -3.34 10.45 -0.03 1.11 0.87 2475
0.04 -0.00 -4.71 -3.37 10.53 -0.03 1.01 0.96 2481
0.02 -0.00 -4.98 -3.52 10.50 -0.03 0.93 1.09 2487
0.03 -0.00 -5.32 -3.85 10.46 -0.03 0.81 1.23 2493
0.03 -0.00 -5.65 -4.21 10.52 -0.03 0.64 1.40 2500
0.02 -0.00 -5.99 -4.59 9.83 -0.02 0.42 1.51 2506
0.02 -0.00 -6.24 -4.97 10.14 -0.01 0.18 1.64 2512
0.03 -0.00 -6.31 -5.26 9.77 0.03 -0.07 1.72 2519
0.03 -0.00 -6.39 -5.74 9.47 0.07 -0.28 1.75 2525
0.03 -0.00 -6.45 -6.33 9.28 0.13 -0.43 1.72 2531
0.02 -0.00 -6.38 -6.79 8.96 0.21 -0.51 1.64 2537
0.03 0.00 -6.42 -7.15 8.71 0.32 -0.57 1.51 2543
0.03 -0.00 -9.54 -8.51 11.17 0.51 -0.89 1.41 2550
0.02 -0.00 -16.58 -9.55 13.29 0.89 -2.31 1.40 2556
0.04 -0.00 -11.27 -5.70 6.63 0.97 -2.93 1.41 2563
0.03 -0.00 -9.42 -5.59 5.90 1.02 -3.36 1.37 2569
0.02 -0.00 -10.61 -6.38 8.96 1.03 -3.94 1.37 2575
0.03 0.00 -10.73 -4.78 10.71 1.00 -4.28 1.40 2581
0.04 -0.00 -11.01 -1.39 12.45 0.88 -4.28 1.46 2588
0.03 -0.00 -5.53 2.05 16.87 0.66 -4.28 1.38 2594
0.04 0.02 -16.54 3.64 27.59 1.14 -2.40 0.83 2600
0.03 0.14 -12.44 1.37 13.57 0.02 -0.94 0.31 2607
-0.00 0.22 -3.45 -0.58 10.03 -0.20 -0.08 0.05 2614
0.03 0.34 -2.41 -1.17 12.22 -0.22 0.08 -0.03 2620
0.02 0.33 0.59 -0.99 11.16 -0.07 0.05 -0.02 2626
0.01 0.31 1.52 -0.62 10.47 0.06 -0.02 0.06 2632
0.04 0.26 1.67 -0.37 9.78 0.12 -0.05 0.15 2638
0.04 0.19 1.11 -0.50 9.96 0.14 -0.07 0.18 2644
0.04 0.18 0.56 -0.70 10.04 0.12 -0.07 0.18 2652
0.06 0.12 0.47 -0.78 10.08 0.09 -0.07 0.15 2658
0.06 0.09 0.58 -0.63 9.77 0.06 -0.06 0.14 2664
0.07 0.10 0.74 -1.06 9.98 0.04 -0.05 0.15 2670
0.07 0.12 0.33 -1.53 10.18 0.02 -0.04 0.15 2676
0.07 0.10 0.30 -1.47 9.80 -0.01 -0.03 0.13 2682
0.06 0.13 0.46 -1.01 9.86 -0.03 -0.02 0.12 2690
0.06 0.18 0.57 -0.90 9.81 -0.06 -0.02 0.11 2696
0.11 0.23 0.86 -0.91 10.06 -0.09 -0.03 0.07 2702
0.08 0.25 0.80 -1.10 10.15 -0.11 -0.04 0.08 2708
0.06 0.28 0.72 -1.08 10.18 -0.11 -0.05 0.06 2714
0.08 0.33 0.57 -0.91 10.03 -0.10 -0.06 0.05 2720
0.09 0.33 0.40 -0.74 10.26 -0.09 -0.06 0.05 2727
0.10 0.35 0.41 -0.78 10.07 -0.08 -0.04 0.05 2734
0.10 0.39 0.45 -0.78 9.89 -0.08 -0.03 0.06 2740
0.10 0.38 0.48 -0.72 10.21 -0.07 -0.02 0.07 2746
0.11 0.43 0.61 -0.77 10.12 -0.06 -0.02 0.07 2752
0.14 0.44 0.65 -0.78 10.04 -0.06 -0.03 0.08 2759
0.15 0.42 0.74 -0.84 9.98 -0.06 -0.04 0.07 2765
0.17 0.45 0.62 -0.87 10.10 -0.06 -0.04 0.07 2771
0.18 0.44 0.61 -0.84 10.07 -0.06 -0.05 0.06 2778
0.19 0.45 0.57 -0.81 10.08 -0.06 -0.05 0.06 2784
0.19 0.42 0.38 -0.62 10.28 -0.06 -0.04 0.07 2791
0.23 0.42 0.59 -0.86 10.07 -0.05 -0.05 0.05 2797
0.24 0.44 0.61 -0.76 10.08 -0.03 -0.04 0.05 2803
0.23 0.46 0.68 -0.78 10.09 -0.03 -0.03 0.04 2809
0.23 0.42 0.60 -0.76 10.02 -0.02 -0.03 0.04 2816
0.23 0.40 0.63 -0.77 9.98 -0.02 -0.02 0.04 2822
0.23 0.43 0.65 -0.80 9.97 -0.01 -0.02 0.04 2829
0.24 0.42 0.61 -0.77 10.04 -0.01 -0.02 0.04 2835
0.25 0.37 0.64 -0.79 10.01 -0.01 -0.03 0.04 2841
0.27 0.37 0.06 -0.77 9.99 -0.01 -0.03 0.03 2847
0.30 0.37 0.65 -0.81 10.07 -0.01 -0.03 0.03 2853
0.27 0.36 0.65 -0.78 10.05 -0.00 -0.03 0.04 2860
0.27 0.36 0.62 -0.75 10.02 0.00 -0.03 0.03 2867
0.29 0.32 0.63 -0.79 10.05 0.00 -0.02 0.03 2873
0.29 0.29 0.62 -0.81 10.04 0.01 -0.02 0.03 2879
0.30 0.26 0.64 -0.75 10.00 0.01 -0.02 0.03 2885
0.32 0.29 0.66 -0.75 10.02 0.01 -0.01 0.03 2891
0.32 0.22 0.65 -0.78 10.03 0.01 -0.02 0.04 2898
0.32 0.19 0.64 -0.80 10.04 0.01 -0.01 0.03 2905
0.33 0.21 0.64 -0.77 10.01 0.01 -0.01 0.03 2911
0.32 0.22 0.65 -0.79 9.99 0.01 -0.01 0.03 2917
0.31 0.20 0.64 -0.79 10.00 0.01 -0.01 0.03 2923
0.31 0.20 0.63 -0.81 9.99 0.01 -0.01 0.03 2929
0.32 0.14 0.66 -0.77 10.00 0.01 -0.01 0.03 2936
0.32 0.12 0.68 -0.79 10.03 0.01 -0.01 0.03 2942
0.33 0.13 0.69 -0.74 9.99 0.01 -0.01 0.03 2949
0.33 0.11 0.69 -0.78 9.98 0.01 -0.02 0.03 2955
0.33 0.11 0.69 -0.80 9.99 0.01 -0.02 0.03 2961
0.33 0.12 0.68 -0.78 9.98 0.00 -0.02 0.03 2967
0.36 0.11 0.70 -0.84 9.97 -0.00 -0.02 0.02 2973
0.35 0.13 0.68 -0.83 9.96 -0.00 -0.03 0.03 2980
0.34 0.13 0.69 -0.80 9.97 -0.01 -0.03 0.02 2987
0.35 0.13 0.70 -0.83 10.01 -0.01 -0.02 0.02 2993
0.36 0.12 0.67 -0.81 10.00 -0.01 -0.03 0.02 2999
0.33 0.11 0.69 -0.76 9.99 -0.01 -0.02 0.02 3005
0.33 0.14 0.71 -0.77 10.00 -0.02 -0.02 0.02 3011
0.33 0.14 0.68 -0.80 9.98 -0.02 -0.02 0.03 3018
0.32 0.13 0.67 -0.81 9.92 -0.02 -0.01 0.02 3024
0.31 0.14 0.64 -0.78 9.98 -0.03 -0.01 0.02 3031
0.30 0.18 0.67 -0.78 9.99 -0.03 -0.00 0.02 3037
0.27 0.18 0.65 -0.78 9.94 -0.03 0.00 0.02 3043
0.24 0.19 0.63 -0.72 9.99 -0.03 0.00 0.03 3049
0.25 0.19 0.68 -0.78 10.03 -0.02 0.01 0.02 3055
0.25 0.18 0.69 -0.75 10.03 -0.01 0.01 0.02 3062
0.24 0.16 0.70 -0.74 10.05 -0.01 0.01 0.02 3068
0.24 0.18 0.66 -0.76 10.00 -0.00 0.01 0.02 3075
0.24 0.16 0.67 -0.78 10.01 -0.00 0.01 0.02 3081
0.24 0.14 0.73 -0.78 9.99 -0.00 0.01 0.02 3087
0.23 0.15 0.72 -0.77 9.98 -0.00 0.01 0.02 3093
0.24 0.16 0.69 -0.77 10.05 -0.00 0.01 0.02 3100
0.23 0.16 0.71 -0.77 9.99 -0.00 0.01 0.02 3106
0.20 0.16 0.72 -0.76 9.97 -0.01 0.01 0.02 3112
0.21 0.16 0.69 -0.76 9.96 -0.01 0.01 0.02 3119
0.22 0.15 0.70 -0.80 9.99 -0.01 0.01 0.02 3125
0.21 0.13 0.73 -0.78 9.99 -0.01 0.02 0.02 3131
0.19 0.15 0.72 -0.74 9.98 -0.01 0.01 0.02 3137
0.21 0.15 0.75 -0.77 10.06 -0.00 0.02 0.02 3144
0.19 0.14 0.72 -0.76 10.01 -0.00 0.02 0.02 3150
0.20 0.12 0.73 -0.78 9.98 -0.00 0.01 0.02 3156
0.22 0.11 0.74 -0.80 9.98 -0.00 0.00 0.02 3163
0.20 0.10 0.74 -0.79 10.02 -0.01 0.00 0.02 3169
0.18 0.09 0.78 -0.79 9.97 -0.01 -0.01 0.02 3175
0.17 0.11 0.75 -0.79 9.97 -0.02 -0.01 0.02 3181
0.16 0.12 0.73 -0.78 10.03 -0.02 -0.01 0.02 3188
0.15 0.12 0.77 -0.78 10.01 -0.02 -0.01 0.02 3194
0.15 0.15 0.76 -0.77 9.95 -0.03 -0.02 0.02 3201
0.15 0.14 0.76 -0.77 9.98 -0.03 -0.02 0.02 3207
0.14 0.14 0.74 -0.77 10.00 -0.02 -0.02 0.02 3213
0.13 0.15 0.79 -0.72 9.96 -0.02 -0.02 0.02 3219
0.13 0.17 0.77 -0.77 9.97 -0.02 -0.03 0.02 3226
0.14 0.17 0.76 -0.78 9.96 -0.02 -0.03 0.02 3232
0.12 0.16 0.75 -0.75 10.00 -0.02 -0.04 0.02 3238
0.13 0.18 0.76 -0.78 10.02 -0.03 -0.04 0.02 3245
0.12 0.18 0.72 -0.79 10.03 -0.03 -0.04 0.02 3251
0.13 0.19 0.72 -0.77 10.03 -0.03 -0.04 0.03 3257
0.13 0.20 0.71 -0.77 10.00 -0.03 -0.03 0.03 3264
0.11 0.24 0.73 -0.75 10.03 -0.02 -0.03 0.03 3270
0.09 0.24 0.74 -0.76 9.99 -0.03 -0.03 0.03 3276
0.09 0.25 0.78 -0.74 9.99 -0.02 -0.03 0.03 3282
0.09 0.29 0.72 -0.77 10.00 -0.03 -0.02 0.03 3289
0.08 0.28 0.72 -0.77 10.02 -0.03 -0.02 0.03 3295
0.08 0.34 0.73 -0.73 10.04 -0.03 -0.03 0.03 3302
0.08 0.37 0.74 -0.73 10.02 -0.02 -0.03 0.03 3308
0.08 0.38 0.72 -0.75 10.06 -0.02 -0.03 0.03 3314
0.07 0.40 0.77 -0.71 9.99 -0.02 -0.03 0.03 3320
0.07 0.38 0.76 -0.77 9.99 -0.02 -0.03 0.03 3326
0.06 0.44 0.72 -0.76 10.01 -0.02 -0.04 0.03 3333
0.06 0.45 0.72 -0.76 10.02 -0.02 -0.04 0.03 3340
0.08 0.41 0.68 -0.72 9.99 -0.02 -0.03 0.03 3346
0.06 0.43 0.71 -0.74 9.87 -0.02 -0.03 0.03 3352
0.05 0.47 0.75 -0.65 9.98 -0.02 -0.03 0.03 3358
0.05 0.48 0.72 -0.64 9.98 -0.01 -0.02 0.04 3364
0.06 0.49 0.75 -0.70 10.04 0.00 -0.01 0.04 3371
0.05 0.47 0.73 -0.74 10.01 0.00 -0.01 0.03 3377
0.05 0.45 0.77 -0.73 9.94 0.00 -0.02 0.04 3384
0.07 0.42 0.78 -0.72 10.03 0.01 -0.02 0.03 3390
0.06 0.41 0.78 -0.72 10.04 0.01 -0.02 0.04 3396
0.05 0.41 0.82 -0.74 9.98 0.02 -0.02 0.04 3402
0.07 0.37 0.80 -0.74 9.97 0.02 -0.04 0.04 3408
0.07 0.34 0.79 -0.74 10.00 0.02 -0.04 0.04 3415
0.07 0.29 0.79 -0.79 9.98 0.02 -0.04 0.03 3422
0.08 0.25 0.79 -0.77 10.01 0.02 -0.04 0.03 3428
0.08 0.20 0.73 -0.73 10.09 0.03 -0.04 0.03 3434
0.08 0.15 0.77 -0.71 10.03 0.04 -0.04 0.03 3440
0.08 0.11 0.74 -0.77 9.90 0.04 -0.04 0.03 3446
0.09 0.10 0.80 -0.76 10.03 0.05 -0.04 0.03 3452
0.07 0.03 0.78 -0.69 10.14 0.07 -0.04 0.03 3460
0.08 0.03 0.84 -0.76 10.22 0.10 -0.05 0.02 3466
0.09 -0.00 0.85 -0.79 10.35 0.15 -0.07 0.02 3472
0.09 -0.01 0.86 -1.06 10.47 0.19 -0.09 0.01 3478
0.07 -0.01 1.09 -0.97 10.76 0.25 -0.11 -0.02 3484
0.08 -0.00 1.62 -0.91 11.00 0.37 -0.13 -0.09 3490
0.08 -0.01 2.39 -1.08 12.32 0.62 -0.10 -0.26 3497
0.08 -0.01 2.08 -1.77 13.42 1.09 -0.08 -0.41 3504
0.15 -0.01 2.06 -1.42 14.82 1.66 -0.17 -0.51 3510
0.13 -0.01 2.19 -1.43 13.96 2.03 -0.30 -0.58 3516
0.12 -0.01 2.89 -3.64 14.23 2.18 -0.51 -0.69 3522
0.12 -0.00 3.26 -1.98 13.06 2.24 -0.60 -0.76 3528
0.08 -0.01 3.76 -2.08 12.33 2.28 -0.70 -0.88 3535
0.14 -0.01 3.96 -2.41 12.09 2.27 -0.76 -1.01 3542
0.10 -0.00 5.05 -3.25 11.61 2.23 -0.81 -1.15 3548
0.10 -0.01 6.13 -2.95 12.05 2.16 -0.77 -1.30 3554
0.07 -0.01 7.61 -4.35 11.86 2.08 -0.62 -1.47 3560
0.06 0.00 8.89 -4.20 12.05 2.03 -0.31 -1.70 3567
0.05 -0.01 8.31 -4.40 12.71 1.91 0.12 -1.98 3573
0.05 -0.00 8.41 -3.82 13.37 1.73 0.42 -2.26 3579
0.05 0.00 6.92 -3.83 13.62 1.56 0.59 -2.50 3586
0.04 0.00 6.83 -3.44 13.46 1.41 0.54 -2.65 3592
0.03 -0.00 5.96 -2.92 12.25 1.26 0.38 -2.78 3598
0.04 0.01 5.35 -3.08 11.35 1.08 0.09 -2.89 3605
0.04 -0.00 5.33 -2.05 10.66 0.89 -0.25 -3.01 3611
0.04 -0.00 4.85 -1.96 9.82 0.70 -0.62 -3.11 3617
0.05 -0.00 4.89 -1.19 9.07 0.52 -0.97 -3.18 3623
0.05 -0.01 5.98 -0.58 8.15 0.39 -1.27 -3.17 3630
0.04 -0.00 7.73 -0.00 7.10 0.29 -1.49 -2.96 3636
0.03 -0.00 7.85 -0.15 6.73 0.23 -1.52 -2.53 3642
0.04 -0.00 8.08 -0.32 8.54 0.13 -1.34 -2.09 3648
0.05 -0.01 9.19 0.26 9.01 -0.12 -1.16 -1.65 3655
0.04 -0.00 9.08 0.91 8.05 -0.35 -1.14 -1.28 3661
0.03 -0.00 8.26 1.13 7.57 -0.43 -1.15 -0.96 3667
0.03 -0.00 7.71 1.10 6.87 -0.45 -1.07 -0.67 3674
0.05 -0.00 7.54 1.25 6.24 -0.40 -0.93 -0.41 3680
0.04 -0.00 7.63 1.25 5.97 -0.32 -0.72 -0.24 3686
0.04 -0.00 7.76 1.44 5.99 -0.24 -0.46 -0.09 3692
0.03 -0.00 7.66 1.65 5.98 -0.16 -0.13 0.02 3698
0.04 -0.00 7.22 1.72 6.12 -0.13 0.23 0.10 3704
0.03 -0.00 6.43 1.86 6.18 -0.10 0.58 0.18 3710
0.04 -0.00 4.98 1.99 6.60 -0.08 0.84 0.27 3718
0.04 -0.00 4.95 2.06 7.46 -0.08 1.08 0.35 3724
0.05 0.00 4.42 2.19 8.03 -0.09 1.21 0.43 3730
0.03 0.00 3.89 2.29 8.57 -0.12 1.25 0.51 3736
0.02 -0.00 3.42 2.39 8.99 -0.20 1.26 0.59 3742
0.03 0.01 3.27 2.45 9.51 -0.28 1.26 0.67 3748
0.05 0.00 3.26 2.27 9.88 -0.40 1.27 0.73 3755
0.04 -0.00 3.23 1.97 10.36 -0.53 1.28 0.78 3761
0.03 -0.00 2.97 1.62 10.72 -0.66 1.33 0.79 3768
0.05 0.00 2.53 0.98 10.96 -0.79 1.37 0.74 3774
0.04 -0.00 2.01 0.29 10.43 -0.92 1.39 0.71 3780
0.03 -0.00 1.52 -0.50 11.06 -1.04 1.35 0.61 3786
0.04 0.01 1.17 -1.20 11.23 -1.14 1.27 0.49 3792
0.03 -0.00 1.08 -1.62 11.37 -1.21 1.16 0.38 3799
0.03 -0.00 1.21 -1.88 11.28 -1.25 1.07 0.27 3806
0.04 0.02 1.48 -2.17 11.10 -1.28 1.01 0.19 3812
0.04 -0.00 1.69 -2.58 10.96 -1.30 0.98 0.13 3818
0.04 -0.00 1.86 -2.99 10.94 -1.31 0.97 0.10 3824
0.04 0.01 2.03 -3.26 10.91 -1.29 0.98 0.11 3830
0.04 -0.00 2.09 -3.38 10.89 -1.25 1.00 0.15 3837
0.04 -0.00 2.00 -3.53 10.67 -1.17 1.02 0.24 3844
0.03 -0.00 1.89 -3.65 10.63 -1.09 1.04 0.34 3850
0.05 -0.00 1.71 -3.85 10.67 -0.99 1.04 0.45 3856
0.04 -0.00 1.55 -4.01 10.91 -0.90 1.06 0.56 3862
0.03 -0.00 1.37 -4.07 11.26 -0.82 1.10 0.66 3868
0.04 0.00 0.97 -4.16 11.55 -0.75 1.16 0.76 3874
0.03 -0.00 0.32 -4.28 11.69 -0.70 1.20 0.84 3881
0.03 0.00 -0.25 -4.40 11.81 -0.66 1.19 0.91 3888
0.03 0.00 -0.95 -4.45 11.93 -0.63 1.13 0.96 3894
0.04 -0.00 -1.56 -4.56 11.78 -0.61 1.02 1.00 3900
0.02 -0.00 -2.11 -4.58 11.59 -0.57 0.89 1.03 3906
0.03 -0.00 -2.43 -4.62 11.37 -0.55 0.73 1.03 3912
0.04 -0.00 -2.44 -4.44 11.16 -0.52 0.60 0.99 3919
0.03 -0.00 -2.12 -4.31 10.95 -0.49 0.52 0.91 3926
0.04 -0.00 -1.66 -4.18 10.88 -0.48 0.49 0.81 3932
0.04 -0.00 -1.08 -4.04 10.93 -0.48 0.48 0.67 3938
0.04 -0.00 -0.80 -3.91 10.74 -0.50 0.50 0.52 3944
0.04 -0.00 -0.85 -3.82 10.56 -0.51 0.56 0.38 3950
0.05 -0.00 -0.87 -3.82 10.45 -0.51 0.63 0.29 3957
0.03 -0.00 -1.00 -4.03 10.41 -0.50 0.66 0.19 3963
0.03 -0.00 -1.14 -4.19 10.43 -0.49 0.67 0.10 3970
0.04 0.00 -1.15 -4.28 10.53 -0.47 0.67 0.04 3976
0.03 -0.00 -1.28 -4.36 10.49 -0.46 0.68 -0.01 3982
0.03 -0.00 -1.40 -4.42 10.39 -0.45 0.68 -0.04 3988
0.03 0.00 -1.60 -4.53 10.25 -0.44 0.65 -0.05 3995
0.03 -0.00 -1.58 -4.71 10.18 -0.42 0.59 -0.04 4001
0.03 -0.00 -1.45 -4.86 10.11 -0.39 0.52 -0.01 4007
0.03 0.00 -0.64 -4.95 9.82 -0.36 0.46 0.03 4014
0.04 -0.00 -1.16 -5.00 9.42 -0.31 0.44 0.12 4020
0.03 -0.00 -1.17 -5.05 9.15 -0.23 0.46 0.19 4026
0.03 -0.00 -1.25 -5.03 9.08 -0.13 0.51 0.32 4032
0.04 -0.00 -1.46 -5.03 9.18 -0.02 0.56 0.47 4038
0.04 -0.00 -1.99 -5.02 9.22 0.07 0.59 0.62 4045
0.04 -0.00 -2.63 -5.13 9.25 0.16 0.54 0.77 4051
0.03 -0.00 -3.39 -5.15 9.31 0.25 0.48 0.88 4058
0.04 -0.00 -3.90 -5.15 9.47 0.30 0.34 0.96 4064
0.04 -0.00 -4.21 -5.09 9.61 0.35 0.20 1.02 4070
0.03 -0.00 -4.31 -5.06 9.81 0.36 0.09 1.06 4076
0.02 -0.00 -4.35 -4.93 10.01 0.35 0.02 1.08 4082
0.02 -0.00 -4.49 -4.77 10.10 0.33 -0.01 1.08 4088
0.03 -0.00 -4.60 -4.58 10.13 0.29 -0.04 1.09 4094
0.03 -0.00 -4.71 -4.33 9.94 0.24 -0.09 1.10 4102
0.02 -0.00 -4.81 -4.11 9.47 0.18 -0.17 1.12 4108
0.03 -0.00 -4.82 -3.93 8.80 0.14 -0.29 1.17 4114
0.02 -0.00 -4.72 -3.82 8.15 0.12 -0.43 1.23 4120
0.03 -0.00 -4.39 -3.53 7.35 0.13 -0.56 1.29 4126
0.03 -0.00 -4.06 -3.21 6.68 0.16 -0.67 1.36 4132
0.04 -0.00 -3.82 -2.90 6.11 0.22 -0.74 1.43 4139
0.03 -0.00 -12.51 -3.60 21.84 0.47 -1.66 1.50 4145
0.02 -0.00 -25.68 -3.62 8.08 0.61 -4.28 1.83 4152
0.03 0.00 -3.99 0.09 2.67 0.42 -4.28 2.02 4158
0.03 -0.00 3.63 -1.77 8.71 0.19 -4.28 1.74 4164
0.03 0.05 -28.80 16.36 49.02 1.11 -3.31 0.99 4170
0.00 0.25 -9.40 -3.31 18.23 -0.36 -0.49 0.48 4176
0.02 0.46 -7.75 -0.91 15.67 -0.42 -0.17 0.22 4184
0.03 0.55 -3.22 0.20 12.16 -0.15 -0.18 -0.11 4190
0.01 0.56 1.06 -0.06 10.49 0.09 -0.09 0.01 4196
-0.02 0.49 2.03 0.14 9.69 0.15 -0.05 0.14 4202
0.04 0.39 1.46 -0.06 10.00 0.17 -0.11 0.21 4208
0.06 0.33 0.84 -0.48 9.82 0.11 -0.16 0.25 4215
0.04 0.30 0.58 -0.85 9.82 0.09 -0.14 0.24 4221
0.05 0.24 0.71 -1.00 9.68 0.06 -0.14 0.20 4228
0.06 0.27 0.66 -1.04 9.97 0.01 -0.14 0.19 4234
0.06 0.25 0.50 -1.28 9.97 -0.03 -0.12 0.16 4240
0.07 0.27 -0.08 -1.66 10.06 -0.06 -0.08 0.11 4246
0.06 0.32 0.18 -1.04 9.98 -0.07 -0.05 0.07 4252
0.08 0.36 0.49 -0.87 9.81 -0.10 -0.04 0.06 4259
0.08 0.38 0.78 -0.94 9.86 -0.12 -0.03 0.05 4265
0.10 0.43 0.62 -0.85 10.33 -0.11 -0.04 0.04 4272
0.12 0.44 0.65 -0.68 10.29 -0.08 -0.04 0.04 4278
0.13 0.47 0.59 -0.65 10.15 -0.06 -0.03 0.05 4284
0.11 0.51 0.61 -0.74 10.21 -0.05 -0.04 0.05 4291
0.13 0.50 0.50 -0.86 10.02 -0.05 -0.04 0.06 4297
0.14 0.53 0.58 -0.71 9.90 -0.05 -0.03 0.07 4303
0.13 0.51 0.63 -0.75 10.02 -0.05 -0.04 0.05 4310
0.14 0.53 0.66 -0.79 10.00 -0.05 -0.04 0.05 4316
0.12 0.54 0.68 -0.80 10.04 -0.05 -0.05 0.04 4323
0.12 0.53 0.61 -0.75 10.03 -0.04 -0.05 0.04 4329
0.12 0.54 0.60 -0.73 10.06 -0.03 -0.04 0.04 4335
0.13 0.51 0.61 -0.75 10.13 -0.03 -0.04 0.04 4341
0.13 0.54 0.67 -0.77 10.05 -0.03 -0.04 0.03 4347
0.15 0.52 0.65 -0.81 10.00 -0.03 -0.04 0.04 4355
0.14 0.52 0.69 -0.79 9.99 -0.03 -0.04 0.03 4361
0.17 0.52 0.65 -0.76 10.00 -0.03 -0.03 0.03 4367
0.18 0.54 0.62 -0.75 10.02 -0.02 -0.03 0.03 4373
0.16 0.53 0.63 -0.74 10.08 -0.02 -0.03 0.02 4379
0.16 0.54 0.68 -0.69 10.06 -0.02 -0.02 0.02 4385
0.16 0.53 0.67 -0.77 10.10 -0.01 -0.03 0.02 4392
0.17 0.49 0.68 -0.77 9.98 -0.01 -0.03 0.02 4399
0.19 0.50 0.69 -0.74 10.04 -0.01 -0.03 0.02 4405
0.20 0.48 0.65 -0.72 10.03 -0.01 -0.04 0.02 4411
0.20 0.47 0.63 -0.74 10.02 -0.01 -0.04 0.02 4417
0.21 0.48 0.65 -0.77 10.00 -0.02 -0.04 0.02 4424
0.19 0.47 0.66 -0.74 10.00 -0.02 -0.04 0.02 4430
0.22 0.46 0.63 -0.70 10.03 -0.01 -0.03 0.01 4436
0.22 0.50 0.66 -0.72 10.00 -0.01 -0.03 0.01 4443
0.20 0.48 0.65 -0.73 10.06 -0.01 -0.03 0.02 4449
0.19 0.47 0.66 -0.73 9.99 -0.01 -0.03 0.02 4455
0.19 0.47 0.63 -0.74 10.02 -0.01 -0.02 0.01 4462
0.21 0.47 0.63 -0.72 9.99 -0.01 -0.02 0.02 4468
0.20 0.45 0.64 -0.73 10.04 -0.01 -0.02 0.01 4474
0.18 0.47 0.67 -0.74 10.02 -0.01 -0.01 0.02 4481
0.19 0.47 0.67 -0.74 10.01 -0.01 -0.01 0.02 4487
0.16 0.47 0.68 -0.73 10.00 -0.02 -0.00 0.02 4494
0.17 0.48 0.66 -0.75 10.01 -0.02 -0.00 0.02 4500
0.17 0.47 0.67 -0.73 10.03 -0.01 -0.00 0.02 4506
0.17 0.47 0.63 -0.72 9.96 -0.02 -0.00 0.02 4512
0.15 0.48 0.68 -0.70 10.03 -0.01 -0.01 0.02 4518
0.16 0.49 0.63 -0.73 10.03 -0.01 -0.01 0.02 4525
0.17 0.48 0.69 -0.69 10.05 -0.01 -0.01 0.02 4532
0.15 0.48 0.66 -0.74 10.02 -0.01 -0.00 0.02 4538
0.15 0.48 0.69 -0.73 10.02 -0.01 -0.00 0.02 4544
0.14 0.47 0.66 -0.72 9.99 -0.01 -0.00 0.02 4550
0.15 0.47 0.68 -0.71 9.98 -0.01 -0.00 0.02 4556
0.16 0.47 0.68 -0.73 9.98 -0.01 -0.00 0.02 4562
0.13 0.47 0.71 -0.74 9.96 -0.01 -0.01 0.02 4570
0.12 0.46 0.72 -0.70 10.03 -0.01 -0.01 0.02 4576
0.14 0.48 0.68 -0.71 9.99 -0.02 -0.01 0.02 4582
0.14 0.46 0.68 -0.74 10.03 -0.02 -0.01 0.02 4588
0.13 0.46 0.67 -0.74 10.04 -0.02 -0.01 0.02 4594
0.13 0.49 0.69 -0.75 10.04 -0.02 -0.01 0.02 4600
0.12 0.49 0.70 -0.70 9.97 -0.03 -0.01 0.02 4608
0.12 0.51 0.67 -0.70 10.00 -0.02 -0.01 0.02 4614
0.12 0.54 0.69 -0.73 10.04 -0.02 -0.01 0.02 4620
0.12 0.57 0.70 -0.72 10.01 -0.02 -0.01 0.02 4626
0.11 0.58 0.71 -0.71 10.05 -0.02 -0.01 0.02 4632
0.09 0.63 0.71 -0.72 10.01 -0.02 -0.01 0.03 4639
0.09 0.63 0.70 -0.70 10.02 -0.02 -0.01 0.02 4645
0.08 0.63 0.70 -0.68 10.03 -0.02 -0.01 0.02 4652
0.06 0.66 0.68 -0.72 9.99 -0.01 -0.01 0.02 4658
0.06 0.62 0.70 -0.66 10.05 -0.02 -0.02 0.02 4664
0.05 0.69 0.69 -0.71 10.04 -0.02 -0.02 0.02 4670
0.05 0.71 0.71 -0.70 9.95 -0.02 -0.01 0.02 4677
0.06 0.71 0.71 -0.67 9.99 -0.02 -0.02 0.02 4683
0.05 0.72 0.72 -0.65 10.01 -0.02 -0.02 0.02 4689
0.04 0.71 0.71 -0.71 10.02 -0.02 -0.02 0.02 4696
0.04 0.76 0.72 -0.67 10.02 -0.02 -0.02 0.02 4702
0.03 0.76 0.71 -0.68 9.98 -0.02 -0.02 0.02 4708
0.02 0.80 0.71 -0.70 9.97 -0.01 -0.01 0.02 4715
0.01 0.82 0.74 -0.68 10.01 -0.01 -0.01 0.02 4721
0.01 0.81 0.69 -0.63 10.04 -0.01 -0.01 0.02 4727
0.01 0.82 0.67 -0.70 9.99 -0.02 -0.01 0.02 4733
0.04 0.81 0.70 -0.67 10.00 -0.02 -0.00 0.02 4740
0.03 0.80 0.73 -0.69 9.97 -0.02 0.00 0.02 4746
0.02 0.84 0.71 -0.67 10.00 -0.01 0.01 0.02 4752
0.01 0.86 0.73 -0.68 10.00 -0.00 0.01 0.02 4759
0.02 0.86 0.73 -0.68 10.00 -0.01 0.01 0.02 4765
0.01 0.86 0.74 -0.65 10.03 -0.00 0.01 0.02 4771
0.01 0.85 0.73 -0.67 9.95 -0.00 0.01 0.02 4777
0.02 0.89 0.76 -0.69 10.01 0.00 0.01 0.02 4784
0.02 0.92 0.74 -0.69 9.93 -0.00 0.00 0.02 4790
0.01 0.89 0.75 -0.66 9.99 -0.01 0.00 0.02 4797
0.01 0.93 0.77 -0.68 10.01 -0.01 0.00 0.02 4803
0.01 0.92 0.73 -0.67 9.99 -0.01 0.00 0.02 4809
0.02 0.87 0.73 -0.68 10.00 -0.02 0.01 0.02 4815
0.01 0.88 0.72 -0.66 10.01 -0.01 0.01 0.02 4822
0.01 0.89 0.73 -0.67 10.03 -0.01 0.01 0.02 4828
0.01 0.90 0.75 -0.66 10.02 -0.01 0.01 0.02 4835
0.00 0.95 0.76 -0.69 10.01 -0.01 0.01 0.02 4841
0.02 0.94 0.77 -0.69 9.97 -0.01 0.01 0.02 4847
0.01 0.92 0.75 -0.65 9.99 -0.01 0.01 0.02 4853
-0.01 0.93 0.73 -0.65 9.98 -0.00 0.01 0.01 4859
0.01 0.94 0.76 -0.67 10.00 -0.00 0.01 0.02 4866
0.02 0.93 0.77 -0.67 9.98 -0.00 0.01 0.02 4872
0.02 0.94 0.76 -0.65 9.94 -0.00 0.00 0.02 4879
0.03 0.96 0.77 -0.68 9.92 -0.00 -0.00 0.02 4885
0.04 0.94 0.80 -0.66 9.95 -0.00 -0.00 0.02 4891
0.02 0.97 0.78 -0.70 9.94 -0.00 -0.01 0.02 4897
0.01 0.96 0.78 -0.67 9.96 -0.00 -0.01 0.02 4903
0.00 0.97 0.79 -0.66 9.99 -0.00 -0.01 0.02 4910
0.01 0.97 0.72 -0.68 9.97 -0.00 -0.01 0.02 4916
0.01 0.96 0.69 -0.71 9.90 -0.00 -0.00 0.02 4922
-0.00 0.94 0.74 -0.59 10.00 -0.00 0.02 0.02 4929
0.01 0.91 0.75 -0.63 10.05 0.01 0.02 0.02 4935
0.01 0.87 0.79 -0.67 10.04 0.02 0.03 0.02 4941
0.01 0.84 0.82 -0.66 10.04 0.03 0.03 0.02 4947
0.02 0.80 0.80 -0.71 9.96 0.03 0.03 0.02 4954
0.02 0.73 0.77 -0.70 10.09 0.03 0.02 0.02 4960
0.03 0.66 0.85 -0.62 10.00 0.03 0.02 0.02 4967
0.04 0.59 0.91 -0.64 10.02 0.04 0.01 0.01 4973
0.04 0.53 0.90 -0.69 10.04 0.04 -0.00 0.01 4979
0.05 0.48 0.88 -0.73 10.04 0.04 -0.02 0.00 4985
0.05 0.44 0.85 -0.76 10.03 0.05 -0.03 0.01 4992
0.07 0.36 0.80 -0.70 10.03 0.05 -0.03 0.01 4998
0.05 0.29 0.78 -0.72 10.02 0.05 -0.04 0.01 5005
0.06 0.26 0.81 -0.79 9.98 0.05 -0.03 0.01 5011
0.08 0.21 0.81 -0.75 9.97 0.06 -0.04 0.01 5017
0.07 0.13 0.83 -0.83 10.00 0.06 -0.04 0.01 5023
0.06 0.10 0.83 -0.75 10.02 0.06 -0.04 0.01 5029
0.09 0.07 0.84 -0.77 10.06 0.07 -0.04 0.01 5036
0.08 0.05 0.85 -0.79 10.04 0.08 -0.04 0.01 5043
0.08 0.01 0.87 -0.86 9.99 0.09 -0.04 0.01 5049
0.07 0.02 0.90 -0.79 10.13 0.13 -0.05 0.01 5055
0.06 -0.01 1.19 -0.82 9.99 0.11 -0.06 0.01 5061
0.07 -0.01 0.93 -0.77 10.15 0.15 -0.07 0.00 5067
0.08 -0.01 1.10 -0.77 10.25 0.19 -0.09 -0.01 5073
0.09 -0.01 1.17 -0.94 11.02 0.26 -0.09 -0.04 5080
0.08 -0.01 1.50 -0.98 10.72 0.36 -0.09 -0.09 5087
0.07 -0.01 1.91 -0.94 11.37 0.55 -0.05 -0.18 5093
0.08 -0.00 1.53 -1.03 12.72 0.87 -0.01 -0.28 5099
0.08 -0.01 2.07 -1.28 13.53 1.29 -0.05 -0.36 5105
0.07 -0.01 1.94 -1.38 13.38 1.60 -0.14 -0.44 5111
0.07 -0.01 2.38 -1.49 12.70 1.76 -0.28 -0.52 5117
0.08 -0.01 2.45 -1.63 12.24 1.79 -0.42 -0.59 5125
0.09 -0.01 3.22 -2.07 12.50 1.78 -0.57 -0.64 5131
0.06 -0.01 3.59 -2.41 12.21 1.78 -0.67 -0.73 5137
0.09 -0.01 4.77 -2.68 11.75 1.75 -0.71 -0.85 5143
0.07 -0.01 6.13 -3.31 11.67 1.67 -0.65 -1.00 5149
0.06 -0.01 7.25 -3.54 12.33 1.59 -0.52 -1.17 5155
0.07 -0.01 7.55 -4.14 12.46 1.49 -0.30 -1.37 5163
0.06 -0.01 6.83 -3.96 12.18 1.37 -0.09 -1.63 5169
0.06 -0.01 6.23 -3.92 12.52 1.17 -0.07 -1.87 5175
0.09 -0.01 4.87 -3.81 12.05 1.07 -0.16 -2.04 5181
0.06 -0.01 4.20 -3.51 11.24 0.91 -0.40 -2.16 5187
0.04 -0.00 3.27 -3.22 10.81 0.79 -0.65 -2.24 5193
0.05 -0.01 3.04 -3.00 10.25 0.69 -0.99 -2.28 5200
0.05 -0.00 3.67 -2.19 9.98 0.58 -1.27 -2.29 5207
0.04 -0.00 4.15 -2.24 9.66 0.46 -1.48 -2.31 5213
0.05 -0.01 6.53 -1.43 9.36 0.38 -1.65 -2.25 5219
0.05 -0.01 8.04 -1.19 8.93 0.34 -1.69 -2.03 5225
0.05 -0.00 9.43 -0.92 9.05 0.32 -1.55 -1.70 5231
0.03 -0.00 10.05 -0.28 9.30 0.26 -1.36 -1.32 5237
0.03 -0.00 10.67 0.19 10.63 0.13 -1.08 -0.98 5243
0.04 -0.00 10.43 0.89 9.23 -0.05 -0.82 -0.72 5251
0.04 -0.00 9.67 1.20 8.05 -0.19 -0.57 -0.48 5257
0.04 -0.00 8.62 1.03 7.88 -0.25 -0.35 -0.23 5263
0.05 -0.00 7.74 0.74 7.56 -0.27 -0.20 -0.01 5269
0.04 -0.00 7.19 0.68 7.05 -0.25 -0.10 0.16 5275
0.04 -0.00 6.92 0.62 6.92 -0.20 -0.03 0.30 5281
0.04 -0.00 6.55 0.67 6.83 -0.15 0.09 0.39 5287
0.04 -0.00 6.26 0.82 6.90 -0.10 0.25 0.46 5294
0.05 -0.00 5.83 0.94 7.10 -0.07 0.44 0.51 5300
0.04 -0.00 5.24 0.95 7.47 -0.05 0.61 0.53 5306
0.03 -0.00 4.72 0.97 7.92 -0.04 0.73 0.52 5312
0.04 0.01 3.68 0.98 8.25 -0.04 0.82 0.48 5319
0.06 -0.01 3.74 0.99 8.50 -0.06 0.91 0.40 5325
0.04 -0.00 3.17 0.99 8.66 -0.09 0.98 0.37 5331
0.04 -0.00 2.69 0.93 8.92 -0.13 1.05 0.29 5338
0.04 -0.00 2.31 0.85 9.29 -0.17 1.10 0.20 5344
0.05 -0.01 2.00 0.91 9.70 -0.23 1.12 0.10 5350
0.04 -0.00 1.79 0.93 9.96 -0.30 1.14 0.02 5356
0.05 -0.00 1.60 0.89 10.15 -0.38 1.13 -0.04 5362
0.04 -0.00 1.34 0.82 10.22 -0.48 1.09 -0.10 5368
0.06 -0.01 1.17 0.76 10.28 -0.58 1.04 -0.16 5376
0.04 -0.00 1.12 0.50 10.33 -0.67 0.99 -0.22 5382
0.03 -0.00 1.19 0.11 10.35 -0.74 0.96 -0.29 5388
0.05 -0.01 1.18 -0.23 10.26 -0.80 0.94 -0.36 5394
0.04 -0.00 1.18 -0.57 10.09 -0.84 0.93 -0.43 5400
0.04 -0.00 1.12 -0.86 9.93 -0.86 0.94 -0.48 5406
0.04 -0.00 1.08 -1.05 9.87 -0.86 0.95 -0.51 5412
0.06 -0.01 1.05 -1.22 9.96 -0.83 0.94 -0.51 5419
0.04 -0.00 1.24 -1.31 10.11 -0.79 0.93 -0.48 5426
0.03 -0.00 1.32 -1.25 10.32 -0.75 0.93 -0.39 5432
0.04 -0.00 1.36 -1.13 10.47 -0.71 0.94 -0.27 5438
0.04 -0.00 1.27 -0.96 10.56 -0.67 0.96 -0.11 5444
0.03 -0.00 1.11 -0.92 10.68 -0.64 0.99 0.06 5450
0.04 -0.00 0.84 -1.00 10.79 -0.62 1.00 0.24 5456
0.04 -0.00 0.58 -1.03 10.99 -0.60 1.01 0.37 5464
0.04 -0.00 0.31 -1.18 11.05 -0.59 1.00 0.52 5470
0.03 -0.00 0.02 -1.35 11.11 -0.58 0.97 0.64 5476
0.05 -0.01 -0.19 -1.50 11.11 -0.58 0.91 0.75 5482
0.03 -0.00 -0.11 -1.65 11.20 -0.58 0.82 0.83 5488
0.03 -0.00 0.06 -1.76 11.36 -0.59 0.72 0.88 5494
0.03 0.00 0.43 -1.90 11.41 -0.61 0.66 0.93 5500
0.03 -0.00 0.66 -2.02 11.32 -0.63 0.63 0.94 5508
0.04 -0.00 0.86 -2.24 11.20 -0.66 0.62 0.95 5514
0.03 -0.00 0.97 -2.55 11.06 -0.68 0.62 0.93 5520
0.04 -0.00 1.03 -2.74 11.62 -0.68 0.63 0.89 5526
0.03 -0.00 1.08 -2.88 11.09 -0.68 0.66 0.84 5532
0.03 -0.00 1.06 -2.98 11.20 -0.66 0.72 0.80 5538
0.03 -0.00 0.77 -3.04 11.01 -0.65 0.74 0.77 5544
0.03 -0.00 0.49 -3.05 10.97 -0.66 0.72 0.74 5552
0.03 -0.00 0.34 -3.01 10.83 -0.66 0.67 0.71 5558
0.04 0.00 0.36 -3.00 10.70 -0.67 0.55 0.69 5564
0.04 -0.00 0.44 -3.12 10.39 -0.66 0.50 0.68 5570
0.04 -0.00 0.60 -3.28 10.25 -0.65 0.45 0.67 5576
0.03 -0.00 0.82 -3.61 10.07 -0.63 0.42 0.65 5582
0.04 -0.00 1.09 -3.94 9.91 -0.59 0.41 0.62 5588
0.03 -0.00 1.17 -4.24 9.77 -0.53 0.44 0.58 5596
0.03 -0.00 1.13 -4.45 9.67 -0.47 0.47 0.54 5602
0.04 -0.00 1.08 -4.58 9.60 -0.39 0.52 0.52 5608
0.04 -0.00 0.94 -4.65 9.52 -0.32 0.56 0.52 5614
0.04 -0.00 0.63 -4.73 9.35 -0.25 0.58 0.54 5620
0.04 -0.00 0.24 -4.82 9.23 -0.18 0.56 0.58 5626
0.03 -0.00 0.14 -4.93 9.31 -0.11 0.52 0.63 5633
0.03 -0.00 0.36 -4.88 9.66 -0.05 0.48 0.73 5639
0.04 -0.00 0.47 -4.69 9.85 0.01 0.46 0.85 5645
0.03 -0.00 0.36 -4.54 9.60 0.04 0.46 1.00 5651
0.03 -0.00 0.04 -4.56 9.38 0.06 0.44 1.12 5657
0.04 -0.00 -0.46 -4.74 8.98 0.10 0.39 1.27 5664
0.04 -0.00 -1.06 -4.99 8.44 0.17 0.29 1.40 5670
0.04 -0.00 -1.52 -5.23 7.64 0.25 0.19 1.52 5677
0.02 -0.00 -1.68 -5.49 6.73 0.38 0.12 1.62 5683
0.03 0.00 -1.93 -5.53 5.93 0.54 0.05 1.73 5689
0.03 -0.00 -2.05 -5.49 5.31 0.73 0.01 1.79 5695
0.03 -0.00 -2.30 -5.39 4.61 0.94 -0.03 1.85 5701
0.02 -0.00 -2.50 -5.24 3.76 1.18 -0.08 1.91 5707
0.03 -0.00 -2.39 -4.99 3.19 1.41 -0.13 1.98 5713
0.03 -0.00 -3.33 -5.58 3.94 1.70 -0.30 2.07 5721
0.03 -0.00 -37.24 -16.86 40.69 2.42 -3.41 2.08 5727
0.04 -0.00 -21.48 0.54 -0.65 1.59 -4.28 1.93 5733
0.04 -0.00 -14.06 -0.30 4.89 1.43 -4.28 2.22 5739
0.04 -0.00 -32.36 -11.09 27.86 0.14 -4.28 2.18 5745
0.05 0.01 3.48 -6.23 -14.20 -0.29 0.29 1.06 5752
0.05 0.10 -2.49 -13.50 -5.88 -0.67 -0.21 -0.12 5758
0.03 0.25 -1.93 -4.86 11.55 -0.42 0.19 -0.25 5765
0.04 0.39 0.05 -0.10 12.50 -0.23 0.26 0.02 5771
0.03 0.39 1.28 -0.91 11.34 -0.15 0.14 0.11 5777
0.01 0.35 2.05 -0.11 10.38 -0.06 0.05 0.22 5784
-0.02 0.36 1.00 0.52 10.18 0.02 0.03 0.23 5790
0.02 0.32 0.77 -0.28 10.25 0.06 -0.01 0.15 5796
0.04 0.31 1.19 -0.66 9.90 0.06 -0.07 0.13 5803
0.05 0.30 1.34 -0.56 9.83 0.06 -0.10 0.16 5809
0.05 0.28 1.04 -0.83 10.09 0.06 -0.12 0.19 5816
0.05 0.29 0.33 -0.79 10.06 0.03 -0.12 0.19 5822
0.04 0.29 0.18 -1.24 9.90 0.01 -0.10 0.15 5828
0.06 0.27 0.51 -1.37 9.94 -0.01 -0.07 0.13 5834
0.06 0.32 0.46 -1.31 9.87 -0.04 -0.05 0.11 5840
0.06 0.30 0.54 -0.88 9.74 -0.07 -0.02 0.09 5847
0.07 0.39 0.68 -1.00 9.94 -0.10 -0.01 0.08 5853
0.05 0.42 0.81 -0.94 10.11 -0.10 -0.01 0.05 5860
0.04 0.48 0.64 -0.73 10.13 -0.09 -0.01 0.04 5866
0.06 0.48 0.60 -0.68 10.00 -0.07 -0.01 0.04 5872
0.04 0.50 0.04 -0.75 9.98 -0.06 0.01 0.04 5878
0.03 0.54 0.59 -0.74 10.01 -0.04 0.01 0.05 5884
0.04 0.56 0.63 -0.72 9.94 -0.04 0.02 0.05 5891
0.05 0.54 0.66 -0.77 9.98 -0.04 0.02 0.06 5898
0.05 0.59 0.66 -0.80 9.99 -0.04 0.02 0.06 5904
0.06 0.59 0.32 -0.96 9.96 -0.04 0.03 0.06 5910
0.07 0.61 0.65 -0.79 9.98 -0.03 0.03 0.06 5916
0.05 0.62 0.75 -0.77 10.01 -0.02 0.03 0.06 5922
0.05 0.60 0.72 -0.79 10.05 -0.03 0.03 0.06 5928
0.07 0.61 0.76 -0.84 10.01 -0.02 0.00 0.05 5935
0.07 0.61 0.74 -0.81 9.85 -0.02 0.03 0.05 5942
0.06 0.62 0.74 -0.81 9.95 -0.02 0.03 0.05 5948
0.08 0.65 0.70 -0.79 10.00 -0.03 0.02 0.05 5954
0.08 0.62 0.74 -0.80 10.07 -0.03 0.02 0.04 5960
0.07 0.61 0.74 -0.78 10.03 -0.03 0.02 0.04 5966
0.08 0.67 0.75 -0.78 10.03 -0.02 0.02 0.03 5972
0.08 0.68 0.71 -0.78 10.17 -0.02 0.01 0.04 5980
0.07 0.68 0.70 -0.78 10.01 -0.02 0.01 0.04 5986
0.08 0.71 0.74 -0.76 9.92 -0.02 0.01 0.03 5992
0.09 0.72 0.68 -0.77 9.98 -0.02 0.01 0.03 5998
0.08 0.71 0.72 -0.69 10.00 -0.02 0.02 0.04 6004
0.06 0.72 0.75 -0.73 10.04 -0.02 0.02 0.00 6010
0.07 0.73 0.72 -0.77 10.05 -0.01 0.02 0.03 6018
0.05 0.71 0.73 -0.75 9.96 -0.01 0.02 0.04 6024
0.05 0.70 0.73 -0.73 9.98 -0.01 0.03 0.03 6030
0.07 0.71 0.74 -0.74 9.95 -0.01 0.03 0.04 6036
0.07 0.69 0.78 -0.75 9.98 -0.01 0.04 0.04 6042
0.06 0.68 0.78 -0.71 9.99 -0.00 0.04 0.04 6048
0.06 0.68 0.78 -0.75 9.99 -0.00 0.04 0.03 6054
0.07 0.69 0.78 -0.75 10.05 -0.00 0.03 0.03 6062
0.05 0.69 0.77 -0.73 10.01 -0.01 0.04 0.03 6068
0.04 0.68 0.78 -0.77 10.00 -0.00 0.04 0.03 6074
0.06 0.68 0.80 -0.75 10.04 -0.01 0.04 0.03 6080
0.05 0.67 0.80 -0.74 10.04 -0.00 0.04 0.03 6086
0.02 0.67 0.82 -0.75 10.04 -0.01 0.04 0.03 6092
0.06 0.67 0.82 -0.73 10.01 -0.01 0.04 0.03 6099
0.05 0.66 0.80 -0.75 9.98 -0.01 0.03 0.03 6106
0.05 0.65 0.79 -0.73 10.00 -0.01 0.04 0.03 6112
0.04 0.67 0.83 -0.78 9.98 -0.01 0.05 0.03 6118
0.04 0.66 0.81 -0.75 9.98 -0.01 0.05 0.03 6124
0.03 0.65 0.82 -0.76 10.02 -0.01 0.05 0.04 6130
0.03 0.66 0.85 -0.71 10.01 -0.01 0.05 0.03 6137
0.04 0.66 0.83 -0.74 10.02 -0.01 0.05 0.03 6144
0.03 0.64 0.82 -0.74 10.01 -0.01 0.05 0.03 6150
0.04 0.65 0.87 -0.73 10.00 -0.01 0.05 0.03 6156
0.04 0.64 0.88 -0.69 9.97 -0.01 0.04 0.03 6162
0.04 0.63 0.87 -0.74 9.99 -0.01 0.04 0.03 6168
0.02 0.64 0.94 -0.75 10.04 -0.01 0.04 0.03 6175
0.04 0.63 0.84 -0.74 9.94 -0.01 0.04 0.03 6181
0.04 0.61 0.93 -0.77 9.92 -0.02 0.04 0.02 6188
0.02 0.60 0.91 -0.75 9.89 -0.02 0.03 0.02 6194
0.02 0.62 0.89 -0.73 9.93 -0.02 0.03 0.02 6200
0.03 0.62 0.88 -0.70 10.00 -0.02 0.03 0.02 6206
0.03 0.60 0.94 -0.74 9.98 -0.02 0.02 0.01 6212
0.03 0.60 0.92 -0.76 10.08 -0.02 0.03 0.01 6219
0.05 0.61 0.89 -0.74 9.99 -0.02 0.03 0.01 6225
0.03 0.60 0.94 -0.75 10.04 -0.02 0.03 0.02 6232
0.02 0.60 0.94 -0.73 9.98 -0.02 0.03 0.01 6238
0.04 0.60 0.96 -0.76 10.05 -0.02 0.04 0.01 6244
0.03 0.57 0.95 -0.73 9.98 -0.02 0.04 0.01 6250
0.02 0.55 0.95 -0.74 9.95 -0.02 0.04 0.01 6256
0.02 0.55 0.98 -0.72 9.97 -0.02 0.03 0.01 6263
0.03 0.54 0.99 -0.69 9.96 -0.02 0.03 0.00 6269
0.02 0.55 0.97 -0.72 9.97 -0.01 0.02 0.00 6276
0.02 0.54 0.98 -0.74 9.99 -0.01 0.02 0.00 6282
0.03 0.55 0.91 -0.75 9.98 -0.02 0.02 -0.00 6288
0.02 0.55 0.94 -0.77 10.02 -0.02 0.02 -0.00 6294
0.03 0.53 0.96 -0.76 9.95 -0.02 0.01 -0.00 6300
0.02 0.55 1.00 -0.76 9.94 -0.02 0.01 -0.00 6307
0.03 0.54 0.98 -0.75 9.95 -0.02 -0.00 -0.00 6313
0.02 0.53 0.96 -0.71 9.98 -0.02 -0.01 -0.00 6320
0.01 0.51 0.99 -0.74 10.04 -0.02 -0.01 -0.01 6326
0.02 0.54 1.00 -0.75 10.01 -0.02 -0.02 -0.01 6332
0.02 0.53 0.99 -0.72 9.98 -0.02 -0.03 -0.01 6338
0.02 0.51 0.96 -0.78 10.01 -0.02 -0.03 -0.01 6344
0.02 0.53 0.99 -0.75 10.06 -0.02 -0.02 -0.01 6351
0.03 0.50 0.99 -0.72 10.02 -0.01 -0.02 -0.01 6358
0.01 0.50 1.01 -0.72 9.96 -0.02 -0.01 -0.01 6364
0.02 0.49 1.01 -0.74 9.99 -0.01 -0.01 -0.01 6370
0.04 0.47 1.02 -0.75 10.02 -0.01 -0.01 -0.01 6376
0.03 0.44 1.00 -0.72 9.97 -0.01 -0.01 -0.00 6382
0.02 0.44 1.02 -0.70 9.97 -0.01 -0.01 0.00 6389
0.04 0.45 0.99 -0.73 9.95 -0.01 -0.01 -0.01 6395
0.03 0.44 1.01 -0.74 9.91 -0.01 -0.01 -0.01 6402
0.02 0.46 1.02 -0.73 9.97 -0.01 -0.02 -0.01 6408
0.03 0.46 0.99 -0.76 9.96 -0.01 -0.03 -0.01 6414
0.03 0.43 0.95 -0.73 10.02 -0.02 -0.02 -0.01 6420
0.03 0.43 1.00 -0.76 9.99 -0.02 -0.02 -0.00 6426
0.03 0.42 0.98 -0.76 10.00 -0.02 -0.02 -0.00 6433
0.04 0.44 1.02 -0.74 10.03 -0.02 -0.02 -0.00 6439
0.03 0.44 1.03 -0.72 9.99 -0.02 -0.03 -0.00 6446
0.02 0.43 1.03 -0.76 9.99 -0.01 -0.03 -0.00 6452
0.05 0.44 1.00 -0.73 10.02 -0.01 -0.03 -0.00 6458
0.03 0.43 0.97 -0.77 10.00 -0.02 -0.03 0.03 6464
0.02 0.41 0.98 -0.73 9.97 -0.02 -0.03 -0.00 6471
0.03 0.44 1.04 -0.74 9.96 -0.02 -0.03 0.00 6477
0.04 0.42 1.04 -0.76 9.94 -0.01 -0.03 0.00 6483
0.04 0.41 1.04 -0.72 9.98 -0.01 -0.03 -0.00 6490
0.04 0.42 1.00 -0.73 9.98 -0.01 -0.04 0.00 6496
0.05 0.41 1.04 -0.75 9.97 -0.01 -0.04 0.00 6502
0.03 0.40 1.06 -0.75 9.98 -0.00 -0.05 0.01 6508
0.02 0.39 1.00 -0.73 9.97 -0.00 -0.05 0.00 6515
0.03 0.40 1.03 -0.75 10.00 -0.00 -0.06 0.00 6521
0.04 0.40 0.97 -0.74 9.97 -0.00 -0.05 0.01 6528
0.04 0.39 0.99 -0.73 9.98 -0.00 -0.06 0.00 6534
0.04 0.39 1.00 -0.77 10.00 -0.00 -0.06 0.01 6540
0.05 0.39 0.99 -0.74 10.00 0.01 -0.06 0.01 6546
0.05 0.36 1.01 -0.73 9.98 0.01 -0.06 0.01 6552
0.03 0.37 1.01 -0.77 9.99 0.01 -0.06 0.01 6559
0.04 0.34 1.02 -0.77 10.02 0.01 -0.07 0.01 6565
0.04 0.33 0.99 -0.75 10.03 0.01 -0.07 0.01 6572
0.03 0.35 1.01 -0.78 10.00 0.01 -0.07 0.01 6578
0.04 0.36 1.02 -0.77 10.02 0.01 -0.07 0.01 6584
0.05 0.32 1.00 -0.80 10.00 0.01 -0.08 0.02 6590
0.05 0.30 0.99 -0.78 10.00 0.01 -0.08 0.01 6597
0.05 0.31 0.95 -0.76 10.00 0.01 -0.08 0.02 6603
0.06 0.29 0.95 -0.74 10.04 0.00 -0.09 0.02 6609
0.05 0.28 0.99 -0.77 9.99 0.01 -0.08 0.01 6616
0.06 0.25 0.99 -0.77 10.00 0.01 -0.09 0.01 6622
0.07 0.29 0.99 -0.76 9.96 0.01 -0.09 0.01 6628
0.05 0.25 0.99 -0.81 10.02 0.01 -0.09 0.01 6635
0.05 0.24 0.92 -0.77 10.00 0.02 -0.08 0.01 6641
0.07 0.22 0.92 -0.76 10.01 0.02 -0.08 0.01 6647
0.07 0.17 0.98 -0.83 10.01 0.03 -0.07 0.01 6653
0.06 0.13 0.92 -0.73 10.04 0.03 -0.07 0.01 6660
0.07 0.13 0.98 -0.74 10.05 0.04 -0.07 0.01 6666
0.07 0.09 0.96 -0.78 10.01 0.05 -0.07 0.01 6673
0.06 0.04 0.97 -0.77 10.03 0.05 -0.08 0.01 6679
0.07 0.05 1.01 -0.79 10.03 0.06 -0.08 0.01 6685
0.06 0.01 0.99 -0.82 9.99 0.07 -0.08 0.01 6691
0.05 0.00 0.95 -0.87 10.05 0.07 -0.08 0.00 6697
0.06 0.01 1.01 -0.84 9.99 0.08 -0.09 0.00 6704
0.07 0.00 1.00 -0.84 10.05 0.09 -0.09 -0.00 6711
0.07 -0.01 0.99 -0.85 10.11 0.11 -0.10 -0.01 6717
0.06 -0.00 1.06 -0.90 10.22 0.13 -0.11 -0.02 6723
0.07 -0.01 1.09 -0.82 10.14 0.15 -0.12 -0.03 6729
0.07 -0.01 1.15 -0.93 10.22 0.19 -0.11 -0.05 6735
0.07 -0.01 1.05 -0.98 10.33 0.23 -0.07 -0.08 6742
0.07 -0.00 1.18 -1.12 10.74 0.32 -0.08 -0.11 6749
0.06 -0.01 1.45 -0.98 10.82 0.45 -0.05 -0.15 6755
0.06 -0.01 1.53 -1.09 12.18 0.72 -0.02 -0.21 6761
0.07 -0.01 1.71 -1.05 12.39 1.05 -0.03 -0.26 6767
0.07 -0.01 1.66 -1.26 13.05 1.33 -0.08 -0.32 6773
0.07 -0.01 1.91 -1.43 13.03 1.52 -0.16 -0.37 6779
0.07 -0.01 2.00 -1.48 12.90 1.67 -0.25 -0.43 6787
0.08 -0.01 2.28 -1.49 12.84 1.82 -0.35 -0.50 6793
0.08 -0.01 2.86 -1.72 12.70 1.90 -0.47 -0.57 6799
0.07 -0.01 3.53 -2.15 12.71 2.00 -0.55 -0.68 6805
0.07 -0.01 4.78 -2.45 12.57 2.05 -0.65 -0.82 6811
0.08 -0.01 5.81 -3.52 12.83 2.10 -0.75 -0.98 6817
0.08 -0.01 6.89 -3.20 12.67 2.14 -0.72 -1.15 6824
0.07 -0.01 6.94 -3.03 11.69 2.11 -0.55 -1.34 6831
0.06 -0.01 6.28 -3.28 12.38 2.03 -0.27 -1.54 6837
0.05 -0.00 5.36 -3.67 13.28 1.95 -0.04 -1.71 6843
0.06 -0.01 5.05 -3.33 14.21 1.88 0.07 -1.85 6849
0.06 -0.01 6.04 -3.71 14.39 1.84 0.06 -1.98 6855
0.04 -0.00 6.45 -3.00 14.50 1.73 -0.01 -2.14 6861
0.05 -0.00 6.25 -3.20 13.73 1.57 -0.16 -2.31 6868
0.06 -0.01 6.64 -1.29 13.42 1.37 -0.39 -2.44 6875
0.06 -0.01 5.84 -0.11 12.21 1.11 -0.68 -2.56 6881
0.05 0.00 5.65 1.65 11.73 0.81 -1.05 -2.69 6887
0.04 -0.00 6.67 3.95 9.97 0.46 -1.42 -2.74 6893
0.04 -0.00 8.01 7.19 8.68 0.11 -1.81 -2.79 6899
0.03 -0.00 9.83 8.57 7.86 -0.21 -2.07 -2.75 6906
0.05 -0.00 11.07 6.69 6.18 -0.43 -2.12 -2.52 6913
0.04 -0.00 11.60 4.32 9.39 -0.65 -1.83 -2.25 6919
0.03 -0.00 12.74 4.86 9.57 -1.04 -1.40 -2.01 6925
0.04 -0.00 12.75 5.74 7.77 -1.23 -1.14 -1.78 6931
0.05 -0.00 11.69 5.40 6.22 -1.25 -0.89 -1.54 6937
0.03 -0.00 10.61 4.55 5.08 -1.24 -0.64 -1.32 6944
0.04 0.01 10.22 3.90 5.28 -1.18 -0.40 -1.14 6950
0.04 -0.00 9.97 3.32 5.59 -1.07 -0.18 -0.97 6957
0.04 -0.00 9.72 2.87 5.94 -0.95 0.04 -0.84 6963
0.04 -0.00 9.27 2.51 6.11 -0.86 0.29 -0.75 6969
0.05 -0.01 8.61 2.23 6.36 -0.80 0.55 -0.71 6975
0.04 -0.00 7.36 1.71 6.83 -0.74 0.78 -0.72 6981
0.04 -0.00 7.19 1.22 7.40 -0.68 0.97 -0.75 6987
0.04 -0.00 6.46 0.80 7.97 -0.62 1.18 -0.80 6993
0.04 -0.00 5.84 0.49 8.64 -0.57 1.39 -0.85 7001
0.04 -0.00 5.35 0.30 9.33 -0.55 1.59 -0.89 7007
0.03 -0.00 4.91 0.09 10.23 -0.56 1.77 -0.90 7013
0.04 -0.00 4.49 -0.23 11.11 -0.60 1.88 -0.88 7019
0.04 -0.00 4.09 -0.61 11.55 -0.66 1.97 -0.85 7025
0.03 -0.00 3.62 -1.00 11.96 -0.73 2.01 -0.77 7031
0.03 -0.00 3.21 -1.52 12.17 -0.78 2.04 -0.74 7037
0.03 -0.00 2.51 -2.05 12.07 -0.80 2.05 -0.66 7045
0.03 -0.00 1.61 -2.45 11.79 -0.78 2.07 -0.57 7051
0.04 -0.00 0.68 -2.92 11.46 -0.72 2.07 -0.48 7057
0.04 0.00 -0.13 -3.20 11.29 -0.63 2.06 -0.40 7063
0.04 -0.00 -0.95 -3.37 11.25 -0.51 2.03 -0.32 7069
0.04 -0.00 -1.62 -3.46 11.22 -0.43 2.02 -0.26 7075
0.04 -0.00 -2.03 -3.55 11.19 -0.31 1.99 -0.19 7083
0.05 -0.00 -2.47 -3.67 11.33 -0.18 1.94 -0.13 7089
0.04 -0.00 -2.95 -3.91 11.47 -0.06 1.87 -0.04 7095
0.04 -0.00 -3.15 -4.01 11.88 0.05 1.81 0.00 7101
0.05 -0.00 -3.17 -4.16 12.33 0.14 1.76 0.09 7107
0.04 -0.00 -3.32 -4.11 12.72 0.18 1.70 0.19 7113
0.02 -0.00 -3.20 -3.93 13.33 0.17 1.61 0.33 7119
0.04 -0.00 -2.80 -3.70 14.19 0.08 1.51 0.50 7127
0.04 -0.00 -2.60 -3.48 14.04 -0.04 1.37 0.69 7133
0.04 -0.00 -1.88 -3.28 13.40 -0.27 1.19 0.89 7139
0.04 -0.00 -2.35 -3.25 12.48 -0.50 1.02 1.08 7145
0.04 -0.00 -2.00 -3.42 11.58 -0.68 0.81 1.26 7151
0.04 -0.00 -1.52 -3.92 10.71 -0.80 0.66 1.37 7157
0.03 -0.00 -1.26 -4.36 9.70 -0.83 0.61 1.46 7164
0.05 -0.01 -1.36 -4.67 8.71 -0.80 0.68 1.49 7171
0.04 -0.00 -1.88 -4.89 8.09 -0.71 0.83 1.48 7177
0.04 -0.00 -2.65 -4.89 7.91 -0.61 0.98 1.41 7183
0.04 -0.00 -3.43 -4.66 8.02 -0.49 1.08 1.33 7189
0.06 -0.01 -4.38 -4.28 8.16 -0.38 1.14 1.21 7195
0.04 -0.00 -5.20 -3.83 8.37 -0.31 1.09 1.15 7201
0.03 -0.00 -6.10 -3.76 8.45 -0.27 0.96 1.07 7207
0.03 -0.00 -6.83 -3.91 8.51 -0.24 0.80 0.99 7214
0.04 -0.00 -7.21 -4.28 8.47 -0.22 0.61 0.92 7221
0.03 -0.00 -7.30 -4.80 8.20 -0.17 0.40 0.82 7227
0.02 -0.00 -7.18 -5.43 7.86 -0.10 0.21 0.70 7233
0.02 -0.00 -6.70 -5.86 8.63 -0.01 0.05 0.59 7239
0.03 -0.00 -5.54 -6.17 9.84 0.06 -0.02 0.46 7245
0.03 -0.00 -4.52 -6.23 11.13 0.04 0.01 0.34 7251
0.03 -0.00 -4.15 -6.09 11.45 -0.08 0.10 0.25 7258
0.03 -0.00 -7.36 -6.30 12.61 -0.23 0.07 0.19 7264
0.05 -0.00 -19.05 -6.21 16.41 -0.80 -1.76 -0.13 7271
0.03 -0.00 -10.27 -1.66 6.88 -0.97 -3.21 -0.12 7277
0.03 -0.00 -9.25 -5.90 10.34 -1.15 -2.78 0.08 7283
0.04 -0.00 -17.90 -11.61 11.56 -0.89 -4.14 0.22 7289
0.03 -0.00 -11.12 -8.48 7.29 -0.50 -4.28 0.60 7296
0.03 0.00 -7.86 -9.67 6.43 -0.32 -4.28 1.02 7302
0.03 0.05 -3.93 5.47 18.00 1.37 -2.51 1.58 7309
0.03 0.23 -20.93 -0.59 20.88 0.37 -1.51 1.61 7315
0.02 0.44 -14.52 -1.68 17.54 -0.14 0.03 0.79 7321
0.03 0.46 -6.14 0.40 14.53 -0.15 0.01 0.06 7327
0.00 0.42 1.00 0.90 9.24 0.04 0.05 -0.07 7334
0.02 0.33 3.93 -0.01 9.33 0.20 0.00 0.10 7341
0.03 0.27 2.61 0.03 10.00 0.20 -0.10 0.30 7347
0.05 0.21 0.74 -0.72 10.51 0.15 -0.15 0.34 7353
0.05 0.18 0.01 -0.92 10.31 0.13 -0.17 0.29 7359
0.05 0.16 0.36 -1.31 9.81 0.10 -0.16 0.22 7365
0.03 0.14 0.84 -1.37 10.11 0.05 -0.14 0.19 7372
0.05 0.17 0.50 -1.84 9.97 0.01 -0.12 0.16 7378
0.07 0.18 0.21 -1.48 9.73 -0.04 -0.08 0.12 7385
0.07 0.19 0.33 -1.04 9.28 -0.08 -0.04 0.09 7391
0.06 0.26 0.65 -1.03 10.06 -0.11 -0.03 0.06 7397
0.08 0.31 0.74 -0.82 10.38 -0.11 -0.04 0.05 7403
0.07 0.35 0.62 -0.63 10.26 -0.08 -0.04 0.04 7410
0.08 0.40 0.64 -0.67 10.19 -0.06 -0.04 0.05 7416
0.08 0.40 0.66 -0.70 10.15 -0.05 -0.04 0.05 7422
0.07 0.43 0.67 -0.80 10.12 -0.03 -0.03 0.06 7429
0.06 0.45 0.62 -0.58 10.02 -0.03 -0.04 0.06 7435
0.08 0.41 0.01 -0.78 9.92 -0.03 -0.04 0.06 7442
0.08 0.43 0.64 -0.77 10.13 -0.04 -0.04 0.06 7448
0.09 0.47 0.60 -0.78 10.04 -0.04 -0.03 0.06 7454
0.12 0.45 0.62 -0.77 10.04 -0.03 -0.03 0.06 7460
0.11 0.44 0.64 -0.74 10.03 -0.03 -0.03 0.05 7467
0.11 0.47 0.62 -0.77 10.08 -0.03 -0.04 0.05 7473
0.12 0.47 0.64 -0.74 9.91 -0.02 -0.04 0.05 7480
0.11 0.46 0.69 -0.77 10.07 -0.02 -0.05 0.04 7486
0.10 0.46 0.71 -0.74 10.06 -0.02 -0.05 0.04 7492
0.09 0.45 0.64 -0.75 9.96 -0.02 -0.04 0.03 7498
0.12 0.45 0.61 -0.77 9.99 -0.02 -0.04 0.03 7504
0.11 0.44 0.02 -0.79 10.03 -0.02 -0.03 0.03 7511
0.14 0.46 0.61 -0.76 10.05 -0.02 -0.03 0.03 7518
0.13 0.47 0.63 -0.73 10.08 -0.01 -0.02 0.03 7524
0.12 0.47 0.62 -0.76 9.92 -0.01 -0.02 0.03 7530
0.15 0.45 0.65 -0.79 9.99 -0.01 -0.01 0.03 7536
0.14 0.43 0.62 -0.76 10.01 -0.01 -0.01 0.03 7542
0.14 0.41 0.68 -0.74 9.97 -0.01 -0.00 0.03 7549
0.16 0.42 0.64 -0.73 10.03 -0.01 0.00 0.03 7556
0.16 0.39 0.68 -0.72 10.07 -0.01 0.00 0.03 7562
0.13 0.40 0.69 -0.73 9.99 -0.01 0.00 0.03 7568
0.15 0.42 0.64 -0.78 10.06 -0.01 0.01 0.03 7574
0.18 0.40 0.69 -0.72 9.98 -0.01 0.01 0.02 7580
0.17 0.39 0.66 -0.74 9.99 -0.01 0.01 0.03 7586
0.16 0.40 0.65 -0.75 10.04 -0.01 0.01 0.02 7593
0.17 0.39 0.68 -0.73 10.03 -0.01 0.02 0.02 7600
0.15 0.40 0.72 -0.75 10.04 -0.01 0.02 0.02 7606
0.15 0.40 0.70 -0.73 10.05 -0.01 0.02 0.02 7612
0.16 0.39 0.79 -0.75 9.98 -0.00 0.01 0.02 7618
0.16 0.39 0.69 -0.77 9.97 -0.01 0.01 0.02 7624
0.13 0.38 0.70 -0.75 10.05 -0.01 0.00 0.02 7631
0.13 0.40 0.71 -0.76 10.00 -0.01 0.00 0.02 7638
0.13 0.40 0.75 -0.68 10.04 -0.01 -0.00 0.02 7644
0.14 0.38 0.72 -0.73 10.04 -0.01 -0.01 0.02 7650
0.13 0.41 0.73 -0.75 10.02 -0.01 -0.01 0.02 7656
0.11 0.40 0.73 -0.75 10.02 -0.01 -0.01 0.02 7663
0.10 0.41 0.70 -0.76 10.02 -0.01 -0.02 0.02 7669
0.10 0.43 0.71 -0.74 9.98 -0.01 -0.02 0.02 7675
0.10 0.43 0.72 -0.71 10.01 -0.01 -0.02 0.02 7682
0.07 0.43 0.72 -0.74 10.03 -0.01 -0.02 0.02 7688
0.09 0.46 0.69 -0.74 10.00 -0.01 -0.01 0.02 7694
0.10 0.45 0.75 -0.71 9.99 -0.02 -0.02 0.02 7701
0.09 0.45 0.71 -0.70 9.99 -0.01 -0.01 0.01 7707
0.09 0.46 0.74 -0.72 9.95 -0.01 -0.01 0.01 7713
0.10 0.46 0.69 -0.72 9.98 -0.01 -0.01 0.01 7719
0.09 0.47 0.68 -0.74 9.96 -0.02 -0.01 0.02 7726
0.08 0.47 0.69 -0.75 9.99 -0.02 -0.01 0.01 7732
0.09 0.48 0.69 -0.72 10.01 -0.02 -0.01 0.01 7738
0.09 0.46 0.67 -0.73 10.03 -0.01 -0.01 0.01 7745
0.07 0.48 0.73 -0.72 10.00 -0.01 -0.01 0.01 7751
0.08 0.50 0.76 -0.71 10.00 -0.01 -0.00 0.01 7757
0.09 0.49 0.77 -0.72 10.06 -0.01 -0.00 0.01 7763
0.08 0.48 0.72 -0.74 10.04 -0.00 -0.00 0.01 7770
0.09 0.50 0.71 -0.73 10.00 -0.00 -0.00 0.01 7777
0.08 0.49 0.70 -0.74 10.01 -0.00 -0.00 0.01 7783
0.08 0.48 0.73 -0.71 10.01 -0.00 -0.00 0.01 7789
0.08 0.49 0.77 -0.74 10.02 -0.00 -0.00 0.01 7795
0.06 0.47 0.74 -0.76 9.98 -0.01 -0.01 0.01 7801
0.07 0.46 0.73 -0.74 9.97 -0.01 -0.01 0.02 7808
0.06 0.46 0.73 -0.77 9.96 -0.01 -0.02 0.02 7814
0.07 0.49 0.74 -0.78 10.02 -0.02 -0.02 0.02 7821
0.06 0.48 0.78 -0.73 10.02 -0.03 -0.02 0.02 7827
0.04 0.49 0.76 -0.78 9.99 -0.02 -0.02 0.02 7833
0.07 0.50 0.70 -0.71 10.04 -0.02 -0.02 0.02 7839
0.05 0.51 0.70 -0.74 9.98 -0.03 -0.01 0.02 7845
0.04 0.51 0.73 -0.69 10.00 -0.02 -0.01 0.02 7852
0.05 0.52 0.72 -0.71 10.02 -0.02 -0.01 0.02 7859
0.05 0.52 0.75 -0.70 10.02 -0.02 -0.01 0.02 7865
0.04 0.51 0.74 -0.71 10.01 -0.02 -0.01 0.02 7871
0.05 0.53 0.73 -0.70 9.98 -0.02 -0.01 0.02 7877
0.04 0.52 0.75 -0.72 9.99 -0.02 -0.02 0.02 7883
0.05 0.47 0.76 -0.71 9.97 -0.03 -0.02 0.02 7889
0.04 0.50 0.73 -0.73 10.04 -0.03 -0.02 0.03 7897
0.04 0.51 0.74 -0.70 9.97 -0.03 -0.02 0.03 7903
0.02 0.58 0.79 -0.69 10.01 -0.03 -0.02 0.03 7909
0.02 0.59 0.72 -0.69 10.00 -0.03 -0.03 0.03 7915
0.05 0.57 0.72 -0.67 9.98 -0.03 -0.03 0.03 7921
0.03 0.59 0.76 -0.69 9.99 -0.02 -0.03 0.03 7927
0.02 0.64 0.72 -0.69 10.02 -0.03 -0.03 0.03 7934
0.02 0.64 0.71 -0.69 9.99 -0.03 -0.02 0.03 7941
0.02 0.64 0.72 -0.68 9.96 -0.03 -0.02 0.03 7947
0.02 0.63 0.69 -0.68 9.99 -0.03 -0.02 0.03 7953
0.03 0.67 0.77 -0.67 10.04 -0.03 -0.02 0.03 7959
0.02 0.72 0.76 -0.64 10.00 -0.03 -0.02 0.07 7965
0.02 0.71 0.70 -0.67 10.02 -0.03 -0.02 0.03 7972
0.02 0.76 0.76 -0.66 10.04 -0.03 -0.02 0.03 7979
0.02 0.80 0.74 -0.65 9.98 -0.03 -0.02 0.03 7985
0.01 0.80 0.79 -0.67 10.04 -0.03 -0.02 0.03 7991
0.02 0.81 0.73 -0.66 10.02 -0.02 -0.02 0.03 7997
0.02 0.78 0.72 -0.68 10.02 -0.02 -0.02 0.03 8003
0.02 0.80 0.75 -0.65 9.98 -0.03 -0.02 0.03 8010
0.01 0.85 0.68 -0.69 10.02 -0.03 -0.02 0.03 8016
0.04 0.86 0.71 -0.65 9.97 -0.03 -0.02 0.03 8023
0.02 0.86 0.73 -0.67 9.98 -0.02 -0.02 0.02 8029
0.02 0.83 0.70 -0.67 10.05 -0.02 -0.02 0.02 8035
0.04 0.81 0.70 -0.69 9.98 -0.02 -0.02 0.02 8041
0.02 0.84 0.75 -0.66 10.02 -0.01 -0.02 0.02 8048
0.03 0.84 0.78 -0.67 9.99 -0.02 -0.02 0.02 8054
0.01 0.86 0.79 -0.63 9.99 -0.01 -0.03 0.02 8060
0.01 0.87 0.78 -0.66 10.01 0.03 -0.04 0.02 8067
0.03 0.88 0.79 -0.69 10.00 0.00 -0.04 0.02 8073
0.02 0.87 0.85 -0.66 9.97 0.01 -0.05 0.02 8079
0.02 0.86 0.85 -0.65 10.02 0.01 -0.06 0.02 8085
0.02 0.86 0.79 -0.68 9.89 0.02 -0.07 0.02 8092
0.02 0.85 0.79 -0.61 9.88 0.02 -0.07 0.02 8098
0.02 0.83 0.79 -0.64 9.92 0.03 -0.08 0.03 8104
0.04 0.78 0.78 -0.62 9.92 0.03 -0.07 0.02 8111
0.04 0.70 0.78 -0.65 10.01 0.04 -0.07 0.02 8117
0.04 0.63 0.76 -0.68 10.03 0.04 -0.07 0.02 8123
0.03 0.58 0.82 -0.68 9.99 0.04 -0.06 0.01 8130
0.04 0.51 0.74 -0.65 9.94 0.05 -0.06 0.02 8136
0.04 0.41 0.78 -0.63 9.99 0.04 -0.05 0.01 8142
0.05 0.34 0.80 -0.68 10.10 0.05 -0.06 0.01 8148
0.05 0.24 0.84 -0.70 10.10 0.07 -0.06 0.00 8155
0.04 0.17 0.79 -0.73 10.09 0.08 -0.06 0.00 8161
0.07 0.15 0.79 -0.75 10.12 0.10 -0.06 -0.00 8167
0.07 0.07 0.79 -0.77 10.15 0.12 -0.06 0.00 8174
0.06 0.03 0.85 -0.76 10.20 0.14 -0.07 -0.01 8180
0.08 0.00 0.81 -0.80 10.31 0.16 -0.10 -0.01 8186
0.09 -0.00 0.96 -0.69 10.39 0.19 -0.12 -0.03 8193
0.06 -0.01 1.09 -0.79 10.52 0.23 -0.15 -0.07 8199
0.08 -0.01 1.41 -0.88 10.77 0.32 -0.18 -0.14 8206
0.10 -0.01 2.17 -1.64 11.54 0.45 -0.19 -0.30 8212
0.09 -0.01 3.00 -1.21 12.10 0.69 -0.20 -0.50 8218
0.10 -0.01 2.32 -1.68 13.62 1.12 -0.23 -0.62 8224
0.12 -0.01 2.35 -1.71 14.35 1.63 -0.40 -0.70 8230
0.11 -0.01 2.78 -1.92 13.51 1.91 -0.61 -0.78 8237
0.12 -0.01 2.93 -2.04 13.51 1.99 -0.73 -0.86 8244
0.10 -0.01 3.40 -2.16 12.95 1.99 -0.81 -0.95 8250
0.10 -0.01 3.41 -2.36 12.39 1.98 -0.90 -1.04 8256
0.10 0.00 4.03 -2.85 11.96 1.95 -0.91 -1.14 8262
0.07 -0.01 4.27 -3.25 11.41 1.87 -0.89 -1.25 8268
0.07 -0.01 5.71 -3.18 11.63 1.81 -0.80 -1.38 8275
0.07 0.00 5.58 -3.15 11.17 1.70 -0.71 -1.56 8282
0.05 -0.01 5.92 -3.38 12.29 1.57 -0.54 -1.74 8288
0.04 -0.00 4.86 -3.39 12.62 1.43 -0.46 -1.93 8294
0.05 0.00 4.74 -3.93 12.47 1.30 -0.49 -2.06 8300
0.05 -0.00 4.68 -3.71 12.28 1.20 -0.54 -2.22 8306
0.05 -0.01 5.08 -3.23 11.38 1.04 -0.63 -2.36 8313
0.04 0.01 4.67 -3.15 10.06 0.90 -0.70 -2.50 8320
0.05 -0.00 4.95 -2.60 9.86 0.75 -0.78 -2.61 8326
0.05 -0.00 3.87 -2.28 10.11 0.58 -0.93 -2.73 8332
0.05 -0.00 3.87 -1.77 9.92 0.44 -1.18 -2.83 8338
0.05 -0.01 3.60 -0.70 9.63 0.25 -1.43 -2.88 8344
0.03 -0.00 4.12 1.22 8.64 0.05 -1.76 -2.89 8350
0.04 -0.00 4.55 2.02 6.90 -0.14 -2.01 -2.79 8357
0.03 -0.00 7.10 3.08 6.74 -0.29 -2.12 -2.52 8364
0.04 -0.00 8.40 1.85 6.67 -0.42 -2.01 -2.00 8370
0.02 -0.00 8.21 0.20 7.87 -0.50 -1.67 -1.41 8376
0.04 -0.00 9.41 -0.45 9.16 -0.63 -1.23 -0.91 8382
0.04 -0.00 10.15 -0.17 8.11 -0.75 -0.95 -0.50 8388
0.06 -0.01 9.81 0.33 7.37 -0.75 -0.71 -0.21 8394
0.04 -0.00 8.96 0.31 6.73 -0.72 -0.42 0.06 8400
0.04 -0.00 8.10 -0.01 6.05 -0.67 -0.09 0.28 8407
0.04 -0.00 7.54 -0.30 6.49 -0.59 0.22 0.47 8413
0.06 -0.01 7.00 -0.54 7.32 -0.48 0.50 0.63 8420
0.04 -0.00 6.48 -0.61 8.07 -0.38 0.71 0.77 8426
0.04 -0.00 5.71 -0.54 8.66 -0.34 0.93 0.87 8432
0.03 -0.00 4.88 -0.39 9.22 -0.35 1.11 0.98 8438
0.05 -0.00 4.07 -0.32 9.92 -0.41 1.23 1.09 8444
0.04 -0.00 3.11 -0.50 10.56 -0.47 1.30 1.19 8451
0.04 -0.00 2.13 -0.93 10.84 -0.58 1.29 1.27 8457
0.05 -0.00 0.67 -1.29 10.83 -0.70 1.19 1.33 8463
0.05 -0.01 0.48 -1.59 10.64 -0.79 1.08 1.37 8470
0.05 -0.01 -0.01 -1.80 10.37 -0.85 0.94 1.39 8476
0.04 -0.00 -0.26 -1.99 10.12 -0.86 0.82 1.39 8482
0.05 -0.00 -0.42 -2.18 9.79 -0.84 0.77 1.36 8488
0.04 -0.00 -0.52 -2.39 9.62 -0.80 0.79 1.30 8495
0.05 -0.00 -0.61 -2.69 9.77 -0.76 0.85 1.21 8501
0.05 -0.00 -0.75 -2.85 9.97 -0.70 0.92 1.10 8507
0.06 -0.01 -0.84 -2.81 10.29 -0.65 0.97 1.00 8513
0.05 -0.00 -1.02 -2.68 10.63 -0.62 1.01 0.88 8520
0.03 -0.00 -1.24 -2.61 10.73 -0.60 1.01 0.83 8526
0.05 0.00 -1.34 -2.52 10.77 -0.60 0.95 0.76 8532
0.04 -0.00 -1.40 -2.50 10.70 -0.60 0.86 0.72 8539
0.05 -0.00 -1.15 -2.53 10.71 -0.59 0.75 0.69 8545
0.04 0.01 -0.87 -2.55 10.63 -0.57 0.67 0.69 8551
0.05 -0.00 -0.60 -2.65 10.52 -0.50 0.61 0.71 8558
0.05 -0.00 -0.26 -2.70 10.56 -0.50 0.59 0.74 8564
0.04 -0.00 0.06 -2.73 10.72 -0.46 0.58 0.79 8570
0.05 -0.01 0.44 -2.65 10.89 -0.43 0.57 0.86 8577
0.03 -0.00 0.82 -2.59 10.85 -0.41 0.55 0.96 8583
0.03 -0.00 1.20 -2.52 10.75 -0.42 0.54 1.03 8589
0.05 -0.01 1.49 -2.51 10.74 -0.42 0.55 1.14 8595
0.03 -0.00 1.61 -2.56 10.65 -0.42 0.57 1.24 8602
0.03 -0.00 1.57 -2.70 10.44 -0.41 0.61 1.33 8608
0.04 -0.00 1.49 -2.83 10.28 -0.39 0.65 1.41 8614
0.04 -0.00 1.46 -3.06 10.05 -0.35 0.69 1.45 8621
0.04 -0.00 1.25 -3.17 10.12 -0.31 0.70 1.48 8627
0.04 -0.00 1.22 -3.22 10.30 -0.26 0.72 1.47 8633
0.04 -0.00 1.17 -3.22 10.55 -0.22 0.74 1.45 8640
0.03 -0.00 1.09 -3.19 10.68 -0.20 0.75 1.40 8646
0.03 -0.00 0.93 -3.15 10.77 -0.20 0.74 1.34 8652
0.04 -0.00 0.92 -3.07 10.76 -0.21 0.72 1.26 8658
0.04 -0.00 0.86 -3.04 10.68 -0.23 0.71 1.17 8665
0.03 -0.00 0.61 -3.10 10.59 -0.24 0.73 1.07 8671
0.04 0.00 0.40 -3.20 10.57 -0.25 0.71 0.95 8678
0.03 -0.00 0.29 -3.18 10.60 -0.25 0.68 0.83 8684
0.03 -0.00 0.20 -3.14 10.47 -0.25 0.66 0.70 8690
0.03 -0.00 0.16 -2.93 10.34 -0.24 0.67 0.62 8696
0.04 -0.00 0.19 -2.65 10.38 -0.24 0.68 0.55 8702
0.03 -0.00 0.09 -2.45 10.24 -0.24 0.68 0.52 8709
0.03 -0.00 0.05 -2.28 10.01 -0.24 0.67 0.51 8715
0.04 -0.00 0.03 -1.98 9.68 -0.22 0.64 0.54 8721
0.04 -0.00 0.07 -2.35 9.50 -0.20 0.59 0.57 8728
0.04 -0.00 0.13 -2.51 9.23 -0.16 0.56 0.59 8734
0.03 -0.00 0.18 -2.74 8.88 -0.09 0.57 0.62 8740
0.04 -0.00 0.19 -2.88 8.65 -0.01 0.64 0.64 8747
0.04 -0.00 0.01 -2.93 8.61 0.08 0.74 0.65 8753
0.03 -0.00 -0.29 -2.86 8.78 0.17 0.82 0.67 8759
0.02 -0.00 -0.70 -2.73 9.13 0.24 0.89 0.70 8765
0.03 0.01 -1.76 -2.56 9.43 0.28 0.92 0.74 8771
0.04 -0.00 -1.74 -2.39 9.67 0.29 0.91 0.79 8777
0.04 -0.00 -2.35 -2.20 9.84 0.26 0.85 0.86 8783
0.02 -0.00 -2.98 -2.15 10.01 0.21 0.73 0.93 8791
0.03 -0.00 -3.61 -2.30 9.92 0.15 0.56 1.00 8797
0.03 -0.00 -4.07 -2.39 9.69 0.09 0.37 1.04 8803
0.03 -0.00 -4.16 -2.53 9.42 0.04 0.22 1.05 8809
0.02 -0.00 -4.24 -2.74 9.12 -0.00 0.13 1.03 8815
0.02 0.00 -4.26 -2.95 8.82 -0.03 0.08 1.00 8821
0.03 -0.00 -4.32 -3.17 8.61 -0.04 0.07 0.94 8827
0.03 -0.00 -4.40 -3.35 8.42 -0.03 0.07 0.88 8834
0.02 -0.00 -4.41 -3.51 8.24 -0.02 0.04 0.82 8840
0.03 -0.00 -4.31 -3.69 7.90 -0.00 -0.00 0.77 8846
0.03 -0.00 -4.02 -4.04 7.41 0.03 -0.05 0.75 8853
0.03 -0.00 -3.55 -4.37 6.85 0.09 -0.10 0.74 8859
0.02 -0.00 -6.87 -7.42 9.25 0.26 -0.35 0.74 8865
0.03 0.00 -24.91 -13.42 21.29 0.77 -3.91 0.80 8871
0.04 -0.00 -15.44 -4.05 2.24 0.49 -4.28 0.95 8878
0.04 -0.00 -12.11 -9.55 7.41 0.31 -4.28 1.00 8884
0.04 0.01 -12.24 -11.08 24.39 0.03 -4.28 0.63 8891
0.03 0.03 -14.16 -3.06 20.69 0.37 -2.28 0.28 8897
0.02 0.16 -0.96 -0.80 12.06 -0.40 -0.23 -0.00 8903
0.02 0.23 -1.97 -1.56 12.09 -0.30 -0.12 -0.06 8909
0.04 0.29 0.37 -0.69 10.91 -0.07 -0.08 -0.01 8916
0.03 0.28 1.50 -0.12 10.75 0.07 -0.05 0.09 8923
0.04 0.25 1.54 -0.02 10.06 0.08 -0.09 0.15 8929
0.04 0.26 1.39 0.38 9.98 0.10 -0.17 0.18 8935
0.06 0.25 0.62 -0.19 10.00 0.09 -0.17 0.23 8941
0.05 0.22 0.81 -0.91 10.14 0.07 -0.19 0.22 8948
0.07 0.22 1.38 -0.91 9.75 0.03 -0.20 0.21 8954
0.06 0.21 0.58 -1.31 9.81 0.00 -0.18 0.22 8961
0.06 0.22 -0.02 -1.59 10.07 -0.03 -0.17 0.20 8967
0.06 0.24 0.02 -1.90 10.05 -0.05 -0.13 0.15 8973
0.07 0.24 0.41 -1.31 10.02 -0.07 -0.09 0.10 8979
0.10 0.29 0.24 -0.99 9.79 -0.09 -0.06 0.09 8986
0.09 0.30 0.21 -0.81 9.85 -0.12 -0.04 0.07 8992
0.08 0.41 0.40 -0.77 10.11 -0.13 -0.03 0.07 8998
0.13 0.43 0.49 -0.79 10.25 -0.11 -0.02 0.06 9005
0.11 0.45 0.52 -0.78 10.28 -0.09 -0.01 0.06 9011
0.10 0.49 0.49 -0.74 10.07 -0.06 -0.01 0.06 9017
0.12 0.46 0.58 -0.75 10.06 -0.05 -0.01 0.07 9024
0.09 0.46 0.58 -0.73 10.11 -0.04 -0.02 0.06 9030
0.08 0.49 0.61 -0.82 9.99 -0.04 -0.02 0.06 9036
0.10 0.52 0.64 -0.81 10.18 -0.05 -0.03 0.06 9042
0.10 0.51 0.67 -0.80 10.07 -0.05 -0.04 0.05 9049
0.13 0.55 0.55 -0.76 10.09 -0.06 -0.04 0.05 9056
0.15 0.53 0.52 -0.75 10.13 -0.05 -0.04 0.04 9062
0.17 0.51 0.58 -0.78 10.10 -0.04 -0.04 0.04 9068
0.19 0.51 0.60 -0.77 10.10 -0.04 -0.04 0.03 9074
0.18 0.50 0.64 -0.80 10.06 -0.04 -0.03 0.04 9080
0.20 0.48 0.66 -0.77 10.19 -0.04 -0.03 0.03 9088
0.21 0.48 0.62 -0.78 9.99 -0.03 -0.02 0.03 9094
0.23 0.48 0.65 -0.77 10.02 -0.03 -0.02 0.02 9100
0.23 0.47 0.64 -0.77 10.17 -0.03 -0.02 0.02 9106
0.22 0.47 0.66 -0.78 10.16 -0.02 -0.02 0.02 9112
0.22 0.46 0.49 -0.60 10.35 -0.00 -0.03 0.02 9119
0.22 0.48 0.63 -0.77 10.06 -0.01 -0.02 0.02 9125
0.22 0.51 0.63 -0.74 10.01 -0.01 -0.02 0.02 9132
0.23 0.50 0.62 -0.75 10.07 -0.01 -0.02 0.02 9138
0.22 0.49 0.65 -0.70 10.06 -0.01 -0.03 0.02 9144
0.22 0.51 0.62 -0.73 10.01 -0.01 -0.03 0.02 9150
0.20 0.50 0.65 -0.74 10.05 -0.01 -0.03 0.02 9157
0.20 0.51 0.62 -0.74 10.04 -0.01 -0.03 0.02 9163
0.20 0.52 0.65 -0.74 10.01 -0.01 -0.03 0.02 9169
0.21 0.51 0.63 -0.74 10.00 -0.01 -0.03 0.02 9176
0.21 0.50 0.63 -0.72 10.03 -0.01 -0.02 0.02 9182
0.21 0.51 0.63 -0.74 10.03 -0.01 -0.02 0.02 9189
0.21 0.50 0.64 -0.73 10.05 -0.01 -0.02 0.01 9195
0.19 0.48 0.63 -0.74 10.02 -0.01 -0.03 0.01 9201
0.19 0.49 0.60 -0.72 10.05 -0.01 -0.02 0.02 9207
0.18 0.47 0.64 -0.74 10.00 -0.01 -0.02 0.02 9213
0.17 0.47 0.61 -0.73 10.03 -0.01 -0.02 0.01 9221
0.20 0.47 0.62 -0.71 9.99 -0.01 -0.03 0.02 9227
0.18 0.45 0.62 -0.69 10.04 -0.01 -0.03 0.01 9233
0.17 0.43 0.63 -0.72 10.03 -0.01 -0.02 0.01 9239
0.18 0.44 0.63 -0.72 10.03 -0.01 -0.03 0.01 9245
0.18 0.43 0.62 -0.74 9.99 -0.01 -0.02 0.01 9251
0.16 0.44 0.63 -0.73 9.93 -0.01 -0.03 0.02 9259
0.17 0.42 0.62 -0.70 10.06 -0.01 -0.03 0.01 9265
0.18 0.41 0.59 -0.72 10.00 -0.01 -0.02 0.02 9271
0.17 0.39 0.64 -0.72 9.99 -0.01 -0.03 0.01 9277
0.18 0.38 0.62 -0.74 10.02 -0.01 -0.02 0.01 9283
0.19 0.37 0.61 -0.74 9.99 -0.01 -0.02 0.02 9289
0.18 0.36 0.62 -0.73 9.99 -0.01 -0.03 0.02 9296
0.19 0.37 0.61 -0.72 10.02 -0.01 -0.02 0.02 9303
0.20 0.37 0.60 -0.71 9.98 -0.00 -0.02 0.02 9309
0.19 0.37 0.59 -0.73 10.02 -0.01 -0.02 0.02 9315
0.19 0.34 0.01 -0.71 10.01 -0.00 -0.02 0.01 9321
0.20 0.32 0.57 -0.73 10.04 -0.00 -0.01 0.01 9327
0.20 0.31 0.65 -0.71 9.97 -0.01 -0.02 0.01 9334
0.20 0.32 0.63 -0.73 9.98 -0.01 -0.01 0.02 9340
0.20 0.32 0.66 -0.73 9.99 -0.01 -0.01 0.02 9347
0.22 0.30 0.63 -0.73 10.03 -0.01 -0.01 0.02 9353
0.20 0.32 0.65 -0.71 9.98 -0.01 -0.01 0.02 9359
0.20 0.34 0.61 -0.72 9.99 -0.01 -0.01 0.02 9365
0.20 0.33 0.63 -0.69 9.95 -0.01 -0.01 0.02 9371
0.21 0.34 0.64 -0.69 9.97 -0.01 -0.00 0.02 9378
0.19 0.34 0.65 -0.71 9.96 -0.02 -0.00 0.01 9384
0.20 0.36 0.61 -0.70 10.01 -0.01 0.00 0.02 9391
0.20 0.34 0.62 -0.71 9.98 -0.01 0.00 0.02 9397
0.17 0.32 0.61 -0.71 10.01 -0.01 0.01 0.02 9403
0.18 0.33 0.66 -0.69 10.03 -0.01 0.01 0.01 9409
0.18 0.31 0.67 -0.73 10.04 -0.00 0.00 0.01 9416
0.17 0.30 0.67 -0.73 10.08 -0.00 -0.00 0.01 9422
0.18 0.25 0.68 -0.71 10.02 -0.00 -0.01 0.01 9428
0.17 0.25 0.71 -0.74 10.03 0.00 -0.01 0.01 9435
0.18 0.23 0.66 -0.70 10.00 -0.00 -0.02 0.01 9441
0.18 0.23 0.65 -0.74 10.01 0.00 -0.02 0.01 9448
0.19 0.19 0.66 -0.69 9.95 -0.00 -0.02 0.01 9454
0.18 0.20 0.67 -0.74 9.98 -0.01 -0.02 0.01 9460
0.19 0.22 0.65 -0.73 9.97 -0.01 -0.02 0.01 9466
0.20 0.24 0.66 -0.74 9.97 -0.01 -0.02 0.01 9473
0.19 0.25 0.65 -0.75 10.00 -0.02 -0.02 0.01 9479
0.18 0.25 0.64 -0.73 9.99 -0.02 -0.02 0.01 9485
0.19 0.27 0.67 -0.72 10.05 -0.02 -0.01 0.01 9492
0.19 0.26 0.65 -0.68 10.02 -0.02 -0.01 0.01 9498
0.18 0.26 0.64 -0.71 10.08 -0.01 -0.01 0.01 9504
0.19 0.28 0.67 -0.72 9.98 -0.01 -0.00 0.01 9510
0.20 0.27 0.67 -0.71 10.09 -0.00 -0.00 0.01 9517
0.20 0.26 0.72 -0.70 10.03 -0.00 -0.00 0.01 9523
0.18 0.28 0.65 -0.71 10.04 -0.00 -0.00 0.01 9530
0.17 0.27 0.68 -0.71 9.97 -0.00 -0.00 0.01 9536
0.17 0.25 0.68 -0.72 9.97 -0.00 -0.01 0.01 9542
0.16 0.26 0.69 -0.77 10.02 -0.00 -0.01 0.01 9548
0.17 0.25 0.66 -0.71 10.03 -0.01 -0.01 0.01 9554
0.15 0.26 0.71 -0.71 10.04 -0.00 -0.01 0.01 9561
0.16 0.27 0.65 -0.73 9.97 -0.01 -0.01 0.01 9568
0.17 0.29 0.67 -0.70 10.04 -0.01 -0.01 0.01 9574
0.15 0.29 0.70 -0.73 10.03 -0.00 -0.02 0.01 9580
0.15 0.29 0.69 -0.72 10.07 0.00 -0.02 0.01 9586
0.13 0.30 0.71 -0.72 10.03 0.01 -0.02 0.01 9592
0.15 0.29 0.66 -0.75 10.03 0.01 -0.02 0.01 9600
0.16 0.28 0.69 -0.72 10.03 0.01 -0.02 0.01 9606
0.18 0.25 0.68 -0.69 10.04 0.01 -0.02 0.01 9612
0.18 0.23 0.73 -0.75 10.08 0.02 -0.02 0.01 9618
0.16 0.21 0.69 -0.71 10.07 0.03 -0.02 0.01 9624
0.17 0.19 0.71 -0.73 10.06 0.03 -0.02 0.01 9630
0.18 0.12 0.71 -0.73 10.06 0.04 -0.02 0.01 9637
0.18 0.12 0.76 -0.76 10.06 0.05 -0.02 0.02 9644
0.19 0.10 0.78 -0.78 10.09 0.06 -0.03 0.02 9650
0.19 0.05 0.75 -0.75 10.09 0.08 -0.03 0.01 9656
0.18 0.03 0.78 -0.78 10.11 0.09 -0.04 0.01 9662
0.21 0.03 0.72 -0.90 10.15 0.10 -0.05 0.01 9669
0.21 -0.00 0.73 -0.78 10.21 0.12 -0.05 0.00 9675
0.19 -0.02 0.74 -0.83 10.21 0.15 -0.06 0.00 9681
0.20 -0.01 0.55 -1.00 10.07 0.15 -0.10 0.01 9688
0.21 -0.02 0.85 -0.88 10.32 0.18 -0.11 -0.00 9694
0.19 -0.02 0.74 -0.92 10.72 0.26 -0.12 -0.02 9700
0.21 -0.02 0.98 -1.01 10.67 0.31 -0.13 -0.05 9707
0.22 -0.02 1.28 -1.18 10.91 0.43 -0.14 -0.10 9713
0.21 -0.02 1.28 -1.38 11.65 0.61 -0.15 -0.19 9719
0.23 -0.02 1.26 -1.65 12.93 0.94 -0.18 -0.28 9725
0.21 -0.02 1.28 -1.39 13.26 1.33 -0.31 -0.33 9732
0.21 -0.02 1.62 -1.38 13.43 1.62 -0.46 -0.37 9739
0.23 -0.01 1.80 -1.57 12.66 1.76 -0.59 -0.42 9745
0.22 -0.02 1.82 -2.19 12.61 1.84 -0.69 -0.50 9751
0.20 -0.01 1.94 -1.88 12.56 1.90 -0.79 -0.54 9757
0.22 -0.02 2.22 -2.61 12.63 1.94 -0.90 -0.60 9763
0.19 -0.01 2.58 -2.39 12.40 1.97 -0.96 -0.66 9771
0.15 -0.01 2.94 -2.85 11.94 1.95 -1.00 -0.73 9777
0.16 -0.01 3.40 -3.28 12.18 1.95 -0.99 -0.83 9783
0.10 -0.01 3.90 -3.48 11.94 1.91 -0.93 -0.95 9789
0.09 -0.00 4.12 -3.56 12.23 1.88 -0.76 -1.07 9795
0.10 -0.01 4.36 -3.69 11.66 1.84 -0.60 -1.20 9802
0.08 -0.01 3.53 -3.62 12.56 1.77 -0.51 -1.34 9808
0.06 -0.01 2.97 -3.48 12.94 1.70 -0.52 -1.44 9815
0.08 -0.01 2.84 -3.12 12.27 1.65 -0.60 -1.55 9821
0.06 -0.01 3.04 -3.84 11.73 1.62 -0.66 -1.66 9827
0.05 -0.01 3.27 -3.57 11.51 1.57 -0.69 -1.73 9833
0.06 -0.01 3.60 -3.77 10.85 1.48 -0.68 -1.85 9840
0.04 -0.00 4.08 -3.71 10.89 1.39 -0.66 -1.96 9846
0.03 -0.00 4.18 -3.49 11.22 1.28 -0.60 -2.06 9852
0.06 -0.01 4.23 -3.08 11.37 1.15 -0.55 -2.17 9859
0.05 -0.00 3.72 -2.58 10.75 0.98 -0.57 -2.28 9865
0.04 -0.00 3.35 -1.80 10.11 0.87 -0.68 -2.39 9871
0.05 -0.00 2.62 -1.72 8.80 0.73 -0.80 -2.47 9878
0.04 -0.00 2.52 -1.14 8.18 0.60 -1.00 -2.54 9884
0.04 -0.00 2.51 -0.27 7.88 0.46 -1.21 -2.60 9890
0.03 -0.00 3.95 2.09 7.98 0.31 -1.39 -2.61 9896
0.04 -0.00 5.31 3.51 7.63 0.15 -1.46 -2.50 9903
0.04 -0.00 6.68 3.78 7.28 0.02 -1.39 -2.27 9909
0.04 -0.00 7.22 2.22 8.21 -0.11 -1.17 -1.94 9915
0.04 -0.00 7.81 0.97 9.94 -0.32 -0.89 -1.59 9921
0.05 -0.01 8.50 0.69 10.09 -0.57 -0.57 -1.32 9927
0.04 -0.00 8.58 0.73 9.73 -0.74 -0.39 -1.13 9934
0.03 -0.00 8.37 0.80 9.03 -0.85 -0.25 -0.94 9940
0.04 -0.00 7.79 0.62 8.12 -0.92 -0.08 -0.75 9947
0.05 -0.01 7.63 0.44 7.87 -0.95 0.10 -0.58 9953
0.04 -0.00 7.58 0.19 7.89 -0.96 0.26 -0.43 9959
0.04 -0.00 7.40 -0.06 8.22 -0.93 0.36 -0.28 9965
0.04 -0.00 7.15 -0.28 8.31 -0.87 0.49 -0.19 9971
0.04 -0.00 6.80 -0.19 8.20 -0.81 0.63 -0.07 9977
0.04 -0.00 6.40 -0.11 8.16 -0.76 0.75 0.02 9984
0.03 -0.00 5.92 -0.31 8.33 -0.73 0.86 0.09 9990
0.02 -0.00 5.51 -0.43 8.70 -0.69 0.98 0.13 9996
0.04 0.01 5.01 -0.47 9.06 -0.65 1.06 0.17 10003
0.03 -0.00 4.68 -0.41 9.58 -0.63 1.17 0.20 10009
0.04 -0.00 4.42 -0.34 9.90 -0.62 1.29 0.23 10015
0.04 -0.00 4.13 -0.35 10.21 -0.65 1.41 0.27 10021
0.03 -0.00 3.71 -0.51 10.40 -0.70 1.50 0.30 10028
0.04 -0.00 3.14 -0.83 10.55 -0.74 1.56 0.34 10035
0.04 0.00 2.69 -1.06 10.77 -0.78 1.58 0.38 10041
0.04 -0.00 2.34 -1.26 10.98 -0.83 1.57 0.43 10047
0.03 -0.00 2.13 -1.43 10.97 -0.82 1.53 0.48 10053
0.04 0.00 1.94 -1.47 10.79 -0.84 1.48 0.52 10059
0.03 -0.00 1.83 -1.82 10.77 -0.87 1.45 0.55 10066
0.03 -0.00 1.71 -1.82 10.80 -0.86 1.43 0.54 10073
0.04 -0.00 1.75 -1.98 10.90 -0.86 1.43 0.51 10079
0.04 -0.00 1.71 -1.97 10.84 -0.85 1.46 0.46 10085
0.03 -0.00 1.54 -1.93 10.70 -0.83 1.54 0.37 10091
0.05 -0.01 1.27 -1.94 10.75 -0.81 1.63 0.31 10098
0.04 -0.00 0.96 -1.93 11.04 -0.78 1.72 0.28 10104
0.04 -0.00 0.74 -1.94 11.34 -0.77 1.78 0.23 10110
0.05 -0.00 0.45 -1.91 11.55 -0.77 1.82 0.20 10117
0.04 -0.00 0.05 -1.96 11.72 -0.78 1.82 0.19 10123
0.03 -0.00 -0.32 -2.14 11.66 -0.78 1.79 0.20 10130
0.04 -0.00 -0.56 -2.44 11.66 -0.77 1.73 0.22 10136
0.03 -0.00 -0.72 -2.68 11.62 -0.75 1.64 0.23 10142
0.04 -0.00 -0.72 -2.96 11.34 -0.73 1.56 0.24 10148
0.03 -0.00 -0.60 -3.28 11.21 -0.69 1.51 0.23 10155
0.03 -0.00 -0.48 -3.57 11.20 -0.65 1.48 0.21 10162
0.04 -0.00 -0.50 -3.75 11.06 -0.59 1.48 0.19 10168
0.03 -0.00 -1.17 -3.77 10.84 -0.53 1.50 0.20 10174
0.03 -0.00 -0.83 -3.67 10.63 -0.45 1.52 0.23 10180
0.04 0.00 -1.15 -3.58 10.52 -0.37 1.53 0.30 10186
0.04 -0.00 -1.37 -3.42 10.77 -0.28 1.50 0.42 10193
0.03 -0.00 -1.52 -3.19 11.29 -0.20 1.46 0.52 10200
0.06 -0.01 -1.66 -2.96 11.65 -0.17 1.42 0.68 10206
0.04 -0.00 -1.83 -2.79 11.98 -0.18 1.36 0.84 10212
0.04 -0.00 -1.88 -2.70 12.32 -0.24 1.29 0.99 10218
0.05 -0.00 -1.82 -2.88 12.62 -0.34 1.19 1.11 10225
0.03 -0.00 -2.08 -3.14 12.45 -0.46 1.10 1.22 10231
0.04 -0.00 -2.42 -3.44 11.92 -0.56 1.03 1.29 10237
0.04 -0.00 -2.86 -3.82 11.10 -0.62 0.97 1.34 10244
0.04 -0.00 -3.39 -4.32 10.27 -0.61 0.92 1.36 10251
0.04 0.01 -4.05 -4.77 9.71 -0.54 0.88 1.35 10257
0.04 -0.00 -4.77 -5.06 9.47 -0.46 0.82 1.31 10263
0.03 -0.00 -5.34 -5.18 9.30 -0.35 0.74 1.24 10269
0.04 0.00 -5.59 -5.07 9.35 -0.26 0.62 1.17 10275
0.04 -0.00 -5.63 -4.84 9.38 -0.20 0.52 1.12 10281
0.04 -0.00 -5.48 -4.77 9.26 -0.16 0.39 1.09 10289
0.04 -0.00 -5.35 -4.66 9.19 -0.14 0.27 1.10 10295
0.05 -0.00 -5.13 -4.67 9.16 -0.11 0.19 1.13 10301
0.03 -0.00 -4.89 -4.69 9.21 -0.07 0.14 1.19 10307
0.02 -0.00 -4.84 -4.73 9.18 -0.04 0.11 1.26 10313
0.03 -0.00 -5.15 -4.90 9.18 -0.03 0.07 1.33 10319
0.03 -0.00 -19.42 -12.71 21.38 0.25 -1.54 1.48 10327
0.03 -0.00 -17.05 -6.79 11.58 0.60 -3.08 1.78 10333
0.04 -0.00 -10.70 -5.68 3.06 0.48 -3.64 1.98 10339
0.04 -0.00 -9.12 -10.32 7.91 0.39 -4.25 2.01 10345
0.04 0.01 -12.19 -12.93 11.06 0.25 -4.28 1.90 10352
0.02 0.00 -9.86 -7.00 14.30 0.33 -4.28 1.81 10358
0.01 0.11 -8.60 -0.06 11.56 1.23 -2.13 1.74 10364
0.02 0.31 -16.47 -5.98 24.72 1.28 -1.62 1.51 10371
0.01 0.38 -13.24 -0.04 21.26 0.69 -1.55 0.77 10378
0.02 0.46 -2.94 0.16 14.75 0.33 -1.12 0.09 10384
0.01 0.46 -0.01 0.06 11.81 0.13 -0.39 -0.00 10390
0.01 0.41 1.73 0.11 8.67 0.14 -0.21 0.04 10397
0.01 0.34 3.34 0.16 8.91 0.27 -0.39 0.14 10403
0.02 0.24 1.86 -1.06 10.59 0.29 -0.35 0.34 10409
0.05 0.28 0.59 -0.47 10.72 0.17 -0.25 0.43 10416
0.04 0.24 -0.24 -1.56 10.21 0.06 -0.27 0.31 10422
0.05 0.24 0.02 -0.80 10.06 0.02 -0.25 0.23 10429
0.05 0.25 0.10 -1.26 9.98 0.01 -0.20 0.18 10435
0.04 0.24 0.02 -1.69 9.87 -0.02 -0.17 0.14 10441
0.04 0.29 0.47 -1.46 10.16 -0.06 -0.13 0.12 10447
0.03 0.30 0.16 -1.00 9.96 -0.08 -0.10 0.07 10455
0.04 0.31 0.47 -1.09 10.13 -0.11 -0.06 0.06 10461
0.06 0.40 0.51 -0.86 10.04 -0.11 -0.05 0.05 10467
0.06 0.41 0.64 -0.76 10.21 -0.09 -0.05 0.05 10473
0.05 0.43 0.64 -0.66 10.08 -0.07 -0.04 0.05 10479
0.07 0.48 0.59 -0.62 10.06 -0.06 -0.04 0.05 10486
0.05 0.47 0.56 -0.72 10.06 -0.04 -0.03 0.06 10492
0.05 0.47 0.56 -0.83 10.09 -0.04 -0.02 0.06 10499
0.05 0.47 0.61 -0.78 10.08 -0.04 -0.03 0.06 10505
0.04 0.48 0.58 -0.80 9.92 -0.04 -0.03 0.06 10512
0.05 0.45 0.58 -0.79 10.10 -0.05 -0.03 0.06 10518
0.05 0.46 0.64 -0.78 10.06 -0.05 -0.04 0.06 10524
0.06 0.51 0.69 -0.76 10.07 -0.05 -0.04 0.06 10530
0.06 0.50 0.73 -0.71 10.08 -0.05 -0.05 0.06 10537
0.05 0.51 0.71 -0.80 9.96 -0.06 -0.06 0.05 10544
0.05 0.51 0.78 -0.85 10.11 -0.06 -0.06 0.03 10550
0.06 0.52 0.64 -0.80 10.07 -0.10 -0.07 0.04 10556
0.04 0.55 0.78 -0.82 10.64 -0.05 -0.09 0.04 10562
0.09 0.57 0.66 -0.72 10.02 -0.06 -0.06 0.03 10569
0.07 0.58 0.57 -0.74 10.06 -0.06 -0.06 0.03 10575
0.08 0.60 0.62 -0.72 10.05 -0.05 -0.06 0.03 10582
0.08 0.65 0.64 -0.69 10.06 -0.04 -0.05 0.03 10588
0.04 0.65 0.00 -0.70 9.99 -0.04 -0.05 0.03 10595
0.06 0.69 0.58 -0.69 10.06 -0.03 -0.04 0.03 10601
0.07 0.66 0.63 -0.71 10.05 -0.03 -0.04 0.03 10607
0.06 0.68 0.62 -0.72 9.98 -0.03 -0.03 0.03 10613
0.08 0.67 0.61 -0.70 10.01 -0.03 -0.03 0.03 10619
0.07 0.67 0.62 -0.68 10.04 -0.02 -0.02 0.03 10627
0.06 0.69 0.63 -0.69 9.98 -0.02 -0.02 0.03 10633
0.08 0.68 0.67 -0.67 9.97 -0.02 -0.01 0.03 10639
0.08 0.65 0.65 -0.68 9.99 -0.02 -0.00 0.03 10645
0.07 0.67 0.60 -0.70 10.06 -0.02 -0.00 0.03 10651
0.10 0.67 0.64 -0.71 10.04 -0.02 -0.00 0.03 10658
0.08 0.67 0.62 -0.68 9.99 -0.02 0.00 0.03 10664
0.07 0.70 0.65 -0.67 10.13 -0.01 0.01 0.03 10671
0.07 0.70 0.65 -0.70 10.03 -0.01 0.01 0.03 10677
0.06 0.71 0.62 -0.69 10.04 -0.01 0.01 0.03 10683
0.07 0.71 0.64 -0.68 9.98 -0.01 0.01 0.03 10690
0.07 0.70 0.67 -0.67 10.03 -0.01 0.01 0.03 10696
0.03 0.72 0.68 -0.67 10.05 -0.01 0.00 0.03 10702
0.06 0.73 0.73 -0.71 10.04 -0.01 0.00 0.02 10708
0.07 0.73 0.70 -0.68 10.07 -0.01 0.00 0.03 10716
0.07 0.72 0.71 -0.69 9.99 -0.01 -0.00 0.03 10722
0.09 0.72 0.72 -0.69 10.09 -0.01 -0.00 0.03 10728
0.07 0.70 0.70 -0.69 10.06 -0.01 -0.01 0.03 10734
0.07 0.68 0.69 -0.70 10.05 -0.01 -0.01 0.03 10740
0.08 0.68 0.67 -0.74 10.04 -0.01 -0.01 0.03 10747
0.08 0.65 0.69 -0.68 10.03 -0.01 -0.01 0.03 10754
0.07 0.67 0.64 -0.68 10.04 -0.01 -0.02 0.02 10760
0.07 0.67 0.67 -0.69 10.01 -0.01 -0.02 0.03 10766
0.05 0.70 0.65 -0.71 10.05 -0.01 -0.02 0.02 10773
0.08 0.70 0.68 -0.70 10.03 -0.01 -0.02 0.02 10779
0.07 0.68 0.67 -0.69 10.01 -0.01 -0.02 0.02 10785
0.07 0.71 0.68 -0.68 10.00 -0.01 -0.02 0.02 10791
0.06 0.70 0.69 -0.67 10.03 -0.01 -0.02 0.02 10798
0.05 0.69 0.68 -0.64 10.03 -0.01 -0.02 0.02 10805
0.04 0.72 0.67 -0.68 9.99 -0.01 -0.01 0.02 10811
0.05 0.70 0.71 -0.65 9.99 -0.00 -0.02 0.02 10817
0.04 0.69 0.68 -0.69 10.02 -0.01 -0.01 0.02 10823
0.04 0.73 0.69 -0.68 10.02 -0.01 -0.01 0.02 10829
0.04 0.72 0.67 -0.68 10.04 -0.01 -0.01 0.02 10836
0.03 0.73 0.69 -0.69 9.97 -0.01 -0.01 0.02 10843
0.04 0.76 0.65 -0.67 10.02 -0.02 -0.01 0.02 10849
0.04 0.74 0.66 -0.68 10.09 -0.02 0.00 0.02 10855
0.03 0.78 0.66 -0.67 10.06 -0.02 0.01 0.02 10862
0.04 0.79 0.66 -0.67 10.02 -0.01 0.01 0.02 10868
0.02 0.77 0.69 -0.64 9.97 -0.02 0.01 0.02 10874
0.02 0.80 0.74 -0.66 9.99 -0.02 0.01 0.02 10881
0.03 0.79 0.69 -0.67 9.96 -0.02 0.00 0.02 10887
0.03 0.81 0.70 -0.65 9.98 -0.02 0.01 0.02 10893
0.02 0.84 0.73 -0.66 10.00 -0.01 -0.00 0.01 10900
0.03 0.84 0.74 -0.68 10.02 -0.01 0.00 0.02 10906
0.01 0.87 0.74 -0.64 10.04 -0.01 -0.00 0.02 10912
0.02 0.87 0.73 -0.63 10.00 -0.01 -0.00 0.01 10918
0.03 0.84 0.71 -0.66 10.03 -0.01 -0.01 0.01 10926
0.02 0.86 0.73 -0.66 10.01 -0.01 -0.01 0.01 10932
0.05 0.86 0.75 -0.68 10.02 -0.01 -0.02 0.01 10938
0.03 0.86 0.76 -0.65 9.99 -0.01 -0.02 0.01 10944
0.02 0.87 0.68 -0.66 9.93 -0.01 -0.03 0.01 10950
0.04 0.91 0.71 -0.64 10.04 -0.01 -0.03 0.01 10957
0.03 0.85 0.78 -0.68 9.96 -0.02 -0.03 0.01 10963
0.01 0.89 0.69 -0.65 9.99 -0.02 -0.03 0.01 10970
0.03 0.90 0.69 -0.64 9.99 -0.02 -0.03 0.01 10976
0.02 0.89 0.73 -0.66 10.02 -0.01 -0.03 0.01 10982
0.03 0.92 0.71 -0.63 10.01 -0.01 -0.03 0.02 10989
0.02 0.91 0.73 -0.62 10.00 -0.01 -0.03 0.02 10995
-0.00 0.89 0.72 -0.62 9.97 -0.01 -0.03 0.02 11001
-0.00 0.92 0.73 -0.64 10.01 -0.01 -0.03 0.02 11008
0.00 0.93 0.71 -0.66 9.97 -0.01 -0.04 0.02 11015
-0.01 0.94 0.68 -0.65 9.98 -0.01 -0.04 0.02 11021
0.02 0.94 0.71 -0.67 10.00 -0.01 -0.04 0.02 11027
0.01 0.93 0.68 -0.64 9.97 -0.01 -0.04 0.02 11033
0.01 0.91 0.69 -0.64 9.96 -0.01 -0.04 0.02 11039
0.02 0.92 0.74 -0.65 9.98 -0.01 -0.05 0.02 11046
-0.00 0.91 0.66 -0.70 10.02 -0.01 -0.05 0.02 11053
0.01 0.90 0.71 -0.66 9.98 -0.00 -0.04 0.02 11059
0.02 0.91 0.72 -0.65 9.97 -0.00 -0.04 0.02 11065
0.01 0.91 0.73 -0.64 10.02 -0.00 -0.04 0.01 11071
0.02 0.90 0.72 -0.67 10.06 -0.00 -0.05 0.02 11078
0.02 0.90 0.72 -0.64 9.96 0.00 -0.05 0.02 11084
0.01 0.87 0.72 -0.65 10.01 -0.00 -0.05 0.02 11090
0.02 0.89 0.71 -0.67 10.05 0.00 -0.05 0.02 11097
0.03 0.86 0.70 -0.67 9.98 0.00 -0.05 0.02 11103
0.02 0.84 0.72 -0.65 9.99 0.00 -0.05 0.01 11110
0.04 0.82 0.72 -0.67 10.01 0.00 -0.05 0.01 11116
0.04 0.77 0.73 -0.68 10.02 0.01 -0.05 0.01 11122
0.03 0.74 0.66 -0.70 9.93 0.00 -0.05 0.01 11128
0.05 0.73 0.73 -0.65 10.04 0.00 -0.05 0.01 11134
0.05 0.72 0.68 -0.67 10.04 0.01 -0.04 0.01 11142
0.05 0.67 0.68 -0.69 9.98 0.01 -0.04 0.02 11148
0.09 0.64 0.68 -0.64 9.98 0.02 -0.04 0.02 11154
0.10 0.54 0.72 -0.64 10.08 0.03 -0.03 0.01 11160
0.11 0.44 0.76 -0.62 10.08 0.03 -0.03 0.01 11166
0.13 0.35 0.72 -0.68 10.05 0.04 -0.03 0.01 11173
0.14 0.31 0.74 -0.70 10.06 0.05 -0.03 0.02 11180
0.15 0.30 0.73 -0.73 10.07 0.06 -0.03 0.02 11186
0.17 0.16 0.72 -0.67 10.04 0.07 -0.03 0.01 11192
0.17 0.15 0.74 -0.71 10.04 0.08 -0.03 0.01 11199
0.23 0.11 0.76 -0.71 10.17 0.10 -0.03 0.01 11205
0.23 0.05 0.78 -0.71 10.14 0.13 -0.03 0.00 11211
0.23 0.05 0.76 -0.83 10.21 0.17 -0.03 0.01 11217
0.24 -0.00 0.75 -0.71 10.28 0.20 -0.05 0.00 11225
0.26 -0.02 0.78 -0.81 10.44 0.25 -0.06 -0.01 11231
0.31 -0.03 0.97 -0.82 10.56 0.32 -0.09 -0.03 11237
0.32 -0.03 2.80 -1.59 8.73 0.38 -0.15 -0.06 11243
0.35 -0.03 1.52 -1.19 11.24 0.55 -0.19 -0.14 11250
0.40 -0.03 2.53 -1.53 12.11 0.84 -0.25 -0.27 11256
0.40 -0.04 2.20 -1.41 14.04 1.29 -0.36 -0.41 11262
0.41 -0.02 1.82 -1.43 14.51 1.80 -0.54 -0.51 11269
0.43 -0.02 1.51 -1.62 14.08 2.06 -0.79 -0.56 11276
0.40 -0.02 1.96 -1.98 13.19 2.15 -0.91 -0.60 11282
0.39 -0.02 1.97 -2.05 12.80 2.21 -1.01 -0.65 11288
0.35 -0.02 0.14 -1.90 11.84 2.26 -1.07 -0.75 11294
0.33 -0.01 2.60 -2.64 12.84 2.28 -1.12 -0.78 11301
0.28 -0.03 2.82 -2.62 12.52 2.29 -1.15 -0.88 11308
0.21 -0.01 3.43 -3.06 11.68 2.26 -1.10 -0.94 11314
0.17 -0.01 3.96 -3.39 11.70 2.19 -0.95 -1.04 11320
0.10 -0.01 4.61 -3.88 12.30 2.13 -0.76 -1.15 11327
0.09 -0.01 5.09 -3.68 12.50 2.06 -0.54 -1.29 11333
0.05 -0.01 5.19 -3.97 12.22 1.99 -0.33 -1.44 11339
0.06 -0.01 4.77 -4.28 13.32 1.84 -0.20 -1.62 11345
0.05 -0.01 4.35 -4.48 13.18 1.74 -0.18 -1.78 11353
0.05 -0.00 4.42 -4.66 14.03 1.64 -0.16 -1.94 11359
0.05 -0.00 4.82 -4.04 14.29 1.48 -0.27 -2.07 11365
0.05 -0.01 3.60 -3.90 13.63 1.29 -0.44 -2.19 11371
0.06 -0.01 3.47 -2.66 12.46 1.08 -0.72 -2.29 11377
0.07 -0.01 3.82 -1.81 11.52 0.82 -0.99 -2.38 11384
0.05 -0.01 3.35 -1.77 9.73 0.55 -1.36 -2.48 11390
0.04 -0.00 3.86 -0.81 8.19 0.34 -1.72 -2.53 11397
0.05 -0.00 4.86 0.63 7.06 0.18 -2.01 -2.56 11403
0.04 -0.00 7.43 2.67 5.66 0.05 -2.19 -2.50 11409
0.02 -0.00 8.84 2.04 6.11 -0.08 -2.13 -2.27 11415
0.03 0.01 8.78 0.38 8.70 -0.27 -1.75 -1.96 11422
0.03 -0.00 8.96 -0.04 10.24 -0.62 -1.21 -1.66 11428
0.02 -0.00 8.90 0.62 9.27 -0.86 -0.86 -1.39 11435
0.05 0.00 7.80 1.04 8.29 -0.92 -0.75 -1.16 11441
0.04 -0.00 6.82 0.95 6.66 -0.94 -0.73 -0.95 11447
0.04 -0.00 6.62 0.71 6.15 -0.88 -0.70 -0.74 11453
0.04 -0.00 7.05 0.60 6.34 -0.79 -0.63 -0.56 11460
0.05 -0.00 7.53 0.45 6.64 -0.69 -0.47 -0.43 11466
0.04 -0.00 7.90 0.42 6.82 -0.58 -0.21 -0.32 11472
0.03 -0.00 8.21 0.50 7.23 -0.50 0.13 -0.23 11479
0.05 -0.01 8.29 0.44 7.73 -0.45 0.53 -0.17 11485
0.04 -0.00 7.77 0.27 8.13 -0.43 0.92 -0.13 11491
0.04 -0.00 6.90 0.06 8.59 -0.41 1.24 -0.10 11497
0.05 0.00 6.11 -0.23 9.03 -0.41 1.48 -0.08 11504
0.05 -0.00 5.36 -0.60 9.36 -0.42 1.58 -0.07 11510
0.04 -0.00 4.75 -0.86 9.82 -0.43 1.61 -0.07 11516
0.05 -0.00 4.28 -1.08 10.21 -0.44 1.55 -0.06 11523
0.05 -0.01 3.86 -1.12 10.49 -0.46 1.45 -0.06 11529
0.04 -0.00 3.78 -0.97 10.68 -0.51 1.35 -0.06 11536
0.04 -0.00 4.03 -0.79 10.70 -0.56 1.26 -0.05 11542
0.04 -0.00 4.21 -0.69 10.70 -0.63 1.20 -0.05 11548
0.04 -0.00 4.48 -0.64 10.65 -0.68 1.23 -0.04 11554
0.04 -0.00 4.67 -0.66 10.65 -0.72 1.33 -0.03 11560
0.04 -0.00 4.46 -0.67 10.55 -0.74 1.48 -0.03 11568
0.04 -0.00 4.15 -0.77 10.57 -0.73 1.64 -0.05 11574
0.05 0.00 3.80 -0.82 10.74 -0.72 1.77 -0.08 11580
0.04 -0.00 3.61 -0.78 10.95 -0.70 1.83 -0.14 11586
0.03 -0.00 3.38 -0.67 11.11 -0.68 1.88 -0.21 11592
0.05 -0.01 3.11 -0.53 11.18 -0.65 1.95 -0.28 11599
0.04 -0.00 2.92 -0.45 11.49 -0.64 2.03 -0.35 11606
0.03 -0.00 2.61 -0.33 11.52 -0.64 2.09 -0.41 11612
0.05 -0.01 2.10 -0.09 11.48 -0.63 2.17 -0.46 11618
0.04 -0.00 1.45 0.14 11.39 -0.62 2.27 -0.48 11624
0.04 -0.00 0.70 0.28 11.28 -0.60 2.35 -0.47 11631
0.06 -0.01 -0.01 0.36 11.27 -0.57 2.39 -0.43 11637
0.04 -0.00 -0.78 0.45 11.35 -0.53 2.38 -0.35 11643
0.04 -0.00 -1.66 0.58 11.32 -0.50 2.34 -0.25 11650
0.04 -0.00 -2.42 0.68 11.46 -0.45 2.27 -0.11 11656
0.03 -0.00 -3.11 0.68 11.67 -0.42 2.16 0.05 11663
0.04 -0.00 -3.75 0.67 11.66 -0.39 2.00 0.22 11669
0.04 -0.00 -4.01 0.82 11.82 -0.39 1.81 0.40 11675
0.04 -0.00 -4.01 0.83 11.94 -0.40 1.63 0.59 11681
0.03 -0.00 -3.89 0.73 12.21 -0.44 1.50 0.78 11687
0.04 -0.00 -3.54 0.47 12.53 -0.51 1.35 0.95 11695
0.04 -0.00 -3.20 -0.01 12.65 -0.60 1.21 1.07 11701
0.04 -0.00 -2.88 -0.60 12.43 -0.70 1.08 1.18 11707
0.04 -0.00 -2.65 -1.32 12.15 -0.80 0.96 1.26 11713
0.03 -0.00 -2.45 -2.10 11.71 -0.87 0.85 1.31 11719
0.04 -0.00 -2.06 -3.03 11.12 -0.90 0.74 1.34 11726
0.04 -0.00 -1.51 -3.85 10.64 -0.90 0.65 1.34 11732
0.03 -0.00 -0.93 -4.54 10.27 -0.86 0.59 1.34 11739
0.05 -0.01 -0.50 -5.05 9.80 -0.81 0.55 1.32 11745
0.04 -0.00 -0.18 -5.46 9.45 -0.75 0.55 1.30 11751
0.02 -0.00 0.08 -5.72 9.27 -0.67 0.60 1.29 11757
0.03 0.01 0.22 -5.94 9.55 -0.57 0.70 1.29 11764
0.03 -0.00 0.17 -6.07 9.73 -0.49 0.79 1.30 11770
0.03 -0.00 -0.23 -6.06 9.73 -0.43 0.87 1.37 11777
0.04 -0.00 -0.69 -6.05 9.79 -0.37 0.89 1.40 11783
0.05 -0.00 -1.19 -6.02 9.62 -0.32 0.84 1.47 11789
0.03 -0.00 -1.78 -6.27 9.37 -0.25 0.73 1.56 11795
0.03 -0.00 -2.50 -6.53 9.05 -0.17 0.58 1.65 11802
0.04 -0.00 -2.92 -6.74 8.83 -0.06 0.41 1.71 11808
0.03 -0.00 -3.09 -7.06 8.53 0.04 0.28 1.74 11814
0.03 -0.00 -3.24 -7.57 8.30 0.18 0.24 1.72 11821
0.03 0.00 -4.35 -8.56 8.35 0.32 0.28 1.67 11827
0.04 -0.00 -18.80 -14.59 19.72 0.82 -1.16 1.80 11833
0.03 -0.00 -17.68 -9.09 10.58 1.17 -2.83 2.01 11840
0.05 -0.00 -11.59 -6.54 3.53 1.01 -3.46 2.11 11846
0.03 -0.00 -10.45 -10.39 8.74 0.88 -4.03 2.12 11852
0.03 0.01 -16.18 -12.84 11.41 0.72 -4.28 2.05 11859
0.02 -0.00 -21.31 -13.32 10.89 0.62 -4.28 2.04 11866
0.03 0.10 -14.82 -0.92 31.31 1.32 -3.99 2.11 11872
0.03 0.27 -26.27 -9.84 36.59 1.46 -3.07 2.03 11879
0.02 0.38 -17.40 -1.24 18.23 0.69 -1.99 1.04 11885
0.02 0.41 -6.28 -1.51 12.35 -0.00 -0.38 0.17 11891
0.01 0.41 -1.70 0.01 10.34 -0.04 -0.18 -0.06 11897
0.02 0.36 1.47 -0.22 8.75 0.00 -0.11 -0.12 11905
0.02 0.34 3.35 -0.52 9.47 0.12 -0.14 0.06 11911
0.04 0.34 2.19 0.01 9.78 0.13 -0.14 0.28 11917
0.05 0.33 1.56 0.01 10.49 0.08 -0.20 0.35 11923
0.04 0.33 0.47 -0.36 10.08 0.02 -0.26 0.31 11929
0.04 0.32 0.21 -1.30 9.81 0.01 -0.21 0.23 11936
0.05 0.33 0.34 -1.19 9.93 -0.01 -0.18 0.20 11942
0.04 0.33 0.39 -1.32 9.99 -0.03 -0.15 0.20 11949
0.04 0.37 -0.08 -1.15 9.81 -0.05 -0.13 0.15 11955
0.05 0.39 0.23 -1.12 9.30 -0.08 -0.11 0.10 11961
0.04 0.42 0.40 -0.87 9.79 -0.10 -0.10 0.08 11968
0.07 0.41 0.54 -0.88 10.19 -0.09 -0.10 0.07 11974
0.06 0.44 0.48 -0.64 10.00 -0.07 -0.09 0.05 11980
0.08 0.45 0.53 -0.56 10.14 -0.05 -0.09 0.05 11986
0.12 0.45 0.52 -0.70 10.10 -0.04 -0.09 0.05 11994
0.13 0.41 0.31 -0.80 10.10 -0.03 -0.09 0.05 12000
0.11 0.42 0.42 -0.80 10.11 -0.03 -0.08 0.06 12006
0.13 0.37 0.48 -0.82 9.98 -0.04 -0.08 0.06 12012
0.13 0.36 0.69 -0.69 9.84 -0.04 -0.07 0.07 12018
0.18 0.35 0.40 -0.71 9.96 -0.04 -0.08 0.06 12025
0.17 0.35 0.50 -0.50 10.13 -0.04 -0.09 0.06 12032
0.18 0.33 0.53 -0.72 10.04 -0.04 -0.08 0.06 12038
0.20 0.32 0.53 -0.74 10.09 -0.03 -0.08 0.06 12044
0.21 0.37 0.51 -0.72 10.01 -0.04 -0.09 0.06 12051
0.25 0.36 0.55 -0.74 9.93 -0.04 -0.09 0.06 12057
0.25 0.38 0.51 -0.77 10.07 -0.03 -0.09 0.05 12063
0.26 0.35 0.52 -0.71 10.08 -0.03 -0.09 0.05 12069
0.29 0.38 0.60 -0.75 10.14 -0.02 -0.08 0.04 12077
0.29 0.36 0.58 -0.73 10.11 -0.02 -0.08 0.03 12083
0.32 0.33 0.57 -0.76 10.07 -0.01 -0.07 0.02 12089
0.33 0.36 0.57 -0.77 10.02 -0.01 -0.06 0.01 12095
0.31 0.35 0.52 -0.71 10.03 -0.01 -0.06 0.02 12102
0.31 0.38 0.48 -0.73 10.13 -0.01 -0.06 0.02 12108
0.31 0.34 0.53 -0.72 10.01 -0.01 -0.06 0.02 12114
0.30 0.32 0.50 -0.68 10.07 -0.01 -0.06 0.02 12121
0.34 0.28 0.51 -0.71 10.04 -0.01 -0.06 0.03 12128
0.31 0.32 0.51 -0.67 10.04 -0.01 -0.05 0.02 12134
0.32 0.30 0.51 -0.73 10.05 -0.01 -0.05 0.02 12140
0.34 0.29 0.49 -0.74 10.03 -0.01 -0.04 0.02 12146
0.34 0.31 0.52 -0.73 10.05 -0.01 -0.04 0.02 12152
0.36 0.31 0.52 -0.70 10.06 -0.01 -0.04 0.02 12160
0.35 0.31 0.52 -0.70 10.02 -0.01 -0.03 0.02 12166
0.34 0.33 0.49 -0.70 10.03 -0.01 -0.04 0.02 12172
0.36 0.31 0.50 -0.73 10.03 -0.01 -0.03 0.02 12178
0.34 0.31 0.47 -0.72 10.06 -0.01 -0.03 0.02 12185
0.34 0.34 0.51 -0.68 10.06 -0.01 -0.03 0.02 12191
0.34 0.33 0.51 -0.71 10.04 -0.01 -0.03 0.02 12197
0.36 0.33 0.48 -0.72 10.07 -0.01 -0.03 0.02 12204
0.36 0.34 0.48 -0.68 10.04 -0.01 -0.03 0.02 12211
0.34 0.33 0.48 -0.67 10.03 -0.01 -0.03 0.02 12217
0.35 0.35 0.49 -0.73 10.04 -0.01 -0.03 0.02 12223
0.34 0.34 0.48 -0.69 9.97 -0.01 -0.03 0.02 12229
0.34 0.34 0.47 -0.68 9.98 -0.01 -0.03 0.02 12235
0.36 0.35 0.48 -0.68 10.01 -0.01 -0.02 0.02 12242
0.35 0.33 0.50 -0.70 9.98 -0.01 -0.02 0.02 12249
0.35 0.33 0.50 -0.74 10.04 -0.01 -0.02 0.03 12255
0.37 0.33 0.48 -0.75 9.99 -0.01 -0.02 0.03 12261
0.37 0.32 0.48 -0.69 9.97 -0.02 -0.02 0.02 12267
0.36 0.35 0.49 -0.68 10.06 -0.02 -0.02 0.02 12274
0.35 0.38 0.50 -0.67 10.06 -0.02 -0.02 0.03 12280
0.32 0.38 0.50 -0.68 10.04 -0.02 -0.02 0.03 12286
0.33 0.39 0.55 -0.67 10.06 -0.02 -0.03 0.03 12293
0.33 0.38 0.51 -0.71 10.08 -0.02 -0.03 0.03 12300
0.31 0.39 0.51 -0.70 10.04 -0.02 -0.03 0.03 12306
0.31 0.42 0.52 -0.71 10.02 -0.02 -0.03 0.03 12312
0.28 0.43 0.49 -0.68 10.05 -0.02 -0.03 0.03 12318
0.26 0.47 0.50 -0.71 10.04 -0.02 -0.03 0.03 12325
0.25 0.47 0.51 -0.67 10.04 -0.03 -0.03 0.03 12332
0.22 0.51 0.51 -0.69 10.04 -0.02 -0.03 0.03 12338
0.26 0.54 0.51 -0.70 10.07 -0.03 -0.03 0.03 12344
0.21 0.54 0.48 -0.68 9.98 -0.02 -0.03 0.03 12351
0.18 0.59 0.50 -0.68 10.00 -0.02 -0.03 0.03 12357
0.17 0.60 0.44 -0.68 10.04 -0.03 -0.03 0.03 12363
0.13 0.64 0.44 -0.68 10.02 -0.02 -0.03 0.03 12369
0.11 0.70 0.48 -0.69 10.03 -0.02 -0.02 0.02 12376
0.09 0.68 0.45 -0.68 10.04 -0.02 -0.01 0.03 12383
0.07 0.70 0.44 -0.64 10.04 -0.02 -0.01 0.03 12389
0.06 0.74 0.48 -0.67 10.03 -0.02 -0.00 0.02 12395
0.07 0.75 0.50 -0.67 10.03 -0.02 -0.01 0.02 12401
0.08 0.77 0.52 -0.68 10.01 -0.02 -0.01 0.02 12408
0.08 0.75 0.55 -0.65 10.10 -0.02 -0.01 0.02 12414
0.07 0.76 0.54 -0.66 10.03 -0.02 -0.02 0.02 12421
0.06 0.75 0.54 -0.69 9.97 -0.02 -0.03 0.02 12427
0.05 0.81 0.50 -0.68 9.98 -0.02 -0.03 0.01 12433
0.05 0.80 0.49 -0.67 9.96 -0.02 -0.04 0.01 12440
0.04 0.86 0.52 -0.63 9.93 -0.03 -0.04 0.01 12446
0.06 0.83 0.50 -0.65 10.01 -0.02 -0.04 0.01 12452
0.03 0.84 0.51 -0.65 10.02 -0.02 -0.04 0.01 12459
0.04 0.87 0.47 -0.63 9.98 -0.02 -0.04 0.01 12465
0.04 0.88 0.50 -0.69 9.99 -0.01 -0.03 0.01 12472
0.03 0.88 0.49 -0.62 10.03 -0.01 -0.04 0.01 12478
0.07 0.89 0.49 -0.64 10.03 -0.01 -0.03 0.01 12484
0.04 0.86 0.52 -0.65 10.01 -0.01 -0.03 0.01 12490
0.05 0.86 0.48 -0.65 9.99 -0.01 -0.03 0.01 12496
0.05 0.87 0.51 -0.62 10.00 -0.00 -0.03 0.01 12504
0.05 0.85 0.51 -0.67 9.97 -0.01 -0.02 0.01 12510
0.03 0.86 0.49 -0.67 10.06 -0.00 -0.02 0.02 12516
0.03 0.86 0.50 -0.70 10.06 -0.00 -0.02 0.01 12522
0.04 0.84 0.50 -0.67 10.06 -0.00 -0.02 0.01 12529
0.06 0.86 0.47 -0.68 10.08 0.00 -0.02 0.01 12535
0.09 0.83 0.51 -0.69 10.02 0.00 -0.03 0.01 12541
0.07 0.82 0.46 -0.68 10.04 0.01 -0.03 0.01 12548
0.09 0.81 0.47 -0.69 10.07 0.01 -0.03 -0.03 12554
0.09 0.79 0.50 -0.65 10.05 0.01 -0.03 -0.00 12561
0.10 0.78 0.52 -0.65 10.04 0.02 -0.03 -0.01 12567
0.12 0.72 0.51 -0.68 10.02 0.02 -0.03 -0.00 12573
0.08 0.68 0.54 -0.68 10.00 0.02 -0.03 -0.01 12579
0.12 0.61 0.56 -0.71 10.07 0.03 -0.02 -0.01 12587
0.13 0.55 0.61 -0.67 10.08 0.04 -0.02 -0.02 12593
0.13 0.45 0.53 -0.72 10.03 0.06 -0.02 -0.02 12599
0.16 0.38 0.51 -0.75 10.03 0.07 -0.02 -0.02 12605
0.14 0.30 0.60 -0.67 10.03 0.08 -0.01 -0.02 12611
0.14 0.26 0.62 -0.67 10.07 0.09 -0.01 -0.03 12618
0.16 0.16 0.54 -0.72 10.08 0.11 -0.01 -0.03 12624
0.15 0.11 0.57 -0.73 10.17 0.14 -0.02 -0.04 12631
0.18 0.05 0.59 -0.80 10.22 0.17 -0.04 -0.05 12637
0.18 0.03 0.93 -0.56 10.51 0.23 -0.06 -0.06 12644
0.21 -0.00 1.99 -0.63 10.66 0.32 -0.13 -0.12 12650
0.23 -0.02 1.64 -1.34 11.27 0.51 -0.26 -0.21 12656
0.22 -0.02 3.27 -2.38 12.08 0.72 -0.44 -0.37 12662
0.28 -0.02 5.67 -2.74 12.81 0.98 -0.69 -0.65 12669
0.27 -0.03 7.35 -3.78 14.18 1.24 -0.88 -1.11 12676
0.23 -0.02 5.42 -2.92 15.88 1.52 -1.01 -1.52 12682
0.24 -0.02 3.94 -2.49 15.45 1.85 -1.31 -1.73 12688
0.21 -0.02 5.20 -3.19 13.90 2.00 -1.59 -1.88 12695
0.17 -0.01 6.07 -3.53 13.09 2.03 -1.61 -2.08 12701
0.15 -0.01 7.80 -4.17 11.56 2.02 -1.39 -2.33 12707
0.14 -0.01 9.17 -3.46 11.06 1.98 -0.94 -2.57 12713
0.07 -0.01 8.88 -3.92 11.94 1.84 -0.47 -2.78 12721
0.04 -0.00 7.39 -3.35 13.71 1.61 -0.08 -2.97 12727
0.04 0.01 6.98 -2.31 14.92 1.29 0.06 -3.09 12733
0.03 -0.00 4.29 -1.95 14.18 1.04 0.02 -3.19 12739
0.04 -0.00 3.94 -1.07 12.71 0.81 -0.27 -3.23 12746
0.07 -0.01 2.90 -0.09 11.73 0.57 -0.75 -3.24 12752
0.06 -0.01 2.81 0.91 10.40 0.33 -1.31 -3.23 12759
0.03 -0.00 4.17 2.16 8.30 0.13 -1.89 -3.17 12765
0.04 -0.00 6.57 2.57 7.46 0.02 -2.30 -2.96 12771
0.03 -0.00 8.11 1.29 8.55 -0.08 -2.23 -2.56 12777
0.04 -0.00 9.27 0.84 10.73 -0.33 -1.55 -2.13 12784
0.07 -0.01 10.68 1.40 10.43 -0.60 -0.73 -1.76 12790
0.05 -0.01 10.47 1.88 8.97 -0.73 -0.22 -1.48 12796
0.04 -0.00 8.58 2.06 7.11 -0.81 0.06 -1.26 12803
0.05 -0.01 7.24 1.99 5.82 -0.83 0.22 -1.06 12809
0.04 -0.00 6.57 1.52 5.47 -0.79 0.30 -0.88 12816
0.03 -0.00 6.06 0.98 5.69 -0.69 0.41 -0.72 12822
0.04 -0.00 6.01 0.54 5.93 -0.56 0.56 -0.60 12828
0.04 -0.00 5.64 0.04 5.93 -0.39 0.76 -0.49 12834
0.04 -0.00 5.23 -0.32 5.75 -0.23 0.95 -0.43 12840
0.04 -0.00 4.60 -0.62 5.71 -0.07 1.13 -0.38 12847
0.05 -0.01 3.73 -0.86 5.72 0.11 1.24 -0.36 12853
0.03 -0.00 2.90 -1.00 5.99 0.26 1.27 -0.34 12860
0.03 -0.00 2.12 -1.01 6.35 0.43 1.20 -0.32 12866
0.05 -0.00 1.56 -0.97 6.56 0.58 1.14 -0.30 12872
0.05 -0.00 1.08 -0.89 7.16 0.70 0.99 -0.29 12878
0.05 -0.01 1.19 -0.65 8.58 0.79 0.86 -0.26 12884
0.05 -0.00 1.58 -0.22 9.59 0.82 0.81 -0.21 12891
0.05 -0.00 2.15 0.22 11.13 0.78 0.90 -0.13 12898
0.04 -0.00 2.84 0.75 12.42 0.65 1.11 -0.03 12904
0.05 -0.00 3.17 1.03 13.01 0.43 1.40 0.07 12910
0.05 -0.01 2.72 0.98 12.91 0.15 1.68 0.16 12916
0.04 -0.00 1.86 0.72 12.62 -0.16 1.90 0.25 12922
0.05 0.00 0.83 0.14 12.39 -0.38 1.98 0.33 12930
0.05 -0.01 -0.32 -0.69 11.94 -0.52 1.91 0.41 12936
0.03 -0.00 -1.23 -1.42 11.58 -0.60 1.75 0.48 12942
0.05 -0.00 -1.59 -1.82 11.35 -0.61 1.52 0.53 12948
0.05 -0.00 -1.55 -1.95 11.38 -0.59 1.28 0.60 12954
0.05 -0.00 -1.11 -1.97 11.55 -0.56 1.12 0.67 12961
0.05 -0.01 -0.54 -1.90 11.86 -0.57 0.98 0.74 12967
0.04 -0.00 -0.07 -1.95 12.09 -0.60 0.91 0.83 12974
0.04 -0.00 0.07 -2.02 12.82 -0.66 0.90 0.86 12980
0.05 -0.01 -0.10 -2.09 12.26 -0.71 0.91 0.92 12986
0.04 -0.00 -0.37 -2.21 12.19 -0.73 0.92 0.98 12993
0.05 -0.00 -0.69 -2.31 11.82 -0.72 0.89 1.05 12999
0.05 -0.00 -0.84 -2.32 11.59 -0.70 0.80 1.12 13005
0.04 -0.00 -0.77 -2.35 11.52 -0.67 0.68 1.19 13011
0.04 0.00 -0.38 -2.41 11.62 -0.64 0.55 1.24 13018
0.04 -0.00 0.11 -2.54 11.68 -0.63 0.46 1.29 13025
0.04 -0.00 0.42 -2.79 11.62 -0.67 0.39 1.30 13031
0.04 0.00 0.73 -3.02 11.26 -0.65 0.33 1.30 13037
0.04 -0.00 0.99 -3.10 10.76 -0.65 0.29 1.27 13043
0.03 -0.00 1.09 -3.14 10.08 -0.66 0.28 1.22 13049
0.05 -0.01 1.06 -3.07 9.52 -0.63 0.31 1.15 13057
0.04 -0.00 0.92 -2.92 9.20 -0.57 0.38 1.09 13063
0.03 -0.00 0.81 -2.76 8.95 -0.48 0.45 1.04 13069
0.04 -0.00 0.66 -2.52 8.88 -0.37 0.50 0.98 13075
0.04 -0.00 0.54 -2.13 8.78 -0.25 0.54 0.93 13081
0.03 -0.00 0.43 -1.77 8.89 -0.15 0.56 0.91 13087
0.04 -0.00 0.48 -1.47 9.14 -0.06 0.55 0.90 13093
0.05 -0.01 0.65 -1.24 9.56 0.01 0.51 0.90 13101
0.04 -0.00 0.82 -0.90 10.06 0.05 0.49 0.91 13107
0.03 -0.00 1.03 -0.64 10.70 0.05 0.52 0.94 13113
0.04 -0.00 1.07 -0.49 11.06 0.01 0.57 0.97 13119
0.04 -0.00 0.85 -0.44 11.12 -0.07 0.62 1.01 13125
0.03 -0.00 0.45 -0.65 10.88 -0.19 0.63 1.04 13131
0.03 -0.00 0.04 -0.96 10.53 -0.31 0.59 1.04 13138
0.03 -0.00 -0.51 -1.34 10.10 -0.40 0.53 1.01 13145
0.03 -0.00 -1.09 -1.65 9.64 -0.44 0.49 0.96 13151
0.04 0.01 -1.56 -1.74 9.25 -0.43 0.46 0.90 13157
0.03 -0.00 -1.93 -1.76 8.95 -0.42 0.45 0.83 13163
0.03 -0.00 -2.33 -1.79 8.83 -0.39 0.45 0.76 13169
0.04 -0.00 -2.74 -1.95 8.89 -0.36 0.46 0.70 13176
0.05 -0.00 -3.19 -2.07 8.99 -0.33 0.44 0.65 13182
0.03 -0.00 -3.50 -2.28 9.15 -0.29 0.41 0.62 13189
0.03 -0.00 -3.80 -2.50 9.20 -0.27 0.37 0.61 13195
0.04 -0.00 -3.98 -2.80 9.22 -0.26 0.31 0.62 13201
0.04 -0.00 -3.95 -3.09 9.27 -0.25 0.24 0.66 13207
0.04 -0.00 -3.93 -3.40 9.16 -0.23 0.16 0.72 13213
0.04 0.00 -3.68 -3.65 9.04 -0.21 0.08 0.80 13220
0.04 -0.00 -3.33 -3.87 8.73 -0.19 -0.03 0.89 13227
0.03 -0.00 -3.02 -4.15 8.49 -0.17 -0.08 0.99 13233
0.03 -0.00 -2.70 -4.36 7.97 -0.13 -0.15 1.09 13239
0.05 -0.00 -10.31 -9.24 13.03 0.10 -0.79 1.19 13245
0.03 -0.00 -14.11 -7.60 11.93 0.62 -2.91 1.47 13252
0.03 0.01 -7.89 -5.32 3.42 0.52 -3.59 1.76 13258
0.03 -0.00 -7.64 -9.00 4.67 0.56 -4.24 1.89 13264
0.04 0.02 -7.27 -5.87 18.65 1.26 -3.89 2.20 13271
0.03 0.13 -6.60 -6.81 9.89 1.50 -2.13 2.74 13278
0.03 0.24 -13.19 -4.54 16.90 2.13 -1.81 2.72 13284
0.03 0.36 -24.35 -5.72 36.49 2.17 -2.26 2.14 13290
0.01 0.43 -10.03 0.10 17.39 0.31 -0.68 0.91 13296
0.03 0.41 -7.96 -0.73 11.96 -0.00 -0.22 0.22 13303
0.03 0.38 -1.51 0.42 9.46 -0.03 -0.18 -0.22 13309
0.02 0.35 3.01 -1.15 10.22 0.07 -0.11 -0.15 13316
0.03 0.35 3.19 0.15 9.60 0.14 -0.04 0.20 13322
0.05 0.31 1.79 0.25 10.03 0.10 -0.09 0.41 13329
0.03 0.32 -0.01 -1.30 10.62 -0.02 -0.21 0.38 13335
0.05 0.31 -0.17 -1.59 9.98 -0.04 -0.19 0.31 13341
0.04 0.34 0.08 -2.07 10.30 -0.03 -0.11 0.22 13347
0.05 0.36 0.57 -0.87 10.00 -0.07 -0.12 0.17 13355
0.07 0.33 0.38 -1.25 9.72 -0.10 -0.10 0.16 13361
0.06 0.42 -0.03 -1.17 10.06 -0.10 -0.07 0.12 13367
0.05 0.43 0.27 -0.94 9.76 -0.11 -0.06 0.08 13373
0.07 0.44 0.42 -0.75 9.97 -0.11 -0.03 0.07 13379
0.06 0.51 0.41 -0.56 9.96 -0.09 -0.02 0.06 13386
0.07 0.54 0.51 -0.60 9.96 -0.07 0.00 0.06 13392
0.06 0.54 0.52 -0.64 10.12 -0.05 0.01 0.06 13399
0.05 0.55 0.53 -0.73 10.15 -0.04 0.01 0.06 13405
0.08 0.51 0.53 -0.75 10.07 -0.04 0.01 0.06 13411
0.08 0.48 0.41 -0.76 10.18 -0.03 0.01 0.06 13418
0.08 0.53 0.41 -0.83 10.13 -0.03 0.00 0.07 13424
0.09 0.51 0.50 -0.77 10.12 -0.04 0.00 0.07 13430
0.10 0.56 0.53 -0.76 10.04 -0.04 -0.00 0.07 13436
0.15 0.53 0.61 -0.70 10.15 -0.04 -0.00 0.07 13444
0.16 0.55 0.59 -0.74 10.11 -0.04 -0.00 0.07 13450
0.15 0.52 0.62 -0.75 10.27 -0.04 -0.00 0.07 13456
0.16 0.52 0.69 -0.79 10.01 -0.03 -0.00 0.06 13462
0.16 0.52 0.58 -0.71 9.99 -0.04 -0.01 0.06 13469
0.16 0.59 0.58 -0.76 10.05 -0.04 -0.01 0.06 13475
0.18 0.56 0.58 -0.73 10.10 -0.03 -0.01 0.06 13481
0.16 0.63 0.59 -0.73 10.10 -0.02 -0.01 0.06 13488
0.20 0.60 0.59 -0.72 10.07 -0.03 -0.01 0.05 13495
0.18 0.59 0.65 -0.72 10.24 -0.02 -0.01 0.05 13501
0.20 0.54 0.62 -0.72 10.14 -0.02 -0.01 0.05 13507
0.21 0.55 0.66 -0.74 10.15 -0.01 -0.01 0.05 13513
0.16 0.54 0.58 -0.68 10.05 -0.01 -0.01 0.04 13519
0.19 0.55 0.60 -0.68 10.00 -0.02 -0.01 0.04 13527
0.20 0.52 0.61 -0.69 9.99 -0.01 -0.01 0.05 13533
0.19 0.52 0.64 -0.69 10.04 -0.01 -0.01 0.05 13539
0.21 0.49 0.63 -0.73 10.05 -0.01 -0.01 0.05 13545
0.22 0.49 0.66 -0.74 9.98 -0.01 -0.01 0.04 13552
0.22 0.48 0.62 -0.73 10.04 -0.01 -0.01 0.04 13558
0.24 0.46 0.60 -0.72 10.04 -0.01 -0.02 0.04 13564
0.22 0.48 0.61 -0.74 9.98 -0.01 -0.01 0.04 13571
0.22 0.49 0.64 -0.70 10.03 -0.01 -0.01 0.04 13577
0.22 0.48 0.57 -0.72 10.08 -0.01 -0.01 0.03 13584
0.22 0.46 1.21 -0.72 10.05 -0.01 -0.01 0.03 13590
0.22 0.48 0.62 -0.67 10.02 -0.01 -0.01 0.03 13596
0.23 0.46 0.62 -0.66 10.00 -0.00 -0.01 0.03 13602
0.22 0.47 0.62 -0.66 10.04 -0.00 -0.01 0.03 13609
0.23 0.45 0.62 -0.70 10.05 -0.01 -0.01 0.03 13616
0.22 0.43 0.61 -0.69 10.02 -0.00 -0.01 0.03 13622
0.24 0.42 0.61 -0.67 9.99 -0.00 -0.00 0.03 13628
0.23 0.40 0.65 -0.70 10.07 -0.00 -0.01 0.03 13635
0.22 0.40 0.65 -0.69 10.04 -0.00 -0.00 0.03 13641
0.24 0.38 0.66 -0.73 10.04 0.00 -0.00 0.03 13647
0.23 0.38 0.65 -0.69 9.99 0.00 -0.01 0.03 13654
0.22 0.36 0.64 -0.69 10.04 0.00 -0.00 0.03 13660
0.23 0.34 0.64 -0.71 10.03 0.00 -0.00 0.03 13667
0.22 0.34 0.63 -0.69 10.02 0.00 -0.00 0.03 13673
0.23 0.35 0.67 -0.67 10.01 -0.00 -0.01 0.02 13679
0.23 0.35 0.67 -0.70 10.00 0.00 -0.01 0.02 13685
0.22 0.33 0.66 -0.69 10.03 -0.03 -0.01 0.02 13692
0.24 0.33 0.67 -0.73 10.00 -0.00 -0.01 0.02 13699
0.22 0.31 0.63 -0.68 10.02 -0.01 -0.01 0.02 13705
0.21 0.32 0.66 -0.69 9.98 -0.01 -0.01 0.02 13711
0.21 0.35 0.63 -0.71 10.01 -0.01 -0.01 0.02 13717
0.19 0.33 0.67 -0.67 9.99 -0.01 -0.01 0.02 13724
0.20 0.34 0.64 -0.69 10.05 -0.02 -0.01 0.02 13730
0.21 0.34 0.66 -0.68 10.02 -0.02 -0.01 0.01 13736
0.19 0.34 0.68 -0.67 10.03 -0.02 -0.01 0.02 13743
0.21 0.34 0.64 -0.68 10.03 -0.01 -0.01 0.02 13750
0.20 0.34 0.66 -0.67 9.96 -0.01 -0.01 0.01 13756
0.18 0.35 0.64 -0.67 9.94 -0.01 -0.00 0.02 13762
0.20 0.34 0.64 -0.65 10.03 -0.01 0.00 0.02 13768
0.19 0.34 0.65 -0.67 9.98 -0.00 0.00 0.02 13774
0.19 0.34 0.66 -0.68 10.01 -0.00 0.01 0.02 13782
0.20 0.28 0.70 -0.69 10.00 -0.00 0.00 0.02 13788
0.19 0.26 0.69 -0.69 9.97 -0.01 -0.00 0.02 13794
0.20 0.27 0.71 -0.70 10.00 -0.01 -0.01 0.02 13800
0.19 0.28 0.71 -0.72 10.00 -0.01 -0.02 0.02 13806
0.19 0.27 0.72 -0.69 10.01 -0.02 -0.02 0.02 13813
0.19 0.28 0.70 -0.68 10.03 -0.02 -0.03 0.02 13819
0.20 0.27 0.68 -0.70 10.03 -0.02 -0.03 0.02 13826
0.20 0.28 0.71 -0.71 10.02 -0.02 -0.04 0.02 13832
0.22 0.28 0.69 -0.68 10.02 -0.02 -0.04 0.02 13839
0.22 0.27 0.72 -0.70 10.06 -0.02 -0.04 0.03 13845
0.22 0.30 0.68 -0.68 10.00 -0.02 -0.04 0.02 13851
0.23 0.29 0.68 -0.70 10.05 -0.02 -0.05 0.02 13857
0.21 0.29 0.68 -0.68 10.03 -0.02 -0.05 0.02 13864
0.23 0.30 0.70 -0.68 10.03 -0.02 -0.05 0.02 13871
0.23 0.29 0.68 -0.69 10.05 -0.03 -0.06 0.02 13877
0.21 0.30 0.67 -0.68 10.04 -0.02 -0.06 0.01 13883
0.22 0.31 0.62 -0.63 10.07 -0.02 -0.05 0.01 13889
0.22 0.33 0.63 -0.69 10.04 -0.03 -0.05 0.01 13896
0.23 0.35 0.64 -0.71 10.01 -0.02 -0.05 0.01 13902
0.23 0.35 0.69 -0.70 9.94 -0.02 -0.05 0.01 13908
0.22 0.38 0.61 -0.65 9.93 -0.03 -0.04 0.01 13915
0.24 0.39 0.66 -0.69 9.99 -0.02 -0.04 0.01 13922
0.22 0.40 0.66 -0.70 10.01 -0.02 -0.04 0.02 13928
0.22 0.40 0.61 -0.69 9.98 -0.03 -0.04 0.01 13934
0.22 0.43 0.62 -0.64 10.01 -0.02 -0.04 0.01 13940
0.19 0.42 0.66 -0.63 10.12 -0.02 -0.03 0.01 13946
0.18 0.44 0.65 -0.64 10.05 -0.01 -0.03 0.01 13954
0.18 0.44 0.64 -0.69 9.98 -0.01 -0.03 0.02 13960
0.17 0.41 0.71 -0.68 10.01 -0.00 -0.03 0.01 13966
0.17 0.44 0.68 -0.66 10.05 -0.00 -0.03 0.01 13972
0.18 0.40 0.67 -0.67 10.05 0.00 -0.02 0.01 13979
0.19 0.40 0.67 -0.69 10.03 0.00 -0.02 0.01 13985
0.18 0.41 0.67 -0.68 9.99 -0.00 -0.02 0.01 13991
0.17 0.39 0.67 -0.69 10.00 -0.00 -0.02 0.01 13998
0.17 0.38 0.65 -0.65 9.97 -0.00 -0.02 0.01 14004
0.19 0.39 0.66 -0.66 9.96 -0.00 -0.02 0.01 14011
0.17 0.39 0.64 -0.69 9.98 -0.00 -0.01 0.01 14017
0.18 0.39 0.65 -0.68 10.02 -0.00 -0.01 0.01 14023
0.18 0.38 0.63 -0.66 10.01 -0.00 -0.01 0.01 14029
0.17 0.36 0.66 -0.67 9.99 -0.00 -0.01 0.02 14035
0.16 0.38 0.65 -0.69 10.03 -0.00 -0.01 0.01 14043
0.17 0.37 0.64 -0.66 10.06 -0.00 -0.01 0.02 14049
0.16 0.37 0.66 -0.69 10.03 -0.00 -0.00 0.02 14055
0.14 0.38 0.71 -0.68 10.03 0.00 -0.00 0.02 14061
0.12 0.36 0.77 -0.67 10.04 0.00 -0.01 0.02 14067
0.09 0.36 0.72 -0.70 10.01 0.01 -0.01 0.02 14074
0.11 0.35 0.72 -0.71 10.06 0.01 -0.01 0.01 14081
0.12 0.31 0.68 -0.70 10.08 0.01 -0.01 0.02 14087
0.11 0.35 0.68 -0.70 10.09 0.01 -0.01 0.01 14093
0.11 0.35 0.68 -0.70 10.04 0.02 -0.01 0.01 14100
0.10 0.32 0.71 -0.70 10.02 0.03 -0.01 0.02 14106
0.12 0.33 0.70 -0.70 10.00 0.03 -0.02 0.02 14112
0.10 0.30 0.70 -0.71 10.06 0.04 -0.02 0.02 14118
0.10 0.27 0.74 -0.69 9.99 0.04 -0.02 0.01 14125
0.12 0.22 0.73 -0.72 9.99 0.04 -0.03 0.02 14132
0.10 0.22 0.76 -0.71 10.05 0.05 -0.03 0.01 14138
0.11 0.19 0.82 -0.64 10.04 0.06 -0.03 0.01 14144
0.13 0.11 0.79 -0.68 10.08 0.08 -0.04 0.00 14150
0.11 0.04 0.77 -0.73 10.12 0.09 -0.04 -0.00 14157
0.12 0.05 0.76 -0.68 10.09 0.11 -0.04 -0.01 14163
0.11 0.01 0.78 -0.77 10.30 0.14 -0.05 -0.02 14170
0.09 -0.00 0.94 -0.47 10.20 0.17 -0.06 -0.04 14176
0.12 -0.01 0.99 -0.82 8.41 0.21 -0.07 -0.07 14182
0.12 -0.01 0.55 -3.01 10.67 0.28 -0.09 -0.13 14189
0.11 -0.01 2.22 -0.82 10.88 0.42 -0.12 -0.24 14195
0.15 -0.02 3.24 -1.23 13.09 0.58 -0.15 -0.42 14201
0.18 -0.02 3.56 -1.42 12.66 0.87 -0.16 -0.63 14208
0.14 -0.01 2.86 -1.47 13.69 1.27 -0.25 -0.80 14215
0.17 -0.02 2.80 -1.69 14.03 1.65 -0.39 -0.89 14221
0.14 -0.01 2.68 -1.71 12.73 1.85 -0.53 -0.98 14227
0.15 -0.02 2.70 -1.77 12.17 1.87 -0.63 -1.07 14233
0.12 -0.01 3.23 -2.40 12.38 1.87 -0.77 -1.16 14239
0.12 -0.01 4.14 -3.02 12.48 1.91 -0.87 -1.29 14246
0.11 -0.01 6.27 -2.05 11.15 1.92 -0.89 -1.47 14253
0.08 -0.01 6.38 -3.14 11.57 1.93 -0.80 -1.64 14259
0.06 -0.00 5.76 -3.20 11.41 1.88 -0.69 -1.84 14265
0.07 -0.01 5.49 -3.21 11.13 1.83 -0.50 -2.00 14272
0.05 -0.01 6.44 -3.28 12.45 1.77 -0.24 -2.15 14278
0.05 -0.01 7.23 -2.63 11.86 1.65 -0.05 -2.32 14284
0.05 -0.00 6.57 -2.43 12.57 1.51 0.14 -2.51 14290
0.03 -0.00 5.30 -2.79 13.01 1.37 0.13 -2.65 14297
0.06 -0.01 4.44 -2.56 12.96 1.25 -0.01 -2.80 14304
0.05 -0.00 3.94 -2.63 13.20 1.10 -0.24 -2.87 14310
0.05 -0.01 4.25 -2.20 12.74 0.91 -0.56 -2.95 14316
0.05 -0.01 4.21 -0.80 11.73 0.67 -0.84 -2.99 14322
0.04 -0.00 4.44 0.19 10.78 0.44 -1.13 -3.08 14329
0.04 -0.00 5.22 1.74 9.45 0.17 -1.45 -3.14 14336
0.05 -0.00 6.78 4.07 7.93 -0.07 -1.76 -3.14 14342
0.03 -0.00 8.87 4.96 7.50 -0.28 -1.88 -3.01 14348
0.03 -0.00 9.38 2.59 7.21 -0.42 -1.70 -2.70 14354
0.05 -0.01 9.76 1.05 9.90 -0.61 -1.26 -2.38 14360
0.04 -0.00 11.00 1.30 9.94 -0.90 -0.87 -2.11 14367
0.04 -0.00 10.15 1.79 8.78 -1.04 -0.63 -1.91 14373
0.06 -0.01 9.05 1.57 7.43 -1.05 -0.53 -1.74 14380
0.03 -0.00 8.26 1.03 6.43 -1.03 -0.42 -1.63 14386
0.02 -0.00 7.99 0.46 6.27 -0.96 -0.28 -1.51 14392
0.04 -0.00 8.02 0.08 6.53 -0.85 -0.10 -1.40 14398
0.03 -0.00 8.12 -0.10 6.88 -0.72 0.13 -1.32 14404
0.04 -0.00 8.01 -0.15 7.12 -0.62 0.40 -1.23 14411
0.04 0.00 7.58 -0.07 7.36 -0.53 0.70 -1.13 14417
0.04 -0.00 7.00 -0.15 7.84 -0.46 0.97 -1.02 14424
0.04 -0.00 6.48 -0.41 8.38 -0.40 1.13 -0.88 14430
0.04 -0.00 5.80 -0.62 8.79 -0.36 1.26 -0.72 14436
0.04 -0.00 5.12 -0.80 9.07 -0.31 1.35 -0.58 14442
0.04 -0.00 4.46 -0.99 9.34 -0.27 1.41 -0.40 14449
0.03 -0.00 3.95 -1.16 9.68 -0.24 1.45 -0.23 14455
0.04 0.00 3.47 -1.37 10.08 -0.20 1.47 -0.08 14461
0.03 -0.00 3.15 -1.46 10.64 -0.19 1.49 0.05 14468
0.03 -0.00 2.84 -1.53 11.00 -0.19 1.50 0.16 14474
0.05 -0.00 2.42 -1.56 11.34 -0.21 1.52 0.26 14481
0.03 -0.00 2.07 -1.68 11.51 -0.24 1.53 0.34 14487
0.04 -0.00 1.82 -1.98 11.73 -0.27 1.53 0.38 14493
0.05 -0.00 1.69 -2.46 11.73 -0.30 1.52 0.39 14499
0.04 -0.00 1.50 -2.74 11.72 -0.34 1.48 0.36 14505
0.03 -0.00 1.26 -2.81 11.48 -0.36 1.44 0.32 14513
0.04 -0.00 0.99 -2.79 11.14 -0.37 1.43 0.30 14519
0.04 -0.00 0.83 -2.78 10.74 -0.36 1.43 0.27 14525
0.03 -0.00 0.74 -2.82 10.46 -0.34 1.41 0.24 14531
0.04 -0.00 0.77 -2.77 10.43 -0.31 1.41 0.20 14537
0.04 -0.00 0.61 -2.65 10.39 -0.26 1.44 0.17 14544
0.04 0.01 0.36 -2.44 10.29 -0.21 1.49 0.17 14551
0.04 -0.00 0.00 -2.19 10.50 -0.15 1.54 0.20 14557
0.03 -0.00 -0.50 -1.96 10.97 -0.09 1.57 0.26 14563
0.04 0.00 -0.73 -1.73 11.84 -0.05 1.59 0.35 14569
0.04 -0.00 -1.12 -1.59 12.48 -0.05 1.56 0.47 14576
0.02 -0.00 -1.48 -1.55 12.71 -0.13 1.47 0.62 14582
0.05 -0.00 -1.93 -1.56 12.81 -0.18 1.30 0.78 14588
0.03 -0.00 -1.98 -1.80 12.74 -0.29 1.08 0.97 14595
0.03 -0.00 -1.75 -2.17 12.37 -0.40 0.85 1.13 14601
0.04 -0.00 -0.67 -2.62 11.90 -0.50 0.67 1.28 14608
0.03 -0.00 -0.71 -3.14 11.26 -0.57 0.52 1.39 14614
0.03 -0.00 -0.16 -3.55 10.47 -0.61 0.47 1.49 14620
0.04 -0.00 0.27 -3.89 9.98 -0.60 0.50 1.52 14626
0.03 -0.00 0.55 -4.08 9.57 -0.57 0.58 1.56 14632
0.02 -0.00 0.65 -4.08 9.16 -0.51 0.71 1.60 14639
0.04 -0.00 0.42 -4.02 8.82 -0.46 0.84 1.65 14646
0.04 -0.00 0.04 -3.86 8.66 -0.40 0.94 1.70 14652
0.03 -0.00 -0.32 -3.57 8.74 -0.33 0.99 1.76 14658
0.04 -0.00 -0.77 -3.46 8.91 -0.26 1.05 1.82 14664
0.03 -0.00 -1.18 -3.41 9.17 -0.21 1.12 1.86 14670
0.03 -0.00 -1.68 -3.46 9.39 -0.17 1.19 1.88 14676
0.03 -0.00 -2.31 -3.59 9.53 -0.15 1.24 1.87 14683
0.05 -0.00 -3.12 -3.71 9.77 -0.13 1.25 1.87 14690
0.04 -0.00 -4.03 -3.78 9.94 -0.13 1.21 1.85 14696
0.03 -0.00 -4.79 -3.88 10.04 -0.14 1.12 1.84 14702
0.05 -0.01 -5.32 -3.92 10.00 -0.17 0.99 1.82 14708
0.03 -0.00 -5.96 -3.97 9.76 -0.21 0.83 1.81 14714
0.03 -0.00 -6.52 -3.96 9.26 -0.23 0.68 1.81 14722
0.05 -0.01 -6.92 -3.99 8.95 -0.23 0.54 1.81 14728
0.04 -0.00 -7.13 -3.99 8.63 -0.20 0.40 1.82 14734
0.03 -0.00 -7.35 -3.82 8.44 -0.16 0.33 1.82 14740
0.04 0.01 -7.42 -3.47 8.23 -0.14 0.24 1.82 14746
0.04 -0.00 -7.31 -2.80 8.16 -0.12 0.13 1.84 14752
0.04 -0.00 -7.01 -2.06 8.18 -0.14 0.02 1.87 14759
0.03 0.00 -6.72 -1.59 7.85 -0.19 -0.08 1.92 14766
0.03 -0.00 -6.22 -1.43 7.02 -0.24 -0.18 1.98 14772
0.03 -0.00 -6.72 -3.21 5.59 -0.24 -0.33 2.04 14778
0.03 -0.00 -22.15 -14.67 26.71 1.20 -4.28 2.23 14784
0.03 0.01 -11.39 -12.81 -1.99 0.86 -4.28 2.36 14791
0.04 0.01 -5.58 -12.31 -3.48 0.88 -4.28 1.93 14797
0.00 0.26 -14.52 15.89 41.55 2.22 -4.27 1.48 14803
0.01 0.54 -19.02 -15.46 59.72 2.62 -2.62 1.33 14811
-0.00 0.76 -8.98 0.58 18.14 0.82 -2.31 0.61 14817
-0.01 0.73 -4.19 1.39 16.24 0.43 -1.30 0.14 14823
0.02 0.57 -0.29 1.64 9.09 0.07 -0.25 0.09 14830
-0.05 0.47 0.22 -0.03 8.83 0.23 -0.17 0.12 14836
0.01 0.35 2.93 -0.88 9.39 0.44 -0.38 0.19 14842
0.05 0.27 2.89 -0.03 10.58 0.31 -0.28 0.43 14849
0.05 0.23 -0.04 -0.56 10.47 0.14 -0.30 0.42 14855
0.04 0.30 0.39 -0.97 10.11 0.02 -0.30 0.33 14862
0.02 0.30 -0.20 -1.93 9.89 0.03 -0.23 0.30 14868
0.04 0.32 -0.71 -2.30 10.17 -0.03 -0.17 0.17 14874
0.09 0.35 0.22 -1.33 9.52 -0.05 -0.12 0.13 14880
0.08 0.35 0.11 -1.22 9.91 -0.07 -0.07 0.11 14886
0.08 0.41 0.34 -0.76 10.05 -0.10 -0.06 0.08 14894
0.08 0.42 0.77 -0.64 10.08 -0.10 -0.05 0.07 14900
0.07 0.43 0.59 -0.64 9.98 -0.09 -0.05 0.06 14906
0.08 0.49 0.53 -0.60 10.31 -0.06 -0.03 0.06 14912
0.11 0.49 0.51 -0.64 10.10 -0.03 -0.02 0.06 14919
0.09 0.49 0.52 -0.78 10.10 -0.01 -0.00 0.07 14925
0.11 0.49 0.53 -0.79 10.15 -0.01 -0.00 0.08 14931
0.13 0.46 0.59 -0.83 9.94 -0.01 0.00 0.08 14938
0.13 0.46 0.66 -0.81 9.87 -0.02 -0.00 0.08 14944
0.14 0.46 0.66 -0.82 10.04 -0.02 -0.00 0.07 14951
0.16 0.44 0.67 -0.75 10.00 -0.03 -0.00 0.07 14957
0.15 0.48 0.66 -0.75 10.04 -0.03 -0.00 0.07 14963
0.15 0.44 0.72 -0.78 10.08 -0.02 0.00 0.07 14969
0.15 0.47 0.69 -0.80 10.10 -0.02 -0.01 0.07 14977
0.18 0.47 0.68 -0.86 10.10 -0.03 -0.01 0.06 14983
0.18 0.46 0.73 -0.76 9.95 -0.03 -0.01 0.06 14989
0.18 0.45 0.76 -0.79 10.02 -0.03 -0.02 0.06 14995
0.16 0.48 0.70 -0.75 10.00 -0.03 -0.01 0.05 15002
0.16 0.46 0.66 -0.72 10.00 -0.03 -0.01 0.05 15008
0.16 0.48 0.63 -0.69 10.04 -0.02 -0.00 0.05 15014
0.16 0.49 0.71 -0.71 10.02 -0.01 -0.00 0.05 15021
0.16 0.48 0.64 -0.74 9.99 -0.00 0.00 0.05 15027
0.18 0.48 0.68 -0.75 10.03 -0.03 0.01 0.05 15034
0.21 0.47 0.73 -0.74 9.99 0.00 0.01 0.05 15040
0.19 0.45 0.70 -0.72 10.02 0.00 0.01 0.05 15046
0.22 0.42 0.69 -0.74 10.06 0.00 0.01 0.05 15052
0.20 0.41 0.74 -0.76 10.03 0.00 0.02 0.05 15058
0.21 0.40 0.67 -0.74 9.91 0.01 0.02 0.05 15066
0.23 0.36 0.72 -0.70 10.02 0.01 0.01 0.05 15072
0.24 0.32 0.79 -0.75 10.02 0.01 0.02 0.05 15078
0.26 0.32 0.75 -0.74 10.02 0.01 0.02 0.04 15084
0.26 0.29 0.71 -0.78 10.05 0.01 0.01 0.04 15091
0.28 0.29 0.73 -0.82 10.06 0.01 0.02 0.04 15097
0.30 0.27 0.81 -0.73 9.99 0.02 0.01 0.04 15104
0.30 0.29 0.79 -0.76 10.01 0.01 0.01 0.04 15110
0.30 0.25 0.80 -0.78 9.99 0.02 0.01 0.04 15116
0.30 0.25 0.81 -0.76 10.01 0.01 0.01 0.04 15123
0.30 0.23 0.82 -0.76 10.04 0.01 0.01 0.04 15129
0.28 0.24 0.79 -0.70 9.97 0.01 0.01 0.04 15135
0.29 0.23 0.79 -0.78 9.99 0.01 0.01 0.04 15141
0.30 0.18 0.78 -0.76 10.06 0.01 0.00 0.03 15148
0.30 0.17 0.78 -0.74 10.04 0.01 0.01 0.03 15155
0.31 0.18 0.78 -0.75 10.01 0.01 0.01 0.03 15161
0.31 0.16 0.80 -0.77 10.03 0.01 0.01 0.03 15167
0.30 0.21 0.83 -0.74 9.96 0.01 0.01 0.03 15173
0.29 0.18 0.78 -0.76 9.99 0.01 0.01 0.03 15179
0.29 0.15 0.81 -0.77 9.98 0.01 0.01 0.03 15186
0.29 0.15 0.80 -0.78 10.00 0.01 0.01 0.03 15193
0.30 0.14 0.83 -0.79 10.04 0.00 0.00 0.03 15199
0.29 0.13 0.79 -0.79 10.00 0.00 0.00 0.03 15205
0.28 0.15 0.82 -0.75 9.99 -0.00 0.00 0.03 15211
0.29 0.14 0.79 -0.77 10.01 -0.01 0.00 0.02 15218
0.26 0.14 0.79 -0.78 10.02 -0.01 0.00 0.03 15224
0.29 0.14 0.81 -0.82 9.99 -0.01 0.00 0.03 15230
0.28 0.15 0.77 -0.75 10.00 -0.02 -0.00 0.02 15237
0.27 0.15 0.81 -0.75 10.01 -0.01 0.00 0.02 15243
0.28 0.16 0.80 -0.76 10.00 -0.01 0.00 0.02 15250
0.26 0.15 0.80 -0.79 10.04 -0.01 -0.00 0.02 15256
0.24 0.16 0.78 -0.77 9.99 -0.01 0.00 0.02 15262
0.25 0.18 0.82 -0.73 9.96 -0.00 0.01 0.02 15268
0.25 0.17 0.80 -0.75 9.93 -0.01 0.01 0.02 15275
0.24 0.16 0.85 -0.79 9.98 -0.00 0.01 0.02 15282
0.24 0.17 0.84 -0.75 10.00 0.00 0.01 0.02 15288
0.23 0.17 0.85 -0.75 10.03 0.00 0.01 0.02 15294
0.22 0.14 0.86 -0.75 9.99 0.00 0.01 0.02 15300
0.22 0.15 0.86 -0.77 10.00 0.00 0.01 0.02 15306
0.21 0.10 0.86 -0.79 9.96 -0.00 0.01 0.02 15313
0.20 0.09 0.91 -0.78 9.98 -0.01 0.00 0.01 15320
0.20 0.12 0.88 -0.78 9.90 -0.01 -0.00 0.02 15326
0.19 0.11 0.87 -0.77 9.98 -0.01 -0.01 0.01 15332
0.16 0.11 0.85 -0.80 9.99 -0.02 -0.02 0.01 15338
0.17 0.12 0.84 -0.78 10.03 -0.02 -0.02 0.01 15345
0.16 0.11 0.85 -0.80 9.99 -0.02 -0.02 0.01 15351
0.17 0.12 0.83 -0.74 10.00 -0.02 -0.02 0.01 15357
0.17 0.13 0.85 -0.74 9.96 -0.02 -0.03 0.01 15364
0.17 0.11 0.85 -0.79 9.99 -0.02 -0.03 0.01 15370
0.17 0.14 0.83 -0.73 9.99 -0.02 -0.03 0.01 15377
0.16 0.15 0.84 -0.71 9.99 -0.01 -0.03 0.01 15383
0.18 0.14 0.86 -0.76 10.02 -0.02 -0.02 0.01 15389
0.16 0.15 0.84 -0.75 10.00 -0.00 -0.02 0.01 15395
0.16 0.14 0.86 -0.75 10.00 -0.00 -0.02 0.01 15401
0.15 0.14 0.88 -0.76 9.96 -0.00 -0.03 0.01 15409
0.17 0.13 0.87 -0.74 9.97 -0.01 -0.03 0.01 15415
0.16 0.13 0.83 -0.77 9.99 -0.02 -0.03 0.01 15421
0.15 0.13 0.83 -0.78 9.97 -0.02 -0.03 0.00 15427
0.16 0.14 0.88 -0.79 9.95 -0.02 -0.03 0.01 15433
0.16 0.13 0.86 -0.75 9.99 -0.02 -0.03 0.00 15439
0.15 0.14 0.85 -0.77 10.01 -0.02 -0.03 0.00 15447
0.16 0.15 0.86 -0.76 10.01 -0.03 -0.03 0.00 15453
0.16 0.14 0.84 -0.74 9.98 -0.03 -0.03 -0.00 15459
0.14 0.16 0.84 -0.77 9.98 -0.02 -0.03 -0.00 15465
0.16 0.16 0.82 -0.74 9.99 -0.02 -0.03 -0.00 15471
0.14 0.17 0.83 -0.75 10.01 -0.02 -0.03 -0.00 15478
0.14 0.19 0.88 -0.75 9.98 -0.02 -0.03 -0.01 15484
0.14 0.22 0.81 -0.74 10.00 -0.02 -0.03 -0.00 15491
