Voltage_01 Voltage_02 Acc_x Acc_y Acc_z Gyro_x Gyro_y Gyro_z Time
5000
0.05 -0.01 0.18 -1.71 11.40 -0.54 1.37 0.30 17
0.05 -0.00 0.15 -1.66 11.43 -0.53 1.33 0.36 23
0.04 -0.00 0.19 -1.58 11.45 -0.51 1.24 0.48 29
0.04 -0.00 0.33 -1.45 11.56 -0.51 1.13 0.61 35
0.04 -0.00 0.37 -1.48 11.44 -0.51 1.03 0.75 41
0.05 -0.01 0.46 -1.67 11.38 -0.52 0.93 0.84 48
0.04 -0.00 0.59 -2.06 11.41 -0.51 0.86 0.94 54
0.04 -0.00 0.61 -2.57 11.36 -0.47 0.84 1.01 60
0.04 -0.00 0.59 -3.01 11.23 -0.45 0.83 1.05 66
0.04 -0.00 0.52 -3.39 11.07 -0.40 0.85 1.05 72
0.05 -0.00 0.39 -3.55 10.99 -0.35 0.87 1.03 78
0.06 -0.01 0.31 -3.71 10.91 -0.29 0.91 1.01 84
0.05 -0.00 0.09 -3.68 10.75 -0.23 0.94 0.99 91
0.04 -0.00 -0.13 -3.65 10.65 -0.18 0.94 0.99 97
0.05 -0.00 -0.33 -3.60 10.56 -0.13 0.93 0.99 103
0.05 -0.01 -0.51 -3.60 10.55 -0.07 0.89 0.99 110
0.05 -0.01 -0.66 -3.66 10.39 -0.03 0.84 0.98 116
0.04 -0.00 -0.83 -3.58 10.30 0.01 0.80 0.97 122
0.04 -0.00 -1.02 -3.42 10.40 0.03 0.78 0.97 129
0.04 0.00 -1.20 -3.21 10.63 0.04 0.78 0.97 135
0.05 -0.00 -1.33 -3.06 10.94 0.02 0.79 0.99 141
0.04 -0.00 -1.49 -2.96 11.06 -0.01 0.77 1.01 147
0.03 -0.00 -1.52 -2.91 11.15 -0.08 0.72 1.03 153
0.04 0.01 -1.47 -2.93 10.98 -0.18 0.64 1.04 159
0.05 -0.00 -1.59 -3.09 10.53 -0.24 0.56 1.05 165
0.04 -0.00 -1.81 -3.41 9.98 -0.28 0.51 1.07 172
0.04 -0.00 -2.05 -3.86 9.44 -0.27 0.49 1.07 178
0.04 -0.00 -2.46 -4.27 9.16 -0.22 0.50 1.06 185
0.04 -0.00 -2.86 -4.53 8.94 -0.15 0.49 1.04 191
0.04 -0.00 -3.37 -4.60 8.71 -0.04 0.47 1.01 197
0.04 -0.00 -3.92 -4.54 8.79 -0.01 0.43 0.97 203
0.04 -0.00 -4.28 -4.29 9.06 0.04 0.35 0.93 209
0.04 -0.00 -4.25 -3.89 9.26 0.04 0.26 0.90 216
0.04 0.00 -4.44 -3.86 9.79 -0.01 0.12 0.86 222
0.05 -0.00 -12.80 -7.39 15.35 0.18 -0.93 0.93 228
0.04 -0.00 -9.83 -3.94 9.89 0.23 -1.69 1.04 234
0.03 -0.00 -6.83 -3.42 6.54 0.15 -2.02 1.15 240
0.04 -0.00 -5.25 -4.31 6.55 0.12 -2.54 1.22 246
0.05 -0.00 -6.86 -6.89 8.22 0.07 -2.89 1.27 252
0.04 -0.00 -8.29 -7.68 8.72 0.14 -3.43 1.35 259
0.04 -0.00 -7.01 -8.45 6.48 0.18 -3.70 1.41 265
0.04 -0.00 -6.27 -10.21 7.97 0.30 -3.88 1.50 271
0.05 0.13 -6.81 -0.01 11.38 1.12 -2.46 1.69 278
0.05 0.27 -6.63 -6.42 15.18 1.38 -1.72 1.90 284
0.03 0.45 -14.20 -2.83 22.96 1.81 -1.56 1.54 290
0.02 0.60 -10.73 -0.55 25.01 1.24 -1.77 0.74 296
0.02 0.66 -1.68 -0.47 15.35 0.36 -0.78 0.32 303
0.01 0.68 -2.86 -0.17 11.76 0.05 -0.18 0.14 309
0.02 0.68 0.99 -0.25 9.56 0.08 -0.15 0.03 316
0.04 0.63 2.89 -0.36 9.42 0.18 -0.13 0.19 322
0.04 0.57 2.26 -0.44 10.16 0.19 -0.10 0.39 328
0.02 0.56 0.32 -0.21 10.44 0.09 -0.08 0.43 334
0.03 0.58 -0.89 -1.70 9.59 0.02 -0.08 0.32 340
0.04 0.62 0.04 -1.13 10.12 -0.01 -0.05 0.21 347
0.02 0.66 0.32 -1.20 9.71 -0.03 -0.03 0.17 353
0.01 0.68 0.37 -1.28 10.04 -0.04 -0.04 0.15 359
0.04 0.71 0.68 -1.33 9.99 -0.07 -0.04 0.12 366
0.05 0.82 0.81 -1.05 10.06 -0.08 -0.05 0.09 372
0.05 0.84 0.64 -0.90 10.22 -0.08 -0.05 0.07 378
0.05 0.85 0.58 -0.80 10.16 -0.06 -0.05 0.06 385
0.06 0.95 0.59 -0.78 10.14 -0.04 -0.04 0.06 391
0.07 0.98 0.62 -0.82 10.14 -0.03 -0.02 0.06 397
0.06 1.02 0.67 -0.91 10.10 -0.00 -0.02 0.06 403
0.06 1.08 0.67 -0.87 9.99 -0.03 -0.02 0.05 409
0.07 1.09 0.71 -0.88 10.08 -0.03 -0.02 0.05 416
0.06 1.09 0.66 -0.87 10.07 -0.03 -0.01 0.04 422
0.05 1.05 0.69 -0.86 10.05 -0.03 -0.01 0.04 429
0.06 1.08 0.69 -0.90 10.09 -0.02 0.00 0.04 435
0.06 1.06 0.69 -0.85 10.05 -0.02 0.00 0.04 441
0.06 1.06 0.74 -0.81 10.04 -0.02 0.01 0.04 447
0.04 1.06 0.71 -0.82 10.00 -0.02 0.01 0.03 453
0.05 1.08 0.70 -0.81 9.98 -0.02 0.02 0.03 459
0.07 1.07 0.72 -0.80 10.04 -0.02 0.02 0.03 465
0.06 1.07 0.75 -0.82 10.05 -0.01 0.02 0.03 473
0.03 1.08 0.76 -0.79 10.02 -0.01 0.02 0.03 479
0.06 1.09 0.70 -0.82 10.04 -0.01 0.02 0.03 485
0.06 1.09 0.70 -0.82 10.03 -0.00 0.02 0.03 491
0.06 1.09 0.75 -0.81 10.01 -0.00 0.02 0.03 497
0.05 1.07 0.75 -0.83 10.01 0.00 0.02 0.02 503
0.04 1.09 0.72 -0.85 10.11 0.00 0.02 0.02 509
0.03 1.05 0.72 -0.80 9.99 0.01 0.02 0.02 516
0.03 1.01 0.77 -0.82 9.98 0.00 0.02 0.02 522
0.04 0.97 0.79 -0.79 10.00 -0.03 0.01 0.02 528
0.02 0.99 0.79 -0.77 9.96 0.01 0.01 0.02 535
0.03 0.96 0.83 -0.77 10.00 0.01 0.01 0.02 541
0.02 0.94 0.78 -0.76 9.97 0.01 0.01 0.02 547
0.01 0.94 0.79 -0.80 9.96 0.01 0.00 0.01 553
0.02 0.93 0.74 -0.83 9.96 0.01 0.00 0.02 560
0.04 0.92 0.78 -0.80 9.98 0.01 0.00 0.01 566
0.05 0.90 0.80 -0.83 10.00 0.01 0.00 0.01 572
0.04 0.87 0.82 -0.80 9.96 0.01 0.00 0.01 578
0.03 0.87 0.79 -0.82 9.94 0.01 0.00 0.01 584
0.02 0.86 0.84 -0.81 9.95 0.00 -0.00 0.01 590
0.03 0.83 0.85 -0.83 9.98 0.01 -0.00 0.01 596
0.02 0.81 0.83 -0.78 9.93 0.00 -0.01 0.01 603
0.03 0.78 0.82 -0.83 9.96 0.00 -0.01 0.01 609
0.04 0.75 0.80 -0.81 10.01 0.00 -0.00 0.01 615
0.05 0.71 0.74 -0.85 9.97 0.01 -0.00 0.01 622
0.04 0.66 0.78 -0.81 9.96 0.01 -0.00 0.01 628
0.04 0.62 0.74 -0.83 9.96 0.00 0.00 0.01 634
0.04 0.60 0.76 -0.83 9.93 0.01 0.01 0.01 641
0.03 0.58 0.77 -0.80 9.91 0.01 0.01 0.02 647
0.05 0.57 0.81 -0.79 9.96 0.01 0.00 0.02 653
0.05 0.54 0.84 -0.80 9.98 0.01 0.00 0.02 659
0.06 0.52 0.83 -0.82 9.96 0.01 -0.00 0.02 665
0.06 0.51 0.81 -0.79 9.92 0.01 -0.01 0.01 671
0.07 0.53 0.84 -0.84 9.93 0.00 -0.01 0.02 677
0.06 0.54 0.79 -0.84 9.95 0.00 -0.01 0.02 684
0.05 0.50 0.79 -0.81 9.97 0.00 -0.01 0.02 690
0.06 0.48 0.75 -0.83 9.99 0.00 -0.00 0.02 696
0.06 0.48 0.81 -0.81 10.02 0.01 -0.00 0.02 702
0.08 0.47 0.82 -0.80 9.95 0.01 -0.00 0.02 709
0.08 0.46 0.85 -0.82 10.01 0.01 -0.00 0.02 715
0.07 0.43 0.82 -0.85 10.00 0.00 -0.01 0.02 721
0.07 0.41 0.78 -0.83 9.96 -0.00 -0.01 0.01 728
0.08 0.43 0.81 -0.81 10.04 0.00 -0.02 0.02 734
0.09 0.39 0.80 -0.84 10.00 -0.00 -0.02 0.01 740
0.08 0.38 0.83 -0.83 9.99 -0.00 -0.02 0.02 746
0.07 0.41 0.81 -0.82 9.98 -0.00 -0.02 0.02 752
0.10 0.40 0.84 -0.83 9.97 0.00 -0.02 0.02 758
0.09 0.42 0.84 -0.83 9.94 0.00 -0.03 0.02 764
0.08 0.36 0.87 -0.82 9.98 0.00 -0.03 0.02 771
0.09 0.31 0.87 -0.84 9.96 -0.01 -0.04 0.02 778
0.09 0.34 0.86 -0.83 10.00 -0.00 -0.04 0.02 784
0.10 0.34 0.82 -0.85 9.97 -0.00 -0.05 0.01 790
0.10 0.29 0.85 -0.87 9.96 -0.00 -0.05 0.01 796
0.11 0.30 0.82 -0.85 9.94 -0.00 -0.05 0.01 802
0.08 0.30 0.80 -0.77 9.89 -0.00 -0.04 0.01 808
0.09 0.33 0.80 -0.80 9.99 0.01 -0.04 0.01 815
0.10 0.26 0.77 -0.82 10.04 0.01 -0.03 0.01 821
0.09 0.27 0.80 -0.86 10.01 0.01 -0.03 0.01 827
0.10 0.21 0.80 -0.85 10.01 0.02 -0.04 0.02 833
0.13 0.20 0.83 -0.87 9.96 0.02 -0.04 0.02 839
0.14 0.18 0.88 -0.89 9.92 0.01 -0.04 0.02 846
0.14 0.15 0.89 -0.85 9.96 0.01 -0.05 0.02 852
0.13 0.13 0.83 -0.85 9.94 0.01 -0.06 0.02 859
0.14 0.16 0.81 -0.87 9.97 0.01 -0.06 0.01 865
0.16 0.10 0.80 -0.86 9.96 0.01 -0.06 0.01 871
0.16 0.09 0.75 -0.88 10.03 0.01 -0.05 0.01 877
0.17 0.07 0.76 -0.85 10.05 0.02 -0.04 0.02 883
0.17 0.08 0.77 -0.88 10.05 0.03 -0.04 0.02 889
0.18 0.07 0.77 -0.87 10.03 0.04 -0.03 0.02 896
0.20 0.03 0.79 -0.91 10.03 0.05 -0.02 0.03 902
0.19 0.00 0.82 -0.86 10.01 0.05 -0.02 0.03 909
0.20 -0.01 0.90 -0.88 10.02 0.06 -0.02 0.03 915
0.22 -0.00 0.89 -0.88 10.00 0.07 -0.01 0.03 921
0.22 -0.02 0.88 -0.91 10.06 0.08 -0.01 0.02 927
0.23 -0.02 0.80 -0.89 10.10 0.10 -0.01 0.02 933
0.23 -0.02 0.92 -0.94 10.15 0.13 -0.01 0.01 940
0.26 -0.03 0.78 -1.10 10.15 0.15 -0.01 0.01 946
0.27 -0.03 0.85 -0.98 10.34 0.19 -0.01 0.01 952
0.30 -0.03 0.96 -1.03 10.59 0.26 -0.01 -0.00 958
0.32 -0.03 1.10 -0.98 10.83 0.37 -0.01 -0.02 964
0.34 -0.02 1.43 -1.08 11.23 0.53 0.00 -0.09 971
0.33 -0.02 1.54 -1.26 11.89 0.78 0.04 -0.14 977
0.33 -0.03 1.14 -5.82 12.44 1.12 0.08 -0.25 984
0.35 -0.02 2.17 -2.26 14.10 1.53 0.02 -0.36 990
0.35 -0.03 2.30 -1.55 12.99 1.83 -0.12 -0.45 996
0.33 -0.03 2.41 -1.80 13.29 1.97 -0.29 -0.54 1002
0.33 -0.02 2.40 -1.81 12.80 2.09 -0.49 -0.62 1009
0.39 -0.03 3.34 -2.14 13.07 2.21 -0.64 -0.72 1015
0.36 -0.03 3.73 -3.36 13.15 2.29 -0.86 -0.86 1021
0.34 -0.01 4.62 -3.18 12.80 2.32 -1.03 -1.03 1028
0.27 -0.02 4.97 -3.63 12.45 2.32 -1.16 -1.23 1034
0.24 -0.01 5.54 -4.35 12.02 2.29 -1.28 -1.44 1041
0.25 -0.02 5.81 -4.31 10.57 2.27 -1.25 -1.68 1047
0.15 -0.01 6.03 -4.62 10.77 2.22 -1.02 -1.90 1053
0.17 -0.00 6.50 -4.70 12.09 2.16 -0.79 -2.10 1059
0.15 -0.01 6.93 -5.10 13.98 2.15 -0.70 -2.23 1067
0.12 -0.01 7.74 -4.58 13.63 2.10 -0.59 -2.40 1073
0.10 -0.00 9.20 -4.84 14.11 1.97 -0.52 -2.61 1079
0.10 -0.01 7.53 -4.90 12.98 1.79 -0.46 -2.87 1085
0.08 -0.01 7.79 -4.78 12.62 1.63 -0.50 -3.13 1091
0.08 0.00 7.94 -3.74 11.69 1.44 -0.52 -3.34 1097
0.08 -0.01 8.24 -2.68 10.38 1.18 -0.56 -3.52 1104
0.08 -0.01 7.03 -2.40 10.05 0.98 -0.68 -3.70 1111
0.08 -0.00 6.98 -1.20 10.95 0.73 -0.88 -3.86 1117
0.09 -0.01 6.40 -0.13 11.67 0.46 -1.11 -4.01 1123
0.07 -0.01 6.73 2.18 10.36 0.14 -1.51 -4.12 1129
0.07 -0.01 8.45 6.91 8.08 -0.26 -1.99 -4.14 1135
0.06 -0.01 10.21 8.37 5.08 -0.66 -2.16 -3.82 1142
0.05 -0.01 9.80 5.32 3.62 -0.94 -1.91 -3.09 1148
0.03 -0.00 9.70 2.15 7.54 -1.14 -1.22 -2.32 1155
0.07 -0.00 11.50 1.56 8.77 -1.35 -0.85 -1.75 1161
0.06 -0.01 11.22 1.56 7.48 -1.39 -0.78 -1.33 1167
0.06 -0.01 10.00 1.01 6.14 -1.28 -0.73 -1.02 1173
0.06 -0.01 9.40 0.58 4.97 -1.13 -0.50 -0.77 1180
0.07 -0.01 9.15 0.45 4.82 -0.96 -0.26 -0.55 1186
0.06 -0.01 9.04 0.42 5.20 -0.79 0.15 -0.38 1192
0.05 -0.01 8.78 0.42 6.12 -0.62 0.61 -0.22 1199
0.07 -0.00 8.40 0.33 7.08 -0.48 1.07 -0.10 1205
0.07 -0.01 7.58 0.44 8.00 -0.39 1.47 0.01 1211
0.06 -0.01 6.67 0.60 8.86 -0.33 1.76 0.12 1217
0.05 -0.01 5.53 0.75 9.51 -0.32 1.93 0.23 1223
0.07 0.00 4.57 0.77 10.01 -0.35 2.04 0.32 1229
0.06 -0.01 3.81 0.73 10.48 -0.40 2.03 0.41 1236
0.06 -0.01 3.23 0.68 10.90 -0.47 1.96 0.50 1243
0.06 -0.01 2.66 0.53 11.11 -0.53 1.87 0.58 1249
0.06 -0.01 2.29 0.40 11.44 -0.58 1.83 0.64 1255
0.06 -0.01 2.21 0.34 11.86 -0.66 1.84 0.68 1261
0.06 -0.01 1.99 0.03 11.99 -0.70 1.90 0.69 1267
0.06 -0.01 1.71 -0.25 12.08 -0.76 1.99 0.67 1273
0.04 -0.00 1.30 -1.17 12.26 -0.83 2.08 0.63 1281
0.03 -0.00 0.86 -0.90 12.40 -0.87 2.13 0.58 1287
0.05 -0.00 0.34 -1.03 12.53 -0.88 2.13 0.52 1293
0.05 -0.00 0.14 -0.91 12.52 -0.87 2.09 0.47 1299
0.04 -0.00 0.03 -0.53 12.38 -0.85 2.03 0.45 1305
0.05 0.00 -0.02 -0.19 12.31 -0.82 2.00 0.43 1311
0.06 -0.01 -0.07 -0.19 12.50 -0.79 2.03 0.42 1318
0.05 -0.00 -0.15 -0.39 12.78 -0.77 2.09 0.39 1325
0.05 -0.00 -0.40 -0.66 13.17 -0.77 2.15 0.35 1331
0.06 -0.01 -0.87 -0.80 13.34 -0.77 2.18 0.32 1337
0.05 -0.00 -1.38 -0.92 13.37 -0.76 2.16 0.29 1343
0.04 -0.00 -1.79 -0.92 13.15 -0.75 2.07 0.29 1349
0.05 -0.01 -2.07 -0.88 12.93 -0.73 1.92 0.31 1355
0.04 -0.00 -2.09 -0.71 12.67 -0.71 1.74 0.35 1362
0.04 -0.00 -1.78 -0.66 12.84 -0.68 1.56 0.43 1369
0.05 -0.00 -1.20 -0.64 13.21 -0.67 1.44 0.54 1375
0.04 -0.00 -0.59 -0.74 13.32 -0.66 1.37 0.68 1381
0.03 -0.00 -0.21 -1.02 13.13 -0.69 1.33 0.82 1387
0.04 -0.00 -0.11 -1.32 12.75 -0.73 1.29 0.96 1393
0.04 -0.00 -0.10 -1.54 12.33 -0.77 1.25 1.08 1400
0.04 -0.00 -0.18 -1.70 12.03 -0.78 1.20 1.22 1406
0.04 -0.00 -0.20 -1.88 11.52 -0.76 1.14 1.36 1413
0.05 -0.01 -0.18 -1.89 11.02 -0.71 1.08 1.50 1419
0.04 -0.00 -0.10 -1.87 10.60 -0.66 1.01 1.63 1425
0.03 -0.00 0.02 -1.94 10.39 -0.62 0.95 1.74 1431
0.04 -0.00 0.23 -2.24 10.24 -0.56 0.91 1.82 1438
0.04 -0.00 0.42 -2.64 10.26 -0.51 0.88 1.87 1444
0.04 -0.00 0.47 -3.09 10.35 -0.46 0.86 1.87 1451
0.05 -0.00 0.45 -4.24 10.16 -0.42 0.85 1.85 1457
0.05 -0.01 0.49 -4.34 9.21 -0.37 0.85 1.79 1463
0.04 -0.00 0.40 -5.06 9.47 -0.32 0.84 1.71 1469
0.04 -0.00 0.27 -5.57 9.45 -0.24 0.87 1.63 1475
0.05 -0.00 0.11 -5.95 9.85 -0.14 0.95 1.56 1481
0.06 -0.01 -0.28 -6.10 9.92 -0.10 1.10 1.54 1487
0.04 -0.00 -0.87 -6.02 9.90 -0.03 1.21 1.54 1495
0.04 -0.00 -1.73 -5.56 9.88 -0.00 1.32 1.58 1501
0.05 -0.00 -2.72 -5.22 10.10 -0.00 1.37 1.66 1507
0.06 -0.01 -3.63 -5.19 10.39 -0.03 1.35 1.77 1513
0.05 -0.00 -4.61 -5.27 10.49 -0.10 1.24 1.90 1519
0.04 -0.00 -7.06 -7.12 11.44 -0.15 0.91 2.04 1525
0.05 -0.01 -16.69 -12.89 19.56 0.08 -0.68 2.23 1532
0.05 -0.00 -11.94 -7.99 9.16 0.27 -1.50 2.45 1539
0.05 -0.01 -11.28 -9.63 4.84 0.16 -2.12 2.53 1545
0.07 -0.01 -9.97 -13.79 6.57 0.24 -2.76 2.53 1551
0.05 -0.01 -10.95 -16.35 7.45 0.24 -3.28 2.40 1557
0.05 -0.00 -13.09 -17.66 4.97 0.21 -3.63 2.23 1564
0.06 0.01 -15.98 -20.50 3.95 0.24 -4.17 1.92 1570
0.04 0.04 -17.45 -23.17 4.29 0.31 -4.28 1.54 1576
0.05 0.21 -11.16 -3.48 16.96 1.06 -4.28 1.27 1583
0.04 0.44 -12.09 -8.97 23.44 2.02 -2.88 1.09 1590
0.02 0.72 -9.85 -0.33 26.23 2.30 -2.23 0.59 1596
0.02 0.84 -4.33 0.68 25.23 1.94 -2.39 0.14 1602
0.01 0.96 -1.13 0.34 17.55 1.05 -1.60 0.11 1608
0.01 0.90 -0.97 -0.87 12.70 0.50 -0.72 0.11 1614
0.01 0.83 1.45 -0.57 9.72 0.41 -0.50 0.16 1622
0.02 0.77 2.60 -0.06 10.36 0.46 -0.59 0.31 1628
0.03 0.75 1.60 -0.28 10.57 0.32 -0.42 0.48 1634
0.03 0.73 -1.25 -1.37 10.26 0.15 -0.24 0.47 1640
0.03 0.73 -1.22 -2.17 10.62 0.04 -0.16 0.27 1646
0.05 0.81 -0.10 -1.95 9.86 -0.01 -0.09 0.16 1653
0.06 0.83 0.40 -1.48 9.77 -0.02 -0.06 0.13 1659
0.07 0.86 0.54 -1.15 10.03 -0.06 -0.05 0.08 1666
0.07 0.95 1.11 -0.77 10.09 -0.08 -0.06 0.05 1672
0.07 1.00 0.53 -0.66 10.22 -0.07 -0.04 0.04 1678
0.07 0.97 0.46 -1.21 10.30 -0.05 -0.02 0.05 1685
0.08 1.07 0.53 -0.63 10.10 -0.04 -0.01 0.05 1691
0.08 1.05 0.65 -0.73 10.08 -0.03 -0.00 0.05 1697
0.08 1.07 0.73 -0.80 10.07 -0.03 0.00 0.05 1703
0.09 1.07 0.65 -0.79 10.09 -0.03 0.01 0.05 1710
0.09 1.10 0.61 -0.73 10.10 -0.03 0.01 0.06 1716
0.08 1.09 0.71 -0.72 10.07 -0.03 0.02 0.05 1723
0.08 1.09 0.70 -0.73 10.06 -0.03 0.01 0.05 1729
0.08 1.12 0.70 -0.69 10.07 -0.02 0.01 0.05 1735
0.06 1.11 0.70 -0.73 10.07 -0.01 0.01 0.04 1741
0.06 1.15 0.70 -0.73 10.03 -0.01 0.01 0.04 1747
0.07 1.11 0.70 -0.74 9.99 -0.01 0.01 0.04 1755
0.05 1.13 0.69 -0.75 10.04 -0.01 0.01 0.04 1761
0.06 1.11 0.73 -0.71 10.02 -0.02 0.01 0.04 1767
0.05 1.13 0.74 -0.74 10.06 -0.01 0.01 0.04 1773
-0.01 1.14 0.72 -0.70 10.03 -0.01 0.01 0.04 1779
0.04 1.13 0.74 -0.70 10.00 -0.01 0.01 0.04 1785
0.04 1.12 0.79 -0.70 10.03 -0.00 0.01 0.04 1793
0.04 1.10 0.78 -0.68 10.00 -0.00 0.00 0.04 1799
0.04 1.11 0.75 -0.71 10.04 -0.00 0.00 0.04 1805
0.05 1.08 0.75 -0.73 9.99 -0.00 0.00 0.04 1811
0.04 1.07 0.68 -0.74 9.99 0.00 0.00 0.04 1817
0.05 1.06 0.77 -0.70 9.98 -0.00 -0.00 0.04 1823
0.03 1.06 0.79 -0.70 9.99 -0.00 -0.01 0.04 1829
0.03 1.04 0.82 -0.71 9.99 -0.00 -0.01 0.04 1837
0.03 1.01 0.78 -0.74 10.04 -0.00 -0.02 0.04 1843
0.02 1.01 0.77 -0.73 10.01 0.00 -0.03 0.04 1849
0.02 0.99 0.77 -0.68 10.01 -0.00 -0.03 0.04 1855
0.02 0.98 0.74 -0.72 9.98 -0.03 -0.03 0.04 1861
0.02 0.99 0.75 -0.73 10.02 -0.00 -0.03 0.03 1867
0.04 0.96 0.74 -0.70 9.99 -0.00 -0.03 0.03 1874
0.04 0.95 0.76 -0.71 9.97 -0.01 -0.02 0.03 1881
0.02 0.96 0.77 -0.71 9.97 -0.00 -0.02 0.03 1887
0.02 0.93 0.75 -0.68 9.98 -0.00 -0.02 0.03 1893
-0.00 0.93 0.75 -0.72 10.01 -0.01 -0.02 0.03 1899
-0.00 0.89 0.75 -0.71 10.00 -0.01 -0.02 0.02 1905
0.01 0.90 0.80 -0.73 9.97 -0.01 -0.02 0.02 1912
0.02 0.89 0.77 -0.74 9.97 -0.01 -0.03 0.02 1918
0.01 0.88 0.79 -0.74 9.98 -0.01 -0.03 0.02 1925
0.01 0.89 0.76 -0.72 9.99 -0.01 -0.03 0.03 1931
0.02 0.88 0.75 -0.70 9.98 -0.01 -0.03 0.02 1937
0.01 0.89 0.74 -0.72 9.98 -0.01 -0.03 0.03 1943
-0.01 0.91 0.70 -0.70 10.02 -0.01 -0.03 0.03 1949
0.00 0.93 0.69 -0.72 10.02 -0.01 -0.03 0.03 1956
0.01 0.92 0.74 -0.71 9.99 -0.01 -0.02 0.03 1963
0.01 0.90 0.72 -0.67 9.96 -0.01 -0.03 0.02 1969
0.01 0.92 0.78 -0.73 9.98 -0.01 -0.03 0.03 1975
0.02 0.91 0.75 -0.69 9.99 -0.00 -0.02 0.02 1981
0.02 0.90 0.81 -0.69 9.98 -0.01 -0.03 0.02 1987
-0.00 0.91 0.81 -0.69 9.96 -0.00 -0.04 0.03 1993
0.01 0.92 0.85 -0.71 9.99 -0.01 -0.05 0.03 2000
0.02 0.91 0.80 -0.72 9.98 -0.01 -0.06 0.03 2007
0.01 0.92 0.75 -0.70 9.96 -0.01 -0.06 0.02 2013
0.01 0.93 0.71 -0.69 9.97 -0.01 -0.06 0.02 2019
0.01 0.93 0.63 -0.71 9.93 -0.01 -0.05 0.02 2025
0.00 0.92 0.65 -0.69 9.94 -0.01 -0.04 0.02 2031
-0.00 0.92 0.65 -0.64 9.86 -0.01 -0.03 0.01 2037
0.01 0.91 0.74 -0.70 10.05 -0.00 -0.03 0.01 2044
0.02 0.88 0.70 -0.67 9.97 -0.00 -0.03 0.01 2051
0.01 0.86 0.70 -0.68 10.01 -0.00 -0.02 0.01 2057
0.03 0.85 0.74 -0.68 10.01 -0.00 -0.02 0.01 2063
0.02 0.85 0.77 -0.66 9.96 -0.00 -0.02 0.01 2069
0.03 0.82 0.74 -0.68 9.99 -0.01 -0.03 0.01 2075
0.04 0.78 0.74 -0.66 9.86 -0.01 -0.04 0.01 2081
0.04 0.78 0.74 -0.67 9.99 -0.01 -0.04 0.01 2088
0.04 0.78 0.74 -0.70 9.98 -0.01 -0.05 0.01 2095
0.01 0.77 0.72 -0.70 9.95 -0.01 -0.05 0.01 2101
0.03 0.78 0.76 -0.72 9.95 -0.01 -0.05 0.00 2107
0.04 0.75 0.71 -0.69 10.06 -0.01 -0.07 0.00 2113
0.05 0.73 0.74 -0.68 10.04 -0.01 -0.07 -0.00 2119
0.06 0.73 0.71 -0.69 9.97 -0.01 -0.08 0.00 2125
0.06 0.72 0.66 -0.72 9.94 -0.01 -0.07 -0.00 2132
0.05 0.72 0.71 -0.69 9.99 -0.01 -0.07 -0.00 2139
0.07 0.66 0.70 -0.74 10.04 -0.00 -0.07 0.00 2145
0.07 0.63 0.71 -0.73 10.00 0.00 -0.06 0.00 2151
0.07 0.61 0.68 -0.75 9.97 0.00 -0.05 0.01 2157
0.06 0.54 0.69 -0.71 9.95 0.01 -0.03 0.01 2163
0.07 0.50 0.71 -0.67 10.07 0.02 -0.03 0.01 2169
0.08 0.48 0.71 -0.69 10.06 0.03 -0.02 0.01 2177
0.09 0.41 0.74 -0.70 10.01 0.04 -0.01 0.01 2183
0.09 0.32 0.76 -0.74 10.04 0.04 -0.01 0.01 2189
0.12 0.24 0.75 -0.71 10.01 0.04 -0.01 0.01 2195
0.12 0.21 0.73 -0.68 9.98 0.05 -0.02 0.01 2201
0.13 0.20 0.72 -0.74 9.89 0.05 -0.02 0.01 2208
0.14 0.16 0.77 -0.70 9.95 0.05 -0.02 0.00 2214
0.14 0.11 0.71 -0.70 10.05 0.06 -0.02 0.00 2221
0.14 0.05 0.75 -0.75 10.10 0.08 -0.02 0.00 2227
0.18 0.03 0.97 -0.52 10.18 0.08 -0.02 -0.00 2233
0.21 0.00 0.76 -0.78 10.14 0.10 -0.03 0.00 2239
0.23 -0.01 0.78 -0.75 10.29 0.14 -0.02 0.00 2246
0.28 -0.02 0.86 -1.01 10.51 0.20 -0.01 -0.01 2252
0.30 -0.03 0.99 -0.80 10.89 0.30 -0.02 -0.02 2258
0.33 -0.03 1.21 -0.89 11.10 0.42 -0.05 -0.05 2265
0.37 -0.02 1.50 -0.88 11.53 0.62 -0.06 -0.11 2271
0.43 -0.04 1.60 -1.16 12.47 0.92 -0.05 -0.21 2277
0.46 -0.04 1.66 -1.38 13.97 1.44 -0.04 -0.30 2284
0.56 -0.04 2.01 -1.45 14.39 1.92 -0.14 -0.37 2290
0.55 -0.05 2.26 -2.42 13.93 2.18 -0.33 -0.48 2296
0.57 -0.03 2.45 -1.55 14.38 2.29 -0.55 -0.58 2302
0.59 -0.04 2.72 -2.11 14.39 2.42 -0.77 -0.67 2310
0.55 -0.03 3.21 -2.23 14.40 2.56 -1.01 -0.79 2316
0.55 -0.03 3.41 -2.72 13.62 2.65 -1.20 -0.90 2322
0.48 -0.03 4.96 -1.88 12.96 2.68 -1.34 -1.04 2328
0.41 -0.02 4.43 -3.63 12.58 2.62 -1.45 -1.17 2335
0.35 -0.02 4.76 -4.09 12.24 2.57 -1.49 -1.36 2341
0.31 -0.03 5.18 -4.50 12.56 2.55 -1.42 -1.53 2348
0.22 -0.01 4.96 -4.35 13.04 2.58 -1.27 -1.69 2354
0.19 -0.01 5.22 -3.50 14.66 2.57 -1.12 -1.88 2361
0.14 -0.01 5.61 -4.96 16.43 2.59 -1.11 -1.98 2367
0.12 -0.01 6.85 -4.72 17.72 2.53 -1.06 -2.12 2373
0.07 -0.01 8.00 -5.65 16.44 2.40 -0.97 -2.31 2379
0.07 -0.01 9.24 -3.69 13.60 2.23 -0.86 -2.56 2385
0.10 -0.01 8.31 -4.04 13.58 2.08 -0.72 -2.80 2393
0.08 -0.01 7.86 -2.37 12.24 1.78 -0.67 -2.99 2399
0.08 -0.01 6.46 -1.98 10.46 1.45 -0.77 -3.16 2405
0.09 -0.01 6.47 -0.29 9.73 1.06 -1.11 -3.33 2411
0.08 -0.01 6.11 2.20 9.02 0.56 -1.58 -3.44 2417
0.06 -0.01 5.72 6.27 7.21 0.06 -1.97 -3.44 2423
0.07 -0.01 7.62 9.67 3.59 -0.38 -2.15 -3.22 2429
0.08 -0.01 10.55 6.91 2.98 -0.71 -1.96 -2.60 2436
0.06 -0.01 10.26 1.85 7.99 -0.95 -1.49 -1.95 2443
0.05 -0.01 11.33 0.91 9.86 -1.30 -1.11 -1.55 2449
0.08 -0.01 10.97 1.40 7.67 -1.45 -0.91 -1.26 2455
0.06 -0.01 9.46 1.43 5.39 -1.37 -0.74 -1.03 2461
0.05 -0.00 8.34 1.32 3.37 -1.23 -0.43 -0.87 2467
0.06 -0.01 7.64 0.98 2.62 -1.05 -0.10 -0.71 2473
0.06 -0.01 7.02 0.37 2.89 -0.84 0.23 -0.59 2480
0.07 -0.01 6.54 -0.15 3.74 -0.60 0.57 -0.53 2487
0.06 -0.01 5.85 -0.59 4.79 -0.41 0.90 -0.49 2493
0.07 0.00 5.31 -0.69 5.80 -0.21 1.16 -0.48 2499
0.07 -0.01 4.60 -0.51 6.96 -0.06 1.32 -0.47 2505
0.05 -0.01 4.14 -0.18 8.46 0.01 1.47 -0.46 2511
0.04 -0.00 3.86 0.13 8.95 -0.01 1.58 -0.44 2518
0.05 -0.00 3.44 0.28 9.81 -0.09 1.66 -0.39 2524
0.06 -0.01 3.09 0.33 10.68 -0.20 1.71 -0.33 2530
0.05 -0.00 2.90 0.27 11.30 -0.36 1.72 -0.25 2536
0.04 -0.00 2.64 0.02 11.50 -0.56 1.71 -0.16 2543
0.05 -0.01 2.24 -0.18 11.41 -0.73 1.70 -0.03 2549
0.05 -0.01 1.95 -0.37 11.30 -0.85 1.71 0.04 2555
0.05 -0.01 1.67 -0.63 11.12 -0.94 1.77 0.17 2562
0.06 -0.00 1.32 -1.09 11.01 -0.96 1.83 0.29 2568
0.05 -0.01 0.99 -1.48 11.03 -0.96 1.89 0.40 2574
0.04 -0.00 0.74 -1.86 11.06 -0.92 1.91 0.48 2581
0.05 -0.01 0.52 -2.03 11.08 -0.88 1.90 0.54 2587
0.06 -0.01 0.54 -2.10 11.27 -0.83 1.90 0.60 2593
0.05 -0.01 0.67 -2.20 11.51 -0.78 1.92 0.64 2599
0.04 -0.00 0.78 -2.38 12.05 -0.74 1.97 0.66 2606
0.05 -0.01 0.51 -2.63 12.45 -0.72 2.02 0.65 2612
0.05 -0.00 0.00 -2.91 12.63 -0.71 2.03 0.63 2618
0.05 -0.01 -0.49 -2.91 12.72 -0.71 1.99 0.58 2625
0.05 -0.00 -0.87 -2.81 12.65 -0.72 1.90 0.54 2631
0.05 -0.00 -1.08 -2.57 12.49 -0.74 1.78 0.49 2637
0.04 -0.00 -1.07 -2.24 12.34 -0.76 1.64 0.45 2643
0.05 -0.01 -0.86 -1.89 12.22 -0.77 1.52 0.43 2650
0.05 -0.01 -0.01 -1.66 12.41 -0.77 1.45 0.42 2656
0.05 -0.01 -0.30 -1.61 12.62 -0.77 1.44 0.44 2663
0.05 -0.00 -0.13 -1.60 12.60 -0.78 1.47 0.45 2669
0.06 -0.01 -0.32 -1.54 12.53 -0.80 1.48 0.49 2675
0.05 -0.01 -0.65 -1.54 12.27 -0.82 1.47 0.54 2681
0.03 -0.00 -0.92 -1.57 11.95 -0.82 1.42 0.63 2688
0.04 0.00 -1.11 -1.54 11.64 -0.80 1.34 0.74 2694
0.05 -0.00 -1.14 -1.49 11.37 -0.77 1.22 0.87 2701
0.04 -0.00 -0.94 -1.47 11.12 -0.73 1.09 1.00 2707
0.05 -0.01 -0.78 -1.65 11.03 -0.68 0.96 1.12 2713
0.05 -0.01 -0.54 -1.90 10.94 -0.63 0.85 1.22 2719
0.05 -0.00 -0.21 -2.12 11.24 -0.59 0.81 1.28 2725
0.05 -0.00 0.07 -2.28 11.29 -0.57 0.80 1.31 2732
0.05 -0.01 0.21 -2.56 11.13 -0.58 0.81 1.30 2739
0.05 -0.00 0.19 -2.73 10.90 -0.60 0.82 1.27 2745
0.05 -0.01 0.23 -2.94 10.72 -0.61 0.84 1.22 2751
0.05 -0.01 0.20 -3.19 10.55 -0.61 0.88 1.16 2757
0.05 -0.01 0.16 -3.40 10.46 -0.60 0.94 1.09 2763
0.04 -0.00 0.05 -3.49 10.30 -0.58 1.00 1.04 2769
0.05 -0.01 -0.05 -3.57 10.16 -0.55 1.04 1.00 2776
0.04 -0.00 -0.31 -3.69 10.02 -0.50 1.08 0.97 2783
0.05 -0.00 -0.58 -3.84 9.99 -0.45 1.10 0.95 2789
0.05 -0.01 -0.74 -3.96 9.91 -0.40 1.07 0.96 2795
0.07 -0.01 -0.88 -3.93 9.95 -0.36 1.01 0.99 2801
0.05 -0.00 -1.12 -3.89 9.99 -0.33 0.92 1.05 2807
0.05 -0.00 -1.31 -3.90 9.90 -0.30 0.81 1.16 2813
0.05 -0.00 -1.38 -3.96 9.82 -0.28 0.65 1.27 2820
0.07 -0.01 -1.32 -4.17 10.08 -0.26 0.54 1.40 2826
0.05 -0.01 -1.05 -4.56 10.29 -0.24 0.46 1.47 2833
0.04 -0.00 -0.82 -5.06 10.36 -0.24 0.46 1.54 2839
0.05 -0.01 -0.80 -5.40 10.49 -0.26 0.51 1.57 2845
0.05 -0.01 -1.09 -5.70 10.43 -0.30 0.57 1.57 2851
0.04 -0.00 -1.61 -6.13 10.04 -0.33 0.61 1.55 2857
0.05 0.00 -2.18 -6.60 9.62 -0.34 0.60 1.52 2864
0.06 -0.01 -2.89 -7.01 9.24 -0.32 0.53 1.47 2870
0.05 -0.01 -3.30 -7.29 8.86 -0.26 0.47 1.42 2877
0.05 -0.00 -3.71 -7.45 8.66 -0.17 0.40 1.34 2883
0.05 -0.01 -4.12 -7.43 8.48 -0.07 0.34 1.32 2889
0.05 -0.01 -4.94 -7.59 8.54 0.04 0.26 1.28 2895
0.05 -0.01 -17.86 -14.45 15.69 0.51 -1.18 1.36 2902
0.05 -0.00 -11.22 -7.34 9.53 0.85 -2.11 1.52 2908
0.05 -0.01 -7.44 -4.53 2.78 0.69 -2.58 1.59 2914
0.04 -0.00 -8.88 -10.61 5.64 0.62 -3.00 1.57 2921
0.05 -0.00 -11.18 -13.12 9.98 0.72 -3.95 1.56 2927
0.05 -0.01 -11.97 -11.49 7.80 0.57 -4.27 1.54 2933
0.04 -0.00 -10.98 -9.34 6.66 0.52 -4.28 1.46 2939
0.05 0.06 -7.17 3.01 18.71 0.80 -4.28 1.34 2946
0.03 0.20 -8.69 -7.70 15.89 1.65 -2.52 1.48 2953
0.02 0.44 -11.69 -0.50 20.87 1.71 -1.79 1.27 2959
0.02 0.62 -10.45 -1.22 22.35 1.61 -1.63 0.65 2965
0.02 0.74 -4.91 -0.39 19.87 0.81 -1.58 0.10 2971
0.01 0.77 -1.24 -0.95 14.00 0.30 -0.63 -0.07 2978
0.00 0.73 0.81 -0.59 10.12 0.10 -0.14 -0.07 2984
-0.02 0.66 1.97 -0.45 9.57 0.16 -0.15 0.04 2991
0.03 0.60 2.50 -0.22 10.06 0.21 -0.21 0.21 2997
0.03 0.58 1.41 -0.39 10.31 0.15 -0.13 0.37 3003
0.03 0.56 -0.03 -1.20 10.70 0.06 -0.09 0.36 3010
0.03 0.56 -0.69 -1.39 10.01 -0.00 -0.07 0.22 3016
0.04 0.61 0.41 -1.46 9.98 -0.03 -0.05 0.15 3022
0.03 0.57 0.65 -1.35 9.86 -0.06 -0.02 0.15 3028
0.02 0.64 0.54 -1.16 9.72 -0.06 -0.02 0.11 3035
0.03 0.68 0.70 -1.06 9.90 -0.08 -0.03 0.08 3041
0.03 0.77 0.66 -0.86 10.19 -0.09 -0.03 0.05 3048
0.03 0.82 0.62 -0.81 10.31 -0.08 -0.02 0.04 3054
0.04 0.92 0.53 -0.68 10.10 -0.06 -0.01 0.05 3060
0.03 0.95 0.59 -0.66 10.14 -0.05 0.01 0.05 3066
0.04 1.00 0.72 -0.73 10.19 -0.04 0.01 0.05 3073
0.03 0.98 0.75 -0.80 10.09 -0.03 0.01 0.05 3080
0.02 0.97 0.81 -0.80 10.10 -0.03 0.01 0.05 3086
0.03 0.99 0.67 -0.81 10.10 -0.03 0.00 0.04 3092
0.04 1.01 0.69 -0.81 9.95 -0.03 -0.00 0.04 3098
0.04 1.03 0.69 -0.76 10.04 -0.03 0.00 0.04 3104
0.02 1.10 0.69 -0.74 10.04 -0.03 0.03 0.04 3110
0.03 1.06 0.68 -0.73 10.15 -0.03 0.00 0.04 3118
0.03 1.03 0.71 -0.72 9.99 -0.03 -0.00 0.05 3124
0.02 1.04 0.74 -0.73 10.00 -0.02 0.00 0.04 3130
0.04 1.05 0.71 -0.73 10.01 -0.02 -0.00 0.04 3136
-0.02 1.02 0.70 -0.69 9.95 -0.02 0.00 0.04 3142
0.01 1.02 0.71 -0.71 10.04 -0.01 0.01 0.03 3148
0.03 1.02 0.74 -0.71 10.05 -0.01 0.01 0.04 3155
0.03 0.97 0.71 -0.68 10.07 -0.00 0.02 0.03 3162
0.03 0.95 0.76 -0.71 10.03 0.00 0.02 0.03 3168
0.04 0.94 0.78 -0.72 9.99 0.00 0.02 0.03 3174
0.05 0.92 0.76 -0.71 10.02 0.00 0.02 0.03 3180
0.05 0.89 0.74 -0.71 10.06 0.01 0.01 0.03 3186
0.04 0.87 0.79 -0.75 10.03 0.00 0.02 0.03 3193
0.05 0.84 0.79 -0.71 10.05 0.00 0.01 0.03 3200
0.03 0.85 0.80 -0.74 10.02 0.01 0.01 0.03 3206
0.03 0.80 0.76 -0.69 9.99 0.01 0.01 0.03 3212
0.04 0.78 0.84 -0.71 10.02 0.01 0.01 0.03 3218
0.04 0.73 0.79 -0.71 9.99 0.01 0.00 0.03 3224
0.04 0.71 0.80 -0.71 9.95 0.01 -0.00 0.03 3230
0.04 0.71 0.75 -0.68 9.97 0.01 -0.01 0.03 3237
0.04 0.68 0.80 -0.70 10.04 0.01 -0.01 0.03 3244
0.03 0.66 0.74 -0.71 9.93 0.01 -0.01 0.02 3250
0.02 0.64 0.76 -0.74 9.97 0.02 -0.01 0.02 3256
0.04 0.61 0.79 -0.71 9.98 0.02 -0.01 0.02 3262
0.05 0.58 0.79 -0.72 10.00 0.01 -0.02 0.02 3268
0.05 0.58 0.79 -0.71 9.98 0.02 -0.01 0.01 3274
0.05 0.53 0.79 -0.71 10.04 0.02 -0.02 0.01 3281
0.07 0.49 0.82 -0.70 10.01 0.02 -0.02 0.01 3288
0.06 0.45 0.79 -0.71 9.92 0.01 -0.02 0.02 3294
0.06 0.44 0.79 -0.71 9.91 0.02 -0.02 0.01 3300
0.04 0.46 0.84 -0.71 9.98 0.01 -0.02 0.01 3306
0.07 0.43 0.82 -0.75 9.95 0.01 -0.03 0.01 3312
0.06 0.43 0.76 -0.71 9.97 0.01 -0.03 0.01 3318
0.08 0.37 0.79 -0.72 9.99 0.01 -0.04 0.01 3325
0.08 0.34 0.80 -0.75 10.03 0.00 -0.04 0.01 3332
0.07 0.31 0.79 -0.77 9.96 -0.00 -0.05 0.01 3338
0.06 0.34 0.77 -0.73 9.97 -0.01 -0.05 0.00 3344
0.09 0.35 0.76 -0.75 9.91 -0.01 -0.06 0.01 3350
0.08 0.32 0.80 -0.69 9.96 -0.00 -0.07 -0.00 3356
0.09 0.28 0.76 -0.72 10.01 -0.00 -0.06 -0.01 3362
0.10 0.26 0.80 -0.72 9.98 -0.01 -0.06 -0.01 3369
0.11 0.21 0.75 -0.72 9.96 -0.01 -0.06 -0.01 3376
0.10 0.22 0.81 -0.78 9.93 -0.01 -0.06 -0.01 3382
0.11 0.21 0.75 -0.78 9.98 -0.01 -0.06 -0.01 3388
0.12 0.20 0.79 -0.77 9.99 -0.01 -0.06 -0.01 3394
0.11 0.16 0.79 -0.74 10.02 -0.00 -0.06 -0.01 3400
0.12 0.14 0.72 -0.80 10.01 -0.00 -0.06 -0.01 3407
0.15 0.15 0.79 -0.73 10.03 -0.00 -0.05 -0.00 3414
0.14 0.15 0.73 -0.75 10.00 0.00 -0.05 -0.00 3420
0.16 0.12 0.77 -0.74 9.98 0.01 -0.05 0.00 3426
0.18 0.14 0.80 -0.80 9.98 0.01 -0.05 -0.00 3432
0.18 0.12 0.79 -0.75 10.04 0.01 -0.05 0.00 3438
0.18 0.08 0.74 -0.81 9.94 0.00 -0.05 0.00 3445
0.19 0.09 0.82 -0.77 9.98 0.00 -0.05 0.01 3451
0.21 0.07 0.74 -0.78 10.01 -0.00 -0.05 0.01 3458
0.21 0.05 0.77 -0.74 9.91 0.00 -0.05 0.01 3464
0.20 0.06 0.76 -0.79 10.08 -0.00 -0.05 0.01 3470
0.22 0.07 0.76 -0.79 10.01 0.00 -0.05 0.01 3476
0.22 0.06 0.79 -0.78 10.04 0.00 -0.05 0.01 3482
0.22 0.05 0.80 -0.77 10.00 0.00 -0.04 0.01 3489
0.24 0.07 0.78 -0.78 9.99 0.01 -0.05 0.01 3495
0.25 0.03 0.73 -0.77 10.01 0.01 -0.05 0.01 3502
0.24 0.03 0.78 -0.77 10.00 0.01 -0.05 0.01 3508
0.26 0.05 0.73 -0.79 9.95 0.01 -0.05 0.01 3514
0.27 0.05 0.74 -0.82 10.02 0.01 -0.05 0.02 3520
0.27 0.02 0.77 -0.79 10.02 0.01 -0.05 0.02 3527
0.29 0.03 0.78 -0.78 10.02 0.01 -0.05 0.01 3533
0.28 0.01 0.78 -0.77 10.03 0.02 -0.05 0.02 3539
0.28 -0.02 0.76 -0.77 10.00 0.02 -0.04 0.02 3546
0.29 0.02 0.72 -0.78 10.03 0.03 -0.04 0.01 3552
0.32 -0.00 0.73 -0.80 10.07 0.04 -0.03 0.01 3558
0.33 -0.02 0.73 -0.81 10.09 0.06 -0.04 0.02 3565
0.33 0.00 0.76 -0.83 10.05 0.08 -0.03 0.01 3571
0.34 -0.02 0.76 -0.85 10.10 0.10 -0.03 0.01 3577
0.33 -0.03 0.85 -0.83 10.33 0.14 -0.03 0.01 3584
0.36 -0.03 0.83 -1.06 10.43 0.20 -0.05 0.01 3590
0.40 -0.04 1.03 -0.94 10.61 0.28 -0.08 0.01 3597
0.41 -0.04 1.08 -0.94 10.81 0.38 -0.12 -0.01 3603
0.44 -0.03 1.35 -0.94 10.49 0.51 -0.15 -0.05 3609
0.50 -0.03 1.45 -1.59 11.86 0.73 -0.20 -0.12 3615
0.51 -0.04 1.80 -1.39 13.01 1.09 -0.26 -0.23 3621
0.55 -0.03 1.74 -1.34 13.68 1.56 -0.37 -0.33 3629
0.56 -0.04 2.08 -1.60 14.29 1.89 -0.56 -0.42 3635
0.55 -0.03 2.50 -1.75 13.83 2.07 -0.79 -0.50 3641
0.59 -0.04 3.47 -2.13 13.97 2.19 -1.03 -0.63 3647
0.57 -0.04 4.45 -3.32 14.87 2.30 -1.29 -0.78 3654
0.53 -0.02 4.61 -3.25 14.12 2.37 -1.46 -0.97 3660
0.49 -0.03 5.17 -3.53 13.90 2.40 -1.62 -1.17 3666
0.41 -0.04 6.44 -4.32 13.02 2.40 -1.68 -1.41 3673
0.36 -0.02 6.33 -4.91 12.97 2.36 -1.69 -1.66 3679
0.26 -0.02 6.66 -4.64 12.74 2.29 -1.65 -1.91 3686
0.20 -0.02 7.75 -6.48 14.06 2.22 -1.49 -2.13 3692
0.17 -0.02 7.88 -4.69 15.17 2.13 -1.32 -2.33 3698
0.08 -0.01 8.50 -5.25 14.12 2.05 -1.12 -2.57 3704
0.08 -0.01 6.50 -4.70 13.70 1.95 -0.86 -2.77 3710
0.08 -0.01 5.66 -4.57 12.33 1.79 -0.73 -2.95 3718
0.08 -0.01 5.02 -2.93 15.31 1.59 -0.75 -3.06 3724
0.06 -0.01 4.59 -1.91 13.88 1.32 -0.97 -3.19 3730
0.09 -0.01 4.86 -0.83 13.21 1.04 -1.36 -3.29 3736
0.07 -0.01 5.22 0.56 12.40 0.73 -1.84 -3.39 3742
0.06 -0.01 6.49 3.37 10.84 0.36 -2.33 -3.49 3748
0.07 -0.00 9.25 7.69 7.51 0.03 -2.75 -3.48 3756
0.07 -0.01 12.74 8.71 5.44 -0.28 -2.83 -3.15 3762
0.07 -0.01 11.05 5.34 8.70 -0.69 -2.25 -2.56 3768
0.07 -0.00 13.00 4.31 11.02 -1.26 -1.52 -1.99 3774
0.07 -0.01 14.03 4.35 9.56 -1.57 -1.03 -1.54 3780
0.06 -0.01 12.80 3.84 7.24 -1.61 -0.88 -1.17 3787
0.08 0.00 11.62 3.18 4.13 -1.55 -0.75 -0.94 3793
0.08 -0.01 11.38 2.77 2.54 -1.38 -0.55 -0.67 3800
0.06 -0.01 11.65 2.43 3.29 -1.17 -0.28 -0.46 3806
0.07 0.00 12.01 2.11 4.11 -0.95 0.12 -0.31 3812
0.06 -0.01 12.12 1.97 5.27 -0.73 0.64 -0.23 3818
0.05 -0.01 11.69 2.14 6.31 -0.57 1.24 -0.19 3825
0.05 -0.00 10.40 2.37 7.35 -0.50 1.82 -0.16 3831
0.05 -0.01 8.67 2.30 8.58 -0.48 2.27 -0.13 3837
0.05 -0.00 6.45 1.96 9.55 -0.52 2.53 -0.10 3844
0.06 -0.01 5.04 1.59 10.33 -0.58 2.58 -0.06 3850
0.05 -0.01 3.38 1.07 10.80 -0.65 2.49 -0.01 3856
0.05 -0.00 2.05 0.52 10.97 -0.73 2.31 0.02 3863
0.03 -0.00 1.31 0.12 11.16 -0.80 2.11 0.02 3869
0.05 0.00 1.18 -0.12 11.37 -0.86 1.93 -0.01 3875
0.05 -0.00 1.36 -0.22 11.71 -0.89 1.86 -0.08 3881
0.04 -0.00 1.40 -0.33 11.88 -0.91 1.91 -0.18 3888
0.05 0.00 1.22 -0.48 11.96 -0.92 2.07 -0.29 3894
0.05 -0.00 0.78 -0.62 12.07 -0.91 2.24 -0.40 3900
0.04 -0.00 0.15 -0.73 12.21 -0.89 2.42 -0.53 3907
0.05 -0.01 -0.48 -0.88 12.51 -0.86 2.55 -0.58 3913
0.06 -0.01 -1.12 -0.97 12.69 -0.82 2.60 -0.63 3919
0.06 -0.01 -1.62 -1.20 12.86 -0.79 2.60 -0.65 3926
0.04 -0.00 -1.89 -1.45 13.04 -0.75 2.54 -0.66 3932
0.06 -0.01 -2.04 -1.70 13.25 -0.72 2.45 -0.67 3938
0.04 -0.00 -2.07 -1.93 13.55 -0.69 2.38 -0.68 3945
0.04 -0.00 -2.15 -2.16 13.83 -0.65 2.32 -0.68 3951
0.04 0.00 -2.14 -2.22 14.23 -0.62 2.27 -0.68 3957
0.04 -0.00 -2.24 -2.05 14.37 -0.61 2.24 -0.64 3963
0.03 -0.00 -2.47 -1.75 14.19 -0.61 2.22 -0.53 3970
0.05 -0.01 -2.78 -1.51 13.94 -0.61 2.16 -0.36 3977
0.05 -0.00 -3.03 -1.28 13.64 -0.59 2.06 -0.13 3983
0.04 -0.00 -3.25 -0.94 13.29 -0.54 1.91 0.14 3989
0.05 -0.00 -3.36 -0.85 12.90 -0.48 1.74 0.51 3995
0.05 -0.00 -3.43 -1.11 12.36 -0.39 1.53 0.89 4001
0.05 -0.00 -3.12 -1.51 11.91 -0.30 1.30 1.24 4007
0.04 0.00 -2.66 -1.88 11.60 -0.22 1.10 1.55 4015
0.05 -0.00 -2.17 -2.18 11.31 -0.15 0.94 1.79 4021
0.04 -0.00 -1.72 -2.45 11.18 -0.08 0.85 1.95 4027
0.05 -0.00 -1.45 -2.54 10.96 -0.00 0.84 2.06 4033
0.05 -0.01 -1.35 -2.57 10.89 0.06 0.87 2.13 4039
0.04 -0.00 -1.41 -2.44 11.12 0.12 0.94 2.16 4045
0.04 -0.00 -1.56 -2.19 11.58 0.14 1.00 2.18 4052
0.06 -0.01 -1.98 -1.94 11.64 0.12 1.03 2.18 4059
0.05 -0.00 -2.46 -1.87 11.47 0.05 0.98 2.16 4065
0.03 -0.00 -2.89 -2.02 11.31 -0.03 0.86 2.12 4071
0.05 -0.00 -3.12 -2.39 10.94 -0.12 0.74 2.05 4077
0.05 -0.01 -3.15 -2.77 10.55 -0.13 0.64 1.95 4083
0.04 -0.00 -3.07 -3.12 10.21 -0.13 0.54 1.85 4089
0.04 -0.00 -2.91 -3.24 9.94 -0.12 0.52 1.73 4097
0.05 -0.01 -2.74 -3.42 9.80 -0.09 0.47 1.63 4103
0.05 -0.00 -2.37 -3.58 9.79 -0.07 0.44 1.52 4109
0.04 -0.00 -1.96 -3.67 9.82 -0.05 0.41 1.44 4115
0.05 -0.00 -1.59 -3.63 9.86 -0.05 0.38 1.39 4121
0.05 -0.01 -1.39 -3.62 9.70 -0.06 0.35 1.36 4127
0.05 -0.00 -1.37 -3.70 9.36 -0.09 0.31 1.36 4133
0.03 -0.00 -1.50 -4.69 9.51 -0.11 0.25 1.36 4140
0.04 0.00 -5.65 -6.30 10.66 -0.01 -0.25 1.41 4147
0.04 -0.00 -8.05 -6.76 11.39 0.15 -1.00 1.52 4153
0.03 -0.00 -3.49 -4.37 4.62 0.06 -1.11 1.60 4159
0.05 0.00 -4.11 -6.67 8.43 0.14 -1.76 1.66 4165
0.05 -0.01 -7.16 -9.27 7.99 0.06 -1.74 1.69 4171
0.05 -0.00 -6.71 -8.30 7.64 0.22 -2.08 1.75 4177
0.03 -0.00 -6.82 -9.28 7.97 0.25 -2.21 1.80 4184
0.05 0.00 -9.60 -13.42 7.48 0.30 -2.57 1.85 4191
0.04 -0.00 -12.84 -15.13 5.29 0.45 -3.12 1.91 4197
0.02 0.05 -14.21 -18.02 6.76 0.66 -3.54 2.18 4203
0.05 0.18 -13.54 -14.60 12.42 1.46 -2.59 2.76 4209
0.03 0.38 -13.04 -6.07 17.39 1.96 -1.97 2.75 4216
0.03 0.48 -21.55 -5.38 25.73 2.23 -1.69 1.97 4222
0.02 0.59 -16.42 1.59 24.13 1.34 -2.04 0.79 4229
0.01 0.71 -3.98 0.23 14.86 0.38 -1.12 0.10 4235
0.01 0.64 -1.36 0.41 10.76 0.07 -0.21 -0.12 4242
-0.01 0.60 0.60 -0.32 9.01 0.07 -0.05 -0.18 4248
0.02 0.58 2.80 -1.10 9.96 0.21 -0.19 -0.03 4254
0.03 0.53 2.82 -0.16 10.14 0.15 -0.14 0.23 4260
0.04 0.50 1.44 -0.46 10.31 0.07 -0.12 0.36 4267
0.05 0.55 -0.05 -0.61 10.23 0.01 -0.14 0.28 4274
0.05 0.54 -0.14 -1.20 9.87 -0.02 -0.11 0.16 4280
0.06 0.57 0.36 -1.13 9.94 -0.04 -0.07 0.11 4286
0.06 0.62 0.72 -1.12 9.97 -0.08 -0.05 0.11 4292
0.06 0.67 0.59 -1.22 9.89 -0.10 -0.05 0.10 4298
0.08 0.73 0.49 -0.79 10.00 -0.11 -0.05 0.07 4304
0.05 0.76 0.53 -0.71 10.15 -0.10 -0.05 0.05 4312
0.09 0.82 0.58 -0.59 10.13 -0.08 -0.03 0.05 4318
0.08 0.82 0.47 -0.49 10.08 -0.06 -0.01 0.05 4324
0.09 0.86 0.60 -0.61 10.01 -0.05 0.01 0.06 4330
0.11 0.84 0.67 -0.70 10.05 -0.05 0.00 0.05 4336
0.11 0.85 0.72 -0.70 10.06 -0.05 -0.01 0.05 4342
0.09 0.83 0.75 -0.76 10.16 -0.04 -0.00 0.05 4349
0.12 0.83 0.71 -0.72 9.98 -0.04 -0.01 0.05 4356
0.13 0.83 0.71 -0.67 10.14 -0.04 -0.01 0.04 4362
0.13 0.81 0.64 -0.66 10.14 -0.04 -0.00 0.04 4368
0.14 0.85 0.65 -0.67 10.11 -0.03 0.00 0.04 4374
0.12 0.85 0.73 -0.67 10.08 -0.03 0.01 0.04 4381
0.12 0.86 0.68 -0.66 10.04 -0.02 0.01 0.04 4387
0.13 0.82 0.73 -0.67 9.97 -0.02 0.01 0.04 4393
0.13 0.77 0.75 -0.66 10.05 -0.01 0.01 0.04 4400
0.14 0.77 0.69 -0.69 10.00 -0.01 0.01 0.03 4406
0.14 0.79 0.75 -0.68 10.12 -0.00 0.02 0.03 4412
0.14 0.76 0.72 -0.67 10.06 -0.00 0.01 0.03 4419
0.12 0.74 0.73 -0.66 10.05 0.00 0.02 0.03 4425
0.14 0.76 0.68 -0.66 9.99 -0.00 0.01 0.03 4431
0.11 0.70 0.75 -0.65 10.00 -0.00 0.02 0.03 4438
0.11 0.69 0.80 -0.61 10.04 0.01 0.02 0.03 4444
0.11 0.73 0.81 -0.64 10.09 0.01 0.02 0.03 4450
0.12 0.72 0.77 -0.66 10.03 0.01 0.01 0.03 4457
0.10 0.71 0.79 -0.66 10.06 0.01 0.01 0.03 4463
0.09 0.72 0.81 -0.64 10.03 0.01 0.01 0.03 4469
0.10 0.70 0.75 -0.65 10.01 0.01 0.01 0.03 4475
0.09 0.66 0.79 -0.64 9.99 0.01 0.01 0.03 4482
0.09 0.69 0.78 -0.65 10.02 0.01 0.01 0.04 4488
0.11 0.64 0.77 -0.68 9.99 0.01 0.01 0.03 4495
0.11 0.61 0.79 -0.63 10.02 0.01 0.00 0.03 4501
0.10 0.62 0.80 -0.68 9.98 0.01 0.00 0.03 4507
0.12 0.61 0.82 -0.64 9.99 0.01 -0.00 0.03 4513
0.11 0.61 0.80 -0.63 9.96 0.01 -0.00 0.03 4519
0.10 0.54 0.78 -0.64 9.98 0.01 -0.01 0.03 4526
0.11 0.53 0.79 -0.65 9.97 0.01 -0.00 0.03 4532
0.12 0.53 0.76 -0.64 10.00 0.01 -0.00 0.03 4539
0.11 0.54 0.77 -0.66 9.98 0.01 -0.01 0.03 4545
0.11 0.50 0.76 -0.68 9.97 0.01 -0.00 0.03 4551
0.12 0.50 0.76 -0.64 9.98 0.00 -0.00 0.03 4557
0.11 0.52 0.76 -0.66 9.96 0.00 -0.01 0.03 4563
0.11 0.47 0.77 -0.66 9.99 0.00 -0.00 0.03 4570
0.12 0.45 0.76 -0.66 9.97 0.00 -0.00 0.03 4576
0.14 0.44 0.76 -0.63 10.03 -0.00 -0.01 0.03 4583
0.12 0.43 0.79 -0.64 9.98 -0.00 -0.00 0.02 4589
0.11 0.42 0.80 -0.66 10.02 -0.01 -0.01 0.02 4595
0.13 0.42 0.79 -0.65 9.98 -0.00 -0.02 0.02 4601
0.10 0.43 0.82 -0.70 9.97 -0.01 -0.02 0.02 4608
0.10 0.43 0.81 -0.64 9.99 -0.02 -0.02 0.02 4614
0.10 0.46 0.83 -0.66 9.90 -0.01 -0.03 0.02 4620
0.10 0.43 0.81 -0.62 10.01 -0.01 -0.03 0.02 4627
0.10 0.40 0.89 -0.63 10.03 -0.01 -0.03 0.01 4633
0.10 0.43 0.85 -0.65 10.01 -0.00 -0.03 0.01 4639
0.11 0.40 0.84 -0.66 9.99 -0.00 -0.03 0.01 4645
0.12 0.39 0.85 -0.66 9.95 -0.00 -0.03 0.01 4652
0.13 0.37 0.81 -0.69 9.97 -0.00 -0.03 0.01 4658
0.13 0.37 0.83 -0.66 9.99 -0.00 -0.03 0.01 4665
0.15 0.37 0.76 -0.68 9.96 -0.01 -0.03 0.02 4671
0.14 0.33 0.79 -0.70 10.02 -0.01 -0.03 0.02 4677
0.13 0.37 0.77 -0.66 9.99 -0.01 -0.03 0.01 4683
0.14 0.36 0.79 -0.66 9.98 -0.01 -0.03 0.02 4689
0.14 0.37 0.81 -0.65 9.98 -0.01 -0.03 0.02 4696
0.14 0.39 0.81 -0.64 9.96 -0.01 -0.03 0.01 4702
0.14 0.39 0.77 -0.67 9.99 -0.02 -0.04 0.02 4709
0.12 0.37 0.82 -0.66 10.01 -0.01 -0.04 0.01 4715
0.12 0.37 0.82 -0.65 9.99 -0.01 -0.04 0.01 4721
0.14 0.34 0.80 -0.64 10.04 -0.01 -0.05 0.02 4727
0.14 0.34 0.82 -0.65 10.02 -0.01 -0.06 0.01 4733
0.15 0.32 0.87 -0.67 10.06 -0.01 -0.07 0.01 4741
0.19 0.33 0.79 -0.64 10.03 -0.02 -0.08 0.01 4747
0.19 0.33 0.80 -0.67 10.01 -0.02 -0.09 0.01 4753
0.19 0.36 0.84 -0.66 9.99 -0.03 -0.09 0.00 4759
0.19 0.35 0.83 -0.71 9.99 -0.03 -0.09 0.00 4765
0.21 0.33 0.75 -0.73 10.05 -0.03 -0.09 0.00 4771
0.19 0.34 0.76 -0.68 10.03 -0.02 -0.09 0.01 4779
0.21 0.35 0.77 -0.69 9.99 -0.02 -0.09 0.01 4785
0.18 0.34 0.75 -0.65 10.04 -0.02 -0.08 0.02 4791
0.19 0.35 0.76 -0.69 10.03 -0.01 -0.08 0.02 4797
0.21 0.36 0.73 -0.67 10.03 -0.01 -0.07 0.02 4803
0.20 0.34 0.81 -0.67 10.00 -0.01 -0.07 0.02 4810
0.19 0.33 0.79 -0.67 10.01 -0.00 -0.06 0.02 4816
0.23 0.33 0.74 -0.71 9.99 0.01 -0.06 0.01 4823
0.24 0.30 0.74 -0.66 10.02 0.01 -0.05 0.01 4829
0.25 0.25 0.73 -0.61 10.05 0.02 -0.04 0.01 4835
0.27 0.19 0.72 -0.64 10.07 0.03 -0.03 0.00 4841
0.28 0.16 0.58 -0.70 10.04 0.04 -0.03 -0.00 4848
0.29 0.11 0.73 -0.69 10.10 0.05 -0.03 0.00 4854
0.29 0.08 0.78 -0.63 10.11 0.07 -0.03 0.00 4860
0.31 0.06 0.75 -0.69 10.22 0.13 -0.03 0.00 4867
0.34 0.01 0.79 -0.74 10.42 0.15 -0.04 0.01 4873
0.38 -0.01 0.90 -0.79 10.69 0.24 -0.07 0.01 4880
0.40 -0.03 1.04 -0.46 10.83 0.36 -0.10 0.00 4886
0.46 -0.04 1.50 -0.85 11.09 0.47 -0.16 -0.02 4892
0.53 -0.03 1.58 -1.58 11.49 0.62 -0.24 -0.08 4898
0.55 -0.04 2.08 -1.45 12.50 0.86 -0.30 -0.20 4904
0.61 -0.04 2.49 -1.50 14.61 1.35 -0.43 -0.36 4912
0.64 -0.05 2.85 -1.53 14.77 1.95 -0.64 -0.53 4918
0.67 -0.05 3.10 -1.97 14.12 2.24 -0.93 -0.69 4924
0.67 -0.03 3.20 -2.02 14.68 2.34 -1.14 -0.84 4930
0.68 -0.03 3.84 -2.39 14.38 2.42 -1.39 -0.98 4937
0.65 -0.04 4.20 -3.12 14.23 2.52 -1.51 -1.15 4943
0.63 -0.03 4.88 -3.47 13.85 2.59 -1.64 -1.35 4950
0.55 -0.05 5.87 -4.42 13.09 2.61 -1.65 -1.54 4956
0.43 -0.02 6.14 -4.63 12.58 2.57 -1.53 -1.76 4963
0.32 -0.02 5.15 -4.14 12.05 2.49 -1.42 -1.98 4969
0.24 -0.02 4.19 -3.98 12.88 2.37 -1.39 -2.17 4975
0.23 -0.01 3.96 -3.67 13.63 2.26 -1.42 -2.28 4981
0.19 -0.02 4.04 -4.01 14.92 2.26 -1.42 -2.33 4987
0.12 -0.01 4.82 -3.38 15.72 2.23 -1.38 -2.38 4995
0.12 -0.01 5.21 -3.43 16.72 2.17 -1.37 -2.48 5001
0.08 -0.01 4.77 -3.23 15.71 2.03 -1.43 -2.60 5007
0.08 -0.01 4.50 -2.06 15.25 1.82 -1.56 -2.73 5013
0.12 -0.01 4.00 -1.58 14.00 1.53 -1.69 -2.86 5019
0.07 -0.01 4.07 -0.60 12.05 1.21 -1.96 -2.98 5026
0.07 -0.01 4.44 1.09 10.46 0.93 -2.24 -3.10 5032
0.10 -0.01 6.10 2.89 8.88 0.60 -2.49 -3.22 5039
0.06 -0.01 7.61 6.84 8.61 0.23 -2.54 -3.33 5045
0.07 -0.01 9.16 8.94 6.61 -0.17 -2.48 -3.37 5051
0.06 -0.01 10.23 6.85 5.80 -0.49 -2.20 -3.24 5057
0.06 -0.01 8.42 2.76 9.88 -0.72 -1.48 -2.94 5063
0.06 -0.01 9.65 1.72 11.80 -1.12 -0.69 -2.60 5069
0.06 -0.01 9.20 2.23 10.29 -1.31 -0.37 -2.31 5076
0.08 -0.01 7.72 2.22 7.89 -1.31 -0.32 -2.07 5083
0.06 -0.01 6.45 1.71 4.93 -1.28 -0.32 -1.85 5089
0.06 -0.01 6.25 1.08 4.24 -1.18 -0.30 -1.57 5095
0.07 -0.00 6.42 0.59 4.61 -1.03 -0.19 -1.29 5101
0.08 -0.01 6.56 0.29 5.43 -0.83 0.04 -1.01 5107
0.06 -0.01 6.63 0.16 6.20 -0.66 0.35 -0.77 5113
0.05 -0.01 6.49 0.26 6.70 -0.49 0.63 -0.55 5120
0.06 0.00 6.07 1.21 7.51 -0.39 0.94 -0.36 5127
0.07 -0.01 5.14 0.74 8.19 -0.35 1.18 -0.21 5133
0.05 -0.01 4.17 0.89 9.17 -0.36 1.31 -0.03 5139
0.04 -0.00 3.42 1.07 9.91 -0.41 1.35 0.15 5145
0.05 -0.00 2.81 1.12 10.50 -0.47 1.33 0.32 5151
0.05 -0.01 2.35 1.03 10.90 -0.56 1.32 0.46 5157
0.04 -0.00 2.19 0.78 11.13 -0.67 1.34 0.57 5164
0.06 0.00 1.96 0.25 10.99 -0.78 1.42 0.64 5171
0.06 -0.01 1.80 -0.26 10.72 -0.86 1.52 0.68 5177
0.05 -0.01 1.45 -0.91 10.51 -0.91 1.63 0.70 5183
0.05 -0.01 1.09 -1.40 10.30 -0.90 1.72 0.70 5189
0.06 -0.01 0.68 -1.65 10.11 -0.86 1.79 0.69 5195
0.05 -0.00 0.34 -1.79 9.91 -0.80 1.82 0.67 5201
0.04 -0.00 0.02 -1.83 9.92 -0.70 1.85 0.63 5208
0.05 0.00 -0.07 -1.79 10.21 -0.67 1.91 0.57 5215
0.05 -0.00 -0.24 -1.89 10.63 -0.62 1.96 0.49 5221
0.05 -0.00 -0.41 -2.05 11.08 -0.57 2.01 0.39 5227
0.04 -0.00 -0.57 -2.18 11.43 -0.54 2.06 0.30 5233
0.06 -0.01 -0.68 -2.33 11.64 -0.51 2.10 0.18 5239
0.04 -0.00 -0.63 -2.35 11.89 -0.50 2.11 0.06 5245
0.04 -0.00 -0.63 -2.41 12.11 -0.49 2.10 -0.05 5253
0.05 -0.01 -0.82 -2.45 12.43 -0.50 2.08 -0.15 5259
0.04 -0.00 -1.00 -2.47 12.71 -0.51 2.04 -0.23 5265
0.03 -0.00 -1.22 -2.40 12.87 -0.53 1.97 -0.28 5271
0.04 0.01 -1.42 -2.29 12.78 -0.57 1.85 -0.30 5277
0.03 -0.00 -1.43 -2.23 12.54 -0.60 1.76 -0.30 5283
0.03 -0.00 -1.45 -2.23 12.39 -0.63 1.64 -0.24 5291
0.04 0.00 -1.37 -2.33 12.26 -0.65 1.53 -0.21 5297
0.04 -0.00 -1.23 -2.37 12.10 -0.64 1.45 -0.13 5303
0.04 -0.00 -1.15 -2.39 11.91 -0.61 1.39 -0.03 5309
0.04 0.00 -1.04 -2.42 11.72 -0.57 1.35 0.08 5315
0.03 -0.00 -1.00 -2.51 11.44 -0.52 1.34 0.21 5321
0.03 -0.00 -0.95 -2.61 11.29 -0.48 1.35 0.33 5328
0.04 0.00 -0.98 -2.75 11.23 -0.44 1.36 0.46 5335
0.04 -0.00 -1.07 -2.80 11.17 -0.41 1.38 0.59 5341
0.04 -0.00 -1.27 -2.87 11.02 -0.36 1.39 0.72 5347
0.03 -0.00 -1.37 -2.89 10.89 -0.31 1.39 0.84 5353
0.04 -0.00 -1.61 -2.91 10.75 -0.26 1.36 0.96 5359
0.03 -0.00 -1.72 -2.91 10.78 -0.21 1.33 1.02 5366
0.04 -0.00 -1.71 -2.88 10.86 -0.16 1.29 1.10 5372
0.06 -0.01 -1.66 -2.93 10.83 -0.12 1.26 1.16 5379
0.04 -0.00 -1.65 -3.19 10.78 -0.07 1.22 1.22 5385
0.04 -0.00 -1.54 -3.54 10.81 -0.03 1.19 1.25 5391
0.04 -0.00 -1.33 -3.82 11.05 0.03 1.14 1.24 5397
0.04 -0.00 -1.04 -3.93 11.18 0.02 1.10 1.23 5404
0.02 -0.00 -1.03 -4.02 11.04 0.00 1.08 1.20 5410
0.03 -0.00 -1.20 -4.17 10.85 -0.04 1.06 1.16 5416
0.04 -0.00 -1.34 -4.22 11.03 -0.08 1.05 1.07 5423
0.03 -0.00 -1.30 -4.17 11.22 -0.14 1.05 1.05 5429
0.03 -0.00 -1.56 -3.99 11.00 -0.19 1.08 1.00 5435
0.04 -0.00 -1.89 -3.79 10.70 -0.25 1.10 0.97 5441
0.04 -0.00 -2.26 -3.81 10.46 -0.29 1.07 0.95 5448
0.02 -0.00 -2.59 -3.83 10.09 -0.30 1.01 0.97 5454
0.03 -0.00 -2.80 -3.92 9.76 -0.30 0.93 1.01 5460
0.03 -0.00 -2.84 -4.03 9.53 -0.27 0.86 1.07 5467
0.03 -0.00 -2.85 -4.29 9.35 -0.22 0.77 1.14 5473
0.03 -0.00 -3.07 -4.62 9.34 -0.17 0.68 1.24 5479
0.04 -0.00 -3.59 -4.95 9.13 -0.12 0.61 1.34 5485
0.04 -0.00 -4.03 -5.29 9.09 -0.07 0.50 1.41 5491
0.04 -0.00 -4.45 -5.42 8.99 -0.04 0.38 1.46 5498
0.04 -0.00 -5.46 -5.48 8.70 -0.03 0.29 1.48 5505
0.04 0.00 -5.29 -5.43 8.61 -0.02 0.21 1.46 5511
0.05 -0.00 -5.65 -5.39 8.74 -0.02 0.20 1.43 5517
0.04 -0.00 -6.07 -5.47 8.71 -0.02 0.20 1.36 5523
0.04 -0.00 -6.64 -5.38 8.54 -0.01 0.21 1.27 5529
0.04 -0.00 -7.15 -5.16 8.21 -0.01 0.20 1.18 5535
0.05 -0.00 -7.52 -4.89 7.93 0.01 0.15 1.10 5541
0.05 -0.00 -7.65 -4.62 7.69 0.03 0.08 1.05 5548
0.04 -0.00 -7.42 -4.41 7.56 0.08 -0.05 1.04 5554
0.05 0.00 -12.88 -8.52 10.76 0.25 -0.62 1.07 5561
0.03 -0.00 -24.50 -9.06 15.78 1.20 -4.13 1.50 5567
0.04 -0.00 -7.76 -6.19 1.97 0.95 -4.28 1.68 5573
0.04 0.01 -0.58 -7.07 -1.19 0.60 -4.28 1.43 5579
0.04 0.02 -7.78 -1.61 12.29 0.86 -4.28 1.24 5585
0.02 0.22 -11.58 6.92 28.04 2.29 -2.91 1.35 5593
0.02 0.48 -17.84 -2.61 45.96 2.00 -2.51 1.00 5599
-0.00 0.69 -3.51 -1.61 18.49 0.30 -1.29 0.38 5605
0.03 0.77 -2.53 0.86 13.68 -0.02 -0.19 0.14 5611
0.04 0.70 -0.28 0.00 10.03 0.01 -0.13 -0.04 5618
0.01 0.60 1.16 -0.51 9.92 0.12 -0.08 0.03 5624
0.01 0.57 2.25 0.02 9.77 0.16 -0.03 0.18 5630
0.04 0.49 1.31 -0.31 10.18 0.12 -0.04 0.25 5637
0.04 0.47 0.54 -0.50 10.24 0.06 -0.10 0.21 5643
0.08 0.48 0.95 -0.91 9.45 0.04 -0.15 0.20 5649
0.07 0.46 0.49 -1.58 9.78 -0.03 -0.10 0.18 5656
0.07 0.48 0.02 -1.93 10.16 -0.07 -0.07 0.15 5662
0.08 0.51 0.43 -1.44 9.83 -0.10 -0.05 0.09 5668
0.11 0.52 0.47 -0.91 9.87 -0.14 -0.04 0.06 5675
0.10 0.58 0.60 -0.97 10.10 -0.16 -0.05 0.04 5681
0.07 0.64 0.54 -0.70 10.27 -0.15 -0.04 0.03 5687
0.11 0.72 0.49 -0.51 10.32 -0.12 -0.03 0.03 5694
0.09 0.73 0.57 -0.48 10.18 -0.08 -0.02 0.04 5700
0.11 0.73 0.65 -0.65 10.12 -0.06 -0.01 0.04 5706
0.13 0.75 0.70 -0.73 9.96 -0.05 -0.01 0.05 5712
0.11 0.75 0.71 -0.75 10.15 -0.05 -0.01 0.05 5719
0.10 0.74 0.72 -0.77 10.12 -0.05 -0.02 0.05 5726
0.11 0.77 0.78 -0.78 10.04 -0.04 -0.02 0.04 5732
0.11 0.76 0.71 -0.71 9.97 -0.04 -0.03 0.04 5738
0.10 0.75 0.67 -0.66 10.03 -0.04 -0.03 0.04 5744
0.11 0.78 0.66 -0.65 10.09 -0.04 -0.03 0.04 5750
0.11 0.77 0.69 -0.71 10.04 -0.03 -0.03 0.04 5757
0.09 0.78 0.69 -0.68 10.03 -0.03 -0.03 0.04 5764
0.11 0.75 0.68 -0.67 9.97 -0.03 -0.03 0.04 5770
0.10 0.76 0.66 -0.68 9.96 -0.03 -0.03 0.04 5776
0.09 0.75 0.67 -0.64 9.93 -0.03 -0.02 0.04 5782
0.09 0.75 0.71 -0.69 10.03 -0.02 -0.03 0.07 5788
0.12 0.70 0.71 -0.68 10.04 -0.02 -0.02 0.03 5795
0.11 0.69 0.72 -0.66 10.00 -0.02 -0.02 0.03 5801
0.11 0.69 0.69 -0.65 10.06 -0.01 -0.02 0.03 5808
0.11 0.69 0.71 -0.66 10.05 -0.01 -0.03 0.03 5814
0.10 0.68 0.69 -0.69 10.07 -0.01 -0.02 0.03 5820
0.12 0.68 0.66 -0.67 10.05 -0.02 -0.02 0.03 5826
0.13 0.67 0.67 -0.71 9.98 -0.02 -0.02 0.02 5833
0.10 0.67 0.69 -0.66 10.01 -0.02 -0.02 0.02 5839
0.08 0.68 0.73 -0.67 10.01 -0.01 -0.02 0.03 5846
0.09 0.67 0.69 -0.64 10.02 -0.01 -0.01 0.03 5852
0.10 0.65 0.69 -0.63 10.03 -0.01 -0.01 0.03 5858
0.11 0.65 0.71 -0.68 10.12 -0.01 -0.01 0.03 5865
0.12 0.64 0.72 -0.66 10.02 -0.00 -0.01 0.03 5871
0.10 0.62 0.73 -0.67 10.08 -0.00 -0.01 0.03 5877
0.11 0.63 0.73 -0.69 10.03 -0.01 -0.01 0.03 5883
0.10 0.62 0.71 -0.66 10.03 -0.00 -0.01 0.02 5890
0.09 0.63 0.70 -0.68 10.02 -0.01 -0.01 0.03 5897
0.11 0.64 0.70 -0.66 10.01 -0.00 -0.01 0.03 5903
0.11 0.64 0.73 -0.67 10.01 -0.01 -0.01 0.02 5909
0.09 0.64 0.69 -0.67 10.01 -0.01 -0.01 0.02 5915
0.10 0.64 0.69 -0.66 10.03 -0.01 -0.01 0.02 5921
0.08 0.63 0.71 -0.70 9.95 -0.01 -0.01 0.03 5927
0.06 0.63 0.71 -0.65 10.02 -0.01 -0.01 0.02 5935
0.05 0.64 0.68 -0.68 10.00 -0.01 -0.01 0.02 5941
-0.00 0.66 0.72 -0.65 10.03 -0.01 -0.00 0.03 5947
0.07 0.65 0.70 -0.67 9.94 -0.01 -0.00 0.02 5953
0.07 0.67 0.75 -0.65 9.98 -0.01 0.00 0.02 5959
0.08 0.68 0.71 -0.64 10.01 -0.01 -0.01 0.02 5965
0.05 0.68 0.74 -0.67 10.02 -0.01 -0.01 0.02 5972
0.08 0.69 0.72 -0.63 9.99 -0.01 -0.01 0.02 5979
0.09 0.70 0.69 -0.66 9.98 -0.01 -0.01 0.03 5985
0.07 0.70 0.71 -0.65 9.97 -0.01 -0.00 0.03 5991
0.05 0.71 0.73 -0.63 10.00 -0.02 -0.01 0.03 5997
0.05 0.71 0.76 -0.66 10.02 -0.02 -0.01 0.03 6003
0.04 0.71 0.75 -0.64 10.01 -0.01 -0.01 0.02 6010
0.03 0.74 0.76 -0.66 10.02 -0.01 -0.01 0.03 6017
0.03 0.75 0.72 -0.65 10.03 -0.01 -0.01 0.02 6023
0.04 0.76 0.73 -0.64 10.01 -0.02 -0.02 0.03 6029
0.03 0.78 0.71 -0.60 9.98 -0.02 -0.02 0.03 6035
0.04 0.78 0.72 -0.62 9.97 -0.01 -0.02 0.03 6041
0.04 0.79 0.74 -0.65 9.99 -0.02 -0.02 0.03 6048
0.03 0.77 0.73 -0.60 9.94 -0.02 -0.02 0.02 6054
0.04 0.77 0.75 -0.62 10.00 -0.01 -0.02 0.03 6061
0.05 0.76 0.76 -0.03 9.97 -0.02 -0.02 0.03 6067
0.03 0.76 0.79 -0.63 9.95 -0.02 -0.03 0.03 6073
0.02 0.75 0.76 -0.65 9.98 -0.02 -0.03 0.02 6079
0.05 0.75 0.74 -0.61 9.96 -0.02 -0.03 0.02 6085
0.06 0.74 0.74 -0.63 10.02 -0.02 -0.03 0.02 6092
0.04 0.74 0.68 -0.63 10.01 -0.02 -0.03 0.03 6098
0.05 0.76 0.81 -0.61 9.96 -0.02 -0.03 0.02 6105
0.05 0.75 0.76 -0.64 9.94 -0.02 -0.04 0.03 6111
0.03 0.74 0.71 -0.67 9.98 -0.02 -0.04 0.03 6117
0.03 0.75 0.73 -0.64 10.06 -0.02 -0.04 0.02 6123
0.06 0.75 0.74 -0.61 10.02 -0.02 -0.04 0.02 6130
0.05 0.74 0.73 -0.61 9.98 -0.02 -0.04 0.02 6136
0.03 0.74 0.78 -0.60 10.03 -0.02 -0.04 0.02 6142
0.04 0.76 0.77 -0.58 10.01 -0.02 -0.04 0.02 6149
0.04 0.75 0.72 -0.63 10.02 -0.02 -0.05 0.02 6155
0.03 0.75 0.73 -0.61 10.01 -0.02 -0.05 0.02 6161
0.05 0.76 0.75 -0.64 10.04 -0.02 -0.05 0.02 6168
0.02 0.75 0.77 -0.60 10.03 -0.02 -0.05 0.02 6174
0.03 0.75 0.77 -0.64 9.98 -0.02 -0.06 0.02 6180
0.04 0.76 0.73 -0.64 10.00 -0.02 -0.05 0.03 6187
0.04 0.76 0.73 -1.23 9.97 -0.02 -0.06 0.03 6193
0.03 0.75 0.73 -0.64 9.99 -0.02 -0.06 0.02 6199
0.02 0.77 0.68 -0.63 10.02 -0.01 -0.05 0.03 6206
0.04 0.76 0.68 -0.65 9.99 -0.02 -0.05 0.03 6212
0.04 0.75 0.72 -0.56 10.05 -0.01 -0.04 0.03 6218
0.06 0.76 0.72 -0.64 10.00 -0.00 -0.05 0.03 6224
0.07 0.75 0.76 -0.61 10.01 0.03 -0.04 0.03 6231
0.08 0.73 0.72 -0.65 10.04 0.00 -0.04 0.03 6237
0.07 0.72 0.65 -0.63 10.00 0.00 -0.04 0.03 6244
0.06 0.72 0.70 -0.59 10.00 0.01 -0.04 0.03 6250
0.05 0.67 0.71 -1.21 10.03 0.01 -0.04 0.03 6256
0.06 0.65 0.70 -0.63 9.94 0.02 -0.04 0.03 6262
0.08 0.58 0.70 -0.64 9.97 0.02 -0.04 0.02 6268
0.06 0.55 0.73 -0.62 10.02 0.02 -0.03 0.02 6275
0.04 0.49 0.82 -0.59 10.01 0.03 -0.03 0.01 6282
0.10 0.40 0.78 -0.56 10.05 0.04 -0.03 0.01 6288
0.09 0.33 0.83 -0.61 10.03 0.05 -0.02 0.00 6294
0.08 0.25 0.80 -0.64 10.11 0.06 -0.02 0.00 6300
0.09 0.17 0.83 -0.58 10.06 0.08 -0.02 -0.01 6306
0.11 0.09 0.83 -0.71 10.15 0.10 -0.02 -0.01 6312
0.11 0.07 0.78 -0.71 10.13 0.12 -0.02 -0.01 6320
0.13 0.03 0.81 -0.70 10.25 0.15 -0.03 -0.01 6326
0.12 0.01 0.85 -0.75 10.26 0.18 -0.04 -0.01 6332
0.13 -0.01 0.97 -0.68 10.32 0.23 -0.06 -0.03 6338
0.16 -0.02 1.15 -0.82 10.60 0.29 -0.09 -0.06 6344
0.17 -0.02 1.42 -1.00 10.59 0.40 -0.12 -0.12 6351
0.18 -0.02 2.12 -1.13 11.05 0.53 -0.13 -0.23 6358
0.21 -0.01 3.12 -1.40 11.17 0.75 -0.15 -0.40 6364
0.22 -0.02 3.64 -1.83 13.26 1.15 -0.23 -0.59 6370
0.23 -0.02 3.12 -1.93 14.37 1.60 -0.45 -0.77 6376
0.27 -0.02 3.10 -1.97 13.63 1.91 -0.70 -0.88 6383
0.27 -0.02 4.10 -2.42 13.45 2.02 -0.90 -1.03 6389
0.29 -0.03 5.05 -2.87 13.21 2.10 -1.00 -1.23 6395
0.27 -0.02 5.32 -3.17 12.58 2.17 -1.01 -1.44 6402
0.23 -0.02 5.87 -3.56 12.26 2.22 -1.02 -1.66 6408
0.18 -0.02 5.89 -3.68 11.75 2.24 -0.99 -1.87 6415
0.22 -0.01 6.78 -3.97 12.05 2.21 -0.93 -2.05 6421
0.17 -0.02 7.13 -3.94 12.11 2.14 -0.77 -2.27 6427
0.10 -0.01 7.22 -3.67 12.12 2.01 -0.62 -2.46 6433
0.07 -0.01 5.65 -3.59 13.69 1.83 -0.46 -2.63 6439
0.05 -0.01 5.31 -3.37 14.15 1.64 -0.45 -2.79 6447
0.05 -0.00 4.31 -3.24 15.14 1.49 -0.59 -2.90 6453
0.06 -0.01 4.33 -2.92 14.83 1.34 -0.81 -2.98 6459
0.07 -0.01 4.61 -3.03 14.23 1.21 -1.12 -3.06 6465
0.07 -0.01 4.39 -1.84 12.71 1.00 -1.48 -3.14 6471
0.10 -0.01 5.11 -0.69 12.14 0.76 -1.81 -3.24 6477
0.07 -0.01 5.57 -0.38 11.27 0.50 -2.20 -3.31 6484
0.07 -0.01 6.45 0.90 10.22 0.27 -2.51 -3.32 6491
0.06 -0.01 9.30 3.72 8.53 0.06 -2.63 -3.15 6497
0.03 -0.00 11.09 3.39 7.26 -0.12 -2.41 -2.60 6503
0.04 -0.00 11.85 1.33 7.80 -0.26 -1.91 -1.89 6509
0.04 0.01 13.46 1.04 9.90 -0.45 -1.49 -1.33 6515
0.06 -0.01 13.23 1.81 8.33 -0.60 -1.32 -0.88 6522
0.04 -0.00 11.75 2.02 7.01 -0.65 -1.17 -0.45 6529
0.06 -0.01 10.75 2.01 5.64 -0.62 -0.93 -0.05 6535
0.04 -0.00 10.51 2.02 4.85 -0.55 -0.71 0.30 6541
0.04 -0.00 10.34 2.04 5.05 -0.43 -0.47 0.56 6547
0.05 -0.00 10.23 2.10 5.53 -0.31 -0.16 0.73 6553
0.06 -0.01 9.82 2.06 6.19 -0.19 0.23 0.87 6559
0.05 -0.00 9.21 2.10 6.64 -0.10 0.66 0.97 6566
0.05 -0.01 8.12 2.12 7.18 -0.06 1.02 1.01 6573
0.05 -0.01 6.80 2.10 7.80 -0.05 1.29 1.02 6579
0.05 -0.01 5.10 2.06 8.65 -0.06 1.42 1.01 6585
0.04 -0.00 4.58 2.02 9.55 -0.11 1.49 0.99 6591
0.03 -0.00 3.84 2.09 10.11 -0.18 1.49 0.96 6597
0.04 -0.00 3.43 2.06 10.97 -0.29 1.46 0.93 6603
0.05 -0.01 3.03 2.07 11.59 -0.44 1.45 0.89 6609
0.05 -0.00 2.63 1.93 11.84 -0.61 1.46 0.84 6616
0.03 -0.00 2.29 1.71 11.96 -0.74 1.47 0.78 6623
0.04 -0.00 2.00 1.36 11.95 -0.88 1.49 0.70 6629
0.04 -0.00 1.56 0.91 11.81 -0.99 1.50 0.60 6635
0.03 -0.00 1.20 0.46 11.67 -1.07 1.51 0.45 6641
0.03 0.00 0.93 0.00 12.25 -1.11 1.51 0.32 6647
0.05 -0.00 0.86 -0.44 11.71 -1.14 1.54 0.13 6653
0.04 -0.00 0.88 -0.79 11.81 -1.15 1.57 -0.06 6661
0.04 -0.00 0.96 -0.97 11.97 -1.16 1.62 -0.25 6667
0.05 -0.01 1.02 -1.09 11.95 -1.16 1.68 -0.42 6673
0.03 -0.00 1.07 -1.23 11.79 -1.16 1.73 -0.56 6679
0.04 -0.00 1.19 -1.45 11.80 -1.15 1.75 -0.67 6685
0.05 -0.00 1.23 -1.66 11.92 -1.13 1.78 -0.74 6691
0.03 -0.00 1.34 -1.87 12.11 -1.09 1.82 -0.79 6699
0.03 -0.00 1.44 -1.91 12.19 -1.04 1.88 -0.83 6705
0.03 -0.00 1.43 -2.04 12.12 -0.98 1.94 -0.80 6711
0.04 -0.00 1.12 -2.19 12.06 -0.92 1.99 -0.77 6717
0.04 -0.00 0.85 -2.26 12.16 -0.86 1.99 -0.74 6723
0.04 -0.00 0.63 -2.22 12.18 -0.80 1.98 -0.68 6729
0.04 -0.00 0.47 -2.10 12.16 -0.70 1.96 -0.59 6735
0.04 -0.00 0.32 -1.82 12.24 -0.67 1.96 -0.47 6743
0.04 -0.00 0.22 -1.48 12.38 -0.59 1.96 -0.31 6749
0.06 -0.01 -0.11 -1.14 12.36 -0.52 1.98 -0.10 6755
0.03 -0.00 -0.82 -0.79 12.34 -0.44 2.00 0.19 6761
0.03 -0.00 -1.76 -0.46 12.25 -0.36 2.00 0.45 6767
0.05 0.00 -2.71 -0.14 12.30 -0.28 1.93 0.82 6773
0.05 -0.00 -3.51 0.01 12.35 -0.22 1.80 1.21 6780
0.03 -0.00 -4.10 0.16 12.46 -0.19 1.61 1.59 6787
0.05 0.00 -4.46 0.10 12.37 -0.18 1.39 1.93 6793
0.05 -0.00 -4.43 -0.07 12.28 -0.23 1.15 2.21 6799
0.04 -0.00 -4.14 -0.58 12.17 -0.24 0.94 2.40 6805
0.04 0.00 -3.79 -1.16 12.10 -0.28 0.80 2.51 6811
0.05 -0.00 -3.52 -1.95 11.89 -0.32 0.71 2.54 6818
0.05 -0.00 -3.35 -2.77 11.43 -0.35 0.70 2.50 6824
0.04 -0.00 -3.24 -3.82 11.24 -0.35 0.75 2.38 6831
0.05 -0.01 -3.33 -4.80 11.26 -0.35 0.83 2.20 6837
0.04 -0.00 -3.73 -5.60 11.14 -0.32 0.89 1.99 6843
0.04 -0.00 -4.26 -6.11 10.89 -0.28 0.91 1.80 6849
0.05 -0.01 -4.79 -6.34 10.64 -0.24 0.85 1.63 6856
0.04 -0.00 -5.45 -6.71 10.57 -0.17 0.70 1.50 6862
0.03 -0.00 -8.68 -8.75 11.63 -0.12 0.24 1.44 6868
0.05 -0.00 -7.91 -6.65 10.31 0.02 -0.33 1.45 6875
0.04 -0.00 -7.07 -8.01 7.89 0.02 -0.54 1.47 6881
0.03 -0.00 -4.66 -6.34 8.34 0.12 -0.94 1.49 6887
0.04 -0.00 -7.09 -10.64 9.98 0.18 -1.13 1.49 6893
0.05 -0.00 -5.42 -8.83 8.68 0.38 -1.24 1.49 6900
0.03 -0.00 -4.06 -9.54 5.95 0.52 -1.18 1.49 6906
0.03 -0.00 -3.73 -10.68 7.99 0.67 -1.10 1.52 6913
0.04 0.00 -4.82 -11.12 10.06 0.86 -1.29 1.56 6919
0.03 -0.00 -5.44 -9.99 8.38 1.00 -1.35 1.61 6925
0.03 -0.00 -5.18 -9.59 9.28 1.09 -1.65 1.70 6931
0.03 -0.00 -6.79 -11.33 8.28 1.03 -1.78 1.79 6937
0.03 -0.00 -9.37 -11.29 8.05 1.06 -2.59 1.89 6944
0.03 -0.00 -9.99 -11.94 5.85 0.92 -3.10 1.94 6950
0.03 -0.00 -10.20 -13.63 6.86 0.86 -3.93 1.88 6957
0.04 0.03 -11.61 -14.49 9.20 0.95 -4.28 1.79 6963
0.04 0.13 -18.55 1.78 38.06 1.64 -3.66 1.64 6970
0.03 0.30 -14.60 -2.62 22.80 0.53 -2.26 0.98 6976
0.03 0.34 -4.08 -2.60 12.66 -0.16 -0.32 0.27 6982
0.02 0.46 -2.87 -0.46 11.01 -0.25 -0.22 -0.03 6988
0.04 0.47 0.09 0.04 10.61 -0.08 -0.11 -0.10 6994
0.02 0.48 1.79 0.02 10.00 0.06 -0.04 0.02 7002
0.02 0.49 1.42 -0.02 9.98 0.08 -0.02 0.11 7008
0.04 0.47 0.58 -0.55 10.27 0.07 -0.07 0.11 7014
0.05 0.47 0.34 -0.66 9.96 0.05 -0.06 0.10 7020
0.05 0.49 0.47 -1.21 9.85 0.05 -0.05 0.09 7026
0.09 0.46 0.41 -0.68 10.00 0.02 -0.04 0.11 7032
0.09 0.47 0.49 -1.43 9.98 -0.02 -0.05 0.11 7040
0.08 0.42 0.45 -1.42 9.88 -0.04 -0.04 0.10 7046
0.08 0.42 0.40 -0.92 9.79 -0.08 -0.04 0.09 7052
0.10 0.43 0.46 -0.85 9.87 -0.12 -0.04 0.08 7058
0.11 0.47 0.69 -0.98 10.10 -0.14 -0.04 0.06 7064
0.13 0.51 0.68 -0.82 10.03 -0.13 -0.04 0.05 7070
0.17 0.52 0.61 -0.72 10.29 -0.11 -0.05 0.04 7077
0.13 0.53 0.52 -0.73 10.18 -0.10 -0.04 0.04 7084
0.13 0.55 0.52 -0.85 10.17 -0.09 -0.04 0.04 7090
0.15 0.60 0.63 -0.81 10.09 -0.08 -0.03 0.04 7096
0.13 0.65 0.58 -0.87 10.15 -0.08 -0.04 0.04 7102
0.14 0.69 0.63 -0.88 10.09 -0.08 -0.04 0.04 7109
0.14 0.67 0.66 -0.79 10.11 -0.07 -0.04 0.04 7115
0.14 0.69 0.65 -0.78 10.07 -0.06 -0.04 0.04 7121
0.15 0.75 0.63 -0.78 10.12 -0.05 -0.03 0.04 7128
0.15 0.74 0.63 -0.75 10.09 -0.04 -0.03 0.04 7134
0.14 0.75 0.63 -0.78 10.04 -0.03 -0.03 0.04 7141
0.16 0.73 0.63 -0.74 10.01 -0.02 -0.03 0.04 7147
0.12 0.76 0.60 -0.71 10.01 -0.02 -0.03 0.04 7153
0.12 0.79 0.61 -0.76 10.03 -0.02 -0.03 0.04 7159
0.14 0.82 0.61 -0.72 9.99 -0.01 -0.02 0.04 7165
0.12 0.82 0.63 -0.72 10.10 -0.01 -0.02 0.03 7173
0.09 0.84 0.62 -0.73 10.05 -0.01 -0.01 0.03 7179
0.11 0.85 0.58 -0.72 9.92 -0.01 -0.01 0.03 7185
0.09 0.84 0.60 -0.67 9.91 -0.01 -0.00 0.03 7191
0.08 0.82 0.64 -0.70 9.99 -0.01 0.00 0.03 7197
0.10 0.83 0.65 -0.70 10.01 -0.00 0.01 0.03 7203
0.11 0.82 0.61 -0.73 10.00 0.00 0.01 0.03 7209
0.10 0.79 0.61 -0.72 9.97 -0.00 0.01 0.03 7217
0.10 0.78 0.64 -0.69 10.03 0.03 0.02 0.03 7223
0.11 0.79 0.63 -0.69 10.05 0.01 0.02 0.03 7229
0.10 0.76 0.63 -0.72 10.03 0.01 0.02 0.03 7235
0.10 0.74 0.66 -0.71 10.03 0.01 0.02 0.03 7241
0.11 0.73 0.67 -0.74 9.97 0.01 0.03 0.03 7247
0.10 0.70 0.65 -0.75 10.04 0.01 0.03 0.03 7255
0.10 0.68 0.61 -0.72 9.95 0.01 0.04 0.03 7261
0.09 0.68 0.66 -0.73 10.06 0.01 0.04 0.03 7267
0.09 0.66 0.65 -0.73 10.01 0.01 0.04 0.03 7273
0.09 0.64 0.68 -0.72 9.98 0.01 0.04 0.03 7279
0.09 0.64 0.69 -0.72 9.98 0.01 0.04 0.03 7285
0.10 0.61 0.72 -0.74 10.01 0.01 0.00 0.03 7292
0.09 0.60 0.70 -0.73 10.03 0.01 0.03 0.03 7299
0.08 0.59 0.70 -0.72 9.96 0.00 0.03 0.03 7305
0.09 0.58 0.73 -0.72 9.99 0.00 0.02 0.03 7311
0.08 0.51 0.76 -0.68 10.00 0.01 0.02 0.03 7317
0.07 0.51 0.69 -0.73 9.97 0.01 0.02 0.02 7323
0.07 0.50 0.69 -0.72 9.97 0.01 0.01 0.03 7329
0.09 0.50 0.74 -0.73 9.99 0.01 0.02 0.03 7335
0.10 0.51 0.74 -0.76 9.97 0.00 0.01 0.02 7343
0.09 0.48 0.69 -0.77 10.04 0.01 0.00 0.02 7349
0.09 0.49 0.70 -0.73 10.00 -0.00 0.00 0.03 7355
0.08 0.47 0.71 -0.77 9.96 -0.00 -0.00 0.03 7361
0.07 0.46 0.72 -0.77 10.00 -0.00 0.00 0.03 7367
0.09 0.48 0.75 -0.73 9.96 -0.01 0.00 0.02 7373
0.10 0.47 0.74 -0.73 10.00 -0.01 0.00 0.03 7380
0.10 0.44 0.75 -0.77 9.97 -0.01 -0.00 0.03 7387
0.10 0.45 0.76 -0.73 9.99 -0.01 -0.00 0.02 7393
0.11 0.46 0.74 -0.72 9.96 -0.00 -0.01 0.02 7399
0.10 0.46 0.71 -0.73 10.04 -0.00 -0.01 0.02 7405
0.10 0.44 0.78 -0.74 9.97 -0.01 -0.01 0.02 7411
0.11 0.43 0.79 -0.74 9.99 -0.00 -0.02 0.02 7417
0.11 0.41 0.79 -0.75 10.02 -0.01 -0.02 0.02 7425
0.09 0.41 0.78 -0.73 10.00 -0.00 -0.02 0.02 7431
0.11 0.44 0.78 -0.75 10.00 -0.00 -0.03 0.02 7437
0.11 0.42 0.78 -0.77 9.97 -0.00 -0.03 0.02 7443
0.10 0.37 0.79 -0.76 10.02 -0.01 -0.02 0.02 7449
0.09 0.36 0.75 -0.75 9.98 -0.01 -0.02 0.01 7455
0.11 0.31 0.69 -0.72 9.98 -0.00 -0.02 0.02 7462
0.11 0.32 0.76 -0.83 10.03 -0.00 -0.01 0.02 7469
0.10 0.32 0.77 -0.73 9.92 -0.00 -0.01 0.02 7475
0.13 0.27 0.73 -0.75 9.98 0.00 -0.01 0.02 7481
0.11 0.28 0.73 -0.73 9.97 -0.01 -0.01 0.02 7487
0.09 0.27 0.78 -0.74 10.00 -0.01 -0.02 0.02 7493
0.10 0.30 0.77 -0.77 9.99 -0.00 -0.02 0.02 7499
0.11 0.29 0.72 -0.75 9.97 -0.01 -0.03 0.02 7506
0.11 0.27 0.76 -0.74 10.01 -0.01 -0.03 0.02 7513
0.10 0.29 0.75 -0.75 9.96 -0.02 -0.04 0.02 7519
0.11 0.28 0.74 -0.73 10.00 -0.02 -0.04 0.02 7525
0.09 0.27 0.76 -0.73 9.99 -0.02 -0.04 0.02 7531
0.08 0.28 0.79 -0.75 10.02 -0.02 -0.05 0.02 7537
0.09 0.28 0.77 -0.75 9.99 -0.02 -0.05 0.02 7544
0.09 0.29 0.72 -0.78 9.94 -0.03 -0.06 0.02 7550
0.08 0.31 0.77 -0.77 9.98 -0.02 -0.06 0.03 7557
0.09 0.33 0.77 -0.74 10.00 -0.03 -0.07 0.02 7563
0.11 0.32 0.76 -0.74 10.00 -0.02 -0.06 0.02 7569
0.10 0.33 0.73 -0.72 9.96 -0.03 -0.06 0.02 7575
0.10 0.33 0.75 -0.71 10.04 -0.03 -0.06 0.02 7582
0.10 0.34 0.74 -0.73 10.09 -0.02 -0.06 0.02 7588
0.10 0.34 0.72 -0.70 10.05 -0.02 -0.05 0.02 7595
0.10 0.36 0.69 -0.74 9.96 -0.02 -0.04 0.02 7601
0.11 0.33 0.69 -0.74 9.98 -0.01 -0.03 0.01 7607
0.10 0.31 0.70 -0.71 10.03 -0.00 -0.03 0.01 7613
0.10 0.30 0.71 -0.72 10.02 0.01 -0.02 0.01 7620
0.11 0.26 0.70 -0.73 10.03 0.01 -0.02 0.01 7626
0.11 0.22 0.70 -0.72 10.03 0.02 -0.02 0.01 7632
0.11 0.20 0.74 -0.70 10.02 0.02 -0.02 0.01 7639
0.11 0.18 0.79 -0.77 10.01 0.03 -0.02 0.01 7645
0.10 0.10 0.81 -0.77 10.05 0.04 -0.02 0.01 7651
0.11 0.11 0.83 -0.74 10.06 0.05 -0.02 0.00 7658
0.15 0.07 0.78 -0.79 10.06 0.06 -0.03 0.00 7664
0.16 0.04 0.85 -0.74 10.14 0.08 -0.03 0.00 7670
0.15 0.04 0.82 -0.81 10.16 0.11 -0.03 -0.00 7676
0.16 0.01 0.85 -0.80 10.20 0.14 -0.04 -0.00 7683
0.17 -0.02 0.67 -0.90 10.59 0.16 -0.07 -0.00 7690
0.18 -0.02 1.07 -1.25 10.51 0.19 -0.08 -0.01 7696
0.20 -0.02 1.00 -0.93 10.45 0.25 -0.09 -0.04 7702
0.20 -0.02 1.11 -1.05 10.72 0.34 -0.11 -0.08 7708
0.22 -0.02 1.60 -1.21 11.29 0.50 -0.11 -0.16 7714
0.24 -0.02 2.31 -1.16 12.15 0.74 -0.08 -0.32 7720
0.27 -0.03 2.57 -1.48 13.99 1.17 -0.07 -0.47 7728
0.33 -0.03 2.74 -1.58 14.73 1.74 -0.19 -0.59 7734
0.31 -0.02 2.67 -1.72 14.67 2.11 -0.43 -0.72 7740
0.32 -0.03 3.89 -2.25 13.71 2.23 -0.73 -0.85 7746
0.31 -0.02 4.85 -2.97 13.93 2.29 -0.96 -1.03 7752
0.34 -0.03 6.14 -3.49 13.53 2.38 -1.04 -1.28 7759
0.23 -0.02 7.57 -3.98 12.97 2.41 -1.04 -1.56 7766
0.23 -0.01 7.13 -3.82 12.83 2.37 -1.01 -1.83 7772
0.16 -0.01 8.71 -4.68 11.95 2.30 -0.97 -2.06 7778
0.10 -0.01 9.63 -4.82 11.81 2.26 -0.73 -2.31 7785
0.10 -0.00 9.25 -4.27 13.07 2.10 -0.35 -2.59 7791
0.09 -0.01 9.19 -3.71 14.70 1.79 -0.15 -2.84 7797
0.07 -0.01 6.27 -3.59 14.84 1.60 -0.08 -3.05 7803
0.06 -0.01 6.31 -3.44 14.49 1.44 -0.19 -3.23 7810
0.07 -0.01 5.10 -2.25 13.93 1.31 -0.38 -3.33 7816
0.06 -0.01 5.40 -1.80 13.19 1.13 -0.66 -3.39 7823
0.06 0.00 5.15 -0.61 12.59 0.90 -1.01 -3.50 7829
0.07 -0.01 5.26 0.46 10.88 0.67 -1.38 -3.52 7835
0.07 -0.01 6.25 3.16 9.41 0.44 -1.73 -3.50 7841
0.07 -0.01 8.62 5.93 7.83 0.24 -1.95 -3.32 7847
0.08 -0.01 9.45 5.51 6.53 0.01 -1.87 -2.83 7854
0.05 -0.01 9.56 4.40 7.68 -0.16 -1.38 -2.22 7860
0.05 -0.00 11.05 4.98 9.05 -0.44 -1.03 -1.74 7867
0.05 0.00 11.05 5.24 7.85 -0.63 -0.88 -1.37 7873
0.05 -0.00 9.68 4.64 6.39 -0.65 -0.79 -1.04 7879
0.05 -0.00 8.61 4.01 5.15 -0.57 -0.60 -0.85 7885
0.05 -0.01 8.10 3.53 4.40 -0.45 -0.38 -0.66 7891
0.06 -0.01 7.71 3.25 4.28 -0.31 -0.17 -0.55 7898
0.05 -0.01 7.32 3.13 4.68 -0.20 0.07 -0.52 7904
0.06 -0.01 6.84 3.16 5.37 -0.08 0.32 -0.53 7910
0.05 -0.01 6.28 3.39 6.24 0.00 0.55 -0.54 7916
0.05 -0.01 5.62 3.66 7.36 0.05 0.83 -0.53 7923
0.06 -0.01 5.10 3.96 8.71 0.02 1.13 -0.51 7929
0.05 -0.01 4.31 3.89 9.80 -0.07 1.36 -0.48 7936
0.05 -0.01 3.40 3.73 10.45 -0.20 1.49 -0.44 7942
0.07 -0.01 2.46 3.41 11.08 -0.40 1.50 -0.39 7948
0.06 -0.01 1.23 2.92 11.57 -0.60 1.43 -0.35 7954
0.05 -0.01 1.19 2.34 11.80 -0.79 1.28 -0.30 7960
0.07 0.00 0.94 1.66 11.68 -0.95 1.12 -0.24 7967
0.05 -0.01 1.13 1.19 11.60 -1.06 0.99 -0.25 7973
0.04 -0.00 1.48 0.73 11.38 -1.13 0.93 -0.25 7980
0.05 -0.00 1.90 0.14 11.24 -1.18 0.96 -0.27 7986
0.05 -0.00 2.20 -0.42 11.28 -1.21 1.04 -0.32 7992
0.05 -0.01 2.29 -0.90 11.32 -1.23 1.13 -0.36 7998
0.05 -0.00 2.15 -1.20 11.33 -1.21 1.20 -0.39 8005
0.05 -0.01 2.10 -1.54 11.28 -1.17 1.26 -0.38 8011
0.05 -0.01 2.12 -1.62 11.29 -1.13 1.26 -0.35 8017
0.05 -0.01 2.31 -1.61 11.19 -1.08 1.24 -0.31 8024
0.06 -0.01 2.55 -1.62 11.13 -1.04 1.24 -0.26 8030
0.04 -0.00 2.88 -1.80 11.15 -1.00 1.26 -0.22 8036
0.04 -0.00 3.24 -2.01 11.47 -0.97 1.30 -0.18 8043
0.06 -0.01 3.49 -2.12 11.66 -0.93 1.38 -0.16 8049
0.04 -0.00 3.59 -2.17 11.92 -0.88 1.50 -0.14 8055
0.05 -0.00 3.57 -2.13 12.27 -0.85 1.65 -0.12 8061
0.06 -0.01 3.22 -2.12 12.49 -0.83 1.80 -0.07 8068
0.04 -0.00 2.74 -2.22 12.68 -0.82 1.90 -0.02 8074
0.04 -0.00 2.11 -2.39 12.95 -0.80 1.94 0.05 8081
0.06 -0.00 1.55 -2.59 13.06 -0.78 1.92 0.11 8087
0.05 -0.01 1.01 -2.76 12.88 -0.75 1.83 0.18 8093
0.05 -0.01 0.80 -2.78 12.68 -0.72 1.70 0.24 8099
0.05 -0.00 0.84 -2.70 12.43 -0.69 1.57 0.29 8105
0.05 -0.01 0.92 -2.77 12.06 -0.66 1.48 0.34 8112
0.04 -0.00 0.98 -2.81 11.66 -0.62 1.47 0.37 8119
0.04 -0.00 0.89 -2.78 11.22 -0.56 1.52 0.41 8125
0.05 -0.01 0.44 -2.73 10.97 -0.50 1.61 0.47 8131
0.06 -0.01 -0.13 -2.62 10.82 -0.41 1.69 0.54 8137
0.05 -0.01 -0.71 -2.42 10.84 -0.31 1.72 0.63 8143
0.06 -0.01 -1.06 -2.04 11.02 -0.22 1.72 0.75 8150
0.04 -0.00 -1.45 -1.80 11.32 -0.15 1.68 0.90 8157
0.03 -0.00 -1.80 -1.54 11.41 -0.10 1.61 1.01 8163
0.04 -0.00 -2.07 -1.40 11.44 -0.06 1.50 1.15 8169
0.05 -0.01 -2.33 -1.52 11.44 -0.03 1.39 1.29 8175
0.05 -0.01 -2.56 -1.85 11.51 0.00 1.29 1.38 8181
0.04 0.00 -2.68 -2.22 11.66 0.02 1.20 1.43 8187
0.05 -0.01 -2.72 -2.54 11.50 0.01 1.11 1.44 8195
0.04 -0.00 -2.75 -2.69 11.26 -0.01 1.02 1.42 8201
0.04 -0.00 -2.65 -3.02 11.06 -0.05 0.96 1.36 8207
0.05 -0.00 -2.55 -3.37 10.78 -0.10 0.91 1.26 8213
0.04 -0.00 -2.57 -3.71 10.46 -0.14 0.88 1.11 8219
0.04 -0.00 -2.91 -3.95 9.89 -0.16 0.89 1.02 8225
0.05 -0.00 -3.51 -4.08 9.24 -0.13 0.93 0.89 8231
0.04 -0.00 -4.17 -4.23 8.78 -0.06 0.98 0.79 8239
0.05 -0.00 -4.78 -4.36 8.52 0.01 1.00 0.70 8245
0.03 -0.00 -5.35 -4.40 8.47 0.11 0.99 0.64 8251
0.04 -0.00 -5.73 -4.38 8.65 0.19 0.95 0.60 8257
0.04 -0.00 -5.97 -4.57 9.07 0.26 0.89 0.59 8263
0.03 -0.00 -5.85 -4.88 9.55 0.30 0.81 0.59 8269
0.03 -0.00 -5.35 -5.10 10.27 0.28 0.71 0.58 8275
0.04 -0.00 -4.99 -5.42 10.62 0.22 0.63 0.58 8282
0.04 -0.00 -5.02 -5.84 10.31 0.16 0.57 0.58 8288
0.02 -0.00 -5.14 -6.39 9.87 0.09 0.49 0.59 8295
0.03 -0.00 -5.18 -6.89 9.32 0.07 0.38 0.59 8301
0.04 -0.00 -4.92 -7.10 8.69 0.09 0.21 0.60 8307
0.03 -0.00 -4.34 -7.01 8.13 0.15 0.06 0.63 8313
0.03 -0.00 -3.43 -6.57 7.66 0.24 -0.06 0.70 8320
0.02 -0.00 -3.47 -6.64 7.36 0.35 -0.14 0.81 8326
0.03 -0.00 -26.59 -15.25 22.73 1.00 -3.33 1.15 8332
0.04 -0.00 -13.22 -9.88 7.49 1.35 -4.04 1.56 8338
0.04 -0.00 -6.47 -9.39 -1.93 1.23 -4.28 1.76 8345
0.05 0.00 -8.60 -15.00 8.53 1.05 -4.28 1.69 8351
0.05 -0.00 -13.13 -3.27 12.00 0.42 -4.28 1.41 8357
0.04 0.03 -3.20 1.59 18.94 0.03 -4.28 1.08 8364
0.04 0.27 -23.25 11.09 61.50 1.12 -4.21 0.70 8371
0.02 0.52 3.89 1.37 8.82 0.18 -1.69 0.55 8377
0.02 0.68 -2.74 1.53 16.08 0.34 -1.73 0.49 8383
0.04 0.81 -2.28 1.45 10.52 0.09 -0.87 0.31 8389
0.01 0.82 -0.59 0.50 9.93 0.14 -0.36 0.26 8395
-0.01 0.79 -0.40 -0.38 10.53 0.20 -0.21 0.21 8402
0.03 0.73 0.97 -0.59 9.93 0.18 -0.14 0.23 8409
0.03 0.66 1.05 -1.63 10.53 0.13 -0.13 0.24 8415
0.03 0.66 0.47 -1.17 10.05 0.07 -0.13 0.23 8421
0.04 0.59 0.13 -2.03 10.04 0.03 -0.11 0.18 8427
0.04 0.62 0.06 -1.84 9.95 -0.01 -0.08 0.11 8433
0.05 0.65 0.33 -1.18 9.80 -0.06 -0.07 0.05 8440
0.06 0.73 0.26 -1.07 10.13 -0.09 -0.07 0.03 8446
0.05 0.74 0.41 -0.88 10.28 -0.10 -0.06 0.02 8453
0.06 0.86 0.37 -0.66 10.15 -0.07 -0.04 0.02 8459
0.06 0.84 0.39 -0.60 10.10 -0.04 -0.02 0.03 8465
0.05 0.85 0.49 -0.72 10.00 -0.03 -0.00 0.03 8471
0.06 0.85 0.66 -0.80 10.10 -0.03 -0.00 0.04 8478
0.06 0.85 0.63 -0.86 9.97 -0.03 -0.01 0.03 8484
0.06 0.86 0.64 -0.80 9.92 -0.03 -0.01 0.03 8491
0.06 0.86 0.63 -0.82 10.03 -0.03 -0.01 0.03 8497
0.09 0.84 0.66 -0.82 10.02 -0.03 -0.01 0.03 8503
0.09 0.84 0.65 -0.79 10.08 -0.03 -0.02 0.03 8509
0.09 0.84 0.62 -0.76 10.00 -0.02 -0.02 0.03 8516
0.11 0.82 0.64 -0.77 10.10 -0.02 -0.02 0.03 8522
0.10 0.80 0.67 -0.84 10.06 -0.02 -0.02 0.03 8528
0.10 0.80 0.64 -0.77 10.04 -0.02 -0.02 0.04 8535
0.12 0.81 0.66 -0.80 10.11 -0.01 -0.02 0.04 8541
0.11 0.79 0.61 -0.77 9.98 -0.01 -0.01 0.04 8548
0.11 0.80 0.65 -0.77 10.10 -0.01 -0.01 0.04 8554
0.09 0.80 0.67 -0.79 10.09 -0.01 -0.01 0.04 8560
0.10 0.80 0.63 -0.78 10.03 -0.01 -0.01 0.04 8566
0.09 0.82 0.64 -0.78 10.04 -0.01 -0.01 0.03 8572
0.11 0.83 0.63 -0.74 10.00 -0.01 -0.00 0.03 8580
0.09 0.79 0.64 -0.79 10.04 -0.01 -0.00 0.03 8586
0.07 0.79 0.63 -0.77 10.00 -0.01 -0.00 0.03 8592
0.08 0.78 0.66 -0.80 9.97 -0.00 -0.00 0.03 8598
0.07 0.78 0.62 -0.76 9.99 -0.00 0.00 0.03 8604
0.08 0.75 0.59 -0.77 9.98 -0.00 0.01 0.03 8610
0.07 0.76 0.63 -0.68 9.96 0.00 0.02 0.04 8616
0.07 0.72 0.66 -0.74 9.98 0.00 0.02 0.03 8623
0.07 0.70 0.64 -0.76 9.95 0.01 0.03 0.03 8630
0.06 0.67 0.66 -0.74 9.93 0.00 0.03 0.03 8636
0.09 0.66 0.64 -0.77 10.10 0.00 0.03 0.03 8642
0.09 0.62 0.64 -0.76 10.01 0.01 0.04 0.03 8648
0.09 0.59 0.66 -0.76 10.04 0.01 0.05 0.03 8654
0.08 0.61 0.65 -0.76 10.06 0.01 0.05 0.03 8660
0.07 0.57 0.73 -0.77 9.97 0.01 0.05 0.03 8668
0.06 0.56 0.69 -0.78 9.98 0.01 0.05 0.03 8674
0.05 0.52 0.70 -0.77 10.02 0.01 0.05 0.03 8680
0.09 0.49 0.72 -0.78 10.02 0.00 0.05 0.03 8686
0.07 0.53 0.74 -0.80 10.05 0.00 0.05 0.03 8692
0.07 0.54 0.75 -0.78 9.93 0.00 0.04 0.03 8698
0.07 0.52 0.72 -0.77 10.02 0.00 0.04 0.03 8705
0.06 0.51 0.73 -0.79 10.00 0.00 0.03 0.03 8712
0.03 0.44 0.74 -0.75 9.94 0.00 0.04 0.02 8718
0.06 0.45 0.71 -0.75 9.95 0.00 0.03 0.03 8724
0.07 0.44 0.74 -0.78 10.02 0.00 0.04 0.03 8730
0.07 0.43 0.75 -0.77 9.97 0.01 0.04 0.03 8736
0.07 0.39 0.74 -0.78 9.95 0.01 0.04 0.03 8742
0.08 0.41 0.78 -0.77 10.01 0.01 0.03 0.03 8749
0.08 0.41 0.76 -0.74 9.95 0.01 0.03 0.02 8756
0.07 0.40 0.76 -0.77 9.97 0.01 0.03 0.03 8762
0.08 0.38 0.77 -0.81 9.99 0.01 0.03 0.03 8768
0.08 0.41 0.76 -0.81 9.99 0.01 0.03 0.02 8774
0.07 0.37 0.78 -0.78 9.98 0.01 0.03 0.02 8780
0.06 0.34 0.79 -0.81 10.00 0.01 0.04 0.02 8786
0.08 0.35 0.80 -0.78 9.99 0.02 0.03 0.02 8793
0.08 0.31 0.83 -0.76 9.95 0.01 0.03 0.02 8800
0.07 0.33 0.81 -0.78 9.97 0.01 0.03 0.02 8806
0.07 0.31 0.81 -0.77 9.92 0.01 0.02 0.02 8812
0.08 0.28 0.82 -0.80 9.99 0.01 0.01 0.02 8818
0.07 0.28 0.85 -0.78 9.98 0.01 0.01 0.02 8824
0.06 0.27 0.87 -0.81 10.00 0.01 -0.00 0.02 8830
0.07 0.27 0.82 -0.80 9.93 0.01 -0.01 0.02 8837
0.07 0.27 0.83 -0.79 10.01 0.01 -0.01 0.02 8843
0.08 0.23 0.84 -0.82 9.99 0.01 -0.01 0.02 8850
0.09 0.25 0.77 -0.80 9.97 0.01 -0.01 0.02 8856
0.11 0.23 0.88 -0.78 9.96 0.01 -0.01 0.02 8862
0.09 0.18 0.83 -0.80 9.99 0.01 -0.02 0.02 8868
0.09 0.16 0.81 -0.85 10.00 0.00 -0.02 0.02 8875
0.09 0.20 0.81 -0.83 9.97 -0.00 -0.02 0.02 8881
0.09 0.17 0.83 -0.80 10.00 0.00 -0.02 0.02 8887
0.09 0.17 0.84 -0.82 9.96 -0.00 -0.02 0.02 8894
0.09 0.18 0.86 -0.84 10.00 -0.01 -0.03 0.02 8900
0.11 0.18 0.86 -0.82 10.01 -0.01 -0.03 0.02 8906
0.10 0.17 0.85 -0.82 9.98 -0.01 -0.03 0.02 8912
0.10 0.15 0.85 -0.80 10.00 -0.01 -0.04 0.02 8919
0.11 0.17 0.84 -0.81 9.97 -0.01 -0.04 0.02 8925
0.10 0.18 0.83 -0.83 9.99 -0.01 -0.03 0.02 8932
0.08 0.18 0.80 -0.80 9.98 -0.01 -0.03 0.02 8938
0.10 0.18 0.86 -0.83 10.01 -0.01 -0.03 0.02 8944
0.09 0.17 0.83 -0.81 9.98 -0.01 -0.03 0.02 8950
0.08 0.16 0.83 -0.82 10.00 -0.01 -0.03 0.02 8956
0.09 0.18 0.83 -0.76 9.97 -0.01 -0.02 0.02 8963
0.09 0.17 0.81 -0.76 10.00 -0.00 -0.02 0.02 8969
0.08 0.18 0.82 -0.80 9.99 0.00 -0.02 0.02 8976
0.09 0.16 0.83 -0.78 9.98 0.00 -0.03 0.02 8982
0.11 0.17 0.85 -0.83 9.96 -0.00 -0.03 0.02 8988
0.11 0.13 0.80 -0.80 9.96 0.03 -0.04 0.02 8994
0.11 0.13 0.86 -0.85 9.97 -0.00 -0.05 0.02 9000
0.11 0.16 0.84 -0.80 10.02 0.00 -0.05 0.02 9007
0.11 0.12 0.82 -0.81 9.97 0.00 -0.06 0.02 9013
0.12 0.10 0.81 -0.83 9.93 0.00 -0.07 0.02 9020
0.10 0.11 0.80 -0.83 9.94 0.01 -0.07 0.02 9026
0.13 0.10 0.89 -0.84 9.98 0.00 -0.08 0.02 9032
0.13 0.10 0.86 -0.83 9.98 0.00 -0.08 0.02 9038
0.13 0.04 0.83 -0.82 9.98 -0.00 -0.09 0.01 9044
0.11 0.08 0.81 -0.83 9.98 -0.00 -0.09 0.01 9051
0.13 0.04 0.80 -0.82 10.01 -0.00 -0.09 0.01 9057
0.12 0.06 0.78 -0.80 10.01 0.00 -0.09 0.01 9064
0.13 0.05 0.79 -0.82 10.08 0.01 -0.08 0.01 9070
0.15 0.06 0.84 -0.84 10.05 0.01 -0.08 0.02 9076
0.17 0.04 0.84 -0.85 10.04 0.01 -0.08 0.01 9082
0.17 0.02 0.85 -0.88 10.04 0.02 -0.08 0.02 9089
0.19 0.02 0.79 -0.82 10.03 0.03 -0.08 0.01 9095
0.19 0.00 0.90 -0.85 10.08 0.04 -0.08 0.01 9102
0.19 -0.00 0.82 -0.83 10.12 0.05 -0.08 0.01 9108
0.22 -0.01 0.81 -0.86 10.16 0.07 -0.08 0.01 9114
0.22 -0.02 0.79 -0.84 10.20 0.10 -0.09 0.01 9120
0.24 -0.02 0.79 -0.89 10.30 0.13 -0.09 0.01 9126
0.26 -0.01 0.78 -0.99 10.38 0.17 -0.11 0.01 9133
0.26 -0.03 0.90 -1.14 10.65 0.21 -0.15 -0.00 9140
0.25 -0.03 0.93 -0.99 10.51 0.29 -0.16 -0.01 9146
0.28 -0.01 1.08 -1.03 10.96 0.39 -0.18 -0.05 9152
0.31 -0.03 1.51 -1.14 11.27 0.57 -0.19 -0.11 9158
0.33 -0.03 1.88 -1.29 12.07 0.88 -0.19 -0.22 9164
0.36 -0.02 1.93 -1.24 12.85 1.32 -0.24 -0.31 9171
0.39 -0.03 1.90 -1.41 13.35 1.67 -0.38 -0.39 9178
0.43 -0.03 1.86 -1.72 13.38 1.85 -0.58 -0.45 9184
0.43 -0.02 2.38 -1.91 13.52 1.96 -0.74 -0.52 9190
0.43 -0.04 2.92 -2.47 13.37 2.05 -0.91 -0.62 9197
0.43 -0.01 3.09 -2.78 13.18 2.13 -1.08 -0.74 9203
0.43 -0.02 3.16 -2.64 12.82 2.18 -1.22 -0.88 9209
0.41 -0.03 3.52 -3.51 12.35 2.19 -1.36 -0.99 9216
0.36 -0.02 3.67 -3.66 11.38 2.15 -1.40 -1.14 9223
0.35 -0.02 3.29 -3.55 11.40 2.09 -1.45 -1.28 9229
0.30 -0.02 3.24 -4.02 12.07 2.05 -1.48 -1.38 9235
0.24 -0.02 3.21 -4.09 12.19 2.05 -1.50 -1.49 9241
0.21 -0.02 2.32 -4.05 11.94 2.07 -1.41 -1.61 9247
0.17 -0.02 3.50 -3.97 14.64 2.10 -1.32 -1.68 9254
0.12 -0.01 5.13 -4.86 16.23 2.12 -1.28 -1.80 9261
0.11 -0.01 4.78 -5.20 16.21 2.10 -1.25 -1.91 9267
0.08 -0.01 6.19 -4.61 15.98 1.99 -1.18 -2.04 9273
0.08 -0.01 5.85 -5.02 15.11 1.85 -1.11 -2.22 9279
0.07 -0.01 6.29 -4.97 14.52 1.69 -1.09 -2.43 9285
0.05 -0.01 5.98 -3.81 14.00 1.48 -1.12 -2.62 9292
0.07 -0.01 5.74 -2.88 12.99 1.20 -1.24 -2.78 9298
0.05 -0.01 5.40 -1.93 12.14 0.99 -1.52 -2.92 9305
0.05 -0.00 5.68 -0.18 11.04 0.68 -1.95 -3.07 9311
0.06 -0.01 6.79 3.66 9.02 0.32 -2.38 -3.17 9317
0.04 -0.00 7.62 6.52 5.57 -0.02 -2.69 -3.12 9323
0.04 -0.00 10.86 8.27 4.10 -0.30 -2.71 -2.85 9329
0.05 -0.00 10.44 3.24 6.46 -0.52 -2.11 -2.24 9336
0.06 -0.01 12.75 1.16 11.93 -0.91 -1.31 -1.74 9342
0.06 -0.01 13.17 1.82 10.84 -1.16 -0.90 -1.39 9349
0.06 -0.01 11.57 1.91 8.70 -1.18 -0.67 -1.14 9355
0.06 -0.01 10.18 1.89 6.08 -1.18 -0.39 -0.90 9361
0.05 -0.00 9.73 1.76 4.90 -1.13 -0.14 -0.68 9368
0.05 0.00 9.35 1.41 5.34 -1.02 0.08 -0.50 9374
0.05 -0.01 9.20 1.19 6.02 -0.89 0.30 -0.37 9380
0.05 -0.00 8.99 1.08 6.69 -0.76 0.60 -0.27 9387
0.04 -0.00 8.43 1.18 7.07 -0.67 0.91 -0.18 9393
0.06 0.00 7.64 1.45 7.37 -0.62 1.18 -0.10 9399
0.06 -0.01 6.63 1.62 7.93 -0.62 1.36 -0.00 9405
0.05 -0.00 5.74 1.58 8.63 -0.64 1.46 0.10 9411
0.04 -0.00 5.23 1.38 9.29 -0.68 1.48 0.20 9417
0.04 0.00 4.67 1.32 9.69 -0.72 1.47 0.31 9424
0.03 -0.00 4.38 1.28 9.87 -0.79 1.45 0.39 9431
0.04 -0.00 4.10 1.19 10.05 -0.86 1.46 0.46 9437
0.04 -0.00 3.74 0.87 10.23 -0.94 1.52 0.50 9443
0.06 -0.01 3.30 0.41 10.44 -1.00 1.62 0.50 9449
0.05 -0.00 2.92 -0.06 10.61 -1.04 1.75 0.47 9455
0.04 -0.00 2.49 -0.67 10.75 -1.06 1.89 0.41 9461
0.04 0.00 2.11 -1.21 10.89 -1.06 1.97 0.33 9468
0.05 -0.00 1.63 -1.58 11.14 -1.03 2.05 0.26 9475
0.04 -0.00 1.19 -1.86 11.35 -0.99 2.10 0.17 9481
0.04 0.00 0.70 -2.05 11.50 -0.94 2.12 0.14 9487
0.05 -0.00 0.38 -2.14 11.64 -0.89 2.09 0.09 9493
0.04 -0.00 0.16 -2.08 11.67 -0.87 2.03 0.05 9499
0.04 -0.00 0.06 -2.22 11.56 -0.83 1.96 0.02 9506
0.05 -0.01 0.11 -2.42 11.66 -0.80 1.89 -0.01 9512
0.05 -0.00 0.41 -2.59 11.95 -0.75 1.85 -0.05 9519
0.04 -0.00 0.75 -2.65 12.41 -0.70 1.90 -0.07 9525
0.05 0.00 1.02 -2.57 12.73 -0.66 1.95 -0.07 9531
0.04 -0.00 1.09 -1.87 13.04 -0.65 2.05 -0.06 9537
0.04 -0.00 0.97 -2.44 13.20 -0.65 2.12 -0.00 9543
0.05 0.00 0.85 -2.42 13.30 -0.67 2.15 0.09 9550
0.05 -0.00 0.73 -2.38 13.23 -0.69 2.13 0.22 9556
0.04 -0.00 0.72 -2.36 13.08 -0.71 2.09 0.39 9563
0.05 -0.00 0.63 -2.40 12.84 -0.71 2.03 0.58 9569
0.06 -0.01 0.60 -2.55 12.39 -0.70 1.98 0.79 9575
0.05 -0.00 0.55 -2.74 11.99 -0.66 1.96 1.00 9581
0.04 -0.00 0.40 -2.94 11.74 -0.60 1.95 1.20 9588
0.05 -0.01 0.16 -3.11 11.48 -0.52 1.96 1.38 9594
0.05 -0.00 -0.23 -3.32 11.36 -0.41 1.99 1.49 9601
0.04 -0.00 -0.87 -3.60 11.13 -0.29 2.01 1.61 9607
0.05 -0.00 -1.62 -3.98 10.96 -0.15 2.00 1.73 9613
0.05 -0.00 -2.31 -4.26 10.97 -0.02 1.92 1.82 9619
0.04 -0.00 -2.56 -4.35 11.35 0.13 1.81 1.91 9626
0.05 -0.01 -2.42 -4.23 12.06 0.20 1.68 1.99 9632
0.05 -0.01 -2.22 -4.21 12.66 0.24 1.59 2.08 9638
0.05 -0.00 -2.15 -4.32 13.12 0.22 1.52 2.17 9645
0.03 -0.00 -2.20 -4.40 13.34 0.16 1.43 2.26 9651
0.05 -0.00 -2.39 -4.73 13.12 0.07 1.30 2.32 9657
0.05 -0.00 -2.55 -5.19 12.85 -0.02 1.13 2.38 9663
0.03 -0.00 -2.69 -5.72 12.22 -0.08 0.96 2.39 9670
0.04 -0.00 -2.75 -6.28 11.42 -0.11 0.84 2.37 9676
0.04 -0.00 -3.01 -6.77 10.61 -0.10 0.76 2.32 9682
0.04 -0.00 -3.34 -7.17 9.81 -0.05 0.72 2.24 9689
0.04 -0.00 -3.94 -7.46 9.33 0.03 0.73 2.15 9695
0.04 -0.00 -4.59 -7.53 8.90 0.16 0.77 2.05 9701
0.04 -0.00 -5.58 -7.52 8.68 0.31 0.84 1.96 9707
0.04 -0.00 -6.46 -7.53 8.74 0.45 0.88 1.85 9713
0.04 -0.00 -7.23 -7.49 8.94 0.57 0.85 1.75 9720
0.05 -0.01 -7.70 -7.49 9.20 0.66 0.74 1.65 9726
0.04 -0.00 -7.63 -7.41 9.76 0.71 0.59 1.55 9733
0.03 -0.00 -7.17 -7.28 10.21 0.71 0.46 1.46 9739
0.04 0.00 -7.64 -8.59 11.23 0.68 0.25 1.36 9745
0.04 -0.00 -16.47 -13.54 17.33 0.83 -0.89 1.29 9751
0.03 -0.00 -15.85 -9.20 10.48 0.97 -2.10 1.30 9758
0.03 -0.00 -14.33 -9.46 7.23 0.89 -2.98 1.23 9764
0.04 -0.00 -14.16 -11.61 4.53 0.67 -3.93 0.96 9771
0.02 -0.00 -18.75 -16.82 8.54 0.46 -4.28 0.55 9777
0.04 -0.00 -21.99 -14.66 8.55 0.35 -4.28 0.06 9783
0.03 -0.00 -18.45 -10.21 11.80 0.27 -4.28 -0.33 9790
0.05 -0.00 -4.21 -1.89 14.88 -0.01 -4.28 -0.52 9796
0.05 0.02 -14.84 2.40 78.47 0.14 -3.90 -0.63 9802
0.04 0.08 -3.14 -7.43 10.49 -0.36 -0.21 -0.12 9808
0.03 0.24 0.41 -2.04 11.98 -0.30 -0.05 0.15 9816
0.05 0.31 -0.76 -0.86 11.82 -0.22 -0.07 0.07 9822
0.03 0.40 0.27 -0.22 11.73 -0.07 -0.11 0.06 9828
0.03 0.39 1.20 -0.08 10.43 0.06 -0.11 0.11 9834
0.02 0.36 1.44 -0.11 10.06 0.08 -0.11 0.14 9840
0.03 0.35 1.03 -0.05 9.85 0.12 -0.12 0.19 9847
0.08 0.31 0.65 -0.09 9.98 0.12 -0.11 0.22 9853
0.08 0.25 0.46 -0.54 9.80 0.08 -0.13 0.23 9860
0.09 0.20 0.83 -1.66 9.91 0.04 -0.13 0.23 9866
0.11 0.21 0.51 -1.62 9.60 0.01 -0.10 0.21 9872
0.18 0.23 0.39 -1.28 9.75 -0.03 -0.07 0.16 9878
0.21 0.26 0.64 -1.03 9.33 -0.08 -0.06 0.11 9884
0.25 0.25 1.07 -1.08 9.94 -0.10 -0.05 0.08 9891
0.26 0.32 1.03 -0.85 10.43 -0.11 -0.06 0.05 9897
0.25 0.37 0.80 -0.72 10.38 -0.10 -0.07 0.03 9904
0.25 0.45 0.67 -0.71 10.36 -0.10 -0.08 0.03 9910
0.26 0.42 0.62 -0.76 10.17 -0.10 -0.07 0.04 9916
0.26 0.48 0.06 -0.75 9.78 -0.09 -0.06 0.06 9923
0.20 0.57 0.70 -0.73 9.89 -0.09 -0.06 0.06 9929
0.20 0.54 0.73 -0.70 10.04 -0.09 -0.04 0.06 9935
0.19 0.60 0.74 -0.64 10.07 -0.07 -0.03 0.05 9942
0.19 0.62 0.71 -0.61 10.02 -0.05 -0.02 0.05 9948
0.20 0.63 0.69 -0.60 10.06 -0.03 -0.01 0.04 9955
0.20 0.61 0.76 -0.68 10.07 -0.02 -0.00 0.04 9961
0.23 0.60 0.83 -0.74 10.11 -0.01 0.00 0.04 9967
0.24 0.59 0.85 -0.74 10.05 -0.01 0.00 0.03 9973
0.25 0.55 0.82 -0.73 9.95 -0.00 -0.00 0.03 9979
0.24 0.55 0.83 -0.75 9.95 -0.01 0.00 0.03 9986
0.24 0.56 0.80 -0.73 10.06 -0.01 -0.00 0.02 9993
0.24 0.52 0.87 -0.68 10.03 -0.00 -0.00 0.02 9999
0.23 0.52 0.81 -0.67 10.01 -0.00 -0.00 0.02 10005
0.23 0.51 0.81 -0.67 10.02 0.00 -0.00 0.02 10011
0.24 0.48 0.79 -0.70 10.00 0.00 -0.00 0.02 10017
0.25 0.48 0.76 -0.69 9.92 0.00 -0.01 0.02 10024
0.25 0.47 0.82 -0.70 10.03 0.00 -0.00 0.02 10031
0.24 0.46 0.81 -0.69 10.03 0.00 -0.01 0.02 10037
0.24 0.48 0.84 -0.71 10.01 0.00 -0.01 0.02 10043
0.25 0.43 0.81 -0.69 9.98 0.00 -0.01 0.02 10049
0.23 0.43 0.80 -0.68 10.03 0.00 -0.01 0.02 10056
0.25 0.43 0.82 -0.72 10.01 0.00 -0.01 0.02 10062
0.26 0.39 0.87 -0.69 9.99 0.01 -0.01 0.03 10068
0.23 0.37 0.85 -0.69 10.00 0.00 -0.01 0.02 10075
0.25 0.38 0.91 -0.67 9.99 0.01 -0.01 0.02 10081
0.23 0.34 0.80 -0.72 10.04 0.01 -0.01 0.02 10088
0.23 0.31 0.83 -0.68 9.97 0.01 -0.01 0.02 10094
0.24 0.31 0.85 -0.72 9.99 0.00 -0.02 0.02 10100
0.22 0.32 0.86 -0.72 9.98 0.00 -0.02 0.02 10106
0.22 0.31 0.85 -0.71 10.02 0.00 -0.02 0.02 10113
0.24 0.31 0.79 -0.68 10.00 -0.00 -0.03 0.02 10120
0.22 0.27 0.83 -0.69 9.99 -0.00 -0.02 0.02 10126
0.13 0.29 0.81 -0.70 9.98 -0.00 -0.02 0.02 10132
0.23 0.27 0.84 -0.74 9.98 -0.00 -0.02 0.02 10138
0.21 0.28 0.80 -0.72 9.97 -0.00 -0.02 0.02 10144
0.20 0.30 0.79 -0.71 9.96 -0.01 -0.01 0.02 10151
0.21 0.28 0.81 -0.70 9.94 -0.00 -0.01 0.02 10158
0.21 0.27 0.84 -0.68 9.95 -0.00 -0.01 0.01 10164
0.20 0.28 0.85 -0.66 9.98 0.03 0.00 0.01 10170
0.22 0.22 0.86 -0.68 10.01 0.01 0.00 0.01 10176
0.21 0.21 0.87 -0.70 9.97 0.00 0.00 0.01 10183
0.21 0.20 0.84 -0.71 10.05 0.01 0.00 0.01 10189
0.22 0.19 0.87 -0.70 9.99 0.01 0.00 0.01 10195
0.22 0.15 0.82 -0.66 10.03 0.01 0.01 0.01 10202
0.22 0.15 0.88 -0.70 9.98 0.01 -0.00 0.01 10208
0.22 0.14 0.86 -0.75 9.94 0.01 -0.00 0.01 10214
0.22 0.09 0.86 -0.70 9.97 0.00 -0.01 0.01 10221
0.24 0.08 0.88 -0.75 9.97 0.01 -0.01 0.01 10227
0.26 0.07 0.85 -0.72 9.92 -0.00 -0.02 0.01 10233
0.25 0.05 0.90 -0.74 9.96 -0.01 -0.03 0.01 10240
0.23 0.07 0.88 -0.70 9.90 -0.01 -0.03 0.01 10246
0.25 0.07 0.86 -0.75 10.03 -0.02 -0.03 0.01 10253
0.24 0.06 0.86 -0.67 9.96 -0.02 -0.03 0.01 10259
0.24 0.07 0.88 -0.72 9.92 -0.02 -0.03 0.01 10265
0.24 0.08 0.87 -0.68 10.00 -0.02 -0.03 0.01 10271
0.25 0.07 0.88 -0.70 10.01 -0.01 -0.03 0.01 10277
0.26 0.07 0.86 -0.68 10.04 -0.00 -0.02 0.01 10285
0.26 0.06 0.84 -0.71 10.02 -0.00 -0.02 0.01 10291
0.25 0.05 0.86 -0.72 10.01 0.00 -0.02 0.01 10297
0.26 0.06 0.88 -0.68 10.04 0.00 -0.01 0.01 10303
0.25 0.04 0.90 -0.71 10.03 0.01 -0.01 0.01 10309
0.24 0.04 0.89 -0.80 9.98 0.00 -0.01 0.01 10316
0.26 0.04 0.86 -0.70 9.97 0.00 -0.01 0.01 10322
0.26 0.02 0.82 -0.71 10.00 0.00 -0.01 0.01 10329
0.25 0.01 0.85 -0.77 9.91 0.00 -0.01 0.01 10335
0.24 0.02 0.84 -0.74 9.96 -0.00 -0.01 0.02 10341
0.24 0.02 0.82 -0.75 9.95 -0.01 -0.02 0.02 10348
0.24 0.02 0.88 -0.72 10.01 -0.01 -0.02 0.02 10354
0.27 0.03 0.89 -0.72 9.96 -0.01 -0.02 0.02 10360
0.27 0.02 0.92 -0.71 10.02 -0.01 -0.02 0.02 10366
0.26 0.02 0.89 -0.71 9.97 -0.01 -0.02 0.02 10373
0.27 0.02 0.90 -0.70 9.98 -0.01 -0.03 0.02 10380
0.27 0.02 0.92 -0.70 10.00 -0.01 -0.03 0.02 10386
0.25 0.01 0.88 -0.75 10.00 -0.01 -0.03 0.01 10392
0.28 0.01 0.89 -0.68 9.98 -0.01 -0.03 0.01 10398
0.29 0.00 0.90 -0.70 10.04 -0.01 -0.03 0.01 10404
0.29 0.01 0.87 -0.70 10.03 -0.00 -0.03 0.01 10412
0.32 0.00 0.86 -0.71 10.02 0.00 -0.03 0.01 10418
0.30 0.00 0.79 -0.70 10.00 0.00 -0.03 0.01 10424
0.30 0.03 0.85 -0.74 9.99 -0.00 -0.03 0.02 10430
0.31 0.00 0.88 -0.75 9.96 0.00 -0.04 0.02 10436
0.29 0.01 0.93 -0.74 9.95 -0.00 -0.04 0.02 10443
0.29 0.02 0.91 -0.74 9.99 -0.00 -0.05 0.02 10449
0.31 0.02 0.90 -0.76 9.92 -0.01 -0.05 0.02 10456
0.30 -0.01 0.87 -0.71 10.03 -0.00 -0.05 0.02 10462
0.27 0.03 0.88 -0.76 10.02 0.00 -0.06 0.02 10468
0.29 0.01 0.89 -0.71 10.02 0.01 -0.05 0.02 10475
0.27 0.01 0.85 -0.72 10.04 0.02 -0.06 0.02 10481
0.27 0.01 0.91 -0.71 10.09 0.03 -0.05 0.02 10487
0.29 0.00 0.88 -0.75 10.10 0.05 -0.05 0.02 10493
0.29 -0.01 0.88 -0.70 10.21 0.08 -0.04 0.01 10500
0.35 -0.01 0.90 -0.72 10.27 0.12 -0.04 0.01 10507
0.35 -0.03 0.97 -0.86 10.34 0.16 -0.05 0.01 10513
0.39 -0.03 0.87 -0.68 10.26 0.22 -0.06 -0.00 10519
0.41 -0.03 0.99 -0.83 10.47 0.27 -0.09 -0.01 10525
0.47 -0.04 1.24 -0.91 10.64 0.36 -0.13 -0.03 10532
0.54 -0.04 1.60 -0.88 11.53 0.53 -0.13 -0.07 10539
0.59 -0.04 1.60 -1.13 12.23 0.82 -0.20 -0.14 10545
0.59 -0.03 1.81 -1.13 13.17 1.30 -0.23 -0.23 10551
0.65 -0.04 1.40 -1.33 13.97 1.72 -0.31 -0.32 10558
0.67 -0.03 1.86 -1.25 14.17 1.97 -0.47 -0.38 10564
0.68 -0.03 1.98 -1.44 14.30 2.15 -0.64 -0.45 10570
0.66 -0.03 2.67 -2.07 14.24 2.36 -0.83 -0.54 10577
0.72 -0.03 3.23 -2.42 14.03 2.54 -1.00 -0.66 10584
0.72 -0.03 3.78 -2.93 13.62 2.62 -1.20 -0.81 10590
0.65 -0.03 4.79 -3.27 12.73 2.61 -1.42 -0.99 10596
0.60 -0.03 5.86 -4.49 14.57 2.64 -1.69 -1.22 10603
0.53 -0.03 6.81 -5.07 14.49 2.72 -1.84 -1.48 10609
0.42 -0.02 7.91 -6.59 14.52 2.74 -1.90 -1.77 10615
0.31 -0.02 8.00 -5.52 13.79 2.71 -1.80 -2.07 10621
0.21 -0.00 6.83 -4.58 15.18 2.62 -1.64 -2.32 10629
0.16 -0.02 7.43 -4.57 14.02 2.52 -1.51 -2.48 10635
0.11 -0.01 7.28 -6.53 14.60 2.39 -1.22 -2.63 10641
0.09 -0.01 7.97 -4.91 15.72 2.23 -0.98 -2.82 10647
0.10 -0.01 7.35 -5.04 17.40 2.01 -0.90 -3.03 10654
0.07 0.01 7.47 -4.16 18.33 1.82 -1.03 -3.26 10660
0.05 -0.01 8.35 -2.91 17.39 1.56 -1.28 -3.46 10667
0.04 -0.00 7.83 -1.92 15.30 1.22 -1.57 -3.66 10673
0.07 -0.01 8.14 -0.50 12.49 0.88 -1.98 -3.83 10680
0.05 -0.01 10.03 3.68 9.27 0.58 -2.57 -3.96 10686
0.05 -0.01 12.56 9.86 4.46 0.08 -3.07 -3.95 10692
0.06 -0.01 14.85 10.86 1.34 -0.36 -3.03 -3.54 10698
0.04 -0.00 13.78 4.79 5.61 -0.75 -2.16 -2.71 10705
0.07 -0.01 17.63 2.52 12.48 -1.20 -1.18 -2.03 10712
0.05 -0.01 16.67 3.13 10.67 -1.50 -0.70 -1.54 10718
0.05 -0.01 14.68 3.16 7.02 -1.49 -0.44 -1.12 10724
0.06 -0.01 12.66 3.24 3.18 -1.39 -0.17 -0.70 10730
0.06 -0.01 11.90 3.03 2.12 -1.21 0.14 -0.33 10737
0.06 -0.00 11.44 2.44 3.50 -0.99 0.45 -0.05 10743
0.06 -0.01 10.95 1.98 5.09 -0.75 0.84 0.17 10749
0.04 -0.00 10.06 2.08 6.22 -0.55 1.30 0.33 10756
0.07 -0.01 8.88 2.65 7.17 -0.44 1.74 0.49 10762
0.06 -0.01 7.12 3.17 8.45 -0.43 2.05 0.62 10769
0.06 -0.01 5.21 3.24 9.69 -0.49 2.20 0.72 10775
0.06 -0.01 3.52 3.11 10.53 -0.58 2.21 0.80 10781
0.05 -0.01 2.17 2.90 10.88 -0.70 2.11 0.85 10787
0.06 -0.01 1.29 2.54 11.10 -0.85 1.97 0.85 10793
0.05 -0.01 0.93 1.92 11.23 -0.95 1.86 0.81 10801
0.05 -0.00 0.91 1.30 11.44 -1.07 1.80 0.76 10807
0.04 -0.00 1.04 0.78 11.61 -1.17 1.82 0.69 10813
0.05 0.00 1.21 0.33 11.49 -1.24 1.90 0.62 10819
0.05 -0.00 1.11 -0.22 11.36 -1.27 2.01 0.56 10825
0.04 -0.00 0.91 -0.79 11.26 -1.27 2.13 0.53 10832
0.06 -0.01 0.53 -1.48 11.25 -1.23 2.23 0.51 10839
0.04 -0.00 0.30 -2.06 11.42 -1.14 2.29 0.52 10845
0.05 -0.00 0.11 -2.60 11.52 -1.05 2.29 0.52 10851
0.05 -0.01 -0.01 -3.06 11.44 -0.96 2.28 0.51 10857
0.04 -0.00 -0.22 -3.49 11.32 -0.86 2.25 0.49 10864
0.04 -0.00 -0.42 -3.77 11.36 -0.75 2.21 0.45 10870
0.05 -0.01 -0.55 -3.87 11.66 -0.64 2.18 0.40 10876
0.05 -0.01 -0.51 -3.69 12.08 -0.53 2.14 0.34 10883
0.06 -0.01 -0.35 -3.35 12.51 -0.48 2.11 0.27 10889
0.05 -0.01 -0.16 -2.88 13.16 -0.45 2.12 0.21 10896
0.05 -0.01 -0.09 -2.63 13.74 -0.49 2.18 0.16 10902
0.06 0.00 -0.46 -2.62 14.19 -0.57 2.22 0.11 10908
0.06 -0.01 -0.99 -2.68 14.43 -0.68 2.21 0.08 10914
0.05 -0.00 -1.32 -2.67 14.33 -0.80 2.11 0.08 10921
0.05 -0.01 -1.61 -2.74 13.82 -0.90 2.03 0.13 10928
0.05 -0.01 -1.84 -2.74 13.20 -0.98 1.88 0.21 10934
0.05 -0.00 -1.80 -2.78 12.53 -1.00 1.74 0.35 10940
0.06 -0.01 -1.75 -2.76 11.96 -1.00 1.63 0.53 10946
0.04 -0.00 -1.75 -2.69 11.60 -0.96 1.57 0.72 10953
0.04 -0.00 -1.95 -2.85 10.98 -0.88 1.54 0.97 10959
0.06 -0.01 -2.18 -3.12 10.48 -0.79 1.51 1.23 10966
0.05 -0.00 -2.40 -3.56 10.19 -0.67 1.47 1.47 10972
0.04 0.00 -2.53 -3.95 9.91 -0.55 1.40 1.68 10978
0.03 -0.00 -2.49 -4.22 9.80 -0.41 1.31 1.87 10985
0.05 -0.00 -2.38 -4.48 9.73 -0.28 1.19 2.01 10991
0.05 -0.01 -2.22 -4.77 9.79 -0.13 1.05 2.09 10997
0.05 -0.01 -1.76 -5.03 10.57 -0.05 0.93 2.13 11003
0.04 -0.00 -1.11 -5.21 11.74 0.03 0.88 2.13 11010
0.05 -0.00 -0.84 -5.42 12.69 0.04 0.88 2.08 11016
0.06 -0.01 -0.72 -5.68 12.96 -0.04 0.92 1.99 11023
0.04 -0.00 -1.23 -6.01 12.78 -0.17 0.96 1.88 11029
0.05 -0.00 -2.09 -6.50 12.12 -0.30 1.00 1.74 11035
0.04 -0.00 -3.32 -7.00 11.31 -0.38 1.00 1.66 11041
0.04 -0.00 -4.45 -7.43 9.89 -0.39 0.95 1.56 11047
0.05 -0.01 -5.37 -7.68 9.70 -0.33 0.88 1.49 11055
0.05 -0.01 -5.96 -7.73 9.11 -0.24 0.79 1.45 11061
0.05 -0.01 -6.42 -7.74 8.65 -0.13 0.69 1.43 11067
0.04 -0.00 -6.60 -7.71 8.40 -0.01 0.56 1.45 11073
0.05 -0.01 -7.29 -7.88 8.34 0.09 0.37 1.45 11079
0.05 -0.00 -15.04 -13.14 15.29 0.37 -0.84 1.50 11086
0.04 0.01 -17.48 -10.11 9.42 0.80 -2.16 1.63 11092
0.05 -0.00 -12.78 -7.51 3.19 0.83 -2.79 1.67 11099
0.04 -0.00 -9.41 -9.97 5.16 0.87 -3.39 1.57 11105
0.05 -0.01 -13.99 -14.22 9.82 0.78 -3.95 1.43 11112
0.05 -0.00 -17.78 -14.42 8.54 0.77 -4.27 1.30 11118
0.03 0.00 -19.78 -16.12 5.88 0.56 -4.28 1.16 11124
0.04 0.07 -15.27 -13.37 10.14 0.56 -4.28 0.97 11130
0.04 0.34 -14.50 -6.09 34.95 1.93 -3.45 0.95 11138
0.03 0.53 -9.78 2.39 24.81 0.76 -2.47 0.66 11144
0.02 0.65 -4.11 -1.22 16.69 0.30 -1.37 0.18 11150
0.02 0.76 -0.89 -0.05 11.96 0.01 -0.39 0.10 11157
0.03 0.77 0.77 0.85 9.04 0.06 -0.12 0.10 11163
0.01 0.72 1.37 -0.17 9.89 0.23 -0.25 0.13 11169
0.04 0.57 1.80 -0.10 10.60 0.27 -0.21 0.27 11175
0.03 0.51 0.61 -0.21 10.58 0.17 -0.16 0.33 11182
0.05 0.43 0.04 -1.27 10.04 0.08 -0.19 0.28 11189
0.06 0.42 0.05 -1.57 9.77 0.04 -0.15 0.24 11195
0.07 0.42 -0.61 -1.44 9.51 0.01 -0.10 0.17 11201
0.08 0.44 0.22 -1.27 9.86 -0.03 -0.09 0.10 11207
0.10 0.48 0.63 -0.99 10.09 -0.06 -0.08 0.09 11214
0.11 0.55 0.46 -0.72 10.21 -0.07 -0.08 0.04 11220
0.11 0.56 0.57 -0.61 10.43 -0.06 -0.07 0.05 11227
0.11 0.63 0.32 -0.46 10.39 -0.03 -0.05 0.05 11233
0.13 0.66 0.41 -0.50 10.04 -0.03 -0.04 0.05 11240
0.15 0.65 0.50 -0.63 9.99 -0.02 -0.04 0.06 11246
0.15 0.65 0.60 -0.75 9.98 -0.02 -0.03 0.06 11252
0.17 0.67 0.62 -0.80 10.02 -0.03 -0.04 0.06 11258
0.19 0.63 0.61 -0.76 9.93 -0.03 -0.03 0.05 11265
0.18 0.66 0.61 -0.70 10.03 -0.03 -0.03 0.05 11272
0.20 0.65 0.59 -0.64 10.06 -0.03 -0.03 0.05 11278
0.21 0.64 0.54 -0.63 10.04 -0.02 -0.02 0.05 11284
0.22 0.65 0.57 -0.62 10.10 -0.01 -0.02 0.05 11290
0.22 0.64 0.60 -0.67 9.96 -0.01 -0.02 0.05 11296
0.21 0.63 0.68 -0.72 10.10 -0.01 -0.02 0.05 11303
0.24 0.64 0.62 -0.70 10.08 -0.01 -0.02 0.04 11310
0.23 0.59 0.67 -0.71 9.99 -0.01 -0.02 0.04 11316
0.24 0.55 0.64 -0.68 9.97 -0.01 -0.02 0.04 11322
0.26 0.54 0.65 -0.63 10.07 -0.01 -0.02 0.04 11329
0.23 0.51 0.65 -0.65 10.09 -0.01 -0.02 0.03 11335
0.25 0.53 0.64 -0.70 10.13 -0.00 -0.02 0.03 11341
0.24 0.50 0.65 -0.65 10.03 -0.00 -0.02 0.04 11347
0.25 0.47 0.63 -0.70 10.10 -0.00 -0.02 0.04 11355
0.27 0.45 0.63 -0.70 10.05 0.00 -0.02 0.04 11361
0.25 0.44 0.62 -0.67 10.04 0.00 -0.02 0.04 11367
0.26 0.43 0.61 -0.67 9.98 0.00 -0.02 0.04 11373
0.26 0.41 0.65 -0.68 9.98 0.00 -0.02 0.04 11379
0.25 0.38 0.69 -0.68 9.97 0.00 -0.02 0.04 11386
0.25 0.42 0.66 -0.63 10.02 -0.00 -0.02 0.04 11393
0.26 0.42 0.64 -0.61 9.99 -0.00 -0.03 0.04 11399
0.26 0.35 0.68 -0.65 10.03 -0.00 -0.02 0.04 11405
0.26 0.40 0.70 -0.69 10.10 0.00 -0.03 0.04 11411
0.26 0.36 0.65 -0.70 10.01 0.00 -0.02 0.04 11418
0.25 0.34 0.68 -0.66 10.00 0.00 -0.02 0.04 11424
0.26 0.33 0.65 -0.70 10.01 0.00 -0.02 0.03 11430
0.26 0.32 0.64 -0.66 10.01 0.00 -0.02 0.04 11437
0.26 0.32 0.67 -0.65 10.02 0.00 -0.02 0.04 11444
0.26 0.30 0.63 -0.64 10.02 0.00 -0.02 0.03 11450
0.25 0.29 0.66 -0.69 10.03 0.01 -0.02 0.03 11456
0.27 0.24 0.65 -0.66 9.97 0.00 -0.02 0.03 11462
0.26 0.28 0.63 -0.66 9.97 0.00 -0.02 0.03 11468
0.23 0.28 0.65 -0.68 9.97 0.00 -0.02 0.03 11475
0.26 0.27 0.66 -0.69 9.96 0.00 -0.02 0.03 11482
0.27 0.22 0.68 -0.68 9.97 0.00 -0.02 0.03 11488
0.25 0.22 0.65 -0.69 10.00 -0.00 -0.01 0.03 11494
0.26 0.24 0.62 -0.68 9.99 -0.00 -0.01 0.03 11500
0.28 0.25 0.65 -0.71 10.01 -0.00 -0.01 0.03 11507
0.26 0.22 0.67 -0.69 10.04 -0.01 -0.01 0.02 11513
0.28 0.25 0.66 -0.73 10.02 -0.00 -0.01 0.02 11520
0.28 0.24 0.64 -0.68 10.02 -0.00 -0.01 0.02 11526
0.27 0.23 0.65 -0.66 10.05 -0.00 0.00 0.02 11533
0.28 0.20 0.64 -0.68 10.05 -0.00 0.00 0.02 11539
0.27 0.23 0.65 -0.67 10.02 -0.00 0.00 0.02 11545
0.27 0.22 0.66 -0.68 9.96 0.00 0.01 0.02 11551
0.27 0.23 0.64 -0.67 9.98 0.00 0.01 0.02 11557
0.25 0.24 0.72 -0.69 10.02 0.00 0.01 0.02 11565
0.27 0.22 0.70 -0.68 10.03 0.00 0.01 0.02 11571
0.26 0.20 0.71 -0.66 10.05 0.00 0.00 0.01 11577
0.23 0.18 0.71 -0.68 10.08 0.00 0.00 0.02 11583
0.25 0.16 0.68 -0.67 10.01 0.00 -0.00 0.01 11589
0.24 0.16 0.69 -0.67 10.00 0.00 -0.00 0.02 11596
0.23 0.13 0.74 -0.68 9.98 0.00 -0.01 0.01 11602
0.26 0.14 0.68 -0.68 10.04 -0.00 -0.01 0.02 11609
0.24 0.12 0.69 -0.72 9.99 -0.00 -0.01 0.01 11615
0.24 0.13 0.67 -0.72 10.01 -0.01 -0.02 0.01 11621
0.25 0.14 0.74 -0.69 10.07 -0.01 -0.02 0.01 11628
0.25 0.13 0.70 -0.67 10.03 -0.01 -0.01 0.01 11634
0.27 0.15 0.70 -0.68 10.04 -0.01 -0.01 0.01 11640
0.25 0.15 0.68 -0.71 10.01 -0.01 -0.01 0.01 11646
0.23 0.16 0.68 -0.66 9.98 -0.01 -0.01 0.01 11654
0.25 0.15 0.69 -0.67 10.03 -0.00 -0.00 0.01 11660
0.23 0.13 0.72 -0.66 10.03 -0.00 -0.00 0.01 11666
0.24 0.14 0.72 -0.71 10.01 0.00 -0.00 0.01 11672
0.24 0.12 0.70 -0.72 9.98 -0.00 -0.00 0.01 11678
0.26 0.10 0.73 -0.70 9.96 -0.00 -0.00 0.01 11685
0.25 0.14 0.74 -0.71 10.01 -0.01 -0.00 0.01 11692
0.26 0.13 0.73 -0.68 9.98 -0.01 -0.01 0.02 11698
0.25 0.11 0.66 -0.67 10.04 -0.01 -0.01 0.02 11704
0.24 0.15 0.71 -0.69 9.95 -0.01 -0.01 0.02 11710
0.25 0.13 0.70 -0.71 10.03 -0.01 -0.02 0.02 11717
0.25 0.13 0.69 -0.69 10.05 -0.01 -0.02 0.02 11723
0.25 0.14 0.70 -0.70 9.94 -0.01 -0.02 0.02 11729
0.24 0.14 0.72 -0.67 9.98 -0.02 -0.03 0.02 11736
0.22 0.17 0.74 -0.70 10.05 -0.02 -0.03 0.02 11742
0.23 0.17 0.72 -0.69 10.02 -0.02 -0.03 0.03 11749
0.21 0.17 0.77 -0.72 10.00 -0.02 -0.03 0.02 11755
0.19 0.18 0.79 -0.68 10.02 -0.02 -0.03 0.02 11761
0.19 0.18 0.74 -0.70 10.03 -0.02 -0.03 0.02 11767
0.18 0.16 0.71 -0.68 10.03 -0.01 -0.03 0.02 11774
0.17 0.18 0.71 -0.63 10.02 -0.01 -0.03 0.02 11781
0.16 0.16 0.67 -0.64 10.01 -0.00 -0.02 0.02 11787
0.17 0.16 0.72 -0.68 10.01 0.00 -0.02 0.02 11793
0.20 0.15 0.74 -0.69 10.03 0.01 -0.02 0.02 11800
0.21 0.10 0.77 -0.68 10.01 0.01 -0.03 0.02 11806
0.19 0.10 0.79 -0.70 10.05 0.01 -0.03 0.01 11812
0.19 0.09 0.73 -0.70 10.05 0.02 -0.04 0.02 11819
0.18 0.07 0.72 -0.69 10.01 0.02 -0.04 0.01 11825
0.21 0.07 0.78 -0.77 10.04 0.03 -0.04 0.01 11832
0.18 0.05 0.80 -0.72 10.05 0.04 -0.04 0.01 11838
0.19 0.01 0.76 -0.71 10.12 0.05 -0.04 0.00 11844
0.23 0.01 0.82 -0.77 10.18 0.06 -0.05 -0.00 11850
0.25 -0.01 0.79 -0.70 10.22 0.09 -0.05 -0.01 11857
0.27 -0.01 0.79 -0.71 10.28 0.12 -0.05 -0.03 11864
0.26 -0.02 0.88 -0.76 10.30 0.15 -0.06 -0.03 11870
0.27 -0.01 0.88 -0.86 10.37 0.18 -0.08 -0.06 11876
0.27 -0.02 1.07 -0.95 10.39 0.22 -0.11 -0.09 11883
0.31 -0.03 1.29 -0.88 10.88 0.30 -0.13 -0.13 11889
0.35 -0.03 1.90 -1.12 11.36 0.44 -0.17 -0.26 11895
0.37 -0.04 2.62 -1.18 12.31 0.70 -0.18 -0.37 11901
0.38 -0.03 2.09 -1.25 13.86 1.18 -0.21 -0.52 11909
0.39 -0.03 2.55 -1.38 13.52 1.68 -0.37 -0.63 11915
0.39 -0.03 3.29 -2.03 13.18 1.89 -0.59 -0.74 11921
0.36 -0.02 3.81 -2.08 13.03 1.95 -0.74 -0.90 11927
0.37 -0.03 4.30 -2.53 13.05 2.03 -0.85 -1.12 11934
0.33 -0.02 4.68 -2.60 13.21 2.10 -0.94 -1.32 11940
0.34 -0.02 4.69 -3.28 12.04 2.10 -1.08 -1.52 11947
0.29 -0.03 5.27 -3.48 12.53 2.12 -1.18 -1.69 11954
0.27 -0.01 5.66 -3.96 11.99 2.12 -1.22 -1.92 11960
0.20 -0.02 7.49 -4.61 11.26 2.09 -1.20 -2.10 11966
0.14 -0.01 7.24 -4.66 11.46 2.03 -1.06 -2.34 11972
0.15 -0.01 7.17 -4.39 11.72 1.90 -0.90 -2.57 11978
0.10 -0.01 7.45 -4.22 12.55 1.79 -0.67 -2.81 11985
0.10 -0.01 7.54 -3.67 13.87 1.69 -0.45 -3.03 11992
0.08 -0.01 6.29 -3.48 14.63 1.62 -0.28 -3.18 11998
0.06 -0.01 4.74 -3.19 13.89 1.54 -0.27 -3.30 12004
0.06 -0.01 4.59 -2.00 13.63 1.40 -0.41 -3.39 12011
0.06 -0.01 3.74 -2.09 13.07 1.21 -0.63 -3.48 12017
0.05 -0.01 3.91 -1.33 12.67 1.00 -0.95 -3.57 12023
0.06 -0.01 3.39 -0.87 11.85 0.81 -1.27 -3.67 12029
0.06 -0.01 3.97 -0.29 10.69 0.63 -1.62 -3.76 12036
0.06 0.00 4.09 0.55 9.81 0.48 -1.92 -3.81 12043
0.05 -0.01 5.43 2.51 8.28 0.39 -2.15 -3.84 12049
0.04 -0.00 7.41 3.67 7.28 0.27 -2.25 -3.71 12055
0.06 -0.01 7.74 2.01 6.96 0.15 -2.14 -3.38 12061
0.07 -0.01 7.27 1.49 9.44 -0.01 -1.66 -2.98 12067
0.06 -0.01 9.30 2.22 10.61 -0.25 -1.12 -2.67 12075
0.06 -0.00 10.37 2.88 10.09 -0.41 -0.85 -2.35 12081
0.05 -0.01 9.82 2.91 9.09 -0.51 -0.69 -2.05 12087
0.04 -0.00 9.33 2.86 7.80 -0.60 -0.47 -1.75 12093
0.06 -0.00 9.22 2.61 7.03 -0.64 -0.21 -1.44 12099
0.05 -0.01 9.34 2.11 6.99 -0.65 0.02 -1.17 12106
0.05 -0.00 9.18 1.56 7.38 -0.61 0.23 -0.95 12112
0.05 -0.01 8.84 1.15 7.61 -0.58 0.48 -0.77 12119
0.06 -0.01 8.29 0.89 7.91 -0.55 0.74 -0.60 12125
0.06 -0.01 7.78 0.74 8.32 -0.52 0.99 -0.46 12131
0.05 -0.00 7.01 0.03 8.74 -0.50 1.17 -0.32 12137
0.06 -0.01 6.15 0.50 9.24 -0.49 1.32 -0.19 12143
0.04 -0.00 5.51 0.45 9.70 -0.50 1.41 -0.04 12150
0.04 -0.00 5.09 0.46 10.04 -0.53 1.46 0.13 12156
0.06 -0.00 4.85 0.45 10.28 -0.57 1.48 0.30 12163
0.05 -0.01 4.86 0.38 10.50 -0.62 1.50 0.47 12169
0.04 -0.00 4.96 0.25 10.70 -0.68 1.53 0.62 12175
0.06 -0.01 4.99 0.06 10.89 -0.74 1.61 0.74 12182
0.05 -0.00 4.86 -0.17 10.94 -0.80 1.74 0.83 12188
0.03 -0.00 4.52 -0.50 10.88 -0.83 1.89 0.89 12194
0.05 -0.01 4.12 -0.86 10.81 -0.85 2.01 0.92 12200
0.05 -0.00 3.52 -1.16 10.81 -0.84 2.12 0.92 12207
0.04 -0.00 2.90 -1.44 10.94 -0.81 2.20 0.89 12214
0.06 -0.01 2.32 -1.56 11.16 -0.77 2.22 0.85 12220
0.05 -0.00 1.77 -1.62 11.51 -0.73 2.22 0.77 12226
0.04 -0.00 1.29 -1.54 11.82 -0.69 2.21 0.76 12232
0.04 -0.00 1.01 -1.33 12.19 -0.67 2.17 0.74 12238
0.04 -0.00 0.88 -1.14 12.55 -0.67 2.11 0.74 12246
0.05 0.00 0.93 -1.00 12.70 -0.69 2.06 0.75 12252
0.04 -0.00 0.92 -1.06 12.59 -0.75 2.01 0.77 12258
0.04 -0.00 0.80 -1.34 12.45 -0.80 1.99 0.77 12264
0.05 0.00 0.63 -1.88 12.36 -0.84 1.98 0.75 12270
0.05 -0.00 0.50 -2.42 12.19 -0.85 1.98 0.70 12277
0.04 -0.00 0.30 -2.80 11.95 -0.82 2.00 0.62 12283
0.04 -0.00 0.06 -2.95 11.70 -0.75 2.04 0.54 12290
0.05 -0.01 -0.20 -2.87 11.70 -0.70 2.10 0.49 12296
0.04 -0.00 -0.41 -2.62 11.90 -0.61 2.16 0.47 12302
0.05 -0.00 -0.88 -2.35 12.11 -0.52 2.20 0.49 12309
0.04 -0.00 -1.41 -2.13 12.34 -0.43 2.21 0.56 12315
0.05 -0.00 -1.87 -2.02 12.54 -0.35 2.19 0.68 12321
0.06 -0.01 -2.39 -1.98 12.71 -0.28 2.11 0.82 12327
0.05 -0.00 -2.94 -1.94 12.63 -0.21 1.99 0.95 12334
0.05 -0.01 -3.54 -1.86 12.37 -0.15 1.82 1.15 12341
0.06 -0.01 -3.80 -2.01 12.55 -0.08 1.62 1.36 12347
0.05 -0.00 -3.58 -1.97 13.18 -0.04 1.41 1.56 12353
0.04 0.00 -3.02 -1.94 13.77 -0.07 1.23 1.73 12359
0.04 -0.00 -2.56 -1.88 14.20 -0.16 1.12 1.88 12366
0.04 -0.00 -2.23 -2.11 14.42 -0.31 1.07 1.99 12372
0.05 -0.00 -2.31 -2.67 14.04 -0.49 1.03 2.04 12379
0.04 -0.00 -2.70 -3.29 13.36 -0.65 0.95 2.04 12385
0.02 -0.00 -3.06 -3.97 12.31 -0.72 0.85 1.99 12391
0.06 -0.01 -3.36 -4.54 11.22 -0.74 0.75 1.92 12398
0.05 -0.00 -3.41 -4.95 10.36 -0.69 0.68 1.84 12404
0.04 -0.00 -3.48 -5.28 9.81 -0.59 0.64 1.75 12410
0.05 -0.01 -3.58 -5.55 9.26 -0.47 0.63 1.69 12417
0.04 -0.00 -3.66 -5.76 8.90 -0.33 0.63 1.65 12423
0.03 -0.00 -3.93 -5.94 8.42 -0.18 0.61 1.64 12429
0.03 -0.00 -4.30 -6.28 8.07 -0.01 0.58 1.65 12436
0.04 -0.00 -4.79 -6.59 7.73 0.16 0.52 1.68 12442
0.04 -0.00 -5.28 -6.80 7.81 0.34 0.44 1.74 12448
0.04 0.00 -5.41 -6.66 8.87 0.50 0.39 1.83 12454
0.04 -0.00 -5.18 -6.12 10.54 0.60 0.42 1.94 12461
0.03 -0.00 -5.47 -5.69 11.33 0.53 0.50 2.05 12467
0.04 0.00 -6.55 -5.31 11.45 0.37 0.48 2.14 12474
0.04 -0.00 -7.77 -4.95 11.25 0.15 0.33 2.22 12480
0.03 -0.00 -8.90 -4.74 10.32 -0.06 0.03 2.28 12486
0.04 -0.00 -9.51 -4.69 8.98 -0.20 -0.31 2.31 12492
0.04 -0.00 -9.47 -4.70 7.41 -0.26 -0.73 2.27 12498
0.03 -0.00 -8.40 -4.61 6.61 -0.25 -1.06 2.26 12506
0.04 0.00 -9.36 -10.10 6.31 -0.15 -1.38 2.18 12512
0.04 -0.00 -16.49 -14.58 12.55 1.11 -3.91 1.99 12518
0.04 -0.00 -5.49 -9.85 -3.48 0.99 -3.83 1.82 12524
0.04 0.00 -3.23 -15.43 -7.48 0.91 -4.27 1.49 12531
0.02 0.06 -5.69 -6.71 7.82 1.29 -4.28 1.13 12537
0.03 0.35 -5.60 5.07 18.84 2.00 -4.28 1.04 12544
0.02 0.61 -4.06 -9.16 33.42 2.93 -2.80 1.06 12550
0.00 0.85 -2.77 -1.07 28.86 2.68 -2.39 1.03 12557
0.01 0.99 -7.61 0.15 27.58 1.98 -2.31 0.89 12563
0.00 0.94 -6.25 -0.85 19.11 0.81 -1.26 0.51 12569
0.01 0.88 -2.34 -1.00 12.40 0.29 -0.55 0.25 12575
-0.01 0.78 0.73 -0.38 9.19 0.28 -0.36 0.20 12582
0.02 0.64 1.98 -0.50 9.90 0.32 -0.45 0.28 12589
0.03 0.61 1.34 -0.59 10.73 0.17 -0.26 0.36 12595
0.03 0.55 -0.23 -1.51 10.23 0.03 -0.12 0.32 12601
0.02 0.62 -0.74 -2.01 10.22 -0.02 -0.09 0.20 12608
0.02 0.62 0.14 -1.26 9.68 -0.04 -0.06 0.11 12614
0.03 0.64 0.59 -0.81 9.90 -0.07 -0.03 0.07 12620
0.04 0.68 0.59 -0.93 9.95 -0.09 -0.03 0.04 12626
0.06 0.71 0.56 -0.67 10.43 -0.08 -0.04 0.04 12633
0.07 0.75 0.42 -0.47 10.41 -0.05 -0.02 0.04 12640
0.08 0.75 0.43 -0.52 10.07 -0.03 0.00 0.04 12646
0.10 0.72 0.59 -0.73 10.25 -0.02 0.01 0.04 12652
0.10 0.74 0.60 -0.73 10.14 -0.02 0.01 0.05 12658
0.10 0.73 0.62 -0.77 10.11 -0.03 0.01 0.05 12665
0.11 0.73 0.78 -0.73 10.14 -0.03 0.01 0.05 12672
0.15 0.73 0.80 -0.72 10.15 -0.03 0.02 0.04 12678
0.14 0.72 0.77 -0.67 10.07 -0.03 0.02 0.04 12684
0.11 0.74 0.78 -0.66 10.04 -0.02 0.01 0.04 12691
0.12 0.72 0.75 -0.64 10.16 -0.01 0.01 0.04 12697
0.11 0.71 0.77 -0.63 10.01 -0.01 0.01 0.04 12703
0.12 0.72 0.74 -0.67 10.05 -0.01 0.02 0.04 12709
0.11 0.72 0.76 -0.66 10.09 -0.01 0.02 0.04 12717
0.12 0.73 0.76 -0.68 9.97 -0.01 0.02 0.04 12723
0.13 0.73 0.76 -0.66 10.05 -0.01 0.01 0.04 12729
0.10 0.73 0.76 -0.59 10.02 -0.01 0.01 0.04 12735
0.07 0.75 0.79 -0.67 10.00 -0.01 0.01 0.04 12741
0.09 0.74 0.75 -0.58 9.96 -0.01 0.01 0.04 12748
0.07 0.72 0.79 -0.63 9.96 -0.00 0.01 0.04 12754
0.08 0.73 0.74 -0.57 10.00 0.00 0.02 0.04 12761
0.07 0.70 0.80 -0.65 10.03 0.00 0.03 0.04 12767
0.07 0.70 0.73 -0.65 10.01 0.00 0.04 0.04 12773
0.08 0.70 0.72 -0.64 10.04 0.01 0.04 0.04 12780
0.07 0.67 0.80 -0.60 10.02 0.01 0.04 0.04 12786
0.07 0.63 0.80 -0.63 10.01 0.01 0.04 0.04 12792
0.08 0.63 0.77 -0.64 10.04 0.00 0.03 0.04 12798
0.07 0.61 0.80 -0.63 10.08 0.01 0.04 0.04 12806
0.06 0.64 0.82 -0.63 10.01 0.01 0.03 0.04 12812
0.07 0.61 0.83 -0.68 10.05 0.01 0.03 0.04 12818
0.06 0.60 0.77 -0.62 10.03 0.00 0.03 0.04 12824
0.07 0.59 0.82 -0.60 9.96 0.01 0.02 0.04 12830
0.08 0.55 0.81 -0.01 9.99 0.01 0.02 0.04 12837
0.07 0.53 0.84 -0.65 9.97 0.01 0.02 0.03 12844
0.07 0.55 0.86 -0.63 9.98 0.00 0.01 0.03 12850
0.07 0.53 0.85 -0.66 9.99 -0.00 0.01 0.03 12856
0.06 0.52 0.83 -0.69 10.02 -0.00 0.01 0.03 12862
0.04 0.54 0.81 -0.66 9.99 -0.00 0.01 0.03 12868
0.06 0.56 0.86 -0.64 10.00 -0.00 0.01 0.03 12875
0.05 0.54 0.84 -0.65 9.99 -0.01 0.01 0.03 12881
0.06 0.55 0.86 -0.62 9.99 -0.00 0.01 0.03 12888
0.06 0.55 0.84 -0.61 10.02 -0.01 -0.00 0.03 12894
0.03 0.54 0.87 -0.63 10.02 -0.01 -0.00 0.03 12900
-0.01 0.56 0.90 -0.64 10.04 -0.00 -0.00 0.03 12907
0.05 0.55 0.85 -0.66 9.99 -0.01 -0.01 0.03 12913
0.04 0.54 0.85 -0.66 10.03 -0.01 -0.00 0.03 12919
0.06 0.55 0.82 -0.66 9.98 -0.01 -0.00 0.03 12925
0.04 0.54 0.83 -0.65 9.98 -0.01 -0.01 0.03 12932
0.05 0.53 0.87 -0.63 10.02 -0.01 -0.00 0.03 12939
0.07 0.55 0.86 -0.64 10.02 -0.01 -0.02 0.03 12945
0.06 0.54 0.84 -0.65 9.97 -0.01 -0.01 0.03 12951
0.05 0.56 0.84 -0.64 9.97 -0.01 -0.02 0.02 12957
0.06 0.57 0.88 -0.59 9.95 -0.01 -0.02 0.02 12963
0.06 0.55 0.81 -0.58 9.92 -0.00 -0.01 0.02 12971
0.06 0.55 0.87 -0.61 10.01 -0.00 -0.01 0.02 12977
0.06 0.52 0.84 -0.57 10.00 0.00 -0.02 0.02 12983
0.06 0.50 0.88 -0.63 9.98 0.01 -0.03 0.01 12989
0.07 0.48 0.88 -0.63 9.99 0.01 -0.04 0.02 12995
0.09 0.48 0.85 -0.63 9.99 0.01 -0.04 0.01 13002
0.08 0.45 0.89 -0.64 10.00 0.01 -0.04 0.02 13008
0.07 0.45 0.87 -0.65 9.95 0.01 -0.04 0.02 13015
0.07 0.44 0.86 -0.66 10.03 0.00 -0.04 0.02 13021
0.07 0.43 0.87 -0.66 10.02 0.00 -0.03 0.02 13027
0.07 0.42 0.88 -0.63 10.01 -0.00 -0.03 0.02 13034
0.09 0.41 0.86 -0.65 9.99 0.00 -0.02 0.02 13040
0.07 0.36 0.89 -0.61 10.00 0.00 -0.02 0.02 13046
0.07 0.37 0.84 -0.60 9.98 0.00 -0.02 0.02 13052
0.08 0.35 0.84 -0.66 9.95 0.00 -0.02 0.02 13059
0.07 0.35 0.83 -0.62 9.94 0.00 -0.02 0.02 13066
0.08 0.35 0.88 -0.61 9.96 0.01 -0.03 0.02 13072
0.09 0.31 0.84 -0.67 9.95 0.00 -0.03 0.02 13078
0.08 0.30 0.80 -0.63 9.94 0.00 -0.04 0.02 13084
0.08 0.31 0.87 -0.60 9.99 0.01 -0.04 0.01 13090
0.09 0.29 0.83 -1.20 9.92 0.01 -0.05 0.01 13096
0.08 0.27 0.86 -0.62 10.00 0.01 -0.05 0.01 13104
0.09 0.26 0.88 -0.63 9.92 0.01 -0.06 0.01 13110
0.10 0.25 0.87 -0.66 9.98 0.01 -0.07 0.00 13116
0.11 0.20 0.84 -0.66 9.91 -0.00 -0.08 0.00 13122
0.10 0.24 0.83 -0.66 9.96 -0.00 -0.08 0.00 13128
0.10 0.24 0.85 -0.68 9.94 -0.01 -0.09 0.00 13135
0.10 0.22 0.87 -0.64 9.98 -0.01 -0.09 -0.00 13142
0.10 0.22 0.88 -0.68 10.01 -0.01 -0.09 -0.00 13148
0.12 0.20 0.82 -0.64 10.04 -0.01 -0.09 -0.00 13154
0.12 0.20 0.88 -0.67 10.00 -0.01 -0.09 -0.00 13160
0.13 0.21 0.84 -0.63 9.98 -0.01 -0.10 -0.00 13167
0.12 0.18 0.82 -0.71 9.98 -0.01 -0.09 -0.01 13173
0.12 0.17 0.79 -0.71 10.01 -0.01 -0.09 0.00 13179
0.12 0.19 0.82 -0.69 9.99 -0.01 -0.09 0.00 13186
0.15 0.18 0.86 -0.66 10.00 -0.01 -0.09 0.03 13192
0.14 0.17 0.83 -0.71 10.02 -0.01 -0.09 -0.00 13199
0.15 0.15 0.80 -0.67 10.01 -0.02 -0.09 -0.01 13205
0.15 0.15 0.79 -0.64 9.99 -0.01 -0.09 -0.01 13211
0.16 0.17 0.76 -0.66 9.99 -0.01 -0.08 -0.00 13217
0.16 0.17 0.79 -0.69 10.03 -0.00 -0.07 -0.00 13224
0.14 0.15 0.78 -0.64 10.02 -0.00 -0.07 0.00 13231
0.16 0.14 0.81 -0.67 10.02 0.00 -0.07 0.01 13237
0.17 0.12 0.80 -0.66 10.00 0.01 -0.07 0.01 13243
0.17 0.11 0.84 -0.67 9.99 0.01 -0.07 0.01 13249
0.20 0.09 0.81 -0.67 10.01 0.02 -0.07 0.01 13256
0.22 0.05 0.89 -0.70 10.07 0.02 -0.07 0.01 13262
0.22 0.04 0.83 -0.68 10.04 0.02 -0.06 0.01 13268
0.24 0.03 0.79 -0.74 10.05 0.03 -0.06 0.00 13275
0.23 0.00 0.78 -0.68 10.03 0.04 -0.06 0.00 13281
0.26 -0.00 0.79 -0.67 10.09 0.05 -0.06 -0.00 13288
0.29 -0.00 0.81 -0.67 10.18 0.08 -0.06 -0.00 13294
0.31 -0.03 0.80 -0.70 10.28 0.12 -0.06 -0.01 13300
0.31 -0.01 0.81 -0.62 10.29 0.17 -0.07 -0.01 13306
0.30 -0.03 0.92 -0.06 10.46 0.22 -0.07 -0.02 13314
0.35 -0.02 0.93 -0.80 10.60 0.30 -0.09 -0.04 13320
0.40 -0.03 1.08 -0.84 11.11 0.41 -0.10 -0.08 13326
0.46 -0.05 1.49 -0.91 11.88 0.62 -0.11 -0.13 13332
0.50 -0.04 1.94 -1.11 13.57 1.03 -0.11 -0.24 13338
0.58 -0.04 1.90 -1.13 14.69 1.64 -0.18 -0.35 13345
0.57 -0.04 1.97 -1.34 14.86 2.12 -0.41 -0.46 13351
0.62 -0.04 2.27 -1.50 14.71 2.37 -0.69 -0.54 13358
0.64 -0.04 2.44 -1.21 14.90 2.55 -0.90 -0.64 13365
0.65 -0.02 2.72 -1.61 14.41 2.73 -1.11 -0.77 13371
0.61 -0.03 3.59 -2.26 13.33 2.84 -1.34 -0.87 13377
0.59 -0.03 3.41 -2.67 12.17 2.85 -1.49 -0.94 13383
0.56 -0.03 3.88 -3.55 11.57 2.75 -1.63 -1.09 13390
0.47 -0.02 5.42 -3.09 12.71 2.71 -1.73 -1.21 13396
0.44 -0.02 3.46 -3.72 13.36 2.70 -1.73 -1.34 13403
0.32 -0.03 3.81 -3.88 14.69 2.74 -1.71 -1.46 13410
0.23 -0.01 3.55 -4.04 14.51 2.75 -1.73 -1.54 13416
0.15 -0.01 3.50 -5.92 14.19 2.73 -1.74 -1.67 13422
0.15 0.00 4.89 -4.90 14.94 2.70 -1.63 -1.76 13428
0.13 -0.01 4.85 -5.10 14.13 2.62 -1.42 -1.88 13435
0.09 -0.01 5.72 -4.42 13.34 2.54 -1.15 -2.04 13442
0.10 -0.01 5.37 -4.92 14.32 2.42 -0.88 -2.21 13448
0.08 -0.01 5.00 -4.10 15.85 2.23 -0.83 -2.40 13454
0.07 -0.01 4.51 -3.56 16.75 2.02 -0.97 -2.52 13461
0.08 -0.01 4.89 -3.04 16.35 1.78 -1.20 -2.67 13467
0.08 -0.01 5.08 -1.86 14.73 1.55 -1.43 -2.82 13473
0.06 -0.01 5.88 -0.93 11.60 1.29 -1.63 -2.96 13479
0.06 -0.01 7.03 1.66 8.97 0.94 -1.89 -3.09 13486
0.05 -0.01 8.74 5.63 5.87 0.45 -2.23 -3.24 13493
0.05 -0.01 10.49 9.73 3.03 -0.06 -2.39 -3.32 13499
0.04 -0.00 11.35 7.84 1.44 -0.39 -2.25 -3.21 13505
0.04 -0.00 10.41 2.39 8.91 -0.55 -1.63 -2.95 13511
0.04 -0.00 10.44 0.24 11.67 -1.02 -0.78 -2.63 13517
0.04 -0.00 10.79 0.87 10.62 -1.25 -0.23 -2.29 13524
0.04 -0.00 9.83 1.57 8.86 -1.20 -0.08 -2.00 13531
0.06 -0.01 8.89 1.88 5.49 -1.18 -0.09 -1.74 13537
0.05 -0.00 8.43 1.88 3.99 -1.16 -0.13 -1.48 13543
0.04 -0.00 8.69 1.47 4.69 -1.08 -0.11 -1.24 13549
0.04 -0.00 9.16 0.92 5.76 -0.99 0.04 -1.05 13555
0.05 -0.01 9.52 0.52 6.61 -0.89 0.32 -0.86 13562
0.05 -0.00 9.49 0.43 6.90 -0.82 0.70 -0.71 13569
0.04 -0.00 9.19 0.55 7.19 -0.81 1.09 -0.59 13575
0.05 -0.01 8.44 0.69 7.62 -0.82 1.42 -0.50 13581
0.04 -0.00 7.37 0.51 8.17 -0.85 1.68 -0.42 13587
0.04 -0.00 6.31 0.09 8.73 -0.86 1.85 -0.35 13593
0.05 0.00 5.20 -0.32 9.17 -0.88 1.94 -0.27 13599
0.04 -0.00 4.58 -0.62 9.80 -0.91 1.94 -0.28 13606
0.04 -0.00 4.38 -0.66 10.24 -0.96 1.88 -0.29 13613
0.04 -0.00 4.19 -0.66 10.56 -1.02 1.88 -0.32 13619
0.05 -0.01 4.05 -0.82 10.77 -1.09 1.96 -0.37 13625
0.03 -0.00 3.93 -1.09 10.99 -1.16 2.13 -0.43 13631
0.05 -0.01 3.74 -1.43 11.41 -1.21 2.34 -0.49 13638
0.04 -0.00 3.28 -1.77 11.61 -1.25 2.54 -0.52 13644
0.04 -0.00 2.67 -2.09 11.80 -1.27 2.70 -0.53 13650
0.06 -0.01 2.00 -2.36 11.82 -1.26 2.82 -0.52 13657
0.05 -0.00 1.16 -2.71 11.90 -1.23 2.89 -0.49 13664
0.04 -0.00 0.41 -3.08 12.04 -1.16 2.89 -0.46 13670
0.06 -0.01 0.01 -3.24 12.27 -1.07 2.85 -0.44 13676
0.05 -0.01 -0.28 -3.42 12.54 -0.99 2.79 -0.43 13682
0.05 -0.01 -0.48 -3.42 12.73 -0.91 2.75 -0.43 13688
0.04 -0.00 -0.53 -3.43 13.11 -0.84 2.71 -0.42 13696
0.04 -0.00 -0.48 -3.28 13.75 -0.78 2.69 -0.41 13702
0.04 0.00 -0.47 -3.18 14.11 -0.73 2.69 -0.38 13708
0.05 -0.00 -0.60 -3.08 14.27 -0.70 2.71 -0.33 13714
0.05 -0.00 -0.88 -2.90 14.43 -0.68 2.71 -0.24 13720
0.05 -0.01 -1.31 -2.61 14.60 -0.66 2.73 -0.10 13727
0.06 -0.01 -1.83 -2.29 14.73 -0.63 2.73 0.10 13733
0.05 -0.01 -2.56 -1.87 14.44 -0.61 2.72 0.37 13740
0.06 -0.01 -3.50 -1.44 14.15 -0.58 2.65 0.69 13746
0.05 -0.00 -4.45 -1.18 13.80 -0.56 2.53 1.04 13753
0.04 -0.00 -5.16 -1.19 13.54 -0.52 2.34 1.40 13759
0.04 -0.00 -5.55 -1.24 13.17 -0.48 2.10 1.76 13765
0.04 -0.00 -5.68 -1.47 12.79 -0.45 1.85 2.09 13771
0.04 0.00 -5.45 -1.75 12.53 -0.41 1.59 2.34 13777
0.05 -0.00 -4.96 -2.08 12.31 -0.38 1.36 2.54 13785
0.04 -0.00 -4.48 -2.60 12.09 -0.35 1.19 2.66 13791
0.06 -0.01 -4.15 -3.20 11.59 -0.31 1.06 2.71 13797
0.05 -0.00 -3.73 -3.76 11.24 -0.27 0.94 2.69 13803
0.05 -0.00 -3.50 -4.17 10.82 -0.22 0.84 2.62 13809
0.05 -0.01 -3.03 -4.49 10.52 -0.17 0.81 2.50 13816
0.05 -0.01 -2.45 -4.61 10.69 -0.10 0.79 2.37 13822
0.05 -0.00 -1.73 -4.60 11.10 -0.04 0.83 2.22 13829
0.05 -0.00 -1.27 -4.41 11.40 -0.03 0.93 2.11 13835
0.04 -0.00 -1.52 -4.27 11.31 -0.05 1.07 1.98 13841
0.04 0.00 -2.29 -4.48 10.46 -0.07 1.21 1.87 13848
0.04 -0.00 -3.51 -4.77 10.65 -0.08 1.29 1.77 13854
0.03 -0.00 -4.67 -5.22 10.18 -0.06 1.27 1.68 13860
0.05 -0.01 -5.84 -5.71 9.70 0.01 1.14 1.60 13867
0.04 -0.00 -6.71 -6.06 9.31 0.11 0.92 1.54 13873
0.03 -0.00 -7.22 -6.22 9.00 0.20 0.64 1.48 13880
0.03 0.00 -7.40 -6.25 8.83 0.31 0.35 1.43 13886
0.03 -0.00 -7.16 -6.27 9.13 0.42 0.10 1.39 13892
0.03 -0.00 -6.80 -6.38 9.40 0.51 -0.08 1.35 13898
0.03 -0.00 -6.20 -6.35 9.31 0.55 -0.23 1.34 13904
0.05 -0.00 -5.82 -6.37 9.37 0.56 -0.35 1.32 13911
0.04 -0.00 -13.00 -10.10 13.30 0.72 -1.11 1.41 13918
0.04 -0.00 -15.93 -9.44 15.10 1.03 -2.75 1.67 13924
0.03 -0.00 -9.21 -5.79 4.97 0.83 -3.15 1.86 13930
0.02 -0.00 -5.74 -8.48 5.38 0.78 -3.80 1.95 13936
0.02 -0.00 -9.74 -13.15 9.12 0.76 -4.27 2.00 13942
0.04 -0.00 -11.60 -12.50 7.83 0.74 -4.28 2.06 13949
0.03 -0.00 -13.41 -11.18 6.61 0.83 -4.28 2.15 13956
0.04 0.09 -7.66 5.02 26.21 1.50 -4.28 2.25 13962
0.04 0.23 -18.02 -8.24 27.19 2.11 -3.05 2.32 13969
0.02 0.41 -19.66 2.62 24.88 0.88 -2.56 1.58 13975
0.02 0.56 -7.51 -2.67 14.15 -0.08 -0.25 0.55 13981
0.01 0.69 -5.83 -0.94 12.00 -0.10 -0.20 -0.04 13987
0.03 0.62 -0.13 -0.61 9.93 0.05 -0.10 -0.19 13995
0.02 0.56 3.08 -0.55 10.37 0.15 -0.05 -0.03 14001
0.02 0.51 2.39 -0.05 10.03 0.15 -0.05 0.19 14007
0.05 0.42 1.12 -0.79 10.35 0.12 -0.11 0.26 14013
0.05 0.41 0.48 -0.62 9.89 0.08 -0.17 0.25 14020
0.07 0.37 0.18 -0.92 9.69 0.04 -0.14 0.23 14026
0.08 0.38 0.03 -1.17 9.79 -0.01 -0.10 0.18 14032
0.10 0.43 0.32 -1.95 10.21 -0.06 -0.06 0.15 14039
0.11 0.42 0.11 -1.39 10.06 -0.06 -0.03 0.11 14045
0.08 0.47 0.21 -0.65 10.02 -0.08 -0.01 0.09 14052
0.08 0.56 0.24 -0.79 9.95 -0.09 0.00 0.08 14058
0.10 0.59 0.55 -0.71 10.28 -0.11 0.01 0.08 14064
0.09 0.62 0.04 -0.77 10.25 -0.10 -0.00 0.06 14070
0.10 0.70 0.01 -0.64 10.10 -0.08 -0.00 0.06 14077
0.10 0.65 0.66 -0.65 9.92 -0.06 -0.00 0.06 14084
0.09 0.72 0.54 -0.86 10.03 -0.05 -0.00 0.06 14090
0.10 0.75 0.61 -0.90 10.06 -0.05 -0.01 0.06 14096
0.09 0.75 0.60 -0.81 9.99 -0.05 -0.01 0.05 14102
0.09 0.82 0.61 -0.85 9.95 -0.05 -0.01 0.06 14109
0.08 0.80 0.63 -0.82 10.08 -0.05 -0.02 0.05 14115
0.07 0.82 0.61 -0.75 10.04 -0.05 -0.03 0.05 14121
0.10 0.82 0.61 -0.76 9.97 -0.04 -0.03 0.05 14128
0.09 0.86 0.55 -0.68 10.03 -0.03 -0.03 0.05 14134
0.09 0.86 0.57 -0.73 9.99 -0.03 -0.02 0.04 14141
0.11 0.87 0.59 -0.71 9.95 -0.03 -0.02 0.05 14147
0.08 0.86 0.60 -0.69 10.01 -0.03 -0.02 0.05 14153
0.11 0.87 0.59 -0.72 10.00 -0.03 -0.02 0.04 14159
0.13 0.85 0.58 -0.69 10.02 -0.02 -0.01 0.04 14167
0.12 0.87 0.60 -0.70 9.97 -0.02 -0.01 0.04 14173
0.12 0.87 0.58 -0.70 10.02 -0.02 -0.01 0.04 14179
0.11 0.85 0.59 -0.72 10.10 -0.02 -0.01 0.03 14185
0.12 0.84 1.20 -0.74 10.12 -0.01 -0.01 0.03 14191
0.15 0.81 0.66 -0.74 10.01 -0.01 -0.01 0.03 14198
0.13 0.82 1.21 -0.76 10.04 -0.01 -0.01 0.03 14204
0.11 0.80 0.65 -0.71 9.93 -0.01 -0.01 0.03 14211
0.14 0.77 0.61 -0.72 10.11 -0.01 -0.01 0.03 14217
0.14 0.75 0.61 -0.72 9.98 -0.01 -0.01 0.03 14224
0.13 0.74 0.60 -0.69 10.05 -0.01 -0.01 0.03 14230
0.16 0.71 0.62 -0.71 10.02 -0.01 -0.01 0.03 14236
0.16 0.71 0.60 -0.69 10.02 -0.01 -0.00 0.02 14242
0.18 0.71 0.62 -0.74 10.06 -0.01 -0.01 0.03 14249
0.17 0.69 0.63 -0.69 9.98 -0.01 -0.00 0.03 14256
0.16 0.71 0.63 -0.73 10.03 -0.00 -0.01 0.03 14262
0.17 0.70 0.62 -0.72 10.00 -0.01 -0.01 0.02 14268
0.17 0.68 0.66 -0.73 10.03 -0.01 -0.01 0.03 14274
0.16 0.71 0.63 -0.73 10.03 -0.00 -0.01 0.03 14281
0.19 0.66 0.60 -0.72 9.98 -0.01 -0.01 0.02 14287
0.18 0.64 0.64 -0.66 10.02 -0.01 -0.01 0.02 14294
0.20 0.64 0.65 -0.71 10.00 -0.01 -0.01 0.02 14300
0.16 0.63 0.67 -0.74 10.04 -0.01 -0.01 0.02 14307
0.15 0.62 0.67 -0.69 10.04 -0.01 -0.01 0.03 14313
0.18 0.59 0.65 -0.71 10.00 -0.01 -0.01 0.02 14319
0.15 0.57 0.65 -0.71 10.06 -0.01 -0.01 0.02 14325
0.15 0.58 0.64 -0.70 10.01 -0.01 -0.01 0.02 14331
0.16 0.57 0.67 -0.74 10.03 -0.01 -0.01 0.02 14339
0.15 0.56 0.65 -0.69 10.00 -0.01 -0.01 0.02 14345
0.16 0.56 0.67 -0.74 10.03 -0.01 -0.01 0.02 14351
0.14 0.54 0.65 -0.74 10.01 -0.01 -0.01 0.02 14357
0.15 0.56 0.67 -0.69 9.99 -0.01 -0.01 0.02 14364
0.15 0.57 0.66 -0.70 9.97 -0.01 -0.01 0.03 14370
0.14 0.56 0.65 -0.73 9.99 -0.01 -0.01 0.02 14376
0.15 0.58 0.61 -0.70 9.96 -0.02 -0.01 0.03 14383
0.14 0.58 0.63 -0.70 10.02 -0.02 -0.01 0.03 14389
0.14 0.58 0.66 -0.71 10.02 -0.02 -0.01 0.03 14396
0.14 0.61 0.66 -0.72 10.03 -0.02 -0.01 0.03 14402
0.12 0.61 0.63 -0.72 10.04 -0.02 -0.01 0.03 14408
0.13 0.63 0.65 -0.70 9.98 -0.02 -0.01 0.04 14414
0.12 0.65 0.63 -0.70 10.03 -0.02 -0.00 0.03 14422
0.09 0.65 0.63 -0.70 10.01 -0.02 -0.00 0.03 14428
0.08 0.67 0.67 -0.73 10.05 -0.01 -0.00 0.04 14434
0.06 0.67 0.67 -0.70 10.05 -0.01 -0.00 0.03 14440
0.05 0.69 0.66 -0.68 9.98 -0.01 -0.01 0.03 14446
0.06 0.69 0.69 -0.68 10.01 -0.01 -0.01 0.03 14453
0.04 0.68 0.66 -0.67 9.94 -0.01 -0.01 0.03 14459
0.05 0.67 0.69 -0.68 9.99 -0.01 -0.02 0.03 14466
0.07 0.70 0.69 -0.70 9.98 -0.01 -0.02 0.03 14472
0.05 0.70 0.68 -0.70 9.99 -0.01 -0.03 0.03 14478
0.05 0.70 0.68 -0.71 9.97 -0.01 -0.03 0.03 14485
0.07 0.72 0.67 -0.67 10.01 -0.01 -0.04 0.03 14491
0.08 0.73 0.70 -0.69 9.97 -0.02 -0.04 0.02 14497
0.05 0.72 0.65 -0.70 9.95 -0.02 -0.05 0.03 14503
0.07 0.72 0.67 -0.71 10.01 -0.02 -0.05 0.02 14510
0.04 0.71 0.66 -0.70 9.98 -0.02 -0.04 0.02 14517
0.04 0.71 0.68 -0.68 10.01 -0.02 -0.05 0.02 14523
0.05 0.74 0.65 -0.68 10.00 -0.02 -0.05 0.02 14529
0.04 0.74 0.68 -0.65 10.15 -0.02 -0.05 0.02 14535
0.05 0.74 0.67 -0.69 10.05 -0.01 -0.05 0.01 14541
0.06 0.74 0.67 -0.68 10.01 -0.01 -0.05 0.01 14548
0.05 0.75 0.67 -0.65 9.97 -0.01 -0.06 0.01 14555
0.06 0.77 0.63 -0.66 9.98 -0.01 -0.05 0.01 14561
0.06 0.74 0.69 -0.69 9.97 -0.01 -0.05 0.01 14567
0.07 0.74 0.71 -0.66 9.97 -0.01 -0.06 0.01 14573
0.06 0.73 0.66 -0.74 10.00 -0.01 -0.06 0.01 14580
0.04 0.71 0.67 -0.70 9.98 -0.00 -0.06 0.01 14586
0.04 0.70 0.69 -0.65 10.01 -0.01 -0.06 0.01 14593
0.06 0.71 0.73 -0.69 9.97 -0.00 -0.06 0.01 14599
0.07 0.70 0.70 -0.69 10.03 -0.00 -0.07 0.01 14606
0.04 0.69 0.66 -0.68 10.04 -0.00 -0.06 0.01 14612
0.07 0.66 0.64 -0.69 9.99 0.00 -0.06 0.01 14618
0.04 0.63 0.69 -0.72 10.02 0.00 -0.06 0.01 14624
0.04 0.61 0.64 -0.70 9.99 0.00 -0.06 0.01 14630
0.04 0.58 0.63 -0.68 10.02 0.01 -0.06 0.01 14638
0.07 0.54 0.64 -0.67 10.08 0.01 -0.06 0.00 14644
0.07 0.51 0.65 -0.66 10.05 0.03 -0.05 -0.00 14650
0.07 0.43 0.66 -0.65 10.11 0.04 -0.05 -0.01 14656
0.06 0.37 0.73 -0.76 10.06 0.05 -0.05 -0.01 14662
0.11 0.33 0.71 -0.80 10.07 0.06 -0.05 -0.01 14669
0.12 0.27 0.73 -0.80 10.07 0.06 -0.06 -0.02 14675
0.11 0.21 0.68 -0.80 10.09 0.08 -0.07 -0.02 14682
0.10 0.18 0.71 -0.78 10.18 0.09 -0.07 -0.02 14688
0.11 0.14 0.64 -0.75 10.16 0.11 -0.08 -0.03 14695
0.12 0.07 0.72 -0.82 10.25 0.13 -0.09 -0.03 14701
0.14 0.04 0.74 -0.87 10.27 0.16 -0.11 -0.04 14707
0.13 -0.01 1.00 -1.02 10.48 0.18 -0.14 -0.06 14713
0.15 -0.01 1.44 -1.29 10.73 0.24 -0.18 -0.11 14721
0.16 -0.02 2.38 -1.53 11.22 0.34 -0.30 -0.22 14727
0.18 -0.01 3.73 -2.31 12.00 0.52 -0.44 -0.43 14733
0.17 -0.02 6.80 -3.31 12.61 0.73 -0.67 -0.81 14739
0.18 -0.02 7.35 -3.66 13.43 0.95 -0.92 -1.27 14746
0.19 -0.02 6.73 -5.29 14.77 1.26 -1.07 -1.67 14752
0.14 -0.01 6.25 -4.01 12.96 1.52 -1.04 -2.03 14758
0.12 -0.01 6.16 -3.76 11.94 1.58 -1.00 -2.29 14765
0.11 -0.01 5.67 -3.76 12.14 1.51 -0.98 -2.53 14772
0.08 -0.00 6.84 -4.78 12.34 1.49 -0.98 -2.72 14778
0.08 -0.01 8.39 -4.70 12.68 1.49 -0.80 -2.87 14784
0.06 -0.01 6.80 -4.16 13.67 1.43 -0.63 -3.05 14790
0.07 -0.01 7.24 -3.26 14.54 1.24 -0.65 -3.22 14796
0.10 -0.01 6.31 -2.35 15.15 1.03 -0.93 -3.32 14803
0.07 -0.01 4.33 -1.79 16.05 0.85 -1.27 -3.36 14810
0.06 -0.00 1.68 -1.53 16.20 0.73 -1.57 -3.21 14816
0.05 -0.00 2.59 -1.14 13.65 0.65 -1.65 -2.72 14822
0.04 -0.00 7.93 0.69 11.28 0.60 -2.12 -2.04 14829
0.05 -0.01 8.93 1.79 11.79 0.61 -2.42 -1.42 14835
0.06 -0.01 11.00 2.27 11.79 0.49 -2.22 -0.98 14841
0.06 -0.01 12.30 3.03 9.57 0.33 -1.81 -0.63 14848
0.08 -0.01 11.54 4.04 7.87 0.27 -1.29 -0.36 14854
0.06 -0.01 10.55 4.64 7.15 0.30 -0.75 -0.14 14861
0.05 -0.01 9.71 4.94 6.70 0.38 -0.37 0.03 14867
0.08 -0.01 8.93 5.53 6.64 0.44 -0.16 0.19 14873
0.05 -0.00 7.90 6.05 6.83 0.48 -0.04 0.34 14879
0.04 -0.00 7.07 6.24 6.95 0.46 0.08 0.47 14885
0.05 0.00 6.35 5.89 7.12 0.40 0.21 0.60 14892
0.05 -0.01 5.63 5.41 7.43 0.35 0.31 0.68 14898
0.05 -0.00 5.12 5.08 7.98 0.31 0.40 0.68 14905
0.04 -0.00 4.77 4.96 8.22 0.27 0.50 0.62 14911
0.05 -0.01 4.40 4.92 8.48 0.21 0.63 0.52 14917
0.03 -0.00 4.10 4.74 8.68 0.14 0.77 0.40 14923
0.04 -0.00 3.72 4.56 9.16 0.05 0.85 0.26 14929
0.05 0.00 3.42 4.21 9.63 -0.04 0.93 0.15 14936
0.04 -0.00 3.18 3.85 9.96 -0.15 0.97 0.03 14942
0.04 -0.00 3.02 3.42 10.39 -0.27 1.01 -0.08 14949
0.04 0.00 3.07 2.90 10.82 -0.40 1.03 -0.16 14955
0.04 -0.00 3.14 2.38 11.17 -0.54 1.05 -0.20 14961
0.03 -0.00 3.16 1.86 11.21 -0.66 1.06 -0.21 14967
0.03 0.00 3.15 1.31 10.91 -0.76 1.05 -0.19 14974
0.03 -0.00 3.19 0.74 10.55 -0.81 1.04 -0.15 14981
0.02 -0.00 3.36 0.23 10.37 -0.86 1.03 -0.12 14987
0.05 -0.00 3.43 -0.20 10.28 -0.87 1.06 -0.08 14993
0.04 -0.00 3.42 -0.64 10.30 -0.85 1.12 -0.06 14999
0.03 -0.00 3.31 -1.07 10.48 -0.83 1.21 -0.03 15006
0.04 -0.00 3.06 -1.35 10.77 -0.81 1.30 -0.01 15012
0.03 -0.00 2.69 -1.59 10.96 -0.78 1.36 0.02 15019
0.03 -0.00 2.33 -1.80 11.17 -0.75 1.39 0.06 15025
0.06 -0.01 2.08 -2.05 11.40 -0.73 1.39 0.11 15031
0.04 -0.00 1.98 -2.30 11.60 -0.71 1.37 0.17 15037
0.05 -0.00 1.96 -2.42 11.71 -0.70 1.34 0.23 15044
0.06 -0.01 1.97 -2.57 11.81 -0.68 1.30 0.28 15050
0.05 -0.00 2.00 -2.53 11.66 -0.65 1.28 0.33 15056
0.05 -0.00 2.00 -2.51 11.44 -0.63 1.29 0.36 15063
0.05 -0.00 1.91 -2.66 11.34 -0.62 1.32 0.37 15069
0.05 -0.01 1.80 -2.74 11.38 -0.62 1.41 0.35 15076
0.05 -0.00 1.50 -2.82 11.58 -0.62 1.51 0.31 15082
0.05 -0.00 0.95 -2.76 11.51 -0.61 1.64 0.27 15088
0.03 -0.00 0.19 -2.67 11.44 -0.60 1.73 0.22 15094
0.06 -0.01 -0.44 -2.68 11.51 -0.59 1.77 0.17 15101
0.06 -0.01 -0.92 -2.70 11.69 -0.57 1.76 0.10 15108
0.05 -0.01 -1.42 -2.76 11.86 -0.56 1.71 0.02 15114
0.07 -0.01 -1.83 -2.76 11.93 -0.54 1.66 -0.06 15120
0.05 -0.01 -2.12 -2.81 12.12 -0.53 1.60 -0.16 15126
0.05 -0.00 -2.56 -2.83 12.18 -0.53 1.52 -0.23 15133
0.06 -0.01 -2.91 -2.70 12.31 -0.54 1.41 -0.25 15139
0.05 -0.00 -3.08 -2.47 12.23 -0.55 1.29 -0.26 15145
0.05 0.00 -3.19 -2.26 12.02 -0.57 1.15 -0.21 15152
0.04 -0.00 -3.14 -2.12 11.84 -0.60 1.01 -0.13 15159
0.03 -0.00 -2.98 -2.13 11.56 -0.63 0.86 -0.02 15165
0.05 -0.01 -2.65 -2.20 11.17 -0.65 0.71 0.10 15171
0.04 -0.00 -2.37 -2.49 10.71 -0.65 0.57 0.23 15177
0.03 -0.00 -2.12 -2.80 10.16 -0.64 0.45 0.34 15183
0.04 -0.00 -1.73 -3.14 9.71 -0.59 0.35 0.44 15191
0.04 -0.00 -1.28 -3.54 9.38 -0.51 0.27 0.48 15197
0.04 -0.00 -0.67 -3.81 9.47 -0.47 0.22 0.49 15203
0.05 -0.01 0.51 -3.91 9.59 -0.41 0.24 0.50 15209
0.05 -0.00 0.43 -4.02 9.79 -0.36 0.32 0.52 15215
0.04 -0.00 0.72 -4.03 9.71 -0.33 0.41 0.55 15221
0.05 0.00 0.86 -4.08 9.68 -0.32 0.48 0.60 15227
0.04 -0.00 0.93 -4.16 9.54 -0.31 0.52 0.68 15235
0.04 -0.00 1.16 -4.28 9.46 -0.31 0.53 0.77 15241
0.04 -0.00 1.19 -4.40 9.15 -0.30 0.56 0.87 15247
0.06 -0.01 0.89 -4.44 8.68 -0.24 0.59 0.99 15253
0.04 -0.00 0.47 -4.52 8.38 -0.21 0.63 1.10 15259
0.03 -0.00 0.06 -4.50 8.24 -0.13 0.67 1.21 15265
0.05 0.00 -0.43 -4.44 8.25 -0.03 0.73 1.31 15272
0.04 -0.00 -1.13 -4.34 8.40 0.08 0.81 1.38 15279
0.04 -0.00 -2.17 -4.11 8.36 0.17 0.88 1.45 15285
0.05 0.00 -3.48 -3.87 8.45 0.25 0.89 1.52 15291
0.05 -0.01 -4.72 -3.69 8.31 0.33 0.79 1.58 15297
0.04 -0.00 -5.64 -3.47 8.11 0.40 0.61 1.62 15303
0.04 -0.00 -6.10 -3.32 7.84 0.45 0.35 1.66 15309
0.04 -0.00 -5.94 -3.05 8.04 0.51 0.08 1.69 15316
0.03 -0.00 -5.32 -2.88 8.42 0.57 -0.10 1.71 15323
0.02 -0.00 -4.51 -2.99 8.79 0.59 -0.26 1.70 15329
0.03 -0.00 -3.74 -3.04 8.96 0.57 -0.34 1.68 15335
0.04 -0.00 -3.07 -2.96 9.09 0.53 -0.37 1.63 15341
0.04 -0.00 -2.73 -2.89 8.92 0.46 -0.34 1.59 15347
0.03 -0.00 -2.55 -2.84 8.57 0.39 -0.31 1.54 15354
0.02 -0.00 -2.32 -2.74 8.07 0.34 -0.33 1.49 15361
0.04 -0.00 -1.70 -2.45 7.21 0.31 -0.40 1.44 15367
0.04 -0.00 -15.18 -22.51 17.33 0.48 -1.95 1.46 15373
0.04 -0.00 -12.08 -7.46 11.78 1.69 -4.11 1.55 15379
0.02 -0.00 -6.33 -7.23 -4.27 1.11 -4.28 1.55 15386
0.05 0.00 -4.95 -15.37 -3.18 0.81 -4.28 1.48 15392
0.04 0.04 -11.78 -13.24 9.69 0.97 -4.28 1.35 15398
0.03 0.36 -19.65 3.99 39.46 3.07 -3.79 1.47 15406
0.02 0.58 -19.37 -1.58 66.57 2.23 -3.66 1.04 15412
0.04 0.78 -3.66 -3.46 14.49 -0.03 -0.55 0.44 15418
0.05 0.82 -5.14 -1.12 12.06 -0.13 -0.27 -0.04 15424
0.02 0.79 0.30 -0.90 10.43 0.02 -0.09 -0.09 15431
0.00 0.72 1.58 -0.30 10.12 0.15 0.00 0.08 15437
0.04 0.63 1.58 -0.17 10.27 0.19 0.04 0.18 15443
0.07 0.55 0.58 -0.34 10.26 0.15 -0.01 0.19 15450
0.05 0.53 1.14 -0.57 9.80 0.05 -0.09 0.17 15457
0.06 0.50 0.67 -1.43 9.53 0.01 -0.06 0.19 15463
0.05 0.53 0.29 -1.38 9.77 -0.03 -0.04 0.16 15469
0.05 0.58 0.14 -1.31 10.10 -0.06 -0.03 0.12 15475
