Voltage_01 Voltage_02 Acc_x Acc_y Acc_z Gyro_x Gyro_y Gyro_z Time
5000
0.03 0.40 0.30 -0.74 11.29 -0.05 0.22 -0.09 23
0.03 0.42 1.98 -0.68 10.43 0.00 0.02 -0.07 29
0.03 0.42 3.39 -0.82 10.48 0.02 -0.08 0.07 35
0.04 0.37 2.31 -0.59 10.25 0.06 -0.11 0.19 41
0.04 0.35 2.21 -0.23 10.21 0.05 -0.20 0.29 48
0.03 0.33 0.68 -0.55 9.92 0.01 -0.22 0.34 54
0.05 0.34 -0.19 -0.91 9.19 0.00 -0.18 0.27 60
0.05 0.36 -0.64 -0.95 9.74 0.00 -0.06 0.26 67
0.06 0.34 -0.33 -0.50 9.58 0.00 0.06 0.25 73
0.04 0.39 0.14 -0.84 9.79 -0.02 0.12 0.24 79
0.04 0.37 0.54 -1.97 10.36 -0.05 0.13 0.23 86
0.04 0.46 1.32 -0.78 9.80 -0.08 0.10 0.22 92
0.05 0.47 1.11 -1.37 10.18 -0.10 0.05 0.20 98
0.05 0.52 1.05 -0.93 10.29 -0.10 0.03 0.17 104
0.04 0.57 0.72 -0.78 10.04 -0.09 0.01 0.14 110
0.03 0.67 0.77 -0.74 10.08 -0.08 0.00 0.12 116
0.05 0.71 0.85 -0.75 10.02 -0.07 -0.01 0.12 122
0.03 0.79 0.81 -0.76 10.11 -0.06 -0.01 0.12 130
0.02 0.77 0.80 -0.76 10.13 -0.06 -0.02 0.12 136
0.02 0.83 0.73 -0.74 10.09 -0.05 -0.02 0.11 142
0.04 0.88 0.74 -0.78 9.98 -0.05 -0.02 0.11 148
0.04 0.87 0.75 -0.76 9.97 -0.04 -0.03 0.11 154
0.05 0.90 0.72 -0.74 9.97 -0.04 -0.03 0.11 160
0.03 0.97 1.07 -0.74 10.58 -0.04 -0.03 0.10 166
0.04 0.96 0.71 -0.72 9.97 -0.04 -0.00 0.10 173
0.04 0.98 0.69 -0.69 9.90 -0.04 -0.03 0.09 179
0.03 0.98 0.69 -0.70 9.89 -0.03 -0.03 0.09 185
0.03 1.02 0.78 -0.73 9.92 -0.03 -0.02 0.09 192
0.03 1.00 0.77 -0.71 10.05 -0.03 -0.03 0.09 198
0.03 1.03 0.74 -0.73 10.04 -0.02 -0.02 0.08 204
0.03 1.04 0.78 -0.71 10.05 -0.02 -0.03 0.08 210
0.05 1.03 0.75 -0.75 10.04 -0.02 -0.02 0.07 217
0.03 1.00 0.74 -0.73 10.01 -0.02 -0.02 0.07 223
0.03 1.00 0.76 -0.74 10.01 -0.02 -0.02 0.06 229
0.04 1.04 0.74 -0.71 9.99 -0.02 -0.02 0.06 235
0.06 1.02 0.76 -0.72 10.06 -0.02 -0.02 0.06 242
0.05 0.98 0.80 -0.70 10.06 -0.01 -0.02 0.05 248
0.04 0.95 0.76 -0.70 10.02 -0.02 -0.02 0.05 254
0.06 0.94 0.76 -0.71 10.01 -0.01 -0.02 0.05 261
0.05 0.96 0.75 -0.73 10.00 -0.01 -0.02 0.05 267
0.05 0.89 0.75 -0.70 10.10 -0.01 -0.02 0.05 273
0.05 0.89 0.79 -0.68 9.98 -0.00 -0.02 0.06 279
0.06 0.92 0.79 -0.71 9.98 -0.00 -0.02 0.05 285
0.06 0.89 0.77 -0.69 10.05 -0.00 -0.02 0.06 292
0.05 0.86 0.77 -0.72 9.90 -0.00 -0.02 0.05 299
0.05 0.84 0.75 -0.71 9.96 -0.00 -0.02 0.05 305
0.06 0.82 0.79 -0.69 10.03 0.00 -0.02 0.06 311
0.06 0.78 0.76 -0.69 9.94 -0.00 -0.02 0.05 317
0.05 0.79 0.81 -0.71 9.95 -0.00 -0.02 0.05 323
0.04 0.72 0.78 -0.68 9.91 0.00 -0.02 0.05 329
0.05 0.73 0.80 -0.73 10.00 0.00 -0.02 0.05 335
0.07 0.70 0.79 -0.71 9.96 0.00 -0.03 0.05 342
0.06 0.65 0.76 -0.69 9.95 0.00 -0.03 0.04 348
0.05 0.65 0.80 -0.69 10.05 0.01 -0.03 0.05 354
0.05 0.65 0.78 -0.67 10.01 0.00 -0.03 0.05 360
0.08 0.60 0.76 -0.70 10.04 0.01 -0.03 0.05 367
0.07 0.56 0.80 -0.68 9.98 0.00 -0.03 0.04 373
0.08 0.51 0.79 -0.72 9.98 0.01 -0.03 0.04 379
0.07 0.53 0.78 -0.68 10.01 0.01 -0.03 0.04 386
0.09 0.52 0.79 -0.75 9.99 0.00 -0.03 0.04 392
0.09 0.49 0.79 -0.71 9.94 0.00 -0.03 0.04 398
0.09 0.48 0.76 -0.71 9.96 -0.01 -0.03 0.05 404
0.10 0.51 0.78 -0.72 9.94 -0.01 -0.03 0.04 410
0.12 0.53 0.77 -0.72 9.96 -0.01 -0.03 0.04 416
0.13 0.49 0.78 -0.74 10.00 -0.02 -0.03 0.04 422
0.11 0.51 0.74 -0.69 9.95 -0.02 -0.03 0.04 429
0.11 0.50 0.81 -0.69 9.91 -0.01 -0.03 0.04 436
0.12 0.52 0.82 -0.73 9.96 -0.01 -0.03 0.04 442
0.14 0.52 0.83 -0.70 10.03 -0.01 -0.03 0.04 448
0.13 0.49 0.81 -0.71 10.00 -0.01 -0.04 0.04 454
0.14 0.48 0.85 -0.68 9.96 -0.01 -0.05 0.03 460
0.16 0.53 0.83 -0.70 10.04 -0.00 -0.05 0.03 466
0.15 0.50 0.74 -0.71 9.95 -0.01 -0.05 0.03 473
0.15 0.48 0.81 -0.71 9.87 -0.01 -0.05 0.03 479
0.13 0.46 0.78 -0.66 9.95 -0.01 -0.05 0.03 485
0.14 0.49 0.76 -0.71 9.94 -0.01 -0.05 0.03 492
0.13 0.47 0.77 -0.69 9.95 -0.00 -0.06 0.03 498
0.13 0.49 0.79 -0.70 10.00 -0.00 -0.05 0.03 504
0.15 0.44 0.76 -0.69 9.97 -0.01 -0.05 0.03 510
0.15 0.47 0.76 -0.69 9.97 -0.00 -0.05 0.03 517
0.15 0.48 0.77 -0.67 9.97 -0.00 -0.05 0.03 523
0.17 0.47 0.76 -0.70 9.98 -0.00 -0.05 0.03 529
0.17 0.47 0.77 -0.71 9.97 -0.00 -0.05 0.03 535
0.18 0.43 0.76 -0.70 10.02 -0.00 -0.05 0.03 541
0.20 0.45 0.77 -0.70 10.03 -0.00 -0.04 0.03 547
0.18 0.47 0.78 -0.69 10.01 -0.03 -0.05 0.04 555
0.16 0.46 0.74 -0.72 9.98 0.00 -0.05 0.04 561
0.18 0.43 0.80 -0.69 10.03 0.00 -0.05 0.04 567
0.21 0.40 0.76 -0.72 9.97 0.00 -0.05 0.03 573
0.19 0.40 0.76 -0.72 9.97 0.00 -0.05 0.04 579
0.20 0.39 0.72 -0.71 9.97 0.00 -0.05 0.04 585
0.19 0.37 0.74 -0.73 9.97 0.00 -0.05 0.04 591
0.19 0.39 0.72 -0.73 9.97 -0.00 -0.05 0.04 598
0.19 0.36 0.73 -0.74 9.98 0.00 -0.05 0.05 604
0.16 0.37 0.79 -0.74 9.97 0.00 -0.05 0.05 610
0.13 0.35 0.79 -0.70 9.96 -0.00 -0.06 0.05 616
0.15 0.34 0.82 -0.72 9.98 0.00 -0.06 0.05 622
0.17 0.34 0.80 -0.73 9.94 -0.00 -0.06 0.04 629
0.16 0.32 0.74 -0.74 9.97 0.01 -0.05 0.04 635
0.16 0.31 0.68 -0.75 9.96 0.01 -0.05 0.04 642
0.17 0.30 0.68 -0.70 9.97 0.01 -0.04 0.04 648
0.21 0.28 0.73 -0.74 9.99 0.02 -0.04 0.04 654
0.22 0.23 0.70 -0.71 10.02 0.02 -0.04 0.04 660
0.23 0.23 0.75 -0.74 10.05 0.03 -0.03 0.04 666
0.25 0.20 0.71 -0.66 10.04 0.04 -0.03 0.04 672
0.27 0.19 0.74 -0.73 10.08 0.05 -0.03 0.03 678
0.27 0.14 0.74 -0.73 10.06 0.06 -0.02 0.04 686
0.28 0.09 0.76 -0.75 10.11 0.09 -0.03 0.03 692
0.29 0.07 0.81 -0.74 10.28 0.13 -0.03 0.03 698
0.31 0.06 0.86 -0.76 10.44 0.19 -0.04 0.02 704
0.37 -0.00 0.95 -0.82 10.59 0.30 -0.06 0.01 710
0.38 0.01 1.08 -0.90 10.66 0.35 -0.11 -0.00 716
0.40 -0.02 1.50 -1.14 10.87 0.44 -0.20 -0.06 722
0.41 -0.03 2.27 -1.33 11.78 0.62 -0.31 -0.21 730
0.41 -0.03 3.74 -1.83 13.10 0.99 -0.43 -0.45 736
0.45 -0.03 4.45 -2.24 14.50 1.53 -0.65 -0.70 742
0.41 -0.02 4.60 -2.53 14.84 1.84 -0.93 -0.94 748
0.43 -0.02 5.20 -2.74 12.92 1.92 -1.20 -1.18 754
0.38 -0.01 6.83 -3.96 12.93 1.88 -1.28 -1.46 760
0.34 -0.02 7.52 -3.69 12.04 1.89 -1.23 -1.76 768
0.32 -0.02 7.21 -4.21 12.34 1.88 -1.07 -2.06 774
0.31 -0.01 6.53 -4.00 11.95 1.86 -0.98 -2.31 780
0.23 -0.02 6.65 -3.51 10.68 1.78 -0.95 -2.55 786
0.17 -0.02 6.02 -3.25 11.87 1.71 -0.86 -2.75 792
0.12 0.00 6.85 -4.31 11.87 1.56 -0.73 -2.91 798
0.10 -0.01 6.42 -3.88 13.84 1.43 -0.64 -3.11 805
0.07 -0.01 5.68 -3.72 14.82 1.26 -0.68 -3.29 812
0.05 -0.01 5.51 -3.08 14.31 1.09 -0.86 -3.40 818
0.06 -0.01 5.61 -2.49 12.85 0.93 -1.15 -3.49 824
0.07 -0.01 5.70 -0.85 12.26 0.73 -1.55 -3.57 830
0.05 -0.01 5.69 0.26 11.83 0.39 -1.90 -3.61 836
0.05 -0.01 5.79 1.07 10.93 0.02 -2.29 -3.61 842
0.05 -0.01 6.69 1.49 9.11 -0.25 -2.52 -3.52 848
0.05 -0.00 9.73 1.27 7.69 -0.38 -2.53 -3.19 855
0.05 -0.00 9.00 -0.09 8.30 -0.41 -2.01 -2.61 861
0.04 -0.00 11.12 0.43 9.94 -0.47 -1.19 -2.06 867
0.04 -0.00 11.82 1.31 7.94 -0.58 -0.58 -1.67 874
0.05 -0.01 9.94 1.29 6.00 -0.57 -0.25 -1.30 880
0.05 -0.00 8.18 1.08 4.44 -0.48 0.07 -0.95 886
0.04 -0.00 7.25 1.09 4.30 -0.37 0.41 -0.59 892
0.03 -0.00 6.87 0.86 5.14 -0.21 0.69 -0.27 899
0.05 -0.00 6.30 0.85 5.80 -0.05 1.04 -0.05 905
0.04 -0.00 5.52 1.07 6.27 0.09 1.37 0.17 911
0.05 -0.01 4.70 1.35 6.66 0.17 1.65 0.35 917
0.05 -0.01 3.65 1.63 7.14 0.20 1.86 0.49 923
0.05 -0.01 2.76 1.78 7.76 0.20 1.96 0.62 929
0.04 -0.00 1.59 1.68 8.21 0.19 2.01 0.67 935
0.05 0.00 0.50 1.51 8.60 0.16 1.98 0.73 942
0.05 -0.01 -0.42 1.33 8.92 0.10 1.88 0.74 948
0.04 -0.00 -1.79 1.11 8.95 0.12 1.72 0.72 954
0.04 -0.00 -1.89 0.97 9.14 0.09 1.58 0.64 960
0.03 -0.00 -2.24 0.77 9.28 0.08 1.41 0.59 966
0.04 -0.00 -2.41 0.80 9.60 0.06 1.26 0.48 972
0.05 -0.00 -2.39 0.84 10.08 0.03 1.16 0.33 978
0.05 -0.00 -2.15 0.84 10.78 -0.03 1.13 0.18 985
0.04 -0.00 -1.80 0.78 11.27 -0.11 1.15 0.03 991
0.04 -0.00 -1.65 0.72 11.88 -0.22 1.24 -0.15 997
0.04 -0.00 -1.78 0.61 12.04 -0.36 1.37 -0.33 1004
0.04 -0.00 -2.21 0.31 12.04 -0.49 1.48 -0.49 1010
0.04 -0.00 -2.76 0.03 11.97 -0.59 1.52 -0.63 1016
0.04 -0.00 -3.35 -0.29 11.77 -0.68 1.50 -0.73 1022
0.05 -0.00 -3.71 -0.62 11.64 -0.72 1.40 -0.80 1029
0.04 -0.00 -3.91 -0.91 11.49 -0.73 1.22 -0.84 1035
0.04 -0.00 -3.82 -1.13 11.50 -0.72 1.03 -0.85 1042
0.06 -0.01 -3.53 -1.34 11.50 -0.69 0.85 -0.82 1048
0.04 -0.00 -3.13 -1.47 11.57 -0.67 0.71 -0.76 1054
0.04 -0.00 -2.70 -1.59 11.62 -0.64 0.59 -0.68 1060
0.05 -0.01 -2.27 -1.74 11.59 -0.63 0.49 -0.57 1067
0.04 -0.00 -1.91 -1.85 11.58 -0.61 0.38 -0.46 1073
0.03 -0.00 -1.46 -1.92 11.42 -0.58 0.27 -0.33 1080
0.05 -0.00 -1.04 -2.06 11.22 -0.56 0.16 -0.20 1086
0.04 -0.00 -0.01 -2.22 11.11 -0.53 0.10 -0.07 1092
0.04 -0.00 -0.13 -2.28 11.14 -0.49 0.05 0.06 1098
0.04 -0.00 0.34 -2.41 11.15 -0.46 0.06 0.15 1104
0.05 -0.01 0.71 -2.47 11.03 -0.43 0.09 0.28 1111
0.04 -0.00 0.95 -2.53 11.06 -0.42 0.16 0.40 1117
0.03 -0.00 0.93 -2.52 10.98 -0.40 0.24 0.51 1124
0.04 -0.00 0.73 -2.59 10.89 -0.39 0.30 0.63 1130
0.04 -0.00 0.57 -2.67 10.70 -0.37 0.34 0.75 1136
0.04 -0.00 0.31 -2.74 10.66 -0.35 0.30 0.86 1142
0.04 0.00 0.00 -2.74 10.71 -0.32 0.29 0.96 1148
0.04 -0.00 -0.16 -2.76 10.74 -0.29 0.21 1.06 1155
0.04 -0.00 -0.15 -2.68 10.68 -0.27 0.12 1.09 1161
0.04 -0.00 -0.00 -2.60 10.50 -0.26 0.04 1.15 1168
0.05 -0.01 0.12 -2.43 10.08 -0.25 -0.02 1.18 1174
0.04 -0.00 0.31 -2.56 10.02 -0.23 -0.04 1.21 1180
0.03 -0.00 0.46 -2.47 9.98 -0.22 -0.02 1.22 1186
0.05 -0.00 0.64 -2.30 9.87 -0.20 0.03 1.21 1192
0.05 -0.01 0.75 -2.17 9.74 -0.17 0.02 1.22 1199
0.04 -0.00 0.76 -2.01 9.60 -0.15 0.05 1.22 1205
0.04 -0.00 0.84 -1.89 9.66 -0.14 0.08 1.23 1211
0.05 -0.00 0.94 -1.90 9.83 -0.14 0.11 1.22 1218
0.05 -0.01 0.97 -1.96 10.07 -0.16 0.15 1.22 1224
0.05 -0.00 1.06 -2.00 10.10 -0.18 0.20 1.21 1230
0.05 -0.00 1.03 -2.11 10.06 -0.21 0.27 1.20 1236
0.06 -0.01 0.93 -2.18 9.84 -0.24 0.26 1.18 1243
0.04 -0.00 0.84 -2.27 9.58 -0.26 0.27 1.17 1249
0.04 -0.00 0.76 -2.45 9.41 -0.26 0.28 1.17 1255
0.04 -0.00 0.65 -2.56 9.24 -0.25 0.29 1.16 1261
0.06 -0.01 0.55 -2.66 9.13 -0.22 0.30 1.15 1268
0.05 -0.00 0.51 -2.79 9.13 -0.18 0.33 1.13 1274
0.04 -0.00 0.43 -2.83 9.21 -0.15 0.35 1.10 1281
0.04 -0.00 0.30 -2.83 9.19 -0.12 0.38 1.07 1287
0.05 -0.01 0.02 -2.84 9.24 -0.10 0.40 1.05 1293
0.04 -0.00 -0.01 -2.87 9.33 -0.10 0.41 1.03 1299
0.04 -0.00 -0.07 -2.82 9.45 -0.10 0.40 1.01 1305
0.04 -0.00 -0.11 -2.85 9.45 -0.11 0.41 1.00 1311
0.05 -0.01 -0.12 -2.84 9.61 -0.12 0.41 0.99 1317
0.05 -0.00 -0.24 -2.85 9.73 -0.16 0.42 0.99 1324
0.04 -0.00 -0.35 -2.82 9.72 -0.20 0.42 0.99 1330
0.04 -0.00 -0.47 -2.84 9.49 -0.24 0.42 1.00 1337
0.04 -0.00 -0.65 -2.90 9.20 -0.27 0.39 1.01 1343
0.04 -0.00 -0.78 -3.02 8.90 -0.27 0.35 1.01 1349
0.04 -0.00 -0.81 -3.19 8.69 -0.25 0.34 1.02 1355
0.04 -0.00 -0.84 -3.28 8.58 -0.22 0.34 1.03 1361
0.04 -0.00 -0.95 -3.34 8.47 -0.18 0.35 1.03 1368
0.04 -0.00 -1.02 -3.41 8.46 -0.15 0.38 1.04 1374
0.04 -0.00 -1.21 -3.45 8.64 -0.11 0.41 1.06 1380
0.04 -0.00 -5.29 -5.57 10.55 -0.03 0.24 1.09 1386
0.05 -0.01 -13.13 -5.90 16.08 0.35 -1.97 1.25 1393
0.04 -0.00 -8.30 -3.01 5.46 0.28 -2.28 1.39 1399
0.03 -0.00 -6.57 -4.74 6.66 0.24 -2.90 1.50 1405
0.04 -0.00 -8.24 -8.95 10.19 0.21 -3.27 1.59 1412
0.04 0.00 -9.98 -4.14 16.69 1.10 -2.46 1.99 1418
0.04 0.04 -9.70 -10.06 8.96 1.09 -1.44 2.34 1424
0.03 0.09 -17.38 -1.46 23.66 0.72 -1.90 1.96 1431
0.02 0.12 -17.70 -5.49 13.57 0.07 -0.67 1.04 1437
0.04 0.18 -6.57 -1.64 11.31 -0.16 0.03 0.27 1443
0.04 0.22 -2.29 -0.79 10.11 -0.18 0.11 -0.01 1449
0.03 0.22 0.34 -0.01 10.00 -0.10 0.19 -0.09 1457
0.04 0.26 2.79 -0.00 10.13 -0.05 0.09 -0.01 1463
0.04 0.30 2.78 -0.50 10.14 -0.04 0.01 0.15 1469
0.03 0.34 2.22 0.07 10.09 -0.01 -0.04 0.25 1475
0.04 0.35 1.20 -0.47 10.03 0.01 -0.05 0.33 1481
0.05 0.37 0.57 -0.64 10.28 -0.00 -0.07 0.31 1488
0.04 0.37 -0.16 -0.77 9.80 -0.01 -0.05 0.23 1495
0.06 0.38 0.14 -0.53 10.04 -0.03 -0.02 0.20 1501
0.07 0.44 0.05 -0.70 9.78 -0.05 0.01 0.20 1507
0.06 0.42 0.40 -1.18 9.48 -0.07 0.03 0.20 1513
0.05 0.50 0.39 -0.88 9.86 -0.09 0.04 0.18 1519
0.07 0.52 0.67 -0.89 9.86 -0.10 0.03 0.16 1525
0.08 0.53 0.84 -0.94 10.18 -0.10 0.02 0.14 1532
0.05 0.61 0.81 -0.76 10.08 -0.11 0.01 0.12 1539
0.05 0.68 0.83 -0.67 9.95 -0.07 -0.01 0.10 1545
0.04 0.76 0.80 -0.63 10.06 -0.09 -0.02 0.10 1551
0.04 0.81 0.77 -0.57 10.10 -0.08 -0.06 0.10 1557
0.05 0.88 0.71 -0.61 9.99 -0.07 -0.04 0.10 1564
0.06 0.87 0.65 -1.18 10.42 -0.06 -0.05 0.09 1570
0.05 0.89 0.72 -0.61 10.14 -0.05 -0.04 0.09 1576
0.06 0.94 0.68 -0.61 9.93 -0.04 -0.05 0.08 1583
0.07 0.98 0.63 -0.61 10.05 -0.04 -0.05 0.08 1589
0.06 1.00 0.63 -0.59 9.98 -0.04 -0.04 0.08 1595
0.07 1.01 0.68 -0.61 10.03 -0.04 -0.03 0.08 1602
0.08 1.00 0.70 -0.58 10.06 -0.03 -0.03 0.08 1608
0.08 1.01 0.71 -0.60 10.00 -0.03 -0.03 0.07 1614
0.08 1.02 0.73 -0.62 10.04 -0.03 -0.03 0.07 1620
0.09 0.97 0.71 -0.56 10.06 -0.02 -0.03 0.06 1627
0.09 0.98 0.74 -0.57 10.07 -0.02 -0.03 0.06 1633
0.08 0.99 0.69 -0.56 10.04 -0.01 -0.02 0.06 1640
0.09 0.99 0.69 -0.62 9.98 -0.01 -0.02 0.06 1646
0.09 0.99 0.71 -0.60 10.00 -0.01 -0.02 0.06 1652
0.09 1.01 0.73 -0.61 10.04 -0.01 -0.02 0.05 1658
0.10 0.99 0.69 -0.59 10.00 -0.01 -0.02 0.06 1665
0.08 0.96 0.72 -0.60 9.98 -0.01 -0.02 0.06 1671
0.09 0.93 0.73 -0.56 10.03 -0.00 -0.02 0.05 1678
0.10 0.92 0.72 -0.60 10.04 -0.03 -0.02 0.05 1684
0.09 0.90 0.72 -0.62 10.01 0.00 -0.02 0.06 1690
0.08 0.89 0.74 -0.62 10.03 0.00 -0.02 0.05 1696
0.10 0.87 0.73 -0.54 10.00 0.01 -0.02 0.05 1702
0.09 0.86 0.73 -0.55 9.95 0.00 -0.02 0.06 1710
0.07 0.85 0.72 -0.58 10.03 0.01 -0.02 0.05 1716
0.08 0.84 0.75 -0.59 10.01 0.00 -0.02 0.05 1722
0.08 0.81 0.74 -0.57 9.98 0.00 -0.02 0.05 1728
0.07 0.80 0.73 -0.56 9.99 0.00 -0.02 0.05 1734
0.07 0.79 0.74 -0.60 9.98 0.00 -0.02 0.05 1740
0.09 0.78 0.72 -0.59 9.93 -0.00 -0.02 0.05 1746
0.07 0.78 0.74 -0.59 9.97 -0.00 -0.02 0.05 1753
0.06 0.78 0.74 -0.57 9.95 -0.00 -0.02 0.05 1760
0.08 0.79 0.74 -0.57 10.02 -0.00 -0.02 0.05 1766
0.08 0.77 0.76 -0.57 9.93 -0.00 -0.02 0.05 1772
0.06 0.76 0.78 -0.59 10.00 -0.01 -0.02 0.05 1778
0.07 0.76 0.77 -0.57 9.95 -0.01 -0.03 0.04 1784
0.08 0.74 0.70 -0.60 9.94 -0.00 -0.03 0.05 1790
0.08 0.74 0.76 -0.58 9.92 -0.01 -0.03 0.05 1797
0.06 0.74 0.73 -0.56 9.88 -0.01 -0.03 0.05 1804
0.08 0.73 0.69 -0.58 9.97 -0.00 -0.03 0.06 1810
0.07 0.71 0.73 -0.54 9.92 -0.01 -0.03 0.04 1816
0.08 0.69 0.73 -0.57 9.98 -0.01 -0.03 0.05 1822
0.08 0.69 0.72 -0.60 9.96 -0.01 -0.03 0.05 1828
0.09 0.68 0.72 -0.57 9.93 -0.00 -0.02 0.05 1835
0.09 0.66 0.77 -0.55 9.94 -0.01 -0.03 0.05 1841
0.07 0.63 0.73 -0.55 9.96 -0.01 -0.03 0.05 1848
0.06 0.62 0.81 -0.60 9.94 -0.01 -0.03 0.05 1854
0.09 0.60 0.74 -0.57 10.02 -0.01 -0.03 0.05 1860
0.09 0.58 0.77 -0.62 9.95 -0.02 -0.03 0.05 1866
0.09 0.59 0.73 -0.57 9.98 -0.02 -0.04 0.05 1872
0.09 0.60 0.75 -0.57 9.99 -0.02 -0.04 0.05 1879
0.09 0.58 0.79 -0.54 10.00 -0.02 -0.04 0.05 1885
0.07 0.59 0.75 -0.58 10.00 -0.02 -0.04 0.05 1892
0.08 0.62 0.77 -0.55 9.97 -0.02 -0.04 0.05 1898
0.08 0.62 0.72 -0.61 10.02 -0.02 -0.00 0.05 1904
0.09 0.60 0.69 -0.59 9.98 -0.02 -0.03 0.05 1910
0.09 0.62 0.73 -0.58 9.98 -0.02 -0.03 0.05 1916
0.08 0.61 0.72 -0.57 10.02 -0.02 -0.03 0.05 1923
0.08 0.62 0.73 -0.57 10.00 -0.02 -0.03 0.05 1930
0.08 0.62 0.77 -0.59 9.94 -0.01 -0.03 0.05 1936
0.09 0.63 0.75 -0.55 10.00 -0.02 -0.03 0.04 1942
0.09 0.62 0.75 -0.56 9.98 -0.02 -0.03 0.05 1948
0.08 0.62 0.75 -0.56 10.07 -0.01 -0.04 0.05 1954
0.09 0.63 0.69 -0.55 9.97 -0.01 -0.04 0.04 1960
0.08 0.60 0.75 -0.61 9.90 -0.02 -0.04 0.04 1967
0.07 0.60 0.77 -0.59 9.96 -0.01 -0.04 0.05 1974
0.08 0.61 0.75 -0.59 9.98 -0.01 -0.05 0.04 1980
0.08 0.58 0.76 -0.55 9.98 -0.01 -0.05 0.04 1986
0.07 0.59 0.75 -0.58 9.98 -0.01 -0.05 0.04 1992
0.07 0.59 0.77 -0.57 9.95 -0.01 -0.05 0.04 1998
0.08 0.61 0.68 -0.57 9.98 -0.01 -0.05 0.05 2004
0.07 0.61 0.71 -0.57 9.97 -0.01 -0.05 0.04 2011
0.06 0.59 0.69 -0.57 10.05 -0.01 -0.05 0.04 2018
0.09 0.60 0.77 -0.59 9.99 -0.01 -0.04 0.05 2024
0.09 0.60 0.74 -0.57 9.96 -0.01 -0.05 0.05 2030
0.09 0.58 0.76 -0.58 10.03 -0.01 -0.05 0.05 2036
0.08 0.56 0.80 -0.56 9.96 -0.01 -0.05 0.05 2042
0.10 0.54 0.74 -0.58 10.03 -0.01 -0.05 0.04 2049
0.09 0.54 0.71 -0.61 10.02 -0.01 -0.05 0.05 2056
0.08 0.54 0.71 -0.59 10.02 -0.01 -0.05 0.05 2062
0.09 0.57 0.71 -0.57 9.99 -0.00 -0.05 0.05 2068
0.08 0.54 0.72 -0.58 10.05 -0.00 -0.04 0.06 2074
0.08 0.54 0.74 -0.56 10.01 0.00 -0.04 0.05 2080
0.09 0.56 0.73 -0.58 10.04 -0.00 -0.05 0.05 2086
0.08 0.51 0.76 -0.58 9.95 0.01 -0.04 0.04 2094
0.08 0.47 0.72 -0.59 9.98 0.01 -0.04 0.04 2100
0.08 0.48 0.75 -0.56 10.03 0.01 -0.04 0.04 2106
0.10 0.41 0.74 -0.58 10.01 0.01 -0.04 0.04 2112
0.08 0.43 0.75 -0.55 10.01 0.02 -0.04 0.05 2118
0.11 0.34 0.76 -0.60 10.03 0.02 -0.04 0.04 2124
0.10 0.35 0.75 -0.57 10.01 0.02 -0.04 0.04 2131
0.08 0.32 0.83 -0.62 10.02 0.03 -0.04 0.04 2138
0.09 0.28 0.83 -0.64 10.01 0.04 -0.04 0.04 2144
0.10 0.26 0.80 -0.61 10.07 0.04 -0.04 0.02 2150
0.13 0.17 0.81 -0.60 10.08 0.06 -0.04 0.02 2156
0.15 0.15 0.77 -0.63 10.01 0.07 -0.04 0.02 2163
0.19 0.09 0.76 -0.64 10.10 0.08 -0.04 0.01 2169
0.21 0.06 0.83 -0.67 10.08 0.10 -0.04 0.01 2176
0.21 0.09 0.80 -0.65 10.18 0.13 -0.04 -0.01 2182
0.22 0.03 0.83 -0.68 10.21 0.17 -0.05 -0.02 2188
0.22 0.01 0.89 -0.37 10.23 0.20 -0.06 -0.04 2194
0.24 0.00 0.98 -0.89 10.33 0.25 -0.09 -0.07 2201
0.22 -0.02 1.54 -0.82 10.67 0.33 -0.14 -0.13 2207
0.22 -0.02 2.47 -1.26 10.90 0.46 -0.20 -0.28 2213
0.28 -0.02 3.99 -1.69 11.34 0.66 -0.28 -0.53 2220
0.26 -0.03 4.32 -1.93 12.58 0.88 -0.41 -0.79 2227
0.27 -0.02 3.92 -1.81 14.17 1.28 -0.57 -1.00 2233
0.27 -0.02 4.31 -2.02 13.71 1.59 -0.78 -1.16 2239
0.24 -0.02 4.65 -2.60 12.55 1.72 -0.82 -1.35 2245
0.23 -0.02 5.87 -3.19 12.71 1.72 -0.82 -1.58 2251
0.22 -0.02 6.24 -2.99 12.51 1.73 -0.74 -1.81 2258
0.22 -0.02 5.60 -3.34 11.65 1.74 -0.74 -1.99 2265
0.23 -0.01 4.96 -3.40 10.60 1.73 -0.78 -2.16 2271
0.13 -0.01 5.55 -4.22 11.05 1.67 -0.72 -2.33 2277
0.09 -0.01 6.12 -4.10 10.55 1.56 -0.65 -2.49 2284
0.11 -0.01 7.07 -3.12 11.76 1.46 -0.51 -2.67 2290
0.06 -0.01 5.28 -3.34 12.41 1.30 -0.42 -2.86 2296
0.03 -0.00 4.04 -2.66 13.64 1.11 -0.46 -3.02 2302
0.05 -0.01 4.11 -1.95 13.27 0.94 -0.71 -3.10 2309
0.04 -0.00 3.02 -1.27 12.43 0.83 -1.07 -3.11 2315
0.05 -0.00 3.24 0.02 12.36 0.64 -1.53 -3.11 2322
0.06 -0.00 3.32 1.30 11.89 0.36 -2.04 -3.12 2328
0.06 -0.01 5.06 3.71 11.88 0.05 -2.49 -3.12 2334
0.04 -0.00 6.70 6.05 9.82 -0.25 -2.74 -3.03 2340
0.05 -0.00 8.50 5.17 8.23 -0.49 -2.79 -2.76 2347
0.05 -0.01 9.26 3.14 8.49 -0.61 -2.45 -2.41 2353
0.05 -0.01 9.98 2.87 10.32 -0.73 -1.59 -1.96 2359
0.05 -0.00 10.47 3.56 9.23 -0.84 -0.62 -1.52 2366
0.05 -0.01 9.82 3.29 6.99 -0.85 0.04 -1.17 2372
0.04 -0.00 8.22 2.49 5.29 -0.83 0.44 -0.93 2378
0.04 -0.00 7.01 1.61 4.46 -0.76 0.69 -0.73 2384
0.05 -0.00 5.82 1.04 5.35 -0.62 0.88 -0.55 2391
0.06 -0.01 4.93 0.52 6.27 -0.45 1.04 -0.43 2397
0.05 -0.00 4.58 0.36 7.16 -0.27 1.17 -0.33 2403
0.04 -0.00 4.32 0.51 7.71 -0.14 1.24 -0.29 2409
0.05 -0.00 3.82 0.83 8.10 -0.09 1.28 -0.26 2415
0.06 -0.01 3.22 0.97 8.41 -0.07 1.32 -0.24 2422
0.05 0.00 2.53 0.91 9.02 -0.07 1.38 -0.21 2428
0.04 -0.00 1.93 0.72 9.43 -0.07 1.42 -0.18 2435
0.04 -0.00 1.27 0.51 9.75 -0.09 1.43 -0.13 2441
0.06 -0.01 0.67 0.52 10.00 -0.09 1.43 -0.08 2447
0.05 -0.01 0.16 0.53 10.38 -0.10 1.42 -0.01 2453
0.04 -0.00 -0.28 0.48 10.67 -0.13 1.42 0.07 2459
0.05 -0.01 -0.65 0.42 10.89 -0.18 1.42 0.16 2465
0.05 -0.00 -1.05 0.23 11.00 -0.24 1.41 0.26 2472
0.05 -0.01 -1.53 0.03 11.01 -0.29 1.38 0.34 2479
0.05 -0.00 -1.95 -0.31 11.08 -0.33 1.34 0.44 2485
0.05 -0.01 -2.25 -0.76 11.05 -0.35 1.28 0.52 2491
0.04 -0.00 -2.36 -1.12 11.07 -0.36 1.19 0.60 2497
0.04 -0.00 -2.29 -1.38 11.10 -0.36 1.08 0.66 2503
0.06 -0.01 -2.21 -1.61 10.99 -0.36 0.96 0.71 2510
0.05 -0.00 -2.00 -1.84 10.96 -0.35 0.85 0.75 2516
0.04 -0.00 -1.74 -2.03 10.83 -0.35 0.76 0.78 2523
0.05 -0.01 -1.45 -2.34 10.68 -0.35 0.67 0.79 2529
0.05 -0.01 -1.20 -2.60 10.76 -0.34 0.60 0.79 2535
0.05 -0.00 -0.96 -2.87 10.75 -0.34 0.54 0.77 2541
0.06 -0.01 -0.71 -3.07 10.88 -0.33 0.50 0.74 2547
0.06 -0.01 -0.50 -3.14 10.91 -0.32 0.47 0.71 2554
0.05 -0.01 -0.21 -3.21 10.93 -0.32 0.47 0.69 2561
0.05 -0.00 -0.16 -3.15 10.79 -0.32 0.47 0.69 2567
0.06 -0.01 -0.06 -3.21 10.75 -0.31 0.45 0.70 2573
0.05 -0.00 0.01 -3.22 10.80 -0.30 0.43 0.73 2579
0.04 -0.00 0.11 -3.26 10.75 -0.29 0.38 0.77 2585
0.05 -0.01 0.21 -3.29 10.65 -0.28 0.35 0.81 2592
0.05 -0.00 0.47 -3.38 10.55 -0.29 0.32 0.85 2598
0.04 -0.00 0.69 -3.55 10.49 -0.29 0.31 0.90 2605
0.05 0.00 0.79 -3.76 10.47 -0.29 0.31 0.94 2611
0.05 -0.00 0.81 -3.96 10.32 -0.28 0.31 0.97 2617
0.05 -0.00 0.88 -4.15 10.18 -0.27 0.31 0.99 2623
0.05 -0.00 0.92 -4.25 10.10 -0.25 0.29 1.00 2629
0.05 -0.01 0.98 -4.24 9.99 -0.24 0.26 1.00 2636
0.05 -0.00 1.10 -4.25 9.91 -0.22 0.23 1.00 2642
0.04 -0.00 1.25 -4.18 9.94 -0.20 0.22 1.00 2649
0.05 -0.00 1.35 -4.11 9.90 -0.17 0.22 1.00 2655
0.06 -0.01 1.37 -4.04 9.71 -0.15 0.25 1.00 2661
0.04 -0.00 1.25 -4.08 9.55 -0.13 0.32 0.98 2667
0.04 -0.00 0.99 -4.01 9.50 -0.10 0.43 0.96 2673
0.05 -0.00 0.61 -4.03 9.52 -0.06 0.51 0.93 2679
0.05 -0.01 0.00 -4.05 9.37 -0.03 0.62 0.90 2685
0.05 -0.00 -0.52 -3.95 9.42 -0.01 0.68 0.85 2692
0.04 -0.00 -0.98 -3.75 9.72 -0.00 0.66 0.79 2698
0.04 -0.00 -1.20 -3.48 9.78 -0.00 0.61 0.73 2705
0.05 -0.00 -1.16 -3.17 9.85 -0.02 0.53 0.68 2711
0.05 -0.00 -1.05 -2.85 10.04 -0.06 0.43 0.65 2717
0.05 -0.00 -0.78 -2.66 10.11 -0.10 0.36 0.62 2723
0.04 -0.00 -0.47 -2.60 10.06 -0.14 0.32 0.58 2729
0.06 -0.01 -0.33 -2.68 9.99 -0.17 0.34 0.54 2736
0.05 -0.00 -0.45 -2.77 9.83 -0.18 0.41 0.49 2742
0.05 -0.00 -0.63 -2.83 9.60 -0.19 0.50 0.45 2748
0.04 -0.00 -0.95 -2.69 9.30 -0.19 0.55 0.42 2754
0.05 -0.01 -1.34 -2.58 9.04 -0.18 0.57 0.41 2761
0.05 -0.00 -1.72 -2.41 8.98 -0.16 0.57 0.43 2767
0.04 -0.00 -1.97 -2.20 8.96 -0.13 0.54 0.48 2774
0.04 -0.00 -2.09 -2.02 9.02 -0.10 0.50 0.55 2780
0.06 -0.01 -2.21 -2.00 9.20 -0.08 0.46 0.62 2786
0.05 -0.00 -2.28 -1.99 9.29 -0.07 0.44 0.70 2792
0.04 -0.00 -2.41 -2.05 9.52 -0.06 0.43 0.79 2798
0.04 -0.00 -2.71 -2.20 9.64 -0.05 0.45 0.82 2804
0.05 -0.00 -2.87 -2.27 9.71 -0.07 0.47 0.87 2810
0.05 -0.01 -3.08 -2.24 9.75 -0.08 0.47 0.91 2817
0.04 -0.00 -3.24 -2.20 9.79 -0.10 0.44 0.96 2824
0.04 -0.00 -3.41 -2.05 9.57 -0.13 0.39 1.00 2830
0.05 -0.00 -3.44 -1.96 9.35 -0.14 0.31 1.05 2836
0.05 -0.01 -3.26 -1.78 9.06 -0.15 0.20 1.10 2842
0.05 -0.01 -3.08 -1.66 8.76 -0.15 0.09 1.17 2848
0.05 -0.00 -19.63 -7.07 19.60 0.30 -1.88 1.40 2854
0.06 -0.01 -12.80 -3.05 8.66 0.32 -2.67 1.63 2861
0.06 -0.01 -4.79 -1.95 3.09 0.20 -3.37 1.75 2867
0.04 -0.00 -1.31 -6.10 7.65 0.25 -3.69 1.74 2874
0.05 0.04 -0.29 7.31 20.46 0.87 -2.56 1.67 2880
0.06 0.08 -2.23 -3.62 6.51 1.31 -1.40 1.84 2886
0.04 0.14 -6.38 -2.22 12.46 1.37 -1.36 1.73 2892
0.04 0.28 -16.79 -4.36 29.83 1.46 -1.73 1.27 2899
0.04 0.36 -8.06 -0.32 15.98 0.42 -1.27 0.38 2906
0.03 0.45 -0.29 -1.56 12.28 -0.02 -0.15 0.21 2912
0.03 0.56 -0.98 -0.65 10.89 -0.06 0.01 0.02 2918
0.03 0.54 1.86 -0.62 9.20 0.02 0.04 0.04 2924
0.03 0.54 2.62 -0.30 9.36 0.11 -0.06 0.18 2930
0.06 0.47 2.48 -0.49 9.95 0.13 -0.11 0.36 2937
0.04 0.45 0.79 -0.83 10.35 0.06 -0.04 0.45 2944
0.03 0.49 -1.14 -1.52 9.86 0.02 0.01 0.39 2950
0.05 0.43 -0.79 -1.37 9.67 0.01 0.05 0.27 2956
0.04 0.47 0.44 -1.09 9.82 -0.02 0.08 0.23 2962
0.03 0.50 0.69 -1.12 10.11 -0.06 0.09 0.22 2968
0.05 0.54 0.84 -1.30 10.22 -0.08 0.09 0.20 2975
0.05 0.54 0.90 -0.62 9.94 -0.09 0.07 0.16 2981
0.03 0.57 0.96 -1.05 10.42 -0.09 0.07 0.13 2988
0.04 0.63 0.77 -0.91 9.97 -0.09 0.06 0.11 2994
0.04 0.65 0.86 -0.89 10.10 -0.08 0.05 0.10 3000
0.03 0.68 0.77 -0.83 10.08 -0.07 0.04 0.09 3006
0.03 0.71 0.78 -0.89 10.03 -0.05 0.04 0.09 3013
0.03 0.74 0.82 -0.84 10.01 -0.04 0.03 0.09 3019
0.02 0.76 0.85 -0.84 9.96 -0.04 0.03 0.08 3025
0.03 0.78 0.84 -0.87 10.02 -0.04 0.02 0.09 3032
0.03 0.85 0.80 -0.88 9.99 -0.04 0.03 0.08 3038
0.03 0.82 0.78 -0.87 9.98 -0.04 0.03 0.08 3044
0.02 0.85 0.80 -0.85 9.98 -0.04 0.03 0.08 3051
0.04 0.86 0.81 -0.78 9.97 -0.03 0.03 0.08 3057
0.03 0.85 0.84 -0.80 9.93 -0.03 0.04 0.08 3063
0.02 0.82 0.89 -0.80 10.00 -0.02 0.04 0.07 3069
0.03 0.85 0.82 -0.83 9.99 -0.02 0.04 0.07 3076
0.03 0.85 0.78 -0.83 9.95 -0.02 0.05 0.07 3082
0.03 0.86 0.84 -0.85 10.01 -0.02 0.04 0.07 3088
0.04 0.89 0.89 -0.82 10.01 -0.02 0.05 0.07 3095
0.05 0.85 0.89 -0.79 10.02 -0.02 0.04 0.03 3101
0.03 0.85 0.89 -0.82 10.01 -0.01 0.04 0.06 3107
0.03 0.86 0.90 -0.81 9.94 -0.01 0.04 0.06 3113
0.05 0.87 0.86 -0.80 9.94 -0.01 0.04 0.07 3120
0.02 0.86 0.94 -0.81 9.96 -0.01 0.04 0.06 3126
0.02 0.85 0.91 -0.85 9.99 -0.02 0.04 0.06 3133
0.03 0.86 0.92 -0.84 10.00 -0.02 0.03 0.06 3139
0.03 0.86 0.93 -0.80 9.98 -0.01 0.03 0.07 3145
0.01 0.85 0.92 -0.79 9.98 -0.02 0.03 0.07 3151
0.02 0.85 0.93 -0.85 10.00 -0.01 0.03 0.06 3158
0.03 0.86 0.96 -0.82 10.02 -0.02 0.03 0.06 3164
0.01 0.85 0.91 -0.78 9.90 -0.02 0.03 0.06 3171
0.01 0.85 0.96 -0.80 9.95 -0.01 0.03 0.06 3177
0.02 0.84 0.94 -0.82 9.92 -0.01 0.03 0.06 3183
0.01 0.83 0.94 -0.82 9.94 -0.01 0.02 0.05 3189
-0.00 0.83 0.96 -0.80 9.91 -0.02 0.03 0.05 3195
0.01 0.83 0.97 -0.83 9.91 -0.02 0.03 0.05 3202
0.02 0.83 0.97 -0.82 9.95 -0.02 0.03 0.05 3208
0.02 0.82 0.97 -0.83 9.94 -0.02 0.03 0.05 3214
0.01 0.83 1.03 -0.75 9.93 -0.02 0.03 0.05 3221
0.02 0.83 1.00 -0.85 9.89 -0.02 0.02 0.05 3227
0.01 0.82 1.00 -0.82 9.94 -0.03 0.02 0.05 3233
0.01 0.80 0.99 -0.80 9.94 -0.02 0.02 0.05 3239
0.02 0.80 0.96 -0.77 9.92 -0.02 0.01 0.05 3246
0.03 0.79 0.97 -0.82 9.90 -0.03 0.01 0.04 3252
0.03 0.80 1.00 -0.83 9.93 -0.03 0.01 0.04 3258
0.02 0.80 1.01 -0.77 9.90 -0.03 0.00 0.04 3264
0.03 0.82 1.04 -0.81 9.92 -0.03 -0.00 0.04 3271
0.03 0.81 1.00 -0.79 9.96 -0.02 -0.01 0.04 3277
0.02 0.81 1.01 -0.83 9.97 -0.02 -0.01 0.04 3283
0.01 0.85 1.00 -0.81 9.96 -0.02 0.00 0.03 3290
0.02 0.83 0.95 -0.80 10.00 -0.03 0.01 0.03 3296
0.01 0.82 0.97 -0.81 9.93 -0.03 0.03 0.03 3302
0.01 0.81 0.99 -0.80 9.98 -0.03 0.04 0.03 3308
0.01 0.84 0.98 -0.86 9.93 -0.04 0.05 0.03 3315
0.01 0.81 1.01 -0.79 9.94 -0.04 0.05 0.03 3321
0.01 0.81 0.98 -0.82 9.92 -0.04 0.06 0.02 3328
0.02 0.80 1.07 -0.75 9.96 -0.04 0.07 0.03 3334
0.02 0.80 1.09 -0.78 9.90 -0.04 0.08 0.03 3340
0.01 0.78 1.09 -0.80 9.94 -0.04 0.07 0.03 3346
0.01 0.78 1.09 -0.79 9.88 -0.04 0.06 0.03 3352
0.01 0.79 1.12 -0.77 9.92 -0.03 0.05 0.03 3359
0.02 0.78 1.09 -0.81 9.87 -0.03 0.04 0.03 3365
0.01 0.78 1.11 -0.76 9.93 -0.03 0.03 0.03 3372
0.01 0.77 1.14 -0.79 9.89 -0.02 0.03 0.03 3378
0.02 0.80 1.12 -0.77 9.90 -0.01 0.02 0.02 3384
0.01 0.78 1.13 -0.79 9.88 -0.02 0.01 0.02 3390
0.01 0.75 1.15 -0.79 9.91 -0.01 0.01 0.02 3396
0.01 0.75 1.13 -0.77 9.89 -0.01 0.00 0.02 3402
0.02 0.74 1.17 -0.78 9.88 -0.01 -0.00 0.02 3409
0.01 0.72 1.15 -0.77 9.87 -0.01 -0.02 0.02 3416
0.00 0.71 1.14 -0.80 9.85 -0.00 -0.03 0.02 3422
0.01 0.69 1.09 -0.80 9.92 0.00 -0.03 0.02 3428
0.01 0.68 1.13 -0.80 9.91 -0.00 -0.04 0.02 3434
0.00 0.66 1.12 -0.78 9.88 -0.00 -0.04 0.03 3440
0.00 0.65 1.11 -0.80 9.98 -0.00 -0.04 0.02 3446
0.01 0.64 1.15 -0.77 9.93 0.00 -0.05 0.02 3453
0.00 0.63 1.11 -0.78 9.91 0.01 -0.06 0.02 3460
-0.00 0.61 1.14 -0.79 9.90 0.01 -0.08 0.02 3466
0.01 0.63 1.14 -0.78 9.91 0.01 -0.09 0.03 3472
0.01 0.60 1.15 -0.79 9.91 0.01 -0.09 0.03 3478
0.02 0.56 1.06 -0.82 9.86 0.01 -0.10 0.02 3484
0.01 0.58 1.08 -0.82 9.96 0.01 -0.10 0.03 3490
0.02 0.55 1.07 -0.79 9.89 0.01 -0.09 0.03 3496
0.01 0.54 1.06 -0.79 9.95 0.00 -0.09 0.03 3504
-0.00 0.51 1.08 -0.80 9.95 0.01 -0.09 0.03 3510
0.01 0.55 1.04 -0.77 9.96 0.00 -0.09 0.03 3516
0.02 0.54 1.02 -0.79 9.91 0.00 -0.08 0.03 3522
0.01 0.56 1.05 -0.83 9.98 0.00 -0.08 0.04 3528
0.01 0.54 1.04 -0.78 9.94 0.00 -0.09 0.05 3534
0.01 0.54 1.11 -0.79 9.90 0.00 -0.09 0.05 3540
0.01 0.50 1.07 -0.73 9.89 0.00 -0.09 0.04 3547
0.01 0.49 1.09 -0.78 9.89 0.01 -0.10 0.04 3554
0.01 0.49 1.04 -0.80 9.92 0.01 -0.11 0.03 3560
0.01 0.49 1.06 -0.82 9.92 0.01 -0.12 0.04 3566
0.01 0.47 1.02 -0.75 9.88 0.01 -0.12 0.04 3572
0.01 0.48 1.03 -0.80 9.97 0.01 -0.12 0.04 3578
0.02 0.45 1.01 -0.79 9.98 0.02 -0.12 0.04 3585
0.02 0.43 0.96 -0.80 9.93 0.02 -0.12 0.04 3591
0.02 0.41 0.97 -0.81 9.91 0.02 -0.11 0.05 3598
0.03 0.45 0.99 -0.81 9.95 0.01 -0.11 0.05 3604
0.04 0.42 0.97 -0.78 9.90 0.01 -0.11 0.05 3610
0.03 0.36 0.93 -0.85 9.98 0.01 -0.11 0.05 3616
0.01 0.39 0.96 -0.81 9.91 0.01 -0.11 0.06 3622
0.04 0.33 0.96 -0.81 9.94 0.01 -0.10 0.06 3629
0.04 0.32 0.99 -0.78 9.97 0.01 -0.11 0.06 3635
0.02 0.26 1.00 -0.79 9.95 0.02 -0.10 0.05 3642
0.03 0.33 0.97 -0.82 9.98 0.02 -0.11 0.06 3648
0.04 0.22 0.87 -0.81 9.90 0.01 -0.10 0.06 3654
0.04 0.20 0.95 -0.84 9.94 0.02 -0.10 0.05 3660
0.04 0.21 0.97 -0.82 9.96 0.02 -0.10 0.06 3666
0.05 0.16 0.97 -0.74 9.94 0.03 -0.10 0.06 3673
0.05 0.15 0.97 -0.84 9.97 0.03 -0.11 0.05 3679
0.05 0.13 0.96 -0.84 9.92 0.03 -0.11 0.05 3686
0.06 0.12 0.96 -0.80 9.94 0.03 -0.10 0.05 3692
0.10 0.14 0.90 -0.86 9.95 0.03 -0.09 0.04 3698
0.09 0.12 0.89 -0.82 10.01 0.04 -0.09 0.04 3704
0.10 0.07 0.91 -0.81 10.03 0.04 -0.08 0.05 3710
0.12 0.07 0.95 -0.84 10.03 0.05 -0.07 0.05 3717
0.13 0.02 1.00 -0.86 10.08 0.06 -0.07 0.04 3724
0.13 0.01 1.01 -0.85 10.10 0.08 -0.07 0.04 3730
0.14 0.00 0.96 -0.88 10.08 0.09 -0.06 0.03 3736
0.15 0.00 1.06 -0.92 10.10 0.11 -0.06 0.02 3742
0.15 -0.01 1.02 -0.90 10.04 0.12 -0.06 0.02 3748
0.15 -0.01 1.11 -1.24 10.16 0.14 -0.06 -0.00 3755
0.19 -0.02 1.08 -0.93 10.24 0.16 -0.05 -0.03 3762
0.18 -0.01 1.14 -0.94 10.23 0.20 -0.04 -0.07 3768
0.23 -0.01 1.42 -0.96 10.38 0.25 -0.03 -0.16 3774
0.24 -0.02 1.55 -0.95 10.68 0.35 -0.01 -0.21 3780
0.24 -0.02 1.41 -1.08 11.53 0.51 0.03 -0.29 3786
0.24 -0.02 1.75 -1.28 11.44 0.78 0.09 -0.36 3793
0.28 -0.02 1.82 -1.20 12.27 1.10 0.11 -0.43 3800
0.25 -0.02 1.34 -1.38 11.84 1.34 0.07 -0.47 3806
0.29 -0.02 1.44 -1.42 11.95 1.49 0.00 -0.50 3812
0.30 -0.03 1.32 -1.52 11.89 1.59 -0.10 -0.51 3818
0.31 -0.02 1.63 -1.76 11.98 1.67 -0.19 -0.52 3825
0.34 -0.02 1.27 -1.88 11.80 1.77 -0.26 -0.53 3831
0.35 -0.02 1.78 -2.02 11.59 1.79 -0.33 -0.54 3837
0.33 -0.01 1.36 -2.24 11.48 1.84 -0.39 -0.56 3844
0.30 -0.02 2.21 -2.37 11.50 1.88 -0.47 -0.59 3851
0.31 -0.02 2.51 -2.54 11.23 1.90 -0.50 -0.65 3857
0.29 -0.02 2.78 -2.48 11.03 1.90 -0.49 -0.73 3863
0.22 -0.02 2.79 -2.51 10.39 1.88 -0.51 -0.82 3869
0.19 -0.01 2.57 -3.04 10.81 1.85 -0.47 -0.91 3875
0.20 -0.02 3.08 -3.19 10.74 1.83 -0.41 -0.99 3883
0.15 -0.01 3.62 -3.25 11.24 1.80 -0.37 -1.07 3889
0.09 0.00 4.73 -3.58 11.68 1.77 -0.34 -1.19 3895
0.08 -0.01 6.73 -4.53 11.20 1.72 -0.31 -1.34 3901
0.06 -0.01 7.91 -4.48 10.96 1.64 -0.21 -1.54 3907
0.07 0.00 8.27 -5.31 10.53 1.50 0.03 -1.76 3914
0.06 -0.01 8.77 -3.63 10.59 1.35 0.28 -2.03 3920
0.07 -0.01 7.76 -4.19 10.34 1.17 0.42 -2.30 3927
0.07 0.00 6.74 -3.08 11.08 0.98 0.40 -2.49 3933
0.07 -0.01 6.35 -2.72 11.70 0.80 0.23 -2.65 3939
0.06 -0.01 5.76 1.52 13.34 0.50 -0.03 -2.78 3945
0.07 -0.01 5.95 3.58 12.34 0.05 -0.23 -2.91 3952
0.07 -0.01 5.42 4.31 9.89 -0.42 -0.57 -3.04 3958
0.06 -0.01 5.54 6.99 8.23 -0.83 -0.89 -3.10 3964
0.04 -0.00 5.49 6.86 5.11 -1.14 -1.12 -3.12 3971
0.04 0.01 5.76 4.73 4.40 -1.29 -1.19 -3.07 3977
0.04 -0.00 6.41 3.28 6.17 -1.35 -1.02 -2.97 3983
0.04 -0.00 7.09 3.28 7.83 -1.44 -0.68 -2.84 3989
0.04 -0.00 7.12 3.17 7.35 -1.47 -0.41 -2.73 3995
0.06 -0.01 6.77 2.58 6.67 -1.37 -0.15 -2.61 4002
0.05 -0.01 6.43 1.94 6.12 -1.25 0.02 -2.53 4008
0.04 -0.00 6.24 1.77 6.05 -1.16 0.16 -2.39 4015
0.05 -0.00 6.05 1.90 6.29 -1.08 0.29 -2.24 4021
0.06 -0.01 5.89 1.75 6.98 -1.03 0.43 -2.06 4027
0.05 -0.00 5.66 1.44 7.82 -0.99 0.57 -1.88 4033
0.05 -0.00 5.58 1.10 8.83 -0.95 0.68 -1.70 4039
0.04 -0.00 5.60 0.87 9.71 -0.94 0.81 -1.56 4045
0.05 -0.01 5.38 0.63 10.06 -0.97 0.91 -1.40 4051
0.04 -0.00 5.08 0.43 10.39 -1.03 1.01 -1.24 4059
0.03 -0.00 4.79 0.14 10.69 -1.10 1.08 -1.09 4065
0.04 0.00 4.49 -0.27 10.81 -1.16 1.13 -0.95 4071
0.04 -0.00 4.13 -0.81 10.79 -1.18 1.15 -0.79 4077
0.04 -0.00 3.81 -1.29 10.79 -1.18 1.16 -0.62 4083
0.04 0.00 3.62 -1.59 10.75 -1.15 1.17 -0.44 4090
0.04 -0.00 3.40 -1.84 10.78 -1.09 1.17 -0.23 4097
0.04 -0.00 3.24 -2.05 10.93 -1.02 1.18 -0.02 4103
0.04 0.00 3.09 -2.26 11.08 -0.95 1.19 0.17 4109
0.05 -0.00 2.94 -2.40 11.21 -0.87 1.19 0.41 4115
0.05 -0.01 2.82 -2.51 11.36 -0.81 1.20 0.64 4121
0.05 -0.01 2.57 -2.60 11.37 -0.74 1.21 0.86 4127
0.05 -0.01 2.40 -2.73 11.44 -0.67 1.21 1.08 4134
0.05 -0.00 2.18 -2.78 11.48 -0.57 1.21 1.28 4141
0.05 -0.00 2.05 -2.72 11.71 -0.54 1.20 1.45 4147
0.06 -0.01 2.15 -2.62 11.90 -0.49 1.21 1.60 4153
0.04 -0.00 2.07 -2.49 11.96 -0.46 1.20 1.71 4159
0.04 -0.00 1.93 -2.38 11.94 -0.45 1.20 1.78 4165
0.04 0.00 1.77 -2.42 12.05 -0.45 1.21 1.84 4172
0.04 -0.00 1.62 -2.47 12.17 -0.45 1.19 1.86 4178
0.03 -0.00 1.40 -2.47 12.10 -0.44 1.17 1.87 4185
0.04 0.00 1.14 -2.48 11.88 -0.44 1.14 1.86 4191
0.04 -0.00 0.94 -2.50 11.64 -0.42 1.09 1.85 4197
0.04 -0.00 0.90 -2.50 11.44 -0.41 1.03 1.83 4203
0.04 0.00 0.90 -2.47 11.34 -0.38 0.98 1.82 4210
0.04 -0.00 0.76 -2.39 11.18 -0.34 0.94 1.82 4216
0.04 -0.00 0.79 -2.37 10.98 -0.30 0.92 1.83 4222
0.04 -0.00 0.89 -2.30 11.01 -0.28 0.90 1.85 4229
0.05 -0.00 0.86 -2.29 11.01 -0.26 0.87 1.86 4235
0.04 -0.00 0.89 -2.26 11.03 -0.24 0.87 1.89 4241
0.04 -0.00 1.06 -2.15 11.21 -0.23 0.88 1.91 4248
0.05 -0.01 1.16 -1.89 11.18 -0.25 0.91 1.93 4254
0.05 -0.00 1.08 -1.81 11.13 -0.28 0.94 1.95 4260
0.03 -0.00 0.93 -1.76 11.00 -0.31 0.97 1.96 4267
0.04 -0.00 0.65 -1.87 10.74 -0.35 0.97 1.96 4273
0.04 -0.00 0.30 -2.13 10.47 -0.36 0.96 1.94 4279
0.04 -0.00 0.05 -2.33 10.06 -0.36 0.93 1.91 4285
0.04 -0.00 -0.06 -2.55 9.85 -0.35 0.86 1.87 4292
0.05 -0.01 -0.13 -2.73 9.72 -0.34 0.80 1.82 4298
0.04 -0.00 -0.04 -2.96 9.51 -0.33 0.75 1.77 4304
0.04 -0.00 -0.06 -3.16 9.35 -0.33 0.71 1.72 4311
0.04 -0.00 -0.16 -3.29 9.25 -0.31 0.70 1.66 4317
0.05 -0.00 -0.24 -3.41 9.01 -0.30 0.73 1.62 4323
0.04 -0.00 -0.48 -3.37 9.19 -0.28 0.81 1.61 4329
0.04 -0.00 -1.03 -3.27 9.37 -0.28 0.92 1.61 4335
0.04 -0.00 -1.91 -3.15 9.01 -0.28 1.02 1.63 4341
0.05 -0.01 -3.11 -3.25 9.03 -0.30 1.12 1.66 4348
0.04 -0.00 -11.87 -9.36 12.73 -0.21 0.66 1.75 4355
0.03 -0.00 -11.83 -5.94 12.52 0.26 -0.52 1.87 4361
0.05 -0.01 -8.67 -5.07 4.90 0.09 -0.57 1.93 4367
0.04 -0.00 -10.00 -6.72 7.34 0.19 -1.12 1.95 4373
0.03 -0.00 -12.57 -13.18 10.05 0.12 -1.47 1.95 4380
0.05 -0.00 -12.06 -10.79 7.95 0.36 -2.28 1.89 4386
0.03 -0.00 -11.26 -10.33 3.43 0.36 -2.65 1.79 4392
0.03 0.00 -8.70 -14.74 -0.30 0.33 -2.99 1.63 4399
0.04 0.04 -10.72 -23.65 3.49 0.73 -3.16 1.64 4405
0.02 0.17 -13.19 -26.49 6.96 1.56 -2.43 2.09 4412
0.03 0.38 -12.71 -6.96 18.66 2.55 -1.96 2.17 4418
0.02 0.58 -16.69 -4.80 29.21 2.95 -1.60 1.32 4424
0.00 0.74 -9.51 -1.08 26.22 2.41 -1.77 0.48 4431
-0.01 0.83 -2.83 0.59 22.59 1.57 -1.66 0.12 4438
-0.01 0.92 -2.40 -0.49 14.62 0.68 -0.86 -0.08 4444
-0.01 0.89 1.88 -1.01 10.17 0.40 -0.57 -0.14 4450
-0.00 0.84 3.39 -1.03 9.90 0.46 -0.72 0.09 4456
-0.00 0.75 2.45 -0.83 10.33 0.44 -0.67 0.36 4463
0.02 0.75 0.35 -0.66 11.06 0.27 -0.44 0.45 4469
0.02 0.70 -0.75 -1.02 10.72 0.11 -0.21 0.35 4475
0.01 0.68 -0.36 -1.17 10.29 0.04 -0.11 0.21 4482
0.03 0.73 0.47 -1.07 9.92 0.02 -0.06 0.17 4488
0.05 0.74 0.88 -1.21 10.13 -0.00 -0.04 0.17 4495
0.06 0.76 0.79 -1.08 9.91 -0.03 -0.05 0.14 4501
0.08 0.81 0.64 -0.84 10.23 -0.04 -0.06 0.10 4507
0.06 0.85 0.62 -0.85 10.07 -0.05 -0.06 0.08 4513
0.07 0.89 0.71 -0.81 10.20 -0.05 -0.06 0.08 4519
0.10 0.91 0.77 -0.77 10.15 -0.04 -0.06 0.08 4526
0.11 0.94 0.68 -0.70 10.00 -0.03 -0.04 0.08 4533
0.12 0.88 0.67 -0.77 10.10 -0.02 -0.03 0.09 4539
0.14 0.89 0.80 -0.75 10.04 -0.03 -0.03 0.09 4545
0.13 0.83 0.75 -0.78 10.16 -0.03 -0.03 0.09 4551
0.13 0.78 0.73 -0.74 10.09 -0.02 -0.02 0.09 4557
0.15 0.77 0.70 -0.74 10.08 -0.01 -0.02 0.09 4564
0.14 0.75 0.81 -0.70 10.04 -0.00 -0.02 0.09 4571
0.17 0.74 0.77 -0.73 10.00 0.00 -0.02 0.09 4577
0.21 0.70 0.82 -0.76 9.98 0.00 -0.02 0.08 4583
0.20 0.66 0.76 -0.71 9.99 0.00 -0.02 0.08 4589
0.19 0.66 0.86 -0.77 9.94 -0.00 -0.02 0.08 4595
0.22 0.62 0.82 -0.70 9.99 -0.00 -0.02 0.07 4602
0.22 0.62 0.84 -0.71 10.00 -0.00 -0.03 0.07 4609
0.20 0.58 0.81 -0.72 9.98 -0.00 -0.03 0.07 4615
0.20 0.58 0.83 -0.74 9.99 -0.00 -0.02 0.06 4621
0.21 0.58 0.83 -0.74 10.03 -0.00 -0.03 0.06 4627
0.20 0.56 0.82 -0.74 9.97 -0.00 -0.03 0.06 4633
0.20 0.54 0.81 -0.75 10.01 -0.00 -0.02 0.06 4640
0.22 0.53 0.81 -0.72 9.99 -0.00 -0.02 0.06 4646
0.19 0.52 0.77 -0.70 10.00 -0.00 -0.02 0.06 4653
0.19 0.54 0.80 -0.74 9.99 -0.00 -0.02 0.06 4659
0.22 0.52 0.81 -0.75 9.97 0.00 -0.02 0.06 4665
0.21 0.51 0.83 -0.72 9.98 0.00 -0.02 0.06 4671
0.20 0.51 0.81 -0.75 10.02 0.00 -0.02 0.06 4677
0.21 0.51 0.83 -0.71 9.96 0.00 -0.02 0.06 4684
0.21 0.51 0.82 -0.76 9.99 0.03 -0.02 0.06 4690
0.20 0.49 0.81 -0.73 9.93 0.00 -0.02 0.06 4697
0.19 0.50 0.82 -0.74 9.93 0.00 -0.02 0.06 4703
0.20 0.50 0.82 -0.74 10.00 -0.00 -0.02 0.06 4709
0.18 0.48 0.81 -0.72 9.94 -0.00 -0.02 0.06 4715
0.18 0.48 0.79 -0.71 9.97 -0.00 -0.02 0.06 4722
0.18 0.46 0.86 -0.70 9.95 -0.00 -0.02 0.06 4728
0.17 0.45 0.85 -0.69 9.96 -0.00 -0.02 0.06 4734
0.16 0.45 0.82 -0.74 9.96 -0.01 -0.02 0.06 4741
0.17 0.48 0.83 -0.69 10.00 -0.00 -0.02 0.05 4747
0.17 0.47 0.81 -0.73 9.95 -0.01 -0.03 0.05 4753
0.17 0.44 0.82 -0.75 9.96 -0.01 -0.03 0.05 4759
0.15 0.45 0.85 -0.72 9.96 -0.01 -0.03 0.05 4766
0.16 0.45 0.82 -0.72 9.98 -0.01 -0.03 0.05 4772
0.16 0.43 0.80 -0.74 9.99 -0.01 -0.03 0.05 4779
0.15 0.46 0.80 -0.73 10.00 -0.01 -0.03 0.05 4785
0.17 0.47 0.81 -0.72 9.96 -0.01 -0.03 0.05 4791
0.16 0.46 0.81 -0.73 9.98 -0.01 -0.03 0.05 4797
0.16 0.41 0.81 -0.72 10.01 -0.01 -0.02 0.05 4804
0.17 0.43 0.82 -0.74 10.00 -0.01 -0.02 0.04 4810
0.16 0.43 0.82 -0.75 10.02 -0.00 -0.02 0.05 4816
0.16 0.43 0.85 -0.73 9.98 -0.00 -0.02 0.05 4823
0.17 0.42 0.81 -0.74 10.01 0.00 -0.02 0.04 4829
0.16 0.39 0.81 -0.74 9.93 -0.00 -0.02 0.05 4835
0.15 0.39 0.81 -0.71 10.00 -0.00 -0.01 0.04 4842
0.16 0.39 0.81 -0.74 9.97 -0.00 -0.01 0.04 4848
0.16 0.40 0.86 -0.76 9.96 -0.00 -0.01 0.04 4854
0.16 0.40 0.84 -0.76 10.02 -0.01 -0.01 0.04 4860
0.17 0.38 0.82 -0.75 10.02 -0.00 -0.01 0.04 4867
0.17 0.38 0.84 -0.72 10.01 -0.00 -0.00 0.04 4873
0.17 0.36 0.91 -0.74 9.97 0.00 -0.01 0.03 4880
0.17 0.33 0.87 -0.74 10.00 0.00 -0.02 0.04 4886
0.18 0.33 0.90 -0.76 9.99 -0.00 -0.02 0.03 4892
0.17 0.36 0.84 -0.76 9.95 -0.00 -0.03 0.03 4898
0.16 0.35 0.89 -0.80 10.01 -0.01 -0.03 0.03 4904
0.18 0.35 0.86 -0.79 9.93 -0.01 -0.03 0.03 4911
0.20 0.33 0.85 -0.76 10.01 -0.01 -0.04 0.03 4918
0.18 0.33 0.85 -0.78 10.02 -0.01 -0.04 0.03 4924
0.20 0.36 0.86 -0.77 10.00 -0.01 -0.04 0.03 4930
0.21 0.29 0.92 -0.73 9.98 -0.01 -0.04 0.02 4936
0.19 0.26 0.88 -0.76 10.00 -0.01 -0.04 0.02 4942
0.17 0.31 0.88 -0.70 10.04 -0.00 -0.04 0.02 4948
0.19 0.30 0.90 -0.72 9.98 -0.00 -0.04 0.02 4956
0.18 0.21 0.86 -0.78 10.00 0.00 -0.05 0.02 4962
0.18 0.21 0.87 -0.75 9.99 0.00 -0.05 0.02 4968
0.19 0.19 0.91 -0.73 9.94 -0.00 -0.06 0.02 4974
0.18 0.17 0.87 -0.78 9.94 -0.00 -0.07 0.02 4980
0.17 0.15 0.88 -0.77 9.99 -0.00 -0.07 0.02 4986
0.20 0.18 0.87 -0.75 9.94 -0.01 -0.07 0.02 4993
0.20 0.18 0.80 -0.80 9.93 0.00 -0.07 0.02 4999
0.21 0.16 0.80 -0.80 9.95 0.00 -0.06 0.02 5006
0.21 0.16 0.83 -0.78 10.01 0.00 -0.05 0.02 5012
0.25 0.11 0.85 -0.75 9.97 0.01 -0.05 0.03 5018
0.24 0.13 0.83 -0.80 10.04 0.01 -0.04 0.02 5024
0.24 0.15 0.84 -0.76 10.03 0.01 -0.04 0.03 5030
0.26 0.11 0.82 -0.75 10.08 0.01 -0.03 0.03 5037
0.26 0.10 0.85 -0.77 9.99 0.02 -0.03 0.03 5044
0.26 0.06 0.87 -0.76 10.01 0.02 -0.04 0.03 5050
0.28 0.06 0.87 -0.79 9.96 0.02 -0.04 0.03 5056
0.28 0.05 0.85 -0.78 10.02 0.01 -0.04 0.03 5062
0.29 0.04 0.83 -0.82 10.03 0.01 -0.04 0.03 5068
0.32 0.03 0.83 -0.80 9.95 0.01 -0.04 0.00 5074
0.34 0.02 0.85 -0.82 10.03 0.01 -0.05 0.03 5082
0.35 0.01 0.86 -0.80 9.99 0.01 -0.05 0.03 5088
0.35 0.02 0.90 -0.77 10.00 0.01 -0.05 0.03 5094
0.39 0.00 0.86 -0.81 9.95 0.01 -0.05 0.03 5100
0.39 0.00 0.84 -0.80 9.98 0.00 -0.05 0.03 5106
0.38 0.01 0.82 -0.82 10.02 0.00 -0.05 0.03 5112
0.40 0.03 0.83 -0.77 10.03 0.00 -0.05 0.03 5120
0.41 0.01 0.83 -0.80 9.98 0.01 -0.05 0.03 5126
0.40 -0.00 0.86 -0.79 10.00 0.01 -0.05 0.03 5132
0.42 0.01 0.82 -0.81 10.00 0.01 -0.05 0.03 5138
0.42 -0.00 0.85 -0.81 9.98 0.01 -0.05 0.04 5144
0.43 -0.03 0.86 -0.81 9.98 0.01 -0.05 0.04 5150
0.42 -0.00 0.87 -0.80 10.00 0.00 -0.05 0.03 5156
0.44 -0.01 0.84 -0.83 9.99 0.00 -0.05 0.03 5164
0.46 -0.02 0.82 -0.81 9.99 0.00 -0.05 0.03 5170
0.48 -0.02 0.84 -0.80 10.02 0.00 -0.05 0.03 5176
0.49 -0.01 0.80 -0.79 9.96 0.01 -0.05 0.03 5182
0.50 -0.02 0.80 -0.82 9.99 0.01 -0.04 0.03 5188
0.49 -0.02 0.80 -0.80 10.00 0.02 -0.05 0.04 5194
0.50 -0.02 0.89 -0.81 10.02 0.02 -0.04 0.03 5200
0.50 -0.02 0.84 -0.80 9.99 0.02 -0.04 0.03 5208
0.51 -0.03 0.80 -0.81 10.04 0.03 -0.05 0.03 5214
0.53 -0.03 0.83 -0.79 10.02 0.04 -0.04 0.03 5220
0.55 -0.02 0.72 -1.02 9.97 0.05 -0.04 0.02 5226
0.53 -0.03 0.76 -0.81 10.12 0.06 -0.04 0.02 5232
0.51 -0.03 0.78 -0.83 10.08 0.08 -0.03 0.02 5238
0.55 -0.04 0.78 -0.84 10.07 0.10 -0.03 0.02 5245
0.54 -0.03 0.81 -0.82 10.20 0.13 -0.02 0.02 5252
0.55 -0.03 0.89 -0.83 10.11 0.16 -0.03 0.01 5258
0.59 -0.04 0.95 -0.92 10.23 0.20 -0.03 0.00 5264
0.60 -0.04 0.95 -0.91 10.28 0.24 -0.05 -0.01 5270
0.61 -0.03 1.03 -0.96 10.31 0.30 -0.06 -0.03 5277
0.63 -0.04 0.98 -1.02 10.53 0.39 -0.07 -0.05 5283
0.61 -0.05 1.10 -1.03 10.68 0.52 -0.08 -0.08 5289
0.62 -0.04 1.07 -1.14 10.99 0.68 -0.09 -0.11 5296
0.66 -0.04 1.09 -1.21 11.25 0.86 -0.11 -0.14 5302
0.69 -0.04 1.27 -1.30 11.30 0.98 -0.13 -0.18 5309
0.68 -0.02 1.18 -1.31 11.66 1.09 -0.17 -0.21 5315
0.69 -0.03 1.29 -1.51 11.72 1.20 -0.22 -0.24 5321
0.67 -0.03 1.56 -1.56 12.11 1.30 -0.29 -0.28 5327
0.67 -0.03 1.88 -1.80 12.21 1.42 -0.40 -0.33 5335
0.65 -0.04 1.94 -1.92 12.29 1.55 -0.48 -0.40 5341
0.64 -0.02 2.26 -2.11 12.59 1.68 -0.62 -0.48 5347
0.64 -0.03 2.85 -2.50 12.87 1.80 -0.76 -0.58 5353
0.60 -0.04 3.30 -2.74 12.73 1.89 -0.92 -0.72 5360
0.51 -0.01 3.77 -3.67 11.99 1.95 -1.00 -0.88 5366
0.51 -0.02 4.31 -3.52 11.69 1.96 -1.02 -1.06 5372
0.43 -0.02 4.56 -4.02 11.26 1.94 -1.00 -1.24 5379
0.30 -0.02 4.81 -3.80 11.61 1.91 -0.95 -1.40 5385
0.25 -0.03 5.00 -4.26 10.64 1.86 -0.86 -1.58 5392
0.22 -0.00 4.85 -4.47 10.64 1.78 -0.73 -1.75 5398
0.15 -0.01 4.66 -4.46 11.11 1.71 -0.57 -1.89 5404
0.12 -0.01 5.16 -4.09 11.79 1.59 -0.36 -2.04 5410
0.10 -0.00 3.86 -3.96 12.87 1.54 -0.30 -2.14 5416
0.09 -0.01 2.84 -3.71 12.89 1.46 -0.36 -2.22 5424
0.08 -0.01 3.33 -2.93 13.08 1.39 -0.55 -2.30 5430
0.08 -0.00 3.80 -2.86 12.87 1.27 -0.79 -2.37 5436
0.07 -0.01 3.54 -1.72 14.00 1.06 -1.10 -2.48 5442
0.06 -0.01 3.83 0.63 14.50 0.74 -1.42 -2.61 5448
0.06 -0.01 4.21 1.88 12.52 0.37 -1.62 -2.74 5455
0.06 -0.01 4.34 4.27 9.66 0.01 -1.82 -2.93 5462
0.05 -0.00 5.24 4.37 6.83 -0.31 -1.91 -3.17 5468
0.04 -0.00 4.67 4.18 6.72 -0.54 -1.89 -3.47 5474
0.05 -0.01 5.71 2.21 6.16 -0.65 -1.72 -3.72 5480
0.05 -0.00 6.45 1.37 7.99 -0.70 -1.26 -3.82 5486
0.04 -0.00 6.32 1.70 8.36 -0.81 -0.73 -3.84 5492
0.05 -0.00 6.21 2.12 7.57 -0.84 -0.36 -3.81 5498
0.06 -0.01 5.97 1.99 6.66 -0.78 -0.10 -3.74 5505
0.05 -0.00 5.56 1.61 6.20 -0.72 -0.01 -3.60 5512
0.04 -0.00 5.17 1.37 5.98 -0.68 0.03 -3.39 5518
0.04 -0.00 5.17 1.16 6.17 -0.62 0.11 -3.12 5524
0.06 -0.01 5.49 0.83 6.65 -0.57 0.19 -2.80 5530
0.04 -0.00 5.72 0.55 7.16 -0.50 0.24 -2.49 5536
0.05 -0.00 5.93 0.51 7.47 -0.45 0.32 -2.17 5542
0.05 -0.00 6.00 0.39 7.77 -0.40 0.44 -1.94 5549
0.05 -0.01 5.95 0.34 8.30 -0.36 0.63 -1.65 5555
0.04 -0.00 5.72 0.20 8.80 -0.33 0.85 -1.37 5561
0.04 -0.00 5.34 0.21 9.35 -0.31 1.09 -1.08 5567
0.04 -0.00 4.30 0.28 9.86 -0.30 1.30 -0.79 5574
0.05 -0.01 4.22 0.35 10.22 -0.30 1.45 -0.48 5580
0.04 -0.00 3.42 0.41 10.59 -0.33 1.56 -0.24 5586
0.03 -0.00 2.67 0.28 10.70 -0.38 1.60 0.06 5593
0.04 -0.00 2.02 0.14 10.79 -0.41 1.59 0.36 5599
0.05 -0.00 1.48 -0.02 10.89 -0.44 1.55 0.66 5605
0.04 -0.00 1.08 -0.23 10.94 -0.44 1.51 0.94 5611
0.04 -0.00 0.79 -0.45 11.01 -0.43 1.50 1.22 5618
0.06 -0.01 0.56 -0.68 11.25 -0.42 1.50 1.47 5624
0.04 -0.00 0.28 -0.94 11.48 -0.42 1.51 1.69 5630
0.03 -0.00 -0.02 -1.80 11.77 -0.44 1.50 1.86 5637
0.05 0.00 -0.40 -1.46 11.89 -0.46 1.46 1.96 5643
0.05 -0.00 -0.72 -1.75 12.00 -0.48 1.39 2.03 5649
0.04 -0.00 -1.09 -1.94 12.13 -0.51 1.29 2.06 5656
0.04 -0.00 -1.41 -2.10 12.02 -0.54 1.18 2.04 5662
0.04 -0.00 -1.56 -2.28 11.89 -0.56 1.08 1.97 5668
0.04 -0.00 -1.60 -2.42 11.73 -0.58 0.97 1.85 5675
0.04 -0.00 -1.47 -2.46 11.69 -0.61 0.90 1.70 5681
0.05 -0.01 -1.32 -2.52 11.65 -0.63 0.87 1.52 5687
0.04 -0.00 -1.13 -2.62 11.41 -0.65 0.88 1.32 5694
0.04 -0.00 -1.07 -2.71 11.29 -0.67 0.91 1.12 5700
0.05 -0.00 -1.10 -2.72 11.27 -0.67 0.96 0.96 5706
0.04 -0.00 -1.27 -2.69 11.22 -0.67 1.00 0.80 5712
0.03 -0.00 -1.44 -2.64 11.01 -0.66 1.02 0.68 5719
0.05 -0.00 -1.51 -2.61 11.10 -0.64 1.01 0.61 5725
0.04 -0.00 -1.64 -2.66 11.17 -0.63 0.97 0.57 5731
0.04 -0.00 -1.71 -2.76 11.06 -0.61 0.88 0.56 5738
0.04 0.00 -1.50 -2.84 10.96 -0.59 0.76 0.58 5744
0.04 -0.00 -1.14 -2.95 10.80 -0.58 0.66 0.61 5750
0.04 -0.00 -0.63 -3.64 10.87 -0.58 0.57 0.65 5756
0.04 -0.00 -0.05 -3.20 10.81 -0.57 0.53 0.69 5763
0.05 -0.00 0.34 -3.43 10.68 -0.56 0.53 0.75 5769
0.04 -0.00 0.70 -3.58 10.42 -0.55 0.56 0.79 5776
0.03 -0.00 0.87 -3.80 10.18 -0.54 0.61 0.84 5782
0.05 -0.01 0.78 -3.99 9.93 -0.52 0.67 0.90 5788
0.04 -0.00 0.66 -4.14 9.82 -0.48 0.72 0.94 5794
0.04 -0.00 0.50 -4.27 9.77 -0.43 0.76 0.99 5800
0.04 -0.00 0.31 -4.90 9.75 -0.37 0.77 1.02 5807
0.04 -0.00 0.11 -4.25 9.74 -0.31 0.77 1.05 5813
0.05 -0.00 -0.03 -4.18 9.83 -0.26 0.76 1.08 5819
0.04 -0.00 -0.17 -4.11 9.87 -0.21 0.76 1.10 5825
0.03 -0.00 -0.26 -4.05 9.84 -0.18 0.77 1.13 5832
0.04 -0.00 -0.49 -3.99 9.84 -0.16 0.79 1.14 5838
0.04 -0.00 -0.74 -3.94 9.80 -0.13 0.82 1.16 5844
0.04 -0.00 -1.06 -3.83 9.70 -0.11 0.83 1.18 5851
0.04 -0.00 -1.37 -3.79 9.61 -0.10 0.82 1.20 5857
0.04 -0.00 -1.65 -3.82 9.59 -0.10 0.79 1.21 5863
0.04 -0.00 -1.96 -3.82 9.72 -0.10 0.74 1.21 5869
0.04 -0.00 -2.13 -3.88 9.80 -0.12 0.69 1.20 5875
0.04 -0.00 -2.22 -3.96 9.80 -0.16 0.64 1.17 5881
0.05 -0.00 -2.33 -4.08 9.70 -0.19 0.59 1.13 5888
0.04 -0.00 -2.50 -4.32 9.58 -0.21 0.54 1.08 5895
0.04 -0.00 -2.67 -4.50 9.39 -0.22 0.49 1.01 5901
0.04 -0.00 -2.72 -4.68 9.24 -0.21 0.45 0.94 5907
0.05 -0.01 -2.81 -4.99 9.19 -0.19 0.39 0.86 5913
0.04 -0.00 -2.89 -5.18 9.07 -0.15 0.34 0.80 5919
0.04 -0.00 -3.06 -5.33 9.14 -0.10 0.30 0.75 5925
0.04 -0.00 -3.17 -5.60 9.15 -0.04 0.26 0.70 5932
0.04 -0.00 -3.25 -5.94 9.18 0.02 0.23 0.65 5938
0.05 -0.00 -4.02 -6.45 9.41 0.08 0.18 0.60 5944
0.04 -0.00 -10.96 -8.50 13.69 0.24 -0.51 0.64 5951
0.04 -0.00 -9.34 -6.50 9.66 0.45 -1.48 0.75 5957
0.05 -0.01 -7.38 -5.82 7.13 0.44 -1.76 0.86 5963
0.03 -0.00 -9.09 -7.25 9.74 0.47 -2.20 1.00 5969
0.04 -0.00 -7.12 -6.36 9.41 0.48 -2.75 1.11 5976
0.04 -0.00 -7.77 -6.27 8.58 0.51 -2.95 1.24 5982
0.04 -0.00 -14.89 -0.12 17.82 0.94 -2.81 1.56 5988
0.03 -0.00 -2.22 -2.50 9.37 1.44 -1.57 2.03 5994
0.02 0.04 -7.81 4.94 14.51 1.46 -1.62 2.29 6001
0.03 0.09 -24.65 -3.27 30.31 0.79 -1.57 1.96 6007
0.03 0.16 -15.39 -4.61 5.48 -0.26 -0.24 0.93 6013
0.04 0.26 -4.91 -0.89 12.85 -0.23 0.12 0.26 6020
0.04 0.38 -2.94 -1.13 9.28 -0.17 0.15 -0.05 6027
0.04 0.37 1.74 -0.68 10.34 0.01 0.23 -0.11 6033
0.03 0.47 2.51 -0.40 10.92 0.01 0.11 0.00 6039
0.03 0.42 2.55 -0.45 10.07 -0.03 0.03 0.16 6045
0.03 0.41 2.03 -0.32 10.02 -0.02 0.01 0.26 6051
0.04 0.42 0.49 -0.42 10.20 -0.01 0.01 0.29 6059
0.04 0.43 -0.89 -1.40 10.11 -0.01 0.02 0.22 6065
0.05 0.43 -0.36 -0.92 9.86 -0.02 0.01 0.17 6071
0.07 0.46 0.92 -1.04 9.76 -0.04 0.00 0.19 6077
0.10 0.42 0.82 -1.12 9.93 -0.05 -0.02 0.21 6083
0.08 0.40 0.52 -0.92 10.02 -0.06 -0.04 0.18 6089
0.08 0.47 0.67 -0.91 10.15 -0.07 -0.04 0.15 6096
0.10 0.48 0.80 -1.09 10.19 -0.09 -0.10 0.12 6103
0.11 0.51 0.93 -1.05 10.26 -0.10 -0.09 0.08 6109
0.11 0.55 0.74 -0.89 10.20 -0.09 -0.10 0.06 6115
0.13 0.54 0.68 -0.85 10.05 -0.08 -0.10 0.05 6121
0.12 0.59 0.60 -0.79 10.10 -0.08 -0.09 0.04 6128
0.13 0.64 0.60 -0.82 10.16 -0.07 -0.08 0.04 6134
0.14 0.64 0.51 -0.73 10.19 -0.06 -0.08 0.05 6140
0.12 0.65 0.62 -0.79 10.06 -0.05 -0.07 0.05 6147
0.12 0.67 0.63 -0.80 10.14 -0.05 -0.06 0.05 6153
0.12 0.68 0.74 -0.85 10.16 -0.04 -0.06 0.06 6160
0.13 0.65 0.62 -0.77 10.06 -0.03 -0.06 0.05 6166
0.15 0.66 0.62 -0.80 10.04 -0.03 -0.05 0.05 6172
0.16 0.63 0.62 -0.73 10.02 -0.03 -0.05 0.05 6178
0.16 0.63 0.61 -0.77 10.00 -0.02 -0.05 0.05 6184
0.18 0.66 0.60 -0.79 10.01 -0.03 -0.05 0.05 6192
0.18 0.67 0.62 -0.81 10.04 -0.03 -0.04 0.05 6198
0.17 0.70 0.64 -0.81 10.05 -0.03 -0.04 0.05 6204
0.18 0.72 0.68 -0.74 10.00 -0.02 -0.04 0.05 6210
0.18 0.70 0.66 -0.71 10.05 -0.02 -0.04 0.04 6216
0.17 0.70 0.67 -0.75 10.04 -0.01 -0.03 0.04 6223
0.18 0.70 0.69 -0.78 10.00 -0.01 -0.03 0.04 6230
0.17 0.72 0.66 -0.77 10.01 -0.01 -0.04 0.04 6236
0.15 0.70 0.67 -0.77 10.03 -0.01 -0.04 0.03 6242
0.15 0.68 0.66 -0.78 9.99 -0.01 -0.04 0.04 6248
0.14 0.68 0.66 -0.78 9.99 -0.01 -0.04 0.03 6254
0.14 0.70 0.62 -0.77 10.03 -0.01 -0.04 0.04 6261
0.14 0.72 0.66 -0.73 10.04 -0.01 -0.04 0.04 6267
0.13 0.73 0.65 -0.80 10.00 -0.01 -0.04 0.03 6274
0.13 0.71 0.66 -0.76 10.00 -0.01 -0.03 0.04 6280
0.14 0.72 0.66 -0.75 9.98 -0.00 -0.04 0.03 6286
0.12 0.71 0.66 -0.76 10.01 -0.01 -0.04 0.03 6293
0.11 0.71 0.64 -0.74 9.97 -0.01 -0.04 0.03 6299
0.12 0.70 0.64 -0.78 9.99 -0.01 -0.04 0.04 6305
0.11 0.70 0.65 -0.76 10.03 -0.01 -0.04 0.04 6311
0.10 0.69 0.66 -0.76 10.00 -0.01 -0.04 0.03 6318
0.12 0.69 0.67 -0.75 9.99 -0.01 -0.04 0.03 6324
0.10 0.68 0.68 -0.78 9.99 -0.01 -0.04 0.03 6331
0.09 0.70 0.67 -0.77 9.99 -0.01 -0.04 0.03 6337
0.10 0.74 0.64 -0.78 9.96 -0.01 -0.04 0.03 6343
0.10 0.73 0.67 -0.76 10.00 -0.01 -0.05 0.03 6349
0.09 0.71 0.63 -0.74 9.97 -0.01 -0.04 0.03 6355
0.09 0.75 0.63 -0.75 10.01 -0.01 -0.04 0.03 6362
0.10 0.75 0.64 -0.75 10.00 -0.01 -0.04 0.03 6369
0.10 0.74 0.67 -0.74 9.98 -0.02 -0.05 0.03 6375
0.09 0.74 0.62 -0.76 10.03 -0.02 -0.05 0.03 6381
0.10 0.74 0.63 -0.75 9.98 -0.01 -0.05 0.03 6387
0.09 0.72 0.58 -0.74 9.97 -0.01 -0.05 0.03 6393
0.08 0.76 0.64 -0.75 10.01 -0.01 -0.05 0.03 6400
0.11 0.77 0.65 -0.76 10.03 -0.01 -0.04 0.03 6407
0.11 0.73 0.64 -0.72 10.04 -0.01 -0.04 0.03 6413
0.08 0.73 0.67 -0.74 9.99 -0.02 -0.05 0.03 6419
0.09 0.74 0.61 -0.78 9.97 -0.01 -0.04 0.03 6425
0.07 0.72 0.69 -0.78 9.99 -0.01 -0.04 0.03 6431
0.07 0.72 0.62 -0.75 9.98 -0.01 -0.04 0.03 6437
0.09 0.73 0.65 -0.76 9.98 -0.01 -0.04 0.02 6444
0.09 0.72 0.63 -0.79 10.04 -0.01 -0.04 0.02 6451
0.09 0.70 0.64 -0.74 10.02 -0.01 -0.04 0.03 6457
0.10 0.71 0.64 -0.78 9.94 -0.01 -0.04 0.03 6463
0.11 0.70 0.64 -0.74 10.01 -0.02 -0.04 0.03 6469
0.09 0.67 0.62 -0.73 10.02 -0.02 -0.04 0.03 6475
0.08 0.67 0.63 -0.74 9.92 -0.01 -0.04 0.02 6482
0.11 0.65 0.60 -0.74 9.97 -0.01 -0.04 0.02 6489
0.12 0.61 0.60 -0.72 10.00 -0.01 -0.03 0.02 6495
0.12 0.63 0.66 -0.72 9.97 -0.01 -0.03 0.02 6501
0.13 0.64 0.64 -0.76 10.00 -0.01 -0.03 0.01 6507
0.13 0.58 0.63 -0.77 10.08 -0.01 -0.03 0.01 6513
0.13 0.57 0.64 -0.71 9.98 -0.00 -0.02 0.01 6520
0.16 0.55 0.58 -0.77 9.97 -0.00 -0.02 0.01 6526
0.14 0.53 0.62 -0.77 9.99 -0.00 -0.02 0.01 6533
0.16 0.49 1.17 -0.75 10.00 -0.00 -0.02 0.01 6539
0.18 0.50 0.61 -0.75 9.95 -0.00 -0.02 0.01 6545
0.20 0.47 0.65 -0.80 10.01 -0.00 -0.02 0.01 6551
0.21 0.42 0.57 -0.75 10.02 -0.00 -0.02 0.01 6557
0.24 0.36 0.66 -0.74 10.01 -0.00 -0.02 0.00 6564
0.28 0.37 0.61 -0.76 10.05 0.01 -0.02 0.00 6571
0.30 0.36 0.66 -0.77 9.99 0.01 -0.02 0.00 6577
0.31 0.31 0.69 -0.78 10.05 0.01 -0.02 0.00 6583
0.36 0.30 0.67 -0.77 9.94 0.01 -0.02 0.01 6589
0.36 0.28 0.65 -0.78 10.07 0.01 -0.02 0.01 6595
0.39 0.22 0.65 -0.80 10.05 0.02 -0.03 0.01 6602
0.40 0.23 0.63 -0.81 10.08 0.02 -0.03 0.01 6608
0.41 0.18 0.63 -0.83 10.08 0.02 -0.03 0.01 6615
0.44 0.17 0.66 -0.76 10.07 0.03 -0.04 0.01 6621
0.47 0.16 0.62 -0.80 9.99 0.03 -0.04 0.01 6627
0.46 0.13 0.67 -0.81 10.01 0.04 -0.04 0.01 6634
0.47 0.09 0.66 -0.79 10.03 0.04 -0.04 0.01 6640
0.54 0.12 0.65 -0.81 10.06 0.05 -0.04 0.01 6646
0.54 0.08 0.69 -0.82 10.10 0.06 -0.04 0.01 6652
0.53 0.04 0.67 -0.80 10.13 0.08 -0.05 0.00 6659
0.56 0.04 0.74 -0.83 10.10 0.10 -0.05 -0.00 6665
0.57 0.04 0.71 -0.84 10.18 0.12 -0.06 -0.01 6672
0.59 0.00 0.69 -0.83 10.26 0.16 -0.06 -0.01 6678
0.62 -0.02 0.70 -0.91 10.38 0.22 -0.06 -0.03 6684
0.63 -0.04 0.88 -0.86 10.49 0.29 -0.07 -0.05 6690
0.68 -0.03 1.25 -1.07 10.71 0.40 -0.11 -0.13 6696
0.72 -0.04 1.93 -1.34 11.32 0.55 -0.18 -0.22 6704
0.74 -0.06 2.81 -1.65 12.17 0.76 -0.31 -0.34 6710
0.77 -0.04 3.08 -1.59 13.89 1.07 -0.47 -0.53 6716
0.79 -0.05 2.66 -1.96 13.66 1.41 -0.76 -0.68 6722
0.76 -0.04 3.63 -1.91 13.86 1.64 -1.07 -0.81 6729
0.78 -0.04 3.62 -2.48 13.55 1.75 -1.23 -0.98 6735
0.76 -0.05 4.37 -2.62 13.72 1.84 -1.38 -1.17 6742
0.71 -0.04 5.32 -3.34 13.40 1.96 -1.53 -1.37 6748
0.67 -0.04 6.08 -3.53 12.37 2.05 -1.54 -1.64 6755
0.60 -0.04 7.38 -4.31 11.91 2.12 -1.41 -1.94 6761
0.54 -0.03 7.16 -4.17 11.79 2.14 -1.22 -2.25 6767
0.42 -0.02 6.32 -4.13 11.82 2.09 -1.03 -2.54 6773
0.24 -0.02 5.87 -4.55 11.20 1.96 -0.89 -2.81 6780
0.18 -0.02 8.54 -4.57 11.25 1.86 -0.79 -3.09 6787
0.14 -0.01 11.06 -3.53 10.21 1.69 -0.48 -3.38 6793
0.08 -0.00 8.12 -4.42 9.65 1.56 -0.04 -3.70 6799
0.07 -0.01 8.04 -2.12 11.19 1.41 0.25 -3.96 6805
0.06 -0.01 5.93 -2.35 11.96 1.24 0.30 -4.15 6811
0.06 -0.01 5.09 -1.94 12.39 1.07 0.19 -4.24 6818
0.07 -0.01 4.56 -1.04 12.35 0.88 -0.08 -4.27 6824
0.05 -0.00 3.33 -0.22 11.91 0.61 -0.43 -4.28 6831
0.06 -0.01 3.82 1.02 11.90 0.24 -0.90 -4.28 6837
0.06 -0.01 4.05 2.28 10.33 -0.12 -1.44 -4.28 6843
0.05 -0.00 3.93 4.27 7.93 -0.41 -1.93 -4.28 6849
0.04 -0.00 5.30 3.16 6.37 -0.63 -2.23 -4.28 6855
0.04 0.00 6.29 0.64 8.52 -0.71 -2.06 -4.28 6862
0.05 -0.01 6.83 0.08 10.39 -0.93 -1.41 -3.96 6868
0.05 -0.00 8.96 0.24 9.20 -1.04 -0.49 -3.48 6875
0.04 -0.00 9.38 0.18 7.42 -1.00 0.07 -3.18 6881
0.04 0.00 8.63 -0.35 6.08 -0.97 0.33 -2.92 6887
0.05 -0.01 7.62 -0.79 4.75 -0.86 0.47 -2.65 6893
0.04 -0.00 7.11 -1.17 4.84 -0.66 0.64 -2.33 6899
0.05 -0.00 7.12 -1.35 5.55 -0.45 0.83 -1.99 6905
0.06 -0.01 7.27 -1.48 6.14 -0.19 0.99 -1.65 6913
0.05 -0.01 7.17 -1.41 6.76 0.02 1.19 -1.36 6919
0.06 -0.01 6.94 -1.11 7.92 0.16 1.40 -1.10 6925
0.06 -0.01 6.28 -0.90 8.28 0.22 1.59 -0.82 6931
0.07 -0.01 5.45 -0.78 9.27 0.25 1.73 -0.54 6937
0.06 -0.01 4.55 -0.63 9.90 0.25 1.81 -0.27 6943
0.05 -0.01 3.70 -0.50 10.22 0.22 1.85 0.01 6949
0.05 -0.01 3.07 -0.38 10.72 0.17 1.86 0.28 6956
0.05 -0.01 2.48 -0.34 11.01 0.10 1.83 0.52 6963
0.05 -0.00 1.84 -0.34 11.17 0.02 1.79 0.69 6969
0.05 -0.00 1.26 -0.38 11.24 -0.05 1.77 0.88 6975
0.06 -0.01 0.67 -0.45 11.18 -0.10 1.78 1.04 6981
0.05 -0.00 0.10 -0.51 11.03 -0.14 1.82 1.16 6987
0.04 -0.00 -0.46 -0.71 11.17 -0.16 1.88 1.26 6993
0.05 0.00 -1.06 -0.80 11.12 -0.16 1.93 1.32 7001
0.05 -0.00 -1.64 -0.82 11.32 -0.16 1.96 1.37 7007
0.05 -0.00 -2.47 -0.76 11.52 -0.16 1.97 1.40 7013
0.05 -0.00 -3.16 -0.56 11.73 -0.15 1.94 1.44 7019
0.05 -0.01 -3.92 -0.36 11.96 -0.16 1.86 1.47 7025
0.05 -0.00 -4.52 -0.18 12.85 -0.19 1.72 1.50 7031
0.05 -0.00 -4.90 -0.11 12.36 -0.24 1.50 1.52 7038
0.06 -0.01 -4.88 -0.12 12.35 -0.30 1.23 1.53 7045
0.05 -0.00 -4.52 -0.22 12.29 -0.36 0.94 1.50 7051
0.04 -0.00 -3.89 -0.45 12.10 -0.42 0.70 1.46 7057
0.06 -0.01 -3.11 -0.70 12.00 -0.46 0.55 1.39 7063
0.04 -0.00 -1.92 -1.07 11.75 -0.50 0.50 1.31 7069
0.04 -0.00 -1.90 -1.48 11.60 -0.52 0.50 1.21 7075
0.05 -0.00 -1.43 -1.74 11.57 -0.52 0.53 1.10 7083
0.05 -0.00 -1.23 -1.95 11.29 -0.50 0.58 1.06 7089
0.04 -0.00 -1.08 -2.08 11.14 -0.47 0.62 1.00 7095
0.05 0.00 -1.04 -2.14 11.12 -0.44 0.63 0.96 7101
0.04 -0.00 -0.90 -2.22 11.04 -0.42 0.63 0.94 7107
0.04 -0.00 -0.76 -2.31 11.06 -0.41 0.60 0.94 7113
0.04 -0.00 -0.60 -2.41 11.01 -0.40 0.56 0.94 7120
0.05 -0.01 -0.44 -2.59 10.82 -0.39 0.53 0.96 7127
0.04 -0.00 -0.29 -2.70 10.63 -0.37 0.51 0.97 7133
0.03 -0.00 -0.17 -2.70 10.35 -0.34 0.50 0.99 7139
0.04 -0.00 -0.11 -2.80 10.17 -0.31 0.50 1.01 7145
0.04 -0.00 -0.12 -2.77 10.12 -0.27 0.51 1.04 7151
0.03 -0.00 -0.20 -2.71 10.18 -0.24 0.52 1.06 7157
0.04 0.00 -0.35 -2.54 10.28 -0.20 0.52 1.10 7164
0.05 -0.00 -0.51 -2.43 10.31 -0.18 0.49 1.13 7171
0.04 -0.00 -0.57 -2.32 10.27 -0.17 0.46 1.18 7177
0.04 -0.00 -0.54 -2.26 10.35 -0.17 0.42 1.22 7183
0.05 -0.00 -0.64 -2.24 10.36 -0.18 0.41 1.27 7189
0.04 -0.00 -0.74 -2.23 10.25 -0.19 0.41 1.33 7195
0.04 -0.00 -0.87 -2.21 10.09 -0.20 0.39 1.38 7202
0.05 -0.01 -1.03 -2.22 9.92 -0.20 0.37 1.44 7208
0.04 -0.00 -1.26 -2.22 9.77 -0.20 0.34 1.50 7215
0.04 -0.00 -1.46 -2.19 9.55 -0.19 0.30 1.57 7221
0.05 -0.00 -1.59 -2.31 9.39 -0.18 0.25 1.63 7227
0.05 -0.00 -1.63 -2.49 9.27 -0.17 0.20 1.66 7233
0.04 -0.00 -1.56 -2.69 9.35 -0.15 0.17 1.67 7239
0.03 -0.00 -1.50 -2.84 9.41 -0.13 0.17 1.66 7245
0.04 0.00 -1.52 -2.88 9.48 -0.11 0.20 1.64 7252
0.05 -0.00 -1.61 -2.95 9.50 -0.11 0.25 1.61 7259
0.04 -0.00 -1.83 -2.98 9.46 -0.11 0.27 1.59 7265
0.04 -0.00 -2.06 -2.98 9.32 -0.12 0.27 1.57 7271
0.05 -0.00 -2.45 -3.01 9.39 -0.12 0.25 1.56 7277
0.05 -0.00 -2.59 -2.92 9.18 -0.13 0.21 1.58 7283
0.04 -0.00 -2.66 -2.90 8.98 -0.14 0.15 1.61 7289
0.04 -0.00 -2.53 -2.88 8.76 -0.15 0.09 1.66 7296
0.05 -0.00 -2.25 -2.85 8.71 -0.14 0.02 1.70 7302
0.05 -0.00 -1.87 -2.83 8.78 -0.13 -0.02 1.73 7309
0.04 -0.00 -1.53 -2.76 8.82 -0.12 -0.01 1.77 7315
0.04 -0.00 -1.29 -2.68 8.75 -0.13 0.04 1.81 7321
0.05 -0.01 -1.21 -2.64 8.45 -0.14 0.14 1.85 7327
0.04 -0.00 -1.36 -2.58 8.31 -0.17 0.24 1.89 7333
0.04 -0.00 -18.45 -14.48 15.38 0.14 -0.85 2.06 7340
0.04 0.00 -15.09 -5.72 9.52 0.51 -2.50 2.35 7346
0.04 -0.00 -6.66 -3.37 1.86 0.37 -3.35 2.48 7353
0.04 0.01 -2.06 -11.16 4.44 0.49 -3.61 2.50 7359
0.03 0.09 -5.91 -6.50 13.53 1.48 -1.94 2.79 7365
0.03 0.16 -7.53 -5.27 10.53 1.51 -1.50 2.92 7371
0.02 0.30 -18.58 -4.54 17.03 1.85 -1.45 2.39 7378
0.02 0.48 -17.43 -2.09 24.30 1.99 -1.53 1.38 7385
0.01 0.57 -8.11 -1.51 22.99 0.92 -1.12 0.39 7391
0.01 0.57 -1.35 0.05 11.00 0.07 -0.17 0.04 7397
0.01 0.59 -0.82 -0.16 10.46 0.01 0.02 -0.10 7403
0.01 0.61 3.32 -0.94 9.88 0.03 -0.09 -0.07 7410
0.03 0.56 3.12 -0.37 9.40 0.12 -0.12 0.22 7416
0.03 0.57 1.90 -0.08 10.31 0.11 -0.06 0.38 7422
0.04 0.60 -0.06 -0.71 9.89 0.04 -0.05 0.35 7429
0.04 0.56 -0.89 -1.71 10.22 -0.00 -0.06 0.23 7435
0.05 0.60 0.07 -1.16 10.34 -0.00 -0.03 0.14 7441
0.05 0.61 0.77 -1.24 10.07 -0.03 -0.01 0.14 7448
0.04 0.69 0.62 -1.36 9.98 -0.05 -0.02 0.13 7454
0.05 0.73 0.75 -0.87 10.12 -0.06 -0.03 0.10 7460
0.04 0.76 0.68 -0.73 10.01 -0.05 -0.03 0.09 7467
0.03 0.80 0.63 -0.76 10.02 -0.05 -0.03 0.08 7473
0.04 0.86 0.72 -0.72 10.09 -0.04 -0.03 0.08 7480
0.04 0.81 0.61 -0.59 9.89 -0.03 -0.03 0.09 7486
0.06 0.84 0.69 -0.73 10.00 -0.03 -0.03 0.09 7492
0.05 0.88 0.66 -0.82 9.97 -0.03 -0.03 0.09 7498
0.06 0.87 0.70 -0.83 10.06 -0.03 -0.03 0.09 7504
0.07 0.84 0.67 -0.85 9.90 -0.03 -0.03 0.09 7511
0.07 0.86 0.65 -0.82 9.90 -0.03 -0.03 0.09 7518
0.06 0.87 0.65 -0.76 9.80 -0.03 -0.03 0.09 7524
0.05 0.89 0.71 -0.81 10.04 -0.03 -0.04 0.09 7530
0.08 0.85 0.68 -0.78 9.99 -0.03 -0.04 0.09 7536
0.08 0.85 0.73 -0.76 10.17 -0.02 -0.04 0.09 7542
0.09 0.85 0.37 -0.77 10.01 -0.02 -0.04 0.08 7548
0.13 0.80 0.70 -0.75 10.01 -0.02 -0.04 0.08 7556
0.14 0.79 0.68 -0.75 10.01 -0.01 -0.03 0.09 7562
0.14 0.81 0.69 -0.76 9.97 -0.02 -0.03 0.08 7568
0.15 0.81 0.68 -0.74 10.02 -0.01 -0.03 0.07 7574
0.15 0.75 0.67 -0.71 9.97 -0.01 -0.03 0.08 7580
0.12 0.76 0.77 -0.80 9.99 -0.01 -0.03 0.07 7586
0.13 0.76 0.71 -0.77 9.92 -0.01 -0.03 0.07 7593
0.14 0.73 0.72 -0.76 10.10 -0.01 -0.04 0.07 7600
0.13 0.72 0.70 -0.78 10.02 -0.01 -0.04 0.07 7606
0.14 0.73 0.68 -0.75 9.98 -0.02 -0.03 0.07 7612
0.15 0.71 0.73 -0.74 10.03 -0.01 -0.03 0.07 7618
0.13 0.73 0.70 -0.73 9.99 -0.01 -0.03 0.06 7625
0.15 0.72 0.73 -0.74 9.98 -0.01 -0.03 0.07 7631
0.16 0.72 0.75 -0.73 10.02 -0.01 -0.04 0.07 7638
0.14 0.69 0.72 -0.76 10.05 -0.01 -0.03 0.06 7644
0.14 0.66 0.74 -0.76 10.03 -0.01 -0.03 0.06 7650
0.13 0.64 0.71 -0.75 9.94 -0.00 -0.04 0.07 7656
0.14 0.61 0.72 -0.72 9.96 -0.00 -0.04 0.07 7663
0.13 0.64 0.72 -0.78 10.01 -0.01 -0.04 0.06 7669
0.14 0.66 0.73 -0.75 9.99 -0.01 -0.04 0.06 7675
0.14 0.64 0.71 -0.73 9.98 -0.01 -0.04 0.06 7682
0.14 0.63 0.71 -0.77 10.05 -0.01 -0.04 0.06 7688
0.14 0.64 0.72 -0.71 10.00 -0.01 -0.04 0.06 7694
0.14 0.62 0.69 -0.73 9.97 -0.01 -0.04 0.06 7701
0.13 0.62 0.69 -0.71 10.00 -0.01 -0.04 0.05 7707
0.15 0.61 0.70 -0.76 9.98 -0.01 -0.04 0.05 7713
0.14 0.61 0.70 -0.74 9.95 -0.01 -0.04 0.05 7719
0.12 0.59 0.73 -0.75 9.96 -0.01 -0.04 0.05 7726
0.14 0.57 0.73 -0.73 9.96 -0.01 -0.04 0.05 7732
0.14 0.54 0.71 -0.77 9.98 -0.01 -0.04 0.05 7739
0.15 0.52 0.72 -0.74 9.96 -0.01 -0.04 0.06 7745
0.14 0.54 0.70 -0.75 9.98 -0.01 -0.04 0.05 7751
0.15 0.54 0.70 -0.79 9.99 -0.01 -0.05 0.05 7757
0.14 0.49 0.70 -0.74 10.02 -0.01 -0.05 0.05 7763
0.15 0.51 0.73 -0.74 9.92 -0.01 -0.05 0.05 7770
0.15 0.50 0.71 -0.76 9.98 -0.01 -0.05 0.05 7776
0.14 0.50 0.59 -0.80 9.98 -0.01 -0.05 0.05 7783
0.14 0.49 0.70 -0.76 9.99 -0.01 -0.05 0.05 7789
0.14 0.52 0.70 -0.80 9.97 -0.02 -0.05 0.06 7795
0.15 0.52 0.69 -0.76 9.98 -0.01 -0.05 0.06 7801
0.15 0.52 0.69 -0.76 9.96 -0.01 -0.05 0.05 7808
0.14 0.52 0.69 -0.80 10.02 -0.01 -0.05 0.05 7814
0.15 0.51 0.69 -0.76 9.96 -0.01 -0.05 0.05 7821
0.15 0.48 0.68 -0.79 9.94 -0.02 -0.05 0.05 7827
0.14 0.48 0.65 -0.71 10.00 -0.01 -0.05 0.05 7833
0.16 0.48 0.63 -0.75 9.96 -0.01 -0.05 0.05 7839
0.14 0.49 0.64 -0.72 9.98 -0.01 -0.04 0.04 7845
0.13 0.45 0.65 -0.74 9.98 -0.01 -0.04 0.05 7852
0.15 0.47 0.64 -0.73 9.90 -0.01 -0.05 0.05 7858
0.16 0.47 0.64 -0.73 9.89 -0.01 -0.05 0.04 7865
0.16 0.43 0.75 -0.76 9.90 0.01 -0.07 0.04 7871
0.17 0.47 0.64 -0.73 9.97 -0.01 -0.05 0.04 7877
0.17 0.45 0.65 -0.68 10.04 -0.00 -0.04 0.04 7883
0.17 0.43 0.73 -0.73 9.99 -0.00 -0.04 0.04 7889
0.16 0.45 0.70 -0.73 9.93 -0.01 -0.04 0.04 7896
0.20 0.45 0.68 -0.76 9.97 -0.01 -0.04 0.04 7903
0.20 0.43 0.64 -0.74 10.11 -0.00 -0.04 0.04 7909
0.19 0.44 0.65 -0.76 9.95 -0.00 -0.05 0.04 7915
0.22 0.46 0.66 -0.66 9.90 -0.01 -0.04 0.04 7921
0.21 0.46 0.72 -0.78 9.89 -0.00 -0.04 0.03 7927
0.21 0.42 0.72 -0.74 10.01 -0.00 -0.05 0.04 7933
0.22 0.42 0.72 -0.73 10.01 -0.00 -0.05 0.04 7941
0.25 0.42 0.71 -0.74 9.93 -0.00 -0.05 0.04 7947
0.25 0.45 0.68 -0.75 10.03 0.00 -0.05 0.04 7953
0.26 0.42 0.67 -0.74 10.04 -0.00 -0.05 0.04 7959
0.26 0.39 0.68 -0.78 9.95 0.00 -0.05 0.03 7965
0.24 0.39 0.63 -0.75 9.96 0.00 -0.05 0.04 7971
0.27 0.39 0.66 -0.75 9.99 0.00 -0.05 0.04 7979
0.29 0.36 0.65 -0.74 9.98 0.01 -0.05 0.03 7985
0.29 0.34 0.66 -0.73 9.98 0.01 -0.05 0.03 7991
0.31 0.34 0.66 -0.78 9.99 0.01 -0.06 0.04 7997
0.32 0.30 0.74 -0.77 10.01 0.02 -0.06 0.03 8003
0.32 0.26 0.65 -0.77 10.03 0.02 -0.06 0.02 8009
0.30 0.25 0.63 -0.78 10.02 0.03 -0.06 0.03 8016
0.34 0.21 0.68 -0.74 10.00 0.03 -0.07 0.02 8023
0.36 0.19 0.70 -0.76 10.02 0.05 -0.07 0.01 8029
0.38 0.15 0.65 -0.78 9.98 0.05 -0.07 0.02 8035
0.40 0.14 0.62 -0.81 10.02 0.06 -0.08 0.01 8041
0.43 0.08 0.73 -0.80 10.04 0.08 -0.09 0.01 8047
0.41 0.05 0.79 -0.84 10.15 0.10 -0.10 0.00 8054
0.44 0.04 0.83 -0.77 10.37 0.15 -0.11 -0.01 8060
0.45 0.03 1.07 -1.12 10.56 0.21 -0.12 -0.03 8067
0.49 0.02 1.11 -1.03 10.68 0.32 -0.20 -0.08 8073
0.52 -0.01 1.61 -1.27 11.28 0.47 -0.23 -0.17 8080
0.56 -0.04 2.20 -1.62 11.91 0.69 -0.39 -0.29 8086
0.63 -0.03 3.37 -2.02 12.33 0.92 -0.70 -0.51 8092
0.66 -0.03 4.64 -1.93 13.10 1.08 -1.02 -0.77 8098
0.65 -0.04 3.47 -2.18 14.97 1.24 -1.34 -0.96 8104
0.67 -0.03 2.60 -1.94 14.87 1.53 -1.71 -1.01 8112
0.69 -0.04 3.17 -2.49 13.68 1.75 -1.99 -1.09 8118
0.62 -0.03 3.89 -2.93 13.62 1.82 -2.06 -1.23 8124
0.60 -0.03 4.61 -3.49 13.17 1.88 -2.07 -1.40 8130
0.57 -0.04 4.40 -3.65 13.32 1.99 -2.05 -1.59 8137
0.49 -0.01 6.92 -6.95 10.78 2.11 -2.00 -1.80 8143
0.44 -0.02 4.28 -4.03 13.04 2.15 -1.79 -1.93 8150
0.28 -0.02 4.45 -3.82 14.19 2.11 -1.67 -2.08 8156
0.25 -0.02 4.39 -3.67 13.23 2.08 -1.57 -2.23 8163
0.13 -0.01 4.34 -3.05 12.42 2.00 -1.39 -2.39 8169
0.14 -0.01 5.35 -3.53 11.47 1.95 -1.20 -2.54 8175
0.11 -0.01 5.63 -3.00 11.63 1.90 -0.95 -2.69 8181
0.09 -0.01 4.97 -2.95 12.55 1.84 -0.80 -2.88 8187
0.11 -0.01 4.67 -2.47 13.63 1.75 -0.91 -3.02 8194
0.09 -0.01 4.59 -1.95 14.56 1.61 -1.10 -3.14 8201
0.08 -0.01 3.99 -2.04 14.92 1.43 -1.40 -3.30 8207
0.07 -0.01 3.18 -1.22 13.66 1.20 -1.84 -3.47 8213
0.07 -0.01 4.11 0.56 11.38 0.99 -2.30 -3.60 8219
0.05 -0.00 4.90 3.58 10.56 0.76 -2.64 -3.66 8225
0.03 -0.00 6.47 6.56 9.69 0.46 -2.71 -3.62 8231
0.04 -0.00 8.02 7.70 8.56 0.07 -2.52 -3.48 8238
0.05 -0.01 14.69 7.55 7.95 -0.22 -2.16 -3.04 8245
0.04 -0.00 13.25 3.07 10.84 -0.50 -1.11 -2.46 8251
0.04 -0.00 14.95 3.55 11.83 -0.81 -0.21 -2.10 8257
0.04 -0.00 14.04 4.01 8.35 -0.99 0.13 -1.80 8263
0.04 -0.00 12.30 3.49 5.59 -1.04 0.45 -1.54 8269
0.04 -0.00 10.33 2.53 5.17 -1.03 0.72 -1.30 8276
0.05 -0.01 9.49 1.41 5.34 -0.93 0.90 -1.05 8283
0.04 -0.00 9.08 0.69 5.97 -0.75 1.05 -0.84 8289
0.04 -0.00 8.84 0.49 6.32 -0.56 1.27 -0.68 8295
0.05 -0.01 8.73 0.59 6.75 -0.44 1.54 -0.57 8301
0.06 -0.01 8.38 0.95 7.58 -0.36 1.88 -0.47 8307
0.05 -0.00 7.69 1.12 8.78 -0.31 2.16 -0.37 8313
0.04 -0.00 6.77 1.12 9.56 -0.30 2.48 -0.32 8320
0.05 -0.00 5.69 0.98 10.14 -0.33 2.71 -0.21 8326
0.05 -0.00 4.48 0.80 10.83 -0.38 2.83 -0.11 8333
0.04 -0.00 3.47 0.60 11.37 -0.45 2.84 -0.02 8339
0.04 -0.00 2.71 0.22 11.73 -0.53 2.78 0.06 8345
0.05 -0.00 2.25 -0.06 12.00 -0.62 2.70 0.12 8351
0.04 -0.00 2.09 -0.35 12.27 -0.70 2.60 0.14 8357
0.03 -0.00 2.16 -0.59 12.39 -0.74 2.55 0.12 8364
0.04 -0.00 2.11 -0.77 12.51 -0.74 2.60 0.09 8370
0.05 -0.00 1.62 -0.72 12.34 -0.72 2.78 0.07 8377
0.04 -0.00 0.53 -0.34 12.05 -0.68 3.06 0.11 8383
0.03 -0.00 -0.88 0.03 12.12 -0.62 3.33 0.20 8389
0.05 -0.00 -2.75 0.24 12.38 -0.56 3.49 0.34 8395
0.04 -0.00 -4.84 0.44 12.96 -0.48 3.53 0.54 8401
0.03 -0.00 -6.22 0.46 13.74 -0.41 3.45 0.78 8408
0.04 0.00 -7.24 0.00 14.16 -0.37 3.15 1.03 8414
0.04 -0.00 -7.48 -0.61 14.23 -0.38 2.61 1.25 8421
0.03 -0.00 -6.87 -1.38 13.97 -0.43 1.92 1.40 8427
0.04 0.00 -5.35 -1.97 13.43 -0.50 1.26 1.51 8433
0.04 -0.00 -3.42 -2.35 13.06 -0.57 0.79 1.56 8439
0.04 -0.00 -1.58 -2.89 12.78 -0.63 0.57 1.56 8445
0.03 0.00 -0.09 -3.44 12.60 -0.68 0.56 1.52 8453
0.04 -0.00 0.83 -4.00 12.50 -0.71 0.67 1.43 8459
0.04 -0.00 1.19 -4.41 12.21 -0.73 0.83 1.31 8465
0.03 -0.00 1.21 -4.55 11.69 -0.73 1.00 1.19 8471
0.04 -0.00 0.92 -4.49 11.12 -0.71 1.10 1.09 8477
0.03 -0.00 0.47 -4.48 10.79 -0.67 1.18 1.00 8483
0.03 -0.00 0.12 -4.60 10.67 -0.60 1.21 1.01 8489
0.05 -0.00 -0.18 -4.83 10.71 -0.52 1.21 1.00 8497
0.04 -0.00 -0.43 -4.98 10.78 -0.45 1.16 1.02 8503
0.03 -0.00 -0.60 -5.01 10.86 -0.37 1.10 1.05 8509
0.04 -0.00 -0.69 -5.05 10.89 -0.32 1.01 1.10 8515
0.04 -0.00 -0.68 -4.97 10.95 -0.26 0.91 1.16 8521
0.04 -0.00 -0.02 -4.97 10.95 -0.21 0.81 1.23 8527
0.03 -0.00 -0.46 -4.88 10.83 -0.16 0.74 1.31 8535
0.04 -0.00 -0.34 -4.90 10.64 -0.12 0.66 1.40 8541
0.04 -0.00 -0.29 -4.84 10.39 -0.08 0.57 1.45 8547
0.03 -0.00 -0.11 -4.82 10.09 -0.03 0.48 1.52 8553
0.05 -0.00 0.08 -4.80 9.80 0.03 0.39 1.61 8559
0.04 -0.00 0.34 -4.82 9.54 0.12 0.32 1.69 8565
0.04 -0.00 0.64 -4.96 9.41 0.17 0.27 1.76 8571
0.03 -0.00 1.00 -5.11 9.28 0.27 0.26 1.83 8578
0.04 0.00 1.44 -5.25 9.50 0.36 0.31 1.88 8584
0.04 -0.00 1.97 -5.17 9.71 0.44 0.43 1.93 8591
0.04 -0.00 2.12 -5.28 9.90 0.50 0.61 1.97 8597
0.03 -0.00 2.00 -5.23 9.91 0.54 0.81 2.00 8603
0.03 -0.00 1.46 -5.12 9.90 0.55 0.98 2.01 8609
0.04 -0.00 0.91 -5.16 9.90 0.55 1.08 2.03 8615
0.04 -0.00 0.01 -5.24 9.77 0.55 1.12 2.04 8622
0.03 -0.00 -0.76 -5.14 9.61 0.55 1.09 2.05 8628
0.04 0.00 -1.49 -4.88 9.52 0.54 0.99 2.05 8634
0.04 -0.00 -2.20 -4.52 9.32 0.52 0.88 2.05 8640
0.04 -0.00 -2.84 -4.34 9.21 0.51 0.79 2.06 8646
0.04 -0.00 -4.54 -4.73 9.47 0.49 0.66 2.05 8653
0.05 -0.00 -8.26 -5.99 11.72 0.57 0.06 2.07 8659
0.05 -0.00 -11.05 -5.79 10.60 0.61 -0.74 2.14 8666
0.04 -0.00 -7.92 -4.39 5.70 0.51 -1.21 2.07 8672
0.05 -0.00 -13.58 -8.02 10.04 0.56 -2.23 2.02 8678
0.05 -0.00 -11.33 -7.99 6.49 0.42 -2.55 1.95 8684
0.04 -0.00 -12.95 -6.94 9.39 0.40 -3.25 1.82 8691
0.04 0.00 -13.59 -7.63 7.76 0.22 -3.77 1.72 8697
0.04 0.01 -16.16 -8.92 8.74 0.05 -4.25 1.60 8704
0.03 0.04 -21.53 -12.06 8.87 0.04 -4.28 1.69 8710
0.03 0.15 -4.86 6.15 21.94 1.06 -3.41 1.91 8716
0.03 0.29 -9.55 -6.09 17.24 1.12 -1.85 2.20 8723
0.01 0.53 -14.49 -0.68 14.93 1.58 -1.08 2.06 8729
0.01 0.67 -19.11 -1.60 28.57 1.82 -1.39 1.05 8735
0.01 0.74 -4.21 -0.78 16.09 0.69 -1.00 0.02 8741
0.01 0.74 1.03 -1.10 13.03 0.20 -0.25 -0.09 8749
0.01 0.61 1.54 -0.39 9.66 0.01 -0.03 -0.02 8755
0.01 0.55 3.65 -0.93 8.93 0.12 -0.20 0.15 8761
0.02 0.49 4.65 -0.05 9.25 0.26 -0.43 0.44 8767
0.03 0.47 2.39 0.29 9.98 0.17 -0.34 0.65 8773
0.04 0.47 -1.58 -1.00 10.25 0.02 -0.16 0.63 8780
0.03 0.56 -3.03 -1.53 10.60 -0.01 -0.06 0.35 8786
0.05 0.56 -0.42 -1.23 9.79 -0.01 0.01 0.17 8793
0.04 0.59 0.61 -1.04 9.95 -0.02 0.03 0.18 8799
0.04 0.62 0.78 -1.35 10.10 -0.05 0.00 0.18 8805
0.05 0.65 0.87 -0.91 9.95 -0.06 -0.02 0.14 8811
0.04 0.73 0.82 -0.80 10.20 -0.07 -0.04 0.10 8818
0.04 0.76 0.66 -0.78 10.20 -0.06 -0.04 0.08 8824
0.05 0.88 0.64 -0.66 10.14 -0.04 -0.04 0.08 8830
0.05 0.84 0.65 -0.64 9.91 -0.03 -0.04 0.08 8837
0.05 0.89 0.76 -0.68 9.96 -0.04 -0.04 0.08 8843
0.07 0.93 0.77 -0.84 10.02 -0.05 -0.05 0.08 8849
0.06 0.95 0.77 -0.83 10.07 -0.05 -0.05 0.08 8856
0.06 0.91 0.74 -0.76 10.07 -0.05 -0.06 0.08 8862
0.08 0.91 0.75 -0.74 9.99 -0.04 -0.06 0.07 8868
0.08 0.94 0.78 -0.73 10.11 -0.04 -0.06 0.07 8875
0.06 0.94 0.74 -0.76 10.02 -0.04 -0.06 0.06 8881
0.09 0.95 0.71 -0.76 10.05 -0.04 -0.06 0.06 8888
0.08 0.97 0.70 -0.73 10.13 -0.03 -0.06 0.07 8894
0.10 0.97 0.72 -0.71 10.04 -0.03 -0.06 0.06 8900
0.11 0.95 0.71 -0.75 9.98 -0.03 -0.05 0.06 8906
0.10 0.94 0.71 -0.74 10.10 -0.02 -0.05 0.06 8912
0.10 0.96 0.72 -0.74 10.07 -0.02 -0.05 0.06 8919
0.11 0.98 0.72 -0.73 9.98 -0.02 -0.05 0.06 8926
0.11 1.00 0.76 -0.69 10.02 -0.02 -0.04 0.05 8932
0.09 1.00 0.75 -0.74 10.01 -0.02 -0.04 0.05 8938
0.11 1.01 0.74 -0.72 10.03 -0.02 -0.05 0.05 8944
0.10 0.97 0.70 -0.72 9.96 -0.01 -0.05 0.05 8950
0.09 0.95 0.71 -0.75 9.98 -0.01 -0.04 0.04 8957
0.09 0.98 0.73 -0.74 10.04 -0.01 -0.04 0.04 8964
0.10 0.96 0.74 -0.72 9.98 -0.01 -0.04 0.04 8970
0.08 0.95 0.72 -0.73 10.04 -0.01 -0.04 0.04 8976
0.09 0.95 0.70 -0.72 9.99 -0.01 -0.04 0.04 8982
0.10 0.93 0.69 -0.74 9.99 -0.00 -0.04 0.04 8988
0.10 0.93 0.70 -0.73 10.02 -0.00 -0.04 0.04 8995
0.09 0.91 0.72 -0.77 10.01 -0.00 -0.03 0.04 9001
0.10 0.90 0.71 -0.72 9.98 -0.00 -0.03 0.04 9008
0.09 0.89 0.72 -0.71 10.03 -0.00 -0.03 0.04 9014
0.08 0.90 0.69 -0.70 10.05 -0.03 -0.02 0.04 9020
0.08 0.89 0.69 -0.72 10.00 -0.00 -0.03 0.04 9026
0.07 0.87 0.70 -0.73 10.02 -0.00 -0.03 0.04 9033
0.07 0.87 0.69 -0.67 10.01 -0.00 -0.03 0.04 9039
0.08 0.85 0.78 -0.72 10.01 -0.00 -0.03 0.03 9046
0.07 0.83 0.72 -0.70 10.05 -0.00 -0.02 0.03 9052
0.07 0.83 0.74 -0.76 9.99 -0.00 -0.03 0.03 9058
0.09 0.82 0.70 -0.72 10.00 -0.00 -0.03 0.04 9064
0.08 0.81 0.71 -0.69 10.00 -0.00 -0.03 0.03 9071
0.07 0.80 0.68 -0.73 9.89 -0.00 -0.03 0.03 9077
0.09 0.78 0.69 -0.71 9.96 0.00 -0.02 0.03 9083
0.08 0.76 0.72 -0.75 10.03 -0.00 -0.02 0.03 9090
0.08 0.74 0.69 -0.71 9.96 0.00 -0.02 0.03 9096
0.09 0.75 0.72 -0.73 9.94 -0.00 -0.02 0.03 9102
0.11 0.73 0.74 -0.68 9.97 -0.00 -0.02 0.03 9108
0.10 0.73 0.71 -0.73 10.03 -0.00 -0.02 0.03 9115
0.08 0.70 0.75 -0.72 10.03 0.00 -0.02 0.03 9121
0.09 0.70 0.69 -0.77 9.95 -0.00 -0.02 0.03 9127
0.09 0.68 0.74 -0.71 9.99 -0.00 -0.03 0.03 9134
0.09 0.67 0.74 -0.72 10.01 -0.00 -0.03 0.02 9140
0.09 0.67 0.79 -0.71 10.02 -0.00 -0.03 0.02 9146
0.09 0.66 0.75 -0.72 10.03 -0.00 -0.03 0.03 9153
0.08 0.65 0.73 -0.73 9.98 -0.00 -0.04 0.02 9159
0.08 0.65 0.71 -0.74 10.00 -0.00 -0.03 0.02 9165
0.09 0.63 0.67 -0.76 9.99 -0.00 -0.04 0.02 9171
0.07 0.62 0.72 -0.74 9.95 -0.00 -0.04 0.02 9178
0.09 0.61 0.72 -0.74 9.97 -0.00 -0.05 0.01 9184
0.10 0.63 0.68 -0.72 9.97 -0.01 -0.05 0.02 9190
0.09 0.61 0.75 -0.72 9.97 -0.01 -0.05 0.01 9197
0.08 0.61 0.72 -0.72 9.99 -0.01 -0.05 0.02 9203
0.10 0.60 0.70 -0.73 10.00 -0.01 -0.05 0.02 9209
0.13 0.59 0.72 -0.72 9.98 -0.01 -0.05 0.02 9216
0.13 0.58 0.71 -0.71 10.02 -0.01 -0.05 0.02 9222
0.11 0.59 0.72 -0.70 10.01 -0.01 -0.05 0.01 9228
0.11 0.58 0.73 -0.73 9.97 -0.01 -0.05 0.02 9235
0.12 0.56 0.74 -0.75 10.01 -0.02 -0.06 0.01 9241
0.11 0.54 0.71 -0.69 9.99 -0.01 -0.06 0.01 9247
0.13 0.54 0.69 -0.72 9.99 -0.02 -0.07 0.01 9253
0.12 0.55 0.69 -0.74 10.09 -0.02 -0.06 0.02 9260
0.13 0.56 0.66 -0.79 9.97 -0.01 -0.06 0.02 9266
0.16 0.58 0.66 -0.71 9.99 -0.02 -0.06 0.02 9273
0.15 0.60 0.70 -0.73 10.02 -0.02 -0.05 0.02 9279
0.17 0.62 0.64 -0.74 9.97 -0.02 -0.06 0.02 9285
0.22 0.64 0.69 -0.73 10.01 -0.02 -0.06 0.03 9291
0.21 0.64 0.73 -0.74 10.05 -0.01 -0.05 0.03 9297
0.19 0.63 0.70 -0.69 10.02 -0.01 -0.05 0.03 9304
0.22 0.64 0.74 -0.71 10.03 -0.00 -0.05 0.03 9311
0.21 0.62 0.71 -0.75 10.01 -0.00 -0.06 0.03 9317
0.23 0.62 0.69 -0.75 10.02 -0.00 -0.05 0.03 9323
0.23 0.62 0.68 -0.76 10.01 0.00 -0.05 0.03 9329
0.20 0.60 0.70 -0.77 10.00 0.00 -0.05 0.03 9335
0.21 0.55 0.69 -0.78 9.99 0.01 -0.05 0.03 9342
0.21 0.53 0.71 -0.76 10.04 -0.00 -0.05 0.02 9349
0.20 0.52 0.71 -0.76 10.06 0.00 -0.05 0.02 9355
0.21 0.47 0.70 -0.77 10.00 0.01 -0.05 0.02 9361
0.23 0.47 0.71 -0.74 9.99 0.01 -0.05 0.01 9367
0.25 0.44 0.64 -0.73 9.96 0.01 -0.05 0.01 9373
0.26 0.31 0.67 -0.71 9.97 0.02 -0.05 0.01 9380
0.27 0.36 0.64 -0.72 10.01 0.02 -0.05 0.00 9387
0.29 0.32 0.72 -0.77 10.00 0.02 -0.05 -0.00 9393
0.30 0.22 0.74 -0.77 10.05 0.04 -0.05 -0.01 9399
0.32 0.21 0.72 -0.80 10.05 0.04 -0.04 -0.02 9405
0.35 0.14 0.74 -0.73 10.13 0.06 -0.03 -0.02 9412
0.37 0.10 0.76 -0.78 10.15 0.09 -0.03 -0.02 9418
0.44 0.04 0.81 -0.79 10.19 0.12 -0.03 -0.03 9424
0.47 -0.00 0.91 -0.83 10.32 0.17 -0.03 -0.05 9431
0.53 -0.01 1.08 -1.07 10.39 0.25 -0.04 -0.08 9437
0.57 -0.02 1.44 -1.82 10.70 0.35 -0.06 -0.19 9444
0.64 -0.04 1.11 -2.74 11.13 0.50 -0.12 -0.33 9450
0.72 -0.04 4.65 -2.32 12.01 0.74 -0.24 -0.59 9456
0.78 -0.05 7.31 -2.62 12.33 1.11 -0.45 -1.11 9462
0.78 -0.06 5.48 -2.48 14.88 1.55 -0.63 -1.52 9468
0.82 -0.04 5.93 -2.77 16.18 2.11 -1.03 -1.84 9476
0.82 -0.04 6.56 -3.94 14.87 2.34 -1.15 -2.08 9482
0.79 -0.04 6.65 -3.32 13.36 2.45 -1.08 -2.35 9488
0.77 -0.04 6.02 -3.17 14.01 2.62 -1.05 -2.62 9494
0.73 -0.05 6.56 -4.28 13.66 2.75 -1.25 -2.85 9501
0.69 -0.03 7.75 -5.01 12.44 2.78 -1.33 -3.11 9507
0.61 -0.04 7.53 -3.55 9.26 2.82 -1.00 -3.45 9513
0.46 -0.02 5.56 -2.89 10.80 2.67 -0.37 -3.75 9520
0.43 -0.02 5.36 -2.45 12.64 2.50 -0.27 -3.92 9527
0.27 -0.02 3.29 -3.11 15.87 2.40 -0.58 -4.04 9533
0.20 -0.02 6.59 -3.16 16.43 2.35 -0.92 -4.07 9539
0.15 -0.01 9.01 -2.39 15.43 2.27 -0.95 -4.15 9545
0.12 -0.01 9.62 -4.14 14.05 2.23 -0.93 -4.27 9551
0.11 -0.01 9.47 -3.59 13.95 2.12 -0.91 -4.28 9559
0.10 -0.01 10.86 -2.06 12.39 1.97 -0.80 -4.28 9565
0.09 -0.01 9.70 -1.63 11.72 1.74 -0.71 -4.28 9571
0.07 -0.01 9.90 -0.40 12.41 1.41 -0.75 -4.28 9577
0.10 -0.01 7.79 -0.77 11.86 1.03 -0.93 -4.28 9583
0.07 -0.01 7.23 -1.15 11.77 0.67 -1.41 -4.28 9590
0.05 -0.01 7.34 1.36 10.23 0.25 -2.10 -4.28 9596
0.06 -0.01 7.34 4.94 8.45 -0.14 -2.62 -4.28 9603
0.05 -0.00 6.90 7.85 6.98 -0.47 -2.48 -4.28 9609
0.04 -0.00 15.13 4.17 5.50 -0.57 -1.81 -4.27 9615
0.04 -0.00 14.18 0.58 9.79 -0.64 -0.88 -3.19 9621
0.04 -0.00 17.10 1.13 13.40 -0.90 -0.31 -2.47 9627
0.03 -0.00 15.55 2.22 9.39 -1.26 -0.17 -1.85 9634
0.04 0.00 12.31 2.33 6.53 -1.35 0.13 -1.15 9640
0.04 -0.00 10.74 1.36 4.87 -1.28 0.59 -0.49 9647
0.04 -0.00 10.00 1.08 4.13 -1.09 0.98 0.01 9653
0.05 -0.00 9.01 0.18 3.90 -0.82 1.29 0.49 9659
0.05 -0.00 8.05 -0.45 4.17 -0.50 1.64 0.87 9665
0.04 -0.00 7.17 -0.81 5.07 -0.22 2.04 1.13 9671
0.03 -0.00 6.32 -0.72 6.27 -0.00 2.44 1.30 9678
0.05 0.00 5.02 -0.31 8.11 0.17 2.84 1.42 9684
0.05 -0.00 4.49 0.07 9.94 0.26 3.17 1.54 9691
0.05 -0.00 2.83 0.42 11.29 0.25 3.53 1.59 9697
0.04 -0.00 0.79 0.67 12.77 0.16 3.73 1.67 9703
0.05 -0.00 -1.43 0.80 13.73 -0.01 3.72 1.75 9709
0.05 -0.01 -3.58 0.74 14.37 -0.22 3.50 1.82 9715
0.04 -0.00 -5.36 0.55 14.50 -0.45 3.10 1.86 9722
0.05 -0.00 -6.62 0.36 14.06 -0.66 2.57 1.89 9729
0.05 -0.00 -7.13 0.07 13.60 -0.86 2.01 1.92 9735
0.05 -0.00 -7.19 -0.13 12.87 -1.02 1.61 1.92 9741
0.04 0.00 -6.56 -0.49 12.35 -1.13 1.22 1.90 9747
0.05 -0.01 -5.55 -0.95 11.94 -1.20 1.02 1.83 9753
0.05 -0.00 -4.41 -1.44 11.05 -1.24 0.95 1.73 9760
0.04 -0.00 -3.52 -1.99 11.49 -1.26 0.98 1.60 9766
0.05 -0.00 -2.75 -2.40 11.30 -1.27 1.05 1.46 9773
0.05 -0.00 -2.22 -2.67 11.24 -1.25 1.11 1.34 9779
0.05 -0.01 -1.79 -2.87 11.05 -1.23 1.14 1.25 9785
0.06 -0.01 -1.43 -2.89 11.05 -1.21 1.12 1.17 9791
0.05 -0.00 -1.19 -3.10 11.24 -1.19 1.09 1.09 9798
0.04 -0.00 -0.85 -3.36 11.48 -1.17 1.07 1.04 9804
0.05 -0.01 -0.44 -4.23 11.64 -1.15 1.06 0.97 9810
0.04 -0.00 -0.25 -3.97 11.68 -1.14 1.08 0.92 9817
0.04 -0.00 -0.27 -4.25 11.75 -1.12 1.13 0.87 9823
0.05 -0.01 -0.31 -4.51 11.68 -1.11 1.17 0.82 9829
0.05 -0.01 -0.46 -4.68 11.42 -1.09 1.16 0.80 9836
0.04 -0.00 -0.57 -4.72 11.09 -1.07 1.09 0.79 9842
0.05 0.00 -0.32 -4.68 10.74 -1.03 0.99 0.81 9848
0.04 -0.00 0.06 -4.55 10.47 -0.98 0.87 0.84 9854
0.04 -0.00 0.50 -4.58 10.16 -0.91 0.80 0.87 9861
0.05 0.00 0.71 -4.84 9.95 -0.81 0.78 0.90 9867
0.05 -0.01 1.03 -5.06 9.71 -0.68 0.84 0.92 9873
0.04 -0.00 1.03 -5.34 10.37 -0.53 0.93 0.92 9880
0.04 -0.00 0.88 -5.46 9.83 -0.37 1.04 0.91 9886
0.05 0.00 0.54 -5.35 10.07 -0.20 1.13 0.92 9892
0.04 -0.00 0.31 -5.06 10.44 -0.08 1.20 0.96 9899
0.04 -0.00 0.04 -4.65 10.81 -0.02 1.21 1.03 9905
0.04 -0.00 -0.15 -4.23 11.24 0.01 1.15 1.13 9911
0.05 -0.00 -0.19 -3.88 11.37 0.01 1.08 1.25 9918
0.04 -0.00 -0.29 -3.67 11.38 -0.02 0.98 1.39 9924
0.04 -0.00 -0.37 -3.67 10.46 -0.06 0.89 1.47 9930
0.05 -0.01 -0.61 -3.94 10.62 -0.08 0.83 1.54 9936
0.04 -0.00 -0.91 -4.27 10.12 -0.07 0.82 1.57 9943
0.03 -0.00 -1.25 -4.57 9.78 -0.03 0.85 1.55 9949
0.04 0.00 -1.74 -4.62 9.48 0.02 0.92 1.51 9955
0.04 -0.00 -4.25 -5.06 9.99 0.09 0.93 1.47 9961
0.04 -0.00 -7.96 -5.63 13.08 0.22 0.54 1.51 9968
0.03 -0.00 -11.94 -4.70 10.39 0.33 -0.33 1.65 9974
0.06 -0.01 -8.64 -2.76 8.99 0.26 -0.85 1.76 9980
0.04 -0.00 -9.61 -3.82 8.73 0.18 -1.45 1.84 9987
0.04 -0.00 -7.31 -3.99 7.56 0.07 -1.70 1.87 9993
0.04 -0.00 -13.00 -6.65 11.15 0.20 -2.36 1.90 9999
0.04 -0.00 -7.46 -5.73 8.10 0.14 -2.42 1.92 10005
0.04 -0.00 -10.83 -6.11 6.25 0.17 -2.59 1.85 10012
0.04 0.01 -14.17 -10.63 8.20 0.37 -3.18 1.98 10018
0.04 0.04 -16.48 -9.22 17.06 1.27 -2.67 2.75 10024
0.03 0.14 -13.76 -7.27 10.50 1.40 -2.27 3.71 10032
0.03 0.37 -21.56 -7.82 15.52 1.96 -1.72 3.86 10038
0.01 0.49 -34.71 -7.96 32.34 1.33 -1.88 2.91 10044
0.00 0.59 -19.61 -2.85 16.48 0.19 -0.77 1.06 10051
0.01 0.64 -4.13 0.20 11.68 -0.09 -0.08 0.18 10057
0.02 0.59 -1.83 0.98 9.24 -0.09 0.07 -0.21 10063
0.01 0.57 5.22 -0.57 9.90 0.07 -0.09 -0.16 10070
0.02 0.49 3.84 -0.15 9.28 0.06 -0.09 0.34 10076
0.03 0.51 1.95 -0.04 10.18 0.00 -0.06 0.59 10083
0.03 0.52 -0.34 -0.81 10.74 -0.05 -0.12 0.47 10089
0.02 0.61 -0.49 -0.55 9.81 -0.05 -0.11 0.23 10095
0.04 0.60 0.56 -0.58 9.70 -0.04 -0.06 0.20 10101
0.04 0.61 0.44 -0.81 9.56 -0.08 -0.06 0.21 10108
0.06 0.68 1.22 -1.29 10.13 -0.10 -0.06 0.18 10115
0.07 0.68 0.78 -0.84 10.32 -0.12 -0.08 0.14 10121
0.08 0.71 0.79 -0.78 10.36 -0.11 -0.10 0.10 10127
0.09 0.74 0.84 -0.63 10.22 -0.09 -0.09 0.08 10134
0.08 0.78 0.77 -0.67 10.50 -0.08 -0.09 0.07 10140
0.08 0.80 0.76 -0.68 10.05 -0.07 -0.08 0.07 10146
0.10 0.75 0.70 -0.76 9.95 -0.07 -0.07 0.07 10152
0.09 0.78 0.74 -0.70 10.11 -0.06 -0.07 0.07 10159
0.12 0.76 0.75 -0.69 10.09 -0.06 -0.07 0.07 10166
0.11 0.75 0.80 -0.65 10.08 -0.05 -0.07 0.06 10172
0.13 0.80 0.64 -0.67 10.15 -0.04 -0.06 0.06 10178
0.15 0.79 0.62 -0.67 10.11 -0.03 -0.06 0.06 10184
0.13 0.79 0.62 -0.48 10.13 -0.03 -0.05 0.07 10191
0.16 0.74 0.73 -0.70 10.06 -0.03 -0.05 0.07 10198
0.15 0.78 0.79 -0.69 10.11 -0.02 -0.04 0.07 10204
0.16 0.72 0.80 -0.66 10.09 -0.02 -0.04 0.06 10210
0.15 0.75 0.80 -0.65 10.05 -0.01 -0.04 0.05 10217
0.14 0.72 0.78 -0.63 10.06 -0.01 -0.03 0.05 10223
0.16 0.70 0.75 -0.69 10.01 -0.00 -0.03 0.04 10229
0.15 0.68 0.76 -0.64 10.09 -0.00 -0.03 0.04 10235
0.15 0.68 0.75 -0.61 10.01 -0.00 -0.02 0.04 10243
0.16 0.70 0.74 -0.76 10.03 0.00 -0.03 0.04 10249
0.15 0.64 0.71 -0.63 10.00 0.01 -0.02 0.03 10255
0.16 0.62 0.76 -0.64 10.04 0.01 -0.02 0.03 10261
0.15 0.62 0.74 -0.65 10.06 0.01 -0.03 0.03 10268
0.13 0.62 0.76 -0.66 10.02 0.01 -0.03 0.03 10274
0.14 0.61 0.79 -0.65 10.01 0.01 -0.03 0.03 10280
0.12 0.56 0.78 -0.64 10.06 0.01 -0.03 0.04 10287
0.13 0.58 0.78 -0.62 10.00 0.00 -0.03 0.03 10294
0.11 0.54 0.79 -0.64 9.98 0.01 -0.03 0.03 10300
0.10 0.56 0.79 -0.66 10.03 0.00 -0.03 0.03 10306
0.11 0.55 0.75 -0.66 9.96 0.01 -0.03 0.03 10312
0.13 0.54 0.79 -0.68 9.98 0.01 -0.03 0.03 10318
0.11 0.55 0.74 -0.66 9.94 0.00 -0.04 0.03 10326
0.12 0.55 0.75 -0.66 10.02 0.00 -0.03 0.03 10332
0.12 0.54 0.75 -0.62 10.00 -0.00 -0.03 0.03 10338
0.11 0.54 0.74 -0.66 9.97 -0.00 -0.04 0.02 10344
0.11 0.55 0.76 -0.68 10.02 -0.01 -0.04 0.02 10350
0.10 0.56 0.74 -0.63 9.96 -0.01 -0.04 0.02 10357
0.10 0.58 0.79 -0.64 10.01 -0.01 -0.05 0.02 10363
0.10 0.58 0.74 -0.62 9.97 -0.01 -0.05 0.02 10370
0.11 0.57 0.77 -0.66 10.01 -0.01 -0.05 0.03 10376
0.10 0.60 0.79 -0.64 10.02 -0.02 -0.05 0.02 10382
0.10 0.59 0.79 -0.67 10.00 -0.02 -0.06 0.03 10389
0.10 0.59 0.75 -0.69 10.01 -0.02 -0.06 0.03 10395
0.12 0.60 0.73 -0.69 9.98 -0.02 -0.06 0.02 10401
0.11 0.59 0.82 -0.75 10.04 -0.03 -0.07 0.02 10407
0.10 0.63 0.75 -0.64 9.95 -0.03 -0.07 0.02 10415
0.11 0.66 0.71 -0.67 9.98 -0.03 -0.08 0.02 10421
0.11 0.69 0.70 -0.63 9.95 -0.04 -0.07 0.02 10427
0.10 0.71 0.68 -0.64 10.03 -0.03 -0.07 0.02 10433
0.09 0.74 0.96 -0.68 10.03 -0.02 -0.03 0.02 10439
0.08 0.71 0.64 -0.67 10.00 -0.03 -0.06 0.01 10446
0.08 0.78 0.70 -0.63 10.01 -0.03 -0.07 0.02 10452
0.08 0.80 0.74 -0.63 9.94 -0.02 -0.07 0.01 10459
0.06 0.86 0.62 -0.59 10.02 -0.03 -0.07 0.01 10465
0.08 0.86 0.65 -0.02 9.99 -0.03 -0.07 0.01 10471
0.08 0.93 0.67 -0.60 10.00 -0.03 -0.07 0.01 10478
0.06 0.94 0.66 -0.58 10.02 -0.02 -0.07 0.01 10484
0.09 0.96 0.65 -0.61 9.99 -0.02 -0.07 0.01 10490
0.08 0.98 0.68 -0.63 10.02 -0.02 -0.07 0.02 10497
0.06 1.01 0.63 -0.61 9.94 -0.02 -0.07 0.01 10504
0.09 1.01 0.69 -0.58 10.15 -0.02 -0.07 0.01 10510
0.06 1.03 0.65 -0.62 10.00 -0.01 -0.07 0.02 10516
0.06 1.03 0.70 -0.60 10.01 -0.01 -0.06 0.02 10522
0.07 1.03 0.67 -0.61 10.00 -0.01 -0.06 0.02 10528
0.06 1.03 0.68 -0.60 9.98 -0.01 -0.05 0.02 10535
0.10 1.06 0.77 -0.75 10.02 0.03 -0.05 0.01 10542
0.09 1.01 0.74 -0.62 10.03 -0.00 -0.05 0.02 10548
0.07 1.03 0.67 -0.67 10.03 -0.00 -0.06 0.02 10554
0.10 0.97 0.67 -0.62 10.01 0.00 -0.05 0.02 10561
0.11 0.90 0.63 -0.61 9.95 0.00 -0.05 0.02 10567
0.10 0.91 0.65 -0.64 9.93 0.00 -0.05 0.01 10573
0.11 0.85 0.63 -0.58 9.98 0.01 -0.04 0.01 10579
0.15 0.79 0.67 -0.59 10.02 0.01 -0.04 0.01 10586
0.15 0.73 0.63 -0.65 10.02 0.02 -0.03 0.01 10593
0.14 0.64 0.65 -0.64 10.01 0.03 -0.03 0.01 10599
0.19 0.56 0.60 -0.62 10.00 0.03 -0.03 0.01 10605
0.19 0.48 0.67 -0.60 10.05 0.04 -0.03 0.00 10611
0.18 0.46 0.70 -0.65 10.07 0.05 -0.03 0.00 10617
0.24 0.37 0.70 -0.60 10.11 0.06 -0.02 0.00 10625
0.23 0.31 0.80 -0.67 10.12 0.09 -0.03 -0.01 10631
0.26 0.25 0.82 -0.70 10.16 0.11 -0.03 -0.01 10637
0.30 0.22 0.81 -0.74 10.27 0.14 -0.04 -0.02 10643
0.34 0.12 0.87 -0.67 10.32 0.19 -0.05 -0.03 10650
0.35 0.06 0.96 -0.78 10.49 0.27 -0.07 -0.06 10656
0.37 0.03 1.28 -1.09 10.95 0.39 -0.12 -0.10 10662
0.42 -0.01 1.23 0.52 10.68 0.55 -0.22 -0.21 10669
0.44 -0.01 3.29 -2.05 12.73 0.86 -0.50 -0.41 10676
0.49 -0.04 7.20 -3.69 13.47 1.15 -1.01 -0.77 10682
0.50 -0.04 9.13 -4.75 13.77 1.26 -1.30 -1.39 10688
0.55 -0.04 5.36 -1.91 14.43 1.58 -1.33 -1.91 10695
0.51 -0.03 6.29 -3.64 15.01 1.91 -1.69 -2.22 10701
0.50 -0.03 6.71 -4.04 12.30 2.03 -1.82 -2.47 10707
0.47 -0.03 8.32 -4.72 12.74 2.04 -1.64 -2.79 10714
0.38 -0.01 6.01 -4.39 12.13 2.02 -1.46 -3.16 10721
0.30 -0.02 7.04 -3.58 11.72 2.00 -1.35 -3.43 10727
0.20 -0.02 7.73 -3.07 13.55 1.91 -1.18 -3.61 10733
0.16 -0.02 6.26 -2.30 12.36 1.79 -1.09 -3.74 10739
0.07 -0.01 5.77 -2.73 13.67 1.64 -1.03 -3.82 10746
0.10 -0.01 7.59 -1.83 14.78 1.46 -1.09 -3.87 10753
0.06 -0.01 7.33 -1.14 14.31 1.31 -1.19 -3.92 10759
0.07 -0.01 5.93 -1.58 15.03 1.10 -1.39 -3.99 10765
0.06 -0.01 5.71 -0.27 15.11 0.76 -1.76 -4.07 10772
0.06 -0.01 5.90 0.76 13.25 0.39 -2.35 -4.11 10778
0.05 -0.00 6.14 1.97 11.76 0.07 -3.05 -4.15 10784
0.04 -0.00 8.04 3.65 10.11 -0.12 -3.66 -4.14 10790
0.05 -0.00 12.21 4.60 8.59 -0.31 -3.99 -3.85 10797
0.07 -0.01 12.20 2.24 8.75 -0.44 -3.49 -3.10 10804
0.05 -0.00 14.60 1.37 10.98 -0.52 -1.94 -2.21 10810
0.05 -0.00 17.62 1.99 10.73 -0.64 -0.96 -1.58 10816
0.05 -0.01 15.92 1.24 8.13 -0.72 -0.31 -1.19 10822
0.04 -0.00 13.33 0.98 6.37 -0.70 0.16 -0.83 10829
0.06 -0.00 11.24 0.75 5.90 -0.57 0.64 -0.43 10835
0.06 -0.01 9.85 0.46 6.18 -0.37 1.03 -0.02 10842
0.05 -0.00 9.04 0.23 6.44 -0.16 1.33 0.26 10848
0.05 -0.00 8.43 0.18 7.00 0.01 1.59 0.52 10854
0.06 -0.01 7.47 0.26 7.73 0.11 1.85 0.72 10860
0.05 -0.01 6.21 0.28 8.50 0.16 2.11 0.87 10867
0.05 -0.00 4.88 0.25 9.07 0.18 2.32 0.98 10873
0.06 -0.01 3.51 0.18 9.51 0.19 2.42 1.05 10880
0.05 -0.00 2.42 0.11 9.99 0.16 2.40 1.10 10886
0.04 -0.00 1.23 0.11 10.46 0.13 2.30 1.12 10892
0.05 -0.00 0.34 0.11 11.13 0.07 2.13 1.13 10898
0.05 -0.01 0.03 0.22 11.72 -0.02 1.96 1.11 10905
0.04 -0.00 0.09 0.30 12.21 -0.15 1.83 1.08 10911
0.05 0.00 0.10 0.41 12.23 -0.30 1.74 1.04 10917
0.04 -0.00 -0.12 0.48 11.97 -0.45 1.72 1.01 10924
0.04 -0.00 -0.40 0.34 11.37 -0.57 1.73 0.97 10930
0.05 -0.00 -0.59 0.11 10.87 -0.65 1.76 0.94 10937
0.05 -0.00 -0.82 -0.28 10.52 -0.69 1.76 0.90 10943
0.04 -0.00 -1.03 -0.61 10.33 -0.70 1.76 0.85 10949
0.05 -0.00 -1.12 -0.79 10.45 -0.69 1.76 0.79 10955
0.04 -0.00 -1.13 -0.80 10.65 -0.66 1.76 0.75 10961
0.04 -0.00 -1.16 -0.71 10.95 -0.62 1.76 0.71 10969
0.05 -0.00 -1.22 -0.52 11.11 -0.59 1.76 0.70 10975
0.04 -0.00 -1.34 -0.45 11.28 -0.58 1.74 0.70 10981
0.04 -0.00 -1.48 -0.42 11.34 -0.58 1.67 0.72 10987
0.04 -0.00 -1.54 -0.50 11.53 -0.58 1.55 0.73 10993
0.04 -0.00 -1.40 -0.61 11.86 -0.60 1.40 0.75 11000
0.04 -0.00 -1.04 -0.62 12.17 -0.61 1.28 0.78 11006
0.04 -0.00 -0.67 -0.79 12.23 -0.63 1.22 0.83 11013
0.04 -0.00 -0.45 -0.97 12.20 -0.67 1.18 0.88 11019
0.04 -0.00 -0.28 -1.17 12.20 -0.72 1.16 0.93 11025
0.05 -0.00 -0.19 -1.41 12.09 -0.76 1.13 0.98 11032
0.04 -0.00 -0.19 -1.60 11.81 -0.77 1.11 1.04 11038
0.05 -0.00 -0.15 -1.76 11.47 -0.75 1.10 1.12 11044
0.04 -0.00 -0.11 -1.91 11.10 -0.73 1.08 1.20 11051
0.03 -0.00 -0.10 -2.11 10.80 -0.68 1.06 1.28 11057
0.04 -0.00 -0.10 -2.42 10.54 -0.61 1.03 1.34 11064
0.04 -0.00 -0.06 -2.55 10.59 -0.53 1.00 1.39 11070
0.04 -0.00 -0.10 -2.72 10.77 -0.45 0.99 1.42 11076
0.05 -0.00 -0.10 -2.78 10.76 -0.38 0.97 1.42 11082
0.05 -0.01 -0.12 -2.82 10.77 -0.34 0.96 1.42 11088
0.04 -0.00 -0.25 -2.83 10.88 -0.31 0.94 1.42 11096
0.06 -0.01 -0.43 -2.93 10.95 -0.28 0.93 1.42 11102
0.05 -0.00 -0.66 -3.03 10.80 -0.26 0.90 1.41 11108
0.04 -0.00 -0.79 -3.25 10.50 -0.22 0.88 1.40 11114
0.05 -0.01 -0.89 -3.52 10.29 -0.19 0.88 1.38 11120
0.04 -0.00 -1.01 -3.72 9.99 -0.15 0.89 1.34 11127
0.03 -0.00 -1.17 -4.00 9.50 -0.12 0.93 1.29 11133
0.05 -0.01 -1.53 -4.22 9.04 -0.07 0.96 1.23 11140
0.04 -0.00 -1.85 -4.32 8.96 0.01 0.94 1.17 11146
0.02 -0.00 -2.25 -4.24 9.21 0.09 0.94 1.12 11152
0.04 -0.00 -2.52 -4.15 9.54 0.13 0.88 1.09 11158
0.04 -0.00 -2.74 -3.94 9.75 0.12 0.79 1.07 11164
0.04 -0.00 -3.04 -3.91 9.78 0.08 0.68 1.06 11171
0.04 -0.00 -3.19 -3.93 9.41 0.03 0.56 1.08 11177
0.05 -0.01 -3.15 -4.26 9.23 0.01 0.47 1.10 11184
0.04 -0.00 -2.89 -4.64 9.01 -0.00 0.42 1.12 11190
0.04 -0.00 -2.76 -5.25 8.33 0.02 0.43 1.13 11196
0.05 -0.00 -2.73 -5.83 7.73 0.08 0.49 1.10 11202
0.04 -0.00 -2.49 -6.23 7.62 0.15 0.61 1.07 11208
0.04 -0.00 -2.38 -6.39 7.74 0.22 0.76 1.04 11215
0.04 -0.00 -2.65 -6.19 8.03 0.28 0.91 1.02 11222
0.05 -0.00 -3.11 -5.76 8.24 0.30 1.03 1.01 11228
0.04 -0.00 -3.39 -5.41 8.18 0.29 1.07 1.03 11234
0.04 -0.00 -22.10 -17.23 17.37 0.67 -0.41 1.23 11240
0.05 -0.00 -18.64 -10.14 10.73 1.34 -2.89 1.81 11247
0.04 -0.00 -10.98 -5.49 1.44 1.02 -4.06 2.14 11253
0.06 0.00 -7.23 -11.14 3.99 0.90 -4.28 2.28 11259
0.04 0.01 -12.76 -17.79 11.52 0.82 -4.28 2.37 11266
0.04 0.09 -11.59 -12.31 14.39 0.86 -4.28 2.57 11273
0.04 0.25 -9.32 1.58 24.21 1.90 -2.67 2.58 11279
0.02 0.57 -21.15 -1.13 36.87 1.81 -2.24 2.01 11285
0.00 0.81 -12.82 0.88 19.51 0.86 -2.73 0.84 11292
0.00 0.92 -5.59 0.35 16.06 0.36 -1.37 0.15 11298
0.00 0.91 -1.38 0.45 10.41 0.11 -0.34 -0.05 11304
0.01 0.82 2.27 -0.62 9.75 0.21 -0.23 0.01 11312
0.02 0.70 3.64 -0.48 9.94 0.24 -0.33 0.28 11318
0.02 0.61 2.85 -0.05 10.20 0.18 -0.29 0.54 11324
0.02 0.61 -0.09 -1.02 9.83 0.07 -0.23 0.57 11330
0.04 0.50 -1.55 -1.59 9.62 0.02 -0.15 0.38 11336
0.04 0.55 -0.44 -1.37 9.78 -0.02 -0.07 0.19 11343
0.05 0.64 -0.02 -1.48 9.73 -0.06 -0.04 0.11 11350
0.05 0.68 0.66 -1.33 9.88 -0.13 -0.03 0.08 11356
0.06 0.75 0.81 -0.98 9.99 -0.13 -0.03 0.06 11362
0.05 0.87 0.62 -0.65 10.29 -0.12 -0.03 0.05 11368
0.06 0.86 0.40 -0.56 10.19 -0.09 -0.02 0.04 11375
0.05 0.92 0.55 -0.53 10.05 -0.08 -0.02 0.05 11381
0.07 0.92 0.74 -0.73 9.97 -0.06 -0.01 0.06 11387
0.08 0.95 0.89 -0.77 9.88 -0.06 -0.03 0.06 11394
0.04 0.97 0.82 -0.85 10.05 -0.06 -0.04 0.06 11400
0.06 0.98 0.78 -0.82 10.13 -0.07 -0.04 0.06 11407
0.06 1.02 0.78 -0.81 10.15 -0.07 -0.05 0.05 11413
0.05 1.05 0.78 -0.70 10.11 -0.06 -0.06 0.05 11419
0.07 1.07 0.79 -0.68 10.04 -0.04 -0.06 0.05 11425
0.06 1.08 0.84 -0.73 10.15 -0.04 -0.06 0.05 11432
0.07 1.10 0.75 -0.70 10.12 -0.03 -0.06 0.05 11439
0.08 1.08 0.76 -0.69 10.07 -0.02 -0.06 0.05 11445
0.08 1.08 0.73 -0.72 10.03 -0.02 -0.06 0.05 11451
0.08 1.05 0.73 -0.68 10.00 -0.02 -0.05 0.04 11458
0.06 1.07 0.71 -0.68 10.06 -0.01 -0.05 0.05 11464
0.08 1.08 0.68 -0.71 10.04 -0.01 -0.04 0.04 11470
0.07 1.05 0.69 -0.67 10.00 -0.01 -0.04 0.04 11476
0.05 1.07 0.72 -0.68 10.02 -0.01 -0.04 0.04 11484
0.07 1.04 0.72 -0.69 10.01 -0.01 -0.04 0.04 11490
0.05 1.07 0.74 -0.73 10.03 -0.01 -0.04 0.04 11496
0.05 1.08 0.71 -0.69 9.98 -0.00 -0.03 0.04 11502
0.05 1.09 0.70 -0.69 10.04 -0.00 -0.04 0.04 11508
0.04 1.04 0.70 -0.72 10.00 -0.01 -0.04 0.04 11515
0.05 1.05 0.75 -0.68 9.99 -0.00 -0.04 0.04 11522
0.03 1.05 0.75 -0.70 9.98 -0.01 -0.04 0.04 11528
0.03 1.01 0.70 -0.69 9.96 -0.01 -0.04 0.04 11534
0.05 1.03 0.70 -0.68 9.95 -0.01 -0.04 0.04 11540
0.04 0.99 0.73 -0.69 9.93 -0.01 -0.04 0.04 11547
0.03 0.98 0.68 -0.70 9.98 -0.00 -0.05 0.04 11553
0.05 0.97 0.72 -0.65 10.01 -0.01 -0.05 0.04 11559
0.03 0.95 0.72 -0.65 9.96 -0.00 -0.05 0.04 11566
0.04 0.95 0.67 -0.66 9.97 -0.01 -0.05 0.03 11572
0.05 0.91 0.66 -0.37 9.68 -0.01 -0.04 0.04 11579
0.05 0.89 0.68 -0.68 9.98 -0.00 -0.05 0.03 11585
0.04 0.89 0.69 -0.69 10.01 -0.01 -0.05 0.03 11591
0.04 0.88 0.69 -0.71 10.01 -0.00 -0.05 0.03 11597
0.04 0.86 0.68 -0.70 10.02 -0.01 -0.05 0.03 11604
0.04 0.88 0.75 -0.69 10.03 -0.00 -0.05 0.03 11611
0.04 0.86 0.69 -0.67 9.99 -0.01 -0.05 0.03 11617
0.04 0.83 0.67 -0.69 10.02 -0.01 -0.05 0.03 11623
0.05 0.83 0.69 -0.67 9.98 -0.01 -0.05 0.03 11629
0.06 0.83 0.69 -0.68 9.92 -0.01 -0.05 0.03 11636
0.06 0.78 0.66 -0.73 9.95 -0.01 -0.05 0.02 11642
0.06 0.75 0.69 -0.67 10.02 -0.01 -0.05 0.02 11649
0.08 0.71 0.71 -0.65 10.00 -0.01 -0.05 0.02 11655
0.07 0.71 0.69 -0.65 10.03 -0.01 -0.05 0.03 11661
0.09 0.68 0.68 -0.04 9.97 -0.01 -0.05 0.02 11668
0.08 0.65 0.76 -0.69 10.04 -0.01 -0.05 0.02 11674
0.08 0.67 0.69 -0.68 10.02 -0.01 -0.05 0.02 11680
0.09 0.62 0.71 -0.67 10.00 -0.02 -0.05 0.02 11686
0.07 0.62 0.65 -0.77 9.99 -0.01 -0.06 0.02 11693
0.10 0.63 0.67 -0.71 9.96 -0.02 -0.05 0.02 11700
0.10 0.61 0.62 -0.70 9.90 -0.02 -0.06 0.02 11706
0.10 0.60 0.67 -0.69 9.95 -0.02 -0.05 0.02 11712
0.10 0.62 0.68 -0.64 10.01 -0.02 -0.05 0.02 11718
0.11 0.62 0.74 -0.68 9.95 -0.02 -0.05 0.02 11724
0.09 0.60 0.68 -0.67 10.02 -0.02 -0.05 0.02 11731
0.09 0.57 0.73 -0.67 10.04 -0.02 -0.04 0.01 11738
0.09 0.54 0.63 -0.60 10.01 -0.01 -0.04 0.01 11744
0.11 0.54 0.68 -0.65 9.98 -0.00 -0.04 0.01 11750
0.10 0.56 0.64 -0.70 9.98 -0.01 -0.05 0.01 11757
0.12 0.53 0.68 -0.67 9.99 -0.01 -0.05 0.01 11763
0.12 0.51 0.62 -0.68 10.00 -0.01 -0.05 0.01 11769
0.15 0.50 0.57 -0.64 10.06 -0.01 -0.05 0.01 11776
0.16 0.50 0.63 -0.64 10.00 -0.01 -0.05 0.01 11782
0.14 0.51 0.57 -0.59 10.06 -0.00 -0.04 0.01 11789
0.14 0.50 0.73 -0.69 10.04 -0.00 -0.04 0.01 11795
0.11 0.45 0.61 -0.67 9.96 0.00 -0.04 0.01 11801
0.15 0.44 0.68 -0.63 10.04 -0.00 -0.03 0.01 11807
0.18 0.46 0.63 -0.66 10.06 0.01 -0.04 0.01 11814
0.19 0.42 0.68 -0.68 10.04 0.01 -0.03 0.01 11821
0.22 0.45 0.68 -0.68 10.04 0.01 -0.04 0.01 11827
0.24 0.37 0.61 -0.71 9.98 0.01 -0.03 0.01 11833
0.25 0.35 0.66 -0.68 10.00 0.01 -0.04 0.01 11839
0.29 0.33 0.70 -0.70 10.01 0.02 -0.03 0.01 11846
0.29 0.31 0.67 -0.70 10.04 0.02 -0.04 0.01 11852
0.32 0.26 0.64 -0.70 9.98 0.03 -0.03 0.01 11858
0.32 0.25 0.66 -0.72 10.07 0.03 -0.03 0.02 11865
0.38 0.19 0.67 -0.73 10.03 0.04 -0.04 0.02 11872
0.36 0.19 0.71 -0.72 10.08 0.05 -0.04 0.02 11878
0.40 0.09 0.68 -0.74 10.12 0.06 -0.04 0.02 11884
0.43 0.07 0.70 -0.81 10.08 0.08 -0.05 0.02 11890
0.40 0.06 0.64 -0.73 10.11 0.11 -0.05 0.02 11896
0.42 0.05 0.64 -0.76 10.21 0.15 -0.06 0.01 11904
0.50 0.02 0.72 -0.73 10.32 0.20 -0.08 0.01 11910
0.52 0.01 0.88 -1.45 10.40 0.28 -0.10 -0.00 11916
0.55 -0.01 0.97 -0.91 10.94 0.41 -0.12 -0.02 11922
0.57 -0.03 1.52 -1.12 11.62 0.60 -0.16 -0.08 11929
0.57 -0.04 2.28 -0.62 12.16 0.86 -0.26 -0.21 11935
0.66 -0.04 3.40 -1.83 14.18 1.26 -0.51 -0.41 11941
0.70 -0.05 3.59 -1.25 16.09 1.83 -0.88 -0.62 11949
0.70 -0.03 3.24 -2.27 15.50 2.15 -1.33 -0.78 11955
0.72 -0.04 3.81 -2.74 14.49 2.25 -1.60 -0.93 11961
0.73 -0.04 4.17 -2.72 14.74 2.30 -1.79 -1.12 11967
0.70 -0.03 4.33 -3.21 14.78 2.37 -1.95 -1.30 11974
0.64 -0.03 5.43 -5.87 15.43 2.46 -2.11 -1.57 11980
0.55 -0.03 5.72 -2.30 13.90 2.47 -2.10 -1.77 11986
0.46 -0.03 5.45 -4.38 13.47 2.47 -1.99 -1.98 11993
0.40 -0.02 5.82 -4.49 13.25 2.43 -1.87 -2.18 12000
0.23 -0.02 4.77 -4.09 13.52 2.38 -1.78 -2.38 12006
0.16 -0.01 3.79 -4.04 12.27 2.34 -1.74 -2.55 12012
0.15 -0.02 4.82 -3.19 12.75 2.32 -1.71 -2.64 12019
0.10 -0.01 5.11 -2.69 12.63 2.31 -1.61 -2.76 12025
0.08 -0.00 5.04 -3.35 14.99 2.27 -1.52 -2.89 12032
0.06 -0.01 5.58 -3.73 16.05 2.17 -1.57 -3.05 12038
0.08 -0.01 4.89 -3.76 16.16 2.05 -1.72 -3.22 12044
0.08 -0.01 6.04 -3.30 14.71 1.88 -1.95 -3.37 12051
0.06 -0.01 6.67 -2.26 12.27 1.69 -2.20 -3.57 12057
0.07 -0.01 6.24 -2.20 11.55 1.49 -2.35 -3.76 12063
0.08 -0.01 6.19 -1.16 9.90 1.29 -2.53 -3.97 12069
0.06 -0.01 6.97 1.88 8.52 1.03 -2.68 -4.15 12076
0.06 -0.01 7.36 5.25 7.30 0.75 -2.62 -4.19 12083
0.05 -0.00 9.74 8.33 6.39 0.45 -2.09 -3.99 12089
0.04 -0.00 11.57 5.06 5.66 0.20 -1.25 -3.43 12095
0.04 -0.00 11.75 1.29 9.91 -0.02 -0.22 -2.82 12101
0.06 -0.01 12.07 0.79 12.63 -0.38 0.47 -2.44 12107
0.05 -0.01 10.73 1.89 10.37 -0.65 0.80 -2.13 12114
0.06 -0.01 8.74 2.03 7.50 -0.74 0.98 -1.76 12121
0.06 -0.01 7.46 1.45 5.52 -0.79 1.08 -1.37 12127
0.05 -0.00 6.59 0.95 5.18 -0.76 1.12 -1.01 12133
0.06 -0.00 6.10 0.37 5.60 -0.63 1.15 -0.80 12139
0.06 -0.01 5.70 0.02 6.70 -0.48 1.25 -0.60 12145
0.06 -0.01 5.43 0.03 6.47 -0.34 1.43 -0.47 12152
0.05 -0.01 4.98 0.34 7.01 -0.23 1.68 -0.40 12158
0.06 -0.01 4.22 0.74 7.75 -0.19 1.95 -0.36 12165
0.05 -0.00 3.31 1.02 8.50 -0.18 2.17 -0.34 12171
0.04 -0.00 2.28 1.05 9.16 -0.20 2.32 -0.33 12177
0.05 -0.00 1.48 1.19 9.81 -0.24 2.34 -0.33 12183
0.04 -0.00 0.77 1.29 10.33 -0.29 2.32 -0.31 12190
0.04 -0.00 0.28 1.29 10.75 -0.37 2.32 -0.27 12196
0.05 -0.01 -0.02 1.27 11.01 -0.45 2.34 -0.22 12203
0.05 -0.01 -0.40 1.14 11.28 -0.55 2.41 -0.17 12209
0.04 -0.00 -0.88 0.90 11.31 -0.65 2.50 -0.11 12215
0.06 -0.01 -1.48 0.59 11.28 -0.73 2.58 -0.06 12222
0.05 -0.00 -2.19 0.19 11.11 -0.78 2.64 -0.02 12228
0.04 -0.00 -2.87 -0.15 11.05 -0.80 2.65 0.01 12234
0.06 -0.01 -3.45 -0.52 11.01 -0.79 2.63 0.02 12240
0.05 -0.00 -4.00 -0.84 11.13 -0.78 2.57 0.03 12247
0.05 -0.00 -4.49 -1.07 11.30 -0.75 2.50 0.04 12254
0.06 -0.01 -4.81 -1.32 11.55 -0.72 2.42 0.03 12260
0.05 -0.01 -5.06 -1.48 11.76 -0.69 2.33 0.01 12266
0.05 -0.01 -5.37 -1.55 11.82 -0.66 2.21 -0.00 12272
0.06 -0.01 -5.64 -1.60 12.03 -0.63 2.07 -0.01 12278
0.05 -0.01 -5.87 -1.56 11.99 -0.61 1.90 -0.00 12285
0.06 -0.00 -5.89 -1.58 11.96 -0.59 1.71 0.01 12292
0.05 -0.01 -5.71 -1.44 11.88 -0.57 1.51 0.05 12298
0.05 -0.00 -5.23 -1.31 12.07 -0.56 1.34 0.11 12304
0.06 -0.01 -4.65 -1.32 12.86 -0.55 1.23 0.20 12310
0.05 -0.01 -4.17 -1.45 12.46 -0.57 1.16 0.28 12317
0.05 -0.00 -3.78 -1.54 12.73 -0.60 1.14 0.36 12323
0.06 -0.01 -3.65 -1.75 12.85 -0.65 1.12 0.46 12329
0.05 -0.00 -3.77 -2.00 12.78 -0.71 1.06 0.56 12336
0.05 -0.01 -3.92 -2.34 12.46 -0.77 0.96 0.65 12343
0.04 -0.00 -3.88 -2.70 12.00 -0.80 0.79 0.73 12349
0.05 -0.00 -3.61 -3.05 11.43 -0.82 0.61 0.81 12355
0.05 -0.00 -3.16 -3.42 11.03 -0.81 0.47 0.85 12361
0.05 -0.00 -2.63 -3.78 10.57 -0.74 0.38 0.88 12367
0.04 -0.00 -2.09 -4.08 10.33 -0.72 0.35 0.88 12375
0.05 -0.00 -1.71 -4.25 10.23 -0.64 0.39 0.85 12381
0.05 -0.01 -1.52 -4.35 10.22 -0.56 0.44 0.82 12387
0.04 -0.00 -1.44 -4.25 10.21 -0.48 0.51 0.79 12393
0.06 -0.01 -1.51 -4.07 10.15 -0.40 0.56 0.76 12399
0.05 -0.00 -1.57 -3.86 10.19 -0.34 0.55 0.76 12406
0.05 -0.00 -1.58 -3.61 10.22 -0.28 0.49 0.77 12412
0.06 -0.01 -1.44 -3.38 10.25 -0.23 0.41 0.80 12419
0.05 -0.00 -1.14 -3.24 10.30 -0.20 0.36 0.83 12425
0.05 -0.00 -0.86 -3.14 10.28 -0.18 0.32 0.88 12431
0.05 -0.01 -0.70 -3.09 10.22 -0.18 0.33 0.93 12438
0.05 -0.00 -0.53 -3.08 10.14 -0.18 0.34 0.99 12444
0.05 -0.00 -0.44 -3.02 9.95 -0.18 0.37 1.06 12450
0.06 -0.01 -0.40 -2.93 9.67 -0.18 0.38 1.14 12456
0.05 -0.00 -0.31 -2.83 9.32 -0.18 0.39 1.23 12463
0.04 -0.00 -0.21 -2.70 9.04 -0.17 0.40 1.33 12469
0.05 -0.01 -0.06 -2.65 8.98 -0.16 0.40 1.43 12476
0.05 -0.01 0.01 -2.67 9.08 -0.14 0.42 1.51 12482
0.05 -0.00 0.13 -2.79 9.07 -0.12 0.46 1.59 12488
0.05 -0.00 0.08 -2.93 9.12 -0.11 0.51 1.65 12494
0.05 -0.01 -0.22 -3.18 9.20 -0.10 0.58 1.72 12500
0.05 -0.00 -0.72 -3.63 9.18 -0.09 0.63 1.77 12507
0.05 -0.00 -1.32 -4.07 9.07 -0.07 0.64 1.82 12513
0.07 -0.01 -1.67 -4.36 8.96 -0.03 0.63 1.86 12520
0.05 -0.01 -3.85 -5.40 10.17 0.03 0.46 1.93 12526
0.04 -0.00 -16.33 -7.28 14.04 0.36 -0.95 2.18 12532
0.06 -0.01 -12.40 -4.42 8.60 0.34 -1.86 2.46 12538
0.04 -0.00 -7.45 -3.29 4.68 0.20 -2.77 2.71 12545
0.04 -0.00 -9.48 -8.58 11.48 0.25 -3.30 2.93 12552
0.05 0.00 -6.34 -3.97 14.68 1.02 -2.53 3.56 12558
0.04 0.05 -9.42 -7.23 6.70 0.95 -1.22 4.23 12564
0.03 0.12 -5.87 -4.91 14.59 1.39 -1.28 4.28 12570
0.03 0.19 -18.08 -7.13 17.45 1.45 -1.15 4.27 12577
0.02 0.29 -27.03 -6.36 24.31 1.07 -1.23 3.59 12583
0.02 0.29 -22.85 -2.49 11.83 0.11 -0.54 1.71 12590
0.03 0.30 -10.80 -0.98 12.11 -0.10 -0.18 0.52 12597
0.04 0.28 -5.75 0.45 8.98 -0.12 -0.06 -0.25 12603
0.02 0.28 -0.67 -0.09 9.39 0.07 0.16 -0.47 12609
0.04 0.29 7.02 -0.23 11.29 0.17 0.13 -0.17 12615
0.04 0.28 3.49 -0.45 9.34 0.02 -0.02 0.26 12622
0.03 0.29 3.07 -0.09 10.50 0.02 -0.05 0.39 12628
0.06 0.30 0.76 -1.27 10.65 -0.07 -0.11 0.51 12635
0.04 0.34 -1.81 -1.73 9.78 -0.06 -0.12 0.39 12641
0.05 0.43 -0.63 -0.96 9.65 -0.01 -0.04 0.16 12647
0.07 0.43 0.34 -0.71 9.90 -0.04 0.01 0.11 12654
0.07 0.45 0.65 -1.42 10.20 -0.08 0.03 0.12 12660
0.09 0.49 0.51 -1.27 9.95 -0.09 0.02 0.11 12666
0.09 0.50 0.56 -0.85 9.76 -0.10 0.01 0.09 12673
0.08 0.58 0.48 -0.77 9.87 -0.11 -0.00 0.08 12679
0.09 0.59 0.42 -0.79 10.20 -0.11 -0.02 0.08 12686
0.10 0.60 0.62 -0.69 10.24 -0.09 -0.02 0.08 12692
0.09 0.60 0.72 -0.67 10.04 -0.07 -0.02 0.08 12698
0.11 0.66 0.83 -0.77 10.04 -0.05 -0.02 0.08 12704
0.12 0.67 0.80 -0.76 10.15 -0.04 -0.03 0.08 12711
0.12 0.69 0.72 -0.74 10.11 -0.03 -0.03 0.09 12718
0.13 0.70 0.73 -0.74 10.06 -0.04 -0.04 0.08 12724
0.12 0.71 0.71 -0.75 10.03 -0.03 -0.04 0.08 12730
0.17 0.69 0.68 -0.74 10.14 -0.03 -0.04 0.08 12737
0.16 0.69 0.61 -0.72 10.00 -0.02 -0.04 0.07 12743
0.17 0.73 0.68 -0.72 9.96 -0.02 -0.04 0.07 12749
0.16 0.71 1.20 -0.71 10.08 -0.02 -0.04 0.07 12755
0.17 0.72 0.59 -0.71 10.01 -0.02 -0.04 0.06 12763
0.21 0.69 0.65 0.60 10.40 -0.02 -0.03 0.08 12769
0.22 0.70 0.69 -0.72 10.03 -0.01 -0.03 0.06 12775
0.23 0.71 0.87 -1.06 10.18 -0.01 -0.03 0.06 12781
0.25 0.68 0.68 -0.71 10.05 -0.01 -0.03 0.05 12788
0.25 0.67 0.68 -0.73 10.03 -0.01 -0.03 0.05 12794
0.27 0.72 0.66 -0.68 10.10 -0.00 -0.02 0.05 12801
0.27 0.66 0.66 -0.69 9.99 -0.00 -0.02 0.05 12807
0.26 0.63 0.66 -0.71 10.04 0.00 -0.02 0.05 12813
0.26 0.60 0.66 -0.72 10.06 0.00 -0.02 0.05 12820
0.27 0.60 0.62 -0.69 9.97 0.00 -0.02 0.06 12826
0.26 0.56 0.69 -0.71 10.11 0.00 -0.02 0.06 12832
0.27 0.53 0.64 -0.71 9.95 0.00 -0.02 0.05 12838
0.27 0.50 0.69 -0.70 10.00 0.00 -0.02 0.05 12846
0.27 0.52 0.68 -0.66 10.01 0.00 -0.02 0.06 12852
0.28 0.48 0.64 -0.71 10.01 0.00 -0.02 0.05 12858
0.27 0.50 0.66 -0.68 10.03 0.00 -0.02 0.05 12864
0.29 0.53 0.66 -0.71 10.01 0.00 -0.03 0.05 12870
0.28 0.50 0.65 -0.73 9.99 -0.00 -0.03 0.05 12877
0.28 0.48 0.64 -0.72 10.05 -0.00 -0.02 0.05 12883
0.30 0.48 0.66 -0.71 10.01 -0.00 -0.02 0.05 12890
0.28 0.49 0.67 -0.73 10.05 0.00 -0.02 0.04 12896
0.28 0.49 0.68 -0.72 10.01 0.00 -0.02 0.04 12903
0.29 0.45 0.73 -0.69 10.00 -0.00 -0.03 0.04 12909
0.27 0.46 0.68 -0.69 10.01 -0.00 -0.03 0.05 12915
0.28 0.44 0.67 -0.70 9.97 -0.00 -0.03 0.05 12921
0.28 0.44 0.69 -0.66 10.02 -0.00 -0.03 0.05 12928
0.27 0.45 0.65 -0.70 10.00 -0.01 -0.03 0.05 12935
0.29 0.42 0.66 -0.72 9.99 -0.01 -0.03 0.04 12941
0.28 0.40 0.68 -0.70 10.00 -0.01 -0.03 0.05 12947
0.28 0.40 0.68 -0.75 9.97 -0.01 -0.03 0.05 12953
0.29 0.38 0.69 -0.73 9.95 -0.01 -0.04 0.04 12959
0.29 0.37 0.69 -0.69 9.90 -0.01 -0.04 0.05 12966
0.29 0.37 0.70 -0.72 9.95 -0.01 -0.04 0.04 12973
0.30 0.35 0.69 -0.71 9.99 -0.01 -0.04 0.04 12979
0.29 0.35 0.71 -0.71 9.98 -0.02 -0.05 0.04 12985
0.29 0.38 0.67 -0.71 10.00 -0.01 -0.05 0.04 12991
0.29 0.37 0.64 -0.75 9.97 -0.02 -0.05 0.04 12998
0.29 0.35 0.67 -0.68 9.99 -0.01 -0.05 0.05 13004
0.29 0.38 0.62 -0.73 9.93 -0.02 -0.05 0.04 13010
0.29 0.35 0.62 -0.67 10.01 -0.02 -0.05 0.04 13017
0.26 0.35 0.58 -0.67 9.98 -0.01 -0.04 0.04 13023
0.27 0.36 0.62 -0.72 9.96 -0.01 -0.04 0.04 13030
0.27 0.35 0.67 -0.73 9.97 -0.02 -0.04 0.03 13036
0.26 0.37 0.69 -0.69 9.97 -0.02 -0.05 0.03 13042
0.29 0.36 0.64 -0.65 10.00 -0.02 -0.04 0.04 13048
0.28 0.35 0.65 -0.67 9.98 -0.01 -0.04 0.03 13054
0.27 0.38 0.64 -0.72 9.98 -0.01 -0.05 0.03 13062
0.29 0.38 0.66 -0.70 9.98 -0.01 -0.05 0.03 13068
0.27 0.35 0.65 -0.69 9.97 -0.01 -0.04 0.03 13074
0.26 0.38 0.66 -0.68 9.94 -0.01 -0.05 0.03 13080
0.28 0.37 0.63 -0.70 10.01 -0.01 -0.05 0.03 13086
0.27 0.36 0.66 -0.69 10.05 -0.01 -0.05 0.03 13093
0.27 0.37 0.64 -0.72 9.99 -0.01 -0.05 0.03 13100
0.28 0.40 1.21 -0.71 10.00 -0.01 -0.05 0.03 13106
0.29 0.37 0.65 -0.69 9.95 -0.01 -0.05 0.03 13112
0.30 0.40 0.62 -0.66 9.97 -0.00 -0.05 0.03 13118
0.29 0.37 0.66 -0.69 10.03 -0.00 -0.05 0.03 13125
0.28 0.35 0.65 -0.70 9.98 -0.00 -0.05 0.03 13131
0.29 0.35 0.67 -0.66 10.00 -0.00 -0.05 0.03 13137
0.30 0.33 0.63 -0.67 9.96 -0.00 -0.06 0.03 13144
0.28 0.34 0.65 -0.72 10.02 -0.00 -0.06 0.03 13151
0.31 0.36 0.62 -0.69 10.00 -0.01 -0.06 0.04 13157
0.30 0.36 0.67 -0.70 9.97 -0.01 -0.06 0.03 13163
0.32 0.35 0.55 -0.68 9.98 -0.01 -0.06 0.03 13169
0.34 0.34 0.59 -0.68 10.02 -0.01 -0.06 0.03 13175
0.34 0.31 0.58 -0.69 10.00 -0.00 -0.06 0.03 13182
0.33 0.32 0.60 -0.68 10.04 -0.00 -0.07 0.02 13189
0.35 0.32 0.59 -0.68 10.07 0.01 -0.06 0.03 13195
0.34 0.28 0.60 -0.71 10.05 0.01 -0.06 0.03 13201
0.39 0.28 0.61 -0.68 10.01 0.02 -0.06 0.02 13208
0.40 0.23 0.64 -0.66 10.06 0.02 -0.06 0.02 13214
0.41 0.21 0.62 -0.69 10.04 0.03 -0.06 0.02 13220
0.44 0.19 0.62 -0.74 10.01 0.03 -0.07 0.01 13227
0.45 0.18 0.63 -0.74 10.09 0.05 -0.07 0.01 13234
0.51 0.12 0.69 -0.71 10.12 0.07 -0.08 -0.00 13240
0.55 0.13 0.69 -0.75 10.16 0.10 -0.09 -0.02 13246
0.54 0.08 0.70 -0.73 10.30 0.15 -0.13 -0.02 13252
0.57 0.04 0.74 -0.79 10.47 0.20 -0.12 -0.04 13259
0.58 0.01 0.74 -0.74 10.68 0.31 -0.14 -0.05 13265
0.65 -0.01 1.07 -1.00 11.14 0.46 -0.23 -0.09 13272
0.70 -0.04 2.40 -1.36 11.99 0.68 -0.36 -0.18 13278
0.76 -0.04 3.25 -2.27 13.55 1.01 -0.66 -0.36 13285
0.82 -0.06 4.91 -2.56 14.36 1.35 -1.14 -0.68 13291
0.80 -0.04 4.70 -2.56 15.50 1.60 -1.62 -0.95 13297
0.86 -0.03 3.81 -2.27 15.68 1.91 -2.05 -1.12 13303
0.84 -0.04 5.39 -3.49 15.08 2.09 -2.31 -1.33 13310
0.83 -0.03 6.15 -3.75 14.17 2.16 -2.37 -1.59 13317
0.78 -0.04 5.97 -4.57 14.64 2.23 -2.30 -1.87 13323
0.70 -0.03 6.30 -4.05 13.34 2.32 -2.30 -2.15 13330
0.57 -0.03 6.13 -4.27 12.26 2.38 -2.21 -2.45 13336
0.42 -0.02 6.67 -4.51 13.03 2.37 -1.88 -2.71 13342
0.30 -0.01 6.35 -3.86 11.89 2.36 -1.66 -2.95 13348
0.23 -0.02 6.55 -2.51 11.73 2.30 -1.34 -3.14 13356
0.17 -0.01 5.37 -1.97 11.60 2.21 -1.04 -3.32 13362
0.17 -0.02 6.20 -2.28 13.04 2.11 -1.01 -3.45 13368
0.10 -0.00 6.51 -2.91 13.73 2.02 -1.09 -3.63 13374
0.09 -0.01 6.87 -3.10 14.15 1.91 -1.24 -3.82 13381
0.08 -0.01 6.66 -3.41 13.06 1.77 -1.40 -4.01 13387
0.06 -0.01 6.39 -2.96 12.17 1.59 -1.47 -4.24 13393
0.06 -0.01 7.29 -1.48 11.71 1.32 -1.49 -4.28 13400
0.06 -0.01 6.89 -0.46 10.55 1.03 -1.68 -4.28 13407
0.06 -0.01 5.97 1.32 9.23 0.75 -2.00 -4.28 13413
0.05 -0.01 5.20 2.97 8.52 0.50 -2.25 -4.28 13419
0.05 -0.00 6.32 6.70 8.01 0.24 -2.17 -4.28 13425
0.07 -0.01 12.69 7.17 6.52 -0.04 -1.79 -4.28 13431
0.06 -0.01 13.00 2.04 8.56 -0.35 -0.75 -3.61 13437
0.06 -0.01 14.17 0.77 12.67 -0.71 0.37 -3.02 13445
0.07 -0.01 13.25 1.00 10.15 -0.97 0.83 -2.61 13451
0.06 -0.01 10.10 0.29 7.18 -1.00 1.04 -2.14 13457
0.07 -0.01 8.16 -0.38 5.30 -0.91 1.20 -1.65 13463
0.06 -0.01 7.65 -0.96 4.91 -0.73 1.29 -1.19 13470
0.06 -0.01 7.44 -1.35 5.83 -0.54 1.35 -0.80 13476
0.06 -0.01 7.36 -1.35 6.65 -0.32 1.50 -0.48 13483
0.06 -0.01 7.06 -0.97 7.88 -0.15 1.71 -0.23 13489
0.05 -0.01 6.33 -0.43 8.98 -0.06 2.02 -0.00 13495
0.06 -0.01 5.17 0.19 10.02 -0.05 2.33 0.18 13501
0.07 -0.01 3.62 0.60 10.81 -0.10 2.54 0.39 13508
0.05 -0.01 1.97 0.85 11.30 -0.19 2.63 0.62 13514
0.05 -0.01 0.52 0.95 11.48 -0.28 2.56 0.87 13520
0.06 -0.01 -0.56 0.90 11.45 -0.38 2.39 1.10 13527
0.06 -0.01 -1.14 0.66 11.37 -0.47 2.18 1.29 13533
0.05 -0.01 -1.35 0.32 11.25 -0.54 2.00 1.42 13540
0.06 -0.01 -1.42 0.05 10.99 -0.58 1.90 1.50 13546
0.05 -0.00 -1.62 -0.24 10.96 -0.61 1.90 1.51 13552
0.05 -0.01 -1.94 -0.51 10.80 -0.61 1.98 1.47 13558
0.06 -0.01 -2.30 -0.72 10.75 -0.60 2.05 1.39 13564
0.05 -0.01 -2.74 -0.64 10.72 -0.58 2.14 1.30 13572
0.05 0.00 -3.16 -0.48 11.07 -0.55 2.19 1.21 13578
0.05 -0.01 -3.64 -0.36 11.18 -0.52 2.18 1.12 13584
0.05 -0.00 -3.81 -0.27 11.39 -0.50 2.12 1.06 13590
0.06 -0.01 -3.85 -0.06 11.64 -0.50 2.00 1.02 13596
0.04 -0.00 -3.67 -0.05 11.79 -0.51 1.87 0.99 13603
0.05 -0.00 -3.44 -0.09 12.08 -0.55 1.72 0.97 13609
0.06 -0.01 -3.18 -0.31 12.36 -0.59 1.57 0.97 13616
0.05 -0.01 -2.83 -0.65 12.46 -0.63 1.45 0.98 13622
0.05 -0.00 -2.44 -1.07 12.33 -0.66 1.33 0.99 13628
0.05 -0.01 -2.00 -1.33 11.81 -0.68 1.22 1.00 13635
0.04 -0.00 -1.65 -1.72 11.36 -0.69 1.14 1.00 13641
0.04 0.00 -1.46 -2.39 11.09 -0.67 1.13 0.99 13647
0.04 -0.00 -1.40 -2.92 11.01 -0.63 1.16 0.99 13654
0.04 -0.00 -1.51 -3.19 10.98 -0.54 1.22 0.99 13661
0.05 -0.00 -1.78 -3.17 11.11 -0.50 1.28 1.01 13667
0.05 -0.00 -2.16 -2.96 11.13 -0.45 1.30 1.06 13673
0.04 -0.00 -2.52 -2.77 10.99 -0.42 1.24 1.12 13679
0.06 -0.01 -2.80 -2.57 11.10 -0.41 1.15 1.20 13685
0.05 -0.00 -2.93 -2.45 10.99 -0.41 1.03 1.28 13692
0.04 -0.00 -2.78 -2.58 10.83 -0.41 0.85 1.36 13699
0.05 -0.01 -2.35 -2.63 10.67 -0.40 0.68 1.41 13705
0.05 -0.00 -1.72 -2.61 10.51 -0.39 0.57 1.45 13711
0.04 -0.00 -1.18 -2.77 11.02 -0.39 0.54 1.48 13717
0.05 -0.00 -0.87 -2.88 10.35 -0.40 0.58 1.49 13724
0.05 -0.00 -0.85 -2.99 10.27 -0.40 0.64 1.48 13730
0.05 0.00 -1.09 -3.29 10.05 -0.40 0.70 1.44 13736
0.04 -0.00 -1.53 -3.54 9.83 -0.38 0.73 1.38 13743
0.04 -0.00 -1.90 -3.77 9.69 -0.35 0.74 1.30 13749
0.05 0.00 -2.29 -4.04 9.64 -0.31 0.74 1.21 13756
0.05 -0.00 -2.66 -4.27 9.69 -0.28 0.74 1.12 13762
0.05 -0.00 -2.92 -4.41 9.83 -0.24 0.74 1.03 13768
0.04 -0.00 -3.67 -4.45 9.99 -0.22 0.74 0.96 13774
0.05 -0.01 -3.40 -4.47 10.04 -0.23 0.73 0.93 13780
0.04 -0.00 -3.74 -4.57 9.92 -0.25 0.68 0.92 13787
0.04 -0.00 -10.79 -7.35 15.26 -0.18 0.26 0.99 13794
0.05 -0.00 -15.48 -5.67 11.15 0.03 -1.33 1.29 13800
0.04 -0.00 -10.54 -4.49 7.60 -0.07 -2.29 1.58 13806
0.04 -0.00 -5.34 -4.65 7.78 -0.20 -2.73 1.84 13812
0.05 -0.00 -11.44 -9.42 11.23 -0.19 -3.09 2.10 13819
0.04 -0.00 -14.24 -11.08 14.89 0.43 -3.11 2.78 13826
0.04 0.04 -3.42 -9.55 2.87 0.83 -1.66 3.63 13832
0.04 0.09 -5.86 -7.88 8.14 1.04 -1.54 4.25 13838
0.04 0.22 -17.83 -7.90 13.78 1.37 -1.17 4.27 13845
0.03 0.33 -19.58 -8.33 14.93 1.57 -0.88 3.77 13851
0.03 0.42 -21.20 -2.87 16.98 1.55 -0.88 2.72 13857
0.03 0.40 -19.57 -0.67 20.19 0.91 -0.78 1.47 13864
0.03 0.42 -8.93 0.16 9.85 0.08 -0.22 0.26 13871
0.04 0.43 -2.03 0.24 10.16 0.06 -0.00 -0.27 13877
0.04 0.38 3.11 -0.61 9.95 0.09 0.07 -0.29 13883
0.02 0.43 4.20 -0.78 10.66 0.08 -0.05 0.02 13889
0.03 0.43 2.58 0.02 9.64 0.03 0.02 0.32 13896
0.04 0.42 1.12 -1.14 10.73 -0.01 0.01 0.42 13902
0.03 0.50 -0.31 -1.39 10.71 -0.04 -0.03 0.33 13908
0.04 0.52 -0.32 -1.48 10.06 -0.03 -0.05 0.16 13915
0.05 0.52 0.36 -0.92 9.65 -0.04 -0.01 0.12 13922
0.07 0.56 0.49 -1.06 10.24 -0.08 -0.00 0.14 13928
0.07 0.54 0.70 -1.14 10.11 -0.09 -0.01 0.13 13934
0.05 0.63 0.85 -0.76 10.14 -0.09 -0.02 0.11 13940
0.07 0.69 0.59 -0.65 10.05 -0.08 -0.02 0.09 13947
0.07 0.72 0.53 -0.69 9.96 -0.07 -0.03 0.08 13954
0.08 0.71 0.56 -0.63 9.93 -0.07 -0.03 0.09 13960
0.08 0.67 0.57 -0.69 10.09 -0.06 -0.03 0.09 13966
0.09 0.68 0.67 -0.73 10.06 -0.06 -0.03 0.09 13972
0.09 0.71 0.64 -0.74 10.04 -0.05 -0.03 0.09 13979
0.09 0.72 0.63 -0.71 9.97 -0.05 -0.03 0.09 13985
0.09 0.73 0.66 -0.74 10.02 -0.05 -0.03 0.09 13991
0.10 0.77 0.66 -0.74 10.04 -0.04 -0.03 0.08 13998
0.09 0.77 0.59 -0.70 10.22 -0.04 -0.03 0.08 14005
0.11 0.77 0.60 -0.67 10.01 -0.04 -0.03 0.08 14011
0.12 0.72 0.63 -0.67 9.97 -0.03 -0.04 0.08 14017
0.12 0.72 0.68 -0.68 10.06 -0.03 -0.03 0.08 14023
0.13 0.75 0.72 -0.68 10.03 -0.03 -0.03 0.08 14030
0.11 0.74 0.46 -0.72 9.96 -0.03 -0.03 0.07 14036
0.13 0.78 0.64 -0.69 9.96 -0.02 -0.03 0.07 14043
0.14 0.77 0.68 -0.67 10.08 -0.02 -0.03 0.06 14049
0.12 0.74 0.64 -0.67 9.96 -0.02 -0.03 0.06 14055
0.15 0.74 0.64 -0.67 10.03 -0.02 -0.03 0.06 14062
0.14 0.71 0.67 -0.66 9.99 -0.02 -0.03 0.06 14068
0.15 0.71 0.65 -0.66 10.01 -0.02 -0.03 0.06 14074
0.16 0.71 0.65 -0.68 10.04 -0.02 -0.03 0.06 14081
0.15 0.71 0.67 -0.66 10.05 -0.01 -0.03 0.06 14088
0.15 0.70 0.68 -0.68 10.02 -0.01 -0.03 0.06 14094
0.15 0.66 0.73 -0.67 10.04 -0.01 -0.03 0.06 14100
0.15 0.61 0.70 -0.68 10.00 -0.00 -0.03 0.06 14106
0.17 0.62 0.67 -0.68 10.01 -0.00 -0.03 0.06 14112
0.16 0.59 0.67 -0.66 10.11 -0.00 -0.03 0.06 14119
0.16 0.59 0.68 -0.67 10.01 -0.00 -0.03 0.06 14126
0.16 0.52 0.68 -0.66 10.02 -0.00 -0.03 0.06 14132
0.16 0.50 0.69 -0.71 10.01 0.00 -0.03 0.06 14138
0.18 0.49 0.69 -0.64 10.02 -0.00 -0.03 0.05 14145
0.18 0.45 0.69 -0.70 9.96 0.00 -0.04 0.06 14151
0.18 0.43 0.71 -0.67 9.97 0.00 -0.07 0.05 14157
0.20 0.43 0.67 -0.64 10.00 0.00 -0.04 0.05 14163
0.17 0.38 0.68 -0.62 9.96 0.00 -0.04 0.05 14170
0.18 0.39 0.68 -0.76 9.98 0.00 -0.03 0.05 14177
0.19 0.35 0.72 -0.60 9.98 0.01 -0.04 0.05 14183
0.19 0.35 0.70 -0.67 9.99 0.00 -0.04 0.05 14189
0.19 0.37 0.67 -0.68 9.94 0.00 -0.04 0.05 14195
0.22 0.31 0.69 -0.68 10.01 0.00 -0.04 0.04 14201
0.21 0.30 0.68 -0.67 9.95 0.00 -0.04 0.04 14209
0.22 0.28 0.70 -0.65 9.99 0.00 -0.04 0.04 14215
0.24 0.25 0.70 -0.57 10.00 0.00 -0.04 0.04 14221
0.26 0.24 0.67 -0.68 10.00 0.01 -0.04 0.04 14227
0.28 0.25 0.72 -0.63 10.00 0.00 -0.04 0.04 14233
0.28 0.22 0.66 -0.64 10.00 0.01 -0.04 0.04 14240
0.28 0.21 0.61 -0.66 9.93 0.01 -0.04 0.04 14246
0.31 0.20 0.64 -0.65 9.95 0.00 -0.04 0.04 14253
0.31 0.22 0.70 -0.71 9.91 -0.00 -0.04 0.04 14259
0.31 0.16 0.65 -0.68 9.92 -0.00 -0.04 0.04 14265
0.34 0.21 0.64 -0.73 9.94 -0.01 -0.04 0.04 14272
0.33 0.22 0.66 -0.67 10.00 -0.01 -0.04 0.04 14278
0.34 0.20 0.69 -0.68 10.00 -0.01 -0.04 0.04 14284
0.37 0.20 0.70 -0.70 9.96 -0.01 -0.04 0.04 14290
0.36 0.20 0.68 -0.67 10.02 -0.01 -0.04 0.04 14298
0.36 0.22 0.70 -0.70 9.99 -0.01 -0.05 0.04 14304
0.37 0.22 0.69 -0.70 10.01 -0.01 -0.05 0.04 14310
0.37 0.20 0.69 -0.67 10.03 -0.01 -0.05 0.04 14316
0.38 0.21 1.31 -2.15 10.24 -0.01 -0.04 0.06 14322
0.38 0.18 0.63 -0.63 9.97 -0.01 -0.04 0.04 14329
0.39 0.18 0.67 -0.66 10.00 -0.00 -0.04 0.03 14336
0.40 0.20 0.61 -0.66 9.96 0.00 -0.04 0.04 14342
0.40 0.16 0.65 -0.65 9.99 0.00 -0.04 0.04 14348
0.39 0.20 0.66 -0.67 9.98 -0.00 -0.04 0.04 14354
0.40 0.22 0.66 -0.67 10.01 0.00 -0.04 0.03 14361
0.38 0.22 0.71 -0.67 10.00 0.00 -0.04 0.03 14367
0.39 0.19 0.67 -0.70 10.02 -0.00 -0.04 0.04 14373
0.37 0.18 0.63 -0.68 9.96 -0.01 -0.04 0.04 14380
0.38 0.17 0.74 -0.66 9.99 -0.01 -0.05 0.04 14387
0.41 0.20 0.65 -0.70 10.01 -0.01 -0.04 0.04 14393
0.43 0.19 0.67 -0.65 9.95 -0.01 -0.04 0.04 14399
0.42 0.20 0.62 -0.68 10.01 -0.01 -0.04 0.04 14405
0.44 0.18 0.63 -0.69 9.99 -0.00 -0.04 0.04 14411
0.45 0.19 0.66 -0.67 10.02 -0.00 -0.05 0.04 14418
0.46 0.18 0.62 -0.65 10.01 -0.00 -0.05 0.04 14425
0.46 0.17 0.64 -0.68 10.00 0.00 -0.05 0.03 14431
0.46 0.13 0.63 -0.69 9.98 0.00 -0.05 0.04 14437
0.47 0.13 0.62 -0.72 9.93 0.00 -0.05 0.04 14443
0.47 0.11 0.66 -0.68 10.00 0.01 -0.05 0.04 14450
0.46 0.08 0.65 -0.68 10.00 0.01 -0.06 0.03 14456
0.49 0.10 0.67 -0.70 10.06 0.02 -0.06 0.03 14462
0.52 0.08 0.67 -0.67 10.03 0.03 -0.06 0.02 14469
0.54 0.06 0.62 -0.71 10.02 0.04 -0.07 0.02 14476
0.57 0.04 0.60 -0.66 10.08 0.05 -0.07 0.02 14482
0.60 0.01 0.62 -0.74 10.08 0.07 -0.08 0.02 14488
0.61 0.01 0.00 -0.74 10.14 0.09 -0.08 0.02 14494
0.66 0.01 0.67 -0.75 10.20 0.12 -0.09 0.01 14501
0.66 -0.02 0.74 -0.80 10.24 0.16 -0.11 -0.00 14508
0.69 0.00 0.86 -0.59 10.47 0.22 -0.12 -0.02 14514
0.75 -0.03 0.86 -0.78 10.59 0.31 -0.14 -0.04 14520
0.80 -0.05 1.03 -0.91 10.71 0.44 -0.17 -0.08 14527
0.84 -0.05 1.33 -1.18 11.18 0.61 -0.22 -0.15 14533
0.84 -0.05 1.86 -1.27 11.52 0.80 -0.32 -0.26 14539
0.88 -0.05 2.75 -1.75 12.53 1.03 -0.50 -0.42 14545
0.88 -0.05 2.79 -1.89 14.22 1.35 -0.72 -0.57 14553
0.89 -0.03 2.98 -2.07 15.20 1.67 -1.08 -0.72 14559
0.93 -0.03 2.96 -2.44 14.62 1.85 -1.45 -0.85 14565
0.88 -0.03 3.71 -2.69 14.56 1.95 -1.75 -1.01 14571
0.91 -0.04 4.21 -3.22 14.39 2.05 -2.00 -1.21 14578
0.85 -0.04 5.77 -3.08 14.09 2.17 -2.13 -1.48 14584
0.81 -0.03 5.66 -4.17 14.42 2.24 -2.22 -1.71 14590
0.70 -0.05 5.82 -4.27 13.73 2.28 -2.27 -1.97 14598
0.58 -0.02 6.24 -4.75 13.70 2.29 -2.30 -2.24 14604
0.41 -0.02 8.42 -5.59 14.17 2.26 -2.21 -2.51 14610
0.29 -0.01 9.40 -4.48 11.22 2.25 -1.95 -2.82 14616
0.23 -0.02 8.44 -4.61 11.33 2.16 -1.51 -3.12 14623
0.13 -0.01 8.41 -3.87 11.76 2.11 -1.06 -3.39 14629
0.12 -0.01 9.26 -3.32 13.70 1.96 -0.79 -3.65 14636
0.10 -0.01 8.44 -3.55 14.83 1.77 -0.71 -3.87 14642
0.08 -0.01 9.04 -3.06 13.65 1.57 -0.74 -4.06 14649
0.08 -0.01 8.30 -2.19 12.02 1.30 -0.91 -4.25 14655
0.07 -0.01 7.49 -1.20 10.61 0.92 -1.25 -4.28 14661
0.07 -0.00 7.32 0.71 9.12 0.57 -1.74 -4.28 14667
0.06 -0.01 8.86 4.15 7.95 0.20 -2.25 -4.28 14673
0.05 -0.01 10.41 8.53 7.03 -0.21 -2.34 -4.28 14681
0.05 0.00 14.24 7.82 6.29 -0.62 -1.72 -4.28 14687
0.05 -0.00 13.95 1.49 9.17 -0.90 -0.50 -3.49 14693
0.03 -0.00 16.21 0.16 12.49 -1.20 0.48 -2.81 14699
0.06 -0.01 14.41 0.23 8.27 -1.36 0.69 -2.37 14706
0.05 -0.01 11.52 -0.59 4.85 -1.25 0.81 -1.97 14712
0.05 -0.01 10.32 -1.64 3.45 -1.00 1.00 -1.55 14718
0.06 -0.01 10.14 -2.33 4.39 -0.64 1.22 -1.19 14725
0.05 -0.01 10.20 -2.65 5.90 -0.25 1.50 -0.92 14731
0.05 -0.01 9.75 -2.34 7.29 0.01 1.87 -0.75 14738
0.04 -0.00 8.29 -1.36 8.56 0.20 2.28 -0.61 14744
0.04 -0.00 6.70 -0.24 9.52 0.26 2.57 -0.46 14750
0.04 -0.00 4.51 0.10 10.57 0.26 2.76 -0.31 14756
0.06 -0.01 2.54 0.29 11.51 0.22 2.77 -0.19 14763
0.05 -0.00 0.96 0.32 11.95 0.17 2.67 -0.06 14769
0.05 -0.00 -0.23 0.37 12.49 0.10 2.55 0.07 14776
0.05 -0.00 -1.21 0.40 13.03 0.02 2.45 0.16 14782
0.04 -0.00 -2.08 0.67 13.28 -0.08 2.39 0.21 14788
0.04 -0.00 -3.19 1.09 13.23 -0.19 2.39 0.23 14794
0.06 -0.01 -4.34 1.52 13.05 -0.30 2.42 0.24 14800
0.05 -0.01 -5.70 1.94 12.98 -0.38 2.43 0.26 14808
0.04 -0.00 -6.90 2.06 12.86 -0.46 2.38 0.29 14814
0.05 -0.01 -8.00 2.01 12.57 -0.53 2.23 0.35 14820
0.05 -0.00 -8.48 1.60 12.44 -0.57 1.98 0.41 14826
0.05 0.00 -8.31 0.93 12.37 -0.61 1.67 0.47 14832
0.05 -0.01 -7.44 0.28 12.21 -0.64 1.38 0.52 14839
0.04 -0.00 -5.96 -0.15 11.98 -0.67 1.06 0.56 14845
0.05 0.00 -4.27 -0.73 11.78 -0.69 0.84 0.59 14852
0.04 -0.00 -2.52 -1.26 11.36 -0.70 0.71 0.67 14858
0.04 -0.00 -1.03 -1.85 10.64 -0.70 0.66 0.68 14864
0.05 -0.00 -0.02 -2.32 9.99 -0.67 0.67 0.74 14871
0.04 -0.00 0.44 -2.66 9.94 -0.61 0.75 0.82 14877
0.03 -0.00 0.52 -2.87 9.59 -0.53 0.87 0.91 14883
0.04 -0.00 0.46 -3.03 9.31 -0.43 0.99 1.00 14889
0.05 -0.00 0.32 -3.05 9.10 -0.36 1.09 1.09 14896
0.05 -0.00 0.07 -2.70 9.15 -0.26 1.19 1.19 14902
0.04 -0.00 -0.25 -2.11 9.21 -0.17 1.24 1.31 14908
0.06 -0.01 -0.64 -1.57 9.37 -0.12 1.27 1.46 14915
0.05 -0.00 -1.07 -0.98 9.48 -0.09 1.26 1.57 14921
0.04 -0.00 -1.40 -0.52 9.79 -0.09 1.18 1.71 14927
0.05 0.00 -1.56 -0.41 10.01 -0.10 1.09 1.84 14934
0.05 -0.00 -1.74 -0.59 10.15 -0.12 1.01 1.92 14940
0.05 -0.00 -1.95 -1.05 10.33 -0.13 0.94 1.97 14947
0.06 -0.01 -1.95 -1.42 10.41 -0.16 0.86 1.96 14953
0.04 -0.00 -1.88 -1.70 10.64 -0.20 0.79 1.91 14959
0.05 -0.00 -1.82 -1.83 10.74 -0.27 0.73 1.83 14965
0.05 -0.01 -1.72 -1.95 10.87 -0.35 0.69 1.73 14971
0.04 -0.00 -1.83 -2.15 10.89 -0.43 0.70 1.61 14979
0.05 0.00 -2.12 -2.48 10.57 -0.50 0.72 1.48 14985
0.05 -0.00 -2.38 -2.85 10.16 -0.54 0.72 1.35 14991
0.04 -0.00 -2.74 -3.14 9.81 -0.55 0.70 1.22 14997
0.05 0.00 -3.05 -3.56 9.56 -0.53 0.68 1.11 15003
0.05 -0.01 -3.22 -3.96 9.44 -0.47 0.64 0.98 15010
0.04 -0.00 -3.21 -4.42 9.42 -0.41 0.57 0.90 15016
0.05 0.00 -2.98 -4.75 9.47 -0.36 0.50 0.79 15023
0.06 -0.01 -2.64 -5.04 9.54 -0.30 0.45 0.71 15029
0.05 -0.01 -2.13 -5.26 9.76 -0.25 0.45 0.66 15035
0.05 0.00 -1.58 -5.59 10.07 -0.22 0.47 0.64 15042
0.05 -0.01 -1.01 -6.21 10.08 -0.20 0.47 0.69 15048
0.04 -0.00 -0.61 -6.69 9.90 -0.18 0.44 0.82 15054
0.05 -0.00 -0.20 -7.14 9.28 -0.15 0.37 1.03 15060
0.05 -0.01 0.25 -7.22 8.32 -0.09 0.29 1.33 15067
0.05 -0.00 -4.57 -9.91 14.12 0.08 -0.12 1.78 15073
0.05 0.00 -13.94 -6.40 10.59 0.59 -2.58 2.61 15080
0.05 -0.00 -2.97 -4.65 1.92 0.35 -2.99 3.23 15086
0.04 -0.00 -4.16 -7.91 6.61 0.42 -3.79 3.82 15092
0.05 -0.01 -7.98 -10.45 9.27 0.48 -4.25 4.27 15098
0.04 0.03 -11.91 8.20 21.16 1.28 -3.20 4.28 15106
0.04 0.15 -11.55 -8.14 12.07 1.26 -1.54 4.28 15112
0.03 0.38 -30.92 -9.11 16.36 1.60 -1.27 4.28 15118
0.03 0.51 -39.26 -4.89 28.54 1.46 -1.83 3.81 15125
0.00 0.69 -33.67 -1.39 21.04 0.38 -1.13 1.52 15131
0.01 0.72 -7.15 0.92 9.99 -0.08 -0.20 -0.07 15137
0.02 0.71 -4.34 0.97 8.71 0.06 0.08 -0.49 15143
0.02 0.58 7.14 -1.19 10.47 0.21 0.08 -0.34 15151
0.03 0.55 4.96 -0.32 9.09 0.11 -0.02 0.36 15157
0.04 0.52 3.53 -2.28 11.58 0.07 -0.03 0.55 15163
0.02 0.54 -1.14 -1.10 10.85 -0.02 -0.15 0.41 15169
0.07 0.53 -0.74 -2.58 9.31 -0.01 -0.13 0.23 15176
0.06 0.52 -0.23 -0.93 9.44 -0.03 -0.04 0.13 15182
0.10 0.54 0.16 -1.73 10.34 -0.11 -0.04 0.10 15188
0.12 0.59 0.55 -1.18 10.10 -0.16 -0.07 0.09 15195
0.08 0.62 0.36 -0.66 10.38 -0.15 -0.06 0.07 15202
0.10 0.63 0.41 -0.61 10.36 -0.11 -0.03 0.06 15208
0.13 0.63 0.61 -0.60 10.17 -0.07 -0.01 0.07 15214
0.13 0.64 0.69 -0.67 10.06 -0.05 -0.01 0.08 15220
0.16 0.58 0.58 -0.78 10.23 -0.05 -0.01 0.09 15227
0.16 0.56 0.61 -0.80 10.08 -0.04 -0.02 0.10 15234
0.18 0.57 0.69 -0.88 10.01 -0.04 -0.02 0.10 15240
0.20 0.52 0.71 -0.82 10.18 -0.04 -0.03 0.09 15246
0.20 0.54 0.66 -0.77 10.09 -0.03 -0.04 0.08 15252
0.23 0.53 0.01 0.06 10.65 -0.03 -0.02 0.09 15259
0.23 0.48 0.49 -0.65 10.02 -0.01 -0.03 0.08 15265
0.26 0.45 0.64 -0.78 9.97 -0.01 -0.04 0.08 15271
0.25 0.45 0.64 -0.72 10.03 -0.01 -0.04 0.08 15278
0.25 0.43 0.66 -0.76 10.02 -0.00 -0.04 0.08 15285
0.26 0.43 0.63 -0.74 10.08 -0.00 -0.04 0.08 15291
0.28 0.40 0.68 -0.80 10.05 -0.00 -0.04 0.07 15297
0.28 0.36 0.64 -0.69 10.01 -0.00 -0.04 0.07 15303
0.29 0.36 0.66 -0.67 10.05 -0.00 -0.04 0.07 15310
0.30 0.36 0.64 -0.74 10.01 -0.00 -0.04 0.06 15316
0.31 0.32 0.46 -0.65 10.16 -0.00 -0.04 0.06 15323
0.31 0.30 0.65 -0.69 9.99 0.00 -0.04 0.06 15329
0.31 0.28 0.57 -0.71 10.00 0.00 -0.04 0.06 15335
0.34 0.31 1.19 -0.72 9.99 0.00 -0.04 0.06 15342
0.34 0.24 0.57 -0.74 10.02 0.00 -0.04 0.07 15348
0.34 0.26 0.57 -0.66 10.00 0.00 -0.04 0.07 15354
0.35 0.25 0.61 -0.67 9.98 0.01 -0.04 0.07 15361
0.34 0.23 0.65 -0.67 9.96 0.01 -0.04 0.08 15368
0.34 0.25 0.59 -0.66 10.00 0.01 -0.04 0.08 15374
0.36 0.21 0.60 -0.69 10.00 0.01 -0.04 0.08 15380
0.35 0.19 0.61 -0.68 10.01 0.01 -0.04 0.08 15386
0.36 0.21 0.66 -0.70 9.96 0.01 -0.04 0.08 15392
0.36 0.16 0.65 -0.76 10.03 0.01 -0.04 0.07 15399
0.36 0.15 0.63 -0.72 9.99 0.01 -0.05 0.07 15406
0.38 0.17 0.62 -0.74 9.99 0.00 -0.04 0.07 15412
0.37 0.13 0.64 -0.72 10.00 0.00 -0.05 0.07 15418
0.37 0.11 0.61 -0.73 10.01 -0.00 -0.05 0.06 15424
0.39 0.17 0.54 -0.65 9.98 -0.00 -0.05 0.07 15431
0.39 0.13 0.61 -0.72 10.00 -0.00 -0.05 0.07 15437
0.39 0.15 0.59 -0.72 10.02 -0.00 -0.05 0.07 15443
0.40 0.13 0.55 -0.69 9.98 -0.00 -0.06 0.07 15450
0.41 0.10 0.56 -0.70 9.99 0.00 -0.05 0.06 15457
0.42 0.14 0.57 -0.74 9.98 0.00 -0.05 0.06 15463
0.43 0.13 0.59 -0.69 9.97 0.01 -0.05 0.07 15469
0.44 0.11 0.56 -0.73 9.96 0.00 -0.05 0.07 15475
0.46 0.14 0.58 -0.74 9.97 0.00 -0.05 0.07 15481
0.48 0.15 0.53 -0.72 9.95 0.00 -0.05 0.07 15488
