Voltage_01 Voltage_02 Acc_x Acc_y Acc_z Gyro_x Gyro_y Gyro_z Time
5000
0.26 0.12 0.82 -0.86 9.99 -0.02 -0.06 -0.00 23
0.24 0.13 0.82 -0.85 9.96 -0.02 -0.05 -0.00 29
0.23 0.16 0.83 -0.86 9.96 -0.02 -0.06 -0.00 35
0.21 0.19 0.79 -0.84 10.02 -0.03 -0.06 0.00 41
0.21 0.19 0.80 -0.86 10.02 -0.02 -0.06 0.00 48
0.20 0.19 0.84 -0.81 9.99 -0.02 -0.06 0.00 54
0.21 0.18 0.82 -0.83 9.98 -0.02 -0.06 0.01 60
0.18 0.24 0.83 -0.86 10.00 -0.02 -0.07 0.01 66
0.21 0.27 0.82 -0.80 10.03 -0.02 -0.07 0.01 72
0.22 0.25 0.79 -0.88 10.04 -0.01 -0.07 0.01 78
0.21 0.26 0.78 -0.82 9.95 -0.01 -0.06 0.01 84
0.21 0.26 0.81 -0.80 10.08 -0.00 -0.06 0.01 91
0.19 0.24 0.81 -0.84 10.07 0.00 -0.05 0.00 97
0.22 0.22 0.83 -0.83 10.08 0.01 -0.05 -0.00 104
0.22 0.17 0.85 -0.89 10.08 0.02 -0.06 -0.00 110
0.21 0.12 0.86 -0.87 10.10 0.03 -0.06 -0.01 116
0.22 0.09 0.88 -0.91 10.07 0.03 -0.07 -0.01 122
0.25 0.05 0.87 -0.94 10.10 0.04 -0.07 -0.02 129
0.25 0.04 0.82 -0.90 10.19 0.06 -0.08 -0.02 135
0.25 0.02 0.83 -0.87 10.14 0.08 -0.08 -0.03 141
0.26 0.01 0.79 -0.88 10.16 0.11 -0.09 -0.03 148
0.28 0.00 0.80 -0.89 10.24 0.15 -0.10 -0.03 154
0.29 -0.03 0.83 -1.07 10.37 0.19 -0.11 -0.04 160
0.30 -0.03 0.83 -0.83 10.30 0.25 -0.12 -0.05 166
0.32 -0.02 0.99 -1.07 10.50 0.31 -0.16 -0.08 173
0.34 -0.03 1.07 -1.29 10.66 0.38 -0.22 -0.11 179
0.34 -0.03 1.61 -1.41 11.28 0.52 -0.30 -0.17 185
0.35 -0.02 2.27 -1.67 12.66 0.73 -0.45 -0.26 191
0.37 -0.03 2.92 -1.99 12.69 0.99 -0.64 -0.40 198
0.35 -0.03 2.47 -1.90 14.07 1.32 -0.87 -0.51 204
0.36 -0.03 2.35 -2.05 14.31 1.56 -1.15 -0.59 210
0.35 -0.03 2.59 -2.28 13.39 1.66 -1.39 -0.66 217
0.33 -0.03 3.50 -2.65 13.56 1.72 -1.54 -0.78 223
0.31 -0.02 3.43 -2.47 13.41 1.77 -1.69 -0.90 229
0.29 -0.01 4.08 -3.26 13.22 1.80 -1.81 -1.04 236
0.24 -0.01 4.17 -3.16 12.91 1.80 -1.92 -1.19 242
0.22 -0.02 4.06 -3.26 12.48 1.79 -1.97 -1.36 248
0.18 -0.01 4.57 -3.59 13.03 1.75 -1.94 -1.51 254
0.15 -0.01 4.89 -4.69 13.22 1.73 -1.87 -1.69 261
0.09 -0.01 5.21 -4.04 13.46 1.70 -1.75 -1.88 267
0.07 -0.01 5.52 -4.20 12.45 1.64 -1.62 -2.06 273
0.08 -0.01 6.21 -3.98 11.54 1.57 -1.51 -2.23 280
0.08 -0.01 5.53 -3.83 11.29 1.50 -1.35 -2.43 286
0.06 -0.01 6.34 -2.66 12.25 1.41 -1.29 -2.59 292
0.07 -0.00 4.50 -3.72 12.92 1.30 -1.28 -2.73 299
0.06 -0.01 4.05 -2.97 13.49 1.16 -1.49 -2.86 305
0.06 -0.01 2.86 -2.65 13.11 0.97 -1.84 -2.99 311
0.06 -0.01 1.66 -2.01 11.80 0.74 -2.20 -3.07 317
0.05 -0.01 1.52 -0.99 10.23 0.52 -2.47 -3.07 323
0.05 -0.00 2.64 -0.15 8.83 0.27 -2.70 -2.98 329
0.04 -0.00 4.28 0.22 7.74 0.07 -2.88 -2.74 336
0.03 -0.00 8.39 0.87 7.90 -0.06 -2.93 -2.30 343
0.04 -0.00 10.32 -0.11 8.20 -0.13 -2.68 -1.60 349
0.07 -0.01 16.42 0.14 8.77 -0.23 -1.97 -0.36 355
0.03 -0.00 17.04 0.80 9.90 -0.32 -0.95 0.60 361
0.03 -0.00 16.69 0.59 9.18 -0.64 -0.29 1.28 367
0.03 -0.00 13.41 -0.03 8.55 -0.98 0.27 1.78 373
0.04 -0.00 9.76 -0.16 8.46 -1.08 0.66 2.21 379
0.03 -0.00 7.22 -0.91 7.54 -1.04 0.88 2.46 386
0.03 -0.00 5.56 -1.59 6.58 -0.97 0.95 2.54 392
0.04 -0.00 4.87 -1.91 6.42 -0.86 0.99 2.48 398
0.04 -0.00 3.99 -1.98 6.73 -0.74 1.10 2.40 404
0.05 0.00 3.19 -1.68 7.27 -0.61 1.29 2.26 410
0.05 -0.00 2.36 -1.29 7.72 -0.53 1.46 2.11 416
0.05 -0.01 1.45 -0.86 8.32 -0.46 1.58 1.94 422
0.04 -0.00 0.73 -0.55 9.16 -0.45 1.66 1.76 429
0.05 -0.01 -0.15 -0.44 9.70 -0.47 1.68 1.63 436
0.05 -0.01 -1.15 -0.36 10.37 -0.53 1.62 1.47 442
0.05 -0.00 -1.72 -0.38 10.91 -0.63 1.51 1.30 448
0.05 -0.00 -2.09 -0.40 11.23 -0.72 1.39 1.13 454
0.05 -0.00 -2.25 -0.53 11.25 -0.87 1.30 0.96 460
0.04 -0.00 -2.39 -0.75 11.34 -0.99 1.21 0.79 466
0.05 -0.01 -2.21 -1.10 11.30 -1.10 1.16 0.66 473
0.04 -0.00 -2.03 -1.34 11.01 -1.16 1.14 0.51 479
0.03 -0.00 -1.85 -1.61 10.54 -1.19 1.15 0.38 485
0.05 -0.00 -1.79 -1.92 10.01 -1.19 1.19 0.26 491
0.05 -0.00 -1.78 -2.33 9.89 -1.15 1.26 0.15 498
0.04 -0.00 -1.69 -2.54 9.79 -1.07 1.29 0.08 504
0.03 -0.00 -1.60 -2.64 9.81 -0.97 1.35 0.01 510
0.04 -0.00 -1.68 -2.62 9.70 -0.85 1.41 -0.03 517
0.06 -0.01 -1.80 -2.53 9.69 -0.71 1.44 -0.05 523
0.03 -0.00 -1.98 -2.38 9.67 -0.62 1.43 -0.05 529
0.04 -0.00 -2.22 -2.36 10.04 -0.51 1.41 -0.04 535
0.04 -0.00 -2.45 -2.24 10.23 -0.39 1.38 -0.02 541
0.04 -0.00 -2.53 -1.98 10.43 -0.29 1.37 0.01 547
0.04 -0.00 -2.80 -1.68 10.89 -0.22 1.36 0.05 553
0.04 -0.00 -3.12 -1.33 11.51 -0.17 1.34 0.09 560
0.03 -0.00 -3.28 -0.90 12.10 -0.17 1.32 0.15 566
0.03 0.00 -3.54 -0.60 12.36 -0.20 1.28 0.20 573
0.04 -0.00 -3.87 -0.36 12.56 -0.28 1.20 0.28 579
0.04 -0.00 -3.96 -0.20 12.60 -0.38 1.08 0.37 585
0.03 -0.00 -3.96 -0.09 12.40 -0.49 0.92 0.47 591
0.03 -0.00 -3.71 -0.03 11.87 -0.57 0.75 0.58 598
0.05 -0.00 -3.31 -0.11 11.37 -0.65 0.62 0.69 604
0.04 -0.00 -2.78 -0.24 10.98 -0.70 0.49 0.78 610
0.03 -0.00 -2.30 -0.43 10.64 -0.72 0.42 0.87 616
0.04 -0.00 -1.93 -0.64 10.41 -0.71 0.40 0.94 622
0.04 -0.00 -1.67 -0.97 10.16 -0.69 0.43 0.98 628
0.04 -0.00 -1.58 -1.27 10.06 -0.66 0.46 0.99 634
0.04 -0.00 -1.58 -1.54 10.08 -0.63 0.49 0.98 642
0.04 -0.00 -1.68 -1.63 10.07 -0.61 0.51 0.98 648
0.03 -0.00 -1.72 -1.67 10.07 -0.58 0.50 0.98 654
0.04 -0.00 -1.74 -1.77 10.15 -0.58 0.48 0.97 660
0.04 -0.00 -1.73 -2.11 10.04 -0.57 0.45 0.96 666
0.02 -0.00 -1.65 -2.56 10.08 -0.56 0.42 0.94 672
0.04 -0.00 -1.54 -2.95 10.18 -0.54 0.41 0.91 678
0.04 -0.00 -1.48 -3.22 10.14 -0.53 0.44 0.88 685
0.03 -0.00 -1.47 -3.49 9.98 -0.51 0.47 0.83 691
0.03 -0.00 -1.52 -3.74 9.86 -0.50 0.50 0.79 697
0.04 -0.00 -1.64 -3.83 9.81 -0.48 0.53 0.76 703
0.04 -0.00 -1.74 -3.99 9.71 -0.46 0.55 0.74 709
0.04 -0.00 -1.86 -4.01 9.50 -0.44 0.55 0.73 715
0.04 -0.00 -1.97 -4.03 9.38 -0.42 0.54 0.73 721
0.04 -0.00 -2.14 -4.09 9.24 -0.38 0.51 0.73 729
0.03 -0.00 -2.33 -4.11 9.01 -0.36 0.47 0.72 735
0.04 0.00 -2.51 -4.15 8.88 -0.33 0.45 0.71 741
0.03 -0.00 -2.61 -4.18 8.78 -0.29 0.41 0.68 747
0.03 -0.00 -2.70 -4.22 8.64 -0.26 0.38 0.66 753
0.04 -0.00 -2.91 -4.19 8.37 -0.22 0.34 0.65 759
0.03 -0.00 -3.21 -4.03 8.06 -0.20 0.28 0.65 765
0.04 -0.00 -3.36 -3.70 7.47 -0.17 0.21 0.68 772
0.04 -0.00 -3.28 -3.30 6.94 -0.14 0.11 0.72 778
0.03 -0.00 -2.87 -2.68 6.18 -0.11 -0.01 0.80 784
0.04 -0.00 -2.22 -1.98 5.29 -0.07 -0.11 0.91 790
0.03 -0.00 -1.42 -1.25 4.38 -0.03 -0.18 1.07 796
0.04 0.01 -0.71 -0.51 3.45 0.04 -0.21 1.25 802
0.03 -0.00 0.37 -0.00 2.02 0.14 -0.19 1.44 808
0.03 -0.00 1.58 0.47 1.61 0.27 -0.15 1.71 815
0.03 -0.00 -4.58 -14.36 0.87 0.62 -0.53 2.03 821
0.02 -0.00 -12.60 -16.23 7.32 2.40 -4.16 2.33 827
0.03 0.12 -11.22 -22.26 1.69 2.45 -4.27 2.49 834
0.01 0.36 -78.45 -20.23 78.47 3.95 -3.82 2.10 840
0.03 0.52 -8.29 -14.36 22.74 -0.40 -0.33 0.31 846
0.01 0.66 0.08 -3.34 13.86 -0.24 -0.27 -0.18 852
0.02 0.62 0.64 0.93 9.52 0.08 -0.07 0.12 859
0.05 0.57 2.08 1.17 9.81 0.07 0.02 0.11 866
0.05 0.56 1.09 0.49 9.90 0.07 0.02 0.14 872
0.05 0.51 0.40 -1.74 10.49 0.10 0.01 0.18 878
0.07 0.49 0.56 -1.20 9.87 0.06 -0.04 0.14 884
0.08 0.50 1.38 -0.68 9.62 -0.01 -0.07 0.18 890
0.09 0.54 0.50 -1.32 10.08 -0.05 -0.03 0.13 897
0.07 0.58 0.13 -1.46 9.97 -0.07 -0.03 0.10 903
0.06 0.65 0.49 -1.24 9.94 -0.10 -0.02 0.08 909
0.06 0.71 0.63 -1.00 10.03 -0.12 -0.03 0.06 915
0.09 0.79 0.62 -0.87 10.23 -0.11 -0.02 0.05 922
0.09 0.79 0.59 -0.70 10.24 -0.08 -0.01 0.04 928
0.06 0.89 0.59 -0.63 10.06 -0.04 0.00 0.05 934
0.06 0.85 0.66 -0.76 10.01 -0.03 0.01 0.05 941
0.07 0.85 0.73 -0.78 10.03 -0.02 0.02 0.05 947
0.05 0.87 0.73 -0.86 10.04 -0.02 0.02 0.06 953
0.06 0.83 0.72 -0.86 9.96 -0.03 0.02 0.06 959
0.08 0.90 0.78 -0.86 9.99 -0.03 0.01 0.06 965
0.08 0.86 0.79 -0.82 9.94 -0.04 0.01 0.06 971
0.07 0.88 0.80 -0.82 10.03 -0.04 0.00 0.05 977
0.08 0.89 0.76 -0.79 10.07 -0.03 -0.00 0.05 985
0.07 0.89 0.75 -0.77 10.06 -0.02 -0.00 0.05 991
0.08 0.90 0.77 -0.79 10.06 -0.02 -0.00 0.05 997
0.07 0.92 0.73 -0.78 10.00 -0.02 -0.00 0.04 1003
0.07 0.90 0.77 -0.81 9.98 -0.02 0.00 0.04 1009
0.07 0.92 0.77 -0.82 10.03 -0.02 0.00 0.04 1015
0.07 0.90 0.77 -0.78 10.06 -0.02 0.00 0.04 1021
0.06 0.88 0.76 -0.82 10.01 -0.02 -0.00 0.04 1029
0.05 0.90 0.73 -0.80 10.02 -0.02 -0.00 0.04 1035
0.06 0.90 0.77 -0.80 10.01 -0.01 -0.00 0.03 1041
0.06 0.89 0.83 -0.79 10.08 -0.01 -0.00 0.03 1047
0.05 0.91 0.75 -0.76 10.00 -0.01 -0.00 0.03 1053
0.07 0.91 0.76 -0.79 10.00 -0.01 0.00 0.03 1059
0.05 0.94 0.73 -0.78 9.99 -0.01 -0.00 0.03 1067
0.04 0.93 0.80 -0.79 9.96 -0.01 -0.00 0.03 1073
0.06 0.93 0.79 -0.78 10.00 -0.01 -0.01 0.03 1079
0.05 0.96 0.80 -0.77 10.05 -0.01 -0.00 0.03 1085
0.04 0.95 0.77 -0.78 10.00 -0.01 -0.00 0.03 1091
0.04 0.96 0.78 -0.79 10.01 -0.01 -0.01 0.03 1097
0.06 0.96 0.81 -0.79 10.00 -0.01 -0.00 0.03 1104
0.04 0.96 0.77 -0.74 9.98 -0.01 -0.00 0.03 1111
0.04 0.96 0.81 -0.77 9.99 -0.01 -0.00 0.03 1117
0.06 0.94 0.78 -0.80 9.99 -0.00 0.00 0.02 1123
0.05 0.94 0.78 -0.81 10.03 -0.01 -0.00 0.03 1129
0.04 0.94 0.80 -0.81 9.99 -0.01 -0.00 0.03 1135
0.04 0.97 0.82 -0.79 9.95 -0.01 -0.00 0.03 1141
0.03 0.94 0.83 -0.79 9.99 -0.01 -0.01 0.03 1148
0.02 0.95 0.77 -0.74 9.97 -0.01 -0.01 0.02 1155
0.02 0.96 0.79 -0.80 9.98 -0.01 -0.01 0.02 1161
0.01 0.96 0.80 -0.76 10.00 -0.01 -0.01 0.02 1167
0.00 0.95 0.78 -0.77 9.97 -0.01 -0.01 0.02 1173
0.01 0.95 0.76 -0.79 9.97 -0.01 -0.01 0.02 1179
0.02 0.96 0.77 -0.80 9.95 -0.02 -0.01 0.02 1185
0.01 0.97 0.81 -0.78 9.94 -0.01 -0.00 0.02 1191
0.01 0.96 0.83 -0.77 10.02 -0.02 -0.00 0.02 1199
0.02 0.96 0.84 -0.77 10.00 -0.02 -0.01 0.02 1205
0.02 0.95 0.81 -0.82 10.00 -0.02 -0.01 0.02 1211
0.01 0.95 0.81 -0.76 9.99 -0.02 -0.01 0.02 1217
0.02 0.97 0.82 -0.78 10.02 -0.02 -0.00 0.02 1223
0.02 0.97 0.76 -0.76 9.96 -0.02 0.00 0.03 1229
0.01 0.97 0.78 -0.76 10.00 -0.01 0.01 0.03 1236
0.01 0.99 0.80 -0.74 9.96 -0.01 0.01 0.03 1243
0.02 1.01 0.82 -0.75 9.91 -0.01 0.01 0.02 1249
0.01 1.01 0.85 -0.73 10.01 -0.01 0.01 0.02 1255
0.01 0.99 0.82 -0.77 9.99 -0.01 0.00 0.03 1261
0.02 1.00 0.86 -0.74 9.96 -0.01 -0.00 0.03 1267
0.02 0.98 0.84 -0.77 9.96 -0.01 -0.01 0.03 1273
0.02 0.99 0.85 -0.78 9.98 -0.01 -0.01 0.03 1281
0.01 1.00 0.83 -0.76 9.97 -0.01 -0.01 0.03 1287
0.03 0.98 0.86 -0.77 10.03 -0.01 -0.02 0.03 1293
0.01 0.99 0.83 -0.73 9.98 -0.01 -0.02 0.03 1299
0.01 1.01 0.84 -0.75 10.01 -0.01 -0.02 0.03 1305
0.01 1.02 0.86 -0.76 10.00 -0.01 -0.02 0.03 1311
0.01 1.00 0.82 -0.76 9.99 -0.01 -0.02 0.03 1318
0.01 1.00 0.87 -0.76 9.98 -0.01 -0.03 0.03 1325
0.01 0.99 0.85 -0.73 9.97 -0.01 -0.03 0.03 1331
0.03 0.98 0.85 -0.75 9.97 -0.01 -0.03 0.03 1337
0.02 0.98 0.85 -0.75 9.98 -0.01 -0.04 0.03 1343
0.00 1.00 0.81 -0.78 10.05 -0.01 -0.04 0.03 1349
0.01 0.98 0.83 -0.73 10.00 -0.00 -0.04 0.03 1355
0.00 0.98 0.82 -0.75 10.02 -0.01 -0.04 0.03 1362
-0.00 0.97 0.81 -0.77 10.03 -0.01 -0.03 0.03 1369
0.01 0.98 0.80 -0.78 9.98 -0.01 -0.04 0.03 1375
0.02 0.99 0.83 -0.75 9.99 -0.01 -0.03 0.03 1381
0.00 0.98 0.77 -0.77 9.95 -0.02 -0.02 0.03 1387
0.01 1.00 0.81 -0.75 9.96 -0.02 -0.03 0.03 1393
0.02 1.00 0.75 -0.73 10.01 -0.02 -0.02 0.02 1400
0.01 1.00 0.80 -0.75 9.99 -0.02 -0.02 0.02 1406
0.02 0.99 0.80 -0.74 9.97 -0.02 -0.01 0.02 1413
0.03 1.00 0.82 -0.72 10.00 -0.02 -0.01 0.02 1419
0.02 0.99 0.84 -0.75 10.00 -0.02 -0.01 0.02 1425
-0.00 0.98 0.82 -0.72 9.99 -0.01 -0.01 0.02 1431
0.01 1.00 0.84 -0.72 9.99 -0.02 -0.01 0.01 1437
0.01 0.99 0.82 -0.74 9.92 -0.01 -0.01 0.02 1444
0.02 0.98 0.82 -0.73 9.96 -0.01 -0.02 0.01 1451
0.01 0.99 0.84 -0.78 9.93 -0.01 -0.02 0.02 1457
0.01 0.99 0.83 -0.76 9.98 -0.01 -0.02 0.01 1463
0.00 0.98 0.83 -0.75 9.96 -0.01 -0.03 0.01 1469
-0.01 0.98 0.85 -0.74 9.98 -0.01 -0.03 0.01 1475
-0.00 0.99 0.83 -0.73 9.97 -0.01 -0.04 0.01 1481
0.01 0.98 0.85 -0.75 10.00 -0.01 -0.05 0.01 1488
0.00 0.97 0.88 -0.75 9.98 -0.01 -0.06 0.02 1495
0.00 0.98 0.84 -0.76 9.98 -0.01 -0.06 0.02 1501
0.02 0.98 0.82 -0.77 9.96 0.00 -0.06 0.02 1507
0.01 0.97 0.81 -0.79 9.87 0.01 -0.06 0.01 1513
0.01 0.93 0.88 -0.68 9.94 0.00 -0.06 0.01 1519
0.01 0.90 0.88 -0.69 9.90 0.01 -0.05 0.01 1525
0.03 0.85 0.83 -0.77 9.95 0.02 -0.04 0.01 1531
0.03 0.74 0.83 -0.69 9.98 0.03 -0.03 0.00 1539
0.02 0.62 0.92 -0.70 10.04 0.04 -0.02 -0.01 1545
0.04 0.54 0.93 -0.75 10.09 0.06 -0.01 -0.02 1551
0.05 0.42 0.89 -0.75 10.10 0.07 -0.01 -0.03 1557
0.05 0.35 0.85 -0.79 10.10 0.09 -0.00 -0.05 1563
0.05 0.18 0.99 -0.73 10.11 0.11 -0.01 -0.05 1569
0.06 0.09 1.06 -0.72 10.17 0.14 -0.02 -0.06 1576
0.10 0.02 0.93 -0.80 10.29 0.16 -0.04 -0.06 1583
0.12 -0.00 1.26 -0.49 10.33 0.19 -0.06 -0.08 1589
0.12 -0.01 1.19 -0.64 10.55 0.25 -0.08 -0.10 1595
0.11 -0.01 1.91 -0.97 10.84 0.35 -0.10 -0.18 1601
0.15 -0.02 2.89 -0.29 11.16 0.55 -0.11 -0.36 1608
0.19 -0.02 5.89 -1.95 12.63 0.87 -0.11 -0.73 1614
0.17 -0.02 4.61 -1.99 15.19 1.54 -0.16 -1.05 1620
0.20 -0.01 5.01 -2.91 15.53 2.22 -0.31 -1.28 1627
0.19 -0.01 6.24 -2.44 14.72 2.41 -0.65 -1.51 1633
0.17 -0.02 6.09 -3.22 13.21 2.41 -0.82 -1.75 1640
0.16 -0.01 6.86 -3.99 12.92 2.37 -0.88 -1.97 1646
0.14 -0.01 7.90 -3.79 12.54 2.32 -1.00 -2.18 1652
0.11 -0.01 8.59 -3.81 11.41 2.25 -0.99 -2.40 1658
0.08 -0.01 10.44 -3.45 11.16 2.11 -0.82 -2.61 1665
0.07 -0.01 9.24 -4.14 11.58 1.90 -0.52 -2.85 1672
0.06 -0.00 8.83 -3.10 13.28 1.64 -0.22 -3.08 1678
0.05 -0.01 9.89 -2.73 12.68 1.35 -0.08 -3.25 1684
0.05 -0.00 7.70 -3.46 10.80 1.16 -0.04 -3.44 1690
0.06 -0.01 5.98 -2.98 10.38 1.01 -0.13 -3.64 1696
0.06 -0.01 4.90 -2.43 10.40 0.84 -0.40 -3.76 1702
0.05 -0.00 5.49 -0.97 10.92 0.65 -0.66 -3.83 1710
0.04 -0.00 4.53 -0.69 10.35 0.45 -0.96 -3.91 1716
0.05 -0.00 4.65 0.16 9.15 0.21 -1.40 -4.00 1722
0.05 -0.00 5.30 2.60 8.10 -0.02 -1.71 -3.98 1728
0.04 -0.00 5.79 4.11 7.46 -0.19 -1.94 -3.85 1734
0.04 -0.00 7.27 4.85 7.64 -0.29 -2.00 -3.56 1740
0.05 -0.01 12.08 4.64 6.38 -0.34 -1.86 -2.88 1746
0.04 -0.00 12.35 3.89 6.62 -0.32 -1.33 -1.93 1753
0.03 -0.00 13.97 3.71 8.21 -0.39 -0.71 -1.16 1760
0.05 0.00 14.29 3.41 7.22 -0.63 -0.26 -0.60 1766
0.05 -0.00 12.79 3.04 6.46 -0.73 0.14 -0.20 1772
0.04 -0.00 10.95 2.41 6.94 -0.78 0.53 0.08 1778
0.04 -0.00 8.91 1.60 6.70 -0.74 0.99 0.28 1784
0.05 -0.00 7.11 0.61 6.90 -0.63 1.34 0.35 1790
0.04 -0.00 5.75 0.06 7.46 -0.51 1.53 0.36 1797
0.03 -0.00 4.56 -0.14 8.56 -0.40 1.60 0.28 1804
0.05 -0.00 3.43 -0.12 9.63 -0.34 1.61 0.15 1810
0.06 -0.01 1.93 0.14 10.49 -0.34 1.54 0.01 1816
0.04 -0.00 1.92 0.60 11.06 -0.38 1.51 -0.12 1822
0.04 -0.00 1.56 0.98 11.42 -0.48 1.39 -0.26 1828
0.04 0.01 1.56 1.26 11.62 -0.61 1.26 -0.31 1835
0.04 -0.00 1.41 1.16 11.67 -0.75 1.18 -0.37 1841
0.04 -0.00 1.41 0.80 11.50 -0.87 1.18 -0.42 1848
0.05 0.00 1.43 0.30 11.34 -0.96 1.22 -0.46 1854
0.04 -0.00 1.33 -0.19 11.30 -1.01 1.28 -0.52 1860
0.04 -0.00 1.06 -0.48 11.20 -1.04 1.35 -0.57 1866
0.04 0.00 0.75 -0.79 11.14 -1.04 1.43 -0.59 1872
0.04 -0.00 0.58 -0.85 10.93 -1.02 1.48 -0.59 1879
0.03 -0.00 0.51 -0.87 10.89 -0.99 1.52 -0.55 1886
0.05 -0.00 0.62 -0.86 11.04 -0.96 1.52 -0.47 1892
0.05 -0.01 0.79 -0.82 11.25 -0.92 1.54 -0.41 1898
0.04 -0.00 0.95 -0.83 11.44 -0.88 1.56 -0.27 1904
0.03 -0.00 1.04 -0.85 11.41 -0.85 1.56 -0.08 1910
0.04 -0.00 1.18 -0.93 11.58 -0.82 1.54 0.13 1916
0.03 -0.00 1.20 -1.20 11.80 -0.80 1.50 0.37 1923
0.03 -0.00 1.05 -1.58 11.99 -0.77 1.44 0.61 1930
0.03 0.01 0.96 -1.79 12.04 -0.76 1.35 0.82 1936
0.03 -0.00 0.94 -2.05 12.01 -0.77 1.31 1.01 1942
0.04 -0.00 0.85 -3.00 11.77 -0.77 1.30 1.18 1948
0.04 -0.00 0.58 -3.01 11.58 -0.77 1.33 1.29 1954
0.05 -0.00 0.07 -3.54 11.28 -0.75 1.37 1.42 1960
0.03 -0.00 -0.56 -4.02 11.02 -0.70 1.39 1.52 1968
0.03 -0.00 -1.23 -4.37 10.81 -0.62 1.40 1.60 1974
0.04 -0.00 -1.61 -4.60 10.92 -0.55 1.41 1.63 1980
0.04 -0.00 -2.00 -4.79 11.08 -0.50 1.41 1.63 1986
0.03 -0.00 -2.59 -4.94 10.80 -0.47 1.39 1.58 1992
0.04 0.00 -3.30 -5.17 10.41 -0.45 1.33 1.50 1998
0.04 -0.00 -3.82 -5.40 10.09 -0.44 1.22 1.39 2006
0.03 -0.00 -4.20 -5.65 9.83 -0.41 1.09 1.28 2012
0.04 -0.00 -4.51 -6.05 9.51 -0.37 0.96 1.12 2018
0.04 -0.00 -4.66 -6.66 9.13 -0.31 0.88 0.95 2024
0.03 -0.00 -4.71 -7.09 8.95 -0.23 0.82 0.81 2030
0.02 -0.00 -4.65 -7.14 8.88 -0.16 0.79 0.72 2036
0.03 -0.00 -4.60 -6.81 8.65 -0.06 0.78 0.71 2042
0.05 -0.00 -4.62 -6.40 8.22 0.03 0.77 0.80 2049
0.03 -0.00 -4.82 -5.66 7.89 0.12 0.77 0.91 2055
0.03 -0.00 -5.20 -4.55 7.37 0.21 0.77 1.12 2061
0.03 -0.00 -5.88 -3.20 6.55 0.30 0.81 1.40 2068
0.04 -0.00 -6.86 -1.96 5.92 0.38 0.87 1.71 2074
0.03 -0.00 -7.45 -1.15 5.90 0.47 0.92 2.01 2080
0.03 -0.00 -8.61 -2.90 5.93 0.54 0.90 2.30 2086
0.03 -0.00 -37.56 -9.00 21.98 1.65 -3.71 2.85 2093
0.04 0.00 -23.39 -7.42 -0.64 1.33 -4.27 3.45 2099
0.03 -0.00 -8.95 -13.02 -3.74 0.95 -4.28 3.29 2105
0.04 0.08 -12.85 5.57 23.60 1.23 -4.28 2.56 2112
0.02 0.38 -36.75 -21.81 58.09 1.79 -3.36 1.80 2118
0.01 0.62 -6.60 2.14 16.90 0.36 -2.25 0.43 2124
0.02 0.73 -5.17 1.98 18.46 0.22 -1.26 0.09 2130
0.03 0.70 -0.65 2.18 9.94 -0.01 -0.07 0.03 2138
0.01 0.59 1.75 0.80 7.08 0.21 -0.12 0.01 2144
0.01 0.49 3.69 -0.94 9.59 0.50 -0.74 0.09 2150
0.02 0.37 2.55 -0.80 11.24 0.37 -0.54 0.35 2156
0.02 0.35 0.75 -1.04 10.02 0.15 -0.27 0.37 2162
0.04 0.33 -0.66 -1.52 10.11 0.06 -0.21 0.25 2169
0.04 0.32 -0.25 -1.28 9.87 0.03 -0.14 0.16 2176
0.03 0.33 0.07 -1.15 10.22 -0.01 -0.08 0.12 2182
0.07 0.35 0.06 -1.33 10.14 -0.03 -0.06 0.07 2188
0.06 0.35 0.25 -0.91 10.11 -0.04 -0.03 0.09 2194
0.05 0.36 0.74 -0.73 10.20 -0.05 -0.02 0.07 2200
0.06 0.38 0.76 -0.67 10.21 -0.04 -0.01 0.06 2207
0.06 0.37 0.59 -0.67 10.10 -0.02 0.01 0.05 2213
0.07 0.38 0.51 -0.69 10.11 -0.01 0.04 0.06 2220
0.09 0.38 0.57 -0.72 10.02 -0.01 0.06 0.08 2226
0.10 0.34 0.69 -0.81 10.07 -0.01 0.08 0.10 2232
0.11 0.34 0.79 -0.78 10.01 -0.01 0.09 0.10 2239
0.11 0.33 0.89 -0.82 10.09 -0.01 0.09 0.10 2245
0.10 0.29 0.89 -0.77 10.03 -0.01 0.08 0.09 2251
0.11 0.28 0.79 -0.78 10.04 -0.00 0.08 0.09 2257
0.13 0.29 0.82 -0.74 10.05 0.00 0.08 0.08 2264
0.10 0.29 0.82 -0.76 10.03 0.01 0.07 0.08 2271
0.11 0.26 0.88 -0.74 10.10 0.01 0.07 0.08 2277
0.12 0.27 0.92 -0.76 10.05 0.02 0.06 0.08 2283
0.12 0.24 0.96 -0.77 9.99 0.02 0.05 0.07 2289
0.12 0.22 0.95 -0.77 9.99 0.01 0.04 0.07 2295
0.11 0.22 0.88 -0.71 9.98 0.01 0.03 0.07 2301
0.12 0.19 0.91 -0.78 9.96 0.01 0.02 0.07 2308
0.12 0.21 0.89 -0.74 10.02 0.01 0.02 0.07 2315
0.12 0.21 0.84 -0.78 10.01 0.00 0.03 0.07 2321
0.12 0.21 0.88 -0.73 9.99 0.00 0.03 0.07 2327
0.12 0.21 0.86 -0.79 9.97 0.00 0.03 0.07 2333
0.14 0.18 0.89 -0.73 9.97 0.00 0.04 0.07 2339
0.14 0.15 0.92 -0.73 10.03 0.00 0.04 0.07 2345
0.13 0.16 0.92 -0.72 9.97 0.01 0.04 0.07 2353
0.12 0.19 0.93 -0.72 10.00 0.01 0.04 0.07 2359
0.13 0.19 0.92 -0.73 9.97 0.01 0.03 0.07 2365
0.13 0.12 0.97 -0.75 9.98 0.01 0.02 0.07 2371
0.13 0.12 0.91 -0.76 9.95 -0.00 0.02 0.07 2377
0.13 0.19 0.96 -0.77 10.00 -0.00 0.02 0.06 2383
0.14 0.16 0.93 -0.79 9.93 -0.00 0.02 0.06 2390
0.12 0.16 0.96 -0.76 10.06 -0.00 0.02 0.06 2397
0.14 0.15 0.96 -0.76 9.95 0.00 0.02 0.05 2403
0.17 0.13 0.97 -0.74 10.02 0.01 0.02 0.05 2409
0.16 0.11 0.95 -0.73 9.98 0.00 0.02 0.05 2415
0.14 0.14 0.94 -0.77 9.99 0.01 0.03 0.05 2421
0.14 0.11 0.92 -0.81 9.87 0.00 0.03 0.05 2427
0.16 0.09 0.98 -0.74 9.95 0.01 0.03 0.05 2434
0.14 0.07 0.97 -0.79 9.98 0.01 0.03 0.06 2440
0.13 0.08 1.00 -0.75 9.96 0.01 0.03 0.05 2447
0.14 0.10 0.97 -0.77 9.99 0.01 0.03 0.05 2453
0.14 0.07 0.97 -0.76 10.02 0.01 0.03 0.05 2459
0.13 0.08 0.93 -0.80 9.99 0.01 0.03 0.05 2465
0.14 0.09 0.96 -0.78 9.97 0.01 0.03 0.05 2471
0.14 0.08 1.02 -0.76 10.01 0.01 0.03 0.06 2478
0.13 0.06 1.00 -0.78 10.03 0.01 0.03 0.06 2484
0.11 0.08 0.97 -0.76 9.99 0.01 0.03 0.06 2491
0.12 0.07 0.99 -0.78 10.00 0.01 0.03 0.06 2497
0.13 0.04 1.03 -0.77 9.98 0.01 0.02 0.06 2503
0.13 0.03 1.07 -0.76 9.94 0.00 0.01 0.05 2509
0.13 0.04 1.10 -0.77 9.93 0.00 0.00 0.05 2515
0.12 0.05 1.08 -0.78 9.96 0.00 -0.00 0.05 2522
0.11 0.01 1.07 -0.74 10.02 0.00 -0.01 0.04 2528
0.11 0.02 1.05 -0.76 9.93 -0.00 -0.02 0.04 2535
0.12 0.04 1.04 -0.79 9.98 -0.00 -0.02 0.03 2541
0.12 0.02 1.03 -0.78 9.92 -0.00 -0.02 0.03 2547
0.12 0.01 1.05 -0.78 9.94 -0.01 -0.02 0.03 2553
0.12 0.02 1.03 -0.78 9.96 -0.01 -0.01 0.03 2560
0.12 0.05 1.03 -0.77 9.97 -0.01 -0.01 0.03 2566
0.12 0.04 1.03 -0.73 10.02 -0.01 -0.00 0.03 2572
0.09 0.03 1.03 -0.76 9.94 -0.00 0.00 0.03 2578
0.10 0.03 1.03 -0.76 9.98 -0.00 0.00 0.03 2585
0.11 0.05 1.02 -0.78 9.96 -0.00 0.00 0.03 2591
0.10 0.05 1.02 -0.79 9.95 -0.00 0.01 0.03 2597
0.09 0.03 1.03 -0.80 9.95 -0.00 0.01 0.03 2604
0.10 0.04 1.05 -0.77 9.94 -0.01 0.00 0.03 2610
0.11 0.04 1.08 -0.80 9.92 -0.00 0.01 0.02 2616
0.11 0.03 1.08 -0.76 9.95 -0.00 0.00 0.02 2622
0.08 0.03 1.09 -0.75 9.95 -0.01 -0.00 0.02 2628
0.09 0.03 1.08 -0.75 9.93 -0.01 -0.01 0.02 2634
0.09 0.02 1.08 -0.77 9.91 -0.01 -0.01 0.02 2641
0.08 0.01 1.07 -0.78 9.90 -0.02 -0.02 0.01 2648
0.07 0.02 1.07 -0.80 9.96 -0.02 -0.02 0.02 2654
0.07 0.02 1.04 -0.81 9.93 -0.03 -0.02 0.01 2660
0.07 0.02 1.08 -0.81 9.95 -0.03 -0.02 0.02 2666
0.07 0.01 1.05 -0.79 9.97 -0.03 -0.01 0.01 2672
0.07 0.02 1.09 -0.74 10.00 -0.02 -0.01 0.01 2678
0.08 0.03 1.07 -0.74 9.99 -0.02 -0.01 0.01 2685
0.07 0.03 1.09 -0.74 9.97 -0.01 -0.00 0.01 2692
0.06 0.03 1.07 -0.74 9.95 -0.01 -0.00 0.01 2698
0.07 0.03 1.06 -0.77 9.97 -0.01 0.00 0.01 2704
0.08 0.02 1.08 -0.75 9.97 -0.00 0.00 0.01 2710
0.06 0.01 1.10 -0.76 9.89 -0.01 -0.00 0.01 2716
0.06 0.02 1.10 -0.80 9.95 -0.02 -0.01 0.01 2722
0.06 0.04 1.04 -0.75 9.95 -0.02 -0.01 0.01 2728
0.07 0.01 1.11 -0.78 9.94 -0.02 -0.02 0.01 2735
0.06 0.01 1.09 -0.77 9.90 -0.02 -0.02 0.00 2742
0.05 0.03 1.07 -0.77 9.95 -0.03 -0.02 0.00 2748
0.07 0.04 1.14 -0.77 9.92 -0.03 -0.02 0.00 2754
0.07 0.04 1.13 -0.76 9.95 -0.03 -0.03 -0.00 2760
0.07 0.02 1.14 -0.76 9.95 -0.03 -0.03 -0.00 2766
0.06 0.04 1.15 -0.75 9.94 -0.03 -0.04 -0.01 2772
0.07 0.05 1.14 -0.76 9.96 -0.04 -0.05 -0.01 2779
0.05 0.05 1.11 -0.74 9.97 -0.04 -0.06 -0.01 2785
0.04 0.05 1.09 -0.74 9.99 -0.04 -0.06 -0.01 2792
0.05 0.08 1.12 -0.79 9.96 -0.05 -0.07 -0.01 2798
0.07 0.07 1.11 -0.75 9.93 -0.05 -0.07 -0.01 2804
0.07 0.05 1.07 -0.75 9.97 -0.05 -0.07 -0.00 2810
0.07 0.09 1.04 -0.72 9.95 -0.04 -0.07 -0.00 2817
0.08 0.09 1.10 -0.75 9.96 -0.03 -0.07 -0.00 2823
0.06 0.11 1.09 -0.70 9.95 -0.03 -0.08 0.00 2829
0.06 0.10 1.05 -0.73 9.98 -0.02 -0.08 0.00 2836
0.07 0.13 1.02 -0.74 9.95 -0.02 -0.09 0.00 2842
0.07 0.11 1.07 -0.72 9.95 -0.02 -0.10 0.00 2848
0.06 0.08 1.08 -0.74 9.99 -0.02 -0.10 0.00 2854
0.06 0.11 1.04 -0.74 10.01 -0.02 -0.10 0.00 2861
0.08 0.13 1.02 -0.73 9.95 -0.03 -0.10 0.00 2867
0.08 0.12 1.05 -0.72 9.94 -0.03 -0.09 0.00 2873
0.07 0.13 1.03 -0.71 10.01 -0.02 -0.10 0.00 2880
0.06 0.18 1.01 -0.71 9.97 -0.02 -0.09 0.01 2886
0.06 0.14 1.02 -0.71 9.98 -0.01 -0.09 0.01 2892
0.07 0.14 1.03 -0.72 9.89 -0.01 -0.10 0.01 2898
0.06 0.15 1.02 -0.73 10.00 -0.01 -0.10 0.01 2905
0.07 0.17 1.05 -0.74 9.96 -0.00 -0.10 0.01 2911
0.05 0.16 1.03 -0.80 9.96 -0.00 -0.10 0.01 2917
0.05 0.15 1.02 -0.74 9.98 -0.01 -0.10 0.01 2923
0.06 0.15 1.00 -0.73 9.96 -0.00 -0.09 0.01 2930
0.05 0.14 0.94 -0.73 10.00 -0.01 -0.09 0.01 2936
0.06 0.11 0.97 -0.76 10.00 -0.00 -0.08 0.01 2942
0.05 0.11 0.95 -0.75 9.99 0.00 -0.08 0.01 2949
0.07 0.10 0.98 -0.74 9.97 0.00 -0.07 0.01 2955
0.06 0.11 0.97 -0.74 9.99 0.01 -0.08 0.01 2961
0.04 0.10 0.99 -0.74 9.99 0.01 -0.07 0.01 2967
0.07 0.09 1.02 -0.74 10.02 0.02 -0.07 0.01 2974
0.09 0.05 0.98 -0.76 10.03 0.01 -0.07 0.01 2980
0.07 0.06 0.99 -0.74 9.97 0.02 -0.08 0.01 2987
0.08 0.06 0.99 -0.80 10.05 0.02 -0.08 0.01 2993
0.07 0.03 1.01 -0.77 10.04 0.03 -0.08 0.00 2999
0.07 0.01 1.00 -0.78 9.99 0.03 -0.08 0.00 3005
0.07 0.01 1.01 -0.78 10.01 0.04 -0.08 0.00 3012
0.10 0.01 0.99 -0.73 10.04 0.05 -0.08 -0.00 3018
0.09 0.00 1.06 -0.74 10.09 0.06 -0.08 -0.01 3024
0.07 -0.01 1.08 -0.77 10.14 0.08 -0.09 -0.02 3031
0.08 -0.00 1.06 -0.81 10.22 0.10 -0.09 -0.03 3037
0.09 -0.01 1.15 -0.78 10.30 0.16 -0.11 -0.05 3043
0.08 -0.01 1.18 -0.75 10.34 0.17 -0.13 -0.08 3050
0.09 0.00 1.49 -0.93 10.42 0.24 -0.14 -0.15 3056
0.10 -0.01 2.37 -0.93 10.97 0.35 -0.15 -0.25 3062
0.14 -0.01 2.03 -0.96 11.41 0.55 -0.15 -0.38 3068
0.12 -0.01 2.04 -1.84 12.83 0.91 -0.13 -0.50 3075
0.12 -0.01 2.15 -1.43 13.17 1.44 -0.12 -0.54 3081
0.14 -0.01 2.31 -1.53 13.04 1.79 -0.22 -0.62 3088
0.15 -0.01 3.00 -1.57 13.24 1.93 -0.34 -0.69 3094
0.15 -0.02 2.92 -1.70 13.37 2.04 -0.51 -0.77 3100
0.14 -0.01 3.37 -2.01 13.26 2.13 -0.68 -0.84 3106
0.15 -0.01 3.51 -2.45 12.76 2.19 -0.84 -0.91 3112
0.18 -0.02 4.31 -2.98 12.38 2.20 -1.00 -1.02 3120
0.12 -0.01 4.73 -3.00 11.60 2.18 -1.07 -1.17 3126
0.13 0.00 5.34 -3.66 11.87 2.12 -1.15 -1.31 3132
0.09 -0.01 6.74 -3.25 10.44 2.02 -1.09 -1.48 3138
0.10 -0.01 8.22 -4.86 10.87 1.88 -0.94 -1.68 3144
0.07 0.00 8.46 -4.79 11.86 1.68 -0.74 -1.94 3151
0.06 -0.01 9.22 -4.86 12.21 1.55 -0.51 -2.25 3158
0.03 -0.00 8.74 -4.91 12.20 1.40 -0.32 -2.49 3164
0.05 0.00 8.12 -4.34 12.35 1.28 -0.25 -2.78 3170
0.04 -0.00 7.21 -4.06 12.86 1.15 -0.21 -3.02 3176
0.04 -0.00 7.12 -4.05 13.19 0.99 -0.22 -3.22 3182
0.05 -0.01 6.78 -3.20 13.21 0.83 -0.39 -3.40 3189
0.06 -0.01 6.56 -2.12 12.03 0.63 -0.64 -3.53 3195
0.05 -0.00 5.99 -1.22 10.74 0.41 -1.03 -3.64 3202
0.04 -0.00 4.99 1.14 8.93 0.05 -1.40 -3.65 3208
0.06 -0.01 5.20 4.43 6.82 -0.27 -1.56 -3.44 3214
0.03 -0.00 9.34 6.50 6.54 -0.49 -1.77 -3.02 3220
0.03 -0.00 13.19 4.55 5.35 -0.62 -1.88 -2.13 3226
0.04 0.00 13.81 2.75 8.08 -0.65 -1.80 -1.27 3233
0.04 -0.00 15.27 2.31 10.36 -0.98 -1.52 -0.65 3239
0.02 -0.00 14.63 2.67 7.80 -1.28 -1.18 -0.14 3246
0.03 -0.00 13.18 2.61 7.24 -1.35 -0.71 0.27 3252
0.03 -0.00 11.57 1.87 6.09 -1.27 -0.22 0.58 3258
0.04 -0.00 10.29 0.92 5.40 -1.15 0.18 0.78 3264
0.03 -0.00 9.38 0.39 5.46 -0.94 0.45 0.90 3271
0.05 -0.00 8.44 0.42 5.96 -0.72 0.75 0.94 3277
0.04 -0.00 7.58 0.69 6.34 -0.52 1.05 0.95 3283
0.05 -0.00 6.77 0.99 7.07 -0.36 1.32 0.92 3290
0.05 -0.01 5.92 1.28 7.92 -0.28 1.53 0.86 3296
0.06 -0.01 5.12 1.54 8.88 -0.26 1.69 0.79 3302
0.05 -0.00 3.80 1.73 9.81 -0.29 1.77 0.72 3308
0.05 -0.00 3.54 1.92 10.47 -0.34 1.82 0.66 3314
0.04 -0.00 2.82 2.12 11.58 -0.43 1.82 0.61 3320
0.05 -0.00 2.35 2.21 11.37 -0.54 1.80 0.56 3328
0.04 -0.00 1.88 2.19 11.61 -0.67 1.78 0.52 3334
0.04 -0.00 1.56 2.05 11.88 -0.81 1.76 0.49 3340
0.03 -0.00 1.31 1.70 11.92 -0.91 1.73 0.48 3346
0.04 -0.00 1.09 1.28 11.80 -1.01 1.71 0.48 3352
0.04 -0.00 0.91 0.85 11.39 -1.08 1.69 0.47 3358
0.04 0.00 0.66 0.20 11.13 -1.12 1.66 0.47 3365
0.05 -0.01 0.54 -0.32 11.01 -1.11 1.66 0.45 3372
0.04 -0.00 0.50 -0.90 11.16 -1.08 1.67 0.42 3378
0.03 -0.00 0.54 -1.43 11.38 -1.03 1.71 0.41 3384
0.04 -0.00 0.40 -1.70 11.48 -0.97 1.74 0.41 3390
0.04 -0.00 0.24 -2.00 11.41 -0.90 1.76 0.46 3396
0.03 -0.00 0.11 -2.26 11.40 -0.80 1.75 0.53 3402
0.05 -0.00 0.00 -2.49 11.41 -0.75 1.71 0.65 3409
0.04 -0.00 -0.22 -2.53 11.40 -0.65 1.66 0.80 3416
0.03 -0.00 -0.41 -2.57 11.46 -0.54 1.60 0.99 3422
0.04 -0.00 -0.62 -2.59 11.55 -0.44 1.54 1.14 3428
0.04 -0.00 -1.03 -2.68 11.80 -0.35 1.49 1.33 3434
0.04 -0.00 -1.37 -2.71 12.19 -0.28 1.43 1.51 3440
0.03 -0.00 -1.77 -2.82 12.53 -0.26 1.38 1.68 3446
0.05 -0.00 -2.13 -3.10 12.89 -0.26 1.31 1.83 3453
0.03 -0.00 -2.48 -3.52 13.08 -0.29 1.21 1.96 3460
0.03 -0.00 -2.83 -4.00 13.12 -0.34 1.07 2.07 3466
0.03 -0.00 -2.95 -4.53 12.97 -0.41 0.89 2.15 3472
0.02 -0.00 -3.07 -5.12 12.39 -0.48 0.75 2.19 3478
0.02 -0.00 -3.14 -5.56 11.57 -0.53 0.60 2.21 3484
0.02 0.01 -3.17 -6.18 10.51 -0.53 0.49 2.18 3491
0.03 -0.00 -3.09 -6.76 9.21 -0.49 0.41 2.12 3497
0.02 -0.00 -2.86 -7.12 9.06 -0.40 0.37 2.03 3504
0.03 -0.00 -2.58 -7.35 8.50 -0.27 0.38 1.90 3510
0.04 -0.00 -2.40 -7.30 8.24 -0.11 0.42 1.76 3516
0.03 -0.00 -2.26 -7.18 8.15 0.00 0.48 1.61 3522
0.03 -0.00 -2.17 -6.90 8.11 0.12 0.53 1.45 3528
0.02 -0.00 -2.38 -6.60 8.02 0.22 0.56 1.34 3534
0.05 -0.00 -2.44 -6.36 8.15 0.30 0.55 1.23 3540
0.03 -0.00 -2.29 -6.13 8.42 0.35 0.48 1.12 3548
0.03 -0.00 -1.84 -5.79 8.75 0.36 0.38 1.03 3554
0.03 -0.00 -3.52 -7.31 9.99 0.36 0.14 0.99 3560
0.04 -0.00 -11.06 -9.35 14.69 0.61 -1.14 1.11 3566
0.02 -0.00 -9.63 -5.97 9.01 0.60 -2.07 1.31 3572
0.01 -0.00 -4.61 -3.89 3.57 0.51 -2.57 1.45 3578
0.03 -0.00 -7.40 -9.25 6.32 0.36 -3.43 1.61 3585
0.03 -0.00 -9.30 -10.70 5.67 0.22 -3.99 1.78 3592
0.02 -0.00 -10.72 -11.57 3.60 0.14 -4.28 1.94 3598
0.04 0.04 -16.31 -27.69 4.58 0.59 -4.28 2.18 3604
0.03 0.26 -28.92 -20.05 40.45 2.06 -3.47 2.72 3610
0.02 0.41 -24.14 -2.75 23.35 0.84 -2.62 1.80 3617
0.02 0.52 -7.86 -2.59 17.49 0.08 -0.69 0.31 3623
0.02 0.55 -2.40 1.36 10.30 -0.10 -0.20 -0.03 3630
0.02 0.51 1.74 0.62 9.12 -0.01 -0.08 -0.05 3636
0.01 0.47 3.03 -1.13 9.48 0.10 -0.14 0.18 3642
0.04 0.42 1.17 -0.18 10.29 0.13 -0.14 0.33 3649
0.06 0.41 0.14 -1.10 10.56 0.05 -0.26 0.22 3655
0.08 0.41 0.78 -1.18 9.91 0.00 -0.26 0.21 3661
0.06 0.43 0.47 -1.52 9.99 -0.01 -0.20 0.18 3667
0.07 0.46 0.13 -1.61 9.80 -0.06 -0.17 0.12 3674
0.10 0.46 -0.07 -1.38 10.19 -0.08 -0.12 0.08 3680
0.11 0.43 0.13 -1.00 10.15 -0.11 -0.09 0.06 3687
0.11 0.51 0.38 -0.75 10.21 -0.11 -0.08 0.06 3693
0.13 0.60 0.61 -0.61 10.22 -0.08 -0.07 0.06 3699
0.13 0.58 0.65 -0.63 10.09 -0.06 -0.05 0.06 3705
0.13 0.63 0.62 -0.64 10.04 -0.04 -0.04 0.05 3712
0.13 0.62 0.62 -0.66 9.93 -0.03 -0.03 0.05 3719
0.13 0.62 0.56 -0.75 10.02 -0.03 -0.02 0.05 3725
0.12 0.63 0.67 -0.74 9.92 -0.03 -0.02 0.05 3731
0.16 0.56 0.63 -0.81 9.96 -0.03 -0.01 0.05 3737
0.16 0.53 0.66 -0.78 10.19 -0.03 -0.01 0.05 3743
0.18 0.55 0.69 -0.72 10.12 -0.03 -0.01 0.04 3750
0.18 0.55 0.70 -0.72 10.08 -0.02 -0.01 0.04 3757
0.19 0.54 0.64 -0.73 10.09 -0.02 -0.02 0.05 3763
0.17 0.53 0.68 -0.76 10.00 -0.02 -0.01 0.05 3769
0.21 0.52 0.67 -0.76 10.04 -0.02 -0.01 0.04 3775
0.21 0.51 0.69 -0.79 10.01 -0.02 -0.02 0.04 3782
0.23 0.52 0.69 -0.71 10.04 -0.02 -0.02 0.04 3788
0.24 0.52 0.67 -0.74 9.89 -0.02 -0.02 0.04 3794
0.24 0.50 0.69 -0.72 10.05 -0.02 -0.02 0.03 3801
0.24 0.51 0.68 -0.74 10.05 -0.02 -0.02 0.04 3807
0.23 0.51 0.66 -0.75 10.12 -0.02 -0.02 0.04 3813
0.23 0.50 0.71 -0.72 10.08 -0.01 -0.03 0.03 3820
0.23 0.50 0.66 -0.74 10.04 -0.02 -0.03 0.03 3826
0.23 0.47 0.65 -0.71 10.01 -0.01 -0.03 0.03 3832
0.21 0.49 0.67 -0.71 10.06 -0.01 -0.03 0.03 3838
0.21 0.52 0.64 -0.71 10.02 -0.01 -0.03 0.03 3845
0.20 0.50 0.66 -0.73 10.03 -0.01 -0.03 0.04 3852
0.18 0.50 0.70 -0.68 9.98 -0.01 -0.03 0.04 3858
0.19 0.53 0.68 -0.67 10.00 -0.01 -0.02 0.04 3864
0.19 0.53 0.65 -0.69 10.01 -0.01 -0.02 0.04 3870
0.18 0.52 0.70 -0.68 9.98 -0.00 -0.02 0.04 3876
0.17 0.54 0.70 -0.69 10.00 -0.01 -0.02 0.04 3883
0.17 0.53 0.65 -0.71 10.01 -0.01 -0.02 0.03 3890
0.17 0.51 0.72 -0.72 10.01 -0.01 -0.03 0.04 3896
0.17 0.52 0.67 -0.72 10.05 -0.01 -0.02 0.03 3902
0.17 0.50 0.68 -0.69 10.03 -0.01 -0.03 0.03 3908
0.14 0.46 0.66 -0.72 10.03 -0.01 -0.03 0.07 3914
0.17 0.48 0.66 -0.73 10.02 -0.01 -0.03 0.03 3921
0.17 0.47 0.64 -0.72 10.00 -0.01 -0.03 0.03 3928
0.16 0.47 0.71 -0.74 10.02 -0.01 -0.03 0.03 3934
0.16 0.47 0.70 -0.70 9.98 -0.01 -0.03 0.03 3940
0.17 0.47 0.65 -0.72 10.01 -0.01 -0.03 0.03 3946
0.15 0.46 0.66 -0.72 9.98 -0.01 -0.02 0.03 3952
0.16 0.47 0.66 -0.71 9.98 -0.01 -0.03 0.03 3959
0.17 0.46 0.66 -0.73 9.96 -0.01 -0.02 0.03 3965
0.17 0.45 0.68 -0.74 9.99 -0.01 -0.02 0.03 3972
0.16 0.45 0.65 -0.72 9.96 -0.01 -0.02 0.03 3978
0.18 0.45 0.65 -0.70 10.01 -0.01 -0.02 0.03 3984
0.16 0.46 0.66 -0.69 10.01 -0.01 -0.02 0.03 3990
0.16 0.45 0.65 -0.75 9.97 -0.01 -0.01 0.03 3997
0.18 0.47 0.68 -0.73 10.04 -0.00 -0.00 0.02 4003
0.17 0.46 0.66 -0.70 10.01 -0.01 0.00 0.02 4009
0.15 0.44 0.71 -0.69 10.00 -0.01 0.00 0.02 4016
0.15 0.46 0.67 -0.70 10.00 -0.01 0.01 0.02 4022
0.16 0.44 0.73 -0.74 10.02 -0.01 0.01 0.03 4028
0.15 0.43 0.75 -0.74 10.01 -0.01 0.00 0.02 4035
0.14 0.45 0.70 -0.72 10.05 -0.01 0.00 0.02 4041
0.15 0.43 0.67 -0.71 9.97 -0.01 0.00 0.02 4047
0.15 0.42 0.65 -0.70 9.98 -0.01 0.00 0.02 4054
0.15 0.43 0.72 -0.68 10.05 -0.01 0.00 0.02 4060
0.15 0.43 0.69 -0.69 9.97 -0.00 0.00 0.02 4066
0.15 0.43 0.74 -0.71 9.92 -0.00 0.00 0.02 4072
0.14 0.42 0.71 -0.67 10.05 0.00 0.01 0.01 4079
0.17 0.43 0.73 -0.71 10.06 0.00 0.00 0.01 4085
0.17 0.38 0.75 -0.73 9.98 0.00 0.00 0.01 4091
0.17 0.35 0.75 -0.70 10.00 0.01 -0.00 0.01 4098
0.17 0.36 0.75 -0.72 10.00 0.00 -0.00 0.01 4104
0.17 0.36 0.74 -0.69 10.01 0.00 -0.01 0.02 4110
0.17 0.33 0.76 -0.73 9.98 -0.00 -0.01 0.01 4117
0.17 0.32 0.71 -0.71 10.00 0.00 -0.01 0.01 4123
0.16 0.32 0.71 -0.69 9.99 -0.00 -0.02 0.02 4129
0.16 0.34 0.74 -0.74 9.99 -0.00 -0.02 0.02 4135
0.15 0.34 0.78 -0.72 10.01 -0.01 -0.02 0.01 4142
0.17 0.35 0.73 -0.71 10.02 -0.00 -0.03 0.02 4148
0.18 0.30 0.77 -0.70 9.98 -0.00 -0.03 0.01 4155
0.17 0.32 0.76 -0.71 9.99 -0.00 -0.03 0.02 4161
0.16 0.32 0.73 -0.71 9.98 -0.00 -0.03 0.01 4167
0.18 0.29 0.71 -0.72 9.98 -0.00 -0.03 0.01 4173
0.19 0.25 0.79 -0.72 10.00 -0.00 -0.03 0.01 4179
0.17 0.33 0.73 -0.69 9.96 -0.00 -0.03 0.01 4186
0.20 0.27 0.75 -0.70 9.97 -0.00 -0.03 0.01 4192
0.20 0.23 0.76 -0.73 9.97 -0.03 -0.03 0.01 4199
0.20 0.21 0.76 -0.74 10.01 -0.00 -0.03 0.01 4205
0.23 0.23 0.75 -0.73 10.01 -0.00 -0.03 0.01 4211
0.20 0.20 0.71 -0.74 10.03 0.00 -0.03 0.00 4217
0.17 0.19 0.74 -0.73 10.03 -0.00 -0.03 0.00 4224
0.20 0.20 0.70 -0.74 9.93 -0.00 -0.03 0.01 4230
0.20 0.17 0.74 -0.72 10.04 0.00 -0.03 0.01 4237
0.18 0.19 0.77 -0.74 10.05 0.00 -0.03 0.01 4243
0.21 0.21 0.74 -0.73 10.00 0.00 -0.03 0.01 4249
0.19 0.22 0.78 -0.73 10.03 0.01 -0.03 0.01 4255
0.18 0.18 0.77 -0.73 10.04 0.01 -0.03 0.01 4261
0.20 0.17 0.74 -0.74 10.01 0.01 -0.04 0.01 4269
0.18 0.14 0.72 -0.72 10.03 0.02 -0.03 0.01 4275
0.18 0.11 0.77 -0.73 10.06 0.02 -0.04 0.01 4281
0.21 0.09 0.77 -0.75 9.99 0.02 -0.04 0.01 4287
0.18 0.09 0.77 -0.75 9.96 0.02 -0.04 0.01 4293
0.17 0.06 0.70 -0.76 10.01 0.02 -0.04 0.01 4299
0.21 0.08 0.79 -0.73 10.06 0.02 -0.04 0.01 4306
0.24 0.05 0.74 -0.75 10.05 0.03 -0.04 0.01 4313
0.24 0.04 0.78 -0.75 10.07 0.04 -0.04 0.01 4319
0.24 0.01 0.77 -0.74 10.06 0.05 -0.03 0.01 4325
0.26 0.02 0.75 -0.76 10.09 0.06 -0.04 0.01 4331
0.25 -0.01 0.81 -0.79 10.10 0.07 -0.04 0.01 4337
0.25 -0.01 0.82 -0.80 10.14 0.09 -0.04 0.01 4344
0.25 -0.00 0.90 -0.78 10.21 0.11 -0.04 0.01 4350
0.25 -0.02 0.83 -0.85 10.33 0.14 -0.06 0.00 4357
0.25 -0.02 0.94 -0.89 10.34 0.18 -0.08 -0.00 4363
0.27 -0.03 1.17 -0.88 10.52 0.24 -0.10 -0.03 4369
0.27 -0.03 1.57 -0.87 10.81 0.33 -0.13 -0.08 4376
0.28 -0.02 2.38 -0.87 11.25 0.50 -0.17 -0.19 4382
0.36 -0.03 2.47 -1.44 12.69 0.82 -0.20 -0.34 4388
0.32 -0.03 2.28 -1.65 14.18 1.36 -0.25 -0.47 4395
0.37 -0.02 2.50 -1.46 14.05 1.80 -0.41 -0.57 4401
0.41 -0.03 2.37 -1.74 13.68 1.99 -0.62 -0.66 4408
0.39 -0.03 2.69 -1.77 13.38 2.08 -0.78 -0.73 4414
0.35 -0.02 2.67 -2.23 12.72 2.15 -0.99 -0.83 4420
0.33 -0.02 2.96 -2.50 12.96 2.22 -1.15 -0.90 4426
0.32 -0.02 3.67 -3.00 12.70 2.23 -1.30 -1.00 4433
0.33 -0.01 3.53 -3.33 12.58 2.23 -1.40 -1.11 4440
0.26 -0.03 3.66 -3.44 11.98 2.17 -1.45 -1.23 4446
0.19 -0.01 4.27 -3.71 11.61 2.11 -1.44 -1.36 4452
0.14 -0.01 5.25 -3.94 11.80 2.05 -1.43 -1.54 4458
0.11 -0.01 5.09 -4.05 12.22 1.94 -1.33 -1.70 4465
0.08 -0.00 5.84 -3.95 13.42 1.80 -1.21 -1.88 4471
0.06 -0.01 6.05 -4.21 11.41 1.74 -1.12 -2.03 4477
0.07 -0.01 5.54 -4.13 13.24 1.63 -0.97 -2.24 4484
0.07 0.00 5.88 -4.30 11.24 1.56 -0.89 -2.42 4490
0.06 -0.01 5.21 -4.88 10.25 1.43 -0.81 -2.60 4497
0.06 -0.01 4.96 -4.19 9.97 1.29 -0.77 -2.78 4503
0.06 -0.01 4.71 -3.38 10.05 1.15 -0.78 -2.94 4509
0.08 -0.01 4.06 -2.98 10.17 0.99 -0.84 -3.07 4515
0.06 -0.01 3.56 -2.23 10.09 0.84 -0.99 -3.18 4521
0.05 -0.00 2.67 -2.14 10.03 0.61 -1.26 -3.28 4528
0.06 -0.01 1.96 -1.08 9.90 0.39 -1.50 -3.34 4534
0.05 -0.01 1.36 -0.28 9.39 0.17 -1.80 -3.34 4541
0.04 -0.00 1.20 0.85 8.69 -0.03 -2.10 -3.28 4547
0.05 -0.00 0.10 1.73 7.64 -0.21 -2.29 -3.13 4553
0.06 -0.01 1.61 2.86 7.63 -0.34 -2.39 -2.89 4559
0.04 -0.00 7.03 4.45 7.45 -0.44 -2.42 -2.43 4566
0.03 -0.00 11.65 2.78 5.96 -0.56 -2.03 -1.52 4572
0.03 -0.00 12.38 1.46 8.89 -0.63 -1.45 -0.63 4578
0.03 -0.00 13.34 1.14 9.16 -0.80 -0.89 0.07 4584
0.03 -0.00 12.47 1.08 7.53 -0.97 -0.50 0.59 4591
0.04 -0.00 10.89 1.55 6.61 -1.01 -0.05 1.12 4597
0.05 -0.00 9.51 1.14 5.98 -0.94 0.45 1.53 4603
0.04 -0.00 8.27 0.32 5.79 -0.79 0.89 1.81 4610
0.03 -0.00 7.02 -0.26 6.43 -0.66 1.26 1.95 4616
0.04 0.00 5.79 -0.54 7.49 -0.50 1.55 1.96 4622
0.05 -0.00 4.41 -0.53 8.66 -0.40 1.76 1.90 4628
0.04 -0.00 3.05 -0.31 10.27 -0.37 1.92 1.75 4634
0.04 -0.00 1.94 -0.09 10.89 -0.40 1.99 1.55 4641
0.04 -0.00 1.14 0.11 11.88 -0.50 1.97 1.33 4647
0.05 -0.00 -1.05 -0.04 12.64 -0.65 1.89 1.07 4654
0.04 -0.00 -0.34 0.79 13.56 -0.88 1.88 0.72 4660
0.04 -0.00 -0.45 0.88 11.65 -1.07 1.74 0.52 4666
0.05 -0.01 -0.30 0.72 12.76 -1.14 1.71 0.36 4672
0.04 -0.00 -0.18 -0.51 10.59 -1.20 1.65 0.29 4678
0.04 -0.00 -0.33 -0.51 11.08 -1.18 1.60 0.19 4685
0.06 -0.01 -0.06 -0.62 11.17 -1.16 1.62 0.06 4691
0.04 -0.00 -0.08 -0.62 11.46 -1.10 1.72 -0.07 4698
0.03 -0.00 -0.15 -0.55 11.80 -1.02 1.86 -0.19 4704
0.04 0.00 -0.29 -0.30 11.99 -0.98 1.97 -0.28 4710
0.04 -0.00 -0.46 -0.02 12.22 -0.96 2.03 -0.33 4716
0.05 -0.00 -0.45 0.12 12.50 -0.96 2.04 -0.33 4723
0.05 -0.00 -0.18 0.20 12.88 -0.97 2.01 -0.28 4729
0.05 -0.01 0.04 0.25 12.94 -1.00 1.96 -0.22 4736
0.04 -0.00 0.12 0.10 12.71 -1.04 1.86 -0.14 4742
0.03 -0.00 0.10 -0.11 12.31 -1.08 1.77 -0.07 4748
0.05 -0.00 0.22 -0.42 12.09 -1.10 1.69 -0.01 4754
0.04 -0.00 0.28 -0.64 11.96 -1.10 1.64 0.04 4760
0.04 -0.00 0.27 -0.69 11.86 -1.04 1.62 0.10 4766
0.04 -0.00 0.26 -1.05 11.78 -1.02 1.62 0.18 4773
0.04 -0.00 -0.61 -1.29 11.70 -0.97 1.60 0.30 4780
0.04 -0.00 -0.42 -1.42 11.69 -0.91 1.52 0.41 4786
0.03 -0.00 -0.76 -1.68 11.52 -0.86 1.36 0.55 4792
0.05 -0.01 -0.91 -2.01 11.29 -0.83 1.17 0.71 4798
0.04 -0.00 -0.57 -2.33 11.08 -0.78 0.98 0.85 4804
0.03 -0.00 -0.07 -2.70 11.03 -0.72 0.84 0.99 4811
0.04 0.00 0.53 -3.07 10.89 -0.67 0.77 1.09 4817
0.04 -0.00 0.91 -3.43 10.64 -0.63 0.76 1.17 4824
0.04 -0.00 1.17 -3.73 10.43 -0.58 0.80 1.22 4830
0.04 -0.00 1.37 -4.08 10.60 -0.53 0.84 1.23 4836
0.05 -0.00 1.53 -4.25 10.60 -0.50 0.89 1.20 4842
0.04 -0.00 1.47 -4.34 10.36 -0.49 0.93 1.16 4848
0.04 -0.00 1.29 -4.44 10.19 -0.48 0.99 1.10 4855
0.05 -0.01 1.17 -4.61 9.96 -0.48 1.04 1.02 4861
0.04 -0.00 0.98 -4.91 9.65 -0.47 1.10 0.93 4868
0.04 -0.00 0.50 -5.25 8.89 -0.40 1.16 0.82 4874
0.03 -0.00 0.14 -5.34 8.56 -0.35 1.21 0.70 4880
0.04 -0.00 -0.37 -5.40 8.43 -0.22 1.30 0.55 4886
0.04 -0.00 -1.15 -5.76 8.46 -0.06 1.37 0.42 4892
0.04 -0.00 -2.20 -5.93 8.51 0.10 1.42 0.29 4898
0.02 -0.00 -3.25 -5.61 8.60 0.23 1.41 0.17 4904
0.03 -0.00 -4.20 -5.12 8.84 0.31 1.34 0.08 4912
0.03 -0.00 -4.97 -4.62 9.13 0.35 1.21 0.03 4918
0.02 -0.00 -5.39 -3.89 9.71 0.34 1.09 0.04 4924
0.03 -0.00 -5.36 -3.11 10.01 0.25 0.94 0.09 4930
0.03 -0.00 -5.34 -2.10 9.54 0.10 0.76 0.21 4936
0.04 -0.00 -5.48 -1.30 8.32 -0.07 0.56 0.36 4942
0.04 -0.00 -5.55 -0.84 6.94 -0.20 0.36 0.56 4948
0.03 -0.00 -6.76 -1.60 5.99 -0.23 0.13 0.77 4955
0.03 -0.00 -27.79 -9.49 18.50 0.42 -2.78 1.17 4961
0.02 -0.00 -17.25 -4.94 2.84 0.62 -3.90 1.58 4968
0.01 -0.00 -13.84 -6.99 -3.35 0.51 -4.28 1.76 4974
0.03 0.01 -21.67 -18.71 8.04 0.51 -4.28 1.55 4980
0.03 0.11 -31.85 -23.03 65.29 1.09 -4.28 1.42 4986
0.01 0.40 -30.24 -6.80 25.93 0.59 -2.96 0.95 4994
0.01 0.59 -5.89 -3.59 16.16 -0.06 -0.69 0.09 5000
0.00 0.59 -1.60 1.37 11.15 -0.10 -0.30 0.07 5006
0.03 0.58 1.49 2.17 9.46 -0.03 -0.08 0.07 5012
0.03 0.51 1.90 0.31 9.94 0.13 -0.08 0.17 5018
0.04 0.42 1.06 -0.15 10.36 0.17 -0.07 0.25 5025
0.04 0.42 0.23 -1.00 10.45 0.10 -0.15 0.20 5031
0.08 0.40 1.42 -0.36 9.94 0.07 -0.17 0.27 5038
0.07 0.38 0.36 -1.76 9.82 0.06 -0.16 0.27 5044
0.07 0.37 0.53 -1.43 9.65 -0.02 -0.13 0.18 5050
0.09 0.36 0.09 -1.49 9.76 -0.05 -0.10 0.14 5056
0.09 0.41 0.39 -1.17 10.05 -0.11 -0.08 0.09 5063
0.12 0.43 0.47 -0.84 10.31 -0.12 -0.06 0.06 5069
0.13 0.43 0.61 -0.58 10.29 -0.10 -0.05 0.05 5075
0.12 0.49 0.54 -0.46 10.12 -0.06 -0.04 0.05 5082
0.11 0.50 0.49 -0.61 10.12 -0.04 -0.02 0.05 5088
0.13 0.50 0.60 -0.67 10.02 -0.03 -0.00 0.06 5095
0.16 0.49 0.69 -0.81 9.99 -0.03 0.01 0.06 5101
0.15 0.49 0.68 -0.78 9.90 -0.03 0.01 0.06 5107
0.15 0.47 0.74 -0.80 9.90 -0.04 0.01 0.05 5113
0.12 0.50 0.76 -0.75 10.09 -0.05 0.01 0.05 5120
0.12 0.53 0.70 -0.70 10.14 -0.04 0.02 0.05 5126
0.14 0.54 0.75 -0.61 10.14 -0.04 0.03 0.05 5133
0.14 0.52 0.77 -0.73 10.06 -0.02 0.02 0.04 5139
0.12 0.51 1.10 -0.81 9.81 -0.02 0.02 0.04 5145
0.13 0.50 0.75 -0.71 10.09 -0.02 0.02 0.04 5151
0.12 0.50 0.74 -0.76 10.01 -0.02 0.02 0.04 5157
0.10 0.51 0.76 -0.76 10.05 -0.02 0.02 0.04 5164
0.13 0.51 0.78 -0.69 10.04 -0.02 0.02 0.04 5171
0.12 0.53 0.80 -0.73 10.05 -0.02 0.01 0.03 5177
0.11 0.51 0.76 -0.74 10.06 -0.02 0.01 0.03 5183
0.12 0.53 0.77 -0.74 10.10 -0.02 0.01 0.03 5189
0.12 0.57 0.76 -0.72 10.01 -0.02 0.01 0.03 5195
0.10 0.53 0.78 -0.73 9.94 -0.02 0.01 0.03 5202
0.10 0.53 0.79 -0.70 10.02 -0.02 0.01 0.03 5209
0.09 0.57 0.77 -0.67 10.02 -0.02 0.02 0.03 5215
0.06 0.56 0.73 -0.67 9.95 -0.01 0.02 0.03 5221
0.07 0.61 0.76 -0.69 10.00 -0.01 0.03 0.02 5227
0.07 0.58 0.76 -0.66 9.94 -0.01 0.04 0.02 5233
0.07 0.56 0.79 -0.65 10.01 -0.00 0.04 0.02 5240
0.05 0.58 0.86 -0.66 10.03 0.00 0.05 0.02 5246
0.06 0.55 0.83 -0.68 10.03 0.00 0.05 0.02 5253
0.06 0.53 0.82 -0.72 10.01 0.01 0.05 0.02 5259
0.05 0.52 0.82 -0.72 10.03 0.01 0.04 0.02 5265
0.07 0.51 0.82 -0.70 10.05 0.00 0.04 0.02 5271
0.05 0.50 0.83 -0.71 10.06 0.00 0.04 0.02 5278
0.05 0.50 0.83 -0.72 10.02 0.00 0.04 0.02 5284
0.07 0.50 0.81 -0.68 10.02 0.00 0.04 0.01 5291
0.05 0.48 0.85 -0.68 10.00 0.00 0.04 0.02 5297
0.05 0.46 0.83 -0.68 10.03 0.00 0.03 0.02 5303
0.05 0.46 0.85 -0.69 9.99 0.00 0.03 0.02 5309
0.07 0.46 0.87 -0.70 10.04 0.00 0.03 0.01 5315
0.05 0.44 0.84 -0.68 10.01 0.00 0.03 0.02 5322
0.05 0.46 0.82 -0.67 9.99 0.00 0.03 0.02 5328
0.07 0.45 0.87 -0.71 9.98 0.00 0.03 0.02 5335
0.05 0.46 0.90 -0.69 9.98 0.00 0.03 0.02 5341
0.03 0.44 0.93 -0.72 10.02 -0.00 0.03 0.02 5347
0.06 0.44 0.86 -0.68 9.90 -0.00 0.02 0.02 5353
0.06 0.43 0.90 -0.72 10.00 0.00 0.02 0.02 5359
0.06 0.43 0.86 -0.73 9.96 -0.03 0.01 0.02 5366
0.05 0.44 0.91 -0.72 9.98 -0.01 0.01 0.02 5372
0.05 0.44 0.87 -0.74 9.96 -0.01 0.00 0.02 5379
0.05 0.45 0.85 -0.69 10.02 -0.01 0.01 0.02 5385
0.04 0.46 0.89 -0.69 10.03 -0.02 0.00 0.02 5391
0.06 0.46 0.85 -0.68 9.98 -0.02 0.00 0.02 5397
0.03 0.49 0.88 -0.68 9.99 -0.02 0.00 0.02 5403
0.02 0.48 0.83 -0.67 10.01 -0.02 0.01 0.02 5410
0.04 0.49 0.89 -0.69 10.04 -0.01 0.01 0.02 5416
0.03 0.49 0.87 -0.70 10.03 -0.01 0.02 0.02 5423
0.03 0.50 0.90 -0.67 9.97 -0.01 0.01 0.02 5429
0.03 0.52 0.92 -0.70 9.96 -0.01 0.01 0.02 5435
0.04 0.52 0.93 -0.69 10.00 -0.01 0.01 0.02 5441
0.02 0.51 0.93 -0.67 9.93 -0.01 -0.00 0.01 5448
0.02 0.51 0.95 -0.64 9.92 -0.01 -0.01 0.01 5454
0.02 0.53 0.95 -0.70 9.96 -0.01 -0.02 0.01 5460
0.02 0.52 0.94 -0.69 9.99 -0.02 -0.02 0.01 5467
0.03 0.50 0.95 -0.73 9.95 -0.02 -0.03 0.01 5473
0.03 0.49 0.91 -0.72 10.03 -0.02 -0.04 0.01 5479
0.03 0.50 0.91 -0.68 10.00 -0.03 -0.04 0.01 5485
0.03 0.49 0.88 -0.67 9.99 -0.03 -0.04 0.00 5492
0.03 0.51 0.90 -0.71 10.00 -0.03 -0.04 0.00 5498
0.04 0.54 0.91 -0.70 10.02 -0.02 -0.03 0.01 5505
0.02 0.53 0.91 -0.68 10.02 -0.02 -0.02 0.01 5511
0.02 0.54 0.89 -0.67 10.03 -0.02 -0.02 0.02 5517
0.04 0.56 0.93 -0.64 9.97 -0.01 -0.01 0.02 5523
0.02 0.57 0.92 -0.67 9.96 -0.01 -0.01 0.02 5530
0.02 0.56 0.91 -0.68 9.89 -0.01 -0.02 0.02 5536
0.02 0.57 0.96 -0.67 9.93 -0.01 -0.02 0.02 5542
0.03 0.56 0.96 -0.63 9.93 -0.01 -0.07 0.02 5549
0.03 0.55 0.94 -0.67 9.92 -0.00 -0.04 0.02 5555
0.02 0.55 0.92 -0.66 9.93 -0.00 -0.05 0.02 5561
0.04 0.57 0.91 -0.68 9.91 0.00 -0.06 0.02 5567
0.03 0.57 0.93 -0.71 9.95 -0.00 -0.07 0.02 5573
0.03 0.56 0.90 -0.69 10.01 -0.00 -0.07 0.02 5580
0.04 0.58 0.89 -0.67 9.98 -0.00 -0.08 0.02 5586
0.05 0.56 0.89 -0.68 9.94 -0.00 -0.08 0.02 5593
0.05 0.55 0.91 -0.67 9.99 -0.00 -0.07 0.02 5599
0.05 0.56 0.89 -0.68 10.04 -0.01 -0.07 0.02 5605
0.05 0.56 0.86 -0.68 9.98 -0.00 -0.06 0.02 5611
0.03 0.55 0.89 -0.67 10.02 -0.00 -0.06 0.02 5618
0.01 0.55 0.92 -0.72 9.99 -0.00 -0.06 0.02 5624
0.02 0.55 0.86 -0.68 9.98 -0.00 -0.05 0.02 5630
0.03 0.54 0.90 -0.66 9.97 -0.00 -0.05 0.02 5637
0.03 0.53 0.86 -0.66 9.96 0.00 -0.04 0.01 5643
0.02 0.53 0.83 -0.65 9.99 0.00 -0.05 0.01 5649
0.04 0.54 0.91 -0.68 9.94 0.00 -0.05 0.01 5655
0.03 0.53 0.84 -0.69 9.91 0.00 -0.04 0.01 5661
0.03 0.52 0.87 -0.72 9.98 -0.00 -0.05 0.01 5668
0.03 0.52 0.87 -0.65 10.01 -0.00 -0.05 0.01 5675
0.03 0.53 0.87 -0.73 9.98 -0.00 -0.05 0.01 5681
0.03 0.53 0.85 -0.69 10.02 -0.00 -0.05 0.00 5687
0.03 0.53 0.88 -0.74 9.94 -0.01 -0.05 0.01 5693
0.04 0.54 0.89 -0.69 9.96 -0.00 -0.05 0.01 5699
0.02 0.53 0.85 -0.69 10.02 0.01 -0.05 0.01 5706
0.03 0.53 0.88 -0.67 9.99 0.00 -0.04 0.01 5712
0.04 0.51 0.85 -0.68 10.01 0.00 -0.04 0.01 5719
0.03 0.50 0.89 -0.69 10.00 0.01 -0.04 0.01 5725
0.03 0.47 0.91 -0.70 10.02 0.01 -0.04 0.01 5731
0.04 0.49 0.87 -0.73 10.01 0.01 -0.04 0.01 5737
0.03 0.48 0.87 -0.71 10.01 0.01 -0.04 0.01 5744
0.03 0.44 0.85 -0.73 10.00 0.01 -0.03 0.01 5750
0.04 0.44 0.83 -0.75 10.00 0.01 -0.04 0.01 5756
0.05 0.43 0.85 -0.74 9.98 0.01 -0.04 0.01 5763
0.04 0.40 0.86 -0.76 10.03 0.01 -0.04 0.01 5769
0.04 0.42 0.86 -0.69 9.99 0.02 -0.04 0.01 5775
0.04 0.39 0.88 -0.70 9.97 0.02 -0.04 0.01 5781
0.04 0.36 0.88 -0.67 9.95 0.02 -0.05 0.01 5788
0.03 0.33 0.93 -0.67 9.96 0.03 -0.04 0.01 5794
0.06 0.27 0.92 -0.72 9.91 0.03 -0.05 0.01 5800
0.06 0.22 0.90 -0.71 9.95 0.03 -0.05 0.00 5807
0.07 0.15 0.91 -0.69 10.00 0.03 -0.05 0.00 5813
0.09 0.11 0.96 -0.74 10.04 0.05 -0.05 -0.01 5819
0.10 0.06 1.00 -0.77 10.12 0.06 -0.05 -0.02 5826
0.12 0.03 1.03 -0.73 10.14 0.08 -0.06 -0.03 5832
0.10 0.02 1.05 -0.72 10.17 0.10 -0.06 -0.04 5838
0.12 -0.01 1.02 -0.83 10.23 0.13 -0.07 -0.06 5844
0.12 -0.01 1.30 -0.86 10.46 0.17 -0.08 -0.09 5851
0.12 -0.01 1.42 -0.80 10.52 0.24 -0.10 -0.14 5857
0.18 -0.02 2.21 -0.78 11.03 0.36 -0.10 -0.25 5864
0.17 -0.02 3.03 -1.25 11.28 0.54 -0.09 -0.45 5870
0.20 -0.02 2.58 -1.30 13.35 0.88 -0.05 -0.62 5876
0.21 -0.02 2.82 -1.80 15.78 1.61 -0.04 -0.74 5882
0.21 -0.02 3.13 -1.72 15.46 2.16 -0.23 -0.87 5889
0.22 -0.02 3.54 -1.85 13.94 2.34 -0.49 -1.00 5895
0.25 -0.01 4.33 -2.67 14.03 2.42 -0.73 -1.13 5902
0.29 -0.02 4.76 -2.92 14.81 2.50 -1.01 -1.28 5908
0.24 -0.01 5.55 -3.33 13.09 2.50 -1.15 -1.42 5914
0.21 -0.02 6.94 -3.74 11.39 2.44 -1.30 -1.61 5920
0.18 -0.02 7.63 -4.59 12.62 2.35 -1.30 -1.85 5927
0.11 0.00 8.85 -4.20 11.25 2.21 -1.26 -2.06 5934
0.07 -0.01 9.49 -5.38 11.88 2.04 -1.04 -2.32 5940
0.05 -0.00 11.28 -5.44 12.50 1.78 -0.75 -2.62 5946
0.05 0.00 10.29 -5.02 12.81 1.53 -0.42 -2.95 5952
0.05 -0.01 8.43 -5.49 14.49 1.20 -0.23 -3.27 5959
0.03 -0.00 8.46 -4.65 13.76 0.95 -0.32 -3.52 5965
0.04 -0.00 7.80 -3.44 12.55 0.74 -0.62 -3.72 5971
0.04 -0.00 7.91 -1.69 11.68 0.48 -0.88 -3.83 5978
0.04 -0.00 7.50 -0.78 10.38 0.15 -1.20 -3.96 5984
0.04 0.01 8.44 1.07 8.98 -0.20 -1.72 -3.96 5990
0.05 -0.00 13.63 3.54 6.83 -0.43 -2.19 -3.67 5997
0.04 -0.00 13.89 2.37 7.24 -0.48 -2.36 -2.71 6003
0.04 -0.00 12.48 1.05 12.18 -0.60 -1.68 -1.67 6009
0.04 -0.00 14.91 1.48 10.40 -1.01 -1.06 -0.82 6016
0.04 -0.00 14.89 2.08 7.30 -1.17 -1.05 -0.19 6022
0.02 -0.00 13.74 1.57 5.96 -1.14 -1.13 0.23 6028
0.05 -0.00 12.74 0.99 4.57 -1.01 -0.96 0.53 6035
0.05 -0.00 12.36 0.75 4.46 -0.85 -0.55 0.76 6041
0.04 -0.00 12.35 0.93 4.87 -0.62 -0.08 0.91 6047
0.05 -0.00 12.13 1.11 5.24 -0.40 0.50 1.03 6053
0.03 -0.00 11.23 1.57 5.80 -0.25 1.00 1.06 6060
0.01 -0.00 9.84 2.18 6.51 -0.15 1.38 1.13 6066
0.04 0.00 8.64 2.65 7.58 -0.10 1.66 1.23 6072
0.05 -0.01 7.51 2.97 8.20 -0.07 1.80 1.35 6079
0.04 -0.00 6.56 3.09 8.79 -0.07 1.87 1.46 6085
0.03 -0.00 5.97 3.02 9.31 -0.10 1.94 1.55 6091
0.03 -0.00 5.44 2.82 9.89 -0.16 1.93 1.59 6097
0.04 -0.00 4.91 2.68 10.66 -0.24 1.95 1.60 6104
0.04 -0.00 4.36 2.59 11.42 -0.35 1.98 1.58 6110
0.03 -0.00 3.66 2.38 11.71 -0.48 2.01 1.50 6116
0.05 -0.00 2.94 2.07 11.85 -0.63 2.01 1.38 6122
0.04 -0.00 2.47 1.76 12.21 -0.80 2.00 1.24 6129
0.03 -0.00 2.31 1.46 12.59 -0.89 1.97 1.08 6135
0.03 -0.00 2.11 1.13 12.77 -0.99 1.95 0.94 6141
0.03 -0.00 1.97 0.85 12.66 -1.07 1.94 0.82 6148
0.03 -0.00 1.73 0.70 12.38 -1.13 1.94 0.76 6154
0.03 -0.00 1.59 0.56 12.24 -1.17 1.94 0.70 6160
0.04 -0.00 1.53 0.24 12.17 -1.18 1.93 0.67 6166
0.04 -0.00 1.40 -0.04 12.07 -1.18 1.91 0.65 6173
0.03 -0.00 0.94 -0.30 11.87 -1.16 1.91 0.66 6179
0.04 0.00 0.32 -0.67 11.61 -1.12 1.91 0.67 6185
0.04 -0.00 -0.02 -0.87 11.73 -1.05 1.89 0.68 6192
0.02 -0.00 -0.14 -0.93 12.31 -0.99 1.88 0.70 6198
0.04 0.01 -0.46 -0.82 12.71 -0.94 1.91 0.74 6204
0.03 -0.00 -0.99 -0.75 12.92 -0.92 1.96 0.81 6211
0.04 -0.00 -1.60 -0.77 13.03 -0.93 1.97 0.90 6217
0.03 0.00 -2.11 -0.88 13.13 -0.95 1.92 1.03 6223
0.04 -0.00 -2.39 -1.20 13.26 -0.98 1.81 1.19 6230
0.04 -0.00 -2.60 -1.71 12.90 -1.00 1.64 1.38 6236
0.03 -0.00 -2.48 -2.39 12.30 -1.01 1.44 1.58 6242
0.03 -0.00 -2.37 -3.26 11.75 -0.98 1.23 1.77 6249
0.03 -0.00 -2.48 -4.27 11.16 -0.88 1.05 1.93 6255
0.04 -0.00 -2.61 -5.14 10.32 -0.80 0.90 2.05 6261
0.05 -0.01 -2.69 -5.82 9.46 -0.65 0.82 2.12 6267
0.04 -0.00 -2.87 -6.21 9.02 -0.49 0.76 2.14 6274
0.04 -0.00 -3.14 -6.56 8.95 -0.32 0.75 2.15 6280
0.04 -0.00 -3.45 -6.73 9.12 -0.16 0.77 2.14 6286
0.05 -0.01 -3.69 -6.44 9.71 -0.05 0.81 2.11 6293
0.03 -0.00 -4.15 -6.00 10.03 -0.02 0.87 2.07 6299
0.03 -0.00 -4.90 -5.64 9.66 -0.06 0.91 2.02 6305
0.03 0.01 -5.56 -5.53 8.67 -0.12 0.90 1.97 6311
0.04 -0.00 -6.15 -5.68 7.57 -0.17 0.83 1.92 6318
0.04 -0.00 -6.56 -5.75 6.19 -0.16 0.73 1.87 6324
0.04 -0.00 -21.49 -22.46 10.74 0.32 -0.64 1.91 6330
0.05 -0.00 -25.89 -13.53 3.64 1.08 -2.57 1.95 6337
0.04 -0.00 -16.88 -11.96 -7.81 1.08 -3.52 2.09 6343
0.04 0.01 -14.27 -23.25 -1.18 1.12 -4.28 2.06 6349
0.05 0.03 -22.82 -35.72 5.52 1.07 -4.28 1.88 6355
0.03 0.20 -22.98 -44.67 3.39 1.62 -4.28 1.71 6363
0.02 0.54 -20.03 -23.79 55.75 3.77 -4.23 1.54 6369
0.00 0.82 -13.19 0.69 27.61 2.05 -4.10 0.72 6375
0.02 0.85 -1.70 0.64 17.08 0.88 -2.59 0.17 6382
0.02 0.77 -1.93 2.82 12.30 0.25 -0.90 0.13 6388
0.01 0.67 0.34 0.30 9.43 0.21 -0.48 0.08 6394
0.02 0.57 2.43 -0.50 9.83 0.46 -0.88 0.10 6401
0.02 0.53 2.81 -0.76 10.81 0.33 -0.54 0.36 6407
0.02 0.43 0.34 -1.37 10.68 0.14 -0.40 0.38 6413
0.04 0.50 -0.46 -2.82 9.79 0.05 -0.34 0.23 6420
0.04 0.45 -0.22 -1.66 10.07 0.02 -0.22 0.15 6426
0.05 0.49 0.34 -1.32 10.14 -0.06 -0.18 0.08 6432
0.08 0.57 0.57 -0.99 10.03 -0.09 -0.14 0.06 6438
0.09 0.62 0.44 -0.68 10.52 -0.10 -0.13 0.05 6445
0.10 0.64 0.49 -0.47 10.36 -0.07 -0.11 0.04 6452
0.09 0.66 0.55 -0.53 10.09 -0.04 -0.09 0.04 6458
0.09 0.63 0.59 -0.70 10.11 -0.03 -0.07 0.05 6464
0.15 0.61 0.60 -0.77 10.12 -0.03 -0.07 0.05 6470
0.17 0.61 0.63 -0.80 10.06 -0.03 -0.06 0.05 6476
0.18 0.61 0.71 -0.79 10.02 -0.04 -0.05 0.05 6483
0.16 0.60 0.72 -0.74 10.16 -0.04 -0.05 0.04 6490
0.15 0.62 0.69 -0.73 10.21 -0.04 -0.05 0.03 6496
0.17 0.66 0.80 -0.73 10.15 -0.03 -0.04 0.04 6502
0.16 0.68 0.68 -0.68 10.13 -0.02 -0.04 0.03 6508
0.15 0.68 0.76 -0.68 10.15 -0.02 -0.04 0.03 6515
0.13 0.68 0.68 -0.67 10.04 -0.02 -0.03 0.04 6521
0.14 0.66 0.68 -0.69 10.03 -0.02 -0.03 0.04 6528
0.15 0.65 0.68 -0.68 10.00 -0.02 -0.03 0.03 6534
0.13 0.71 0.69 -0.69 10.04 -0.01 -0.03 0.04 6540
0.13 0.74 0.65 -0.68 9.97 -0.02 -0.03 0.03 6547
0.12 0.73 0.64 -0.68 9.99 -0.01 -0.02 0.04 6553
0.10 0.74 0.67 -0.62 9.99 -0.01 -0.02 0.03 6559
0.11 0.73 0.66 -0.67 9.99 -0.00 -0.00 0.03 6565
0.12 0.71 0.70 -0.64 9.93 -0.00 -0.00 0.03 6572
0.11 0.70 0.68 -0.63 9.98 -0.00 0.00 0.03 6578
0.10 0.70 0.67 -0.66 9.97 0.00 0.01 0.03 6584
0.10 0.69 0.66 -0.68 10.03 0.00 0.01 0.03 6590
0.12 0.63 0.71 -0.68 10.10 0.00 0.02 0.03 6597
0.10 0.59 0.68 -0.67 10.04 -0.00 0.02 0.03 6603
0.11 0.58 0.70 -0.67 10.03 -0.00 0.02 0.03 6609
0.11 0.54 0.75 -0.68 10.05 0.00 0.02 0.03 6616
0.11 0.52 0.71 -0.67 10.04 -0.00 0.03 0.03 6622
0.11 0.55 0.71 -0.68 10.03 0.00 0.02 0.03 6629
0.11 0.52 0.73 -0.69 9.97 0.00 0.03 0.03 6635
0.12 0.51 0.73 -0.65 9.96 0.01 0.03 0.04 6641
0.11 0.50 0.76 -0.71 10.01 0.00 0.03 0.04 6647
0.12 0.44 0.79 -0.64 10.03 0.01 0.03 0.04 6653
0.11 0.42 0.78 -0.67 10.02 0.01 0.03 0.03 6660
0.10 0.45 0.82 -0.67 10.01 0.01 0.02 0.03 6667
0.11 0.42 0.78 -0.69 9.97 0.01 0.02 0.03 6673
0.09 0.40 0.78 -0.67 10.03 0.01 0.02 0.03 6679
0.10 0.41 0.76 -0.62 9.98 0.01 0.02 0.03 6685
0.11 0.41 0.81 -0.66 10.07 0.01 0.02 0.03 6691
0.11 0.35 0.79 -0.68 9.98 0.01 0.02 0.03 6697
0.10 0.35 0.78 -0.71 10.02 0.01 0.02 0.04 6704
0.11 0.37 0.77 -0.69 10.01 0.01 0.02 0.03 6711
0.11 0.36 0.77 -0.71 9.95 0.00 0.01 0.03 6717
0.11 0.33 0.78 -0.69 10.04 -0.00 0.01 0.03 6723
0.12 0.33 0.81 -0.69 10.03 0.00 0.02 0.03 6729
0.13 0.27 0.80 -0.68 10.01 -0.00 0.01 0.03 6735
0.13 0.23 0.77 -0.70 10.02 0.00 0.02 0.03 6743
0.12 0.25 0.80 -0.69 10.07 0.00 0.02 0.03 6749
0.13 0.27 0.79 -0.68 10.02 0.00 0.02 0.03 6755
0.13 0.23 0.82 -0.67 9.97 0.00 0.02 0.03 6761
0.12 0.24 0.79 -0.66 9.99 0.00 0.02 0.03 6767
0.13 0.21 0.85 -0.66 9.87 0.01 0.02 0.03 6773
0.12 0.21 0.85 -0.68 9.99 0.00 0.02 0.03 6779
0.10 0.21 0.79 -0.72 10.00 -0.00 0.02 0.03 6787
0.10 0.26 0.86 -0.69 9.98 -0.00 0.02 0.03 6793
0.11 0.26 0.86 -0.71 9.97 -0.01 0.01 0.03 6799
0.11 0.24 0.86 -0.71 10.00 -0.01 0.01 0.03 6805
0.11 0.24 0.81 -0.70 9.98 -0.01 0.01 0.03 6811
0.12 0.25 0.82 -0.72 10.01 -0.01 0.01 0.02 6817
0.11 0.26 0.81 -0.67 10.01 -0.01 0.02 0.03 6823
0.10 0.25 0.82 -0.68 9.98 -0.01 0.02 0.03 6831
0.10 0.25 0.85 -0.69 10.00 -0.00 0.02 0.03 6837
0.09 0.24 0.86 -0.66 10.02 -0.01 0.02 0.03 6843
0.07 0.23 0.88 -0.68 9.99 -0.00 0.02 0.03 6849
0.09 0.24 0.88 -0.69 10.00 -0.00 0.01 0.03 6855
0.09 0.22 0.86 -0.67 10.02 -0.01 -0.00 0.03 6861
0.08 0.20 0.88 -0.69 9.98 -0.01 -0.01 0.03 6868
0.09 0.19 0.86 -0.69 9.94 -0.01 -0.02 0.02 6875
0.11 0.21 0.86 -0.68 9.99 -0.01 -0.02 0.02 6881
0.09 0.21 0.86 -0.70 9.99 -0.02 -0.03 0.02 6887
0.08 0.21 0.86 -0.67 10.01 -0.01 -0.03 0.02 6893
0.09 0.21 0.90 -0.68 10.00 -0.01 -0.03 0.01 6899
0.09 0.21 0.85 -0.69 10.01 -0.01 -0.03 0.01 6905
0.07 0.20 0.85 -0.67 10.00 -0.01 -0.03 0.01 6913
0.07 0.21 0.86 -0.69 9.98 -0.01 -0.03 0.01 6919
0.08 0.18 0.85 -0.64 9.98 -0.00 -0.03 0.01 6925
0.08 0.20 0.86 -0.66 9.99 -0.01 -0.03 0.01 6931
0.08 0.21 0.83 -0.66 10.06 -0.01 -0.03 0.01 6937
0.11 0.20 0.89 -0.68 9.97 -0.01 -0.02 0.01 6943
0.08 0.22 0.88 -0.68 9.98 -0.01 -0.03 0.02 6950
0.06 0.24 0.84 -0.70 9.98 -0.02 -0.02 0.01 6957
0.09 0.24 0.89 -0.67 9.98 -0.02 -0.02 0.01 6963
0.09 0.23 0.84 -0.68 10.03 -0.02 -0.02 0.01 6969
0.08 0.24 0.87 -0.68 10.03 -0.02 -0.02 0.01 6975
0.09 0.27 0.85 -0.70 10.03 -0.02 -0.01 0.01 6981
0.07 0.27 0.86 -0.72 10.02 -0.02 -0.01 0.01 6987
0.07 0.26 0.85 -0.67 10.00 -0.02 -0.01 0.01 6994
0.07 0.30 0.85 -0.66 10.02 -0.02 -0.01 0.01 7001
0.06 0.29 0.86 -0.66 9.99 -0.02 -0.01 0.01 7007
0.06 0.27 0.83 -0.67 9.98 -0.02 -0.01 0.01 7013
0.03 0.29 0.85 -0.68 10.03 -0.02 -0.02 0.01 7019
0.07 0.34 0.88 -0.69 9.97 -0.02 -0.02 0.01 7025
0.04 0.39 0.89 -0.70 9.98 -0.02 -0.03 0.01 7032
0.05 0.42 0.81 -0.66 9.88 -0.02 -0.03 0.01 7038
0.04 0.43 0.86 -0.64 9.94 -0.02 -0.03 0.01 7045
0.05 0.40 0.91 -0.61 10.03 -0.02 -0.02 0.01 7051
0.05 0.42 0.91 -0.61 10.02 -0.01 -0.02 0.01 7057
0.04 0.42 0.89 -0.66 9.96 -0.01 -0.02 0.01 7063
0.06 0.41 0.91 -0.63 9.98 -0.01 -0.02 0.01 7069
0.04 0.40 0.89 -0.66 9.96 -0.01 -0.03 0.01 7076
0.05 0.38 0.91 -0.63 10.00 -0.00 -0.03 0.01 7083
0.06 0.41 0.87 -0.68 10.03 -0.01 -0.03 0.01 7089
0.06 0.39 0.91 -0.70 10.01 -0.00 -0.04 0.02 7095
0.06 0.39 0.91 -0.66 10.00 -0.01 -0.04 0.02 7101
0.06 0.39 0.90 -0.67 10.04 -0.00 -0.04 0.02 7107
0.08 0.38 0.88 -0.69 10.02 -0.00 -0.04 0.02 7114
0.05 0.38 0.88 -0.66 10.05 0.00 -0.04 0.02 7120
0.07 0.37 0.91 -0.67 10.02 0.00 -0.04 0.02 7127
0.05 0.34 0.92 -0.70 10.06 0.01 -0.05 0.02 7133
0.05 0.31 0.90 -0.68 10.01 0.01 -0.05 0.02 7139
0.05 0.30 0.91 -0.68 10.05 0.01 -0.05 0.02 7146
0.07 0.26 0.91 -0.68 10.02 0.02 -0.05 0.02 7152
0.07 0.21 0.91 -0.71 10.05 0.03 -0.06 0.02 7158
0.08 0.26 0.93 -0.69 9.98 0.02 -0.06 0.02 7164
0.07 0.19 0.92 -0.69 10.02 0.04 -0.06 0.02 7171
0.08 0.14 0.94 -0.64 10.06 0.05 -0.06 0.01 7177
0.08 0.11 0.99 -0.64 10.09 0.06 -0.05 0.01 7184
0.09 0.04 0.98 -0.65 10.02 0.07 -0.06 0.01 7190
0.09 0.02 1.06 -0.73 9.98 0.09 -0.06 -0.01 7196
0.09 0.00 1.08 -1.23 10.15 0.10 -0.07 -0.02 7202
0.09 -0.01 1.16 -0.73 10.21 0.12 -0.08 -0.05 7208
0.09 -0.01 1.34 -0.59 10.25 0.16 -0.10 -0.10 7215
0.08 -0.01 1.81 -0.74 10.51 0.23 -0.12 -0.18 7222
0.11 -0.01 2.11 -0.08 10.28 0.34 -0.13 -0.35 7228
0.10 -0.01 3.48 -0.81 11.74 0.52 -0.13 -0.58 7234
0.11 -0.01 3.90 -1.56 12.70 0.80 -0.09 -0.86 7240
0.15 -0.00 2.96 -1.40 15.17 1.38 -0.11 -1.06 7246
0.15 -0.02 3.56 -1.71 14.53 1.89 -0.20 -1.20 7252
0.14 -0.01 4.04 -2.06 13.15 2.08 -0.30 -1.34 7260
0.15 -0.01 5.06 -1.95 13.12 2.15 -0.33 -1.51 7266
0.13 -0.01 4.90 -2.38 12.40 2.22 -0.39 -1.69 7272
0.10 -0.01 5.39 -2.96 12.83 2.32 -0.47 -1.81 7278
0.14 -0.00 5.12 -2.67 12.30 2.34 -0.62 -1.97 7284
0.11 -0.01 7.20 -4.18 12.24 2.30 -0.75 -2.12 7291
0.08 -0.01 10.30 -3.63 11.75 2.19 -0.72 -2.34 7298
0.08 -0.01 11.86 -4.34 11.77 2.10 -0.32 -2.63 7304
0.05 -0.01 11.91 -4.53 11.04 1.95 0.10 -2.90 7310
0.04 -0.00 10.25 -2.83 12.42 1.78 0.62 -3.21 7316
0.06 -0.01 8.80 -2.99 12.64 1.51 0.77 -3.47 7323
0.06 -0.01 8.60 -1.90 13.68 1.29 0.77 -3.67 7329
0.03 -0.00 6.71 -2.26 12.69 1.11 0.73 -3.80 7335
0.05 -0.01 6.15 -2.16 12.18 0.94 0.57 -3.89 7342
0.04 -0.00 5.80 -1.56 10.47 0.76 0.27 -3.93 7348
0.03 -0.00 4.99 -0.63 9.22 0.53 -0.12 -3.97 7354
0.04 0.00 5.70 0.33 7.93 0.27 -0.55 -3.96 7361
0.04 -0.00 8.45 1.91 7.05 0.05 -0.86 -3.65 7367
0.04 -0.00 7.05 1.77 6.81 -0.10 -0.88 -2.96 7373
0.04 -0.00 8.50 1.57 8.90 -0.17 -0.71 -2.25 7379
0.04 0.00 10.13 1.98 9.90 -0.40 -0.81 -1.71 7386
0.03 -0.00 9.96 2.31 8.56 -0.65 -0.98 -1.29 7392
0.03 -0.00 9.27 2.16 7.49 -0.78 -1.02 -0.94 7398
0.04 -0.00 8.85 2.01 6.59 -0.83 -0.88 -0.73 7404
0.04 -0.00 8.67 1.85 6.02 -0.80 -0.67 -0.53 7410
0.04 -0.00 8.47 1.68 5.92 -0.73 -0.44 -0.40 7417
0.03 -0.00 8.21 1.54 5.96 -0.64 -0.19 -0.33 7424
0.02 -0.00 7.91 1.52 6.16 -0.55 0.09 -0.31 7430
0.04 -0.00 7.42 1.66 6.41 -0.49 0.29 -0.30 7436
0.02 -0.00 6.90 1.83 6.75 -0.44 0.54 -0.31 7442
0.02 -0.00 6.42 1.99 7.17 -0.44 0.75 -0.31 7448
0.03 -0.00 5.84 2.05 7.77 -0.44 0.91 -0.30 7454
0.05 0.00 5.50 2.00 8.52 -0.45 1.02 -0.28 7460
0.03 -0.00 5.38 1.93 9.17 -0.49 1.07 -0.25 7467
0.04 -0.00 5.31 1.25 9.78 -0.55 1.12 -0.20 7473
0.04 0.01 5.26 1.68 10.13 -0.63 1.18 -0.11 7480
0.05 -0.00 5.23 1.46 10.38 -0.72 1.25 -0.07 7486
0.05 -0.00 5.11 1.13 10.53 -0.82 1.32 0.02 7492
0.04 -0.00 4.83 0.66 10.53 -0.90 1.38 0.10 7498
0.05 -0.01 4.55 0.11 10.44 -0.97 1.43 0.17 7504
0.03 -0.00 4.20 -0.22 10.27 -1.00 1.46 0.23 7511
0.03 -0.00 3.87 -0.58 10.11 -1.01 1.49 0.28 7518
0.05 -0.00 3.60 -0.89 9.96 -0.98 1.54 0.32 7524
0.04 -0.00 3.30 -1.18 9.94 -0.94 1.62 0.35 7530
0.04 -0.00 2.86 -1.41 10.10 -0.88 1.70 0.37 7536
0.04 -0.00 2.55 -1.59 10.40 -0.82 1.75 0.38 7542
0.04 -0.00 2.23 -1.74 10.82 -0.76 1.77 0.38 7548
0.03 -0.00 1.87 -1.90 11.20 -0.71 1.77 0.39 7555
0.03 -0.00 1.48 -1.99 11.59 -0.67 1.76 0.41 7562
0.04 -0.00 1.14 -2.04 12.02 -0.64 1.73 0.45 7568
0.03 -0.00 0.94 -2.16 12.35 -0.61 1.70 0.52 7574
0.03 -0.00 0.90 -2.19 12.96 -0.61 1.64 0.61 7580
0.04 -0.00 0.90 -2.34 13.33 -0.64 1.57 0.71 7586
0.04 -0.00 0.76 -2.64 13.32 -0.68 1.53 0.84 7592
0.04 -0.00 0.29 -3.21 12.89 -0.74 1.51 0.97 7599
0.03 -0.00 -0.16 -3.78 12.38 -0.79 1.48 1.07 7606
0.05 -0.00 -0.77 -4.35 11.90 -0.79 1.45 1.15 7612
0.04 -0.00 -1.40 -4.81 11.49 -0.76 1.42 1.21 7618
0.03 -0.00 -1.81 -5.06 11.12 -0.67 1.40 1.26 7624
0.04 -0.00 -2.06 -5.08 10.72 -0.56 1.35 1.28 7630
0.04 -0.00 -2.35 -4.74 10.49 -0.45 1.30 1.31 7636
0.04 -0.00 -2.58 -4.44 10.32 -0.34 1.25 1.37 7644
0.04 0.00 -2.67 -4.03 10.19 -0.24 1.19 1.38 7650
0.03 -0.00 -2.68 -3.77 10.25 -0.16 1.09 1.43 7656
0.03 -0.00 -2.66 -3.65 10.38 -0.11 1.00 1.47 7662
0.04 0.00 -2.72 -3.71 10.60 -0.08 0.94 1.50 7668
0.03 -0.00 -2.97 -4.02 10.71 -0.08 0.88 1.51 7674
0.04 -0.00 -3.38 -4.33 10.74 -0.11 0.78 1.48 7682
0.03 -0.00 -3.75 -4.75 10.76 -0.15 0.66 1.41 7688
0.05 -0.00 -4.27 -5.25 10.71 -0.23 0.50 1.29 7694
0.03 -0.00 -4.63 -5.70 10.20 -0.31 0.31 1.13 7700
0.03 -0.00 -5.03 -5.97 9.64 -0.39 0.16 0.93 7706
0.03 -0.00 -5.19 -6.09 8.61 -0.45 0.03 0.74 7712
0.04 -0.00 -5.14 -6.20 8.80 -0.48 -0.05 0.52 7718
0.04 -0.00 -5.18 -6.15 8.35 -0.48 -0.07 0.30 7726
0.04 -0.00 -5.42 -6.13 7.86 -0.46 -0.03 0.11 7732
0.04 -0.00 -5.81 -6.12 7.52 -0.40 0.01 -0.04 7738
0.05 -0.00 -6.17 -6.10 7.32 -0.31 0.04 -0.14 7744
0.04 -0.00 -6.44 -6.03 7.33 -0.22 0.03 -0.20 7750
0.04 -0.00 -6.45 -5.83 7.02 -0.13 -0.02 -0.21 7756
0.04 -0.00 -6.04 -5.25 6.76 -0.04 -0.12 -0.15 7762
0.04 -0.00 -15.36 -7.37 13.18 0.27 -1.11 0.04 7769
0.02 -0.00 -23.86 -6.64 14.99 1.02 -4.28 0.82 7776
0.03 -0.00 -15.60 -3.52 1.59 0.66 -4.28 1.47 7782
0.04 0.00 -7.29 -7.99 1.32 0.39 -4.28 1.79 7788
0.02 0.04 -6.10 11.65 33.06 0.44 -4.28 1.76 7794
0.02 0.34 -24.35 -23.38 37.18 1.89 -2.90 2.09 7800
0.01 0.65 -11.88 5.80 15.27 0.80 -1.71 1.72 7808
-0.01 0.84 -12.92 1.47 19.58 0.52 -1.51 0.80 7814
0.02 0.76 -4.53 2.06 10.20 0.08 -0.50 0.17 7820
-0.00 0.64 0.37 0.91 8.79 0.09 -0.09 0.01 7826
0.02 0.53 2.27 -0.89 9.42 0.31 -0.18 0.08 7833
0.02 0.38 4.87 -0.55 9.76 0.34 -0.31 0.41 7839
0.04 0.34 3.73 0.16 10.19 0.21 -0.22 0.65 7845
0.06 0.33 -1.34 -1.36 9.87 0.06 -0.24 0.60 7852
0.06 0.34 -1.96 -2.04 9.89 -0.02 -0.25 0.36 7858
0.05 0.32 -1.29 -2.53 9.95 0.00 -0.13 0.22 7864
0.05 0.36 -0.36 -1.66 9.74 -0.03 -0.09 0.12 7871
0.07 0.41 0.44 -1.54 9.83 -0.09 -0.08 0.08 7877
0.07 0.44 0.40 -1.05 10.06 -0.12 -0.08 0.05 7883
0.09 0.46 0.30 -0.71 10.23 -0.11 -0.07 0.03 7889
0.09 0.56 0.48 -0.62 10.21 -0.07 -0.05 0.04 7896
0.08 0.55 0.42 -0.55 9.91 -0.04 -0.03 0.04 7902
0.09 0.55 0.54 -0.70 10.03 -0.04 -0.02 0.04 7909
0.12 0.54 0.56 -0.74 10.05 -0.04 -0.02 0.05 7915
0.12 0.53 0.51 -0.91 10.01 -0.05 -0.03 0.05 7921
0.11 0.55 0.28 -0.98 9.98 -0.05 -0.03 0.04 7927
0.13 0.59 0.63 -0.93 10.14 -0.05 -0.02 0.03 7933
0.12 0.59 0.51 -0.83 10.01 -0.05 -0.03 0.04 7941
0.12 0.60 0.61 -0.82 10.05 -0.05 -0.03 0.03 7947
0.15 0.60 0.67 -0.82 10.19 -0.04 -0.03 0.03 7953
0.14 0.61 0.64 -0.79 10.13 -0.04 -0.02 0.03 7959
0.16 0.57 0.59 -0.83 10.00 -0.03 -0.03 0.03 7965
0.16 0.61 0.57 -0.83 10.11 -0.04 -0.03 0.03 7972
0.12 0.60 0.61 -0.84 10.03 -0.03 -0.03 0.03 7979
0.14 0.62 0.57 -0.84 10.04 -0.03 -0.03 0.04 7985
0.14 0.64 0.64 -0.78 10.08 -0.03 -0.03 0.03 7991
0.13 0.65 0.57 -0.80 10.07 -0.03 -0.03 0.03 7997
0.13 0.73 0.59 -0.77 10.09 -0.02 -0.02 0.03 8004
0.13 0.73 0.61 -0.78 10.08 -0.02 -0.02 0.03 8010
0.13 0.74 0.62 -0.78 10.04 -0.01 -0.02 0.03 8016
0.11 0.74 0.59 -0.77 10.04 -0.01 -0.02 0.02 8023
0.11 0.75 0.56 -0.79 10.02 -0.01 -0.02 0.02 8029
0.10 0.74 0.55 -0.75 9.96 -0.01 -0.01 0.02 8035
0.11 0.76 0.59 -0.75 10.04 -0.00 -0.00 0.02 8042
0.11 0.74 0.57 -0.75 9.98 0.00 0.00 0.02 8048
0.10 0.76 0.00 -0.77 9.95 -0.00 0.01 0.02 8054
0.08 0.78 0.62 -0.76 10.02 -0.00 0.01 0.02 8060
0.09 0.79 0.65 -0.79 10.03 -0.00 0.01 0.02 8067
0.09 0.78 0.62 -0.78 10.04 -0.01 0.01 0.02 8073
0.08 0.76 0.59 -0.79 10.00 -0.00 0.01 0.02 8079
0.10 0.75 0.58 -0.80 10.06 -0.01 0.02 0.02 8086
0.10 0.75 0.60 -0.83 10.10 -0.01 0.02 0.02 8092
0.08 0.73 0.59 -0.80 10.03 -0.01 0.03 0.02 8098
0.08 0.73 0.64 -0.80 10.07 -0.01 0.04 0.02 8104
0.07 0.73 0.62 -0.78 10.03 -0.01 0.04 0.02 8111
0.07 0.71 0.63 -0.78 10.00 -0.01 0.04 0.02 8118
0.04 0.71 0.65 -0.75 10.03 -0.01 0.05 0.02 8124
0.06 0.73 0.64 -0.77 9.96 -0.01 0.05 0.02 8130
0.05 0.72 0.71 -0.80 10.08 -0.01 0.05 0.02 8136
0.03 0.73 0.73 -0.77 10.00 -0.01 0.05 0.02 8142
0.04 0.76 0.68 -0.80 9.99 -0.01 0.04 0.03 8148
0.02 0.76 0.71 -0.79 10.06 -0.02 0.04 0.02 8156
0.03 0.74 0.68 -0.78 10.00 -0.02 0.04 0.02 8162
0.02 0.77 0.66 -0.79 10.00 -0.02 0.04 0.02 8168
-0.00 0.81 0.68 -0.75 10.02 -0.01 0.04 0.02 8174
0.02 0.80 0.67 -0.77 10.03 -0.01 0.04 0.02 8180
0.02 0.82 0.66 -0.78 10.01 -0.02 0.05 0.02 8186
0.00 0.84 0.66 -0.76 10.05 -0.01 0.05 0.01 8194
-0.01 0.83 0.71 -0.77 10.07 -0.01 0.06 0.02 8200
0.02 0.82 0.73 -0.76 10.03 -0.00 0.06 0.02 8206
0.01 0.83 0.75 -0.73 9.95 -0.00 0.06 0.01 8212
0.00 0.83 0.78 -0.72 9.94 0.00 0.06 0.02 8218
0.01 0.83 0.81 -0.74 9.98 0.00 0.05 0.01 8224
0.03 0.80 0.79 -0.73 9.99 0.00 0.04 0.02 8230
0.01 0.77 0.82 -0.74 9.99 0.00 0.03 0.01 8238
0.02 0.76 0.86 -0.75 9.94 -0.00 0.02 0.01 8244
0.02 0.76 0.79 -0.75 10.03 0.00 0.01 0.02 8250
0.03 0.76 0.74 -0.77 10.01 -0.00 0.01 0.01 8256
0.02 0.74 0.74 -0.79 10.00 -0.00 0.01 0.01 8262
0.02 0.76 0.72 -0.77 9.98 -0.00 0.01 0.01 8268
0.02 0.74 0.78 -0.73 10.01 -0.00 0.01 0.01 8275
0.01 0.72 0.75 -0.72 10.00 0.00 0.01 0.01 8282
0.03 0.73 0.77 -0.73 10.02 0.00 0.01 0.01 8288
0.04 0.72 0.77 -0.76 9.99 0.00 0.01 0.01 8294
0.03 0.69 0.74 -0.75 10.06 0.00 0.01 0.01 8300
0.02 0.69 0.74 -0.77 10.02 0.00 0.02 0.01 8306
0.03 0.70 0.82 -0.78 9.99 0.00 0.01 0.01 8312
0.03 0.68 0.80 -0.74 9.99 0.01 0.01 0.01 8320
0.03 0.65 0.83 -0.76 10.03 0.01 0.01 0.01 8326
0.03 0.63 0.80 -0.76 9.99 0.00 0.01 0.01 8332
0.04 0.60 0.81 -0.77 9.93 0.01 0.02 0.01 8338
0.04 0.55 0.84 -0.75 9.96 0.01 0.02 0.01 8344
0.03 0.50 0.80 -0.74 10.01 0.01 0.02 0.01 8350
0.02 0.51 0.81 -0.75 10.03 0.02 0.01 0.01 8356
0.03 0.49 0.80 -0.78 9.93 0.01 0.01 0.01 8364
0.03 0.50 0.83 -0.78 9.97 0.01 -0.00 0.01 8370
0.03 0.48 0.82 -0.79 10.00 0.00 -0.01 0.00 8376
0.05 0.44 0.81 -0.80 9.98 0.00 -0.02 0.01 8382
0.04 0.44 0.83 -0.78 10.04 0.00 -0.03 0.00 8388
0.04 0.40 0.80 -0.76 9.93 0.00 -0.03 0.01 8394
0.06 0.42 0.82 -0.78 9.94 0.00 -0.03 0.01 8400
0.06 0.39 0.81 -0.79 9.99 0.00 -0.03 0.01 8407
0.06 0.38 0.81 -0.75 10.02 0.01 -0.02 0.00 8414
0.06 0.36 0.84 -0.77 10.04 0.01 -0.02 0.00 8420
0.08 0.33 0.82 -0.74 10.00 0.01 -0.01 0.00 8426
0.07 0.28 0.82 -0.84 9.96 0.01 -0.01 0.00 8432
0.05 0.26 0.80 -0.80 10.03 0.01 -0.01 -0.00 8438
0.08 0.28 0.82 -0.78 10.03 0.01 -0.02 -0.00 8444
0.07 0.27 0.91 -0.81 10.01 0.00 -0.03 -0.00 8452
0.07 0.25 0.84 -0.81 10.04 -0.00 -0.04 -0.00 8458
0.10 0.24 0.80 -0.81 10.01 -0.00 -0.04 -0.00 8464
0.08 0.26 0.83 -0.80 9.94 -0.00 -0.04 0.00 8470
0.06 0.25 0.81 -0.81 10.05 -0.00 -0.04 0.00 8476
0.08 0.23 0.82 -0.82 10.00 -0.01 -0.04 0.00 8482
0.08 0.20 0.84 -0.78 9.99 -0.00 -0.04 0.00 8489
0.11 0.19 0.83 -0.78 10.02 -0.00 -0.04 -0.00 8496
0.11 0.22 0.84 -0.78 10.01 -0.01 -0.04 -0.00 8502
0.11 0.20 0.82 -0.80 10.01 -0.00 -0.04 0.00 8508
0.10 0.15 0.84 -0.81 10.00 -0.00 -0.04 0.00 8514
0.10 0.19 0.83 -0.84 9.97 -0.00 -0.04 0.00 8520
0.11 0.21 0.85 -0.81 10.00 -0.00 -0.04 0.00 8527
0.11 0.18 0.85 -0.78 9.99 -0.00 -0.05 0.01 8534
0.09 0.17 0.81 -0.81 10.02 -0.00 -0.05 0.00 8540
0.10 0.16 0.81 -0.79 10.02 -0.00 -0.05 0.00 8546
0.10 0.17 0.83 -0.80 10.04 -0.00 -0.05 0.00 8552
0.07 0.18 0.79 -0.84 9.96 0.00 -0.06 0.00 8558
0.06 0.18 0.81 -0.80 9.96 0.00 -0.06 0.00 8564
0.11 0.15 0.80 -0.80 9.98 0.00 -0.05 0.00 8571
0.10 0.11 0.82 -0.81 10.05 0.00 -0.05 0.00 8578
0.11 0.12 0.80 -0.85 10.04 0.00 -0.05 -0.00 8584
0.12 0.13 0.81 -0.84 10.06 0.01 -0.05 0.00 8590
0.13 0.11 0.84 -0.86 9.99 0.01 -0.04 0.00 8596
0.11 0.09 0.82 -0.82 10.03 0.02 -0.04 0.01 8602
0.16 0.07 0.85 -0.84 10.02 0.02 -0.04 0.00 8609
0.17 0.04 0.81 -0.76 10.04 0.03 -0.04 0.00 8615
0.16 0.03 0.82 -0.84 10.07 0.04 -0.04 0.01 8622
0.20 0.05 0.81 -0.85 9.97 0.04 -0.05 0.01 8628
0.18 0.04 0.85 -0.86 10.03 0.04 -0.05 0.01 8634
0.17 0.01 0.87 -0.87 9.99 0.05 -0.05 0.01 8640
0.16 0.05 0.85 -0.85 10.06 0.05 -0.06 0.01 8647
0.17 -0.00 0.88 -0.82 10.05 0.06 -0.06 0.00 8653
0.17 -0.02 0.88 -0.84 10.09 0.07 -0.06 -0.00 8659
0.16 -0.01 0.86 -0.90 10.07 0.07 -0.06 -0.01 8666
0.18 -0.01 0.82 -0.91 10.06 0.07 -0.07 -0.01 8672
0.20 -0.02 0.83 -0.89 10.07 0.07 -0.07 -0.01 8678
0.18 -0.02 0.87 -0.97 10.07 0.08 -0.07 -0.02 8684
0.19 -0.02 0.92 -0.91 9.89 0.09 -0.07 -0.02 8691
0.19 -0.02 1.00 -0.97 10.24 0.11 -0.08 -0.03 8697
0.21 -0.02 1.07 -0.98 10.39 0.15 -0.08 -0.05 8704
0.21 -0.02 1.13 -0.97 10.46 0.23 -0.09 -0.09 8710
0.22 -0.02 1.60 -0.90 10.59 0.31 -0.09 -0.17 8716
0.23 -0.02 1.94 -0.99 11.24 0.48 -0.10 -0.26 8722
0.28 -0.03 1.63 -1.33 12.23 0.79 -0.07 -0.36 8729
0.26 -0.02 1.94 -1.41 12.51 1.27 -0.08 -0.43 8735
0.24 -0.02 1.83 -1.58 13.59 1.66 -0.16 -0.50 8741
0.26 -0.01 1.82 -1.54 13.23 1.85 -0.29 -0.55 8748
0.27 -0.02 2.05 -1.84 13.08 1.97 -0.44 -0.60 8754
0.27 -0.03 2.27 -1.90 14.15 2.12 -0.60 -0.68 8761
0.32 -0.00 2.33 -2.15 12.80 2.22 -0.67 -0.71 8767
0.33 -0.02 2.80 -2.42 12.42 2.27 -0.86 -0.79 8773
0.28 -0.02 3.26 -2.67 12.45 2.33 -1.02 -0.89 8779
0.30 -0.02 3.40 -3.22 12.53 2.36 -1.18 -1.01 8786
0.27 -0.03 4.41 -3.89 11.86 2.35 -1.29 -1.15 8793
0.19 -0.01 5.36 -4.89 11.50 2.29 -1.37 -1.34 8799
0.19 -0.01 6.33 -5.26 11.72 2.15 -1.34 -1.60 8805
0.15 -0.02 8.44 -5.44 11.16 2.08 -1.27 -1.76 8811
0.11 0.01 6.71 -5.39 11.25 2.00 -1.03 -2.05 8818
0.08 -0.00 9.10 -4.42 13.84 1.85 -0.71 -2.33 8824
0.05 -0.01 9.05 -5.75 11.94 1.71 -0.49 -2.61 8830
0.07 -0.00 7.50 -5.82 12.45 1.57 -0.37 -2.91 8837
0.07 -0.01 7.50 -5.11 11.98 1.42 -0.30 -3.17 8843
0.04 -0.00 7.33 -4.94 12.69 1.25 -0.31 -3.39 8850
0.05 -0.01 7.19 -4.28 12.70 1.04 -0.40 -3.60 8856
0.05 -0.01 6.64 -2.92 13.00 0.81 -0.57 -3.77 8862
0.05 -0.00 6.52 -2.39 13.14 0.55 -0.80 -3.94 8868
0.06 -0.00 5.68 -1.69 11.92 0.25 -1.04 -4.05 8875
0.05 -0.01 5.89 -0.90 10.66 -0.05 -1.49 -4.15 8881
0.04 -0.00 6.86 0.32 8.47 -0.30 -2.12 -4.21 8888
0.03 -0.00 10.79 2.55 6.13 -0.52 -2.80 -4.04 8894
0.05 -0.01 12.66 2.88 4.40 -0.70 -3.05 -3.39 8900
0.04 -0.00 12.43 0.98 7.80 -0.99 -2.47 -2.60 8906
0.05 -0.00 15.42 -0.10 9.69 -1.56 -1.72 -1.98 8912
0.06 -0.01 15.65 -1.01 9.85 -1.91 -1.33 -1.51 8919
0.04 -0.00 13.92 -1.77 9.05 -1.97 -1.02 -1.13 8926
0.03 -0.00 12.69 -2.00 6.61 -1.89 -0.62 -0.79 8932
0.05 -0.01 12.14 -2.16 4.95 -1.70 -0.26 -0.50 8938
0.04 -0.00 11.70 -2.26 4.55 -1.45 0.15 -0.26 8944
0.03 -0.00 11.18 -2.48 5.48 -1.15 0.60 -0.11 8950
0.05 -0.00 10.55 -2.45 5.44 -0.85 1.08 0.04 8956
0.05 -0.00 9.66 -2.14 6.07 -0.57 1.58 0.16 8963
0.04 -0.00 8.48 -1.74 7.09 -0.35 2.02 0.26 8970
0.03 -0.00 7.18 -1.43 8.30 -0.22 2.36 0.33 8976
0.05 -0.01 5.76 -1.15 9.54 -0.14 2.59 0.40 8982
0.04 -0.00 4.63 -0.92 10.40 -0.11 2.67 0.48 8988
0.04 -0.00 3.24 -0.58 11.18 -0.13 2.66 0.59 8994
0.03 0.00 2.04 -0.22 12.21 -0.18 2.53 0.65 9000
0.03 -0.00 1.05 0.08 11.83 -0.25 2.37 0.75 9007
0.03 -0.00 0.48 0.25 12.00 -0.34 2.24 0.84 9014
0.03 -0.00 0.09 0.16 12.24 -0.42 2.14 0.93 9020
0.04 -0.00 -0.11 -0.04 12.31 -0.53 2.09 0.99 9026
0.04 -0.00 -0.35 -0.16 12.27 -0.56 2.08 1.03 9032
0.03 -0.00 -0.65 -0.37 11.95 -0.60 2.08 1.07 9038
0.04 0.00 -1.03 -0.72 11.66 -0.63 2.09 1.09 9044
0.03 -0.00 -1.36 -0.97 11.56 -0.64 2.09 1.11 9051
0.04 -0.00 -1.65 -1.16 11.56 -0.62 2.09 1.13 9058
0.04 0.01 -1.85 -1.40 11.64 -0.58 2.12 1.16 9064
0.03 -0.00 -1.91 -1.61 11.80 -0.52 2.17 1.20 9070
0.04 -0.00 -1.85 -1.89 12.10 -0.46 2.23 1.26 9076
0.04 0.00 -2.05 -2.17 12.49 -0.41 2.28 1.33 9082
0.04 -0.00 -2.66 -2.59 12.87 -0.38 2.27 1.41 9090
0.03 -0.00 -3.37 -2.90 13.20 -0.34 2.14 1.49 9096
0.04 -0.00 -3.76 -2.93 13.31 -0.34 1.87 1.57 9102
0.04 -0.00 -3.65 -2.85 12.98 -0.37 1.56 1.66 9108
0.04 -0.00 -3.00 -2.74 12.71 -0.42 1.25 1.77 9114
0.04 -0.00 -2.00 -2.69 12.22 -0.49 0.97 1.88 9120
0.05 -0.01 -0.94 -2.81 11.10 -0.54 0.79 2.01 9127
0.04 -0.00 -0.18 -3.08 11.00 -0.58 0.71 2.14 9134
0.03 -0.00 0.22 -3.37 10.45 -0.58 0.73 2.27 9140
0.04 -0.00 0.33 -3.69 10.17 -0.56 0.79 2.38 9146
0.04 -0.00 0.01 -3.93 10.09 -0.52 0.87 2.47 9152
0.03 -0.00 -0.59 -4.01 9.77 -0.47 0.91 2.54 9158
0.04 -0.00 -0.93 -3.90 9.54 -0.43 0.89 2.61 9164
0.06 -0.01 -1.15 -3.73 9.67 -0.40 0.83 2.66 9170
0.04 -0.00 -1.08 -3.54 10.06 -0.38 0.77 2.71 9178
0.04 -0.00 -0.99 -3.25 10.60 -0.39 0.75 2.77 9184
0.04 0.01 -1.07 -2.92 10.80 -0.44 0.75 2.83 9190
0.04 -0.00 -1.25 -2.54 10.83 -0.52 0.76 2.87 9196
0.03 -0.00 -1.76 -2.50 10.78 -0.60 0.77 2.91 9202
0.03 -0.00 -2.69 -2.92 10.54 -0.67 0.80 2.90 9208
0.05 -0.00 -3.69 -3.59 10.02 -0.71 0.82 2.84 9216
0.04 -0.00 -5.32 -4.30 9.45 -0.71 0.84 2.71 9222
0.03 -0.00 -7.32 -4.91 8.91 -0.68 0.87 2.54 9228
0.04 -0.00 -9.18 -5.65 8.89 -0.61 0.91 2.27 9234
0.04 -0.00 -10.42 -6.22 9.23 -0.54 0.92 1.96 9240
0.03 -0.00 -11.56 -6.57 9.86 -0.50 0.91 1.62 9246
0.03 -0.00 -12.95 -6.85 10.38 -0.50 0.80 1.29 9252
0.04 -0.00 -14.17 -7.09 10.54 -0.54 0.51 0.96 9260
0.04 -0.00 -34.79 -22.06 24.29 -0.25 -1.74 0.79 9266
0.03 -0.00 -24.24 -10.08 8.31 0.36 -3.49 0.77 9272
0.03 -0.00 -15.72 -9.09 -0.29 0.08 -4.28 0.57 9278
0.02 -0.00 -13.52 -18.40 6.48 0.07 -4.28 0.27 9284
0.03 0.03 -13.79 -21.68 13.54 0.50 -4.28 0.25 9291
0.02 0.22 -2.93 -7.41 10.05 1.65 -2.75 0.94 9297
0.02 0.43 -8.95 -5.78 20.63 2.48 -1.61 1.28 9304
0.02 0.59 -9.92 -1.24 27.77 2.66 -0.99 1.18 9310
0.01 0.58 -7.10 2.14 17.85 1.93 -1.20 0.69 9317
0.01 0.58 -1.87 0.98 20.13 1.18 -1.36 0.32 9323
0.01 0.46 0.14 -0.01 12.05 0.45 -0.82 0.21 9329
-0.00 0.40 2.09 -0.77 10.09 0.28 -0.49 0.29 9335
0.03 0.34 0.78 -1.40 10.70 0.20 -0.36 0.43 9342
0.03 0.28 0.41 -0.33 10.36 0.08 -0.13 0.46 9349
0.03 0.30 -1.48 -2.18 11.09 -0.02 -0.11 0.32 9355
0.05 0.32 -1.07 -2.52 9.95 -0.04 -0.10 0.16 9361
0.06 0.29 0.30 -2.05 10.05 -0.03 -0.06 0.11 9367
0.06 0.30 0.36 -1.41 9.64 -0.07 -0.03 0.08 9373
0.09 0.35 0.51 -0.98 10.07 -0.09 -0.03 0.05 9380
0.07 0.39 0.59 -0.57 10.15 -0.12 -0.03 0.03 9387
0.06 0.44 0.84 -0.67 10.31 -0.10 -0.03 0.02 9393
0.09 0.48 1.13 -0.74 9.92 -0.08 -0.01 0.04 9399
0.10 0.45 0.46 -0.54 10.13 -0.07 -0.01 0.01 9405
0.13 0.40 0.46 -0.73 9.91 -0.07 -0.01 0.02 9411
0.13 0.42 0.64 -0.93 9.95 -0.07 -0.01 0.02 9418
0.16 0.39 0.65 -0.85 9.82 -0.07 -0.02 0.03 9424
0.17 0.37 0.72 -0.81 10.05 -0.07 -0.00 0.03 9431
0.19 0.36 0.76 -0.75 10.19 -0.06 -0.00 0.02 9437
0.21 0.32 0.80 -0.73 10.18 -0.05 -0.00 0.02 9443
0.23 0.32 0.74 -0.75 10.14 -0.03 -0.01 0.02 9450
0.25 0.33 0.71 -0.73 10.10 -0.02 -0.01 0.02 9456
0.25 0.32 0.83 -0.76 10.06 -0.01 -0.01 0.02 9462
0.25 0.32 0.83 -0.73 10.09 -0.01 -0.01 0.03 9468
0.26 0.30 0.79 -0.78 10.22 -0.00 -0.02 0.03 9475
0.30 0.25 0.85 -0.73 10.06 -0.00 -0.02 0.02 9482
0.32 0.24 0.77 -0.69 10.12 -0.01 -0.03 0.02 9488
0.34 0.24 0.77 -0.73 10.05 0.00 -0.03 0.02 9494
0.36 0.21 0.75 -0.74 10.03 0.00 -0.03 0.02 9500
0.35 0.20 0.69 -0.76 10.03 -0.00 -0.03 0.02 9506
0.39 0.22 0.79 -0.69 10.09 -0.00 -0.03 0.02 9512
0.41 0.20 0.76 -0.68 10.03 0.00 -0.03 0.02 9520
0.40 0.15 0.83 -0.74 10.01 0.00 -0.03 0.03 9526
0.42 0.15 0.77 -0.71 9.98 0.00 -0.03 0.02 9532
0.43 0.17 0.74 -0.68 10.14 0.01 -0.03 0.03 9538
0.42 0.15 0.73 -0.75 10.03 0.01 -0.04 0.03 9544
0.44 0.13 0.73 -0.70 10.06 0.01 -0.03 0.03 9550
0.44 0.12 0.71 -0.73 10.04 0.01 -0.04 0.03 9558
0.42 0.11 0.71 -0.70 10.05 0.01 -0.04 0.03 9564
0.42 0.11 0.73 -0.71 10.05 0.02 -0.04 0.03 9570
0.44 0.08 0.73 -0.74 10.01 0.02 -0.04 0.03 9576
0.44 0.05 0.72 -0.69 10.01 0.02 -0.04 0.04 9582
0.45 0.09 0.75 -0.68 10.01 0.02 -0.04 0.03 9589
0.45 0.06 0.79 -0.76 9.98 0.01 -0.04 0.03 9595
0.46 0.05 0.79 -0.75 9.95 0.01 -0.03 0.03 9602
0.46 0.09 0.80 -0.74 10.00 0.00 -0.03 0.02 9608
0.48 0.07 0.76 -0.74 9.96 -0.00 -0.03 0.02 9614
0.45 0.06 0.72 -0.73 10.03 -0.00 -0.03 0.02 9620
0.45 0.07 0.73 -0.72 10.06 0.00 -0.02 0.02 9627
0.45 0.07 0.72 -0.70 10.00 -0.00 -0.02 0.02 9633
0.44 0.06 0.70 -0.72 9.99 -0.01 -0.01 0.02 9639
0.42 0.04 0.74 -0.72 9.98 -0.00 -0.01 0.02 9646
0.40 0.08 0.74 -0.73 9.94 -0.01 0.00 0.02 9652
0.39 0.07 0.70 -0.74 10.00 -0.01 0.01 0.02 9658
0.39 0.06 0.76 -0.74 9.96 -0.01 0.01 0.02 9664
0.36 0.07 0.74 -0.75 10.01 -0.01 0.01 0.02 9671
0.37 0.09 0.73 -0.74 10.01 -0.02 0.01 0.02 9677
0.31 0.10 0.75 -0.74 9.94 -0.02 0.02 0.02 9683
0.27 0.12 0.74 -0.76 9.99 -0.03 0.02 0.02 9690
0.28 0.14 0.79 -0.73 9.95 -0.03 0.01 0.02 9696
0.27 0.14 0.77 -0.68 9.95 -0.03 0.00 0.02 9702
0.26 0.13 0.78 -0.66 9.95 -0.03 0.00 0.02 9708
0.26 0.17 0.75 -0.64 10.01 -0.02 0.00 0.01 9715
0.29 0.15 0.77 -0.66 10.00 -0.01 0.00 0.01 9721
0.27 0.13 0.76 -0.68 9.97 -0.01 -0.03 0.01 9728
0.27 0.13 0.78 -0.71 10.00 -0.00 -0.00 0.01 9734
0.28 0.14 0.81 -0.74 10.01 -0.01 -0.01 0.01 9740
0.27 0.15 0.79 -0.74 9.97 -0.01 -0.01 0.01 9746
0.26 0.14 0.79 -0.71 9.99 -0.00 -0.00 0.01 9753
0.27 0.15 0.79 -0.70 10.02 -0.00 -0.00 0.01 9759
0.26 0.14 0.80 -0.71 9.95 -0.00 -0.00 0.01 9765
0.27 0.14 0.79 -0.70 9.98 -0.00 -0.01 0.01 9772
0.26 0.14 0.79 -0.71 10.06 -0.01 -0.01 0.01 9778
0.27 0.13 0.78 -0.69 10.04 -0.01 -0.01 0.01 9784
0.25 0.12 0.83 -0.72 10.00 -0.01 -0.01 0.02 9791
0.25 0.14 0.82 -0.67 10.02 -0.02 -0.00 0.02 9797
0.24 0.15 0.80 -0.73 10.05 -0.02 -0.00 0.01 9803
0.23 0.17 0.76 -0.74 10.03 -0.02 -0.01 0.02 9809
0.22 0.19 0.80 -0.72 10.01 -0.02 -0.00 0.02 9816
0.22 0.21 0.81 -0.71 10.00 -0.03 -0.01 0.02 9823
0.21 0.21 0.79 -0.73 10.02 -0.03 -0.02 0.02 9829
0.21 0.25 0.83 -0.74 9.96 -0.03 -0.02 0.02 9835
0.22 0.26 0.83 -0.65 9.98 -0.03 -0.02 0.02 9841
0.20 0.28 0.84 -0.65 10.09 -0.03 -0.02 0.02 9847
0.19 0.29 0.78 -0.67 10.06 -0.02 -0.03 0.02 9853
0.19 0.30 0.82 -0.69 10.03 -0.02 -0.03 0.02 9861
0.19 0.28 0.78 -0.72 10.04 -0.02 -0.03 0.02 9867
0.19 0.27 0.79 -0.74 9.96 -0.02 -0.03 0.02 9873
0.19 0.31 0.77 -0.70 9.98 -0.02 -0.03 0.02 9879
0.18 0.28 0.82 -0.70 10.00 -0.02 -0.03 0.02 9885
0.16 0.32 0.78 -0.70 9.98 -0.02 -0.03 0.02 9891
0.18 0.33 0.75 -0.67 9.98 -0.02 -0.03 0.02 9897
0.15 0.36 0.79 -0.70 9.98 -0.02 -0.03 0.02 9905
0.13 0.35 0.78 -0.71 9.97 -0.03 -0.02 0.02 9911
0.15 0.39 0.81 -0.70 10.02 -0.03 -0.02 0.02 9917
0.14 0.44 0.74 -0.69 10.03 -0.03 -0.01 0.02 9923
0.11 0.40 0.76 -0.63 10.02 -0.02 -0.01 0.02 9929
0.13 0.47 0.80 -0.66 10.04 -0.02 -0.01 0.02 9936
0.10 0.44 0.84 -0.67 9.97 -0.02 -0.01 0.02 9943
0.08 0.44 0.81 -0.63 9.98 -0.02 -0.01 0.02 9949
0.07 0.45 0.80 -0.66 9.99 -0.02 -0.01 0.02 9955
0.08 0.46 0.82 -0.67 10.00 -0.01 -0.00 0.01 9961
0.05 0.54 0.77 -0.67 9.98 -0.01 -0.01 0.02 9967
0.05 0.49 0.77 -0.67 9.93 -0.01 -0.01 0.01 9973
0.04 0.57 0.79 -0.67 9.98 -0.01 -0.00 0.02 9980
0.04 0.53 0.83 -0.63 9.95 -0.00 -0.00 0.01 9987
0.05 0.52 0.82 -0.65 9.96 -0.00 0.00 0.01 9993
0.05 0.54 0.81 -0.66 9.91 -0.00 -0.00 0.01 9999
0.06 0.53 0.88 -0.59 9.98 0.00 -0.00 0.01 10005
0.04 0.52 0.90 -0.64 10.03 0.00 -0.00 0.01 10011
0.06 0.48 0.89 -0.65 10.02 0.01 -0.01 0.01 10017
0.07 0.45 0.87 -0.68 10.00 0.01 -0.01 0.01 10024
0.07 0.42 0.86 -0.70 9.99 0.01 -0.01 0.01 10031
0.07 0.39 0.87 -0.73 9.99 0.02 -0.01 0.01 10037
0.08 0.37 0.92 -0.69 10.00 0.02 -0.01 0.01 10043
0.07 0.33 0.89 -0.64 10.00 0.03 -0.01 0.01 10049
0.06 0.30 0.91 -0.67 10.05 0.04 -0.02 0.00 10056
0.09 0.24 0.95 -0.71 10.07 0.05 -0.03 -0.00 10062
0.07 0.17 0.94 -0.69 10.08 0.06 -0.03 -0.01 10068
0.07 0.13 0.91 -0.69 9.99 0.07 -0.04 -0.02 10075
0.09 0.06 0.91 -0.71 10.12 0.08 -0.05 -0.02 10082
0.08 0.05 0.93 -0.74 10.15 0.09 -0.05 -0.02 10088
0.11 0.04 0.97 -0.74 10.10 0.10 -0.05 -0.04 10094
0.10 0.01 0.96 -0.76 10.15 0.12 -0.06 -0.05 10100
0.09 0.01 1.09 -0.79 10.27 0.14 -0.06 -0.06 10106
0.11 -0.01 1.17 -0.75 10.29 0.18 -0.07 -0.09 10114
0.10 -0.01 1.54 -0.74 10.37 0.23 -0.08 -0.15 10120
0.11 -0.01 2.28 -0.82 10.52 0.31 -0.07 -0.26 10126
0.11 -0.01 3.67 -0.76 10.95 0.41 -0.07 -0.42 10132
0.10 -0.01 3.72 -1.15 11.58 0.58 -0.07 -0.67 10139
0.13 -0.01 3.01 -1.11 13.63 0.94 -0.04 -0.86 10145
0.13 -0.01 2.92 -1.37 14.45 1.52 -0.04 -1.00 10151
0.11 -0.01 2.97 -1.62 11.43 1.80 -0.13 -1.09 10158
0.14 -0.01 5.56 1.73 9.58 1.94 -0.25 -1.22 10164
0.11 -0.01 3.50 -1.84 12.51 2.01 -0.30 -1.32 10171
0.13 -0.01 3.88 -2.10 12.00 2.10 -0.39 -1.42 10177
0.13 -0.01 4.44 -2.87 11.37 2.14 -0.50 -1.52 10183
0.10 -0.00 6.09 -2.56 10.98 2.10 -0.55 -1.65 10189
0.13 -0.01 6.32 -3.11 10.94 2.02 -0.47 -1.82 10196
0.09 -0.01 7.09 -3.06 10.87 1.92 -0.44 -2.01 10203
0.07 -0.01 6.44 -2.62 10.21 1.77 -0.34 -2.19 10209
0.06 -0.01 7.76 -3.47 9.84 1.62 -0.18 -2.33 10215
0.07 -0.01 7.87 -2.16 9.83 1.43 0.06 -2.54 10221
0.07 -0.01 7.33 -3.35 9.70 1.23 0.19 -2.70 10228
0.07 -0.01 6.79 -2.66 9.96 1.04 0.28 -2.91 10234
0.06 -0.01 5.19 -2.61 10.12 0.89 0.21 -3.06 10241
0.04 -0.00 4.03 -3.03 9.67 0.75 0.04 -3.18 10247
0.06 -0.01 3.56 -2.82 9.99 0.59 -0.21 -3.26 10253
0.06 -0.01 3.36 -3.11 10.20 0.46 -0.39 -3.32 10259
0.03 -0.00 3.61 -2.76 10.43 0.26 -0.59 -3.39 10266
0.06 -0.01 3.60 -1.77 10.13 0.04 -0.81 -3.48 10272
0.04 -0.00 4.44 0.81 9.60 -0.21 -1.01 -3.53 10278
0.03 -0.00 4.16 1.49 8.55 -0.51 -1.18 -3.52 10285
0.05 -0.00 5.12 2.34 7.76 -0.75 -1.38 -3.39 10291
0.04 -0.00 7.50 3.01 7.05 -0.92 -1.58 -3.12 10297
0.03 -0.00 8.41 1.00 6.69 -0.98 -1.67 -2.60 10304
0.04 0.00 8.53 -0.57 8.28 -0.99 -1.53 -2.03 10310
0.04 -0.00 9.54 -0.46 9.26 -1.11 -1.26 -1.50 10316
0.02 -0.00 10.06 0.34 8.09 -1.18 -1.08 -1.05 10322
0.04 0.00 9.87 0.55 7.56 -1.16 -0.92 -0.66 10329
0.04 -0.00 9.56 0.28 6.95 -1.11 -0.67 -0.31 10336
0.03 -0.00 9.31 -0.08 6.79 -1.03 -0.32 0.00 10342
0.03 -0.00 9.09 -0.40 7.22 -0.92 -0.01 0.27 10348
0.04 -0.00 8.68 -0.65 7.60 -0.78 0.39 0.53 10354
0.02 -0.00 7.96 -1.00 8.16 -0.64 0.76 0.67 10360
0.03 -0.00 7.04 -1.12 8.61 -0.53 1.09 0.83 10366
0.04 -0.00 5.96 -1.22 9.34 -0.47 1.36 0.96 10373
0.04 -0.00 4.71 -1.43 10.12 -0.43 1.51 1.07 10380
0.03 -0.00 3.40 -1.65 10.57 -0.42 1.53 1.14 10386
0.04 0.00 2.31 -1.59 10.85 -0.42 1.44 1.19 10392
0.04 -0.00 1.66 -1.39 10.96 -0.46 1.31 1.20 10398
0.04 0.00 1.29 -1.30 11.08 -0.51 1.23 1.17 10405
0.05 -0.01 1.03 -1.25 11.22 -0.55 1.23 1.12 10412
0.04 -0.00 0.93 -1.27 11.40 -0.58 1.33 1.06 10418
0.04 0.01 0.47 -1.23 11.34 -0.60 1.46 1.01 10424
0.04 -0.00 0.05 -1.21 11.52 -0.60 1.57 0.97 10430
0.04 -0.00 -0.36 -1.22 11.67 -0.58 1.64 0.94 10437
0.04 -0.00 -0.85 -1.17 11.91 -0.56 1.62 0.94 10443
0.03 -0.00 -1.22 -1.02 12.05 -0.52 1.52 0.98 10449
0.03 -0.00 -1.28 -0.98 12.06 -0.49 1.39 1.04 10456
0.04 -0.00 -1.15 -1.10 11.99 -0.45 1.25 1.12 10462
0.03 -0.00 -0.90 -1.43 11.91 -0.41 1.10 1.20 10469
0.04 -0.00 -0.62 -1.76 11.63 -0.38 0.93 1.26 10475
0.05 -0.00 -0.17 -1.92 11.19 -0.34 0.77 1.30 10481
0.03 -0.00 0.45 -1.94 10.79 -0.30 0.67 1.31 10487
0.04 -0.00 1.14 -1.96 10.48 -0.26 0.64 1.31 10493
0.05 -0.00 1.64 -1.85 10.32 -0.23 0.66 1.29 10501
0.04 -0.00 1.94 -1.58 10.10 -0.20 0.71 1.27 10507
0.04 -0.00 2.13 -1.02 10.07 -0.17 0.78 1.26 10513
0.05 -0.00 2.32 -0.42 10.34 -0.17 0.87 1.27 10519
0.03 -0.00 2.44 0.07 10.49 -0.21 0.87 1.30 10525
0.04 -0.00 2.34 0.37 10.59 -0.28 0.85 1.36 10532
0.05 -0.00 2.18 0.53 10.61 -0.37 0.78 1.37 10539
0.04 -0.00 2.22 0.49 10.47 -0.48 0.69 1.39 10545
0.05 -0.00 2.38 0.17 10.16 -0.59 0.62 1.38 10551
0.06 -0.01 2.46 -0.25 9.54 -0.68 0.62 1.32 10557
0.04 -0.00 2.12 -0.95 8.86 -0.73 0.71 1.18 10563
0.04 -0.00 1.42 -1.93 7.89 -0.72 0.91 0.96 10570
0.05 -0.01 0.79 -2.86 7.34 -0.64 1.16 0.67 10576
0.03 -0.00 0.15 -3.51 7.37 -0.56 1.42 0.33 10583
0.03 -0.00 -1.13 -3.95 7.80 -0.41 1.64 -0.03 10589
0.04 -0.00 -1.49 -4.02 8.14 -0.29 1.78 -0.37 10595
0.03 -0.00 -2.57 -3.86 8.48 -0.20 1.83 -0.65 10601
0.05 -0.00 -3.86 -3.57 8.90 -0.16 1.76 -0.85 10607
0.05 -0.00 -4.54 -3.37 9.33 -0.13 1.59 -0.98 10614
0.05 -0.01 -4.68 -3.35 9.90 -0.15 1.36 -0.99 10620
0.04 -0.00 -4.94 -3.55 10.06 -0.20 1.13 -0.90 10627
0.04 -0.00 -5.57 -4.21 9.92 -0.26 0.92 -0.75 10633
0.05 -0.01 -6.05 -5.01 9.55 -0.33 0.72 -0.55 10639
0.04 -0.00 -19.45 -9.44 23.72 -0.37 -0.33 -0.46 10646
0.04 -0.00 -22.68 -5.91 12.40 -0.76 -3.31 -0.54 10652
0.05 -0.00 -15.48 -4.61 8.23 -0.53 -3.40 0.05 10658
0.04 -0.00 -16.27 -10.75 10.61 -0.50 -3.95 0.56 10664
0.06 -0.01 -14.53 -10.68 9.55 -0.32 -4.27 0.90 10672
0.03 -0.00 -19.34 -12.13 7.66 -0.11 -4.28 1.21 10678
0.04 0.03 -26.13 -2.09 40.95 0.78 -3.80 1.92 10684
0.04 0.18 -23.29 -11.85 29.85 0.71 -2.37 2.16 10691
0.03 0.41 -21.04 -2.93 12.07 -0.29 -0.40 1.29 10697
0.03 0.46 -8.21 0.14 13.69 -0.31 -0.13 0.33 10703
0.03 0.56 -4.31 0.60 10.12 -0.19 -0.13 -0.12 10710
0.03 0.50 2.00 1.21 8.68 0.05 0.02 -0.22 10717
0.01 0.41 5.92 0.16 10.39 0.23 -0.01 -0.01 10723
0.05 0.38 3.07 -0.09 9.86 0.16 -0.07 0.28 10729
0.07 0.34 1.82 0.04 10.42 0.06 -0.13 0.41 10735
0.04 0.33 0.33 -1.09 10.15 -0.02 -0.19 0.42 10742
0.08 0.29 -0.81 -2.11 9.86 -0.03 -0.19 0.30 10748
0.07 0.31 0.47 -1.26 10.12 -0.00 -0.10 0.19 10755
0.06 0.36 0.19 -1.40 10.07 -0.07 -0.15 0.17 10761
0.10 0.32 0.09 -1.35 9.96 -0.09 -0.12 0.17 10767
0.08 0.35 -0.27 -0.87 10.02 -0.11 -0.09 0.13 10774
0.10 0.43 -0.02 -0.96 10.38 -0.12 -0.06 0.10 10780
0.12 0.43 0.34 -0.28 9.99 -0.11 -0.05 0.08 10786
0.12 0.43 0.48 -0.61 10.15 -0.09 -0.06 0.09 10792
0.13 0.44 0.61 -1.17 10.18 -0.08 -0.07 0.09 10800
0.15 0.43 0.57 -0.09 10.11 -0.08 -0.07 0.08 10806
0.14 0.46 0.51 -0.67 9.92 -0.07 -0.07 0.09 10812
0.14 0.46 0.46 -0.67 9.90 -0.07 -0.06 0.08 10818
0.16 0.47 0.53 -0.80 10.15 -0.07 -0.05 0.07 10825
0.15 0.49 0.54 -0.74 10.05 -0.06 -0.04 0.07 10831
0.16 0.45 0.49 -0.60 10.21 -0.05 -0.04 0.07 10838
0.16 0.49 0.52 -0.65 10.12 -0.04 -0.02 0.07 10844
0.16 0.47 0.55 -0.65 10.09 -0.03 -0.02 0.07 10851
0.19 0.47 0.65 -0.66 10.07 -0.02 -0.02 0.07 10857
0.21 0.47 0.62 -0.66 10.04 -0.02 -0.02 0.07 10863
0.23 0.46 0.66 -0.69 10.05 -0.02 -0.03 0.06 10869
0.24 0.46 0.69 -0.71 10.02 -0.02 -0.03 0.06 10876
0.26 0.45 0.70 -0.72 10.12 -0.02 -0.03 0.05 10883
0.27 0.43 0.63 -0.69 10.02 -0.02 -0.03 0.04 10889
0.27 0.43 0.60 -0.68 10.04 -0.02 -0.03 0.03 10895
0.27 0.48 0.58 -0.66 9.94 -0.01 -0.02 0.03 10901
0.27 0.45 0.54 -0.66 9.98 -0.01 -0.02 0.03 10908
0.27 0.49 0.54 -0.67 9.98 -0.01 -0.02 0.03 10914
0.29 0.44 0.63 -0.65 10.09 -0.01 -0.02 0.03 10920
0.31 0.40 0.60 -0.68 10.13 -0.00 -0.02 0.03 10927
0.34 0.39 0.61 -0.65 10.11 -0.00 -0.02 0.03 10933
0.33 0.40 0.67 -0.65 10.10 0.00 -0.02 0.02 10940
0.33 0.42 1.22 -0.68 10.13 0.00 -0.02 0.02 10946
0.34 0.41 0.63 -0.66 10.19 0.00 -0.03 0.02 10952
0.34 0.36 0.63 -0.65 10.05 0.00 -0.02 0.02 10958
0.36 0.36 0.64 -0.64 10.01 0.00 -0.03 0.02 10966
0.36 0.32 0.58 -0.62 10.02 0.00 -0.03 0.02 10972
0.35 0.33 0.63 -0.64 10.09 0.00 -0.02 0.02 10978
0.37 0.36 0.62 -0.62 10.03 0.00 -0.03 0.02 10984
0.36 0.33 0.61 -0.67 10.03 0.01 -0.03 0.02 10991
0.37 0.31 0.64 -0.64 10.04 0.00 -0.04 0.02 10997
0.37 0.30 0.61 -0.68 10.02 0.00 -0.04 0.02 11003
0.36 0.29 0.64 -0.62 10.00 -0.00 -0.04 0.02 11010
0.35 0.31 0.60 -0.66 9.99 -0.00 -0.04 0.02 11016
0.37 0.31 0.58 -0.63 10.04 -0.01 -0.04 0.02 11023
0.35 0.31 0.57 -0.64 10.03 -0.01 -0.04 0.02 11029
0.37 0.33 0.52 -0.65 10.00 -0.01 -0.04 0.01 11035
0.36 0.33 0.55 -0.65 10.06 -0.01 -0.04 0.02 11041
0.35 0.34 0.58 -0.66 10.03 -0.00 -0.03 0.01 11048
0.36 0.36 0.65 -0.62 10.02 -0.01 -0.03 0.01 11055
0.34 0.36 0.63 -0.64 10.04 -0.01 -0.03 0.01 11061
0.36 0.38 0.64 -0.65 10.00 -0.01 -0.03 0.01 11067
0.34 0.39 0.61 -0.68 10.01 -0.01 -0.03 0.01 11074
0.34 0.41 0.58 -0.67 9.96 -0.02 -0.04 0.01 11080
0.35 0.41 0.61 -0.68 10.02 -0.02 -0.04 0.01 11086
0.34 0.41 0.59 -0.63 10.05 -0.02 -0.04 0.00 11092
0.31 0.45 0.59 -0.64 10.05 -0.02 -0.04 0.00 11100
0.31 0.45 0.60 -0.67 10.02 -0.02 -0.04 -0.01 11106
0.28 0.45 0.60 -0.65 9.98 -0.02 -0.04 -0.01 11112
0.31 0.44 0.59 -0.64 10.05 -0.02 -0.04 -0.01 11118
0.28 0.47 0.58 -0.62 10.05 -0.01 -0.05 -0.01 11124
0.29 0.46 0.58 -0.62 10.01 -0.02 -0.04 -0.01 11131
0.30 0.48 0.60 -0.60 10.05 -0.02 -0.05 -0.01 11138
0.29 0.46 0.57 -0.63 10.04 -0.01 -0.04 -0.01 11144
0.27 0.50 0.53 -0.62 10.03 -0.01 -0.05 -0.02 11150
0.28 0.49 0.57 -0.64 9.95 -0.01 -0.05 -0.01 11157
0.32 0.50 0.62 -0.67 9.98 -0.02 -0.05 -0.01 11163
0.29 0.50 0.58 -0.66 10.01 -0.02 -0.05 -0.01 11169
0.24 0.49 0.57 -0.65 10.01 -0.02 -0.05 -0.02 11175
0.23 0.54 0.60 -0.65 10.00 -0.02 -0.06 -0.01 11183
0.23 0.55 0.56 -0.64 10.03 -0.02 -0.06 -0.01 11189
0.22 0.53 0.51 -0.65 10.06 -0.02 -0.06 -0.00 11195
0.23 0.58 0.59 -0.66 10.03 -0.02 -0.06 -0.00 11201
0.21 0.58 0.56 -0.63 10.05 -0.02 -0.06 -0.00 11207
0.20 0.60 0.55 -0.62 10.06 -0.02 -0.06 0.00 11214
0.18 0.65 0.55 -0.65 10.01 -0.02 -0.05 0.00 11220
0.17 0.63 0.52 -0.62 9.99 -0.02 -0.05 0.01 11227
0.14 0.69 0.54 -0.60 10.00 -0.02 -0.06 0.00 11233
0.15 0.73 0.54 -0.57 9.98 -0.02 -0.05 -0.00 11240
0.17 0.72 0.54 -0.60 10.02 -0.02 -0.05 -0.00 11246
0.19 0.73 0.54 -0.62 10.04 -0.02 -0.05 -0.01 11252
0.16 0.73 0.51 -0.63 10.02 -0.02 -0.05 -0.00 11258
0.17 0.73 0.51 -0.61 9.97 -0.02 -0.05 -0.01 11265
0.14 0.78 0.52 -0.61 10.06 -0.02 -0.05 -0.01 11272
0.16 0.78 0.52 -0.65 9.98 -0.02 -0.05 -0.00 11278
0.14 0.79 0.52 -0.61 10.00 -0.02 -0.05 -0.01 11284
0.15 0.81 0.53 -0.61 9.98 -0.02 -0.05 -0.01 11290
0.17 0.78 0.52 -0.58 9.99 -0.01 -0.04 -0.01 11296
0.14 0.84 0.53 -0.64 9.89 -0.01 -0.04 -0.01 11303
0.16 0.82 0.55 -0.59 9.96 -0.01 -0.04 -0.01 11310
0.17 0.82 0.55 -0.56 9.94 -0.01 -0.03 -0.01 11316
0.15 0.84 0.55 -0.59 10.03 -0.01 -0.03 -0.01 11322
0.17 0.81 0.52 -0.61 9.96 -0.00 -0.02 -0.01 11328
0.21 0.77 0.50 -0.57 10.05 -0.00 -0.02 -0.01 11335
0.24 0.71 0.53 -0.64 10.08 0.01 -0.01 -0.02 11341
0.28 0.65 0.51 -0.67 10.07 0.02 -0.01 -0.02 11347
0.27 0.63 0.53 -0.68 10.06 0.02 -0.01 -0.01 11354
0.31 0.60 0.57 -0.58 10.06 0.03 -0.00 -0.02 11361
0.32 0.50 0.55 -0.62 10.02 0.03 0.00 -0.02 11367
0.33 0.47 0.61 -0.67 10.11 0.04 0.00 -0.02 11373
0.36 0.34 0.65 -0.59 10.11 0.06 0.00 -0.03 11379
0.35 0.30 0.73 -0.63 10.14 0.06 -0.00 -0.03 11386
0.43 0.24 0.67 -0.63 10.06 0.07 -0.01 -0.04 11393
0.44 0.14 0.66 -0.68 10.07 0.08 -0.02 -0.04 11399
0.47 0.10 0.70 -0.65 10.19 0.10 -0.02 -0.05 11405
0.52 0.05 0.73 -0.68 10.29 0.13 -0.03 -0.05 11412
0.57 -0.01 0.83 -0.77 10.40 0.18 -0.04 -0.07 11418
0.61 -0.03 1.01 -1.05 10.57 0.25 -0.06 -0.10 11424
0.66 -0.05 0.93 -1.00 10.80 0.37 -0.13 -0.15 11430
0.70 -0.04 1.48 -1.31 11.32 0.52 -0.18 -0.23 11438
0.72 -0.05 2.46 -1.53 12.03 0.73 -0.38 -0.37 11444
0.73 -0.03 4.08 -1.92 12.72 0.98 -0.62 -0.59 11450
0.76 -0.05 5.50 -2.28 13.85 1.18 -0.92 -0.87 11456
0.79 -0.05 4.37 -2.21 15.00 1.48 -1.21 -1.08 11463
0.79 -0.04 2.89 -2.60 16.93 1.85 -1.59 -1.15 11469
0.78 -0.05 5.00 -2.77 13.77 2.09 -1.98 -1.25 11475
0.69 -0.03 5.21 -3.37 15.07 2.16 -2.04 -1.45 11483
0.60 -0.02 5.70 -3.77 13.96 2.23 -2.10 -1.68 11489
0.53 -0.02 6.01 -3.75 13.19 2.29 -2.10 -1.88 11495
0.42 -0.02 6.77 -4.83 12.77 2.27 -1.96 -2.12 11501
0.28 -0.01 7.64 -4.67 12.84 2.21 -1.65 -2.43 11508
0.19 -0.00 11.85 -4.62 11.50 2.08 -1.17 -2.71 11514
0.11 -0.01 12.63 -4.98 11.89 1.84 -0.61 -3.05 11521
0.07 0.01 11.85 -4.76 12.39 1.50 -0.16 -3.32 11528
0.06 -0.00 10.57 -4.25 13.89 1.03 0.02 -3.60 11534
0.04 0.00 6.75 -3.23 14.01 0.58 -0.16 -3.86 11540
0.05 0.00 5.89 -1.15 12.44 0.15 -0.66 -4.05 11546
0.04 -0.00 4.39 -0.41 9.02 -0.12 -1.39 -4.12 11553
0.05 -0.00 7.99 0.69 6.95 -0.27 -2.23 -3.99 11559
0.05 -0.01 10.78 0.74 6.87 -0.34 -2.70 -3.34 11566
0.04 -0.00 10.53 -1.27 11.65 -0.44 -2.45 -2.34 11572
0.06 -0.01 12.90 -0.43 13.36 -0.92 -1.12 -1.40 11578
0.06 -0.01 13.74 0.77 10.92 -1.34 -0.29 -0.82 11585
0.05 -0.01 11.52 0.03 8.14 -1.62 0.01 -0.49 11591
0.05 -0.01 8.65 -0.38 5.77 -1.74 0.11 -0.29 11597
0.05 -0.00 6.51 -0.72 5.23 -1.64 0.22 -0.18 11603
0.04 -0.00 5.49 -1.03 5.00 -1.39 0.39 -0.06 11610
0.02 -0.00 5.13 -1.20 5.04 -1.07 0.62 0.02 11617
0.02 -0.00 4.68 -1.19 5.03 -0.73 0.89 0.08 11623
0.04 -0.00 3.98 -1.07 4.96 -0.41 1.17 0.12 11629
0.04 0.01 3.48 -0.74 5.44 -0.21 1.43 0.16 11635
0.05 -0.00 3.02 -0.34 6.78 0.01 1.61 0.21 11641
0.04 -0.00 2.31 -0.29 7.81 0.17 1.75 0.25 11648
0.05 -0.00 1.21 -0.39 8.42 0.27 1.79 0.29 11654
0.04 -0.00 0.29 -0.42 9.27 0.33 1.74 0.34 11661
0.04 -0.00 -0.26 -0.41 10.20 0.35 1.64 0.39 11667
0.04 -0.00 -0.51 -0.36 11.00 0.31 1.55 0.44 11673
0.07 -0.01 -0.53 -0.32 11.43 0.23 1.49 0.47 11679
0.04 -0.00 -0.64 -0.34 11.65 0.10 1.47 0.50 11685
0.04 -0.00 -0.88 -0.59 11.73 -0.06 1.45 0.50 11692
0.06 -0.01 -1.16 -0.97 11.74 -0.17 1.42 0.47 11699
0.05 -0.01 -1.48 -1.41 11.21 -0.28 1.36 0.43 11705
0.05 -0.01 -1.63 -1.67 10.93 -0.35 1.30 0.37 11711
0.05 -0.00 -1.55 -1.92 10.49 -0.39 1.17 0.32 11717
0.03 -0.00 -1.34 -2.01 10.08 -0.39 1.14 0.26 11724
0.05 0.00 -1.19 -2.02 10.01 -0.38 1.14 0.23 11730
0.04 -0.00 -1.06 -1.92 10.06 -0.35 1.17 0.21 11737
0.03 -0.00 -1.35 -1.72 10.16 -0.30 1.21 0.22 11743
0.04 -0.00 -1.66 -1.43 9.98 -0.25 1.21 0.27 11749
0.03 -0.00 -1.87 -1.09 9.99 -0.20 1.17 0.34 11756
0.03 -0.00 -2.01 -0.85 10.13 -0.16 1.09 0.44 11762
0.03 0.00 -1.89 -0.70 10.44 -0.11 0.99 0.56 11768
0.04 -0.00 -1.61 -0.66 10.73 -0.09 0.87 0.71 11774
0.03 -0.00 -1.28 -0.57 10.86 -0.08 0.76 0.86 11781
0.05 -0.01 -0.77 -0.58 10.89 -0.08 0.66 1.01 11788
0.05 -0.00 -0.27 -0.74 10.82 -0.13 0.59 1.17 11794
0.03 -0.00 0.17 -0.96 10.61 -0.12 0.54 1.31 11800
0.05 -0.01 0.34 -1.32 10.31 -0.13 0.53 1.43 11806
0.04 -0.00 0.38 -1.71 10.01 -0.14 0.57 1.51 11812
0.04 -0.00 0.33 -2.09 9.88 -0.14 0.66 1.55 11819
0.04 -0.00 0.03 -2.40 9.76 -0.13 0.78 1.56 11826
0.04 -0.00 -0.40 -2.72 9.20 -0.10 0.88 1.54 11832
0.03 -0.00 -1.04 -2.87 9.80 -0.06 0.94 1.50 11838
0.04 -0.00 -1.51 -2.76 9.82 -0.03 0.92 1.45 11844
0.04 -0.00 -1.79 -2.47 9.87 -0.00 0.84 1.40 11850
0.03 -0.00 -1.72 -2.18 10.07 -0.00 0.69 1.35 11856
0.04 -0.00 -1.25 -1.88 10.28 -0.02 0.55 1.32 11864
0.04 -0.00 -0.63 -1.67 10.43 -0.06 0.44 1.30 11870
0.04 -0.00 -0.13 -1.66 10.56 -0.11 0.37 1.29 11876
0.03 -0.00 0.26 -2.02 10.45 -0.17 0.41 1.29 11882
0.03 -0.00 0.46 -2.49 10.25 -0.21 0.43 1.29 11888
0.01 -0.00 0.45 -2.92 9.83 -0.24 0.45 1.28 11895
0.03 -0.00 0.35 -3.30 9.56 -0.24 0.47 1.27 11901
0.04 -0.00 0.32 -3.64 9.34 -0.22 0.50 1.26 11908
0.04 -0.00 0.21 -3.90 9.26 -0.19 0.53 1.26 11914
0.02 -0.00 0.06 -4.07 9.35 -0.16 0.55 1.24 11920
0.03 -0.00 0.02 -4.09 9.42 -0.11 0.56 1.23 11926
0.04 -0.00 -0.08 -4.03 9.52 -0.12 0.58 1.21 11932
0.04 -0.00 -0.21 -3.88 9.44 -0.11 0.61 1.20 11938
0.04 -0.00 -0.48 -3.85 9.41 -0.10 0.65 1.19 11945
0.04 -0.00 -0.86 -3.81 9.40 -0.09 0.66 1.19 11952
0.04 -0.00 -1.20 -3.76 9.41 -0.06 0.64 1.19 11958
0.03 -0.00 -1.42 -3.60 9.45 -0.04 0.59 1.20 11964
0.05 -0.00 -1.56 -3.39 9.38 -0.03 0.51 1.22 11970
0.04 -0.00 -1.47 -3.29 9.25 -0.02 0.42 1.25 11976
0.03 -0.00 -1.32 -3.33 9.26 -0.04 0.33 1.28 11983
0.04 -0.00 -1.27 -3.47 9.05 -0.04 0.29 1.28 11990
0.03 -0.00 -1.40 -3.68 8.52 -0.04 0.30 1.27 11996
0.03 -0.00 -1.95 -3.85 7.99 -0.02 0.34 1.23 12002
0.03 -0.00 -2.50 -3.98 7.84 0.04 0.38 1.17 12008
0.04 -0.00 -2.98 -3.88 7.72 0.11 0.40 1.09 12014
0.04 -0.00 -3.29 -3.61 7.70 0.17 0.39 1.01 12020
0.03 -0.00 -3.48 -3.15 7.64 0.22 0.37 0.95 12027
0.04 -0.00 -3.62 -2.78 7.57 0.24 0.34 0.91 12034
0.03 -0.00 -3.55 -2.27 7.46 0.25 0.29 0.90 12040
0.03 -0.00 -3.27 -1.89 7.29 0.25 0.21 0.91 12046
0.03 -0.00 -2.94 -1.86 6.59 0.26 0.18 0.94 12052
0.04 -0.00 -2.39 -1.80 6.00 0.27 0.12 0.98 12058
0.03 -0.00 -1.47 -1.49 5.50 0.33 0.08 1.05 12064
0.02 -0.00 -47.19 -10.51 23.49 1.19 -4.17 1.38 12071
0.03 -0.00 -29.14 -5.22 6.24 0.89 -4.28 1.89 12078
0.04 -0.00 -3.08 -3.74 -2.19 0.19 -4.28 2.07 12084
0.02 0.15 -25.80 22.14 78.47 1.18 -4.28 1.45 12090
0.01 0.46 -8.03 0.42 25.27 -0.35 -0.93 1.11 12097
0.00 0.65 -13.22 -4.68 18.14 -0.27 -0.38 0.42 12103
0.03 0.75 -2.45 0.79 11.41 -0.15 -0.23 -0.11 12109
-0.00 0.65 1.30 0.95 9.02 0.07 -0.11 -0.12 12116
0.02 0.54 3.94 -0.07 9.57 0.25 -0.17 0.07 12123
0.03 0.44 3.15 0.45 10.01 0.21 -0.13 0.31 12129
0.03 0.34 -0.19 -0.87 10.38 0.08 -0.18 0.38 12135
0.05 0.35 -0.52 -1.79 9.60 0.00 -0.19 0.28 12141
0.03 0.33 0.07 -2.13 9.77 0.03 -0.11 0.17 12148
0.03 0.36 0.03 -1.25 9.84 -0.03 -0.09 0.13 12154
0.04 0.39 0.24 -1.60 9.93 -0.06 -0.06 0.11 12161
0.05 0.44 0.07 -1.08 10.02 -0.07 -0.04 0.08 12167
0.05 0.50 0.61 -0.99 10.06 -0.09 -0.05 0.06 12173
0.06 0.54 0.54 -0.75 10.12 -0.08 -0.05 0.04 12180
0.03 0.59 0.47 -0.60 10.17 -0.06 -0.04 0.04 12186
0.05 0.58 0.47 -0.62 10.02 -0.04 -0.02 0.04 12192
0.05 0.60 0.50 -0.70 9.86 -0.03 -0.02 0.04 12198
0.05 0.58 0.59 -0.83 9.93 -0.03 -0.00 0.05 12206
0.05 0.59 0.51 -0.87 10.10 -0.03 0.01 0.06 12212
0.04 0.61 0.48 -0.91 9.83 -0.04 0.00 0.07 12218
0.03 0.64 0.58 -0.86 10.08 -0.04 0.01 0.07 12224
0.04 0.62 0.57 -0.80 9.92 -0.04 0.02 0.08 12230
0.03 0.64 0.64 -0.83 10.32 -0.03 0.02 0.08 12237
0.04 0.67 0.64 -0.75 10.15 -0.01 0.02 0.08 12243
0.06 0.64 0.64 -0.73 10.04 0.00 0.03 0.07 12250
0.07 0.58 0.67 -0.81 10.09 0.00 0.02 0.08 12256
0.07 0.61 0.65 -0.88 9.93 0.00 0.03 0.07 12262
0.09 0.57 0.70 -0.85 10.14 -0.00 0.03 0.07 12269
0.05 0.54 0.68 -0.84 9.95 -0.01 0.03 0.06 12275
0.07 0.56 0.69 -0.81 10.07 -0.01 0.04 0.06 12281
0.08 0.56 0.60 -0.74 9.96 -0.01 0.04 0.05 12288
0.06 0.55 0.64 -0.77 9.95 -0.00 0.04 0.06 12294
0.08 0.54 0.64 -0.74 9.97 -0.00 0.04 0.06 12301
0.08 0.53 0.69 -0.74 10.00 0.00 0.03 0.06 12307
0.09 0.53 0.63 -0.69 10.02 0.00 0.04 0.06 12313
0.10 0.53 0.69 -0.75 9.98 0.00 0.03 0.07 12319
0.09 0.53 0.66 -0.81 10.01 0.00 0.04 0.07 12325
0.09 0.53 0.70 -0.77 10.02 0.00 0.03 0.07 12333
0.10 0.52 0.71 -0.80 9.97 0.00 0.03 0.07 12339
0.08 0.50 0.72 -0.79 10.09 -0.00 0.03 0.06 12345
0.09 0.51 0.78 -0.79 10.04 0.00 0.02 0.06 12351
0.10 0.49 0.76 -0.81 10.03 0.00 0.02 0.06 12357
0.09 0.48 0.78 -0.79 10.01 0.00 0.02 0.05 12364
0.09 0.48 0.80 -0.76 10.02 -0.00 0.01 0.05 12370
0.11 0.44 0.76 -0.79 9.99 -0.00 0.00 0.05 12377
0.11 0.44 0.73 -0.79 9.99 0.00 -0.00 0.04 12383
0.10 0.45 0.73 -0.78 10.04 -0.01 -0.00 0.04 12389
0.10 0.43 0.70 -0.81 9.99 -0.00 -0.01 0.04 12396
0.09 0.44 0.74 -0.82 10.04 -0.01 -0.01 0.05 12402
0.10 0.46 0.74 -0.78 9.98 -0.00 -0.01 0.04 12408
0.09 0.47 0.79 -0.82 9.94 -0.01 -0.02 0.04 12414
0.07 0.47 0.79 -0.83 10.01 -0.01 -0.02 0.04 12421
0.10 0.49 0.76 -0.82 10.01 -0.01 -0.02 0.04 12428
0.09 0.48 0.70 -0.80 10.04 -0.01 -0.02 0.04 12434
0.08 0.48 0.74 -0.75 9.99 -0.01 -0.02 0.04 12440
0.09 0.48 0.75 -0.77 10.00 -0.02 -0.02 0.03 12446
0.09 0.48 0.76 -0.80 10.00 -0.01 -0.03 0.04 12453
0.09 0.51 0.76 -0.77 9.97 -0.01 -0.03 0.04 12460
0.09 0.49 0.72 -0.78 9.95 -0.02 -0.03 0.04 12466
0.08 0.50 0.73 -0.77 9.96 -0.02 -0.03 0.03 12472
0.08 0.54 0.75 -0.76 9.99 -0.02 -0.03 0.03 12478
0.08 0.53 0.72 -0.78 9.97 -0.02 -0.03 0.03 12485
0.07 0.53 0.69 -0.79 10.02 -0.02 -0.02 0.03 12491
0.08 0.55 0.71 -0.75 10.02 -0.01 -0.02 0.03 12497
0.07 0.52 0.72 -0.80 9.91 -0.01 -0.02 0.03 12504
0.05 0.55 0.75 -0.76 10.04 -0.01 -0.02 0.03 12510
0.07 0.55 0.75 -0.79 9.98 -0.01 -0.01 0.03 12517
0.06 0.55 0.73 -0.77 9.96 -0.01 -0.01 0.03 12523
0.04 0.52 0.71 -0.79 9.95 -0.02 -0.01 0.03 12529
0.06 0.53 0.75 -0.78 9.93 -0.01 -0.00 0.03 12535
0.05 0.54 0.73 -0.71 9.97 -0.01 -0.00 0.03 12541
0.03 0.52 0.76 -0.71 10.01 -0.00 -0.00 0.03 12549
0.06 0.52 0.74 -0.73 10.00 0.00 0.00 0.02 12555
0.06 0.51 0.77 -0.77 10.01 0.00 -0.00 0.02 12561
0.05 0.50 0.76 -0.78 10.00 0.00 -0.01 0.02 12567
0.07 0.49 0.77 -0.78 9.98 -0.03 -0.01 0.02 12573
0.05 0.48 0.78 -0.78 9.97 -0.00 -0.02 0.02 12580
0.05 0.49 0.75 -0.78 9.99 -0.01 -0.03 0.02 12587
0.06 0.50 0.76 -0.77 9.97 -0.01 -0.03 0.01 12593
0.05 0.49 0.76 -0.74 9.97 -0.00 -0.03 0.01 12599
0.07 0.49 0.78 -0.78 9.93 -0.01 -0.04 0.01 12605
0.08 0.49 0.73 -0.80 9.99 -0.00 -0.03 0.01 12611
0.07 0.46 0.71 -0.78 9.97 0.00 -0.02 0.01 12618
0.07 0.44 0.78 -0.75 10.02 0.00 -0.02 0.01 12624
0.08 0.42 0.75 -0.78 9.98 0.00 -0.02 0.00 12631
0.08 0.38 0.77 -0.77 10.01 0.00 -0.01 0.00 12637
0.08 0.38 0.76 -0.79 10.02 0.01 -0.00 0.01 12643
0.08 0.38 0.76 -0.80 9.97 0.00 -0.00 0.01 12650
0.08 0.36 0.75 -0.80 10.01 0.00 -0.00 0.01 12656
0.07 0.37 0.75 -0.80 9.95 0.00 0.01 0.01 12662
0.08 0.38 0.76 -0.80 9.98 0.00 0.01 0.01 12668
0.07 0.34 0.77 -0.77 9.96 0.00 0.01 0.01 12675
0.05 0.33 0.76 -0.72 10.00 0.00 0.01 0.00 12681
0.08 0.33 0.77 -0.72 9.99 0.00 0.01 0.00 12688
0.08 0.30 0.79 -0.76 10.01 0.01 0.01 -0.00 12694
0.07 0.27 0.78 -0.80 9.99 0.01 0.01 0.00 12700
0.10 0.28 0.76 -0.81 9.96 0.01 0.01 -0.00 12706
0.09 0.22 0.80 -0.75 10.02 0.01 0.01 0.00 12712
0.09 0.22 0.81 -0.80 9.96 0.01 0.01 0.00 12720
0.13 0.20 0.83 -0.79 9.95 0.01 0.01 0.00 12726
0.10 0.22 0.81 -0.80 9.93 0.00 0.01 0.00 12732
0.09 0.24 0.80 -0.78 9.97 -0.00 0.01 0.01 12738
0.11 0.23 0.80 -0.78 9.99 -0.01 0.00 0.01 12744
0.10 0.22 0.76 -0.82 9.95 -0.01 0.00 0.01 12750
0.07 0.22 0.80 -0.84 9.99 -0.01 -0.00 0.01 12758
0.08 0.25 0.80 -0.80 9.97 -0.02 -0.01 0.02 12764
0.07 0.26 0.80 -0.79 10.01 -0.02 -0.01 0.02 12770
0.04 0.31 0.80 -0.75 10.07 -0.02 -0.01 0.02 12776
0.06 0.31 0.84 -0.80 10.04 -0.02 -0.01 0.02 12782
0.06 0.32 0.78 -0.78 9.97 -0.02 -0.01 0.02 12789
0.04 0.33 0.81 -0.77 9.96 -0.02 -0.01 0.02 12795
0.06 0.33 0.79 -0.74 9.99 -0.02 -0.01 0.03 12802
0.06 0.33 0.80 -0.80 9.99 -0.02 -0.02 0.02 12808
0.03 0.38 0.82 -0.76 9.99 -0.02 -0.02 0.02 12814
0.04 0.41 0.84 -0.79 9.97 -0.02 -0.06 0.03 12820
0.04 0.41 0.83 -0.80 9.97 -0.02 -0.04 0.03 12827
0.03 0.41 0.75 -0.78 9.93 -0.02 -0.04 0.03 12833
0.04 0.44 0.78 -0.77 9.95 -0.02 -0.04 0.02 12839
0.03 0.47 0.80 -0.77 10.00 -0.02 -0.04 0.03 12846
0.02 0.48 0.83 -0.74 9.98 -0.01 -0.04 0.03 12852
0.04 0.47 0.80 -0.78 9.93 -0.01 -0.04 0.03 12859
0.02 0.49 0.85 -0.78 9.96 -0.01 -0.04 0.03 12865
0.02 0.50 0.83 -0.73 9.99 -0.01 -0.04 0.03 12871
0.04 0.50 0.80 -0.75 10.02 -0.00 -0.04 0.03 12877
0.02 0.49 0.80 -0.78 9.97 -0.03 -0.03 0.02 12883
0.02 0.50 0.77 -0.77 10.01 -0.00 -0.03 0.02 12891
0.04 0.50 0.85 -0.75 10.01 0.00 -0.03 0.03 12897
0.03 0.49 0.80 -0.77 9.97 0.00 -0.03 0.03 12903
0.02 0.48 0.79 -0.75 9.98 0.00 -0.03 0.03 12909
0.06 0.49 0.76 -0.71 10.02 0.01 -0.03 0.03 12915
0.04 0.47 0.81 -0.74 10.01 0.01 -0.02 0.03 12922
0.03 0.47 0.80 -0.75 10.03 0.02 -0.02 0.03 12929
0.06 0.43 0.79 -0.79 10.04 0.02 -0.02 0.03 12935
0.06 0.41 0.82 -0.78 9.95 0.02 -0.02 0.03 12941
0.06 0.40 0.82 -0.78 9.95 0.02 -0.03 0.03 12947
0.06 0.37 0.83 -0.78 9.98 0.02 -0.04 0.03 12954
0.05 0.35 0.82 -0.76 9.97 0.03 -0.04 0.03 12960
0.06 0.30 0.84 -0.80 9.95 0.03 -0.05 0.03 12966
0.08 0.26 0.87 -0.80 9.96 0.03 -0.06 0.03 12973
0.07 0.25 0.84 -0.81 9.98 0.03 -0.07 0.03 12979
0.07 0.22 0.84 -0.83 10.02 0.03 -0.08 0.03 12985
0.08 0.16 0.83 -0.83 9.93 0.03 -0.08 0.03 12992
0.08 0.13 0.81 -0.80 9.99 0.03 -0.09 0.02 12998
0.08 0.10 0.87 -0.85 9.91 0.03 -0.09 0.02 13004
0.09 0.07 0.92 -0.81 10.02 0.04 -0.09 0.02 13010
0.08 0.04 0.91 -0.81 10.04 0.05 -0.09 0.01 13017
0.08 0.04 0.88 -0.80 10.04 0.06 -0.09 -0.00 13024
0.10 0.01 0.89 -0.82 10.13 0.08 -0.09 -0.01 13030
0.09 -0.01 0.89 -0.82 10.13 0.11 -0.10 -0.02 13036
0.11 -0.01 0.90 -0.86 10.15 0.13 -0.10 -0.04 13042
0.16 -0.01 0.92 -0.85 10.23 0.15 -0.11 -0.05 13049
0.16 -0.02 1.26 -1.01 10.54 0.20 -0.12 -0.08 13056
0.21 -0.02 1.55 -0.98 10.73 0.30 -0.13 -0.14 13062
0.17 -0.02 1.99 -1.05 11.18 0.48 -0.12 -0.25 13068
0.17 -0.01 2.55 -1.62 12.98 0.77 -0.12 -0.36 13074
0.19 -0.02 1.30 -1.34 14.78 1.32 -0.08 -0.45 13081
0.26 -0.02 1.57 -1.47 14.49 1.77 -0.23 -0.49 13087
0.31 -0.03 1.67 -1.69 13.29 1.98 -0.40 -0.53 13093
0.31 -0.03 1.70 -1.71 13.20 2.10 -0.58 -0.58 13100
0.29 -0.02 2.25 -1.96 12.82 2.17 -0.77 -0.62 13107
0.28 -0.02 2.91 -2.35 12.92 2.26 -0.93 -0.70 13113
0.24 -0.01 3.11 -2.82 12.39 2.28 -1.08 -0.80 13119
0.24 -0.01 3.67 -3.06 12.41 2.34 -1.24 -0.93 13126
0.23 -0.02 3.28 -3.38 12.72 2.33 -1.32 -1.08 13132
0.17 -0.00 5.02 -3.62 12.05 2.26 -1.38 -1.24 13138
0.18 -0.02 5.70 -4.20 11.74 2.19 -1.35 -1.41 13145
0.12 -0.01 5.59 -3.86 11.31 2.08 -1.24 -1.59 13152
0.12 -0.01 6.30 -4.09 12.27 1.96 -1.12 -1.76 13158
0.08 -0.01 6.92 -4.55 13.01 1.80 -0.98 -1.93 13164
0.07 -0.01 7.16 -4.56 13.28 1.73 -0.78 -2.12 13170
0.06 -0.01 7.08 -5.78 13.43 1.60 -0.62 -2.35 13177
0.05 -0.01 6.64 -4.83 14.02 1.44 -0.57 -2.55 13184
0.07 -0.01 6.56 -4.20 14.13 1.26 -0.57 -2.71 13190
0.06 -0.01 5.83 -3.74 13.54 1.04 -0.60 -2.87 13196
0.04 -0.00 5.63 -3.18 13.41 0.75 -0.79 -3.03 13202
0.07 -0.01 5.70 -0.91 12.40 0.41 -1.21 -3.15 13209
0.05 -0.00 6.12 1.23 11.09 0.04 -1.81 -3.22 13215
0.04 -0.00 8.88 5.02 8.66 -0.32 -2.36 -3.09 13221
0.04 -0.00 11.86 5.54 5.42 -0.57 -2.68 -2.53 13228
0.03 -0.00 11.57 2.07 7.04 -0.69 -2.43 -1.70 13234
0.04 -0.00 13.82 0.58 12.35 -1.03 -1.81 -1.01 13241
0.03 -0.00 15.14 1.20 11.00 -1.43 -1.41 -0.51 13247
0.04 -0.00 14.50 1.55 9.36 -1.54 -1.24 -0.17 13253
0.05 -0.01 13.11 1.39 7.17 -1.52 -1.06 0.09 13259
0.04 -0.00 11.85 1.12 4.82 -1.42 -0.76 0.30 13266
0.04 -0.00 11.00 1.13 3.98 -1.23 -0.33 0.49 13273
0.05 -0.00 10.65 1.25 4.59 -0.94 0.19 0.60 13279
0.04 -0.00 10.43 0.92 5.22 -0.72 0.67 0.64 13285
0.04 -0.00 9.68 0.79 5.87 -0.47 1.09 0.60 13291
0.04 -0.00 8.75 1.08 6.58 -0.29 1.39 0.51 13297
0.04 -0.00 7.60 1.31 7.80 -0.19 1.69 0.37 13303
0.04 -0.00 6.68 1.42 8.89 -0.17 1.94 0.28 13310
0.04 0.00 5.62 1.32 9.95 -0.22 2.08 0.15 13317
0.03 -0.00 4.50 1.18 10.91 -0.32 2.13 0.04 13323
0.03 -0.00 3.56 0.69 11.70 -0.45 2.07 -0.06 13329
0.05 -0.00 2.84 0.09 12.14 -0.60 1.95 -0.14 13335
0.04 -0.00 2.32 -0.30 12.39 -0.74 1.81 -0.21 13342
0.05 -0.00 2.05 -0.71 12.30 -0.84 1.71 -0.26 13348
0.05 -0.01 1.92 -1.19 11.95 -0.93 1.65 -0.33 13355
0.04 -0.00 1.85 -1.69 11.52 -1.00 1.62 -0.42 13361
0.03 -0.00 1.86 -2.11 11.26 -1.02 1.63 -0.51 13367
0.06 -0.01 1.83 -2.35 10.90 -0.99 1.73 -0.59 13374
0.04 -0.00 1.72 -2.43 10.51 -0.93 1.80 -0.66 13380
0.05 -0.00 1.57 -2.53 10.18 -0.84 1.90 -0.72 13386
0.04 -0.00 1.50 -2.63 10.12 -0.74 1.98 -0.75 13392
0.05 -0.00 1.37 -2.70 10.16 -0.62 2.01 -0.77 13399
0.05 -0.00 1.08 -2.72 10.37 -0.50 2.01 -0.75 13406
0.04 -0.00 0.64 -2.74 10.49 -0.37 2.01 -0.71 13412
0.05 -0.00 0.32 -2.53 10.75 -0.25 1.98 -0.64 13418
0.04 -0.00 0.22 -2.19 11.29 -0.16 1.96 -0.54 13424
0.04 -0.00 0.22 -1.71 11.81 -0.11 1.96 -0.41 13431
0.04 -0.00 0.09 -1.27 12.18 -0.10 1.99 -0.24 13437
0.04 -0.00 -0.13 -0.80 12.42 -0.14 2.00 -0.03 13444
0.05 -0.00 -0.36 -0.45 12.54 -0.23 1.99 0.21 13450
0.04 -0.00 -0.68 -0.22 12.39 -0.28 1.97 0.48 13456
0.04 -0.00 -1.05 -0.20 11.86 -0.37 1.92 0.75 13462
0.04 -0.00 -1.37 -0.42 11.23 -0.45 1.85 1.01 13469
0.03 -0.00 -1.66 -0.81 10.89 -0.49 1.76 1.22 13475
0.05 -0.01 -1.93 -1.16 10.63 -0.50 1.69 1.41 13481
0.04 -0.00 -2.25 -1.31 10.30 -0.48 1.65 1.56 13488
0.04 -0.00 -2.52 -1.31 10.19 -0.46 1.63 1.67 13495
0.05 -0.01 -2.89 -1.53 10.18 -0.45 1.61 1.70 13501
0.04 -0.00 -3.21 -1.70 10.36 -0.45 1.56 1.73 13507
0.03 -0.00 -3.51 -1.92 10.50 -0.46 1.47 1.74 13513
0.04 -0.00 -3.72 -2.08 10.56 -0.48 1.38 1.75 13519
0.03 -0.00 -3.89 -2.30 10.58 -0.49 1.27 1.76 13527
0.04 -0.00 -3.73 -2.56 10.82 -0.50 1.15 1.79 13533
0.03 -0.00 -3.37 -2.81 11.42 -0.52 1.02 1.83 13539
0.02 -0.00 -2.85 -2.98 11.75 -0.58 0.92 1.88 13545
0.03 -0.00 -2.63 -3.38 11.60 -0.66 0.85 1.95 13551
0.03 -0.00 -2.74 -4.08 11.23 -0.77 0.82 2.03 13558
0.01 -0.00 -3.09 -4.90 10.52 -0.79 0.79 2.11 13564
0.03 -0.00 -3.67 -5.72 9.91 -0.79 0.77 2.18 13571
0.02 -0.00 -4.16 -6.38 9.45 -0.72 0.71 2.26 13577
0.01 -0.00 -4.60 -6.57 9.13 -0.62 0.69 2.36 13583
0.02 -0.00 -5.10 -6.52 9.13 -0.52 0.63 2.49 13589
0.03 -0.00 -5.80 -6.28 9.47 -0.42 0.53 2.58 13596
0.03 -0.00 -6.84 -5.88 9.83 -0.37 0.40 2.70 13602
0.03 -0.00 -7.69 -5.22 9.83 -0.38 0.21 2.80 13608
0.04 -0.00 -8.01 -4.36 9.35 -0.44 -0.04 2.87 13615
0.03 -0.00 -8.68 -4.71 8.42 -0.51 -0.31 2.89 13621
0.02 -0.00 -20.34 -18.66 35.74 0.64 -4.20 2.85 13628
0.04 0.00 -16.36 -12.56 -0.26 0.53 -4.27 2.84 13634
0.03 0.02 -13.54 -19.81 -10.07 0.23 -4.28 2.47 13640
0.04 0.05 -20.22 -26.06 9.72 0.73 -4.28 1.76 13647
0.01 0.38 -15.00 -2.98 32.54 1.99 -4.25 1.47 13654
0.03 0.73 -14.85 -8.20 41.63 2.83 -2.65 1.10 13660
-0.00 0.89 -9.32 1.16 32.21 2.15 -1.86 0.66 13666
0.02 0.93 -5.06 3.68 16.70 1.08 -1.20 0.30 13673
0.01 0.86 -2.40 0.63 14.77 0.38 -0.40 0.04 13679
0.01 0.75 2.62 0.21 5.54 0.31 -0.17 0.01 13685
0.01 0.67 5.08 -0.16 1.45 1.03 -0.46 0.16 13691
0.02 0.56 6.92 -0.56 7.56 2.05 -0.93 0.42 13699
0.01 0.60 0.06 -2.02 19.71 1.38 -1.75 0.69 13705
0.00 0.59 -2.23 -1.66 15.85 0.44 -1.10 0.63 13711
0.01 0.61 -2.98 -2.45 11.39 0.07 -0.34 0.36 13717
0.02 0.64 -1.74 -1.74 10.15 0.03 -0.19 0.16 13724
0.02 0.62 0.56 -1.12 9.85 0.01 -0.08 0.10 13730
0.05 0.68 0.72 -1.01 10.30 -0.01 -0.06 0.09 13736
0.05 0.71 0.74 -0.78 10.17 -0.02 -0.07 0.08 13743
0.04 0.69 0.51 -0.33 10.04 -0.00 -0.05 0.09 13750
0.03 0.70 0.35 -0.51 10.08 -0.00 -0.05 0.08 13756
0.02 0.67 0.72 -0.74 9.93 -0.00 -0.05 0.08 13762
0.05 0.64 0.74 -0.85 9.99 -0.00 -0.05 0.09 13768
0.09 0.68 0.58 -0.89 10.32 -0.02 -0.06 0.09 13774
0.08 0.67 0.63 -0.86 9.96 -0.03 -0.06 0.08 13782
0.07 0.66 0.67 -0.88 10.05 -0.04 -0.06 0.06 13788
0.09 0.66 0.67 -0.79 10.06 -0.04 -0.06 0.06 13794
0.08 0.67 0.60 -0.75 10.26 -0.03 -0.05 0.06 13800
0.08 0.69 0.58 -0.76 10.11 -0.02 -0.04 0.06 13806
0.08 0.66 0.66 -0.73 10.14 -0.02 -0.03 0.06 13813
0.11 0.66 0.63 -0.78 10.13 -0.02 -0.03 0.06 13819
0.12 0.67 0.70 -0.76 10.08 -0.02 -0.03 0.07 13826
0.12 0.64 0.71 -0.73 10.03 -0.02 -0.03 0.07 13832
0.11 0.66 0.72 -0.76 10.02 -0.02 -0.04 0.06 13839
0.09 0.65 0.67 -0.75 10.11 -0.02 -0.04 0.06 13845
0.09 0.65 0.65 -0.68 10.02 -0.02 -0.04 0.06 13851
0.12 0.67 0.71 -0.70 9.99 -0.02 -0.03 0.07 13857
0.10 0.65 0.64 -0.69 9.96 -0.01 -0.03 0.06 13864
0.09 0.65 0.66 -0.73 10.01 -0.01 -0.03 0.06 13871
0.11 0.65 0.68 -0.73 10.04 -0.01 -0.02 0.06 13877
0.10 0.60 0.64 -0.69 9.94 -0.01 -0.03 0.06 13883
0.12 0.59 0.68 -0.72 10.03 -0.01 -0.02 0.06 13889
0.12 0.61 0.68 -0.71 9.98 -0.01 -0.02 0.06 13896
0.11 0.59 0.70 -0.71 10.02 -0.01 -0.02 0.06 13902
0.14 0.59 0.67 -0.68 9.99 -0.00 -0.02 0.06 13908
0.13 0.57 0.69 -0.72 9.99 -0.00 -0.02 0.06 13915
0.13 0.57 0.67 -0.74 10.05 -0.00 -0.02 0.05 13922
0.15 0.56 0.67 -0.75 9.98 0.01 -0.01 0.06 13928
0.14 0.48 0.68 -0.70 10.03 0.00 -0.01 0.06 13934
0.14 0.44 0.65 -0.72 10.02 0.00 -0.01 0.06 13940
0.15 0.43 0.64 -0.68 9.99 0.01 -0.00 0.06 13946
0.14 0.41 0.66 -0.70 10.05 0.01 0.00 0.06 13954
0.14 0.36 0.66 -0.68 10.02 0.01 0.00 0.06 13960
0.16 0.32 0.75 -0.72 9.96 0.01 0.00 0.06 13966
0.16 0.33 0.73 -0.68 10.00 0.01 0.00 0.06 13972
0.15 0.36 0.68 -0.74 10.02 0.01 0.01 0.05 13978
0.16 0.35 0.72 -0.71 9.98 0.01 0.00 0.05 13985
0.16 0.27 0.72 -0.73 10.00 0.01 0.01 0.05 13991
0.16 0.29 0.69 -0.69 9.96 0.01 0.01 0.05 13998
0.17 0.29 0.74 -0.70 10.00 0.01 0.01 0.04 14004
0.15 0.28 0.73 -0.70 10.01 0.01 0.02 0.04 14010
0.16 0.27 0.73 -0.64 10.00 0.01 0.02 0.04 14017
0.16 0.25 0.76 -0.76 9.96 0.01 0.02 0.04 14023
0.16 0.28 0.72 -0.76 9.96 0.01 0.02 0.04 14029
0.16 0.26 0.70 -0.73 10.06 0.01 0.02 0.03 14035
0.14 0.26 0.73 -0.74 10.04 0.01 0.03 0.03 14042
0.16 0.24 0.77 -0.74 10.00 0.01 0.03 0.03 14049
0.16 0.24 0.76 -0.71 10.06 0.01 0.03 0.00 14055
0.17 0.20 0.77 -0.73 9.92 0.01 0.03 0.03 14061
0.16 0.23 0.80 -0.75 10.02 0.01 0.02 0.03 14067
0.17 0.19 0.81 -0.74 9.98 0.00 0.02 0.03 14073
0.16 0.17 0.79 -0.80 9.98 -0.00 0.01 0.03 14081
0.16 0.17 0.77 -0.79 10.02 -0.01 0.01 0.02 14087
0.17 0.17 0.80 -0.80 10.01 -0.00 0.01 0.02 14093
0.16 0.16 0.79 -0.75 9.97 -0.01 0.01 0.02 14099
0.17 0.18 0.76 -0.72 10.03 -0.01 0.01 0.02 14105
0.16 0.17 0.74 -0.74 10.00 -0.01 0.01 0.02 14112
0.16 0.17 0.79 -0.75 9.93 -0.01 0.02 0.01 14118
0.16 0.18 0.78 -0.70 10.00 -0.01 0.02 0.02 14125
0.17 0.16 0.78 -0.74 10.04 0.00 0.02 0.01 14131
0.17 0.14 0.77 -0.72 10.04 0.00 0.01 0.01 14138
0.18 0.12 0.77 -0.68 10.06 0.01 0.02 0.01 14144
0.18 0.12 0.81 -0.74 10.07 0.01 0.01 0.01 14150
0.17 0.09 0.85 -0.74 10.04 0.01 0.01 0.01 14156
0.18 0.09 0.84 -0.74 10.01 0.01 0.01 0.01 14162
0.18 0.08 0.80 -0.73 10.00 0.01 0.01 0.01 14170
0.17 0.08 0.84 -0.75 9.98 0.01 -0.00 0.01 14176
0.17 0.07 0.84 -0.78 9.98 0.00 -0.01 0.01 14182
0.17 0.05 0.84 -0.75 9.98 -0.00 -0.01 0.01 14188
0.17 0.06 0.80 -0.78 9.98 -0.01 -0.02 0.01 14194
0.17 0.08 0.83 -0.77 10.00 -0.01 -0.02 0.01 14201
0.17 0.07 0.83 -0.79 9.99 -0.02 -0.03 0.01 14208
0.17 0.08 0.86 -0.75 9.98 -0.01 -0.03 0.01 14214
0.17 0.08 0.84 -0.75 10.02 -0.02 -0.03 0.01 14220
0.16 0.09 0.83 -0.77 10.02 -0.02 -0.03 0.01 14226
0.15 0.12 0.80 -0.72 10.02 -0.01 -0.04 0.01 14233
0.15 0.11 0.85 -0.76 10.07 -0.01 -0.04 0.01 14239
0.15 0.13 0.82 -0.74 10.01 -0.01 -0.04 0.01 14245
0.16 0.14 0.84 -0.73 10.05 -0.02 -0.05 0.01 14252
0.14 0.12 0.80 -0.73 9.99 -0.02 -0.05 0.01 14258
0.12 0.15 0.83 -0.74 9.97 -0.02 -0.06 0.01 14265
0.12 0.18 0.80 -0.76 10.00 -0.02 -0.06 0.01 14271
0.11 0.19 0.82 -0.76 10.00 -0.03 -0.06 0.01 14277
0.11 0.25 0.77 -0.71 9.96 -0.03 -0.07 0.00 14283
0.12 0.25 0.76 -0.78 9.99 -0.04 -0.07 0.00 14290
0.10 0.28 0.80 -0.77 9.93 -0.04 -0.08 0.00 14297
0.09 0.32 0.75 -0.73 9.93 -0.04 -0.07 0.00 14303
0.10 0.31 0.74 -0.70 9.99 -0.04 -0.07 0.00 14309
0.08 0.34 0.81 -0.67 10.07 -0.03 -0.06 0.00 14315
0.09 0.33 0.75 -0.69 9.98 -0.02 -0.05 -0.00 14321
0.09 0.33 0.78 -0.74 9.95 -0.02 -0.04 -0.00 14328
0.09 0.35 0.82 -0.68 9.99 -0.01 -0.04 -0.00 14334
0.10 0.36 0.84 -0.71 10.07 -0.01 -0.04 0.00 14341
0.10 0.35 0.82 -0.73 10.04 -0.00 -0.03 0.00 14347
0.08 0.36 0.80 -0.70 10.05 -0.00 -0.03 0.00 14353
0.10 0.35 0.79 -0.73 10.00 0.00 -0.03 0.00 14360
0.07 0.35 0.78 -0.76 9.98 0.00 -0.03 0.00 14366
0.05 0.36 0.79 -0.72 10.00 -0.00 -0.04 0.00 14372
0.09 0.34 0.72 -0.73 10.00 -0.01 -0.04 0.01 14379
0.09 0.33 0.73 -0.74 9.96 -0.01 -0.04 0.00 14386
0.08 0.34 0.70 -0.75 9.98 -0.01 -0.04 0.01 14392
0.10 0.34 0.79 -0.76 10.01 -0.01 -0.04 0.01 14398
0.09 0.33 0.77 -0.73 9.99 -0.02 -0.03 0.01 14404
0.09 0.36 0.77 -0.76 9.99 -0.01 -0.04 0.01 14410
0.08 0.34 0.79 -0.73 10.01 -0.01 -0.03 0.01 14417
0.10 0.33 0.77 -0.75 9.98 -0.01 -0.04 0.01 14424
0.08 0.37 0.80 -0.77 9.94 -0.01 -0.04 0.01 14430
0.11 0.35 0.81 -0.72 9.95 -0.01 -0.03 0.01 14436
0.09 0.33 0.82 -0.72 10.04 -0.01 -0.04 0.01 14442
0.11 0.33 0.81 -0.71 10.04 -0.00 -0.03 0.01 14449
0.14 0.30 0.79 -0.72 10.03 0.00 -0.03 0.01 14455
0.13 0.28 0.85 -0.74 10.05 0.01 -0.03 0.01 14461
0.12 0.29 0.83 -0.78 10.02 0.01 -0.03 0.01 14468
0.12 0.25 0.82 -0.77 10.02 0.02 -0.03 0.01 14475
0.12 0.21 0.81 -0.80 10.01 0.02 -0.03 0.01 14481
0.16 0.17 0.80 -0.74 10.02 0.02 -0.04 0.01 14487
0.15 0.15 0.82 -0.73 10.03 0.02 -0.03 0.01 14493
0.15 0.15 0.82 -0.74 10.04 0.03 -0.03 0.01 14499
0.14 0.12 0.75 -0.72 10.01 0.03 -0.04 0.01 14507
0.16 0.09 0.81 -0.78 10.01 0.03 -0.04 0.01 14513
0.18 0.08 0.82 -0.81 10.05 0.04 -0.04 0.00 14519
0.19 0.04 0.82 -0.75 10.07 0.04 -0.04 0.00 14525
0.20 0.05 0.82 -0.74 10.06 0.05 -0.04 -0.00 14532
0.22 0.02 0.84 -0.79 10.09 0.06 -0.05 -0.01 14538
0.21 0.03 0.82 -0.80 10.09 0.06 -0.04 -0.01 14544
0.23 0.01 0.90 -0.78 10.16 0.08 -0.04 -0.02 14551
0.22 -0.02 0.92 -0.83 10.19 0.09 -0.05 -0.03 14557
0.22 -0.02 1.05 -1.16 10.23 0.11 -0.06 -0.04 14564
0.21 -0.01 1.01 -0.95 10.32 0.13 -0.06 -0.06 14570
0.19 -0.02 1.10 -0.89 10.20 0.16 -0.07 -0.09 14576
0.20 -0.02 1.37 -0.94 10.13 0.19 -0.08 -0.14 14582
0.22 -0.02 1.54 -0.98 10.60 0.24 -0.09 -0.20 14589
0.22 -0.02 1.43 -1.12 10.96 0.34 -0.11 -0.28 14596
0.26 -0.02 1.94 -1.24 12.07 0.54 -0.14 -0.38 14602
0.25 -0.03 2.09 -1.57 13.11 0.93 -0.17 -0.47 14608
0.26 -0.02 2.12 -1.29 13.04 1.35 -0.20 -0.55 14615
0.26 -0.02 1.88 -1.48 13.36 1.63 -0.27 -0.62 14621
0.25 -0.03 1.97 -1.58 12.99 1.79 -0.37 -0.69 14627
0.26 -0.02 2.41 -1.88 13.25 1.90 -0.52 -0.78 14633
0.25 -0.02 2.49 -2.26 12.70 2.00 -0.60 -0.86 14641
0.22 -0.01 3.25 -2.52 12.42 2.08 -0.72 -0.95 14647
0.22 -0.02 3.40 -2.74 12.57 2.16 -0.81 -1.06 14653
0.20 -0.01 3.71 -2.77 12.20 2.20 -0.98 -1.17 14659
0.17 -0.02 4.22 -3.51 12.01 2.22 -1.14 -1.28 14666
0.14 -0.01 5.10 -4.74 12.67 2.20 -1.24 -1.41 14672
0.13 0.00 7.04 -4.38 11.73 2.20 -1.24 -1.62 14679
0.10 -0.01 8.96 -4.65 11.51 2.05 -1.03 -1.90 14685
0.06 -0.01 7.99 -5.20 11.71 1.92 -0.75 -2.10 14692
0.09 -0.01 7.45 -5.25 12.30 1.75 -0.57 -2.39 14698
0.07 0.00 7.12 -5.11 12.95 1.62 -0.52 -2.65 14704
0.04 0.01 7.58 -5.08 12.75 1.53 -0.43 -2.88 14710
0.06 -0.01 6.51 -4.71 13.08 1.42 -0.40 -3.13 14717
0.04 -0.00 6.33 -3.73 13.06 1.25 -0.49 -3.32 14724
0.05 -0.00 6.13 -2.85 13.07 1.03 -0.70 -3.47 14730
0.05 -0.01 5.90 -2.31 12.52 0.80 -0.94 -3.60 14736
0.05 -0.00 5.56 -1.55 11.91 0.53 -1.25 -3.73 14742
0.07 -0.01 6.16 -0.04 11.46 0.25 -1.66 -3.82 14749
0.04 -0.00 6.27 1.98 10.19 -0.04 -2.04 -3.80 14755
0.03 -0.00 7.35 3.71 7.97 -0.26 -2.23 -3.56 14761
0.05 -0.00 10.50 2.78 6.04 -0.36 -2.14 -2.86 14768
0.04 -0.00 10.42 1.51 9.59 -0.47 -1.73 -2.16 14774
0.04 0.00 11.86 1.38 11.14 -0.84 -1.38 -1.70 14781
0.04 -0.00 11.61 1.48 9.13 -1.16 -1.28 -1.37 14787
0.04 -0.00 10.63 1.05 8.09 -1.22 -1.16 -1.10 14793
0.05 0.00 9.91 0.70 6.59 -1.16 -0.96 -0.87 14799
0.04 -0.00 10.04 0.57 5.57 -1.02 -0.79 -0.68 14807
0.03 -0.00 10.38 0.66 5.26 -0.84 -0.57 -0.53 14813
0.05 -0.00 10.58 0.88 5.65 -0.67 -0.27 -0.46 14819
0.04 -0.00 10.81 1.11 6.16 -0.51 0.14 -0.37 14825
0.03 0.00 10.76 1.32 6.89 -0.38 0.61 -0.28 14831
0.04 0.00 10.53 1.48 8.57 -0.30 1.08 -0.18 14838
0.04 -0.00 9.91 1.65 9.59 -0.27 1.45 -0.07 14844
0.04 0.00 9.19 1.88 9.98 -0.27 1.70 0.04 14851
0.04 -0.00 8.44 2.00 10.76 -0.32 1.86 0.15 14857
0.04 -0.00 7.39 1.75 11.17 -0.41 1.93 0.24 14863
0.04 -0.00 6.27 1.44 11.13 -0.51 1.93 0.29 14870
0.04 -0.00 5.44 1.21 11.23 -0.58 1.89 0.28 14876
0.05 -0.00 4.80 1.10 11.13 -0.66 1.90 0.23 14882
0.05 0.00 4.19 1.03 10.89 -0.70 1.99 0.17 14888
0.05 -0.00 3.68 1.03 10.84 -0.71 2.11 0.08 14895
0.04 -0.00 3.21 1.01 11.02 -0.71 2.32 -0.02 14902
0.04 -0.00 2.62 1.00 11.41 -0.69 2.48 -0.12 14908
0.05 -0.00 1.91 1.04 11.74 -0.68 2.66 -0.17 14914
0.04 0.00 1.07 1.04 12.35 -0.66 2.80 -0.21 14920
0.05 -0.00 0.07 1.06 12.72 -0.65 2.86 -0.19 14926
0.04 -0.00 -0.74 1.15 12.95 -0.64 2.84 -0.11 14934
0.04 -0.00 -1.48 1.14 13.00 -0.65 2.76 0.02 14940
0.06 -0.01 -1.98 0.92 12.98 -0.64 2.64 0.19 14946
0.04 -0.00 -2.35 0.39 13.02 -0.63 2.49 0.37 14952
0.03 -0.00 -2.40 -0.17 13.05 -0.61 2.32 0.54 14958
0.03 -0.00 -2.43 -0.69 12.93 -0.58 2.19 0.69 14965
0.04 -0.00 -2.46 -1.21 12.77 -0.53 2.12 0.81 14971
0.04 0.00 -2.64 -1.79 12.62 -0.48 2.10 0.91 14978
0.04 -0.00 -2.83 -2.19 12.86 -0.41 2.10 0.97 14984
0.02 -0.00 -3.19 -2.38 13.24 -0.40 2.11 1.02 14991
0.04 0.00 -3.98 -2.45 13.36 -0.38 2.11 1.06 14997
0.03 -0.00 -4.76 -2.33 13.35 -0.38 2.05 1.11 15003
0.03 -0.00 -5.21 -2.24 13.49 -0.41 1.89 1.18 15009
0.04 -0.00 -5.34 -2.29 13.56 -0.48 1.66 1.26 15015
0.03 -0.00 -5.18 -2.32 13.49 -0.56 1.42 1.37 15023
0.03 -0.00 -4.64 -2.39 13.08 -0.65 1.13 1.50 15029
0.03 -0.00 -3.82 -2.62 12.54 -0.74 0.89 1.66 15035
0.04 -0.00 -2.91 -3.15 11.82 -0.80 0.69 1.80 15041
0.04 0.01 -2.05 -3.80 11.04 -0.84 0.55 1.92 15048
0.04 -0.00 -1.25 -4.47 10.28 -0.85 0.48 1.99 15054
0.02 -0.00 -0.67 -5.06 9.48 -0.81 0.46 2.06 15060
0.04 0.01 -0.33 -5.65 8.80 -0.73 0.51 2.10 15067
0.03 -0.00 -0.18 -6.20 8.38 -0.61 0.59 2.11 15073
0.04 -0.00 -0.10 -6.48 8.11 -0.48 0.69 2.08 15079
0.04 -0.00 -0.11 -6.47 7.89 -0.34 0.78 2.03 15086
0.04 -0.00 -0.25 -6.27 7.73 -0.24 0.86 1.97 15092
0.03 -0.00 -0.41 -6.05 8.19 -0.12 0.97 1.92 15098
0.03 -0.00 -0.71 -6.02 8.90 0.00 1.01 1.85 15105
0.05 -0.00 -1.39 -6.15 9.33 0.08 1.03 1.78 15111
0.03 -0.00 -2.04 -6.16 9.65 0.10 0.98 1.68 15117
0.02 -0.00 -2.48 -6.18 10.03 0.09 0.86 1.58 15123
0.04 0.00 -2.78 -6.28 10.20 0.04 0.71 1.49 15130
0.04 -0.00 -2.80 -6.46 10.22 -0.03 0.56 1.42 15136
0.02 -0.00 -2.61 -6.79 10.05 -0.08 0.42 1.37 15142
0.05 -0.00 -2.36 -7.13 9.70 -0.12 0.32 1.35 15149
0.04 -0.00 -4.03 -8.84 9.18 -0.12 0.18 1.35 15155
0.03 -0.00 -21.65 -13.51 20.90 0.50 -2.47 1.62 15162
0.04 -0.00 -7.59 -5.99 4.87 0.55 -2.65 1.85 15168
0.04 -0.00 -5.03 -8.41 1.64 0.51 -3.31 1.96 15174
0.03 -0.00 -10.49 -15.23 9.33 0.54 -3.91 2.02 15180
0.03 -0.00 -17.39 -14.46 8.17 0.51 -4.28 2.06 15187
0.03 -0.00 -19.55 -15.04 6.24 0.54 -4.28 2.19 15194
0.04 0.08 -13.52 2.05 28.57 1.22 -4.28 2.48 15200
0.03 0.34 -12.29 -11.83 23.28 1.92 -2.67 2.76 15207
0.03 0.52 -24.28 -3.16 28.99 2.44 -1.98 2.34 15213
0.01 0.61 -18.16 1.62 23.06 1.13 -2.41 0.98 15219
0.00 0.67 -3.60 -0.01 15.85 0.42 -1.19 0.03 15225
0.00 0.55 -0.22 0.27 10.49 0.10 -0.18 -0.08 15233
0.03 0.42 2.28 -0.57 9.52 0.11 -0.16 0.04 15239
0.03 0.30 3.03 -1.21 9.70 0.17 -0.30 0.27 15245
0.05 0.31 1.76 -2.08 11.01 0.17 -0.28 0.45 15251
0.06 0.23 -0.12 -0.78 10.21 0.08 -0.26 0.35 15258
0.06 0.26 -0.25 -1.05 9.81 -0.01 -0.26 0.20 15264
0.05 0.29 0.22 -1.87 9.70 -0.02 -0.17 0.13 15270
0.06 0.34 0.18 -1.55 9.97 -0.04 -0.15 0.09 15277
0.09 0.34 0.27 -1.10 9.82 -0.06 -0.14 0.08 15283
0.07 0.35 0.14 -0.73 10.17 -0.09 -0.13 0.05 15290
0.08 0.43 0.49 -0.69 10.06 -0.10 -0.10 0.04 15296
0.06 0.44 0.54 -0.58 10.03 -0.08 -0.10 0.03 15302
0.06 0.48 0.55 -0.57 10.36 -0.06 -0.08 0.02 15308
0.11 0.49 0.49 -0.56 10.06 -0.05 -0.08 0.03 15315
0.11 0.47 0.49 -0.56 9.91 -0.05 -0.08 0.03 15322
0.10 0.51 0.45 -0.78 9.90 -0.05 -0.07 0.03 15328
0.11 0.50 0.44 -0.68 10.02 -0.04 -0.05 0.03 15334
0.13 0.49 0.44 -0.67 9.98 -0.04 -0.04 0.03 15340
0.17 0.52 0.44 -0.65 10.09 -0.03 -0.03 0.03 15347
0.15 0.50 0.60 -0.68 9.98 -0.02 -0.02 0.04 15353
0.16 0.49 0.57 -0.67 9.94 -0.02 -0.01 0.04 15360
0.16 0.48 0.54 -0.74 10.14 -0.01 -0.01 0.04 15366
0.17 0.44 0.61 -0.72 10.08 -0.01 -0.00 0.04 15372
0.15 0.43 0.65 -0.73 10.01 -0.01 -0.00 0.04 15379
0.18 0.43 0.62 -0.74 10.15 -0.01 -0.01 0.04 15385
0.19 0.39 0.60 -0.70 10.04 -0.01 -0.01 0.03 15391
0.19 0.42 0.57 -0.69 10.05 -0.02 -0.01 0.03 15397
0.19 0.38 0.58 -0.68 10.03 -0.01 -0.01 0.03 15405
0.18 0.39 0.57 -0.66 10.08 -0.01 -0.01 0.03 15411
0.22 0.37 0.60 -0.68 9.88 -0.01 -0.01 0.03 15417
0.17 0.38 0.62 -0.68 9.98 -0.01 -0.01 0.03 15423
0.17 0.37 0.59 -0.67 10.03 -0.01 -0.01 0.03 15429
0.17 0.36 0.67 -0.66 10.08 -0.01 -0.01 0.03 15436
0.18 0.34 0.61 -0.67 9.92 -0.01 -0.01 0.03 15442
0.19 0.35 0.60 -0.66 10.07 -0.01 -0.01 0.02 15449
0.20 0.33 0.58 -0.68 10.07 -0.01 -0.01 0.02 15455
0.18 0.32 0.57 -0.65 10.12 -0.00 -0.01 0.02 15462
0.18 0.35 0.58 -0.63 10.01 -0.00 -0.00 0.03 15468
0.20 0.32 0.60 -0.65 10.10 0.00 -0.01 0.03 15474
0.19 0.31 0.62 -0.65 10.07 0.00 -0.01 0.03 15480
0.21 0.29 0.58 -0.65 10.00 0.00 -0.01 0.03 15488
0.21 0.27 0.64 -0.67 10.05 0.00 -0.01 0.03 15494
0.21 0.30 0.64 -0.66 10.01 0.00 -0.01 0.03 15500
