Voltage_01 Voltage_02 Acc_x Acc_y Acc_z Gyro_x Gyro_y Gyro_z Time
5000
0.00 0.00 -1.81 -0.97 9.59 -0.01 0.04 -0.06 17
0.00 0.00 -1.83 -0.94 9.63 -0.01 0.04 -0.06 23
0.00 0.00 -1.81 -0.96 9.62 -0.01 0.04 -0.06 29
0.00 0.00 -1.80 -0.97 9.64 -0.01 0.04 -0.06 35
0.00 0.00 -1.84 -0.93 9.61 -0.01 0.03 -0.06 41
0.00 0.00 -1.85 -0.96 9.64 -0.01 0.03 -0.06 48
0.00 0.00 -1.86 -0.98 9.64 -0.01 0.02 -0.06 54
0.00 0.00 -1.86 -0.97 9.62 -0.01 0.02 -0.07 60
0.00 -0.00 -1.89 -0.98 9.60 -0.01 0.02 -0.06 66
0.00 0.00 -1.85 -0.95 9.59 -0.01 0.03 -0.06 72
0.00 0.00 -1.85 -0.94 9.57 -0.01 0.03 -0.06 78
0.00 0.00 -1.86 -0.97 9.62 -0.01 0.04 -0.06 84
0.00 0.00 -1.85 -0.96 9.56 -0.01 0.05 -0.06 91
0.00 0.00 -1.87 -0.97 9.58 -0.01 0.05 -0.06 97
-0.00 0.00 -1.84 -0.97 9.59 -0.01 0.06 -0.06 103
0.00 0.00 -1.81 -0.93 9.61 -0.01 0.07 -0.06 110
0.00 0.00 -1.80 -0.96 9.61 -0.01 0.07 -0.06 116
0.00 0.00 -1.81 -0.95 9.62 -0.01 0.07 -0.06 122
0.00 0.00 -1.78 -0.93 9.64 -0.01 0.08 -0.06 129
0.00 0.00 -1.79 -0.92 9.67 -0.01 0.07 -0.06 135
0.00 0.00 -1.81 -0.94 9.69 -0.01 0.06 -0.06 141
0.00 0.00 -1.78 -0.94 9.69 -0.01 0.05 -0.06 147
0.01 -0.00 -1.78 -0.99 9.70 -0.01 0.04 -0.06 153
0.00 0.00 -1.81 -0.97 9.69 -0.01 0.03 -0.07 160
0.00 0.00 -1.83 -0.97 9.67 -0.01 0.02 -0.06 166
0.00 0.00 -1.83 -0.97 9.70 -0.01 0.01 -0.07 173
0.00 0.00 -1.83 -0.98 9.64 -0.00 -0.00 -0.06 179
-0.00 0.00 -1.24 -0.98 9.59 -0.01 -0.01 -0.07 185
0.00 0.00 -1.87 -0.97 9.62 -0.00 -0.01 -0.07 192
0.00 0.00 -1.88 -0.97 9.63 -0.00 -0.00 -0.06 198
0.00 0.00 -1.89 -0.96 9.59 -0.01 0.00 -0.07 204
0.00 0.00 -1.85 -0.97 9.56 -0.01 0.01 -0.06 210
0.00 0.00 -1.83 -0.94 9.58 -0.01 0.02 -0.06 217
0.00 0.00 -1.83 -0.96 9.58 -0.00 0.03 -0.06 223
0.00 0.00 -1.86 -0.96 9.57 -0.01 0.05 -0.06 229
0.00 0.00 -1.79 -0.93 9.60 -0.01 0.06 -0.06 235
0.00 0.00 -1.81 -0.94 9.60 -0.01 0.07 -0.06 241
0.00 0.00 -1.83 -0.95 9.59 -0.01 0.07 -0.06 247
0.00 0.00 -1.80 -0.92 9.65 -0.01 0.08 -0.06 253
0.00 0.00 -1.78 -0.95 9.65 -0.01 0.07 -0.06 260
0.00 0.00 -1.83 -0.97 9.65 -0.01 0.07 -0.06 266
0.01 -0.00 -1.81 -0.97 9.65 -0.01 0.07 -0.06 272
0.00 0.00 -1.83 -0.95 9.71 -0.01 0.06 -0.06 279
0.00 0.00 -1.84 -0.97 9.66 -0.01 0.05 -0.06 285
0.00 0.00 -1.86 -0.94 9.68 -0.01 0.04 -0.06 291
0.00 0.00 -1.82 -0.98 9.67 -0.01 0.04 -0.07 297
0.00 0.00 -1.85 -0.95 9.67 -0.01 0.03 -0.06 304
0.00 0.00 -1.85 -0.95 9.63 -0.01 0.02 -0.06 310
0.00 0.00 -1.81 -0.97 9.61 -0.01 0.01 -0.07 316
0.00 0.00 -1.81 -0.96 9.60 -0.00 0.02 -0.06 322
0.00 0.00 -1.81 -0.96 9.62 -0.01 0.02 -0.06 328
0.00 0.00 -1.88 -0.97 9.59 -0.01 0.02 -0.06 334
0.00 0.00 -1.84 -0.93 9.60 -0.01 0.03 -0.06 340
0.00 0.00 -1.82 -0.96 9.62 -0.01 0.03 -0.07 347
-0.00 0.00 -1.82 -0.95 9.60 -0.01 0.04 -0.06 353
0.00 0.00 -1.82 -0.95 9.63 -0.01 0.04 -0.06 360
0.00 0.00 -1.83 -0.93 9.62 -0.01 0.04 -0.07 366
0.00 0.00 -1.83 -0.96 9.67 -0.01 0.05 -0.06 372
0.00 0.00 -1.80 -0.96 9.62 -0.01 0.04 -0.06 378
0.00 0.00 -1.80 -0.97 9.60 -0.00 0.04 -0.06 385
0.00 0.00 -1.78 -0.95 9.65 -0.00 0.04 -0.07 391
-0.00 0.00 -1.82 -0.95 9.68 -0.01 0.04 -0.06 397
0.00 0.00 2.27 0.95 9.67 -0.01 0.01 -0.09 404
0.00 0.00 18.98 14.24 5.63 -0.29 0.93 -0.53 410
0.00 0.00 0.98 1.78 18.45 0.23 1.47 -0.24 417
0.00 0.00 -0.30 0.89 12.44 -0.01 0.09 0.35 424
0.00 0.00 2.35 1.95 10.69 -0.02 -0.95 0.50 432
0.00 0.00 0.97 2.30 9.83 -0.28 -1.17 0.57 439
0.00 0.00 -0.30 1.01 10.44 -0.23 -1.06 0.86 445
0.00 0.00 -1.85 1.11 8.08 -0.14 -1.09 1.30 452
0.00 0.00 -1.00 1.89 8.85 -0.21 -1.06 1.61 458
0.00 0.00 -9.09 -1.82 0.40 -0.63 -0.61 1.68 464
0.00 0.00 -6.42 -2.23 7.36 -0.47 0.46 0.01 471
0.00 0.00 -0.46 -1.99 8.61 -0.30 0.11 -0.12 477
0.00 0.00 -3.17 -10.97 8.61 -0.01 0.36 -0.11 483
0.00 0.00 -10.91 -17.00 12.00 0.09 -0.07 -0.31 490
0.00 0.00 -7.30 -6.11 11.85 -0.08 -0.63 0.10 497
0.00 0.00 -5.95 -5.75 10.88 -0.35 -1.04 0.37 504
0.00 0.00 -2.38 0.45 14.23 -0.42 -1.44 0.82 512
0.00 0.00 -3.48 2.98 7.22 -0.51 -1.77 1.11 519
0.00 0.00 -2.64 3.19 9.56 -0.57 -1.61 1.25 526
0.00 0.00 -0.14 1.37 8.96 -0.61 -1.44 1.36 533
0.00 0.00 -0.21 -0.31 10.92 -0.54 -1.35 1.36 539
0.00 0.00 -0.78 -0.99 9.10 -0.53 -1.26 1.34 546
0.00 0.00 -1.39 0.04 12.23 -0.50 -1.38 1.39 552
0.00 0.00 -0.89 1.28 9.72 -0.60 -1.46 1.50 560
0.00 0.00 -1.36 1.71 9.76 -0.70 -1.36 1.61 566
0.00 0.00 -1.99 1.76 7.49 -0.75 -1.21 1.78 573
0.00 0.00 -2.75 2.30 7.60 -0.74 -0.98 1.80 579
0.00 0.00 -1.90 1.81 9.72 -0.76 -0.72 1.80 585
0.00 0.00 -2.05 -0.44 8.37 -0.71 -0.57 1.77 591
0.00 0.00 -2.57 -1.37 7.78 -0.63 -0.36 1.71 598
0.00 0.00 -1.58 -4.54 7.84 -0.57 -0.12 1.74 605
0.00 0.00 0.80 -3.27 5.49 -0.24 0.18 2.07 611
0.00 0.00 -3.09 -1.16 6.56 0.02 0.98 2.17 617
0.00 0.00 -4.15 -0.86 7.70 -0.04 1.35 2.19 623
0.00 0.00 -5.14 0.51 7.53 -0.07 1.72 2.15 629
0.00 0.00 -4.79 0.16 7.32 0.03 2.08 2.04 635
0.00 0.00 -4.22 -0.51 8.25 0.15 2.41 1.86 642
0.00 0.00 -3.58 -1.66 7.92 0.23 2.56 1.64 648
0.00 0.00 -3.12 -3.11 8.90 0.29 2.64 1.51 655
0.00 0.00 -3.27 -2.35 9.96 -0.10 2.20 1.40 661
0.00 0.00 -2.96 -1.75 8.75 -0.10 2.47 1.38 667
0.00 0.00 -1.81 -2.93 11.74 0.00 2.82 1.34 673
0.00 0.00 -0.74 -2.57 11.11 -0.05 2.35 1.33 680
0.00 0.00 -1.72 -3.67 11.09 -0.02 1.89 1.31 688
0.00 0.00 -1.59 -3.79 10.70 -0.03 1.46 1.25 695
0.00 0.00 -3.02 -2.71 10.78 -0.03 1.18 1.14 702
0.00 0.00 -2.64 -2.57 10.32 -0.14 0.65 0.99 709
0.00 0.00 -2.67 -1.76 8.72 -0.29 -0.05 0.80 716
0.00 0.00 -2.39 -1.95 9.57 -0.38 -0.24 0.69 722
0.00 0.00 -1.90 -2.31 9.54 -0.46 -0.46 0.62 729
0.00 0.00 -1.50 -3.27 9.16 -0.50 -0.54 0.62 736
0.00 0.00 -0.39 -3.31 9.15 -0.46 -0.45 0.67 742
0.00 0.00 0.27 -3.66 11.81 -0.34 -0.34 0.69 748
0.00 0.00 -0.00 -2.85 9.44 -0.25 -0.29 0.74 755
0.00 0.00 -0.51 -2.51 11.12 -0.13 -0.19 0.79 761
0.00 0.00 -1.05 -2.94 9.82 -0.12 -0.33 0.84 769
0.00 0.00 -1.17 -2.40 10.67 -0.18 -0.53 0.74 775
0.00 0.00 -1.94 -1.98 9.08 -0.27 -0.94 0.73 782
0.00 0.00 -3.63 5.58 12.60 -0.50 -1.33 0.60 788
0.00 0.00 -0.69 2.49 4.26 -0.56 -1.96 0.36 795
0.00 0.00 0.53 -0.81 12.03 -0.62 -1.39 0.56 801
0.00 0.00 0.46 -1.11 14.85 -0.62 -0.07 0.94 808
0.00 0.00 -4.07 5.11 4.56 -0.39 -0.37 0.93 816
0.00 0.00 -11.67 1.76 20.34 0.14 0.25 0.15 822
0.00 0.00 -7.58 2.23 6.37 0.42 1.19 -0.76 829
0.00 0.00 -8.28 1.87 10.32 0.23 0.75 -1.38 835
0.00 0.00 -6.15 0.67 8.82 0.10 0.35 -1.91 842
0.00 0.00 -4.02 -2.00 8.36 0.17 0.45 -2.12 848
0.00 0.00 -4.12 -3.99 8.09 0.28 0.73 -2.19 855
0.00 0.00 -3.51 -3.88 8.89 0.34 0.87 -2.24 861
0.00 0.00 -1.97 -3.38 9.02 0.30 0.71 -2.26 867
0.00 0.00 -1.48 -2.00 9.84 0.24 0.56 -2.25 873
0.00 0.00 -1.18 -1.60 10.08 0.22 0.61 -2.15 879
0.00 0.00 0.06 -0.51 8.92 0.21 0.69 -2.03 886
-0.00 0.00 0.17 -0.71 9.35 0.22 0.71 -1.94 892
0.00 0.00 -0.05 -1.13 10.67 0.18 0.64 -1.81 900
0.00 0.00 -0.37 -0.70 10.16 0.14 0.58 -1.60 907
0.00 0.00 -0.51 -1.09 9.83 0.10 0.48 -1.36 914
0.00 0.00 0.07 -0.02 9.81 0.10 0.36 -1.09 920
0.00 0.00 0.58 0.34 11.74 0.09 0.28 -0.87 926
0.00 0.00 0.24 1.11 9.99 0.04 0.11 -0.62 933
0.01 -0.00 0.30 0.81 8.91 -0.01 0.07 -0.41 940
0.00 0.00 0.11 0.25 9.00 -0.06 0.07 -0.24 947
0.00 0.00 -0.15 -0.34 9.83 -0.05 0.19 -0.13 953
0.00 0.00 -1.02 -1.73 9.90 -0.03 0.25 -0.10 959
0.00 0.00 -1.17 -1.82 9.63 -0.03 0.23 -0.13 965
0.00 0.00 -1.73 -1.76 9.92 -0.00 0.26 -0.22 971
0.00 0.00 -2.11 -2.54 9.19 0.02 0.22 -0.33 977
0.00 0.00 -2.69 -3.94 10.44 0.04 0.22 -0.44 984
0.00 0.00 -2.73 -3.90 9.45 0.06 0.14 -0.61 991
0.00 0.00 -3.68 -3.98 9.55 0.09 0.12 -0.74 997
0.00 0.00 -4.11 -4.50 9.97 0.12 0.03 -0.85 1003
0.00 0.00 -3.35 -3.32 9.45 0.13 -0.09 -1.07 1010
0.00 0.00 -2.86 -3.09 9.91 0.19 -0.05 -1.32 1017
0.00 0.00 -2.41 -2.03 9.34 0.21 0.10 -1.58 1025
0.00 0.00 0.48 3.61 3.86 0.19 1.13 -1.69 1032
0.00 0.00 -1.92 -1.01 6.00 0.27 2.09 -1.45 1039
0.00 0.00 -0.27 -2.67 10.41 0.23 2.53 -1.21 1046
0.00 0.00 0.72 -1.60 11.52 0.09 2.10 -1.06 1053
0.00 0.00 2.67 -1.06 13.74 0.03 0.97 -0.99 1060
0.00 0.00 2.92 -0.89 12.97 0.02 -0.20 -0.88 1068
0.00 0.00 3.74 -0.73 9.32 -0.03 -0.75 -0.75 1075
0.00 0.00 3.26 -0.87 8.76 -0.00 -0.71 -0.53 1082
0.00 0.00 2.72 -0.06 7.31 -0.00 -0.17 -0.21 1089
0.00 0.00 -0.04 -0.53 8.23 -0.01 0.52 0.01 1096
0.00 0.00 -0.16 -0.66 9.16 -0.01 0.75 0.12 1103
0.00 0.00 -0.34 -0.87 11.06 -0.00 0.69 0.16 1111
0.00 0.00 -0.45 -1.05 11.86 -0.02 0.20 0.12 1118
0.00 0.00 -2.14 -1.74 11.71 -0.01 -0.37 0.10 1125
0.00 0.00 -2.55 -1.14 11.09 0.02 -0.76 0.20 1132
0.00 0.00 -2.46 -1.08 10.77 0.06 -1.08 0.41 1139
0.00 0.00 -2.51 -1.00 10.70 0.05 -1.36 0.63 1146
0.00 0.00 -2.51 -0.83 10.41 0.02 -1.64 0.78 1154
0.00 0.00 -2.02 -0.10 10.41 -0.01 -1.78 0.90 1161
0.00 0.00 -0.91 0.23 8.48 -0.03 -1.82 0.96 1168
0.00 0.00 1.16 -1.28 7.92 -0.08 -1.57 0.92 1175
0.00 0.00 1.11 -1.65 7.79 -0.08 -1.08 0.55 1182
0.00 0.00 2.32 -3.28 7.47 -0.06 -0.40 0.18 1189
0.00 0.00 0.13 -5.04 9.41 0.07 -0.16 -0.38 1197
0.00 0.00 1.31 -6.25 11.18 0.14 -0.24 -0.91 1204
0.00 0.00 1.58 -5.33 9.17 0.23 -0.29 -1.52 1211
0.00 0.00 0.55 -4.47 10.37 0.31 -0.31 -1.94 1218
0.00 0.00 0.23 -3.44 11.24 0.41 -0.45 -2.17 1225
0.00 0.00 -0.90 -2.87 10.25 0.48 -0.75 -2.27 1232
0.00 0.00 -2.19 -2.40 11.19 0.56 -0.78 -2.25 1240
0.00 0.00 -2.64 -1.84 11.29 0.72 -0.81 -2.09 1247
0.00 0.00 -2.43 -1.06 8.11 0.82 -0.51 -1.86 1254
0.00 0.00 -0.24 -0.85 -1.85 0.53 0.29 -1.66 1261
0.00 0.00 -2.64 -0.05 8.25 0.21 1.05 -1.40 1268
0.00 0.00 1.39 0.69 -0.60 -0.37 1.71 -1.30 1275
0.00 0.00 -13.78 5.30 7.06 -0.68 3.49 -1.06 1283
0.00 0.00 -7.01 -0.86 14.63 0.16 3.35 -0.33 1290
0.00 0.00 -3.68 -0.62 17.23 0.01 2.18 -0.04 1297
0.00 0.00 -2.77 -0.06 10.68 -0.04 0.87 0.25 1304
0.00 0.00 -1.22 0.41 12.93 -0.17 0.09 0.43 1311
0.00 0.00 -1.02 -1.06 10.46 -0.18 -0.80 0.65 1318
0.00 0.00 -2.77 -0.40 10.09 -0.12 -1.04 1.02 1326
0.00 0.00 -3.41 0.11 6.16 -0.13 -0.66 1.39 1333
0.00 0.00 -2.87 0.90 5.84 -0.30 -0.01 1.72 1340
0.00 0.00 -1.88 2.35 9.53 -0.33 0.53 1.80 1347
0.00 0.00 -3.45 1.92 10.19 -0.12 0.85 1.46 1354
0.00 0.00 -2.99 1.24 9.93 -0.01 0.84 0.86 1361
0.00 0.00 -2.42 0.25 13.51 -0.05 0.47 0.27 1369
0.00 0.00 -3.04 -1.68 13.16 0.02 -0.46 -0.30 1376
0.00 0.00 -1.83 -1.76 12.64 0.12 -1.34 -0.57 1383
0.00 0.00 -0.58 -1.11 10.99 0.17 -1.87 -0.61 1390
0.00 0.00 -0.30 -0.55 9.35 0.14 -2.12 -0.58 1397
0.00 0.00 -0.23 0.45 7.97 0.11 -1.95 -0.53 1404
0.00 0.00 -0.28 0.14 8.05 0.15 -1.33 -0.42 1412
0.00 0.00 0.61 1.04 7.07 0.09 -0.54 -0.35 1419
0.00 0.00 0.46 0.94 8.20 0.08 0.01 -0.37 1426
0.00 0.00 0.42 0.20 9.15 0.06 0.48 -0.44 1433
0.00 0.00 0.24 -1.18 11.04 0.11 0.52 -0.50 1440
0.00 0.00 -0.74 -1.94 11.62 0.09 0.23 -0.53 1447
0.00 0.00 -0.79 -0.16 10.40 0.10 -0.15 -0.47 1455
0.00 0.00 -0.71 -0.32 9.55 0.04 -0.29 -0.38 1462
0.00 0.00 -0.51 -0.26 8.78 0.01 -0.14 -0.22 1469
0.00 0.00 -2.01 -0.69 8.28 -0.01 0.10 -0.05 1476
0.00 0.00 -2.00 -0.95 8.79 -0.03 0.34 -0.03 1483
0.00 0.00 -1.73 -0.87 9.05 -0.05 0.53 -0.02 1490
0.00 0.00 -1.54 -0.98 9.82 -0.03 0.60 -0.02 1498
0.00 0.00 -1.37 -0.99 10.55 -0.03 0.49 -0.03 1505
0.00 0.00 -1.33 -0.98 10.75 -0.03 0.20 -0.05 1512
0.00 0.00 -1.38 -0.88 10.28 -0.03 0.02 -0.06 1519
0.00 0.00 -1.42 -0.91 9.73 -0.07 -0.09 -0.07 1526
0.00 0.00 -1.53 -0.94 9.44 -0.03 -0.09 -0.07 1533
0.00 0.00 -1.57 -0.91 9.39 -0.01 -0.03 -0.07 1541
0.00 0.00 -1.65 -0.90 9.12 -0.01 0.09 -0.06 1548
0.00 0.00 -1.67 -0.91 9.15 -0.02 0.18 -0.04 1555
0.00 0.00 -1.57 -0.93 9.61 -0.02 0.27 -0.04 1562
0.00 0.00 -1.59 -1.01 9.81 -0.01 0.25 -0.05 1569
0.00 0.00 -0.97 -1.46 2.42 -0.19 0.81 -0.10 1576
0.00 0.00 -1.66 -0.85 6.28 -0.11 2.21 -0.12 1584
0.00 0.00 -1.81 -0.17 12.82 -0.05 2.59 -0.13 1591
0.00 0.00 0.25 1.58 12.39 0.08 2.15 -0.16 1598
0.00 0.00 0.09 3.31 10.33 0.01 1.85 -0.20 1605
0.00 0.00 0.97 2.03 8.78 -0.04 1.92 -0.04 1612
0.00 0.00 -0.14 -1.49 11.41 -0.06 1.98 0.19 1619
0.00 0.00 -2.54 -3.56 9.99 -0.01 1.62 0.26 1627
0.00 0.00 -3.44 -4.52 21.71 0.00 0.57 0.07 1634
0.00 0.00 -2.94 0.43 5.17 -0.14 0.51 -0.03 1641
0.00 0.00 -2.15 0.77 11.83 0.05 0.63 0.01 1648
0.00 0.00 -1.01 0.14 11.19 0.01 0.08 0.07 1655
0.00 0.00 -0.75 -0.12 8.22 -0.01 -0.03 0.13 1662
0.00 0.00 1.22 -1.71 10.27 0.01 0.04 0.15 1670
0.00 0.00 1.84 -1.84 9.51 -0.03 -0.07 0.16 1677
0.00 0.00 0.89 -1.78 10.13 -0.01 -0.10 0.16 1684
0.00 0.00 0.90 -1.64 10.72 -0.01 -0.17 0.14 1691
0.00 0.00 -0.93 -1.23 10.28 -0.02 -0.19 0.12 1698
0.00 0.00 0.10 -0.96 10.53 0.00 -0.28 0.12 1705
0.00 0.00 -0.38 -0.50 9.79 0.01 -0.37 0.13 1713
0.00 0.00 -1.34 0.02 10.48 0.01 -0.41 0.16 1720
0.00 0.00 -0.40 -0.26 9.65 0.01 -0.51 0.18 1727
0.00 0.00 -1.30 -0.99 9.79 0.03 -0.62 0.24 1734
0.00 0.00 -1.41 -1.19 9.55 0.04 -0.72 0.30 1741
0.00 0.00 -0.50 -1.08 9.01 0.04 -0.67 0.38 1748
0.00 0.00 -1.22 -1.10 8.43 0.04 -0.61 0.44 1756
0.00 0.00 -0.98 -1.47 10.55 0.05 -0.55 0.49 1763
0.00 0.00 -0.66 -1.98 10.08 0.05 -0.61 0.51 1770
0.00 0.00 1.16 -2.46 9.84 0.07 -0.67 0.51 1777
0.00 0.00 -0.36 -1.54 9.70 0.09 -0.66 0.50 1784
0.00 0.00 -1.07 -1.61 9.03 0.04 -0.74 0.46 1792
0.00 0.00 -0.66 -1.74 9.01 0.04 -0.66 0.41 1799
0.00 0.00 -0.20 -1.57 9.18 0.01 -0.57 0.35 1806
0.00 -0.00 -0.07 -1.49 8.57 0.02 -0.41 0.28 1813
0.00 0.00 -0.64 -1.19 9.70 -0.01 -0.23 0.21 1820
0.00 -0.00 -0.57 -1.26 9.43 -0.03 -0.14 0.16 1827
0.00 0.00 -0.51 -1.07 9.63 -0.02 -0.04 0.12 1835
0.00 0.00 -0.48 -1.07 9.46 -0.05 -0.00 0.07 1842
0.00 -0.00 -1.71 -0.99 11.14 -0.04 0.04 0.05 1849
0.02 -0.00 -2.14 -0.93 9.18 -0.04 -0.01 0.09 1856
0.02 -0.00 -1.21 -0.76 9.95 -0.02 -0.07 0.13 1863
0.02 -0.00 0.21 -0.82 10.01 -0.01 -0.12 0.11 1870
0.00 0.00 4.07 -2.54 8.42 0.05 -0.14 -0.13 1878
0.01 -0.00 -0.99 -0.73 11.12 0.03 0.02 -0.12 1885
0.01 -0.00 -0.55 -0.96 9.14 0.06 -0.12 -0.10 1892
0.02 -0.00 -1.13 -1.17 9.49 0.07 -0.07 -0.10 1899
0.00 -0.00 -1.04 -0.82 9.71 0.07 0.01 -0.08 1906
0.00 -0.00 -0.94 -0.95 9.44 0.01 -0.03 -0.07 1913
0.00 0.00 -1.00 -0.98 9.58 -0.02 -0.02 -0.07 1921
0.00 0.00 -1.09 -1.08 9.78 -0.01 0.05 -0.06 1928
0.00 -0.00 -1.19 -1.11 9.91 0.02 0.07 -0.06 1935
0.01 -0.00 -1.12 -1.22 9.96 0.05 0.09 -0.06 1942
0.00 -0.00 -1.28 -1.23 9.47 0.07 0.07 -0.06 1949
0.00 0.00 -0.97 -1.20 9.67 0.09 0.10 -0.07 1956
0.00 0.00 -1.11 -1.16 9.73 0.09 0.07 -0.06 1964
0.00 -0.00 -1.03 -1.21 8.95 0.01 0.05 -0.06 1971
0.00 -0.00 -1.06 -1.10 8.83 -0.05 0.09 -0.06 1978
0.01 -0.00 -1.02 -1.11 9.20 -0.14 0.18 -0.07 1985
0.00 0.00 -1.10 -1.05 9.80 -0.14 0.26 -0.07 1992
0.00 0.00 -1.02 -0.97 9.39 -0.16 0.28 -0.06 1999
0.00 0.00 -0.98 -0.88 9.20 -0.21 0.29 -0.06 2007
0.00 -0.00 -1.08 -0.86 9.33 -0.28 0.29 -0.06 2014
0.01 -0.00 -1.75 -1.03 11.20 -0.25 0.44 -0.04 2021
0.00 -0.00 -1.15 -0.69 10.60 -0.11 0.44 -0.02 2028
0.00 -0.00 -0.59 -0.86 10.37 -0.10 0.47 -0.01 2035
0.00 0.00 -0.44 -0.85 9.69 -0.13 0.48 -0.02 2042
0.00 0.00 -0.70 -0.83 9.78 -0.10 0.46 -0.04 2050
0.00 0.00 -0.68 -0.86 10.10 -0.10 0.41 -0.05 2057
0.01 -0.00 -0.67 -0.80 9.82 -0.10 0.41 -0.05 2064
0.00 -0.00 -0.60 -0.89 9.76 -0.08 0.37 -0.05 2071
0.01 -0.00 -0.58 -0.67 9.66 -0.10 0.37 -0.06 2078
0.00 0.00 -0.69 -0.91 9.78 -0.09 0.37 -0.06 2085
0.00 0.00 -0.50 -0.96 10.03 -0.07 0.41 -0.06 2093
0.01 -0.00 -0.72 -0.86 9.53 -0.07 0.43 -0.06 2100
0.02 -0.00 -0.51 -0.92 9.56 -0.08 0.51 -0.06 2107
0.03 -0.00 -0.50 -0.68 9.37 -0.10 0.59 -0.06 2114
0.01 -0.00 -0.68 -0.84 9.57 -0.12 0.72 -0.07 2121
0.00 0.00 -0.38 -0.83 9.58 -0.13 0.77 -0.04 2128
0.00 0.00 -0.31 -0.90 8.31 -0.13 0.88 -0.03 2136
0.00 -0.00 -0.15 -0.80 9.17 -0.12 1.01 -0.02 2143
0.01 -0.00 0.03 -0.88 10.03 -0.13 1.15 -0.01 2150
0.00 0.00 1.00 -0.70 9.61 -0.13 1.13 0.02 2157
0.01 -0.00 -0.64 -1.18 11.22 -0.19 1.14 0.02 2164
0.00 0.00 -0.02 -0.82 9.77 -0.20 1.14 0.01 2171
0.00 0.00 0.42 -0.56 8.32 -0.27 1.15 0.02 2179
0.01 -0.00 -0.68 -1.09 16.93 -0.46 0.87 -0.01 2186
0.01 -0.00 -0.02 -0.97 10.69 -0.45 0.76 0.00 2193
0.01 -0.00 0.82 -0.69 7.87 -0.61 0.88 0.03 2200
0.01 -0.00 -0.02 -0.75 9.98 -0.65 0.61 -0.01 2207
0.00 -0.00 1.11 0.26 8.60 -0.68 0.44 -0.01 2214
0.01 -0.00 0.51 0.13 9.97 -0.67 0.38 -0.01 2222
0.02 -0.00 0.41 -0.33 11.95 -0.76 0.13 -0.02 2229
0.01 -0.00 0.52 -0.37 10.60 -0.57 0.06 -0.03 2236
0.00 -0.00 0.48 -0.31 10.07 -0.09 -0.00 -0.04 2243
0.00 -0.00 0.51 -0.35 9.84 -0.05 0.04 -0.05 2250
0.00 -0.00 0.48 -0.37 9.80 -0.03 0.05 -0.04 2257
0.01 -0.00 0.58 -0.48 9.32 -0.02 -0.00 -0.05 2265
0.02 -0.00 0.45 -0.33 9.78 -0.02 -0.04 -0.05 2272
0.01 -0.00 0.51 -0.45 10.06 -0.02 -0.12 -0.05 2279
0.00 -0.00 0.44 -0.33 9.80 -0.05 -0.18 -0.06 2286
0.00 0.00 0.40 -0.30 10.39 -0.07 -0.20 -0.05 2293
0.00 -0.00 0.37 -0.32 9.73 -0.06 -0.17 -0.06 2300
0.00 -0.00 0.36 -0.28 9.86 -0.03 -0.12 -0.06 2308
0.02 -0.00 0.38 -0.27 9.82 -0.03 -0.08 -0.06 2315
0.00 -0.00 0.45 -0.20 9.80 -0.02 -0.08 -0.06 2322
0.00 -0.00 0.45 -0.17 9.78 -0.03 -0.11 -0.06 2329
0.00 0.00 0.46 -0.16 9.75 -0.03 -0.16 -0.06 2336
0.00 -0.00 0.48 -0.17 9.76 -0.03 -0.21 -0.07 2343
0.00 -0.00 0.46 -0.15 9.58 -0.04 -0.25 -0.06 2351
0.02 -0.00 0.39 -0.23 9.78 -0.00 -0.32 -0.06 2358
0.01 -0.00 0.39 -0.35 10.10 -0.02 -0.32 -0.06 2365
0.00 0.00 0.35 -0.40 9.73 -0.00 -0.29 -0.06 2372
0.00 0.00 0.29 -0.40 9.83 0.00 -0.29 -0.06 2379
0.00 0.00 0.22 -0.42 9.82 0.01 -0.25 -0.06 2386
0.00 -0.00 0.26 -0.44 9.82 0.01 -0.23 -0.07 2394
0.01 -0.00 0.22 -0.44 9.77 0.01 -0.21 -0.07 2401
0.00 -0.00 0.20 -0.36 9.76 0.02 -0.21 -0.07 2408
0.00 0.00 0.24 -0.33 9.78 0.02 -0.22 -0.07 2415
0.00 0.00 0.23 -0.33 9.77 0.03 -0.22 -0.07 2422
0.00 -0.00 0.21 -0.27 9.78 0.04 -0.24 -0.07 2429
0.01 -0.00 0.06 -0.28 10.00 0.04 -0.25 -0.07 2437
0.01 -0.00 0.22 -0.28 9.81 0.04 -0.20 -0.06 2444
0.00 -0.00 0.10 -0.32 9.86 0.04 -0.17 -0.05 2451
0.00 0.00 0.29 -0.34 9.79 0.03 -0.17 -0.06 2458
0.00 0.00 0.00 -0.35 9.82 0.02 -0.12 -0.06 2465
0.00 0.00 -0.02 -0.33 9.79 0.01 -0.10 -0.06 2472
0.00 0.00 0.00 -0.35 9.83 0.01 -0.08 -0.06 2480
0.00 0.00 -0.01 -0.35 9.80 0.00 -0.07 -0.07 2486
0.00 0.00 -0.06 -0.38 9.79 0.01 -0.06 -0.06 2492
0.00 0.00 -0.01 -0.40 9.83 0.01 -0.04 -0.06 2499
0.00 0.00 0.00 -0.38 9.80 0.01 -0.03 -0.06 2506
0.00 0.00 -0.01 -0.38 9.80 0.00 -0.01 -0.06 2512
0.00 0.00 0.02 -0.39 9.82 0.00 -0.01 -0.06 2519
0.00 0.00 0.06 -0.40 9.81 0.00 0.00 -0.05 2525
0.00 0.00 0.05 -0.40 9.81 0.00 0.01 -0.05 2531
0.00 0.00 0.09 -0.46 9.82 0.01 0.02 -0.04 2537
0.00 0.00 0.05 -0.40 9.82 0.01 0.02 -0.03 2543
0.00 0.00 0.02 -0.43 9.82 0.00 0.03 -0.04 2549
0.00 0.00 0.00 -0.41 9.80 0.01 0.04 -0.04 2555
0.00 0.00 -0.04 -0.38 9.81 0.01 0.04 -0.04 2562
0.00 0.00 -0.09 -0.35 9.59 0.01 0.04 -0.05 2569
0.01 -0.00 -0.05 -0.37 9.78 0.01 0.05 -0.07 2575
0.00 0.00 0.57 -0.35 9.83 0.01 0.04 -0.07 2582
0.00 0.00 -0.03 -0.42 9.82 0.01 0.04 -0.08 2589
0.00 0.00 0.04 -0.37 9.83 0.00 0.03 -0.08 2596
0.00 0.00 0.04 -0.33 9.83 -0.01 0.03 -0.08 2603
0.00 0.00 0.11 -0.34 9.81 -0.01 0.02 -0.08 2609
0.00 0.00 0.03 -0.34 9.82 -0.01 0.03 -0.08 2616
0.00 0.00 0.06 -0.39 9.83 -0.02 0.02 -0.08 2623
0.00 0.00 -0.03 -0.39 9.88 -0.02 0.02 -0.07 2630
0.00 0.00 0.59 -0.35 9.85 -0.01 0.03 -0.07 2637
0.00 -0.00 0.01 -0.36 10.41 -0.01 0.03 -0.08 2644
0.00 0.00 -0.04 -0.37 9.83 -0.01 0.04 -0.08 2652
0.00 0.00 0.01 -0.47 9.77 -0.01 0.03 -0.07 2659
0.00 0.00 -0.03 -0.43 9.80 -0.02 0.03 -0.08 2666
0.00 0.00 -0.05 -0.43 9.83 -0.02 0.03 -0.08 2673
0.00 0.00 -0.07 -0.52 9.93 -0.02 0.02 -0.08 2680
0.00 0.00 0.00 -0.40 9.86 -0.02 0.02 -0.08 2688
0.00 0.00 0.55 -0.39 9.64 -0.01 0.02 -0.09 2694
0.00 0.00 0.01 -0.40 9.75 0.01 0.03 -0.09 2701
0.00 0.00 -0.05 -0.41 9.85 -0.00 0.01 -0.09 2707
0.00 0.00 0.02 -0.41 9.75 -0.03 0.02 -0.08 2713
0.00 0.00 -0.00 -0.44 9.76 -0.02 0.03 -0.08 2719
0.00 0.00 0.02 -0.44 9.83 -0.01 0.03 -0.09 2725
0.00 0.00 0.00 -0.41 9.82 -0.02 0.03 -0.09 2733
0.00 0.00 0.01 -0.40 9.82 -0.02 0.03 -0.09 2739
0.00 0.00 0.00 -0.41 9.81 -0.01 0.03 -0.08 2745
0.00 0.00 -0.01 -0.40 9.81 -0.01 0.04 -0.09 2751
0.00 0.00 0.04 -0.41 9.76 -0.01 0.04 -0.09 2758
0.00 0.00 -0.04 -0.40 9.81 -0.01 0.04 -0.09 2765
0.00 0.00 0.02 -0.40 9.81 -0.01 0.04 -0.09 2772
0.00 0.00 0.05 -0.42 9.82 -0.01 0.04 -0.09 2779
0.00 0.00 0.00 -0.43 9.79 -0.01 0.04 -0.09 2786
0.00 0.00 0.02 -0.40 9.81 -0.01 0.05 -0.08 2792
0.00 0.00 0.02 -0.39 9.81 -0.00 0.05 -0.09 2798
0.00 0.00 0.00 -0.44 9.82 -0.00 0.05 -0.08 2805
0.00 0.00 0.03 -0.38 9.82 -0.00 0.05 -0.09 2811
0.00 0.00 0.05 -0.40 9.81 0.00 0.05 -0.09 2818
0.00 0.00 0.05 -0.37 9.81 -0.00 0.05 -0.09 2824
0.00 0.00 0.03 -0.38 9.82 -0.00 0.05 -0.09 2830
0.00 0.00 0.04 -0.40 9.81 -0.00 0.05 -0.09 2836
0.00 0.00 0.04 -0.44 9.83 -0.01 0.05 -0.09 2842
0.00 0.00 0.04 -0.50 9.82 -0.00 0.05 -0.09 2848
0.00 0.00 -0.00 -0.44 9.77 0.00 0.06 -0.09 2854
0.00 0.00 -0.01 -0.45 9.81 0.02 0.06 -0.09 2861
0.00 0.00 -0.00 -0.45 9.82 0.02 0.07 -0.10 2868
0.00 0.00 -0.03 -0.45 9.83 0.01 0.07 -0.10 2875
0.00 0.00 0.01 -0.41 9.86 0.01 0.07 -0.10 2882
0.00 0.00 0.00 -0.44 9.82 0.01 0.07 -0.11 2888
0.01 -0.00 0.01 -0.46 9.82 0.01 0.07 -0.10 2894
0.00 0.00 0.02 -0.46 9.21 0.01 0.06 -0.10 2902
0.00 0.00 0.02 -0.45 9.82 0.00 0.07 -0.10 2908
0.00 0.00 0.05 -0.43 9.82 0.01 0.07 -0.10 2914
0.00 0.00 0.06 -0.42 9.21 0.01 0.08 -0.09 2920
0.00 0.00 0.06 -0.44 9.77 0.02 0.08 -0.10 2926
-0.00 0.00 0.10 -0.40 9.79 0.03 0.08 -0.11 2932
0.00 0.00 0.13 -0.39 9.84 0.03 0.08 -0.11 2939
0.00 0.00 0.08 -0.41 9.82 0.02 0.07 -0.11 2947
0.00 0.00 0.13 -0.40 9.83 0.01 0.08 -0.11 2954
0.00 0.00 0.13 -0.46 9.80 -0.00 0.07 -0.11 2961
0.00 0.00 0.18 -0.46 9.83 0.00 0.08 -0.10 2968
0.00 0.00 0.11 -0.48 9.81 -0.01 0.07 -0.09 2974
0.00 0.00 0.11 -0.46 9.79 -0.01 0.07 -0.10 2981
0.00 0.00 0.09 -0.49 9.79 -0.00 0.03 -0.10 2989
0.01 -0.00 0.04 -0.49 9.82 -0.01 0.07 -0.11 2995
0.01 -0.00 0.02 -0.52 9.83 -0.00 0.07 -0.11 3002
0.02 -0.00 -0.09 -0.55 9.84 -0.01 0.06 -0.10 3009
0.03 -0.00 -0.08 -0.61 9.81 -0.01 0.06 -0.10 3016
0.03 -0.00 -0.05 -0.60 9.83 -0.01 0.06 -0.11 3023
0.01 -0.00 -0.04 -0.60 9.83 -0.01 0.06 -0.11 3031
0.01 -0.00 0.00 -0.54 9.83 -0.01 0.06 -0.11 3038
0.01 -0.00 0.03 -0.49 9.82 -0.01 0.05 -0.11 3045
0.02 -0.00 0.14 -0.50 9.89 -0.01 0.06 -0.11 3052
0.03 -0.00 0.16 -0.34 9.83 -0.01 0.05 -0.10 3059
0.03 -0.00 0.27 -0.30 9.80 -0.01 0.05 -0.10 3066
0.03 -0.00 0.25 -0.24 9.83 -0.01 0.05 -0.10 3074
0.02 -0.00 0.28 -0.22 9.81 -0.01 0.04 -0.10 3081
0.02 -0.00 0.23 -0.23 9.81 -0.01 0.05 -0.10 3088
0.03 -0.00 0.21 -0.25 9.82 -0.01 0.05 -0.10 3095
0.04 -0.00 0.18 -0.37 9.81 -0.00 0.05 -0.09 3102
0.03 -0.00 0.09 -0.41 9.83 -0.01 0.05 -0.09 3109
0.03 -0.00 0.04 -0.46 9.81 -0.00 0.04 -0.09 3117
0.04 -0.00 0.00 -0.47 9.82 -0.01 0.05 -0.09 3124
0.02 -0.00 -0.02 -0.55 9.81 -0.01 0.05 -0.09 3131
0.04 0.00 0.61 -0.54 9.79 -0.01 0.05 -0.09 3138
0.05 -0.01 -0.08 -0.47 9.75 -0.01 0.06 -0.10 3145
0.04 -0.00 -0.00 -0.52 9.83 -0.01 0.06 -0.09 3152
0.04 -0.00 -0.02 -0.52 9.86 -0.01 0.06 -0.10 3160
0.04 -0.00 -0.04 -0.48 9.81 -0.01 0.06 -0.10 3167
0.04 -0.00 -0.04 -0.49 9.82 -0.01 0.03 -0.10 3174
0.03 0.00 0.03 -0.71 9.37 -0.01 0.07 -0.11 3181
0.05 -0.00 0.05 -0.47 9.82 -0.01 0.07 -0.10 3188
0.04 -0.00 0.03 -0.50 9.81 -0.01 0.07 -0.09 3195
0.04 -0.00 0.06 -0.45 9.81 -0.01 0.08 -0.10 3203
0.02 -0.00 0.08 -0.42 9.83 -0.01 0.09 -0.09 3210
0.03 -0.00 0.09 -0.37 9.82 -0.01 0.09 -0.09 3217
0.03 -0.00 0.12 -0.32 9.83 -0.01 0.10 -0.09 3224
0.05 -0.00 0.15 -0.29 9.85 -0.02 0.12 -0.09 3231
0.04 -0.00 0.18 -0.30 9.83 -0.02 0.14 -0.08 3238
0.03 -0.00 0.23 -0.27 9.82 -0.03 0.15 -0.08 3246
0.02 -0.00 0.24 -0.30 9.83 -0.03 0.18 -0.08 3253
0.02 -0.00 0.19 -0.32 10.04 -0.05 0.23 -0.08 3260
0.05 -0.01 0.80 -0.65 10.42 -0.07 0.26 -0.08 3267
0.05 -0.00 0.23 -0.30 9.80 -0.07 0.28 -0.07 3274
0.04 -0.00 0.23 -0.25 9.80 -0.06 0.31 -0.07 3281
0.05 -0.00 0.20 -0.28 9.76 -0.06 0.32 -0.07 3289
0.04 -0.00 0.22 -0.31 9.81 -0.05 0.31 -0.06 3296
0.05 -0.00 0.23 -0.29 9.65 -0.05 0.36 -0.06 3303
0.06 -0.01 0.19 -0.33 9.85 -0.06 0.38 -0.05 3310
0.05 -0.01 0.17 -0.39 9.83 -0.07 0.41 -0.06 3317
0.05 -0.00 0.10 -0.58 10.18 -0.07 0.39 -0.06 3324
0.04 -0.00 0.15 -0.47 10.00 -0.08 0.45 -0.06 3332
0.05 -0.00 0.26 -0.43 10.12 -0.06 0.41 -0.06 3339
0.04 0.00 0.36 -0.41 9.68 0.14 0.32 -0.05 3346
0.06 -0.01 0.22 -0.45 9.81 0.19 0.21 -0.06 3353
0.04 -0.00 0.39 -0.43 10.15 0.24 0.22 -0.06 3360
0.06 -0.01 0.45 -0.37 10.08 0.24 0.13 -0.07 3367
0.04 -0.00 0.66 -0.60 9.82 0.27 0.07 -0.07 3375
0.05 -0.00 0.55 -0.47 9.18 0.26 0.02 -0.07 3382
0.07 0.00 0.40 -0.44 9.38 0.21 -0.04 -0.08 3389
0.06 -0.01 0.59 -0.51 9.43 0.20 -0.10 -0.08 3396
0.05 -0.00 0.49 -0.59 9.97 0.14 -0.18 -0.09 3403
0.06 -0.01 0.38 -0.54 9.83 0.16 -0.23 -0.10 3410
0.03 -0.00 0.41 -0.44 9.62 0.14 -0.26 -0.10 3418
0.05 -0.00 0.35 -0.45 9.32 0.13 -0.21 -0.09 3425
0.07 -0.01 0.38 -0.47 9.50 0.11 -0.11 -0.08 3432
0.07 -0.01 0.19 -0.35 9.26 0.08 -0.03 -0.07 3439
0.05 -0.00 0.42 -0.41 9.74 0.00 0.04 -0.06 3446
0.06 -0.01 0.35 -0.39 9.57 0.01 0.10 -0.06 3453
0.02 -0.00 0.34 -0.49 9.87 -0.02 0.20 -0.05 3461
0.06 -0.01 0.27 -0.53 10.00 -0.08 0.23 -0.05 3468
0.07 -0.01 0.30 -0.47 9.22 -0.04 0.15 -0.05 3475
0.08 -0.01 0.21 -0.56 9.83 -0.03 0.14 -0.05 3482
0.07 -0.01 0.13 -0.50 9.75 -0.03 0.13 -0.05 3489
0.04 -0.00 0.20 -0.64 9.81 -0.03 0.13 -0.05 3496
0.03 -0.00 0.24 -0.67 9.79 -0.02 0.12 -0.04 3504
0.04 -0.00 0.30 -0.62 9.70 -0.02 0.11 -0.05 3511
0.06 -0.01 0.32 -0.57 9.67 -0.02 0.12 -0.05 3518
0.05 -0.01 0.36 -0.62 9.79 -0.02 0.12 -0.05 3525
0.05 -0.01 0.38 -0.55 9.83 -0.01 0.10 -0.05 3532
0.04 -0.00 0.53 -0.51 9.66 -0.01 0.09 -0.05 3539
0.05 -0.00 0.47 -0.47 9.69 -0.02 0.10 -0.04 3547
0.04 -0.00 0.57 -0.47 9.57 -0.04 0.11 -0.03 3554
0.05 -0.01 0.57 -0.43 9.40 -0.07 0.25 -0.03 3561
0.04 -0.00 0.71 -0.45 9.75 -0.10 0.21 -0.02 3568
0.04 -0.00 0.63 -0.42 9.67 -0.10 0.20 -0.02 3575
0.02 -0.00 0.53 -0.36 9.61 -0.11 0.23 -0.01 3582
0.05 -0.00 0.49 -0.37 9.32 -0.12 0.24 -0.01 3590
0.07 -0.00 0.34 -0.34 9.57 -0.13 0.28 0.00 3597
0.05 -0.01 0.36 -0.40 9.18 -0.19 0.30 0.01 3604
0.03 -0.00 0.40 -0.41 9.97 -0.29 0.27 0.02 3611
0.03 -0.00 0.82 -0.46 9.68 -0.36 0.22 0.01 3618
0.01 -0.00 0.88 -0.56 10.97 -0.50 0.10 -0.02 3625
0.03 -0.00 0.60 -0.34 9.77 -0.54 0.01 -0.03 3633
0.03 -0.00 0.62 -0.33 15.24 -0.52 -0.05 -0.04 3640
0.04 -0.00 0.51 -0.35 9.94 -0.06 -0.15 -0.05 3647
0.04 -0.00 1.20 -0.40 10.12 -0.02 -0.25 -0.06 3654
0.03 -0.00 0.65 -0.29 9.82 -0.12 -0.38 -0.07 3661
0.03 -0.00 0.57 -0.28 9.70 -0.11 -0.42 -0.08 3668
0.03 -0.00 0.53 -0.31 9.81 -0.07 -0.39 -0.07 3676
0.03 -0.00 0.55 -0.32 9.81 -0.01 -0.33 -0.07 3683
0.04 -0.00 0.48 -0.39 9.79 -0.00 -0.29 -0.07 3690
0.03 -0.00 0.34 -0.44 9.76 0.00 -0.22 -0.07 3697
0.03 -0.00 0.28 -0.45 9.79 0.01 -0.17 -0.07 3704
0.01 -0.00 0.24 -0.44 9.81 0.00 -0.14 -0.07 3712
0.01 -0.00 0.18 -0.40 9.82 0.01 -0.11 -0.06 3719
0.03 -0.00 0.14 -0.38 9.80 0.01 -0.09 -0.07 3726
0.03 -0.00 0.22 -0.34 9.20 0.02 -0.09 -0.07 3733
0.02 -0.00 0.23 -0.31 9.80 0.03 -0.08 -0.07 3740
0.03 -0.00 0.22 -0.05 9.85 0.04 -0.09 -0.07 3747
0.02 -0.00 0.15 0.04 9.78 0.05 -0.12 -0.07 3755
0.04 -0.00 0.24 -0.02 9.81 0.06 -0.16 -0.07 3762
0.06 -0.01 0.29 -0.04 9.82 0.06 -0.17 -0.07 3769
0.05 -0.01 0.24 -0.14 9.73 0.08 -0.19 -0.07 3776
0.04 -0.00 0.42 -0.13 9.80 0.08 -0.16 -0.07 3783
0.02 -0.00 0.44 -0.14 9.80 0.08 -0.14 -0.07 3790
0.02 -0.00 0.43 -0.21 9.82 0.07 -0.11 -0.07 3798
0.01 -0.00 0.35 -0.35 9.73 0.08 -0.09 -0.03 3805
0.01 -0.00 0.32 -0.59 9.85 0.06 -0.06 -0.07 3812
0.00 0.00 0.31 -0.44 9.73 0.06 -0.00 -0.06 3819
0.00 0.00 0.24 -0.46 9.86 0.06 -0.01 -0.07 3826
0.00 0.00 0.23 -0.46 9.82 0.05 0.01 -0.07 3833
0.00 0.00 0.16 -0.50 9.79 0.03 0.01 -0.07 3841
0.01 -0.00 0.15 -0.59 9.82 0.03 0.02 -0.07 3847
0.00 0.00 0.00 -0.51 9.86 0.02 0.02 -0.08 3854
0.00 0.00 -0.02 -0.49 9.86 0.01 0.01 -0.08 3860
0.00 0.00 -0.04 -0.54 9.83 -0.00 0.01 -0.08 3867
0.00 0.00 0.60 -0.51 9.80 -0.00 0.01 -0.08 3874
0.00 0.00 0.03 -0.51 9.82 -0.00 0.01 -0.08 3880
0.00 0.00 0.07 -0.44 9.82 -0.01 0.01 -0.07 3887
0.01 -0.00 0.11 -0.42 9.82 -0.01 0.01 -0.08 3893
0.00 0.00 0.12 -0.41 9.84 -0.01 0.02 -0.07 3900
0.00 0.00 0.15 -0.42 9.79 -0.01 0.02 -0.08 3907
0.00 0.00 0.17 -0.40 9.81 -0.01 0.02 -0.07 3914
0.00 0.00 0.20 -0.34 9.81 -0.01 0.03 -0.08 3921
0.00 0.00 0.17 -0.28 9.76 -0.01 0.03 -0.08 3929
0.00 0.00 0.17 -0.25 9.80 -0.01 0.03 -0.08 3936
0.00 0.00 0.21 -0.23 9.82 -0.01 0.02 -0.08 3943
0.00 0.00 0.21 -0.27 9.77 -0.01 0.02 -0.08 3950
0.00 0.00 0.22 -0.28 9.80 -0.01 0.03 -0.08 3957
0.00 0.00 0.22 -0.22 9.81 -0.01 0.03 -0.08 3964
0.00 0.00 0.24 -0.27 9.81 -0.01 0.03 -0.08 3972
0.00 0.00 0.20 -0.34 9.81 -0.01 0.03 -0.08 3979
0.00 0.00 0.27 -0.39 9.82 -0.01 0.04 -0.08 3985
0.00 0.00 0.16 -0.42 9.82 -0.01 0.04 -0.08 3992
0.00 0.00 0.21 -0.44 9.82 -0.02 0.04 -0.08 3999
0.00 0.00 0.16 -0.47 9.81 -0.01 0.05 -0.08 4006
0.00 0.00 0.18 -0.43 9.80 -0.01 0.05 -0.07 4014
0.00 0.00 0.08 -0.42 9.81 -0.02 0.06 -0.06 4020
0.00 0.00 0.06 -0.41 9.83 -0.02 0.06 -0.06 4027
0.00 0.00 0.13 -0.42 9.79 -0.02 0.05 -0.07 4034
0.00 0.00 0.17 -0.42 9.75 -0.02 0.05 -0.07 4041
0.00 0.00 0.17 -0.42 9.82 -0.01 0.05 -0.06 4048
0.00 0.00 0.17 -0.41 9.81 -0.01 0.04 -0.06 4056
0.00 0.00 0.13 -0.45 9.80 -0.01 0.04 -0.03 4063
0.00 0.00 0.10 -0.49 9.81 -0.01 0.04 -0.07 4070
0.00 0.00 0.07 -0.51 9.81 -0.01 0.07 -0.06 4077
0.00 0.00 0.05 -0.48 9.79 -0.01 0.03 -0.07 4084
0.00 0.00 0.10 -0.46 9.80 -0.01 0.03 -0.07 4090
0.00 0.00 0.17 -0.40 9.81 -0.01 0.03 -0.08 4097
0.00 0.00 0.21 -0.36 9.82 -0.01 0.04 -0.07 4103
0.00 0.00 0.22 -0.36 9.81 -0.01 0.04 -0.08 4110
0.00 0.00 0.20 -0.34 9.82 -0.01 0.04 -0.08 4117
0.00 0.00 0.23 -0.38 9.81 -0.01 0.05 -0.07 4124
0.00 0.00 0.22 -0.37 9.79 -0.01 0.05 -0.07 4131
0.00 0.00 0.20 -0.36 9.81 -0.01 0.06 -0.06 4139
0.00 0.00 0.18 -0.41 9.80 -0.02 0.07 -0.06 4146
0.00 -0.00 0.17 -0.37 9.81 -0.02 0.07 -0.06 4153
0.00 0.00 0.15 -0.37 9.82 -0.02 0.07 -0.07 4160
0.00 0.00 0.14 -0.39 9.81 -0.01 0.06 -0.06 4167
0.00 0.00 0.13 -0.40 9.78 -0.01 0.06 -0.06 4174
0.00 -0.00 0.11 -0.39 9.82 -0.01 0.06 -0.07 4182
0.01 -0.00 0.08 -0.41 9.82 -0.01 0.05 -0.07 4189
0.00 0.00 0.08 -0.46 9.82 -0.01 0.05 -0.07 4196
0.00 0.00 0.02 -0.49 9.81 -0.01 0.05 -0.07 4202
0.00 0.00 -0.01 -0.48 10.14 -0.01 0.05 -0.07 4208
0.00 0.00 0.04 -0.43 10.03 -0.01 0.05 -0.07 4215
0.00 -0.00 0.10 -0.38 9.82 -0.01 0.05 -0.08 4222
0.01 -0.00 0.17 -0.32 9.81 -0.02 0.05 -0.08 4230
0.00 -0.00 0.23 -0.31 9.84 -0.01 0.05 -0.08 4237
0.01 -0.00 0.29 -0.22 9.82 -0.01 0.04 -0.08 4244
0.00 -0.00 0.33 -0.26 9.82 -0.01 0.05 -0.08 4251
0.00 -0.00 0.31 -0.25 9.83 -0.01 0.05 -0.08 4258
0.01 -0.00 0.35 -0.26 9.77 -0.01 0.05 -0.08 4265
0.01 -0.00 0.35 -0.23 9.82 -0.01 0.05 -0.08 4273
0.00 0.00 0.32 -0.27 9.79 -0.01 0.05 -0.08 4280
0.01 -0.00 0.29 -0.33 10.42 -0.01 0.04 -0.08 4287
0.00 0.00 0.24 -0.34 9.82 -0.01 0.04 -0.08 4294
0.01 -0.00 0.21 -0.41 9.79 -0.01 0.04 -0.08 4301
0.02 -0.00 0.13 -0.42 9.80 -0.01 0.04 -0.08 4308
0.02 -0.00 0.09 -0.42 9.81 -0.01 0.03 -0.08 4316
0.00 0.00 0.01 -0.46 9.82 -0.00 0.03 -0.08 4323
0.00 0.00 0.00 -0.50 9.82 -0.01 0.04 -0.08 4329
0.00 0.00 0.00 -0.51 9.80 -0.01 0.04 -0.08 4335
0.00 0.00 0.02 -0.47 9.82 -0.00 0.05 -0.08 4341
0.01 -0.00 0.03 -0.46 9.82 -0.01 0.05 -0.08 4347
0.01 -0.00 0.13 -0.43 9.81 -0.01 0.05 -0.08 4355
0.00 -0.00 0.14 -0.42 9.82 -0.00 0.05 -0.08 4362
0.02 -0.00 0.21 -0.38 9.79 -0.01 0.05 -0.08 4369
0.01 -0.00 0.24 -0.34 9.79 -0.01 0.05 -0.08 4376
0.02 -0.00 0.27 -0.33 9.81 -0.00 0.04 -0.09 4383
0.03 -0.00 0.31 -0.32 9.78 -0.01 0.04 -0.08 4390
0.03 -0.00 0.26 -0.26 9.81 0.00 0.04 -0.08 4398
0.03 -0.00 0.29 -0.28 9.80 -0.01 0.04 -0.08 4405
0.04 -0.00 0.24 -0.29 9.82 -0.01 0.04 -0.08 4412
0.03 -0.00 0.26 -0.32 9.78 -0.02 0.05 -0.08 4419
0.04 -0.00 0.26 -0.24 9.77 -0.02 0.06 -0.08 4426
0.04 -0.00 0.26 -0.27 9.81 -0.02 0.05 -0.07 4433
0.04 -0.00 0.25 -0.24 9.81 -0.02 0.04 -0.08 4441
0.03 -0.00 0.25 -0.27 9.80 -0.02 0.04 -0.08 4448
0.02 -0.00 0.20 -0.30 9.81 -0.02 0.04 -0.07 4455
0.02 -0.00 0.14 -0.32 9.83 -0.03 0.04 -0.07 4462
0.04 -0.00 0.12 -0.35 9.83 -0.03 0.05 -0.07 4469
0.04 -0.00 0.10 -0.31 9.81 -0.04 0.05 -0.08 4476
0.02 -0.00 0.08 -0.38 9.86 -0.05 0.06 -0.08 4484
0.03 -0.00 0.04 -0.42 9.82 -0.05 0.08 -0.08 4491
0.02 -0.00 0.03 -0.43 9.82 -0.05 0.11 -0.07 4498
0.03 -0.00 0.04 -0.42 9.84 -0.06 0.14 -0.07 4505
0.03 -0.00 0.07 -0.45 9.84 -0.06 0.19 -0.07 4512
0.04 -0.00 0.14 -0.40 9.95 -0.06 0.25 -0.08 4519
0.04 -0.00 0.17 -0.40 9.22 -0.06 0.29 -0.07 4527
0.05 -0.00 0.26 -0.37 9.75 -0.05 0.31 -0.07 4534
0.03 -0.00 0.32 -0.33 9.74 -0.04 0.32 -0.06 4541
0.03 -0.00 0.41 -0.38 9.64 -0.01 0.34 -0.06 4548
0.04 -0.00 0.39 -0.29 9.61 0.01 0.32 -0.07 4555
0.05 -0.01 0.40 -0.26 9.81 0.03 0.31 -0.07 4562
0.04 -0.00 0.44 -0.30 9.73 0.03 0.31 -0.06 4570
0.06 -0.01 0.38 -0.33 9.68 0.01 0.29 -0.06 4577
0.05 -0.00 0.51 -0.34 9.75 -0.01 0.26 -0.05 4584
0.06 -0.01 0.49 -0.28 9.75 -0.03 0.22 -0.05 4591
0.08 -0.01 0.52 -0.28 9.82 -0.02 0.19 -0.05 4598
0.07 -0.01 0.61 -0.27 9.56 0.05 0.19 -0.05 4605
0.09 -0.01 0.59 -0.23 9.80 0.06 0.16 -0.06 4613
0.07 -0.01 0.64 -0.22 10.33 0.06 0.15 -0.05 4620
0.07 -0.01 0.53 -0.29 9.89 0.07 0.13 -0.05 4627
0.08 -0.00 0.52 -0.31 9.83 0.08 0.13 -0.05 4634
0.08 -0.01 0.45 -0.38 9.77 0.09 0.13 -0.06 4641
0.08 -0.01 0.45 -0.40 9.82 0.10 0.11 -0.05 4648
0.06 -0.01 0.35 -0.42 9.81 0.11 0.09 -0.06 4656
0.06 -0.01 0.40 -0.43 9.81 0.11 0.09 -0.06 4663
0.07 -0.01 0.31 -0.46 9.61 0.10 0.09 -0.07 4670
0.07 -0.00 0.49 -0.43 9.78 0.10 0.08 -0.07 4677
0.08 -0.01 0.57 -0.41 9.80 0.10 0.07 -0.07 4684
0.06 -0.01 0.57 -0.39 9.77 0.09 0.06 -0.07 4691
0.06 -0.01 0.55 -0.35 9.71 0.08 0.05 -0.07 4699
0.07 -0.01 0.60 -0.35 9.54 0.07 0.03 -0.07 4706
0.07 -0.01 0.59 -0.36 9.83 0.05 0.03 -0.07 4713
0.09 0.00 0.51 -0.38 9.77 0.05 0.03 -0.07 4720
0.09 -0.01 0.51 -0.41 9.78 0.04 0.03 -0.10 4727
0.10 -0.01 0.47 -0.38 9.78 0.04 0.03 -0.07 4734
0.08 -0.01 0.47 -0.41 9.84 0.03 0.03 -0.07 4742
0.06 -0.01 0.47 -0.40 9.21 0.03 0.03 -0.06 4749
0.06 -0.01 0.51 -0.40 9.70 0.03 0.03 -0.07 4756
0.08 -0.01 0.47 -0.38 9.57 0.01 0.05 -0.06 4763
0.09 -0.01 0.49 -0.38 9.56 -0.00 0.05 -0.06 4770
0.05 -0.01 0.47 -0.38 9.60 -0.02 0.08 -0.06 4777
0.05 -0.00 0.54 -0.40 9.58 -0.04 0.09 -0.06 4785
0.05 -0.00 0.55 -0.46 9.73 -0.06 0.11 -0.05 4792
0.07 -0.01 0.56 -0.42 9.74 -0.09 0.12 -0.05 4799
0.05 -0.01 0.53 -0.47 9.80 -0.11 0.11 -0.05 4806
0.08 -0.01 0.51 -0.51 9.79 -0.12 0.10 -0.05 4813
0.06 -0.01 0.53 -0.50 9.78 -0.11 0.09 -0.05 4820
0.07 -0.01 0.49 -0.52 9.81 -0.11 0.08 -0.05 4828
0.07 -0.01 0.48 -0.50 9.81 -0.10 0.07 -0.06 4835
0.07 -0.00 0.50 -0.49 9.83 -0.11 0.06 -0.06 4842
0.08 -0.01 0.56 -0.47 9.75 -0.12 0.05 -0.06 4849
0.08 -0.01 0.59 -0.38 9.76 -0.13 0.04 -0.06 4856
0.08 -0.01 0.58 -0.35 9.70 -0.16 0.04 -0.06 4864
0.08 -0.01 0.64 -0.26 9.78 -0.18 0.03 -0.06 4871
0.07 -0.01 0.61 -0.26 9.71 -0.20 0.03 -0.06 4878
0.07 -0.00 0.59 -0.23 9.72 -0.23 0.02 -0.05 4885
0.08 -0.01 0.38 -0.20 10.12 -0.15 -0.01 -0.05 4892
0.08 -0.01 0.56 -0.18 9.69 -0.03 -0.03 -0.05 4899
0.07 -0.01 0.55 -0.22 9.77 -0.03 -0.06 -0.06 4907
0.07 -0.01 0.50 -0.23 9.75 -0.03 -0.09 -0.06 4914
0.08 -0.01 0.49 -0.28 9.96 -0.06 -0.17 -0.06 4921
0.08 -0.01 0.44 -0.27 9.81 -0.08 -0.22 -0.06 4928
0.09 -0.01 0.48 -0.18 9.74 -0.06 -0.23 -0.07 4935
0.08 -0.01 0.48 -0.22 9.81 -0.00 -0.22 -0.07 4942
0.07 -0.01 0.44 -0.25 9.84 -0.01 -0.20 -0.10 4950
0.04 -0.00 0.42 -0.25 9.80 -0.01 -0.17 -0.07 4957
0.06 -0.01 0.41 -0.28 9.73 -0.00 -0.15 -0.07 4964
0.08 -0.01 0.37 -0.29 9.75 0.01 -0.16 -0.07 4971
0.08 -0.01 0.29 -0.31 9.76 0.01 -0.19 -0.07 4978
0.08 -0.01 0.29 -0.34 9.79 0.02 -0.22 -0.08 4985
0.08 -0.01 0.30 -0.35 9.66 0.04 -0.24 -0.08 4993
0.08 -0.01 0.27 -0.30 9.79 0.05 -0.22 -0.07 5000
0.08 -0.01 0.31 -0.34 10.41 0.07 -0.23 -0.08 5007
0.08 -0.01 0.34 -0.34 9.81 0.07 -0.22 -0.07 5014
0.08 -0.01 0.33 -0.35 9.78 0.07 -0.20 -0.08 5021
0.06 -0.01 1.73 -0.49 9.84 0.06 -0.21 -0.08 5028
0.05 -0.01 0.33 -0.43 9.81 0.06 -0.16 -0.08 5036
0.05 -0.00 0.32 -0.46 9.81 0.05 -0.15 -0.07 5043
0.04 0.00 0.29 -0.55 9.82 0.04 -0.11 -0.07 5050
0.05 -0.01 0.21 -0.40 9.79 0.04 -0.07 -0.07 5057
0.04 -0.00 0.17 -0.40 9.77 0.04 -0.07 -0.08 5064
0.04 -0.00 0.07 -0.21 9.82 0.04 -0.06 -0.08 5071
0.04 -0.00 0.02 -0.05 9.82 0.04 -0.04 -0.08 5079
0.03 -0.00 0.08 -0.08 9.82 0.04 -0.03 -0.08 5086
0.05 0.00 0.11 -0.20 9.92 0.04 0.00 -0.08 5093
0.07 -0.01 0.22 -0.19 9.83 0.03 0.03 -0.08 5100
0.04 -0.00 0.29 -0.27 9.84 0.03 0.03 -0.08 5107
0.05 -0.00 0.29 -0.40 9.81 0.02 0.04 -0.07 5114
0.04 -0.00 0.27 -0.51 9.82 0.00 0.04 -0.07 5122
0.05 -0.00 0.20 -0.53 9.81 -0.01 0.05 -0.07 5129
0.05 -0.01 0.17 -0.58 9.20 -0.02 0.06 -0.07 5136
0.03 -0.00 0.11 -0.55 9.82 -0.02 0.06 -0.07 5143
0.03 -0.00 0.09 -0.43 9.82 -0.02 0.05 -0.07 5150
0.03 -0.00 0.01 -0.34 9.81 -0.02 0.04 -0.07 5157
0.00 -0.00 0.05 -0.36 9.82 -0.01 0.03 -0.08 5165
0.02 -0.00 0.08 -0.39 9.81 -0.01 0.02 -0.08 5172
0.01 -0.00 0.11 -0.40 9.81 -0.01 0.01 -0.08 5179
0.01 -0.00 0.18 -0.36 9.82 -0.01 0.01 -0.08 5186
0.01 -0.00 0.23 -0.34 9.82 -0.01 0.02 -0.08 5193
0.00 0.00 0.24 -0.35 9.81 -0.01 0.02 -0.08 5200
0.00 0.00 0.26 -0.40 9.82 -0.01 0.02 -0.07 5208
0.01 -0.00 0.23 -0.47 9.81 -0.02 0.03 -0.08 5214
0.00 0.00 0.21 -0.50 9.82 -0.01 0.04 -0.07 5221
0.00 -0.00 0.13 -0.46 9.82 -0.01 0.04 -0.07 5228
0.00 0.00 0.12 -0.45 9.81 -0.02 0.04 -0.07 5235
0.00 0.00 0.11 -0.41 9.82 -0.02 0.05 -0.07 5242
0.00 0.00 0.11 -0.34 9.82 -0.01 0.05 -0.07 5250
0.00 0.00 0.13 -0.34 9.81 -0.02 0.05 -0.08 5257
0.00 0.00 0.19 -0.30 9.82 -0.02 0.05 -0.07 5264
0.00 0.00 0.25 -0.26 9.82 -0.01 0.05 -0.08 5271
0.00 -0.00 0.29 -0.24 9.80 -0.01 0.04 -0.08 5278
0.00 0.00 0.30 -0.29 9.82 -0.01 0.03 -0.07 5285
0.00 0.00 0.29 -0.37 9.80 -0.01 0.02 -0.08 5292
0.00 0.00 0.26 -0.42 9.78 -0.01 0.01 -0.08 5299
0.00 0.00 0.20 -0.45 9.81 -0.00 0.00 -0.08 5306
0.00 0.00 0.16 -0.46 9.82 -0.00 -0.00 -0.08 5312
0.00 0.00 0.18 -0.45 9.21 -0.00 0.01 -0.07 5319
0.00 0.00 0.10 -0.45 9.80 -0.01 0.01 -0.06 5326
0.00 0.00 0.06 -0.43 9.82 -0.01 0.02 -0.06 5332
0.00 0.00 0.07 -0.42 9.82 -0.01 0.03 -0.06 5339
0.00 0.00 0.05 -0.39 9.81 -0.01 0.03 -0.07 5346
0.00 0.00 0.08 -0.40 9.83 -0.01 0.05 -0.07 5353
0.00 0.00 0.07 -0.40 9.82 -0.02 0.05 -0.08 5360
0.00 0.00 0.14 -0.37 9.81 -0.02 0.05 -0.08 5367
0.00 0.00 0.12 -0.40 9.21 -0.01 0.06 -0.08 5374
0.00 0.00 0.12 -0.42 9.82 -0.02 0.06 -0.08 5382
0.00 0.00 0.08 -0.44 9.82 -0.01 0.05 -0.08 5389
0.00 0.00 0.11 -0.44 9.82 -0.02 0.05 -0.08 5396
0.00 0.00 0.12 -0.41 9.80 -0.01 0.05 -0.08 5403
0.00 0.00 0.16 -0.38 9.82 -0.02 0.06 -0.07 5410
0.00 0.00 0.22 -0.34 9.82 -0.02 0.06 -0.08 5417
0.00 0.00 0.21 -0.33 9.79 -0.01 0.05 -0.08 5425
0.00 0.00 0.23 -0.33 9.82 -0.01 0.04 -0.08 5432
0.00 0.00 0.21 -0.32 9.80 -0.01 0.03 -0.08 5439
0.00 0.00 0.22 -0.35 9.80 -0.01 0.02 -0.08 5446
0.00 0.00 0.20 -0.38 9.82 -0.00 0.02 -0.07 5453
0.00 0.00 0.19 -0.37 9.80 -0.00 0.02 -0.07 5460
0.00 0.00 0.15 -0.44 9.81 -0.01 0.02 -0.08 5467
0.00 0.00 0.09 -0.44 9.81 -0.01 0.03 -0.08 5474
0.01 -0.00 0.13 -0.43 9.81 -0.01 0.07 -0.08 5480
0.00 0.00 0.12 -0.38 9.82 -0.01 0.04 -0.08 5487
0.00 0.00 0.15 -0.35 9.83 -0.01 0.05 -0.08 5494
0.00 0.00 0.14 -0.35 9.78 -0.02 0.05 -0.09 5501
0.00 0.00 0.17 -0.35 9.81 -0.01 0.06 -0.08 5509
0.01 -0.00 0.18 -0.33 9.78 -0.01 0.05 -0.08 5516
0.00 0.00 0.21 -0.37 10.42 -0.01 0.05 -0.08 5523
0.00 0.00 0.19 -0.40 9.81 -0.01 0.05 -0.08 5530
0.00 0.00 0.21 -0.43 9.80 -0.01 0.04 -0.08 5537
0.00 0.00 0.15 -0.42 9.80 -0.01 0.04 -0.08 5544
0.00 0.00 0.10 -0.42 9.80 -0.01 0.04 -0.08 5552
0.04 -0.00 0.11 -0.42 9.84 -0.01 0.04 -0.08 5558
0.00 -0.00 0.07 -0.41 9.82 -0.01 0.04 -0.08 5565
0.00 -0.00 0.11 -0.42 9.80 -0.01 0.04 -0.08 5572
0.00 0.00 0.09 -0.42 9.83 -0.01 0.03 -0.08 5579
0.00 0.00 0.11 -0.39 9.80 -0.00 0.04 -0.08 5586
0.00 0.00 0.07 -0.42 9.79 -0.00 0.04 -0.08 5593
0.01 -0.00 0.18 -0.37 9.80 -0.01 0.04 -0.08 5599
0.00 0.00 0.17 -0.38 9.79 -0.01 0.04 -0.09 5606
0.00 -0.00 0.17 -0.36 9.81 -0.01 0.04 -0.08 5613
0.00 0.00 0.14 -0.34 9.79 -0.01 0.04 -0.08 5620
0.00 -0.00 0.16 -0.36 9.81 -0.00 0.04 -0.08 5627
0.01 -0.00 0.19 -0.38 9.81 -0.00 0.04 -0.09 5635
0.02 -0.00 0.20 -0.38 9.82 -0.01 0.04 -0.08 5642
0.01 -0.00 0.18 -0.40 9.83 0.00 0.03 -0.08 5649
0.00 0.00 0.19 -0.36 9.81 -0.01 0.04 -0.08 5656
0.00 0.00 0.15 -0.34 9.81 -0.01 0.04 -0.08 5663
0.00 -0.00 0.24 -0.32 9.81 -0.01 0.04 -0.08 5670
0.00 -0.00 0.26 -0.29 9.82 -0.01 0.04 -0.07 5678
0.01 -0.00 0.28 -0.32 9.82 -0.00 0.03 -0.08 5685
0.00 0.00 0.23 -0.33 9.81 -0.00 0.03 -0.08 5692
0.00 -0.00 0.18 -0.37 9.80 -0.00 0.02 -0.08 5699
0.00 0.00 0.14 -0.41 9.79 -0.00 0.02 -0.08 5706
0.01 -0.00 0.08 -0.45 9.81 -0.00 0.02 -0.08 5712
0.00 0.00 0.04 -0.47 9.82 -0.00 0.02 -0.09 5720
0.01 -0.00 0.02 -0.47 9.82 -0.00 0.02 -0.09 5726
0.02 -0.00 -0.00 -0.49 9.82 -0.01 0.02 -0.09 5733
0.02 -0.00 0.03 -0.46 9.82 -0.01 0.02 -0.08 5740
0.02 -0.00 0.04 -0.43 9.80 -0.01 0.02 -0.09 5747
0.02 -0.00 0.11 -0.43 9.85 -0.01 0.03 -0.09 5754
0.02 -0.00 0.14 -0.37 9.83 -0.01 0.02 -0.09 5762
0.02 -0.00 0.21 -0.33 9.80 -0.02 0.02 -0.09 5769
0.01 -0.00 0.21 -0.30 9.83 -0.02 0.03 -0.09 5776
0.02 -0.00 0.22 -0.28 9.82 -0.02 0.03 -0.09 5783
0.01 -0.00 0.22 -0.24 9.83 -0.02 0.03 -0.09 5790
0.02 -0.00 0.22 -0.26 9.76 -0.02 0.03 -0.08 5797
0.03 -0.00 0.17 -0.22 9.82 -0.02 0.03 -0.08 5805
0.03 -0.00 0.17 -0.25 9.81 -0.03 0.04 -0.09 5812
0.03 -0.00 0.12 -0.24 10.39 -0.03 0.05 -0.08 5819
0.04 -0.00 0.14 -0.26 9.83 -0.03 0.06 -0.08 5826
0.04 -0.00 0.15 -0.25 9.82 -0.04 0.07 -0.08 5833
0.04 -0.00 0.14 -0.26 9.82 -0.04 0.09 -0.08 5840
0.05 -0.01 0.13 -0.29 9.81 -0.05 0.10 -0.08 5848
0.04 -0.00 0.09 -0.29 9.83 -0.05 0.12 -0.08 5855
0.04 -0.00 0.08 -0.33 9.76 -0.05 0.14 -0.07 5862
0.02 -0.00 0.10 -0.35 9.78 -0.05 0.15 -0.07 5869
0.04 -0.00 0.05 -0.40 9.88 -0.05 0.16 -0.07 5876
0.07 -0.00 0.06 -0.45 9.78 -0.05 0.18 -0.07 5883
0.09 -0.01 0.09 -0.47 9.80 -0.05 0.19 -0.07 5891
0.08 -0.01 0.11 -0.45 9.78 -0.04 0.21 -0.07 5898
0.09 -0.01 0.16 -0.45 9.79 -0.04 0.23 -0.07 5905
0.08 -0.01 0.20 -0.40 9.75 -0.04 0.22 -0.06 5912
0.07 -0.01 0.29 -0.34 9.77 -0.03 0.21 -0.07 5919
0.07 -0.01 0.31 -0.31 9.80 -0.03 0.21 -0.07 5926
0.08 -0.01 0.39 -0.28 9.76 -0.03 0.22 -0.07 5934
0.07 -0.01 0.44 -0.27 9.74 -0.02 0.23 -0.06 5941
0.08 -0.01 0.45 -0.32 9.75 -0.01 0.25 -0.06 5948
0.07 -0.01 0.40 -0.29 9.73 0.01 0.27 -0.05 5955
0.08 -0.01 0.46 -0.36 9.94 0.02 0.31 -0.05 5962
0.06 -0.01 0.36 -0.40 9.73 0.03 0.33 -0.05 5969
0.09 -0.01 0.38 -0.44 9.85 0.04 0.33 -0.05 5977
0.08 -0.01 0.34 -0.53 9.81 0.01 0.28 -0.05 5984
0.08 -0.01 0.42 -0.41 9.91 0.01 0.20 -0.05 5991
0.11 -0.01 0.44 -0.41 9.66 0.07 0.16 -0.05 5998
0.13 -0.01 0.43 -0.34 9.62 0.04 0.13 -0.06 6005
0.14 -0.01 0.51 -0.33 9.83 0.01 0.11 -0.06 6012
0.14 -0.01 0.50 -0.30 9.66 -0.01 0.10 -0.06 6020
0.13 -0.01 0.43 -0.32 9.82 -0.01 0.09 -0.06 6027
0.11 -0.01 0.41 -0.35 9.84 0.01 0.09 -0.06 6034
0.11 -0.01 0.40 -0.35 9.80 0.03 0.09 -0.06 6041
0.11 -0.01 0.40 -0.31 9.85 0.05 0.09 -0.06 6048
0.16 -0.02 0.41 -0.33 9.79 0.08 0.09 -0.06 6055
0.13 -0.01 0.42 -0.28 9.80 0.11 0.09 -0.06 6063
0.13 -0.01 0.45 -0.31 9.74 0.12 0.08 -0.06 6070
0.13 -0.01 0.50 -0.29 9.75 0.11 0.07 -0.06 6077
0.13 -0.01 0.57 -0.24 9.61 0.09 0.07 -0.06 6084
0.12 -0.00 0.52 -0.21 9.70 0.05 0.06 -0.06 6091
0.14 -0.01 0.49 -0.23 9.74 0.02 0.06 -0.06 6098
0.13 -0.01 0.50 -0.30 9.71 -0.00 0.05 -0.05 6106
0.13 -0.01 0.46 -0.34 9.78 -0.02 0.05 -0.06 6113
0.10 -0.01 0.49 -0.38 9.77 -0.03 0.05 -0.05 6120
0.10 -0.01 0.42 -0.41 9.81 -0.03 0.05 -0.06 6127
0.11 -0.01 0.46 -0.41 9.76 -0.02 0.05 -0.05 6134
0.11 -0.01 0.45 -0.43 9.81 -0.02 0.05 -0.06 6141
0.09 -0.01 0.42 -0.44 9.76 -0.01 0.05 -0.06 6149
0.09 -0.01 0.45 -0.47 9.80 -0.01 0.04 -0.06 6156
0.10 -0.01 0.56 -0.42 9.68 -0.01 0.04 -0.06 6163
0.12 -0.01 0.54 -0.34 9.73 -0.02 0.04 -0.06 6170
0.16 -0.02 0.51 -0.40 9.79 -0.05 0.04 -0.06 6177
0.18 -0.02 0.58 -0.34 9.75 -0.06 0.03 -0.06 6184
0.16 -0.02 0.56 -0.33 9.75 -0.09 0.03 -0.06 6192
0.15 -0.02 0.57 -0.34 9.79 -0.10 0.03 -0.06 6199
0.15 -0.01 0.58 -0.38 9.75 -0.11 0.03 -0.06 6206
0.15 -0.01 0.52 -0.36 9.75 -0.12 0.03 -0.06 6213
0.20 -0.01 0.51 -0.35 9.75 -0.12 0.03 -0.06 6220
0.19 -0.01 0.46 -0.37 9.80 -0.14 0.02 -0.05 6227
0.17 -0.02 0.46 -0.33 9.68 -0.15 0.02 -0.06 6235
0.17 -0.02 0.47 -0.29 9.87 -0.04 -0.01 -0.06 6242
0.18 -0.01 0.43 -0.29 9.81 -0.02 -0.03 -0.06 6249
0.17 -0.00 0.35 -0.16 9.82 -0.01 -0.05 -0.06 6256
0.19 -0.01 0.37 -0.08 9.80 -0.01 -0.06 -0.06 6263
0.18 -0.02 0.42 -0.09 9.81 -0.01 -0.09 -0.07 6270
0.16 -0.02 0.43 -0.09 9.87 -0.03 -0.11 -0.07 6278
0.16 -0.02 0.47 -0.17 9.76 -0.05 -0.14 -0.07 6285
0.15 -0.02 0.53 -0.21 9.77 -0.05 -0.14 -0.07 6292
0.16 -0.01 0.49 -0.29 9.78 -0.04 -0.14 -0.07 6299
0.16 -0.02 0.46 -0.27 9.71 -0.03 -0.15 -0.07 6306
0.13 -0.01 0.38 -0.39 9.76 -0.03 -0.17 -0.07 6313
0.13 -0.01 0.34 -0.42 9.80 -0.02 -0.16 -0.06 6321
0.12 -0.01 0.30 -0.46 9.74 -0.02 -0.19 -0.07 6328
0.11 -0.01 0.28 -0.44 9.73 -0.01 -0.21 -0.07 6335
0.12 -0.01 0.26 -0.39 9.77 0.00 -0.23 -0.08 6342
0.13 -0.01 0.21 -0.33 9.73 0.01 -0.23 -0.08 6349
0.12 -0.01 0.19 -0.28 9.80 0.03 -0.20 -0.08 6356
0.11 -0.01 0.10 -0.28 9.82 0.04 -0.16 -0.08 6364
0.10 -0.01 0.09 -0.27 9.82 0.04 -0.14 -0.08 6371
0.11 -0.01 0.13 -0.21 9.81 0.04 -0.12 -0.07 6378
0.13 -0.01 0.15 -0.22 9.87 0.04 -0.13 -0.07 6385
0.12 -0.01 0.26 -0.26 10.26 0.05 -0.14 -0.08 6392
0.11 -0.01 0.27 -0.31 9.81 0.05 -0.14 -0.08 6400
0.08 -0.01 0.31 -0.40 9.73 0.05 -0.14 -0.08 6407
0.06 -0.01 0.32 -0.41 9.70 0.05 -0.15 -0.08 6414
0.08 -0.00 0.27 -0.40 9.81 0.05 -0.12 -0.07 6421
0.11 -0.01 0.22 -0.31 10.42 0.04 -0.09 -0.07 6428
0.10 -0.01 0.17 -0.29 9.82 0.03 -0.04 -0.08 6435
0.08 -0.01 0.13 -0.26 9.82 0.04 -0.03 -0.07 6443
0.06 -0.01 0.10 -0.24 9.80 0.03 -0.01 -0.08 6450
0.05 -0.00 0.12 -0.23 9.84 0.02 0.02 -0.08 6457
0.07 -0.00 0.11 -0.28 9.82 0.03 0.02 -0.08 6464
0.05 -0.01 0.12 -0.33 9.84 0.02 0.02 -0.07 6471
0.05 -0.01 0.16 -0.44 9.83 0.01 0.02 -0.08 6478
0.04 -0.00 0.10 -0.53 9.82 0.01 0.02 -0.08 6486
0.02 -0.00 0.09 -0.62 9.82 0.00 0.02 -0.08 6493
0.02 -0.00 0.06 -1.21 9.81 0.00 0.02 -0.08 6500
0.02 -0.00 0.02 -0.64 9.79 -0.00 0.03 -0.08 6507
0.02 -0.00 -0.04 -0.54 9.83 -0.00 0.03 -0.08 6514
0.02 -0.00 -0.06 -0.43 9.82 -0.00 0.04 -0.08 6521
0.01 -0.00 0.00 -0.40 9.83 -0.00 0.04 -0.08 6529
0.00 0.00 0.02 -0.35 9.81 -0.00 0.04 -0.08 6536
0.00 0.00 0.06 -0.30 9.80 -0.00 0.03 -0.08 6542
0.00 0.00 0.16 -0.29 9.83 -0.00 0.03 -0.08 6548
0.02 -0.00 0.22 -0.23 9.77 -0.00 0.04 -0.09 6555
0.01 -0.00 0.31 -0.24 9.80 -0.01 0.04 -0.08 6562
0.00 0.00 0.34 -0.32 9.82 -0.01 0.04 -0.09 6569
0.00 0.00 0.36 -0.38 9.81 -0.01 0.04 -0.08 6577
0.00 0.00 0.33 -0.42 9.82 -0.01 0.04 -0.08 6584
0.00 0.00 0.26 -0.43 9.83 -0.01 0.04 -0.08 6591
0.00 0.00 0.16 -0.42 9.81 -0.01 0.04 -0.07 6598
0.00 0.00 0.09 -0.40 9.83 -0.01 0.04 -0.07 6605
0.00 0.00 0.07 -0.43 9.82 -0.02 0.04 -0.08 6611
0.00 0.00 0.03 -0.46 9.81 -0.01 0.04 -0.08 6619
0.00 0.00 0.01 -0.48 9.81 -0.02 0.04 -0.08 6626
-0.00 0.00 0.00 -0.41 9.82 -0.01 0.04 -0.08 6633
0.00 0.00 0.03 -0.40 9.81 -0.02 0.04 -0.08 6640
0.00 0.00 0.08 -0.46 9.82 -0.02 0.04 -0.08 6646
0.00 0.00 0.07 -0.46 9.81 -0.01 0.04 -0.08 6653
0.00 0.00 0.04 -0.47 9.81 -0.01 0.04 -0.08 6661
0.00 0.00 0.07 -0.44 10.41 -0.01 0.04 -0.08 6668
0.00 0.00 0.07 -0.44 9.82 -0.01 0.04 -0.07 6675
0.00 0.00 0.10 -0.44 9.81 -0.01 0.04 -0.07 6681
0.00 0.00 0.08 -0.42 9.80 -0.01 0.04 -0.07 6688
0.00 0.00 0.11 -0.45 9.82 -0.01 0.04 -0.07 6694
0.00 0.00 0.10 -0.43 9.79 -0.01 0.04 -0.07 6702
0.00 0.00 0.13 -0.43 9.81 -0.01 0.04 -0.08 6709
0.00 0.00 0.15 -0.38 9.80 -0.01 0.04 -0.07 6716
0.00 0.00 0.18 -0.35 9.81 -0.01 0.04 -0.07 6723
0.00 0.00 0.20 -0.32 9.80 -0.01 0.04 -0.08 6730
0.00 0.00 0.20 -0.33 9.81 -0.01 0.04 -0.08 6737
0.00 0.00 0.21 -0.37 9.79 -0.01 0.04 -0.08 6745
0.00 0.00 0.17 -0.37 9.81 -0.01 0.04 -0.07 6752
0.00 0.00 0.10 -0.36 9.82 -0.02 0.03 -0.08 6759
0.00 0.00 0.13 -0.44 9.82 -0.01 0.03 -0.08 6766
0.00 0.00 0.08 -0.41 9.83 -0.01 0.03 -0.09 6773
0.00 0.00 0.09 -0.45 9.80 -0.01 0.03 -0.08 6780
0.00 0.00 0.05 -0.44 9.83 -0.01 0.04 -0.09 6787
0.00 0.00 0.02 -0.44 9.83 -0.01 0.04 -0.09 6794
0.00 0.00 0.02 -0.44 9.80 -0.01 0.04 -0.09 6801
0.00 0.00 0.06 -0.44 9.79 -0.01 0.05 -0.09 6807
0.00 0.00 0.07 -0.38 9.20 -0.01 0.04 -0.09 6814
0.00 0.00 0.15 -0.39 9.81 -0.01 0.03 -0.09 6821
0.00 0.00 0.15 -0.39 9.83 -0.01 0.04 -0.09 6829
0.00 0.00 0.14 -0.36 9.81 -0.01 0.03 -0.09 6836
0.00 -0.00 0.21 -0.36 9.81 -0.01 0.03 -0.09 6843
0.00 0.00 0.20 -0.35 9.81 -0.01 0.04 -0.09 6850
0.00 0.00 0.17 -0.37 9.81 -0.01 0.04 -0.09 6857
0.00 0.00 0.16 -0.37 9.82 -0.01 0.04 -0.09 6864
0.00 0.00 0.18 -0.35 9.82 -0.01 0.05 -0.09 6872
0.00 0.00 0.13 -0.37 9.82 -0.01 0.05 -0.09 6879
0.01 -0.00 0.16 -0.38 9.82 -0.01 0.05 -0.08 6886
0.00 0.00 0.10 -0.41 9.81 -0.01 0.05 -0.08 6893
0.00 0.00 0.06 -0.40 9.84 -0.01 0.05 -0.09 6900
0.00 0.00 0.06 -0.46 9.20 -0.01 0.05 -0.09 6906
0.00 0.00 0.06 -0.43 9.80 -0.01 0.05 -0.08 6913
0.01 -0.00 0.06 -0.42 9.81 -0.01 0.05 -0.08 6919
0.00 0.00 0.09 -0.41 10.42 -0.01 0.05 -0.08 6926
0.01 -0.00 0.06 -0.41 9.83 -0.01 0.05 -0.09 6933
0.00 -0.00 0.08 -0.42 9.81 -0.01 0.04 -0.09 6940
0.00 0.00 0.09 -0.44 9.82 -0.01 0.04 -0.09 6947
0.01 -0.00 0.10 -0.39 9.81 -0.01 0.04 -0.09 6953
0.00 0.00 0.17 -0.37 9.77 -0.01 0.04 -0.09 6961
0.00 -0.00 0.16 -0.35 9.81 -0.01 0.04 -0.09 6968
0.00 -0.00 0.18 -0.30 9.85 -0.01 0.04 -0.09 6975
0.00 0.00 0.21 -0.34 9.80 -0.01 0.04 -0.09 6982
0.00 -0.00 0.24 -0.31 9.80 -0.01 0.04 -0.09 6989
0.00 0.00 0.20 -0.32 9.78 -0.01 0.03 -0.09 6996
0.00 0.00 0.18 -0.34 9.81 -0.01 0.04 -0.09 7004
0.01 -0.00 0.11 -0.36 9.83 -0.01 0.03 -0.08 7011
0.01 -0.00 0.08 -0.40 9.82 -0.01 0.03 -0.09 7018
0.00 -0.00 0.07 -0.45 9.82 -0.01 0.03 -0.08 7025
0.01 -0.00 -0.03 -0.49 9.80 -0.02 0.03 -0.09 7032
0.00 0.00 -0.01 -0.48 9.81 -0.02 0.03 -0.09 7040
0.01 -0.00 0.00 -0.49 9.82 -0.02 0.03 -0.09 7047
0.02 -0.00 0.03 -0.43 9.82 -0.02 0.04 -0.09 7054
0.01 -0.00 0.06 -0.39 9.81 -0.02 0.04 -0.09 7061
0.00 0.00 0.10 -0.37 9.83 -0.02 0.03 -0.09 7068
0.00 0.00 0.19 -0.35 9.81 -0.03 0.03 -0.09 7075
0.00 -0.00 0.21 -0.31 9.78 -0.03 0.03 -0.09 7083
0.01 -0.00 0.19 -0.31 9.80 -0.03 0.04 -0.09 7090
0.01 -0.00 0.16 -0.29 9.80 -0.03 0.04 -0.09 7097
0.00 0.00 0.12 -0.33 9.81 -0.03 0.04 -0.08 7104
0.00 0.00 0.09 -0.31 9.79 -0.03 0.05 -0.08 7111
0.00 0.00 0.07 -0.37 9.84 -0.02 0.06 -0.09 7118
0.02 -0.00 0.06 -0.32 9.80 -0.02 0.07 -0.08 7126
0.03 -0.00 0.13 -0.26 9.81 -0.02 0.08 -0.08 7133
0.02 -0.00 0.14 -0.28 9.80 -0.03 0.09 -0.08 7140
0.02 -0.00 0.12 -0.26 9.80 -0.03 0.10 -0.08 7147
0.02 -0.00 0.16 -0.25 9.79 -0.03 0.11 -0.07 7154
0.01 -0.00 0.12 -0.27 9.79 -0.03 0.12 -0.07 7161
0.02 -0.00 0.09 -0.32 9.81 -0.03 0.12 -0.07 7169
0.02 -0.00 0.14 -0.32 9.80 -0.03 0.12 -0.07 7176
0.04 -0.00 -0.01 -0.39 9.83 -0.04 0.12 -0.07 7183
0.05 -0.01 0.10 -0.42 9.81 -0.04 0.12 -0.07 7190
0.03 -0.00 0.14 -0.44 9.73 -0.04 0.13 -0.07 7197
0.03 -0.00 0.17 -0.44 9.78 -0.04 0.13 -0.07 7204
0.03 -0.00 0.29 -0.42 9.79 -0.00 0.13 -0.07 7212
0.09 -0.01 0.30 -0.34 9.86 -0.03 0.14 -0.04 7219
0.08 -0.01 0.32 -0.37 9.80 -0.03 0.15 -0.07 7226
0.07 -0.01 0.33 -0.38 9.82 -0.03 0.17 -0.06 7233
0.06 -0.01 0.31 -0.39 9.74 -0.03 0.19 -0.06 7240
0.05 -0.01 0.21 -0.40 9.80 -0.03 0.21 -0.06 7247
0.08 -0.01 0.16 -0.41 9.75 -0.02 0.23 -0.06 7255
0.11 -0.01 0.11 -0.43 9.84 -0.02 0.26 -0.06 7262
0.10 -0.01 0.09 -0.42 9.75 -0.01 0.26 -0.06 7269
0.10 -0.01 0.17 -0.36 9.82 -0.00 0.26 -0.06 7276
0.11 -0.01 0.20 -0.31 9.81 -0.00 0.24 -0.06 7283
0.12 -0.01 0.27 -0.21 9.73 -0.00 0.22 -0.06 7290
0.12 -0.01 0.36 -0.20 9.80 -0.00 0.19 -0.06 7298
0.14 -0.01 0.38 -0.13 9.77 -0.00 0.15 -0.06 7305
0.11 -0.01 0.41 -0.13 9.82 -0.01 0.14 -0.06 7312
0.10 -0.01 0.46 -0.10 9.79 -0.00 0.13 -0.06 7319
0.10 -0.01 0.48 -0.15 9.74 -0.00 0.14 -0.05 7326
0.12 -0.01 0.45 -0.19 9.79 -0.00 0.14 -0.06 7333
0.13 -0.00 0.43 -0.18 9.75 -0.00 0.15 -0.06 7341
0.15 -0.02 0.42 -0.24 9.81 0.00 0.14 -0.05 7348
0.15 -0.01 0.40 -0.30 9.78 -0.01 0.14 -0.05 7355
0.15 -0.02 0.40 -0.33 9.73 -0.01 0.13 -0.05 7362
0.15 -0.01 0.39 -0.40 9.22 -0.02 0.13 -0.06 7369
0.15 -0.01 0.40 -0.41 9.79 -0.01 0.12 -0.05 7376
0.16 -0.02 0.38 -0.40 9.83 -0.00 0.12 -0.06 7384
0.17 -0.02 0.34 -0.39 9.74 0.02 0.10 -0.05 7391
0.16 -0.02 0.40 -0.44 9.78 0.03 0.09 -0.06 7398
0.16 -0.02 0.40 -0.43 9.79 0.03 0.08 -0.06 7405
0.15 -0.01 0.42 -0.40 9.77 0.05 0.08 -0.06 7412
0.13 -0.00 0.48 -0.40 9.80 0.06 0.09 -0.06 7419
0.14 -0.01 0.42 -0.34 9.98 0.08 0.09 -0.06 7427
0.14 -0.01 0.41 -0.39 9.40 0.09 0.11 -0.07 7434
0.13 -0.01 0.44 -0.30 9.87 0.11 0.10 -0.07 7441
0.12 -0.01 0.56 -0.30 9.69 0.14 0.09 -0.06 7448
0.12 -0.01 0.46 -0.28 10.49 0.14 0.06 -0.06 7455
0.13 -0.00 0.53 -0.05 9.64 0.10 -0.02 -0.07 7462
0.14 -0.01 0.36 -0.32 10.21 0.13 -0.01 -0.07 7470
0.13 -0.01 -0.12 -2.14 6.25 0.10 -0.02 -0.09 7477
0.13 -0.01 0.46 -0.44 9.69 0.10 0.02 -0.09 7484
0.12 -0.01 0.46 -0.36 9.82 0.09 0.02 -0.09 7491
0.11 -0.01 0.35 -0.42 10.28 0.08 0.01 -0.09 7498
0.12 -0.00 0.36 -0.54 9.97 0.07 0.00 -0.08 7505
0.16 -0.02 0.37 -0.58 9.81 0.07 -0.01 -0.08 7513
0.17 -0.02 0.38 -0.59 9.82 0.07 -0.04 -0.08 7520
0.15 -0.02 0.48 -0.63 9.87 0.07 -0.06 -0.09 7527
0.13 -0.01 0.55 -0.59 9.82 0.09 -0.07 -0.11 7534
0.13 -0.01 0.54 -0.61 9.87 0.09 -0.08 -0.12 7541
0.12 -0.01 0.35 -0.46 9.97 0.09 -0.10 -0.12 7548
0.12 -0.01 0.36 -0.59 10.28 0.10 -0.12 -0.11 7556
0.12 -0.01 -0.08 -0.15 9.23 0.09 -0.08 -0.09 7563
0.11 -0.01 0.01 -0.39 9.95 0.08 -0.08 -0.07 7570
0.10 -0.01 -0.02 -0.29 8.66 0.08 -0.10 -0.04 7577
0.12 -0.01 0.10 -0.43 9.86 0.09 -0.12 -0.04 7584
0.12 -0.01 0.18 -0.52 10.25 0.10 -0.12 -0.04 7591
0.12 -0.01 0.57 -0.57 10.00 0.12 -0.16 -0.06 7599
0.11 -0.01 0.23 -0.46 10.34 0.17 -0.23 -0.05 7606
0.11 -0.01 0.55 -0.56 10.05 0.18 -0.26 -0.08 7613
0.11 -0.01 0.46 -0.61 9.68 0.19 -0.29 -0.09 7620
0.12 -0.01 0.44 -0.71 9.86 0.19 -0.30 -0.10 7627
0.13 -0.01 0.51 -0.67 10.02 0.18 -0.31 -0.10 7634
0.13 -0.01 0.36 -0.54 10.57 0.18 -0.28 -0.10 7642
0.12 -0.01 0.34 -0.58 9.52 0.17 -0.28 -0.11 7649
0.12 -0.01 0.05 -0.61 10.21 0.19 -0.26 -0.11 7656
0.13 -0.01 0.03 -0.62 10.64 0.27 -0.21 -0.11 7663
0.14 0.00 0.14 -0.72 9.61 0.33 -0.18 -0.10 7670
0.15 -0.02 0.15 -0.74 9.58 0.33 -0.15 -0.09 7677
0.15 -0.01 0.02 -0.74 9.50 0.31 -0.14 -0.09 7685
0.15 -0.02 0.34 -0.73 9.80 0.29 -0.13 -0.09 7692
0.14 -0.01 -16.52 1.41 24.36 0.36 -0.75 -0.34 7700
0.14 -0.01 -2.77 0.01 6.81 0.62 -0.47 -0.17 7706
0.15 -0.01 0.43 -0.95 6.86 0.49 -0.09 -0.10 7713
0.15 -0.02 0.04 -1.05 8.20 0.27 -0.01 -0.09 7720
0.14 -0.01 -0.39 -0.92 8.98 0.14 -0.03 -0.09 7728
0.13 -0.01 -0.20 -0.99 9.66 0.06 -0.02 -0.09 7735
0.12 -0.01 -0.39 -0.93 9.69 -0.01 -0.08 -0.09 7742
0.13 -0.01 -0.22 -0.97 9.82 -0.02 0.01 -0.07 7749
0.14 -0.01 -0.27 -1.04 10.14 0.01 0.03 -0.07 7756
0.15 -0.02 -0.09 -1.06 10.58 0.09 -0.01 -0.08 7763
0.14 -0.01 0.57 -0.88 6.92 0.05 -0.01 -0.06 7771
0.14 -0.01 0.02 -0.92 8.79 -0.16 0.07 -0.06 7778
0.12 -0.01 -0.02 -0.96 9.88 -0.23 0.02 -0.06 7785
0.14 -0.01 0.06 -0.99 10.25 -0.21 0.02 -0.07 7792
0.15 -0.02 0.01 -0.96 10.30 -0.15 -0.00 -0.07 7799
0.16 -0.02 -0.05 -0.90 9.91 -0.11 0.01 -0.07 7806
0.15 -0.01 -0.10 -0.76 9.15 -0.12 0.06 -0.07 7814
0.15 -0.02 -0.12 -0.68 8.50 -0.26 0.13 -0.05 7821
0.15 -0.01 -0.04 -1.08 8.10 -0.42 0.17 -0.04 7828
0.16 -0.01 -0.03 -0.56 8.09 -0.67 0.18 -0.03 7835
0.17 -0.02 0.06 -0.66 8.95 -0.85 0.19 -0.01 7842
0.17 -0.02 1.73 -1.39 14.57 -0.48 0.85 0.04 7849
0.17 -0.02 -0.25 -0.45 6.72 -0.20 0.35 -0.02 7857
0.17 -0.01 -0.14 -0.68 12.13 -0.20 0.56 -0.04 7865
0.16 -0.01 0.30 -0.62 9.05 -0.17 0.40 -0.06 7871
0.16 -0.01 0.08 -0.65 9.07 -0.19 0.49 -0.05 7878
0.18 -0.02 0.18 -0.63 12.12 -0.19 0.46 -0.06 7885
0.18 -0.02 0.44 -0.78 9.74 -0.13 0.30 -0.09 7892
0.17 -0.02 0.43 -0.57 9.85 -0.13 0.31 -0.11 7900
0.16 -0.02 0.34 -0.59 9.17 -0.17 0.35 -0.12 7907
0.16 -0.02 0.36 -0.57 9.73 -0.18 0.42 -0.11 7914
0.16 -0.01 -0.01 -0.57 9.41 -0.23 0.49 -0.10 7921
0.16 -0.02 -0.07 -0.58 9.70 -0.25 0.61 -0.06 7928
0.16 -0.02 0.10 -0.72 12.79 -0.18 0.52 -0.04 7936
0.15 -0.02 0.23 -0.52 9.99 -0.16 0.43 -0.04 7943
0.15 -0.01 0.32 -0.63 10.59 -0.15 0.46 -0.03 7950
0.16 -0.01 0.40 -0.49 9.48 -0.22 0.34 -0.03 7957
0.15 -0.01 0.58 -0.43 9.86 -0.28 0.33 -0.03 7964
0.15 -0.01 0.68 -0.40 9.65 -0.31 0.31 -0.03 7971
0.14 -0.01 0.77 -0.35 10.15 -0.28 0.25 -0.04 7980
0.13 -0.01 0.70 -0.20 9.72 -0.25 0.19 -0.04 7986
0.11 -0.01 0.70 -0.17 9.80 -0.22 0.15 -0.04 7993
0.08 0.00 0.63 -0.24 9.88 -0.20 0.13 -0.04 8000
0.07 0.01 0.57 -0.26 9.91 -0.21 0.11 -0.04 8007
0.07 0.01 0.45 -0.31 9.83 -0.21 0.10 -0.04 8014
0.07 0.03 0.45 -0.34 9.90 -0.22 0.08 -0.04 8022
0.07 0.01 0.47 -0.29 9.40 -0.10 0.03 -0.04 8029
0.07 0.02 0.54 -0.38 9.94 -0.07 0.02 -0.04 8036
0.06 0.03 0.59 -0.34 9.83 -0.08 -0.00 -0.05 8043
0.06 0.02 0.65 -0.30 9.77 -0.09 -0.02 -0.05 8050
0.08 0.02 0.75 -0.27 9.74 -0.10 -0.03 -0.05 8057
0.08 0.02 0.79 -0.23 9.77 -0.08 -0.04 -0.05 8065
0.06 0.01 0.80 -0.20 9.75 -0.07 -0.04 -0.05 8072
0.06 0.03 0.71 -0.12 9.76 -0.06 -0.05 -0.05 8079
0.07 0.03 0.67 -0.06 9.77 -0.05 -0.06 -0.05 8086
0.07 0.01 0.53 -0.01 9.80 -0.04 -0.07 -0.05 8093
0.05 0.03 0.42 -0.09 9.82 -0.03 -0.05 -0.05 8100
0.05 0.02 0.40 -0.10 9.80 -0.02 -0.05 -0.05 8108
0.02 0.02 0.42 -0.21 9.80 -0.02 -0.05 -0.05 8115
0.02 0.03 0.45 -0.28 9.79 -0.01 -0.06 -0.05 8122
0.03 0.05 0.46 -0.32 9.78 -0.01 -0.06 -0.06 8129
0.02 0.03 0.51 -0.31 9.74 -0.01 -0.06 -0.06 8136
0.01 0.05 0.49 -0.38 9.88 -0.00 -0.06 -0.06 8143
-0.00 0.04 0.52 -0.40 9.76 -0.00 -0.06 -0.06 8151
-0.00 0.04 0.57 -0.44 9.71 0.00 -0.06 -0.05 8158
0.00 0.03 0.56 -0.40 9.78 -0.00 -0.05 -0.06 8165
0.01 0.04 0.65 -0.15 9.64 0.03 -0.05 -0.06 8172
0.01 0.02 0.45 -0.02 10.11 0.00 -0.05 -0.06 8179
0.01 0.02 0.40 0.03 9.81 -0.00 -0.01 -0.06 8186
0.01 0.02 0.33 -0.03 9.82 -0.00 0.01 -0.06 8194
0.00 0.04 0.37 -0.06 10.41 -0.00 0.02 -0.06 8201
0.01 0.04 0.40 -0.09 9.84 -0.00 0.03 -0.06 8208
0.01 0.05 0.48 -0.11 9.81 -0.01 0.04 -0.06 8215
0.00 0.04 0.54 -0.20 9.78 -0.01 0.04 -0.06 8222
0.00 0.02 0.56 -0.23 9.77 -0.01 0.04 -0.05 8229
0.01 0.02 0.55 -0.28 9.78 -0.00 0.04 -0.06 8237
-0.00 0.02 0.52 -0.32 9.77 -0.00 0.04 -0.06 8244
0.01 0.03 0.51 -0.38 9.74 -0.01 0.04 -0.06 8251
0.02 0.03 0.43 -0.34 9.79 -0.01 0.05 -0.05 8258
0.00 0.02 0.38 -0.33 9.82 -0.01 0.05 -0.06 8265
-0.00 0.02 0.41 -0.33 9.81 -0.02 0.05 -0.06 8272
-0.00 0.02 0.35 -0.26 9.81 -0.02 0.05 -0.06 8280
-0.00 0.02 0.35 -0.22 9.77 -0.02 0.05 -0.07 8287
-0.00 0.03 0.35 -0.20 9.84 -0.02 0.05 -0.06 8294
0.01 0.03 0.39 -0.21 9.80 -0.02 0.05 -0.07 8301
-0.01 0.05 0.43 -0.14 9.82 -0.02 0.05 -0.07 8308
-0.01 0.06 0.51 -0.15 9.82 -0.02 0.05 -0.07 8315
-0.01 0.07 0.55 -0.23 9.83 -0.02 0.05 -0.07 8323
-0.01 0.07 0.61 -0.29 9.79 -0.02 0.05 -0.07 8330
-0.01 0.08 0.55 -0.24 9.73 -0.02 0.06 -0.07 8337
-0.00 0.06 0.52 -0.22 9.77 -0.02 0.06 -0.08 8344
-0.01 0.07 0.46 -0.17 9.82 -0.02 0.06 -0.08 8351
-0.01 0.06 0.45 -0.13 9.80 -0.02 0.05 -0.08 8358
-0.01 0.06 0.48 -0.15 9.21 -0.02 0.04 -0.08 8366
-0.01 0.06 0.47 -0.18 9.80 -0.01 0.04 -0.08 8373
-0.01 0.07 0.47 -0.20 9.82 -0.01 0.04 -0.07 8380
-0.01 0.06 0.54 -0.23 9.75 -0.01 0.04 -0.07 8387
-0.00 0.05 0.48 -0.26 9.80 -0.01 0.03 -0.07 8394
-0.00 0.04 0.37 -0.28 9.79 -0.01 0.03 -0.07 8401
-0.01 0.05 0.44 -0.26 9.71 -0.02 0.04 -0.08 8409
-0.01 0.06 0.37 -0.27 9.90 -0.02 0.04 -0.08 8416
-0.00 0.06 0.40 -0.22 9.79 -0.03 0.07 -0.09 8423
-0.01 0.05 0.36 -0.20 9.81 -0.04 0.07 -0.09 8430
-0.01 0.06 0.42 -0.19 9.72 -0.04 0.06 -0.07 8437
-0.00 0.05 0.46 -0.21 9.80 -0.02 0.06 -0.09 8444
-0.01 0.06 0.52 -0.14 9.78 -0.02 0.06 -0.08 8452
-0.01 0.06 0.54 -0.14 9.75 -0.02 0.06 -0.08 8459
-0.01 0.05 0.58 -0.15 9.79 -0.02 0.05 -0.08 8466
-0.01 0.06 0.59 -0.13 9.71 -0.01 0.06 -0.06 8473
-0.01 0.06 0.63 -0.13 9.74 -0.01 0.06 -0.06 8480
-0.01 0.05 0.57 -0.22 9.81 -0.01 0.05 -0.06 8487
-0.01 0.06 0.57 -0.19 9.77 -0.01 0.05 -0.05 8495
-0.01 0.07 0.51 -0.21 9.83 -0.00 0.04 -0.06 8502
-0.01 0.06 0.48 -0.20 9.80 -0.01 0.04 -0.07 8509
-0.01 0.06 0.42 -0.15 9.75 -0.00 0.03 -0.08 8516
-0.00 0.05 0.41 -0.20 9.80 0.01 0.02 -0.08 8523
-0.00 0.05 0.42 -0.20 9.74 0.01 0.01 -0.08 8530
-0.01 0.05 0.43 -0.21 9.81 0.02 -0.01 -0.07 8538
-0.01 0.05 0.49 -0.22 9.80 0.02 -0.01 -0.07 8545
-0.01 0.05 0.48 -0.27 9.80 -0.00 0.02 -0.07 8552
-0.01 0.05 0.50 -0.27 9.82 -0.00 0.04 -0.07 8559
-0.00 0.04 0.52 -0.26 9.69 -0.01 0.05 -0.06 8566
-0.01 0.05 0.53 -0.26 9.80 -0.01 0.05 -0.06 8573
-0.01 0.05 0.50 -0.19 9.80 -0.01 0.05 -0.07 8581
-0.01 0.06 0.44 -0.15 10.41 -0.02 0.04 -0.07 8588
-0.01 0.07 0.48 -0.16 9.77 -0.02 0.04 -0.08 8595
-0.01 0.06 0.49 -0.13 9.76 -0.03 0.05 -0.07 8602
-0.00 0.04 0.47 -0.21 9.78 -0.02 0.05 -0.07 8609
-0.00 0.05 0.48 -0.23 9.78 -0.01 0.05 -0.07 8616
-0.00 0.05 0.52 -0.21 9.76 -0.01 0.05 -0.06 8624
0.00 0.05 0.53 -0.18 9.76 -0.01 0.05 -0.07 8631
0.01 0.04 0.49 -0.17 9.78 -0.02 0.05 -0.06 8638
0.01 0.03 0.50 -0.20 9.79 -0.01 0.05 -0.06 8645
0.03 0.03 0.47 -0.17 9.79 -0.01 0.04 -0.06 8652
0.02 0.04 0.44 -0.22 9.82 -0.01 0.04 -0.06 8659
0.02 0.04 0.47 -0.21 9.80 -0.01 0.05 -0.06 8667
0.03 0.04 0.47 -0.24 9.79 -0.02 0.05 -0.06 8674
0.03 0.03 0.48 -0.19 9.77 -0.02 0.05 -0.07 8681
0.02 0.03 0.47 -0.23 9.75 -0.02 0.05 -0.07 8688
0.03 0.02 0.46 -0.21 9.79 -0.01 0.05 -0.07 8695
0.02 0.03 0.48 -0.17 9.79 -0.01 0.04 -0.06 8702
0.02 0.04 0.49 -0.17 9.80 -0.01 0.04 -0.07 8710
0.04 0.03 0.55 -0.12 9.77 -0.00 0.03 -0.07 8717
0.03 0.02 0.61 -0.11 9.77 0.00 0.03 -0.07 8724
0.03 0.02 0.59 -0.09 9.77 -0.00 0.03 -0.07 8731
0.03 0.03 0.59 -0.11 9.78 -0.00 0.03 -0.07 8738
0.03 0.03 0.61 -0.10 9.81 -0.00 0.04 -0.07 8745
0.03 0.03 0.59 -0.17 9.77 -0.00 0.04 -0.10 8753
0.04 0.02 0.57 -0.19 9.77 -0.00 0.04 -0.06 8760
0.03 0.03 0.46 -0.23 9.79 -0.01 0.04 -0.06 8767
0.03 0.02 0.43 -0.27 9.81 -0.01 0.04 -0.06 8774
0.00 0.01 0.42 -0.29 9.82 -0.00 0.05 -0.06 8781
0.02 0.02 0.37 -0.29 9.81 -0.00 0.04 -0.04 8788
0.02 0.03 0.35 -0.27 9.80 -0.01 0.05 -0.07 8796
0.02 0.01 0.38 -0.23 9.80 -0.00 0.05 -0.07 8803
0.02 0.01 0.41 -0.22 9.81 -0.00 0.06 -0.07 8810
0.03 -0.00 0.43 -0.21 9.82 -0.01 0.07 -0.07 8817
0.02 0.01 0.46 -0.18 9.84 -0.01 0.07 -0.07 8824
0.03 0.02 0.46 -0.17 9.81 -0.01 0.07 -0.07 8832
0.03 0.03 0.51 -0.19 9.79 -0.01 0.07 -0.07 8839
0.04 0.02 0.53 -0.18 9.76 -0.01 0.07 -0.07 8846
0.05 -0.00 0.56 -0.19 9.78 -0.01 0.06 -0.07 8853
0.05 -0.00 0.62 -0.16 9.79 0.00 0.07 -0.07 8860
0.06 -0.00 0.66 -0.13 9.76 -0.00 0.07 -0.07 8867
0.07 0.02 0.65 -0.08 9.77 0.00 0.07 -0.07 8875
0.08 0.01 0.68 -0.10 9.73 0.00 0.06 -0.07 8882
0.08 0.00 0.65 -0.06 9.78 0.01 0.06 -0.07 8889
0.09 0.00 0.63 -0.08 9.79 0.01 0.06 -0.07 8896
0.08 0.00 0.56 -0.12 9.78 0.01 0.07 -0.07 8903
0.07 0.01 0.50 -0.17 9.81 0.02 0.07 -0.07 8910
0.09 0.01 0.51 -0.23 9.75 0.02 0.07 -0.06 8918
0.07 0.00 0.44 -0.26 9.81 0.03 0.08 -0.07 8925
0.10 -0.00 0.43 -0.34 9.74 0.04 0.08 -0.07 8932
0.10 -0.01 0.45 -0.42 9.76 0.07 0.08 -0.08 8939
0.09 -0.01 0.51 -0.39 9.80 0.08 0.09 -0.09 8946
0.10 -0.01 0.51 -0.40 9.78 0.08 0.09 -0.09 8953
0.10 -0.01 0.59 -0.42 9.81 0.07 0.10 -0.09 8961
0.11 -0.01 0.57 -0.37 9.75 0.07 0.10 -0.08 8968
0.10 -0.01 0.65 -0.32 10.34 0.08 0.09 -0.08 8975
0.10 -0.01 0.67 -0.24 9.93 0.14 0.04 -0.08 8982
0.09 -0.01 0.74 -0.01 9.95 0.16 0.02 -0.08 8989
0.11 -0.01 0.68 -0.31 9.84 0.16 0.00 -0.08 8996
0.12 -0.01 0.61 -0.33 9.75 0.17 -0.01 -0.08 9004
0.12 -0.01 0.59 -0.30 9.91 0.16 -0.03 -0.08 9011
0.11 -0.01 0.56 -0.31 9.81 0.16 -0.04 -0.08 9018
0.11 -0.01 0.51 -0.32 9.79 0.16 -0.05 -0.09 9025
0.11 -0.01 0.53 -0.27 9.72 0.17 -0.05 -0.09 9032
0.13 -0.01 0.39 -0.53 11.45 0.11 -0.10 -0.10 9039
0.13 0.00 0.49 -0.28 9.95 0.12 -0.09 -0.11 9047
0.12 -0.01 0.57 -0.28 9.86 0.12 -0.10 -0.11 9054
0.12 -0.01 0.53 -0.35 9.84 0.11 -0.12 -0.12 9061
0.13 -0.01 0.63 -0.35 9.22 0.11 -0.13 -0.12 9068
0.12 -0.01 0.51 -0.35 9.78 0.11 -0.12 -0.11 9075
0.13 -0.01 0.51 -0.45 9.84 0.10 -0.12 -0.10 9082
0.10 -0.01 0.45 -0.47 9.79 0.09 -0.13 -0.09 9090
0.10 -0.01 0.46 -0.54 9.85 0.09 -0.12 -0.08 9097
0.10 -0.01 0.34 -0.53 9.80 0.08 -0.11 -0.08 9104
0.10 -0.01 0.36 -0.53 9.89 0.08 -0.10 -0.07 9111
0.09 -0.00 0.27 -0.49 9.76 0.08 -0.10 -0.07 9118
0.11 -0.00 0.24 -0.48 9.81 0.09 -0.10 -0.07 9125
0.14 -0.01 0.23 -0.53 9.78 0.08 -0.10 -0.08 9133
0.16 -0.02 0.28 -0.55 9.95 0.09 -0.11 -0.08 9140
0.14 -0.01 0.28 -0.57 9.86 0.08 -0.12 -0.08 9147
0.12 -0.01 0.34 -0.51 9.81 0.08 -0.13 -0.08 9154
0.12 -0.01 0.42 -0.50 9.74 0.09 -0.13 -0.08 9161
0.13 -0.01 0.45 -0.51 9.74 0.08 -0.11 -0.08 9168
0.15 -0.01 0.37 -0.52 9.60 0.06 -0.10 -0.08 9176
0.12 -0.01 0.37 -0.51 9.61 0.05 -0.07 -0.08 9183
0.11 -0.01 0.34 -0.53 9.53 0.03 -0.05 -0.08 9190
0.10 -0.01 0.33 -0.52 9.56 0.01 -0.01 -0.07 9197
0.10 -0.01 0.33 -0.53 9.60 -0.02 0.03 -0.06 9204
0.10 -0.00 0.26 -0.50 9.62 -0.03 0.05 -0.06 9211
0.11 -0.01 0.30 -0.52 9.70 -0.04 0.07 -0.06 9219
0.11 -0.01 0.26 -0.51 9.77 -0.05 0.08 -0.06 9226
0.11 -0.01 0.26 -0.52 9.74 -0.05 0.09 -0.06 9233
0.10 -0.01 0.30 -0.59 9.80 -0.05 0.10 -0.06 9240
0.11 -0.01 0.25 -0.54 9.79 -0.06 0.11 -0.06 9247
0.13 -0.01 0.24 -0.57 9.68 -0.06 0.12 -0.06 9254
0.13 -0.01 0.19 -0.55 9.72 -0.06 0.14 -0.05 9262
0.13 -0.01 0.19 -0.61 9.67 -0.07 0.15 -0.05 9269
0.12 -0.01 0.24 -0.59 9.81 -0.08 0.16 -0.05 9276
0.11 -0.01 0.25 -0.55 9.85 -0.10 0.18 -0.05 9283
0.11 -0.01 0.42 -0.57 9.51 -0.09 0.19 -0.05 9290
0.12 -0.01 0.47 -0.55 9.67 -0.10 0.23 -0.04 9297
0.11 -0.01 0.46 -0.49 9.55 -0.11 0.25 -0.05 9305
0.10 -0.01 0.44 -0.46 9.85 -0.10 0.27 -0.05 9312
0.08 -0.01 0.44 -0.40 9.41 -0.08 0.22 -0.05 9319
0.08 -0.01 0.45 -0.38 9.21 -0.08 0.20 -0.05 9326
0.08 -0.00 0.48 -0.43 10.11 -0.06 0.18 -0.05 9333
0.09 -0.01 0.46 -0.46 9.82 -0.06 0.16 -0.05 9340
0.09 -0.01 0.48 -0.46 9.82 -0.06 0.16 -0.05 9348
0.08 -0.01 0.48 -0.43 9.72 -0.07 0.13 -0.05 9355
0.07 -0.01 0.53 -0.40 9.78 -0.06 0.12 -0.05 9362
0.08 -0.00 0.51 -0.46 9.77 -0.06 0.13 -0.05 9369
0.08 0.01 0.55 -0.41 9.77 -0.06 0.12 -0.05 9376
0.08 -0.01 0.51 -0.39 9.81 -0.08 0.11 -0.05 9383
0.07 -0.01 0.54 -0.41 9.80 -0.08 0.11 -0.05 9391
0.07 -0.01 0.47 -0.40 9.80 -0.08 0.12 -0.05 9398
0.06 -0.01 0.49 -0.42 9.74 -0.09 0.13 -0.05 9405
0.07 -0.01 0.48 -0.41 9.77 -0.10 0.13 -0.05 9412
0.09 -0.00 0.47 -0.42 9.71 -0.12 0.15 -0.05 9419
0.11 -0.01 0.51 -0.42 9.74 -0.13 0.15 -0.05 9426
0.11 -0.01 0.58 -0.43 9.81 -0.13 0.15 -0.05 9434
0.11 -0.01 0.56 -0.39 9.83 -0.14 0.16 -0.04 9441
0.10 -0.01 0.56 -0.31 9.65 -0.15 0.15 -0.05 9448
0.09 0.01 0.63 -0.30 9.81 -0.15 0.15 -0.05 9455
0.11 0.01 0.63 -0.26 9.76 -0.16 0.14 -0.05 9462
0.11 -0.00 0.66 -0.29 9.81 -0.17 0.14 -0.05 9469
0.11 -0.01 0.60 -0.25 9.79 -0.18 0.14 -0.04 9477
0.10 -0.01 0.60 -0.26 9.79 -0.19 0.13 -0.04 9484
0.09 0.01 0.60 -0.22 9.77 -0.19 0.13 -0.04 9491
0.09 0.01 0.72 -0.23 9.56 -0.13 0.05 -0.05 9498
0.09 0.02 0.61 -0.30 9.83 -0.11 -0.01 -0.05 9505
0.09 0.01 0.61 -0.28 9.77 -0.11 -0.03 -0.05 9512
0.07 0.01 0.62 -0.34 9.77 -0.12 -0.05 -0.05 9520
0.06 -0.01 0.57 -0.17 9.81 -0.10 -0.06 -0.05 9527
0.05 0.00 0.68 -0.28 9.80 -0.07 -0.05 -0.05 9534
0.05 0.00 0.58 -0.18 9.76 -0.06 -0.04 -0.05 9541
0.07 0.01 0.57 -0.15 10.39 -0.05 -0.03 -0.05 9548
0.06 0.02 0.51 -0.15 9.81 -0.04 -0.02 -0.05 9555
0.05 0.02 0.50 -0.11 9.82 -0.03 -0.01 -0.06 9563
0.05 0.01 0.53 -0.14 9.80 -0.02 -0.01 -0.06 9570
0.05 0.03 0.57 -0.15 9.75 -0.02 -0.01 -0.06 9577
0.05 0.04 0.57 -0.19 9.81 -0.02 -0.01 -0.05 9584
0.07 0.04 0.56 -0.24 9.78 -0.02 -0.01 -0.05 9591
0.05 0.03 1.20 -0.25 9.79 -0.01 -0.01 -0.05 9598
0.05 0.01 0.61 -0.26 9.77 -0.01 -0.00 -0.06 9606
0.04 0.03 0.63 -0.23 9.73 -0.01 -0.01 -0.05 9613
0.04 0.02 0.58 -0.14 9.75 -0.01 -0.00 -0.05 9620
0.05 0.04 0.54 -0.14 9.77 -0.00 -0.00 -0.06 9627
0.05 0.04 0.51 -0.16 9.82 -0.00 -0.00 -0.06 9634
0.05 0.03 0.54 -0.17 9.82 -0.01 0.00 -0.05 9641
0.05 0.01 0.51 -0.19 9.75 -0.01 0.00 -0.06 9649
0.03 0.03 0.55 -0.14 9.80 -0.01 0.00 -0.06 9656
0.04 0.04 0.53 -0.17 9.79 -0.01 0.00 -0.06 9663
0.04 0.03 0.54 -0.18 9.81 -0.01 0.00 -0.06 9670
0.04 0.02 0.53 -0.22 9.90 -0.00 -0.01 -0.05 9677
0.03 0.02 0.52 -0.21 9.80 -0.01 0.00 -0.05 9684
0.02 0.01 0.51 -0.23 9.81 -0.01 0.01 -0.05 9692
0.00 0.03 0.48 -0.24 9.79 -0.01 0.01 -0.05 9699
0.02 0.03 0.46 -0.20 9.77 -0.01 0.01 -0.06 9706
0.03 0.04 0.40 -0.22 9.76 -0.01 0.01 -0.05 9713
0.02 0.04 0.44 -0.26 9.79 -0.01 0.01 -0.06 9720
0.01 0.05 0.44 -0.26 9.81 -0.00 0.01 -0.06 9728
0.02 0.04 0.48 -0.24 9.80 -0.01 0.01 -0.06 9735
-0.00 0.05 0.46 -0.22 9.81 -0.01 0.02 -0.07 9742
-0.00 0.07 0.47 -0.19 9.81 -0.01 0.02 -0.06 9749
0.01 0.05 0.50 -0.20 9.82 -0.02 0.03 -0.06 9756
0.01 0.05 0.48 -0.21 9.76 -0.02 0.03 -0.06 9763
0.00 0.04 0.50 -0.17 9.81 -0.01 0.04 -0.06 9771
-0.00 0.04 0.57 -0.19 9.80 -0.01 0.03 -0.06 9778
-0.00 0.05 0.58 -0.16 9.81 -0.01 0.02 -0.06 9785
0.00 0.05 0.58 -0.05 9.79 -0.01 0.03 -0.06 9792
0.00 0.04 0.55 -0.09 9.80 -0.01 0.03 -0.06 9799
0.00 0.03 0.52 -0.10 10.41 -0.01 0.04 -0.06 9806
0.00 0.03 0.47 -0.14 9.90 -0.01 0.05 -0.07 9814
-0.00 0.03 0.49 -0.17 9.81 -0.02 0.04 -0.07 9821
-0.00 0.04 0.46 -0.22 9.75 -0.02 0.04 -0.07 9828
-0.00 0.04 0.48 -0.27 9.78 -0.03 0.04 -0.08 9835
-0.00 0.04 0.47 -0.29 9.79 -0.02 0.03 -0.08 9842
-0.00 0.04 0.46 -0.28 9.79 -0.02 0.02 -0.08 9849
-0.00 0.03 0.47 -0.24 9.79 -0.01 0.02 -0.07 9857
-0.00 0.03 0.40 -0.21 9.81 -0.01 0.02 -0.08 9864
-0.00 0.04 0.45 -0.20 9.76 -0.01 0.02 -0.08 9871
-0.00 0.05 0.44 -0.21 9.80 -0.01 0.02 -0.08 9878
-0.01 0.06 0.41 -0.19 9.79 -0.01 0.03 -0.08 9885
-0.01 0.06 0.42 -0.20 9.81 -0.01 0.03 -0.08 9892
-0.00 0.04 0.45 -0.15 9.81 -0.01 0.02 -0.09 9900
-0.00 0.05 0.51 -0.18 9.78 -0.01 0.02 -0.09 9907
-0.00 0.06 0.52 -0.20 9.76 -0.01 0.02 -0.10 9914
-0.01 0.06 0.61 -0.17 9.74 -0.01 0.02 -0.09 9921
-0.01 0.05 0.60 -0.20 9.82 -0.01 0.03 -0.08 9928
-0.01 0.05 0.63 -0.16 9.79 -0.01 0.04 -0.07 9935
-0.00 0.04 0.60 -0.15 9.75 -0.01 0.04 -0.06 9943
-0.01 0.05 0.59 -0.14 9.80 -0.01 0.03 -0.06 9950
-0.01 0.07 0.57 -0.15 9.79 -0.01 0.03 -0.06 9957
-0.00 0.06 0.52 -0.14 9.77 -0.01 0.04 -0.06 9964
-0.00 0.05 0.48 -0.15 9.78 -0.00 0.04 -0.07 9971
-0.01 0.05 0.44 -0.15 9.81 -0.00 0.03 -0.06 9978
-0.00 0.04 0.41 -0.23 9.82 -0.01 0.04 -0.06 9986
-0.00 0.05 0.38 -0.26 9.78 -0.01 0.04 -0.07 9993
-0.00 0.04 0.40 -0.29 9.81 -0.01 0.04 -0.06 10000
0.00 0.03 0.43 -0.23 9.79 -0.00 0.04 -0.07 10007
0.01 0.04 0.43 -0.26 9.79 -0.01 0.04 -0.06 10014
-0.00 0.03 0.48 -0.23 9.82 -0.01 0.04 -0.07 10021
-0.00 0.03 0.45 -0.23 9.80 -0.01 0.04 -0.06 10029
-0.00 0.04 0.46 -0.21 9.82 -0.01 0.04 -0.07 10036
0.00 0.04 0.46 -0.21 9.82 -0.01 0.04 -0.06 10043
0.01 0.04 0.43 -0.16 9.81 -0.01 0.04 -0.07 10050
0.00 0.04 0.46 -0.18 9.82 -0.01 0.05 -0.06 10057
0.01 0.02 0.47 -0.17 9.80 -0.01 0.05 -0.07 10064
0.00 0.04 0.49 -0.17 9.82 -0.01 0.05 -0.07 10072
0.01 0.03 0.49 -0.16 9.79 -0.01 0.05 -0.06 10079
0.01 0.04 0.53 -0.14 9.80 -0.01 0.05 -0.06 10086
0.01 0.04 0.54 -0.17 9.78 -0.01 0.04 -0.06 10093
0.00 0.03 0.57 -0.15 9.81 -0.01 0.04 -0.07 10100
0.01 0.02 0.57 -0.16 9.77 -0.01 0.05 -0.06 10107
0.01 0.03 0.54 -0.17 9.76 -0.01 0.05 -0.06 10115
0.01 0.04 0.50 -0.17 9.81 -0.01 0.05 -0.06 10122
0.01 0.04 0.48 -0.19 9.81 -0.01 0.05 -0.06 10129
0.01 0.03 0.46 -0.18 9.81 -0.01 0.05 -0.10 10136
0.01 0.04 0.47 -0.18 9.82 -0.01 0.05 -0.07 10143
0.00 0.04 0.51 -0.21 9.75 -0.01 0.05 -0.06 10150
0.00 0.05 0.46 -0.22 9.21 -0.01 0.05 -0.06 10158
0.01 0.05 0.47 -0.24 9.75 -0.01 0.05 -0.06 10165
0.02 0.04 0.50 -0.21 9.79 -0.01 0.05 -0.07 10172
0.01 0.04 0.55 -0.19 9.77 -0.01 0.05 -0.06 10179
0.00 0.04 0.53 -0.19 9.76 -0.01 0.04 -0.07 10186
0.01 0.04 0.50 -0.20 9.79 -0.01 0.05 -0.07 10193
0.02 0.03 0.52 -0.19 9.81 -0.01 0.05 -0.06 10201
0.02 0.05 0.46 -0.20 9.81 -0.01 0.05 -0.07 10208
0.05 0.03 0.43 -0.17 9.80 -0.01 0.05 -0.06 10215
0.01 0.03 0.48 -0.15 9.79 -0.01 0.05 -0.07 10222
0.01 0.02 0.49 -0.17 9.77 -0.01 0.05 -0.06 10229
0.02 0.03 0.51 -0.21 9.81 -0.01 0.05 -0.07 10236
0.03 0.04 0.52 -0.21 9.76 -0.02 0.05 -0.07 10244
0.02 0.04 0.50 -0.22 9.82 -0.02 0.06 -0.06 10251
0.02 0.04 0.47 -0.21 9.78 -0.02 0.06 -0.06 10258
0.01 0.04 0.45 -0.22 9.79 -0.01 0.06 -0.10 10265
0.00 0.01 0.51 -0.19 9.81 -0.02 0.06 -0.06 10272
-0.00 0.04 0.49 -0.19 9.79 -0.01 0.05 -0.07 10279
0.01 0.03 0.51 -0.15 10.38 -0.01 0.06 -0.07 10287
0.01 0.04 0.51 -0.14 9.79 -0.01 0.06 -0.07 10294
0.02 0.04 0.56 -0.12 9.76 -0.01 0.06 -0.07 10301
0.01 0.03 0.55 -0.10 9.80 -0.01 0.06 -0.07 10308
0.02 0.02 0.59 -0.10 9.81 -0.01 0.05 -0.07 10315
0.00 0.03 0.58 -0.14 9.79 -0.01 0.06 -0.06 10322
0.01 0.03 0.60 -0.15 9.81 -0.01 0.06 -0.07 10330
0.02 0.04 0.60 -0.16 9.75 -0.01 0.06 -0.06 10337
0.02 0.02 0.57 -0.18 9.79 -0.01 0.06 -0.07 10344
0.02 0.03 0.58 -0.16 9.77 -0.01 0.07 -0.07 10351
0.02 0.01 0.51 -0.17 9.79 -0.01 0.06 -0.07 10358
0.02 0.03 0.51 -0.13 9.83 -0.01 0.07 -0.07 10365
0.04 0.04 0.48 -0.14 9.80 -0.01 0.07 -0.07 10373
0.06 0.03 0.50 -0.19 9.79 -0.01 0.07 -0.06 10380
0.04 0.03 0.48 -0.17 9.78 -0.01 0.07 -0.07 10387
0.03 0.01 0.52 -0.18 9.82 -0.01 0.07 -0.10 10394
0.03 0.01 0.57 -0.19 9.80 -0.01 0.08 -0.06 10401
0.04 0.02 0.54 -0.16 9.80 -0.01 0.08 -0.07 10408
0.05 0.02 0.53 -0.19 9.79 -0.01 0.08 -0.07 10416
0.06 0.02 0.58 -0.18 9.79 -0.01 0.08 -0.06 10423
0.04 0.02 0.62 -0.14 9.79 -0.01 0.08 -0.07 10430
0.04 0.01 0.63 -0.15 9.76 -0.01 0.08 -0.07 10437
0.02 0.01 0.63 -0.14 9.80 -0.00 0.07 -0.06 10444
0.03 0.01 0.61 -0.17 9.79 -0.00 0.08 -0.07 10451
0.03 0.03 0.56 -0.14 9.77 0.00 0.08 -0.07 10459
0.05 0.02 0.58 -0.16 9.79 0.00 0.09 -0.07 10466
0.03 0.01 0.58 -0.12 9.78 0.01 0.09 -0.06 10473
0.04 0.00 0.58 -0.11 9.78 0.02 0.09 -0.07 10480
0.02 0.01 0.55 -0.11 9.80 0.02 0.08 -0.07 10487
0.04 0.02 0.55 -0.10 9.79 0.02 0.08 -0.06 10494
0.04 0.02 0.60 -0.10 9.77 0.02 0.07 -0.06 10502
0.04 0.01 0.57 -0.10 9.80 0.02 0.07 -0.06 10509
0.04 0.01 0.56 -0.15 9.78 0.02 0.07 -0.06 10516
0.04 -0.00 0.57 -0.12 9.79 0.03 0.07 -0.06 10523
0.03 0.01 0.56 -0.20 9.78 0.03 0.06 -0.06 10530
0.03 0.01 0.57 -0.26 9.75 0.04 0.07 -0.06 10537
0.05 0.01 0.56 -0.32 9.80 0.04 0.07 -0.06 10545
0.05 0.00 0.58 -0.33 9.79 0.05 0.07 -0.06 10552
0.04 0.01 0.63 -0.35 9.81 0.04 0.07 -0.06 10559
0.05 0.00 0.65 -0.36 9.80 0.05 0.08 -0.06 10566
0.05 0.01 0.66 -0.37 9.81 0.06 0.07 -0.07 10573
0.06 0.00 0.65 -0.39 9.97 0.08 0.04 -0.07 10580
0.07 0.01 0.68 -0.38 9.77 0.09 0.03 -0.07 10588
0.06 0.01 0.64 -0.35 9.76 0.09 0.01 -0.07 10595
0.06 -0.00 0.64 -0.32 9.79 0.08 0.01 -0.07 10602
0.04 -0.00 0.59 -0.27 9.76 0.08 0.00 -0.07 10609
0.05 -0.01 0.67 -0.25 9.77 0.07 0.01 -0.07 10616
0.07 0.01 0.69 -0.25 9.78 0.07 0.01 -0.07 10624
0.08 -0.00 0.68 -0.20 9.74 0.06 0.01 -0.07 10631
0.08 -0.00 0.66 -0.12 9.78 0.07 0.01 -0.07 10638
0.08 -0.00 0.70 -0.16 9.81 0.07 0.00 -0.07 10645
0.07 -0.00 0.66 -0.13 9.80 0.07 -0.00 -0.07 10652
0.08 0.00 0.60 -0.18 9.78 0.07 -0.00 -0.07 10659
0.09 0.01 0.58 -0.24 9.75 0.07 -0.00 -0.07 10667
0.11 -0.00 0.91 -1.36 9.59 0.08 0.00 -0.07 10674
0.10 -0.01 0.51 -0.27 9.69 0.06 -0.02 -0.07 10681
0.10 -0.01 0.51 -0.28 9.81 0.06 -0.01 -0.07 10688
0.09 -0.00 0.51 -0.33 9.74 0.05 -0.01 -0.07 10695
0.08 0.00 0.48 -0.33 9.78 0.04 -0.00 -0.07 10702
0.07 0.00 0.50 -0.37 9.77 0.03 -0.00 -0.07 10710
0.09 -0.01 0.50 -0.40 9.78 0.04 0.00 -0.07 10717
0.10 -0.01 0.54 -0.40 9.80 0.04 0.00 -0.07 10724
0.10 -0.00 0.55 -0.39 9.78 0.04 -0.00 -0.07 10731
0.09 -0.00 0.56 -0.40 9.80 0.04 -0.01 -0.07 10738
0.10 0.00 0.61 -0.43 9.82 0.04 -0.01 -0.07 10745
0.11 -0.00 0.64 -0.41 9.77 0.05 -0.01 -0.07 10753
0.11 -0.00 0.61 -0.40 9.78 0.05 -0.01 -0.07 10760
0.10 -0.00 0.63 -0.42 9.78 0.04 -0.01 -0.07 10767
0.12 -0.01 0.60 -0.43 9.73 0.04 -0.00 -0.07 10774
0.12 -0.00 0.55 -0.44 9.72 0.03 0.00 -0.06 10781
0.11 0.01 0.52 -0.42 9.75 0.01 0.03 -0.07 10788
0.13 0.01 0.53 -0.39 9.77 0.00 0.04 -0.07 10796
0.12 0.00 0.51 -0.39 9.77 -0.01 0.05 -0.06 10803
0.11 -0.01 0.50 -0.40 9.81 -0.02 0.06 -0.06 10810
0.11 -0.00 0.54 -0.34 9.79 -0.02 0.06 -0.06 10817
0.12 -0.00 0.51 -0.22 9.82 -0.02 0.06 -0.06 10824
0.12 0.01 0.55 -0.20 9.82 -0.02 0.06 -0.06 10831
0.15 0.00 0.52 -0.19 9.80 -0.02 0.06 -0.06 10839
0.14 0.00 0.52 -0.31 9.77 -0.03 0.06 -0.06 10846
0.12 -0.01 0.56 -0.34 9.74 -0.03 0.07 -0.06 10853
0.12 0.00 0.58 -0.38 9.78 -0.04 0.07 -0.06 10860
0.12 -0.00 0.57 -0.40 9.75 -0.04 0.08 -0.06 10867
0.13 0.00 0.58 -0.40 9.77 -0.05 0.08 -0.06 10874
0.13 -0.01 0.59 -0.40 9.75 -0.05 0.09 -0.06 10882
0.11 -0.01 0.57 -0.44 9.78 -0.06 0.09 -0.05 10889
0.10 -0.01 0.58 -0.43 9.78 -0.06 0.09 -0.05 10896
0.08 0.00 0.59 -0.40 9.79 -0.06 0.09 -0.06 10903
0.08 -0.01 0.57 -0.36 9.74 -0.06 0.09 -0.06 10910
0.09 0.01 0.56 -0.37 9.80 -0.06 0.08 -0.05 10917
0.10 0.00 0.52 -0.34 9.76 -0.06 0.09 -0.05 10925
0.08 0.00 0.56 -0.37 9.78 -0.07 0.10 -0.05 10932
0.08 -0.01 0.52 -0.28 9.76 -0.08 0.10 -0.06 10939
0.07 -0.00 0.54 -0.25 9.74 -0.10 0.11 -0.05 10946
0.08 0.01 0.62 -0.25 9.78 -0.11 0.11 -0.06 10953
0.09 0.01 0.62 -0.24 9.77 -0.12 0.11 -0.05 10960
0.08 0.01 0.68 -0.31 9.75 -0.12 0.11 -0.05 10968
0.08 0.00 0.68 -0.31 9.78 -0.12 0.10 -0.06 10975
0.06 -0.01 0.70 -0.29 9.76 -0.12 0.10 -0.05 10982
0.06 0.00 0.68 -0.23 9.82 -0.11 0.10 -0.05 10989
0.07 0.01 0.66 -0.20 9.78 -0.12 0.09 -0.05 10996
0.06 0.01 0.64 -0.17 9.80 -0.13 0.09 -0.05 11003
0.05 -0.01 0.68 -0.21 9.68 -0.09 0.02 -0.05 11011
0.05 -0.00 0.62 -0.20 9.80 -0.09 -0.00 -0.05 11018
0.04 0.00 0.63 -0.20 9.80 -0.10 -0.01 -0.05 11025
0.04 0.01 0.63 -0.20 9.80 -0.11 -0.04 -0.05 11032
0.04 0.02 0.63 -0.12 9.44 -0.10 -0.05 -0.05 11039
0.05 0.01 0.62 -0.20 9.78 -0.06 -0.04 -0.06 11046
0.05 0.00 0.60 -0.18 9.78 -0.06 -0.03 -0.05 11054
0.05 0.00 0.56 -0.22 9.73 -0.05 -0.03 -0.06 11061
0.03 0.01 0.51 -0.21 9.81 -0.04 -0.02 -0.06 11068
0.03 0.01 0.48 -0.25 9.76 -0.04 -0.02 -0.06 11075
0.05 0.02 0.50 -0.23 9.80 -0.03 -0.01 -0.06 11082
0.05 0.01 0.56 -0.21 9.81 -0.02 -0.01 -0.06 11089
0.05 0.02 0.60 -0.18 9.78 -0.02 -0.01 -0.06 11097
0.03 0.02 0.70 -0.18 9.75 -0.02 -0.02 -0.06 11104
0.02 0.02 0.72 -0.08 9.72 -0.01 -0.02 -0.06 11111
0.04 0.03 0.71 -0.06 9.80 -0.01 -0.01 -0.06 11118
0.04 0.04 0.65 0.00 9.59 -0.00 -0.02 -0.06 11125
0.04 0.03 0.61 -0.13 9.75 -0.01 -0.01 -0.06 11132
0.02 0.02 0.60 -0.14 9.78 -0.01 -0.01 -0.06 11140
0.02 0.01 0.54 -0.15 9.81 -0.01 -0.01 -0.06 11147
0.01 0.01 0.52 -0.15 9.80 -0.01 -0.01 -0.06 11154
0.03 0.03 0.48 -0.18 9.79 -0.00 -0.01 -0.06 11161
0.04 0.03 0.46 -0.21 9.81 -0.01 -0.00 -0.06 11168
0.04 0.03 0.42 -0.26 9.78 -0.01 0.00 -0.06 11175
0.03 0.02 0.45 -0.32 9.75 -0.01 0.01 -0.06 11183
0.02 0.01 0.45 -0.29 9.77 -0.01 0.01 -0.06 11190
0.02 0.02 0.48 -0.29 9.77 -0.01 0.00 -0.06 11197
0.03 0.04 0.53 -0.24 9.81 -0.01 0.00 -0.06 11204
0.03 0.03 0.55 -0.22 9.79 -0.01 0.00 -0.06 11211
0.02 0.02 0.55 -0.14 9.77 -0.01 0.00 -0.06 11218
0.03 0.03 0.56 -0.11 9.77 -0.01 0.00 -0.06 11226
0.01 0.03 0.55 -0.10 9.79 -0.01 0.01 -0.06 11233
0.00 0.04 0.53 -0.07 9.77 -0.01 0.01 -0.06 11240
0.00 0.05 0.50 -0.11 9.82 -0.01 0.01 -0.06 11247
0.01 0.05 0.47 -0.16 9.82 -0.01 0.02 -0.06 11254
0.01 0.06 0.48 -0.19 9.81 -0.01 0.03 -0.06 11261
0.01 0.05 0.50 -0.27 9.80 -0.01 0.03 -0.06 11269
0.01 0.06 0.52 -0.30 9.79 -0.01 0.04 -0.06 11276
-0.00 0.06 0.54 -0.26 9.76 -0.01 0.03 -0.06 11283
-0.00 0.07 0.60 -0.17 9.77 -0.01 0.03 -0.06 11290
0.01 0.06 0.59 -0.17 9.80 -0.01 0.02 -0.06 11297
0.01 0.06 0.57 -0.18 9.78 -0.01 0.02 -0.06 11304
0.01 0.06 0.60 -0.20 9.76 -0.02 0.03 -0.06 11312
-0.01 0.07 0.58 -0.20 9.79 -0.02 0.04 -0.06 11319
0.00 0.08 0.53 -0.19 9.81 -0.02 0.05 -0.06 11326
0.01 0.09 0.48 -0.18 9.80 -0.02 0.06 -0.06 11333
0.00 0.07 0.42 -0.22 9.79 -0.02 0.06 -0.06 11340
0.01 0.07 0.38 -0.17 9.82 -0.02 0.06 -0.06 11347
0.00 0.08 0.37 -0.21 9.84 -0.02 0.06 -0.06 11355
0.00 0.10 0.40 -0.20 9.79 -0.02 0.06 -0.07 11362
-0.00 0.11 0.43 -0.17 9.78 -0.02 0.06 -0.07 11369
-0.00 0.12 0.54 -0.12 9.79 -0.02 0.05 -0.07 11376
-0.00 0.13 0.62 -0.11 9.74 -0.02 0.04 -0.07 11383
0.00 0.13 0.65 -0.06 9.75 -0.01 0.04 -0.07 11390
-0.00 0.14 0.64 -0.12 9.76 -0.01 0.05 -0.06 11398
-0.00 0.14 0.63 -0.17 9.77 -0.01 0.04 -0.06 11405
-0.01 0.14 0.58 -0.15 9.20 -0.02 0.05 -0.07 11412
0.00 0.15 0.56 -0.17 9.78 -0.02 0.05 -0.06 11419
-0.01 0.17 0.52 -0.21 9.81 -0.02 0.05 -0.06 11426
-0.01 0.17 0.48 -0.22 9.81 -0.02 0.05 -0.06 11433
-0.02 0.16 0.46 -0.24 9.79 -0.02 0.06 -0.07 11441
-0.02 0.18 0.41 -0.25 9.80 -0.02 0.05 -0.07 11448
-0.02 0.19 0.44 -0.23 9.80 -0.02 0.05 -0.07 11455
-0.01 0.18 0.46 -0.22 9.81 -0.01 0.04 -0.08 11462
-0.02 0.16 0.49 -0.17 9.80 -0.01 0.04 -0.08 11469
-0.02 0.16 0.52 -0.16 9.77 -0.01 0.04 -0.08 11476
-0.02 0.16 0.55 -0.13 9.77 -0.01 0.04 -0.08 11484
-0.02 0.17 0.58 -0.10 9.81 -0.01 0.04 -0.07 11491
-0.01 0.17 0.53 -0.10 9.70 -0.01 0.05 -0.07 11498
-0.02 0.16 0.59 -0.09 9.77 -0.01 0.05 -0.07 11505
-0.02 0.15 0.56 -0.12 9.81 -0.01 0.04 -0.07 11512
-0.01 0.13 0.55 -0.13 9.76 -0.01 0.04 -0.07 11520
-0.01 0.14 0.56 -0.17 9.74 -0.00 0.03 -0.07 11527
-0.01 0.14 0.57 -0.15 9.81 -0.01 0.03 -0.08 11534
-0.02 0.15 0.60 -0.13 9.76 -0.01 0.03 -0.08 11541
-0.02 0.15 0.58 -0.16 9.78 -0.01 0.03 -0.08 11548
-0.01 0.14 0.60 -0.16 9.71 -0.01 0.03 -0.06 11555
-0.01 0.12 0.56 -0.14 9.79 -0.00 0.03 -0.07 11563
-0.01 0.13 0.52 -0.15 9.82 -0.00 0.03 -0.07 11570
-0.01 0.14 0.52 -0.20 9.20 -0.01 0.04 -0.06 11577
-0.00 0.14 0.48 -0.17 9.82 -0.01 0.04 -0.06 11584
-0.01 0.14 0.44 -0.21 9.81 -0.01 0.04 -0.06 11591
-0.01 0.13 0.44 -0.23 9.80 -0.01 0.04 -0.07 11598
-0.01 0.12 0.40 -0.20 9.81 -0.01 0.04 -0.07 11606
-0.01 0.13 0.49 -0.21 9.77 -0.01 0.04 -0.07 11613
-0.01 0.14 0.52 -0.20 9.78 -0.01 0.04 -0.06 11620
-0.00 0.14 0.58 -0.19 9.81 -0.01 0.04 -0.06 11627
-0.01 0.12 0.62 -0.18 9.78 -0.01 0.05 -0.07 11634
-0.01 0.12 0.62 -0.15 9.77 -0.01 0.05 -0.07 11641
-0.01 0.10 0.61 -0.11 9.77 -0.01 0.04 -0.06 11649
0.00 0.10 0.60 -0.13 9.77 -0.01 0.04 -0.07 11656
-0.00 0.11 0.53 -0.09 9.79 -0.02 0.05 -0.06 11663
0.01 0.09 0.58 -0.14 9.80 -0.01 0.04 -0.06 11670
0.00 0.09 0.56 -0.11 9.79 -0.01 0.04 -0.06 11677
-0.00 0.08 0.54 -0.16 9.78 -0.01 0.04 -0.07 11684
-0.01 0.08 0.50 -0.17 9.80 -0.01 0.04 -0.07 11692
-0.01 0.08 0.52 -0.18 9.82 -0.01 0.04 -0.07 11699
0.02 0.08 0.50 -0.19 9.80 -0.01 0.04 -0.07 11706
0.03 0.06 0.50 -0.23 9.76 -0.01 0.04 -0.07 11713
0.02 0.05 0.51 -0.24 9.75 -0.01 0.04 -0.07 11720
0.02 0.05 0.52 -0.25 9.78 -0.01 0.04 -0.06 11727
0.02 0.06 0.52 -0.21 9.78 -0.01 0.04 -0.06 11735
0.02 0.06 0.55 -0.16 9.78 -0.01 0.04 -0.06 11742
0.03 0.06 0.56 -0.08 9.77 -0.00 0.04 -0.07 11749
0.03 0.06 0.54 -0.08 9.81 -0.00 0.04 -0.06 11756
0.03 0.06 0.57 -0.05 9.81 -0.01 0.04 -0.06 11763
0.03 0.05 0.56 -0.08 9.79 -0.01 0.04 -0.07 11770
0.02 0.05 0.56 -0.12 9.80 -0.00 0.03 -0.07 11778
0.03 0.06 0.54 -0.19 9.79 -0.00 0.04 -0.07 11785
0.04 0.04 0.54 -0.17 9.79 -0.01 0.04 -0.07 11792
0.03 0.04 0.54 -0.23 9.80 -0.01 0.04 -0.07 11799
0.03 0.05 0.54 -0.26 9.78 -0.01 0.05 -0.06 11806
0.03 0.05 0.52 -0.20 9.76 -0.01 0.05 -0.06 11813
0.03 0.05 0.54 -0.17 9.79 -0.01 0.05 -0.07 11821
0.01 0.07 0.53 -0.14 9.81 -0.01 0.06 -0.07 11828
0.02 0.06 0.53 -0.13 9.79 -0.01 0.05 -0.04 11835
0.00 0.05 0.54 -0.10 9.80 -0.01 0.05 -0.07 11842
-0.01 0.05 0.58 -0.11 9.79 -0.01 0.06 -0.07 11849
-0.00 0.05 0.59 -0.11 9.80 -0.01 0.06 -0.07 11856
-0.00 0.05 0.56 -0.11 9.76 -0.01 0.06 -0.07 11864
-0.00 0.07 0.60 -0.14 9.75 -0.01 0.05 -0.07 11871
0.03 0.05 0.57 -0.18 9.77 -0.01 0.05 -0.07 11878
0.03 0.04 0.51 -0.22 9.79 -0.01 0.05 -0.06 11885
0.01 0.03 0.48 -0.25 9.77 -0.01 0.05 -0.07 11892
-0.00 0.04 0.51 -0.26 9.79 -0.01 0.06 -0.07 11899
0.01 0.04 0.50 -0.18 9.81 -0.01 0.05 -0.07 11907
0.01 0.05 0.52 -0.19 9.81 -0.01 0.05 -0.07 11914
0.03 0.04 0.55 -0.16 9.77 -0.01 0.06 -0.07 11921
0.02 0.04 0.52 -0.14 10.42 -0.01 0.06 -0.07 11928
0.03 0.03 0.51 -0.13 9.79 -0.00 0.06 -0.07 11935
0.01 0.03 0.51 -0.13 9.78 -0.00 0.06 -0.06 11942
0.02 0.03 0.60 -0.10 9.82 -0.01 0.07 -0.06 11950
0.03 0.04 0.59 -0.09 9.77 -0.01 0.07 -0.07 11957
0.05 0.01 0.57 -0.09 9.81 -0.01 0.08 -0.06 11964
0.03 0.02 0.56 -0.07 9.76 -0.01 0.09 -0.07 11971
0.02 0.01 0.58 -0.11 9.75 -0.01 0.09 -0.06 11978
0.02 0.02 0.62 -0.13 9.79 -0.01 0.10 -0.07 11985
0.03 0.03 0.68 -0.07 9.73 0.00 0.11 -0.06 11993
0.04 0.03 0.72 -0.09 9.78 0.02 0.11 -0.06 12000
0.03 0.02 0.70 -0.13 9.71 0.02 0.11 -0.06 12007
0.03 0.04 0.65 -0.15 9.78 0.03 0.11 -0.06 12014
0.04 0.02 0.62 -0.17 9.78 0.03 0.11 -0.06 12021
0.03 0.03 0.61 -0.21 9.74 0.04 0.11 -0.06 12028
0.04 0.03 0.56 -0.27 9.83 0.04 0.11 -0.06 12036
0.04 0.02 0.54 -0.25 9.81 0.05 0.11 -0.07 12043
0.03 0.01 0.49 -0.33 9.78 0.05 0.11 -0.06 12050
0.03 -0.00 0.49 -0.34 9.20 0.06 0.09 -0.07 12057
0.02 0.01 0.63 -0.33 10.10 0.07 0.07 -0.07 12064
0.04 0.03 0.65 -0.28 9.81 0.09 0.03 -0.07 12071
0.06 0.03 0.71 -0.26 9.78 0.10 0.02 -0.07 12079
0.06 0.02 0.71 -0.25 9.80 0.11 0.00 -0.07 12086
0.06 0.00 0.71 -0.23 9.79 0.12 -0.01 -0.08 12093
0.05 -0.01 0.72 -0.18 9.80 0.13 -0.01 -0.08 12100
0.04 0.00 0.69 -0.21 9.81 0.13 -0.02 -0.08 12107
0.05 -0.00 0.69 -0.21 9.83 0.14 -0.03 -0.08 12114
0.04 0.01 0.70 -0.23 9.77 0.13 -0.04 -0.08 12122
0.06 0.00 0.71 -0.19 9.81 0.13 -0.04 -0.08 12129
0.07 -0.01 0.61 -0.24 9.79 0.12 -0.04 -0.08 12136
0.05 -0.01 0.01 -0.24 9.66 0.11 -0.04 -0.07 12143
0.05 -0.01 0.58 -0.28 9.69 0.09 -0.03 -0.07 12150
0.07 -0.01 0.56 -0.29 9.81 0.08 -0.03 -0.07 12157
0.08 -0.01 0.56 -0.30 9.79 0.07 -0.03 -0.07 12165
0.09 -0.01 1.12 0.04 8.31 0.09 -0.06 -0.07 12172
0.09 -0.00 0.51 -0.36 9.75 0.06 -0.03 -0.07 12179
0.10 -0.01 0.51 -0.37 10.40 0.05 -0.03 -0.07 12186
0.09 -0.00 0.50 -0.40 9.82 0.06 -0.03 -0.07 12193
0.11 0.01 0.50 -0.40 9.77 0.05 -0.03 -0.08 12200
0.12 0.01 0.50 -0.39 9.82 0.05 -0.04 -0.08 12208
0.12 0.01 0.50 -0.43 9.61 0.05 -0.04 -0.08 12215
0.12 -0.01 0.57 -0.41 9.74 0.05 -0.04 -0.08 12222
0.14 -0.01 0.60 -0.40 9.76 0.04 -0.03 -0.07 12229
0.11 -0.00 0.63 -0.39 9.68 0.03 -0.02 -0.08 12236
0.09 0.01 0.59 -0.37 9.70 0.02 -0.00 -0.07 12243
0.09 0.00 0.62 -0.38 9.68 0.01 0.03 -0.07 12251
0.09 -0.00 0.59 -0.38 9.74 -0.01 0.04 -0.06 12258
0.08 -0.01 0.57 -0.35 9.73 -0.02 0.05 -0.06 12265
0.08 -0.01 0.54 -0.41 9.73 -0.02 0.06 -0.06 12272
0.07 0.00 0.48 -0.44 9.78 -0.02 0.07 -0.06 12279
0.09 0.01 0.42 -0.43 9.79 -0.02 0.07 -0.06 12286
0.09 -0.00 0.41 -0.40 9.83 -0.02 0.07 -0.06 12294
0.08 -0.01 0.47 -0.40 9.78 -0.02 0.07 -0.06 12301
0.07 -0.01 0.50 -0.39 9.79 -0.03 0.07 -0.06 12308
0.05 -0.01 0.75 -0.22 10.34 -0.03 0.07 -0.06 12315
0.06 -0.00 0.57 -0.30 9.80 -0.03 0.07 -0.06 12322
0.06 -0.00 0.57 -0.30 9.74 -0.04 0.08 -0.06 12329
0.07 -0.01 0.55 -0.31 9.73 -0.04 0.09 -0.05 12337
0.07 -0.01 0.52 -0.29 9.72 -0.04 0.10 -0.05 12344
0.06 -0.01 0.54 -0.32 9.83 -0.05 0.10 -0.06 12351
0.04 -0.00 0.55 -0.36 9.83 -0.05 0.10 -0.05 12358
0.05 -0.00 0.53 -0.36 9.76 -0.06 0.13 -0.05 12365
0.06 -0.00 0.52 -0.38 10.41 -0.06 0.10 -0.05 12372
0.07 0.00 0.54 -0.38 9.82 -0.06 0.10 -0.06 12380
0.06 0.00 0.56 -0.37 9.80 -0.06 0.09 -0.06 12387
0.05 -0.00 0.65 -0.37 9.76 -0.06 0.09 -0.06 12394
0.05 0.00 0.68 -0.37 9.74 -0.06 0.10 -0.06 12401
0.06 0.01 0.70 -0.36 9.74 -0.06 0.10 -0.05 12408
0.07 0.01 0.69 -0.30 9.71 -0.07 0.10 -0.05 12416
0.07 0.01 0.72 -0.34 9.77 -0.08 0.12 -0.06 12423
0.06 0.01 0.67 -0.31 9.71 -0.09 0.12 -0.05 12430
0.06 -0.01 0.69 -0.33 9.70 -0.10 0.12 -0.05 12437
0.06 -0.00 0.63 -0.33 9.77 -0.11 0.12 -0.05 12444
0.05 0.00 0.59 -0.34 9.80 -0.11 0.12 -0.05 12451
0.07 0.00 0.53 -0.34 9.70 -0.11 0.12 -0.05 12459
0.05 -0.00 0.52 -0.35 9.79 -0.11 0.12 -0.05 12466
0.05 -0.00 0.53 -0.31 9.79 -0.12 0.11 -0.05 12473
0.04 -0.00 0.57 -0.30 9.79 -0.12 0.11 -0.06 12480
0.04 0.01 0.63 -0.23 9.75 -0.12 0.11 -0.05 12487
0.04 0.03 0.72 -0.22 9.78 -0.14 0.11 -0.05 12494
0.06 0.02 0.77 -0.16 10.33 -0.14 0.10 -0.05 12502
0.05 0.02 0.77 -0.19 9.79 -0.11 0.01 -0.05 12509
0.04 0.01 0.75 -0.18 9.77 -0.10 -0.01 -0.05 12516
0.03 0.01 0.75 -0.19 9.78 -0.09 -0.03 -0.05 12523
0.02 0.01 0.67 -0.25 9.80 -0.08 -0.03 -0.05 12530
0.04 0.02 0.61 -0.23 10.35 -0.06 -0.02 -0.05 12537
0.05 0.02 0.60 -0.23 9.77 -0.05 -0.01 -0.06 12545
0.03 0.03 0.55 -0.25 9.80 -0.05 -0.01 -0.05 12552
0.02 0.03 0.54 -0.27 9.78 -0.04 0.00 -0.06 12559
0.01 0.03 0.52 -0.23 9.76 -0.04 0.00 -0.06 12566
0.02 0.04 0.60 -0.18 9.81 -0.03 -0.00 -0.06 12573
0.03 0.04 0.59 -0.08 9.81 -0.03 -0.01 -0.06 12580
0.04 0.03 0.64 0.01 9.76 -0.03 -0.02 -0.06 12588
0.03 0.03 0.72 -0.01 9.80 -0.03 -0.01 -0.06 12595
0.03 0.03 0.76 -0.03 9.81 -0.02 0.00 -0.06 12602
0.01 0.03 0.75 -0.03 9.75 -0.02 0.00 -0.05 12609
0.02 0.05 0.76 -0.09 9.78 -0.03 0.01 -0.05 12616
0.03 0.04 0.67 -0.10 9.80 -0.02 0.02 -0.05 12623
0.03 0.03 0.65 -0.15 9.76 -0.02 0.02 -0.05 12631
0.04 0.03 0.59 -0.17 9.77 -0.02 0.02 -0.06 12638
0.03 0.04 0.55 -0.24 9.80 -0.01 0.02 -0.05 12645
0.03 0.06 0.53 -0.25 9.79 -0.02 0.01 -0.06 12652
0.03 0.07 0.54 -0.23 9.80 -0.01 -0.00 -0.06 12659
0.04 0.06 0.59 -0.22 9.82 -0.01 -0.01 -0.06 12666
0.04 0.05 0.63 -0.22 9.81 -0.01 -0.02 -0.06 12674
0.04 0.04 0.00 -0.22 9.78 -0.00 -0.01 -0.06 12681
0.03 0.05 0.60 -0.19 9.82 -0.01 0.00 -0.06 12688
0.03 0.08 0.58 -0.15 9.83 -0.01 0.01 -0.06 12695
0.03 0.08 0.54 -0.13 9.81 -0.01 0.02 -0.06 12702
0.04 0.07 0.54 -0.13 9.81 -0.02 0.03 -0.06 12709
0.03 0.08 0.55 -0.17 9.79 -0.01 0.03 -0.06 12717
0.02 0.08 0.57 -0.14 9.80 -0.02 0.03 -0.06 12724
-0.00 0.09 0.54 -0.10 9.77 -0.01 0.03 -0.06 12731
-0.00 0.09 0.55 -0.09 9.79 -0.01 0.02 -0.06 12738
0.01 0.09 0.56 -0.14 9.79 -0.01 0.03 -0.06 12745
0.01 0.09 0.60 -0.17 9.81 -0.01 0.03 -0.06 12752
0.00 0.08 0.59 -0.20 9.77 -0.01 0.03 -0.06 12760
0.00 0.08 0.60 -0.24 9.80 -0.01 0.03 -0.06 12767
-0.00 0.09 0.62 -0.20 9.81 -0.01 0.03 -0.06 12774
0.01 0.08 0.60 -0.19 9.78 -0.02 0.03 -0.06 12781
0.01 0.09 0.57 -0.19 9.78 -0.02 0.04 -0.06 12788
0.01 0.07 0.53 -0.18 9.81 -0.02 0.05 -0.06 12795
-0.00 0.08 0.56 -0.15 9.81 -0.02 0.05 -0.06 12803
0.00 0.08 0.55 -0.15 9.80 -0.02 0.05 -0.06 12810
0.00 0.10 0.60 -0.16 9.80 -0.02 0.05 -0.06 12817
-0.01 0.10 0.57 -0.16 9.75 -0.02 0.05 -0.06 12824
0.00 0.10 0.61 -0.13 9.79 -0.02 0.04 -0.06 12831
-0.00 0.10 0.67 -0.14 9.81 -0.01 0.04 -0.06 12838
-0.00 0.11 0.65 -0.11 9.79 -0.02 0.07 -0.06 12846
-0.01 0.10 0.63 -0.16 9.77 -0.01 0.04 -0.06 12853
-0.01 0.11 0.61 -0.16 9.82 -0.01 0.04 -0.06 12860
-0.00 0.12 0.56 -0.16 9.79 -0.02 0.04 -0.06 12867
0.01 0.13 0.54 -0.16 9.79 -0.01 0.05 -0.06 12874
-0.01 0.13 0.52 -0.16 9.76 -0.01 0.05 -0.07 12881
-0.01 0.12 0.52 -0.17 9.78 -0.01 0.04 -0.06 12889
-0.01 0.11 0.54 -0.17 9.78 -0.01 0.04 -0.07 12896
-0.01 0.12 0.54 -0.15 9.79 -0.01 0.04 -0.06 12903
-0.00 0.13 0.54 -0.17 9.81 -0.01 0.04 -0.06 12910
0.00 0.12 0.56 -0.13 9.79 -0.01 0.05 -0.06 12917
-0.00 0.12 0.61 -0.14 9.81 -0.01 0.04 -0.06 12924
-0.01 0.11 0.63 -0.11 9.80 -0.02 0.04 -0.06 12932
-0.01 0.11 0.64 -0.15 9.81 -0.01 0.04 -0.05 12939
-0.00 0.12 0.68 -0.11 9.76 -0.01 0.05 -0.06 12946
-0.01 0.12 0.63 -0.10 9.78 -0.01 0.04 -0.06 12953
-0.01 0.12 0.65 -0.10 9.79 -0.01 0.05 -0.06 12960
-0.01 0.12 0.59 -0.11 9.81 -0.01 0.05 -0.07 12967
-0.01 0.12 1.22 -0.09 9.79 -0.01 0.04 -0.06 12975
-0.01 0.13 0.61 -0.11 9.80 -0.01 0.04 -0.06 12982
-0.01 0.13 0.60 -0.17 9.79 -0.01 0.04 -0.06 12989
0.00 0.14 0.57 -0.16 9.70 -0.01 0.04 -0.06 12996
-0.00 0.13 0.58 -0.15 9.77 -0.01 0.03 -0.06 13003
-0.00 0.13 0.59 -0.14 9.81 -0.00 0.03 -0.06 13010
-0.00 0.12 0.58 -0.18 9.20 -0.01 0.04 -0.06 13018
-0.01 0.13 0.53 -0.18 9.78 -0.01 0.04 -0.06 13025
-0.01 0.13 0.55 -0.21 9.81 -0.01 0.04 -0.07 13032
0.01 0.13 0.54 -0.20 9.79 -0.01 0.04 -0.06 13039
0.00 0.13 0.57 -0.21 9.77 -0.01 0.04 -0.06 13046
-0.00 0.13 0.59 -0.17 9.81 -0.01 0.04 -0.06 13053
-0.01 0.11 0.61 -0.14 9.76 -0.01 0.04 -0.06 13061
-0.01 0.13 0.60 -0.13 9.79 -0.01 0.04 -0.06 13068
-0.00 0.13 0.61 -0.11 9.79 -0.01 0.04 -0.06 13075
0.01 0.12 0.65 -0.13 9.76 -0.01 0.04 -0.06 13082
-0.00 0.12 0.64 -0.12 9.79 -0.01 0.04 -0.07 13089
-0.01 0.11 0.67 -0.12 9.74 -0.01 0.04 -0.07 13096
-0.01 0.11 0.03 -0.15 9.81 -0.01 0.04 -0.07 13104
-0.01 0.12 0.63 -0.16 9.77 -0.01 0.04 -0.06 13111
-0.00 0.13 0.63 -0.14 9.77 -0.01 0.03 -0.07 13118
0.00 0.11 0.60 -0.15 9.79 -0.01 0.03 -0.06 13125
-0.00 0.09 0.58 -0.16 9.76 -0.01 0.03 -0.07 13132
-0.00 0.08 0.54 -0.16 9.79 -0.01 0.03 -0.06 13139
-0.01 0.08 0.55 -0.18 9.78 -0.00 0.04 -0.06 13147
-0.00 0.09 0.59 -0.18 9.79 -0.01 0.04 -0.06 13154
0.00 0.09 0.59 -0.15 9.75 -0.01 0.04 -0.07 13161
0.01 0.08 0.57 -0.17 9.74 -0.01 0.04 -0.06 13168
-0.00 0.08 0.61 -0.17 9.80 -0.01 0.04 -0.06 13175
-0.01 0.07 0.59 -0.18 9.79 -0.01 0.04 -0.07 13182
-0.01 0.08 0.59 -0.15 9.79 -0.01 0.04 -0.06 13190
-0.00 0.08 0.55 -0.17 9.77 -0.01 0.05 -0.07 13197
0.00 0.08 0.58 -0.15 9.79 -0.01 0.04 -0.07 13204
0.00 0.07 0.60 -0.12 9.79 -0.01 0.05 -0.06 13211
-0.00 0.06 0.61 -0.11 9.78 -0.01 0.05 -0.07 13218
0.00 0.06 0.60 -0.12 9.79 -0.01 0.05 -0.07 13225
-0.01 0.07 0.61 -0.15 9.78 -0.01 0.05 -0.07 13233
-0.01 0.06 0.61 -0.12 9.80 -0.01 0.05 -0.07 13240
0.01 0.06 0.65 -0.15 9.78 -0.01 0.05 -0.06 13247
0.01 0.05 0.62 -0.18 9.79 -0.01 0.05 -0.06 13254
-0.00 0.05 0.60 -0.19 9.76 -0.01 0.04 -0.07 13261
0.00 0.05 0.56 -0.13 9.79 -0.01 0.05 -0.07 13268
-0.01 0.06 0.59 -0.19 9.77 -0.01 0.04 -0.07 13276
-0.00 0.06 0.58 -0.14 9.77 -0.01 0.04 -0.06 13283
0.01 0.05 0.57 -0.15 9.77 -0.01 0.05 -0.07 13290
0.01 0.06 0.58 -0.14 9.78 -0.00 0.04 -0.06 13297
0.00 0.05 0.63 -0.10 9.78 -0.01 0.04 -0.07 13304
0.00 0.04 0.62 -0.07 9.78 -0.00 0.04 -0.07 13312
0.01 0.06 0.69 -0.04 9.75 -0.00 0.04 -0.06 13319
0.02 0.07 0.73 -0.08 9.74 -0.01 0.04 -0.06 13326
0.03 0.05 0.70 -0.09 9.76 -0.01 0.04 -0.07 13333
0.02 0.04 0.77 -0.10 9.79 -0.01 0.04 -0.06 13340
0.02 0.04 0.69 -0.09 9.81 -0.00 0.03 -0.06 13347
0.01 0.04 0.63 -0.13 9.80 -0.00 0.04 -0.07 13355
0.02 0.05 0.56 -0.14 9.82 -0.01 0.04 -0.07 13362
0.03 0.05 0.57 -0.16 10.40 -0.00 0.04 -0.07 13369
0.03 0.04 0.46 -0.17 9.78 -0.01 0.04 -0.07 13376
0.02 0.03 0.49 -0.13 9.77 -0.00 0.04 -0.06 13383
0.02 0.01 0.48 -0.14 9.77 -0.00 0.04 -0.06 13390
0.01 0.03 0.49 -0.15 9.79 -0.00 0.04 -0.06 13398
0.02 0.04 0.51 -0.15 9.78 -0.00 0.04 -0.07 13405
0.03 0.05 0.53 -0.21 9.82 -0.00 0.05 -0.07 13412
0.03 0.04 0.53 -0.19 9.80 -0.00 0.05 -0.06 13419
0.02 0.03 0.55 -0.29 9.92 -0.01 0.05 -0.06 13426
0.03 0.03 0.51 -0.24 9.80 -0.01 0.05 -0.07 13433
0.03 0.03 0.53 -0.26 9.79 -0.01 0.06 -0.07 13441
0.03 0.04 0.56 -0.27 9.80 -0.01 0.06 -0.07 13448
0.05 0.03 0.63 -0.24 9.76 -0.01 0.06 -0.07 13455
0.05 0.04 0.73 -0.20 9.75 -0.00 0.06 -0.07 13462
0.04 0.03 0.77 -0.17 9.74 -0.00 0.06 -0.07 13469
0.04 0.02 0.83 -0.14 9.73 -0.00 0.07 -0.06 13476
0.04 0.02 0.81 -0.09 9.74 0.00 0.08 -0.07 13484
0.05 0.03 0.84 -0.06 9.74 0.00 0.08 -0.06 13491
0.06 0.03 0.76 -0.11 9.77 0.01 0.07 -0.06 13498
0.06 0.03 0.71 -0.11 9.74 0.01 0.07 -0.07 13505
0.06 0.02 0.66 -0.17 9.78 0.02 0.07 -0.06 13512
0.06 0.02 0.58 -0.18 9.78 0.02 0.08 -0.07 13519
0.06 0.03 0.54 -0.19 9.77 0.02 0.08 -0.06 13527
0.08 0.05 0.48 -0.21 9.82 0.03 0.08 -0.06 13534
0.11 0.02 0.46 -0.21 9.70 0.03 0.09 -0.06 13541
0.09 0.02 0.54 -0.21 9.77 0.04 0.09 -0.07 13548
0.09 0.02 0.57 -0.20 9.77 0.05 0.10 -0.07 13555
0.09 0.02 0.58 -0.23 9.79 0.07 0.10 -0.07 13562
0.08 0.03 0.56 -0.18 9.82 0.08 0.09 -0.07 13570
0.08 0.03 0.61 -0.14 10.18 0.11 0.05 -0.08 13577
0.09 0.03 0.67 -0.11 9.82 0.11 0.03 -0.08 13584
0.09 0.01 0.68 -0.06 9.78 0.11 0.01 -0.08 13591
0.09 -0.00 0.68 -0.09 9.82 0.13 -0.01 -0.07 13598
0.09 0.01 0.71 -0.14 9.83 0.12 -0.02 -0.07 13605
0.10 0.01 0.73 -0.11 9.80 0.12 -0.02 -0.07 13613
0.11 0.01 0.74 -0.15 9.77 0.12 -0.03 -0.07 13620
0.13 0.01 0.68 -0.20 9.85 0.13 -0.04 -0.07 13627
0.13 0.00 0.65 -0.25 9.75 0.12 -0.05 -0.07 13634
0.14 -0.01 0.60 -0.31 9.81 0.12 -0.06 -0.07 13641
0.12 -0.01 0.56 -0.35 9.73 0.11 -0.05 -0.07 13648
0.13 -0.00 0.55 -0.39 9.79 0.11 -0.06 -0.07 13656
0.13 -0.00 0.57 -0.37 9.86 0.10 -0.06 -0.08 13663
0.13 -0.01 0.59 -0.41 9.72 0.08 -0.05 -0.07 13670
0.12 -0.01 0.60 -0.39 9.76 0.07 -0.05 -0.07 13677
0.11 -0.01 0.68 -0.45 9.71 0.07 -0.04 -0.07 13684
0.11 -0.01 0.63 -0.43 9.76 0.06 -0.04 -0.07 13691
0.12 0.01 0.59 -0.42 9.78 0.05 -0.04 -0.07 13699
0.13 -0.00 0.51 -0.43 9.67 0.04 -0.03 -0.07 13706
0.13 -0.01 0.55 -0.46 9.71 0.04 -0.03 -0.07 13713
0.11 -0.01 0.54 -0.41 9.67 0.03 -0.01 -0.07 13720
0.10 -0.01 0.52 -0.40 9.77 0.02 0.00 -0.07 13727
0.11 -0.01 0.54 -0.42 9.78 0.01 0.02 -0.07 13734
0.11 0.01 0.82 -0.53 10.33 -0.01 0.02 -0.07 13742
0.12 -0.01 0.54 -0.39 9.74 -0.00 0.03 -0.06 13749
0.11 -0.01 0.57 -0.37 9.81 -0.00 0.04 -0.06 13756
0.12 -0.01 0.57 -0.32 9.79 -0.01 0.04 -0.06 13763
0.09 -0.00 0.60 -0.37 9.80 -0.01 0.04 -0.06 13770
0.10 0.00 0.49 -0.37 9.78 -0.01 0.04 -0.06 13777
0.10 0.00 0.52 -0.36 9.78 -0.01 0.04 -0.06 13785
0.11 -0.01 0.36 -0.44 9.88 -0.01 0.04 -0.06 13792
0.11 -0.01 0.46 -0.36 9.81 -0.01 0.05 -0.06 13799
0.11 -0.01 0.42 -0.33 9.81 -0.01 0.05 -0.06 13806
0.09 -0.00 0.47 -0.32 9.76 -0.02 0.06 -0.06 13813
0.10 -0.01 0.47 -0.29 9.76 -0.02 0.08 -0.06 13820
0.11 -0.00 0.51 -0.32 9.77 -0.02 0.08 -0.06 13828
0.11 0.00 0.46 -0.22 9.82 -0.03 0.08 -0.06 13835
0.11 -0.00 0.84 -0.31 9.86 -0.01 0.09 -0.06 13842
0.10 -0.00 0.62 -0.31 9.81 -0.03 0.07 -0.06 13849
0.09 0.00 0.66 -0.34 9.81 -0.03 0.07 -0.05 13856
0.09 0.01 0.66 -0.35 9.78 -0.03 0.07 -0.05 13863
0.09 0.00 0.60 -0.39 9.81 -0.03 0.08 -0.06 13871
0.09 0.00 0.57 -0.39 9.73 -0.04 0.08 -0.05 13878
0.08 0.00 0.58 -0.43 9.74 -0.04 0.08 -0.06 13885
0.08 0.00 0.62 -0.43 9.76 -0.05 0.08 -0.06 13892
0.07 0.00 0.59 -0.41 9.77 -0.05 0.09 -0.05 13899
0.07 0.01 0.58 -0.41 9.77 -0.06 0.10 -0.06 13906
0.09 0.00 0.56 -0.42 9.77 -0.06 0.10 -0.05 13914
0.07 0.00 0.57 -0.39 9.80 -0.07 0.10 -0.05 13921
0.07 -0.00 0.59 -0.39 9.81 -0.06 0.10 -0.05 13928
0.06 0.01 0.61 -0.37 9.75 -0.07 0.10 -0.05 13935
0.06 0.01 0.62 -0.36 9.75 -0.07 0.10 -0.06 13942
0.07 0.01 0.60 -0.30 9.76 -0.06 0.10 -0.06 13949
0.08 0.00 0.62 -0.34 9.79 -0.07 0.10 -0.06 13957
0.08 -0.00 0.60 -0.30 9.76 -0.07 0.10 -0.05 13964
0.07 -0.01 0.01 -0.24 9.75 -0.08 0.11 -0.05 13971
0.05 0.00 0.62 -0.24 9.71 -0.09 0.11 -0.05 13978
0.06 0.01 0.66 -0.22 9.71 -0.10 0.12 -0.05 13985
0.07 0.02 0.64 -0.17 9.77 -0.12 0.12 -0.05 13992
0.08 0.00 0.68 -0.17 9.74 -0.13 0.13 -0.05 14000
0.07 0.02 0.69 -0.19 9.82 -0.13 0.12 -0.05 14007
0.06 0.01 0.69 -0.17 9.81 -0.13 0.12 -0.05 14014
0.05 0.02 0.70 -0.17 9.80 -0.12 0.11 -0.05 14021
0.06 0.02 0.67 -0.23 9.77 -0.11 0.11 -0.05 14028
0.06 0.03 0.69 -0.24 9.83 -0.10 0.09 -0.05 14035
0.07 0.03 0.71 -0.25 10.08 -0.10 0.08 -0.05 14043
0.06 0.02 0.63 -0.26 9.51 -0.08 0.03 -0.05 14050
0.05 0.03 0.61 -0.24 9.79 -0.07 0.00 -0.06 14057
0.04 0.05 0.65 -0.27 9.82 -0.07 -0.00 -0.05 14064
0.04 0.06 0.59 -0.25 9.78 -0.07 -0.01 -0.05 14071
0.05 0.03 0.64 -0.23 9.77 -0.08 -0.02 -0.06 14078
0.05 0.02 0.70 -0.25 9.73 -0.07 -0.03 -0.06 14086
0.04 0.03 0.73 -0.21 9.75 -0.06 -0.03 -0.06 14093
0.04 0.03 0.73 -0.22 9.77 -0.05 -0.03 -0.05 14100
0.03 0.04 0.78 -0.25 9.74 -0.04 -0.03 -0.06 14107
0.02 0.05 0.76 -0.25 9.76 -0.04 -0.03 -0.06 14114
0.03 0.04 0.74 -0.25 9.76 -0.04 -0.03 -0.06 14121
0.04 0.03 0.67 -0.27 9.75 -0.03 -0.02 -0.06 14129
0.03 0.03 0.65 -0.23 9.77 -0.02 -0.00 -0.06 14136
0.02 0.04 0.60 -0.25 9.75 -0.02 0.00 -0.06 14143
0.02 0.06 0.61 -0.19 9.80 -0.02 0.01 -0.06 14150
0.03 0.07 0.57 -0.16 9.76 -0.02 0.01 -0.06 14157
0.04 0.05 0.54 -0.06 9.80 -0.01 0.01 -0.07 14164
0.02 0.05 0.50 0.10 9.82 -0.02 0.01 -0.06 14172
0.01 0.04 0.53 0.08 9.83 -0.01 0.01 -0.06 14179
0.00 0.05 0.64 0.01 9.80 -0.01 0.01 -0.06 14186
0.01 0.07 0.64 -0.02 9.80 -0.01 0.02 -0.06 14193
0.02 0.07 0.72 -0.12 9.81 -0.01 0.02 -0.05 14200
0.02 0.06 0.71 -0.18 9.75 -0.01 0.02 -0.05 14208
0.02 0.08 0.73 -0.19 9.76 -0.01 0.02 -0.05 14215
0.02 0.07 0.74 -0.23 9.71 -0.02 0.03 -0.05 14222
0.01 0.07 0.66 -0.20 9.77 -0.01 0.03 -0.05 14229
0.02 0.07 0.67 -0.17 9.73 -0.01 0.02 -0.06 14236
0.02 0.07 0.61 -0.12 9.80 -0.01 0.02 -0.06 14243
0.02 0.05 0.61 -0.11 9.75 -0.01 0.01 -0.06 14251
0.01 0.05 0.58 -0.11 9.77 -0.01 0.00 -0.06 14258
0.02 0.07 0.57 -0.19 9.89 -0.01 -0.00 -0.06 14265
-0.01 0.07 0.56 -0.23 9.21 -0.01 0.01 -0.06 14272
-0.00 0.11 0.54 -0.25 9.83 -0.01 0.01 -0.06 14279
0.01 0.12 0.50 -0.25 9.77 -0.01 0.02 -0.06 14286
0.00 0.13 0.49 -0.28 9.82 -0.01 0.02 -0.05 14294
-0.00 0.13 0.50 -0.28 9.80 -0.01 0.02 -0.05 14301
-0.01 0.12 0.53 -0.26 9.80 -0.02 0.02 -0.05 14308
-0.01 0.14 0.56 -0.19 9.76 -0.02 0.02 -0.06 14315
-0.01 0.15 0.57 -0.11 9.75 -0.01 0.02 -0.06 14322
0.00 0.15 0.57 -0.07 9.79 -0.01 0.01 -0.06 14329
-0.00 0.15 0.62 -0.03 9.80 -0.01 0.02 -0.06 14337
-0.01 0.15 0.65 -0.03 9.79 -0.01 0.02 -0.06 14344
-0.01 0.14 0.69 -0.06 9.79 -0.01 0.03 -0.06 14351
-0.01 0.15 0.65 -0.13 9.78 -0.01 0.03 -0.06 14358
-0.02 0.16 0.69 -0.14 9.76 -0.01 0.03 -0.06 14365
-0.01 0.17 0.63 -0.17 9.80 -0.01 0.03 -0.06 14372
-0.02 0.17 0.62 -0.19 9.80 -0.01 0.04 -0.05 14380
-0.02 0.16 0.57 -0.28 9.81 -0.02 0.04 -0.06 14387
-0.02 0.19 0.53 -0.24 9.77 -0.02 0.04 -0.05 14394
-0.02 0.17 0.50 -0.22 9.80 -0.01 0.04 -0.06 14401
-0.02 0.19 0.48 -0.23 9.80 -0.02 0.04 -0.06 14408
-0.01 0.18 0.55 -0.23 9.79 -0.02 0.04 -0.06 14415
-0.02 0.17 0.59 -0.20 9.78 -0.01 0.04 -0.06 14423
-0.02 0.17 0.60 -0.14 9.75 -0.01 0.04 -0.06 14430
-0.02 0.18 0.61 -0.11 9.78 -0.01 0.04 -0.06 14437
-0.02 0.16 0.61 -0.11 9.78 -0.01 0.04 -0.06 14444
-0.01 0.20 1.20 -0.11 9.78 -0.01 0.00 -0.06 14451
-0.02 0.19 0.59 -0.09 9.78 -0.01 0.03 -0.06 14458
-0.01 0.19 0.63 -0.10 9.81 -0.01 0.04 -0.06 14466
-0.01 0.18 0.59 -0.04 9.75 -0.02 0.05 -0.07 14473
-0.02 0.20 0.58 -0.06 9.81 -0.02 0.05 -0.07 14480
-0.02 0.19 0.60 -0.09 9.81 -0.02 0.05 -0.07 14487
-0.01 0.19 0.58 -0.11 9.80 -0.02 0.05 -0.07 14494
-0.02 0.20 0.57 -0.17 9.78 -0.01 0.05 -0.07 14501
-0.02 0.20 0.58 -0.14 9.80 -0.01 0.04 -0.07 14509
-0.02 0.20 0.59 -0.14 9.80 -0.01 0.04 -0.06 14516
-0.02 0.21 0.56 -0.14 9.80 -0.01 0.04 -0.06 14523
-0.02 0.22 0.61 -0.16 9.76 -0.01 0.04 -0.06 14530
-0.01 0.22 0.60 -0.18 9.78 -0.01 0.04 -0.06 14537
-0.02 0.21 0.57 -0.19 9.80 -0.01 0.04 -0.07 14544
-0.02 0.22 0.49 -0.19 9.81 -0.01 0.05 -0.07 14552
-0.02 0.22 0.51 -0.16 9.78 -0.01 0.05 -0.07 14559
-0.02 0.22 0.55 -0.15 9.81 -0.01 0.04 -0.07 14566
-0.02 0.22 0.56 -0.16 9.80 -0.02 0.04 -0.08 14573
-0.01 0.22 0.60 -0.16 9.73 -0.01 0.04 -0.07 14580
-0.02 0.22 0.58 -0.16 9.77 -0.01 0.04 -0.07 14587
-0.02 0.22 0.62 -0.14 9.78 -0.01 0.03 -0.07 14595
-0.02 0.21 0.64 -0.12 9.82 -0.01 0.04 -0.10 14602
-0.02 0.21 0.63 -0.11 9.80 -0.01 0.04 -0.07 14609
-0.02 0.22 0.59 -0.11 9.80 -0.01 0.04 -0.07 14616
-0.01 0.20 0.58 -0.14 9.81 -0.01 0.04 -0.06 14623
-0.02 0.20 0.60 -0.16 9.77 -0.01 0.03 -0.06 14630
-0.01 0.20 0.60 -0.17 9.80 -0.01 0.04 -0.06 14638
-0.02 0.21 0.60 -0.15 9.78 -0.01 0.04 -0.07 14645
-0.01 0.19 0.63 -0.14 9.80 -0.01 0.03 -0.06 14652
-0.01 0.20 0.60 -0.15 9.79 -0.00 0.03 -0.06 14659
-0.01 0.18 0.59 -0.15 9.80 -0.01 0.04 -0.07 14666
-0.01 0.18 0.61 -0.13 9.80 -0.01 0.04 -0.06 14673
-0.01 0.17 0.58 -0.14 9.76 -0.01 0.04 -0.06 14681
-0.02 0.18 0.57 -0.15 9.81 -0.01 0.03 -0.06 14688
-0.01 0.19 0.56 -0.12 9.80 -0.01 0.03 -0.07 14695
0.00 0.18 0.57 -0.12 9.79 -0.00 0.03 -0.07 14702
-0.01 0.17 0.55 -0.20 9.80 -0.00 0.03 -0.07 14709
-0.01 0.16 0.60 -0.15 9.77 -0.00 0.03 -0.07 14716
-0.01 0.15 0.59 -0.16 9.81 -0.00 0.03 -0.07 14724
-0.01 0.17 0.60 -0.18 9.77 -0.00 0.03 -0.06 14731
-0.01 0.16 0.60 -0.19 9.80 -0.01 0.03 -0.06 14738
0.00 0.15 0.60 -0.17 9.78 -0.01 0.04 -0.06 14745
-0.01 0.14 0.61 -0.16 9.76 -0.01 0.04 -0.07 14752
-0.01 0.13 0.54 -0.15 9.79 -0.01 0.04 -0.07 14759
-0.01 0.13 0.54 -0.14 9.80 -0.01 0.04 -0.07 14767
-0.01 0.12 0.54 -0.18 9.81 -0.01 0.04 -0.06 14774
-0.00 0.15 0.52 -0.15 9.81 -0.00 0.03 -0.07 14781
0.01 0.11 0.57 -0.16 9.79 -0.01 0.03 -0.07 14788
-0.00 0.12 0.57 -0.15 9.81 -0.01 0.03 -0.07 14795
-0.01 0.10 0.61 -0.14 9.80 -0.01 0.03 -0.07 14802
-0.01 0.11 0.63 -0.12 9.76 -0.00 0.03 -0.07 14810
-0.01 0.10 0.63 -0.13 9.78 -0.00 0.03 -0.07 14817
-0.00 0.12 0.60 -0.15 9.80 -0.01 0.04 -0.07 14824
0.01 0.09 0.63 -0.14 9.80 -0.01 0.03 -0.07 14831
0.00 0.08 1.20 -0.11 9.79 -0.01 0.04 -0.07 14838
0.01 0.08 0.56 -0.15 10.40 -0.01 0.04 -0.07 14845
-0.01 0.07 0.58 -0.14 9.75 -0.01 0.04 -0.07 14853
0.01 0.07 0.58 -0.11 9.77 -0.01 0.04 -0.07 14860
0.02 0.07 0.54 -0.14 9.77 -0.01 0.04 -0.07 14867
0.03 0.06 0.55 -0.15 9.79 -0.01 0.04 -0.07 14874
0.02 0.07 0.57 -0.11 9.80 -0.01 0.04 -0.07 14881
0.02 0.06 0.56 -0.11 9.81 -0.01 0.04 -0.07 14888
0.00 0.07 0.54 -0.11 9.78 -0.01 0.05 -0.07 14896
0.01 0.07 0.58 -0.17 9.81 -0.00 0.05 -0.07 14903
0.03 0.06 0.58 -0.17 9.79 -0.01 0.06 -0.07 14910
0.02 0.04 0.55 -0.13 9.78 -0.01 0.06 -0.07 14917
0.02 0.04 0.60 -0.09 9.83 -0.01 0.06 -0.08 14924
0.02 0.03 0.54 -0.13 9.83 -0.01 0.07 -0.06 14931
0.02 0.04 0.59 -0.11 9.80 -0.01 0.07 -0.07 14939
0.03 0.06 0.60 -0.08 9.77 -0.01 0.08 -0.07 14946
0.04 0.04 0.63 -0.04 9.80 -0.01 0.07 -0.07 14953
0.04 0.04 0.65 -0.01 9.77 -0.01 0.07 -0.07 14960
0.03 0.04 0.66 0.00 9.81 -0.01 0.08 -0.07 14967
0.03 0.02 0.63 -0.01 9.81 -0.01 0.08 -0.07 14974
0.04 0.02 0.64 -0.06 9.75 -0.01 0.08 -0.06 14982
0.04 0.04 0.58 -0.07 9.77 -0.01 0.09 -0.06 14989
0.05 0.03 0.55 -0.11 9.81 -0.01 0.09 -0.06 14996
0.03 0.03 0.51 -0.20 9.82 -0.01 0.09 -0.06 15003
0.04 0.02 0.51 -0.20 9.74 -0.01 0.10 -0.06 15010
0.03 0.02 0.52 -0.24 9.77 -0.00 0.10 -0.07 15017
0.04 0.03 0.52 -0.28 9.76 -0.00 0.10 -0.07 15025
0.04 0.04 0.57 -0.25 9.75 0.01 0.11 -0.07 15032
0.05 0.03 0.65 -0.26 9.75 0.02 0.11 -0.07 15039
0.05 0.01 0.70 -0.24 9.81 0.02 0.12 -0.03 15046
0.04 0.02 0.73 -0.24 9.75 0.04 0.12 -0.07 15053
0.04 0.03 0.75 -0.23 9.69 0.05 0.11 -0.06 15060
0.05 0.02 0.74 -0.28 9.75 0.06 0.12 -0.07 15068
0.06 0.01 0.75 -0.28 9.76 0.10 0.11 -0.07 15075
0.06 0.00 0.74 -0.25 9.78 0.08 0.10 -0.07 15082
0.06 0.00 0.78 -0.25 9.79 0.10 0.05 -0.07 15089
0.06 -0.00 0.79 -0.27 9.84 0.12 0.03 -0.07 15096
0.05 0.00 0.77 -0.28 9.75 0.13 0.00 -0.07 15104
0.06 0.01 0.76 -0.27 9.76 0.13 -0.01 -0.08 15111
0.07 -0.00 0.73 -0.30 9.70 0.13 -0.02 -0.08 15118
0.07 -0.00 0.74 -0.22 9.79 0.13 -0.02 -0.08 15125
0.06 -0.00 0.72 -0.20 9.65 0.11 -0.02 -0.08 15132
0.05 -0.01 0.73 -0.19 9.81 0.10 -0.02 -0.08 15139
0.05 -0.01 0.71 -0.18 9.80 0.10 -0.03 -0.07 15147
0.07 -0.00 0.64 -0.24 9.82 0.09 -0.03 -0.07 15154
0.09 0.00 0.58 -0.23 9.86 0.09 -0.04 -0.07 15161
0.09 -0.00 0.53 -0.28 9.81 0.10 -0.05 -0.08 15168
0.08 -0.01 0.52 -0.35 9.80 0.11 -0.05 -0.08 15175
0.08 -0.01 0.49 -0.34 9.86 0.11 -0.06 -0.08 15182
0.08 -0.00 0.48 -0.35 9.82 0.10 -0.10 -0.08 15190
0.08 0.01 0.52 -0.33 9.81 0.10 -0.07 -0.08 15197
0.10 -0.00 0.53 -0.32 9.75 0.10 -0.06 -0.08 15204
0.09 -0.01 0.56 -0.31 9.74 0.08 -0.06 -0.08 15211
0.09 -0.01 0.62 -0.29 9.67 0.06 -0.06 -0.08 15218
0.07 0.00 0.63 -0.36 9.69 0.05 -0.04 -0.08 15225
0.08 0.00 0.61 -0.34 9.75 0.04 -0.03 -0.07 15233
0.08 0.01 0.63 -0.34 9.68 0.02 -0.01 -0.07 15240
0.09 -0.01 0.59 -0.39 9.59 0.00 0.01 -0.07 15247
0.08 -0.01 0.59 -0.37 9.61 -0.01 0.04 -0.06 15254
0.08 -0.01 0.63 -0.37 9.73 -0.02 0.06 -0.06 15261
0.07 -0.00 0.66 -0.36 9.74 -0.03 0.08 -0.06 15268
0.07 -0.00 0.65 -0.32 9.71 -0.04 0.08 -0.06 15276
0.07 0.00 0.62 -0.37 9.77 -0.04 0.09 -0.06 15283
0.09 -0.00 1.44 -1.21 8.98 -0.08 0.09 -0.06 15290
0.07 -0.00 0.60 -0.37 9.66 -0.07 0.10 -0.05 15297
0.08 -0.01 0.60 -0.40 9.76 -0.07 0.11 -0.05 15304
0.05 0.00 0.58 -0.35 9.81 -0.08 0.12 -0.05 15311
0.06 0.01 0.66 -0.35 9.81 -0.08 0.12 -0.05 15319
0.07 0.00 0.57 -0.33 9.76 -0.09 0.12 -0.06 15326
0.06 -0.01 0.55 -0.33 9.81 -0.09 0.12 -0.05 15333
0.06 -0.01 0.58 -0.33 9.80 -0.09 0.12 -0.05 15340
0.05 -0.01 0.57 -0.30 9.78 -0.09 0.12 -0.05 15347
0.05 -0.00 0.54 -0.32 9.79 -0.09 0.12 -0.06 15354
0.07 0.01 0.59 -0.29 9.21 -0.08 0.12 -0.05 15362
0.07 0.00 0.58 -0.31 9.82 -0.09 0.11 -0.06 15369
0.06 -0.01 0.61 -0.32 9.75 -0.08 0.11 -0.05 15376
0.06 -0.01 0.61 -0.28 9.77 -0.09 0.11 -0.06 15383
0.05 -0.01 0.68 -0.23 9.81 -0.09 0.10 -0.05 15390
0.04 0.00 0.69 -0.20 9.69 -0.09 0.10 -0.05 15397
0.05 0.01 0.72 -0.18 9.73 -0.10 0.10 -0.05 15405
0.06 0.00 0.71 -0.21 9.73 -0.11 0.10 -0.05 15412
0.05 0.01 0.74 -0.22 9.75 -0.12 0.11 -0.05 15419
0.05 -0.00 0.74 -0.21 9.78 -0.13 0.11 -0.05 15426
0.04 0.01 0.69 -0.20 9.70 -0.14 0.11 -0.05 15433
0.05 0.01 0.74 -0.25 10.03 -0.14 0.08 -0.05 15440
0.05 0.02 0.71 -0.26 9.90 -0.11 -0.01 -0.05 15448
0.06 0.01 0.68 -0.23 9.20 -0.10 -0.03 -0.05 15455
0.05 0.01 0.68 -0.18 9.78 -0.10 -0.04 -0.05 15462
0.04 0.01 0.72 -0.20 9.58 -0.09 -0.04 -0.05 15469
0.04 0.01 0.70 -0.20 9.75 -0.06 -0.03 -0.06 15476
0.04 0.02 0.68 -0.18 9.79 -0.05 -0.02 -0.06 15483
0.04 0.02 0.68 -0.14 9.79 -0.04 -0.01 -0.06 15491
0.03 0.02 0.66 -0.16 9.79 -0.04 -0.01 -0.05 15498
0.03 0.02 0.60 -0.14 9.79 -0.04 -0.00 -0.06 15505
0.03 0.01 0.57 -0.14 9.77 -0.04 0.00 -0.06 15512
0.02 0.02 0.55 -0.17 9.73 -0.03 -0.00 -0.06 15519
0.03 0.03 0.56 -0.19 9.74 -0.02 -0.00 -0.06 15526
0.04 0.03 0.54 -0.18 9.80 -0.02 -0.01 -0.06 15534
0.04 0.02 0.57 -0.20 9.75 -0.02 -0.01 -0.06 15541
0.01 0.01 0.58 -0.24 9.77 -0.01 -0.01 -0.06 15548
0.01 0.02 0.64 -0.15 9.70 -0.01 -0.00 -0.06 15555
0.00 0.02 0.65 -0.20 9.80 -0.01 -0.00 -0.06 15562
0.00 0.05 0.71 -0.21 9.76 -0.01 0.00 -0.06 15569
0.02 0.03 0.72 -0.18 9.76 -0.01 0.00 -0.06 15577
0.02 0.03 0.76 -0.18 9.77 -0.01 -0.00 -0.05 15584
0.02 0.02 0.73 -0.14 9.71 -0.01 -0.00 -0.06 15591
-0.00 0.02 0.74 -0.16 9.76 -0.01 -0.01 -0.06 15598
-0.00 0.03 0.69 -0.16 9.72 -0.01 -0.01 -0.06 15605
0.00 0.05 0.72 -0.15 9.72 -0.01 -0.01 -0.06 15612
0.02 0.05 0.70 -0.18 9.77 -0.01 -0.01 -0.06 15620
0.00 0.05 0.65 -0.22 9.77 -0.01 -0.02 -0.06 15627
0.00 0.05 0.63 -0.25 9.74 -0.01 -0.01 -0.06 15634
-0.00 0.05 0.58 -0.26 9.80 -0.01 -0.00 -0.06 15641
-0.00 0.05 0.49 -0.31 9.81 -0.01 -0.00 -0.06 15648
0.00 0.05 0.47 -0.29 9.76 -0.01 -0.00 -0.06 15655
0.01 0.04 0.49 -0.28 9.78 -0.01 -0.00 -0.06 15663
0.00 0.05 0.52 -0.26 9.78 -0.01 -0.00 -0.06 15670
0.00 0.04 0.49 -0.02 9.81 -0.02 -0.00 -0.06 15677
-0.00 0.05 0.46 0.15 9.83 -0.01 0.01 -0.06 15684
0.01 0.05 0.47 0.12 9.83 -0.02 0.01 -0.06 15691
0.01 0.07 0.48 0.05 9.82 -0.02 0.02 -0.06 15698
0.00 0.07 0.48 0.06 9.81 -0.01 0.03 -0.06 15706
0.00 0.07 0.51 0.05 9.82 -0.01 0.02 -0.06 15713
0.00 0.05 0.60 -0.03 9.82 -0.01 0.03 -0.06 15720
-0.00 0.07 0.58 -0.14 9.78 -0.01 0.03 -0.07 15727
0.01 0.08 0.64 -0.23 9.74 -0.01 0.02 -0.06 15734
0.01 0.08 0.67 -0.24 9.79 -0.01 0.02 -0.06 15741
0.01 0.07 0.66 -0.28 9.78 -0.00 0.02 -0.06 15749
0.01 0.06 0.61 -0.22 9.75 -0.01 0.01 -0.06 15756
-0.01 0.05 0.55 -0.19 9.78 -0.00 0.02 -0.06 15763
-0.01 0.06 0.53 -0.18 9.82 -0.00 0.01 -0.06 15770
0.01 0.07 0.53 -0.20 9.80 -0.01 0.02 -0.06 15777
0.02 0.07 0.47 -0.19 9.78 -0.01 0.02 -0.06 15784
0.02 0.07 0.39 -0.11 9.81 -0.01 0.02 -0.06 15792
0.01 0.06 0.41 -0.10 9.82 -0.01 0.03 -0.06 15799
-0.01 0.06 0.44 -0.09 9.78 -0.01 0.03 -0.06 15806
0.00 0.06 0.46 -0.18 9.80 -0.02 0.03 -0.06 15813
0.01 0.07 0.49 -0.20 9.79 -0.01 0.03 -0.06 15820
0.02 0.07 0.53 -0.24 9.75 -0.01 0.02 -0.06 15827
0.01 0.06 0.57 -0.25 9.77 -0.01 0.02 -0.06 15835
0.00 0.05 0.64 -0.25 9.77 -0.02 0.02 -0.06 15842
-0.01 0.07 0.64 -0.14 9.73 -0.01 0.03 -0.06 15849
-0.01 0.08 0.60 -0.11 9.80 -0.01 0.03 -0.06 15856
-0.01 0.10 0.57 -0.10 9.78 -0.01 0.04 -0.06 15863
0.00 0.08 0.54 -0.15 9.78 -0.01 0.04 -0.06 15870
-0.01 0.08 0.50 -0.14 10.40 -0.01 0.05 -0.06 15878
-0.01 0.07 0.53 -0.10 9.78 -0.02 0.04 -0.06 15885
-0.01 0.08 0.55 -0.14 9.81 -0.02 0.04 -0.06 15892
-0.01 0.08 0.56 -0.12 9.81 -0.01 0.04 -0.06 15899
-0.01 0.09 0.57 -0.11 9.72 -0.01 0.04 -0.06 15906
-0.01 0.08 0.58 -0.12 9.77 -0.01 0.03 -0.06 15913
-0.01 0.07 0.60 -0.11 9.79 -0.01 0.04 -0.06 15921
-0.01 0.07 0.59 -0.13 9.81 -0.00 0.03 -0.06 15928
-0.01 0.07 0.54 -0.13 9.81 -0.01 0.04 -0.06 15935
-0.01 0.07 0.49 -0.09 9.76 -0.01 0.05 -0.06 15942
-0.01 0.07 0.41 -0.17 9.82 -0.01 0.05 -0.04 15949
-0.01 0.07 0.44 -0.17 9.82 -0.01 0.05 -0.06 15956
-0.01 0.06 0.40 -0.21 9.78 -0.01 0.05 -0.06 15964
-0.01 0.06 0.41 -0.19 9.82 -0.01 0.04 -0.07 15971
-0.01 0.06 0.49 -0.16 9.79 -0.01 0.04 -0.07 15978
-0.01 0.07 0.52 -0.18 9.76 0.00 0.03 -0.07 15985
-0.00 0.07 0.63 -0.13 9.74 0.00 0.03 -0.06 15992
-0.01 0.06 0.65 -0.14 9.76 0.00 0.02 -0.07 16000
-0.01 0.06 0.69 -0.12 9.76 0.01 0.02 -0.07 16007
-0.01 0.06 0.61 -0.09 9.80 0.01 0.02 -0.06 16014
-0.01 0.07 0.57 -0.05 9.81 0.01 0.02 -0.06 16021
-0.01 0.08 0.48 -0.10 9.81 0.00 0.02 -0.07 16028
-0.00 0.07 0.51 -0.09 9.76 0.00 0.03 -0.07 16035
-0.01 0.07 0.47 -0.11 9.83 -0.00 0.03 -0.07 16043
-0.01 0.07 0.46 -0.20 9.79 -0.01 0.03 -0.08 16050
-0.01 0.06 0.48 -0.18 9.77 -0.01 0.02 -0.08 16057
-0.01 0.07 0.44 -0.24 9.80 -0.01 0.03 -0.08 16064
-0.01 0.08 0.43 -0.26 9.82 -0.01 0.04 -0.08 16071
-0.01 0.07 0.46 -0.29 9.82 -0.01 0.04 -0.08 16078
-0.01 0.08 0.48 -0.31 9.79 -0.01 0.04 -0.07 16086
-0.01 0.06 0.46 -0.26 9.81 -0.00 0.04 -0.07 16093
-0.01 0.08 0.47 -0.22 9.80 -0.00 0.04 -0.07 16100
-0.01 0.07 0.52 -0.16 9.76 -0.00 0.04 -0.06 16107
-0.01 0.07 0.56 -0.15 9.75 -0.00 0.04 -0.07 16114
-0.01 0.07 0.57 -0.10 9.71 -0.01 0.05 -0.07 16121
-0.01 0.06 0.58 -0.03 9.79 -0.01 0.05 -0.07 16129
-0.01 0.05 0.56 -0.03 9.81 -0.01 0.05 -0.07 16136
-0.01 0.07 0.59 -0.05 9.81 -0.01 0.05 -0.06 16143
-0.01 0.07 0.59 -0.08 9.69 -0.01 0.05 -0.06 16150
-0.01 0.08 0.61 -0.10 9.80 -0.02 0.05 -0.06 16157
-0.01 0.06 0.57 -0.15 9.76 -0.01 0.05 -0.07 16164
-0.01 0.06 0.56 -0.14 9.77 -0.01 0.04 -0.07 16172
-0.01 0.06 0.52 -0.18 9.82 -0.01 0.04 -0.06 16179
-0.01 0.07 0.52 -0.23 9.73 -0.01 0.04 -0.06 16186
-0.01 0.07 0.51 -0.24 9.78 -0.01 0.04 -0.06 16193
0.00 0.06 0.49 -0.21 9.74 -0.01 0.03 -0.06 16200
-0.01 0.06 0.48 -0.17 9.79 -0.01 0.03 -0.10 16207
-0.01 0.06 0.47 -0.21 9.80 -0.01 0.03 -0.06 16215
-0.01 0.05 0.49 -0.20 9.78 -0.00 0.03 -0.06 16222
-0.00 0.05 0.52 -0.16 9.80 -0.01 0.03 -0.06 16229
-0.01 0.06 0.51 -0.16 9.77 -0.00 0.03 -0.07 16236
-0.00 0.06 0.48 -0.14 9.78 -0.01 0.04 -0.07 16243
-0.01 0.06 0.52 -0.15 9.81 -0.01 0.04 -0.06 16250
-0.00 0.05 0.53 -0.18 9.77 -0.01 0.04 -0.07 16258
-0.00 0.04 0.56 -0.17 9.76 -0.01 0.04 -0.06 16265
-0.01 0.06 0.59 -0.14 9.77 -0.01 0.04 -0.06 16272
-0.01 0.06 0.61 -0.15 9.82 -0.01 0.04 -0.06 16279
-0.01 0.05 0.62 -0.09 9.80 -0.01 0.04 -0.06 16286
-0.01 0.05 0.61 -0.04 9.78 -0.01 0.04 -0.07 16293
-0.00 0.04 0.60 -0.12 9.78 -0.01 0.04 -0.07 16301
-0.00 0.05 0.57 -0.13 9.81 -0.01 0.03 -0.06 16308
-0.01 0.05 0.53 -0.14 9.81 -0.01 0.03 -0.06 16315
-0.00 0.05 0.49 -0.16 9.80 -0.00 0.04 -0.06 16322
-0.01 0.05 0.48 -0.18 9.81 -0.01 0.03 -0.07 16329
-0.00 0.05 0.43 -0.21 9.79 -0.00 0.03 -0.10 16336
-0.00 0.04 0.42 -0.26 9.80 -0.01 0.03 -0.06 16344
-0.01 0.05 0.45 -0.24 9.77 -0.01 0.04 -0.06 16351
-0.01 0.06 0.47 -0.24 9.79 -0.00 0.03 -0.06 16358
-0.01 0.06 0.51 -0.21 9.80 -0.01 0.04 -0.06 16365
-0.00 0.06 0.52 -0.19 9.80 -0.01 0.04 -0.07 16372
-0.01 0.05 0.53 -0.14 9.77 -0.01 0.05 -0.07 16379
-0.00 0.04 0.52 -0.14 9.76 -0.00 0.05 -0.06 16387
-0.00 0.04 0.58 -0.11 9.20 -0.01 0.05 -0.07 16394
-0.00 0.06 0.53 -0.14 9.79 -0.01 0.05 -0.07 16401
0.01 0.05 0.51 -0.12 9.80 -0.01 0.06 -0.06 16408
-0.01 0.05 0.51 -0.12 9.82 -0.01 0.06 -0.06 16415
-0.00 0.05 0.55 -0.14 9.78 -0.01 0.06 -0.07 16422
-0.00 0.04 0.52 -0.14 9.83 -0.02 0.06 -0.06 16430
-0.00 0.05 0.58 -0.12 9.80 -0.01 0.06 -0.06 16437
0.00 0.06 0.51 -0.10 9.79 -0.02 0.06 -0.07 16444
0.01 0.05 0.53 -0.16 10.40 -0.01 0.06 -0.06 16451
0.00 0.05 0.54 -0.11 9.77 -0.02 0.06 -0.07 16458
0.00 0.03 0.54 -0.12 9.77 -0.01 0.06 -0.07 16465
-0.00 0.02 0.51 -0.10 9.80 -0.01 0.07 -0.07 16473
-0.00 0.04 0.49 -0.07 9.78 -0.01 0.07 -0.07 16480
0.00 0.06 0.55 -0.05 9.76 -0.02 0.07 -0.07 16487
0.01 0.05 0.53 -0.13 9.78 -0.01 0.07 -0.07 16494
0.00 0.04 0.48 -0.13 9.79 -0.01 0.07 -0.07 16501
0.00 0.03 0.47 -0.20 9.81 -0.01 0.07 -0.07 16508
-0.00 0.03 0.50 -0.18 9.81 -0.01 0.07 -0.07 16516
0.00 0.03 0.48 -0.19 9.80 -0.01 0.07 -0.07 16523
0.01 0.03 0.52 -0.16 9.80 -0.01 0.07 -0.07 16530
0.01 0.04 0.57 -0.15 9.78 -0.01 0.07 -0.06 16537
0.01 0.03 0.66 -0.18 9.77 -0.01 0.07 -0.07 16544
0.01 0.02 0.67 -0.11 9.79 -0.01 0.07 -0.06 16551
0.00 0.03 0.73 -0.03 9.74 -0.01 0.07 -0.06 16559
0.01 0.03 0.73 -0.03 9.76 -0.01 0.08 -0.07 16566
0.03 0.04 0.72 -0.01 9.76 -0.01 0.08 -0.06 16573
0.01 0.04 0.66 -0.03 9.76 -0.01 0.08 -0.06 16580
0.01 0.02 0.59 -0.07 9.79 -0.01 0.08 -0.06 16587
0.02 0.00 0.56 -0.12 9.79 -0.01 0.08 -0.06 16594
0.02 0.01 0.46 -0.17 9.81 -0.01 0.08 -0.06 16602
0.03 0.03 0.48 -0.23 9.82 -0.01 0.08 -0.06 16609
0.04 0.02 0.54 -0.24 9.20 -0.01 0.08 -0.06 16616
0.03 0.03 0.50 -0.29 9.81 -0.01 0.08 -0.07 16623
0.02 0.02 0.58 -0.29 9.81 -0.01 0.07 -0.07 16630
0.01 0.02 0.59 -0.30 9.76 -0.00 0.08 -0.07 16637
0.02 0.04 0.65 -0.28 9.74 0.00 0.09 -0.07 16645
0.03 0.03 0.68 -0.28 9.75 0.01 0.10 -0.07 16652
0.03 0.03 0.63 -0.28 9.77 0.02 0.10 -0.07 16659
0.03 0.03 0.67 -0.36 9.72 0.02 0.11 -0.07 16666
0.03 0.00 0.65 -0.31 9.77 0.02 0.11 -0.07 16673
0.02 0.02 0.68 -0.32 9.74 0.02 0.11 -0.08 16680
0.03 0.03 0.63 -0.31 9.77 0.02 0.10 -0.08 16688
0.04 0.03 0.62 -0.23 9.75 0.02 0.10 -0.09 16695
0.04 0.02 0.68 -0.19 9.76 0.02 0.10 -0.08 16702
0.04 0.01 0.70 -0.11 9.76 0.02 0.10 -0.08 16709
0.04 -0.00 0.78 -0.07 9.77 0.03 0.11 -0.08 16716
0.02 0.02 0.82 -0.04 9.76 0.03 0.11 -0.07 16723
0.03 0.02 0.86 -0.06 9.76 0.03 0.10 -0.07 16731
0.04 0.02 0.80 -0.10 9.75 0.04 0.10 -0.07 16738
0.05 -0.00 0.75 -0.14 10.13 0.06 0.07 -0.07 16745
0.05 -0.00 0.72 -0.16 9.81 0.07 0.06 -0.07 16752
0.05 0.00 0.62 -0.23 9.79 0.07 0.04 -0.07 16759
0.04 0.02 0.61 -0.29 9.82 0.06 0.04 -0.07 16766
0.05 0.03 0.67 -0.34 9.80 0.05 0.04 -0.08 16774
0.07 0.02 0.68 -0.27 9.87 0.04 0.03 -0.09 16781
0.08 0.03 0.69 -0.24 9.85 0.03 0.03 -0.10 16788
0.07 0.03 0.74 -0.19 9.72 0.03 0.03 -0.10 16795
0.06 0.01 0.71 -0.15 9.89 0.03 0.04 -0.10 16802
0.04 0.03 0.73 -0.13 9.86 0.04 0.03 -0.10 16809
0.06 0.02 0.74 -0.12 9.82 0.05 0.02 -0.10 16817
0.08 0.01 0.68 -0.14 9.78 0.06 0.01 -0.09 16824
0.07 0.01 0.69 -0.17 9.76 0.06 -0.03 -0.09 16831
0.06 0.01 0.63 -0.23 9.79 0.06 -0.01 -0.09 16838
0.04 0.01 0.64 -0.23 9.68 0.06 -0.00 -0.09 16845
0.05 0.01 0.63 -0.29 9.77 0.05 -0.01 -0.08 16852
0.07 0.02 0.57 -0.33 9.78 0.03 -0.01 -0.09 16860
0.09 0.01 0.59 -0.28 9.76 0.02 0.01 -0.09 16867
0.08 0.01 0.60 -0.29 9.70 0.01 0.01 -0.09 16874
0.08 0.00 0.57 -0.27 9.76 -0.00 0.03 -0.08 16881
0.08 0.01 0.63 -0.25 9.79 -0.02 0.05 -0.08 16888
0.09 0.02 0.65 -0.21 9.80 -0.02 0.05 -0.08 16896
0.08 0.02 0.70 -0.20 9.77 -0.01 0.04 -0.08 16903
0.10 0.01 0.73 -0.25 9.80 -0.00 0.04 -0.07 16910
0.08 0.01 0.69 -0.23 9.82 0.01 0.03 -0.07 16917
0.08 0.01 0.68 -0.27 9.76 0.01 0.02 -0.07 16924
0.07 0.02 0.66 -0.23 9.78 0.02 0.02 -0.07 16931
0.09 0.01 0.66 -0.27 9.78 0.02 0.02 -0.07 16939
0.08 0.01 0.60 -0.24 9.76 0.01 0.02 -0.03 16946
0.08 0.00 0.62 -0.26 9.74 0.00 0.03 -0.07 16953
0.07 0.01 0.58 -0.26 9.69 -0.01 0.04 -0.07 16960
0.07 -0.00 0.61 -0.26 9.72 -0.02 0.05 -0.06 16967
0.06 0.01 0.61 -0.28 9.77 -0.03 0.06 -0.07 16974
0.07 0.01 0.62 -0.24 9.76 -0.04 0.07 -0.06 16982
0.07 0.01 0.68 -0.26 9.70 -0.04 0.09 -0.06 16989
0.07 0.01 0.66 -0.30 9.79 -0.05 0.09 -0.06 16996
0.06 0.00 0.70 -0.26 9.72 -0.06 0.09 -0.06 17003
0.06 -0.00 0.68 -0.28 9.75 -0.06 0.09 -0.05 17010
0.06 0.00 0.67 -0.27 9.69 -0.06 0.09 -0.05 17017
0.06 0.01 0.71 -0.31 9.76 -0.06 0.09 -0.05 17025
0.07 0.01 0.72 -0.27 9.78 -0.06 0.09 -0.05 17032
0.07 0.00 0.67 -0.29 9.75 -0.07 0.10 -0.06 17039
0.06 0.00 0.68 -0.25 9.74 -0.08 0.10 -0.05 17046
0.05 0.00 0.68 -0.27 9.78 -0.09 0.11 -0.05 17053
0.06 0.01 0.63 -0.25 9.22 -0.09 0.11 -0.05 17060
0.06 0.01 0.68 -0.20 9.74 -0.10 0.11 -0.05 17068
0.07 0.01 0.69 -0.23 9.82 -0.10 0.11 -0.05 17075
0.06 0.00 0.70 -0.20 9.79 -0.10 0.10 -0.05 17082
0.05 0.01 0.74 -0.18 9.76 -0.10 0.10 -0.05 17089
0.04 0.02 0.70 -0.16 9.80 -0.10 0.09 -0.05 17096
0.04 0.02 0.69 -0.21 9.80 -0.10 0.09 -0.05 17103
0.05 0.02 0.69 -0.18 9.75 -0.11 0.09 -0.05 17111
0.06 0.02 0.68 -0.16 9.67 -0.11 0.07 -0.05 17118
0.04 0.02 0.66 -0.17 9.90 -0.09 -0.01 -0.05 17125
0.03 0.02 0.64 -0.15 9.74 -0.08 -0.01 -0.06 17132
0.01 0.03 0.66 -0.16 9.77 -0.06 -0.01 -0.06 17139
0.02 0.03 0.69 -0.16 9.72 -0.06 -0.01 -0.06 17146
0.03 0.04 0.76 -0.12 9.75 -0.06 -0.03 -0.06 17154
0.04 0.02 0.77 -0.10 9.81 -0.05 -0.03 -0.06 17161
0.03 0.02 0.81 -0.05 9.78 -0.05 -0.03 -0.06 17168
0.03 0.00 0.87 -0.08 9.74 -0.03 -0.02 -0.06 17175
0.02 0.02 0.89 -0.05 9.75 -0.02 -0.01 -0.06 17182
0.02 0.02 0.86 -0.04 9.75 -0.02 -0.00 -0.05 17189
0.04 0.03 0.84 -0.02 9.74 -0.02 -0.01 -0.05 17197
0.04 0.02 0.79 -0.05 9.75 -0.01 0.00 -0.05 17204
0.03 0.03 0.75 -0.06 9.77 -0.01 -0.00 -0.06 17211
0.02 0.02 0.70 -0.08 9.80 -0.01 -0.00 -0.06 17218
0.01 0.03 0.60 -0.11 9.80 -0.01 0.00 -0.05 17225
0.01 0.03 0.53 -0.17 9.80 -0.01 0.01 -0.06 17232
0.03 0.03 0.47 -0.22 9.81 -0.01 0.01 -0.06 17240
0.01 0.02 0.47 -0.25 9.81 -0.01 0.01 -0.06 17247
0.01 0.01 0.48 -0.20 9.80 -0.01 0.00 -0.06 17254
0.01 0.01 0.47 -0.22 9.81 -0.01 0.00 -0.06 17261
0.02 0.02 0.51 -0.17 9.81 -0.01 0.00 -0.06 17268
0.01 0.04 0.61 -0.18 9.73 -0.01 -0.00 -0.06 17275
0.02 0.04 0.71 -0.12 9.77 -0.01 -0.00 -0.06 17283
0.02 0.04 0.79 -0.07 9.74 -0.01 -0.00 -0.07 17290
0.01 0.02 0.84 -0.02 9.76 -0.00 0.00 -0.06 17297
0.00 0.03 0.92 -0.00 9.73 -0.01 0.01 -0.06 17304
0.01 0.03 0.91 -0.02 9.74 -0.01 0.01 -0.06 17311
0.02 0.07 0.87 -0.07 9.74 -0.00 0.01 -0.06 17318
0.02 0.06 0.85 -0.08 9.74 -0.01 0.01 -0.06 17326
0.01 0.05 0.77 -0.14 9.75 -0.01 0.01 -0.05 17333
0.02 0.04 0.74 -0.15 9.76 -0.01 0.01 -0.06 17340
-0.00 0.05 0.62 -0.14 9.81 -0.01 0.00 -0.06 17347
0.02 0.04 0.59 -0.16 9.77 -0.01 -0.01 -0.05 17354
0.02 0.06 0.60 -0.14 9.76 -0.01 -0.01 -0.06 17361
0.00 0.05 0.53 -0.10 9.81 -0.00 -0.01 -0.06 17369
0.00 0.05 0.52 -0.13 9.76 -0.00 -0.02 -0.06 17376
0.00 0.04 0.51 -0.05 9.82 -0.01 -0.01 -0.06 17383
