Voltage_01 Voltage_02 Acc_x Acc_y Acc_z Gyro_x Gyro_y Gyro_z Time
1000
0.49 0.08 0.43 -1.01 9.78 -0.04 0.03 -0.07 24
0.49 0.15 0.43 -1.02 9.78 -0.05 0.03 -0.07 31
0.54 0.15 0.43 -1.03 9.80 -0.04 0.03 -0.07 38
0.53 0.14 0.44 -1.02 9.81 -0.00 0.03 -0.07 46
0.56 0.15 0.43 -1.05 9.82 -0.04 0.03 -0.07 53
0.59 0.15 0.45 -1.02 9.75 -0.04 0.03 -0.07 60
0.61 0.16 0.42 -1.00 9.81 -0.04 0.03 -0.07 67
0.64 0.16 0.68 -1.53 9.96 -0.03 0.03 -0.07 74
0.67 0.17 0.42 -1.01 9.82 -0.03 0.04 -0.07 81
0.76 0.19 0.45 -0.99 9.79 -0.02 0.04 -0.07 89
0.77 0.18 0.42 -1.00 9.78 -0.02 0.04 -0.08 96
0.79 0.19 0.44 -1.00 9.79 -0.02 0.04 -0.07 103
0.79 0.16 0.45 -1.01 9.81 -0.02 0.04 -0.08 110
0.81 0.17 0.42 -1.02 9.79 -0.01 0.04 -0.08 117
0.83 0.17 0.39 -1.01 9.83 -0.01 0.04 -0.07 124
0.81 0.18 0.44 -1.02 9.82 -0.01 0.04 -0.07 132
0.84 0.14 0.43 -1.01 9.82 -0.00 0.05 -0.08 139
0.84 0.13 0.43 -1.00 9.82 -0.00 0.05 -0.08 146
0.87 0.11 0.43 -1.03 9.79 0.00 0.05 -0.07 153
0.89 0.10 0.46 -1.03 9.81 -0.00 0.05 -0.07 160
0.92 0.09 0.43 -1.03 9.81 0.01 0.06 -0.07 167
0.94 0.08 0.43 -1.00 9.77 0.01 0.05 -0.07 175
0.98 0.06 0.40 -1.02 9.82 0.01 0.05 -0.07 182
0.97 0.04 0.45 -1.02 9.80 0.01 0.06 -0.07 189
0.99 0.04 0.42 -1.01 9.81 0.01 0.06 -0.07 196
1.02 0.04 0.40 -1.01 10.42 0.01 0.05 -0.07 203
1.04 0.01 0.45 -1.01 9.81 0.02 0.06 -0.07 210
1.08 0.01 0.45 -0.98 9.80 0.02 0.06 -0.07 218
1.12 0.00 0.44 -0.99 9.80 0.02 0.06 -0.07 225
1.21 -0.04 0.44 -1.03 9.80 0.02 0.05 -0.08 232
1.27 -0.06 0.44 -1.02 9.77 0.02 0.05 -0.07 239
1.30 -0.06 0.41 -1.05 9.80 0.02 0.05 -0.08 246
1.33 -0.05 0.45 -1.03 9.77 0.02 0.05 -0.08 253
1.41 -0.05 0.47 -1.03 9.79 0.02 0.05 -0.08 261
1.45 -0.05 0.42 -1.02 9.81 0.02 0.05 -0.07 268
1.47 -0.06 0.46 -1.03 9.82 0.02 0.05 -0.07 275
1.48 -0.06 0.43 -1.03 9.79 0.02 0.05 -0.07 282
1.50 -0.07 0.47 -1.03 9.81 0.02 0.04 -0.07 289
1.51 -0.06 0.42 -1.08 10.40 0.01 0.05 -0.08 296
1.54 -0.05 0.44 -1.07 9.80 0.02 0.05 -0.08 304
1.56 -0.06 0.45 -1.07 9.81 0.02 0.05 -0.08 311
1.57 -0.07 0.47 -1.06 9.78 0.02 0.05 -0.08 318
1.59 -0.07 0.43 -1.05 9.76 0.01 0.05 -0.07 325
1.62 -0.07 0.47 -1.07 10.40 0.01 0.05 -0.07 332
1.65 -0.05 0.45 -1.06 9.80 0.01 0.05 -0.08 339
1.65 -0.06 0.45 -1.02 9.80 0.01 0.05 -0.07 347
1.66 -0.06 0.43 -1.04 9.77 0.01 0.05 -0.08 354
1.65 -0.07 0.45 -1.07 9.79 0.01 0.05 -0.07 361
1.64 -0.07 0.43 -1.06 9.80 0.01 0.05 -0.07 368
1.64 -0.05 0.46 -1.06 9.81 0.01 0.05 -0.07 375
1.63 -0.06 0.46 -1.05 9.77 0.01 0.05 -0.07 382
1.63 -0.07 0.45 -1.04 9.80 0.01 0.05 -0.08 390
1.63 -0.08 0.48 -1.07 9.80 0.01 0.05 -0.07 397
1.62 -0.07 0.46 -1.09 9.81 0.02 0.05 -0.08 404
1.61 -0.06 0.47 -1.08 9.81 0.01 0.05 -0.07 411
1.60 -0.05 0.49 -1.07 9.77 0.01 0.04 -0.07 418
1.60 -0.06 0.47 -1.07 10.39 0.01 0.04 -0.08 425
1.59 -0.06 0.46 -1.10 9.76 0.01 0.04 -0.08 433
1.57 -0.07 0.48 -1.10 9.81 0.01 0.04 -0.08 440
1.55 -0.06 0.45 -1.09 9.80 0.00 0.03 -0.08 447
1.52 -0.06 0.48 -1.13 9.80 0.01 0.03 -0.07 454
1.49 -0.04 0.44 -1.09 10.41 0.00 0.03 -0.08 461
1.45 -0.05 0.43 -1.11 9.78 0.00 0.03 -0.07 468
1.39 -0.05 0.44 -1.13 9.80 -0.00 0.04 -0.07 476
1.32 -0.06 0.42 -1.11 9.74 -0.01 0.04 -0.07 483
1.18 -0.04 0.43 -1.13 9.81 -0.02 0.05 -0.07 490
1.09 -0.04 0.43 -1.09 9.77 -0.02 0.05 -0.06 497
0.93 -0.02 0.48 -1.08 9.80 -0.02 0.04 -0.06 504
0.87 -0.03 0.46 -1.08 9.80 -0.02 0.04 -0.06 512
0.75 -0.03 0.44 -1.09 9.78 -0.03 0.04 -0.06 519
0.69 -0.04 0.44 -1.11 9.80 -0.03 0.04 -0.05 526
0.60 -0.03 0.44 -1.08 9.80 -0.03 0.04 -0.05 533
0.52 -0.01 0.42 -1.06 9.77 -0.03 0.04 -0.06 540
0.45 -0.01 0.46 -1.02 9.78 -0.03 0.04 -0.05 547
0.38 -0.01 0.42 -1.06 9.78 -0.02 0.04 -0.05 555
0.34 -0.01 0.44 -1.07 9.79 -0.02 0.04 -0.05 562
0.24 -0.01 0.44 -1.06 9.79 -0.02 0.04 -0.05 569
0.18 0.00 0.42 -1.04 9.82 -0.01 0.04 -0.06 576
0.18 0.02 0.44 -1.04 9.80 -0.01 0.04 -0.06 583
0.15 0.01 0.45 -1.02 9.81 -0.00 0.04 -0.05 590
0.13 0.01 0.44 -1.05 9.78 0.00 0.04 -0.05 598
0.10 0.00 0.40 -1.03 9.82 0.00 0.04 -0.05 605
0.10 -0.01 0.47 -1.02 9.71 -0.00 0.05 -0.05 612
0.13 0.00 0.43 -1.03 9.79 0.01 0.05 -0.06 619
0.09 0.02 0.44 -1.02 9.78 0.00 0.05 -0.05 626
0.11 0.01 0.43 -1.03 9.75 0.00 0.04 -0.05 633
0.09 0.01 0.42 -1.04 9.80 0.00 0.04 -0.05 641
0.08 -0.01 0.41 -1.03 9.75 0.01 0.04 -0.05 648
0.06 0.00 0.35 -1.01 9.76 -0.00 0.05 -0.05 655
0.08 0.01 0.39 -1.01 9.77 0.00 0.05 -0.05 662
0.08 0.02 0.42 -1.05 9.78 -0.00 0.05 -0.05 669
0.09 0.01 0.40 -1.04 9.78 -0.00 0.05 -0.05 676
0.05 0.01 0.41 -1.06 9.76 -0.00 0.05 -0.05 684
0.05 0.00 0.46 -1.07 9.75 -0.01 0.05 -0.05 691
0.03 0.01 0.40 -1.07 9.72 -0.01 0.05 -0.05 698
0.03 0.01 0.46 -1.03 9.77 -0.01 0.05 -0.05 705
0.04 0.02 0.45 -1.03 9.78 -0.01 0.05 -0.05 712
0.04 0.02 0.40 -1.04 9.80 -0.01 0.05 -0.05 719
0.03 0.01 0.49 -0.99 9.81 -0.01 0.05 -0.05 727
0.04 -0.00 0.42 -1.05 9.78 -0.01 0.05 -0.05 734
0.02 0.02 0.42 -1.05 9.79 -0.01 0.05 -0.05 741
0.03 0.01 0.46 -1.04 9.80 -0.01 0.05 -0.05 748
0.03 0.02 0.43 -1.05 9.79 -0.01 0.05 -0.05 755
0.03 0.01 0.45 -1.05 9.83 -0.01 0.05 -0.05 762
0.03 0.02 0.41 -1.09 9.78 -0.01 0.05 -0.05 770
0.03 0.01 0.45 -1.06 9.81 -0.02 0.05 -0.04 777
0.01 0.01 0.43 -1.06 9.77 -0.02 0.05 -0.05 784
0.03 0.02 0.42 -1.06 9.80 -0.02 0.05 -0.05 791
0.04 0.02 0.39 -1.03 9.79 -0.03 0.06 -0.05 798
0.02 0.01 0.37 -1.09 9.81 -0.03 0.06 -0.05 805
0.02 0.01 0.29 -1.06 9.81 -0.03 0.06 -0.06 813
0.04 0.01 0.29 -1.01 9.71 -0.04 0.05 -0.08 820
0.02 0.01 0.51 -1.00 9.75 -0.04 0.05 -0.08 827
0.03 0.02 0.47 -1.03 9.72 -0.04 0.07 -0.07 834
0.04 0.02 0.51 -1.04 9.76 -0.04 0.07 -0.07 841
0.03 0.01 0.43 -1.03 9.81 -0.04 0.07 -0.06 848
0.01 0.00 0.45 -1.06 9.84 -0.05 0.08 -0.06 856
0.02 0.01 0.36 -1.02 9.79 -0.07 0.09 -0.06 863
0.02 0.02 0.33 -1.02 9.80 -0.07 0.09 -0.07 870
0.02 0.05 0.43 -1.03 9.77 -0.07 0.10 -0.07 877
0.03 0.05 0.45 -1.03 9.72 -0.08 0.10 -0.08 884
0.02 0.04 0.53 -0.98 9.71 -0.07 0.11 -0.08 891
0.01 0.05 0.55 -0.95 9.69 -0.06 0.10 -0.08 899
-0.00 0.05 0.52 -0.93 9.62 -0.04 0.09 -0.08 906
0.01 0.08 0.53 -0.94 9.60 -0.02 0.08 -0.07 913
0.01 0.09 0.53 -0.91 9.61 -0.01 0.07 -0.07 920
0.01 0.09 0.52 -0.90 9.61 0.01 0.07 -0.07 927
0.01 0.11 0.52 -0.99 9.87 0.01 0.10 -0.07 934
0.01 0.13 0.52 -0.98 9.82 -0.00 0.06 -0.07 942
0.00 0.08 0.51 -1.01 9.78 -0.02 0.07 -0.06 949
0.02 0.11 0.46 -0.95 9.67 -0.02 0.06 -0.06 956
0.01 0.13 0.55 -0.93 9.71 -0.02 0.04 -0.07 963
0.01 0.14 0.53 -0.98 9.69 -0.02 0.02 -0.07 970
-0.01 0.19 0.52 -0.95 9.75 -0.01 0.01 -0.07 977
-0.01 0.21 0.48 -0.94 9.71 0.01 0.00 -0.06 985
-0.02 0.26 0.54 -0.94 9.85 0.01 0.00 -0.06 992
-0.00 0.24 0.49 -0.97 9.80 -0.01 -0.01 -0.06 999
0.00 0.27 0.51 -0.93 9.78 -0.02 -0.01 -0.06 1006
-0.00 0.29 0.46 -0.97 9.75 -0.03 0.00 -0.06 1013
-0.01 0.33 0.43 -1.02 9.81 -0.04 0.02 -0.06 1020
-0.02 0.30 0.41 -0.97 9.76 -0.05 0.02 -0.05 1028
-0.01 0.31 0.50 -0.97 9.78 -0.06 0.03 -0.06 1035
-0.02 0.46 0.46 -0.99 9.82 -0.06 0.03 -0.05 1042
-0.01 0.45 0.43 -0.97 9.82 -0.06 0.04 -0.05 1049
-0.02 0.55 0.43 -0.95 9.80 -0.07 0.04 -0.05 1056
-0.02 0.52 0.51 -0.94 9.79 -0.06 0.04 -0.05 1063
-0.04 0.64 0.45 -0.92 9.77 -0.06 0.04 -0.05 1071
-0.04 0.64 0.48 -0.92 9.81 -0.05 0.04 -0.05 1078
-0.03 0.66 0.19 -1.06 9.78 -0.04 0.04 -0.05 1085
-0.02 0.71 0.59 -0.95 9.82 -0.04 0.05 -0.06 1092
-0.03 0.67 0.51 -0.94 9.81 -0.04 0.05 -0.05 1099
-0.03 0.67 0.48 -0.93 9.80 -0.03 0.06 -0.05 1106
-0.06 0.76 0.50 -0.92 9.82 -0.03 0.06 -0.06 1114
-0.05 0.76 0.50 -0.91 9.81 -0.03 0.05 -0.06 1121
-0.05 0.80 0.52 -0.91 9.81 -0.03 0.06 -0.06 1128
-0.05 0.84 0.50 -0.90 9.80 -0.02 0.05 -0.06 1135
-0.06 0.82 0.51 -0.92 9.76 -0.02 0.05 -0.07 1142
-0.05 0.90 0.49 -0.90 9.80 -0.02 0.05 -0.06 1149
-0.06 0.88 0.47 -0.94 9.74 -0.02 0.05 -0.07 1157
-0.05 0.88 0.51 -0.93 9.79 -0.02 0.04 -0.06 1164
-0.05 0.96 0.51 -0.89 9.82 -0.02 0.05 -0.06 1171
-0.06 0.96 0.51 -0.88 9.80 -0.01 0.05 -0.06 1178
-0.05 0.94 0.48 -0.88 9.81 -0.01 0.05 -0.06 1185
-0.04 0.91 0.51 -0.91 9.76 -0.01 0.04 -0.06 1192
-0.04 0.89 0.51 -0.91 10.38 -0.01 0.04 -0.06 1200
-0.04 0.89 0.51 -0.91 9.76 -0.01 0.04 -0.06 1207
-0.03 0.89 0.50 -0.91 9.78 -0.01 0.03 -0.06 1214
-0.04 0.91 0.52 -0.89 9.80 -0.00 0.03 -0.07 1221
-0.04 0.91 0.49 -0.91 9.76 0.00 0.02 -0.06 1228
-0.05 0.90 0.49 -0.89 9.74 0.00 0.02 -0.07 1235
-0.04 0.93 0.52 -0.93 9.81 -0.00 0.01 -0.06 1243
-0.04 0.90 0.47 -0.94 9.74 0.00 0.01 -0.07 1250
-0.02 0.89 0.47 -0.92 9.81 -0.00 0.02 -0.06 1257
-0.04 0.90 0.46 -0.92 9.81 -0.00 0.03 -0.06 1264
-0.03 0.90 0.51 -0.94 9.74 -0.00 0.02 -0.06 1271
-0.04 0.89 0.49 -0.91 9.75 0.00 0.03 -0.06 1278
-0.04 0.89 0.51 -0.92 9.77 -0.00 0.03 -0.06 1286
-0.04 0.91 0.48 -0.91 10.37 0.00 0.02 -0.06 1293
-0.02 0.91 0.47 -0.89 9.79 0.00 0.02 -0.06 1300
-0.03 0.93 0.46 -0.92 9.79 0.00 0.02 -0.06 1307
-0.03 0.90 0.45 -0.91 9.78 0.00 0.02 -0.06 1314
-0.06 0.89 0.46 -0.92 9.75 0.00 0.03 -0.06 1321
-0.05 0.87 0.48 -0.91 9.79 0.00 0.03 -0.06 1329
-0.05 0.87 0.48 -0.91 9.79 0.01 0.03 -0.06 1336
-0.05 0.87 0.51 -0.94 9.77 0.01 0.02 -0.07 1343
-0.05 0.85 0.49 -0.94 9.76 0.02 0.01 -0.06 1350
-0.05 0.83 0.50 -0.92 9.74 0.02 0.00 -0.06 1357
-0.06 0.83 0.50 -0.91 9.78 0.02 -0.01 -0.06 1364
-0.05 0.85 0.46 -0.94 9.77 0.02 -0.01 -0.07 1372
-0.05 0.84 0.44 -0.94 9.81 0.02 -0.00 -0.07 1379
-0.03 0.82 0.45 -0.94 9.78 0.01 -0.00 -0.07 1386
-0.05 0.79 0.43 -0.93 9.76 0.01 0.01 -0.07 1393
-0.03 0.76 0.44 -0.94 9.81 0.01 0.01 -0.07 1400
-0.02 0.76 0.42 -0.95 9.81 0.00 0.01 -0.07 1408
-0.01 0.75 0.41 -0.97 9.82 0.00 0.01 -0.07 1415
0.01 0.72 0.41 -0.97 9.82 -0.00 0.02 -0.07 1422
-0.01 0.70 0.43 -0.94 9.77 -0.00 0.02 -0.07 1429
-0.00 0.66 0.42 -0.94 9.80 0.00 0.02 -0.07 1436
0.01 0.64 š3 -0.95 9.76 0.00 0.02 -0.07 1443
Ã0 0.66 -0.92 9.80 0.00 0.02 -0.07 1451
æ1 0.62 jþ0.97 9.76 0.00 0.03 -0.07 1458
æ2 0.60 -0.97 9.80 0.00 0.03 -0.07 1465
÷2 0.55 ƒ-0.96 9.80 -0.00 0.02 -0.07 1472
æ1 0.50 -0.97 9.79 0.00 0.03 -0.07 1479
æ3 0.49 -0.96 9.80 0.00 0.03 -0.07 1486
æ4 0.51 &jþ0.95 9.76 0.00 0.03 -0.07 1494
æ3 0.49 &jþ0.96 9.82 0.00 0.03 -0.07 1501
æ4 0.47 jþ0.95 9.77 0.01 0.03 -0.07 1508
æ6 0.45 -0.97 9.81 0.00 0.03 -0.07 1515
æ7 0.43 -0.94 9.80 0.01 0.03 -0.07 1522
æ9 0.44 -0.96 9.78 0.01 0.03 -0.07 1529
ó3 0.43 -0.94 9.79 0.01 0.03 -0.07 1537
0.13 0.41 0.41 -0.96 9.77 0.01 0.02 -0.07 1544
Å7 0.38 ÿ™jþ0.96 10.38 0.01 0.02 -0.07 1551
Ì7 0.33 &jþ0.98 9.82 0.01 0.02 -0.07 1558
™1 0.31 ˜jþ0.99 9.76 0.01 0.03 -0.07 1565
™1 0.28 ™jþ0.95 9.79 0.02 0.02 -0.07 1572
™3 0.27 ÿLjþ0.99 9.77 0.01 0.03 -0.07 1580
™5 0.25 njþ1.01 9.78 0.02 0.03 -0.07 1587
™7 0.22 jþ0.97 9.77 0.02 0.03 -0.07 1594
™8 0.17 ojþ0.96 9.82 0.01 0.03 -0.07 1601
æ2 0.13 -0.99 9.80 0.02 0.03 -0.08 1608
™9 0.12 -1.00 9.82 0.02 0.03 -0.08 1615
æ0 0.08 Njþ0.98 9.77 0.03 0.03 -0.08 1623
ó8 0.05 Njþ1.00 9.80 0.02 0.03 -0.07 1630
ó7 0.03 Njþ0.96 9.78 0.02 0.03 -0.07 1637
ó9 0.00 0.38 -1.01 9.80 0.02 0.03 -0.07 1644
¢þ1 0.01 &jþ1.00 9.81 0.02 0.03 -0.07 1651
ó0 0.00 -1.00 9.78 0.02 0.03 -0.07 1658
þ0 0.02  -1.00 9.80 0.02 0.03 -0.08 1666
þ2þ0.01 -1.00 9.79 0.02 0.03 -0.08 1673
þ4 0.01 HË1.00 9.82 0.02 0.03 -0.08 1680
ó5 -0.00 -0.97 9.81 0.02 0.03 -0.08 1687
ó4 -0.02 -0.99 9.81 0.03 0.03 -0.08 1694
ó7 -0.02 jþ1.01 9.80 0.03 0.03 -0.08 1701
ó7 -0.01 jþ1.01 9.82 0.03 0.03 -0.08 1709
þ9 -0.01 ØË1.03 9.80 0.02 0.03 -0.08 1716
þ8 -0.02 Ë1.01 9.80 0.03 0.03 -0.08 1723
þ7 -0.03 ƒ-1.05 9.81 0.03 0.03 -0.08 1730
ó5 -0.02 jþ1.04 9.81 0.03 0.04 -0.08 1737
ó5 -0.02 -1.07 9.79 0.03 0.04 -0.08 1744
0.45 -0.01 Ñ2 -1.07 9.74 0.02 0.03 -0.08 1752
0.42 -0.01 0.42 -1.07 9.77 0.02 0.03 -0.08 1759
0.38 -0.01 0.38 -1.06 9.77 0.01 0.04 -0.08 1766
0.35 -0.03 0.40 -1.06 9.78 0.00 0.04 -0.08 1773
0.28 -0.01 0.40 -1.08 9.75 -0.00 0.04 -0.07 1780
0.25 -0.01 0.42 -1.03 9.77 -0.01 0.04 -0.08 1787
0.23 0.00 0.39 -1.05 9.79 -0.02 0.04 -0.07 1795
0.22 -0.00 0.41 -1.05 9.79 -0.02 0.05 -0.07 1802
0.18 0.00 0.38 -1.04 10.41 -0.02 0.05 -0.07 1809
0.18 -0.00 0.40 -0.99 9.80 -0.02 0.05 -0.07 1816
0.14 0.01 0.39 -1.00 9.82 -0.01 0.05 -0.07 1823
0.14 0.01 0.39 -1.02 9.81 -0.01 0.05 -0.07 1830
0.12 0.02 0.37 -1.03 9.81 -0.01 0.05 -0.08 1838
0.09 0.02 0.41 -1.02 9.80 -0.00 0.05 -0.07 1845
0.07 0.03 0.41 -1.02 9.78 0.01 0.05 -0.07 1852
0.06 0.04 0.41 -1.02 9.76 0.01 0.05 -0.07 1859
0.07 0.04 0.43 -1.03 9.81 0.02 0.06 -0.07 1866
0.07 0.05 0.39 -1.05 9.81 0.01 0.05 -0.07 1873
0.06 0.04 0.41 -1.03 9.82 0.01 0.06 -0.07 1881
0.06 0.03 0.38 -1.02 9.79 0.02 0.05 -0.07 1888
0.06 0.02 0.42 -1.05 9.79 0.02 0.05 -0.07 1895
0.04 0.01 0.45 -1.02 9.80 0.02 0.05 -0.07 1902
0.05 0.01 0.42 -1.04 9.82 0.02 0.05 -0.07 1909
0.04 0.03 0.40 -1.06 9.80 0.02 0.05 -0.07 1916
0.05 0.00 0.43 -1.02 9.80 0.01 0.05 -0.07 1924
0.04 0.02 0.35 -1.06 9.76 0.01 0.05 -0.07 1931
0.04 0.00 0.39 -1.08 9.77 0.02 0.05 -0.06 1938
0.05 0.00 0.36 -1.05 9.75 0.01 0.05 -0.06 1945
0.06 0.01 0.40 -1.06 9.76 0.01 0.05 -0.06 1952
0.05 0.02 0.37 -1.07 9.77 0.01 0.05 -0.06 1959
0.07 0.02 0.41 -1.03 9.76 0.01 0.05 -0.06 1967
0.06 0.02 0.41 -1.04 9.79 0.01 0.05 -0.06 1974
0.04 -0.00 0.41 -1.08 9.72 0.01 0.05 -0.06 1981
0.05 0.01 0.37 -1.09 9.75 0.00 0.06 -0.06 1988
0.06 0.02 0.40 -1.04 9.80 -0.00 0.05 -0.06 1995
0.05 0.03 0.39 -1.03 9.76 -0.00 0.06 -0.05 2002
0.04 0.02 0.35 -1.03 9.81 -0.00 0.06 -0.06 2010
0.04 0.02 0.37 -1.04 9.79 -0.01 0.06 -0.05 2017
0.02 0.02 0.41 -1.07 9.77 -0.01 0.06 -0.05 2024
0.02 0.02 0.40 -1.02 9.78 -0.00 0.06 -0.05 2031
0.01 0.03 0.41 -1.06 9.81 -0.01 0.05 -0.05 2038
0.03 0.03 0.40 -1.09 9.77 -0.01 0.05 -0.05 2045
0.01 0.02 0.39 -1.08 9.78 -0.01 0.05 -0.05 2053
0.00 0.01 0.38 -1.08 9.80 -0.01 0.05 -0.05 2060
0.01 0.01 0.42 -1.04 9.80 -0.01 0.05 -0.05 2067
0.01 0.02 0.42 -1.04 9.82 -0.01 0.05 -0.05 2074
0.03 0.03 0.38 -1.10 9.75 -0.01 0.04 -0.06 2081
0.03 0.02 0.39 -1.03 9.76 -0.01 0.05 -0.05 2088
0.02 0.02 0.40 -1.08 9.76 -0.01 0.04 -0.05 2096
0.02 0.02 0.45 -1.05 9.79 -0.02 0.04 -0.05 2103
-0.00 0.03 0.40 -1.09 9.77 -0.02 0.04 -0.05 2110
0.01 0.03 0.42 -1.04 9.78 -0.02 0.04 -0.05 2117
-0.00 0.04 0.39 -1.07 9.79 -0.02 0.04 -0.05 2124
0.02 0.03 0.40 -1.06 9.79 -0.02 0.04 -0.05 2131
0.00 0.03 0.41 -1.05 9.74 -0.02 0.04 -0.05 2139
-0.00 0.01 0.38 -1.04 9.80 -0.02 0.05 -0.05 2146
-0.00 0.02 0.40 -1.06 9.71 -0.02 0.04 -0.05 2153
-0.00 0.02 0.38 -1.04 9.75 -0.02 0.05 -0.05 2160
0.01 0.04 0.38 -1.04 9.78 -0.02 0.05 -0.06 2167
0.01 0.05 0.40 -1.05 9.77 -0.02 0.04 -0.05 2174
0.01 0.05 0.43 -1.05 9.78 -0.02 0.05 -0.05 2182
0.01 0.04 0.43 -1.03 9.78 -0.02 0.05 -0.05 2189
0.01 0.04 0.41 -1.05 9.78 -0.02 0.05 -0.05 2196
0.01 0.04 0.43 -1.03 9.76 -0.02 0.05 -0.05 2203
0.03 0.07 0.43 -1.02 9.78 -0.02 0.05 -0.05 2210
0.02 0.09 0.44 -1.04 9.77 -0.03 0.05 -0.06 2217
0.02 0.09 0.40 -1.00 9.76 -0.02 0.05 -0.05 2225
-0.00 0.09 0.40 -1.02 9.76 -0.03 0.06 -0.05 2232
0.00 0.13 0.41 -1.01 9.78 -0.02 0.06 -0.05 2239
0.00 0.13 0.40 -1.07 9.78 -0.03 0.06 -0.05 2246
0.00 0.15 0.41 -1.02 9.79 -0.03 0.06 -0.05 2253
-0.01 0.15 0.41 -1.03 9.79 -0.03 0.06 -0.05 2260
-0.00 0.17 0.44 -1.01 9.78 -0.03 0.06 -0.06 2268
-0.02 0.17 0.42 -1.00 9.79 -0.03 0.06 -0.05 2275
-0.00 0.17 0.37 -1.01 9.80 -0.03 0.06 -0.05 2282
0.00 0.18 0.38 -1.02 9.79 -0.03 0.06 -0.05 2289
0.00 0.19 0.43 -1.01 9.80 -0.03 0.06 -0.05 2296
-0.01 0.19 0.42 -1.01 9.81 -0.04 0.06 -0.05 2304
-0.02 0.20 0.42 -1.00 9.78 -0.03 0.06 -0.06 2311
-0.03 0.28 0.42 -0.99 9.75 -0.04 0.07 -0.06 2318
-0.03 0.31 0.41 -0.97 9.80 -0.04 0.07 -0.05 2325
-0.03 0.32 0.40 -0.99 9.79 -0.05 0.08 -0.05 2332
-0.02 0.34 0.40 -0.95 9.79 -0.05 0.09 -0.05 2339
-0.02 0.34 0.44 -0.99 9.79 -0.05 0.10 -0.05 2347
-0.03 0.37 0.39 -1.01 9.81 -0.06 0.11 -0.05 2354
-0.04 0.35 0.40 -0.96 9.82 -0.06 0.12 -0.05 2361
-0.02 0.35 0.47 -0.93 9.81 -0.06 0.13 -0.05 2368
-0.03 0.33 0.47 -0.96 9.83 -0.05 0.14 -0.04 2375
-0.02 0.35 0.48 -0.93 9.82 -0.06 0.16 -0.04 2382
-0.03 0.43 0.48 -0.98 9.82 -0.06 0.17 -0.04 2390
-0.03 0.41 0.55 -0.98 9.76 -0.06 0.17 -0.04 2397
-0.04 0.52 0.54 -0.91 9.80 -0.05 0.16 -0.04 2404
-0.03 0.48 0.47 -0.91 9.75 -0.05 0.15 -0.04 2411
-0.03 0.54 0.52 -0.91 10.34 -0.05 0.14 -0.04 2418
-0.03 0.55 0.68 -0.94 9.72 -0.04 0.12 -0.04 2425
-0.03 0.59 0.59 -0.93 9.75 -0.04 0.12 -0.04 2433
-0.04 0.58 0.59 -0.94 9.76 -0.05 0.12 -0.05 2440
-0.04 0.58 0.58 -0.94 9.75 -0.04 0.11 -0.05 2447
-0.04 0.64 0.54 -0.85 9.75 -0.03 0.10 -0.05 2454
-0.03 0.71 0.56 -0.91 9.78 -0.03 0.10 -0.05 2461
-0.04 0.73 0.52 -0.90 9.76 -0.03 0.09 -0.05 2468
-0.05 0.68 0.52 -0.90 9.73 -0.03 0.08 -0.05 2476
-0.05 0.74 0.60 -0.89 9.76 -0.03 0.08 -0.05 2483
-0.05 0.75 0.66 -0.92 9.72 -0.02 0.07 -0.05 2490
-0.05 0.80 0.58 -0.88 9.80 -0.02 0.06 -0.05 2497
-0.04 0.82 0.61 -0.89 9.70 -0.01 0.06 -0.05 2504
-0.04 0.78 0.58 -0.88 9.71 -0.01 0.04 -0.06 2511
-0.05 0.75 0.61 -0.88 9.74 -0.00 0.02 -0.06 2519
-0.06 0.78 0.53 -0.88 9.79 -0.00 0.01 -0.06 2526
-0.05 0.85 0.57 -0.91 9.76 0.00 -0.00 -0.06 2533
-0.05 0.85 0.58 -0.88 9.76 0.00 -0.01 -0.06 2540
-0.04 0.89 0.50 -0.92 9.78 0.01 -0.01 -0.06 2547
-0.05 0.90 0.50 -0.91 9.81 0.01 0.00 -0.05 2554
-0.05 0.88 0.52 -0.92 9.83 -0.00 0.02 -0.05 2562
-0.06 0.90 0.51 -0.94 9.81 -0.00 0.03 -0.05 2569
-0.06 0.91 0.50 -0.93 9.76 -0.00 0.03 -0.05 2576
-0.05 0.89 0.51 -0.89 9.77 -0.00 0.04 -0.05 2583
-0.04 0.90 0.53 -0.90 9.78 -0.00 0.04 -0.05 2590
-0.05 0.91 0.53 -0.88 9.77 -0.00 0.04 -0.05 2597
-0.05 0.88 0.54 -0.89 9.75 -0.00 0.04 -0.05 2605
-0.05 0.88 0.51 -0.90 9.78 -0.00 0.04 -0.05 2612
-0.05 0.87 0.54 -0.85 9.77 0.00 0.04 -0.05 2619
-0.04 0.86 0.53 -0.89 9.78 0.00 0.03 -0.05 2626
-0.05 0.86 0.54 -0.89 9.79 0.00 0.03 -0.05 2633
-0.05 0.86 0.55 -0.87 9.78 0.00 0.03 -0.05 2640
-0.05 0.84 0.54 -0.90 9.79 0.00 0.02 -0.05 2648
-0.05 0.84 0.52 -0.89 9.77 0.00 0.01 -0.05 2655
-0.05 0.85 0.53 -0.92 9.77 0.01 0.02 -0.05 2662
-0.03 0.83 0.49 -0.90 9.80 0.00 0.01 -0.05 2669
-0.04 0.81 0.52 -0.89 9.76 -0.00 0.01 -0.05 2676
-0.05 0.82 0.51 -0.91 9.75 0.00 0.01 -0.04 2683
-0.05 0.82 0.51 -0.90 9.74 0.00 0.01 -0.05 2691
-0.04 0.81 0.55 -0.91 9.80 0.01 0.02 -0.05 2698
-0.05 0.82 0.54 -0.91 9.77 0.00 0.02 -0.05 2705
-0.04 0.79 0.50 -0.90 9.80 0.00 0.02 -0.05 2712
-0.04 0.77 0.49 -0.93 9.78 -0.00 0.02 -0.05 2719
-0.05 0.76 0.52 -0.91 9.75 -0.00 0.02 -0.04 2726
-0.05 0.76 0.48 -0.91 9.77 -0.00 0.02 -0.05 2734
-0.04 0.76 0.51 -0.90 9.75 -0.03 0.01 -0.05 2741
-0.04 0.74 0.52 -0.89 9.71 0.00 0.01 -0.05 2748
-0.03 0.72 0.52 -0.91 9.80 0.00 0.01 -0.05 2755
-0.05 0.72 0.55 -0.91 9.79 0.00 0.01 -0.05 2762
-0.04 0.68 0.50 -0.96 10.40 0.00 0.01 -0.05 2769
-0.05 0.70 0.50 -0.90 9.78 0.00 0.01 -0.05 2777
-0.04 0.70 0.54 -0.93 9.79 -0.00 0.01 -0.05 2784
-0.04 0.71 0.50 -0.89 9.79 -0.00 0.01 -0.05 2791
-0.04 0.71 0.48 -0.92 9.77 -0.00 0.02 -0.05 2798
-0.05 0.70 0.46 -0.88 9.77 0.00 0.02 -0.05 2805
-0.02 0.67 0.49 -0.92 9.81 0.00 0.02 -0.05 2812
-0.03 0.68 0.48 -0.95 9.79 0.00 0.02 -0.05 2820
-0.02 0.67 0.49 -0.92 9.76 0.00 0.02 -0.05 2827
-0.02 0.65 0.46 -0.92 9.76 0.01 0.02 -0.05 2834
-0.04 0.62 0.46 -0.92 9.81 0.01 0.02 -0.05 2841
-0.04 0.60 0.53 -0.91 9.80 0.00 0.02 -0.05 2848
-0.03 0.59 0.46 -0.89 9.79 0.00 0.02 -0.06 2855
-0.04 0.60 0.51 -0.94 9.80 0.00 0.01 -0.05 2863
-0.04 0.63 0.53 -0.95 9.76 0.01 0.01 -0.05 2870
-0.02 0.59 0.50 -0.93 9.81 0.01 0.01 -0.06 2877
0.01 0.58 0.50 -0.93 9.78 0.01 0.01 -0.06 2884
0.03 0.52 0.52 -0.92 9.78 0.01 0.01 -0.06 2891
0.02 0.52 0.49 -0.91 9.78 0.01 0.01 -0.06 2898
-0.01 0.48 0.47 -0.94 9.78 0.01 0.00 -0.06 2906
0.01 0.49 0.50 -0.91 9.81 0.01 -0.00 -0.06 2913
0.01 0.51 0.46 -0.97 9.81 0.01 0.00 -0.06 2920
-0.00 0.46 0.47 -0.97 9.80 0.01 0.01 -0.06 2927
0.01 0.46 0.45 -0.95 9.78 0.01 0.00 -0.07 2934
0.02 0.42 0.47 -0.97 9.77 0.01 0.00 -0.06 2941
0.04 0.39 0.49 -0.96 9.81 0.00 0.01 -0.07 2949
0.03 0.39 0.46 -0.97 9.81 0.00 0.02 -0.07 2956
0.06 0.37 0.43 -0.96 9.77 0.01 0.02 -0.07 2963
0.06 0.37 0.43 -0.97 9.79 0.01 0.02 -0.07 2970
0.08 0.34 0.47 -0.94 9.79 0.01 0.02 -0.07 2977
0.08 0.30 0.44 -0.95 9.81 0.01 0.02 -0.07 2984
0.11 0.30 0.45 -0.93 9.80 0.01 0.03 -0.06 2992
0.12 0.27 0.44 -0.97 9.81 0.01 0.03 -0.07 2999
0.15 0.23 0.46 -0.95 9.79 0.01 0.03 -0.06 3006
0.16 0.19 0.45 -0.97 9.80 0.01 0.03 -0.07 3013
0.15 0.17 0.44 -0.99 9.78 0.01 0.03 -0.06 3020
0.13 0.17 0.47 -1.01 9.80 0.02 0.03 -0.07 3027
0.16 0.17 0.43 -0.97 9.80 0.01 0.03 -0.07 3035
0.18 0.12 0.43 -0.98 9.75 0.01 0.03 -0.07 3042
0.18 0.12 0.45 -1.01 9.77 0.01 0.03 -0.07 3049
0.19 0.08 0.46 -0.98 9.77 0.01 0.03 -0.06 3056
0.20 0.08 0.47 -0.97 9.20 0.01 0.04 -0.06 3063
0.22 0.05 0.46 -0.99 9.80 0.01 0.03 -0.07 3070
0.23 0.02 0.44 -1.00 9.80 0.01 0.04 -0.07 3078
0.27 0.04 0.47 -0.98 9.79 0.01 0.03 -0.07 3085
0.25 0.02 0.43 -1.03 9.80 0.01 0.03 -0.07 3092
0.26 0.01 0.49 -1.00 9.77 0.01 0.03 -0.07 3099
0.26 -0.01 0.45 -1.01 9.79 0.01 0.03 -0.07 3106
0.27 0.02 0.46 -0.97 9.77 0.01 0.03 -0.07 3113
0.28 0.01 0.47 -1.00 9.78 0.01 0.04 -0.07 3121
0.29 0.00 0.46 -0.99 9.79 0.00 0.04 -0.07 3128
0.29 -0.01 0.43 -1.02 9.80 0.01 0.04 -0.07 3135
0.29 -0.01 0.49 -1.01 9.77 0.01 0.04 -0.07 3142
0.28 0.01 0.45 -1.01 9.82 0.01 0.04 -0.06 3149
0.28 0.01 0.43 -0.99 9.77 0.01 0.04 -0.07 3156
0.30 -0.00 0.46 -1.01 9.76 0.00 0.03 -0.07 3164
0.32 -0.01 0.46 -0.98 9.78 0.01 0.04 -0.07 3171
0.32 -0.01 0.46 -0.99 9.77 0.01 0.04 -0.07 3178
0.32 -0.02 0.45 -1.02 9.76 0.01 0.03 -0.07 3185
0.32 -0.01 0.42 -1.02 9.77 0.01 0.03 -0.07 3192
0.33 -0.01 0.45 -1.01 9.80 0.01 0.03 -0.07 3200
0.33 -0.00 0.46 -1.02 9.77 0.01 0.03 -0.07 3207
0.34 -0.01 0.43 -1.02 9.78 0.01 0.03 -0.08 3214
0.34 -0.01 0.49 -1.03 9.77 0.01 0.03 -0.07 3221
0.35 -0.01 0.47 -1.02 9.80 0.00 0.03 -0.07 3228
0.36 0.01 0.44 -1.01 9.79 0.01 0.03 -0.07 3235
0.39 0.00 0.48 -0.99 9.80 0.01 0.03 -0.07 3243
0.41 -0.00 0.44 -1.00 9.81 0.01 0.03 -0.07 3250
0.42 0.00 0.44 -1.03 9.78 0.01 0.03 -0.07 3257
0.42 -0.00 0.42 -1.03 9.75 0.01 0.03 -0.07 3264
0.42 -0.02 0.43 -1.03 9.78 0.01 0.03 -0.07 3271
0.43 -0.01 0.43 -1.03 9.77 0.01 0.02 -0.07 3278
0.44 -0.01 0.42 -1.05 9.20 0.01 0.02 -0.07 3286
0.46 -0.01 0.39 -1.02 9.79 0.01 0.02 -0.07 3293
0.48 -0.01 0.45 -1.04 9.84 0.01 0.02 -0.08 3300
0.49 -0.02 0.41 -1.01 9.77 0.01 0.02 -0.08 3307
0.49 -0.01 0.42 -1.05 9.77 0.01 0.02 -0.08 3314
0.48 -0.01 0.42 -1.01 9.81 0.01 0.02 -0.08 3321
0.52 -0.01 0.43 -1.04 9.76 0.01 0.02 -0.08 3329
0.53 -0.01 0.40 -1.03 9.81 0.01 0.02 -0.08 3336
0.54 -0.02 0.41 -1.09 9.80 0.00 0.02 -0.08 3343
0.53 -0.02 0.44 -1.05 9.80 0.01 0.02 -0.08 3350
0.53 -0.02 0.45 -1.06 9.75 0.00 0.01 -0.08 3357
0.57 -0.02 0.42 -1.09 9.82 0.00 0.01 -0.08 3364
0.58 -0.01 0.45 -1.03 9.81 0.00 0.01 -0.08 3372
0.58 -0.02 0.44 -1.03 9.81 0.00 0.01 -0.09 3379
0.58 -0.03 0.42 -1.06 9.80 0.00 0.01 -0.08 3386
0.59 -0.04 0.45 -1.04 9.78 0.00 0.02 -0.08 3393
0.59 -0.03 0.40 -1.08 9.76 0.00 0.02 -0.08 3400
0.60 -0.03 0.35 -1.04 9.77 0.00 0.02 -0.08 3407
0.61 -0.02 0.40 -1.04 9.79 -0.00 0.02 -0.08 3415
0.63 -0.03 0.43 -1.05 9.81 -0.00 0.02 -0.08 3422
0.64 -0.03 0.42 -1.06 9.77 -0.00 0.02 -0.08 3429
0.65 -0.03 0.40 -1.06 9.81 -0.00 0.02 -0.08 3436
0.65 -0.03 0.41 -1.05 9.80 -0.00 0.02 -0.08 3443
0.66 -0.02 0.38 -1.09 9.77 -0.00 0.02 -0.07 3450
0.68 -0.03 0.40 -1.07 9.78 -0.00 0.02 -0.08 3458
0.68 -0.03 0.40 -1.08 9.79 0.00 0.03 -0.08 3465
0.68 -0.03 0.39 -1.08 9.80 0.00 0.02 -0.08 3472
0.66 -0.03 0.40 -1.03 9.82 0.00 0.02 -0.08 3479
0.67 -0.03 0.38 -1.08 9.81 0.00 0.03 -0.08 3486
0.67 -0.02 0.39 -1.09 9.81 -0.00 0.03 -0.08 3493
0.68 -0.03 0.35 -1.06 9.78 0.00 0.03 -0.08 3501
0.67 -0.03 0.37 -1.06 10.41 0.00 0.04 -0.08 3508
0.65 -0.03 0.40 -1.07 9.82 0.01 0.03 -0.08 3515
0.63 -0.03 0.38 -1.07 9.79 0.00 0.03 -0.08 3522
0.62 -0.02 0.40 -1.08 9.80 0.00 0.03 -0.07 3529
0.60 -0.02 0.41 -1.05 9.78 0.00 0.03 -0.07 3536
0.59 -0.02 0.42 -1.07 9.73 -0.01 0.04 -0.08 3544
0.55 -0.02 0.40 -1.08 9.75 -0.01 0.04 -0.08 3551
0.52 -0.03 0.34 -1.10 9.78 -0.01 0.03 -0.07 3558
0.46 -0.02 0.34 -1.08 9.80 -0.02 0.04 -0.08 3565
0.42 -0.01 0.40 -1.08 9.81 -0.02 0.04 -0.08 3572
0.39 -0.00 0.39 -1.07 9.82 -0.02 0.04 -0.08 3579
0.37 -0.01 0.37 -1.05 9.81 -0.02 0.05 -0.08 3587
0.36 -0.02 0.39 -1.08 9.81 -0.02 0.05 -0.08 3594
0.35 -0.03 0.37 -1.04 9.76 -0.02 0.05 -0.07 3601
0.33 -0.02 0.39 -1.05 9.78 -0.02 0.05 -0.08 3608
0.33 -0.02 0.38 -1.09 9.80 -0.02 0.05 -0.07 3615
0.31 -0.02 0.38 -1.05 9.79 -0.02 0.05 -0.07 3622
0.26 -0.02 0.41 -1.04 9.79 -0.02 0.05 -0.07 3630
0.24 -0.02 0.40 -1.08 9.81 -0.02 0.05 -0.07 3637
0.18 -0.02 0.39 -1.06 9.80 -0.02 0.05 -0.07 3644
0.19 -0.01 0.38 -1.06 9.79 -0.03 0.05 -0.07 3651
0.17 0.00 0.37 -1.04 9.80 -0.02 0.06 -0.07 3658
0.13 -0.00 0.38 -1.04 9.78 -0.02 0.06 -0.06 3665
0.09 -0.01 0.39 -1.04 9.21 -0.01 0.06 -0.06 3673
0.07 0.00 0.38 -1.05 9.81 -0.01 0.06 -0.07 3680
0.05 0.00 0.41 -1.03 9.82 -0.00 0.07 -0.06 3687
0.03 0.00 0.37 -1.03 9.80 0.01 0.06 -0.07 3694
0.03 0.01 0.41 -1.06 9.82 0.01 0.06 -0.07 3701
0.04 0.00 0.40 -1.04 9.81 0.01 0.05 -0.07 3708
0.03 0.00 0.43 -1.06 9.80 0.02 0.06 -0.07 3716
0.03 -0.00 0.37 -1.04 9.75 0.02 0.05 -0.06 3723
0.02 -0.00 0.42 -1.04 9.76 0.02 0.05 -0.07 3730
0.03 0.00 0.41 -1.06 9.79 0.01 0.05 -0.07 3737
0.04 0.01 0.40 -1.06 9.75 0.02 0.05 -0.06 3744
0.05 -0.00 0.38 -1.07 9.81 0.02 0.05 -0.06 3751
0.04 -0.00 0.41 -1.07 9.78 0.02 0.05 -0.06 3759
0.03 -0.00 0.23 -1.07 9.79 0.02 0.05 -0.06 3766
0.02 0.00 0.40 -1.11 9.70 0.02 0.05 -0.06 3773
0.04 0.00 0.40 -1.08 9.72 0.02 0.05 -0.06 3780
0.03 0.01 0.34 -1.09 9.75 0.02 0.06 -0.06 3787
0.03 0.01 0.38 -1.07 9.77 0.02 0.06 -0.06 3794
0.02 0.00 0.40 -1.06 9.75 0.01 0.05 -0.06 3802
0.03 -0.00 0.37 -1.03 9.77 0.01 0.06 -0.05 3809
0.01 0.01 0.38 -1.06 9.72 0.01 0.05 -0.05 3816
0.02 0.01 0.39 -1.05 9.77 0.01 0.06 -0.05 3823
0.03 0.00 0.40 -1.02 9.79 0.01 0.06 -0.05 3830
0.02 0.00 0.38 -1.08 9.75 0.01 0.05 -0.05 3837
-0.00 0.00 0.41 -1.10 9.78 0.01 0.05 -0.05 3845
0.00 0.00 0.41 -1.05 9.75 0.00 0.05 -0.05 3852
0.00 0.00 0.40 -1.09 9.76 0.00 0.05 -0.06 3858
0.00 0.00 0.41 -1.07 9.81 -0.03 0.05 -0.05 3864
-0.00 0.01 0.41 -1.04 9.76 -0.00 0.05 -0.05 3871
0.00 0.00 0.38 -1.05 9.76 -0.00 0.05 -0.05 3878
-0.00 0.00 0.41 -1.06 9.77 -0.00 0.05 -0.05 3886
0.01 -0.00 0.41 -1.10 9.76 -0.01 0.05 -0.05 3893
0.00 0.00 0.42 -1.01 9.74 -0.00 0.05 -0.05 3900
-0.00 0.00 0.42 -1.06 9.78 -0.00 0.05 -0.06 3907
0.00 0.01 0.42 -1.07 9.74 -0.01 0.05 -0.05 3914
0.00 0.00 0.41 -1.10 9.77 -0.01 0.05 -0.05 3921
0.00 0.00 0.39 -1.06 9.74 -0.02 0.05 -0.05 3929
0.00 0.00 0.38 -1.04 9.79 -0.02 0.05 -0.05 3936
-0.00 0.01 0.42 -1.07 9.74 -0.02 0.05 -0.05 3943
0.00 0.02 0.40 -1.08 10.37 -0.03 0.05 -0.05 3950
0.01 0.00 0.41 -1.08 9.76 -0.03 0.05 -0.05 3957
0.00 -0.00 0.40 -1.04 9.79 -0.04 0.05 -0.06 3964
0.01 -0.00 0.44 -1.08 9.80 -0.03 0.06 -0.05 3972
0.00 0.00 0.39 -1.09 9.82 -0.04 0.05 -0.05 3979
-0.00 0.01 0.40 -1.03 9.81 -0.03 0.06 -0.05 3986
0.01 0.02 0.37 -1.04 9.81 -0.03 0.06 -0.05 3993
0.02 -0.00 0.39 -1.01 9.82 -0.03 0.06 -0.05 4000
0.01 0.00 0.41 -1.02 9.77 -0.03 0.06 -0.05 4007
0.01 -0.00 0.41 -1.07 9.79 -0.03 0.06 -0.05 4015
0.00 0.00 0.41 -1.02 9.80 -0.03 0.06 -0.05 4022
0.01 0.01 0.43 -1.04 9.76 -0.02 0.06 -0.05 4029
0.02 0.01 0.42 -1.02 9.78 -0.03 0.06 -0.05 4036
0.02 0.00 0.45 -1.05 9.80 -0.02 0.06 -0.05 4043
0.02 0.02 0.38 -1.01 9.79 -0.03 0.07 -0.05 4050
0.01 0.06 0.42 -1.01 9.75 -0.03 0.06 -0.06 4058
0.01 0.10 0.43 -1.03 9.77 -0.03 0.06 -0.05 4065
0.02 0.08 0.43 -1.04 9.77 -0.03 0.06 -0.05 4072
0.02 0.09 0.42 -1.03 9.77 -0.03 0.06 -0.05 4079
0.03 0.07 0.46 -1.04 9.80 -0.03 0.06 -0.05 4086
-0.00 0.08 0.41 -1.06 9.72 -0.03 0.06 -0.05 4093
-0.01 0.14 0.43 -1.01 9.80 -0.03 0.06 -0.05 4101
-0.01 0.15 0.41 -1.02 9.81 -0.04 0.06 -0.05 4108
-0.01 0.13 0.40 -0.97 9.76 -0.04 0.06 -0.05 4115
-0.00 0.13 0.42 -1.03 9.80 -0.04 0.06 -0.04 4122
-0.01 0.20 0.44 -0.98 9.77 -0.04 0.06 -0.05 4129
-0.02 0.20 0.42 -0.99 9.77 -0.04 0.06 -0.05 4136
-0.02 0.22 0.44 -1.02 9.78 -0.05 0.06 -0.04 4144
-0.02 0.27 0.41 -1.00 9.73 -0.05 0.06 -0.04 4151
-0.02 0.29 0.47 -1.00 9.77 -0.05 0.06 -0.04 4158
-0.00 0.29 0.35 -0.96 9.80 -0.05 0.05 -0.05 4165
-0.02 0.29 0.35 -0.93 9.79 -0.05 0.05 -0.04 4172
-0.02 0.30 0.46 -0.96 9.77 -0.04 0.05 -0.04 4179
-0.03 0.31 0.36 -1.02 9.79 -0.04 0.05 -0.04 4187
-0.02 0.32 0.43 -0.95 9.80 -0.04 0.05 -0.04 4194
-0.01 0.40 0.43 -0.97 9.79 -0.04 0.05 -0.04 4201
-0.00 0.42 0.43 -0.97 9.80 -0.04 0.05 -0.04 4208
-0.01 0.42 0.48 -0.95 9.79 -0.03 0.05 -0.04 4215
-0.02 0.44 0.42 -0.96 9.81 -0.03 0.05 -0.05 4222
-0.03 0.45 0.47 -0.97 9.81 -0.03 0.06 -0.04 4230
-0.02 0.50 0.45 -0.95 9.76 -0.03 0.06 -0.05 4237
-0.02 0.54 0.45 -0.95 9.75 -0.03 0.06 -0.04 4244
-0.00 0.51 0.47 -0.89 9.76 -0.03 0.06 -0.05 4251
-0.02 0.53 0.55 -0.93 9.77 -0.02 0.06 -0.05 4258
-0.01 0.55 0.48 -0.95 9.79 -0.02 0.06 -0.05 4265
-0.03 0.59 0.45 -0.93 9.80 -0.02 0.06 -0.05 4273
-0.03 0.62 0.46 -0.96 9.80 -0.02 0.05 -0.05 4280
-0.03 0.62 0.49 -0.95 9.78 -0.02 0.06 -0.05 4287
-0.02 0.59 0.46 -0.98 9.76 -0.02 0.05 -0.05 4294
-0.01 0.58 0.45 -0.97 10.40 -0.02 0.05 -0.05 4301
-0.02 0.61 0.46 -0.94 9.76 -0.02 0.06 -0.05 4308
-0.03 0.61 0.50 -0.93 9.76 -0.01 0.06 -0.05 4316
-0.02 0.63 0.47 -0.92 9.79 -0.01 0.06 -0.05 4323
-0.02 0.65 0.44 -0.93 9.77 -0.01 0.06 -0.05 4330
-0.02 0.64 0.44 -0.91 9.80 -0.01 0.06 -0.05 4337
-0.02 0.65 0.51 -0.92 9.75 -0.01 0.06 -0.05 4344
-0.03 0.63 0.49 -0.93 9.80 -0.01 0.06 -0.05 4352
-0.03 0.64 0.45 -0.95 9.78 -0.01 0.06 -0.05 4359
-0.02 0.66 0.49 -0.92 9.79 -0.01 0.05 -0.05 4366
-0.00 0.65 0.48 -0.93 9.78 -0.01 0.05 -0.05 4373
-0.01 0.63 0.49 -0.91 9.77 -0.01 0.05 -0.05 4380
-0.02 0.65 0.45 -0.92 9.75 -0.00 0.05 -0.05 4387
-0.02 0.64 0.47 -0.93 9.80 -0.01 0.04 -0.05 4395
-0.00 0.60 0.46 -0.94 9.80 -0.01 0.04 -0.05 4402
-0.01 0.61 0.49 -0.91 9.77 -0.01 0.05 -0.05 4409
-0.01 0.60 0.47 -0.92 9.82 -0.01 0.05 -0.06 4416
0.01 0.58 0.43 -0.95 9.81 -0.00 0.05 -0.05 4423
0.02 0.58 0.47 -0.96 9.80 -0.01 0.05 -0.05 4430
0.01 0.58 0.46 -0.92 9.80 0.03 0.05 -0.05 4438
0.01 0.59 0.52 -0.93 9.79 -0.00 0.05 -0.05 4445
0.02 0.58 0.47 -0.91 9.79 -0.00 0.05 -0.05 4452
0.03 0.56 0.48 -0.91 9.77 -0.00 0.05 -0.05 4459
0.02 0.55 0.47 -0.91 9.77 -0.00 0.05 -0.05 4466
0.01 0.54 0.49 -0.91 9.76 -0.00 0.04 -0.05 4473
-0.00 0.55 0.51 -0.93 9.80 0.00 0.04 -0.05 4481
0.01 0.54 0.46 -0.95 9.80 0.00 0.04 -0.06 4488
0.02 0.53 0.50 -0.95 9.78 0.00 0.04 -0.05 4495
0.03 0.51 0.49 -0.96 9.76 0.00 0.04 -0.05 4502
0.02 0.51 0.49 -0.93 9.77 0.00 0.04 -0.06 4509
0.02 0.50 0.49 -0.92 9.75 0.00 0.05 -0.06 4516
0.01 0.48 0.48 -0.94 9.79 0.00 0.05 -0.06 4524
0.02 0.47 0.46 -0.96 9.75 0.00 0.05 -0.06 4531
0.05 0.45 0.49 -0.93 9.79 0.01 0.05 -0.06 4538
0.03 0.44 0.53 -0.96 9.79 0.01 0.04 -0.06 4545
0.01 0.39 0.46 -0.93 9.81 0.01 0.04 -0.06 4552
0.02 0.38 0.48 -0.93 9.79 0.01 0.05 -0.06 4559
0.03 0.39 0.50 -0.96 9.76 0.01 0.05 -0.06 4567
0.02 0.40 0.50 -0.92 9.79 0.01 0.05 -0.06 4574
0.04 0.35 0.52 -0.92 9.76 0.02 0.04 -0.06 4581
0.02 0.29 0.51 -0.97 9.80 0.01 0.04 -0.06 4588
0.04 0.27 0.48 -0.99 9.79 0.01 0.04 -0.06 4595
0.02 0.28 0.46 -0.94 9.79 0.01 0.04 -0.06 4602
0.02 0.23 0.51 -0.94 9.81 0.01 0.04 -0.06 4610
0.03 0.26 0.52 -0.97 9.79 0.01 0.03 -0.06 4617
0.03 0.25 0.51 -0.97 9.80 0.01 0.04 -0.07 4624
0.04 0.18 0.51 -0.96 9.76 0.01 0.03 -0.06 4631
0.03 0.16 0.53 -0.98 9.79 0.01 0.03 -0.06 4638
0.01 0.20 0.51 -0.97 9.81 0.01 0.02 -0.07 4645
0.02 0.17 0.54 -1.00 9.77 0.01 0.02 -0.07 4653
0.03 0.16 0.49 -0.99 9.81 0.01 0.01 -0.07 4660
0.05 0.17 0.51 -0.99 9.78 0.01 0.00 -0.06 4667
0.06 0.15 0.51 -0.96 9.78 0.01 -0.00 -0.07 4674
0.07 0.11 0.50 -0.97 9.82 0.00 -0.00 -0.07 4681
0.06 0.08 0.47 -0.96 9.20 0.00 -0.00 -0.07 4688
0.07 0.06 0.47 -0.98 9.79 0.00 -0.00 -0.07 4696
0.12 0.06 0.43 -0.97 9.80 0.01 0.00 -0.07 4703
0.14 0.05 0.43 -1.01 9.81 0.01 0.00 -0.07 4710
0.15 0.02 0.44 -0.94 9.80 0.01 0.01 -0.07 4717
0.16 0.00 0.51 -0.99 9.76 0.01 0.02 -0.06 4724
0.17 0.01 0.45 -1.01 9.79 0.01 0.02 -0.06 4731
0.19 0.03 0.46 -0.99 9.79 0.01 0.03 -0.07 4739
0.20 0.01 0.47 -1.01 9.79 0.01 0.02 -0.06 4746
0.21 0.01 0.45 -0.98 9.79 0.01 0.02 -0.06 4753
0.21 -0.00 0.47 -1.02 9.78 0.01 0.03 -0.03 4760
0.22 0.01 0.48 -1.01 9.79 0.01 0.02 -0.06 4767
0.22 -0.01 0.48 -0.99 9.76 0.01 0.03 -0.07 4774
0.23 0.02 0.48 -1.00 9.80 0.01 0.03 -0.07 4782
0.25 -0.01 0.45 -0.98 9.75 0.01 0.02 -0.06 4789
0.26 -0.00 0.48 -1.01 9.79 0.01 0.02 -0.07 4796
0.26 -0.01 0.48 -1.03 9.82 0.01 0.03 -0.07 4803
0.25 -0.00 0.51 -0.99 9.81 0.01 0.03 -0.07 4810
0.28 -0.01 0.45 -1.01 9.81 0.01 0.03 -0.07 4817
0.29 0.00 0.42 -1.01 9.79 0.02 0.03 -0.07 4825
0.32 -0.01 0.46 -0.99 9.81 0.01 0.03 -0.07 4832
0.35 -0.02 0.44 -1.04 9.80 0.01 0.03 -0.07 4839
0.34 0.00 0.47 -1.03 9.78 0.01 0.02 -0.07 4846
0.33 0.01 0.46 -1.03 9.77 0.02 0.03 -0.06 4853
0.35 -0.00 0.46 -1.03 9.80 0.02 0.02 -0.07 4860
0.37 -0.01 0.49 -1.02 9.81 0.02 0.03 -0.07 4868
0.40 -0.02 0.43 -1.01 9.79 0.02 0.03 -0.07 4875
0.40 -0.01 0.46 -1.03 9.75 0.01 0.03 -0.07 4882
0.40 -0.04 0.40 -1.05 9.76 0.01 0.02 -0.07 4889
0.41 -0.03 0.45 -1.04 9.78 0.02 0.03 -0.07 4896
0.42 -0.03 0.47 -1.06 9.78 0.01 0.03 -0.07 4903
0.45 -0.02 0.46 -1.04 9.79 0.02 0.03 -0.07 4911
0.46 -0.03 0.43 -1.02 9.76 0.02 0.02 -0.08 4918
0.47 -0.03 0.40 -1.05 9.78 0.02 0.03 -0.08 4925
0.46 -0.03 0.43 -1.04 9.79 0.02 0.02 -0.08 4932
0.45 -0.03 0.41 -1.05 9.76 0.01 0.02 -0.07 4939
0.45 -0.02 0.44 -1.00 9.78 0.01 0.02 -0.08 4946
0.45 -0.02 0.39 -1.06 9.77 0.01 0.03 -0.07 4954
0.46 -0.02 0.38 -1.06 9.75 0.01 0.03 -0.07 4961
0.46 -0.02 0.42 -1.09 9.78 0.00 0.03 -0.07 4968
0.45 -0.02 0.45 -1.05 9.75 0.00 0.03 -0.08 4975
0.46 -0.02 0.44 -1.07 9.76 -0.00 0.03 -0.08 4982
0.46 -0.01 0.43 -1.06 9.78 -0.01 0.03 -0.08 4989
0.48 -0.02 0.45 -1.07 9.81 -0.01 0.03 -0.07 4997
0.48 -0.03 0.46 -1.05 9.78 -0.01 0.03 -0.08 5004
0.46 -0.03 0.43 -1.06 9.78 -0.01 0.02 -0.08 5011
0.46 -0.02 0.39 -1.05 9.77 -0.01 0.02 -0.08 5018
0.46 -0.02 0.40 -1.05 9.81 -0.00 0.03 -0.08 5025
0.46 -0.00 0.41 -1.02 9.82 -0.01 0.02 -0.08 5032
0.48 -0.01 0.42 -1.06 10.41 -0.01 0.02 -0.07 5040
0.48 -0.01 0.45 -1.06 9.79 -0.00 0.03 -0.07 5047
0.48 -0.03 0.39 -1.03 9.82 0.00 0.02 -0.07 5054
0.47 -0.02 0.42 -1.07 9.81 0.00 0.02 -0.08 5061
0.49 -0.01 0.45 -1.04 9.80 0.00 0.02 -0.08 5068
0.49 -0.01 0.41 -1.06 10.42 0.00 0.02 -0.08 5075
0.50 -0.02 0.41 -1.05 9.80 0.00 0.02 -0.08 5083
0.50 -0.02 0.41 -1.07 9.80 0.00 0.02 -0.08 5090
0.49 -0.02 0.42 -1.07 9.76 0.01 0.02 -0.08 5097
0.48 -0.01 0.42 -1.06 9.77 0.00 0.02 -0.08 5104
0.50 -0.02 0.40 -1.05 9.81 0.00 0.02 -0.08 5111
0.50 -0.02 0.37 -1.06 9.80 0.00 0.03 -0.08 5118
0.50 -0.03 0.37 -1.04 9.81 0.00 0.03 -0.08 5126
0.49 -0.02 0.40 -1.04 9.79 0.00 0.03 -0.08 5133
0.49 -0.02 0.42 -1.08 9.80 0.00 0.03 -0.09 5140
0.48 -0.01 0.41 -1.09 9.80 0.00 0.03 -0.08 5147
0.48 -0.01 0.44 -1.05 9.80 0.01 0.03 -0.08 5154
0.49 -0.02 0.42 -1.09 9.80 0.01 0.03 -0.08 5161
0.49 -0.02 0.40 -1.06 9.20 0.01 0.03 -0.09 5169
0.48 -0.02 0.40 -1.07 9.75 0.01 0.03 -0.08 5176
0.47 -0.01 0.40 -1.06 9.81 0.01 0.03 -0.08 5183
0.48 -0.01 0.38 -1.04 9.79 0.01 0.03 -0.08 5190
0.46 -0.00 0.38 -1.07 9.74 0.01 0.03 -0.08 5197
0.48 -0.01 0.37 -1.09 9.77 0.01 0.03 -0.08 5204
0.47 -0.02 0.39 -1.12 9.81 -0.00 0.03 -0.09 5212
0.46 -0.02 0.40 -1.08 9.77 0.00 0.03 -0.09 5219
0.44 -0.02 0.42 -1.10 9.79 0.00 0.04 -0.08 5226
0.44 -0.00 0.43 -1.07 9.81 -0.00 0.04 -0.08 5233
0.42 -0.00 0.40 -1.09 9.81 -0.00 0.04 -0.08 5240
0.42 -0.01 0.38 -1.13 9.81 0.00 0.04 -0.08 5248
0.41 -0.01 0.37 -1.09 9.76 -0.00 0.04 -0.08 5255
0.40 -0.03 0.41 -1.08 9.81 -0.01 0.04 -0.08 5262
0.38 -0.02 0.43 -1.09 9.77 -0.01 0.04 -0.08 5269
0.38 -0.01 0.39 -1.12 9.77 -0.01 0.04 -0.08 5276
0.38 -0.00 0.40 -1.11 9.81 -0.01 0.04 -0.08 5283
0.37 -0.01 0.37 -1.11 9.83 -0.00 0.04 -0.08 5291
0.36 -0.01 0.37 -1.08 9.81 -0.00 0.04 -0.08 5298
0.36 -0.02 0.40 -1.09 9.82 0.00 0.04 -0.08 5305
0.34 -0.01 0.38 -1.08 9.82 0.01 0.04 -0.08 5312
0.34 -0.00 0.38 -1.08 9.81 0.01 0.04 -0.08 5319
0.34 -0.01 0.39 -1.08 9.82 0.01 0.04 -0.08 5326
0.34 -0.01 0.38 -1.07 9.80 0.01 0.04 -0.08 5334
0.33 -0.01 0.38 -1.08 9.78 0.02 0.04 -0.08 5341
0.32 -0.01 0.38 -1.08 9.80 0.01 0.04 -0.08 5348
0.31 -0.01 0.38 -1.12 9.77 0.01 0.05 -0.08 5355
0.30 0.00 0.40 -1.10 9.72 0.00 0.05 -0.08 5362
0.28 -0.00 0.40 -1.10 9.79 -0.00 0.05 -0.08 5369
0.25 -0.01 0.35 -1.10 9.77 -0.01 0.06 -0.07 5377
0.19 -0.01 0.42 -1.08 9.72 -0.02 0.06 -0.07 5384
0.16 -0.01 0.39 -1.12 9.72 -0.03 0.05 -0.07 5391
0.14 0.00 0.40 -1.12 9.77 -0.04 0.05 -0.07 5398
0.13 0.01 0.43 -1.08 9.74 -0.04 0.05 -0.06 5405
0.13 -0.00 0.40 -1.08 9.75 -0.04 0.05 -0.06 5412
0.09 0.00 0.38 -1.13 9.76 -0.04 0.05 -0.06 5420
0.06 -0.01 0.50 -1.10 9.80 -0.04 0.05 -0.06 5427
0.04 0.01 0.37 -1.03 9.78 -0.05 0.05 -0.07 5434
0.06 0.00 0.36 -1.04 9.81 -0.04 0.05 -0.06 5441
0.07 0.01 0.41 -1.05 9.83 -0.04 0.05 -0.07 5448
0.07 0.01 0.37 -1.03 9.81 -0.03 0.05 -0.06 5455
0.06 -0.00 0.36 -1.04 9.20 -0.02 0.05 -0.06 5463
0.05 -0.00 0.37 -1.03 9.81 -0.02 0.05 -0.07 5470
0.03 0.01 0.39 -1.03 9.80 -0.02 0.06 -0.07 5477
0.04 0.01 0.40 -1.02 9.78 -0.01 0.06 -0.07 5484
0.04 0.02 0.42 -1.06 9.81 -0.01 0.05 -0.06 5491
0.05 0.01 0.42 -1.05 9.75 -0.01 0.05 -0.10 5498
0.04 0.00 0.42 -1.05 9.79 -0.01 0.05 -0.07 5506
0.03 -0.00 0.39 -1.06 9.79 -0.01 0.05 -0.07 5513
0.01 -0.00 0.41 -1.09 9.80 -0.00 0.05 -0.07 5520
0.03 0.01 0.41 -1.04 9.80 -0.01 0.05 -0.07 5527
0.04 0.01 0.38 -1.08 9.82 -0.01 0.04 -0.06 5534
0.03 0.02 0.41 -1.04 9.78 -0.01 0.05 -0.06 5541
0.01 0.01 0.38 -1.03 9.79 -0.01 0.05 -0.07 5549
0.01 -0.00 0.39 -1.05 9.80 -0.00 0.05 -0.07 5556
0.01 -0.00 0.39 -1.04 9.79 -0.01 0.05 -0.06 5563
0.01 0.02 0.40 -1.06 9.79 -0.00 0.05 -0.06 5570
0.02 0.01 0.38 -1.03 9.81 -0.01 0.05 -0.06 5577
0.02 0.00 0.37 -1.04 9.80 -0.01 0.05 -0.06 5584
0.02 -0.00 0.36 -1.04 9.80 -0.00 0.05 -0.06 5592
0.02 -0.00 0.42 -1.04 9.77 -0.00 0.05 -0.06 5599
0.03 0.00 0.41 -1.09 9.80 -0.00 0.05 -0.06 5606
0.02 0.02 0.40 -1.04 9.78 -0.01 0.05 -0.06 5613
0.04 0.01 0.41 -1.05 9.80 -0.01 0.05 -0.06 5620
0.02 0.00 0.40 -1.05 9.77 -0.01 0.05 -0.06 5627
0.02 0.00 0.41 -1.08 9.78 -0.01 0.05 -0.06 5635
0.02 0.00 0.40 -1.04 9.80 -0.01 0.05 -0.06 5642
0.03 0.01 0.40 -1.07 9.81 -0.01 0.05 -0.06 5649
0.03 0.01 0.43 -1.03 9.81 -0.01 0.05 -0.06 5656
0.04 0.01 0.40 -1.06 9.78 -0.01 0.05 -0.06 5663
0.03 0.01 0.40 -1.08 9.81 -0.01 0.05 -0.06 5670
0.03 0.00 0.34 -1.05 9.83 -0.01 0.05 -0.06 5678
0.02 0.01 0.41 -1.04 9.79 -0.01 0.05 -0.06 5685
0.03 0.00 0.36 -1.05 9.77 -0.01 0.05 -0.06 5692
0.02 0.01 0.39 -1.05 9.76 -0.01 0.05 -0.06 5699
0.02 0.00 0.42 -1.03 9.80 -0.01 0.05 -0.06 5706
0.02 0.02 0.39 -1.05 9.75 -0.01 0.05 -0.06 5713
0.02 0.02 0.40 -1.04 9.77 -0.01 0.05 -0.06 5721
0.01 0.03 0.39 -1.05 9.79 -0.01 0.05 -0.06 5728
0.01 0.02 0.40 -1.07 9.76 -0.01 0.06 -0.06 5735
0.02 0.03 0.39 -1.06 9.79 -0.01 0.06 -0.06 5742
0.01 0.03 0.40 -1.02 9.81 -0.02 0.05 -0.05 5749
-0.00 0.02 0.41 -1.06 9.74 -0.02 0.05 -0.06 5756
-0.00 0.02 0.42 -1.05 9.76 -0.02 0.05 -0.05 5764
-0.00 0.03 0.43 -1.02 9.77 -0.02 0.05 -0.05 5771
0.00 0.02 0.40 -1.02 9.77 -0.02 0.06 -0.06 5778
0.01 0.04 0.41 -1.03 9.78 -0.02 0.05 -0.06 5785
0.00 0.04 0.42 -1.04 9.75 -0.02 0.05 -0.05 5792
-0.01 0.05 0.42 -1.05 9.81 -0.02 0.05 -0.05 5799
-0.01 0.05 0.43 -1.03 9.80 -0.02 0.05 -0.06 5807
-0.01 0.07 0.43 -1.03 9.81 -0.02 0.05 -0.05 5814
-0.00 0.10 0.45 -1.05 9.79 -0.02 0.05 -0.05 5821
-0.01 0.11 0.41 -1.03 9.80 -0.03 0.05 -0.05 5828
-0.01 0.12 0.44 -1.06 9.77 -0.03 0.05 -0.05 5835
-0.01 0.09 0.42 -1.02 9.76 -0.02 0.05 -0.05 5842
-0.01 0.09 0.42 -1.02 9.75 -0.02 0.05 -0.06 5850
-0.01 0.09 0.41 -1.02 9.78 -0.03 0.05 -0.06 5857
-0.01 0.13 0.43 -1.01 9.81 -0.03 0.05 -0.05 5864
-0.01 0.15 0.41 -0.94 9.80 -0.03 0.04 -0.05 5871
-0.01 0.13 0.43 -1.02 9.76 -0.03 0.05 -0.06 5878
-0.01 0.12 0.42 -1.04 9.80 -0.03 0.04 -0.05 5885
-0.01 0.12 0.42 -0.99 9.77 -0.03 0.05 -0.05 5893
-0.01 0.13 0.40 -1.02 9.74 -0.04 0.04 -0.05 5900
-0.01 0.17 0.43 -1.00 9.79 -0.03 0.04 -0.05 5907
-0.01 0.16 0.51 -1.00 9.78 -0.03 0.04 -0.06 5914
-0.02 0.20 0.44 -0.99 9.76 -0.03 0.04 -0.06 5921
-0.02 0.23 0.42 -1.03 9.79 -0.03 0.03 -0.06 5928
-0.02 0.22 0.41 -1.02 9.77 -0.04 0.04 -0.06 5936
-0.03 0.26 0.45 -0.96 9.80 -0.03 0.04 -0.06 5943
-0.01 0.24 0.44 -1.02 9.79 -0.03 0.04 -0.06 5950
-0.02 0.27 0.41 -1.02 9.80 -0.03 0.04 -0.06 5957
-0.03 0.35 0.43 -0.99 9.79 -0.03 0.04 -0.06 5964
-0.02 0.31 0.59 -0.93 9.82 -0.03 0.03 -0.05 5971
-0.02 0.31 0.42 -0.95 9.78 -0.03 0.04 -0.06 5979
-0.02 0.43 0.44 -1.01 9.81 -0.03 0.04 -0.06 5986
-0.00 0.38 0.49 -0.91 9.81 -0.03 0.04 -0.06 5993
-0.02 0.40 0.43 -0.98 9.79 -0.03 0.03 -0.06 6000
-0.01 0.39 0.42 -0.96 9.80 -0.03 0.04 -0.06 6007
-0.02 0.42 0.41 -0.95 9.82 -0.03 0.04 -0.06 6014
-0.02 0.45 0.47 -0.97 9.80 -0.02 0.04 -0.06 6022
0.00 0.48 0.45 -0.97 9.77 -0.02 0.04 -0.06 6029
0.01 0.46 0.43 -0.96 9.80 -0.03 0.04 -0.06 6036
0.01 0.46 0.45 -0.93 9.80 -0.02 0.04 -0.06 6043
0.01 0.48 0.43 -0.97 9.79 -0.02 0.04 -0.06 6050
0.01 0.50 0.43 -0.93 9.80 -0.03 0.04 -0.07 6057
0.02 0.51 0.47 -0.98 9.79 -0.02 0.04 -0.06 6065
0.02 0.56 0.45 -0.96 9.80 -0.02 0.04 -0.06 6072
0.02 0.56 0.46 -0.96 9.80 -0.02 0.04 -0.07 6079
0.01 0.55 0.41 -0.99 9.79 -0.02 0.04 -0.06 6086
0.02 0.55 0.45 -0.94 9.83 -0.02 0.04 -0.06 6093
0.01 0.57 0.44 -0.98 9.82 -0.02 0.04 -0.07 6100
0.02 0.53 0.42 -0.97 9.78 -0.01 0.04 -0.06 6108
0.03 0.52 0.40 -0.97 9.78 -0.02 0.04 -0.06 6115
0.03 0.49 0.39 -0.96 9.80 -0.02 0.04 -0.07 6122
0.03 0.51 0.41 -0.96 9.81 -0.01 0.04 -0.06 6129
0.01 0.49 0.43 -0.95 9.79 -0.01 0.04 -0.07 6136
0.01 0.54 0.39 -0.95 9.78 -0.01 0.05 -0.07 6144
0.01 0.53 0.45 -0.96 9.80 -0.01 0.05 -0.06 6151
0.02 0.54 0.43 -0.93 9.76 -0.01 0.05 -0.06 6158
0.01 0.56 0.42 -0.94 9.77 -0.01 0.05 -0.06 6165
-0.00 0.55 0.44 -0.94 9.76 -0.01 0.05 -0.06 6172
-0.01 0.55 0.41 -0.93 9.76 -0.01 0.05 -0.07 6179
-0.01 0.55 0.45 -0.95 9.81 -0.01 0.05 -0.07 6187
0.00 0.53 0.45 -0.94 9.75 -0.01 0.05 -0.07 6194
0.02 0.52 0.42 -0.95 9.80 -0.01 0.05 -0.06 6201
0.01 0.52 0.45 -0.97 9.80 -0.00 0.05 -0.07 6208
0.00 0.53 0.41 -0.94 9.79 -0.01 0.05 -0.06 6215
-0.01 0.52 0.45 -0.95 9.77 -0.00 0.05 -0.07 6222
-0.01 0.52 0.42 -0.95 9.77 -0.01 0.05 -0.07 6230
-0.00 0.53 0.44 -0.94 9.81 -0.01 0.05 -0.07 6237
0.01 0.51 0.43 -0.99 9.80 -0.01 0.05 -0.07 6244
0.01 0.50 0.45 -0.95 9.77 -0.01 0.05 -0.07 6251
0.00 0.50 0.42 -0.95 9.79 -0.01 0.05 -0.07 6258
-0.00 0.49 0.44 -0.97 9.81 -0.00 0.05 -0.07 6265
0.00 0.48 0.41 -0.94 9.80 -0.01 0.05 -0.06 6273
0.00 0.49 0.46 -0.93 9.79 -0.01 0.05 -0.06 6280
0.03 0.47 0.43 -0.94 9.79 -0.01 0.05 -0.06 6287
0.01 0.46 0.48 -0.95 9.78 -0.00 0.05 -0.06 6294
0.02 0.44 0.48 -0.94 9.77 -0.00 0.05 -0.07 6301
0.00 0.45 0.45 -0.95 9.79 -0.00 0.04 -0.07 6308
0.00 0.44 0.42 -0.95 9.80 -0.01 0.04 -0.07 6316
0.01 0.41 0.42 -0.94 9.78 -0.00 0.04 -0.07 6323
0.02 0.38 0.47 -0.94 9.78 0.00 0.04 -0.06 6330
0.02 0.39 0.44 -0.96 9.79 -0.00 0.04 -0.07 6337
0.03 0.36 0.44 -0.96 9.79 -0.00 0.04 -0.07 6344
0.03 0.34 0.46 -0.97 9.81 -0.00 0.04 -0.07 6351
0.03 0.35 0.44 -0.97 9.77 0.00 0.04 -0.06 6359
0.06 0.34 0.44 -0.96 9.78 -0.00 0.04 -0.07 6366
0.05 0.33 0.44 -0.95 9.76 0.00 0.04 -0.07 6373
0.05 0.33 0.45 -0.93 9.80 -0.00 0.04 -0.07 6380
0.05 0.31 0.42 -0.92 9.81 0.00 0.04 -0.07 6387
0.07 0.31 0.47 -0.96 9.78 0.00 0.04 -0.07 6394
0.07 0.30 0.45 -0.94 9.74 0.01 0.03 -0.03 6402
0.09 0.31 0.46 -0.94 9.81 0.01 0.04 -0.07 6409
0.09 0.28 0.46 -0.96 9.80 0.01 0.04 -0.07 6416
0.08 0.28 0.44 -0.95 10.42 0.01 0.04 -0.07 6423
0.07 0.30 0.46 -0.96 9.81 0.01 0.03 -0.06 6430
0.08 0.27 0.42 -0.97 9.82 0.00 0.04 -0.06 6437
0.09 0.28 0.45 -0.97 9.79 0.01 0.03 -0.07 6445
0.11 0.21 0.44 -0.97 9.78 0.01 0.04 -0.07 6452
0.13 0.22 0.44 -0.97 9.77 0.01 0.03 -0.06 6459
0.13 0.18 0.40 -0.91 9.78 0.01 0.03 -0.07 6466
0.14 0.19 0.47 -0.94 9.78 0.01 0.03 -0.07 6473
0.16 0.17 0.44 -0.98 9.79 0.01 0.03 -0.07 6480
0.19 0.12 0.44 -0.98 9.81 0.01 0.03 -0.07 6488
0.22 0.14 0.45 -0.98 9.80 0.01 0.03 -0.07 6495
0.23 0.10 0.40 -0.99 9.77 0.01 0.03 -0.07 6502
0.23 0.05 0.42 -1.02 9.80 0.01 0.03 -0.07 6509
0.25 0.04 0.43 -0.98 9.79 0.01 0.03 -0.06 6516
0.27 0.04 0.45 -1.01 9.82 0.01 0.03 -0.07 6523
0.30 0.05 0.42 -0.97 9.80 0.01 0.03 -0.06 6531
0.31 0.03 0.41 -0.98 9.78 0.01 0.03 -0.07 6538
0.31 0.01 0.43 -0.97 9.79 0.01 0.03 -0.07 6545
0.32 -0.01 0.44 -1.01 9.80 0.01 0.03 -0.07 6552
0.33 -0.00 0.43 -0.99 9.78 0.01 0.03 -0.07 6559
0.33 0.00 0.43 -0.98 9.83 0.02 0.03 -0.07 6566
0.35 0.01 0.42 -1.01 9.80 0.02 0.02 -0.07 6574
0.36 -0.01 0.46 -1.00 9.81 0.02 0.02 -0.06 6581
0.37 -0.01 0.40 -1.01 9.74 0.01 0.02 -0.07 6588
0.39 -0.01 0.39 -1.01 9.79 0.01 0.02 -0.07 6595
0.40 -0.02 0.44 -1.00 9.81 0.01 0.02 -0.07 6602
0.41 -0.00 0.38 -1.02 9.79 0.02 0.03 -0.07 6609
0.44 -0.01 0.43 -1.00 9.81 0.01 0.03 -0.07 6617
0.45 -0.02 0.41 -1.02 9.77 0.01 0.03 -0.07 6624
0.47 -0.02 0.44 -1.08 9.82 0.01 0.02 -0.07 6631
0.48 -0.02 0.40 -1.01 9.77 0.01 0.02 -0.07 6638
0.49 -0.02 0.43 -1.01 9.79 0.01 0.03 -0.07 6645
0.51 -0.01 0.38 -1.03 9.78 0.01 0.02 -0.07 6652
0.53 -0.02 0.41 -1.01 9.75 0.01 0.02 -0.07 6660
0.53 -0.01 0.38 -1.03 9.80 0.01 0.02 -0.07 6667
0.53 -0.01 0.44 -1.03 9.78 0.01 0.02 -0.08 6674
0.53 -0.00 0.42 -1.02 10.41 0.01 0.02 -0.07 6681
0.54 -0.01 0.40 -1.01 9.78 0.01 0.02 -0.08 6688
0.55 -0.01 0.40 -1.02 9.81 0.00 0.02 -0.07 6695
0.55 -0.02 0.40 -1.06 9.77 0.00 0.02 -0.07 6703
0.56 -0.02 0.42 -1.04 9.78 0.00 0.02 -0.08 6710
0.58 -0.03 0.40 -1.02 9.80 -0.01 0.02 -0.07 6717
0.57 -0.01 0.38 -1.02 9.79 -0.00 0.02 -0.07 6724
0.59 -0.02 0.38 -1.04 9.81 0.00 0.02 -0.08 6731
0.60 -0.02 0.40 -1.02 9.80 -0.00 0.02 -0.07 6738
0.60 -0.02 0.36 -1.04 9.80 0.00 0.02 -0.07 6746
0.61 -0.03 0.41 -1.06 9.80 0.00 0.02 -0.07 6753
0.62 -0.03 0.36 -1.03 9.81 0.00 0.02 -0.07 6760
0.60 -0.02 0.41 -1.05 9.81 -0.00 0.02 -0.07 6767
0.60 -0.03 0.40 -1.07 9.78 -0.00 0.03 -0.07 6774
0.61 -0.03 0.40 -1.08 9.79 -0.00 0.03 -0.07 6781
0.60 -0.03 0.43 -1.08 9.80 -0.00 0.03 -0.08 6789
0.59 -0.03 0.39 -1.02 9.76 -0.00 0.03 -0.08 6796
0.57 -0.04 0.39 -1.03 9.79 -0.00 0.03 -0.08 6803
0.56 -0.03 0.39 -1.03 9.80 -0.00 0.03 -0.07 6810
0.55 -0.03 0.41 -1.02 9.81 -0.00 0.03 -0.08 6817
0.54 -0.03 0.39 -1.05 9.80 0.00 0.04 -0.07 6824
0.50 -0.03 0.39 -1.05 9.80 -0.00 0.04 -0.08 6832
0.47 -0.04 0.42 -1.04 9.79 -0.00 0.04 -0.07 6839
0.42 -0.03 0.38 -1.04 9.80 -0.01 0.04 -0.08 6846
0.41 -0.03 0.42 -1.02 9.79 -0.00 0.04 -0.07 6853
0.40 -0.01 0.41 -1.03 9.81 -0.01 0.07 -0.07 6860
0.41 -0.02 0.38 -1.04 9.81 -0.01 0.04 -0.07 6867
0.37 -0.02 0.40 -1.02 9.80 -0.02 0.04 -0.08 6875
0.32 -0.02 0.33 -1.03 9.83 -0.02 0.04 -0.07 6882
0.28 -0.01 0.38 -1.04 9.80 -0.02 0.04 -0.07 6889
0.25 -0.02 0.39 -1.05 9.83 -0.02 0.04 -0.07 6896
0.21 0.00 0.32 -1.06 10.41 -0.01 0.04 -0.07 6903
0.18 -0.01 0.37 -1.06 9.82 -0.01 0.04 -0.07 6910
0.17 -0.00 0.37 -1.03 9.81 -0.01 0.05 -0.07 6918
0.15 -0.01 0.35 -1.01 9.80 -0.01 0.04 -0.07 6925
0.11 -0.01 0.37 -1.06 9.81 -0.00 0.04 -0.07 6932
0.08 0.00 0.40 -1.01 9.81 -0.00 0.04 -0.07 6939
0.07 0.01 0.35 -1.04 9.80 0.00 0.04 -0.07 6946
0.05 0.00 0.41 -1.06 9.77 0.00 0.05 -0.07 6953
0.05 0.00 0.39 -1.03 9.81 0.01 0.05 -0.07 6961
0.06 -0.01 0.34 -1.05 9.82 0.00 0.05 -0.07 6968
0.04 0.00 0.39 -1.03 9.79 0.01 0.05 -0.07 6975
0.03 0.02 0.42 -1.03 9.79 0.01 0.05 -0.07 6982
0.05 0.01 0.38 -1.03 9.83 0.01 0.06 -0.07 6989
0.04 0.01 0.38 -1.03 9.77 0.02 0.06 -0.07 6996
0.04 0.00 0.36 -1.04 9.80 0.02 0.06 -0.07 7004
0.02 -0.00 0.43 -1.08 9.80 0.02 0.06 -0.07 7011
0.02 0.01 0.40 -1.07 9.81 0.02 0.05 -0.07 7018
0.03 0.01 0.42 -1.05 9.82 0.02 0.06 -0.06 7025
0.05 0.01 0.40 -1.03 9.20 0.03 0.05 -0.06 7032
0.03 0.01 0.39 -1.06 9.79 0.02 0.05 -0.06 7040
0.02 0.00 0.20 -1.11 9.82 0.02 0.05 -0.07 7047
0.02 0.01 0.34 -1.03 9.80 0.03 0.05 -0.06 7054
0.03 0.01 0.40 -1.03 9.77 0.02 0.05 -0.06 7061
0.04 0.02 0.37 -1.03 9.76 0.02 0.05 -0.06 7068
0.04 0.01 0.40 -1.06 9.80 0.02 0.06 -0.06 7075
0.03 -0.00 0.37 -1.07 9.76 0.02 0.06 -0.06 7083
0.02 -0.00 0.39 -1.04 9.78 0.01 0.06 -0.06 7090
0.01 0.00 0.34 -1.04 9.81 0.01 0.06 -0.06 7097
0.01 0.00 0.40 -1.08 9.81 0.01 0.05 -0.06 7104
0.01 0.01 0.39 -1.06 9.76 0.01 0.06 -0.06 7111
0.02 0.01 0.37 -1.19 9.96 0.01 0.06 -0.06 7118
0.02 0.00 0.40 -1.09 9.82 0.01 0.06 -0.06 7126
0.02 -0.00 0.38 -1.03 9.78 0.01 0.06 -0.06 7133
-0.00 0.00 0.37 -1.05 9.75 0.01 0.06 -0.06 7140
-0.00 0.00 0.37 -1.08 9.77 0.01 0.06 -0.06 7147
0.01 0.00 0.36 -1.06 9.80 0.01 0.05 -0.06 7154
0.02 0.00 0.43 -1.06 9.75 0.00 0.05 -0.06 7161
0.00 0.00 0.40 -1.07 9.69 0.00 0.05 -0.06 7169
0.01 -0.00 0.39 -1.08 9.75 -0.00 0.05 -0.06 7176
-0.00 0.01 0.38 -1.07 9.73 -0.01 0.05 -0.06 7183
