Voltage_01 Voltage_02 Acc_x Acc_y Acc_z Gyro_x Gyro_y Gyro_z Time
5000
0.07 0.46 0.10 -1.66 9.67 -0.02 0.03 -0.08 24
0.08 0.45 0.07 -1.64 9.64 -0.01 0.03 -0.08 31
0.08 0.44 0.09 -1.62 9.71 -0.01 0.03 -0.07 38
0.07 0.45 0.09 -1.63 9.70 -0.02 0.03 -0.07 46
0.06 0.44 0.07 -1.62 9.66 -0.02 0.03 -0.08 53
0.07 0.43 0.10 -1.62 9.68 -0.01 0.03 -0.07 60
0.07 0.45 0.08 -1.62 9.69 -0.01 0.03 -0.08 67
0.09 0.45 0.09 -1.64 9.72 -0.01 0.03 -0.07 74
0.07 0.46 0.08 -1.64 9.71 -0.01 0.03 -0.08 81
0.07 0.44 0.08 -1.62 9.73 -0.01 0.03 -0.08 89
0.06 0.44 0.10 -1.63 9.73 -0.01 0.03 -0.08 96
0.07 0.45 0.06 -1.63 9.72 -0.01 0.03 -0.07 103
0.07 0.45 0.08 -1.61 9.74 -0.02 0.03 -0.07 110
0.08 0.45 0.07 -1.62 9.73 -0.01 0.03 -0.08 117
0.07 0.45 0.11 -1.63 9.75 -0.01 0.03 -0.07 124
0.07 0.44 0.09 -1.62 9.72 -0.01 0.03 -0.08 132
0.06 0.44 0.06 -1.62 9.71 -0.01 0.03 -0.08 139
0.07 0.45 0.09 -1.65 9.69 -0.01 0.03 -0.07 146
0.06 0.47 0.04 -1.65 9.71 -0.01 0.03 -0.08 153
0.07 0.46 0.09 -1.66 9.73 -0.02 0.03 -0.08 160
0.07 0.45 0.10 -1.65 9.69 -0.02 0.03 -0.08 167
0.07 0.45 0.08 -1.63 9.68 -0.02 0.04 -0.08 175
0.07 0.46 0.10 -1.60 9.68 -0.03 0.03 -0.07 182
0.06 0.48 0.10 -1.60 9.68 -0.03 0.03 -0.07 189
0.08 0.47 0.15 -1.61 9.73 -0.02 0.03 -0.08 196
0.07 0.49 0.10 -1.59 9.74 -0.02 0.03 -0.08 203
0.06 0.48 0.06 -1.61 9.69 -0.02 0.03 -0.07 210
0.07 0.46 0.12 -1.61 9.78 -0.02 0.03 -0.08 218
0.06 0.48 0.08 -1.65 9.71 -0.01 0.03 -0.08 225
0.06 0.49 0.07 -1.65 9.73 -0.01 0.03 -0.08 232
0.07 0.48 0.10 -1.64 9.69 -0.01 0.03 -0.07 239
0.06 0.49 0.07 -1.65 9.73 -0.02 0.03 -0.07 246
0.06 0.49 0.10 -1.62 9.76 -0.02 0.04 -0.07 253
0.05 0.49 0.08 -1.62 9.74 -0.02 0.04 -0.08 261
0.05 0.48 0.09 -1.62 9.69 -0.02 0.04 -0.07 268
0.05 0.50 0.08 -1.67 9.77 -0.02 0.04 -0.08 275
0.07 0.50 0.10 -1.64 9.75 -0.02 0.04 -0.07 282
0.05 0.49 0.11 -1.63 9.67 -0.01 0.04 -0.07 289
0.04 0.48 0.08 -1.62 9.74 -0.01 0.04 -0.07 296
0.04 0.49 0.09 -1.63 9.73 -0.01 0.04 -0.07 304
0.03 0.50 0.09 -1.64 9.75 -0.01 0.04 -0.07 311
0.03 0.50 0.11 -1.65 9.71 -0.01 0.04 -0.07 318
0.04 0.49 0.06 -1.68 9.74 -0.01 0.05 -0.07 325
0.03 0.50 0.10 -1.66 9.70 -0.01 0.05 -0.07 332
0.02 0.49 0.11 -1.66 9.71 -0.01 0.05 -0.07 339
0.02 0.49 0.08 -1.66 9.80 -0.02 0.05 -0.07 347
0.02 0.50 0.09 -1.64 9.68 -0.02 0.06 -0.07 354
0.04 0.51 0.11 -1.66 9.76 -0.03 0.06 -0.06 361
0.03 0.50 0.12 -1.64 9.70 -0.03 0.06 -0.07 368
0.02 0.50 0.08 -1.60 9.71 -0.03 0.05 -0.06 375
0.03 0.49 0.14 -1.60 9.72 -0.04 0.05 -0.06 382
0.01 0.49 0.11 -1.61 9.70 -0.03 0.05 -0.06 390
-0.02 0.52 0.16 -1.56 9.67 -0.03 0.04 -0.06 397
-0.01 0.51 0.14 -1.58 9.68 -0.03 0.04 -0.06 404
-0.02 0.52 -0.11 -1.44 9.61 -0.04 0.04 -0.06 411
-0.02 0.53 0.13 -1.61 9.69 -0.03 0.04 -0.06 418
-0.00 0.49 0.16 -1.62 9.66 -0.04 0.04 -0.06 425
-0.01 0.52 0.10 -1.64 9.72 -0.04 0.04 -0.06 433
-0.02 0.54 0.09 -1.57 9.66 -0.04 0.04 -0.03 440
-0.00 0.52 0.10 -1.74 10.20 -0.04 0.04 -0.06 447
0.00 0.53 0.10 -1.50 9.52 -0.04 0.05 -0.06 454
-0.00 0.54 0.11 -1.52 9.63 -0.04 0.05 -0.06 461
-0.05 0.57 0.13 -1.62 9.67 -0.04 0.05 -0.06 468
-0.01 0.55 0.08 -1.64 9.67 -0.04 0.06 -0.06 476
0.00 0.57 0.14 -1.55 9.68 -0.05 0.07 -0.06 483
0.01 0.57 0.12 -1.55 9.67 -0.05 0.07 -0.06 490
-0.00 0.55 0.17 -1.56 9.65 -0.05 0.07 -0.06 497
0.01 0.52 0.13 -1.55 9.69 -0.06 0.07 -0.05 504
-0.02 0.55 0.12 -1.57 9.68 -0.06 0.08 -0.05 512
-0.00 0.59 0.13 -1.55 9.66 -0.07 0.08 -0.05 519
-0.00 0.64 0.16 -1.49 9.54 -0.08 0.08 -0.05 526
0.01 0.60 0.14 -1.52 9.62 -0.09 0.08 -0.05 533
-0.01 0.64 0.17 -1.52 9.62 -0.10 0.08 -0.05 540
-0.01 0.66 0.08 -1.55 9.66 -0.11 0.09 -0.05 547
-0.01 0.63 0.16 -1.52 9.64 -0.12 0.09 -0.04 555
0.00 0.69 0.15 -1.53 9.63 -0.13 0.10 -0.03 562
0.00 0.71 0.11 -1.48 9.72 -0.14 0.10 -0.04 569
0.00 0.75 0.18 -1.55 9.76 -0.14 0.10 -0.03 576
-0.00 0.76 0.14 -1.46 9.67 -0.15 0.10 -0.03 583
0.00 0.74 0.15 -1.40 9.62 -0.16 0.10 -0.03 590
-0.01 0.80 0.18 -1.43 9.66 -0.16 0.10 -0.02 598
-0.04 0.87 0.14 -1.44 9.73 -0.16 0.10 -0.02 605
-0.00 0.84 0.16 -1.38 9.64 -0.17 0.10 -0.02 612
-0.05 0.88 0.17 -1.34 9.63 -0.18 0.11 -0.01 619
-0.05 0.89 0.16 -1.36 9.73 -0.18 0.11 -0.01 626
-0.05 0.98 0.14 -1.33 9.73 -0.18 0.11 -0.00 633
-0.06 0.96 0.13 -1.32 9.75 -0.18 0.11 0.00 641
-0.07 1.00 0.18 -1.24 9.81 -0.17 0.10 0.01 648
-0.04 0.93 0.15 -1.25 9.83 -0.16 0.09 0.01 655
-0.05 1.00 0.18 -1.84 9.77 -0.13 0.08 0.01 662
-0.05 0.99 0.15 -1.23 9.80 -0.12 0.08 0.01 669
-0.06 1.03 0.16 -1.22 9.81 -0.10 0.07 0.01 676
-0.06 1.04 -0.04 -1.20 9.32 -0.07 0.07 0.01 684
-0.05 1.04 0.14 -1.20 9.81 -0.06 0.08 0.01 691
-0.03 1.04 0.15 -1.18 9.77 -0.04 0.08 0.01 698
-0.03 1.02 0.15 -1.16 9.81 -0.02 0.08 0.01 705
-0.04 1.01 0.15 -1.17 9.82 -0.00 0.07 0.01 712
-0.05 0.96 0.14 -1.18 9.75 0.01 0.07 0.00 719
-0.04 0.93 0.16 -1.15 9.72 0.02 0.07 0.00 727
-0.04 0.90 0.17 -1.15 9.77 0.03 0.07 0.00 734
-0.03 0.91 0.19 -1.21 9.72 0.05 0.07 -0.00 741
-0.03 0.90 0.17 -1.19 9.71 0.05 0.07 -0.00 748
-0.02 0.87 0.23 -1.16 9.72 0.06 0.07 -0.01 755
-0.03 0.81 0.21 -1.20 9.70 0.07 0.07 -0.01 762
-0.01 0.81 0.24 -1.23 9.69 0.06 0.06 -0.01 770
-0.02 0.79 0.22 -1.26 9.68 0.06 0.06 -0.01 777
-0.02 0.76 0.24 -1.25 9.73 0.07 0.06 -0.02 784
-0.02 0.71 0.26 -1.26 9.68 0.07 0.05 -0.02 791
0.01 0.67 0.24 -1.28 9.70 0.07 0.05 -0.02 798
0.00 0.70 0.23 -1.27 9.65 0.07 0.04 -0.03 805
0.02 0.68 0.22 -1.28 9.63 0.07 0.04 -0.02 813
0.02 0.62 0.23 -1.30 9.67 0.07 0.04 -0.03 820
0.01 0.58 0.25 -1.30 9.71 0.07 0.04 -0.03 827
0.01 0.54 0.23 -1.30 9.65 0.07 0.04 -0.03 834
0.07 0.50 0.25 -1.32 9.67 0.07 0.04 -0.03 841
0.06 0.50 0.24 -1.37 9.73 0.08 0.04 -0.03 848
0.04 0.49 0.28 -1.32 9.77 0.08 0.04 -0.03 856
0.05 0.49 0.24 -1.40 9.73 0.08 0.04 -0.03 863
0.07 0.47 0.25 -1.39 9.76 0.09 0.04 -0.03 870
0.09 0.44 0.21 -1.34 9.75 0.10 0.04 -0.04 877
0.11 0.38 0.29 -1.37 9.74 0.11 0.04 -0.03 884
0.13 0.39 0.22 -1.42 9.76 0.13 0.04 -0.04 891
0.14 0.34 0.22 -1.43 9.82 0.13 0.05 -0.04 899
0.15 0.33 0.26 -1.43 9.82 0.15 0.04 -0.04 906
0.13 0.30 0.28 -1.48 9.80 0.16 0.04 -0.04 913
0.13 0.28 0.27 -1.48 9.81 0.18 0.04 -0.05 920
0.15 0.25 0.30 -1.74 9.74 0.19 0.03 -0.05 927
0.17 0.23 0.30 -1.55 9.82 0.20 0.03 -0.05 934
0.21 0.16 0.29 -1.54 9.81 0.22 0.02 -0.05 942
0.17 0.19 0.27 -1.52 9.81 0.26 0.02 -0.06 949
0.17 0.19 0.30 -1.59 9.81 0.26 0.02 -0.06 956
0.21 0.12 0.35 -1.55 9.87 0.28 0.02 -0.07 963
0.26 0.16 0.31 -1.61 9.88 0.31 0.04 -0.08 970
0.24 0.17 0.50 -1.69 10.04 0.38 0.07 -0.09 977
0.28 0.18 0.71 -1.78 10.45 0.48 0.16 -0.14 986
0.25 0.14 -0.01 -1.83 10.70 0.65 0.29 -0.16 993
0.32 0.11 0.30 -1.92 10.51 0.86 0.34 -0.15 1000
0.28 0.11 0.38 -2.03 10.86 1.01 0.31 -0.14 1007
0.29 0.13 0.38 -2.07 10.78 1.13 0.29 -0.14 1014
0.32 0.17 0.13 -2.10 10.44 1.24 0.26 -0.14 1021
0.35 0.17 0.57 -2.19 10.93 1.31 0.23 -0.12 1029
0.42 0.09 0.11 -2.30 11.12 1.38 0.25 -0.11 1036
0.41 0.11 0.23 -2.44 10.80 1.45 0.24 -0.10 1043
0.41 0.11 0.45 -2.51 10.65 1.52 0.24 -0.08 1050
0.40 0.10 0.43 -2.70 10.73 1.62 0.24 -0.09 1056
0.42 0.10 0.54 -2.58 10.51 1.73 0.20 -0.10 1063
0.42 0.14 0.29 -3.51 10.52 1.87 0.20 -0.13 1072
0.43 0.14 0.69 -3.14 11.21 2.02 0.19 -0.15 1079
0.45 0.11 0.84 -3.17 11.41 2.13 0.19 -0.16 1086
0.45 0.13 0.84 -3.43 11.37 2.29 0.17 -0.18 1093
0.47 0.10 0.53 4.80 10.92 2.42 0.19 -0.18 1099
0.47 0.11 0.84 -3.38 11.54 2.59 0.14 -0.18 1107
0.47 0.10 0.62 -3.48 11.59 2.75 0.15 -0.22 1115
0.46 0.08 0.59 -3.91 11.25 2.91 0.12 -0.23 1122
0.43 0.08 0.56 -3.82 11.63 3.08 0.08 -0.23 1128
0.37 0.09 0.45 -4.41 11.73 3.23 0.08 -0.23 1136
0.35 0.06 0.73 -4.73 11.76 3.42 0.07 -0.23 1143
0.29 0.08 0.21 -5.48 12.45 3.60 0.03 -0.24 1149
0.21 0.05 1.08 -5.23 13.38 3.78 0.04 -0.24 1158
0.18 0.07 2.04 -5.45 14.22 4.00 -0.01 -0.27 1164
0.14 0.05 1.71 -6.34 15.82 4.13 -0.13 -0.35 1172
0.09 0.07 1.42 -6.86 14.62 4.24 -0.25 -0.41 1179
0.08 0.07 1.63 -8.27 15.52 4.28 -0.48 -0.49 1186
0.05 0.05 2.93 -9.27 17.23 4.28 -0.60 -0.58 1193
0.04 0.04 2.57 -9.13 18.32 4.28 -0.56 -0.62 1201
0.01 0.04 0.79 -8.69 20.70 4.28 -0.54 -0.64 1207
0.00 0.02 0.21 -9.11 18.85 4.28 -0.66 -0.67 1214
-0.01 0.06 0.61 -7.55 17.28 4.28 -0.93 -0.62 1221
-0.00 0.07 1.20 -7.75 19.19 4.28 -0.81 -0.59 1229
-0.01 0.11 2.34 -7.42 19.95 4.28 -0.82 -0.60 1235
-0.01 0.09 2.77 -5.66 19.23 4.28 -0.88 -0.61 1243
0.01 0.08 3.81 -1.47 15.62 4.28 -0.86 -0.67 1251
-0.01 0.07 3.88 -0.13 16.56 4.28 -0.75 -0.73 1257
-0.01 0.09 3.84 2.02 14.89 4.28 -0.49 -0.80 1264
-0.01 0.11 4.72 6.23 11.73 4.26 -0.42 -0.94 1271
-0.01 0.14 2.80 13.36 5.77 4.00 -0.33 -1.15 1278
-0.01 0.10 5.52 9.19 17.63 2.98 0.24 -1.17 1286
-0.01 0.10 3.65 9.83 22.70 0.76 0.66 -1.13 1293
-0.01 0.11 -0.17 10.21 16.94 -0.69 0.75 -0.89 1301
-0.01 0.12 -1.65 9.57 12.71 -1.83 0.38 -0.62 1307
-0.01 0.12 -2.31 7.19 10.40 -2.46 -0.32 -0.42 1314
-0.01 0.11 -1.32 5.15 8.64 -2.74 -0.85 -0.28 1321
-0.01 0.10 -0.93 4.39 7.79 -2.93 -1.26 -0.19 1329
-0.01 0.09 0.26 3.89 6.97 -3.06 -1.40 -0.11 1336
-0.01 0.11 1.02 3.49 6.59 -3.18 -1.32 -0.05 1343
-0.01 0.11 1.35 3.27 6.35 -3.30 -1.07 0.00 1350
-0.01 0.11 1.39 3.29 7.11 -3.38 -0.75 0.04 1357
-0.01 0.10 1.20 3.18 7.56 -3.53 -0.48 0.05 1364
-0.01 0.11 0.75 2.97 7.69 -3.68 -0.26 0.04 1372
-0.01 0.09 0.40 1.89 8.09 -3.85 -0.15 -0.00 1379
-0.01 0.12 -0.13 2.15 8.68 -4.00 -0.08 -0.04 1386
-0.01 0.12 -0.56 1.72 9.16 -4.11 -0.06 -0.08 1393
-0.01 0.13 -0.61 1.19 9.63 -4.20 -0.03 -0.11 1400
-0.01 0.12 -0.66 0.27 10.08 -4.26 -0.01 -0.12 1408
-0.01 0.12 -0.76 -0.65 10.82 -4.28 -0.02 -0.11 1415
-0.01 0.10 -0.78 -1.37 11.09 -4.28 -0.03 -0.09 1422
-0.01 0.11 -0.68 -2.24 11.67 -4.28 -0.02 -0.06 1429
-0.01 0.13 -0.75 -2.87 12.18 -4.28 -0.00 -0.03 1436
-0.01 0.13 -0.73 -3.63 12.31 -4.28 0.02 0.00 1443
-0.01 0.12 -0.66 -4.29 12.36 -4.28 0.02 0.05 1451
-0.01 0.13 -0.39 -4.76 12.34 -4.28 0.00 0.07 1458
-0.01 0.11 0.11 -5.01 12.56 -4.28 -0.00 0.12 1465
-0.01 0.12 0.50 -5.13 13.16 -4.28 0.03 0.16 1472
-0.00 0.14 0.79 -5.42 13.92 -4.26 0.12 0.19 1479
0.00 0.13 0.73 -5.89 14.96 -4.23 0.24 0.20 1486
-0.00 0.13 0.57 -6.26 15.52 -4.20 0.36 0.20 1494
-0.00 0.12 0.29 -6.65 15.72 -4.18 0.40 0.20 1501
-0.01 0.13 0.15 -6.86 16.04 -4.13 0.40 0.19 1508
-0.01 0.14 0.32 -7.02 16.14 -4.05 0.39 0.18 1515
-0.01 0.14 0.52 -7.07 16.39 -3.97 0.44 0.19 1523
0.01 0.13 0.57 -7.14 16.74 -3.87 0.50 0.20 1529
-0.01 0.13 0.17 -7.37 17.03 -3.78 0.59 0.21 1538
-0.01 0.12 -0.38 -7.68 16.99 -3.69 0.65 0.22 1544
-0.01 0.13 -0.91 -8.12 16.72 -3.59 0.63 0.22 1551
-0.01 0.14 -1.07 -8.67 16.17 -3.46 0.57 0.20 1558
-0.01 0.14 -1.01 -9.16 15.68 -3.27 0.52 0.17 1566
0.00 0.13 -0.82 -9.67 15.43 -3.03 0.48 0.15 1573
-0.01 0.13 -0.59 -10.26 15.13 -2.82 0.49 0.12 1581
-0.01 0.12 7.75 -19.28 16.99 -1.94 1.00 0.30 1588
-0.01 0.14 -1.49 -7.63 8.27 -1.56 1.07 0.33 1594
-0.01 0.14 1.81 -10.10 14.50 -1.46 0.98 0.32 1602
-0.00 0.14 -1.12 -13.04 16.48 -1.62 0.65 0.30 1609
-0.01 0.13 -0.63 -11.36 16.58 -1.65 0.66 0.33 1616
-0.01 0.13 -1.31 -9.84 15.04 -2.05 0.58 0.33 1623
-0.01 0.11 -0.48 -10.68 15.46 -2.41 0.61 0.37 1631
-0.01 0.11 -0.71 -11.28 13.06 -2.66 0.75 0.46 1638
-0.01 0.13 -1.40 -12.40 10.67 -2.75 0.93 0.49 1645
-0.01 0.13 -2.51 -14.51 9.41 -2.69 1.02 0.47 1651
-0.01 0.12 -3.29 -16.62 8.26 -2.51 0.96 0.38 1658
-0.01 0.12 -4.21 -18.67 6.62 -2.22 0.75 0.21 1666
-0.01 0.13 -4.58 -21.05 4.89 -1.96 0.59 0.02 1673
-0.01 0.13 -4.85 -23.03 3.59 -1.63 0.47 -0.13 1680
-0.01 0.14 -5.66 -24.73 2.52 -1.29 0.35 -0.29 1687
-0.00 0.14 -6.31 -24.74 2.05 -0.78 0.14 -0.45 1695
-0.01 0.13 -6.44 -23.56 1.62 -0.14 -0.24 -0.54 1701
-0.01 0.13 -4.66 -26.79 10.41 1.01 -0.73 -0.78 1710
-0.01 0.13 -1.85 -20.94 0.32 2.01 -0.75 -1.05 1716
-0.01 0.15 2.88 -18.50 1.93 2.68 -0.48 -1.43 1723
-0.02 0.17 -1.64 -9.22 10.23 3.35 -0.34 -1.69 1730
-0.01 0.17 0.23 -1.11 12.78 3.39 -0.36 -1.72 1738
-0.02 0.16 2.97 1.92 15.72 3.00 -0.36 -1.64 1744
-0.02 0.24 4.60 0.16 14.20 2.33 -0.25 -1.42 1752
-0.04 0.36 5.67 0.10 11.09 1.94 -0.07 -1.07 1759
-0.04 0.39 4.90 -1.67 10.66 2.00 -0.11 -0.71 1766
-0.03 0.45 4.56 -1.87 12.16 2.37 0.01 -0.36 1774
-0.03 0.48 4.00 -1.71 12.60 2.64 0.16 0.04 1781
-0.03 0.49 2.10 -2.20 14.85 2.74 0.12 0.27 1788
-0.03 0.53 0.33 -2.89 15.74 2.53 0.18 0.41 1796
-0.03 0.62 -1.64 -3.67 15.20 2.25 0.23 0.39 1803
-0.02 0.73 -2.61 -3.50 14.20 2.01 0.14 0.19 1810
-0.02 0.80 -1.08 -2.88 13.71 1.84 0.16 -0.05 1817
-0.03 0.81 0.29 -3.03 13.43 1.58 0.26 -0.10 1824
-0.03 0.85 0.65 -3.94 18.52 0.67 -0.17 -0.03 1831
-0.04 0.96 1.22 -2.33 11.52 0.05 -0.27 0.07 1839
-0.05 0.95 -0.40 -2.34 10.76 -0.08 -0.09 0.08 1846
-0.05 0.95 -0.16 -1.43 10.09 -0.11 0.03 0.04 1852
-0.04 0.96 0.10 -1.54 9.76 -0.13 0.06 0.02 1859
-0.04 1.01 0.51 -1.18 9.52 -0.14 0.07 0.03 1866
-0.03 0.97 0.28 -1.28 9.75 -0.15 0.07 0.04 1873
-0.05 1.00 0.18 -1.30 9.69 -0.16 0.07 0.03 1881
-0.06 1.04 0.26 -1.34 9.56 -0.18 0.07 0.02 1888
-0.03 1.03 0.40 -1.31 9.81 -0.19 0.08 0.02 1895
0.00 1.10 0.20 -1.27 9.80 -0.18 0.09 0.01 1902
-0.06 1.15 0.14 -1.19 9.71 -0.18 0.10 0.01 1909
-0.06 1.15 0.08 -1.19 9.77 -0.18 0.11 0.00 1916
-0.08 1.15 0.21 -1.17 9.82 -0.17 0.12 0.00 1924
-0.08 1.24 0.23 -1.13 9.78 -0.17 0.13 0.00 1931
-0.05 1.16 0.22 -1.09 9.78 -0.16 0.14 -0.00 1938
-0.04 1.26 0.23 -1.07 9.82 -0.15 0.14 -0.00 1945
-0.05 1.26 0.23 -1.06 9.83 -0.13 0.13 -0.03 1952
-0.04 1.22 0.33 -1.02 9.87 -0.10 0.12 0.00 1959
-0.06 1.20 0.27 -0.99 9.82 -0.09 0.12 0.00 1967
-0.04 1.19 0.26 -1.01 9.80 -0.08 0.11 0.00 1974
-0.05 1.28 0.28 -1.00 9.77 -0.06 0.11 -0.00 1981
-0.04 1.27 0.29 -0.97 9.80 -0.05 0.10 0.00 1988
-0.04 1.26 0.26 -0.97 9.80 -0.05 0.10 0.00 1995
-0.05 1.28 0.29 -0.97 9.80 -0.03 0.09 0.00 2002
-0.06 1.28 0.30 -1.01 10.37 -0.02 0.08 0.00 2010
-0.05 1.28 0.31 -0.97 9.79 -0.01 0.07 -0.00 2017
-0.03 1.29 0.31 -1.00 9.76 0.00 0.05 -0.00 2024
-0.04 1.24 0.32 -0.97 9.72 0.01 0.04 -0.01 2031
-0.05 1.22 0.33 -1.00 9.71 0.02 0.04 -0.01 2038
-0.05 1.22 0.33 -0.97 9.69 0.02 0.03 -0.01 2045
-0.05 1.22 0.32 -0.95 9.70 0.02 0.02 -0.01 2053
-0.05 1.23 0.30 -0.96 9.73 0.02 0.01 -0.01 2060
-0.04 1.25 0.31 -0.96 9.73 0.02 0.01 -0.02 2067
-0.04 1.20 0.30 -0.97 9.68 0.03 0.00 -0.02 2074
-0.04 1.17 0.31 -0.96 9.73 0.02 -0.01 -0.03 2081
-0.04 1.13 0.32 -1.00 9.72 0.02 -0.02 -0.03 2088
-0.03 1.10 0.30 -0.99 9.67 0.02 -0.02 -0.03 2096
-0.03 1.11 0.29 -0.99 9.70 0.02 -0.03 -0.04 2103
-0.01 1.09 0.29 -1.02 9.71 0.02 -0.04 -0.04 2110
-0.00 1.07 0.23 -1.01 9.60 0.01 -0.04 -0.04 2117
-0.01 1.06 0.29 -0.98 9.70 0.00 -0.04 -0.04 2124
-0.02 1.06 0.34 -1.01 9.67 0.01 -0.04 -0.04 2131
-0.02 1.05 0.27 -0.94 9.63 0.01 -0.04 -0.04 2139
-0.03 1.03 0.25 -0.98 9.69 0.01 -0.04 -0.05 2146
-0.02 1.05 0.27 -0.97 9.72 0.01 -0.05 -0.05 2153
-0.03 1.02 0.24 -1.05 9.72 0.01 -0.05 -0.05 2160
-0.02 0.98 0.28 -1.01 9.73 0.02 -0.05 -0.05 2167
-0.04 0.93 0.21 -1.02 9.68 0.02 -0.04 -0.05 2174
-0.04 0.95 0.18 -1.02 9.73 0.03 -0.03 -0.05 2182
-0.02 0.93 0.23 -1.02 9.73 0.04 -0.03 -0.05 2189
-0.02 0.88 0.22 -1.02 9.76 0.05 -0.03 -0.05 2196
-0.03 0.83 0.21 -1.02 9.78 0.06 -0.02 -0.05 2203
-0.02 0.74 0.23 -1.04 9.82 0.08 -0.02 -0.05 2210
-0.03 0.74 0.23 -1.03 9.78 0.09 -0.02 -0.05 2217
-0.01 0.68 0.21 -1.03 9.80 0.11 -0.02 -0.06 2225
0.00 0.65 0.22 -1.10 9.81 0.12 -0.01 -0.06 2232
0.00 0.59 0.23 -1.11 9.81 0.13 -0.02 -0.06 2239
0.02 0.64 0.24 -1.15 9.77 0.14 -0.02 -0.06 2246
0.06 0.52 0.23 -1.14 9.80 0.16 -0.03 -0.06 2253
0.05 0.49 0.23 -1.16 9.82 0.18 -0.03 -0.07 2260
0.10 0.49 0.22 -1.23 9.83 0.19 -0.03 -0.07 2268
0.14 0.47 0.22 -1.18 9.94 0.21 -0.02 -0.07 2275
0.13 0.36 0.13 -1.15 9.86 0.23 -0.02 -0.08 2282
0.14 0.32 0.29 -1.28 9.95 0.26 -0.01 -0.09 2289
0.20 0.28 0.14 -1.27 9.92 0.29 -0.00 -0.09 2296
0.21 0.25 0.19 -1.28 10.00 0.33 0.01 -0.10 2304
0.25 0.25 0.34 -1.38 10.06 0.38 0.02 -0.12 2312
0.34 0.19 0.29 -1.42 10.16 0.43 0.05 -0.14 2319
0.41 0.15 0.43 -1.40 10.15 0.50 0.10 -0.15 2325
0.39 0.15 0.48 -1.61 10.40 0.58 0.14 -0.18 2333
0.42 0.15 0.32 -1.94 10.60 0.68 0.18 -0.21 2340
0.46 0.11 0.60 -1.79 10.07 0.86 0.22 -0.27 2347
0.48 0.12 -0.25 -1.92 11.63 1.11 0.29 -0.24 2355
0.49 0.13 0.10 -1.89 11.34 1.39 0.24 -0.20 2362
0.53 0.14 0.11 -1.97 11.48 1.56 0.20 -0.21 2369
0.58 0.15 0.30 -1.93 11.63 1.69 0.16 -0.18 2376
0.58 0.15 0.55 -2.00 12.22 1.87 0.13 -0.17 2383
0.62 0.12 0.35 -2.44 12.68 2.03 0.07 -0.17 2391
0.67 0.13 0.48 -2.35 12.86 2.25 0.10 -0.17 2398
0.71 0.12 0.80 -2.83 12.03 2.52 0.06 -0.19 2405
0.72 0.13 1.25 -2.61 12.43 2.73 0.05 -0.25 2412
0.74 0.11 0.26 -2.84 13.07 2.98 0.06 -0.29 2419
0.73 0.11 0.18 -3.05 13.41 3.21 0.00 -0.27 2426
0.75 0.13 0.70 -3.16 13.27 3.48 -0.05 -0.28 2434
0.76 0.09 0.59 -3.63 13.48 3.70 -0.10 -0.30 2441
0.78 0.07 0.69 -3.77 12.61 3.89 -0.15 -0.35 2448
0.67 0.09 1.08 -3.66 14.21 4.12 -0.27 -0.40 2455
0.64 0.05 0.14 -4.37 13.73 4.24 -0.40 -0.44 2461
0.51 0.07 0.42 -4.74 15.14 4.28 -0.54 -0.46 2469
0.40 0.07 0.54 -4.83 15.55 4.28 -0.70 -0.46 2476
0.28 0.06 1.33 -6.42 17.83 4.28 -0.82 -0.46 2484
0.24 0.06 2.71 -7.15 18.65 4.28 -0.65 -0.46 2491
0.20 0.05 1.40 -8.17 18.85 4.28 -0.58 -0.61 2498
0.09 0.04 -0.78 -9.21 22.21 4.28 -0.78 -0.72 2505
0.06 0.05 -1.42 -8.43 23.57 4.28 -1.22 -0.71 2512
0.03 0.08 -1.33 -9.15 21.93 4.28 -1.32 -0.54 2520
0.04 0.07 0.28 -7.88 21.88 4.28 -1.30 -0.55 2527
0.00 0.08 1.33 -7.87 23.85 4.28 -1.44 -0.49 2533
-0.01 0.08 2.84 -6.01 23.11 4.28 -1.50 -0.46 2540
-0.01 0.08 3.64 -2.30 20.85 4.28 -1.52 -0.47 2547
-0.01 0.11 4.67 1.36 19.62 4.28 -1.37 -0.54 2554
-0.01 0.15 3.80 4.56 18.24 4.28 -1.17 -0.61 2562
-0.01 0.11 4.77 8.52 15.66 4.28 -0.97 -0.72 2569
-0.01 0.11 4.65 14.28 11.10 4.28 -0.89 -0.91 2577
-0.01 0.13 6.59 12.48 15.49 4.15 -0.27 -0.97 2584
-0.01 0.14 5.00 14.55 25.39 2.11 0.45 -1.07 2590
-0.01 0.14 2.11 15.10 21.17 -0.25 0.68 -0.92 2598
-0.02 0.15 -0.88 12.65 16.85 -1.75 0.35 -0.60 2606
-0.01 0.15 -1.38 9.65 12.74 -2.47 -0.23 -0.39 2612
-0.01 0.14 -0.22 7.42 10.23 -2.80 -0.77 -0.26 2619
-0.01 0.14 0.94 6.13 7.88 -2.91 -1.02 -0.14 2626
-0.01 0.14 1.60 5.53 7.25 -3.02 -1.04 -0.07 2633
-0.01 0.15 2.11 5.04 7.82 -3.20 -0.91 0.01 2640
-0.01 0.15 2.28 4.99 8.66 -3.47 -0.61 0.07 2648
-0.01 0.15 2.40 5.09 9.80 -3.91 -0.27 0.12 2655
-0.01 0.15 2.10 4.36 9.80 -4.24 0.10 0.17 2662
-0.01 0.15 1.44 2.59 9.17 -4.28 0.29 0.22 2669
-0.01 0.15 1.00 2.30 8.76 -4.28 0.36 0.24 2676
-0.01 0.15 0.55 1.58 8.72 -4.28 0.36 0.26 2683
-0.01 0.14 0.09 0.87 8.95 -4.28 0.34 0.26 2691
-0.02 0.15 -0.16 0.04 9.54 -4.28 0.31 0.26 2698
-0.02 0.16 -0.41 -0.67 10.43 -4.28 0.29 0.28 2705
-0.01 0.15 -0.71 -1.24 11.09 -4.28 0.27 0.29 2712
-0.02 0.15 -0.83 -2.03 11.58 -4.28 0.25 0.31 2719
-0.02 0.16 -0.91 -2.84 12.12 -4.28 0.23 0.32 2726
-0.01 0.16 -0.97 -3.62 12.62 -4.28 0.23 0.31 2735
-0.01 0.15 -0.92 -4.25 12.75 -4.28 0.24 0.27 2742
-0.01 0.14 -0.74 -4.66 13.00 -4.28 0.26 0.23 2749
-0.01 0.14 -0.43 -5.02 13.24 -4.28 0.27 0.18 2755
-0.01 0.16 -0.18 -5.20 13.76 -4.28 0.31 0.13 2763
-0.01 0.17 0.01 -5.41 14.26 -4.28 0.39 0.08 2769
-0.01 0.17 -0.00 -5.80 15.09 -4.27 0.47 0.03 2777
-0.01 0.17 -0.18 -6.32 15.56 -4.26 0.56 -0.01 2785
-0.01 0.16 -0.30 -7.08 16.02 -4.23 0.61 -0.08 2791
-0.02 0.17 -0.39 -7.64 16.31 -4.17 0.65 -0.14 2798
-0.01 0.18 -0.23 -7.89 16.56 -4.08 0.71 -0.21 2806
-0.00 0.18 -0.16 -7.83 16.94 -3.99 0.77 -0.26 2813
-0.01 0.17 -0.16 -7.74 17.27 -3.90 0.83 -0.27 2821
-0.01 0.16 -0.31 -7.66 17.56 -3.81 0.87 -0.24 2828
-0.01 0.14 -0.44 -7.66 17.56 -3.72 0.89 -0.18 2835
-0.01 0.15 -0.53 -7.87 17.42 -3.59 0.91 -0.12 2841
-0.01 0.14 -0.45 -8.20 17.18 -3.45 0.95 -0.03 2848
-0.01 0.13 -0.61 -8.58 17.12 -3.27 1.00 0.05 2855
-0.01 0.12 -1.03 -9.04 17.49 -3.07 1.03 0.12 2863
-0.01 0.13 -1.49 -9.42 17.95 -2.91 1.03 0.19 2870
-0.01 0.10 -1.80 -9.60 18.48 -2.82 1.04 0.22 2877
-0.01 0.12 -1.68 -9.75 18.95 -2.86 1.11 0.23 2884
-0.01 0.14 -1.71 -10.08 19.18 -3.05 1.19 0.23 2892
-0.01 0.13 -1.86 -10.64 18.93 -3.36 1.24 0.21 2899
-0.01 0.13 -1.94 -11.31 17.30 -3.64 1.23 0.19 2907
-0.01 0.13 -1.94 -12.83 15.26 -3.85 1.12 0.22 2914
-0.01 0.12 -2.20 -15.29 12.89 -3.86 1.00 0.27 2921
-0.01 0.13 -2.12 -18.66 10.61 -3.67 0.90 0.21 2928
-0.01 0.14 -2.28 -21.83 8.36 -3.33 0.81 0.10 2934
-0.01 0.14 -2.88 -26.00 5.59 -2.97 0.80 -0.15 2941
-0.01 0.13 -3.95 -30.27 2.46 -2.53 0.87 -0.36 2949
-0.01 0.12 -6.50 -34.74 1.09 -2.04 1.10 -0.52 2956
-0.01 0.14 -9.41 -36.79 0.06 -1.47 1.11 -0.58 2963
-0.01 0.14 -11.75 -34.76 0.30 -0.60 0.57 -0.58 2970
-0.01 0.15 -11.12 -29.37 2.08 0.16 -0.38 -0.59 2978
-0.01 0.14 -8.32 -24.15 4.53 0.80 -1.13 -0.57 2985
-0.01 0.13 -4.52 -19.43 6.80 1.10 -1.62 -0.53 2992
-0.01 0.13 -1.32 -16.40 8.54 1.17 -1.71 -0.50 3000
-0.01 0.14 26.81 -26.25 4.12 1.89 -1.83 -0.86 3007
-0.02 0.17 -0.99 -0.04 5.44 3.14 -0.37 -1.19 3013
-0.02 0.22 2.87 11.72 5.60 3.16 -0.43 -1.25 3020
-0.03 0.39 0.65 -2.05 14.19 2.87 -1.13 -1.23 3028
-0.04 0.50 7.46 2.49 9.04 2.60 -1.05 -0.90 3035
-0.04 0.55 7.32 -0.36 8.44 2.67 -0.82 -0.41 3042
-0.05 0.61 3.37 -2.11 11.37 3.24 -0.52 0.10 3050
-0.04 0.68 2.69 -3.25 16.05 3.89 0.08 0.53 3057
-0.03 0.78 2.00 -3.58 20.23 3.89 0.49 0.80 3063
-0.04 0.96 -4.05 -6.09 22.54 3.33 0.53 0.82 3072
-0.06 1.16 -4.66 -4.92 16.77 3.04 0.43 0.46 3079
-0.06 1.20 -2.40 -3.67 16.26 2.88 0.24 0.05 3086
-0.06 1.33 0.18 -2.84 15.68 2.52 0.33 -0.04 3093
-0.04 1.37 1.60 -2.78 14.10 2.23 0.51 0.04 3100
-0.02 1.44 0.72 -3.75 20.18 1.75 -0.04 0.15 3107
-0.04 1.42 0.79 -2.17 12.83 0.50 -0.46 0.14 3115
-0.06 1.38 -0.42 -2.34 11.30 0.12 -0.33 0.12 3122
-0.07 1.32 0.20 -1.46 10.72 0.02 -0.15 0.11 3129
-0.06 1.35 0.18 -1.48 10.13 -0.10 -0.02 0.10 3136
-0.08 1.39 0.12 -1.43 9.96 -0.10 0.00 0.07 3142
-0.05 1.39 0.29 -1.37 9.79 -0.11 0.01 0.06 3149
-0.08 1.35 0.23 -1.48 9.94 -0.11 0.01 0.04 3156
-0.07 1.41 0.16 -1.29 9.80 -0.10 0.03 0.02 3164
-0.08 1.42 0.16 -1.21 9.84 -0.09 0.04 0.01 3171
-0.07 1.41 0.16 -1.20 9.78 -0.09 0.05 -0.00 3178
-0.08 1.43 0.12 -1.08 9.77 -0.08 0.07 -0.00 3185
-0.07 1.44 0.18 -1.03 9.83 -0.07 0.08 -0.00 3192
-0.08 1.45 0.22 -1.01 9.73 -0.06 0.09 -0.00 3200
-0.07 1.43 0.18 -0.97 9.74 -0.05 0.10 -0.00 3207
-0.08 1.38 0.16 -0.93 9.79 -0.04 0.12 -0.00 3214
-0.08 1.34 0.12 -0.90 9.81 -0.03 0.13 -0.00 3221
-0.07 1.33 0.17 -0.94 9.77 0.00 0.15 0.00 3228
-0.06 1.29 0.23 -0.94 9.82 0.02 0.16 0.01 3235
-0.05 1.23 0.22 -0.95 9.75 0.04 0.16 0.01 3243
-0.05 1.19 0.28 -0.94 9.75 0.06 0.16 0.02 3250
-0.07 1.13 0.29 -0.90 9.72 0.07 0.16 0.01 3257
-0.06 1.10 0.40 -1.01 9.67 0.08 0.16 0.01 3264
-0.04 1.00 0.39 -1.01 9.69 0.09 0.15 0.01 3271
-0.06 0.99 0.49 -0.98 9.65 0.09 0.13 0.00 3278
-0.04 0.97 0.48 -0.99 9.62 0.09 0.11 -0.00 3286
-0.05 0.92 0.44 -0.99 9.69 0.08 0.09 -0.01 3293
-0.06 0.92 0.42 -1.03 9.68 0.08 0.08 -0.01 3300
-0.04 0.87 0.33 -0.98 9.69 0.07 0.07 -0.01 3307
-0.03 0.83 0.39 -1.06 9.62 0.06 0.06 -0.01 3314
-0.03 0.79 0.38 -1.01 9.63 0.06 0.05 -0.02 3321
-0.04 0.82 0.39 -1.07 9.68 0.05 0.06 -0.02 3329
-0.03 0.80 0.41 -1.02 9.65 0.05 0.06 -0.02 3336
-0.04 0.76 0.42 -1.06 9.70 0.05 0.05 -0.02 3343
-0.01 0.79 0.45 -1.08 9.70 0.05 0.04 -0.03 3350
-0.01 0.72 0.45 -1.08 9.73 0.05 0.03 -0.03 3357
0.01 0.69 0.50 -1.09 9.74 0.06 0.01 -0.03 3364
0.01 0.62 0.44 -1.10 9.80 0.08 -0.01 -0.04 3372
-0.02 0.64 0.45 -1.10 9.73 0.08 -0.02 -0.04 3379
0.02 0.62 0.39 -1.06 9.80 0.09 -0.03 -0.05 3386
0.02 0.63 0.44 -1.10 9.73 0.10 -0.04 -0.05 3393
0.04 0.62 0.43 -1.16 9.78 0.10 -0.06 -0.06 3400
0.05 0.56 0.38 -1.11 9.78 0.12 -0.06 -0.06 3407
0.06 0.57 0.40 -1.13 9.76 0.13 -0.06 -0.06 3415
0.07 0.47 0.41 -1.17 9.81 0.14 -0.07 -0.07 3422
0.10 0.43 0.41 -1.17 10.40 0.16 -0.07 -0.07 3429
0.09 0.40 0.38 -1.14 9.80 0.18 -0.08 -0.08 3436
0.07 0.41 0.37 -1.30 9.83 0.19 -0.08 -0.08 3443
0.06 0.32 0.39 -1.25 9.83 0.21 -0.08 -0.09 3450
0.06 0.34 0.36 -1.30 9.91 0.23 -0.08 -0.09 3458
0.09 0.26 0.35 -1.31 9.87 0.26 -0.08 -0.10 3465
0.12 0.25 0.34 -1.28 9.92 0.29 -0.08 -0.10 3472
0.15 0.26 0.40 -1.38 9.92 0.32 -0.07 -0.12 3479
0.15 0.21 0.35 -1.39 9.98 0.36 -0.06 -0.13 3486
0.22 0.21 0.71 -1.31 10.06 0.40 -0.04 -0.15 3494
0.25 0.13 0.68 -1.47 10.01 0.45 -0.02 -0.17 3502
0.26 0.13 0.74 -1.53 10.19 0.50 0.01 -0.21 3508
0.28 0.16 0.85 -1.59 10.04 0.55 0.06 -0.28 3516
0.31 0.13 0.50 -1.75 10.36 0.62 0.12 -0.33 3523
0.31 0.16 0.41 -1.92 10.96 0.77 0.18 -0.34 3530
0.31 0.14 -0.12 -1.97 10.76 1.00 0.18 -0.29 3537
0.34 0.13 0.08 -2.06 10.53 1.14 0.18 -0.25 3545
0.41 0.13 0.03 -1.93 10.98 1.24 0.19 -0.23 3552
0.38 0.16 0.33 -2.23 10.47 1.36 0.18 -0.20 3559
0.42 0.14 0.05 -2.27 11.55 1.50 0.20 -0.18 3565
0.44 0.15 -0.04 -2.25 11.07 1.60 0.16 -0.14 3573
0.43 0.11 -0.04 -2.72 11.15 1.73 0.13 -0.12 3580
0.46 0.12 0.11 -2.73 11.25 1.84 0.10 -0.11 3588
0.49 0.12 0.58 -2.80 11.26 2.00 0.09 -0.10 3594
0.51 0.10 1.05 -2.80 11.50 2.16 0.07 -0.13 3602
0.53 0.10 0.96 -3.19 11.46 2.31 0.08 -0.17 3609
0.53 0.10 0.80 -3.14 12.13 2.52 0.09 -0.22 3616
0.54 0.13 0.88 -3.15 12.43 2.72 0.10 -0.26 3623
0.55 0.12 0.96 -3.30 12.91 2.96 0.09 -0.30 3631
0.54 0.09 0.45 -3.10 13.39 3.20 0.11 -0.33 3638
0.55 0.10 0.59 -3.58 13.01 3.43 0.05 -0.33 3645
0.56 0.09 0.98 -4.11 13.21 3.72 0.02 -0.34 3652
0.49 0.08 0.40 -4.40 13.55 4.01 0.04 -0.36 3658
0.45 0.05 1.46 -4.73 14.00 4.23 -0.03 -0.39 3666
0.33 0.03 0.45 -5.25 15.63 4.28 -0.14 -0.41 3674
0.30 0.04 0.18 -5.71 16.87 4.28 -0.11 -0.41 3681
0.20 0.06 -0.05 -6.50 18.98 4.28 -0.21 -0.37 3687
0.18 0.08 1.71 -7.36 17.89 4.28 -0.28 -0.34 3695
0.12 0.09 1.31 -9.33 18.96 4.28 -0.19 -0.44 3702
0.09 0.07 -0.52 -9.04 21.97 4.28 -0.36 -0.50 3708
0.04 0.10 -1.19 -8.44 23.15 4.28 -0.69 -0.44 3717
0.03 0.10 -0.56 -9.25 22.53 4.28 -0.76 -0.36 3724
0.04 0.08 -0.46 -7.74 21.36 4.28 -0.79 -0.31 3731
-0.01 0.08 0.68 -8.08 25.61 4.28 -0.79 -0.28 3737
-0.01 0.07 2.89 -7.10 25.87 4.28 -1.03 -0.29 3744
-0.01 0.08 3.83 -1.96 23.11 4.28 -1.03 -0.28 3751
-0.01 0.11 5.34 0.67 22.51 4.28 -0.81 -0.34 3759
-0.01 0.12 6.13 4.27 21.78 4.28 -0.35 -0.43 3766
-0.01 0.12 6.27 9.52 19.65 4.28 0.09 -0.65 3773
-0.01 0.11 3.28 17.59 12.64 4.28 0.51 -1.10 3781
-0.01 0.12 8.01 14.80 19.74 4.17 1.42 -1.44 3788
-0.01 0.12 4.49 15.04 28.76 1.47 1.83 -1.50 3795
-0.01 0.14 -1.72 14.34 22.70 -0.72 1.82 -1.38 3803
-0.01 0.14 -3.15 11.86 16.74 -1.86 1.16 -1.09 3810
-0.01 0.13 -3.45 9.59 13.36 -2.51 0.17 -0.89 3816
-0.01 0.13 -2.48 7.28 10.52 -2.74 -0.82 -0.76 3823
-0.01 0.13 -0.50 6.47 9.03 -2.91 -1.33 -0.65 3830
-0.01 0.13 1.54 5.87 8.92 -3.21 -1.50 -0.52 3837
-0.01 0.14 2.76 5.18 9.37 -3.50 -1.28 -0.38 3845
-0.01 0.14 3.06 4.76 9.62 -3.86 -0.95 -0.27 3852
-0.01 0.13 2.69 4.17 9.60 -4.17 -0.53 -0.15 3859
-0.01 0.13 1.81 3.43 9.22 -4.27 -0.25 -0.06 3866
-0.01 0.13 0.78 2.84 9.11 -4.28 -0.08 0.01 3873
-0.01 0.14 0.69 2.18 9.17 -4.28 -0.08 0.07 3880
-0.01 0.14 0.93 1.83 9.43 -4.28 -0.13 0.11 3888
-0.00 0.14 1.25 1.34 10.12 -4.28 -0.14 0.13 3896
-0.02 0.16 1.37 0.45 10.77 -4.28 -0.06 0.14 3902
-0.02 0.16 1.26 -0.50 11.44 -4.28 0.07 0.15 3909
-0.01 0.15 0.68 -1.72 12.05 -4.28 0.20 0.18 3916
-0.02 0.16 0.01 -2.61 12.43 -4.28 0.22 0.20 3923
-0.01 0.17 -0.47 -3.42 12.58 -4.28 0.16 0.19 3932
-0.00 0.16 -0.71 -4.20 13.03 -4.28 0.03 0.14 3938
-0.02 0.15 -0.62 -4.70 13.22 -4.28 -0.02 0.06 3945
-0.02 0.15 -0.20 -5.02 13.05 -4.28 -0.03 -0.05 3952
-0.01 0.14 0.26 -5.21 13.04 -4.28 0.02 -0.15 3959
-0.01 0.16 0.75 -5.43 13.22 -4.28 0.16 -0.23 3968
-0.01 0.17 1.00 -5.61 13.80 -4.28 0.33 -0.28 3975
-0.00 0.16 1.00 -5.50 14.51 -4.28 0.47 -0.27 3982
-0.01 0.16 0.91 -5.31 15.57 -4.28 0.60 -0.24 3989
-0.01 0.15 0.63 -5.57 16.66 -4.28 0.67 -0.17 3996
-0.01 0.16 0.22 -5.99 17.35 -4.28 0.69 -0.08 4003
-0.01 0.13 0.07 -6.53 17.90 -4.28 0.68 -0.00 4009
-0.01 0.13 0.14 -6.75 18.49 -4.28 0.68 0.06 4018
-0.01 0.13 0.00 -7.19 19.05 -4.27 0.71 0.13 4024
-0.01 0.13 -0.32 -7.65 19.45 -4.23 0.74 0.17 4032
-0.01 0.12 -0.88 -8.13 19.62 -4.17 0.77 0.17 4038
-0.01 0.13 -1.48 -9.00 19.56 -4.07 0.77 0.14 4045
-0.01 0.14 -1.77 -9.90 19.52 -3.86 0.78 0.06 4052
-0.00 0.13 -1.81 -11.58 19.22 -3.63 0.83 -0.06 4061
-0.01 0.12 1.92 -27.46 24.83 -3.02 1.13 -0.02 4068
-0.01 0.13 -6.35 -10.46 11.73 -2.58 1.18 -0.15 4075
-0.01 0.12 -1.25 -13.99 12.15 -2.96 1.02 -0.50 4082
-0.01 0.12 -3.05 -17.69 27.52 -3.26 0.97 -0.65 4089
-0.01 0.11 -2.70 -17.36 21.73 -3.81 0.99 -0.72 4097
-0.01 0.11 -0.83 -17.22 16.93 -4.19 1.13 -0.68 4104
-0.01 0.12 0.12 -20.30 15.25 -4.25 1.12 -0.56 4111
-0.01 0.10 -2.39 -24.52 9.27 -4.14 1.25 -0.30 4117
-0.01 0.08 -4.34 -30.28 6.35 -3.62 1.30 -0.11 4124
-0.01 0.10 -6.63 -35.82 3.62 -2.88 1.17 0.02 4131
-0.01 0.11 -9.49 -41.90 0.12 -2.29 1.01 0.24 4139
-0.01 0.10 -11.89 -45.15 -2.44 -1.58 0.77 0.49 4147
-0.01 0.14 -13.59 -44.25 -2.07 -0.64 0.16 0.75 4154
-0.01 0.14 -8.10 -50.51 8.76 0.83 -0.92 0.72 4160
-0.01 0.15 -4.07 -40.23 -3.79 2.77 -1.08 0.32 4167
-0.02 0.15 0.37 -14.93 4.14 3.91 -0.16 -0.48 4174
-0.02 0.20 -2.16 0.33 11.24 4.24 -0.30 -0.74 4182
-0.02 0.33 -2.82 2.37 17.89 3.77 -0.66 -1.00 4190
-0.03 0.39 4.36 -0.04 16.39 2.89 -0.72 -0.97 4197
-0.04 0.51 6.29 -0.35 10.81 2.43 -0.70 -0.70 4204
-0.05 0.67 1.63 -2.29 13.09 2.97 -0.75 -0.39 4211
-0.04 0.65 4.21 -3.45 15.68 3.60 -0.41 -0.01 4218
-0.04 0.80 4.89 -3.58 16.53 3.87 0.04 0.46 4225
-0.04 0.92 -1.03 -5.09 23.10 3.48 0.44 0.81 4233
-0.03 1.08 -3.88 -4.95 17.30 2.85 0.41 0.66 4240
-0.04 1.20 -4.30 -3.79 15.98 2.69 0.24 0.21 4247
-0.05 1.31 -1.03 -2.67 14.68 2.46 0.28 -0.04 4254
-0.05 1.32 1.78 -2.28 13.40 2.17 0.49 -0.01 4261
-0.03 1.36 1.43 -3.72 19.24 1.74 -0.05 0.13 4269
-0.05 1.44 1.37 -2.30 13.29 0.58 -0.47 0.19 4276
-0.07 1.39 -0.75 -2.68 11.38 0.13 -0.29 0.19 4283
-0.06 1.34 -0.29 -1.67 10.52 0.00 -0.10 0.11 4290
-0.05 1.31 0.23 -1.26 9.93 -0.09 0.03 0.09 4296
-0.04 1.32 0.22 -1.34 10.01 -0.09 0.06 0.07 4303
-0.07 1.31 0.18 -0.74 9.87 -0.09 0.08 0.03 4311
-0.08 1.34 0.10 -1.27 9.80 -0.09 0.09 0.05 4318
-0.08 1.34 0.26 -1.13 9.72 -0.10 0.13 0.04 4325
-0.08 1.30 0.25 -1.10 9.75 -0.08 0.10 0.03 4332
-0.08 1.33 0.24 -1.17 9.75 -0.08 0.10 0.02 4339
-0.04 1.32 0.18 -1.14 9.78 -0.07 0.09 0.01 4346
-0.06 1.32 0.29 -1.14 9.78 -0.07 0.08 0.00 4354
-0.08 1.29 0.27 -1.12 9.74 -0.06 0.08 -0.00 4361
-0.07 1.28 0.26 -1.08 9.77 -0.06 0.07 -0.01 4368
-0.08 1.27 0.25 -0.98 9.74 -0.04 0.06 -0.00 4375
-0.07 1.26 0.21 -0.99 9.80 -0.02 0.06 -0.01 4382
-0.07 1.27 0.20 -0.95 9.82 0.00 0.06 -0.00 4389
-0.06 1.16 0.24 -1.00 9.82 0.03 0.05 -0.01 4397
-0.06 1.15 0.26 -0.93 9.81 0.05 0.05 -0.00 4404
-0.05 1.07 0.23 -1.02 9.77 0.07 0.05 -0.00 4411
-0.04 1.02 0.27 -1.02 9.78 0.08 0.05 -0.01 4418
-0.03 0.98 0.27 -1.01 9.72 0.09 0.05 -0.01 4425
-0.04 0.97 0.27 -1.02 9.73 0.09 0.05 -0.01 4432
-0.02 0.95 0.32 -1.04 9.73 0.10 0.05 -0.02 4440
-0.01 0.88 0.35 -1.02 9.67 0.10 0.05 -0.02 4447
-0.03 0.87 0.37 -1.07 9.69 0.10 0.04 -0.03 4454
-0.02 0.78 0.38 -1.08 9.72 0.09 0.04 -0.03 4461
-0.02 0.78 0.38 -1.09 9.68 0.09 0.02 -0.04 4468
-0.02 0.78 0.32 -1.13 9.74 0.10 0.01 -0.04 4475
-0.01 0.68 0.32 -1.14 9.71 0.09 0.01 -0.04 4483
-0.01 0.71 0.27 -1.16 9.67 0.10 0.01 -0.04 4490
0.00 0.62 0.30 -1.19 9.72 0.09 0.00 -0.04 4497
-0.02 0.60 0.37 -1.16 9.70 0.10 0.00 -0.04 4504
-0.01 0.60 0.39 -1.15 9.72 0.10 0.00 -0.05 4511
0.02 0.55 0.37 -1.18 9.73 0.10 0.00 -0.05 4518
-0.00 0.57 0.40 -1.20 9.78 0.10 -0.01 -0.05 4526
-0.00 0.54 0.37 -1.20 9.72 0.11 -0.01 -0.05 4533
0.04 0.54 0.37 -1.19 9.77 0.11 -0.02 -0.06 4540
0.06 0.49 0.31 -1.22 9.70 0.11 -0.03 -0.06 4547
0.09 0.43 0.40 -1.24 9.81 0.13 -0.05 -0.07 4554
0.09 0.48 0.31 -1.22 9.80 0.14 -0.06 -0.07 4561
0.13 0.40 0.42 -1.31 9.78 0.15 -0.07 -0.08 4569
0.11 0.34 0.33 -1.31 9.82 0.17 -0.08 -0.08 4576
0.08 0.39 0.34 -1.27 9.80 0.19 -0.08 -0.09 4583
0.13 0.32 0.32 -1.31 9.89 0.21 -0.09 -0.09 4590
0.13 0.30 0.33 -1.38 9.85 0.23 -0.08 -0.10 4597
0.17 0.28 0.27 -1.36 9.87 0.25 -0.08 -0.11 4604
0.19 0.22 0.37 -1.43 9.81 0.28 -0.06 -0.10 4612
0.22 0.20 0.26 -1.42 9.93 0.29 -0.05 -0.11 4619
0.21 0.23 0.27 -1.61 9.82 0.32 -0.03 -0.12 4626
0.21 0.20 0.34 -1.46 10.00 0.35 -0.01 -0.13 4633
0.20 0.17 0.41 -1.63 9.92 0.38 0.01 -0.13 4640
0.26 0.15 0.28 -1.64 10.12 0.42 0.02 -0.15 4648
0.28 0.15 0.57 -1.60 10.12 0.47 0.03 -0.17 4655
0.34 0.11 0.61 -1.65 10.30 0.55 0.04 -0.20 4662
0.28 0.12 0.50 -1.97 10.97 0.68 0.05 -0.21 4669
0.35 0.12 0.31 -1.95 10.89 0.84 0.07 -0.22 4677
0.37 0.15 -0.02 -2.04 10.94 1.01 0.07 -0.22 4684
0.40 0.10 0.34 -2.06 10.61 1.10 0.08 -0.22 4690
0.41 0.11 0.09 -2.15 10.69 1.20 0.08 -0.22 4699
0.41 0.15 0.32 -2.28 10.98 1.30 0.08 -0.21 4706
0.42 0.16 0.25 -2.14 10.72 1.39 0.07 -0.19 4713
0.45 0.14 0.01 -2.33 10.57 1.48 0.06 -0.18 4719
0.45 0.15 0.11 -2.40 10.14 1.55 0.05 -0.17 4727
0.48 0.12 0.13 -2.51 10.73 1.66 0.07 -0.14 4734
0.50 0.08 0.34 -2.65 10.93 1.79 0.08 -0.13 4741
0.52 0.09 0.09 -2.88 11.24 1.92 0.12 -0.12 4749
0.52 0.09 0.14 -2.79 11.87 2.07 0.14 -0.11 4756
0.53 0.11 0.48 -4.56 12.39 2.25 0.14 -0.11 4763
0.52 0.12 0.78 -3.09 11.95 2.42 0.17 -0.15 4770
0.52 0.14 0.31 -3.66 12.66 2.61 0.16 -0.17 4777
0.54 0.12 0.27 -3.60 13.05 2.82 0.11 -0.19 4785
0.56 0.09 1.05 -3.53 12.75 3.07 0.10 -0.22 4792
0.53 0.10 0.79 -3.94 13.02 3.35 0.06 -0.27 4799
0.54 0.08 0.99 -4.41 13.78 3.62 0.01 -0.33 4806
0.50 0.05 0.84 -5.07 14.45 3.95 -0.04 -0.37 4812
0.47 0.05 1.83 -4.36 13.54 4.19 -0.15 -0.42 4820
0.42 0.04 1.04 -6.06 15.11 4.28 -0.34 -0.47 4828
0.30 0.04 1.24 -6.22 17.36 4.28 -0.49 -0.50 4835
0.23 0.05 1.23 -6.84 18.54 4.28 -0.52 -0.49 4842
0.19 0.06 2.55 -7.44 17.42 4.28 -0.56 -0.55 4849
0.16 0.07 1.76 -8.66 19.53 4.28 -0.51 -0.71 4856
0.11 0.09 -1.02 -8.93 22.55 4.28 -0.73 -0.84 4864
0.07 0.05 -0.95 -8.86 24.34 4.28 -1.13 -0.78 4871
0.03 0.04 -0.61 -9.59 22.61 4.28 -1.28 -0.68 4878
0.03 0.10 1.03 -8.77 24.16 4.28 -1.52 -0.74 4885
0.02 0.09 2.51 -8.85 25.98 4.28 -1.73 -0.74 4892
0.01 0.10 4.11 -5.94 25.74 4.28 -1.79 -0.71 4899
-0.01 0.10 5.32 -0.66 24.29 4.28 -1.64 -0.68 4905
-0.01 0.10 5.49 3.16 23.45 4.28 -1.28 -0.69 4913
-0.01 0.13 6.46 8.37 19.10 4.28 -1.00 -0.74 4920
-0.01 0.14 8.70 23.31 16.20 4.28 -0.56 -0.86 4928
-0.01 0.14 7.26 25.38 10.57 3.79 0.11 -0.90 4935
-0.01 0.13 6.87 21.54 32.65 0.73 0.93 -0.77 4941
-0.01 0.12 2.22 18.51 26.35 -1.68 0.79 -0.28 4950
-0.01 0.11 -1.04 16.30 16.63 -2.92 0.42 0.09 4956
-0.01 0.11 -0.75 13.48 12.51 -3.22 -0.40 0.26 4964
-0.01 0.13 1.02 10.20 9.09 -3.24 -0.94 0.29 4970
-0.00 0.12 2.01 8.56 8.37 -3.23 -1.06 0.32 4977
-0.01 0.12 2.86 7.43 9.13 -3.38 -0.87 0.36 4984
-0.01 0.12 2.99 7.40 10.33 -3.68 -0.57 0.37 4992
-0.01 0.11 2.46 7.18 11.53 -4.12 -0.19 0.37 4999
-0.01 0.13 1.04 6.28 13.00 -4.28 0.13 0.36 5006
-0.01 0.15 0.00 4.95 13.35 -4.28 0.27 0.34 5013
-0.01 0.13 -0.83 3.12 12.86 -4.28 0.21 0.26 5021
-0.01 0.12 -1.27 1.66 12.58 -4.28 0.07 0.17 5027
-0.01 0.12 -1.18 0.14 12.26 -4.28 -0.11 0.07 5035
-0.01 0.12 -0.87 -1.00 12.19 -4.28 -0.18 -0.03 5042
-0.01 0.14 -0.68 -2.13 12.18 -4.28 -0.13 -0.11 5049
-0.02 0.16 -0.60 -3.44 12.62 -4.28 -0.01 -0.21 5056
-0.01 0.14 -0.81 -4.35 12.80 -4.28 0.13 -0.33 5064
-0.01 0.13 -1.17 -4.91 12.94 -4.28 0.28 -0.43 5070
-0.01 0.13 -1.50 -5.68 13.58 -4.28 0.41 -0.55 5078
-0.01 0.13 -1.76 -6.06 14.00 -4.28 0.48 -0.64 5085
-0.01 0.14 -1.72 -6.07 14.23 -4.28 0.53 -0.72 5093
0.00 0.13 -1.43 -5.79 14.48 -4.28 0.53 -0.74 5100
-0.01 0.14 -0.97 -5.79 14.73 -4.27 0.56 -0.72 5107
-0.02 0.15 -0.44 -5.92 14.81 -4.26 0.60 -0.63 5113
-0.01 0.14 -0.20 -6.30 14.73 -4.21 0.65 -0.53 5122
-0.01 0.15 -0.03 -7.14 14.76 -4.08 0.71 -0.39 5128
-0.01 0.15 0.14 -7.89 14.97 -3.86 0.79 -0.24 5136
-0.00 0.15 0.25 -8.18 15.57 -3.57 0.83 -0.13 5143
-0.01 0.13 0.17 -8.24 15.75 -3.33 0.84 -0.00 5150
-0.01 0.13 0.06 -8.42 15.61 -3.15 0.81 0.13 5157
-0.01 0.12 0.09 -8.71 15.86 -2.92 0.78 0.23 5164
-0.01 0.11 0.18 -8.99 16.21 -2.73 0.78 0.34 5171
-0.01 0.11 0.07 -9.38 16.74 -2.53 0.85 0.40 5178
-0.00 0.11 -0.29 -9.39 17.96 -2.45 0.99 0.44 5186
-0.01 0.12 -0.63 -9.56 18.71 -2.53 1.14 0.44 5192
-0.01 0.12 -0.80 -9.59 19.09 -2.78 1.37 0.42 5199
-0.01 0.11 -0.93 -10.15 18.94 -3.05 1.60 0.35 5208
-0.01 0.11 -1.37 -11.04 18.50 -3.35 1.75 0.29 5215
-0.01 0.13 -2.19 -12.23 18.21 -3.57 1.81 0.22 5222
-0.01 0.15 -3.60 -13.44 17.38 -3.71 1.74 0.17 5229
-0.02 0.16 -3.78 -14.42 16.20 -3.82 1.59 0.16 5236
-0.01 0.12 -4.16 -15.80 14.53 -3.85 1.30 0.17 5243
-0.00 0.12 -4.16 -17.18 12.55 -3.80 1.05 0.19 5251
0.01 0.11 -3.86 -19.20 10.92 -3.62 0.86 0.20 5258
0.00 0.11 -3.44 -21.55 9.19 -3.40 0.72 0.15 5265
0.01 0.12 -2.93 -23.64 7.64 -3.06 0.56 0.04 5272
0.01 0.12 -2.21 -25.78 5.83 -2.67 0.36 -0.17 5279
-0.00 0.11 -1.71 -27.97 4.39 -2.33 0.28 -0.42 5286
-0.01 0.11 -1.93 -29.77 3.31 -1.89 0.36 -0.60 5294
0.01 0.12 -3.39 -31.35 2.52 -1.45 0.52 -0.73 5301
0.01 0.13 -5.09 -31.41 2.69 -0.85 0.51 -0.73 5308
0.01 0.13 -6.41 -29.72 3.25 -0.20 0.19 -0.68 5315
0.01 0.13 -5.73 -27.32 2.77 0.32 -0.28 -0.58 5322
0.00 0.14 -10.27 -36.77 20.99 2.15 -1.68 -0.57 5329
-0.02 0.18 0.73 -22.73 1.49 2.96 -1.66 -0.69 5336
-0.02 0.18 3.09 -0.07 4.38 3.69 -1.54 -0.74 5343
-0.02 0.27 0.16 2.29 15.69 3.57 -1.56 -0.68 5351
-0.03 0.35 3.02 0.40 16.70 3.04 -1.39 -0.46 5357
-0.04 0.45 3.30 2.30 12.25 2.58 -1.22 -0.18 5364
-0.03 0.54 2.12 -0.61 9.86 2.63 -1.21 0.11 5371
-0.04 0.61 0.57 -2.20 13.61 3.03 -1.08 0.35 5380
-0.04 0.64 0.72 -2.48 13.85 3.50 -0.45 0.54 5387
-0.03 0.68 -0.57 -2.98 16.95 3.54 0.02 0.70 5394
-0.05 0.74 -3.04 -4.48 19.12 3.12 0.21 0.70 5401
-0.03 0.93 -3.50 -4.42 17.15 2.81 0.23 0.45 5408
-0.04 1.04 -2.42 -3.10 14.14 2.74 0.15 0.14 5415
-0.03 1.13 -0.06 -2.86 14.27 2.56 0.20 0.06 5423
-0.02 1.20 0.79 -2.36 12.84 2.36 0.35 0.12 5430
-0.01 1.20 0.99 -3.65 21.75 1.95 0.07 0.17 5437
-0.04 1.28 1.32 -1.71 13.21 0.35 -0.61 0.15 5444
-0.02 1.31 -0.59 -3.13 11.96 -0.07 -0.29 0.12 5451
-0.08 1.35 -0.57 -1.91 10.60 -0.15 -0.09 0.06 5458
-0.04 1.32 0.26 -1.48 9.92 -0.16 -0.03 0.03 5465
-0.05 1.30 0.27 -1.82 9.75 -0.15 -0.04 0.04 5472
-0.06 1.35 0.20 -1.35 10.12 -0.14 -0.04 0.03 5480
-0.07 1.37 -0.04 -1.36 9.85 -0.13 -0.03 0.01 5486
-0.08 1.37 0.15 -1.28 9.89 -0.11 -0.02 -0.00 5493
-0.09 1.31 0.12 -1.17 9.90 -0.09 -0.01 -0.01 5500
-0.07 1.38 0.11 -1.14 9.73 -0.07 -0.00 -0.02 5508
-0.04 1.32 0.10 -1.08 9.68 -0.06 -0.00 -0.03 5515
-0.06 1.36 0.10 -1.11 9.79 -0.06 0.01 -0.02 5522
-0.06 1.32 0.07 -1.08 9.78 -0.05 0.01 -0.03 5529
-0.06 1.27 0.09 -1.02 9.76 -0.04 0.03 -0.03 5536
-0.05 1.22 0.06 -0.98 9.74 -0.02 0.04 -0.03 5543
-0.04 1.25 0.07 -0.95 9.77 -0.01 0.06 -0.03 5551
-0.02 1.22 0.12 -1.00 9.82 0.00 0.07 -0.03 5558
-0.02 1.20 0.10 -0.99 9.81 0.02 0.06 -0.02 5565
-0.04 1.17 0.12 -0.98 9.82 0.04 0.07 -0.02 5572
0.00 1.14 0.14 -0.96 9.77 0.06 0.06 -0.02 5579
-0.00 1.10 0.16 -1.02 9.75 0.08 0.05 -0.02 5586
-0.01 1.08 0.20 -0.95 9.74 0.09 0.05 -0.03 5594
0.00 1.05 0.23 -1.01 9.68 0.09 0.04 -0.03 5601
0.00 1.04 0.20 -1.03 9.76 0.10 0.03 -0.03 5608
-0.00 1.00 0.22 -1.08 9.76 0.10 0.02 -0.04 5615
-0.02 0.94 0.26 -1.07 9.72 0.11 0.00 -0.04 5622
-0.00 0.90 0.24 -1.06 9.72 0.11 -0.01 -0.05 5629
0.00 0.87 0.23 -1.07 9.76 0.11 -0.02 -0.06 5637
0.03 0.82 0.21 -1.08 9.66 0.10 -0.03 -0.06 5644
0.03 0.78 0.16 -1.11 9.73 0.10 -0.03 -0.06 5651
0.03 0.69 0.14 -1.15 9.67 0.09 -0.03 -0.06 5658
0.03 0.67 0.15 -1.14 9.76 0.09 -0.03 -0.06 5665
0.04 0.70 0.16 -1.17 9.75 0.09 -0.02 -0.06 5672
0.09 0.64 0.16 -1.18 9.75 0.09 -0.03 -0.06 5680
0.11 0.58 0.18 -1.27 9.75 0.08 -0.03 -0.07 5687
0.11 0.59 0.18 -1.23 9.72 0.08 -0.03 -0.07 5694
0.15 0.57 0.24 -1.17 9.73 0.08 -0.04 -0.07 5701
0.14 0.56 0.19 -1.20 9.68 0.07 -0.05 -0.08 5708
0.17 0.56 0.18 -1.24 9.68 0.08 -0.05 -0.08 5715
0.16 0.58 0.26 -1.18 9.79 0.08 -0.06 -0.08 5723
0.15 0.58 0.19 -1.26 9.73 0.09 -0.06 -0.09 5730
0.19 0.51 0.12 -1.23 9.77 0.10 -0.06 -0.09 5737
0.19 0.48 0.14 -1.24 9.81 0.11 -0.06 -0.09 5744
0.19 0.46 0.11 -1.24 9.82 0.12 -0.06 -0.10 5751
0.22 0.45 0.15 -1.24 9.79 0.13 -0.05 -0.10 5758
0.24 0.41 0.06 -1.34 9.87 0.14 -0.05 -0.10 5766
0.25 0.41 0.17 -1.42 9.89 0.16 -0.05 -0.11 5773
0.23 0.37 -0.02 -1.40 9.81 0.18 -0.05 -0.11 5780
0.28 0.34 0.14 -1.23 9.26 0.19 -0.05 -0.12 5787
0.32 0.33 0.19 -1.49 9.85 0.22 -0.05 -0.12 5794
0.34 0.24 0.12 -1.53 9.76 0.25 -0.04 -0.13 5801
0.37 0.25 0.29 -1.41 9.99 0.27 -0.03 -0.14 5809
0.38 0.23 0.22 -1.42 9.90 0.30 -0.02 -0.16 5816
0.40 0.18 0.16 -1.60 10.01 0.34 -0.01 -0.17 5823
0.43 0.18 0.24 -1.63 10.10 0.38 0.00 -0.19 5830
0.46 0.17 0.25 -1.54 10.22 0.44 0.01 -0.21 5838
0.49 0.13 0.33 -1.59 10.30 0.51 -0.00 -0.23 5844
0.57 0.13 0.32 -1.66 10.23 0.59 0.01 -0.26 5853
0.58 0.11 0.31 -1.69 10.33 0.66 0.04 -0.29 5860
0.59 0.10 0.13 -1.90 10.79 0.78 0.07 -0.30 5866
0.52 0.13 -0.28 -1.86 11.01 0.94 0.04 -0.26 5874
0.57 0.12 -0.27 -2.06 10.68 1.10 0.02 -0.23 5881
0.61 0.14 -0.67 -1.82 10.60 1.18 0.04 -0.21 5889
0.69 0.12 -0.18 -2.15 10.90 1.29 0.03 -0.14 5896
0.69 0.14 -0.33 -2.15 11.18 1.42 0.02 -0.14 5903
0.73 0.14 0.05 -2.32 11.01 1.53 0.03 -0.11 5910
0.73 0.16 0.06 -2.39 11.57 1.69 0.06 -0.10 5916
0.75 0.14 0.21 -2.92 11.75 1.88 0.07 -0.09 5924
0.78 0.12 0.27 -2.79 11.95 2.05 0.09 -0.11 5932
0.79 0.09 0.44 -2.80 11.71 2.26 0.10 -0.14 5938
0.79 0.12 0.07 -2.99 11.76 2.42 0.11 -0.16 5946
0.80 0.11 0.36 -2.98 12.23 2.64 0.12 -0.17 5953
0.78 0.11 0.10 -3.09 12.52 2.87 0.09 -0.18 5959
0.79 0.09 -0.42 -4.03 13.12 3.10 0.04 -0.18 5967
0.79 0.12 0.81 -3.43 12.49 3.38 -0.01 -0.22 5975
0.78 0.09 0.45 -3.73 11.32 3.62 -0.03 -0.28 5982
0.76 0.07 0.70 -3.92 12.84 3.91 -0.06 -0.36 5989
0.65 0.08 0.65 -4.21 13.34 4.15 -0.18 -0.40 5996
0.56 0.08 1.16 -4.40 13.53 4.25 -0.30 -0.46 6003
0.53 0.09 0.22 -5.07 15.32 4.28 -0.41 -0.48 6010
0.42 0.08 0.41 -6.31 16.27 4.28 -0.51 -0.48 6018
0.27 0.08 0.48 -6.85 17.78 4.28 -0.43 -0.40 6025
0.20 0.06 1.95 -7.71 17.74 4.28 -0.32 -0.45 6032
0.13 0.06 0.47 -9.20 19.57 4.28 -0.31 -0.59 6039
0.09 0.06 -1.18 -9.21 22.80 4.28 -0.58 -0.69 6046
0.08 0.08 -0.83 -9.46 23.15 4.28 -1.07 -0.60 6053
0.04 0.06 -0.44 -8.93 21.19 4.28 -1.09 -0.53 6061
-0.00 0.05 0.76 -8.63 22.58 4.28 -1.11 -0.58 6068
-0.01 0.05 2.07 -8.16 25.35 4.28 -1.32 -0.57 6074
0.01 0.06 3.77 -6.20 23.91 4.28 -1.46 -0.61 6082
-0.01 0.08 5.83 -1.68 23.69 4.28 -1.42 -0.65 6088
-0.01 0.11 5.00 1.37 22.87 4.28 -1.15 -0.76 6095
-0.01 0.11 6.76 5.68 19.59 4.28 -0.79 -0.89 6103
-0.01 0.11 6.42 15.22 16.56 4.28 -0.58 -1.13 6111
-0.01 0.09 7.52 16.86 10.06 4.23 -0.03 -1.31 6118
-0.01 0.13 7.11 15.40 26.46 2.15 1.02 -1.44 6125
-0.01 0.13 2.74 14.68 25.51 -0.09 1.37 -1.33 6132
-0.01 0.14 -0.50 13.39 19.44 -1.73 1.09 -1.03 6139
-0.01 0.11 -1.52 11.07 14.55 -2.51 0.33 -0.75 6147
-0.01 0.12 -0.48 8.94 11.07 -2.96 -0.30 -0.59 6153
-0.01 0.08 0.95 7.02 8.78 -3.17 -0.71 -0.43 6160
-0.01 0.10 2.03 5.78 7.26 -3.25 -0.80 -0.27 6167
-0.01 0.12 2.62 5.11 6.77 -3.33 -0.72 -0.13 6174
-0.01 0.12 2.94 4.61 7.38 -3.39 -0.53 0.04 6181
-0.01 0.12 2.83 4.71 7.63 -3.53 -0.32 0.17 6189
-0.01 0.11 2.44 4.81 8.05 -3.73 -0.07 0.30 6196
-0.01 0.11 1.75 4.44 8.73 -3.92 0.11 0.37 6203
-0.01 0.12 1.24 3.97 9.02 -4.11 0.22 0.40 6210
-0.01 0.13 0.77 3.35 9.24 -4.21 0.30 0.39 6217
-0.00 0.13 0.33 2.75 9.72 -4.26 0.35 0.34 6224
-0.01 0.12 0.09 2.10 10.32 -4.28 0.43 0.28 6232
-0.01 0.12 -0.29 1.33 11.13 -4.28 0.54 0.20 6239
-0.01 0.10 -0.68 0.40 11.92 -4.28 0.63 0.12 6246
-0.01 0.12 -1.35 -0.84 12.41 -4.28 0.70 0.03 6253
-0.01 0.13 -1.89 -1.93 12.90 -4.28 0.69 -0.06 6260
-0.00 0.11 -2.28 -2.70 13.19 -4.28 0.64 -0.13 6268
-0.01 0.13 -2.46 -3.51 13.27 -4.28 0.60 -0.21 6275
-0.01 0.11 -2.31 -4.09 13.66 -4.28 0.59 -0.27 6282
-0.01 0.11 -2.09 -4.67 13.79 -4.28 0.61 -0.33 6289
-0.01 0.12 -1.78 -4.87 14.05 -4.28 0.66 -0.35 6296
-0.00 0.13 -1.43 -5.03 14.46 -4.28 0.73 -0.33 6304
0.00 0.12 -1.16 -5.13 15.17 -4.28 0.81 -0.27 6311
-0.01 0.12 -1.08 -5.25 16.11 -4.28 0.87 -0.15 6318
-0.01 0.11 -1.16 -5.54 16.75 -4.28 0.90 -0.06 6325
-0.01 0.13 -1.26 -6.01 17.28 -4.28 0.89 0.08 6332
-0.00 0.14 -1.01 -6.40 17.78 -4.28 0.85 0.20 6339
0.00 0.15 -0.75 -6.75 18.26 -4.26 0.83 0.33 6347
-0.01 0.15 -0.86 -7.04 18.73 -4.23 0.84 0.44 6354
-0.01 0.14 -0.92 -7.39 19.09 -4.17 0.85 0.50 6362
-0.01 0.11 -1.16 -7.89 19.26 -4.11 0.83 0.54 6369
-0.01 0.13 -1.31 -8.64 19.16 -3.97 0.80 0.53 6375
-0.01 0.13 -1.19 -9.71 18.92 -3.74 0.78 0.50 6382
-0.01 0.13 -1.12 -10.83 18.76 -3.51 0.82 0.43 6390
-0.01 0.11 -1.09 -11.83 18.88 -3.23 0.90 0.35 6397
-0.01 0.11 -1.12 -12.71 19.58 -3.04 1.02 0.26 6405
-0.01 0.09 -1.04 -13.18 20.49 -3.00 1.15 0.16 6412
-0.01 0.09 -1.07 -13.94 21.23 -3.19 1.29 0.05 6419
-0.01 0.11 -1.04 -14.50 20.89 -3.50 1.40 -0.02 6425
-0.01 0.09 -1.20 -15.59 19.03 -3.89 1.37 -0.00 6432
-0.01 0.11 -1.30 -17.96 15.71 -4.07 1.27 0.09 6440
-0.01 0.11 -1.58 -21.34 11.60 -3.98 1.12 0.20 6448
-0.01 0.09 -2.48 -24.31 8.49 -3.56 1.16 0.29 6454
-0.01 0.11 -3.77 -28.66 5.83 -3.08 1.39 0.28 6461
-0.01 0.11 -6.36 -32.63 3.18 -2.52 1.46 0.21 6468
0.01 0.10 -10.21 -37.24 1.33 -1.96 1.30 0.17 6476
0.00 0.11 -13.08 -39.74 -0.35 -1.40 0.91 0.18 6483
0.01 0.11 -14.61 -38.31 -0.35 -0.53 0.09 0.22 6491
-0.00 0.10 -12.74 -32.86 1.80 0.30 -0.89 0.19 6498
0.01 0.11 -9.50 -27.48 4.77 1.08 -1.51 0.12 6505
0.01 0.13 -5.28 -21.53 7.21 1.48 -1.75 -0.01 6512
0.02 0.12 8.59 -20.71 -1.39 1.59 -1.70 -0.35 6519
-0.01 0.12 -6.75 -9.97 14.72 3.37 -0.25 -1.24 6525
-0.02 0.19 -0.67 9.93 7.50 3.50 0.12 -1.27 6533
-0.03 0.28 0.27 -0.09 13.71 3.12 -0.66 -1.48 6540
-0.03 0.35 2.96 0.85 14.98 2.71 -0.98 -1.45 6547
-0.02 0.46 7.29 1.78 8.82 2.47 -0.86 -1.11 6554
-0.03 0.46 5.84 -0.31 8.92 2.59 -0.82 -0.69 6561
-0.04 0.59 4.58 -1.86 10.96 2.92 -0.68 -0.22 6569
-0.04 0.59 4.73 -2.02 13.72 3.27 -0.17 0.29 6577
-0.04 0.64 2.26 -2.29 14.51 3.53 0.33 0.64 6584
-0.04 0.77 -1.05 -3.26 18.31 3.36 0.30 0.76 6591
-0.03 0.89 -2.25 -4.60 17.61 2.99 0.42 0.72 6598
-0.03 1.01 -4.03 -4.21 15.13 2.81 0.51 0.45 6605
-0.04 1.13 -2.27 -3.37 15.86 2.67 0.48 0.12 6612
-0.04 1.15 0.23 -2.82 14.37 2.38 0.59 0.03 6620
-0.03 1.23 0.90 -4.64 21.99 1.78 -0.03 0.06 6626
-0.04 1.29 1.91 -1.89 12.64 0.27 -0.48 0.13 6634
-0.03 1.28 -0.41 -3.26 12.21 -0.06 -0.18 0.13 6641
-0.04 1.29 -0.50 -1.77 10.50 -0.11 -0.03 0.07 6648
-0.02 1.30 0.17 -1.22 9.71 -0.12 0.01 0.03 6654
-0.05 1.30 0.43 -1.23 9.82 -0.13 0.01 0.03 6662
-0.06 1.33 0.18 -1.41 9.85 -0.14 0.01 0.04 6669
-0.05 1.40 0.19 -1.37 9.86 -0.13 0.02 0.02 6676
-0.04 1.34 0.32 -1.25 9.88 -0.12 0.02 0.01 6683
-0.05 1.34 0.22 -1.26 9.24 -0.10 0.02 -0.00 6690
-0.02 1.32 0.14 -1.21 9.83 -0.09 0.02 -0.01 6697
-0.04 1.35 0.20 -1.09 9.70 -0.08 0.03 -0.01 6705
-0.02 1.34 0.21 -1.13 9.88 -0.07 0.04 -0.01 6712
-0.05 1.34 0.15 -1.02 9.80 -0.06 0.04 -0.02 6719
-0.04 1.30 0.15 -1.04 9.74 -0.06 0.05 -0.02 6726
-0.05 1.28 0.18 -0.98 9.79 -0.04 0.06 -0.02 6733
-0.04 1.26 0.19 -0.94 9.77 -0.03 0.07 -0.02 6740
-0.04 1.22 0.17 -0.95 9.79 -0.02 0.07 -0.02 6748
-0.03 1.18 0.20 -0.96 9.79 0.00 0.07 -0.01 6755
-0.01 1.15 0.20 -0.97 9.80 0.02 0.07 -0.01 6762
0.01 1.09 0.22 -0.95 9.79 0.04 0.08 -0.01 6769
-0.01 1.07 0.27 -1.01 9.76 0.06 0.07 -0.01 6776
-0.02 1.01 0.23 -0.93 9.79 0.08 0.07 -0.01 6784
-0.02 0.97 0.31 -1.01 9.76 0.09 0.06 -0.01 6791
0.00 0.94 0.25 -1.03 9.71 0.10 0.06 -0.02 6798
0.02 0.95 0.26 -0.99 9.76 0.11 0.06 -0.02 6805
0.01 0.87 0.31 -1.05 9.72 0.11 0.05 -0.03 6812
0.02 0.85 0.34 -1.07 9.73 0.11 0.05 -0.03 6819
0.02 0.79 0.35 -1.07 9.71 0.11 0.04 -0.04 6827
0.02 0.76 0.30 -1.12 9.69 0.11 0.04 -0.04 6834
0.02 0.76 0.30 -1.07 9.68 0.11 0.04 -0.04 6841
0.01 0.69 0.35 -1.10 9.65 0.11 0.05 -0.04 6848
-0.01 0.67 0.25 -1.08 9.70 0.10 0.05 -0.04 6855
0.01 0.62 0.25 -1.11 9.70 0.10 0.06 -0.04 6862
-0.01 0.63 0.29 -1.19 9.74 0.10 0.06 -0.04 6870
0.01 0.61 0.34 -1.15 9.70 0.10 0.06 -0.04 6877
0.01 0.63 0.33 -1.17 9.72 0.10 0.06 -0.05 6884
0.03 0.57 0.33 -1.78 9.80 0.09 0.05 -0.05 6891
0.04 0.57 0.35 -1.20 9.75 0.10 0.04 -0.05 6898
0.05 0.49 0.33 -1.19 9.75 0.10 0.02 -0.06 6905
0.05 0.43 0.38 -1.23 9.73 0.10 0.01 -0.06 6913
0.09 0.44 0.38 -1.23 9.76 0.10 -0.01 -0.06 6920
0.12 0.40 0.41 -1.81 9.85 0.11 -0.02 -0.07 6927
0.12 0.39 0.40 -1.25 9.82 0.13 -0.05 -0.07 6934
0.12 0.36 0.34 -1.32 9.89 0.14 -0.07 -0.07 6941
0.13 0.39 0.36 -1.20 10.42 0.16 -0.10 -0.08 6949
0.13 0.34 0.33 -1.37 9.79 0.18 -0.12 -0.09 6956
0.15 0.30 0.37 -1.37 9.80 0.19 -0.13 -0.10 6963
0.21 0.29 0.37 -1.31 9.85 0.21 -0.14 -0.11 6970
0.21 0.30 0.32 -1.34 9.80 0.22 -0.14 -0.12 6977
0.21 0.22 0.38 -1.39 9.85 0.24 -0.13 -0.13 6984
0.26 0.23 0.22 -1.48 9.82 0.26 -0.12 -0.14 6991
0.29 0.23 0.42 -1.35 9.83 0.29 -0.12 -0.16 6999
0.31 0.20 0.29 -1.54 9.75 0.31 -0.11 -0.17 7006
0.36 0.16 0.32 -1.52 9.92 0.34 -0.09 -0.19 7013
0.37 0.13 0.39 -1.62 10.11 0.38 -0.08 -0.21 7021
0.39 0.13 0.32 -1.59 10.06 0.44 -0.08 -0.24 7028
0.40 0.15 0.37 -1.68 10.28 0.50 -0.07 -0.28 7035
0.42 0.13 0.48 -1.62 10.49 0.59 -0.05 -0.31 7043
0.44 0.16 0.46 -1.93 10.37 0.70 -0.01 -0.35 7050
0.47 0.14 0.14 -2.05 11.15 0.82 0.01 -0.35 7056
0.50 0.13 -0.05 -2.02 10.82 1.01 -0.04 -0.31 7064
0.52 0.12 0.03 -2.00 10.71 1.12 -0.04 -0.29 7071
0.53 0.10 -0.23 -2.20 10.87 1.23 -0.05 -0.28 7078
0.61 0.12 -0.05 -2.10 11.07 1.35 -0.08 -0.24 7086
0.65 0.13 -0.09 -2.22 11.34 1.45 -0.10 -0.21 7093
0.74 0.10 -0.05 -2.42 11.09 1.59 -0.12 -0.20 7100
0.78 0.15 0.30 -2.31 11.35 1.71 -0.10 -0.19 7107
0.79 0.12 -0.20 -2.56 11.55 1.88 -0.11 -0.18 7114
0.82 0.11 -0.19 -3.06 11.66 2.06 -0.12 -0.17 7121
0.85 0.10 0.11 -2.93 12.22 2.22 -0.10 -0.17 7129
0.85 0.11 0.52 -3.66 12.23 2.41 -0.10 -0.18 7136
0.85 0.14 0.57 -3.16 12.60 2.61 -0.10 -0.21 7143
0.90 0.12 0.06 -3.81 12.75 2.85 -0.12 -0.22 7150
0.92 0.08 0.14 -3.47 13.10 3.09 -0.16 -0.25 7157
0.91 0.09 0.42 -3.37 13.01 3.31 -0.23 -0.28 7164
0.85 0.07 0.89 -3.70 13.83 3.58 -0.28 -0.32 7172
0.84 0.06 1.20 -4.31 14.41 3.91 -0.31 -0.41 7179
0.75 0.08 1.49 -4.28 13.67 4.13 -0.52 -0.51 7186
0.72 0.08 1.67 -4.82 14.65 4.27 -0.65 -0.60 7193
0.57 0.06 1.88 -5.49 14.94 4.28 -0.85 -0.71 7200
0.40 0.07 0.82 -6.20 16.82 4.28 -0.87 -0.77 7207
0.34 0.08 0.78 -7.29 19.32 4.28 -0.76 -0.78 7215
0.27 0.05 1.38 -7.67 19.44 4.28 -0.73 -0.83 7222
0.18 0.04 0.06 -8.73 21.42 4.28 -0.75 -0.93 7229
0.16 0.04 -1.68 -9.11 22.30 4.28 -0.97 -1.00 7236
0.07 0.05 -1.29 -9.70 23.40 4.28 -1.17 -0.91 7243
0.04 0.05 -0.80 -9.52 23.43 4.28 -1.02 -0.81 7250
0.01 0.06 0.69 -9.00 24.77 4.28 -1.18 -0.82 7258
0.01 0.06 1.61 -7.38 25.38 4.28 -1.36 -0.80 7265
0.02 0.09 3.58 -3.69 23.41 4.28 -1.46 -0.80 7272
-0.01 0.09 4.78 -0.57 23.12 4.28 -1.31 -0.87 7278
-0.01 0.11 5.53 3.12 20.67 4.28 -1.01 -0.97 7285
-0.01 0.13 4.97 9.02 16.88 4.28 -0.74 -1.13 7292
-0.01 0.12 6.04 11.44 7.93 4.28 -0.49 -1.33 7300
-0.01 0.09 6.63 10.87 20.48 3.82 0.45 -1.44 7308
-0.01 0.11 4.82 10.51 25.05 1.51 1.03 -1.54 7315
-0.01 0.12 1.38 10.41 20.29 -0.22 1.13 -1.32 7322
-0.01 0.11 -0.92 9.71 15.21 -1.14 0.72 -0.98 7328
-0.01 0.13 -1.06 7.98 11.78 -1.78 0.13 -0.73 7335
-0.01 0.14 -0.12 6.25 9.38 -2.08 -0.42 -0.47 7343
-0.01 0.14 0.71 5.49 7.77 -2.22 -0.71 -0.23 7350
-0.01 0.13 1.43 5.12 7.22 -2.39 -0.86 -0.05 7357
-0.01 0.12 2.15 4.99 7.07 -2.54 -0.86 0.13 7364
-0.01 0.13 2.41 5.06 7.88 -2.75 -0.76 0.27 7371
-0.01 0.13 2.49 5.33 7.53 -3.02 -0.60 0.40 7378
-0.00 0.14 2.30 5.38 7.80 -3.29 -0.44 0.48 7386
-0.01 0.14 2.25 5.22 8.05 -3.59 -0.23 0.53 7393
-0.01 0.13 2.07 4.93 8.24 -3.79 -0.02 0.54 7400
-0.01 0.12 1.76 4.78 8.54 -4.00 0.16 0.53 7407
-0.01 0.12 1.20 4.43 8.98 -4.15 0.36 0.49 7414
-0.01 0.14 0.61 3.94 9.70 -4.23 0.50 0.44 7421
-0.01 0.11 -0.19 3.20 10.37 -4.28 0.61 0.37 7430
-0.01 0.13 -0.81 2.05 11.03 -4.28 0.64 0.29 7436
-0.01 0.13 -1.03 1.21 11.75 -4.28 0.63 0.17 7443
-0.01 0.14 -1.16 0.48 12.28 -4.28 0.63 0.11 7450
-0.02 0.15 -1.31 -0.41 12.89 -4.28 0.57 0.02 7457
-0.02 0.16 -1.29 -1.12 13.45 -4.28 0.58 -0.06 7464
-0.00 0.16 -1.26 -1.86 13.95 -4.28 0.58 -0.16 7473
-0.01 0.15 -1.12 -2.57 14.43 -4.28 0.60 -0.25 7480
-0.02 0.16 -0.99 -3.02 14.90 -4.28 0.67 -0.30 7486
-0.02 0.15 -0.87 -3.51 15.37 -4.28 0.72 -0.32 7493
-0.01 0.17 -0.68 -3.82 15.96 -4.28 0.76 -0.29 7501
-0.01 0.18 -0.31 -4.05 16.65 -4.28 0.80 -0.20 7508
-0.00 0.15 0.05 -4.50 17.53 -4.28 0.83 -0.06 7515
-0.00 0.15 0.56 -5.18 18.39 -4.28 0.89 0.10 7523
-0.01 0.12 0.83 -6.45 19.14 -4.28 0.96 0.31 7530
-0.01 0.12 1.67 -7.72 19.01 -4.28 1.07 0.47 7536
-0.01 0.12 2.10 -9.13 19.90 -4.26 1.23 0.63 7543
-0.01 0.14 2.12 -10.25 21.42 -4.15 1.45 0.72 7552
-0.01 0.13 1.86 -10.81 21.72 -4.03 1.62 0.76 7559
-0.01 0.15 1.15 -11.70 22.05 -3.94 1.71 0.76 7566
-0.01 0.14 0.54 -12.48 22.70 -3.82 1.70 0.75 7572
-0.01 0.12 -0.05 -13.08 23.13 -3.78 1.64 0.70 7580
-0.01 0.13 -0.33 -13.44 23.27 -3.85 1.60 0.63 7587
0.02 0.14 -0.55 -14.04 23.25 -4.04 1.61 0.54 7595
0.00 0.14 -1.04 -15.09 22.50 -4.19 1.68 0.42 7602
0.00 0.13 -1.85 -16.65 20.58 -4.27 1.76 0.29 7609
0.00 0.12 -2.97 -18.32 18.35 -4.28 1.77 0.19 7616
0.00 0.14 -3.72 -20.32 15.68 -4.24 1.63 0.14 7623
0.01 0.13 -3.92 -22.00 12.66 -4.06 1.43 0.15 7630
0.01 0.14 -4.13 -23.88 10.25 -3.66 1.26 0.21 7638
0.01 0.13 -4.68 -26.60 8.03 -3.29 1.32 0.26 7645
0.01 0.13 -5.29 -30.17 6.00 -2.89 1.33 0.23 7652
-0.00 0.11 -5.81 -34.68 3.35 -2.53 1.17 0.09 7659
-0.00 0.12 -6.29 -38.59 0.14 -2.03 1.09 -0.03 7665
-0.00 0.13 -7.38 -40.78 -1.12 -1.32 1.05 -0.09 7673
0.01 0.10 -9.56 -38.67 -0.41 -0.54 0.83 -0.08 7681
0.00 0.11 -10.47 -34.00 1.23 0.41 0.26 -0.03 7688
0.00 0.12 -9.61 -27.73 4.11 1.11 -0.61 0.04 7695
0.00 0.13 -7.11 -22.47 7.00 1.48 -1.24 0.16 7702
0.01 0.15 -2.21 -20.92 38.34 3.34 -2.12 -0.15 7709
0.01 0.18 2.90 9.70 7.64 3.48 -1.14 -0.14 7715
-0.02 0.27 3.17 6.52 10.85 3.04 -1.15 -0.11 7724
-0.03 0.42 -0.14 1.75 15.05 2.57 -1.39 0.03 7731
-0.04 0.51 3.39 2.77 7.46 2.32 -1.30 0.29 7737
-0.05 0.61 2.10 0.12 7.26 2.62 -1.16 0.54 7744
-0.04 0.70 -0.77 -1.78 11.65 3.18 -0.92 0.74 7752
-0.04 0.65 -1.15 -2.54 15.65 3.75 -0.34 0.84 7759
-0.05 0.81 -1.23 -3.57 19.47 3.65 0.27 0.94 7767
-0.03 0.92 -5.22 -5.16 20.60 3.18 0.23 0.77 7774
-0.05 1.16 -3.93 -4.74 16.83 3.06 0.25 0.42 7781
-0.06 1.26 -2.23 -3.40 16.94 2.95 0.26 0.12 7788
-0.06 1.37 -0.49 -2.97 15.72 2.56 0.24 0.01 7795
-0.05 1.47 0.86 -2.58 14.21 2.28 0.37 0.04 7802
-0.06 1.50 1.19 -2.16 13.21 2.06 0.53 0.17 7810
-0.06 1.43 0.40 -2.98 15.80 1.70 0.35 0.21 7817
-0.06 1.44 -0.00 -2.34 14.36 0.79 -0.28 0.09 7824
-0.07 1.45 0.45 -2.39 11.39 0.26 -0.36 0.06 7831
-0.06 1.46 0.39 -1.70 10.61 0.05 -0.24 0.07 7838
-0.08 1.50 0.22 -1.37 10.16 -0.03 -0.11 0.07 7845
-0.06 1.46 0.03 -1.39 9.98 -0.07 -0.09 0.04 7852
-0.06 1.45 0.25 -1.34 9.85 -0.07 -0.08 0.01 7859
-0.07 1.43 0.17 -1.20 9.96 -0.07 -0.07 -0.00 7866
-0.06 1.47 0.05 -1.22 9.81 -0.07 -0.06 -0.02 7873
-0.08 1.41 0.11 -1.30 9.83 -0.06 -0.05 -0.03 7880
-0.06 1.43 0.09 -1.12 9.67 -0.06 -0.03 -0.04 7887
-0.07 1.42 0.04 -1.01 9.82 -0.05 -0.01 -0.04 7895
-0.06 1.41 0.11 -1.09 9.82 -0.04 0.01 -0.04 7902
-0.04 1.40 0.05 -1.07 9.84 -0.03 0.02 -0.03 7909
-0.04 1.40 0.05 -1.06 9.84 -0.03 0.04 -0.03 7916
-0.07 1.41 0.07 -1.02 9.88 0.00 0.05 -0.02 7923
-0.06 1.36 0.19 -0.99 9.81 0.03 0.05 -0.02 7930
-0.07 1.28 0.13 -0.91 9.77 0.05 0.05 -0.02 7938
-0.07 1.26 0.21 -0.98 9.77 0.07 0.03 -0.02 7945
-0.08 1.21 0.26 -0.98 9.73 0.08 0.01 -0.02 7952
-0.06 1.20 0.27 -1.09 9.68 0.08 -0.01 -0.03 7959
-0.06 1.17 0.29 -1.07 9.72 0.08 -0.03 -0.03 7966
-0.05 1.18 0.32 -1.03 9.65 0.07 -0.05 -0.04 7973
-0.04 1.16 0.24 -1.05 9.67 0.07 -0.06 -0.06 7981
-0.02 1.13 0.23 -1.07 9.68 0.07 -0.08 -0.07 7988
-0.02 1.12 0.19 -1.03 9.69 0.06 -0.09 -0.07 7995
-0.02 1.08 0.17 -1.01 9.68 0.06 -0.09 -0.07 8002
0.00 1.05 0.13 -1.08 9.71 0.07 -0.09 -0.07 8009
-0.01 1.05 0.13 -1.07 9.67 0.06 -0.08 -0.08 8016
-0.01 1.05 0.05 -1.11 9.68 0.05 -0.07 -0.07 8024
-0.02 1.01 0.07 -1.09 9.71 0.05 -0.06 -0.07 8031
-0.01 1.01 0.13 -1.14 9.71 0.05 -0.05 -0.06 8038
-0.00 1.04 0.11 -1.14 9.70 0.04 -0.04 -0.06 8045
0.04 1.00 0.10 -1.19 9.77 0.04 -0.04 -0.06 8052
0.04 0.93 0.12 -1.17 9.68 0.04 -0.04 -0.07 8059
0.04 0.91 0.10 -1.16 9.75 0.05 -0.04 -0.07 8067
0.07 0.88 0.13 -1.15 9.77 0.05 -0.05 -0.07 8074
0.09 0.89 0.09 -1.14 9.70 0.05 -0.05 -0.08 8081
0.09 0.87 0.07 -1.16 9.76 0.06 -0.05 -0.07 8088
0.12 0.85 0.06 -1.18 9.61 0.06 -0.05 -0.08 8095
0.10 0.82 0.06 -1.18 9.76 0.07 -0.05 -0.08 8102
0.11 0.76 0.08 -1.19 9.79 0.08 -0.04 -0.08 8110
0.11 0.77 0.03 -1.25 9.82 0.09 -0.04 -0.08 8117
0.15 0.74 0.05 -1.25 9.78 0.10 -0.03 -0.08 8124
0.21 0.69 0.05 -1.25 9.81 0.12 -0.03 -0.08 8131
0.22 0.68 0.06 -1.27 9.86 0.13 -0.04 -0.09 8138
0.22 0.61 0.09 -1.24 9.73 0.14 -0.04 -0.09 8145
0.23 0.60 -0.01 -1.13 9.85 0.15 -0.05 -0.09 8153
0.26 0.54 0.58 -1.26 9.91 0.17 -0.05 -0.10 8160
0.33 0.48 -0.08 -1.29 9.74 0.19 -0.05 -0.11 8167
0.34 0.48 0.15 -1.37 9.94 0.22 -0.05 -0.12 8174
0.40 0.48 0.20 -1.32 9.82 0.25 -0.05 -0.16 8181
0.42 0.37 0.10 -1.40 9.88 0.28 -0.06 -0.14 8188
0.47 0.32 0.22 -1.37 10.13 0.31 -0.06 -0.16 8197
0.47 0.30 0.30 -1.64 9.94 0.35 -0.07 -0.18 8203
0.49 0.28 0.18 -1.50 10.12 0.39 -0.07 -0.20 8211
0.54 0.23 0.25 -1.60 10.10 0.44 -0.08 -0.22 8218
0.61 0.18 0.40 -1.72 10.15 0.51 -0.11 -0.24 8225
0.68 0.14 0.25 -1.62 10.48 0.58 -0.14 -0.27 8232
0.75 0.12 0.19 -1.66 10.54 0.69 -0.17 -0.28 8240
0.77 0.16 0.38 -1.51 11.02 0.81 -0.20 -0.28 8247
0.81 0.13 0.06 -2.04 11.75 1.00 -0.19 -0.28 8254
0.87 0.15 -0.00 -2.19 12.28 1.28 -0.17 -0.26 8261
0.88 0.13 -0.36 -1.86 11.81 1.50 -0.21 -0.24 8268
0.92 0.15 0.06 -2.24 11.96 1.71 -0.21 -0.23 8275
0.96 0.10 -0.03 -2.37 12.73 1.95 -0.23 -0.23 8283
0.96 0.15 -0.18 -2.57 12.51 2.15 -0.25 -0.24 8290
0.99 0.15 -0.44 -2.60 12.69 2.41 -0.25 -0.23 8297
1.04 0.13 0.38 -2.51 12.92 2.63 -0.29 -0.22 8304
1.04 0.14 -0.36 -2.72 13.02 2.87 -0.30 -0.23 8311
1.08 0.15 -0.41 -2.88 13.61 3.13 -0.29 -0.22 8318
1.04 0.12 0.30 -2.94 12.73 3.36 -0.31 -0.23 8326
1.03 0.23 -0.02 -3.14 14.02 3.62 -0.28 -0.22 8333
0.99 0.22 0.02 -3.52 13.31 3.91 -0.31 -0.24 8340
0.93 0.17 0.73 -4.12 13.67 4.14 -0.37 -0.29 8347
0.81 0.08 1.45 -3.65 13.16 4.27 -0.47 -0.40 8354
0.71 0.08 1.84 -2.87 14.72 4.28 -0.55 -0.55 8361
0.54 0.11 1.15 -4.67 14.94 4.28 -0.76 -0.64 8369
0.49 0.10 1.11 -5.64 16.75 4.28 -0.88 -0.71 8376
0.39 0.09 0.25 -6.66 18.01 4.28 -0.73 -0.77 8383
0.24 0.06 0.56 -7.59 21.20 4.28 -0.49 -0.76 8390
0.18 0.06 -1.11 -8.19 22.20 4.28 -0.62 -0.82 8397
0.10 0.05 -1.56 -9.49 22.94 4.28 -0.88 -0.87 8404
0.09 0.07 -1.58 -9.81 23.78 4.28 -1.19 -0.82 8412
0.10 0.06 -2.01 -9.40 24.30 4.28 -1.12 -0.77 8419
0.03 0.07 -0.26 -8.63 24.89 4.28 -1.40 -0.74 8426
0.01 0.06 2.22 -5.07 24.36 4.28 -1.68 -0.67 8433
-0.01 0.10 4.84 -2.12 22.01 4.28 -1.62 -0.67 8439
-0.01 0.07 5.95 1.55 20.43 4.28 -1.17 -0.78 8446
-0.01 0.10 5.84 5.29 19.67 4.28 -0.73 -0.86 8454
-0.01 0.11 6.12 10.06 17.51 4.28 -0.24 -1.01 8462
-0.01 0.11 7.18 14.43 11.35 4.28 0.36 -1.30 8469
-0.01 0.11 7.49 14.02 22.53 3.48 1.35 -1.52 8476
-0.01 0.13 3.37 15.14 26.19 0.67 1.71 -1.51 8483
-0.01 0.12 -1.02 13.86 20.58 -1.14 1.34 -1.16 8491
-0.01 0.12 -2.36 11.07 15.23 -2.39 0.67 -0.84 8498
-0.01 0.14 -1.49 8.06 11.36 -2.91 -0.23 -0.53 8504
-0.01 0.13 0.18 6.07 8.38 -3.04 -0.74 -0.29 8511
-0.01 0.13 1.93 5.17 6.39 -3.07 -0.95 -0.11 8518
-0.01 0.13 3.37 4.51 5.79 -3.05 -0.81 0.08 8525
-0.01 0.13 4.06 4.16 6.68 -3.07 -0.53 0.24 8532
-0.01 0.14 3.99 4.55 6.84 -3.19 -0.11 0.43 8540
-0.01 0.15 3.43 5.02 7.71 -3.39 0.25 0.56 8547
-0.01 0.15 2.22 5.03 8.50 -3.67 0.54 0.64 8554
-0.01 0.14 0.97 4.52 8.80 -3.89 0.70 0.69 8561
-0.01 0.14 0.10 4.11 9.01 -4.08 0.73 0.70 8568
-0.01 0.14 -0.58 3.26 9.18 -4.19 0.71 0.65 8576
-0.01 0.14 -0.99 2.44 9.71 -4.24 0.71 0.55 8583
-0.02 0.15 -1.44 1.70 10.25 -4.27 0.75 0.45 8590
-0.01 0.14 -1.85 0.83 10.69 -4.28 0.84 0.31 8597
-0.01 0.14 -2.22 0.11 11.63 -4.28 0.92 0.17 8604
-0.01 0.13 -2.68 -0.80 12.34 -4.28 1.04 -0.01 8611
-0.01 0.14 -3.25 -1.60 13.08 -4.28 1.13 -0.20 8619
-0.01 0.14 -3.83 -2.23 13.34 -4.28 1.15 -0.35 8626
-0.00 0.14 -4.09 -3.08 13.35 -4.28 1.14 -0.50 8634
-0.01 0.14 -4.06 -3.52 13.45 -4.28 1.09 -0.61 8641
-0.01 0.13 -3.73 -3.93 13.62 -4.28 1.05 -0.67 8648
-0.00 0.14 -3.35 -4.08 14.12 -4.28 1.04 -0.66 8655
-0.01 0.14 -2.99 -4.17 14.73 -4.28 1.07 -0.64 8662
-0.01 0.15 -2.75 -4.43 15.68 -4.28 1.15 -0.58 8670
0.01 0.14 -2.65 -4.83 16.55 -4.28 1.22 -0.48 8677
0.00 0.14 -2.70 -5.55 16.74 -4.28 1.27 -0.36 8684
-0.01 0.14 -2.53 -6.60 16.62 -4.27 1.28 -0.22 8691
-0.01 0.12 -2.06 -7.50 16.51 -4.18 1.27 -0.09 8697
-0.01 0.14 -1.49 -8.13 16.94 -3.94 1.26 0.07 8705
-0.00 0.14 -1.14 -8.28 18.09 -3.71 1.28 0.20 8713
-0.00 0.13 -1.00 -8.23 18.56 -3.54 1.33 0.29 8720
-0.01 0.13 -1.18 -8.54 18.68 -3.44 1.35 0.38 8726
-0.01 0.13 -1.36 -9.08 18.98 -3.28 1.32 0.44 8734
-0.01 0.13 -1.46 -9.81 18.90 -3.10 1.28 0.51 8740
-0.01 0.14 -1.60 -10.50 19.15 -2.94 1.26 0.58 8749
-0.02 0.15 -2.14 -10.89 20.18 -2.85 1.27 0.62 8756
-0.01 0.13 -2.88 -11.11 22.08 -2.99 1.35 0.62 8763
-0.01 0.12 -3.29 -11.51 22.62 -3.35 1.44 0.59 8770
-0.01 0.10 -4.20 -12.66 21.47 -3.92 1.45 0.55 8777
-0.01 0.12 -5.15 -14.74 18.94 -4.22 1.25 0.54 8784
-0.01 0.12 -5.39 -17.41 15.47 -4.27 0.96 0.57 8792
-0.01 0.12 -5.06 -20.59 12.84 -4.19 0.59 0.66 8799
-0.01 0.12 -4.40 -23.70 10.00 -3.93 0.36 0.74 8806
-0.01 0.12 -3.38 -26.64 7.88 -3.45 0.23 0.72 8812
-0.01 0.12 -2.38 -30.35 5.27 -3.06 0.18 0.56 8819
-0.01 0.12 -2.37 -34.20 1.91 -2.62 0.28 0.33 8826
-0.01 0.12 -4.22 -38.28 -0.17 -2.15 0.64 0.10 8834
-0.01 0.13 -7.83 -40.28 -1.50 -1.56 0.93 0.00 8841
-0.01 0.12 -12.29 -38.69 -1.08 -0.60 0.76 0.00 8848
-0.01 0.12 -13.34 -32.81 0.84 0.23 -0.07 0.03 8856
-0.01 0.12 -10.79 -27.42 -0.83 0.94 -0.96 0.05 8863
-0.01 0.14 -1.13 -32.35 15.65 3.04 -1.15 -0.65 8870
-0.02 0.19 1.03 -0.19 3.79 3.64 0.11 -1.09 8877
-0.01 0.24 0.10 5.59 11.81 3.70 -0.37 -1.31 8885
-0.03 0.39 0.49 -1.52 18.03 3.05 -0.96 -1.39 8892
-0.04 0.55 8.32 1.84 11.01 2.58 -0.98 -1.09 8899
-0.04 0.64 7.56 -0.73 9.92 2.53 -0.93 -0.61 8905
-0.04 0.64 4.43 -2.55 15.13 2.97 -0.77 -0.07 8913
-0.05 0.79 5.17 -2.73 15.17 3.51 -0.33 0.41 8921
-0.04 0.81 2.31 -3.21 17.68 3.59 -0.00 0.86 8928
-0.06 1.02 -2.21 -4.70 21.03 3.11 0.16 1.01 8935
-0.06 1.13 -5.95 -4.44 16.71 2.72 0.15 0.70 8942
-0.06 1.20 -4.75 -3.53 14.86 2.68 0.06 0.16 8949
-0.06 1.28 -1.33 -2.79 15.01 2.46 0.11 -0.10 8956
-0.05 1.40 1.84 -1.93 12.52 2.21 0.30 -0.09 8964
-0.04 1.41 2.07 -2.63 15.06 2.06 0.20 0.10 8970
-0.05 1.39 0.29 -2.94 17.63 1.04 -0.36 0.19 8978
-0.04 1.45 -0.13 -2.37 12.43 0.16 -0.39 0.16 8985
-0.05 1.42 -0.81 -2.16 10.46 -0.06 -0.10 0.09 8992
-0.07 1.40 0.04 -1.64 10.19 -0.10 -0.02 0.03 8998
-0.07 1.43 0.52 -1.46 9.87 -0.09 -0.03 0.05 9006
-0.07 1.44 0.04 -1.34 10.38 -0.08 0.00 0.05 9013
-0.07 1.43 -0.04 -1.37 9.84 -0.09 0.02 0.03 9020
-0.06 1.39 0.12 -1.16 9.81 -0.10 0.02 0.02 9027
-0.08 1.44 0.12 -1.30 9.89 -0.09 0.03 0.01 9034
-0.08 1.43 0.17 -1.23 9.81 -0.08 0.03 -0.00 9041
-0.05 1.39 0.16 -1.20 9.20 -0.08 0.04 -0.01 9049
-0.06 1.39 0.14 -1.13 9.77 -0.08 0.05 -0.02 9056
-0.06 1.40 0.17 -1.09 9.81 -0.07 0.06 -0.02 9063
-0.06 1.40 0.18 -1.07 9.81 -0.06 0.06 -0.02 9070
-0.08 1.39 0.14 -1.02 9.78 -0.05 0.06 -0.01 9077
-0.07 1.42 0.14 -1.00 9.81 -0.03 0.07 -0.01 9084
-0.05 1.39 0.13 -1.03 9.82 -0.01 0.07 -0.01 9092
-0.04 1.33 0.21 -0.98 9.80 0.02 0.08 -0.01 9099
-0.06 1.26 0.20 -1.01 9.80 0.04 0.08 -0.01 9106
-0.05 1.24 0.18 -0.99 9.75 0.05 0.08 -0.01 9113
-0.05 1.21 0.23 -1.03 9.71 0.07 0.07 -0.01 9120
-0.04 1.19 0.24 -1.02 9.73 0.09 0.06 -0.01 9127
-0.04 1.14 0.24 -1.04 9.76 0.09 0.05 -0.02 9135
-0.04 1.11 0.29 -1.10 9.72 0.10 0.04 -0.02 9142
-0.03 1.04 0.34 -1.04 9.71 0.10 0.02 -0.03 9149
-0.04 1.01 0.29 -1.08 9.72 0.10 0.00 -0.04 9156
-0.01 0.95 0.31 -1.10 9.74 0.11 -0.01 -0.05 9163
-0.02 0.96 0.28 -1.13 9.69 0.11 -0.03 -0.06 9170
-0.00 0.84 0.27 -1.10 9.76 0.11 -0.04 -0.06 9178
0.02 0.80 0.26 -1.12 9.69 0.11 -0.05 -0.06 9185
0.01 0.78 0.23 -1.16 9.72 0.10 -0.06 -0.06 9192
0.02 0.74 0.23 -1.19 9.72 0.10 -0.06 -0.07 9199
0.04 0.76 0.27 -1.17 9.72 0.10 -0.07 -0.07 9206
0.06 0.75 0.22 -1.23 9.72 0.11 -0.07 -0.07 9213
0.08 0.69 0.23 -1.24 9.71 0.11 -0.08 -0.08 9221
0.12 0.62 0.27 -1.23 9.79 0.11 -0.08 -0.08 9228
0.13 0.62 0.25 -1.18 9.64 0.11 -0.09 -0.08 9235
0.13 0.59 0.17 -1.25 9.75 0.11 -0.09 -0.09 9242
0.13 0.58 0.14 -0.67 9.80 0.12 -0.08 -0.09 9249
0.15 0.61 0.19 -1.32 9.80 0.13 -0.08 -0.10 9256
0.15 0.60 0.22 -1.28 9.73 0.14 -0.08 -0.10 9264
0.17 0.52 0.14 -1.33 9.81 0.15 -0.08 -0.10 9271
0.20 0.45 0.07 -1.39 9.76 0.17 -0.08 -0.11 9278
0.23 0.42 0.19 -1.40 9.86 0.19 -0.08 -0.11 9285
0.27 0.39 0.09 -1.41 9.81 0.20 -0.08 -0.12 9292
0.27 0.41 0.22 -1.44 9.85 0.22 -0.08 -0.13 9299
0.28 0.33 0.07 -1.44 9.29 0.24 -0.07 -0.13 9307
0.31 0.32 0.14 -1.38 9.91 0.26 -0.07 -0.13 9314
0.31 0.29 0.21 -1.50 9.97 0.29 -0.06 -0.14 9321
0.33 0.24 0.21 -1.53 9.95 0.32 -0.06 -0.15 9328
0.34 0.23 0.20 -1.53 10.00 0.34 -0.06 -0.18 9336
0.43 0.16 0.13 -1.62 9.97 0.38 -0.07 -0.19 9342
0.46 0.13 0.24 -1.59 10.04 0.43 -0.08 -0.21 9351
0.46 0.16 0.36 -1.75 10.26 0.48 -0.10 -0.23 9358
0.51 0.13 0.27 -1.84 10.28 0.57 -0.10 -0.25 9365
0.53 0.13 0.22 -1.92 10.56 0.64 -0.10 -0.27 9372
0.60 0.17 0.52 -1.96 10.55 0.75 -0.09 -0.28 9379
0.58 0.09 -0.02 -1.99 11.02 0.92 -0.07 -0.29 9385
0.59 0.10 0.12 -1.86 10.79 1.07 -0.09 -0.27 9394
0.61 0.13 -0.40 -1.96 10.69 1.17 -0.10 -0.26 9401
0.61 0.12 -0.09 -2.19 10.92 1.30 -0.12 -0.24 9408
0.67 0.15 -0.48 -2.22 11.16 1.38 -0.15 -0.23 9415
0.68 0.14 -0.16 -2.34 11.16 1.50 -0.15 -0.20 9422
0.71 0.12 -0.37 -2.41 11.05 1.60 -0.17 -0.18 9430
0.74 0.15 -0.09 -2.68 11.46 1.74 -0.20 -0.16 9437
0.80 0.15 -0.06 -2.94 11.41 1.91 -0.21 -0.15 9444
0.80 0.10 0.29 -2.95 11.62 2.06 -0.22 -0.16 9451
0.82 0.11 0.19 -3.08 12.70 2.22 -0.21 -0.17 9458
0.83 0.19 0.58 -3.37 11.54 2.42 -0.25 -0.20 9465
0.84 0.18 0.22 -3.50 12.69 2.59 -0.29 -0.26 9473
0.87 0.18 -0.38 -3.54 12.77 2.82 -0.25 -0.27 9480
0.88 0.11 0.40 -3.61 12.72 3.03 -0.30 -0.27 9487
0.89 0.14 0.35 -3.72 13.21 3.27 -0.31 -0.30 9494
0.89 0.11 -0.15 -3.99 12.56 3.49 -0.39 -0.36 9501
0.92 0.13 0.65 -4.61 13.90 3.74 -0.43 -0.46 9508
0.81 0.13 1.12 -4.17 13.44 4.07 -0.42 -0.53 9516
0.69 0.11 0.74 -4.97 13.22 4.25 -0.61 -0.62 9523
0.55 0.10 1.62 -5.35 14.03 4.28 -0.70 -0.70 9530
0.45 0.10 0.84 -5.99 16.03 4.28 -0.50 -0.76 9537
0.40 0.11 0.46 -6.52 18.35 4.28 -0.50 -0.79 9544
0.28 0.06 0.59 -7.91 20.14 4.28 -0.55 -0.78 9551
0.17 0.08 -0.19 -9.08 21.05 4.28 -0.56 -0.81 9559
0.11 0.07 -0.75 -9.17 21.93 4.28 -0.65 -0.88 9566
0.10 0.07 -1.94 -9.70 21.92 4.28 -0.83 -0.88 9573
0.08 0.07 -1.55 -10.62 24.22 4.28 -0.80 -0.78 9580
0.03 0.10 0.11 -9.81 24.35 4.28 -1.06 -0.83 9587
0.01 0.07 1.60 -7.22 24.43 4.28 -1.37 -0.85 9594
-0.01 0.11 3.76 -4.95 23.27 4.28 -1.44 -0.85 9601
-0.00 0.10 4.69 -1.38 23.11 4.28 -1.16 -0.90 9609
-0.01 0.09 5.33 2.19 22.81 4.28 -0.76 -1.01 9615
0.00 0.14 6.06 7.76 21.10 4.28 -0.34 -1.12 9623
-0.01 0.12 4.54 20.53 13.51 4.27 0.06 -1.40 9630
-0.01 0.09 6.49 16.03 16.69 3.07 0.85 -1.68 9636
-0.01 0.10 2.49 14.00 29.93 0.21 1.21 -1.86 9645
-0.01 0.08 -1.68 11.77 21.50 -1.58 1.06 -1.65 9652
-0.01 0.09 -2.05 9.93 15.04 -2.48 0.60 -1.40 9658
-0.01 0.09 -0.91 7.64 10.38 -2.79 -0.03 -1.15 9665
-0.01 0.09 0.39 5.96 7.27 -2.82 -0.40 -0.92 9672
-0.01 0.10 1.52 4.68 6.09 -2.73 -0.58 -0.68 9679
-0.01 0.10 2.07 4.15 5.89 -2.64 -0.60 -0.38 9687
-0.01 0.09 2.46 4.18 6.29 -2.61 -0.53 -0.11 9694
-0.01 0.09 2.56 4.80 7.03 -2.72 -0.34 0.19 9701
-0.01 0.11 2.37 5.30 7.86 -2.91 -0.13 0.44 9708
-0.00 0.11 1.78 5.48 8.58 -3.23 0.09 0.60 9715
-0.01 0.11 1.19 5.50 9.25 -3.54 0.25 0.74 9722
-0.01 0.10 0.75 5.26 9.61 -3.88 0.37 0.80 9730
-0.01 0.11 0.19 4.51 9.83 -4.15 0.45 0.82 9737
-0.01 0.12 -0.26 3.33 10.16 -4.25 0.51 0.79 9744
-0.01 0.12 -0.64 2.13 10.37 -4.28 0.56 0.75 9751
-0.01 0.13 -0.94 0.80 10.77 -4.28 0.62 0.65 9759
-0.01 0.14 -1.19 -0.18 11.24 -4.28 0.67 0.57 9765
-0.01 0.13 -1.57 -1.19 11.57 -4.28 0.75 0.42 9773
-0.01 0.13 -1.84 -1.94 12.04 -4.28 0.80 0.24 9780
-0.01 0.14 -2.27 -2.54 12.62 -4.28 0.85 0.07 9787
-0.01 0.15 -2.51 -2.92 13.20 -4.28 0.86 -0.11 9794
-0.01 0.14 -2.40 -3.67 13.61 -4.28 0.83 -0.27 9802
-0.01 0.12 -1.96 -3.17 13.93 -4.28 0.78 -0.35 9808
-0.01 0.12 -1.39 -3.21 14.27 -4.28 0.79 -0.40 9817
-0.01 0.13 -0.86 -3.17 14.58 -4.28 0.82 -0.40 9823
-0.01 0.13 -0.33 -3.28 15.17 -4.28 0.91 -0.36 9831
-0.00 0.14 -0.11 -3.36 15.86 -4.28 1.01 -0.26 9838
-0.01 0.13 -0.09 -3.53 16.50 -4.28 1.09 -0.14 9844
-0.01 0.13 -0.07 -3.85 17.40 -4.28 1.15 0.02 9852
-0.01 0.12 -0.17 -4.16 19.00 -4.28 1.22 0.14 9859
-0.01 0.12 -0.41 -4.47 19.55 -4.27 1.33 0.26 9866
-0.01 0.11 -0.99 -4.84 20.79 -4.27 1.45 0.33 9873
-0.00 0.11 -1.85 -5.46 21.71 -4.28 1.55 0.35 9881
-0.01 0.12 -2.85 -6.40 22.41 -4.28 1.59 0.32 9888
-0.01 0.11 -3.68 -7.44 22.53 -4.28 1.57 0.25 9894
-0.01 0.10 -4.35 -8.72 22.50 -4.28 1.53 0.13 9902
-0.01 0.11 -5.48 -10.14 22.16 -4.28 1.51 -0.02 9910
-0.01 0.14 -5.36 -11.59 22.12 -4.26 1.55 -0.19 9917
-0.01 0.11 -5.72 -13.48 22.13 -4.23 1.65 -0.40 9924
-0.01 0.11 -6.00 -15.95 21.39 -4.20 1.70 -0.61 9931
-0.01 0.11 -6.51 -16.76 24.38 -4.08 1.71 -0.74 9938
-0.01 0.10 -4.94 -19.24 17.97 -4.15 1.44 -0.87 9946
-0.01 0.12 -3.89 -20.63 16.20 -4.14 1.29 -0.85 9953
-0.00 0.13 -2.88 -24.09 13.54 -3.95 1.11 -0.70 9960
0.00 0.11 -2.70 -27.83 8.99 -3.60 1.07 -0.45 9967
-0.01 0.09 -2.91 -32.39 5.39 -3.06 1.17 -0.29 9973
-0.01 0.08 -4.54 -38.46 2.27 -2.56 1.33 -0.17 9980
-0.01 0.09 -7.66 -42.79 0.52 -1.96 1.46 -0.02 9988
-0.00 0.09 -12.48 -43.84 -0.34 -1.12 1.31 0.27 9996
-0.00 0.10 -15.88 -39.30 0.10 -0.22 0.65 0.54 10003
0.01 0.10 -14.19 -33.44 1.97 0.76 -0.56 0.69 10010
0.00 0.11 -8.00 -28.75 1.69 1.33 -1.56 0.76 10017
-0.01 0.14 -2.62 -34.22 10.05 3.18 -1.60 0.28 10024
-0.02 0.16 -0.45 -5.67 7.42 3.96 -0.21 -0.21 10031
-0.03 0.25 -1.79 3.88 10.15 4.02 -0.56 -0.46 10038
-0.02 0.37 -2.32 0.43 18.64 3.49 -1.12 -0.60 10046
-0.03 0.51 4.56 1.02 13.49 2.87 -1.16 -0.50 10053
-0.05 0.60 4.39 -0.73 10.64 2.78 -1.09 -0.16 10060
-0.05 0.65 1.74 -2.22 13.17 3.24 -1.11 0.12 10067
-0.05 0.66 2.74 -2.51 14.72 3.78 -0.67 0.48 10075
-0.05 0.79 1.75 -2.72 18.90 3.88 -0.26 0.74 10082
-0.05 0.96 -1.77 -4.93 21.33 3.28 0.09 0.95 10089
-0.04 1.02 -4.62 -4.58 15.59 2.96 0.11 0.72 10096
-0.05 1.13 -4.01 -4.08 14.93 2.95 0.02 0.34 10103
-0.04 1.22 -1.23 -3.20 15.28 2.75 0.20 0.08 10110
-0.04 1.27 0.61 -2.57 14.03 2.40 0.45 0.05 10118
-0.03 1.40 0.85 -5.04 24.26 1.50 -0.08 0.09 10124
-0.03 1.39 0.07 -1.75 12.41 -0.02 -0.26 0.17 10132
-0.05 1.46 -1.20 -3.73 11.29 -0.19 -0.11 0.06 10139
-0.07 1.47 0.20 -1.23 9.91 -0.13 -0.05 0.00 10145
-0.08 1.42 0.44 -1.43 9.85 -0.13 -0.02 0.03 10152
-0.07 1.49 0.08 -1.19 9.68 -0.12 -0.02 0.03 10160
-0.05 1.50 -0.04 -1.35 9.83 -0.13 -0.01 0.01 10167
-0.04 1.42 0.05 -1.20 9.69 -0.12 -0.01 0.00 10174
-0.06 1.40 0.13 -1.15 9.83 -0.07 -0.01 -0.00 10181
-0.06 1.44 0.10 -1.19 9.85 -0.08 -0.01 -0.01 10188
-0.08 1.47 0.08 -1.18 9.87 -0.08 0.00 -0.02 10195
-0.08 1.44 0.15 -1.06 9.76 -0.06 0.00 -0.03 10203
-0.07 1.38 0.10 -1.05 9.81 -0.06 0.00 -0.03 10210
-0.06 1.38 0.12 -1.08 9.80 -0.04 0.00 -0.03 10217
-0.01 1.40 0.22 -1.05 9.74 -0.02 -0.00 -0.04 10224
-0.01 1.38 0.03 -1.01 9.82 0.00 -0.01 -0.04 10231
-0.03 1.35 0.08 -0.98 9.81 0.02 -0.00 -0.03 10238
-0.01 1.35 0.11 -0.96 9.81 0.04 0.00 -0.03 10246
-0.01 1.33 0.04 -0.99 9.80 0.06 0.00 -0.04 10253
0.01 1.30 0.07 -0.99 9.81 0.07 0.01 -0.03 10260
0.00 1.26 0.11 -0.98 9.79 0.08 0.01 -0.03 10267
0.00 1.20 0.10 -0.98 9.77 0.09 0.01 -0.03 10274
-0.01 1.17 0.14 -1.02 9.71 0.09 0.01 -0.04 10281
0.01 1.07 0.18 -1.05 9.73 0.09 0.01 -0.04 10289
0.01 1.06 0.15 -1.02 9.71 0.09 0.01 -0.05 10296
0.02 1.02 0.12 -1.04 9.76 0.09 0.01 -0.05 10303
0.02 0.97 0.12 -1.06 9.70 0.09 0.00 -0.06 10310
0.02 0.93 0.11 -1.05 9.71 0.09 0.00 -0.06 10317
0.02 0.91 0.14 -1.11 9.77 0.09 -0.00 -0.07 10324
0.02 0.87 0.12 -1.07 9.71 0.09 -0.00 -0.07 10332
0.07 0.83 0.11 -1.11 9.75 0.09 -0.01 -0.07 10339
0.06 0.80 0.11 -1.14 9.70 0.09 -0.01 -0.07 10346
0.08 0.80 0.09 -1.18 9.74 0.09 -0.00 -0.07 10353
0.07 0.74 0.13 -1.16 9.65 0.10 -0.00 -0.07 10360
0.09 0.74 0.15 -1.19 9.70 0.09 0.00 -0.08 10368
0.10 0.68 0.18 -1.15 9.69 0.09 -0.00 -0.08 10375
0.12 0.71 0.16 -1.19 9.72 0.09 -0.01 -0.08 10382
0.13 0.65 0.17 -1.23 9.66 0.09 -0.01 -0.08 10389
0.15 0.63 0.19 -1.26 9.72 0.09 -0.01 -0.08 10396
0.16 0.65 0.15 -1.21 9.77 0.09 -0.01 -0.09 10403
0.16 0.58 0.11 -1.24 9.76 0.10 -0.02 -0.10 10411
0.21 0.51 0.07 -1.22 9.81 0.10 -0.02 -0.10 10418
0.19 0.50 0.14 -1.31 9.80 0.11 -0.02 -0.10 10425
0.18 0.48 0.19 -1.29 9.86 0.13 -0.02 -0.11 10432
0.20 0.47 -0.02 -1.26 9.81 0.14 -0.02 -0.11 10439
0.19 0.41 0.01 -1.37 9.90 0.16 -0.03 -0.12 10446
0.24 0.40 0.07 -1.32 9.74 0.18 -0.03 -0.12 10454
0.25 0.40 0.15 -1.27 9.82 0.19 -0.03 -0.13 10461
0.29 0.35 0.11 -1.42 10.38 0.21 -0.03 -0.13 10469
0.37 0.30 0.13 -1.32 9.97 0.24 -0.03 -0.13 10475
0.39 0.29 0.17 -1.38 9.81 0.27 -0.03 -0.15 10482
0.36 0.29 0.27 -1.57 10.02 0.31 -0.03 -0.16 10490
0.40 0.26 0.21 -1.48 9.98 0.35 -0.03 -0.18 10497
0.43 0.21 0.33 -1.50 10.19 0.40 -0.05 -0.20 10505
0.45 0.19 0.24 -1.62 10.23 0.46 -0.05 -0.22 10512
0.51 0.17 0.29 -1.70 10.28 0.53 -0.07 -0.25 10519
0.55 0.15 0.37 -1.68 10.37 0.62 -0.09 -0.27 10526
0.56 0.18 0.60 -1.79 10.73 0.73 -0.06 -0.31 10533
0.64 0.17 0.28 -2.15 11.05 0.82 -0.02 -0.34 10541
0.65 0.15 -0.23 -1.94 11.17 1.04 -0.03 -0.33 10548
0.69 0.14 -0.12 -1.92 11.05 1.21 -0.10 -0.28 10555
0.68 0.14 -0.35 -1.80 10.77 1.33 -0.09 -0.27 10562
0.69 0.14 -0.46 -2.08 10.93 1.41 -0.10 -0.24 10569
0.71 0.16 -0.65 -2.28 10.72 1.51 -0.11 -0.19 10576
0.76 0.16 -0.73 -2.34 11.09 1.62 -0.12 -0.15 10584
0.79 0.18 -0.20 -2.33 11.14 1.71 -0.12 -0.11 10591
0.81 0.14 -0.25 -2.63 11.21 1.86 -0.11 -0.08 10598
0.82 0.14 0.44 -2.84 11.65 2.02 -0.12 -0.08 10605
0.84 0.14 2.06 -3.77 12.88 2.13 -0.13 -0.12 10612
0.86 0.20 0.38 -3.21 12.18 2.37 -0.14 -0.14 10619
0.89 0.20 0.79 -3.29 12.88 2.56 -0.20 -0.18 10627
0.91 0.18 1.08 -3.54 12.34 2.80 -0.26 -0.25 10634
0.88 0.14 0.69 -3.37 13.18 3.04 -0.29 -0.29 10641
0.84 0.17 0.21 -3.89 13.06 3.30 -0.33 -0.35 10648
0.82 0.18 -0.14 -3.98 12.80 3.55 -0.38 -0.38 10655
0.75 0.20 0.48 -3.89 14.21 3.86 -0.46 -0.43 10662
0.72 0.21 0.24 -3.76 14.93 4.13 -0.49 -0.48 10670
0.62 0.19 0.18 -4.51 15.07 4.28 -0.68 -0.51 10677
0.50 0.14 0.63 -5.11 16.66 4.28 -0.77 -0.53 10684
0.42 0.07 -0.35 -5.36 14.72 4.28 -0.63 -0.54 10691
0.33 0.10 0.50 -6.91 18.81 4.28 -0.52 -0.53 10698
0.25 0.11 0.84 -7.55 19.97 4.28 -0.51 -0.58 10705
0.21 0.11 -1.14 -8.44 21.42 4.28 -0.58 -0.67 10713
0.18 0.08 -3.74 -8.56 22.70 4.28 -0.86 -0.67 10720
0.15 0.08 -2.23 -10.18 24.58 4.28 -1.06 -0.51 10727
0.06 0.08 -1.63 -9.95 25.25 4.28 -1.25 -0.50 10734
0.04 0.06 0.45 -9.11 26.01 4.28 -1.57 -0.49 10741
-0.01 0.07 2.45 -6.57 25.92 4.28 -1.73 -0.46 10747
0.00 0.07 5.03 -2.60 22.68 4.28 -1.64 -0.43 10755
-0.00 0.08 5.37 1.13 21.61 4.28 -1.31 -0.48 10763
0.00 0.08 5.48 5.25 20.37 4.28 -0.90 -0.59 10769
-0.01 0.08 5.44 9.65 18.84 4.28 -0.59 -0.74 10776
-0.01 0.11 6.53 12.03 11.93 4.28 -0.24 -0.89 10784
-0.02 0.16 5.57 13.77 23.15 4.18 0.64 -1.02 10791
-0.01 0.14 4.14 14.68 26.38 1.42 1.15 -1.08 10799
-0.01 0.14 0.63 13.54 22.30 -0.79 1.05 -0.77 10805
-0.01 0.12 -1.64 10.38 15.84 -1.88 0.54 -0.46 10813
-0.01 0.12 -1.01 7.90 11.95 -2.40 -0.18 -0.27 10819
-0.01 0.12 0.37 5.65 8.53 -2.48 -0.60 -0.13 10826
-0.01 0.14 1.48 4.32 6.36 -2.43 -0.72 -0.05 10833
-0.01 0.13 2.29 4.46 5.92 -2.38 -0.67 0.01 10841
-0.01 0.13 1.84 4.47 6.79 -2.42 -0.48 0.06 10848
-0.01 0.12 1.93 5.56 8.54 -2.66 -0.26 0.07 10855
-0.01 0.14 1.41 6.97 9.58 -3.22 0.04 0.05 10862
-0.02 0.15 0.85 7.11 10.68 -3.84 0.30 -0.03 10869
-0.01 0.15 0.01 6.24 10.51 -4.27 0.55 -0.06 10876
-0.01 0.13 -0.55 4.88 9.72 -4.28 0.67 -0.17 10884
-0.01 0.14 -0.58 3.34 8.72 -4.28 0.68 -0.29 10891
-0.01 0.13 -0.43 1.79 8.67 -4.28 0.72 -0.43 10898
-0.01 0.14 -0.42 0.31 9.14 -4.28 0.82 -0.54 10905
-0.01 0.14 -0.61 -0.28 9.66 -4.28 0.99 -0.59 10912
-0.01 0.14 -1.03 -0.82 10.11 -4.28 1.15 -0.61 10919
-0.01 0.13 -1.54 -1.26 11.46 -4.28 1.27 -0.61 10927
-0.01 0.12 -2.26 -1.79 12.51 -4.28 1.33 -0.58 10934
-0.01 0.12 -2.82 -2.24 13.36 -4.28 1.32 -0.54 10941
-0.01 0.13 -3.25 -2.79 13.86 -4.28 1.26 -0.53 10948
-0.01 0.13 -3.43 -3.50 14.11 -4.28 1.15 -0.52 10955
-0.00 0.13 -3.29 -4.04 14.06 -4.28 1.06 -0.51 10963
-0.00 0.13 -2.81 -4.55 14.16 -4.28 1.00 -0.48 10971
-0.01 0.13 -2.57 -4.72 14.62 -4.28 1.02 -0.43 10977
-0.01 0.12 -2.51 -4.95 15.33 -4.28 1.10 -0.36 10984
-0.01 0.13 -2.75 -5.48 16.04 -4.28 1.25 -0.27 10991
-0.00 0.15 -3.04 -6.27 16.54 -4.28 1.37 -0.19 10999
0.00 0.13 -3.34 -7.07 16.68 -4.28 1.44 -0.11 11006
-0.01 0.12 -3.38 -8.00 16.62 -4.24 1.45 -0.02 11014
-0.01 0.14 -3.38 -8.51 17.40 -4.07 1.45 0.07 11021
-0.01 0.12 -3.40 -8.37 18.92 -3.86 1.41 0.14 11027
-0.01 0.09 -3.31 -8.17 20.53 -3.86 1.40 0.19 11034
-0.01 0.12 -3.15 -8.43 21.16 -4.00 1.37 0.23 11041
-0.01 0.09 -3.13 -9.24 21.48 -4.12 1.28 0.24 11048
-0.01 0.10 -3.14 -9.92 21.36 -4.21 1.20 0.24 11056
-0.01 0.10 -2.91 -10.74 20.99 -4.25 1.09 0.24 11064
-0.01 0.10 -2.69 -11.53 20.26 -4.27 1.01 0.25 11071
-0.01 0.08 -2.53 -12.37 19.73 -4.27 0.97 0.27 11078
-0.01 0.10 -2.60 -13.59 19.16 -4.27 0.97 0.30 11085
-0.01 0.10 -2.74 -14.72 18.16 -4.24 0.98 0.35 11092
-0.01 0.10 -2.79 -16.23 17.03 -4.19 0.95 0.42 11100
-0.00 0.08 -2.64 -17.67 15.52 -4.09 0.88 0.50 11107
-0.01 0.10 -2.17 -18.72 13.98 -3.86 0.77 0.63 11114
-0.01 0.10 -1.71 -19.78 12.06 -3.52 0.66 0.81 11121
-0.01 0.10 -1.38 -21.00 9.95 -3.22 0.62 1.02 11128
0.00 0.10 -1.60 -22.78 8.43 -2.80 0.65 1.14 11134
-0.01 0.11 -1.93 -25.93 6.53 -2.44 0.71 1.15 11143
0.00 0.10 -2.67 -29.20 4.00 -2.01 0.74 1.03 11149
-0.01 0.09 -4.74 -32.72 2.10 -1.50 0.84 0.83 11156
0.00 0.10 -7.33 -33.88 1.20 -0.93 0.88 0.65 11163
0.01 0.10 -10.45 -32.64 1.93 -0.16 0.61 0.53 11171
0.00 0.08 -11.71 -28.84 3.86 0.48 -0.09 0.38 11179
0.00 0.09 -10.21 -24.81 5.75 1.02 -0.83 0.23 11186
-0.01 0.08 -6.35 -21.02 7.19 1.34 -1.45 0.06 11192
-0.00 0.10 -2.30 -18.60 8.37 1.50 -1.62 -0.10 11200
0.00 0.13 13.73 -13.40 -2.56 1.92 -1.64 -0.38 11207
-0.00 0.17 -3.63 8.45 7.74 3.52 0.17 -0.79 11213
-0.03 0.30 2.99 9.18 7.56 3.17 0.43 -0.75 11220
-0.03 0.39 2.34 0.56 14.94 2.76 -0.28 -0.72 11229
-0.05 0.55 6.02 3.64 7.08 2.52 -0.69 -0.53 11235
-0.04 0.69 5.63 0.46 7.71 2.77 -0.80 -0.19 11242
-0.04 0.67 3.69 -1.09 9.35 3.45 -0.72 0.22 11249
-0.04 0.71 2.12 -1.92 16.14 3.88 -0.35 0.57 11257
-0.04 0.74 1.51 -2.88 19.92 3.65 0.44 0.92 11265
-0.06 0.95 -3.84 -4.41 18.54 3.18 0.48 0.97 11272
-0.06 1.06 -6.61 -4.86 17.77 3.13 0.39 0.62 11279
-0.04 1.17 -4.79 -3.86 17.11 3.04 0.58 0.16 11286
-0.04 1.30 -2.09 -3.21 16.52 2.68 0.63 -0.19 11293
-0.05 1.44 0.68 -2.79 15.01 2.36 0.54 -0.33 11300
-0.06 1.41 3.11 -2.20 13.68 2.20 0.59 -0.17 11308
-0.06 1.49 2.45 -2.23 12.52 2.01 0.65 0.11 11315
-0.07 1.52 0.58 -2.79 14.76 1.67 0.32 0.21 11322
-0.06 1.52 -0.29 -2.03 14.23 0.75 -0.35 0.11 11329
-0.05 1.49 0.64 -2.17 11.69 0.13 -0.32 0.08 11336
-0.05 1.49 0.37 -1.77 10.38 -0.07 -0.10 0.09 11343
-0.04 1.53 0.24 -1.57 10.00 -0.11 -0.01 0.08 11351
-0.06 1.45 0.10 -1.39 9.92 -0.09 -0.00 0.05 11357
-0.09 1.51 0.09 -1.37 9.74 -0.09 -0.00 0.03 11364
-0.08 1.47 0.07 -1.49 9.21 -0.09 -0.00 0.01 11371
-0.06 1.49 0.11 -1.42 9.80 -0.09 0.00 -0.01 11378
-0.05 1.45 0.05 -1.11 9.77 -0.09 0.02 -0.02 11385
-0.07 1.44 0.08 -1.14 9.75 -0.08 0.03 -0.02 11393
-0.08 1.42 0.01 -1.13 9.66 -0.07 0.04 -0.02 11400
-0.07 1.38 0.16 -1.18 9.64 -0.07 0.05 -0.02 11407
-0.08 1.43 0.13 -1.02 9.74 -0.05 0.06 -0.02 11414
-0.05 1.42 0.13 -1.08 9.80 -0.03 0.07 -0.02 11421
-0.06 1.41 0.10 -1.02 9.81 -0.01 0.07 -0.01 11428
-0.07 1.37 0.12 -0.99 9.81 0.00 0.07 -0.01 11436
-0.07 1.34 0.14 -1.00 9.81 0.02 0.08 -0.01 11443
-0.06 1.33 0.20 -1.02 9.78 0.04 0.08 -0.01 11450
-0.04 1.27 0.16 -1.02 9.75 0.05 0.07 -0.01 11457
-0.03 1.25 0.23 -1.03 9.79 0.06 0.06 -0.01 11464
-0.03 1.23 0.20 -1.05 9.75 0.10 0.05 -0.02 11471
-0.02 1.16 0.26 -1.08 9.72 0.07 0.04 -0.02 11479
-0.03 1.10 0.29 -1.06 9.72 0.08 0.02 -0.03 11486
-0.01 1.05 0.26 -1.10 9.67 0.09 0.00 -0.04 11493
-0.01 1.05 0.32 -1.07 9.69 0.09 -0.01 -0.05 11500
0.00 0.93 0.24 -1.14 9.70 0.09 -0.03 -0.06 11507
-0.00 0.94 0.19 -1.08 9.69 0.09 -0.03 -0.06 11514
0.00 0.88 0.15 -1.08 9.73 0.09 -0.04 -0.06 11522
0.00 0.82 0.18 -1.11 9.77 0.09 -0.03 -0.06 11529
0.02 0.83 0.17 -1.14 9.76 0.08 -0.03 -0.06 11536
0.03 0.82 0.21 -1.19 9.70 0.09 -0.03 -0.07 11543
0.04 0.80 0.21 -1.15 9.74 0.09 -0.02 -0.06 11550
0.06 0.74 0.20 -1.15 9.69 0.09 -0.02 -0.07 11557
0.07 0.75 0.19 -1.19 9.71 0.10 -0.03 -0.07 11565
0.07 0.69 0.22 -1.21 9.76 0.10 -0.03 -0.08 11572
0.06 0.68 0.23 -1.22 9.77 0.10 -0.03 -0.08 11579
0.08 0.68 0.27 -1.24 9.76 0.10 -0.07 -0.08 11586
0.10 0.59 0.19 -1.28 9.74 0.11 -0.04 -0.09 11593
0.10 0.55 0.28 -1.26 9.75 0.12 -0.04 -0.09 11600
0.13 0.54 0.20 -1.27 9.79 0.13 -0.05 -0.09 11608
0.14 0.51 0.14 -1.31 9.78 0.14 -0.04 -0.09 11615
0.14 0.51 0.11 -1.36 9.80 0.15 -0.04 -0.09 11622
0.20 0.50 0.17 -1.31 9.79 0.16 -0.04 -0.10 11629
0.19 0.43 0.18 -1.29 9.87 0.18 -0.03 -0.10 11636
0.19 0.37 0.17 -1.36 9.81 0.20 -0.03 -0.10 11643
0.18 0.34 0.10 -1.40 9.82 0.23 -0.02 -0.11 11651
0.20 0.32 0.25 -1.33 9.88 0.26 -0.00 -0.12 11658
0.23 0.32 0.23 -1.49 9.91 0.30 0.01 -0.13 11665
0.26 0.31 0.19 -1.43 9.95 0.33 0.03 -0.13 11672
0.27 0.27 0.19 -1.48 9.97 0.36 0.04 -0.14 11679
0.28 0.23 0.19 -1.51 9.98 0.39 0.06 -0.15 11686
0.29 0.22 0.43 -1.58 10.04 0.43 0.08 -0.16 11695
0.31 0.17 0.16 -1.63 10.16 0.46 0.10 -0.17 11702
0.36 0.20 0.30 -1.71 10.16 0.52 0.12 -0.20 11709
0.37 0.16 0.25 -1.75 10.40 0.60 0.12 -0.21 11716
0.35 0.16 0.25 -1.90 10.75 0.71 0.11 -0.22 11723
0.43 0.12 0.17 -2.02 10.95 0.91 0.14 -0.21 11730
0.43 0.14 0.31 -0.71 10.96 1.06 0.13 -0.20 11738
0.47 0.16 0.10 -2.06 10.89 1.17 0.12 -0.20 11744
0.45 0.11 0.15 -2.13 10.87 1.27 0.10 -0.19 11752
0.49 0.15 0.14 -2.28 10.81 1.38 0.09 -0.19 11759
0.51 0.14 0.20 -2.40 10.97 1.48 0.06 -0.17 11766
0.55 0.14 -0.19 -2.38 10.78 1.57 0.05 -0.15 11773
0.57 0.14 0.15 -2.54 10.77 1.69 0.03 -0.13 11781
0.57 0.15 0.03 -2.68 10.57 1.79 0.01 -0.12 11788
0.62 0.11 0.23 -3.10 11.18 1.91 0.01 -0.10 11794
0.61 0.12 0.10 -2.83 10.98 2.06 0.04 -0.09 11801
0.65 0.13 -1.04 -2.71 9.25 2.18 0.06 -0.09 11808
0.68 0.13 0.61 -3.07 11.87 2.37 0.07 -0.11 11816
0.69 0.11 0.85 -3.33 11.77 2.56 0.07 -0.16 11824
0.70 0.16 0.98 -3.08 12.62 2.77 0.03 -0.20 11830
0.72 0.16 0.56 -3.97 12.10 2.98 -0.03 -0.26 11838
0.72 0.18 0.91 -3.68 12.91 3.21 -0.06 -0.33 11845
0.68 0.17 1.18 -4.14 12.87 3.50 -0.12 -0.39 11852
0.66 0.16 0.86 -4.10 13.05 3.80 -0.21 -0.46 11859
0.63 0.13 0.36 -4.46 13.92 4.07 -0.24 -0.48 11867
0.52 0.15 0.84 -4.65 14.68 4.26 -0.37 -0.51 11874
0.43 0.13 0.65 -5.41 15.68 4.28 -0.51 -0.53 11881
0.35 0.09 0.76 -6.20 17.09 4.28 -0.53 -0.52 11887
0.31 0.06 0.95 -7.47 18.07 4.28 -0.47 -0.47 11895
0.20 0.07 1.87 -8.98 19.53 4.28 -0.44 -0.52 11902
0.13 0.08 0.17 -9.52 21.45 4.28 -0.47 -0.67 11910
0.10 0.08 -2.59 -9.29 23.69 4.28 -0.95 -0.75 11917
0.07 0.07 -2.99 -10.61 25.28 4.28 -1.20 -0.59 11924
0.07 0.07 -1.05 -9.87 24.87 4.28 -1.47 -0.49 11931
0.02 0.06 1.38 -9.71 27.37 4.28 -1.77 -0.49 11938
0.01 0.07 4.43 -7.43 27.18 4.28 -1.93 -0.53 11945
0.01 0.09 5.96 -3.95 25.63 4.28 -1.87 -0.53 11953
0.01 0.10 6.07 -0.27 23.49 4.28 -1.54 -0.58 11960
0.01 0.10 6.31 3.33 23.07 4.28 -1.23 -0.69 11967
-0.01 0.11 5.83 9.38 19.10 4.28 -1.01 -0.89 11973
-0.01 0.11 6.05 12.37 10.19 4.28 -0.84 -1.17 11981
-0.01 0.13 7.99 12.66 21.80 4.13 0.11 -1.35 11988
-0.01 0.14 6.54 13.03 27.89 1.50 0.77 -1.47 11996
-0.01 0.15 1.24 11.82 22.41 -0.72 1.10 -1.31 12003
-0.01 0.14 -0.91 10.17 16.89 -1.86 0.75 -1.01 12010
-0.01 0.14 -1.63 8.18 13.03 -2.57 0.18 -0.84 12016
-0.01 0.13 -0.80 5.85 9.06 -2.80 -0.39 -0.69 12023
-0.01 0.13 0.11 4.31 6.70 -2.83 -0.69 -0.53 12030
-0.01 0.15 1.08 4.54 5.93 -2.81 -0.86 -0.45 12038
-0.00 0.13 1.93 4.03 5.49 -2.81 -0.82 -0.31 12045
-0.01 0.13 2.28 4.30 5.70 -2.86 -0.66 -0.19 12052
-0.01 0.12 2.27 4.83 6.00 -3.02 -0.38 -0.08 12059
-0.01 0.12 1.87 5.17 6.79 -3.22 -0.11 0.01 12066
-0.01 0.13 1.24 5.38 7.31 -3.49 0.15 0.07 12073
-0.01 0.14 0.48 5.42 7.70 -3.73 0.33 0.10 12081
-0.01 0.15 0.04 5.32 8.36 -4.01 0.42 0.10 12088
-0.01 0.14 -0.40 4.56 8.75 -4.19 0.45 0.06 12095
-0.01 0.11 -0.53 3.56 9.35 -4.27 0.49 -0.02 12102
-0.01 0.12 -0.65 2.50 9.79 -4.28 0.57 -0.11 12109
-0.01 0.13 -1.00 1.20 10.44 -4.28 0.68 -0.23 12116
-0.01 0.12 -1.34 0.12 11.16 -4.28 0.77 -0.37 12125
-0.01 0.11 -1.77 -0.86 11.62 -4.28 0.83 -0.44 12131
-0.01 0.10 -2.14 -1.81 12.08 -4.28 0.83 -0.54 12138
-0.01 0.10 -2.36 -2.66 12.62 -4.28 0.82 -0.62 12145
-0.01 0.12 -2.37 -3.33 13.20 -4.28 0.82 -0.72 12152
-0.01 0.11 -2.25 -3.80 13.74 -4.28 0.84 -0.77 12160
-0.01 0.12 -2.10 -4.12 14.16 -4.28 0.87 -0.80 12168
-0.01 0.13 -1.89 -4.43 14.80 -4.28 0.90 -0.76 12175
-0.01 0.14 -1.71 -4.69 15.88 -4.28 0.94 -0.68 12182
-0.01 0.14 -1.36 -5.13 15.94 -4.28 1.03 -0.55 12188
-0.01 0.14 -1.25 -5.65 16.58 -4.28 1.13 -0.37 12195
-0.01 0.14 -1.15 -6.28 17.25 -4.28 1.25 -0.22 12204
0.00 0.13 -0.99 -7.37 17.80 -4.28 1.32 -0.04 12211
-0.01 0.13 -0.81 -8.18 17.65 -4.28 1.38 0.10 12218
-0.01 0.13 -0.58 -8.90 18.52 -4.18 1.45 0.23 12224
-0.01 0.11 -0.57 -8.99 20.38 -4.04 1.55 0.30 12231
-0.01 0.13 -0.59 -9.04 21.91 -4.02 1.67 0.32 12238
-0.01 0.15 -0.99 -9.46 22.99 -4.12 1.73 0.32 12247
-0.00 0.13 -1.41 -9.92 23.34 -4.22 1.73 0.31 12254
-0.01 0.13 -1.84 -10.62 23.33 -4.27 1.68 0.31 12261
-0.01 0.11 -2.32 -11.40 22.80 -4.28 1.62 0.30 12268
-0.01 0.11 -2.79 -12.33 22.13 -4.28 1.55 0.30 12275
-0.01 0.12 -3.15 -13.79 21.02 -4.28 1.49 0.28 12282
-0.01 0.14 -3.35 -15.02 19.57 -4.28 1.42 0.24 12290
-0.01 0.13 -3.38 -16.55 18.09 -4.27 1.32 0.26 12297
-0.01 0.12 -3.19 -17.97 16.20 -4.20 1.21 0.28 12304
-0.01 0.10 -3.27 -19.44 13.75 -3.98 1.19 0.32 12311
-0.01 0.12 -3.53 -21.87 12.34 -3.63 1.18 0.36 12318
-0.01 0.13 -3.44 -25.40 9.83 -3.31 1.12 0.28 12324
-0.01 0.14 -2.97 -29.33 7.09 -2.89 1.02 0.11 12333
-0.01 0.15 -2.95 -34.73 2.97 -2.49 1.09 -0.14 12339
-0.01 0.14 -4.66 -38.96 -0.03 -1.91 1.37 -0.26 12346
0.01 0.13 -8.57 -39.95 -0.35 -1.08 1.63 -0.19 12354
-0.01 0.13 -12.58 -35.92 1.42 -0.25 1.23 0.01 12361
-0.00 0.14 -13.97 -30.11 3.75 0.63 0.26 0.19 12368
0.03 0.13 -11.33 -22.99 6.30 1.20 -1.01 0.34 12376
0.02 0.14 -6.78 -17.96 7.47 1.39 -1.72 0.43 12383
-0.02 0.16 0.88 -28.62 27.07 3.19 -2.04 -0.26 12390
-0.02 0.17 0.80 1.38 3.50 3.59 -0.86 -0.35 12396
-0.02 0.24 -0.16 4.92 9.95 3.59 -1.20 -0.47 12403
-0.03 0.39 0.43 0.27 16.66 3.07 -1.53 -0.39 12411
-0.03 0.52 5.30 2.65 8.88 2.70 -1.26 -0.05 12418
-0.04 0.63 1.85 -0.40 8.56 2.84 -1.15 0.26 12425
-0.04 0.64 -1.03 -2.52 14.42 3.44 -0.96 0.45 12433
-0.05 0.71 1.16 -2.72 17.64 3.96 -0.25 0.64 12440
-0.05 0.92 -2.21 -4.32 21.48 3.66 0.10 0.84 12447
-0.05 1.10 -5.63 -6.21 20.62 3.19 0.02 0.58 12454
-0.05 1.20 -4.98 -4.30 16.88 3.07 0.01 0.16 12461
-0.05 1.33 -1.72 -2.97 15.96 2.80 0.04 -0.17 12469
-0.05 1.38 0.72 -2.50 14.42 2.42 0.13 -0.23 12476
-0.05 1.46 2.77 -1.72 13.02 2.26 0.27 -0.05 12483
-0.05 1.45 2.19 -1.32 11.99 2.14 0.44 0.27 12490
-0.05 1.45 -0.12 -3.30 17.66 1.79 0.36 0.38 12497
-0.05 1.48 -0.43 -1.95 13.16 0.29 -0.38 0.16 12505
-0.03 1.50 -0.63 -2.29 11.11 -0.13 -0.11 0.04 12512
-0.05 1.50 -0.18 -1.73 10.00 -0.14 -0.03 0.03 12518
-0.06 1.48 0.60 -1.22 9.86 -0.14 -0.00 0.05 12525
-0.08 1.46 0.06 -1.26 9.84 -0.11 -0.00 0.05 12532
-0.08 1.50 -0.03 -1.34 9.84 -0.12 0.02 0.02 12539
-0.07 1.48 0.09 -1.15 9.84 -0.12 0.04 0.00 12547
-0.08 1.51 0.08 -1.20 9.89 -0.10 0.05 -0.00 12554
-0.08 1.49 -0.06 -1.02 9.75 -0.08 0.06 -0.01 12561
-0.08 1.51 0.08 -1.08 9.84 -0.08 0.08 -0.02 12568
-0.07 1.50 0.12 -0.96 9.77 -0.07 0.09 -0.02 12575
-0.06 1.48 0.11 -1.00 9.82 -0.06 0.09 -0.02 12582
-0.06 1.46 0.07 -0.96 9.79 -0.04 0.08 -0.01 12590
-0.05 1.42 0.12 -0.90 9.80 -0.03 0.08 -0.01 12597
-0.04 1.41 0.09 -0.89 9.79 -0.01 0.10 -0.01 12604
-0.06 1.37 0.08 -0.87 9.79 0.01 0.10 -0.01 12611
-0.05 1.35 0.07 -0.87 9.78 0.03 0.11 -0.01 12618
-0.04 1.32 0.10 -0.86 9.81 0.04 0.12 -0.01 12625
-0.06 1.29 0.16 -0.86 9.80 0.05 0.12 -0.00 12633
-0.05 1.20 0.17 -0.88 9.72 0.07 0.13 -0.00 12640
-0.07 1.13 0.21 -0.94 9.78 0.08 0.12 -0.01 12647
-0.04 1.13 0.24 -0.94 9.68 0.09 0.11 -0.01 12654
-0.03 1.06 0.35 -0.91 9.72 0.09 0.09 -0.02 12661
-0.01 1.02 0.33 -0.95 9.64 0.10 0.06 -0.03 12668
-0.01 0.97 0.31 -0.98 9.64 0.09 0.05 -0.04 12676
-0.00 0.88 0.27 -0.92 9.73 0.09 0.03 -0.04 12683
0.00 0.85 0.17 -1.00 9.71 0.09 0.02 -0.04 12690
0.01 0.83 0.19 -0.98 9.72 0.09 0.02 -0.05 12697
0.02 0.78 0.18 -0.96 9.75 0.09 0.02 -0.04 12704
0.04 0.79 0.21 -0.99 9.70 0.08 0.02 -0.05 12711
0.02 0.71 0.22 -1.03 9.71 0.08 0.02 -0.04 12719
0.02 0.70 0.21 -1.05 9.74 0.08 0.02 -0.05 12726
0.00 0.68 0.28 -1.01 9.75 0.08 0.02 -0.05 12733
0.00 0.69 0.31 -1.09 9.72 0.08 0.01 -0.05 12740
0.00 0.71 0.29 -1.08 9.74 0.08 -0.00 -0.05 12747
0.04 0.69 0.28 -1.07 9.75 0.09 -0.02 -0.06 12754
0.04 0.61 0.27 -1.10 9.74 0.09 -0.04 -0.06 12762
0.03 0.64 0.32 -1.10 9.69 0.09 -0.05 -0.10 12769
0.04 0.56 0.29 -1.10 9.69 0.09 -0.05 -0.07 12776
0.08 0.54 0.27 -1.11 9.79 0.10 -0.06 -0.07 12783
0.10 0.53 0.19 -1.14 9.80 0.11 -0.06 -0.08 12790
0.12 0.51 0.24 -1.14 9.79 0.12 -0.05 -0.08 12797
0.13 0.47 0.19 -1.12 9.79 0.13 -0.05 -0.08 12805
0.12 0.49 0.22 -1.16 9.89 0.14 -0.05 -0.08 12812
0.14 0.39 0.07 -1.26 9.82 0.16 -0.04 -0.08 12819
0.15 0.41 0.17 -1.25 9.81 0.17 -0.03 -0.09 12826
0.19 0.36 0.15 -1.21 9.93 0.20 -0.03 -0.09 12833
0.21 0.32 0.16 -1.26 9.82 0.22 -0.02 -0.10 12840
0.23 0.33 0.21 -1.26 9.92 0.24 -0.02 -0.10 12848
0.26 0.25 0.27 -1.31 9.93 0.27 -0.01 -0.11 12855
0.23 0.31 0.24 -1.22 10.00 0.30 -0.01 -0.11 12862
0.26 0.23 0.36 -1.38 10.00 0.33 -0.01 -0.13 12870
0.31 0.24 0.36 -1.41 9.97 0.36 -0.00 -0.14 12876
0.35 0.19 0.39 -1.37 10.09 0.40 -0.01 -0.16 12883
0.42 0.12 0.40 -1.49 10.06 0.45 -0.02 -0.18 12891
0.41 0.14 0.35 -1.57 10.30 0.52 -0.02 -0.22 12899
0.41 0.16 0.51 -1.50 10.32 0.61 -0.02 -0.25 12906
0.43 0.18 0.44 -1.88 10.48 0.70 -0.01 -0.29 12913
0.48 0.15 0.27 -1.98 10.76 0.85 0.02 -0.30 12919
0.53 0.11 -0.24 -1.77 10.88 1.02 0.01 -0.28 12928
0.56 0.12 -0.12 -1.91 10.76 1.14 -0.02 -0.25 12935
0.58 0.15 -0.15 -1.99 10.46 1.22 -0.03 -0.23 12942
0.63 0.14 -0.13 -2.11 10.66 1.31 -0.05 -0.20 12949
0.63 0.16 -0.35 -2.07 10.65 1.40 -0.05 -0.17 12956
0.68 0.15 -0.47 -2.57 11.01 1.52 -0.05 -0.13 12963
0.70 0.16 0.42 -2.45 10.96 1.64 -0.03 -0.11 12971
0.74 0.12 0.54 -2.45 11.54 1.81 -0.03 -0.12 12978
0.72 0.14 0.81 -2.08 11.31 1.96 -0.05 -0.14 12985
0.77 0.14 0.49 -2.79 8.30 2.15 -0.03 -0.19 12991
0.78 0.13 0.83 -3.38 12.20 2.36 -0.01 -0.22 12999
0.80 0.10 0.22 -3.28 12.08 2.51 -0.01 -0.26 13005
0.79 0.12 0.08 -3.21 12.01 2.71 -0.02 -0.28 13014
0.81 0.12 0.02 -3.54 12.65 2.93 -0.08 -0.26 13021
0.76 0.16 -0.47 -2.51 11.37 3.13 -0.10 -0.27 13028
0.72 0.17 0.23 -3.85 12.95 3.35 -0.15 -0.30 13035
0.74 0.16 0.56 -3.84 13.21 3.59 -0.14 -0.36 13042
0.65 0.15 0.34 -4.21 12.99 3.90 -0.23 -0.41 13049
0.57 0.14 0.76 -4.56 13.45 4.15 -0.23 -0.46 13057
0.49 0.13 0.68 -5.15 13.97 4.26 -0.25 -0.50 13064
0.41 0.16 0.28 -5.51 15.48 4.28 -0.38 -0.49 13071
0.32 0.09 0.46 -6.54 17.10 4.28 -0.41 -0.46 13078
0.23 0.08 1.75 -6.95 17.22 4.28 -0.27 -0.44 13085
0.16 0.09 1.39 -8.08 18.44 4.28 -0.14 -0.54 13092
0.14 0.07 -0.68 -9.41 20.78 4.28 -0.25 -0.65 13100
0.05 0.08 -1.66 -8.40 21.84 4.28 -0.59 -0.65 13107
0.03 0.08 -0.74 -9.87 22.87 4.28 -0.67 -0.50 13114
0.02 0.08 0.40 -9.18 21.88 4.28 -0.69 -0.50 13120
0.03 0.05 2.38 -9.77 24.34 4.28 -0.86 -0.55 13128
0.00 0.06 3.27 -7.18 24.41 4.28 -0.96 -0.62 13135
-0.01 0.06 4.62 -3.86 23.84 4.28 -0.92 -0.66 13142
-0.01 0.10 5.74 -0.53 22.62 4.28 -0.59 -0.76 13149
-0.01 0.11 5.72 2.10 19.96 4.28 -0.17 -0.89 13156
-0.01 0.15 5.15 7.00 16.06 4.28 0.19 -1.11 13163
-0.01 0.10 5.38 10.39 9.85 4.28 0.42 -1.43 13170
-0.01 0.11 7.19 8.43 15.33 4.28 1.12 -1.54 13177
-0.01 0.10 4.73 9.13 22.96 2.71 1.78 -1.61 13185
-0.01 0.11 1.68 10.46 19.94 1.07 1.93 -1.45 13193
-0.01 0.12 -1.17 11.10 16.97 -0.44 1.41 -1.12 13200
-0.01 0.13 -2.63 8.93 13.42 -1.38 0.43 -0.75 13207
-0.01 0.12 -2.29 6.90 11.33 -2.04 -0.41 -0.48 13213
-0.01 0.12 -1.26 5.65 9.64 -2.40 -1.16 -0.25 13220
-0.01 0.11 -0.19 5.34 8.32 -2.58 -1.54 -0.08 13228
-0.01 0.13 1.06 5.25 7.96 -2.80 -1.64 0.03 13235
-0.01 0.14 1.85 5.29 8.16 -3.03 -1.47 0.12 13242
-0.00 0.15 2.14 5.46 8.02 -3.33 -1.16 0.17 13249
-0.01 0.13 2.62 4.92 7.68 -3.64 -0.71 0.17 13256
-0.01 0.12 2.48 4.33 7.65 -3.86 -0.30 0.12 13263
-0.01 0.11 2.09 3.63 7.39 -4.03 0.17 0.02 13271
-0.01 0.12 1.26 2.87 7.20 -4.09 0.54 -0.13 13278
-0.01 0.13 0.34 2.44 7.64 -4.12 0.74 -0.26 13285
-0.01 0.12 -0.58 2.08 8.60 -4.15 0.86 -0.38 13292
-0.01 0.13 -0.95 1.77 9.66 -4.21 0.90 -0.47 13299
-0.01 0.12 -1.12 1.54 10.36 -4.27 0.91 -0.50 13306
-0.01 0.11 -1.32 0.80 11.04 -4.28 0.91 -0.50 13314
-0.01 0.12 -1.44 -0.07 11.46 -4.28 0.88 -0.44 13321
-0.01 0.13 -1.50 -0.95 11.90 -4.28 0.82 -0.43 13328
-0.01 0.12 -1.37 -1.82 12.32 -4.28 0.76 -0.38 13336
-0.01 0.12 -1.19 -2.41 12.62 -4.28 0.74 -0.33 13342
-0.01 0.11 -1.00 -2.93 12.86 -4.28 0.72 -0.24 13349
-0.01 0.13 -0.77 -3.20 13.35 -4.28 0.70 -0.13 13357
-0.01 0.13 -0.47 -3.44 13.88 -4.28 0.71 -0.03 13365
0.00 0.14 -0.19 -3.66 14.58 -4.28 0.74 0.11 13371
-0.00 0.15 -0.07 -3.88 15.61 -4.28 0.79 0.22 13379
-0.01 0.14 -0.11 -4.57 16.44 -4.28 0.87 0.36 13386
-0.01 0.13 -0.19 -5.18 17.46 -4.28 0.92 0.49 13393
-0.01 0.14 -0.18 -5.73 17.99 -4.28 0.91 0.61 13400
-0.00 0.15 -0.06 -6.34 18.54 -4.28 0.85 0.75 13408
-0.01 0.16 0.13 -6.91 19.14 -4.28 0.76 0.90 13415
-0.02 0.16 0.38 -7.51 19.54 -4.28 0.71 0.97 13421
-0.01 0.14 0.60 -8.21 20.14 -4.28 0.71 1.03 13428
-0.01 0.13 0.58 -8.55 20.94 -4.28 0.76 1.03 13435
-0.01 0.13 0.38 -9.17 21.58 -4.27 0.80 0.97 13443
-0.01 0.13 0.11 -10.37 21.68 -4.24 0.81 0.85 13451
-0.00 0.12 -0.10 -10.88 21.47 -4.19 0.81 0.75 13458
-0.01 0.12 -0.14 -12.22 21.02 -4.10 0.82 0.58 13465
-0.01 0.12 -0.14 -13.55 21.10 -3.92 0.87 0.40 13472
-0.01 0.11 0.21 -15.02 21.48 -3.79 1.03 0.17 13479
-0.01 0.13 0.49 -16.24 21.33 -3.78 1.23 -0.08 13487
-0.01 0.11 0.48 -17.00 20.50 -3.89 1.45 -0.28 13493
-0.01 0.11 0.28 -18.25 18.46 -3.99 1.56 -0.45 13501
-0.01 0.10 0.09 -20.40 15.39 -4.00 1.59 -0.51 13507
-0.01 0.09 -0.37 -23.56 11.93 -3.81 1.60 -0.54 13515
-0.01 0.10 -1.71 -27.60 7.97 -3.48 1.85 -0.59 13521
-0.01 0.10 -3.80 -32.73 4.98 -3.02 2.32 -0.63 13529
-0.01 0.12 -9.11 -39.37 2.13 -2.59 2.55 -0.61 13536
0.00 0.11 -14.45 -44.29 -0.67 -1.98 2.36 -0.37 13544
0.01 0.08 -18.33 -44.88 -1.91 -1.05 1.39 -0.10 13551
0.01 0.06 -17.55 -39.51 -1.46 -0.06 -0.27 0.12 13558
-0.00 0.08 -13.27 -33.33 1.25 1.00 -1.61 0.22 13565
0.01 0.10 -7.53 -26.13 5.46 1.69 -2.36 0.31 13573
-0.01 0.11 14.21 -21.10 33.02 3.25 -2.40 -0.40 13580
-0.02 0.21 -0.57 3.83 9.26 3.65 -1.18 -0.39 13586
-0.03 0.26 0.17 8.76 10.44 3.24 -1.29 -0.43 13593
-0.03 0.36 -1.64 0.45 16.00 2.64 -1.69 -0.42 13601
-0.04 0.53 4.78 2.87 9.58 2.30 -1.46 -0.12 13607
-0.04 0.67 4.00 -0.07 7.73 2.46 -1.14 0.31 13615
-0.04 0.66 -0.48 -1.67 12.09 3.07 -0.87 0.55 13623
-0.04 0.69 -0.18 -2.45 14.91 3.62 -0.32 0.71 13630
-0.05 0.83 -0.92 -3.14 18.76 3.78 0.13 0.79 13637
-0.06 1.01 -4.79 -5.47 22.39 3.20 0.21 0.69 13644
-0.07 1.15 -4.42 -4.59 16.94 2.89 0.23 0.28 13651
-0.05 1.22 -2.56 -3.16 15.18 2.83 0.16 -0.03 13659
-0.03 1.25 0.28 -2.34 14.96 2.51 0.08 -0.15 13666
-0.04 1.31 1.79 -2.00 13.37 2.27 0.13 -0.04 13673
-0.05 1.39 1.90 -2.02 12.63 2.08 0.24 0.14 13680
-0.05 1.43 0.69 -2.43 13.18 1.91 0.32 0.31 13687
-0.05 1.36 -0.96 -3.62 16.64 1.16 -0.17 0.26 13694
-0.07 1.39 -0.15 -1.69 11.66 0.23 -0.47 0.13 13702
-0.07 1.42 -0.31 -1.96 10.37 -0.02 -0.22 0.10 13709
-0.03 1.41 -0.10 -1.51 9.79 -0.09 -0.10 0.07 13715
-0.05 1.36 0.18 -1.38 9.82 -0.12 -0.08 0.06 13722
-0.05 1.40 0.02 -1.56 9.84 -0.12 -0.08 0.04 13729
-0.07 1.44 -0.08 -1.55 9.90 -0.13 -0.06 0.02 13736
-0.07 1.43 -0.05 -1.41 9.90 -0.14 -0.03 0.00 13744
-0.06 1.39 -0.01 -1.31 9.78 -0.12 -0.01 -0.00 13751
-0.08 1.47 -0.04 -1.28 9.84 -0.11 0.00 -0.02 13758
-0.08 1.45 0.04 -1.12 9.75 -0.10 0.02 -0.02 13765
-0.08 1.48 0.01 -1.14 9.81 -0.09 0.03 -0.02 13772
-0.06 1.47 -0.59 -1.08 9.79 -0.08 0.04 -0.02 13779
-0.08 1.48 -0.06 -1.03 9.69 -0.06 0.04 -0.02 13787
-0.08 1.42 -0.01 -1.08 9.83 -0.00 0.05 -0.02 13794
-0.09 1.41 0.02 -1.01 9.81 -0.01 0.05 -0.02 13801
-0.08 1.41 0.03 -0.97 9.77 0.01 0.06 -0.01 13808
-0.07 1.37 -0.01 -0.98 9.79 0.02 0.06 -0.01 13815
-0.07 1.36 0.06 -1.02 9.75 0.03 0.06 -0.01 13822
-0.06 1.27 0.03 -1.00 9.75 0.05 0.06 -0.01 13830
-0.07 1.22 0.05 -1.03 9.74 0.05 0.06 -0.01 13837
-0.05 1.17 0.09 -1.01 9.75 0.06 0.06 -0.01 13844
-0.03 1.17 0.07 -1.03 9.73 0.07 0.05 -0.02 13851
-0.03 1.12 0.09 -1.04 9.73 0.07 0.05 -0.02 13858
-0.02 1.09 0.14 -1.04 9.73 0.07 0.04 -0.03 13865
-0.01 1.03 0.10 -1.03 9.74 0.07 0.02 -0.03 13873
-0.01 0.95 0.13 -1.08 9.69 0.08 0.02 -0.04 13880
-0.02 0.96 0.14 -1.08 9.76 0.08 0.01 -0.05 13887
-0.01 0.91 0.11 -1.09 9.68 0.08 -0.00 -0.05 13894
-0.03 0.92 0.04 -1.08 9.73 0.08 -0.01 -0.05 13901
-0.01 0.87 0.06 -1.12 9.77 0.08 -0.00 -0.05 13908
-0.00 0.83 0.07 -1.12 9.75 0.08 -0.00 -0.05 13916
0.00 0.82 0.06 -1.14 9.68 0.07 -0.00 -0.05 13923
0.02 0.74 0.08 -1.14 9.71 0.07 -0.00 -0.05 13930
0.02 0.76 0.10 -1.15 9.71 0.07 -0.01 -0.05 13937
0.04 0.74 0.07 -1.18 9.70 0.07 -0.01 -0.05 13944
0.05 0.73 0.13 -1.18 9.72 0.07 -0.02 -0.06 13952
0.05 0.70 0.15 -1.17 9.76 0.08 -0.03 -0.06 13959
0.06 0.63 0.11 -1.21 9.71 0.08 -0.03 -0.06 13966
0.06 0.67 0.07 -1.25 9.75 0.09 -0.04 -0.07 13973
0.11 0.63 0.10 -1.24 9.72 0.09 -0.05 -0.07 13980
0.13 0.60 0.09 -1.18 9.75 0.10 -0.05 -0.07 13987
0.16 0.63 0.07 -1.27 9.77 0.11 -0.06 -0.07 13995
0.17 0.56 0.04 -1.27 9.81 0.11 -0.07 -0.07 14002
0.18 0.52 0.08 -1.25 9.78 0.13 -0.06 -0.08 14009
0.18 0.52 0.01 -1.31 9.78 0.14 -0.06 -0.08 14016
0.21 0.51 0.04 -1.38 9.83 0.15 -0.06 -0.08 14023
0.23 0.48 -0.00 -1.32 9.77 0.17 -0.05 -0.09 14030
0.27 0.50 0.09 -1.33 9.89 0.18 -0.05 -0.10 14038
0.30 0.44 0.04 -1.42 9.87 0.20 -0.04 -0.10 14045
0.31 0.37 -0.02 -1.37 9.93 0.21 -0.03 -0.11 14052
0.34 0.34 0.11 -1.43 9.72 0.23 -0.02 -0.11 14059
0.35 0.33 0.08 -1.49 9.91 0.25 0.00 -0.12 14066
0.37 0.32 -0.01 -1.45 9.87 0.27 0.02 -0.12 14073
0.41 0.29 0.06 -1.47 9.93 0.29 0.04 -0.13 14081
0.38 0.25 0.15 -1.51 9.89 0.32 0.06 -0.14 14088
0.40 0.20 0.03 -1.40 10.00 0.36 0.06 -0.15 14095
0.40 0.17 0.03 -1.47 9.98 0.41 0.06 -0.15 14102
0.45 0.15 0.10 -1.62 10.26 0.47 0.06 -0.17 14110
0.48 0.17 0.22 -1.75 10.27 0.56 0.06 -0.18 14117
0.52 0.14 0.20 -1.82 10.30 0.66 0.06 -0.20 14124
0.54 0.16 0.26 -2.08 10.73 0.77 0.11 -0.20 14132
0.53 0.15 -0.14 -1.96 10.84 0.96 0.14 -0.19 14139
0.56 0.14 0.01 -1.93 10.83 1.09 0.13 -0.18 14146
0.55 0.16 0.00 -2.11 11.00 1.18 0.14 -0.17 14152
0.60 0.16 -0.33 -2.22 10.87 1.30 0.13 -0.16 14160
0.64 0.15 -0.49 -2.15 10.92 1.41 0.13 -0.14 14168
0.66 0.17 -0.43 -2.69 11.31 1.54 0.13 -0.13 14175
0.65 0.15 -0.00 -2.57 11.39 1.67 0.13 -0.12 14182
0.66 0.15 0.30 -2.65 11.45 1.85 0.11 -0.12 14189
0.69 0.13 0.85 -2.73 10.92 2.03 0.08 -0.15 14196
0.73 0.12 0.31 -2.94 11.95 2.18 0.14 -0.16 14203
0.73 0.13 0.11 -3.12 15.86 2.36 0.17 -0.18 14211
0.73 0.14 0.33 -3.12 11.65 2.58 0.21 -0.19 14218
0.74 0.11 0.08 -3.07 12.56 2.76 0.22 -0.20 14225
0.73 0.11 -0.04 -3.32 12.45 3.01 0.23 -0.20 14232
0.72 0.16 0.49 -3.34 12.12 3.21 0.18 -0.22 14239
0.68 0.16 0.38 -3.79 12.49 3.43 0.22 -0.24 14246
0.63 0.15 0.83 -3.92 12.90 3.73 0.10 -0.27 14254
0.56 0.12 0.78 -4.15 13.44 3.98 0.09 -0.32 14261
0.49 0.12 0.98 -4.39 14.00 4.21 0.01 -0.36 14268
0.40 0.13 0.45 -5.06 14.63 4.28 -0.12 -0.41 14275
0.37 0.12 -0.15 -5.35 16.00 4.28 -0.23 -0.42 14282
0.25 0.09 0.64 -6.86 18.16 4.28 -0.26 -0.37 14289
0.20 0.07 1.40 -7.65 17.89 4.28 -0.24 -0.38 14297
0.17 0.08 1.18 -8.92 18.99 4.28 -0.18 -0.46 14304
0.08 0.09 -0.67 -9.82 21.78 4.28 -0.36 -0.54 14311
0.07 0.08 -0.71 -9.43 24.04 4.28 -0.74 -0.50 14318
0.05 0.07 -0.88 -9.53 22.40 4.28 -0.90 -0.46 14324
0.05 0.07 0.58 -8.47 21.72 4.28 -1.00 -0.46 14332
-0.00 0.08 2.13 -8.90 25.43 4.28 -1.16 -0.46 14340
0.00 0.05 4.38 -7.53 25.38 4.28 -1.35 -0.50 14346
-0.01 0.06 5.48 -3.25 23.67 4.28 -1.34 -0.55 14353
-0.01 0.09 6.69 0.64 23.50 4.28 -1.04 -0.62 14360
-0.01 0.11 6.26 4.77 21.37 4.28 -0.56 -0.79 14367
-0.01 0.13 5.99 9.63 16.41 4.28 -0.41 -1.06 14374
-0.01 0.12 5.20 15.87 8.33 4.28 -0.17 -1.46 14382
-0.01 0.11 9.04 13.52 21.56 3.67 0.72 -1.63 14390
-0.01 0.14 5.87 13.42 26.05 1.14 1.39 -1.70 14397
-0.01 0.14 0.90 13.10 20.31 -0.52 1.61 -1.55 14404
-0.01 0.13 -0.92 11.96 14.91 -1.75 1.26 -1.32 14411
-0.01 0.12 -1.28 9.46 11.51 -2.35 0.44 -1.11 14417
-0.01 0.13 -0.84 7.02 8.74 -2.56 -0.17 -0.94 14425
-0.01 0.12 0.09 5.98 7.44 -2.69 -0.63 -0.81 14432
-0.01 0.14 1.09 5.37 6.98 -2.79 -0.83 -0.65 14439
-0.01 0.14 1.66 5.03 6.99 -2.96 -0.82 -0.50 14446
-0.01 0.14 2.02 5.12 7.51 -3.18 -0.64 -0.32 14453
-0.01 0.13 1.88 5.25 8.26 -3.42 -0.41 -0.16 14460
-0.01 0.14 1.65 5.12 8.85 -3.75 -0.14 -0.05 14468
-0.01 0.13 1.15 4.78 9.31 -4.08 0.08 0.05 14475
-0.02 0.15 0.76 4.23 9.64 -4.23 0.20 0.11 14482
-0.02 0.17 0.15 3.58 9.71 -4.28 0.24 0.14 14489
-0.01 0.15 -0.19 2.58 9.90 -4.28 0.23 0.13 14496
-0.02 0.16 -0.37 1.57 10.08 -4.28 0.25 0.09 14503
-0.02 0.17 -0.44 0.36 10.59 -4.28 0.33 0.05 14511
-0.01 0.15 -0.65 -1.06 11.28 -4.28 0.43 -0.00 14518
-0.02 0.17 -1.06 -1.35 11.75 -4.28 0.53 -0.05 14525
-0.01 0.18 -1.58 -2.10 12.43 -4.28 0.58 -0.12 14533
-0.01 0.17 -2.05 -2.62 12.82 -4.28 0.58 -0.20 14540
-0.02 0.16 -2.24 -2.99 13.20 -4.28 0.54 -0.28 14546
-0.02 0.16 -1.94 -3.26 13.90 -4.28 0.51 -0.36 14554
-0.01 0.15 -1.35 -3.51 14.39 -4.28 0.52 -0.41 14561
-0.02 0.16 -0.80 -3.80 14.93 -4.28 0.58 -0.41 14568
-0.01 0.18 -0.43 -3.96 15.36 -4.28 0.65 -0.39 14576
-0.00 0.17 0.03 -4.18 15.97 -4.28 0.73 -0.30 14583
-0.01 0.17 0.37 -4.49 17.01 -4.28 0.83 -0.18 14590
-0.00 0.15 0.42 -4.80 17.84 -4.28 0.88 -0.03 14597
-0.01 0.15 0.06 -5.21 18.88 -4.28 0.90 0.17 14604
-0.01 0.17 0.58 -5.62 19.39 -4.28 0.91 0.37 14612
-0.00 0.17 0.64 -6.33 20.04 -4.28 0.91 0.53 14619
-0.01 0.17 0.69 -6.90 20.89 -4.28 0.95 0.68 14626
-0.01 0.15 0.53 -7.66 21.49 -4.28 1.03 0.76 14633
-0.01 0.13 0.53 -8.83 21.85 -4.28 1.14 0.77 14640
-0.01 0.14 0.34 -10.05 21.40 -4.26 1.23 0.71 14648
-0.01 0.14 0.38 -11.79 20.99 -4.14 1.31 0.61 14655
-0.01 0.13 -3.32 -27.34 20.75 -3.79 1.30 0.64 14662
-0.01 0.14 6.10 -12.19 10.85 -2.37 1.88 0.71 14669
-0.01 0.14 -2.17 -13.33 17.39 -2.31 1.42 0.40 14676
-0.01 0.14 -1.72 -16.67 23.84 -2.66 1.18 0.20 14684
-0.01 0.14 -0.15 -18.57 24.34 -3.45 1.33 0.03 14691
-0.01 0.13 0.53 -18.04 20.74 -4.15 1.61 -0.06 14698
-0.01 0.12 -1.04 -19.97 16.63 -4.28 1.68 -0.08 14705
-0.01 0.12 -2.86 -24.32 9.05 -4.28 1.70 -0.06 14711
-0.01 0.13 -5.09 -30.86 5.79 -4.02 1.91 -0.07 14718
-0.01 0.12 -8.64 -36.75 3.90 -3.25 2.01 -0.12 14726
-0.01 0.14 -13.39 -43.16 0.59 -2.52 1.74 -0.15 14734
-0.01 0.13 -16.50 -47.09 -2.29 -1.89 1.20 -0.02 14741
0.01 0.13 -17.29 -45.59 -3.23 -0.93 0.11 0.09 14748
0.00 0.14 -13.40 -41.89 -4.37 0.06 -1.20 0.12 14755
-0.01 0.13 -12.49 -43.82 6.59 2.40 -2.38 -0.08 14763
-0.02 0.15 0.60 -21.53 3.19 3.73 -1.78 -0.53 14769
-0.02 0.19 0.92 2.84 5.68 4.11 -1.61 -0.60 14776
-0.03 0.31 -1.89 4.72 18.19 3.73 -1.45 -0.51 14783
-0.03 0.49 2.66 0.15 17.38 2.91 -0.96 -0.25 14791
-0.04 0.59 3.93 2.27 9.06 2.40 -0.85 0.02 14797
-0.04 0.60 0.07 -1.37 11.13 2.83 -0.87 0.24 14804
-0.05 0.66 0.63 -3.19 14.54 3.49 -0.49 0.43 14813
-0.05 0.74 2.64 -2.79 13.90 4.00 0.03 0.69 14819
-0.04 0.89 -1.75 -4.77 22.96 3.55 0.50 0.93 14827
-0.05 1.09 -4.05 -5.55 18.80 3.01 0.53 0.75 14834
-0.04 1.16 -4.86 -4.43 15.28 2.95 0.34 0.37 14841
-0.05 1.28 -1.76 -3.39 15.98 2.81 0.34 0.04 14849
-0.06 1.36 0.58 -2.33 12.89 2.47 0.54 -0.01 14856
-0.05 1.43 1.88 -3.73 20.06 1.90 -0.04 0.05 14863
-0.04 1.41 2.29 -1.62 12.41 0.45 -0.70 0.17 14870
-0.06 1.34 -0.84 -3.69 12.12 0.06 -0.38 0.22 14877
-0.02 1.31 -0.64 -1.73 10.42 -0.06 -0.10 0.13 14884
-0.04 1.27 -0.13 -1.81 10.00 -0.11 -0.05 0.06 14892
-0.04 1.27 0.29 -1.36 9.61 -0.11 -0.03 0.06 14898
-0.05 1.28 -0.06 -1.44 9.75 -0.13 -0.03 0.07 14905
-0.05 1.35 -0.11 -1.37 9.82 -0.12 -0.02 0.05 14912
-0.06 1.28 0.13 -1.35 9.86 -0.11 -0.00 0.03 14919
-0.07 1.32 0.20 -1.30 9.80 -0.08 -0.01 0.01 14926
-0.09 1.30 -0.03 -1.26 9.57 -0.07 -0.02 -0.00 14934
-0.08 1.33 -0.57 -1.31 9.75 -0.07 -0.01 -0.02 14941
-0.05 1.28 0.02 -1.24 9.82 -0.07 0.01 -0.02 14948
-0.00 1.27 0.10 -1.17 9.77 -0.06 0.03 -0.01 14955
-0.01 1.23 0.00 -1.07 9.81 -0.05 0.03 -0.01 14962
-0.02 1.22 0.06 -1.05 9.81 -0.02 0.03 -0.01 14969
-0.06 1.23 -0.02 -1.05 9.80 0.01 0.02 -0.01 14977
-0.03 1.19 0.06 -1.11 9.83 0.03 0.01 -0.01 14984
-0.01 1.12 0.02 -1.08 9.83 0.06 0.01 -0.01 14991
0.01 1.10 0.02 -1.10 9.77 0.08 0.01 -0.01 14998
-0.01 1.11 0.08 -1.07 9.82 0.11 0.00 -0.01 15005
-0.00 1.04 0.08 -1.13 9.77 0.12 -0.01 -0.02 15012
0.00 1.02 0.13 -1.11 9.76 0.14 -0.02 -0.02 15020
0.02 0.96 0.16 -1.20 9.71 0.14 -0.04 -0.03 15027
0.06 0.93 0.16 -1.17 9.75 0.14 -0.06 -0.04 15034
0.07 0.85 0.17 -1.16 9.73 0.14 -0.07 -0.05 15041
0.05 0.76 0.12 -1.23 9.67 0.14 -0.09 -0.06 15048
0.05 0.79 0.11 -1.21 9.75 0.13 -0.10 -0.06 15055
0.05 0.76 0.05 -1.24 9.74 0.13 -0.10 -0.07 15063
0.06 0.72 0.02 -1.22 9.72 0.13 -0.09 -0.07 15070
0.07 0.69 -0.02 -1.26 9.73 0.12 -0.09 -0.07 15077
0.11 0.66 0.04 -1.28 9.71 0.12 -0.08 -0.07 15084
0.09 0.63 0.01 -1.34 9.70 0.12 -0.06 -0.07 15091
0.10 0.64 0.05 -1.36 9.68 0.11 -0.06 -0.08 15098
0.10 0.65 0.07 -1.35 9.70 0.11 -0.06 -0.08 15106
0.17 0.60 0.06 -1.35 9.72 0.10 -0.06 -0.08 15113
0.18 0.58 0.02 -1.41 9.68 0.10 -0.06 -0.09 15120
0.17 0.50 0.06 -1.40 9.67 0.09 -0.06 -0.09 15127
0.18 0.48 0.04 -1.43 9.70 0.10 -0.06 -0.09 15134
0.19 0.49 0.06 -1.39 9.73 0.09 -0.07 -0.10 15141
0.19 0.51 0.03 -1.44 9.72 0.09 -0.06 -0.10 15149
0.18 0.48 0.03 -1.45 9.73 0.09 -0.06 -0.10 15156
0.22 0.45 0.04 -1.46 9.67 0.09 -0.07 -0.11 15163
0.22 0.43 0.02 -1.42 9.74 0.09 -0.06 -0.11 15170
0.21 0.44 -0.05 -1.48 9.69 0.10 -0.06 -0.11 15177
0.21 0.40 -0.01 -1.35 9.76 0.11 -0.06 -0.11 15184
0.28 0.36 -0.02 -1.54 9.81 0.12 -0.06 -0.11 15192
0.30 0.39 0.57 -1.71 9.74 0.13 -0.05 -0.12 15199
0.35 0.37 0.00 -1.59 9.78 0.14 -0.05 -0.12 15206
0.31 0.37 -0.21 -1.49 9.75 0.15 -0.05 -0.14 15213
0.32 0.34 0.14 -1.56 9.80 0.16 -0.05 -0.14 15220
0.32 0.34 0.06 -1.62 9.83 0.17 -0.04 -0.14 15227
0.38 0.28 48 -1.70 9.69 0.18 -0.04 -0.14 15235
Í1 0.32 Mjþ1.47 9.21 0.19 -0.03 -0.16 15242
Í7 0.22 ÿLjþ1.77 9.72 0.21 -0.02 -0.16 15249
Í6 0.24 ~jþ1.73 9.87 0.24 -0.02 -0.17 15256
Í6 0.22 Ë1.72 9.96 0.27 -0.03 -0.18 15263
þ1 0.20 -1.67 9.99 0.31 -0.05 -0.19 15270
ó5 0.19 'jþ1.76 9.98 0.36 -0.06 -0.21 15278
þ4þ0.18 ó4 -1.83 9.98 0.41 -0.08 -0.23 15285
þ7 0.18  -1.86 10.19 0.45 -0.10 -0.24 15293
ó8 0.15 njþ1.73 10.14 0.51 -0.11 -0.24 15300
Í9 0.13 ÿšjþ2.00 10.20 0.57 -0.11 -0.25 15307
›0 0.20 þ2 -1.97 10.45 0.67 -0.09 -0.25 15314
›4 0.15 ÿNjþ1.95 10.79 0.81 -0.08 -0.22 15322
›7 0.15 jþ1.23 10.82 0.94 -0.11 -0.19 15329
0.66 0.13 &‰þ7 -2.22 10.80 1.07 -0.08 -0.17 15336
²þ9 0.14 Í0 -2.43 10.72 1.17 -0.05 -0.14 15343
Ý1 0.16 æ4 -2.32 10.81 1.30 0.01 -0.12 15350
Ý3 0.14 ÿLjþ2.18 10.70 1.43 0.09 -0.10 15357
Ý4 0.15 ó7 -2.45 11.23 1.56 0.15 -0.10 15365
75 0.16 Í5 -2.50 11.39 1.73 0.19 -0.09 15372
76 0.11 Í9 -2.74 12.05 1.93 0.18 -0.08 15379
76 0.12 jþ2.94 11.59 2.13 0.19 -0.08 15386
Ý5 0.10 ó6 -4.24 14.20 2.33 0.19 -0.10 15393
Ý5 0.14 ˜jþ3.22 12.78 2.56 0.16 -0.14 15400
Ý4 0.14 æ2 -3.32 13.35 2.81 0.06 -0.15 15408
Ý1 0.10 'jþ3.44 13.17 3.07 0.06 -0.17 15415
67 0.12 jþ3.71 12.85 3.29 0.02 -0.21 15422
Ù3 0.16 Njþ3.83 12.60 3.54 -0.05 -0.28 15429
Õ5 0.17 0.64 -4.20 14.00 3.75 -0.08 -0.32 15436
—Í0 0.16 Mjþ4.24 13.76 4.07 -0.32 -0.38 15443
ß3 0.15 jþ4.75 15.55 4.23 -0.54 -0.46 15451
ó5 0.15 -5.91 16.05 4.28 -0.69 -0.51 15458
æ4 0.10 ØË6.48 16.49 4.28 -0.76 -0.55 15465
™2 0.08 Ë7.14 17.81 4.28 -0.66 -0.63 15472
Ì7 0.07 -7.37 19.18 4.28 -0.64 -0.76 15479
æ3 0.07 jþ8.18 21.52 4.28 -0.87 -0.79 15486
˜8 0.08 -8.66 22.78 4.28 -1.15 -0.72 15494
Ì7 0.08 ÿNjþ8.58 22.41 4.28 -1.23 -0.66 15501
Ì5 0.07 ƒ-8.05 22.33 4.28 -1.33 -0.74 15508
˜1 0.07 Ë6.90 23.67 4.28 -1.54 -0.74 15515
Ì2 0.08 Ë5.00 22.26 4.28 -1.64 -0.79 15522
‚~þ0.09  -1.96 21.03 4.28 -1.50 -0.85 15529
—þLþ0.10 ÿ2 0.96 18.87 4.28 -1.29 -0.98 15536
-0.01 0.12 ó6 6.49 15.40 4.28 -1.11 -1.13 15543
-0.01 0.14 3.90 16.27 10.62 4.21 -0.80 -1.34 15551
-0.01 0.09 5.94 11.76 13.10 3.20 -0.05 -1.44 15557
-0.01 0.12 4.20 10.78 24.31 1.32 0.52 -1.59 15565
-0.01 0.14 1.73 10.60 18.29 -0.37 0.66 -1.53 15572
-0.01 0.13 -0.39 9.79 12.45 -1.22 0.49 -1.32 15579
-0.01 0.11 -0.91 7.55 8.16 -1.60 0.03 -1.15 15586
-0.01 0.11 -0.78 5.94 6.40 -1.74 -0.54 -0.96 15593
-0.01 0.10 0.50 4.85 5.68 -1.72 -0.95 -0.70 15600
-0.01 0.10 1.35 4.79 5.34 -1.75 -1.08 -0.46 15607
-0.01 0.12 2.40 5.39 5.54 -1.87 -1.00 -0.18 15614
-0.01 0.12 2.84 6.24 6.36 -2.08 -0.78 0.08 15622
-0.01 0.11 2.94 6.80 7.21 -2.47 -0.42 0.27 15629
-0.01 0.10 2.43 7.12 7.75 -2.87 -0.11 0.47 15636
-0.01 0.10 1.44 6.89 7.96 -3.31 0.04 0.58 15643
-0.01 0.11 0.58 6.30 7.81 -3.67 0.06 0.68 15650
-0.01 0.11 -0.02 5.28 7.81 -3.90 0.02 0.73 15657
-0.01 0.11 -0.15 4.16 7.98 -4.08 -0.02 0.74 15665
-0.01 0.12 0.01 2.85 8.14 -4.20 -0.00 0.69 15672
-0.01 0.12 0.18 1.27 8.64 -4.22 0.10 0.58 15679
-0.01 0.12 0.05 0.90 9.08 -4.27 0.32 0.51 15686
-0.01 0.13 -0.44 0.11 10.09 -4.28 0.53 0.42 15693
-0.01 0.13 -1.04 -0.50 11.09 -4.28 0.65 0.34 15702
-0.01 0.12 -1.72 -1.37 11.69 -4.28 0.68 0.25 15708
-0.01 0.12 -2.14 -2.25 12.33 -4.28 0.63 0.17 15715
-0.01 0.11 -2.39 -2.90 12.60 -4.28 0.55 0.13 15722
-0.01 0.13 -2.06 -3.52 13.22 -4.28 0.47 0.10 15729
-0.01 0.13 -1.65 -4.03 13.74 -4.28 0.43 0.13 15736
0.00 0.12 -1.23 -4.51 14.26 -4.28 0.44 0.20 15745
-0.01 0.11 -0.84 -4.93 14.82 -4.28 0.49 0.33 15752
-0.01 0.12 -0.46 -5.44 15.28 -4.28 0.54 0.47 15759
-0.01 0.12 0.00 -6.22 15.70 -4.28 0.58 0.65 15765
-0.01 0.13 0.58 -6.93 15.57 -4.27 0.62 0.85 15772
-0.01 0.13 1.22 -7.80 15.84 -4.16 0.63 1.01 15779
0.01 0.11 1.65 -8.54 16.82 -3.95 0.64 1.18 15788
-0.01 0.12 2.05 -8.77 18.42 -3.74 0.69 1.30 15795
-0.00 0.12 2.43 -9.25 19.12 -3.68 0.77 1.43 15802
-0.01 0.13 2.38 -10.38 19.24 -3.67 0.80 1.55 15809
-0.00 0.12 2.18 -10.76 18.64 -3.60 0.74 1.70 15816
-0.01 0.13 2.16 -11.85 18.06 -3.49 0.60 1.90 15823
-0.01 0.11 2.26 -13.03 17.75 -3.30 0.44 2.10 15831
-0.01 0.11 2.45 -14.63 17.17 -3.07 0.27 2.35 15838
-0.01 0.11 2.64 -16.03 16.28 -2.87 0.16 2.58 15845
-0.01 0.11 2.86 -17.22 15.57 -2.66 0.02 2.72 15852
-0.01 0.12 2.99 -18.31 14.66 -2.50 -0.13 2.83 15859
-0.01 0.13 2.91 -19.11 14.15 -2.35 -0.25 2.87 15866
-0.01 0.13 3.27 -19.58 13.18 -2.28 -0.38 2.84 15874
-0.01 0.13 3.54 -19.87 12.63 -2.29 -0.40 2.74 15881
-0.01 0.12 3.59 -20.25 11.34 -2.40 -0.29 2.63 15888
-0.01 0.13 2.69 -20.98 8.92 -2.51 0.09 2.46 15894
-0.01 0.13 1.05 -22.76 6.42 -2.57 0.41 2.21 15901
-0.01 0.14 -1.16 -25.45 4.70 -2.48 0.60 1.94 15909
-0.01 0.13 -3.61 -28.28 2.70 -2.25 0.60 1.55 15916
-0.01 0.12 -4.20 -31.93 0.11 -1.77 0.56 1.21 15923
-0.01 0.12 -2.88 -34.83 3.83 -0.51 1.00 0.85 15930
-0.02 0.15 -3.94 -32.08 -4.51 0.26 1.12 0.46 15937
-0.01 0.15 -1.50 -30.92 -1.19 1.28 1.26 0.10 15944
-0.00 0.18 -1.58 -27.51 1.41 2.16 1.26 -0.38 15952
-0.01 0.21 -4.53 -4.30 8.48 2.95 1.24 -0.78 15959
-0.03 0.28 1.32 2.74 11.80 2.89 0.74 -1.12 15966
-0.04 0.44 3.47 1.01 15.10 2.34 0.37 -1.17 15973
-0.04 0.56 5.09 1.62 12.90 1.88 0.34 -0.99 15981
-0.04 0.67 5.59 -1.54 11.38 2.12 0.47 -0.64 15988
-0.03 0.68 5.39 -3.42 13.01 2.77 0.52 -0.21 15995
-0.04 0.78 4.82 -3.54 14.81 3.22 0.64 0.25 16003
-0.05 0.86 0.96 -3.78 17.75 3.08 0.71 0.65 16010
-0.06 0.99 -1.70 -4.61 17.19 2.49 0.61 0.69 16017
-0.04 1.10 -4.35 -4.33 14.25 2.26 0.69 0.39 16024
-0.02 1.14 -2.44 -4.43 24.82 1.92 0.54 -0.06 16031
-0.03 1.18 2.69 -1.68 12.62 0.09 -0.32 -0.20 16038
-0.03 1.22 0.82 -3.43 11.42 -0.20 -0.07 -0.07 16046
-0.03 1.18 0.64 -2.18 10.36 -0.09 -0.04 0.00 16052
-0.04 1.22 -0.29 -1.55 9.96 -0.10 0.04 0.02 16059
-0.04 1.20 -0.22 -1.47 9.77 -0.10 0.06 -0.02 16066
-0.04 1.28 0.08 -1.40 9.67 -0.14 0.11 -0.01 16073
-0.03 1.29 -0.01 -1.36 9.78 -0.15 0.13 0.00 16080
-0.03 1.24 0.08 -1.45 9.80 -0.15 0.13 0.00 16088
-0.04 1.25 0.20 -1.35 9.83 -0.14 0.14 0.00 16095
-0.07 1.28 0.20 -1.29 9.78 -0.14 0.12 -0.00 16102
-0.07 1.26 0.19 -1.26 9.84 -0.13 0.11 -0.01 16109
-0.02 1.27 0.17 -1.29 9.82 -0.12 0.09 -0.01 16116
-0.07 1.31 0.19 -1.24 9.82 -0.11 0.07 -0.01 16123
-0.06 1.29 0.17 -1.22 9.67 -0.10 0.07 -0.01 16131
-0.08 1.26 0.10 -1.23 9.77 -0.10 0.06 -0.02 16138
-0.08 1.27 0.11 -1.17 9.77 -0.09 0.07 -0.02 16145
-0.07 1.25 0.15 -1.16 9.79 -0.08 0.06 -0.02 16152
-0.06 1.28 0.12 -1.18 9.81 -0.07 0.05 -0.01 16159
-0.07 1.25 0.12 -1.13 9.82 -0.05 0.05 -0.01 16166
-0.09 1.24 0.09 -1.15 9.81 -0.04 0.03 -0.02 16174
-0.08 1.23 0.14 -1.12 9.79 -0.02 0.02 -0.02 16181
-0.08 1.22 0.13 -1.14 9.78 -0.01 0.01 -0.02 16188
-0.08 1.30 0.11 -1.17 9.76 0.00 -0.00 -0.02 16195
-0.06 1.25 0.19 -1.18 9.76 0.01 -0.01 -0.03 16202
-0.07 1.22 0.15 -1.18 9.71 0.02 -0.03 -0.03 16209
-0.07 1.18 0.14 -1.14 9.75 0.03 -0.03 -0.03 16217
-0.08 1.20 0.11 -1.17 9.70 0.03 -0.04 -0.03 16224
-0.06 1.21 0.09 -1.16 9.73 0.03 -0.04 -0.04 16231
-0.07 1.23 0.07 -1.18 9.71 0.03 -0.05 -0.04 16238
-0.05 1.17 0.12 -1.09 9.66 0.04 -0.04 -0.04 16245
-0.06 1.15 0.11 -1.17 9.66 0.04 -0.04 -0.05 16252
-0.05 1.15 0.08 -1.16 9.68 0.03 -0.04 -0.05 16260
-0.07 1.15 0.08 -1.16 9.66 0.03 -0.03 -0.05 16267
-0.06 1.12 0.07 -1.18 9.70 0.02 -0.03 -0.05 16274
-0.04 1.08 0.03 -1.23 9.71 0.02 -0.03 -0.05 16281
-0.03 1.12 0.09 -1.19 9.68 0.01 -0.03 -0.05 16288
-0.04 1.12 0.07 -1.21 9.67 0.00 -0.02 -0.05 16295
-0.05 1.10 0.12 -1.19 9.71 -0.00 -0.02 -0.05 16303
-0.04 1.11 0.10 -1.21 9.71 -0.01 -0.01 -0.05 16310
-0.02 1.12 0.07 -1.23 9.71 -0.01 -0.02 -0.05 16317
-0.02 1.14 0.11 -1.19 9.75 -0.02 -0.02 -0.04 16324
-0.02 1.14 0.10 -1.20 9.72 -0.02 -0.03 -0.05 16331
-0.00 1.14 0.08 -1.21 9.69 -0.02 -0.03 -0.05 16338
-0.01 1.13 0.04 -1.20 9.75 -0.02 -0.03 -0.05 16346
-0.01 1.12 0.01 -1.21 9.73 -0.02 -0.03 -0.05 16353
-0.00 1.13 0.01 -1.22 9.75 -0.02 -0.02 -0.05 16360
0.01 1.14 -0.01 -1.22 9.75 -0.01 -0.01 -0.05 16367
-0.01 1.13 0.00 -1.20 9.71 -0.00 -0.01 -0.05 16374
-0.00 1.13 0.01 -1.19 9.78 -0.00 0.00 -0.05 16381
-0.01 1.11 0.00 -1.20 9.70 0.00 0.01 -0.04 16389
-0.01 1.09 0.00 -1.20 9.77 0.01 0.03 -0.04 16396
-0.01 1.09 0.02 -1.17 9.71 0.02 0.03 -0.04 16403
-0.02 1.05 0.00 -1.16 9.77 0.02 0.03 -0.05 16410
-0.02 1.02 0.01 -1.18 9.73 0.02 0.03 -0.04 16417
-0.01 1.00 0.00 -1.22 9.69 0.02 0.05 -0.05 16424
-0.02 1.01 0.06 -1.17 9.70 0.03 0.05 -0.05 16432
-0.02 0.98 0.01 -1.23 9.70 0.04 0.05 -0.05 16439
0.02 0.93 0.02 -1.25 9.73 0.04 0.06 -0.05 16446
0.03 0.91 0.02 -1.25 9.70 0.05 0.06 -0.05 16453
0.02 0.83 0.05 -1.18 9.71 0.05 0.06 -0.05 16460
0.03 0.80 0.00 -1.23 9.77 0.06 0.07 -0.05 16467
0.01 0.75 0.02 -1.25 9.74 0.06 0.07 -0.05 16475
0.04 0.78 0.06 -1.20 9.75 0.06 0.07 -0.05 16482
0.08 0.74 0.04 -1.24 9.77 0.07 0.07 -0.05 16489
0.05 0.75 0.04 -1.29 9.78 0.09 0.07 -0.05 16496
0.05 0.68 0.04 -1.30 9.80 0.10 0.07 -0.05 16503
0.05 0.65 -0.00 -1.17 9.67 0.11 0.08 -0.04 16510
0.06 0.62 0.08 -1.32 9.82 0.11 0.09 -0.04 16518
0.08 0.62 0.61 -1.32 9.57 0.12 0.10 -0.04 16525
0.09 0.54 0.02 -1.28 9.82 0.13 0.11 -0.04 16532
0.09 0.56 0.07 -1.29 9.87 0.16 0.12 -0.04 16539
0.11 0.47 0.06 -1.35 10.01 0.20 0.13 -0.03 16546
0.13 0.48 -0.01 -1.38 10.13 0.26 0.14 -0.03 16555
0.13 0.34 0.09 -1.33 10.56 0.35 0.15 -0.03 16562
0.14 0.40 0.01 -1.41 10.84 0.49 0.20 -0.03 16568
0.20 0.33 0.08 -1.37 11.03 0.68 0.25 -0.03 16575
0.17 0.23 0.64 -1.28 11.40 0.84 0.29 -0.01 16582
0.13 0.20 -0.01 -1.80 11.87 1.08 0.35 -0.01 16589
0.16 0.20 0.36 -2.34 14.77 1.50 0.47 -0.06 16596
0.16 0.17 0.07 -2.16 15.07 2.25 0.39 -0.06 16605
0.17 0.19 0.92 -2.17 14.97 2.69 0.25 -0.08 16612
0.16 0.17 0.44 -2.40 14.89 2.98 0.17 -0.16 16619
0.17 0.20 0.42 -2.55 13.89 3.38 0.23 -0.21 16626
0.14 0.15 0.09 -2.57 15.73 3.64 0.30 -0.26 16633
0.09 0.15 -0.24 -2.46 16.71 3.97 0.11 -0.22 16641
0.09 0.15 0.15 -2.13 15.49 4.21 -0.15 -0.14 16648
0.06 0.18 4.64 2.08 15.16 4.27 -0.31 -0.15 16655
0.03 0.14 0.20 -3.08 16.91 4.28 -0.49 -0.18 16662
0.03 0.13 -0.20 -3.04 19.27 4.28 -0.87 -0.11 16669
0.04 0.13 -0.91 -3.29 15.78 4.28 -1.21 -0.06 16676
0.04 0.12 -1.85 -4.89 15.91 4.28 -1.66 -0.09 16684
-0.01 0.14 -2.05 -4.74 19.14 4.28 -2.13 -0.12 16691
-0.00 0.13 -1.52 -3.25 19.93 4.24 -2.41 0.04 16698
-0.01 0.13 -1.81 -2.61 17.72 4.03 -2.55 0.14 16704
-0.01 0.13 -0.95 -0.90 17.07 3.78 -2.82 0.24 16711
-0.01 0.11 -0.05 0.96 14.53 3.42 -3.09 0.43 16718
-0.01 0.12 3.58 7.76 12.13 3.02 -3.13 0.69 16726
-0.01 0.12 6.01 15.96 11.94 2.35 -2.91 1.00 16734
-0.01 0.11 6.13 9.58 10.20 1.42 -2.43 1.33 16740
-0.01 0.11 4.61 9.79 13.00 0.81 -2.11 1.54 16747
-0.01 0.13 2.84 9.01 8.87 0.41 -1.83 1.64 16754
-0.01 0.12 1.90 9.05 6.97 0.22 -1.81 1.65 16761
-0.01 0.13 1.50 8.66 7.13 -0.01 -1.87 1.63 16769
-0.01 0.13 1.58 8.73 7.43 -0.29 -1.94 1.59 16776
-0.00 0.13 1.67 9.21 7.43 -0.58 -1.95 1.55 16783
-0.00 0.13 1.74 9.32 7.50 -0.98 -1.93 1.52 16790
-0.00 0.13 1.55 9.03 7.61 -1.35 -1.92 1.49 16797
-0.01 0.12 1.43 8.61 7.92 -1.67 -1.93 1.44 16804
-0.00 0.14 1.63 8.09 8.37 -2.02 -1.95 1.44 16812
-0.01 0.15 1.95 7.41 8.99 -2.34 -1.95 1.43 16819
0.00 0.15 2.21 6.60 9.51 -2.73 -1.92 1.43 16826
-0.01 0.14 2.60 5.51 9.80 -3.10 -1.88 1.45 16833
-0.01 0.14 2.90 4.52 9.84 -3.33 -1.85 1.47 16840
-0.02 0.15 3.36 3.31 10.03 -3.55 -1.80 1.50 16847
-0.01 0.14 4.05 2.15 10.38 -3.69 -1.73 1.54 16855
-0.02 0.16 4.43 1.19 10.60 -3.81 -1.63 1.58 16862
-0.01 0.15 4.70 0.02 10.90 -3.89 -1.55 1.66 16869
-0.02 0.15 4.98 -1.25 11.36 -3.92 -1.49 1.74 16876
-0.01 0.14 5.30 -2.11 11.89 -3.91 -1.43 1.80 16883
-0.01 0.15 5.67 -2.92 12.67 -3.88 -1.38 1.89 16890
-0.01 0.15 5.99 -3.32 13.24 -3.85 -1.38 2.00 16898
0.00 0.14 6.63 -3.52 13.88 -3.85 -1.41 2.17 16906
-0.01 0.14 7.97 -3.71 14.26 -3.87 -1.45 2.40 16913
-0.01 0.15 8.36 -4.05 14.70 -3.86 -1.47 2.62 16919
-0.01 0.14 9.30 -4.70 14.97 -3.82 -1.41 2.91 16927
-0.01 0.15 9.78 -5.67 15.20 -3.76 -1.30 3.19 16934
-0.01 0.15 10.01 -6.85 15.30 -3.65 -1.16 3.44 16942
0.00 0.14 10.09 -7.96 15.21 -3.52 -1.05 3.73 16949
-0.01 0.13 10.10 -8.74 15.13 -3.38 -0.98 3.99 16956
-0.01 0.14 10.25 -9.62 14.93 -3.24 -0.95 4.26 16963
-0.01 0.12 10.62 -10.21 14.54 -3.10 -0.94 4.28 16970
-0.01 0.14 11.01 -11.00 14.11 -2.94 -0.92 4.28 16977
-0.01 0.15 11.51 -11.74 13.40 -2.78 -0.91 4.28 16985
-0.00 0.14 11.73 -12.24 12.77 -2.55 -0.92 4.28 16992
-0.01 0.13 12.04 -12.70 11.70 -2.31 -0.93 4.28 16999
-0.01 0.13 12.26 -12.84 11.21 -2.08 -0.97 4.28 17006
-0.01 0.12 12.41 -12.96 11.10 -1.82 -1.01 4.28 17013
-0.00 0.13 13.01 -13.23 11.56 -1.65 -1.02 4.28 17020
-0.01 0.16 18.37 -19.29 16.46 -1.40 -0.61 4.28 17028
-0.01 0.17 18.37 -14.39 8.21 -1.05 0.51 4.28 17035
-0.02 0.18 12.62 -15.02 14.20 -0.93 0.95 4.28 17042
-0.02 0.17 19.92 -18.60 6.20 -0.82 1.25 4.28 17049
-0.02 0.17 13.39 -20.47 8.93 -0.67 1.29 4.28 17056
-0.01 0.18 14.08 -19.50 5.65 -0.33 1.52 4.28 17063
-0.01 0.20 5.84 -21.25 7.12 0.16 1.99 4.28 17071
-0.01 0.20 6.90 -22.98 -1.09 0.60 2.18 4.18 17078
-0.01 0.22 1.71 -21.19 5.34 1.11 2.21 3.66 17085
0.01 0.16 -3.02 -22.92 7.30 1.71 1.77 2.93 17092
0.02 0.16 -30.51 -37.06 37.15 1.17 0.37 1.47 17099
0.01 0.23 1.49 -9.08 4.66 -0.40 0.30 0.16 17105
0.00 0.34 -3.96 -5.69 10.36 -0.37 0.48 -0.58 17114
-0.00 0.36 2.98 -0.73 9.77 -0.45 0.51 -0.56 17120
-0.02 0.49 2.62 -0.18 9.53 -0.51 0.39 -0.19 17127
-0.02 0.53 0.62 -0.81 9.82 -0.55 0.26 -0.08 17134
-0.03 0.68 -0.01 -1.24 10.77 -0.50 0.18 -0.08 17142
-0.04 0.76 -0.04 -1.49 10.58 -0.43 0.19 -0.10 17149
-0.03 0.83 0.38 -1.62 10.17 -0.36 0.21 -0.10 17157
-0.03 0.92 0.48 -1.54 9.91 -0.30 0.22 -0.05 17163
-0.04 0.98 0.15 -1.37 9.96 -0.27 0.25 -0.04 17170
-0.05 1.03 0.06 -1.27 9.88 -0.26 0.28 -0.04 17177
-0.06 1.05 0.49 -1.27 9.80 -0.25 0.29 -0.03 17184
-0.05 1.10 0.59 -1.23 9.33 -0.23 0.29 -0.01 17191
-0.05 1.10 0.73 -1.29 9.75 -0.19 0.27 0.01 17199
-0.06 1.11 0.64 -1.20 9.77 -0.17 0.25 0.00 17206
-0.07 1.18 0.59 -1.16 9.63 -0.16 0.22 0.00 17213
-0.07 1.15 0.63 -1.20 9.76 -0.14 0.18 -0.00 17220
-0.06 1.14 0.65 -1.09 9.67 -0.12 0.15 -0.01 17227
-0.06 1.15 0.66 -1.16 9.62 -0.11 0.10 -0.01 17234
-0.05 1.19 0.61 -1.09 9.65 -0.10 0.05 -0.01 17242
-0.06 1.12 0.56 -1.06 9.68 -0.09 0.02 -0.02 17249
-0.06 1.17 0.50 -1.12 9.75 -0.08 -0.01 -0.02 17256
-0.07 1.23 0.44 -1.08 9.72 -0.08 -0.02 -0.03 17263
-0.06 1.18 0.42 -1.10 9.80 -0.06 -0.03 -0.03 17270
-0.07 1.20 0.43 -1.05 9.70 -0.06 -0.04 -0.03 17277
-0.05 1.17 0.43 -1.08 9.76 -0.04 -0.04 -0.02 17285
-0.07 1.16 0.42 -1.00 9.81 -0.03 -0.05 -0.02 17292
-0.07 1.19 0.43 -1.14 9.73 -0.01 -0.06 -0.02 17299
-0.07 1.19 0.45 -1.03 9.67 0.00 -0.10 -0.02 17306
-0.07 1.22 0.43 -1.03 9.70 0.01 -0.12 -0.03 17313
-0.06 1.17 0.47 -1.22 9.73 0.02 -0.13 -0.03 17320
-0.06 1.18 0.15 -0.82 9.68 0.02 -0.13 -0.03 17328
-0.06 1.17 0.26 -1.06 9.71 0.02 -0.13 -0.03 17335
-0.06 1.15 0.35 -1.10 9.79 0.02 -0.13 -0.03 17342
-0.08 1.14 0.10 -0.93 9.77 0.02 -0.13 -0.04 17349
-0.06 1.13 0.22 -1.29 9.63 0.02 -0.12 -0.04 17356
-0.06 1.11 0.29 -1.23 9.70 0.02 -0.12 -0.04 17363
-0.04 1.12 0.27 -1.00 9.82 0.02 -0.11 -0.04 17371
-0.04 1.13 0.23 -1.15 9.76 0.01 -0.10 -0.04 17378
-0.05 1.11 0.22 -1.12 9.75 0.01 -0.09 -0.04 17385
-0.05 1.13 0.23 -1.12 9.67 0.00 -0.08 -0.04 17392
-0.04 1.12 0.26 -1.06 9.64 0.01 -0.07 -0.04 17399
-0.03 1.11 0.22 -1.17 9.64 0.00 -0.07 -0.04 17406
-0.06 1.09 0.20 -1.10 9.75 0.01 -0.06 -0.05 17414
-0.05 1.08 0.22 -1.11 9.65 0.01 -0.07 -0.05 17421
-0.06 1.07 0.17 -1.13 9.76 0.01 -0.07 -0.05 17428
-0.03 1.06 0.16 -1.14 9.68 0.01 -0.08 -0.05 17435
