Voltage_01 Voltage_02 Acc_x Acc_y Acc_z Gyro_x Gyro_y Gyro_z Time
5000
-0.01 0.09 -3.35 -0.67 9.66 -0.50 -0.30 0.28 24
-0.02 0.18 -2.60 -0.94 9.94 -0.37 -0.16 -0.22 31
-0.02 0.17 1.92 -0.65 11.49 -0.10 0.05 -0.13 38
-0.02 0.20 1.28 -0.80 10.73 -0.16 0.01 0.03 46
0.03 0.21 -0.59 -1.06 10.24 -0.07 -0.10 0.00 53
0.03 0.21 -0.35 -1.13 9.62 -0.05 -0.02 -0.03 60
0.06 0.19 0.03 -1.14 9.64 -0.05 0.07 -0.02 67
0.06 0.20 0.03 -0.93 9.52 -0.05 0.11 -0.02 74
0.06 0.22 -0.07 -0.95 9.56 -0.04 0.15 -0.02 81
0.06 0.21 0.03 -1.25 9.74 -0.04 0.18 -0.01 89
0.07 0.20 0.21 -1.37 9.73 -0.07 0.21 -0.01 96
0.06 0.23 0.35 -1.28 9.96 -0.10 0.20 -0.01 103
0.08 0.22 0.41 -1.19 9.92 -0.10 0.18 -0.02 110
0.07 0.24 0.45 -1.15 9.87 -0.11 0.16 -0.02 117
0.09 0.22 0.38 -1.09 9.79 -0.11 0.14 -0.02 124
0.09 0.27 0.30 -1.07 9.72 -0.10 0.13 -0.03 132
0.08 0.25 0.23 -1.00 9.69 -0.11 0.13 -0.03 139
0.07 0.28 0.16 -0.97 9.78 -0.11 0.14 -0.03 146
0.08 0.28 0.18 -0.97 9.81 -0.11 0.14 -0.04 153
0.08 0.32 0.20 -0.91 9.80 -0.10 0.15 -0.03 160
0.08 0.34 0.22 -0.88 9.83 -0.08 0.15 -0.03 167
0.09 0.34 0.23 -0.89 9.81 -0.06 0.15 -0.03 175
0.09 0.34 0.29 -0.88 9.82 -0.04 0.14 -0.02 182
0.09 0.33 0.28 -0.89 9.82 -0.03 0.14 -0.02 189
0.09 0.31 0.30 -0.89 9.82 -0.01 0.12 -0.02 196
0.08 0.32 0.33 -0.92 9.82 0.00 0.11 -0.01 203
0.09 0.30 0.36 -0.92 9.77 0.02 0.10 -0.02 210
0.10 0.27 0.35 -0.93 9.77 0.02 0.08 -0.02 218
0.10 0.27 0.38 -0.91 9.74 0.02 0.06 -0.01 225
0.10 0.25 0.37 -0.93 9.77 0.02 0.05 -0.02 232
0.09 0.25 0.35 -0.94 9.76 0.02 0.03 -0.02 239
0.10 0.25 0.31 -0.93 9.77 0.02 0.02 -0.02 246
0.12 0.25 0.32 -0.95 9.76 0.02 0.02 -0.02 253
0.12 0.25 0.30 -0.91 9.69 0.02 0.01 -0.02 261
0.11 0.25 0.29 -0.90 9.73 0.01 0.02 -0.02 268
0.10 0.23 0.29 -0.88 9.64 0.02 0.02 -0.02 275
0.10 0.23 0.26 -0.91 9.63 0.02 0.03 -0.03 282
0.11 0.22 0.24 -0.91 9.65 0.02 0.06 -0.02 289
0.13 0.22 0.31 -0.93 9.70 0.03 0.07 -0.02 296
0.13 0.20 0.31 -0.95 9.65 0.01 0.08 -0.02 304
0.12 0.21 0.35 -0.93 9.66 0.00 0.08 -0.02 311
0.12 0.20 0.36 -0.97 9.70 0.00 0.07 -0.02 318
0.11 0.21 0.32 -0.99 9.72 -0.00 0.07 -0.02 325
0.12 0.20 0.30 -0.98 9.70 -0.00 0.06 -0.02 332
0.13 0.20 0.32 -0.95 9.67 -0.00 0.07 -0.02 339
0.13 0.19 0.34 -0.96 9.72 0.00 0.06 -0.02 347
0.12 0.18 0.33 -0.95 10.38 0.01 0.06 -0.02 354
0.12 0.17 0.35 -0.95 9.75 0.02 0.05 -0.02 361
0.11 0.16 0.35 -0.94 9.76 0.03 0.04 -0.02 368
0.11 0.16 0.35 -0.98 9.75 0.04 0.04 -0.03 375
0.14 0.13 0.37 -0.99 9.78 0.04 0.04 -0.03 382
0.14 0.11 0.35 -0.94 9.76 0.05 0.03 -0.03 390
0.15 0.10 0.31 -0.93 9.74 0.06 0.02 -0.03 397
0.13 0.13 0.38 -0.93 9.72 0.07 0.01 -0.03 404
0.14 0.10 0.36 -1.00 9.79 0.08 0.00 -0.04 411
0.15 0.09 0.34 -1.00 9.74 0.08 -0.01 -0.04 418
0.16 0.08 0.36 -1.05 9.74 0.09 -0.01 -0.04 425
0.16 0.08 0.35 -1.03 9.80 0.09 -0.02 -0.05 433
0.16 0.04 0.36 -1.05 9.75 0.10 -0.03 -0.04 440
0.15 0.04 0.29 -1.06 9.76 0.11 -0.03 -0.05 447
0.16 0.04 0.32 -1.11 9.85 0.13 -0.03 -0.05 454
0.17 0.04 0.35 -1.05 9.74 0.14 -0.03 -0.06 461
0.18 0.03 0.35 -1.09 9.80 0.16 -0.04 -0.06 468
0.18 0.01 0.29 -1.08 9.87 0.18 -0.05 -0.07 476
0.18 0.01 0.31 -1.13 9.81 0.20 -0.05 -0.07 483
0.18 -0.01 0.30 -1.16 9.80 0.21 -0.05 -0.07 490
0.19 0.00 0.24 -1.21 9.83 0.22 -0.05 -0.08 497
0.20 -0.01 0.40 -1.20 9.94 0.23 -0.06 -0.08 504
0.19 -0.02 0.33 -1.27 9.92 0.25 -0.06 -0.09 512
0.19 -0.01 0.26 -1.28 9.91 0.27 -0.05 -0.10 519
0.22 -0.02 0.16 -1.32 10.11 0.28 -0.04 -0.10 526
0.21 -0.02 0.25 -1.34 10.27 0.31 -0.03 -0.10 533
0.25 -0.01 0.21 -1.46 10.49 0.37 -0.04 -0.09 540
0.28 -0.02 0.35 -1.29 10.95 0.44 -0.08 -0.09 547
0.30 -0.02 0.90 -1.61 11.78 0.64 -0.16 -0.11 556
0.31 -0.02 1.51 -1.54 12.53 0.94 -0.14 -0.19 563
0.30 -0.03 0.99 -1.50 12.64 1.15 -0.09 -0.27 569
0.31 -0.03 0.53 -1.78 12.76 1.33 -0.16 -0.28 577
0.34 -0.01 0.47 -1.75 13.57 1.53 -0.22 -0.29 584
0.37 -0.02 0.71 -1.82 14.90 1.74 -0.28 -0.28 591
0.33 -0.02 1.04 -1.90 15.93 2.08 -0.40 -0.29 599
0.35 -0.03 2.00 -1.98 16.33 2.44 -0.68 -0.32 606
0.38 -0.02 3.32 -2.15 15.37 2.78 -0.97 -0.42 613
0.35 -0.02 4.24 -2.45 14.33 3.00 -1.24 -0.64 620
0.33 -0.01 3.36 -3.03 15.80 3.17 -1.35 -0.85 627
0.33 -0.02 3.62 -3.57 15.99 3.38 -1.71 -0.98 634
0.27 -0.03 6.86 -4.14 14.58 3.50 -2.27 -1.21 641
0.21 -0.02 8.66 -5.36 15.93 3.52 -2.43 -1.55 648
0.15 -0.02 9.46 -5.87 15.20 3.50 -2.53 -1.96 655
0.09 -0.01 10.99 -5.70 14.44 3.43 -2.49 -2.40 663
0.08 -0.00 13.47 -5.60 14.09 3.27 -2.14 -2.82 670
0.05 -0.00 13.10 -5.60 13.32 3.05 -1.66 -3.33 677
0.04 -0.00 11.33 -5.13 12.89 2.78 -1.28 -3.80 685
0.00 0.00 9.19 -3.98 11.85 2.43 -1.24 -4.25 691
0.00 0.00 7.37 -1.71 11.06 2.15 -1.47 -4.28 698
0.00 0.00 7.84 1.10 8.94 1.78 -1.81 -4.28 705
0.00 0.00 11.06 2.45 7.49 1.54 -2.04 -4.27 711
0.00 0.00 17.19 0.93 5.58 1.39 -1.81 -3.23 718
0.00 0.00 16.21 0.57 12.31 1.02 -0.53 -1.71 726
0.00 0.00 14.69 1.93 6.88 0.65 -0.04 -0.68 733
0.00 0.00 11.04 2.79 8.04 0.37 0.15 0.12 740
0.00 0.00 8.79 3.27 8.33 -0.03 0.07 0.80 747
0.00 -0.00 7.96 3.46 7.83 -0.41 -0.04 1.16 753
0.00 0.00 7.79 3.54 7.21 -0.69 -0.05 1.30 760
0.01 -0.00 7.35 3.51 6.66 -0.81 0.13 1.25 766
0.00 0.00 6.94 3.48 6.68 -0.93 0.47 1.08 774
0.00 0.00 6.32 3.56 6.67 -1.06 0.87 0.84 780
0.00 0.00 5.66 3.64 6.89 -1.19 1.23 0.56 786
0.00 0.00 5.06 3.57 7.30 -1.36 1.46 0.32 792
0.00 0.00 4.29 3.36 7.64 -1.55 1.68 0.06 798
0.00 0.00 3.46 3.17 8.06 -1.71 1.81 -0.13 804
0.00 0.00 2.94 2.88 8.44 -1.88 1.91 -0.26 811
0.00 0.00 2.59 2.37 8.78 -2.02 1.95 -0.36 817
0.00 0.00 2.35 2.01 9.09 -2.11 1.95 -0.40 823
0.00 0.00 2.19 1.66 9.30 -2.19 1.94 -0.37 829
0.00 0.00 2.32 1.26 9.52 -2.24 1.92 -0.29 835
0.00 0.00 2.57 0.96 9.71 -2.25 1.93 -0.17 841
0.00 0.00 2.84 0.55 9.64 -2.24 2.00 -0.00 848
0.00 0.00 2.95 -0.06 9.67 -2.19 2.16 0.18 855
0.00 0.00 2.41 -0.42 9.78 -2.13 2.38 0.37 861
0.00 0.00 1.04 -0.60 10.22 -2.02 2.60 0.53 867
0.00 0.00 -0.70 -0.73 11.28 -1.87 2.72 0.72 874
0.00 0.00 -1.81 -0.53 12.13 -1.78 2.62 0.90 881
0.00 0.00 -2.06 -0.32 12.88 -1.76 2.43 1.06 888
0.00 0.00 -1.88 -0.37 13.53 -1.79 2.24 1.26 896
0.00 0.00 -1.74 -0.48 13.80 -1.87 2.11 1.41 903
0.00 0.00 -1.53 -0.63 13.65 -1.95 2.02 1.56 910
0.00 0.00 -1.60 -1.04 13.44 -2.00 1.98 1.67 917
0.00 0.00 -1.76 -1.55 13.36 -2.02 1.96 1.71 924
0.00 0.00 -1.84 -2.00 13.43 -2.02 1.92 1.71 931
0.00 0.00 -1.83 -2.34 13.72 -1.96 1.89 1.64 939
0.00 0.00 -2.14 -2.63 13.88 -1.89 1.88 1.63 946
0.00 0.00 -2.49 -2.82 13.94 -1.81 1.87 1.57 953
0.00 0.00 -3.23 -3.03 14.03 -1.71 1.85 1.51 960
0.00 0.00 -4.08 -3.55 14.00 -1.59 1.80 1.41 967
0.00 0.00 -4.82 -4.77 14.11 -1.44 1.72 1.28 974
0.00 0.00 -5.82 -4.90 14.03 -1.25 1.62 1.19 982
0.00 0.00 -7.05 -5.66 13.83 -1.05 1.48 1.05 989
0.00 0.00 -8.18 -6.43 13.47 -0.81 1.40 0.90 996
0.00 -0.00 -9.31 -7.33 13.04 -0.62 1.25 0.73 1003
0.00 0.00 -9.95 -8.14 12.01 -0.56 1.16 0.57 1010
0.00 0.00 -8.60 -8.97 10.55 -0.70 1.08 0.45 1017
0.00 0.00 -5.42 -10.15 10.78 -1.07 0.61 0.32 1025
0.00 0.00 -4.05 -12.09 10.75 -1.64 0.27 0.34 1032
0.00 0.00 -3.37 -13.74 8.83 -2.09 0.11 0.47 1039
0.00 -0.00 -3.79 -16.05 6.15 -2.18 0.03 0.63 1046
0.00 0.00 -4.42 -18.04 4.62 -1.89 -0.05 0.77 1053
0.00 0.00 -4.80 -19.02 3.68 -1.42 -0.07 0.94 1060
0.00 0.00 -5.12 -18.54 4.23 -0.91 0.02 1.18 1068
0.00 0.00 -12.82 -22.17 3.07 -0.53 -0.04 1.48 1075
0.00 0.00 -29.91 -20.91 5.43 0.37 -3.53 2.40 1082
-0.00 0.01 -17.38 -20.29 -0.11 0.56 -4.28 3.05 1090
-0.00 0.01 -9.92 -20.63 7.66 1.05 -4.28 3.48 1096
-0.01 0.09 -22.46 12.77 25.79 1.75 -3.93 4.01 1104
-0.04 0.38 -15.00 5.36 17.48 2.06 -0.72 3.90 1112
-0.07 0.70 -18.89 2.07 16.44 2.37 -1.03 2.47 1119
-0.05 0.82 -15.64 -6.09 14.34 2.92 -1.11 0.92 1126
-0.05 0.82 -9.79 -7.41 15.97 2.89 -0.08 0.15 1133
-0.06 0.85 0.06 -5.57 24.06 2.35 0.49 -0.22 1140
-0.05 0.84 1.78 1.04 10.49 -0.21 0.09 -0.07 1147
-0.05 0.87 -0.24 -3.96 13.33 -0.11 -0.02 -0.01 1155
0.02 0.81 -0.05 -0.97 11.13 0.12 0.05 0.00 1161
0.01 0.72 0.19 -0.67 9.65 0.21 0.04 0.02 1168
0.03 0.65 -0.11 -0.56 9.00 0.23 0.10 0.02 1175
0.05 0.57 -0.11 -1.08 9.59 0.17 0.13 0.03 1182
0.07 0.51 0.25 -1.32 9.52 0.10 0.19 0.03 1189
0.09 0.45 0.87 -1.36 9.91 0.06 0.17 0.03 1197
0.10 0.39 0.86 -1.18 9.97 0.05 0.09 -0.00 1204
0.12 0.34 0.20 -1.25 9.76 0.04 0.05 -0.01 1211
0.12 0.36 0.20 -1.13 9.79 0.03 0.04 -0.01 1218
0.11 0.35 0.33 -0.98 9.81 0.02 0.03 -0.02 1225
0.13 0.37 0.17 -0.92 9.83 0.02 0.02 -0.02 1232
0.13 0.37 0.03 -0.97 9.77 0.02 0.03 -0.02 1240
0.13 0.38 0.11 -0.87 9.88 0.03 0.05 -0.02 1247
0.16 0.33 0.09 -0.91 9.93 0.04 0.05 -0.02 1254
0.16 0.32 0.12 -0.94 9.91 0.06 0.05 -0.01 1261
0.16 0.27 0.18 -0.92 9.86 0.08 0.05 -0.01 1268
0.16 0.28 0.24 -0.96 9.92 0.08 0.04 -0.01 1275
0.15 0.24 0.20 -0.98 9.90 0.09 0.03 -0.01 1283
0.17 0.22 0.19 -1.02 9.81 0.10 0.02 -0.01 1290
0.18 0.20 0.15 -0.98 9.75 0.10 0.02 -0.01 1297
0.18 0.15 0.17 -0.96 9.73 0.10 0.02 -0.01 1304
0.18 0.10 0.24 -1.05 9.67 0.09 0.02 -0.02 1311
0.15 0.13 0.29 -1.05 9.60 0.06 0.02 -0.02 1318
0.16 0.16 0.26 -1.05 9.68 0.03 0.01 -0.02 1326
0.15 0.15 0.31 -1.08 9.62 0.02 0.01 -0.03 1333
0.16 0.16 0.24 -1.08 9.68 -0.01 0.00 -0.03 1340
0.14 0.17 0.20 -1.06 9.73 -0.03 -0.00 -0.03 1347
0.14 0.15 0.26 -1.03 9.71 -0.04 -0.01 -0.03 1354
0.13 0.18 0.16 -1.06 9.72 -0.06 -0.01 -0.03 1361
0.13 0.18 0.20 -1.04 9.65 -0.08 -0.01 -0.03 1369
0.13 0.20 0.17 -1.08 9.63 -0.10 -0.01 -0.03 1376
0.14 0.22 0.16 -0.99 9.61 -0.11 -0.01 -0.03 1383
0.12 0.23 0.21 -0.93 9.76 -0.09 -0.00 -0.03 1390
0.10 0.27 0.20 -0.96 9.68 -0.07 -0.01 -0.03 1397
0.08 0.28 0.13 -1.03 9.63 -0.07 -0.01 -0.03 1404
0.08 0.31 0.10 -0.97 9.60 -0.07 -0.00 -0.03 1412
0.09 0.32 0.14 -0.99 9.75 -0.07 0.00 -0.03 1419
0.10 0.29 0.15 -0.98 9.66 -0.07 0.01 -0.03 1426
0.08 0.30 0.15 -0.94 9.66 -0.08 0.01 -0.02 1433
0.09 0.32 0.18 -0.93 9.78 -0.07 0.01 -0.03 1440
0.09 0.34 0.14 -0.95 9.78 -0.06 -0.00 -0.03 1447
0.08 0.39 0.08 -0.96 9.79 -0.04 -0.00 -0.02 1455
0.11 0.33 0.13 -0.89 9.77 -0.02 -0.00 -0.03 1462
0.11 0.33 0.15 -0.86 9.81 0.03 -0.02 -0.03 1469
0.10 0.30 0.22 -0.85 9.81 0.09 -0.04 -0.04 1476
0.10 0.29 0.29 -0.88 9.91 0.14 -0.08 -0.04 1483
0.12 0.26 0.19 -0.88 9.83 0.18 -0.11 -0.06 1490
0.15 0.27 0.27 -0.94 9.87 0.23 -0.14 -0.07 1498
0.17 0.20 0.19 -1.06 9.99 0.25 -0.16 -0.08 1505
0.18 0.15 0.22 -1.10 9.97 0.27 -0.18 -0.08 1512
0.20 0.11 0.08 -1.14 9.91 0.29 -0.21 -0.10 1519
0.21 0.05 -0.51 -1.10 10.02 0.31 -0.27 -0.10 1527
0.25 0.03 0.07 -1.11 10.34 0.34 -0.27 -0.11 1534
0.33 0.00 0.19 -1.22 10.26 0.39 -0.33 -0.12 1542
0.33 -0.02 0.13 -1.32 10.57 0.43 -0.38 -0.15 1549
0.34 -0.02 0.43 -1.55 10.56 0.51 -0.48 -0.21 1556
0.40 -0.04 0.89 -1.76 11.45 0.62 -0.66 -0.30 1562
0.43 -0.02 0.96 -1.50 12.04 0.80 -0.88 -0.40 1569
0.47 -0.02 0.77 -1.68 12.64 1.01 -1.06 -0.46 1577
0.58 -0.03 -0.26 -1.65 15.07 1.31 -1.07 -0.46 1585
0.57 -0.03 0.78 -1.78 14.41 1.72 -0.64 -0.47 1592
0.59 -0.04 -0.77 -1.70 15.32 1.97 -0.42 -0.48 1599
0.55 -0.04 -0.02 -1.72 16.89 2.33 -0.45 -0.43 1606
0.55 -0.03 0.10 -1.95 18.38 2.77 -0.49 -0.44 1613
0.58 -0.02 0.21 -1.82 18.29 3.20 -0.70 -0.42 1620
0.57 -0.02 0.49 -2.06 18.08 3.64 -0.98 -0.43 1628
0.48 -0.01 0.07 -1.94 17.92 3.97 -1.10 -0.48 1635
0.41 -0.02 0.47 -1.75 18.67 4.23 -1.23 -0.50 1642
0.30 -0.02 3.66 -2.80 18.84 4.28 -1.75 -0.62 1649
0.25 -0.02 5.62 -4.10 20.25 4.28 -2.49 -0.88 1656
0.18 -0.00 7.39 -4.48 19.12 4.28 -2.99 -1.16 1664
0.15 -0.01 9.37 -5.15 17.32 4.28 -3.17 -1.57 1671
0.08 -0.00 10.09 -5.61 17.43 4.16 -3.12 -2.03 1678
0.06 -0.01 11.35 -5.38 16.85 3.75 -3.04 -2.39 1685
0.01 -0.00 11.73 -4.77 15.68 3.30 -2.83 -2.83 1692
0.00 -0.00 11.46 -1.57 13.99 2.86 -2.84 -3.17 1699
0.00 -0.00 12.77 1.98 9.95 2.48 -3.00 -3.47 1705
0.00 0.00 15.21 8.38 8.03 2.14 -3.01 -3.50 1713
0.00 0.00 24.71 14.83 5.94 1.51 -2.40 -2.97 1720
0.00 0.00 21.35 5.51 18.05 0.80 -0.13 -1.03 1727
0.00 0.00 19.41 9.71 9.57 -0.30 0.83 -0.27 1734
0.00 0.00 11.73 7.32 7.68 -0.49 0.61 0.62 1741
0.00 0.00 10.95 5.59 8.95 -0.75 0.29 1.08 1748
0.00 0.00 11.02 5.68 8.43 -1.05 0.15 1.23 1756
0.00 0.00 10.72 5.87 8.13 -1.31 0.46 1.14 1763
0.00 0.00 9.31 5.24 8.41 -1.63 0.85 0.92 1770
0.00 0.00 6.86 4.52 8.58 -1.91 1.23 0.57 1777
0.00 0.00 5.10 4.13 8.77 -2.12 1.39 0.18 1784
0.00 0.00 3.86 3.51 8.67 -2.33 1.48 -0.17 1792
0.01 -0.00 3.41 2.74 9.06 -2.47 1.54 -0.57 1799
0.00 -0.00 3.39 1.95 9.24 -2.60 1.66 -0.89 1806
0.00 0.00 3.32 1.25 9.50 -2.66 1.87 -1.20 1813
0.00 0.00 3.07 0.90 9.68 -2.66 2.09 -1.42 1820
-0.00 0.01 2.68 0.65 9.83 -2.59 2.33 -1.52 1827
0.00 -0.00 2.09 0.51 10.08 -2.50 2.51 -1.50 1835
0.00 0.00 1.88 0.31 10.67 -2.37 2.61 -1.40 1842
0.00 0.00 2.08 0.38 10.99 -2.25 2.68 -1.21 1849
0.00 0.00 2.16 0.57 11.56 -2.17 2.79 -0.96 1856
0.00 0.00 1.88 0.62 12.04 -2.08 2.90 -0.71 1863
-0.00 0.00 1.29 0.49 12.85 -2.03 3.06 -0.42 1870
0.00 0.00 0.41 0.56 13.55 -1.98 3.15 -0.16 1878
0.00 0.00 -0.88 0.83 13.94 -1.96 3.24 0.04 1885
0.00 0.00 -2.86 0.81 14.20 -1.94 3.30 0.24 1892
0.00 0.00 -3.98 0.32 14.32 -1.92 3.26 0.35 1899
0.00 0.00 -4.43 -0.29 15.22 -1.90 3.08 0.40 1906
-0.00 0.00 -4.50 -0.43 15.69 -1.85 2.94 0.40 1913
0.00 0.00 -4.56 -0.17 15.73 -1.82 2.89 0.40 1921
0.00 0.00 -5.26 0.00 16.18 -1.81 2.90 0.39 1928
0.00 0.00 -6.54 0.05 16.34 -1.83 2.89 0.39 1935
0.00 0.00 -8.71 -0.09 15.92 -1.83 2.83 0.38 1942
0.00 0.00 -10.25 -0.67 15.62 -1.81 2.70 0.36 1949
0.00 -0.00 -11.31 -1.31 15.29 -1.76 2.50 0.34 1957
0.00 0.00 -11.90 -1.95 15.19 -1.71 2.25 0.30 1964
0.00 0.00 -12.34 -2.59 14.89 -1.65 2.03 0.27 1971
0.00 0.00 -12.60 -3.39 14.14 -1.58 1.82 0.22 1978
0.00 0.00 -14.09 -4.75 13.21 -1.53 1.64 0.19 1985
0.00 0.00 -14.99 -5.78 12.62 -1.45 1.43 0.17 1992
0.00 0.00 -15.89 -6.85 12.15 -1.38 1.06 0.15 1999
0.00 0.00 -15.97 -7.72 11.35 -1.35 0.75 0.16 2007
0.00 0.00 -13.60 -9.94 8.63 -1.51 0.38 0.22 2014
0.00 0.00 -7.14 -13.23 9.64 -1.79 -0.49 0.25 2021
0.00 0.00 -3.11 -16.35 8.16 -2.10 -0.89 0.39 2028
-0.00 0.01 -0.46 -18.22 6.09 -2.15 -0.61 0.67 2035
0.00 0.00 -0.71 -19.67 4.81 -1.97 -0.15 0.99 2042
0.00 0.00 -3.05 -20.89 4.77 -1.59 0.27 1.30 2050
0.00 0.00 -5.78 -20.91 4.99 -1.23 0.38 1.73 2057
0.00 0.00 -7.31 -20.14 5.32 -0.87 0.27 2.17 2064
0.00 0.00 -8.02 -18.88 5.38 -0.58 0.18 2.73 2071
0.00 0.00 -14.43 -28.17 8.29 -0.17 -0.15 3.28 2078
0.00 0.00 -29.57 -26.85 1.95 1.27 -4.27 4.06 2085
-0.00 0.04 -0.99 -7.27 -0.11 1.98 -4.28 3.90 2093
-0.01 0.11 -16.55 10.17 16.11 2.63 -2.95 4.12 2101
-0.06 0.56 -23.90 2.26 25.17 2.62 -0.56 3.72 2108
-0.07 0.93 -19.21 -0.68 18.69 2.83 -1.43 1.88 2115
-0.07 1.06 -13.26 -7.12 17.72 3.53 -0.90 0.78 2122
-0.06 1.04 -8.50 -6.42 18.39 3.37 0.07 0.08 2129
-0.06 1.09 0.84 -2.60 17.22 2.98 0.51 -0.23 2137
-0.07 1.01 1.30 -7.54 32.31 1.40 0.05 -0.17 2144
-0.06 0.94 -0.04 -2.45 12.51 -0.05 -0.07 0.00 2150
-0.01 0.91 -0.50 -3.40 11.03 0.15 -0.06 -0.02 2157
0.01 0.80 0.47 -0.35 10.14 0.26 -0.01 0.01 2164
0.03 0.65 -0.61 -0.43 8.78 0.31 -0.03 -0.00 2171
0.05 0.59 -0.44 -1.22 9.06 0.22 0.06 0.01 2179
0.06 0.55 0.09 -1.34 9.65 0.15 0.14 0.01 2186
0.11 0.54 0.83 -1.25 10.13 0.10 0.11 -0.03 2194
0.13 0.47 0.61 -1.20 10.10 0.08 0.05 -0.01 2200
0.15 0.45 0.08 -1.29 9.87 0.07 0.03 -0.02 2207
0.16 0.38 0.16 -1.04 9.91 0.05 0.04 -0.01 2214
0.17 0.38 0.18 -0.95 9.92 0.05 0.06 -0.01 2222
0.18 0.38 0.12 -0.97 9.86 0.05 0.06 -0.02 2229
0.18 0.37 0.07 -0.93 9.86 0.06 0.07 -0.01 2236
0.18 0.35 0.15 -0.91 9.86 0.08 0.07 -0.01 2243
0.18 0.35 0.15 -0.94 9.77 0.09 0.07 -0.02 2250
0.16 0.31 0.19 -0.99 9.81 0.09 0.07 -0.02 2257
0.16 0.29 0.25 -0.88 9.94 0.10 0.06 -0.02 2265
0.15 0.29 0.14 -0.94 9.88 0.11 0.05 -0.02 2272
0.16 0.26 0.09 -1.02 9.85 0.12 0.06 -0.02 2279
0.16 0.22 0.15 -1.02 9.79 0.12 0.08 -0.02 2286
0.16 0.18 0.19 -1.01 9.68 0.10 0.09 -0.02 2293
0.15 0.15 0.24 -1.06 9.59 0.08 0.09 -0.02 2300
0.15 0.14 0.36 -1.11 9.60 0.05 0.07 -0.02 2308
0.13 0.13 0.45 -1.10 9.53 0.03 0.05 -0.03 2315
0.15 0.14 0.43 -1.10 9.55 -0.00 0.03 -0.06 2322
0.14 0.16 0.40 -1.07 9.58 -0.03 0.01 -0.04 2329
0.15 0.15 0.32 -1.07 9.61 -0.05 -0.00 -0.04 2336
0.15 0.17 0.25 -1.08 9.65 -0.07 -0.00 -0.04 2343
0.15 0.17 0.22 -1.04 9.61 -0.09 -0.01 -0.04 2351
0.14 0.20 0.22 -1.04 9.64 -0.10 -0.01 -0.04 2358
0.13 0.20 0.21 -1.04 9.72 -0.11 -0.01 -0.04 2365
0.15 0.22 0.25 -0.97 9.81 -0.10 -0.01 -0.03 2372
0.14 0.28 0.19 -0.99 9.81 -0.08 -0.02 -0.03 2379
0.14 0.29 0.23 -0.94 9.80 -0.06 -0.03 -0.03 2386
0.13 0.28 0.21 -1.01 9.70 -0.05 -0.03 -0.03 2394
0.12 0.29 0.10 -0.99 9.62 -0.05 -0.03 -0.03 2401
0.13 0.33 0.16 -0.94 9.72 -0.05 -0.02 -0.03 2408
0.16 0.32 0.09 -0.99 9.74 -0.05 -0.01 -0.03 2415
0.12 0.35 0.14 -0.96 9.71 -0.05 -0.01 -0.03 2422
0.13 0.35 0.22 -0.95 9.59 -0.03 -0.01 -0.03 2429
0.14 0.33 0.21 -0.91 9.72 0.00 -0.01 -0.04 2437
0.14 0.33 0.15 -0.92 9.77 0.04 -0.03 -0.04 2444
0.15 0.34 0.16 -0.95 9.70 0.06 -0.03 -0.05 2451
0.17 0.30 0.12 -0.95 9.78 0.09 -0.02 -0.05 2458
0.17 0.27 0.16 -0.97 9.91 0.13 -0.02 -0.06 2465
0.17 0.25 0.25 -1.01 9.91 0.16 -0.03 -0.06 2472
0.17 0.19 0.23 -1.01 9.83 0.19 -0.03 -0.07 2480
0.19 0.17 0.19 -0.97 9.86 0.22 -0.04 -0.08 2487
0.21 0.13 0.34 -0.97 10.00 0.27 -0.07 -0.08 2494
0.24 0.08 0.30 -1.10 9.93 0.30 -0.08 -0.10 2501
0.27 0.05 0.18 -1.15 10.05 0.33 -0.09 -0.11 2509
0.31 0.02 0.13 -1.25 9.99 0.36 -0.09 -0.12 2515
0.33 0.01 0.29 -1.25 10.22 0.39 -0.09 -0.13 2524
0.37 -0.02 0.45 -1.30 10.34 0.44 -0.11 -0.16 2531
0.40 -0.02 0.70 -1.28 10.69 0.50 -0.19 -0.20 2537
0.44 -0.02 0.99 -1.57 11.08 0.58 -0.27 -0.26 2545
0.47 -0.03 1.31 -1.84 11.47 0.72 -0.37 -0.37 2552
0.46 -0.04 1.70 -1.88 13.13 0.93 -0.60 -0.48 2560
0.52 -0.03 1.08 -1.84 15.60 1.32 -0.57 -0.56 2567
0.50 -0.02 0.35 -1.54 14.63 1.72 -0.42 -0.59 2574
0.53 -0.02 0.50 -1.28 15.17 1.99 -0.44 -0.58 2581
0.49 -0.03 0.51 -1.97 16.26 2.34 -0.44 -0.59 2588
0.49 -0.03 0.82 -1.80 18.28 2.73 -0.48 -0.59 2595
0.51 -0.04 2.41 -2.41 19.95 3.27 -0.71 -0.64 2603
0.48 -0.03 4.08 -2.73 19.10 3.81 -1.16 -0.78 2610
0.42 -0.00 3.23 -1.61 18.74 4.13 -1.40 -1.01 2617
0.41 -0.02 3.19 -4.11 22.04 4.27 -1.59 -1.14 2624
0.35 -0.02 6.03 -3.39 20.06 4.28 -2.36 -1.30 2631
0.24 -0.02 9.47 -4.69 20.62 4.28 -2.86 -1.61 2637
0.14 -0.01 10.73 -4.88 21.53 4.28 -3.15 -2.07 2646
0.13 -0.01 11.88 -5.15 21.46 4.28 -3.28 -2.52 2653
0.09 -0.01 14.37 -4.89 22.22 4.28 -3.16 -2.95 2660
0.06 -0.01 14.73 -4.53 22.04 4.28 -2.98 -3.48 2667
0.03 -0.00 12.89 -3.52 21.66 4.09 -2.84 -3.97 2674
0.00 0.00 11.77 1.96 18.25 3.45 -3.20 -4.28 2680
0.00 0.00 12.88 8.40 12.32 2.96 -3.73 -4.28 2688
0.00 0.00 25.49 20.41 5.99 2.24 -3.80 -3.95 2695
0.00 0.00 25.21 9.24 7.70 1.53 -1.62 -1.57 2702
0.00 0.00 26.46 10.88 13.43 0.04 0.47 -0.51 2709
0.00 0.00 16.11 8.61 6.46 -0.23 0.72 0.68 2716
0.00 0.00 12.69 7.73 8.46 -0.46 0.53 1.36 2723
0.00 0.00 12.44 7.03 8.71 -0.86 0.24 1.56 2731
0.00 0.00 12.13 7.49 7.98 -1.22 0.46 1.45 2738
0.01 -0.00 10.96 7.11 8.14 -1.62 0.90 1.05 2745
0.00 -0.00 8.12 6.30 8.01 -1.95 1.46 0.61 2752
0.00 -0.00 5.85 5.65 8.08 -2.19 1.79 0.08 2759
0.00 0.00 4.22 4.97 8.14 -2.41 1.90 -0.36 2766
0.00 0.00 3.76 4.10 8.07 -2.57 2.03 -0.81 2774
0.00 0.00 3.59 3.44 8.16 -2.64 2.16 -1.18 2781
0.01 -0.00 3.54 2.51 8.35 -2.70 2.42 -1.50 2788
0.00 0.00 3.29 1.61 8.86 -2.73 2.71 -1.79 2795
0.00 0.00 2.86 0.80 9.40 -2.73 2.98 -1.98 2802
0.00 0.00 2.37 0.29 10.05 -2.66 3.24 -2.10 2809
0.00 -0.00 1.99 0.19 10.69 -2.53 3.37 -2.09 2817
0.01 0.00 1.81 0.36 11.12 -2.36 3.47 -1.99 2824
0.00 0.00 1.65 0.53 11.93 -2.22 3.56 -1.78 2831
0.00 0.00 1.09 0.61 13.37 -2.07 3.66 -1.57 2838
0.00 0.00 0.48 0.82 13.83 -1.95 3.75 -1.31 2845
0.00 0.00 -0.22 1.39 14.63 -1.89 3.84 -1.03 2852
0.00 0.00 -1.72 1.80 15.06 -1.85 3.92 -0.79 2860
0.00 0.00 -3.44 1.93 15.21 -1.84 3.92 -0.51 2867
0.00 0.00 -4.17 1.72 15.87 -1.86 3.81 -0.28 2874
0.00 0.00 -4.59 1.46 16.98 -1.87 3.64 -0.03 2881
0.00 0.00 -5.01 1.60 17.44 -1.89 3.57 0.24 2888
0.00 0.00 -6.21 1.77 17.61 -1.95 3.53 0.49 2895
0.00 0.00 -8.41 2.03 17.67 -2.02 3.47 0.84 2903
0.00 0.00 -10.70 2.14 17.58 -2.09 3.31 1.22 2910
0.00 0.00 -13.40 1.61 17.42 -2.13 3.04 1.48 2917
0.00 0.00 -14.99 0.64 17.21 -2.17 2.70 1.72 2924
0.00 0.00 -16.06 -0.43 17.22 -2.24 2.32 1.81 2931
0.00 0.00 -16.17 -2.01 16.98 -2.36 1.86 1.82 2938
0.00 0.00 -15.83 -3.30 16.01 -2.43 1.48 1.76 2946
0.00 0.00 -15.40 -5.02 14.88 -2.46 1.11 1.69 2953
0.00 0.00 -15.00 -6.96 13.85 -2.42 0.86 1.59 2960
0.00 0.00 -15.45 -9.04 12.35 -2.31 0.73 1.47 2967
0.00 0.00 -16.48 -11.53 12.15 -2.17 0.58 1.32 2975
0.00 0.00 -17.55 -14.25 11.47 -2.05 0.39 1.26 2981
-0.00 0.00 -16.04 -17.61 8.44 -2.06 0.02 1.37 2989
0.00 -0.00 -8.27 -21.88 9.17 -2.18 -1.20 1.50 2996
0.00 0.00 -2.08 -25.42 7.82 -2.17 -1.88 1.71 3003
0.00 0.00 2.76 -26.79 5.17 -1.88 -1.47 2.11 3010
0.00 0.00 2.36 -26.87 2.83 -1.41 -0.67 2.56 3017
0.00 0.00 -29.91 -41.23 23.84 0.54 -2.87 3.14 3025
-0.00 0.00 -21.31 -35.91 -5.75 1.50 -4.28 3.98 3033
-0.00 0.04 -8.77 -22.13 5.95 2.63 -4.28 4.28 3039
-0.01 0.14 -9.33 6.58 7.60 3.37 -1.90 4.28 3046
-0.05 0.51 -23.90 -1.39 24.42 3.56 0.02 4.28 3054
-0.07 0.89 -25.10 0.41 21.05 3.35 -0.56 3.23 3061
-0.06 0.98 -16.96 -7.26 17.55 3.78 -0.55 1.34 3068
-0.07 1.01 -11.85 -8.21 16.86 3.93 0.26 0.23 3076
-0.06 0.99 -1.15 -4.19 18.51 3.57 0.87 -0.28 3083
-0.05 0.98 5.84 -4.08 23.14 0.33 0.00 -0.15 3090
-0.03 0.97 0.30 -7.33 19.61 -0.21 -0.12 -0.04 3097
-0.01 0.86 0.35 -1.00 11.75 0.19 -0.05 0.02 3103
0.02 0.77 -0.21 0.43 8.90 0.28 -0.05 0.01 3110
0.05 0.66 -0.75 -0.30 8.84 0.35 0.03 0.00 3118
0.08 0.56 -0.29 -1.74 9.42 0.29 0.14 0.03 3125
0.12 0.46 0.66 -1.46 9.96 0.23 0.15 0.03 3132
0.16 0.40 1.06 -1.29 10.07 0.21 0.06 0.01 3139
0.13 0.35 -0.13 -1.42 9.85 0.18 0.03 0.00 3146
0.15 0.37 0.19 -1.25 10.27 0.16 0.04 0.00 3153
0.17 0.28 0.37 -0.94 10.19 0.18 0.02 -0.00 3161
0.18 0.28 0.03 -1.07 9.85 0.19 0.01 -0.01 3168
0.19 0.22 0.08 -1.04 9.89 0.18 0.02 -0.01 3175
0.17 0.19 0.06 -1.07 10.03 0.18 0.03 -0.00 3182
0.20 0.12 0.01 -1.01 9.90 0.19 0.04 -0.00 3189
0.20 0.12 0.06 -1.08 9.91 0.19 0.06 0.00 3196
0.21 0.09 0.27 -1.13 9.86 0.20 0.06 -0.00 3204
0.21 0.05 0.30 -1.21 9.80 0.20 0.05 -0.02 3211
0.21 0.02 0.31 -1.12 9.79 0.19 0.03 -0.02 3218
0.21 0.03 0.33 -0.63 9.83 0.19 0.02 -0.03 3225
0.21 0.01 0.29 -1.22 9.84 0.19 0.01 -0.04 3232
0.22 0.01 0.21 -1.22 9.73 0.19 0.00 -0.04 3239
0.23 0.01 0.17 -1.27 9.65 0.17 0.01 -0.04 3247
0.23 -0.01 0.24 -1.26 9.45 0.15 0.01 -0.04 3254
0.22 -0.01 0.34 -1.30 9.44 0.11 0.00 -0.04 3261
0.22 -0.01 0.32 -1.33 9.36 0.07 -0.01 -0.04 3268
0.22 0.01 0.38 -1.35 9.46 0.04 -0.02 -0.05 3275
0.23 0.00 0.33 -1.37 9.43 0.01 -0.03 -0.05 3282
0.23 0.00 0.27 -1.38 9.39 -0.03 -0.03 -0.06 3290
0.23 0.00 0.26 -1.36 9.47 -0.07 -0.03 -0.06 3297
0.23 -0.01 0.20 -1.37 9.50 -0.10 -0.03 -0.06 3304
0.22 -0.01 0.20 -1.30 9.56 -0.12 -0.04 -0.06 3311
0.23 0.01 0.22 -1.31 9.59 -0.15 -0.04 -0.05 3318
0.23 0.03 0.23 -1.28 9.54 -0.17 -0.05 -0.05 3325
0.23 0.05 0.14 -1.22 9.72 -0.18 -0.06 -0.05 3333
0.22 0.06 0.17 -1.18 9.81 -0.18 -0.07 -0.04 3340
0.22 0.05 0.16 -1.10 9.81 -0.15 -0.08 -0.05 3347
0.20 0.05 0.13 -1.09 9.97 -0.10 -0.08 -0.05 3354
0.20 0.08 0.15 -1.12 10.01 -0.04 -0.08 -0.05 3361
0.21 0.10 0.05 -1.13 9.82 -0.01 -0.08 -0.05 3368
0.24 0.08 0.01 -1.09 9.82 0.03 -0.06 -0.05 3376
0.23 0.08 0.03 -1.11 9.81 0.04 -0.05 -0.06 3383
0.24 0.06 0.07 -1.16 9.83 0.08 -0.05 -0.06 3390
0.26 0.06 0.07 -1.17 9.91 0.12 -0.04 -0.07 3397
0.26 0.08 0.16 -1.21 9.99 0.14 -0.05 -0.08 3404
0.30 0.04 0.23 -1.18 9.86 0.18 -0.07 -0.09 3411
0.32 0.01 0.22 -1.24 10.07 0.22 -0.09 -0.11 3419
0.31 -0.01 0.30 -1.20 10.14 0.27 -0.13 -0.13 3427
0.35 -0.03 0.58 -1.15 10.29 0.33 -0.21 -0.15 3434
0.40 -0.03 0.76 -1.17 10.73 0.41 -0.31 -0.19 3441
0.43 -0.01 1.12 -1.61 10.96 0.52 -0.39 -0.26 3448
0.49 -0.02 0.98 -1.88 11.67 0.67 -0.53 -0.36 3456
0.49 -0.03 1.09 -1.58 11.97 0.82 -0.67 -0.47 3463
0.53 -0.03 1.35 -1.94 12.89 1.01 -0.67 -0.55 3470
0.57 -0.02 -0.64 -1.63 15.49 1.41 -0.38 -0.58 3477
0.56 -0.02 -0.51 -1.79 14.44 1.72 -0.40 -0.51 3484
0.57 -0.02 0.38 -1.92 14.33 1.99 -0.47 -0.49 3491
0.55 -0.02 0.29 -1.80 15.62 2.22 -0.54 -0.49 3499
0.56 -0.02 0.89 -2.20 17.79 2.56 -0.75 -0.49 3506
0.54 -0.03 1.96 -2.43 19.69 3.03 -1.08 -0.54 3513
0.52 -0.02 2.95 -2.60 19.85 3.45 -1.49 -0.65 3520
0.48 -0.01 4.51 -3.28 18.78 3.76 -2.05 -0.83 3527
0.39 -0.02 5.60 -3.27 18.19 3.96 -2.40 -1.11 3534
0.35 -0.02 5.65 -4.10 18.53 4.14 -2.57 -1.37 3542
0.22 -0.00 5.28 -4.16 20.41 4.24 -2.63 -1.64 3549
0.15 -0.00 6.55 -4.85 21.88 4.26 -2.64 -1.86 3556
0.07 -0.00 11.37 -6.52 22.04 4.19 -2.69 -2.15 3563
0.05 0.00 15.85 -5.33 19.71 4.01 -2.49 -2.69 3570
0.05 0.00 16.32 -4.73 17.89 3.65 -2.17 -3.29 3577
0.02 -0.00 14.08 -0.25 16.78 3.16 -2.17 -3.88 3584
0.01 -0.00 13.28 3.98 11.82 2.73 -2.58 -4.16 3592
0.00 0.00 23.92 13.00 7.87 2.17 -2.82 -3.65 3598
0.00 0.00 23.27 3.75 11.94 1.74 -1.38 -1.50 3605
-0.00 0.02 22.69 7.14 10.24 0.78 -0.03 -0.50 3612
0.00 0.00 14.72 7.34 8.40 0.47 -0.01 0.50 3619
0.00 0.00 12.28 7.80 9.73 -0.00 -0.21 1.03 3627
0.00 0.00 11.04 7.49 9.48 -0.61 -0.49 1.15 3634
0.00 0.00 10.77 6.90 8.15 -1.01 -0.45 0.95 3641
0.00 0.00 10.10 5.85 7.75 -1.31 -0.13 0.58 3648
-0.00 0.01 9.07 5.18 7.55 -1.49 0.40 0.07 3655
0.00 0.00 7.85 4.74 7.56 -1.60 0.80 -0.42 3662
0.00 0.00 6.53 4.71 7.49 -1.68 1.17 -0.75 3670
0.00 0.00 5.57 4.52 7.50 -1.73 1.45 -1.01 3677
0.00 0.00 4.83 4.23 7.79 -1.76 1.65 -1.11 3684
-0.00 0.01 4.16 3.77 7.98 -1.76 1.81 -1.13 3691
-0.00 0.01 4.06 3.25 8.34 -1.75 1.99 -1.07 3698
0.01 0.01 3.94 2.87 8.63 -1.79 2.19 -0.97 3705
-0.00 0.00 3.21 2.66 9.01 -1.84 2.42 -0.79 3713
0.00 0.00 2.45 2.71 9.64 -1.87 2.52 -0.57 3720
0.00 0.00 2.10 2.57 10.19 -1.90 2.54 -0.35 3727
0.00 0.00 2.11 2.59 10.69 -1.94 2.47 -0.07 3734
0.01 -0.00 2.29 2.62 11.22 -2.00 2.46 0.17 3741
0.00 0.00 2.57 2.57 11.70 -2.08 2.48 0.41 3748
0.00 0.00 2.42 2.25 12.39 -2.16 2.53 0.60 3756
0.00 0.00 1.98 2.01 12.86 -2.24 2.60 0.72 3763
0.00 0.00 1.76 1.70 13.53 -2.30 2.66 0.80 3770
0.00 0.00 1.40 1.31 14.24 -2.38 2.73 0.83 3777
0.00 -0.00 0.70 0.84 14.71 -2.45 2.82 0.83 3784
0.00 0.00 -0.10 0.54 15.10 -2.49 2.88 0.79 3791
0.00 0.00 -1.21 0.06 15.44 -2.52 2.93 0.73 3799
0.00 0.00 -2.42 -0.56 15.73 -2.51 2.96 0.62 3806
0.00 0.00 -3.17 -1.02 15.95 -2.50 2.94 0.50 3813
0.00 0.00 -3.72 -1.53 16.46 -2.47 2.87 0.30 3820
0.00 0.00 -4.36 -2.17 16.39 -2.42 2.91 0.04 3827
0.00 0.00 -5.82 -2.51 16.31 -2.36 3.08 -0.23 3834
0.00 0.00 -8.27 -3.05 16.57 -2.32 3.24 -0.59 3842
0.00 0.00 -10.74 -3.45 16.83 -2.26 3.25 -0.94 3849
0.00 0.00 -13.79 -3.66 16.81 -2.20 3.14 -1.22 3856
0.00 0.00 -16.36 -3.85 16.95 -2.16 2.98 -1.47 3863
0.00 0.00 -18.55 -3.89 16.86 -2.14 2.87 -1.59 3870
0.00 0.00 -21.23 -4.08 16.32 -2.16 2.64 -1.61 3877
0.00 0.00 -22.80 -5.73 13.46 -2.26 2.25 -1.49 3885
0.00 0.00 -15.81 -9.90 12.19 -2.57 1.17 -1.37 3892
0.00 0.00 -8.94 -14.59 12.10 -2.78 -0.21 -1.27 3899
0.00 0.00 -4.30 -18.20 8.42 -2.62 -0.24 -0.98 3906
0.00 0.00 -1.48 -20.47 6.43 -2.08 0.48 -0.59 3913
0.00 0.00 -3.40 -21.32 6.11 -1.49 1.09 -0.17 3920
0.00 0.00 -6.53 -20.65 6.76 -0.92 1.45 0.32 3928
0.00 0.00 -10.65 -18.63 8.00 -0.59 1.26 1.09 3935
0.00 0.00 -13.49 -16.42 8.37 -0.35 0.84 2.02 3942
0.00 0.00 -15.80 -14.64 8.18 -0.21 0.32 2.90 3949
0.00 0.00 -16.30 -13.33 7.61 -0.10 -0.15 3.81 3956
0.00 0.00 -15.38 -11.89 7.77 0.02 -0.44 4.28 3963
0.00 0.00 -48.95 -30.75 26.68 1.47 -4.19 4.28 3972
-0.00 0.01 -12.21 -10.34 0.26 1.57 -4.28 4.28 3979
-0.01 0.08 -7.17 7.18 1.49 2.09 -4.28 4.01 3985
-0.01 0.35 -24.81 10.78 29.36 2.63 -3.36 3.91 3993
-0.07 0.94 -24.60 5.13 17.29 2.79 -2.37 2.82 4000
-0.06 1.20 -16.78 -3.80 20.43 3.87 -2.27 1.48 4007
-0.09 1.30 -15.82 -8.98 18.00 4.23 -0.80 0.61 4015
-0.09 1.31 -5.07 -4.41 21.44 4.20 -0.17 -0.07 4022
-0.07 1.31 1.17 -5.98 31.42 3.05 0.34 -0.19 4029
-0.06 1.22 5.64 1.14 15.82 0.15 -0.56 -0.05 4036
-0.01 1.17 -1.81 -8.12 19.21 -0.10 -0.27 -0.02 4043
0.03 1.09 0.50 -0.04 11.51 0.22 -0.14 0.09 4049
0.00 1.00 -0.03 0.31 9.02 0.36 -0.15 0.08 4057
0.01 0.93 -0.29 -0.64 8.71 0.32 -0.08 0.05 4064
0.06 0.86 0.31 -1.01 9.21 0.22 -0.03 0.03 4071
0.08 0.79 0.15 -1.07 9.58 0.13 -0.02 0.02 4078
0.12 0.77 0.03 -1.08 9.77 0.08 0.01 0.02 4085
0.12 0.74 0.35 -1.03 10.12 0.06 0.02 0.02 4092
0.11 0.72 0.40 -0.92 10.15 0.08 -0.02 0.02 4100
0.11 0.72 0.30 -0.90 9.83 0.10 -0.04 0.01 4107
0.12 0.67 0.05 -0.86 9.71 0.08 -0.05 0.00 4114
0.11 0.66 -0.07 -0.84 9.85 0.07 -0.04 0.00 4121
0.12 0.66 0.06 -0.76 9.88 0.07 -0.03 0.00 4128
0.12 0.64 0.04 -0.74 9.88 0.08 -0.02 -0.00 4135
0.12 0.61 0.00 -0.77 9.85 0.08 -0.02 -0.00 4143
0.12 0.64 0.02 -0.83 9.77 0.09 -0.02 -0.01 4150
0.13 0.60 0.06 -0.87 9.86 0.09 -0.03 -0.01 4157
0.14 0.56 0.07 -0.82 9.84 0.09 -0.04 -0.02 4164
0.13 0.51 0.03 -0.87 9.81 0.10 -0.04 -0.02 4171
0.12 0.49 0.03 -0.85 9.72 0.10 -0.04 -0.03 4178
0.13 0.50 0.02 -0.91 9.58 0.09 -0.03 -0.03 4186
0.12 0.52 0.07 -0.98 9.52 0.07 -0.02 -0.04 4193
0.11 0.47 0.11 -0.92 9.55 0.04 -0.01 -0.04 4200
0.09 0.46 0.15 -0.95 9.60 0.02 -0.01 -0.04 4207
0.09 0.44 0.12 -0.94 9.56 0.00 -0.01 -0.05 4214
0.08 0.46 0.13 -0.96 9.61 -0.02 -0.02 -0.05 4221
0.04 0.47 0.11 -0.86 9.61 -0.02 -0.03 -0.05 4229
0.07 0.50 0.11 -0.89 9.56 -0.02 -0.04 -0.06 4236
0.07 0.49 0.10 -0.91 9.57 -0.02 -0.05 -0.06 4243
0.09 0.51 0.08 -0.94 9.59 -0.02 -0.06 -0.06 4250
0.09 0.51 0.06 -0.93 9.52 -0.03 -0.06 -0.06 4257
0.05 0.51 0.03 -0.87 9.59 -0.01 -0.06 -0.06 4264
0.07 0.52 -0.53 -0.94 9.74 -0.00 -0.07 -0.07 4272
0.08 0.53 -0.04 -0.96 9.69 -0.00 -0.07 -0.06 4279
0.07 0.52 -0.18 -0.87 9.61 0.01 -0.06 -0.07 4286
0.05 0.51 -0.07 -0.86 9.76 0.03 -0.06 -0.07 4293
0.09 0.47 0.00 -0.77 9.67 0.07 -0.07 -0.07 4300
0.13 0.43 -0.01 -0.76 9.97 0.14 -0.09 -0.08 4307
0.18 0.33 0.14 -0.93 10.26 0.20 -0.12 -0.08 4316
0.18 0.31 0.04 -0.85 10.06 0.24 -0.14 -0.08 4322
0.22 0.18 -0.02 -0.93 10.21 0.28 -0.16 -0.09 4330
0.32 0.19 0.01 -0.94 10.32 0.32 -0.22 -0.08 4336
0.38 0.09 0.10 -1.05 10.27 0.35 -0.29 -0.09 4343
0.40 0.03 0.15 -1.07 10.51 0.41 -0.35 -0.11 4352
0.44 0.02 0.28 -1.13 10.73 0.46 -0.46 -0.13 4359
0.49 -0.02 0.80 -1.31 11.13 0.52 -0.60 -0.18 4366
0.49 -0.03 1.02 -1.63 11.10 0.60 -0.82 -0.28 4373
0.53 -0.02 0.77 -1.60 11.25 0.69 -1.11 -0.39 4380
0.57 -0.03 0.39 -1.57 11.90 0.78 -1.30 -0.45 4387
0.69 -0.03 -0.30 -1.60 12.45 0.94 -1.49 -0.49 4395
0.73 -0.03 -1.42 -1.48 14.10 1.14 -1.65 -0.45 4402
0.75 -0.03 -0.42 -1.76 14.45 1.49 -1.70 -0.36 4409
0.73 -0.04 0.58 -1.91 13.92 1.76 -1.09 -0.48 4416
0.73 -0.05 -0.78 -1.60 15.87 2.00 -0.99 -0.52 4423
0.77 -0.05 0.80 -2.14 18.67 2.41 -1.00 -0.52 4430
0.68 -0.04 1.63 -2.58 20.00 2.89 -1.08 -0.61 4438
0.69 -0.03 3.82 -3.02 19.82 3.37 -1.41 -0.75 4445
0.57 -0.03 5.21 -3.51 19.08 3.69 -1.78 -1.04 4452
0.43 -0.02 3.55 -3.22 18.75 3.90 -2.04 -1.36 4459
0.25 -0.02 0.93 -3.91 20.93 4.12 -2.27 -1.49 4466
0.14 -0.01 1.31 -3.08 23.73 4.18 -2.71 -1.53 4472
0.09 -0.01 4.14 -4.10 23.18 4.07 -3.40 -1.61 4480
0.10 -0.01 6.79 -3.54 22.56 3.57 -3.95 -1.82 4488
0.07 -0.01 9.59 -1.05 18.08 3.06 -4.28 -2.08 4494
0.04 -0.00 11.37 0.95 16.02 2.69 -4.28 -2.20 4502
0.00 0.00 14.00 2.19 14.41 2.35 -4.28 -2.16 4508
0.00 0.00 22.48 6.57 9.95 2.05 -4.28 -1.70 4515
0.00 0.00 29.60 3.03 7.53 1.98 -2.49 -0.03 4523
0.00 0.00 24.41 5.65 12.88 1.36 -0.21 0.86 4530
0.00 0.00 14.87 3.86 8.73 1.10 0.24 1.51 4537
0.00 0.00 11.38 5.27 10.28 0.91 -0.05 2.04 4544
0.00 0.00 11.83 6.39 9.58 0.50 -0.29 2.25 4551
0.00 0.00 12.10 7.22 8.79 -0.05 -0.10 2.18 4558
0.01 -0.00 11.00 6.82 7.96 -0.46 0.38 1.79 4566
0.02 -0.00 8.83 6.28 7.28 -0.82 0.83 1.30 4573
0.00 0.00 6.95 5.51 7.16 -1.05 1.22 0.64 4580
0.00 0.00 5.91 4.98 7.46 -1.28 1.45 -0.00 4587
0.00 0.00 5.22 4.39 7.60 -1.49 1.67 -0.55 4594
0.00 0.00 4.79 3.82 7.69 -1.66 1.89 -1.07 4601
-0.00 0.00 4.29 3.19 7.84 -1.82 2.09 -1.37 4609
0.00 0.00 3.66 2.57 8.16 -1.91 2.29 -1.60 4616
0.00 0.00 3.38 2.28 8.61 -1.99 2.45 -1.69 4623
0.00 -0.00 3.01 1.76 8.93 -2.03 2.64 -1.69 4630
0.00 0.00 2.54 1.05 9.59 -2.05 2.83 -1.60 4637
0.00 0.00 2.37 0.47 10.22 -2.02 2.95 -1.48 4644
0.00 0.00 2.05 0.12 11.00 -1.97 3.07 -1.32 4652
0.00 0.00 1.57 0.33 11.58 -1.90 3.17 -1.14 4659
0.00 0.00 0.54 0.37 11.82 -1.83 3.27 -0.99 4666
0.00 0.00 -0.63 0.22 12.00 -1.78 3.29 -0.86 4673
0.00 0.00 -1.39 0.22 12.42 -1.73 3.32 -0.81 4680
0.00 0.00 -2.16 0.03 12.76 -1.69 3.38 -0.82 4687
0.00 0.00 -2.59 -0.15 13.40 -1.66 3.40 -0.87 4695
0.00 0.00 -3.22 -0.05 14.14 -1.64 3.34 -0.92 4702
0.00 0.00 -4.02 0.47 14.63 -1.62 3.29 -0.93 4709
0.00 0.00 -4.70 0.91 15.36 -1.64 3.25 -0.88 4716
0.00 0.00 -5.87 1.25 15.74 -1.70 3.19 -0.73 4723
0.00 0.00 -7.11 1.86 15.73 -1.77 3.05 -0.46 4730
0.00 -0.00 -8.27 1.87 15.70 -1.84 2.87 -0.14 4738
0.00 0.00 -8.90 1.51 15.63 -1.88 2.58 0.27 4745
0.00 0.00 -8.86 0.95 15.24 -1.92 2.31 0.68 4752
0.00 0.00 -8.18 0.13 14.89 -1.94 2.05 0.98 4759
0.00 0.00 -7.53 -0.86 14.58 -1.96 1.83 1.26 4766
0.00 0.00 -6.89 -1.83 14.31 -1.96 1.70 1.42 4773
0.00 0.00 -6.26 -2.84 14.13 -1.93 1.59 1.53 4781
0.00 0.00 -6.35 -4.23 13.99 -1.87 1.55 1.51 4788
0.00 0.00 -7.03 -4.48 13.64 -1.80 1.56 1.40 4795
0.00 0.00 -8.56 -5.27 12.39 -1.74 1.56 1.16 4802
0.00 0.00 -8.70 -6.70 10.21 -1.72 1.46 0.86 4809
-0.00 0.00 -4.70 -8.87 10.11 -1.74 0.81 0.34 4816
0.00 0.00 -1.51 -10.27 10.10 -1.68 0.41 -0.17 4824
0.00 0.00 1.57 -10.62 9.42 -1.53 0.64 -0.50 4831
0.00 0.00 2.19 -10.57 9.43 -1.42 1.25 -0.82 4838
0.00 0.00 0.53 -10.82 9.74 -1.35 1.74 -0.97 4845
0.00 0.00 -2.68 -11.28 9.86 -1.30 2.02 -1.02 4852
0.00 0.00 -5.08 -11.84 9.64 -1.28 1.91 -0.90 4859
0.00 0.00 -7.20 -12.49 9.07 -1.23 1.67 -0.69 4867
0.00 0.00 -8.76 -13.14 8.35 -1.08 1.37 -0.34 4874
0.00 0.00 -10.18 -13.30 7.63 -0.88 1.12 0.09 4881
0.00 0.00 -11.47 -12.89 7.28 -0.60 0.81 0.49 4888
0.00 0.00 -12.04 -12.02 7.12 -0.39 0.47 0.98 4895
0.00 0.00 -11.79 -10.97 7.41 -0.23 0.21 1.38 4902
0.00 0.00 -10.92 -9.84 7.49 -0.22 -0.04 1.80 4910
0.00 0.00 -10.16 -8.16 7.35 -0.30 -0.20 2.18 4917
0.00 0.00 -9.13 -6.57 6.80 -0.37 -0.34 2.48 4924
0.00 0.00 -30.20 -20.48 16.70 0.10 -2.82 2.88 4931
-0.00 0.02 -23.00 -17.13 0.50 0.98 -4.28 3.39 4938
-0.01 0.05 2.13 3.12 -3.15 1.37 -4.28 2.87 4945
-0.02 0.28 -27.27 8.14 32.70 2.30 -4.18 3.17 4954
-0.06 0.83 -19.75 3.93 21.40 2.75 -1.69 2.93 4961
-0.09 1.09 -14.46 -1.62 20.91 3.68 -1.88 1.68 4968
-0.08 1.19 -16.80 -8.96 18.91 3.89 -1.09 0.72 4975
-0.07 1.22 -5.24 -4.11 18.49 3.76 -0.41 -0.05 4982
-0.06 1.21 -0.37 -8.57 34.26 2.44 -0.78 -0.21 4989
-0.03 1.13 0.59 0.86 11.92 -0.09 -0.45 0.01 4996
-0.01 1.07 -1.81 -6.55 14.55 -0.01 -0.26 -0.01 5004
0.00 0.94 0.14 -0.27 11.37 0.15 -0.11 0.07 5010
0.01 0.90 -0.06 0.54 9.08 0.35 -0.10 0.07 5017
0.05 0.83 -0.26 -0.85 8.84 0.32 -0.04 0.06 5024
0.07 0.73 0.26 -1.31 9.19 0.23 0.02 0.05 5031
0.07 0.65 0.30 -1.05 9.38 0.15 0.06 0.03 5039
0.11 0.57 0.58 -1.00 9.82 0.11 0.06 0.02 5046
0.10 0.58 0.60 -0.94 9.88 0.08 0.02 -0.00 5053
0.13 0.58 0.29 -1.14 9.82 0.04 -0.00 -0.01 5060
0.10 0.56 0.15 -1.06 9.62 0.04 0.00 -0.01 5067
0.11 0.56 0.28 -0.83 9.73 0.01 0.01 -0.01 5074
0.11 0.56 0.11 -0.87 9.81 -0.00 0.02 -0.01 5082
0.10 0.56 0.04 -0.84 9.84 -0.00 0.04 -0.01 5089
0.11 0.56 0.18 -0.80 9.84 0.01 0.05 -0.01 5096
0.11 0.55 0.09 -0.83 9.81 0.01 0.07 -0.01 5103
0.11 0.55 0.15 -0.81 9.89 0.01 0.07 -0.01 5110
0.11 0.50 0.11 -0.82 9.91 0.02 0.08 -0.01 5117
0.10 0.46 0.15 -0.85 9.92 0.02 0.08 -0.00 5125
0.11 0.46 0.19 -0.89 9.93 0.02 0.08 -0.00 5132
0.10 0.46 0.24 -0.85 9.83 0.02 0.07 -0.01 5139
0.11 0.45 0.24 -0.90 9.79 0.02 0.05 -0.01 5146
0.11 0.45 0.29 -0.84 9.69 0.02 0.03 -0.01 5153
0.09 0.44 0.36 -0.90 9.60 -0.00 0.02 -0.02 5160
0.08 0.45 0.35 -0.88 9.60 -0.03 0.00 -0.02 5168
0.07 0.47 0.30 -0.91 9.64 -0.04 -0.01 -0.03 5175
0.08 0.48 0.31 -0.88 9.67 -0.05 -0.03 -0.03 5182
0.08 0.50 0.30 -0.84 9.61 -0.05 -0.04 -0.03 5189
0.08 0.52 0.26 -0.87 9.62 -0.05 -0.04 -0.04 5196
0.07 0.55 0.22 -0.85 9.66 -0.06 -0.05 -0.04 5203
0.05 0.57 0.26 -0.81 9.67 -0.06 -0.05 -0.04 5211
0.05 0.57 0.16 -0.83 9.68 -0.07 -0.05 -0.04 5218
0.06 0.59 0.20 -0.85 9.75 -0.06 -0.04 -0.05 5225
0.05 0.63 0.15 -0.84 9.76 -0.05 -0.04 -0.04 5232
0.06 0.64 0.19 -0.80 9.65 -0.04 -0.03 -0.04 5239
0.08 0.69 0.22 -0.80 9.58 -0.04 -0.03 -0.05 5246
0.07 0.69 0.17 -0.85 9.65 -0.04 -0.03 -0.05 5254
0.07 0.69 0.23 -0.76 9.69 -0.03 -0.03 -0.05 5261
0.06 0.71 0.22 -0.78 9.57 -0.02 -0.03 -0.05 5268
0.08 0.73 0.21 -0.77 9.69 -0.01 -0.04 -0.05 5275
0.07 0.73 0.18 -0.81 9.64 0.01 -0.05 -0.05 5282
0.08 0.73 0.17 -0.84 9.69 0.02 -0.05 -0.05 5289
0.08 0.71 0.14 -0.83 9.81 0.03 -0.06 -0.05 5297
0.07 0.70 0.15 -0.85 9.85 0.04 -0.07 -0.05 5304
0.08 0.70 0.12 -0.79 9.87 0.06 -0.07 -0.05 5311
0.13 0.68 0.11 -0.83 9.81 0.09 -0.07 -0.05 5318
0.12 0.67 0.14 -0.84 9.83 0.11 -0.08 -0.05 5325
0.15 0.61 0.12 -0.84 9.82 0.13 -0.09 -0.05 5332
0.14 0.58 0.16 -0.77 9.81 0.16 -0.10 -0.06 5340
0.17 0.53 0.19 -0.80 9.90 0.21 -0.11 -0.06 5347
0.17 0.42 0.11 -0.96 9.90 0.23 -0.11 -0.07 5354
0.24 0.33 -0.01 -0.88 9.87 0.25 -0.10 -0.07 5361
0.23 0.28 0.08 -0.89 9.98 0.29 -0.10 -0.07 5368
0.25 0.21 0.13 -1.00 10.09 0.33 -0.11 -0.08 5377
0.26 0.19 0.17 -0.96 10.14 0.37 -0.12 -0.09 5384
0.28 0.09 0.10 -0.99 10.03 0.42 -0.15 -0.10 5390
0.32 0.06 0.34 -1.23 10.33 0.45 -0.16 -0.12 5398
0.34 0.01 0.28 -1.34 10.38 0.48 -0.20 -0.14 5405
0.34 0.00 0.52 -1.25 10.50 0.51 -0.26 -0.18 5411
0.40 -0.03 0.75 -1.39 10.61 0.55 -0.34 -0.23 5420
0.39 -0.02 0.55 -1.49 11.05 0.62 -0.48 -0.30 5427
0.46 -0.03 0.75 -1.69 11.58 0.72 -0.73 -0.37 5434
0.53 -0.02 0.82 -1.77 12.04 0.90 -0.91 -0.43 5441
0.56 -0.02 0.10 -1.70 13.72 1.20 -1.01 -0.46 5448
0.60 -0.04 0.39 -1.60 13.97 1.47 -0.85 -0.45 5455
0.59 -0.04 -0.09 -1.77 13.60 1.70 -0.77 -0.49 5463
0.62 -0.04 -0.51 -1.80 14.11 1.89 -0.82 -0.45 5470
0.62 -0.03 -0.39 -1.86 15.24 2.14 -0.87 -0.42 5477
0.65 -0.04 -0.74 -1.78 15.66 2.46 -0.91 -0.38 5484
0.68 -0.04 -0.61 -1.93 16.86 2.74 -1.00 -0.34 5491
0.63 -0.03 0.07 -2.37 17.97 3.13 -1.18 -0.34 5498
0.59 -0.04 1.39 -2.64 18.15 3.47 -1.48 -0.40 5506
0.55 -0.03 2.23 -2.16 15.97 3.84 -1.75 -0.52 5513
0.47 -0.02 1.83 -2.03 17.91 4.15 -1.79 -0.70 5520
0.33 -0.00 1.92 -3.48 19.11 4.27 -2.18 -0.85 5527
0.26 -0.03 6.14 -4.51 18.00 4.28 -2.95 -1.03 5533
0.19 -0.02 9.31 -5.49 18.08 4.28 -3.29 -1.45 5540
0.14 -0.01 9.39 -6.53 18.97 4.28 -3.35 -1.89 5549
0.06 -0.01 11.54 -7.61 20.91 4.28 -3.51 -2.41 5556
0.07 0.00 13.13 -6.61 20.77 4.26 -3.67 -2.91 5563
0.06 -0.00 14.27 -6.64 19.89 4.04 -3.59 -3.37 5570
0.05 -0.00 14.48 -4.16 18.76 3.67 -3.26 -3.83 5577
0.04 -0.00 14.80 0.51 14.89 3.30 -3.05 -4.18 5583
0.00 0.00 13.99 2.46 12.47 2.78 -3.04 -4.28 5591
0.00 0.00 22.47 4.73 7.39 2.34 -2.94 -3.65 5598
0.00 0.00 22.98 1.06 8.20 2.07 -1.32 -1.69 5605
0.00 0.00 23.48 3.68 12.51 0.92 0.90 -0.38 5612
0.00 0.00 15.64 1.18 9.44 0.47 1.23 0.70 5619
0.00 0.00 11.61 1.27 9.96 0.26 1.10 1.62 5626
0.00 0.00 10.45 1.69 9.75 0.06 0.78 2.14 5634
0.00 0.00 10.49 2.89 9.56 -0.26 0.71 2.31 5641
0.00 -0.00 9.81 3.59 9.16 -0.61 0.96 2.20 5648
0.00 0.00 7.99 3.82 8.97 -0.92 1.26 1.85 5655
0.00 0.00 5.60 3.73 8.46 -1.20 1.48 1.42 5662
0.00 0.00 4.39 3.77 8.08 -1.42 1.52 0.82 5669
0.00 0.00 4.05 3.73 7.62 -1.64 1.62 0.27 5677
-0.00 0.00 3.83 3.58 7.39 -1.82 1.87 -0.33 5684
-0.00 0.01 3.41 3.45 7.83 -1.95 2.15 -0.80 5691
0.00 0.00 2.68 3.38 8.51 -2.11 2.52 -1.08 5698
-0.00 0.00 1.69 3.33 9.14 -2.23 2.80 -1.24 5705
0.00 0.00 0.70 3.38 9.31 -2.36 2.97 -1.22 5712
-0.00 0.01 -0.22 3.24 9.77 -2.43 3.12 -1.03 5720
-0.00 0.03 -0.75 2.76 10.20 -2.45 3.19 -0.72 5727
0.00 0.01 -1.23 2.55 10.71 -2.45 3.19 -0.39 5735
-0.00 0.01 -1.63 2.05 11.32 -2.43 3.20 0.01 5741
0.00 0.00 -2.12 1.95 11.87 -2.42 3.18 0.32 5748
0.00 0.00 -2.76 1.87 12.45 -2.43 3.16 0.63 5755
-0.00 0.00 -3.35 1.54 13.12 -2.46 3.10 0.87 5763
-0.00 0.01 -3.92 1.39 13.54 -2.51 3.00 1.00 5770
-0.00 0.00 -3.91 0.85 14.04 -2.60 2.93 1.07 5777
0.00 0.00 -3.86 0.29 14.74 -2.63 2.90 1.06 5784
0.00 0.00 -4.02 -0.25 15.00 -2.66 2.90 1.00 5791
0.00 0.00 -4.49 -0.57 15.18 -2.68 2.96 0.93 5798
0.00 0.00 -5.27 -0.77 15.66 -2.65 3.01 0.88 5806
0.00 0.00 -6.27 -0.90 16.00 -2.62 3.04 0.84 5813
0.00 0.00 -7.28 -0.76 16.03 -2.61 3.00 0.82 5820
0.00 0.00 -8.37 -0.64 16.18 -2.61 2.86 0.86 5827
0.00 0.00 -9.12 -0.50 16.53 -2.64 2.61 0.94 5834
0.00 0.00 -9.25 -0.43 17.74 -2.69 2.36 1.04 5841
0.00 0.00 -9.59 -1.00 17.76 -2.76 2.12 1.19 5849
0.00 0.00 -10.29 -2.83 17.50 -2.82 2.01 1.36 5856
0.00 0.00 -11.82 -4.96 16.83 -2.84 1.95 1.48 5863
0.00 0.00 -13.44 -7.56 15.98 -2.79 1.85 1.56 5870
0.00 0.00 -14.84 -9.65 15.20 -2.65 1.66 1.55 5877
0.00 0.00 -15.80 -11.57 14.60 -2.47 1.33 1.45 5884
0.00 0.00 -16.28 -13.24 13.51 -2.32 1.07 1.31 5893
0.00 0.00 -15.95 -16.37 10.79 -2.29 0.73 1.22 5900
0.00 0.00 -10.82 -19.66 10.62 -2.38 -0.39 1.04 5906
0.00 0.00 -6.11 -22.88 9.32 -2.45 -1.26 0.91 5913
0.00 0.00 -0.95 -24.65 7.03 -2.26 -1.37 0.90 5920
0.00 0.00 0.97 -25.62 4.68 -1.88 -0.76 0.85 5927
0.00 0.00 -0.12 -25.57 3.83 -1.29 -0.05 0.81 5935
0.00 0.00 -3.26 -24.52 4.29 -0.69 0.55 0.82 5942
0.00 0.00 -6.57 -22.68 5.51 -0.24 0.76 0.91 5949
0.00 0.00 -9.05 -19.93 6.50 0.08 0.69 1.12 5956
0.00 0.00 -34.80 -31.77 19.49 0.83 -2.15 1.64 5963
0.00 0.00 -26.87 -23.34 3.45 1.50 -4.28 2.44 5970
-0.00 0.02 2.45 -2.48 1.68 1.92 -4.28 2.39 5978
-0.01 0.10 -13.38 11.11 17.84 2.41 -3.38 2.83 5986
-0.04 0.42 -17.70 3.04 21.56 2.58 -0.82 2.92 5993
-0.05 0.79 -13.83 1.05 16.09 3.05 -1.49 1.62 6000
-0.07 0.89 -11.71 -6.68 18.93 4.00 -1.15 0.60 6007
-0.06 0.96 -8.01 -6.86 21.29 3.71 -0.20 0.12 6014
-0.07 1.01 0.36 -3.73 19.18 2.91 0.10 -0.24 6022
-0.04 0.93 3.58 -4.50 15.21 0.65 -0.80 -0.29 6029
-0.03 0.93 0.45 -3.74 13.06 -0.10 -0.32 0.01 6036
-0.01 0.84 -0.87 -1.35 9.86 0.11 -0.25 -0.04 6042
-0.02 0.80 -0.08 0.01 9.51 0.17 -0.13 -0.02 6049
0.08 0.68 -0.13 -0.80 9.03 0.20 -0.09 -0.03 6056
0.08 0.65 -0.39 -1.91 9.61 0.12 -0.03 -0.02 6064
0.11 0.61 -0.15 -1.37 9.66 0.06 0.05 0.00 6071
0.09 0.53 0.13 -0.86 9.91 0.06 0.08 0.00 6078
0.10 0.50 0.38 -1.05 10.39 0.09 0.06 -0.01 6085
0.12 0.51 -0.04 -1.22 9.96 0.11 0.03 -0.01 6092
0.14 0.48 -0.09 -1.14 9.78 0.10 0.05 0.00 6099
0.16 0.43 0.17 -0.95 9.84 0.09 0.06 0.00 6107
0.17 0.40 0.02 -1.03 9.90 0.10 0.05 -0.01 6114
0.17 0.38 -0.11 -0.96 9.78 0.11 0.06 -0.01 6121
0.17 0.35 0.09 -0.94 9.89 0.11 0.07 -0.01 6128
0.18 0.29 0.15 -0.95 9.93 0.13 0.07 -0.01 6135
0.17 0.28 0.05 -1.00 9.85 0.15 0.05 -0.01 6142
0.17 0.28 0.04 -1.08 9.84 0.16 0.05 -0.01 6150
0.15 0.20 0.12 -1.07 9.89 0.16 0.05 -0.02 6157
0.17 0.16 0.06 -1.08 9.83 0.17 0.05 -0.02 6164
0.16 0.12 0.02 -1.09 9.77 0.18 0.05 -0.03 6171
0.16 0.14 0.09 -1.07 9.78 0.17 0.06 -0.02 6178
0.15 0.13 0.18 -1.17 9.66 0.16 0.07 -0.03 6185
0.17 0.10 0.18 -1.19 9.62 0.15 0.06 -0.03 6193
0.16 0.05 0.18 -1.17 9.52 0.12 0.07 -0.04 6200
0.16 0.05 0.19 -1.24 9.49 0.09 0.07 -0.04 6207
0.14 0.07 0.19 -1.25 9.49 0.06 0.07 -0.05 6214
0.15 0.05 0.23 -1.22 9.61 0.00 0.06 -0.05 6221
0.15 0.05 0.24 -1.24 9.56 0.01 0.06 -0.05 6228
0.16 0.05 0.20 -1.23 9.50 -0.02 0.05 -0.05 6236
0.15 0.06 0.13 -1.17 9.64 -0.03 0.05 -0.05 6243
0.15 0.04 0.18 -1.19 9.67 -0.04 0.05 -0.05 6250
0.14 0.05 0.18 -1.18 9.68 -0.04 0.04 -0.05 6257
0.15 0.06 0.17 -1.17 9.71 -0.05 0.04 -0.05 6264
0.16 0.07 0.17 -1.17 9.75 -0.04 0.03 -0.05 6272
0.15 0.07 0.17 -1.15 9.73 -0.04 0.02 -0.05 6279
0.14 0.08 0.18 -1.17 9.71 -0.04 0.02 -0.05 6286
0.14 0.07 0.18 -1.17 9.70 -0.04 0.02 -0.05 6293
0.14 0.09 0.16 -1.15 9.68 -0.05 0.01 -0.04 6300
0.15 0.09 0.11 -1.17 9.73 -0.05 0.00 -0.04 6307
0.16 0.10 0.16 -1.19 9.80 -0.05 -0.00 -0.04 6315
0.15 0.10 0.13 -1.16 9.72 -0.04 -0.01 -0.04 6322
0.16 0.09 0.14 -1.11 9.81 -0.03 -0.01 -0.05 6329
0.15 0.10 0.15 -1.10 9.78 -0.01 -0.02 -0.05 6336
0.15 0.11 0.09 -1.14 9.84 0.02 -0.02 -0.05 6343
0.16 0.12 0.06 -1.13 9.86 0.04 -0.01 -0.05 6350
0.18 0.10 0.13 -1.11 9.82 0.06 -0.01 -0.05 6358
0.17 0.09 0.11 -1.13 9.82 0.09 -0.01 -0.06 6365
0.17 0.09 0.08 -1.17 9.81 0.10 -0.01 -0.06 6372
0.16 0.09 0.10 -1.15 9.78 0.12 -0.02 -0.06 6379
0.18 0.07 0.17 -1.22 9.82 0.14 -0.02 -0.07 6386
0.18 0.04 0.25 -1.20 9.91 0.16 -0.04 -0.08 6393
0.21 0.04 0.24 -1.23 9.93 0.20 -0.05 -0.09 6401
0.20 0.04 0.24 -1.26 10.03 0.23 -0.06 -0.10 6408
0.21 -0.01 0.24 -1.34 10.08 0.27 -0.09 -0.12 6416
0.22 -0.01 0.34 -1.20 10.23 0.31 -0.13 -0.13 6423
0.24 -0.01 0.38 -1.27 10.34 0.35 -0.18 -0.16 6430
0.25 -0.00 0.40 -1.41 10.37 0.39 -0.26 -0.18 6437
0.27 -0.01 0.24 -1.72 10.33 0.44 -0.32 -0.23 6445
0.31 -0.02 0.68 -1.73 11.13 0.53 -0.39 -0.29 6452
0.35 -0.03 0.82 -1.59 11.33 0.67 -0.55 -0.37 6459
0.37 -0.02 0.84 -1.79 12.20 0.82 -0.63 -0.43 6466
0.41 -0.02 0.51 -1.98 13.56 1.09 -0.53 -0.47 6473
0.45 -0.03 -0.25 -1.77 13.36 1.38 -0.52 -0.45 6480
0.50 -0.04 -0.38 -2.38 13.35 1.58 -0.56 -0.42 6488
0.47 -0.03 -0.51 -1.81 13.52 1.81 -0.58 -0.38 6495
0.49 -0.02 -1.22 -1.98 14.07 2.04 -0.55 -0.34 6502
0.50 -0.03 -0.53 -2.11 14.62 2.34 -0.50 -0.31 6509
0.51 -0.03 -0.25 -1.92 15.41 2.65 -0.47 -0.29 6516
0.50 -0.03 0.10 -2.39 17.74 2.99 -0.54 -0.28 6523
0.52 -0.03 -0.19 -2.06 18.35 3.43 -0.72 -0.29 6531
0.56 -0.04 -0.01 -1.89 18.64 3.82 -0.82 -0.30 6538
0.45 -0.02 1.25 -2.37 18.25 4.19 -1.11 -0.34 6545
0.34 -0.01 4.94 -3.72 17.48 4.28 -1.76 -0.50 6552
0.29 -0.00 7.03 -4.63 17.08 4.28 -2.24 -0.88 6559
0.21 -0.02 7.78 -4.98 17.57 4.28 -2.78 -1.25 6566
0.16 -0.02 9.44 -5.59 17.83 4.28 -3.31 -1.71 6573
0.08 -0.01 10.87 -6.31 18.41 4.28 -3.54 -2.13 6581
0.11 -0.01 12.11 -7.26 18.99 4.28 -3.51 -2.64 6588
0.06 -0.01 13.31 -6.85 18.84 4.15 -3.30 -3.07 6595
0.01 -0.00 13.25 -7.79 17.97 3.60 -2.71 -3.45 6602
0.03 -0.00 13.71 -2.49 15.41 3.15 -2.34 -3.88 6609
0.01 -0.00 13.41 1.10 11.27 2.76 -2.27 -4.16 6617
0.00 0.00 13.71 4.31 9.44 2.44 -2.23 -4.28 6623
0.00 0.00 15.79 9.23 7.63 2.08 -2.09 -4.28 6630
0.00 0.00 22.38 3.94 4.22 1.72 -1.08 -2.47 6637
0.00 0.00 19.89 6.85 19.46 0.18 1.16 -1.01 6644
0.00 0.00 12.62 4.72 10.02 -0.77 0.98 0.13 6651
0.00 0.00 7.30 2.93 9.62 -1.12 0.10 1.08 6659
0.00 0.00 9.41 1.80 9.00 -1.20 -0.59 1.51 6666
0.00 0.00 10.92 2.72 7.77 -1.23 -0.63 1.55 6673
0.00 0.00 11.31 3.66 7.60 -1.35 0.06 1.25 6680
0.00 0.00 9.37 3.65 7.91 -1.57 0.77 0.75 6687
0.00 0.00 6.49 3.60 8.31 -1.81 1.32 0.25 6694
0.00 0.00 4.84 3.41 7.96 -1.98 1.56 -0.34 6702
0.00 0.00 4.09 3.07 7.94 -2.12 1.62 -0.79 6709
0.00 0.00 3.98 2.58 7.86 -2.18 1.77 -1.20 6716
0.00 0.00 3.94 2.12 7.81 -2.19 1.99 -1.46 6723
0.00 0.00 3.68 1.59 8.18 -2.15 2.29 -1.51 6730
0.00 0.00 3.07 1.26 8.92 -2.10 2.49 -1.39 6737
0.00 0.00 2.63 1.29 9.46 -2.04 2.62 -1.11 6745
0.00 0.00 2.11 1.37 9.83 -1.98 2.73 -0.63 6752
0.00 0.00 1.73 1.52 10.31 -1.94 2.86 -0.10 6759
-0.00 0.01 0.70 1.80 10.93 -1.92 2.98 0.34 6766
0.00 0.00 -0.36 1.95 11.75 -1.94 3.05 0.84 6773
0.00 0.00 -1.43 2.08 12.54 -2.01 3.04 1.21 6780
0.00 0.00 -2.40 2.21 13.04 -2.13 2.96 1.57 6788
0.00 0.00 -2.78 2.22 13.60 -2.25 2.87 1.83 6795
0.00 0.00 -3.17 2.02 14.15 -2.42 2.80 1.97 6802
0.00 0.00 -3.97 1.57 14.41 -2.59 2.78 2.05 6809
0.00 0.00 -5.19 1.14 14.14 -2.76 2.75 1.98 6816
0.00 0.00 -6.81 0.35 14.31 -2.84 2.65 1.80 6823
0.00 0.00 -7.16 -0.42 14.98 -2.86 2.53 1.44 6831
0.00 0.00 -6.79 -0.53 15.43 -2.88 2.37 1.09 6838
0.00 0.00 -6.44 -0.38 15.48 -2.89 2.33 0.73 6845
0.00 0.00 -6.72 -0.53 15.54 -2.93 2.34 0.43 6852
0.00 0.00 -7.39 -0.92 15.64 -2.95 2.30 0.24 6859
0.00 0.00 -7.80 -1.59 15.72 -2.93 2.14 0.11 6866
0.00 0.00 -7.76 -2.14 15.71 -2.88 2.02 0.04 6874
0.00 0.00 -7.76 -2.82 15.71 -2.81 1.93 -0.01 6881
0.00 0.00 -8.25 -3.55 15.63 -2.75 1.90 -0.10 6888
0.00 -0.00 -9.20 -4.28 15.47 -2.69 1.88 -0.23 6895
0.00 0.00 -10.04 -5.30 15.03 -2.62 1.84 -0.43 6902
0.00 0.00 -10.34 -6.08 14.55 -2.52 1.81 -0.64 6909
0.00 0.00 -10.57 -6.98 13.94 -2.40 1.82 -0.89 6917
0.00 0.00 -10.17 -8.80 12.05 -2.37 1.81 -1.12 6924
0.00 0.00 -7.89 -10.78 11.99 -2.38 1.36 -1.28 6931
0.00 0.00 -5.10 -13.61 11.34 -2.39 1.01 -1.33 6938
0.00 0.00 -3.60 -15.61 9.69 -2.36 1.02 -1.24 6945
0.00 0.00 -4.11 -17.87 8.17 -2.22 1.16 -1.14 6952
0.00 0.00 -5.68 -20.11 7.18 -1.96 1.23 -0.87 6960
0.00 0.00 -7.84 -21.34 6.61 -1.58 1.18 -0.52 6967
0.00 0.00 -9.55 -21.69 6.35 -1.18 0.95 0.04 6974
0.00 0.00 -10.69 -21.45 6.26 -0.89 0.68 0.75 6981
0.00 0.00 -11.66 -20.68 6.48 -0.60 0.35 1.48 6988
0.00 0.00 -11.89 -19.63 6.29 -0.40 0.08 2.36 6995
0.00 0.00 -52.87 -34.98 24.33 1.22 -4.17 3.52 7004
-0.00 0.02 -14.73 -21.19 -1.02 1.24 -4.28 4.28 7011
-0.00 0.05 -3.96 10.03 8.44 1.89 -4.28 4.28 7018
-0.03 0.40 -8.62 6.04 10.48 2.33 -1.46 4.28 7025
-0.07 0.87 -27.13 6.16 19.62 2.76 -1.20 4.17 7032
-0.07 1.03 -21.39 -4.55 17.78 3.63 -2.15 2.20 7040
-0.07 1.13 -18.49 -10.24 18.59 3.90 -0.65 1.23 7047
-0.07 1.19 -9.73 -6.40 18.79 3.45 -0.00 0.09 7054
-0.06 1.22 -1.50 -3.46 18.07 2.93 0.44 -0.40 7061
-0.06 1.22 2.90 -1.90 16.44 2.34 0.76 -0.32 7068
-0.07 1.15 2.26 -3.95 19.27 0.97 0.22 -0.02 7075
-0.07 1.05 -0.35 -2.89 12.87 0.10 0.04 0.03 7081
-0.05 1.04 0.04 -1.31 10.12 0.23 0.00 -0.01 7089
-0.02 0.87 0.40 -0.64 9.45 0.22 0.03 0.02 7096
0.03 0.78 0.09 -0.59 9.13 0.20 0.03 0.03 7103
0.02 0.73 0.16 -1.45 9.80 0.13 0.05 0.02 7110
0.03 0.75 0.68 -1.36 10.41 0.08 0.02 0.01 7117
0.08 0.69 0.74 -1.10 10.22 0.07 -0.06 -0.01 7124
0.09 0.61 0.24 -1.07 9.89 0.08 -0.10 -0.01 7132
0.11 0.60 -0.02 -1.00 9.82 0.06 -0.11 -0.01 7139
0.13 0.63 0.06 -0.88 9.96 0.04 -0.09 -0.01 7146
0.14 0.62 0.04 -0.75 10.02 0.05 -0.08 -0.01 7153
0.14 0.54 -0.03 -0.81 10.09 0.07 -0.07 -0.01 7160
0.12 0.54 -0.05 -0.80 10.17 0.11 -0.06 -0.00 7168
0.14 0.50 0.06 -0.81 9.86 0.13 -0.06 -0.00 7175
0.15 0.49 -0.02 -0.95 9.84 0.14 -0.06 -0.01 7182
0.14 0.47 0.04 -0.88 9.75 0.13 -0.06 -0.01 7189
0.14 0.42 0.08 -0.88 9.82 0.13 -0.05 -0.02 7196
0.14 0.33 0.06 -0.90 9.93 0.14 -0.06 -0.02 7203
0.13 0.35 0.02 -0.95 9.82 0.14 -0.06 -0.02 7211
0.14 0.35 0.07 -0.92 9.80 0.16 -0.06 -0.03 7218
0.16 0.28 0.07 -0.92 9.71 0.16 -0.07 -0.03 7225
0.17 0.27 0.19 -0.99 9.68 0.14 -0.08 -0.04 7232
0.16 0.23 0.25 -1.04 9.54 0.12 -0.09 -0.05 7239
0.17 0.22 0.21 -1.04 9.43 0.09 -0.10 -0.06 7246
0.17 0.20 0.17 -1.08 9.50 0.06 -0.10 -0.06 7254
0.16 0.24 0.10 -1.10 9.59 0.02 -0.10 -0.10 7261
0.19 0.23 0.08 -1.08 9.69 0.01 -0.09 -0.07 7268
0.19 0.21 0.01 -1.07 9.66 -0.00 -0.09 -0.07 7275
0.20 0.21 0.00 -1.05 9.61 -0.00 -0.08 -0.07 7282
0.17 0.22 -0.01 -1.04 9.56 -0.01 -0.07 -0.07 7289
0.17 0.23 -0.06 -1.03 9.60 -0.02 -0.05 -0.08 7297
0.18 0.25 -0.01 -1.08 9.52 -0.03 -0.03 -0.07 7304
0.19 0.25 -0.07 -1.01 9.57 -0.04 -0.02 -0.07 7311
0.17 0.26 -0.12 -1.05 10.33 -0.03 -0.01 -0.07 7319
0.15 0.27 -0.02 -1.07 9.77 -0.01 -0.00 -0.08 7325
0.15 0.27 0.01 -0.98 9.74 -0.01 0.01 -0.07 7332
0.19 0.27 -0.12 -1.00 9.60 0.01 0.03 -0.07 7340
0.22 0.25 -0.08 -1.04 9.67 0.04 0.06 -0.07 7347
0.25 0.22 -0.11 -1.03 9.70 0.06 0.09 -0.07 7354
0.25 0.19 -0.04 -1.06 9.83 0.09 0.15 -0.06 7361
0.25 0.17 -0.02 -1.01 9.96 0.11 0.16 -0.06 7368
0.25 0.15 0.07 -1.02 9.96 0.14 0.15 -0.06 7375
0.27 0.11 0.16 -1.05 10.12 0.17 0.13 -0.06 7384
0.28 0.10 0.23 -1.08 10.22 0.21 0.10 -0.07 7390
0.30 0.09 0.38 -1.09 10.22 0.25 0.03 -0.08 7397
0.33 0.02 0.51 -1.08 10.41 0.30 -0.07 -0.11 7405
0.38 -0.01 0.65 -1.10 10.53 0.36 -0.12 -0.13 7412
0.43 -0.01 0.81 -1.23 10.45 0.46 -0.26 -0.18 7419
0.46 -0.02 0.90 -1.40 10.92 0.51 -0.39 -0.24 7427
0.52 -0.02 0.91 -1.61 11.09 0.61 -0.55 -0.33 7434
0.54 -0.04 0.91 -1.54 11.34 0.73 -0.76 -0.42 7441
0.50 -0.03 0.52 -1.50 12.19 0.87 -0.80 -0.48 7447
0.55 -0.04 0.52 -1.87 12.52 1.08 -0.67 -0.52 7455
0.58 -0.03 -0.93 -1.53 14.09 1.39 -0.42 -0.48 7462
0.55 -0.03 -0.54 -1.58 13.92 1.68 -0.26 -0.43 7470
0.59 -0.04 -0.61 -1.60 14.90 1.91 -0.25 -0.38 7477
0.60 -0.03 -0.51 -1.85 14.74 2.22 -0.34 -0.33 7484
0.60 -0.04 -0.03 -2.00 17.09 2.57 -0.47 -0.30 7490
0.60 -0.04 0.58 -1.84 19.42 2.96 -0.74 -0.30 7498
0.60 -0.03 0.87 -2.36 18.98 3.46 -1.10 -0.33 7505
0.50 -0.02 0.38 -2.39 19.76 3.85 -1.31 -0.38 7513
0.50 -0.03 2.10 -2.77 19.80 4.18 -1.74 -0.42 7520
0.38 -0.01 7.09 -3.71 18.15 4.27 -2.54 -0.66 7527
0.27 -0.01 9.44 -5.50 18.26 4.28 -3.12 -1.15 7534
0.24 -0.02 11.56 -6.33 18.37 4.28 -3.45 -1.60 7541
0.14 -0.01 12.86 -6.95 19.09 4.26 -3.51 -2.20 7548
0.09 -0.00 13.45 -6.88 20.03 4.17 -3.42 -2.83 7556
0.08 -0.01 13.58 -6.39 20.54 3.90 -3.37 -3.28 7563
0.03 -0.00 13.20 -5.12 19.63 3.46 -3.41 -3.71 7570
0.03 -0.00 12.34 0.01 17.22 3.06 -3.61 -3.98 7576
0.00 0.00 14.50 3.37 13.93 2.79 -3.88 -3.98 7583
0.01 -0.00 21.72 5.59 9.87 2.53 -3.87 -2.97 7590
0.00 -0.00 28.27 6.36 8.94 2.40 -2.39 -0.93 7598
0.00 0.00 24.89 6.61 14.22 1.58 -0.19 0.56 7605
0.00 0.00 17.62 5.03 9.79 1.10 0.46 1.61 7612
0.00 0.00 11.12 5.49 10.76 0.85 0.57 2.49 7619
0.00 0.00 9.05 6.36 10.88 0.46 0.25 3.00 7626
0.01 -0.00 8.35 7.45 10.45 -0.12 -0.01 3.09 7633
0.01 -0.00 8.04 7.28 9.92 -0.58 0.06 2.85 7641
0.00 0.00 7.03 6.93 9.72 -1.01 0.33 2.39 7648
0.00 0.00 5.58 6.71 9.04 -1.34 0.71 1.66 7655
0.00 0.00 4.60 6.60 8.75 -1.63 0.99 0.83 7662
0.00 0.00 3.85 6.22 8.77 -1.92 1.28 0.12 7669
0.00 0.00 3.54 5.53 8.50 -2.14 1.54 -0.61 7676
0.00 0.00 3.19 4.73 8.46 -2.33 1.74 -1.13 7684
0.00 0.00 2.73 3.99 9.01 -2.44 1.94 -1.58 7691
0.00 0.00 2.64 3.54 9.68 -2.52 2.09 -1.85 7698
0.00 0.00 2.62 3.32 10.11 -2.62 2.25 -1.90 7705
0.00 0.00 2.33 3.05 10.72 -2.72 2.41 -1.78 7712
-0.00 0.01 1.74 2.63 11.01 -2.81 2.48 -1.52 7719
0.00 -0.00 1.27 1.97 10.94 -2.85 2.45 -1.18 7727
0.00 0.00 1.69 1.04 10.82 -2.83 2.40 -0.77 7734
0.00 0.00 2.68 0.22 11.04 -2.75 2.37 -0.45 7741
0.00 0.00 3.63 -0.51 11.25 -2.61 2.50 -0.18 7748
0.00 0.00 3.91 -0.80 11.78 -2.49 2.74 -0.03 7755
0.00 0.00 3.01 -0.68 12.41 -2.36 3.11 0.07 7762
0.00 0.00 1.06 -0.62 13.42 -2.27 3.42 0.11 7770
0.00 0.00 -0.97 -0.33 14.27 -2.21 3.54 0.10 7777
0.00 0.00 -2.82 -0.17 15.16 -2.14 3.58 0.05 7784
0.00 0.00 -3.93 -0.03 15.95 -2.18 3.52 -0.02 7791
0.00 0.00 -4.91 0.00 16.11 -2.25 3.41 -0.08 7798
0.00 0.00 -5.09 -0.18 16.10 -2.33 3.28 -0.11 7805
0.00 0.00 -5.00 -0.26 16.95 -2.41 3.15 -0.11 7813
0.00 0.00 -5.97 -0.27 17.44 -2.45 3.11 -0.08 7820
0.00 0.00 -7.64 -0.18 17.16 -2.46 3.15 -0.06 7827
0.00 0.00 -10.36 -0.61 17.18 -2.47 3.18 -0.08 7834
-0.00 0.00 -13.40 -1.43 17.13 -2.48 3.13 -0.15 7842
0.00 0.00 -15.79 -2.59 17.08 -2.49 3.03 -0.23 7848
0.00 0.00 -19.07 -3.93 16.83 -2.48 2.81 -0.30 7856
0.00 0.00 -21.53 -5.04 16.58 -2.44 2.49 -0.35 7863
0.00 0.00 -23.01 -5.91 16.03 -2.40 2.14 -0.31 7870
0.00 0.00 -22.98 -7.93 13.59 -2.47 1.68 -0.13 7877
-0.00 0.01 -18.34 -11.13 12.81 -2.63 0.97 0.10 7885
0.00 0.00 -12.86 -14.30 12.18 -2.76 0.08 0.38 7891
0.00 0.00 -8.49 -17.13 9.49 -2.67 -0.13 0.87 7899
0.00 0.00 -6.11 -18.83 7.59 -2.34 -0.03 1.33 7906
0.00 0.00 -4.79 -20.15 6.62 -1.89 0.17 1.80 7913
0.00 0.00 -4.59 -20.13 6.02 -1.50 0.31 2.17 7920
-0.00 0.00 -5.27 -19.15 5.88 -1.12 0.41 2.41 7927
0.00 0.00 -6.55 -17.67 5.66 -0.85 0.48 2.62 7934
0.00 0.00 -7.72 -16.26 4.92 -0.58 0.53 2.76 7942
0.00 0.00 -11.99 -20.25 1.79 -0.32 0.50 2.88 7949
0.00 0.00 -34.97 -30.31 3.91 1.22 -3.45 3.24 7956
0.00 0.02 -13.05 -27.96 -4.31 1.77 -4.28 3.12 7964
0.00 0.08 -11.47 -20.98 9.94 2.82 -4.28 3.00 7971
-0.02 0.48 -21.06 2.14 26.63 3.69 -2.20 3.43 7979
-0.07 0.88 -17.50 2.33 24.08 3.79 -0.60 2.76 7986
-0.07 1.00 -12.20 -4.00 25.07 4.00 -0.82 1.34 7993
-0.07 1.12 -11.69 -8.45 21.95 3.65 -0.56 0.61 8000
-0.06 1.10 -0.06 -5.29 23.33 3.14 -0.01 0.13 8007
-0.05 1.04 3.52 -0.33 13.39 0.54 -0.97 -0.00 8014
-0.06 1.03 -0.15 -3.75 13.12 -0.04 -0.47 0.10 8022
-0.05 0.94 -0.57 -1.05 9.44 0.12 -0.31 0.03 8028
-0.01 0.87 -0.06 0.06 9.56 0.13 -0.16 0.03 8035
0.01 0.78 -0.01 -0.58 9.41 0.20 -0.09 0.02 8042
0.01 0.73 0.15 -1.72 9.41 0.16 -0.00 0.01 8049
0.05 0.68 -0.01 -1.48 9.73 0.10 0.04 0.01 8056
0.06 0.66 -0.11 -0.74 9.81 0.12 0.10 0.02 8064
0.10 0.55 0.47 -0.85 10.44 0.14 0.13 0.02 8071
0.10 0.57 0.69 -0.86 10.34 0.19 0.09 0.02 8078
0.11 0.50 0.24 -1.21 9.82 0.19 0.06 0.01 8085
0.12 0.47 0.30 -0.92 9.58 0.14 0.07 0.01 8092
0.17 0.42 0.39 -0.92 10.02 0.13 0.08 0.00 8099
0.16 0.37 0.29 -0.90 9.99 0.14 0.07 0.00 8107
0.16 0.30 0.33 -0.83 9.97 0.15 0.08 0.00 8114
0.16 0.29 0.38 -0.86 10.03 0.16 0.07 -0.01 8121
0.16 0.24 0.29 -0.82 9.90 0.19 0.06 -0.01 8128
0.16 0.19 0.35 -1.01 9.77 0.21 0.06 -0.01 8135
0.20 0.17 0.38 -0.93 9.77 0.20 0.05 -0.01 8142
0.19 0.13 0.32 -0.95 9.82 0.20 0.05 -0.01 8150
0.18 0.09 0.40 -1.01 9.81 0.20 0.06 -0.02 8157
0.16 0.06 0.51 -1.03 9.75 0.21 0.06 -0.02 8164
0.19 0.04 0.48 -1.08 9.64 0.20 0.06 -0.03 8171
0.19 0.04 0.45 -1.13 9.50 0.18 0.05 -0.03 8178
0.20 0.04 0.39 -1.14 9.44 0.14 0.07 -0.03 8185
0.19 0.03 0.48 -1.18 9.46 0.07 0.08 -0.04 8193
0.19 -0.00 0.52 -1.19 9.42 0.06 0.08 -0.04 8200
0.17 0.01 0.57 -1.21 9.41 0.00 0.08 -0.04 8207
0.17 0.02 0.58 -1.17 9.47 -0.04 0.07 -0.05 8214
0.18 0.00 0.55 -1.18 9.55 -0.07 0.06 -0.05 8221
0.17 0.00 0.53 -1.18 9.58 -0.09 0.04 -0.05 8228
0.15 0.01 0.54 -1.08 9.62 -0.11 0.03 -0.06 8236
0.15 0.01 0.49 -1.10 9.64 -0.11 0.02 -0.06 8243
0.14 0.03 0.44 -1.13 9.59 -0.12 0.01 -0.06 8250
0.14 0.05 0.39 -1.09 9.69 -0.14 0.00 -0.05 8257
0.16 0.09 0.39 -1.05 9.74 -0.15 -0.01 -0.05 8264
0.14 0.17 0.39 -1.04 9.69 -0.15 -0.01 -0.05 8271
0.14 0.14 0.34 -1.00 9.77 -0.14 -0.01 -0.04 8279
0.11 0.16 0.38 -0.99 9.75 -0.12 -0.02 -0.04 8286
0.13 0.20 0.37 -0.95 9.85 -0.10 -0.02 -0.04 8293
0.12 0.23 0.35 -0.96 9.79 -0.07 -0.03 -0.04 8300
0.13 0.22 0.37 -0.97 9.82 -0.06 -0.03 -0.04 8307
0.13 0.24 0.40 -0.93 9.77 -0.04 -0.03 -0.03 8314
0.13 0.20 0.35 -0.93 9.75 -0.03 -0.04 -0.04 8322
0.13 0.20 0.39 -0.93 9.82 -0.01 -0.04 -0.04 8329
0.13 0.22 0.37 -0.98 9.75 0.00 -0.05 -0.04 8336
0.14 0.24 0.37 -0.91 9.75 0.03 -0.05 -0.04 8343
0.16 0.23 0.32 -0.98 10.40 0.05 -0.05 -0.05 8350
0.15 0.21 0.34 -1.00 9.76 0.07 -0.05 -0.05 8357
0.14 0.19 0.35 -1.00 9.77 0.09 -0.06 -0.05 8365
0.14 0.18 0.38 -0.99 9.75 0.11 -0.06 -0.06 8372
0.14 0.17 0.29 -1.02 9.81 0.13 -0.07 -0.06 8379
0.17 0.16 0.32 -1.10 9.81 0.14 -0.07 -0.07 8386
0.18 0.16 0.31 -1.08 9.75 0.16 -0.06 -0.07 8393
0.18 0.14 0.34 -1.11 9.81 0.17 -0.04 -0.08 8400
0.19 0.10 0.38 -1.07 9.75 0.18 -0.02 -0.09 8408
0.20 0.09 0.27 -1.11 9.81 0.19 -0.00 -0.10 8415
0.21 0.05 0.34 -1.11 9.86 0.21 0.01 -0.10 8422
0.25 0.01 0.36 -1.14 9.93 0.23 0.03 -0.11 8429
0.24 0.02 0.34 -1.12 10.03 0.26 0.04 -0.12 8436
0.26 -0.01 0.49 -1.16 10.23 0.31 0.05 -0.13 8444
0.25 -0.02 0.70 -1.10 10.33 0.34 0.03 -0.15 8451
0.27 -0.01 0.78 -1.71 10.39 0.40 0.00 -0.16 8458
0.27 -0.01 0.63 -1.41 10.55 0.45 -0.03 -0.19 8466
0.35 -0.02 0.81 -1.72 10.83 0.52 -0.05 -0.23 8473
0.36 -0.03 1.32 -1.66 12.64 0.69 -0.05 -0.30 8480
0.36 -0.04 0.71 -1.59 13.99 1.07 -0.01 -0.38 8486
0.31 -0.03 0.58 -1.65 13.17 1.40 -0.10 -0.38 8495
0.30 -0.02 0.62 -1.85 13.32 1.60 -0.20 -0.39 8501
0.32 -0.01 0.65 -1.75 13.53 1.78 -0.31 -0.40 8509
0.32 -0.02 1.04 -1.87 15.16 2.02 -0.40 -0.39 8516
0.35 -0.03 1.33 -2.00 16.84 2.37 -0.60 -0.41 8523
0.35 -0.03 1.40 -2.27 17.44 2.78 -0.85 -0.44 8530
0.35 -0.02 2.09 -2.47 16.13 3.15 -1.16 -0.49 8538
0.35 -0.02 1.75 -1.63 16.91 3.39 -1.23 -0.60 8545
0.35 -0.02 1.80 -3.02 18.11 3.69 -1.39 -0.65 8552
0.32 -0.02 6.13 -3.93 17.20 3.98 -2.01 -0.81 8559
0.24 -0.02 8.77 -5.33 16.88 4.07 -2.40 -1.21 8566
0.16 -0.02 9.23 -6.05 17.87 4.13 -2.67 -1.64 8572
0.10 -0.00 9.79 -5.53 18.69 4.17 -2.98 -2.10 8581
0.06 -0.00 10.08 -5.91 19.41 4.17 -3.19 -2.54 8588
0.11 -0.01 10.41 -5.66 20.15 4.13 -3.44 -2.91 8595
0.04 -0.00 10.55 -4.64 20.71 4.02 -3.59 -3.27 8602
0.03 -0.00 9.11 -4.26 21.25 3.76 -3.76 -3.58 8608
0.02 -0.00 7.19 -1.14 20.90 3.46 -4.27 -3.80 8615
0.00 0.00 7.39 2.61 17.78 2.96 -4.28 -3.78 8623
0.00 0.00 9.44 5.11 14.98 2.45 -4.28 -3.45 8630
0.00 0.00 24.91 9.30 8.27 2.06 -4.28 -1.80 8637
0.00 0.00 23.74 7.15 15.37 1.48 -3.54 0.12 8644
0.00 0.00 26.36 8.44 10.26 0.17 -1.08 1.26 8651
0.00 0.00 18.58 7.02 9.98 -0.20 0.14 2.31 8658
0.00 0.00 12.50 5.82 10.03 -0.49 0.63 2.91 8666
0.00 0.00 9.87 5.68 9.63 -0.58 0.43 3.31 8673
0.00 0.00 9.94 6.33 9.25 -0.70 0.26 3.40 8680
0.00 0.00 9.94 6.80 9.37 -0.89 0.42 3.24 8687
0.00 0.00 9.07 7.01 9.52 -1.10 0.76 2.86 8694
0.00 0.00 7.04 6.95 9.54 -1.39 1.17 2.40 8701
0.00 0.00 4.65 6.77 9.75 -1.65 1.42 1.76 8709
-0.00 0.00 3.66 6.43 9.97 -1.94 1.52 1.18 8716
0.00 0.00 3.35 6.06 10.10 -2.21 1.62 0.47 8723
0.00 0.00 3.53 5.42 10.26 -2.42 1.82 -0.21 8730
0.00 0.00 3.30 4.68 10.21 -2.63 2.18 -0.73 8737
0.00 0.00 2.44 3.83 10.20 -2.76 2.57 -1.21 8744
0.00 0.00 1.40 3.10 10.33 -2.84 2.88 -1.52 8752
0.00 0.00 -0.28 2.66 10.69 -2.82 3.16 -1.75 8759
0.00 0.00 -1.80 2.39 11.28 -2.75 3.33 -1.85 8766
0.00 0.00 -2.11 2.15 11.81 -2.66 3.48 -1.82 8773
0.00 0.00 -2.78 1.63 12.64 -2.59 3.54 -1.70 8780
0.00 0.00 -3.26 1.21 13.33 -2.54 3.46 -1.51 8787
0.00 0.00 -3.60 0.65 13.45 -2.51 3.29 -1.37 8795
0.00 0.00 -3.31 0.26 13.57 -2.48 3.13 -1.23 8802
0.00 0.00 -2.53 -0.08 14.07 -2.46 3.07 -1.15 8809
0.00 0.00 -2.24 -0.70 14.20 -2.44 3.16 -1.12 8816
0.00 0.00 -2.53 -1.09 14.36 -2.37 3.29 -1.10 8823
0.00 0.00 -3.28 -1.41 14.89 -2.31 3.41 -1.08 8830
-0.00 0.00 -4.30 -1.54 15.75 -2.26 3.47 -1.07 8838
0.01 -0.00 -5.22 -1.46 16.44 -2.26 3.46 -1.06 8845
0.00 0.00 -6.42 -1.30 16.98 -2.35 3.43 -1.05 8852
0.00 0.00 -7.63 -1.42 17.50 -2.46 3.38 -1.07 8859
0.00 0.00 -9.32 -1.77 17.57 -2.61 3.29 -1.09 8866
0.00 0.00 -11.20 -2.15 17.24 -2.71 3.15 -1.14 8873
0.00 0.00 -12.90 -2.62 17.00 -2.79 2.99 -1.19 8881
0.00 0.00 -14.77 -3.23 16.55 -2.81 2.77 -1.26 8888
0.00 0.00 -16.21 -3.91 16.01 -2.82 2.59 -1.33 8895
0.00 0.00 -17.44 -4.70 14.22 -2.83 2.37 -1.37 8902
0.00 0.00 -14.87 -8.01 11.80 -2.93 1.88 -1.43 8909
0.00 0.00 -11.35 -10.45 12.50 -3.02 1.05 -1.51 8916
0.00 0.00 -7.69 -12.89 11.17 -2.93 0.70 -1.42 8924
0.00 0.00 -5.78 -14.44 9.29 -2.70 1.00 -1.18 8931
0.00 0.00 -5.98 -15.71 8.63 -2.34 1.30 -0.89 8938
0.00 0.00 -7.72 -17.03 8.49 -1.91 1.42 -0.47 8945
0.00 0.00 -8.78 -17.43 8.36 -1.56 1.26 0.01 8952
0.00 0.00 -8.81 -17.20 8.12 -1.21 0.95 0.47 8960
0.00 0.00 -8.20 -16.58 7.83 -0.98 0.69 1.00 8967
0.00 0.00 -8.14 -15.69 6.75 -0.77 0.59 1.45 8974
0.00 0.00 -9.12 -14.37 6.95 -0.58 0.60 1.97 8981
0.00 0.00 -10.65 -13.02 7.01 -0.42 0.56 2.48 8988
0.00 0.00 -12.01 -12.02 7.03 -0.27 0.34 2.89 8995
0.00 0.00 -11.80 -11.01 6.66 -0.20 -0.02 3.31 9003
0.00 0.01 -56.35 -27.99 18.19 1.35 -4.27 3.97 9011
-0.00 0.01 -12.93 -19.37 -2.15 1.33 -4.28 3.88 9018
-0.00 0.05 -6.03 -7.54 6.67 1.96 -4.28 3.62 9024
-0.03 0.29 -28.40 15.51 32.09 3.02 -4.06 3.94 9032
-0.06 0.74 -19.08 5.63 24.34 2.98 -1.40 3.43 9039
-0.07 1.04 -16.49 -3.76 23.17 3.28 -1.95 1.90 9047
-0.06 1.07 -16.34 -8.99 15.97 3.38 -1.52 0.83 9054
-0.07 1.11 -4.56 -3.92 16.26 3.44 -0.28 0.17 9061
-0.07 1.03 -0.45 -8.24 36.81 2.18 -0.18 0.13 9068
-0.04 1.01 -0.11 -1.71 8.99 -0.33 -0.38 0.08 9074
-0.03 0.98 -1.21 -3.83 11.05 -0.06 -0.25 -0.00 9082
-0.02 0.91 0.09 -0.33 11.05 0.10 -0.12 0.04 9089
0.03 0.83 -0.16 0.26 8.94 0.26 -0.12 0.03 9096
0.01 0.72 -0.20 -0.89 8.61 0.19 -0.06 0.01 9103
0.03 0.69 0.13 -1.42 9.35 0.07 0.02 -0.01 9110
0.03 0.71 0.03 -1.26 9.67 -0.01 0.07 -0.02 9117
0.05 0.78 0.03 -1.08 9.79 -0.06 0.11 -0.01 9124
0.06 0.77 0.14 -0.99 10.02 -0.06 0.12 -0.01 9132
0.06 0.75 0.10 -0.98 9.88 -0.05 0.12 0.00 9139
0.05 0.73 0.26 -0.87 9.75 -0.05 0.13 -0.00 9146
0.06 0.74 0.24 -0.84 9.74 -0.07 0.13 -0.01 9153
0.05 0.76 0.24 -0.86 9.83 -0.09 0.13 -0.01 9160
0.05 0.79 0.24 -0.73 9.87 -0.07 0.12 -0.01 9167
0.05 0.81 0.13 -0.73 9.83 -0.06 0.11 -0.01 9175
0.05 0.80 0.15 -0.77 9.89 -0.04 0.10 -0.01 9182
0.04 0.80 0.30 -0.72 9.94 -0.02 0.08 -0.00 9189
0.04 0.79 0.29 -0.69 9.89 0.01 0.05 -0.01 9196
0.03 0.81 0.17 -0.77 9.88 0.03 0.03 -0.01 9203
0.04 0.79 0.21 -0.74 9.82 0.05 0.02 -0.01 9210
0.06 0.75 0.20 -0.75 9.80 0.06 0.01 -0.01 9218
0.06 0.69 0.19 -0.74 9.73 0.07 0.01 -0.02 9225
0.03 0.70 0.24 -0.78 9.57 0.07 0.01 -0.01 9232
0.04 0.65 0.24 -0.81 9.57 0.06 0.01 -0.02 9239
0.05 0.64 0.29 -0.83 9.56 0.04 0.01 -0.03 9246
0.05 0.64 0.25 -0.81 9.55 0.02 0.01 -0.03 9253
0.04 0.64 0.28 -0.80 9.61 -0.03 0.00 -0.03 9261
0.04 0.64 0.25 -0.84 9.70 -0.01 0.00 -0.03 9268
0.03 0.66 0.21 -0.78 9.74 -0.01 -0.00 -0.03 9275
0.02 0.67 0.26 -0.78 9.71 -0.01 -0.00 -0.03 9282
0.03 0.67 0.21 -0.82 9.70 -0.00 -0.01 -0.03 9289
0.04 0.68 0.17 -0.82 9.65 -0.00 -0.01 -0.03 9296
0.05 0.67 0.18 -0.77 9.66 0.00 -0.02 -0.03 9304
0.05 0.68 0.18 -0.79 9.69 0.01 -0.02 -0.03 9311
0.05 0.67 0.14 -0.82 9.69 0.01 -0.03 -0.03 9318
0.04 0.67 0.11 -0.81 9.71 0.01 -0.03 -0.04 9325
0.04 0.68 0.17 -0.80 9.73 0.02 -0.05 -0.03 9332
0.05 0.69 0.15 -0.82 9.75 0.03 -0.05 -0.04 9339
0.07 0.64 0.15 -0.82 9.74 0.03 -0.07 -0.04 9347
0.06 0.59 0.04 -0.80 9.79 0.04 -0.07 -0.04 9354
0.07 0.59 0.13 -0.85 9.85 0.05 -0.07 -0.04 9361
0.06 0.58 0.08 -0.80 9.81 0.06 -0.07 -0.03 9368
0.08 0.57 0.09 -0.73 9.52 0.08 -0.08 -0.04 9375
0.09 0.49 0.13 -0.81 9.84 0.11 -0.08 -0.04 9382
0.10 0.44 0.06 -0.86 9.83 0.13 -0.08 -0.04 9390
0.11 0.41 0.09 -0.81 9.75 0.15 -0.09 -0.04 9397
0.12 0.39 0.00 -0.84 9.70 0.16 -0.09 -0.05 9404
0.11 0.32 0.01 -0.92 9.73 0.17 -0.08 -0.05 9411
0.11 0.30 0.03 -0.88 9.81 0.19 -0.08 -0.06 9418
0.14 0.21 0.04 -0.93 9.94 0.21 -0.09 -0.06 9425
0.16 0.19 0.14 -0.99 9.87 0.22 -0.09 -0.06 9433
0.17 0.16 0.03 -1.03 9.98 0.24 -0.10 -0.07 9440
0.18 0.11 0.03 -1.06 9.93 0.25 -0.12 -0.07 9447
0.18 0.08 0.18 -1.04 9.92 0.27 -0.15 -0.08 9454
0.21 0.05 0.22 -1.00 10.06 0.29 -0.19 -0.10 9461
0.24 0.03 0.10 -1.18 9.76 0.30 -0.22 -0.11 9468
0.31 0.01 0.22 -1.14 10.09 0.33 -0.24 -0.13 9477
0.32 -0.02 0.11 -1.30 10.02 0.35 -0.25 -0.14 9484
0.35 -0.02 0.12 -1.53 10.27 0.40 -0.26 -0.20 9491
0.37 -0.02 0.35 -1.51 10.23 0.46 -0.29 -0.22 9498
0.39 -0.02 1.06 -1.47 11.08 0.55 -0.37 -0.27 9505
0.40 -0.03 0.33 -1.59 11.64 0.67 -0.53 -0.32 9512
0.42 -0.03 -0.01 -1.62 12.69 0.88 -0.71 -0.34 9520
0.46 -0.04 -0.35 -1.48 15.29 1.23 -0.74 -0.27 9527
0.46 -0.03 0.70 -1.59 14.56 1.59 -0.39 -0.33 9534
0.48 -0.02 -0.03 -1.49 17.60 1.89 -0.44 -0.34 9541
0.50 -0.03 0.12 -1.61 17.96 2.37 -0.64 -0.31 9548
0.51 -0.04 0.70 -1.83 16.61 2.81 -0.90 -0.32 9555
0.51 -0.04 0.17 -1.61 17.25 3.10 -0.99 -0.35 9563
0.46 -0.03 0.30 -2.29 18.68 3.42 -1.23 -0.35 9570
0.39 -0.02 4.00 -3.00 17.52 3.69 -1.85 -0.43 9577
0.31 -0.02 5.99 -3.27 15.97 3.87 -2.19 -0.68 9584
0.21 -0.01 6.38 -4.15 16.39 3.93 -2.52 -1.08 9591
0.17 -0.01 8.06 -5.07 16.99 3.95 -2.91 -1.46 9598
0.15 -0.01 8.99 -5.61 17.38 3.98 -3.18 -1.84 9606
0.08 -0.01 9.01 -6.10 18.42 3.94 -3.28 -2.27 9612
0.04 -0.00 8.72 -4.89 18.91 3.81 -3.43 -2.61 9619
0.04 0.00 8.27 -4.06 19.17 3.54 -3.74 -2.95 9626
0.06 -0.01 8.20 -2.54 17.74 3.28 -4.07 -3.17 9633
0.06 -0.01 8.18 -0.83 16.76 3.03 -4.27 -3.30 9640
0.04 -0.00 8.30 1.46 15.17 2.72 -4.28 -3.29 9648
0.01 -0.00 12.01 4.12 11.69 2.28 -4.28 -2.83 9656
0.03 -0.00 26.43 6.17 6.65 2.00 -3.71 -1.06 9662
0.02 -0.00 24.15 5.25 15.06 1.29 -0.76 0.46 9669
0.03 -0.00 20.11 4.95 8.51 0.52 0.47 1.39 9676
0.00 -0.00 11.52 4.14 9.72 0.26 1.05 2.34 9683
0.01 -0.00 8.40 3.99 10.19 0.01 0.79 2.91 9691
0.00 0.00 7.09 4.54 9.63 -0.29 0.24 3.15 9698
0.00 -0.00 7.47 4.92 9.19 -0.54 -0.02 3.13 9705
0.02 -0.00 7.72 5.08 8.89 -0.82 0.13 2.89 9712
0.02 -0.00 6.71 4.97 8.86 -1.08 0.56 2.45 9719
0.01 -0.00 5.19 4.62 8.90 -1.29 0.94 1.89 9726
0.01 -0.00 3.29 4.42 9.13 -1.51 1.20 1.37 9734
0.00 0.00 2.38 4.33 9.22 -1.70 1.29 0.81 9741
0.00 0.00 2.30 4.19 9.21 -1.93 1.35 0.38 9748
0.00 0.00 2.47 3.98 9.48 -2.15 1.49 -0.03 9755
0.00 0.00 2.27 3.48 9.74 -2.34 1.69 -0.30 9762
0.00 0.00 1.85 2.95 9.95 -2.56 1.88 -0.44 9769
0.00 0.00 1.46 2.28 10.15 -2.72 1.97 -0.51 9777
0.00 0.00 1.31 1.61 10.21 -2.84 2.00 -0.49 9784
0.00 0.00 1.28 0.90 10.38 -2.89 2.04 -0.39 9791
0.00 0.00 1.39 0.01 10.77 -2.89 2.08 -0.25 9798
0.00 0.00 1.53 -0.49 10.95 -2.85 2.13 -0.13 9805
0.00 0.00 1.68 -1.06 11.21 -2.81 2.25 -0.02 9812
0.00 0.00 1.63 -1.38 11.50 -2.77 2.38 0.06 9820
0.00 0.00 1.33 -1.66 11.83 -2.73 2.51 0.09 9827
0.00 0.00 0.77 -2.02 11.98 -2.71 2.65 0.06 9834
0.00 0.00 -0.05 -2.43 12.23 -2.67 2.73 0.01 9841
0.00 0.00 -0.84 -2.68 12.45 -2.62 2.80 -0.11 9848
0.00 0.00 -1.38 -2.69 12.86 -2.56 2.87 -0.28 9856
0.00 0.00 -2.22 -2.52 13.19 -2.52 2.95 -0.41 9863
0.00 0.00 -3.31 -2.19 13.38 -2.49 3.04 -0.55 9870
-0.00 0.00 -4.23 -2.15 13.51 -2.47 3.01 -0.62 9877
0.00 0.00 -4.70 -2.31 13.93 -2.45 2.91 -0.69 9884
0.00 0.00 -4.64 -2.35 14.51 -2.43 2.74 -0.75 9891
0.00 0.00 -4.52 -2.48 14.73 -2.39 2.68 -0.80 9899
0.00 0.00 -5.39 -2.57 14.95 -2.35 2.76 -0.89 9906
0.00 0.00 -6.63 -2.78 15.03 -2.31 2.87 -0.98 9913
0.00 0.00 -8.49 -3.22 15.37 -2.31 2.92 -1.10 9920
0.00 0.00 -10.25 -3.52 15.44 -2.31 2.90 -1.21 9927
0.00 0.00 -12.45 -3.67 15.11 -2.32 2.78 -1.25 9934
0.00 0.00 -14.80 -3.92 14.68 -2.31 2.61 -1.23 9942
0.00 0.00 -16.59 -4.07 14.13 -2.30 2.35 -1.16 9949
0.00 0.00 -17.85 -4.52 13.79 -2.28 1.93 -1.02 9956
0.00 0.00 -16.92 -6.19 11.42 -2.31 1.40 -0.82 9963
0.00 0.00 -12.36 -8.83 10.66 -2.41 0.57 -0.72 9970
0.00 0.00 -7.12 -11.33 10.30 -2.37 -0.15 -0.60 9977
0.00 0.00 -3.50 -12.50 8.70 -2.20 -0.05 -0.40 9985
0.00 0.00 -1.75 -13.18 8.04 -1.86 0.47 -0.23 9992
0.00 0.00 -3.14 -13.76 8.05 -1.56 0.91 0.02 9999
0.00 -0.00 -4.90 -13.95 8.04 -1.24 1.02 0.30 10006
0.00 0.00 -6.45 -13.75 8.04 -0.94 0.84 0.71 10013
0.00 0.00 -7.05 -13.37 7.60 -0.75 0.63 1.21 10020
0.00 0.00 -7.47 -13.07 7.19 -0.50 0.52 1.67 10028
0.00 0.00 -8.10 -12.97 7.15 -0.30 0.57 2.24 10035
0.00 0.00 -8.73 -12.53 7.76 -0.10 0.62 2.74 10042
0.01 0.00 -47.17 -33.34 28.63 1.48 -3.34 3.52 10050
-0.00 0.01 -13.45 -21.87 -0.03 1.62 -4.28 3.84 10057
-0.00 0.02 -2.20 -9.92 3.63 2.32 -4.28 3.59 10063
-0.02 0.19 -18.03 11.92 18.26 2.87 -3.61 3.68 10072
-0.05 0.62 -20.05 5.69 27.52 2.90 -1.57 3.19 10079
-0.07 1.06 -15.59 1.45 18.03 3.03 -2.10 1.87 10086
-0.07 1.18 -17.66 -9.45 22.38 3.52 -1.61 0.57 10093
-0.08 1.22 -8.40 -4.87 15.63 3.55 -1.04 -0.21 10100
-0.07 1.27 0.82 -2.01 18.09 3.26 -0.32 -0.47 10107
-0.08 1.23 2.73 -4.74 25.85 2.59 0.13 -0.22 10115
-0.06 1.18 3.22 -1.08 13.77 0.42 -0.62 -0.08 10122
-0.04 1.11 -0.37 -3.36 13.28 -0.00 -0.28 0.04 10129
-0.03 1.06 -0.36 -1.59 10.15 0.11 -0.20 0.03 10135
-0.03 0.98 0.54 -0.14 9.66 0.14 -0.13 0.03 10142
0.01 0.90 -0.55 -0.58 9.09 0.17 -0.11 0.02 10149
0.02 0.85 0.04 -1.11 9.41 0.10 -0.06 0.01 10157
0.04 0.80 0.16 -1.22 9.82 0.05 -0.03 0.00 10164
0.05 0.81 0.13 -1.03 9.95 0.03 -0.01 0.00 10171
0.04 0.78 0.17 -0.93 9.90 0.02 0.01 0.00 10178
0.03 0.78 0.34 -0.93 9.93 0.02 0.02 -0.01 10185
0.03 0.76 0.25 -0.82 9.84 0.03 0.01 -0.01 10192
0.04 0.75 0.16 -0.80 9.81 0.03 0.01 -0.01 10200
0.03 0.75 0.09 -0.77 9.82 0.03 0.02 -0.01 10207
0.05 0.73 0.22 -0.74 9.88 0.03 0.02 -0.01 10214
0.05 0.74 0.19 -0.73 9.95 0.05 0.01 -0.01 10221
0.04 0.71 0.10 -0.73 9.83 0.06 0.00 -0.01 10228
0.05 0.75 0.20 -0.79 9.82 0.06 -0.01 -0.01 10235
0.05 0.66 0.18 -0.77 9.83 0.07 -0.01 -0.01 10243
0.05 0.66 0.17 -0.76 9.83 0.07 -0.02 -0.01 10250
0.06 0.65 0.13 -0.83 9.78 0.07 -0.02 -0.02 10257
0.04 0.62 0.12 -0.80 9.81 0.08 -0.03 -0.02 10264
0.04 0.59 0.18 -0.78 9.70 0.09 -0.02 -0.02 10271
0.04 0.56 0.18 -0.86 9.61 0.08 -0.02 -0.03 10278
0.05 0.54 0.23 -0.86 9.56 0.06 -0.03 -0.03 10286
0.05 0.53 0.25 -0.85 9.47 0.05 -0.03 -0.04 10293
0.07 0.56 0.26 -0.90 9.49 0.02 -0.03 -0.04 10300
0.08 0.55 0.18 -0.87 9.55 -0.01 -0.02 -0.04 10307
0.09 0.58 0.18 -0.81 9.58 -0.02 -0.02 -0.04 10314
0.04 0.63 0.23 -0.88 9.69 -0.03 -0.02 -0.04 10321
0.06 0.63 0.20 -0.89 9.67 -0.04 -0.02 -0.04 10329
0.09 0.64 0.13 -0.85 9.66 -0.04 -0.01 -0.04 10336
0.09 0.65 0.11 -0.83 9.70 -0.04 -0.01 -0.04 10343
0.07 0.68 0.10 -0.86 9.76 -0.05 -0.01 -0.04 10350
0.07 0.67 0.15 -0.84 9.73 -0.04 -0.01 -0.04 10357
0.08 0.68 0.17 -0.82 9.77 -0.03 -0.02 -0.04 10364
0.06 0.70 0.11 -0.82 9.76 -0.02 -0.02 -0.04 10372
0.07 0.69 0.12 -0.80 9.81 -0.01 -0.01 -0.04 10379
0.07 0.70 0.06 -0.80 9.66 0.01 -0.00 -0.03 10386
0.05 0.70 0.21 -0.89 9.58 0.03 0.00 -0.04 10393
0.08 0.67 0.11 -0.87 9.79 0.05 0.01 -0.04 10400
0.08 0.66 0.07 -0.84 9.69 0.07 0.00 -0.04 10407
0.12 0.62 0.06 -0.84 9.73 0.10 0.00 -0.04 10415
0.13 0.54 0.09 -0.80 9.66 0.11 0.01 -0.04 10422
0.11 0.50 0.09 -0.86 9.75 0.13 0.01 -0.05 10429
0.13 0.37 0.13 -0.83 9.82 0.16 -0.00 -0.05 10436
0.12 0.32 0.12 -0.87 9.85 0.19 -0.02 -0.05 10443
0.13 0.26 0.19 -0.84 9.83 0.23 -0.04 -0.06 10450
0.15 0.25 0.27 -0.88 9.95 0.26 -0.06 -0.07 10458
0.16 0.21 0.29 -0.92 9.84 0.29 -0.08 -0.09 10465
0.17 0.15 0.22 -0.95 10.08 0.32 -0.09 -0.10 10472
0.21 0.11 0.30 -1.00 10.18 0.35 -0.12 -0.11 10480
0.22 0.06 0.24 -1.11 10.18 0.40 -0.15 -0.12 10487
0.24 0.02 0.18 -1.17 10.15 0.44 -0.17 -0.14 10494
0.28 0.00 0.16 -1.35 10.27 0.47 -0.18 -0.17 10502
0.34 -0.02 0.10 -1.36 10.40 0.51 -0.18 -0.20 10509
0.35 -0.02 0.23 -1.48 10.56 0.55 -0.18 -0.24 10516
0.38 -0.03 1.03 -1.57 11.09 0.64 -0.22 -0.28 10523
0.40 -0.02 0.22 -1.54 11.91 0.82 -0.37 -0.34 10530
0.41 -0.02 -0.59 -1.64 13.75 1.10 -0.41 -0.30 10537
0.45 -0.03 0.76 -1.63 13.60 1.44 -0.14 -0.32 10545
0.46 -0.04 -0.47 -1.62 13.76 1.68 0.01 -0.34 10552
0.47 -0.03 0.09 -1.80 14.03 1.89 -0.05 -0.29 10558
0.46 -0.03 0.12 -1.67 15.50 2.17 -0.07 -0.29 10566
0.47 -0.03 0.38 -2.02 18.71 2.51 -0.27 -0.28 10573
0.47 -0.02 1.03 -2.24 19.39 3.02 -0.75 -0.27 10580
0.50 -0.03 2.39 -2.24 18.13 3.47 -1.27 -0.32 10588
0.44 -0.02 2.83 -1.92 17.03 3.73 -1.54 -0.49 10595
0.41 -0.03 2.56 -2.53 19.37 4.03 -1.68 -0.63 10602
0.35 -0.02 4.63 -3.91 19.10 4.22 -2.35 -0.80 10609
0.23 -0.01 7.78 -5.15 18.45 4.28 -2.91 -1.07 10616
0.16 0.00 9.90 -5.30 19.88 4.28 -3.26 -1.54 10624
0.15 -0.01 9.82 -5.64 20.66 4.28 -3.50 -2.01 10630
0.09 -0.01 10.78 -6.28 21.91 4.28 -3.83 -2.39 10638
0.08 -0.01 11.77 -5.49 23.17 4.26 -4.01 -2.83 10645
0.04 -0.00 11.14 -5.86 23.50 3.96 -4.06 -3.19 10652
0.04 -0.00 10.15 -0.99 21.25 3.42 -4.27 -3.43 10659
0.02 0.00 11.45 3.79 16.65 2.97 -4.28 -3.40 10667
0.04 -0.00 20.89 10.04 11.14 2.41 -4.28 -2.79 10674
0.03 -0.00 24.43 6.97 8.13 2.01 -2.93 -0.24 10680
0.02 -0.00 27.99 6.83 14.12 0.84 -0.44 0.88 10687
0.02 -0.00 16.63 4.94 9.31 0.45 0.54 2.00 10694
0.01 -0.00 10.50 5.23 9.43 0.27 0.69 2.74 10701
0.01 -0.00 9.65 4.76 9.53 0.05 0.27 3.10 10708
0.01 -0.00 9.55 5.58 9.10 -0.21 0.12 3.23 10716
0.02 -0.00 9.79 6.21 8.96 -0.50 0.30 3.07 10723
0.02 -0.00 8.69 6.44 8.87 -0.87 0.75 2.79 10730
0.00 0.00 6.29 6.33 8.67 -1.16 1.17 2.35 10737
0.00 0.00 4.49 6.03 8.51 -1.44 1.37 1.91 10744
0.00 0.00 2.74 5.68 8.42 -1.66 1.36 1.36 10752
0.00 0.00 2.42 5.41 8.21 -1.80 1.29 0.83 10759
0.00 0.00 2.74 4.97 8.12 -1.95 1.29 0.36 10766
0.00 0.00 3.01 4.51 8.21 -2.06 1.47 -0.12 10773
0.00 0.00 2.93 4.04 8.46 -2.16 1.74 -0.45 10780
-0.00 0.00 2.25 3.75 8.89 -2.26 2.03 -0.73 10787
0.00 -0.00 1.53 3.66 9.34 -2.34 2.20 -0.90 10795
0.00 0.00 0.70 3.58 9.71 -2.46 2.33 -0.97 10802
0.00 0.00 0.13 3.23 10.12 -2.54 2.40 -0.93 10809
0.00 0.00 -0.10 2.81 10.44 -2.63 2.39 -0.84 10816
0.00 0.00 0.09 2.39 10.67 -2.67 2.36 -0.70 10823
0.00 0.00 0.51 1.98 10.89 -2.70 2.37 -0.55 10830
0.00 0.00 0.87 1.83 11.10 -2.73 2.44 -0.43 10838
0.00 0.00 1.11 1.56 11.68 -2.74 2.56 -0.32 10845
0.00 0.00 0.66 1.44 12.30 -2.77 2.67 -0.26 10852
0.00 0.00 -0.16 1.33 12.73 -2.81 2.77 -0.22 10859
0.00 0.00 -0.76 1.10 13.13 -2.85 2.85 -0.21 10866
0.00 0.00 -1.72 0.59 13.63 -2.89 2.93 -0.24 10873
0.00 0.00 -2.56 0.01 13.88 -2.93 3.00 -0.31 10881
0.00 0.00 -3.05 -0.48 14.37 -2.98 3.01 -0.40 10888
0.00 0.00 -3.41 -0.87 14.74 -3.01 2.96 -0.49 10895
0.00 0.00 -3.63 -0.88 15.49 -3.03 2.90 -0.57 10902
0.00 0.00 -4.07 -0.84 16.35 -3.05 2.87 -0.62 10909
0.00 0.00 -5.02 -0.63 17.23 -3.08 2.86 -0.67 10916
0.00 0.00 -6.16 -1.22 17.94 -3.14 2.90 -0.73 10924
0.00 0.00 -7.89 -1.07 18.24 -3.22 2.95 -0.80 10931
0.00 0.00 -9.74 -1.83 18.73 -3.29 2.96 -0.87 10938
0.00 0.00 -12.08 -2.74 18.93 -3.33 2.89 -0.89 10945
0.00 0.00 -14.70 -4.22 18.80 -3.34 2.68 -0.80 10952
0.00 0.00 -16.26 -6.07 18.30 -3.32 2.40 -0.56 10959
0.00 -0.00 -17.47 -7.76 17.68 -3.24 1.97 -0.26 10968
0.00 0.00 -17.76 -9.83 16.96 -3.13 1.48 0.15 10974
0.02 -0.00 -17.39 -11.81 16.33 -3.00 1.01 0.56 10982
0.00 0.00 -16.40 -14.86 14.92 -2.88 0.47 0.92 10988
0.00 0.00 -12.30 -20.17 8.88 -2.85 -0.09 1.39 10996
0.02 -0.00 -5.07 -25.68 9.14 -2.80 -1.35 1.62 11002
0.00 0.00 2.84 -30.94 7.98 -2.37 -2.19 1.85 11010
0.00 0.00 7.77 -31.76 3.95 -1.73 -1.67 2.12 11017
0.00 0.00 6.89 -29.59 1.65 -0.85 -0.23 2.41 11024
0.00 0.00 -0.06 -27.27 3.24 -0.14 1.05 2.89 11031
0.00 0.00 -26.51 -39.49 28.46 1.45 -0.96 3.60 11038
-0.00 0.00 -30.68 -34.62 0.98 2.30 -4.07 4.28 11045
-0.00 0.02 -5.12 -18.92 2.76 3.05 -4.28 4.28 11053
-0.01 0.13 -13.30 6.01 7.56 3.87 -3.54 4.28 11061
-0.05 0.58 -23.00 1.98 29.59 4.20 -0.93 4.28 11068
-0.07 0.90 -21.23 3.61 20.54 4.10 -1.27 2.97 11075
-0.06 1.08 -20.48 -10.49 26.82 4.27 -1.28 1.64 11082
-0.05 1.20 -11.97 -8.15 19.50 4.11 -0.56 0.40 11089
-0.07 1.19 -2.42 -4.88 24.27 3.47 0.03 -0.13 11097
-0.07 1.18 1.67 -4.77 23.74 1.20 -0.67 -0.06 11104
-0.07 1.11 1.66 -2.99 15.00 0.27 -0.47 0.22 11111
-0.06 1.07 -1.87 -3.13 13.11 0.13 -0.22 0.15 11118
-0.02 1.01 -0.57 -0.85 10.26 0.15 -0.11 0.05 11125
-0.01 0.92 -0.06 -0.53 9.56 0.20 -0.00 0.08 11131
0.00 0.89 0.06 -0.69 9.27 0.23 0.03 0.08 11139
0.01 0.82 0.08 -1.25 9.43 0.17 0.06 0.06 11146
0.03 0.74 0.13 -1.38 9.74 0.08 0.08 0.06 11153
0.02 0.67 0.04 -0.80 9.81 0.05 0.11 0.06 11160
0.05 0.67 0.23 -0.78 10.10 0.07 0.12 0.06 11167
0.04 0.62 0.42 -0.81 9.99 0.09 0.09 0.04 11174
0.05 0.58 0.35 -0.73 9.75 0.11 0.06 0.03 11182
0.04 0.60 0.22 -0.79 9.59 0.10 0.05 0.02 11189
0.06 0.57 0.22 -0.68 9.76 0.07 0.06 0.02 11196
0.04 0.58 0.22 -1.23 9.87 0.07 0.06 0.02 11203
0.07 0.51 0.21 -0.67 9.90 0.08 0.05 0.02 11210
0.06 0.48 0.26 -0.69 9.84 0.10 0.05 0.02 11217
0.07 0.44 0.27 -0.70 9.79 0.10 0.05 0.01 11225
0.06 0.41 0.30 -0.70 9.71 0.09 0.04 0.00 11232
0.07 0.39 0.28 -0.79 9.69 0.08 0.03 -0.00 11239
0.09 0.38 0.26 -0.76 9.75 0.07 0.03 -0.01 11246
0.10 0.35 0.31 -0.81 9.78 0.07 0.01 -0.01 11253
0.10 0.32 0.34 -0.73 9.77 0.07 0.00 -0.01 11260
0.10 0.31 0.26 -0.80 9.72 0.07 -0.00 -0.02 11268
0.10 0.35 0.29 -0.82 9.58 0.04 -0.01 -0.02 11275
0.11 0.33 0.31 -0.80 9.56 0.02 -0.01 -0.02 11282
0.12 0.33 0.34 -0.83 9.58 0.00 -0.01 -0.03 11289
0.11 0.34 0.32 -0.80 9.64 -0.02 -0.02 -0.03 11296
0.10 0.34 0.30 -0.82 9.66 -0.03 -0.02 -0.03 11303
0.10 0.33 0.28 -0.82 9.71 -0.03 -0.02 -0.03 11311
0.07 0.34 0.28 -0.76 9.74 -0.03 -0.02 -0.03 11318
0.09 0.34 0.23 -0.77 9.69 -0.03 -0.02 -0.03 11325
0.11 0.35 0.23 -0.79 9.69 -0.02 -0.02 -0.03 11332
0.09 0.36 0.24 -0.79 9.66 -0.02 -0.03 -0.03 11339
0.09 0.37 0.28 -0.80 9.70 -0.03 -0.04 -0.03 11346
0.08 0.37 0.25 -0.82 9.66 -0.02 -0.05 -0.03 11354
0.07 0.39 0.24 -0.83 9.73 -0.02 -0.05 -0.03 11361
0.09 0.40 0.14 -0.76 9.76 -0.02 -0.04 -0.03 11368
0.10 0.40 0.17 -0.79 9.76 -0.02 -0.04 -0.02 11375
0.05 0.42 0.11 -0.78 9.74 -0.02 -0.05 -0.02 11382
0.07 0.42 0.14 -0.76 10.36 -0.01 -0.05 -0.02 11389
0.05 0.43 0.19 -0.78 9.68 -0.00 -0.06 -0.02 11397
0.06 0.44 0.14 -0.75 9.80 0.01 -0.06 -0.02 11404
0.07 0.45 0.12 -0.82 9.84 0.02 -0.06 -0.02 11411
0.09 0.44 0.19 -0.77 9.82 0.04 -0.06 -0.02 11418
0.08 0.43 0.17 -0.77 9.73 0.06 -0.06 -0.02 11425
0.11 0.42 0.17 -0.77 9.82 0.08 -0.06 -0.03 11432
0.09 0.42 0.20 -0.82 9.61 0.10 -0.06 -0.03 11440
0.10 0.41 0.11 -0.76 9.81 0.13 -0.05 -0.03 11447
0.12 0.38 0.18 -0.82 9.81 0.15 -0.06 -0.04 11454
0.13 0.33 0.19 -0.82 9.80 0.17 -0.07 -0.04 11461
0.12 0.29 0.26 -0.79 9.87 0.20 -0.08 -0.05 11468
0.15 0.22 0.23 -0.83 9.86 0.23 -0.10 -0.05 11475
0.15 0.20 0.20 -0.76 9.84 0.26 -0.12 -0.06 11483
0.16 0.13 0.20 -0.80 9.87 0.29 -0.14 -0.07 11490
0.20 0.11 0.12 -0.90 10.07 0.32 -0.15 -0.08 11497
0.23 0.10 0.19 -0.93 10.01 0.36 -0.16 -0.09 11504
0.26 0.04 0.15 -1.13 9.91 0.39 -0.17 -0.11 11511
0.32 0.03 0.23 -1.15 10.15 0.42 -0.18 -0.13 11520
0.32 -0.01 0.23 -1.20 10.23 0.47 -0.19 -0.16 11527
0.32 -0.00 0.11 -1.08 10.69 0.52 -0.21 -0.20 11533
0.39 -0.02 0.51 -1.29 10.67 0.60 -0.26 -0.25 11541
0.40 -0.03 0.68 -1.63 11.59 0.70 -0.39 -0.31 11548
0.44 -0.03 0.88 -1.62 12.74 0.92 -0.56 -0.38 11555
0.47 -0.03 0.12 -1.87 13.92 1.25 -0.57 -0.40 11563
0.50 -0.03 0.11 -1.61 13.74 1.54 -0.46 -0.40 11570
0.52 -0.02 -0.02 -1.79 14.03 1.78 -0.54 -0.38 11577
0.53 -0.03 0.45 -1.84 14.19 2.03 -0.62 -0.37 11584
0.57 -0.04 0.18 -1.70 15.28 2.27 -0.65 -0.39 11591
0.58 -0.04 0.36 -2.12 17.05 2.64 -0.79 -0.39 11598
0.61 -0.04 0.65 -2.13 19.01 3.04 -0.99 -0.40 11606
0.57 -0.03 1.20 -2.13 19.49 3.53 -1.25 -0.42 11613
0.54 -0.02 2.65 -2.58 18.94 3.92 -1.57 -0.53 11620
0.52 -0.03 3.97 -2.43 18.24 4.17 -1.94 -0.74 11627
0.42 -0.02 3.57 -2.57 16.81 4.28 -2.25 -0.96 11634
0.31 -0.02 2.08 -3.85 20.37 4.28 -2.30 -1.13 11641
0.18 -0.01 4.52 -4.83 20.46 4.28 -2.61 -1.23 11649
0.13 -0.01 8.41 -5.28 20.51 4.28 -2.80 -1.52 11655
0.10 -0.00 9.42 -6.17 21.77 4.28 -2.73 -1.98 11663
0.09 -0.01 10.21 -5.10 21.76 4.27 -2.86 -2.32 11670
0.08 -0.01 9.01 -5.75 22.09 4.05 -2.88 -2.65 11676
0.05 -0.00 8.92 -1.25 18.23 3.61 -3.16 -2.88 11683
0.00 0.00 10.05 2.58 14.54 3.27 -3.50 -3.01 11691
0.00 0.00 15.99 11.78 11.59 2.88 -3.53 -2.81 11698
0.00 -0.00 19.77 7.45 7.31 2.26 -2.60 -1.74 11705
0.01 -0.00 18.93 8.17 17.84 1.32 -0.95 -0.88 11712
0.00 -0.00 15.30 7.90 8.97 0.64 -0.37 -0.26 11719
0.00 0.00 12.37 7.41 8.52 0.42 -0.21 0.38 11726
0.00 0.00 12.31 6.74 8.68 0.20 -0.23 0.75 11734
0.00 0.00 12.30 7.32 7.82 -0.08 -0.07 0.92 11741
0.00 0.00 11.60 7.91 7.13 -0.34 0.34 0.93 11748
0.01 -0.00 10.14 7.88 7.32 -0.62 0.78 0.81 11755
0.00 0.00 7.69 7.68 7.26 -0.86 1.23 0.66 11762
0.00 0.00 5.07 7.24 7.28 -1.03 1.47 0.46 11769
0.00 0.00 3.97 6.85 7.59 -1.23 1.58 0.27 11777
0.00 0.00 3.23 6.42 8.03 -1.42 1.61 0.07 11784
0.00 0.00 3.02 6.02 8.44 -1.66 1.68 -0.07 11791
0.00 0.00 2.47 5.39 8.62 -1.88 1.84 -0.18 11798
0.00 0.00 1.60 4.57 8.89 -2.03 2.05 -0.20 11805
0.00 0.00 0.34 4.17 9.12 -2.14 2.19 -0.12 11812
0.00 0.00 -0.73 3.70 9.71 -2.23 2.28 0.07 11820
-0.00 0.00 -1.40 3.22 10.35 -2.27 2.29 0.35 11827
0.00 0.00 -1.94 2.90 10.95 -2.36 2.23 0.63 11834
0.00 0.00 -2.12 2.60 11.51 -2.45 2.15 0.98 11841
0.00 0.00 -1.95 2.33 12.11 -2.59 2.06 1.27 11848
0.00 0.00 -1.63 1.83 12.55 -2.74 1.94 1.52 11855
0.00 0.00 -1.27 1.53 12.87 -2.86 1.88 1.68 11863
0.00 0.00 -0.85 1.06 13.10 -3.00 1.87 1.75 11870
0.00 0.00 -0.91 0.55 13.43 -3.09 1.90 1.77 11877
0.00 0.00 -1.25 0.18 13.90 -3.18 1.93 1.72 11884
0.00 0.00 -1.47 -0.04 14.21 -3.27 1.96 1.63 11891
0.00 0.00 -1.74 -0.31 14.64 -3.35 1.94 1.49 11898
0.00 0.00 -1.88 -0.60 15.13 -3.43 1.90 1.34 11906
0.00 0.00 -2.03 -0.95 15.42 -3.49 1.89 1.15 11913
0.00 0.00 -2.19 -1.28 15.77 -3.53 1.91 0.94 11920
0.00 0.00 -2.90 -1.80 15.85 -3.54 1.93 0.75 11927
0.00 0.00 -4.05 -2.61 16.76 -3.50 1.98 0.45 11934
0.00 0.00 -5.38 -3.04 17.52 -3.42 2.03 0.14 11941
0.00 0.00 -6.34 -3.27 18.17 -3.39 2.00 -0.26 11949
0.01 -0.00 -7.01 -3.50 18.63 -3.41 1.95 -0.63 11956
0.00 0.00 -7.68 -4.02 18.71 -3.47 1.85 -0.91 11963
0.00 0.00 -7.91 -5.13 18.58 -3.49 1.73 -1.19 11970
0.00 0.00 -7.82 -5.99 18.14 -3.46 1.59 -1.38 11977
0.00 0.00 -7.35 -6.62 17.30 -3.37 1.50 -1.56 11984
0.00 0.00 -6.79 -7.41 16.67 -3.28 1.46 -1.70 11992
0.00 0.00 -6.31 -8.09 16.16 -3.18 1.45 -1.80 11999
0.00 0.00 -5.87 -9.21 15.60 -3.10 1.48 -1.89 12006
0.00 0.00 -5.76 -10.19 14.40 -3.00 1.51 -1.95 12013
0.00 0.00 -5.97 -11.54 13.22 -2.87 1.55 -1.99 12020
0.00 0.00 -6.05 -13.65 11.60 -2.75 1.53 -1.96 12027
0.00 0.00 -6.05 -15.70 10.32 -2.56 1.41 -1.87 12035
0.00 0.00 -6.54 -18.42 9.08 -2.35 1.26 -1.66 12042
0.00 0.00 -7.61 -20.39 7.65 -2.02 1.17 -1.33 12049
0.00 0.00 -9.45 -22.23 6.61 -1.60 1.07 -0.87 12056
0.00 0.00 -12.03 -23.28 5.71 -1.19 0.86 -0.20 12063
0.00 0.00 -13.00 -23.57 5.46 -0.69 0.51 0.46 12070
0.00 0.00 -13.14 -23.21 5.65 -0.23 0.03 1.26 12078
0.00 0.00 -12.10 -21.56 6.07 0.06 -0.33 1.92 12085
0.00 0.00 -10.62 -20.57 6.55 0.32 -0.62 2.36 12092
0.00 0.00 -8.66 -18.72 7.38 0.50 -0.72 2.64 12099
-0.00 0.01 -38.34 -33.82 25.37 2.04 -4.10 2.95 12107
-0.00 0.01 -1.27 6.61 2.12 2.17 -4.28 2.61 12113
-0.00 0.09 -5.25 5.72 10.67 2.43 -4.28 2.55 12122
-0.02 0.35 -11.81 7.50 19.51 2.34 -2.46 2.70 12129
-0.05 0.67 -11.37 2.84 13.17 2.69 -2.13 2.31 12136
-0.07 0.89 -11.42 -2.69 14.07 3.70 -1.44 1.76 12143
-0.07 1.04 -11.25 -6.73 19.18 4.24 -0.67 1.31 12150
-0.06 1.13 -9.72 -5.86 23.43 3.89 0.12 0.67 12157
-0.05 1.15 -5.00 -3.65 17.18 3.29 -0.14 0.00 12165
-0.07 1.18 0.13 -2.74 15.84 2.94 -0.18 -0.33 12172
-0.06 1.15 3.20 -1.87 14.76 2.62 0.20 -0.08 12179
-0.08 1.07 2.58 -2.38 18.94 2.03 0.25 0.22 12186
-0.07 0.96 -0.34 -1.64 13.97 0.84 -0.36 0.27 12193
-0.07 0.91 -1.60 -2.26 11.96 0.22 -0.24 0.16 12200
-0.04 0.86 -0.76 -2.38 10.47 0.10 -0.17 -0.01 12208
-0.02 0.81 0.67 -0.98 9.83 0.06 -0.09 0.03 12214
0.05 0.76 -0.04 -0.88 9.79 0.06 -0.11 0.03 12221
0.04 0.75 -0.33 -1.33 9.81 0.02 -0.06 0.01 12228
0.08 0.79 -0.04 -1.11 10.02 -0.01 0.00 0.02 12235
0.09 0.75 -0.01 -0.85 10.02 -0.00 0.03 0.02 12242
0.07 0.71 0.14 -0.86 10.01 0.01 0.03 0.01 12250
0.08 0.68 0.17 -0.82 9.88 0.02 0.02 0.01 12257
0.08 0.69 0.06 -0.75 9.78 0.02 0.01 0.01 12264
0.07 0.66 -0.06 -0.77 9.84 0.01 0.02 0.01 12271
0.10 0.69 0.05 -0.65 10.01 0.03 0.03 0.02 12278
0.11 0.66 0.05 -0.66 9.96 0.05 0.03 0.02 12285
0.11 0.62 0.08 -0.68 9.89 0.08 0.02 0.01 12293
0.10 0.59 0.10 -0.72 9.86 0.09 -0.00 0.01 12300
0.10 0.56 0.13 -0.69 9.88 0.11 -0.01 0.01 12307
0.10 0.54 0.12 -0.72 9.82 0.12 -0.02 0.00 12314
0.12 0.52 0.04 -0.74 9.81 0.12 -0.03 -0.00 12321
0.13 0.49 0.08 -0.75 9.80 0.13 -0.03 -0.01 12328
0.13 0.47 0.13 -0.76 9.77 0.12 -0.03 -0.01 12336
0.13 0.45 0.11 -0.83 9.67 0.12 -0.02 -0.02 12343
0.13 0.37 0.10 -0.84 9.55 0.10 -0.02 -0.02 12350
0.14 0.36 0.16 -0.88 9.60 0.08 -0.02 -0.02 12357
0.14 0.37 0.19 -0.85 9.56 0.06 -0.01 -0.03 12364
0.15 0.39 0.12 -0.86 9.56 0.04 -0.01 -0.03 12371
0.15 0.36 0.13 -0.90 9.58 0.03 -0.02 -0.03 12379
0.15 0.34 0.14 -0.90 9.66 0.01 -0.02 -0.03 12386
0.13 0.34 0.18 -0.86 9.69 0.01 -0.02 -0.03 12393
0.13 0.34 0.12 -0.85 9.75 0.01 -0.02 -0.07 12400
0.13 0.36 0.09 -0.87 9.71 0.01 -0.03 -0.04 12407
0.15 0.34 0.07 -0.87 9.76 0.01 -0.03 -0.04 12414
0.14 0.35 0.12 -0.87 9.65 0.01 -0.03 -0.03 12422
0.13 0.35 0.17 -0.84 9.70 0.01 -0.03 -0.04 12429
0.12 0.37 0.10 -0.87 9.72 0.01 -0.03 -0.04 12436
0.12 0.37 0.07 -0.84 9.70 0.02 -0.04 -0.04 12443
0.12 0.37 0.09 -0.86 9.79 0.02 -0.04 -0.04 12450
0.14 0.36 0.05 -0.83 9.78 0.03 -0.04 -0.04 12457
0.14 0.34 0.00 -0.85 9.71 0.05 -0.04 -0.03 12465
0.16 0.34 0.01 -0.83 9.79 0.06 -0.04 -0.04 12472
0.18 0.35 0.02 -0.88 9.79 0.07 -0.05 -0.03 12479
0.19 0.33 0.03 -0.86 9.80 0.08 -0.05 -0.04 12486
0.20 0.29 0.01 -0.85 9.83 0.09 -0.05 -0.04 12493
0.21 0.29 0.01 -0.83 9.79 0.10 -0.05 -0.04 12500
0.21 0.25 0.02 -0.86 9.79 0.11 -0.05 -0.04 12508
0.24 0.20 -0.02 -0.89 9.82 0.13 -0.05 -0.04 12515
0.25 0.21 0.02 -0.95 9.83 0.15 -0.05 -0.04 12522
0.26 0.16 -0.01 -0.92 9.85 0.17 -0.05 -0.05 12529
0.29 0.15 0.06 -0.87 9.94 0.19 -0.05 -0.05 12536
0.28 0.12 0.03 -0.90 9.93 0.22 -0.05 -0.05 12544
0.28 0.11 0.11 -1.00 10.00 0.25 -0.07 -0.06 12551
0.28 0.10 0.11 -1.07 9.98 0.28 -0.08 -0.08 12558
0.30 0.04 0.14 -1.12 9.94 0.30 -0.10 -0.09 12565
0.32 0.03 0.01 -1.09 9.95 0.32 -0.11 -0.10 12572
0.35 -0.02 0.05 -1.22 9.81 0.34 -0.12 -0.11 12579
0.36 -0.01 0.15 -1.04 10.14 0.35 -0.13 -0.13 12588
0.39 -0.02 0.04 -1.35 10.09 0.38 -0.15 -0.14 12595
0.40 -0.03 0.11 -1.26 10.24 0.41 -0.17 -0.17 12602
0.40 -0.03 0.01 -1.41 10.42 0.47 -0.21 -0.19 12609
0.44 -0.02 -0.06 -1.43 10.74 0.54 -0.27 -0.22 12616
0.43 -0.02 0.19 -1.56 11.41 0.66 -0.34 -0.25 12623
0.43 -0.02 0.14 -1.71 11.83 0.83 -0.38 -0.26 12631
0.48 -0.05 0.50 -1.83 12.84 1.04 -0.33 -0.28 12637
0.50 -0.04 -0.02 -1.70 13.01 1.28 -0.23 -0.31 12645
0.48 -0.03 -0.09 -1.82 13.50 1.49 -0.33 -0.28 12652
0.49 -0.02 0.38 -2.40 13.69 1.70 -0.39 -0.29 12659
0.52 -0.03 0.23 -1.92 14.54 1.95 -0.45 -0.31 12666
0.56 -0.03 0.51 -1.89 15.32 2.21 -0.61 -0.32 12674
0.57 -0.04 0.78 -2.18 16.48 2.55 -0.73 -0.35 12681
0.53 -0.04 1.22 -2.23 16.32 2.91 -0.90 -0.40 12688
0.50 -0.02 1.39 -2.33 17.01 3.19 -1.08 -0.48 12695
0.49 -0.02 1.56 -2.70 16.94 3.50 -1.37 -0.55 12702
0.46 -0.03 2.46 -3.01 16.37 3.75 -1.67 -0.69 12709
0.40 -0.02 2.30 -2.95 18.32 4.05 -1.77 -0.84 12717
0.34 -0.01 2.01 -3.73 17.92 4.22 -2.05 -0.98 12724
0.20 -0.02 3.74 -4.35 17.82 4.27 -2.42 -1.15 12731
0.15 -0.01 5.79 -4.60 18.37 4.28 -2.72 -1.38 12738
0.16 -0.01 7.47 -5.06 19.11 4.28 -2.85 -1.70 12745
0.07 -0.01 8.02 -6.33 20.11 4.28 -2.86 -2.00 12751
0.06 -0.01 9.38 -5.28 18.51 4.20 -2.85 -2.31 12759
0.04 -0.00 9.28 -6.15 18.44 3.95 -2.49 -2.61 12766
0.05 -0.00 9.41 -2.34 17.86 3.56 -2.25 -2.90 12773
0.05 -0.01 8.53 -0.11 14.71 3.22 -2.43 -3.18 12780
0.00 0.00 8.70 3.86 9.86 2.80 -2.67 -3.31 12787
0.00 0.00 14.34 14.07 6.72 2.33 -2.85 -3.30 12794
0.00 0.00 27.82 10.43 2.90 1.76 -2.06 -1.89 12802
0.00 0.00 19.30 8.32 21.20 0.39 0.18 -0.94 12809
0.00 0.00 13.09 9.41 7.78 -0.16 0.53 -0.07 12816
0.00 0.00 9.60 8.77 8.65 -0.42 0.24 0.56 12823
0.00 0.00 10.20 6.89 9.81 -0.74 -0.17 1.09 12830
0.00 0.00 10.65 7.48 9.01 -1.02 -0.15 1.48 12837
0.00 0.00 10.26 7.35 8.65 -1.38 0.08 1.66 12845
0.00 0.00 8.57 6.42 9.22 -1.73 0.46 1.76 12852
0.00 0.00 6.32 6.09 9.26 -1.97 0.66 1.77 12859
0.00 -0.00 4.64 5.61 9.23 -2.24 0.66 1.73 12866
0.00 0.00 4.01 5.00 9.29 -2.45 0.54 1.66 12873
0.00 0.00 4.26 4.39 9.53 -2.68 0.55 1.60 12880
0.00 0.00 4.68 3.49 9.82 -2.91 0.65 1.57 12888
0.00 0.00 4.79 2.47 9.90 -3.06 0.83 1.59 12895
0.00 0.00 4.90 1.56 10.16 -3.15 1.07 1.66 12902
0.00 0.00 4.45 0.61 10.80 -3.19 1.29 1.80 12909
0.00 0.00 3.84 0.12 11.50 -3.22 1.38 1.96 12916
0.00 0.00 3.00 -0.46 11.86 -3.27 1.35 2.14 12923
0.00 0.00 2.68 -1.09 12.64 -3.31 1.25 2.28 12931
0.00 0.00 2.18 -1.89 13.01 -3.35 1.12 2.34 12938
-0.00 0.00 2.38 -2.62 13.47 -3.39 0.99 2.28 12945
0.00 0.00 2.99 -3.48 13.35 -3.40 0.99 2.13 12952
0.00 0.00 3.57 -5.00 13.25 -3.30 1.16 1.89 12959
0.00 0.00 3.95 -6.38 13.51 -3.14 1.42 1.59 12966
0.00 0.00 3.73 -6.98 13.75 -2.92 1.65 1.36 12974
0.00 0.00 2.93 -7.00 14.07 -2.72 1.78 1.12 12981
-0.00 0.01 2.34 -6.36 14.56 -2.63 1.87 0.97 12988
0.00 0.00 1.84 -6.33 15.52 -2.60 1.97 0.86 12995
0.00 0.00 1.13 -6.40 15.53 -2.67 2.01 0.67 13002
0.00 0.00 0.16 -7.04 15.10 -2.74 2.09 0.41 13009
0.00 0.00 -0.79 -8.14 14.78 -2.68 2.24 -0.01 13017
0.00 0.00 -1.18 -8.33 14.68 -2.60 2.39 -0.51 13024
0.00 0.00 -1.77 -8.00 14.83 -2.53 2.58 -0.91 13031
0.00 0.00 -3.23 -7.68 15.08 -2.54 2.67 -1.26 13038
0.00 0.00 -4.11 -7.58 14.66 -2.59 2.61 -1.46 13045
0.00 0.00 -4.81 -7.87 14.23 -2.60 2.46 -1.55 13052
0.00 0.00 -5.24 -8.46 13.84 -2.57 2.36 -1.58 13060
0.00 0.00 -5.98 -8.71 13.36 -2.51 2.28 -1.53 13067
0.00 -0.00 -7.10 -9.10 12.74 -2.44 2.22 -1.41 13074
0.00 0.00 -8.13 -9.44 12.38 -2.29 2.11 -1.26 13081
0.00 0.00 -8.76 -9.54 12.11 -2.10 1.98 -1.02 13088
0.00 0.00 -8.93 -9.36 11.69 -1.97 1.82 -0.75 13095
0.00 0.00 -9.19 -9.32 11.12 -1.88 1.66 -0.47 13103
0.00 0.00 -8.81 -9.54 10.48 -1.79 1.39 -0.11 13110
0.00 0.00 -7.75 -9.68 10.15 -1.70 1.13 0.31 13117
0.00 0.00 -6.28 -9.94 9.72 -1.64 0.90 0.67 13124
0.00 0.00 -5.16 -10.64 9.02 -1.58 0.70 1.11 13131
0.00 0.00 -4.78 -11.30 8.54 -1.46 0.57 1.49 13138
0.00 0.00 -4.36 -11.92 8.02 -1.27 0.45 1.91 13146
0.00 0.00 -4.33 -12.28 7.68 -1.11 0.38 2.28 13153
0.00 0.00 -4.61 -12.74 7.43 -0.90 0.29 2.57 13160
0.00 0.00 -4.79 -13.03 7.10 -0.71 0.17 2.86 13167
0.00 0.00 -4.87 -13.19 6.73 -0.51 0.05 3.07 13174
0.00 0.00 -5.09 -13.59 6.31 -0.29 -0.07 3.25 13181
0.00 0.00 -5.23 -13.86 6.13 -0.08 -0.14 3.37 13189
0.00 0.00 -5.54 -13.76 6.15 0.20 -0.17 3.44 13196
0.00 0.00 -5.96 -13.02 6.57 0.42 -0.22 3.47 13203
0.00 0.00 -5.99 -11.85 7.11 0.59 -0.28 3.45 13210
0.00 0.00 -10.20 -16.37 3.53 0.72 -0.51 3.35 13217
0.00 0.00 -22.18 -23.21 9.68 2.04 -3.72 3.37 13224
-0.00 0.01 -3.42 -11.95 0.34 2.60 -4.01 3.02 13232
-0.00 0.05 -11.30 2.03 9.41 3.14 -3.03 2.98 13240
-0.02 0.34 -9.88 2.35 16.81 3.26 -1.05 3.00 13247
-0.05 0.62 -13.89 -1.17 19.72 3.70 -0.33 2.45 13254
-0.05 0.83 -12.13 -6.50 23.47 4.17 -0.34 1.45 13261
-0.07 0.91 -7.41 -7.62 18.56 4.21 0.07 0.84 13268
-0.06 0.96 -4.36 -5.14 19.75 4.05 0.22 0.42 13276
-0.05 0.94 -1.71 -7.01 33.25 2.63 -0.48 0.11 13283
-0.04 0.84 2.94 -1.19 13.67 0.27 -0.63 0.08 13290
0.00 0.79 -0.70 -6.40 14.73 -0.04 -0.38 -0.04 13296
0.02 0.73 0.52 -0.97 10.81 0.06 -0.27 0.03 13303
0.01 0.74 -0.03 -0.39 9.77 0.17 -0.24 0.03 13310
0.05 0.68 -0.40 -0.78 9.50 0.18 -0.16 0.04 13318
0.12 0.64 -0.16 -0.85 9.64 0.15 -0.05 0.04 13325
0.12 0.57 0.10 -1.04 9.63 0.11 0.00 0.04 13332
0.13 0.50 0.20 -1.20 9.87 0.09 0.04 0.03 13339
0.11 0.46 0.44 -1.04 9.82 0.06 0.04 0.03 13346
0.12 0.49 0.37 -0.95 9.83 0.05 0.02 0.01 13353
0.13 0.44 0.15 -0.87 9.75 0.03 0.03 0.00 13361
0.15 0.45 0.19 -0.88 9.79 0.03 0.04 -0.00 13368
0.16 0.45 0.22 -0.78 9.82 0.04 0.04 -0.01 13375
0.17 0.41 0.16 -0.74 9.85 0.06 0.04 -0.01 13382
0.15 0.43 0.15 -0.74 9.91 0.09 0.03 -0.01 13389
0.15 0.39 0.19 -0.82 9.83 0.12 0.03 -0.01 13396
0.16 0.34 0.32 -0.84 9.82 0.13 0.02 -0.01 13404
0.18 0.31 0.23 -0.80 9.85 0.13 0.01 -0.01 13411
0.17 0.28 0.17 -0.75 9.91 0.15 0.00 -0.02 13418
0.17 0.27 0.06 -0.85 9.88 0.17 0.01 -0.01 13425
0.16 0.19 0.17 -0.87 9.83 0.19 0.01 -0.01 13432
0.17 0.18 0.32 -0.79 9.69 0.20 -0.01 -0.01 13440
0.18 0.10 0.36 -0.93 9.63 0.19 -0.02 -0.01 13447
0.19 0.10 0.33 -1.01 9.56 0.17 -0.04 -0.02 13454
0.20 0.07 0.37 -0.94 9.51 0.15 -0.05 -0.02 13461
0.20 0.05 0.31 -1.01 9.47 0.12 -0.06 -0.03 13468
0.19 0.07 0.26 -1.12 9.47 0.08 -0.07 -0.03 13475
0.18 0.09 0.25 -1.08 9.48 0.05 -0.06 -0.04 13483
0.21 0.08 0.17 -1.04 9.50 0.02 -0.05 -0.04 13490
0.20 0.05 0.28 -1.03 9.66 0.00 -0.05 -0.04 13497
0.20 0.05 0.24 -1.04 9.77 0.01 -0.05 -0.04 13504
0.21 0.05 0.22 -0.99 9.74 0.02 -0.05 -0.05 13511
0.21 0.05 0.17 -1.02 9.82 0.03 -0.06 -0.05 13518
0.22 0.07 0.15 -1.01 9.84 0.05 -0.06 -0.05 13526
0.25 0.05 0.19 -0.99 9.83 0.06 -0.07 -0.05 13533
0.24 0.05 0.16 -1.00 9.83 0.08 -0.08 -0.05 13540
0.25 0.03 0.18 -1.02 9.87 0.10 -0.09 -0.05 13547
0.24 0.05 0.11 -1.03 9.85 0.11 -0.11 -0.05 13554
0.27 0.04 0.07 -0.99 9.83 0.12 -0.12 -0.05 13561
0.26 0.04 0.03 -1.16 9.66 0.12 -0.12 -0.05 13569
0.27 0.01 0.02 -1.09 9.81 0.12 -0.11 -0.05 13576
0.28 0.00 0.02 -1.16 9.73 0.13 -0.11 -0.04 13583
0.27 0.02 0.05 -1.16 9.81 0.13 -0.10 -0.05 13590
0.28 0.00 0.09 -1.74 9.78 0.13 -0.09 -0.05 13597
0.29 -0.01 0.04 -1.13 9.81 0.13 -0.09 -0.05 13604
0.30 -0.00 0.04 -1.18 9.68 0.14 -0.09 -0.06 13612
0.32 -0.00 0.12 -1.27 9.73 0.13 -0.09 -0.07 13619
0.35 -0.03 0.08 -1.13 9.76 0.13 -0.09 -0.07 13626
0.35 -0.02 -0.15 -1.17 9.83 0.13 -0.07 -0.07 13633
0.34 -0.01 -0.15 -1.27 9.89 0.13 -0.05 -0.06 13640
0.38 -0.02 0.00 -1.20 9.83 0.15 -0.03 -0.05 13647
0.41 -0.01 0.18 -1.23 9.99 0.16 -0.04 -0.06 13655
0.41 -0.03 0.18 -1.24 10.02 0.19 -0.06 -0.06 13662
0.46 -0.03 0.22 -1.41 10.18 0.22 -0.13 -0.07 13670
0.47 -0.04 0.11 -1.12 10.49 0.27 -0.15 -0.08 13677
0.44 -0.03 -0.12 -1.36 10.54 0.36 -0.22 -0.09 13684
0.45 -0.01 0.03 -1.60 10.78 0.42 -0.32 -0.09 13690
0.45 -0.03 -0.22 -1.47 11.07 0.55 -0.46 -0.09 13699
0.47 -0.03 0.05 -1.68 11.62 0.67 -0.55 -0.09 13706
0.50 -0.03 0.59 -1.73 11.88 0.84 -0.48 -0.11 13713
0.53 -0.04 0.57 -1.77 12.35 1.04 -0.29 -0.18 13720
0.55 -0.04 0.18 -1.74 12.91 1.20 -0.31 -0.21 13727
0.55 -0.02 0.29 -1.80 13.56 1.41 -0.35 -0.22 13734
0.57 -0.03 -0.25 -1.80 15.08 1.64 -0.40 -0.23 13742
0.55 -0.04 0.06 -1.88 15.78 1.97 -0.55 -0.21 13749
0.52 -0.04 0.46 -1.99 15.74 2.32 -0.80 -0.21 13756
0.43 -0.03 0.26 -2.05 15.69 2.59 -1.04 -0.25 13763
0.43 -0.03 0.32 -2.14 16.10 2.85 -1.26 -0.26 13770
0.40 -0.02 1.17 -2.57 17.23 3.07 -1.60 -0.30 13777
0.35 -0.02 2.77 -3.16 15.99 3.32 -2.02 -0.40 13785
0.28 -0.01 5.82 -3.76 15.88 3.44 -2.47 -0.66 13792
0.22 -0.02 7.10 -4.75 16.00 3.50 -2.82 -1.05 13798
0.16 -0.01 8.16 -5.57 16.01 3.48 -3.17 -1.41 13806
0.13 -0.00 9.05 -5.86 15.79 3.38 -3.17 -1.81 13813
0.12 0.00 9.74 -6.44 15.60 3.18 -2.95 -2.22 13820
0.08 -0.00 10.52 -5.18 14.93 2.87 -2.57 -2.52 13828
0.06 -0.00 10.30 -4.95 14.80 2.49 -1.94 -2.86 13835
0.02 -0.00 8.90 -3.67 12.04 2.12 -1.70 -3.13 13841
0.01 0.00 7.73 -0.81 10.26 1.92 -1.61 -3.29 13849
0.00 0.00 9.17 0.20 8.07 1.69 -1.69 -3.15 13855
0.01 0.00 23.58 1.99 3.52 1.75 -1.40 -1.61 13862
0.01 -0.00 19.68 0.03 12.98 1.64 0.29 0.89 13870
0.00 0.00 16.72 0.68 8.85 1.08 0.70 2.23 13877
0.00 0.00 8.00 1.62 8.89 0.89 0.30 3.52 13884
0.00 0.00 6.01 2.56 9.31 0.59 -0.28 4.23 13891
-0.00 0.00 5.91 3.40 9.10 0.12 -0.83 4.28 13898
0.00 -0.00 5.93 3.82 8.75 -0.29 -0.95 4.23 13905
0.00 0.00 5.10 3.65 8.63 -0.77 -0.78 3.73 13913
0.00 0.00 3.14 3.59 7.94 -1.19 -0.56 2.89 13920
0.00 0.00 2.28 3.65 7.63 -1.51 -0.46 1.96 13927
0.00 0.00 2.08 3.39 7.50 -1.85 -0.37 1.21 13934
-0.00 0.01 1.93 2.93 7.44 -2.07 -0.21 0.48 13941
0.00 0.00 1.71 2.56 7.08 -2.24 -0.03 0.03 13948
0.00 0.00 1.52 2.06 7.16 -2.32 0.11 -0.23 13956
0.00 0.00 1.82 1.91 7.19 -2.33 0.17 -0.21 13963
0.00 0.00 2.42 1.62 7.26 -2.33 0.19 0.07 13970
0.00 0.00 2.97 1.21 7.53 -2.32 0.19 0.68 13977
-0.00 0.01 3.36 0.89 7.77 -2.30 0.18 1.49 13984
0.00 0.00 3.65 0.66 7.98 -2.25 0.15 2.21 13991
0.00 0.00 3.85 0.41 8.30 -2.21 0.11 3.03 13999
0.00 0.00 4.19 0.36 8.65 -2.19 0.09 3.63 14006
0.00 0.00 4.71 0.19 9.21 -2.21 0.10 4.14 14013
0.00 0.00 4.71 -0.06 9.81 -2.29 0.13 4.28 14020
0.00 0.01 4.53 -0.43 10.14 -2.39 0.13 4.28 14027
-0.00 0.00 4.50 -1.07 10.40 -2.49 0.12 4.28 14034
-0.00 0.01 4.62 -1.77 10.56 -2.57 0.12 4.27 14042
-0.00 0.00 4.98 -2.67 10.70 -2.57 0.11 4.07 14049
-0.00 0.00 5.36 -3.44 11.00 -2.51 0.14 3.78 14056
-0.00 0.01 5.96 -3.96 11.34 -2.42 0.23 3.55 14063
-0.00 0.01 6.33 -4.42 12.06 -2.35 0.36 3.30 14070
-0.00 0.01 6.69 -4.69 13.06 -2.34 0.50 3.13 14077
-0.00 0.00 6.95 -4.97 13.90 -2.40 0.65 2.96 14085
0.00 0.00 6.99 -5.36 14.31 -2.50 0.72 2.84 14092
-0.00 0.00 7.12 -5.95 14.24 -2.59 0.74 2.72 14099
-0.00 0.01 7.37 -6.56 14.22 -2.61 0.77 2.57 14106
-0.00 0.00 7.42 -6.99 14.21 -2.61 0.83 2.39 14113
0.00 0.00 7.07 -7.26 13.87 -2.59 0.97 2.24 14120
0.00 0.00 5.58 -7.43 13.21 -2.56 1.09 2.05 14128
0.00 0.00 4.55 -7.84 13.62 -2.46 1.35 1.83 14135
0.00 0.00 2.54 -8.00 14.20 -2.35 1.57 1.49 14142
-0.00 0.01 0.57 -7.93 14.29 -2.27 1.61 1.09 14149
0.00 0.00 -0.91 -8.11 14.15 -2.24 1.51 0.75 14156
0.00 0.00 -1.40 -8.62 13.56 -2.22 1.31 0.31 14163
0.00 0.00 -1.12 -9.09 13.18 -2.15 1.19 -0.05 14171
0.00 0.00 -0.72 -9.45 12.73 -2.04 1.16 -0.42 14178
0.00 0.00 -0.36 -9.51 12.55 -2.01 1.21 -0.68 14185
-0.00 0.00 -0.29 -9.50 12.20 -2.00 1.31 -0.80 14192
0.00 0.00 -0.84 -9.58 11.63 -2.03 1.37 -0.86 14199
0.00 0.00 -1.57 -10.10 10.64 -2.07 1.31 -0.85 14206
0.00 0.00 -2.27 -10.93 10.16 -2.05 1.18 -0.82 14214
0.00 0.00 -2.54 -11.78 9.13 -2.00 1.07 -0.79 14221
-0.00 0.00 -2.97 -12.62 8.38 -1.89 0.99 -0.79 14228
-0.00 0.01 -3.61 -13.47 7.82 -1.76 0.93 -0.77 14235
0.00 0.00 -4.43 -14.24 7.47 -1.56 0.85 -0.73 14242
0.00 0.00 -5.44 -14.85 6.97 -1.34 0.71 -0.63 14249
0.00 0.00 -6.71 -15.21 6.76 -1.13 0.57 -0.46 14257
0.00 0.00 -6.74 -15.53 6.69 -0.88 0.40 -0.28 14264
-0.00 0.00 -7.32 -15.63 6.64 -0.64 0.22 -0.02 14271
0.00 0.00 -7.80 -15.81 6.47 -0.45 0.06 0.28 14278
0.00 0.00 -8.02 -15.88 6.97 -0.21 -0.14 0.53 14285
0.00 0.00 -7.62 -15.13 7.86 -0.05 -0.25 0.79 14292
0.00 0.00 -7.36 -13.27 8.08 0.06 -0.32 0.97 14300
0.00 0.00 -7.78 -10.77 7.83 0.09 -0.38 1.07 14307
0.00 0.00 -19.31 -14.27 11.69 0.34 -1.00 1.37 14314
0.00 0.00 -17.08 -4.69 9.55 1.27 -4.28 2.10 14321
0.00 0.03 3.22 10.67 -2.13 1.49 -4.28 1.76 14328
-0.00 0.14 -15.30 3.69 19.22 2.12 -2.82 2.21 14337
-0.04 0.43 -7.94 4.90 7.33 2.32 -1.53 2.18 14343
-0.04 0.73 -9.34 -2.15 16.62 3.29 -0.79 1.74 14351
-0.06 0.90 -6.45 -3.92 15.56 3.97 -0.25 1.35 14358
-0.06 1.00 -6.97 -6.33 22.29 3.83 0.62 1.12 14365
-0.07 1.03 -4.70 -3.24 17.46 3.35 0.63 0.63 14372
-0.06 1.05 -3.27 -3.14 16.01 3.10 0.28 0.15 14380
-0.06 0.97 -0.18 -2.39 15.72 2.84 0.46 -0.07 14387
-0.05 0.93 1.03 -4.45 25.05 1.94 0.22 -0.02 14394
-0.05 0.90 2.65 -1.60 12.54 0.39 -0.32 -0.01 14401
-0.03 0.80 0.31 -3.10 12.15 0.21 -0.23 0.03 14408
-0.04 0.75 0.36 -1.08 10.24 0.20 -0.19 0.03 14414
-0.02 0.68 0.14 -0.91 9.52 0.15 -0.12 0.02 14422
-0.02 0.66 0.08 -1.02 9.77 0.09 -0.04 0.02 14429
-0.00 0.62 0.11 -1.10 9.89 0.05 0.03 0.03 14436
0.02 0.62 0.38 -1.14 9.91 0.02 0.07 0.02 14443
0.02 0.59 0.61 -1.04 9.78 0.01 0.05 0.01 14450
0.03 0.62 0.41 -0.91 9.79 -0.00 0.03 -0.00 14457
0.04 0.59 0.26 -0.92 9.78 -0.01 0.03 -0.01 14465
0.04 0.60 0.22 -0.80 9.85 -0.00 0.03 -0.00 14472
0.07 0.56 0.27 -0.76 9.90 0.02 0.04 -0.00 14479
0.10 0.57 0.23 -0.77 9.85 0.04 0.03 -0.00 14486
0.08 0.55 0.18 -0.76 9.84 0.05 0.04 -0.00 14493
0.09 0.52 0.18 -0.78 9.87 0.07 0.05 0.00 14500
0.08 0.51 0.27 -0.76 9.92 0.09 0.04 0.00 14508
0.10 0.44 0.22 -0.78 9.89 0.11 0.04 0.00 14515
0.11 0.42 0.21 -0.84 9.82 0.12 0.05 0.01 14522
0.12 0.38 0.31 -0.85 9.81 0.13 0.06 0.00 14529
0.11 0.36 0.33 -0.91 9.75 0.13 0.06 0.00 14536
0.12 0.28 0.37 -0.88 9.75 0.13 0.06 0.00 14543
0.12 0.27 0.43 -0.91 9.66 0.12 0.04 -0.00 14551
0.13 0.25 0.43 -0.93 9.56 0.11 0.03 -0.01 14558
0.15 0.24 0.46 -0.91 9.55 0.08 0.01 -0.01 14565
0.16 0.24 0.47 -0.92 9.52 0.06 0.00 -0.01 14572
0.15 0.24 0.40 -0.92 9.52 0.04 -0.01 -0.02 14579
0.16 0.23 0.37 -0.90 9.59 0.02 -0.02 -0.02 14586
0.15 0.24 0.34 -0.93 9.64 0.01 -0.02 -0.02 14594
0.15 0.23 0.36 -0.92 9.77 0.01 -0.02 -0.02 14601
0.16 0.24 0.33 -0.93 9.74 0.01 -0.03 -0.02 14608
0.16 0.26 0.34 -0.97 9.74 0.01 -0.03 -0.02 14615
0.16 0.27 0.29 -0.93 9.71 0.00 -0.03 -0.02 14622
0.16 0.23 0.34 -0.95 9.68 0.00 -0.04 -0.02 14629
0.15 0.26 0.31 -0.89 9.64 0.00 -0.06 -0.03 14637
0.16 0.26 0.35 -0.91 9.71 0.00 -0.07 -0.03 14644
0.17 0.27 0.32 -0.89 9.74 0.01 -0.07 -0.03 14651
0.17 0.27 0.26 -0.92 9.75 0.02 -0.09 -0.03 14658
0.17 0.26 0.33 -0.94 9.76 0.02 -0.09 -0.03 14665
0.17 0.24 0.28 -0.91 9.75 0.04 -0.11 -0.03 14672
0.17 0.24 0.30 -0.88 9.75 0.05 -0.11 -0.04 14680
0.17 0.23 0.29 -0.95 9.72 0.06 -0.12 -0.04 14687
0.18 0.21 0.15 -0.95 9.79 0.07 -0.12 -0.04 14694
0.18 0.20 0.18 -0.94 9.75 0.07 -0.11 -0.04 14701
0.18 0.18 0.16 -0.96 9.76 0.08 -0.10 -0.04 14708
0.18 0.21 0.12 -0.99 9.83 0.08 -0.09 -0.04 14715
0.19 0.16 0.13 -1.00 9.75 0.08 -0.08 -0.03 14723
0.19 0.17 0.13 -0.94 9.68 0.09 -0.07 -0.04 14730
0.21 0.13 0.22 -0.97 9.78 0.12 -0.07 -0.04 14737
0.21 0.10 0.19 -1.00 9.80 0.14 -0.08 -0.04 14744
0.22 0.07 0.20 -1.06 9.80 0.16 -0.09 -0.05 14751
0.22 0.07 0.16 -1.01 9.77 0.17 -0.10 -0.05 14758
0.24 0.05 0.25 -0.99 9.82 0.18 -0.10 -0.05 14766
0.26 0.05 0.16 -1.07 9.90 0.19 -0.10 -0.06 14773
0.27 0.04 0.15 -1.14 9.81 0.19 -0.11 -0.06 14780
0.27 0.02 0.17 -1.12 9.83 0.21 -0.11 -0.07 14787
0.28 0.03 0.08 -1.18 10.01 0.22 -0.11 -0.07 14794
0.30 -0.01 0.06 -1.20 9.93 0.24 -0.11 -0.08 14801
0.36 -0.01 0.13 -1.23 10.08 0.25 -0.12 -0.09 14810
0.34 -0.01 0.31 -1.02 10.06 0.28 -0.14 -0.10 14817
0.35 -0.02 0.05 -1.35 10.07 0.29 -0.14 -0.11 14824
0.35 -0.03 0.16 -1.28 10.29 0.32 -0.14 -0.12 14831
0.37 -0.04 0.28 -1.34 10.64 0.38 -0.15 -0.14 14837
0.31 -0.02 0.25 -1.44 10.89 0.47 -0.22 -0.17 14845
0.36 -0.01 -0.03 -1.56 11.59 0.64 -0.30 -0.17 14853
0.37 -0.02 0.46 -1.76 11.70 0.85 -0.35 -0.18 14860
0.36 -0.03 1.08 -1.76 12.02 1.02 -0.10 -0.25 14867
0.36 -0.03 0.09 -1.75 12.13 1.20 -0.04 -0.28 14874
0.37 -0.03 0.22 -1.77 12.49 1.36 -0.07 -0.28 14881
0.40 -0.03 -0.16 -1.84 12.76 1.49 -0.08 -0.23 14888
0.41 -0.02 -0.01 -1.96 12.89 1.66 -0.14 -0.25 14896
0.41 -0.02 0.28 -2.00 13.22 1.84 -0.23 -0.24 14903
0.41 -0.03 0.39 -2.09 14.60 2.08 -0.34 -0.26 14910
0.43 -0.04 0.91 -2.32 15.05 2.36 -0.49 -0.28 14917
0.38 -0.02 1.38 -2.31 15.70 2.61 -0.68 -0.33 14924
0.36 -0.02 1.83 -2.58 15.83 2.89 -0.96 -0.39 14931
0.35 -0.02 2.09 -2.56 15.85 3.13 -1.29 -0.48 14939
0.34 -0.01 2.69 -2.49 14.84 3.36 -1.60 -0.60 14946
0.31 -0.02 3.01 -3.46 14.95 3.57 -1.89 -0.76 14953
0.24 -0.02 2.66 -4.16 16.62 3.72 -1.94 -0.95 14960
0.18 -0.01 1.89 -4.43 17.43 3.84 -2.25 -1.04 14967
0.14 -0.01 3.82 -4.60 16.27 3.89 -2.76 -1.16 14973
0.12 -0.01 5.64 -4.69 16.30 3.84 -3.07 -1.35 14981
0.12 -0.01 6.64 -5.83 17.20 3.73 -3.26 -1.66 14988
0.07 -0.01 7.43 -5.32 17.34 3.53 -3.40 -1.97 14995
0.05 -0.00 7.59 -5.23 17.74 3.20 -3.48 -2.22 15002
0.00 0.00 7.76 -4.47 17.81 2.81 -3.62 -2.48 15009
0.01 -0.00 8.10 -1.97 13.57 2.41 -3.90 -2.64 15016
0.00 0.00 9.58 0.88 10.54 2.09 -4.14 -2.74 15024
0.01 -0.00 13.80 5.51 8.66 1.78 -3.98 -2.62 15031
0.00 0.00 28.39 17.11 5.24 1.39 -3.26 -1.68 15038
0.00 0.00 22.58 6.76 17.98 0.63 -0.57 0.48 15045
0.00 0.00 18.90 10.19 10.59 -0.60 0.31 1.71 15052
0.00 0.00 9.37 8.73 10.01 -1.09 -0.12 2.64 15059
0.00 0.00 9.07 6.68 10.30 -1.38 -0.92 3.14 15067
0.00 0.00 10.65 6.10 9.45 -1.57 -1.23 3.17 15074
0.00 0.00 11.87 6.12 8.79 -1.77 -0.74 2.82 15081
0.00 0.00 11.13 5.47 9.06 -2.00 0.05 2.17 15088
0.00 0.00 8.20 4.51 9.30 -2.25 0.84 1.51 15095
0.00 0.00 5.13 3.62 9.56 -2.42 1.25 0.73 15102
0.00 0.00 3.57 2.86 9.41 -2.54 1.38 0.11 15110
0.00 -0.00 3.38 1.92 9.17 -2.60 1.42 -0.50 15117
0.00 0.00 3.24 0.96 9.35 -2.61 1.51 -0.95 15124
0.00 0.00 3.36 0.44 9.51 -2.61 1.71 -1.19 15131
0.00 0.00 3.06 0.17 9.90 -2.60 1.97 -1.29 15138
-0.00 0.01 2.52 -0.05 10.41 -2.59 2.19 -1.19 15145
0.00 -0.00 1.72 -0.13 10.82 -2.60 2.31 -1.00 15153
0.00 0.00 1.23 -0.36 11.11 -2.58 2.34 -0.68 15160
0.00 0.00 1.05 -0.59 11.32 -2.53 2.34 -0.36 15167
0.00 0.00 1.04 -0.71 11.65 -2.48 2.36 -0.02 15174
0.00 0.00 0.88 -0.61 11.89 -2.42 2.42 0.27 15181
0.00 0.00 0.09 -0.40 12.38 -2.38 2.50 0.49 15188
0.00 0.00 -0.83 -0.53 12.86 -2.38 2.52 0.70 15196
0.00 0.00 -1.51 -0.61 13.19 -2.40 2.45 0.82 15203
0.00 0.00 -1.89 -0.90 13.37 -2.43 2.36 0.90 15210
0.00 0.00 -1.96 -1.17 13.33 -2.46 2.30 0.92 15217
0.00 0.00 -2.46 -1.49 13.32 -2.47 2.25 0.84 15224
0.00 0.00 -2.94 -1.64 13.41 -2.45 2.25 0.67 15232
0.00 0.00 -3.21 -1.65 13.55 -2.41 2.25 0.45 15239
0.00 0.00 -3.53 -1.84 13.82 -2.39 2.26 0.19 15246
0.00 0.00 -3.89 -1.85 14.19 -2.37 2.28 -0.08 15253
0.00 0.00 -4.23 -2.08 14.33 -2.36 2.28 -0.28 15260
0.00 0.00 -4.50 -2.38 14.35 -2.35 2.25 -0.44 15267
0.00 -0.00 -4.72 -2.67 14.26 -2.32 2.20 -0.53 15275
0.00 0.00 -4.84 -2.96 14.16 -2.28 2.10 -0.57 15282
0.00 0.00 -4.82 -3.22 14.05 -2.26 2.02 -0.57 15289
0.00 0.00 -4.96 -3.55 13.98 -2.23 1.93 -0.57 15296
0.00 0.00 -5.16 -3.74 13.60 -2.21 1.86 -0.57 15303
0.00 0.00 -5.30 -3.87 13.16 -2.19 1.79 -0.63 15310
0.00 0.00 -5.43 -4.11 12.95 -2.14 1.71 -0.66 15318
0.00 0.00 -5.43 -4.23 12.47 -2.10 1.66 -0.79 15325
0.00 0.00 -5.56 -4.39 12.16 -2.05 1.60 -0.93 15332
0.00 0.00 -5.98 -4.63 11.90 -1.97 1.54 -1.12 15339
0.00 0.00 -6.33 -5.46 11.69 -1.96 1.46 -1.33 15346
0.00 0.00 -6.79 -5.55 11.02 -1.93 1.34 -1.49 15353
0.00 0.00 -6.26 -6.72 10.21 -1.92 1.15 -1.66 15361
0.00 0.00 -5.27 -8.11 9.74 -1.91 0.98 -1.76 15368
0.00 0.00 -4.81 -9.70 9.04 -1.86 0.93 -1.77 15375
0.00 0.00 -5.25 -11.07 8.16 -1.73 1.02 -1.65 15382
0.00 0.00 -7.13 -12.47 7.59 -1.49 1.13 -1.40 15389
0.00 0.00 -9.55 -14.07 7.11 -1.21 1.10 -0.93 15396
0.00 0.00 -11.60 -15.12 7.16 -0.86 0.86 -0.35 15404
0.00 0.00 -12.96 -15.59 7.24 -0.54 0.37 0.44 15411
0.00 0.00 -12.89 -14.92 7.36 -0.34 -0.07 1.28 15418
0.00 0.00 -22.25 -24.67 8.68 0.23 -1.50 2.00 15425
-0.00 0.01 -30.51 -23.28 2.19 1.00 -4.28 3.09 15433
-0.00 0.03 -9.07 -20.92 2.54 1.54 -4.28 3.29 15439
-0.01 0.11 -10.21 -0.38 10.12 2.33 -4.28 3.43 15448
-0.04 0.50 -14.70 2.43 17.50 2.70 -1.90 3.66 15455
-0.07 0.89 -19.63 1.96 18.70 3.05 -1.49 2.91 15462
-0.07 1.08 -14.31 -4.29 20.57 3.76 -1.70 1.56 15469
-0.07 1.14 -11.60 -8.24 19.39 3.87 -0.41 0.95 15476
-0.06 1.18 -5.01 -4.17 18.31 3.47 -0.05 0.46 15483
-0.06 1.20 -0.79 -2.86 17.32 2.96 0.30 0.22 15491
-0.07 1.14 0.58 -2.27 15.60 2.53 0.58 0.25 15498
-0.06 1.06 -0.93 -4.64 19.85 1.02 -0.17 0.29 15505
-0.03 0.97 -0.68 -3.35 12.89 0.13 -0.15 0.16 15512
-0.05 0.95 -0.32 -2.34 10.25 0.15 -0.13 0.03 15519
0.01 0.84 0.75 -0.57 9.66 0.14 -0.06 0.06 15525
-0.00 0.80 0.19 -0.70 9.54 0.14 -0.08 0.05 15533
0.03 0.73 -0.11 -1.59 9.92 0.09 -0.04 0.04 15540
0.03 0.69 0.09 -1.25 10.00 0.05 0.01 0.03 15547
0.03 0.72 0.41 -1.02 9.94 0.04 0.02 0.03 15554
0.06 0.69 0.47 -1.07 9.79 0.03 -0.00 0.01 15561
0.07 0.67 0.22 -1.00 9.73 0.02 -0.02 -0.00 15568
0.07 0.67 -0.00 -0.87 9.85 0.01 -0.00 -0.00 15576
0.08 0.65 0.05 -0.79 10.02 0.02 0.01 0.01 15583
0.09 0.61 0.08 -0.72 9.97 0.05 0.02 0.01 15590
0.10 0.62 0.02 -0.76 9.90 0.07 0.03 0.01 15597
0.11 0.63 0.07 -0.80 9.83 0.08 0.04 0.02 15604
0.11 0.58 0.19 -0.83 9.90 0.09 0.03 0.02 15611
0.10 0.52 0.18 -0.84 9.90 0.11 0.03 0.02 15619
0.10 0.50 0.11 -0.85 9.84 0.12 0.02 0.01 15626
0.10 0.48 0.19 -0.90 9.80 0.13 0.03 0.01 15633
0.10 0.43 0.22 -0.91 9.72 0.13 0.03 0.01 15640
0.11 0.40 0.25 -0.93 9.68 0.11 0.01 0.00 15647
0.11 0.37 0.23 -0.92 9.63 0.10 0.01 -0.00 15654
0.10 0.36 0.36 -0.92 9.54 0.08 0.00 -0.00 15662
0.09 0.31 0.32 -0.93 9.54 0.05 -0.01 -0.01 15669
0.11 0.31 0.32 -1.01 9.49 0.03 -0.02 -0.02 15676
0.11 0.30 0.27 -0.97 9.54 0.01 -0.02 -0.02 15683
0.12 0.31 0.31 -0.95 9.66 -0.01 -0.02 -0.02 15690
0.11 0.32 0.26 -0.95 9.64 -0.03 -0.02 -0.03 15697
0.11 0.32 0.22 -0.91 9.60 -0.04 -0.02 -0.03 15705
0.10 0.34 0.17 -0.90 9.68 -0.03 -0.02 -0.03 15712
0.11 0.38 0.21 -0.88 9.69 -0.02 -0.03 -0.03 15719
0.11 0.39 0.13 -0.92 9.69 -0.01 -0.03 -0.03 15726
0.12 0.39 0.15 -0.91 9.70 -0.00 -0.04 -0.03 15733
0.12 0.39 0.18 -0.93 9.75 0.01 -0.04 -0.03 15740
0.13 0.38 0.17 -0.94 9.79 0.02 -0.05 -0.03 15748
0.12 0.37 0.13 -0.91 9.77 0.04 -0.06 -0.03 15755
0.13 0.37 0.04 -0.95 9.75 0.05 -0.05 -0.04 15762
0.15 0.38 0.18 -0.95 9.58 0.05 -0.05 -0.03 15769
0.16 0.35 0.06 -0.93 9.70 0.05 -0.06 -0.04 15776
0.16 0.32 0.12 -0.95 9.79 0.06 -0.06 -0.04 15783
0.15 0.29 0.10 -0.94 9.75 0.07 -0.05 -0.04 15791
0.14 0.25 0.11 -0.93 9.81 0.09 -0.06 -0.05 15798
0.14 0.25 0.16 -0.93 9.81 0.11 -0.06 -0.05 15805
0.17 0.26 0.16 -0.91 10.35 0.13 -0.07 -0.05 15813
0.19 0.15 0.13 -0.89 9.89 0.16 -0.08 -0.05 15819
0.20 0.20 0.13 -0.85 9.84 0.20 -0.09 -0.06 15826
0.20 0.13 0.08 -0.96 9.90 0.22 -0.10 -0.06 15834
0.22 0.11 0.13 -1.13 9.87 0.24 -0.12 -0.06 15841
0.23 0.11 0.26 -0.97 9.98 0.26 -0.13 -0.07 15848
0.24 0.07 0.20 -1.18 10.01 0.28 -0.15 -0.08 15855
0.28 0.04 0.07 -1.12 10.05 0.32 -0.16 -0.09 15862
0.37 -0.02 0.08 -1.41 10.04 0.36 -0.16 -0.10 15870
0.41 -0.03 0.13 -1.47 10.08 0.40 -0.18 -0.13 15878
0.43 -0.03 0.29 -1.72 10.44 0.45 -0.24 -0.16 15885
0.48 -0.01 0.52 -1.46 11.00 0.52 -0.36 -0.21 15892
0.51 -0.03 0.59 -1.65 11.42 0.62 -0.54 -0.27 15899
0.50 -0.03 0.24 -1.65 12.40 0.79 -0.74 -0.31 15906
0.54 -0.04 0.20 -1.76 13.78 1.06 -0.92 -0.32 15913
0.52 -0.03 1.17 -1.99 14.42 1.36 -0.84 -0.36 15921
0.55 -0.03 0.35 -1.72 14.37 1.66 -0.64 -0.43 15928
0.57 -0.03 0.10 -1.87 14.64 1.90 -0.74 -0.42 15935
0.60 -0.04 0.04 -1.95 15.86 2.20 -0.76 -0.43 15941
0.56 -0.03 -0.23 -1.94 15.97 2.56 -0.85 -0.43 15949
0.60 -0.04 0.28 -1.87 17.16 2.85 -0.96 -0.42 15956
0.60 -0.03 0.78 -2.17 18.22 3.24 -1.17 -0.44 15964
0.52 -0.02 1.84 -2.48 19.57 3.59 -1.51 -0.52 15971
0.44 -0.02 2.97 -2.22 18.64 4.02 -1.79 -0.66 15978
0.38 -0.02 2.50 -2.62 21.35 4.26 -1.97 -0.85 15985
0.32 -0.02 4.16 -4.19 20.78 4.28 -2.61 -1.02 15992
0.18 -0.02 8.18 -4.71 20.65 4.28 -3.38 -1.26 15998
0.12 -0.01 11.50 -5.43 19.88 4.28 -3.76 -1.72 16007
0.14 -0.00 13.01 -7.17 21.26 4.28 -3.79 -2.19 16014
0.09 -0.01 15.29 -5.65 21.57 4.25 -3.72 -2.74 16021
0.04 -0.00 15.01 -6.33 21.33 3.93 -3.37 -3.30 16028
0.04 -0.00 14.18 -1.71 18.96 3.38 -3.16 -3.73 16035
0.00 0.00 14.93 3.67 13.82 2.94 -3.31 -4.03 16041
0.00 0.00 16.22 8.05 9.81 2.46 -3.53 -4.11 16049
0.00 0.00 42.93 23.00 4.67 2.01 -3.14 -3.22 16056
0.01 -0.00 26.92 5.50 24.24 1.33 -0.32 -0.57 16063
0.00 0.00 21.94 10.17 9.56 0.26 0.97 0.47 16070
0.00 0.00 12.63 8.63 9.81 0.09 0.62 1.59 16077
0.00 0.00 13.16 7.70 11.86 -0.32 0.20 2.09 16084
0.00 0.00 12.96 7.66 10.69 -0.81 0.22 2.27 16092
0.00 0.00 10.53 7.45 9.91 -1.24 0.62 1.97 16099
0.00 0.00 8.15 6.25 9.64 -1.65 0.98 1.44 16106
0.00 0.00 5.50 5.03 8.94 -1.93 1.27 0.71 16113
0.00 0.00 4.51 3.94 8.54 -2.11 1.41 -0.04 16120
0.00 0.00 4.16 2.85 8.31 -2.25 1.63 -0.60 16128
0.00 0.00 3.69 2.06 8.27 -2.33 1.99 -1.05 16135
0.00 0.00 2.93 1.52 8.69 -2.39 2.24 -1.26 16142
0.00 0.00 1.94 1.29 9.41 -2.42 2.41 -1.27 16149
0.00 0.00 1.56 1.37 9.81 -2.45 2.46 -1.08 16156
0.00 0.00 1.51 1.24 9.96 -2.51 2.50 -0.82 16163
0.00 0.00 1.63 0.85 10.26 -2.57 2.58 -0.46 16171
0.00 0.00 1.55 0.50 10.80 -2.64 2.66 -0.15 16178
0.00 -0.00 1.23 0.18 11.41 -2.70 2.78 0.15 16185
0.00 0.00 0.73 -0.06 12.12 -2.74 2.86 0.38 16192
0.00 0.00 -0.08 -0.42 12.72 -2.79 2.94 0.51 16199
0.00 0.00 -0.51 -0.89 13.30 -2.82 2.97 0.60 16206
0.00 0.00 -0.74 -1.20 13.96 -2.83 2.98 0.64 16214
-0.00 0.00 -1.11 -1.55 14.41 -2.82 3.01 0.66 16221
0.00 0.00 -1.48 -1.72 14.64 -2.82 3.03 0.65 16228
0.00 0.00 -1.91 -1.92 14.65 -2.81 3.04 0.66 16235
0.00 0.00 -2.71 -2.64 14.30 -2.80 3.06 0.67 16242
0.00 0.00 -4.48 -3.12 14.29 -2.73 3.12 0.57 16249
0.00 0.00 -6.06 -3.40 14.35 -2.61 3.18 0.41 16257
0.00 0.00 -6.17 -3.64 14.73 -2.55 3.10 0.15 16264
0.00 -0.00 -5.90 -3.32 15.75 -2.50 2.93 -0.01 16271
0.00 0.00 -5.79 -2.77 16.26 -2.47 2.88 -0.11 16278
0.00 0.00 -6.34 -2.61 16.20 -2.47 2.93 -0.16 16285
0.00 0.00 -7.69 -3.08 16.43 -2.45 3.00 -0.19 16292
0.00 0.00 -9.92 -3.72 16.62 -2.41 2.98 -0.24 16300
0.00 0.00 -11.84 -4.23 16.44 -2.35 2.83 -0.30 16307
0.00 0.00 -13.14 -4.60 16.20 -2.30 2.55 -0.39 16314
0.00 0.00 -13.93 -5.02 15.97 -2.27 2.27 -0.45 16321
0.00 0.00 -15.01 -5.47 15.64 -2.25 1.94 -0.45 16328
0.00 0.00 -15.78 -6.61 14.99 -2.23 1.59 -0.37 16335
0.00 0.00 -16.57 -7.98 12.31 -2.21 1.32 -0.24 16343
0.00 0.00 -13.35 -11.25 9.55 -2.24 0.77 -0.11 16350
0.00 0.00 -7.40 -14.77 10.30 -2.23 -0.09 -0.06 16357
0.00 0.00 -4.22 -17.25 8.87 -2.01 -0.27 0.04 16364
0.00 0.00 -1.84 -18.67 6.95 -1.63 0.19 0.15 16371
0.00 0.00 -2.79 -19.17 6.76 -1.25 0.61 0.21 16378
0.00 0.00 -5.35 -18.92 7.07 -0.79 0.84 0.36 16386
0.00 0.00 -8.42 -17.66 7.23 -0.44 0.77 0.61 16393
0.00 0.00 -10.20 -16.65 7.40 -0.10 0.52 0.90 16400
0.00 0.00 -11.94 -15.31 7.75 0.18 0.20 1.26 16407
0.00 0.00 -12.59 -14.10 7.95 0.38 -0.07 1.62 16414
0.00 0.00 -12.26 -12.10 8.32 0.56 -0.35 1.88 16421
0.00 0.00 -11.24 -9.43 8.29 0.63 -0.57 2.12 16429
0.00 0.00 -21.14 -10.43 16.40 0.93 -1.55 2.34 16437
-0.00 0.00 -10.87 -4.11 9.28 1.52 -4.28 3.08 16443
-0.00 0.03 0.91 8.06 0.66 1.50 -4.28 2.56 16450
-0.02 0.19 -14.12 11.77 16.95 2.01 -4.24 2.73 16458
-0.05 0.54 -16.04 3.34 18.51 2.49 -1.86 2.79 16465
-0.06 0.95 -11.99 0.71 12.61 3.41 -1.57 2.05 16473
-0.06 0.99 -11.12 -7.66 21.43 4.24 -0.38 1.66 16480
-0.06 1.03 -9.61 -6.93 20.08 3.83 0.05 1.08 16487
-0.06 1.05 -4.67 -4.66 18.78 3.04 0.11 0.48 16494
-0.07 1.04 0.02 -3.02 19.19 2.38 0.20 0.16 16500
-0.06 0.97 0.39 -2.23 13.93 0.66 -0.53 0.16 16508
-0.01 0.93 -0.72 -4.54 13.80 0.04 -0.30 0.17 16516
0.01 0.84 -0.50 -1.33 9.89 0.13 -0.19 0.06 16522
0.02 0.81 0.33 -0.28 9.21 0.13 -0.11 0.06 16529
0.04 0.75 -0.06 -1.12 9.34 0.07 -0.08 0.06 16536
0.04 0.69 0.00 -1.53 9.84 -0.01 -0.03 0.04 16543
0.05 0.72 0.06 -1.09 9.89 -0.04 0.00 0.03 16550
0.06 0.73 0.14 -0.86 9.89 -0.04 0.03 0.04 16558
0.06 0.71 0.15 -0.92 9.85 -0.04 0.05 0.04 16565
0.06 0.74 0.33 -0.95 9.82 -0.04 0.06 0.04 16572
0.08 0.72 0.36 -0.79 9.74 -0.04 0.04 0.02 16579
0.07 0.71 0.19 -0.72 9.82 -0.04 0.04 0.01 16586
0.10 0.75 0.18 -0.68 9.91 -0.03 0.04 0.01 16593
0.11 0.74 0.16 -0.68 9.92 -0.01 0.05 0.01 16601
0.10 0.74 0.21 -0.67 9.89 0.02 0.04 0.01 16608
0.10 0.69 0.22 -0.70 9.81 0.04 0.04 0.01 16615
0.09 0.68 0.19 -0.69 9.81 0.05 0.04 0.01 16622
0.09 0.65 0.21 -0.67 9.83 0.07 0.03 0.01 16629
0.07 0.64 0.15 -0.68 9.86 0.09 0.04 0.01 16636
0.09 0.58 0.18 -0.72 9.81 0.11 0.04 0.01 16644
0.08 0.53 0.23 -0.74 9.79 0.12 0.04 0.00 16651
0.10 0.48 0.21 -0.73 9.79 0.12 0.04 -0.00 16658
0.10 0.45 0.26 -0.77 9.68 0.12 0.04 0.00 16665
0.10 0.44 0.30 -0.82 9.60 0.11 0.03 -0.01 16672
0.09 0.41 0.33 -0.81 9.52 0.08 0.03 -0.01 16679
0.11 0.37 0.33 -0.84 9.57 0.06 0.03 -0.01 16687
0.10 0.34 0.36 -0.80 9.55 0.05 0.02 -0.02 16694
0.11 0.34 0.34 -0.79 9.59 0.03 0.01 -0.02 16701
0.10 0.39 0.31 -0.80 9.65 0.02 -0.00 -0.02 16708
0.10 0.37 0.32 -0.83 9.65 0.02 -0.01 -0.03 16715
0.10 0.41 0.23 -0.81 9.66 0.02 -0.02 -0.03 16722
0.12 0.38 0.25 -0.82 9.69 0.02 -0.02 -0.03 16730
0.12 0.37 0.21 -0.81 9.69 0.02 -0.03 -0.03 16737
0.13 0.34 0.29 -0.85 9.70 0.02 -0.03 -0.03 16744
0.13 0.36 0.21 -0.81 9.66 0.01 -0.03 -0.03 16751
0.14 0.38 0.18 -0.86 9.73 0.01 -0.03 -0.03 16758
0.15 0.38 0.19 -0.82 9.69 -0.00 -0.03 -0.03 16765
0.14 0.38 0.16 -0.78 9.56 -0.00 -0.02 -0.03 16773
0.12 0.38 0.14 -0.81 9.77 0.01 -0.00 -0.03 16780
0.12 0.37 0.17 -0.76 9.82 0.04 0.01 -0.03 16787
0.12 0.36 0.13 -0.75 9.76 0.06 0.02 -0.02 16794
0.13 0.33 0.15 -0.74 9.82 0.07 0.02 -0.02 16801
0.14 0.30 0.29 -0.81 9.89 0.09 0.01 -0.02 16808
0.14 0.29 0.15 -0.86 9.94 0.12 -0.00 -0.02 16816
0.15 0.25 0.27 -0.81 9.88 0.14 -0.02 -0.03 16823
0.16 0.23 0.22 -0.87 9.83 0.16 -0.04 -0.03 16830
0.16 0.19 0.21 -0.86 9.81 0.17 -0.06 -0.03 16837
0.19 0.15 0.14 -0.90 9.86 0.19 -0.07 -0.03 16844
0.22 0.15 0.20 -0.85 9.86 0.23 -0.08 -0.04 16851
0.22 0.13 0.29 -0.91 9.83 0.21 -0.09 -0.04 16859
0.22 0.13 0.16 -0.99 9.80 0.22 -0.09 -0.04 16866
0.23 0.07 0.19 -0.99 9.85 0.23 -0.11 -0.05 16873
0.23 0.05 0.17 -1.06 9.82 0.25 -0.11 -0.06 16880
0.25 0.06 0.21 -1.08 10.01 0.26 -0.12 -0.07 16887
0.30 0.02 0.23 -1.05 9.94 0.28 -0.14 -0.08 16894
0.33 0.01 0.31 -1.15 10.04 0.30 -0.17 -0.09 16902
0.34 -0.02 0.26 -1.15 9.94 0.32 -0.19 -0.12 16909
0.31 -0.03 0.29 -1.21 10.06 0.35 -0.21 -0.14 16917
0.31 -0.02 0.32 -1.32 10.32 0.39 -0.25 -0.17 16924
0.33 -0.01 0.37 -1.43 10.49 0.45 -0.31 -0.20 16931
0.38 -0.03 0.25 -1.46 10.75 0.55 -0.41 -0.23 16939
0.38 -0.02 0.14 -1.43 11.32 0.69 -0.50 -0.27 16946
0.42 -0.04 0.02 -1.70 11.72 0.84 -0.52 -0.28 16953
0.42 -0.03 0.27 -1.71 12.59 1.07 -0.40 -0.28 16960
0.44 -0.03 -0.02 -1.63 12.55 1.24 -0.26 -0.30 16967
0.45 -0.03 -0.06 -1.71 13.46 1.42 -0.30 -0.28 16974
0.47 -0.03 0.01 -1.70 13.24 1.62 -0.32 -0.28 16982
0.43 -0.03 0.10 -1.88 13.47 1.81 -0.32 -0.27 16989
0.47 -0.03 0.08 -1.95 14.02 2.05 -0.37 -0.27 16996
0.42 -0.03 0.61 -2.05 15.26 2.30 -0.44 -0.29 17003
0.46 -0.02 1.09 -2.23 16.77 2.64 -0.59 -0.32 17010
0.44 -0.02 1.67 -2.42 16.77 3.01 -0.85 -0.38 17017
0.42 -0.02 1.22 -1.80 15.88 3.31 -1.01 -0.49 17025
0.39 -0.02 0.31 -2.31 18.18 3.61 -1.13 -0.54 17032
0.29 -0.02 2.81 -3.21 17.65 3.90 -1.76 -0.58 17039
0.25 -0.02 5.59 -3.94 16.08 4.07 -2.28 -0.78 17046
0.21 -0.00 7.46 -4.88 16.51 4.12 -2.71 -1.15 17053
0.17 -0.02 8.60 -5.17 16.14 4.13 -3.02 -1.57 17059
0.11 -0.01 10.33 -6.13 16.69 4.11 -3.20 -1.96 17068
0.09 -0.01 11.92 -7.15 18.95 4.03 -2.99 -2.44 17075
0.08 -0.01 14.41 -6.35 18.31 3.73 -2.70 -2.85 17082
0.03 -0.00 12.56 -6.36 17.27 3.22 -2.15 -3.35 17089
0.00 -0.00 10.16 -2.33 16.15 2.71 -2.06 -3.75 17096
0.02 -0.00 10.71 2.15 11.67 2.26 -2.43 -3.93 17103
0.00 0.00 16.48 11.89 9.30 1.91 -2.70 -3.63 17110
0.00 0.00 36.78 17.74 4.22 1.29 -1.77 -1.74 17117
0.00 0.00 28.06 8.98 15.56 0.45 0.62 0.45 17124
0.00 0.00 19.51 8.83 7.00 0.23 0.87 1.97 17131
0.00 0.00 14.50 8.76 9.07 0.01 0.81 2.84 17138
0.00 0.00 11.86 7.87 10.01 -0.27 0.35 3.37 17145
0.00 0.00 10.88 8.72 9.65 -0.65 0.22 3.38 17153
0.00 0.00 10.33 8.88 9.56 -1.09 0.45 3.03 17160
0.00 0.00 7.94 8.37 9.87 -1.46 0.86 2.33 17167
0.00 0.00 4.99 7.78 9.80 -1.89 1.05 1.61 17174
0.00 0.00 3.20 6.72 9.77 -2.24 1.10 0.70 17181
0.00 0.00 2.91 5.46 10.08 -2.51 1.16 -0.11 17188
0.00 0.00 2.81 4.25 10.10 -2.71 1.35 -0.70 17196
0.00 0.00 2.57 3.18 10.24 -2.82 1.62 -1.16 17203
0.00 0.00 1.92 2.42 10.44 -2.87 1.83 -1.38 17210
0.00 0.00 1.52 1.66 10.61 -2.85 1.97 -1.42 17217
0.00 0.00 1.35 1.19 10.91 -2.81 2.02 -1.28 17224
0.00 0.00 1.49 0.91 11.35 -2.77 2.04 -1.07 17231
0.00 0.00 1.70 0.63 11.59 -2.73 2.08 -0.75 17239
0.00 0.00 1.94 0.58 12.08 -2.70 2.17 -0.46 17246
0.00 0.00 1.94 0.35 12.63 -2.68 2.34 -0.13 17253
-0.00 0.00 1.50 0.24 13.06 -2.67 2.50 0.16 17260
0.00 0.00 0.91 0.01 13.50 -2.65 2.57 0.36 17267
0.00 0.00 0.13 -0.31 14.08 -2.62 2.59 0.52 17274
0.00 0.00 -0.49 -0.62 14.65 -2.57 2.57 0.62 17282
0.00 0.00 -1.08 -0.96 14.80 -2.55 2.51 0.66 17289
0.00 0.00 -2.40 -1.16 14.64 -2.55 2.49 0.63 17296
-0.00 0.00 -3.58 -1.46 14.82 -2.51 2.55 0.53 17303
0.00 0.00 -5.25 -1.89 15.17 -2.45 2.58 0.28 17310
0.00 0.00 -5.97 -2.10 15.34 -2.40 2.51 -0.02 17317
0.00 0.00 -5.98 -2.32 15.70 -2.38 2.40 -0.26 17325
0.00 0.00 -5.67 -2.20 16.09 -2.38 2.21 -0.45 17332
0.00 0.00 -5.32 -2.16 16.19 -2.38 2.12 -0.49 17339
0.00 0.00 -5.67 -2.30 15.89 -2.38 2.05 -0.49 17346
0.00 0.00 -6.22 -2.78 15.52 -2.34 1.98 -0.44 17353
0.00 0.00 -6.84 -3.27 15.16 -2.27 1.88 -0.39 17360
0.00 0.00 -7.40 -3.83 14.76 -2.19 1.76 -0.36 17368
0.00 0.00 -8.11 -4.27 14.43 -2.07 1.65 -0.37 17375
0.00 0.00 -8.98 -4.73 14.29 -1.93 1.53 -0.43 17382
0.00 0.00 -9.91 -5.21 13.90 -1.82 1.44 -0.55 17389
0.00 0.00 -11.17 -5.74 13.68 -1.70 1.32 -0.72 17396
0.00 0.00 -12.24 -6.11 13.23 -1.64 1.18 -0.96 17403
0.00 0.00 -12.94 -6.68 11.06 -1.65 1.05 -1.27 17411
0.00 0.00 -9.55 -8.59 9.01 -1.82 0.65 -1.49 17418
0.00 0.00 -4.70 -11.15 10.08 -1.94 -0.00 -1.77 17425
0.00 0.00 -1.85 -13.79 8.83 -1.93 0.09 -1.85 17432
0.00 0.00 -1.35 -15.29 6.73 -1.73 0.62 -1.87 17439
0.00 0.00 -3.06 -16.22 5.74 -1.47 0.98 -1.83 17446
0.00 0.00 -6.34 -16.82 5.87 -1.10 1.15 -1.61 17454
0.00 0.00 -9.85 -16.19 5.87 -0.77 1.02 -1.19 17461
0.00 0.00 -14.56 -16.12 4.48 -0.38 0.59 -0.68 17468
0.00 0.00 -33.75 -18.28 11.73 0.49 -2.42 0.40 17475
0.00 0.00 -26.09 -15.74 5.60 0.74 -4.24 1.60 17482
0.00 0.00 -20.34 -22.47 7.09 1.08 -4.28 2.52 17489
