Voltage_01 Voltage_02 Acc_x Acc_y Acc_z Gyro_x Gyro_y Gyro_z Time
5000
0.00 0.00 0.93 11.53 7.35 -0.55 -0.17 1.11 24
0.00 0.00 0.80 11.22 7.64 -0.76 -0.21 1.00 31
0.00 0.00 0.74 10.86 7.91 -0.98 -0.23 0.87 37
-0.00 0.00 0.42 10.23 8.44 -1.19 -0.25 0.79 44
0.00 0.00 0.05 9.48 8.85 -1.39 -0.27 0.66 51
0.00 0.00 -0.08 8.87 9.31 -1.57 -0.32 0.56 57
0.00 0.00 -0.32 8.13 9.62 -1.74 -0.39 0.46 63
0.00 0.00 -0.50 7.29 10.10 -1.86 -0.46 0.37 69
0.00 0.00 -0.55 6.56 10.57 -2.00 -0.51 0.30 75
0.00 0.00 -0.52 5.80 10.90 -2.13 -0.57 0.24 81
-0.00 0.00 -0.44 5.08 11.37 -2.21 -0.63 0.17 88
0.00 0.00 -0.28 4.24 11.85 -2.32 -0.67 0.10 95
0.00 0.00 0.01 3.41 12.31 -2.38 -0.68 0.05 101
0.00 0.00 0.13 2.41 12.79 -2.43 -0.67 -0.01 108
0.00 0.00 0.36 1.58 13.15 -2.47 -0.63 -0.04 115
0.00 0.00 0.60 0.61 13.66 -2.48 -0.55 -0.07 122
-0.00 0.00 0.71 -0.15 13.97 -2.48 -0.47 -0.09 130
0.00 0.00 0.96 -0.98 14.13 -2.46 -0.34 -0.11 137
0.00 0.00 1.75 -1.77 14.20 -2.43 -0.22 -0.11 144
0.00 0.00 1.25 -2.30 14.22 -2.38 -0.06 -0.11 151
0.00 0.00 1.37 -2.91 14.12 -2.32 0.10 -0.11 158
0.00 0.00 1.33 -3.37 14.03 -2.24 0.25 -0.10 165
0.00 0.00 1.23 -3.80 14.00 -2.16 0.39 -0.09 173
0.00 0.00 1.11 -4.32 14.00 -2.09 0.51 -0.06 180
0.00 0.00 1.01 -4.59 13.93 -1.99 0.60 -0.04 187
0.00 0.00 0.80 -4.90 13.83 -1.92 0.68 -0.01 194
-0.00 0.00 0.60 -5.15 13.70 -1.87 0.73 0.04 201
-0.00 0.02 0.23 -5.33 13.63 -1.86 0.80 0.07 208
-0.00 0.01 -0.36 -5.57 13.73 -1.89 0.89 0.11 216
-0.00 0.01 -0.83 -5.65 13.37 -1.96 0.97 0.14 223
0.00 0.00 -1.44 -5.76 13.18 -2.08 1.03 0.14 230
0.00 0.00 -2.02 -5.79 12.69 -2.18 1.06 0.15 237
0.00 0.00 -2.70 -6.15 12.26 -2.29 1.06 0.15 244
0.00 0.00 -3.31 -7.03 11.98 -2.34 1.04 0.16 251
0.00 0.00 -3.54 -7.72 11.30 -2.36 0.94 0.11 259
0.00 0.00 -3.47 -8.58 10.36 -2.32 0.75 0.06 266
0.00 0.00 -3.02 -9.52 9.49 -2.26 0.43 -0.09 273
0.00 0.00 -2.18 -10.35 8.86 -2.18 0.27 -0.23 279
0.00 0.00 -0.95 -11.36 7.67 -2.06 0.13 -0.49 286
-0.00 0.01 -0.23 -12.67 6.59 -1.93 0.20 -0.76 293
-0.00 0.00 -0.10 -13.95 5.85 -1.73 0.44 -0.97 301
0.00 0.00 -0.93 -15.49 5.08 -1.53 0.69 -1.16 308
0.00 0.00 -1.87 -16.46 4.53 -1.25 0.80 -1.23 315
0.00 0.00 -2.91 -16.86 4.39 -0.90 0.77 -1.25 322
0.00 0.00 -3.68 -16.39 4.62 -0.54 0.60 -1.19 329
0.00 0.00 -4.08 -15.47 5.07 -0.06 0.26 -1.11 336
0.00 0.00 -3.76 -14.11 5.98 0.40 -0.16 -1.00 344
0.00 0.00 -3.05 -12.77 7.13 0.72 -0.53 -0.90 351
0.00 0.00 -2.12 -11.44 8.23 0.98 -0.86 -0.81 358
0.00 0.00 2.43 -11.90 5.30 1.09 -1.08 -0.81 365
0.00 0.00 -3.52 -3.23 11.77 2.34 -1.13 -1.28 372
-0.00 0.00 1.37 9.99 5.31 2.39 -0.96 -1.25 379
-0.00 0.02 1.84 1.53 13.69 2.43 -1.32 -1.25 387
-0.01 0.06 3.29 1.07 13.23 2.34 -1.16 -1.05 394
-0.01 0.07 4.07 -0.26 8.33 2.43 -0.95 -0.72 401
-0.01 0.11 3.36 -1.29 10.59 2.65 -0.81 -0.42 408
-0.01 0.16 3.43 -1.23 12.78 2.66 -0.36 0.02 416
0.00 0.17 1.11 -1.57 13.96 2.54 0.19 0.39 423
-0.01 0.22 -0.91 -1.75 13.83 2.37 0.32 0.48 431
-0.02 0.33 -2.52 -2.00 13.21 2.30 0.19 0.32 438
-0.03 0.33 -2.69 -1.93 13.11 2.25 0.17 0.08 445
-0.02 0.35 -1.75 -1.84 12.71 2.12 0.29 -0.09 452
-0.03 0.40 -0.64 -1.73 12.38 1.97 0.37 -0.24 459
-0.01 0.42 0.65 -1.68 12.03 1.80 0.43 -0.26 466
-0.03 0.41 1.74 -1.63 11.73 1.65 0.57 -0.12 474
-0.03 0.40 0.27 -5.36 20.30 1.09 0.44 0.02 480
-0.03 0.47 1.68 -1.26 10.53 -0.09 0.12 0.02 487
-0.02 0.49 -0.37 -2.57 11.28 -0.19 0.15 -0.02 495
-0.02 0.50 0.33 -1.07 10.15 -0.16 0.19 -0.02 502
-0.01 0.48 0.24 -1.27 10.13 -0.16 0.21 -0.00 509
-0.02 0.48 0.26 -0.96 9.81 -0.16 0.22 0.01 516
-0.02 0.50 0.16 -1.18 9.81 -0.18 0.24 0.00 523
-0.04 0.55 0.27 -1.13 9.87 -0.19 0.25 0.00 530
-0.04 0.61 0.33 -0.98 9.99 -0.18 0.25 0.01 537
-0.02 0.62 0.35 -1.00 9.99 -0.16 0.25 0.01 544
-0.02 0.63 0.33 -0.91 9.97 -0.14 0.20 0.01 551
-0.03 0.61 0.37 -0.92 9.84 -0.12 0.21 0.01 559
-0.03 0.60 0.38 -0.91 9.80 -0.11 0.21 0.00 566
-0.04 0.61 0.35 -0.86 9.83 -0.10 0.20 -0.00 573
-0.03 0.69 0.31 -0.83 9.91 -0.09 0.19 -0.00 580
-0.02 0.71 0.36 -0.86 9.88 -0.07 0.19 -0.01 587
-0.03 0.69 0.40 -0.84 9.84 -0.05 0.18 -0.00 594
-0.03 0.70 0.46 -0.82 9.82 -0.03 0.16 -0.00 602
-0.03 0.70 0.39 -0.82 9.81 -0.03 0.14 -0.01 609
-0.03 0.70 0.41 -0.82 9.82 -0.01 0.13 -0.01 616
-0.04 0.69 0.39 -0.83 9.82 -0.00 0.11 -0.01 623
-0.02 0.68 0.40 -0.83 9.83 0.01 0.12 -0.01 630
-0.04 0.65 0.40 -0.81 9.84 0.03 0.11 -0.01 637
-0.04 0.64 0.41 -0.78 9.82 0.04 0.12 -0.01 645
-0.03 0.62 0.44 -0.83 9.80 0.05 0.11 -0.02 652
-0.03 0.61 0.49 -0.84 9.76 0.06 0.11 -0.02 659
-0.03 0.58 0.49 -0.88 9.74 0.07 0.10 -0.02 666
-0.01 0.52 0.51 -0.81 9.70 0.06 0.10 -0.02 673
-0.01 0.50 0.49 -0.85 9.69 0.06 0.09 -0.03 680
-0.02 0.49 0.55 -0.86 9.69 0.06 0.09 -0.03 688
-0.02 0.48 0.53 -0.87 9.67 0.06 0.08 -0.03 695
-0.01 0.45 0.54 -0.86 9.66 0.05 0.07 -0.03 702
-0.01 0.47 0.51 -0.86 9.66 0.05 0.07 -0.03 709
0.00 0.43 0.51 -0.87 9.69 0.05 0.06 -0.04 716
-0.00 0.44 0.52 -0.88 9.70 0.04 0.06 -0.04 723
-0.00 0.41 0.52 -0.91 9.74 0.04 0.05 -0.04 731
-0.01 0.42 0.51 -0.92 9.70 0.03 0.05 -0.04 738
-0.00 0.41 0.51 -0.88 9.77 0.03 0.05 -0.04 745
0.01 0.40 0.49 -1.00 9.75 0.03 0.04 -0.05 752
0.03 0.39 0.21 -1.00 9.85 0.03 0.04 -0.05 759
0.02 0.36 0.19 -0.52 9.69 0.03 0.03 -0.05 766
-0.01 0.36 1.08 -0.73 9.70 0.03 0.03 -0.04 774
-0.01 0.38 0.55 -1.09 9.91 0.03 0.04 -0.05 781
0.00 0.38 0.50 -1.05 9.82 0.03 0.04 -0.05 788
0.00 0.39 0.46 -0.94 9.81 0.04 0.04 -0.05 795
-0.00 0.40 0.55 -0.91 9.78 0.05 0.02 -0.05 802
0.01 0.39 0.54 -0.89 9.77 0.06 0.00 -0.05 809
-0.00 0.37 0.63 -0.99 9.80 0.08 -0.01 -0.05 817
0.01 0.33 0.48 -1.00 9.76 0.09 -0.03 -0.06 824
0.03 0.32 0.52 -0.90 9.80 0.11 -0.04 -0.06 831
0.03 0.31 0.49 -0.94 9.77 0.14 -0.05 -0.06 838
0.03 0.25 0.55 -0.91 9.77 0.16 -0.07 -0.06 845
0.04 0.20 0.56 -0.94 9.82 0.19 -0.08 -0.07 852
0.03 0.19 0.52 -0.99 9.83 0.22 -0.12 -0.07 860
0.07 0.16 0.52 -1.03 9.80 0.24 -0.14 -0.08 867
0.09 0.10 0.47 -1.02 9.83 0.27 -0.16 -0.08 874
0.12 0.11 0.38 -1.10 9.87 0.29 -0.17 -0.09 881
0.12 0.07 0.48 -1.16 9.90 0.30 -0.18 -0.10 888
0.12 0.07 0.34 -1.18 9.83 0.31 -0.18 -0.10 896
0.11 0.06 0.35 -1.20 9.93 0.32 -0.17 -0.11 903
0.16 0.06 0.45 -1.26 9.99 0.33 -0.15 -0.11 910
0.23 0.03 0.33 -1.29 10.11 0.34 -0.15 -0.12 918
0.24 0.00 0.53 -1.32 10.12 0.36 -0.14 -0.14 924
0.28 -0.01 0.57 -1.46 10.12 0.39 -0.14 -0.17 932
0.28 -0.02 0.86 -1.59 10.36 0.42 -0.10 -0.22 940
0.29 -0.00 1.18 -1.49 10.65 0.51 -0.12 -0.28 947
0.32 0.01 1.74 -1.65 11.07 0.62 -0.07 -0.37 954
0.39 0.00 2.17 -1.72 12.57 0.79 0.06 -0.51 960
0.41 -0.00 -0.99 -1.65 13.16 1.23 0.09 -0.44 968
0.45 -0.01 0.48 -1.76 12.78 1.47 0.05 -0.36 975
0.52 -0.02 -0.35 -1.62 13.38 1.66 0.11 -0.35 983
0.53 -0.02 -0.23 -1.36 12.94 1.86 0.06 -0.28 990
0.59 -0.03 -0.37 -1.83 13.61 2.04 0.07 -0.24 997
0.66 -0.04 -0.00 -1.58 13.48 2.30 0.07 -0.19 1003
0.69 -0.03 0.66 -2.01 13.78 2.54 0.10 -0.17 1011
0.73 -0.04 0.86 -2.25 13.94 2.85 0.11 -0.19 1018
0.76 -0.04 0.44 -2.51 14.19 3.15 0.09 -0.21 1026
0.74 -0.04 0.48 -2.29 14.64 3.40 0.09 -0.23 1032
0.74 -0.02 0.52 -2.15 14.51 3.70 0.09 -0.23 1040
0.77 -0.03 0.42 -2.31 14.42 3.99 0.06 -0.25 1047
0.76 -0.03 0.64 -2.63 14.61 4.21 0.03 -0.27 1054
0.71 -0.03 1.03 -2.69 14.90 4.28 -0.07 -0.32 1061
0.62 -0.02 1.43 -2.89 14.62 4.28 -0.22 -0.40 1069
0.50 -0.03 1.36 -4.04 16.22 4.28 -0.33 -0.49 1076
0.43 -0.02 1.86 -5.08 19.47 4.28 -0.49 -0.54 1083
0.33 -0.02 2.91 -5.99 21.21 4.28 -0.68 -0.59 1090
0.15 -0.02 3.45 -7.11 22.09 4.28 -0.73 -0.73 1096
0.14 -0.01 -0.95 -7.77 23.44 4.28 -0.83 -0.95 1103
0.09 -0.01 -4.98 -8.48 29.11 4.28 -1.28 -0.94 1111
0.06 -0.01 -2.35 -11.71 30.18 4.28 -2.14 -0.65 1119
0.06 -0.01 1.30 -8.72 26.83 4.28 -2.64 -0.68 1125
0.01 -0.00 4.77 -6.72 27.47 4.28 -2.99 -0.61 1132
0.02 -0.00 7.75 -1.39 26.33 4.28 -2.86 -0.47 1139
0.00 0.00 8.76 3.20 22.24 4.28 -2.53 -0.43 1146
0.00 0.00 7.93 9.19 18.98 4.28 -1.93 -0.48 1154
0.00 0.00 7.88 17.97 13.70 4.28 -1.57 -0.57 1161
0.00 0.00 9.57 22.29 2.17 4.13 -1.18 -0.61 1168
0.00 0.00 9.80 17.71 18.32 2.66 -0.35 -0.45 1175
0.00 0.00 5.67 15.01 20.53 0.05 0.32 -0.22 1182
0.00 0.00 1.55 14.68 15.62 -1.48 0.46 0.03 1189
0.00 0.00 0.19 12.07 11.12 -2.15 -0.00 0.16 1197
0.00 0.00 0.29 9.16 10.06 -2.39 -0.52 0.22 1204
0.00 0.00 1.10 7.18 8.43 -2.37 -0.69 0.23 1211
0.00 0.00 1.79 6.76 6.33 -2.33 -0.62 0.23 1218
0.00 0.00 1.96 6.59 5.91 -2.38 -0.39 0.19 1225
0.00 0.00 1.52 6.43 6.40 -2.53 -0.07 0.13 1232
0.00 0.00 0.41 6.45 6.70 -2.81 0.14 0.08 1240
0.00 0.00 -0.90 6.40 7.11 -3.15 0.28 0.05 1247
0.00 0.00 -1.91 6.05 7.85 -3.48 0.28 0.05 1254
0.00 0.00 -2.33 5.37 8.32 -3.81 0.22 0.07 1261
0.00 0.00 -2.33 4.62 8.54 -4.04 0.10 0.08 1268
0.00 0.00 -2.24 4.03 8.81 -4.19 0.06 0.07 1275
0.00 0.00 -2.02 3.05 9.14 -4.27 0.02 0.03 1283
0.00 0.00 -1.61 2.18 9.46 -4.27 0.04 -0.06 1290
0.00 0.00 -1.28 1.61 9.92 -4.28 0.13 -0.18 1297
0.00 0.00 -1.25 1.08 10.67 -4.28 0.27 -0.31 1304
0.00 0.00 -1.36 0.69 11.40 -4.28 0.38 -0.43 1311
0.00 0.00 -1.78 0.28 12.30 -4.28 0.45 -0.53 1318
0.00 0.00 -1.85 -0.58 13.49 -4.28 0.52 -0.61 1326
0.00 0.00 -1.92 -1.01 14.02 -4.28 0.58 -0.63 1333
0.00 0.00 -2.15 -1.72 14.70 -4.28 0.59 -0.63 1340
0.00 0.00 -1.55 -2.73 15.59 -4.28 0.59 -0.61 1347
0.00 0.00 -1.83 -2.88 16.10 -4.28 0.51 -0.56 1354
0.00 0.00 -1.47 -4.28 17.15 -4.28 0.52 -0.46 1361
-0.00 0.00 -1.37 -4.70 17.50 -4.28 0.51 -0.36 1369
0.01 -0.00 -0.83 -5.62 17.64 -4.28 0.55 -0.24 1376
0.00 0.00 -0.68 -6.69 17.88 -4.28 0.56 -0.09 1383
0.00 0.00 -0.04 -6.67 18.09 -4.28 0.60 0.02 1390
0.00 0.00 0.17 -6.82 18.49 -4.28 0.64 0.17 1397
0.00 0.00 0.52 -6.73 18.86 -4.25 0.68 0.30 1404
-0.00 0.00 0.62 -6.81 19.58 -4.20 0.71 0.45 1412
0.00 0.00 0.76 -7.21 19.84 -4.14 0.74 0.59 1419
0.00 0.00 0.77 -7.79 20.01 -4.03 0.80 0.68 1426
0.00 0.00 0.69 -8.67 20.18 -3.90 0.87 0.74 1433
0.00 0.00 0.59 -9.41 20.28 -3.73 0.94 0.75 1440
0.00 0.00 0.47 -10.33 20.61 -3.56 1.00 0.73 1447
0.00 0.00 0.17 -11.24 21.22 -3.43 1.03 0.66 1455
0.00 0.00 -0.37 -11.94 21.52 -3.36 1.05 0.58 1462
0.00 0.00 -0.79 -12.59 20.89 -3.40 1.07 0.45 1469
0.00 0.00 -0.84 -13.60 19.80 -3.56 1.12 0.27 1476
0.00 0.00 -0.67 -15.87 18.22 -3.77 1.25 0.12 1483
0.00 0.00 -0.94 -18.73 15.31 -3.87 1.45 -0.11 1490
0.00 0.00 -1.21 -22.77 13.36 -3.88 1.84 -0.36 1498
0.00 0.00 -2.33 -28.64 10.32 -3.77 2.20 -0.81 1505
0.00 0.00 -4.66 -35.98 6.36 -3.55 2.39 -1.28 1512
0.00 0.00 -8.48 -42.64 3.58 -3.23 2.61 -1.53 1519
0.00 0.00 -13.41 -47.25 2.39 -2.69 2.54 -1.61 1526
0.00 0.00 -17.05 -46.82 1.69 -1.56 1.82 -1.57 1533
0.00 -0.00 -17.13 -40.49 0.79 -0.10 0.22 -1.45 1541
0.00 0.00 -12.07 -35.15 -0.14 1.05 -1.33 -1.40 1548
0.00 0.00 -1.68 -39.65 14.12 3.43 -3.22 -1.76 1555
0.00 0.00 1.47 -7.03 4.41 4.20 -2.47 -2.00 1562
-0.00 0.01 3.28 6.44 10.65 4.26 -2.63 -1.91 1569
-0.01 0.08 3.16 0.55 22.52 3.74 -2.27 -1.61 1576
-0.01 0.20 8.89 1.00 16.03 3.03 -1.35 -0.90 1584
-0.02 0.38 4.90 -1.38 13.25 3.18 -1.10 -0.35 1592
-0.04 0.57 3.62 -4.19 14.90 3.85 -0.82 0.17 1599
-0.06 0.66 3.00 -2.94 15.98 4.15 -0.23 0.73 1606
-0.05 0.78 -2.48 -3.37 20.61 3.78 0.28 0.96 1613
-0.05 0.83 -5.29 -4.07 18.08 3.20 0.42 0.68 1620
-0.05 0.90 -5.15 -4.02 15.78 2.87 0.27 0.17 1628
-0.04 0.87 -1.83 -2.69 15.19 2.54 0.24 -0.27 1635
-0.04 0.85 0.98 -1.67 13.43 2.14 0.36 -0.33 1642
-0.06 0.84 2.58 -4.27 20.78 1.34 0.14 -0.18 1649
-0.03 0.82 2.48 -1.27 11.37 0.14 -0.16 0.01 1656
-0.04 0.84 -0.08 -2.74 11.52 -0.12 -0.04 0.05 1664
-0.03 0.80 -0.06 -1.22 10.31 -0.08 0.02 0.01 1670
-0.03 0.75 0.06 -1.14 9.98 -0.10 0.08 0.01 1677
-0.01 0.73 0.13 -0.93 9.79 -0.11 0.13 0.02 1684
-0.00 0.75 0.06 -1.01 9.81 -0.13 0.17 0.02 1691
0.01 0.78 0.23 -1.13 9.90 -0.14 0.19 0.01 1698
0.03 0.78 0.25 -1.01 10.03 -0.14 0.20 0.01 1705
0.02 0.78 0.30 -0.86 10.03 -0.12 0.20 0.01 1713
0.00 0.81 0.34 -0.84 9.96 -0.10 0.19 0.01 1720
0.02 0.81 0.29 -0.79 9.82 -0.08 0.19 0.00 1727
0.02 0.82 0.28 -0.77 9.82 -0.07 0.19 -0.00 1734
0.02 0.84 0.32 -0.75 9.86 -0.07 0.19 -0.01 1741
0.02 0.83 0.34 -0.75 9.85 -0.05 0.18 -0.01 1748
0.02 0.84 0.34 -0.70 9.84 -0.02 0.17 -0.01 1756
0.00 0.82 0.40 -0.65 9.83 -0.01 0.16 -0.01 1763
0.01 0.82 0.46 -0.67 9.89 0.01 0.13 -0.01 1770
0.01 0.79 0.47 -0.70 9.86 0.04 0.11 -0.02 1777
0.01 0.78 0.44 -0.71 9.83 0.06 0.08 -0.02 1784
0.04 0.76 0.39 -0.75 9.82 0.08 0.07 -0.02 1792
0.02 0.72 0.34 -0.75 9.81 0.09 0.08 -0.03 1799
0.00 0.67 0.36 -0.76 9.83 0.10 0.08 -0.03 1806
-0.01 0.61 0.38 -0.76 9.77 0.11 0.09 -0.03 1813
0.01 0.57 0.45 -0.74 9.68 0.12 0.10 -0.04 1820
0.01 0.58 0.41 -0.80 9.74 0.12 0.11 -0.04 1827
-0.00 0.54 0.45 -0.79 9.68 0.12 0.12 -0.04 1835
0.02 0.51 0.44 -0.85 9.66 0.11 0.13 -0.05 1842
0.02 0.43 0.50 -0.84 9.72 0.11 0.14 -0.05 1849
-0.00 0.40 0.53 -0.82 9.72 0.12 0.14 -0.05 1856
0.02 0.39 0.54 -0.80 9.75 0.12 0.13 -0.06 1863
0.02 0.33 0.57 -0.86 9.77 0.13 0.11 -0.06 1870
0.03 0.33 0.54 -0.91 9.74 0.13 0.08 -0.06 1878
0.02 0.31 0.58 -0.88 9.69 0.12 0.06 -0.06 1885
0.05 0.30 0.60 -0.90 9.76 0.13 0.03 -0.06 1892
0.06 0.26 0.59 -0.74 9.81 0.13 0.00 -0.07 1899
0.06 0.24 0.41 -1.01 9.82 0.14 -0.03 -0.08 1906
0.09 0.17 0.50 -1.28 9.76 0.14 -0.05 -0.08 1913
0.08 0.16 0.57 -0.92 9.73 0.17 -0.07 -0.09 1921
0.07 0.14 0.56 -0.95 9.80 0.19 -0.09 -0.09 1928
0.08 0.13 0.54 -0.97 9.81 0.20 -0.10 -0.10 1935
0.09 0.09 0.33 -1.08 9.78 0.22 -0.11 -0.10 1942
0.13 0.09 0.36 -1.09 9.88 0.23 -0.10 -0.11 1949
0.13 0.07 0.60 -1.01 9.90 0.25 -0.11 -0.11 1956
0.12 0.09 0.48 -1.14 9.88 0.27 -0.11 -0.12 1964
0.14 0.06 0.47 -1.15 9.89 0.28 -0.12 -0.12 1971
0.16 0.03 0.50 -1.19 9.93 0.30 -0.12 -0.12 1978
0.19 0.02 0.52 -1.24 9.95 0.31 -0.13 -0.13 1985
0.18 0.02 0.51 -1.26 9.92 0.32 -0.13 -0.14 1992
0.21 -0.01 0.64 -1.33 9.98 0.34 -0.12 -0.16 1999
0.22 -0.01 0.71 -1.35 10.22 0.35 -0.10 -0.18 2008
0.23 -0.02 0.68 -1.43 10.26 0.39 -0.08 -0.21 2014
0.25 -0.02 1.04 -1.42 10.49 0.43 -0.04 -0.26 2022
0.31 -0.02 1.34 -1.47 10.70 0.50 0.02 -0.33 2029
0.35 -0.02 1.81 -1.73 11.31 0.59 0.12 -0.41 2036
0.38 -0.02 -0.14 -1.72 12.73 0.78 0.27 -0.47 2043
0.39 -0.03 -0.34 -1.43 12.18 1.14 0.19 -0.38 2051
0.45 -0.04 0.47 -1.50 12.25 1.33 0.16 -0.35 2058
0.49 -0.03 -0.10 -1.73 12.07 1.48 0.13 -0.31 2065
0.52 -0.03 0.02 -1.78 12.58 1.64 0.11 -0.27 2072
0.54 -0.02 -0.17 -1.88 13.12 1.85 0.09 -0.21 2079
0.57 -0.03 0.46 -2.07 13.51 2.07 0.05 -0.18 2085
0.59 -0.03 0.80 -2.06 13.69 2.35 0.05 -0.18 2093
0.62 -0.03 0.58 -2.39 14.40 2.61 0.09 -0.19 2100
0.62 -0.02 0.35 -2.16 14.68 2.93 0.12 -0.19 2108
0.62 -0.02 0.72 -2.26 14.84 3.27 0.13 -0.19 2115
0.64 -0.02 1.22 -2.30 14.87 3.55 0.16 -0.22 2122
0.66 -0.03 1.14 -2.14 15.04 3.91 0.20 -0.27 2129
0.66 -0.04 1.16 -2.76 15.71 4.20 0.24 -0.33 2137
0.60 -0.03 1.62 -2.38 16.26 4.28 0.21 -0.38 2144
0.56 -0.02 1.82 -2.75 15.69 4.28 0.09 -0.50 2151
0.50 -0.02 1.22 -3.40 17.01 4.28 0.00 -0.56 2157
0.42 -0.03 1.01 -4.91 20.19 4.28 -0.11 -0.59 2165
0.28 -0.02 0.99 -6.26 23.36 4.28 -0.42 -0.55 2172
0.17 -0.02 1.75 -6.06 22.15 4.28 -0.48 -0.58 2179
0.12 -0.01 -3.40 -7.03 25.09 4.28 -0.49 -0.71 2186
0.05 -0.00 -4.41 -8.36 31.09 4.28 -1.07 -0.55 2193
0.04 -0.00 -0.64 -10.21 30.86 4.28 -1.97 -0.38 2201
0.04 -0.00 2.20 -7.50 28.14 4.28 -2.59 -0.50 2207
0.03 -0.00 4.79 -6.15 30.66 4.28 -2.92 -0.53 2214
0.01 -0.00 8.25 -2.26 30.18 4.28 -3.01 -0.42 2222
0.01 -0.00 10.41 4.13 25.48 4.28 -2.73 -0.38 2230
0.01 -0.00 9.98 9.27 20.96 4.28 -2.17 -0.36 2236
0.00 0.00 10.66 17.13 16.64 4.28 -1.42 -0.45 2243
0.00 0.00 10.69 29.59 3.14 4.23 -0.87 -0.69 2250
0.00 0.00 11.26 16.03 19.01 2.59 0.08 -0.47 2257
0.00 0.00 3.42 14.74 24.90 0.24 0.62 -0.24 2265
0.00 0.00 -0.24 15.62 17.49 -1.37 0.43 -0.07 2272
0.00 0.00 -0.97 12.95 12.64 -2.13 -0.50 0.04 2279
0.00 0.00 -0.06 8.97 10.79 -2.37 -1.25 -0.03 2286
0.00 0.00 1.37 7.79 9.65 -2.45 -1.58 -0.09 2293
0.00 0.00 3.30 7.03 7.53 -2.51 -1.46 -0.18 2300
0.00 0.00 4.09 6.86 6.41 -2.63 -1.11 -0.27 2308
0.00 0.00 4.01 6.46 6.51 -2.86 -0.53 -0.40 2315
0.00 0.00 3.00 6.19 6.74 -3.12 -0.02 -0.50 2322
0.00 0.00 1.12 6.10 6.85 -3.45 0.34 -0.52 2329
0.00 0.00 -0.40 5.71 7.25 -3.72 0.44 -0.47 2336
0.00 0.00 -1.23 5.13 7.72 -3.98 0.36 -0.39 2343
0.00 0.00 -1.32 4.29 8.02 -4.15 0.20 -0.29 2351
0.00 0.00 -0.98 3.74 8.15 -4.22 0.08 -0.21 2358
-0.00 0.00 -0.51 3.26 8.47 -4.26 0.06 -0.15 2365
0.00 0.00 -0.26 2.70 8.92 -4.28 0.16 -0.10 2372
0.00 0.00 -0.50 2.62 9.40 -4.28 0.27 -0.07 2379
0.00 0.00 -0.76 2.13 10.13 -4.28 0.42 -0.04 2386
0.00 0.00 -0.47 1.56 10.65 -4.28 0.63 -0.02 2394
0.00 0.00 -1.56 1.82 11.13 -4.28 0.65 -0.04 2401
0.00 0.00 -1.24 0.89 12.20 -4.28 0.78 -0.06 2408
0.00 0.00 -1.20 0.91 13.05 -4.28 0.82 -0.11 2415
0.00 0.00 -1.43 -0.07 14.16 -4.28 0.88 -0.20 2422
0.00 0.00 -2.78 0.09 14.39 -4.28 0.76 -0.29 2429
0.00 0.00 -2.22 -1.11 15.56 -4.28 0.74 -0.33 2437
0.00 0.00 -2.39 -1.09 15.98 -4.28 0.72 -0.38 2444
0.00 0.00 -1.87 -2.18 16.65 -4.28 0.78 -0.40 2451
0.00 0.00 -1.95 -3.13 17.19 -4.28 0.94 -0.36 2458
0.00 0.00 -1.70 -4.85 18.49 -4.28 1.14 -0.26 2465
0.00 0.00 -1.85 -5.12 20.19 -4.23 1.30 -0.11 2472
0.00 0.00 -2.10 -4.93 22.45 -4.18 1.43 0.09 2480
-0.00 0.00 -2.38 -5.05 24.40 -4.23 1.45 0.33 2487
0.01 -0.00 -2.43 -5.89 25.76 -4.28 1.34 0.49 2494
0.00 0.00 -2.12 -7.10 26.97 -4.28 1.21 0.60 2501
0.00 0.00 -1.98 -8.10 27.90 -4.28 1.14 0.60 2508
0.00 0.00 -2.16 -9.53 28.18 -4.28 1.13 0.50 2515
0.00 0.00 -2.85 -11.41 27.74 -4.28 1.13 0.35 2523
0.00 0.00 -3.74 -13.38 26.74 -4.28 1.05 0.19 2530
0.01 -0.00 -8.56 -22.19 33.05 -4.28 0.49 -0.04 2537
0.00 0.00 -6.56 -20.36 9.56 -4.28 0.58 -0.23 2544
0.00 0.00 -1.13 -19.45 18.56 -4.28 0.51 -0.28 2551
0.00 0.00 -1.43 -27.09 17.44 -4.28 0.51 -0.33 2558
0.00 0.00 -0.78 -33.81 16.31 -4.28 0.41 -0.42 2566
0.00 0.00 -0.38 -41.14 8.06 -4.25 0.35 -0.67 2573
0.01 -0.00 -2.37 -52.65 1.36 -3.69 0.81 -0.87 2580
0.00 0.00 -7.47 -59.84 -1.46 -2.59 1.73 -0.85 2587
0.00 0.00 -15.88 -59.85 -1.51 -1.36 1.88 -0.64 2594
0.00 0.00 -17.50 -62.58 8.22 0.62 0.55 -0.45 2601
0.00 0.00 -8.02 -51.57 0.66 3.11 -1.22 -0.67 2609
0.00 0.00 2.03 -25.04 3.45 4.28 -1.27 -1.50 2616
-0.01 0.05 1.04 3.17 12.24 4.28 -1.39 -1.75 2623
-0.01 0.14 2.21 1.99 21.29 4.28 -1.68 -1.86 2630
-0.01 0.29 8.17 0.69 20.81 3.83 -1.42 -1.48 2638
-0.04 0.50 7.24 -1.30 14.14 3.72 -1.28 -0.96 2646
-0.03 0.61 5.80 -6.59 18.21 4.15 -1.01 -0.27 2653
-0.04 0.78 5.68 -3.81 18.81 4.27 -0.38 0.45 2660
-0.05 0.83 -1.17 -3.66 23.79 3.87 0.17 0.92 2667
-0.05 0.89 -4.61 -3.92 17.59 3.18 0.29 0.71 2674
-0.05 0.86 -5.51 -3.72 15.17 2.90 0.19 0.22 2681
-0.05 0.83 -1.74 -2.17 14.24 2.59 0.18 -0.21 2689
-0.04 0.84 1.31 -0.66 12.47 2.28 0.38 -0.27 2696
-0.02 0.76 2.30 -4.40 21.35 1.54 0.20 -0.06 2703
-0.02 0.70 1.56 -1.77 11.67 0.16 -0.17 0.05 2710
-0.03 0.65 -0.20 -3.26 12.20 -0.14 -0.05 -0.02 2717
-0.03 0.63 0.24 -1.21 9.87 -0.06 -0.02 -0.04 2723
-0.01 0.61 0.31 -0.69 9.94 -0.08 0.01 -0.00 2731
0.02 0.62 -0.02 -0.88 9.64 -0.10 0.03 0.00 2738
0.04 0.65 0.06 -1.19 9.94 -0.12 0.07 -0.00 2745
0.05 0.66 0.19 -1.08 9.98 -0.15 0.10 0.01 2752
0.06 0.64 0.19 -1.00 9.95 -0.13 0.11 0.01 2759
0.05 0.68 0.18 -0.95 9.82 -0.12 0.12 0.01 2766
0.03 0.71 0.27 -0.92 9.90 -0.12 0.12 0.01 2774
0.03 0.69 0.24 -0.80 9.97 -0.10 0.12 0.00 2781
0.02 0.70 0.18 -0.81 9.87 -0.08 0.12 0.00 2788
0.02 0.71 0.24 -0.78 9.88 -0.06 0.11 0.00 2795
0.02 0.68 0.19 -0.74 9.81 -0.04 0.11 -0.00 2802
-0.00 0.71 0.21 -0.72 9.82 -0.03 0.11 -0.00 2809
0.01 0.70 0.21 -0.76 9.82 -0.02 0.12 -0.01 2817
0.03 0.72 0.25 -0.71 9.82 -0.01 0.11 -0.01 2824
0.01 0.72 0.30 -0.74 9.82 0.01 0.12 -0.01 2831
0.01 0.72 0.29 -0.78 9.81 0.02 0.11 -0.01 2838
0.01 0.71 0.27 -0.76 9.82 0.03 0.11 -0.02 2845
-0.04 0.69 0.28 -0.80 9.86 0.05 0.10 -0.02 2852
0.01 0.67 0.32 -0.76 9.82 0.06 0.10 -0.02 2860
0.02 0.64 0.31 -0.78 9.82 0.08 0.08 -0.03 2867
-0.01 0.61 0.30 -0.80 9.74 0.09 0.08 -0.03 2874
-0.01 0.61 0.29 -0.76 9.78 0.10 0.06 -0.03 2881
-0.02 0.56 0.31 -0.76 9.78 0.11 0.06 -0.04 2888
0.00 0.53 0.31 -0.78 9.78 0.11 0.06 -0.04 2895
-0.00 0.52 0.38 -0.80 9.72 0.12 0.05 -0.05 2903
0.02 0.47 0.36 -0.78 9.67 0.12 0.04 -0.04 2910
0.01 0.48 0.44 -0.83 9.69 0.12 0.02 -0.05 2917
0.01 0.46 0.42 -0.85 9.67 0.12 -0.00 -0.05 2924
0.01 0.41 0.42 -0.88 9.68 0.11 -0.02 -0.06 2931
0.00 0.42 0.42 -0.89 9.70 0.11 -0.05 -0.06 2938
0.02 0.37 0.42 -0.92 9.71 0.11 -0.06 -0.07 2946
0.04 0.31 0.36 -1.00 9.74 0.11 -0.07 -0.07 2953
0.04 0.32 0.23 -0.87 9.68 0.11 -0.09 -0.08 2960
0.06 0.29 0.36 -0.93 9.70 0.12 -0.09 -0.08 2967
0.07 0.27 0.35 -0.99 9.24 0.13 -0.10 -0.08 2974
0.07 0.27 0.30 -0.86 9.64 0.14 -0.11 -0.09 2981
0.08 0.25 0.37 -1.01 9.83 0.15 -0.12 -0.09 2989
0.10 0.19 0.32 -1.00 9.79 0.17 -0.12 -0.09 2996
0.09 0.18 -0.00 -0.96 9.72 0.18 -0.11 -0.10 3003
0.10 0.13 0.08 -1.03 9.82 0.20 -0.10 -0.09 3010
0.11 0.10 0.19 -0.98 9.85 0.22 -0.08 -0.10 3017
0.14 0.12 0.19 -1.01 9.91 0.23 -0.07 -0.10 3024
0.17 0.09 0.20 -1.09 9.88 0.24 -0.05 -0.10 3032
0.19 0.09 0.25 -1.10 9.84 0.25 -0.05 -0.10 3039
0.22 0.07 0.23 -1.19 9.96 0.27 -0.05 -0.11 3046
0.22 0.04 0.32 -1.18 9.97 0.29 -0.05 -0.12 3053
0.26 0.03 0.17 -1.29 10.03 0.31 -0.06 -0.13 3061
0.30 0.02 0.23 -1.25 10.16 0.34 -0.06 -0.14 3067
0.31 0.02 0.31 -1.37 10.29 0.40 -0.07 -0.16 3076
0.35 -0.02 0.33 -1.40 10.26 0.41 -0.08 -0.19 3083
0.37 -0.03 0.59 -1.49 10.56 0.47 -0.10 -0.23 3090
0.39 -0.03 0.85 -1.51 10.89 0.55 -0.15 -0.27 3097
0.47 -0.03 0.89 -1.58 11.36 0.68 -0.20 -0.33 3104
0.50 -0.02 0.95 -1.80 11.94 0.87 -0.12 -0.39 3111
0.59 -0.03 -1.17 -1.51 13.32 1.14 0.08 -0.37 3119
0.59 -0.03 -0.27 -1.66 13.03 1.46 -0.00 -0.26 3126
0.66 -0.05 -0.01 -1.85 13.45 1.66 0.05 -0.24 3133
0.69 -0.04 0.00 -2.00 14.70 1.92 0.04 -0.20 3139
0.70 -0.04 -0.07 -1.90 14.48 2.23 0.07 -0.19 3146
0.73 -0.03 0.06 -2.04 15.11 2.52 0.07 -0.17 3154
0.77 -0.04 0.64 -2.30 15.24 2.89 0.05 -0.18 3162
0.75 -0.04 0.86 -2.32 15.08 3.22 0.00 -0.22 3168
0.76 -0.04 0.97 -2.39 16.00 3.58 -0.01 -0.27 3176
0.75 -0.03 1.45 -2.20 16.76 3.98 -0.05 -0.34 3183
0.74 -0.02 1.63 -2.37 16.82 4.24 -0.20 -0.41 3190
0.73 -0.02 1.89 -2.46 16.19 4.28 -0.35 -0.51 3197
0.71 -0.02 1.32 -1.93 16.37 4.28 -0.47 -0.64 3205
0.65 -0.03 0.83 -2.00 17.23 4.28 -0.55 -0.72 3212
0.51 -0.04 1.14 -3.15 17.87 4.28 -0.62 -0.80 3219
0.42 -0.02 0.96 -5.65 20.59 4.28 -0.68 -0.82 3226
0.26 -0.01 1.49 -5.51 23.27 4.28 -0.56 -0.79 3233
0.16 -0.02 0.07 -6.45 24.26 4.28 -0.62 -0.85 3239
0.12 -0.01 -4.30 -6.10 26.51 4.28 -0.92 -0.90 3247
0.09 -0.01 -2.19 -7.90 28.42 4.28 -1.55 -0.69 3254
0.06 -0.01 1.97 -8.03 27.02 4.28 -1.67 -0.52 3261
0.03 -0.00 3.50 -8.12 28.29 4.28 -1.71 -0.64 3268
0.05 0.00 5.00 -6.49 29.41 4.28 -1.79 -0.69 3275
0.03 -0.00 6.51 -0.15 26.59 4.28 -1.83 -0.69 3282
0.01 -0.00 6.99 4.59 24.43 4.28 -1.58 -0.74 3290
0.01 -0.00 7.78 12.38 23.68 4.28 -1.38 -0.90 3297
0.00 0.00 8.29 22.48 14.50 4.28 -1.38 -1.08 3304
0.00 0.00 10.90 27.26 -0.01 3.66 -1.26 -1.05 3311
0.00 0.00 8.85 18.86 26.21 1.24 -0.68 -0.55 3318
0.00 0.00 5.02 18.89 21.56 -1.46 -0.28 -0.33 3325
0.00 0.00 1.88 16.27 14.60 -2.58 -0.44 -0.10 3333
0.00 0.00 1.96 12.57 11.24 -3.10 -0.89 -0.06 3340
0.00 0.00 2.89 9.42 10.06 -3.14 -1.06 -0.10 3347
0.00 0.00 3.51 7.91 7.98 -3.12 -0.90 -0.15 3354
0.00 0.00 3.75 7.63 6.33 -3.19 -0.56 -0.20 3361
0.00 0.00 3.25 7.15 6.40 -3.31 -0.16 -0.26 3368
0.00 0.00 1.83 6.70 6.84 -3.53 0.18 -0.29 3376
0.00 0.00 -0.03 6.39 7.30 -3.81 0.39 -0.28 3383
0.00 0.00 -1.29 6.26 7.76 -4.09 0.42 -0.20 3390
0.00 0.00 -1.89 5.82 8.54 -4.27 0.35 -0.10 3397
0.00 0.00 -1.80 5.30 9.27 -4.28 0.27 0.01 3404
0.00 0.00 -1.85 4.61 9.77 -4.28 0.25 0.08 3411
0.00 0.00 -1.88 3.66 10.14 -4.28 0.27 0.15 3419
0.00 0.00 -1.85 2.88 10.55 -4.28 0.33 0.15 3426
0.00 0.00 -1.92 2.23 10.61 -4.28 0.33 0.12 3433
-0.00 0.00 -1.33 0.86 11.66 -4.28 0.45 0.03 3440
0.00 0.00 -1.34 0.38 12.49 -4.28 0.56 -0.06 3447
0.00 0.00 -1.56 -0.18 13.25 -4.28 0.66 -0.16 3454
0.00 0.00 -1.50 -0.60 14.08 -4.28 0.75 -0.27 3462
0.00 0.00 -1.88 -1.34 15.69 -4.28 0.81 -0.37 3469
0.00 0.00 -2.25 -1.67 16.02 -4.28 0.74 -0.51 3476
-0.00 0.00 -1.28 -2.45 17.41 -4.28 0.65 -0.64 3483
0.00 0.00 -1.09 -3.04 17.98 -4.28 0.56 -0.72 3490
0.00 0.00 0.05 -3.93 18.74 -4.28 0.58 -0.79 3497
0.00 0.00 0.88 -4.83 18.90 -4.28 0.74 -0.82 3505
0.00 0.00 1.95 -6.50 19.36 -4.28 0.99 -0.79 3512
0.00 0.00 2.82 -8.17 19.52 -4.28 1.31 -0.70 3519
-0.00 0.00 3.39 -9.51 21.89 -4.21 1.70 -0.56 3526
0.00 0.00 3.53 -9.60 23.24 -3.86 2.13 -0.30 3533
0.00 0.00 3.27 -9.56 24.62 -3.74 2.42 0.09 3540
0.00 0.00 2.67 -10.78 25.80 -3.76 2.62 0.45 3548
0.00 0.00 2.11 -12.64 26.05 -3.82 2.65 0.85 3555
0.00 0.00 2.12 -13.98 25.59 -3.87 2.63 1.11 3562
0.00 0.00 1.45 -15.12 24.80 -3.96 2.61 1.32 3569
0.00 0.00 0.11 -16.54 23.66 -4.07 2.62 1.43 3576
0.00 0.00 -1.54 -17.08 22.31 -4.19 2.58 1.46 3584
0.00 0.00 -3.67 -18.55 19.99 -4.23 2.46 1.46 3591
0.00 0.00 -6.19 -19.70 17.70 -4.22 2.35 1.50 3598
0.00 0.00 -9.51 -22.20 15.92 -4.12 2.21 1.63 3605
0.00 -0.00 -11.77 -27.12 14.43 -3.93 1.82 1.79 3613
0.00 0.00 -11.57 -33.05 10.85 -3.72 0.88 1.81 3619
0.00 0.00 -7.87 -42.67 4.96 -3.53 -0.12 1.53 3627
0.00 0.00 -5.08 -50.46 -0.34 -3.08 -0.34 1.05 3634
0.00 0.00 -4.85 -53.53 -1.59 -1.93 0.09 0.33 3641
-0.00 0.00 -7.79 -48.22 -0.29 -0.64 0.33 -0.45 3648
0.00 0.00 -8.86 -40.72 2.07 0.73 -0.07 -1.06 3655
0.00 0.00 -15.10 -44.23 19.50 3.16 -2.34 -1.65 3663
0.00 0.00 -6.29 -14.12 4.91 3.89 -2.76 -1.98 3670
-0.00 0.03 2.65 9.18 8.74 4.14 -3.11 -2.10 3677
-0.01 0.15 5.36 1.83 23.28 3.68 -1.89 -1.62 3684
-0.03 0.40 7.37 3.12 15.09 3.10 -1.11 -0.99 3692
-0.02 0.52 4.54 -1.20 12.38 3.52 -1.15 -0.45 3699
-0.03 0.61 4.89 -4.24 15.71 4.08 -0.82 0.07 3706
-0.04 0.74 3.67 -2.81 17.53 4.21 0.13 0.70 3714
-0.05 0.86 -3.19 -3.26 22.36 3.58 0.53 0.95 3721
-0.05 0.93 -5.21 -3.89 17.55 3.05 0.45 0.54 3728
-0.05 0.93 -4.85 -3.59 15.83 2.81 0.23 0.05 3735
-0.05 0.94 -1.65 -1.90 14.44 2.51 0.14 -0.33 3742
-0.05 0.92 0.96 -1.39 12.48 2.09 0.21 -0.39 3749
-0.05 0.86 2.87 -1.26 12.00 1.88 0.43 -0.17 3757
-0.07 0.84 2.56 -3.15 17.57 1.32 0.18 0.13 3764
-0.05 0.84 0.84 -1.54 11.89 0.26 -0.11 0.20 3771
-0.03 0.76 -0.57 -2.59 11.66 0.02 -0.05 0.11 3778
-0.04 0.75 -0.36 -1.68 10.55 -0.07 0.02 0.03 3784
-0.03 0.72 0.32 -0.93 9.91 -0.06 0.06 0.04 3791
-0.03 0.72 0.14 -1.11 9.91 -0.07 0.08 0.04 3799
-0.04 0.70 -0.09 -1.02 9.85 -0.09 0.10 0.03 3806
-0.03 0.73 0.24 -1.04 9.98 -0.10 0.13 0.02 3813
0.00 0.71 0.22 -0.93 10.03 -0.09 0.14 0.02 3820
0.00 0.69 0.19 -0.85 9.95 -0.07 0.14 0.01 3827
-0.00 0.72 0.27 -0.76 9.89 -0.07 0.14 0.00 3834
-0.01 0.71 0.22 -0.73 9.87 -0.05 0.13 -0.00 3842
-0.00 0.72 0.25 -0.68 9.81 -0.04 0.13 -0.00 3849
-0.02 0.73 0.27 -0.64 9.82 -0.03 0.12 -0.01 3856
-0.00 0.74 0.24 -0.64 9.83 -0.01 0.11 -0.01 3863
0.01 0.72 0.32 -0.63 9.82 0.00 0.09 -0.01 3870
-0.00 0.71 0.36 -0.66 9.83 0.01 0.06 -0.01 3877
-0.02 0.70 0.31 -0.68 9.87 0.03 0.03 -0.02 3885
-0.00 0.68 0.29 -0.67 9.87 0.05 0.01 -0.02 3892
-0.01 0.65 0.28 -0.67 9.90 0.06 -0.02 -0.03 3899
0.02 0.63 0.32 -0.72 9.91 0.09 -0.04 -0.03 3906
0.01 0.61 0.29 -0.71 9.86 0.10 -0.07 -0.03 3913
0.03 0.56 0.27 -0.72 9.81 0.12 -0.09 -0.04 3920
0.00 0.55 0.29 -0.74 9.75 0.12 -0.09 -0.05 3928
0.01 0.54 0.23 -0.73 9.69 0.13 -0.10 -0.05 3935
0.03 0.53 0.24 -0.74 9.68 0.14 -0.10 -0.05 3942
0.04 0.44 0.27 -0.74 9.65 0.13 -0.10 -0.05 3949
0.03 0.40 0.24 -0.79 9.62 0.13 -0.10 -0.06 3956
0.03 0.43 0.25 -0.76 9.66 0.12 -0.10 -0.06 3963
0.03 0.38 0.19 -0.85 9.67 0.12 -0.10 -0.06 3971
0.05 0.42 0.22 -0.82 9.66 0.11 -0.10 -0.07 3978
0.05 0.38 0.20 -0.82 9.72 0.10 -0.09 -0.07 3985
0.06 0.33 0.21 -0.87 9.66 0.10 -0.09 -0.07 3992
0.10 0.31 0.21 -0.90 9.70 0.11 -0.09 -0.07 3999
0.09 0.30 0.28 -0.84 9.75 0.12 -0.10 -0.08 4006
0.11 0.27 0.04 -0.97 9.74 0.13 -0.09 -0.08 4014
0.12 0.26 0.33 -0.95 9.81 0.13 -0.09 -0.08 4021
0.13 0.26 0.13 -0.99 9.83 0.15 -0.08 -0.07 4028
0.11 0.24 0.02 -0.95 9.76 0.15 -0.07 -0.08 4035
0.14 0.18 0.01 -0.87 9.87 0.16 -0.06 -0.07 4042
0.13 0.19 0.04 -0.97 9.93 0.18 -0.04 -0.08 4049
0.17 0.16 -0.28 -0.99 9.59 0.19 -0.05 -0.08 4057
0.19 0.14 0.14 -0.86 9.77 0.20 -0.04 -0.07 4064
0.21 0.09 0.16 -0.93 9.92 0.23 -0.04 -0.08 4071
0.22 0.08 0.11 -1.02 9.98 0.25 -0.05 -0.08 4078
0.22 0.04 0.17 -1.07 10.03 0.27 -0.07 -0.09 4085
0.25 0.02 0.13 -1.16 10.07 0.29 -0.07 -0.11 4092
0.30 0.01 0.04 -1.18 9.99 0.32 -0.09 -0.12 4100
0.32 0.02 0.17 -1.29 10.13 0.37 -0.11 -0.13 4108
0.37 -0.01 0.15 -1.80 10.21 0.37 -0.13 -0.15 4115
0.40 -0.01 0.23 -1.39 10.26 0.41 -0.15 -0.19 4122
0.47 -0.04 0.49 -1.47 10.58 0.46 -0.18 -0.21 4129
0.46 -0.03 0.60 -1.45 10.79 0.55 -0.25 -0.27 4136
0.52 -0.03 0.65 -1.45 11.13 0.67 -0.34 -0.32 4144
0.60 -0.03 0.72 -1.68 11.42 0.78 -0.36 -0.38 4151
0.64 -0.03 0.98 -1.78 11.81 0.95 -0.19 -0.45 4158
0.67 -0.04 -1.23 -1.46 12.36 1.20 -0.07 -0.42 4165
0.73 -0.04 -0.56 -1.71 11.82 1.40 -0.16 -0.33 4172
0.78 -0.04 -0.70 -1.68 12.43 1.56 -0.07 -0.27 4179
0.84 -0.04 -0.78 -1.77 13.00 1.73 -0.02 -0.22 4187
0.89 -0.04 -0.89 -1.88 13.29 1.96 0.05 -0.16 4194
0.92 -0.05 -0.91 -1.77 13.71 2.18 0.11 -0.10 4201
0.91 -0.05 -0.37 -1.97 14.15 2.47 0.15 -0.06 4208
0.92 -0.04 0.44 -2.26 14.46 2.80 0.15 -0.06 4215
0.92 -0.03 0.78 -2.49 14.88 3.09 0.12 -0.11 4222
0.95 -0.02 0.98 -2.43 15.36 3.45 0.07 -0.18 4230
0.94 -0.04 0.92 -2.21 15.29 3.83 0.04 -0.25 4237
0.92 -0.04 0.92 -3.01 15.91 4.14 0.04 -0.31 4244
0.91 -0.04 1.37 -2.57 16.82 4.28 -0.02 -0.39 4251
0.81 -0.04 1.99 -2.75 17.73 4.28 -0.32 -0.50 4258
0.75 -0.04 2.53 -2.87 18.06 4.28 -0.55 -0.63 4265
0.64 -0.02 1.52 -3.75 19.53 4.28 -0.79 -0.79 4273
0.46 -0.03 1.86 -5.60 22.00 4.28 -1.00 -0.85 4280
0.29 -0.01 3.10 -6.04 25.04 4.28 -1.09 -0.90 4287
0.19 -0.02 0.54 -5.94 25.33 4.28 -0.96 -1.03 4293
0.15 -0.01 -4.96 -7.76 30.45 4.28 -1.18 -1.13 4300
0.11 -0.01 -2.14 -10.06 32.26 4.28 -2.34 -0.96 4308
0.11 -0.01 2.39 -9.32 31.07 4.28 -2.83 -0.85 4316
0.03 -0.00 4.95 -7.04 30.33 4.28 -3.12 -0.88 4322
0.02 -0.00 8.65 -0.21 28.03 4.28 -3.02 -0.82 4329
0.02 -0.00 9.68 4.75 22.91 4.28 -2.83 -0.80 4336
0.00 0.00 8.70 10.87 20.29 4.28 -2.38 -0.83 4343
0.01 -0.00 9.36 17.06 17.47 4.28 -2.13 -0.95 4350
0.00 0.00 10.13 26.49 7.19 4.28 -1.96 -1.09 4358
0.00 0.00 11.60 17.97 19.01 3.60 -0.79 -0.91 4365
0.00 0.00 7.51 17.49 25.13 0.40 0.31 -0.89 4372
0.00 0.00 2.19 17.68 17.48 -1.72 0.77 -0.67 4379
0.00 0.00 0.26 14.25 13.41 -2.68 0.48 -0.43 4386
0.00 0.00 -0.44 10.38 12.19 -3.05 -0.00 -0.24 4393
0.00 0.00 -0.01 7.60 9.94 -3.00 -0.19 -0.08 4401
0.00 0.00 0.83 7.38 7.35 -2.91 -0.22 0.01 4408
0.00 0.00 0.97 7.03 6.74 -2.94 -0.12 0.06 4415
0.00 0.00 0.85 6.40 7.30 -3.09 0.09 0.06 4422
0.00 0.00 0.00 6.21 7.53 -3.38 0.30 0.03 4429
0.00 0.00 -0.98 5.94 7.75 -3.76 0.49 0.03 4436
0.00 0.00 -1.82 4.95 8.07 -4.08 0.59 0.04 4444
0.00 0.00 -2.70 4.72 8.51 -4.26 0.60 0.06 4451
0.01 -0.00 -3.05 3.64 9.05 -4.28 0.51 0.09 4458
0.00 0.00 -2.93 3.00 9.78 -4.28 0.44 0.11 4465
0.00 0.00 -2.67 2.51 9.35 -4.28 0.40 0.11 4472
0.00 -0.00 -2.75 2.18 9.72 -4.28 0.39 0.10 4480
0.00 -0.00 -2.06 1.31 10.60 -4.28 0.54 0.10 4487
0.00 0.00 -3.11 1.99 10.27 -4.28 0.61 0.08 4494
0.00 0.00 -3.33 1.23 11.93 -4.28 0.67 0.05 4501
0.00 0.00 -3.10 0.00 12.92 -4.28 0.88 0.05 4508
0.00 0.00 -3.43 -0.17 13.20 -4.28 0.85 0.01 4515
0.00 0.00 -2.16 -0.51 13.49 -4.28 0.81 -0.06 4523
0.00 -0.00 -2.34 -1.29 15.02 -4.28 0.79 -0.11 4530
0.00 0.00 -2.81 -0.89 15.39 -4.28 0.60 -0.14 4537
0.00 0.00 -1.84 -1.82 16.64 -4.28 0.52 -0.13 4544
0.00 0.00 -1.10 -2.24 17.16 -4.28 0.43 -0.10 4551
0.00 0.00 -0.21 -2.60 17.56 -4.28 0.52 -0.10 4558
0.00 -0.00 0.30 -3.57 17.28 -4.28 0.69 -0.09 4566
0.00 0.00 0.73 -5.90 18.07 -4.28 0.89 -0.04 4573
0.00 0.00 1.43 -7.06 18.17 -4.27 1.14 0.01 4580
0.00 0.00 2.00 -8.31 19.51 -4.03 1.34 0.09 4587
0.00 0.00 2.87 -8.96 20.36 -3.55 1.59 0.17 4594
0.00 0.00 3.41 -9.28 22.53 -3.20 1.97 0.22 4601
0.00 0.00 2.87 -9.18 25.16 -3.19 2.31 0.25 4609
0.00 0.00 2.22 -9.58 26.16 -3.53 2.61 0.24 4616
0.00 0.00 2.10 -11.84 26.19 -3.93 2.73 0.18 4623
0.00 0.00 1.58 -14.58 24.63 -4.20 2.70 0.09 4630
0.00 0.00 1.09 -17.08 22.87 -4.25 2.60 -0.04 4637
0.00 0.00 0.38 -19.10 20.70 -4.26 2.50 -0.16 4644
0.00 0.00 -0.67 -20.88 18.97 -4.26 2.43 -0.20 4652
0.00 0.00 -2.79 -22.98 15.94 -4.23 2.47 -0.12 4659
0.00 0.00 -5.26 -25.08 14.77 -4.11 2.76 0.08 4666
0.00 0.00 -9.45 -29.89 13.09 -3.89 2.74 0.31 4673
0.00 0.00 -11.79 -35.75 9.09 -3.67 2.06 0.58 4680
0.00 0.00 -11.40 -42.07 5.14 -3.33 1.20 0.73 4687
0.00 0.00 -9.76 -49.48 1.26 -2.77 0.46 0.79 4695
0.00 0.00 -8.01 -52.20 -0.71 -1.95 0.19 0.67 4702
0.00 0.00 -6.09 -50.09 -1.93 -0.62 0.00 0.45 4709
0.00 0.00 -13.12 -53.85 7.17 2.04 -1.86 0.14 4716
0.00 0.00 -8.65 -42.41 2.52 3.77 -2.59 -0.11 4723
-0.00 0.05 0.59 1.79 1.41 4.28 -3.24 -0.26 4730
-0.01 0.15 0.74 1.17 19.81 4.25 -2.40 0.01 4738
-0.03 0.41 2.33 1.77 21.90 3.50 -1.13 0.43 4746
-0.04 0.61 -1.95 -1.85 16.94 3.62 -0.85 0.59 4753
-0.05 0.80 -3.16 -6.08 15.33 4.24 -0.59 0.57 4760
-0.05 0.85 -1.06 -4.45 17.18 4.28 -0.02 0.66 4767
-0.04 0.90 -4.89 -5.19 24.75 4.15 0.71 0.64 4774
-0.05 0.98 -4.13 -4.12 17.39 3.37 0.50 0.24 4782
-0.06 0.95 -1.78 -3.47 16.37 3.01 0.19 -0.22 4789
-0.06 0.90 0.84 -1.97 14.03 2.69 0.42 -0.23 4796
-0.05 0.81 2.81 -2.82 19.31 2.07 0.41 -0.06 4803
-0.03 0.78 2.14 -1.36 12.32 0.52 -0.20 0.07 4810
-0.01 0.71 -0.31 -3.62 12.43 0.01 -0.06 0.07 4817
-0.02 0.69 -0.26 -2.25 10.79 -0.02 -0.05 -0.02 4825
-0.03 0.65 0.44 -1.23 10.15 -0.03 0.00 0.01 4831
-0.02 0.61 0.23 -0.93 9.76 -0.02 0.01 0.03 4838
0.04 0.62 0.03 -1.15 9.66 -0.05 0.03 0.02 4845
0.06 0.61 0.27 -1.16 9.90 -0.08 0.05 0.02 4852
0.06 0.59 0.23 -1.07 10.06 -0.09 0.05 0.01 4859
0.08 0.59 0.16 -0.98 10.00 -0.07 0.05 0.00 4867
0.07 0.61 0.27 -0.90 9.95 -0.05 0.05 0.00 4874
0.05 0.62 0.28 -0.86 9.91 -0.03 0.04 -0.01 4881
0.06 0.61 0.27 -0.83 9.83 -0.01 0.03 -0.01 4888
0.08 0.62 0.23 -0.75 9.82 0.01 0.01 -0.01 4895
0.07 0.62 0.18 -0.76 9.84 0.03 -0.01 -0.01 4902
0.08 0.58 0.18 -0.80 9.84 0.05 -0.03 -0.02 4910
0.08 0.56 0.25 -0.76 9.84 0.08 -0.05 -0.02 4917
0.10 0.52 0.20 -0.76 9.89 0.11 -0.06 -0.03 4924
0.11 0.49 0.23 -0.74 9.90 0.14 -0.07 -0.04 4931
0.13 0.47 0.23 -0.84 9.86 0.16 -0.09 -0.04 4938
0.14 0.41 0.23 -0.85 9.84 0.18 -0.09 -0.04 4945
0.15 0.41 0.19 -0.83 9.83 0.20 -0.09 -0.05 4953
0.14 0.36 0.20 -0.86 9.81 0.21 -0.09 -0.05 4960
0.14 0.33 0.21 -0.91 9.76 0.21 -0.09 -0.06 4967
0.15 0.28 0.11 -0.89 9.79 0.21 -0.08 -0.06 4974
0.17 0.25 0.14 -0.89 9.74 0.21 -0.07 -0.06 4981
0.15 0.25 0.17 -0.99 9.72 0.21 -0.07 -0.07 4988
0.15 0.18 0.14 -0.99 9.80 0.21 -0.06 -0.06 4996
0.16 0.14 0.21 -0.99 9.71 0.20 -0.06 -0.07 5003
0.17 0.14 0.19 -1.03 9.73 0.20 -0.06 -0.07 5010
0.17 0.17 0.27 -1.05 9.68 0.19 -0.06 -0.08 5017
0.19 0.09 0.27 -1.14 9.76 0.18 -0.07 -0.09 5024
0.20 0.08 0.25 -1.15 9.75 0.19 -0.08 -0.10 5031
0.22 0.05 0.33 -1.18 10.34 0.19 -0.09 -0.10 5039
0.24 0.04 0.09 -1.07 9.83 0.19 -0.10 -0.11 5046
0.27 0.05 0.14 -1.27 9.67 0.19 -0.11 -0.12 5053
0.28 0.05 0.22 -1.22 9.83 0.20 -0.11 -0.13 5060
0.26 0.02 -0.02 -1.23 9.75 0.20 -0.12 -0.13 5067
0.28 0.01 0.21 -1.25 9.82 0.20 -0.11 -0.14 5074
0.28 -0.01 0.04 -1.23 9.69 0.20 -0.10 -0.14 5082
0.31 0.01 0.21 -1.22 9.81 0.21 -0.09 -0.15 5089
0.34 -0.01 0.01 -1.34 9.89 0.22 -0.09 -0.15 5096
0.37 -0.01 0.30 -1.33 10.12 0.24 -0.10 -0.17 5104
0.39 0.00 0.06 -1.45 9.98 0.26 -0.11 -0.18 5110
0.42 -0.02 0.14 -1.51 10.18 0.30 -0.13 -0.19 5118
0.47 -0.03 0.30 -1.42 10.34 0.33 -0.20 -0.23 5126
0.51 -0.03 0.52 -1.44 10.38 0.39 -0.21 -0.26 5133
0.49 -0.02 0.48 -1.48 10.54 0.44 -0.27 -0.31 5140
0.57 -0.04 0.78 -1.74 10.63 0.50 -0.28 -0.35 5147
0.61 -0.03 0.99 -1.77 10.70 0.56 -0.25 -0.40 5154
0.65 -0.04 0.57 -1.86 11.12 0.65 -0.14 -0.47 5161
0.70 -0.04 -0.58 -1.74 12.22 0.85 -0.11 -0.46 5169
0.74 -0.04 -0.64 -1.76 11.35 1.06 -0.16 -0.39 5176
0.75 -0.03 -0.52 -1.75 11.32 1.17 -0.13 -0.36 5183
0.78 -0.04 -1.02 -1.65 11.22 1.30 -0.10 -0.31 5190
0.78 -0.04 -1.27 -1.66 11.90 1.41 -0.05 -0.24 5197
0.84 -0.05 -1.35 -1.94 12.30 1.57 -0.01 -0.16 5204
0.84 -0.04 -0.81 -2.04 12.83 1.77 0.04 -0.08 5212
0.86 -0.03 -0.43 -2.08 13.25 1.98 0.06 -0.04 5218
0.90 -0.03 -0.28 -2.33 13.70 2.25 0.09 -0.02 5225
0.90 -0.04 0.17 -2.38 14.01 2.50 0.08 -0.01 5232
0.91 -0.04 0.57 -2.48 14.42 2.83 0.04 -0.04 5240
0.91 -0.05 0.98 -2.70 15.07 3.18 0.01 -0.11 5246
0.95 -0.03 1.69 -2.83 14.75 3.49 -0.02 -0.21 5255
0.93 -0.03 1.21 -3.08 15.02 3.88 -0.03 -0.29 5262
0.94 -0.03 0.42 -2.66 15.91 4.21 -0.06 -0.37 5269
0.94 -0.05 0.88 -2.79 16.60 4.28 -0.15 -0.43 5276
0.85 -0.04 1.75 -2.71 16.72 4.28 -0.32 -0.52 5283
0.76 -0.05 2.07 -3.24 17.65 4.28 -0.45 -0.67 5291
0.63 -0.03 1.17 -4.26 18.44 4.28 -0.56 -0.76 5298
0.42 -0.01 1.47 -6.62 22.37 4.28 -0.68 -0.80 5305
0.28 -0.01 1.39 -7.18 25.71 4.28 -0.70 -0.81 5312
0.17 -0.02 -2.97 -7.35 25.75 4.28 -0.62 -0.87 5318
0.11 -0.01 -6.13 -9.73 31.90 4.28 -1.19 -0.82 5325
0.04 -0.00 -1.07 -11.34 31.64 4.28 -1.94 -0.58 5334
0.04 -0.00 2.03 -9.41 30.08 4.28 -2.16 -0.62 5340
0.03 0.00 3.62 -6.26 31.89 4.28 -2.41 -0.66 5348
0.04 -0.00 6.60 -2.84 30.13 4.28 -2.45 -0.59 5354
0.03 -0.00 6.76 4.64 25.44 4.28 -2.45 -0.62 5361
0.03 -0.00 5.59 9.04 20.63 4.28 -2.41 -0.66 5368
0.00 0.00 4.03 12.97 17.72 4.28 -2.69 -0.81 5376
0.00 0.00 6.92 10.22 6.74 4.28 -3.15 -0.87 5383
0.00 0.00 7.37 11.73 21.75 3.70 -2.93 -0.62 5390
0.00 0.00 9.19 14.10 20.78 1.45 -1.69 -0.71 5397
0.00 0.00 6.30 14.41 16.82 -0.53 -0.84 -0.72 5404
0.00 0.00 4.02 11.67 14.54 -1.82 -0.45 -0.75 5411
0.00 0.00 2.90 8.69 13.06 -2.29 -0.32 -0.76 5419
0.00 0.00 2.43 7.60 10.63 -2.45 -0.18 -0.73 5426
0.00 0.00 1.86 7.88 7.79 -2.52 -0.13 -0.71 5433
0.00 0.00 1.26 7.73 7.09 -2.67 -0.15 -0.66 5440
0.00 0.00 0.85 7.71 7.48 -2.91 -0.22 -0.60 5447
0.00 0.00 0.74 7.66 7.06 -3.20 -0.23 -0.52 5454
0.00 0.00 0.24 7.55 6.77 -3.57 -0.21 -0.41 5462
0.00 0.00 0.01 6.88 6.91 -3.90 -0.20 -0.25 5469
0.00 0.00 -0.10 5.64 7.12 -4.13 -0.22 -0.08 5476
0.00 0.00 0.14 5.35 7.41 -4.25 -0.20 0.04 5483
0.00 0.00 0.58 4.68 7.69 -4.28 -0.13 0.15 5490
0.00 0.00 0.75 4.18 8.51 -4.28 -0.04 0.20 5497
0.00 0.00 0.74 3.54 8.45 -4.28 0.09 0.24 5505
0.00 0.00 0.58 3.06 8.94 -4.28 0.20 0.27 5512
0.00 0.00 0.28 2.57 9.70 -4.28 0.31 0.29 5519
0.00 0.00 0.40 2.12 10.26 -4.28 0.44 0.34 5526
0.00 0.00 -0.29 2.29 10.72 -4.28 0.45 0.37 5533
0.00 0.00 -0.34 1.12 11.95 -4.28 0.54 0.40 5540
0.00 0.00 -0.37 1.13 12.19 -4.28 0.57 0.41 5548
0.00 0.00 0.47 0.23 14.02 -4.28 0.58 0.37 5555
0.00 0.00 -1.12 0.57 13.74 -4.28 0.41 0.28 5562
0.00 0.00 -0.18 -1.73 15.57 -4.28 0.34 0.18 5569
0.00 0.00 -0.08 -1.23 15.86 -4.28 0.25 0.09 5576
0.00 0.00 0.79 -2.25 17.08 -4.28 0.26 -0.05 5583
0.00 0.00 1.70 -2.63 17.26 -4.28 0.34 -0.17 5591
-0.00 0.00 2.34 -4.37 18.35 -4.28 0.55 -0.29 5598
0.00 -0.00 2.72 -5.64 19.10 -4.28 0.77 -0.37 5605
0.00 0.00 3.26 -6.63 20.70 -4.28 1.06 -0.38 5612
0.00 0.00 4.16 -7.49 22.68 -4.24 1.42 -0.37 5619
0.00 0.00 4.81 -8.51 25.02 -4.10 1.82 -0.35 5626
0.00 0.00 5.24 -9.92 27.07 -3.92 2.42 -0.32 5634
0.00 0.00 4.90 -11.13 29.84 -3.94 2.92 -0.30 5641
0.00 0.00 3.29 -12.43 31.53 -4.20 3.23 -0.25 5648
0.00 0.00 1.72 -14.09 31.43 -4.28 3.12 -0.07 5655
0.00 0.00 1.04 -16.73 29.61 -4.28 2.85 0.19 5662
0.00 0.00 0.78 -20.54 26.86 -4.28 2.59 0.50 5669
0.00 0.00 0.22 -24.81 24.34 -4.28 2.37 0.72 5677
0.00 0.00 -1.10 -28.86 20.68 -4.28 2.12 0.96 5684
0.00 0.00 -2.70 -32.73 17.00 -4.28 2.23 1.31 5691
0.00 0.00 -4.92 -38.54 13.36 -4.28 2.22 1.64 5698
0.00 0.00 -6.38 -45.81 8.26 -4.03 1.71 1.89 5705
0.00 0.00 -6.44 -56.92 1.96 -3.78 1.35 1.97 5712
-0.00 0.01 -8.78 -64.72 -2.27 -3.14 1.44 1.94 5720
0.00 0.00 -12.40 -64.62 -3.78 -1.61 1.33 1.85 5727
0.00 0.00 -13.91 -54.41 -2.38 0.05 0.64 1.61 5734
0.00 0.00 -22.46 -62.71 29.38 3.36 -1.76 1.48 5742
0.00 0.00 -8.37 -2.33 4.90 4.28 -1.72 1.31 5748
-0.01 0.06 2.74 12.06 8.96 4.28 -1.12 1.27 5755
-0.02 0.19 -1.58 2.04 24.06 3.82 -0.32 1.56 5763
-0.02 0.46 -2.84 -0.16 14.43 3.34 -0.01 1.49 5771
-0.04 0.69 -3.90 -3.81 16.40 4.06 0.17 1.28 5778
-0.04 0.79 -2.45 -6.30 17.12 4.28 0.72 1.26 5785
-0.06 0.94 -3.86 -4.72 21.49 4.28 1.04 1.20 5792
-0.06 0.95 -4.64 -5.02 22.60 3.85 1.15 0.91 5799
-0.06 1.04 -4.76 -4.45 17.75 3.27 0.85 0.31 5807
-0.05 1.02 -1.98 -3.24 15.65 3.01 0.49 -0.11 5814
-0.05 0.96 1.30 -1.55 13.51 2.64 0.54 -0.19 5821
-0.05 0.88 2.58 -2.39 16.34 2.32 0.55 -0.01 5828
-0.05 0.86 1.61 -2.77 15.26 0.91 -0.23 0.08 5835
-0.04 0.74 0.11 -3.64 13.13 0.19 -0.15 0.12 5842
-0.02 0.70 -0.20 -3.04 11.46 -0.06 -0.07 0.02 5849
-0.02 0.69 0.25 -1.54 10.20 -0.08 0.01 -0.00 5856
-0.02 0.67 0.53 -1.18 9.89 -0.07 0.03 0.03 5863
-0.02 0.66 0.19 -1.19 9.78 -0.09 0.05 0.03 5870
-0.01 0.66 0.06 -1.21 10.07 -0.11 0.10 0.02 5877
0.01 0.69 0.21 -1.13 10.22 -0.08 0.12 0.02 5884
0.04 0.68 0.23 -0.85 10.06 -0.04 0.13 0.01 5892
-0.01 0.70 0.43 -0.92 9.91 -0.01 0.12 0.01 5899
-0.01 0.67 0.47 -0.82 10.41 0.02 0.08 0.00 5906
-0.00 0.59 0.29 -0.77 9.81 0.05 0.06 0.00 5913
0.01 0.59 0.29 -0.77 9.92 0.07 0.04 -0.01 5920
0.01 0.58 0.36 -0.72 9.92 0.10 0.02 -0.01 5927
0.05 0.51 0.36 -0.81 9.90 0.12 -0.02 -0.02 5935
0.04 0.45 0.36 -0.80 9.89 0.14 -0.05 -0.02 5942
0.06 0.39 0.29 -0.82 9.88 0.17 -0.07 -0.03 5949
0.03 0.38 0.32 -0.82 9.92 0.19 -0.09 -0.03 5956
0.04 0.32 0.31 -0.86 9.95 0.22 -0.10 -0.04 5963
0.06 0.24 0.32 -0.87 9.92 0.24 -0.12 -0.05 5970
0.07 0.21 0.25 -0.85 9.90 0.26 -0.13 -0.05 5978
0.07 0.17 0.30 -0.93 9.82 0.27 -0.14 -0.06 5985
0.07 0.15 0.31 -0.97 9.78 0.28 -0.14 -0.06 5992
0.05 0.11 0.17 -0.92 9.81 0.28 -0.14 -0.07 5999
0.08 0.12 0.23 -0.89 9.82 0.29 -0.13 -0.08 6006
0.10 0.05 0.18 -1.01 9.81 0.29 -0.12 -0.08 6013
0.13 0.04 0.31 -1.10 9.74 0.29 -0.12 -0.08 6021
0.13 0.04 0.18 -1.09 9.81 0.29 -0.12 -0.09 6028
0.14 0.03 0.34 -1.17 9.66 0.28 -0.12 -0.09 6035
0.12 0.05 0.23 -1.17 9.67 0.27 -0.12 -0.10 6042
0.14 0.01 0.20 -1.31 9.60 0.26 -0.13 -0.11 6049
0.17 0.00 0.33 -1.35 9.80 0.25 -0.13 -0.12 6056
0.19 -0.01 0.17 -1.24 9.77 0.23 -0.13 -0.13 6064
0.20 -0.02 0.14 -1.40 9.66 0.23 -0.14 -0.14 6071
0.18 -0.02 0.25 -1.18 9.60 0.22 -0.14 -0.15 6078
0.19 -0.00 0.13 -1.31 9.91 0.21 -0.14 -0.15 6085
0.18 -0.01 0.35 -1.40 9.85 0.22 -0.14 -0.16 6092
0.22 -0.01 0.41 -1.57 9.92 0.24 -0.15 -0.19 6099
0.27 -0.02 0.25 -1.43 9.94 0.25 -0.15 -0.20 6107
0.23 -0.01 0.27 -1.49 10.08 0.27 -0.14 -0.22 6115
0.29 -0.02 0.22 -1.53 9.99 0.30 -0.15 -0.23 6121
0.31 -0.02 0.24 -1.57 10.19 0.33 -0.16 -0.24 6129
0.31 -0.01 0.22 -1.55 10.19 0.36 -0.16 -0.27 6136
0.37 -0.02 0.39 -1.55 10.27 0.41 -0.14 -0.28 6144
0.40 -0.02 0.10 -1.78 10.45 0.48 -0.13 -0.31 6151
0.39 -0.03 0.00 -1.70 10.77 0.58 -0.10 -0.31 6157
0.43 -0.03 -0.17 -1.80 11.06 0.70 -0.08 -0.30 6164
0.46 -0.03 0.07 -1.86 11.00 0.80 -0.12 -0.28 6171
0.48 -0.02 0.21 -1.86 11.22 0.90 -0.11 -0.27 6179
0.51 -0.03 0.14 -1.94 11.22 1.01 -0.14 -0.28 6187
0.54 -0.03 0.09 -2.02 11.14 1.12 -0.16 -0.28 6194
0.59 -0.04 0.02 -2.00 11.32 1.23 -0.18 -0.29 6201
0.61 -0.03 -0.12 -2.05 11.49 1.37 -0.20 -0.29 6208
0.65 -0.03 -0.34 -2.14 11.61 1.48 -0.21 -0.27 6215
0.69 -0.03 -0.50 -2.23 11.96 1.62 -0.24 -0.24 6222
0.72 -0.04 -0.21 -2.49 12.87 1.79 -0.25 -0.21 6230
0.74 -0.04 -0.25 -2.52 13.40 2.02 -0.29 -0.19 6237
0.76 -0.04 -0.09 -2.63 13.75 2.29 -0.34 -0.18 6244
0.79 -0.03 -0.34 -2.68 14.10 2.53 -0.34 -0.18 6251
0.80 -0.03 -0.19 -2.68 14.66 2.85 -0.37 -0.18 6258
0.84 -0.04 0.80 -2.81 15.02 3.19 -0.40 -0.20 6265
0.82 -0.04 0.87 -2.93 15.47 3.54 -0.40 -0.27 6273
0.79 -0.04 0.63 -2.86 15.92 3.97 -0.44 -0.36 6280
0.81 -0.04 0.51 -2.79 16.90 4.24 -0.48 -0.43 6287
0.74 -0.04 1.07 -3.15 18.19 4.28 -0.64 -0.50 6294
0.67 -0.01 1.20 -3.93 18.30 4.28 -0.88 -0.63 6301
0.48 -0.01 1.66 -4.91 20.23 4.28 -1.12 -0.76 6308
0.30 -0.02 0.65 -6.59 23.05 4.28 -1.48 -0.78 6316
0.25 -0.02 0.34 -6.79 24.78 4.28 -1.74 -0.83 6322
0.14 -0.01 -2.77 -6.28 27.02 4.28 -1.93 -0.96 6329
0.12 -0.01 -2.81 -8.26 31.25 4.28 -2.56 -0.87 6336
0.08 -0.00 -0.04 -8.93 31.13 4.28 -3.15 -0.76 6344
0.09 -0.01 3.26 -6.84 30.06 4.28 -3.50 -0.88 6350
0.06 -0.01 6.10 -3.75 30.57 4.28 -3.71 -0.82 6358
0.05 -0.01 8.66 1.08 28.03 4.28 -3.75 -0.77 6365
0.02 -0.00 8.23 7.02 23.90 4.28 -3.73 -0.78 6372
0.00 -0.00 8.25 12.10 21.04 4.28 -3.72 -0.79 6379
0.00 0.00 8.36 20.86 15.64 4.28 -3.95 -0.74 6386
0.00 0.00 11.41 15.97 9.84 4.08 -3.77 -0.09 6393
0.00 0.00 10.75 16.61 27.34 1.36 -2.52 0.44 6401
0.00 0.00 7.95 16.81 21.21 -0.99 -1.26 0.80 6408
0.00 0.00 3.71 14.48 16.18 -2.12 -0.94 1.04 6415
0.00 0.00 1.97 10.90 13.89 -2.63 -1.27 1.10 6422
0.00 0.00 1.79 8.30 12.72 -2.69 -1.55 1.06 6429
0.00 0.00 2.20 7.72 9.83 -2.69 -1.65 0.98 6436
0.00 0.00 3.28 7.69 8.59 -2.79 -1.62 0.86 6444
0.00 0.00 3.54 7.06 8.52 -2.98 -1.40 0.69 6451
0.00 0.00 3.53 6.50 8.64 -3.29 -1.12 0.54 6458
0.00 0.00 2.91 6.27 8.71 -3.65 -0.81 0.37 6465
0.00 0.00 2.36 5.86 8.91 -4.03 -0.60 0.26 6472
0.00 0.00 1.59 5.09 9.31 -4.27 -0.46 0.19 6479
0.00 0.00 0.89 4.16 9.64 -4.28 -0.48 0.18 6487
0.00 0.00 0.96 3.46 9.89 -4.28 -0.62 0.21 6494
0.00 0.00 1.43 2.97 10.37 -4.28 -0.77 0.27 6501
0.00 0.00 2.29 2.42 11.12 -4.28 -0.78 0.36 6508
0.00 0.00 3.13 2.05 11.57 -4.28 -0.66 0.44 6515
0.00 0.00 3.51 1.66 12.07 -4.28 -0.47 0.52 6522
0.00 0.00 3.57 1.24 12.72 -4.28 -0.31 0.59 6530
0.00 0.00 3.54 0.66 13.41 -4.28 -0.17 0.67 6537
0.00 0.00 3.38 0.20 14.01 -4.28 -0.15 0.76 6544
0.00 0.00 4.21 -0.80 14.91 -4.28 -0.12 0.83 6551
0.00 0.00 5.18 -1.37 15.27 -4.28 -0.08 0.90 6558
0.00 0.00 6.31 -2.48 15.83 -4.28 0.02 0.92 6565
0.00 0.00 6.30 -3.72 16.03 -4.28 0.15 0.94 6573
0.00 0.00 9.17 -5.28 16.14 -4.28 0.34 0.91 6580
0.00 0.00 7.58 -5.08 16.43 -4.28 0.49 0.89 6587
0.00 0.00 9.64 -8.00 17.40 -4.28 0.77 0.94 6594
0.00 0.00 9.67 -9.19 17.91 -4.28 0.94 0.95 6601
0.00 0.00 10.49 -9.82 19.22 -4.11 1.28 0.98 6608
0.00 0.00 10.16 -8.93 20.71 -3.89 1.62 0.96 6616
0.00 0.00 11.44 -9.41 21.87 -3.84 2.08 0.95 6623
0.00 0.00 11.08 -10.60 22.43 -3.81 2.64 0.92 6630
0.00 0.00 9.87 -12.70 23.08 -3.72 3.06 0.86 6637
0.00 0.00 7.59 -13.02 23.56 -3.55 3.31 0.82 6644
0.00 0.00 5.31 -13.63 23.96 -3.48 3.29 0.80 6651
0.00 0.00 3.63 -14.30 23.97 -3.50 3.12 0.81 6659
0.00 0.00 2.45 -15.14 24.70 -3.65 2.87 0.77 6666
0.00 0.00 1.63 -16.38 24.62 -3.95 2.72 0.73 6673
0.00 -0.00 0.57 -18.05 23.60 -4.26 2.65 0.71 6680
0.00 0.00 -1.08 -20.45 21.28 -4.28 2.52 0.68 6687
0.00 0.00 -2.70 -22.72 17.77 -4.28 2.33 0.68 6694
0.00 0.00 -4.72 -25.52 14.11 -4.28 2.14 0.73 6702
0.00 0.00 -7.75 -30.79 13.59 -4.24 2.38 0.92 6709
-0.00 0.00 -10.82 -35.82 10.72 -3.85 2.11 1.06 6717
0.01 -0.00 -11.84 -42.72 5.79 -3.41 0.99 1.15 6724
0.00 -0.00 -9.57 -50.86 1.57 -3.00 0.07 1.07 6730
0.01 -0.00 -6.58 -53.29 0.04 -2.05 -0.33 0.85 6737
0.00 0.00 -5.94 -49.53 -0.01 -0.93 -0.27 0.50 6745
0.00 0.00 -6.77 -49.47 3.62 0.65 -0.55 0.27 6752
0.00 0.00 -17.66 -47.75 10.67 3.35 -2.45 0.54 6760
-0.00 0.00 -1.23 -1.06 3.85 4.24 -2.67 0.77 6766
-0.01 0.08 1.96 6.27 6.82 4.25 -1.56 1.15 6773
-0.02 0.24 -1.23 1.82 21.62 3.99 -0.06 1.56 6780
-0.04 0.48 -2.58 0.16 13.88 3.78 0.13 1.46 6789
-0.04 0.74 -6.20 -6.25 18.99 4.28 0.17 1.15 6796
-0.04 0.86 -3.51 -5.79 17.41 4.28 0.56 0.91 6803
-0.05 0.97 -3.89 -5.41 24.56 4.27 0.91 0.76 6810
-0.05 1.02 -3.31 -4.34 20.58 3.62 0.97 0.37 6817
-0.05 1.07 -2.01 -3.44 16.61 3.31 0.55 -0.10 6824
-0.06 1.09 1.23 -2.17 15.71 2.92 0.48 -0.15 6832
-0.05 1.02 2.00 -2.03 15.32 2.55 0.59 0.04 6838
-0.03 0.88 0.38 -3.62 15.86 1.30 -0.17 0.08 6846
-0.04 0.83 1.13 -2.39 12.56 0.30 -0.22 0.08 6853
-0.03 0.77 0.06 -2.54 11.52 0.06 -0.12 -0.00 6859
-0.03 0.66 0.33 -1.70 10.69 -0.01 -0.05 -0.01 6866
-0.03 0.67 0.54 -1.12 9.85 -0.02 -0.00 0.02 6874
-0.02 0.63 0.16 -1.17 9.90 -0.05 0.03 0.02 6881
-0.00 0.60 0.28 -1.17 9.85 -0.08 0.07 0.02 6888
-0.01 0.60 0.36 -1.06 10.10 -0.08 0.10 0.02 6895
0.04 0.62 0.33 -0.86 9.99 -0.06 0.11 0.02 6902
0.01 0.63 0.42 -0.84 9.84 -0.04 0.12 0.01 6909
0.02 0.63 0.39 -0.79 9.84 -0.03 0.12 0.01 6917
0.02 0.63 0.39 -0.76 9.83 -0.01 0.11 0.01 6924
0.05 0.61 0.41 -0.69 9.83 0.00 0.11 -0.00 6931
0.03 0.58 0.37 -0.71 9.82 0.03 0.09 -0.01 6938
0.02 0.58 0.39 -0.67 9.82 0.04 0.08 -0.01 6945
0.01 0.56 0.42 -0.69 9.87 0.07 0.07 -0.01 6952
0.03 0.52 0.50 -0.69 9.93 0.10 0.04 -0.02 6960
0.02 0.51 0.54 -0.68 9.88 0.14 0.00 -0.02 6967
0.03 0.46 0.54 -0.74 9.91 0.17 -0.04 -0.02 6974
0.05 0.40 0.47 -0.81 9.90 0.19 -0.07 -0.03 6981
0.05 0.33 0.44 -0.80 9.81 0.21 -0.09 -0.04 6988
0.05 0.30 0.43 -0.78 9.82 0.22 -0.09 -0.05 6995
0.04 0.28 0.38 -0.81 9.74 0.22 -0.09 -0.06 7003
0.05 0.21 0.36 -0.85 9.75 0.23 -0.09 -0.06 7010
0.08 0.19 0.42 -0.85 9.81 0.23 -0.10 -0.06 7017
0.08 0.15 0.40 -0.90 9.78 0.23 -0.10 -0.07 7024
0.08 0.13 0.45 -0.90 9.68 0.22 -0.11 -0.07 7031
0.07 0.10 0.41 -1.00 9.66 0.21 -0.11 -0.07 7038
0.10 0.06 0.41 -0.92 9.72 0.20 -0.12 -0.08 7046
0.11 0.06 0.44 -0.96 9.68 0.19 -0.13 -0.08 7053
0.10 0.04 0.47 -0.99 9.74 0.18 -0.14 -0.09 7060
0.10 0.06 0.44 -1.04 9.73 0.17 -0.15 -0.09 7067
0.10 0.04 0.39 -1.14 9.68 0.16 -0.16 -0.10 7074
0.10 0.05 0.31 -1.26 9.69 0.14 -0.16 -0.10 7081
0.13 0.06 0.45 -1.25 9.65 0.13 -0.17 -0.10 7089
0.15 0.06 0.33 -1.20 9.71 0.12 -0.16 -0.10 7096
0.15 0.06 0.28 -1.14 9.54 0.11 -0.15 -0.10 7103
0.16 0.04 0.26 -1.13 9.82 0.12 -0.13 -0.10 7110
0.13 0.03 0.21 -1.28 9.83 0.13 -0.13 -0.11 7117
0.17 0.01 0.04 -1.29 9.91 0.14 -0.11 -0.10 7124
0.18 0.02 0.25 -1.27 9.78 0.14 -0.10 -0.10 7132
0.20 -0.01 0.26 -1.21 9.88 0.15 -0.10 -0.11 7139
0.21 0.01 0.15 -1.19 9.85 0.16 -0.11 -0.10 7146
0.23 -0.00 0.17 -1.30 9.83 0.17 -0.11 -0.11 7153
0.25 -0.00 0.18 -1.30 9.90 0.18 -0.12 -0.11 7160
0.27 -0.01 0.25 -1.28 9.92 0.19 -0.12 -0.12 7168
0.30 -0.02 0.31 -1.31 9.94 0.20 -0.13 -0.16 7175
0.35 -0.02 0.24 -1.34 10.02 0.23 -0.15 -0.14 7183
0.43 -0.02 0.29 -1.45 9.99 0.25 -0.16 -0.16 7189
0.45 -0.03 0.25 -1.51 10.13 0.29 -0.19 -0.19 7197
0.43 -0.03 0.37 -1.35 10.32 0.34 -0.22 -0.22 7204
0.49 -0.02 0.52 -1.60 10.46 0.40 -0.26 -0.25 7212
0.53 -0.03 0.47 -1.56 10.73 0.50 -0.32 -0.28 7219
0.57 -0.03 0.38 -1.68 10.91 0.58 -0.32 -0.32 7226
0.59 -0.03 0.36 -1.81 11.15 0.72 -0.29 -0.34 7233
0.59 -0.04 0.05 -1.71 11.52 0.91 -0.21 -0.35 7240
0.64 -0.04 -0.28 -1.70 11.43 1.04 -0.23 -0.32 7247
0.71 -0.02 -0.09 -1.77 12.05 1.18 -0.25 -0.28 7255
0.76 -0.03 -0.44 -1.78 12.53 1.33 -0.26 -0.24 7262
0.77 -0.03 -0.54 -1.79 12.98 1.54 -0.26 -0.21 7269
0.83 -0.05 -0.29 -2.07 13.18 1.79 -0.23 -0.18 7276
0.86 -0.04 -0.05 -1.94 13.86 2.02 -0.20 -0.17 7283
0.91 -0.04 0.51 -2.15 14.06 2.34 -0.19 -0.19 7290
0.95 -0.03 0.63 -2.16 14.45 2.66 -0.19 -0.23 7298
0.95 -0.04 0.45 -2.36 14.87 2.97 -0.23 -0.27 7305
0.95 -0.04 0.18 -2.24 15.23 3.31 -0.24 -0.30 7312
0.91 -0.05 -0.42 -2.31 16.08 3.64 -0.26 -0.31 7319
0.85 -0.04 0.04 -2.09 17.15 4.06 -0.31 -0.32 7326
0.83 -0.04 0.49 -2.38 17.44 4.28 -0.49 -0.34 7333
0.76 -0.03 1.54 -2.44 17.11 4.28 -0.74 -0.41 7341
0.67 -0.02 1.87 -3.25 18.71 4.28 -0.87 -0.55 7348
0.55 -0.03 1.82 -4.07 19.46 4.28 -1.00 -0.70 7355
0.38 -0.03 1.59 -5.07 20.99 4.28 -1.11 -0.78 7362
0.19 -0.02 -0.82 -4.50 23.79 4.28 -1.16 -0.81 7368
0.15 -0.01 -2.19 -6.69 28.64 4.28 -1.25 -0.83 7376
0.13 -0.01 -3.24 -7.61 29.25 4.28 -2.15 -0.92 7383
0.11 -0.01 0.82 -9.13 29.07 4.28 -3.08 -0.78 7390
0.08 -0.01 3.24 -8.21 28.32 4.28 -3.12 -0.88 7397
0.06 -0.01 4.47 -3.94 28.26 4.28 -3.32 -0.91 7404
0.03 -0.00 6.59 0.68 24.72 4.28 -3.46 -0.82 7411
0.02 -0.00 7.53 5.21 21.33 4.28 -3.53 -0.81 7418
0.03 -0.00 8.73 9.72 19.49 4.28 -3.47 -0.81 7426
0.00 -0.00 8.67 14.46 17.57 4.28 -3.36 -0.78 7434
0.00 0.00 12.38 24.58 8.53 4.27 -3.06 -0.48 7440
0.00 0.00 13.24 18.59 15.57 2.86 -1.88 0.22 7447
0.00 0.00 10.33 17.82 22.95 -0.22 -0.40 0.59 7454
0.00 0.00 4.67 15.44 16.75 -1.97 0.16 0.95 7461
0.00 -0.00 1.76 12.03 13.06 -2.93 -0.06 1.16 7469
0.00 0.00 1.08 8.61 11.63 -3.13 -0.61 1.20 7476
0.00 0.00 1.33 6.67 9.61 -3.03 -0.88 1.19 7483
0.00 0.00 1.82 6.13 7.20 -2.93 -0.98 1.14 7490
0.00 0.00 2.42 5.76 6.72 -2.92 -0.96 1.04 7497
0.00 0.00 2.75 5.46 7.49 -3.04 -0.82 0.88 7504
0.00 0.00 2.57 5.59 7.74 -3.33 -0.57 0.76 7512
0.00 0.00 1.94 5.73 8.35 -3.70 -0.31 0.64 7519
0.00 0.00 1.18 5.47 8.91 -4.13 -0.17 0.56 7526
0.00 0.00 0.40 4.79 9.47 -4.28 -0.14 0.51 7533
0.00 0.00 0.47 3.80 9.81 -4.28 -0.17 0.47 7540
0.00 0.00 0.68 3.17 9.81 -4.28 -0.19 0.42 7547
0.00 0.00 1.04 2.34 9.97 -4.28 -0.18 0.35 7555
0.00 0.00 1.40 1.57 10.27 -4.28 -0.13 0.28 7562
0.00 0.00 1.63 1.04 10.58 -4.28 -0.03 0.19 7569
0.00 0.00 1.60 0.73 10.84 -4.28 0.08 0.13 7576
0.00 0.00 1.54 0.26 11.92 -4.28 0.22 0.10 7583
0.00 0.00 1.24 -0.26 12.77 -4.28 0.44 0.13 7590
0.00 0.00 1.64 -1.15 13.49 -4.28 0.56 0.14 7598
0.00 0.00 2.02 -1.10 14.06 -4.28 0.66 0.08 7605
0.00 0.00 1.80 -1.64 14.54 -4.28 0.78 0.06 7612
0.00 0.00 1.43 -2.24 16.37 -4.28 0.85 0.08 7619
0.00 0.00 1.25 -1.91 16.15 -4.28 0.78 0.06 7626
0.00 0.00 1.10 -2.74 17.73 -4.28 0.76 0.09 7633
0.00 0.00 2.11 -3.26 17.90 -4.28 0.73 0.11 7641
0.00 0.00 2.74 -3.78 18.51 -4.28 0.82 0.12 7648
0.00 0.00 3.02 -4.55 19.15 -4.28 1.00 0.13 7655
0.00 0.00 3.26 -4.77 20.33 -4.28 1.26 0.16 7662
0.00 0.00 2.92 -5.52 22.45 -4.28 1.52 0.18 7669
0.00 -0.00 2.51 -5.69 23.60 -4.28 1.79 0.21 7676
0.00 0.00 2.08 -6.44 25.02 -4.28 1.99 0.27 7684
0.00 0.00 1.38 -7.54 26.42 -4.28 2.12 0.33 7691
0.00 0.00 0.46 -9.19 27.21 -4.28 2.19 0.42 7698
0.00 0.00 -0.06 -11.23 27.50 -4.28 2.18 0.51 7705
0.00 0.00 -0.69 -13.50 27.22 -4.28 2.11 0.61 7712
0.00 0.00 -1.21 -17.17 26.47 -4.28 1.96 0.74 7719
0.00 0.00 -1.25 -20.17 24.54 -4.28 1.78 0.84 7727
0.00 0.00 -0.70 -23.66 21.56 -4.28 1.59 0.93 7734
0.00 0.00 -0.75 -27.53 16.50 -4.28 1.54 1.09 7741
0.00 0.00 -1.48 -32.37 12.51 -4.12 1.84 1.23 7748
0.00 0.00 -2.65 -43.68 8.04 -3.53 2.32 1.34 7755
0.00 0.00 -6.22 -55.66 3.31 -3.04 2.62 1.35 7762
0.00 0.00 -12.48 -60.13 1.11 -2.10 2.69 1.37 7770
0.00 0.00 -18.11 -57.23 1.26 -0.86 1.96 1.34 7777
0.00 0.00 -17.81 -47.92 2.41 0.72 0.65 1.20 7784
0.00 0.00 -13.55 -36.38 5.15 1.92 -1.13 0.92 7791
0.00 -0.00 10.19 -41.01 29.14 3.25 -2.31 -0.03 7799
0.00 0.00 -4.08 -1.13 11.00 4.24 -1.35 -0.75 7805
-0.00 0.03 -0.65 7.30 9.28 3.99 -1.60 -0.94 7813
-0.01 0.13 0.40 2.08 18.46 3.33 -2.04 -0.97 7820
-0.03 0.27 6.08 -0.65 13.13 3.00 -1.47 -0.58 7827
-0.04 0.45 2.57 -2.26 11.47 3.49 -1.05 -0.08 7835
-0.03 0.56 2.60 -4.22 16.62 4.14 -0.77 0.31 7842
-0.04 0.69 2.61 -2.41 18.41 4.22 0.17 0.86 7849
-0.05 0.79 -1.77 -3.57 20.44 3.73 0.45 1.03 7857
-0.05 0.90 -4.91 -4.36 18.14 3.13 0.28 0.76 7864
-0.05 0.92 -4.79 -3.39 15.70 3.02 0.33 0.27 7871
-0.05 0.91 -2.54 -2.32 14.53 2.74 0.31 -0.06 7878
-0.04 0.88 0.05 -1.06 12.35 2.37 0.13 -0.29 7885
-0.04 0.83 1.60 -1.17 11.43 2.27 0.19 -0.22 7892
-0.05 0.77 2.64 -3.26 19.08 1.92 0.19 -0.01 7900
-0.05 0.73 2.34 -0.86 11.32 0.19 -0.33 0.07 7907
-0.04 0.75 -0.41 -3.63 12.48 -0.14 -0.12 -0.01 7914
-0.03 0.77 -0.23 -1.58 10.48 -0.10 -0.06 -0.05 7921
-0.00 0.70 0.33 -1.12 9.90 -0.10 0.00 -0.00 7927
-0.02 0.70 0.00 -1.03 9.80 -0.10 0.02 0.00 7934
-0.00 0.69 -0.08 -1.16 9.83 -0.12 0.07 -0.01 7942
-0.00 0.71 0.10 -1.16 10.12 -0.13 0.11 0.03 7950
0.01 0.71 0.11 -0.85 10.11 -0.10 0.12 0.00 7956
0.01 0.72 0.12 -0.88 9.93 -0.08 0.12 -0.00 7963
0.01 0.72 0.12 -0.89 9.90 -0.05 0.12 -0.00 7970
-0.00 0.68 0.11 -0.76 9.89 -0.02 0.10 -0.01 7977
0.02 0.68 0.12 -0.73 9.86 0.00 0.10 -0.01 7985
0.02 0.68 0.10 -0.75 9.85 0.03 0.09 -0.01 7992
0.02 0.68 0.15 -0.78 9.81 0.05 0.07 -0.01 7999
0.02 0.65 0.08 -0.74 9.82 0.07 0.07 -0.01 8006
0.01 0.58 0.13 -0.78 9.88 0.08 0.07 -0.02 8013
0.03 0.54 0.09 -0.74 9.94 0.10 0.07 -0.02 8020
0.01 0.52 0.14 -0.76 9.94 0.13 0.07 -0.02 8028
0.03 0.53 0.15 -0.76 9.93 0.14 0.07 -0.02 8035
0.05 0.47 0.17 -0.80 9.82 0.16 0.06 -0.03 8042
0.07 0.45 0.16 -0.78 9.86 0.18 0.05 -0.03 8049
0.06 0.40 0.17 -0.77 9.82 0.20 0.05 -0.04 8056
0.06 0.35 0.18 -0.84 9.79 0.20 0.05 -0.04 8064
0.06 0.29 0.16 -0.80 9.76 0.21 0.05 -0.05 8071
0.07 0.23 0.26 -0.87 9.70 0.22 0.05 -0.05 8078
0.08 0.20 0.22 -0.91 9.75 0.22 0.05 -0.06 8085
0.10 0.15 0.24 -0.95 9.73 0.22 0.05 -0.06 8092
0.09 0.12 0.24 -0.98 9.68 0.21 0.04 -0.06 8099
0.10 0.09 0.31 -1.04 9.64 0.19 0.03 -0.07 8107
0.09 0.10 0.30 -1.01 9.70 0.18 0.02 -0.07 8114
0.09 0.07 0.34 -1.09 9.71 0.17 0.00 -0.08 8121
0.10 0.09 0.31 -1.10 9.67 0.16 -0.01 -0.08 8128
0.12 0.08 0.11 -1.05 9.72 0.15 -0.03 -0.09 8135
0.12 0.05 0.29 -1.11 9.65 0.14 -0.05 -0.09 8142
0.13 0.06 0.22 -1.17 9.79 0.14 -0.06 -0.09 8150
0.13 0.04 0.28 -1.21 9.79 0.14 -0.07 -0.10 8157
0.19 0.03 0.11 -1.14 9.82 0.15 -0.09 -0.09 8164
0.16 0.05 0.26 -1.21 9.81 0.15 -0.08 -0.10 8171
0.15 0.02 0.17 -1.22 9.77 0.15 -0.08 -0.09 8178
0.19 0.02 0.12 -1.24 9.76 0.14 -0.07 -0.10 8185
0.20 0.01 0.14 -1.20 9.75 0.14 -0.07 -0.10 8193
0.20 0.01 0.17 -1.30 9.81 0.14 -0.06 -0.10 8200
0.24 0.03 0.19 -1.30 9.85 0.15 -0.04 -0.10 8207
0.26 0.02 0.10 -1.23 9.83 0.16 -0.04 -0.10 8214
0.29 0.00 0.16 -1.31 9.98 0.18 -0.02 -0.11 8221
0.32 -0.01 0.08 -1.31 9.95 0.19 -0.02 -0.11 8228
0.34 -0.02 0.16 -1.28 10.02 0.22 -0.01 -0.12 8237
0.35 -0.02 0.26 -1.32 10.13 0.24 0.01 -0.14 8244
0.36 -0.02 0.21 -1.45 10.31 0.27 0.02 -0.15 8251
0.34 -0.02 0.31 -1.43 10.54 0.31 0.03 -0.17 8258
0.37 -0.02 0.50 -1.44 10.88 0.38 0.05 -0.19 8264
0.40 -0.03 0.82 -1.67 11.39 0.52 0.09 -0.23 8271
0.42 -0.02 0.43 -1.83 12.25 0.73 0.15 -0.28 8280
0.44 -0.02 0.34 -1.55 12.32 1.03 0.15 -0.29 8287
0.50 -0.03 0.39 -1.69 11.93 1.23 0.12 -0.30 8294
0.54 -0.03 0.30 -1.80 11.94 1.37 0.11 -0.30 8300
0.55 -0.02 0.10 -1.60 12.18 1.53 0.09 -0.30 8307
0.57 -0.03 0.00 -1.88 12.41 1.69 0.06 -0.27 8314
0.60 -0.03 -0.16 -1.95 12.67 1.88 0.03 -0.25 8322
0.67 -0.02 -0.21 -2.04 13.14 2.12 0.01 -0.22 8330
0.70 -0.04 0.07 -2.16 13.57 2.34 0.00 -0.20 8336
0.69 -0.03 0.23 -2.13 13.86 2.64 -0.01 -0.19 8344
0.73 -0.03 0.59 -2.37 14.37 2.90 -0.02 -0.21 8351
0.72 -0.03 0.95 -2.37 15.21 3.23 -0.05 -0.25 8358
0.74 -0.03 1.16 -2.49 14.84 3.56 -0.07 -0.32 8366
0.76 -0.02 1.05 -2.67 15.38 3.87 -0.08 -0.38 8373
0.77 -0.03 1.16 -2.84 15.45 4.20 -0.11 -0.44 8380
0.74 -0.04 1.31 -2.84 16.49 4.28 -0.17 -0.50 8387
0.68 -0.04 1.69 -2.90 15.74 4.28 -0.31 -0.58 8394
0.56 -0.03 1.72 -3.29 17.56 4.28 -0.58 -0.70 8401
0.46 -0.02 1.83 -4.78 20.14 4.28 -0.74 -0.79 8409
0.35 -0.01 1.57 -6.19 22.80 4.28 -0.87 -0.81 8416
0.24 -0.01 1.09 -5.46 21.48 4.28 -0.79 -0.82 8423
0.13 -0.01 -1.36 -7.78 25.65 4.28 -0.59 -0.91 8429
0.09 -0.01 -3.89 -9.28 29.35 4.28 -1.41 -0.93 8436
0.03 -0.00 0.17 -11.70 29.83 4.28 -2.22 -0.72 8444
0.04 -0.00 3.36 -8.90 28.18 4.28 -2.50 -0.85 8451
0.03 0.00 4.86 -5.39 28.24 4.28 -2.65 -0.86 8459
0.03 -0.00 6.23 -0.43 25.59 4.28 -2.56 -0.80 8465
0.02 -0.00 6.59 4.38 22.48 4.28 -2.39 -0.78 8472
0.00 0.00 6.87 9.75 21.65 4.28 -2.19 -0.79 8479
0.00 0.00 8.15 13.88 21.45 4.28 -2.00 -0.86 8486
0.00 0.00 9.61 25.11 9.80 4.28 -1.75 -0.79 8494
0.00 0.00 9.16 21.84 11.16 3.40 -1.11 -0.45 8501
0.00 0.00 7.10 20.34 21.69 0.20 -0.34 -0.20 8508
0.00 0.00 3.17 15.86 18.34 -1.71 -0.15 0.10 8515
0.00 0.00 0.86 13.35 14.52 -2.86 -0.42 0.32 8522
0.00 0.00 0.95 10.39 11.34 -3.23 -0.90 0.43 8529
0.00 0.00 1.76 8.46 9.41 -3.15 -1.02 0.46 8537
0.00 0.00 2.21 6.86 7.65 -3.05 -0.91 0.47 8544
0.00 0.00 2.34 6.50 6.51 -3.06 -0.67 0.47 8551
0.00 0.00 2.02 6.23 7.12 -3.19 -0.46 0.43 8558
0.00 0.00 1.21 6.23 7.95 -3.51 -0.16 0.39 8565
0.00 0.00 0.24 6.46 8.61 -3.90 0.03 0.39 8572
-0.00 0.00 -0.85 5.99 9.15 -4.26 0.14 0.41 8580
0.01 -0.00 -1.69 4.81 9.72 -4.28 0.10 0.48 8587
0.00 0.00 -1.92 3.59 9.91 -4.28 0.00 0.52 8594
0.00 0.00 -1.78 2.54 9.96 -4.28 -0.12 0.53 8601
0.00 0.00 -1.43 1.66 10.17 -4.28 -0.17 0.51 8608
0.00 0.00 -0.79 0.87 10.24 -4.28 -0.18 0.45 8615
-0.00 0.00 -0.59 0.47 10.46 -4.28 -0.11 0.32 8623
0.00 0.00 -0.35 -0.06 11.31 -4.28 0.04 0.17 8630
0.00 0.00 -0.32 -0.34 11.78 -4.28 0.23 0.06 8637
0.00 0.00 -0.79 -0.45 12.59 -4.28 0.36 -0.10 8644
0.00 0.00 -0.79 -0.84 13.49 -4.28 0.44 -0.22 8651
0.00 0.00 -0.50 -1.20 14.22 -4.28 0.49 -0.35 8658
0.00 0.00 -1.31 -1.24 15.55 -4.28 0.44 -0.45 8666
0.00 0.00 -0.16 -2.04 15.61 -4.28 0.40 -0.55 8673
0.00 0.00 -0.23 -2.16 16.62 -4.28 0.30 -0.66 8680
0.00 0.00 0.93 -3.22 17.15 -4.28 0.34 -0.73 8687
0.00 0.00 1.81 -3.49 17.15 -4.28 0.45 -0.82 8694
0.00 0.00 2.92 -5.07 17.62 -4.28 0.69 -0.91 8701
0.00 0.00 3.29 -5.85 18.25 -4.28 1.02 -0.95 8709
0.00 0.00 3.81 -6.83 19.29 -4.23 1.41 -0.98 8716
0.00 0.00 3.78 -7.07 21.25 -4.05 1.73 -0.97 8723
0.00 0.00 3.90 -7.39 22.92 -3.92 2.09 -0.95 8730
0.00 0.00 3.64 -7.72 24.56 -3.97 2.35 -0.88 8737
-0.00 0.00 2.88 -8.60 25.53 -4.13 2.55 -0.80 8744
0.00 -0.00 2.09 -10.08 26.08 -4.27 2.62 -0.68 8752
0.00 0.00 1.49 -12.25 25.89 -4.28 2.58 -0.56 8759
0.00 0.00 0.83 -13.42 24.99 -4.28 2.51 -0.41 8766
0.00 0.00 0.17 -16.02 23.27 -4.28 2.43 -0.24 8773
0.00 0.00 -0.23 -18.75 21.45 -4.28 2.35 -0.10 8780
0.00 0.00 -0.91 -21.82 19.38 -4.28 2.29 -0.00 8787
0.00 -0.00 -2.16 -24.64 15.90 -4.23 2.28 0.11 8796
0.00 0.00 -4.79 -26.40 14.05 -3.83 2.60 0.24 8802
0.00 0.00 -8.45 -32.61 12.67 -3.39 2.79 0.34 8809
0.00 0.00 -12.19 -39.40 9.39 -3.07 2.52 0.36 8816
0.00 0.00 -15.01 -48.56 4.68 -2.72 1.73 0.32 8823
0.00 0.00 -16.13 -53.52 0.54 -2.07 0.79 0.27 8832
0.01 -0.00 -15.01 -51.55 -0.49 -0.83 -0.07 0.13 8838
0.00 -0.00 -14.66 -54.40 5.70 0.63 -1.69 -0.10 8845
0.00 0.00 -19.31 -45.95 4.27 2.97 -3.61 -0.13 8852
0.00 0.00 -0.65 -7.05 8.48 4.15 -4.28 -0.23 8859
-0.00 0.04 -1.06 4.63 13.23 4.18 -3.86 -0.05 8866
-0.02 0.17 -2.28 3.28 22.49 3.56 -2.28 0.37 8873
-0.03 0.39 -0.37 2.18 12.46 3.06 -1.64 0.63 8882
-0.03 0.52 -4.16 -3.17 16.35 3.58 -1.56 0.56 8889
-0.04 0.71 -3.43 -4.11 14.74 4.17 -0.60 0.58 8896
-0.05 0.84 -4.50 -4.24 18.87 4.20 0.07 0.58 8903
-0.05 0.91 -5.21 -4.99 21.00 3.67 0.46 0.33 8910
-0.04 1.01 -2.90 -3.82 16.81 3.19 0.39 -0.10 8918
-0.05 1.03 -0.55 -2.83 15.59 2.96 0.24 -0.28 8925
-0.05 1.01 1.33 -1.89 15.07 2.57 0.41 -0.16 8932
-0.05 0.92 1.49 -1.20 12.81 2.17 0.68 0.07 8939
-0.06 0.89 1.08 -3.43 18.24 1.64 0.46 0.19 8946
-0.04 0.82 0.86 -1.46 12.12 0.21 -0.14 0.12 8953
-0.03 0.74 -0.66 -3.04 12.15 -0.10 -0.05 0.03 8961
-0.03 0.77 -0.21 -1.38 10.30 -0.06 -0.01 0.01 8967
-0.03 0.72 -0.00 -1.22 10.34 -0.07 0.03 0.04 8974
-0.02 0.71 -0.19 -0.99 9.92 -0.05 0.05 0.04 8981
0.02 0.68 0.02 -1.20 9.85 -0.08 0.08 0.03 8988
0.03 0.71 0.08 -1.13 10.04 -0.09 0.10 0.02 8995
0.04 0.69 -0.02 -0.90 10.03 -0.08 0.12 0.01 9003
0.03 0.68 0.02 -0.82 9.99 -0.06 0.13 0.01 9010
0.00 0.70 0.07 -0.81 9.87 -0.04 0.14 0.00 9017
-0.01 0.69 0.01 -0.72 9.81 -0.03 0.15 0.00 9024
0.02 0.68 0.06 -0.66 9.79 -0.01 0.15 -0.00 9031
0.04 0.69 0.11 -0.69 9.84 0.01 0.15 -0.00 9038
0.04 0.67 0.09 -0.69 9.76 0.04 0.14 -0.01 9046
0.02 0.65 0.09 -0.70 9.72 0.04 0.14 -0.01 9053
0.03 0.64 0.04 -0.70 9.82 0.04 0.15 -0.01 9060
0.02 0.58 0.04 -0.66 9.86 0.06 0.16 -0.02 9067
0.03 0.57 0.13 -0.70 9.90 0.08 0.16 -0.02 9074
0.05 0.53 0.16 -0.69 9.87 0.11 0.15 -0.02 9081
0.04 0.48 0.22 -0.68 9.84 0.14 0.13 -0.02 9089
0.04 0.42 0.21 -0.68 9.81 0.17 0.12 -0.03 9096
0.06 0.38 0.26 -0.70 9.81 0.19 0.11 -0.03 9103
0.06 0.34 0.22 -0.73 9.81 0.21 0.10 -0.04 9110
0.07 0.30 0.26 -0.77 9.76 0.22 0.09 -0.04 9117
0.08 0.27 0.27 -0.81 9.74 0.22 0.08 -0.05 9124
0.08 0.19 0.24 -0.86 9.70 0.22 0.07 -0.06 9132
0.07 0.14 0.29 -0.91 9.75 0.22 0.07 -0.06 9139
0.07 0.12 0.28 -0.88 9.71 0.21 0.07 -0.06 9146
0.08 0.09 0.34 -0.89 9.78 0.21 0.07 -0.06 9153
0.07 0.13 0.29 -0.96 9.76 0.21 0.05 -0.07 9160
0.09 0.07 0.30 -0.96 9.74 0.20 0.04 -0.07 9167
0.07 0.07 0.26 -0.90 9.66 0.19 0.03 -0.08 9175
0.06 0.05 0.27 -0.96 9.71 0.19 0.03 -0.08 9182
0.08 0.05 0.58 -0.99 9.44 0.20 0.01 -0.08 9189
0.09 0.04 0.74 -0.89 10.04 0.19 0.01 -0.09 9196
0.07 0.02 0.13 -1.66 9.98 0.20 -0.01 -0.10 9203
0.13 0.02 0.25 -1.05 9.78 0.19 -0.03 -0.10 9210
0.12 0.03 0.45 -1.04 9.79 0.19 -0.04 -0.10 9218
0.09 0.03 0.52 -1.20 9.82 0.20 -0.06 -0.10 9225
0.10 0.04 0.17 -1.26 9.92 0.20 -0.06 -0.10 9232
0.12 0.00 0.43 -1.15 9.81 0.21 -0.07 -0.11 9239
0.13 0.01 0.28 -1.18 9.84 0.21 -0.07 -0.11 9246
0.16 -0.00 0.13 -1.31 9.91 0.22 -0.07 -0.12 9253
0.12 -0.00 0.24 -1.22 9.85 0.22 -0.07 -0.12 9261
0.12 -0.01 0.20 -1.27 9.87 0.24 -0.06 -0.13 9268
0.10 -0.01 0.29 -1.27 9.88 0.25 -0.04 -0.14 9275
0.16 -0.01 0.24 -1.36 9.99 0.28 -0.02 -0.14 9282
0.23 -0.02 0.34 -1.37 10.18 0.31 0.01 -0.16 9290
0.24 -0.01 0.47 -1.37 10.34 0.35 0.06 -0.18 9297
0.23 -0.01 0.54 -1.50 10.58 0.43 0.18 -0.22 9305
0.25 -0.02 0.69 -1.68 11.31 0.57 0.30 -0.24 9312
0.31 -0.02 -0.03 -1.63 11.64 0.83 0.43 -0.23 9319
0.36 -0.02 0.58 -1.76 11.72 1.06 0.43 -0.21 9326
0.38 -0.03 0.15 -1.68 11.76 1.19 0.44 -0.22 9333
0.37 -0.02 0.21 -1.75 11.73 1.34 0.39 -0.20 9340
0.39 -0.02 0.34 -1.94 12.17 1.46 0.39 -0.19 9348
0.43 -0.02 0.07 -1.83 13.26 1.64 0.37 -0.17 9355
0.45 -0.03 0.07 -2.05 13.35 1.86 0.34 -0.15 9362
0.44 -0.01 0.39 -1.89 13.55 2.07 0.28 -0.12 9369
0.47 -0.02 0.45 -2.19 13.95 2.36 0.28 -0.11 9376
0.48 -0.03 0.63 -2.39 14.18 2.64 0.32 -0.11 9383
0.48 -0.03 0.97 -2.44 15.01 2.99 0.35 -0.12 9391
0.46 -0.02 1.51 -2.31 14.70 3.34 0.39 -0.17 9398
0.50 -0.03 1.39 -2.39 15.35 3.64 0.41 -0.24 9405
0.50 -0.02 0.96 -2.97 15.76 4.03 0.40 -0.28 9412
0.52 -0.03 0.50 -2.02 16.42 4.25 0.38 -0.30 9419
0.53 -0.03 1.25 -2.57 16.62 4.28 0.37 -0.33 9426
0.45 -0.04 2.20 -3.84 17.71 4.28 0.25 -0.40 9434
0.36 -0.03 2.33 -2.84 18.05 4.28 0.14 -0.53 9441
0.26 -0.02 1.49 -5.59 20.67 4.28 0.12 -0.60 9448
0.19 -0.00 1.19 -5.71 26.38 4.28 -0.05 -0.63 9455
0.15 -0.02 -0.09 -7.18 25.23 4.28 -0.32 -0.64 9461
0.07 -0.01 0.52 -8.32 25.72 4.28 -0.66 -0.64 9468
0.04 -0.00 -0.24 -8.16 31.39 4.28 -0.62 -0.59 9476
0.04 -0.00 -1.15 -9.42 31.65 4.28 -1.03 -0.52 9483
0.03 0.00 0.58 -4.25 28.03 4.28 -1.98 -0.44 9490
0.05 -0.00 5.85 -3.70 31.03 4.28 -2.25 -0.40 9497
0.02 -0.00 9.41 0.01 29.76 4.28 -2.16 -0.34 9504
0.01 -0.00 9.77 7.46 23.14 4.28 -1.54 -0.36 9511
0.00 0.00 10.38 12.29 21.36 4.28 -0.85 -0.48 9519
0.00 0.00 9.65 27.51 15.48 4.28 -0.07 -0.75 9526
0.00 0.00 11.80 26.60 -1.60 4.05 0.62 -1.15 9533
0.00 0.00 7.43 20.14 26.22 1.05 1.18 -0.91 9540
0.00 0.00 -0.80 18.82 22.97 -1.45 1.10 -0.78 9547
0.00 0.00 -2.58 16.65 15.92 -2.76 0.40 -0.70 9554
0.00 0.00 -1.20 12.38 12.75 -3.16 -0.66 -0.75 9562
0.00 0.00 0.44 8.74 10.02 -3.10 -1.14 -0.90 9569
0.00 0.00 2.54 7.76 8.42 -2.97 -1.09 -1.00 9576
0.00 0.00 3.62 7.26 6.78 -2.92 -0.68 -1.11 9583
0.00 0.00 3.26 7.33 6.62 -3.02 -0.19 -1.18 9590
0.00 0.00 1.43 7.55 7.47 -3.29 0.35 -1.20 9597
0.00 0.00 -0.40 7.64 8.59 -3.66 0.59 -1.09 9605
0.00 0.00 -2.20 7.35 9.27 -4.14 0.61 -0.92 9612
0.00 0.00 -3.06 6.29 9.82 -4.28 0.42 -0.68 9619
0.00 0.00 -3.14 5.18 10.03 -4.28 0.20 -0.46 9626
0.00 0.00 -2.56 3.94 10.06 -4.28 0.02 -0.24 9633
0.00 0.00 -1.79 2.83 10.14 -4.28 0.02 -0.07 9640
0.00 0.00 -1.44 2.22 10.14 -4.28 0.11 0.02 9648
0.00 0.00 -1.17 1.27 10.82 -4.28 0.32 0.09 9655
0.01 -0.00 -1.34 0.86 11.25 -4.28 0.52 0.13 9662
0.00 0.00 -2.09 0.84 11.73 -4.28 0.65 0.15 9669
0.00 0.00 -1.62 -0.74 14.05 -4.28 0.88 0.17 9676
0.00 0.00 -3.92 0.23 13.80 -4.28 0.74 0.13 9683
0.00 0.00 -2.31 -1.60 15.39 -4.28 0.79 0.03 9691
0.02 0.00 -4.34 -0.09 15.16 -4.28 0.55 -0.09 9698
0.00 -0.00 -3.15 -1.85 17.31 -4.28 0.43 -0.17 9705
0.00 0.00 -3.07 -1.30 17.31 -4.28 0.24 -0.31 9712
0.00 0.00 -1.79 -1.87 18.41 -4.28 0.24 -0.44 9719
0.00 0.00 -1.65 -2.02 18.64 -4.28 0.33 -0.54 9726
0.00 0.00 -1.13 -3.22 20.01 -4.28 0.51 -0.61 9734
0.00 0.01 -0.88 -3.77 20.53 -4.28 0.78 -0.64 9741
0.01 -0.00 -0.68 -4.81 22.33 -4.28 1.00 -0.64 9748
0.00 0.00 -0.76 -5.70 23.65 -4.28 1.12 -0.63 9755
0.00 0.00 -0.18 -7.21 24.77 -4.26 1.24 -0.60 9762
0.00 0.00 1.13 -9.29 26.46 -4.20 1.44 -0.59 9769
0.00 0.00 1.00 -10.88 27.84 -4.19 1.70 -0.57 9777
-0.00 0.00 0.76 -12.14 28.71 -4.27 1.99 -0.49 9785
0.01 -0.00 -0.44 -13.55 28.41 -4.28 2.11 -0.25 9792
0.00 -0.00 -2.28 -16.00 26.63 -4.28 2.08 0.06 9798
0.00 0.00 -3.58 -20.11 23.92 -4.28 1.93 0.40 9805
0.01 -0.00 -4.62 -24.58 21.45 -4.28 1.69 0.61 9814
0.00 0.00 -5.59 -29.99 18.17 -4.28 1.40 0.81 9820
0.00 -0.00 -5.57 -34.89 13.84 -4.28 1.10 0.94 9828
0.00 0.00 -4.22 -41.04 10.09 -3.94 0.77 0.92 9834
0.00 0.00 -3.52 -51.25 5.10 -3.46 0.79 0.70 9841
0.00 0.00 -5.40 -60.00 0.45 -2.93 1.13 0.41 9848
0.00 0.00 -9.38 -64.22 -1.81 -1.90 1.43 0.07 9856
0.00 0.00 -12.44 -58.96 -1.27 -0.60 1.09 -0.23 9863
0.00 -0.00 -12.04 -49.55 1.25 0.98 -0.04 -0.47 9870
0.00 -0.00 -0.03 -52.13 20.24 3.08 -2.08 -0.76 9877
0.00 0.00 -4.03 -1.89 10.63 4.24 -2.34 -1.09 9884
-0.00 0.03 7.31 13.02 6.93 3.91 -2.04 -1.00 9891
-0.01 0.13 2.60 3.25 22.05 3.29 -1.78 -0.66 9899
-0.03 0.37 6.16 0.80 12.36 2.74 -1.40 -0.23 9907
-0.03 0.54 3.78 -1.15 10.62 3.20 -1.22 0.28 9914
-0.05 0.75 2.32 -3.95 16.79 3.76 -0.87 0.77 9921
-0.04 0.82 1.35 -2.17 17.33 4.06 0.13 1.25 9928
-0.06 0.93 -4.08 -2.68 19.16 3.79 0.48 1.31 9935
-0.06 1.01 -6.51 -4.09 18.18 3.21 0.35 0.86 9943
-0.05 1.03 -5.60 -3.52 15.12 2.99 0.42 0.32 9950
-0.05 1.07 -2.07 -2.06 14.08 2.87 0.45 -0.12 9957
-0.06 1.08 0.45 -1.33 13.13 2.60 0.33 -0.24 9964
-0.06 1.05 2.33 -1.11 12.07 2.41 0.42 -0.10 9971
-0.07 0.98 2.22 -1.87 13.86 2.28 0.62 0.18 9978
-0.05 0.94 -0.49 -3.50 17.85 0.97 -0.08 0.21 9986
-0.04 0.85 0.06 -2.55 12.80 0.12 -0.19 0.07 9992
-0.04 0.79 -0.36 -2.48 11.32 -0.07 -0.05 -0.01 10000
-0.04 0.82 0.41 -1.41 10.14 -0.06 -0.01 -0.00 10006
0.00 0.72 0.19 -1.18 9.92 -0.05 0.01 0.02 10013
-0.01 0.72 -0.09 -1.21 9.89 -0.06 0.04 0.01 10020
0.00 0.73 0.18 -1.23 10.04 -0.08 0.08 0.00 10028
0.02 0.75 0.28 -1.07 10.11 -0.07 0.09 0.00 10035
0.01 0.72 0.16 -0.94 9.99 -0.05 0.09 -0.00 10042
0.01 0.72 0.18 -0.87 9.92 -0.03 0.09 -0.00 10049
0.01 0.66 0.27 -0.85 9.91 -0.00 0.09 -0.00 10056
-0.02 0.69 0.23 -0.82 9.81 0.01 0.07 -0.01 10063
-0.01 0.69 0.21 -0.77 9.86 0.03 0.05 -0.00 10071
0.03 0.67 0.25 -0.72 9.92 0.06 0.02 -0.01 10078
0.02 0.63 0.23 -0.79 9.92 0.08 -0.00 -0.01 10085
0.02 0.60 0.21 -0.75 9.89 0.11 -0.03 -0.02 10092
0.02 0.57 0.20 -0.75 9.89 0.16 -0.05 -0.02 10099
0.04 0.50 0.23 -0.79 9.88 0.15 -0.07 -0.03 10106
0.05 0.54 0.26 -0.79 9.86 0.17 -0.08 -0.03 10114
0.07 0.41 0.21 -0.84 9.89 0.19 -0.10 -0.04 10121
0.05 0.41 0.22 -0.92 9.20 0.19 -0.12 -0.05 10128
0.04 0.39 0.20 -0.93 9.80 0.20 -0.13 -0.05 10135
0.05 0.38 0.17 -0.91 9.71 0.20 -0.13 -0.06 10142
0.07 0.36 0.18 -0.91 9.73 0.20 -0.13 -0.06 10149
0.07 0.35 0.17 -0.93 9.71 0.19 -0.13 -0.06 10157
0.11 0.30 0.20 -0.95 9.75 0.19 -0.12 -0.07 10164
0.11 0.23 0.16 -1.01 9.69 0.18 -0.11 -0.07 10171
0.12 0.22 0.19 -1.05 9.61 0.16 -0.11 -0.08 10178
0.11 0.21 0.11 -1.01 9.71 0.15 -0.10 -0.07 10185
0.11 0.18 0.15 -1.09 9.69 0.14 -0.10 -0.08 10192
0.13 0.13 0.11 -1.08 9.76 0.14 -0.09 -0.08 10200
0.15 0.10 0.13 -1.06 9.75 0.14 -0.09 -0.09 10207
0.14 0.11 0.60 -1.09 9.74 0.14 -0.10 -0.09 10214
0.16 0.10 0.18 -1.13 9.79 0.14 -0.09 -0.10 10221
0.16 0.09 0.02 -1.07 9.71 0.15 -0.09 -0.10 10228
0.20 0.08 0.03 -0.62 9.76 0.14 -0.08 -0.10 10235
0.22 0.06 0.01 -1.22 9.77 0.15 -0.07 -0.11 10243
0.20 0.06 -0.12 -1.16 9.73 0.14 -0.06 -0.10 10250
0.24 0.08 -0.01 -1.24 9.83 0.15 -0.05 -0.11 10257
0.27 0.05 0.03 -1.16 9.83 0.16 -0.05 -0.11 10264
0.30 0.04 0.05 -1.17 9.98 0.18 -0.05 -0.12 10271
0.29 0.08 -0.00 -1.24 9.89 0.20 -0.05 -0.12 10278
0.32 0.04 0.09 -1.26 9.83 0.22 -0.06 -0.12 10286
0.32 0.02 0.17 -1.27 10.04 0.24 -0.08 -0.13 10294
0.36 0.00 0.19 -1.41 10.03 0.28 -0.10 -0.15 10300
0.38 -0.01 0.31 -1.40 10.08 0.31 -0.11 -0.17 10308
0.47 -0.02 0.19 -1.50 10.23 0.35 -0.14 -0.20 10315
0.51 -0.02 0.12 -1.43 10.26 0.40 -0.16 -0.23 10322
0.52 -0.03 0.46 -1.51 10.51 0.46 -0.19 -0.26 10330
0.58 -0.03 0.47 -1.47 10.63 0.54 -0.23 -0.30 10337
0.61 -0.04 1.11 -1.61 10.90 0.62 -0.17 -0.34 10344
0.62 -0.04 0.81 -1.91 11.22 0.73 -0.03 -0.39 10351
0.67 -0.03 -0.88 -1.85 12.32 0.95 0.23 -0.41 10358
0.70 -0.03 -1.30 -1.65 12.06 1.21 0.21 -0.30 10365
0.72 -0.04 -0.40 -1.79 12.46 1.39 0.24 -0.24 10373
0.78 -0.04 -0.81 -1.91 13.05 1.58 0.21 -0.18 10380
0.81 -0.05 -0.34 -1.84 13.27 1.81 0.18 -0.14 10387
0.84 -0.04 -0.33 -2.01 13.63 2.05 0.18 -0.11 10394
0.86 -0.03 0.14 -2.05 13.96 2.30 0.20 -0.09 10401
0.88 -0.03 0.61 -2.39 14.09 2.61 0.18 -0.11 10408
0.89 -0.04 0.86 -2.37 14.60 2.90 0.14 -0.17 10416
0.86 -0.03 0.97 -2.38 14.63 3.24 0.12 -0.23 10423
0.85 -0.04 0.74 -2.18 14.78 3.59 0.14 -0.31 10430
0.84 -0.03 0.24 -2.43 15.65 3.91 0.15 -0.36 10437
0.83 -0.02 0.96 -2.54 16.80 4.23 0.13 -0.41 10444
0.80 -0.04 1.80 -2.31 17.21 4.28 -0.07 -0.48 10451
0.72 -0.03 2.82 -3.37 17.49 4.28 -0.36 -0.64 10459
0.60 -0.03 1.64 -3.15 17.27 4.28 -0.56 -0.76 10466
0.44 -0.03 1.00 -5.01 20.91 4.28 -0.82 -0.83 10473
0.31 -0.02 1.79 -6.22 22.95 4.28 -0.97 -0.82 10480
0.19 -0.00 2.61 -5.38 23.01 4.28 -0.81 -0.86 10487
0.18 -0.01 -2.36 -6.95 26.07 4.28 -0.75 -1.03 10494
0.11 -0.01 -4.06 -8.66 31.04 4.28 -1.49 -0.96 10501
0.07 -0.01 0.59 -11.68 31.96 4.28 -2.27 -0.73 10509
0.03 -0.00 5.07 -9.82 30.17 4.28 -2.44 -0.81 10515
0.01 -0.00 7.65 -5.87 29.38 4.28 -2.29 -0.82 10522
0.01 -0.00 9.48 1.09 23.62 4.28 -1.97 -0.82 10529
0.00 -0.00 9.95 7.90 20.07 4.28 -1.34 -0.85 10536
0.00 0.00 9.28 22.66 15.90 4.18 -0.72 -1.06 10544
0.00 0.00 9.34 28.51 4.36 3.18 -0.38 -1.26 10551
0.00 0.00 8.35 16.07 19.65 1.44 -0.07 -0.93 10558
0.00 0.00 3.98 14.12 23.12 -0.49 0.04 -0.74 10565
0.00 0.00 0.63 13.53 14.81 -1.50 -0.14 -0.65 10572
0.00 0.00 0.70 11.62 9.91 -1.71 -0.82 -0.52 10579
0.00 0.00 1.81 9.36 8.52 -1.76 -1.35 -0.49 10587
0.00 0.00 3.71 7.96 8.63 -1.69 -1.37 -0.44 10594
0.00 0.00 4.80 8.15 7.26 -1.75 -1.05 -0.39 10601
0.00 0.00 4.70 8.69 6.35 -1.99 -0.49 -0.35 10608
0.00 0.00 3.44 8.69 6.67 -2.28 0.01 -0.29 10615
0.00 0.00 1.69 8.13 7.15 -2.65 0.29 -0.22 10622
0.00 0.00 -0.02 7.68 7.51 -3.00 0.41 -0.08 10630
0.00 0.00 -0.95 7.11 7.70 -3.26 0.37 0.09 10637
0.00 0.00 -1.25 6.54 7.97 -3.54 0.25 0.24 10644
0.00 0.00 -1.10 5.79 8.33 -3.77 0.17 0.38 10651
0.00 0.00 -0.94 5.10 8.58 -4.02 0.20 0.50 10658
0.00 0.00 -0.94 4.17 8.78 -4.19 0.29 0.50 10665
0.00 0.00 -1.08 3.22 8.98 -4.25 0.42 0.49 10673
0.00 0.00 -1.31 2.36 9.25 -4.27 0.50 0.42 10680
0.00 0.00 -1.57 1.66 9.51 -4.28 0.61 0.30 10687
0.00 0.00 -1.85 1.22 10.36 -4.28 0.68 0.17 10694
0.00 0.00 -2.00 0.79 11.24 -4.28 0.79 0.00 10701
0.00 0.00 -2.44 0.67 12.11 -4.28 0.90 -0.18 10708
0.00 0.00 -2.54 0.15 14.00 -4.28 0.97 -0.33 10716
0.00 0.00 -3.33 0.30 13.98 -4.28 0.99 -0.50 10723
0.00 0.00 -2.45 -0.52 14.98 -4.28 1.01 -0.65 10730
-0.00 0.00 -3.20 -0.19 15.80 -4.28 0.91 -0.75 10737
0.00 0.00 -2.18 -1.39 16.80 -4.28 0.92 -0.80 10744
0.00 0.00 -1.83 -1.65 16.98 -4.28 0.93 -0.81 10752
0.00 0.00 -0.87 -2.75 17.41 -4.28 1.07 -0.79 10759
0.00 0.00 -0.60 -3.71 17.91 -4.28 1.23 -0.74 10766
0.00 0.00 0.02 -4.87 18.65 -4.27 1.50 -0.67 10773
0.00 0.00 0.36 -5.77 20.07 -4.17 1.77 -0.57 10780
0.00 0.00 0.30 -6.12 22.15 -4.02 1.94 -0.40 10787
0.00 0.00 0.00 -6.38 23.85 -4.01 2.07 -0.24 10795
0.00 0.00 -0.34 -7.44 25.00 -4.12 2.15 -0.00 10802
0.00 0.00 -0.45 -9.29 25.01 -4.19 2.16 0.18 10809
0.00 0.00 -0.08 -12.07 24.47 -4.16 2.15 0.27 10816
0.00 -0.00 -0.00 -13.99 24.04 -4.05 2.15 0.22 10823
0.00 0.00 -0.77 -14.96 23.18 -3.96 2.19 0.09 10830
0.00 0.00 -2.07 -15.67 21.80 -3.96 2.24 -0.08 10838
0.00 0.00 -3.25 -16.71 20.20 -3.97 2.28 -0.21 10845
0.00 0.00 -5.29 -18.27 18.41 -3.96 2.23 -0.32 10852
0.00 0.00 -7.58 -19.92 16.62 -3.93 2.09 -0.28 10859
0.01 -0.00 -9.78 -22.25 15.00 -3.85 1.75 -0.11 10866
0.00 0.00 -10.58 -26.02 12.55 -3.69 1.22 0.19 10873
0.00 0.00 -9.78 -30.27 9.38 -3.42 0.67 0.46 10881
0.00 0.00 -7.29 -36.41 6.40 -3.08 0.12 0.68 10888
0.00 0.00 -5.07 -42.23 2.23 -2.68 -0.02 0.76 10895
0.00 0.00 -5.38 -45.30 0.04 -1.95 0.15 0.72 10902
0.00 0.00 -6.67 -44.47 0.19 -1.08 0.30 0.60 10909
0.00 0.00 -7.60 -40.30 2.26 -0.00 0.11 0.42 10916
0.00 0.00 -7.04 -33.86 4.41 0.83 -0.33 0.30 10924
0.00 0.00 -4.09 -32.57 -3.35 1.31 -0.82 0.19 10931
0.00 0.00 -7.69 -12.60 18.07 3.64 -2.33 0.07 10938
-0.01 0.05 3.92 12.43 -0.93 3.60 -1.87 0.00 10945
-0.01 0.15 -0.27 2.56 19.82 3.44 -1.64 0.18 10952
-0.03 0.38 0.49 0.90 14.23 3.10 -1.11 0.35 10960
-0.04 0.56 -1.15 -2.10 11.45 3.60 -1.31 0.35 10968
-0.06 0.79 -0.62 -4.34 17.42 4.27 -0.81 0.51 10975
-0.06 0.94 -1.13 -3.56 19.22 4.26 0.18 0.77 10982
-0.04 1.07 -4.01 -4.98 22.14 3.72 0.40 0.69 10989
-0.05 1.16 -3.51 -4.36 16.72 3.39 0.46 0.35 10996
-0.07 1.20 -1.59 -3.11 15.99 3.30 0.38 0.07 11003
-0.07 1.16 -0.44 -2.79 15.96 2.94 0.42 0.00 11011
-0.07 1.11 0.82 -1.95 13.90 2.48 0.66 0.03 11018
-0.06 1.07 0.90 -3.86 20.76 1.91 0.18 0.06 11024
-0.04 0.98 1.93 -1.43 12.15 0.32 -0.27 0.01 11032
-0.03 0.87 0.21 -2.93 12.14 0.02 -0.14 0.01 11038
-0.04 0.82 0.00 -1.66 10.62 -0.01 -0.07 0.00 11045
-0.04 0.76 0.03 -1.26 10.17 -0.02 -0.03 0.01 11053
-0.01 0.76 0.09 -0.89 9.83 -0.02 0.01 0.02 11060
-0.00 0.78 0.13 -1.19 9.84 -0.04 0.03 0.02 11067
0.02 0.74 0.18 -1.22 9.96 -0.07 0.05 0.01 11074
0.01 0.74 0.21 -0.99 9.98 -0.06 0.06 0.01 11081
0.02 0.71 0.11 -0.94 10.01 -0.05 0.07 0.00 11088
0.01 0.71 0.12 -0.86 9.90 -0.02 0.08 0.00 11096
0.00 0.68 0.18 -0.84 9.88 -0.01 0.10 0.00 11103
0.02 0.71 0.16 -0.80 9.84 0.00 0.10 -0.00 11110
0.03 0.70 0.24 -0.76 9.84 0.02 0.09 -0.00 11117
0.02 0.70 0.32 -0.76 9.83 0.04 0.08 -0.00 11124
0.00 0.65 0.23 -0.74 9.87 0.06 0.07 -0.01 11131
-0.02 0.66 0.19 -0.76 9.85 0.08 0.06 -0.01 11139
0.01 0.63 0.16 -0.78 9.84 0.10 0.07 -0.02 11146
0.01 0.58 0.22 -0.73 9.86 0.12 0.06 -0.02 11153
0.03 0.52 0.28 -0.70 9.85 0.15 0.06 -0.02 11160
0.03 0.49 0.25 -0.81 9.82 0.17 0.05 -0.03 11167
0.02 0.48 0.26 -0.79 9.80 0.19 0.05 -0.04 11174
0.04 0.39 0.32 -0.82 9.76 0.20 0.04 -0.04 11182
0.04 0.37 0.34 -0.84 9.74 0.21 0.03 -0.05 11189
0.05 0.34 0.43 -0.85 9.73 0.22 0.02 -0.05 11196
0.04 0.31 0.39 -0.94 9.72 0.22 0.01 -0.06 11203
0.05 0.26 0.40 -0.93 9.67 0.22 -0.00 -0.06 11210
0.04 0.19 0.36 -1.00 9.67 0.21 -0.01 -0.07 11217
0.05 0.17 0.36 -1.02 9.72 0.20 -0.01 -0.07 11225
0.06 0.15 0.35 -1.00 9.72 0.19 -0.02 -0.07 11232
0.09 0.09 0.39 -1.02 9.70 0.18 -0.03 -0.07 11239
0.07 0.09 0.34 -1.12 9.69 0.17 -0.04 -0.08 11246
0.07 0.07 0.39 -1.12 9.70 0.15 -0.05 -0.08 11253
0.07 0.08 0.28 -1.00 9.68 0.14 -0.05 -0.08 11260
0.09 0.07 0.62 -1.02 9.72 0.14 -0.06 -0.09 11268
0.11 0.10 0.55 -1.04 10.15 0.13 -0.08 -0.08 11275
0.14 0.06 0.21 -1.13 10.04 0.14 -0.10 -0.09 11282
0.11 0.07 0.23 -1.24 9.96 0.15 -0.13 -0.09 11289
0.14 0.05 0.47 -1.19 9.82 0.17 -0.14 -0.10 11296
0.15 0.04 0.69 -1.27 9.61 0.18 -0.15 -0.11 11303
0.16 0.04 0.54 -1.10 9.78 0.19 -0.14 -0.11 11311
0.20 0.03 0.03 -1.21 9.76 0.22 -0.14 -0.11 11318
0.23 0.03 0.24 -1.19 9.89 0.23 -0.13 -0.12 11325
0.20 0.03 0.10 -1.34 9.89 0.24 -0.12 -0.13 11332
0.21 -0.00 0.21 -1.38 9.86 0.25 -0.11 -0.12 11339
0.23 -0.00 0.11 -1.40 9.83 0.26 -0.11 -0.14 11346
0.26 -0.00 0.29 -1.38 9.95 0.27 -0.10 -0.15 11354
0.27 0.01 0.15 -1.46 9.97 0.29 -0.09 -0.16 11361
0.30 -0.02 0.28 -1.52 9.96 0.31 -0.09 -0.18 11368
0.32 -0.02 0.39 -1.42 10.07 0.33 -0.08 -0.20 11375
0.29 -0.02 0.48 -1.54 10.24 0.37 -0.09 -0.22 11383
0.35 -0.02 0.59 -1.57 10.47 0.46 -0.09 -0.26 11390
0.42 -0.01 1.01 -1.65 10.78 0.51 -0.09 -0.31 11398
0.48 -0.02 1.26 -1.92 11.42 0.64 0.02 -0.38 11405
0.56 -0.04 -0.37 -1.81 12.35 0.86 0.09 -0.39 11412
0.57 -0.04 0.05 -1.75 12.00 1.14 -0.00 -0.32 11418
0.59 -0.04 -0.13 -1.64 12.04 1.30 -0.00 -0.31 11426
0.63 -0.03 -0.60 -1.85 12.40 1.45 -0.03 -0.26 11433
0.70 -0.03 -0.22 -2.01 12.42 1.65 -0.05 -0.21 11441
0.72 -0.03 -0.45 -1.81 12.75 1.80 -0.02 -0.16 11448
0.75 -0.04 -0.50 -2.02 13.29 2.02 0.02 -0.12 11454
0.76 -0.04 0.12 -2.28 13.28 2.29 0.08 -0.11 11462
0.77 -0.03 0.26 -2.39 13.69 2.55 0.12 -0.12 11469
0.82 -0.03 0.71 -2.45 14.56 2.87 0.14 -0.16 11476
0.82 -0.02 0.68 -2.50 15.19 3.23 0.14 -0.21 11484
0.82 -0.04 0.70 -1.89 15.23 3.52 0.13 -0.26 11491
0.82 -0.04 0.79 -2.57 15.62 3.89 0.18 -0.31 11498
0.84 -0.05 0.71 -2.64 16.76 4.20 0.17 -0.36 11505
0.77 -0.03 1.29 -2.76 16.94 4.28 0.05 -0.42 11512
0.74 -0.03 1.74 -2.79 17.39 4.28 -0.16 -0.52 11520
0.65 -0.03 1.07 -3.06 17.58 4.28 -0.32 -0.62 11527
0.50 -0.03 0.77 -3.73 19.97 4.28 -0.53 -0.67 11534
0.33 -0.02 1.48 -6.01 23.85 4.28 -0.67 -0.66 11541
0.25 -0.02 2.98 -6.04 24.29 4.28 -0.64 -0.68 11547
0.16 -0.01 -0.15 -6.72 23.90 4.28 -0.58 -0.90 11555
0.15 -0.00 -6.05 -7.01 29.47 4.28 -0.99 -0.93 11563
0.11 -0.01 -2.42 -11.06 31.83 4.28 -1.87 -0.66 11570
0.08 -0.01 0.81 -8.42 29.44 4.28 -2.31 -0.63 11576
0.03 -0.00 3.92 -6.87 29.82 4.28 -2.54 -0.62 11583
0.02 -0.00 7.45 -1.26 27.61 4.28 -2.50 -0.49 11590
0.01 -0.00 8.40 4.14 24.11 4.28 -2.22 -0.47 11597
0.01 0.00 9.77 8.92 22.30 4.28 -1.62 -0.51 11604
0.01 -0.00 10.43 14.49 21.74 4.28 -1.05 -0.71 11613
0.00 0.00 9.26 20.45 12.78 4.28 -0.50 -1.04 11619
0.00 0.00 11.90 17.96 8.13 4.21 0.61 -1.29 11626
0.00 0.00 7.57 19.39 23.75 1.56 1.29 -1.31 11633
0.00 0.00 1.29 16.87 20.02 -1.23 1.50 -1.19 11640
0.00 0.00 -1.61 13.60 15.93 -2.60 0.92 -0.93 11648
0.00 -0.00 -1.79 10.17 13.03 -3.26 0.14 -0.69 11655
0.00 0.00 -0.06 7.30 10.71 -3.26 -0.38 -0.59 11662
0.00 0.00 1.45 6.48 7.70 -3.18 -0.48 -0.54 11669
0.00 0.00 2.71 6.27 6.02 -3.16 -0.26 -0.53 11676
0.00 0.00 2.85 6.06 6.40 -3.23 0.15 -0.54 11683
0.00 0.00 2.02 5.99 7.03 -3.49 0.59 -0.55 11691
0.00 0.00 0.69 6.21 7.52 -3.90 1.01 -0.54 11698
0.00 0.00 -0.79 5.99 8.19 -4.23 1.25 -0.49 11705
0.00 0.00 -2.53 5.20 8.86 -4.28 1.25 -0.39 11712
0.00 0.00 -3.43 4.04 9.27 -4.28 1.05 -0.24 11719
0.00 0.00 -3.34 2.52 9.42 -4.28 0.82 -0.07 11726
0.00 -0.00 -2.76 2.29 9.51 -4.28 0.61 0.01 11734
0.00 0.00 -2.53 1.89 9.70 -4.28 0.48 0.10 11741
0.00 0.00 -1.58 1.16 10.39 -4.28 0.58 0.15 11748
0.00 0.00 -2.30 1.49 10.20 -4.28 0.68 0.20 11755
0.00 0.00 -2.46 0.57 12.05 -4.28 0.91 0.25 11762
0.00 0.00 -2.11 -0.18 12.46 -4.28 1.13 0.26 11769
0.00 0.00 -2.21 0.48 12.96 -4.28 1.10 0.14 11777
0.00 0.00 -3.16 -0.20 14.97 -4.28 1.21 0.08 11784
0.00 0.00 -2.92 -0.52 14.91 -4.28 1.14 0.05 11791
0.00 0.00 -3.45 -0.29 16.18 -4.28 0.94 -0.02 11798
0.00 0.00 -3.18 -1.15 17.13 -4.28 0.81 -0.02 11805
0.00 0.00 -2.24 -1.37 18.18 -4.28 0.65 -0.04 11812
0.01 -0.00 -1.44 -1.58 18.11 -4.28 0.65 -0.08 11820
0.00 0.00 -1.27 -2.28 19.49 -4.28 0.75 -0.09 11827
0.00 0.00 -0.66 -3.37 20.43 -4.28 0.90 -0.10 11834
0.00 0.00 -0.42 -4.29 20.93 -4.28 1.06 -0.09 11841
0.00 0.00 0.04 -5.97 22.36 -4.28 1.18 -0.09 11848
-0.00 0.00 0.06 -6.75 25.01 -4.28 1.26 -0.09 11855
0.00 0.00 0.50 -7.16 26.50 -4.28 1.44 -0.12 11863
0.00 0.00 0.36 -8.29 28.07 -4.28 1.66 -0.15 11870
0.00 0.00 -0.16 -9.88 29.89 -4.28 1.84 -0.18 11877
0.00 0.00 -0.74 -12.44 29.80 -4.28 1.89 -0.19 11884
0.00 0.00 -2.40 -27.16 36.96 -4.28 1.75 -0.07 11891
0.00 0.00 -3.47 -17.09 17.02 -4.27 1.28 -0.06 11898
0.00 0.00 0.29 -22.80 20.26 -4.28 1.06 -0.13 11906
0.00 0.00 1.38 -26.00 21.46 -4.28 1.43 -0.17 11913
0.00 0.00 1.48 -30.77 17.90 -4.28 2.15 -0.17 11920
0.00 0.00 -1.05 -38.59 12.15 -4.22 2.57 -0.25 11927
0.00 0.00 -3.20 -47.64 6.26 -3.87 3.01 -0.34 11934
0.01 -0.00 -8.10 -58.69 1.08 -3.27 3.48 -0.32 11941
0.00 -0.00 -13.26 -63.94 -0.08 -2.31 3.80 -0.02 11949
0.00 0.00 -18.94 -60.78 0.72 -0.72 3.21 0.34 11956
0.00 0.00 -33.05 -62.73 16.90 1.85 -0.39 0.68 11963
0.00 0.00 -11.62 -42.94 4.20 3.93 -2.68 0.50 11970
-0.00 0.01 3.39 3.02 2.38 4.28 -3.80 -0.00 11977
0.00 0.07 -0.30 5.65 19.72 4.28 -3.64 -0.11 11984
-0.01 0.14 -3.13 4.20 27.23 3.49 -3.02 0.04 11992
-0.03 0.35 1.40 0.21 15.28 2.82 -2.12 0.33 12000
-0.05 0.51 -0.61 -2.29 11.32 3.15 -1.84 0.51 12007
-0.05 0.65 -3.38 -4.22 14.20 3.92 -1.24 0.64 12014
-0.05 0.77 -1.53 -1.89 16.52 4.15 -0.17 0.80 12021
-0.03 0.81 -4.10 -2.72 19.22 3.65 0.17 0.74 12028
-0.05 0.93 -4.57 -4.42 17.86 3.16 0.20 0.34 12036
-0.05 0.93 -2.58 -3.39 14.38 3.05 0.32 0.04 12043
-0.07 0.95 -0.43 -2.11 14.54 2.86 0.29 -0.09 12050
-0.05 0.88 0.51 -1.70 13.92 2.55 0.37 -0.08 12057
-0.04 0.87 1.15 -2.08 16.16 2.24 0.45 0.01 12064
-0.04 0.86 0.92 -2.52 14.51 0.60 -0.31 -0.02 12071
-0.02 0.81 0.80 -3.12 12.88 0.02 -0.21 0.01 12078
-0.05 0.71 -0.35 -2.52 11.15 -0.08 -0.07 -0.00 12086
-0.04 0.69 -0.04 -1.43 10.42 -0.09 -0.03 -0.00 12092
-0.00 0.69 -0.02 -1.04 9.94 -0.06 -0.00 0.01 12099
0.02 0.68 0.00 -0.94 9.80 -0.06 0.02 0.01 12106
0.02 0.65 0.02 -1.13 9.78 -0.08 0.06 0.01 12113
0.03 0.69 0.10 -1.12 10.01 -0.08 0.08 0.00 12121
0.06 0.67 0.06 -0.95 9.93 -0.04 0.10 0.00 12128
0.05 0.68 0.14 -0.89 9.92 -0.05 0.10 -0.00 12135
0.04 0.72 0.16 -0.85 9.90 -0.03 0.10 -0.00 12142
0.06 0.68 0.12 -0.83 9.85 -0.02 0.09 -0.01 12149
0.04 0.68 0.10 -0.77 9.86 0.00 0.09 -0.01 12156
0.05 0.68 0.12 -0.76 9.76 0.02 0.08 -0.01 12164
0.07 0.65 0.06 -0.78 9.75 0.02 0.09 -0.01 12171
0.07 0.59 0.08 -0.74 9.79 0.03 0.10 -0.02 12178
0.07 0.59 0.12 -0.77 9.83 0.05 0.11 -0.02 12185
0.08 0.58 0.14 -0.74 9.89 0.08 0.11 -0.02 12192
0.07 0.56 0.15 -0.78 9.90 0.10 0.11 -0.02 12199
0.05 0.51 0.21 -0.79 9.89 0.12 0.10 -0.03 12207
0.04 0.47 0.22 -0.82 9.86 0.14 0.09 -0.03 12214
0.05 0.46 0.23 -0.80 9.84 0.16 0.08 -0.04 12221
0.06 0.44 0.20 -0.86 9.83 0.18 0.07 -0.04 12228
0.07 0.41 0.24 -0.87 9.81 0.19 0.06 -0.04 12235
0.06 0.35 0.26 -0.86 9.75 0.20 0.06 -0.05 12242
0.06 0.30 0.24 -0.91 9.74 0.20 0.06 -0.05 12250
0.06 0.29 0.26 -0.91 9.74 0.21 0.05 -0.05 12257
0.08 0.22 0.25 -0.93 9.80 0.21 0.05 -0.06 12264
0.09 0.16 0.29 -0.97 9.77 0.21 0.04 -0.06 12271
0.09 0.09 0.25 -1.03 9.73 0.20 0.03 -0.06 12278
0.12 0.10 0.29 -1.05 9.72 0.20 0.03 -0.06 12285
0.12 0.09 0.29 -1.11 9.68 0.19 0.02 -0.07 12293
0.13 0.10 0.28 -1.08 9.71 0.18 0.02 -0.08 12300
0.12 0.07 0.36 -0.97 9.66 0.18 0.01 -0.08 12307
0.14 0.07 0.38 -1.17 9.56 0.19 0.00 -0.10 12314
0.15 0.06 0.47 -0.90 10.04 0.17 -0.01 -0.08 12321
0.13 0.05 0.01 -1.17 10.01 0.17 -0.02 -0.10 12328
0.12 0.04 0.33 -1.19 9.77 0.17 -0.01 -0.10 12336
0.11 0.03 0.27 -1.26 9.81 0.17 -0.04 -0.10 12343
0.12 0.03 0.28 -1.26 9.79 0.17 -0.05 -0.10 12350
0.12 0.04 0.13 -1.17 9.77 0.18 -0.06 -0.11 12357
0.14 0.01 0.37 -1.24 9.77 0.18 -0.06 -0.12 12364
0.14 0.00 0.30 -1.37 9.81 0.20 -0.07 -0.12 12371
0.18 -0.00 0.22 -1.31 9.80 0.21 -0.07 -0.13 12379
0.19 -0.01 0.15 -1.31 9.81 0.21 -0.07 -0.13 12386
0.20 0.01 0.32 -1.32 9.97 0.22 -0.06 -0.14 12393
0.20 -0.01 0.22 -1.35 9.95 0.24 -0.07 -0.15 12400
0.24 -0.02 0.41 -1.43 9.88 0.24 -0.06 -0.16 12407
0.23 -0.02 0.31 -1.41 10.02 0.27 -0.05 -0.18 12414
0.29 -0.02 0.41 -1.50 10.14 0.33 -0.03 -0.20 12422
0.28 -0.01 0.54 -1.48 10.21 0.34 -0.01 -0.23 12430
0.26 -0.01 0.89 -1.59 10.43 0.39 0.05 -0.27 12436
0.34 -0.02 1.02 -1.76 10.77 0.46 0.16 -0.34 12444
0.32 -0.02 0.50 -1.73 12.22 0.64 0.27 -0.38 12451
0.37 -0.04 -0.31 -1.79 11.94 0.97 0.23 -0.33 12457
0.37 -0.03 0.30 -1.84 11.49 1.10 0.18 -0.31 12466
0.43 -0.01 -0.12 -1.75 11.61 1.23 0.16 -0.28 12473
0.46 -0.01 -0.47 -1.72 12.14 1.36 0.16 -0.23 12480
0.48 -0.02 -0.27 -1.91 12.47 1.55 0.15 -0.19 12487
0.51 -0.03 -0.14 -1.93 12.74 1.75 0.16 -0.16 12494
0.56 -0.03 -0.17 -2.13 12.95 1.94 0.13 -0.12 12502
0.60 -0.03 0.23 -2.25 13.57 2.20 0.19 -0.10 12509
0.63 -0.03 0.67 -2.14 13.63 2.48 0.24 -0.11 12516
0.65 -0.03 1.09 -1.98 14.14 2.77 0.26 -0.14 12523
0.66 -0.03 1.32 -2.44 14.64 3.12 0.33 -0.20 12530
0.65 -0.03 0.99 -2.46 14.77 3.42 0.43 -0.27 12537
0.65 -0.03 0.57 -2.43 15.22 3.79 0.46 -0.31 12545
0.66 -0.03 0.53 -2.31 16.20 4.20 0.47 -0.32 12552
0.65 -0.02 1.80 -2.69 16.70 4.28 0.38 -0.38 12559
0.58 -0.02 2.14 -3.06 17.06 4.28 0.26 -0.48 12566
0.50 -0.02 1.38 -3.29 17.35 4.28 0.16 -0.59 12573
0.40 -0.02 1.43 -4.43 20.24 4.28 0.11 -0.65 12580
0.31 -0.02 -0.87 -5.80 26.32 4.28 -0.14 -0.65 12588
0.20 -0.01 -0.69 -5.54 22.46 4.28 -0.47 -0.50 12595
0.11 -0.00 -0.50 -8.01 23.72 4.28 -0.44 -0.53 12602
0.09 -0.01 -1.11 -8.68 30.03 4.28 -0.70 -0.55 12608
0.08 -0.01 -1.11 -9.44 30.99 4.28 -1.36 -0.49 12615
0.06 -0.01 0.26 -7.58 27.50 4.28 -2.30 -0.49 12622
0.03 -0.00 3.63 -6.15 29.18 4.28 -2.67 -0.50 12630
0.01 -0.00 7.01 -2.34 29.79 4.28 -2.77 -0.41 12637
0.01 -0.00 8.43 2.79 25.80 4.28 -2.43 -0.32 12644
0.00 -0.00 9.80 8.23 22.05 4.28 -1.76 -0.30 12651
0.00 0.00 9.02 21.27 18.28 4.28 -0.92 -0.37 12658
0.00 0.00 8.28 25.37 -0.80 4.01 -0.26 -0.72 12665
0.00 0.00 9.06 17.20 18.28 2.03 0.30 -0.61 12673
0.00 0.00 1.66 14.98 24.53 -0.19 0.36 -0.53 12680
0.00 0.00 -1.13 13.97 15.91 -1.53 0.17 -0.54 12687
0.00 0.00 -1.01 12.05 11.92 -2.03 -0.57 -0.56 12694
0.00 0.00 0.52 9.22 9.43 -2.14 -1.19 -0.69 12701
0.00 0.00 1.39 7.81 8.46 -2.16 -1.43 -0.80 12708
0.00 0.00 2.95 7.24 7.37 -2.22 -1.26 -0.90 12716
0.00 0.00 3.55 7.09 6.42 -2.39 -0.95 -1.00 12723
0.00 0.00 2.95 6.96 6.45 -2.67 -0.50 -1.01 12730
0.00 0.00 1.60 6.60 6.88 -2.96 -0.15 -1.00 12737
0.00 0.00 0.33 6.39 7.24 -3.32 -0.01 -0.94 12744
0.00 0.00 -0.49 5.87 7.73 -3.65 0.00 -0.80 12751
0.00 0.00 -0.77 5.41 8.08 -3.92 -0.08 -0.63 12759
0.00 0.00 -0.50 4.55 8.38 -4.14 -0.16 -0.50 12766
0.00 -0.00 0.29 3.85 8.68 -4.23 -0.13 -0.35 12773
0.00 0.00 0.70 3.34 8.83 -4.28 -0.01 -0.25 12780
0.00 0.00 0.62 2.66 9.37 -4.28 0.16 -0.17 12787
0.00 0.00 0.15 2.05 9.77 -4.28 0.27 -0.13 12794
0.00 0.00 -0.43 1.64 10.53 -4.28 0.32 -0.10 12802
-0.00 0.00 -0.66 1.21 10.85 -4.28 0.34 -0.08 12809
0.00 0.00 -1.16 0.58 12.09 -4.28 0.29 -0.09 12816
0.00 0.00 -0.33 -0.46 12.91 -4.28 0.45 -0.09 12823
0.00 0.00 0.10 -0.69 13.93 -4.28 0.53 -0.17 12830
0.00 0.00 -0.52 -0.37 13.50 -4.28 0.52 -0.32 12837
0.00 0.00 0.92 -2.07 15.45 -4.28 0.75 -0.45 12845
0.00 0.00 -0.87 -0.69 16.01 -4.28 0.68 -0.60 12852
0.00 0.00 -0.04 -2.27 17.71 -4.28 0.72 -0.65 12859
0.00 0.00 -0.09 -2.07 17.88 -4.28 0.72 -0.68 12866
0.00 0.00 0.86 -3.02 18.77 -4.28 0.79 -0.71 12873
0.00 0.00 0.82 -3.58 18.83 -4.28 0.93 -0.69 12880
0.00 0.00 1.62 -5.07 20.14 -4.28 1.13 -0.64 12888
0.00 0.00 1.81 -6.21 20.91 -4.28 1.42 -0.60 12895
0.00 0.00 2.01 -7.41 22.28 -4.27 1.72 -0.56 12902
0.00 0.00 1.66 -8.31 23.53 -4.16 1.95 -0.53 12909
0.00 0.00 1.26 -9.47 25.14 -3.95 2.15 -0.49 12916
0.00 0.00 0.91 -10.36 26.60 -3.84 2.34 -0.43 12923
-0.00 0.00 0.61 -11.28 27.50 -3.91 2.53 -0.39 12931
0.00 0.00 0.02 -13.22 27.75 -4.13 2.65 -0.31 12938
0.00 0.00 -0.96 -15.86 26.75 -4.28 2.66 -0.23 12945
0.00 0.00 -2.29 -18.89 24.89 -4.28 2.52 -0.12 12952
0.00 0.00 -3.07 -22.70 22.02 -4.28 2.30 0.01 12959
0.00 0.00 -3.71 -26.01 19.23 -4.28 2.06 0.21 12966
0.00 0.00 -4.16 -29.60 14.94 -4.28 1.72 0.48 12974
0.00 -0.00 -4.59 -32.88 10.62 -4.04 1.57 0.75 12981
0.00 0.00 -5.31 -39.80 7.56 -3.36 1.74 0.92 12988
0.00 0.00 -8.18 -49.28 3.68 -2.99 1.93 0.98 12995
0.00 0.00 -12.01 -55.45 0.35 -2.48 1.97 0.97 13002
0.00 0.00 -16.27 -55.49 -0.66 -1.35 1.55 0.91 13009
-0.00 0.01 -17.14 -47.62 0.36 -0.05 0.60 0.70 13017
0.00 0.00 -14.47 -39.19 3.57 1.38 -0.87 0.46 13024
0.00 0.00 -17.49 -39.89 25.81 3.44 -3.62 0.21 13031
0.00 0.00 -1.93 2.20 8.39 4.14 -3.50 -0.11 13038
-0.00 0.04 -0.31 8.33 12.58 3.88 -2.99 -0.15 13045
-0.02 0.15 -2.06 3.50 21.58 3.22 -1.81 0.14 13052
-0.02 0.34 0.70 1.76 10.21 2.74 -1.44 0.33 13061
-0.03 0.47 -1.65 -2.17 12.06 3.41 -1.32 0.40 13068
-0.04 0.61 -1.90 -3.86 14.23 4.09 -0.72 0.56 13075
-0.04 0.68 -1.45 -2.71 16.77 4.23 0.22 0.72 13082
-0.05 0.79 -3.86 -4.07 21.57 3.76 0.47 0.64 13089
-0.05 0.85 -3.97 -4.75 17.13 3.10 0.48 0.35 13096
-0.04 0.82 -2.24 -3.18 14.27 2.99 0.49 0.01 13104
-0.04 0.84 0.31 -1.81 14.46 2.82 0.49 -0.09 13111
-0.03 0.85 0.97 -1.37 13.37 2.43 0.51 -0.07 13118
-0.04 0.79 1.43 -1.69 12.90 2.20 0.58 0.04 13125
-0.04 0.73 -0.15 -4.57 15.00 0.77 -0.17 0.00 13131
-0.04 0.74 0.32 -3.27 12.53 -0.11 -0.12 0.02 13139
-0.03 0.71 -0.60 -2.36 10.66 -0.11 -0.11 -0.05 13147
0.03 0.66 0.25 -1.27 10.14 -0.10 -0.04 -0.01 13153
0.01 0.68 0.06 -1.02 9.92 -0.08 -0.04 0.00 13160
0.02 0.65 -0.08 -1.14 9.64 -0.08 -0.04 -0.00 13167
0.03 0.65 0.23 -1.28 9.93 -0.11 -0.02 -0.01 13174
0.03 0.67 0.13 -1.10 10.16 -0.11 -0.02 -0.02 13181
0.06 0.70 0.01 -0.97 10.02 -0.09 -0.02 -0.02 13189
0.06 0.69 0.07 -0.96 9.98 -0.04 -0.02 -0.02 13196
0.06 0.71 0.07 -0.91 9.97 -0.05 -0.02 -0.02 13203
0.06 0.73 0.08 -0.78 9.84 -0.03 -0.03 -0.02 13210
0.06 0.73 0.03 -0.79 9.89 -0.02 -0.04 -0.02 13217
0.07 0.75 0.08 -0.79 9.84 0.00 -0.05 -0.03 13224
0.07 0.75 0.06 -0.79 9.82 0.02 -0.05 -0.03 13232
0.04 0.73 0.00 -0.81 9.85 0.04 -0.05 -0.03 13239
0.06 0.71 -0.03 -0.84 9.93 0.06 -0.04 -0.04 13246
0.03 0.69 -0.02 -0.80 9.97 0.08 -0.04 -0.04 13253
0.05 0.66 -0.00 -0.84 9.82 0.10 -0.04 -0.03 13260
0.06 0.63 0.02 -0.85 9.83 0.12 -0.03 -0.04 13267
0.05 0.58 0.02 -0.84 9.83 0.12 -0.03 -0.04 13275
0.02 0.56 0.06 -0.85 9.81 0.14 -0.03 -0.04 13282
0.04 0.52 0.02 -0.84 9.76 0.14 -0.03 -0.05 13289
0.03 0.53 0.04 -0.89 9.68 0.14 -0.02 -0.05 13296
0.07 0.53 0.05 -0.86 9.65 0.14 -0.02 -0.06 13303
0.07 0.46 0.11 -0.86 9.69 0.14 -0.01 -0.06 13310
0.09 0.42 0.06 -0.88 9.67 0.14 -0.02 -0.06 13318
0.09 0.39 0.09 -0.93 9.71 0.14 -0.02 -0.07 13325
0.12 0.36 0.10 -1.00 9.69 0.14 -0.02 -0.07 13332
0.13 0.32 0.06 -0.96 9.72 0.14 -0.02 -0.08 13339
0.14 0.30 -0.01 -1.02 9.70 0.14 -0.02 -0.08 13346
0.16 0.27 0.00 -1.01 9.77 0.14 -0.02 -0.08 13353
0.18 0.24 -0.00 -1.09 9.69 0.14 -0.03 -0.09 13361
0.20 0.22 -0.17 -1.09 9.72 0.14 -0.02 -0.08 13368
0.17 0.14 0.12 -0.92 9.68 0.14 -0.02 -0.09 13375
0.17 0.13 0.02 -1.01 9.81 0.15 -0.03 -0.09 13382
0.21 0.11 0.00 -1.12 9.79 0.15 -0.03 -0.09 13389
0.20 0.11 0.13 -1.05 9.89 0.17 -0.03 -0.09 13396
0.19 0.09 -0.61 -1.07 9.77 0.19 -0.04 -0.09 13404
0.22 0.06 -0.01 -1.13 9.84 0.21 -0.04 -0.10 13411
0.24 0.06 0.06 -1.11 9.84 0.23 -0.04 -0.10 13418
0.28 0.02 0.00 -1.22 9.89 0.25 -0.05 -0.10 13425
0.34 0.03 0.02 -1.14 9.93 0.27 -0.06 -0.11 13432
0.39 0.01 0.02 -1.27 10.00 0.29 -0.06 -0.13 13440
0.39 0.02 0.01 -1.31 10.01 0.32 -0.06 -0.14 13448
0.43 0.00 0.11 -1.35 10.07 0.35 -0.05 -0.16 13454
0.43 -0.00 0.08 -1.47 10.15 0.38 -0.05 -0.17 13461
0.47 -0.01 0.25 -1.45 10.33 0.42 -0.04 -0.20 13469
0.51 -0.03 0.21 -1.48 10.36 0.48 -0.03 -0.24 13476
0.56 -0.04 0.33 -1.51 10.87 0.55 -0.03 -0.26 13484
0.55 -0.03 0.60 -1.60 11.13 0.63 0.01 -0.31 13490
0.56 -0.04 0.37 -1.79 12.21 0.76 0.17 -0.37 13498
0.60 -0.04 -1.17 -1.69 12.56 1.09 0.28 -0.33 13505
0.65 -0.03 -0.19 -1.70 11.90 1.29 0.17 -0.24 13512
0.68 -0.03 -0.60 -1.71 12.71 1.45 0.20 -0.22 13519
0.73 -0.03 -0.59 -1.81 12.88 1.65 0.17 -0.16 13527
0.71 -0.05 -0.30 -1.84 13.29 1.84 0.16 -0.13 13534
0.74 -0.04 -0.50 -1.99 13.51 2.07 0.18 -0.10 13541
0.76 -0.04 0.17 -2.24 13.84 2.35 0.20 -0.07 13548
0.79 -0.03 0.14 -2.36 14.05 2.62 0.25 -0.08 13555
0.81 -0.03 0.67 -2.18 14.59 2.94 0.21 -0.11 13562
0.79 -0.03 1.04 -2.47 14.42 3.22 0.14 -0.17 13570
0.80 -0.04 1.10 -2.48 14.85 3.56 0.15 -0.23 13577
0.78 -0.03 1.10 -2.76 15.67 3.92 0.13 -0.29 13584
0.76 -0.03 1.60 -2.69 16.05 4.20 0.05 -0.37 13591
0.70 -0.03 1.87 -2.65 16.90 4.28 -0.14 -0.47 13598
0.65 -0.04 1.87 -2.78 17.50 4.28 -0.34 -0.61 13605
0.56 -0.03 1.48 -3.27 18.08 4.28 -0.50 -0.72 13613
0.49 -0.03 1.56 -3.89 19.28 4.28 -0.75 -0.80 13620
0.35 -0.02 2.10 -5.11 21.94 4.28 -0.83 -0.84 13627
0.24 -0.02 2.89 -6.28 24.47 4.28 -0.71 -0.87 13634
0.13 -0.01 -1.09 -6.55 25.81 4.28 -0.76 -1.03 13641
0.14 -0.01 -4.69 -6.55 28.41 4.28 -1.25 -1.04 13647
0.09 -0.01 -1.17 -9.56 29.42 4.28 -1.85 -0.78 13655
0.06 -0.01 2.36 -7.34 27.27 4.28 -1.99 -0.77 13662
0.04 -0.00 3.50 -7.14 28.98 4.28 -2.18 -0.82 13669
0.02 -0.00 6.67 -2.59 27.58 4.28 -2.23 -0.70 13676
0.03 -0.00 7.63 2.18 24.61 4.28 -2.04 -0.68 13683
0.04 -0.00 8.65 6.98 25.22 4.28 -1.54 -0.74 13690
0.02 -0.00 8.65 14.23 24.51 4.28 -1.02 -0.92 13699
0.00 0.00 9.80 37.06 13.67 4.27 -0.70 -1.15 13705
0.00 0.00 9.86 27.93 11.22 2.69 0.22 -1.13 13712
0.00 0.00 6.68 20.34 28.24 -1.06 0.56 -1.00 13719
0.00 0.00 1.93 16.53 20.92 -2.94 0.48 -0.85 13726
0.00 0.00 1.49 12.01 13.63 -3.31 0.08 -0.74 13733
0.00 0.00 3.22 9.39 10.36 -3.11 -0.18 -0.72 13741
0.00 0.00 4.49 7.60 8.55 -2.84 -0.01 -0.75 13748
0.00 0.00 4.58 6.86 7.18 -2.79 0.38 -0.75 13755
0.00 0.00 3.64 7.12 7.43 -2.90 0.84 -0.72 13762
0.00 0.00 1.61 7.07 8.02 -3.14 1.27 -0.67 13769
0.00 0.00 -0.67 7.26 8.66 -3.55 1.46 -0.56 13776
0.00 0.00 -2.83 7.46 9.26 -4.03 1.47 -0.38 13784
0.00 0.00 -4.09 6.90 9.83 -4.27 1.34 -0.17 13791
0.00 0.00 -4.58 5.75 10.28 -4.28 1.13 -0.04 13798
0.00 0.00 -4.36 4.36 10.52 -4.28 0.96 0.05 13805
0.00 0.00 -3.97 3.23 10.58 -4.28 0.92 0.06 13812
0.00 0.00 -3.71 2.39 10.45 -4.28 1.04 -0.02 13819
0.00 0.00 -4.00 1.83 10.67 -4.28 1.21 -0.16 13827
0.00 0.00 -4.29 0.91 11.52 -4.28 1.52 -0.30 13834
0.00 0.00 -5.17 0.48 12.12 -4.28 1.78 -0.47 13841
0.00 0.00 -6.43 0.23 12.86 -4.28 1.90 -0.65 13848
0.00 0.00 -7.11 -0.27 13.44 -4.28 1.96 -0.75 13855
0.00 0.00 -7.58 -1.14 15.51 -4.28 1.89 -0.84 13862
0.00 0.00 -8.88 -0.37 15.13 -4.28 1.59 -0.92 13870
0.00 0.00 -7.92 -1.33 16.96 -4.28 1.32 -0.95 13877
-0.00 0.00 -7.30 -0.96 17.57 -4.28 1.10 -0.91 13884
0.00 0.00 -5.62 -1.60 18.20 -4.28 1.00 -0.84 13891
0.00 0.00 -4.75 -1.89 18.29 -4.28 1.10 -0.70 13898
0.00 0.00 -3.95 -2.89 18.87 -4.28 1.21 -0.56 13905
0.00 0.00 -3.57 -3.91 19.39 -4.28 1.33 -0.38 13913
0.00 0.00 -2.85 -5.43 20.37 -4.28 1.38 -0.19 13920
0.00 0.00 -1.85 -6.54 21.53 -4.23 1.41 -0.03 13927
0.00 0.00 -0.05 -7.91 22.68 -4.12 1.58 0.12 13934
0.00 0.00 0.85 -9.09 23.59 -3.97 1.82 0.20 13941
0.00 0.00 1.03 -10.91 24.83 -3.90 2.14 0.26 13948
0.00 0.00 0.33 -12.59 25.96 -3.96 2.28 0.32 13956
0.00 0.00 -1.05 -13.79 26.11 -4.16 2.21 0.42 13963
-0.00 0.00 -2.34 -15.47 25.19 -4.27 1.94 0.57 13971
0.00 0.00 -3.41 -17.98 21.98 -4.28 1.66 0.76 13977
0.00 0.00 -6.67 -20.78 21.00 -4.28 1.26 0.92 13984
0.00 0.00 -8.38 -23.92 17.57 -4.28 1.19 1.09 13991
0.00 0.00 -7.19 -27.15 16.60 -4.27 1.04 1.19 13999
0.00 0.00 -6.40 -33.38 14.01 -4.10 0.65 1.28 14006
0.00 0.00 -5.68 -37.57 7.98 -3.84 0.30 1.27 14013
0.00 0.00 -3.77 -43.97 5.71 -3.30 -0.15 1.10 14020
0.00 0.00 -2.99 -51.15 1.01 -2.75 -0.04 0.73 14027
0.00 0.00 -5.13 -59.34 0.07 -1.48 0.08 0.38 14034
0.00 0.00 -11.68 -61.33 1.05 0.86 -0.40 0.02 14042
0.00 0.00 -10.53 -58.07 -1.83 2.67 -0.87 -0.25 14049
-0.00 0.01 -4.23 -30.52 7.71 4.28 -1.67 -0.58 14056
-0.01 0.09 1.10 6.12 5.04 4.28 -1.36 -0.64 14063
-0.02 0.32 3.14 2.00 25.66 4.28 -0.79 -0.44 14071
-0.04 0.54 2.88 -0.91 23.09 3.97 -0.80 -0.27 14078
-0.04 0.73 3.33 -4.82 18.70 3.99 -0.49 0.04 14086
-0.04 0.87 3.33 -5.73 16.27 4.20 -0.27 0.49 14093
-0.04 0.97 -0.64 -5.46 23.51 4.03 0.40 0.90 14100
-0.06 1.04 -3.70 -3.93 20.05 3.25 0.57 0.78 14107
-0.06 1.02 -4.39 -4.01 16.54 2.61 0.21 0.34 14114
-0.07 1.03 -2.00 -2.59 14.24 2.34 0.26 -0.01 14121
-0.05 0.98 0.59 -1.61 13.81 2.02 0.44 -0.06 14129
-0.05 0.92 1.53 -2.21 16.88 1.17 0.13 0.06 14136
-0.04 0.86 0.71 -1.44 11.50 0.33 -0.11 0.12 14143
-0.03 0.80 -0.29 -2.62 11.81 0.03 -0.04 0.08 14149
-0.05 0.76 -0.17 -1.53 10.54 -0.05 0.01 -0.01 14156
-0.05 0.73 0.26 -1.08 10.07 -0.06 0.06 0.00 14163
-0.03 0.71 0.19 -1.01 10.06 -0.07 0.06 0.03 14171
0.01 0.70 0.18 -0.97 9.86 -0.08 0.07 0.02 14178
0.01 0.71 0.27 -1.08 9.91 -0.09 0.08 0.02 14185
0.01 0.71 0.21 -0.94 10.05 -0.10 0.08 0.01 14192
-0.00 0.74 0.16 -0.82 9.91 -0.07 0.09 -0.00 14199
-0.01 0.76 0.19 -0.76 9.90 -0.06 0.10 -0.01 14206
-0.00 0.74 0.18 -0.72 9.91 -0.05 0.11 -0.01 14214
0.03 0.71 0.17 -0.63 9.82 -0.03 0.11 -0.01 14221
0.02 0.73 0.29 -0.62 9.84 -0.01 0.11 -0.01 14228
0.02 0.72 0.27 -0.61 9.84 0.01 0.09 -0.01 14235
0.02 0.69 0.28 -0.62 9.83 0.03 0.07 -0.02 14242
-0.00 0.69 0.25 -0.62 9.86 0.05 0.04 -0.02 14249
-0.00 0.67 0.31 -0.64 9.84 0.07 0.02 -0.02 14257
0.02 0.60 0.22 -0.69 9.85 0.09 -0.00 -0.02 14264
0.02 0.55 0.26 -0.65 9.86 0.11 -0.01 -0.03 14271
0.00 0.58 0.25 -0.67 9.81 0.13 -0.03 -0.03 14278
0.02 0.53 0.30 -0.66 9.78 0.14 -0.04 -0.04 14285
0.03 0.47 0.29 -0.74 9.81 0.14 -0.05 -0.05 14292
0.02 0.45 0.27 -0.74 9.82 0.14 -0.07 -0.05 14300
0.04 0.45 0.29 -0.78 9.68 0.14 -0.08 -0.06 14307
0.04 0.40 0.26 -0.81 9.67 0.14 -0.09 -0.07 14314
0.03 0.39 0.25 -0.77 9.70 0.14 -0.09 -0.07 14321
0.03 0.35 0.16 -0.78 9.71 0.14 -0.09 -0.08 14328
0.05 0.35 0.23 -0.85 9.70 0.14 -0.10 -0.08 14336
0.07 0.37 0.22 -0.84 9.76 0.14 -0.10 -0.08 14343
0.08 0.31 0.13 -0.86 9.73 0.13 -0.10 -0.08 14350
0.10 0.28 0.17 -0.83 9.75 0.13 -0.11 -0.09 14357
0.10 0.24 0.17 -0.89 9.75 0.13 -0.11 -0.09 14364
0.11 0.19 0.29 -0.97 9.76 0.13 -0.11 -0.09 14371
0.15 0.27 0.02 -0.91 9.64 0.13 -0.11 -0.09 14379
0.13 0.21 0.16 -0.98 9.81 0.13 -0.10 -0.09 14386
0.18 0.18 0.21 -0.92 9.82 0.14 -0.10 -0.10 14393
0.19 0.15 -0.57 -0.91 9.75 0.15 -0.10 -0.10 14400
0.14 0.13 0.16 -1.01 9.82 0.16 -0.10 -0.10 14407
0.17 0.15 0.09 -0.98 9.90 0.16 -0.09 -0.11 14414
0.16 0.15 0.16 -1.08 9.86 0.19 -0.09 -0.11 14422
0.15 0.07 0.13 -0.88 9.88 0.21 -0.09 -0.12 14429
0.22 0.07 0.12 -1.00 9.90 0.23 -0.10 -0.12 14436
0.28 0.06 0.01 -1.06 9.96 0.25 -0.11 -0.13 14443
0.30 0.06 0.05 -1.03 9.94 0.27 -0.13 -0.13 14450
0.32 0.03 0.15 -1.10 10.09 0.30 -0.14 -0.14 14457
0.38 0.03 0.25 -1.15 10.15 0.33 -0.17 -0.15 14466
0.41 0.03 0.34 -1.20 10.29 0.36 -0.20 -0.19 14472
0.47 -0.00 0.36 -1.25 10.98 0.41 -0.23 -0.21 14480
0.50 -0.04 0.54 -1.35 10.78 0.48 -0.31 -0.25 14487
0.51 -0.04 0.92 -1.44 11.21 0.57 -0.42 -0.32 14494
0.59 -0.03 1.12 -1.63 11.47 0.69 -0.54 -0.39 14501
0.64 -0.03 1.64 -1.77 11.64 0.80 -0.54 -0.50 14509
0.69 -0.04 1.07 -1.90 12.79 0.98 -0.30 -0.60 14515
0.75 -0.04 -1.89 -1.45 12.94 1.35 -0.21 -0.54 14523
0.79 -0.06 -0.72 -1.63 11.56 1.54 -0.24 -0.42 14530
0.79 -0.04 -1.62 -1.39 11.91 1.69 -0.03 -0.36 14537
0.83 -0.04 -1.88 -1.67 12.36 1.86 0.11 -0.24 14544
0.86 -0.03 -1.38 -1.81 14.00 2.07 0.24 -0.11 14552
0.86 -0.04 -1.34 -1.73 14.19 2.36 0.28 -0.04 14559
0.87 -0.03 -0.09 -2.41 14.53 2.64 0.37 -0.00 14566
0.87 -0.04 -0.08 -2.06 15.18 2.99 0.33 0.01 14572
0.87 -0.03 0.80 -2.34 15.86 3.40 0.21 -0.02 14579
0.84 -0.03 1.38 -1.87 15.75 3.71 0.15 -0.11 14587
0.84 -0.03 0.99 -2.24 16.25 4.10 0.08 -0.21 14595
0.82 -0.03 0.70 -2.61 16.94 4.27 -0.04 -0.30 14602
0.78 -0.04 1.38 -2.40 17.62 4.28 -0.19 -0.35 14609
0.76 -0.04 1.97 -2.51 17.79 4.28 -0.46 -0.49 14616
0.63 -0.02 1.60 -3.61 18.73 4.28 -0.65 -0.65 14623
0.45 -0.02 1.31 -5.41 20.99 4.28 -0.89 -0.71 14630
0.31 -0.02 2.33 -6.46 24.79 4.28 -1.00 -0.75 14638
0.20 -0.02 1.26 -6.43 26.07 4.28 -1.02 -0.89 14644
0.11 -0.01 -5.08 -6.00 28.04 4.28 -1.43 -1.01 14651
0.12 -0.01 -4.41 -8.55 31.61 4.28 -2.11 -0.81 14658
0.08 -0.01 -0.85 -8.54 31.61 4.28 -2.73 -0.66 14665
0.06 -0.00 3.84 -6.51 30.25 4.28 -3.19 -0.75 14673
0.04 -0.00 6.83 -1.39 30.06 4.28 -3.31 -0.66 14680
0.01 -0.00 8.76 1.80 26.17 4.28 -3.11 -0.57 14687
0.00 0.00 9.46 8.56 22.60 4.28 -2.71 -0.58 14694
0.00 0.00 10.51 15.24 19.00 4.28 -2.09 -0.61 14701
0.00 0.00 11.21 32.86 7.57 4.26 -1.52 -0.66 14708
0.00 0.00 11.69 19.40 18.32 2.58 -0.49 -0.37 14715
0.00 0.00 6.73 16.23 26.25 -0.43 0.27 -0.07 14723
0.00 0.00 1.27 15.44 17.36 -1.79 0.34 0.15 14730
0.00 0.00 -0.25 12.71 12.67 -2.35 -0.27 0.27 14737
0.00 0.00 0.79 9.43 10.22 -2.40 -1.02 0.30 14744
0.00 0.00 2.17 7.94 8.91 -2.30 -1.23 0.28 14751
0.00 0.00 3.43 7.52 7.47 -2.30 -1.05 0.25 14758
0.00 0.00 3.92 7.47 6.87 -2.43 -0.69 0.18 14766
0.00 0.00 3.53 7.30 7.14 -2.71 -0.29 0.10 14773
0.00 0.00 2.31 6.98 7.70 -3.09 0.15 0.01 14780
0.00 0.00 1.05 6.74 7.75 -3.41 0.41 -0.04 14787
0.00 0.00 -0.38 6.15 8.11 -3.76 0.52 -0.06 14794
0.00 0.00 -1.13 5.15 8.40 -3.98 0.48 -0.06 14801
0.00 0.00 -1.35 4.42 9.15 -4.15 0.39 -0.07 14809
0.00 0.00 -1.14 3.67 8.79 -4.23 0.30 -0.10 14816
0.00 0.00 -0.67 2.82 9.03 -4.26 0.32 -0.16 14823
0.00 0.00 -0.30 2.22 9.30 -4.28 0.44 -0.24 14830
0.00 0.00 -0.67 1.94 9.48 -4.28 0.61 -0.34 14837
0.00 0.00 -0.85 1.12 10.71 -4.28 0.79 -0.42 14844
0.00 0.00 -1.00 1.02 10.77 -4.28 1.01 -0.50 14852
0.00 0.00 -2.18 0.82 11.84 -4.28 1.06 -0.55 14859
0.00 0.00 -1.84 -0.05 12.81 -4.28 1.27 -0.56 14866
0.00 0.00 -2.00 -0.30 13.79 -4.28 1.39 -0.58 14873
0.00 0.00 -3.22 -0.52 15.27 -4.28 1.38 -0.63 14880
0.00 0.00 -3.11 -0.35 14.51 -4.28 1.28 -0.67 14887
0.00 0.00 -3.10 -1.11 16.79 -4.28 1.13 -0.67 14895
0.00 0.00 -2.77 -1.62 17.04 -4.28 1.01 -0.65 14902
0.00 0.00 -1.82 -1.61 17.57 -4.28 1.02 -0.64 14909
0.00 0.00 -1.25 -2.35 17.97 -4.28 1.14 -0.62 14916
0.00 0.00 -1.43 -2.87 18.66 -4.28 1.32 -0.56 14923
0.00 0.00 -0.82 -4.03 19.43 -4.28 1.58 -0.47 14930
0.00 0.00 -0.96 -4.67 20.48 -4.28 1.73 -0.39 14938
0.00 0.00 -0.62 -5.82 22.35 -4.22 1.90 -0.28 14945
0.00 0.00 -0.08 -6.72 23.85 -4.16 2.05 -0.18 14952
0.00 0.00 0.31 -7.74 25.46 -4.14 2.27 -0.11 14959
0.00 0.00 0.08 -8.97 26.77 -4.21 2.47 -0.05 14966
0.00 0.00 -0.38 -10.64 27.68 -4.28 2.56 0.01 14973
0.00 0.00 -1.40 -12.98 27.42 -4.28 2.50 0.11 14981
0.00 0.00 -3.24 -18.88 24.27 -4.28 2.31 0.27 14988
0.00 0.00 -7.66 -22.67 25.80 -4.28 1.54 0.46 14995
0.00 0.00 -1.55 -21.71 12.58 -4.28 1.36 0.73 15002
0.00 0.00 -4.55 -25.18 20.20 -4.28 1.22 0.92 15009
0.00 0.00 -4.22 -30.29 14.69 -4.28 1.65 1.01 15016
0.00 0.00 -5.57 -31.59 11.25 -4.21 1.52 1.11 15024
0.00 0.00 -8.07 -37.99 10.22 -3.65 1.04 1.12 15031
0.00 0.00 -7.68 -46.54 5.02 -3.10 0.58 0.97 15038
0.00 0.00 -8.16 -55.15 0.77 -2.50 0.40 0.69 15045
0.00 0.00 -9.92 -57.32 -1.05 -1.49 0.45 0.45 15052
0.00 0.00 -11.87 -55.11 -2.38 -0.30 0.15 0.19 15059
0.00 0.00 -17.16 -56.49 6.58 2.36 -1.39 0.11 15067
0.00 0.00 -7.01 -31.16 6.42 4.06 -2.06 -0.03 15074
-0.00 0.04 0.73 5.99 6.83 4.28 -1.98 -0.10 15081
-0.01 0.15 1.08 4.58 19.67 4.07 -0.89 0.08 15088
-0.02 0.39 1.15 3.34 18.25 3.23 -0.51 0.28 15096
-0.03 0.61 0.54 -2.44 14.27 3.37 -0.69 0.25 15104
-0.04 0.70 0.50 -5.38 16.28 4.08 -0.41 0.40 15110
-0.06 0.90 1.17 -3.43 15.78 4.28 0.29 0.82 15118
-0.05 0.98 -2.30 -3.71 22.80 4.05 0.64 0.93 15125
-0.04 1.07 -3.82 -4.23 18.35 3.23 0.75 0.69 15132
-0.06 1.15 -3.32 -3.86 15.59 3.07 0.59 0.28 15139
-0.06 1.11 -1.15 -2.18 14.84 2.81 0.49 0.06 15147
-0.06 1.03 0.70 -1.66 13.28 2.43 0.68 0.03 15153
-0.06 0.98 1.24 -3.80 21.62 1.81 0.42 0.08 15161
-0.05 0.91 2.51 -0.96 11.77 0.19 -0.09 0.05 15168
-0.03 0.86 -0.00 -3.15 12.39 -0.06 0.05 0.04 15174
-0.05 0.85 0.26 -1.34 10.69 -0.05 0.08 0.02 15181
-0.04 0.80 0.29 -1.14 10.09 -0.00 0.09 0.03 15188
-0.04 0.80 0.34 -1.03 9.94 -0.04 0.09 0.03 15196
-0.05 0.80 0.27 -1.10 9.94 -0.06 0.11 0.02 15203
-0.03 0.78 0.38 -1.07 10.07 -0.07 0.11 0.01 15210
-0.02 0.79 0.37 -0.90 10.04 -0.05 0.11 0.01 15217
-0.01 0.74 0.46 -0.92 9.93 -0.05 0.11 0.00 15224
-0.01 0.73 0.39 -0.77 9.91 -0.04 0.11 -0.00 15232
-0.02 0.73 0.33 -0.73 9.87 -0.03 0.11 -0.00 15239
-0.03 0.71 0.36 -0.68 9.84 -0.01 0.11 -0.01 15246
-0.01 0.68 0.38 -0.65 9.83 0.01 0.11 -0.01 15253
0.01 0.68 0.47 -0.61 9.84 0.03 0.09 -0.01 15260
-0.03 0.70 0.50 -0.63 9.86 0.05 0.06 -0.02 15267
-0.02 0.67 0.54 -0.68 9.83 0.07 0.02 -0.02 15275
-0.03 0.65 0.45 -0.63 9.86 0.08 -0.02 -0.03 15282
0.01 0.61 0.40 -0.69 9.89 0.10 -0.05 -0.03 15289
0.00 0.59 0.42 -0.71 9.89 0.12 -0.07 -0.04 15296
0.02 0.50 0.41 -0.69 9.84 0.13 -0.09 -0.04 15303
0.01 0.51 0.45 -0.74 9.81 0.15 -0.10 -0.04 15310
-0.00 0.44 0.42 -0.75 9.75 0.15 -0.11 -0.05 15318
0.02 0.41 0.47 -0.75 9.68 0.16 -0.13 -0.06 15325
0.02 0.41 0.41 -0.74 9.68 0.15 -0.13 -0.06 15332
0.03 0.37 0.41 -0.77 9.59 0.15 -0.13 -0.07 15339
0.04 0.37 0.35 -0.83 9.61 0.15 -0.13 -0.07 15346
0.04 0.32 0.37 -0.79 9.64 0.15 -0.13 -0.07 15353
0.04 0.32 0.33 -0.82 9.62 0.14 -0.13 -0.07 15361
0.05 0.34 0.35 -0.86 9.67 0.14 -0.12 -0.07 15368
0.06 0.33 0.31 -0.82 9.67 0.13 -0.11 -0.08 15375
0.10 0.29 0.33 -0.91 9.71 0.13 -0.10 -0.08 15382
0.09 0.28 0.35 -0.88 9.75 0.14 -0.10 -0.09 15389
0.09 0.22 0.18 -0.85 9.82 0.14 -0.11 -0.09 15396
0.12 0.20 0.46 -0.89 9.77 0.14 -0.10 -0.09 15404
0.10 0.17 0.31 -0.95 9.83 0.15 -0.11 -0.10 15411
0.15 0.14 0.35 -0.87 9.80 0.16 -0.11 -0.10 15418
0.16 0.14 0.17 -0.99 9.83 0.16 -0.10 -0.10 15425
0.14 0.09 0.29 -0.99 9.82 0.17 -0.09 -0.10 15432
0.15 0.09 0.23 -0.98 9.63 0.19 -0.09 -0.10 15439
0.16 0.09 0.15 -1.00 9.90 0.20 -0.07 -0.11 15447
0.16 0.06 0.15 -1.07 9.95 0.22 -0.08 -0.11 15454
0.22 0.07 0.15 -1.14 9.97 0.24 -0.07 -0.11 15461
0.27 0.05 0.20 -1.17 9.87 0.25 -0.03 -0.11 15468
0.30 0.01 0.22 -1.14 9.91 0.27 -0.07 -0.12 15475
0.31 -0.00 0.24 -1.19 10.02 0.28 -0.08 -0.13 15483
0.30 0.02 0.30 -1.82 9.99 0.30 -0.08 -0.14 15490
0.34 0.01 0.28 -1.37 10.13 0.33 -0.08 -0.15 15498
0.38 -0.01 0.41 -1.34 10.23 0.36 -0.07 -0.18 15505
0.41 -0.03 0.44 -1.38 10.26 0.41 -0.07 -0.20 15512
0.43 -0.03 0.69 -1.27 10.83 0.47 -0.09 -0.25 15519
0.47 -0.04 0.84 -1.41 11.18 0.56 -0.14 -0.30 15526
0.50 -0.03 1.18 -1.51 11.46 0.68 -0.15 -0.37 15534
0.51 -0.03 0.63 -1.79 12.18 0.82 -0.05 -0.44 15541
0.57 -0.03 -0.55 -1.71 12.49 1.14 -0.03 -0.40 15548
0.58 -0.04 -0.27 -1.62 11.86 1.35 -0.11 -0.31 15555
0.58 -0.03 -0.06 -1.79 12.23 1.49 -0.08 -0.28 15562
0.63 -0.04 -0.27 -1.80 12.61 1.67 -0.07 -0.23 15569
0.62 -0.03 -0.25 -1.95 13.27 1.89 -0.02 -0.20 15577
0.65 -0.03 -0.51 -1.98 13.60 2.10 0.02 -0.14 15583
0.69 -0.04 -0.12 -1.99 13.55 2.37 0.07 -0.12 15591
0.69 -0.03 0.23 -2.19 13.70 2.62 0.12 -0.12 15598
0.70 -0.03 0.58 -2.29 14.09 2.92 0.14 -0.14 15605
0.74 -0.03 0.60 -2.34 14.10 3.21 0.15 -0.17 15612
0.72 -0.02 0.68 -2.55 14.85 3.50 0.15 -0.22 15620
0.73 -0.02 0.95 -2.60 15.52 3.86 0.15 -0.27 15627
0.75 -0.03 1.42 -2.45 16.34 4.17 0.03 -0.34 15634
0.71 -0.03 1.96 -2.51 16.99 4.28 -0.18 -0.44 15641
0.67 -0.04 2.65 -2.63 16.44 4.28 -0.46 -0.59 15648
0.64 -0.03 2.37 -3.54 17.68 4.28 -0.57 -0.76 15655
0.48 -0.02 1.28 -4.25 19.21 4.28 -0.83 -0.84 15663
0.37 -0.01 2.15 -5.84 22.36 4.28 -1.09 -0.88 15670
0.20 -0.01 3.32 -5.82 23.67 4.28 -1.04 -0.94 15677
0.15 -0.02 -0.71 -5.54 23.94 4.28 -1.12 -1.11 15683
0.13 -0.01 -5.39 -7.13 28.63 4.28 -1.50 -1.13 15690
0.05 -0.01 -0.91 -10.27 29.99 4.28 -2.41 -0.89 15698
0.03 -0.00 2.58 -7.68 28.24 4.28 -2.73 -0.94 15705
0.03 -0.00 3.82 -6.04 29.44 4.28 -2.98 -0.93 15712
0.02 -0.00 7.40 -2.15 27.81 4.28 -2.88 -0.81 15719
0.01 -0.00 8.09 3.34 22.98 4.28 -2.70 -0.79 15726
0.04 -0.00 8.55 8.26 22.24 4.28 -2.30 -0.79 15733
0.00 0.00 10.38 15.22 19.97 4.28 -1.85 -0.90 15740
0.00 0.00 10.29 30.80 9.72 4.28 -1.51 -1.03 15748
0.00 -0.00 11.52 19.36 13.94 2.83 -0.49 -0.78 15756
0.00 0.00 7.24 17.86 26.45 0.05 0.14 -0.51 15762
0.00 0.00 2.58 16.43 18.82 -1.92 0.35 -0.22 15769
0.00 0.00 0.51 13.59 13.62 -2.75 -0.15 0.04 15776
0.00 0.00 0.83 9.53 11.51 -2.90 -0.75 0.17 15783
0.00 0.00 2.40 8.06 9.87 -2.81 -0.96 0.26 15791
0.00 0.00 3.45 7.40 7.82 -2.78 -0.79 0.31 15798
0.00 0.00 3.69 7.29 7.16 -2.89 -0.47 0.34 15805
0.00 0.00 3.46 6.84 7.75 -3.17 0.01 0.32 15812
0.00 0.00 1.99 6.72 8.23 -3.47 0.41 0.29 15819
0.00 0.00 0.11 6.54 8.65 -3.89 0.70 0.30 15826
-0.00 0.00 -1.58 5.89 9.14 -4.19 0.75 0.32 15834
0.00 0.00 -2.55 4.84 9.64 -4.28 0.63 0.34 15841
0.00 0.00 -2.65 3.63 9.92 -4.28 0.46 0.33 15848
0.00 0.00 -2.09 2.61 9.85 -4.28 0.36 0.26 15855
0.00 0.00 -1.49 1.83 9.89 -4.28 0.36 0.15 15862
0.00 0.00 -1.48 1.44 9.89 -4.28 0.48 -0.01 15869
0.00 0.00 -1.71 1.09 10.68 -4.28 0.63 -0.15 15877
0.00 0.00 -2.34 1.10 10.66 -4.28 0.78 -0.29 15884
0.00 0.00 -2.63 0.54 11.88 -4.28 0.87 -0.40 15891
0.00 0.00 -2.98 0.22 12.87 -4.28 1.07 -0.45 15898
0.00 0.00 -2.62 -0.14 13.23 -4.28 1.19 -0.51 15905
0.00 0.00 -2.62 -1.78 15.70 -4.28 1.31 -0.63 15912
0.00 0.00 -3.18 0.11 13.74 -4.28 1.13 -0.72 15920
0.00 0.00 -2.86 -1.84 17.42 -4.28 1.06 -0.72 15927
0.00 0.00 -2.46 -1.60 16.80 -4.28 0.86 -0.74 15934
0.00 0.00 -1.56 -2.01 17.85 -4.28 0.81 -0.69 15941
0.00 0.00 -0.08 -3.29 17.81 -4.28 0.86 -0.70 15948
-0.00 0.00 0.13 -4.28 18.39 -4.28 1.04 -0.67 15955
0.00 0.00 0.56 -5.77 18.41 -4.28 1.30 -0.60 15963
0.00 0.00 1.18 -7.10 20.68 -4.16 1.55 -0.52 15970
0.00 0.00 2.14 -7.82 21.42 -3.80 1.92 -0.40 15977
0.00 0.00 1.92 -8.19 23.64 -3.60 2.20 -0.24 15984
0.00 0.00 1.47 -8.46 25.56 -3.61 2.45 -0.08 15991
0.00 0.00 1.01 -9.53 26.81 -3.79 2.52 0.17 15998
0.00 0.00 1.46 -11.40 26.28 -4.00 2.52 0.39 16006
0.00 0.00 1.96 -13.82 25.95 -4.12 2.51 0.54 16013
0.00 0.00 1.72 -16.07 25.12 -4.19 2.53 0.57 16020
0.00 0.00 0.49 -17.64 23.76 -4.26 2.52 0.54 16027
0.00 0.00 -1.12 -19.71 21.52 -4.28 2.39 0.49 16034
0.00 0.00 -2.74 -22.63 19.10 -4.28 2.21 0.45 16041
0.00 -0.00 -5.03 -24.53 15.57 -4.28 1.95 0.47 16049
0.00 0.00 -7.69 -28.66 13.21 -4.21 1.94 0.59 16056
0.00 0.00 -9.87 -35.12 10.82 -3.91 1.87 0.68 16063
0.00 0.00 -12.27 -45.13 6.33 -3.64 1.30 0.72 16070
0.00 0.00 -13.19 -54.54 0.64 -3.31 0.72 0.70 16077
0.00 0.00 -13.96 -57.78 -1.93 -2.34 0.20 0.61 16084
0.00 0.00 -12.43 -53.34 -2.01 -1.00 -0.36 0.36 16092
0.00 0.00 -10.31 -45.29 0.93 0.56 -1.02 0.06 16099
0.00 0.00 -13.20 -53.27 26.46 2.86 -3.04 -0.27 16107
0.00 0.00 -8.61 -9.81 10.48 4.06 -3.44 -0.49 16113
-0.00 0.05 3.68 7.95 4.65 4.16 -3.19 -0.49 16120
-0.01 0.16 -1.27 2.23 23.25 3.56 -2.19 -0.09 16129
-0.03 0.44 3.19 1.38 14.88 2.98 -1.25 0.38 16136
-0.04 0.70 -2.01 -2.42 14.59 3.49 -1.18 0.50 16143
-0.06 0.84 -0.57 -4.74 16.38 4.19 -0.58 0.64 16150
-0.06 0.94 -1.01 -3.22 18.17 4.28 0.10 0.83 16157
-0.06 1.02 -4.89 -5.06 23.67 3.83 0.61 0.76 16164
-0.05 1.10 -4.17 -4.41 17.07 3.28 0.62 0.31 16172
-0.06 1.16 -2.28 -3.64 15.52 3.11 0.43 -0.03 16179
-0.06 1.16 0.43 -1.73 14.82 2.84 0.44 -0.10 16186
-0.07 1.07 1.41 -1.33 12.69 2.47 0.61 -0.02 16193
-0.05 0.96 1.42 -3.64 21.58 1.84 0.36 0.10 16200
-0.07 0.90 2.00 -1.20 12.21 0.39 -0.21 0.08 16206
-0.03 0.81 -0.16 -3.52 12.42 -0.05 -0.08 0.04 16215
-0.03 0.79 -0.06 -1.98 10.59 -0.06 -0.03 -0.01 16221
-0.03 0.70 0.13 -1.24 10.11 -0.07 0.01 0.01 16228
-0.02 0.67 0.20 -1.08 9.82 -0.07 0.02 0.02 16235
-0.01 0.71 0.19 -1.36 9.91 -0.09 0.04 0.01 16242
0.02 0.72 0.23 -1.24 10.06 -0.11 0.06 0.01 16249
0.03 0.72 0.14 -1.03 9.92 -0.09 0.08 0.01 16257
0.02 0.72 0.20 -0.94 9.93 -0.08 0.09 0.01 16264
0.04 0.71 0.25 -0.90 9.94 -0.06 0.09 0.01 16271
0.05 0.69 0.23 -0.83 9.86 -0.04 0.09 0.01 16278
0.05 0.71 0.25 -0.80 9.25 -0.02 0.09 0.00 16285
0.05 0.71 0.19 -0.82 9.83 0.01 0.09 0.00 16292
0.05 0.72 0.24 -0.78 9.83 0.03 0.08 -0.00 16300
0.05 0.68 0.30 -0.79 9.83 0.06 0.06 -0.00 16307
0.06 0.60 0.25 -0.76 9.83 0.09 0.06 -0.01 16314
0.02 0.61 0.18 -0.78 9.88 0.11 0.07 -0.01 16321
0.02 0.57 0.22 -0.79 9.94 0.14 0.07 -0.02 16328
0.05 0.53 0.28 -0.82 9.94 0.16 0.10 -0.02 16335
0.05 0.46 0.26 -0.86 9.87 0.19 0.06 -0.02 16343
0.03 0.43 0.25 -0.86 9.84 0.20 0.04 -0.03 16350
0.04 0.38 0.40 -0.88 9.81 0.22 0.03 -0.03 16357
0.04 0.38 0.37 -0.97 9.70 0.22 0.02 -0.04 16364
0.04 0.39 0.33 -0.93 9.73 0.23 0.01 -0.05 16371
0.07 0.28 0.36 -1.03 9.66 0.22 -0.00 -0.05 16378
0.06 0.24 0.39 -1.01 9.69 0.22 -0.01 -0.06 16386
0.07 0.16 0.34 -0.97 9.72 0.22 -0.01 -0.06 16393
0.06 0.13 0.40 -1.00 9.75 0.21 -0.02 -0.06 16400
0.08 0.14 0.44 -1.07 9.61 0.20 -0.03 -0.07 16407
0.09 0.12 0.45 -1.11 9.66 0.19 -0.04 -0.07 16414
0.12 0.09 0.42 -1.13 9.62 0.17 -0.05 -0.08 16421
0.12 0.10 0.49 -1.18 9.67 0.16 -0.06 -0.08 16429
0.13 0.08 0.41 -1.28 9.65 0.16 -0.07 -0.10 16436
0.12 0.10 0.27 -1.45 9.17 0.14 -0.10 -0.10 16443
0.11 0.07 0.60 -1.18 9.56 0.13 -0.08 -0.10 16450
0.13 0.07 0.60 -1.29 9.55 0.12 -0.09 -0.10 16457
0.13 0.08 0.31 -1.27 9.81 0.12 -0.09 -0.10 16464
0.11 0.07 0.27 -1.24 9.84 0.12 -0.08 -0.11 16472
0.12 0.02 0.02 -1.41 9.90 0.14 -0.08 -0.11 16479
0.11 0.04 0.06 -0.62 9.97 0.16 -0.08 -0.11 16486
0.15 0.01 0.36 -1.20 9.98 0.19 -0.08 -0.12 16493
0.20 0.04 0.22 -1.26 9.90 0.21 -0.07 -0.12 16500
0.21 0.04 0.22 -1.32 9.95 0.23 -0.08 -0.12 16507
0.24 0.01 0.31 -1.33 9.98 0.25 -0.07 -0.13 16515
0.25 0.01 0.28 -1.42 9.92 0.27 -0.07 -0.14 16522
0.27 -0.00 0.55 -1.37 10.11 0.29 -0.07 -0.16 16530
0.31 -0.00 0.27 -1.52 10.04 0.31 -0.07 -0.18 16537
0.32 -0.02 0.35 -1.54 10.13 0.34 -0.06 -0.19 16544
0.34 -0.02 0.40 -1.66 10.19 0.38 -0.05 -0.22 16550
0.38 -0.03 0.63 -1.53 10.57 0.44 -0.06 -0.27 16559
0.46 -0.02 0.93 -1.58 10.74 0.52 -0.01 -0.32 16566
0.46 -0.02 0.90 -1.85 11.42 0.63 0.12 -0.41 16573
0.50 -0.02 -0.74 -1.71 12.58 0.91 0.19 -0.40 16580
0.56 -0.04 -0.31 -1.46 12.19 1.19 0.11 -0.30 16587
0.60 -0.03 -0.49 -1.83 12.19 1.35 0.11 -0.25 16594
0.64 -0.03 -0.35 -1.75 12.69 1.52 0.08 -0.21 16602
0.64 -0.03 -0.20 -2.01 13.25 1.74 0.08 -0.15 16609
0.67 -0.02 -0.07 -1.98 13.47 1.94 0.09 -0.13 16616
0.74 -0.03 -0.12 -1.93 13.23 2.20 0.13 -0.11 16623
0.80 -0.03 0.07 -2.17 13.58 2.44 0.18 -0.10 16630
0.78 -0.03 0.34 -2.46 14.10 2.74 0.27 -0.10 16637
0.80 -0.05 0.54 -2.73 14.42 3.05 0.33 -0.12 16644
0.80 -0.03 0.60 -2.56 14.65 3.35 0.39 -0.16 16652
0.81 -0.03 0.77 -2.50 14.44 3.69 0.47 -0.21 16659
0.80 -0.03 0.86 -2.46 16.55 4.03 0.53 -0.26 16666
0.78 -0.04 1.68 -2.26 15.96 4.28 0.41 -0.30 16673
0.71 -0.03 2.07 -2.88 17.41 4.28 0.24 -0.40 16680
0.63 -0.03 1.63 -2.73 17.35 4.28 0.12 -0.53 16688
0.50 -0.03 1.12 -3.61 18.86 4.28 -0.03 -0.61 16695
0.38 -0.01 1.22 -5.33 22.77 4.28 -0.27 -0.65 16702
0.25 -0.01 1.80 -6.15 24.81 4.28 -0.54 -0.61 16709
0.17 -0.01 2.30 -8.09 25.67 4.28 -0.62 -0.70 16716
0.12 -0.01 -1.97 -8.61 27.51 4.28 -0.77 -0.88 16722
0.08 -0.01 -4.67 -7.59 31.28 4.28 -1.28 -0.77 16730
0.07 -0.00 -2.04 -8.96 30.17 4.28 -1.93 -0.52 16738
0.02 0.00 0.85 -6.69 29.47 4.28 -2.64 -0.53 16744
0.03 -0.00 6.30 -2.59 29.54 4.28 -2.93 -0.38 16751
0.03 -0.00 8.74 3.27 26.69 4.28 -2.86 -0.30 16758
0.02 -0.00 9.45 7.13 23.37 4.28 -2.45 -0.24 16765
0.00 0.00 12.01 13.29 22.75 4.28 -1.58 -0.33 16773
0.00 0.00 11.13 22.86 15.40 4.28 -0.79 -0.57 16780
0.00 0.00 13.44 24.32 1.46 4.19 0.51 -0.97 16787
0.00 0.00 8.78 20.67 26.91 1.64 1.48 -0.91 16794
0.00 0.00 0.50 19.10 23.72 -1.45 1.62 -0.80 16801
0.00 0.00 -2.81 16.24 17.58 -3.01 0.89 -0.62 16808
0.00 0.00 -2.77 11.90 13.97 -3.47 -0.19 -0.50 16816
0.00 0.00 -0.13 9.26 11.70 -3.49 -0.93 -0.53 16823
0.00 0.00 2.12 7.75 8.94 -3.43 -0.91 -0.59 16830
0.00 0.00 3.17 7.00 7.29 -3.41 -0.62 -0.65 16837
0.00 0.00 3.01 6.44 7.12 -3.50 -0.13 -0.72 16844
0.00 0.00 2.16 6.00 7.36 -3.61 0.34 -0.79 16851
0.00 0.00 0.29 5.80 7.86 -3.86 0.78 -0.80 16859
0.00 0.00 -1.86 5.69 8.53 -4.12 0.98 -0.75 16866
0.00 -0.00 -3.36 5.36 9.43 -4.27 0.89 -0.64 16873
0.00 0.00 -3.70 4.38 9.95 -4.28 0.64 -0.50 16880
0.00 0.00 -3.48 3.65 10.16 -4.28 0.40 -0.39 16887
0.00 0.00 -2.83 2.92 10.40 -4.28 0.23 -0.31 16894
0.00 0.00 -2.36 2.31 10.43 -4.28 0.16 -0.26 16902
0.00 0.00 -2.02 1.65 11.31 -4.28 0.23 -0.23 16909
0.00 -0.00 -2.39 1.58 11.64 -4.28 0.37 -0.20 16916
0.00 0.00 -2.24 0.66 12.24 -4.28 0.62 -0.17 16923
0.00 0.00 -2.13 0.09 13.14 -4.28 0.91 -0.13 16930
0.00 0.00 -2.34 -0.25 13.70 -4.28 0.98 -0.16 16937
0.00 0.00 -1.14 -1.17 14.47 -4.28 1.06 -0.26 16945
0.00 0.00 -2.60 -0.92 15.78 -4.28 1.05 -0.29 16952
0.00 -0.00 -3.17 -1.20 16.53 -4.28 0.83 -0.33 16959
0.00 0.00 -2.90 -1.87 18.37 -4.28 0.66 -0.33 16966
0.00 0.00 -1.60 -2.14 18.00 -4.28 0.46 -0.33 16973
0.00 0.00 -0.98 -2.69 18.78 -4.28 0.42 -0.33 16980
0.00 0.00 -0.16 -3.67 18.95 -4.28 0.49 -0.32 16988
-0.00 0.01 0.36 -4.76 19.97 -4.28 0.67 -0.30 16995
0.00 0.00 0.76 -5.67 20.96 -4.28 0.87 -0.27 17002
0.00 0.00 0.45 -6.98 22.45 -4.27 1.08 -0.25 17009
0.00 0.00 -0.10 -8.30 24.16 -4.19 1.17 -0.25 17016
0.00 0.00 -0.59 -9.69 25.49 -4.04 1.21 -0.26 17024
0.00 0.00 -0.45 -11.36 27.12 -3.98 1.30 -0.31 17031
-0.00 0.00 -0.53 -12.41 27.89 -4.09 1.39 -0.40 17038
0.00 0.00 -0.69 -13.99 28.02 -4.26 1.52 -0.42 17045
0.00 0.00 -0.77 -16.97 27.06 -4.28 1.64 -0.42 17052
0.00 0.00 -0.88 -20.15 25.04 -4.28 1.77 -0.38 17059
0.00 0.00 -0.69 -23.67 21.97 -4.28 1.81 -0.30 17067
0.00 0.00 -2.15 -28.62 16.82 -4.28 1.82 -0.13 17074
0.00 0.00 -2.97 -31.86 13.47 -4.28 2.17 0.13 17081
0.00 0.00 -4.80 -40.73 9.89 -4.17 2.51 0.39 17088
0.00 0.00 -7.02 -49.90 5.17 -3.76 2.70 0.51 17095
0.00 0.00 -11.29 -59.37 0.92 -3.28 2.77 0.62 17102
0.00 0.00 -15.65 -63.64 -1.17 -2.36 2.57 0.79 17110
0.00 0.00 -20.13 -60.11 -3.25 -0.65 1.40 0.78 17118
0.00 -0.00 -19.76 -58.89 4.99 2.18 -1.75 0.46 17125
0.00 0.00 -5.72 -41.73 6.22 4.22 -2.95 -0.22 17131
-0.00 0.01 0.43 2.43 3.79 4.28 -3.21 -0.63 17138
-0.01 0.10 -1.87 4.44 22.71 4.28 -2.69 -0.65 17145
-0.03 0.37 2.99 2.72 21.27 3.47 -1.76 -0.36 17154
-0.04 0.61 2.13 -0.73 14.57 3.28 -1.31 0.01 17161
-0.03 0.76 -1.30 -6.18 16.76 3.89 -0.93 0.27 17168
-0.04 0.85 2.34 -3.65 13.52 4.28 -0.19 0.62 17175
-0.06 0.94 -2.52 -4.12 23.95 4.24 0.57 0.93 17182
-0.07 1.04 -3.91 -4.62 19.65 3.33 0.76 0.78 17189
-0.05 1.07 -3.92 -4.44 15.94 2.96 0.52 0.32 17197
-0.06 1.06 -1.27 -2.78 14.51 2.80 0.43 0.01 17204
-0.05 1.00 0.43 -1.54 13.59 2.40 0.58 -0.03 17210
-0.05 0.93 1.68 -1.93 15.19 2.11 0.58 0.06 17218
-0.05 0.85 1.09 -2.40 12.84 0.55 -0.11 0.10 17225
-0.05 0.78 -0.05 -3.50 12.64 -0.09 -0.02 0.05 17231
-0.03 0.78 -0.45 -2.12 10.65 -0.07 -0.06 -0.04 17240
-0.02 0.72 0.36 -1.29 10.17 -0.08 0.00 -0.00 17246
0.00 0.68 0.10 -1.03 9.83 -0.07 0.01 0.02 17253
0.02 0.66 0.03 -1.14 9.77 -0.08 0.03 0.01 17260
0.02 0.62 0.24 -1.31 9.93 -0.10 0.05 0.00 17267
0.03 0.66 0.15 -1.08 10.06 -0.09 0.06 0.00 17274
0.04 0.67 0.14 -1.00 9.98 -0.07 0.06 -0.00 17282
0.05 0.68 0.27 -0.94 9.91 -0.05 0.05 -0.01 17289
0.04 0.66 0.25 -0.90 9.91 -0.04 0.04 -0.01 17296
0.06 0.66 0.18 -0.85 9.86 -0.02 0.03 -0.01 17303
0.05 0.66 0.17 -0.78 9.87 0.00 0.02 -0.01 17310
0.04 0.68 0.18 -0.83 9.81 0.02 0.02 -0.02 17317
0.05 0.66 0.16 -0.78 9.82 0.03 0.01 -0.02 17325
0.04 0.66 0.14 -0.83 9.87 0.05 -0.00 -0.03 17332
0.05 0.62 0.17 -0.83 9.90 0.07 -0.01 -0.03 17339
0.08 0.59 0.15 -0.83 9.89 0.08 -0.02 -0.03 17346
0.07 0.54 0.17 -0.85 9.88 0.10 -0.02 -0.03 17353
0.07 0.52 0.18 -0.87 9.85 0.12 -0.03 -0.04 17360
0.05 0.46 0.21 -0.90 9.82 0.14 -0.03 -0.04 17368
0.06 0.47 0.18 -0.86 9.76 0.14 -0.03 -0.04 17375
0.07 0.44 0.26 -0.91 9.73 0.14 -0.04 -0.05 17382
0.07 0.41 0.19 -0.96 9.70 0.15 -0.04 -0.05 17389
0.06 0.41 0.19 -0.96 9.68 0.15 -0.03 -0.05 17396
0.07 0.39 0.19 -0.93 9.64 0.16 -0.03 -0.06 17403
0.06 0.39 0.19 -0.88 9.69 0.16 -0.03 -0.06 17411
0.08 0.34 0.17 -0.95 9.70 0.16 -0.03 -0.07 17418
0.09 0.32 0.20 -1.02 9.67 0.17 -0.03 -0.07 17425
0.10 0.24 0.19 -1.04 9.64 0.16 -0.02 -0.07 17432
0.10 0.20 0.17 -1.00 9.75 0.16 -0.03 -0.08 17439
