Voltage_01 Voltage_02 Acc_x Acc_y Acc_z Gyro_x Gyro_y Gyro_z Time
5000
0.14 0.02 0.21 -1.33 9.74 -0.02 0.04 -0.07 24
0.14 0.02 0.20 -1.33 9.76 -0.02 0.04 -0.07 31
0.15 0.02 0.23 -1.34 9.74 -0.02 0.03 -0.07 38
0.15 0.01 0.23 -1.32 9.75 -0.02 0.03 -0.07 46
0.15 0.02 0.20 -1.32 9.78 -0.01 0.03 -0.07 53
0.14 0.01 0.23 -1.32 9.77 -0.02 0.03 -0.07 60
0.13 0.02 0.20 -1.32 9.76 -0.02 0.03 -0.07 67
0.14 0.02 0.21 -1.34 9.78 -0.02 0.04 -0.07 74
0.16 0.02 0.20 -1.37 9.74 -0.02 0.03 -0.07 81
0.15 0.01 0.19 -1.31 9.80 -0.02 0.03 -0.07 89
0.14 0.01 0.18 -1.37 9.75 -0.02 0.04 -0.07 96
0.13 0.02 0.21 -1.37 9.76 -0.02 0.03 -0.07 103
0.14 0.03 0.19 -1.35 9.76 -0.03 0.03 -0.07 110
0.13 0.05 0.19 -1.34 9.74 -0.03 0.03 -0.07 117
0.15 0.04 0.20 -1.33 9.75 -0.03 0.04 -0.06 124
0.15 0.03 0.23 -1.30 9.75 -0.03 0.04 -0.07 132
0.14 0.02 0.16 -1.35 9.72 -0.03 0.03 -0.07 139
0.14 0.02 0.21 -1.31 9.76 -0.03 0.04 -0.06 146
0.14 0.03 0.15 -1.33 9.73 -0.03 0.04 -0.07 153
0.14 0.06 0.22 -1.30 9.78 -0.03 0.04 -0.07 160
0.15 0.06 0.18 -1.34 9.74 -0.02 0.04 -0.06 167
0.14 0.06 0.19 -1.31 9.79 -0.02 0.04 -0.06 175
0.14 0.05 0.17 -1.35 9.78 -0.03 0.04 -0.07 182
0.12 0.06 0.18 -1.33 9.74 -0.02 0.04 -0.07 189
0.12 0.06 0.20 -1.33 9.75 -0.02 0.04 -0.06 196
0.12 0.07 0.21 -1.32 9.74 -0.03 0.04 -0.07 203
0.13 0.05 0.25 -1.31 9.75 -0.03 0.04 -0.07 210
0.12 0.07 0.22 -1.29 9.77 -0.03 0.04 -0.07 218
0.11 0.06 0.23 -1.33 9.76 -0.03 0.04 -0.07 225
0.11 0.08 0.16 -1.31 9.76 -0.02 0.04 -0.07 232
0.11 0.09 0.19 -1.30 9.78 -0.03 0.04 -0.07 239
0.11 0.08 0.21 -1.32 9.76 -0.02 0.04 -0.07 246
0.11 0.08 0.16 -1.30 9.74 -0.02 0.04 -0.07 253
0.11 0.06 0.19 -1.32 9.76 -0.02 0.04 -0.07 261
0.10 0.05 0.23 -1.30 9.75 -0.02 0.04 -0.07 268
0.11 0.05 0.24 -1.31 9.79 -0.02 0.04 -0.06 275
0.11 0.06 0.22 -1.33 9.76 -0.02 0.04 -0.07 282
0.12 0.06 0.20 -1.32 9.80 -0.02 0.04 -0.07 289
0.11 0.06 0.23 -1.32 9.76 -0.02 0.04 -0.07 296
0.11 0.05 0.22 -1.32 9.78 -0.02 0.04 -0.07 304
0.09 0.05 0.14 -1.29 9.80 -0.02 0.04 -0.06 311
0.09 0.05 0.21 -1.34 9.74 -0.02 0.04 -0.07 318
0.10 0.06 0.21 -1.34 9.71 -0.03 0.05 -0.07 325
0.09 0.05 0.21 -1.29 9.77 -0.03 0.05 -0.07 332
0.07 0.05 0.23 -1.31 9.82 -0.04 0.05 -0.06 339
0.06 0.04 0.18 -1.31 9.73 -0.04 0.04 -0.06 347
0.05 0.04 0.22 -1.31 9.78 -0.04 0.04 -0.06 354
0.06 0.04 0.23 -1.37 9.82 -0.05 0.04 -0.06 361
0.06 0.05 0.22 -1.31 9.79 -0.05 0.04 -0.06 368
0.07 0.05 0.22 -1.36 9.81 -0.07 0.04 -0.07 375
0.05 0.04 0.21 -1.30 9.82 -0.08 0.04 -0.07 382
0.05 0.03 0.20 -1.30 9.74 -0.09 0.04 -0.07 390
0.02 0.07 0.20 -1.33 9.77 -0.10 0.05 -0.06 397
0.04 0.08 0.28 -1.29 9.82 -0.10 0.05 -0.07 404
0.06 0.10 0.22 -1.24 9.75 -0.10 0.05 -0.07 411
0.05 0.09 0.22 -1.24 9.74 -0.10 0.05 -0.07 418
0.04 0.09 0.28 -1.23 9.72 -0.10 0.05 -0.07 425
0.02 0.13 0.18 -1.22 9.70 -0.09 0.05 -0.07 433
0.02 0.12 0.21 -1.18 9.79 -0.09 0.05 -0.07 440
0.02 0.13 0.27 -1.22 9.75 -0.08 0.06 -0.07 447
0.02 0.13 0.30 -1.25 9.78 -0.08 0.05 -0.06 454
0.01 0.16 0.28 -1.27 9.77 -0.08 0.05 -0.06 461
0.01 0.17 0.24 -1.27 9.72 -0.08 0.06 -0.07 468
-0.01 0.17 0.22 -1.26 9.73 -0.08 0.06 -0.06 476
-0.00 0.18 0.21 -1.21 9.70 -0.08 0.06 -0.06 483
-0.00 0.20 0.28 -1.16 9.70 -0.08 0.07 -0.05 490
0.02 0.18 0.23 -1.19 9.72 -0.08 0.08 -0.05 497
0.00 0.20 0.24 -1.16 9.74 -0.08 0.09 -0.06 504
-0.00 0.25 0.19 -1.15 9.70 -0.08 0.10 -0.05 512
-0.01 0.24 0.21 -1.15 9.65 -0.08 0.11 -0.05 519
-0.01 0.33 0.22 -1.11 9.64 -0.08 0.12 -0.05 526
-0.01 0.28 0.25 -1.10 9.65 -0.09 0.13 -0.05 533
0.01 0.32 0.22 -1.14 9.67 -0.11 0.14 -0.05 540
-0.01 0.36 0.28 -1.13 9.65 -0.12 0.14 -0.05 547
-0.01 0.40 0.30 -1.13 9.69 -0.13 0.14 -0.05 555
-0.02 0.40 0.31 -1.09 9.61 -0.15 0.14 -0.05 562
-0.01 0.46 0.26 -1.09 9.61 -0.16 0.14 -0.04 569
-0.01 0.50 0.29 -1.09 9.59 -0.18 0.15 -0.04 576
-0.02 0.55 0.31 -1.02 9.68 -0.20 0.15 -0.04 583
-0.02 0.58 0.30 -0.99 9.73 -0.21 0.14 -0.04 590
-0.02 0.59 0.32 -0.98 9.75 -0.22 0.14 -0.04 598
-0.03 0.70 0.28 -1.00 9.85 -0.22 0.13 -0.03 605
-0.02 0.72 0.29 -0.92 9.92 -0.21 0.12 -0.03 612
-0.02 0.79 0.31 -0.90 9.95 -0.19 0.11 -0.02 619
-0.03 0.81 0.26 -0.90 9.90 -0.16 0.10 -0.02 626
-0.03 0.89 0.26 -0.88 9.88 -0.13 0.09 -0.02 633
-0.03 0.85 0.29 -0.83 9.86 -0.11 0.08 -0.02 641
-0.04 0.90 0.29 -0.83 9.87 -0.08 0.07 -0.02 648
-0.03 0.91 0.23 -0.81 9.82 -0.05 0.06 -0.02 655
-0.02 0.90 0.23 -0.82 9.82 -0.04 0.06 -0.02 662
-0.02 0.87 0.26 -0.83 9.82 -0.02 0.07 -0.02 669
-0.02 0.92 0.27 -0.82 9.84 -0.01 0.07 -0.02 676
-0.03 0.90 0.30 -0.82 9.82 0.01 0.07 -0.02 684
-0.03 0.86 0.29 -0.82 9.82 0.03 0.06 -0.02 691
-0.02 0.87 0.33 -0.87 9.80 0.03 0.06 -0.02 698
-0.01 0.85 0.33 -0.87 9.74 0.05 0.05 -0.02 705
-0.01 0.83 0.31 -0.84 9.72 0.05 0.05 -0.02 712
-0.02 0.79 0.32 -0.86 9.71 0.06 0.04 -0.03 719
-0.02 0.77 0.28 -0.91 9.71 0.06 0.04 -0.03 727
-0.01 0.72 0.35 -0.89 9.74 0.06 0.04 -0.03 734
-0.01 0.69 0.33 -0.90 9.73 0.06 0.04 -0.03 741
-0.00 0.62 0.30 -0.89 9.70 0.06 0.04 -0.03 748
-0.01 0.60 0.31 -0.91 9.75 0.06 0.04 -0.03 755
-0.00 0.61 0.29 -0.92 9.73 0.06 0.03 -0.04 762
-0.01 0.57 0.30 -0.92 9.72 0.06 0.03 -0.04 770
0.01 0.56 0.28 -0.95 9.72 0.05 0.03 -0.04 777
0.00 0.58 0.26 -0.92 9.76 0.05 0.03 -0.04 784
0.00 0.56 0.30 -0.90 9.73 0.04 0.03 -0.04 791
-0.00 0.55 0.25 -0.95 9.75 0.04 0.04 -0.04 798
0.00 0.56 0.28 -0.95 9.75 0.04 0.04 -0.04 805
-0.01 0.55 0.26 -0.96 9.72 0.04 0.04 -0.04 813
-0.00 0.52 0.26 -0.96 9.73 0.05 0.04 -0.04 820
0.01 0.51 0.28 -0.94 9.67 0.05 0.04 -0.04 827
0.01 0.52 0.35 -0.94 9.76 0.06 0.04 -0.04 834
0.01 0.47 0.30 -1.00 9.70 0.07 0.04 -0.05 841
-0.00 0.49 0.28 -0.98 9.65 0.07 0.04 -0.05 848
-0.01 0.49 0.28 -0.91 9.71 0.08 0.04 -0.05 856
0.01 0.44 0.31 -0.97 9.79 0.09 0.04 -0.05 863
0.03 0.42 0.30 -0.98 9.72 0.11 0.05 -0.05 870
0.04 0.36 0.28 -0.94 9.81 0.14 0.04 -0.05 877
0.04 0.29 0.33 -0.97 9.87 0.16 0.03 -0.05 884
0.06 0.26 0.27 -1.03 9.80 0.19 0.01 -0.05 891
0.07 0.22 0.33 -1.00 9.81 0.21 0.01 -0.06 899
0.07 0.20 0.35 -1.08 9.87 0.24 -0.01 -0.06 906
0.13 0.14 0.33 -1.14 9.83 0.25 -0.02 -0.06 913
0.12 0.10 0.27 -1.18 9.82 0.26 -0.03 -0.07 920
0.17 0.07 0.31 -1.13 9.86 0.28 -0.02 -0.07 927
0.17 0.05 0.28 -1.20 9.96 0.30 -0.01 -0.08 934
0.16 0.05 0.30 -1.28 9.99 0.31 -0.00 -0.09 942
0.18 0.05 0.32 -1.29 9.94 0.32 0.00 -0.09 949
0.20 0.01 0.31 -1.38 9.99 0.33 0.01 -0.09 956
0.23 -0.01 0.33 -1.43 9.98 0.34 0.01 -0.10 963
0.28 -0.03 0.41 -1.51 10.11 0.33 0.02 -0.11 970
0.29 -0.02 0.35 -1.42 10.24 0.36 0.02 -0.12 977
0.36 -0.02 0.55 -1.52 10.57 0.45 0.05 -0.14 986
0.42 -0.02 0.87 -1.64 12.05 0.66 0.18 -0.18 993
0.49 -0.03 0.68 -1.52 13.18 1.05 0.39 -0.23 1000
0.54 -0.03 0.71 -1.72 12.43 1.33 0.30 -0.23 1007
0.54 -0.04 0.69 -2.22 12.78 1.45 0.22 -0.25 1014
0.62 -0.04 0.61 -1.78 12.65 1.62 0.09 -0.24 1021
0.64 -0.03 0.59 -1.90 12.96 1.76 0.00 -0.24 1028
0.66 -0.04 0.40 -1.77 12.75 1.94 -0.04 -0.23 1036
0.68 -0.04 0.46 -2.06 12.73 2.13 -0.07 -0.23 1043
0.71 -0.04 0.55 -2.17 12.97 2.33 -0.09 -0.22 1050
0.69 -0.04 0.50 -2.41 13.29 2.58 -0.15 -0.22 1057
0.73 -0.04 0.39 -2.28 13.20 2.79 -0.20 -0.22 1064
0.77 -0.03 0.76 -2.14 12.89 3.02 -0.21 -0.23 1072
0.79 -0.04 0.62 -2.48 13.79 3.24 -0.21 -0.24 1079
0.79 -0.04 0.49 -2.77 13.57 3.44 -0.21 -0.26 1086
0.78 -0.05 0.89 -2.97 13.54 3.71 -0.25 -0.28 1093
0.72 -0.03 0.68 -3.05 13.47 3.95 -0.30 -0.33 1100
0.66 -0.03 1.14 -3.16 14.07 4.18 -0.39 -0.38 1107
0.61 -0.03 1.98 -3.76 14.00 4.28 -0.53 -0.50 1115
0.51 -0.04 2.11 -4.42 14.80 4.28 -0.75 -0.63 1122
0.40 -0.03 2.66 -5.02 16.76 4.28 -0.97 -0.74 1129
0.27 -0.03 3.82 -6.84 18.16 4.28 -1.11 -0.84 1135
0.21 -0.00 4.59 -7.13 18.81 4.28 -1.09 -1.05 1143
0.16 0.00 1.28 -8.36 21.45 4.28 -1.17 -1.27 1150
0.12 0.01 -1.58 -8.13 22.35 4.28 -1.79 -1.34 1158
0.12 0.00 1.82 -8.23 22.47 4.28 -2.17 -1.20 1165
0.10 -0.00 3.48 -7.01 20.35 4.28 -1.70 -1.15 1172
0.08 -0.01 1.48 -6.72 21.44 4.28 -1.54 -1.24 1178
0.04 -0.00 1.57 -5.10 22.65 4.28 -1.65 -1.12 1185
0.01 0.00 4.00 -2.04 20.42 4.28 -1.90 -1.10 1192
0.00 -0.00 5.11 1.53 18.36 4.28 -1.90 -1.12 1200
0.00 -0.00 5.19 3.67 15.66 4.28 -1.82 -1.18 1207
0.00 0.00 5.32 8.50 12.54 4.28 -1.64 -1.21 1214
0.00 0.00 6.48 17.48 9.07 4.06 -1.58 -1.28 1221
0.00 0.00 9.76 24.69 3.39 3.29 -1.19 -1.03 1228
-0.00 0.00 8.40 15.34 26.52 0.83 -0.29 -0.57 1235
0.00 0.00 4.10 18.28 19.66 -1.42 0.27 -0.14 1243
0.00 0.00 1.89 16.73 13.27 -2.36 0.32 0.21 1250
0.00 0.00 0.39 12.58 11.71 -2.83 -0.14 0.39 1257
0.00 0.00 0.91 9.94 11.84 -2.95 -0.42 0.52 1264
0.00 0.00 1.89 9.11 10.02 -3.13 -0.39 0.62 1271
-0.00 0.00 1.88 8.68 9.67 -3.46 -0.12 0.73 1278
0.00 0.00 0.91 8.23 10.71 -3.84 0.11 0.86 1286
0.00 0.00 0.42 7.55 11.37 -4.24 0.32 0.98 1293
0.00 0.00 -0.23 7.09 11.77 -4.28 0.43 1.15 1300
0.00 0.00 -0.73 5.92 12.03 -4.28 0.42 1.31 1307
0.00 0.00 -0.80 4.07 12.04 -4.28 0.27 1.46 1314
0.00 0.00 -0.84 2.40 11.93 -4.28 0.00 1.54 1321
0.00 0.00 -0.57 1.13 11.87 -4.28 -0.17 1.53 1329
0.00 0.00 0.33 0.39 11.58 -4.28 -0.31 1.43 1336
0.00 0.00 0.72 -0.31 11.58 -4.28 -0.33 1.25 1343
0.00 0.00 1.25 -1.30 11.81 -4.28 -0.23 1.07 1350
0.00 0.00 1.44 -2.02 12.28 -4.28 -0.10 0.84 1357
0.00 -0.00 1.55 -2.67 13.04 -4.28 0.07 0.63 1364
0.00 0.00 1.41 -3.00 13.78 -4.28 0.18 0.39 1372
0.00 0.00 1.38 -3.14 14.92 -4.28 0.20 0.20 1379
0.00 0.00 1.47 -3.14 15.59 -4.28 0.16 0.08 1386
0.00 0.00 2.23 -3.18 16.04 -4.28 0.13 0.01 1393
-0.00 0.00 2.49 -3.19 16.20 -4.27 0.14 0.02 1400
0.00 0.00 2.55 -3.64 16.66 -4.25 0.16 0.11 1408
0.00 0.00 2.57 -3.66 16.65 -4.22 0.13 0.23 1415
0.00 0.00 3.05 -3.91 16.91 -4.14 0.08 0.35 1422
0.00 0.00 3.46 -4.06 17.09 -4.04 0.06 0.47 1429
0.00 0.00 3.73 -4.54 17.30 -3.86 0.08 0.54 1436
-0.00 0.00 3.93 -5.14 17.46 -3.62 0.16 0.58 1443
0.00 -0.00 4.04 -5.85 17.70 -3.37 0.27 0.54 1451
0.00 0.00 4.02 -6.54 17.94 -3.03 0.46 0.48 1458
0.00 0.00 3.81 -7.24 18.27 -2.66 0.67 0.36 1465
0.00 0.00 3.50 -8.57 18.63 -2.36 0.86 0.21 1472
0.00 0.00 3.20 -8.84 18.88 -2.01 1.12 0.09 1479
0.00 0.00 2.94 -9.77 19.05 -1.74 1.43 -0.05 1486
0.00 0.00 2.68 -10.49 19.25 -1.49 1.66 -0.19 1494
0.00 0.00 2.07 -11.57 19.16 -1.37 1.94 -0.34 1501
0.00 0.00 1.65 -12.46 19.24 -1.33 2.21 -0.47 1508
0.00 0.00 1.04 -13.49 19.22 -1.43 2.56 -0.55 1515
0.00 0.00 -0.06 -14.58 18.88 -1.68 2.91 -0.62 1522
0.00 0.00 -1.61 -15.17 17.18 -2.20 3.10 -0.60 1529
0.00 0.00 -3.74 -15.70 15.66 -2.85 3.19 -0.46 1537
0.00 0.00 -5.67 -17.87 12.37 -3.47 3.23 -0.20 1544
0.00 0.00 -8.12 -21.74 9.27 -4.16 3.10 0.08 1551
0.00 0.00 -10.15 -28.25 4.01 -4.28 2.60 0.40 1558
0.00 0.00 -12.02 -34.23 1.78 -4.28 1.97 0.58 1565
0.00 0.00 -12.51 -40.26 1.40 -4.28 1.20 0.68 1572
0.00 0.00 -11.85 -41.98 3.24 -3.90 0.37 0.55 1580
0.00 0.00 -11.82 -38.83 1.30 -2.41 -0.42 0.35 1587
0.00 0.00 -8.76 -32.85 -0.82 -0.72 -1.41 0.13 1594
0.00 0.00 -4.99 -27.19 -1.92 0.59 -2.07 -0.23 1601
0.00 0.00 -1.47 -26.78 2.68 1.93 -2.55 -0.57 1608
0.00 -0.00 -5.43 -35.46 23.63 3.11 -3.62 -0.90 1616
0.00 0.00 -1.87 -4.24 13.93 4.11 -3.60 -0.89 1623
-0.00 0.00 2.60 4.98 9.76 3.76 -3.11 -0.63 1630
-0.01 0.07 4.56 2.21 16.48 3.35 -1.99 0.02 1637
-0.02 0.22 2.75 1.74 11.78 3.00 -1.10 0.51 1644
-0.02 0.38 -2.04 -3.03 15.05 3.48 -0.86 0.72 1652
-0.02 0.57 -2.08 -4.34 16.17 3.95 -0.26 0.81 1659
-0.05 0.71 -3.34 -4.65 18.80 4.03 0.12 0.78 1667
-0.05 0.81 -5.11 -5.15 20.64 3.62 0.69 0.49 1674
-0.06 0.89 -4.17 -5.17 19.11 2.99 0.36 0.01 1681
-0.06 0.90 -0.64 -3.32 17.10 2.43 0.22 -0.38 1688
-0.04 0.87 1.97 -1.58 13.13 1.96 0.48 -0.27 1695
-0.03 0.85 1.39 -4.65 21.36 1.03 0.16 -0.05 1702
-0.04 0.79 1.01 -1.39 11.60 0.01 -0.05 0.06 1709
-0.05 0.74 -0.66 -2.78 10.62 -0.08 -0.07 -0.02 1717
-0.06 0.75 0.37 -0.86 9.61 -0.05 0.00 -0.03 1723
-0.03 0.69 0.29 -1.09 10.00 -0.08 0.03 0.00 1730
-0.01 0.65 -0.01 -0.91 9.80 -0.08 0.05 0.00 1737
-0.00 0.66 0.16 -1.13 9.73 -0.11 0.09 0.01 1744
0.01 0.67 0.33 -1.08 9.91 -0.12 0.10 0.00 1752
0.02 0.69 0.27 -1.03 10.02 -0.13 0.09 -0.00 1759
-0.01 0.70 0.17 -0.94 9.95 -0.11 0.09 -0.00 1766
0.01 0.72 0.20 -0.87 9.98 -0.09 0.10 -0.01 1773
0.01 0.74 0.21 -0.83 9.83 -0.07 0.10 -0.01 1780
0.04 0.75 0.19 -0.78 9.82 -0.06 0.11 -0.01 1787
0.04 0.74 0.23 -0.80 9.84 -0.05 0.11 -0.01 1795
0.04 0.71 0.28 -0.75 9.84 -0.03 0.11 -0.01 1802
0.02 0.72 0.23 -0.69 9.75 -0.02 0.11 -0.01 1809
0.01 0.73 0.28 -0.72 9.82 0.03 0.10 -0.01 1816
0.02 0.73 0.31 -0.75 9.87 0.02 0.08 -0.02 1823
0.01 0.72 0.26 -0.75 9.84 0.04 0.06 -0.02 1830
0.02 0.70 0.22 -0.77 9.87 0.06 0.06 -0.02 1838
0.01 0.66 0.17 -0.75 9.87 0.08 0.06 -0.02 1845
0.03 0.62 0.25 -0.76 9.84 0.11 0.07 -0.02 1852
0.04 0.59 0.26 -0.74 9.74 0.13 0.07 -0.03 1859
0.03 0.55 0.29 -0.77 9.73 0.14 0.07 -0.03 1866
0.03 0.47 0.36 -0.78 9.70 0.15 0.07 -0.04 1873
0.04 0.40 0.40 -0.80 9.70 0.16 0.06 -0.05 1881
0.03 0.38 0.40 -0.80 9.69 0.16 0.05 -0.05 1888
0.06 0.33 0.40 -0.86 9.65 0.17 0.05 -0.06 1895
0.08 0.31 0.40 -0.86 9.70 0.16 0.03 -0.06 1902
0.08 0.30 0.40 -0.95 9.64 0.16 0.03 -0.07 1909
0.06 0.23 0.40 -0.97 9.69 0.15 0.02 -0.07 1916
0.07 0.15 0.37 -0.99 9.63 0.14 0.02 -0.07 1924
0.05 0.17 0.33 -1.00 9.74 0.15 0.01 -0.07 1931
0.07 0.13 0.34 -0.99 9.73 0.15 0.00 -0.08 1938
0.09 0.12 0.36 -1.11 9.75 0.16 -0.01 -0.08 1945
0.10 0.11 0.21 -1.12 9.78 0.17 -0.02 -0.08 1952
0.12 0.11 0.44 -1.04 9.78 0.17 -0.03 -0.09 1959
0.11 0.06 0.40 -1.04 9.87 0.18 -0.04 -0.09 1967
0.12 0.07 0.33 -1.05 9.83 0.19 -0.04 -0.09 1974
0.12 0.07 0.25 -1.09 9.89 0.20 -0.05 -0.09 1981
0.13 0.09 0.29 -1.05 9.91 0.22 -0.06 -0.10 1988
0.15 0.05 0.36 -1.14 9.93 0.23 -0.08 -0.10 1995
0.17 0.05 0.31 -1.19 9.86 0.24 -0.09 -0.11 2002
0.17 0.03 0.32 -1.20 9.87 0.26 -0.07 -0.12 2010
0.16 0.02 0.41 -1.20 9.88 0.27 -0.07 -0.13 2017
0.21 0.01 0.46 -1.25 9.97 0.29 -0.10 -0.14 2024
0.26 -0.00 0.51 -1.27 10.10 0.31 -0.07 -0.18 2032
0.28 -0.02 0.58 -1.37 10.14 0.35 -0.09 -0.21 2039
0.28 -0.03 0.84 -1.45 10.29 0.40 -0.09 -0.26 2045
0.35 -0.03 0.81 -1.42 10.58 0.47 -0.14 -0.31 2054
0.39 -0.02 1.25 -1.54 10.81 0.55 -0.19 -0.38 2061
0.42 -0.01 1.87 -1.91 11.54 0.65 -0.12 -0.47 2068
0.53 -0.03 -0.87 -1.54 12.67 0.95 0.08 -0.53 2075
0.55 -0.04 -0.34 -1.61 11.89 1.19 -0.07 -0.41 2082
0.54 -0.04 -0.18 -1.67 11.58 1.33 -0.06 -0.39 2089
0.59 -0.03 -0.68 -1.58 11.96 1.46 -0.08 -0.33 2097
0.65 -0.04 -0.71 -1.79 12.42 1.62 -0.10 -0.27 2104
0.69 -0.03 -0.90 -1.99 13.07 1.81 -0.09 -0.19 2111
0.75 -0.04 0.24 -1.97 13.96 2.03 -0.08 -0.12 2118
0.79 -0.04 0.41 -2.05 13.57 2.31 -0.06 -0.12 2125
0.80 -0.05 0.19 -2.40 13.94 2.57 -0.04 -0.12 2132
0.78 -0.03 0.00 -2.35 14.63 2.88 -0.03 -0.11 2139
0.81 -0.03 0.13 -2.30 15.23 3.22 -0.01 -0.11 2147
0.81 -0.03 1.72 -2.05 15.25 3.51 -0.02 -0.14 2154
0.82 -0.04 1.72 -2.54 15.38 3.89 0.03 -0.23 2161
0.81 -0.04 1.41 -2.45 15.43 4.23 0.10 -0.34 2168
0.76 -0.04 1.24 -2.85 16.46 4.28 0.14 -0.46 2176
0.74 -0.04 1.46 -2.45 17.36 4.28 0.01 -0.51 2183
0.63 -0.02 2.32 -3.59 17.75 4.28 -0.28 -0.63 2190
0.50 -0.03 1.35 -4.05 19.09 4.28 -0.53 -0.74 2197
0.34 -0.02 1.43 -6.62 23.03 4.28 -0.57 -0.76 2204
0.23 -0.02 2.38 -6.43 24.85 4.28 -0.48 -0.80 2210
0.17 -0.02 -0.76 -6.27 26.51 4.28 -0.62 -0.91 2217
0.14 -0.01 -6.72 -7.37 30.00 4.28 -1.07 -0.93 2225
0.08 0.00 -3.83 -11.11 31.79 4.28 -1.78 -0.58 2233
0.08 -0.01 0.33 -7.60 29.61 4.28 -2.20 -0.57 2239
0.03 -0.00 3.22 -5.97 32.53 4.28 -2.50 -0.50 2246
0.01 -0.00 7.74 -2.87 30.27 4.28 -2.51 -0.33 2253
0.00 0.00 9.20 5.37 23.33 4.28 -2.00 -0.30 2260
0.00 -0.00 9.70 10.31 19.57 4.28 -1.21 -0.35 2269
0.00 0.00 9.26 21.85 14.74 4.28 -0.53 -0.61 2275
0.00 0.00 9.95 21.78 -0.33 4.22 0.04 -1.05 2282
0.00 0.00 7.50 15.13 23.97 2.19 0.65 -0.98 2289
0.00 0.00 0.41 15.06 22.93 -0.01 0.86 -0.93 2296
0.00 0.00 -1.22 15.49 15.25 -1.38 0.42 -0.82 2304
0.00 0.00 -1.17 12.09 12.16 -2.00 -0.66 -0.74 2311
0.00 0.00 -0.26 8.87 10.50 -2.16 -1.32 -0.76 2318
0.00 0.00 2.05 7.55 9.37 -2.21 -1.49 -0.79 2325
0.00 0.00 3.84 7.32 7.27 -2.29 -1.25 -0.79 2332
0.00 0.00 4.51 7.39 6.40 -2.48 -0.82 -0.79 2339
0.00 0.00 4.15 7.15 6.66 -2.77 -0.20 -0.80 2347
0.00 0.00 2.93 6.87 6.65 -3.08 0.35 -0.76 2354
0.00 0.00 1.07 6.72 6.96 -3.47 0.62 -0.68 2361
0.00 0.00 -0.31 6.31 7.43 -3.81 0.69 -0.53 2368
0.00 0.00 -0.86 5.79 7.93 -4.11 0.64 -0.35 2375
0.00 0.00 -1.05 5.07 8.42 -4.26 0.53 -0.22 2382
0.00 0.00 -0.93 4.28 8.84 -4.28 0.48 -0.09 2390
0.00 0.00 -0.73 3.62 9.06 -4.28 0.48 -0.00 2397
0.00 0.00 -0.56 2.98 9.50 -4.28 0.55 0.06 2404
0.00 0.00 -0.60 1.90 9.95 -4.28 0.66 0.10 2411
0.00 0.00 -1.17 2.28 10.39 -4.28 0.74 0.11 2418
0.00 0.00 -0.86 1.09 11.41 -4.28 0.90 0.09 2425
0.00 0.00 -1.11 0.83 11.88 -4.28 0.99 0.07 2433
0.00 0.00 -1.74 0.38 12.96 -4.28 1.03 -0.00 2440
0.00 0.00 -1.90 0.10 13.73 -4.28 1.03 -0.08 2447
0.00 0.00 -1.95 -0.73 15.62 -4.28 1.05 -0.17 2454
0.00 0.00 -2.32 -0.30 15.23 -4.28 0.96 -0.32 2461
0.00 0.00 -1.93 -1.35 17.31 -4.28 0.99 -0.46 2468
0.00 0.00 -2.04 -1.75 17.60 -4.28 1.02 -0.60 2476
0.00 0.00 -1.54 -2.61 18.11 -4.28 1.10 -0.74 2483
0.00 0.00 -1.11 -3.61 18.02 -4.28 1.22 -0.82 2490
0.00 0.00 -0.29 -5.63 18.65 -4.28 1.42 -0.88 2497
0.00 0.00 0.05 -7.04 19.39 -4.28 1.62 -0.84 2504
0.00 0.00 0.55 -7.93 21.39 -4.00 1.90 -0.81 2511
0.00 0.00 1.15 -8.07 23.23 -3.73 2.21 -0.68 2519
0.00 0.00 0.95 -8.78 24.34 -3.55 2.47 -0.54 2526
0.00 0.00 0.19 -10.28 25.78 -3.42 2.65 -0.39 2533
0.00 0.00 -0.32 -11.75 26.60 -3.39 2.67 -0.28 2540
0.00 0.00 -0.97 -13.79 26.67 -3.40 2.60 -0.21 2547
0.00 0.00 -2.37 -15.66 26.21 -3.50 2.42 -0.12 2554
0.00 0.00 -3.80 -16.90 24.96 -3.76 2.15 -0.02 2562
0.00 0.00 -5.07 -19.07 22.19 -4.13 1.79 0.15 2569
0.00 0.00 -6.19 -22.08 18.87 -4.27 1.61 0.37 2576
0.00 0.00 -7.59 -25.12 16.64 -4.28 1.48 0.53 2583
0.00 0.00 -8.44 -29.44 13.57 -4.27 1.15 0.72 2590
0.00 0.00 -7.66 -35.22 9.75 -4.15 0.85 0.85 2597
0.00 0.00 -6.28 -43.52 5.49 -3.85 0.48 0.78 2605
0.00 0.00 -6.20 -51.00 0.34 -3.45 0.40 0.55 2612
0.00 0.00 -7.72 -53.26 -2.15 -2.58 0.50 0.34 2619
0.00 0.00 -9.52 -50.49 -1.83 -1.28 0.44 0.10 2626
0.00 0.00 -10.11 -47.89 -6.50 -0.02 0.03 -0.04 2633
0.00 0.00 -18.32 -49.89 8.29 2.78 -2.44 0.13 2640
0.00 0.00 -1.45 -9.35 7.37 3.98 -3.05 0.26 2648
-0.00 0.04 0.09 9.47 10.78 4.20 -2.71 0.39 2655
-0.01 0.15 0.38 -0.05 24.85 3.56 -0.92 0.88 2662
-0.03 0.40 -1.05 1.49 14.52 2.96 -0.80 0.95 2670
-0.05 0.61 -3.67 -2.61 17.10 3.42 -0.88 0.76 2677
-0.05 0.75 -2.75 -5.02 14.15 4.04 -0.37 0.77 2684
-0.04 0.82 -3.10 -3.96 18.04 4.14 0.01 0.75 2692
-0.04 0.89 -4.68 -4.44 22.21 3.53 0.51 0.59 2699
-0.05 0.91 -3.53 -3.46 15.50 3.00 0.53 0.18 2706
-0.05 0.92 -1.97 -2.79 13.29 2.84 0.37 -0.10 2713
-0.06 0.90 0.47 -1.43 13.76 2.68 0.46 -0.15 2720
-0.05 0.87 1.87 -1.35 12.29 2.41 0.70 -0.00 2727
-0.04 0.80 0.62 -5.18 25.59 1.63 0.33 0.11 2735
-0.03 0.78 0.78 -2.05 12.03 -0.09 -0.04 0.06 2741
-0.03 0.75 -1.11 -4.17 11.30 -0.14 -0.13 -0.08 2749
-0.04 0.71 0.47 -1.37 10.33 -0.10 -0.04 -0.01 2756
-0.02 0.62 0.12 -1.07 9.89 -0.07 -0.04 0.01 2762
-0.01 0.66 -0.02 -1.26 9.67 -0.08 -0.01 0.01 2769
0.01 0.68 0.33 -1.42 9.91 -0.11 0.01 0.01 2777
0.03 0.70 0.23 -1.14 10.17 -0.11 0.01 -0.00 2784
0.05 0.71 0.11 -1.03 10.07 -0.08 0.01 -0.00 2791
0.02 0.72 0.17 -0.97 10.01 -0.06 0.02 -0.00 2798
0.01 0.72 0.17 -0.90 9.91 -0.04 0.01 -0.01 2805
0.03 0.73 0.14 -0.82 9.86 -0.01 -0.00 -0.01 2812
0.06 0.70 0.14 -0.77 9.84 0.02 -0.01 -0.01 2820
0.07 0.65 0.12 -0.79 9.84 0.05 -0.02 -0.02 2827
0.10 0.61 0.08 -0.85 9.87 0.07 -0.03 -0.02 2834
0.10 0.59 0.07 -0.86 9.88 0.09 -0.03 -0.02 2841
0.10 0.57 0.07 -0.88 9.89 0.11 -0.03 -0.03 2848
0.10 0.55 0.14 -0.85 9.90 0.14 -0.03 -0.03 2855
0.10 0.49 0.17 -0.88 9.84 0.16 -0.03 -0.03 2863
0.10 0.45 0.17 -0.88 9.73 0.18 -0.04 -0.03 2870
0.13 0.43 0.20 -0.93 9.82 0.20 -0.04 -0.05 2877
0.12 0.32 0.19 -1.00 9.92 0.19 -0.04 -0.05 2884
0.12 0.34 0.17 -0.98 9.83 0.20 -0.04 -0.06 2891
0.12 0.33 0.18 -0.94 9.66 0.21 -0.04 -0.06 2898
0.13 0.23 0.17 -1.03 9.60 0.22 -0.05 -0.06 2906
0.13 0.19 0.18 -1.08 9.77 0.20 -0.04 -0.07 2913
0.13 0.18 0.18 -1.05 9.79 0.20 -0.04 -0.07 2920
0.13 0.16 0.18 -1.08 9.63 0.20 -0.05 -0.07 2927
0.15 0.13 0.22 -1.08 9.63 0.19 -0.05 -0.08 2934
0.16 0.11 0.18 -1.21 9.71 0.18 -0.06 -0.08 2941
0.18 0.07 0.23 -1.20 9.63 0.17 -0.06 -0.09 2949
0.17 0.06 0.35 -1.09 9.76 0.16 -0.07 -0.10 2956
0.17 0.07 0.17 -1.25 9.79 0.17 -0.08 -0.10 2963
0.21 0.04 0.63 -1.29 9.33 0.16 -0.07 -0.10 2970
0.24 0.06 0.07 -1.33 9.47 0.16 -0.09 -0.11 2977
0.22 0.02 0.12 -1.31 9.72 0.16 -0.09 -0.12 2984
0.23 0.03 0.09 -1.44 9.82 0.16 -0.09 -0.12 2992
0.22 0.02 0.68 -1.25 9.90 0.16 -0.08 -0.13 2999
0.26 0.00 0.16 -1.31 9.75 0.16 -0.08 -0.13 3006
0.29 0.01 0.06 -1.26 9.79 0.17 -0.09 -0.14 3013
0.30 0.05 0.16 -1.48 9.90 0.18 -0.10 -0.15 3020
0.37 0.01 0.26 -1.43 9.98 0.21 -0.11 -0.16 3027
0.37 0.01 0.14 -1.35 10.00 0.23 -0.13 -0.18 3036
0.47 -0.03 0.27 -1.52 10.05 0.27 -0.17 -0.20 3043
0.47 -0.03 0.36 -1.47 10.36 0.32 -0.24 -0.23 3050
0.56 -0.04 0.38 -1.59 10.31 0.37 -0.32 -0.26 3057
0.62 -0.03 0.36 -1.56 10.44 0.42 -0.39 -0.29 3064
0.63 -0.04 0.45 -1.61 10.50 0.46 -0.44 -0.33 3072
0.68 -0.04 0.63 -1.68 10.72 0.50 -0.46 -0.37 3079
0.78 -0.05 1.35 -1.80 10.69 0.55 -0.43 -0.46 3086
0.81 -0.04 1.28 -2.20 11.45 0.62 -0.28 -0.59 3093
0.87 -0.04 -1.31 -1.78 12.76 0.92 -0.22 -0.57 3100
0.88 -0.04 -0.99 -1.61 11.77 1.21 -0.34 -0.44 3107
0.98 -0.05 -0.93 -1.74 11.85 1.35 -0.26 -0.39 3115
1.02 -0.05 -1.38 -1.71 12.27 1.52 -0.25 -0.31 3122
1.03 -0.06 -1.40 -2.02 12.73 1.69 -0.20 -0.21 3129
1.07 -0.05 -1.54 -1.99 12.78 1.92 -0.14 -0.13 3136
1.11 -0.05 -1.00 -2.22 13.54 2.16 -0.04 -0.05 3143
1.10 -0.05 -0.91 -2.26 13.29 2.37 0.02 -0.00 3150
1.11 -0.04 -0.20 -2.32 13.74 2.65 0.08 0.02 3156
1.12 -0.05 0.11 -2.45 14.34 2.92 0.14 -0.01 3165
1.10 -0.05 0.32 -4.14 15.71 3.31 0.17 -0.10 3172
1.07 -0.04 1.37 -2.93 15.08 3.65 0.10 -0.14 3179
1.04 -0.04 1.40 -2.93 16.03 4.00 0.13 -0.27 3185
0.98 -0.04 1.19 -3.04 16.87 4.26 0.09 -0.38 3193
0.94 -0.04 1.72 -2.87 17.13 4.28 -0.19 -0.49 3201
0.89 -0.05 3.02 -3.43 17.46 4.28 -0.47 -0.67 3208
0.77 -0.04 3.03 -4.01 17.81 4.28 -0.71 -0.84 3215
0.58 -0.03 2.18 -4.35 19.12 4.28 -0.89 -1.01 3222
0.43 -0.02 0.62 -6.06 23.01 4.28 -0.88 -1.04 3229
0.31 -0.02 -0.16 -5.18 24.66 4.28 -0.84 -0.99 3236
0.21 -0.02 -2.35 -6.26 26.21 4.28 -0.92 -1.01 3243
0.20 -0.02 -4.32 -8.92 29.37 4.28 -1.22 -1.02 3250
0.12 -0.01 -2.77 -10.61 31.25 4.28 -1.91 -0.81 3258
0.10 -0.01 2.45 -9.30 30.42 4.28 -2.23 -0.89 3264
0.07 -0.01 4.09 -6.05 30.30 4.28 -2.45 -0.84 3271
0.01 -0.00 6.51 0.55 26.48 4.28 -2.31 -0.75 3278
0.02 -0.00 8.84 4.96 22.81 4.28 -1.81 -0.75 3286
0.00 0.00 8.99 15.38 21.29 4.28 -1.21 -0.79 3293
0.00 0.00 9.57 41.19 9.97 3.93 -0.87 -0.92 3300
0.00 0.00 9.58 22.25 10.55 2.04 -0.05 -0.73 3307
0.00 0.00 4.53 16.27 28.18 -0.50 0.15 -0.51 3314
0.00 0.00 0.33 14.99 19.26 -2.09 0.04 -0.37 3321
0.00 0.00 -0.52 12.92 12.38 -2.44 -0.51 -0.19 3329
0.00 0.00 0.48 10.34 9.95 -2.48 -1.03 -0.17 3336
0.00 0.00 2.20 8.55 9.15 -2.43 -1.10 -0.16 3343
0.00 0.00 2.81 7.81 7.90 -2.47 -0.87 -0.14 3350
0.00 0.00 3.00 7.95 7.31 -2.66 -0.43 -0.15 3357
0.00 0.00 2.17 7.85 7.72 -2.92 0.09 -0.16 3364
0.00 0.00 0.68 7.66 8.20 -3.30 0.48 -0.15 3372
0.00 0.00 -1.09 7.28 8.62 -3.70 0.73 -0.09 3379
0.00 0.00 -2.22 6.49 9.01 -4.01 0.79 0.00 3386
0.00 0.00 -3.01 5.58 9.40 -4.22 0.68 0.09 3393
0.01 -0.00 -3.05 4.56 9.61 -4.28 0.51 0.19 3400
0.00 -0.00 -2.61 3.50 9.91 -4.28 0.42 0.24 3407
0.00 0.00 -1.98 2.37 10.23 -4.28 0.43 0.24 3415
0.00 0.00 -1.67 1.51 10.50 -4.28 0.56 0.20 3422
0.00 0.00 -1.72 0.87 10.85 -4.28 0.63 0.13 3429
0.00 -0.00 -1.98 0.28 11.29 -4.28 0.69 0.03 3436
0.00 -0.00 -1.91 -0.56 12.29 -4.28 0.74 -0.09 3443
0.00 0.00 -1.66 -1.02 12.67 -4.28 0.86 -0.19 3450
0.00 0.00 -1.73 -1.31 13.47 -4.28 0.92 -0.33 3458
0.00 0.00 -1.57 -1.61 14.35 -4.28 0.97 -0.43 3465
0.00 0.00 -1.81 -1.69 15.14 -4.28 0.98 -0.51 3472
0.00 0.00 -0.72 -2.57 16.28 -4.28 1.02 -0.55 3479
0.00 0.00 -1.04 -2.17 16.27 -4.28 0.96 -0.57 3486
0.00 0.00 -0.01 -3.47 17.00 -4.28 1.06 -0.55 3493
0.00 0.00 0.21 -3.79 17.20 -4.28 1.17 -0.51 3501
0.00 0.00 0.85 -5.02 17.51 -4.28 1.37 -0.47 3508
-0.00 0.00 0.62 -5.83 18.05 -4.28 1.54 -0.41 3515
0.00 0.00 0.81 -6.78 19.11 -4.19 1.74 -0.37 3522
0.00 0.00 1.00 -7.31 20.12 -3.95 1.96 -0.34 3529
0.00 0.00 1.33 -7.88 21.13 -3.76 2.20 -0.32 3536
0.00 0.00 0.92 -8.45 22.39 -3.62 2.50 -0.31 3544
0.00 0.00 0.01 -9.01 23.79 -3.60 2.71 -0.31 3551
0.00 0.00 -0.74 -9.62 25.09 -3.71 2.86 -0.32 3558
0.00 0.00 -2.07 -10.99 24.67 -3.92 2.90 -0.34 3565
0.00 0.00 -3.25 -12.39 24.36 -4.12 2.84 -0.35 3572
0.00 0.00 -5.32 -14.61 23.38 -4.25 2.68 -0.33 3579
0.00 0.00 -7.18 -17.79 21.51 -4.28 2.42 -0.25 3587
0.00 0.00 -8.85 -19.96 18.94 -4.28 2.14 -0.16 3594
0.00 0.00 -10.84 -22.73 16.73 -4.27 1.90 -0.00 3601
0.00 0.00 -12.27 -25.40 14.23 -4.15 1.57 0.17 3609
0.00 0.00 -13.28 -28.89 11.67 -3.71 0.93 0.38 3615
0.00 0.00 -11.50 -36.35 8.44 -3.38 0.25 0.54 3622
0.00 0.00 -9.36 -44.52 3.85 -3.10 -0.29 0.48 3630
0.00 0.00 -8.02 -52.11 -0.01 -2.62 -0.46 0.24 3637
0.00 0.00 -8.14 -52.70 -1.98 -1.71 -0.28 -0.07 3644
0.00 0.00 -9.11 -47.55 -0.94 -0.24 -0.37 -0.39 3651
0.00 0.00 -19.77 -60.03 34.51 2.56 -2.19 -0.65 3659
0.00 0.00 -11.68 -25.28 6.30 4.08 -2.53 -0.78 3665
-0.00 0.04 3.44 5.65 -0.60 4.28 -2.91 -0.97 3673
-0.01 0.12 -0.45 -2.13 24.86 4.28 -2.01 -0.68 3680
-0.01 0.33 3.61 1.25 19.61 3.59 -1.08 -0.21 3688
-0.03 0.53 1.48 -1.39 15.29 3.47 -1.14 -0.07 3695
-0.04 0.67 1.23 -5.60 16.91 3.93 -0.65 0.21 3702
-0.05 0.81 1.46 -3.48 14.27 4.24 -0.11 0.59 3709
-0.05 0.88 -2.93 -4.79 25.17 3.88 0.58 0.82 3717
-0.05 0.95 -3.29 -3.78 17.46 3.11 0.70 0.57 3724
-0.05 0.96 -2.95 -3.74 15.52 2.78 0.43 0.25 3731
-0.06 0.94 -1.36 -2.05 14.01 2.60 0.49 0.05 3738
-0.06 0.93 0.22 -1.88 13.33 2.20 0.68 0.00 3744
-0.06 0.83 1.63 -1.83 13.36 1.86 0.74 0.05 3752
-0.05 0.75 1.50 -1.44 10.89 0.35 -0.09 0.02 3759
-0.03 0.72 0.29 -3.28 12.13 -0.09 -0.06 0.03 3766
-0.03 0.66 -0.13 -1.59 10.21 -0.10 0.02 0.01 3773
-0.03 0.64 0.13 -1.15 9.84 -0.12 0.07 0.01 3780
-0.02 0.64 0.21 -1.21 9.81 -0.14 0.11 0.03 3787
-0.03 0.62 0.30 -1.37 9.81 -0.17 0.13 0.02 3794
-0.03 0.63 0.25 -1.23 9.99 -0.17 0.14 0.02 3802
-0.00 0.68 0.23 -1.06 10.17 -0.15 0.14 0.02 3809
-0.00 0.66 0.29 -0.96 9.93 -0.12 0.15 0.01 3816
-0.02 0.70 0.34 -0.96 9.88 -0.10 0.14 0.01 3823
-0.01 0.70 0.34 -0.88 9.83 -0.09 0.14 0.01 3830
-0.01 0.73 0.29 -0.75 9.79 -0.07 0.13 0.00 3837
0.00 0.74 0.30 -0.75 9.83 -0.05 0.14 0.00 3845
-0.01 0.73 0.30 -0.76 9.81 -0.03 0.13 -0.00 3852
-0.02 0.74 0.30 -0.75 9.80 -0.00 0.13 -0.01 3859
-0.03 0.72 0.36 -0.75 9.90 0.02 0.12 -0.01 3866
-0.01 0.71 0.38 -0.81 9.92 0.05 0.10 -0.01 3873
-0.03 0.70 0.38 -0.82 9.83 0.07 0.07 -0.01 3880
-0.02 0.67 0.34 -0.81 9.83 0.08 0.06 -0.02 3888
-0.01 0.62 0.31 -0.78 9.85 0.10 0.05 -0.02 3895
-0.02 0.62 0.38 -0.82 9.82 0.12 0.05 -0.02 3902
-0.02 0.55 0.39 -0.82 9.81 0.14 0.05 -0.03 3909
-0.02 0.49 0.36 -0.83 9.76 0.15 0.05 -0.03 3916
-0.03 0.47 0.43 -0.86 9.67 0.15 0.05 -0.04 3923
-0.02 0.43 0.43 -0.85 9.70 0.16 0.04 -0.04 3931
-0.00 0.41 0.39 -0.84 9.63 0.15 0.04 -0.04 3938
-0.00 0.34 0.44 -0.85 9.66 0.15 0.04 -0.05 3945
-0.01 0.33 0.42 -0.92 9.64 0.15 0.03 -0.05 3952
-0.02 0.30 0.47 -0.94 9.66 0.14 0.03 -0.05 3959
-0.01 0.27 0.48 -0.99 9.64 0.13 0.01 -0.05 3966
-0.01 0.25 0.47 -0.99 9.67 0.12 0.01 -0.06 3974
0.01 0.23 0.44 -1.03 9.68 0.12 0.00 -0.06 3981
0.00 0.19 0.51 -0.99 9.70 0.11 -0.01 -0.07 3988
0.00 0.19 0.39 -1.11 9.79 0.11 -0.03 -0.07 3995
-0.00 0.16 0.76 -1.03 9.79 0.11 -0.04 -0.07 4002
0.03 0.16 0.31 -0.97 9.77 0.11 -0.05 -0.08 4009
0.05 0.15 0.62 -1.05 9.68 0.12 -0.05 -0.08 4017
0.07 0.11 0.44 -1.08 9.75 0.14 -0.06 -0.08 4024
0.05 0.13 0.20 -0.83 9.63 0.15 -0.06 -0.09 4031
0.05 0.08 0.14 -1.24 9.32 0.16 -0.07 -0.09 4038
0.05 0.10 0.40 -1.04 9.83 0.18 -0.07 -0.09 4045
0.08 0.09 0.27 -1.08 9.81 0.19 -0.08 -0.09 4052
0.09 0.08 0.41 -1.13 9.84 0.21 -0.06 -0.10 4060
0.08 0.06 0.25 -1.09 9.74 0.23 -0.06 -0.09 4067
0.12 0.04 0.34 -1.15 9.91 0.25 -0.05 -0.10 4074
0.14 0.02 0.38 -1.26 9.98 0.27 -0.06 -0.10 4081
0.18 0.01 0.44 -1.24 9.92 0.29 -0.06 -0.12 4088
0.22 0.00 0.32 -1.34 9.93 0.31 -0.06 -0.13 4096
0.27 -0.01 0.41 -1.37 9.91 0.33 -0.07 -0.14 4103
0.23 -0.01 0.63 -1.40 10.32 0.35 -0.07 -0.17 4111
0.25 -0.03 0.85 -1.44 10.25 0.39 -0.09 -0.21 4117
0.29 -0.02 0.89 -1.54 10.41 0.44 -0.09 -0.27 4125
0.30 -0.02 1.18 -1.55 10.59 0.53 -0.10 -0.34 4132
0.39 -0.01 2.43 -1.78 10.56 0.60 -0.02 -0.45 4140
0.40 -0.03 -0.53 -1.75 13.14 0.80 0.22 -0.50 4147
0.43 -0.03 -0.82 -1.78 12.62 1.24 0.09 -0.34 4154
0.50 -0.04 -0.15 -1.73 12.72 1.41 0.08 -0.29 4161
0.52 -0.03 -0.44 -1.60 13.40 1.63 0.05 -0.24 4167
0.53 -0.04 0.06 -1.98 13.72 1.87 0.05 -0.20 4174
0.61 -0.03 -0.51 -1.83 13.81 2.07 0.06 -0.15 4183
0.66 -0.04 0.33 -2.01 13.94 2.37 0.10 -0.12 4190
0.66 -0.04 0.82 -2.21 14.32 2.66 0.14 -0.13 4197
0.70 -0.04 1.15 -2.63 14.43 3.03 0.10 -0.20 4204
0.71 -0.04 1.08 -2.49 15.17 3.38 0.11 -0.21 4211
0.70 -0.04 0.66 -2.27 15.70 3.68 0.16 -0.26 4218
0.73 -0.03 0.96 -2.30 16.90 4.07 0.17 -0.29 4226
0.75 -0.04 1.98 -2.22 17.21 4.27 0.05 -0.36 4233
0.74 -0.04 2.62 -2.35 17.67 4.28 -0.15 -0.49 4240
0.63 -0.04 2.60 -2.09 17.09 4.28 -0.34 -0.61 4247
0.50 -0.03 1.13 -3.69 19.22 4.28 -0.47 -0.75 4254
0.35 -0.01 1.05 -4.85 23.18 4.28 -0.71 -0.78 4261
0.32 -0.01 3.06 -6.03 24.52 4.28 -0.83 -0.76 4269
0.21 -0.02 3.47 -5.40 23.78 4.28 -0.66 -0.94 4275
0.13 -0.01 -5.03 -6.91 27.54 4.28 -0.76 -1.08 4282
0.09 -0.01 -3.24 -9.01 32.22 4.28 -1.71 -0.86 4289
0.05 -0.00 0.46 -9.05 27.80 4.28 -2.16 -0.65 4296
0.03 0.00 4.50 -6.93 29.75 4.28 -2.51 -0.75 4304
0.04 -0.00 7.55 -3.29 30.34 4.28 -2.49 -0.62 4311
0.01 -0.00 9.51 2.63 26.03 4.28 -2.15 -0.58 4318
0.00 0.00 10.03 8.53 21.94 4.28 -1.29 -0.60 4325
0.00 -0.00 10.68 15.56 18.36 4.28 -0.51 -0.73 4333
0.00 0.00 9.70 42.01 11.01 4.27 0.20 -1.08 4339
-0.00 0.00 9.65 21.41 16.99 2.73 1.11 -1.03 4347
0.00 0.00 2.19 18.50 29.09 -0.51 1.21 -0.72 4354
0.00 0.00 -2.02 18.36 18.54 -2.04 0.81 -0.52 4361
0.00 0.00 -2.29 14.38 12.57 -2.56 0.06 -0.38 4368
0.00 0.00 -0.95 10.70 10.22 -2.52 -0.76 -0.37 4375
0.00 0.00 0.64 8.67 8.90 -2.38 -0.92 -0.38 4382
0.00 0.00 2.25 8.04 7.46 -2.28 -0.63 -0.38 4389
0.00 0.00 2.15 7.93 6.80 -2.35 -0.16 -0.37 4397
0.00 0.00 0.93 8.11 7.71 -2.63 0.23 -0.35 4404
0.00 0.00 -0.99 8.35 8.59 -3.12 0.52 -0.29 4411
0.00 0.00 -2.99 8.54 9.56 -3.66 0.56 -0.19 4418
0.00 0.00 -2.80 8.00 10.06 -4.23 0.46 -0.06 4425
0.00 0.00 -2.78 6.60 10.45 -4.28 0.29 0.06 4432
0.00 0.00 -2.28 5.19 10.49 -4.28 0.18 0.15 4440
0.00 0.00 -1.72 3.72 10.38 -4.28 0.12 0.19 4447
0.00 0.00 -1.31 2.51 10.32 -4.28 0.17 0.20 4454
0.00 0.00 -1.06 1.64 10.38 -4.28 0.19 0.17 4461
0.00 0.00 -1.12 1.09 10.97 -4.28 0.25 0.11 4468
0.00 0.00 -0.91 0.38 11.69 -4.28 0.36 0.05 4475
0.00 0.00 -1.13 0.16 12.30 -4.28 0.42 -0.02 4483
0.00 0.00 -1.17 -0.23 13.36 -4.28 0.47 -0.12 4490
0.00 0.00 -1.14 -0.58 13.83 -4.28 0.48 -0.22 4497
0.00 0.00 -0.67 -1.35 15.68 -4.28 0.54 -0.32 4504
0.00 0.00 -0.96 -0.80 15.52 -4.28 0.46 -0.47 4511
0.00 0.00 -0.30 -1.86 17.25 -4.28 0.48 -0.56 4518
0.00 0.00 -0.14 -2.29 17.57 -4.28 0.49 -0.61 4526
0.00 0.00 0.59 -2.91 18.00 -4.28 0.52 -0.64 4533
0.00 0.00 0.85 -3.93 18.43 -4.28 0.63 -0.63 4540
0.00 0.00 1.42 -5.17 19.43 -4.28 0.80 -0.59 4547
-0.00 0.00 2.17 -5.71 20.04 -4.27 0.99 -0.54 4554
0.00 0.00 3.00 -6.38 21.75 -4.14 1.31 -0.45 4561
0.00 0.00 3.51 -7.31 23.48 -4.04 1.64 -0.36 4569
0.00 0.00 3.56 -7.47 24.79 -3.98 2.06 -0.22 4576
0.00 0.00 2.97 -8.72 26.39 -4.02 2.42 -0.06 4583
0.00 0.00 1.82 -9.91 27.12 -4.16 2.59 0.09 4590
0.00 0.00 0.51 -11.40 27.26 -4.26 2.53 0.29 4597
0.00 0.00 -0.26 -13.47 26.69 -4.28 2.34 0.49 4604
0.00 0.00 -0.98 -15.78 25.05 -4.28 2.05 0.68 4612
0.00 0.00 -1.34 -19.80 22.61 -4.28 1.82 0.88 4619
0.00 0.00 -1.52 -22.93 19.06 -4.28 1.66 0.96 4626
0.00 0.00 -3.06 -26.48 16.51 -4.28 1.72 1.04 4633
0.00 0.00 -4.98 -30.17 13.86 -4.16 1.88 1.14 4640
0.00 0.00 -7.42 -36.63 11.33 -3.67 1.67 1.21 4647
0.00 0.00 -8.82 -47.16 6.56 -3.38 1.24 1.17 4655
0.00 0.00 -10.12 -56.12 1.49 -3.01 0.88 1.01 4662
0.00 0.00 -11.79 -60.37 -0.96 -2.04 0.60 0.81 4669
0.00 0.00 -12.28 -55.11 -1.29 -0.71 0.04 0.49 4676
0.00 -0.00 -10.74 -46.73 -7.05 0.88 -0.76 0.17 4683
0.00 0.00 -7.16 -50.12 10.07 3.71 -2.42 -0.35 4690
0.00 0.00 -2.77 0.53 4.87 4.28 -2.23 -0.65 4698
-0.01 0.06 0.11 7.81 8.89 4.27 -2.16 -0.63 4705
-0.02 0.18 3.78 0.97 23.58 3.90 -1.08 -0.21 4712
-0.03 0.52 3.38 -0.24 13.12 3.45 -0.73 0.14 4720
-0.03 0.70 -0.96 -4.58 16.58 4.17 -0.77 0.24 4727
-0.05 0.84 2.54 -3.95 15.36 4.28 -0.21 0.58 4734
-0.05 0.91 -0.44 -4.94 22.06 4.28 0.52 0.96 4742
-0.07 1.03 -4.42 -5.38 21.81 3.63 0.89 0.85 4749
-0.06 1.07 -4.77 -4.81 17.28 3.36 0.53 0.25 4756
-0.06 1.08 -1.89 -3.03 16.27 3.01 0.22 -0.11 4763
-0.05 1.06 1.10 -1.97 14.79 2.52 0.57 -0.18 4770
-0.05 0.99 2.58 -2.22 20.75 2.08 0.60 -0.05 4777
-0.05 0.84 2.84 -0.91 10.95 0.22 -0.26 0.02 4785
-0.05 0.77 0.02 -3.54 12.32 -0.06 -0.17 0.01 4791
-0.02 0.74 -0.23 -1.57 10.40 -0.04 -0.09 -0.03 4799
-0.02 0.69 0.40 -1.45 10.18 -0.05 -0.03 -0.00 4805
-0.01 0.66 0.21 -1.02 9.81 -0.05 -0.03 0.01 4812
-0.00 0.63 0.23 -1.19 9.67 -0.07 0.00 0.00 4819
0.02 0.64 0.24 -1.29 9.97 -0.08 0.03 0.00 4827
0.00 0.65 0.19 -1.08 10.07 -0.08 0.05 0.00 4834
0.00 0.66 0.20 -0.93 9.85 -0.05 0.07 0.00 4841
0.03 0.66 0.26 -0.93 9.92 -0.04 0.08 -0.00 4848
0.03 0.65 0.24 -0.82 9.82 -0.01 0.08 -0.00 4855
0.02 0.65 0.31 -0.83 9.81 0.02 0.07 -0.00 4862
0.03 0.59 0.33 -0.83 9.80 0.04 0.06 -0.01 4870
0.02 0.58 0.28 -0.82 9.82 0.05 0.04 -0.01 4877
0.02 0.59 0.30 -0.82 9.84 0.07 0.03 -0.01 4884
0.05 0.55 0.31 -0.81 9.86 0.10 0.02 -0.01 4891
0.04 0.49 0.27 -0.80 9.83 0.13 0.02 -0.02 4898
0.06 0.46 0.23 -0.83 9.89 0.15 0.02 -0.02 4905
0.05 0.40 0.25 -0.91 9.87 0.16 0.02 -0.03 4913
0.06 0.40 0.29 -0.88 9.87 0.18 0.02 -0.03 4920
0.06 0.34 0.33 -0.87 9.82 0.20 0.01 -0.04 4927
0.08 0.34 0.34 -0.92 9.78 0.21 0.01 -0.05 4934
0.06 0.29 0.30 -0.97 9.78 0.22 0.01 -0.05 4941
0.06 0.23 0.29 -0.99 9.74 0.23 0.01 -0.05 4948
0.04 0.20 0.31 -1.06 9.76 0.24 0.02 -0.06 4956
0.06 0.16 0.36 -1.04 9.76 0.25 0.01 -0.07 4963
0.06 0.13 0.39 -1.05 9.68 0.25 0.01 -0.07 4970
0.08 0.09 0.33 -1.17 9.56 0.24 -0.00 -0.07 4977
0.07 0.07 0.43 -1.20 9.64 0.22 -0.01 -0.08 4984
0.09 0.05 0.40 -1.13 9.59 0.21 -0.02 -0.08 4992
0.08 0.06 0.44 -1.16 9.69 0.21 -0.04 -0.09 4999
0.09 0.06 0.40 -1.20 9.72 0.20 -0.05 -0.10 5006
0.17 0.04 0.36 -1.26 9.59 0.20 -0.06 -0.11 5013
0.15 0.03 0.48 -1.32 9.68 0.18 -0.07 -0.10 5020
0.18 0.03 0.35 -1.33 9.80 0.18 -0.06 -0.11 5027
0.14 0.03 0.39 -1.40 10.38 0.18 -0.07 -0.11 5036
0.21 0.03 0.26 -1.27 9.73 0.17 -0.07 -0.12 5042
0.22 0.02 0.17 -1.40 9.87 0.17 -0.07 -0.13 5049
0.23 0.02 0.13 -1.24 9.84 0.17 -0.08 -0.13 5056
0.24 0.00 0.38 -1.30 9.83 0.17 -0.08 -0.13 5063
0.27 -0.02 0.30 -1.39 9.80 0.19 -0.08 -0.14 5070
0.26 -0.02 0.39 -1.41 9.86 0.20 -0.07 -0.14 5078
0.29 -0.02 0.34 -1.47 9.94 0.23 -0.06 -0.16 5085
0.28 -0.01 0.37 -1.49 10.01 0.25 -0.05 -0.18 5093
0.32 -0.03 0.55 -1.54 10.21 0.28 -0.05 -0.20 5100
0.34 -0.02 0.76 -1.48 10.46 0.32 -0.05 -0.26 5107
0.37 -0.03 0.98 -1.54 10.61 0.39 -0.07 -0.29 5114
0.38 -0.03 1.16 -1.83 10.83 0.46 -0.01 -0.35 5122
0.41 -0.02 0.57 -1.87 11.69 0.63 0.10 -0.40 5128
0.44 -0.02 -0.38 -1.73 11.68 0.93 0.07 -0.35 5136
0.56 -0.03 0.31 -2.39 11.61 1.07 0.05 -0.33 5143
0.55 -0.03 0.04 -1.76 11.68 1.22 0.04 -0.31 5150
0.62 -0.04 -0.41 -1.64 12.01 1.35 0.02 -0.28 5157
0.62 -0.04 -0.65 -1.83 12.40 1.50 0.02 -0.23 5165
0.67 -0.04 -0.41 -1.87 12.88 1.70 0.00 -0.15 5172
0.72 -0.02 0.14 -2.16 13.06 1.90 -0.00 -0.11 5178
0.74 -0.04 0.48 -2.28 13.49 2.17 0.00 -0.12 5185
0.77 -0.04 0.29 -2.45 13.64 2.42 0.02 -0.13 5193
0.79 -0.05 -0.05 -2.45 14.32 2.72 0.04 -0.13 5200
0.82 -0.03 0.25 -2.47 14.61 3.05 0.08 -0.12 5208
0.81 -0.03 1.03 -2.50 15.15 3.34 0.10 -0.15 5215
0.83 -0.03 1.65 -2.50 15.13 3.73 0.17 -0.22 5222
0.82 -0.04 1.74 -2.68 14.61 4.08 0.30 -0.35 5229
0.82 -0.04 0.89 -2.48 16.41 4.28 0.44 -0.44 5236
0.82 -0.04 1.90 -2.26 17.66 4.28 0.36 -0.52 5243
0.69 -0.03 1.68 -3.13 18.34 4.28 0.05 -0.64 5251
0.58 -0.02 1.19 -4.37 18.92 4.28 -0.18 -0.75 5258
0.38 -0.02 0.78 -6.05 22.89 4.28 -0.41 -0.76 5265
0.29 -0.02 1.77 -7.23 24.76 4.28 -0.44 -0.64 5272
0.17 -0.02 1.07 -7.24 24.89 4.28 -0.40 -0.75 5278
0.11 -0.01 -5.53 -7.54 29.06 4.28 -0.40 -0.86 5285
0.07 -0.01 -4.54 -8.84 32.17 4.28 -1.16 -0.59 5293
0.07 -0.00 -0.90 -8.08 27.91 4.28 -2.04 -0.41 5301
0.06 -0.01 2.66 -7.28 30.32 4.28 -2.49 -0.46 5307
0.02 -0.00 6.28 -2.93 29.89 4.28 -2.78 -0.38 5314
0.00 -0.00 7.48 3.37 25.86 4.28 -2.62 -0.32 5321
0.00 -0.00 8.93 7.98 23.94 4.28 -2.21 -0.30 5328
0.03 -0.00 10.10 13.45 22.77 4.28 -1.56 -0.38 5337
0.00 0.00 9.99 33.21 15.46 4.28 -0.90 -0.59 5343
0.00 0.00 12.52 22.82 1.41 3.85 0.25 -0.66 5350
0.00 0.00 6.43 19.89 25.72 1.14 0.97 -0.40 5357
0.00 0.00 0.39 18.39 21.42 -1.55 0.91 -0.27 5364
0.00 0.00 -2.33 14.80 16.28 -2.79 0.12 -0.12 5371
0.00 0.00 -1.70 11.21 13.72 -3.14 -0.81 -0.10 5379
0.00 0.00 0.47 9.14 11.06 -3.17 -1.44 -0.18 5386
0.00 0.00 2.53 7.63 8.88 -3.18 -1.38 -0.28 5393
0.00 0.00 3.72 7.00 7.45 -3.29 -1.06 -0.38 5400
0.00 0.00 3.80 6.71 7.47 -3.48 -0.55 -0.50 5407
0.00 0.00 3.29 6.51 8.03 -3.77 -0.03 -0.62 5414
0.00 0.00 1.79 6.25 8.41 -4.16 0.52 -0.68 5422
0.01 -0.00 -0.38 5.60 8.77 -4.28 0.81 -0.69 5429
0.00 0.00 -1.80 4.81 9.36 -4.28 0.81 -0.61 5436
0.00 0.00 -2.37 3.42 9.81 -4.28 0.58 -0.54 5443
0.00 0.00 -2.25 2.64 9.76 -4.28 0.31 -0.46 5450
0.00 0.00 -1.58 1.96 9.95 -4.28 0.14 -0.41 5457
0.00 0.00 -0.74 1.19 10.24 -4.28 0.11 -0.37 5465
0.02 -0.00 -0.60 1.03 10.67 -4.28 0.17 -0.35 5472
0.00 0.00 -0.09 0.54 11.33 -4.28 0.42 -0.33 5479
0.00 0.00 -0.45 0.57 11.87 -4.28 0.63 -0.33 5486
0.00 0.00 -1.07 0.29 12.49 -4.28 0.76 -0.36 5493
0.00 0.00 -0.44 -0.60 13.49 -4.28 0.93 -0.40 5500
0.00 0.00 -1.89 -0.52 14.84 -4.28 0.95 -0.49 5508
0.00 0.00 -0.47 -1.47 14.85 -4.28 1.04 -0.61 5515
0.00 0.00 -1.63 -1.24 16.47 -4.28 0.99 -0.76 5522
0.00 0.00 -1.21 -2.36 17.31 -4.28 1.01 -0.85 5529
0.00 0.00 -1.38 -2.00 18.05 -4.28 0.96 -0.91 5536
0.00 0.00 -0.74 -2.69 18.72 -4.28 1.04 -0.95 5543
0.00 0.00 -0.92 -2.98 20.06 -4.28 1.12 -0.91 5551
0.00 0.00 -0.57 -3.56 21.52 -4.28 1.26 -0.85 5558
0.00 0.00 -0.72 -4.04 23.05 -4.28 1.38 -0.80 5565
0.00 0.00 -0.93 -5.23 24.39 -4.28 1.54 -0.76 5572
0.00 0.00 -1.11 -6.64 25.66 -4.28 1.68 -0.74 5579
0.00 0.00 -1.49 -8.17 26.68 -4.28 1.85 -0.72 5586
0.00 0.00 -2.27 -10.26 27.72 -4.28 2.03 -0.66 5594
0.00 0.00 -3.39 -12.95 28.01 -4.28 2.18 -0.51 5601
0.00 0.00 -4.46 -16.81 27.83 -4.28 2.24 -0.30 5608
0.00 0.00 -4.05 -26.07 32.40 -4.28 1.88 0.03 5615
0.00 0.00 -5.19 -22.24 18.00 -4.28 1.55 0.29 5622
-0.00 0.00 -4.72 -25.76 17.51 -4.28 1.22 0.64 5630
0.00 -0.00 -3.67 -32.21 20.91 -4.28 1.18 1.04 5638
0.00 0.00 -4.27 -36.56 14.68 -4.26 1.48 1.41 5644
0.00 0.00 -6.54 -46.72 7.27 -3.80 1.45 1.74 5651
0.00 0.00 -7.98 -56.55 0.39 -3.12 1.34 1.84 5658
0.00 0.00 -10.84 -63.09 -2.00 -2.12 1.21 1.78 5665
0.00 0.00 -11.61 -72.26 13.58 -0.02 0.52 1.55 5672
0.00 -0.00 -11.65 -67.61 -6.52 2.49 -0.28 1.23 5681
0.00 0.00 -8.56 -45.33 -1.75 4.26 -1.07 0.30 5687
-0.00 0.03 -5.93 9.78 6.83 4.28 -1.56 -0.27 5694
-0.01 0.13 -0.76 -1.27 22.41 4.28 -1.27 -0.51 5701
-0.03 0.42 1.80 1.23 22.05 4.22 -1.07 -0.46 5709
-0.03 0.56 0.74 -2.92 17.67 3.99 -0.93 -0.35 5716
-0.03 0.74 1.25 -6.63 16.67 4.27 -0.35 -0.09 5724
-0.03 0.83 1.60 -5.06 19.64 4.28 0.03 0.32 5731
-0.05 0.91 -0.63 -4.74 25.07 4.11 0.76 0.51 5738
-0.05 0.93 -2.77 -4.35 18.57 3.29 0.39 0.29 5745
-0.05 0.89 -1.30 -3.17 15.10 2.80 0.32 0.06 5752
-0.04 0.90 0.26 -2.06 13.07 2.46 0.79 0.11 5758
-0.04 0.83 0.28 -4.15 15.98 0.91 -0.07 0.07 5767
-0.05 0.70 0.61 -2.50 12.43 -0.09 -0.05 0.04 5773
-0.02 0.62 -0.14 -2.62 10.82 -0.09 -0.01 -0.01 5781
-0.02 0.63 0.55 -1.83 10.53 -0.10 0.04 0.01 5787
0.01 0.62 0.19 -1.24 9.90 -0.10 0.05 0.01 5794
0.05 0.60 0.05 -1.26 9.74 -0.10 0.08 0.02 5801
0.03 0.63 0.33 -1.17 9.82 -0.13 0.11 0.03 5809
0.07 0.62 0.31 -1.15 10.10 -0.15 0.12 0.03 5817
0.04 0.63 0.25 -1.03 9.98 -0.13 0.13 0.02 5823
0.04 0.64 0.23 -0.86 9.90 -0.10 0.14 0.02 5830
0.04 0.67 0.24 -0.85 9.88 -0.08 0.16 0.02 5837
0.06 0.69 0.25 -0.84 9.84 -0.06 0.16 0.01 5844
0.05 0.70 0.31 -0.74 9.84 -0.04 0.17 0.01 5852
0.03 0.67 0.35 -0.77 9.80 -0.01 0.17 0.01 5859
0.01 0.67 0.42 -0.75 9.83 0.01 0.15 0.01 5866
0.01 0.65 0.50 -0.74 9.81 0.03 0.13 0.01 5873
0.02 0.62 0.47 -0.75 9.83 0.04 0.10 -0.03 5880
0.04 0.58 0.44 -0.79 9.80 0.06 0.08 -0.01 5888
0.04 0.57 0.42 -0.76 9.82 0.07 0.08 -0.02 5895
0.02 0.53 0.37 -0.81 9.87 0.09 0.07 -0.02 5902
0.01 0.51 0.40 -0.84 9.85 0.11 0.07 -0.02 5909
-0.00 0.44 0.41 -0.78 9.81 0.12 0.06 -0.03 5916
0.00 0.44 0.43 -0.88 9.80 0.13 0.06 -0.03 5923
0.01 0.42 0.43 -0.81 9.75 0.13 0.07 -0.04 5931
0.01 0.37 0.42 -0.83 9.69 0.13 0.06 -0.04 5938
0.01 0.37 0.41 -0.80 9.71 0.14 0.07 -0.04 5945
-0.01 0.31 0.40 -0.86 9.74 0.14 0.07 -0.04 5952
-0.00 0.27 0.45 -0.87 9.67 0.15 0.07 -0.04 5959
0.02 0.27 0.50 -0.85 9.68 0.15 0.07 -0.05 5966
0.02 0.22 0.48 -0.94 9.76 0.15 0.07 -0.05 5974
0.02 0.17 0.55 -0.96 9.70 0.15 0.06 -0.05 5981
0.02 0.12 0.57 -0.99 9.62 0.14 0.05 -0.05 5988
0.02 0.11 0.57 -0.97 9.66 0.13 0.04 -0.05 5995
0.02 0.12 0.49 -1.09 9.62 0.12 0.04 -0.06 6002
0.03 0.10 0.62 -0.85 9.58 0.12 0.03 -0.07 6009
0.02 0.11 0.47 -1.18 9.67 0.11 0.03 -0.07 6017
0.04 0.09 0.40 -1.16 9.76 0.12 0.00 -0.08 6024
0.02 0.10 0.49 -1.01 9.64 0.13 0.04 -0.09 6031
0.02 0.10 0.54 -1.10 9.77 0.14 0.04 -0.09 6038
0.03 0.07 0.39 -1.13 9.74 0.16 0.05 -0.09 6045
0.04 0.07 0.52 -1.22 9.93 0.18 0.07 -0.10 6052
0.04 0.04 0.51 -1.20 9.67 0.20 0.07 -0.10 6060
0.02 0.04 0.55 -1.00 9.66 0.21 0.09 -0.11 6067
0.05 0.03 0.48 -1.12 9.81 0.22 0.09 -0.11 6074
0.08 0.02 0.50 -1.20 9.82 0.24 0.10 -0.11 6081
0.08 0.03 0.57 -1.18 9.94 0.27 0.10 -0.11 6088
0.13 0.01 0.53 -1.29 10.06 0.29 0.08 -0.12 6095
0.11 0.00 0.70 -1.29 9.93 0.30 0.07 -0.13 6103
0.15 -0.01 0.65 -1.33 10.01 0.31 0.05 -0.13 6110
0.12 -0.01 0.64 -1.28 10.17 0.32 0.05 -0.15 6117
0.11 -0.01 0.85 -1.29 10.08 0.33 0.04 -0.17 6124
0.19 -0.01 1.18 -1.37 10.29 0.36 0.07 -0.21 6132
0.17 -0.01 1.72 -1.34 10.56 0.41 0.17 -0.28 6139
0.17 -0.01 1.06 -1.60 11.47 0.55 0.33 -0.38 6147
0.17 -0.02 0.26 -1.59 11.92 0.79 0.48 -0.37 6153
0.20 -0.02 0.51 -1.90 11.86 1.10 0.50 -0.33 6160
0.22 -0.01 1.18 -1.77 12.30 1.32 0.48 -0.33 6168
0.26 -0.02 0.11 -1.80 12.41 1.45 0.44 -0.33 6175
0.28 -0.02 0.35 -1.82 12.91 1.66 0.33 -0.27 6182
0.30 -0.03 0.48 -1.99 13.10 1.85 0.34 -0.24 6189
0.32 -0.03 0.12 -1.93 13.83 2.07 0.31 -0.22 6197
0.35 -0.02 0.13 -1.83 13.83 2.33 0.24 -0.16 6204
0.40 -0.02 0.72 -2.55 14.75 2.59 0.22 -0.13 6211
0.44 -0.03 1.50 -2.45 14.01 2.93 0.28 -0.14 6218
0.46 -0.03 1.80 -2.27 14.70 3.23 0.33 -0.18 6225
0.47 -0.03 1.60 -2.16 15.00 3.60 0.38 -0.25 6233
0.47 -0.03 1.19 -2.16 15.72 3.98 0.42 -0.29 6240
0.46 -0.02 0.69 -3.31 16.40 4.24 0.39 -0.30 6247
0.44 -0.02 1.35 -2.19 16.78 4.28 0.36 -0.32 6254
0.44 -0.02 2.40 -3.08 17.12 4.28 0.36 -0.39 6261
0.37 -0.02 3.65 -4.87 17.94 4.28 0.37 -0.51 6268
0.29 -0.03 3.68 -4.07 21.24 4.28 0.34 -0.67 6275
0.18 -0.01 0.94 -5.36 25.17 4.28 0.11 -0.74 6283
0.11 -0.01 0.20 -6.41 24.13 4.28 -0.21 -0.76 6289
0.08 -0.01 0.90 -9.43 23.58 4.28 -0.58 -0.79 6296
0.09 -0.01 2.04 -7.93 28.49 4.28 -0.42 -0.71 6303
0.05 -0.01 -0.64 -9.57 32.32 4.28 -0.56 -0.71 6310
0.04 -0.00 0.55 -5.89 28.52 4.28 -1.64 -0.67 6318
0.01 -0.00 5.30 -5.97 30.72 4.28 -2.19 -0.60 6325
0.04 -0.00 8.47 -2.43 29.53 4.28 -2.25 -0.55 6332
0.02 -0.00 9.05 5.01 24.39 4.28 -1.83 -0.50 6339
0.02 -0.00 8.46 10.48 23.26 4.28 -1.07 -0.52 6347
0.00 0.00 8.29 23.51 18.74 4.28 -0.48 -0.68 6353
0.00 0.00 6.79 37.99 0.65 4.08 -0.08 -1.04 6361
0.00 0.00 7.58 22.81 25.12 1.38 0.22 -0.67 6368
0.00 0.00 1.53 19.68 24.75 -1.20 0.41 -0.45 6375
0.00 0.00 -0.95 18.17 18.04 -2.50 0.11 -0.34 6382
0.00 0.00 -1.23 14.32 12.86 -2.85 -0.67 -0.32 6389
0.00 0.00 -0.04 10.86 10.45 -2.83 -1.16 -0.42 6396
0.00 0.00 1.40 9.25 10.10 -2.84 -1.22 -0.57 6404
0.00 0.00 2.49 8.90 8.84 -2.96 -1.02 -0.74 6411
0.00 0.00 2.62 8.84 8.48 -3.28 -0.56 -0.87 6418
0.00 0.00 1.88 8.40 9.21 -3.68 -0.06 -0.99 6425
0.00 0.00 0.40 7.63 9.50 -4.17 0.27 -1.02 6432
0.00 0.00 -1.47 6.90 10.14 -4.28 0.42 -0.95 6439
0.00 0.00 -2.17 5.68 10.61 -4.28 0.36 -0.81 6447
0.00 0.00 -2.33 4.57 10.76 -4.28 0.14 -0.66 6454
0.00 0.00 -1.99 3.26 10.87 -4.28 -0.09 -0.49 6461
0.00 0.00 -1.48 2.30 11.07 -4.28 -0.24 -0.34 6468
0.00 0.00 -0.76 1.42 11.04 -4.28 -0.33 -0.28 6475
0.00 0.00 -0.13 0.53 11.75 -4.28 -0.25 -0.23 6482
0.00 0.00 0.02 0.15 11.80 -4.28 -0.11 -0.21 6490
0.00 0.00 -0.14 -0.35 13.29 -4.28 0.09 -0.20 6497
0.00 0.00 -0.23 -0.06 13.22 -4.28 0.32 -0.19 6504
0.00 0.00 0.50 -1.67 15.52 -4.28 0.56 -0.17 6511
0.00 0.00 -1.83 -0.27 14.91 -4.28 0.41 -0.27 6518
0.00 0.00 0.03 -2.20 16.53 -4.28 0.51 -0.31 6525
0.00 0.00 -1.52 -1.27 17.18 -4.28 0.32 -0.35 6533
0.00 0.00 0.00 -2.71 18.40 -4.28 0.29 -0.39 6540
0.00 0.00 0.01 -2.26 18.25 -4.28 0.19 -0.43 6547
0.00 0.00 1.50 -3.57 19.12 -4.28 0.28 -0.47 6554
0.00 0.00 1.29 -4.01 20.13 -4.28 0.38 -0.49 6561
0.00 0.00 2.41 -5.26 20.64 -4.28 0.67 -0.49 6568
0.00 0.00 2.11 -6.01 21.70 -4.28 0.91 -0.48 6576
0.00 0.00 1.70 -7.28 22.72 -4.23 1.16 -0.47 6583
0.00 0.00 1.37 -8.82 24.12 -4.07 1.35 -0.47 6590
0.00 0.00 1.23 -10.16 25.98 -3.81 1.53 -0.49 6597
0.00 0.00 0.94 -11.22 27.45 -3.75 1.75 -0.47 6604
0.00 0.00 0.47 -12.32 28.24 -3.98 1.93 -0.40 6611
0.00 0.00 0.20 -14.40 27.87 -4.27 2.01 -0.26 6619
0.00 0.00 -0.26 -17.74 25.54 -4.28 2.01 -0.04 6626
0.00 0.00 -1.26 -22.50 23.42 -4.28 1.88 0.14 6633
0.00 0.00 -3.08 -25.65 18.99 -4.28 1.67 0.36 6640
0.00 0.00 -3.37 -29.18 12.57 -4.28 1.76 0.65 6647
0.00 0.00 -6.10 -34.37 12.55 -4.24 1.77 0.85 6654
0.00 0.00 -8.89 -42.42 8.99 -3.54 1.53 1.03 6662
0.00 0.00 -10.29 -51.69 3.55 -3.05 1.11 0.99 6669
0.00 0.00 -12.81 -58.32 0.94 -2.47 0.66 0.85 6676
0.00 0.00 -14.73 -59.64 -0.96 -1.57 0.08 0.61 6683
0.00 0.00 -12.97 -56.80 -11.59 -0.08 -0.69 0.24 6690
0.00 0.00 -11.11 -57.28 2.69 2.99 -2.26 -0.34 6697
0.00 0.00 -2.67 -20.52 6.69 4.27 -2.07 -0.89 6705
-0.01 0.06 -1.75 7.36 4.93 4.28 -1.82 -0.92 6712
-0.01 0.15 4.55 -0.82 22.32 4.28 -0.83 -0.59 6719
-0.03 0.44 5.64 -0.26 17.25 3.87 -0.42 -0.16 6727
-0.04 0.63 2.22 -3.17 18.18 4.21 -0.23 0.10 6734
-0.04 0.78 3.55 -4.91 15.33 4.28 0.27 0.58 6742
-0.05 0.87 0.47 -5.25 23.06 4.28 0.64 0.95 6749
-0.05 0.98 -4.28 -5.69 24.84 3.88 0.99 0.88 6756
-0.06 1.01 -4.66 -4.12 16.76 3.33 0.63 0.29 6763
-0.05 0.95 -2.00 -3.43 16.24 2.98 0.41 -0.10 6770
-0.05 0.85 1.65 -2.10 14.84 2.55 0.66 -0.16 6777
-0.04 0.77 2.26 -3.71 20.23 1.41 0.09 0.02 6785
-0.04 0.69 1.99 -1.86 11.60 0.22 -0.19 0.12 6792
-0.01 0.62 -0.14 -3.06 11.37 0.09 -0.16 0.09 6799
-0.01 0.58 -0.05 -1.63 10.19 -0.01 -0.07 0.03 6805
-0.00 0.52 0.25 -1.28 9.82 -0.04 -0.00 0.01 6812
-0.00 0.55 0.48 -0.63 9.85 -0.08 0.03 0.04 6819
0.00 0.56 0.31 -1.24 9.75 -0.12 0.06 0.03 6827
0.01 0.56 0.37 -1.19 10.04 -0.13 0.13 0.02 6834
0.02 0.57 0.41 -0.98 10.05 -0.12 0.11 0.02 6841
0.00 0.60 0.30 -0.91 9.83 -0.09 0.12 0.01 6848
0.01 0.62 0.40 -0.86 9.82 -0.08 0.14 0.01 6855
-0.01 0.65 0.43 -0.81 9.81 -0.08 0.15 0.01 6862
-0.00 0.66 0.39 -0.77 9.81 -0.06 0.15 0.00 6870
0.01 0.65 0.46 -0.76 9.82 -0.05 0.15 0.00 6877
0.01 0.63 0.42 -0.71 9.81 -0.04 0.16 0.00 6884
0.00 0.65 0.46 -0.68 9.83 -0.03 0.16 -0.00 6891
0.01 0.63 0.51 -0.69 9.89 -0.01 0.15 -0.01 6898
0.02 0.65 0.57 -0.73 9.83 0.02 0.12 -0.01 6905
0.02 0.62 0.60 -0.76 9.85 0.04 0.08 -0.02 6913
0.04 0.61 0.56 -0.80 9.82 0.06 0.06 -0.02 6920
-0.01 0.59 0.52 -0.78 9.80 0.06 0.05 -0.02 6927
0.01 0.57 0.49 -0.81 9.81 0.07 0.04 -0.02 6934
0.02 0.52 0.52 -0.83 9.75 0.08 0.05 -0.03 6941
0.02 0.49 0.51 -0.79 9.78 0.09 0.05 -0.03 6948
0.00 0.49 0.54 -0.78 9.72 0.10 0.06 -0.03 6956
0.02 0.46 0.57 -0.79 9.73 0.10 0.06 -0.04 6963
0.02 0.45 0.55 -0.78 9.62 0.11 0.06 -0.04 6970
0.01 0.40 0.61 -0.74 9.61 0.11 0.06 -0.05 6977
0.01 0.37 0.62 -0.77 9.71 0.12 0.05 -0.05 6984
0.01 0.34 0.61 -0.85 9.70 0.12 0.04 -0.05 6991
0.01 0.36 0.62 -0.85 9.69 0.12 0.04 -0.05 6999
0.04 0.32 0.60 -0.89 9.68 0.12 0.03 -0.06 7006
0.03 0.26 0.63 -0.93 9.70 0.11 0.02 -0.06 7013
0.04 0.32 0.62 -0.85 9.64 0.11 0.02 -0.06 7020
0.02 0.26 0.67 -0.90 9.82 0.11 -0.01 -0.07 7027
0.02 0.23 0.50 -1.02 9.92 0.11 -0.01 -0.07 7034
0.04 0.20 0.76 -0.81 9.58 0.11 -0.03 -0.08 7042
0.03 0.20 0.70 -0.97 9.65 0.14 -0.06 -0.08 7049
0.02 0.18 1.13 -0.99 9.70 0.15 -0.10 -0.09 7056
0.03 0.15 0.66 -0.93 9.72 0.18 -0.08 -0.09 7063
0.02 0.11 0.65 -0.79 9.86 0.23 -0.09 -0.09 7070
0.05 0.10 0.35 -1.01 9.82 0.21 -0.10 -0.10 7077
0.04 0.09 0.53 -1.01 9.80 0.23 -0.10 -0.10 7085
0.07 0.08 0.50 -1.03 9.82 0.25 -0.09 -0.10 7092
0.07 0.07 0.47 -1.04 9.99 0.28 -0.09 -0.11 7099
0.09 0.03 0.54 -1.13 9.87 0.30 -0.10 -0.11 7106
0.13 0.01 0.43 -1.18 9.93 0.32 -0.09 -0.12 7113
0.15 0.02 0.61 -1.19 9.90 0.33 -0.09 -0.13 7120
0.23 0.02 0.53 -1.25 9.92 0.34 -0.09 -0.14 7128
0.21 -0.00 0.61 -1.31 9.90 0.36 -0.08 -0.15 7135
0.23 -0.02 0.51 -1.39 10.02 0.38 -0.07 -0.17 7143
0.18 -0.02 0.64 -1.46 10.37 0.40 -0.06 -0.19 7149
0.23 -0.02 0.93 -1.57 10.44 0.46 -0.06 -0.23 7156
0.28 -0.01 1.54 -1.61 10.70 0.53 -0.01 -0.29 7164
0.33 -0.02 1.59 -1.69 12.00 0.66 0.16 -0.40 7172
0.40 -0.03 -0.77 -1.72 13.17 1.08 0.34 -0.35 7179
0.40 -0.04 0.23 -1.59 12.75 1.37 0.29 -0.28 7185
0.42 -0.03 0.04 -1.77 13.27 1.59 0.29 -0.25 7193
0.45 -0.03 0.44 -1.87 13.73 1.86 0.26 -0.21 7200
0.50 -0.03 0.44 -1.32 13.96 2.09 0.27 -0.17 7207
0.53 -0.03 0.06 -1.81 14.39 2.38 0.27 -0.16 7215
0.54 -0.02 0.78 -2.15 14.76 2.67 0.24 -0.15 7222
0.57 -0.04 1.33 -2.01 15.10 3.05 0.24 -0.17 7229
0.57 -0.03 1.37 -2.23 15.29 3.45 0.26 -0.22 7236
0.63 -0.03 1.76 -2.36 15.95 3.79 0.27 -0.28 7243
0.67 -0.03 0.77 -2.00 16.53 4.16 0.32 -0.32 7250
0.65 -0.03 1.48 -2.04 17.69 4.28 0.28 -0.33 7258
0.63 -0.03 2.03 -2.11 17.24 4.28 0.15 -0.39 7265
0.62 -0.04 3.34 -3.06 16.77 4.28 0.06 -0.55 7272
0.52 -0.03 2.35 -2.34 18.36 4.28 0.02 -0.73 7279
0.39 -0.02 2.21 -4.05 21.37 4.28 -0.19 -0.83 7286
0.31 -0.02 0.39 -5.55 28.80 4.28 -0.67 -0.82 7293
0.19 -0.02 2.35 -5.67 21.84 4.28 -0.94 -0.75 7300
0.11 -0.01 -0.01 -7.30 24.47 4.28 -0.81 -0.91 7307
0.08 -0.01 -3.06 -8.93 32.87 4.28 -1.20 -0.95 7314
0.05 -0.00 -2.04 -10.99 31.52 4.28 -2.17 -0.76 7322
0.05 0.00 2.61 -6.91 28.66 4.28 -3.02 -0.82 7328
0.06 -0.01 5.64 -4.34 28.96 4.28 -3.33 -0.71 7335
0.03 -0.00 7.90 0.48 28.83 4.28 -3.32 -0.54 7343
0.02 -0.00 11.47 5.02 28.92 4.28 -2.70 -0.45 7350
0.00 -0.00 11.35 10.15 27.49 4.28 -2.05 -0.48 7358
0.00 0.00 9.50 25.91 20.90 4.28 -1.15 -0.56 7364
0.00 0.00 9.45 32.56 -7.36 4.01 -0.26 -0.75 7371
0.00 0.00 8.39 24.95 19.97 1.16 0.40 -0.59 7378
0.00 0.00 2.40 16.79 23.50 -1.50 0.48 -0.48 7386
0.00 0.00 -1.50 14.42 18.63 -2.85 0.24 -0.42 7393
0.00 0.00 -1.67 11.67 13.06 -3.18 -0.50 -0.38 7400
0.00 0.00 -0.02 9.78 9.95 -3.13 -1.01 -0.46 7407
-0.00 0.00 1.51 7.93 8.31 -3.05 -1.05 -0.53 7414
0.00 0.00 2.41 7.02 7.48 -3.07 -0.79 -0.60 7421
0.00 0.00 2.33 6.99 7.08 -3.22 -0.46 -0.66 7429
0.00 0.00 1.94 6.84 7.72 -3.50 -0.00 -0.72 7436
0.00 0.00 0.79 6.82 8.44 -3.85 0.37 -0.73 7443
0.00 0.00 -0.64 6.74 8.98 -4.22 0.64 -0.68 7450
0.00 0.00 -1.83 6.00 9.62 -4.28 0.67 -0.54 7457
0.00 0.00 -2.30 4.82 10.02 -4.28 0.53 -0.38 7464
0.00 0.00 -2.12 3.68 10.10 -4.28 0.30 -0.22 7472
0.00 0.00 -1.65 2.75 9.98 -4.28 0.13 -0.08 7479
0.00 0.00 -1.38 2.14 9.94 -4.28 -0.01 0.00 7486
0.00 0.00 -0.50 1.11 10.73 -4.28 0.04 0.09 7493
0.00 0.00 -0.43 1.22 10.76 -4.28 0.14 0.14 7500
0.00 0.00 -0.05 0.55 11.69 -4.28 0.36 0.16 7507
0.00 0.00 -0.17 0.49 11.98 -4.28 0.60 0.15 7515
0.00 0.00 -0.98 -0.64 14.11 -4.28 0.78 0.15 7522
0.00 0.00 -0.09 -0.89 14.04 -4.28 0.73 0.07 7529
0.00 0.00 -0.59 -0.22 14.43 -4.28 0.70 -0.04 7536
0.00 -0.00 -1.56 -1.43 16.22 -4.28 0.60 -0.11 7543
0.00 0.00 -0.07 -2.02 17.38 -4.28 0.45 -0.22 7550
0.00 0.00 0.11 -1.83 17.71 -4.28 0.42 -0.32 7558
0.00 0.00 1.15 -2.46 18.02 -4.28 0.51 -0.38 7565
0.00 0.00 1.12 -3.13 19.14 -4.28 0.63 -0.41 7572
0.00 0.00 1.47 -3.86 20.05 -4.28 0.87 -0.39 7579
0.00 -0.00 1.72 -4.49 21.05 -4.28 1.12 -0.33 7586
0.00 0.00 1.80 -5.08 22.23 -4.28 1.28 -0.26 7593
0.00 0.00 1.66 -6.54 23.66 -4.27 1.46 -0.18 7601
0.00 0.00 1.80 -8.07 25.24 -4.19 1.62 -0.09 7608
0.00 0.00 1.48 -9.18 27.07 -4.02 1.81 -0.03 7615
-0.00 0.00 1.09 -10.64 28.85 -4.04 2.00 0.02 7622
0.00 0.00 0.82 -12.58 29.45 -4.19 2.11 0.08 7629
0.00 0.00 0.81 -16.49 28.02 -4.28 2.11 0.16 7636
0.00 0.00 -2.52 -21.08 28.52 -4.28 1.61 0.16 7644
0.00 0.00 -2.69 -25.02 26.77 -4.28 1.62 0.18 7651
0.00 0.00 -1.04 -25.33 16.28 -4.28 1.56 0.24 7658
0.00 0.00 -5.11 -30.81 17.05 -4.28 1.89 0.41 7665
0.00 0.00 -6.27 -37.73 13.95 -4.28 2.29 0.46 7672
0.00 0.00 -9.81 -50.26 7.73 -4.16 2.24 0.46 7680
0.00 0.00 -13.72 -59.42 0.62 -3.56 1.90 0.33 7687
0.00 0.00 -18.20 -70.53 -0.42 -2.21 1.13 0.16 7694
0.00 0.00 -21.83 -69.79 -2.00 0.05 -0.43 -0.11 7701
0.00 0.00 -15.29 -66.11 -3.05 2.69 -2.19 -0.58 7708
-0.00 0.01 -2.93 -25.00 9.54 4.28 -2.96 -1.30 7715
-0.01 0.07 0.54 7.40 2.96 4.28 -2.89 -1.46 7723
-0.02 0.22 1.24 -1.78 30.32 4.28 -2.03 -1.18 7730
-0.04 0.47 5.84 0.44 20.89 3.78 -1.15 -0.59 7738
-0.04 0.69 2.29 -3.49 17.92 3.87 -0.81 -0.24 7745
-0.02 0.81 2.56 -5.74 13.37 4.28 -0.42 0.17 7752
-0.05 0.93 0.63 -4.69 22.07 4.28 0.12 0.66 7759
-0.05 1.00 -3.26 -4.61 24.02 3.97 0.78 0.67 7767
-0.06 1.02 -3.81 -4.05 17.26 3.31 0.26 0.19 7774
-0.06 1.04 -1.19 -3.56 15.80 2.97 0.19 -0.09 7781
-0.05 1.01 1.01 -1.85 14.09 2.56 0.69 -0.00 7787
-0.02 0.89 0.60 -3.55 17.97 1.16 -0.13 0.06 7795
-0.04 0.79 1.30 -2.03 12.28 0.15 -0.24 0.10 7802
-0.04 0.73 -0.32 -2.62 11.06 0.03 -0.12 0.07 7810
-0.04 0.61 -0.07 -1.71 10.19 -0.04 -0.05 0.03 7816
-0.00 0.61 0.22 -0.96 9.85 -0.04 -0.01 0.04 7823
0.01 0.61 0.12 -1.08 10.06 -0.04 0.01 0.04 7830
0.04 0.57 0.11 -1.10 9.78 -0.05 0.03 0.03 7837
0.03 0.58 0.33 -1.10 9.82 -0.07 0.06 0.03 7844
0.04 0.55 0.24 -1.07 9.98 -0.08 0.08 0.02 7852
0.02 0.60 0.19 -0.92 9.96 -0.05 0.08 0.02 7859
0.03 0.58 0.19 -0.78 9.87 -0.03 0.10 0.01 7866
0.03 0.61 0.23 -0.81 9.20 -0.01 0.11 0.01 7873
0.04 0.57 0.28 -0.79 9.82 -0.00 0.12 0.00 7880
0.03 0.55 0.29 -0.73 9.83 0.01 0.11 -0.00 7887
0.03 0.54 0.33 -0.76 9.78 0.03 0.10 -0.00 7895
0.03 0.53 0.29 -0.75 9.79 0.04 0.10 -0.01 7902
0.04 0.52 0.31 -0.78 9.86 0.06 0.09 -0.01 7909
0.07 0.46 0.36 -0.75 9.83 0.08 0.08 -0.01 7916
0.07 0.45 0.31 -0.78 9.85 0.10 0.06 -0.02 7923
0.05 0.40 0.32 -0.79 9.82 0.11 0.06 -0.02 7930
0.05 0.40 0.33 -0.80 9.82 0.12 0.06 -0.02 7938
0.05 0.36 0.32 -0.86 9.83 0.13 0.06 -0.03 7945
0.05 0.34 0.41 -0.84 9.79 0.15 0.05 -0.03 7952
0.06 0.34 0.35 -0.85 9.72 0.17 0.05 -0.04 7959
0.05 0.33 0.34 -0.88 9.70 0.17 0.04 -0.04 7966
0.05 0.29 0.34 -0.91 9.73 0.18 0.04 -0.05 7973
0.04 0.23 0.38 -0.89 9.70 0.19 0.04 -0.06 7981
0.04 0.20 0.37 -0.92 9.70 0.19 0.05 -0.06 7988
0.05 0.13 0.37 -0.96 9.67 0.19 0.05 -0.06 7995
0.07 0.12 0.47 -0.97 10.34 0.19 0.05 -0.06 8002
0.05 0.09 0.42 -1.02 9.70 0.19 0.04 -0.07 8009
0.05 0.07 0.43 -1.09 9.69 0.19 0.04 -0.07 8016
0.05 0.04 0.44 -1.01 9.71 0.19 0.04 -0.08 8024
0.07 0.06 0.40 -1.11 9.75 0.19 0.02 -0.08 8031
0.09 0.04 0.61 -1.07 9.66 0.19 0.02 -0.09 8038
0.11 0.04 0.49 -1.18 9.78 0.19 -0.00 -0.10 8045
0.09 0.04 1.13 -1.06 9.16 0.18 0.00 -0.10 8052
0.09 0.03 0.29 -1.28 9.68 0.18 -0.03 -0.10 8059
0.10 0.03 0.48 -1.19 9.82 0.17 -0.04 -0.10 8067
0.07 0.03 0.50 -1.11 9.71 0.18 -0.04 -0.11 8074
0.12 0.02 0.41 -1.14 9.81 0.18 -0.06 -0.11 8081
0.12 0.01 0.48 -1.23 10.04 0.19 -0.06 -0.12 8088
0.15 0.00 0.35 -1.31 9.81 0.19 -0.07 -0.12 8095
0.17 -0.01 0.32 -1.24 9.76 0.20 -0.06 -0.12 8102
0.18 0.01 0.39 -1.34 10.01 0.20 -0.06 -0.12 8110
0.18 0.00 0.28 -1.32 9.96 0.21 -0.05 -0.13 8117
0.21 -0.01 0.46 -1.29 9.88 0.22 -0.04 -0.14 8124
0.22 -0.02 0.48 -1.34 9.85 0.24 -0.04 -0.15 8131
0.21 -0.02 0.67 -1.38 10.15 0.30 -0.04 -0.17 8138
0.22 -0.02 0.63 -1.55 10.50 0.29 -0.04 -0.20 8145
0.20 -0.02 0.97 -1.51 10.18 0.34 -0.05 -0.24 8154
0.21 -0.01 1.42 -1.52 10.23 0.38 -0.00 -0.32 8161
0.29 -0.02 1.17 -1.58 11.38 0.49 0.08 -0.40 8167
0.30 -0.03 -0.39 -1.77 11.95 0.80 0.10 -0.40 8174
0.37 -0.03 0.43 -1.83 11.50 1.00 0.03 -0.36 8181
0.38 -0.03 0.35 -1.63 11.81 1.14 -0.01 -0.36 8189
0.39 -0.02 0.42 -1.71 12.00 1.28 -0.07 -0.34 8197
0.48 -0.02 -0.13 -2.37 12.54 1.46 -0.10 -0.32 8204
0.51 -0.02 -0.42 -1.91 13.09 1.67 -0.13 -0.27 8211
0.55 -0.03 -0.29 -2.03 13.40 1.88 -0.14 -0.22 8218
0.59 -0.04 -0.04 -1.99 13.68 2.18 -0.11 -0.19 8225
0.63 -0.03 0.47 -2.28 14.35 2.53 -0.06 -0.17 8232
0.69 -0.04 0.80 -2.93 14.61 2.82 0.01 -0.18 8240
0.71 -0.03 0.80 -2.36 15.35 3.19 0.06 -0.22 8247
0.73 -0.03 0.42 -2.68 15.95 3.52 0.07 -0.25 8254
0.79 -0.04 0.59 -2.25 16.04 3.91 0.07 -0.27 8261
0.78 -0.04 0.77 -2.67 16.58 4.23 0.10 -0.30 8268
0.76 -0.04 1.67 -2.16 17.35 4.28 0.14 -0.36 8275
0.78 -0.03 3.16 -2.89 18.13 4.28 0.02 -0.50 8283
0.67 -0.03 3.02 -2.96 18.20 4.28 -0.22 -0.71 8290
0.59 -0.03 1.88 -3.40 20.56 4.28 -0.44 -0.85 8297
0.35 -0.02 1.58 -6.61 24.55 4.28 -0.76 -0.90 8304
0.26 -0.02 3.43 -6.00 25.48 4.28 -0.84 -0.91 8311
0.12 -0.01 2.31 -6.01 24.41 4.28 -0.71 -1.08 8317
0.11 -0.00 -6.84 -7.73 30.96 4.28 -0.85 -1.20 8326
0.07 -0.01 -3.41 -11.17 33.05 4.28 -1.76 -0.89 8333
0.02 -0.00 1.54 -8.71 28.92 4.28 -2.30 -0.75 8339
0.02 -0.00 4.62 -5.65 29.64 4.28 -2.56 -0.72 8346
0.01 -0.00 7.43 0.17 29.73 4.28 -2.42 -0.64 8353
0.00 0.00 7.96 6.16 25.71 4.28 -2.10 -0.64 8360
0.00 0.00 7.84 11.43 24.57 4.28 -1.84 -0.73 8368
0.00 0.00 6.26 17.28 22.14 4.28 -1.57 -0.89 8375
0.00 0.00 6.14 23.17 5.76 4.28 -1.35 -1.07 8382
0.00 0.00 8.30 23.84 13.01 3.29 -0.72 -0.85 8389
0.00 0.00 5.30 21.16 21.27 0.38 0.10 -0.78 8396
0.00 0.00 2.36 16.80 19.10 -1.84 0.36 -0.70 8403
0.00 0.00 -0.96 13.64 15.46 -2.95 0.11 -0.53 8411
0.00 0.00 -0.05 10.46 12.84 -3.18 -0.33 -0.45 8418
0.00 0.00 0.54 8.53 10.77 -3.14 -0.49 -0.42 8425
0.00 0.00 1.83 7.87 8.39 -3.13 -0.42 -0.40 8432
0.00 0.00 2.47 7.62 7.83 -3.25 -0.19 -0.39 8439
0.00 0.00 2.29 7.20 8.64 -3.53 0.13 -0.36 8446
0.00 0.00 1.37 6.84 9.25 -3.90 0.38 -0.29 8454
0.00 0.00 0.24 6.16 9.61 -4.26 0.54 -0.16 8461
0.00 0.00 -1.15 5.49 9.79 -4.28 0.44 0.06 8468
0.00 0.00 -1.65 4.19 9.98 -4.28 0.16 0.28 8475
0.00 0.00 -1.28 3.24 10.17 -4.28 -0.22 0.44 8482
0.00 0.00 -0.51 2.45 10.10 -4.28 -0.54 0.56 8489
0.00 0.00 -0.10 2.17 10.44 -4.28 -0.74 0.60 8497
0.00 0.00 0.75 1.21 10.40 -4.28 -0.74 0.59 8504
0.00 0.00 0.75 0.78 11.92 -4.28 -0.76 0.54 8511
0.00 0.00 1.17 0.42 11.32 -4.28 -0.56 0.48 8518
0.00 0.00 1.64 -0.10 12.25 -4.28 -0.30 0.42 8525
0.00 0.00 0.88 0.05 13.68 -4.28 -0.14 0.31 8532
0.00 0.00 1.53 -1.85 14.92 -4.28 0.02 0.22 8540
0.00 0.00 4.16 -1.87 14.43 -4.28 0.16 0.03 8547
0.00 0.00 0.89 -0.75 15.22 -4.28 0.02 -0.14 8554
0.00 0.00 2.24 -3.52 17.86 -4.28 0.02 -0.21 8561
0.00 0.00 2.78 -3.23 17.29 -4.28 -0.06 -0.32 8568
0.00 0.00 3.82 -3.39 17.28 -4.28 0.00 -0.40 8576
0.00 0.00 4.56 -4.58 18.62 -4.28 0.14 -0.45 8583
0.00 0.00 4.97 -4.89 20.00 -4.28 0.37 -0.46 8590
0.00 0.00 5.32 -5.59 20.66 -4.28 0.75 -0.37 8597
0.00 0.00 4.95 -5.83 22.16 -4.28 0.96 -0.19 8604
0.00 0.00 5.05 -6.46 23.24 -4.28 1.11 0.03 8611
0.00 0.00 5.26 -7.88 24.62 -4.28 1.22 0.28 8619
0.00 0.00 5.75 -9.73 25.57 -4.28 1.38 0.43 8626
0.00 0.00 5.96 -12.25 25.98 -4.20 1.69 0.51 8633
0.00 0.00 6.07 -15.35 27.03 -4.07 2.06 0.50 8640
0.00 0.00 5.55 -17.69 28.24 -3.99 2.47 0.44 8647
0.00 0.00 4.73 -19.74 27.87 -4.14 2.86 0.36 8654
0.00 0.00 3.74 -20.90 25.48 -4.28 3.10 0.37 8662
0.00 0.00 1.65 -22.94 23.21 -4.28 3.25 0.48 8669
0.00 0.00 -1.04 -27.78 19.59 -4.28 3.25 0.72 8676
0.00 0.00 -3.51 -32.21 15.53 -4.28 3.36 1.01 8683
0.00 0.00 -7.02 -42.55 10.60 -4.28 3.84 1.31 8690
-0.00 0.00 -11.37 -57.35 4.34 -4.19 4.02 1.54 8698
0.00 -0.00 -17.59 -65.94 0.17 -3.39 3.35 1.56 8705
0.00 0.00 -21.13 -68.09 -0.96 -2.10 1.96 1.46 8712
0.00 0.00 -15.42 -74.88 21.14 0.60 -0.21 1.17 8719
0.00 0.00 -15.51 -57.09 -3.06 3.55 -2.49 0.71 8726
0.00 0.00 -9.54 -14.49 4.97 4.28 -3.87 0.10 8733
-0.01 0.05 -3.68 13.59 10.79 4.28 -4.00 -0.04 8741
-0.00 0.15 1.28 -1.01 30.39 4.28 -2.06 0.44 8749
-0.03 0.39 3.01 1.38 17.77 3.79 -0.96 0.97 8756
-0.04 0.58 -3.69 -1.01 18.11 3.73 -0.04 1.13 8763
-0.06 0.75 -4.80 -7.22 14.17 4.19 0.43 1.02 8770
-0.05 0.90 -3.35 -6.54 18.39 4.28 0.62 0.89 8777
-0.04 0.93 -5.02 -5.00 25.26 4.26 1.25 0.65 8784
-0.03 0.97 -4.47 -4.59 19.77 3.44 0.84 0.01 8792
-0.05 0.99 -1.01 -4.17 16.86 2.87 0.37 -0.42 8799
-0.05 0.96 2.09 -1.40 13.67 2.63 0.60 -0.37 8806
-0.06 0.90 1.49 -4.94 23.33 1.70 0.22 -0.13 8813
-0.05 0.78 3.08 -1.36 11.42 0.13 -0.15 -0.03 8820
-0.04 0.72 0.49 -3.31 11.68 -0.08 -0.02 -0.00 8826
-0.02 0.67 0.35 -1.79 10.44 -0.08 0.01 -0.00 8834
-0.00 0.64 0.30 -1.30 10.15 -0.08 0.03 0.01 8841
-0.01 0.59 0.23 -1.05 9.95 -0.06 0.04 0.02 8848
-0.01 0.61 0.13 -1.06 9.67 -0.06 0.07 0.03 8855
0.00 0.63 0.34 -1.09 9.93 -0.09 0.10 0.02 8862
0.02 0.59 0.28 -1.04 10.17 -0.09 0.12 0.01 8869
0.01 0.63 0.29 -0.84 10.09 -0.05 0.12 0.01 8877
0.00 0.62 0.40 -0.83 9.96 -0.01 0.11 0.00 8884
0.00 0.61 0.46 -0.79 9.83 0.02 0.08 -0.00 8891
0.01 0.60 0.37 -0.75 9.80 0.04 0.05 -0.01 8898
0.02 0.58 0.34 -0.77 10.41 0.05 0.03 -0.01 8905
0.04 0.52 0.35 -0.77 9.90 0.06 0.01 -0.02 8912
0.03 0.53 0.41 -0.72 9.98 0.08 -0.02 -0.02 8920
0.04 0.48 0.39 -0.72 9.95 0.12 -0.05 -0.03 8927
0.03 0.43 0.38 -0.74 9.83 0.15 -0.07 -0.04 8934
0.05 0.43 0.37 -0.80 9.85 0.17 -0.09 -0.04 8941
0.07 0.38 0.35 -0.86 9.85 0.19 -0.10 -0.05 8948
0.10 0.33 0.34 -0.83 9.76 0.20 -0.10 -0.05 8955
0.10 0.30 0.36 -0.88 9.80 0.20 -0.11 -0.06 8963
0.11 0.28 0.37 -0.92 9.79 0.21 -0.11 -0.07 8970
0.11 0.24 0.33 -0.92 9.67 0.20 -0.11 -0.07 8977
0.12 0.20 0.30 -0.94 9.64 0.20 -0.10 -0.07 8984
0.12 0.20 0.31 -0.96 9.66 0.19 -0.10 -0.08 8991
0.13 0.18 0.32 -1.03 9.70 0.18 -0.10 -0.08 8998
0.13 0.14 0.34 -1.01 9.72 0.18 -0.10 -0.08 9006
0.14 0.10 0.28 -1.02 9.68 0.17 -0.09 -0.08 9013
0.13 0.15 0.32 -1.08 9.72 0.17 -0.09 -0.09 9020
0.15 0.08 0.32 -1.07 9.71 0.17 -0.11 -0.09 9027
0.16 0.09 0.29 -1.09 9.61 0.16 -0.11 -0.10 9034
0.19 0.04 0.23 -1.17 9.59 0.16 -0.12 -0.11 9041
0.19 0.05 0.29 -1.25 9.74 0.15 -0.11 -0.11 9049
0.20 0.04 0.47 -1.03 9.59 0.15 -0.10 -0.12 9056
0.19 0.03 0.38 -1.19 9.79 0.16 -0.09 -0.13 9063
0.20 0.03 0.19 -1.20 9.69 0.16 -0.09 -0.13 9070
0.22 0.03 0.19 -1.30 9.82 0.17 -0.07 -0.13 9077
0.23 0.02 0.17 -1.39 9.87 0.18 -0.07 -0.14 9084
0.24 0.02 0.14 -1.28 9.92 0.20 -0.06 -0.14 9092
0.31 -0.00 0.08 -1.35 9.88 0.22 -0.05 -0.15 9099
0.29 -0.01 0.08 -1.82 9.98 0.24 -0.05 -0.15 9106
0.32 0.01 0.29 -1.29 10.01 0.26 -0.05 -0.16 9113
0.37 -0.02 0.39 -1.42 10.09 0.28 -0.05 -0.18 9121
0.37 -0.03 0.36 -1.35 10.05 0.31 -0.05 -0.21 9128
0.37 -0.03 0.60 -1.45 10.32 0.34 -0.05 -0.23 9136
0.37 -0.02 0.62 -1.49 10.47 0.38 -0.05 -0.26 9143
0.43 -0.02 0.80 -1.49 10.50 0.43 -0.07 -0.30 9149
0.45 -0.02 0.94 -1.63 10.89 0.49 -0.07 -0.35 9157
0.47 -0.03 1.18 -1.89 11.33 0.59 -0.00 -0.41 9164
0.51 -0.03 -0.46 -1.83 12.31 0.86 0.07 -0.43 9171
0.56 -0.04 -0.62 -1.67 11.81 1.12 -0.09 -0.32 9179
0.57 -0.04 -0.27 -1.62 11.85 1.27 -0.09 -0.29 9186
0.59 -0.03 -0.25 -1.77 12.68 1.42 -0.11 -0.24 9193
0.62 -0.03 -0.05 -1.94 13.52 1.64 -0.12 -0.21 9200
0.72 -0.03 -0.32 -1.95 13.68 1.89 -0.13 -0.19 9207
0.75 -0.03 -0.53 -2.03 13.67 2.16 -0.12 -0.17 9214
0.76 -0.04 -0.33 -1.94 13.89 2.45 -0.07 -0.15 9222
0.81 -0.04 0.16 -2.22 14.46 2.74 -0.09 -0.12 9229
0.85 -0.02 0.53 -2.39 15.21 3.07 -0.11 -0.15 9236
0.88 -0.02 1.19 -2.26 15.29 3.43 -0.13 -0.19 9243
0.90 -0.04 1.50 -2.31 15.65 3.76 -0.11 -0.28 9250
0.91 -0.04 0.67 -2.47 16.62 4.16 -0.06 -0.36 9257
0.86 -0.04 1.12 -2.41 16.93 4.28 -0.23 -0.42 9265
0.80 -0.05 1.86 -1.87 17.27 4.28 -0.41 -0.52 9272
0.75 -0.03 2.45 -2.85 17.60 4.28 -0.55 -0.64 9279
0.61 -0.02 1.20 -3.78 18.91 4.28 -0.68 -0.78 9286
0.46 -0.02 1.18 -5.23 23.89 4.28 -0.93 -0.81 9293
0.28 -0.03 1.45 -7.19 25.63 4.28 -1.24 -0.77 9299
0.18 -0.02 -0.05 -7.13 26.83 4.28 -1.25 -0.90 9307
0.11 -0.01 -6.55 -6.92 30.25 4.28 -1.61 -1.01 9314
0.09 -0.00 -2.27 -9.87 29.61 4.28 -2.84 -0.75 9322
0.05 -0.01 0.72 -7.52 29.74 4.28 -3.18 -0.69 9328
0.02 -0.00 4.39 -5.74 30.02 4.28 -3.62 -0.75 9335
0.04 -0.00 7.21 -2.50 28.79 4.28 -3.71 -0.52 9342
0.03 -0.00 9.12 2.60 25.73 4.28 -3.42 -0.47 9350
0.00 0.00 8.58 8.03 22.82 4.28 -2.90 -0.47 9357
0.00 0.00 9.18 13.45 21.41 4.28 -2.48 -0.48 9364
0.00 0.00 9.11 32.06 12.81 4.27 -2.17 -0.56 9371
0.00 0.00 10.85 20.47 10.36 3.22 -1.50 -0.05 9378
0.00 0.00 6.62 18.81 27.72 0.08 -0.73 0.28 9385
0.00 0.00 2.09 17.37 19.99 -1.77 -0.67 0.46 9393
0.00 0.00 0.00 14.71 15.26 -2.72 -1.10 0.55 9400
0.00 -0.00 -0.05 10.84 13.33 -2.97 -1.92 0.48 9407
0.00 0.00 1.76 8.74 11.49 -2.94 -2.28 0.33 9414
0.00 0.00 2.75 8.03 9.57 -2.96 -2.26 0.19 9421
0.00 0.00 4.36 7.93 8.58 -3.11 -2.00 -0.00 9428
0.00 0.00 5.02 7.78 9.00 -3.49 -1.57 -0.17 9436
0.00 0.00 4.65 7.40 9.64 -4.01 -0.97 -0.33 9443
0.00 0.00 3.67 6.64 9.82 -4.27 -0.48 -0.44 9450
0.00 0.00 2.48 5.52 9.83 -4.28 -0.22 -0.47 9457
0.00 0.00 0.90 4.18 9.84 -4.28 -0.18 -0.43 9464
0.00 0.00 0.58 2.97 10.53 -4.28 -0.35 -0.28 9472
0.00 0.00 1.47 1.69 10.86 -4.28 -0.61 -0.18 9479
0.00 0.00 2.75 1.03 11.08 -4.28 -0.74 -0.05 9486
0.00 0.00 3.78 0.40 11.69 -4.28 -0.73 0.05 9493
0.00 0.00 4.46 -0.08 12.16 -4.28 -0.58 0.18 9500
0.00 0.00 4.94 -0.61 13.21 -4.28 -0.38 0.32 9507
0.00 0.00 5.40 -1.04 13.68 -4.28 -0.10 0.47 9515
0.00 0.00 5.33 -1.45 14.40 -4.28 0.07 0.62 9522
0.00 0.00 5.40 -2.19 15.50 -4.28 0.22 0.76 9529
0.00 0.00 5.69 -2.72 15.39 -4.28 0.26 0.91 9536
0.00 0.00 6.24 -4.15 16.94 -4.28 0.29 1.06 9543
0.00 0.00 6.28 -4.13 16.15 -4.28 0.18 1.15 9550
0.00 0.00 7.75 -5.65 17.39 -4.28 0.18 1.26 9558
0.00 0.00 8.81 -6.05 17.22 -4.28 0.25 1.33 9565
0.00 0.00 10.22 -7.58 18.01 -4.28 0.48 1.37 9572
0.00 0.00 10.72 -8.42 18.79 -4.28 0.86 1.37 9579
0.00 0.00 10.82 -9.11 19.96 -4.16 1.19 1.32 9586
0.00 0.00 11.18 -9.27 20.79 -4.06 1.67 1.23 9593
0.00 0.00 11.26 -9.83 21.70 -4.02 2.08 1.13 9601
0.00 0.00 10.36 -10.69 22.18 -4.02 2.49 1.02 9608
0.00 0.00 8.94 -11.59 22.38 -4.02 2.73 0.94 9615
0.00 0.00 7.62 -12.25 22.56 -3.97 2.76 0.90 9622
0.00 0.00 6.24 -13.17 23.03 -3.88 2.71 0.90 9629
0.00 0.00 5.12 -14.53 23.66 -3.81 2.65 0.92 9636
0.00 0.00 3.86 -15.68 23.53 -3.86 2.61 0.94 9644
-0.00 0.00 2.62 -17.32 22.54 -4.00 2.60 0.99 9651
0.00 0.00 1.45 -19.20 20.93 -4.20 2.55 1.06 9658
0.00 0.00 -0.23 -21.64 19.25 -4.28 2.38 1.18 9665
0.00 0.00 -2.28 -24.39 16.07 -4.28 2.12 1.33 9672
0.00 0.00 -3.04 -27.21 12.58 -4.22 1.73 1.46 9679
0.00 0.00 -4.87 -31.45 10.20 -3.90 1.72 1.65 9687
0.00 0.00 -6.71 -37.71 7.43 -3.29 1.69 1.77 9694
0.00 0.00 -7.95 -44.71 4.14 -2.73 1.23 1.75 9701
0.00 0.00 -8.23 -48.54 1.58 -2.23 0.67 1.54 9708
0.00 0.00 -8.46 -48.03 1.26 -1.41 0.30 1.29 9715
0.00 0.00 -8.45 -43.37 2.14 -0.27 -0.12 0.99 9722
0.00 0.00 -7.71 -36.76 4.22 0.62 -0.54 0.74 9730
-0.00 0.00 -5.99 -29.39 4.83 1.37 -0.93 0.64 9737
0.00 0.00 -10.95 -25.49 23.03 4.01 -2.80 0.99 9744
-0.00 0.03 2.58 9.29 -4.70 4.06 -1.51 1.09 9751
-0.01 0.12 0.87 -0.11 12.91 4.00 -0.57 1.42 9758
-0.04 0.43 -3.37 -0.63 16.22 3.89 0.05 1.50 9766
-0.04 0.66 -5.53 -3.99 18.30 4.28 0.34 1.25 9774
-0.04 0.88 -3.78 -6.59 17.00 4.28 0.71 0.98 9781
-0.05 0.95 -3.77 -7.61 26.43 4.28 1.05 0.89 9788
-0.06 1.04 -3.41 -6.08 23.21 4.23 1.24 0.60 9795
-0.06 1.10 -3.37 -3.92 17.53 3.94 0.56 -0.05 9802
-0.07 0.99 0.44 -3.04 17.23 3.45 0.56 -0.29 9809
-0.04 0.93 1.62 -4.77 25.27 2.05 0.22 -0.13 9817
-0.04 0.79 3.65 -2.35 13.28 0.40 -0.13 -0.02 9824
-0.02 0.73 0.79 -4.03 12.78 0.04 0.01 -0.00 9830
-0.03 0.67 0.51 -1.64 10.61 0.05 0.00 -0.01 9837
-0.04 0.61 0.34 -1.11 9.73 0.05 0.02 0.00 9844
-0.00 0.59 0.31 -0.81 9.62 0.03 0.04 0.02 9851
-0.00 0.54 0.16 -1.08 9.66 0.00 0.09 0.03 9859
0.01 0.54 0.39 -1.20 9.83 -0.02 0.13 0.04 9866
0.04 0.52 0.55 -1.23 10.02 -0.01 0.15 0.04 9873
0.06 0.47 0.62 -1.08 10.00 0.02 0.12 0.03 9880
0.05 0.48 0.68 -0.91 9.83 0.05 0.08 0.01 9887
0.05 0.48 0.51 -0.86 9.78 0.06 0.04 0.00 9894
0.07 0.46 0.25 -0.96 9.73 0.06 0.04 0.00 9902
0.10 0.42 0.39 -0.82 9.84 0.06 0.06 0.00 9909
0.11 0.39 0.41 -0.69 9.93 0.08 0.05 -0.00 9916
0.12 0.37 0.37 -0.76 9.94 0.11 0.04 -0.01 9923
0.09 0.41 0.36 -0.88 9.88 0.13 0.04 -0.01 9930
0.10 0.36 0.48 -0.81 9.89 0.15 0.02 -0.02 9937
0.11 0.28 0.53 -0.87 9.93 0.18 -0.01 -0.02 9945
0.12 0.18 0.54 -0.90 9.95 0.19 -0.05 -0.03 9952
0.11 0.17 0.47 -0.95 9.92 0.21 -0.08 -0.04 9959
0.11 0.12 0.39 -0.92 9.85 0.22 -0.08 -0.05 9966
0.12 0.10 0.45 -0.92 9.85 0.24 -0.09 -0.06 9973
0.11 0.07 0.40 -1.01 9.82 0.26 -0.10 -0.07 9980
0.11 0.07 0.38 -0.99 9.80 0.26 -0.10 -0.07 9988
0.13 0.02 0.39 -1.04 9.79 0.27 -0.08 -0.08 9995
0.13 0.03 0.39 -1.05 9.82 0.27 -0.08 -0.08 10002
0.15 0.03 0.39 -1.09 9.81 0.27 -0.08 -0.08 10009
0.15 0.02 0.42 -1.15 9.73 0.27 -0.07 -0.09 10016
0.16 0.03 0.40 -1.23 9.67 0.26 -0.07 -0.09 10023
0.16 0.03 0.52 -1.13 9.64 0.25 -0.07 -0.10 10031
0.16 0.00 0.57 -1.11 9.69 0.23 -0.08 -0.11 10038
0.17 -0.01 0.68 -0.69 9.55 0.22 -0.10 -0.11 10045
0.18 -0.02 0.57 -1.23 9.64 0.19 -0.13 -0.12 10052
0.19 -0.00 0.50 -1.39 9.40 0.18 -0.17 -0.14 10059
0.21 -0.01 0.55 -1.48 9.62 0.16 -0.17 -0.15 10066
0.18 -0.01 0.19 -1.39 9.73 0.15 -0.19 -0.15 10074
0.20 -0.01 0.40 -1.37 9.83 0.15 -0.18 -0.16 10081
0.18 -0.02 0.45 -1.38 9.86 0.15 -0.19 -0.16 10088
0.22 -0.00 0.58 -1.43 9.86 0.16 -0.19 -0.17 10095
0.25 -0.02 0.03 -1.56 9.82 0.16 -0.21 -0.18 10102
0.26 -0.01 0.38 -1.43 9.82 0.18 -0.20 -0.19 10109
0.28 -0.01 0.23 -1.48 9.85 0.19 -0.19 -0.20 10117
0.30 -0.02 0.25 -1.53 9.96 0.22 -0.17 -0.21 10124
0.31 -0.03 0.35 -1.44 10.15 0.24 -0.16 -0.23 10131
0.32 -0.02 0.49 -1.53 10.42 0.29 -0.15 -0.26 10139
0.37 -0.02 0.75 -1.58 10.49 0.35 -0.16 -0.30 10146
0.42 -0.02 1.18 -1.75 10.64 0.42 -0.14 -0.35 10153
0.45 -0.03 0.44 -1.83 10.88 0.54 -0.11 -0.38 10161
0.53 -0.03 -0.07 -1.78 11.57 0.74 -0.11 -0.36 10168
0.54 -0.04 0.05 -2.42 11.27 0.88 -0.12 -0.30 10175
0.52 -0.03 0.08 -1.73 11.42 1.01 -0.13 -0.33 10182
0.53 -0.02 0.10 -1.96 11.73 1.12 -0.15 -0.31 10189
0.58 -0.02 -0.01 -2.01 11.83 1.26 -0.17 -0.30 10196
0.63 -0.03 -0.33 -1.99 11.83 1.40 -0.16 -0.28 10204
0.69 -0.03 -0.28 -2.09 12.33 1.54 -0.18 -0.24 10211
0.74 -0.04 0.04 -2.13 12.72 1.74 -0.17 -0.22 10218
0.79 -0.04 0.05 -2.24 13.18 1.94 -0.21 -0.21 10225
0.81 -0.04 0.32 -2.45 13.20 2.22 -0.23 -0.21 10232
0.87 -0.04 -0.16 -2.53 14.01 2.49 -0.26 -0.20 10240
0.90 -0.04 -0.06 -2.61 14.44 2.76 -0.27 -0.19 10247
0.93 -0.05 0.21 -2.37 14.74 3.08 -0.25 -0.19 10254
0.92 -0.04 0.42 -2.67 15.64 3.45 -0.27 -0.21 10261
0.89 -0.04 0.99 -2.32 16.14 3.79 -0.27 -0.29 10268
0.88 -0.03 0.53 -2.79 16.76 4.19 -0.31 -0.33 10275
0.87 -0.04 1.18 -2.68 17.23 4.28 -0.49 -0.38 10283
0.82 -0.04 2.30 -2.89 16.83 4.28 -0.64 -0.50 10290
0.67 -0.03 2.79 -3.86 18.52 4.28 -0.74 -0.70 10297
0.48 -0.03 1.62 -5.19 20.77 4.28 -0.87 -0.82 10304
0.37 -0.02 0.77 -6.87 24.63 4.28 -1.26 -0.86 10311
0.19 -0.01 0.63 -5.75 25.75 4.28 -1.32 -0.89 10318
0.14 -0.01 -2.96 -7.27 29.99 4.28 -1.35 -1.04 10324
0.11 -0.01 -3.58 -9.79 29.83 4.28 -2.47 -0.95 10332
0.06 -0.01 1.62 -9.08 29.73 4.28 -2.97 -0.80 10339
0.03 -0.00 5.25 -7.32 28.34 4.28 -3.12 -0.95 10346
0.03 -0.00 6.82 -2.34 27.93 4.28 -3.05 -0.86 10353
0.03 -0.00 7.81 1.55 25.06 4.28 -2.96 -0.83 10360
0.02 -0.00 6.49 8.33 21.63 4.28 -2.96 -0.87 10368
0.00 0.00 4.36 14.30 19.13 4.28 -3.04 -0.87 10375
0.00 0.00 4.68 20.21 9.94 4.22 -3.64 -0.72 10382
0.00 0.00 5.25 16.97 17.90 3.00 -3.53 0.05 10389
0.00 0.00 7.51 16.20 21.22 0.16 -2.62 0.31 10396
0.00 0.00 5.56 13.08 16.54 -1.51 -1.63 0.50 10403
0.00 0.00 2.97 10.51 12.56 -2.21 -1.25 0.58 10411
0.00 0.00 2.17 8.12 10.91 -2.41 -1.11 0.56 10418
0.00 0.00 1.69 6.31 8.93 -2.33 -1.01 0.53 10425
0.00 0.00 0.99 6.28 7.27 -2.26 -1.04 0.49 10432
0.00 0.00 0.79 6.50 7.13 -2.34 -1.11 0.43 10439
0.00 0.00 0.77 6.49 7.83 -2.56 -1.16 0.36 10446
0.00 0.00 1.16 6.77 7.66 -2.97 -1.17 0.31 10454
0.00 0.00 1.49 6.49 7.97 -3.38 -1.11 0.28 10461
0.00 0.00 1.82 5.74 8.20 -3.82 -0.97 0.28 10468
0.00 0.00 1.41 4.84 8.21 -4.12 -0.89 0.31 10475
-0.00 0.00 1.71 3.62 8.67 -4.21 -0.89 0.36 10482
0.00 0.00 2.31 2.92 8.96 -4.25 -0.92 0.41 10489
0.00 0.00 3.19 2.28 9.45 -4.26 -0.93 0.46 10497
0.00 0.00 3.79 2.01 9.84 -4.28 -0.89 0.50 10504
0.00 0.00 4.47 1.69 10.39 -4.28 -0.79 0.55 10511
0.00 0.00 4.77 1.56 10.59 -4.28 -0.64 0.61 10518
0.00 0.00 5.14 1.11 11.46 -4.28 -0.50 0.66 10525
0.00 0.00 5.46 0.74 11.79 -4.28 -0.30 0.74 10532
0.00 0.00 5.55 0.20 12.78 -4.28 -0.20 0.83 10540
0.00 0.00 5.76 -0.35 13.47 -4.28 -0.14 0.90 10547
0.00 0.00 6.00 -0.49 13.13 -4.28 -0.22 0.97 10554
0.00 0.00 6.72 -1.71 14.97 -4.28 -0.20 1.03 10561
0.00 0.00 7.15 -1.70 14.43 -4.28 -0.27 1.07 10568
0.00 0.00 8.06 -2.78 15.70 -4.28 -0.20 1.08 10575
0.00 0.00 8.56 -3.18 16.19 -4.28 -0.07 1.10 10583
0.00 0.00 9.44 -3.93 17.12 -4.28 0.10 1.12 10590
0.00 0.00 9.72 -4.54 17.71 -4.28 0.32 1.13 10597
-0.00 0.00 10.08 -5.75 18.62 -4.28 0.56 1.16 10605
0.00 -0.00 10.11 -6.60 19.50 -4.28 0.80 1.17 10611
0.00 0.00 10.45 -7.13 20.65 -4.27 1.02 1.18 10618
0.00 0.00 11.26 -7.54 22.02 -4.15 1.35 1.13 10626
0.00 0.00 11.55 -8.10 22.94 -4.08 1.74 1.01 10633
0.00 0.00 11.02 -9.27 23.96 -3.95 2.23 0.90 10640
-0.00 0.00 10.19 -10.54 24.98 -3.82 2.70 0.71 10648
0.00 0.00 9.19 -11.62 26.31 -3.70 3.06 0.53 10654
0.00 0.00 7.62 -12.90 26.64 -3.66 3.37 0.35 10661
0.00 0.00 5.87 -14.44 27.89 -3.77 3.52 0.20 10669
0.00 0.00 3.85 -15.93 27.82 -4.14 3.55 0.13 10676
0.00 0.00 1.50 -18.04 25.72 -4.28 3.44 0.14 10683
0.00 0.00 -0.97 -20.83 22.09 -4.28 3.25 0.20 10690
0.00 0.00 -4.47 -25.02 17.88 -4.28 3.15 0.32 10697
0.00 0.00 -8.75 -31.19 15.23 -4.28 3.36 0.49 10704
0.00 0.00 -13.27 -39.39 12.16 -4.22 3.08 0.69 10713
0.00 0.00 -17.12 -51.38 5.38 -3.89 2.05 0.85 10719
0.00 0.00 -17.45 -59.07 -0.69 -3.44 0.93 0.85 10726
0.00 0.00 -15.17 -61.36 -2.13 -2.32 -0.19 0.68 10733
0.00 0.00 -11.51 -53.45 -1.77 -0.83 -0.97 0.29 10740
0.00 0.00 -8.13 -43.23 1.25 0.85 -1.45 -0.04 10747
0.00 0.00 -4.32 -32.43 6.87 1.92 -1.59 -0.33 10755
0.00 0.00 -1.89 -23.12 11.50 2.17 -1.43 -0.44 10762
0.00 0.00 -31.68 -1.07 59.96 3.46 -3.26 0.30 10769
-0.00 0.01 0.23 18.04 10.79 3.04 -2.37 0.59 10776
-0.01 0.13 5.38 6.90 6.42 2.43 -1.34 1.12 10783
-0.04 0.41 -2.74 2.03 8.48 3.01 -0.47 1.51 10790
-0.04 0.60 -4.09 -2.88 10.95 3.87 -0.32 1.34 10799
-0.06 0.82 -2.51 -5.19 17.15 4.28 0.23 1.35 10806
-0.05 0.92 -3.86 -4.11 20.28 4.28 1.21 1.38 10813
-0.04 1.02 -5.40 -6.13 21.89 4.19 1.22 1.04 10820
-0.05 1.10 -4.77 -5.05 19.15 3.86 1.11 0.47 10827
-0.06 1.13 -0.65 -2.65 16.25 3.78 0.74 -0.01 10834
-0.08 1.09 1.59 -2.22 14.79 3.34 0.70 -0.04 10842
-0.05 1.00 3.21 -4.49 21.78 2.69 0.48 0.13 10849
-0.04 0.88 2.31 -0.55 12.37 0.54 -0.33 0.12 10856
-0.02 0.78 -0.23 -5.04 14.24 -0.03 -0.10 0.09 10862
-0.02 0.77 0.09 -1.90 11.34 -0.03 -0.08 0.01 10869
-0.03 0.74 0.54 -1.19 9.93 -0.01 -0.03 0.04 10876
-0.02 0.67 0.27 -0.88 9.54 -0.02 0.00 0.05 10884
0.02 0.65 0.13 -1.25 9.83 -0.06 0.05 0.04 10891
0.00 0.68 0.62 -1.20 10.12 -0.08 0.08 0.04 10898
0.04 0.65 0.59 -1.01 10.09 -0.06 0.07 0.03 10905
0.03 0.68 0.57 -0.94 9.93 -0.03 0.04 0.02 10912
0.03 0.69 0.57 -0.91 9.83 -0.00 0.02 0.01 10919
0.03 0.70 0.47 -0.79 9.77 0.01 0.01 0.00 10927
0.06 0.65 0.45 -0.73 9.21 0.03 -0.00 -0.00 10934
0.07 0.66 0.40 -0.78 9.84 0.05 -0.00 -0.01 10941
0.06 0.64 0.43 -0.76 9.88 0.09 -0.01 -0.02 10948
0.08 0.57 0.41 -0.70 9.92 0.14 -0.02 -0.02 10955
0.07 0.54 0.48 -0.76 9.98 0.18 -0.04 -0.02 10962
0.08 0.50 0.50 -0.86 9.90 0.20 -0.06 -0.02 10970
0.10 0.41 0.49 -0.80 9.89 0.22 -0.08 -0.02 10977
0.10 0.33 0.44 -0.92 9.78 0.23 -0.09 -0.03 10984
0.08 0.29 0.41 -0.94 9.83 0.25 -0.08 -0.05 10991
0.09 0.29 0.31 -1.03 9.79 0.27 -0.07 -0.05 10998
0.08 0.19 0.45 -0.91 9.76 0.28 -0.06 -0.06 11005
0.08 0.17 0.42 -0.91 9.69 0.29 -0.05 -0.06 11013
0.10 0.11 0.45 -1.04 9.74 0.29 -0.04 -0.07 11020
0.12 0.07 0.44 -1.12 9.70 0.29 -0.03 -0.08 11027
0.13 0.05 0.46 -1.13 9.67 0.28 -0.03 -0.08 11034
0.13 0.03 0.48 -1.16 9.62 0.27 -0.02 -0.09 11041
0.11 0.05 0.48 -1.14 9.66 0.26 -0.02 -0.09 11048
0.13 0.03 0.42 -1.16 9.66 0.24 -0.02 -0.10 11056
0.14 0.03 0.45 -1.30 9.66 0.22 -0.02 -0.10 11063
0.14 0.03 0.59 -1.17 9.64 0.21 -0.02 -0.11 11070
0.11 0.03 0.49 -1.34 9.73 0.19 -0.06 -0.11 11077
0.15 -0.01 0.50 -1.43 9.77 0.17 -0.09 -0.11 11084
0.16 -0.01 0.51 -1.36 9.67 0.15 -0.16 -0.12 11091
0.16 0.02 0.70 -1.35 9.68 0.14 -0.18 -0.12 11099
0.13 0.01 0.51 -1.48 9.83 0.13 -0.21 -0.12 11106
0.16 -0.01 0.40 -1.42 9.58 0.13 -0.23 -0.14 11113
0.17 -0.02 0.49 -1.23 9.77 0.13 -0.24 -0.15 11120
0.21 -0.02 0.32 -1.43 9.86 0.13 -0.24 -0.15 11127
0.25 -0.02 0.62 -1.23 9.79 0.14 -0.24 -0.16 11134
0.27 -0.00 0.29 -1.48 9.82 0.15 -0.23 -0.16 11142
0.33 -0.02 0.34 -1.59 9.75 0.15 -0.22 -0.17 11149
0.32 -0.00 0.19 -1.45 9.81 0.16 -0.20 -0.18 11156
0.37 -0.02 0.28 -1.50 9.96 0.20 -0.19 -0.18 11163
0.39 -0.03 0.43 -1.52 9.95 0.19 -0.19 -0.19 11170
0.47 -0.01 0.42 -1.54 10.21 0.23 -0.22 -0.21 11179
0.56 -0.03 0.04 -1.61 10.41 0.28 -0.27 -0.23 11186
0.53 -0.03 0.64 -1.65 10.61 0.36 -0.36 -0.27 11193
0.55 -0.03 0.86 -1.84 10.78 0.46 -0.44 -0.32 11200
0.61 -0.04 1.02 -1.24 10.84 0.52 -0.47 -0.38 11207
0.66 -0.05 0.82 -1.93 11.74 0.66 -0.37 -0.46 11214
0.69 -0.04 -0.59 -1.82 12.14 0.89 -0.33 -0.45 11222
0.75 -0.04 -0.18 -1.80 11.61 1.11 -0.38 -0.39 11229
0.79 -0.04 -0.63 -1.84 11.90 1.26 -0.31 -0.36 11236
0.83 -0.03 -0.80 -1.82 12.29 1.41 -0.30 -0.30 11243
0.89 -0.05 -1.23 -1.79 12.73 1.61 -0.25 -0.23 11250
0.94 -0.04 -0.97 -2.05 13.37 1.82 -0.20 -0.14 11257
0.97 -0.04 -0.83 -2.12 13.68 2.09 -0.14 -0.08 11265
0.97 -0.04 0.04 -2.34 14.07 2.41 -0.06 -0.05 11271
1.01 -0.05 0.45 -2.28 15.47 2.72 -0.00 -0.07 11278
1.04 -0.05 0.84 -2.42 15.40 3.11 -0.04 -0.12 11286
1.02 -0.05 1.30 -2.30 15.34 3.53 -0.04 -0.21 11293
1.02 -0.05 0.58 -2.08 15.60 3.87 0.01 -0.28 11299
1.00 -0.05 0.05 -2.43 16.40 4.21 0.06 -0.33 11307
0.96 -0.04 0.27 -2.46 18.31 4.28 -0.04 -0.36 11315
0.90 -0.04 1.04 -2.28 17.43 4.28 -0.27 -0.41 11322
0.78 -0.04 2.27 -2.79 17.43 4.28 -0.52 -0.53 11329
0.57 -0.02 1.36 -4.01 18.91 4.28 -0.60 -0.68 11336
0.41 -0.02 0.68 -5.48 21.58 4.28 -0.66 -0.72 11343
0.26 -0.01 -0.76 -5.67 25.05 4.28 -0.77 -0.65 11351
0.15 -0.02 -1.67 -6.44 27.83 4.28 -0.68 -0.65 11357
0.11 -0.01 -5.25 -8.88 31.83 4.28 -1.16 -0.75 11364
0.06 -0.01 -2.46 -12.02 31.23 4.28 -2.28 -0.51 11372
0.04 -0.00 1.55 -8.99 31.64 4.28 -2.67 -0.57 11378
0.05 -0.01 3.42 -5.88 31.36 4.28 -3.08 -0.55 11385
0.05 -0.00 6.24 -0.54 29.08 4.28 -3.14 -0.40 11393
0.04 -0.00 8.08 5.62 26.33 4.28 -2.96 -0.35 11400
0.00 -0.00 8.24 12.74 23.80 4.28 -2.61 -0.35 11407
0.00 0.00 9.27 20.63 19.85 4.28 -2.28 -0.37 11414
0.00 0.00 12.02 25.79 0.96 4.25 -1.81 -0.26 11421
0.00 0.00 10.61 21.54 20.51 2.15 -0.92 0.09 11428
0.00 0.00 7.05 18.08 22.70 -0.71 0.01 0.27 11436
0.00 0.00 2.30 15.50 17.19 -1.98 0.16 0.46 11443
0.00 0.00 -0.51 13.00 13.75 -2.63 -0.38 0.54 11450
0.00 0.00 0.37 10.02 11.25 -2.72 -1.01 0.52 11457
0.00 0.00 0.97 8.64 9.42 -2.70 -1.20 0.48 11464
0.00 0.00 2.13 7.94 7.78 -2.74 -1.18 0.41 11471
0.00 0.00 2.62 7.47 7.21 -2.85 -0.95 0.33 11479
0.00 0.00 2.27 7.20 7.89 -3.10 -0.55 0.25 11486
0.00 0.00 1.25 7.23 8.26 -3.43 -0.12 0.15 11493
0.00 0.00 0.28 6.96 8.72 -3.93 0.19 0.08 11500
0.00 0.00 -1.35 6.26 9.08 -4.26 0.32 0.05 11507
0.00 0.00 -2.25 4.79 9.77 -4.28 0.26 0.05 11514
0.00 -0.00 -2.30 3.85 9.90 -4.28 0.12 0.05 11522
0.00 0.00 -1.89 3.09 9.90 -4.28 -0.04 0.03 11529
0.00 0.00 -1.37 1.86 10.21 -4.28 -0.11 -0.03 11536
0.00 0.00 -1.10 1.86 10.48 -4.28 -0.10 -0.04 11543
0.00 0.00 -0.54 0.82 11.41 -4.28 0.03 -0.09 11550
0.00 0.00 -0.58 0.73 12.19 -4.28 0.11 -0.14 11557
0.00 0.00 -0.41 0.20 12.58 -4.28 0.22 -0.22 11565
0.00 0.00 -0.39 -0.13 13.52 -4.28 0.31 -0.30 11572
0.00 0.00 -0.39 -0.31 14.18 -4.28 0.38 -0.38 11579
0.00 0.00 0.37 -1.12 15.45 -4.28 0.49 -0.46 11586
0.00 0.00 -0.40 -0.63 16.01 -4.28 0.41 -0.55 11593
0.00 0.00 0.31 -1.88 17.46 -4.28 0.46 -0.63 11600
0.00 0.00 0.69 -2.11 18.19 -4.28 0.46 -0.70 11608
0.00 0.00 1.53 -2.69 18.82 -4.28 0.56 -0.76 11615
0.00 0.00 2.02 -3.31 19.38 -4.28 0.75 -0.79 11622
0.00 0.00 2.68 -4.33 20.34 -4.28 0.99 -0.80 11629
0.00 0.00 3.07 -5.48 21.10 -4.28 1.31 -0.77 11636
0.00 0.00 2.45 -6.23 22.78 -4.28 1.62 -0.73 11643
0.00 0.00 3.05 -6.82 24.71 -4.28 1.94 -0.68 11651
0.00 0.00 2.48 -7.50 26.84 -4.28 2.30 -0.64 11658
0.00 0.00 1.63 -8.61 29.02 -4.28 2.60 -0.57 11665
0.00 0.00 0.10 -10.02 30.27 -4.28 2.83 -0.52 11672
0.00 0.00 -1.72 -12.58 30.12 -4.28 2.85 -0.34 11679
0.00 0.00 -2.94 -15.85 27.31 -4.28 2.71 -0.16 11686
0.00 0.00 -5.41 -18.41 23.47 -4.28 2.54 -0.01 11694
0.00 0.00 -8.32 -22.49 22.06 -4.28 2.74 0.19 11701
0.00 0.00 -12.24 -26.33 21.49 -4.28 2.69 0.34 11709
0.00 0.00 -14.72 -29.89 18.36 -4.27 1.94 0.53 11716
0.00 0.00 -13.29 -33.13 13.42 -3.96 0.89 0.72 11722
0.00 0.00 -8.38 -41.63 8.90 -3.51 -0.06 0.84 11729
0.00 0.00 -4.56 -53.14 3.45 -3.14 -0.20 0.68 11737
0.00 0.00 -4.89 -59.87 -0.30 -2.39 0.39 0.39 11744
0.00 0.00 -9.43 -59.13 -1.41 -1.32 0.91 0.02 11751
0.00 0.00 -13.14 -50.43 0.19 0.23 0.62 -0.37 11758
-0.00 0.01 -12.37 -41.09 4.25 1.51 -0.40 -0.60 11766
0.00 0.00 -6.35 -40.88 22.55 3.99 -2.38 -0.86 11772
-0.00 0.00 1.32 6.38 2.48 4.27 -1.75 -1.05 11780
-0.01 0.08 2.61 4.10 11.03 4.18 -1.69 -1.01 11787
-0.03 0.27 3.71 3.01 20.02 3.71 -1.05 -0.65 11794
-0.03 0.53 4.87 -0.29 13.23 3.63 -1.03 -0.38 11802
-0.05 0.70 2.72 -6.20 17.37 4.24 -0.98 -0.03 11809
-0.04 0.82 3.96 -3.48 17.30 4.28 -0.25 0.65 11816
-0.05 0.86 -0.17 -3.50 22.31 4.25 0.52 1.03 11824
-0.05 1.03 -5.08 -4.56 19.82 3.57 0.59 0.87 11831
-0.06 1.06 -4.80 -4.21 15.95 3.30 0.56 0.43 11838
-0.05 1.03 -2.28 -2.35 14.74 3.11 0.43 0.01 11845
-0.05 1.01 0.60 -1.48 13.27 2.79 0.33 -0.12 11852
-0.04 0.95 2.37 -1.47 12.34 2.57 0.47 0.03 11859
-0.04 0.85 0.88 -5.24 23.83 1.92 -0.11 0.25 11867
-0.04 0.76 1.59 -1.15 12.65 0.15 -0.34 0.19 11874
-0.03 0.71 -0.76 -3.48 12.23 -0.15 -0.09 0.05 11881
-0.03 0.69 -0.05 -1.67 10.36 -0.12 -0.03 0.01 11887
-0.00 0.67 0.45 -1.37 9.95 -0.10 0.01 0.04 11894
0.02 0.69 -0.02 -1.36 10.02 -0.10 0.02 0.03 11901
0.05 0.67 0.09 -1.27 9.93 -0.10 0.05 0.03 11909
0.05 0.66 0.21 -1.09 10.06 -0.10 0.08 0.03 11916
0.07 0.69 0.12 -0.97 9.93 -0.08 0.09 0.03 11923
0.07 0.69 0.21 -0.96 9.95 -0.06 0.10 0.03 11930
0.07 0.69 0.22 -0.90 9.94 -0.05 0.09 0.02 11937
0.06 0.70 0.17 -0.81 9.82 -0.03 0.09 0.02 11944
0.07 0.68 0.13 -0.83 9.81 -0.01 0.10 0.01 11952
0.05 0.70 0.18 -0.75 9.81 0.01 0.11 0.01 11959
0.07 0.68 0.19 -0.75 9.91 0.04 0.11 0.00 11966
0.06 0.68 0.29 -0.76 9.92 0.08 0.09 0.00 11973
0.07 0.62 0.36 -0.84 9.86 0.11 0.06 -0.01 11980
0.06 0.56 0.32 -0.86 9.82 0.13 0.04 -0.01 11987
0.04 0.56 0.30 -0.83 9.83 0.14 0.03 -0.02 11995
0.04 0.50 0.30 -0.86 9.84 0.15 0.02 -0.02 12002
0.04 0.44 0.30 -0.84 9.82 0.16 0.01 -0.03 12009
0.04 0.42 0.29 -0.91 9.77 0.18 0.00 -0.04 12016
0.04 0.37 0.27 -0.86 9.75 0.19 0.00 -0.05 12023
0.04 0.29 0.30 -0.96 9.72 0.19 0.01 -0.05 12030
0.04 0.29 0.31 -0.93 9.67 0.20 0.01 -0.05 12038
0.03 0.29 0.32 -0.99 9.68 0.19 0.01 -0.05 12045
0.04 0.25 0.33 -0.97 9.66 0.19 0.01 -0.06 12052
0.05 0.18 0.37 -0.98 9.65 0.18 0.01 -0.06 12059
0.06 0.19 0.38 -1.07 9.62 0.17 0.01 -0.06 12066
0.05 0.13 0.37 -1.07 9.62 0.16 0.01 -0.06 12073
0.06 0.13 0.36 -1.11 9.64 0.14 0.01 -0.06 12081
0.04 0.12 0.33 -1.12 9.59 0.14 -0.00 -0.07 12088
0.05 0.14 0.44 -1.07 9.75 0.13 -0.01 -0.07 12095
0.09 0.10 0.00 -1.08 9.95 0.13 -0.03 -0.08 12102
0.12 0.07 -0.08 -1.17 9.86 0.12 -0.05 -0.08 12109
0.09 0.12 0.52 -1.31 9.75 0.12 -0.04 -0.09 12116
0.08 0.07 0.40 -1.20 9.63 0.13 -0.05 -0.10 12124
0.08 0.06 0.23 -1.23 9.78 0.13 -0.05 -0.10 12131
0.09 0.10 0.19 -1.29 9.79 0.13 -0.05 -0.10 12138
0.10 0.09 0.31 -1.19 9.68 0.13 -0.05 -0.10 12145
0.09 0.06 0.35 -1.40 9.80 0.15 -0.04 -0.10 12152
0.12 0.04 0.22 -1.07 9.83 0.16 -0.04 -0.11 12160
0.12 0.01 0.30 -1.18 9.87 0.19 -0.03 -0.10 12167
0.13 0.04 0.30 -1.26 9.89 0.22 -0.04 -0.11 12174
0.19 0.06 0.26 -1.37 10.02 0.25 -0.04 -0.12 12181
0.21 0.04 0.29 -1.34 9.97 0.27 -0.05 -0.13 12188
0.22 0.02 0.34 -1.36 9.90 0.29 -0.06 -0.14 12195
0.24 -0.02 0.37 -1.45 10.01 0.31 -0.05 -0.15 12203
0.24 -0.02 0.42 -1.54 10.11 0.34 -0.06 -0.18 12210
0.24 -0.01 0.52 -1.55 10.43 0.36 -0.06 -0.20 12218
0.30 -0.01 0.76 -1.62 9.84 0.40 -0.06 -0.23 12224
0.37 -0.02 1.06 -1.63 10.51 0.46 -0.07 -0.29 12232
0.41 -0.03 1.79 -2.35 10.78 0.55 -0.08 -0.38 12239
0.38 -0.04 1.76 -1.81 11.76 0.66 0.11 -0.52 12246
0.42 -0.03 -1.44 -1.68 12.92 1.00 0.18 -0.47 12254
0.46 -0.03 0.10 -1.79 12.18 1.36 0.07 -0.38 12261
0.50 -0.03 -0.36 -1.73 12.91 1.55 0.14 -0.35 12268
0.52 -0.03 -0.14 -1.84 13.10 1.75 0.10 -0.27 12275
0.56 -0.02 -0.53 -1.89 13.64 1.96 0.11 -0.24 12282
0.60 -0.03 -0.39 -2.03 13.61 2.18 0.08 -0.17 12290
0.62 -0.04 0.17 -2.14 13.87 2.47 0.13 -0.12 12297
0.66 -0.03 0.02 -2.15 14.38 2.80 0.23 -0.09 12303
0.72 -0.04 0.34 -2.59 15.03 3.10 0.29 -0.10 12311
0.72 -0.04 0.80 -2.10 15.26 3.50 0.37 -0.14 12318
0.74 -0.04 1.18 -2.37 16.18 3.93 0.45 -0.19 12325
0.72 -0.04 1.18 -1.86 16.55 4.23 0.50 -0.30 12333
0.72 -0.03 1.50 -2.44 17.81 4.28 0.46 -0.34 12340
0.65 -0.03 2.89 -2.78 17.67 4.28 0.22 -0.46 12347
0.60 -0.03 2.38 -2.65 17.97 4.28 -0.02 -0.59 12354
0.43 -0.02 1.40 -3.66 20.30 4.28 -0.16 -0.71 12361
0.32 -0.03 0.61 -5.75 26.79 4.28 -0.43 -0.72 12368
0.19 -0.02 2.19 -6.39 26.22 4.28 -0.80 -0.67 12375
0.11 -0.01 -0.63 -6.86 25.58 4.28 -0.82 -0.82 12382
0.08 -0.00 -4.25 -7.92 34.42 4.28 -0.96 -0.85 12390
0.06 -0.01 -4.33 -10.93 35.97 4.28 -1.91 -0.58 12397
0.06 -0.01 -0.65 -7.69 30.12 4.28 -2.75 -0.50 12403
0.03 -0.00 4.34 -4.91 33.22 4.28 -3.34 -0.41 12410
0.03 -0.00 9.65 1.74 32.85 4.28 -3.34 -0.23 12418
0.04 -0.00 10.61 8.07 27.47 4.28 -2.80 -0.13 12426
0.04 -0.00 11.35 15.27 22.47 4.28 -1.84 -0.15 12433
0.00 0.00 9.59 35.25 13.88 4.28 -1.10 -0.43 12439
0.00 0.00 12.76 29.50 0.38 3.50 -0.14 -0.64 12446
0.00 0.00 6.41 21.16 29.04 0.61 0.67 -0.53 12453
0.00 0.00 0.02 19.07 21.79 -1.88 0.77 -0.53 12461
0.00 0.00 -1.94 15.96 15.98 -2.73 0.21 -0.54 12468
0.00 0.00 -1.21 12.10 11.52 -2.81 -0.57 -0.63 12475
0.00 0.00 0.65 9.99 9.59 -2.68 -1.04 -0.74 12482
0.00 0.00 2.49 8.77 8.56 -2.62 -0.92 -0.85 12489
0.00 0.00 3.33 8.41 7.53 -2.71 -0.56 -0.92 12496
0.00 0.00 2.29 8.57 7.72 -3.00 -0.06 -0.97 12504
0.00 0.00 0.92 8.44 8.35 -3.37 0.29 -0.96 12511
0.00 0.00 -1.10 8.20 8.82 -3.88 0.50 -0.89 12518
0.00 0.00 -2.43 7.35 9.29 -4.21 0.45 -0.76 12525
0.00 0.00 -2.71 6.47 9.67 -4.28 0.30 -0.63 12532
0.00 0.00 -2.30 5.14 9.81 -4.28 0.12 -0.50 12539
0.00 0.00 -1.67 3.88 9.83 -4.28 0.07 -0.43 12547
0.00 0.00 -0.94 2.92 10.06 -4.28 0.13 -0.40 12554
0.00 -0.00 -0.72 2.08 10.17 -4.28 0.30 -0.41 12561
0.00 0.00 -1.05 1.72 11.01 -4.28 0.44 -0.44 12568
0.00 0.00 -1.06 1.04 11.63 -4.28 0.68 -0.47 12575
0.00 0.00 -1.61 0.88 12.17 -4.28 0.82 -0.51 12582
0.00 0.00 -1.55 0.70 12.92 -4.28 0.91 -0.55 12590
0.00 0.00 -1.78 0.06 14.55 -4.28 1.00 -0.59 12597
0.00 0.00 -2.21 0.36 14.77 -4.28 0.95 -0.63 12604
0.00 0.00 -1.97 -0.23 16.21 -4.28 0.94 -0.65 12611
0.00 0.00 -1.91 -0.37 17.21 -4.28 0.91 -0.63 12618
0.00 0.00 -1.37 -0.77 18.60 -4.28 0.89 -0.62 12625
0.00 0.00 -1.15 -1.19 19.04 -4.28 0.94 -0.56 12633
0.00 0.00 -0.70 -1.99 19.87 -4.28 1.01 -0.47 12640
0.00 0.00 -0.15 -2.86 20.82 -4.28 1.19 -0.38 12647
0.00 0.00 0.22 -4.22 22.55 -4.28 1.41 -0.26 12654
0.00 0.00 0.40 -5.93 24.69 -4.28 1.61 -0.14 12661
0.00 0.00 0.81 -6.82 26.63 -4.28 1.83 -0.14 12668
0.00 0.00 1.41 -8.98 28.82 -4.28 2.16 -0.15 12676
0.00 0.00 1.32 -10.50 30.30 -4.28 2.40 -0.16 12683
0.00 0.00 -0.03 -12.13 30.98 -4.28 2.56 -0.13 12690
0.00 0.00 -1.24 -14.51 30.13 -4.28 2.52 -0.06 12697
0.00 0.00 -2.75 -17.23 28.15 -4.28 2.38 0.06 12704
0.00 0.00 -4.42 -22.11 25.85 -4.28 2.38 0.19 12711
0.00 0.00 -5.91 -26.53 23.51 -4.28 2.34 0.20 12719
0.00 -0.00 -7.88 -31.26 20.54 -4.28 1.98 0.25 12727
0.00 0.00 -8.16 -37.04 16.20 -4.28 1.53 0.31 12733
0.00 0.00 -7.22 -46.77 10.91 -4.01 1.16 0.32 12740
0.00 0.00 -8.77 -60.74 2.75 -3.64 1.18 0.13 12747
0.00 0.00 -12.26 -69.60 -1.34 -2.76 1.39 -0.05 12754
0.00 0.00 -18.44 -69.22 -1.79 -1.15 1.06 -0.27 12762
0.00 0.00 -18.58 -57.92 -0.54 0.45 0.05 -0.46 12769
0.00 0.00 -13.58 -45.88 -0.01 1.95 -1.46 -0.62 12776
0.00 0.00 -8.20 -17.75 17.54 4.28 -3.07 -1.07 12783
-0.00 0.04 6.09 14.20 2.40 4.28 -2.39 -1.07 12790
-0.01 0.11 1.90 0.38 22.71 4.09 -2.00 -0.71 12797
-0.04 0.48 5.29 0.81 16.16 3.55 -1.30 -0.19 12806
-0.03 0.68 2.92 -1.22 13.84 3.87 -1.23 0.12 12813
-0.05 0.85 1.61 -6.33 20.62 4.28 -0.78 0.54 12820
-0.05 0.97 1.19 -4.15 19.71 4.28 0.32 1.17 12827
-0.06 1.07 -5.59 -4.90 25.59 4.14 0.69 1.20 12834
-0.06 1.13 -5.71 -4.33 18.75 3.37 0.50 0.60 12841
-0.06 1.12 -3.91 -3.58 15.11 3.23 0.48 0.04 12849
-0.05 1.07 -0.05 -1.68 13.93 2.96 0.51 -0.12 12856
-0.05 0.99 2.11 -1.13 12.85 2.67 0.60 -0.05 12863
-0.04 0.98 2.86 -1.40 13.56 2.49 0.72 0.16 12870
-0.05 0.85 -1.34 -4.42 19.11 0.88 -0.15 0.24 12877
-0.03 0.80 0.28 -3.45 13.53 -0.04 -0.12 0.09 12884
-0.03 0.77 -0.82 -2.78 11.36 -0.11 -0.02 -0.02 12892
-0.01 0.68 0.75 -1.25 10.08 -0.08 0.03 0.03 12898
0.00 0.68 0.33 -1.06 9.92 -0.07 0.02 0.05 12905
0.01 0.67 0.18 -1.27 10.03 -0.09 0.04 0.03 12912
0.04 0.71 0.43 -1.09 10.05 -0.09 0.07 0.03 12919
0.04 0.69 0.33 -0.92 9.99 -0.07 0.07 0.02 12926
0.07 0.70 0.26 -0.95 9.85 -0.06 0.09 0.02 12934
0.09 0.71 0.40 -0.89 9.87 -0.05 0.10 0.01 12941
0.08 0.71 0.34 -0.79 9.90 -0.03 0.10 0.01 12948
0.07 0.70 0.30 -0.78 9.82 -0.01 0.10 0.01 12955
0.07 0.68 0.30 -0.70 9.82 0.01 0.11 0.00 12962
0.06 0.69 0.35 -0.69 9.85 0.04 0.11 -0.00 12969
0.07 0.67 0.42 -0.68 9.89 0.07 0.10 -0.01 12977
0.06 0.65 0.43 -0.73 9.87 0.10 0.07 -0.01 12984
0.03 0.59 0.47 -0.78 9.86 0.13 0.05 -0.02 12991
0.01 0.59 0.50 -0.80 9.82 0.14 0.01 -0.02 12998
0.02 0.51 0.50 -0.80 9.87 0.15 -0.01 -0.02 13005
0.03 0.47 0.50 -0.83 9.86 0.16 -0.03 -0.03 13012
0.04 0.40 0.46 -0.86 9.80 0.17 -0.05 -0.04 13020
0.03 0.36 0.50 -0.86 9.75 0.18 -0.05 -0.04 13027
0.04 0.33 0.46 -0.88 9.70 0.18 -0.07 -0.05 13034
0.04 0.27 0.42 -0.86 9.69 0.18 -0.07 -0.06 13041
0.05 0.31 0.45 -0.95 9.64 0.19 -0.08 -0.06 13048
0.07 0.24 0.46 -0.92 9.66 0.18 -0.09 -0.07 13056
0.07 0.24 0.48 -0.97 9.64 0.17 -0.09 -0.07 13063
0.06 0.18 0.44 -1.04 9.62 0.15 -0.09 -0.07 13070
0.08 0.16 0.44 -1.05 9.63 0.14 -0.09 -0.08 13077
0.10 0.14 0.39 -1.05 9.66 0.13 -0.09 -0.08 13084
0.13 0.14 0.43 -1.06 9.62 0.12 -0.09 -0.08 13091
0.13 0.14 0.41 -1.19 9.64 0.11 -0.08 -0.08 13099
0.14 0.13 0.44 -0.68 9.73 0.12 -0.09 -0.09 13106
0.10 0.10 0.44 -1.10 9.53 0.12 -0.08 -0.09 13113
0.18 0.10 0.36 -1.14 9.82 0.12 -0.07 -0.10 13120
0.16 0.10 0.32 -1.03 9.74 0.13 -0.07 -0.10 13127
0.16 0.10 0.30 -1.19 9.75 0.14 -0.07 -0.10 13134
0.18 0.10 0.31 -1.17 9.79 0.15 -0.06 -0.10 13142
0.19 0.07 0.22 -1.15 9.81 0.16 -0.06 -0.10 13149
0.19 0.06 0.21 -1.20 9.85 0.17 -0.04 -0.11 13156
0.16 0.08 0.28 -1.09 9.20 0.19 -0.03 -0.11 13163
0.18 0.04 0.34 -1.21 9.81 0.20 -0.02 -0.11 13170
0.22 0.03 0.32 -1.28 9.88 0.22 -0.03 -0.11 13177
0.28 0.02 0.33 -1.23 9.83 0.25 -0.03 -0.12 13185
0.29 0.02 0.47 -1.25 10.01 0.26 -0.04 -0.13 13193
0.28 0.01 0.41 -1.32 10.05 0.29 -0.04 -0.14 13200
0.29 -0.00 0.33 -1.43 10.04 0.32 -0.05 -0.15 13206
0.37 -0.01 0.53 -1.46 10.16 0.34 -0.05 -0.17 13214
0.42 -0.02 0.58 -1.59 10.43 0.39 -0.05 -0.20 13221
0.44 -0.03 0.73 -1.64 10.70 0.42 -0.05 -0.23 13229
0.49 -0.02 0.93 -1.66 10.87 0.50 -0.07 -0.28 13236
0.50 -0.04 1.35 -1.73 11.11 0.62 -0.11 -0.34 13243
0.51 -0.03 0.31 -1.86 12.78 0.79 0.09 -0.43 13250
0.56 -0.02 -1.43 -1.45 12.88 1.18 0.04 -0.35 13257
0.62 -0.03 -0.06 -1.90 12.23 1.42 -0.02 -0.26 13264
0.65 -0.04 -0.12 -1.73 13.17 1.56 0.02 -0.23 13272
0.65 -0.04 -0.10 -1.73 13.53 1.81 0.01 -0.18 13279
0.70 -0.05 -0.24 -2.03 13.62 2.02 0.03 -0.15 13285
0.71 -0.03 0.05 -2.05 13.88 2.31 0.06 -0.12 13293
0.78 -0.01 0.79 -2.17 14.27 2.63 0.09 -0.13 13300
0.82 -0.03 0.81 -2.33 14.95 2.93 0.08 -0.17 13307
0.80 -0.03 1.12 -2.35 15.20 3.29 0.07 -0.22 13315
0.77 -0.04 0.92 -2.38 15.49 3.59 0.11 -0.28 13322
0.77 -0.04 1.11 -2.46 15.79 3.99 0.13 -0.33 13329
0.78 -0.04 1.67 -2.76 16.62 4.26 0.11 -0.40 13336
0.76 -0.03 1.95 -2.46 16.93 4.28 -0.04 -0.51 13343
0.71 -0.03 2.52 0.61 17.18 4.28 -0.30 -0.59 13350
0.65 -0.03 1.53 -2.79 17.70 4.28 -0.40 -0.73 13358
0.49 -0.03 1.36 -4.31 20.30 4.28 -0.51 -0.79 13365
0.34 -0.02 2.28 -5.85 23.10 4.28 -0.60 -0.80 13372
0.22 -0.01 1.73 -6.01 23.68 4.28 -0.45 -0.83 13379
0.11 -0.01 -3.92 -7.13 27.92 4.28 -0.46 -0.87 13386
0.06 -0.01 -5.35 -8.74 32.85 4.28 -1.27 -0.78 13392
0.07 -0.01 -0.08 -11.41 30.14 4.28 -2.06 -0.48 13401
0.04 -0.00 4.35 -8.02 28.22 4.28 -2.35 -0.62 13407
0.01 -0.00 6.22 -5.32 31.59 4.28 -2.23 -0.61 13414
0.02 -0.00 8.67 -0.63 30.12 4.28 -2.07 -0.56 13421
0.03 -0.00 9.38 5.63 23.88 4.28 -1.68 -0.60 13428
0.05 -0.00 9.04 14.95 20.12 4.28 -1.27 -0.70 13435
0.00 0.00 8.91 33.35 13.90 4.22 -0.97 -0.94 13443
0.00 0.00 10.56 23.69 6.05 3.01 -0.57 -0.74 13450
0.00 0.00 6.41 17.93 27.74 0.18 -0.27 -0.30 13457
0.00 0.00 1.35 16.07 20.37 -1.61 -0.30 -0.21 13464
0.00 -0.00 0.17 13.60 13.40 -2.08 -0.78 -0.16 13471
0.00 0.00 1.16 11.13 10.05 -2.16 -1.53 -0.27 13478
0.00 0.00 3.26 9.42 9.02 -2.14 -1.74 -0.47 13486
0.00 0.00 4.85 8.76 8.19 -2.17 -1.44 -0.61 13493
0.00 0.00 5.21 8.90 6.86 -2.38 -0.78 -0.77 13500
0.00 0.00 3.84 9.04 6.94 -2.69 -0.21 -0.88 13507
0.00 0.00 1.71 8.50 7.65 -3.10 0.25 -0.93 13514
0.00 0.00 -0.26 8.01 7.95 -3.46 0.45 -0.90 13521
0.00 0.00 -1.40 7.31 8.18 -3.84 0.43 -0.82 13529
0.00 0.00 -1.90 6.34 8.43 -4.12 0.32 -0.68 13536
0.00 0.00 -1.81 5.18 8.81 -4.23 0.23 -0.53 13543
-0.00 0.00 -1.31 4.31 8.93 -4.28 0.21 -0.42 13550
0.00 0.00 -0.95 3.43 9.13 -4.28 0.28 -0.32 13557
0.00 0.00 -0.90 2.74 9.42 -4.28 0.41 -0.26 13564
0.00 0.00 -1.27 2.30 10.24 -4.28 0.55 -0.22 13572
0.00 0.00 -0.98 1.50 10.77 -4.28 0.74 -0.18 13579
0.00 0.00 -1.65 1.31 11.38 -4.28 0.81 -0.17 13586
0.00 0.00 -1.68 0.57 12.51 -4.28 0.90 -0.20 13593
0.00 0.00 -2.99 0.54 13.44 -4.28 0.89 -0.22 13600
0.00 0.00 -1.50 -0.98 14.49 -4.28 1.00 -0.26 13607
0.00 0.00 -3.14 0.28 14.83 -4.28 0.85 -0.36 13615
0.00 0.00 -2.02 -1.24 16.24 -4.28 0.89 -0.44 13622
0.00 0.00 -2.24 -1.14 17.17 -4.28 0.85 -0.51 13629
0.00 0.00 -1.43 -1.76 17.63 -4.28 0.89 -0.58 13636
0.00 0.00 -1.41 -1.96 18.25 -4.28 1.02 -0.58 13643
0.00 0.00 -0.72 -3.08 19.30 -4.28 1.22 -0.56 13650
0.00 0.00 -0.68 -3.60 20.03 -4.28 1.41 -0.50 13658
0.00 0.00 -0.57 -4.62 21.12 -4.28 1.63 -0.41 13665
-0.00 0.00 -0.58 -5.40 22.89 -4.28 1.79 -0.27 13672
0.00 -0.00 -0.39 -6.05 24.46 -4.28 1.88 -0.15 13679
0.00 0.00 -0.21 -6.91 25.89 -4.28 2.04 0.00 13686
0.00 0.00 -0.45 -7.98 27.30 -4.28 2.23 0.09 13693
0.00 0.00 -1.37 -9.18 28.46 -4.28 2.46 0.12 13701
0.00 0.00 -3.57 -10.57 28.72 -4.28 2.57 0.09 13708
0.00 0.00 -5.33 -12.28 28.15 -4.28 2.49 0.03 13715
0.00 -0.00 -7.46 -15.06 26.24 -4.28 2.23 -0.04 13722
0.00 0.00 -9.54 -18.90 23.66 -4.28 1.98 -0.00 13729
0.00 0.00 -11.56 -22.74 21.58 -4.28 1.68 0.06 13736
0.00 0.00 -11.36 -26.76 18.87 -4.28 1.11 0.20 13744
0.00 0.00 -9.54 -31.60 15.49 -4.25 0.50 0.40 13751
0.00 0.00 -5.74 -42.09 10.78 -3.97 0.02 0.59 13758
0.00 0.00 -3.84 -56.69 2.45 -3.66 0.03 0.56 13765
0.00 0.00 -5.45 -65.29 -2.77 -2.83 0.65 0.42 13772
0.00 0.00 -11.89 -64.72 -2.96 -1.49 1.03 0.22 13779
0.00 0.00 -16.02 -56.25 -0.38 0.38 0.48 0.06 13787
0.00 0.00 -14.25 -43.25 4.15 1.85 -0.82 -0.07 13794
0.00 0.00 -9.53 -31.60 9.23 2.47 -1.65 -0.12 13801
0.00 0.00 -5.22 -24.63 12.33 2.50 -1.91 -0.11 13808
0.00 0.00 -9.50 16.19 44.87 3.99 -1.32 -0.96 13815
-0.00 0.04 6.14 18.44 5.27 3.11 0.12 -0.93 13822
-0.03 0.31 4.51 6.84 10.84 2.97 -0.98 -0.95 13830
-0.04 0.50 4.55 -1.37 12.22 3.36 -1.49 -0.82 13838
-0.03 0.68 6.22 -4.02 13.14 4.09 -1.32 -0.38 13845
-0.04 0.76 6.36 -3.73 17.25 4.28 -0.03 0.62 13852
-0.05 0.90 0.87 -3.31 20.85 4.27 0.91 1.37 13859
-0.07 1.04 -5.01 -4.89 21.74 3.76 0.90 1.35 13867
-0.05 1.07 -6.93 -4.21 16.24 3.51 0.94 0.77 13874
-0.06 1.12 -5.20 -3.60 16.03 3.43 0.81 0.11 13881
-0.04 1.14 -0.39 -2.58 15.48 2.98 0.64 -0.19 13888
-0.05 1.14 2.66 -1.90 13.99 2.61 0.73 -0.16 13895
-0.06 1.07 3.47 -3.64 22.93 1.98 0.61 0.08 13902
-0.08 1.02 1.45 -1.65 12.72 0.24 -0.11 0.16 13910
-0.06 0.97 -0.40 -3.33 12.86 -0.05 -0.09 0.06 13916
-0.06 0.94 -0.05 -1.55 10.57 -0.03 -0.03 -0.00 13923
-0.02 0.90 0.57 -0.96 9.87 -0.03 0.01 0.02 13930
-0.02 0.83 0.16 -1.15 9.84 -0.04 0.02 0.04 13937
-0.00 0.83 0.10 -1.13 9.99 -0.06 0.04 0.02 13944
-0.01 0.86 0.40 -1.03 10.02 -0.05 0.05 0.02 13952
-0.00 0.80 0.27 -0.96 9.88 -0.04 0.05 0.02 13959
0.00 0.82 0.32 -0.90 9.92 -0.03 0.05 0.01 13966
0.01 0.80 0.33 -0.85 9.83 -0.01 0.05 0.01 13973
0.01 0.81 0.28 -0.77 9.82 0.00 0.06 0.01 13980
0.01 0.80 0.26 -0.72 9.78 0.02 0.07 -0.00 13987
0.01 0.75 0.33 -0.71 9.85 0.05 0.07 -0.01 13995
0.02 0.75 0.38 -0.72 9.86 0.07 0.06 -0.01 14002
0.04 0.74 0.37 -0.77 9.86 0.10 0.04 -0.02 14009
0.03 0.69 0.36 -0.77 9.87 0.12 0.02 -0.02 14016
0.02 0.65 0.38 -0.78 9.85 0.13 0.00 -0.02 14023
0.02 0.62 0.34 -0.78 9.83 0.15 -0.00 -0.02 14030
0.01 0.57 0.34 -0.79 9.84 0.20 -0.01 -0.03 14038
0.02 0.49 0.37 -0.90 9.75 0.18 -0.02 -0.04 14045
0.03 0.46 0.38 -0.83 9.81 0.20 -0.02 -0.04 14052
0.04 0.37 0.41 -0.87 9.69 0.20 -0.03 -0.05 14059
0.02 0.39 0.32 -0.88 9.75 0.20 -0.03 -0.05 14066
0.02 0.37 0.32 -0.90 9.74 0.20 -0.02 -0.05 14073
0.02 0.32 0.39 -0.98 9.67 0.20 -0.02 -0.06 14081
0.05 0.27 0.43 -0.95 9.65 0.20 -0.02 -0.06 14088
0.06 0.24 0.45 -0.99 9.70 0.19 -0.04 -0.06 14095
0.06 0.20 0.52 -1.02 9.68 0.18 -0.05 -0.07 14102
0.07 0.14 0.44 -1.03 9.66 0.17 -0.08 -0.08 14109
0.06 0.15 0.45 -1.08 9.63 0.15 -0.09 -0.08 14116
0.08 0.15 0.45 -1.07 9.62 0.14 -0.11 -0.08 14124
0.09 0.12 0.57 -1.01 9.66 0.13 -0.13 -0.09 14131
0.14 0.16 0.21 -1.79 9.70 0.12 -0.15 -0.09 14138
0.12 0.12 0.17 -1.47 9.84 0.12 -0.15 -0.10 14145
0.14 0.06 0.09 -1.15 9.86 0.12 -0.15 -0.10 14152
0.15 0.08 0.31 -1.19 9.82 0.13 -0.15 -0.11 14159
0.17 0.09 0.31 -1.25 9.79 0.13 -0.14 -0.11 14167
0.21 0.08 0.21 -0.68 9.66 0.13 -0.12 -0.11 14174
0.20 0.09 -0.02 -1.32 9.81 0.14 -0.11 -0.11 14181
0.21 0.06 0.25 -1.15 9.85 0.15 -0.10 -0.11 14188
0.23 0.04 0.21 -1.22 9.22 0.17 -0.09 -0.11 14195
0.23 0.04 0.24 -1.20 9.92 0.19 -0.09 -0.11 14202
0.24 0.04 0.24 -1.20 9.92 0.21 -0.09 -0.12 14210
0.25 0.01 0.39 -1.23 10.02 0.24 -0.11 -0.13 14218
0.30 0.03 0.36 -1.28 9.97 0.26 -0.12 -0.14 14224
0.34 0.03 0.18 -1.41 10.00 0.29 -0.14 -0.16 14232
0.36 -0.02 0.38 -1.51 10.04 0.32 -0.14 -0.19 14239
0.43 -0.02 0.03 -1.57 10.13 0.35 -0.16 -0.22 14246
0.51 -0.02 0.66 -1.64 10.35 0.41 -0.19 -0.26 14254
0.56 -0.04 0.70 -1.49 10.65 0.47 -0.29 -0.31 14261
0.61 -0.04 0.91 -1.71 10.71 0.56 -0.38 -0.35 14268
0.64 -0.04 0.81 -1.72 10.71 0.63 -0.40 -0.41 14275
0.72 -0.03 1.55 -1.99 10.88 0.70 -0.30 -0.48 14282
0.76 -0.04 -1.20 -1.77 13.63 0.92 -0.07 -0.53 14289
0.80 -0.03 -1.72 -1.46 13.15 1.31 -0.18 -0.33 14297
0.86 -0.05 -0.21 -1.90 12.91 1.55 -0.11 -0.25 14304
0.90 -0.05 -0.77 -1.91 13.15 1.78 0.00 -0.21 14311
0.93 -0.06 -0.59 -1.90 13.42 2.00 0.12 -0.15 14318
0.94 -0.05 -0.69 -2.01 14.43 2.27 0.28 -0.12 14325
0.93 -0.04 -0.23 -2.17 14.79 2.60 0.40 -0.07 14332
0.93 -0.02 0.67 -2.20 14.97 2.94 0.43 -0.09 14340
0.90 -0.03 0.81 -2.46 15.47 3.33 0.45 -0.15 14347
0.87 -0.03 0.83 -2.48 15.93 3.69 0.50 -0.22 14354
0.85 -0.03 0.85 -2.05 17.07 4.12 0.58 -0.27 14361
0.79 -0.03 1.78 -1.98 17.69 4.28 0.46 -0.33 14368
0.76 -0.03 3.02 -3.08 18.41 4.28 0.20 -0.47 14375
0.67 -0.02 1.94 -2.64 18.33 4.28 -0.07 -0.59 14383
0.54 -0.03 1.68 -2.96 19.00 4.28 -0.26 -0.72 14390
0.39 -0.02 0.96 -5.17 23.90 4.28 -0.44 -0.78 14397
0.22 -0.02 1.16 -5.72 25.54 4.28 -0.64 -0.74 14403
0.13 -0.01 -0.46 -4.27 23.78 4.28 -0.69 -0.77 14410
0.10 0.00 -3.33 -7.21 30.02 4.28 -0.80 -0.86 14417
0.09 -0.01 -2.24 -9.90 32.35 4.28 -1.98 -0.73 14425
0.08 -0.01 0.68 -7.53 29.67 4.28 -2.58 -0.69 14432
0.06 -0.01 4.14 -7.68 30.93 4.28 -2.89 -0.71 14439
0.02 -0.00 8.44 0.03 29.25 4.28 -2.88 -0.60 14446
0.01 -0.00 9.32 4.11 25.36 4.28 -2.60 -0.53 14453
0.00 0.00 10.14 9.64 20.76 4.28 -1.89 -0.55 14460
0.00 0.00 10.93 25.27 17.58 4.28 -1.13 -0.69 14468
0.00 0.00 11.52 26.02 1.65 4.13 -0.25 -0.92 14475
0.00 0.00 8.56 18.09 21.11 2.39 0.66 -0.75 14482
0.00 0.00 3.39 17.33 23.94 -0.35 0.84 -0.61 14489
0.00 0.00 -0.33 16.40 15.90 -1.76 0.50 -0.46 14496
0.00 0.00 -1.41 12.87 12.10 -2.31 -0.26 -0.38 14503
0.00 0.00 -0.80 10.06 10.31 -2.49 -1.11 -0.39 14511
0.00 0.00 1.23 8.27 8.74 -2.48 -1.40 -0.44 14518
0.00 0.00 2.78 7.75 6.29 -2.52 -1.31 -0.49 14525
0.00 0.00 3.57 7.31 5.90 -2.65 -0.91 -0.55 14532
0.00 0.00 3.28 6.84 6.38 -2.83 -0.43 -0.60 14539
0.00 0.00 1.96 6.50 6.47 -3.10 0.13 -0.61 14546
0.00 0.00 0.00 6.26 6.93 -3.34 0.48 -0.56 14554
0.00 0.00 -1.40 5.89 7.41 -3.62 0.54 -0.47 14561
0.00 0.00 -2.34 5.38 8.15 -3.89 0.43 -0.34 14568
0.00 0.00 -2.22 4.78 8.77 -4.09 0.30 -0.20 14575
0.00 0.00 -1.78 4.43 9.20 -4.24 0.22 -0.10 14582
0.00 0.00 -1.35 3.74 9.72 -4.28 0.27 -0.02 14589
0.00 0.00 -1.31 3.15 9.93 -4.28 0.36 0.03 14597
0.00 0.00 -1.40 2.18 10.72 -4.28 0.50 0.04 14604
0.00 0.00 -1.25 1.50 11.02 -4.28 0.66 0.04 14611
0.00 0.00 -1.75 1.13 11.59 -4.28 0.71 0.01 14618
0.00 0.00 -2.01 0.08 12.99 -4.28 0.80 -0.02 14625
0.00 0.00 -2.31 0.10 12.84 -4.28 0.80 -0.10 14632
0.00 0.00 -1.25 -1.33 14.80 -4.28 0.89 -0.15 14640
0.00 0.00 -2.69 0.03 14.47 -4.28 0.76 -0.27 14647
0.00 0.00 -1.77 -1.66 16.43 -4.28 0.79 -0.34 14654
0.00 0.00 -1.65 -1.20 16.91 -4.28 0.76 -0.38 14661
0.00 0.00 -0.72 -1.97 18.02 -4.28 0.79 -0.42 14668
0.00 -0.00 -0.64 -2.34 18.45 -4.28 0.90 -0.39 14675
0.00 0.00 0.12 -3.41 19.27 -4.28 1.06 -0.34 14683
0.00 0.00 0.30 -4.24 19.89 -4.28 1.23 -0.27 14690
0.00 0.00 0.82 -5.73 20.91 -4.28 1.42 -0.16 14697
0.00 0.00 1.76 -6.84 22.45 -4.28 1.59 -0.02 14704
-0.00 0.00 1.73 -7.73 24.22 -4.24 1.84 0.09 14711
0.00 0.00 1.76 -8.52 26.41 -4.21 2.15 0.21 14718
0.00 0.00 1.33 -9.34 28.22 -4.26 2.43 0.27 14726
0.00 0.00 0.08 -10.86 29.33 -4.28 2.61 0.31 14733
0.00 0.00 -1.44 -13.05 29.04 -4.28 2.54 0.34 14740
0.00 0.00 -3.38 -15.11 27.39 -4.28 2.32 0.36 14747
0.00 -0.00 -4.70 -18.10 24.19 -4.28 1.98 0.40 14754
0.00 0.00 -6.12 -22.13 21.48 -4.28 1.77 0.47 14761
0.00 0.00 -7.66 -25.77 19.63 -4.28 1.63 0.55 14769
0.00 0.00 -7.78 -29.54 16.48 -4.26 1.17 0.56 14776
0.00 0.00 -6.28 -35.95 12.24 -3.99 0.81 0.55 14783
0.00 0.00 -5.00 -47.10 6.21 -3.72 0.56 0.35 14790
0.00 0.00 -6.28 -59.23 -0.17 -3.33 0.77 0.10 14797
0.00 0.00 -10.31 -64.06 -2.61 -2.16 1.19 -0.09 14804
0.00 0.00 -15.50 -57.92 -2.54 -0.64 0.74 -0.32 14812
0.00 0.00 -14.75 -47.37 1.46 1.10 -0.37 -0.49 14819
0.00 0.00 -10.09 -35.85 6.33 2.26 -1.62 -0.61 14826
0.00 0.00 14.67 -31.27 21.97 2.97 -2.18 -0.86 14833
0.00 0.00 -4.05 5.20 15.97 4.20 -1.81 -1.09 14840
-0.00 0.05 3.66 9.73 9.66 3.48 -1.36 -1.05 14848
-0.01 0.14 3.91 4.07 16.07 3.16 -1.35 -0.78 14855
-0.04 0.40 4.55 -0.36 11.84 3.23 -1.29 -0.47 14863
-0.04 0.53 2.69 -4.46 13.57 3.83 -1.16 -0.07 14870
-0.05 0.70 3.68 -3.47 17.25 4.27 -0.35 0.48 14877
-0.04 0.79 0.45 -2.44 19.26 4.20 0.50 0.97 14884
-0.06 0.86 -4.23 -4.52 21.32 3.61 0.57 0.94 14892
-0.04 0.92 -4.91 -3.95 16.05 3.18 0.64 0.58 14899
-0.06 0.92 -3.52 -3.33 15.14 3.09 0.58 0.11 14906
-0.05 0.93 -0.63 -1.73 14.32 2.79 0.48 -0.13 14913
-0.05 0.91 2.16 -1.52 13.11 2.42 0.57 -0.13 14920
-0.04 0.86 1.89 -5.36 23.95 1.87 0.14 0.09 14927
-0.04 0.79 2.14 -1.13 12.16 0.07 -0.19 0.12 14935
-0.04 0.76 -0.97 -3.50 12.24 -0.14 -0.05 0.02 14942
-0.04 0.70 0.03 -1.23 9.90 -0.09 -0.03 -0.02 14948
-0.02 0.71 0.50 -1.09 10.12 -0.09 0.01 0.02 14955
0.00 0.70 0.02 -1.01 9.72 -0.09 0.02 0.02 14962
0.02 0.68 0.12 -1.19 9.85 -0.12 0.05 0.01 14969
-0.00 0.71 0.36 -1.05 10.08 -0.12 0.07 0.01 14977
0.01 0.69 0.26 -0.89 9.93 -0.10 0.07 0.01 14984
0.00 0.71 0.26 -0.90 9.88 -0.08 0.08 0.01 14991
0.03 0.72 0.36 -0.86 9.98 -0.07 0.07 0.01 14998
0.04 0.75 0.28 -0.71 9.83 -0.05 0.06 0.00 15005
0.04 0.75 0.24 -0.75 9.81 -0.03 0.07 0.00 15012
0.02 0.76 0.26 -0.71 9.80 -0.01 0.07 -0.00 15020
-0.01 0.74 0.30 -0.68 9.85 0.01 0.07 -0.01 15027
0.01 0.73 0.28 -0.70 9.92 0.06 0.06 -0.02 15034
0.02 0.70 0.36 -0.72 9.92 0.06 0.03 -0.02 15041
0.03 0.67 0.36 -0.72 9.90 0.09 0.01 -0.02 15048
0.03 0.62 0.32 -0.73 9.87 0.10 -0.01 -0.02 15055
0.04 0.54 0.26 -0.78 9.83 0.12 -0.03 -0.03 15063
0.03 0.54 0.29 -0.75 9.84 0.13 -0.03 -0.03 15070
0.01 0.51 0.28 -0.76 9.81 0.15 -0.04 -0.04 15077
0.02 0.51 0.31 -0.81 9.78 0.17 -0.04 -0.05 15084
0.03 0.49 0.35 -0.81 9.70 0.17 -0.04 -0.05 15091
0.04 0.41 0.27 -0.83 9.68 0.17 -0.04 -0.06 15098
0.04 0.34 0.31 -0.84 9.60 0.16 -0.04 -0.06 15106
0.02 0.33 0.32 -0.86 9.59 0.15 -0.04 -0.06 15113
0.04 0.29 0.35 -0.89 9.64 0.15 -0.05 -0.06 15120
0.05 0.31 0.37 -0.93 9.63 0.14 -0.05 -0.07 15127
0.05 0.25 0.36 -0.94 9.60 0.13 -0.06 -0.07 15134
0.04 0.30 0.37 -0.97 9.59 0.11 -0.06 -0.07 15141
0.05 0.25 0.34 -0.96 9.60 0.10 -0.06 -0.08 15149
0.04 0.27 0.42 -0.94 9.57 0.10 -0.07 -0.08 15156
0.08 0.29 0.45 -0.74 9.68 0.09 -0.07 -0.08 15163
0.09 0.25 0.46 -1.13 10.10 0.10 -0.07 -0.08 15170
0.09 0.19 0.28 -1.08 9.72 0.11 -0.08 -0.09 15177
0.10 0.22 0.27 -0.96 9.79 0.12 -0.08 -0.09 15184
0.09 0.21 0.44 -0.95 9.42 0.13 -0.08 -0.09 15192
0.09 0.16 0.01 -1.17 9.78 0.14 -0.08 -0.10 15199
0.11 0.11 0.00 -1.14 9.84 0.16 -0.08 -0.10 15206
0.15 0.10 0.27 -1.02 9.85 0.18 -0.07 -0.10 15213
0.15 0.07 0.21 -1.02 9.91 0.20 -0.06 -0.10 15220
0.18 0.06 0.17 -1.10 9.92 0.23 -0.06 -0.10 15227
0.17 0.07 0.28 -1.07 9.89 0.26 -0.06 -0.11 15235
0.24 0.07 0.21 -1.12 9.87 0.29 -0.06 -0.12 15242
0.32 0.05 0.28 -1.20 10.00 0.31 -0.07 -0.13 15249
0.34 0.04 0.31 -1.28 10.02 0.33 -0.09 -0.14 15256
0.37 0.01 0.27 -1.36 10.14 0.36 -0.10 -0.16 15264
0.38 -0.02 0.47 -1.48 10.24 0.40 -0.13 -0.20 15271
0.40 -0.03 0.08 -1.60 10.33 0.46 -0.17 -0.26 15278
0.50 -0.03 0.77 -1.49 10.60 0.54 -0.27 -0.29 15286
0.56 -0.03 1.06 -1.53 10.76 0.63 -0.40 -0.36 15293
0.61 -0.03 0.94 -1.58 10.76 0.71 -0.44 -0.43 15300
0.67 -0.04 1.88 -1.94 10.98 0.79 -0.29 -0.52 15307
0.74 -0.05 -1.93 -1.42 13.39 1.04 -0.05 -0.48 15314
0.76 -0.05 -1.13 -1.46 12.52 1.37 -0.17 -0.29 15322
0.82 -0.04 -0.64 -1.78 12.77 1.57 -0.03 -0.23 15329
0.88 -0.04 -0.65 -1.80 13.16 1.77 0.03 -0.18 15336
0.88 -0.05 -0.37 -1.83 13.60 2.03 0.09 -0.15 15343
0.90 -0.05 -0.36 -2.03 14.21 2.27 0.16 -0.11 15350
0.93 -0.05 0.08 -2.08 14.23 2.58 0.21 -0.10 15356
0.91 -0.03 0.90 -2.22 14.37 2.93 0.26 -0.13 15365
0.93 -0.03 0.88 -2.36 14.85 3.23 0.26 -0.20 15372
0.94 -0.03 0.92 -2.21 15.30 3.58 0.30 -0.25 15379
0.89 -0.03 0.80 -2.09 16.08 3.90 0.38 -0.31 15385
0.85 -0.02 0.76 -2.40 17.38 4.24 0.40 -0.35 15393
0.78 -0.03 2.35 -2.70 17.69 4.28 0.15 -0.42 15400
0.69 -0.03 2.69 -2.73 17.61 4.28 -0.15 -0.56 15408
0.57 -0.02 1.53 -2.33 17.34 4.28 -0.35 -0.69 15415
0.44 -0.02 1.17 -4.67 20.75 4.28 -0.62 -0.74 15422
0.33 -0.02 1.83 -6.44 23.15 4.28 -0.73 -0.75 15429
0.22 -0.02 1.21 -4.48 22.37 4.28 -0.56 -0.78 15435
0.11 -0.01 -3.31 -7.31 27.77 4.28 -0.36 -0.85 15442
0.11 -0.01 -4.86 -8.87 31.48 4.28 -1.21 -0.80 15450
0.06 -0.00 -1.27 -11.25 31.89 4.28 -2.02 -0.55 15458
0.04 -0.00 2.51 -8.26 28.43 4.28 -2.33 -0.64 15464
0.02 -0.00 4.32 -3.43 29.50 4.28 -2.63 -0.59 15471
0.02 -0.00 7.61 1.71 26.12 4.28 -2.60 -0.50 15478
0.01 -0.00 7.76 7.01 22.64 4.28 -2.25 -0.48 15485
0.00 -0.00 9.81 11.93 19.58 4.28 -1.57 -0.54 15493
0.00 0.00 11.28 28.83 13.79 4.28 -1.05 -0.71 15500
0.00 0.00 12.15 22.54 2.41 3.78 -0.02 -0.82 15507
0.00 0.00 7.63 18.76 25.58 1.41 0.80 -0.67 15514
0.00 0.00 2.38 18.89 21.42 -1.11 0.92 -0.54 15521
0.00 0.00 -0.30 16.70 14.83 -2.23 0.47 -0.41 15528
0.00 0.00 -0.70 12.70 11.97 -2.57 -0.29 -0.35 15536
0.00 0.00 0.42 10.53 10.45 -2.58 -0.88 -0.34 15543
0.00 0.00 2.37 9.23 8.60 -2.53 -0.93 -0.33 15550
0.00 0.00 3.46 8.67 7.31 -2.57 -0.68 -0.34 15557
0.00 0.00 3.36 8.26 7.65 -2.75 -0.23 -0.37 15564
0.00 0.00 2.42 7.98 8.26 -3.01 0.23 -0.38 15571
0.00 0.00 0.65 7.65 8.68 -3.40 0.66 -0.35 15579
0.00 0.00 -1.16 7.01 9.14 -3.74 0.83 -0.28 15586
0.00 0.00 -2.26 6.24 9.72 -4.09 0.81 -0.20 15593
0.00 0.00 -2.71 5.17 10.07 -4.24 0.68 -0.10 15600
0.00 0.00 -2.71 4.27 10.35 -4.28 0.56 -0.04 15607
0.00 0.00 -2.43 3.47 10.44 -4.28 0.50 -0.02 15614
0.00 0.00 -2.20 2.52 10.50 -4.28 0.52 -0.03 15622
0.00 -0.00 -2.44 2.10 11.22 -4.28 0.57 -0.07 15629
0.00 0.00 -2.17 1.18 11.78 -4.28 0.77 -0.14 15636
0.00 0.00 -2.71 0.95 12.51 -4.28 0.93 -0.25 15643
0.00 0.00 -3.65 0.99 12.72 -4.28 1.01 -0.35 15650
0.00 0.00 -3.26 -0.13 13.92 -4.28 1.19 -0.50 15657
-0.00 0.00 -5.19 -0.05 15.63 -4.28 1.20 -0.65 15665
0.00 0.00 -4.23 -0.17 14.75 -4.28 1.14 -0.82 15672
0.00 0.00 -4.93 -0.36 16.97 -4.28 1.05 -0.97 15679
0.00 0.00 -4.33 -1.06 17.78 -4.28 1.00 -1.05 15686
0.00 0.00 -3.72 -1.02 18.19 -4.28 0.97 -1.08 15693
0.00 0.00 -3.20 -1.62 18.68 -4.28 1.04 -1.06 15700
0.00 0.00 -3.05 -2.17 19.73 -4.28 1.13 -0.98 15708
0.00 0.00 -2.62 -3.08 20.39 -4.28 1.28 -0.86 15715
0.00 0.00 -2.58 -3.82 21.56 -4.28 1.40 -0.72 15722
0.00 0.00 -2.32 -5.18 22.47 -4.28 1.49 -0.54 15729
0.00 0.00 -1.78 -6.94 23.30 -4.27 1.53 -0.35 15736
0.00 0.00 -0.48 -8.63 24.62 -4.12 1.63 -0.23 15744
0.00 0.00 0.55 -10.28 26.47 -3.94 1.95 -0.12 15751
0.00 0.00 0.87 -11.32 27.35 -3.96 2.32 -0.04 15758
0.00 0.00 0.22 -13.16 27.52 -4.19 2.62 0.06 15765
0.00 0.00 -1.74 -16.05 26.60 -4.28 2.59 0.24 15772
0.00 0.00 -2.92 -19.01 24.31 -4.28 2.31 0.48 15779
0.00 0.00 -4.69 -22.96 20.59 -4.28 1.89 0.82 15787
0.00 0.00 -6.17 -27.49 17.90 -4.28 1.57 1.17 15794
0.00 0.00 -7.78 -31.38 15.28 -4.28 1.17 1.33 15801
0.00 0.00 -8.25 -35.48 10.58 -4.12 0.57 1.52 15808
0.00 0.00 -7.37 -42.17 6.19 -3.66 0.16 1.54 15815
0.00 0.00 -7.70 -51.86 2.44 -3.30 0.06 1.35 15822
-0.00 0.00 -9.30 -58.73 -1.06 -2.77 0.18 0.99 15830
0.00 0.00 -12.33 -59.03 -2.72 -1.60 0.07 0.60 15837
0.00 0.00 -11.88 -51.50 -2.22 -0.24 -0.60 0.06 15844
0.00 0.00 -10.78 -60.30 9.32 2.90 -1.96 -0.55 15851
0.00 0.00 -4.76 -20.89 5.15 4.28 -1.27 -1.11 15858
-0.01 0.05 2.20 8.66 5.18 4.28 -1.22 -1.22 15865
-0.02 0.23 4.84 0.02 25.71 4.19 -0.59 -0.90 15873
-0.02 0.53 6.66 1.23 18.53 3.47 -0.41 -0.50 15881
-0.05 0.74 3.23 -4.33 20.13 3.84 -0.38 -0.18 15888
-0.06 0.83 6.29 -5.56 15.20 4.27 -0.14 0.35 15895
-0.07 0.95 -0.42 -4.91 22.47 4.28 0.52 0.98 15902
-0.06 1.03 -3.07 -3.97 21.47 3.77 0.83 1.00 15909
-0.05 1.08 -5.82 -3.96 16.94 3.02 0.59 0.49 15917
-0.05 1.07 -3.02 -2.74 14.27 2.80 0.43 -0.09 15924
-0.06 1.03 1.01 -1.40 13.26 2.42 0.61 -0.23 15931
-0.06 0.95 3.08 -2.98 18.53 1.81 0.51 -0.06 15938
-0.06 0.87 1.94 -1.39 12.08 0.38 -0.16 0.05 15945
-0.03 0.84 0.00 -3.13 12.63 -0.09 -0.08 0.06 15951
-0.04 0.81 -0.10 -1.78 10.89 -0.12 -0.01 -0.02 15960
-0.03 0.83 0.50 -1.12 10.14 -0.12 0.04 -0.00 15966
-0.04 0.80 0.41 -1.20 10.11 -0.12 0.05 0.03 15973
-0.04 0.78 0.04 -1.20 10.10 -0.11 0.07 0.03 15980
-0.03 0.78 0.33 -1.00 10.05 -0.10 0.10 0.03 15987
-0.01 0.81 0.32 -0.90 10.03 -0.08 0.11 0.03 15994
0.01 0.87 0.32 -0.84 9.85 -0.06 0.12 0.02 16002
-0.00 0.89 0.41 -0.75 9.91 -0.05 0.11 0.02 16009
-0.01 0.88 0.37 -0.69 9.95 -0.04 0.11 0.02 16016
-0.03 0.89 0.29 -0.69 9.92 -0.01 0.11 0.01 16023
-0.04 0.87 0.39 -0.68 9.83 0.01 0.11 0.01 16030
-0.04 0.87 0.42 -0.65 9.90 0.03 0.11 0.00 16037
-0.04 0.86 0.39 -0.67 9.92 0.06 0.10 -0.00 16045
-0.02 0.78 0.47 -0.69 9.86 0.09 0.09 -0.01 16052
-0.04 0.75 0.48 -0.72 9.86 0.11 0.06 -0.01 16059
-0.04 0.69 0.54 -0.73 9.81 0.17 0.03 -0.02 16066
-0.03 0.64 0.57 -0.74 9.76 0.14 0.01 -0.02 16073
-0.00 0.60 0.49 -0.75 9.76 0.14 -0.01 -0.02 16080
-0.02 0.55 0.43 -0.77 9.75 0.14 -0.01 -0.03 16088
-0.03 0.50 0.42 -0.73 9.72 0.15 -0.00 -0.04 16095
-0.03 0.46 0.44 -0.75 9.67 0.15 0.01 -0.05 16102
-0.03 0.43 0.50 -0.75 9.66 0.14 0.02 -0.05 16109
-0.02 0.39 0.49 -0.82 9.62 0.13 0.03 -0.05 16116
0.01 0.42 0.50 -0.82 9.64 0.13 0.04 -0.05 16123
0.00 0.39 0.48 -0.86 9.59 0.12 0.05 -0.05 16131
-0.01 0.34 0.51 -0.85 9.59 0.11 0.05 -0.06 16138
-0.02 0.29 0.53 -0.84 9.57 0.10 0.05 -0.06 16145
-0.00 0.33 0.53 -0.89 9.65 0.10 0.05 -0.06 16152
0.00 0.29 0.57 -0.88 9.66 0.10 0.04 -0.06 16159
0.01 0.27 0.61 -0.90 9.63 0.09 0.04 -0.07 16166
0.01 0.28 0.33 -0.85 9.79 0.09 0.03 -0.07 16174
-0.01 0.25 0.41 -1.06 9.54 0.09 0.03 -0.07 16181
0.02 0.22 0.76 -0.99 9.43 0.10 0.02 -0.08 16188
-0.01 0.23 0.68 -1.00 9.67 0.11 0.02 -0.08 16195
-0.01 0.23 0.48 -0.95 9.77 0.11 0.00 -0.08 16202
0.02 0.19 0.59 -0.96 9.80 0.13 -0.01 -0.08 16209
0.01 0.18 0.51 -0.93 9.71 0.14 -0.02 -0.09 16217
0.04 0.16 0.46 -1.04 9.77 0.16 -0.03 -0.09 16224
0.04 0.09 0.43 -1.02 9.73 0.17 -0.02 -0.09 16231
0.07 0.10 0.44 -1.01 9.80 0.19 -0.02 -0.10 16238
0.08 0.06 0.47 -1.03 9.85 0.22 -0.02 -0.10 16245
0.10 0.06 0.41 -1.12 9.87 0.24 -0.01 -0.10 16252
0.12 0.05 0.51 -1.07 9.82 0.26 -0.01 -0.11 16260
0.16 0.02 0.46 -1.06 9.89 0.29 -0.02 -0.12 16267
0.13 0.04 0.56 -1.15 9.96 0.32 -0.03 -0.13 16274
0.14 0.02 0.60 -1.21 10.07 0.35 -0.03 -0.14 16281
0.17 0.04 0.59 -1.26 10.10 0.37 -0.03 -0.15 16288
0.20 -0.00 0.64 -1.36 10.35 0.40 -0.03 -0.18 16295
0.22 -0.01 0.87 -1.46 10.45 0.44 -0.04 -0.21 16304
0.25 -0.02 1.15 -1.53 10.64 0.50 -0.06 -0.27 16310
0.26 -0.02 1.27 -1.50 10.92 0.63 -0.07 -0.34 16318
0.30 -0.01 1.83 -1.79 11.49 0.74 0.01 -0.45 16325
0.36 -0.02 -0.40 -2.39 13.98 1.03 0.16 -0.49 16332
0.36 -0.03 -0.02 -1.56 13.56 1.53 0.11 -0.37 16339
0.44 -0.03 0.59 -1.91 13.86 1.75 0.16 -0.35 16347
0.49 -0.03 0.17 -1.78 14.12 2.01 0.12 -0.32 16354
0.51 -0.03 0.19 -1.94 14.57 2.29 0.13 -0.29 16361
0.56 -0.02 0.28 -1.32 14.89 2.57 0.13 -0.25 16368
0.60 -0.02 1.02 -1.81 14.97 2.95 0.12 -0.24 16375
0.64 -0.02 1.29 -2.21 15.56 3.30 0.11 -0.28 16382
0.66 -0.03 1.34 -2.51 16.25 3.71 0.14 -0.32 16390
0.67 -0.02 0.94 -2.06 16.82 4.10 0.18 -0.35 16397
0.67 -0.03 0.86 -1.97 17.96 4.28 0.15 -0.36 16404
0.65 -0.02 2.83 -1.93 18.34 4.28 -0.06 -0.42 16411
0.65 -0.03 2.99 -2.29 17.23 4.28 -0.26 -0.60 16418
0.57 -0.03 2.71 -1.94 17.28 4.28 -0.33 -0.73 16425
0.46 -0.03 1.45 -3.54 20.62 4.28 -0.53 -0.83 16433
0.32 -0.02 1.50 -5.75 25.71 4.28 -0.87 -0.86 16440
0.20 -0.02 3.82 -5.26 25.16 4.28 -1.06 -0.88 16447
0.15 -0.01 -0.77 -5.87 26.81 4.28 -0.91 -1.09 16454
0.12 -0.01 -5.05 -7.20 32.82 4.28 -1.45 -1.12 16460
0.11 -0.01 -2.02 -10.49 32.77 4.28 -2.46 -0.79 16468
0.06 -0.01 3.52 -7.35 29.39 4.28 -2.93 -0.86 16475
0.02 -0.00 4.99 -3.88 31.31 4.28 -3.34 -0.76 16482
0.03 -0.00 10.03 2.03 29.97 4.28 -3.23 -0.59 16489
0.00 0.00 11.29 6.71 24.80 4.28 -2.77 -0.54 16496
0.02 -0.00 13.03 13.18 22.65 4.28 -1.71 -0.59 16504
0.00 0.00 13.25 31.26 16.65 4.28 -0.83 -0.80 16510
0.00 0.00 13.67 32.51 -0.86 4.02 0.40 -1.00 16518
0.00 0.00 7.54 22.69 27.92 1.31 1.38 -0.82 16525
0.00 0.00 1.48 21.10 23.62 -1.80 1.28 -0.58 16532
0.00 0.00 -2.36 18.44 17.54 -3.04 0.54 -0.42 16539
0.00 0.00 -1.36 13.78 13.64 -3.29 -0.60 -0.34 16546
0.00 0.00 0.28 11.15 11.64 -3.18 -1.21 -0.35 16553
0.00 0.00 2.68 9.31 9.29 -3.07 -1.21 -0.39 16561
0.00 0.00 4.14 8.07 7.78 -3.08 -0.87 -0.44 16568
0.00 0.00 4.50 8.11 7.83 -3.25 -0.25 -0.50 16575
0.00 0.00 3.27 7.85 9.25 -3.55 0.42 -0.55 16582
0.00 0.00 1.27 7.57 9.82 -4.05 0.87 -0.55 16589
0.00 0.00 -1.13 6.97 10.49 -4.28 1.03 -0.47 16596
0.00 0.00 -2.44 5.47 11.05 -4.28 0.87 -0.33 16604
0.00 0.00 -2.68 4.30 11.41 -4.28 0.53 -0.21 16611
-0.00 0.00 -1.89 3.10 11.45 -4.28 0.22 -0.10 16618
0.00 0.00 -0.98 2.28 11.41 -4.28 0.07 -0.06 16625
0.00 0.00 -0.60 1.43 11.58 -4.28 -0.00 -0.06 16632
0.00 0.00 0.35 0.24 12.15 -4.28 0.17 -0.10 16640
0.00 0.00 -0.19 0.53 12.50 -4.28 0.34 -0.16 16647
0.00 0.00 -0.61 -0.32 13.46 -4.28 0.67 -0.22 16654
0.00 0.00 -1.05 -1.28 14.53 -4.28 0.91 -0.30 16661
0.00 0.00 -0.55 -1.52 14.92 -4.28 0.93 -0.43 16668
0.00 0.00 -1.68 -1.37 15.29 -4.28 1.01 -0.60 16675
0.00 0.00 -0.46 -2.38 17.11 -4.28 1.10 -0.68 16683
0.00 0.00 -1.67 -1.89 17.45 -4.28 0.95 -0.77 16690
0.00 0.00 -0.92 -3.20 18.81 -4.28 0.93 -0.74 16697
0.00 0.00 -0.47 -3.05 19.05 -4.28 0.82 -0.73 16704
0.00 0.00 0.61 -4.02 19.87 -4.28 0.90 -0.68 16711
0.00 0.00 0.64 -4.20 20.02 -4.28 1.02 -0.59 16718
0.00 0.00 1.27 -4.91 21.53 -4.28 1.26 -0.44 16726
0.00 0.00 1.35 -5.41 22.94 -4.28 1.47 -0.26 16733
0.00 0.00 1.30 -6.33 24.24 -4.28 1.69 -0.08 16740
0.00 0.00 1.35 -7.37 25.65 -4.26 1.92 0.15 16747
0.00 0.00 1.85 -8.71 27.53 -4.22 2.16 0.36 16754
0.00 0.00 1.66 -10.04 28.76 -4.25 2.48 0.60 16761
0.00 0.00 0.81 -11.42 29.07 -4.28 2.65 0.84 16769
0.00 0.00 -0.03 -14.12 27.85 -4.28 2.64 1.07 16776
0.00 0.00 -1.06 -18.55 25.59 -4.28 2.39 1.28 16783
0.00 -0.00 -1.70 -23.81 23.16 -4.28 2.08 1.34 16791
0.00 0.00 -2.79 -27.63 19.83 -4.28 1.69 1.37 16797
0.00 0.00 -4.50 -31.35 14.46 -4.28 1.54 1.41 16804
0.00 0.00 -6.18 -36.95 11.36 -3.96 1.72 1.40 16812
0.00 0.00 -9.10 -50.36 7.26 -3.38 1.89 1.30 16819
0.00 0.00 -13.25 -61.48 2.59 -3.00 1.76 1.05 16826
0.00 0.00 -17.90 -65.09 -0.31 -2.12 1.32 0.83 16833
0.00 0.00 -19.48 -60.84 -1.08 -0.87 0.31 0.56 16840
0.00 0.00 -15.85 -51.64 1.36 0.73 -0.89 0.23 16847
0.00 0.00 -6.69 -43.59 -1.21 1.96 -1.90 -0.23 16855
0.00 0.00 -5.52 -25.81 18.46 4.28 -2.86 -0.97 16862
0.00 0.03 2.91 14.73 3.09 4.27 -1.96 -1.03 16869
-0.01 0.18 1.16 0.09 21.16 3.97 -1.46 -0.70 16877
-0.03 0.51 5.13 1.10 16.71 3.56 -0.77 -0.22 16884
-0.04 0.83 2.45 -2.53 15.13 4.21 -0.77 0.03 16891
-0.06 0.95 3.86 -5.23 17.23 4.28 -0.24 0.52 16899
-0.06 0.99 1.81 -5.19 23.88 4.28 0.56 1.09 16906
-0.06 1.10 -4.66 -5.46 25.80 4.06 0.93 1.15 16913
-0.06 1.21 -6.46 -4.45 18.17 3.61 0.71 0.51 16920
-0.05 1.17 -3.47 -3.22 16.58 3.30 0.37 -0.04 16927
-0.06 1.10 1.00 -2.08 14.83 2.85 0.43 -0.23 16934
-0.06 1.00 3.58 -2.33 17.50 2.35 0.46 -0.10 16942
-0.05 0.92 1.67 -1.92 14.44 0.71 -0.36 0.10 16949
-0.02 0.82 -0.44 -3.19 13.00 0.14 -0.28 0.14 16956
-0.03 0.73 -0.50 -2.17 11.19 -0.02 -0.17 0.05 16963
-0.02 0.69 0.12 -1.10 10.07 -0.04 -0.08 0.02 16969
0.00 0.68 0.55 -1.09 9.99 -0.03 -0.05 0.06 16976
0.03 0.66 0.10 -1.27 9.90 -0.05 -0.05 0.05 16984
0.06 0.70 0.24 -1.31 10.03 -0.08 -0.03 0.02 16991
0.05 0.70 0.27 -0.97 10.19 -0.07 -0.01 0.02 16998
0.05 0.68 0.17 -0.82 9.88 -0.05 0.01 0.02 17005
0.06 0.71 0.30 -0.84 9.96 -0.03 0.02 0.01 17012
0.05 0.73 0.33 -0.80 9.85 -0.01 0.01 0.01 17019
0.09 0.75 0.25 -0.70 9.80 0.00 0.01 0.01 17027
0.10 0.72 0.23 -0.70 9.82 0.02 0.02 -0.00 17034
0.08 0.70 0.24 -0.70 9.84 0.05 0.02 -0.00 17041
0.08 0.69 0.21 -0.69 9.86 0.08 0.02 -0.01 17048
0.08 0.60 0.24 -0.68 9.99 0.11 0.02 -0.01 17055
0.04 0.61 0.31 -0.68 9.94 0.14 -0.00 -0.01 17062
0.03 0.59 0.33 -0.69 9.82 0.16 -0.01 -0.02 17070
0.05 0.50 0.30 -0.77 9.82 0.18 -0.03 -0.02 17077
0.06 0.44 0.34 -0.80 9.82 0.19 -0.03 -0.03 17084
0.05 0.39 0.31 -0.86 9.81 0.21 -0.03 -0.03 17091
0.04 0.36 0.38 -0.81 9.77 0.22 -0.05 -0.04 17098
0.04 0.35 0.37 -0.84 9.71 0.22 -0.06 -0.05 17105
0.07 0.31 0.34 -0.88 9.72 0.23 -0.07 -0.06 17113
0.08 0.25 0.34 -0.89 9.66 0.23 -0.06 -0.07 17120
0.09 0.25 0.37 -0.92 9.66 0.22 -0.07 -0.07 17127
0.11 0.21 0.38 -0.92 9.68 0.22 -0.08 -0.07 17134
0.11 0.14 0.37 -0.99 9.64 0.22 -0.09 -0.07 17141
0.11 0.11 0.37 -1.04 9.63 0.20 -0.09 -0.08 17148
0.13 0.09 0.35 -1.07 9.62 0.18 -0.10 -0.08 17156
0.15 0.13 0.32 -0.98 9.59 0.17 -0.11 -0.09 17163
0.14 0.08 0.26 -1.26 9.64 0.17 -0.12 -0.09 17170
0.15 0.04 0.27 -1.19 9.82 0.16 -0.12 -0.09 17177
0.21 0.02 0.32 -1.27 9.84 0.17 -0.12 -0.11 17184
0.17 0.04 0.26 -0.99 9.81 0.16 -0.13 -0.11 17191
0.16 0.06 0.13 -1.18 9.82 0.17 -0.13 -0.11 17199
0.20 0.05 0.38 -1.45 9.97 0.17 -0.13 -0.12 17206
0.21 0.05 0.05 -1.18 9.64 0.18 -0.13 -0.12 17213
0.23 0.02 0.26 -1.13 9.83 0.19 -0.11 -0.13 17220
0.24 0.00 0.17 -1.21 9.95 0.20 -0.11 -0.13 17227
0.28 0.04 0.31 -0.67 10.08 0.23 -0.12 -0.14 17234
0.30 0.04 0.26 -1.24 10.13 0.26 -0.13 -0.15 17243
0.36 -0.00 0.37 -1.38 10.04 0.30 -0.15 -0.17 17250
0.41 -0.02 0.45 -1.36 10.28 0.33 -0.17 -0.19 17257
0.47 -0.04 0.36 -1.50 10.14 0.37 -0.20 -0.22 17264
0.51 -0.03 0.68 -1.54 10.53 0.43 -0.25 -0.27 17271
0.55 -0.02 0.82 -1.71 10.81 0.53 -0.36 -0.31 17278
0.61 -0.03 0.86 -1.67 11.01 0.62 -0.45 -0.36 17286
0.69 -0.04 1.21 -1.75 11.32 0.73 -0.47 -0.43 17293
0.76 -0.04 0.91 -1.78 11.79 0.90 -0.36 -0.51 17300
0.86 -0.05 -1.09 -1.53 12.83 1.17 -0.24 -0.47 17307
0.85 -0.04 -0.95 -1.57 12.21 1.43 -0.31 -0.36 17314
0.90 -0.04 -0.86 -1.59 12.83 1.57 -0.24 -0.30 17321
0.94 -0.05 -1.22 -1.75 13.36 1.79 -0.21 -0.22 17329
0.97 -0.05 -0.83 -2.03 13.70 2.05 -0.14 -0.13 17336
0.95 -0.04 -0.64 -2.00 13.69 2.29 -0.05 -0.09 17343
1.04 -0.05 -0.67 -2.09 14.06 2.60 0.09 -0.06 17349
1.05 -0.04 -0.51 -2.36 14.77 2.92 0.26 -0.03 17357
1.05 -0.04 0.06 -2.44 15.17 3.25 0.33 -0.07 17364
1.07 -0.04 0.49 -2.38 15.83 3.61 0.35 -0.08 17372
1.03 -0.04 0.99 -2.50 15.66 3.96 0.39 -0.14 17379
0.99 -0.05 1.13 -2.39 15.81 4.26 0.43 -0.23 17386
0.94 -0.04 1.50 -2.59 17.93 4.28 0.40 -0.33 17393
0.88 -0.04 2.05 -2.03 17.98 4.28 0.17 -0.47 17400
0.83 -0.02 2.38 -2.66 18.37 4.28 -0.11 -0.61 17408
0.63 -0.03 1.00 -3.55 20.61 4.28 -0.39 -0.76 17415
0.48 -0.02 1.25 -5.77 23.88 4.28 -0.70 -0.82 17422
0.31 -0.03 1.27 -6.34 26.82 4.28 -0.77 -0.74 17429
0.18 -0.02 -0.92 -6.83 27.27 4.28 -0.71 -0.81 17435
0.14 -0.01 -7.19 -9.10 33.91 4.28 -0.96 -0.88 17443
0.10 -0.01 -4.84 -12.16 34.07 4.28 -2.29 -0.56 17451
