Voltage_01 Voltage_02 Acc_x Acc_y Acc_z Gyro_x Gyro_y Gyro_z Time
5000
0.31 0.01 0.18 -1.09 9.91 0.05 -0.02 -0.05 24
0.34 0.01 0.17 -1.10 9.86 0.08 -0.04 -0.06 31
0.36 0.01 0.10 -1.12 9.90 0.10 -0.07 -0.06 38
0.40 -0.01 0.06 -1.17 9.93 0.12 -0.10 -0.07 46
0.39 -0.01 0.08 -1.15 10.06 0.13 -0.11 -0.07 54
0.39 -0.01 -0.03 -1.20 10.03 0.15 -0.12 -0.08 60
0.38 0.00 0.11 -1.18 10.08 0.18 -0.14 -0.09 67
0.41 -0.01 -0.01 -1.33 10.35 0.21 -0.17 -0.09 75
0.39 -0.00 -0.01 -1.26 10.53 0.25 -0.23 -0.09 82
0.42 -0.02 -0.43 -1.33 11.30 0.33 -0.30 -0.09 90
0.41 -0.02 -0.67 -1.36 11.96 0.47 -0.51 -0.05 97
0.42 -0.03 -0.25 -1.31 12.48 0.65 -0.82 0.00 104
0.42 -0.02 0.69 -1.62 13.37 0.83 -0.86 -0.01 111
0.44 -0.02 0.51 -1.51 13.69 1.07 -0.72 -0.09 118
0.46 -0.03 0.33 -1.60 13.28 1.24 -0.91 -0.10 125
0.46 -0.02 1.19 -1.71 13.13 1.43 -1.05 -0.15 133
0.42 -0.01 0.89 -1.81 13.78 1.64 -1.16 -0.23 140
0.44 -0.03 0.54 -2.36 14.41 1.84 -1.28 -0.29 147
0.40 -0.03 0.24 -2.10 14.97 2.08 -1.44 -0.33 154
0.37 -0.01 0.18 -2.04 15.25 2.29 -1.61 -0.36 161
0.36 -0.01 0.48 -2.15 15.57 2.55 -1.75 -0.41 168
0.31 -0.02 0.54 -2.34 15.59 2.77 -1.96 -0.45 176
0.24 -0.02 0.77 -2.68 15.70 2.95 -2.21 -0.52 183
0.18 -0.02 1.38 -3.10 15.66 3.08 -2.54 -0.60 189
0.16 -0.01 2.15 -3.28 15.56 3.12 -2.83 -0.74 197
0.09 0.00 2.64 -3.51 15.45 3.15 -3.01 -0.87 204
0.10 -0.01 2.66 -4.00 16.15 3.08 -3.28 -1.06 210
0.04 -0.00 3.42 -4.33 16.67 2.94 -3.57 -1.22 218
0.07 -0.01 3.73 -4.20 16.35 2.66 -3.85 -1.36 225
0.04 -0.00 4.01 -3.93 14.97 2.41 -4.25 -1.51 232
0.01 -0.00 5.08 -3.08 14.44 2.15 -4.28 -1.56 239
0.02 -0.00 5.90 -1.83 13.41 1.84 -4.28 -1.56 246
0.02 -0.00 6.75 -1.26 11.25 1.53 -4.28 -1.46 253
0.02 -0.00 14.29 -0.52 9.35 1.32 -4.28 -0.90 261
0.00 0.00 18.69 -0.07 9.97 1.31 -3.18 0.66 268
0.00 0.00 19.63 1.03 12.18 0.61 -0.94 1.43 275
0.00 0.00 12.51 1.00 10.33 -0.02 0.19 2.08 282
0.00 0.00 7.86 0.57 9.99 -0.32 0.43 2.53 289
0.02 -0.00 5.91 -0.17 9.24 -0.42 0.15 2.70 295
0.00 0.00 5.77 -0.29 8.99 -0.39 -0.23 2.72 303
0.00 0.00 6.53 0.11 8.62 -0.32 -0.32 2.54 309
0.00 0.00 7.70 0.50 8.45 -0.30 -0.17 2.28 315
0.00 0.00 8.36 0.80 8.27 -0.32 0.22 1.89 321
0.00 0.00 8.29 1.13 8.44 -0.38 0.67 1.42 327
0.01 -0.00 7.50 1.44 8.48 -0.46 1.22 1.00 333
0.00 0.00 6.24 1.92 8.69 -0.55 1.76 0.42 340
0.00 0.00 5.01 2.11 8.92 -0.67 2.06 -0.06 347
0.00 0.00 3.80 2.33 8.90 -0.80 2.30 -0.36 353
0.00 0.00 3.09 2.42 8.89 -0.93 2.44 -0.70 359
0.00 0.00 2.62 2.34 9.12 -1.10 2.52 -0.95 365
0.00 0.00 1.82 2.32 9.42 -1.26 2.63 -1.13 372
0.00 0.00 0.86 2.20 9.65 -1.38 2.76 -1.28 379
0.00 0.00 0.01 2.17 9.73 -1.47 2.81 -1.33 386
0.00 0.00 -0.75 1.97 9.85 -1.54 2.83 -1.35 392
0.00 0.00 -1.28 1.55 10.14 -1.59 2.78 -1.32 399
0.00 0.00 -1.79 1.20 10.42 -1.63 2.77 -1.28 406
0.00 0.00 -2.28 0.79 10.60 -1.66 2.70 -1.18 413
0.00 0.00 -2.29 0.59 10.85 -1.69 2.61 -1.10 420
0.00 0.00 -1.77 0.30 11.07 -1.74 2.51 -0.99 428
0.00 0.00 -1.25 0.10 11.22 -1.78 2.48 -0.88 435
0.00 0.00 -0.80 -0.12 11.41 -1.83 2.51 -0.80 442
0.00 0.00 -0.56 -0.65 11.77 -1.87 2.58 -0.73 449
0.00 0.00 -0.59 -1.13 12.02 -1.89 2.63 -0.69 456
0.00 0.00 -0.59 -1.59 12.30 -1.89 2.70 -0.68 463
0.00 0.00 -0.67 -2.16 12.81 -1.91 2.74 -0.70 471
0.00 0.00 -0.87 -2.43 13.04 -1.94 2.76 -0.70 478
0.00 0.00 -1.15 -2.83 13.20 -1.95 2.77 -0.68 485
0.00 0.00 -1.41 -3.15 13.18 -1.94 2.77 -0.60 492
0.00 0.00 -1.90 -3.38 13.13 -1.92 2.74 -0.49 499
0.00 0.00 -2.28 -3.58 13.06 -1.87 2.68 -0.29 506
0.00 0.00 -2.63 -3.72 12.82 -1.79 2.58 -0.03 514
0.00 0.00 -2.79 -3.80 12.53 -1.70 2.43 0.26 521
0.00 0.00 -2.76 -3.75 12.18 -1.63 2.25 0.63 528
0.00 0.00 -2.58 -3.78 11.97 -1.53 2.12 0.96 535
0.00 0.00 -2.41 -3.93 11.78 -1.46 2.00 1.32 542
0.00 0.00 -2.38 -4.16 11.81 -1.38 1.94 1.57 549
0.00 0.00 -2.43 -4.56 11.87 -1.32 1.87 1.77 557
0.00 0.00 -2.63 -5.05 11.88 -1.29 1.84 1.87 564
0.00 0.00 -2.96 -5.42 11.04 -1.28 1.81 1.87 571
-0.00 0.00 -3.28 -5.71 11.23 -1.28 1.72 1.81 578
0.00 -0.00 -3.34 -5.93 10.90 -1.30 1.61 1.67 585
0.00 0.00 -3.33 -6.05 10.52 -1.32 1.49 1.53 592
0.00 0.00 -3.16 -6.29 10.30 -1.33 1.36 1.34 600
0.00 0.00 -3.13 -6.57 9.95 -1.32 1.29 1.16 607
0.00 0.00 -3.32 -6.85 9.43 -1.27 1.24 0.97 614
0.00 0.00 -3.42 -7.15 8.73 -1.23 1.22 0.75 621
0.00 0.00 -3.30 -7.20 8.44 -1.15 1.16 0.58 628
0.00 0.00 -3.35 -7.19 8.28 -1.09 1.12 0.42 634
0.00 0.00 -3.46 -7.16 8.22 -1.00 1.14 0.27 642
0.00 0.00 -3.76 -6.94 8.38 -0.91 1.17 0.23 648
0.00 0.00 -4.35 -6.95 8.61 -0.85 1.17 0.19 654
0.00 0.00 -5.09 -6.92 8.79 -0.79 1.11 0.18 661
0.00 0.00 -5.90 -6.95 8.61 -0.75 0.99 0.19 667
0.02 -0.00 -6.44 -6.88 8.22 -0.71 0.79 0.20 673
0.00 0.00 -6.49 -6.75 8.08 -0.66 0.55 0.22 680
0.00 0.00 -6.17 -6.65 7.95 -0.61 0.34 0.23 687
0.00 0.00 -5.73 -6.52 7.84 -0.57 0.20 0.24 693
0.00 0.00 -5.50 -6.33 7.77 -0.52 0.13 0.24 699
0.00 0.00 -5.24 -6.14 7.75 -0.47 0.07 0.24 705
0.00 0.00 -5.10 -5.85 7.76 -0.45 0.04 0.25 711
0.00 0.00 -5.11 -5.76 7.88 -0.43 0.01 0.26 717
0.00 0.00 -5.70 -5.70 8.00 -0.43 -0.05 0.28 723
0.00 0.00 -6.72 -5.57 7.72 -0.41 -0.22 0.30 730
0.00 0.00 -7.07 -5.45 7.64 -0.38 -0.43 0.31 736
0.00 0.00 -6.79 -5.31 7.66 -0.36 -0.68 0.33 742
0.01 -0.00 -5.93 -5.25 7.45 -0.35 -0.84 0.34 749
0.00 0.00 -5.18 -5.17 7.19 -0.33 -0.92 0.35 756
0.00 0.00 -4.52 -4.89 6.69 -0.27 -0.92 0.36 763
0.00 0.00 -3.78 -4.22 6.33 -0.24 -0.89 0.43 771
0.00 0.00 -2.70 -3.22 6.21 -0.19 -0.78 0.49 778
0.00 0.00 -0.74 1.61 6.51 -0.21 -0.83 0.60 784
0.01 0.02 -15.30 2.98 8.28 1.23 -4.28 0.81 791
0.01 0.08 3.22 12.65 -5.89 1.07 -4.28 0.52 798
-0.02 0.38 -10.35 4.68 30.20 2.35 -4.28 0.48 805
-0.07 0.73 -5.61 -0.31 21.96 3.34 -3.52 0.78 812
-0.08 0.92 -6.35 -6.83 28.35 3.83 -1.80 1.28 820
-0.06 0.94 -9.35 -5.23 19.62 3.43 -1.07 1.10 827
-0.05 0.89 -5.69 -2.29 17.95 3.04 -0.83 0.56 834
-0.06 0.79 -1.86 -5.25 26.34 2.10 -0.94 0.29 841
-0.04 0.69 -1.41 -1.88 12.58 0.26 -0.59 0.21 848
-0.03 0.57 -0.69 -2.88 12.00 0.12 -0.42 0.08 855
-0.03 0.54 0.28 -0.07 9.65 0.26 -0.27 0.08 862
0.01 0.43 0.34 0.41 8.54 0.22 -0.31 0.06 869
0.03 0.36 -0.62 -1.51 8.93 0.13 -0.25 0.02 876
0.07 0.38 -0.36 -2.37 9.75 -0.02 -0.13 0.01 883
0.08 0.38 0.05 -1.36 10.00 -0.09 -0.05 -0.00 890
0.09 0.44 -0.11 -0.86 10.25 -0.07 -0.02 0.00 898
0.09 0.40 -0.09 -0.98 10.15 -0.02 0.00 0.02 905
0.11 0.38 0.14 -1.00 9.79 -0.00 0.02 0.02 912
0.12 0.36 0.22 -0.99 9.56 -0.03 0.02 0.02 919
0.13 0.39 0.12 -0.98 9.69 -0.06 0.01 0.01 926
0.15 0.38 0.02 -0.75 9.73 -0.08 0.02 0.01 933
0.14 0.39 0.01 -0.74 9.84 -0.06 0.03 0.01 941
0.15 0.41 0.01 -0.73 9.83 -0.04 0.04 0.02 948
0.20 0.40 0.03 -0.73 9.81 -0.03 0.05 0.02 955
0.21 0.40 0.05 -0.70 9.82 0.00 0.05 0.03 962
0.22 0.38 0.04 -0.68 9.83 0.02 0.04 0.03 969
0.22 0.37 0.06 -0.71 9.90 0.04 0.04 0.03 976
0.22 0.33 0.01 -0.77 9.74 0.07 0.05 0.03 984
0.23 0.31 0.02 -0.74 9.78 0.07 0.05 0.03 991
0.24 0.28 0.09 -0.81 9.73 0.07 0.06 0.03 998
0.23 0.25 0.12 -0.80 9.66 0.06 0.06 0.02 1005
0.23 0.23 0.09 -0.83 9.64 0.06 0.06 0.02 1012
0.23 0.21 0.12 -0.82 9.67 0.05 0.05 0.02 1019
0.23 0.22 0.09 -0.82 9.68 0.04 0.06 0.02 1027
0.23 0.23 0.12 -0.83 9.69 0.03 0.05 0.01 1034
0.22 0.23 0.17 -0.83 9.72 0.03 0.05 0.01 1041
0.21 0.21 0.16 -0.84 9.74 0.03 0.04 0.00 1048
0.22 0.22 0.15 -0.83 9.70 0.03 0.04 0.01 1055
0.20 0.24 0.08 -0.84 9.68 0.03 0.04 0.00 1062
0.20 0.24 0.13 -0.83 9.71 0.03 0.04 -0.00 1070
0.21 0.26 0.11 -0.83 9.72 0.02 0.04 0.00 1077
0.22 0.24 0.09 -0.82 9.70 0.02 0.05 -0.00 1084
0.20 0.24 0.08 -0.82 9.65 0.02 0.05 -0.01 1091
0.20 0.22 0.13 -0.89 9.66 0.02 0.06 -0.00 1098
0.19 0.22 0.16 -0.84 9.63 0.01 0.05 -0.00 1105
0.19 0.21 0.17 -0.88 9.65 0.01 0.05 -0.00 1113
0.22 0.20 0.19 -0.85 9.78 0.00 0.04 -0.00 1120
0.22 0.20 0.19 -0.87 9.72 0.01 0.04 -0.00 1127
0.21 0.20 0.20 -0.87 9.61 -0.03 0.04 -0.00 1134
0.19 0.20 0.14 -0.85 9.63 -0.01 0.04 -0.00 1141
0.18 0.20 0.15 -0.88 9.71 -0.01 0.03 -0.00 1148
0.19 0.21 0.16 -0.86 9.73 -0.02 0.03 -0.01 1156
0.21 0.20 0.12 -0.88 9.75 -0.02 0.03 -0.01 1163
0.19 0.21 0.19 -0.86 9.70 -0.01 0.03 -0.01 1170
0.18 0.20 0.10 -0.90 9.66 -0.01 0.03 -0.00 1177
0.16 0.21 0.16 -0.89 9.71 -0.02 0.03 -0.01 1184
0.17 0.22 0.16 -0.87 9.68 -0.01 0.02 -0.01 1191
0.17 0.22 0.14 -0.85 9.68 -0.01 0.02 -0.01 1199
0.19 0.21 0.11 -0.89 9.72 0.00 0.02 -0.01 1206
0.18 0.21 0.15 -0.85 9.74 0.00 0.02 -0.01 1213
0.18 0.22 0.14 -0.84 9.71 0.00 0.01 -0.01 1220
0.17 0.22 0.17 -0.86 9.74 0.01 0.00 -0.01 1227
0.17 0.22 0.22 -0.86 9.79 0.02 -0.01 -0.01 1234
0.18 0.21 0.18 -0.86 9.72 0.02 -0.02 -0.01 1242
0.19 0.18 0.13 -0.90 9.65 0.03 -0.02 -0.01 1249
0.18 0.19 0.16 -0.89 9.70 0.04 -0.03 -0.01 1256
0.18 0.17 0.12 -0.89 9.75 0.04 -0.03 -0.02 1263
0.17 0.16 0.11 -0.88 9.77 0.05 -0.04 -0.02 1270
0.17 0.15 0.16 -0.90 9.82 0.06 -0.04 -0.02 1277
0.18 0.16 0.17 -0.92 9.81 0.07 -0.04 -0.02 1285
0.20 0.15 0.12 -0.96 9.76 0.08 -0.04 -0.02 1292
0.18 0.15 0.08 -0.92 9.69 0.07 -0.04 -0.03 1299
0.18 0.14 0.08 -0.93 9.63 0.08 -0.04 -0.03 1306
0.17 0.15 0.17 -0.91 9.70 0.08 -0.04 -0.03 1313
0.18 0.13 0.15 -0.96 9.75 0.10 -0.05 -0.03 1320
0.22 0.10 0.13 -0.96 9.72 0.11 -0.05 -0.04 1328
0.21 0.11 0.11 -1.00 9.72 0.12 -0.05 -0.04 1335
0.22 0.10 0.17 -0.99 9.69 0.11 -0.05 -0.04 1342
0.23 0.05 0.08 -1.03 9.72 0.11 -0.06 -0.04 1349
0.23 0.06 0.09 -1.05 9.69 0.11 -0.06 -0.05 1356
0.24 0.05 0.07 -1.04 9.79 0.11 -0.06 -0.05 1363
0.26 0.04 0.14 -1.00 9.81 0.11 -0.06 -0.05 1371
0.27 0.04 0.12 -1.09 9.70 0.11 -0.08 -0.05 1378
0.27 0.02 0.11 -1.12 9.66 0.11 -0.09 -0.05 1385
0.28 0.02 0.11 -1.09 9.68 0.10 -0.09 -0.05 1392
0.31 0.05 0.04 -1.22 9.69 0.09 -0.09 -0.06 1399
0.31 0.04 0.12 -1.16 9.67 0.08 -0.08 -0.06 1406
0.33 0.02 0.10 -1.14 9.79 0.08 -0.09 -0.07 1414
0.32 0.01 0.13 -1.09 9.71 0.07 -0.09 -0.07 1421
0.31 -0.01 0.17 -1.14 9.82 0.09 -0.10 -0.07 1428
0.29 0.01 0.13 -1.15 9.91 0.11 -0.11 -0.09 1435
0.31 -0.00 0.07 -1.26 9.96 0.13 -0.14 -0.09 1442
0.39 0.00 0.22 -1.23 10.14 0.16 -0.18 -0.10 1449
0.42 -0.01 0.13 -1.27 10.13 0.20 -0.22 -0.12 1458
0.44 -0.01 0.36 -1.29 10.39 0.25 -0.28 -0.15 1465
0.43 -0.02 0.29 -1.32 10.67 0.33 -0.36 -0.19 1472
0.44 -0.02 0.22 -1.53 11.24 0.45 -0.53 -0.21 1479
0.46 -0.01 -0.18 -1.41 11.66 0.58 -0.73 -0.22 1486
0.48 -0.03 -0.65 -1.52 12.26 0.80 -0.90 -0.17 1494
0.52 -0.03 0.44 -1.49 13.30 1.06 -0.95 -0.17 1501
0.52 -0.02 0.45 -1.59 13.79 1.28 -0.66 -0.25 1508
0.56 -0.04 -0.05 -1.67 14.64 1.55 -0.72 -0.24 1515
0.53 -0.03 0.33 -1.62 14.52 1.84 -0.80 -0.25 1522
0.54 -0.02 0.19 -1.70 14.41 2.09 -0.85 -0.28 1529
0.52 -0.03 0.00 -1.86 14.32 2.36 -0.93 -0.30 1536
0.51 -0.03 0.28 -1.97 14.61 2.59 -1.04 -0.31 1544
0.51 -0.02 0.40 -2.09 14.94 2.87 -1.11 -0.34 1551
0.49 -0.03 1.14 -2.35 15.31 3.11 -1.29 -0.41 1558
0.42 -0.02 2.09 -2.79 16.00 3.33 -1.47 -0.52 1565
0.36 -0.02 2.12 -3.13 17.02 3.60 -1.68 -0.65 1572
0.32 -0.02 1.56 -3.09 17.31 3.83 -1.99 -0.79 1580
0.23 -0.02 0.95 -3.51 18.44 4.09 -2.16 -0.88 1587
0.16 -0.02 2.07 -4.06 19.19 4.20 -2.55 -0.96 1593
0.11 -0.01 4.79 -4.70 19.60 4.23 -2.92 -1.14 1601
0.09 -0.00 8.09 -5.97 20.05 4.21 -3.27 -1.44 1608
0.10 -0.00 9.85 -6.76 20.84 4.12 -3.58 -1.89 1615
0.08 -0.01 10.28 -7.19 21.18 3.84 -3.73 -2.27 1623
0.03 -0.00 9.62 -5.62 19.85 3.45 -3.78 -2.65 1629
0.01 -0.00 9.94 -1.44 17.08 3.18 -4.13 -2.93 1636
-0.00 0.00 9.01 0.52 14.88 2.87 -4.28 -3.03 1643
0.00 0.00 10.98 1.52 14.32 2.52 -4.28 -2.82 1650
-0.00 0.00 20.10 3.07 9.41 2.27 -4.28 -1.62 1657
0.00 0.00 19.91 3.33 17.20 1.69 -3.37 -0.05 1665
0.00 0.00 22.27 5.05 10.09 0.84 -1.64 0.72 1672
0.00 0.00 16.93 4.62 10.11 0.30 -0.15 1.25 1679
0.00 0.00 11.99 3.79 10.37 -0.01 0.67 1.62 1686
0.00 0.00 9.25 3.60 9.50 -0.20 0.83 1.80 1693
-0.00 0.00 7.79 4.08 8.49 -0.29 0.83 1.84 1700
0.00 -0.00 7.36 4.24 8.33 -0.37 0.93 1.76 1708
0.00 0.00 6.90 4.31 8.28 -0.54 1.12 1.60 1715
0.00 0.00 6.01 4.34 8.28 -0.75 1.40 1.37 1722
0.00 0.00 5.30 4.31 8.52 -0.93 1.64 1.09 1729
0.00 0.00 4.28 4.04 8.82 -1.13 1.88 0.83 1736
0.00 0.00 3.53 3.94 9.01 -1.29 2.07 0.54 1743
0.00 0.00 2.87 3.87 9.24 -1.47 2.20 0.32 1751
0.00 0.00 2.35 3.81 9.74 -1.65 2.37 0.09 1758
0.00 0.00 1.84 3.95 10.14 -1.83 2.53 -0.07 1765
0.00 0.00 1.21 4.14 10.55 -2.06 2.72 -0.15 1772
-0.00 0.01 0.03 4.00 11.30 -2.25 2.85 -0.18 1779
0.01 -0.00 -0.83 3.68 11.78 -2.44 2.86 -0.15 1786
0.00 0.00 -1.52 3.34 12.06 -2.60 2.75 -0.09 1794
0.00 0.00 -1.54 2.87 12.45 -2.71 2.66 -0.03 1801
0.00 0.00 -1.30 2.53 12.78 -2.82 2.61 0.01 1808
0.00 0.00 -1.00 2.29 12.96 -2.88 2.61 0.02 1815
-0.00 0.00 -0.74 2.11 13.15 -2.95 2.64 0.02 1822
0.00 0.00 -0.55 1.99 13.21 -3.00 2.68 -0.01 1829
0.00 0.00 -0.37 2.09 13.28 -3.03 2.72 -0.04 1837
0.00 0.00 -0.22 2.22 13.48 -3.05 2.80 -0.06 1844
0.00 0.00 -0.03 2.38 13.95 -3.06 2.90 -0.07 1851
0.00 0.00 0.00 2.48 14.49 -3.08 3.00 -0.01 1858
-0.00 0.01 -0.18 2.40 14.91 -3.12 3.09 0.06 1865
0.00 0.00 -0.43 2.32 15.52 -3.17 3.12 0.21 1872
0.00 0.00 -0.93 2.03 16.05 -3.24 3.10 0.38 1880
0.00 0.00 -1.15 1.35 16.59 -3.31 3.02 0.59 1887
0.00 0.00 -1.27 0.03 17.02 -3.38 2.94 0.80 1894
0.00 0.00 -1.37 -0.36 17.35 -3.42 2.89 0.94 1901
0.00 -0.00 -1.71 -1.55 17.69 -3.44 2.87 1.07 1908
0.00 0.00 -2.07 -2.95 17.77 -3.43 2.84 1.18 1915
0.00 0.00 -2.55 -4.68 18.02 -3.38 2.76 1.30 1923
0.00 0.00 -3.17 -6.45 18.46 -3.29 2.64 1.41 1930
0.00 0.00 -4.13 -7.83 18.28 -3.15 2.53 1.50 1937
-0.00 0.01 -5.47 -9.39 17.92 -3.00 2.47 1.57 1944
-0.00 0.00 -6.98 -10.72 17.40 -2.83 2.42 1.58 1952
0.00 0.00 -9.09 -12.66 17.15 -2.69 2.34 1.54 1958
-0.00 0.00 -11.52 -14.88 16.19 -2.59 2.20 1.46 1967
0.00 0.00 -13.10 -17.04 15.19 -2.51 1.96 1.38 1973
0.00 0.00 -14.93 -19.44 12.96 -2.48 1.59 1.34 1981
-0.00 0.01 -14.31 -21.07 9.59 -2.46 1.06 1.34 1988
0.00 -0.00 -11.26 -22.73 7.97 -2.40 0.13 1.34 1995
0.00 0.00 -7.99 -24.49 6.31 -2.19 -0.42 1.38 2001
0.00 0.00 -5.86 -25.43 4.97 -1.76 -0.42 1.41 2009
0.00 0.00 -5.25 -25.86 3.87 -1.22 -0.11 1.38 2016
0.00 0.00 -6.06 -25.44 4.08 -0.73 0.17 1.29 2023
-0.00 0.01 -7.54 -23.60 4.74 -0.24 0.31 1.16 2030
-0.00 0.00 -12.73 -26.13 0.80 0.08 0.14 1.04 2037
-0.00 0.02 -40.55 -35.68 7.07 1.84 -4.08 1.42 2045
-0.00 0.03 -13.70 -27.48 -4.75 2.45 -4.28 1.60 2053
-0.01 0.13 -7.40 -4.00 8.31 3.34 -4.28 1.40 2059
-0.04 0.51 -12.39 -0.82 33.66 4.24 -2.66 1.92 2067
-0.05 0.88 -14.86 2.53 26.76 4.28 -1.20 1.85 2074
-0.08 1.00 -9.35 -7.75 26.59 4.28 -1.42 0.81 2081
-0.06 1.02 -7.30 -7.89 24.04 4.27 -1.08 0.43 2088
-0.07 0.91 -1.25 -3.23 18.99 3.93 -0.68 0.18 2096
-0.05 0.91 1.97 -4.53 24.17 3.06 -0.60 0.16 2103
-0.06 0.78 1.40 -2.22 15.23 0.91 -1.28 0.18 2110
-0.04 0.66 0.05 -2.79 14.37 0.41 -0.89 0.24 2116
0.01 0.61 -2.52 -3.14 11.62 0.13 -0.45 0.07 2124
0.05 0.52 0.10 -0.49 9.14 0.15 -0.25 0.04 2130
0.03 0.48 -0.03 -1.72 10.25 0.10 -0.19 0.06 2138
0.07 0.41 -0.78 -1.83 10.35 0.09 -0.10 0.06 2146
0.11 0.37 -0.35 -0.80 10.15 0.11 -0.02 0.08 2152
0.12 0.36 0.49 -0.91 10.38 0.14 -0.01 0.08 2159
0.15 0.28 0.19 -1.09 9.82 0.15 -0.05 0.06 2166
0.17 0.29 -0.28 -1.11 9.70 0.12 -0.04 0.07 2173
0.15 0.28 0.14 -0.71 9.82 0.08 -0.01 0.07 2181
0.17 0.24 0.09 -0.74 10.02 0.10 -0.01 0.07 2188
0.20 0.25 -0.03 -0.74 9.90 0.14 -0.02 0.07 2195
0.22 0.22 0.04 -0.67 9.85 0.15 -0.02 0.06 2202
0.22 0.19 0.17 -0.75 9.86 0.16 -0.02 0.06 2209
0.24 0.17 0.11 -0.69 9.83 0.18 -0.02 0.05 2216
0.21 0.18 0.07 -0.79 9.86 0.19 -0.02 0.04 2224
0.22 0.16 0.08 -0.76 9.94 0.20 -0.02 0.03 2231
0.23 0.12 0.08 -0.80 9.89 0.22 -0.02 0.03 2238
0.24 0.09 0.08 -0.80 9.86 0.23 -0.02 0.02 2245
0.25 0.06 0.11 -0.88 9.82 0.23 -0.02 0.02 2252
0.24 0.06 0.11 -0.97 9.70 0.22 -0.02 0.02 2259
0.21 0.05 0.06 -1.05 9.62 0.20 -0.01 0.01 2267
0.23 0.04 0.16 -1.08 9.55 0.18 -0.01 0.01 2274
0.22 0.07 0.21 -1.06 9.44 0.15 -0.00 -0.00 2281
0.23 0.04 0.24 -1.09 9.48 0.13 -0.00 -0.01 2288
0.22 0.02 0.27 -1.08 9.51 0.11 -0.01 -0.02 2295
0.21 0.01 0.30 -1.08 9.60 0.09 -0.02 -0.03 2302
0.22 0.00 0.28 -1.09 9.62 0.08 -0.02 -0.04 2310
0.23 0.01 0.25 -1.09 9.58 0.08 -0.03 -0.04 2317
0.23 0.03 0.17 -1.07 9.56 0.06 -0.03 -0.05 2324
0.24 0.01 0.12 -1.14 9.57 0.05 -0.03 -0.05 2331
0.24 0.01 0.09 -1.09 9.60 0.04 -0.02 -0.05 2338
0.23 0.01 0.13 -1.10 9.57 0.03 -0.02 -0.05 2345
0.23 0.02 0.07 -1.11 9.64 0.03 -0.01 -0.05 2353
0.23 0.02 0.09 -1.11 9.63 0.02 -0.00 -0.05 2360
0.25 0.02 0.10 -1.13 9.64 0.01 0.01 -0.05 2367
0.26 0.03 0.11 -1.09 9.65 0.01 0.01 -0.05 2374
0.25 0.02 0.13 -1.14 9.73 0.01 0.01 -0.05 2381
0.24 0.03 0.16 -1.15 9.68 0.01 0.01 -0.05 2388
0.25 0.02 0.16 -1.13 9.76 0.02 0.01 -0.05 2396
0.28 0.03 0.18 -1.14 9.76 0.02 -0.00 -0.05 2403
0.28 0.02 0.15 -1.14 9.76 0.02 -0.00 -0.04 2410
0.29 0.00 0.12 -1.17 9.65 0.02 -0.01 -0.05 2417
0.28 -0.00 0.07 -1.19 9.62 0.00 -0.00 -0.05 2424
0.28 0.00 0.06 -1.15 9.61 -0.01 0.01 -0.05 2432
0.29 -0.00 0.12 -1.16 9.70 -0.02 0.01 -0.04 2439
0.30 0.01 0.12 -1.15 9.65 -0.02 0.01 -0.04 2446
0.30 0.01 0.15 -1.12 9.69 -0.02 -0.00 -0.04 2453
0.30 0.01 0.13 -1.13 9.78 -0.01 -0.01 -0.04 2460
0.30 -0.00 0.16 -1.15 9.74 -0.01 -0.02 -0.04 2467
0.30 0.01 0.18 -1.14 9.72 -0.00 -0.03 -0.04 2475
0.30 0.02 0.19 -1.12 9.78 0.01 -0.04 -0.05 2482
0.32 0.02 0.15 -1.16 9.83 0.02 -0.05 -0.05 2489
0.32 0.00 0.12 -1.14 9.82 0.03 -0.06 -0.05 2496
0.34 0.01 0.07 -1.12 9.77 0.03 -0.06 -0.05 2503
0.37 -0.00 0.11 -1.16 9.82 0.04 -0.06 -0.05 2510
0.35 0.01 0.06 -1.17 9.75 0.04 -0.06 -0.05 2518
0.38 0.01 0.05 -1.15 9.80 0.04 -0.06 -0.05 2525
0.40 -0.00 0.08 -1.17 9.75 0.05 -0.06 -0.06 2532
0.41 -0.01 0.10 -1.19 9.75 0.05 -0.06 -0.06 2539
0.41 0.00 0.02 -1.20 9.78 0.06 -0.07 -0.06 2546
0.42 -0.00 0.15 -1.20 9.86 0.08 -0.08 -0.07 2553
0.41 -0.01 0.09 -0.63 9.86 0.10 -0.09 -0.08 2561
0.41 -0.01 0.22 -1.15 9.92 0.13 -0.12 -0.08 2568
0.45 -0.01 0.15 -1.31 9.89 0.15 -0.13 -0.09 2575
0.45 -0.00 0.19 -1.30 10.08 0.18 -0.15 -0.11 2582
0.48 -0.02 0.11 -1.25 10.10 0.21 -0.17 -0.12 2590
0.43 -0.01 -0.07 -1.40 10.18 0.26 -0.20 -0.13 2597
0.45 -0.02 -0.23 -1.37 10.42 0.33 -0.24 -0.13 2605
0.47 -0.02 -0.49 -1.44 10.73 0.42 -0.32 -0.11 2612
0.50 -0.03 -0.34 -1.29 10.87 0.55 -0.41 -0.08 2619
0.51 -0.04 0.28 -1.55 11.43 0.70 -0.41 -0.08 2626
0.52 -0.05 0.49 -1.65 11.75 0.85 -0.27 -0.15 2633
0.45 -0.04 -0.10 -1.65 12.09 1.01 -0.21 -0.17 2640
0.47 -0.03 0.13 -1.75 12.07 1.15 -0.25 -0.16 2648
0.53 -0.02 0.06 -1.77 12.55 1.32 -0.27 -0.18 2655
0.54 -0.03 0.24 -1.82 12.83 1.50 -0.30 -0.19 2662
0.51 -0.03 0.18 -1.85 13.57 1.70 -0.33 -0.21 2669
0.52 -0.04 0.22 -1.96 14.37 1.96 -0.43 -0.23 2676
0.53 -0.03 0.39 -2.08 15.67 2.22 -0.61 -0.26 2683
0.52 -0.03 0.67 -2.13 16.27 2.57 -0.83 -0.28 2691
0.45 -0.02 1.17 -2.30 15.57 2.89 -1.10 -0.32 2698
0.45 -0.02 0.07 -2.28 15.39 3.11 -1.21 -0.38 2705
0.36 -0.02 0.65 -2.61 15.75 3.37 -1.40 -0.43 2712
0.32 -0.02 3.54 -3.69 15.57 3.60 -1.83 -0.53 2719
0.24 -0.01 5.59 -3.71 15.43 3.72 -2.14 -0.80 2726
0.19 -0.01 6.94 -4.73 15.64 3.82 -2.52 -1.14 2734
0.15 -0.02 8.61 -5.90 16.59 3.87 -2.90 -1.57 2740
0.11 -0.01 10.40 -6.42 16.76 3.94 -3.03 -1.97 2748
0.10 -0.01 12.37 -7.56 17.52 3.94 -2.97 -2.49 2755
0.06 -0.01 14.65 -6.20 17.16 3.78 -2.80 -3.02 2762
0.02 -0.00 15.55 -6.40 16.43 3.54 -2.24 -3.53 2769
0.02 -0.00 13.44 -4.91 15.85 3.26 -1.68 -4.13 2777
0.00 0.00 11.69 -1.45 14.43 2.88 -1.67 -4.28 2783
0.00 -0.00 10.33 1.54 11.85 2.48 -2.03 -4.28 2791
0.00 0.00 13.84 4.99 9.41 2.14 -2.24 -4.28 2797
0.00 -0.00 19.97 4.01 7.07 1.85 -1.37 -2.91 2804
-0.00 0.00 19.86 3.01 15.28 1.17 0.54 -1.74 2811
-0.00 0.00 14.80 2.26 9.05 0.65 1.08 -0.98 2819
0.00 0.00 9.04 2.52 9.07 0.51 1.22 -0.28 2826
0.00 0.00 8.16 1.79 9.09 0.42 1.04 0.12 2833
0.00 0.00 8.02 2.37 9.09 0.31 0.91 0.28 2840
0.00 0.00 7.99 2.90 8.73 0.19 1.14 0.23 2847
0.00 0.00 7.27 3.09 9.07 0.03 1.47 0.04 2854
-0.00 0.00 5.54 3.47 9.25 -0.16 1.86 -0.31 2862
0.00 0.00 4.03 3.70 9.47 -0.33 2.10 -0.69 2869
0.00 0.00 3.07 3.66 9.54 -0.54 2.25 -1.02 2876
0.00 0.00 2.33 3.37 9.81 -0.74 2.39 -1.35 2883
0.00 0.00 1.82 3.18 10.04 -0.92 2.51 -1.55 2890
0.00 0.00 1.24 2.86 10.40 -1.08 2.63 -1.67 2897
0.00 -0.00 0.61 2.67 10.54 -1.17 2.73 -1.65 2905
0.00 0.00 0.09 2.56 10.39 -1.25 2.76 -1.56 2912
0.00 0.00 -0.32 2.17 10.39 -1.28 2.82 -1.36 2919
0.00 0.00 -0.58 1.87 10.56 -1.28 2.82 -1.11 2926
0.00 0.00 -0.42 1.73 10.77 -1.27 2.84 -0.86 2933
-0.00 0.01 -0.45 1.58 11.19 -1.27 2.92 -0.56 2940
-0.00 0.00 -0.72 1.60 11.53 -1.29 2.98 -0.32 2948
-0.00 0.00 -1.28 1.59 11.90 -1.35 3.02 -0.08 2955
0.00 0.00 -1.61 0.66 12.48 -1.43 3.05 0.09 2962
0.00 0.00 -2.19 0.93 12.63 -1.55 3.08 0.18 2969
0.00 0.00 -2.91 0.53 12.60 -1.66 3.10 0.21 2976
-0.00 0.01 -3.73 -0.00 12.75 -1.73 3.11 0.18 2983
0.00 0.00 -5.08 -0.63 12.72 -1.75 3.12 0.08 2991
0.00 0.00 -6.27 -1.10 12.64 -1.73 3.07 -0.05 2998
0.00 0.00 -6.98 -1.24 12.70 -1.68 2.93 -0.20 3005
0.00 0.00 -7.40 -1.17 12.84 -1.66 2.81 -0.37 3012
0.00 0.00 -7.89 -0.93 12.94 -1.65 2.73 -0.49 3019
-0.00 0.00 -8.30 -0.65 13.00 -1.68 2.60 -0.59 3026
0.00 0.00 -8.53 -0.54 13.02 -1.74 2.40 -0.66 3034
0.00 0.00 -8.50 -0.48 12.68 -1.83 2.18 -0.66 3041
0.00 0.00 -7.61 -0.71 12.51 -1.93 1.92 -0.62 3048
0.00 0.00 -6.61 -1.08 12.30 -1.96 1.70 -0.55 3055
0.00 0.00 -5.56 -1.50 11.86 -1.99 1.54 -0.46 3062
-0.00 0.00 -4.94 -2.12 11.48 -1.98 1.50 -0.40 3069
0.00 0.00 -4.80 -2.67 11.24 -1.94 1.51 -0.39 3077
0.00 0.00 -4.70 -3.13 10.94 -1.88 1.51 -0.40 3084
0.00 0.00 -4.69 -3.26 10.65 -1.83 1.50 -0.42 3091
0.00 0.00 -4.64 -3.42 10.54 -1.78 1.44 -0.44 3098
0.00 0.00 -4.21 -3.77 10.46 -1.76 1.33 -0.44 3105
0.00 0.00 -3.35 -4.15 10.32 -1.75 1.26 -0.43 3112
0.00 0.00 -2.54 -4.56 10.19 -1.74 1.20 -0.38 3120
0.00 0.00 -1.88 -4.82 10.12 -1.72 1.20 -0.26 3127
0.00 0.00 -1.53 -4.95 9.96 -1.69 1.23 -0.11 3134
0.00 0.00 -1.60 -4.84 9.68 -1.65 1.24 0.15 3141
0.00 0.00 -1.83 -4.80 9.40 -1.59 1.20 0.45 3148
0.00 -0.00 -2.16 -4.84 9.18 -1.51 1.14 0.82 3155
0.00 0.00 -2.47 -5.14 9.12 -1.43 1.11 1.17 3163
0.00 0.00 -3.31 -5.59 9.02 -1.31 1.09 1.44 3170
0.00 0.00 -4.16 -5.95 9.03 -1.20 1.05 1.67 3177
0.00 0.00 -4.84 -6.17 9.07 -1.09 0.98 1.82 3184
-0.00 0.00 -5.48 -6.47 9.12 -1.00 0.88 1.91 3191
0.00 0.00 -5.98 -6.82 8.94 -0.92 0.82 1.92 3198
0.00 0.00 -6.46 -7.09 8.74 -0.83 0.77 1.86 3206
0.00 0.00 -7.16 -7.22 8.60 -0.71 0.71 1.73 3213
0.00 0.00 -7.74 -7.17 8.45 -0.64 0.61 1.57 3220
0.00 0.00 -7.84 -6.75 8.30 -0.55 0.48 1.41 3227
-0.00 0.00 -7.62 -6.02 8.09 -0.51 0.37 1.24 3234
0.00 0.00 -7.20 -5.32 8.05 -0.50 0.30 1.13 3241
0.00 0.00 -6.62 -4.51 7.77 -0.55 0.27 1.06 3249
0.00 0.00 -6.39 -3.78 6.86 -0.62 0.25 1.04 3256
0.00 0.00 -11.86 -8.94 2.07 -0.55 -0.03 1.09 3263
-0.00 0.03 -35.48 -23.39 2.68 0.87 -4.28 1.88 3271
0.01 0.06 1.71 1.96 -1.97 1.39 -4.28 1.25 3277
0.01 0.16 -9.95 -2.38 26.03 2.76 -4.28 1.51 3286
-0.05 0.61 -15.40 0.40 30.61 3.13 -2.30 1.76 3293
-0.08 0.91 -10.25 -1.91 28.01 2.83 -2.26 1.25 3300
-0.08 0.99 -9.56 -6.17 18.96 2.73 -1.73 0.64 3307
-0.06 0.98 -2.21 -2.35 15.76 2.57 -1.00 0.40 3314
-0.05 0.94 1.23 -1.55 14.00 2.12 -0.29 0.51 3321
-0.06 0.90 0.60 -2.72 16.75 1.68 -0.23 0.64 3329
-0.06 0.80 -0.31 -0.61 12.56 0.56 -0.59 0.52 3336
-0.03 0.73 -2.70 -3.42 11.07 0.16 -0.43 0.25 3343
-0.03 0.64 -0.62 -1.10 8.48 0.19 -0.25 0.10 3349
0.01 0.58 -0.03 -1.45 9.75 0.06 -0.13 0.08 3356
0.07 0.52 0.17 -1.47 10.21 0.06 -0.09 0.05 3363
0.08 0.48 0.13 -0.76 10.25 0.10 -0.09 0.03 3371
0.09 0.42 0.14 -0.83 10.02 0.15 -0.08 0.02 3378
0.11 0.36 0.11 -0.98 9.83 0.17 -0.08 0.02 3385
0.12 0.31 0.23 -1.23 9.24 0.15 -0.08 0.03 3392
0.14 0.28 0.32 -1.01 9.75 0.12 -0.08 0.02 3399
0.15 0.28 0.23 -0.97 9.82 0.10 -0.08 0.01 3406
0.17 0.28 0.08 -0.90 9.82 0.10 -0.08 0.01 3414
0.17 0.26 0.11 -0.87 9.83 0.10 -0.07 0.01 3421
0.18 0.28 0.05 -0.86 9.83 0.10 -0.06 0.02 3428
0.21 0.24 0.13 -0.81 9.86 0.11 -0.05 0.02 3435
0.23 0.20 0.16 -0.91 9.85 0.12 -0.06 0.02 3442
0.22 0.22 0.11 -0.85 9.87 0.13 -0.05 0.02 3449
0.22 0.21 0.07 -0.86 9.87 0.14 -0.05 0.02 3457
0.24 0.15 0.00 -0.83 9.96 0.15 -0.05 0.02 3464
0.21 0.17 0.03 -0.89 9.82 0.16 -0.05 0.03 3471
0.25 0.15 0.04 -0.95 9.81 0.16 -0.04 0.03 3478
0.27 0.11 0.12 -1.01 9.68 0.15 -0.03 0.02 3485
0.29 0.11 0.13 -1.06 9.66 0.15 -0.03 0.02 3492
0.30 0.06 0.15 -1.02 9.78 0.14 -0.02 0.01 3500
0.30 0.05 0.22 -1.04 9.58 0.12 -0.02 0.01 3507
0.28 0.06 0.13 -1.09 9.44 0.11 -0.01 -0.00 3514
0.28 0.05 0.20 -1.14 9.54 0.08 -0.01 -0.00 3521
0.28 0.05 0.25 -1.15 9.57 0.06 0.00 -0.01 3528
0.27 0.03 0.21 -1.13 9.61 0.04 0.01 -0.02 3535
0.28 0.03 0.23 -1.11 9.71 0.03 0.01 -0.02 3543
0.28 0.03 0.21 -1.10 9.75 0.02 0.02 -0.02 3550
0.29 0.03 0.21 -1.08 9.66 0.01 0.02 -0.02 3557
0.28 0.04 0.19 -1.11 9.71 0.01 0.02 -0.03 3564
0.29 0.02 0.19 -1.13 9.65 0.01 0.02 -0.02 3571
0.28 0.04 0.17 -1.14 9.60 -0.01 0.02 -0.02 3578
0.27 0.03 0.21 -1.09 9.63 -0.02 0.02 -0.03 3586
0.26 0.04 0.18 -1.11 9.65 -0.02 0.02 -0.02 3593
0.27 0.03 0.12 -1.10 9.64 -0.02 0.02 -0.03 3600
0.28 0.04 0.17 -1.09 9.60 -0.03 0.01 -0.02 3607
0.28 0.02 0.18 -1.08 9.69 -0.03 0.01 -0.02 3614
0.26 0.03 0.16 -1.08 9.66 -0.03 0.01 -0.02 3621
0.27 0.03 0.17 -1.10 9.67 -0.03 0.01 -0.02 3629
0.25 0.05 0.18 -1.08 9.70 -0.04 0.01 -0.02 3636
0.27 0.05 0.14 -1.07 9.65 -0.03 0.01 -0.02 3643
0.28 0.05 0.13 -1.07 9.71 -0.02 0.00 -0.02 3650
0.28 0.05 0.19 -1.10 9.67 -0.02 -0.00 -0.02 3657
0.27 0.05 0.09 -1.08 9.67 -0.02 -0.00 -0.03 3664
0.26 0.05 0.13 -1.08 9.69 -0.03 -0.00 -0.03 3672
0.26 0.06 0.16 -1.09 9.66 -0.03 -0.01 -0.03 3679
0.26 0.07 0.11 -1.11 9.66 -0.04 -0.01 -0.03 3686
0.27 0.07 0.17 -1.11 9.70 -0.05 -0.01 -0.03 3693
0.28 0.06 0.11 -1.05 9.68 -0.05 -0.01 -0.02 3700
0.27 0.06 0.04 -1.08 9.72 -0.06 0.00 -0.02 3707
0.27 0.06 0.13 -1.06 9.74 -0.06 -0.00 -0.02 3715
0.26 0.06 0.12 -1.04 9.74 -0.06 0.00 -0.02 3722
0.26 0.07 0.06 -0.98 9.67 -0.04 -0.00 -0.02 3729
0.26 0.07 0.17 -0.97 9.74 -0.02 -0.01 -0.02 3736
0.26 0.06 0.17 -1.05 9.69 -0.01 -0.00 -0.03 3743
0.26 0.06 0.10 -1.04 9.69 0.03 -0.00 -0.03 3750
0.25 0.06 0.07 -1.04 9.75 0.01 0.00 -0.03 3758
0.26 0.06 0.15 -1.06 9.77 0.02 0.01 -0.03 3765
0.26 0.07 0.11 -1.05 9.67 0.02 0.01 -0.04 3772
0.28 0.05 0.03 -1.11 9.77 0.02 0.02 -0.04 3779
0.28 0.06 0.02 -1.08 9.67 0.02 0.03 -0.03 3786
0.28 0.06 0.05 -1.04 9.70 0.02 0.04 -0.03 3793
0.27 0.06 0.03 -1.04 9.80 0.03 0.05 -0.03 3801
0.29 0.05 0.15 -1.03 9.82 0.04 0.05 -0.03 3808
0.29 0.05 0.14 -1.07 9.28 0.07 0.05 -0.04 3815
0.30 0.03 0.09 -1.05 9.86 0.10 0.05 -0.04 3822
0.30 0.02 0.02 -1.08 9.96 0.12 0.04 -0.04 3829
0.30 0.01 0.09 -1.06 10.03 0.15 0.05 -0.04 3836
0.28 0.01 0.01 -1.10 10.24 0.19 0.04 -0.04 3844
0.32 0.00 0.03 -1.03 10.56 0.26 0.01 -0.03 3851
0.30 0.01 0.03 -0.88 10.78 0.35 -0.07 -0.01 3858
0.31 -0.01 -0.57 -1.12 11.29 0.45 -0.13 -0.02 3866
0.31 -0.00 -0.45 -1.30 12.27 0.63 -0.27 -0.00 3873
0.31 -0.03 -0.31 -1.65 14.25 0.93 -0.67 0.02 3879
0.29 -0.02 1.60 -1.68 16.88 1.39 -0.71 -0.02 3888
0.33 -0.02 1.48 -1.62 15.52 1.79 -0.44 -0.16 3895
0.36 -0.03 0.80 -1.60 14.99 2.03 -0.73 -0.18 3902
0.35 -0.03 1.94 -1.75 14.43 2.28 -0.93 -0.24 3909
0.31 -0.02 1.76 -1.86 14.83 2.53 -1.18 -0.36 3916
0.31 -0.03 2.30 -2.14 15.56 2.73 -1.41 -0.48 3923
0.29 -0.02 2.74 -2.22 16.07 2.95 -1.68 -0.58 3931
0.27 -0.01 2.28 -2.67 17.27 3.13 -1.99 -0.72 3938
0.26 -0.02 3.19 -3.42 17.41 3.33 -2.39 -0.83 3945
0.20 -0.02 4.26 -3.81 17.34 3.45 -2.87 -1.03 3952
0.18 -0.02 4.64 -4.56 17.70 3.46 -3.25 -1.24 3958
0.10 -0.01 5.88 -4.79 16.84 3.43 -3.64 -1.44 3965
0.06 -0.01 6.96 -5.35 17.46 3.33 -3.87 -1.75 3973
0.04 0.01 8.34 -4.79 16.18 3.09 -4.11 -2.01 3981
0.03 -0.00 8.66 -4.71 17.58 2.77 -4.28 -2.33 3987
0.01 -0.00 7.96 -3.38 16.64 2.43 -4.28 -2.60 3994
0.01 -0.00 7.55 -0.86 15.10 1.96 -4.28 -2.69 4001
0.00 0.00 8.23 0.46 12.79 1.45 -4.28 -2.60 4008
-0.00 0.00 12.30 0.89 10.92 0.79 -4.28 -2.12 4016
-0.00 0.00 26.53 2.36 7.18 0.41 -4.28 0.20 4023
0.00 0.00 29.38 2.16 13.43 -0.61 -2.44 1.59 4030
0.00 0.00 22.87 0.59 7.59 -1.21 -0.60 2.34 4037
0.00 0.00 14.58 -0.51 6.50 -1.04 0.23 2.97 4044
0.00 0.00 12.16 -1.18 7.40 -0.61 0.28 3.29 4051
0.00 0.00 10.98 -0.02 7.52 -0.35 0.16 3.42 4059
0.00 0.00 11.37 1.04 8.27 -0.37 0.28 3.30 4066
0.00 0.00 10.96 1.13 8.96 -0.59 0.60 3.04 4073
0.00 0.00 9.16 0.95 9.40 -0.81 0.93 2.62 4080
0.00 0.00 7.83 0.76 9.41 -1.01 1.10 2.12 4087
0.00 0.00 7.16 0.59 9.45 -1.16 1.19 1.60 4094
-0.00 0.00 7.51 0.51 9.76 -1.27 1.35 0.97 4102
0.00 0.00 7.78 0.40 10.16 -1.39 1.68 0.43 4109
0.00 0.00 6.89 0.50 10.72 -1.52 2.18 -0.14 4116
0.00 0.00 5.27 0.65 11.44 -1.59 2.53 -0.57 4123
0.00 0.00 3.41 0.95 11.82 -1.66 2.77 -0.89 4130
-0.00 0.01 2.32 1.36 12.28 -1.71 2.90 -1.13 4137
-0.00 0.01 1.72 1.61 12.57 -1.79 2.95 -1.24 4145
0.00 -0.00 1.29 1.59 12.87 -1.87 3.04 -1.30 4152
-0.00 0.01 0.60 1.64 12.94 -1.90 3.14 -1.30 4159
0.00 0.00 -0.37 1.58 13.13 -1.88 3.25 -1.26 4166
0.00 0.00 -1.00 1.45 13.63 -1.83 3.33 -1.22 4173
0.00 0.00 -1.43 1.31 13.92 -1.78 3.39 -1.22 4180
-0.00 0.00 -1.77 1.20 14.03 -1.75 3.46 -1.22 4188
0.00 -0.00 -2.13 1.02 14.08 -1.74 3.52 -1.27 4195
0.00 0.00 -2.68 0.80 14.28 -1.72 3.60 -1.35 4202
0.00 0.00 -3.71 0.58 14.55 -1.69 3.67 -1.48 4209
0.00 0.00 -4.77 0.60 14.69 -1.64 3.68 -1.63 4216
0.00 0.00 -5.98 0.91 14.86 -1.61 3.61 -1.74 4224
0.00 0.00 -6.76 1.37 14.95 -1.59 3.50 -1.83 4231
0.00 0.00 -7.45 1.74 14.88 -1.57 3.37 -1.86 4238
0.00 0.00 -8.08 2.06 14.73 -1.57 3.22 -1.83 4245
0.00 0.00 -8.38 2.37 14.33 -1.56 3.10 -1.68 4252
0.00 0.00 -8.73 2.34 13.88 -1.55 2.92 -1.50 4259
0.00 0.00 -8.89 2.09 13.35 -1.55 2.67 -1.19 4267
0.00 -0.00 -8.80 1.75 12.29 -1.52 2.48 -0.88 4274
0.00 0.00 -8.42 1.53 12.37 -1.49 2.23 -0.47 4281
0.00 0.00 -8.10 1.38 12.00 -1.45 2.05 -0.04 4288
0.00 0.00 -7.74 1.24 11.73 -1.44 1.88 0.33 4295
0.00 0.00 -7.50 1.26 11.34 -1.47 1.74 0.74 4302
0.00 0.00 -7.25 1.27 11.08 -1.56 1.60 1.07 4310
0.00 0.00 -7.12 1.05 11.13 -1.67 1.43 1.40 4317
0.00 0.00 -7.17 0.28 10.05 -1.81 1.32 1.61 4324
0.00 0.00 -6.67 -0.94 9.34 -1.98 1.13 1.67 4331
0.00 0.00 -5.74 -2.67 8.93 -2.09 0.90 1.63 4338
0.00 0.00 -5.09 -3.86 8.27 -2.12 0.81 1.52 4345
-0.00 0.01 -4.70 -5.12 8.22 -2.09 0.82 1.38 4353
0.00 0.00 -5.00 -6.43 8.41 -2.03 0.87 1.24 4360
0.00 0.00 -5.88 -7.46 8.61 -1.94 0.94 1.15 4367
0.00 0.00 -7.10 -8.44 8.94 -1.88 0.92 1.11 4374
0.00 0.00 -8.13 -9.08 8.53 -1.80 0.85 1.14 4381
-0.00 0.00 -9.07 -9.60 8.14 -1.68 0.68 1.23 4388
-0.00 0.01 -9.20 -9.78 7.67 -1.55 0.54 1.35 4396
-0.00 0.01 -8.97 -9.56 6.80 -1.40 0.47 1.46 4403
0.01 0.02 -46.97 -37.70 27.40 0.17 -3.41 1.65 4411
-0.00 0.03 -28.08 -31.86 -5.36 0.40 -4.28 1.87 4418
-0.01 0.08 -15.12 -44.89 6.11 1.69 -4.28 1.54 4425
-0.01 0.19 -18.30 -15.56 21.18 3.34 -4.28 1.84 4432
-0.05 0.72 -15.29 -5.77 34.35 4.22 -1.85 2.08 4440
-0.07 0.89 -13.40 0.55 32.88 3.45 -0.98 1.51 4447
-0.07 0.97 -7.72 -4.29 22.11 2.63 -1.07 0.60 4454
-0.07 0.95 -2.50 -4.76 15.35 2.30 -0.74 0.28 4461
-0.06 0.89 4.56 -0.10 10.71 2.07 -0.37 0.47 4468
-0.05 0.81 4.02 -0.53 14.31 1.74 -0.62 0.85 4475
-0.04 0.76 -0.06 1.76 10.80 0.59 -1.32 0.77 4482
-0.02 0.66 -6.42 -6.14 12.32 -0.02 -0.84 0.30 4490
0.02 0.52 -1.53 -2.18 9.19 0.06 -0.48 0.03 4496
0.04 0.48 0.74 -1.03 11.01 0.10 -0.29 0.08 4503
0.08 0.35 -0.01 -0.95 10.78 0.25 -0.32 0.05 4510
0.11 0.37 0.06 -1.33 9.72 0.28 -0.31 0.05 4517
0.20 0.29 0.20 -1.07 9.97 0.22 -0.27 0.04 4525
0.24 0.27 0.08 -1.31 9.99 0.19 -0.26 0.04 4532
0.30 0.22 0.04 -0.99 9.78 0.16 -0.23 0.04 4539
0.31 0.23 0.05 -0.86 9.93 0.13 -0.17 0.04 4546
0.31 0.21 0.01 -1.02 9.93 0.12 -0.18 0.04 4553
0.35 0.22 0.02 -0.85 9.75 0.12 -0.15 0.03 4560
0.37 0.19 -0.08 -0.84 9.81 0.11 -0.12 0.04 4568
0.40 0.21 0.05 -0.92 9.86 0.11 -0.09 0.03 4575
0.42 0.18 -0.01 -0.87 9.82 0.12 -0.06 0.03 4582
0.44 0.17 -0.06 -0.89 9.89 0.13 -0.05 0.03 4589
0.46 0.13 -0.01 -0.86 9.83 0.14 -0.03 0.02 4596
0.47 0.11 -0.04 -0.93 9.78 0.14 -0.01 0.02 4603
0.47 0.09 -0.02 -0.98 9.76 0.14 0.01 0.03 4611
0.46 0.07 0.04 -1.01 9.74 0.13 0.03 0.02 4618
0.47 0.04 0.06 -1.02 9.67 0.12 0.04 0.01 4625
0.43 0.06 0.03 -1.05 9.68 0.10 0.05 0.01 4632
0.44 0.03 0.12 -1.05 9.58 0.08 0.06 0.00 4639
0.41 0.05 0.16 -1.07 9.60 0.07 0.07 0.00 4646
0.40 0.03 0.21 -1.05 9.60 0.05 0.08 -0.01 4654
0.39 0.02 0.23 -1.04 9.52 0.03 0.08 -0.01 4661
0.37 0.03 0.22 -1.10 9.51 0.01 0.09 -0.01 4668
0.33 0.04 0.23 -1.09 9.55 -0.01 0.09 -0.02 4675
0.32 0.04 0.22 -1.09 9.61 -0.03 0.09 -0.02 4682
0.34 0.03 0.26 -1.05 9.58 -0.05 0.08 -0.03 4689
0.33 0.03 0.26 -1.03 9.62 -0.06 0.08 -0.02 4697
0.32 0.03 0.27 -1.03 9.67 -0.07 0.07 -0.03 4704
0.27 0.04 0.21 -1.03 9.75 -0.07 0.06 -0.02 4711
0.25 0.04 0.19 -1.06 9.64 -0.07 0.05 -0.03 4718
0.25 0.07 0.23 -0.99 9.61 -0.08 0.05 -0.02 4725
0.26 0.07 0.23 -1.04 9.61 -0.08 0.05 -0.02 4732
0.25 0.07 0.19 -1.01 9.68 -0.08 0.04 -0.02 4740
0.26 0.07 0.18 -0.97 9.68 -0.09 0.04 -0.02 4747
0.24 0.08 0.20 -0.96 9.63 -0.09 0.03 -0.02 4754
0.24 0.09 0.21 -0.99 9.68 -0.09 0.03 -0.02 4761
0.21 0.11 0.17 -0.96 9.73 -0.09 0.03 -0.02 4768
0.22 0.16 0.17 -0.95 9.80 -0.08 0.03 -0.02 4775
0.19 0.14 0.16 -0.95 9.78 -0.08 0.03 -0.01 4783
0.20 0.12 0.15 -0.94 9.77 -0.06 0.03 -0.01 4790
0.17 0.13 0.16 -0.95 9.74 -0.06 0.02 -0.01 4797
0.20 0.12 0.15 -0.95 9.73 -0.05 0.03 -0.02 4804
0.20 0.13 0.17 -0.98 9.70 -0.05 0.03 -0.01 4811
0.20 0.15 0.13 -0.92 9.66 -0.05 0.03 -0.01 4818
0.19 0.15 0.19 -0.92 9.73 -0.05 0.03 -0.01 4826
0.20 0.13 0.16 -0.93 9.74 -0.04 0.02 -0.01 4833
0.20 0.13 0.14 -0.91 9.77 -0.04 0.02 -0.01 4840
0.20 0.16 0.17 -0.93 9.74 -0.03 0.02 -0.01 4847
0.21 0.16 0.15 -0.90 9.72 -0.02 0.01 -0.01 4854
0.20 0.15 0.12 -0.91 9.72 -0.01 0.01 -0.01 4861
0.17 0.15 0.16 -0.89 9.71 -0.01 0.01 -0.01 4869
0.16 0.16 0.16 -0.92 9.74 0.00 0.01 -0.02 4876
0.17 0.15 0.18 -0.90 9.75 0.02 0.01 -0.02 4883
0.19 0.15 0.14 -0.95 9.71 0.03 0.00 -0.02 4890
0.21 0.12 0.19 -0.87 9.74 0.04 0.00 -0.02 4897
0.19 0.12 0.13 -0.93 9.73 0.05 -0.00 -0.02 4904
0.21 0.12 0.22 -0.94 9.73 0.06 -0.01 -0.03 4912
0.20 0.11 0.21 -0.94 9.73 0.06 -0.01 -0.03 4919
0.19 0.11 0.14 -0.98 9.75 0.06 -0.02 -0.03 4926
0.22 0.11 0.14 -0.95 9.69 0.07 -0.02 -0.04 4933
0.23 0.10 0.12 -1.00 9.68 0.08 -0.02 -0.04 4940
0.22 0.09 0.10 -1.01 9.72 0.08 -0.02 -0.05 4947
0.21 0.07 0.12 -0.95 9.73 0.09 -0.02 -0.05 4955
0.20 0.06 0.12 -0.98 9.72 0.09 -0.01 -0.05 4962
0.20 0.05 0.13 -1.02 9.87 0.11 -0.01 -0.06 4969
0.22 0.07 0.21 -1.02 9.84 0.13 -0.01 -0.06 4976
0.25 0.05 0.19 -1.03 9.84 0.14 -0.02 -0.07 4983
0.27 0.04 0.11 -1.12 9.84 0.16 -0.02 -0.07 4990
0.29 0.00 0.28 -1.05 9.83 0.18 -0.03 -0.08 4998
0.28 0.01 0.45 -0.95 10.17 0.20 -0.09 -0.09 5005
0.31 0.00 0.34 -1.00 10.38 0.25 -0.21 -0.10 5012
0.37 -0.01 0.30 -1.37 10.21 0.28 -0.30 -0.11 5020
0.42 -0.01 0.63 -1.46 10.33 0.32 -0.40 -0.15 5027
0.38 -0.01 0.59 -1.48 10.61 0.38 -0.56 -0.20 5035
0.44 -0.02 0.60 -1.50 11.39 0.48 -0.76 -0.24 5041
0.45 -0.02 -0.06 -1.40 12.04 0.65 -0.96 -0.26 5049
0.45 -0.03 -0.63 -1.40 12.63 0.85 -1.15 -0.23 5056
0.48 -0.02 0.84 -1.74 12.87 1.06 -1.05 -0.22 5063
0.47 -0.03 0.55 -1.56 13.02 1.28 -0.70 -0.32 5070
0.50 -0.04 -0.15 -1.54 14.34 1.49 -0.76 -0.31 5078
0.47 -0.04 0.47 -1.83 14.63 1.73 -0.84 -0.31 5085
0.48 -0.03 0.35 -1.95 14.73 2.02 -0.94 -0.33 5092
0.47 -0.01 1.17 -2.03 14.34 2.24 -1.16 -0.37 5099
0.43 -0.02 1.83 -2.36 14.62 2.47 -1.33 -0.45 5106
0.37 -0.02 2.29 -2.95 15.38 2.68 -1.53 -0.59 5113
0.30 -0.02 3.02 -3.11 15.91 2.86 -1.69 -0.77 5121
0.27 -0.01 3.00 -3.31 16.17 3.06 -1.91 -0.93 5128
0.20 -0.02 2.96 -3.56 16.78 3.21 -2.20 -1.12 5135
0.17 -0.00 3.59 -3.81 16.78 3.38 -2.37 -1.27 5142
0.13 0.00 3.39 -3.70 17.14 3.54 -2.28 -1.47 5149
0.12 -0.01 3.62 -3.70 18.02 3.56 -2.45 -1.65 5155
0.06 -0.01 6.39 -4.34 17.34 3.41 -2.88 -1.82 5163
0.03 -0.00 8.34 -4.51 16.71 3.24 -3.16 -2.13 5170
0.02 -0.00 8.99 -5.02 14.87 2.94 -3.18 -2.48 5177
0.02 -0.00 8.16 -3.73 14.57 2.76 -3.21 -2.83 5184
0.01 0.00 7.86 -1.20 13.17 2.58 -3.29 -3.09 5191
0.01 -0.00 7.25 -0.46 11.35 2.24 -3.62 -3.18 5198
0.00 0.00 10.26 1.87 10.34 1.90 -3.88 -3.00 5206
0.00 0.00 19.62 0.45 6.70 1.67 -3.39 -1.93 5213
0.00 0.00 17.21 0.52 16.58 1.02 -1.11 -0.82 5220
0.00 0.00 15.55 1.44 8.70 0.41 -0.01 -0.16 5227
0.00 0.00 9.78 1.02 8.63 0.03 0.59 0.40 5234
0.00 0.00 6.37 -0.23 8.96 -0.20 0.58 0.84 5241
0.00 0.00 5.80 -0.44 7.76 -0.33 0.41 1.08 5249
0.00 0.00 5.72 -0.35 6.95 -0.37 0.34 1.21 5256
0.00 0.00 5.77 -0.51 6.84 -0.38 0.46 1.19 5263
0.00 0.00 5.49 -0.34 6.84 -0.39 0.72 1.09 5270
0.00 0.00 4.70 -0.12 6.75 -0.41 1.02 0.92 5277
0.00 0.00 3.92 0.09 6.99 -0.47 1.22 0.70 5284
0.00 0.00 3.28 0.23 7.10 -0.54 1.41 0.52 5292
0.00 0.00 2.87 0.41 7.28 -0.61 1.55 0.31 5299
0.00 0.00 2.58 0.55 7.61 -0.72 1.72 0.14 5306
0.00 0.00 2.01 0.60 7.91 -0.86 1.90 0.00 5313
0.00 0.00 1.24 0.90 8.01 -0.94 2.07 -0.10 5320
0.00 0.00 0.32 0.80 8.27 -1.02 2.28 -0.09 5327
0.00 0.00 -0.39 0.85 8.75 -1.07 2.43 -0.12 5335
0.00 0.00 -0.82 0.80 9.05 -1.09 2.54 -0.12 5342
0.00 0.00 -1.41 0.77 9.55 -1.12 2.65 -0.10 5349
0.00 0.00 -1.97 0.84 10.02 -1.13 2.68 -0.05 5356
0.00 0.00 -2.57 0.84 10.32 -1.18 2.65 0.01 5363
0.00 0.00 -3.13 0.89 10.45 -1.23 2.55 0.09 5370
0.00 0.00 -3.62 0.88 10.71 -1.29 2.40 0.16 5378
-0.00 0.00 -3.92 0.68 10.92 -1.36 2.17 0.21 5385
-0.00 0.02 -3.79 0.55 10.98 -1.42 1.92 0.23 5392
0.00 0.00 -3.07 0.49 11.05 -1.49 1.75 0.20 5399
0.00 0.00 -2.07 0.43 11.16 -1.55 1.67 0.14 5406
0.00 0.00 -1.47 0.33 11.27 -1.63 1.70 0.08 5413
0.00 0.00 -1.04 0.26 11.34 -1.70 1.77 0.03 5421
0.00 0.00 -0.84 0.17 11.41 -1.74 1.81 -0.00 5428
-0.00 0.00 -0.55 0.02 11.57 -1.79 1.79 0.01 5435
-0.00 0.00 0.14 -0.20 11.72 -1.84 1.71 0.05 5442
0.00 0.00 0.80 -0.45 11.87 -1.89 1.66 0.16 5449
0.00 0.00 1.40 -0.79 11.86 -1.92 1.65 0.25 5456
0.00 0.00 1.95 -1.31 11.92 -1.93 1.67 0.39 5464
-0.00 0.01 2.31 -1.54 11.98 -1.92 1.68 0.49 5471
-0.00 0.00 2.32 -1.82 12.00 -1.88 1.76 0.57 5478
0.00 0.00 1.87 -2.19 12.09 -1.83 1.87 0.62 5485
-0.00 0.00 1.16 -2.40 12.15 -1.78 1.97 0.60 5492
0.00 0.00 0.43 -2.73 12.18 -1.76 2.01 0.56 5499
-0.00 0.00 -0.15 -2.98 12.21 -1.75 1.97 0.52 5507
-0.00 0.02 -0.73 -3.24 11.99 -1.74 1.88 0.46 5514
0.00 -0.00 -0.94 -3.52 11.68 -1.74 1.75 0.40 5521
-0.00 0.01 -0.98 -3.71 11.39 -1.73 1.68 0.35 5528
-0.00 0.01 -0.65 -3.95 11.21 -1.72 1.57 0.28 5535
0.00 0.00 -0.49 -4.21 10.78 -1.71 1.52 0.18 5542
0.00 0.00 -0.29 -4.26 10.32 -1.70 1.50 0.12 5550
-0.00 0.01 -0.17 -4.46 10.03 -1.69 1.56 -0.01 5557
-0.00 0.00 -0.33 -4.49 9.80 -1.69 1.60 -0.14 5564
-0.00 0.00 -0.78 -4.65 9.44 -1.71 1.69 -0.35 5571
0.00 0.00 -1.26 -4.73 9.09 -1.72 1.77 -0.57 5578
0.00 0.00 -1.98 -4.99 9.04 -1.72 1.85 -0.75 5585
0.00 0.00 -2.66 -5.35 8.98 -1.71 1.88 -0.95 5593
-0.00 0.01 -3.51 -5.75 8.78 -1.69 1.85 -1.09 5600
-0.00 0.01 -4.55 -6.27 8.57 -1.67 1.80 -1.22 5607
0.00 0.00 -5.34 -6.81 8.18 -1.65 1.74 -1.26 5614
0.00 0.00 -6.12 -7.13 7.87 -1.62 1.68 -1.20 5621
0.00 0.00 -7.28 -6.96 7.41 -1.59 1.55 -0.97 5628
-0.00 0.01 -8.04 -6.76 6.94 -1.52 1.38 -0.59 5636
0.00 -0.00 -8.26 -6.37 6.56 -1.43 1.17 -0.17 5643
0.00 0.00 -7.40 -5.78 6.09 -1.35 1.10 0.36 5650
0.00 0.00 -8.01 -5.08 5.25 -1.26 1.09 0.81 5657
0.00 0.00 -8.59 -4.04 3.99 -1.14 1.07 1.32 5664
0.00 0.00 -8.88 -2.85 2.61 -0.93 1.04 1.87 5671
0.01 0.03 -46.10 -33.00 9.82 0.96 -3.35 2.45 5680
0.01 0.05 -26.12 -32.77 -6.93 1.70 -4.28 3.47 5687
0.01 0.17 -7.36 -11.94 10.30 3.41 -4.28 2.82 5694
-0.07 0.79 -29.10 -16.99 73.82 4.28 -3.70 3.09 5701
-0.10 1.18 -28.92 -1.75 34.54 4.28 -2.21 2.44 5708
-0.09 1.15 -18.13 -11.26 41.94 4.28 -2.65 0.70 5715
-0.06 0.96 1.72 -1.90 15.09 1.44 -2.69 0.03 5723
-0.04 0.86 -2.33 -12.61 16.81 -0.37 -1.00 0.13 5730
-0.00 0.84 -0.34 -2.06 11.11 0.20 -0.39 0.17 5737
0.02 0.81 1.55 3.00 8.84 0.41 -0.33 0.20 5743
0.07 0.56 -0.26 0.98 7.97 0.55 -0.41 0.18 5750
0.12 0.44 -0.92 -3.18 8.67 0.41 -0.25 0.14 5757
0.17 0.37 0.45 -1.79 9.52 0.23 -0.05 0.09 5765
0.22 0.37 0.39 -0.86 10.67 0.20 0.01 0.06 5772
0.26 0.30 0.03 -0.74 10.44 0.26 -0.02 0.04 5779
0.30 0.27 0.00 -1.46 9.79 0.26 -0.01 0.06 5786
0.28 0.20 0.69 -1.13 9.22 0.16 0.01 0.06 5793
0.30 0.19 0.48 -1.21 9.58 0.09 0.02 0.05 5800
0.33 0.18 0.17 -0.97 9.60 0.03 0.03 0.04 5808
0.33 0.20 0.21 -0.87 9.80 0.00 0.05 0.04 5815
0.33 0.20 0.21 -0.76 9.83 -0.00 0.05 0.04 5822
0.32 0.19 0.19 -0.81 9.70 0.01 0.04 0.04 5829
0.31 0.21 0.23 -0.75 9.83 0.03 0.04 0.05 5836
0.31 0.18 0.27 -0.74 9.88 0.05 0.03 0.05 5843
0.33 0.17 0.20 -0.78 9.93 0.07 0.01 0.05 5851
0.32 0.14 0.15 -0.80 9.88 0.10 0.01 0.04 5858
0.30 0.11 0.11 -0.80 9.80 0.11 0.02 0.04 5865
0.28 0.09 0.13 -0.84 9.70 0.11 0.04 0.04 5872
0.25 0.10 0.28 -0.85 9.69 0.10 0.05 0.04 5879
0.25 0.12 0.35 -0.93 9.62 0.09 0.05 0.03 5886
0.24 0.09 0.28 -0.91 9.54 0.07 0.06 0.03 5894
0.24 0.07 0.33 -0.89 9.52 0.04 0.06 0.03 5901
0.21 0.06 0.43 -0.94 9.54 0.02 0.06 0.02 5908
0.17 0.08 0.37 -0.95 9.54 0.00 0.06 0.02 5915
0.19 0.06 0.39 -0.94 9.55 -0.01 0.06 0.01 5922
0.16 0.09 0.42 -0.93 9.51 -0.03 0.05 0.01 5929
0.18 0.07 0.46 -0.95 9.59 -0.05 0.03 0.00 5937
0.16 0.09 0.42 -0.93 9.66 -0.06 0.02 -0.00 5944
0.14 0.09 0.34 -0.94 9.70 -0.06 0.01 -0.00 5951
0.12 0.11 0.31 -0.86 9.60 -0.05 -0.00 -0.00 5958
0.13 0.12 0.35 -0.91 9.58 -0.06 -0.00 0.00 5965
0.12 0.13 0.32 -0.91 9.62 -0.07 0.00 0.00 5972
0.12 0.13 0.36 -0.87 9.66 -0.08 0.00 0.01 5980
0.11 0.13 0.33 -0.87 9.63 -0.09 -0.00 0.01 5987
0.12 0.12 0.31 -0.85 9.70 -0.08 -0.00 0.01 5994
0.10 0.13 0.35 -0.88 9.67 -0.09 -0.01 0.01 6001
0.10 0.15 0.30 -0.87 9.67 -0.09 -0.01 0.01 6008
0.07 0.18 0.36 -0.87 9.70 -0.09 -0.01 0.02 6016
0.06 0.17 0.34 -0.88 9.65 -0.10 -0.01 0.02 6023
0.05 0.18 0.22 -0.87 9.65 -0.12 0.00 0.02 6030
0.06 0.22 0.25 -0.84 9.68 -0.13 0.02 0.03 6037
0.02 0.24 0.26 -0.87 9.72 -0.14 0.03 0.03 6044
0.03 0.24 0.29 -0.83 9.77 -0.14 0.04 0.04 6051
0.04 0.27 0.30 -0.78 9.77 -0.14 0.04 0.04 6059
0.05 0.28 0.28 -0.79 9.71 -0.14 0.04 0.04 6066
0.06 0.28 0.32 -0.78 9.77 -0.13 0.04 0.04 6073
0.08 0.34 0.35 -0.76 9.75 -0.13 0.03 0.04 6080
0.04 0.37 0.32 -0.77 9.72 -0.12 0.02 0.04 6087
0.04 0.44 0.30 -0.71 9.69 -0.11 0.02 0.03 6094
0.08 0.46 0.41 -0.68 9.72 -0.10 0.00 0.04 6102
0.03 0.47 0.30 -0.71 9.70 -0.09 -0.01 0.03 6109
0.04 0.49 0.25 -0.70 9.73 -0.08 -0.02 0.03 6116
0.02 0.51 0.28 -0.72 9.68 -0.06 -0.02 0.02 6123
0.02 0.48 0.25 -0.69 9.66 -0.07 -0.02 0.02 6130
0.02 0.54 0.25 -0.73 9.68 -0.06 -0.01 0.02 6137
0.04 0.52 0.24 -0.69 9.72 -0.05 -0.01 0.02 6145
0.04 0.53 0.23 -0.67 9.70 -0.04 -0.00 0.02 6152
0.02 0.53 0.23 -0.68 9.73 -0.03 0.00 0.02 6159
0.04 0.55 0.24 -0.70 9.68 -0.03 -0.00 0.02 6166
0.06 0.56 0.32 -0.65 9.65 -0.01 -0.02 0.02 6173
0.03 0.55 0.35 -0.69 9.78 0.00 -0.02 0.01 6180
0.04 0.57 0.30 -0.70 9.72 0.02 -0.03 0.00 6188
0.04 0.58 0.25 -0.68 9.68 0.04 -0.03 0.00 6195
0.05 0.55 0.28 -0.71 9.69 0.05 -0.04 -0.00 6202
0.03 0.53 0.22 -0.72 9.74 0.06 -0.04 -0.00 6209
0.05 0.51 0.25 -0.74 9.78 0.06 -0.04 -0.01 6216
0.06 0.47 0.19 -0.70 9.70 0.06 -0.04 -0.01 6223
0.06 0.47 0.23 -0.75 9.72 0.07 -0.04 -0.01 6231
0.06 0.43 0.19 -0.73 9.62 0.08 -0.05 -0.01 6238
0.07 0.39 0.13 -0.68 9.80 0.12 -0.04 -0.02 6245
0.07 0.33 0.38 -0.76 9.88 0.16 -0.06 -0.03 6252
0.10 0.30 0.22 -0.76 9.71 0.19 -0.10 -0.03 6259
0.13 0.23 0.32 -0.74 9.68 0.25 -0.09 -0.04 6266
0.14 0.24 0.32 -0.86 10.09 0.29 -0.12 -0.05 6275
0.18 0.17 0.07 -0.89 9.86 0.35 -0.14 -0.10 6281
0.19 0.06 0.20 -0.89 10.15 0.41 -0.17 -0.08 6288
0.18 0.06 0.20 -0.90 10.64 0.47 -0.26 -0.09 6295
0.22 0.02 0.08 0.04 12.72 0.57 -0.38 -0.06 6302
0.25 0.01 0.37 -1.18 12.06 0.70 -0.74 -0.03 6309
0.29 0.01 0.41 -2.05 12.12 0.73 -1.03 -0.10 6317
0.32 -0.02 -0.72 -1.69 15.23 0.97 -1.64 -0.18 6325
0.28 -0.02 0.35 -1.34 17.25 1.36 -2.60 -0.10 6332
0.34 -0.02 5.45 -2.35 18.07 1.77 -2.34 -0.23 6339
0.34 -0.00 2.06 -1.57 17.26 2.18 -1.89 -0.57 6346
0.33 -0.01 2.25 -1.84 17.67 2.45 -2.31 -0.62 6353
0.31 -0.02 3.42 -2.40 17.62 2.74 -2.65 -0.73 6361
0.27 -0.03 3.21 -2.26 17.59 2.97 -2.82 -0.91 6367
0.20 -0.02 2.51 -2.88 17.70 3.14 -3.08 -1.05 6375
0.12 0.01 3.24 -3.14 17.53 3.29 -3.49 -1.21 6382
0.12 0.00 3.51 -3.16 17.17 3.42 -3.60 -1.39 6389
0.13 -0.00 3.38 -2.90 18.47 3.55 -3.56 -1.55 6396
0.09 0.00 4.20 -3.62 18.65 3.48 -3.84 -1.73 6404
0.06 -0.01 5.89 -3.15 19.12 3.26 -4.26 -1.87 6410
0.06 -0.00 7.07 -2.25 17.40 2.93 -4.28 -2.08 6418
0.03 0.00 7.55 -1.73 16.46 2.61 -4.28 -2.23 6425
0.03 0.00 7.91 -1.78 15.47 2.06 -4.28 -2.23 6432
0.02 -0.00 9.54 -3.27 14.34 1.58 -4.28 -1.92 6438
0.00 0.00 18.22 -4.20 10.01 1.46 -4.28 -0.94 6446
0.00 0.00 21.50 -2.29 15.66 0.95 -3.34 0.11 6453
0.00 0.00 20.16 -1.40 10.43 0.29 -1.31 0.55 6460
0.00 0.00 13.29 -2.09 10.02 -0.15 0.04 0.89 6467
0.00 0.00 8.33 -3.15 10.04 -0.26 0.31 1.20 6474
0.00 0.00 6.59 -2.92 9.60 -0.17 0.09 1.41 6481
0.00 0.00 7.11 -2.05 8.95 -0.09 -0.14 1.54 6489
0.00 0.00 8.35 -1.22 8.85 -0.09 -0.09 1.55 6496
0.00 0.00 8.96 -0.53 8.99 -0.17 0.15 1.48 6503
0.00 0.00 8.84 0.15 9.05 -0.32 0.54 1.31 6510
0.00 -0.00 8.38 0.86 9.02 -0.42 0.85 1.11 6517
0.00 0.00 7.90 1.60 8.87 -0.56 1.09 0.93 6524
0.00 0.00 7.82 2.29 8.61 -0.67 1.22 0.70 6532
0.00 0.00 8.12 2.67 8.47 -0.80 1.36 0.50 6539
0.00 0.00 8.86 3.07 8.44 -0.97 1.64 0.28 6546
-0.00 0.01 9.07 3.17 8.67 -1.13 1.98 0.10 6553
-0.00 0.00 8.39 3.06 9.26 -1.33 2.44 -0.01 6560
0.00 0.00 7.42 2.82 10.03 -1.49 2.81 -0.06 6567
0.00 0.00 6.09 2.63 10.58 -1.64 3.03 -0.03 6575
0.00 0.00 4.76 2.46 11.00 -1.73 3.15 0.05 6582
0.00 0.00 4.05 2.29 11.24 -1.78 3.17 0.15 6589
0.00 0.00 3.52 2.13 11.27 -1.81 3.18 0.21 6596
0.00 0.00 3.01 1.78 11.62 -1.82 3.28 0.22 6603
-0.00 0.00 2.21 1.36 12.19 -1.81 3.40 0.16 6610
0.00 0.00 1.42 1.03 12.77 -1.80 3.52 0.03 6618
-0.00 0.00 0.91 1.12 13.24 -1.81 3.58 -0.12 6625
-0.00 0.00 0.46 1.17 13.33 -1.86 3.61 -0.26 6632
-0.00 0.01 0.14 0.82 13.40 -1.90 3.67 -0.43 6639
-0.00 0.00 -0.07 0.02 13.63 -1.89 3.75 -0.61 6646
0.00 0.00 -0.65 -0.49 13.94 -1.80 3.87 -0.75 6653
0.00 0.00 -1.42 -0.55 14.34 -1.68 4.01 -0.91 6661
0.00 0.00 -2.54 -0.20 14.74 -1.53 4.14 -0.99 6668
-0.00 0.01 -4.19 0.32 15.21 -1.41 4.24 -1.03 6675
0.00 0.00 -5.82 0.53 15.07 -1.36 4.25 -0.98 6682
0.00 0.00 -7.53 0.26 15.22 -1.35 4.13 -0.87 6689
0.00 0.00 -8.16 0.18 15.89 -1.33 3.76 -0.64 6696
0.00 0.00 -8.56 0.87 15.90 -1.34 3.45 -0.32 6704
0.00 0.00 -9.21 1.94 15.56 -1.41 3.16 0.13 6711
-0.00 0.01 -10.42 2.12 15.15 -1.48 2.91 0.57 6719
0.01 -0.00 -10.70 1.81 14.62 -1.59 2.68 0.91 6725
0.00 0.00 -11.51 1.38 14.06 -1.73 2.40 1.23 6732
0.00 0.00 -11.84 1.01 13.45 -1.83 2.12 1.50 6739
-0.00 0.00 -11.94 0.52 12.97 -1.94 1.78 1.68 6747
-0.00 0.00 -11.44 0.04 12.65 -2.04 1.45 1.85 6754
-0.00 0.02 -10.73 -0.49 12.49 -2.14 1.21 1.94 6762
0.00 0.00 -10.22 -1.67 12.16 -2.24 1.00 1.98 6769
-0.00 0.01 -10.12 -3.33 11.72 -2.33 0.86 1.90 6776
0.00 0.00 -10.61 -4.95 11.36 -2.41 0.72 1.76 6782
-0.00 0.01 -11.23 -6.88 10.83 -2.43 0.55 1.55 6791
-0.00 0.00 -11.75 -8.38 10.20 -2.40 0.36 1.37 6797
-0.00 0.01 -11.34 -11.15 6.93 -2.35 0.12 1.20 6805
-0.00 0.01 -5.27 -14.68 7.31 -2.30 -0.43 1.02 6811
-0.00 0.01 -1.64 -16.97 7.31 -2.12 -0.79 0.97 6818
0.00 0.00 1.45 -18.01 5.36 -1.82 -0.42 1.02 6825
-0.00 0.00 1.18 -18.65 4.86 -1.35 0.02 1.13 6833
-0.00 0.01 -0.66 -18.90 4.98 -0.77 0.45 1.19 6840
-0.00 0.02 -3.76 -18.96 3.97 -0.31 0.70 1.26 6847
-0.00 0.01 -59.38 -39.60 25.97 1.71 -4.27 2.07 6855
-0.00 0.05 -19.77 -25.53 1.34 2.05 -4.28 2.80 6862
-0.01 0.13 -4.47 0.02 16.47 3.25 -4.28 3.19 6868
-0.04 0.59 -27.34 -5.06 41.69 4.22 -1.12 4.27 6877
-0.07 0.90 -25.17 1.39 30.03 3.98 -0.61 3.09 6884
-0.06 1.02 -19.15 -5.49 24.63 4.08 -1.07 1.37 6891
-0.06 0.96 -11.82 -5.42 18.96 3.45 -0.77 -0.03 6898
-0.06 0.90 3.20 -3.14 16.28 2.85 -0.46 -0.46 6905
-0.05 0.88 6.03 -2.25 14.68 2.24 0.04 -0.06 6913
-0.06 0.79 1.31 -3.10 17.19 1.14 -0.51 0.44 6920
-0.06 0.71 0.27 -1.72 13.12 0.45 -0.65 0.38 6927
-0.02 0.67 -3.37 -4.22 12.03 0.05 -0.41 0.08 6934
0.00 0.65 0.35 -0.93 9.75 0.07 -0.16 0.03 6940
0.03 0.55 0.19 -1.13 10.89 0.11 -0.12 0.06 6948
0.05 0.49 -0.29 -0.98 10.26 0.21 -0.11 0.06 6956
0.12 0.41 0.17 -1.32 9.75 0.20 -0.08 0.07 6962
0.12 0.41 0.58 -1.15 9.97 0.15 -0.09 0.06 6969
0.15 0.39 0.16 -1.22 10.02 0.12 -0.11 0.06 6977
0.19 0.37 0.06 -1.01 10.33 0.09 -0.11 0.06 6983
0.19 0.33 0.15 -0.81 9.98 0.07 -0.09 0.06 6990
0.20 0.30 0.15 -0.80 10.05 0.09 -0.09 0.06 6998
0.23 0.29 0.06 -0.75 9.82 0.11 -0.09 0.07 7005
0.24 0.26 0.25 -0.77 9.86 0.12 -0.08 0.07 7012
0.24 0.24 0.19 -0.79 9.95 0.15 -0.08 0.06 7019
0.26 0.18 0.15 -0.83 9.85 0.17 -0.09 0.05 7026
0.27 0.14 0.11 -0.77 9.86 0.19 -0.10 0.05 7033
0.27 0.17 0.08 -0.86 9.86 0.20 -0.10 0.05 7041
0.28 0.15 0.16 -0.88 9.80 0.21 -0.11 0.05 7048
0.31 0.11 0.17 -0.91 9.82 0.20 -0.11 0.04 7055
0.31 0.09 0.17 -0.93 9.81 0.19 -0.11 0.04 7062
0.32 0.06 0.20 -1.03 9.66 0.17 -0.10 0.04 7069
0.32 0.04 0.14 -1.00 9.70 0.15 -0.09 0.03 7076
0.31 0.02 0.14 -1.07 9.58 0.13 -0.08 0.02 7084
0.31 0.04 0.20 -1.16 9.64 0.11 -0.07 0.02 7091
0.32 0.02 0.17 -1.05 9.68 0.10 -0.06 0.00 7098
0.32 0.01 0.21 -1.12 9.59 0.08 -0.06 -0.00 7105
0.31 0.01 0.21 -1.10 9.55 0.07 -0.05 -0.01 7112
0.30 0.01 0.23 -1.12 9.55 0.05 -0.04 -0.01 7119
0.31 0.03 0.26 -1.18 9.56 0.04 -0.03 -0.02 7127
0.30 0.03 0.25 -1.15 9.51 0.02 -0.02 -0.02 7134
0.29 0.02 0.22 -1.17 9.52 0.00 -0.01 -0.03 7141
0.29 0.02 0.25 -1.15 9.55 -0.01 -0.01 -0.04 7148
0.28 0.02 0.15 -1.12 9.63 -0.02 -0.00 -0.04 7155
0.26 0.01 0.13 -1.10 9.67 -0.02 0.00 -0.04 7162
0.25 0.02 0.17 -1.11 9.68 -0.03 0.01 -0.04 7170
0.26 0.03 0.17 -1.09 9.69 -0.03 0.01 -0.04 7177
0.28 0.02 0.17 -1.08 9.70 -0.03 0.01 -0.03 7184
0.26 0.02 0.16 -1.13 9.78 -0.02 0.00 -0.04 7191
0.25 -0.00 0.14 -1.13 9.62 -0.02 0.01 -0.04 7198
0.25 0.01 0.20 -1.13 9.60 -0.02 0.00 -0.03 7205
0.25 0.03 0.15 -1.10 9.64 -0.03 0.01 -0.04 7213
0.27 0.02 0.11 -1.11 9.69 -0.03 0.01 -0.03 7220
0.26 0.01 0.15 -1.10 9.65 -0.03 0.01 -0.04 7227
0.27 0.00 0.06 -1.10 9.68 -0.02 0.01 -0.04 7234
0.28 -0.00 0.20 -1.07 9.75 -0.02 0.01 -0.03 7241
0.26 0.01 0.11 -1.07 9.70 -0.02 0.02 -0.03 7248
0.26 0.03 0.12 -1.12 9.73 -0.02 0.03 -0.03 7256
0.27 0.01 0.12 -1.08 9.74 -0.01 0.04 -0.03 7263
0.27 0.01 0.05 -1.12 9.77 -0.00 0.05 -0.03 7270
0.27 0.01 0.08 -1.10 9.80 0.00 0.06 -0.03 7277
0.27 0.02 0.11 -1.12 9.81 0.01 0.06 -0.03 7284
0.25 0.03 0.16 -1.07 9.78 0.03 0.06 -0.03 7291
0.26 0.03 0.14 -1.09 9.74 0.05 0.05 -0.03 7299
0.28 0.02 0.19 -1.08 9.75 0.06 0.04 -0.04 7306
0.26 0.01 0.19 -1.13 9.81 0.08 0.03 -0.04 7313
0.27 -0.01 0.18 -1.15 9.79 0.10 0.04 -0.04 7320
0.26 0.01 0.17 -1.17 9.80 0.11 0.04 -0.05 7327
0.28 -0.00 0.18 -1.12 9.83 0.13 0.03 -0.05 7334
0.28 0.02 0.14 -1.12 9.88 0.14 0.02 -0.05 7342
0.30 0.01 0.07 -1.22 9.96 0.17 0.02 -0.05 7349
0.31 0.00 0.10 -1.12 10.07 0.21 -0.01 -0.05 7356
0.35 -0.03 0.18 -1.20 10.07 0.23 -0.05 -0.05 7363
0.33 -0.01 0.02 -1.40 10.17 0.28 -0.08 -0.05 7370
0.36 -0.01 -0.21 -1.30 10.69 0.35 -0.12 -0.05 7378
0.38 -0.01 -0.19 -1.23 11.49 0.43 -0.21 -0.03 7386
0.37 -0.02 -0.02 -1.47 11.48 0.59 -0.43 -0.00 7392
0.37 -0.02 0.31 -1.52 12.68 0.80 -0.54 -0.02 7400
0.39 -0.03 1.76 -1.62 13.06 1.07 -0.28 -0.10 7407
0.37 -0.02 0.16 -1.54 14.14 1.31 -0.26 -0.15 7414
0.41 -0.02 0.81 -1.60 14.62 1.54 -0.42 -0.15 7421
0.39 -0.02 0.65 -1.74 14.66 1.85 -0.57 -0.18 7429
0.39 -0.02 0.65 -1.80 14.12 2.09 -0.80 -0.21 7436
0.39 -0.02 0.91 -2.40 14.61 2.36 -0.98 -0.24 7443
0.33 -0.02 1.40 -2.00 15.91 2.66 -1.18 -0.29 7450
0.34 -0.02 1.88 -2.26 16.77 2.92 -1.42 -0.36 7457
0.32 -0.01 3.66 -2.81 16.78 3.23 -1.76 -0.49 7464
0.31 -0.02 6.76 -3.39 15.40 3.45 -2.17 -0.79 7472
0.22 -0.02 7.90 -4.91 16.36 3.55 -2.53 -1.21 7479
0.18 -0.01 8.03 -5.65 16.66 3.64 -2.97 -1.59 7486
0.15 -0.01 9.33 -6.12 17.66 3.69 -3.32 -2.02 7492
0.11 -0.01 10.11 -6.15 18.58 3.75 -3.52 -2.42 7500
0.10 -0.01 10.68 -7.69 20.02 3.72 -3.61 -2.86 7507
0.05 -0.01 10.60 -5.97 20.18 3.61 -3.69 -3.31 7515
0.06 -0.01 11.15 -4.74 19.42 3.22 -3.87 -3.67 7522
0.02 -0.00 10.09 -1.59 18.26 2.90 -4.13 -3.92 7529
0.03 0.01 9.44 0.71 16.59 2.44 -4.25 -3.97 7536
0.00 0.00 13.13 1.95 14.44 1.96 -4.28 -3.66 7543
0.01 -0.00 26.86 1.45 9.20 1.80 -4.26 -1.61 7549
0.00 0.00 23.30 0.47 18.51 1.39 -1.77 -0.25 7557
0.00 0.00 19.04 1.13 10.94 0.85 -0.36 0.65 7564
0.00 0.00 12.25 1.41 10.84 0.72 0.15 1.29 7571
0.00 0.00 8.67 1.43 10.78 0.49 0.01 1.75 7578
0.00 0.00 8.09 2.24 10.15 0.28 -0.30 1.98 7585
0.00 0.00 9.38 2.76 9.69 0.01 -0.41 1.95 7592
0.00 0.00 10.55 2.99 9.17 -0.22 -0.10 1.71 7600
0.00 0.00 10.29 3.17 8.67 -0.45 0.37 1.37 7607
0.00 0.00 9.09 3.23 9.09 -0.62 0.95 0.90 7614
0.00 0.00 7.93 3.37 9.02 -0.76 1.33 0.41 7621
0.00 0.00 6.88 3.40 9.14 -0.89 1.67 0.01 7628
0.00 0.00 6.00 3.39 9.24 -0.99 1.97 -0.40 7635
0.00 0.00 5.48 3.42 9.54 -1.12 2.24 -0.71 7643
0.00 0.00 4.88 3.37 10.05 -1.25 2.55 -0.88 7650
-0.00 0.01 3.84 3.40 10.70 -1.37 2.80 -0.94 7657
0.00 0.00 2.86 3.50 11.26 -1.50 2.94 -0.88 7664
0.00 0.00 2.11 3.64 11.93 -1.60 3.00 -0.72 7671
0.00 0.00 1.58 3.75 12.22 -1.72 3.02 -0.50 7678
0.00 0.00 1.14 3.76 12.45 -1.81 3.09 -0.30 7686
-0.00 0.00 0.79 3.56 12.65 -1.88 3.19 -0.12 7693
0.00 0.00 0.35 3.48 12.78 -1.96 3.28 -0.03 7700
0.00 0.00 -0.29 3.50 12.76 -2.01 3.35 0.01 7707
0.00 0.00 -0.85 3.43 12.66 -2.08 3.42 -0.03 7714
0.00 0.00 -1.70 3.70 12.54 -2.12 3.51 -0.10 7721
0.00 0.00 -2.93 3.54 12.81 -2.14 3.66 -0.24 7729
-0.00 0.00 -4.06 3.34 13.29 -2.16 3.78 -0.41 7736
0.00 0.00 -5.47 3.02 13.58 -2.18 3.83 -0.59 7743
0.00 0.00 -6.34 2.95 13.75 -2.22 3.77 -0.75 7750
-0.00 0.00 -6.51 2.83 13.96 -2.28 3.61 -0.84 7757
0.00 0.00 -6.02 2.62 14.26 -2.33 3.47 -0.90 7764
-0.00 0.00 -5.53 2.54 14.45 -2.38 3.40 -0.91 7772
0.00 0.00 -5.46 2.30 14.47 -2.43 3.38 -0.86 7779
0.00 0.00 -5.59 2.03 14.57 -2.46 3.31 -0.76 7786
0.00 0.00 -6.14 1.73 14.37 -2.47 3.29 -0.66 7793
0.00 0.00 -7.16 1.16 14.05 -2.45 3.25 -0.56 7800
0.00 0.00 -8.06 0.06 13.93 -2.40 3.21 -0.52 7808
0.00 0.00 -9.55 0.09 14.00 -2.33 3.11 -0.49 7815
0.00 0.00 -10.82 -0.08 14.13 -2.29 3.03 -0.47 7822
0.00 0.00 -11.89 -0.01 14.32 -2.28 2.90 -0.41 7829
0.00 0.00 -13.17 0.14 14.44 -2.31 2.69 -0.26 7836
0.00 0.00 -13.93 0.07 14.29 -2.39 2.42 -0.03 7843
0.00 0.00 -14.27 -0.18 14.12 -2.46 2.00 0.22 7851
0.00 0.00 -14.08 -1.08 13.61 -2.50 1.54 0.53 7858
0.00 0.00 -13.56 -2.40 13.02 -2.51 1.22 0.76 7865
0.00 0.00 -12.98 -4.38 12.18 -2.49 0.92 0.98 7872
0.00 0.00 -12.88 -6.63 11.36 -2.42 0.72 1.14 7879
0.00 0.00 -12.90 -8.38 10.64 -2.29 0.49 1.24 7886
0.00 0.00 -12.94 -10.36 9.06 -2.15 0.26 1.38 7894
0.00 0.00 -10.39 -13.10 6.37 -2.04 -0.05 1.55 7901
0.00 0.00 -5.04 -16.14 7.89 -1.91 -0.76 1.76 7908
0.00 0.00 -1.00 -17.19 6.43 -1.70 -0.72 2.15 7915
0.00 0.00 0.12 -16.96 4.99 -1.36 -0.28 2.51 7922
0.00 0.00 -6.71 -23.73 -2.52 -0.95 0.22 2.90 7929
-0.00 0.02 -44.60 -47.63 -3.99 1.38 -4.28 3.27 7938
0.01 0.06 -13.36 -43.30 -8.45 2.68 -4.28 3.00 7945
-0.00 0.22 -10.51 -16.09 17.90 4.28 -4.28 3.18 7952
-0.07 0.82 -23.02 -12.41 43.64 4.28 -1.63 3.54 7959
-0.08 1.06 -21.92 -2.93 37.22 4.28 -1.07 2.57 7966
-0.08 0.94 -15.11 -8.97 31.63 4.28 -1.05 1.01 7973
-0.07 0.79 -3.93 -9.35 32.24 1.56 -2.32 0.13 7981
-0.03 0.70 -2.22 -6.75 18.96 -0.11 -0.94 0.22 7988
0.01 0.68 -0.75 -0.27 8.30 0.23 -0.62 0.11 7994
0.07 0.61 0.51 1.79 8.94 0.31 -0.46 0.14 8001
0.08 0.51 -0.65 -1.05 9.47 0.34 -0.44 0.09 8008
0.14 0.41 -0.51 -3.34 10.32 0.18 -0.31 0.08 8016
0.22 0.40 0.32 -1.12 10.21 0.10 -0.18 0.06 8023
0.30 0.37 -0.03 -0.73 10.68 0.15 -0.16 0.06 8030
0.35 0.33 -0.23 -0.86 9.98 0.19 -0.11 0.08 8037
0.36 0.26 0.02 -1.16 9.66 0.18 -0.05 0.08 8044
0.40 0.25 0.15 -0.87 9.76 0.14 -0.01 0.08 8051
0.42 0.21 0.27 -0.95 9.77 0.11 0.02 0.07 8058
0.42 0.20 0.26 -0.79 9.66 0.09 0.04 0.06 8066
0.41 0.21 0.30 -0.78 9.82 0.06 0.06 0.06 8073
0.41 0.20 0.22 -0.77 9.81 0.05 0.07 0.06 8080
0.40 0.19 0.29 -0.82 9.64 0.03 0.08 0.05 8087
0.37 0.18 0.26 -0.83 9.81 0.01 0.09 0.05 8094
0.37 0.19 0.26 -0.80 9.83 0.00 0.10 0.05 8101
0.36 0.18 0.24 -0.74 9.81 0.02 0.11 0.04 8109
0.32 0.14 0.25 -0.74 9.83 0.04 0.11 0.04 8116
0.30 0.14 0.29 -0.74 9.82 0.08 0.11 0.03 8123
0.26 0.14 0.32 -0.74 9.76 0.10 0.10 0.03 8130
0.26 0.09 0.38 -0.74 9.71 0.13 0.09 0.03 8137
0.24 0.08 0.41 -0.83 9.70 0.13 0.08 0.02 8144
0.23 0.08 0.48 -0.86 9.58 0.13 0.07 0.02 8152
0.23 0.06 0.47 -0.91 9.51 0.11 0.06 0.01 8159
0.20 0.06 0.52 -0.93 9.53 0.08 0.05 0.01 8166
0.21 0.08 0.56 -0.96 9.48 0.07 0.04 -0.00 8173
0.19 0.07 0.52 -0.91 9.46 0.04 0.03 -0.01 8180
0.19 0.07 0.42 -0.99 9.54 0.01 0.03 -0.01 8187
0.16 0.08 0.42 -0.96 9.67 -0.01 0.03 -0.02 8195
0.15 0.07 0.43 -0.91 9.63 -0.01 0.03 -0.02 8202
0.13 0.07 0.51 -0.87 9.62 -0.02 0.02 -0.02 8209
0.13 0.06 0.48 -0.92 9.64 -0.02 0.01 -0.02 8216
0.14 0.08 0.46 -0.92 9.59 -0.02 -0.00 -0.02 8223
0.15 0.08 0.48 -0.91 9.61 -0.01 -0.02 -0.02 8230
0.15 0.08 0.46 -0.93 9.63 -0.01 -0.01 -0.02 8238
0.15 0.08 0.43 -0.95 9.64 -0.02 -0.02 -0.02 8245
0.16 0.08 0.40 -0.91 9.69 -0.01 -0.02 -0.02 8252
0.14 0.06 0.41 -0.91 9.74 -0.01 -0.02 -0.02 8259
0.13 0.06 0.39 -0.93 9.63 -0.00 -0.03 -0.02 8266
0.15 0.07 0.38 -0.94 9.62 -0.01 -0.02 -0.02 8273
0.14 0.08 0.39 -0.94 9.61 -0.01 -0.03 -0.01 8281
0.15 0.07 0.36 -0.97 9.63 -0.03 -0.02 -0.01 8288
0.16 0.06 0.36 -0.92 9.72 -0.03 -0.02 -0.01 8295
0.16 0.08 0.38 -0.93 9.74 -0.04 -0.03 -0.01 8302
0.16 0.08 0.36 -0.92 9.68 -0.04 -0.02 -0.00 8309
0.16 0.08 0.37 -0.89 9.72 -0.03 -0.02 -0.00 8316
0.17 0.09 0.39 -0.91 9.74 -0.02 -0.02 -0.00 8324
0.18 0.10 0.36 -0.91 9.72 -0.01 -0.03 -0.00 8331
0.18 0.10 0.35 -0.87 9.70 -0.00 -0.03 -0.01 8338
0.18 0.10 0.34 -0.93 9.68 -0.00 -0.04 -0.00 8345
0.19 0.09 0.35 -0.95 9.68 0.00 -0.04 -0.00 8352
0.19 0.09 0.34 -0.90 9.79 0.01 -0.04 -0.00 8359
0.18 0.10 0.26 -0.94 9.80 0.01 -0.04 -0.00 8367
0.17 0.10 0.25 -0.92 9.72 0.01 -0.04 0.00 8374
0.16 0.10 0.35 -0.90 9.71 0.01 -0.04 -0.00 8381
0.16 0.10 0.38 -0.92 9.74 0.02 -0.04 0.00 8388
0.16 0.10 0.28 -0.93 9.69 0.02 -0.05 0.00 8395
0.17 0.09 0.35 -0.91 9.68 0.03 -0.05 -0.00 8402
0.16 0.07 0.33 -0.89 9.81 0.05 -0.06 -0.01 8410
0.16 0.07 0.36 -0.91 9.82 0.06 -0.06 -0.01 8417
0.18 0.07 0.33 -0.91 9.70 0.07 -0.07 -0.02 8424
0.19 0.05 0.29 -0.95 9.74 0.08 -0.07 -0.02 8431
0.20 0.04 0.29 -0.99 9.21 0.09 -0.07 -0.02 8438
0.22 0.03 0.28 -0.96 9.76 0.10 -0.07 -0.03 8445
0.23 0.02 0.29 -0.96 9.75 0.11 -0.07 -0.03 8453
0.22 0.03 0.26 -0.99 9.82 0.12 -0.08 -0.03 8460
0.21 0.01 0.26 -0.95 9.81 0.13 -0.09 -0.03 8467
0.27 0.01 0.17 -1.10 9.70 0.14 -0.10 -0.03 8474
0.29 -0.00 0.15 -1.10 9.76 0.15 -0.11 -0.03 8481
0.28 0.01 0.11 -1.04 9.84 0.17 -0.10 -0.04 8488
0.29 -0.01 0.21 -1.13 9.78 0.19 -0.09 -0.04 8496
0.30 0.00 0.18 -1.20 9.83 0.23 -0.11 -0.04 8503
0.35 0.00 0.49 -1.49 10.13 0.27 -0.13 -0.05 8510
0.33 -0.00 0.35 -1.12 10.39 0.31 -0.17 -0.06 8518
0.36 -0.01 0.36 -1.30 10.62 0.35 -0.22 -0.07 8525
0.41 -0.02 -0.06 -1.43 10.63 0.43 -0.28 -0.09 8532
0.40 -0.02 -0.05 -1.53 11.35 0.56 -0.44 -0.09 8540
0.40 -0.01 -0.51 -1.37 11.98 0.73 -0.63 -0.07 8547
0.44 -0.03 0.90 -1.61 13.03 0.95 -0.67 -0.06 8554
0.42 -0.02 0.59 -1.56 12.66 1.16 -0.24 -0.18 8561
0.41 -0.02 -0.21 -1.58 14.01 1.36 -0.30 -0.17 8568
0.43 -0.02 0.91 -1.55 14.30 1.60 -0.40 -0.17 8576
0.38 -0.02 0.49 -1.72 14.83 1.87 -0.50 -0.20 8583
0.41 -0.03 0.84 -1.86 14.35 2.19 -0.74 -0.21 8590
0.40 -0.02 1.59 -1.83 13.94 2.41 -0.97 -0.26 8597
0.38 -0.02 2.02 -2.08 14.58 2.62 -1.11 -0.35 8604
0.34 -0.02 1.33 -2.19 15.62 2.87 -1.21 -0.44 8611
0.35 -0.02 0.99 -2.37 16.72 3.13 -1.38 -0.51 8619
0.29 -0.01 2.13 -3.06 17.03 3.44 -1.77 -0.56 8626
0.28 0.00 4.85 -4.01 16.90 3.64 -2.17 -0.75 8633
0.24 -0.01 6.81 -4.37 15.86 3.78 -2.35 -1.09 8640
0.12 -0.01 8.51 -5.65 16.95 3.75 -2.60 -1.41 8646
0.11 -0.01 9.52 -5.88 16.00 3.73 -2.83 -1.86 8653
0.03 -0.00 10.26 -6.37 16.98 3.71 -2.91 -2.25 8662
0.03 -0.00 11.47 -5.42 18.11 3.57 -2.81 -2.68 8669
0.02 -0.00 10.23 -5.70 17.70 3.31 -2.68 -3.12 8676
0.03 -0.00 8.33 -4.07 16.66 3.03 -2.80 -3.43 8682
0.01 -0.00 7.83 -1.01 15.21 2.82 -3.27 -3.68 8689
0.01 -0.00 7.42 0.42 13.70 2.54 -3.82 -3.77 8696
0.00 0.00 9.77 1.63 12.14 2.27 -4.28 -3.63 8704
0.00 0.00 18.36 0.13 8.54 1.99 -4.28 -2.52 8711
0.00 0.00 17.70 0.43 15.75 1.72 -2.94 -0.98 8718
0.00 0.00 21.88 2.76 11.95 0.73 -0.91 -0.03 8725
0.00 0.00 16.31 2.38 10.75 0.12 0.05 0.65 8732
0.00 0.00 10.51 2.04 10.02 -0.24 0.48 1.15 8739
0.00 0.00 8.08 1.78 9.35 -0.36 0.33 1.42 8747
0.00 0.00 7.74 1.41 8.76 -0.41 0.05 1.47 8754
0.00 0.00 8.84 1.54 8.40 -0.49 0.12 1.40 8761
0.00 0.00 9.58 1.89 8.48 -0.62 0.39 1.25 8768
0.00 0.00 9.26 2.47 8.48 -0.77 0.84 1.00 8775
0.00 0.00 8.60 2.68 8.54 -0.92 1.28 0.73 8782
0.00 0.00 7.36 2.71 8.53 -1.08 1.72 0.50 8790
0.00 0.00 5.86 2.51 8.62 -1.21 2.00 0.26 8797
0.00 0.00 5.04 2.27 9.04 -1.34 2.12 0.10 8804
0.00 0.00 4.56 2.06 9.54 -1.49 2.22 -0.02 8811
0.00 0.00 4.39 1.81 9.98 -1.64 2.30 -0.06 8818
0.00 0.00 4.08 1.60 10.22 -1.80 2.39 -0.04 8825
-0.00 0.01 3.74 1.31 10.23 -1.96 2.52 0.02 8833
-0.00 0.00 3.33 1.02 10.07 -2.02 2.66 0.08 8840
0.00 0.00 2.72 0.71 10.38 -2.07 2.81 0.14 8847
-0.00 0.00 2.21 0.38 10.83 -2.09 2.97 0.16 8854
-0.00 0.00 1.78 0.26 11.27 -2.13 3.05 0.15 8861
0.00 0.00 1.23 0.20 11.64 -2.18 3.10 0.10 8868
-0.00 0.01 0.82 0.13 11.80 -2.22 3.13 0.01 8876
0.00 0.00 0.34 -0.12 12.11 -2.25 3.17 -0.12 8883
0.00 0.00 -0.25 -0.60 12.47 -2.25 3.23 -0.34 8890
0.00 0.00 -0.63 -0.96 12.72 -2.23 3.29 -0.56 8897
0.00 0.00 -1.23 -1.16 12.99 -2.20 3.36 -0.86 8904
0.00 0.00 -1.59 -1.17 13.24 -2.16 3.41 -1.14 8911
-0.00 0.01 -1.92 -1.04 13.51 -2.13 3.48 -1.36 8919
0.00 0.00 -2.34 -1.03 13.98 -2.12 3.53 -1.55 8926
0.00 0.00 -3.06 -0.71 14.02 -2.10 3.58 -1.62 8933
0.00 0.00 -4.39 -0.21 14.03 -2.05 3.62 -1.60 8940
0.00 0.00 -5.82 0.12 13.80 -1.99 3.62 -1.45 8947
0.00 0.00 -7.04 0.01 13.32 -1.91 3.53 -1.25 8954
-0.00 0.01 -7.00 -0.08 13.88 -1.86 3.24 -0.94 8962
0.00 0.00 -6.85 0.06 14.26 -1.80 2.98 -0.57 8969
0.00 0.00 -6.87 0.46 14.13 -1.74 2.84 -0.24 8976
-0.00 0.00 -7.82 0.52 14.49 -1.72 2.79 0.15 8983
0.00 0.00 -9.43 0.43 14.65 -1.69 2.73 0.44 8990
-0.00 0.00 -11.47 0.27 14.42 -1.68 2.58 0.71 8997
-0.00 0.01 -13.12 0.11 14.16 -1.71 2.36 0.87 9006
0.00 0.00 -14.56 0.00 14.14 -1.83 2.01 0.94 9012
0.00 0.00 -15.33 -0.25 13.60 -1.99 1.60 0.92 9019
-0.00 0.01 -15.28 -1.55 10.94 -2.24 1.18 0.83 9027
-0.00 0.01 -12.19 -5.33 9.97 -2.52 0.55 0.59 9033
-0.00 0.00 -8.62 -8.71 9.93 -2.63 0.04 0.28 9040
0.00 0.00 -6.64 -10.77 8.48 -2.57 0.01 0.12 9048
0.00 0.00 -5.99 -12.70 7.75 -2.37 0.20 0.04 9055
0.00 0.00 -6.57 -13.91 7.34 -2.00 0.31 0.08 9062
-0.00 0.00 -6.70 -13.89 6.26 -1.57 0.28 0.29 9069
-0.00 0.00 -6.09 -13.30 5.27 -1.17 0.27 0.65 9076
-0.00 0.02 -5.10 -12.41 4.84 -0.69 0.39 1.03 9083
-0.00 0.01 -4.65 -10.38 4.44 -0.27 0.61 1.50 9091
0.00 0.00 -4.48 -8.18 4.68 0.01 0.85 1.97 9098
0.00 0.00 -5.08 -5.08 4.73 0.08 1.08 2.39 9105
0.01 0.02 -73.48 -44.49 28.84 1.87 -4.28 3.19 9113
-0.00 0.05 -17.55 -27.51 -2.00 2.27 -4.28 3.00 9120
-0.00 0.16 -17.53 -12.99 23.95 4.01 -4.28 2.24 9127
-0.06 0.69 -22.27 -4.79 57.92 4.27 -3.85 1.97 9135
-0.09 0.92 -15.68 -0.12 32.32 3.12 -1.68 1.60 9142
-0.06 0.88 -12.69 -7.47 24.17 2.62 -1.34 0.57 9149
-0.05 0.79 -1.17 -2.46 17.88 1.26 -1.36 0.07 9156
-0.06 0.65 2.52 -0.79 11.19 0.69 -0.78 0.29 9163
-0.02 0.50 1.79 0.76 9.87 0.66 -0.82 0.36 9169
0.01 0.40 -1.90 -1.25 10.23 0.40 -0.64 0.29 9177
0.00 0.32 -1.10 -2.16 9.81 0.26 -0.38 0.13 9184
-0.00 0.39 0.92 -2.10 10.89 0.21 -0.26 0.09 9191
0.07 0.27 0.99 -1.18 10.67 0.29 -0.34 0.04 9199
0.18 0.20 -0.30 -1.00 10.18 0.31 -0.35 0.03 9205
0.24 0.16 -0.40 -1.38 9.91 0.28 -0.30 0.04 9212
0.33 0.16 -0.01 -1.32 9.73 0.23 -0.23 0.05 9220
0.38 0.11 0.35 -1.24 9.59 0.18 -0.19 0.05 9227
0.39 0.12 0.45 -1.14 9.65 0.12 -0.17 0.03 9234
0.44 0.10 0.24 -0.97 9.76 0.09 -0.15 0.02 9241
0.47 0.11 0.01 -0.89 9.85 0.08 -0.14 0.02 9248
0.50 0.10 0.12 -0.90 9.82 0.08 -0.12 0.03 9255
0.49 0.09 0.18 -0.96 9.78 0.08 -0.11 0.03 9263
0.51 0.08 0.36 -0.94 9.85 0.08 -0.11 0.03 9270
0.49 0.05 0.24 -0.94 9.88 0.09 -0.11 0.03 9277
0.50 0.03 0.19 -0.93 9.80 0.09 -0.11 0.03 9284
0.50 0.07 0.16 -0.95 9.82 0.08 -0.11 0.03 9291
0.51 0.03 0.13 -0.95 9.65 0.09 -0.11 0.03 9298
0.51 0.02 0.13 -1.03 9.55 0.07 -0.10 0.02 9306
0.51 0.00 0.19 -1.02 9.69 0.06 -0.08 0.02 9313
0.49 0.01 0.14 -1.05 9.63 0.04 -0.06 0.02 9320
0.48 0.01 0.11 -1.10 9.58 0.03 -0.04 0.01 9327
0.46 0.02 0.20 -1.11 9.54 0.02 -0.02 0.01 9334
0.43 0.02 0.19 -1.08 9.56 -0.00 -0.00 0.01 9341
0.40 0.02 0.24 -1.06 9.52 -0.02 0.02 0.00 9349
0.41 0.00 0.25 -1.08 9.62 -0.04 0.03 -0.00 9356
0.38 0.02 0.21 -1.04 9.71 -0.05 0.03 -0.00 9363
0.33 0.03 0.24 -1.08 9.64 -0.05 0.03 -0.00 9370
0.31 0.03 0.20 -1.04 9.68 -0.06 0.03 0.00 9377
0.29 0.04 0.24 -1.02 9.68 -0.07 0.04 -0.00 9384
0.22 0.04 0.29 -1.04 9.62 -0.08 0.04 0.00 9392
0.21 0.04 0.26 -1.02 9.59 -0.08 0.04 0.00 9399
0.21 0.06 0.38 -0.99 9.63 -0.09 0.03 0.01 9406
0.21 0.07 0.32 -0.98 9.63 -0.09 0.02 0.01 9413
0.22 0.06 0.19 -0.99 9.58 -0.09 0.03 0.00 9420
0.21 0.06 0.19 -0.97 9.62 -0.09 0.04 0.01 9427
0.20 0.07 0.25 -0.96 9.68 -0.09 0.04 0.01 9435
0.19 0.06 0.22 -0.96 9.74 -0.09 0.05 0.01 9442
0.15 0.06 0.18 -0.96 9.76 -0.08 0.05 0.01 9449
0.13 0.09 0.21 -0.93 9.73 -0.07 0.04 0.01 9456
0.14 0.08 0.23 -0.91 9.81 -0.06 0.04 0.01 9463
0.15 0.08 0.27 -0.94 9.68 -0.06 0.04 0.01 9470
0.14 0.07 0.21 -0.93 9.62 -0.06 0.04 0.01 9478
0.12 0.08 0.20 -0.87 9.70 -0.06 0.04 0.01 9485
0.12 0.09 0.23 -0.91 9.64 -0.06 0.04 0.01 9492
0.12 0.09 0.23 -0.91 9.72 -0.06 0.04 0.02 9499
0.15 0.08 0.24 -0.91 9.73 -0.06 0.03 0.02 9506
0.15 0.11 0.29 -0.92 9.75 -0.04 0.02 0.02 9513
0.15 0.11 0.26 -0.91 9.70 -0.04 0.01 0.01 9521
0.15 0.12 0.25 -0.93 9.74 -0.03 -0.00 0.01 9528
0.13 0.13 0.21 -0.91 9.78 -0.02 -0.01 0.01 9535
0.12 0.14 0.18 -0.89 9.71 -0.01 -0.01 0.01 9542
0.15 0.13 0.20 -0.93 9.71 -0.01 -0.01 0.01 9549
0.15 0.13 0.21 -0.92 9.73 -0.00 -0.01 0.01 9556
0.15 0.12 0.19 -0.91 9.78 0.01 -0.01 0.00 9564
0.15 0.13 0.17 -0.91 9.74 0.03 -0.02 -0.00 9571
0.17 0.13 0.15 -0.94 9.73 0.04 -0.02 -0.00 9578
0.18 0.13 0.22 -0.89 9.66 0.04 -0.02 -0.01 9585
0.16 0.11 0.23 -0.94 9.71 0.05 -0.02 -0.01 9592
0.15 0.08 0.24 -0.94 9.73 0.05 -0.02 -0.01 9600
0.14 0.06 0.25 -0.95 9.70 0.06 -0.02 -0.02 9607
0.15 0.07 0.21 -0.88 9.66 0.05 -0.02 -0.02 9614
0.16 0.07 0.15 -0.96 9.72 0.06 -0.02 -0.02 9621
0.16 0.05 0.14 -0.98 9.72 0.06 -0.02 -0.03 9628
0.14 0.05 0.11 -0.96 9.70 0.07 -0.01 -0.03 9635
0.16 0.05 0.11 -0.99 9.75 0.08 -0.01 -0.03 9643
0.16 0.07 0.17 -1.00 9.81 0.10 -0.00 -0.04 9650
0.15 0.05 0.12 -0.98 9.83 0.12 -0.01 -0.03 9657
0.17 0.02 0.15 -0.97 9.82 0.14 -0.01 -0.04 9664
0.22 0.02 0.03 -0.98 9.90 0.17 -0.01 -0.04 9671
0.21 0.02 0.05 -1.05 10.07 0.20 -0.02 -0.04 9678
0.23 0.00 -0.01 -1.07 10.11 0.24 -0.04 -0.03 9686
0.24 0.00 -0.05 -0.85 10.34 0.30 -0.08 -0.02 9693
0.24 0.00 -0.57 -0.95 10.99 0.36 -0.19 0.01 9700
0.30 0.02 -0.40 -0.72 11.35 0.46 -0.32 0.05 9707
0.33 -0.01 -0.87 -1.51 12.04 0.59 -0.53 0.07 9715
0.36 -0.01 -0.31 -1.58 14.29 0.85 -1.10 0.09 9722
0.40 -0.03 0.28 -1.39 17.12 1.29 -1.55 0.11 9730
0.38 -0.03 4.30 -1.94 15.75 1.73 -1.08 -0.07 9737
0.46 -0.03 0.85 -1.42 15.38 1.99 -1.00 -0.23 9744
0.43 -0.02 1.60 -1.72 14.56 2.21 -1.34 -0.25 9751
0.38 -0.02 1.83 -1.92 14.59 2.41 -1.47 -0.36 9758
0.41 -0.03 1.21 -1.82 15.79 2.63 -1.60 -0.43 9765
0.38 -0.03 1.54 -2.08 16.18 2.87 -1.83 -0.51 9773
0.35 -0.02 1.84 -2.49 16.84 3.09 -2.03 -0.60 9780
0.25 -0.00 2.87 -2.88 17.28 3.32 -2.39 -0.70 9787
0.26 -0.01 3.70 -3.59 17.19 3.48 -2.76 -0.89 9794
0.19 -0.01 5.25 -4.50 17.19 3.53 -3.11 -1.10 9801
0.10 -0.01 8.15 -4.84 15.82 3.49 -3.38 -1.43 9808
0.09 -0.01 9.79 -5.24 16.21 3.44 -3.43 -1.87 9815
0.06 -0.01 9.65 -5.64 16.55 3.32 -3.59 -2.24 9822
0.06 -0.01 10.12 -5.95 16.91 3.15 -3.75 -2.66 9830
0.04 -0.00 10.92 -5.71 16.02 2.89 -3.94 -3.03 9837
0.02 -0.00 10.98 -3.06 15.12 2.68 -4.03 -3.35 9844
0.00 -0.00 10.77 -1.23 13.28 2.37 -4.00 -3.57 9850
0.00 0.00 10.99 -1.18 11.23 1.91 -4.22 -3.58 9858
0.00 0.00 21.07 -4.26 7.06 1.69 -4.21 -2.61 9865
-0.00 0.00 19.59 -2.98 15.33 1.74 -2.62 -0.73 9873
0.00 0.00 23.55 -0.50 11.08 0.79 -0.12 0.11 9879
0.00 0.00 17.11 -1.07 9.77 0.37 0.82 0.99 9886
0.00 0.00 11.22 -1.23 9.60 0.07 1.12 1.46 9893
0.00 0.00 8.91 -1.48 9.29 -0.09 0.88 1.69 9901
-0.00 0.00 8.98 -1.04 8.90 -0.16 0.67 1.64 9908
-0.00 0.01 9.76 -0.29 8.74 -0.33 0.79 1.43 9915
0.00 0.00 10.06 0.31 9.09 -0.50 1.20 0.96 9922
0.00 0.00 9.32 0.81 9.37 -0.74 1.61 0.46 9929
0.00 0.00 7.75 1.08 9.43 -0.99 2.06 -0.18 9936
0.00 0.00 6.39 1.26 9.36 -1.22 2.35 -0.81 9944
0.00 0.00 5.23 0.94 9.09 -1.47 2.60 -1.38 9951
0.00 0.00 3.62 1.00 9.77 -1.64 2.81 -1.97 9958
0.00 0.00 2.59 0.77 10.99 -1.74 3.01 -2.39 9965
0.00 0.00 1.73 1.08 11.02 -1.82 3.12 -2.77 9972
0.00 0.00 1.12 1.65 10.80 -1.88 3.13 -2.96 9979
0.00 0.00 0.42 1.81 10.70 -1.95 3.11 -2.99 9987
0.00 0.00 0.08 1.53 10.51 -1.95 3.07 -2.89 9994
0.00 0.00 0.01 1.10 10.77 -1.90 3.01 -2.76 10001
0.00 0.00 0.33 0.80 10.61 -1.77 3.00 -2.55 10008
0.00 0.00 0.62 0.70 10.84 -1.60 3.05 -2.29 10015
0.00 0.00 0.79 0.74 10.99 -1.40 3.12 -2.04 10022
-0.00 0.00 0.74 0.95 10.85 -1.22 3.21 -1.72 10030
-0.00 0.01 0.63 1.08 10.94 -1.11 3.30 -1.36 10037
-0.00 0.01 0.40 1.06 11.32 -1.01 3.35 -0.99 10044
-0.00 0.02 -0.03 1.21 11.72 -0.95 3.39 -0.56 10051
-0.00 0.01 -0.64 1.09 11.88 -0.90 3.40 -0.21 10058
0.00 0.00 -1.47 0.97 12.11 -0.87 3.40 0.10 10065
-0.00 0.00 -2.44 0.79 11.80 -0.84 3.43 0.33 10073
-0.00 0.01 -3.64 0.69 11.72 -0.83 3.47 0.45 10080
-0.00 0.00 -4.95 0.92 11.76 -0.79 3.45 0.54 10087
-0.00 0.00 -5.98 1.43 11.80 -0.75 3.40 0.59 10094
0.00 0.00 -7.30 2.09 11.84 -0.72 3.33 0.66 10101
0.00 0.00 -8.37 2.68 11.96 -0.73 3.23 0.76 10108
0.00 0.00 -9.39 3.05 11.89 -0.77 3.04 0.89 10116
-0.00 0.01 -10.13 3.41 11.80 -0.83 2.81 1.10 10124
0.00 0.00 -10.69 3.38 11.82 -0.91 2.60 1.32 10130
0.00 0.00 -11.54 2.99 12.06 -1.01 2.33 1.56 10137
0.00 0.00 -12.18 2.09 11.94 -1.10 2.13 1.76 10144
0.00 0.00 -12.76 1.30 11.74 -1.23 1.86 1.87 10151
0.00 0.00 -12.70 0.28 11.30 -1.34 1.52 1.94 10159
0.00 -0.00 -11.99 -1.14 10.71 -1.46 1.22 1.95 10167
0.00 0.00 -10.63 -1.47 10.11 -1.56 0.93 1.90 10173
0.00 0.00 -8.75 -2.42 9.47 -1.61 0.72 1.82 10180
0.00 0.00 -7.77 -3.20 9.00 -1.64 0.62 1.75 10187
-0.00 0.01 -6.68 -4.28 8.75 -1.66 0.53 1.70 10194
-0.00 0.01 -6.16 -5.21 8.17 -1.66 0.45 1.70 10202
0.00 0.01 -5.36 -6.11 7.61 -1.62 0.33 1.76 10209
-0.00 0.01 -4.36 -6.95 7.09 -1.56 0.23 1.87 10216
-0.00 0.01 -3.55 -7.64 6.15 -1.43 0.23 1.99 10223
0.00 0.00 -3.04 -7.99 5.53 -1.24 0.30 2.18 10230
-0.00 0.00 -2.69 -7.89 4.63 -1.04 0.40 2.42 10237
-0.00 0.02 -2.31 -7.19 4.11 -0.79 0.52 2.68 10245
0.02 0.04 -68.38 -49.35 33.24 1.55 -4.28 3.35 10253
0.00 0.06 -20.68 -31.48 -3.34 1.87 -4.28 3.47 10260
-0.02 0.16 -15.18 -11.02 26.73 4.16 -4.28 3.51 10267
-0.06 0.65 -31.09 -5.69 54.15 4.28 -1.00 4.01 10274
-0.09 0.86 -20.18 1.99 27.54 3.71 -0.99 2.78 10281
-0.06 0.84 -17.57 -6.11 23.25 2.61 -1.14 0.80 10289
-0.05 0.72 -1.93 -4.05 17.70 1.18 -1.48 -0.08 10296
-0.04 0.56 2.77 -2.28 11.97 0.42 -0.76 0.26 10303
-0.00 0.43 1.20 -0.98 10.47 0.25 -0.66 0.27 10310
-0.01 0.45 -0.53 -0.24 9.07 0.19 -0.67 0.18 10316
0.04 0.43 -1.32 -2.29 9.23 0.01 -0.47 0.08 10323
0.06 0.42 -0.05 -2.45 10.15 -0.09 -0.22 0.05 10331
0.08 0.43 0.32 -1.06 10.66 -0.04 -0.14 0.03 10338
0.07 0.37 -0.10 -0.75 10.37 0.08 -0.13 0.03 10345
0.16 0.35 -0.01 -0.98 9.81 0.14 -0.11 0.03 10352
0.12 0.30 0.02 -1.04 9.49 0.10 -0.07 0.04 10359
0.21 0.32 0.06 -1.19 9.92 0.06 -0.05 0.04 10366
0.26 0.29 0.15 -0.89 9.21 0.04 -0.03 0.05 10374
0.29 0.28 0.13 -0.85 9.87 0.03 -0.02 0.05 10381
0.29 0.30 0.09 -0.86 9.89 0.03 -0.02 0.05 10388
0.29 0.26 0.09 -0.87 9.80 0.04 -0.02 0.05 10395
0.30 0.23 0.13 -0.88 9.74 0.03 -0.02 0.05 10402
0.30 0.26 0.04 -0.74 9.82 0.02 -0.01 0.05 10409
0.33 0.25 0.03 -0.77 9.97 0.03 -0.01 0.06 10417
0.30 0.23 0.11 -0.80 9.87 0.04 -0.01 0.06 10424
0.29 0.23 0.08 -0.86 9.80 0.04 -0.02 0.06 10431
0.29 0.23 0.10 -0.87 9.78 0.03 -0.02 0.06 10438
0.30 0.22 0.19 -0.89 9.73 0.02 -0.02 0.05 10445
0.29 0.23 0.12 -0.89 9.75 0.02 -0.02 0.05 10452
0.29 0.25 0.12 -0.88 9.79 0.02 -0.02 0.04 10460
0.29 0.21 0.07 -0.86 9.77 0.01 -0.01 0.04 10467
0.28 0.20 0.08 -0.86 9.69 0.01 -0.01 0.04 10474
0.23 0.20 0.08 -0.86 9.69 0.02 -0.01 0.04 10481
0.20 0.23 0.12 -0.87 9.65 0.02 -0.02 0.04 10488
0.19 0.22 0.11 -0.91 9.71 0.01 -0.02 0.03 10496
0.18 0.20 0.17 -0.87 9.60 0.00 -0.02 0.02 10503
0.16 0.19 0.16 -0.87 9.72 0.01 -0.02 0.02 10510
0.16 0.17 0.23 -0.90 9.70 0.01 -0.03 0.01 10517
0.14 0.19 0.14 -0.89 9.68 0.02 -0.04 0.01 10524
0.18 0.20 0.28 -0.91 9.69 0.03 -0.04 0.00 10531
0.17 0.21 0.14 -0.87 9.75 0.03 -0.05 -0.00 10539
0.15 0.18 0.18 -0.92 9.68 0.04 -0.06 -0.01 10546
0.14 0.16 0.15 -0.88 9.65 0.04 -0.06 -0.01 10553
0.15 0.13 0.16 -0.90 9.74 0.05 -0.06 -0.01 10560
0.13 0.13 0.10 -0.91 9.68 0.05 -0.06 -0.02 10567
0.15 0.13 0.17 -0.91 9.71 0.06 -0.06 -0.02 10574
0.16 0.12 0.12 -0.96 9.63 0.06 -0.06 -0.02 10582
0.15 0.11 0.07 -0.99 9.70 0.05 -0.07 -0.02 10589
0.14 0.10 0.06 -1.00 9.58 0.04 -0.06 -0.02 10596
0.15 0.08 0.05 -1.00 9.66 0.02 -0.05 -0.03 10603
0.13 0.10 0.05 -0.98 9.68 0.02 -0.05 -0.03 10610
0.14 0.10 0.05 -0.98 9.66 0.01 -0.04 -0.03 10617
0.17 0.10 0.03 -1.02 9.72 0.00 -0.03 -0.03 10625
0.16 0.10 0.09 -1.02 9.69 0.00 -0.02 -0.03 10632
0.16 0.08 0.03 -0.97 9.72 0.00 -0.02 -0.03 10639
0.15 0.07 0.06 -0.98 9.65 -0.00 -0.02 -0.03 10646
0.17 0.07 0.07 -1.00 9.69 -0.01 -0.01 -0.03 10653
0.15 0.10 0.06 -1.02 9.75 -0.01 -0.01 -0.03 10660
0.16 0.08 0.09 -1.07 9.74 -0.02 -0.00 -0.03 10668
0.16 0.09 0.03 -1.06 9.74 -0.03 -0.00 -0.03 10675
0.18 0.09 0.07 -0.99 9.66 -0.03 -0.00 -0.02 10682
0.15 0.10 0.06 -0.97 9.74 -0.02 -0.01 -0.03 10689
0.17 0.10 0.08 -0.99 9.69 -0.02 -0.02 -0.03 10696
0.15 0.12 0.02 -1.02 9.68 -0.01 -0.02 -0.03 10703
0.20 0.08 0.00 -0.94 9.73 0.00 -0.03 -0.03 10711
0.21 0.08 0.01 -1.02 9.78 0.01 -0.02 -0.03 10718
0.20 0.08 0.04 -1.00 9.80 0.02 -0.02 -0.03 10725
0.13 0.03 -0.00 -1.00 9.76 0.04 -0.03 -0.03 10732
0.17 0.04 0.02 -0.98 9.80 0.06 -0.03 -0.03 10739
0.22 0.07 0.04 -0.98 9.80 0.09 -0.04 -0.03 10746
0.22 0.03 -0.60 -0.92 9.85 0.10 -0.05 -0.03 10754
0.24 0.01 -0.04 -1.01 9.79 0.12 -0.09 -0.02 10761
0.27 0.02 0.01 -1.03 9.87 0.14 -0.11 -0.02 10768
0.27 0.03 -0.02 -1.11 9.86 0.16 -0.14 -0.02 10775
0.28 0.03 -0.08 -1.20 10.00 0.18 -0.18 -0.02 10782
0.27 0.02 0.07 -0.97 10.17 0.21 -0.22 -0.03 10789
0.29 0.00 -0.04 -1.23 10.33 0.25 -0.25 -0.03 10798
0.31 -0.01 -0.13 -1.28 10.60 0.32 -0.32 -0.05 10805
0.33 -0.02 -0.09 -0.93 11.44 0.40 -0.42 -0.06 10811
0.30 -0.00 -0.61 -1.39 12.71 0.57 -0.70 -0.07 10818
0.27 -0.01 -1.67 -1.08 15.39 0.87 -1.46 0.01 10826
0.34 -0.02 -1.30 -1.03 15.94 1.25 -2.08 0.11 10833
0.31 -0.03 4.90 -2.32 15.58 1.60 -1.83 0.01 10840
0.30 -0.03 2.01 -1.45 14.95 1.87 -1.33 -0.30 10847
0.33 -0.02 0.40 -1.61 15.59 2.08 -1.74 -0.32 10855
0.34 -0.02 2.05 -2.15 15.77 2.31 -1.98 -0.42 10862
0.33 -0.01 1.54 -2.16 16.42 2.56 -2.10 -0.54 10869
0.31 -0.01 1.05 -2.17 17.24 2.78 -2.36 -0.63 10876
0.21 -0.00 0.87 -2.07 17.73 2.98 -2.65 -0.72 10884
0.11 -0.01 0.58 -2.58 18.65 3.22 -2.95 -0.78 10890
0.12 -0.01 1.88 -2.79 19.32 3.37 -3.39 -0.85 10897
0.11 -0.01 3.31 -3.11 19.50 3.49 -3.72 -1.01 10905
0.09 0.01 5.69 -4.08 18.63 3.56 -4.02 -1.19 10912
0.04 0.00 8.44 -3.48 18.03 3.60 -4.20 -1.53 10918
0.02 0.00 7.99 -3.47 18.47 3.60 -4.28 -1.84 10926
0.03 -0.00 7.81 -3.26 18.10 3.60 -4.28 -2.16 10933
0.02 -0.00 7.50 -2.81 17.92 3.64 -4.28 -2.36 10940
0.02 0.00 7.44 -1.18 18.32 3.64 -4.28 -2.45 10948
0.03 0.00 7.34 0.24 17.92 3.49 -4.28 -2.50 10954
0.00 0.00 6.68 0.53 16.90 3.06 -4.28 -2.39 10961
0.00 0.00 14.81 -3.94 11.40 2.60 -4.28 -1.56 10969
0.00 -0.00 17.21 -0.89 20.11 2.38 -4.28 0.55 10976
0.00 0.00 24.03 2.36 14.28 0.98 -1.43 1.42 10983
-0.00 0.01 14.10 1.49 12.14 0.22 0.15 2.24 10990
-0.00 0.00 8.31 0.86 10.57 -0.16 0.42 2.77 10997
-0.00 0.00 6.52 0.53 10.45 -0.30 0.06 3.16 11004
-0.00 0.01 7.34 1.21 9.83 -0.44 -0.27 3.26 11012
-0.00 0.00 9.71 1.92 9.52 -0.70 -0.18 3.13 11019
-0.00 0.00 10.91 2.44 9.42 -0.97 0.38 2.75 11026
-0.00 0.02 10.51 2.52 9.45 -1.24 1.03 2.29 11033
-0.00 0.01 9.04 2.57 9.33 -1.44 1.71 1.68 11040
-0.00 0.01 7.63 2.55 9.57 -1.56 2.23 1.09 11047
0.00 0.00 5.96 2.54 10.02 -1.66 2.53 0.61 11055
0.00 0.00 4.50 2.61 10.40 -1.76 2.74 0.11 11062
-0.00 0.00 3.42 2.51 10.66 -1.87 2.84 -0.27 11069
-0.00 0.01 2.38 2.55 10.77 -1.98 2.96 -0.55 11076
-0.00 0.01 0.52 2.66 11.07 -2.05 3.19 -0.78 11083
-0.00 0.00 -0.87 3.16 11.82 -2.12 3.40 -0.95 11090
0.00 0.00 -2.29 3.69 12.28 -2.21 3.48 -1.09 11098
0.00 0.00 -3.09 3.89 12.67 -2.33 3.49 -1.13 11105
-0.00 0.00 -3.72 4.09 12.73 -2.47 3.42 -1.11 11112
-0.00 0.01 -4.08 3.90 12.89 -2.59 3.29 -1.02 11119
0.00 0.00 -4.14 3.54 12.56 -2.70 3.15 -0.91 11126
0.00 0.00 -3.94 3.33 12.37 -2.75 2.98 -0.78 11133
0.00 0.00 -3.39 3.11 11.86 -2.78 2.90 -0.67 11141
-0.00 0.00 -2.54 2.73 11.60 -2.80 2.91 -0.64 11148
-0.00 0.00 -2.18 2.28 11.97 -2.79 3.03 -0.65 11155
0.00 0.02 -2.12 2.03 12.48 -2.78 3.17 -0.68 11163
0.01 0.01 -2.96 1.92 12.86 -2.76 3.36 -0.71 11170
0.01 0.01 -4.19 1.68 13.27 -2.74 3.51 -0.67 11177
0.00 0.02 -5.17 1.51 13.60 -2.71 3.53 -0.56 11185
-0.00 0.02 -5.64 1.19 13.87 -2.69 3.41 -0.35 11191
-0.00 0.02 -5.61 0.82 14.16 -2.68 3.26 -0.08 11198
0.00 0.01 -4.91 0.71 14.36 -2.66 3.09 0.21 11205
-0.00 0.02 -4.38 0.68 14.84 -2.65 3.00 0.55 11212
-0.00 0.02 -4.88 0.49 15.47 -2.65 2.95 0.80 11219
-0.00 0.00 -6.10 -0.07 15.22 -2.66 2.91 0.96 11227
-0.00 0.02 -7.92 -0.64 14.94 -2.68 2.83 0.94 11234
-0.00 0.02 -9.09 -2.37 13.73 -2.75 2.64 0.81 11241
-0.00 0.01 -8.86 -4.46 13.52 -2.81 2.34 0.51 11248
-0.00 0.01 -8.50 -5.65 12.86 -2.83 2.23 0.20 11255
-0.00 0.01 -9.10 -6.32 12.13 -2.78 2.35 -0.08 11262
-0.00 0.01 -10.63 -7.55 11.89 -2.68 2.44 -0.22 11271
-0.00 0.01 -12.04 -8.82 11.81 -2.53 2.31 -0.21 11278
-0.00 0.02 -11.81 -10.55 11.13 -2.39 2.03 -0.06 11285
-0.00 0.02 -10.81 -12.08 10.33 -2.25 1.81 0.19 11292
-0.00 0.01 -10.04 -14.20 9.61 -2.06 1.70 0.56 11298
-0.00 0.00 -9.72 -15.88 8.38 -1.85 1.67 0.97 11305
-0.00 0.01 -8.75 -16.63 7.61 -1.56 1.67 1.30 11313
-0.00 0.01 -8.51 -16.79 6.89 -1.27 1.68 1.64 11320
-0.00 0.02 -8.94 -16.15 5.69 -1.01 1.57 1.91 11327
-0.00 0.01 -9.52 -14.53 4.79 -0.76 1.33 2.09 11334
-0.00 0.02 -9.79 -12.22 3.24 -0.58 1.03 2.21 11341
0.03 0.01 -50.45 -49.02 28.56 1.24 -3.12 2.35 11350
0.02 0.07 -28.34 -41.53 -12.63 2.16 -4.28 2.39 11357
0.00 0.21 -11.61 -24.12 16.52 3.92 -4.28 1.91 11364
-0.04 0.79 -29.32 -6.56 54.03 4.28 -3.63 2.24 11371
-0.08 1.12 -10.95 -0.31 40.37 4.28 -1.27 2.03 11378
-0.09 1.10 -11.04 -6.95 24.86 4.28 -1.04 1.44 11385
-0.06 1.03 -6.55 -6.20 19.72 4.28 -1.18 0.65 11393
-0.07 0.87 -4.22 -7.13 31.33 3.07 -2.22 0.31 11400
-0.03 0.72 0.93 -3.11 17.11 0.67 -1.67 0.27 11407
-0.03 0.58 -2.88 -6.21 13.39 0.22 -0.88 0.07 11414
0.04 0.51 -0.09 -1.73 8.57 0.14 -0.51 0.08 11420
0.06 0.49 -0.42 -0.72 10.27 0.05 -0.38 0.04 11427
0.08 0.50 -0.51 -1.61 10.70 0.12 -0.25 0.04 11435
0.09 0.45 -0.40 -0.97 9.75 0.13 -0.15 0.06 11442
0.09 0.46 0.03 -1.06 9.76 0.10 -0.06 0.07 11449
0.14 0.44 0.50 -0.91 10.18 0.07 -0.05 0.06 11456
0.14 0.44 0.08 -0.76 9.94 0.08 -0.05 0.06 11463
0.15 0.41 0.06 -0.92 9.69 0.07 -0.02 0.06 11470
0.14 0.35 0.16 -0.72 9.54 0.04 -0.00 0.07 11478
0.13 0.35 0.29 -0.66 9.66 0.04 -0.00 0.06 11485
0.15 0.33 0.18 -0.71 9.85 0.05 -0.01 0.06 11492
0.14 0.32 0.15 -0.68 9.73 0.07 -0.01 0.06 11499
0.17 0.27 0.09 -0.71 9.78 0.08 -0.01 0.06 11506
0.16 0.29 0.06 -0.65 9.80 0.08 -0.00 0.06 11513
0.17 0.31 0.11 -0.67 9.88 0.09 0.00 0.07 11521
0.19 0.28 0.11 -0.77 9.91 0.09 0.00 0.07 11528
0.18 0.24 0.14 -0.76 9.84 0.11 0.00 0.06 11535
0.18 0.24 0.17 -0.73 9.84 0.11 -0.00 0.06 11542
0.18 0.19 0.12 -0.80 9.81 0.11 0.00 0.06 11549
0.18 0.18 0.14 -0.80 9.75 0.10 0.01 0.05 11556
0.17 0.24 0.22 -0.86 9.69 0.09 0.01 0.05 11564
0.17 0.22 0.20 -0.83 9.73 0.08 0.01 0.04 11571
0.19 0.17 0.22 -0.85 9.66 0.07 0.00 0.04 11578
0.18 0.13 0.23 -0.86 9.65 0.06 0.00 0.03 11585
0.16 0.14 0.19 -0.87 9.72 0.05 0.00 0.02 11592
0.16 0.10 0.16 -0.89 9.65 0.04 0.01 0.02 11599
0.17 0.09 0.23 -0.91 9.62 0.03 0.01 0.02 11607
0.13 0.09 0.30 -0.91 9.63 0.02 0.00 0.01 11614
0.14 0.08 0.30 -0.86 9.68 0.02 -0.00 0.00 11621
0.12 0.09 0.28 -0.89 9.61 0.01 -0.02 -0.00 11628
0.11 0.09 0.24 -0.91 9.63 0.01 -0.02 -0.00 11635
0.08 0.09 0.24 -0.86 9.58 0.01 -0.01 -0.01 11642
0.10 0.09 0.19 -0.87 9.61 0.01 -0.01 -0.01 11650
0.08 0.11 0.20 -0.91 9.58 0.01 0.00 -0.01 11657
0.08 0.11 0.20 -0.91 9.62 0.01 0.00 -0.01 11664
0.10 0.11 0.21 -0.93 9.64 0.00 0.01 -0.01 11671
0.12 0.08 0.20 -0.94 9.61 -0.00 0.02 -0.01 11678
0.10 0.10 0.22 -0.92 9.70 0.00 0.02 -0.01 11685
0.10 0.10 0.24 -0.94 9.78 0.01 0.02 -0.01 11693
0.10 0.08 0.20 -0.91 9.68 0.01 0.02 -0.01 11700
0.12 0.08 0.20 -0.98 9.67 0.01 0.03 -0.01 11707
0.10 0.06 0.18 -0.95 9.66 0.01 0.03 -0.02 11714
0.10 0.05 0.23 -0.98 9.65 0.00 0.03 -0.01 11721
0.09 0.06 0.20 -0.95 9.62 -0.01 0.03 -0.01 11728
0.10 0.07 0.30 -0.93 9.68 -0.01 0.02 -0.01 11736
0.12 0.08 0.23 -0.93 9.70 -0.01 0.02 -0.01 11743
0.10 0.07 0.22 -0.90 9.78 0.00 0.01 -0.01 11750
0.10 0.08 0.20 -0.90 9.69 0.02 0.01 -0.01 11757
0.12 0.05 0.16 -0.91 9.77 0.02 0.00 -0.01 11764
0.12 0.07 0.20 -0.91 9.76 0.03 -0.00 -0.01 11771
0.12 0.08 0.17 -0.90 9.74 0.05 -0.00 -0.00 11779
0.14 0.07 0.18 -0.92 9.73 0.06 -0.00 -0.01 11786
0.14 0.05 0.22 -0.93 9.67 0.06 -0.01 -0.01 11793
0.15 0.05 0.21 -0.96 9.68 0.05 -0.02 -0.01 11800
0.15 0.04 0.22 -0.96 9.70 0.05 -0.03 -0.01 11807
0.15 0.06 0.11 -0.93 9.69 0.05 -0.03 -0.01 11814
0.17 0.06 0.18 -0.96 9.72 0.05 -0.04 -0.01 11822
0.20 0.07 0.21 -0.99 9.78 0.05 -0.04 -0.01 11829
0.18 0.07 0.18 -0.99 9.79 0.05 -0.05 -0.01 11836
0.19 0.04 0.07 -1.00 9.84 0.05 -0.05 -0.01 11843
0.17 0.07 0.11 -1.05 9.76 0.06 -0.05 -0.01 11850
0.23 0.06 0.11 -1.02 9.72 0.06 -0.05 -0.01 11857
0.25 0.05 0.11 -1.00 9.79 0.07 -0.04 -0.02 11865
0.27 0.03 0.07 -1.03 9.81 0.08 -0.04 -0.02 11872
0.26 0.02 0.10 -0.96 9.94 0.10 -0.04 -0.02 11879
0.30 0.02 0.06 -1.02 9.92 0.12 -0.06 -0.02 11886
0.31 0.03 0.06 -0.98 9.90 0.15 -0.08 -0.01 11893
0.27 0.01 0.22 -1.04 10.08 0.18 -0.11 -0.01 11900
0.30 0.00 0.11 -1.05 10.03 0.22 -0.15 -0.01 11908
0.35 -0.00 -0.04 -1.32 10.24 0.25 -0.19 -0.01 11915
0.33 0.00 -0.14 -1.22 10.06 0.31 -0.24 -0.02 11922
0.35 -0.02 -0.22 -1.29 10.47 0.35 -0.31 -0.01 11930
0.35 -0.01 -0.40 -0.94 11.40 0.44 -0.43 -0.01 11936
0.37 -0.02 -0.41 -1.77 12.19 0.61 -0.72 -0.01 11944
0.36 -0.02 -0.43 -1.46 13.52 0.86 -1.23 0.01 11952
0.40 -0.03 1.44 -1.79 15.08 1.19 -1.36 -0.01 11959
0.38 -0.03 2.38 -1.68 16.02 1.55 -0.98 -0.20 11966
0.44 -0.02 0.56 -1.54 16.63 1.86 -1.08 -0.27 11973
0.35 -0.02 1.60 -1.76 15.98 2.19 -1.44 -0.31 11980
0.31 -0.00 2.17 -2.08 15.60 2.44 -1.69 -0.42 11987
0.31 -0.02 2.89 -2.17 16.49 2.66 -1.91 -0.54 11995
0.26 -0.02 3.02 -2.63 17.01 2.91 -2.17 -0.72 12002
0.22 -0.00 2.73 -3.04 18.21 3.12 -2.42 -0.89 12009
0.19 -0.01 3.17 -3.65 18.16 3.31 -2.83 -1.03 12016
0.12 -0.01 5.78 -3.52 17.82 3.40 -3.27 -1.24 12022
0.11 0.00 6.62 -3.45 17.79 3.45 -3.51 -1.48 12030
0.08 -0.01 6.55 -4.31 17.91 3.46 -3.86 -1.78 12037
0.07 -0.01 7.97 -4.53 17.80 3.42 -4.16 -2.10 12044
0.08 -0.01 9.85 -4.74 17.79 3.18 -4.28 -2.44 12051
0.03 -0.00 11.41 -3.57 16.78 2.96 -4.28 -2.83 12059
0.04 -0.00 12.50 -1.94 17.06 2.70 -4.28 -3.10 12065
0.01 0.01 13.73 -1.21 15.75 2.26 -4.28 -3.38 12073
0.00 0.00 15.95 0.85 13.81 1.80 -4.28 -3.50 12080
0.00 0.00 29.09 3.02 8.37 1.43 -4.28 -3.08 12087
0.00 -0.00 34.20 0.16 14.37 1.57 -2.35 -1.06 12094
0.00 0.00 35.22 3.34 13.79 0.65 1.12 -0.43 12101
0.00 0.00 21.73 3.30 11.48 0.13 2.63 0.39 12108
-0.00 0.00 13.78 2.52 11.75 -0.03 2.74 1.01 12115
0.00 0.00 11.92 2.57 12.88 -0.11 2.39 1.27 12123
0.00 0.00 11.97 4.09 12.74 -0.26 2.28 1.23 12130
0.00 0.00 11.75 5.11 13.48 -0.61 2.59 0.86 12137
-0.00 0.00 9.47 5.38 14.10 -1.01 3.02 0.35 12144
-0.00 0.00 6.38 5.64 13.80 -1.30 3.29 -0.37 12151
0.00 0.01 4.81 5.36 13.31 -1.50 3.35 -1.00 12158
-0.00 0.01 3.78 4.52 12.46 -1.58 3.47 -1.76 12166
-0.00 0.01 2.35 4.86 12.04 -1.56 3.69 -2.51 12173
-0.00 0.01 -0.36 5.44 12.97 -1.38 4.16 -3.16 12180
-0.00 0.02 -3.08 6.40 13.87 -1.29 4.28 -3.78 12187
-0.00 0.03 -4.87 6.94 14.56 -1.30 4.28 -4.11 12194
0.00 0.02 -4.95 7.10 14.85 -1.41 4.13 -4.24 12203
-0.00 0.01 -3.75 6.52 14.79 -1.49 3.93 -4.17 12209
0.00 0.00 -3.65 5.90 14.61 -1.51 3.73 -3.97 12216
-0.00 0.00 -2.47 5.39 14.10 -1.47 3.64 -3.61 12223
-0.00 0.01 -2.10 4.99 13.73 -1.34 3.66 -3.19 12230
-0.00 0.02 -1.80 4.33 13.82 -1.16 3.79 -2.87 12237
-0.00 0.00 -2.94 4.03 14.08 -1.01 3.91 -2.51 12244
-0.00 0.00 -3.26 4.02 14.38 -0.88 4.00 -2.26 12252
0.00 0.00 -4.52 3.96 14.58 -0.81 4.00 -1.98 12259
-0.00 0.01 -5.70 3.10 14.57 -0.77 3.92 -1.70 12266
-0.00 0.01 -6.88 3.50 14.62 -0.74 3.74 -1.43 12273
-0.00 0.03 -7.97 3.18 14.26 -0.72 3.50 -1.13 12280
-0.00 0.02 -8.14 3.07 14.03 -0.71 3.25 -0.89 12288
-0.00 0.02 -7.99 3.20 13.75 -0.69 3.03 -0.57 12295
-0.00 0.01 -8.06 3.33 13.06 -0.69 2.93 -0.24 12302
-0.00 0.01 -8.62 3.35 12.59 -0.70 2.83 0.07 12309
-0.00 0.01 -9.39 3.28 11.92 -0.73 2.72 0.42 12316
-0.00 0.02 -9.92 3.16 11.50 -0.78 2.59 0.72 12323
-0.00 0.02 -10.00 3.08 11.05 -0.84 2.41 1.06 12331
-0.00 0.02 -9.86 3.01 10.70 -0.91 2.27 1.37 12338
-0.00 0.01 -9.92 2.88 10.44 -1.00 2.12 1.61 12345
-0.00 0.01 -10.19 2.64 10.10 -1.09 1.95 1.83 12352
-0.00 0.02 -10.34 2.41 10.04 -1.20 1.77 1.97 12360
-0.00 0.03 -10.05 2.13 9.95 -1.33 1.55 2.03 12366
-0.00 0.02 -9.79 1.69 9.95 -1.45 1.40 1.99 12374
-0.00 0.02 -9.40 1.09 9.89 -1.58 1.29 1.86 12381
-0.00 0.01 -9.34 -0.14 8.95 -1.72 1.17 1.69 12388
-0.00 0.02 -7.65 -3.08 7.80 -1.85 0.92 1.49 12395
-0.00 0.03 -4.60 -5.87 8.77 -1.90 0.40 1.29 12402
-0.00 0.02 -1.31 -7.45 7.34 -1.83 0.34 1.16 12409
-0.00 0.02 0.02 -8.50 7.13 -1.67 0.52 1.13 12417
-0.00 0.01 0.01 -9.36 6.85 -1.44 0.67 1.20 12424
-0.00 0.01 -0.02 -9.50 6.57 -1.23 0.68 1.40 12431
-0.00 0.02 0.20 -9.38 6.36 -0.98 0.66 1.63 12438
-0.00 0.03 -0.03 -9.04 6.12 -0.76 0.76 1.93 12445
-0.00 0.02 -0.99 -8.56 6.69 -0.50 0.90 2.18 12452
-0.00 0.01 -2.31 -7.76 6.52 -0.30 1.02 2.44 12460
-0.00 0.00 -3.49 -6.73 6.99 -0.21 1.09 2.70 12467
-0.00 0.01 -12.99 -19.03 1.03 0.06 0.48 2.94 12474
-0.00 0.03 -44.91 -35.49 -3.26 1.39 -4.28 4.03 12482
-0.00 0.08 -5.33 -21.96 7.69 2.16 -4.28 3.35 12489
0.00 0.24 -19.00 -8.03 33.79 3.78 -4.28 3.57 12496
-0.06 0.73 -28.92 0.44 43.96 3.67 -1.81 3.54 12504
-0.07 1.08 -21.49 2.04 28.82 2.67 -2.08 2.29 12511
-0.08 1.07 -17.39 -6.33 16.60 2.60 -1.65 0.65 12518
-0.06 1.03 -7.30 -2.53 14.97 2.74 -0.94 -0.29 12525
-0.04 0.93 4.80 -0.45 11.50 2.25 -0.47 -0.29 12532
-0.03 0.82 6.39 0.17 9.08 1.99 -0.29 0.19 12538
-0.05 0.76 4.29 -0.41 15.03 2.09 -0.23 0.71 12547
-0.05 0.73 -2.74 -1.85 12.86 0.62 -0.95 0.59 12554
-0.01 0.75 -4.37 -5.97 14.03 -0.15 -0.51 0.09 12561
-0.02 0.70 0.11 -0.81 8.68 -0.01 -0.27 0.00 12567
0.02 0.67 0.49 -0.86 11.28 0.02 -0.18 0.06 12574
0.04 0.60 -0.32 -0.53 9.84 0.17 -0.20 0.05 12581
0.08 0.52 -0.02 -1.32 9.64 0.12 -0.14 0.06 12589
0.08 0.48 0.26 -1.02 9.80 0.06 -0.11 0.06 12596
0.13 0.49 0.19 -0.92 9.89 0.06 -0.13 0.06 12603
0.10 0.50 -0.04 -0.74 9.92 0.06 -0.13 0.06 12610
0.15 0.47 -0.02 -0.65 9.92 0.07 -0.10 0.03 12617
0.15 0.44 0.04 -0.59 9.85 0.10 -0.10 0.07 12624
0.18 0.45 0.03 -0.74 9.71 0.12 -0.10 0.07 12632
0.17 0.42 0.02 -0.68 9.81 0.12 -0.10 0.07 12639
0.20 0.40 0.03 -0.64 9.95 0.13 -0.10 0.07 12646
0.24 0.35 0.02 -0.69 9.83 0.15 -0.10 0.07 12653
0.27 0.35 0.01 -0.71 9.85 0.16 -0.10 0.08 12660
0.29 0.32 0.10 -0.69 9.86 0.16 -0.11 0.07 12667
0.29 0.26 0.05 -0.77 9.25 0.17 -0.11 0.07 12675
0.29 0.24 0.05 -0.75 9.77 0.16 -0.11 0.07 12682
0.30 0.21 0.06 -0.77 9.75 0.16 -0.12 0.06 12689
0.31 0.22 0.10 -0.79 9.75 0.15 -0.12 0.05 12696
0.30 0.15 0.06 -0.90 9.75 0.14 -0.11 0.05 12703
0.30 0.11 0.10 -0.90 9.60 0.13 -0.11 0.04 12710
0.30 0.10 0.03 -0.98 9.65 0.12 -0.10 0.03 12718
0.30 0.10 0.06 -0.97 9.69 0.11 -0.09 0.02 12725
0.29 0.04 0.07 -0.91 9.62 0.10 -0.08 0.02 12732
0.30 0.07 0.05 -0.87 9.62 0.09 -0.08 0.01 12739
0.29 0.04 0.11 -0.97 9.69 0.09 -0.08 0.01 12746
0.30 0.02 0.07 -1.01 9.60 0.08 -0.08 0.00 12753
0.28 0.03 0.12 -1.00 9.61 0.07 -0.08 0.00 12761
0.24 0.05 0.01 -1.02 9.59 0.06 -0.07 -0.00 12768
0.27 0.04 0.05 -1.00 9.63 0.06 -0.07 -0.01 12775
0.29 0.02 0.02 -1.00 9.62 0.05 -0.06 -0.01 12782
0.26 0.02 -0.01 -1.03 9.62 0.04 -0.06 -0.01 12789
0.27 0.01 0.01 -1.08 9.57 0.02 -0.04 -0.01 12796
0.26 0.01 0.02 -1.06 9.57 0.01 -0.04 -0.02 12804
0.25 0.01 0.10 -1.05 9.61 0.00 -0.03 -0.02 12811
0.24 0.04 0.01 -1.01 9.75 -0.00 -0.03 -0.02 12818
0.28 0.02 0.01 -1.02 9.72 -0.01 -0.03 -0.02 12825
0.25 0.01 0.00 -0.99 9.70 -0.01 -0.03 -0.03 12832
0.26 -0.00 0.05 -1.01 9.64 -0.01 -0.03 -0.03 12839
0.23 0.02 0.01 -1.07 9.67 -0.02 -0.03 -0.03 12847
0.25 0.03 -0.03 -1.05 9.71 -0.03 -0.02 -0.02 12854
0.25 0.02 -0.03 -1.02 9.68 -0.04 -0.01 -0.02 12861
0.27 0.02 -0.02 -1.01 9.72 -0.05 -0.00 -0.02 12868
0.27 0.01 0.00 -1.05 9.77 -0.05 0.00 -0.02 12875
0.25 0.00 0.00 -1.04 9.66 -0.06 0.00 -0.01 12882
0.25 0.03 0.00 -1.03 9.64 -0.06 0.00 -0.01 12890
0.27 0.03 -0.04 -0.97 9.68 -0.06 0.00 -0.01 12897
0.26 0.04 0.03 -0.99 9.77 -0.06 -0.00 -0.01 12904
0.28 0.02 -0.01 -0.99 9.81 -0.04 -0.01 -0.01 12911
0.28 0.02 0.02 -0.97 9.79 -0.03 -0.01 -0.01 12918
0.25 0.01 -0.01 -0.98 9.73 -0.02 -0.01 -0.02 12925
0.27 0.03 -0.03 -0.95 9.78 -0.01 -0.02 -0.02 12933
0.29 0.06 -0.00 -0.97 9.74 -0.01 -0.01 -0.02 12940
0.33 0.04 -0.03 -0.99 9.77 -0.00 -0.02 -0.02 12947
0.34 0.03 -0.06 -0.98 9.72 -0.00 -0.02 -0.02 12954
0.34 0.02 -0.02 -1.02 9.73 0.00 -0.01 -0.02 12961
0.36 0.04 -0.06 -0.98 9.73 0.00 -0.00 -0.02 12968
0.35 0.05 -0.08 -0.96 9.74 0.02 0.00 -0.02 12976
0.36 0.05 0.55 -1.02 9.80 0.03 0.01 -0.03 12983
0.33 0.02 -0.03 -1.01 9.78 0.04 0.02 -0.03 12990
0.32 0.02 0.00 -0.99 9.87 0.10 0.02 -0.03 12997
0.32 0.04 -0.02 -0.98 9.91 0.10 0.03 -0.03 13004
0.31 0.00 0.06 -0.93 9.98 0.13 0.01 -0.03 13011
0.35 0.01 0.05 -0.93 9.91 0.15 -0.07 -0.03 13019
0.38 0.02 0.01 -0.94 9.81 0.17 -0.08 -0.02 13026
0.39 -0.01 -0.09 -1.12 9.81 0.18 -0.10 -0.04 13033
0.39 -0.01 -0.32 -1.39 9.56 0.19 -0.08 -0.05 13040
0.35 -0.02 -0.09 -1.19 9.84 0.21 -0.05 -0.05 13047
0.34 0.01 -0.03 -1.20 10.15 0.24 -0.04 -0.06 13054
0.36 -0.01 -0.16 -1.19 10.50 0.32 -0.07 -0.06 13063
0.38 -0.01 -0.38 -1.30 11.06 0.43 -0.16 -0.07 13070
0.38 -0.02 -0.34 -1.20 11.81 0.57 -0.34 -0.05 13077
0.38 -0.02 -0.57 -1.25 12.94 0.83 -0.64 -0.02 13084
0.38 -0.04 1.06 -1.60 15.87 1.15 -0.74 -0.03 13090
0.36 -0.02 2.90 -1.99 16.25 1.62 -0.32 -0.17 13099
0.34 -0.02 -0.58 -1.37 15.63 1.99 -0.39 -0.24 13106
0.37 -0.02 1.22 -1.47 14.48 2.21 -0.73 -0.21 13113
0.32 -0.01 1.07 -1.81 15.57 2.48 -0.87 -0.26 13120
0.31 -0.01 1.49 -2.03 16.47 2.76 -1.18 -0.32 13127
0.33 -0.02 3.54 -2.21 16.79 2.98 -1.52 -0.43 13134
0.24 -0.01 4.70 -3.09 16.81 3.18 -1.96 -0.66 13142
0.25 -0.00 5.67 -3.69 16.39 3.31 -2.37 -0.94 13149
0.20 -0.01 5.89 -4.72 16.49 3.42 -2.66 -1.21 13156
0.16 -0.01 8.36 -4.44 15.29 3.38 -2.92 -1.55 13163
0.14 -0.01 8.84 -4.34 15.67 3.37 -2.98 -1.97 13169
0.10 -0.01 8.81 -5.31 15.81 3.29 -3.23 -2.31 13176
0.05 -0.00 9.05 -4.96 16.30 3.17 -3.51 -2.68 13184
0.02 -0.00 8.49 -5.08 17.45 2.92 -3.77 -3.03 13191
0.01 -0.00 7.58 -3.58 17.49 2.66 -4.28 -3.34 13198
0.00 0.00 6.67 -0.86 15.99 2.37 -4.28 -3.54 13205
0.02 -0.00 6.38 1.00 15.02 1.91 -4.28 -3.49 13212
0.00 0.00 8.94 1.56 13.36 1.47 -4.28 -3.19 13219
0.00 0.00 26.06 1.17 8.44 1.17 -4.28 -2.22 13227
-0.00 0.00 24.14 -0.13 17.58 0.92 -4.09 -0.48 13234
0.00 0.00 27.67 3.00 10.02 0.23 -1.56 0.10 13241
0.00 0.00 19.88 3.02 8.90 -0.20 0.37 0.59 13248
0.00 0.00 13.64 2.04 9.90 -0.42 1.23 1.00 13255
0.00 0.00 10.82 1.50 9.71 -0.55 1.32 1.29 13262
0.00 0.00 9.54 2.10 9.15 -0.66 1.18 1.49 13270
0.00 0.00 9.47 2.56 8.86 -0.82 1.15 1.50 13277
0.00 0.00 9.49 2.65 9.12 -1.08 1.35 1.38 13284
0.00 0.00 8.39 2.82 9.15 -1.33 1.69 1.09 13291
0.00 0.00 7.28 2.88 9.53 -1.62 1.97 0.77 13298
0.00 0.00 6.51 2.72 9.81 -1.93 2.29 0.34 13305
0.00 0.00 5.01 2.07 10.19 -2.17 2.55 -0.12 13313
0.00 0.00 4.15 1.42 10.56 -2.36 2.83 -0.52 13320
0.00 0.00 2.30 1.15 10.59 -2.46 3.06 -0.94 13327
0.00 0.00 0.68 1.04 10.90 -2.48 3.26 -1.30 13334
0.00 0.00 -0.75 1.11 10.72 -2.42 3.45 -1.46 13341
0.00 0.00 -1.72 0.93 10.73 -2.35 3.48 -1.57 13348
-0.00 0.00 -2.47 0.47 11.12 -2.25 3.46 -1.58 13356
0.00 0.00 -2.48 -0.36 12.08 -2.14 3.41 -1.48 13363
0.00 0.00 -2.46 -0.86 12.69 -2.09 3.32 -1.31 13370
0.00 0.00 -2.40 -1.59 13.16 -2.00 3.26 -1.11 13377
0.00 0.00 -2.38 -2.28 13.02 -1.90 3.24 -0.85 13384
0.00 0.00 -2.44 -2.62 12.73 -1.78 3.23 -0.62 13391
-0.00 0.00 -2.76 -3.18 12.53 -1.63 3.21 -0.38 13399
0.00 0.00 -2.78 -3.51 12.84 -1.49 3.19 -0.20 13406
0.00 0.00 -2.67 -3.36 13.14 -1.33 3.20 -0.10 13413
0.00 0.00 -3.04 -3.23 13.59 -1.22 3.28 -0.04 13420
0.00 0.00 -3.77 -3.09 14.06 -1.10 3.35 -0.03 13427
0.00 0.00 -4.81 -2.86 14.10 -1.00 3.35 -0.06 13434
-0.00 0.01 -5.73 -2.28 13.97 -0.95 3.23 -0.08 13442
-0.00 0.00 -6.54 -1.78 13.92 -0.91 3.08 -0.10 13449
0.00 0.00 -7.08 -1.12 13.66 -0.88 2.88 -0.07 13456
0.00 0.00 -7.67 -0.67 12.98 -0.86 2.72 0.03 13463
0.00 0.00 -8.17 -0.47 12.64 -0.84 2.54 0.11 13470
0.00 0.00 -8.50 -0.44 12.38 -0.82 2.40 0.23 13477
0.00 0.00 -8.86 -0.35 12.03 -0.80 2.26 0.35 13485
0.00 0.00 -9.17 -0.23 11.64 -0.79 2.11 0.50 13492
0.00 0.00 -9.19 -0.15 11.04 -0.82 1.94 0.66 13499
0.00 0.00 -8.83 0.01 10.56 -0.88 1.72 0.78 13506
0.00 0.00 -8.38 0.17 9.80 -0.95 1.48 0.92 13513
0.00 0.00 -7.68 0.09 9.15 -1.03 1.27 1.02 13520
0.00 0.00 -6.38 -0.46 8.60 -1.11 1.06 1.06 13528
-0.00 0.00 -5.37 -1.34 8.23 -1.19 0.97 0.97 13535
0.00 0.00 -4.83 -2.28 7.90 -1.29 0.96 0.81 13542
0.00 0.00 -4.57 -3.45 7.57 -1.36 0.95 0.52 13549
0.00 0.00 -4.26 -4.16 7.23 -1.42 0.93 0.25 13556
-0.00 0.00 -4.25 -4.74 6.87 -1.43 0.89 -0.02 13563
0.00 0.00 -4.39 -5.25 6.57 -1.39 0.85 -0.21 13571
0.00 0.00 -4.61 -5.76 6.38 -1.29 0.82 -0.29 13578
-0.00 0.00 -4.57 -6.35 6.00 -1.12 0.79 -0.30 13585
0.00 0.00 -4.41 -6.89 5.67 -0.95 0.80 -0.25 13592
-0.00 0.00 -3.77 -6.67 5.47 -0.73 0.83 -0.13 13599
-0.00 0.02 -2.83 -5.64 5.59 -0.60 0.93 0.03 13606
0.01 0.01 -22.40 -18.27 6.23 0.02 -0.76 0.36 13615
-0.00 0.02 -43.15 -17.91 0.71 0.64 -4.28 1.76 13622
0.01 0.02 -7.80 -25.55 9.38 1.16 -4.28 2.40 13629
-0.01 0.09 -45.96 -4.70 64.45 3.12 -4.28 3.61 13636
-0.07 0.68 -35.50 -4.97 34.91 2.82 -0.78 4.28 13643
-0.08 0.81 -25.22 -1.63 25.97 2.55 -0.91 2.90 13650
-0.05 0.84 -16.93 -2.96 15.68 1.92 -1.70 0.44 13658
-0.05 0.80 -3.16 -2.17 11.63 1.59 -1.24 -0.66 13665
-0.04 0.71 8.54 0.95 7.66 1.56 -0.44 -0.26 13671
-0.07 0.66 2.06 0.06 13.54 0.65 -0.31 0.67 13678
-0.03 0.66 -2.44 -2.97 14.51 -0.12 -0.67 0.35 13686
0.02 0.69 -2.34 -3.61 8.52 0.01 -0.50 0.10 13692
0.04 0.63 -0.39 -1.41 9.34 -0.12 -0.20 0.04 13700
0.05 0.67 -0.13 -0.85 10.50 -0.09 -0.16 0.03 13707
0.08 0.64 -0.45 -0.61 10.09 -0.00 -0.13 0.04 13714
0.10 0.63 -0.09 -1.20 9.59 0.01 -0.10 0.05 13721
0.14 0.60 0.04 -1.14 9.78 -0.01 -0.08 0.05 13728
0.17 0.57 0.05 -0.98 10.07 -0.01 -0.09 0.04 13735
0.20 0.56 -0.03 -0.82 10.01 0.01 -0.10 0.04 13743
0.23 0.57 -0.24 -0.74 9.91 0.04 -0.09 0.05 13750
0.24 0.53 -0.23 -0.72 9.67 0.04 -0.07 0.05 13757
0.22 0.48 -0.14 -0.63 9.85 0.04 -0.05 0.06 13764
0.26 0.51 -0.22 -0.61 10.02 0.06 -0.04 0.06 13771
0.25 0.48 -0.09 -1.22 9.91 0.11 -0.04 0.06 13778
0.25 0.41 -0.12 -0.63 9.94 0.14 -0.04 0.06 13786
0.27 0.35 -0.06 -0.60 9.88 0.16 -0.04 0.05 13793
0.27 0.27 -0.14 -0.68 9.83 0.17 -0.05 0.05 13800
0.27 0.29 -0.20 -0.72 9.79 0.19 -0.04 0.05 13807
0.28 0.25 -0.27 -0.79 9.79 0.19 -0.03 0.05 13814
0.31 0.22 -0.19 -0.75 9.82 0.20 -0.02 0.04 13821
0.31 0.14 -0.18 -0.82 9.76 0.20 -0.02 0.04 13829
0.31 0.14 -0.15 -0.94 9.68 0.18 -0.00 0.04 13836
0.29 0.11 0.00 -0.93 9.63 0.17 0.01 0.03 13843
0.30 0.09 -0.08 -0.96 9.73 0.16 0.02 0.03 13850
0.32 0.03 -0.01 -0.98 9.66 0.13 0.03 0.02 13857
0.33 0.01 0.05 -0.95 9.65 0.13 0.04 0.01 13864
0.31 0.01 0.04 -0.98 9.74 0.12 0.04 0.01 13872
0.31 -0.00 -0.01 -0.98 9.64 0.11 0.04 0.01 13879
0.30 0.02 0.06 -1.05 9.61 0.09 0.05 0.00 13886
0.29 0.01 0.03 -1.05 9.71 0.08 0.05 -0.00 13893
0.30 0.03 0.04 -1.03 9.72 0.08 0.05 -0.00 13900
0.31 -0.00 0.09 -1.03 9.70 0.07 0.05 -0.01 13907
0.29 0.01 0.11 -1.04 9.70 0.06 0.05 -0.01 13915
0.29 0.01 0.07 -1.08 9.66 0.06 0.05 -0.01 13922
0.28 0.02 0.05 -1.08 9.65 0.04 0.05 -0.02 13929
0.29 0.02 0.02 -1.08 9.64 0.00 0.05 -0.02 13936
0.29 0.01 0.06 -1.10 9.54 0.02 0.06 -0.02 13943
0.28 0.00 0.05 -1.12 9.60 0.00 0.06 -0.02 13950
0.27 0.01 0.08 -1.11 9.60 -0.01 0.06 -0.02 13958
0.25 -0.00 0.11 -1.09 9.62 -0.02 0.05 -0.02 13965
0.25 0.01 0.12 -1.07 9.68 -0.02 0.05 -0.02 13972
0.24 0.02 0.08 -1.01 9.72 -0.02 0.04 -0.02 13979
0.26 -0.01 0.07 -1.03 9.70 -0.02 0.03 -0.02 13986
0.26 -0.01 0.11 -1.06 9.72 -0.02 0.03 -0.02 13993
0.26 -0.01 0.07 -1.04 9.76 -0.02 0.02 -0.03 14001
0.25 -0.01 0.03 -1.07 9.79 -0.02 0.02 -0.03 14008
0.25 0.00 0.05 -1.08 9.70 -0.03 0.02 -0.03 14015
0.25 0.01 0.00 -1.05 9.66 -0.04 0.02 -0.03 14022
0.25 -0.00 0.06 -1.02 9.69 -0.04 0.03 -0.02 14029
0.23 0.01 0.04 -1.00 9.73 -0.02 0.02 -0.03 14036
0.24 -0.01 0.08 -1.01 9.72 -0.01 0.02 -0.03 14044
0.22 0.01 0.03 -0.99 9.70 -0.01 0.01 -0.04 14051
0.24 0.01 0.05 -1.03 9.76 0.01 0.00 -0.03 14058
0.24 0.01 0.05 -1.05 9.74 0.01 -0.00 -0.04 14065
0.28 -0.01 -0.02 -1.08 9.77 0.01 -0.01 -0.04 14072
0.28 -0.01 0.03 -1.05 9.83 0.02 -0.01 -0.04 14080
0.27 -0.01 0.03 -1.09 9.80 0.02 -0.01 -0.04 14087
0.28 -0.00 -0.01 -1.09 10.42 0.02 -0.01 -0.04 14094
0.29 -0.00 0.06 -1.10 9.78 0.06 -0.01 -0.03 14101
0.30 -0.00 0.12 -1.03 9.77 0.04 -0.02 -0.03 14108
0.32 -0.01 0.01 -1.06 9.81 0.05 -0.03 -0.04 14115
0.31 -0.00 0.03 -1.06 9.79 0.05 -0.04 -0.04 14123
0.31 -0.03 -0.01 -1.07 9.87 0.06 -0.05 -0.04 14130
0.31 -0.01 -0.18 -1.06 9.81 0.08 -0.05 -0.04 14137
0.34 -0.01 -0.09 -1.13 9.82 0.09 -0.05 -0.03 14144
0.39 0.00 -0.15 -1.02 9.81 0.11 -0.03 -0.03 14151
0.37 -0.00 0.00 -1.14 9.81 0.12 -0.01 -0.03 14158
0.36 -0.02 -0.16 -1.09 9.84 0.14 -0.01 -0.02 14166
0.37 -0.02 0.01 -1.17 9.83 0.16 -0.00 -0.03 14173
0.35 0.00 0.09 -1.18 9.88 0.18 -0.02 -0.03 14180
0.36 0.01 -0.02 -1.19 10.03 0.20 -0.06 -0.03 14187
0.40 -0.03 0.00 -1.24 10.09 0.26 -0.11 -0.03 14194
0.42 -0.03 -0.23 -1.24 10.13 0.28 -0.15 -0.00 14202
0.43 -0.04 -0.11 -1.29 10.31 0.33 -0.21 -0.03 14209
0.41 -0.02 -0.43 -1.32 10.76 0.39 -0.25 -0.02 14217
0.43 -0.02 -0.08 -1.46 10.68 0.49 -0.33 -0.01 14224
0.42 -0.02 0.36 -1.55 11.48 0.62 -0.22 -0.04 14231
0.41 -0.03 0.27 -1.57 11.92 0.76 -0.09 -0.08 14238
0.42 -0.03 0.09 -1.60 12.45 0.93 -0.14 -0.08 14244
0.43 -0.03 0.34 -1.58 13.32 1.09 -0.25 -0.09 14253
0.40 -0.02 0.25 -1.72 14.23 1.32 -0.34 -0.11 14260
0.37 -0.03 0.33 -1.86 14.98 1.64 -0.53 -0.11 14267
0.37 -0.02 0.43 -1.92 14.57 1.91 -0.74 -0.14 14274
0.40 -0.03 1.05 -1.97 14.40 2.20 -0.98 -0.18 14281
0.35 -0.03 1.94 -1.93 14.47 2.42 -1.18 -0.27 14288
0.31 -0.03 1.95 -2.14 15.33 2.67 -1.34 -0.40 14296
0.31 -0.02 1.58 -2.29 16.26 2.94 -1.48 -0.48 14303
0.29 -0.01 0.88 -2.81 17.39 3.20 -1.76 -0.54 14310
0.27 -0.01 2.40 -3.35 17.33 3.49 -2.11 -0.61 14317
0.20 -0.02 3.81 -3.84 17.62 3.69 -2.54 -0.79 14324
0.17 -0.02 4.65 -4.42 18.56 3.72 -2.89 -0.99 14330
0.11 -0.01 6.35 -5.00 18.14 3.70 -3.33 -1.25 14338
0.04 -0.00 8.46 -5.95 18.99 3.64 -3.56 -1.60 14345
0.05 -0.00 8.63 -6.02 19.63 3.40 -3.87 -1.92 14352
0.04 -0.00 7.43 -5.59 19.87 2.99 -4.22 -2.26 14359
0.02 -0.00 6.74 -3.32 17.93 2.56 -4.28 -2.45 14366
0.00 0.00 6.39 -0.68 15.36 2.19 -4.28 -2.51 14373
0.00 0.00 6.92 0.13 13.23 1.86 -4.28 -2.32 14381
0.00 0.00 11.24 -0.97 12.04 1.55 -4.28 -1.86 14388
-0.00 0.00 22.74 -1.54 8.33 1.55 -4.28 -0.13 14395
0.00 0.00 22.99 0.36 15.41 1.08 -4.28 1.29 14402
0.00 0.00 26.30 1.21 8.91 0.24 -2.47 1.90 14409
0.00 0.00 20.52 0.58 8.73 -0.13 -0.38 2.36 14416
0.00 0.00 15.34 -0.17 9.76 -0.36 0.67 2.51 14424
0.00 0.00 11.59 -0.21 8.85 -0.36 1.10 2.54 14431
-0.00 0.01 9.74 0.66 8.29 -0.30 1.19 2.46 14438
0.00 0.00 8.62 1.64 8.30 -0.34 1.23 2.32 14445
0.00 0.00 7.85 2.16 8.74 -0.48 1.38 2.12 14452
0.00 0.00 6.55 2.59 9.13 -0.69 1.52 1.92 14459
0.00 0.00 5.49 2.92 9.42 -0.93 1.65 1.65 14467
0.00 0.00 4.75 3.00 9.59 -1.14 1.74 1.37 14474
0.00 0.00 3.64 3.03 9.81 -1.35 1.82 1.12 14481
0.00 0.00 2.93 3.04 9.89 -1.50 1.92 0.81 14488
0.00 0.00 2.68 2.99 10.19 -1.68 2.05 0.55 14495
0.00 0.00 1.89 3.12 10.40 -1.85 2.25 0.24 14502
0.00 0.00 0.81 2.90 10.97 -1.99 2.47 -0.05 14510
0.00 0.00 -0.54 2.82 11.46 -2.14 2.67 -0.28 14517
0.00 0.00 -1.53 2.62 11.78 -2.27 2.72 -0.53 14524
0.00 0.00 -1.94 2.33 11.72 -2.43 2.69 -0.71 14531
0.00 0.00 -2.06 1.95 11.68 -2.54 2.64 -0.86 14538
0.00 0.00 -1.95 1.31 11.60 -2.58 2.60 -0.98 14545
0.00 0.00 -1.62 0.91 11.52 -2.59 2.57 -1.04 14553
-0.00 0.00 -1.23 0.55 11.56 -2.56 2.61 -1.09 14560
0.00 -0.00 -1.19 0.39 11.75 -2.52 2.68 -1.09 14567
0.00 0.00 -1.32 0.23 11.84 -2.45 2.77 -1.07 14574
0.00 0.00 -1.48 0.12 12.10 -2.40 2.83 -1.05 14581
0.00 0.00 -1.52 -0.04 12.17 -2.36 2.87 -1.03 14588
-0.00 0.00 -1.46 -0.21 12.47 -2.33 2.89 -1.03 14596
-0.00 0.01 -1.43 -0.44 12.72 -2.32 2.93 -1.03 14603
-0.00 0.01 -1.71 -0.43 12.67 -2.31 2.99 -1.02 14610
-0.00 0.01 -2.02 -0.91 13.03 -2.30 3.04 -1.01 14617
0.00 0.00 -2.25 -1.02 13.23 -2.29 3.06 -1.01 14624
0.00 0.00 -2.60 -1.14 13.39 -2.29 3.07 -1.02 14631
0.00 0.00 -3.67 -1.33 13.40 -2.29 3.08 -1.04 14639
0.00 0.00 -3.99 -1.57 13.42 -2.28 3.07 -1.08 14646
0.00 0.00 -4.79 -1.82 13.28 -2.21 3.06 -1.16 14653
0.00 0.00 -5.58 -1.91 12.87 -2.19 3.04 -1.27 14660
0.00 0.00 -6.51 -2.02 12.60 -2.13 3.03 -1.34 14667
0.00 0.00 -7.44 -2.04 12.12 -2.07 3.00 -1.43 14674
0.00 0.00 -8.35 -2.08 11.69 -2.01 2.93 -1.50 14682
-0.00 0.00 -9.07 -2.17 11.33 -1.94 2.81 -1.51 14689
0.00 0.00 -9.14 -2.29 10.92 -1.90 2.70 -1.46 14696
0.00 0.00 -9.09 -2.67 10.78 -1.85 2.54 -1.31 14703
0.00 0.00 -9.32 -3.64 10.85 -1.82 2.38 -1.08 14710
0.00 0.00 -9.82 -4.56 10.42 -1.78 2.24 -0.82 14717
0.00 0.00 -10.47 -6.02 10.09 -1.71 2.03 -0.48 14725
0.00 0.00 -11.14 -7.63 9.84 -1.60 1.81 -0.15 14732
0.00 0.00 -11.57 -8.69 9.61 -1.43 1.54 0.12 14739
0.00 0.00 -11.68 -9.32 9.20 -1.28 1.32 0.39 14746
0.00 0.00 -12.01 -9.39 8.99 -1.12 1.14 0.59 14753
0.00 0.00 -12.26 -8.90 8.71 -0.98 0.92 0.79 14760
0.01 0.04 -54.55 -31.71 24.05 -0.07 -2.92 1.15 14769
0.01 0.03 -49.21 -28.33 0.54 0.65 -4.28 1.99 14776
0.01 0.04 -17.67 -30.85 8.06 1.27 -4.28 1.93 14783
-0.00 0.05 -22.42 -20.87 27.64 2.54 -4.28 2.11 14790
-0.04 0.42 -35.17 -7.80 41.39 3.45 -2.67 2.64 14797
-0.07 0.74 -19.33 3.12 25.66 2.54 -1.45 1.54 14804
-0.05 0.75 -11.43 -3.18 20.42 2.07 -1.56 0.09 14812
-0.06 0.75 0.42 -4.15 18.48 1.08 -1.22 -0.37 14819
-0.05 0.61 4.34 0.12 9.88 0.48 -0.69 0.27 14825
-0.00 0.53 1.62 -1.13 10.62 0.30 -0.63 0.45 14833
-0.04 0.50 -0.87 -0.20 8.91 0.11 -0.78 0.21 14839
0.03 0.45 -1.86 -1.89 8.66 -0.00 -0.56 0.08 14846
0.11 0.44 -1.03 -2.32 10.04 -0.09 -0.28 0.05 14855
0.09 0.46 -0.08 -1.23 10.95 -0.03 -0.21 0.02 14861
0.09 0.47 -0.44 -0.54 10.21 0.12 -0.21 0.02 14869
0.13 0.40 -0.40 -1.21 9.48 0.12 -0.17 0.04 14875
0.15 0.46 -0.19 -1.46 9.80 0.05 -0.12 0.04 14882
0.17 0.40 -0.24 -1.26 9.96 0.02 -0.09 0.04 14889
0.19 0.36 0.03 -1.02 9.92 0.01 -0.06 0.05 14897
0.24 0.37 0.10 -0.96 9.87 0.00 -0.06 0.05 14904
0.30 0.33 -0.10 -0.96 9.92 0.01 -0.06 0.05 14911
0.33 0.33 -0.16 -0.93 9.87 0.02 -0.05 0.05 14918
0.34 0.32 -0.10 -0.76 9.96 0.03 -0.05 0.05 14925
0.35 0.29 -0.07 -0.76 10.09 0.06 -0.05 0.05 14932
0.38 0.30 -0.09 -0.84 9.95 0.10 -0.05 0.06 14940
0.37 0.27 -0.06 -0.82 9.87 0.13 -0.06 0.05 14947
0.40 0.19 -0.09 -0.85 9.89 0.15 -0.07 0.05 14954
0.40 0.17 -0.16 -0.88 9.96 0.17 -0.07 0.05 14961
0.41 0.14 -0.16 -0.90 9.80 0.17 -0.07 0.05 14968
0.41 0.11 -0.06 -0.88 9.77 0.16 -0.07 0.05 14976
0.42 0.07 -0.05 -0.98 9.62 0.14 -0.06 0.05 14983
0.43 0.02 -0.03 -0.96 9.73 0.13 -0.06 0.04 14990
0.42 0.02 -0.14 -1.08 9.75 0.12 -0.05 0.04 14997
0.39 0.01 -0.06 -1.12 9.58 0.10 -0.04 0.03 15004
0.39 -0.01 0.00 -1.11 9.62 0.08 -0.03 0.03 15011
0.39 0.00 -0.03 -1.05 9.65 0.07 -0.02 0.03 15019
0.36 0.00 0.02 -1.07 9.59 0.05 -0.00 0.02 15026
0.33 0.00 0.01 -1.13 9.59 0.04 0.01 0.01 15033
0.31 0.00 0.01 -1.08 9.57 0.02 0.02 0.01 15040
0.30 0.01 0.04 -1.10 9.61 0.02 0.02 -0.00 15047
0.28 0.01 0.06 -1.14 9.59 0.00 0.02 -0.01 15054
0.27 0.03 0.06 -1.08 9.55 -0.01 0.02 -0.01 15062
0.25 0.02 0.06 -1.06 9.64 -0.01 0.02 -0.02 15069
0.26 0.01 -0.01 -1.08 9.68 -0.01 0.02 -0.02 15076
0.24 0.00 -0.61 -1.10 9.63 -0.02 0.02 -0.02 15083
0.22 0.02 -0.02 -1.08 9.65 -0.02 0.02 -0.02 15090
0.19 0.02 -0.01 -1.09 9.61 -0.03 0.01 -0.01 15097
0.21 0.01 0.00 -1.11 9.65 -0.04 0.01 -0.02 15105
0.22 0.01 0.04 -1.10 9.66 -0.04 0.01 -0.02 15112
0.22 0.00 0.04 -1.10 9.71 -0.05 0.00 -0.02 15119
0.20 0.03 -0.01 -1.07 9.70 -0.04 -0.00 -0.02 15126
0.19 0.03 -0.01 -1.04 9.74 -0.04 -0.00 -0.03 15133
0.18 0.04 -0.00 -1.03 9.70 -0.04 -0.01 -0.03 15140
0.20 0.03 -0.01 -1.07 9.70 -0.04 -0.02 -0.03 15148
0.20 0.03 -0.01 -1.02 9.71 -0.03 -0.02 -0.02 15155
0.21 0.00 -0.05 -1.08 9.72 -0.03 -0.02 -0.03 15162
0.19 0.02 -0.02 -1.05 9.67 -0.03 -0.02 -0.03 15169
0.21 0.03 -0.02 -1.05 9.71 -0.03 -0.03 -0.03 15176
0.20 0.03 -0.09 -1.05 9.72 -0.02 -0.03 -0.03 15183
0.21 0.03 -0.10 -1.05 9.73 -0.02 -0.03 -0.03 15191
0.22 0.02 -0.05 -1.06 9.76 -0.02 -0.03 -0.03 15198
0.25 0.01 -0.06 -1.04 9.77 -0.00 -0.03 -0.03 15205
0.27 0.04 -0.04 -1.07 9.82 0.01 -0.04 -0.04 15212
0.25 0.01 -0.09 -1.12 9.73 0.01 -0.04 -0.04 15219
0.27 0.00 -0.08 -1.08 9.67 0.02 -0.05 -0.04 15226
0.27 -0.00 -0.07 -1.11 9.82 0.02 -0.04 -0.04 15234
0.26 0.01 -0.10 -1.12 9.78 0.02 -0.04 -0.05 15241
0.27 0.03 -0.13 -1.12 9.83 0.03 -0.03 -0.05 15248
0.25 0.00 -0.15 -1.08 9.79 0.04 -0.02 -0.05 15255
0.20 0.02 -0.21 -1.09 9.77 0.05 -0.02 -0.05 15262
0.28 0.01 -0.11 -1.10 9.86 0.08 -0.01 -0.05 15269
0.29 0.01 -0.13 -1.04 9.99 0.10 -0.02 -0.05 15277
0.33 0.00 -0.16 -1.02 10.08 0.13 -0.04 -0.05 15284
0.34 -0.00 -0.30 -0.97 10.13 0.16 -0.08 -0.04 15291
0.31 0.01 -0.37 -1.22 10.31 0.20 -0.14 -0.03 15299
0.30 -0.01 -0.39 -0.93 10.59 0.25 -0.20 -0.03 15305
0.31 -0.01 -0.40 -1.12 11.24 0.32 -0.32 -0.02 15313
0.36 -0.01 -1.12 -1.27 12.76 0.42 -0.64 0.01 15321
0.41 -0.02 -1.35 -1.22 15.16 0.65 -1.22 0.05 15328
0.37 -0.02 -2.02 -0.99 17.40 0.99 -2.01 0.12 15335
0.31 -0.02 2.96 -1.92 18.45 1.39 -2.38 0.13 15342
0.37 -0.02 4.19 -2.09 16.32 1.88 -1.86 -0.14 15349
0.34 -0.02 0.79 -1.51 17.39 2.15 -2.20 -0.29 15356
0.36 -0.02 1.52 -1.86 17.32 2.43 -2.64 -0.34 15364
0.35 -0.03 2.39 -2.32 18.99 2.73 -2.86 -0.51 15371
0.24 -0.00 0.80 -2.44 20.37 2.96 -3.26 -0.65 15378
0.19 -0.01 1.99 -2.20 20.22 3.22 -3.77 -0.74 15385
0.17 -0.01 3.11 -2.18 20.39 3.41 -4.18 -0.87 15392
0.14 -0.01 3.26 -2.27 19.19 3.57 -4.28 -1.03 15399
0.09 -0.01 3.71 -3.21 20.58 3.58 -4.28 -1.15 15406
0.11 0.00 5.64 -3.44 20.68 3.47 -4.28 -1.32 15414
0.09 0.00 7.01 -3.03 19.43 3.36 -4.28 -1.49 15421
0.05 -0.00 7.59 -1.54 18.80 3.23 -4.28 -1.62 15428
0.02 0.01 7.25 -1.68 18.90 2.88 -4.28 -1.63 15434
0.02 0.01 9.56 -1.51 18.00 2.36 -4.28 -1.43 15442
0.00 -0.00 16.38 -5.10 14.45 2.01 -4.28 -0.67 15449
0.00 0.00 21.63 -1.73 13.08 1.98 -4.28 0.93 15456
0.00 0.00 27.57 0.92 14.85 1.02 -1.92 1.77 15463
0.00 0.00 20.66 -0.45 12.35 0.42 -0.02 2.20 15470
0.00 0.00 12.32 -0.71 10.60 0.09 0.84 2.35 15477
0.00 0.00 8.73 -0.60 10.02 0.04 0.87 2.30 15484
0.00 0.00 8.10 -0.32 9.35 0.07 0.62 2.12 15492
0.00 0.00 8.67 0.81 8.90 0.03 0.54 1.77 15499
0.00 0.00 9.41 1.64 9.07 -0.16 0.75 1.30 15506
0.00 0.00 9.30 2.12 9.05 -0.41 1.19 0.83 15513
0.00 0.00 8.14 2.40 9.07 -0.64 1.64 0.26 15520
0.00 0.00 6.96 2.59 8.83 -0.87 1.92 -0.21 15527
0.00 0.00 6.04 2.62 8.72 -1.06 2.17 -0.72 15535
0.00 0.00 5.66 2.22 8.79 -1.20 2.38 -1.14 15542
-0.00 0.00 5.23 1.89 9.14 -1.32 2.67 -1.44 15549
0.00 0.00 4.30 1.78 9.77 -1.38 3.03 -1.70 15556
0.00 0.00 3.36 1.83 10.38 -1.43 3.34 -1.85 15563
0.00 0.00 2.12 2.01 10.66 -1.44 3.65 -1.90 15570
0.00 0.00 0.84 2.32 11.16 -1.44 3.88 -1.84 15578
0.00 0.00 -0.23 2.39 11.92 -1.41 4.02 -1.70 15585
0.00 0.00 -1.37 2.37 12.68 -1.41 4.10 -1.46 15592
0.00 0.00 -2.34 2.27 13.33 -1.44 4.07 -1.17 15599
0.00 0.00 -3.16 2.05 13.50 -1.50 3.92 -0.90 15606
0.00 0.00 -3.76 1.72 13.57 -1.57 3.69 -0.63 15613
0.00 0.00 -3.77 1.56 13.46 -1.65 3.47 -0.43 15621
0.00 0.00 -3.08 1.41 13.37 -1.71 3.28 -0.27 15628
0.00 0.00 -2.63 1.17 13.50 -1.78 3.23 -0.16 15635
0.00 0.00 -2.40 0.74 13.43 -1.86 3.28 -0.10 15642
0.00 0.00 -2.80 0.33 13.13 -1.91 3.33 -0.02 15649
0.00 0.00 -3.05 0.08 13.01 -1.94 3.30 0.09 15656
0.00 0.00 -3.13 -0.17 12.96 -1.95 3.23 0.25 15664
0.00 0.00 -2.89 -0.34 12.75 -1.95 3.18 0.44 15671
0.00 0.00 -2.64 -0.29 12.64 -1.94 3.16 0.62 15678
0.00 0.00 -2.64 -0.39 12.39 -1.94 3.15 0.85 15685
0.00 0.00 -2.79 -0.42 12.29 -1.95 3.13 1.04 15692
0.00 0.00 -3.24 -0.54 12.32 -1.96 3.06 1.25 15699
0.00 0.00 -3.59 -0.73 12.20 -1.98 2.92 1.42 15707
-0.00 0.00 -3.77 -0.86 11.95 -2.01 2.85 1.51 15714
0.00 0.00 -4.50 -1.24 12.13 -2.06 2.79 1.53 15721
0.00 0.00 -5.48 -2.41 12.50 -2.13 2.73 1.49 15728
0.00 0.00 -6.53 -2.52 12.44 -2.19 2.63 1.37 15735
0.00 0.00 -7.68 -3.32 12.52 -2.25 2.51 1.16 15742
0.00 0.00 -8.96 -4.05 11.67 -2.31 2.44 0.92 15750
0.00 0.00 -9.95 -5.06 11.98 -2.34 2.29 0.56 15757
0.00 0.00 -10.72 -6.62 11.56 -2.37 2.15 0.19 15764
0.00 0.00 -11.17 -7.00 11.27 -2.37 1.96 -0.08 15771
0.00 0.00 -11.42 -8.13 10.52 -2.34 1.77 -0.32 15778
-0.00 0.00 -11.60 -8.95 9.61 -2.24 1.61 -0.41 15785
-0.00 0.00 -11.49 -9.70 8.91 -2.06 1.37 -0.41 15793
-0.00 0.00 -11.30 -10.54 8.50 -1.83 1.16 -0.30 15801
0.00 0.00 -11.05 -11.32 8.46 -1.54 0.99 -0.16 15807
-0.00 0.00 -11.20 -11.98 8.22 -1.27 0.87 0.03 15814
-0.00 0.00 -11.67 -12.20 7.93 -1.04 0.73 0.22 15821
-0.00 0.01 -11.78 -11.73 8.02 -0.83 0.52 0.37 15828
-0.00 0.01 -11.56 -10.83 7.65 -0.69 0.37 0.53 15837
-0.00 0.00 -11.56 -9.88 6.99 -0.56 0.18 0.66 15843
-0.00 0.02 -10.93 -8.40 6.37 -0.42 0.00 0.76 15850
-0.00 0.01 -10.04 -6.37 5.99 -0.35 -0.06 0.83 15857
0.00 0.00 -9.11 -5.01 5.66 -0.32 -0.06 0.88 15864
0.00 0.00 -8.98 -3.37 4.79 -0.36 -0.05 0.95 15872
0.01 0.04 -67.74 -38.23 18.15 1.76 -4.28 1.62 15880
0.01 0.13 -3.02 11.26 -13.02 1.78 -4.28 0.81 15887
-0.02 0.51 -15.47 4.62 47.65 4.11 -4.28 1.02 15894
-0.08 1.03 -14.11 1.05 34.48 4.28 -3.23 1.50 15901
-0.09 1.01 -11.33 -7.84 29.27 4.28 -2.03 1.87 15908
-0.06 0.97 -11.88 -5.63 21.05 4.28 -1.31 1.37 15916
-0.05 0.84 -1.43 -4.53 32.60 4.07 -1.00 0.81 15923
-0.01 0.63 -5.33 -0.11 12.63 0.31 -0.95 0.42 15930
-0.01 0.63 -0.96 -5.96 8.62 -0.04 -0.65 0.09 15936
0.01 0.57 1.10 1.36 9.59 0.23 -0.48 0.15 15943
0.05 0.51 0.63 0.51 7.98 0.21 -0.54 0.08 15950
0.07 0.48 -1.85 -3.16 9.31 0.08 -0.43 0.04 15958
0.07 0.50 -0.87 -1.41 9.90 0.02 -0.20 0.02 15965
0.13 0.44 -0.34 -0.47 10.07 0.04 -0.11 0.03 15972
0.20 0.44 0.24 -1.09 10.29 0.07 -0.09 0.03 15979
0.19 0.44 0.04 -1.06 9.82 0.07 -0.08 0.04 15986
0.21 0.39 -0.16 -1.20 9.74 0.03 -0.06 0.04 15993
0.20 0.38 -0.03 -0.82 9.72 -0.01 -0.03 0.04 16001
0.22 0.36 -0.01 -0.80 9.86 -0.04 -0.02 0.04 16008
0.21 0.36 -0.15 -0.70 9.81 -0.04 -0.01 0.05 16015
0.22 0.37 -0.15 -0.69 9.77 -0.04 -0.01 0.05 16022
0.23 0.37 -0.03 -0.68 9.83 -0.05 0.01 0.05 16029
0.23 0.38 -0.09 -0.64 9.94 -0.00 0.00 0.05 16036
0.24 0.38 -0.17 -0.68 9.82 -0.01 0.00 0.05 16044
0.24 0.38 -0.17 -0.65 9.82 0.00 0.01 0.05 16051
0.23 0.40 -0.06 -0.63 9.82 0.01 0.01 0.06 16058
0.23 0.40 -0.13 -0.69 9.85 0.02 0.02 0.05 16065
0.20 0.39 -0.06 -0.71 9.82 0.03 0.02 0.06 16072
0.21 0.34 -0.10 -0.72 9.81 0.04 0.02 0.04 16079
0.17 0.33 -0.04 -0.76 9.74 0.04 0.03 0.04 16087
0.15 0.33 -0.03 -0.74 9.70 0.04 0.04 0.04 16094
0.15 0.34 -0.02 -0.74 9.72 0.03 0.04 0.03 16101
0.13 0.29 0.00 -0.77 9.64 0.03 0.04 0.03 16108
0.14 0.30 0.01 -0.77 9.67 0.02 0.05 0.02 16115
0.11 0.34 0.00 -0.77 9.67 0.01 0.05 0.02 16122
0.10 0.35 0.07 -0.75 9.64 0.01 0.05 0.02 16130
0.11 0.34 0.11 -0.77 9.72 0.00 0.04 0.01 16137
0.09 0.32 0.09 -0.77 9.64 0.00 0.03 0.01 16144
0.11 0.29 0.12 -0.72 9.63 0.00 0.01 0.00 16151
0.10 0.29 0.11 -0.75 9.60 -0.00 0.00 -0.00 16158
0.11 0.31 0.17 -0.75 9.60 -0.01 -0.02 -0.01 16165
0.11 0.33 0.16 -0.77 9.58 -0.01 -0.02 -0.01 16173
0.07 0.33 0.08 -0.75 9.64 -0.01 -0.04 -0.01 16180
0.06 0.34 0.11 -0.79 9.66 -0.00 -0.05 -0.01 16187
0.08 0.33 0.05 -0.76 9.53 0.00 -0.06 -0.02 16194
0.07 0.33 0.03 -0.78 9.62 0.00 -0.07 -0.02 16201
0.08 0.33 0.01 -0.79 9.75 0.00 -0.08 -0.02 16208
0.07 0.32 0.03 -0.79 9.76 0.00 -0.08 -0.01 16216
0.06 0.30 -0.02 -0.83 9.70 -0.01 -0.08 -0.01 16223
0.07 0.31 0.00 -0.80 9.73 -0.01 -0.08 -0.01 16230
0.09 0.30 -0.03 -0.83 9.79 -0.01 -0.09 -0.01 16237
0.05 0.32 -0.12 -0.79 9.71 -0.01 -0.08 -0.01 16244
0.05 0.32 -0.05 -0.82 9.69 -0.00 -0.08 -0.02 16251
0.08 0.30 -0.06 -0.80 9.66 0.00 -0.08 -0.01 16259
0.08 0.29 -0.13 -0.81 9.73 -0.00 -0.07 -0.01 16266
0.07 0.29 -0.14 -0.83 9.72 -0.01 -0.06 -0.01 16273
0.07 0.30 -0.09 -0.85 9.75 -0.01 -0.05 -0.01 16280
0.08 0.30 -0.15 -0.82 9.75 -0.01 -0.05 -0.01 16287
0.09 0.29 -0.14 -0.78 9.72 -0.00 -0.04 -0.01 16294
0.10 0.28 -0.15 -0.82 9.71 -0.01 -0.04 -0.01 16302
0.11 0.29 -0.08 -0.81 9.79 -0.00 -0.02 -0.01 16309
0.11 0.26 -0.11 -0.81 9.75 -0.00 -0.02 -0.01 16316
0.14 0.27 -0.15 -0.83 9.76 -0.01 -0.01 -0.01 16323
0.11 0.27 -0.11 -0.81 9.70 -0.01 -0.00 -0.01 16330
0.10 0.28 -0.13 -0.86 9.75 -0.01 -0.00 -0.01 16337
0.13 0.28 -0.17 -0.83 9.76 -0.00 -0.00 -0.01 16345
0.14 0.27 -0.14 -0.84 9.67 0.00 -0.01 -0.02 16352
0.17 0.25 -0.16 -0.81 9.69 0.01 -0.01 -0.02 16359
0.19 0.25 -0.11 -0.88 9.73 0.01 -0.01 -0.02 16366
0.21 0.22 -0.08 -0.81 9.65 0.01 -0.02 -0.02 16373
0.22 0.23 -0.15 -0.81 9.70 0.01 -0.02 -0.03 16380
0.18 0.22 -0.05 -0.80 9.68 0.02 -0.02 -0.03 16388
0.23 0.21 -0.10 -0.85 9.75 0.04 -0.02 -0.03 16395
0.21 0.18 -0.10 -0.82 9.72 0.06 -0.02 -0.03 16402
0.24 0.21 -0.19 -0.85 9.80 0.08 -0.01 -0.04 16409
0.23 0.17 -0.14 -0.84 9.85 0.11 -0.00 -0.04 16416
0.23 0.17 -0.15 -0.84 9.82 0.14 -0.00 -0.04 16423
0.25 0.12 -0.12 -0.81 10.06 0.19 0.01 -0.04 16431
0.27 0.08 -0.11 -0.81 9.99 0.24 -0.01 -0.04 16438
0.30 0.02 -0.22 -0.69 10.26 0.27 -0.07 -0.03 16445
0.31 0.03 -0.29 -0.76 10.39 0.31 -0.23 -0.01 16453
0.31 0.03 -0.18 -1.21 10.37 0.34 -0.35 0.00 16459
0.27 0.00 0.07 -1.03 10.66 0.38 -0.46 -0.01 16466
0.30 0.01 0.41 -1.34 11.66 0.43 -0.61 -0.07 16475
0.28 -0.00 -0.01 -1.39 12.61 0.53 -0.89 -0.12 16481
0.33 -0.01 -1.34 -1.13 13.92 0.76 -1.34 -0.08 16489
0.37 -0.00 -1.57 -1.13 14.67 1.03 -1.99 0.02 16496
0.39 -0.02 0.41 -1.62 13.65 1.24 -2.22 0.05 16503
0.38 -0.02 2.31 -2.00 13.15 1.54 -1.56 -0.11 16510
0.39 -0.02 -1.56 -1.27 14.71 1.74 -1.42 -0.22 16518
0.31 -0.01 -0.34 -1.66 15.47 1.97 -1.64 -0.18 16525
0.41 -0.03 0.22 -1.83 16.43 2.28 -1.72 -0.23 16532
0.40 -0.02 1.13 -2.24 18.15 2.56 -1.92 -0.29 16539
0.37 -0.02 1.38 -2.36 17.85 2.84 -2.29 -0.37 16546
0.30 -0.02 2.15 -2.36 17.86 3.04 -2.67 -0.51 16553
0.17 -0.01 2.89 -3.56 17.77 3.25 -2.96 -0.67 16561
0.15 -0.01 4.65 -3.64 18.23 3.42 -3.20 -0.89 16568
0.09 -0.01 5.73 -3.50 17.21 3.50 -3.32 -1.22 16574
0.09 -0.00 6.04 -3.73 18.25 3.57 -3.44 -1.48 16582
0.08 -0.01 5.59 -4.38 19.72 3.51 -3.65 -1.77 16588
0.06 -0.00 5.61 -4.40 18.79 3.29 -3.99 -2.02 16596
0.02 -0.00 6.11 -3.50 17.27 3.08 -4.28 -2.20 16603
0.02 -0.00 6.61 -1.24 16.48 2.85 -4.28 -2.28 16610
0.01 -0.00 6.12 -0.46 16.13 2.33 -4.28 -2.27 16617
0.00 0.00 8.10 -0.79 13.63 1.86 -4.28 -1.99 16624
0.00 0.00 20.82 -3.31 6.77 1.57 -4.28 -0.47 16631
0.00 0.00 22.67 -0.31 17.43 1.18 -3.35 0.80 16638
0.00 0.00 24.12 -0.21 8.95 0.52 -0.78 1.42 16646
0.00 0.00 15.80 -0.71 9.83 0.26 0.62 1.81 16653
0.00 0.00 9.98 -1.42 10.08 0.04 1.21 2.03 16660
0.00 0.00 6.70 -1.99 9.80 -0.03 1.05 2.08 16667
0.00 0.00 5.57 -2.08 9.09 -0.13 0.61 1.96 16674
0.00 0.00 6.55 -1.50 8.81 -0.24 0.35 1.63 16681
0.00 0.00 7.68 -1.18 8.80 -0.37 0.44 1.22 16689
0.00 0.00 8.24 -0.61 8.75 -0.48 0.88 0.65 16696
-0.00 0.00 7.81 -0.12 8.96 -0.57 1.39 0.02 16703
0.00 0.00 6.68 0.30 9.34 -0.67 1.97 -0.53 16710
0.00 0.00 5.36 1.01 9.75 -0.75 2.36 -1.10 16717
0.00 0.00 4.52 1.41 9.77 -0.86 2.55 -1.50 16724
0.00 0.00 3.81 1.81 9.88 -0.96 2.70 -1.84 16732
0.00 0.00 2.97 2.02 9.83 -1.02 2.83 -2.01 16739
0.00 0.00 1.95 2.39 9.98 -1.05 2.97 -2.06 16746
0.00 0.00 1.27 2.74 10.35 -1.05 3.06 -2.03 16753
0.00 0.00 0.82 3.18 10.45 -1.05 3.08 -1.92 16760
0.00 0.00 0.61 3.55 10.59 -1.06 3.11 -1.82 16768
0.00 0.00 0.87 3.60 11.13 -1.13 3.14 -1.68 16775
0.00 0.00 1.00 3.50 11.60 -1.25 3.21 -1.58 16782
0.00 0.00 0.90 3.33 11.92 -1.35 3.31 -1.49 16789
0.00 0.00 0.67 2.51 12.22 -1.46 3.41 -1.41 16796
-0.00 0.01 0.42 2.49 12.32 -1.56 3.44 -1.41 16803
0.00 0.00 0.63 1.87 12.35 -1.61 3.40 -1.41 16811
0.00 0.00 0.99 1.44 11.66 -1.62 3.35 -1.39 16818
0.00 0.00 1.26 1.10 12.13 -1.58 3.40 -1.35 16825
-0.00 0.01 1.06 0.99 12.11 -1.51 3.51 -1.28 16832
0.00 0.00 0.33 0.66 12.40 -1.40 3.67 -1.22 16839
0.00 0.00 -0.61 0.38 12.81 -1.29 3.80 -1.15 16846
-0.00 0.00 -1.34 0.21 13.38 -1.18 3.85 -1.09 16854
-0.00 0.01 -2.14 0.30 13.70 -1.10 3.86 -0.98 16861
-0.00 0.01 -2.84 0.58 13.97 -1.05 3.85 -0.82 16868
-0.00 0.01 -3.61 0.88 14.09 -1.03 3.80 -0.65 16875
-0.00 0.01 -4.22 1.29 14.20 -1.07 3.72 -0.40 16882
-0.00 0.00 -4.72 1.61 14.13 -1.09 3.63 -0.12 16889
-0.00 0.00 -5.52 1.98 13.78 -1.14 3.52 0.19 16897
-0.00 0.01 -6.50 2.06 13.32 -1.18 3.43 0.56 16904
-0.00 0.01 -7.36 1.93 12.27 -1.21 3.31 0.89 16911
-0.00 0.01 -8.36 1.31 12.50 -1.25 3.09 1.25 16918
-0.00 0.01 -8.71 0.95 12.52 -1.29 2.82 1.56 16925
0.00 -0.00 -8.48 0.90 12.44 -1.34 2.52 1.79 16932
-0.00 0.01 -8.14 0.81 12.34 -1.41 2.31 2.00 16940
-0.00 0.00 -8.22 0.63 12.38 -1.51 2.18 2.13 16947
-0.00 0.01 -8.48 0.34 12.50 -1.61 2.00 2.21 16954
-0.00 0.00 -8.99 -0.07 12.60 -1.70 1.85 2.20 16961
-0.00 0.01 -9.71 -0.94 11.52 -1.82 1.67 2.14 16968
0.00 0.00 -8.52 -3.64 10.22 -1.97 1.37 1.95 16975
0.00 0.00 -6.52 -6.08 10.27 -2.08 0.98 1.73 16983
-0.00 0.01 -3.84 -8.30 8.89 -2.06 0.83 1.55 16990
-0.00 0.02 -2.84 -10.39 8.13 -1.93 0.95 1.48 16997
-0.00 0.02 -2.94 -11.87 7.58 -1.67 1.08 1.53 17004
-0.00 0.02 -3.84 -12.81 6.93 -1.37 1.16 1.71 17011
-0.00 0.00 -4.57 -13.12 6.68 -1.09 1.19 1.94 17018
-0.00 0.01 -5.58 -12.96 6.34 -0.78 1.25 2.16 17026
-0.00 0.02 -7.32 -12.68 6.22 -0.52 1.29 2.41 17033
-0.00 0.02 -9.55 -13.32 1.20 -0.23 1.30 2.60 17040
0.00 0.04 -69.18 -39.13 23.23 1.66 -4.28 3.39 17048
0.02 0.07 -26.49 -33.13 1.08 2.12 -4.28 3.44 17055
0.01 0.10 -10.66 -19.09 16.12 3.27 -4.28 2.89 17062
-0.03 0.44 -44.18 7.90 66.73 4.14 -4.28 2.69 17070
-0.08 1.08 -25.38 7.58 33.53 3.00 -2.63 2.05 17077
-0.10 1.21 -19.66 -5.07 20.77 3.15 -2.49 0.87 17084
-0.06 1.18 -8.57 -4.34 16.90 3.44 -1.25 -0.03 17091
-0.07 1.06 3.23 -4.12 29.66 2.42 -1.35 -0.12 17098
-0.05 0.86 3.59 -0.17 11.33 0.66 -1.23 0.16 17105
-0.04 0.81 -0.32 -3.05 12.52 0.33 -0.86 0.21 17113
-0.05 0.71 -1.83 -1.61 8.75 0.24 -0.62 0.09 17119
0.01 0.65 -0.72 -0.88 9.61 0.15 -0.35 0.09 17126
0.01 0.63 -0.27 -1.73 11.02 0.13 -0.27 0.08 17134
0.12 0.56 -0.09 -1.06 10.55 0.21 -0.23 0.08 17140
0.16 0.49 0.16 -0.34 10.31 0.22 -0.23 0.06 17148
0.21 0.45 -0.23 -1.04 9.96 0.20 -0.22 0.07 17155
0.23 0.43 -0.49 -1.19 9.66 0.14 -0.15 0.08 17162
0.27 0.45 0.05 -0.74 9.91 0.08 -0.08 0.08 17169
0.28 0.43 0.01 -0.75 9.97 0.07 -0.07 0.08 17176
0.31 0.41 -0.07 -0.71 9.82 0.08 -0.06 0.07 17183
0.31 0.34 -0.11 -0.69 9.80 0.08 -0.04 0.07 17190
0.32 0.41 -0.05 -0.66 9.75 0.08 -0.01 0.07 17198
0.34 0.33 0.05 -0.73 9.89 0.08 0.00 0.07 17205
0.34 0.30 0.00 -0.69 9.89 0.09 0.00 0.06 17212
0.33 0.29 0.59 -0.66 9.83 0.10 0.00 0.06 17219
0.33 0.29 -0.09 -0.75 9.79 0.10 0.02 0.06 17226
0.29 0.28 -0.05 -0.75 9.81 0.09 0.04 0.06 17233
0.25 0.23 0.00 -0.78 9.76 0.08 0.06 0.06 17241
0.23 0.25 0.01 -0.76 9.69 0.07 0.07 0.05 17248
0.23 0.22 0.05 -0.78 9.64 0.06 0.08 0.05 17255
0.20 0.23 0.10 -0.77 9.67 0.06 0.09 0.04 17262
0.19 0.19 0.19 -0.83 9.65 0.05 0.09 0.04 17269
0.18 0.18 0.21 -0.79 9.58 0.04 0.09 0.03 17276
0.16 0.13 0.21 -0.80 9.57 0.04 0.08 0.03 17284
0.15 0.14 0.30 -0.82 9.59 0.03 0.07 0.02 17291
0.15 0.13 0.28 -0.86 9.59 0.02 0.06 0.02 17298
0.16 0.13 0.25 -0.85 9.59 0.01 0.05 0.01 17305
0.14 0.14 0.27 -0.83 9.60 -0.01 0.04 0.00 17312
0.10 0.15 0.28 -0.86 9.63 -0.01 0.03 -0.00 17319
0.09 0.14 0.27 -0.86 9.65 -0.02 0.01 -0.00 17327
0.10 0.13 0.23 -0.88 9.67 -0.03 0.00 -0.00 17334
0.11 0.13 0.19 -0.86 9.61 -0.03 -0.00 -0.00 17341
0.11 0.14 0.17 -0.87 9.56 -0.05 -0.00 -0.00 17348
0.09 0.14 0.14 -0.86 9.62 -0.07 0.00 -0.00 17355
0.09 0.17 0.14 -0.87 9.66 -0.08 0.01 -0.00 17362
0.10 0.18 0.12 -0.80 9.68 -0.08 0.01 0.00 17370
0.09 0.21 0.14 -0.82 9.70 -0.09 0.00 0.00 17377
0.08 0.22 0.17 -0.82 9.67 -0.09 0.01 0.00 17384
0.10 0.22 0.15 -0.84 9.70 -0.09 0.01 0.00 17391
0.09 0.23 0.21 -0.80 9.77 -0.09 0.01 0.01 17398
0.09 0.23 0.11 -0.78 9.76 -0.09 0.01 0.01 17405
0.08 0.26 0.08 -0.76 9.75 -0.08 0.01 0.01 17413
0.10 0.28 0.16 -0.78 9.76 -0.08 0.02 0.01 17420
0.10 0.30 0.15 -0.76 9.69 -0.07 0.01 0.01 17427
0.11 0.30 0.16 -0.75 9.72 -0.06 0.01 0.01 17434
0.10 0.35 0.13 -0.74 9.71 -0.06 0.02 0.01 17441
0.09 0.37 0.14 -0.75 9.72 -0.06 0.02 0.01 17448
0.09 0.38 0.12 -0.75 9.68 -0.06 0.02 0.02 17456
0.09 0.40 0.13 -0.72 9.72 -0.07 0.02 0.01 17463
0.12 0.40 0.14 -0.73 9.73 -0.07 0.02 0.02 17470
0.10 0.40 0.05 -0.73 9.72 -0.07 0.02 0.02 17477
0.08 0.43 0.14 -0.71 9.68 -0.06 0.01 0.02 17484
0.07 0.44 0.14 -0.63 9.73 -0.06 0.01 0.02 17491
0.08 0.44 0.17 -0.02 9.63 -0.04 0.00 0.01 17499
0.09 0.44 0.13 -0.72 9.75 -0.02 -0.00 0.02 17506
0.10 0.44 0.04 -0.68 9.71 -0.01 -0.01 0.01 17513
0.10 0.42 0.13 -0.74 9.21 0.01 -0.01 0.01 17520
0.10 0.41 0.13 -0.71 9.81 0.02 -0.02 0.01 17527
0.10 0.39 0.15 -0.70 9.71 0.04 -0.03 0.01 17534
