Voltage_01 Voltage_02 Acc_x Acc_y Acc_z Gyro_x Gyro_y Gyro_z Time
5000
0.00 0.00 0.27 11.10 7.36 -0.68 0.07 0.67 23
0.02 -0.00 0.20 10.70 7.62 -0.88 0.13 0.67 29
0.00 0.00 -0.14 10.44 7.81 -1.12 0.20 0.66 36
0.00 0.00 -0.45 9.76 8.23 -1.28 0.25 0.65 43
0.00 0.00 -0.59 9.29 8.69 -1.47 0.28 0.63 49
0.00 0.00 -0.97 8.72 9.06 -1.65 0.27 0.60 55
0.00 0.00 -1.11 7.78 9.68 -1.79 0.26 0.58 61
-0.00 0.00 -1.09 7.20 10.15 -1.94 0.24 0.57 67
0.00 0.00 -0.92 6.33 10.68 -2.12 0.21 0.55 74
0.00 -0.00 -0.69 5.57 11.30 -2.24 0.21 0.53 80
0.00 0.00 -0.54 4.83 11.75 -2.37 0.23 0.53 88
0.00 0.00 -0.25 4.05 12.18 -2.47 0.25 0.52 94
0.00 0.00 -0.11 3.33 12.63 -2.53 0.28 0.52 100
-0.00 0.00 0.12 2.66 12.94 -2.60 0.30 0.54 107
0.00 0.00 0.29 1.83 13.27 -2.62 0.34 0.56 114
0.00 0.00 0.30 1.15 13.58 -2.63 0.38 0.59 121
0.00 0.00 0.31 0.43 13.73 -2.60 0.40 0.63 129
0.00 0.00 0.08 -0.30 13.99 -2.55 0.42 0.66 136
0.00 0.00 0.04 -0.90 14.03 -2.47 0.42 0.69 143
0.00 0.00 -0.10 -1.56 14.07 -2.37 0.40 0.72 150
0.00 0.00 -0.13 -2.12 14.10 -2.26 0.39 0.73 157
0.00 0.00 -0.56 -2.55 13.99 -2.14 0.40 0.72 164
0.00 0.00 -0.89 -2.91 13.94 -2.02 0.43 0.68 172
0.00 0.00 -1.24 -3.25 13.92 -1.89 0.47 0.63 179
0.00 0.00 -1.62 -3.59 13.75 -1.76 0.52 0.56 186
0.00 0.00 -1.93 -4.06 13.48 -1.66 0.56 0.47 193
0.00 0.00 -2.17 -4.41 13.34 -1.55 0.59 0.39 200
0.00 0.00 -2.28 -4.79 13.22 -1.46 0.60 0.29 207
0.00 0.00 -2.35 -5.06 12.99 -1.36 0.59 0.21 215
0.00 0.00 -2.48 -5.32 12.84 -1.28 0.57 0.13 222
0.00 0.00 -2.68 -5.48 12.51 -1.24 0.56 0.05 229
0.00 0.00 -2.84 -5.58 12.25 -1.22 0.54 0.01 236
0.00 0.00 -3.11 -5.83 11.86 -1.22 0.51 -0.03 243
0.00 0.00 -3.30 -6.18 11.54 -1.23 0.48 -0.06 250
0.00 0.00 -3.58 -6.55 11.25 -1.24 0.43 -0.09 258
0.00 0.00 -3.74 -6.85 10.73 -1.26 0.33 -0.14 265
0.00 0.00 -3.78 -7.05 10.10 -1.31 0.21 -0.19 272
0.00 -0.00 -3.42 -7.38 9.15 -1.38 0.02 -0.26 279
0.00 0.00 -2.50 -7.85 8.25 -1.45 -0.18 -0.39 286
0.00 0.00 -1.02 -8.81 7.86 -1.55 -0.46 -0.54 293
0.00 0.00 0.56 -9.79 7.50 -1.60 -0.64 -0.72 301
0.00 0.00 1.57 -10.43 6.71 -1.62 -0.57 -0.88 307
0.00 0.00 2.28 -11.56 5.97 -1.55 -0.24 -1.04 314
0.00 0.00 2.14 -12.79 5.50 -1.43 0.19 -1.23 321
0.00 0.00 1.33 -13.80 5.15 -1.22 0.47 -1.38 328
0.00 0.00 0.33 -14.75 4.97 -0.96 0.63 -1.53 335
0.00 0.00 -0.52 -15.17 4.97 -0.69 0.60 -1.61 343
0.00 0.00 -1.18 -15.45 5.19 -0.36 0.41 -1.65 350
0.00 0.00 -1.47 -15.44 5.72 -0.09 0.10 -1.64 357
0.00 0.00 -1.19 -15.77 4.81 0.20 -0.20 -1.60 364
0.00 0.00 -1.46 -29.16 20.67 1.93 -0.97 -1.81 371
0.00 0.00 1.18 0.45 0.16 2.49 -0.56 -1.78 378
-0.00 0.03 3.80 4.96 4.33 2.96 -0.93 -1.78 385
-0.00 0.05 4.05 0.20 17.45 3.00 -1.13 -1.62 392
-0.01 0.07 5.87 1.74 13.48 2.65 -0.95 -1.25 399
-0.00 0.09 5.95 -1.31 13.40 2.51 -0.83 -0.82 407
-0.01 0.18 4.49 -2.48 13.42 2.58 -0.33 -0.22 414
-0.02 0.21 3.06 -1.75 13.82 2.68 0.04 0.23 420
-0.02 0.23 0.32 -1.86 15.44 2.53 0.18 0.48 428
-0.03 0.26 -1.76 -2.16 15.47 2.21 0.15 0.43 435
-0.01 0.27 -2.62 -2.30 13.95 1.89 0.14 0.23 443
-0.02 0.30 -2.17 -1.70 12.06 1.73 0.13 -0.01 450
-0.02 0.30 -0.87 -1.28 11.16 1.60 0.14 -0.19 457
-0.02 0.30 0.02 -1.24 11.02 1.47 0.25 -0.20 463
-0.03 0.30 0.84 -1.12 10.66 1.39 0.39 -0.14 472
-0.02 0.31 1.30 -1.61 15.27 1.23 0.48 -0.03 479
-0.02 0.30 0.55 -2.02 11.56 0.06 0.26 0.05 485
0.00 0.30 0.14 -2.68 11.92 -0.13 0.13 -0.06 492
-0.01 0.28 0.18 -1.30 9.98 -0.12 0.11 -0.04 499
-0.02 0.30 0.23 -1.14 10.07 -0.16 0.12 -0.02 506
-0.02 0.36 0.27 -1.01 9.66 -0.16 0.12 -0.01 514
-0.01 0.37 0.04 -0.94 9.72 -0.19 0.12 -0.01 521
-0.00 0.42 0.16 -1.04 9.85 -0.20 0.12 -0.01 528
0.00 0.47 0.24 -1.13 9.95 -0.20 0.12 -0.00 535
-0.01 0.47 0.29 -0.94 10.01 -0.19 0.10 -0.01 542
0.00 0.51 0.17 -0.88 9.88 -0.17 0.09 -0.01 549
0.00 0.52 0.13 -0.88 9.91 -0.15 0.10 -0.01 557
0.00 0.57 0.10 -0.82 9.98 -0.13 0.10 -0.01 564
0.02 0.57 0.15 -0.81 9.88 -0.11 0.10 -0.01 571
-0.00 0.59 0.17 -0.79 9.83 -0.10 0.10 -0.01 578
0.02 0.58 0.13 -0.76 9.85 -0.08 0.11 -0.01 585
0.00 0.63 0.14 -0.74 9.85 -0.07 0.10 -0.01 592
0.00 0.63 0.21 -0.75 9.83 -0.05 0.07 -0.00 600
0.01 0.63 0.22 -0.72 9.82 -0.04 0.09 -0.00 607
0.01 0.63 0.17 -0.71 9.82 -0.02 0.08 -0.01 614
0.00 0.64 0.15 -0.68 9.83 -0.01 0.08 -0.01 621
-0.01 0.64 0.16 -0.71 9.83 0.01 0.07 -0.01 628
-0.03 0.61 0.16 -0.72 9.79 0.03 0.07 -0.01 635
0.02 0.59 0.22 -0.72 9.79 0.04 0.07 -0.01 643
0.02 0.60 0.19 -0.69 9.76 0.06 0.07 -0.01 650
0.02 0.60 0.20 -0.72 9.82 0.07 0.06 -0.02 657
-0.00 0.55 0.25 -0.74 9.71 0.08 0.06 -0.02 664
-0.01 0.53 0.27 -0.76 9.69 0.08 0.06 -0.03 671
-0.01 0.50 0.28 -0.80 9.69 0.08 0.06 -0.03 678
-0.00 0.49 0.22 -0.77 9.75 0.08 0.06 -0.04 686
0.01 0.49 0.23 -0.77 9.73 0.08 0.06 -0.04 693
0.01 0.42 0.23 -0.77 9.73 0.08 0.07 -0.04 700
0.01 0.39 0.29 -0.76 9.73 0.09 0.07 -0.04 707
-0.00 0.37 0.25 -0.81 9.69 0.09 0.06 -0.04 714
0.01 0.36 0.26 -0.81 9.71 0.09 0.06 -0.04 721
0.02 0.35 0.25 -0.89 9.78 0.09 0.06 -0.05 729
0.02 0.30 0.25 -0.84 9.73 0.09 0.07 -0.05 736
0.02 0.27 0.27 -0.85 9.75 0.10 0.06 -0.05 743
0.02 0.26 0.28 -0.81 9.68 0.11 0.06 -0.05 750
0.01 0.24 0.33 -0.86 9.74 0.12 0.05 -0.05 757
0.04 0.21 0.33 -0.85 9.75 0.12 0.04 -0.06 764
0.03 0.20 0.38 -0.86 9.22 0.13 0.04 -0.06 772
0.03 0.16 0.27 -0.91 9.72 0.14 0.02 -0.06 779
0.03 0.11 0.30 -0.87 9.70 0.14 0.02 -0.06 786
0.02 0.10 0.34 -0.99 9.76 0.15 0.02 -0.06 793
0.03 0.11 0.34 -0.97 9.75 0.16 0.01 -0.07 800
0.05 0.09 0.38 -0.91 9.81 0.18 -0.00 -0.07 807
0.09 0.07 0.30 -0.98 9.82 0.20 -0.02 -0.08 815
0.11 0.06 0.35 -1.04 9.82 0.20 -0.04 -0.08 822
0.07 0.08 0.33 -1.03 9.83 0.21 -0.06 -0.08 829
0.07 0.04 0.37 -1.08 9.81 0.22 -0.08 -0.09 836
0.09 0.02 0.44 -1.09 9.83 0.23 -0.09 -0.09 843
0.11 0.02 0.28 -1.10 9.88 0.26 -0.10 -0.11 850
0.17 -0.00 0.33 -1.10 10.01 0.28 -0.13 -0.12 859
0.20 0.01 0.26 -1.14 10.10 0.31 -0.10 -0.13 865
0.22 -0.00 0.22 -1.27 10.07 0.34 -0.08 -0.15 872
0.23 -0.02 0.28 -1.32 10.15 0.36 -0.06 -0.16 879
0.24 -0.02 0.36 -1.37 10.33 0.41 -0.03 -0.18 887
0.27 -0.01 0.63 -1.47 10.72 0.49 -0.00 -0.22 894
0.32 -0.02 1.23 -1.57 11.42 0.62 0.06 -0.27 902
0.35 -0.03 0.55 -1.73 12.51 0.82 0.29 -0.35 909
0.38 -0.04 -0.61 -1.47 12.36 1.18 0.35 -0.29 915
0.42 -0.03 0.44 -1.47 12.15 1.41 0.31 -0.26 923
0.44 -0.02 0.04 -1.64 12.20 1.55 0.27 -0.24 930
0.51 -0.03 0.37 -1.64 13.24 1.76 0.19 -0.20 937
0.57 -0.03 -0.19 -1.75 13.58 1.99 0.18 -0.18 945
0.64 -0.04 0.12 -1.83 14.14 2.23 0.15 -0.14 952
0.70 -0.05 0.86 -2.20 14.13 2.55 0.11 -0.15 959
0.72 -0.04 0.88 -2.05 14.51 2.88 0.02 -0.18 965
0.79 -0.04 1.18 -2.19 14.68 3.20 -0.03 -0.21 973
0.80 -0.03 0.97 -2.20 14.50 3.54 -0.08 -0.26 980
0.84 -0.04 1.10 -2.22 15.00 3.83 -0.11 -0.30 988
0.87 -0.04 0.57 -2.24 15.90 4.15 -0.16 -0.34 995
0.88 -0.04 0.72 -2.22 15.94 4.27 -0.25 -0.37 1002
0.84 -0.03 0.75 -2.20 16.49 4.28 -0.31 -0.40 1009
0.82 -0.03 1.13 -2.37 16.33 4.28 -0.41 -0.46 1016
0.73 -0.02 0.96 -3.34 17.17 4.28 -0.56 -0.53 1024
0.57 -0.02 1.25 -3.69 19.85 4.28 -0.76 -0.58 1031
0.40 -0.02 2.25 -5.54 23.77 4.28 -1.07 -0.63 1038
0.23 -0.02 3.17 -8.36 25.54 4.28 -1.13 -0.71 1045
0.20 -0.01 0.24 -9.39 26.58 4.28 -1.19 -0.94 1052
0.13 -0.00 -5.69 -7.79 29.29 4.28 -1.75 -1.00 1059
0.08 -0.01 -2.15 -9.93 32.19 4.28 -2.03 -0.68 1065
0.12 -0.01 0.78 -8.05 29.61 4.28 -2.26 -0.57 1073
0.04 -0.00 3.66 -6.58 33.58 4.28 -2.66 -0.53 1080
0.01 -0.00 7.76 -3.07 32.11 4.28 -2.68 -0.38 1087
0.02 -0.00 8.99 4.99 26.40 4.28 -2.38 -0.39 1094
0.00 -0.00 9.04 12.09 21.09 4.28 -2.01 -0.41 1101
0.00 0.00 9.16 16.73 19.21 4.28 -1.69 -0.51 1108
0.00 0.00 9.78 26.00 9.36 4.28 -1.49 -0.42 1116
0.00 0.00 8.87 20.50 15.85 3.52 -0.86 0.02 1123
0.00 0.00 6.71 20.34 25.04 0.39 -0.17 0.36 1130
0.00 0.00 2.92 18.14 19.33 -2.02 -0.09 0.61 1137
0.00 0.00 0.56 13.31 15.92 -3.13 -0.36 0.77 1144
0.00 0.00 1.20 9.00 13.88 -3.28 -0.62 0.74 1152
0.00 0.00 2.00 7.23 10.62 -3.12 -0.64 0.61 1159
0.00 0.00 3.03 6.92 7.83 -3.01 -0.44 0.40 1166
0.00 0.00 2.47 6.57 7.86 -3.05 -0.12 0.16 1173
0.00 0.00 0.82 6.29 8.69 -3.31 0.25 -0.02 1180
0.00 0.00 -0.71 6.94 9.04 -3.73 0.48 -0.19 1187
0.00 0.00 -2.31 7.03 9.48 -4.24 0.48 -0.27 1195
0.00 0.00 -3.89 6.18 9.91 -4.28 0.35 -0.28 1202
0.00 0.00 -4.65 5.12 10.14 -4.28 0.07 -0.21 1209
0.00 0.00 -4.21 3.78 10.21 -4.28 -0.28 -0.17 1216
0.00 0.00 -3.14 2.89 10.09 -4.28 -0.49 -0.12 1223
0.00 0.00 -2.28 2.44 10.21 -4.28 -0.48 -0.09 1230
0.00 0.00 -1.46 1.88 10.51 -4.28 -0.33 -0.09 1238
0.00 0.00 -1.11 1.14 10.89 -4.28 -0.14 -0.13 1245
0.00 0.00 -1.32 0.76 11.19 -4.28 0.09 -0.19 1252
0.00 0.00 -1.36 0.12 12.14 -4.28 0.35 -0.26 1259
0.00 0.00 -1.65 -0.15 12.75 -4.28 0.49 -0.32 1266
0.00 0.00 -1.92 -0.51 13.74 -4.28 0.58 -0.40 1273
0.00 0.00 -2.22 -1.20 14.71 -4.28 0.62 -0.46 1281
0.00 0.00 -2.19 -1.62 15.38 -4.28 0.59 -0.51 1288
0.00 0.00 -1.96 -1.78 16.34 -4.28 0.51 -0.55 1295
0.00 0.00 -1.34 -2.30 17.17 -4.28 0.49 -0.55 1302
-0.00 0.00 -0.59 -2.61 17.65 -4.28 0.49 -0.52 1309
0.00 0.00 -0.08 -3.01 18.20 -4.28 0.56 -0.46 1316
0.00 0.00 0.26 -3.41 19.09 -4.28 0.59 -0.39 1324
0.00 0.00 0.71 -3.86 20.35 -4.28 0.69 -0.31 1331
0.00 0.00 1.16 -4.23 21.81 -4.28 0.80 -0.20 1338
0.00 0.00 1.48 -4.88 23.03 -4.28 0.98 -0.15 1345
0.00 0.00 1.32 -5.92 24.65 -4.28 1.20 -0.08 1352
0.00 0.00 0.79 -7.27 27.33 -4.28 1.36 -0.04 1359
0.00 0.00 -0.04 -8.83 28.91 -4.28 1.49 -0.03 1367
0.00 0.00 -0.47 -10.67 30.29 -4.28 1.55 -0.09 1374
0.00 0.00 -0.53 -12.47 30.58 -4.28 1.57 -0.19 1381
0.00 0.00 -0.49 -15.20 29.53 -4.28 1.59 -0.31 1388
0.00 0.00 -0.63 -18.26 26.76 -4.28 1.64 -0.41 1395
0.00 0.00 -1.89 -22.16 22.56 -4.28 1.84 -0.52 1402
0.00 0.00 -4.48 -27.25 19.04 -4.28 2.32 -0.54 1410
0.00 0.00 -7.68 -33.66 16.60 -4.28 2.58 -0.55 1417
0.00 0.00 -11.70 -43.19 11.85 -4.28 2.19 -0.52 1425
0.00 0.00 -13.56 -53.23 4.59 -3.75 1.49 -0.56 1431
0.00 -0.00 -15.11 -63.16 -0.33 -3.00 0.89 -0.56 1438
0.00 0.00 -18.15 -64.98 -2.05 -1.98 0.33 -0.52 1445
0.00 0.00 -17.21 -58.18 -1.47 -0.36 -0.49 -0.52 1453
0.00 0.00 -11.07 -45.49 1.15 1.20 -1.65 -0.62 1460
0.00 0.00 9.40 -57.18 25.95 2.75 -2.43 -1.04 1467
0.00 0.00 -5.13 -11.24 14.81 4.28 -1.52 -1.50 1474
0.00 0.04 4.12 7.83 3.16 4.28 -1.29 -1.45 1481
-0.01 0.15 2.59 -0.57 22.36 4.16 -1.65 -1.31 1488
-0.03 0.44 8.08 -1.23 19.12 3.72 -1.35 -0.85 1497
-0.04 0.64 3.53 -4.03 17.80 3.99 -1.29 -0.34 1504
-0.06 0.82 5.14 -5.51 18.20 4.27 -0.68 0.26 1511
-0.05 0.93 1.54 -3.35 19.36 4.27 0.20 1.00 1518
-0.05 0.96 -4.40 -4.87 21.91 3.90 0.62 1.10 1525
-0.06 1.06 -5.77 -3.97 16.97 3.34 0.64 0.71 1532
-0.06 1.05 -4.08 -3.23 15.15 3.12 0.51 0.18 1540
-0.07 1.07 -0.58 -1.77 13.52 2.76 0.55 -0.08 1547
-0.05 0.99 2.20 -1.05 12.01 2.43 0.78 -0.06 1554
-0.03 0.91 2.40 -3.87 22.27 1.63 0.35 0.15 1561
-0.03 0.90 1.20 -1.63 12.53 0.06 -0.06 0.16 1567
-0.03 0.84 -1.11 -3.79 12.44 -0.16 0.01 -0.01 1575
-0.03 0.84 0.53 -1.26 10.16 -0.07 0.04 -0.01 1582
-0.04 0.84 0.39 -1.04 10.07 -0.06 0.06 0.05 1589
-0.03 0.79 -0.16 -1.28 9.92 -0.08 0.08 0.03 1596
0.03 0.78 0.24 -1.16 10.11 -0.09 0.13 0.03 1603
0.03 0.72 0.24 -0.82 10.04 -0.07 0.14 0.04 1610
0.02 0.74 0.17 -0.82 9.87 -0.05 0.14 0.04 1617
0.02 0.71 0.36 -0.80 9.91 -0.05 0.15 0.03 1625
0.01 0.71 0.35 -0.70 9.95 -0.03 0.13 0.03 1632
0.02 0.73 0.28 -0.67 9.85 -0.01 0.13 0.02 1639
0.02 0.74 0.24 -0.64 9.83 0.01 0.13 0.02 1646
0.01 0.73 0.28 -0.60 9.83 0.03 0.13 0.02 1653
-0.00 0.70 0.36 -0.60 9.82 0.06 0.13 0.01 1660
0.00 0.65 0.38 -0.60 9.83 0.09 0.11 0.01 1668
0.02 0.61 0.40 -0.63 9.78 0.11 0.09 -0.01 1675
0.03 0.54 0.44 -0.64 9.82 0.13 0.08 -0.02 1682
0.01 0.46 0.45 -0.67 9.83 0.14 0.06 -0.02 1689
0.00 0.46 0.44 -0.71 9.77 0.16 0.05 -0.03 1696
0.01 0.42 0.47 -0.68 9.73 0.16 0.03 -0.04 1703
-0.01 0.42 0.40 -0.69 9.68 0.17 0.03 -0.04 1711
-0.00 0.40 0.40 -0.73 9.67 0.17 0.03 -0.05 1718
0.01 0.38 0.41 -0.76 9.68 0.16 0.02 -0.05 1725
0.02 0.32 0.47 -0.76 9.64 0.16 0.02 -0.06 1732
0.01 0.29 0.42 -0.79 9.62 0.15 0.03 -0.06 1739
0.01 0.27 0.45 -0.75 9.66 0.15 0.02 -0.06 1746
-0.01 0.21 0.49 -0.83 9.67 0.14 0.02 -0.06 1754
0.01 0.22 0.48 -0.85 9.64 0.14 0.01 -0.06 1761
0.03 0.23 0.51 -0.88 9.65 0.12 0.00 -0.06 1768
0.04 0.18 0.51 -0.93 9.67 0.11 -0.01 -0.06 1775
0.03 0.16 0.50 -0.93 9.64 0.09 -0.02 -0.06 1782
0.03 0.11 0.59 -0.79 9.67 0.09 -0.03 -0.07 1789
0.01 0.11 0.36 -0.95 9.58 0.10 -0.05 -0.08 1797
0.04 0.11 0.56 -0.91 9.58 0.11 -0.06 -0.09 1804
0.04 0.14 0.37 -1.02 9.67 0.11 -0.06 -0.09 1811
0.06 0.13 0.45 -0.90 9.75 0.12 -0.05 -0.10 1818
0.04 0.10 0.23 -0.98 9.85 0.14 -0.06 -0.10 1825
0.05 0.09 0.27 -0.92 9.78 0.15 -0.05 -0.10 1832
0.08 0.10 0.29 -0.98 9.81 0.18 -0.05 -0.10 1840
0.08 0.07 0.39 -0.99 9.82 0.20 -0.05 -0.10 1847
0.09 0.05 0.34 -0.92 9.87 0.22 -0.06 -0.11 1854
0.08 0.05 0.42 -0.94 9.91 0.26 -0.07 -0.11 1861
0.12 0.04 0.40 -1.07 9.88 0.28 -0.08 -0.11 1868
0.14 0.01 0.43 -1.09 9.95 0.30 -0.09 -0.12 1875
0.17 0.04 0.43 -1.09 9.89 0.33 -0.10 -0.14 1883
0.22 0.01 0.48 -1.17 10.03 0.35 -0.12 -0.15 1891
0.26 -0.01 0.50 -1.25 10.18 0.37 -0.13 -0.17 1898
0.26 -0.02 0.80 -1.29 10.11 0.40 -0.15 -0.21 1905
0.27 -0.03 0.80 -1.37 10.33 0.46 -0.15 -0.26 1911
0.29 -0.02 1.09 -1.47 10.63 0.53 -0.15 -0.32 1920
0.34 -0.01 1.78 -1.52 11.03 0.60 -0.13 -0.41 1927
0.35 -0.02 2.44 -1.79 11.48 0.70 -0.01 -0.52 1934
0.44 -0.03 -0.46 -1.85 12.51 0.93 0.19 -0.58 1941
0.47 -0.03 -1.27 -1.65 12.82 1.25 0.13 -0.45 1948
0.51 -0.04 -0.22 -1.62 12.43 1.50 0.07 -0.35 1955
0.55 -0.04 -0.27 -1.67 13.32 1.67 0.12 -0.29 1963
0.58 -0.03 -0.01 -1.87 13.77 1.93 0.11 -0.24 1970
0.66 -0.03 -0.34 -1.92 13.93 2.19 0.10 -0.20 1977
0.71 -0.04 -0.34 -1.91 14.00 2.45 0.11 -0.15 1984
0.71 -0.03 0.11 -2.04 14.47 2.78 0.16 -0.13 1991
0.74 -0.04 0.56 -2.22 14.93 3.10 0.19 -0.12 1998
0.73 -0.03 1.23 -2.25 14.92 3.47 0.18 -0.14 2006
0.77 -0.02 1.02 -2.28 15.42 3.83 0.22 -0.21 2013
0.80 -0.03 1.22 -2.06 15.41 4.13 0.24 -0.26 2020
0.81 -0.03 0.95 -2.24 15.92 4.28 0.22 -0.30 2027
0.73 -0.03 1.48 -1.54 16.72 4.28 0.14 -0.36 2034
0.65 -0.04 3.04 -1.86 16.31 4.28 -0.03 -0.51 2041
0.56 -0.03 2.30 -3.10 17.08 4.28 -0.23 -0.65 2049
0.47 -0.01 0.83 -4.24 21.09 4.28 -0.39 -0.76 2056
0.34 -0.02 1.51 -6.58 25.06 4.28 -0.64 -0.73 2063
0.22 -0.01 4.45 -7.23 24.89 4.28 -0.70 -0.76 2070
0.20 -0.02 0.58 -8.30 26.63 4.28 -0.60 -1.02 2076
0.09 -0.01 -6.71 -7.33 29.92 4.28 -1.06 -0.99 2083
0.07 -0.01 -2.76 -10.98 32.60 4.28 -1.66 -0.54 2092
0.03 -0.00 2.02 -6.86 29.39 4.28 -2.09 -0.50 2098
0.04 -0.00 5.41 -5.10 31.95 4.28 -2.35 -0.46 2105
0.01 -0.00 8.30 1.09 28.93 4.28 -2.30 -0.43 2112
0.01 -0.00 7.37 7.23 24.67 4.28 -2.10 -0.45 2119
0.00 0.00 8.33 11.89 22.05 4.28 -1.73 -0.51 2126
0.00 0.00 9.04 17.51 20.02 4.28 -1.43 -0.67 2134
0.00 0.00 9.08 26.14 6.82 4.28 -0.98 -0.95 2141
0.00 0.00 12.06 21.66 19.50 3.40 -0.02 -0.72 2148
0.00 0.00 5.11 21.80 24.99 -0.20 0.91 -0.62 2155
0.00 0.00 0.01 18.65 19.67 -2.25 0.87 -0.41 2162
0.00 0.00 -2.21 14.73 16.00 -3.44 0.15 -0.24 2169
0.00 0.00 -0.86 10.65 14.54 -3.66 -0.63 -0.16 2177
0.00 0.00 0.72 8.64 10.97 -3.58 -0.85 -0.18 2184
0.00 0.00 2.46 8.06 8.26 -3.54 -0.76 -0.24 2191
0.00 0.00 2.99 7.37 7.50 -3.60 -0.47 -0.34 2198
0.00 0.00 2.78 6.64 8.09 -3.78 -0.09 -0.44 2205
0.00 0.00 1.68 6.31 8.45 -4.07 0.38 -0.53 2212
0.00 0.00 0.59 5.94 8.83 -4.25 0.77 -0.59 2220
0.00 -0.00 -1.50 5.58 9.21 -4.28 0.94 -0.58 2227
0.00 0.00 -3.09 4.56 10.03 -4.28 0.81 -0.51 2234
0.00 0.00 -3.44 3.58 10.38 -4.28 0.53 -0.43 2241
0.00 0.00 -2.93 2.66 10.50 -4.28 0.21 -0.36 2248
0.00 0.00 -1.99 1.94 10.57 -4.28 0.01 -0.31 2255
0.00 0.00 -1.52 1.56 10.78 -4.28 -0.01 -0.30 2263
0.00 0.00 -0.39 0.54 11.65 -4.28 0.21 -0.32 2270
0.00 0.00 -0.33 0.55 12.07 -4.28 0.42 -0.36 2277
0.00 0.00 -0.50 0.43 12.56 -4.28 0.69 -0.42 2284
0.00 0.00 -0.46 -0.58 13.99 -4.28 0.93 -0.48 2291
0.00 0.00 -1.98 -0.58 15.17 -4.28 1.01 -0.52 2298
0.00 0.00 -1.40 -1.17 14.97 -4.28 1.03 -0.58 2306
0.00 0.00 -2.03 -1.26 16.74 -4.28 0.95 -0.62 2313
0.00 0.00 -1.57 -2.12 17.55 -4.28 0.88 -0.62 2320
0.00 0.00 -1.02 -1.91 18.27 -4.28 0.79 -0.59 2327
0.00 0.00 -0.22 -2.48 18.96 -4.28 0.83 -0.51 2334
0.00 0.00 0.07 -3.15 20.00 -4.28 0.90 -0.45 2341
0.00 0.00 0.64 -3.74 20.89 -4.28 1.05 -0.34 2349
0.00 0.00 0.75 -4.29 21.95 -4.28 1.17 -0.22 2356
0.00 0.00 0.84 -5.30 23.68 -4.28 1.31 -0.08 2363
0.00 0.00 1.06 -6.46 24.70 -4.28 1.44 0.04 2370
0.00 0.00 1.25 -8.22 25.70 -4.28 1.64 0.16 2377
0.00 0.00 1.30 -10.11 27.67 -4.28 1.86 0.23 2384
0.00 0.00 0.96 -11.64 29.18 -4.28 2.02 0.27 2392
0.00 0.00 -0.90 -20.04 30.02 -4.28 2.10 0.38 2399
0.00 0.00 -2.89 -21.63 26.48 -4.23 1.98 0.58 2406
0.00 0.00 -2.49 -22.86 12.37 -4.28 1.69 0.62 2413
0.00 0.00 -0.64 -22.17 17.44 -4.28 1.36 0.67 2420
-0.00 0.00 -4.68 -26.35 13.81 -4.28 1.41 0.82 2428
0.00 -0.00 -3.56 -30.62 13.53 -4.28 2.01 1.02 2436
0.00 0.00 -7.87 -39.63 12.51 -4.26 1.90 1.20 2442
0.00 0.00 -7.46 -51.82 7.35 -3.94 1.65 1.17 2449
0.00 0.00 -9.92 -64.43 0.69 -3.23 1.23 0.86 2456
0.00 0.00 -15.27 -71.84 0.64 -1.46 0.71 0.49 2463
-0.00 0.00 -16.74 -70.11 -3.30 1.00 -0.35 0.06 2470
0.00 0.00 -14.51 -66.43 0.84 3.15 -1.94 -0.50 2478
-0.00 0.02 -4.94 -9.77 6.16 4.28 -2.59 -0.96 2485
-0.01 0.12 0.34 4.75 11.68 4.28 -2.07 -0.94 2492
-0.04 0.43 3.74 2.57 27.41 4.21 -1.00 -0.42 2499
-0.04 0.72 3.31 -0.96 20.95 3.81 -0.52 -0.07 2507
-0.05 0.91 1.62 -5.99 17.65 4.14 -0.18 0.22 2514
-0.05 1.00 1.96 -5.33 17.18 4.28 0.01 0.65 2522
-0.06 1.06 -2.51 -4.48 25.45 4.22 0.76 0.81 2529
-0.06 1.04 -4.32 -4.26 20.23 3.39 0.54 0.46 2536
-0.05 1.07 -3.07 -3.76 16.13 2.88 0.21 0.00 2542
-0.06 1.02 -0.18 -1.82 14.24 2.63 0.36 -0.15 2550
-0.04 0.99 1.47 -0.81 13.39 2.33 0.61 -0.06 2557
-0.05 0.88 1.22 -3.44 19.42 1.43 0.07 0.05 2564
-0.04 0.83 1.90 -1.19 11.60 0.31 -0.20 0.06 2571
-0.02 0.73 0.05 -3.19 12.15 0.07 -0.11 0.07 2578
-0.04 0.74 0.15 -1.62 10.80 -0.02 -0.04 0.04 2585
-0.03 0.63 0.13 -0.96 10.06 -0.03 -0.01 0.02 2592
-0.00 0.64 0.36 -1.01 9.85 -0.03 0.02 0.04 2599
0.00 0.64 0.23 -1.06 9.84 -0.06 0.03 0.04 2607
-0.01 0.65 0.32 -1.14 10.05 -0.08 0.05 0.02 2614
0.00 0.63 0.30 -0.94 10.14 -0.07 0.07 0.02 2621
0.00 0.67 0.28 -0.80 9.90 -0.06 0.08 0.02 2628
0.02 0.67 0.29 -0.71 9.83 -0.04 0.09 0.01 2635
0.03 0.65 0.31 -0.71 9.87 -0.03 0.09 0.01 2642
0.02 0.66 0.35 -0.61 9.82 0.00 0.09 0.01 2650
0.02 0.63 0.35 -0.59 9.82 0.02 0.08 0.00 2657
0.01 0.62 0.37 -0.62 9.88 0.04 0.06 0.00 2664
0.01 0.60 0.38 -0.60 9.85 0.08 0.04 -0.00 2671
0.02 0.57 0.31 -0.59 9.81 0.10 0.03 -0.01 2678
0.02 0.51 0.34 -0.02 9.88 0.11 0.03 -0.02 2685
0.02 0.50 0.34 -0.61 9.87 0.13 0.03 -0.03 2693
0.03 0.47 0.36 -0.64 9.84 0.15 0.02 -0.03 2700
0.01 0.41 0.43 -0.72 10.40 0.16 0.01 -0.03 2707
0.03 0.38 0.43 -0.68 9.82 0.17 -0.00 -0.04 2714
0.05 0.37 0.43 -0.78 9.80 0.17 -0.02 -0.05 2721
0.05 0.30 0.43 -0.76 9.79 0.18 -0.03 -0.05 2728
0.03 0.31 0.44 -0.78 9.67 0.18 -0.04 -0.05 2736
0.04 0.27 0.44 -0.78 9.62 0.18 -0.04 -0.05 2743
0.03 0.20 0.44 -0.82 9.67 0.18 -0.05 -0.06 2750
0.04 0.20 0.40 -0.86 9.72 0.17 -0.06 -0.06 2757
0.06 0.19 0.40 -0.86 9.67 0.17 -0.07 -0.07 2764
0.06 0.15 0.49 -0.90 9.65 0.17 -0.08 -0.07 2771
0.06 0.12 0.42 -0.87 9.72 0.17 -0.09 -0.07 2779
0.07 0.09 0.45 -0.94 9.62 0.17 -0.11 -0.08 2786
0.08 0.10 1.08 -0.91 9.77 0.18 -0.11 -0.09 2793
0.07 0.08 0.37 -1.00 9.74 0.18 -0.12 -0.09 2800
0.12 0.06 0.31 -1.08 9.45 0.18 -0.12 -0.11 2807
0.11 0.04 0.39 -1.15 9.68 0.19 -0.12 -0.11 2814
0.08 0.05 0.45 -1.04 9.88 0.20 -0.11 -0.11 2822
0.09 0.03 0.34 -1.21 9.82 0.21 -0.11 -0.12 2829
0.11 0.03 0.36 -1.02 9.86 0.21 -0.09 -0.12 2836
0.18 0.03 0.12 -0.99 9.76 0.22 -0.10 -0.13 2843
0.23 0.01 0.16 -1.11 9.83 0.24 -0.10 -0.13 2850
0.21 0.02 0.41 -1.04 9.90 0.26 -0.11 -0.13 2857
0.26 -0.02 0.23 -1.18 9.92 0.27 -0.12 -0.14 2865
0.23 -0.01 0.35 -1.25 9.93 0.30 -0.13 -0.15 2872
0.25 -0.02 0.32 -1.20 9.96 0.32 -0.13 -0.17 2879
0.30 -0.00 0.41 -1.37 10.12 0.35 -0.13 -0.19 2887
0.35 -0.02 0.52 -1.39 10.32 0.38 -0.14 -0.22 2894
0.42 -0.03 0.63 -1.35 10.46 0.43 -0.16 -0.26 2902
0.41 -0.04 0.83 -1.57 10.87 0.51 -0.16 -0.33 2909
0.41 -0.03 1.15 -1.48 10.68 0.60 -0.14 -0.37 2916
0.45 -0.02 0.80 -1.78 11.74 0.71 -0.03 -0.44 2923
0.52 -0.03 -0.64 -1.71 12.23 0.98 0.04 -0.44 2930
0.58 -0.04 -0.18 -1.70 11.93 1.26 -0.07 -0.36 2937
0.66 -0.04 -0.24 -1.73 12.32 1.38 -0.07 -0.33 2945
0.70 -0.05 -0.68 -1.70 12.87 1.57 -0.08 -0.26 2952
0.74 -0.04 -0.43 -1.91 13.64 1.76 -0.09 -0.19 2959
0.76 -0.02 -0.11 -1.94 13.66 2.03 -0.09 -0.15 2966
0.80 -0.04 -0.05 -2.12 14.25 2.31 -0.05 -0.13 2973
0.84 -0.04 0.09 -2.07 14.41 2.58 -0.01 -0.12 2979
0.86 -0.05 0.27 -2.25 14.97 2.93 0.02 -0.11 2988
0.87 -0.04 0.78 -2.41 15.09 3.24 0.01 -0.13 2995
0.89 -0.03 1.16 -2.32 15.18 3.60 0.00 -0.17 3002
0.90 -0.03 0.89 -2.13 14.92 3.97 0.03 -0.25 3009
0.92 -0.03 1.01 -2.46 16.32 4.23 0.08 -0.33 3016
0.84 -0.04 1.68 -2.59 17.36 4.28 0.02 -0.41 3023
0.80 -0.04 2.77 -3.22 17.82 4.28 -0.16 -0.54 3031
0.67 -0.03 2.47 -2.96 17.08 4.28 -0.27 -0.72 3038
0.54 -0.03 1.72 -3.98 19.41 4.28 -0.45 -0.85 3045
0.40 -0.01 1.34 -6.03 22.70 4.28 -0.67 -0.92 3052
0.25 -0.02 1.39 -6.84 26.03 4.28 -0.69 -0.90 3059
0.17 -0.01 -2.31 -7.00 26.12 4.28 -0.59 -0.94 3066
0.13 -0.01 -6.27 -8.55 32.07 4.28 -0.87 -0.93 3073
0.08 -0.01 -2.87 -11.51 33.74 4.28 -1.95 -0.63 3081
0.05 -0.01 0.80 -7.54 29.20 4.28 -2.47 -0.59 3087
0.03 -0.00 3.37 -5.86 31.43 4.28 -2.86 -0.59 3094
0.02 -0.00 7.19 0.65 29.61 4.28 -2.99 -0.50 3101
0.00 0.00 8.44 6.08 25.44 4.28 -2.86 -0.48 3108
0.00 -0.00 8.23 16.85 23.21 4.28 -2.58 -0.48 3117
0.00 0.00 9.74 20.88 19.75 4.28 -2.32 -0.56 3123
0.00 0.00 11.52 27.09 5.39 4.28 -1.88 -0.68 3130
0.01 -0.00 11.45 20.69 20.66 2.44 -0.60 -0.58 3138
0.00 0.00 6.34 19.47 24.09 -0.34 0.37 -0.63 3144
0.00 0.00 1.52 17.12 19.10 -2.27 0.65 -0.59 3151
0.00 0.00 -1.39 13.22 15.04 -3.06 0.03 -0.56 3159
0.00 0.00 -0.60 10.60 12.37 -3.27 -0.56 -0.56 3166
0.00 0.00 0.63 8.56 10.30 -3.23 -0.80 -0.57 3173
0.00 0.00 1.92 7.63 7.72 -3.20 -0.77 -0.58 3180
0.00 0.00 2.82 7.32 6.91 -3.28 -0.51 -0.59 3187
0.00 0.00 2.97 6.86 7.54 -3.45 -0.07 -0.61 3194
0.00 0.00 2.21 6.65 7.89 -3.78 0.38 -0.60 3202
0.00 0.00 0.63 6.47 8.41 -4.14 0.78 -0.53 3209
0.00 0.00 -0.90 5.68 8.91 -4.27 0.92 -0.39 3216
0.00 -0.00 -2.19 4.69 9.23 -4.28 0.81 -0.25 3223
0.00 0.00 -2.40 3.57 9.55 -4.28 0.57 -0.08 3230
0.00 0.00 -1.99 2.81 9.71 -4.28 0.37 0.06 3237
0.00 0.00 -1.23 2.11 9.79 -4.28 0.22 0.11 3245
0.00 0.00 -0.59 1.61 9.94 -4.28 0.27 0.15 3252
0.00 0.00 -0.21 1.11 10.65 -4.28 0.37 0.15 3259
0.00 -0.00 0.00 0.76 11.17 -4.28 0.60 0.14 3266
0.00 0.00 -0.28 0.76 11.83 -4.28 0.74 0.10 3273
0.00 0.00 -0.38 0.08 12.88 -4.28 0.92 0.02 3280
0.00 0.00 -1.36 -0.22 14.05 -4.28 1.03 -0.07 3288
0.00 0.00 -0.59 -0.76 14.55 -4.28 1.05 -0.18 3295
0.00 -0.00 -1.48 -0.48 15.70 -4.28 0.98 -0.31 3302
0.00 0.00 -1.15 -1.64 16.81 -4.28 0.94 -0.42 3309
0.00 0.00 -0.79 -1.73 17.37 -4.28 0.86 -0.48 3316
0.00 0.00 0.10 -2.22 17.77 -4.28 0.91 -0.53 3323
0.00 0.00 0.40 -2.66 19.40 -4.28 1.02 -0.52 3331
0.00 0.00 0.58 -3.37 19.90 -4.28 1.18 -0.48 3338
0.00 -0.00 0.50 -3.71 21.16 -4.28 1.34 -0.39 3345
0.00 0.00 0.64 -4.10 22.58 -4.28 1.44 -0.28 3352
0.00 0.00 0.45 -4.64 24.21 -4.28 1.53 -0.13 3359
0.00 0.00 0.27 -5.53 25.27 -4.28 1.61 0.06 3366
0.00 0.00 0.14 -7.04 26.09 -4.28 1.72 0.18 3374
-0.00 0.00 0.04 -9.13 27.12 -4.28 1.90 0.31 3381
0.01 -0.00 -0.12 -11.24 29.26 -4.22 2.05 0.39 3388
0.00 0.00 -0.76 -14.43 29.98 -4.24 2.18 0.50 3395
0.00 0.00 -0.94 -17.18 28.66 -4.28 2.18 0.58 3402
0.00 0.00 -1.65 -18.30 26.45 -4.28 2.03 0.58 3409
0.00 0.00 -3.37 -23.00 24.14 -4.28 1.95 0.64 3417
0.00 0.00 -5.61 -26.32 19.44 -4.28 2.09 0.79 3424
0.00 -0.00 -7.51 -33.52 16.60 -4.28 2.01 0.90 3431
0.00 0.00 -8.97 -47.12 10.31 -4.28 1.68 0.89 3438
0.00 0.00 -10.04 -59.12 3.25 -3.97 1.35 0.71 3445
0.00 0.00 -13.20 -67.64 -1.74 -3.16 1.28 0.42 3452
0.00 0.00 -15.90 -67.04 -2.41 -1.56 1.01 0.18 3460
-0.00 0.00 -16.93 -56.83 -0.05 0.31 -0.03 -0.18 3467
0.00 -0.00 -14.43 -59.30 18.80 2.48 -2.21 -0.67 3475
0.00 0.00 -4.94 -33.50 9.70 4.28 -2.56 -1.25 3481
-0.00 0.02 2.15 5.27 3.78 4.28 -2.35 -1.47 3488
-0.01 0.13 2.25 1.03 21.93 4.25 -1.89 -1.26 3495
-0.04 0.41 6.39 1.86 19.69 3.41 -1.11 -0.82 3503
-0.03 0.66 4.16 -1.71 15.86 3.45 -0.85 -0.35 3511
-0.04 0.79 2.82 -6.03 18.66 4.13 -0.47 0.07 3518
-0.05 0.88 3.10 -4.33 16.65 4.28 0.21 0.74 3525
-0.06 1.02 -2.53 -3.43 24.60 4.22 0.54 0.94 3532
-0.07 1.04 -4.54 -3.85 19.31 3.31 0.57 0.70 3539
-0.05 1.10 -4.64 -3.62 14.89 3.04 0.46 0.20 3547
-0.04 1.06 -1.56 -1.98 14.02 2.88 0.32 -0.16 3554
-0.05 0.99 1.89 -1.24 13.38 2.48 0.36 -0.19 3561
-0.05 0.97 2.67 -1.60 13.43 2.25 0.50 0.06 3568
-0.06 0.91 0.88 -3.19 16.96 1.06 -0.09 0.24 3575
-0.04 0.82 0.02 -2.81 13.12 0.12 -0.22 0.19 3582
-0.04 0.79 -1.24 -2.61 11.64 -0.07 -0.11 0.01 3590
-0.03 0.82 0.16 -1.25 10.03 -0.05 -0.07 -0.03 3596
0.01 0.75 0.51 -1.12 9.99 -0.06 -0.00 0.04 3603
0.01 0.73 -0.15 -1.44 10.10 -0.08 -0.03 0.02 3610
0.04 0.74 0.04 -1.27 10.04 -0.08 0.02 0.01 3617
0.03 0.74 0.26 -0.99 10.05 -0.07 0.05 0.01 3624
0.02 0.77 0.13 -0.85 9.93 -0.05 0.06 0.01 3632
0.03 0.79 0.20 -0.89 9.91 -0.04 0.08 0.01 3639
0.03 0.78 0.18 -0.77 9.94 -0.03 0.08 0.00 3646
0.02 0.76 0.16 -0.71 9.89 -0.01 0.08 0.00 3653
0.01 0.76 0.11 -0.72 9.84 0.00 0.09 0.00 3660
0.02 0.75 0.26 -0.66 9.86 0.04 0.09 -0.00 3667
0.02 0.72 0.25 -0.61 9.87 0.06 0.07 -0.00 3675
0.03 0.68 0.28 -0.67 9.81 0.09 0.05 -0.01 3682
0.02 0.67 0.33 -0.66 9.85 0.11 0.03 -0.01 3689
0.03 0.61 0.35 -0.70 9.84 0.13 0.00 -0.02 3696
0.02 0.58 0.30 -0.66 9.84 0.16 -0.02 -0.02 3703
0.01 0.52 0.34 -0.72 9.82 0.18 -0.04 -0.03 3710
0.03 0.45 0.36 -0.81 9.74 0.19 -0.05 -0.04 3718
0.04 0.41 0.29 -0.80 9.69 0.19 -0.06 -0.05 3725
0.01 0.38 0.33 -0.80 9.72 0.19 -0.07 -0.06 3732
0.01 0.34 0.30 -0.77 9.71 0.19 -0.07 -0.06 3739
0.02 0.33 0.26 -0.82 9.69 0.19 -0.07 -0.06 3746
0.05 0.29 0.30 -0.90 9.55 0.18 -0.07 -0.06 3753
0.08 0.25 0.29 -0.84 9.62 0.17 -0.07 -0.07 3761
0.07 0.22 0.29 -0.87 9.63 0.16 -0.07 -0.06 3768
0.07 0.23 0.29 -0.92 9.66 0.15 -0.07 -0.06 3775
0.07 0.19 0.32 -0.93 9.67 0.14 -0.08 -0.07 3782
0.08 0.18 0.30 -0.97 9.66 0.13 -0.08 -0.08 3789
0.10 0.20 0.24 -1.00 9.62 0.12 -0.08 -0.08 3796
0.12 0.20 0.23 -1.09 9.71 0.11 -0.08 -0.09 3804
0.14 0.13 0.21 -1.11 9.63 0.11 -0.07 -0.09 3811
0.13 0.11 0.45 -1.18 9.74 0.12 -0.07 -0.09 3818
0.12 0.11 0.14 -0.92 9.65 0.12 -0.07 -0.10 3825
0.16 0.12 0.24 -1.01 9.81 0.13 -0.07 -0.10 3832
0.15 0.09 0.05 -1.12 9.76 0.14 -0.06 -0.11 3840
0.16 0.08 0.16 -1.08 9.80 0.16 -0.05 -0.10 3847
0.21 0.07 -0.02 -0.99 9.81 0.17 -0.04 -0.11 3854
0.19 0.05 0.20 -1.05 9.89 0.19 -0.04 -0.11 3861
0.19 0.03 0.04 -1.09 9.85 0.23 -0.04 -0.11 3868
0.24 0.02 0.23 -1.09 9.97 0.25 -0.05 -0.11 3875
0.27 0.03 0.42 -1.23 10.13 0.30 -0.07 -0.12 3884
0.28 0.02 0.28 -1.24 10.10 0.34 -0.09 -0.14 3891
0.33 0.00 0.31 -1.32 10.28 0.38 -0.13 -0.16 3898
0.38 -0.02 0.27 -1.39 10.26 0.42 -0.15 -0.18 3905
0.40 -0.03 0.39 -1.48 10.39 0.47 -0.16 -0.22 3912
0.44 -0.02 1.20 -1.48 10.65 0.53 -0.16 -0.26 3919
0.49 -0.02 0.74 -1.49 10.96 0.63 -0.17 -0.30 3927
0.57 -0.03 0.89 -1.74 11.07 0.73 -0.12 -0.38 3934
0.65 -0.04 1.05 -1.86 11.95 0.90 0.06 -0.44 3940
0.62 -0.04 -1.42 -1.53 12.95 1.25 0.26 -0.40 3948
0.62 -0.04 -0.56 -1.72 12.51 1.50 0.23 -0.29 3955
0.68 -0.03 -0.59 -1.60 13.44 1.70 0.30 -0.23 3962
0.71 -0.03 0.03 -1.78 14.32 1.97 0.24 -0.18 3970
0.79 -0.04 0.24 -1.32 14.53 2.24 0.16 -0.14 3977
0.78 -0.05 0.07 -1.80 14.37 2.54 0.13 -0.16 3984
0.81 -0.04 0.19 -2.08 14.33 2.82 0.13 -0.16 3991
0.83 -0.04 0.27 -2.11 14.58 3.18 0.14 -0.16 3998
0.83 -0.03 0.73 -2.13 14.56 3.53 0.14 -0.17 4005
0.85 -0.03 1.00 -2.24 15.02 3.82 0.14 -0.24 4013
0.86 -0.04 1.20 -2.16 15.17 4.16 0.14 -0.30 4020
0.82 -0.04 1.71 -2.36 16.04 4.28 0.15 -0.40 4027
0.80 -0.04 1.96 -2.58 17.31 4.28 0.06 -0.50 4034
0.72 -0.03 3.05 -2.68 17.83 4.28 -0.18 -0.65 4041
0.61 -0.02 2.57 -2.81 18.07 4.28 -0.43 -0.84 4048
0.49 -0.02 2.25 -4.44 19.54 4.28 -0.66 -0.98 4056
0.36 -0.01 1.48 -6.46 24.05 4.28 -0.94 -1.03 4063
0.24 -0.02 1.65 -6.63 24.55 4.28 -0.92 -0.97 4069
0.18 -0.01 -2.05 -7.10 26.29 4.28 -0.76 -1.04 4077
0.09 -0.01 -5.15 -9.13 32.69 4.28 -1.21 -1.00 4083
0.08 -0.01 -2.06 -12.16 32.62 4.28 -2.29 -0.76 4091
0.05 -0.01 2.29 -9.51 31.44 4.28 -2.80 -0.81 4098
0.03 -0.00 5.10 -4.68 31.48 4.28 -3.07 -0.74 4105
0.00 0.00 7.45 1.36 28.46 4.28 -3.09 -0.65 4112
0.00 0.00 8.28 8.43 24.25 4.28 -3.01 -0.64 4119
0.00 -0.00 9.18 14.19 22.64 4.28 -2.75 -0.63 4127
0.00 0.00 11.92 21.37 19.78 4.28 -2.44 -0.73 4133
0.00 0.00 13.33 21.28 4.29 4.28 -1.61 -0.77 4141
0.00 0.00 12.35 21.42 19.09 2.38 0.09 -0.60 4148
0.00 0.00 6.48 19.47 21.72 -0.32 1.11 -0.49 4155
0.00 0.00 1.51 16.08 18.21 -2.16 1.20 -0.31 4162
0.00 0.00 -2.09 12.35 15.03 -2.98 0.51 -0.09 4169
0.00 0.00 -1.55 9.36 12.43 -3.13 -0.14 0.05 4176
0.00 0.00 -0.14 8.60 10.42 -3.07 -0.47 0.13 4184
0.00 0.00 0.37 7.91 8.28 -3.07 -0.44 0.19 4191
0.00 0.00 0.51 7.53 8.04 -3.22 -0.30 0.23 4198
0.00 0.00 0.08 7.35 8.68 -3.53 -0.06 0.25 4205
0.00 0.00 -0.56 7.29 9.23 -3.89 0.14 0.27 4212
0.00 0.00 -1.13 6.99 9.38 -4.25 0.36 0.29 4219
0.00 0.00 -2.24 6.08 9.88 -4.28 0.46 0.33 4227
0.00 0.00 -2.81 4.95 10.30 -4.28 0.43 0.35 4234
0.00 0.00 -2.90 3.64 10.46 -4.28 0.32 0.33 4241
0.00 0.00 -2.60 2.65 10.47 -4.28 0.23 0.25 4248
0.00 0.00 -2.26 1.89 10.49 -4.28 0.16 0.13 4255
0.00 0.00 -1.87 1.04 10.76 -4.28 0.17 -0.04 4262
0.00 0.00 -1.45 0.14 11.73 -4.28 0.35 -0.22 4270
0.00 0.00 -1.59 0.13 12.21 -4.28 0.53 -0.43 4277
0.00 0.00 -1.88 -0.07 12.87 -4.28 0.69 -0.64 4284
0.00 0.00 -1.68 -0.46 13.61 -4.28 0.80 -0.83 4291
0.00 -0.00 -1.71 -1.03 15.48 -4.28 0.93 -1.05 4298
0.00 0.00 -1.84 -1.04 14.84 -4.28 0.92 -1.32 4305
0.00 0.00 -1.86 -2.00 17.00 -4.28 0.98 -1.55 4313
0.00 0.00 -2.02 -2.89 17.34 -4.28 1.02 -1.77 4320
0.00 0.00 -1.24 -3.11 17.17 -4.28 1.03 -1.90 4327
0.00 0.00 -0.84 -3.99 17.70 -4.28 1.15 -1.99 4334
0.00 0.00 -0.54 -5.44 18.37 -4.28 1.29 -1.99 4341
0.00 0.00 -0.27 -5.33 18.37 -4.28 1.50 -1.91 4348
0.00 0.00 -0.19 -5.83 19.07 -4.28 1.67 -1.75 4356
0.00 0.00 -0.16 -5.94 19.72 -4.28 1.78 -1.55 4363
0.00 0.00 0.01 -6.19 20.98 -4.28 1.87 -1.27 4370
0.00 0.00 -0.03 -6.46 22.45 -4.24 1.91 -0.92 4377
0.00 0.00 0.01 -7.00 23.38 -4.14 1.90 -0.58 4384
0.00 0.00 0.49 -8.28 24.37 -4.01 1.97 -0.21 4391
0.00 0.00 0.53 -10.14 25.48 -3.87 2.16 0.07 4399
0.00 0.00 0.08 -13.27 26.16 -3.89 2.44 0.39 4406
0.00 0.00 -0.61 -15.37 26.31 -4.09 2.55 0.64 4413
0.00 0.00 -0.49 -17.52 25.55 -4.27 2.58 0.77 4420
0.00 0.00 -1.25 -20.48 23.38 -4.28 2.65 0.95 4427
0.00 0.00 -2.94 -25.00 20.21 -4.28 2.65 1.12 4434
0.00 0.00 -7.13 -28.65 16.91 -4.28 2.52 1.28 4442
0.00 0.00 -11.34 -33.35 13.12 -4.27 2.67 1.63 4450
0.00 0.00 -14.63 -40.08 9.36 -3.63 2.38 1.84 4456
0.00 0.00 -16.80 -52.64 5.25 -2.96 1.74 1.94 4463
0.00 0.00 -17.36 -61.88 1.21 -2.46 0.85 1.72 4470
0.00 0.00 -15.63 -64.36 -1.58 -1.57 -0.10 1.38 4477
0.00 0.00 -11.91 -61.54 -5.73 -0.37 -0.86 0.77 4485
0.00 0.00 -15.54 -67.43 7.83 3.17 -2.70 0.02 4492
-0.00 0.00 -6.18 2.21 -1.44 4.28 -2.42 -0.59 4499
-0.01 0.12 -0.69 7.78 11.83 4.28 -2.40 -0.78 4506
-0.03 0.44 0.05 4.01 24.82 4.00 -1.39 -0.53 4513
-0.04 0.76 3.44 0.81 15.95 3.79 -1.03 -0.27 4521
-0.06 0.97 -0.49 -7.27 19.33 4.25 -0.68 -0.04 4529
-0.07 1.09 3.00 -5.43 14.15 4.28 -0.09 0.43 4536
-0.07 1.19 -2.16 -5.04 28.30 4.28 0.72 0.76 4543
-0.06 1.30 -4.09 -4.41 21.19 3.70 0.80 0.54 4550
-0.07 1.26 -3.02 -4.12 16.70 3.37 0.31 0.03 4557
-0.07 1.24 -0.04 -2.19 15.81 3.11 0.34 -0.14 4564
-0.04 1.15 1.75 -1.47 14.19 2.62 0.54 -0.12 4572
-0.05 1.10 2.94 -2.39 17.47 2.02 0.10 0.02 4578
-0.04 1.00 1.95 -1.54 12.78 0.67 -0.30 0.15 4586
-0.02 0.91 -0.44 -3.08 12.72 0.21 -0.25 0.16 4593
-0.04 0.81 -0.42 -1.97 11.76 0.05 -0.14 0.06 4600
-0.02 0.81 0.01 -1.43 10.44 0.01 -0.10 0.03 4606
-0.02 0.79 0.34 -1.08 10.05 0.02 -0.05 0.07 4614
0.00 0.82 0.05 -0.63 10.04 -0.01 -0.04 0.05 4621
0.02 0.70 0.18 -1.15 10.02 -0.02 0.00 0.03 4628
0.04 0.74 0.17 -0.79 9.89 -0.02 0.04 0.03 4635
0.03 0.71 0.23 -0.81 9.92 -0.00 0.06 0.03 4642
0.04 0.72 0.30 -0.75 9.84 0.01 0.07 0.03 4649
0.04 0.74 0.31 -0.63 9.81 0.03 0.08 0.02 4657
0.04 0.74 0.34 -0.72 9.88 0.05 0.08 0.02 4664
0.05 0.72 0.31 -0.63 9.92 0.08 0.07 0.01 4671
0.05 0.64 0.27 -0.57 9.90 0.11 0.07 0.00 4678
0.04 0.64 0.30 -0.59 9.86 0.14 0.07 0.00 4685
0.04 0.53 0.32 -0.65 9.86 0.16 0.06 -0.00 4692
0.03 0.51 0.34 -0.65 9.82 0.17 0.05 -0.01 4700
0.03 0.49 0.44 -0.62 9.81 0.18 0.05 -0.01 4707
0.04 0.42 0.42 -0.65 9.81 0.20 0.05 -0.02 4714
0.05 0.41 0.44 -0.71 9.82 0.20 0.04 -0.03 4721
0.05 0.36 0.46 -0.79 9.73 0.21 0.03 -0.04 4728
0.05 0.30 0.47 -0.79 9.68 0.21 0.02 -0.05 4736
0.04 0.28 0.51 -0.80 9.64 0.20 0.01 -0.05 4743
0.05 0.23 0.55 -0.76 9.55 0.20 -0.01 -0.06 4750
0.07 0.21 0.53 -0.84 9.55 0.20 -0.02 -0.06 4757
0.07 0.17 0.49 -0.84 9.56 0.19 -0.02 -0.07 4764
0.05 0.15 0.48 -0.95 9.62 0.17 -0.02 -0.07 4771
0.05 0.13 0.47 -0.94 9.57 0.16 -0.02 -0.07 4779
0.07 0.09 0.48 -0.96 9.66 0.15 -0.02 -0.07 4786
0.06 0.11 0.42 -1.01 9.66 0.14 -0.01 -0.08 4793
0.08 0.12 0.51 -0.79 9.64 0.13 -0.01 -0.08 4800
0.07 0.07 0.71 -1.03 9.69 0.12 -0.03 -0.09 4807
0.10 0.06 0.47 -1.14 9.82 0.11 -0.04 -0.08 4814
0.07 0.08 0.50 -1.10 9.65 0.11 -0.05 -0.09 4822
0.08 0.09 0.42 -1.09 9.63 0.10 -0.06 -0.09 4829
0.07 0.07 0.47 -1.01 9.77 0.11 -0.06 -0.10 4836
0.09 0.07 0.37 -1.00 9.75 0.13 -0.07 -0.10 4843
0.10 0.05 0.30 -1.06 9.81 0.14 -0.07 -0.11 4850
0.13 0.04 0.32 -1.14 9.95 0.16 -0.08 -0.11 4857
0.13 0.04 0.39 -1.07 9.84 0.18 -0.08 -0.11 4865
0.12 0.03 0.29 -1.09 9.83 0.20 -0.09 -0.11 4872
0.14 0.02 0.38 -1.19 9.85 0.22 -0.09 -0.12 4879
0.16 0.02 0.39 -1.12 9.91 0.25 -0.09 -0.13 4886
0.16 0.00 0.62 -1.18 9.93 0.27 -0.10 -0.14 4893
0.17 0.01 0.61 -1.15 10.08 0.31 -0.11 -0.16 4901
0.18 -0.01 0.51 -1.27 9.96 0.33 -0.13 -0.17 4908
0.26 0.00 0.47 -1.36 10.08 0.36 -0.14 -0.20 4915
0.29 -0.01 0.59 -1.43 10.22 0.41 -0.15 -0.23 4923
0.29 -0.02 0.85 -1.51 10.55 0.46 -0.17 -0.27 4930
0.31 -0.03 1.15 -1.57 10.77 0.54 -0.18 -0.33 4937
0.34 -0.02 1.42 -1.65 11.15 0.64 -0.17 -0.43 4944
0.35 -0.02 1.82 -1.87 11.88 0.78 -0.08 -0.53 4952
0.42 -0.01 -0.84 -1.80 13.52 1.10 0.03 -0.53 4959
0.53 -0.03 -0.40 -1.62 13.03 1.46 -0.08 -0.39 4966
0.58 -0.03 -0.07 -1.63 13.47 1.68 -0.04 -0.35 4973
0.61 -0.05 -0.77 -1.48 13.95 1.95 -0.03 -0.28 4980
0.66 -0.04 -0.33 -1.88 14.10 2.21 -0.02 -0.21 4987
0.69 -0.03 -0.35 -1.96 15.00 2.53 0.08 -0.16 4995
0.72 -0.02 0.17 -2.02 14.97 2.87 0.15 -0.13 5002
0.76 -0.03 0.57 -2.20 15.01 3.22 0.21 -0.14 5009
0.76 -0.04 0.70 -2.06 15.24 3.60 0.26 -0.18 5016
0.77 -0.04 0.25 -1.67 15.83 3.92 0.29 -0.21 5023
0.75 -0.04 0.61 -1.77 16.12 4.23 0.29 -0.24 5030
0.75 -0.04 1.33 -2.00 17.29 4.28 0.28 -0.31 5038
0.76 -0.03 1.54 -2.56 18.05 4.28 0.15 -0.39 5045
0.68 -0.02 2.70 -2.53 17.50 4.28 -0.01 -0.51 5052
0.61 -0.03 1.68 -2.43 18.03 4.28 -0.18 -0.65 5059
0.42 -0.03 1.76 -4.24 20.32 4.28 -0.31 -0.73 5066
0.32 -0.02 1.56 -6.45 25.53 4.28 -0.48 -0.77 5073
0.23 -0.01 1.86 -6.88 26.98 4.28 -0.53 -0.82 5081
0.16 -0.02 -2.92 -7.62 27.59 4.28 -0.62 -0.96 5087
0.11 -0.01 -6.33 -8.63 33.84 4.28 -1.20 -0.82 5094
0.08 -0.01 -2.91 -11.23 32.14 4.28 -1.89 -0.51 5102
0.04 -0.00 1.89 -6.44 30.28 4.28 -2.66 -0.54 5108
0.03 -0.00 5.75 -2.57 30.58 4.28 -2.81 -0.39 5115
0.02 -0.00 8.64 1.97 29.31 4.28 -2.66 -0.26 5123
0.03 -0.00 10.95 7.87 26.12 4.28 -1.89 -0.23 5131
0.02 -0.00 12.20 13.23 25.67 4.28 -1.03 -0.35 5138
0.00 0.00 9.52 28.82 18.38 4.28 -0.06 -0.66 5144
0.00 0.00 11.43 27.91 -1.55 4.21 0.89 -1.04 5151
0.00 0.00 6.09 22.67 26.96 1.00 1.32 -0.90 5158
0.00 0.00 -0.90 18.93 23.59 -1.68 0.99 -0.79 5166
0.00 0.00 -3.19 15.66 17.92 -3.07 0.28 -0.66 5173
0.00 0.00 -1.99 11.64 14.62 -3.45 -0.84 -0.57 5180
0.00 0.00 0.96 8.98 11.28 -3.39 -1.32 -0.62 5187
0.00 0.00 2.46 7.90 9.20 -3.36 -1.18 -0.67 5194
0.00 0.00 3.24 7.25 7.48 -3.47 -0.78 -0.71 5201
0.00 0.00 3.17 6.91 7.48 -3.59 -0.28 -0.74 5209
0.00 0.00 1.55 6.56 8.15 -3.86 0.38 -0.74 5216
0.00 0.00 -0.47 6.42 8.71 -4.16 0.93 -0.66 5223
0.00 0.00 -2.95 6.47 9.26 -4.28 1.11 -0.54 5230
0.00 0.00 -4.80 5.52 10.49 -4.28 1.01 -0.34 5237
0.00 0.00 -5.41 3.76 11.11 -4.28 0.73 -0.12 5244
0.00 -0.00 -4.94 2.71 11.18 -4.28 0.36 0.02 5252
0.00 -0.00 -3.82 1.31 11.18 -4.28 0.12 0.10 5259
0.00 0.00 -3.37 0.79 10.99 -4.28 0.02 0.10 5266
0.00 0.00 -2.45 -0.09 11.63 -4.28 0.06 0.04 5273
0.00 0.00 -1.70 -0.40 11.70 -4.28 0.22 -0.09 5280
0.00 0.00 -1.87 -0.51 12.40 -4.28 0.34 -0.30 5287
0.00 0.00 -1.45 -1.83 13.54 -4.28 0.57 -0.57 5295
0.00 0.00 -1.34 -1.93 13.90 -4.28 0.67 -0.82 5302
0.00 0.00 -1.13 -2.69 16.06 -4.28 0.76 -1.11 5309
0.00 0.00 -2.02 -2.16 15.32 -4.28 0.62 -1.41 5316
0.00 0.00 -1.61 -3.81 17.32 -4.28 0.52 -1.55 5323
0.00 0.00 -0.82 -4.38 16.95 -4.28 0.41 -1.65 5330
0.00 0.00 0.32 -5.22 17.38 -4.28 0.39 -1.69 5338
0.00 0.00 1.05 -5.81 17.34 -4.28 0.47 -1.66 5345
0.00 0.00 1.93 -6.50 18.59 -4.28 0.58 -1.56 5352
0.00 0.00 2.36 -6.57 19.53 -4.28 0.76 -1.40 5359
0.00 0.00 2.74 -6.96 20.08 -4.28 0.95 -1.16 5366
0.00 0.00 2.70 -7.14 21.61 -4.28 1.06 -0.85 5373
0.00 0.00 2.89 -7.70 22.56 -4.28 1.10 -0.51 5381
0.00 0.00 3.74 -8.12 23.58 -4.28 1.16 -0.12 5388
0.00 0.00 4.73 -9.03 25.53 -4.28 1.44 0.18 5395
0.00 0.00 5.09 -10.32 26.07 -4.28 2.07 0.45 5402
0.00 0.00 4.63 -11.86 26.38 -4.28 2.68 0.60 5409
0.00 0.00 3.01 -13.68 25.91 -4.28 3.31 0.70 5416
0.00 0.00 0.36 -16.56 24.98 -4.28 3.70 0.82 5424
0.00 0.00 -2.19 -19.58 23.46 -4.28 3.77 0.96 5431
0.00 0.00 -5.11 -23.28 21.88 -4.28 3.53 1.15 5438
0.00 0.00 -7.86 -27.19 18.72 -4.28 3.17 1.36 5445
0.00 0.00 -9.95 -29.45 14.26 -4.07 2.77 1.60 5452
0.00 0.00 -12.12 -37.51 10.99 -3.40 2.73 1.85 5460
0.00 0.00 -14.48 -52.46 7.79 -3.05 2.58 1.90 5467
0.00 -0.00 -17.07 -62.29 2.45 -2.61 1.82 1.58 5475
0.02 -0.00 -17.62 -65.62 -1.54 -1.78 0.83 1.05 5482
0.00 0.00 -15.59 -60.30 -0.83 -0.15 -0.19 0.40 5488
-0.00 0.00 -12.05 -49.09 3.00 1.52 -1.37 -0.42 5495
0.00 -0.00 -7.28 -30.24 12.80 2.67 -2.12 -0.95 5504
0.00 0.00 -8.98 4.73 11.69 4.28 -3.51 -1.18 5510
-0.00 0.05 2.57 8.17 9.26 3.95 -2.61 -0.96 5517
-0.03 0.34 3.93 4.88 15.15 3.70 -1.82 -0.46 5524
-0.04 0.57 3.33 -1.01 13.87 4.01 -1.34 -0.00 5532
-0.04 0.79 1.40 -4.39 14.76 4.28 -1.28 0.30 5539
-0.05 0.97 2.31 -5.07 20.55 4.28 -0.15 0.75 5547
-0.06 1.09 -2.86 -4.48 23.23 4.28 0.86 1.23 5554
-0.07 1.11 -7.04 -5.93 23.18 4.05 0.69 0.79 5561
-0.07 1.17 -4.92 -4.83 19.35 3.70 0.47 0.20 5568
-0.07 1.18 -1.48 -2.64 16.68 3.32 0.40 -0.14 5575
-0.04 1.09 0.49 -1.63 13.65 2.84 0.46 -0.18 5582
-0.04 1.06 1.93 -1.32 12.54 2.56 0.50 -0.11 5590
-0.04 1.00 2.77 -2.43 15.86 2.28 0.52 0.05 5596
-0.06 0.91 0.73 -2.39 15.27 0.76 -0.25 0.13 5604
-0.05 0.85 0.23 -3.25 13.30 0.15 -0.21 0.12 5611
-0.04 0.82 -0.74 -2.49 10.90 -0.06 -0.09 0.04 5618
-0.02 0.73 0.10 -1.14 9.89 -0.05 -0.04 0.01 5624
0.01 0.69 0.52 -1.24 10.06 -0.07 -0.02 0.04 5632
0.01 0.69 0.25 -1.17 9.75 -0.10 -0.03 0.02 5639
0.01 0.69 0.23 -1.28 10.07 -0.11 -0.02 0.00 5646
0.02 0.71 0.10 -0.91 10.09 -0.09 -0.01 0.00 5653
0.03 0.69 0.10 -0.82 10.01 -0.06 -0.00 0.00 5660
0.03 0.73 0.23 -0.86 9.91 -0.04 0.00 -0.00 5667
0.03 0.72 0.16 -0.74 9.22 -0.03 0.01 -0.00 5675
0.01 0.73 0.15 -0.66 9.82 -0.01 0.02 -0.01 5682
0.04 0.71 0.16 -0.66 9.84 0.01 0.03 -0.01 5689
0.02 0.73 0.15 -0.68 9.86 0.05 0.03 -0.01 5696
0.02 0.71 0.18 -0.72 9.85 0.08 0.03 -0.02 5703
0.04 0.66 0.17 -0.74 9.88 0.10 0.02 -0.01 5710
0.03 0.63 0.20 -0.67 9.88 0.12 0.02 -0.02 5718
0.05 0.59 0.25 -0.67 9.87 0.13 0.01 -0.02 5725
0.03 0.52 0.26 -0.70 9.83 0.15 0.00 -0.02 5732
0.02 0.49 0.25 -0.78 9.81 0.17 -0.00 -0.03 5739
0.02 0.46 0.25 -0.86 9.81 0.18 -0.01 -0.04 5746
0.03 0.43 0.26 -0.75 9.76 0.18 -0.02 -0.04 5753
0.04 0.34 0.33 -0.81 9.71 0.18 -0.03 -0.05 5761
0.04 0.30 0.33 -0.83 9.69 0.18 -0.04 -0.06 5768
0.03 0.26 0.33 -0.83 9.64 0.18 -0.05 -0.06 5775
0.05 0.25 0.31 -0.86 9.66 0.17 -0.06 -0.06 5782
0.05 0.24 0.28 -0.89 9.61 0.17 -0.07 -0.07 5789
0.06 0.19 0.29 -0.88 9.65 0.16 -0.08 -0.07 5796
0.05 0.19 0.33 -0.94 9.63 0.16 -0.09 -0.07 5804
0.06 0.13 0.34 -0.94 9.61 0.15 -0.10 -0.08 5811
0.08 0.17 0.41 -0.92 9.64 0.14 -0.10 -0.08 5818
0.10 0.15 0.21 -1.15 9.48 0.14 -0.11 -0.09 5825
0.13 0.13 0.77 -0.95 9.94 0.15 -0.10 -0.10 5832
0.12 0.08 0.39 -0.99 9.38 0.14 -0.10 -0.10 5839
0.12 0.11 0.15 -1.00 9.69 0.14 -0.11 -0.10 5847
0.15 0.08 0.20 -1.08 9.69 0.14 -0.10 -0.11 5854
0.12 0.06 0.11 -1.06 9.79 0.15 -0.09 -0.11 5861
0.17 0.08 0.29 -1.15 9.82 0.16 -0.08 -0.11 5868
0.17 0.08 -0.13 -1.07 9.81 0.16 -0.07 -0.11 5875
0.20 0.05 0.15 -1.09 9.83 0.18 -0.07 -0.12 5882
0.23 0.03 0.10 -1.07 9.86 0.21 -0.07 -0.12 5890
0.20 0.01 0.18 -1.14 9.85 0.24 -0.08 -0.13 5897
0.26 0.02 0.21 -1.08 10.06 0.27 -0.10 -0.14 5904
0.29 0.02 0.44 -1.17 10.24 0.31 -0.12 -0.15 5912
0.36 -0.02 0.39 -1.13 10.09 0.35 -0.15 -0.18 5919
0.42 -0.02 0.39 -1.40 10.17 0.40 -0.18 -0.21 5926
0.43 -0.03 0.40 -1.48 10.95 0.45 -0.21 -0.24 5934
0.50 -0.03 0.53 -1.43 10.65 0.51 -0.28 -0.29 5941
0.59 -0.03 0.74 -1.61 11.08 0.62 -0.37 -0.34 5948
0.67 -0.02 0.85 -1.59 11.32 0.73 -0.42 -0.40 5955
0.71 -0.04 1.61 -1.88 11.45 0.82 -0.33 -0.48 5962
0.72 -0.04 -0.07 -1.88 12.97 1.03 -0.10 -0.55 5969
0.80 -0.05 -2.05 -1.47 12.73 1.38 -0.16 -0.41 5977
0.85 -0.03 -0.61 -1.84 13.04 1.57 -0.16 -0.31 5984
0.91 -0.03 -0.90 -1.67 13.66 1.82 -0.09 -0.25 5991
0.94 -0.03 -0.28 -1.87 14.13 2.09 -0.09 -0.19 5998
1.03 -0.04 -0.76 -1.93 14.66 2.42 -0.02 -0.17 6005
1.08 -0.04 -0.29 -2.03 15.00 2.78 0.04 -0.14 6011
1.06 -0.04 0.08 -2.06 15.28 3.11 0.10 -0.13 6019
1.05 -0.04 0.48 -2.36 15.69 3.50 0.10 -0.16 6026
1.05 -0.03 0.40 -2.12 15.99 3.90 0.12 -0.21 6034
1.05 -0.02 0.97 -3.04 16.64 4.20 0.15 -0.30 6041
1.05 -0.04 1.11 -2.17 17.28 4.28 0.21 -0.32 6048
0.94 -0.03 2.24 -2.52 17.93 4.28 -0.04 -0.41 6055
0.87 -0.03 2.96 -2.40 18.28 4.28 -0.32 -0.55 6063
0.77 -0.02 2.21 -3.71 19.87 4.28 -0.56 -0.77 6070
0.52 -0.01 2.24 -4.46 22.08 4.28 -0.79 -0.91 6077
0.40 -0.01 2.30 -6.16 24.27 4.28 -1.04 -0.97 6084
0.29 -0.01 1.12 -5.11 25.41 4.28 -0.87 -1.01 6091
0.16 -0.02 -3.81 -7.38 31.01 4.28 -0.68 -1.06 6097
0.13 -0.01 -4.96 -9.77 34.68 4.28 -1.64 -1.01 6105
0.11 -0.01 -2.69 -11.54 34.21 4.28 -2.53 -0.74 6113
0.04 0.01 3.76 -8.97 32.47 4.28 -2.87 -0.80 6120
0.04 -0.00 4.78 -0.87 29.90 4.28 -3.07 -0.71 6126
0.03 -0.00 7.04 4.36 27.94 4.28 -2.94 -0.57 6133
0.02 -0.00 8.97 11.60 27.38 4.28 -2.63 -0.49 6140
0.00 0.00 11.08 21.70 23.12 4.28 -2.24 -0.51 6148
0.00 0.00 10.75 29.11 4.39 4.28 -1.35 -0.57 6155
0.00 0.00 11.05 25.33 13.76 2.86 -0.02 -0.49 6162
0.00 0.00 7.28 19.80 24.11 -0.45 0.72 -0.52 6169
0.00 0.00 1.36 15.72 19.70 -2.26 0.95 -0.45 6176
0.00 0.00 -1.04 13.47 14.64 -2.88 0.60 -0.31 6183
0.00 0.00 -0.45 11.31 11.47 -2.99 -0.08 -0.27 6191
0.00 0.00 0.93 9.20 9.56 -2.89 -0.35 -0.25 6198
0.00 0.00 1.73 8.10 7.74 -2.86 -0.30 -0.25 6205
0.00 0.00 2.23 7.63 7.45 -2.96 -0.09 -0.25 6212
0.00 0.00 1.37 7.67 8.21 -3.19 0.17 -0.27 6219
0.00 0.00 0.86 7.69 8.67 -3.61 0.50 -0.25 6226
0.00 0.00 -0.44 7.36 9.41 -4.08 0.69 -0.18 6234
0.00 0.00 -1.35 6.57 9.83 -4.27 0.74 -0.07 6241
0.00 0.00 -2.13 5.57 10.17 -4.28 0.62 -0.01 6248
0.00 0.00 -2.10 4.26 10.36 -4.28 0.45 0.06 6255
0.00 0.00 -1.70 3.24 10.37 -4.28 0.37 0.08 6262
0.00 0.00 -1.08 2.24 10.28 -4.28 0.35 0.05 6269
0.00 0.00 -0.94 1.64 10.22 -4.28 0.39 -0.00 6277
0.00 0.00 -0.63 0.68 11.16 -4.28 0.57 -0.09 6284
0.00 0.00 -0.76 0.44 11.34 -4.28 0.80 -0.20 6291
0.00 0.00 -1.10 0.34 11.81 -4.28 0.92 -0.31 6298
0.00 0.00 -1.63 -0.58 13.45 -4.28 1.16 -0.41 6305
0.00 0.00 -1.73 -0.74 13.39 -4.28 1.24 -0.50 6312
0.00 0.00 -1.15 -1.70 15.57 -4.28 1.40 -0.58 6320
0.00 0.00 -3.22 -0.12 14.16 -4.28 1.23 -0.69 6327
0.00 0.00 -2.64 -1.83 17.38 -4.28 1.16 -0.69 6334
0.00 0.00 -2.38 -1.97 16.85 -4.28 0.98 -0.67 6341
0.00 0.00 -0.68 -2.46 17.90 -4.28 0.89 -0.61 6348
0.00 0.00 -0.75 -2.72 17.83 -4.28 0.93 -0.55 6355
0.00 -0.00 -0.31 -3.45 19.59 -4.28 1.05 -0.44 6363
0.00 0.00 0.07 -3.67 20.14 -4.28 1.22 -0.30 6370
0.00 0.00 0.20 -3.96 21.61 -4.28 1.39 -0.20 6377
0.00 0.00 -0.09 -4.47 22.99 -4.28 1.48 -0.05 6384
0.00 0.00 -0.31 -5.13 24.15 -4.28 1.55 0.07 6391
0.00 0.00 -0.71 -6.27 25.30 -4.28 1.61 0.21 6398
0.00 0.00 -1.06 -7.55 26.58 -4.28 1.67 0.31 6406
0.00 0.00 -1.33 -9.46 27.54 -4.28 1.76 0.39 6413
0.00 0.00 -1.58 -12.55 28.10 -4.28 1.84 0.45 6420
0.00 0.00 -1.44 -15.22 27.21 -4.28 1.87 0.43 6427
0.00 0.00 -1.28 -18.44 25.46 -4.28 1.85 0.28 6434
0.00 0.00 -1.44 -22.61 22.77 -4.28 1.94 0.15 6441
-0.00 0.00 -2.60 -26.89 19.67 -4.28 2.09 0.12 6449
-0.00 0.01 -5.10 -31.94 15.13 -4.28 2.29 0.21 6457
0.00 0.00 -7.29 -36.86 11.50 -4.25 2.48 0.35 6463
0.00 0.00 -11.79 -48.67 7.93 -3.49 2.22 0.45 6470
0.00 0.00 -15.72 -59.56 2.44 -2.91 1.72 0.40 6477
0.00 0.00 -17.97 -63.87 -0.31 -2.09 1.07 0.33 6484
-0.00 0.01 -19.27 -62.18 -0.54 -0.87 0.28 0.27 6493
-0.00 0.00 -17.13 -53.73 1.18 0.38 -0.75 0.11 6500
0.00 0.00 -6.05 -47.81 -7.35 1.78 -1.83 -0.17 6506
0.00 0.00 -11.26 -7.43 14.72 4.28 -2.00 -1.01 6513
-0.01 0.07 5.11 17.13 0.64 4.14 -1.13 -1.07 6520
-0.03 0.38 1.64 2.54 23.78 3.70 -1.14 -0.83 6529
-0.05 0.73 6.80 -0.38 16.34 3.60 -1.06 -0.45 6536
-0.04 0.91 6.07 -5.05 17.62 4.27 -0.83 0.02 6543
-0.07 1.03 3.49 -5.73 17.86 4.28 0.14 0.95 6550
-0.06 1.13 -0.70 -5.70 26.27 4.28 0.67 1.32 6557
-0.08 1.22 -7.06 -4.48 23.18 3.99 0.85 0.99 6564
-0.07 1.27 -5.55 -3.92 17.08 3.71 0.49 0.19 6572
-0.07 1.24 -2.01 -2.47 14.82 3.44 0.37 -0.23 6579
-0.06 1.17 2.00 -1.55 14.01 3.04 0.37 -0.30 6586
-0.06 1.08 3.91 -3.39 18.99 2.64 0.36 -0.09 6593
-0.06 1.00 2.57 -2.47 15.77 0.96 -0.34 0.08 6600
-0.06 0.86 0.28 -3.62 13.09 0.25 -0.24 0.14 6607
-0.03 0.83 -0.35 -2.88 12.10 0.05 -0.22 0.05 6615
-0.03 0.80 0.27 -1.52 10.53 -0.01 -0.13 0.01 6622
-0.03 0.82 0.43 -1.07 9.84 0.00 -0.07 0.05 6628
0.02 0.74 0.27 -1.37 10.12 -0.02 -0.05 0.04 6635
0.02 0.72 0.29 -1.18 10.10 -0.04 -0.03 0.02 6642
0.00 0.76 0.31 -0.83 10.02 -0.03 -0.01 0.02 6649
0.03 0.79 0.32 -0.74 9.85 -0.01 0.02 0.02 6657
0.05 0.76 0.40 -0.78 9.86 0.01 0.03 0.01 6664
0.01 0.74 0.40 -0.70 9.82 0.02 0.04 0.01 6671
0.02 0.69 0.38 -0.62 9.79 0.04 0.04 -0.00 6678
0.00 0.68 0.40 -0.64 9.84 0.07 0.05 -0.00 6685
0.01 0.66 0.36 -0.64 9.87 0.10 0.04 -0.01 6692
0.02 0.65 0.44 -0.63 9.82 0.12 0.04 -0.01 6700
0.02 0.57 0.45 -0.66 10.39 0.15 0.03 -0.01 6707
0.02 0.52 0.42 -0.75 9.80 0.17 0.02 -0.03 6714
0.01 0.47 0.48 -0.72 9.83 0.18 0.01 -0.03 6721
0.01 0.41 0.53 -0.74 9.88 0.21 -0.02 -0.04 6728
0.01 0.40 0.61 -0.76 9.83 0.22 -0.06 -0.05 6735
0.04 0.37 0.62 -0.76 9.20 0.24 -0.09 -0.06 6743
0.07 0.31 0.60 -0.80 9.75 0.25 -0.12 -0.07 6750
0.07 0.27 0.56 -0.88 9.73 0.25 -0.15 -0.07 6757
0.07 0.23 0.58 -0.78 9.69 0.26 -0.16 -0.08 6764
0.06 0.18 0.48 -0.89 9.61 0.26 -0.18 -0.08 6771
0.08 0.12 0.50 -0.98 9.64 0.26 -0.19 -0.09 6778
0.08 0.14 0.45 -0.97 9.59 0.25 -0.20 -0.09 6786
0.11 0.09 0.38 -1.09 9.57 0.24 -0.20 -0.09 6793
0.13 0.07 0.45 -1.09 9.67 0.22 -0.20 -0.10 6800
0.13 0.04 0.40 -1.03 9.64 0.21 -0.19 -0.10 6807
0.13 0.07 0.34 -1.13 9.60 0.21 -0.19 -0.11 6814
0.18 0.05 -0.78 -1.61 9.63 0.21 -0.19 -0.11 6821
0.19 0.05 1.13 -1.11 9.91 0.22 -0.17 -0.13 6829
0.19 0.03 0.28 -1.17 9.63 0.21 -0.16 -0.13 6836
0.18 0.02 0.33 -1.18 9.80 0.20 -0.13 -0.13 6843
0.18 -0.01 0.13 -1.56 9.82 0.21 -0.12 -0.14 6850
0.11 0.01 0.28 -1.25 9.80 0.21 -0.11 -0.14 6857
0.19 0.03 0.25 -1.25 9.79 0.23 -0.09 -0.15 6864
0.21 0.00 0.07 -1.32 9.82 0.24 -0.08 -0.15 6872
0.26 -0.01 0.32 -1.32 9.89 0.26 -0.06 -0.17 6879
0.28 -0.02 0.34 -1.27 9.92 0.28 -0.05 -0.18 6886
0.27 -0.02 0.38 -1.33 9.96 0.31 -0.04 -0.19 6893
0.37 -0.02 0.36 -1.41 10.15 0.34 -0.03 -0.21 6901
0.40 -0.02 0.64 -1.45 10.21 0.38 -0.02 -0.22 6908
0.44 -0.02 0.65 -1.50 10.56 0.45 -0.00 -0.26 6915
0.48 -0.03 0.99 -1.53 10.84 0.52 0.03 -0.33 6923
0.48 -0.04 1.41 -1.77 10.88 0.63 0.16 -0.39 6930
0.46 -0.03 0.30 -1.73 11.99 0.86 0.35 -0.44 6937
0.46 -0.03 -0.38 -1.68 12.74 1.12 0.31 -0.34 6944
0.54 -0.02 0.08 -1.70 12.17 1.35 0.22 -0.34 6951
0.60 -0.04 -0.10 -1.73 12.52 1.48 0.19 -0.29 6958
0.65 -0.04 -0.82 -1.84 12.33 1.66 0.17 -0.24 6966
0.69 -0.04 -0.72 -1.92 13.15 1.86 0.16 -0.15 6973
0.70 -0.03 -0.22 -1.94 14.13 2.08 0.17 -0.09 6980
0.74 -0.02 0.61 -2.50 13.86 2.39 0.17 -0.07 6987
0.76 -0.02 0.48 -2.44 13.99 2.66 0.22 -0.08 6994
0.75 -0.02 0.09 -2.30 14.63 2.99 0.25 -0.08 7001
0.74 -0.03 0.76 -2.21 14.82 3.35 0.28 -0.08 7009
0.77 -0.04 1.16 -2.20 14.84 3.66 0.31 -0.13 7016
0.77 -0.03 1.37 -2.41 15.18 4.04 0.35 -0.19 7023
0.78 -0.02 1.49 -2.71 16.50 4.26 0.38 -0.28 7030
0.74 -0.03 2.22 -2.41 18.32 4.28 0.28 -0.36 7037
0.67 -0.03 3.21 -3.30 18.59 4.28 0.02 -0.51 7045
0.57 -0.04 2.83 -3.49 19.54 4.28 -0.21 -0.68 7052
0.43 -0.02 2.23 -3.95 21.35 4.28 -0.45 -0.81 7059
0.30 -0.02 2.13 -6.18 25.83 4.28 -0.78 -0.86 7066
0.21 -0.01 4.06 -7.61 25.95 4.28 -0.89 -0.88 7073
0.15 -0.01 -0.02 -8.23 26.86 4.28 -0.75 -1.10 7080
0.09 -0.01 -7.32 -7.98 32.53 4.28 -1.14 -1.09 7087
0.08 -0.01 -5.04 -11.33 34.55 4.28 -1.90 -0.70 7095
0.05 -0.01 0.74 -9.03 32.65 4.28 -2.67 -0.62 7101
0.03 -0.00 4.84 -4.16 32.69 4.28 -3.09 -0.47 7108
0.02 -0.00 9.40 1.95 31.98 4.28 -2.85 -0.28 7115
0.02 -0.00 10.72 8.85 27.17 4.28 -2.18 -0.24 7123
0.01 -0.00 12.03 15.99 24.04 4.28 -1.35 -0.32 7131
0.00 0.00 9.88 30.91 12.86 4.28 -0.26 -0.72 7137
0.00 0.00 13.17 23.09 9.30 3.70 0.69 -0.96 7144
0.00 0.00 5.83 19.23 27.62 0.61 1.33 -0.93 7151
0.00 0.00 -1.53 16.47 22.02 -1.38 1.18 -0.96 7158
0.00 0.00 -2.69 14.47 17.44 -2.42 0.47 -0.90 7165
0.00 0.00 -1.72 11.96 13.61 -2.71 -0.65 -0.90 7173
0.00 0.00 0.47 9.36 10.94 -2.76 -1.15 -0.95 7180
0.00 0.00 2.22 8.67 9.64 -2.80 -1.09 -0.98 7187
0.00 0.00 3.29 8.08 8.18 -2.92 -0.72 -1.00 7194
0.00 0.00 3.22 7.90 7.73 -3.15 -0.28 -1.00 7201
0.00 0.00 2.11 7.53 7.89 -3.48 0.25 -0.96 7208
0.00 0.00 0.40 6.96 8.10 -3.80 0.63 -0.86 7216
0.00 0.00 -1.78 6.48 8.48 -4.11 0.78 -0.72 7223
0.00 0.00 -2.87 5.58 8.80 -4.24 0.67 -0.52 7230
0.00 0.00 -3.33 5.13 9.21 -4.28 0.41 -0.33 7237
0.01 -0.00 -2.84 4.24 9.68 -4.28 0.16 -0.14 7244
0.00 0.00 -1.31 3.61 9.80 -4.28 0.10 0.01 7251
0.00 0.00 -1.42 3.20 9.87 -4.28 0.17 0.10 7259
0.00 0.00 -1.48 2.68 10.32 -4.28 0.31 0.17 7266
0.00 0.00 -2.05 2.42 11.19 -4.28 0.41 0.20 7273
0.00 0.00 -1.94 1.58 11.63 -4.28 0.60 0.21 7280
0.00 0.00 -2.47 1.26 12.03 -4.28 0.68 0.17 7287
0.00 0.00 -2.91 0.71 13.22 -4.28 0.74 0.09 7294
0.00 0.00 -2.58 0.23 13.69 -4.28 0.79 -0.04 7302
0.00 0.00 -2.67 -0.05 15.67 -4.28 0.84 -0.22 7309
0.00 0.00 -3.07 -0.15 15.53 -4.28 0.80 -0.43 7316
0.00 0.00 -2.82 -1.42 17.34 -4.28 0.84 -0.64 7323
0.00 0.00 -2.85 -1.58 17.71 -4.28 0.82 -0.80 7330
0.00 0.00 -2.31 -2.22 18.25 -4.28 0.81 -0.96 7337
0.00 0.00 -2.07 -2.86 18.82 -4.28 0.85 -1.04 7345
0.00 0.00 -1.48 -3.51 19.71 -4.28 0.95 -1.06 7352
0.00 0.00 -1.31 -3.89 20.53 -4.28 1.07 -1.03 7359
0.00 0.00 -1.13 -4.33 22.15 -4.28 1.15 -0.95 7366
0.00 0.00 -1.04 -4.59 23.50 -4.28 1.22 -0.85 7373
0.00 0.00 -1.00 -5.42 25.07 -4.28 1.29 -0.75 7380
0.00 0.00 -0.84 -6.62 26.13 -4.28 1.46 -0.65 7388
0.00 0.00 -0.56 -8.99 27.37 -4.28 1.79 -0.53 7395
0.00 0.00 -0.66 -11.75 28.68 -4.24 2.10 -0.40 7402
0.00 0.00 -0.70 -16.58 29.09 -4.27 2.35 -0.20 7409
0.00 0.00 -3.41 -22.79 32.17 -4.28 2.36 -0.04 7416
0.00 0.00 -1.36 -20.02 24.82 -4.28 2.23 0.03 7424
0.00 0.00 -3.05 -26.22 22.94 -4.28 1.90 0.25 7431
0.00 0.00 -3.94 -30.68 21.02 -4.28 1.83 0.53 7438
-0.00 0.00 -5.68 -37.10 15.70 -4.28 2.08 0.80 7445
0.00 0.00 -8.43 -46.68 10.35 -4.28 1.92 0.98 7452
0.00 0.00 -10.90 -57.23 2.83 -3.66 1.70 0.98 7459
0.00 0.00 -14.32 -66.16 -0.89 -2.69 1.41 0.84 7467
0.00 0.00 -17.04 -69.16 -0.92 -1.62 1.03 0.62 7474
0.00 0.00 -15.48 -76.98 -1.95 0.39 -0.25 0.32 7481
0.00 0.00 -15.32 -68.98 -0.63 3.17 -1.82 -0.26 7488
-0.00 0.02 -7.62 -3.49 -2.22 4.28 -2.09 -0.89 7495
-0.01 0.14 0.24 9.44 11.35 4.28 -1.53 -1.00 7502
-0.04 0.52 4.10 4.78 28.99 4.27 -0.60 -0.72 7511
-0.06 0.83 5.36 -0.87 21.14 4.07 -0.58 -0.48 7518
-0.06 1.02 3.25 -6.82 19.52 4.27 -0.13 -0.09 7525
-0.07 1.09 4.94 -6.52 17.27 4.28 0.23 0.68 7532
-0.05 1.14 -1.37 -4.47 27.08 4.28 0.75 0.96 7539
-0.06 1.17 -5.11 -3.52 20.99 3.76 0.66 0.62 7546
-0.07 1.15 -4.68 -3.74 16.20 3.22 0.29 0.07 7554
-0.07 1.15 -0.75 -2.01 14.59 2.91 0.21 -0.32 7561
-0.05 1.07 3.46 -0.98 12.23 2.56 0.37 -0.26 7568
-0.05 1.03 3.87 -2.03 16.53 2.02 0.11 -0.02 7575
-0.05 0.82 1.39 -1.98 13.46 0.68 -0.30 0.21 7582
-0.04 0.80 -0.52 -3.08 12.59 0.17 -0.20 0.14 7588
-0.03 0.77 -0.36 -2.31 11.52 -0.02 -0.13 0.03 7597
-0.04 0.73 0.40 -1.39 10.44 -0.06 -0.04 0.03 7603
-0.03 0.77 0.51 -1.38 10.42 -0.05 -0.05 0.06 7610
0.00 0.74 0.04 -1.25 10.11 -0.05 -0.03 0.04 7617
0.00 0.77 0.20 -1.00 9.90 -0.04 -0.00 0.04 7624
-0.00 0.73 0.28 -0.96 9.92 -0.04 0.02 0.04 7631
0.00 0.74 0.34 -0.89 9.93 -0.03 0.03 0.03 7639
0.00 0.76 0.40 -0.82 9.94 -0.02 0.03 0.03 7646
0.02 0.77 0.34 -0.75 9.86 0.00 0.02 0.02 7653
0.03 0.70 0.32 -0.72 9.90 0.03 0.02 0.02 7660
0.03 0.67 0.33 -0.68 9.95 0.07 0.01 0.01 7667
0.02 0.64 0.33 -0.66 9.86 0.10 -0.01 0.00 7674
0.02 0.60 0.37 -0.72 9.93 0.13 -0.02 -0.00 7682
0.03 0.58 0.40 -0.71 9.83 0.17 -0.05 -0.01 7689
0.03 0.53 0.47 -0.77 9.83 0.19 -0.08 -0.02 7696
0.05 0.49 0.39 -0.82 9.82 0.20 -0.11 -0.02 7703
0.03 0.46 0.42 -0.78 9.78 0.20 -0.13 -0.03 7710
0.03 0.39 0.44 -0.81 9.73 0.21 -0.14 -0.04 7717
0.03 0.32 0.42 -0.84 9.74 0.21 -0.14 -0.05 7725
0.05 0.33 0.39 -0.91 9.70 0.22 -0.14 -0.06 7732
0.04 0.30 0.41 -0.95 9.62 0.21 -0.15 -0.06 7739
0.05 0.25 0.44 -0.91 9.61 0.17 -0.15 -0.07 7746
0.04 0.23 0.40 -0.95 9.53 0.19 -0.15 -0.07 7753
0.06 0.25 0.37 -1.07 9.63 0.18 -0.15 -0.08 7760
0.06 0.24 0.33 -1.04 9.63 0.17 -0.15 -0.08 7768
0.08 0.20 0.40 -1.00 9.65 0.16 -0.14 -0.08 7775
0.09 0.20 0.33 -1.06 9.62 0.14 -0.13 -0.09 7782
0.08 0.18 0.21 -1.07 9.54 0.13 -0.12 -0.09 7789
0.07 0.18 0.34 -0.95 9.60 0.12 -0.11 -0.09 7796
0.05 0.15 0.20 -1.19 9.60 0.12 -0.10 -0.10 7803
0.08 0.16 0.24 -1.24 9.51 0.12 -0.09 -0.10 7811
0.08 0.15 0.07 -1.10 9.75 0.13 -0.09 -0.11 7818
0.08 0.12 0.26 -1.08 9.69 0.13 -0.07 -0.11 7825
0.12 0.08 0.29 -1.22 9.75 0.14 -0.06 -0.11 7832
0.11 0.05 0.18 -1.08 9.67 0.15 -0.05 -0.11 7839
0.10 0.09 0.03 -1.15 9.76 0.16 -0.03 -0.11 7846
0.14 0.04 0.27 -1.12 9.83 0.18 -0.02 -0.12 7854
0.17 0.06 0.17 -1.20 9.82 0.20 -0.03 -0.12 7861
0.22 0.03 0.19 -1.18 9.87 0.23 -0.03 -0.12 7868
0.23 0.02 0.33 -1.13 9.95 0.25 -0.05 -0.12 7875
0.24 0.00 0.38 -1.77 10.15 0.29 -0.07 -0.17 7882
0.21 0.01 0.40 -1.28 10.09 0.34 -0.11 -0.15 7890
0.29 -0.00 0.29 -1.45 10.30 0.39 -0.14 -0.18 7897
0.36 -0.00 0.44 -1.46 10.30 0.44 -0.18 -0.20 7904
0.42 -0.02 0.49 -1.49 10.53 0.50 -0.22 -0.25 7912
0.49 -0.03 0.77 -1.61 10.82 0.58 -0.27 -0.30 7919
0.59 -0.04 0.75 -1.75 11.04 0.70 -0.33 -0.34 7926
0.58 -0.03 1.22 -1.83 11.43 0.80 -0.31 -0.41 7933
0.68 -0.03 1.20 -2.01 12.17 0.97 -0.13 -0.47 7941
0.70 -0.02 -1.89 -1.65 13.73 1.32 0.02 -0.41 7948
0.76 -0.03 -0.71 -1.70 13.45 1.58 -0.10 -0.25 7955
0.81 -0.04 -0.49 -1.86 13.91 1.83 -0.07 -0.18 7962
0.91 -0.04 -0.27 -1.82 14.13 2.12 -0.11 -0.14 7969
0.95 -0.03 -0.36 -1.82 14.76 2.39 -0.10 -0.12 7976
1.00 -0.03 -0.22 -2.05 14.88 2.73 -0.04 -0.09 7984
1.02 -0.04 0.03 -2.29 15.34 3.04 -0.02 -0.07 7990
1.01 -0.02 0.62 -2.10 15.58 3.43 -0.04 -0.10 7998
1.03 -0.04 1.11 -2.22 15.75 3.83 -0.07 -0.16 8005
1.00 -0.04 1.12 -2.35 16.14 4.14 -0.06 -0.29 8012
0.94 -0.03 0.93 -2.62 17.01 4.28 -0.09 -0.34 8019
0.87 -0.01 1.90 -2.39 17.32 4.28 -0.20 -0.43 8027
0.81 -0.01 2.47 -2.17 18.58 4.28 -0.38 -0.56 8034
0.70 -0.02 3.11 -3.21 19.80 4.28 -0.65 -0.77 8041
0.51 -0.03 3.32 -4.05 20.65 4.28 -0.92 -0.98 8048
0.33 -0.01 2.90 -6.02 23.31 4.28 -1.09 -1.09 8055
0.22 0.00 1.71 -6.53 27.57 4.28 -0.90 -1.15 8062
0.23 -0.00 -4.35 -6.73 31.53 4.28 -0.93 -1.25 8070
0.17 0.01 -7.40 -8.51 34.56 4.28 -1.75 -1.11 8077
0.11 -0.00 -4.04 -10.49 34.93 4.28 -2.65 -0.74 8084
0.06 -0.01 2.76 -8.31 33.53 4.28 -3.03 -0.74 8090
0.02 -0.00 5.95 -0.81 31.90 4.28 -3.20 -0.56 8097
0.01 -0.00 9.39 3.74 28.46 4.28 -3.00 -0.46 8104
0.03 0.01 10.06 10.86 26.68 4.28 -2.50 -0.42 8113
0.02 -0.00 13.12 17.78 25.38 4.28 -1.76 -0.53 8120
0.00 0.00 12.84 33.32 16.19 4.28 -0.82 -0.80 8126
0.00 0.00 14.03 25.63 9.02 3.85 0.72 -0.86 8133
0.00 0.00 7.17 23.25 30.00 0.20 1.54 -0.76 8140
0.00 0.00 -0.30 19.68 23.42 -2.41 1.37 -0.58 8147
0.00 0.00 -3.11 15.78 17.68 -3.37 0.58 -0.35 8155
0.00 0.00 -1.83 12.89 14.65 -3.68 -0.66 -0.30 8162
0.00 0.00 1.23 10.54 11.86 -3.63 -1.14 -0.32 8169
0.00 0.00 3.53 9.27 9.17 -3.60 -0.94 -0.40 8176
0.00 0.00 4.78 8.38 8.22 -3.71 -0.36 -0.46 8183
-0.00 0.00 4.29 7.70 8.46 -3.87 0.39 -0.58 8190
0.00 0.00 2.32 7.08 8.87 -4.12 0.99 -0.65 8198
0.00 0.00 -0.23 6.68 9.55 -4.26 1.45 -0.65 8205
0.00 0.00 -2.23 6.30 10.03 -4.28 1.53 -0.54 8212
0.00 0.00 -3.90 5.28 10.47 -4.28 1.32 -0.45 8219
-0.00 0.00 -4.15 4.08 11.03 -4.28 0.98 -0.31 8226
-0.00 0.00 -3.40 3.15 11.19 -4.28 0.73 -0.21 8233
0.00 0.00 -2.41 2.34 11.10 -4.28 0.61 -0.12 8241
-0.00 0.00 -2.11 1.91 11.22 -4.28 0.63 -0.06 8248
0.00 0.00 -1.89 1.06 12.29 -4.28 0.80 -0.03 8255
0.00 0.00 -2.38 1.14 12.32 -4.28 0.96 0.01 8262
0.00 0.00 -2.90 0.37 13.10 -4.28 1.12 0.05 8269
-0.00 0.01 -2.74 -0.52 14.16 -4.28 1.30 0.11 8276
0.00 0.00 -1.67 -0.68 15.03 -4.28 1.27 0.06 8284
0.00 0.00 -2.82 -0.86 15.96 -4.28 1.27 -0.00 8291
0.00 0.00 -3.20 -0.63 16.42 -4.28 1.06 -0.08 8298
0.00 0.00 -2.62 -1.71 18.34 -4.28 0.97 -0.12 8305
0.00 0.00 -2.14 -2.18 18.25 -4.28 0.84 -0.14 8312
-0.00 0.00 -1.30 -2.54 19.04 -4.28 0.76 -0.17 8320
0.00 0.00 -0.71 -3.18 19.62 -4.28 0.81 -0.18 8327
-0.00 0.00 -0.37 -3.74 20.99 -4.28 0.91 -0.14 8334
0.00 0.00 0.03 -4.21 21.87 -4.28 1.07 -0.10 8341
0.00 0.00 -0.27 -4.66 23.02 -4.28 1.18 -0.01 8348
0.00 0.00 -0.10 -5.77 24.30 -4.28 1.24 0.11 8355
0.01 0.00 -0.01 -7.01 25.63 -4.26 1.30 0.21 8363
0.00 0.00 0.33 -8.81 26.89 -4.16 1.38 0.30 8370
0.00 0.00 0.87 -10.61 29.30 -4.12 1.50 0.31 8377
0.00 0.00 1.61 -12.26 30.44 -4.25 1.71 0.28 8384
0.00 0.00 1.99 -14.03 29.97 -4.28 1.94 0.17 8391
-0.00 0.00 2.12 -16.42 27.87 -4.28 2.14 0.06 8399
0.00 -0.00 1.53 -20.85 25.12 -4.28 2.40 -0.02 8406
0.00 0.00 -0.06 -27.75 20.64 -4.28 2.58 -0.04 8413
0.00 0.00 -3.59 -34.80 16.93 -4.28 2.98 0.00 8420
0.00 0.00 -7.64 -48.49 12.00 -4.28 3.37 0.04 8427
-0.00 0.00 -13.40 -63.40 4.86 -4.00 3.28 -0.06 8434
-0.00 0.00 -20.69 -72.00 0.40 -3.04 2.83 -0.03 8441
0.00 0.00 -26.28 -73.05 -1.09 -1.81 1.62 0.06 8449
0.00 0.00 -24.06 -65.74 -1.14 -0.09 -0.06 0.04 8456
0.00 0.00 -16.10 -52.90 1.44 1.47 -2.02 -0.18 8463
0.00 0.00 -11.45 -43.58 32.86 4.21 -4.28 -0.91 8471
-0.00 0.02 2.56 8.71 1.95 4.28 -3.54 -1.05 8477
-0.02 0.16 0.07 3.16 17.18 4.23 -2.97 -0.67 8484
-0.04 0.63 3.76 1.58 21.20 3.71 -1.86 -0.00 8493
-0.04 0.87 1.94 -1.65 19.72 4.08 -1.46 0.37 8500
-0.07 1.07 0.39 -6.45 16.40 4.28 -0.79 0.78 8507
-0.08 1.11 -0.84 -6.54 23.85 4.28 0.15 1.23 8514
-0.07 1.24 -7.70 -5.81 27.11 4.27 1.11 1.21 8521
-0.07 1.28 -6.88 -4.71 18.22 3.73 0.74 0.43 8528
-0.06 1.19 -3.29 -3.42 16.59 3.43 0.54 -0.10 8536
-0.06 1.17 1.41 -1.45 15.07 3.03 0.83 -0.17 8543
-0.05 1.14 3.29 -2.20 20.25 2.43 0.74 -0.02 8550
-0.06 1.08 2.00 -1.37 13.79 0.65 -0.15 0.10 8557
-0.05 0.98 0.24 -3.84 13.54 0.15 -0.10 0.14 8564
-0.04 0.90 -0.65 -2.41 11.67 0.01 -0.05 0.06 8570
-0.01 0.79 0.05 -1.06 10.29 0.01 -0.03 0.04 8578
-0.01 0.79 0.56 -0.89 9.93 0.01 -0.02 0.07 8585
0.02 0.75 0.07 -1.36 10.01 -0.02 -0.02 0.05 8592
0.05 0.76 0.14 -1.02 10.20 -0.03 -0.00 0.04 8599
0.07 0.76 0.03 -0.72 9.97 -0.02 0.02 0.04 8606
0.10 0.76 0.14 -0.76 9.89 0.00 0.05 0.03 8613
0.10 0.70 0.22 -0.67 10.01 0.02 0.05 0.03 8621
0.10 0.67 0.22 -0.55 9.84 0.04 0.04 0.02 8628
0.06 0.66 0.17 -0.56 9.82 0.05 0.04 0.01 8635
0.07 0.63 0.14 -0.57 9.87 0.08 0.04 0.01 8642
0.06 0.60 0.17 -0.54 9.98 0.11 0.04 0.00 8649
0.06 0.59 0.21 -0.51 9.90 0.15 0.03 -0.00 8656
0.05 0.54 0.22 -0.49 9.88 0.18 0.01 -0.01 8664
0.06 0.46 0.26 -0.57 9.91 0.21 -0.03 -0.02 8671
0.06 0.41 0.22 -0.63 9.88 0.23 -0.02 -0.03 8678
0.08 0.36 0.33 -0.68 9.83 0.24 -0.04 -0.04 8685
0.08 0.35 0.34 -0.64 9.75 0.25 -0.06 -0.05 8692
0.09 0.30 0.33 -0.71 9.73 0.25 -0.07 -0.06 8699
0.08 0.25 0.32 -0.78 9.74 0.26 -0.08 -0.06 8707
0.09 0.18 0.29 -0.74 9.71 0.27 -0.08 -0.06 8714
0.07 0.19 0.34 -0.82 9.70 0.27 -0.08 -0.07 8721
0.10 0.13 0.40 -0.81 9.61 0.27 -0.09 -0.07 8728
0.12 0.09 0.37 -0.87 9.58 0.26 -0.09 -0.08 8735
0.11 0.09 0.33 -0.94 9.62 0.25 -0.09 -0.08 8742
0.11 0.07 0.32 -0.91 9.69 0.23 -0.10 -0.09 8750
0.12 0.05 0.29 -0.96 9.67 0.23 -0.10 -0.09 8757
0.13 0.05 0.32 -1.08 9.71 0.22 -0.11 -0.10 8764
0.14 0.08 0.39 -1.10 9.75 0.22 -0.12 -0.11 8771
0.16 0.05 0.02 -0.80 9.25 0.22 -0.13 -0.12 8778
0.16 0.02 0.24 -1.15 9.77 0.21 -0.11 -0.12 8785
0.22 0.01 0.31 -1.08 9.65 0.19 -0.11 -0.12 8793
0.16 0.02 0.08 -1.09 9.76 0.18 -0.10 -0.13 8800
0.18 0.02 0.34 -1.30 10.29 0.18 -0.08 -0.13 8807
0.18 0.04 0.07 -1.31 9.55 0.18 -0.08 -0.15 8814
0.26 -0.01 0.31 -1.12 9.83 0.18 -0.07 -0.15 8821
0.27 0.01 0.17 -1.30 9.98 0.20 -0.08 -0.15 8828
0.26 -0.02 0.28 -1.18 10.05 0.24 -0.09 -0.16 8836
0.26 0.01 0.19 -1.30 10.04 0.28 -0.10 -0.18 8843
0.31 -0.02 0.07 -1.28 9.95 0.31 -0.08 -0.19 8850
0.35 -0.02 -0.53 -1.43 9.92 0.33 -0.07 -0.21 8857
0.35 -0.02 0.31 -1.43 10.21 0.35 -0.04 -0.22 8865
0.41 -0.03 0.12 -1.54 10.19 0.39 -0.04 -0.26 8872
0.43 -0.04 0.74 -1.56 10.65 0.45 -0.03 -0.32 8880
0.45 -0.03 1.10 -1.51 10.96 0.55 -0.01 -0.35 8887
0.50 -0.03 1.70 -1.96 11.98 0.70 0.08 -0.42 8893
0.55 -0.03 -0.10 -1.63 12.52 1.02 0.08 -0.43 8901
0.63 -0.04 0.70 -1.68 12.01 1.29 -0.03 -0.41 8908
0.67 -0.04 0.50 -1.37 11.94 1.43 -0.03 -0.43 8915
0.71 -0.04 -0.35 -1.60 12.17 1.60 -0.09 -0.40 8923
0.74 -0.03 -0.82 -1.86 12.76 1.77 -0.12 -0.33 8930
0.80 -0.03 -0.76 -1.85 13.75 2.00 -0.12 -0.26 8937
0.89 -0.03 -0.83 -2.07 13.91 2.27 -0.09 -0.19 8944
0.99 -0.04 -0.70 -2.12 14.53 2.55 -0.05 -0.11 8951
1.04 -0.04 -0.33 -2.08 14.65 2.90 0.01 -0.07 8957
1.05 -0.04 0.06 -2.33 15.33 3.21 0.10 -0.07 8965
1.04 -0.04 0.68 -2.67 15.92 3.62 0.13 -0.11 8973
1.05 -0.04 1.48 -2.42 15.70 4.05 0.18 -0.19 8980
1.03 -0.04 0.63 -2.42 15.87 4.26 0.28 -0.30 8987
0.91 -0.04 0.89 -1.97 16.28 4.28 0.48 -0.38 8994
0.86 -0.05 1.65 -2.90 19.02 4.28 0.56 -0.48 9001
0.79 -0.04 3.01 -2.51 19.17 4.28 0.26 -0.63 9009
0.61 -0.03 2.67 -3.25 19.95 4.28 -0.17 -0.78 9016
0.48 -0.01 0.65 -5.56 24.75 4.28 -0.43 -0.89 9023
0.32 -0.02 -0.35 -7.83 28.27 4.28 -0.67 -0.80 9030
0.20 -0.02 -1.31 -7.42 25.89 4.28 -0.60 -0.68 9036
0.13 -0.01 -5.16 -9.70 33.65 4.28 -0.52 -0.68 9043
0.07 -0.01 -4.10 -10.87 36.65 4.28 -1.58 -0.48 9052
0.06 -0.00 0.39 -9.58 31.94 4.28 -2.41 -0.40 9059
0.04 0.00 3.42 -5.55 31.15 4.28 -3.00 -0.45 9065
0.04 -0.00 5.79 1.41 32.36 4.28 -3.18 -0.34 9072
0.02 -0.00 9.17 8.49 32.13 4.28 -2.88 -0.24 9079
0.01 -0.00 11.73 14.25 29.88 4.28 -2.29 -0.25 9088
0.00 0.00 9.57 25.73 23.87 4.28 -1.25 -0.45 9094
0.00 0.00 10.59 27.65 1.06 4.28 -0.39 -0.71 9101
0.00 0.00 9.00 25.57 18.31 1.74 0.40 -0.56 9108
0.00 0.00 3.99 18.82 23.64 -1.05 0.64 -0.66 9115
0.00 0.00 -1.48 14.32 20.53 -2.74 0.28 -0.65 9122
0.00 0.00 -2.20 10.94 16.22 -3.27 -0.52 -0.64 9129
0.00 0.00 -0.46 9.18 12.23 -3.27 -1.17 -0.71 9137
0.00 0.00 1.69 7.33 9.07 -3.15 -1.37 -0.80 9144
0.00 0.00 3.19 6.36 7.54 -3.17 -1.22 -0.90 9151
0.00 0.00 4.04 5.69 7.08 -3.23 -0.83 -0.96 9158
0.00 0.00 3.71 5.42 6.98 -3.34 -0.32 -1.02 9165
0.00 0.00 2.65 5.21 7.19 -3.59 0.08 -1.02 9172
0.00 0.00 1.03 5.01 7.65 -3.89 0.41 -0.95 9180
0.00 0.00 -0.23 4.85 7.88 -4.12 0.48 -0.81 9187
0.00 0.00 -1.24 4.17 8.80 -4.25 0.36 -0.66 9194
0.00 0.00 -0.84 3.56 9.44 -4.28 0.25 -0.45 9201
0.00 0.00 -0.48 3.35 9.46 -4.28 0.20 -0.25 9208
0.00 0.00 0.03 2.62 9.70 -4.28 0.26 -0.10 9216
0.00 0.00 -0.27 2.45 10.03 -4.28 0.27 0.07 9223
0.00 0.00 -0.25 1.70 10.83 -4.28 0.37 0.20 9230
0.00 0.00 -0.90 1.98 10.60 -4.28 0.42 0.33 9237
0.00 0.00 -0.87 0.71 11.99 -4.28 0.44 0.46 9244
0.00 0.00 -0.70 0.48 12.99 -4.28 0.61 0.53 9251
0.00 0.00 -0.67 -0.13 13.87 -4.28 0.66 0.58 9259
0.00 0.00 -0.20 -0.33 14.58 -4.28 0.63 0.53 9266
0.00 0.00 2.23 -1.16 14.26 -4.28 0.80 0.42 9273
0.00 -0.00 -1.31 -0.56 15.88 -4.28 0.64 0.24 9280
0.00 0.00 -0.02 -2.62 17.79 -4.28 0.71 0.16 9287
0.00 0.00 -0.91 -1.69 17.79 -4.28 0.52 0.04 9294
0.00 0.00 0.63 -2.73 18.44 -4.28 0.52 -0.08 9302
0.00 0.00 0.58 -2.92 18.90 -4.28 0.54 -0.18 9309
0.00 -0.00 1.41 -4.14 20.16 -4.28 0.68 -0.25 9316
0.00 0.00 1.50 -4.40 21.03 -4.28 0.85 -0.27 9323
0.00 0.00 1.64 -4.91 23.01 -4.28 1.02 -0.26 9330
0.00 0.00 1.46 -5.12 24.83 -4.28 1.12 -0.23 9337
0.00 0.00 1.49 -6.28 26.25 -4.28 1.26 -0.21 9345
0.00 0.00 1.42 -8.07 27.54 -4.28 1.40 -0.23 9352
0.00 -0.00 1.48 -10.36 28.67 -4.28 1.61 -0.27 9360
0.00 0.00 1.37 -13.06 29.45 -4.28 1.80 -0.36 9366
0.00 0.00 1.04 -20.95 28.54 -4.28 1.93 -0.42 9373
0.00 0.00 1.19 -21.95 27.14 -4.28 2.26 -0.34 9380
0.00 0.00 0.37 -19.62 17.21 -4.28 2.13 -0.46 9388
0.00 0.00 -2.05 -28.92 27.54 -4.28 1.95 -0.41 9395
0.00 -0.00 -1.25 -31.87 16.66 -4.28 2.52 -0.31 9403
0.00 0.00 -3.63 -44.07 13.33 -4.28 3.02 -0.23 9409
0.00 -0.00 -8.73 -55.83 7.98 -3.87 3.47 -0.22 9416
0.00 0.00 -16.18 -68.54 2.89 -3.09 3.34 -0.26 9423
0.00 0.00 -23.58 -73.32 1.21 -1.78 2.59 -0.15 9431
0.00 0.00 -29.83 -78.47 13.80 0.76 0.12 0.02 9438
0.00 -0.00 -21.32 -69.57 -1.85 3.02 -2.62 -0.03 9446
0.00 0.00 -4.46 -9.82 9.79 4.28 -3.70 -0.53 9452
-0.01 0.07 -1.65 9.29 10.55 4.28 -3.09 -0.51 9459
-0.04 0.41 0.61 3.19 27.22 4.28 -1.64 -0.02 9466
-0.03 0.70 3.01 0.02 19.06 4.08 -1.32 0.20 9474
-0.04 0.88 -1.78 -6.68 19.39 4.28 -0.85 0.36 9482
-0.05 1.06 1.14 -6.44 16.94 4.28 -0.20 0.66 9489
-0.05 1.13 -4.22 -5.86 27.41 4.28 0.58 0.94 9496
-0.08 1.19 -4.96 -4.73 21.99 3.94 0.76 0.51 9503
-0.09 1.25 -3.42 -4.16 17.66 3.44 0.32 -0.01 9510
-0.06 1.19 -0.06 -2.32 15.16 3.08 0.32 -0.22 9518
-0.05 1.10 1.21 -1.16 12.53 2.70 0.55 -0.07 9525
-0.04 1.01 2.59 -2.08 16.45 2.28 0.47 0.05 9531
-0.05 0.96 1.50 -1.39 13.04 0.74 -0.28 0.09 9539
-0.05 0.90 0.44 -3.91 13.41 0.04 -0.12 0.10 9545
-0.05 0.85 -0.46 -3.05 11.72 -0.06 -0.08 -0.00 9552
-0.02 0.78 0.31 -1.72 10.36 -0.02 -0.04 0.01 9560
0.04 0.76 0.17 -1.03 10.19 0.01 -0.02 0.05 9567
0.05 0.76 0.41 0.22 9.65 0.00 -0.01 0.03 9574
0.06 0.73 0.42 -1.25 9.91 -0.03 0.01 0.02 9581
0.06 0.73 0.19 -1.02 10.13 -0.03 0.02 0.01 9588
0.06 0.72 0.12 -0.83 9.89 0.00 0.04 0.01 9595
0.07 0.72 0.24 -0.80 9.92 0.03 0.06 0.02 9603
0.09 0.69 0.33 -0.75 9.79 0.05 0.05 0.01 9610
0.09 0.67 0.31 -0.73 9.86 0.08 0.04 0.00 9617
0.08 0.60 0.29 -0.75 9.93 0.11 0.02 -0.00 9624
0.06 0.55 0.28 -0.76 9.83 0.14 0.00 -0.00 9631
0.10 0.50 0.27 -0.74 9.83 0.17 -0.01 -0.01 9638
0.11 0.45 0.29 -0.70 9.84 0.19 -0.01 -0.01 9646
0.12 0.41 0.29 -0.80 9.85 0.21 -0.01 -0.02 9653
0.13 0.39 0.29 -0.91 9.83 0.23 -0.01 -0.03 9660
0.13 0.31 0.39 -0.84 9.84 0.24 -0.02 -0.04 9667
0.13 0.25 0.37 -0.79 9.79 0.25 -0.04 -0.05 9674
0.15 0.19 0.37 -0.93 9.76 0.26 -0.06 -0.05 9681
0.16 0.18 0.35 -0.95 9.70 0.26 -0.07 -0.06 9689
0.17 0.13 0.41 -0.96 9.72 0.26 -0.08 -0.06 9696
0.17 0.07 0.38 -0.92 9.73 0.26 -0.08 -0.07 9703
0.15 0.09 0.41 -0.99 9.65 0.25 -0.09 -0.08 9710
0.14 0.09 0.34 -1.09 9.74 0.25 -0.09 -0.08 9717
0.16 0.06 0.37 -1.09 9.68 0.25 -0.10 -0.08 9724
0.17 0.04 0.39 -1.13 9.74 0.24 -0.10 -0.09 9732
0.19 0.05 0.34 -1.14 9.73 0.23 -0.11 -0.09 9739
0.17 0.03 0.42 -1.14 10.27 0.23 -0.11 -0.10 9747
0.16 0.01 0.29 -1.04 9.59 0.21 -0.13 -0.11 9753
0.17 0.02 0.20 -1.23 9.61 0.20 -0.12 -0.12 9760
0.18 0.04 0.23 -1.35 9.67 0.19 -0.12 -0.13 9767
0.20 -0.00 0.19 -1.28 9.62 0.18 -0.11 -0.13 9775
0.16 0.01 0.29 -1.34 9.56 0.18 -0.11 -0.14 9782
0.19 0.01 -0.06 -1.31 9.72 0.17 -0.09 -0.15 9789
0.17 0.02 0.13 -1.37 9.77 0.18 -0.09 -0.15 9796
0.20 0.00 0.24 -1.37 9.80 0.18 -0.06 -0.16 9803
0.22 0.01 0.32 -1.36 9.89 0.19 -0.06 -0.17 9810
0.27 -0.01 0.33 -1.39 9.91 0.21 -0.07 -0.17 9818
0.28 -0.01 0.30 -1.42 9.95 0.24 -0.06 -0.19 9825
0.36 -0.02 0.32 -1.40 10.15 0.27 -0.07 -0.20 9833
0.34 -0.01 0.57 -1.49 10.19 0.31 -0.09 -0.23 9840
0.40 -0.03 0.65 -1.58 10.43 0.37 -0.13 -0.27 9847
0.45 -0.02 0.80 -1.66 10.74 0.45 -0.17 -0.32 9854
0.53 -0.03 1.03 -1.73 10.82 0.54 -0.21 -0.37 9862
0.55 -0.03 1.48 -1.99 11.02 0.62 -0.17 -0.46 9869
0.59 -0.04 0.86 -1.95 11.99 0.80 -0.09 -0.53 9876
0.62 -0.04 -0.36 -1.77 12.35 1.10 -0.17 -0.50 9883
0.73 -0.04 -0.08 -1.75 12.01 1.28 -0.23 -0.44 9890
0.75 -0.04 -0.69 -1.66 12.14 1.44 -0.23 -0.40 9897
0.81 -0.04 -0.96 -1.89 12.92 1.62 -0.24 -0.33 9905
0.85 -0.04 -0.99 -1.98 14.03 1.87 -0.23 -0.21 9912
0.93 -0.04 -0.30 -2.11 14.21 2.19 -0.21 -0.17 9919
0.99 -0.03 -0.00 -2.21 14.49 2.49 -0.15 -0.15 9926
1.06 -0.03 -0.25 -2.22 15.17 2.84 -0.10 -0.15 9933
1.12 -0.04 -0.02 -2.58 15.26 3.25 -0.10 -0.14 9940
1.13 -0.04 0.45 -3.02 15.57 3.59 -0.09 -0.14 9948
1.14 -0.05 0.88 -2.70 15.81 4.01 -0.07 -0.21 9955
1.12 -0.04 1.27 -2.35 16.12 4.26 0.03 -0.30 9962
1.11 -0.04 1.42 -2.79 17.40 4.28 0.15 -0.39 9969
1.01 -0.03 1.88 -2.17 18.90 4.28 0.17 -0.52 9976
0.92 -0.04 2.90 -2.21 18.99 4.28 -0.07 -0.70 9984
0.76 -0.03 3.11 -3.49 20.22 4.28 -0.45 -0.88 9991
0.54 -0.03 2.61 -5.02 21.16 4.28 -0.71 -1.05 9998
0.38 -0.01 0.96 -7.44 25.31 4.28 -0.81 -1.08 10005
0.18 -0.02 -1.35 -6.53 28.77 4.28 -0.53 -0.98 10011
0.12 -0.01 -5.22 -10.01 34.56 4.28 -0.64 -1.00 10019
0.10 -0.01 -4.30 -11.52 36.49 4.28 -1.73 -0.84 10027
0.07 -0.01 -0.62 -10.07 32.52 4.28 -2.38 -0.73 10034
0.02 -0.00 2.89 -6.57 31.82 4.28 -2.99 -0.75 10040
0.02 -0.00 6.14 1.20 30.40 4.28 -3.08 -0.65 10047
0.02 -0.00 8.82 7.66 31.32 4.28 -2.93 -0.56 10054
0.03 -0.00 11.30 13.96 28.91 4.28 -2.38 -0.54 10062
0.00 0.00 11.16 27.32 20.24 4.28 -1.47 -0.69 10068
0.00 0.00 13.12 25.21 0.28 4.23 -0.38 -0.64 10076
0.00 0.00 8.90 22.58 21.33 1.38 0.78 -0.38 10083
0.00 0.00 4.14 16.68 22.53 -0.93 0.96 -0.39 10090
0.00 0.00 -1.52 14.37 19.38 -2.19 0.54 -0.28 10097
0.00 0.00 -2.03 11.98 14.21 -2.61 -0.30 -0.18 10104
0.00 0.00 -0.31 10.67 11.28 -2.70 -0.99 -0.21 10112
0.00 0.00 1.39 9.08 9.64 -2.75 -1.18 -0.26 10119
0.00 0.00 2.64 7.98 8.35 -2.89 -0.98 -0.32 10126
0.00 0.00 3.37 7.55 7.83 -3.16 -0.67 -0.37 10133
0.00 0.00 3.07 7.13 7.90 -3.51 -0.25 -0.42 10140
0.00 0.00 2.14 6.50 8.33 -3.84 0.12 -0.43 10147
0.00 0.00 0.80 6.03 8.60 -4.19 0.44 -0.37 10155
0.00 0.00 -0.32 5.13 8.82 -4.28 0.53 -0.29 10162
0.00 0.00 -0.89 4.00 9.20 -4.28 0.47 -0.21 10169
0.00 0.00 -0.99 2.89 9.41 -4.28 0.35 -0.14 10176
0.00 0.00 -0.77 2.04 9.59 -4.28 0.30 -0.10 10183
0.00 0.00 -0.45 1.42 9.81 -4.28 0.33 -0.08 10190
0.00 0.00 -0.46 1.00 10.10 -4.28 0.42 -0.07 10198
0.00 0.00 -0.70 0.73 10.58 -4.28 0.49 -0.08 10205
0.00 0.00 -0.67 0.10 11.77 -4.28 0.59 -0.11 10212
0.00 0.00 -0.97 -0.00 12.41 -4.28 0.65 -0.15 10219
0.00 0.00 -0.90 -0.02 12.86 -4.28 0.66 -0.23 10226
0.00 0.00 -0.17 -0.99 13.94 -4.28 0.74 -0.35 10233
0.00 0.00 -0.76 -0.66 14.50 -4.28 0.72 -0.50 10241
0.00 0.00 -0.34 -1.66 15.39 -4.28 0.79 -0.67 10248
0.00 0.00 -0.05 -1.80 15.91 -4.28 0.87 -0.79 10255
0.00 0.00 0.27 -2.28 16.47 -4.28 1.01 -0.85 10262
0.00 0.00 0.09 -2.64 17.23 -4.28 1.15 -0.88 10269
0.00 0.00 0.14 -3.24 17.98 -4.28 1.26 -0.86 10276
0.00 0.00 0.14 -3.78 18.50 -4.28 1.36 -0.78 10284
0.00 0.00 0.25 -4.33 19.51 -4.28 1.47 -0.63 10291
0.00 0.00 0.42 -4.73 20.48 -4.28 1.51 -0.48 10298
0.00 0.00 0.36 -5.06 21.95 -4.28 1.55 -0.27 10305
0.00 0.00 0.39 -5.31 23.64 -4.28 1.55 -0.02 10312
0.00 0.00 0.14 -5.92 24.46 -4.28 1.51 0.21 10319
0.00 0.00 0.46 -6.84 25.52 -4.27 1.51 0.48 10327
0.00 0.00 0.75 -8.24 26.01 -4.22 1.63 0.65 10334
0.00 0.00 0.65 -10.70 26.72 -4.08 1.98 0.79 10341
0.00 0.00 0.07 -14.15 27.79 -3.99 2.30 0.87 10348
0.00 0.00 -0.54 -16.47 28.45 -4.13 2.55 0.85 10355
0.00 0.00 -1.23 -18.85 27.51 -4.28 2.66 0.76 10362
0.00 0.00 -2.35 -20.72 24.95 -4.28 2.72 0.73 10370
0.00 0.00 -5.58 -25.00 21.72 -4.28 2.68 0.78 10377
0.00 0.00 -9.47 -30.49 17.84 -4.28 2.61 0.97 10384
-0.00 0.00 -12.18 -39.02 12.41 -4.28 2.32 1.06 10392
0.00 0.00 -14.33 -58.42 6.03 -4.23 1.91 1.03 10398
0.00 0.00 -17.13 -72.48 -0.68 -3.86 1.49 0.70 10405
0.00 0.00 -20.26 -76.62 -3.82 -2.51 1.04 0.28 10413
0.00 0.00 -19.46 -67.67 -3.79 -0.75 -0.04 -0.29 10420
0.00 0.00 -14.44 -54.28 -1.15 1.29 -1.42 -0.89 10427
0.00 0.00 -10.59 -33.08 36.29 4.26 -3.98 -1.54 10435
0.00 -0.00 3.07 11.72 -0.42 4.28 -3.09 -1.77 10441
-0.01 0.14 3.23 3.79 14.83 4.28 -2.89 -1.49 10448
-0.03 0.43 6.01 2.09 20.60 3.99 -1.76 -0.77 10457
-0.04 0.72 6.61 -1.71 15.27 4.07 -1.29 -0.10 10464
-0.06 0.98 2.77 -7.02 20.79 4.28 -0.65 0.41 10471
-0.05 1.09 1.98 -5.26 18.18 4.28 0.17 1.15 10478
-0.06 1.17 -4.41 -4.84 26.62 4.28 0.75 1.37 10485
-0.07 1.18 -6.92 -4.43 20.02 3.76 0.74 0.85 10492
-0.06 1.16 -6.28 -4.69 16.48 3.47 0.57 0.10 10500
-0.06 1.17 -2.34 -2.16 14.57 3.19 0.39 -0.32 10507
-0.05 1.17 2.65 -1.21 12.94 2.85 0.46 -0.38 10514
-0.04 1.10 4.57 -2.07 17.41 2.52 0.55 -0.12 10521
-0.04 1.04 1.35 -2.54 15.25 0.82 -0.21 0.20 10528
-0.04 0.95 0.20 -4.21 14.09 0.13 -0.19 0.18 10534
-0.05 0.84 -1.12 -3.36 12.14 -0.01 -0.15 0.01 10543
-0.04 0.82 0.44 -1.31 10.15 -0.01 -0.07 0.02 10549
0.01 0.79 0.28 -1.30 10.37 -0.01 -0.05 0.06 10556
0.05 0.78 -0.06 -1.48 10.15 -0.02 -0.05 0.03 10563
0.06 0.78 0.08 -1.16 9.89 -0.04 -0.00 0.03 10570
0.05 0.78 0.06 -0.93 9.91 -0.03 0.02 0.03 10577
0.05 0.76 0.13 -0.98 9.97 -0.01 0.05 0.03 10585
0.04 0.74 0.23 -0.94 9.94 0.01 0.05 0.02 10592
0.05 0.74 0.20 -0.80 9.87 0.03 0.05 0.02 10599
0.08 0.75 0.19 -0.83 9.96 0.06 0.05 0.01 10606
0.06 0.70 0.11 -0.75 9.94 0.10 0.05 0.01 10613
0.06 0.64 0.13 -0.80 9.88 0.16 0.05 0.00 10620
0.06 0.57 0.13 -0.76 9.85 0.16 0.05 -0.00 10628
0.06 0.56 0.17 -0.80 9.81 0.18 0.06 -0.01 10635
0.04 0.48 0.25 -0.83 9.96 0.19 0.05 -0.02 10642
0.05 0.46 0.32 -0.84 9.92 0.22 0.03 -0.03 10649
0.06 0.42 0.34 -0.86 9.80 0.23 -0.02 -0.04 10656
0.09 0.33 0.37 -0.85 9.73 0.24 -0.04 -0.04 10663
0.09 0.35 0.40 -0.97 9.67 0.24 -0.06 -0.05 10671
0.12 0.28 0.43 -0.94 9.66 0.25 -0.07 -0.06 10678
0.12 0.18 0.35 -1.02 9.66 0.24 -0.08 -0.07 10685
0.12 0.20 0.35 -0.99 9.69 0.23 -0.08 -0.07 10692
0.13 0.18 0.29 -1.08 9.56 0.22 -0.09 -0.08 10699
0.14 0.13 0.33 -1.11 9.52 0.20 -0.09 -0.08 10706
0.13 0.13 0.35 -1.15 9.54 0.18 -0.10 -0.08 10714
0.15 0.13 0.38 -1.20 9.58 0.17 -0.11 -0.08 10721
0.17 0.11 0.41 -1.24 9.62 0.16 -0.12 -0.09 10728
0.18 0.10 0.27 -1.23 9.78 0.17 -0.14 -0.11 10735
0.19 0.07 0.35 -1.09 9.21 0.17 -0.15 -0.12 10742
0.16 0.05 0.47 -1.19 9.68 0.20 -0.14 -0.12 10749
0.14 0.05 0.21 -1.30 9.64 0.16 -0.14 -0.13 10757
0.18 0.04 0.29 -1.32 9.77 0.17 -0.13 -0.14 10764
0.19 0.04 0.04 -0.98 9.77 0.18 -0.12 -0.15 10771
0.20 0.01 -0.20 -1.46 9.80 0.19 -0.11 -0.16 10778
0.18 -0.00 0.22 -1.19 9.77 0.21 -0.09 -0.16 10785
0.19 0.02 0.09 -1.30 9.89 0.23 -0.09 -0.16 10792
0.21 0.01 0.21 -1.33 10.05 0.25 -0.09 -0.16 10800
0.27 0.01 0.16 -1.37 10.13 0.27 -0.09 -0.17 10808
0.31 -0.02 0.31 -1.44 10.11 0.30 -0.10 -0.19 10815
0.33 -0.01 0.19 -1.53 10.05 0.35 -0.13 -0.21 10822
0.38 -0.03 0.40 -1.57 10.21 0.40 -0.14 -0.24 10829
0.40 -0.03 0.48 -1.58 10.30 0.45 -0.18 -0.27 10835
0.47 -0.02 0.52 -1.70 10.64 0.50 -0.21 -0.31 10844
0.52 -0.03 0.88 -2.29 10.91 0.57 -0.22 -0.40 10851
0.55 -0.02 1.61 -1.86 11.07 0.65 -0.15 -0.45 10858
0.65 -0.03 1.53 -2.04 11.92 0.76 0.04 -0.56 10865
0.68 -0.04 -1.47 -1.88 13.46 1.10 0.10 -0.55 10872
0.70 -0.04 -0.90 -1.84 12.64 1.46 -0.06 -0.40 10878
0.79 -0.03 -0.85 -1.72 12.73 1.65 -0.02 -0.32 10887
0.83 -0.03 -0.90 -1.84 13.84 1.88 0.00 -0.24 10893
0.93 -0.04 -0.63 -1.93 14.47 2.13 0.00 -0.17 10901
0.97 -0.03 -0.31 -2.10 14.67 2.48 0.02 -0.13 10908
1.01 -0.04 -0.31 -2.20 14.77 2.84 0.10 -0.11 10915
1.04 -0.04 0.01 -2.41 15.10 3.18 0.18 -0.10 10921
1.05 -0.03 0.30 -2.29 15.33 3.56 0.25 -0.10 10930
1.08 -0.04 0.79 -2.34 15.36 3.91 0.32 -0.17 10937
1.04 -0.04 1.10 -2.31 15.66 4.23 0.42 -0.26 10944
1.01 -0.04 1.76 -2.17 16.57 4.28 0.58 -0.35 10951
0.96 -0.03 2.12 -2.49 18.25 4.28 0.49 -0.47 10958
0.89 -0.04 2.76 -2.52 18.54 4.28 0.22 -0.64 10966
0.75 -0.03 1.99 -2.62 18.27 4.28 -0.13 -0.79 10973
0.66 -0.03 1.30 -4.40 21.14 4.28 -0.31 -0.88 10980
0.49 -0.02 0.82 -6.75 24.60 4.28 -0.62 -0.89 10987
0.25 -0.02 1.43 -6.95 27.62 4.28 -0.75 -0.78 10994
0.17 -0.01 -1.89 -8.36 29.54 4.28 -0.52 -0.84 11001
0.10 -0.01 -8.16 -9.34 34.56 4.28 -1.01 -0.83 11008
0.07 -0.01 -5.66 -12.16 34.69 4.28 -2.00 -0.42 11016
0.05 -0.00 1.75 -7.98 32.08 4.28 -2.80 -0.41 11022
0.04 -0.00 5.97 -2.94 30.85 4.28 -3.19 -0.34 11029
0.04 -0.00 9.27 1.69 29.66 4.28 -2.99 -0.21 11036
0.01 -0.00 10.42 7.74 29.83 4.28 -2.41 -0.15 11044
0.01 -0.00 12.45 14.73 28.11 4.28 -1.66 -0.28 11052
0.00 0.00 9.81 25.17 20.25 4.28 -0.65 -0.53 11058
0.00 0.00 12.73 24.82 1.54 4.25 0.46 -0.86 11065
0.00 0.00 7.62 21.94 27.58 1.42 0.88 -0.54 11072
0.00 0.00 -0.80 18.33 24.47 -1.61 0.67 -0.44 11079
0.00 0.00 -3.43 15.01 18.93 -2.96 -0.12 -0.31 11086
0.00 0.00 -3.11 11.97 16.28 -3.60 -1.42 -0.26 11094
0.00 0.00 0.65 8.97 13.09 -3.66 -2.15 -0.37 11101
0.00 0.00 3.62 8.00 9.99 -3.65 -1.99 -0.52 11108
0.00 0.00 5.75 7.09 8.21 -3.72 -1.37 -0.70 11115
0.00 0.00 6.05 6.59 7.61 -3.83 -0.66 -0.89 11122
0.00 0.00 4.77 6.01 7.98 -4.03 0.18 -1.04 11129
0.00 0.00 2.60 5.35 8.42 -4.19 0.89 -1.15 11137
0.00 0.00 0.80 5.13 8.65 -4.28 1.26 -1.18 11144
0.00 0.00 -1.43 4.58 9.28 -4.28 1.37 -1.14 11151
0.00 0.00 -3.51 3.90 9.82 -4.28 1.24 -0.99 11158
0.00 0.00 -3.15 3.10 10.43 -4.28 0.89 -0.83 11165
0.00 0.00 -2.30 2.26 10.75 -4.28 0.63 -0.66 11172
0.00 0.00 -1.50 1.60 10.88 -4.28 0.54 -0.48 11180
0.00 0.00 -1.12 1.29 10.91 -4.28 0.55 -0.38 11187
0.00 0.00 -0.77 0.47 11.89 -4.28 0.72 -0.26 11194
0.00 0.00 -0.79 0.17 12.15 -4.28 0.88 -0.18 11201
0.00 0.00 -1.29 -0.19 13.04 -4.28 1.05 -0.10 11208
0.00 0.00 -1.70 -0.14 13.10 -4.28 1.14 -0.08 11215
0.00 0.00 -0.80 -1.58 15.55 -4.28 1.33 -0.04 11223
0.00 0.00 -2.87 0.48 14.34 -4.28 1.14 -0.11 11230
0.00 0.00 -2.16 -1.94 17.06 -4.28 1.16 -0.15 11237
0.00 0.00 -2.12 -1.84 17.97 -4.28 1.06 -0.18 11244
0.00 0.00 -1.77 -1.89 17.89 -4.28 1.01 -0.22 11251
0.00 0.00 -1.29 -2.30 18.80 -4.28 0.99 -0.23 11258
0.00 0.00 -0.55 -3.31 20.02 -4.28 1.11 -0.23 11266
0.00 0.00 -0.78 -3.50 21.29 -4.28 1.25 -0.18 11273
0.00 0.00 -0.57 -4.16 22.71 -4.28 1.34 -0.11 11280
0.00 0.00 -1.10 -4.78 24.56 -4.28 1.37 -0.02 11287
0.00 0.00 -1.14 -5.88 25.89 -4.28 1.39 0.03 11294
0.00 0.00 -1.26 -7.14 27.11 -4.28 1.48 0.07 11301
0.00 0.00 -0.84 -9.60 28.81 -4.28 1.70 0.09 11309
0.00 0.00 -1.12 -11.26 30.44 -4.28 2.06 0.09 11316
0.00 0.00 -1.55 -14.84 31.19 -4.28 2.37 0.13 11323
0.00 0.00 -2.17 -18.05 30.01 -4.28 2.46 0.19 11330
0.00 0.00 -3.47 -20.97 27.49 -4.28 2.37 0.16 11337
0.00 0.00 -4.52 -26.13 24.20 -4.28 2.44 0.27 11344
0.00 0.00 -6.93 -31.55 21.36 -4.28 2.57 0.46 11352
0.00 0.00 -8.90 -39.13 16.31 -4.28 2.23 0.68 11359
0.00 0.00 -9.22 -51.53 8.98 -4.27 1.65 0.81 11366
0.00 0.00 -9.40 -67.49 1.29 -3.70 1.28 0.73 11373
0.00 0.00 -11.65 -73.22 -1.69 -2.75 1.23 0.46 11380
0.00 0.00 -17.58 -71.25 -0.74 -1.06 0.86 0.23 11387
0.00 0.00 -18.51 -58.61 0.63 0.55 -0.34 -0.05 11395
0.00 0.00 -5.74 -57.42 16.65 2.52 -2.14 -0.48 11402
0.00 0.00 -8.38 -19.57 15.35 4.28 -2.70 -1.53 11409
-0.00 0.03 3.55 11.71 4.41 4.28 -2.42 -1.69 11416
-0.02 0.16 0.90 -0.23 24.88 4.23 -2.31 -1.51 11423
-0.02 0.44 8.52 0.11 18.60 3.67 -1.58 -1.00 11431
-0.03 0.69 5.38 -3.93 18.32 4.02 -1.29 -0.40 11439
-0.05 0.84 4.17 -6.33 18.82 4.28 -0.66 0.18 11446
-0.05 0.89 2.56 -5.12 20.16 4.28 0.16 0.97 11453
-0.07 1.02 -3.98 -5.26 25.77 4.19 0.72 1.18 11460
-0.07 1.05 -4.97 -4.08 17.79 3.44 0.73 0.81 11467
-0.06 1.07 -3.93 -3.56 15.74 3.24 0.48 0.28 11474
-0.06 1.05 -0.11 -1.98 14.79 2.84 0.58 0.02 11482
-0.06 1.03 3.26 -1.51 16.83 2.31 0.60 0.07 11489
-0.07 0.90 0.61 -1.98 14.39 0.84 -0.09 0.19 11496
-0.06 0.81 -0.22 -4.30 13.57 0.03 -0.07 0.14 11502
-0.04 0.78 -0.86 -2.72 11.65 -0.10 -0.06 -0.01 11510
-0.04 0.84 0.71 -1.18 10.21 -0.06 -0.01 0.01 11517
-0.01 0.76 0.45 -1.06 10.12 -0.07 -0.01 0.06 11524
-0.01 0.79 0.01 -1.18 10.14 -0.08 -0.00 0.04 11531
-0.02 0.79 0.33 -1.05 10.21 -0.08 0.02 0.04 11538
-0.01 0.80 0.26 -0.81 10.00 -0.06 0.03 0.04 11545
0.00 0.78 0.18 -0.80 9.85 -0.05 0.05 0.03 11552
0.03 0.74 0.27 -0.75 9.90 -0.04 0.07 0.03 11559
0.02 0.74 0.24 -0.59 9.97 -0.02 0.08 0.02 11567
0.02 0.76 0.19 -0.65 9.87 -0.00 0.10 0.02 11574
0.00 0.76 0.22 -0.59 9.88 0.01 0.12 0.01 11581
0.01 0.73 0.32 -0.61 9.89 0.05 0.12 0.01 11588
0.03 0.69 0.41 -0.54 9.94 0.08 0.10 0.00 11595
0.04 0.66 0.46 -0.54 9.89 0.11 0.06 -0.01 11602
0.02 0.60 0.52 -0.60 9.89 0.13 0.01 -0.02 11610
0.01 0.54 0.54 -0.61 9.80 0.15 -0.05 -0.02 11617
0.03 0.55 0.41 -0.66 9.84 0.17 -0.09 -0.07 11624
0.02 0.52 0.37 -0.65 9.82 0.17 -0.12 -0.04 11631
0.04 0.51 0.38 -0.65 9.81 0.19 -0.12 -0.05 11638
0.03 0.43 0.39 -0.66 9.70 0.19 -0.12 -0.06 11645
0.03 0.39 0.43 -0.69 9.63 0.19 -0.11 -0.07 11653
0.01 0.37 0.37 -0.67 9.62 0.19 -0.11 -0.07 11660
0.00 0.36 0.39 -0.72 9.58 0.18 -0.10 -0.08 11667
0.02 0.33 0.39 -0.74 9.59 0.18 -0.10 -0.08 11674
0.03 0.29 0.34 -0.77 9.56 0.17 -0.10 -0.08 11681
0.03 0.23 0.39 -0.79 9.54 0.15 -0.10 -0.08 11688
0.03 0.20 0.35 -0.83 9.56 0.14 -0.09 -0.08 11696
0.04 0.20 0.32 -0.89 9.60 0.12 -0.08 -0.08 11703
0.04 0.19 0.30 -0.90 9.57 0.12 -0.08 -0.08 11710
0.04 0.18 0.22 -1.09 9.58 0.12 -0.08 -0.09 11717
0.11 0.16 0.31 -1.07 9.53 0.12 -0.07 -0.09 11724
0.07 0.15 0.39 -0.86 9.77 0.11 -0.07 -0.10 11731
0.09 0.14 0.32 -0.92 9.76 0.13 -0.07 -0.10 11739
0.09 0.16 0.36 -0.99 9.60 0.14 -0.07 -0.11 11746
0.09 0.12 0.33 -0.92 9.79 0.16 -0.07 -0.11 11753
0.13 0.15 0.24 -0.94 9.76 0.18 -0.07 -0.12 11760
0.19 0.08 0.20 -0.78 9.83 0.21 -0.07 -0.12 11767
0.20 0.07 0.30 -0.80 9.88 0.25 -0.08 -0.12 11774
0.23 0.04 0.16 -1.01 10.10 0.28 -0.09 -0.12 11782
0.22 0.03 0.25 -0.94 10.00 0.31 -0.10 -0.13 11789
0.23 0.01 0.24 -1.13 10.09 0.34 -0.12 -0.14 11797
0.24 0.02 0.63 -1.03 10.21 0.37 -0.14 -0.15 11804
0.30 0.02 0.45 -1.27 10.20 0.40 -0.17 -0.18 11810
0.33 -0.01 0.38 -1.42 10.36 0.44 -0.19 -0.20 11819
0.39 -0.02 0.51 -1.52 10.39 0.49 -0.22 -0.26 11826
0.43 -0.01 0.93 -1.51 10.73 0.56 -0.28 -0.30 11833
0.52 -0.02 1.05 -1.56 11.01 0.65 -0.37 -0.38 11840
0.60 -0.02 1.44 -1.77 11.11 0.75 -0.40 -0.45 11847
0.69 -0.03 1.47 -1.63 11.39 0.87 -0.32 -0.55 11854
0.75 -0.03 -0.70 -1.80 13.21 1.08 -0.14 -0.59 11862
0.80 -0.05 -1.32 -1.53 13.37 1.43 -0.23 -0.45 11869
0.88 -0.04 -0.23 -1.71 13.39 1.68 -0.25 -0.37 11876
0.93 -0.04 -0.31 -1.30 14.03 1.91 -0.22 -0.33 11883
0.99 -0.04 -0.46 -1.83 14.03 2.23 -0.22 -0.29 11890
1.06 -0.05 -0.83 -1.81 14.47 2.51 -0.10 -0.26 11897
1.07 -0.06 -0.66 -2.03 15.56 2.87 -0.01 -0.21 11905
1.05 -0.04 0.11 -2.33 15.79 3.29 0.05 -0.19 11912
1.07 -0.03 0.53 -1.99 15.45 3.63 0.07 -0.22 11919
1.05 -0.02 0.95 -2.36 15.88 4.05 0.12 -0.28 11926
1.07 -0.03 1.02 -2.58 15.98 4.27 0.24 -0.36 11933
1.00 -0.02 1.11 -2.30 18.06 4.28 0.32 -0.43 11940
0.96 -0.03 2.32 -1.91 19.42 4.28 0.02 -0.53 11948
0.85 -0.01 3.65 -2.22 18.86 4.28 -0.34 -0.71 11955
0.71 -0.01 1.84 -2.71 18.94 4.28 -0.61 -0.86 11962
0.51 -0.00 0.90 -4.54 22.07 4.28 -0.72 -0.96 11969
0.33 -0.00 -1.16 -5.18 24.98 4.28 -0.83 -0.91 11976
0.21 -0.01 -1.60 -6.18 29.98 4.28 -0.60 -0.71 11983
0.14 -0.01 -4.64 -9.35 34.35 4.28 -1.04 -0.78 11991
0.09 -0.00 -2.55 -10.34 34.26 4.28 -2.16 -0.72 11998
0.05 -0.01 1.15 -9.13 32.71 4.28 -2.70 -0.60 12004
0.04 -0.00 4.69 -6.23 32.95 4.28 -3.17 -0.69 12011
0.03 -0.00 7.07 -0.45 31.29 4.28 -3.26 -0.63 12018
0.03 -0.00 8.31 6.87 30.81 4.28 -3.21 -0.57 12025
0.00 0.00 10.06 13.94 29.70 4.28 -2.92 -0.52 12033
0.00 0.00 9.52 28.46 22.67 4.28 -2.60 -0.46 12040
0.00 0.00 12.91 27.04 1.22 4.13 -1.85 -0.39 12047
0.00 0.00 10.75 25.00 22.34 1.15 -0.66 -0.12 12054
0.00 0.00 5.03 18.41 23.84 -1.41 -0.04 -0.08 12061
0.00 0.00 0.65 16.13 19.86 -2.82 -0.01 0.02 12068
0.00 0.00 -0.29 13.40 14.52 -3.29 -0.54 0.10 12076
0.00 0.00 1.24 11.52 11.37 -3.33 -1.01 0.09 12083
-0.00 0.00 2.40 9.79 9.44 -3.29 -1.03 0.07 12090
0.00 0.00 3.24 8.48 7.71 -3.33 -0.86 0.04 12097
0.00 0.00 3.42 7.93 7.40 -3.45 -0.58 0.00 12104
0.00 0.00 2.70 7.23 7.56 -3.61 -0.23 -0.05 12111
0.00 0.00 1.54 6.61 8.03 -3.84 0.08 -0.06 12119
0.00 0.00 0.29 6.25 8.27 -4.09 0.28 -0.03 12126
-0.00 0.01 -0.94 5.77 8.49 -4.23 0.27 0.04 12133
0.00 0.00 -1.62 4.93 9.43 -4.28 0.19 0.11 12140
0.00 -0.00 -1.26 4.13 9.99 -4.28 0.16 0.18 12147
0.00 -0.00 -0.97 3.51 10.47 -4.28 0.16 0.22 12154
0.00 0.00 -0.46 2.91 10.62 -4.28 0.26 0.21 12162
-0.00 0.00 -1.05 2.41 10.84 -4.28 0.30 0.18 12169
-0.00 0.00 -0.62 0.89 12.03 -4.28 0.45 0.13 12176
0.00 0.00 -1.72 0.90 12.01 -4.28 0.49 0.07 12183
0.00 0.00 -0.97 -0.26 12.89 -4.28 0.71 -0.03 12190
0.00 0.00 -1.82 -0.54 13.25 -4.28 0.94 -0.10 12197
0.00 0.00 -1.09 -0.90 13.72 -4.28 0.98 -0.26 12205
0.00 0.00 -0.35 -0.71 14.44 -4.28 1.10 -0.45 12212
0.01 0.00 -3.08 -0.55 16.38 -4.28 0.88 -0.57 12219
0.00 0.00 -2.37 -1.97 18.05 -4.28 0.75 -0.69 12226
0.00 0.00 -1.71 -1.80 18.92 -4.28 0.63 -0.75 12233
0.00 0.00 0.02 -2.38 18.89 -4.28 0.70 -0.85 12240
0.00 0.00 -0.16 -2.67 20.41 -4.28 0.85 -0.90 12248
-0.00 0.00 0.19 -3.82 21.39 -4.28 1.06 -0.89 12255
0.00 -0.00 0.29 -4.62 22.71 -4.28 1.32 -0.85 12262
0.00 0.00 0.77 -5.74 24.30 -4.28 1.54 -0.80 12269
0.00 0.00 0.99 -6.88 25.73 -4.28 1.78 -0.71 12276
0.00 0.00 1.71 -8.55 27.99 -4.28 2.07 -0.63 12283
0.00 0.00 1.73 -9.88 30.00 -4.28 2.47 -0.57 12291
-0.00 0.01 0.88 -11.43 31.77 -4.28 2.70 -0.45 12299
0.00 -0.00 -0.37 -13.01 31.46 -4.28 2.62 -0.20 12305
0.00 0.00 -0.58 -16.52 28.97 -4.28 2.26 -0.01 12312
0.00 0.00 0.11 -20.63 25.40 -4.28 1.97 0.14 12319
0.00 0.00 0.98 -24.96 22.41 -4.28 1.90 0.18 12326
0.00 0.00 -0.09 -29.07 17.62 -4.28 2.14 0.23 12334
-0.00 0.01 -1.97 -34.61 14.56 -4.28 2.78 0.23 12342
0.00 0.00 -6.69 -45.01 12.82 -4.09 3.53 0.20 12348
0.00 0.00 -14.88 -58.72 7.06 -3.80 3.58 0.11 12355
0.00 0.00 -21.63 -67.50 2.11 -3.04 3.04 0.14 12362
0.00 0.00 -26.51 -67.55 -0.14 -1.55 1.41 0.16 12369
0.00 0.00 -22.35 -56.38 0.73 0.02 -0.50 -0.01 12377
0.00 0.00 -13.87 -45.49 3.83 1.53 -2.35 -0.26 12384
0.00 0.00 -5.51 -33.73 10.40 2.26 -3.03 -0.49 12391
0.00 0.00 -0.51 -25.99 13.96 2.46 -2.90 -0.69 12398
0.00 0.00 17.55 8.69 41.36 3.30 -3.20 -1.00 12405
-0.00 0.01 3.18 16.88 7.81 3.53 -2.61 -0.81 12412
-0.01 0.14 6.63 7.82 6.97 2.76 -1.94 -0.40 12420
-0.03 0.46 2.58 1.94 9.57 3.20 -1.80 0.10 12427
-0.04 0.81 1.44 -2.85 13.82 4.03 -1.45 0.47 12435
-0.07 0.94 0.53 -4.55 17.47 4.28 -0.74 0.85 12442
-0.08 1.04 -1.42 -4.62 23.01 4.28 0.58 1.29 12449
-0.06 1.12 -6.92 -5.16 23.62 3.93 0.71 1.18 12456
-0.07 1.21 -6.88 -4.73 18.24 3.48 0.50 0.49 12464
-0.05 1.21 -4.22 -2.75 16.12 3.37 0.42 -0.09 12471
-0.05 1.12 1.13 -1.69 14.48 2.92 0.34 -0.25 12478
-0.06 1.09 3.65 -0.98 12.33 2.60 0.25 -0.10 12485
-0.07 1.12 3.07 -1.49 12.68 2.42 0.44 0.21 12492
-0.06 1.07 0.42 -2.82 17.44 1.97 0.55 0.48 12499
-0.06 0.98 -0.74 -1.74 13.90 0.56 -0.21 0.23 12507
-0.03 0.95 -0.62 -3.19 13.42 0.00 -0.25 0.02 12513
-0.04 0.91 0.05 -1.88 10.56 -0.06 -0.11 -0.02 12521
-0.05 0.89 0.44 -1.20 10.45 -0.05 -0.05 0.03 12527
-0.04 0.86 -0.09 -1.52 10.54 -0.05 -0.05 0.02 12534
-0.01 0.82 0.08 -1.11 10.00 -0.03 -0.02 0.02 12541
-0.00 0.83 0.32 -0.88 9.91 -0.05 -0.01 0.02 12549
0.01 0.85 0.17 -0.84 10.03 -0.00 -0.02 0.01 12556
0.02 0.83 0.16 -0.82 9.89 -0.02 -0.01 0.01 12563
0.01 0.84 0.10 -0.71 9.86 -0.01 -0.00 0.00 12570
0.01 0.85 0.10 -0.64 9.87 0.01 0.01 -0.00 12577
0.04 0.82 0.03 -0.62 9.94 0.05 0.02 -0.01 12584
0.02 0.78 0.11 -0.61 9.95 0.09 0.03 -0.01 12592
0.03 0.76 0.15 -0.66 9.91 0.12 0.01 -0.01 12599
0.00 0.74 0.20 -0.63 9.90 0.15 -0.02 -0.01 12606
0.01 0.70 0.16 -0.66 9.95 0.17 -0.04 -0.02 12613
-0.01 0.65 0.15 -0.67 9.88 0.20 -0.07 -0.03 12620
0.02 0.61 0.15 -0.68 9.83 0.23 -0.07 -0.03 12627
0.05 0.53 0.24 -0.64 9.80 0.25 -0.08 -0.04 12635
0.07 0.46 0.26 -0.78 9.81 0.26 -0.09 -0.05 12642
0.08 0.40 0.20 -0.81 9.79 0.26 -0.10 -0.06 12649
0.08 0.33 0.26 -0.83 9.67 0.27 -0.10 -0.06 12656
0.10 0.30 0.21 -0.84 9.69 0.27 -0.11 -0.07 12663
0.12 0.24 0.20 -0.82 9.62 0.26 -0.11 -0.07 12670
0.13 0.20 0.24 -0.94 9.58 0.25 -0.11 -0.07 12678
0.15 0.16 0.26 -0.99 9.56 0.23 -0.12 -0.08 12685
0.12 0.16 0.27 -0.96 9.61 0.21 -0.13 -0.09 12692
0.10 0.15 0.21 -1.07 9.54 0.19 -0.13 -0.10 12699
0.12 0.12 0.29 -1.07 9.38 0.18 -0.14 -0.10 12706
0.14 0.10 0.04 -1.04 10.35 0.17 -0.13 -0.10 12713
0.14 0.10 0.63 -0.93 9.87 0.17 -0.12 -0.11 12721
0.16 0.07 -0.05 -1.10 9.70 0.16 -0.12 -0.12 12728
0.18 0.07 0.26 -1.20 9.75 0.17 -0.11 -0.13 12735
0.22 0.05 0.12 -1.10 9.85 0.18 -0.11 -0.13 12742
0.21 0.03 0.22 -1.20 9.80 0.18 -0.10 -0.14 12749
0.18 0.05 0.07 -1.08 9.75 0.20 -0.09 -0.15 12756
0.26 0.01 -0.43 -1.16 9.81 0.22 -0.09 -0.15 12764
0.27 0.03 0.06 -1.19 9.91 0.23 -0.09 -0.15 12771
0.32 -0.01 0.07 -1.21 9.94 0.26 -0.11 -0.16 12778
0.33 0.02 0.35 -1.72 10.15 0.30 -0.13 -0.17 12786
0.39 0.01 0.34 -1.33 10.17 0.34 -0.17 -0.20 12793
0.44 -0.00 0.45 -1.61 10.31 0.38 -0.20 -0.23 12801
0.49 -0.01 0.40 -1.56 10.50 0.44 -0.26 -0.26 12808
0.54 -0.03 0.47 -1.49 10.43 0.50 -0.34 -0.31 12815
0.60 -0.04 0.72 -1.68 10.82 0.60 -0.42 -0.37 12822
0.68 -0.03 1.01 -1.78 10.92 0.68 -0.48 -0.45 12829
0.77 -0.02 1.85 -1.94 10.79 0.74 -0.45 -0.56 12836
0.84 -0.05 2.26 -2.21 12.25 0.82 -0.23 -0.71 12844
0.85 -0.05 -2.84 -1.36 13.52 1.13 -0.13 -0.65 12851
0.90 -0.05 -1.83 -1.65 12.66 1.43 -0.30 -0.44 12858
0.93 -0.05 -1.67 -1.60 13.12 1.62 -0.20 -0.35 12865
1.03 -0.05 -1.22 -1.73 13.55 1.84 -0.17 -0.23 12872
1.04 -0.05 -0.88 -1.94 14.13 2.14 -0.12 -0.16 12879
1.09 -0.05 -1.26 -1.86 14.39 2.44 -0.01 -0.11 12887
1.11 -0.05 -0.17 -2.17 14.67 2.73 0.05 -0.05 12894
1.11 -0.06 0.17 -1.71 14.33 3.12 0.15 -0.05 12901
1.12 -0.05 0.39 -2.29 14.91 3.52 0.17 -0.09 12908
1.13 -0.04 1.12 -1.94 15.67 3.86 0.18 -0.19 12915
1.10 -0.03 1.23 -2.68 16.46 4.22 0.24 -0.27 12922
1.08 -0.03 1.65 -2.32 17.84 4.28 0.13 -0.36 12930
0.98 -0.02 2.30 -2.24 18.19 4.28 -0.10 -0.47 12937
0.95 -0.04 2.76 -2.37 18.18 4.28 -0.29 -0.65 12944
0.80 -0.02 2.62 -3.00 19.14 4.28 -0.51 -0.85 12951
0.65 -0.01 1.87 -4.15 20.89 4.28 -0.68 -0.99 12958
0.38 0.01 0.12 -6.28 24.98 4.28 -0.72 -1.03 12965
0.22 -0.01 -2.15 -5.96 28.10 4.28 -0.57 -0.92 12973
0.20 -0.02 -5.44 -8.55 33.73 4.28 -0.62 -0.85 12979
0.14 -0.01 -4.79 -11.45 36.71 4.28 -1.44 -0.78 12987
0.08 -0.01 -2.23 -10.40 33.66 4.28 -2.31 -0.58 12994
0.05 0.00 1.91 -6.83 32.62 4.28 -2.86 -0.58 13000
0.05 0.00 5.51 -0.46 30.93 4.28 -2.88 -0.47 13007
0.03 -0.00 7.77 6.74 29.05 4.28 -2.73 -0.34 13015
0.02 -0.00 8.80 13.02 26.74 4.28 -2.26 -0.28 13022
0.00 0.00 9.82 23.25 22.50 4.28 -1.68 -0.34 13029
0.00 0.00 11.97 31.00 -1.46 4.21 -0.92 -0.48 13036
0.00 0.00 10.42 23.47 23.63 1.71 -0.00 -0.24 13043
0.00 0.00 3.67 17.94 26.53 -1.53 0.45 -0.16 13050
0.00 0.00 -0.50 15.09 18.75 -2.75 0.29 -0.13 13058
0.00 0.00 -1.60 12.55 14.54 -3.20 -0.51 -0.13 13065
0.00 0.00 0.66 9.90 11.17 -3.20 -1.16 -0.24 13072
0.00 0.00 2.42 8.43 8.93 -3.11 -1.15 -0.33 13079
0.00 0.00 3.82 7.41 7.54 -3.09 -0.80 -0.44 13086
0.00 0.00 4.18 6.91 6.70 -3.16 -0.32 -0.56 13093
0.00 0.00 3.07 6.71 7.06 -3.32 0.33 -0.64 13101
0.00 0.00 0.65 6.40 7.51 -3.53 0.79 -0.65 13108
0.00 0.00 -1.14 6.32 8.17 -3.82 0.95 -0.59 13115
0.00 0.00 -2.75 6.08 8.58 -4.11 0.85 -0.45 13122
0.00 0.00 -3.32 5.24 9.49 -4.25 0.62 -0.27 13129
0.00 0.00 -3.23 4.73 9.93 -4.28 0.39 -0.12 13136
0.00 0.00 -2.48 3.81 10.19 -4.28 0.27 0.01 13144
0.00 0.00 -1.71 2.47 10.27 -4.28 0.31 0.13 13151
0.00 0.00 -1.43 2.21 10.49 -4.28 0.45 0.12 13158
0.00 0.00 -1.70 1.66 10.99 -4.28 0.57 0.10 13165
0.00 -0.00 -1.59 0.76 12.02 -4.28 0.76 0.06 13172
0.00 0.00 -2.09 0.70 12.36 -4.28 0.89 -0.00 13179
0.00 0.00 -2.38 -0.03 13.65 -4.28 0.99 -0.09 13187
0.00 0.00 -2.49 -0.07 13.75 -4.28 1.06 -0.19 13194
0.00 0.00 -1.55 -1.13 15.83 -4.28 1.16 -0.31 13201
0.00 0.00 -3.05 -0.32 16.10 -4.28 1.06 -0.44 13208
0.00 0.00 -2.21 -2.02 17.86 -4.28 1.03 -0.57 13215
0.00 0.00 -2.13 -1.87 17.91 -4.28 0.99 -0.65 13222
0.00 0.00 -1.22 -2.60 18.93 -4.28 0.96 -0.71 13230
0.00 0.00 -0.97 -2.90 19.39 -4.28 1.02 -0.72 13237
0.00 0.00 -0.38 -3.80 20.71 -4.28 1.11 -0.70 13244
0.00 0.00 -0.28 -4.15 21.66 -4.28 1.24 -0.63 13251
0.00 -0.00 -0.17 -4.82 23.36 -4.28 1.37 -0.53 13258
0.00 0.00 -0.18 -5.22 24.58 -4.28 1.41 -0.41 13265
0.00 0.00 -0.05 -6.32 26.02 -4.28 1.50 -0.25 13273
0.00 0.00 -0.08 -7.60 27.57 -4.28 1.62 -0.12 13280
0.00 0.00 0.12 -9.56 29.32 -4.28 1.81 -0.00 13287
0.00 0.00 -0.01 -12.12 30.77 -4.28 1.96 0.10 13294
0.00 0.00 0.12 -15.27 30.92 -4.28 1.95 0.16 13301
0.00 0.00 0.73 -17.95 29.38 -4.28 1.85 0.15 13308
0.00 0.00 1.21 -21.67 26.21 -4.28 1.88 0.11 13316
0.00 0.00 1.18 -25.74 22.77 -4.28 2.05 0.11 13323
0.00 0.00 0.08 -30.89 17.65 -4.28 2.30 0.09 13330
0.00 0.00 -2.03 -37.97 11.48 -4.28 2.92 0.03 13337
0.00 0.00 -7.04 -54.29 7.52 -4.00 4.07 -0.09 13344
0.00 0.00 -18.04 -67.69 4.04 -3.47 4.28 -0.21 13351
0.00 0.00 -28.87 -72.29 1.26 -2.27 3.64 -0.19 13359
0.00 0.00 -32.12 -65.34 -1.25 -0.76 1.16 -0.13 13366
0.00 0.00 -22.85 -52.58 0.60 1.06 -1.54 -0.36 13373
0.00 0.00 -12.66 -41.38 6.84 2.26 -3.54 -0.59 13380
0.00 0.00 0.52 -24.95 37.30 4.19 -4.28 -1.61 13387
-0.00 0.01 2.28 12.72 7.64 4.27 -3.23 -1.57 13394
-0.01 0.14 1.31 2.93 15.71 3.78 -2.93 -1.29 13402
-0.04 0.39 4.85 2.75 16.24 3.44 -2.50 -0.75 13409
-0.04 0.71 5.51 -0.80 13.81 3.80 -1.83 -0.18 13417
-0.05 0.81 0.64 -5.86 18.70 4.27 -1.00 0.43 13424
-0.06 0.93 2.26 -4.26 18.73 4.28 0.05 1.02 13431
-0.06 1.03 -4.31 -3.98 24.59 4.23 0.62 1.17 13438
-0.08 1.09 -5.77 -4.93 19.79 3.51 0.59 0.75 13446
-0.05 1.11 -4.45 -3.57 15.20 3.22 0.56 0.28 13453
-0.06 1.09 -1.46 -1.55 13.82 3.07 0.50 -0.04 13460
-0.04 0.99 1.36 -1.17 12.78 2.75 0.49 -0.09 13467
-0.06 0.99 2.87 -0.78 12.24 2.49 0.59 0.07 13474
-0.05 0.96 -0.77 -5.28 22.87 1.63 0.03 0.26 13481
-0.05 0.85 1.45 -2.05 14.10 0.04 -0.16 0.15 13489
-0.05 0.79 -0.99 -3.49 12.55 -0.16 -0.06 -0.01 13496
-0.01 0.81 0.60 -0.79 9.67 -0.08 -0.02 0.01 13502
-0.01 0.75 0.44 -1.09 10.07 -0.10 -0.01 0.05 13509
0.02 0.71 -0.16 -1.30 10.13 -0.10 -0.01 0.03 13516
0.03 0.71 0.18 -1.28 10.27 -0.10 0.02 0.02 13523
0.02 0.75 0.19 -0.88 10.05 -0.08 0.03 0.02 13531
0.04 0.76 0.13 -0.83 9.94 -0.06 0.03 0.02 13538
0.07 0.80 0.24 -0.83 9.97 -0.05 0.04 0.02 13545
0.07 0.80 0.24 -0.74 9.92 -0.04 0.04 0.01 13552
0.06 0.78 0.15 -0.63 9.86 -0.02 0.05 0.01 13559
0.03 0.78 0.10 -0.63 9.83 0.00 0.06 -0.00 13566
0.04 0.76 0.16 -0.64 9.85 0.02 0.07 -0.01 13574
0.02 0.74 0.19 -0.64 9.88 0.05 0.08 -0.01 13581
0.03 0.74 0.25 -0.65 9.87 0.08 0.08 -0.02 13588
0.03 0.68 0.29 -0.65 9.86 0.11 0.06 -0.02 13595
0.05 0.66 0.28 -0.69 9.81 0.13 0.04 -0.02 13602
-0.00 0.57 0.25 -0.72 9.83 0.14 0.03 -0.02 13609
0.01 0.49 0.27 -0.68 9.83 0.16 0.03 -0.03 13617
0.01 0.47 0.29 -0.70 9.77 0.17 0.03 -0.03 13624
0.03 0.43 0.30 -0.71 9.78 0.18 0.02 -0.04 13631
0.00 0.40 0.30 -0.71 9.74 0.18 0.02 -0.05 13638
0.00 0.36 0.32 -0.74 9.68 0.18 0.02 -0.05 13645
0.02 0.37 0.35 -0.73 9.63 0.18 0.02 -0.06 13652
0.02 0.28 0.37 -0.78 9.63 0.18 0.02 -0.06 13660
0.01 0.25 0.36 -0.81 9.61 0.18 0.02 -0.07 13667
0.01 0.24 0.44 -0.86 9.66 0.18 0.02 -0.07 13674
0.02 0.13 0.41 -0.87 9.60 0.18 0.00 -0.07 13681
0.02 0.14 0.41 -0.95 9.67 0.16 -0.00 -0.07 13688
0.01 0.14 0.38 -0.97 9.64 0.14 -0.01 -0.07 13696
0.05 0.10 0.99 -0.86 9.70 0.13 -0.02 -0.08 13703
0.02 0.13 0.36 -1.04 9.57 0.13 -0.03 -0.09 13710
0.08 0.11 0.60 -0.97 9.80 0.11 -0.03 -0.09 13717
0.06 0.10 0.43 -1.07 9.80 0.12 -0.04 -0.09 13724
0.05 0.08 0.43 -1.08 9.68 0.13 -0.05 -0.10 13731
0.06 0.07 0.26 -1.00 9.80 0.14 -0.07 -0.10 13739
0.06 0.09 0.42 -0.98 9.81 0.15 -0.08 -0.11 13746
0.10 0.08 0.01 -1.08 9.83 0.17 -0.11 -0.11 13753
0.18 0.04 0.28 -0.98 9.90 0.19 -0.11 -0.12 13760
0.17 0.07 0.26 -1.00 9.79 0.22 -0.11 -0.12 13767
0.16 0.03 0.27 -1.09 9.84 0.23 -0.11 -0.13 13774
0.18 0.01 0.29 -1.00 9.95 0.26 -0.10 -0.13 13782
0.24 0.03 0.30 -1.12 9.95 0.29 -0.11 -0.14 13789
0.25 0.01 0.35 -1.15 10.09 0.32 -0.12 -0.16 13797
0.30 -0.01 0.42 -1.25 10.21 0.35 -0.14 -0.18 13804
0.31 -0.02 0.36 -1.31 10.15 0.39 -0.16 -0.20 13811
0.36 -0.02 0.52 -1.40 10.43 0.44 -0.18 -0.24 13818
0.46 -0.03 0.85 -1.61 10.78 0.51 -0.21 -0.29 13826
0.51 -0.03 1.03 -1.43 11.05 0.60 -0.25 -0.36 13833
0.54 -0.03 1.43 -1.64 11.38 0.73 -0.33 -0.44 13840
0.58 -0.03 2.03 -1.77 11.29 0.89 -0.26 -0.55 13847
0.66 -0.04 -0.87 -1.32 13.38 1.10 -0.09 -0.58 13854
0.72 -0.04 -1.27 -1.65 13.19 1.51 -0.26 -0.46 13861
0.76 -0.04 -0.40 -1.66 12.97 1.72 -0.29 -0.37 13869
0.87 -0.03 -0.51 -1.74 13.88 1.97 -0.27 -0.32 13876
0.92 -0.05 -0.85 -1.89 13.73 2.23 -0.26 -0.26 13883
0.94 -0.05 -0.99 -1.76 14.22 2.47 -0.17 -0.18 13890
0.97 -0.05 -0.46 -2.09 15.03 2.79 -0.07 -0.12 13897
0.98 -0.02 0.50 -2.26 15.71 3.11 -0.01 -0.11 13904
1.00 -0.03 0.86 -2.25 16.21 3.51 -0.02 -0.16 13912
1.05 -0.03 1.62 -2.29 15.87 3.94 -0.02 -0.25 13919
1.06 -0.04 1.41 -1.83 15.44 4.22 0.04 -0.38 13926
1.05 -0.04 1.50 -2.85 16.18 4.28 0.24 -0.47 13933
0.99 -0.03 2.85 -2.29 18.41 4.28 0.39 -0.60 13940
0.90 -0.02 4.20 -2.37 19.54 4.28 0.12 -0.83 13947
0.80 -0.02 2.39 -2.83 19.37 4.28 -0.40 -1.03 13955
0.61 -0.02 2.06 -5.13 20.83 4.28 -0.76 -1.17 13962
0.42 -0.02 0.98 -7.41 24.98 4.28 -0.81 -1.19 13969
0.23 -0.01 0.90 -6.83 28.63 4.28 -0.81 -1.10 13976
0.17 -0.02 -1.76 -6.18 29.08 4.28 -0.85 -1.15 13982
0.11 -0.01 -4.35 -8.40 33.82 4.28 -1.21 -1.13 13990
0.11 -0.01 -3.18 -10.36 33.29 4.28 -1.91 -0.87 13998
0.05 -0.01 1.14 -7.82 31.34 4.28 -2.53 -0.89 14004
0.03 -0.00 4.91 -1.60 30.19 4.28 -2.80 -0.80 14011
0.02 -0.00 7.16 4.98 28.32 4.28 -2.84 -0.70 14018
0.02 -0.00 9.89 10.84 26.03 4.28 -2.44 -0.65 14025
0.01 -0.00 10.14 16.87 23.84 4.28 -1.79 -0.75 14033
0.00 0.00 8.95 26.44 12.98 4.28 -1.13 -0.95 14040
0.00 -0.00 11.55 22.67 12.01 3.34 0.07 -0.83 14048
0.00 0.00 7.06 20.34 24.54 0.36 0.79 -0.64 14054
0.00 0.00 1.03 16.92 21.15 -1.91 0.79 -0.52 14061
0.00 0.00 -1.67 13.08 16.03 -2.82 0.09 -0.30 14068
0.00 0.00 -1.22 10.42 12.61 -3.10 -0.75 -0.21 14075
0.00 0.00 1.32 8.36 10.27 -3.03 -1.21 -0.20 14083
0.00 0.00 3.25 7.41 7.96 -2.99 -1.17 -0.22 14090
0.00 0.00 4.22 7.01 7.06 -3.10 -0.81 -0.25 14097
0.00 0.00 4.09 6.59 7.26 -3.26 -0.33 -0.29 14104
0.00 0.00 2.87 6.40 7.65 -3.57 0.08 -0.30 14111
0.00 0.00 1.18 6.33 8.03 -3.94 0.44 -0.26 14118
0.00 0.00 -0.16 5.97 8.25 -4.20 0.56 -0.17 14126
0.00 0.00 -1.38 5.13 8.99 -4.28 0.51 -0.10 14133
0.00 0.00 -1.86 4.23 9.29 -4.28 0.38 -0.03 14140
0.00 0.00 -1.82 3.43 9.54 -4.28 0.28 0.01 14147
0.00 0.00 -1.36 2.69 9.66 -4.28 0.26 0.01 14154
0.00 0.00 -1.18 2.10 9.78 -4.28 0.30 -0.03 14161
0.00 -0.00 -1.45 1.81 10.34 -4.28 0.39 -0.10 14169
0.00 0.00 -0.88 0.84 11.08 -4.28 0.63 -0.19 14176
0.00 0.00 -1.33 0.89 11.29 -4.28 0.79 -0.33 14183
0.00 0.00 -1.97 0.62 12.21 -4.28 0.92 -0.43 14190
0.00 0.00 -1.87 -0.26 13.85 -4.28 1.13 -0.56 14197
0.00 0.00 -3.10 -0.03 14.81 -4.28 1.10 -0.68 14204
0.00 0.00 -1.84 -0.49 14.35 -4.28 1.11 -0.83 14212
0.00 0.00 -2.61 -0.89 16.38 -4.28 1.06 -0.94 14219
0.00 0.00 -1.82 -1.55 16.73 -4.28 1.07 -0.98 14226
0.00 0.00 -1.43 -1.58 17.59 -4.28 1.09 -0.99 14233
0.00 0.00 -1.04 -2.21 18.06 -4.28 1.17 -0.98 14240
-0.00 0.00 -0.71 -2.80 19.22 -4.28 1.31 -0.90 14247
0.00 0.00 -0.44 -3.27 20.04 -4.28 1.47 -0.78 14255
0.00 0.00 -0.47 -3.77 21.69 -4.28 1.60 -0.64 14262
0.00 0.00 -0.53 -4.16 23.72 -4.28 1.70 -0.46 14269
0.00 0.00 -0.80 -4.63 25.61 -4.28 1.78 -0.28 14276
0.00 0.00 -0.94 -5.70 26.98 -4.28 1.94 -0.17 14283
0.00 0.00 -0.97 -7.24 28.73 -4.28 2.18 -0.04 14290
0.00 0.00 -1.10 -9.03 30.29 -4.28 2.43 0.06 14298
0.00 0.00 -1.61 -12.34 31.58 -4.28 2.63 0.17 14305
0.00 0.00 -2.08 -16.26 30.96 -4.28 2.66 0.30 14312
0.00 0.00 -2.74 -18.78 29.60 -4.28 2.49 0.31 14319
0.00 0.00 -3.12 -23.18 26.76 -4.28 2.27 0.39 14326
0.00 -0.00 -3.84 -27.78 22.81 -4.28 2.04 0.53 14334
0.00 0.00 -4.74 -33.25 18.00 -4.28 1.91 0.74 14341
0.00 0.00 -5.38 -45.62 11.50 -4.28 1.92 0.91 14348
0.00 0.00 -7.89 -61.92 3.83 -3.96 2.18 0.98 14355
0.00 0.00 -13.54 -73.65 -1.99 -3.31 2.55 0.97 14362
0.00 0.00 -20.45 -74.31 -2.91 -1.70 2.37 0.99 14369
0.00 0.00 -24.58 -63.17 -1.37 0.47 1.06 0.90 14376
0.00 0.00 -19.84 -46.79 2.94 2.05 -0.87 0.59 14384
0.00 0.00 -4.00 -33.57 4.70 3.29 -2.60 0.20 14391
0.00 0.00 -6.78 0.58 17.84 4.28 -2.89 -0.58 14398
-0.00 0.03 1.80 11.75 12.16 4.19 -2.01 -0.57 14406
-0.02 0.19 -0.10 2.94 20.02 3.48 -1.56 -0.31 14412
-0.02 0.41 3.27 -0.10 13.35 3.22 -1.24 -0.00 14420
-0.04 0.65 1.98 -2.62 14.61 3.92 -1.08 0.25 14428
-0.05 0.76 2.11 -4.70 17.51 4.28 -0.21 0.74 14435
-0.07 0.87 -0.75 -4.40 19.55 4.28 0.57 1.18 14442
-0.06 0.95 -4.64 -4.62 23.63 4.04 0.70 1.07 14449
-0.06 1.02 -4.94 -4.03 17.01 3.41 0.71 0.64 14456
-0.05 1.06 -4.17 -3.35 14.95 3.29 0.63 0.23 14464
-0.05 1.03 -0.14 -1.56 13.99 3.01 0.47 -0.05 14471
-0.06 1.00 2.61 -0.95 13.09 2.70 0.61 0.00 14477
-0.07 0.93 2.76 -2.96 20.43 1.92 0.22 0.21 14485
-0.06 0.84 1.70 -1.91 12.62 0.28 -0.23 0.22 14492
-0.03 0.83 -0.88 -3.75 12.86 -0.09 -0.09 0.05 14499
-0.01 0.78 -0.14 -1.80 10.70 -0.07 -0.11 -0.05 14507
0.00 0.74 0.57 -1.22 10.11 -0.08 -0.04 0.03 14513
0.05 0.73 -0.04 -1.25 10.09 -0.08 -0.05 0.03 14520
0.05 0.71 0.05 -1.29 10.05 -0.10 -0.01 0.01 14527
0.07 0.75 0.29 -1.00 10.18 -0.09 0.01 0.02 14534
0.09 0.76 0.11 -0.83 9.95 -0.06 0.02 0.02 14541
0.09 0.77 0.20 -0.85 9.97 -0.04 0.04 0.01 14548
0.07 0.77 0.29 -0.76 9.97 -0.02 0.04 0.01 14556
0.09 0.78 0.22 -0.63 9.81 0.00 0.04 0.01 14563
0.05 0.76 0.20 -0.64 9.83 0.03 0.04 0.00 14570
0.05 0.76 0.29 -0.64 9.85 0.06 0.04 -0.00 14577
0.06 0.74 0.23 -0.67 9.93 0.09 0.02 -0.01 14584
0.06 0.71 0.29 -0.63 9.91 0.12 -0.00 -0.01 14592
0.05 0.64 0.30 -0.64 9.89 0.14 -0.02 -0.02 14599
0.04 0.62 0.29 -0.64 9.92 0.16 -0.04 -0.02 14606
0.03 0.58 0.28 -0.69 9.89 0.18 -0.05 -0.03 14613
0.04 0.53 0.31 -0.79 9.84 0.20 -0.06 -0.03 14620
0.06 0.43 0.28 -0.69 9.82 0.22 -0.07 -0.04 14627
0.07 0.38 0.35 -0.76 9.80 0.23 -0.08 -0.05 14635
0.07 0.33 0.34 -0.79 9.73 0.24 -0.09 -0.06 14642
0.05 0.31 0.21 -0.80 9.78 0.25 -0.10 -0.06 14649
0.07 0.22 0.29 -0.76 9.67 0.25 -0.10 -0.07 14656
0.08 0.20 0.29 -0.89 9.62 0.23 -0.10 -0.07 14663
0.09 0.18 0.24 -0.88 9.64 0.22 -0.09 -0.07 14670
0.09 0.14 0.32 -0.88 9.60 0.21 -0.08 -0.07 14678
0.08 0.09 0.34 -0.95 9.62 0.19 -0.08 -0.07 14685
0.07 0.09 0.33 -0.95 9.60 0.18 -0.08 -0.08 14692
0.10 0.09 0.29 -1.21 9.54 0.17 -0.08 -0.08 14699
0.10 0.08 0.45 -1.34 9.54 0.15 -0.09 -0.09 14706
0.15 0.08 0.01 -1.09 9.57 0.13 -0.09 -0.10 14713
0.11 0.05 0.14 -1.01 9.70 0.12 -0.08 -0.11 14721
0.16 0.02 0.43 -1.08 9.72 0.11 -0.07 -0.11 14728
0.14 0.05 0.39 -1.18 9.72 0.11 -0.07 -0.13 14735
0.17 0.04 0.14 -1.02 9.67 0.11 -0.07 -0.14 14742
0.18 0.05 -0.05 -1.02 9.56 0.11 -0.07 -0.13 14749
0.19 0.06 0.21 -0.95 9.90 0.12 -0.06 -0.13 14756
0.18 0.05 0.29 -1.03 9.93 0.15 -0.08 -0.14 14764
0.22 0.03 0.17 -1.08 10.14 0.20 -0.10 -0.15 14771
0.26 0.02 0.20 -1.13 10.00 0.24 -0.13 -0.15 14778
0.27 0.02 0.20 -1.21 10.07 0.27 -0.15 -0.16 14786
0.32 0.01 0.22 -1.27 10.02 0.31 -0.16 -0.17 14793
0.40 0.00 0.51 -1.24 10.28 0.35 -0.18 -0.19 14799
0.44 -0.02 0.50 -1.38 10.40 0.40 -0.22 -0.23 14807
0.47 -0.02 0.42 -1.53 11.02 0.46 -0.27 -0.26 14815
0.51 -0.02 0.73 -1.57 10.89 0.55 -0.33 -0.31 14822
0.63 -0.02 0.74 -1.66 10.81 0.64 -0.41 -0.38 14829
0.65 -0.03 1.27 -1.66 11.01 0.73 -0.44 -0.45 14836
0.74 -0.03 1.51 -1.88 11.33 0.82 -0.35 -0.56 14843
0.78 -0.04 -0.15 -1.77 13.09 1.07 -0.17 -0.60 14851
0.85 -0.05 -1.83 -1.55 13.05 1.45 -0.25 -0.46 14858
0.95 -0.04 -1.01 -1.56 12.78 1.65 -0.25 -0.36 14865
1.00 -0.05 -1.12 -1.67 13.42 1.89 -0.16 -0.27 14872
1.01 -0.05 -1.07 -1.77 13.69 2.20 -0.09 -0.19 14879
1.01 -0.05 -1.20 -1.91 14.32 2.44 0.01 -0.12 14886
1.05 -0.06 -0.83 -1.92 14.69 2.77 0.14 -0.05 14894
1.05 -0.05 -0.18 -2.02 15.35 3.10 0.26 -0.03 14901
1.06 -0.03 0.26 -2.23 16.42 3.53 0.25 -0.05 14908
1.06 -0.03 0.93 -2.67 16.69 3.99 0.21 -0.12 14915
1.05 -0.03 1.08 -1.96 16.87 4.25 0.19 -0.23 14922
1.07 -0.03 1.30 -2.53 16.68 4.28 0.17 -0.31 14929
0.98 -0.03 1.71 -2.48 18.57 4.28 0.17 -0.41 14937
0.90 -0.03 2.05 -2.22 19.15 4.28 -0.04 -0.52 14944
0.77 -0.01 2.48 -2.05 18.75 4.28 -0.42 -0.68 14951
0.62 -0.01 2.51 -4.83 21.02 4.28 -0.69 -0.86 14958
0.42 -0.01 1.77 -6.11 24.19 4.28 -0.88 -0.92 14965
0.27 -0.01 1.70 -7.31 27.66 4.28 -0.94 -0.88 14972
0.17 -0.00 -4.69 -7.19 29.29 4.28 -0.87 -0.99 14980
0.09 0.00 -6.41 -8.54 34.61 4.28 -1.68 -0.96 14987
0.08 0.01 -3.20 -10.29 32.31 4.28 -2.58 -0.64 14994
0.04 0.01 3.06 -7.53 31.08 4.28 -3.11 -0.66 15001
0.03 -0.00 5.96 -2.38 30.76 4.28 -3.37 -0.57 15007
0.03 -0.00 8.65 2.15 29.50 4.28 -3.08 -0.44 15014
0.00 0.00 10.65 8.76 26.42 4.28 -2.38 -0.38 15022
0.01 -0.00 10.21 19.16 25.05 4.28 -1.68 -0.37 15030
0.00 0.00 8.49 35.45 9.83 4.27 -0.88 -0.52 15036
0.00 0.00 10.62 23.94 11.46 2.74 -0.00 -0.37 15043
0.00 0.00 5.50 18.00 27.27 -0.51 0.24 -0.20 15050
0.00 0.00 0.47 14.49 21.27 -2.27 0.10 -0.14 15057
0.00 0.00 -1.11 11.83 14.50 -2.74 -0.41 -0.03 15065
0.00 0.00 0.54 10.08 11.42 -2.84 -1.11 -0.07 15072
0.00 0.00 2.34 8.46 9.25 -2.83 -1.38 -0.17 15079
0.00 0.00 3.68 7.58 7.97 -2.90 -1.22 -0.22 15086
0.00 0.00 4.23 7.18 7.39 -3.12 -0.87 -0.29 15093
0.00 0.00 3.78 6.99 7.42 -3.37 -0.44 -0.35 15100
0.00 0.00 2.87 6.58 7.76 -3.72 -0.08 -0.36 15108
0.00 0.00 1.46 6.14 8.01 -4.05 0.19 -0.33 15115
0.00 0.00 0.47 5.68 8.35 -4.22 0.30 -0.25 15122
0.00 0.00 -0.25 4.67 8.85 -4.28 0.36 -0.16 15129
0.00 0.00 -0.63 4.01 9.08 -4.28 0.36 -0.06 15136
0.00 0.00 -0.65 3.20 9.38 -4.28 0.38 0.01 15143
0.00 0.00 -0.43 2.32 9.67 -4.28 0.50 0.06 15151
0.00 0.00 -0.52 1.67 9.98 -4.28 0.62 0.10 15158
0.00 0.00 -0.94 1.14 10.38 -4.28 0.75 0.11 15165
0.00 0.00 -1.64 0.90 11.15 -4.28 0.82 0.10 15172
0.00 0.00 -1.47 0.14 12.15 -4.28 0.93 0.08 15179
0.00 0.00 -1.84 0.19 12.47 -4.28 0.98 0.03 15186
0.00 0.00 -2.04 -0.35 13.61 -4.28 1.06 -0.07 15194
0.00 0.00 -2.35 -0.35 14.10 -4.28 1.05 -0.17 15201
0.00 0.00 -2.07 -0.89 15.58 -4.28 1.07 -0.30 15208
0.00 0.00 -2.40 -0.70 16.60 -4.28 1.03 -0.44 15215
0.00 0.00 -2.05 -1.49 17.53 -4.28 1.00 -0.58 15222
0.00 0.00 -1.62 -1.83 18.13 -4.28 1.01 -0.70 15229
0.00 0.00 -1.17 -2.50 18.69 -4.28 1.07 -0.78 15237
-0.00 0.00 -0.80 -3.24 19.36 -4.28 1.18 -0.83 15244
0.00 0.00 -0.40 -4.02 20.42 -4.28 1.32 -0.83 15251
0.00 0.00 -0.16 -4.87 21.44 -4.28 1.51 -0.80 15258
0.00 0.00 0.33 -5.54 23.64 -4.28 1.71 -0.74 15265
0.00 0.00 0.97 -5.94 26.19 -4.28 1.95 -0.67 15272
0.00 0.00 1.31 -6.51 27.92 -4.28 2.28 -0.58 15280
0.00 0.00 0.81 -7.27 29.77 -4.28 2.60 -0.47 15287
0.00 0.00 -0.06 -8.42 30.70 -4.28 2.90 -0.36 15294
0.00 0.00 -1.48 -10.67 30.81 -4.28 2.97 -0.23 15301
0.00 0.00 -2.59 -13.52 29.97 -4.28 2.83 -0.11 15308
0.00 0.00 -3.38 -17.41 28.06 -4.28 2.47 0.01 15315
0.00 0.00 -3.38 -22.16 25.10 -4.28 2.07 0.13 15323
0.00 0.00 -2.80 -25.97 21.64 -4.28 1.80 0.16 15330
0.00 0.00 -3.02 -29.55 17.02 -4.28 1.88 0.11 15337
0.00 0.00 -4.46 -40.61 12.94 -4.13 2.32 0.06 15344
0.00 0.00 -8.79 -53.98 7.71 -3.72 2.69 -0.10 15351
0.00 0.00 -15.19 -67.61 1.82 -3.21 2.66 -0.20 15358
-0.00 0.00 -21.80 -69.81 -1.46 -1.85 2.03 -0.18 15367
0.00 0.00 -23.74 -59.97 -0.58 0.07 0.42 -0.15 15373
0.00 0.00 -18.60 -45.54 4.10 1.52 -1.30 -0.18 15380
0.00 0.00 -10.89 -34.51 9.34 2.41 -2.63 -0.20 15387
0.00 0.00 18.03 -26.09 27.45 3.01 -3.71 -0.56 15394
0.00 0.00 -3.30 6.13 10.71 4.10 -3.31 -0.82 15401
-0.01 0.07 3.35 7.10 8.42 3.43 -2.84 -0.66 15409
-0.02 0.23 1.15 3.86 15.78 3.25 -2.86 -0.35 15417
-0.04 0.47 3.89 -0.48 12.13 3.51 -2.30 0.08 15424
-0.05 0.66 0.91 -2.94 13.43 4.19 -1.69 0.61 15431
-0.07 0.87 0.19 -4.04 18.27 4.28 -0.53 1.11 15438
-0.06 0.98 -4.02 -4.09 20.51 4.27 0.50 1.33 15446
-0.05 1.06 -6.96 -5.02 21.09 3.90 0.41 0.89 15452
-0.05 1.08 -4.96 -3.82 15.65 3.59 0.49 0.38 15460
-0.06 1.07 -1.86 -2.60 14.93 3.49 0.47 0.00 15466
-0.05 1.07 0.93 -1.70 14.37 3.15 0.43 -0.08 15474
-0.07 1.04 3.01 -1.69 14.16 2.76 0.68 0.07 15481
-0.07 0.95 -0.52 -4.28 20.82 1.48 -0.23 0.20 15489
-0.04 0.94 0.90 -2.32 14.17 0.14 -0.28 0.15 15496
-0.03 0.85 -0.97 -3.32 11.98 -0.09 -0.10 0.03 15503
-0.03 0.86 0.61 -1.16 10.24 -0.06 -0.01 0.00 15509
0.00 0.80 0.10 -0.72 10.13 -0.04 0.00 0.05 15516
0.01 0.72 -0.07 -1.22 9.92 -0.05 0.03 0.04 15523
0.06 0.71 0.22 -0.62 10.10 -0.08 0.05 0.03 15531
0.07 0.76 0.18 -0.85 10.11 -0.07 0.06 0.03 15538
0.08 0.73 0.12 -0.74 10.00 -0.03 0.07 0.03 15545
0.07 0.73 0.34 -0.74 10.00 -0.02 0.08 0.03 15552
0.07 0.70 0.29 -0.67 9.88 -0.00 0.07 0.02 15559
0.08 0.69 0.23 -0.57 9.84 0.01 0.07 0.02 15566
0.09 0.67 0.23 -0.59 9.81 0.03 0.08 0.01 15574
0.09 0.62 0.22 -0.57 9.83 0.05 0.08 0.01 15581
0.08 0.63 0.25 -0.55 9.22 0.07 0.07 0.00 15588
0.07 0.61 0.31 -0.56 9.81 0.10 0.06 0.00 15595
0.06 0.56 0.33 -0.54 9.86 0.12 0.04 -0.01 15602
0.07 0.46 0.31 -0.61 9.90 0.14 0.03 -0.01 15609
0.06 0.54 0.33 -0.63 9.89 0.15 0.01 -0.02 15617
0.08 0.45 0.34 -0.67 9.86 0.18 -0.01 -0.03 15624
0.07 0.42 0.37 -0.68 9.82 0.20 -0.02 -0.04 15631
0.06 0.38 0.34 -0.67 9.79 0.21 -0.03 -0.04 15638
0.06 0.35 0.36 -0.76 9.71 0.21 -0.04 -0.05 15645
0.10 0.26 0.32 -0.76 9.68 0.21 -0.06 -0.06 15652
0.13 0.26 0.38 -0.73 9.64 0.21 -0.06 -0.06 15660
0.14 0.21 0.37 -0.81 9.64 0.19 -0.07 -0.06 15667
0.14 0.16 0.41 -0.84 9.63 0.19 -0.08 -0.07 15674
0.15 0.09 0.38 -0.81 9.58 0.17 -0.09 -0.07 15681
0.14 0.12 0.37 -0.91 9.66 0.15 -0.10 -0.07 15688
0.15 0.12 0.29 -0.92 9.63 0.14 -0.10 -0.08 15695
0.15 0.11 0.33 -0.90 9.61 0.13 -0.10 -0.08 15703
0.15 0.10 0.30 -0.91 9.64 0.12 -0.11 -0.08 15710
0.15 0.09 0.28 -0.67 9.59 0.12 -0.11 -0.09 15717
0.17 0.09 0.26 -1.07 9.82 0.13 -0.12 -0.10 15724
0.16 0.09 0.01 -0.93 9.93 0.12 -0.12 -0.10 15731
0.22 0.09 0.19 -0.88 9.82 0.13 -0.12 -0.11 15738
0.16 0.10 0.19 -0.93 9.77 0.13 -0.10 -0.11 15746
0.15 0.08 0.28 -1.08 9.79 0.14 -0.10 -0.11 15753
0.16 0.07 0.05 -1.12 9.85 0.16 -0.08 -0.11 15760
0.19 0.04 0.48 -1.00 9.84 0.17 -0.07 -0.11 15767
0.20 0.05 0.25 -0.96 10.02 0.20 -0.08 -0.12 15774
0.20 0.02 0.21 -1.04 9.96 0.24 -0.09 -0.12 15781
0.24 0.03 0.15 -1.10 9.96 0.27 -0.10 -0.13 15789
0.25 0.01 0.17 -1.12 10.01 0.31 -0.11 -0.13 15797
0.29 -0.00 0.32 -1.14 9.92 0.33 -0.12 -0.15 15803
0.32 -0.01 0.30 -1.25 10.18 0.35 -0.14 -0.17 15811
0.33 -0.00 0.44 -1.30 10.20 0.39 -0.15 -0.20 15817
0.36 -0.02 0.28 -1.31 10.29 0.43 -0.17 -0.23 15825
0.44 -0.02 0.60 -1.43 10.42 0.48 -0.19 -0.27 15833
0.44 -0.02 0.78 -1.46 10.73 0.54 -0.22 -0.33 15840
0.50 -0.04 1.01 -1.57 11.53 0.61 -0.22 -0.39 15847
0.54 -0.03 1.48 -1.67 11.35 0.71 -0.09 -0.50 15854
0.57 -0.03 -0.21 -1.61 13.17 0.91 0.10 -0.55 15861
0.63 -0.03 -1.14 -1.53 12.69 1.30 -0.06 -0.41 15868
0.65 -0.04 -0.75 -1.50 12.00 1.48 -0.05 -0.34 15876
0.68 -0.04 -1.08 -1.64 12.49 1.63 -0.03 -0.27 15883
0.71 -0.04 -1.06 -1.61 12.69 1.82 -0.05 -0.18 15890
0.72 -0.03 -1.20 -1.72 13.19 1.99 -0.03 -0.09 15897
0.80 -0.02 -0.37 -1.95 13.09 2.23 0.01 -0.03 15903
0.81 -0.03 -0.20 -2.09 13.62 2.53 0.09 -0.00 15910
0.85 -0.03 0.12 -2.23 13.97 2.78 0.12 0.01 15919
0.91 -0.03 0.73 -2.34 14.48 3.11 0.12 -0.02 15926
0.92 -0.03 0.83 -2.41 14.51 3.40 0.11 -0.09 15933
0.92 -0.03 1.24 -2.47 14.10 3.75 0.09 -0.17 15940
0.90 -0.02 1.38 -2.67 14.52 4.08 0.10 -0.28 15947
0.94 -0.03 0.95 -2.58 15.02 4.27 0.18 -0.37 15954
0.89 -0.03 1.64 -2.70 16.86 4.28 0.19 -0.48 15962
0.89 -0.03 2.30 -2.31 17.08 4.28 -0.06 -0.60 15969
0.75 -0.02 2.20 -2.90 17.76 4.28 -0.38 -0.75 15976
0.60 -0.02 2.06 -4.46 18.62 4.28 -0.60 -0.90 15983
0.43 -0.01 1.43 -6.14 21.37 4.28 -0.68 -0.95 15990
0.29 -0.02 1.69 -7.16 24.96 4.28 -0.61 -0.90 15997
0.17 -0.01 0.08 -8.32 26.62 4.28 -0.45 -0.96 16005
0.10 -0.01 -5.98 -7.70 28.83 4.28 -0.83 -1.03 16011
0.06 -0.01 -5.21 -10.64 31.48 4.28 -1.40 -0.70 16019
0.05 -0.00 -1.77 -8.63 29.46 4.28 -1.81 -0.51 16025
0.04 -0.00 1.33 -7.07 29.38 4.28 -2.42 -0.50 16032
0.04 -0.00 6.26 -2.58 29.98 4.28 -2.48 -0.35 16039
0.04 -0.00 9.33 1.84 27.76 4.28 -2.19 -0.27 16047
0.01 -0.00 9.93 9.06 25.35 4.28 -1.28 -0.30 16054
0.00 0.00 9.71 17.60 22.27 4.28 -0.43 -0.47 16061
0.00 0.00 6.90 32.79 10.76 4.26 0.17 -0.79 16068
0.00 -0.00 6.99 20.65 12.61 3.01 0.67 -0.64 16075
0.00 0.00 2.15 18.15 27.79 -0.24 0.44 -0.35 16082
0.00 0.00 -2.21 15.62 20.87 -2.31 -0.19 -0.21 16090
0.00 0.00 -2.61 12.43 15.67 -3.02 -0.96 -0.09 16097
0.00 0.00 -0.15 9.86 12.98 -3.22 -1.87 -0.16 16104
0.00 0.00 2.07 7.74 10.45 -3.17 -2.02 -0.30 16111
0.00 0.00 3.80 7.02 8.10 -3.14 -1.68 -0.41 16118
0.00 0.00 4.94 6.67 7.08 -3.24 -1.11 -0.56 16125
0.00 0.00 4.85 6.56 7.21 -3.40 -0.40 -0.70 16133
0.00 0.00 3.32 6.44 7.67 -3.72 0.24 -0.78 16140
0.00 0.00 1.18 6.17 8.32 -4.13 0.78 -0.81 16147
0.00 0.00 -1.00 6.09 8.87 -4.27 0.94 -0.75 16154
0.00 -0.00 -2.76 4.95 9.28 -4.28 0.80 -0.63 16161
0.00 0.00 -3.52 3.77 9.63 -4.28 0.43 -0.47 16168
0.00 0.00 -2.73 2.57 9.21 -4.28 0.19 -0.33 16176
0.00 0.00 -1.31 1.61 9.66 -4.28 0.10 -0.20 16183
0.00 0.00 -0.59 1.03 9.67 -4.28 0.17 -0.14 16190
-0.00 0.00 -0.42 0.61 10.30 -4.28 0.36 -0.11 16197
0.00 -0.00 -0.86 0.48 11.10 -4.28 0.55 -0.08 16204
0.00 0.00 -1.00 0.12 12.01 -4.28 0.73 -0.08 16211
0.00 0.00 -1.85 0.41 12.78 -4.28 0.77 -0.11 16219
0.00 0.00 -1.36 -0.38 13.98 -4.28 0.88 -0.16 16226
0.00 0.00 -1.64 -0.24 14.70 -4.28 0.86 -0.24 16233
0.00 0.00 -2.17 -0.95 16.25 -4.28 0.89 -0.35 16240
0.00 0.00 -1.35 -0.67 16.36 -4.28 0.84 -0.47 16247
0.00 0.00 -1.49 -1.74 17.43 -4.28 0.80 -0.64 16254
0.00 0.00 -1.07 -2.50 17.96 -4.28 0.79 -0.76 16262
0.00 0.00 -0.42 -2.78 18.59 -4.28 0.81 -0.86 16269
0.00 0.00 -0.15 -3.44 19.43 -4.28 0.96 -0.93 16276
0.00 0.00 -0.02 -3.88 20.56 -4.28 1.06 -0.94 16283
0.00 0.00 0.05 -4.23 21.46 -4.28 1.17 -0.92 16290
0.00 0.00 0.31 -4.75 22.98 -4.28 1.31 -0.86 16297
0.00 0.00 0.35 -5.23 25.06 -4.28 1.50 -0.80 16305
0.00 0.00 -0.30 -6.07 26.33 -4.28 1.76 -0.75 16312
-0.00 0.00 -1.00 -7.45 27.73 -4.28 1.94 -0.72 16319
0.00 0.00 -1.51 -8.89 28.54 -4.28 2.12 -0.71 16326
0.00 0.00 -1.84 -10.97 28.87 -4.28 2.32 -0.71 16333
0.00 0.00 -2.41 -12.88 28.64 -4.28 2.51 -0.72 16340
0.00 0.00 -3.35 -15.53 28.18 -4.28 2.73 -0.74 16348
0.00 0.00 -4.47 -18.63 26.92 -4.28 2.85 -0.70 16355
0.00 0.00 -5.90 -21.65 24.05 -4.28 2.84 -0.58 16362
0.00 0.00 -7.67 -25.55 19.05 -4.28 2.76 -0.27 16369
0.00 0.00 -8.84 -37.86 14.38 -4.27 2.82 0.21 16376
0.00 0.00 -10.48 -52.97 8.45 -4.01 2.72 0.57 16384
0.00 0.00 -13.12 -67.43 1.76 -3.41 2.51 0.81 16391
0.00 0.00 -17.11 -70.46 -0.68 -1.96 2.13 0.96 16398
0.00 0.00 -21.38 -61.48 -0.12 0.07 0.87 0.92 16405
0.00 0.00 -18.01 -46.18 3.38 1.64 -0.75 0.69 16412
0.00 0.00 -11.75 -35.71 8.24 2.70 -2.35 0.49 16419
0.00 0.00 -4.69 -26.11 13.13 2.98 -2.95 0.29 16427
0.00 0.00 18.24 -11.91 43.43 3.50 -3.05 -0.11 16434
0.00 0.00 -1.31 11.26 11.30 3.84 -1.93 -0.34 16441
-0.01 0.07 3.36 7.12 10.04 3.04 -1.46 -0.11 16448
-0.02 0.25 2.94 4.87 12.36 2.76 -1.61 0.13 16455
-0.03 0.49 3.23 -0.35 10.53 3.25 -1.11 0.50 16463
-0.04 0.67 1.87 -3.63 12.92 3.96 -0.71 0.88 16471
-0.05 0.78 0.11 -3.89 18.46 4.28 0.18 1.26 16478
-0.05 0.89 -3.15 -3.17 21.62 4.19 0.68 1.36 16485
-0.06 0.99 -5.35 -3.97 19.50 3.38 0.54 1.10 16492
-0.05 0.99 -6.47 -4.09 15.37 3.13 0.43 0.54 16499
-0.06 0.98 -4.28 -2.55 14.52 3.13 0.50 0.04 16506
-0.06 1.01 -0.80 -1.49 13.98 2.82 0.45 -0.23 16514
-0.07 1.04 2.04 -1.32 12.33 2.53 0.25 -0.30 16521
-0.06 1.01 3.16 -1.56 11.92 2.38 0.31 -0.13 16528
-0.05 0.95 2.55 -3.08 18.48 1.91 0.28 0.19 16535
-0.05 0.89 0.89 -1.46 12.72 0.44 -0.33 0.14 16542
-0.04 0.85 -0.67 -3.23 13.08 -0.07 -0.14 0.03 16549
-0.04 0.79 -0.37 -1.96 10.75 -0.08 -0.09 -0.06 16557
-0.03 0.79 0.71 -0.98 9.98 -0.08 -0.01 0.03 16563
0.02 0.77 0.06 -1.14 10.15 -0.08 -0.01 0.02 16570
0.03 0.79 0.04 -1.29 10.05 -0.09 0.01 -0.00 16577
0.01 0.78 0.34 -1.13 10.00 -0.08 0.02 0.00 16584
0.03 0.73 0.22 -0.89 10.12 -0.06 0.01 -0.00 16591
0.02 0.74 0.20 -0.88 9.88 -0.03 0.01 -0.00 16599
0.04 0.75 0.19 -0.79 9.88 -0.02 0.02 -0.00 16606
0.04 0.74 0.17 -0.74 9.89 0.00 0.02 -0.00 16613
0.06 0.75 0.17 -0.71 9.88 0.02 0.02 -0.01 16620
0.05 0.70 0.24 -0.71 9.91 0.06 0.01 -0.01 16627
0.04 0.69 0.27 -0.73 9.91 0.08 -0.00 -0.02 16634
0.05 0.63 0.23 -0.72 9.87 0.10 -0.03 -0.01 16642
0.05 0.61 0.23 -0.72 9.88 0.11 -0.05 -0.02 16649
0.09 0.59 0.21 -0.80 9.87 0.14 -0.06 -0.02 16656
0.07 0.53 0.24 -0.76 9.85 0.16 -0.07 -0.03 16663
0.07 0.52 0.25 -0.81 9.78 0.18 -0.08 -0.03 16670
0.07 0.45 0.26 -0.81 9.82 0.20 -0.09 -0.04 16677
0.06 0.43 0.27 -0.77 9.79 0.21 -0.10 -0.05 16685
0.07 0.37 0.26 -0.78 9.69 0.23 -0.11 -0.05 16692
0.08 0.32 0.26 -0.80 9.65 0.23 -0.11 -0.06 16699
0.09 0.27 0.20 -0.86 9.66 0.24 -0.11 -0.06 16706
0.11 0.21 0.27 -0.92 9.61 0.23 -0.11 -0.07 16713
0.12 0.18 0.26 -1.00 9.64 0.23 -0.10 -0.07 16720
0.12 0.17 0.28 -0.91 9.64 0.21 -0.10 -0.07 16728
0.12 0.19 0.19 -1.07 9.61 0.20 -0.10 -0.08 16735
0.14 0.10 0.24 -1.08 9.56 0.18 -0.10 -0.08 16742
0.15 0.09 0.18 -1.01 9.59 0.17 -0.10 -0.09 16749
0.14 0.10 -0.03 -1.08 9.66 0.15 -0.09 -0.09 16756
0.13 0.05 -0.33 -1.29 9.78 0.15 -0.09 -0.09 16763
0.13 0.05 0.29 -1.24 9.91 0.16 -0.09 -0.11 16771
0.13 0.06 -0.02 -1.26 9.64 0.16 -0.09 -0.11 16778
0.20 0.03 0.21 -1.20 9.74 0.16 -0.10 -0.11 16785
0.16 0.04 -0.30 -1.20 9.47 0.17 -0.09 -0.12 16792
0.20 0.03 0.16 -1.07 9.86 0.18 -0.09 -0.12 16799
0.23 0.02 0.10 -1.19 9.81 0.20 -0.09 -0.13 16806
0.26 0.01 0.16 -1.20 9.86 0.21 -0.09 -0.14 16814
0.28 0.01 0.12 -1.28 9.87 0.24 -0.09 -0.14 16821
0.34 0.00 0.02 -1.30 9.96 0.26 -0.10 -0.16 16828
0.39 -0.01 0.16 -1.33 10.07 0.28 -0.12 -0.17 16836
0.44 -0.02 0.37 -1.42 10.22 0.31 -0.15 -0.18 16843
0.42 -0.02 0.29 -1.41 10.24 0.35 -0.18 -0.21 16850
0.47 -0.02 0.47 -1.50 10.60 0.40 -0.23 -0.26 16858
0.52 -0.04 0.65 -1.64 10.78 0.48 -0.30 -0.29 16865
0.60 -0.03 0.64 -1.58 11.02 0.58 -0.42 -0.35 16872
0.65 -0.04 0.93 -1.70 10.95 0.68 -0.46 -0.41 16879
0.73 -0.05 1.43 -1.83 11.23 0.79 -0.38 -0.49 16886
0.75 -0.04 0.78 -2.04 12.61 0.94 -0.19 -0.59 16893
0.82 -0.04 -2.11 -1.54 12.84 1.26 -0.20 -0.48 16901
0.88 -0.04 -1.15 -1.64 12.34 1.48 -0.25 -0.33 16908
0.90 -0.05 -1.65 -1.59 13.11 1.67 -0.14 -0.26 16915
0.96 -0.06 -1.11 -1.80 13.49 1.94 -0.10 -0.14 16922
0.98 -0.05 -0.85 -1.97 13.65 2.16 -0.03 -0.09 16929
1.01 -0.05 -0.60 -2.18 13.99 2.44 0.07 -0.04 16935
1.01 -0.03 -0.09 -1.98 14.54 2.75 0.16 -0.03 16944
1.07 -0.05 0.26 -2.37 14.52 3.06 0.15 -0.04 16951
1.05 -0.04 0.95 -2.57 14.60 3.40 0.10 -0.11 16957
1.09 -0.05 0.99 -2.58 15.08 3.71 0.13 -0.21 16965
1.06 -0.03 1.26 -2.75 16.20 4.11 0.17 -0.29 16972
1.04 -0.03 2.19 -2.49 16.71 4.28 0.08 -0.41 16979
0.97 -0.02 2.31 -2.99 17.04 4.28 -0.09 -0.58 16987
0.85 -0.03 3.02 -3.02 17.03 4.28 -0.29 -0.75 16994
0.82 -0.03 2.68 -3.10 17.87 4.28 -0.50 -0.94 17001
0.66 -0.03 2.67 -4.50 20.84 4.28 -0.71 -1.09 17008
0.44 -0.01 1.63 -6.08 23.43 4.28 -0.94 -1.19 17015
0.26 -0.01 -0.32 -5.81 26.38 4.28 -0.90 -1.10 17022
0.15 0.00 -2.23 -6.48 27.63 4.28 -0.82 -1.04 17030
0.11 -0.00 -4.31 -8.82 30.88 4.28 -1.25 -1.04 17037
0.07 -0.01 -2.77 -11.67 31.77 4.28 -1.93 -0.86 17044
0.04 -0.00 1.27 -8.90 31.30 4.28 -2.43 -0.87 17050
0.06 -0.01 3.37 -5.41 30.96 4.28 -2.71 -0.85 17057
0.04 0.00 6.40 0.34 28.60 4.28 -2.71 -0.79 17064
0.03 -0.00 8.52 7.05 26.48 4.28 -2.39 -0.73 17072
0.01 -0.00 9.59 15.62 22.51 4.28 -2.00 -0.73 17079
0.00 0.00 8.57 31.58 8.14 4.04 -1.43 -0.83 17086
0.00 0.00 12.15 20.88 10.23 2.62 -0.52 -0.74 17093
0.00 0.00 7.47 15.84 25.35 -0.11 0.17 -0.69 17100
0.00 0.00 2.67 13.31 19.27 -1.59 0.53 -0.78 17107
0.00 0.00 0.97 12.09 13.47 -2.19 0.40 -0.76 17115
0.00 0.00 0.93 10.10 10.18 -2.33 -0.12 -0.82 17122
0.00 0.00 1.91 8.29 8.89 -2.31 -0.36 -0.86 17129
0.00 0.00 2.69 7.43 7.96 -2.33 -0.33 -0.86 17136
0.00 0.00 3.12 7.18 6.99 -2.43 -0.15 -0.85 17143
0.00 0.00 3.11 7.23 6.65 -2.64 0.12 -0.78 17150
0.00 0.00 2.03 6.88 6.97 -2.91 0.43 -0.71 17158
0.00 0.00 0.96 6.78 7.37 -3.18 0.64 -0.58 17165
0.00 0.00 -0.17 6.48 7.86 -3.49 0.77 -0.42 17172
0.00 0.00 -1.19 6.10 8.24 -3.77 0.76 -0.23 17179
0.00 0.00 -1.60 5.00 8.91 -4.00 0.69 -0.05 17186
0.00 0.00 -1.27 4.74 9.42 -4.19 0.70 0.07 17193
0.00 0.00 -1.07 4.11 9.51 -4.26 0.78 0.18 17201
0.00 0.00 -1.26 3.32 9.82 -4.28 0.85 0.24 17208
0.00 0.00 -1.44 2.31 10.23 -4.28 0.93 0.28 17215
0.00 0.00 -1.94 1.85 10.68 -4.28 0.95 0.29 17222
0.00 0.00 -1.88 0.97 11.50 -4.28 1.01 0.29 17229
0.00 0.00 -1.75 0.70 11.76 -4.28 1.07 0.28 17236
0.00 0.00 -2.29 0.82 12.63 -4.28 1.10 0.24 17244
0.00 0.00 -2.09 -0.04 13.35 -4.28 1.16 0.18 17251
0.00 0.00 -2.03 -0.91 15.45 -4.28 1.25 0.14 17258
0.00 0.00 -2.66 -0.46 15.09 -4.28 1.12 0.04 17265
0.00 0.00 -2.35 -1.10 16.59 -4.28 1.10 -0.03 17272
0.00 0.00 -2.36 -1.59 17.16 -4.28 1.01 -0.05 17280
0.00 0.00 -1.54 -1.88 17.63 -4.28 0.93 -0.06 17287
0.00 0.00 -1.17 -2.41 18.09 -4.28 0.95 -0.02 17294
0.00 0.00 -0.62 -3.08 19.11 -4.28 1.00 0.04 17301
0.00 0.00 -0.36 -3.32 19.75 -4.28 1.10 0.12 17308
0.00 0.00 -0.20 -3.75 21.02 -4.28 1.17 0.25 17315
0.00 0.00 -0.11 -4.08 22.13 -4.28 1.22 0.34 17323
0.00 0.00 -0.27 -4.75 23.44 -4.28 1.24 0.48 17330
0.00 0.00 -0.34 -5.67 25.08 -4.28 1.29 0.59 17337
0.00 0.00 -0.37 -7.33 25.53 -4.28 1.38 0.68 17344
0.00 0.00 -0.44 -9.45 26.72 -4.25 1.48 0.71 17351
0.00 0.00 -0.63 -11.75 28.01 -4.20 1.58 0.69 17358
0.00 0.00 -0.31 -14.49 28.84 -4.23 1.64 0.61 17366
0.00 0.00 0.27 -15.95 27.85 -4.28 1.69 0.45 17373
0.00 0.00 0.74 -18.66 26.00 -4.28 1.90 0.21 17380
0.00 0.00 0.27 -22.68 22.88 -4.28 2.15 0.00 17387
0.00 0.00 -1.58 -26.95 19.02 -4.28 2.51 -0.12 17394
