Voltage_01 Voltage_02 Acc_x Acc_y Acc_z Gyro_x Gyro_y Gyro_z Time
5000
0.08 0.57 0.23 -1.30 9.21 0.17 0.03 -0.06 24
0.08 0.53 0.22 -1.34 9.79 0.19 0.03 -0.06 31
0.09 0.48 0.25 -1.36 9.77 0.21 0.03 -0.06 38
0.08 0.45 0.15 -1.43 9.81 0.24 0.02 -0.06 46
0.12 0.36 0.25 -1.51 9.85 0.27 0.01 -0.06 53
0.15 0.32 0.20 -1.52 9.93 0.29 0.01 -0.07 60
0.23 0.29 0.17 -1.58 9.95 0.33 0.02 -0.07 67
0.24 0.27 0.21 -1.66 9.92 0.36 0.03 -0.07 74
0.27 0.24 0.17 -1.86 10.08 0.41 0.04 -0.07 81
0.27 0.18 0.21 -1.89 10.06 0.47 0.05 -0.07 89
0.28 0.17 0.30 -1.25 10.62 0.60 0.06 -0.07 96
0.32 0.15 0.29 -1.65 11.43 0.82 0.11 -0.08 104
0.31 0.15 0.43 -1.67 11.21 1.06 0.18 -0.11 111
0.29 0.16 0.41 -2.14 10.95 1.24 0.15 -0.11 118
0.27 0.12 0.62 -2.19 11.34 1.39 0.12 -0.12 125
0.31 0.14 0.29 -2.30 11.34 1.46 0.09 -0.13 133
0.30 0.19 0.41 -2.47 11.40 1.58 0.06 -0.15 139
0.37 0.18 0.38 -2.26 11.43 1.67 0.06 -0.16 147
0.36 0.20 0.33 -2.46 10.91 1.78 0.07 -0.17 154
0.39 0.21 0.27 -2.62 11.54 1.88 0.06 -0.17 161
0.35 0.23 0.30 -2.66 11.45 1.98 0.03 -0.18 168
0.34 0.26 0.64 -2.40 11.16 2.10 0.03 -0.19 176
0.36 0.26 0.65 -2.57 11.55 2.21 0.04 -0.18 183
0.38 0.27 -0.28 -3.11 11.97 2.34 0.05 -0.17 190
0.36 0.28 0.64 -3.04 11.62 2.49 0.03 -0.20 196
0.34 0.23 0.50 -3.33 12.01 2.63 0.00 -0.22 203
0.30 0.24 0.18 -3.62 12.55 2.83 -0.10 -0.24 211
0.29 0.30 0.65 -3.68 12.25 3.04 -0.15 -0.27 219
0.32 0.25 0.21 -4.01 12.74 3.21 -0.19 -0.30 226
0.23 0.23 0.48 -4.21 12.19 3.41 -0.28 -0.33 233
0.21 0.22 0.56 -4.71 13.96 3.59 -0.35 -0.35 240
0.22 0.22 1.33 -5.10 13.94 3.82 -0.39 -0.38 247
0.17 0.19 2.05 -5.75 14.19 4.05 -0.47 -0.48 254
0.16 0.11 2.70 -6.00 14.88 4.22 -0.36 -0.57 262
0.15 0.10 2.03 -6.56 15.74 4.28 -0.26 -0.70 269
0.09 0.09 0.99 -7.79 17.37 4.28 -0.36 -0.77 276
0.08 0.09 0.40 -8.09 19.61 4.28 -0.53 -0.80 282
0.07 0.08 0.29 -7.60 20.46 4.28 -0.70 -0.79 289
0.03 0.08 2.26 -8.88 20.24 4.28 -0.69 -0.75 297
0.03 0.10 1.89 -8.12 19.48 4.28 -0.48 -0.81 305
0.04 0.10 1.14 -7.87 19.95 4.28 -0.47 -0.89 312
0.03 0.10 0.79 -8.02 21.84 4.28 -0.48 -0.90 318
0.04 0.10 1.50 -5.81 21.93 4.28 -0.42 -0.90 326
-0.01 0.12 2.80 -3.42 20.62 4.28 -0.34 -0.89 332
-0.01 0.14 3.67 -0.92 18.99 4.28 -0.11 -0.96 339
-0.01 0.14 3.75 2.49 16.61 4.28 0.05 -1.12 347
-0.01 0.13 3.24 7.62 12.67 4.26 0.18 -1.33 354
-0.01 0.10 3.06 15.06 8.52 3.77 0.59 -1.71 361
-0.01 0.11 4.08 9.05 23.19 2.40 1.13 -1.85 368
-0.01 0.12 0.45 9.36 23.49 0.36 1.25 -1.90 375
-0.01 0.12 -2.73 9.06 17.00 -0.67 1.02 -1.77 382
-0.01 0.14 -3.30 7.91 11.71 -1.35 0.43 -1.59 390
-0.01 0.13 -3.02 6.25 9.26 -1.62 -0.44 -1.41 397
-0.01 0.13 -1.75 4.76 8.52 -1.66 -1.03 -1.17 404
-0.01 0.11 -0.03 4.60 7.69 -1.67 -1.20 -0.95 411
-0.01 0.12 1.02 5.14 7.15 -1.72 -1.12 -0.66 418
-0.01 0.13 1.35 5.78 7.41 -1.87 -0.92 -0.39 425
-0.01 0.15 0.99 6.38 8.01 -2.11 -0.68 -0.14 433
-0.01 0.14 0.40 6.72 8.55 -2.37 -0.51 0.10 440
-0.01 0.12 -0.03 6.82 8.84 -2.69 -0.44 0.29 447
-0.01 0.12 -0.11 6.79 9.16 -3.03 -0.39 0.46 454
-0.01 0.12 -0.33 6.25 9.22 -3.33 -0.33 0.60 461
-0.01 0.13 -0.83 5.55 9.24 -3.63 -0.23 0.70 468
-0.01 0.14 -1.47 4.50 9.06 -3.83 -0.13 0.79 476
-0.01 0.13 -2.06 3.66 9.07 -4.03 -0.10 0.84 483
-0.01 0.11 -2.35 2.45 9.24 -4.16 -0.08 0.87 490
-0.01 0.11 -2.39 1.25 9.61 -4.22 -0.08 0.86 497
-0.01 0.12 -2.17 0.39 10.03 -4.26 -0.11 0.83 504
-0.01 0.13 -1.76 -0.30 10.76 -4.27 -0.15 0.79 512
-0.00 0.13 -1.31 -0.92 11.74 -4.28 -0.18 0.76 520
-0.01 0.13 -0.92 -1.53 12.27 -4.28 -0.21 0.72 526
-0.01 0.12 -0.08 -2.40 12.89 -4.28 -0.23 0.67 533
-0.01 0.12 -0.06 -3.28 13.37 -4.28 -0.30 0.65 540
-0.01 0.12 0.71 -4.29 13.77 -4.28 -0.41 0.63 547
-0.01 0.14 1.67 -5.08 14.26 -4.28 -0.49 0.63 556
-0.01 0.13 2.97 -5.39 14.85 -4.28 -0.53 0.62 563
-0.00 0.13 4.40 -5.69 15.45 -4.28 -0.49 0.62 570
-0.01 0.11 5.34 -5.92 16.29 -4.28 -0.39 0.62 577
-0.01 0.12 6.00 -6.20 16.63 -4.28 -0.22 0.64 583
-0.01 0.12 6.29 -6.84 16.96 -4.28 -0.06 0.65 590
-0.01 0.14 6.44 -7.50 17.11 -4.28 0.13 0.64 598
-0.01 0.13 6.43 -8.12 17.32 -4.26 0.30 0.60 606
-0.01 0.12 6.27 -8.28 17.51 -4.20 0.45 0.55 612
-0.01 0.11 6.07 -8.28 17.88 -4.11 0.63 0.47 619
-0.01 0.09 5.80 -8.27 18.43 -4.02 0.81 0.38 626
-0.01 0.11 5.16 -8.27 18.57 -3.95 1.03 0.30 634
-0.00 0.13 4.42 -8.64 18.48 -3.85 1.20 0.22 642
-0.00 0.14 3.69 -9.32 18.29 -3.74 1.31 0.10 649
-0.01 0.12 2.92 -9.94 17.94 -3.54 1.44 0.04 655
-0.01 0.11 2.32 -10.53 17.56 -3.32 1.54 -0.06 663
-0.01 0.14 1.52 -10.92 17.19 -3.04 1.65 -0.15 670
-0.01 0.12 0.65 -11.45 16.96 -2.76 1.77 -0.24 677
-0.01 0.12 0.03 -11.57 16.79 -2.53 1.88 -0.33 685
-0.01 0.12 -0.85 -11.72 16.99 -2.34 1.98 -0.34 692
-0.01 0.11 -1.44 -11.78 17.11 -2.30 2.08 -0.36 699
-0.01 0.11 -2.04 -11.80 16.27 -2.41 2.13 -0.35 706
-0.01 0.11 -3.51 -11.64 14.83 -2.57 2.22 -0.30 713
-0.01 0.14 -4.90 -12.93 14.28 -2.72 2.31 -0.25 720
-0.01 0.12 -6.91 -14.36 13.61 -2.88 2.14 -0.23 728
-0.01 0.11 -8.20 -16.05 11.67 -2.96 1.62 -0.28 735
-0.01 0.12 -7.89 -18.06 8.96 -2.94 1.02 -0.36 741
-0.01 0.11 -6.62 -21.06 6.86 -2.75 0.43 -0.45 748
-0.01 0.12 -4.91 -24.79 4.47 -2.46 0.16 -0.51 755
-0.01 0.13 -5.22 -27.50 2.75 -1.99 0.04 -0.53 762
-0.01 0.11 -5.65 -28.39 1.47 -1.36 -0.00 -0.53 771
-0.01 0.13 -5.93 -26.50 1.51 -0.71 -0.12 -0.50 777
-0.01 0.14 -5.99 -23.65 3.09 0.02 -0.42 -0.43 784
-0.01 0.14 -5.77 -19.52 5.26 0.46 -0.77 -0.32 791
-0.01 0.15 -5.02 -16.27 6.91 0.74 -1.08 -0.20 798
-0.02 0.16 -4.01 -13.94 8.42 0.81 -1.29 -0.06 805
-0.01 0.16 -8.51 -27.01 27.03 2.52 -1.71 -0.16 814
-0.02 0.18 -2.11 -11.32 3.01 2.95 -1.11 -0.28 820
-0.02 0.24 -0.22 2.04 5.84 3.34 -1.18 -0.37 827
-0.03 0.38 -1.22 2.44 15.68 3.42 -1.07 -0.34 835
-0.03 0.53 1.97 0.84 13.95 2.89 -0.73 -0.19 842
-0.03 0.64 0.62 0.74 10.78 2.61 -0.69 -0.06 849
-0.04 0.65 0.07 -1.69 11.25 2.83 -0.78 -0.02 857
-0.03 0.72 1.85 -2.83 14.72 3.30 -0.27 0.16 864
-0.05 0.83 1.45 -3.03 16.39 3.59 0.26 0.43 871
-0.06 1.01 -1.35 -4.17 19.98 3.31 0.32 0.50 878
-0.06 1.09 -2.32 -3.82 17.72 2.90 0.27 0.37 885
-0.05 1.22 -2.97 -3.48 16.47 2.63 0.27 0.14 892
-0.04 1.26 -1.58 -2.81 15.48 2.33 0.23 -0.10 900
-0.05 1.24 0.50 -2.25 13.61 2.02 0.33 -0.17 907
-0.05 1.29 2.11 -1.60 11.69 1.86 0.44 -0.04 914
-0.06 1.33 1.48 -3.32 17.43 1.67 0.22 0.16 921
-0.05 1.32 0.48 -2.01 12.31 0.45 -0.41 0.14 928
-0.05 1.31 -0.65 -2.18 11.36 -0.02 -0.22 0.12 935
-0.07 1.35 -0.29 -1.46 10.11 -0.13 -0.02 0.07 943
-0.07 1.32 0.34 -1.51 9.90 -0.17 0.06 0.05 949
-0.06 1.32 0.38 -1.34 9.75 -0.19 0.08 0.07 956
-0.06 1.31 0.17 -1.25 9.85 -0.19 0.08 0.06 963
-0.06 1.34 -0.00 -1.25 9.85 -0.18 0.08 0.04 970
-0.06 1.37 0.16 -1.23 9.90 -0.17 0.08 0.03 977
-0.07 1.33 0.15 -1.12 9.89 -0.15 0.09 0.03 985
-0.07 1.41 0.17 -1.12 9.82 -0.13 0.09 0.02 992
-0.08 1.39 0.20 -1.12 9.81 -0.12 0.09 0.01 999
-0.07 1.43 0.22 -1.03 9.78 -0.12 0.09 0.00 1006
-0.07 1.41 0.18 -0.98 9.74 -0.11 0.08 0.00 1013
-0.06 1.42 0.14 -0.95 9.81 -0.09 0.08 -0.00 1020
-0.05 1.42 0.21 -0.95 9.83 -0.07 0.08 -0.00 1028
-0.05 1.44 0.21 -0.94 9.82 -0.05 0.08 -0.00 1035
-0.06 1.43 0.21 -0.93 9.81 -0.03 0.07 -0.01 1042
-0.04 1.39 0.21 -0.95 9.81 -0.01 0.06 -0.01 1049
-0.04 1.39 0.17 -0.93 10.41 0.00 0.06 -0.01 1056
-0.04 1.41 0.18 -0.92 9.79 0.02 0.05 -0.01 1063
-0.04 1.34 0.21 -0.94 9.78 0.03 0.06 -0.01 1071
-0.05 1.29 0.19 -0.94 9.76 0.05 0.06 -0.01 1078
-0.05 1.28 0.25 -0.95 9.70 0.05 0.06 -0.01 1085
-0.03 1.25 0.24 -0.97 9.71 0.06 0.06 -0.02 1092
-0.02 1.20 0.25 -0.99 9.73 0.07 0.06 -0.02 1099
-0.02 1.19 0.24 -0.95 9.67 0.06 0.07 -0.03 1106
-0.02 1.14 0.23 -0.98 9.68 0.05 0.08 -0.03 1114
-0.02 1.12 0.23 -0.97 9.67 0.04 0.09 -0.04 1121
-0.02 1.12 0.28 -0.98 9.72 0.04 0.10 -0.04 1128
-0.02 1.13 0.31 -0.95 9.71 0.04 0.11 -0.04 1135
-0.01 1.09 0.31 -1.01 9.69 0.03 0.10 -0.04 1142
-0.02 1.04 0.30 -1.03 9.72 0.02 0.10 -0.04 1149
-0.02 1.02 0.31 -1.01 9.68 0.02 0.10 -0.04 1157
-0.02 1.01 0.34 -0.98 9.67 0.01 0.10 -0.04 1164
-0.03 0.99 0.31 -0.99 9.70 0.01 0.09 -0.03 1171
-0.02 0.98 0.32 -1.01 9.67 0.01 0.09 -0.03 1178
0.00 0.99 0.33 -0.97 9.69 0.00 0.08 -0.03 1185
-0.00 0.98 0.33 -1.02 9.72 0.01 0.08 -0.03 1192
0.01 1.00 0.34 -1.02 9.74 0.01 0.07 -0.03 1200
-0.02 0.95 0.28 -1.02 9.71 0.01 0.06 -0.03 1207
-0.01 0.93 0.32 -1.03 9.67 0.01 0.07 -0.03 1214
-0.01 0.95 0.32 -1.00 9.75 0.02 0.07 -0.03 1221
-0.01 0.93 0.32 -1.01 9.74 0.02 0.08 -0.03 1228
-0.02 0.93 0.27 -1.03 9.72 0.03 0.09 -0.03 1235
-0.01 0.87 0.35 -1.01 9.71 0.05 0.10 -0.03 1243
-0.04 0.79 0.33 -1.01 9.75 0.06 0.10 -0.04 1250
-0.01 0.80 0.38 -1.01 9.79 0.07 0.09 -0.04 1257
0.01 0.72 0.42 -0.98 9.80 0.09 0.08 -0.04 1264
0.02 0.72 0.39 -1.02 9.78 0.10 0.04 -0.04 1271
0.02 0.65 0.38 -1.00 9.83 0.12 0.05 -0.04 1278
0.03 0.64 0.45 -1.03 9.81 0.14 0.00 -0.04 1286
-0.01 0.58 0.44 -1.02 9.81 0.17 -0.03 -0.05 1293
0.02 0.59 0.44 -1.10 9.87 0.20 -0.06 -0.06 1300
0.06 0.48 0.39 -1.06 9.91 0.23 -0.07 -0.07 1307
0.05 0.43 0.45 -1.16 9.87 0.25 -0.09 -0.07 1314
0.06 0.35 0.50 -1.23 9.90 0.29 -0.09 -0.09 1321
0.08 0.33 0.47 -1.28 9.92 0.33 -0.10 -0.10 1329
0.06 0.29 0.48 -1.36 10.06 0.37 -0.10 -0.12 1336
0.11 0.32 0.50 -1.36 10.04 0.41 -0.10 -0.14 1344
0.14 0.25 0.61 -1.46 9.94 0.47 -0.10 -0.18 1350
0.14 0.23 0.68 -1.54 10.07 0.53 -0.08 -0.22 1358
0.18 0.15 1.06 -1.64 10.23 0.60 -0.06 -0.29 1366
0.23 0.14 1.11 -1.85 10.39 0.69 -0.05 -0.36 1373
0.35 0.15 0.41 -1.72 11.10 0.82 -0.02 -0.42 1380
0.37 0.14 -0.76 -1.66 12.30 1.14 0.00 -0.38 1387
0.42 0.17 0.47 -2.13 11.44 1.44 -0.04 -0.33 1394
0.47 0.18 0.13 -1.95 11.89 1.57 -0.04 -0.30 1401
0.47 0.18 -0.02 -1.81 12.07 1.79 -0.06 -0.27 1409
0.54 0.16 -0.15 -2.06 12.63 2.02 -0.06 -0.26 1416
0.55 0.20 0.52 -2.81 12.48 2.22 -0.06 -0.25 1423
0.61 0.18 0.76 -2.34 12.78 2.48 -0.05 -0.26 1430
0.69 0.14 -0.29 1.26 12.40 2.69 0.02 -0.28 1437
0.68 0.13 -0.01 -2.84 13.38 2.96 0.06 -0.27 1444
0.70 0.17 -0.03 -2.73 14.39 3.21 0.11 -0.24 1452
0.65 0.20 0.31 -3.23 13.66 3.45 0.08 -0.22 1459
0.61 0.21 1.11 -3.20 14.94 3.80 0.05 -0.22 1466
0.57 0.22 1.45 -3.40 14.28 4.10 -0.01 -0.29 1473
0.56 0.22 1.08 -4.10 14.72 4.27 -0.06 -0.36 1480
0.40 0.22 1.85 -3.16 15.35 4.28 -0.22 -0.42 1487
0.30 0.17 1.18 -4.41 16.04 4.28 -0.40 -0.48 1495
0.29 0.11 1.10 -5.79 19.20 4.28 -0.55 -0.52 1502
0.21 0.11 3.18 -6.82 19.35 4.28 -0.49 -0.57 1509
0.11 0.12 2.82 -6.94 18.29 4.28 -0.35 -0.75 1516
0.12 0.10 -0.52 -10.36 24.32 4.28 -0.39 -0.85 1523
0.09 0.07 -1.86 -8.44 26.93 4.28 -1.01 -0.84 1530
0.05 0.07 -1.23 -9.64 24.99 4.28 -1.42 -0.65 1538
0.03 0.08 0.34 -8.67 24.67 4.28 -1.27 -0.61 1545
0.03 0.08 1.21 -7.86 28.25 4.28 -1.40 -0.53 1552
0.02 0.09 3.41 -5.17 28.09 4.28 -1.55 -0.55 1559
-0.01 0.09 3.92 0.17 25.07 4.28 -1.54 -0.53 1565
-0.01 0.11 5.23 4.17 24.55 4.28 -1.36 -0.64 1572
-0.01 0.10 4.08 10.56 19.32 4.28 -1.34 -0.80 1581
-0.01 0.13 2.15 19.16 11.23 4.28 -1.32 -1.04 1588
-0.01 0.13 4.35 17.20 18.24 4.15 -0.88 -1.16 1595
-0.01 0.14 3.54 16.18 27.64 1.96 -0.39 -1.22 1602
-0.01 0.14 1.38 14.67 23.00 -0.15 -0.03 -1.10 1608
-0.01 0.14 -1.16 13.70 17.41 -1.30 0.02 -0.84 1615
-0.01 0.14 -1.90 11.13 11.68 -1.78 -0.35 -0.63 1624
-0.02 0.15 -1.88 8.86 9.36 -1.99 -0.84 -0.47 1630
-0.02 0.17 -1.55 7.46 8.29 -2.04 -1.19 -0.28 1637
-0.01 0.14 -1.09 6.95 8.53 -2.14 -1.40 -0.10 1644
-0.01 0.14 -0.54 7.14 8.60 -2.37 -1.51 0.11 1651
-0.01 0.14 0.00 7.61 9.85 -2.69 -1.50 0.30 1658
-0.01 0.14 1.00 7.63 10.77 -3.23 -1.33 0.45 1666
-0.01 0.15 1.35 7.23 11.03 -3.73 -1.07 0.58 1673
-0.01 0.15 1.12 6.60 10.26 -4.18 -0.89 0.64 1680
-0.02 0.15 0.94 5.43 9.59 -4.28 -0.77 0.65 1687
-0.01 0.15 0.83 4.21 9.02 -4.28 -0.76 0.60 1694
-0.01 0.14 0.84 3.18 9.08 -4.28 -0.75 0.53 1701
-0.02 0.15 1.06 2.06 9.15 -4.28 -0.69 0.42 1709
-0.02 0.16 1.17 0.73 9.67 -4.28 -0.59 0.33 1716
-0.01 0.16 1.17 0.54 9.97 -4.28 -0.45 0.21 1723
-0.02 0.15 1.01 0.06 10.57 -4.28 -0.32 0.10 1730
-0.02 0.15 0.93 -0.23 11.21 -4.28 -0.21 -0.00 1737
-0.01 0.13 0.88 -0.45 12.16 -4.28 -0.13 -0.12 1744
-0.02 0.15 0.88 -0.71 12.77 -4.28 -0.08 -0.23 1752
-0.01 0.16 1.08 -0.96 13.50 -4.28 -0.04 -0.30 1760
-0.01 0.16 1.52 -1.31 14.22 -4.28 0.01 -0.36 1767
-0.01 0.15 1.95 -1.69 14.83 -4.28 0.07 -0.38 1774
-0.01 0.15 2.32 -2.02 15.59 -4.28 0.20 -0.36 1781
-0.02 0.16 2.57 -2.52 16.60 -4.28 0.34 -0.30 1787
-0.01 0.17 2.61 -2.99 17.45 -4.28 0.49 -0.23 1796
-0.01 0.18 2.41 -3.71 18.41 -4.28 0.63 -0.13 1803
-0.00 0.16 2.32 -4.50 19.31 -4.28 0.72 -0.06 1810
-0.01 0.16 2.30 -5.46 19.95 -4.28 0.85 -0.01 1817
-0.01 0.16 2.26 -6.15 20.94 -4.28 1.03 -0.00 1824
-0.02 0.16 2.22 -6.67 22.17 -4.28 1.21 -0.02 1830
-0.02 0.15 1.81 -7.39 23.31 -4.28 1.45 -0.06 1838
-0.01 0.15 1.22 -8.11 24.31 -4.28 1.61 -0.11 1845
-0.01 0.16 0.33 -9.17 25.32 -4.28 1.75 -0.18 1853
-0.01 0.17 -0.33 -10.65 26.46 -4.27 1.88 -0.29 1860
-0.02 0.17 -0.98 -12.27 26.58 -4.27 1.96 -0.41 1867
-0.01 0.15 1.83 -18.90 20.92 -4.28 1.97 -0.58 1874
-0.02 0.16 -2.31 -16.13 23.33 -4.10 2.27 -0.71 1882
-0.02 0.17 -1.94 -17.45 24.76 -4.28 2.13 -0.93 1889
-0.01 0.15 -3.90 -22.85 26.83 -4.28 1.99 -1.01 1896
-0.02 0.17 -3.39 -24.98 17.16 -4.28 1.97 -1.02 1903
-0.02 0.15 -5.70 -27.71 13.08 -4.12 2.10 -0.88 1910
-0.01 0.15 -7.62 -34.08 8.29 -3.68 2.15 -0.75 1916
-0.01 0.14 -11.35 -42.68 5.09 -3.18 1.95 -0.69 1925
-0.01 0.15 -15.69 -53.48 -0.05 -2.70 1.49 -0.63 1932
-0.01 0.14 -18.20 -57.35 -3.63 -1.88 0.89 -0.52 1939
-0.02 0.15 -17.83 -52.68 -3.88 -0.42 -0.25 -0.51 1946
-0.00 0.15 -11.16 -46.50 -9.60 0.85 -1.61 -0.70 1953
-0.02 0.19 -6.94 -43.78 9.94 3.67 -2.44 -1.24 1959
0.00 0.20 -1.16 -12.34 1.56 4.26 -1.65 -1.74 1968
-0.02 0.35 0.42 10.71 14.84 4.28 -1.73 -1.80 1975
-0.04 0.50 2.85 -4.33 19.47 3.81 -1.33 -1.52 1982
-0.05 0.68 8.69 3.10 11.86 3.09 -1.02 -1.02 1989
-0.05 0.78 6.67 -0.78 11.66 3.15 -0.96 -0.52 1996
-0.05 0.91 1.87 -4.00 18.29 4.11 -0.59 -0.08 2003
-0.05 0.99 7.44 -3.97 17.40 4.28 -0.05 0.50 2011
-0.05 1.17 -1.24 -6.63 28.22 4.17 0.46 0.95 2018
-0.06 1.32 -5.25 -6.10 21.14 3.47 0.30 0.78 2025
-0.07 1.50 -6.47 -4.74 17.46 3.27 0.20 0.27 2032
-0.08 1.49 -1.99 -3.12 15.94 2.92 0.25 -0.16 2039
-0.07 1.57 1.41 -2.19 13.57 2.63 0.52 -0.18 2046
-0.06 1.55 2.93 -3.83 19.42 2.18 0.12 -0.03 2054
-0.05 1.50 1.80 -2.03 13.86 0.59 -0.65 0.14 2061
-0.06 1.54 -0.25 -3.30 12.12 0.11 -0.47 0.19 2068
-0.07 1.51 -0.71 -1.65 10.39 -0.07 -0.13 0.10 2075
-0.07 1.48 0.21 -1.46 9.80 -0.11 -0.06 0.05 2081
-0.07 1.47 0.16 -1.43 10.38 -0.11 -0.04 0.06 2089
-0.05 1.47 0.12 -1.36 9.68 -0.11 -0.03 0.05 2096
-0.08 1.47 -0.07 -1.46 9.84 -0.11 -0.03 0.02 2103
-0.07 1.46 0.10 -1.41 9.88 -0.10 -0.01 0.01 2110
-0.06 1.49 0.12 -1.29 9.86 -0.07 0.01 0.00 2117
-0.06 1.45 0.07 -1.19 9.76 -0.05 0.02 -0.01 2124
-0.08 1.48 0.12 -1.23 9.79 -0.05 0.04 -0.02 2131
-0.07 1.45 0.08 -1.17 9.74 -0.04 0.05 -0.02 2139
-0.06 1.46 0.11 -1.10 9.76 -0.04 0.05 -0.02 2146
-0.06 1.46 0.10 -1.14 9.80 -0.03 0.06 -0.02 2153
-0.07 1.45 0.10 -1.13 9.81 -0.02 0.06 -0.02 2160
-0.07 1.45 0.11 -1.08 9.82 0.00 0.07 -0.02 2167
-0.06 1.40 0.09 -1.09 9.76 0.02 0.07 -0.02 2174
-0.06 1.38 0.13 -1.08 9.81 0.04 0.09 -0.02 2182
-0.06 1.34 0.11 -1.13 9.81 0.05 0.09 -0.02 2189
-0.06 1.31 0.19 -1.05 9.74 0.07 0.09 -0.02 2196
-0.05 1.23 0.22 -1.11 9.70 0.09 0.08 -0.02 2203
-0.06 1.19 0.26 -1.12 9.69 0.09 0.07 -0.02 2210
-0.05 1.18 0.21 -1.15 9.71 0.09 0.05 -0.02 2217
-0.03 1.12 0.25 -1.15 9.69 0.10 0.03 -0.03 2225
-0.04 1.01 0.28 -1.19 9.67 0.10 0.02 -0.04 2232
-0.04 0.99 0.25 -1.17 9.65 0.10 -0.00 -0.05 2239
-0.03 0.97 0.28 -1.21 9.63 0.10 -0.02 -0.06 2246
-0.03 0.96 0.21 -1.18 9.71 0.10 -0.04 -0.06 2253
-0.03 0.95 0.25 -1.22 9.68 0.09 -0.04 -0.06 2260
-0.01 0.91 0.20 -1.26 9.71 0.09 -0.05 -0.07 2268
-0.03 0.84 0.19 -1.25 9.70 0.09 -0.05 -0.07 2275
-0.01 0.79 0.21 -1.27 9.71 0.09 -0.05 -0.07 2282
-0.02 0.80 0.18 -1.23 9.69 0.09 -0.05 -0.07 2289
-0.00 0.75 0.16 -1.28 9.72 0.09 -0.04 -0.07 2296
0.01 0.72 0.12 -1.28 9.67 0.09 -0.03 -0.08 2304
0.03 0.71 0.17 -1.25 9.69 0.09 -0.01 -0.08 2311
0.01 0.67 0.15 -1.35 9.73 0.10 0.00 -0.08 2318
0.01 0.65 0.18 -1.31 9.68 0.10 0.01 -0.08 2325
0.01 0.64 0.17 -1.31 9.77 0.11 0.02 -0.09 2332
0.03 0.58 0.18 -1.35 9.82 0.12 0.02 -0.09 2339
0.08 0.58 0.17 -1.39 9.78 0.13 0.03 -0.09 2347
0.08 0.54 0.17 -1.32 9.83 0.15 0.02 -0.09 2354
0.09 0.50 0.19 -1.39 9.85 0.17 0.02 -0.09 2361
0.12 0.45 0.21 -1.36 9.87 0.20 0.02 -0.10 2368
0.15 0.46 0.27 -1.34 9.89 0.24 0.02 -0.10 2375
0.17 0.39 0.27 -1.51 9.92 0.28 0.01 -0.11 2382
0.20 0.38 0.19 -1.54 9.86 0.31 0.01 -0.12 2390
0.19 0.39 0.20 -1.56 9.92 0.34 0.02 -0.13 2397
0.22 0.33 0.25 -1.67 9.97 0.38 0.02 -0.14 2404
0.22 0.27 0.25 -1.75 10.12 0.42 0.04 -0.17 2412
0.21 0.24 0.54 -1.66 10.49 0.48 0.05 -0.19 2419
0.29 0.21 0.36 -1.76 10.45 0.59 0.05 -0.22 2426
0.35 0.16 1.22 -2.11 10.86 0.71 0.04 -0.27 2434
0.34 0.22 0.80 -2.22 11.12 0.91 0.04 -0.32 2441
0.42 0.16 -0.07 -2.09 12.08 1.24 0.04 -0.32 2447
0.40 0.19 0.36 -2.12 11.63 1.47 -0.04 -0.31 2455
0.41 0.15 0.06 -2.24 11.24 1.59 -0.07 -0.34 2462
0.48 0.18 0.46 -2.38 11.56 1.71 -0.16 -0.34 2469
0.54 0.14 -0.04 -2.97 11.72 1.85 -0.19 -0.33 2477
0.62 0.17 -0.01 -2.71 11.55 1.95 -0.24 -0.31 2484
0.63 0.13 -0.03 0.50 11.98 2.10 -0.23 -0.28 2490
0.62 0.16 -0.26 -2.76 12.25 2.27 -0.22 -0.24 2498
0.71 0.15 -0.60 -2.19 11.64 2.41 -0.22 -0.20 2505
0.73 0.16 -0.70 -2.94 12.43 2.58 -0.16 -0.16 2512
0.73 0.18 -0.06 -3.17 13.03 2.78 -0.09 -0.14 2520
0.72 0.21 0.04 -3.56 13.39 2.99 -0.05 -0.15 2527
0.69 0.23 0.67 -3.29 13.37 3.30 -0.06 -0.15 2534
0.63 0.22 1.10 -3.89 13.53 3.58 -0.09 -0.21 2541
0.61 0.24 1.05 -3.92 14.12 3.93 -0.12 -0.31 2548
0.54 0.21 0.94 -3.89 14.97 4.22 -0.22 -0.37 2555
0.45 0.23 0.81 -4.19 15.40 4.28 -0.30 -0.44 2563
0.34 0.21 1.71 -5.27 15.74 4.28 -0.43 -0.52 2570
0.31 0.12 2.29 -5.83 16.14 4.28 -0.42 -0.66 2577
0.21 0.13 1.57 -3.80 17.88 4.28 -0.23 -0.68 2584
0.18 0.11 0.94 -7.98 20.58 4.28 -0.23 -0.71 2591
0.12 0.11 -1.95 -9.41 22.67 4.28 -0.43 -0.83 2598
0.06 0.11 -3.46 -9.57 26.05 4.28 -0.74 -0.79 2606
0.05 0.11 -1.41 -10.91 26.75 4.28 -0.98 -0.54 2613
0.03 0.10 -0.40 -9.82 26.23 4.28 -0.90 -0.54 2619
0.02 0.09 1.19 -10.22 29.03 4.28 -1.19 -0.58 2627
0.00 0.11 3.45 -6.51 31.33 4.28 -1.37 -0.54 2634
0.01 0.09 4.84 -2.26 28.93 4.28 -1.28 -0.56 2641
-0.01 0.09 5.73 3.89 27.07 4.28 -0.85 -0.59 2648
-0.01 0.11 5.65 11.62 21.97 4.28 -0.51 -0.78 2656
-0.01 0.10 5.30 21.20 11.06 4.28 -0.41 -0.96 2662
-0.02 0.16 5.58 16.00 22.36 3.75 0.43 -0.97 2669
-0.00 0.16 3.59 13.34 28.37 0.98 0.70 -0.87 2677
0.00 0.15 0.48 12.16 22.24 -0.76 0.44 -0.54 2684
-0.00 0.15 -2.41 10.53 15.27 -1.46 -0.02 -0.29 2692
0.00 0.15 -1.56 8.61 11.07 -1.74 -0.81 -0.21 2699
-0.02 0.17 -0.46 7.11 9.09 -1.78 -1.35 -0.18 2705
-0.02 0.18 0.90 6.57 8.05 -1.84 -1.46 -0.15 2712
-0.02 0.20 1.84 6.60 7.54 -1.99 -1.24 -0.10 2719
-0.01 0.19 1.24 7.01 7.55 -2.18 -0.85 -0.06 2726
-0.02 0.19 0.88 7.30 7.78 -2.49 -0.56 -0.04 2734
-0.01 0.17 -0.40 7.38 8.41 -2.86 -0.38 -0.03 2741
-0.01 0.17 -1.21 7.29 8.72 -3.15 -0.37 -0.05 2748
0.00 0.19 -1.53 7.13 8.87 -3.47 -0.45 -0.08 2755
0.01 0.19 -1.28 6.58 9.10 -3.73 -0.48 -0.15 2762
0.01 0.19 -0.74 5.73 9.07 -4.02 -0.44 -0.23 2769
0.00 0.19 -0.49 4.78 9.50 -4.21 -0.33 -0.34 2777
0.01 0.17 -0.21 3.56 9.55 -4.27 -0.18 -0.47 2784
0.01 0.17 -0.15 2.67 9.95 -4.28 0.04 -0.58 2791
0.01 0.17 -0.45 1.85 10.52 -4.28 0.28 -0.69 2799
0.02 0.17 -0.85 1.35 11.22 -4.28 0.43 -0.75 2806
0.01 0.16 -1.30 0.72 11.95 -4.28 0.54 -0.80 2812
0.00 0.16 -1.60 0.21 12.84 -4.28 0.60 -0.83 2820
0.00 0.15 -1.71 -0.13 13.45 -4.28 0.63 -0.84 2828
-0.00 0.16 -1.70 -0.74 14.01 -4.28 0.67 -0.86 2835
0.01 0.18 -1.46 -1.27 14.46 -4.28 0.71 -0.87 2842
0.01 0.17 -1.24 -1.76 14.72 -4.28 0.75 -0.84 2849
0.01 0.17 -0.99 -2.23 15.25 -4.28 0.83 -0.79 2856
0.01 0.16 -0.68 -2.43 15.88 -4.28 0.88 -0.72 2864
0.01 0.16 -0.46 -2.69 16.84 -4.28 1.02 -0.62 2871
0.01 0.16 -0.52 -3.09 17.80 -4.28 1.17 -0.52 2878
0.02 0.17 -0.78 -3.92 18.39 -4.28 1.35 -0.42 2885
0.02 0.16 -1.23 -5.16 18.87 -4.28 1.50 -0.33 2892
0.02 0.17 -1.25 -6.23 20.22 -4.28 1.58 -0.26 2899
0.01 0.16 -0.71 -7.07 21.33 -4.27 1.78 -0.20 2907
0.00 0.17 0.09 -7.99 23.10 -4.18 2.09 -0.16 2913
0.01 0.18 0.45 -9.21 24.47 -4.03 2.59 -0.12 2921
0.01 0.17 -0.07 -11.13 25.95 -3.91 3.04 -0.05 2928
0.01 0.16 -1.36 -13.26 27.06 -3.87 3.24 0.03 2935
0.00 0.16 -3.36 -15.37 27.16 -3.97 3.08 0.18 2942
-0.00 0.13 -4.42 -17.59 26.63 -4.14 2.61 0.37 2950
-0.00 0.15 -4.54 -19.59 25.53 -4.27 1.94 0.57 2957
0.00 0.14 -4.82 -21.81 23.34 -4.28 1.43 0.83 2964
0.01 0.14 -5.61 -24.28 19.84 -4.28 1.15 1.09 2971
-0.00 0.15 -6.66 -27.75 16.66 -4.28 0.83 1.31 2978
0.00 0.14 -7.21 -31.02 12.53 -4.28 0.42 1.54 2985
-0.00 0.12 -6.47 -34.29 9.09 -4.21 0.02 1.65 2993
0.00 0.14 -5.47 -40.88 5.36 -3.86 -0.34 1.52 3000
0.00 0.15 -5.82 -49.46 0.73 -3.51 -0.54 1.03 3007
0.01 0.15 -8.49 -54.94 -3.42 -2.84 -0.49 0.44 3014
-0.02 0.15 -11.55 -55.14 -5.81 -1.78 -0.39 -0.18 3021
-0.01 0.15 -10.88 -48.85 -4.93 -0.20 -0.59 -0.60 3028
-0.02 0.16 2.43 -49.83 -28.13 1.25 -1.44 -0.98 3036
-0.01 0.20 -4.20 -33.26 -1.81 3.85 -1.00 -1.40 3043
-0.00 0.38 3.52 12.15 1.35 4.26 -0.27 -1.49 3050
-0.01 0.62 6.12 -2.67 12.00 4.15 -0.52 -1.24 3057
-0.03 0.85 6.83 1.97 18.70 3.29 -0.32 -0.95 3064
-0.03 0.93 7.02 0.36 12.50 3.07 -0.81 -0.65 3072
-0.04 1.04 4.57 -4.04 19.34 3.93 -0.58 -0.19 3079
-0.04 1.16 11.41 -4.22 15.63 4.28 0.23 0.57 3086
-0.04 1.30 -0.04 -7.29 29.39 4.28 0.76 1.53 3093
-0.04 1.55 -6.74 -5.30 21.35 3.68 0.45 1.27 3100
-0.06 1.57 -10.47 -5.08 16.75 3.36 0.38 0.57 3107
-0.06 1.60 -5.67 -3.78 16.83 3.13 0.45 -0.30 3115
-0.06 1.64 0.98 -1.99 14.00 2.73 0.60 -0.60 3122
-0.04 1.63 5.51 -1.92 14.03 2.53 0.63 -0.35 3129
-0.05 1.65 3.49 -3.88 20.06 1.58 -0.37 0.05 3136
-0.05 1.66 0.93 -1.94 12.20 0.27 -0.63 0.21 3143
-0.07 1.62 -1.21 -2.40 11.38 0.02 -0.34 0.11 3150
-0.08 1.61 -0.17 -1.70 10.21 -0.11 -0.10 0.06 3158
-0.10 1.64 0.39 -1.75 10.03 -0.12 -0.04 0.06 3165
-0.06 1.64 0.13 -1.65 9.93 -0.11 -0.04 0.05 3171
-0.05 1.60 -0.12 -1.46 9.93 -0.10 -0.03 0.02 3178
-0.06 1.61 0.17 -1.38 9.84 -0.10 -0.02 0.01 3185
-0.09 1.60 0.11 -1.24 9.85 -0.07 -0.01 0.00 3192
-0.08 1.59 0.05 -1.19 9.83 -0.05 0.01 -0.00 3200
-0.09 1.61 0.09 -1.18 9.83 -0.04 0.02 -0.01 3207
-0.07 1.61 0.07 -1.12 9.59 -0.02 0.04 -0.01 3214
-0.07 1.59 0.09 -1.13 9.90 -0.02 0.05 -0.01 3221
-0.07 1.60 0.04 -1.08 9.81 0.00 0.05 -0.02 3228
-0.06 1.55 0.06 -1.07 9.81 0.03 0.05 -0.01 3235
-0.07 1.53 0.07 -1.06 9.84 0.04 0.05 -0.02 3243
-0.06 1.49 0.04 -1.06 9.82 0.07 0.06 -0.02 3250
-0.05 1.46 0.09 -1.08 9.81 0.09 0.06 -0.01 3257
-0.04 1.44 0.12 -1.12 9.75 0.11 0.06 -0.02 3264
-0.04 1.36 0.13 -1.12 9.72 0.12 0.05 -0.02 3271
-0.04 1.37 0.16 -1.17 9.72 0.12 0.05 -0.02 3278
-0.04 1.29 0.11 -1.14 9.67 0.11 0.05 -0.03 3286
-0.03 1.25 0.18 -1.12 9.68 0.11 0.05 -0.03 3293
-0.03 1.22 0.21 -1.18 9.74 0.10 0.04 -0.03 3300
-0.01 1.16 0.24 -1.19 9.65 0.10 0.04 -0.04 3307
-0.02 1.13 0.23 -1.23 9.64 0.08 0.04 -0.04 3314
-0.02 1.09 0.20 -1.22 9.63 0.07 0.03 -0.04 3321
-0.03 1.05 0.24 -1.19 9.65 0.06 0.02 -0.05 3329
-0.02 1.04 0.19 -1.22 9.61 0.05 0.02 -0.05 3336
-0.03 1.04 0.16 -1.22 9.62 0.03 0.01 -0.05 3343
-0.01 1.04 0.19 -1.21 9.68 0.02 0.01 -0.05 3350
-0.02 1.04 0.18 -0.65 9.68 0.01 0.01 -0.05 3357
-0.02 0.99 0.17 -1.20 9.63 0.01 0.01 -0.05 3364
-0.03 1.02 0.18 -1.21 9.69 -0.00 0.02 -0.05 3372
-0.02 1.01 0.20 -1.22 9.71 -0.00 0.02 -0.05 3379
-0.01 1.02 0.17 -1.20 9.68 -0.01 0.02 -0.06 3386
-0.01 1.03 0.19 -1.23 9.68 -0.01 0.02 -0.05 3393
-0.01 1.00 0.18 -1.24 9.69 -0.01 0.02 -0.06 3400
-0.01 0.97 0.21 -1.23 9.73 -0.00 0.02 -0.06 3407
-0.02 1.01 0.13 -1.28 9.73 -0.00 0.02 -0.06 3415
-0.01 1.04 0.18 -1.22 9.79 0.01 0.03 -0.06 3422
0.01 0.98 0.12 -1.27 9.73 0.02 0.02 -0.06 3429
0.02 0.98 0.20 -1.19 9.76 0.03 0.01 -0.06 3436
0.02 0.93 0.18 -1.21 9.68 0.05 0.01 -0.06 3443
0.02 0.91 0.14 -1.24 9.75 0.07 0.00 -0.07 3450
0.01 0.90 0.17 -1.22 9.77 0.09 -0.00 -0.07 3458
0.02 0.86 0.13 -1.20 9.79 0.11 -0.01 -0.07 3465
0.04 0.79 0.22 -1.20 9.75 0.15 -0.02 -0.08 3472
0.06 0.73 0.17 -1.25 9.94 0.18 -0.03 -0.09 3479
0.05 0.60 0.21 -1.27 9.83 0.22 -0.04 -0.09 3486
0.06 0.58 0.26 -1.31 9.87 0.27 -0.05 -0.10 3493
0.07 0.58 0.27 -1.40 9.98 0.32 -0.06 -0.11 3501
0.11 0.47 0.21 -1.42 10.10 0.38 -0.06 -0.13 3509
0.14 0.43 0.39 -1.46 10.10 0.47 -0.06 -0.16 3516
0.20 0.37 0.18 -1.59 10.08 0.51 -0.06 -0.19 3523
0.23 0.32 0.51 -1.64 10.33 0.60 -0.05 -0.24 3530
0.26 0.25 0.33 -1.73 10.56 0.69 -0.03 -0.30 3537
0.30 0.24 0.89 -1.73 10.99 0.85 -0.03 -0.35 3545
0.37 0.22 1.25 -1.97 11.19 1.06 -0.04 -0.42 3552
0.42 0.18 -0.33 -2.66 13.10 1.29 0.01 -0.46 3559
0.50 0.16 -0.05 -2.28 12.84 1.78 -0.05 -0.35 3566
0.57 0.21 1.08 -1.12 12.60 1.96 -0.08 -0.32 3573
0.62 0.22 -0.11 -2.36 12.88 2.17 -0.10 -0.33 3580
0.68 0.23 -0.08 -1.88 12.59 2.44 -0.13 -0.30 3588
0.69 0.23 0.07 -2.71 13.62 2.68 -0.11 -0.30 3595
0.71 0.22 0.44 -2.51 13.96 2.96 -0.12 -0.30 3602
0.69 0.23 0.05 -2.67 13.94 3.21 -0.14 -0.32 3609
0.67 0.20 -0.17 -2.82 14.93 3.51 -0.11 -0.32 3616
0.65 0.22 0.35 -3.07 15.70 3.86 -0.07 -0.31 3623
0.62 0.24 0.06 -3.41 14.84 4.15 -0.13 -0.35 3631
0.59 0.27 1.07 -3.43 14.89 4.28 -0.22 -0.41 3638
0.49 0.20 1.30 -3.27 16.09 4.28 -0.40 -0.48 3645
0.38 0.23 1.52 -4.20 17.21 4.28 -0.61 -0.62 3652
0.30 0.20 2.31 -5.48 18.02 4.28 -0.77 -0.69 3659
0.22 0.19 2.39 -6.42 20.84 4.28 -0.78 -0.75 3666
0.13 0.16 2.10 -4.84 21.16 4.28 -0.60 -0.81 3674
0.09 0.13 2.91 -9.83 26.74 4.28 -0.56 -0.95 3681
0.06 0.11 -2.45 -6.53 26.55 4.28 -1.00 -0.97 3688
0.00 0.10 1.57 -9.17 26.88 4.28 -1.19 -0.79 3695
-0.01 0.11 2.31 -8.65 24.47 4.28 -0.75 -0.86 3702
0.02 0.11 2.36 -9.01 29.69 4.28 -0.66 -0.91 3709
0.00 0.14 2.73 -6.45 31.67 4.28 -0.82 -0.97 3717
0.01 0.13 3.97 -1.43 29.77 4.28 -0.89 -1.06 3724
-0.01 0.14 5.04 4.56 27.07 4.28 -0.86 -1.26 3730
-0.01 0.11 1.37 16.73 19.04 4.28 -0.97 -1.71 3738
-0.01 0.14 3.71 21.04 5.42 4.14 -0.83 -2.44 3744
-0.02 0.18 6.02 15.68 28.87 2.12 0.20 -2.85 3751
-0.02 0.16 3.14 12.72 23.88 0.34 0.81 -3.19 3760
-0.02 0.16 1.16 12.56 16.61 -0.43 1.13 -3.22 3767
-0.01 0.15 0.34 10.70 10.25 -0.68 0.77 -3.14 3774
-0.01 0.14 0.48 9.44 8.86 -0.77 0.22 -2.90 3780
-0.01 0.14 2.23 8.66 9.51 -0.90 -0.23 -2.48 3787
-0.02 0.17 4.69 9.43 8.99 -1.21 -0.35 -1.90 3794
-0.01 0.18 5.23 9.99 8.69 -1.68 -0.23 -1.35 3802
-0.02 0.16 4.98 9.97 8.59 -2.18 -0.01 -0.70 3809
-0.02 0.18 4.30 9.46 8.42 -2.58 0.15 -0.12 3816
-0.02 0.16 3.59 8.82 8.36 -2.95 0.27 0.34 3823
-0.02 0.18 3.03 8.09 8.66 -3.24 0.43 0.76 3830
0.00 0.18 2.51 7.39 9.03 -3.59 0.56 1.02 3837
0.01 0.17 1.54 6.56 9.77 -3.93 0.74 1.22 3845
0.00 0.17 0.91 5.25 10.15 -4.15 0.89 1.35 3853
-0.01 0.17 -0.12 4.11 10.55 -4.27 0.98 1.40 3860
-0.02 0.15 -1.06 2.51 10.44 -4.28 1.01 1.41 3866
-0.01 0.16 -1.78 1.64 11.13 -4.28 0.98 1.36 3874
0.01 0.15 -2.31 0.84 11.50 -4.28 0.92 1.24 3881
0.01 0.15 -2.48 0.12 12.18 -4.28 0.87 1.04 3889
0.00 0.15 -2.51 -0.51 12.97 -4.28 0.86 0.83 3896
0.00 0.14 -2.54 -1.07 13.85 -4.28 0.92 0.54 3903
-0.01 0.15 -2.70 -1.63 14.65 -4.28 1.01 0.25 3910
0.01 0.14 -3.06 -2.06 15.05 -4.28 1.05 0.00 3916
0.01 0.16 -3.18 -2.57 15.29 -4.28 1.06 -0.21 3924
0.02 0.15 -2.97 -2.88 15.43 -4.28 1.02 -0.33 3932
0.00 0.14 -2.61 -3.29 15.93 -4.28 1.01 -0.41 3939
0.02 0.13 -2.10 -3.80 16.49 -4.28 1.06 -0.40 3946
0.01 0.13 -1.47 -4.46 17.12 -4.28 1.17 -0.35 3953
0.02 0.13 -0.86 -5.42 17.66 -4.28 1.32 -0.24 3960
0.02 0.14 -0.33 -6.41 18.06 -4.28 1.46 -0.12 3968
0.02 0.14 0.26 -7.23 19.73 -4.24 1.60 0.06 3975
0.01 0.13 0.66 -7.34 23.10 -4.12 1.75 0.25 3982
0.00 0.12 1.13 -7.38 25.14 -4.15 1.96 0.41 3989
-0.00 0.13 1.03 -8.20 26.45 -4.24 2.08 0.60 3995
-0.00 0.11 0.68 -9.64 27.14 -4.28 2.08 0.76 4003
-0.01 0.13 0.73 -11.27 27.50 -4.28 2.00 0.90 4011
-0.01 0.15 0.29 -13.27 27.66 -4.28 1.89 1.00 4018
-0.02 0.16 -0.58 -15.10 27.23 -4.28 1.79 1.05 4025
-0.02 0.15 -2.08 -17.27 25.65 -4.28 1.68 1.09 4032
-0.02 0.15 -3.66 -19.55 22.96 -4.28 1.56 1.10 4039
-0.02 0.15 -5.01 -22.57 20.54 -4.28 1.33 1.10 4046
-0.02 0.15 -5.36 -26.42 17.72 -4.28 1.04 1.09 4054
-0.01 0.13 -4.28 -30.41 14.70 -4.28 0.78 1.05 4061
-0.01 0.13 -2.07 -36.95 9.78 -4.23 0.47 0.84 4067
-0.01 0.11 -0.81 -46.94 2.65 -3.95 0.42 0.44 4074
-0.01 0.10 -3.73 -55.75 -4.08 -3.33 0.99 0.19 4081
-0.01 0.13 -10.05 -60.37 -7.60 -2.27 1.64 0.15 4089
-0.00 0.12 -15.12 -55.66 -6.69 -0.54 1.41 0.21 4097
-0.01 0.15 -16.50 -44.09 -2.48 1.11 0.11 0.25 4104
-0.01 0.16 -12.97 -32.19 4.15 2.06 -1.15 0.31 4111
-0.02 0.16 10.46 -44.29 25.39 3.68 -2.34 0.02 4118
-0.03 0.25 -2.63 1.14 9.85 4.22 -1.04 -0.28 4124
-0.02 0.45 4.15 12.02 5.02 3.99 -0.73 -0.25 4132
-0.02 0.63 0.60 -2.54 17.13 3.30 -1.06 -0.09 4139
-0.03 0.80 4.57 1.32 7.93 2.80 -1.13 0.14 4146
-0.05 0.94 1.47 -2.29 12.00 3.38 -0.96 0.36 4154
-0.07 1.11 0.32 -3.10 17.57 4.24 -0.16 0.67 4161
-0.06 1.24 3.06 -5.38 22.31 4.28 0.18 1.03 4168
-0.07 1.33 -5.21 -7.89 28.77 4.02 0.70 1.24 4175
-0.07 1.56 -6.83 -5.34 18.31 3.45 0.52 0.64 4183
-0.06 1.62 -5.59 -4.15 17.14 3.32 0.40 0.06 4190
-0.06 1.67 -0.18 -2.85 15.55 2.86 0.57 -0.26 4197
-0.06 1.67 2.88 -2.31 15.43 2.54 0.62 -0.17 4204
-0.05 1.66 2.92 -4.10 20.94 1.50 -0.33 0.04 4211
-0.06 1.71 0.62 -1.91 12.53 0.38 -0.60 0.20 4218
-0.08 1.68 -1.14 -2.55 11.44 0.04 -0.31 0.15 4226
-0.09 1.62 -0.43 -1.30 10.06 -0.09 -0.06 0.06 4232
-0.06 1.60 0.32 -1.30 9.79 -0.11 -0.01 0.07 4239
-0.07 1.59 0.23 -1.43 9.80 -0.13 0.01 0.08 4246
-0.06 1.57 -0.11 -1.45 9.91 -0.13 0.02 0.06 4253
-0.06 1.57 0.08 -1.40 9.90 -0.11 0.03 0.03 4260
-0.07 1.57 0.12 -1.22 9.93 -0.09 0.04 0.02 4268
-0.06 1.57 0.05 -1.11 9.83 -0.08 0.05 0.01 4275
-0.05 1.55 0.14 -1.11 9.78 -0.06 0.06 -0.00 4282
-0.05 1.57 0.12 -1.05 9.75 -0.06 0.06 -0.01 4289
-0.05 1.54 0.16 -1.03 9.80 -0.04 0.06 -0.01 4296
-0.05 1.52 -0.00 -1.03 9.82 -0.03 0.06 -0.01 4303
-0.06 1.47 0.12 -0.91 9.81 -0.02 0.06 -0.01 4311
-0.06 1.48 0.16 -0.93 9.84 0.01 0.06 -0.01 4318
-0.07 1.44 0.11 -0.93 9.86 0.04 0.05 -0.01 4325
-0.05 1.40 0.07 -0.90 9.82 0.07 0.05 -0.01 4332
-0.05 1.40 0.09 -0.98 9.79 0.09 0.05 -0.01 4339
-0.03 1.35 0.11 -1.03 9.80 0.10 0.05 -0.01 4346
-0.03 1.29 0.12 -0.99 9.78 0.11 0.06 -0.01 4354
-0.03 1.25 0.12 -1.01 9.75 0.12 0.06 -0.01 4361
-0.05 1.23 0.16 -1.08 9.74 0.12 0.07 -0.01 4368
-0.04 1.19 0.19 -1.05 9.70 0.12 0.07 -0.02 4375
-0.04 1.15 0.24 -1.06 9.73 0.12 0.06 -0.02 4382
-0.02 1.07 0.26 -1.07 9.71 0.11 0.06 -0.03 4389
-0.03 1.07 0.29 -1.04 9.71 0.11 0.05 -0.03 4397
-0.02 1.03 0.25 -1.08 9.64 0.11 0.05 -0.04 4404
-0.03 1.01 0.23 -1.10 9.64 0.09 0.05 -0.04 4411
-0.03 1.02 0.24 -1.08 9.62 0.08 0.05 -0.05 4418
-0.02 0.93 0.25 -1.12 9.63 0.06 0.05 -0.05 4425
-0.01 0.90 0.21 -1.14 9.64 0.05 0.05 -0.05 4432
-0.02 0.88 0.23 -1.14 9.71 0.04 0.05 -0.05 4440
-0.01 0.85 0.25 -1.16 9.74 0.04 0.04 -0.05 4447
-0.02 0.84 0.28 -1.12 9.70 0.04 0.03 -0.05 4454
-0.01 0.81 0.27 -1.15 9.68 0.04 0.02 -0.05 4461
-0.01 0.83 0.26 -1.16 9.72 0.04 0.00 -0.06 4468
-0.00 0.84 0.26 -1.10 9.71 0.04 -0.01 -0.06 4475
-0.01 0.84 0.24 -1.15 9.70 0.05 -0.02 -0.06 4483
-0.02 0.79 0.27 -1.20 9.69 0.05 -0.03 -0.07 4490
0.00 0.77 0.28 -1.16 9.83 0.05 -0.05 -0.07 4497
0.02 0.72 0.30 -1.20 9.75 0.07 -0.09 -0.08 4504
0.03 0.72 0.29 -1.18 9.79 0.09 -0.12 -0.09 4511
0.03 0.75 0.25 -1.24 9.79 0.12 -0.14 -0.09 4518
0.03 0.66 0.20 -1.29 9.84 0.13 -0.14 -0.10 4526
0.04 0.60 0.25 -1.20 9.80 0.15 -0.15 -0.11 4533
0.05 0.59 0.17 -1.30 9.87 0.17 -0.15 -0.12 4540
0.05 0.58 0.26 -1.23 9.84 0.19 -0.16 -0.13 4547
0.12 0.56 0.24 -1.29 9.93 0.22 -0.18 -0.16 4554
0.17 0.53 0.17 -1.32 9.82 0.25 -0.19 -0.15 4561
0.21 0.49 0.35 -1.37 9.87 0.27 -0.19 -0.17 4569
0.25 0.42 0.23 -1.25 10.08 0.31 -0.19 -0.18 4577
0.33 0.40 0.40 -1.48 10.11 0.35 -0.20 -0.21 4584
0.41 0.36 0.30 -1.61 10.19 0.40 -0.21 -0.24 4591
0.45 0.32 0.29 -1.48 10.32 0.47 -0.22 -0.28 4598
0.47 0.34 0.29 -1.53 10.52 0.56 -0.27 -0.33 4605
0.53 0.25 0.60 -1.83 10.59 0.69 -0.35 -0.37 4613
0.60 0.28 0.69 -1.89 10.74 0.81 -0.43 -0.43 4620
0.72 0.23 0.45 -2.17 10.75 0.91 -0.47 -0.48 4627
0.77 0.17 0.70 -2.33 11.09 1.01 -0.50 -0.51 4634
0.83 0.17 -0.93 -1.98 12.08 1.16 -0.48 -0.49 4641
0.94 0.17 -1.33 -1.94 11.99 1.45 -0.54 -0.39 4648
0.93 0.22 -0.83 -2.16 12.22 1.66 -0.56 -0.30 4656
1.03 0.24 -1.03 -2.06 12.56 1.84 -0.54 -0.24 4663
1.03 0.26 -0.57 -2.40 12.70 2.12 -0.57 -0.20 4670
1.10 0.25 -0.06 -2.56 13.23 2.36 -0.56 -0.19 4677
1.09 0.25 0.03 -1.87 13.25 2.60 -0.56 -0.21 4684
1.08 0.25 -0.07 -3.08 14.23 2.89 -0.60 -0.23 4691
1.10 0.24 0.89 -2.58 13.48 3.13 -0.64 -0.28 4699
1.10 0.24 0.02 -3.47 14.87 3.39 -0.71 -0.31 4706
1.03 0.28 0.39 -3.44 15.68 3.73 -0.73 -0.35 4713
1.01 0.29 0.58 -4.11 14.97 3.98 -0.79 -0.42 4720
0.88 0.28 0.47 -3.80 15.14 4.23 -0.85 -0.52 4727
0.81 0.31 1.02 -3.91 15.45 4.28 -0.93 -0.66 4734
0.56 0.29 2.67 -0.47 15.56 4.28 -1.03 -0.78 4742
0.45 0.21 0.55 -1.16 21.64 4.28 -0.83 -0.83 4749
0.37 0.12 -0.13 -3.61 18.93 4.28 -1.22 -1.07 4756
0.28 0.08 1.05 -5.96 18.70 4.28 -1.12 -1.11 4763
0.20 0.10 -0.27 -8.29 22.83 4.28 -0.99 -1.13 4770
0.14 0.09 0.25 -9.41 23.34 4.28 -0.93 -1.12 4777
0.08 0.09 -1.48 -9.07 23.64 4.28 -0.77 -1.12 4785
0.06 0.11 -2.16 -9.24 26.42 4.28 -0.56 -1.04 4792
0.01 0.11 -0.63 -9.31 27.38 4.28 -0.81 -1.04 4799
0.02 0.08 1.32 -4.88 28.08 4.28 -0.98 -1.04 4806
-0.01 0.08 3.36 -1.63 26.10 4.28 -1.06 -1.08 4812
0.03 0.07 4.90 4.73 24.84 4.28 -0.76 -1.24 4820
-0.01 0.10 5.21 18.41 18.06 4.28 -0.68 -1.46 4828
-0.01 0.11 6.32 24.54 9.31 3.68 -0.13 -1.76 4834
-0.01 0.14 5.39 16.78 30.08 1.57 0.91 -2.00 4841
-0.01 0.13 2.27 13.20 25.27 -0.31 1.01 -1.97 4849
-0.01 0.12 -0.84 13.23 17.34 -1.10 0.67 -1.74 4856
-0.01 0.12 -0.04 11.23 10.62 -1.31 -0.09 -1.40 4864
-0.01 0.13 1.78 9.66 9.77 -1.34 -0.63 -1.05 4870
-0.01 0.14 3.86 8.68 9.66 -1.40 -0.73 -0.64 4877
-0.01 0.13 4.96 9.04 9.26 -1.65 -0.45 -0.26 4884
-0.01 0.14 4.63 9.47 9.24 -2.01 -0.01 0.07 4891
-0.01 0.14 3.08 9.16 9.50 -2.34 0.34 0.38 4898
-0.01 0.14 1.78 8.79 9.76 -2.72 0.48 0.61 4905
-0.01 0.13 0.53 8.18 9.84 -3.08 0.49 0.82 4913
-0.02 0.15 -0.03 7.46 9.98 -3.38 0.46 0.96 4920
-0.00 0.15 -0.45 6.64 10.15 -3.72 0.46 1.01 4928
-0.01 0.13 -0.69 5.27 10.29 -3.98 0.52 1.00 4934
-0.01 0.15 -1.03 4.06 10.28 -4.17 0.62 0.95 4941
-0.01 0.14 -1.48 2.51 10.41 -4.25 0.76 0.84 4948
-0.01 0.15 -2.43 1.17 10.86 -4.27 0.88 0.69 4956
-0.02 0.16 -2.32 0.28 11.20 -4.28 0.99 0.55 4963
-0.01 0.15 -2.77 -0.48 11.75 -4.28 1.06 0.38 4971
-0.02 0.15 -3.00 -1.12 12.42 -4.28 1.08 0.21 4977
-0.01 0.14 -3.10 -1.95 12.96 -4.28 1.08 0.09 4984
-0.01 0.15 -3.30 -2.76 13.45 -4.28 1.06 -0.05 4992
-0.02 0.15 -3.20 -3.29 13.84 -4.28 1.00 -0.14 4999
-0.02 0.18 -2.87 -3.16 14.24 -4.28 0.90 -0.21 5006
-0.01 0.18 -2.69 -4.63 14.64 -4.28 0.95 -0.14 5014
-0.01 0.17 -1.80 -4.12 14.93 -4.28 0.88 -0.04 5021
-0.01 0.15 -1.66 -4.07 16.13 -4.28 0.88 0.12 5028
-0.02 0.17 -1.76 -5.01 15.61 -4.28 0.90 0.28 5035
-0.01 0.17 -0.71 -5.24 15.85 -4.28 0.90 0.47 5043
-0.00 0.16 -0.19 -6.30 15.86 -4.27 0.92 0.60 5050
-0.01 0.16 -0.07 -6.49 16.40 -4.18 0.92 0.68 5057
-0.00 0.16 0.56 -6.69 17.34 -4.06 0.94 0.75 5064
-0.01 0.15 0.87 -6.76 19.41 -3.96 0.98 0.76 5071
-0.02 0.17 1.54 -6.75 19.77 -4.00 1.10 0.78 5078
-0.01 0.17 1.54 -7.82 20.07 -4.03 1.28 0.77 5086
0.00 0.16 1.19 -8.68 19.82 -4.02 1.41 0.77 5093
-0.01 0.13 0.51 -9.76 19.68 -3.92 1.52 0.76 5100
-0.01 0.14 0.15 -11.01 19.33 -3.83 1.60 0.75 5107
-0.01 0.11 -0.29 -11.03 19.42 -3.70 1.65 0.74 5114
-0.02 0.15 -0.66 -11.19 20.55 -3.61 1.68 0.71 5122
-0.02 0.15 -1.31 -11.29 21.75 -3.65 1.70 0.67 5129
-0.01 0.17 -2.11 -11.56 21.66 -3.90 1.65 0.59 5136
-0.02 0.15 -2.62 -13.23 20.67 -4.15 1.54 0.48 5143
-0.02 0.16 -2.84 -15.19 18.81 -4.27 1.29 0.39 5150
-0.01 0.13 -2.34 -18.38 15.66 -4.27 1.04 0.25 5157
-0.01 0.14 -1.84 -20.86 11.86 -4.17 0.94 0.10 5165
-0.02 0.16 -1.94 -24.54 9.85 -3.75 1.19 -0.11 5171
-0.02 0.16 -2.39 -28.15 7.93 -3.30 1.46 -0.39 5178
-0.01 0.15 -4.07 -31.33 6.10 -2.79 1.64 -0.65 5185
-0.01 0.14 -6.38 -35.46 3.87 -2.39 1.69 -0.88 5192
-0.01 0.14 -9.41 -39.04 1.41 -1.89 1.60 -0.88 5199
-0.02 0.16 -12.86 -40.70 0.13 -1.16 1.12 -0.70 5208
-0.02 0.17 -13.75 -38.03 0.62 -0.36 0.30 -0.44 5215
-0.01 0.16 -10.97 -33.55 2.20 0.52 -0.81 -0.24 5222
-0.02 0.16 -6.33 -28.03 4.99 1.05 -1.49 -0.03 5228
-0.02 0.17 5.31 -47.50 35.32 2.21 -2.52 0.02 5236
-0.02 0.22 -4.52 -17.95 2.48 3.70 -1.62 -0.08 5242
-0.03 0.40 3.14 15.51 3.69 4.05 -1.36 -0.03 5251
-0.04 0.61 1.39 -3.72 18.47 3.72 -1.09 0.32 5258
-0.04 0.84 1.84 3.73 12.29 3.03 -0.89 0.60 5265
-0.06 0.92 -1.13 -0.90 12.40 3.24 -1.09 0.67 5272
-0.06 1.09 -2.28 -3.13 17.39 4.23 -0.44 0.75 5279
-0.07 1.14 1.12 -4.68 19.27 4.28 0.34 1.03 5286
-0.07 1.31 -6.31 -7.93 28.18 4.20 0.56 1.15 5294
-0.07 1.52 -6.71 -5.64 20.58 3.66 0.40 0.55 5301
-0.06 1.53 -5.10 -4.08 18.04 3.42 0.18 -0.13 5308
-0.05 1.60 -0.93 -3.17 16.54 2.95 0.28 -0.39 5315
-0.06 1.63 2.17 -2.13 14.09 2.59 0.47 -0.38 5322
-0.06 1.61 3.92 -2.89 16.04 2.34 0.39 -0.15 5329
-0.05 1.59 1.97 -3.06 17.86 0.96 -0.61 0.02 5337
-0.05 1.63 0.55 -2.46 12.25 0.21 -0.57 0.15 5344
-0.08 1.59 -0.90 -1.69 10.52 -0.06 -0.21 0.10 5351
-0.08 1.53 -0.42 -1.65 9.77 -0.11 -0.12 0.02 5357
-0.09 1.58 0.37 -1.27 9.82 -0.13 -0.09 0.04 5364
-0.06 1.55 0.05 -1.32 9.82 -0.13 -0.09 0.05 5371
-0.07 1.60 -0.29 -1.37 9.95 -0.13 -0.08 0.01 5379
-0.06 1.57 0.00 -1.37 9.92 -0.11 -0.05 -0.00 5386
-0.06 1.55 -0.10 -1.17 9.84 -0.09 -0.02 -0.02 5393
-0.06 1.55 -0.07 -1.13 9.83 -0.08 0.00 -0.02 5400
-0.05 1.51 0.00 -1.14 9.75 -0.07 0.02 -0.03 5407
-0.06 1.53 0.00 -1.03 9.80 -0.08 0.03 -0.03 5414
-0.06 1.51 -0.01 -1.04 9.86 -0.06 0.04 -0.03 5422
-0.04 1.52 -0.02 -1.03 9.83 -0.05 0.05 -0.03 5429
-0.05 1.53 0.04 -0.99 9.78 -0.02 0.05 -0.02 5436
-0.04 1.50 -0.02 -1.02 9.82 0.01 0.06 -0.02 5443
-0.06 1.49 -0.02 -0.96 9.82 0.04 0.06 -0.02 5450
-0.04 1.43 0.02 -0.95 9.82 0.06 0.06 -0.02 5457
-0.03 1.39 0.00 -0.98 9.83 0.09 0.06 -0.02 5465
-0.03 1.36 0.01 -1.02 9.80 0.10 0.04 -0.02 5472
-0.04 1.34 0.07 -1.04 9.79 0.11 0.04 -0.02 5479
-0.04 1.27 0.12 -1.07 9.74 0.12 0.03 -0.02 5486
-0.04 1.27 0.12 -1.06 9.69 0.12 0.02 -0.07 5493
-0.03 1.23 0.13 -1.03 9.71 0.11 0.01 -0.04 5500
-0.00 1.21 0.08 -1.12 9.72 0.11 -0.03 -0.05 5508
0.01 1.16 0.10 -1.10 9.68 0.11 -0.01 -0.05 5515
0.01 1.10 0.14 -1.16 9.70 0.10 -0.01 -0.06 5522
0.01 1.11 0.10 -1.14 9.68 0.09 -0.02 -0.06 5529
0.01 1.13 0.06 -1.14 9.64 0.09 -0.02 -0.07 5536
0.03 1.08 0.02 -1.18 9.64 0.07 -0.02 -0.07 5543
0.04 1.05 0.01 -1.13 9.69 0.06 -0.02 -0.07 5551
0.03 1.03 0.03 -1.20 9.71 0.06 -0.02 -0.08 5558
0.03 1.00 0.03 -1.17 9.68 0.05 -0.01 -0.07 5565
0.01 1.04 0.04 -1.21 9.69 0.04 -0.01 -0.07 5572
0.05 1.03 0.07 -1.21 9.72 0.04 -0.01 -0.08 5579
0.05 1.04 0.03 -1.21 9.61 0.03 -0.01 -0.08 5586
0.06 1.00 0.03 -1.20 9.73 0.04 -0.01 -0.08 5594
0.04 1.01 0.10 -1.22 9.69 0.04 -0.02 -0.08 5601
0.04 0.97 0.11 -1.20 9.69 0.04 -0.02 -0.09 5608
0.04 0.92 0.07 -1.20 9.70 0.04 -0.02 -0.09 5615
0.05 0.89 0.03 -1.83 9.70 0.05 -0.02 -0.10 5622
0.05 0.86 0.04 -1.23 9.75 0.06 -0.02 -0.10 5629
0.07 0.88 0.03 -1.23 9.70 0.07 -0.01 -0.10 5637
0.07 0.83 0.03 -1.21 9.73 0.08 -0.01 -0.11 5644
0.11 0.85 0.01 -1.21 9.76 0.08 -0.01 -0.11 5651
0.13 0.82 0.02 -1.15 9.79 0.10 -0.01 -0.11 5658
0.17 0.81 0.04 -1.25 9.84 0.11 -0.02 -0.11 5665
0.17 0.74 0.08 -1.29 9.81 0.14 -0.02 -0.11 5672
0.21 0.67 0.04 -1.15 9.83 0.17 -0.04 -0.12 5680
0.28 0.57 0.15 -1.25 10.04 0.21 -0.04 -0.13 5688
0.27 0.55 0.58 -1.37 9.97 0.25 -0.05 -0.14 5694
0.31 0.48 -0.02 -1.54 9.91 0.30 -0.07 -0.16 5701
0.39 0.50 0.10 -1.54 10.03 0.35 -0.08 -0.19 5709
0.48 0.42 0.19 -1.62 10.22 0.42 -0.09 -0.22 5716
0.54 0.34 0.33 -1.66 10.34 0.50 -0.11 -0.27 5724
0.52 0.32 0.39 -1.73 10.41 0.59 -0.15 -0.32 5731
0.62 0.26 0.51 -1.83 10.49 0.70 -0.23 -0.36 5738
0.65 0.25 0.53 -1.79 10.73 0.82 -0.30 -0.41 5745
0.74 0.21 0.59 -1.89 10.62 0.90 -0.35 -0.44 5752
0.79 0.16 0.69 -2.18 11.05 1.01 -0.34 -0.48 5760
0.80 0.16 -0.95 -1.78 12.83 1.21 -0.27 -0.45 5767
0.85 0.18 -1.12 -2.10 11.78 1.55 -0.39 -0.33 5774
0.88 0.19 -0.30 -2.22 12.68 1.76 -0.37 -0.27 5781
0.95 0.20 -0.70 -2.20 12.85 1.97 -0.35 -0.21 5788
0.99 0.26 -0.48 -2.43 13.32 2.23 -0.33 -0.16 5795
1.01 0.24 -0.44 -2.69 12.92 2.46 -0.30 -0.17 5803
1.02 0.23 -0.02 -2.51 13.34 2.74 -0.28 -0.18 5810
1.06 0.26 0.48 -2.17 12.75 3.01 -0.30 -0.22 5817
1.02 0.25 -0.12 -2.86 13.67 3.26 -0.26 -0.21 5824
1.01 0.25 -0.60 -3.21 15.66 3.57 -0.28 -0.22 5831
1.00 0.28 -0.43 -3.26 14.97 3.85 -0.23 -0.23 5838
0.96 0.30 0.91 -3.37 15.09 4.18 -0.27 -0.28 5846
0.85 0.36 1.28 -3.30 14.71 4.28 -0.46 -0.38 5853
0.70 0.31 1.28 -4.34 16.72 4.28 -0.59 -0.50 5860
0.59 0.26 1.27 31.24 17.84 4.28 -0.59 -0.50 5867
0.38 0.19 4.55 10.30 20.78 4.28 -0.73 -0.69 5874
0.31 0.14 -5.05 -4.88 21.16 4.28 -0.72 -0.73 5881
0.27 0.11 -1.32 -7.12 22.24 4.28 -0.65 -0.63 5889
0.16 0.10 -2.86 -8.94 24.52 4.28 -0.83 -0.66 5896
0.11 0.08 -4.96 -9.35 26.20 4.28 -1.11 -0.62 5903
0.08 0.10 -4.26 -11.00 29.56 4.28 -1.34 -0.37 5910
0.06 0.10 -2.09 -10.17 28.32 4.28 -1.57 -0.37 5917
0.05 0.08 -0.38 -6.17 30.80 4.28 -2.06 -0.28 5923
0.00 0.11 3.25 -3.26 29.52 4.28 -2.15 -0.16 5932
0.01 0.12 5.10 1.95 26.84 4.28 -1.94 -0.16 5939
-0.01 0.13 6.44 8.11 24.69 4.28 -1.38 -0.20 5945
-0.01 0.15 6.70 16.99 18.65 4.28 -1.01 -0.37 5953
-0.01 0.14 7.83 23.14 9.83 4.28 -0.43 -0.64 5959
-0.01 0.14 5.86 17.16 29.89 2.97 0.65 -0.85 5967
-0.01 0.14 2.47 15.16 27.44 0.14 0.88 -0.84 5975
-0.01 0.14 -1.52 14.60 20.07 -1.39 0.45 -0.62 5982
-0.01 0.13 -2.35 12.27 13.54 -2.02 -0.20 -0.50 5989
-0.01 0.14 -0.73 9.54 10.27 -2.30 -1.02 -0.49 5995
-0.01 0.14 1.21 7.50 8.53 -2.37 -1.36 -0.44 6002
-0.01 0.14 3.07 6.97 7.37 -2.45 -1.27 -0.37 6009
-0.02 0.15 3.98 6.52 6.91 -2.60 -0.91 -0.26 6017
-0.01 0.14 3.57 6.55 7.03 -2.75 -0.43 -0.17 6024
-0.01 0.14 2.13 6.83 7.45 -2.99 -0.08 -0.09 6031
-0.01 0.14 0.55 7.06 8.08 -3.25 0.20 -0.02 6038
-0.02 0.16 -0.58 7.15 9.01 -3.52 0.32 0.03 6045
-0.01 0.16 -1.57 6.80 9.66 -3.87 0.35 0.04 6052
-0.02 0.16 -2.22 6.23 10.09 -4.13 0.32 0.00 6060
-0.01 0.15 -2.55 5.51 10.35 -4.26 0.29 -0.06 6068
-0.02 0.16 -2.78 4.33 10.69 -4.28 0.34 -0.17 6074
-0.02 0.17 -3.00 2.97 10.86 -4.28 0.46 -0.31 6081
-0.01 0.18 -3.32 1.87 11.11 -4.28 0.65 -0.44 6089
-0.01 0.17 -3.66 0.68 11.63 -4.28 0.83 -0.57 6096
-0.01 0.16 -3.97 -0.01 12.49 -4.28 0.95 -0.66 6104
-0.02 0.15 -4.29 -0.67 13.26 -4.28 1.02 -0.75 6110
-0.02 0.16 -4.48 -1.34 14.13 -4.28 1.03 -0.81 6117
-0.01 0.17 -4.52 -2.10 14.94 -4.28 0.99 -0.84 6125
-0.01 0.17 -4.33 -3.00 15.58 -4.28 0.90 -0.86 6132
-0.01 0.17 -3.90 -3.57 16.08 -4.28 0.79 -0.86 6139
-0.01 0.17 -2.97 -4.10 16.50 -4.28 0.67 -0.83 6147
-0.00 0.15 -1.90 -4.75 17.05 -4.28 0.65 -0.76 6154
-0.00 0.15 -1.11 -5.12 17.60 -4.28 0.70 -0.67 6161
-0.00 0.16 -0.46 -5.65 18.16 -4.28 0.79 -0.53 6168
0.00 0.15 -0.04 -6.19 18.88 -4.28 0.87 -0.38 6174
-0.01 0.16 0.36 -6.80 19.59 -4.28 0.96 -0.23 6182
-0.01 0.15 0.57 -7.30 20.58 -4.28 1.10 -0.06 6189
-0.01 0.13 0.62 -7.69 21.56 -4.28 1.18 0.08 6196
-0.01 0.15 0.59 -8.31 22.87 -4.28 1.32 0.23 6203
-0.01 0.17 0.41 -8.97 23.66 -4.28 1.42 0.35 6211
-0.01 0.15 0.29 -9.65 24.06 -4.28 1.54 0.44 6218
-0.02 0.15 -0.06 -10.73 24.27 -4.28 1.66 0.52 6225
-0.01 0.14 -0.33 -11.76 24.37 -4.28 1.76 0.58 6233
-0.01 0.13 -0.60 -13.11 24.25 -4.28 1.88 0.63 6240
-0.01 0.13 -0.92 -14.65 24.16 -4.27 1.95 0.66 6247
-0.01 0.14 -1.37 -16.18 24.15 -4.28 1.95 0.65 6254
-0.01 0.14 -1.61 -18.57 23.36 -4.28 1.83 0.62 6261
-0.01 0.14 -1.32 -20.87 20.64 -4.28 1.64 0.60 6268
-0.01 0.14 -0.38 -24.05 17.18 -4.28 1.43 0.59 6276
-0.02 0.15 0.25 -28.08 11.60 -4.22 1.39 0.52 6283
-0.01 0.15 -0.33 -33.07 6.48 -3.72 1.81 0.31 6290
-0.01 0.17 -2.00 -41.43 2.74 -3.16 2.60 -0.06 6297
-0.02 0.17 -7.30 -49.50 -0.41 -2.63 3.23 -0.38 6303
-0.01 0.15 -14.75 -51.73 -1.68 -1.74 3.38 -0.49 6311
-0.01 0.12 -19.08 -46.60 -1.27 -0.64 2.28 -0.51 6319
-0.01 0.13 -18.21 -38.57 0.58 0.66 0.58 -0.61 6326
-0.01 0.14 -12.89 -29.39 3.50 1.60 -1.29 -0.78 6333
-0.01 0.15 -6.59 -22.87 8.12 2.01 -2.15 -0.92 6340
-0.01 0.15 0.15 -19.29 10.57 2.07 -2.26 -1.07 6347
-0.01 0.14 5.13 -12.89 9.72 1.92 -1.83 -1.28 6354
-0.02 0.21 1.22 6.14 16.20 3.93 -2.36 -1.25 6361
-0.04 0.43 8.21 9.78 3.80 3.22 -1.54 -0.80 6368
-0.05 0.67 6.48 1.03 10.27 3.02 -1.47 -0.18 6376
-0.05 0.79 5.65 2.69 7.79 2.88 -1.06 0.44 6382
-0.05 0.91 2.68 -0.85 8.00 3.35 -0.89 0.96 6389
-0.06 1.05 -2.12 -3.21 17.17 4.15 -0.50 1.14 6397
-0.07 1.14 0.37 -4.15 19.93 4.28 0.29 1.31 6405
-0.07 1.33 -7.19 -6.61 21.46 4.23 0.31 1.34 6412
-0.06 1.42 -9.74 -7.19 21.36 4.02 0.19 0.76 6419
-0.04 1.53 -6.17 -4.95 18.54 3.77 0.23 0.01 6426
-0.05 1.60 -2.31 -3.97 18.92 3.27 0.21 -0.45 6433
-0.07 1.68 2.30 -3.37 17.65 2.69 0.29 -0.48 6440
-0.08 1.68 4.15 -2.19 14.62 2.34 0.33 -0.16 6448
-0.06 1.71 2.84 -2.72 16.63 1.99 0.22 0.16 6455
-0.06 1.72 -1.12 -2.98 15.56 0.79 -0.38 0.23 6462
-0.06 1.68 -0.99 -1.63 10.81 0.01 -0.24 0.10 6469
-0.09 1.63 -0.99 -2.08 10.12 -0.12 -0.15 -0.06 6476
-0.09 1.69 0.46 -1.02 9.92 -0.11 -0.10 -0.03 6482
-0.09 1.67 0.32 -1.59 10.12 -0.11 -0.13 0.01 6491
-0.05 1.62 -0.41 -1.47 9.86 -0.08 -0.10 -0.02 6497
-0.06 1.68 -0.22 -1.46 9.83 -0.08 -0.06 -0.03 6504
-0.04 1.66 0.04 -1.32 9.97 -0.08 -0.03 -0.03 6511
-0.06 1.69 -0.15 -1.30 9.84 -0.05 -0.02 -0.05 6518
-0.05 1.63 -0.18 -1.21 9.78 -0.04 0.00 -0.05 6525
-0.06 1.63 -0.09 -1.08 9.77 -0.03 0.02 -0.05 6533
-0.05 1.64 -0.17 -1.12 9.80 -0.03 0.04 -0.05 6540
-0.04 1.59 -0.14 -1.09 9.80 -0.03 0.04 -0.05 6547
-0.05 1.56 -0.03 -1.08 9.87 -0.01 0.05 -0.04 6554
-0.06 1.53 -0.03 -1.01 9.93 0.02 0.04 -0.04 6561
-0.05 1.54 -0.03 -1.03 9.87 0.06 0.03 -0.04 6568
-0.05 1.54 -0.01 -1.04 9.75 0.08 0.02 -0.04 6576
-0.04 1.49 0.00 -1.11 9.75 0.10 0.02 -0.04 6583
-0.00 1.44 -0.02 -1.15 9.74 0.11 0.02 -0.05 6590
0.01 1.39 -0.00 -1.14 9.79 0.11 0.01 -0.05 6597
0.00 1.41 0.03 -1.23 9.67 0.10 0.01 -0.05 6604
0.01 1.38 0.00 -1.15 9.74 0.11 0.00 -0.06 6611
0.01 1.32 -0.01 -1.16 9.78 0.10 -0.00 -0.06 6619
0.04 1.32 0.03 -1.18 9.77 0.10 -0.00 -0.07 6626
0.06 1.27 0.02 -1.25 9.64 0.10 -0.01 -0.08 6633
0.05 1.18 -0.01 -1.22 9.67 0.10 -0.01 -0.08 6640
0.07 1.13 0.00 -1.22 9.66 0.09 -0.01 -0.08 6647
0.07 1.13 -0.01 -1.20 9.71 0.08 -0.01 -0.08 6654
0.07 1.13 -0.02 -1.21 9.70 0.08 -0.01 -0.08 6662
0.09 1.09 -0.06 -1.24 9.69 0.08 -0.00 -0.09 6669
0.11 1.04 -0.04 -1.29 9.74 0.07 -0.00 -0.08 6676
0.10 1.04 -0.01 -1.28 9.75 0.07 -0.00 -0.08 6683
0.14 1.02 -0.02 -1.29 9.69 0.08 -0.00 -0.09 6690
0.16 0.95 0.02 -1.31 9.70 0.09 -0.01 -0.09 6697
0.17 0.90 -0.01 -1.32 9.75 0.09 -0.02 -0.09 6705
0.20 0.91 -0.05 -1.33 9.70 0.09 -0.02 -0.10 6712
0.20 0.92 0.00 -1.32 9.67 0.09 -0.02 -0.10 6719
0.22 0.91 0.01 -1.29 9.69 0.09 -0.03 -0.11 6726
0.27 0.82 -0.00 -1.33 9.78 0.09 -0.03 -0.11 6733
0.28 0.77 -0.01 -1.35 9.81 0.10 -0.03 -0.11 6740
0.34 0.73 0.04 -1.24 9.71 0.13 -0.04 -0.12 6748
0.34 0.76 -0.06 -1.40 9.81 0.14 -0.04 -0.12 6755
0.36 0.68 0.57 -1.67 9.83 0.17 -0.06 -0.13 6762
0.41 0.64 0.02 -1.25 9.93 0.19 -0.05 -0.13 6769
0.46 0.57 -0.04 -1.39 10.02 0.22 -0.06 -0.15 6777
0.55 0.56 0.02 -1.72 9.98 0.26 -0.07 -0.16 6784
0.55 0.51 0.07 -1.53 9.98 0.30 -0.07 -0.18 6791
0.59 0.42 0.04 -1.67 10.09 0.35 -0.07 -0.20 6798
0.61 0.39 -0.05 -1.69 10.13 0.41 -0.07 -0.22 6806
0.65 0.34 0.25 -1.71 10.21 0.52 -0.11 -0.26 6813
0.67 0.27 0.08 -1.70 10.61 0.58 -0.16 -0.29 6820
0.78 0.28 -0.03 -1.76 10.53 0.69 -0.19 -0.31 6828
0.80 0.26 0.12 -1.91 10.88 0.80 -0.25 -0.32 6835
0.82 0.23 0.04 -1.96 11.47 0.92 -0.30 -0.34 6842
0.86 0.16 0.29 -2.30 11.17 1.08 -0.33 -0.33 6849
0.87 0.20 0.08 -2.11 11.85 1.27 -0.29 -0.34 6856
0.95 0.25 -0.36 -2.33 11.21 1.44 -0.31 -0.33 6863
0.97 0.25 -0.49 -2.40 11.50 1.56 -0.33 -0.31 6871
0.98 0.23 -0.64 -2.37 11.92 1.73 -0.35 -0.27 6878
1.03 0.23 -0.84 -2.16 12.72 1.93 -0.34 -0.22 6885
1.00 0.22 -0.64 -2.79 12.29 2.12 -0.33 -0.18 6892
1.02 0.26 -0.57 -2.58 12.85 2.34 -0.32 -0.16 6899
1.00 0.24 -0.52 -2.94 12.82 2.58 -0.28 -0.16 6906
1.01 0.23 -0.22 -3.76 16.36 2.80 -0.22 -0.15 6914
1.01 0.27 -0.37 -3.06 13.45 3.10 -0.13 -0.17 6921
0.97 0.27 -1.01 -3.42 13.21 3.34 -0.07 -0.17 6928
0.91 0.33 0.10 -3.01 13.06 3.67 0.08 -0.17 6935
0.85 0.33 -0.16 -3.18 13.66 4.06 0.16 -0.18 6942
0.76 0.33 0.41 -3.57 14.63 4.25 0.23 -0.21 6949
0.67 0.30 -39.37 -35.09 24.13 4.27 0.10 -0.17 6957
0.58 0.15 1.51 -7.09 15.01 4.28 -0.27 -0.45 6964
0.45 0.11 0.42 -5.42 15.10 4.28 -0.36 -0.44 6971
0.42 0.09 -0.30 -6.85 20.63 4.28 -0.51 -0.47 6978
0.24 0.09 0.49 -7.93 22.96 4.28 -0.55 -0.52 6985
0.14 0.10 -2.58 -8.80 25.08 4.28 -0.67 -0.65 6992
0.12 0.11 -4.81 -9.49 27.64 4.28 -1.29 -0.61 7000
0.09 0.11 -2.38 -10.85 29.02 4.28 -1.55 -0.40 7007
0.05 0.13 -0.00 -9.99 28.10 4.28 -1.59 -0.46 7014
0.02 0.13 0.26 -8.35 30.16 4.28 -1.90 -0.41 7021
0.02 0.09 4.19 -4.53 29.31 4.28 -2.03 -0.34 7028
-0.01 0.09 5.87 1.89 28.51 4.28 -1.69 -0.37 7034
0.01 0.13 6.80 6.48 25.61 4.28 -1.26 -0.51 7043
-0.01 0.14 4.09 11.27 21.29 4.28 -0.89 -0.80 7050
-0.01 0.13 5.37 16.37 9.18 4.28 -0.64 -1.19 7056
-0.01 0.14 5.92 14.94 24.82 3.41 0.33 -1.39 7064
-0.01 0.12 3.89 13.45 27.98 0.75 0.97 -1.64 7071
-0.01 0.14 0.51 12.73 20.75 -0.62 1.08 -1.55 7078
-0.01 0.15 -1.23 10.72 15.04 -1.47 0.68 -1.40 7086
-0.01 0.14 -1.00 8.18 10.77 -1.77 -0.02 -1.27 7092
-0.01 0.14 -0.19 6.59 8.64 -1.87 -0.47 -1.13 7099
-0.01 0.13 0.86 6.12 7.37 -1.91 -0.78 -0.91 7106
-0.01 0.14 1.60 5.99 7.08 -2.00 -0.88 -0.65 7113
-0.02 0.15 2.01 6.41 7.10 -2.18 -0.82 -0.43 7120
-0.02 0.17 1.95 7.12 7.14 -2.43 -0.63 -0.19 7128
-0.01 0.15 1.62 7.48 7.65 -2.77 -0.43 -0.02 7135
-0.01 0.16 1.07 7.63 7.91 -3.14 -0.21 0.14 7142
-0.01 0.15 0.55 7.62 8.12 -3.44 -0.04 0.25 7149
-0.02 0.16 0.10 7.57 8.58 -3.78 0.12 0.31 7156
-0.02 0.17 -0.08 7.24 9.29 -4.09 0.30 0.33 7163
-0.00 0.18 -0.56 6.49 9.79 -4.27 0.46 0.32 7171
-0.01 0.17 -1.40 5.12 10.03 -4.28 0.63 0.29 7179
-0.02 0.17 -1.90 3.12 10.22 -4.28 0.73 0.22 7185
-0.02 0.15 -2.40 1.87 10.30 -4.28 0.79 0.13 7192
-0.02 0.16 -2.84 1.05 10.75 -4.28 0.82 -0.01 7199
-0.02 0.16 -3.11 0.48 11.19 -4.28 0.86 -0.20 7206
-0.01 0.17 -3.27 -0.12 12.08 -4.28 0.89 -0.37 7215
-0.01 0.17 -3.55 -0.90 13.06 -4.28 0.94 -0.62 7222
-0.01 0.17 -3.85 -1.43 13.89 -4.28 0.98 -0.83 7229
-0.02 0.18 -3.78 -2.09 14.76 -4.28 1.00 -1.07 7235
-0.02 0.17 -3.56 -2.52 15.63 -4.28 1.03 -1.26 7242
-0.01 0.18 -3.22 -2.72 16.38 -4.28 1.06 -1.33 7250
0.00 0.18 -2.72 -2.94 17.41 -4.28 1.12 -1.32 7258
-0.00 0.18 -2.20 -3.33 18.23 -4.28 1.20 -1.25 7265
-0.01 0.18 -1.71 -4.12 18.59 -4.28 1.36 -1.08 7272
-0.02 0.18 -1.39 -5.29 19.09 -4.28 1.53 -0.84 7278
-0.01 0.18 -0.90 -6.71 19.19 -4.28 1.73 -0.61 7286
-0.00 0.19 -0.56 -8.03 19.64 -4.28 1.91 -0.30 7293
0.00 0.18 -0.74 -8.70 22.35 -4.23 2.05 -0.01 7300
-0.01 0.17 -0.78 -8.62 24.95 -4.15 2.25 0.19 7308
-0.01 0.17 -0.11 -9.45 26.69 -4.20 2.45 0.37 7315
-0.01 0.14 -0.27 -10.72 27.52 -4.27 2.55 0.51 7322
-0.01 0.15 -0.83 -13.20 27.23 -4.28 2.55 0.61 7329
-0.01 0.14 -1.19 -15.07 27.37 -4.28 2.42 0.65 7336
-0.01 0.13 -1.54 -16.37 27.19 -4.28 2.17 0.68 7344
-0.01 0.11 -1.95 -18.47 26.31 -4.28 1.91 0.73 7351
-0.01 0.13 -2.31 -20.74 24.40 -4.28 1.61 0.81 7358
-0.01 0.13 -2.18 -24.12 20.89 -4.28 1.17 0.95 7365
-0.01 0.13 -0.63 -27.72 17.32 -4.28 0.83 1.13 7372
-0.01 0.13 1.42 -30.46 13.60 -4.28 0.61 1.27 7379
-0.01 0.13 1.95 -35.03 8.97 -4.10 0.79 1.29 7386
-0.01 0.14 0.09 -42.60 4.03 -3.56 1.34 1.10 7393
-0.01 0.12 -5.96 -52.14 -1.83 -2.95 2.03 0.79 7400
-0.01 0.13 -13.31 -56.75 -4.68 -2.05 2.32 0.59 7408
-0.02 0.15 -19.85 -52.63 -3.53 -0.56 1.59 0.46 7415
-0.01 0.13 -19.63 -41.72 -0.56 0.68 -0.10 0.29 7422
-0.01 0.11 -14.25 -31.91 4.57 1.63 -1.46 0.18 7430
-0.01 0.13 -7.06 -21.61 7.79 1.97 -2.18 0.12 7437
-0.02 0.18 -5.30 -5.68 20.08 3.99 -1.77 -0.54 7443
-0.03 0.35 2.00 11.64 4.51 3.69 -0.62 -0.35 7450
-0.04 0.59 2.15 0.71 10.83 3.21 -1.03 -0.31 7458
-0.04 0.81 1.64 1.46 12.56 2.90 -1.19 -0.12 7465
-0.05 0.89 5.72 0.44 7.57 2.96 -1.05 0.21 7472
-0.06 0.99 2.09 -1.84 13.06 3.49 -0.68 0.66 7480
-0.06 1.06 1.03 -3.01 16.26 4.12 0.02 0.98 7486
-0.07 1.22 0.34 -4.07 21.54 4.11 0.58 1.31 7494
-0.07 1.35 -4.84 -6.23 22.92 3.55 0.41 1.25 7501
-0.07 1.44 -6.06 -4.89 18.59 3.32 0.29 0.81 7508
-0.08 1.56 -5.44 -3.52 16.19 3.23 0.39 0.34 7516
-0.07 1.61 -3.31 -3.07 15.39 2.86 0.45 0.01 7523
-0.08 1.66 -0.44 -2.34 14.06 2.54 0.46 -0.23 7530
-0.07 1.63 2.47 -1.80 13.01 2.35 0.46 -0.16 7537
-0.07 1.66 3.10 -1.79 11.84 2.19 0.52 0.10 7544
-0.05 1.66 0.89 -3.44 18.75 1.65 -0.10 0.32 7552
-0.06 1.70 -0.74 -2.33 12.69 0.38 -0.43 0.33 7559
-0.06 1.75 -1.08 -2.79 12.00 -0.07 -0.21 0.17 7566
-0.09 1.70 -0.50 -1.62 10.08 -0.14 -0.08 0.06 7573
-0.09 1.64 0.42 -1.27 9.84 -0.13 -0.05 0.06 7579
-0.06 1.72 -0.08 -1.33 10.03 -0.11 -0.05 0.05 7587
-0.08 1.68 -0.18 -1.39 9.84 -0.11 -0.04 0.03 7593
-0.05 1.66 0.02 -1.39 10.03 -0.10 -0.01 0.01 7601
-0.05 1.65 -0.06 -1.26 9.98 -0.08 -0.00 -0.00 7608
-0.08 1.62 -0.06 -1.14 10.40 -0.07 0.01 -0.01 7615
-0.06 1.59 -0.01 -1.05 9.78 -0.07 0.02 -0.02 7622
-0.05 1.64 0.00 -0.98 9.81 -0.06 0.03 -0.02 7629
-0.05 1.59 -0.05 -1.00 9.82 -0.04 0.04 -0.02 7636
-0.05 1.58 -0.06 -1.03 9.84 -0.02 0.04 -0.02 7644
-0.04 1.56 -0.05 -0.88 9.78 0.01 0.04 -0.02 7651
-0.04 1.51 -0.05 -0.91 9.86 0.04 0.04 -0.02 7658
-0.03 1.48 -0.01 -0.90 9.86 0.06 0.04 -0.02 7665
-0.02 1.43 -0.01 -0.96 9.81 0.09 0.04 -0.02 7672
-0.02 1.43 0.01 -0.97 9.79 0.10 0.04 -0.02 7680
-0.03 1.40 0.01 -0.96 9.75 0.12 0.04 -0.02 7687
-0.03 1.39 0.05 -1.00 9.71 0.13 0.03 -0.02 7694
-0.02 1.32 0.13 -1.02 9.70 0.12 0.02 -0.03 7701
-0.01 1.30 0.09 -1.01 9.74 0.13 0.00 -0.03 7708
0.01 1.23 0.07 -1.03 9.72 0.13 -0.01 -0.04 7715
0.02 1.17 0.10 -1.05 9.72 0.14 -0.02 -0.04 7723
0.00 1.18 0.12 -1.09 9.71 0.14 -0.03 -0.05 7730
0.02 1.10 0.08 -1.07 9.68 0.13 -0.04 -0.06 7737
0.03 1.05 0.06 -1.09 9.70 0.13 -0.05 -0.06 7744
0.04 1.02 0.04 -1.17 9.76 0.12 -0.06 -0.07 7751
0.06 1.00 0.04 -1.21 9.69 0.11 -0.06 -0.07 7758
0.06 0.97 0.02 -1.17 9.68 0.10 -0.06 -0.07 7766
0.06 0.91 0.02 -1.19 9.67 0.10 -0.06 -0.08 7773
0.06 0.94 -0.03 -1.26 9.72 0.10 -0.07 -0.08 7780
0.06 0.92 0.05 -1.22 9.80 0.10 -0.06 -0.08 7787
0.08 0.88 0.02 -1.25 9.77 0.10 -0.07 -0.08 7794
0.10 0.89 0.03 -1.23 9.73 0.10 -0.07 -0.09 7801
0.08 0.86 0.03 -1.28 9.76 0.10 -0.07 -0.09 7809
0.10 0.79 0.03 -1.31 9.76 0.10 -0.08 -0.09 7816
0.12 0.79 0.06 -1.19 9.72 0.11 -0.08 -0.09 7823
0.16 0.74 0.00 -1.24 9.77 0.11 -0.08 -0.10 7830
0.19 0.72 -0.01 -1.42 9.81 0.13 -0.09 -0.11 7837
0.22 0.65 0.03 -1.28 9.83 0.14 -0.08 -0.11 7844
0.23 0.63 -0.04 -1.35 9.78 0.16 -0.08 -0.12 7852
0.23 0.59 -0.22 -1.35 9.66 0.17 -0.08 -0.12 7859
0.29 0.56 -0.05 -1.49 9.83 0.18 -0.08 -0.13 7866
0.30 0.55 -0.09 -1.48 9.60 0.19 -0.06 -0.13 7873
0.32 0.50 -0.06 -1.47 9.92 0.20 -0.04 -0.13 7880
0.34 0.47 -0.04 -1.49 9.82 0.22 -0.03 -0.13 7887
0.33 0.43 -0.04 -1.55 9.86 0.25 -0.02 -0.14 7895
0.36 0.44 0.12 -1.48 9.92 0.27 -0.02 -0.16 7902
0.39 0.36 0.16 -1.59 10.06 0.31 -0.02 -0.17 7910
0.45 0.31 -0.08 -1.49 10.10 0.36 -0.02 -0.18 7917
0.48 0.31 -0.59 -1.60 10.09 0.40 -0.02 -0.21 7923
0.53 0.27 0.10 -1.70 10.26 0.48 -0.05 -0.22 7931
0.61 0.22 0.11 -1.67 10.52 0.55 -0.07 -0.24 7939
0.62 0.20 0.03 -1.71 10.69 0.65 -0.09 -0.25 7946
0.66 0.19 -0.02 -1.98 10.54 0.75 -0.11 -0.27 7953
0.65 0.18 0.38 -2.23 10.72 0.82 -0.09 -0.30 7960
0.65 0.20 -0.11 -2.02 11.12 0.98 -0.06 -0.30 7967
0.74 0.14 -0.55 -1.89 10.71 1.16 -0.14 -0.24 7974
0.78 0.16 -0.27 -1.95 11.12 1.22 -0.13 -0.17 7982
0.72 0.21 -0.56 -2.29 10.95 1.37 -0.16 -0.15 7989
0.76 0.23 -0.47 -2.22 11.34 1.50 -0.15 -0.11 7996
0.79 0.22 -0.29 -2.57 12.16 1.67 -0.11 -0.10 8003
0.82 0.22 0.02 -2.67 12.09 1.87 -0.10 -0.09 8010
0.87 0.20 0.03 -1.94 12.60 2.06 -0.10 -0.13 8016
0.84 0.22 0.28 -2.80 12.33 2.28 -0.09 -0.16 8025
0.87 0.20 -0.02 -2.89 12.65 2.45 -0.09 -0.19 8032
0.87 0.21 0.06 -2.81 12.17 2.66 -0.12 -0.20 8039
0.83 0.24 -0.01 -3.61 12.13 2.87 -0.09 -0.20 8046
0.80 0.24 -0.04 -3.59 13.46 3.11 -0.06 -0.22 8053
0.76 0.24 0.13 -3.65 13.03 3.38 -0.05 -0.26 8060
0.71 0.31 -0.21 -3.73 13.04 3.63 -0.07 -0.29 8068
0.68 0.30 0.16 -3.78 13.96 3.95 -0.05 -0.32 8075
0.59 0.30 0.12 -3.69 13.96 4.21 -0.17 -0.35 8082
0.51 0.24 2.27 -4.99 16.63 4.28 -0.24 -0.44 8089
0.38 0.10 4.51 -15.51 14.41 4.28 -0.28 -0.38 8096
0.27 0.11 0.88 -5.74 17.81 4.28 -0.53 -0.40 8103
0.24 0.09 2.57 -6.79 18.19 4.28 -0.44 -0.48 8111
0.20 0.08 2.19 -8.32 19.79 4.28 -0.25 -0.62 8118
0.12 0.11 -0.66 -8.99 22.37 4.28 -0.50 -0.78 8125
0.10 0.10 -1.32 -9.73 24.12 4.28 -0.84 -0.80 8132
0.07 0.10 0.29 -9.48 23.15 4.28 -1.08 -0.72 8139
0.05 0.11 0.73 -8.81 23.03 4.28 -0.79 -0.72 8146
0.01 0.12 1.71 -8.81 26.26 4.28 -0.90 -0.74 8154
0.00 0.10 3.62 -6.39 25.99 4.28 -1.06 -0.81 8161
0.02 0.10 4.54 -3.45 24.21 4.28 -1.09 -0.89 8168
-0.01 0.10 6.13 0.60 22.41 4.28 -0.88 -1.02 8175
-0.01 0.12 6.22 4.41 22.15 4.28 -0.67 -1.24 8181
-0.01 0.14 6.03 9.32 20.02 4.28 -0.44 -1.48 8188
-0.01 0.14 6.91 15.24 10.51 4.28 -0.34 -1.86 8197
-0.01 0.15 6.41 15.92 24.43 3.57 0.41 -1.99 8204
-0.01 0.15 5.22 14.94 27.81 0.71 1.18 -2.15 8211
-0.02 0.16 1.92 14.45 20.90 -0.94 1.36 -1.86 8218
-0.02 0.16 -1.16 11.90 15.65 -2.00 1.00 -1.53 8225
-0.01 0.15 -1.31 8.87 11.40 -2.39 0.28 -1.22 8231
-0.01 0.15 -0.89 7.26 9.63 -2.55 -0.20 -0.93 8239
-0.02 0.15 -0.06 6.40 8.72 -2.69 -0.57 -0.67 8246
-0.01 0.16 0.60 6.21 8.47 -2.84 -0.68 -0.36 8253
-0.02 0.15 0.97 6.15 8.67 -3.09 -0.61 -0.10 8260
-0.02 0.16 0.91 6.39 8.84 -3.38 -0.42 0.18 8267
-0.01 0.14 0.45 6.20 9.05 -3.67 -0.19 0.41 8274
-0.02 0.16 -0.29 5.73 9.17 -3.98 0.03 0.53 8282
-0.02 0.17 -0.97 5.00 9.15 -4.16 0.18 0.58 8289
-0.01 0.15 -1.64 4.36 9.33 -4.24 0.29 0.55 8296
-0.02 0.16 -2.42 3.59 9.52 -4.27 0.36 0.46 8303
-0.02 0.15 -3.03 3.07 9.82 -4.28 0.43 0.31 8310
-0.02 0.16 -3.41 2.54 10.11 -4.28 0.51 0.16 8317
-0.02 0.15 -3.80 1.71 10.94 -4.28 0.63 -0.01 8325
-0.02 0.17 -4.16 1.02 12.25 -4.28 0.70 -0.14 8332
-0.01 0.17 -4.52 0.21 12.29 -4.28 0.76 -0.29 8340
-0.02 0.16 -4.62 -0.55 12.79 -4.28 0.78 -0.44 8346
-0.02 0.16 -4.40 -1.09 13.35 -4.28 0.80 -0.55 8353
-0.02 0.16 -3.99 -1.78 13.67 -4.28 0.85 -0.65 8360
-0.01 0.16 -3.77 -2.18 14.23 -4.28 0.89 -0.68 8369
-0.01 0.18 -3.44 -2.67 14.40 -4.28 0.93 -0.65 8376
-0.00 0.18 -3.10 -3.10 14.56 -4.28 0.93 -0.55 8383
-0.01 0.17 -2.56 -3.52 14.73 -4.28 0.96 -0.41 8390
-0.01 0.17 -1.87 -4.27 15.11 -4.28 1.03 -0.19 8397
-0.00 0.17 -1.20 -5.13 15.42 -4.28 1.13 0.08 8404
-0.01 0.17 0.08 -6.29 15.87 -4.27 1.30 0.33 8412
0.00 0.19 0.64 -6.87 18.14 -4.10 1.43 0.64 8419
0.00 0.17 0.26 -6.51 20.96 -3.94 1.49 0.87 8426
-0.01 0.18 0.49 -6.18 23.37 -4.09 1.54 1.14 8433
-0.01 0.18 1.19 -7.21 23.71 -4.23 1.55 1.38 8440
-0.02 0.19 1.83 -9.20 23.23 -4.28 1.51 1.56 8446
-0.02 0.18 2.49 -11.38 23.02 -4.28 1.53 1.66 8455
-0.01 0.17 2.61 -12.53 23.50 -4.27 1.54 1.68 8462
-0.02 0.17 2.02 -13.22 23.81 -4.28 1.56 1.65 8469
-0.02 0.17 0.80 -13.75 23.59 -4.28 1.50 1.57 8476
-0.02 0.16 -1.26 -14.49 22.62 -4.28 1.31 1.46 8483
-0.02 0.16 -3.23 -15.74 20.93 -4.28 1.02 1.30 8491
-0.02 0.18 -4.30 -17.26 19.53 -4.28 0.80 1.12 8498
-0.02 0.16 -4.56 -19.16 17.77 -4.28 0.56 0.90 8505
-0.02 0.17 -4.00 -21.36 15.20 -4.28 0.30 0.73 8512
-0.02 0.17 -2.38 -24.11 12.91 -4.26 0.12 0.59 8519
-0.02 0.15 -0.32 -28.00 9.89 -4.04 0.01 0.43 8525
-0.02 0.17 1.37 -32.32 6.57 -3.56 0.06 0.19 8532
-0.02 0.18 2.02 -35.97 3.45 -2.90 0.34 -0.12 8540
-0.01 0.17 0.00 -39.04 0.83 -2.23 0.84 -0.44 8547
-0.02 0.18 -4.19 -40.13 0.17 -1.39 1.23 -0.58 8554
-0.02 0.16 -9.99 -39.00 0.72 -0.60 1.23 -0.56 8561
-0.02 0.18 -13.35 -34.34 1.67 0.05 0.63 -0.39 8569
-0.01 0.18 -12.56 -30.34 3.45 0.64 -0.48 -0.21 8577
-0.02 0.22 -7.11 -46.50 35.82 2.57 -1.38 -0.43 8584
-0.02 0.30 -1.65 -13.19 2.10 3.60 -0.08 -0.81 8591
-0.04 0.52 1.42 4.94 0.48 3.99 -0.05 -0.96 8597
-0.04 0.69 -0.83 -1.29 18.44 3.55 -0.62 -1.05 8605
-0.07 0.94 5.90 1.64 11.07 2.86 -0.88 -1.01 8612
-0.06 1.07 5.75 -1.28 11.56 3.43 -0.87 -0.65 8620
-0.05 1.18 5.55 -3.48 17.63 4.24 -0.14 -0.06 8627
-0.06 1.32 6.97 -4.24 22.80 4.27 0.72 0.68 8634
-0.07 1.41 -1.39 -6.53 26.07 3.78 0.67 1.13 8641
-0.08 1.55 -5.42 -3.94 18.63 3.43 0.65 0.86 8648
-0.09 1.64 -7.09 -4.46 18.27 3.21 0.65 0.36 8655
-0.08 1.67 -4.13 -3.14 16.06 2.82 0.55 -0.20 8663
-0.08 1.69 0.65 -1.90 13.97 2.48 0.43 -0.42 8670
-0.09 1.70 3.66 -1.30 12.16 2.35 0.47 -0.21 8677
-0.07 1.72 3.34 -1.32 11.00 2.27 0.57 0.12 8684
-0.07 1.70 1.09 -2.19 14.95 2.05 0.37 0.37 8691
-0.05 1.68 -0.41 -2.49 15.23 1.12 -0.39 0.28 8698
-0.07 1.68 0.09 -2.29 12.55 0.26 -0.45 0.19 8706
-0.06 1.66 -0.02 -2.25 10.55 0.05 -0.25 0.13 8713
-0.08 1.66 0.46 -1.74 10.52 -0.05 -0.09 0.12 8720
-0.09 1.67 -0.16 -1.38 10.01 -0.09 -0.03 0.08 8726
-0.07 1.64 0.00 -1.32 9.95 -0.10 0.00 0.06 8733
-0.06 1.62 0.09 -1.32 9.83 -0.09 0.02 0.05 8740
-0.06 1.63 0.05 -1.16 9.86 -0.08 0.03 0.03 8748
-0.05 1.64 0.06 -1.15 9.83 -0.07 0.03 0.01 8755
-0.06 1.64 0.11 -1.13 9.75 -0.07 0.04 0.00 8762
-0.07 1.65 0.07 -1.08 9.80 -0.07 0.04 -0.00 8769
-0.06 1.65 0.08 -1.02 9.86 -0.05 0.05 -0.00 8776
-0.05 1.64 0.05 -0.94 9.81 -0.03 0.05 -0.00 8783
-0.04 1.59 0.03 -1.00 9.86 0.01 0.05 0.00 8791
-0.04 1.54 0.11 -0.95 9.85 0.04 0.05 0.00 8798
-0.05 1.49 0.14 -0.95 9.88 0.06 0.05 0.00 8805
-0.04 1.46 0.06 -0.96 9.21 0.09 0.06 0.00 8812
-0.02 1.41 0.08 -0.97 9.80 0.09 0.07 0.01 8819
-0.02 1.36 0.15 -1.02 9.75 0.10 0.08 0.00 8826
-0.02 1.32 0.15 -1.07 9.73 0.10 0.09 0.00 8834
-0.02 1.32 0.17 -0.96 9.72 0.10 0.09 -0.00 8841
-0.03 1.23 0.20 -0.97 9.74 0.10 0.09 -0.01 8848
-0.01 1.14 0.26 -0.97 9.70 0.10 0.09 -0.01 8855
-0.03 1.11 0.23 -1.05 9.71 0.10 0.09 -0.02 8862
-0.01 1.04 0.29 -1.03 9.71 0.10 0.08 -0.02 8869
-0.02 1.01 0.25 -1.08 9.66 0.10 0.07 -0.03 8877
0.00 0.98 0.24 -1.14 9.64 0.10 0.06 -0.04 8884
0.00 0.98 0.23 -1.13 9.73 0.09 0.06 -0.04 8891
-0.01 0.96 0.20 -1.10 9.70 0.09 0.06 -0.04 8898
-0.01 0.87 0.15 -1.08 9.76 0.08 0.07 -0.03 8905
0.00 0.86 0.25 -1.09 9.72 0.08 0.07 -0.03 8912
0.02 0.80 0.29 -1.19 9.72 0.08 0.07 -0.00 8920
0.01 0.80 0.29 -1.17 9.71 0.09 0.06 -0.03 8927
0.01 0.77 0.29 -1.20 9.67 0.08 0.05 -0.04 8934
0.00 0.76 0.30 -1.21 9.68 0.07 0.05 -0.04 8941
0.02 0.74 0.28 -1.16 9.70 0.06 0.04 -0.05 8948
0.03 0.75 0.25 -1.23 9.66 0.06 0.04 -0.05 8955
0.06 0.72 0.24 -1.24 9.70 0.06 0.03 -0.05 8963
0.04 0.66 0.26 -1.23 9.69 0.06 0.02 -0.05 8970
0.04 0.58 0.24 -1.23 9.75 0.06 0.02 -0.05 8977
0.03 0.63 0.32 -1.15 9.70 0.06 0.01 -0.06 8984
0.04 0.63 0.32 -1.22 9.75 0.07 -0.00 -0.06 8991
0.04 0.62 0.27 -1.25 9.77 0.07 -0.01 -0.06 8998
0.07 0.64 0.22 -1.28 9.76 0.07 -0.02 -0.06 9006
0.04 0.61 0.30 -1.83 9.77 0.09 -0.02 -0.06 9013
0.02 0.56 0.26 -1.25 9.80 0.10 -0.03 -0.06 9020
0.03 0.52 0.31 -1.19 9.87 0.11 -0.03 -0.07 9027
0.02 0.48 0.27 -1.23 9.81 0.15 -0.04 -0.07 9034
0.02 0.48 0.30 -1.14 9.84 0.17 -0.04 -0.08 9041
0.02 0.48 0.24 -1.30 9.87 0.19 -0.05 -0.08 9049
0.05 0.41 0.29 -1.33 9.88 0.22 -0.04 -0.08 9056
0.04 0.40 0.21 -1.35 9.96 0.24 -0.03 -0.09 9063
0.09 0.34 0.22 -1.49 9.83 0.27 -0.02 -0.09 9070
0.11 0.37 0.26 -1.45 9.84 0.30 0.00 -0.10 9077
0.13 0.34 0.20 -1.33 10.00 0.33 0.01 -0.11 9084
0.10 0.31 0.21 -1.57 9.93 0.36 0.04 -0.11 9092
0.10 0.24 0.36 -1.46 9.95 0.39 0.05 -0.12 9099
0.14 0.23 0.38 -1.54 10.26 0.43 0.06 -0.14 9107
0.19 0.21 0.37 -1.57 10.12 0.48 0.08 -0.18 9114
0.23 0.20 0.08 -1.70 10.40 0.54 0.10 -0.21 9120
0.23 0.20 0.08 -1.99 10.79 0.71 0.13 -0.23 9127
0.22 0.19 0.11 -2.02 11.08 0.92 0.14 -0.22 9136
0.23 0.19 0.37 -1.94 11.06 1.05 0.11 -0.21 9143
0.24 0.24 0.24 -1.86 11.04 1.18 0.08 -0.21 9150
0.29 0.23 0.29 -2.00 11.15 1.31 0.04 -0.21 9157
0.31 0.24 0.31 -2.28 11.08 1.47 0.06 -0.21 9164
0.36 0.22 0.06 -2.22 11.62 1.61 0.04 -0.20 9171
0.35 0.20 0.29 -1.88 11.52 1.77 0.05 -0.21 9179
0.42 0.19 0.32 -2.31 11.89 1.96 0.04 -0.22 9186
0.41 0.19 0.55 -2.71 11.66 2.12 0.04 -0.23 9193
0.45 0.24 0.42 -2.79 12.53 2.27 0.07 -0.24 9200
0.46 0.28 -0.48 -3.66 15.23 2.50 0.08 -0.25 9207
0.49 0.28 0.48 -3.22 13.03 2.74 0.10 -0.26 9214
0.50 0.31 0.72 -3.85 11.34 3.02 0.16 -0.25 9222
0.55 0.29 0.26 -3.75 13.41 3.26 0.14 -0.25 9229
0.54 0.20 3.87 -3.73 15.34 3.66 0.13 -0.35 9236
0.50 0.06 -2.41 -2.85 14.21 4.02 0.11 -0.37 9243
0.48 0.07 1.23 -4.12 13.68 4.18 -0.15 -0.34 9250
0.44 0.08 -0.82 -14.27 15.53 4.27 -0.13 -0.30 9257
0.32 0.08 -0.01 -4.22 13.62 4.28 -0.34 -0.42 9265
0.21 0.06 0.45 -5.58 17.86 4.28 -0.36 -0.42 9272
0.19 0.07 0.30 -6.85 21.18 4.28 -0.66 -0.41 9279
0.13 0.09 1.42 -7.82 18.97 4.28 -0.76 -0.39 9286
0.11 0.11 0.76 -9.96 20.23 4.28 -0.77 -0.54 9293
0.08 0.09 -2.01 -9.63 24.60 4.28 -1.23 -0.64 9300
0.06 0.10 -2.25 -10.02 26.49 4.28 -1.71 -0.47 9308
0.04 0.09 -2.02 -9.56 25.11 4.28 -2.01 -0.40 9315
0.01 0.09 1.18 -9.73 26.39 4.28 -2.43 -0.36 9322
0.02 0.11 3.38 -7.61 26.44 4.28 -2.53 -0.27 9329
0.03 0.10 5.11 -2.43 28.11 4.28 -2.40 -0.20 9336
0.00 0.08 5.59 2.18 26.98 4.28 -2.07 -0.24 9342
-0.01 0.11 4.11 6.46 23.65 4.28 -1.86 -0.26 9350
-0.01 0.11 0.10 16.84 16.18 4.28 -1.76 -0.52 9358
-0.01 0.12 3.81 18.03 12.02 4.12 -1.55 -0.66 9365
-0.01 0.15 3.68 17.30 23.74 1.71 -1.25 -0.69 9372
-0.00 0.13 0.68 12.17 22.52 -0.15 -1.02 -0.68 9379
-0.01 0.15 -1.48 10.70 18.72 -1.27 -0.88 -0.69 9387
-0.00 0.15 -3.03 9.25 12.70 -1.72 -1.23 -0.76 9394
-0.01 0.17 -2.76 6.92 9.50 -1.91 -1.68 -0.92 9400
-0.00 0.16 -1.51 6.07 8.50 -2.00 -2.06 -1.03 9407
-0.00 0.16 -0.32 5.59 8.39 -2.11 -2.14 -1.12 9414
0.00 0.15 0.70 5.75 8.45 -2.30 -2.00 -1.13 9421
-0.00 0.15 1.05 6.01 8.55 -2.60 -1.76 -1.11 9428
-0.00 0.15 1.03 6.19 8.82 -2.86 -1.58 -1.06 9436
-0.01 0.17 0.77 6.02 9.20 -3.19 -1.44 -1.00 9443
0.00 0.17 0.63 5.68 9.58 -3.47 -1.42 -0.89 9450
0.01 0.19 0.87 5.35 9.75 -3.77 -1.47 -0.78 9457
0.00 0.18 1.56 4.85 10.15 -4.05 -1.53 -0.65 9465
-0.00 0.18 2.38 4.16 10.72 -4.21 -1.51 -0.51 9473
-0.01 0.18 3.17 3.41 11.17 -4.28 -1.42 -0.37 9480
-0.00 0.18 3.83 2.45 11.67 -4.28 -1.27 -0.21 9487
-0.00 0.18 4.22 1.47 12.18 -4.28 -1.12 -0.05 9494
0.01 0.18 4.33 0.47 12.70 -4.28 -0.99 0.13 9500
0.01 0.18 4.33 -0.42 13.21 -4.28 -0.93 0.30 9508
0.00 0.18 4.56 -0.96 13.81 -4.28 -0.93 0.44 9516
-0.02 0.17 5.06 -1.43 14.56 -4.28 -0.97 0.57 9522
-0.00 0.17 5.66 -1.92 15.15 -4.28 -0.98 0.65 9530
0.01 0.18 6.45 -2.63 15.48 -4.28 -0.92 0.71 9537
0.03 0.18 6.99 -3.49 15.97 -4.28 -0.78 0.76 9544
0.01 0.18 7.64 -4.37 16.07 -4.28 -0.66 0.80 9551
0.00 0.18 8.44 -5.44 16.18 -4.28 -0.45 0.87 9559
-0.02 0.18 9.38 -6.30 16.81 -4.28 -0.24 1.00 9565
0.01 0.19 10.40 -7.27 17.16 -4.28 0.04 1.11 9573
0.01 0.19 11.75 -8.33 17.64 -4.28 0.41 1.30 9580
0.02 0.18 12.63 -9.20 19.52 -4.28 0.76 1.47 9587
0.01 0.19 12.20 -9.83 20.48 -4.28 1.13 1.67 9594
0.00 0.16 11.22 -10.26 21.97 -4.27 1.32 1.83 9602
-0.00 0.15 11.20 -10.63 23.10 -4.27 1.42 1.96 9609
0.00 0.17 11.51 -11.10 23.70 -4.28 1.52 2.09 9616
0.01 0.18 11.51 -11.57 24.51 -4.28 1.65 2.16 9623
0.01 0.16 11.06 -12.15 23.92 -4.28 1.84 2.19 9630
0.00 0.15 10.40 -13.18 23.78 -4.28 1.97 2.15 9637
-0.00 0.17 9.69 -14.34 23.51 -4.28 2.11 2.05 9645
-0.01 0.19 8.74 -15.67 22.84 -4.28 2.22 1.88 9652
0.00 0.17 7.85 -16.88 22.02 -4.28 2.28 1.68 9659
0.02 0.16 6.75 -18.43 21.04 -4.28 2.30 1.51 9666
0.01 0.16 5.02 -19.72 19.41 -4.28 2.28 1.35 9673
0.00 0.16 4.53 -20.63 17.57 -4.27 2.23 1.27 9680
0.00 0.15 3.59 -21.55 15.46 -4.14 2.13 1.25 9688
0.00 0.16 3.10 -23.27 13.36 -3.90 2.03 1.32 9695
0.00 0.17 2.39 -24.27 10.18 -3.48 1.98 1.43 9702
0.01 0.16 0.57 -27.09 8.46 -3.05 2.37 1.59 9708
-0.01 0.16 -3.50 -31.70 7.68 -2.57 2.62 1.75 9716
-0.02 0.16 -9.05 -37.29 5.26 -2.03 2.20 1.95 9722
-0.02 0.15 -11.31 -40.21 2.34 -1.48 1.42 2.10 9731
-0.01 0.17 -10.79 -39.94 1.40 -0.70 0.43 2.03 9738
0.00 0.16 -8.22 -35.15 2.57 0.04 -0.24 1.77 9745
0.01 0.16 -5.54 -28.86 5.27 0.78 -0.44 1.46 9752
0.00 0.17 -3.59 -21.49 7.18 1.18 -0.46 1.08 9759
0.00 0.18 -2.36 -14.53 -2.14 1.26 -0.51 0.74 9766
-0.02 0.19 -7.50 -11.03 21.50 3.32 -0.38 1.03 9774
-0.02 0.34 2.38 8.80 -0.93 3.17 -0.04 0.95 9780
-0.02 0.48 0.65 0.10 13.84 2.98 -0.16 1.07 9788
-0.02 0.63 0.83 0.46 11.24 2.54 0.16 1.23 9795
-0.05 0.76 0.39 -0.74 5.63 2.66 0.36 1.36 9801
-0.05 0.89 -4.10 -3.52 11.53 3.33 0.75 1.41 9809
-0.06 1.04 -3.39 -3.30 14.35 4.14 1.34 1.31 9817
-0.06 1.21 -1.66 -3.94 21.34 4.27 1.64 1.14 9824
-0.07 1.40 -3.50 -5.40 25.64 3.76 1.42 0.92 9831
-0.04 1.51 -4.65 -5.99 18.79 3.42 1.52 0.55 9838
-0.05 1.51 -2.88 -3.71 18.80 3.26 1.17 0.05 9845
-0.05 1.66 0.37 -2.94 17.38 2.68 0.89 -0.23 9852
-0.07 1.66 1.40 -2.60 14.16 2.32 0.86 -0.27 9860
-0.07 1.67 2.26 -2.25 13.89 2.07 0.76 -0.19 9867
-0.06 1.68 1.41 -2.32 15.40 1.52 0.06 -0.12 9874
-0.06 1.67 1.54 -1.88 12.95 0.56 -0.41 -0.12 9881
-0.06 1.62 0.76 -2.18 11.38 0.12 -0.26 -0.04 9888
-0.07 1.63 1.09 -1.41 10.09 0.04 -0.18 -0.02 9895
-0.09 1.56 0.76 -1.26 9.95 -0.01 -0.16 0.01 9902
-0.06 1.51 0.51 -1.31 9.96 -0.07 -0.12 0.00 9909
-0.06 1.60 0.39 -1.18 10.09 -0.12 -0.08 -0.00 9916
-0.08 1.61 0.35 -1.11 9.84 -0.12 -0.05 -0.02 9923
-0.09 1.63 0.37 -1.10 9.84 -0.11 -0.04 -0.02 9930
-0.08 1.59 0.32 -0.95 9.87 -0.09 -0.04 -0.03 9937
-0.07 1.61 0.38 -1.04 9.66 -0.08 -0.05 -0.03 9945
-0.06 1.61 0.34 -0.99 9.87 -0.06 -0.06 -0.07 9952
-0.04 1.59 0.28 -0.94 9.77 -0.04 -0.06 -0.03 9959
-0.06 1.56 0.26 -0.96 9.88 -0.02 -0.05 -0.03 9966
-0.06 1.58 0.30 -0.91 9.88 -0.01 -0.05 -0.03 9973
-0.08 1.58 0.29 -0.86 9.82 0.02 -0.06 -0.03 9980
-0.08 1.54 0.32 -0.88 9.82 0.05 -0.06 -0.03 9988
-0.06 1.54 0.35 -0.92 9.83 0.08 -0.07 -0.03 9995
-0.05 1.52 0.30 -0.91 9.81 0.09 -0.09 -0.03 10002
-0.07 1.46 0.30 -0.96 9.75 0.11 -0.09 -0.04 10009
-0.06 1.42 0.32 -0.96 9.74 0.11 -0.09 -0.04 10016
-0.06 1.42 0.30 -1.00 9.69 0.12 -0.10 -0.05 10023
-0.06 1.42 0.28 -0.98 9.70 0.11 -0.09 -0.06 10031
-0.05 1.38 0.23 -0.98 9.72 0.11 -0.09 -0.06 10038
-0.04 1.34 0.23 -0.99 9.73 0.10 -0.08 -0.07 10045
-0.04 1.31 0.25 -1.02 9.72 0.10 -0.07 -0.07 10052
-0.06 1.35 0.18 -1.01 9.73 0.09 -0.04 -0.07 10059
-0.05 1.28 0.21 -1.04 9.73 0.09 -0.06 -0.07 10066
-0.03 1.25 0.18 -1.03 9.68 0.07 -0.05 -0.07 10074
-0.03 1.27 0.14 -1.07 9.70 0.07 -0.04 -0.07 10081
-0.02 1.19 0.22 -1.06 9.68 0.06 -0.02 -0.07 10088
-0.02 1.12 0.21 -1.06 9.71 0.06 -0.02 -0.07 10095
0.01 1.11 0.17 -1.07 9.69 0.05 -0.01 -0.08 10102
0.00 1.08 0.26 -1.09 9.67 0.05 -0.01 -0.08 10109
0.01 1.11 0.19 -1.10 9.59 0.04 -0.01 -0.08 10117
0.04 1.10 0.22 -1.07 9.68 0.04 -0.01 -0.09 10124
0.03 1.08 0.22 -1.13 9.73 0.04 -0.02 -0.09 10131
0.03 1.01 0.20 -1.09 9.70 0.04 -0.02 -0.09 10138
0.03 0.99 0.21 -1.14 9.67 0.03 -0.03 -0.09 10145
0.00 1.01 0.13 -1.13 9.71 0.03 -0.03 -0.09 10152
0.03 0.99 0.15 -1.10 9.67 0.03 -0.03 -0.09 10160
0.09 0.96 0.12 -1.08 9.80 0.04 -0.02 -0.09 10167
0.11 0.96 0.14 -1.14 9.82 0.05 -0.01 -0.09 10174
0.13 0.90 0.17 -1.20 9.79 0.07 -0.01 -0.08 10181
0.15 0.87 0.19 -1.09 9.78 0.08 -0.02 -0.09 10188
0.15 0.87 0.16 -1.13 9.82 0.10 -0.02 -0.09 10195
0.17 0.83 0.15 -1.15 9.80 0.11 -0.02 -0.09 10203
0.21 0.76 0.01 -1.17 9.88 0.13 -0.02 -0.09 10210
0.22 0.72 0.11 -1.14 9.90 0.17 -0.02 -0.10 10217
0.28 0.62 0.19 -1.27 10.06 0.21 -0.03 -0.11 10225
0.32 0.55 0.16 -1.22 10.15 0.26 -0.03 -0.12 10232
0.38 0.50 0.28 -1.17 10.07 0.31 -0.02 -0.13 10240
0.43 0.47 0.20 -1.23 10.05 0.37 -0.01 -0.16 10247
0.47 0.42 0.15 -1.34 10.22 0.44 0.01 -0.17 10254
0.52 0.35 0.22 -1.39 10.61 0.51 0.02 -0.18 10261
0.57 0.31 0.21 -1.34 10.58 0.61 0.01 -0.19 10268
0.58 0.30 0.18 -1.87 10.82 0.75 -0.06 -0.20 10274
0.63 0.24 0.05 -1.85 11.09 0.93 -0.16 -0.19 10283
0.68 0.28 0.84 -2.06 11.61 1.18 -0.27 -0.18 10290
0.75 0.23 0.46 -1.88 12.48 1.42 -0.14 -0.26 10297
0.81 0.24 0.03 -2.04 12.23 1.66 -0.21 -0.26 10304
0.82 0.25 0.39 -2.04 12.45 1.85 -0.23 -0.27 10311
0.84 0.25 -0.54 -2.29 12.84 2.03 -0.26 -0.27 10318
0.90 0.21 0.25 -2.03 12.69 2.26 -0.28 -0.25 10326
0.89 0.18 -0.38 -2.45 12.95 2.54 -0.36 -0.27 10333
0.89 0.25 0.15 -2.34 13.30 2.71 -0.45 -0.28 10340
0.93 0.24 0.15 -2.73 14.57 2.93 -0.56 -0.28 10347
0.93 0.24 1.47 -0.14 14.90 3.16 -0.75 -0.31 10354
0.91 0.22 0.29 -2.99 13.86 3.46 -0.90 -0.41 10361
0.81 0.14 3.14 -2.47 14.14 3.68 -1.14 -0.45 10369
0.83 0.12 -0.81 -4.46 9.12 4.00 -1.45 -0.67 10375
0.77 0.12 1.53 -3.28 12.57 4.17 -1.51 -0.66 10383
0.67 0.13 2.29 -4.87 16.45 4.28 -1.64 -0.76 10390
0.56 0.12 2.70 -4.57 15.00 4.28 -1.92 -0.91 10397
0.49 0.09 1.19 -7.35 17.01 4.28 -1.92 -1.01 10404
0.37 0.09 2.05 -6.20 19.01 4.28 -2.26 -1.23 10412
0.31 0.09 2.08 -6.64 20.79 4.28 -2.60 -1.38 10419
0.25 0.07 0.54 -7.67 22.47 4.28 -2.67 -1.53 10426
0.20 0.09 -0.71 -8.27 24.59 4.28 -2.91 -1.66 10433
0.09 0.10 -2.10 -8.21 25.17 4.28 -3.26 -1.63 10440
0.06 0.11 -1.05 -7.27 26.05 4.28 -3.43 -1.45 10447
0.01 0.12 1.58 -5.38 25.68 4.28 -3.64 -1.39 10455
0.01 0.12 3.93 -2.11 24.76 4.28 -3.95 -1.30 10462
-0.01 0.13 5.55 0.95 21.61 4.28 -3.91 -1.23 10468
-0.01 0.12 6.84 8.39 18.95 4.28 -3.77 -1.17 10475
-0.01 0.10 9.33 21.18 12.54 4.13 -3.75 -1.10 10483
-0.02 0.16 9.80 15.62 15.38 3.12 -2.76 -0.71 10490
-0.02 0.17 8.76 14.43 28.06 0.82 -1.20 -0.45 10498
-0.01 0.17 7.30 13.66 20.04 -0.63 -0.54 -0.15 10505
-0.01 0.17 3.05 13.21 14.51 -1.57 -0.29 0.12 10512
-0.01 0.13 2.30 10.38 11.74 -1.99 -0.45 0.37 10519
-0.01 0.15 2.23 8.62 9.83 -2.17 -0.64 0.61 10525
-0.01 0.14 2.45 7.97 9.48 -2.29 -0.72 0.85 10532
0.01 0.13 2.72 7.87 9.13 -2.47 -0.67 1.07 10540
-0.01 0.13 2.61 7.55 9.60 -2.77 -0.56 1.23 10547
-0.00 0.14 2.16 7.13 9.88 -3.06 -0.43 1.39 10554
-0.00 0.13 1.67 6.68 10.15 -3.39 -0.36 1.49 10562
-0.01 0.13 1.28 5.92 10.34 -3.72 -0.34 1.56 10568
-0.00 0.15 1.07 5.31 10.53 -3.98 -0.34 1.58 10576
-0.00 0.15 0.94 4.69 10.93 -4.19 -0.35 1.56 10584
-0.01 0.15 1.09 3.89 11.47 -4.27 -0.38 1.51 10591
-0.00 0.15 1.30 2.56 11.92 -4.28 -0.37 1.45 10598
-0.01 0.14 1.39 1.84 12.02 -4.28 -0.31 1.37 10605
-0.01 0.15 1.51 0.63 12.13 -4.28 -0.23 1.31 10612
-0.02 0.16 1.55 -0.22 12.23 -4.28 -0.14 1.25 10618
-0.01 0.15 1.59 -1.26 12.31 -4.28 -0.08 1.19 10627
-0.00 0.15 1.69 -2.07 12.57 -4.28 -0.05 1.11 10634
-0.01 0.14 2.19 -2.93 12.94 -4.28 -0.03 1.07 10640
-0.01 0.14 2.51 -3.82 13.19 -4.28 0.02 0.97 10647
-0.01 0.15 2.69 -4.60 13.43 -4.28 0.07 0.86 10654
-0.02 0.17 3.18 -5.25 13.88 -4.28 0.12 0.69 10661
-0.01 0.15 3.63 -5.54 14.39 -4.28 0.20 0.51 10670
-0.01 0.15 3.91 -5.85 15.16 -4.28 0.32 0.35 10677
-0.01 0.14 4.28 -6.22 15.85 -4.28 0.46 0.17 10683
-0.01 0.14 4.59 -6.70 16.15 -4.28 0.58 0.04 10690
-0.01 0.15 4.98 -7.35 16.46 -4.25 0.74 -0.06 10698
-0.01 0.16 5.33 -8.06 16.91 -4.16 0.89 -0.15 10705
-0.01 0.16 5.69 -8.23 17.47 -3.97 1.12 -0.19 10713
-0.02 0.16 5.90 -8.25 18.43 -3.81 1.39 -0.21 10719
-0.01 0.16 5.74 -8.23 19.48 -3.69 1.65 -0.20 10727
-0.02 0.17 5.18 -8.36 19.74 -3.61 1.93 -0.15 10733
-0.02 0.17 4.56 -8.83 19.90 -3.51 2.16 -0.07 10740
-0.01 0.17 3.82 -9.43 19.83 -3.35 2.30 0.03 10748
-0.02 0.16 3.06 -10.31 19.65 -3.17 2.46 0.17 10756
-0.02 0.15 2.40 -10.94 19.91 -2.96 2.57 0.27 10763
-0.01 0.13 1.67 -11.61 20.83 -2.82 2.67 0.37 10770
-0.01 0.13 1.04 -11.97 22.08 -2.85 2.79 0.45 10777
-0.01 0.13 0.40 -12.08 22.81 -3.08 2.85 0.52 10784
-0.01 0.12 -0.53 -12.46 22.83 -3.52 2.84 0.60 10791
-0.01 0.11 -1.32 -13.98 20.73 -3.91 2.71 0.71 10799
-0.01 0.12 -2.17 -15.35 18.23 -4.14 2.44 0.80 10806
-0.01 0.12 -2.10 -18.18 14.77 -4.11 2.20 0.87 10813
-0.01 0.11 -2.34 -20.15 11.62 -3.77 2.19 0.87 10820
-0.01 0.11 -2.70 -23.20 9.51 -3.26 2.59 0.79 10826
-0.01 0.10 -3.75 -26.54 7.99 -2.86 2.87 0.62 10834
-0.01 0.10 -5.90 -30.32 6.54 -2.47 2.95 0.45 10841
-0.01 0.09 -8.97 -35.15 4.13 -2.20 2.82 0.33 10848
-0.01 0.10 -11.99 -38.39 1.43 -1.73 2.49 0.30 10856
-0.01 0.12 -14.56 -38.11 0.96 -0.93 1.74 0.31 10863
-0.01 0.13 -14.14 -33.26 1.38 -0.09 0.81 0.26 10870
-0.00 0.15 -11.92 -27.82 2.84 0.77 -0.33 0.18 10877
-0.01 0.15 -7.35 -21.94 5.97 1.25 -1.05 0.12 10884
-0.01 0.14 -3.66 -17.46 8.04 1.41 -1.22 0.09 10891
-0.01 0.14 -1.13 -14.98 8.82 1.38 -1.08 0.08 10898
-0.02 0.16 -0.59 -5.38 4.33 1.33 -1.07 0.17 10905
-0.01 0.19 -0.22 4.24 8.56 3.06 -3.16 0.76 10912
-0.03 0.34 8.19 10.01 2.93 2.73 -2.62 0.89 10920
-0.03 0.54 0.58 3.33 10.22 2.64 -2.11 1.39 10928
-0.05 0.60 -0.89 3.19 8.34 2.54 -1.14 1.75 10934
-0.06 0.82 -4.25 -0.60 5.33 2.72 -1.06 1.81 10941
-0.06 0.89 -6.57 -1.79 12.48 3.46 -0.90 1.61 10949
-0.05 1.02 -5.94 -4.43 18.37 4.11 0.02 1.33 10956
-0.05 1.14 -6.13 -5.12 20.07 4.09 0.44 1.10 10963
-0.07 1.26 -8.19 -8.35 24.25 3.62 0.40 0.69 10971
-0.06 1.44 -4.20 -4.72 18.65 3.35 0.30 0.10 10978
-0.09 1.54 -0.77 -3.33 17.61 3.01 0.06 -0.21 10985
-0.07 1.60 1.22 -3.04 15.95 2.53 0.11 -0.20 10992
-0.06 1.62 2.03 -2.14 13.36 2.31 0.18 -0.05 10999
-0.06 1.61 2.10 -1.69 12.34 2.13 0.27 0.14 11006
-0.06 1.61 0.14 -2.57 15.64 1.69 -0.09 0.25 11014
-0.07 1.65 -0.28 -1.37 12.57 0.59 -0.63 0.14 11021
-0.05 1.56 -0.24 -2.99 12.23 -0.02 -0.41 0.10 11028
-0.08 1.62 -0.17 -2.32 10.37 -0.14 -0.23 0.01 11035
-0.06 1.60 0.40 -1.70 10.08 -0.12 -0.19 0.00 11041
-0.06 1.64 0.27 -1.65 10.24 -0.11 -0.19 0.00 11049
-0.06 1.61 -0.25 -1.55 9.82 -0.09 -0.17 -0.02 11056
-0.04 1.61 0.01 -1.50 9.98 -0.10 -0.11 -0.03 11063
-0.03 1.61 0.01 -1.38 10.04 -0.08 -0.08 -0.04 11070
-0.01 1.60 -0.06 -1.23 9.84 -0.06 -0.06 -0.05 11077
-0.01 1.64 0.00 -1.24 9.84 -0.05 -0.04 -0.04 11084
-0.00 1.58 0.01 -1.17 9.82 -0.04 -0.03 -0.04 11091
-0.00 1.58 0.03 -1.17 9.82 -0.02 -0.03 -0.04 11099
-0.02 1.59 0.04 -1.16 9.88 -0.00 -0.02 -0.04 11106
-0.01 1.56 -0.02 -1.15 9.86 0.02 -0.01 -0.04 11113
-0.01 1.62 -0.00 -1.14 9.85 0.06 -0.01 -0.04 11120
-0.01 1.57 -0.05 -1.15 9.80 0.09 0.03 -0.04 11127
-0.01 1.53 -0.01 -1.11 9.80 0.11 0.01 -0.04 11134
0.01 1.46 0.01 -1.16 9.76 0.12 0.02 -0.04 11142
-0.00 1.45 0.04 -1.20 9.63 0.12 0.02 -0.05 11149
0.01 1.42 0.02 -1.21 9.68 0.11 0.02 -0.05 11156
0.03 1.39 0.04 -1.18 9.67 0.10 0.02 -0.05 11163
0.04 1.32 0.06 -1.21 9.69 0.10 0.02 -0.06 11170
0.05 1.26 0.11 -1.21 9.69 0.10 0.01 -0.06 11177
0.04 1.21 0.14 -1.24 9.64 0.10 0.00 -0.07 11185
0.02 1.20 0.12 -1.22 9.64 0.10 -0.01 -0.08 11192
0.03 1.16 0.07 -1.29 9.64 0.09 -0.01 -0.08 11199
0.04 1.13 0.08 -1.28 9.60 0.07 -0.02 -0.09 11206
0.04 1.10 0.09 -1.27 9.79 0.06 -0.02 -0.09 11213
0.06 1.09 0.01 -1.24 9.70 0.05 -0.02 -0.09 11220
0.06 1.09 -0.03 -1.29 9.68 0.05 -0.02 -0.09 11228
0.06 1.08 -0.01 -1.25 9.64 0.04 -0.02 -0.09 11235
0.07 1.11 -0.01 -1.25 9.61 0.02 -0.02 -0.09 11242
0.10 1.10 0.00 -1.29 9.63 0.02 -0.01 -0.09 11249
0.11 1.08 0.02 -1.29 9.65 0.01 -0.00 -0.09 11256
0.10 1.07 0.01 -1.30 9.66 0.00 -0.01 -0.08 11264
0.12 1.07 0.02 -1.31 9.70 -0.00 -0.01 -0.08 11271
0.14 1.04 0.04 -1.30 9.65 -0.00 -0.01 -0.09 11278
0.11 1.04 0.09 -1.30 9.68 0.00 -0.02 -0.09 11285
0.14 1.04 0.04 -1.35 9.75 0.01 -0.02 -0.09 11292
0.16 1.01 0.01 -1.29 9.69 0.02 -0.02 -0.09 11299
0.19 0.96 -0.02 -1.28 9.71 0.03 -0.03 -0.09 11307
0.18 0.95 0.01 -1.31 9.82 0.05 -0.04 -0.10 11314
0.22 0.89 -0.01 -1.30 9.81 0.08 -0.03 -0.10 11321
0.25 0.81 -0.00 -1.31 9.78 0.11 -0.03 -0.10 11328
0.33 0.81 0.04 -1.22 9.78 0.15 -0.04 -0.11 11335
0.36 0.79 0.02 -1.36 9.91 0.19 -0.04 -0.11 11342
0.39 0.72 0.59 -1.34 10.10 0.23 -0.05 -0.12 11351
0.42 0.62 0.13 -1.50 9.97 0.28 -0.07 -0.12 11357
0.48 0.57 -0.06 -1.64 9.93 0.32 -0.09 -0.14 11364
0.53 0.50 0.31 -1.39 10.13 0.38 -0.10 -0.17 11372
0.60 0.43 0.03 -1.73 10.22 0.43 -0.12 -0.20 11379
0.63 0.38 -0.56 -1.69 10.21 0.49 -0.12 -0.24 11386
0.69 0.34 0.24 -1.59 10.45 0.57 -0.16 -0.27 11394
0.76 0.27 0.35 -1.78 10.53 0.67 -0.23 -0.32 11401
0.79 0.24 0.34 -2.44 10.79 0.79 -0.28 -0.35 11408
0.91 0.19 -0.02 -1.93 10.86 0.90 -0.31 -0.36 11415
0.85 0.20 -0.17 -2.18 11.27 1.01 -0.31 -0.36 11422
0.90 0.16 -0.02 -2.59 11.96 1.23 -0.27 -0.33 11429
0.92 0.15 -0.64 -2.16 12.23 1.53 -0.23 -0.29 11437
0.99 0.15 -0.52 -2.06 11.99 1.73 -0.27 -0.23 11444
1.02 0.15 -0.32 -2.57 12.38 1.95 -0.24 -0.24 11451
1.03 0.19 -0.52 -2.57 13.14 2.17 -0.25 -0.21 11458
1.04 0.18 -0.32 -2.45 13.20 2.43 -0.27 -0.21 11465
1.04 0.25 0.11 -2.97 13.25 2.71 -0.28 -0.22 11472
0.99 0.19 -0.22 -3.13 13.64 2.96 -0.31 -0.24 11480
0.99 0.18 -0.14 -2.91 13.86 3.23 -0.28 -0.25 11487
0.96 0.21 -0.76 -3.40 14.84 3.47 -0.28 -0.25 11494
0.89 0.24 -0.15 -3.14 15.02 3.82 -0.28 -0.27 11501
0.84 0.21 0.20 -3.33 14.67 4.14 -0.41 -0.30 11508
0.77 0.25 0.83 -3.73 14.89 4.26 -0.52 -0.36 11515
0.65 0.27 0.83 -3.32 14.91 4.28 -0.72 -0.48 11523
0.53 0.24 0.02 -8.10 -6.06 4.28 -0.63 -0.47 11529
0.52 0.21 2.44 -6.02 18.59 4.28 -0.85 -0.61 11537
0.37 0.13 1.79 -5.21 18.39 4.28 -1.00 -0.79 11544
0.27 0.09 -0.67 -6.50 23.85 4.28 -0.86 -0.90 11551
0.20 0.07 -1.01 -7.19 22.93 4.28 -1.08 -0.96 11558
0.18 0.07 -3.11 -8.33 24.95 4.28 -1.33 -0.96 11566
0.11 0.09 -1.38 -10.82 27.95 4.28 -1.68 -0.81 11573
0.05 0.13 0.66 -10.11 28.47 4.28 -1.82 -0.82 11580
0.01 0.11 3.86 -8.11 29.85 4.28 -2.05 -0.90 11587
0.02 0.10 5.87 -4.98 29.07 4.28 -2.02 -0.91 11594
0.03 0.09 7.40 0.26 25.83 4.28 -1.68 -1.00 11600
-0.01 0.13 8.25 5.71 24.71 4.28 -1.23 -1.16 11608
-0.01 0.13 10.07 14.39 20.05 4.28 -0.77 -1.36 11616
-0.01 0.14 9.98 20.80 6.95 4.00 -0.19 -1.44 11622
-0.02 0.16 7.12 17.55 30.42 1.88 0.96 -1.35 11630
-0.01 0.14 3.79 13.55 25.03 -0.59 0.97 -1.06 11637
-0.01 0.13 -0.89 12.26 15.92 -1.46 0.42 -0.57 11644
-0.01 0.15 -0.98 9.82 10.51 -1.72 -0.48 -0.27 11651
-0.02 0.15 1.96 7.53 7.63 -1.69 -1.17 -0.06 11658
-0.01 0.16 4.33 6.14 7.16 -1.63 -1.16 0.10 11665
-0.02 0.16 5.71 7.18 6.86 -1.75 -0.59 0.25 11672
-0.02 0.15 4.89 8.02 6.97 -1.98 0.15 0.34 11679
-0.01 0.14 2.35 8.29 7.76 -2.31 0.59 0.40 11686
-0.02 0.15 0.19 8.27 8.50 -2.69 0.79 0.47 11694
-0.01 0.17 -1.03 8.01 8.74 -2.97 0.77 0.52 11701
-0.01 0.16 -1.62 7.60 8.90 -3.29 0.69 0.54 11708
-0.02 0.15 -1.54 6.91 9.44 -3.58 0.69 0.52 11715
-0.02 0.16 -1.52 5.94 10.40 -3.90 0.81 0.46 11722
-0.02 0.16 -2.04 4.73 10.14 -4.16 0.99 0.32 11729
-0.02 0.17 -3.04 3.49 10.32 -4.25 1.11 0.16 11737
-0.02 0.18 -3.90 2.52 10.67 -4.28 1.19 -0.00 11744
-0.01 0.17 -4.57 1.72 11.06 -4.28 1.22 -0.17 11752
-0.02 0.17 -4.91 1.33 11.58 -4.28 1.22 -0.31 11758
-0.02 0.17 -5.24 0.80 11.98 -4.28 1.20 -0.48 11765
-0.02 0.18 -5.28 0.04 12.52 -4.28 1.17 -0.62 11772
-0.02 0.18 -5.07 -0.61 12.90 -4.28 1.15 -0.75 11780
-0.00 0.18 -4.70 -1.29 13.30 -4.28 1.19 -0.87 11788
-0.01 0.17 -4.51 -2.44 13.63 -4.28 1.27 -0.95 11795
-0.01 0.17 -4.47 -2.03 14.05 -4.28 1.39 -0.99 11802
-0.01 0.16 -4.50 -1.97 14.62 -4.28 1.45 -0.95 11809
-0.02 0.18 -4.45 -1.96 15.41 -4.28 1.50 -0.85 11815
-0.01 0.19 -4.36 -2.11 16.47 -4.28 1.53 -0.69 11824
0.00 0.18 -4.05 -2.68 17.51 -4.28 1.57 -0.50 11831
-0.01 0.18 -3.59 -3.40 18.04 -4.28 1.63 -0.32 11838
-0.01 0.18 -3.26 -4.24 18.71 -4.28 1.69 -0.11 11845
-0.02 0.17 -2.85 -4.98 19.63 -4.27 1.74 0.05 11851
-0.02 0.17 -2.75 -5.40 21.74 -4.23 1.83 0.21 11858
-0.01 0.17 -2.13 -6.21 23.65 -4.23 1.95 0.30 11867
-0.00 0.16 -2.01 -7.15 24.70 -4.27 2.11 0.33 11874
-0.02 0.16 -2.67 -8.86 25.35 -4.28 2.20 0.35 11880
-0.01 0.16 -3.33 -10.30 25.60 -4.28 2.15 0.30 11888
-0.01 0.15 -3.87 -12.01 25.63 -4.28 1.99 0.28 11895
-0.02 0.15 -4.10 -13.88 25.24 -4.28 1.84 0.21 11902
-0.02 0.16 -4.28 -15.76 24.38 -4.28 1.70 0.15 11910
-0.01 0.14 -4.41 -18.27 22.87 -4.28 1.57 0.14 11917
-0.01 0.14 -4.30 -20.45 20.71 -4.28 1.42 0.23 11924
-0.01 0.13 -3.63 -23.18 18.33 -4.28 1.18 0.33 11931
-0.01 0.13 -1.96 -26.55 15.02 -4.27 1.02 0.54 11938
-0.01 0.15 -1.16 -30.32 11.84 -4.04 0.94 0.66 11945
-0.01 0.14 0.17 -35.99 7.71 -3.48 0.97 0.63 11952
-0.01 0.14 0.36 -42.37 2.85 -2.98 1.19 0.43 11959
-0.01 0.11 -3.53 -48.41 -0.32 -2.24 1.68 0.31 11966
-0.01 0.13 -11.42 -50.28 -1.55 -1.39 1.89 0.35 11974
-0.01 0.13 -17.17 -46.34 -0.52 -0.16 1.29 0.49 11981
-0.02 0.15 -17.93 -37.16 2.07 0.96 -0.22 0.66 11988
-0.00 0.16 -13.56 -27.98 5.88 1.55 -1.53 0.77 11996
-0.02 0.16 -6.98 -22.41 8.77 1.82 -2.32 0.85 12002
-0.01 0.16 11.66 -7.64 4.37 1.86 -2.25 0.65 12010
-0.02 0.26 -6.29 6.66 3.57 3.73 -0.75 -0.38 12016
-0.05 0.46 2.70 11.48 6.54 3.30 -0.23 -0.31 12023
-0.05 0.66 -0.62 0.02 13.43 2.95 -1.50 -0.46 12032
-0.04 0.84 4.02 0.65 8.74 2.78 -1.83 -0.32 12038
-0.05 0.91 6.81 -0.73 7.34 3.20 -1.29 0.23 12045
-0.06 0.97 2.22 -2.00 11.07 3.75 -0.84 0.71 12053
-0.05 1.13 0.09 -3.74 20.24 4.13 0.06 0.99 12060
-0.07 1.23 -1.15 -3.94 20.91 3.85 0.38 1.20 12067
-0.08 1.38 -7.72 -6.30 20.46 3.53 0.28 0.92 12075
-0.06 1.51 -5.71 -5.01 18.50 3.45 0.26 0.30 12082
-0.07 1.56 -3.09 -3.37 17.04 3.17 0.20 -0.13 12089
-0.09 1.70 0.26 -2.99 15.98 2.71 0.14 -0.28 12096
-0.09 1.68 2.24 -2.28 14.35 2.45 0.27 -0.15 12103
-0.08 1.72 2.43 -2.59 14.61 2.20 0.37 0.08 12110
-0.06 1.71 0.02 -3.59 19.26 1.35 -0.20 0.20 12118
-0.05 1.68 0.35 -1.76 12.18 0.37 -0.51 0.15 12125
-0.08 1.68 -0.15 -1.90 11.02 0.06 -0.34 0.10 12131
-0.06 1.65 0.20 -1.36 10.36 -0.05 -0.15 0.10 12139
-0.08 1.70 -0.19 -1.52 9.82 -0.12 -0.07 0.09 12145
-0.07 1.65 0.18 -1.53 9.96 -0.14 -0.03 0.07 12152
-0.07 1.69 0.07 -1.67 10.21 -0.14 -0.02 0.05 12161
-0.04 1.70 -0.03 -1.26 9.71 -0.13 0.00 0.03 12167
-0.06 1.72 -0.02 -1.29 9.94 -0.12 0.01 0.01 12174
-0.06 1.69 0.06 -1.15 9.91 -0.10 0.02 -0.00 12181
-0.07 1.68 0.08 -1.08 9.82 -0.08 0.03 -0.01 12188
-0.06 1.76 0.07 -0.99 9.77 -0.07 0.05 -0.01 12195
-0.06 1.71 0.04 -0.93 9.22 -0.05 0.06 -0.01 12203
-0.06 1.69 0.10 -0.97 9.80 -0.03 0.08 -0.00 12210
-0.06 1.67 0.08 -0.94 9.82 -0.01 0.09 -0.00 12217
-0.05 1.63 0.09 -0.94 9.82 0.02 0.09 -0.00 12224
-0.04 1.60 0.08 -0.91 9.82 0.04 0.10 0.00 12231
-0.06 1.57 0.08 -0.89 9.20 0.07 0.10 0.00 12238
-0.05 1.52 0.16 -0.92 9.76 0.08 0.11 0.01 12246
-0.04 1.48 0.17 -0.92 9.73 0.09 0.10 0.01 12253
-0.04 1.43 0.29 -0.86 9.70 0.10 0.10 0.00 12260
-0.04 1.35 0.27 -0.93 9.70 0.11 0.09 -0.00 12267
-0.05 1.29 0.26 -0.97 9.69 0.11 0.08 -0.01 12274
-0.03 1.25 0.28 -0.95 9.64 0.10 0.06 -0.02 12281
-0.05 1.24 0.28 -1.00 9.67 0.09 0.05 -0.03 12289
-0.05 1.21 0.28 -1.00 9.67 0.09 0.03 -0.03 12296
-0.03 1.17 0.26 -1.00 9.67 0.08 0.02 -0.03 12303
-0.06 1.12 0.27 -1.03 9.62 0.07 0.01 -0.04 12310
-0.05 1.12 0.18 -1.08 9.65 0.05 0.00 -0.04 12317
-0.02 1.08 0.16 -1.00 9.75 0.05 0.00 -0.05 12324
-0.02 1.06 0.18 -1.05 9.69 0.04 0.01 -0.04 12332
-0.03 1.06 0.22 -1.04 9.73 0.04 0.01 -0.04 12339
-0.02 1.03 0.22 -1.05 9.75 0.04 0.00 -0.04 12346
-0.03 1.07 0.23 -1.08 9.74 0.04 -0.01 -0.05 12353
-0.01 0.96 0.25 -1.08 9.75 0.04 -0.02 -0.05 12360
-0.01 0.95 0.21 -1.03 9.72 0.04 -0.03 -0.05 12367
0.01 0.95 0.23 -1.08 9.70 0.04 -0.04 -0.05 12375
-0.00 0.92 0.22 -1.10 9.69 0.04 -0.05 -0.06 12382
-0.01 0.93 0.21 -1.11 9.74 0.05 -0.06 -0.06 12389
-0.00 0.91 0.25 -1.13 9.72 0.05 -0.07 -0.07 12396
0.03 0.89 0.23 -1.06 9.78 0.06 -0.08 -0.07 12403
0.04 0.91 0.19 -1.13 9.79 0.08 -0.08 -0.07 12410
0.06 0.84 0.10 -1.11 9.83 0.09 -0.07 -0.08 12418
0.07 0.83 0.10 -1.10 9.80 0.11 -0.06 -0.07 12425
0.07 0.81 0.11 -1.12 9.83 0.12 -0.05 -0.08 12432
0.05 0.74 0.14 -0.65 9.82 0.14 -0.05 -0.08 12439
0.09 0.73 0.11 -1.14 9.83 0.16 -0.04 -0.08 12446
0.07 0.69 0.17 -1.14 9.84 0.18 -0.04 -0.08 12453
0.11 0.62 0.15 -1.15 9.28 0.21 -0.03 -0.09 12461
0.12 0.55 0.19 -1.18 9.90 0.23 -0.03 -0.09 12468
0.14 0.48 0.25 -1.23 9.98 0.26 -0.02 -0.10 12475
0.16 0.45 0.21 -1.35 9.96 0.30 -0.02 -0.12 12482
0.21 0.41 0.42 -1.17 10.19 0.34 -0.03 -0.12 12490
0.21 0.36 0.42 -1.43 10.28 0.41 -0.03 -0.15 12497
0.22 0.29 0.44 -1.50 10.16 0.48 -0.02 -0.18 12504
0.28 0.26 0.54 -1.40 10.26 0.55 -0.03 -0.21 12512
0.33 0.21 0.64 -1.45 10.45 0.64 -0.06 -0.26 12519
0.40 0.21 0.80 -1.71 10.67 0.74 -0.09 -0.33 12526
0.48 0.17 0.66 -1.75 10.99 0.87 -0.10 -0.38 12533
0.50 0.20 -0.04 -1.96 11.40 1.06 -0.06 -0.42 12539
0.54 0.22 -0.05 -2.02 12.00 1.31 -0.10 -0.34 12548
0.59 0.16 -0.32 -1.63 11.53 1.51 -0.19 -0.29 12555
0.70 0.16 -0.25 -1.80 11.94 1.69 -0.17 -0.26 12562
0.69 0.21 -0.06 -2.03 12.65 1.86 -0.21 -0.23 12569
0.71 0.21 0.16 -2.15 12.68 2.08 -0.21 -0.22 12576
0.73 0.18 0.26 -2.55 12.82 2.30 -0.19 -0.22 12583
0.74 0.19 0.45 -2.57 13.23 2.55 -0.19 -0.24 12591
0.76 0.22 -0.49 -2.91 12.42 2.80 -0.19 -0.26 12598
0.72 0.18 0.23 -2.67 12.77 3.03 -0.20 -0.30 12605
0.73 0.25 0.53 -3.25 14.00 3.27 -0.16 -0.30 12612
0.72 0.26 0.01 -2.93 14.69 3.55 -0.20 -0.34 12619
0.72 0.26 0.27 -3.27 14.16 3.89 -0.25 -0.35 12626
0.68 0.26 1.12 -3.50 14.02 4.18 -0.36 -0.42 12634
0.61 0.24 0.73 -3.68 15.41 4.28 -0.47 -0.50 12641
0.53 0.21 0.87 -3.70 15.07 4.28 -0.68 -0.57 12648
0.45 0.11 2.82 -12.96 12.44 4.28 -0.74 -0.63 12655
0.33 0.09 1.33 -4.85 14.99 4.28 -0.84 -0.65 12662
0.29 0.10 0.95 -6.62 18.45 4.28 -0.88 -0.70 12669
0.16 0.11 1.24 -7.55 20.55 4.28 -0.69 -0.80 12677
0.16 0.11 -1.50 -7.70 21.26 4.28 -0.84 -0.89 12684
0.10 0.10 -3.22 -8.87 24.51 4.28 -1.28 -0.89 12691
0.08 0.11 -1.26 -10.90 25.42 4.28 -1.42 -0.67 12698
0.04 0.13 -0.02 -9.48 24.65 4.28 -1.26 -0.63 12705
0.03 0.10 0.71 -8.80 27.56 4.28 -1.36 -0.57 12712
0.03 0.08 2.86 -6.24 26.89 4.28 -1.39 -0.54 12720
0.00 0.08 3.43 -1.50 24.59 4.28 -1.36 -0.58 12726
-0.01 0.09 3.52 2.69 22.62 4.28 -1.21 -0.62 12733
-0.01 0.12 3.50 5.95 21.52 4.28 -1.01 -0.74 12740
-0.01 0.11 1.39 11.93 14.89 4.28 -1.19 -0.99 12748
-0.01 0.12 1.82 11.96 17.06 4.27 -1.21 -1.06 12755
-0.01 0.14 2.65 12.82 27.16 2.40 -0.71 -1.14 12763
-0.01 0.13 2.83 10.56 22.44 0.48 -0.39 -1.03 12770
-0.01 0.14 0.89 10.10 17.11 -0.83 -0.23 -0.75 12777
-0.01 0.14 0.71 7.93 11.90 -1.47 -0.31 -0.49 12783
-0.01 0.13 1.21 5.80 8.95 -1.77 -0.43 -0.31 12790
-0.01 0.13 1.29 4.38 7.21 -1.79 -0.48 -0.09 12797
-0.01 0.13 1.27 4.25 6.01 -1.75 -0.49 0.13 12805
-0.01 0.13 0.96 4.33 6.11 -1.75 -0.53 0.33 12812
-0.01 0.14 0.11 4.81 7.04 -1.86 -0.60 0.54 12819
-0.01 0.15 -0.57 5.63 7.83 -2.18 -0.66 0.72 12826
-0.01 0.14 -0.59 6.28 8.71 -2.62 -0.74 0.82 12833
-0.01 0.14 -0.47 6.34 9.16 -3.05 -0.75 0.88 12840
-0.01 0.13 -0.29 6.16 9.22 -3.52 -0.67 0.87 12848
-0.01 0.14 0.14 5.79 9.04 -3.94 -0.50 0.77 12855
-0.01 0.14 0.22 4.40 9.05 -4.15 -0.31 0.63 12862
-0.01 0.15 0.02 3.73 8.88 -4.26 -0.08 0.43 12869
-0.01 0.14 -0.41 2.32 8.88 -4.28 0.13 0.21 12876
-0.01 0.14 -0.97 1.40 9.10 -4.28 0.26 0.01 12883
-0.01 0.14 -1.74 0.71 9.51 -4.28 0.34 -0.20 12891
-0.01 0.14 -2.16 0.18 10.17 -4.28 0.38 -0.42 12898
-0.02 0.15 -2.50 -0.23 10.93 -4.28 0.40 -0.61 12905
0.00 0.15 -2.68 -0.54 11.74 -4.28 0.42 -0.81 12913
-0.01 0.14 -2.69 -0.76 12.37 -4.28 0.42 -0.96 12919
-0.01 0.14 -2.61 -1.27 13.02 -4.28 0.42 -1.10 12928
-0.01 0.15 -2.41 -1.76 13.63 -4.28 0.44 -1.21 12934
-0.01 0.14 -2.03 -2.08 14.13 -4.28 0.48 -1.24 12941
-0.01 0.16 -1.67 -2.40 14.66 -4.28 0.56 -1.23 12949
-0.00 0.15 -1.32 -2.70 15.22 -4.28 0.62 -1.16 12956
-0.01 0.16 -0.98 -3.14 15.91 -4.28 0.70 -1.04 12963
-0.02 0.16 -0.73 -3.49 16.69 -4.28 0.77 -0.87 12969
-0.01 0.15 -0.41 -3.69 17.57 -4.28 0.86 -0.70 12977
-0.01 0.15 -0.18 -4.28 18.43 -4.28 0.95 -0.49 12985
-0.01 0.16 0.16 -5.45 19.09 -4.28 1.03 -0.29 12992
0.00 0.15 0.51 -5.56 19.68 -4.28 1.11 -0.13 12999
0.00 0.13 0.46 -6.05 21.13 -4.28 1.22 0.02 13005
-0.01 0.11 0.15 -6.26 23.25 -4.28 1.33 0.10 13014
-0.01 0.12 0.09 -6.86 24.22 -4.28 1.50 0.13 13020
-0.01 0.12 -0.19 -7.64 25.27 -4.28 1.63 0.12 13027
-0.01 0.12 -1.01 -9.10 25.90 -4.28 1.72 0.07 13035
-0.01 0.12 -1.91 -10.72 26.28 -4.28 1.71 0.01 13042
-0.01 0.12 -2.25 -12.95 25.70 -4.28 1.61 -0.06 13049
-0.01 0.10 -3.33 -21.39 27.90 -4.28 1.66 0.01 13057
-0.01 0.12 -2.15 -15.96 16.90 -4.28 1.47 -0.16 13064
-0.01 0.13 -1.32 -16.90 21.72 -4.28 1.24 -0.30 13071
-0.00 0.13 -0.43 -23.80 24.03 -4.28 1.36 -0.36 13078
-0.01 0.13 0.54 -27.12 17.01 -4.28 1.54 -0.39 13085
-0.01 0.11 -0.57 -30.41 11.17 -4.22 1.95 -0.40 13092
-0.01 0.11 -3.06 -37.50 6.03 -3.64 2.44 -0.54 13099
-0.01 0.11 -6.66 -44.55 3.73 -2.88 2.81 -0.71 13106
-0.01 0.13 -13.12 -52.99 -0.54 -2.31 2.98 -0.71 13114
-0.01 0.13 -19.43 -56.35 -2.95 -1.43 2.61 -0.32 13121
-0.02 0.15 -23.09 -51.52 -2.54 -0.17 1.13 0.08 13128
-0.02 0.16 -18.64 -41.55 -0.47 0.95 -0.94 0.35 13135
-0.02 0.16 -11.52 -32.11 -4.60 1.88 -2.20 0.45 13143
-0.02 0.19 -7.94 -7.29 20.45 4.18 -1.60 -0.53 13149
-0.03 0.33 0.59 11.53 5.90 4.11 -0.56 -0.42 13156
-0.03 0.57 -0.95 0.77 14.86 3.49 -1.12 -0.50 13164
-0.05 0.86 2.04 1.71 13.35 2.98 -1.25 -0.34 13171
-0.06 0.93 4.72 -0.01 7.91 2.97 -1.28 -0.07 13177
-0.07 1.05 2.34 -2.05 11.34 3.67 -1.07 0.30 13186
-0.06 1.16 0.39 -3.28 17.20 4.21 -0.70 0.62 13193
-0.06 1.27 1.92 -3.74 21.52 4.19 0.18 0.91 13200
-0.07 1.38 -4.68 -5.79 23.35 3.44 0.28 1.05 13207
-0.08 1.53 -7.14 -5.44 18.09 3.23 0.32 0.59 13214
-0.08 1.58 -4.71 -3.50 15.97 3.18 0.31 0.11 13221
-0.10 1.62 -0.90 -2.63 15.56 2.88 0.22 -0.20 13229
-0.08 1.74 1.29 -2.44 13.81 2.60 0.25 -0.23 13236
-0.07 1.69 3.27 -1.91 13.24 2.47 0.46 0.01 13243
-0.06 1.75 2.20 -2.49 17.17 2.23 0.57 0.31 13250
-0.08 1.69 -0.75 -3.38 16.70 0.90 -0.31 0.29 13257
-0.09 1.70 -0.69 -2.36 11.92 0.16 -0.40 0.15 13264
-0.10 1.70 -0.63 -1.95 10.10 -0.08 -0.14 0.08 13272
-0.09 1.67 0.09 -1.49 10.21 -0.12 -0.04 0.06 13279
-0.04 1.68 0.49 -1.04 9.94 -0.11 -0.02 0.06 13285
-0.06 1.71 0.20 -1.25 9.94 -0.12 -0.00 0.05 13292
-0.05 1.70 0.08 -1.42 10.03 -0.12 0.02 0.02 13299
-0.04 1.68 0.23 -1.23 9.92 -0.11 0.04 0.02 13306
-0.06 1.66 0.08 -1.17 9.89 -0.09 0.05 0.01 13314
-0.08 1.67 0.16 -1.18 9.88 -0.08 0.06 0.00 13321
-0.05 1.64 0.14 -1.10 9.81 -0.07 0.05 -0.00 13328
-0.05 1.68 0.09 -0.99 9.83 -0.06 0.05 -0.00 13335
-0.07 1.66 0.09 -0.96 9.81 -0.04 0.06 -0.00 13342
-0.07 1.63 0.16 -0.94 9.81 -0.02 0.05 -0.00 13349
-0.06 1.65 0.07 -0.92 9.81 0.00 0.06 0.00 13357
-0.06 1.63 0.14 -0.88 9.80 0.03 0.05 -0.00 13364
-0.04 1.60 0.17 -0.91 9.80 0.05 0.05 -0.00 13371
-0.06 1.56 0.11 -0.88 9.77 0.07 0.03 -0.00 13378
-0.05 1.54 0.15 -0.88 9.75 0.09 0.03 -0.01 13385
-0.06 1.49 0.15 -0.93 9.72 0.11 0.02 -0.01 13392
-0.05 1.44 0.14 -0.97 9.71 0.11 0.01 -0.01 13400
-0.04 1.43 0.17 -0.96 9.68 0.11 0.01 -0.02 13407
-0.03 1.39 0.30 -1.00 9.65 0.11 -0.00 -0.02 13414
-0.03 1.33 0.25 -1.04 9.75 0.11 -0.02 -0.03 13421
-0.03 1.30 0.25 -1.00 9.67 0.11 -0.03 -0.04 13428
-0.04 1.27 0.25 -0.97 9.68 0.11 -0.04 -0.05 13435
-0.02 1.24 0.18 -1.04 9.69 0.11 -0.05 -0.05 13443
-0.03 1.23 0.14 -1.08 9.68 0.10 -0.05 -0.06 13450
-0.01 1.20 0.10 -1.07 9.62 0.09 -0.05 -0.06 13457
-0.02 1.19 0.08 -1.08 9.66 0.08 -0.04 -0.06 13464
-0.01 1.12 0.14 -1.09 9.68 0.08 -0.04 -0.06 13471
-0.02 1.11 0.16 -1.15 9.75 0.07 -0.03 -0.06 13478
0.01 1.05 0.14 -1.12 9.71 0.07 -0.02 -0.06 13486
0.02 1.02 0.12 -1.13 9.69 0.06 -0.02 -0.06 13493
0.02 1.02 0.16 -1.14 9.73 0.06 -0.02 -0.07 13500
0.04 1.06 0.17 -1.15 9.75 0.05 -0.03 -0.07 13507
0.04 0.98 0.13 -1.20 9.66 0.06 -0.03 -0.07 13514
0.06 0.97 0.53 -1.15 8.99 0.05 -0.03 -0.06 13521
0.05 0.93 0.61 -0.90 9.64 0.09 -0.05 -0.09 13529
0.09 0.92 0.05 -1.34 9.74 0.08 -0.05 -0.08 13536
0.07 0.87 0.01 -1.22 9.88 0.09 -0.04 -0.09 13543
0.06 0.82 -0.16 -1.20 9.71 0.09 -0.02 -0.08 13550
0.10 0.84 0.01 -0.95 9.80 0.10 -0.02 -0.08 13557
0.11 0.78 -0.11 -1.06 9.78 0.11 -0.02 -0.08 13564
0.12 0.76 0.02 -1.29 9.81 0.13 -0.02 -0.08 13572
0.17 0.67 0.13 -1.31 9.81 0.14 -0.02 -0.09 13579
0.18 0.61 0.06 -1.24 9.83 0.16 -0.03 -0.09 13586
0.20 0.57 0.20 -1.27 9.98 0.19 -0.03 -0.10 13593
0.21 0.57 0.13 -1.82 9.81 0.21 -0.03 -0.11 13600
0.24 0.57 0.12 -1.33 9.87 0.23 -0.03 -0.12 13607
0.25 0.46 0.20 -1.39 9.86 0.25 -0.02 -0.13 13615
0.29 0.40 0.18 -1.42 9.83 0.28 -0.01 -0.13 13622
0.30 0.39 0.33 -1.47 9.88 0.30 0.00 -0.14 13629
0.32 0.33 0.35 -1.37 9.88 0.34 0.01 -0.16 13636
0.37 0.32 0.36 -1.53 10.12 0.39 0.01 -0.18 13644
0.41 0.27 0.28 -1.55 10.26 0.45 0.01 -0.20 13650
0.46 0.23 0.34 -1.71 9.81 0.53 -0.02 -0.22 13658
0.50 0.19 0.39 -1.71 10.56 0.65 -0.06 -0.26 13666
0.57 0.19 0.41 -1.85 10.79 0.78 -0.07 -0.29 13673
0.58 0.17 0.75 -2.42 11.16 0.96 -0.06 -0.33 13680
0.60 0.19 -0.00 -1.94 11.51 1.18 -0.05 -0.33 13687
0.63 0.16 -0.14 -2.02 11.29 1.40 -0.13 -0.30 13694
0.73 0.19 -0.15 -1.95 11.58 1.54 -0.14 -0.29 13702
0.74 0.20 0.38 -1.50 11.98 1.71 -0.15 -0.26 13709
0.73 0.14 -0.12 -2.92 12.19 1.92 -0.14 -0.24 13716
0.78 0.14 -0.13 -2.14 12.14 2.08 -0.13 -0.22 13723
0.80 0.17 -0.24 -2.38 12.84 2.31 -0.12 -0.20 13730
0.81 0.21 -0.32 -2.63 13.08 2.56 -0.14 -0.19 13737
0.83 0.24 0.27 -2.91 13.56 2.79 -0.12 -0.19 13745
0.84 0.28 0.15 -2.77 14.09 3.07 -0.14 -0.23 13752
0.83 0.27 0.46 -2.86 14.08 3.39 -0.09 -0.26 13759
0.81 0.27 0.01 -3.45 14.13 3.68 -0.03 -0.26 13766
0.74 0.26 0.14 -2.84 13.84 4.03 -0.02 -0.30 13773
0.69 0.28 2.51 2.76 15.11 4.24 0.09 -0.35 13780
0.59 0.10 -3.09 -2.97 17.52 4.28 0.10 -0.49 13788
0.52 0.07 -1.48 -1.84 14.50 4.28 -0.16 -0.35 13795
0.38 0.09 0.49 -5.77 22.67 4.28 -0.43 -0.31 13802
0.30 0.09 0.88 -6.70 18.46 4.28 -0.49 -0.38 13809
0.16 0.10 2.55 -7.04 20.79 4.28 -0.13 -0.39 13816
0.13 0.12 -1.27 -7.47 21.99 4.28 -0.10 -0.53 13824
0.11 0.11 -6.01 -8.76 26.26 4.28 -0.50 -0.51 13831
0.04 0.12 -3.46 -11.41 29.86 4.28 -1.16 -0.19 13838
0.03 0.10 -0.66 -9.68 26.71 4.28 -1.70 -0.21 13845
-0.01 0.13 2.23 -8.98 28.65 4.28 -2.02 -0.20 13851
0.01 0.06 4.96 -4.74 28.98 4.28 -1.99 -0.16 13859
-0.00 0.11 5.16 -0.10 27.12 4.28 -1.70 -0.21 13867
-0.01 0.12 6.38 4.56 24.16 4.28 -1.34 -0.27 13873
-0.01 0.14 6.07 9.89 21.18 4.28 -0.98 -0.39 13880
-0.01 0.11 4.83 20.42 11.40 4.28 -0.60 -0.63 13888
-0.01 0.14 6.86 17.48 20.10 3.78 -0.01 -0.86 13894
-0.01 0.14 3.79 15.38 28.30 1.11 0.46 -0.94 13902
-0.01 0.13 1.15 13.53 21.56 -0.51 0.43 -0.82 13910
-0.01 0.11 -1.31 12.67 15.66 -1.46 0.06 -0.71 13917
-0.01 0.11 -1.17 10.38 10.75 -1.79 -0.60 -0.66 13924
-0.01 0.09 -0.36 8.36 8.62 -1.83 -1.04 -0.63 13930
-0.01 0.10 1.15 7.11 7.55 -1.84 -1.26 -0.59 13937
-0.01 0.11 2.30 6.83 7.08 -1.91 -1.18 -0.51 13944
-0.01 0.11 2.63 6.90 7.42 -2.07 -0.97 -0.43 13952
-0.01 0.11 2.34 7.40 8.18 -2.34 -0.63 -0.32 13959
-0.01 0.11 1.74 7.82 8.93 -2.72 -0.36 -0.22 13966
-0.01 0.11 0.87 7.84 9.60 -3.21 -0.13 -0.15 13973
-0.01 0.11 0.23 7.31 9.89 -3.63 -0.02 -0.11 13980
-0.01 0.13 -0.04 6.50 10.00 -4.05 0.02 -0.09 13987
-0.01 0.12 -0.11 5.05 9.91 -4.25 0.06 -0.12 13995
-0.01 0.12 -0.25 3.54 10.04 -4.28 0.12 -0.18 14002
-0.01 0.13 -0.37 2.23 10.10 -4.28 0.24 -0.25 14009
-0.01 0.11 -0.66 0.96 10.31 -4.28 0.38 -0.34 14016
-0.01 0.11 -1.00 0.02 10.75 -4.28 0.49 -0.46 14023
-0.01 0.13 -1.55 -0.64 11.18 -4.28 0.60 -0.53 14030
-0.00 0.13 -2.06 -1.02 12.09 -4.28 0.67 -0.64 14039
-0.01 0.13 -2.39 -1.29 12.81 -4.28 0.73 -0.74 14045
-0.01 0.11 -2.63 -1.58 13.57 -4.28 0.79 -0.85 14052
-0.01 0.12 -2.78 -1.81 14.09 -4.28 0.85 -0.92 14059
-0.01 0.13 -2.90 -2.12 14.55 -4.28 0.91 -0.95 14067
-0.01 0.15 -2.88 -2.43 15.16 -4.28 0.92 -0.93 14074
-0.00 0.14 -2.65 -2.60 15.84 -4.28 0.92 -0.88 14082
-0.01 0.13 -2.20 -2.89 16.68 -4.28 0.96 -0.76 14088
-0.01 0.13 -2.07 -3.31 17.74 -4.28 1.04 -0.61 14096
-0.01 0.13 -1.86 -3.91 18.55 -4.28 1.17 -0.46 14102
0.00 0.15 -1.82 -4.82 19.08 -4.28 1.31 -0.29 14110
0.00 0.14 -1.66 -5.96 19.28 -4.28 1.42 -0.16 14117
-0.01 0.14 -1.66 -7.20 19.70 -4.28 1.55 -0.03 14125
-0.01 0.13 -1.75 -7.83 21.32 -4.26 1.65 0.05 14131
-0.01 0.12 -1.67 -8.12 23.11 -4.22 1.81 0.07 14138
-0.01 0.12 -1.67 -8.53 24.30 -4.23 1.99 0.04 14145
-0.01 0.12 -2.05 -9.28 25.36 -4.27 2.12 -0.03 14152
-0.01 0.14 -3.08 -10.55 25.83 -4.28 2.17 -0.07 14160
-0.01 0.13 -4.47 -12.07 25.76 -4.28 2.07 -0.18 14168
-0.01 0.13 -5.96 -13.31 24.91 -4.28 1.83 -0.29 14175
-0.01 0.12 -6.60 -15.26 23.09 -4.28 1.56 -0.43 14182
-0.01 0.14 -6.48 -17.37 21.46 -4.28 1.37 -0.56 14189
-0.01 0.15 -5.96 -20.16 19.62 -4.28 1.23 -0.59 14196
-0.01 0.13 -5.30 -23.23 17.07 -4.28 1.12 -0.52 14203
-0.01 0.11 -5.03 -25.87 14.67 -4.26 1.02 -0.30 14211
-0.01 0.13 -4.86 -29.32 11.18 -3.96 0.80 0.09 14218
-0.01 0.13 -4.27 -33.69 7.15 -3.50 0.54 0.47 14224
-0.01 0.14 -2.84 -39.32 3.01 -2.90 0.24 0.60 14231
-0.02 0.17 -2.66 -45.31 -1.29 -2.33 0.25 0.57 14238
-0.01 0.15 -4.75 -46.85 -2.88 -1.44 0.55 0.51 14246
-0.01 0.14 -9.19 -43.20 -1.61 -0.34 0.72 0.51 14253
-0.01 0.14 -12.33 -35.71 1.56 0.56 0.35 0.58 14261
-0.01 0.14 -12.48 -28.60 5.27 1.28 -0.52 0.64 14268
-0.02 0.16 -9.50 -22.08 8.94 1.50 -1.38 0.72 14274
-0.02 0.17 -6.07 -18.76 10.77 1.46 -1.84 0.76 14282
-0.02 0.20 -0.00 -7.73 37.38 3.68 -0.36 -0.79 14288
-0.04 0.41 -0.15 13.06 2.77 3.41 0.63 -0.68 14296
-0.05 0.72 -1.94 -0.02 10.22 3.12 -0.66 -1.07 14304
-0.06 0.93 2.59 1.03 12.36 2.82 -1.42 -1.20 14311
-0.06 1.06 9.04 -0.62 8.77 2.92 -1.23 -0.73 14317
-0.05 1.17 4.60 -2.17 14.94 3.67 -0.61 -0.16 14325
-0.07 1.29 5.18 -3.64 18.04 4.21 0.21 0.43 14332
-0.08 1.41 4.63 -4.84 24.30 4.10 0.53 0.96 14340
-0.09 1.58 -3.09 -5.16 22.94 3.38 0.34 1.08 14347
-0.09 1.70 -5.56 -4.03 16.76 3.25 0.37 0.77 14354
-0.09 1.72 -5.78 -3.48 16.62 3.07 0.57 0.43 14361
-0.07 1.76 -3.59 -2.95 15.15 2.75 0.54 -0.06 14368
-0.06 1.75 0.38 -2.32 14.01 2.47 0.49 -0.29 14375
-0.07 1.80 3.02 -1.43 12.49 2.24 0.55 -0.15 14383
-0.08 1.78 2.91 -1.69 12.16 2.10 0.59 0.16 14390
-0.08 1.79 0.95 -2.00 15.10 1.79 0.26 0.29 14396
-0.06 1.75 -0.29 -2.05 13.82 0.77 -0.35 0.19 14404
-0.08 1.78 0.74 -2.11 11.75 0.21 -0.38 0.12 14411
-0.09 1.77 0.33 -2.16 10.82 0.04 -0.23 0.11 14418
-0.10 1.77 0.34 -1.44 10.36 -0.02 -0.10 0.14 14426
-0.07 1.71 -0.04 -1.49 10.41 -0.09 -0.03 0.11 14433
-0.07 1.76 0.08 -1.37 9.94 -0.11 0.03 0.07 14439
-0.06 1.75 0.22 -1.44 9.93 -0.10 0.06 0.06 14446
-0.06 1.77 0.03 -1.25 9.92 -0.08 0.07 0.04 14453
-0.06 1.75 0.08 -1.13 9.81 -0.07 0.08 0.02 14460
-0.07 1.74 0.21 -1.14 9.20 -0.07 0.09 0.01 14468
-0.08 1.76 0.14 -1.05 9.70 -0.05 0.10 0.01 14475
-0.08 1.74 0.16 -1.01 9.79 -0.03 0.11 0.01 14482
-0.08 1.73 0.21 -1.03 9.80 -0.01 0.11 0.01 14489
-0.05 1.72 0.22 -1.01 9.81 0.01 0.11 0.01 14496
-0.06 1.70 0.23 -0.97 9.78 0.03 0.11 0.01 14503
-0.07 1.62 0.18 -0.97 9.80 0.05 0.12 0.01 14511
-0.07 1.64 0.16 -0.94 9.75 0.06 0.12 0.01 14518
-0.05 1.57 0.26 -1.00 9.77 0.08 0.13 0.01 14525
-0.04 1.52 0.24 -1.04 9.74 0.09 0.14 0.01 14532
-0.03 1.45 0.28 -1.02 9.71 0.10 0.15 0.01 14539
-0.04 1.43 0.37 -1.01 9.63 0.09 0.14 0.01 14546
-0.05 1.39 0.32 -1.02 9.71 0.09 0.14 0.00 14554
-0.05 1.35 0.35 -1.00 9.65 0.07 0.13 0.00 14561
-0.05 1.33 0.37 -0.98 9.63 0.07 0.13 -0.00 14568
-0.05 1.30 0.40 -0.99 9.64 0.06 0.12 -0.01 14575
-0.05 1.20 0.39 -0.97 9.65 0.06 0.11 -0.01 14582
-0.05 1.24 0.38 -1.05 9.58 0.05 0.10 -0.01 14589
-0.04 1.21 0.36 -1.03 9.61 0.04 0.11 -0.02 14597
-0.07 1.19 0.36 -1.06 9.62 0.03 0.11 -0.02 14604
-0.04 1.20 0.39 -1.06 9.66 0.03 0.12 -0.01 14611
-0.03 1.14 0.41 -1.04 9.69 0.02 0.12 -0.01 14618
-0.02 1.10 0.39 -1.03 9.71 0.03 0.10 -0.01 14625
-0.02 1.07 0.44 -1.05 9.68 0.03 0.09 -0.01 14632
-0.03 1.05 0.50 -1.04 9.67 0.03 0.08 -0.01 14640
-0.02 1.04 0.50 -1.05 9.58 0.03 0.06 -0.02 14647
-0.04 1.08 0.46 -1.11 9.61 0.02 0.06 -0.02 14654
-0.01 1.07 0.48 -1.06 9.68 0.03 0.06 -0.03 14661
-0.01 1.05 0.45 -1.08 9.71 0.04 0.04 -0.03 14668
-0.01 1.00 0.45 -1.06 9.72 0.05 0.03 -0.04 14675
-0.04 0.99 0.44 -1.11 9.81 0.07 0.01 -0.03 14683
-0.02 0.89 0.40 -1.06 9.21 0.10 -0.02 -0.04 14690
-0.02 0.84 0.37 -1.09 9.84 0.11 -0.03 -0.03 14697
0.00 0.75 0.39 -1.17 9.88 0.14 -0.05 -0.04 14704
-0.02 0.70 0.43 -1.13 9.83 0.17 -0.06 -0.04 14711
-0.00 0.63 0.44 -1.10 9.89 0.19 -0.08 -0.04 14718
-0.00 0.63 0.41 -1.19 9.84 0.21 -0.09 -0.05 14726
0.02 0.55 0.43 -1.22 9.85 0.24 -0.11 -0.05 14733
0.04 0.50 0.48 -1.16 9.94 0.27 -0.13 -0.06 14740
0.04 0.46 0.50 -1.27 9.89 0.31 -0.16 -0.07 14747
0.03 0.45 0.52 -1.26 9.90 0.34 -0.17 -0.07 14754
0.07 0.38 0.48 -1.19 9.97 0.37 -0.18 -0.08 14761
0.04 0.31 0.42 -1.42 10.06 0.42 -0.19 -0.10 14770
0.09 0.33 0.87 -1.37 10.01 0.47 -0.18 -0.12 14777
0.14 0.26 0.58 -1.63 10.08 0.53 -0.15 -0.15 14784
0.12 0.24 0.63 -1.61 10.16 0.59 -0.10 -0.19 14791
0.17 0.21 0.65 -1.67 10.51 0.67 -0.06 -0.26 14798
0.23 0.17 0.60 -2.12 10.59 0.80 -0.02 -0.30 14804
0.18 0.19 0.07 -2.30 11.06 1.01 0.01 -0.31 14812
0.20 0.22 0.08 -2.12 11.08 1.25 -0.04 -0.30 14819
0.30 0.18 0.62 -2.31 11.32 1.40 -0.08 -0.30 14827
0.35 0.19 0.40 -2.30 11.57 1.49 -0.11 -0.29 14834
0.38 0.21 0.02 -2.18 11.29 1.64 -0.14 -0.28 14841
0.43 0.18 0.20 -2.49 11.87 1.77 -0.12 -0.27 14849
0.45 0.19 0.02 -2.34 11.70 1.94 -0.13 -0.27 14856
0.48 0.21 0.52 -2.51 12.25 2.15 -0.12 -0.29 14863
0.48 0.20 0.11 -2.93 12.35 2.36 -0.10 -0.29 14870
0.50 0.18 0.84 -3.05 12.19 2.59 -0.07 -0.31 14877
0.53 0.22 0.41 -2.78 12.95 2.77 -0.03 -0.35 14884
0.52 0.21 -0.06 -3.02 13.59 3.03 0.02 -0.37 14892
0.54 0.27 -0.34 -3.65 14.01 3.35 0.05 -0.35 14899
0.53 0.26 0.34 -3.42 14.14 3.63 0.07 -0.33 14906
0.55 0.21 0.51 -3.35 14.63 3.98 0.01 -0.35 14913
0.49 0.19 0.86 -2.26 15.44 4.26 -0.03 -0.37 14920
0.48 0.09 -3.11 -2.47 17.85 4.28 -0.16 -0.53 14927
0.38 0.09 -1.65 6.36 14.19 4.28 -0.25 -0.38 14935
0.32 0.09 2.44 -4.46 21.60 4.28 -0.42 -0.42 14942
0.24 0.12 0.16 -6.57 21.88 4.28 -0.48 -0.47 14949
0.14 0.10 1.98 -7.56 20.09 4.28 -0.24 -0.48 14956
0.09 0.09 1.32 -8.02 21.48 4.28 -0.26 -0.59 14963
0.06 0.08 -1.31 -9.79 24.96 4.28 -0.48 -0.66 14970
0.00 0.09 -1.39 -9.44 26.86 4.28 -1.04 -0.64 14978
0.04 0.11 -1.48 -9.98 25.21 4.28 -1.16 -0.47 14985
0.04 0.11 1.18 -8.29 25.71 4.28 -1.12 -0.44 14992
0.00 0.11 3.48 -9.02 30.37 4.28 -1.16 -0.40 14999
0.01 0.07 5.88 -4.48 30.74 4.28 -1.11 -0.42 15006
-0.01 0.08 4.82 0.86 26.14 4.28 -0.74 -0.45 15012
-0.01 0.11 6.35 6.42 24.47 4.28 -0.16 -0.59 15020
-0.01 0.13 5.97 16.92 19.96 4.28 0.17 -0.87 15028
-0.01 0.13 5.96 24.13 4.07 4.25 0.46 -1.39 15034
-0.01 0.12 6.80 18.84 29.06 2.21 1.24 -1.46 15042
-0.01 0.11 0.80 15.85 29.09 -0.50 1.29 -1.26 15048
-0.01 0.12 -2.25 14.58 19.12 -2.18 0.85 -1.00 15056
-0.01 0.12 -2.07 11.10 13.28 -2.76 -0.03 -0.80 15063
-0.01 0.14 -1.77 8.05 8.73 -2.78 -0.94 -0.70 15070
-0.01 0.13 0.86 6.26 7.87 -2.60 -1.57 -0.56 15077
-0.01 0.14 3.39 5.72 7.63 -2.54 -1.67 -0.39 15084
-0.01 0.14 4.11 6.62 8.07 -2.64 -1.44 -0.20 15091
-0.01 0.14 3.39 6.63 8.76 -2.91 -1.04 -0.08 15098
-0.01 0.14 2.21 6.74 9.35 -3.22 -0.75 0.03 15106
-0.01 0.15 1.03 6.44 9.60 -3.61 -0.66 0.07 15113
-0.01 0.14 0.28 5.68 9.68 -3.93 -0.67 0.07 15120
-0.01 0.15 0.12 4.32 9.53 -4.14 -0.70 0.03 15127
-0.01 0.14 0.61 3.80 9.58 -4.25 -0.65 -0.05 15134
-0.01 0.14 1.00 2.62 9.76 -4.28 -0.48 -0.14 15141
-0.02 0.15 1.01 1.81 10.06 -4.28 -0.27 -0.21 15149
-0.01 0.15 0.53 0.94 10.37 -4.28 -0.03 -0.28 15157
-0.02 0.15 0.02 -0.01 10.85 -4.28 0.13 -0.33 15163
-0.01 0.14 -0.51 -0.72 11.26 -4.28 0.24 -0.36 15171
-0.01 0.13 -0.85 -1.46 11.92 -4.28 0.29 -0.38 15177
-0.01 0.14 -0.97 -1.87 12.73 -4.28 0.31 -0.41 15184
-0.01 0.14 -0.87 -2.30 13.25 -4.28 0.37 -0.44 15192
-0.00 0.15 -0.73 -2.84 14.02 -4.28 0.46 -0.48 15200
-0.01 0.14 -0.95 -3.35 14.57 -4.28 0.50 -0.50 15207
-0.01 0.13 -1.14 -3.93 15.15 -4.28 0.53 -0.51 15213
-0.01 0.12 -1.05 -4.21 15.63 -4.28 0.54 -0.50 15221
-0.01 0.12 -0.73 -4.67 16.07 -4.28 0.57 -0.47 15228
-0.00 0.12 -0.12 -5.16 16.54 -4.28 0.64 -0.42 15236
0.00 0.13 0.30 -5.64 16.72 -4.28 0.76 -0.36 15243
-0.01 0.13 0.76 -6.16 16.65 -4.28 0.87 -0.26 15250
-0.01 0.11 1.26 -6.64 16.79 -4.28 0.98 -0.13 15256
-0.01 0.12 1.92 -6.84 17.69 -4.21 1.15 -0.04 15263
-0.01 0.13 2.13 -6.58 19.51 -4.12 1.36 0.09 15271
-0.01 0.13 1.75 -6.22 21.29 -4.13 1.50 0.19 15278
-0.00 0.13 0.96 -6.47 21.80 -4.17 1.56 0.31 15286
-0.01 0.12 0.35 -7.11 22.63 -4.20 1.54 0.40 15292
-0.01 0.13 0.15 -7.91 22.92 -4.22 1.52 0.44 15299
-0.01 0.11 0.01 -8.66 23.50 -4.24 1.56 0.46 15306
-0.01 0.10 0.03 -9.40 24.15 -4.28 1.68 0.41 15313
-0.01 0.12 -0.66 -10.35 24.04 -4.28 1.87 0.32 15322
-0.01 0.12 -1.56 -11.76 23.10 -4.28 2.02 0.19 15329
-0.01 0.11 -2.66 -13.23 20.98 -4.28 2.17 0.05 15336
-0.01 0.10 -4.04 -15.82 19.31 -4.28 2.49 -0.06 15343
-0.01 0.12 -5.35 -19.49 18.42 -4.28 2.70 -0.16 15350
-0.01 0.14 -7.76 -22.60 17.05 -4.25 2.58 -0.19 15357
-0.01 0.12 -8.98 -26.80 14.47 -4.10 2.01 -0.21 15365
-0.01 0.14 -8.16 -30.38 11.23 -3.70 1.28 -0.24 15372
-0.02 0.16 -5.78 -35.71 6.81 -3.22 0.59 -0.37 15378
-0.01 0.14 -4.20 -43.06 2.56 -2.76 0.43 -0.53 15385
-0.01 0.13 -5.16 -48.43 0.14 -2.09 0.67 -0.55 15392
-0.01 0.15 -8.66 -49.02 -0.49 -1.24 0.74 -0.46 15399
-0.01 0.14 -10.76 -43.92 0.55 -0.05 0.29 -0.30 15407
-0.01 0.14 -9.86 -35.08 2.74 0.96 -0.65 -0.06 15414
-0.01 0.15 -7.14 -26.85 6.80 1.48 -1.36 0.23 15421
-0.01 0.14 -3.31 -21.93 9.31 1.71 -1.78 0.49 15428
-0.02 0.18 9.55 -18.35 49.64 3.19 -2.18 -0.04 15436
-0.04 0.39 3.33 10.38 2.96 3.68 -0.94 0.19 15442
-0.03 0.62 2.30 2.71 6.50 3.24 -1.16 0.24 15450
-0.04 0.81 -1.41 1.64 12.15 3.02 -1.76 0.30 15458
-0.06 1.06 2.90 0.65 5.86 3.03 -1.52 0.52 15464
-0.08 1.14 -0.17 -1.91 10.79 3.81 -1.00 0.82 15472
-0.07 1.31 -2.21 -4.03 19.88 4.27 -0.32 0.90 15479
-0.08 1.45 -0.33 -5.30 22.63 4.28 0.62 1.19 15486
-0.08 1.60 -6.02 -6.87 22.36 3.96 0.33 0.91 15494
-0.07 1.73 -6.21 -5.80 18.55 3.94 0.38 0.48 15501
-0.07 1.77 -2.62 -3.69 18.18 3.79 0.49 0.06 15508
-0.08 1.77 0.07 -3.24 17.04 3.37 0.45 -0.07 15515
-0.07 1.85 2.27 -3.02 16.04 3.01 0.49 0.02 15522
-0.07 1.80 2.34 -2.74 14.71 2.72 0.68 0.28 15529
-0.06 1.85 0.41 -3.44 17.93 2.06 0.23 0.36 15537
-0.09 1.85 0.25 -2.10 13.83 0.72 -0.52 0.24 15544
-0.07 1.78 0.55 -2.28 11.45 0.22 -0.44 0.18 15551
-0.09 1.76 -0.01 -1.80 10.36 0.06 -0.24 0.17 15558
-0.07 1.73 -0.14 -1.82 10.20 -0.07 -0.05 0.15 15565
-0.06 1.73 0.00 -1.41 9.94 -0.07 -0.01 0.11 15571
-0.07 1.74 0.19 -1.51 9.85 -0.09 0.01 0.09 15579
-0.07 1.71 -0.30 -1.44 9.85 -0.09 0.03 0.07 15586
-0.05 1.71 0.15 -1.35 9.87 -0.08 0.05 0.05 15593
-0.09 1.76 0.21 -1.22 9.85 -0.07 0.07 0.03 15600
-0.07 1.72 0.25 -1.08 9.75 -0.07 0.08 0.02 15607
-0.06 1.70 0.22 -1.05 9.73 -0.06 0.09 0.01 15614
-0.06 1.70 0.25 -0.97 9.75 -0.06 0.10 0.01 15622
-0.05 1.70 0.25 -0.97 9.20 -0.04 0.11 0.01 15629
-0.05 1.67 0.25 -0.96 9.93 -0.02 0.13 0.01 15636
-0.06 1.65 0.23 -0.89 9.91 0.01 0.12 0.01 15643
-0.06 1.58 0.29 -0.89 9.86 0.05 0.12 0.02 15650
-0.04 1.56 0.25 -0.98 9.78 0.08 0.12 0.02 15657
-0.05 1.50 0.28 -0.97 9.73 0.09 0.13 0.02 15665
-0.02 1.45 0.28 -1.01 9.71 0.09 0.14 0.02 15672
-0.04 1.44 0.34 -1.01 9.73 0.09 0.15 0.02 15679
-0.05 1.42 0.34 -0.96 9.69 0.10 0.16 0.01 15686
-0.02 1.36 0.40 -0.97 9.65 0.10 0.15 0.01 15693
-0.00 1.34 0.46 -0.97 9.66 0.09 0.15 0.00 15700
-0.02 1.32 0.47 -0.95 9.54 0.09 0.14 -0.00 15708
-0.02 1.25 0.49 -0.98 9.64 0.08 0.13 -0.01 15715
-0.03 1.24 0.42 -1.01 9.61 0.06 0.14 -0.01 15722
-0.02 1.15 0.46 -1.06 9.62 0.05 0.14 -0.02 15729
-0.02 1.13 0.42 -1.05 9.70 0.04 0.14 -0.02 15736
-0.01 1.11 0.49 -1.00 9.68 0.02 0.15 -0.02 15744
-0.02 1.06 0.47 -1.04 9.66 0.02 0.16 -0.02 15751
-0.03 1.06 0.43 -1.05 9.69 0.02 0.16 -0.01 15758
-0.05 1.04 0.49 -1.08 9.67 0.02 0.16 -0.01 15765
-0.03 1.08 0.48 -1.04 9.68 0.01 0.16 -0.01 15772
-0.02 1.01 0.51 -1.10 9.68 0.01 0.15 -0.01 15779
-0.01 0.95 0.54 -1.08 9.73 0.01 0.14 -0.01 15787
-0.02 0.99 0.53 -1.09 9.62 -0.00 0.13 -0.01 15794
-0.02 0.96 0.52 -1.09 9.69 -0.01 0.13 -0.01 15801
-0.03 0.96 0.58 -1.07 9.72 -0.01 0.13 -0.01 15808
-0.02 0.96 0.57 -1.07 9.70 -0.01 0.12 -0.01 15815
-0.02 0.92 0.49 -1.08 9.69 -0.01 0.12 -0.01 15822
-0.01 0.93 0.57 -1.04 9.71 0.00 0.11 -0.01 15830
-0.01 0.87 0.52 -1.03 9.65 0.01 0.11 -0.01 15837
-0.02 0.88 1.14 -0.97 9.71 0.03 0.11 -0.01 15844
-0.03 0.85 0.58 -0.95 9.75 0.05 0.10 -0.01 15851
-0.00 0.81 0.53 -0.97 9.80 0.08 0.08 -0.01 15858
0.00 0.76 0.57 -0.91 9.82 0.11 0.05 -0.01 15865
-0.01 0.70 0.62 -0.96 9.81 0.14 0.03 -0.01 15873
-0.03 0.71 0.63 -0.97 9.81 0.17 -0.00 -0.02 15880
-0.04 0.59 0.62 -1.06 9.82 0.19 -0.03 -0.03 15887
0.01 0.56 0.61 -1.15 9.93 0.22 -0.06 -0.04 15894
0.01 0.50 0.62 -1.15 9.93 0.25 -0.08 -0.04 15901
0.04 0.43 0.55 -1.30 9.92 0.29 -0.13 -0.04 15908
0.03 0.44 0.65 -1.19 9.82 0.32 -0.16 -0.05 15916
0.00 0.31 0.69 -1.19 9.89 0.35 -0.19 -0.07 15923
0.03 0.30 0.75 -1.17 9.98 0.40 -0.21 -0.08 15930
0.03 0.26 0.80 -1.37 10.13 0.44 -0.21 -0.10 15938
0.08 0.28 0.73 -1.47 10.08 0.50 -0.18 -0.12 15945
0.10 0.21 0.85 -1.55 10.17 0.56 -0.12 -0.16 15952
0.10 0.19 0.88 -1.54 10.36 0.65 -0.04 -0.20 15960
0.14 0.19 0.84 -1.79 10.97 0.78 0.10 -0.26 15967
0.13 0.20 0.52 -2.12 11.49 1.00 0.18 -0.26 15974
0.16 0.22 0.23 -1.94 11.37 1.26 0.13 -0.23 15981
0.18 0.18 0.15 -2.51 11.54 1.46 0.06 -0.23 15988
0.20 0.17 0.86 -2.24 11.61 1.59 0.08 -0.27 15995
0.22 0.21 0.71 -2.10 11.79 1.74 0.06 -0.26 16003
0.30 0.17 0.55 -2.31 11.99 1.90 0.00 -0.25 16009
0.25 0.17 0.35 1.73 12.37 2.12 -0.00 -0.26 16017
0.25 0.19 0.94 -2.64 12.21 2.35 0.01 -0.27 16024
0.32 0.21 0.66 -3.04 12.33 2.54 0.04 -0.27 16031
0.36 0.17 1.11 -3.25 11.02 2.78 0.11 -0.28 16038
0.37 0.19 0.54 -3.03 13.87 3.01 0.22 -0.30 16046
0.39 0.21 0.17 -2.69 14.21 3.33 0.28 -0.29 16053
0.37 0.23 0.30 -3.48 14.17 3.68 0.34 -0.27 16060
0.31 0.22 0.52 -3.22 14.93 4.00 0.39 -0.25 16067
0.31 0.22 0.76 -2.95 14.86 4.26 0.30 -0.23 16074
0.26 0.10 2.68 -3.62 14.45 4.28 0.30 -0.42 16081
0.21 0.09 -0.84 -4.57 15.29 4.28 0.50 -0.26 16089
0.18 0.08 0.61 -4.92 17.50 4.28 0.44 -0.22 16096
0.09 0.09 0.00 -6.08 20.17 4.28 0.53 -0.18 16102
0.07 0.12 0.51 -7.60 20.07 4.28 0.43 -0.19 16109
0.04 0.11 0.22 -12.94 20.09 4.28 0.29 -0.13 16117
0.02 0.13 1.64 -9.55 25.49 4.28 0.02 -0.13 16124
0.03 0.11 0.73 -8.44 26.02 4.28 0.05 -0.06 16131
-0.01 0.12 -0.80 -8.48 26.97 4.28 -0.01 -0.05 16139
-0.01 0.10 1.29 -8.35 26.87 4.28 -0.33 0.08 16145
-0.01 0.12 5.38 -7.59 30.28 4.28 -0.29 0.08 16152
-0.01 0.11 7.14 -1.96 29.45 4.28 -0.05 -0.16 16159
-0.01 0.12 7.96 3.20 25.63 4.28 0.31 -0.36 16166
-0.01 0.10 5.54 13.18 22.09 4.28 1.04 -0.62 16175
-0.01 0.13 -0.92 27.73 7.85 4.28 1.37 -1.41 16181
-0.01 0.14 7.17 21.15 22.46 2.79 1.18 -1.84 16189
-0.01 0.14 -1.67 15.79 26.44 0.57 0.87 -1.83 16196
-0.01 0.13 -2.97 13.35 21.48 -0.79 0.41 -1.94 16203
-0.01 0.13 -2.47 11.36 13.88 -1.25 -0.43 -1.98 16210
-0.01 0.12 -1.27 9.76 9.88 -1.42 -1.17 -2.06 16217
-0.01 0.13 0.91 8.02 9.61 -1.57 -1.65 -2.12 16224
-0.01 0.13 1.98 7.32 9.82 -1.76 -1.74 -2.05 16231
-0.01 0.14 2.64 7.31 9.74 -2.05 -1.59 -1.89 16238
-0.01 0.14 2.25 7.39 9.41 -2.35 -1.37 -1.68 16245
-0.01 0.14 1.76 7.24 9.65 -2.72 -1.26 -1.47 16252
-0.01 0.13 1.39 6.79 9.80 -3.11 -1.21 -1.23 16260
-0.01 0.14 1.43 6.14 10.20 -3.41 -1.14 -0.99 16267
-0.02 0.15 1.72 5.74 10.18 -3.76 -1.09 -0.80 16274
-0.01 0.15 1.95 4.91 10.07 -4.07 -0.95 -0.61 16282
-0.01 0.14 2.09 3.85 10.07 -4.21 -0.80 -0.44 16288
-0.01 0.15 1.81 2.80 9.98 -4.27 -0.61 -0.34 16295
-0.01 0.15 1.54 1.88 9.84 -4.28 -0.42 -0.23 16303
-0.01 0.15 1.26 1.02 9.97 -4.28 -0.31 -0.15 16310
-0.02 0.17 0.97 0.33 10.25 -4.28 -0.20 -0.07 16317
0.00 0.14 0.77 -0.06 10.61 -4.28 -0.12 -0.00 16324
-0.02 0.15 0.55 -0.37 11.34 -4.28 -0.06 0.04 16331
-0.01 0.15 0.27 -0.93 12.09 -4.28 -0.03 0.08 16338
-0.01 0.14 0.12 -1.43 12.93 -4.28 -0.00 0.09 16346
-0.01 0.15 0.16 -1.81 13.58 -4.28 0.01 0.07 16353
-0.01 0.16 0.43 -2.24 14.28 -4.28 0.04 0.03 16360
-0.00 0.15 0.78 -2.70 14.77 -4.28 0.11 -0.01 16367
-0.01 0.15 1.15 -3.32 14.99 -4.28 0.22 -0.07 16375
-0.01 0.14 1.48 -3.86 15.24 -4.28 0.34 -0.16 16382
-0.01 0.13 2.00 -4.64 15.39 -4.28 0.49 -0.18 16389
-0.01 0.14 2.55 -5.53 15.36 -4.28 0.65 -0.21 16397
-0.00 0.15 3.13 -6.09 15.80 -4.27 0.79 -0.20 16404
0.00 0.13 3.65 -6.29 17.13 -4.19 0.99 -0.18 16411
-0.01 0.13 3.75 -6.21 19.41 -4.13 1.20 -0.15 16418
-0.01 0.13 3.42 -6.12 20.42 -4.17 1.41 -0.11 16424
-0.01 0.13 2.93 -6.66 21.06 -4.22 1.49 -0.08 16432
-0.01 0.12 2.68 -7.33 22.00 -4.24 1.53 -0.06 16439
-0.00 0.12 2.47 -8.14 21.94 -4.24 1.57 -0.03 16447
-0.01 0.12 2.28 -8.83 22.66 -4.25 1.65 -0.03 16454
-0.01 0.13 1.73 -9.35 23.46 -4.26 1.79 -0.05 16460
-0.01 0.11 0.89 -10.42 24.15 -4.28 1.92 -0.11 16468
-0.01 0.12 0.03 -12.06 24.15 -4.28 1.95 -0.17 16476
-0.01 0.14 -0.84 -14.45 23.42 -4.28 1.89 -0.27 16483
-0.01 0.14 -1.07 -17.42 21.86 -4.28 1.79 -0.38 16490
-0.01 0.13 -0.66 -20.01 19.98 -4.28 1.67 -0.45 16497
-0.01 0.12 -0.03 -22.82 17.38 -4.28 1.58 -0.48 16504
-0.01 0.12 0.14 -24.84 13.90 -4.22 1.61 -0.43 16512
-0.01 0.13 -1.61 -26.76 11.56 -3.77 1.93 -0.28 16519
-0.01 0.14 -4.81 -30.82 9.71 -3.31 2.23 -0.08 16525
-0.01 0.13 -7.88 -35.15 7.90 -2.83 2.14 0.08 16532
-0.01 0.12 -10.65 -41.42 4.70 -2.35 1.55 0.28 16540
-0.01 0.13 -12.38 -47.05 1.41 -1.82 0.94 0.52 16547
-0.01 0.12 -12.87 -48.40 -0.22 -0.92 0.28 0.70 16555
-0.01 0.13 -11.84 -43.68 0.05 0.03 -0.38 0.79 16561
-0.01 0.14 -9.43 -37.24 2.88 0.99 -0.86 0.78 16568
-0.00 0.14 -6.74 -29.71 6.04 1.55 -1.16 0.71 16576
-0.01 0.16 -12.71 -19.72 51.41 3.76 -2.25 0.62 16583
-0.03 0.32 -0.94 11.00 1.80 3.79 -1.53 0.59 16589
-0.05 0.58 -0.29 3.73 9.70 3.37 -1.38 0.65 16596
-0.05 0.89 -4.57 1.95 12.27 3.03 -1.29 0.77 16605
-0.06 1.08 0.17 0.15 4.15 3.02 -1.30 0.78 16611
-0.06 1.20 -3.74 -2.64 14.12 3.86 -0.78 0.86 16619
-0.07 1.29 -1.50 -4.36 17.32 4.28 0.38 0.93 16626
-0.08 1.43 -0.31 -6.14 25.04 4.28 1.08 1.16 16633
-0.07 1.60 -7.14 -8.56 24.76 4.00 0.99 0.94 16641
-0.07 1.71 -6.50 -5.19 18.30 3.96 0.95 0.36 16648
-0.07 1.80 -1.84 -3.63 18.96 3.64 0.69 -0.11 16655
-0.08 1.80 0.28 -3.28 16.18 3.08 0.71 -0.23 16662
-0.09 1.85 2.87 -2.51 15.08 2.77 0.75 -0.15 16669
-0.09 1.81 3.24 -3.27 18.21 2.26 0.42 0.08 16676
-0.10 1.78 1.97 -2.55 16.07 1.04 -0.45 0.17 16684
-0.10 1.82 -0.48 -2.40 12.18 0.45 -0.40 0.22 16691
-0.09 1.80 0.29 -1.53 10.87 0.23 -0.30 0.17 16698
-0.09 1.74 0.63 -1.50 9.93 0.08 -0.22 0.14 16704
-0.07 1.70 0.58 -1.29 10.26 0.03 -0.15 0.15 16712
-0.08 1.74 -0.02 -1.40 10.11 -0.03 -0.07 0.13 16719
-0.08 1.69 0.13 -1.36 9.97 -0.05 -0.03 0.07 16726
-0.07 1.71 0.31 -1.31 9.97 -0.04 -0.02 0.06 16733
-0.08 1.74 0.22 -1.15 9.89 -0.03 -0.01 0.04 16740
-0.08 1.74 0.26 -1.08 9.77 -0.02 0.00 0.02 16747
-0.07 1.73 0.24 -1.04 9.76 -0.02 0.01 0.01 16754
-0.08 1.70 0.20 -0.97 9.81 -0.02 0.02 0.01 16761
-0.07 1.68 0.23 -0.95 9.78 -0.01 0.03 0.00 16769
-0.05 1.66 0.23 -0.89 9.75 -0.00 0.05 0.00 16776
-0.04 1.63 0.22 -0.91 9.82 0.02 0.06 0.01 16783
-0.06 1.60 0.20 -0.88 9.81 0.04 0.07 0.01 16790
-0.06 1.57 0.29 -0.85 9.79 0.07 0.07 0.02 16797
-0.06 1.49 0.26 -0.89 9.79 0.09 0.08 0.02 16804
-0.05 1.47 0.29 -0.89 9.73 0.10 0.08 0.02 16812
-0.04 1.39 0.34 -0.89 9.70 0.11 0.07 0.02 16819
-0.04 1.34 0.44 -0.89 9.65 0.11 0.06 0.01 16826
-0.05 1.30 0.39 -0.91 9.65 0.12 0.04 0.01 16833
-0.06 1.28 0.37 -1.00 9.60 0.11 0.04 -0.00 16840
-0.05 1.26 0.43 -0.99 9.66 0.10 0.03 -0.01 16847
-0.05 1.22 0.41 -1.01 9.61 0.09 0.02 -0.03 16855
-0.04 1.18 0.40 -1.00 9.63 0.09 0.02 -0.03 16862
-0.04 1.13 0.38 -1.03 9.69 0.08 0.02 -0.04 16869
-0.04 1.09 0.35 -1.03 9.68 0.07 0.02 -0.04 16876
-0.05 1.07 0.32 -1.04 9.70 0.06 0.03 -0.04 16883
-0.03 1.04 0.25 -1.06 9.73 0.06 0.04 -0.04 16890
-0.03 1.05 0.29 -1.05 9.75 0.06 0.05 -0.04 16898
-0.02 0.95 0.31 -1.06 9.72 0.06 0.06 -0.04 16905
-0.03 0.98 0.32 -1.05 9.77 0.06 0.07 -0.03 16912
-0.03 0.94 0.36 -1.01 9.72 0.06 0.07 -0.03 16919
-0.02 0.92 0.43 -1.04 9.65 0.06 0.07 -0.03 16926
-0.03 0.90 0.44 -1.07 9.67 0.06 0.05 -0.07 16933
-0.03 0.85 0.43 -1.05 9.65 0.05 0.03 -0.04 16941
-0.01 0.78 0.45 -1.07 9.68 0.05 0.01 -0.04 16948
-0.02 0.84 0.46 -1.09 9.73 0.05 -0.01 -0.04 16955
-0.01 0.77 0.46 -1.12 9.77 0.06 -0.03 -0.05 16962
-0.00 0.78 0.46 -1.12 9.73 0.06 -0.06 -0.05 16969
-0.00 0.76 0.38 -1.10 9.82 0.08 -0.10 -0.05 16976
0.00 0.74 0.43 -1.16 9.77 0.10 -0.14 -0.06 16984
0.01 0.74 0.44 -1.03 9.76 0.12 -0.17 -0.06 16991
-0.01 0.71 0.33 -1.12 9.83 0.14 -0.18 -0.07 16998
-0.02 0.65 0.37 -1.23 9.80 0.16 -0.18 -0.08 17005
0.01 0.61 0.33 -1.23 9.82 0.18 -0.18 -0.09 17012
0.02 0.58 0.33 -1.20 9.82 0.20 -0.17 -0.09 17019
0.05 0.56 0.35 -1.74 9.81 0.22 -0.17 -0.07 17027
0.07 0.51 0.34 -1.28 9.76 0.25 -0.17 -0.11 17034
0.08 0.49 0.36 -1.30 9.96 0.27 -0.17 -0.12 17041
0.15 0.40 0.31 -1.21 9.88 0.32 -0.16 -0.13 17048
0.16 0.36 0.33 -1.32 10.06 0.35 -0.13 -0.14 17056
0.18 0.33 0.29 -1.44 10.10 0.41 -0.09 -0.15 17063
0.24 0.30 0.34 -1.39 10.25 0.46 -0.06 -0.17 17071
0.21 0.25 0.35 -1.39 10.38 0.53 -0.02 -0.20 17078
0.28 0.25 0.41 -1.61 10.44 0.64 0.02 -0.23 17085
0.30 0.19 0.41 -1.83 10.67 0.77 0.05 -0.25 17092
0.29 0.20 0.33 -2.13 11.29 0.93 0.11 -0.25 17099
0.31 0.19 -0.16 -1.93 11.99 1.22 0.15 -0.21 17106
0.38 0.22 -0.00 -2.15 11.83 1.43 0.14 -0.16 17114
0.40 0.18 0.13 -2.27 11.75 1.60 0.14 -0.15 17121
0.47 0.21 -0.13 -2.15 12.18 1.79 0.12 -0.14 17128
0.49 0.18 0.24 -2.21 12.10 1.99 0.13 -0.10 17135
0.52 0.17 0.14 -2.47 12.50 2.23 0.13 -0.11 17142
0.55 0.18 0.78 -2.59 12.46 2.45 0.15 -0.13 17149
0.58 0.16 0.76 -2.65 12.72 2.71 0.18 -0.16 17157
0.56 0.18 0.40 -2.51 12.27 2.95 0.19 -0.19 17164
0.54 0.17 0.65 -3.13 13.00 3.11 0.20 -0.24 17171
0.52 0.16 0.39 -3.57 13.46 3.33 0.24 -0.25 17178
0.51 0.15 0.37 -3.47 13.82 3.64 0.18 -0.25 17185
0.42 0.15 0.77 -3.47 14.57 3.92 0.11 -0.27 17192
0.40 0.18 1.43 -4.13 14.46 4.18 0.03 -0.33 17200
0.37 0.17 1.55 -4.00 15.12 4.28 -0.04 -0.43 17207
0.26 0.12 -0.12 -4.12 16.21 4.28 -0.15 -0.54 17214
0.17 0.10 2.83 -5.00 15.04 4.28 -0.26 -0.56 17221
0.13 0.09 0.80 -6.39 18.39 4.28 -0.36 -0.48 17228
0.09 0.11 1.92 -7.48 18.40 4.28 -0.45 -0.50 17235
0.11 0.07 -0.08 -9.16 20.55 4.28 -0.51 -0.61 17243
0.06 0.09 -1.18 -8.92 24.69 4.28 -0.83 -0.61 17250
0.04 0.07 -1.54 -8.17 25.25 4.28 -1.26 -0.51 17257
0.05 0.08 -1.80 -8.47 24.60 4.28 -1.31 -0.37 17264
0.03 0.10 0.67 -7.52 26.16 4.28 -1.64 -0.37 17271
0.02 0.09 3.25 -8.12 30.17 4.28 -1.91 -0.35 17278
0.00 0.07 6.52 -5.34 29.92 4.28 -1.89 -0.34 17286
-0.01 0.08 9.14 -0.82 26.03 4.28 -1.45 -0.38 17292
-0.01 0.09 7.99 7.20 21.09 4.28 -0.90 -0.59 17299
-0.01 0.12 7.36 16.58 15.59 4.28 -0.50 -0.88 17307
-0.01 0.11 9.21 19.12 7.06 4.28 -0.06 -1.31 17313
-0.02 0.16 10.15 15.46 31.18 3.26 0.82 -1.21 17321
-0.01 0.14 3.80 16.95 27.26 0.78 1.29 -1.03 17329
-0.01 0.14 -0.54 17.92 19.37 -0.62 0.81 -0.67 17336
-0.01 0.13 -1.67 15.44 14.95 -1.64 -0.09 -0.43 17343
-0.01 0.14 -1.71 11.71 12.09 -2.07 -1.17 -0.27 17350
-0.01 0.15 0.29 9.80 10.49 -2.24 -1.74 -0.19 17356
